startup.started,startup.stopped,Prolific ID*,date,expName,psychopyVersion,OS,frameRate,participant,study_id,session,stimpositions.started,stimpositions.stopped,hardcoded_stimulus_positions.thisRepN,hardcoded_stimulus_positions.thisTrialN,hardcoded_stimulus_positions.thisN,hardcoded_stimulus_positions.thisIndex,hardcoded_stimulus_positions.ran,StimulusPos,stimorientation.started,stimorientation.stopped,prac_stimorientation_import_loop.thisRepN,prac_stimorientation_import_loop.thisTrialN,prac_stimorientation_import_loop.thisN,prac_stimorientation_import_loop.thisIndex,prac_stimorientation_import_loop.ran,Stimorientation,welcome_instr.started,welcome_instr.stopped,key_resp.keys,key_resp.rt,key_resp.duration,response_steppedout_1.started,response_steppedout_1.stopped,key_resp_20.keys,key_resp_20.rt,key_resp_20.duration,response_steppedout_2.started,response_steppedout_2.stopped,key_resp_19.keys,key_resp_19.rt,key_resp_19.duration,stim_response_instr.started,stim_response_instr.stopped,key_resp_15.keys,key_resp_15.rt,key_resp_15.duration,direction_instr_2.started,direction_instr_2.stopped,key_resp_9.keys,key_resp_9.rt,key_resp_9.duration,instr_prac.started,instr_prac.stopped,key_resp_10.keys,key_resp_10.rt,key_resp_10.duration,Stim1_display_prac.started,Stim1_display_prac.stopped,Ecc,Circle1_ori,Circle2_ori,response_prac.started,similarity,response_time,response_prac.stopped,mouse_5.x,mouse_5.y,mouse_5.leftButton,mouse_5.midButton,mouse_5.rightButton,mouse_5.clicked_name,responseprac_feedback.started,responseprac_feedback.stopped,summary2_prac.started,summary2_prac.stopped,mouse_6.x,mouse_6.y,mouse_6.leftButton,mouse_6.midButton,mouse_6.rightButton,mouse_6.clicked_name,duringprac.thisRepN,duringprac.thisTrialN,duringprac.thisN,duringprac.thisIndex,duringprac.ran,begin.started,begin.stopped,key_resp_22.keys,key_resp_22.rt,key_resp_22.duration,Stim1_display.started,Stim1_display.stopped,circle1_ori,circle2_ori,circle1_SF,circle2_SF,response.started,response.stopped,mouse.x,mouse.y,mouse.leftButton,mouse.midButton,mouse.rightButton,mouse.clicked_name,trialnumber,double_pass.thisRepN,double_pass.thisTrialN,double_pass.thisN,double_pass.thisIndex,double_pass.ran,double_pass.order,main_trial.thisRepN,main_trial.thisTrialN,main_trial.thisN,main_trial.thisIndex,main_trial.ran,main_trial.order,Trial_Counter,Catch,Frequencies,response_2.started,response_2.stopped,mouse_2.x,mouse_2.y,mouse_2.leftButton,mouse_2.midButton,mouse_2.rightButton,mouse_2.clicked_name,special_trial.started,special_trial.stopped,catch_1.started,catch_1.stopped,mouse_3.x,mouse_3.y,mouse_3.leftButton,mouse_3.midButton,mouse_3.rightButton,catchresponse,catchnumber,response_time_catch,response_sum.started,response_sum.stopped,mouse_11.x,mouse_11.y,mouse_11.leftButton,mouse_11.midButton,mouse_11.rightButton,flip_presentation_sequence_for_double_pass.started,flip_presentation_sequence_for_double_pass.stopped,goodbye.started,goodbye.stopped,key_resp_3.keys,key_resp_3.rt,key_resp_3.duration
0.001,0.001,60cc20a8d1d940dcfa9df92d,2024-02-18_21h07.54.719,kallum_motion_pilot,2023.2.2,Win32,90.90909091,60cc20a8d1d940dcfa9df92d,65d2b6c8f2eece985d8e374c,65d2b7d3c67a654a5c71c23b,,,,,,,,,,,,,,,,,,,,,,,,,,,,,,,,,,,,,,,,,,,,,,,,,,,,,,,,,,,,,,,,,,,,,,,,,,,,,,,,,,,,,,,,,,,,,,,,,,,,,,,,,,,,,,,,,,,,,,,,,,,,,,,,,,,,,,,,,,,,,,,,,
,,60cc20a8d1d940dcfa9df92d,2024-02-18_21h07.54.719,kallum_motion_pilot,2023.2.2,Win32,90.90909091,60cc20a8d1d940dcfa9df92d,65d2b6c8f2eece985d8e374c,65d2b7d3c67a654a5c71c23b,0.03,0.031,0,0,0,50,1,twoone,,,,,,,,,,,,,,,,,,,,,,,,,,,,,,,,,,,,,,,,,,,,,,,,,,,,,,,,,,,,,,,,,,,,,,,,,,,,,,,,,,,,,,,,,,,,,,,,,,,,,,,,,,,,,,,,,,,,,,,,,,,,,,,,,,,,,,,,,
,,60cc20a8d1d940dcfa9df92d,2024-02-18_21h07.54.719,kallum_motion_pilot,2023.2.2,Win32,90.90909091,60cc20a8d1d940dcfa9df92d,65d2b6c8f2eece985d8e374c,65d2b7d3c67a654a5c71c23b,0.031,0.031,0,1,1,83,1,sixeight,,,,,,,,,,,,,,,,,,,,,,,,,,,,,,,,,,,,,,,,,,,,,,,,,,,,,,,,,,,,,,,,,,,,,,,,,,,,,,,,,,,,,,,,,,,,,,,,,,,,,,,,,,,,,,,,,,,,,,,,,,,,,,,,,,,,,,,,,
,,60cc20a8d1d940dcfa9df92d,2024-02-18_21h07.54.719,kallum_motion_pilot,2023.2.2,Win32,90.90909091,60cc20a8d1d940dcfa9df92d,65d2b6c8f2eece985d8e374c,65d2b7d3c67a654a5c71c23b,0.031,0.031,0,2,2,99,1,sixeight,,,,,,,,,,,,,,,,,,,,,,,,,,,,,,,,,,,,,,,,,,,,,,,,,,,,,,,,,,,,,,,,,,,,,,,,,,,,,,,,,,,,,,,,,,,,,,,,,,,,,,,,,,,,,,,,,,,,,,,,,,,,,,,,,,,,,,,,,
,,60cc20a8d1d940dcfa9df92d,2024-02-18_21h07.54.719,kallum_motion_pilot,2023.2.2,Win32,90.90909091,60cc20a8d1d940dcfa9df92d,65d2b6c8f2eece985d8e374c,65d2b7d3c67a654a5c71c23b,0.031,0.031,0,3,3,33,1,onethree,,,,,,,,,,,,,,,,,,,,,,,,,,,,,,,,,,,,,,,,,,,,,,,,,,,,,,,,,,,,,,,,,,,,,,,,,,,,,,,,,,,,,,,,,,,,,,,,,,,,,,,,,,,,,,,,,,,,,,,,,,,,,,,,,,,,,,,,,
,,60cc20a8d1d940dcfa9df92d,2024-02-18_21h07.54.719,kallum_motion_pilot,2023.2.2,Win32,90.90909091,60cc20a8d1d940dcfa9df92d,65d2b6c8f2eece985d8e374c,65d2b7d3c67a654a5c71c23b,0.031,0.031,0,4,4,44,1,threeone,,,,,,,,,,,,,,,,,,,,,,,,,,,,,,,,,,,,,,,,,,,,,,,,,,,,,,,,,,,,,,,,,,,,,,,,,,,,,,,,,,,,,,,,,,,,,,,,,,,,,,,,,,,,,,,,,,,,,,,,,,,,,,,,,,,,,,,,,
,,60cc20a8d1d940dcfa9df92d,2024-02-18_21h07.54.719,kallum_motion_pilot,2023.2.2,Win32,90.90909091,60cc20a8d1d940dcfa9df92d,65d2b6c8f2eece985d8e374c,65d2b7d3c67a654a5c71c23b,0.031,0.031,0,5,5,141,1,seveneight,,,,,,,,,,,,,,,,,,,,,,,,,,,,,,,,,,,,,,,,,,,,,,,,,,,,,,,,,,,,,,,,,,,,,,,,,,,,,,,,,,,,,,,,,,,,,,,,,,,,,,,,,,,,,,,,,,,,,,,,,,,,,,,,,,,,,,,,,
,,60cc20a8d1d940dcfa9df92d,2024-02-18_21h07.54.719,kallum_motion_pilot,2023.2.2,Win32,90.90909091,60cc20a8d1d940dcfa9df92d,65d2b6c8f2eece985d8e374c,65d2b7d3c67a654a5c71c23b,0.031,0.031,0,6,6,75,1,twofour,,,,,,,,,,,,,,,,,,,,,,,,,,,,,,,,,,,,,,,,,,,,,,,,,,,,,,,,,,,,,,,,,,,,,,,,,,,,,,,,,,,,,,,,,,,,,,,,,,,,,,,,,,,,,,,,,,,,,,,,,,,,,,,,,,,,,,,,,
,,60cc20a8d1d940dcfa9df92d,2024-02-18_21h07.54.719,kallum_motion_pilot,2023.2.2,Win32,90.90909091,60cc20a8d1d940dcfa9df92d,65d2b6c8f2eece985d8e374c,65d2b7d3c67a654a5c71c23b,0.031,0.031,0,7,7,113,1,fiveseven,,,,,,,,,,,,,,,,,,,,,,,,,,,,,,,,,,,,,,,,,,,,,,,,,,,,,,,,,,,,,,,,,,,,,,,,,,,,,,,,,,,,,,,,,,,,,,,,,,,,,,,,,,,,,,,,,,,,,,,,,,,,,,,,,,,,,,,,,
,,60cc20a8d1d940dcfa9df92d,2024-02-18_21h07.54.719,kallum_motion_pilot,2023.2.2,Win32,90.90909091,60cc20a8d1d940dcfa9df92d,65d2b6c8f2eece985d8e374c,65d2b7d3c67a654a5c71c23b,0.032,0.032,0,8,8,9,1,onethree,,,,,,,,,,,,,,,,,,,,,,,,,,,,,,,,,,,,,,,,,,,,,,,,,,,,,,,,,,,,,,,,,,,,,,,,,,,,,,,,,,,,,,,,,,,,,,,,,,,,,,,,,,,,,,,,,,,,,,,,,,,,,,,,,,,,,,,,,
,,60cc20a8d1d940dcfa9df92d,2024-02-18_21h07.54.719,kallum_motion_pilot,2023.2.2,Win32,90.90909091,60cc20a8d1d940dcfa9df92d,65d2b6c8f2eece985d8e374c,65d2b7d3c67a654a5c71c23b,0.033,0.033,0,9,9,41,1,onethree,,,,,,,,,,,,,,,,,,,,,,,,,,,,,,,,,,,,,,,,,,,,,,,,,,,,,,,,,,,,,,,,,,,,,,,,,,,,,,,,,,,,,,,,,,,,,,,,,,,,,,,,,,,,,,,,,,,,,,,,,,,,,,,,,,,,,,,,,
,,60cc20a8d1d940dcfa9df92d,2024-02-18_21h07.54.719,kallum_motion_pilot,2023.2.2,Win32,90.90909091,60cc20a8d1d940dcfa9df92d,65d2b6c8f2eece985d8e374c,65d2b7d3c67a654a5c71c23b,0.033,0.033,0,10,10,68,1,threeone,,,,,,,,,,,,,,,,,,,,,,,,,,,,,,,,,,,,,,,,,,,,,,,,,,,,,,,,,,,,,,,,,,,,,,,,,,,,,,,,,,,,,,,,,,,,,,,,,,,,,,,,,,,,,,,,,,,,,,,,,,,,,,,,,,,,,,,,,
,,60cc20a8d1d940dcfa9df92d,2024-02-18_21h07.54.719,kallum_motion_pilot,2023.2.2,Win32,90.90909091,60cc20a8d1d940dcfa9df92d,65d2b6c8f2eece985d8e374c,65d2b7d3c67a654a5c71c23b,0.033,0.033,0,11,11,131,1,sixeight,,,,,,,,,,,,,,,,,,,,,,,,,,,,,,,,,,,,,,,,,,,,,,,,,,,,,,,,,,,,,,,,,,,,,,,,,,,,,,,,,,,,,,,,,,,,,,,,,,,,,,,,,,,,,,,,,,,,,,,,,,,,,,,,,,,,,,,,,
,,60cc20a8d1d940dcfa9df92d,2024-02-18_21h07.54.719,kallum_motion_pilot,2023.2.2,Win32,90.90909091,60cc20a8d1d940dcfa9df92d,65d2b6c8f2eece985d8e374c,65d2b7d3c67a654a5c71c23b,0.034,0.034,0,12,12,105,1,fiveseven,,,,,,,,,,,,,,,,,,,,,,,,,,,,,,,,,,,,,,,,,,,,,,,,,,,,,,,,,,,,,,,,,,,,,,,,,,,,,,,,,,,,,,,,,,,,,,,,,,,,,,,,,,,,,,,,,,,,,,,,,,,,,,,,,,,,,,,,,
,,60cc20a8d1d940dcfa9df92d,2024-02-18_21h07.54.719,kallum_motion_pilot,2023.2.2,Win32,90.90909091,60cc20a8d1d940dcfa9df92d,65d2b6c8f2eece985d8e374c,65d2b7d3c67a654a5c71c23b,0.034,0.034,0,13,13,36,1,threeone,,,,,,,,,,,,,,,,,,,,,,,,,,,,,,,,,,,,,,,,,,,,,,,,,,,,,,,,,,,,,,,,,,,,,,,,,,,,,,,,,,,,,,,,,,,,,,,,,,,,,,,,,,,,,,,,,,,,,,,,,,,,,,,,,,,,,,,,,
,,60cc20a8d1d940dcfa9df92d,2024-02-18_21h07.54.719,kallum_motion_pilot,2023.2.2,Win32,90.90909091,60cc20a8d1d940dcfa9df92d,65d2b6c8f2eece985d8e374c,65d2b7d3c67a654a5c71c23b,0.034,0.034,0,14,14,86,1,eightsix,,,,,,,,,,,,,,,,,,,,,,,,,,,,,,,,,,,,,,,,,,,,,,,,,,,,,,,,,,,,,,,,,,,,,,,,,,,,,,,,,,,,,,,,,,,,,,,,,,,,,,,,,,,,,,,,,,,,,,,,,,,,,,,,,,,,,,,,,
,,60cc20a8d1d940dcfa9df92d,2024-02-18_21h07.54.719,kallum_motion_pilot,2023.2.2,Win32,90.90909091,60cc20a8d1d940dcfa9df92d,65d2b6c8f2eece985d8e374c,65d2b7d3c67a654a5c71c23b,0.034,0.034,0,15,15,159,1,eightseven,,,,,,,,,,,,,,,,,,,,,,,,,,,,,,,,,,,,,,,,,,,,,,,,,,,,,,,,,,,,,,,,,,,,,,,,,,,,,,,,,,,,,,,,,,,,,,,,,,,,,,,,,,,,,,,,,,,,,,,,,,,,,,,,,,,,,,,,,
,,60cc20a8d1d940dcfa9df92d,2024-02-18_21h07.54.719,kallum_motion_pilot,2023.2.2,Win32,90.90909091,60cc20a8d1d940dcfa9df92d,65d2b6c8f2eece985d8e374c,65d2b7d3c67a654a5c71c23b,0.034,0.034,0,16,16,82,1,sixfive,,,,,,,,,,,,,,,,,,,,,,,,,,,,,,,,,,,,,,,,,,,,,,,,,,,,,,,,,,,,,,,,,,,,,,,,,,,,,,,,,,,,,,,,,,,,,,,,,,,,,,,,,,,,,,,,,,,,,,,,,,,,,,,,,,,,,,,,,
,,60cc20a8d1d940dcfa9df92d,2024-02-18_21h07.54.719,kallum_motion_pilot,2023.2.2,Win32,90.90909091,60cc20a8d1d940dcfa9df92d,65d2b6c8f2eece985d8e374c,65d2b7d3c67a654a5c71c23b,0.034,0.034,0,17,17,147,1,sixeight,,,,,,,,,,,,,,,,,,,,,,,,,,,,,,,,,,,,,,,,,,,,,,,,,,,,,,,,,,,,,,,,,,,,,,,,,,,,,,,,,,,,,,,,,,,,,,,,,,,,,,,,,,,,,,,,,,,,,,,,,,,,,,,,,,,,,,,,,
,,60cc20a8d1d940dcfa9df92d,2024-02-18_21h07.54.719,kallum_motion_pilot,2023.2.2,Win32,90.90909091,60cc20a8d1d940dcfa9df92d,65d2b6c8f2eece985d8e374c,65d2b7d3c67a654a5c71c23b,0.034,0.034,0,18,18,28,1,threeone,,,,,,,,,,,,,,,,,,,,,,,,,,,,,,,,,,,,,,,,,,,,,,,,,,,,,,,,,,,,,,,,,,,,,,,,,,,,,,,,,,,,,,,,,,,,,,,,,,,,,,,,,,,,,,,,,,,,,,,,,,,,,,,,,,,,,,,,,
,,60cc20a8d1d940dcfa9df92d,2024-02-18_21h07.54.719,kallum_motion_pilot,2023.2.2,Win32,90.90909091,60cc20a8d1d940dcfa9df92d,65d2b6c8f2eece985d8e374c,65d2b7d3c67a654a5c71c23b,0.034,0.034,0,19,19,154,1,sixfive,,,,,,,,,,,,,,,,,,,,,,,,,,,,,,,,,,,,,,,,,,,,,,,,,,,,,,,,,,,,,,,,,,,,,,,,,,,,,,,,,,,,,,,,,,,,,,,,,,,,,,,,,,,,,,,,,,,,,,,,,,,,,,,,,,,,,,,,,
,,60cc20a8d1d940dcfa9df92d,2024-02-18_21h07.54.719,kallum_motion_pilot,2023.2.2,Win32,90.90909091,60cc20a8d1d940dcfa9df92d,65d2b6c8f2eece985d8e374c,65d2b7d3c67a654a5c71c23b,0.035,0.035,0,20,20,62,1,fourtwo,,,,,,,,,,,,,,,,,,,,,,,,,,,,,,,,,,,,,,,,,,,,,,,,,,,,,,,,,,,,,,,,,,,,,,,,,,,,,,,,,,,,,,,,,,,,,,,,,,,,,,,,,,,,,,,,,,,,,,,,,,,,,,,,,,,,,,,,,
,,60cc20a8d1d940dcfa9df92d,2024-02-18_21h07.54.719,kallum_motion_pilot,2023.2.2,Win32,90.90909091,60cc20a8d1d940dcfa9df92d,65d2b6c8f2eece985d8e374c,65d2b7d3c67a654a5c71c23b,0.035,0.035,0,21,21,144,1,fivesix,,,,,,,,,,,,,,,,,,,,,,,,,,,,,,,,,,,,,,,,,,,,,,,,,,,,,,,,,,,,,,,,,,,,,,,,,,,,,,,,,,,,,,,,,,,,,,,,,,,,,,,,,,,,,,,,,,,,,,,,,,,,,,,,,,,,,,,,,
,,60cc20a8d1d940dcfa9df92d,2024-02-18_21h07.54.719,kallum_motion_pilot,2023.2.2,Win32,90.90909091,60cc20a8d1d940dcfa9df92d,65d2b6c8f2eece985d8e374c,65d2b7d3c67a654a5c71c23b,0.035,0.035,0,22,22,134,1,eightsix,,,,,,,,,,,,,,,,,,,,,,,,,,,,,,,,,,,,,,,,,,,,,,,,,,,,,,,,,,,,,,,,,,,,,,,,,,,,,,,,,,,,,,,,,,,,,,,,,,,,,,,,,,,,,,,,,,,,,,,,,,,,,,,,,,,,,,,,,
,,60cc20a8d1d940dcfa9df92d,2024-02-18_21h07.54.719,kallum_motion_pilot,2023.2.2,Win32,90.90909091,60cc20a8d1d940dcfa9df92d,65d2b6c8f2eece985d8e374c,65d2b7d3c67a654a5c71c23b,0.035,0.035,0,23,23,76,1,threeone,,,,,,,,,,,,,,,,,,,,,,,,,,,,,,,,,,,,,,,,,,,,,,,,,,,,,,,,,,,,,,,,,,,,,,,,,,,,,,,,,,,,,,,,,,,,,,,,,,,,,,,,,,,,,,,,,,,,,,,,,,,,,,,,,,,,,,,,,
,,60cc20a8d1d940dcfa9df92d,2024-02-18_21h07.54.719,kallum_motion_pilot,2023.2.2,Win32,90.90909091,60cc20a8d1d940dcfa9df92d,65d2b6c8f2eece985d8e374c,65d2b7d3c67a654a5c71c23b,0.036,0.036,0,24,24,45,1,threefour,,,,,,,,,,,,,,,,,,,,,,,,,,,,,,,,,,,,,,,,,,,,,,,,,,,,,,,,,,,,,,,,,,,,,,,,,,,,,,,,,,,,,,,,,,,,,,,,,,,,,,,,,,,,,,,,,,,,,,,,,,,,,,,,,,,,,,,,,
,,60cc20a8d1d940dcfa9df92d,2024-02-18_21h07.54.719,kallum_motion_pilot,2023.2.2,Win32,90.90909091,60cc20a8d1d940dcfa9df92d,65d2b6c8f2eece985d8e374c,65d2b7d3c67a654a5c71c23b,0.036,0.036,0,25,25,145,1,fiveseven,,,,,,,,,,,,,,,,,,,,,,,,,,,,,,,,,,,,,,,,,,,,,,,,,,,,,,,,,,,,,,,,,,,,,,,,,,,,,,,,,,,,,,,,,,,,,,,,,,,,,,,,,,,,,,,,,,,,,,,,,,,,,,,,,,,,,,,,,
,,60cc20a8d1d940dcfa9df92d,2024-02-18_21h07.54.719,kallum_motion_pilot,2023.2.2,Win32,90.90909091,60cc20a8d1d940dcfa9df92d,65d2b6c8f2eece985d8e374c,65d2b7d3c67a654a5c71c23b,0.036,0.036,0,26,26,126,1,eightsix,,,,,,,,,,,,,,,,,,,,,,,,,,,,,,,,,,,,,,,,,,,,,,,,,,,,,,,,,,,,,,,,,,,,,,,,,,,,,,,,,,,,,,,,,,,,,,,,,,,,,,,,,,,,,,,,,,,,,,,,,,,,,,,,,,,,,,,,,
,,60cc20a8d1d940dcfa9df92d,2024-02-18_21h07.54.719,kallum_motion_pilot,2023.2.2,Win32,90.90909091,60cc20a8d1d940dcfa9df92d,65d2b6c8f2eece985d8e374c,65d2b7d3c67a654a5c71c23b,0.036,0.036,0,27,27,77,1,threefour,,,,,,,,,,,,,,,,,,,,,,,,,,,,,,,,,,,,,,,,,,,,,,,,,,,,,,,,,,,,,,,,,,,,,,,,,,,,,,,,,,,,,,,,,,,,,,,,,,,,,,,,,,,,,,,,,,,,,,,,,,,,,,,,,,,,,,,,,
,,60cc20a8d1d940dcfa9df92d,2024-02-18_21h07.54.719,kallum_motion_pilot,2023.2.2,Win32,90.90909091,60cc20a8d1d940dcfa9df92d,65d2b6c8f2eece985d8e374c,65d2b7d3c67a654a5c71c23b,0.036,0.036,0,28,28,130,1,sixfive,,,,,,,,,,,,,,,,,,,,,,,,,,,,,,,,,,,,,,,,,,,,,,,,,,,,,,,,,,,,,,,,,,,,,,,,,,,,,,,,,,,,,,,,,,,,,,,,,,,,,,,,,,,,,,,,,,,,,,,,,,,,,,,,,,,,,,,,,
,,60cc20a8d1d940dcfa9df92d,2024-02-18_21h07.54.719,kallum_motion_pilot,2023.2.2,Win32,90.90909091,60cc20a8d1d940dcfa9df92d,65d2b6c8f2eece985d8e374c,65d2b7d3c67a654a5c71c23b,0.036,0.036,0,29,29,79,1,eightseven,,,,,,,,,,,,,,,,,,,,,,,,,,,,,,,,,,,,,,,,,,,,,,,,,,,,,,,,,,,,,,,,,,,,,,,,,,,,,,,,,,,,,,,,,,,,,,,,,,,,,,,,,,,,,,,,,,,,,,,,,,,,,,,,,,,,,,,,,
,,60cc20a8d1d940dcfa9df92d,2024-02-18_21h07.54.719,kallum_motion_pilot,2023.2.2,Win32,90.90909091,60cc20a8d1d940dcfa9df92d,65d2b6c8f2eece985d8e374c,65d2b7d3c67a654a5c71c23b,0.036,0.036,0,30,30,120,1,fivesix,,,,,,,,,,,,,,,,,,,,,,,,,,,,,,,,,,,,,,,,,,,,,,,,,,,,,,,,,,,,,,,,,,,,,,,,,,,,,,,,,,,,,,,,,,,,,,,,,,,,,,,,,,,,,,,,,,,,,,,,,,,,,,,,,,,,,,,,,
,,60cc20a8d1d940dcfa9df92d,2024-02-18_21h07.54.719,kallum_motion_pilot,2023.2.2,Win32,90.90909091,60cc20a8d1d940dcfa9df92d,65d2b6c8f2eece985d8e374c,65d2b7d3c67a654a5c71c23b,0.036,0.036,0,31,31,61,1,threefour,,,,,,,,,,,,,,,,,,,,,,,,,,,,,,,,,,,,,,,,,,,,,,,,,,,,,,,,,,,,,,,,,,,,,,,,,,,,,,,,,,,,,,,,,,,,,,,,,,,,,,,,,,,,,,,,,,,,,,,,,,,,,,,,,,,,,,,,,
,,60cc20a8d1d940dcfa9df92d,2024-02-18_21h07.54.719,kallum_motion_pilot,2023.2.2,Win32,90.90909091,60cc20a8d1d940dcfa9df92d,65d2b6c8f2eece985d8e374c,65d2b7d3c67a654a5c71c23b,0.036,0.036,0,32,32,23,1,fourthree,,,,,,,,,,,,,,,,,,,,,,,,,,,,,,,,,,,,,,,,,,,,,,,,,,,,,,,,,,,,,,,,,,,,,,,,,,,,,,,,,,,,,,,,,,,,,,,,,,,,,,,,,,,,,,,,,,,,,,,,,,,,,,,,,,,,,,,,,
,,60cc20a8d1d940dcfa9df92d,2024-02-18_21h07.54.719,kallum_motion_pilot,2023.2.2,Win32,90.90909091,60cc20a8d1d940dcfa9df92d,65d2b6c8f2eece985d8e374c,65d2b7d3c67a654a5c71c23b,0.036,0.036,0,33,33,140,1,sevenfive,,,,,,,,,,,,,,,,,,,,,,,,,,,,,,,,,,,,,,,,,,,,,,,,,,,,,,,,,,,,,,,,,,,,,,,,,,,,,,,,,,,,,,,,,,,,,,,,,,,,,,,,,,,,,,,,,,,,,,,,,,,,,,,,,,,,,,,,,
,,60cc20a8d1d940dcfa9df92d,2024-02-18_21h07.54.719,kallum_motion_pilot,2023.2.2,Win32,90.90909091,60cc20a8d1d940dcfa9df92d,65d2b6c8f2eece985d8e374c,65d2b7d3c67a654a5c71c23b,0.036,0.036,0,34,34,27,1,twofour,,,,,,,,,,,,,,,,,,,,,,,,,,,,,,,,,,,,,,,,,,,,,,,,,,,,,,,,,,,,,,,,,,,,,,,,,,,,,,,,,,,,,,,,,,,,,,,,,,,,,,,,,,,,,,,,,,,,,,,,,,,,,,,,,,,,,,,,,
,,60cc20a8d1d940dcfa9df92d,2024-02-18_21h07.54.719,kallum_motion_pilot,2023.2.2,Win32,90.90909091,60cc20a8d1d940dcfa9df92d,65d2b6c8f2eece985d8e374c,65d2b7d3c67a654a5c71c23b,0.036,0.036,0,35,35,3,1,twofour,,,,,,,,,,,,,,,,,,,,,,,,,,,,,,,,,,,,,,,,,,,,,,,,,,,,,,,,,,,,,,,,,,,,,,,,,,,,,,,,,,,,,,,,,,,,,,,,,,,,,,,,,,,,,,,,,,,,,,,,,,,,,,,,,,,,,,,,,
,,60cc20a8d1d940dcfa9df92d,2024-02-18_21h07.54.719,kallum_motion_pilot,2023.2.2,Win32,90.90909091,60cc20a8d1d940dcfa9df92d,65d2b6c8f2eece985d8e374c,65d2b7d3c67a654a5c71c23b,0.036,0.036,0,36,36,14,1,fourtwo,,,,,,,,,,,,,,,,,,,,,,,,,,,,,,,,,,,,,,,,,,,,,,,,,,,,,,,,,,,,,,,,,,,,,,,,,,,,,,,,,,,,,,,,,,,,,,,,,,,,,,,,,,,,,,,,,,,,,,,,,,,,,,,,,,,,,,,,,
,,60cc20a8d1d940dcfa9df92d,2024-02-18_21h07.54.719,kallum_motion_pilot,2023.2.2,Win32,90.90909091,60cc20a8d1d940dcfa9df92d,65d2b6c8f2eece985d8e374c,65d2b7d3c67a654a5c71c23b,0.037,0.037,0,37,37,85,1,seveneight,,,,,,,,,,,,,,,,,,,,,,,,,,,,,,,,,,,,,,,,,,,,,,,,,,,,,,,,,,,,,,,,,,,,,,,,,,,,,,,,,,,,,,,,,,,,,,,,,,,,,,,,,,,,,,,,,,,,,,,,,,,,,,,,,,,,,,,,,
,,60cc20a8d1d940dcfa9df92d,2024-02-18_21h07.54.719,kallum_motion_pilot,2023.2.2,Win32,90.90909091,60cc20a8d1d940dcfa9df92d,65d2b6c8f2eece985d8e374c,65d2b7d3c67a654a5c71c23b,0.038,0.038,0,38,38,0,1,onetwo,,,,,,,,,,,,,,,,,,,,,,,,,,,,,,,,,,,,,,,,,,,,,,,,,,,,,,,,,,,,,,,,,,,,,,,,,,,,,,,,,,,,,,,,,,,,,,,,,,,,,,,,,,,,,,,,,,,,,,,,,,,,,,,,,,,,,,,,,
,,60cc20a8d1d940dcfa9df92d,2024-02-18_21h07.54.719,kallum_motion_pilot,2023.2.2,Win32,90.90909091,60cc20a8d1d940dcfa9df92d,65d2b6c8f2eece985d8e374c,65d2b7d3c67a654a5c71c23b,0.038,0.038,0,39,39,127,1,eightseven,,,,,,,,,,,,,,,,,,,,,,,,,,,,,,,,,,,,,,,,,,,,,,,,,,,,,,,,,,,,,,,,,,,,,,,,,,,,,,,,,,,,,,,,,,,,,,,,,,,,,,,,,,,,,,,,,,,,,,,,,,,,,,,,,,,,,,,,,
,,60cc20a8d1d940dcfa9df92d,2024-02-18_21h07.54.719,kallum_motion_pilot,2023.2.2,Win32,90.90909091,60cc20a8d1d940dcfa9df92d,65d2b6c8f2eece985d8e374c,65d2b7d3c67a654a5c71c23b,0.038,0.038,0,40,40,71,1,fourthree,,,,,,,,,,,,,,,,,,,,,,,,,,,,,,,,,,,,,,,,,,,,,,,,,,,,,,,,,,,,,,,,,,,,,,,,,,,,,,,,,,,,,,,,,,,,,,,,,,,,,,,,,,,,,,,,,,,,,,,,,,,,,,,,,,,,,,,,,
,,60cc20a8d1d940dcfa9df92d,2024-02-18_21h07.54.719,kallum_motion_pilot,2023.2.2,Win32,90.90909091,60cc20a8d1d940dcfa9df92d,65d2b6c8f2eece985d8e374c,65d2b7d3c67a654a5c71c23b,0.038,0.038,0,41,41,115,1,sixeight,,,,,,,,,,,,,,,,,,,,,,,,,,,,,,,,,,,,,,,,,,,,,,,,,,,,,,,,,,,,,,,,,,,,,,,,,,,,,,,,,,,,,,,,,,,,,,,,,,,,,,,,,,,,,,,,,,,,,,,,,,,,,,,,,,,,,,,,,
,,60cc20a8d1d940dcfa9df92d,2024-02-18_21h07.54.719,kallum_motion_pilot,2023.2.2,Win32,90.90909091,60cc20a8d1d940dcfa9df92d,65d2b6c8f2eece985d8e374c,65d2b7d3c67a654a5c71c23b,0.038,0.038,0,42,42,20,1,threeone,,,,,,,,,,,,,,,,,,,,,,,,,,,,,,,,,,,,,,,,,,,,,,,,,,,,,,,,,,,,,,,,,,,,,,,,,,,,,,,,,,,,,,,,,,,,,,,,,,,,,,,,,,,,,,,,,,,,,,,,,,,,,,,,,,,,,,,,,
,,60cc20a8d1d940dcfa9df92d,2024-02-18_21h07.54.719,kallum_motion_pilot,2023.2.2,Win32,90.90909091,60cc20a8d1d940dcfa9df92d,65d2b6c8f2eece985d8e374c,65d2b7d3c67a654a5c71c23b,0.038,0.038,0,43,43,122,1,sixfive,,,,,,,,,,,,,,,,,,,,,,,,,,,,,,,,,,,,,,,,,,,,,,,,,,,,,,,,,,,,,,,,,,,,,,,,,,,,,,,,,,,,,,,,,,,,,,,,,,,,,,,,,,,,,,,,,,,,,,,,,,,,,,,,,,,,,,,,,
,,60cc20a8d1d940dcfa9df92d,2024-02-18_21h07.54.719,kallum_motion_pilot,2023.2.2,Win32,90.90909091,60cc20a8d1d940dcfa9df92d,65d2b6c8f2eece985d8e374c,65d2b7d3c67a654a5c71c23b,0.038,0.038,0,44,44,149,1,seveneight,,,,,,,,,,,,,,,,,,,,,,,,,,,,,,,,,,,,,,,,,,,,,,,,,,,,,,,,,,,,,,,,,,,,,,,,,,,,,,,,,,,,,,,,,,,,,,,,,,,,,,,,,,,,,,,,,,,,,,,,,,,,,,,,,,,,,,,,,
,,60cc20a8d1d940dcfa9df92d,2024-02-18_21h07.54.719,kallum_motion_pilot,2023.2.2,Win32,90.90909091,60cc20a8d1d940dcfa9df92d,65d2b6c8f2eece985d8e374c,65d2b7d3c67a654a5c71c23b,0.038,0.038,0,45,45,80,1,fivesix,,,,,,,,,,,,,,,,,,,,,,,,,,,,,,,,,,,,,,,,,,,,,,,,,,,,,,,,,,,,,,,,,,,,,,,,,,,,,,,,,,,,,,,,,,,,,,,,,,,,,,,,,,,,,,,,,,,,,,,,,,,,,,,,,,,,,,,,,
,,60cc20a8d1d940dcfa9df92d,2024-02-18_21h07.54.719,kallum_motion_pilot,2023.2.2,Win32,90.90909091,60cc20a8d1d940dcfa9df92d,65d2b6c8f2eece985d8e374c,65d2b7d3c67a654a5c71c23b,0.038,0.038,0,46,46,4,1,threeone,,,,,,,,,,,,,,,,,,,,,,,,,,,,,,,,,,,,,,,,,,,,,,,,,,,,,,,,,,,,,,,,,,,,,,,,,,,,,,,,,,,,,,,,,,,,,,,,,,,,,,,,,,,,,,,,,,,,,,,,,,,,,,,,,,,,,,,,,
,,60cc20a8d1d940dcfa9df92d,2024-02-18_21h07.54.719,kallum_motion_pilot,2023.2.2,Win32,90.90909091,60cc20a8d1d940dcfa9df92d,65d2b6c8f2eece985d8e374c,65d2b7d3c67a654a5c71c23b,0.038,0.038,0,47,47,7,1,fourthree,,,,,,,,,,,,,,,,,,,,,,,,,,,,,,,,,,,,,,,,,,,,,,,,,,,,,,,,,,,,,,,,,,,,,,,,,,,,,,,,,,,,,,,,,,,,,,,,,,,,,,,,,,,,,,,,,,,,,,,,,,,,,,,,,,,,,,,,,
,,60cc20a8d1d940dcfa9df92d,2024-02-18_21h07.54.719,kallum_motion_pilot,2023.2.2,Win32,90.90909091,60cc20a8d1d940dcfa9df92d,65d2b6c8f2eece985d8e374c,65d2b7d3c67a654a5c71c23b,0.038,0.038,0,48,48,142,1,eightsix,,,,,,,,,,,,,,,,,,,,,,,,,,,,,,,,,,,,,,,,,,,,,,,,,,,,,,,,,,,,,,,,,,,,,,,,,,,,,,,,,,,,,,,,,,,,,,,,,,,,,,,,,,,,,,,,,,,,,,,,,,,,,,,,,,,,,,,,,
,,60cc20a8d1d940dcfa9df92d,2024-02-18_21h07.54.719,kallum_motion_pilot,2023.2.2,Win32,90.90909091,60cc20a8d1d940dcfa9df92d,65d2b6c8f2eece985d8e374c,65d2b7d3c67a654a5c71c23b,0.038,0.038,0,49,49,1,1,onethree,,,,,,,,,,,,,,,,,,,,,,,,,,,,,,,,,,,,,,,,,,,,,,,,,,,,,,,,,,,,,,,,,,,,,,,,,,,,,,,,,,,,,,,,,,,,,,,,,,,,,,,,,,,,,,,,,,,,,,,,,,,,,,,,,,,,,,,,,
,,60cc20a8d1d940dcfa9df92d,2024-02-18_21h07.54.719,kallum_motion_pilot,2023.2.2,Win32,90.90909091,60cc20a8d1d940dcfa9df92d,65d2b6c8f2eece985d8e374c,65d2b7d3c67a654a5c71c23b,0.038,0.038,0,50,50,43,1,twofour,,,,,,,,,,,,,,,,,,,,,,,,,,,,,,,,,,,,,,,,,,,,,,,,,,,,,,,,,,,,,,,,,,,,,,,,,,,,,,,,,,,,,,,,,,,,,,,,,,,,,,,,,,,,,,,,,,,,,,,,,,,,,,,,,,,,,,,,,
,,60cc20a8d1d940dcfa9df92d,2024-02-18_21h07.54.719,kallum_motion_pilot,2023.2.2,Win32,90.90909091,60cc20a8d1d940dcfa9df92d,65d2b6c8f2eece985d8e374c,65d2b7d3c67a654a5c71c23b,0.038,0.038,0,51,51,8,1,onetwo,,,,,,,,,,,,,,,,,,,,,,,,,,,,,,,,,,,,,,,,,,,,,,,,,,,,,,,,,,,,,,,,,,,,,,,,,,,,,,,,,,,,,,,,,,,,,,,,,,,,,,,,,,,,,,,,,,,,,,,,,,,,,,,,,,,,,,,,,
,,60cc20a8d1d940dcfa9df92d,2024-02-18_21h07.54.719,kallum_motion_pilot,2023.2.2,Win32,90.90909091,60cc20a8d1d940dcfa9df92d,65d2b6c8f2eece985d8e374c,65d2b7d3c67a654a5c71c23b,0.038,0.038,0,52,52,32,1,onetwo,,,,,,,,,,,,,,,,,,,,,,,,,,,,,,,,,,,,,,,,,,,,,,,,,,,,,,,,,,,,,,,,,,,,,,,,,,,,,,,,,,,,,,,,,,,,,,,,,,,,,,,,,,,,,,,,,,,,,,,,,,,,,,,,,,,,,,,,,
,,60cc20a8d1d940dcfa9df92d,2024-02-18_21h07.54.719,kallum_motion_pilot,2023.2.2,Win32,90.90909091,60cc20a8d1d940dcfa9df92d,65d2b6c8f2eece985d8e374c,65d2b7d3c67a654a5c71c23b,0.038,0.038,0,53,53,148,1,sevenfive,,,,,,,,,,,,,,,,,,,,,,,,,,,,,,,,,,,,,,,,,,,,,,,,,,,,,,,,,,,,,,,,,,,,,,,,,,,,,,,,,,,,,,,,,,,,,,,,,,,,,,,,,,,,,,,,,,,,,,,,,,,,,,,,,,,,,,,,,
,,60cc20a8d1d940dcfa9df92d,2024-02-18_21h07.54.719,kallum_motion_pilot,2023.2.2,Win32,90.90909091,60cc20a8d1d940dcfa9df92d,65d2b6c8f2eece985d8e374c,65d2b7d3c67a654a5c71c23b,0.038,0.038,0,54,54,69,1,threefour,,,,,,,,,,,,,,,,,,,,,,,,,,,,,,,,,,,,,,,,,,,,,,,,,,,,,,,,,,,,,,,,,,,,,,,,,,,,,,,,,,,,,,,,,,,,,,,,,,,,,,,,,,,,,,,,,,,,,,,,,,,,,,,,,,,,,,,,,
,,60cc20a8d1d940dcfa9df92d,2024-02-18_21h07.54.719,kallum_motion_pilot,2023.2.2,Win32,90.90909091,60cc20a8d1d940dcfa9df92d,65d2b6c8f2eece985d8e374c,65d2b7d3c67a654a5c71c23b,0.039,0.039,0,55,55,37,1,threefour,,,,,,,,,,,,,,,,,,,,,,,,,,,,,,,,,,,,,,,,,,,,,,,,,,,,,,,,,,,,,,,,,,,,,,,,,,,,,,,,,,,,,,,,,,,,,,,,,,,,,,,,,,,,,,,,,,,,,,,,,,,,,,,,,,,,,,,,,
,,60cc20a8d1d940dcfa9df92d,2024-02-18_21h07.54.719,kallum_motion_pilot,2023.2.2,Win32,90.90909091,60cc20a8d1d940dcfa9df92d,65d2b6c8f2eece985d8e374c,65d2b7d3c67a654a5c71c23b,0.039,0.039,0,56,56,101,1,seveneight,,,,,,,,,,,,,,,,,,,,,,,,,,,,,,,,,,,,,,,,,,,,,,,,,,,,,,,,,,,,,,,,,,,,,,,,,,,,,,,,,,,,,,,,,,,,,,,,,,,,,,,,,,,,,,,,,,,,,,,,,,,,,,,,,,,,,,,,,
,,60cc20a8d1d940dcfa9df92d,2024-02-18_21h07.54.719,kallum_motion_pilot,2023.2.2,Win32,90.90909091,60cc20a8d1d940dcfa9df92d,65d2b6c8f2eece985d8e374c,65d2b7d3c67a654a5c71c23b,0.039,0.039,0,57,57,67,1,twofour,,,,,,,,,,,,,,,,,,,,,,,,,,,,,,,,,,,,,,,,,,,,,,,,,,,,,,,,,,,,,,,,,,,,,,,,,,,,,,,,,,,,,,,,,,,,,,,,,,,,,,,,,,,,,,,,,,,,,,,,,,,,,,,,,,,,,,,,,
,,60cc20a8d1d940dcfa9df92d,2024-02-18_21h07.54.719,kallum_motion_pilot,2023.2.2,Win32,90.90909091,60cc20a8d1d940dcfa9df92d,65d2b6c8f2eece985d8e374c,65d2b7d3c67a654a5c71c23b,0.039,0.039,0,58,58,40,1,onetwo,,,,,,,,,,,,,,,,,,,,,,,,,,,,,,,,,,,,,,,,,,,,,,,,,,,,,,,,,,,,,,,,,,,,,,,,,,,,,,,,,,,,,,,,,,,,,,,,,,,,,,,,,,,,,,,,,,,,,,,,,,,,,,,,,,,,,,,,,
,,60cc20a8d1d940dcfa9df92d,2024-02-18_21h07.54.719,kallum_motion_pilot,2023.2.2,Win32,90.90909091,60cc20a8d1d940dcfa9df92d,65d2b6c8f2eece985d8e374c,65d2b7d3c67a654a5c71c23b,0.039,0.039,0,59,59,98,1,sixfive,,,,,,,,,,,,,,,,,,,,,,,,,,,,,,,,,,,,,,,,,,,,,,,,,,,,,,,,,,,,,,,,,,,,,,,,,,,,,,,,,,,,,,,,,,,,,,,,,,,,,,,,,,,,,,,,,,,,,,,,,,,,,,,,,,,,,,,,,
,,60cc20a8d1d940dcfa9df92d,2024-02-18_21h07.54.719,kallum_motion_pilot,2023.2.2,Win32,90.90909091,60cc20a8d1d940dcfa9df92d,65d2b6c8f2eece985d8e374c,65d2b7d3c67a654a5c71c23b,0.039,0.039,0,60,60,64,1,onetwo,,,,,,,,,,,,,,,,,,,,,,,,,,,,,,,,,,,,,,,,,,,,,,,,,,,,,,,,,,,,,,,,,,,,,,,,,,,,,,,,,,,,,,,,,,,,,,,,,,,,,,,,,,,,,,,,,,,,,,,,,,,,,,,,,,,,,,,,,
,,60cc20a8d1d940dcfa9df92d,2024-02-18_21h07.54.719,kallum_motion_pilot,2023.2.2,Win32,90.90909091,60cc20a8d1d940dcfa9df92d,65d2b6c8f2eece985d8e374c,65d2b7d3c67a654a5c71c23b,0.039,0.039,0,61,61,19,1,twofour,,,,,,,,,,,,,,,,,,,,,,,,,,,,,,,,,,,,,,,,,,,,,,,,,,,,,,,,,,,,,,,,,,,,,,,,,,,,,,,,,,,,,,,,,,,,,,,,,,,,,,,,,,,,,,,,,,,,,,,,,,,,,,,,,,,,,,,,,
,,60cc20a8d1d940dcfa9df92d,2024-02-18_21h07.54.719,kallum_motion_pilot,2023.2.2,Win32,90.90909091,60cc20a8d1d940dcfa9df92d,65d2b6c8f2eece985d8e374c,65d2b7d3c67a654a5c71c23b,0.039,0.039,0,62,62,121,1,fiveseven,,,,,,,,,,,,,,,,,,,,,,,,,,,,,,,,,,,,,,,,,,,,,,,,,,,,,,,,,,,,,,,,,,,,,,,,,,,,,,,,,,,,,,,,,,,,,,,,,,,,,,,,,,,,,,,,,,,,,,,,,,,,,,,,,,,,,,,,,
,,60cc20a8d1d940dcfa9df92d,2024-02-18_21h07.54.719,kallum_motion_pilot,2023.2.2,Win32,90.90909091,60cc20a8d1d940dcfa9df92d,65d2b6c8f2eece985d8e374c,65d2b7d3c67a654a5c71c23b,0.04,0.04,0,63,63,156,1,sevenfive,,,,,,,,,,,,,,,,,,,,,,,,,,,,,,,,,,,,,,,,,,,,,,,,,,,,,,,,,,,,,,,,,,,,,,,,,,,,,,,,,,,,,,,,,,,,,,,,,,,,,,,,,,,,,,,,,,,,,,,,,,,,,,,,,,,,,,,,,
,,60cc20a8d1d940dcfa9df92d,2024-02-18_21h07.54.719,kallum_motion_pilot,2023.2.2,Win32,90.90909091,60cc20a8d1d940dcfa9df92d,65d2b6c8f2eece985d8e374c,65d2b7d3c67a654a5c71c23b,0.04,0.04,0,64,64,123,1,sixeight,,,,,,,,,,,,,,,,,,,,,,,,,,,,,,,,,,,,,,,,,,,,,,,,,,,,,,,,,,,,,,,,,,,,,,,,,,,,,,,,,,,,,,,,,,,,,,,,,,,,,,,,,,,,,,,,,,,,,,,,,,,,,,,,,,,,,,,,,
,,60cc20a8d1d940dcfa9df92d,2024-02-18_21h07.54.719,kallum_motion_pilot,2023.2.2,Win32,90.90909091,60cc20a8d1d940dcfa9df92d,65d2b6c8f2eece985d8e374c,65d2b7d3c67a654a5c71c23b,0.04,0.04,0,65,65,31,1,fourthree,,,,,,,,,,,,,,,,,,,,,,,,,,,,,,,,,,,,,,,,,,,,,,,,,,,,,,,,,,,,,,,,,,,,,,,,,,,,,,,,,,,,,,,,,,,,,,,,,,,,,,,,,,,,,,,,,,,,,,,,,,,,,,,,,,,,,,,,,
,,60cc20a8d1d940dcfa9df92d,2024-02-18_21h07.54.719,kallum_motion_pilot,2023.2.2,Win32,90.90909091,60cc20a8d1d940dcfa9df92d,65d2b6c8f2eece985d8e374c,65d2b7d3c67a654a5c71c23b,0.04,0.04,0,66,66,59,1,twofour,,,,,,,,,,,,,,,,,,,,,,,,,,,,,,,,,,,,,,,,,,,,,,,,,,,,,,,,,,,,,,,,,,,,,,,,,,,,,,,,,,,,,,,,,,,,,,,,,,,,,,,,,,,,,,,,,,,,,,,,,,,,,,,,,,,,,,,,,
,,60cc20a8d1d940dcfa9df92d,2024-02-18_21h07.54.719,kallum_motion_pilot,2023.2.2,Win32,90.90909091,60cc20a8d1d940dcfa9df92d,65d2b6c8f2eece985d8e374c,65d2b7d3c67a654a5c71c23b,0.04,0.04,0,67,67,16,1,onetwo,,,,,,,,,,,,,,,,,,,,,,,,,,,,,,,,,,,,,,,,,,,,,,,,,,,,,,,,,,,,,,,,,,,,,,,,,,,,,,,,,,,,,,,,,,,,,,,,,,,,,,,,,,,,,,,,,,,,,,,,,,,,,,,,,,,,,,,,,
,,60cc20a8d1d940dcfa9df92d,2024-02-18_21h07.54.719,kallum_motion_pilot,2023.2.2,Win32,90.90909091,60cc20a8d1d940dcfa9df92d,65d2b6c8f2eece985d8e374c,65d2b7d3c67a654a5c71c23b,0.04,0.04,0,68,68,116,1,sevenfive,,,,,,,,,,,,,,,,,,,,,,,,,,,,,,,,,,,,,,,,,,,,,,,,,,,,,,,,,,,,,,,,,,,,,,,,,,,,,,,,,,,,,,,,,,,,,,,,,,,,,,,,,,,,,,,,,,,,,,,,,,,,,,,,,,,,,,,,,
,,60cc20a8d1d940dcfa9df92d,2024-02-18_21h07.54.719,kallum_motion_pilot,2023.2.2,Win32,90.90909091,60cc20a8d1d940dcfa9df92d,65d2b6c8f2eece985d8e374c,65d2b7d3c67a654a5c71c23b,0.041,0.041,0,69,69,89,1,fiveseven,,,,,,,,,,,,,,,,,,,,,,,,,,,,,,,,,,,,,,,,,,,,,,,,,,,,,,,,,,,,,,,,,,,,,,,,,,,,,,,,,,,,,,,,,,,,,,,,,,,,,,,,,,,,,,,,,,,,,,,,,,,,,,,,,,,,,,,,,
,,60cc20a8d1d940dcfa9df92d,2024-02-18_21h07.54.719,kallum_motion_pilot,2023.2.2,Win32,90.90909091,60cc20a8d1d940dcfa9df92d,65d2b6c8f2eece985d8e374c,65d2b7d3c67a654a5c71c23b,0.041,0.041,0,70,70,157,1,seveneight,,,,,,,,,,,,,,,,,,,,,,,,,,,,,,,,,,,,,,,,,,,,,,,,,,,,,,,,,,,,,,,,,,,,,,,,,,,,,,,,,,,,,,,,,,,,,,,,,,,,,,,,,,,,,,,,,,,,,,,,,,,,,,,,,,,,,,,,,
,,60cc20a8d1d940dcfa9df92d,2024-02-18_21h07.54.719,kallum_motion_pilot,2023.2.2,Win32,90.90909091,60cc20a8d1d940dcfa9df92d,65d2b6c8f2eece985d8e374c,65d2b7d3c67a654a5c71c23b,0.041,0.041,0,71,71,117,1,seveneight,,,,,,,,,,,,,,,,,,,,,,,,,,,,,,,,,,,,,,,,,,,,,,,,,,,,,,,,,,,,,,,,,,,,,,,,,,,,,,,,,,,,,,,,,,,,,,,,,,,,,,,,,,,,,,,,,,,,,,,,,,,,,,,,,,,,,,,,,
,,60cc20a8d1d940dcfa9df92d,2024-02-18_21h07.54.719,kallum_motion_pilot,2023.2.2,Win32,90.90909091,60cc20a8d1d940dcfa9df92d,65d2b6c8f2eece985d8e374c,65d2b7d3c67a654a5c71c23b,0.041,0.041,0,72,72,25,1,onethree,,,,,,,,,,,,,,,,,,,,,,,,,,,,,,,,,,,,,,,,,,,,,,,,,,,,,,,,,,,,,,,,,,,,,,,,,,,,,,,,,,,,,,,,,,,,,,,,,,,,,,,,,,,,,,,,,,,,,,,,,,,,,,,,,,,,,,,,,
,,60cc20a8d1d940dcfa9df92d,2024-02-18_21h07.54.719,kallum_motion_pilot,2023.2.2,Win32,90.90909091,60cc20a8d1d940dcfa9df92d,65d2b6c8f2eece985d8e374c,65d2b7d3c67a654a5c71c23b,0.042,0.042,0,73,73,161,1,fiveseven,,,,,,,,,,,,,,,,,,,,,,,,,,,,,,,,,,,,,,,,,,,,,,,,,,,,,,,,,,,,,,,,,,,,,,,,,,,,,,,,,,,,,,,,,,,,,,,,,,,,,,,,,,,,,,,,,,,,,,,,,,,,,,,,,,,,,,,,,
,,60cc20a8d1d940dcfa9df92d,2024-02-18_21h07.54.719,kallum_motion_pilot,2023.2.2,Win32,90.90909091,60cc20a8d1d940dcfa9df92d,65d2b6c8f2eece985d8e374c,65d2b7d3c67a654a5c71c23b,0.042,0.042,0,74,74,128,1,fivesix,,,,,,,,,,,,,,,,,,,,,,,,,,,,,,,,,,,,,,,,,,,,,,,,,,,,,,,,,,,,,,,,,,,,,,,,,,,,,,,,,,,,,,,,,,,,,,,,,,,,,,,,,,,,,,,,,,,,,,,,,,,,,,,,,,,,,,,,,
,,60cc20a8d1d940dcfa9df92d,2024-02-18_21h07.54.719,kallum_motion_pilot,2023.2.2,Win32,90.90909091,60cc20a8d1d940dcfa9df92d,65d2b6c8f2eece985d8e374c,65d2b7d3c67a654a5c71c23b,0.042,0.042,0,75,75,125,1,seveneight,,,,,,,,,,,,,,,,,,,,,,,,,,,,,,,,,,,,,,,,,,,,,,,,,,,,,,,,,,,,,,,,,,,,,,,,,,,,,,,,,,,,,,,,,,,,,,,,,,,,,,,,,,,,,,,,,,,,,,,,,,,,,,,,,,,,,,,,,
,,60cc20a8d1d940dcfa9df92d,2024-02-18_21h07.54.719,kallum_motion_pilot,2023.2.2,Win32,90.90909091,60cc20a8d1d940dcfa9df92d,65d2b6c8f2eece985d8e374c,65d2b7d3c67a654a5c71c23b,0.042,0.042,0,76,76,94,1,eightsix,,,,,,,,,,,,,,,,,,,,,,,,,,,,,,,,,,,,,,,,,,,,,,,,,,,,,,,,,,,,,,,,,,,,,,,,,,,,,,,,,,,,,,,,,,,,,,,,,,,,,,,,,,,,,,,,,,,,,,,,,,,,,,,,,,,,,,,,,
,,60cc20a8d1d940dcfa9df92d,2024-02-18_21h07.54.719,kallum_motion_pilot,2023.2.2,Win32,90.90909091,60cc20a8d1d940dcfa9df92d,65d2b6c8f2eece985d8e374c,65d2b7d3c67a654a5c71c23b,0.042,0.042,0,77,77,15,1,fourthree,,,,,,,,,,,,,,,,,,,,,,,,,,,,,,,,,,,,,,,,,,,,,,,,,,,,,,,,,,,,,,,,,,,,,,,,,,,,,,,,,,,,,,,,,,,,,,,,,,,,,,,,,,,,,,,,,,,,,,,,,,,,,,,,,,,,,,,,,
,,60cc20a8d1d940dcfa9df92d,2024-02-18_21h07.54.719,kallum_motion_pilot,2023.2.2,Win32,90.90909091,60cc20a8d1d940dcfa9df92d,65d2b6c8f2eece985d8e374c,65d2b7d3c67a654a5c71c23b,0.042,0.042,0,78,78,53,1,threefour,,,,,,,,,,,,,,,,,,,,,,,,,,,,,,,,,,,,,,,,,,,,,,,,,,,,,,,,,,,,,,,,,,,,,,,,,,,,,,,,,,,,,,,,,,,,,,,,,,,,,,,,,,,,,,,,,,,,,,,,,,,,,,,,,,,,,,,,,
,,60cc20a8d1d940dcfa9df92d,2024-02-18_21h07.54.719,kallum_motion_pilot,2023.2.2,Win32,90.90909091,60cc20a8d1d940dcfa9df92d,65d2b6c8f2eece985d8e374c,65d2b7d3c67a654a5c71c23b,0.042,0.042,0,79,79,29,1,threefour,,,,,,,,,,,,,,,,,,,,,,,,,,,,,,,,,,,,,,,,,,,,,,,,,,,,,,,,,,,,,,,,,,,,,,,,,,,,,,,,,,,,,,,,,,,,,,,,,,,,,,,,,,,,,,,,,,,,,,,,,,,,,,,,,,,,,,,,,
,,60cc20a8d1d940dcfa9df92d,2024-02-18_21h07.54.719,kallum_motion_pilot,2023.2.2,Win32,90.90909091,60cc20a8d1d940dcfa9df92d,65d2b6c8f2eece985d8e374c,65d2b7d3c67a654a5c71c23b,0.043,0.043,0,80,80,95,1,eightseven,,,,,,,,,,,,,,,,,,,,,,,,,,,,,,,,,,,,,,,,,,,,,,,,,,,,,,,,,,,,,,,,,,,,,,,,,,,,,,,,,,,,,,,,,,,,,,,,,,,,,,,,,,,,,,,,,,,,,,,,,,,,,,,,,,,,,,,,,
,,60cc20a8d1d940dcfa9df92d,2024-02-18_21h07.54.719,kallum_motion_pilot,2023.2.2,Win32,90.90909091,60cc20a8d1d940dcfa9df92d,65d2b6c8f2eece985d8e374c,65d2b7d3c67a654a5c71c23b,0.043,0.043,0,81,81,102,1,eightsix,,,,,,,,,,,,,,,,,,,,,,,,,,,,,,,,,,,,,,,,,,,,,,,,,,,,,,,,,,,,,,,,,,,,,,,,,,,,,,,,,,,,,,,,,,,,,,,,,,,,,,,,,,,,,,,,,,,,,,,,,,,,,,,,,,,,,,,,,
,,60cc20a8d1d940dcfa9df92d,2024-02-18_21h07.54.719,kallum_motion_pilot,2023.2.2,Win32,90.90909091,60cc20a8d1d940dcfa9df92d,65d2b6c8f2eece985d8e374c,65d2b7d3c67a654a5c71c23b,0.043,0.043,0,82,82,78,1,fourtwo,,,,,,,,,,,,,,,,,,,,,,,,,,,,,,,,,,,,,,,,,,,,,,,,,,,,,,,,,,,,,,,,,,,,,,,,,,,,,,,,,,,,,,,,,,,,,,,,,,,,,,,,,,,,,,,,,,,,,,,,,,,,,,,,,,,,,,,,,
,,60cc20a8d1d940dcfa9df92d,2024-02-18_21h07.54.719,kallum_motion_pilot,2023.2.2,Win32,90.90909091,60cc20a8d1d940dcfa9df92d,65d2b6c8f2eece985d8e374c,65d2b7d3c67a654a5c71c23b,0.043,0.043,0,83,83,39,1,fourthree,,,,,,,,,,,,,,,,,,,,,,,,,,,,,,,,,,,,,,,,,,,,,,,,,,,,,,,,,,,,,,,,,,,,,,,,,,,,,,,,,,,,,,,,,,,,,,,,,,,,,,,,,,,,,,,,,,,,,,,,,,,,,,,,,,,,,,,,,
,,60cc20a8d1d940dcfa9df92d,2024-02-18_21h07.54.719,kallum_motion_pilot,2023.2.2,Win32,90.90909091,60cc20a8d1d940dcfa9df92d,65d2b6c8f2eece985d8e374c,65d2b7d3c67a654a5c71c23b,0.043,0.043,0,84,84,139,1,sixeight,,,,,,,,,,,,,,,,,,,,,,,,,,,,,,,,,,,,,,,,,,,,,,,,,,,,,,,,,,,,,,,,,,,,,,,,,,,,,,,,,,,,,,,,,,,,,,,,,,,,,,,,,,,,,,,,,,,,,,,,,,,,,,,,,,,,,,,,,
,,60cc20a8d1d940dcfa9df92d,2024-02-18_21h07.54.719,kallum_motion_pilot,2023.2.2,Win32,90.90909091,60cc20a8d1d940dcfa9df92d,65d2b6c8f2eece985d8e374c,65d2b7d3c67a654a5c71c23b,0.044,0.044,0,85,85,100,1,sevenfive,,,,,,,,,,,,,,,,,,,,,,,,,,,,,,,,,,,,,,,,,,,,,,,,,,,,,,,,,,,,,,,,,,,,,,,,,,,,,,,,,,,,,,,,,,,,,,,,,,,,,,,,,,,,,,,,,,,,,,,,,,,,,,,,,,,,,,,,,
,,60cc20a8d1d940dcfa9df92d,2024-02-18_21h07.54.719,kallum_motion_pilot,2023.2.2,Win32,90.90909091,60cc20a8d1d940dcfa9df92d,65d2b6c8f2eece985d8e374c,65d2b7d3c67a654a5c71c23b,0.044,0.044,0,86,86,66,1,twoone,,,,,,,,,,,,,,,,,,,,,,,,,,,,,,,,,,,,,,,,,,,,,,,,,,,,,,,,,,,,,,,,,,,,,,,,,,,,,,,,,,,,,,,,,,,,,,,,,,,,,,,,,,,,,,,,,,,,,,,,,,,,,,,,,,,,,,,,,
,,60cc20a8d1d940dcfa9df92d,2024-02-18_21h07.54.719,kallum_motion_pilot,2023.2.2,Win32,90.90909091,60cc20a8d1d940dcfa9df92d,65d2b6c8f2eece985d8e374c,65d2b7d3c67a654a5c71c23b,0.044,0.044,0,87,87,34,1,twoone,,,,,,,,,,,,,,,,,,,,,,,,,,,,,,,,,,,,,,,,,,,,,,,,,,,,,,,,,,,,,,,,,,,,,,,,,,,,,,,,,,,,,,,,,,,,,,,,,,,,,,,,,,,,,,,,,,,,,,,,,,,,,,,,,,,,,,,,,
,,60cc20a8d1d940dcfa9df92d,2024-02-18_21h07.54.719,kallum_motion_pilot,2023.2.2,Win32,90.90909091,60cc20a8d1d940dcfa9df92d,65d2b6c8f2eece985d8e374c,65d2b7d3c67a654a5c71c23b,0.044,0.044,0,88,88,88,1,fivesix,,,,,,,,,,,,,,,,,,,,,,,,,,,,,,,,,,,,,,,,,,,,,,,,,,,,,,,,,,,,,,,,,,,,,,,,,,,,,,,,,,,,,,,,,,,,,,,,,,,,,,,,,,,,,,,,,,,,,,,,,,,,,,,,,,,,,,,,,
,,60cc20a8d1d940dcfa9df92d,2024-02-18_21h07.54.719,kallum_motion_pilot,2023.2.2,Win32,90.90909091,60cc20a8d1d940dcfa9df92d,65d2b6c8f2eece985d8e374c,65d2b7d3c67a654a5c71c23b,0.044,0.044,0,89,89,118,1,eightsix,,,,,,,,,,,,,,,,,,,,,,,,,,,,,,,,,,,,,,,,,,,,,,,,,,,,,,,,,,,,,,,,,,,,,,,,,,,,,,,,,,,,,,,,,,,,,,,,,,,,,,,,,,,,,,,,,,,,,,,,,,,,,,,,,,,,,,,,,
,,60cc20a8d1d940dcfa9df92d,2024-02-18_21h07.54.719,kallum_motion_pilot,2023.2.2,Win32,90.90909091,60cc20a8d1d940dcfa9df92d,65d2b6c8f2eece985d8e374c,65d2b7d3c67a654a5c71c23b,0.044,0.044,0,90,90,74,1,twoone,,,,,,,,,,,,,,,,,,,,,,,,,,,,,,,,,,,,,,,,,,,,,,,,,,,,,,,,,,,,,,,,,,,,,,,,,,,,,,,,,,,,,,,,,,,,,,,,,,,,,,,,,,,,,,,,,,,,,,,,,,,,,,,,,,,,,,,,,
,,60cc20a8d1d940dcfa9df92d,2024-02-18_21h07.54.719,kallum_motion_pilot,2023.2.2,Win32,90.90909091,60cc20a8d1d940dcfa9df92d,65d2b6c8f2eece985d8e374c,65d2b7d3c67a654a5c71c23b,0.044,0.044,0,91,91,97,1,fiveseven,,,,,,,,,,,,,,,,,,,,,,,,,,,,,,,,,,,,,,,,,,,,,,,,,,,,,,,,,,,,,,,,,,,,,,,,,,,,,,,,,,,,,,,,,,,,,,,,,,,,,,,,,,,,,,,,,,,,,,,,,,,,,,,,,,,,,,,,,
,,60cc20a8d1d940dcfa9df92d,2024-02-18_21h07.54.719,kallum_motion_pilot,2023.2.2,Win32,90.90909091,60cc20a8d1d940dcfa9df92d,65d2b6c8f2eece985d8e374c,65d2b7d3c67a654a5c71c23b,0.044,0.045,0,92,92,96,1,fivesix,,,,,,,,,,,,,,,,,,,,,,,,,,,,,,,,,,,,,,,,,,,,,,,,,,,,,,,,,,,,,,,,,,,,,,,,,,,,,,,,,,,,,,,,,,,,,,,,,,,,,,,,,,,,,,,,,,,,,,,,,,,,,,,,,,,,,,,,,
,,60cc20a8d1d940dcfa9df92d,2024-02-18_21h07.54.719,kallum_motion_pilot,2023.2.2,Win32,90.90909091,60cc20a8d1d940dcfa9df92d,65d2b6c8f2eece985d8e374c,65d2b7d3c67a654a5c71c23b,0.046,0.046,0,93,93,112,1,fivesix,,,,,,,,,,,,,,,,,,,,,,,,,,,,,,,,,,,,,,,,,,,,,,,,,,,,,,,,,,,,,,,,,,,,,,,,,,,,,,,,,,,,,,,,,,,,,,,,,,,,,,,,,,,,,,,,,,,,,,,,,,,,,,,,,,,,,,,,,
,,60cc20a8d1d940dcfa9df92d,2024-02-18_21h07.54.719,kallum_motion_pilot,2023.2.2,Win32,90.90909091,60cc20a8d1d940dcfa9df92d,65d2b6c8f2eece985d8e374c,65d2b7d3c67a654a5c71c23b,0.046,0.046,0,94,94,81,1,fiveseven,,,,,,,,,,,,,,,,,,,,,,,,,,,,,,,,,,,,,,,,,,,,,,,,,,,,,,,,,,,,,,,,,,,,,,,,,,,,,,,,,,,,,,,,,,,,,,,,,,,,,,,,,,,,,,,,,,,,,,,,,,,,,,,,,,,,,,,,,
,,60cc20a8d1d940dcfa9df92d,2024-02-18_21h07.54.719,kallum_motion_pilot,2023.2.2,Win32,90.90909091,60cc20a8d1d940dcfa9df92d,65d2b6c8f2eece985d8e374c,65d2b7d3c67a654a5c71c23b,0.046,0.046,0,95,95,56,1,onetwo,,,,,,,,,,,,,,,,,,,,,,,,,,,,,,,,,,,,,,,,,,,,,,,,,,,,,,,,,,,,,,,,,,,,,,,,,,,,,,,,,,,,,,,,,,,,,,,,,,,,,,,,,,,,,,,,,,,,,,,,,,,,,,,,,,,,,,,,,
,,60cc20a8d1d940dcfa9df92d,2024-02-18_21h07.54.719,kallum_motion_pilot,2023.2.2,Win32,90.90909091,60cc20a8d1d940dcfa9df92d,65d2b6c8f2eece985d8e374c,65d2b7d3c67a654a5c71c23b,0.046,0.046,0,96,96,103,1,eightseven,,,,,,,,,,,,,,,,,,,,,,,,,,,,,,,,,,,,,,,,,,,,,,,,,,,,,,,,,,,,,,,,,,,,,,,,,,,,,,,,,,,,,,,,,,,,,,,,,,,,,,,,,,,,,,,,,,,,,,,,,,,,,,,,,,,,,,,,,
,,60cc20a8d1d940dcfa9df92d,2024-02-18_21h07.54.719,kallum_motion_pilot,2023.2.2,Win32,90.90909091,60cc20a8d1d940dcfa9df92d,65d2b6c8f2eece985d8e374c,65d2b7d3c67a654a5c71c23b,0.046,0.046,0,97,97,132,1,sevenfive,,,,,,,,,,,,,,,,,,,,,,,,,,,,,,,,,,,,,,,,,,,,,,,,,,,,,,,,,,,,,,,,,,,,,,,,,,,,,,,,,,,,,,,,,,,,,,,,,,,,,,,,,,,,,,,,,,,,,,,,,,,,,,,,,,,,,,,,,
,,60cc20a8d1d940dcfa9df92d,2024-02-18_21h07.54.719,kallum_motion_pilot,2023.2.2,Win32,90.90909091,60cc20a8d1d940dcfa9df92d,65d2b6c8f2eece985d8e374c,65d2b7d3c67a654a5c71c23b,0.046,0.046,0,98,98,70,1,fourtwo,,,,,,,,,,,,,,,,,,,,,,,,,,,,,,,,,,,,,,,,,,,,,,,,,,,,,,,,,,,,,,,,,,,,,,,,,,,,,,,,,,,,,,,,,,,,,,,,,,,,,,,,,,,,,,,,,,,,,,,,,,,,,,,,,,,,,,,,,
,,60cc20a8d1d940dcfa9df92d,2024-02-18_21h07.54.719,kallum_motion_pilot,2023.2.2,Win32,90.90909091,60cc20a8d1d940dcfa9df92d,65d2b6c8f2eece985d8e374c,65d2b7d3c67a654a5c71c23b,0.046,0.046,0,99,99,152,1,fivesix,,,,,,,,,,,,,,,,,,,,,,,,,,,,,,,,,,,,,,,,,,,,,,,,,,,,,,,,,,,,,,,,,,,,,,,,,,,,,,,,,,,,,,,,,,,,,,,,,,,,,,,,,,,,,,,,,,,,,,,,,,,,,,,,,,,,,,,,,
,,60cc20a8d1d940dcfa9df92d,2024-02-18_21h07.54.719,kallum_motion_pilot,2023.2.2,Win32,90.90909091,60cc20a8d1d940dcfa9df92d,65d2b6c8f2eece985d8e374c,65d2b7d3c67a654a5c71c23b,0.046,0.046,0,100,100,119,1,eightseven,,,,,,,,,,,,,,,,,,,,,,,,,,,,,,,,,,,,,,,,,,,,,,,,,,,,,,,,,,,,,,,,,,,,,,,,,,,,,,,,,,,,,,,,,,,,,,,,,,,,,,,,,,,,,,,,,,,,,,,,,,,,,,,,,,,,,,,,,
,,60cc20a8d1d940dcfa9df92d,2024-02-18_21h07.54.719,kallum_motion_pilot,2023.2.2,Win32,90.90909091,60cc20a8d1d940dcfa9df92d,65d2b6c8f2eece985d8e374c,65d2b7d3c67a654a5c71c23b,0.046,0.046,0,101,101,49,1,onethree,,,,,,,,,,,,,,,,,,,,,,,,,,,,,,,,,,,,,,,,,,,,,,,,,,,,,,,,,,,,,,,,,,,,,,,,,,,,,,,,,,,,,,,,,,,,,,,,,,,,,,,,,,,,,,,,,,,,,,,,,,,,,,,,,,,,,,,,,
,,60cc20a8d1d940dcfa9df92d,2024-02-18_21h07.54.719,kallum_motion_pilot,2023.2.2,Win32,90.90909091,60cc20a8d1d940dcfa9df92d,65d2b6c8f2eece985d8e374c,65d2b7d3c67a654a5c71c23b,0.046,0.047,0,102,102,55,1,fourthree,,,,,,,,,,,,,,,,,,,,,,,,,,,,,,,,,,,,,,,,,,,,,,,,,,,,,,,,,,,,,,,,,,,,,,,,,,,,,,,,,,,,,,,,,,,,,,,,,,,,,,,,,,,,,,,,,,,,,,,,,,,,,,,,,,,,,,,,,
,,60cc20a8d1d940dcfa9df92d,2024-02-18_21h07.54.719,kallum_motion_pilot,2023.2.2,Win32,90.90909091,60cc20a8d1d940dcfa9df92d,65d2b6c8f2eece985d8e374c,65d2b7d3c67a654a5c71c23b,0.047,0.047,0,103,103,11,1,twofour,,,,,,,,,,,,,,,,,,,,,,,,,,,,,,,,,,,,,,,,,,,,,,,,,,,,,,,,,,,,,,,,,,,,,,,,,,,,,,,,,,,,,,,,,,,,,,,,,,,,,,,,,,,,,,,,,,,,,,,,,,,,,,,,,,,,,,,,,
,,60cc20a8d1d940dcfa9df92d,2024-02-18_21h07.54.719,kallum_motion_pilot,2023.2.2,Win32,90.90909091,60cc20a8d1d940dcfa9df92d,65d2b6c8f2eece985d8e374c,65d2b7d3c67a654a5c71c23b,0.047,0.047,0,104,104,138,1,sixfive,,,,,,,,,,,,,,,,,,,,,,,,,,,,,,,,,,,,,,,,,,,,,,,,,,,,,,,,,,,,,,,,,,,,,,,,,,,,,,,,,,,,,,,,,,,,,,,,,,,,,,,,,,,,,,,,,,,,,,,,,,,,,,,,,,,,,,,,,
,,60cc20a8d1d940dcfa9df92d,2024-02-18_21h07.54.719,kallum_motion_pilot,2023.2.2,Win32,90.90909091,60cc20a8d1d940dcfa9df92d,65d2b6c8f2eece985d8e374c,65d2b7d3c67a654a5c71c23b,0.047,0.047,0,105,105,111,1,eightseven,,,,,,,,,,,,,,,,,,,,,,,,,,,,,,,,,,,,,,,,,,,,,,,,,,,,,,,,,,,,,,,,,,,,,,,,,,,,,,,,,,,,,,,,,,,,,,,,,,,,,,,,,,,,,,,,,,,,,,,,,,,,,,,,,,,,,,,,,
,,60cc20a8d1d940dcfa9df92d,2024-02-18_21h07.54.719,kallum_motion_pilot,2023.2.2,Win32,90.90909091,60cc20a8d1d940dcfa9df92d,65d2b6c8f2eece985d8e374c,65d2b7d3c67a654a5c71c23b,0.047,0.047,0,106,106,133,1,seveneight,,,,,,,,,,,,,,,,,,,,,,,,,,,,,,,,,,,,,,,,,,,,,,,,,,,,,,,,,,,,,,,,,,,,,,,,,,,,,,,,,,,,,,,,,,,,,,,,,,,,,,,,,,,,,,,,,,,,,,,,,,,,,,,,,,,,,,,,,
,,60cc20a8d1d940dcfa9df92d,2024-02-18_21h07.54.719,kallum_motion_pilot,2023.2.2,Win32,90.90909091,60cc20a8d1d940dcfa9df92d,65d2b6c8f2eece985d8e374c,65d2b7d3c67a654a5c71c23b,0.047,0.047,0,107,107,22,1,fourtwo,,,,,,,,,,,,,,,,,,,,,,,,,,,,,,,,,,,,,,,,,,,,,,,,,,,,,,,,,,,,,,,,,,,,,,,,,,,,,,,,,,,,,,,,,,,,,,,,,,,,,,,,,,,,,,,,,,,,,,,,,,,,,,,,,,,,,,,,,
,,60cc20a8d1d940dcfa9df92d,2024-02-18_21h07.54.719,kallum_motion_pilot,2023.2.2,Win32,90.90909091,60cc20a8d1d940dcfa9df92d,65d2b6c8f2eece985d8e374c,65d2b7d3c67a654a5c71c23b,0.047,0.047,0,108,108,47,1,fourthree,,,,,,,,,,,,,,,,,,,,,,,,,,,,,,,,,,,,,,,,,,,,,,,,,,,,,,,,,,,,,,,,,,,,,,,,,,,,,,,,,,,,,,,,,,,,,,,,,,,,,,,,,,,,,,,,,,,,,,,,,,,,,,,,,,,,,,,,,
,,60cc20a8d1d940dcfa9df92d,2024-02-18_21h07.54.719,kallum_motion_pilot,2023.2.2,Win32,90.90909091,60cc20a8d1d940dcfa9df92d,65d2b6c8f2eece985d8e374c,65d2b7d3c67a654a5c71c23b,0.047,0.047,0,109,109,135,1,eightseven,,,,,,,,,,,,,,,,,,,,,,,,,,,,,,,,,,,,,,,,,,,,,,,,,,,,,,,,,,,,,,,,,,,,,,,,,,,,,,,,,,,,,,,,,,,,,,,,,,,,,,,,,,,,,,,,,,,,,,,,,,,,,,,,,,,,,,,,,
,,60cc20a8d1d940dcfa9df92d,2024-02-18_21h07.54.719,kallum_motion_pilot,2023.2.2,Win32,90.90909091,60cc20a8d1d940dcfa9df92d,65d2b6c8f2eece985d8e374c,65d2b7d3c67a654a5c71c23b,0.047,0.047,0,110,110,136,1,fivesix,,,,,,,,,,,,,,,,,,,,,,,,,,,,,,,,,,,,,,,,,,,,,,,,,,,,,,,,,,,,,,,,,,,,,,,,,,,,,,,,,,,,,,,,,,,,,,,,,,,,,,,,,,,,,,,,,,,,,,,,,,,,,,,,,,,,,,,,,
,,60cc20a8d1d940dcfa9df92d,2024-02-18_21h07.54.719,kallum_motion_pilot,2023.2.2,Win32,90.90909091,60cc20a8d1d940dcfa9df92d,65d2b6c8f2eece985d8e374c,65d2b7d3c67a654a5c71c23b,0.047,0.048,0,111,111,108,1,sevenfive,,,,,,,,,,,,,,,,,,,,,,,,,,,,,,,,,,,,,,,,,,,,,,,,,,,,,,,,,,,,,,,,,,,,,,,,,,,,,,,,,,,,,,,,,,,,,,,,,,,,,,,,,,,,,,,,,,,,,,,,,,,,,,,,,,,,,,,,,
,,60cc20a8d1d940dcfa9df92d,2024-02-18_21h07.54.719,kallum_motion_pilot,2023.2.2,Win32,90.90909091,60cc20a8d1d940dcfa9df92d,65d2b6c8f2eece985d8e374c,65d2b7d3c67a654a5c71c23b,0.048,0.048,0,112,112,90,1,sixfive,,,,,,,,,,,,,,,,,,,,,,,,,,,,,,,,,,,,,,,,,,,,,,,,,,,,,,,,,,,,,,,,,,,,,,,,,,,,,,,,,,,,,,,,,,,,,,,,,,,,,,,,,,,,,,,,,,,,,,,,,,,,,,,,,,,,,,,,,
,,60cc20a8d1d940dcfa9df92d,2024-02-18_21h07.54.719,kallum_motion_pilot,2023.2.2,Win32,90.90909091,60cc20a8d1d940dcfa9df92d,65d2b6c8f2eece985d8e374c,65d2b7d3c67a654a5c71c23b,0.048,0.048,0,113,113,143,1,eightseven,,,,,,,,,,,,,,,,,,,,,,,,,,,,,,,,,,,,,,,,,,,,,,,,,,,,,,,,,,,,,,,,,,,,,,,,,,,,,,,,,,,,,,,,,,,,,,,,,,,,,,,,,,,,,,,,,,,,,,,,,,,,,,,,,,,,,,,,,
,,60cc20a8d1d940dcfa9df92d,2024-02-18_21h07.54.719,kallum_motion_pilot,2023.2.2,Win32,90.90909091,60cc20a8d1d940dcfa9df92d,65d2b6c8f2eece985d8e374c,65d2b7d3c67a654a5c71c23b,0.048,0.048,0,114,114,73,1,onethree,,,,,,,,,,,,,,,,,,,,,,,,,,,,,,,,,,,,,,,,,,,,,,,,,,,,,,,,,,,,,,,,,,,,,,,,,,,,,,,,,,,,,,,,,,,,,,,,,,,,,,,,,,,,,,,,,,,,,,,,,,,,,,,,,,,,,,,,,
,,60cc20a8d1d940dcfa9df92d,2024-02-18_21h07.54.719,kallum_motion_pilot,2023.2.2,Win32,90.90909091,60cc20a8d1d940dcfa9df92d,65d2b6c8f2eece985d8e374c,65d2b7d3c67a654a5c71c23b,0.048,0.048,0,115,115,160,1,fivesix,,,,,,,,,,,,,,,,,,,,,,,,,,,,,,,,,,,,,,,,,,,,,,,,,,,,,,,,,,,,,,,,,,,,,,,,,,,,,,,,,,,,,,,,,,,,,,,,,,,,,,,,,,,,,,,,,,,,,,,,,,,,,,,,,,,,,,,,,
,,60cc20a8d1d940dcfa9df92d,2024-02-18_21h07.54.719,kallum_motion_pilot,2023.2.2,Win32,90.90909091,60cc20a8d1d940dcfa9df92d,65d2b6c8f2eece985d8e374c,65d2b7d3c67a654a5c71c23b,0.048,0.048,0,116,116,63,1,fourthree,,,,,,,,,,,,,,,,,,,,,,,,,,,,,,,,,,,,,,,,,,,,,,,,,,,,,,,,,,,,,,,,,,,,,,,,,,,,,,,,,,,,,,,,,,,,,,,,,,,,,,,,,,,,,,,,,,,,,,,,,,,,,,,,,,,,,,,,,
,,60cc20a8d1d940dcfa9df92d,2024-02-18_21h07.54.719,kallum_motion_pilot,2023.2.2,Win32,90.90909091,60cc20a8d1d940dcfa9df92d,65d2b6c8f2eece985d8e374c,65d2b7d3c67a654a5c71c23b,0.048,0.048,0,117,117,158,1,eightsix,,,,,,,,,,,,,,,,,,,,,,,,,,,,,,,,,,,,,,,,,,,,,,,,,,,,,,,,,,,,,,,,,,,,,,,,,,,,,,,,,,,,,,,,,,,,,,,,,,,,,,,,,,,,,,,,,,,,,,,,,,,,,,,,,,,,,,,,,
,,60cc20a8d1d940dcfa9df92d,2024-02-18_21h07.54.719,kallum_motion_pilot,2023.2.2,Win32,90.90909091,60cc20a8d1d940dcfa9df92d,65d2b6c8f2eece985d8e374c,65d2b7d3c67a654a5c71c23b,0.048,0.048,0,118,118,104,1,fivesix,,,,,,,,,,,,,,,,,,,,,,,,,,,,,,,,,,,,,,,,,,,,,,,,,,,,,,,,,,,,,,,,,,,,,,,,,,,,,,,,,,,,,,,,,,,,,,,,,,,,,,,,,,,,,,,,,,,,,,,,,,,,,,,,,,,,,,,,,
,,60cc20a8d1d940dcfa9df92d,2024-02-18_21h07.54.719,kallum_motion_pilot,2023.2.2,Win32,90.90909091,60cc20a8d1d940dcfa9df92d,65d2b6c8f2eece985d8e374c,65d2b7d3c67a654a5c71c23b,0.048,0.048,0,119,119,52,1,threeone,,,,,,,,,,,,,,,,,,,,,,,,,,,,,,,,,,,,,,,,,,,,,,,,,,,,,,,,,,,,,,,,,,,,,,,,,,,,,,,,,,,,,,,,,,,,,,,,,,,,,,,,,,,,,,,,,,,,,,,,,,,,,,,,,,,,,,,,,
,,60cc20a8d1d940dcfa9df92d,2024-02-18_21h07.54.719,kallum_motion_pilot,2023.2.2,Win32,90.90909091,60cc20a8d1d940dcfa9df92d,65d2b6c8f2eece985d8e374c,65d2b7d3c67a654a5c71c23b,0.048,0.049,0,120,120,35,1,twofour,,,,,,,,,,,,,,,,,,,,,,,,,,,,,,,,,,,,,,,,,,,,,,,,,,,,,,,,,,,,,,,,,,,,,,,,,,,,,,,,,,,,,,,,,,,,,,,,,,,,,,,,,,,,,,,,,,,,,,,,,,,,,,,,,,,,,,,,,
,,60cc20a8d1d940dcfa9df92d,2024-02-18_21h07.54.719,kallum_motion_pilot,2023.2.2,Win32,90.90909091,60cc20a8d1d940dcfa9df92d,65d2b6c8f2eece985d8e374c,65d2b7d3c67a654a5c71c23b,0.049,0.049,0,121,121,17,1,onethree,,,,,,,,,,,,,,,,,,,,,,,,,,,,,,,,,,,,,,,,,,,,,,,,,,,,,,,,,,,,,,,,,,,,,,,,,,,,,,,,,,,,,,,,,,,,,,,,,,,,,,,,,,,,,,,,,,,,,,,,,,,,,,,,,,,,,,,,,
,,60cc20a8d1d940dcfa9df92d,2024-02-18_21h07.54.719,kallum_motion_pilot,2023.2.2,Win32,90.90909091,60cc20a8d1d940dcfa9df92d,65d2b6c8f2eece985d8e374c,65d2b7d3c67a654a5c71c23b,0.049,0.049,0,122,122,137,1,fiveseven,,,,,,,,,,,,,,,,,,,,,,,,,,,,,,,,,,,,,,,,,,,,,,,,,,,,,,,,,,,,,,,,,,,,,,,,,,,,,,,,,,,,,,,,,,,,,,,,,,,,,,,,,,,,,,,,,,,,,,,,,,,,,,,,,,,,,,,,,
,,60cc20a8d1d940dcfa9df92d,2024-02-18_21h07.54.719,kallum_motion_pilot,2023.2.2,Win32,90.90909091,60cc20a8d1d940dcfa9df92d,65d2b6c8f2eece985d8e374c,65d2b7d3c67a654a5c71c23b,0.05,0.05,0,123,123,87,1,eightseven,,,,,,,,,,,,,,,,,,,,,,,,,,,,,,,,,,,,,,,,,,,,,,,,,,,,,,,,,,,,,,,,,,,,,,,,,,,,,,,,,,,,,,,,,,,,,,,,,,,,,,,,,,,,,,,,,,,,,,,,,,,,,,,,,,,,,,,,,
,,60cc20a8d1d940dcfa9df92d,2024-02-18_21h07.54.719,kallum_motion_pilot,2023.2.2,Win32,90.90909091,60cc20a8d1d940dcfa9df92d,65d2b6c8f2eece985d8e374c,65d2b7d3c67a654a5c71c23b,0.05,0.05,0,124,124,106,1,sixfive,,,,,,,,,,,,,,,,,,,,,,,,,,,,,,,,,,,,,,,,,,,,,,,,,,,,,,,,,,,,,,,,,,,,,,,,,,,,,,,,,,,,,,,,,,,,,,,,,,,,,,,,,,,,,,,,,,,,,,,,,,,,,,,,,,,,,,,,,
,,60cc20a8d1d940dcfa9df92d,2024-02-18_21h07.54.719,kallum_motion_pilot,2023.2.2,Win32,90.90909091,60cc20a8d1d940dcfa9df92d,65d2b6c8f2eece985d8e374c,65d2b7d3c67a654a5c71c23b,0.05,0.05,0,125,125,30,1,fourtwo,,,,,,,,,,,,,,,,,,,,,,,,,,,,,,,,,,,,,,,,,,,,,,,,,,,,,,,,,,,,,,,,,,,,,,,,,,,,,,,,,,,,,,,,,,,,,,,,,,,,,,,,,,,,,,,,,,,,,,,,,,,,,,,,,,,,,,,,,
,,60cc20a8d1d940dcfa9df92d,2024-02-18_21h07.54.719,kallum_motion_pilot,2023.2.2,Win32,90.90909091,60cc20a8d1d940dcfa9df92d,65d2b6c8f2eece985d8e374c,65d2b7d3c67a654a5c71c23b,0.05,0.05,0,126,126,42,1,twoone,,,,,,,,,,,,,,,,,,,,,,,,,,,,,,,,,,,,,,,,,,,,,,,,,,,,,,,,,,,,,,,,,,,,,,,,,,,,,,,,,,,,,,,,,,,,,,,,,,,,,,,,,,,,,,,,,,,,,,,,,,,,,,,,,,,,,,,,,
,,60cc20a8d1d940dcfa9df92d,2024-02-18_21h07.54.719,kallum_motion_pilot,2023.2.2,Win32,90.90909091,60cc20a8d1d940dcfa9df92d,65d2b6c8f2eece985d8e374c,65d2b7d3c67a654a5c71c23b,0.05,0.05,0,127,127,48,1,onetwo,,,,,,,,,,,,,,,,,,,,,,,,,,,,,,,,,,,,,,,,,,,,,,,,,,,,,,,,,,,,,,,,,,,,,,,,,,,,,,,,,,,,,,,,,,,,,,,,,,,,,,,,,,,,,,,,,,,,,,,,,,,,,,,,,,,,,,,,,
,,60cc20a8d1d940dcfa9df92d,2024-02-18_21h07.54.719,kallum_motion_pilot,2023.2.2,Win32,90.90909091,60cc20a8d1d940dcfa9df92d,65d2b6c8f2eece985d8e374c,65d2b7d3c67a654a5c71c23b,0.05,0.05,0,128,128,10,1,twoone,,,,,,,,,,,,,,,,,,,,,,,,,,,,,,,,,,,,,,,,,,,,,,,,,,,,,,,,,,,,,,,,,,,,,,,,,,,,,,,,,,,,,,,,,,,,,,,,,,,,,,,,,,,,,,,,,,,,,,,,,,,,,,,,,,,,,,,,,
,,60cc20a8d1d940dcfa9df92d,2024-02-18_21h07.54.719,kallum_motion_pilot,2023.2.2,Win32,90.90909091,60cc20a8d1d940dcfa9df92d,65d2b6c8f2eece985d8e374c,65d2b7d3c67a654a5c71c23b,0.05,0.05,0,129,129,124,1,sevenfive,,,,,,,,,,,,,,,,,,,,,,,,,,,,,,,,,,,,,,,,,,,,,,,,,,,,,,,,,,,,,,,,,,,,,,,,,,,,,,,,,,,,,,,,,,,,,,,,,,,,,,,,,,,,,,,,,,,,,,,,,,,,,,,,,,,,,,,,,
,,60cc20a8d1d940dcfa9df92d,2024-02-18_21h07.54.719,kallum_motion_pilot,2023.2.2,Win32,90.90909091,60cc20a8d1d940dcfa9df92d,65d2b6c8f2eece985d8e374c,65d2b7d3c67a654a5c71c23b,0.05,0.051,0,130,130,84,1,sevenfive,,,,,,,,,,,,,,,,,,,,,,,,,,,,,,,,,,,,,,,,,,,,,,,,,,,,,,,,,,,,,,,,,,,,,,,,,,,,,,,,,,,,,,,,,,,,,,,,,,,,,,,,,,,,,,,,,,,,,,,,,,,,,,,,,,,,,,,,,
,,60cc20a8d1d940dcfa9df92d,2024-02-18_21h07.54.719,kallum_motion_pilot,2023.2.2,Win32,90.90909091,60cc20a8d1d940dcfa9df92d,65d2b6c8f2eece985d8e374c,65d2b7d3c67a654a5c71c23b,0.051,0.051,0,131,131,129,1,fiveseven,,,,,,,,,,,,,,,,,,,,,,,,,,,,,,,,,,,,,,,,,,,,,,,,,,,,,,,,,,,,,,,,,,,,,,,,,,,,,,,,,,,,,,,,,,,,,,,,,,,,,,,,,,,,,,,,,,,,,,,,,,,,,,,,,,,,,,,,,
,,60cc20a8d1d940dcfa9df92d,2024-02-18_21h07.54.719,kallum_motion_pilot,2023.2.2,Win32,90.90909091,60cc20a8d1d940dcfa9df92d,65d2b6c8f2eece985d8e374c,65d2b7d3c67a654a5c71c23b,0.051,0.051,0,132,132,58,1,twoone,,,,,,,,,,,,,,,,,,,,,,,,,,,,,,,,,,,,,,,,,,,,,,,,,,,,,,,,,,,,,,,,,,,,,,,,,,,,,,,,,,,,,,,,,,,,,,,,,,,,,,,,,,,,,,,,,,,,,,,,,,,,,,,,,,,,,,,,,
,,60cc20a8d1d940dcfa9df92d,2024-02-18_21h07.54.719,kallum_motion_pilot,2023.2.2,Win32,90.90909091,60cc20a8d1d940dcfa9df92d,65d2b6c8f2eece985d8e374c,65d2b7d3c67a654a5c71c23b,0.051,0.051,0,133,133,12,1,threeone,,,,,,,,,,,,,,,,,,,,,,,,,,,,,,,,,,,,,,,,,,,,,,,,,,,,,,,,,,,,,,,,,,,,,,,,,,,,,,,,,,,,,,,,,,,,,,,,,,,,,,,,,,,,,,,,,,,,,,,,,,,,,,,,,,,,,,,,,
,,60cc20a8d1d940dcfa9df92d,2024-02-18_21h07.54.719,kallum_motion_pilot,2023.2.2,Win32,90.90909091,60cc20a8d1d940dcfa9df92d,65d2b6c8f2eece985d8e374c,65d2b7d3c67a654a5c71c23b,0.051,0.051,0,134,134,153,1,fiveseven,,,,,,,,,,,,,,,,,,,,,,,,,,,,,,,,,,,,,,,,,,,,,,,,,,,,,,,,,,,,,,,,,,,,,,,,,,,,,,,,,,,,,,,,,,,,,,,,,,,,,,,,,,,,,,,,,,,,,,,,,,,,,,,,,,,,,,,,,
,,60cc20a8d1d940dcfa9df92d,2024-02-18_21h07.54.719,kallum_motion_pilot,2023.2.2,Win32,90.90909091,60cc20a8d1d940dcfa9df92d,65d2b6c8f2eece985d8e374c,65d2b7d3c67a654a5c71c23b,0.051,0.051,0,135,135,60,1,threeone,,,,,,,,,,,,,,,,,,,,,,,,,,,,,,,,,,,,,,,,,,,,,,,,,,,,,,,,,,,,,,,,,,,,,,,,,,,,,,,,,,,,,,,,,,,,,,,,,,,,,,,,,,,,,,,,,,,,,,,,,,,,,,,,,,,,,,,,,
,,60cc20a8d1d940dcfa9df92d,2024-02-18_21h07.54.719,kallum_motion_pilot,2023.2.2,Win32,90.90909091,60cc20a8d1d940dcfa9df92d,65d2b6c8f2eece985d8e374c,65d2b7d3c67a654a5c71c23b,0.051,0.051,0,136,136,2,1,twoone,,,,,,,,,,,,,,,,,,,,,,,,,,,,,,,,,,,,,,,,,,,,,,,,,,,,,,,,,,,,,,,,,,,,,,,,,,,,,,,,,,,,,,,,,,,,,,,,,,,,,,,,,,,,,,,,,,,,,,,,,,,,,,,,,,,,,,,,,
,,60cc20a8d1d940dcfa9df92d,2024-02-18_21h07.54.719,kallum_motion_pilot,2023.2.2,Win32,90.90909091,60cc20a8d1d940dcfa9df92d,65d2b6c8f2eece985d8e374c,65d2b7d3c67a654a5c71c23b,0.051,0.051,0,137,137,51,1,twofour,,,,,,,,,,,,,,,,,,,,,,,,,,,,,,,,,,,,,,,,,,,,,,,,,,,,,,,,,,,,,,,,,,,,,,,,,,,,,,,,,,,,,,,,,,,,,,,,,,,,,,,,,,,,,,,,,,,,,,,,,,,,,,,,,,,,,,,,,
,,60cc20a8d1d940dcfa9df92d,2024-02-18_21h07.54.719,kallum_motion_pilot,2023.2.2,Win32,90.90909091,60cc20a8d1d940dcfa9df92d,65d2b6c8f2eece985d8e374c,65d2b7d3c67a654a5c71c23b,0.051,0.051,0,138,138,109,1,seveneight,,,,,,,,,,,,,,,,,,,,,,,,,,,,,,,,,,,,,,,,,,,,,,,,,,,,,,,,,,,,,,,,,,,,,,,,,,,,,,,,,,,,,,,,,,,,,,,,,,,,,,,,,,,,,,,,,,,,,,,,,,,,,,,,,,,,,,,,,
,,60cc20a8d1d940dcfa9df92d,2024-02-18_21h07.54.719,kallum_motion_pilot,2023.2.2,Win32,90.90909091,60cc20a8d1d940dcfa9df92d,65d2b6c8f2eece985d8e374c,65d2b7d3c67a654a5c71c23b,0.051,0.051,0,139,139,146,1,sixfive,,,,,,,,,,,,,,,,,,,,,,,,,,,,,,,,,,,,,,,,,,,,,,,,,,,,,,,,,,,,,,,,,,,,,,,,,,,,,,,,,,,,,,,,,,,,,,,,,,,,,,,,,,,,,,,,,,,,,,,,,,,,,,,,,,,,,,,,,
,,60cc20a8d1d940dcfa9df92d,2024-02-18_21h07.54.719,kallum_motion_pilot,2023.2.2,Win32,90.90909091,60cc20a8d1d940dcfa9df92d,65d2b6c8f2eece985d8e374c,65d2b7d3c67a654a5c71c23b,0.052,0.052,0,140,140,92,1,sevenfive,,,,,,,,,,,,,,,,,,,,,,,,,,,,,,,,,,,,,,,,,,,,,,,,,,,,,,,,,,,,,,,,,,,,,,,,,,,,,,,,,,,,,,,,,,,,,,,,,,,,,,,,,,,,,,,,,,,,,,,,,,,,,,,,,,,,,,,,,
,,60cc20a8d1d940dcfa9df92d,2024-02-18_21h07.54.719,kallum_motion_pilot,2023.2.2,Win32,90.90909091,60cc20a8d1d940dcfa9df92d,65d2b6c8f2eece985d8e374c,65d2b7d3c67a654a5c71c23b,0.052,0.052,0,141,141,5,1,threefour,,,,,,,,,,,,,,,,,,,,,,,,,,,,,,,,,,,,,,,,,,,,,,,,,,,,,,,,,,,,,,,,,,,,,,,,,,,,,,,,,,,,,,,,,,,,,,,,,,,,,,,,,,,,,,,,,,,,,,,,,,,,,,,,,,,,,,,,,
,,60cc20a8d1d940dcfa9df92d,2024-02-18_21h07.54.719,kallum_motion_pilot,2023.2.2,Win32,90.90909091,60cc20a8d1d940dcfa9df92d,65d2b6c8f2eece985d8e374c,65d2b7d3c67a654a5c71c23b,0.052,0.052,0,142,142,24,1,onetwo,,,,,,,,,,,,,,,,,,,,,,,,,,,,,,,,,,,,,,,,,,,,,,,,,,,,,,,,,,,,,,,,,,,,,,,,,,,,,,,,,,,,,,,,,,,,,,,,,,,,,,,,,,,,,,,,,,,,,,,,,,,,,,,,,,,,,,,,,
,,60cc20a8d1d940dcfa9df92d,2024-02-18_21h07.54.719,kallum_motion_pilot,2023.2.2,Win32,90.90909091,60cc20a8d1d940dcfa9df92d,65d2b6c8f2eece985d8e374c,65d2b7d3c67a654a5c71c23b,0.052,0.052,0,143,143,26,1,twoone,,,,,,,,,,,,,,,,,,,,,,,,,,,,,,,,,,,,,,,,,,,,,,,,,,,,,,,,,,,,,,,,,,,,,,,,,,,,,,,,,,,,,,,,,,,,,,,,,,,,,,,,,,,,,,,,,,,,,,,,,,,,,,,,,,,,,,,,,
,,60cc20a8d1d940dcfa9df92d,2024-02-18_21h07.54.719,kallum_motion_pilot,2023.2.2,Win32,90.90909091,60cc20a8d1d940dcfa9df92d,65d2b6c8f2eece985d8e374c,65d2b7d3c67a654a5c71c23b,0.052,0.052,0,144,144,155,1,sixeight,,,,,,,,,,,,,,,,,,,,,,,,,,,,,,,,,,,,,,,,,,,,,,,,,,,,,,,,,,,,,,,,,,,,,,,,,,,,,,,,,,,,,,,,,,,,,,,,,,,,,,,,,,,,,,,,,,,,,,,,,,,,,,,,,,,,,,,,,
,,60cc20a8d1d940dcfa9df92d,2024-02-18_21h07.54.719,kallum_motion_pilot,2023.2.2,Win32,90.90909091,60cc20a8d1d940dcfa9df92d,65d2b6c8f2eece985d8e374c,65d2b7d3c67a654a5c71c23b,0.052,0.052,0,145,145,21,1,threefour,,,,,,,,,,,,,,,,,,,,,,,,,,,,,,,,,,,,,,,,,,,,,,,,,,,,,,,,,,,,,,,,,,,,,,,,,,,,,,,,,,,,,,,,,,,,,,,,,,,,,,,,,,,,,,,,,,,,,,,,,,,,,,,,,,,,,,,,,
,,60cc20a8d1d940dcfa9df92d,2024-02-18_21h07.54.719,kallum_motion_pilot,2023.2.2,Win32,90.90909091,60cc20a8d1d940dcfa9df92d,65d2b6c8f2eece985d8e374c,65d2b7d3c67a654a5c71c23b,0.052,0.052,0,146,146,151,1,eightseven,,,,,,,,,,,,,,,,,,,,,,,,,,,,,,,,,,,,,,,,,,,,,,,,,,,,,,,,,,,,,,,,,,,,,,,,,,,,,,,,,,,,,,,,,,,,,,,,,,,,,,,,,,,,,,,,,,,,,,,,,,,,,,,,,,,,,,,,,
,,60cc20a8d1d940dcfa9df92d,2024-02-18_21h07.54.719,kallum_motion_pilot,2023.2.2,Win32,90.90909091,60cc20a8d1d940dcfa9df92d,65d2b6c8f2eece985d8e374c,65d2b7d3c67a654a5c71c23b,0.052,0.052,0,147,147,6,1,fourtwo,,,,,,,,,,,,,,,,,,,,,,,,,,,,,,,,,,,,,,,,,,,,,,,,,,,,,,,,,,,,,,,,,,,,,,,,,,,,,,,,,,,,,,,,,,,,,,,,,,,,,,,,,,,,,,,,,,,,,,,,,,,,,,,,,,,,,,,,,
,,60cc20a8d1d940dcfa9df92d,2024-02-18_21h07.54.719,kallum_motion_pilot,2023.2.2,Win32,90.90909091,60cc20a8d1d940dcfa9df92d,65d2b6c8f2eece985d8e374c,65d2b7d3c67a654a5c71c23b,0.053,0.053,0,148,148,91,1,sixeight,,,,,,,,,,,,,,,,,,,,,,,,,,,,,,,,,,,,,,,,,,,,,,,,,,,,,,,,,,,,,,,,,,,,,,,,,,,,,,,,,,,,,,,,,,,,,,,,,,,,,,,,,,,,,,,,,,,,,,,,,,,,,,,,,,,,,,,,,
,,60cc20a8d1d940dcfa9df92d,2024-02-18_21h07.54.719,kallum_motion_pilot,2023.2.2,Win32,90.90909091,60cc20a8d1d940dcfa9df92d,65d2b6c8f2eece985d8e374c,65d2b7d3c67a654a5c71c23b,0.053,0.053,0,149,149,57,1,onethree,,,,,,,,,,,,,,,,,,,,,,,,,,,,,,,,,,,,,,,,,,,,,,,,,,,,,,,,,,,,,,,,,,,,,,,,,,,,,,,,,,,,,,,,,,,,,,,,,,,,,,,,,,,,,,,,,,,,,,,,,,,,,,,,,,,,,,,,,
,,60cc20a8d1d940dcfa9df92d,2024-02-18_21h07.54.719,kallum_motion_pilot,2023.2.2,Win32,90.90909091,60cc20a8d1d940dcfa9df92d,65d2b6c8f2eece985d8e374c,65d2b7d3c67a654a5c71c23b,0.053,0.053,0,150,150,72,1,onetwo,,,,,,,,,,,,,,,,,,,,,,,,,,,,,,,,,,,,,,,,,,,,,,,,,,,,,,,,,,,,,,,,,,,,,,,,,,,,,,,,,,,,,,,,,,,,,,,,,,,,,,,,,,,,,,,,,,,,,,,,,,,,,,,,,,,,,,,,,
,,60cc20a8d1d940dcfa9df92d,2024-02-18_21h07.54.719,kallum_motion_pilot,2023.2.2,Win32,90.90909091,60cc20a8d1d940dcfa9df92d,65d2b6c8f2eece985d8e374c,65d2b7d3c67a654a5c71c23b,0.053,0.053,0,151,151,150,1,eightsix,,,,,,,,,,,,,,,,,,,,,,,,,,,,,,,,,,,,,,,,,,,,,,,,,,,,,,,,,,,,,,,,,,,,,,,,,,,,,,,,,,,,,,,,,,,,,,,,,,,,,,,,,,,,,,,,,,,,,,,,,,,,,,,,,,,,,,,,,
,,60cc20a8d1d940dcfa9df92d,2024-02-18_21h07.54.719,kallum_motion_pilot,2023.2.2,Win32,90.90909091,60cc20a8d1d940dcfa9df92d,65d2b6c8f2eece985d8e374c,65d2b7d3c67a654a5c71c23b,0.053,0.053,0,152,152,114,1,sixfive,,,,,,,,,,,,,,,,,,,,,,,,,,,,,,,,,,,,,,,,,,,,,,,,,,,,,,,,,,,,,,,,,,,,,,,,,,,,,,,,,,,,,,,,,,,,,,,,,,,,,,,,,,,,,,,,,,,,,,,,,,,,,,,,,,,,,,,,,
,,60cc20a8d1d940dcfa9df92d,2024-02-18_21h07.54.719,kallum_motion_pilot,2023.2.2,Win32,90.90909091,60cc20a8d1d940dcfa9df92d,65d2b6c8f2eece985d8e374c,65d2b7d3c67a654a5c71c23b,0.053,0.053,0,153,153,13,1,threefour,,,,,,,,,,,,,,,,,,,,,,,,,,,,,,,,,,,,,,,,,,,,,,,,,,,,,,,,,,,,,,,,,,,,,,,,,,,,,,,,,,,,,,,,,,,,,,,,,,,,,,,,,,,,,,,,,,,,,,,,,,,,,,,,,,,,,,,,,
,,60cc20a8d1d940dcfa9df92d,2024-02-18_21h07.54.719,kallum_motion_pilot,2023.2.2,Win32,90.90909091,60cc20a8d1d940dcfa9df92d,65d2b6c8f2eece985d8e374c,65d2b7d3c67a654a5c71c23b,0.053,0.053,0,154,154,65,1,onethree,,,,,,,,,,,,,,,,,,,,,,,,,,,,,,,,,,,,,,,,,,,,,,,,,,,,,,,,,,,,,,,,,,,,,,,,,,,,,,,,,,,,,,,,,,,,,,,,,,,,,,,,,,,,,,,,,,,,,,,,,,,,,,,,,,,,,,,,,
,,60cc20a8d1d940dcfa9df92d,2024-02-18_21h07.54.719,kallum_motion_pilot,2023.2.2,Win32,90.90909091,60cc20a8d1d940dcfa9df92d,65d2b6c8f2eece985d8e374c,65d2b7d3c67a654a5c71c23b,0.053,0.053,0,155,155,18,1,twoone,,,,,,,,,,,,,,,,,,,,,,,,,,,,,,,,,,,,,,,,,,,,,,,,,,,,,,,,,,,,,,,,,,,,,,,,,,,,,,,,,,,,,,,,,,,,,,,,,,,,,,,,,,,,,,,,,,,,,,,,,,,,,,,,,,,,,,,,,
,,60cc20a8d1d940dcfa9df92d,2024-02-18_21h07.54.719,kallum_motion_pilot,2023.2.2,Win32,90.90909091,60cc20a8d1d940dcfa9df92d,65d2b6c8f2eece985d8e374c,65d2b7d3c67a654a5c71c23b,0.054,0.054,0,156,156,46,1,fourtwo,,,,,,,,,,,,,,,,,,,,,,,,,,,,,,,,,,,,,,,,,,,,,,,,,,,,,,,,,,,,,,,,,,,,,,,,,,,,,,,,,,,,,,,,,,,,,,,,,,,,,,,,,,,,,,,,,,,,,,,,,,,,,,,,,,,,,,,,,
,,60cc20a8d1d940dcfa9df92d,2024-02-18_21h07.54.719,kallum_motion_pilot,2023.2.2,Win32,90.90909091,60cc20a8d1d940dcfa9df92d,65d2b6c8f2eece985d8e374c,65d2b7d3c67a654a5c71c23b,0.054,0.054,0,157,157,107,1,sixeight,,,,,,,,,,,,,,,,,,,,,,,,,,,,,,,,,,,,,,,,,,,,,,,,,,,,,,,,,,,,,,,,,,,,,,,,,,,,,,,,,,,,,,,,,,,,,,,,,,,,,,,,,,,,,,,,,,,,,,,,,,,,,,,,,,,,,,,,,
,,60cc20a8d1d940dcfa9df92d,2024-02-18_21h07.54.719,kallum_motion_pilot,2023.2.2,Win32,90.90909091,60cc20a8d1d940dcfa9df92d,65d2b6c8f2eece985d8e374c,65d2b7d3c67a654a5c71c23b,0.054,0.054,0,158,158,93,1,seveneight,,,,,,,,,,,,,,,,,,,,,,,,,,,,,,,,,,,,,,,,,,,,,,,,,,,,,,,,,,,,,,,,,,,,,,,,,,,,,,,,,,,,,,,,,,,,,,,,,,,,,,,,,,,,,,,,,,,,,,,,,,,,,,,,,,,,,,,,,
,,60cc20a8d1d940dcfa9df92d,2024-02-18_21h07.54.719,kallum_motion_pilot,2023.2.2,Win32,90.90909091,60cc20a8d1d940dcfa9df92d,65d2b6c8f2eece985d8e374c,65d2b7d3c67a654a5c71c23b,0.054,0.054,0,159,159,110,1,eightsix,,,,,,,,,,,,,,,,,,,,,,,,,,,,,,,,,,,,,,,,,,,,,,,,,,,,,,,,,,,,,,,,,,,,,,,,,,,,,,,,,,,,,,,,,,,,,,,,,,,,,,,,,,,,,,,,,,,,,,,,,,,,,,,,,,,,,,,,,
,,60cc20a8d1d940dcfa9df92d,2024-02-18_21h07.54.719,kallum_motion_pilot,2023.2.2,Win32,90.90909091,60cc20a8d1d940dcfa9df92d,65d2b6c8f2eece985d8e374c,65d2b7d3c67a654a5c71c23b,0.054,0.054,0,160,160,38,1,fourtwo,,,,,,,,,,,,,,,,,,,,,,,,,,,,,,,,,,,,,,,,,,,,,,,,,,,,,,,,,,,,,,,,,,,,,,,,,,,,,,,,,,,,,,,,,,,,,,,,,,,,,,,,,,,,,,,,,,,,,,,,,,,,,,,,,,,,,,,,,
,,60cc20a8d1d940dcfa9df92d,2024-02-18_21h07.54.719,kallum_motion_pilot,2023.2.2,Win32,90.90909091,60cc20a8d1d940dcfa9df92d,65d2b6c8f2eece985d8e374c,65d2b7d3c67a654a5c71c23b,0.054,0.054,0,161,161,54,1,fourtwo,,,,,,,,,,,,,,,,,,,,,,,,,,,,,,,,,,,,,,,,,,,,,,,,,,,,,,,,,,,,,,,,,,,,,,,,,,,,,,,,,,,,,,,,,,,,,,,,,,,,,,,,,,,,,,,,,,,,,,,,,,,,,,,,,,,,,,,,,
,,60cc20a8d1d940dcfa9df92d,2024-02-18_21h07.54.719,kallum_motion_pilot,2023.2.2,Win32,90.90909091,60cc20a8d1d940dcfa9df92d,65d2b6c8f2eece985d8e374c,65d2b7d3c67a654a5c71c23b,0.054,0.055,1,0,162,124,1,sevenfive,,,,,,,,,,,,,,,,,,,,,,,,,,,,,,,,,,,,,,,,,,,,,,,,,,,,,,,,,,,,,,,,,,,,,,,,,,,,,,,,,,,,,,,,,,,,,,,,,,,,,,,,,,,,,,,,,,,,,,,,,,,,,,,,,,,,,,,,,
,,60cc20a8d1d940dcfa9df92d,2024-02-18_21h07.54.719,kallum_motion_pilot,2023.2.2,Win32,90.90909091,60cc20a8d1d940dcfa9df92d,65d2b6c8f2eece985d8e374c,65d2b7d3c67a654a5c71c23b,0.055,0.055,1,1,163,102,1,eightsix,,,,,,,,,,,,,,,,,,,,,,,,,,,,,,,,,,,,,,,,,,,,,,,,,,,,,,,,,,,,,,,,,,,,,,,,,,,,,,,,,,,,,,,,,,,,,,,,,,,,,,,,,,,,,,,,,,,,,,,,,,,,,,,,,,,,,,,,,
,,60cc20a8d1d940dcfa9df92d,2024-02-18_21h07.54.719,kallum_motion_pilot,2023.2.2,Win32,90.90909091,60cc20a8d1d940dcfa9df92d,65d2b6c8f2eece985d8e374c,65d2b7d3c67a654a5c71c23b,0.055,0.055,1,2,164,116,1,sevenfive,,,,,,,,,,,,,,,,,,,,,,,,,,,,,,,,,,,,,,,,,,,,,,,,,,,,,,,,,,,,,,,,,,,,,,,,,,,,,,,,,,,,,,,,,,,,,,,,,,,,,,,,,,,,,,,,,,,,,,,,,,,,,,,,,,,,,,,,,
,,60cc20a8d1d940dcfa9df92d,2024-02-18_21h07.54.719,kallum_motion_pilot,2023.2.2,Win32,90.90909091,60cc20a8d1d940dcfa9df92d,65d2b6c8f2eece985d8e374c,65d2b7d3c67a654a5c71c23b,0.055,0.055,1,3,165,32,1,onetwo,,,,,,,,,,,,,,,,,,,,,,,,,,,,,,,,,,,,,,,,,,,,,,,,,,,,,,,,,,,,,,,,,,,,,,,,,,,,,,,,,,,,,,,,,,,,,,,,,,,,,,,,,,,,,,,,,,,,,,,,,,,,,,,,,,,,,,,,,
,,60cc20a8d1d940dcfa9df92d,2024-02-18_21h07.54.719,kallum_motion_pilot,2023.2.2,Win32,90.90909091,60cc20a8d1d940dcfa9df92d,65d2b6c8f2eece985d8e374c,65d2b7d3c67a654a5c71c23b,0.055,0.056,1,4,166,118,1,eightsix,,,,,,,,,,,,,,,,,,,,,,,,,,,,,,,,,,,,,,,,,,,,,,,,,,,,,,,,,,,,,,,,,,,,,,,,,,,,,,,,,,,,,,,,,,,,,,,,,,,,,,,,,,,,,,,,,,,,,,,,,,,,,,,,,,,,,,,,,
,,60cc20a8d1d940dcfa9df92d,2024-02-18_21h07.54.719,kallum_motion_pilot,2023.2.2,Win32,90.90909091,60cc20a8d1d940dcfa9df92d,65d2b6c8f2eece985d8e374c,65d2b7d3c67a654a5c71c23b,0.056,0.056,1,5,167,66,1,twoone,,,,,,,,,,,,,,,,,,,,,,,,,,,,,,,,,,,,,,,,,,,,,,,,,,,,,,,,,,,,,,,,,,,,,,,,,,,,,,,,,,,,,,,,,,,,,,,,,,,,,,,,,,,,,,,,,,,,,,,,,,,,,,,,,,,,,,,,,
,,60cc20a8d1d940dcfa9df92d,2024-02-18_21h07.54.719,kallum_motion_pilot,2023.2.2,Win32,90.90909091,60cc20a8d1d940dcfa9df92d,65d2b6c8f2eece985d8e374c,65d2b7d3c67a654a5c71c23b,0.056,0.056,1,6,168,97,1,fiveseven,,,,,,,,,,,,,,,,,,,,,,,,,,,,,,,,,,,,,,,,,,,,,,,,,,,,,,,,,,,,,,,,,,,,,,,,,,,,,,,,,,,,,,,,,,,,,,,,,,,,,,,,,,,,,,,,,,,,,,,,,,,,,,,,,,,,,,,,,
,,60cc20a8d1d940dcfa9df92d,2024-02-18_21h07.54.719,kallum_motion_pilot,2023.2.2,Win32,90.90909091,60cc20a8d1d940dcfa9df92d,65d2b6c8f2eece985d8e374c,65d2b7d3c67a654a5c71c23b,0.056,0.056,1,7,169,6,1,fourtwo,,,,,,,,,,,,,,,,,,,,,,,,,,,,,,,,,,,,,,,,,,,,,,,,,,,,,,,,,,,,,,,,,,,,,,,,,,,,,,,,,,,,,,,,,,,,,,,,,,,,,,,,,,,,,,,,,,,,,,,,,,,,,,,,,,,,,,,,,
,,60cc20a8d1d940dcfa9df92d,2024-02-18_21h07.54.719,kallum_motion_pilot,2023.2.2,Win32,90.90909091,60cc20a8d1d940dcfa9df92d,65d2b6c8f2eece985d8e374c,65d2b7d3c67a654a5c71c23b,0.056,0.056,1,8,170,141,1,seveneight,,,,,,,,,,,,,,,,,,,,,,,,,,,,,,,,,,,,,,,,,,,,,,,,,,,,,,,,,,,,,,,,,,,,,,,,,,,,,,,,,,,,,,,,,,,,,,,,,,,,,,,,,,,,,,,,,,,,,,,,,,,,,,,,,,,,,,,,,
,,60cc20a8d1d940dcfa9df92d,2024-02-18_21h07.54.719,kallum_motion_pilot,2023.2.2,Win32,90.90909091,60cc20a8d1d940dcfa9df92d,65d2b6c8f2eece985d8e374c,65d2b7d3c67a654a5c71c23b,0.056,0.056,1,9,171,40,1,onetwo,,,,,,,,,,,,,,,,,,,,,,,,,,,,,,,,,,,,,,,,,,,,,,,,,,,,,,,,,,,,,,,,,,,,,,,,,,,,,,,,,,,,,,,,,,,,,,,,,,,,,,,,,,,,,,,,,,,,,,,,,,,,,,,,,,,,,,,,,
,,60cc20a8d1d940dcfa9df92d,2024-02-18_21h07.54.719,kallum_motion_pilot,2023.2.2,Win32,90.90909091,60cc20a8d1d940dcfa9df92d,65d2b6c8f2eece985d8e374c,65d2b7d3c67a654a5c71c23b,0.056,0.056,1,10,172,143,1,eightseven,,,,,,,,,,,,,,,,,,,,,,,,,,,,,,,,,,,,,,,,,,,,,,,,,,,,,,,,,,,,,,,,,,,,,,,,,,,,,,,,,,,,,,,,,,,,,,,,,,,,,,,,,,,,,,,,,,,,,,,,,,,,,,,,,,,,,,,,,
,,60cc20a8d1d940dcfa9df92d,2024-02-18_21h07.54.719,kallum_motion_pilot,2023.2.2,Win32,90.90909091,60cc20a8d1d940dcfa9df92d,65d2b6c8f2eece985d8e374c,65d2b7d3c67a654a5c71c23b,0.056,0.056,1,11,173,149,1,seveneight,,,,,,,,,,,,,,,,,,,,,,,,,,,,,,,,,,,,,,,,,,,,,,,,,,,,,,,,,,,,,,,,,,,,,,,,,,,,,,,,,,,,,,,,,,,,,,,,,,,,,,,,,,,,,,,,,,,,,,,,,,,,,,,,,,,,,,,,,
,,60cc20a8d1d940dcfa9df92d,2024-02-18_21h07.54.719,kallum_motion_pilot,2023.2.2,Win32,90.90909091,60cc20a8d1d940dcfa9df92d,65d2b6c8f2eece985d8e374c,65d2b7d3c67a654a5c71c23b,0.057,0.057,1,12,174,51,1,twofour,,,,,,,,,,,,,,,,,,,,,,,,,,,,,,,,,,,,,,,,,,,,,,,,,,,,,,,,,,,,,,,,,,,,,,,,,,,,,,,,,,,,,,,,,,,,,,,,,,,,,,,,,,,,,,,,,,,,,,,,,,,,,,,,,,,,,,,,,
,,60cc20a8d1d940dcfa9df92d,2024-02-18_21h07.54.719,kallum_motion_pilot,2023.2.2,Win32,90.90909091,60cc20a8d1d940dcfa9df92d,65d2b6c8f2eece985d8e374c,65d2b7d3c67a654a5c71c23b,0.057,0.057,1,13,175,70,1,fourtwo,,,,,,,,,,,,,,,,,,,,,,,,,,,,,,,,,,,,,,,,,,,,,,,,,,,,,,,,,,,,,,,,,,,,,,,,,,,,,,,,,,,,,,,,,,,,,,,,,,,,,,,,,,,,,,,,,,,,,,,,,,,,,,,,,,,,,,,,,
,,60cc20a8d1d940dcfa9df92d,2024-02-18_21h07.54.719,kallum_motion_pilot,2023.2.2,Win32,90.90909091,60cc20a8d1d940dcfa9df92d,65d2b6c8f2eece985d8e374c,65d2b7d3c67a654a5c71c23b,0.057,0.057,1,14,176,38,1,fourtwo,,,,,,,,,,,,,,,,,,,,,,,,,,,,,,,,,,,,,,,,,,,,,,,,,,,,,,,,,,,,,,,,,,,,,,,,,,,,,,,,,,,,,,,,,,,,,,,,,,,,,,,,,,,,,,,,,,,,,,,,,,,,,,,,,,,,,,,,,
,,60cc20a8d1d940dcfa9df92d,2024-02-18_21h07.54.719,kallum_motion_pilot,2023.2.2,Win32,90.90909091,60cc20a8d1d940dcfa9df92d,65d2b6c8f2eece985d8e374c,65d2b7d3c67a654a5c71c23b,0.057,0.058,1,15,177,115,1,sixeight,,,,,,,,,,,,,,,,,,,,,,,,,,,,,,,,,,,,,,,,,,,,,,,,,,,,,,,,,,,,,,,,,,,,,,,,,,,,,,,,,,,,,,,,,,,,,,,,,,,,,,,,,,,,,,,,,,,,,,,,,,,,,,,,,,,,,,,,,
,,60cc20a8d1d940dcfa9df92d,2024-02-18_21h07.54.719,kallum_motion_pilot,2023.2.2,Win32,90.90909091,60cc20a8d1d940dcfa9df92d,65d2b6c8f2eece985d8e374c,65d2b7d3c67a654a5c71c23b,0.058,0.058,1,16,178,14,1,fourtwo,,,,,,,,,,,,,,,,,,,,,,,,,,,,,,,,,,,,,,,,,,,,,,,,,,,,,,,,,,,,,,,,,,,,,,,,,,,,,,,,,,,,,,,,,,,,,,,,,,,,,,,,,,,,,,,,,,,,,,,,,,,,,,,,,,,,,,,,,
,,60cc20a8d1d940dcfa9df92d,2024-02-18_21h07.54.719,kallum_motion_pilot,2023.2.2,Win32,90.90909091,60cc20a8d1d940dcfa9df92d,65d2b6c8f2eece985d8e374c,65d2b7d3c67a654a5c71c23b,0.058,0.058,1,17,179,23,1,fourthree,,,,,,,,,,,,,,,,,,,,,,,,,,,,,,,,,,,,,,,,,,,,,,,,,,,,,,,,,,,,,,,,,,,,,,,,,,,,,,,,,,,,,,,,,,,,,,,,,,,,,,,,,,,,,,,,,,,,,,,,,,,,,,,,,,,,,,,,,
,,60cc20a8d1d940dcfa9df92d,2024-02-18_21h07.54.719,kallum_motion_pilot,2023.2.2,Win32,90.90909091,60cc20a8d1d940dcfa9df92d,65d2b6c8f2eece985d8e374c,65d2b7d3c67a654a5c71c23b,0.058,0.058,1,18,180,34,1,twoone,,,,,,,,,,,,,,,,,,,,,,,,,,,,,,,,,,,,,,,,,,,,,,,,,,,,,,,,,,,,,,,,,,,,,,,,,,,,,,,,,,,,,,,,,,,,,,,,,,,,,,,,,,,,,,,,,,,,,,,,,,,,,,,,,,,,,,,,,
,,60cc20a8d1d940dcfa9df92d,2024-02-18_21h07.54.719,kallum_motion_pilot,2023.2.2,Win32,90.90909091,60cc20a8d1d940dcfa9df92d,65d2b6c8f2eece985d8e374c,65d2b7d3c67a654a5c71c23b,0.058,0.058,1,19,181,95,1,eightseven,,,,,,,,,,,,,,,,,,,,,,,,,,,,,,,,,,,,,,,,,,,,,,,,,,,,,,,,,,,,,,,,,,,,,,,,,,,,,,,,,,,,,,,,,,,,,,,,,,,,,,,,,,,,,,,,,,,,,,,,,,,,,,,,,,,,,,,,,
,,60cc20a8d1d940dcfa9df92d,2024-02-18_21h07.54.719,kallum_motion_pilot,2023.2.2,Win32,90.90909091,60cc20a8d1d940dcfa9df92d,65d2b6c8f2eece985d8e374c,65d2b7d3c67a654a5c71c23b,0.058,0.058,1,20,182,88,1,fivesix,,,,,,,,,,,,,,,,,,,,,,,,,,,,,,,,,,,,,,,,,,,,,,,,,,,,,,,,,,,,,,,,,,,,,,,,,,,,,,,,,,,,,,,,,,,,,,,,,,,,,,,,,,,,,,,,,,,,,,,,,,,,,,,,,,,,,,,,,
,,60cc20a8d1d940dcfa9df92d,2024-02-18_21h07.54.719,kallum_motion_pilot,2023.2.2,Win32,90.90909091,60cc20a8d1d940dcfa9df92d,65d2b6c8f2eece985d8e374c,65d2b7d3c67a654a5c71c23b,0.059,0.059,1,21,183,145,1,fiveseven,,,,,,,,,,,,,,,,,,,,,,,,,,,,,,,,,,,,,,,,,,,,,,,,,,,,,,,,,,,,,,,,,,,,,,,,,,,,,,,,,,,,,,,,,,,,,,,,,,,,,,,,,,,,,,,,,,,,,,,,,,,,,,,,,,,,,,,,,
,,60cc20a8d1d940dcfa9df92d,2024-02-18_21h07.54.719,kallum_motion_pilot,2023.2.2,Win32,90.90909091,60cc20a8d1d940dcfa9df92d,65d2b6c8f2eece985d8e374c,65d2b7d3c67a654a5c71c23b,0.059,0.059,1,22,184,53,1,threefour,,,,,,,,,,,,,,,,,,,,,,,,,,,,,,,,,,,,,,,,,,,,,,,,,,,,,,,,,,,,,,,,,,,,,,,,,,,,,,,,,,,,,,,,,,,,,,,,,,,,,,,,,,,,,,,,,,,,,,,,,,,,,,,,,,,,,,,,,
,,60cc20a8d1d940dcfa9df92d,2024-02-18_21h07.54.719,kallum_motion_pilot,2023.2.2,Win32,90.90909091,60cc20a8d1d940dcfa9df92d,65d2b6c8f2eece985d8e374c,65d2b7d3c67a654a5c71c23b,0.059,0.059,1,23,185,68,1,threeone,,,,,,,,,,,,,,,,,,,,,,,,,,,,,,,,,,,,,,,,,,,,,,,,,,,,,,,,,,,,,,,,,,,,,,,,,,,,,,,,,,,,,,,,,,,,,,,,,,,,,,,,,,,,,,,,,,,,,,,,,,,,,,,,,,,,,,,,,
,,60cc20a8d1d940dcfa9df92d,2024-02-18_21h07.54.719,kallum_motion_pilot,2023.2.2,Win32,90.90909091,60cc20a8d1d940dcfa9df92d,65d2b6c8f2eece985d8e374c,65d2b7d3c67a654a5c71c23b,0.059,0.059,1,24,186,150,1,eightsix,,,,,,,,,,,,,,,,,,,,,,,,,,,,,,,,,,,,,,,,,,,,,,,,,,,,,,,,,,,,,,,,,,,,,,,,,,,,,,,,,,,,,,,,,,,,,,,,,,,,,,,,,,,,,,,,,,,,,,,,,,,,,,,,,,,,,,,,,
,,60cc20a8d1d940dcfa9df92d,2024-02-18_21h07.54.719,kallum_motion_pilot,2023.2.2,Win32,90.90909091,60cc20a8d1d940dcfa9df92d,65d2b6c8f2eece985d8e374c,65d2b7d3c67a654a5c71c23b,0.059,0.059,1,25,187,36,1,threeone,,,,,,,,,,,,,,,,,,,,,,,,,,,,,,,,,,,,,,,,,,,,,,,,,,,,,,,,,,,,,,,,,,,,,,,,,,,,,,,,,,,,,,,,,,,,,,,,,,,,,,,,,,,,,,,,,,,,,,,,,,,,,,,,,,,,,,,,,
,,60cc20a8d1d940dcfa9df92d,2024-02-18_21h07.54.719,kallum_motion_pilot,2023.2.2,Win32,90.90909091,60cc20a8d1d940dcfa9df92d,65d2b6c8f2eece985d8e374c,65d2b7d3c67a654a5c71c23b,0.059,0.059,1,26,188,49,1,onethree,,,,,,,,,,,,,,,,,,,,,,,,,,,,,,,,,,,,,,,,,,,,,,,,,,,,,,,,,,,,,,,,,,,,,,,,,,,,,,,,,,,,,,,,,,,,,,,,,,,,,,,,,,,,,,,,,,,,,,,,,,,,,,,,,,,,,,,,,
,,60cc20a8d1d940dcfa9df92d,2024-02-18_21h07.54.719,kallum_motion_pilot,2023.2.2,Win32,90.90909091,60cc20a8d1d940dcfa9df92d,65d2b6c8f2eece985d8e374c,65d2b7d3c67a654a5c71c23b,0.06,0.06,1,27,189,20,1,threeone,,,,,,,,,,,,,,,,,,,,,,,,,,,,,,,,,,,,,,,,,,,,,,,,,,,,,,,,,,,,,,,,,,,,,,,,,,,,,,,,,,,,,,,,,,,,,,,,,,,,,,,,,,,,,,,,,,,,,,,,,,,,,,,,,,,,,,,,,
,,60cc20a8d1d940dcfa9df92d,2024-02-18_21h07.54.719,kallum_motion_pilot,2023.2.2,Win32,90.90909091,60cc20a8d1d940dcfa9df92d,65d2b6c8f2eece985d8e374c,65d2b7d3c67a654a5c71c23b,0.06,0.06,1,28,190,27,1,twofour,,,,,,,,,,,,,,,,,,,,,,,,,,,,,,,,,,,,,,,,,,,,,,,,,,,,,,,,,,,,,,,,,,,,,,,,,,,,,,,,,,,,,,,,,,,,,,,,,,,,,,,,,,,,,,,,,,,,,,,,,,,,,,,,,,,,,,,,,
,,60cc20a8d1d940dcfa9df92d,2024-02-18_21h07.54.719,kallum_motion_pilot,2023.2.2,Win32,90.90909091,60cc20a8d1d940dcfa9df92d,65d2b6c8f2eece985d8e374c,65d2b7d3c67a654a5c71c23b,0.061,0.061,1,29,191,91,1,sixeight,,,,,,,,,,,,,,,,,,,,,,,,,,,,,,,,,,,,,,,,,,,,,,,,,,,,,,,,,,,,,,,,,,,,,,,,,,,,,,,,,,,,,,,,,,,,,,,,,,,,,,,,,,,,,,,,,,,,,,,,,,,,,,,,,,,,,,,,,
,,60cc20a8d1d940dcfa9df92d,2024-02-18_21h07.54.719,kallum_motion_pilot,2023.2.2,Win32,90.90909091,60cc20a8d1d940dcfa9df92d,65d2b6c8f2eece985d8e374c,65d2b7d3c67a654a5c71c23b,0.061,0.061,1,30,192,47,1,fourthree,,,,,,,,,,,,,,,,,,,,,,,,,,,,,,,,,,,,,,,,,,,,,,,,,,,,,,,,,,,,,,,,,,,,,,,,,,,,,,,,,,,,,,,,,,,,,,,,,,,,,,,,,,,,,,,,,,,,,,,,,,,,,,,,,,,,,,,,,
,,60cc20a8d1d940dcfa9df92d,2024-02-18_21h07.54.719,kallum_motion_pilot,2023.2.2,Win32,90.90909091,60cc20a8d1d940dcfa9df92d,65d2b6c8f2eece985d8e374c,65d2b7d3c67a654a5c71c23b,0.061,0.061,1,31,193,151,1,eightseven,,,,,,,,,,,,,,,,,,,,,,,,,,,,,,,,,,,,,,,,,,,,,,,,,,,,,,,,,,,,,,,,,,,,,,,,,,,,,,,,,,,,,,,,,,,,,,,,,,,,,,,,,,,,,,,,,,,,,,,,,,,,,,,,,,,,,,,,,
,,60cc20a8d1d940dcfa9df92d,2024-02-18_21h07.54.719,kallum_motion_pilot,2023.2.2,Win32,90.90909091,60cc20a8d1d940dcfa9df92d,65d2b6c8f2eece985d8e374c,65d2b7d3c67a654a5c71c23b,0.061,0.061,1,32,194,22,1,fourtwo,,,,,,,,,,,,,,,,,,,,,,,,,,,,,,,,,,,,,,,,,,,,,,,,,,,,,,,,,,,,,,,,,,,,,,,,,,,,,,,,,,,,,,,,,,,,,,,,,,,,,,,,,,,,,,,,,,,,,,,,,,,,,,,,,,,,,,,,,
,,60cc20a8d1d940dcfa9df92d,2024-02-18_21h07.54.719,kallum_motion_pilot,2023.2.2,Win32,90.90909091,60cc20a8d1d940dcfa9df92d,65d2b6c8f2eece985d8e374c,65d2b7d3c67a654a5c71c23b,0.061,0.061,1,33,195,59,1,twofour,,,,,,,,,,,,,,,,,,,,,,,,,,,,,,,,,,,,,,,,,,,,,,,,,,,,,,,,,,,,,,,,,,,,,,,,,,,,,,,,,,,,,,,,,,,,,,,,,,,,,,,,,,,,,,,,,,,,,,,,,,,,,,,,,,,,,,,,,
,,60cc20a8d1d940dcfa9df92d,2024-02-18_21h07.54.719,kallum_motion_pilot,2023.2.2,Win32,90.90909091,60cc20a8d1d940dcfa9df92d,65d2b6c8f2eece985d8e374c,65d2b7d3c67a654a5c71c23b,0.061,0.061,1,34,196,16,1,onetwo,,,,,,,,,,,,,,,,,,,,,,,,,,,,,,,,,,,,,,,,,,,,,,,,,,,,,,,,,,,,,,,,,,,,,,,,,,,,,,,,,,,,,,,,,,,,,,,,,,,,,,,,,,,,,,,,,,,,,,,,,,,,,,,,,,,,,,,,,
,,60cc20a8d1d940dcfa9df92d,2024-02-18_21h07.54.719,kallum_motion_pilot,2023.2.2,Win32,90.90909091,60cc20a8d1d940dcfa9df92d,65d2b6c8f2eece985d8e374c,65d2b7d3c67a654a5c71c23b,0.061,0.061,1,35,197,86,1,eightsix,,,,,,,,,,,,,,,,,,,,,,,,,,,,,,,,,,,,,,,,,,,,,,,,,,,,,,,,,,,,,,,,,,,,,,,,,,,,,,,,,,,,,,,,,,,,,,,,,,,,,,,,,,,,,,,,,,,,,,,,,,,,,,,,,,,,,,,,,
,,60cc20a8d1d940dcfa9df92d,2024-02-18_21h07.54.719,kallum_motion_pilot,2023.2.2,Win32,90.90909091,60cc20a8d1d940dcfa9df92d,65d2b6c8f2eece985d8e374c,65d2b7d3c67a654a5c71c23b,0.061,0.061,1,36,198,71,1,fourthree,,,,,,,,,,,,,,,,,,,,,,,,,,,,,,,,,,,,,,,,,,,,,,,,,,,,,,,,,,,,,,,,,,,,,,,,,,,,,,,,,,,,,,,,,,,,,,,,,,,,,,,,,,,,,,,,,,,,,,,,,,,,,,,,,,,,,,,,,
,,60cc20a8d1d940dcfa9df92d,2024-02-18_21h07.54.719,kallum_motion_pilot,2023.2.2,Win32,90.90909091,60cc20a8d1d940dcfa9df92d,65d2b6c8f2eece985d8e374c,65d2b7d3c67a654a5c71c23b,0.061,0.061,1,37,199,144,1,fivesix,,,,,,,,,,,,,,,,,,,,,,,,,,,,,,,,,,,,,,,,,,,,,,,,,,,,,,,,,,,,,,,,,,,,,,,,,,,,,,,,,,,,,,,,,,,,,,,,,,,,,,,,,,,,,,,,,,,,,,,,,,,,,,,,,,,,,,,,,
,,60cc20a8d1d940dcfa9df92d,2024-02-18_21h07.54.719,kallum_motion_pilot,2023.2.2,Win32,90.90909091,60cc20a8d1d940dcfa9df92d,65d2b6c8f2eece985d8e374c,65d2b7d3c67a654a5c71c23b,0.061,0.061,1,38,200,134,1,eightsix,,,,,,,,,,,,,,,,,,,,,,,,,,,,,,,,,,,,,,,,,,,,,,,,,,,,,,,,,,,,,,,,,,,,,,,,,,,,,,,,,,,,,,,,,,,,,,,,,,,,,,,,,,,,,,,,,,,,,,,,,,,,,,,,,,,,,,,,,
,,60cc20a8d1d940dcfa9df92d,2024-02-18_21h07.54.719,kallum_motion_pilot,2023.2.2,Win32,90.90909091,60cc20a8d1d940dcfa9df92d,65d2b6c8f2eece985d8e374c,65d2b7d3c67a654a5c71c23b,0.061,0.061,1,39,201,35,1,twofour,,,,,,,,,,,,,,,,,,,,,,,,,,,,,,,,,,,,,,,,,,,,,,,,,,,,,,,,,,,,,,,,,,,,,,,,,,,,,,,,,,,,,,,,,,,,,,,,,,,,,,,,,,,,,,,,,,,,,,,,,,,,,,,,,,,,,,,,,
,,60cc20a8d1d940dcfa9df92d,2024-02-18_21h07.54.719,kallum_motion_pilot,2023.2.2,Win32,90.90909091,60cc20a8d1d940dcfa9df92d,65d2b6c8f2eece985d8e374c,65d2b7d3c67a654a5c71c23b,0.062,0.062,1,40,202,31,1,fourthree,,,,,,,,,,,,,,,,,,,,,,,,,,,,,,,,,,,,,,,,,,,,,,,,,,,,,,,,,,,,,,,,,,,,,,,,,,,,,,,,,,,,,,,,,,,,,,,,,,,,,,,,,,,,,,,,,,,,,,,,,,,,,,,,,,,,,,,,,
,,60cc20a8d1d940dcfa9df92d,2024-02-18_21h07.54.719,kallum_motion_pilot,2023.2.2,Win32,90.90909091,60cc20a8d1d940dcfa9df92d,65d2b6c8f2eece985d8e374c,65d2b7d3c67a654a5c71c23b,0.062,0.062,1,41,203,5,1,threefour,,,,,,,,,,,,,,,,,,,,,,,,,,,,,,,,,,,,,,,,,,,,,,,,,,,,,,,,,,,,,,,,,,,,,,,,,,,,,,,,,,,,,,,,,,,,,,,,,,,,,,,,,,,,,,,,,,,,,,,,,,,,,,,,,,,,,,,,,
,,60cc20a8d1d940dcfa9df92d,2024-02-18_21h07.54.719,kallum_motion_pilot,2023.2.2,Win32,90.90909091,60cc20a8d1d940dcfa9df92d,65d2b6c8f2eece985d8e374c,65d2b7d3c67a654a5c71c23b,0.062,0.062,1,42,204,2,1,twoone,,,,,,,,,,,,,,,,,,,,,,,,,,,,,,,,,,,,,,,,,,,,,,,,,,,,,,,,,,,,,,,,,,,,,,,,,,,,,,,,,,,,,,,,,,,,,,,,,,,,,,,,,,,,,,,,,,,,,,,,,,,,,,,,,,,,,,,,,
,,60cc20a8d1d940dcfa9df92d,2024-02-18_21h07.54.719,kallum_motion_pilot,2023.2.2,Win32,90.90909091,60cc20a8d1d940dcfa9df92d,65d2b6c8f2eece985d8e374c,65d2b7d3c67a654a5c71c23b,0.062,0.062,1,43,205,79,1,eightseven,,,,,,,,,,,,,,,,,,,,,,,,,,,,,,,,,,,,,,,,,,,,,,,,,,,,,,,,,,,,,,,,,,,,,,,,,,,,,,,,,,,,,,,,,,,,,,,,,,,,,,,,,,,,,,,,,,,,,,,,,,,,,,,,,,,,,,,,,
,,60cc20a8d1d940dcfa9df92d,2024-02-18_21h07.54.719,kallum_motion_pilot,2023.2.2,Win32,90.90909091,60cc20a8d1d940dcfa9df92d,65d2b6c8f2eece985d8e374c,65d2b7d3c67a654a5c71c23b,0.062,0.062,1,44,206,41,1,onethree,,,,,,,,,,,,,,,,,,,,,,,,,,,,,,,,,,,,,,,,,,,,,,,,,,,,,,,,,,,,,,,,,,,,,,,,,,,,,,,,,,,,,,,,,,,,,,,,,,,,,,,,,,,,,,,,,,,,,,,,,,,,,,,,,,,,,,,,,
,,60cc20a8d1d940dcfa9df92d,2024-02-18_21h07.54.719,kallum_motion_pilot,2023.2.2,Win32,90.90909091,60cc20a8d1d940dcfa9df92d,65d2b6c8f2eece985d8e374c,65d2b7d3c67a654a5c71c23b,0.062,0.062,1,45,207,42,1,twoone,,,,,,,,,,,,,,,,,,,,,,,,,,,,,,,,,,,,,,,,,,,,,,,,,,,,,,,,,,,,,,,,,,,,,,,,,,,,,,,,,,,,,,,,,,,,,,,,,,,,,,,,,,,,,,,,,,,,,,,,,,,,,,,,,,,,,,,,,
,,60cc20a8d1d940dcfa9df92d,2024-02-18_21h07.54.719,kallum_motion_pilot,2023.2.2,Win32,90.90909091,60cc20a8d1d940dcfa9df92d,65d2b6c8f2eece985d8e374c,65d2b7d3c67a654a5c71c23b,0.063,0.063,1,46,208,8,1,onetwo,,,,,,,,,,,,,,,,,,,,,,,,,,,,,,,,,,,,,,,,,,,,,,,,,,,,,,,,,,,,,,,,,,,,,,,,,,,,,,,,,,,,,,,,,,,,,,,,,,,,,,,,,,,,,,,,,,,,,,,,,,,,,,,,,,,,,,,,,
,,60cc20a8d1d940dcfa9df92d,2024-02-18_21h07.54.719,kallum_motion_pilot,2023.2.2,Win32,90.90909091,60cc20a8d1d940dcfa9df92d,65d2b6c8f2eece985d8e374c,65d2b7d3c67a654a5c71c23b,0.063,0.063,1,47,209,108,1,sevenfive,,,,,,,,,,,,,,,,,,,,,,,,,,,,,,,,,,,,,,,,,,,,,,,,,,,,,,,,,,,,,,,,,,,,,,,,,,,,,,,,,,,,,,,,,,,,,,,,,,,,,,,,,,,,,,,,,,,,,,,,,,,,,,,,,,,,,,,,,
,,60cc20a8d1d940dcfa9df92d,2024-02-18_21h07.54.719,kallum_motion_pilot,2023.2.2,Win32,90.90909091,60cc20a8d1d940dcfa9df92d,65d2b6c8f2eece985d8e374c,65d2b7d3c67a654a5c71c23b,0.063,0.063,1,48,210,146,1,sixfive,,,,,,,,,,,,,,,,,,,,,,,,,,,,,,,,,,,,,,,,,,,,,,,,,,,,,,,,,,,,,,,,,,,,,,,,,,,,,,,,,,,,,,,,,,,,,,,,,,,,,,,,,,,,,,,,,,,,,,,,,,,,,,,,,,,,,,,,,
,,60cc20a8d1d940dcfa9df92d,2024-02-18_21h07.54.719,kallum_motion_pilot,2023.2.2,Win32,90.90909091,60cc20a8d1d940dcfa9df92d,65d2b6c8f2eece985d8e374c,65d2b7d3c67a654a5c71c23b,0.063,0.064,1,49,211,123,1,sixeight,,,,,,,,,,,,,,,,,,,,,,,,,,,,,,,,,,,,,,,,,,,,,,,,,,,,,,,,,,,,,,,,,,,,,,,,,,,,,,,,,,,,,,,,,,,,,,,,,,,,,,,,,,,,,,,,,,,,,,,,,,,,,,,,,,,,,,,,,
,,60cc20a8d1d940dcfa9df92d,2024-02-18_21h07.54.719,kallum_motion_pilot,2023.2.2,Win32,90.90909091,60cc20a8d1d940dcfa9df92d,65d2b6c8f2eece985d8e374c,65d2b7d3c67a654a5c71c23b,0.064,0.064,1,50,212,52,1,threeone,,,,,,,,,,,,,,,,,,,,,,,,,,,,,,,,,,,,,,,,,,,,,,,,,,,,,,,,,,,,,,,,,,,,,,,,,,,,,,,,,,,,,,,,,,,,,,,,,,,,,,,,,,,,,,,,,,,,,,,,,,,,,,,,,,,,,,,,,
,,60cc20a8d1d940dcfa9df92d,2024-02-18_21h07.54.719,kallum_motion_pilot,2023.2.2,Win32,90.90909091,60cc20a8d1d940dcfa9df92d,65d2b6c8f2eece985d8e374c,65d2b7d3c67a654a5c71c23b,0.064,0.064,1,51,213,128,1,fivesix,,,,,,,,,,,,,,,,,,,,,,,,,,,,,,,,,,,,,,,,,,,,,,,,,,,,,,,,,,,,,,,,,,,,,,,,,,,,,,,,,,,,,,,,,,,,,,,,,,,,,,,,,,,,,,,,,,,,,,,,,,,,,,,,,,,,,,,,,
,,60cc20a8d1d940dcfa9df92d,2024-02-18_21h07.54.719,kallum_motion_pilot,2023.2.2,Win32,90.90909091,60cc20a8d1d940dcfa9df92d,65d2b6c8f2eece985d8e374c,65d2b7d3c67a654a5c71c23b,0.064,0.064,1,52,214,103,1,eightseven,,,,,,,,,,,,,,,,,,,,,,,,,,,,,,,,,,,,,,,,,,,,,,,,,,,,,,,,,,,,,,,,,,,,,,,,,,,,,,,,,,,,,,,,,,,,,,,,,,,,,,,,,,,,,,,,,,,,,,,,,,,,,,,,,,,,,,,,,
,,60cc20a8d1d940dcfa9df92d,2024-02-18_21h07.54.719,kallum_motion_pilot,2023.2.2,Win32,90.90909091,60cc20a8d1d940dcfa9df92d,65d2b6c8f2eece985d8e374c,65d2b7d3c67a654a5c71c23b,0.064,0.064,1,53,215,121,1,fiveseven,,,,,,,,,,,,,,,,,,,,,,,,,,,,,,,,,,,,,,,,,,,,,,,,,,,,,,,,,,,,,,,,,,,,,,,,,,,,,,,,,,,,,,,,,,,,,,,,,,,,,,,,,,,,,,,,,,,,,,,,,,,,,,,,,,,,,,,,,
,,60cc20a8d1d940dcfa9df92d,2024-02-18_21h07.54.719,kallum_motion_pilot,2023.2.2,Win32,90.90909091,60cc20a8d1d940dcfa9df92d,65d2b6c8f2eece985d8e374c,65d2b7d3c67a654a5c71c23b,0.064,0.064,1,54,216,147,1,sixeight,,,,,,,,,,,,,,,,,,,,,,,,,,,,,,,,,,,,,,,,,,,,,,,,,,,,,,,,,,,,,,,,,,,,,,,,,,,,,,,,,,,,,,,,,,,,,,,,,,,,,,,,,,,,,,,,,,,,,,,,,,,,,,,,,,,,,,,,,
,,60cc20a8d1d940dcfa9df92d,2024-02-18_21h07.54.719,kallum_motion_pilot,2023.2.2,Win32,90.90909091,60cc20a8d1d940dcfa9df92d,65d2b6c8f2eece985d8e374c,65d2b7d3c67a654a5c71c23b,0.064,0.064,1,55,217,109,1,seveneight,,,,,,,,,,,,,,,,,,,,,,,,,,,,,,,,,,,,,,,,,,,,,,,,,,,,,,,,,,,,,,,,,,,,,,,,,,,,,,,,,,,,,,,,,,,,,,,,,,,,,,,,,,,,,,,,,,,,,,,,,,,,,,,,,,,,,,,,,
,,60cc20a8d1d940dcfa9df92d,2024-02-18_21h07.54.719,kallum_motion_pilot,2023.2.2,Win32,90.90909091,60cc20a8d1d940dcfa9df92d,65d2b6c8f2eece985d8e374c,65d2b7d3c67a654a5c71c23b,0.064,0.064,1,56,218,105,1,fiveseven,,,,,,,,,,,,,,,,,,,,,,,,,,,,,,,,,,,,,,,,,,,,,,,,,,,,,,,,,,,,,,,,,,,,,,,,,,,,,,,,,,,,,,,,,,,,,,,,,,,,,,,,,,,,,,,,,,,,,,,,,,,,,,,,,,,,,,,,,
,,60cc20a8d1d940dcfa9df92d,2024-02-18_21h07.54.719,kallum_motion_pilot,2023.2.2,Win32,90.90909091,60cc20a8d1d940dcfa9df92d,65d2b6c8f2eece985d8e374c,65d2b7d3c67a654a5c71c23b,0.064,0.064,1,57,219,90,1,sixfive,,,,,,,,,,,,,,,,,,,,,,,,,,,,,,,,,,,,,,,,,,,,,,,,,,,,,,,,,,,,,,,,,,,,,,,,,,,,,,,,,,,,,,,,,,,,,,,,,,,,,,,,,,,,,,,,,,,,,,,,,,,,,,,,,,,,,,,,,
,,60cc20a8d1d940dcfa9df92d,2024-02-18_21h07.54.719,kallum_motion_pilot,2023.2.2,Win32,90.90909091,60cc20a8d1d940dcfa9df92d,65d2b6c8f2eece985d8e374c,65d2b7d3c67a654a5c71c23b,0.064,0.065,1,58,220,80,1,fivesix,,,,,,,,,,,,,,,,,,,,,,,,,,,,,,,,,,,,,,,,,,,,,,,,,,,,,,,,,,,,,,,,,,,,,,,,,,,,,,,,,,,,,,,,,,,,,,,,,,,,,,,,,,,,,,,,,,,,,,,,,,,,,,,,,,,,,,,,,
,,60cc20a8d1d940dcfa9df92d,2024-02-18_21h07.54.719,kallum_motion_pilot,2023.2.2,Win32,90.90909091,60cc20a8d1d940dcfa9df92d,65d2b6c8f2eece985d8e374c,65d2b7d3c67a654a5c71c23b,0.065,0.065,1,59,221,98,1,sixfive,,,,,,,,,,,,,,,,,,,,,,,,,,,,,,,,,,,,,,,,,,,,,,,,,,,,,,,,,,,,,,,,,,,,,,,,,,,,,,,,,,,,,,,,,,,,,,,,,,,,,,,,,,,,,,,,,,,,,,,,,,,,,,,,,,,,,,,,,
,,60cc20a8d1d940dcfa9df92d,2024-02-18_21h07.54.719,kallum_motion_pilot,2023.2.2,Win32,90.90909091,60cc20a8d1d940dcfa9df92d,65d2b6c8f2eece985d8e374c,65d2b7d3c67a654a5c71c23b,0.065,0.065,1,60,222,119,1,eightseven,,,,,,,,,,,,,,,,,,,,,,,,,,,,,,,,,,,,,,,,,,,,,,,,,,,,,,,,,,,,,,,,,,,,,,,,,,,,,,,,,,,,,,,,,,,,,,,,,,,,,,,,,,,,,,,,,,,,,,,,,,,,,,,,,,,,,,,,,
,,60cc20a8d1d940dcfa9df92d,2024-02-18_21h07.54.719,kallum_motion_pilot,2023.2.2,Win32,90.90909091,60cc20a8d1d940dcfa9df92d,65d2b6c8f2eece985d8e374c,65d2b7d3c67a654a5c71c23b,0.065,0.065,1,61,223,155,1,sixeight,,,,,,,,,,,,,,,,,,,,,,,,,,,,,,,,,,,,,,,,,,,,,,,,,,,,,,,,,,,,,,,,,,,,,,,,,,,,,,,,,,,,,,,,,,,,,,,,,,,,,,,,,,,,,,,,,,,,,,,,,,,,,,,,,,,,,,,,,
,,60cc20a8d1d940dcfa9df92d,2024-02-18_21h07.54.719,kallum_motion_pilot,2023.2.2,Win32,90.90909091,60cc20a8d1d940dcfa9df92d,65d2b6c8f2eece985d8e374c,65d2b7d3c67a654a5c71c23b,0.065,0.065,1,62,224,64,1,onetwo,,,,,,,,,,,,,,,,,,,,,,,,,,,,,,,,,,,,,,,,,,,,,,,,,,,,,,,,,,,,,,,,,,,,,,,,,,,,,,,,,,,,,,,,,,,,,,,,,,,,,,,,,,,,,,,,,,,,,,,,,,,,,,,,,,,,,,,,,
,,60cc20a8d1d940dcfa9df92d,2024-02-18_21h07.54.719,kallum_motion_pilot,2023.2.2,Win32,90.90909091,60cc20a8d1d940dcfa9df92d,65d2b6c8f2eece985d8e374c,65d2b7d3c67a654a5c71c23b,0.065,0.065,1,63,225,44,1,threeone,,,,,,,,,,,,,,,,,,,,,,,,,,,,,,,,,,,,,,,,,,,,,,,,,,,,,,,,,,,,,,,,,,,,,,,,,,,,,,,,,,,,,,,,,,,,,,,,,,,,,,,,,,,,,,,,,,,,,,,,,,,,,,,,,,,,,,,,,
,,60cc20a8d1d940dcfa9df92d,2024-02-18_21h07.54.719,kallum_motion_pilot,2023.2.2,Win32,90.90909091,60cc20a8d1d940dcfa9df92d,65d2b6c8f2eece985d8e374c,65d2b7d3c67a654a5c71c23b,0.065,0.065,1,64,226,76,1,threeone,,,,,,,,,,,,,,,,,,,,,,,,,,,,,,,,,,,,,,,,,,,,,,,,,,,,,,,,,,,,,,,,,,,,,,,,,,,,,,,,,,,,,,,,,,,,,,,,,,,,,,,,,,,,,,,,,,,,,,,,,,,,,,,,,,,,,,,,,
,,60cc20a8d1d940dcfa9df92d,2024-02-18_21h07.54.719,kallum_motion_pilot,2023.2.2,Win32,90.90909091,60cc20a8d1d940dcfa9df92d,65d2b6c8f2eece985d8e374c,65d2b7d3c67a654a5c71c23b,0.066,0.066,1,65,227,130,1,sixfive,,,,,,,,,,,,,,,,,,,,,,,,,,,,,,,,,,,,,,,,,,,,,,,,,,,,,,,,,,,,,,,,,,,,,,,,,,,,,,,,,,,,,,,,,,,,,,,,,,,,,,,,,,,,,,,,,,,,,,,,,,,,,,,,,,,,,,,,,
,,60cc20a8d1d940dcfa9df92d,2024-02-18_21h07.54.719,kallum_motion_pilot,2023.2.2,Win32,90.90909091,60cc20a8d1d940dcfa9df92d,65d2b6c8f2eece985d8e374c,65d2b7d3c67a654a5c71c23b,0.066,0.066,1,66,228,72,1,onetwo,,,,,,,,,,,,,,,,,,,,,,,,,,,,,,,,,,,,,,,,,,,,,,,,,,,,,,,,,,,,,,,,,,,,,,,,,,,,,,,,,,,,,,,,,,,,,,,,,,,,,,,,,,,,,,,,,,,,,,,,,,,,,,,,,,,,,,,,,
,,60cc20a8d1d940dcfa9df92d,2024-02-18_21h07.54.719,kallum_motion_pilot,2023.2.2,Win32,90.90909091,60cc20a8d1d940dcfa9df92d,65d2b6c8f2eece985d8e374c,65d2b7d3c67a654a5c71c23b,0.066,0.066,1,67,229,96,1,fivesix,,,,,,,,,,,,,,,,,,,,,,,,,,,,,,,,,,,,,,,,,,,,,,,,,,,,,,,,,,,,,,,,,,,,,,,,,,,,,,,,,,,,,,,,,,,,,,,,,,,,,,,,,,,,,,,,,,,,,,,,,,,,,,,,,,,,,,,,,
,,60cc20a8d1d940dcfa9df92d,2024-02-18_21h07.54.719,kallum_motion_pilot,2023.2.2,Win32,90.90909091,60cc20a8d1d940dcfa9df92d,65d2b6c8f2eece985d8e374c,65d2b7d3c67a654a5c71c23b,0.066,0.066,1,68,230,85,1,seveneight,,,,,,,,,,,,,,,,,,,,,,,,,,,,,,,,,,,,,,,,,,,,,,,,,,,,,,,,,,,,,,,,,,,,,,,,,,,,,,,,,,,,,,,,,,,,,,,,,,,,,,,,,,,,,,,,,,,,,,,,,,,,,,,,,,,,,,,,,
,,60cc20a8d1d940dcfa9df92d,2024-02-18_21h07.54.719,kallum_motion_pilot,2023.2.2,Win32,90.90909091,60cc20a8d1d940dcfa9df92d,65d2b6c8f2eece985d8e374c,65d2b7d3c67a654a5c71c23b,0.066,0.066,1,69,231,152,1,fivesix,,,,,,,,,,,,,,,,,,,,,,,,,,,,,,,,,,,,,,,,,,,,,,,,,,,,,,,,,,,,,,,,,,,,,,,,,,,,,,,,,,,,,,,,,,,,,,,,,,,,,,,,,,,,,,,,,,,,,,,,,,,,,,,,,,,,,,,,,
,,60cc20a8d1d940dcfa9df92d,2024-02-18_21h07.54.719,kallum_motion_pilot,2023.2.2,Win32,90.90909091,60cc20a8d1d940dcfa9df92d,65d2b6c8f2eece985d8e374c,65d2b7d3c67a654a5c71c23b,0.066,0.066,1,70,232,160,1,fivesix,,,,,,,,,,,,,,,,,,,,,,,,,,,,,,,,,,,,,,,,,,,,,,,,,,,,,,,,,,,,,,,,,,,,,,,,,,,,,,,,,,,,,,,,,,,,,,,,,,,,,,,,,,,,,,,,,,,,,,,,,,,,,,,,,,,,,,,,,
,,60cc20a8d1d940dcfa9df92d,2024-02-18_21h07.54.719,kallum_motion_pilot,2023.2.2,Win32,90.90909091,60cc20a8d1d940dcfa9df92d,65d2b6c8f2eece985d8e374c,65d2b7d3c67a654a5c71c23b,0.067,0.067,1,71,233,159,1,eightseven,,,,,,,,,,,,,,,,,,,,,,,,,,,,,,,,,,,,,,,,,,,,,,,,,,,,,,,,,,,,,,,,,,,,,,,,,,,,,,,,,,,,,,,,,,,,,,,,,,,,,,,,,,,,,,,,,,,,,,,,,,,,,,,,,,,,,,,,,
,,60cc20a8d1d940dcfa9df92d,2024-02-18_21h07.54.719,kallum_motion_pilot,2023.2.2,Win32,90.90909091,60cc20a8d1d940dcfa9df92d,65d2b6c8f2eece985d8e374c,65d2b7d3c67a654a5c71c23b,0.067,0.067,1,72,234,161,1,fiveseven,,,,,,,,,,,,,,,,,,,,,,,,,,,,,,,,,,,,,,,,,,,,,,,,,,,,,,,,,,,,,,,,,,,,,,,,,,,,,,,,,,,,,,,,,,,,,,,,,,,,,,,,,,,,,,,,,,,,,,,,,,,,,,,,,,,,,,,,,
,,60cc20a8d1d940dcfa9df92d,2024-02-18_21h07.54.719,kallum_motion_pilot,2023.2.2,Win32,90.90909091,60cc20a8d1d940dcfa9df92d,65d2b6c8f2eece985d8e374c,65d2b7d3c67a654a5c71c23b,0.067,0.067,1,73,235,104,1,fivesix,,,,,,,,,,,,,,,,,,,,,,,,,,,,,,,,,,,,,,,,,,,,,,,,,,,,,,,,,,,,,,,,,,,,,,,,,,,,,,,,,,,,,,,,,,,,,,,,,,,,,,,,,,,,,,,,,,,,,,,,,,,,,,,,,,,,,,,,,
,,60cc20a8d1d940dcfa9df92d,2024-02-18_21h07.54.719,kallum_motion_pilot,2023.2.2,Win32,90.90909091,60cc20a8d1d940dcfa9df92d,65d2b6c8f2eece985d8e374c,65d2b7d3c67a654a5c71c23b,0.067,0.067,1,74,236,28,1,threeone,,,,,,,,,,,,,,,,,,,,,,,,,,,,,,,,,,,,,,,,,,,,,,,,,,,,,,,,,,,,,,,,,,,,,,,,,,,,,,,,,,,,,,,,,,,,,,,,,,,,,,,,,,,,,,,,,,,,,,,,,,,,,,,,,,,,,,,,,
,,60cc20a8d1d940dcfa9df92d,2024-02-18_21h07.54.719,kallum_motion_pilot,2023.2.2,Win32,90.90909091,60cc20a8d1d940dcfa9df92d,65d2b6c8f2eece985d8e374c,65d2b7d3c67a654a5c71c23b,0.067,0.068,1,75,237,54,1,fourtwo,,,,,,,,,,,,,,,,,,,,,,,,,,,,,,,,,,,,,,,,,,,,,,,,,,,,,,,,,,,,,,,,,,,,,,,,,,,,,,,,,,,,,,,,,,,,,,,,,,,,,,,,,,,,,,,,,,,,,,,,,,,,,,,,,,,,,,,,,
,,60cc20a8d1d940dcfa9df92d,2024-02-18_21h07.54.719,kallum_motion_pilot,2023.2.2,Win32,90.90909091,60cc20a8d1d940dcfa9df92d,65d2b6c8f2eece985d8e374c,65d2b7d3c67a654a5c71c23b,0.068,0.068,1,76,238,25,1,onethree,,,,,,,,,,,,,,,,,,,,,,,,,,,,,,,,,,,,,,,,,,,,,,,,,,,,,,,,,,,,,,,,,,,,,,,,,,,,,,,,,,,,,,,,,,,,,,,,,,,,,,,,,,,,,,,,,,,,,,,,,,,,,,,,,,,,,,,,,
,,60cc20a8d1d940dcfa9df92d,2024-02-18_21h07.54.719,kallum_motion_pilot,2023.2.2,Win32,90.90909091,60cc20a8d1d940dcfa9df92d,65d2b6c8f2eece985d8e374c,65d2b7d3c67a654a5c71c23b,0.068,0.068,1,77,239,127,1,eightseven,,,,,,,,,,,,,,,,,,,,,,,,,,,,,,,,,,,,,,,,,,,,,,,,,,,,,,,,,,,,,,,,,,,,,,,,,,,,,,,,,,,,,,,,,,,,,,,,,,,,,,,,,,,,,,,,,,,,,,,,,,,,,,,,,,,,,,,,,
,,60cc20a8d1d940dcfa9df92d,2024-02-18_21h07.54.719,kallum_motion_pilot,2023.2.2,Win32,90.90909091,60cc20a8d1d940dcfa9df92d,65d2b6c8f2eece985d8e374c,65d2b7d3c67a654a5c71c23b,0.068,0.068,1,78,240,58,1,twoone,,,,,,,,,,,,,,,,,,,,,,,,,,,,,,,,,,,,,,,,,,,,,,,,,,,,,,,,,,,,,,,,,,,,,,,,,,,,,,,,,,,,,,,,,,,,,,,,,,,,,,,,,,,,,,,,,,,,,,,,,,,,,,,,,,,,,,,,,
,,60cc20a8d1d940dcfa9df92d,2024-02-18_21h07.54.719,kallum_motion_pilot,2023.2.2,Win32,90.90909091,60cc20a8d1d940dcfa9df92d,65d2b6c8f2eece985d8e374c,65d2b7d3c67a654a5c71c23b,0.068,0.068,1,79,241,84,1,sevenfive,,,,,,,,,,,,,,,,,,,,,,,,,,,,,,,,,,,,,,,,,,,,,,,,,,,,,,,,,,,,,,,,,,,,,,,,,,,,,,,,,,,,,,,,,,,,,,,,,,,,,,,,,,,,,,,,,,,,,,,,,,,,,,,,,,,,,,,,,
,,60cc20a8d1d940dcfa9df92d,2024-02-18_21h07.54.719,kallum_motion_pilot,2023.2.2,Win32,90.90909091,60cc20a8d1d940dcfa9df92d,65d2b6c8f2eece985d8e374c,65d2b7d3c67a654a5c71c23b,0.069,0.069,1,80,242,4,1,threeone,,,,,,,,,,,,,,,,,,,,,,,,,,,,,,,,,,,,,,,,,,,,,,,,,,,,,,,,,,,,,,,,,,,,,,,,,,,,,,,,,,,,,,,,,,,,,,,,,,,,,,,,,,,,,,,,,,,,,,,,,,,,,,,,,,,,,,,,,
,,60cc20a8d1d940dcfa9df92d,2024-02-18_21h07.54.719,kallum_motion_pilot,2023.2.2,Win32,90.90909091,60cc20a8d1d940dcfa9df92d,65d2b6c8f2eece985d8e374c,65d2b7d3c67a654a5c71c23b,0.069,0.069,1,81,243,114,1,sixfive,,,,,,,,,,,,,,,,,,,,,,,,,,,,,,,,,,,,,,,,,,,,,,,,,,,,,,,,,,,,,,,,,,,,,,,,,,,,,,,,,,,,,,,,,,,,,,,,,,,,,,,,,,,,,,,,,,,,,,,,,,,,,,,,,,,,,,,,,
,,60cc20a8d1d940dcfa9df92d,2024-02-18_21h07.54.719,kallum_motion_pilot,2023.2.2,Win32,90.90909091,60cc20a8d1d940dcfa9df92d,65d2b6c8f2eece985d8e374c,65d2b7d3c67a654a5c71c23b,0.069,0.07,1,82,244,140,1,sevenfive,,,,,,,,,,,,,,,,,,,,,,,,,,,,,,,,,,,,,,,,,,,,,,,,,,,,,,,,,,,,,,,,,,,,,,,,,,,,,,,,,,,,,,,,,,,,,,,,,,,,,,,,,,,,,,,,,,,,,,,,,,,,,,,,,,,,,,,,,
,,60cc20a8d1d940dcfa9df92d,2024-02-18_21h07.54.719,kallum_motion_pilot,2023.2.2,Win32,90.90909091,60cc20a8d1d940dcfa9df92d,65d2b6c8f2eece985d8e374c,65d2b7d3c67a654a5c71c23b,0.07,0.07,1,83,245,30,1,fourtwo,,,,,,,,,,,,,,,,,,,,,,,,,,,,,,,,,,,,,,,,,,,,,,,,,,,,,,,,,,,,,,,,,,,,,,,,,,,,,,,,,,,,,,,,,,,,,,,,,,,,,,,,,,,,,,,,,,,,,,,,,,,,,,,,,,,,,,,,,
,,60cc20a8d1d940dcfa9df92d,2024-02-18_21h07.54.719,kallum_motion_pilot,2023.2.2,Win32,90.90909091,60cc20a8d1d940dcfa9df92d,65d2b6c8f2eece985d8e374c,65d2b7d3c67a654a5c71c23b,0.07,0.07,1,84,246,69,1,threefour,,,,,,,,,,,,,,,,,,,,,,,,,,,,,,,,,,,,,,,,,,,,,,,,,,,,,,,,,,,,,,,,,,,,,,,,,,,,,,,,,,,,,,,,,,,,,,,,,,,,,,,,,,,,,,,,,,,,,,,,,,,,,,,,,,,,,,,,,
,,60cc20a8d1d940dcfa9df92d,2024-02-18_21h07.54.719,kallum_motion_pilot,2023.2.2,Win32,90.90909091,60cc20a8d1d940dcfa9df92d,65d2b6c8f2eece985d8e374c,65d2b7d3c67a654a5c71c23b,0.07,0.07,1,85,247,11,1,twofour,,,,,,,,,,,,,,,,,,,,,,,,,,,,,,,,,,,,,,,,,,,,,,,,,,,,,,,,,,,,,,,,,,,,,,,,,,,,,,,,,,,,,,,,,,,,,,,,,,,,,,,,,,,,,,,,,,,,,,,,,,,,,,,,,,,,,,,,,
,,60cc20a8d1d940dcfa9df92d,2024-02-18_21h07.54.719,kallum_motion_pilot,2023.2.2,Win32,90.90909091,60cc20a8d1d940dcfa9df92d,65d2b6c8f2eece985d8e374c,65d2b7d3c67a654a5c71c23b,0.07,0.07,1,86,248,15,1,fourthree,,,,,,,,,,,,,,,,,,,,,,,,,,,,,,,,,,,,,,,,,,,,,,,,,,,,,,,,,,,,,,,,,,,,,,,,,,,,,,,,,,,,,,,,,,,,,,,,,,,,,,,,,,,,,,,,,,,,,,,,,,,,,,,,,,,,,,,,,
,,60cc20a8d1d940dcfa9df92d,2024-02-18_21h07.54.719,kallum_motion_pilot,2023.2.2,Win32,90.90909091,60cc20a8d1d940dcfa9df92d,65d2b6c8f2eece985d8e374c,65d2b7d3c67a654a5c71c23b,0.07,0.07,1,87,249,132,1,sevenfive,,,,,,,,,,,,,,,,,,,,,,,,,,,,,,,,,,,,,,,,,,,,,,,,,,,,,,,,,,,,,,,,,,,,,,,,,,,,,,,,,,,,,,,,,,,,,,,,,,,,,,,,,,,,,,,,,,,,,,,,,,,,,,,,,,,,,,,,,
,,60cc20a8d1d940dcfa9df92d,2024-02-18_21h07.54.719,kallum_motion_pilot,2023.2.2,Win32,90.90909091,60cc20a8d1d940dcfa9df92d,65d2b6c8f2eece985d8e374c,65d2b7d3c67a654a5c71c23b,0.07,0.07,1,88,250,73,1,onethree,,,,,,,,,,,,,,,,,,,,,,,,,,,,,,,,,,,,,,,,,,,,,,,,,,,,,,,,,,,,,,,,,,,,,,,,,,,,,,,,,,,,,,,,,,,,,,,,,,,,,,,,,,,,,,,,,,,,,,,,,,,,,,,,,,,,,,,,,
,,60cc20a8d1d940dcfa9df92d,2024-02-18_21h07.54.719,kallum_motion_pilot,2023.2.2,Win32,90.90909091,60cc20a8d1d940dcfa9df92d,65d2b6c8f2eece985d8e374c,65d2b7d3c67a654a5c71c23b,0.07,0.07,1,89,251,154,1,sixfive,,,,,,,,,,,,,,,,,,,,,,,,,,,,,,,,,,,,,,,,,,,,,,,,,,,,,,,,,,,,,,,,,,,,,,,,,,,,,,,,,,,,,,,,,,,,,,,,,,,,,,,,,,,,,,,,,,,,,,,,,,,,,,,,,,,,,,,,,
,,60cc20a8d1d940dcfa9df92d,2024-02-18_21h07.54.719,kallum_motion_pilot,2023.2.2,Win32,90.90909091,60cc20a8d1d940dcfa9df92d,65d2b6c8f2eece985d8e374c,65d2b7d3c67a654a5c71c23b,0.071,0.071,1,90,252,50,1,twoone,,,,,,,,,,,,,,,,,,,,,,,,,,,,,,,,,,,,,,,,,,,,,,,,,,,,,,,,,,,,,,,,,,,,,,,,,,,,,,,,,,,,,,,,,,,,,,,,,,,,,,,,,,,,,,,,,,,,,,,,,,,,,,,,,,,,,,,,,
,,60cc20a8d1d940dcfa9df92d,2024-02-18_21h07.54.719,kallum_motion_pilot,2023.2.2,Win32,90.90909091,60cc20a8d1d940dcfa9df92d,65d2b6c8f2eece985d8e374c,65d2b7d3c67a654a5c71c23b,0.071,0.071,1,91,253,0,1,onetwo,,,,,,,,,,,,,,,,,,,,,,,,,,,,,,,,,,,,,,,,,,,,,,,,,,,,,,,,,,,,,,,,,,,,,,,,,,,,,,,,,,,,,,,,,,,,,,,,,,,,,,,,,,,,,,,,,,,,,,,,,,,,,,,,,,,,,,,,,
,,60cc20a8d1d940dcfa9df92d,2024-02-18_21h07.54.719,kallum_motion_pilot,2023.2.2,Win32,90.90909091,60cc20a8d1d940dcfa9df92d,65d2b6c8f2eece985d8e374c,65d2b7d3c67a654a5c71c23b,0.071,0.071,1,92,254,57,1,onethree,,,,,,,,,,,,,,,,,,,,,,,,,,,,,,,,,,,,,,,,,,,,,,,,,,,,,,,,,,,,,,,,,,,,,,,,,,,,,,,,,,,,,,,,,,,,,,,,,,,,,,,,,,,,,,,,,,,,,,,,,,,,,,,,,,,,,,,,,
,,60cc20a8d1d940dcfa9df92d,2024-02-18_21h07.54.719,kallum_motion_pilot,2023.2.2,Win32,90.90909091,60cc20a8d1d940dcfa9df92d,65d2b6c8f2eece985d8e374c,65d2b7d3c67a654a5c71c23b,0.071,0.071,1,93,255,67,1,twofour,,,,,,,,,,,,,,,,,,,,,,,,,,,,,,,,,,,,,,,,,,,,,,,,,,,,,,,,,,,,,,,,,,,,,,,,,,,,,,,,,,,,,,,,,,,,,,,,,,,,,,,,,,,,,,,,,,,,,,,,,,,,,,,,,,,,,,,,,
,,60cc20a8d1d940dcfa9df92d,2024-02-18_21h07.54.719,kallum_motion_pilot,2023.2.2,Win32,90.90909091,60cc20a8d1d940dcfa9df92d,65d2b6c8f2eece985d8e374c,65d2b7d3c67a654a5c71c23b,0.071,0.071,1,94,256,12,1,threeone,,,,,,,,,,,,,,,,,,,,,,,,,,,,,,,,,,,,,,,,,,,,,,,,,,,,,,,,,,,,,,,,,,,,,,,,,,,,,,,,,,,,,,,,,,,,,,,,,,,,,,,,,,,,,,,,,,,,,,,,,,,,,,,,,,,,,,,,,
,,60cc20a8d1d940dcfa9df92d,2024-02-18_21h07.54.719,kallum_motion_pilot,2023.2.2,Win32,90.90909091,60cc20a8d1d940dcfa9df92d,65d2b6c8f2eece985d8e374c,65d2b7d3c67a654a5c71c23b,0.072,0.072,1,95,257,87,1,eightseven,,,,,,,,,,,,,,,,,,,,,,,,,,,,,,,,,,,,,,,,,,,,,,,,,,,,,,,,,,,,,,,,,,,,,,,,,,,,,,,,,,,,,,,,,,,,,,,,,,,,,,,,,,,,,,,,,,,,,,,,,,,,,,,,,,,,,,,,,
,,60cc20a8d1d940dcfa9df92d,2024-02-18_21h07.54.719,kallum_motion_pilot,2023.2.2,Win32,90.90909091,60cc20a8d1d940dcfa9df92d,65d2b6c8f2eece985d8e374c,65d2b7d3c67a654a5c71c23b,0.072,0.072,1,96,258,106,1,sixfive,,,,,,,,,,,,,,,,,,,,,,,,,,,,,,,,,,,,,,,,,,,,,,,,,,,,,,,,,,,,,,,,,,,,,,,,,,,,,,,,,,,,,,,,,,,,,,,,,,,,,,,,,,,,,,,,,,,,,,,,,,,,,,,,,,,,,,,,,
,,60cc20a8d1d940dcfa9df92d,2024-02-18_21h07.54.719,kallum_motion_pilot,2023.2.2,Win32,90.90909091,60cc20a8d1d940dcfa9df92d,65d2b6c8f2eece985d8e374c,65d2b7d3c67a654a5c71c23b,0.072,0.072,1,97,259,136,1,fivesix,,,,,,,,,,,,,,,,,,,,,,,,,,,,,,,,,,,,,,,,,,,,,,,,,,,,,,,,,,,,,,,,,,,,,,,,,,,,,,,,,,,,,,,,,,,,,,,,,,,,,,,,,,,,,,,,,,,,,,,,,,,,,,,,,,,,,,,,,
,,60cc20a8d1d940dcfa9df92d,2024-02-18_21h07.54.719,kallum_motion_pilot,2023.2.2,Win32,90.90909091,60cc20a8d1d940dcfa9df92d,65d2b6c8f2eece985d8e374c,65d2b7d3c67a654a5c71c23b,0.072,0.072,1,98,260,153,1,fiveseven,,,,,,,,,,,,,,,,,,,,,,,,,,,,,,,,,,,,,,,,,,,,,,,,,,,,,,,,,,,,,,,,,,,,,,,,,,,,,,,,,,,,,,,,,,,,,,,,,,,,,,,,,,,,,,,,,,,,,,,,,,,,,,,,,,,,,,,,,
,,60cc20a8d1d940dcfa9df92d,2024-02-18_21h07.54.719,kallum_motion_pilot,2023.2.2,Win32,90.90909091,60cc20a8d1d940dcfa9df92d,65d2b6c8f2eece985d8e374c,65d2b7d3c67a654a5c71c23b,0.072,0.072,1,99,261,120,1,fivesix,,,,,,,,,,,,,,,,,,,,,,,,,,,,,,,,,,,,,,,,,,,,,,,,,,,,,,,,,,,,,,,,,,,,,,,,,,,,,,,,,,,,,,,,,,,,,,,,,,,,,,,,,,,,,,,,,,,,,,,,,,,,,,,,,,,,,,,,,
,,60cc20a8d1d940dcfa9df92d,2024-02-18_21h07.54.719,kallum_motion_pilot,2023.2.2,Win32,90.90909091,60cc20a8d1d940dcfa9df92d,65d2b6c8f2eece985d8e374c,65d2b7d3c67a654a5c71c23b,0.072,0.072,1,100,262,63,1,fourthree,,,,,,,,,,,,,,,,,,,,,,,,,,,,,,,,,,,,,,,,,,,,,,,,,,,,,,,,,,,,,,,,,,,,,,,,,,,,,,,,,,,,,,,,,,,,,,,,,,,,,,,,,,,,,,,,,,,,,,,,,,,,,,,,,,,,,,,,,
,,60cc20a8d1d940dcfa9df92d,2024-02-18_21h07.54.719,kallum_motion_pilot,2023.2.2,Win32,90.90909091,60cc20a8d1d940dcfa9df92d,65d2b6c8f2eece985d8e374c,65d2b7d3c67a654a5c71c23b,0.073,0.073,1,101,263,61,1,threefour,,,,,,,,,,,,,,,,,,,,,,,,,,,,,,,,,,,,,,,,,,,,,,,,,,,,,,,,,,,,,,,,,,,,,,,,,,,,,,,,,,,,,,,,,,,,,,,,,,,,,,,,,,,,,,,,,,,,,,,,,,,,,,,,,,,,,,,,,
,,60cc20a8d1d940dcfa9df92d,2024-02-18_21h07.54.719,kallum_motion_pilot,2023.2.2,Win32,90.90909091,60cc20a8d1d940dcfa9df92d,65d2b6c8f2eece985d8e374c,65d2b7d3c67a654a5c71c23b,0.073,0.073,1,102,264,75,1,twofour,,,,,,,,,,,,,,,,,,,,,,,,,,,,,,,,,,,,,,,,,,,,,,,,,,,,,,,,,,,,,,,,,,,,,,,,,,,,,,,,,,,,,,,,,,,,,,,,,,,,,,,,,,,,,,,,,,,,,,,,,,,,,,,,,,,,,,,,,
,,60cc20a8d1d940dcfa9df92d,2024-02-18_21h07.54.719,kallum_motion_pilot,2023.2.2,Win32,90.90909091,60cc20a8d1d940dcfa9df92d,65d2b6c8f2eece985d8e374c,65d2b7d3c67a654a5c71c23b,0.073,0.073,1,103,265,9,1,onethree,,,,,,,,,,,,,,,,,,,,,,,,,,,,,,,,,,,,,,,,,,,,,,,,,,,,,,,,,,,,,,,,,,,,,,,,,,,,,,,,,,,,,,,,,,,,,,,,,,,,,,,,,,,,,,,,,,,,,,,,,,,,,,,,,,,,,,,,,
,,60cc20a8d1d940dcfa9df92d,2024-02-18_21h07.54.719,kallum_motion_pilot,2023.2.2,Win32,90.90909091,60cc20a8d1d940dcfa9df92d,65d2b6c8f2eece985d8e374c,65d2b7d3c67a654a5c71c23b,0.073,0.073,1,104,266,77,1,threefour,,,,,,,,,,,,,,,,,,,,,,,,,,,,,,,,,,,,,,,,,,,,,,,,,,,,,,,,,,,,,,,,,,,,,,,,,,,,,,,,,,,,,,,,,,,,,,,,,,,,,,,,,,,,,,,,,,,,,,,,,,,,,,,,,,,,,,,,,
,,60cc20a8d1d940dcfa9df92d,2024-02-18_21h07.54.719,kallum_motion_pilot,2023.2.2,Win32,90.90909091,60cc20a8d1d940dcfa9df92d,65d2b6c8f2eece985d8e374c,65d2b7d3c67a654a5c71c23b,0.073,0.073,1,105,267,139,1,sixeight,,,,,,,,,,,,,,,,,,,,,,,,,,,,,,,,,,,,,,,,,,,,,,,,,,,,,,,,,,,,,,,,,,,,,,,,,,,,,,,,,,,,,,,,,,,,,,,,,,,,,,,,,,,,,,,,,,,,,,,,,,,,,,,,,,,,,,,,,
,,60cc20a8d1d940dcfa9df92d,2024-02-18_21h07.54.719,kallum_motion_pilot,2023.2.2,Win32,90.90909091,60cc20a8d1d940dcfa9df92d,65d2b6c8f2eece985d8e374c,65d2b7d3c67a654a5c71c23b,0.074,0.074,1,106,268,43,1,twofour,,,,,,,,,,,,,,,,,,,,,,,,,,,,,,,,,,,,,,,,,,,,,,,,,,,,,,,,,,,,,,,,,,,,,,,,,,,,,,,,,,,,,,,,,,,,,,,,,,,,,,,,,,,,,,,,,,,,,,,,,,,,,,,,,,,,,,,,,
,,60cc20a8d1d940dcfa9df92d,2024-02-18_21h07.54.719,kallum_motion_pilot,2023.2.2,Win32,90.90909091,60cc20a8d1d940dcfa9df92d,65d2b6c8f2eece985d8e374c,65d2b7d3c67a654a5c71c23b,0.074,0.074,1,107,269,65,1,onethree,,,,,,,,,,,,,,,,,,,,,,,,,,,,,,,,,,,,,,,,,,,,,,,,,,,,,,,,,,,,,,,,,,,,,,,,,,,,,,,,,,,,,,,,,,,,,,,,,,,,,,,,,,,,,,,,,,,,,,,,,,,,,,,,,,,,,,,,,
,,60cc20a8d1d940dcfa9df92d,2024-02-18_21h07.54.719,kallum_motion_pilot,2023.2.2,Win32,90.90909091,60cc20a8d1d940dcfa9df92d,65d2b6c8f2eece985d8e374c,65d2b7d3c67a654a5c71c23b,0.075,0.075,1,108,270,142,1,eightsix,,,,,,,,,,,,,,,,,,,,,,,,,,,,,,,,,,,,,,,,,,,,,,,,,,,,,,,,,,,,,,,,,,,,,,,,,,,,,,,,,,,,,,,,,,,,,,,,,,,,,,,,,,,,,,,,,,,,,,,,,,,,,,,,,,,,,,,,,
,,60cc20a8d1d940dcfa9df92d,2024-02-18_21h07.54.719,kallum_motion_pilot,2023.2.2,Win32,90.90909091,60cc20a8d1d940dcfa9df92d,65d2b6c8f2eece985d8e374c,65d2b7d3c67a654a5c71c23b,0.075,0.075,1,109,271,93,1,seveneight,,,,,,,,,,,,,,,,,,,,,,,,,,,,,,,,,,,,,,,,,,,,,,,,,,,,,,,,,,,,,,,,,,,,,,,,,,,,,,,,,,,,,,,,,,,,,,,,,,,,,,,,,,,,,,,,,,,,,,,,,,,,,,,,,,,,,,,,,
,,60cc20a8d1d940dcfa9df92d,2024-02-18_21h07.54.719,kallum_motion_pilot,2023.2.2,Win32,90.90909091,60cc20a8d1d940dcfa9df92d,65d2b6c8f2eece985d8e374c,65d2b7d3c67a654a5c71c23b,0.076,0.076,1,110,272,122,1,sixfive,,,,,,,,,,,,,,,,,,,,,,,,,,,,,,,,,,,,,,,,,,,,,,,,,,,,,,,,,,,,,,,,,,,,,,,,,,,,,,,,,,,,,,,,,,,,,,,,,,,,,,,,,,,,,,,,,,,,,,,,,,,,,,,,,,,,,,,,,
,,60cc20a8d1d940dcfa9df92d,2024-02-18_21h07.54.719,kallum_motion_pilot,2023.2.2,Win32,90.90909091,60cc20a8d1d940dcfa9df92d,65d2b6c8f2eece985d8e374c,65d2b7d3c67a654a5c71c23b,0.077,0.077,1,111,273,74,1,twoone,,,,,,,,,,,,,,,,,,,,,,,,,,,,,,,,,,,,,,,,,,,,,,,,,,,,,,,,,,,,,,,,,,,,,,,,,,,,,,,,,,,,,,,,,,,,,,,,,,,,,,,,,,,,,,,,,,,,,,,,,,,,,,,,,,,,,,,,,
,,60cc20a8d1d940dcfa9df92d,2024-02-18_21h07.54.719,kallum_motion_pilot,2023.2.2,Win32,90.90909091,60cc20a8d1d940dcfa9df92d,65d2b6c8f2eece985d8e374c,65d2b7d3c67a654a5c71c23b,0.077,0.077,1,112,274,62,1,fourtwo,,,,,,,,,,,,,,,,,,,,,,,,,,,,,,,,,,,,,,,,,,,,,,,,,,,,,,,,,,,,,,,,,,,,,,,,,,,,,,,,,,,,,,,,,,,,,,,,,,,,,,,,,,,,,,,,,,,,,,,,,,,,,,,,,,,,,,,,,
,,60cc20a8d1d940dcfa9df92d,2024-02-18_21h07.54.719,kallum_motion_pilot,2023.2.2,Win32,90.90909091,60cc20a8d1d940dcfa9df92d,65d2b6c8f2eece985d8e374c,65d2b7d3c67a654a5c71c23b,0.077,0.078,1,113,275,101,1,seveneight,,,,,,,,,,,,,,,,,,,,,,,,,,,,,,,,,,,,,,,,,,,,,,,,,,,,,,,,,,,,,,,,,,,,,,,,,,,,,,,,,,,,,,,,,,,,,,,,,,,,,,,,,,,,,,,,,,,,,,,,,,,,,,,,,,,,,,,,,
,,60cc20a8d1d940dcfa9df92d,2024-02-18_21h07.54.719,kallum_motion_pilot,2023.2.2,Win32,90.90909091,60cc20a8d1d940dcfa9df92d,65d2b6c8f2eece985d8e374c,65d2b7d3c67a654a5c71c23b,0.078,0.078,1,114,276,148,1,sevenfive,,,,,,,,,,,,,,,,,,,,,,,,,,,,,,,,,,,,,,,,,,,,,,,,,,,,,,,,,,,,,,,,,,,,,,,,,,,,,,,,,,,,,,,,,,,,,,,,,,,,,,,,,,,,,,,,,,,,,,,,,,,,,,,,,,,,,,,,,
,,60cc20a8d1d940dcfa9df92d,2024-02-18_21h07.54.719,kallum_motion_pilot,2023.2.2,Win32,90.90909091,60cc20a8d1d940dcfa9df92d,65d2b6c8f2eece985d8e374c,65d2b7d3c67a654a5c71c23b,0.079,0.079,1,115,277,100,1,sevenfive,,,,,,,,,,,,,,,,,,,,,,,,,,,,,,,,,,,,,,,,,,,,,,,,,,,,,,,,,,,,,,,,,,,,,,,,,,,,,,,,,,,,,,,,,,,,,,,,,,,,,,,,,,,,,,,,,,,,,,,,,,,,,,,,,,,,,,,,,
,,60cc20a8d1d940dcfa9df92d,2024-02-18_21h07.54.719,kallum_motion_pilot,2023.2.2,Win32,90.90909091,60cc20a8d1d940dcfa9df92d,65d2b6c8f2eece985d8e374c,65d2b7d3c67a654a5c71c23b,0.079,0.079,1,116,278,45,1,threefour,,,,,,,,,,,,,,,,,,,,,,,,,,,,,,,,,,,,,,,,,,,,,,,,,,,,,,,,,,,,,,,,,,,,,,,,,,,,,,,,,,,,,,,,,,,,,,,,,,,,,,,,,,,,,,,,,,,,,,,,,,,,,,,,,,,,,,,,,
,,60cc20a8d1d940dcfa9df92d,2024-02-18_21h07.54.719,kallum_motion_pilot,2023.2.2,Win32,90.90909091,60cc20a8d1d940dcfa9df92d,65d2b6c8f2eece985d8e374c,65d2b7d3c67a654a5c71c23b,0.079,0.079,1,117,279,17,1,onethree,,,,,,,,,,,,,,,,,,,,,,,,,,,,,,,,,,,,,,,,,,,,,,,,,,,,,,,,,,,,,,,,,,,,,,,,,,,,,,,,,,,,,,,,,,,,,,,,,,,,,,,,,,,,,,,,,,,,,,,,,,,,,,,,,,,,,,,,,
