startup.started,startup.stopped,Prolific ID*,date,expName,psychopyVersion,OS,frameRate,participant,study_id,session,stimpositions.started,stimpositions.stopped,hardcoded_stimulus_positions.thisRepN,hardcoded_stimulus_positions.thisTrialN,hardcoded_stimulus_positions.thisN,hardcoded_stimulus_positions.thisIndex,hardcoded_stimulus_positions.ran,StimulusPos,stimorientation.started,stimorientation.stopped,prac_stimorientation_import_loop.thisRepN,prac_stimorientation_import_loop.thisTrialN,prac_stimorientation_import_loop.thisN,prac_stimorientation_import_loop.thisIndex,prac_stimorientation_import_loop.ran,Stimorientation,welcome_instr.started,welcome_instr.stopped,key_resp.keys,key_resp.rt,key_resp.duration,response_steppedout_1.started,response_steppedout_1.stopped,key_resp_20.keys,key_resp_20.rt,key_resp_20.duration,response_steppedout_2.started,response_steppedout_2.stopped,key_resp_19.keys,key_resp_19.rt,key_resp_19.duration,stim_response_instr.started,stim_response_instr.stopped,key_resp_15.keys,key_resp_15.rt,key_resp_15.duration,direction_instr_2.started,direction_instr_2.stopped,key_resp_9.keys,key_resp_9.rt,key_resp_9.duration,instr_prac.started,instr_prac.stopped,key_resp_10.keys,key_resp_10.rt,key_resp_10.duration,Stim1_display_prac.started,Stim1_display_prac.stopped,Ecc,Circle1_ori,Circle2_ori,response_prac.started,similarity,response_time,response_prac.stopped,mouse_5.x,mouse_5.y,mouse_5.leftButton,mouse_5.midButton,mouse_5.rightButton,mouse_5.clicked_name,responseprac_feedback.started,responseprac_feedback.stopped,summary2_prac.started,summary2_prac.stopped,mouse_6.x,mouse_6.y,mouse_6.leftButton,mouse_6.midButton,mouse_6.rightButton,mouse_6.clicked_name,duringprac.thisRepN,duringprac.thisTrialN,duringprac.thisN,duringprac.thisIndex,duringprac.ran,begin.started,begin.stopped,key_resp_22.keys,key_resp_22.rt,key_resp_22.duration,Stim1_display.started,Stim1_display.stopped,circle1_ori,circle2_ori,circle1_SF,circle2_SF,response.started,response.stopped,mouse.x,mouse.y,mouse.leftButton,mouse.midButton,mouse.rightButton,mouse.clicked_name,trialnumber,double_pass.thisRepN,double_pass.thisTrialN,double_pass.thisN,double_pass.thisIndex,double_pass.ran,double_pass.order,main_trial.thisRepN,main_trial.thisTrialN,main_trial.thisN,main_trial.thisIndex,main_trial.ran,main_trial.order,Trial_Counter,Catch,Frequencies,response_2.started,response_2.stopped,mouse_2.x,mouse_2.y,mouse_2.leftButton,mouse_2.midButton,mouse_2.rightButton,mouse_2.clicked_name,special_trial.started,special_trial.stopped,catch_1.started,catch_1.stopped,mouse_3.x,mouse_3.y,mouse_3.leftButton,mouse_3.midButton,mouse_3.rightButton,catchresponse,catchnumber,response_time_catch,response_sum.started,response_sum.stopped,mouse_11.x,mouse_11.y,mouse_11.leftButton,mouse_11.midButton,mouse_11.rightButton,flip_presentation_sequence_for_double_pass.started,flip_presentation_sequence_for_double_pass.stopped,goodbye.started,goodbye.stopped,key_resp_3.keys,key_resp_3.rt,key_resp_3.duration
0.0051,0.0055,60e0fc6ba2a0b43c2e64fefb,2024-02-19_04h09.35.252,kallum_motion_pilot,2023.2.2,Win32,59.52380952,60e0fc6ba2a0b43c2e64fefb,65d2b6c8f2eece985d8e374c,65d2b81f17fc4d337441e430,,,,,,,,,,,,,,,,,,,,,,,,,,,,,,,,,,,,,,,,,,,,,,,,,,,,,,,,,,,,,,,,,,,,,,,,,,,,,,,,,,,,,,,,,,,,,,,,,,,,,,,,,,,,,,,,,,,,,,,,,,,,,,,,,,,,,,,,,,,,,,,,,
,,60e0fc6ba2a0b43c2e64fefb,2024-02-19_04h09.35.252,kallum_motion_pilot,2023.2.2,Win32,59.52380952,60e0fc6ba2a0b43c2e64fefb,65d2b6c8f2eece985d8e374c,65d2b81f17fc4d337441e430,0.1139,0.1153,0,0,0,118,1,eightsix,,,,,,,,,,,,,,,,,,,,,,,,,,,,,,,,,,,,,,,,,,,,,,,,,,,,,,,,,,,,,,,,,,,,,,,,,,,,,,,,,,,,,,,,,,,,,,,,,,,,,,,,,,,,,,,,,,,,,,,,,,,,,,,,,,,,,,,,,
,,60e0fc6ba2a0b43c2e64fefb,2024-02-19_04h09.35.252,kallum_motion_pilot,2023.2.2,Win32,59.52380952,60e0fc6ba2a0b43c2e64fefb,65d2b6c8f2eece985d8e374c,65d2b81f17fc4d337441e430,0.1198,0.1207,0,1,1,148,1,sevenfive,,,,,,,,,,,,,,,,,,,,,,,,,,,,,,,,,,,,,,,,,,,,,,,,,,,,,,,,,,,,,,,,,,,,,,,,,,,,,,,,,,,,,,,,,,,,,,,,,,,,,,,,,,,,,,,,,,,,,,,,,,,,,,,,,,,,,,,,,
,,60e0fc6ba2a0b43c2e64fefb,2024-02-19_04h09.35.252,kallum_motion_pilot,2023.2.2,Win32,59.52380952,60e0fc6ba2a0b43c2e64fefb,65d2b6c8f2eece985d8e374c,65d2b81f17fc4d337441e430,0.122,0.1226,0,2,2,94,1,eightsix,,,,,,,,,,,,,,,,,,,,,,,,,,,,,,,,,,,,,,,,,,,,,,,,,,,,,,,,,,,,,,,,,,,,,,,,,,,,,,,,,,,,,,,,,,,,,,,,,,,,,,,,,,,,,,,,,,,,,,,,,,,,,,,,,,,,,,,,,
,,60e0fc6ba2a0b43c2e64fefb,2024-02-19_04h09.35.252,kallum_motion_pilot,2023.2.2,Win32,59.52380952,60e0fc6ba2a0b43c2e64fefb,65d2b6c8f2eece985d8e374c,65d2b81f17fc4d337441e430,0.1239,0.1245,0,3,3,8,1,onetwo,,,,,,,,,,,,,,,,,,,,,,,,,,,,,,,,,,,,,,,,,,,,,,,,,,,,,,,,,,,,,,,,,,,,,,,,,,,,,,,,,,,,,,,,,,,,,,,,,,,,,,,,,,,,,,,,,,,,,,,,,,,,,,,,,,,,,,,,,
,,60e0fc6ba2a0b43c2e64fefb,2024-02-19_04h09.35.252,kallum_motion_pilot,2023.2.2,Win32,59.52380952,60e0fc6ba2a0b43c2e64fefb,65d2b6c8f2eece985d8e374c,65d2b81f17fc4d337441e430,0.1258,0.1264,0,4,4,111,1,eightseven,,,,,,,,,,,,,,,,,,,,,,,,,,,,,,,,,,,,,,,,,,,,,,,,,,,,,,,,,,,,,,,,,,,,,,,,,,,,,,,,,,,,,,,,,,,,,,,,,,,,,,,,,,,,,,,,,,,,,,,,,,,,,,,,,,,,,,,,,
,,60e0fc6ba2a0b43c2e64fefb,2024-02-19_04h09.35.252,kallum_motion_pilot,2023.2.2,Win32,59.52380952,60e0fc6ba2a0b43c2e64fefb,65d2b6c8f2eece985d8e374c,65d2b81f17fc4d337441e430,0.1278,0.1284,0,5,5,60,1,threeone,,,,,,,,,,,,,,,,,,,,,,,,,,,,,,,,,,,,,,,,,,,,,,,,,,,,,,,,,,,,,,,,,,,,,,,,,,,,,,,,,,,,,,,,,,,,,,,,,,,,,,,,,,,,,,,,,,,,,,,,,,,,,,,,,,,,,,,,,
,,60e0fc6ba2a0b43c2e64fefb,2024-02-19_04h09.35.252,kallum_motion_pilot,2023.2.2,Win32,59.52380952,60e0fc6ba2a0b43c2e64fefb,65d2b6c8f2eece985d8e374c,65d2b81f17fc4d337441e430,0.1298,0.1305,0,6,6,19,1,twofour,,,,,,,,,,,,,,,,,,,,,,,,,,,,,,,,,,,,,,,,,,,,,,,,,,,,,,,,,,,,,,,,,,,,,,,,,,,,,,,,,,,,,,,,,,,,,,,,,,,,,,,,,,,,,,,,,,,,,,,,,,,,,,,,,,,,,,,,,
,,60e0fc6ba2a0b43c2e64fefb,2024-02-19_04h09.35.252,kallum_motion_pilot,2023.2.2,Win32,59.52380952,60e0fc6ba2a0b43c2e64fefb,65d2b6c8f2eece985d8e374c,65d2b81f17fc4d337441e430,0.1318,0.1326,0,7,7,151,1,eightseven,,,,,,,,,,,,,,,,,,,,,,,,,,,,,,,,,,,,,,,,,,,,,,,,,,,,,,,,,,,,,,,,,,,,,,,,,,,,,,,,,,,,,,,,,,,,,,,,,,,,,,,,,,,,,,,,,,,,,,,,,,,,,,,,,,,,,,,,,
,,60e0fc6ba2a0b43c2e64fefb,2024-02-19_04h09.35.252,kallum_motion_pilot,2023.2.2,Win32,59.52380952,60e0fc6ba2a0b43c2e64fefb,65d2b6c8f2eece985d8e374c,65d2b81f17fc4d337441e430,0.1341,0.1349,0,8,8,39,1,fourthree,,,,,,,,,,,,,,,,,,,,,,,,,,,,,,,,,,,,,,,,,,,,,,,,,,,,,,,,,,,,,,,,,,,,,,,,,,,,,,,,,,,,,,,,,,,,,,,,,,,,,,,,,,,,,,,,,,,,,,,,,,,,,,,,,,,,,,,,,
,,60e0fc6ba2a0b43c2e64fefb,2024-02-19_04h09.35.252,kallum_motion_pilot,2023.2.2,Win32,59.52380952,60e0fc6ba2a0b43c2e64fefb,65d2b6c8f2eece985d8e374c,65d2b81f17fc4d337441e430,0.1364,0.1368,0,9,9,141,1,seveneight,,,,,,,,,,,,,,,,,,,,,,,,,,,,,,,,,,,,,,,,,,,,,,,,,,,,,,,,,,,,,,,,,,,,,,,,,,,,,,,,,,,,,,,,,,,,,,,,,,,,,,,,,,,,,,,,,,,,,,,,,,,,,,,,,,,,,,,,,
,,60e0fc6ba2a0b43c2e64fefb,2024-02-19_04h09.35.252,kallum_motion_pilot,2023.2.2,Win32,59.52380952,60e0fc6ba2a0b43c2e64fefb,65d2b6c8f2eece985d8e374c,65d2b81f17fc4d337441e430,0.1378,0.1382,0,10,10,44,1,threeone,,,,,,,,,,,,,,,,,,,,,,,,,,,,,,,,,,,,,,,,,,,,,,,,,,,,,,,,,,,,,,,,,,,,,,,,,,,,,,,,,,,,,,,,,,,,,,,,,,,,,,,,,,,,,,,,,,,,,,,,,,,,,,,,,,,,,,,,,
,,60e0fc6ba2a0b43c2e64fefb,2024-02-19_04h09.35.252,kallum_motion_pilot,2023.2.2,Win32,59.52380952,60e0fc6ba2a0b43c2e64fefb,65d2b6c8f2eece985d8e374c,65d2b81f17fc4d337441e430,0.1389,0.1393,0,11,11,84,1,sevenfive,,,,,,,,,,,,,,,,,,,,,,,,,,,,,,,,,,,,,,,,,,,,,,,,,,,,,,,,,,,,,,,,,,,,,,,,,,,,,,,,,,,,,,,,,,,,,,,,,,,,,,,,,,,,,,,,,,,,,,,,,,,,,,,,,,,,,,,,,
,,60e0fc6ba2a0b43c2e64fefb,2024-02-19_04h09.35.252,kallum_motion_pilot,2023.2.2,Win32,59.52380952,60e0fc6ba2a0b43c2e64fefb,65d2b6c8f2eece985d8e374c,65d2b81f17fc4d337441e430,0.1399,0.1403,0,12,12,79,1,eightseven,,,,,,,,,,,,,,,,,,,,,,,,,,,,,,,,,,,,,,,,,,,,,,,,,,,,,,,,,,,,,,,,,,,,,,,,,,,,,,,,,,,,,,,,,,,,,,,,,,,,,,,,,,,,,,,,,,,,,,,,,,,,,,,,,,,,,,,,,
,,60e0fc6ba2a0b43c2e64fefb,2024-02-19_04h09.35.252,kallum_motion_pilot,2023.2.2,Win32,59.52380952,60e0fc6ba2a0b43c2e64fefb,65d2b6c8f2eece985d8e374c,65d2b81f17fc4d337441e430,0.1408,0.1412,0,13,13,55,1,fourthree,,,,,,,,,,,,,,,,,,,,,,,,,,,,,,,,,,,,,,,,,,,,,,,,,,,,,,,,,,,,,,,,,,,,,,,,,,,,,,,,,,,,,,,,,,,,,,,,,,,,,,,,,,,,,,,,,,,,,,,,,,,,,,,,,,,,,,,,,
,,60e0fc6ba2a0b43c2e64fefb,2024-02-19_04h09.35.252,kallum_motion_pilot,2023.2.2,Win32,59.52380952,60e0fc6ba2a0b43c2e64fefb,65d2b6c8f2eece985d8e374c,65d2b81f17fc4d337441e430,0.1417,0.142,0,14,14,138,1,sixfive,,,,,,,,,,,,,,,,,,,,,,,,,,,,,,,,,,,,,,,,,,,,,,,,,,,,,,,,,,,,,,,,,,,,,,,,,,,,,,,,,,,,,,,,,,,,,,,,,,,,,,,,,,,,,,,,,,,,,,,,,,,,,,,,,,,,,,,,,
,,60e0fc6ba2a0b43c2e64fefb,2024-02-19_04h09.35.252,kallum_motion_pilot,2023.2.2,Win32,59.52380952,60e0fc6ba2a0b43c2e64fefb,65d2b6c8f2eece985d8e374c,65d2b81f17fc4d337441e430,0.1425,0.1429,0,15,15,50,1,twoone,,,,,,,,,,,,,,,,,,,,,,,,,,,,,,,,,,,,,,,,,,,,,,,,,,,,,,,,,,,,,,,,,,,,,,,,,,,,,,,,,,,,,,,,,,,,,,,,,,,,,,,,,,,,,,,,,,,,,,,,,,,,,,,,,,,,,,,,,
,,60e0fc6ba2a0b43c2e64fefb,2024-02-19_04h09.35.252,kallum_motion_pilot,2023.2.2,Win32,59.52380952,60e0fc6ba2a0b43c2e64fefb,65d2b6c8f2eece985d8e374c,65d2b81f17fc4d337441e430,0.1434,0.1439,0,16,16,16,1,onetwo,,,,,,,,,,,,,,,,,,,,,,,,,,,,,,,,,,,,,,,,,,,,,,,,,,,,,,,,,,,,,,,,,,,,,,,,,,,,,,,,,,,,,,,,,,,,,,,,,,,,,,,,,,,,,,,,,,,,,,,,,,,,,,,,,,,,,,,,,
,,60e0fc6ba2a0b43c2e64fefb,2024-02-19_04h09.35.252,kallum_motion_pilot,2023.2.2,Win32,59.52380952,60e0fc6ba2a0b43c2e64fefb,65d2b6c8f2eece985d8e374c,65d2b81f17fc4d337441e430,0.1444,0.1447,0,17,17,35,1,twofour,,,,,,,,,,,,,,,,,,,,,,,,,,,,,,,,,,,,,,,,,,,,,,,,,,,,,,,,,,,,,,,,,,,,,,,,,,,,,,,,,,,,,,,,,,,,,,,,,,,,,,,,,,,,,,,,,,,,,,,,,,,,,,,,,,,,,,,,,
,,60e0fc6ba2a0b43c2e64fefb,2024-02-19_04h09.35.252,kallum_motion_pilot,2023.2.2,Win32,59.52380952,60e0fc6ba2a0b43c2e64fefb,65d2b6c8f2eece985d8e374c,65d2b81f17fc4d337441e430,0.1457,0.1459,0,18,18,150,1,eightsix,,,,,,,,,,,,,,,,,,,,,,,,,,,,,,,,,,,,,,,,,,,,,,,,,,,,,,,,,,,,,,,,,,,,,,,,,,,,,,,,,,,,,,,,,,,,,,,,,,,,,,,,,,,,,,,,,,,,,,,,,,,,,,,,,,,,,,,,,
,,60e0fc6ba2a0b43c2e64fefb,2024-02-19_04h09.35.252,kallum_motion_pilot,2023.2.2,Win32,59.52380952,60e0fc6ba2a0b43c2e64fefb,65d2b6c8f2eece985d8e374c,65d2b81f17fc4d337441e430,0.1467,0.1471,0,19,19,73,1,onethree,,,,,,,,,,,,,,,,,,,,,,,,,,,,,,,,,,,,,,,,,,,,,,,,,,,,,,,,,,,,,,,,,,,,,,,,,,,,,,,,,,,,,,,,,,,,,,,,,,,,,,,,,,,,,,,,,,,,,,,,,,,,,,,,,,,,,,,,,
,,60e0fc6ba2a0b43c2e64fefb,2024-02-19_04h09.35.252,kallum_motion_pilot,2023.2.2,Win32,59.52380952,60e0fc6ba2a0b43c2e64fefb,65d2b6c8f2eece985d8e374c,65d2b81f17fc4d337441e430,0.1476,0.1481,0,20,20,117,1,seveneight,,,,,,,,,,,,,,,,,,,,,,,,,,,,,,,,,,,,,,,,,,,,,,,,,,,,,,,,,,,,,,,,,,,,,,,,,,,,,,,,,,,,,,,,,,,,,,,,,,,,,,,,,,,,,,,,,,,,,,,,,,,,,,,,,,,,,,,,,
,,60e0fc6ba2a0b43c2e64fefb,2024-02-19_04h09.35.252,kallum_motion_pilot,2023.2.2,Win32,59.52380952,60e0fc6ba2a0b43c2e64fefb,65d2b6c8f2eece985d8e374c,65d2b81f17fc4d337441e430,0.1486,0.149,0,21,21,93,1,seveneight,,,,,,,,,,,,,,,,,,,,,,,,,,,,,,,,,,,,,,,,,,,,,,,,,,,,,,,,,,,,,,,,,,,,,,,,,,,,,,,,,,,,,,,,,,,,,,,,,,,,,,,,,,,,,,,,,,,,,,,,,,,,,,,,,,,,,,,,,
,,60e0fc6ba2a0b43c2e64fefb,2024-02-19_04h09.35.252,kallum_motion_pilot,2023.2.2,Win32,59.52380952,60e0fc6ba2a0b43c2e64fefb,65d2b6c8f2eece985d8e374c,65d2b81f17fc4d337441e430,0.1494,0.1498,0,22,22,68,1,threeone,,,,,,,,,,,,,,,,,,,,,,,,,,,,,,,,,,,,,,,,,,,,,,,,,,,,,,,,,,,,,,,,,,,,,,,,,,,,,,,,,,,,,,,,,,,,,,,,,,,,,,,,,,,,,,,,,,,,,,,,,,,,,,,,,,,,,,,,,
,,60e0fc6ba2a0b43c2e64fefb,2024-02-19_04h09.35.252,kallum_motion_pilot,2023.2.2,Win32,59.52380952,60e0fc6ba2a0b43c2e64fefb,65d2b6c8f2eece985d8e374c,65d2b81f17fc4d337441e430,0.1503,0.1507,0,23,23,5,1,threefour,,,,,,,,,,,,,,,,,,,,,,,,,,,,,,,,,,,,,,,,,,,,,,,,,,,,,,,,,,,,,,,,,,,,,,,,,,,,,,,,,,,,,,,,,,,,,,,,,,,,,,,,,,,,,,,,,,,,,,,,,,,,,,,,,,,,,,,,,
,,60e0fc6ba2a0b43c2e64fefb,2024-02-19_04h09.35.252,kallum_motion_pilot,2023.2.2,Win32,59.52380952,60e0fc6ba2a0b43c2e64fefb,65d2b6c8f2eece985d8e374c,65d2b81f17fc4d337441e430,0.1515,0.1518,0,24,24,13,1,threefour,,,,,,,,,,,,,,,,,,,,,,,,,,,,,,,,,,,,,,,,,,,,,,,,,,,,,,,,,,,,,,,,,,,,,,,,,,,,,,,,,,,,,,,,,,,,,,,,,,,,,,,,,,,,,,,,,,,,,,,,,,,,,,,,,,,,,,,,,
,,60e0fc6ba2a0b43c2e64fefb,2024-02-19_04h09.35.252,kallum_motion_pilot,2023.2.2,Win32,59.52380952,60e0fc6ba2a0b43c2e64fefb,65d2b6c8f2eece985d8e374c,65d2b81f17fc4d337441e430,0.1533,0.1537,0,25,25,101,1,seveneight,,,,,,,,,,,,,,,,,,,,,,,,,,,,,,,,,,,,,,,,,,,,,,,,,,,,,,,,,,,,,,,,,,,,,,,,,,,,,,,,,,,,,,,,,,,,,,,,,,,,,,,,,,,,,,,,,,,,,,,,,,,,,,,,,,,,,,,,,
,,60e0fc6ba2a0b43c2e64fefb,2024-02-19_04h09.35.252,kallum_motion_pilot,2023.2.2,Win32,59.52380952,60e0fc6ba2a0b43c2e64fefb,65d2b6c8f2eece985d8e374c,65d2b81f17fc4d337441e430,0.1544,0.1548,0,26,26,95,1,eightseven,,,,,,,,,,,,,,,,,,,,,,,,,,,,,,,,,,,,,,,,,,,,,,,,,,,,,,,,,,,,,,,,,,,,,,,,,,,,,,,,,,,,,,,,,,,,,,,,,,,,,,,,,,,,,,,,,,,,,,,,,,,,,,,,,,,,,,,,,
,,60e0fc6ba2a0b43c2e64fefb,2024-02-19_04h09.35.252,kallum_motion_pilot,2023.2.2,Win32,59.52380952,60e0fc6ba2a0b43c2e64fefb,65d2b6c8f2eece985d8e374c,65d2b81f17fc4d337441e430,0.1554,0.1557,0,27,27,11,1,twofour,,,,,,,,,,,,,,,,,,,,,,,,,,,,,,,,,,,,,,,,,,,,,,,,,,,,,,,,,,,,,,,,,,,,,,,,,,,,,,,,,,,,,,,,,,,,,,,,,,,,,,,,,,,,,,,,,,,,,,,,,,,,,,,,,,,,,,,,,
,,60e0fc6ba2a0b43c2e64fefb,2024-02-19_04h09.35.252,kallum_motion_pilot,2023.2.2,Win32,59.52380952,60e0fc6ba2a0b43c2e64fefb,65d2b6c8f2eece985d8e374c,65d2b81f17fc4d337441e430,0.1562,0.1566,0,28,28,9,1,onethree,,,,,,,,,,,,,,,,,,,,,,,,,,,,,,,,,,,,,,,,,,,,,,,,,,,,,,,,,,,,,,,,,,,,,,,,,,,,,,,,,,,,,,,,,,,,,,,,,,,,,,,,,,,,,,,,,,,,,,,,,,,,,,,,,,,,,,,,,
,,60e0fc6ba2a0b43c2e64fefb,2024-02-19_04h09.35.252,kallum_motion_pilot,2023.2.2,Win32,59.52380952,60e0fc6ba2a0b43c2e64fefb,65d2b6c8f2eece985d8e374c,65d2b81f17fc4d337441e430,0.1571,0.1575,0,29,29,99,1,sixeight,,,,,,,,,,,,,,,,,,,,,,,,,,,,,,,,,,,,,,,,,,,,,,,,,,,,,,,,,,,,,,,,,,,,,,,,,,,,,,,,,,,,,,,,,,,,,,,,,,,,,,,,,,,,,,,,,,,,,,,,,,,,,,,,,,,,,,,,,
,,60e0fc6ba2a0b43c2e64fefb,2024-02-19_04h09.35.252,kallum_motion_pilot,2023.2.2,Win32,59.52380952,60e0fc6ba2a0b43c2e64fefb,65d2b6c8f2eece985d8e374c,65d2b81f17fc4d337441e430,0.158,0.1584,0,30,30,83,1,sixeight,,,,,,,,,,,,,,,,,,,,,,,,,,,,,,,,,,,,,,,,,,,,,,,,,,,,,,,,,,,,,,,,,,,,,,,,,,,,,,,,,,,,,,,,,,,,,,,,,,,,,,,,,,,,,,,,,,,,,,,,,,,,,,,,,,,,,,,,,
,,60e0fc6ba2a0b43c2e64fefb,2024-02-19_04h09.35.252,kallum_motion_pilot,2023.2.2,Win32,59.52380952,60e0fc6ba2a0b43c2e64fefb,65d2b6c8f2eece985d8e374c,65d2b81f17fc4d337441e430,0.1595,0.1599,0,31,31,114,1,sixfive,,,,,,,,,,,,,,,,,,,,,,,,,,,,,,,,,,,,,,,,,,,,,,,,,,,,,,,,,,,,,,,,,,,,,,,,,,,,,,,,,,,,,,,,,,,,,,,,,,,,,,,,,,,,,,,,,,,,,,,,,,,,,,,,,,,,,,,,,
,,60e0fc6ba2a0b43c2e64fefb,2024-02-19_04h09.35.252,kallum_motion_pilot,2023.2.2,Win32,59.52380952,60e0fc6ba2a0b43c2e64fefb,65d2b6c8f2eece985d8e374c,65d2b81f17fc4d337441e430,0.1606,0.161,0,32,32,46,1,fourtwo,,,,,,,,,,,,,,,,,,,,,,,,,,,,,,,,,,,,,,,,,,,,,,,,,,,,,,,,,,,,,,,,,,,,,,,,,,,,,,,,,,,,,,,,,,,,,,,,,,,,,,,,,,,,,,,,,,,,,,,,,,,,,,,,,,,,,,,,,
,,60e0fc6ba2a0b43c2e64fefb,2024-02-19_04h09.35.252,kallum_motion_pilot,2023.2.2,Win32,59.52380952,60e0fc6ba2a0b43c2e64fefb,65d2b6c8f2eece985d8e374c,65d2b81f17fc4d337441e430,0.1617,0.1621,0,33,33,103,1,eightseven,,,,,,,,,,,,,,,,,,,,,,,,,,,,,,,,,,,,,,,,,,,,,,,,,,,,,,,,,,,,,,,,,,,,,,,,,,,,,,,,,,,,,,,,,,,,,,,,,,,,,,,,,,,,,,,,,,,,,,,,,,,,,,,,,,,,,,,,,
,,60e0fc6ba2a0b43c2e64fefb,2024-02-19_04h09.35.252,kallum_motion_pilot,2023.2.2,Win32,59.52380952,60e0fc6ba2a0b43c2e64fefb,65d2b6c8f2eece985d8e374c,65d2b81f17fc4d337441e430,0.1628,0.1633,0,34,34,112,1,fivesix,,,,,,,,,,,,,,,,,,,,,,,,,,,,,,,,,,,,,,,,,,,,,,,,,,,,,,,,,,,,,,,,,,,,,,,,,,,,,,,,,,,,,,,,,,,,,,,,,,,,,,,,,,,,,,,,,,,,,,,,,,,,,,,,,,,,,,,,,
,,60e0fc6ba2a0b43c2e64fefb,2024-02-19_04h09.35.252,kallum_motion_pilot,2023.2.2,Win32,59.52380952,60e0fc6ba2a0b43c2e64fefb,65d2b6c8f2eece985d8e374c,65d2b81f17fc4d337441e430,0.1642,0.1644,0,35,35,82,1,sixfive,,,,,,,,,,,,,,,,,,,,,,,,,,,,,,,,,,,,,,,,,,,,,,,,,,,,,,,,,,,,,,,,,,,,,,,,,,,,,,,,,,,,,,,,,,,,,,,,,,,,,,,,,,,,,,,,,,,,,,,,,,,,,,,,,,,,,,,,,
,,60e0fc6ba2a0b43c2e64fefb,2024-02-19_04h09.35.252,kallum_motion_pilot,2023.2.2,Win32,59.52380952,60e0fc6ba2a0b43c2e64fefb,65d2b6c8f2eece985d8e374c,65d2b81f17fc4d337441e430,0.165,0.1653,0,36,36,41,1,onethree,,,,,,,,,,,,,,,,,,,,,,,,,,,,,,,,,,,,,,,,,,,,,,,,,,,,,,,,,,,,,,,,,,,,,,,,,,,,,,,,,,,,,,,,,,,,,,,,,,,,,,,,,,,,,,,,,,,,,,,,,,,,,,,,,,,,,,,,,
,,60e0fc6ba2a0b43c2e64fefb,2024-02-19_04h09.35.252,kallum_motion_pilot,2023.2.2,Win32,59.52380952,60e0fc6ba2a0b43c2e64fefb,65d2b6c8f2eece985d8e374c,65d2b81f17fc4d337441e430,0.1659,0.1661,0,37,37,18,1,twoone,,,,,,,,,,,,,,,,,,,,,,,,,,,,,,,,,,,,,,,,,,,,,,,,,,,,,,,,,,,,,,,,,,,,,,,,,,,,,,,,,,,,,,,,,,,,,,,,,,,,,,,,,,,,,,,,,,,,,,,,,,,,,,,,,,,,,,,,,
,,60e0fc6ba2a0b43c2e64fefb,2024-02-19_04h09.35.252,kallum_motion_pilot,2023.2.2,Win32,59.52380952,60e0fc6ba2a0b43c2e64fefb,65d2b6c8f2eece985d8e374c,65d2b81f17fc4d337441e430,0.1667,0.1669,0,38,38,156,1,sevenfive,,,,,,,,,,,,,,,,,,,,,,,,,,,,,,,,,,,,,,,,,,,,,,,,,,,,,,,,,,,,,,,,,,,,,,,,,,,,,,,,,,,,,,,,,,,,,,,,,,,,,,,,,,,,,,,,,,,,,,,,,,,,,,,,,,,,,,,,,
,,60e0fc6ba2a0b43c2e64fefb,2024-02-19_04h09.35.252,kallum_motion_pilot,2023.2.2,Win32,59.52380952,60e0fc6ba2a0b43c2e64fefb,65d2b6c8f2eece985d8e374c,65d2b81f17fc4d337441e430,0.1677,0.1679,0,39,39,63,1,fourthree,,,,,,,,,,,,,,,,,,,,,,,,,,,,,,,,,,,,,,,,,,,,,,,,,,,,,,,,,,,,,,,,,,,,,,,,,,,,,,,,,,,,,,,,,,,,,,,,,,,,,,,,,,,,,,,,,,,,,,,,,,,,,,,,,,,,,,,,,
,,60e0fc6ba2a0b43c2e64fefb,2024-02-19_04h09.35.252,kallum_motion_pilot,2023.2.2,Win32,59.52380952,60e0fc6ba2a0b43c2e64fefb,65d2b6c8f2eece985d8e374c,65d2b81f17fc4d337441e430,0.1684,0.1698,0,40,40,40,1,onetwo,,,,,,,,,,,,,,,,,,,,,,,,,,,,,,,,,,,,,,,,,,,,,,,,,,,,,,,,,,,,,,,,,,,,,,,,,,,,,,,,,,,,,,,,,,,,,,,,,,,,,,,,,,,,,,,,,,,,,,,,,,,,,,,,,,,,,,,,,
,,60e0fc6ba2a0b43c2e64fefb,2024-02-19_04h09.35.252,kallum_motion_pilot,2023.2.2,Win32,59.52380952,60e0fc6ba2a0b43c2e64fefb,65d2b6c8f2eece985d8e374c,65d2b81f17fc4d337441e430,0.1704,0.171,0,41,41,91,1,sixeight,,,,,,,,,,,,,,,,,,,,,,,,,,,,,,,,,,,,,,,,,,,,,,,,,,,,,,,,,,,,,,,,,,,,,,,,,,,,,,,,,,,,,,,,,,,,,,,,,,,,,,,,,,,,,,,,,,,,,,,,,,,,,,,,,,,,,,,,,
,,60e0fc6ba2a0b43c2e64fefb,2024-02-19_04h09.35.252,kallum_motion_pilot,2023.2.2,Win32,59.52380952,60e0fc6ba2a0b43c2e64fefb,65d2b6c8f2eece985d8e374c,65d2b81f17fc4d337441e430,0.1715,0.1718,0,42,42,119,1,eightseven,,,,,,,,,,,,,,,,,,,,,,,,,,,,,,,,,,,,,,,,,,,,,,,,,,,,,,,,,,,,,,,,,,,,,,,,,,,,,,,,,,,,,,,,,,,,,,,,,,,,,,,,,,,,,,,,,,,,,,,,,,,,,,,,,,,,,,,,,
,,60e0fc6ba2a0b43c2e64fefb,2024-02-19_04h09.35.252,kallum_motion_pilot,2023.2.2,Win32,59.52380952,60e0fc6ba2a0b43c2e64fefb,65d2b6c8f2eece985d8e374c,65d2b81f17fc4d337441e430,0.1724,0.1728,0,43,43,0,1,onetwo,,,,,,,,,,,,,,,,,,,,,,,,,,,,,,,,,,,,,,,,,,,,,,,,,,,,,,,,,,,,,,,,,,,,,,,,,,,,,,,,,,,,,,,,,,,,,,,,,,,,,,,,,,,,,,,,,,,,,,,,,,,,,,,,,,,,,,,,,
,,60e0fc6ba2a0b43c2e64fefb,2024-02-19_04h09.35.252,kallum_motion_pilot,2023.2.2,Win32,59.52380952,60e0fc6ba2a0b43c2e64fefb,65d2b6c8f2eece985d8e374c,65d2b81f17fc4d337441e430,0.1733,0.1737,0,44,44,104,1,fivesix,,,,,,,,,,,,,,,,,,,,,,,,,,,,,,,,,,,,,,,,,,,,,,,,,,,,,,,,,,,,,,,,,,,,,,,,,,,,,,,,,,,,,,,,,,,,,,,,,,,,,,,,,,,,,,,,,,,,,,,,,,,,,,,,,,,,,,,,,
,,60e0fc6ba2a0b43c2e64fefb,2024-02-19_04h09.35.252,kallum_motion_pilot,2023.2.2,Win32,59.52380952,60e0fc6ba2a0b43c2e64fefb,65d2b6c8f2eece985d8e374c,65d2b81f17fc4d337441e430,0.1742,0.1747,0,45,45,133,1,seveneight,,,,,,,,,,,,,,,,,,,,,,,,,,,,,,,,,,,,,,,,,,,,,,,,,,,,,,,,,,,,,,,,,,,,,,,,,,,,,,,,,,,,,,,,,,,,,,,,,,,,,,,,,,,,,,,,,,,,,,,,,,,,,,,,,,,,,,,,,
,,60e0fc6ba2a0b43c2e64fefb,2024-02-19_04h09.35.252,kallum_motion_pilot,2023.2.2,Win32,59.52380952,60e0fc6ba2a0b43c2e64fefb,65d2b6c8f2eece985d8e374c,65d2b81f17fc4d337441e430,0.1751,0.1756,0,46,46,30,1,fourtwo,,,,,,,,,,,,,,,,,,,,,,,,,,,,,,,,,,,,,,,,,,,,,,,,,,,,,,,,,,,,,,,,,,,,,,,,,,,,,,,,,,,,,,,,,,,,,,,,,,,,,,,,,,,,,,,,,,,,,,,,,,,,,,,,,,,,,,,,,
,,60e0fc6ba2a0b43c2e64fefb,2024-02-19_04h09.35.252,kallum_motion_pilot,2023.2.2,Win32,59.52380952,60e0fc6ba2a0b43c2e64fefb,65d2b6c8f2eece985d8e374c,65d2b81f17fc4d337441e430,0.176,0.1764,0,47,47,129,1,fiveseven,,,,,,,,,,,,,,,,,,,,,,,,,,,,,,,,,,,,,,,,,,,,,,,,,,,,,,,,,,,,,,,,,,,,,,,,,,,,,,,,,,,,,,,,,,,,,,,,,,,,,,,,,,,,,,,,,,,,,,,,,,,,,,,,,,,,,,,,,
,,60e0fc6ba2a0b43c2e64fefb,2024-02-19_04h09.35.252,kallum_motion_pilot,2023.2.2,Win32,59.52380952,60e0fc6ba2a0b43c2e64fefb,65d2b6c8f2eece985d8e374c,65d2b81f17fc4d337441e430,0.1769,0.1774,0,48,48,69,1,threefour,,,,,,,,,,,,,,,,,,,,,,,,,,,,,,,,,,,,,,,,,,,,,,,,,,,,,,,,,,,,,,,,,,,,,,,,,,,,,,,,,,,,,,,,,,,,,,,,,,,,,,,,,,,,,,,,,,,,,,,,,,,,,,,,,,,,,,,,,
,,60e0fc6ba2a0b43c2e64fefb,2024-02-19_04h09.35.252,kallum_motion_pilot,2023.2.2,Win32,59.52380952,60e0fc6ba2a0b43c2e64fefb,65d2b6c8f2eece985d8e374c,65d2b81f17fc4d337441e430,0.1779,0.1784,0,49,49,106,1,sixfive,,,,,,,,,,,,,,,,,,,,,,,,,,,,,,,,,,,,,,,,,,,,,,,,,,,,,,,,,,,,,,,,,,,,,,,,,,,,,,,,,,,,,,,,,,,,,,,,,,,,,,,,,,,,,,,,,,,,,,,,,,,,,,,,,,,,,,,,,
,,60e0fc6ba2a0b43c2e64fefb,2024-02-19_04h09.35.252,kallum_motion_pilot,2023.2.2,Win32,59.52380952,60e0fc6ba2a0b43c2e64fefb,65d2b6c8f2eece985d8e374c,65d2b81f17fc4d337441e430,0.1791,0.1795,0,50,50,36,1,threeone,,,,,,,,,,,,,,,,,,,,,,,,,,,,,,,,,,,,,,,,,,,,,,,,,,,,,,,,,,,,,,,,,,,,,,,,,,,,,,,,,,,,,,,,,,,,,,,,,,,,,,,,,,,,,,,,,,,,,,,,,,,,,,,,,,,,,,,,,
,,60e0fc6ba2a0b43c2e64fefb,2024-02-19_04h09.35.252,kallum_motion_pilot,2023.2.2,Win32,59.52380952,60e0fc6ba2a0b43c2e64fefb,65d2b6c8f2eece985d8e374c,65d2b81f17fc4d337441e430,0.1799,0.1804,0,51,51,29,1,threefour,,,,,,,,,,,,,,,,,,,,,,,,,,,,,,,,,,,,,,,,,,,,,,,,,,,,,,,,,,,,,,,,,,,,,,,,,,,,,,,,,,,,,,,,,,,,,,,,,,,,,,,,,,,,,,,,,,,,,,,,,,,,,,,,,,,,,,,,,
,,60e0fc6ba2a0b43c2e64fefb,2024-02-19_04h09.35.252,kallum_motion_pilot,2023.2.2,Win32,59.52380952,60e0fc6ba2a0b43c2e64fefb,65d2b6c8f2eece985d8e374c,65d2b81f17fc4d337441e430,0.1851,0.1858,0,52,52,66,1,twoone,,,,,,,,,,,,,,,,,,,,,,,,,,,,,,,,,,,,,,,,,,,,,,,,,,,,,,,,,,,,,,,,,,,,,,,,,,,,,,,,,,,,,,,,,,,,,,,,,,,,,,,,,,,,,,,,,,,,,,,,,,,,,,,,,,,,,,,,,
,,60e0fc6ba2a0b43c2e64fefb,2024-02-19_04h09.35.252,kallum_motion_pilot,2023.2.2,Win32,59.52380952,60e0fc6ba2a0b43c2e64fefb,65d2b6c8f2eece985d8e374c,65d2b81f17fc4d337441e430,0.1874,0.1876,0,53,53,17,1,onethree,,,,,,,,,,,,,,,,,,,,,,,,,,,,,,,,,,,,,,,,,,,,,,,,,,,,,,,,,,,,,,,,,,,,,,,,,,,,,,,,,,,,,,,,,,,,,,,,,,,,,,,,,,,,,,,,,,,,,,,,,,,,,,,,,,,,,,,,,
,,60e0fc6ba2a0b43c2e64fefb,2024-02-19_04h09.35.252,kallum_motion_pilot,2023.2.2,Win32,59.52380952,60e0fc6ba2a0b43c2e64fefb,65d2b6c8f2eece985d8e374c,65d2b81f17fc4d337441e430,0.1884,0.1888,0,54,54,109,1,seveneight,,,,,,,,,,,,,,,,,,,,,,,,,,,,,,,,,,,,,,,,,,,,,,,,,,,,,,,,,,,,,,,,,,,,,,,,,,,,,,,,,,,,,,,,,,,,,,,,,,,,,,,,,,,,,,,,,,,,,,,,,,,,,,,,,,,,,,,,,
,,60e0fc6ba2a0b43c2e64fefb,2024-02-19_04h09.35.252,kallum_motion_pilot,2023.2.2,Win32,59.52380952,60e0fc6ba2a0b43c2e64fefb,65d2b6c8f2eece985d8e374c,65d2b81f17fc4d337441e430,0.1893,0.1897,0,55,55,107,1,sixeight,,,,,,,,,,,,,,,,,,,,,,,,,,,,,,,,,,,,,,,,,,,,,,,,,,,,,,,,,,,,,,,,,,,,,,,,,,,,,,,,,,,,,,,,,,,,,,,,,,,,,,,,,,,,,,,,,,,,,,,,,,,,,,,,,,,,,,,,,
,,60e0fc6ba2a0b43c2e64fefb,2024-02-19_04h09.35.252,kallum_motion_pilot,2023.2.2,Win32,59.52380952,60e0fc6ba2a0b43c2e64fefb,65d2b6c8f2eece985d8e374c,65d2b81f17fc4d337441e430,0.1902,0.1907,0,56,56,51,1,twofour,,,,,,,,,,,,,,,,,,,,,,,,,,,,,,,,,,,,,,,,,,,,,,,,,,,,,,,,,,,,,,,,,,,,,,,,,,,,,,,,,,,,,,,,,,,,,,,,,,,,,,,,,,,,,,,,,,,,,,,,,,,,,,,,,,,,,,,,,
,,60e0fc6ba2a0b43c2e64fefb,2024-02-19_04h09.35.252,kallum_motion_pilot,2023.2.2,Win32,59.52380952,60e0fc6ba2a0b43c2e64fefb,65d2b6c8f2eece985d8e374c,65d2b81f17fc4d337441e430,0.1911,0.1917,0,57,57,7,1,fourthree,,,,,,,,,,,,,,,,,,,,,,,,,,,,,,,,,,,,,,,,,,,,,,,,,,,,,,,,,,,,,,,,,,,,,,,,,,,,,,,,,,,,,,,,,,,,,,,,,,,,,,,,,,,,,,,,,,,,,,,,,,,,,,,,,,,,,,,,,
,,60e0fc6ba2a0b43c2e64fefb,2024-02-19_04h09.35.252,kallum_motion_pilot,2023.2.2,Win32,59.52380952,60e0fc6ba2a0b43c2e64fefb,65d2b6c8f2eece985d8e374c,65d2b81f17fc4d337441e430,0.1923,0.1927,0,58,58,32,1,onetwo,,,,,,,,,,,,,,,,,,,,,,,,,,,,,,,,,,,,,,,,,,,,,,,,,,,,,,,,,,,,,,,,,,,,,,,,,,,,,,,,,,,,,,,,,,,,,,,,,,,,,,,,,,,,,,,,,,,,,,,,,,,,,,,,,,,,,,,,,
,,60e0fc6ba2a0b43c2e64fefb,2024-02-19_04h09.35.252,kallum_motion_pilot,2023.2.2,Win32,59.52380952,60e0fc6ba2a0b43c2e64fefb,65d2b6c8f2eece985d8e374c,65d2b81f17fc4d337441e430,0.1932,0.1937,0,59,59,45,1,threefour,,,,,,,,,,,,,,,,,,,,,,,,,,,,,,,,,,,,,,,,,,,,,,,,,,,,,,,,,,,,,,,,,,,,,,,,,,,,,,,,,,,,,,,,,,,,,,,,,,,,,,,,,,,,,,,,,,,,,,,,,,,,,,,,,,,,,,,,,
,,60e0fc6ba2a0b43c2e64fefb,2024-02-19_04h09.35.252,kallum_motion_pilot,2023.2.2,Win32,59.52380952,60e0fc6ba2a0b43c2e64fefb,65d2b6c8f2eece985d8e374c,65d2b81f17fc4d337441e430,0.1942,0.1947,0,60,60,48,1,onetwo,,,,,,,,,,,,,,,,,,,,,,,,,,,,,,,,,,,,,,,,,,,,,,,,,,,,,,,,,,,,,,,,,,,,,,,,,,,,,,,,,,,,,,,,,,,,,,,,,,,,,,,,,,,,,,,,,,,,,,,,,,,,,,,,,,,,,,,,,
,,60e0fc6ba2a0b43c2e64fefb,2024-02-19_04h09.35.252,kallum_motion_pilot,2023.2.2,Win32,59.52380952,60e0fc6ba2a0b43c2e64fefb,65d2b6c8f2eece985d8e374c,65d2b81f17fc4d337441e430,0.1953,0.1957,0,61,61,87,1,eightseven,,,,,,,,,,,,,,,,,,,,,,,,,,,,,,,,,,,,,,,,,,,,,,,,,,,,,,,,,,,,,,,,,,,,,,,,,,,,,,,,,,,,,,,,,,,,,,,,,,,,,,,,,,,,,,,,,,,,,,,,,,,,,,,,,,,,,,,,,
,,60e0fc6ba2a0b43c2e64fefb,2024-02-19_04h09.35.252,kallum_motion_pilot,2023.2.2,Win32,59.52380952,60e0fc6ba2a0b43c2e64fefb,65d2b6c8f2eece985d8e374c,65d2b81f17fc4d337441e430,0.1962,0.1974,0,62,62,98,1,sixfive,,,,,,,,,,,,,,,,,,,,,,,,,,,,,,,,,,,,,,,,,,,,,,,,,,,,,,,,,,,,,,,,,,,,,,,,,,,,,,,,,,,,,,,,,,,,,,,,,,,,,,,,,,,,,,,,,,,,,,,,,,,,,,,,,,,,,,,,,
,,60e0fc6ba2a0b43c2e64fefb,2024-02-19_04h09.35.252,kallum_motion_pilot,2023.2.2,Win32,59.52380952,60e0fc6ba2a0b43c2e64fefb,65d2b6c8f2eece985d8e374c,65d2b81f17fc4d337441e430,0.1988,0.1995,0,63,63,28,1,threeone,,,,,,,,,,,,,,,,,,,,,,,,,,,,,,,,,,,,,,,,,,,,,,,,,,,,,,,,,,,,,,,,,,,,,,,,,,,,,,,,,,,,,,,,,,,,,,,,,,,,,,,,,,,,,,,,,,,,,,,,,,,,,,,,,,,,,,,,,
,,60e0fc6ba2a0b43c2e64fefb,2024-02-19_04h09.35.252,kallum_motion_pilot,2023.2.2,Win32,59.52380952,60e0fc6ba2a0b43c2e64fefb,65d2b6c8f2eece985d8e374c,65d2b81f17fc4d337441e430,0.2006,0.2014,0,64,64,161,1,fiveseven,,,,,,,,,,,,,,,,,,,,,,,,,,,,,,,,,,,,,,,,,,,,,,,,,,,,,,,,,,,,,,,,,,,,,,,,,,,,,,,,,,,,,,,,,,,,,,,,,,,,,,,,,,,,,,,,,,,,,,,,,,,,,,,,,,,,,,,,,
,,60e0fc6ba2a0b43c2e64fefb,2024-02-19_04h09.35.252,kallum_motion_pilot,2023.2.2,Win32,59.52380952,60e0fc6ba2a0b43c2e64fefb,65d2b6c8f2eece985d8e374c,65d2b81f17fc4d337441e430,0.2052,0.2059,0,65,65,160,1,fivesix,,,,,,,,,,,,,,,,,,,,,,,,,,,,,,,,,,,,,,,,,,,,,,,,,,,,,,,,,,,,,,,,,,,,,,,,,,,,,,,,,,,,,,,,,,,,,,,,,,,,,,,,,,,,,,,,,,,,,,,,,,,,,,,,,,,,,,,,,
,,60e0fc6ba2a0b43c2e64fefb,2024-02-19_04h09.35.252,kallum_motion_pilot,2023.2.2,Win32,59.52380952,60e0fc6ba2a0b43c2e64fefb,65d2b6c8f2eece985d8e374c,65d2b81f17fc4d337441e430,0.2071,0.2078,0,66,66,102,1,eightsix,,,,,,,,,,,,,,,,,,,,,,,,,,,,,,,,,,,,,,,,,,,,,,,,,,,,,,,,,,,,,,,,,,,,,,,,,,,,,,,,,,,,,,,,,,,,,,,,,,,,,,,,,,,,,,,,,,,,,,,,,,,,,,,,,,,,,,,,,
,,60e0fc6ba2a0b43c2e64fefb,2024-02-19_04h09.35.252,kallum_motion_pilot,2023.2.2,Win32,59.52380952,60e0fc6ba2a0b43c2e64fefb,65d2b6c8f2eece985d8e374c,65d2b81f17fc4d337441e430,0.2091,0.2098,0,67,67,155,1,sixeight,,,,,,,,,,,,,,,,,,,,,,,,,,,,,,,,,,,,,,,,,,,,,,,,,,,,,,,,,,,,,,,,,,,,,,,,,,,,,,,,,,,,,,,,,,,,,,,,,,,,,,,,,,,,,,,,,,,,,,,,,,,,,,,,,,,,,,,,,
,,60e0fc6ba2a0b43c2e64fefb,2024-02-19_04h09.35.252,kallum_motion_pilot,2023.2.2,Win32,59.52380952,60e0fc6ba2a0b43c2e64fefb,65d2b6c8f2eece985d8e374c,65d2b81f17fc4d337441e430,0.2111,0.2117,0,68,68,14,1,fourtwo,,,,,,,,,,,,,,,,,,,,,,,,,,,,,,,,,,,,,,,,,,,,,,,,,,,,,,,,,,,,,,,,,,,,,,,,,,,,,,,,,,,,,,,,,,,,,,,,,,,,,,,,,,,,,,,,,,,,,,,,,,,,,,,,,,,,,,,,,
,,60e0fc6ba2a0b43c2e64fefb,2024-02-19_04h09.35.252,kallum_motion_pilot,2023.2.2,Win32,59.52380952,60e0fc6ba2a0b43c2e64fefb,65d2b6c8f2eece985d8e374c,65d2b81f17fc4d337441e430,0.213,0.214,0,69,69,59,1,twofour,,,,,,,,,,,,,,,,,,,,,,,,,,,,,,,,,,,,,,,,,,,,,,,,,,,,,,,,,,,,,,,,,,,,,,,,,,,,,,,,,,,,,,,,,,,,,,,,,,,,,,,,,,,,,,,,,,,,,,,,,,,,,,,,,,,,,,,,,
,,60e0fc6ba2a0b43c2e64fefb,2024-02-19_04h09.35.252,kallum_motion_pilot,2023.2.2,Win32,59.52380952,60e0fc6ba2a0b43c2e64fefb,65d2b6c8f2eece985d8e374c,65d2b81f17fc4d337441e430,0.2152,0.2159,0,70,70,143,1,eightseven,,,,,,,,,,,,,,,,,,,,,,,,,,,,,,,,,,,,,,,,,,,,,,,,,,,,,,,,,,,,,,,,,,,,,,,,,,,,,,,,,,,,,,,,,,,,,,,,,,,,,,,,,,,,,,,,,,,,,,,,,,,,,,,,,,,,,,,,,
,,60e0fc6ba2a0b43c2e64fefb,2024-02-19_04h09.35.252,kallum_motion_pilot,2023.2.2,Win32,59.52380952,60e0fc6ba2a0b43c2e64fefb,65d2b6c8f2eece985d8e374c,65d2b81f17fc4d337441e430,0.2172,0.2179,0,71,71,136,1,fivesix,,,,,,,,,,,,,,,,,,,,,,,,,,,,,,,,,,,,,,,,,,,,,,,,,,,,,,,,,,,,,,,,,,,,,,,,,,,,,,,,,,,,,,,,,,,,,,,,,,,,,,,,,,,,,,,,,,,,,,,,,,,,,,,,,,,,,,,,,
,,60e0fc6ba2a0b43c2e64fefb,2024-02-19_04h09.35.252,kallum_motion_pilot,2023.2.2,Win32,59.52380952,60e0fc6ba2a0b43c2e64fefb,65d2b6c8f2eece985d8e374c,65d2b81f17fc4d337441e430,0.2209,0.2218,0,72,72,21,1,threefour,,,,,,,,,,,,,,,,,,,,,,,,,,,,,,,,,,,,,,,,,,,,,,,,,,,,,,,,,,,,,,,,,,,,,,,,,,,,,,,,,,,,,,,,,,,,,,,,,,,,,,,,,,,,,,,,,,,,,,,,,,,,,,,,,,,,,,,,,
,,60e0fc6ba2a0b43c2e64fefb,2024-02-19_04h09.35.252,kallum_motion_pilot,2023.2.2,Win32,59.52380952,60e0fc6ba2a0b43c2e64fefb,65d2b6c8f2eece985d8e374c,65d2b81f17fc4d337441e430,0.223,0.2238,0,73,73,15,1,fourthree,,,,,,,,,,,,,,,,,,,,,,,,,,,,,,,,,,,,,,,,,,,,,,,,,,,,,,,,,,,,,,,,,,,,,,,,,,,,,,,,,,,,,,,,,,,,,,,,,,,,,,,,,,,,,,,,,,,,,,,,,,,,,,,,,,,,,,,,,
,,60e0fc6ba2a0b43c2e64fefb,2024-02-19_04h09.35.252,kallum_motion_pilot,2023.2.2,Win32,59.52380952,60e0fc6ba2a0b43c2e64fefb,65d2b6c8f2eece985d8e374c,65d2b81f17fc4d337441e430,0.225,0.2257,0,74,74,10,1,twoone,,,,,,,,,,,,,,,,,,,,,,,,,,,,,,,,,,,,,,,,,,,,,,,,,,,,,,,,,,,,,,,,,,,,,,,,,,,,,,,,,,,,,,,,,,,,,,,,,,,,,,,,,,,,,,,,,,,,,,,,,,,,,,,,,,,,,,,,,
,,60e0fc6ba2a0b43c2e64fefb,2024-02-19_04h09.35.252,kallum_motion_pilot,2023.2.2,Win32,59.52380952,60e0fc6ba2a0b43c2e64fefb,65d2b6c8f2eece985d8e374c,65d2b81f17fc4d337441e430,0.2273,0.2281,0,75,75,34,1,twoone,,,,,,,,,,,,,,,,,,,,,,,,,,,,,,,,,,,,,,,,,,,,,,,,,,,,,,,,,,,,,,,,,,,,,,,,,,,,,,,,,,,,,,,,,,,,,,,,,,,,,,,,,,,,,,,,,,,,,,,,,,,,,,,,,,,,,,,,,
,,60e0fc6ba2a0b43c2e64fefb,2024-02-19_04h09.35.252,kallum_motion_pilot,2023.2.2,Win32,59.52380952,60e0fc6ba2a0b43c2e64fefb,65d2b6c8f2eece985d8e374c,65d2b81f17fc4d337441e430,0.2295,0.2303,0,76,76,134,1,eightsix,,,,,,,,,,,,,,,,,,,,,,,,,,,,,,,,,,,,,,,,,,,,,,,,,,,,,,,,,,,,,,,,,,,,,,,,,,,,,,,,,,,,,,,,,,,,,,,,,,,,,,,,,,,,,,,,,,,,,,,,,,,,,,,,,,,,,,,,,
,,60e0fc6ba2a0b43c2e64fefb,2024-02-19_04h09.35.252,kallum_motion_pilot,2023.2.2,Win32,59.52380952,60e0fc6ba2a0b43c2e64fefb,65d2b6c8f2eece985d8e374c,65d2b81f17fc4d337441e430,0.2315,0.2322,0,77,77,2,1,twoone,,,,,,,,,,,,,,,,,,,,,,,,,,,,,,,,,,,,,,,,,,,,,,,,,,,,,,,,,,,,,,,,,,,,,,,,,,,,,,,,,,,,,,,,,,,,,,,,,,,,,,,,,,,,,,,,,,,,,,,,,,,,,,,,,,,,,,,,,
,,60e0fc6ba2a0b43c2e64fefb,2024-02-19_04h09.35.252,kallum_motion_pilot,2023.2.2,Win32,59.52380952,60e0fc6ba2a0b43c2e64fefb,65d2b6c8f2eece985d8e374c,65d2b81f17fc4d337441e430,0.2334,0.2342,0,78,78,76,1,threeone,,,,,,,,,,,,,,,,,,,,,,,,,,,,,,,,,,,,,,,,,,,,,,,,,,,,,,,,,,,,,,,,,,,,,,,,,,,,,,,,,,,,,,,,,,,,,,,,,,,,,,,,,,,,,,,,,,,,,,,,,,,,,,,,,,,,,,,,,
,,60e0fc6ba2a0b43c2e64fefb,2024-02-19_04h09.35.252,kallum_motion_pilot,2023.2.2,Win32,59.52380952,60e0fc6ba2a0b43c2e64fefb,65d2b6c8f2eece985d8e374c,65d2b81f17fc4d337441e430,0.2361,0.237,0,79,79,4,1,threeone,,,,,,,,,,,,,,,,,,,,,,,,,,,,,,,,,,,,,,,,,,,,,,,,,,,,,,,,,,,,,,,,,,,,,,,,,,,,,,,,,,,,,,,,,,,,,,,,,,,,,,,,,,,,,,,,,,,,,,,,,,,,,,,,,,,,,,,,,
,,60e0fc6ba2a0b43c2e64fefb,2024-02-19_04h09.35.252,kallum_motion_pilot,2023.2.2,Win32,59.52380952,60e0fc6ba2a0b43c2e64fefb,65d2b6c8f2eece985d8e374c,65d2b81f17fc4d337441e430,0.239,0.2398,0,80,80,120,1,fivesix,,,,,,,,,,,,,,,,,,,,,,,,,,,,,,,,,,,,,,,,,,,,,,,,,,,,,,,,,,,,,,,,,,,,,,,,,,,,,,,,,,,,,,,,,,,,,,,,,,,,,,,,,,,,,,,,,,,,,,,,,,,,,,,,,,,,,,,,,
,,60e0fc6ba2a0b43c2e64fefb,2024-02-19_04h09.35.252,kallum_motion_pilot,2023.2.2,Win32,59.52380952,60e0fc6ba2a0b43c2e64fefb,65d2b6c8f2eece985d8e374c,65d2b81f17fc4d337441e430,0.2411,0.2418,0,81,81,78,1,fourtwo,,,,,,,,,,,,,,,,,,,,,,,,,,,,,,,,,,,,,,,,,,,,,,,,,,,,,,,,,,,,,,,,,,,,,,,,,,,,,,,,,,,,,,,,,,,,,,,,,,,,,,,,,,,,,,,,,,,,,,,,,,,,,,,,,,,,,,,,,
,,60e0fc6ba2a0b43c2e64fefb,2024-02-19_04h09.35.252,kallum_motion_pilot,2023.2.2,Win32,59.52380952,60e0fc6ba2a0b43c2e64fefb,65d2b6c8f2eece985d8e374c,65d2b81f17fc4d337441e430,0.2432,0.2438,0,82,82,146,1,sixfive,,,,,,,,,,,,,,,,,,,,,,,,,,,,,,,,,,,,,,,,,,,,,,,,,,,,,,,,,,,,,,,,,,,,,,,,,,,,,,,,,,,,,,,,,,,,,,,,,,,,,,,,,,,,,,,,,,,,,,,,,,,,,,,,,,,,,,,,,
,,60e0fc6ba2a0b43c2e64fefb,2024-02-19_04h09.35.252,kallum_motion_pilot,2023.2.2,Win32,59.52380952,60e0fc6ba2a0b43c2e64fefb,65d2b6c8f2eece985d8e374c,65d2b81f17fc4d337441e430,0.2451,0.2459,0,83,83,92,1,sevenfive,,,,,,,,,,,,,,,,,,,,,,,,,,,,,,,,,,,,,,,,,,,,,,,,,,,,,,,,,,,,,,,,,,,,,,,,,,,,,,,,,,,,,,,,,,,,,,,,,,,,,,,,,,,,,,,,,,,,,,,,,,,,,,,,,,,,,,,,,
,,60e0fc6ba2a0b43c2e64fefb,2024-02-19_04h09.35.252,kallum_motion_pilot,2023.2.2,Win32,59.52380952,60e0fc6ba2a0b43c2e64fefb,65d2b6c8f2eece985d8e374c,65d2b81f17fc4d337441e430,0.2473,0.2481,0,84,84,20,1,threeone,,,,,,,,,,,,,,,,,,,,,,,,,,,,,,,,,,,,,,,,,,,,,,,,,,,,,,,,,,,,,,,,,,,,,,,,,,,,,,,,,,,,,,,,,,,,,,,,,,,,,,,,,,,,,,,,,,,,,,,,,,,,,,,,,,,,,,,,,
,,60e0fc6ba2a0b43c2e64fefb,2024-02-19_04h09.35.252,kallum_motion_pilot,2023.2.2,Win32,59.52380952,60e0fc6ba2a0b43c2e64fefb,65d2b6c8f2eece985d8e374c,65d2b81f17fc4d337441e430,0.2493,0.2501,0,85,85,147,1,sixeight,,,,,,,,,,,,,,,,,,,,,,,,,,,,,,,,,,,,,,,,,,,,,,,,,,,,,,,,,,,,,,,,,,,,,,,,,,,,,,,,,,,,,,,,,,,,,,,,,,,,,,,,,,,,,,,,,,,,,,,,,,,,,,,,,,,,,,,,,
,,60e0fc6ba2a0b43c2e64fefb,2024-02-19_04h09.35.252,kallum_motion_pilot,2023.2.2,Win32,59.52380952,60e0fc6ba2a0b43c2e64fefb,65d2b6c8f2eece985d8e374c,65d2b81f17fc4d337441e430,0.2512,0.2528,0,86,86,53,1,threefour,,,,,,,,,,,,,,,,,,,,,,,,,,,,,,,,,,,,,,,,,,,,,,,,,,,,,,,,,,,,,,,,,,,,,,,,,,,,,,,,,,,,,,,,,,,,,,,,,,,,,,,,,,,,,,,,,,,,,,,,,,,,,,,,,,,,,,,,,
,,60e0fc6ba2a0b43c2e64fefb,2024-02-19_04h09.35.252,kallum_motion_pilot,2023.2.2,Win32,59.52380952,60e0fc6ba2a0b43c2e64fefb,65d2b6c8f2eece985d8e374c,65d2b81f17fc4d337441e430,0.2542,0.2549,0,87,87,144,1,fivesix,,,,,,,,,,,,,,,,,,,,,,,,,,,,,,,,,,,,,,,,,,,,,,,,,,,,,,,,,,,,,,,,,,,,,,,,,,,,,,,,,,,,,,,,,,,,,,,,,,,,,,,,,,,,,,,,,,,,,,,,,,,,,,,,,,,,,,,,,
,,60e0fc6ba2a0b43c2e64fefb,2024-02-19_04h09.35.252,kallum_motion_pilot,2023.2.2,Win32,59.52380952,60e0fc6ba2a0b43c2e64fefb,65d2b6c8f2eece985d8e374c,65d2b81f17fc4d337441e430,0.2562,0.2571,0,88,88,85,1,seveneight,,,,,,,,,,,,,,,,,,,,,,,,,,,,,,,,,,,,,,,,,,,,,,,,,,,,,,,,,,,,,,,,,,,,,,,,,,,,,,,,,,,,,,,,,,,,,,,,,,,,,,,,,,,,,,,,,,,,,,,,,,,,,,,,,,,,,,,,,
,,60e0fc6ba2a0b43c2e64fefb,2024-02-19_04h09.35.252,kallum_motion_pilot,2023.2.2,Win32,59.52380952,60e0fc6ba2a0b43c2e64fefb,65d2b6c8f2eece985d8e374c,65d2b81f17fc4d337441e430,0.2584,0.259,0,89,89,123,1,sixeight,,,,,,,,,,,,,,,,,,,,,,,,,,,,,,,,,,,,,,,,,,,,,,,,,,,,,,,,,,,,,,,,,,,,,,,,,,,,,,,,,,,,,,,,,,,,,,,,,,,,,,,,,,,,,,,,,,,,,,,,,,,,,,,,,,,,,,,,,
,,60e0fc6ba2a0b43c2e64fefb,2024-02-19_04h09.35.252,kallum_motion_pilot,2023.2.2,Win32,59.52380952,60e0fc6ba2a0b43c2e64fefb,65d2b6c8f2eece985d8e374c,65d2b81f17fc4d337441e430,0.2602,0.2611,0,90,90,37,1,threefour,,,,,,,,,,,,,,,,,,,,,,,,,,,,,,,,,,,,,,,,,,,,,,,,,,,,,,,,,,,,,,,,,,,,,,,,,,,,,,,,,,,,,,,,,,,,,,,,,,,,,,,,,,,,,,,,,,,,,,,,,,,,,,,,,,,,,,,,,
,,60e0fc6ba2a0b43c2e64fefb,2024-02-19_04h09.35.252,kallum_motion_pilot,2023.2.2,Win32,59.52380952,60e0fc6ba2a0b43c2e64fefb,65d2b6c8f2eece985d8e374c,65d2b81f17fc4d337441e430,0.262,0.2624,0,91,91,116,1,sevenfive,,,,,,,,,,,,,,,,,,,,,,,,,,,,,,,,,,,,,,,,,,,,,,,,,,,,,,,,,,,,,,,,,,,,,,,,,,,,,,,,,,,,,,,,,,,,,,,,,,,,,,,,,,,,,,,,,,,,,,,,,,,,,,,,,,,,,,,,,
,,60e0fc6ba2a0b43c2e64fefb,2024-02-19_04h09.35.252,kallum_motion_pilot,2023.2.2,Win32,59.52380952,60e0fc6ba2a0b43c2e64fefb,65d2b6c8f2eece985d8e374c,65d2b81f17fc4d337441e430,0.2639,0.2652,0,92,92,81,1,fiveseven,,,,,,,,,,,,,,,,,,,,,,,,,,,,,,,,,,,,,,,,,,,,,,,,,,,,,,,,,,,,,,,,,,,,,,,,,,,,,,,,,,,,,,,,,,,,,,,,,,,,,,,,,,,,,,,,,,,,,,,,,,,,,,,,,,,,,,,,,
,,60e0fc6ba2a0b43c2e64fefb,2024-02-19_04h09.35.252,kallum_motion_pilot,2023.2.2,Win32,59.52380952,60e0fc6ba2a0b43c2e64fefb,65d2b6c8f2eece985d8e374c,65d2b81f17fc4d337441e430,0.2665,0.2672,0,93,93,121,1,fiveseven,,,,,,,,,,,,,,,,,,,,,,,,,,,,,,,,,,,,,,,,,,,,,,,,,,,,,,,,,,,,,,,,,,,,,,,,,,,,,,,,,,,,,,,,,,,,,,,,,,,,,,,,,,,,,,,,,,,,,,,,,,,,,,,,,,,,,,,,,
,,60e0fc6ba2a0b43c2e64fefb,2024-02-19_04h09.35.252,kallum_motion_pilot,2023.2.2,Win32,59.52380952,60e0fc6ba2a0b43c2e64fefb,65d2b6c8f2eece985d8e374c,65d2b81f17fc4d337441e430,0.2685,0.2695,0,94,94,56,1,onetwo,,,,,,,,,,,,,,,,,,,,,,,,,,,,,,,,,,,,,,,,,,,,,,,,,,,,,,,,,,,,,,,,,,,,,,,,,,,,,,,,,,,,,,,,,,,,,,,,,,,,,,,,,,,,,,,,,,,,,,,,,,,,,,,,,,,,,,,,,
,,60e0fc6ba2a0b43c2e64fefb,2024-02-19_04h09.35.252,kallum_motion_pilot,2023.2.2,Win32,59.52380952,60e0fc6ba2a0b43c2e64fefb,65d2b6c8f2eece985d8e374c,65d2b81f17fc4d337441e430,0.2704,0.2708,0,95,95,127,1,eightseven,,,,,,,,,,,,,,,,,,,,,,,,,,,,,,,,,,,,,,,,,,,,,,,,,,,,,,,,,,,,,,,,,,,,,,,,,,,,,,,,,,,,,,,,,,,,,,,,,,,,,,,,,,,,,,,,,,,,,,,,,,,,,,,,,,,,,,,,,
,,60e0fc6ba2a0b43c2e64fefb,2024-02-19_04h09.35.252,kallum_motion_pilot,2023.2.2,Win32,59.52380952,60e0fc6ba2a0b43c2e64fefb,65d2b6c8f2eece985d8e374c,65d2b81f17fc4d337441e430,0.2723,0.2738,0,96,96,97,1,fiveseven,,,,,,,,,,,,,,,,,,,,,,,,,,,,,,,,,,,,,,,,,,,,,,,,,,,,,,,,,,,,,,,,,,,,,,,,,,,,,,,,,,,,,,,,,,,,,,,,,,,,,,,,,,,,,,,,,,,,,,,,,,,,,,,,,,,,,,,,,
,,60e0fc6ba2a0b43c2e64fefb,2024-02-19_04h09.35.252,kallum_motion_pilot,2023.2.2,Win32,59.52380952,60e0fc6ba2a0b43c2e64fefb,65d2b6c8f2eece985d8e374c,65d2b81f17fc4d337441e430,0.2753,0.2762,0,97,97,159,1,eightseven,,,,,,,,,,,,,,,,,,,,,,,,,,,,,,,,,,,,,,,,,,,,,,,,,,,,,,,,,,,,,,,,,,,,,,,,,,,,,,,,,,,,,,,,,,,,,,,,,,,,,,,,,,,,,,,,,,,,,,,,,,,,,,,,,,,,,,,,,
,,60e0fc6ba2a0b43c2e64fefb,2024-02-19_04h09.35.252,kallum_motion_pilot,2023.2.2,Win32,59.52380952,60e0fc6ba2a0b43c2e64fefb,65d2b6c8f2eece985d8e374c,65d2b81f17fc4d337441e430,0.2779,0.2782,0,98,98,74,1,twoone,,,,,,,,,,,,,,,,,,,,,,,,,,,,,,,,,,,,,,,,,,,,,,,,,,,,,,,,,,,,,,,,,,,,,,,,,,,,,,,,,,,,,,,,,,,,,,,,,,,,,,,,,,,,,,,,,,,,,,,,,,,,,,,,,,,,,,,,,
,,60e0fc6ba2a0b43c2e64fefb,2024-02-19_04h09.35.252,kallum_motion_pilot,2023.2.2,Win32,59.52380952,60e0fc6ba2a0b43c2e64fefb,65d2b6c8f2eece985d8e374c,65d2b81f17fc4d337441e430,0.2792,0.2796,0,99,99,139,1,sixeight,,,,,,,,,,,,,,,,,,,,,,,,,,,,,,,,,,,,,,,,,,,,,,,,,,,,,,,,,,,,,,,,,,,,,,,,,,,,,,,,,,,,,,,,,,,,,,,,,,,,,,,,,,,,,,,,,,,,,,,,,,,,,,,,,,,,,,,,,
,,60e0fc6ba2a0b43c2e64fefb,2024-02-19_04h09.35.252,kallum_motion_pilot,2023.2.2,Win32,59.52380952,60e0fc6ba2a0b43c2e64fefb,65d2b6c8f2eece985d8e374c,65d2b81f17fc4d337441e430,0.2811,0.2817,0,100,100,72,1,onetwo,,,,,,,,,,,,,,,,,,,,,,,,,,,,,,,,,,,,,,,,,,,,,,,,,,,,,,,,,,,,,,,,,,,,,,,,,,,,,,,,,,,,,,,,,,,,,,,,,,,,,,,,,,,,,,,,,,,,,,,,,,,,,,,,,,,,,,,,,
,,60e0fc6ba2a0b43c2e64fefb,2024-02-19_04h09.35.252,kallum_motion_pilot,2023.2.2,Win32,59.52380952,60e0fc6ba2a0b43c2e64fefb,65d2b6c8f2eece985d8e374c,65d2b81f17fc4d337441e430,0.2831,0.2839,0,101,101,96,1,fivesix,,,,,,,,,,,,,,,,,,,,,,,,,,,,,,,,,,,,,,,,,,,,,,,,,,,,,,,,,,,,,,,,,,,,,,,,,,,,,,,,,,,,,,,,,,,,,,,,,,,,,,,,,,,,,,,,,,,,,,,,,,,,,,,,,,,,,,,,,
,,60e0fc6ba2a0b43c2e64fefb,2024-02-19_04h09.35.252,kallum_motion_pilot,2023.2.2,Win32,59.52380952,60e0fc6ba2a0b43c2e64fefb,65d2b6c8f2eece985d8e374c,65d2b81f17fc4d337441e430,0.2847,0.2862,0,102,102,152,1,fivesix,,,,,,,,,,,,,,,,,,,,,,,,,,,,,,,,,,,,,,,,,,,,,,,,,,,,,,,,,,,,,,,,,,,,,,,,,,,,,,,,,,,,,,,,,,,,,,,,,,,,,,,,,,,,,,,,,,,,,,,,,,,,,,,,,,,,,,,,,
,,60e0fc6ba2a0b43c2e64fefb,2024-02-19_04h09.35.252,kallum_motion_pilot,2023.2.2,Win32,59.52380952,60e0fc6ba2a0b43c2e64fefb,65d2b6c8f2eece985d8e374c,65d2b81f17fc4d337441e430,0.287,0.2876,0,103,103,43,1,twofour,,,,,,,,,,,,,,,,,,,,,,,,,,,,,,,,,,,,,,,,,,,,,,,,,,,,,,,,,,,,,,,,,,,,,,,,,,,,,,,,,,,,,,,,,,,,,,,,,,,,,,,,,,,,,,,,,,,,,,,,,,,,,,,,,,,,,,,,,
,,60e0fc6ba2a0b43c2e64fefb,2024-02-19_04h09.35.252,kallum_motion_pilot,2023.2.2,Win32,59.52380952,60e0fc6ba2a0b43c2e64fefb,65d2b6c8f2eece985d8e374c,65d2b81f17fc4d337441e430,0.2882,0.2887,0,104,104,157,1,seveneight,,,,,,,,,,,,,,,,,,,,,,,,,,,,,,,,,,,,,,,,,,,,,,,,,,,,,,,,,,,,,,,,,,,,,,,,,,,,,,,,,,,,,,,,,,,,,,,,,,,,,,,,,,,,,,,,,,,,,,,,,,,,,,,,,,,,,,,,,
,,60e0fc6ba2a0b43c2e64fefb,2024-02-19_04h09.35.252,kallum_motion_pilot,2023.2.2,Win32,59.52380952,60e0fc6ba2a0b43c2e64fefb,65d2b6c8f2eece985d8e374c,65d2b81f17fc4d337441e430,0.2893,0.2898,0,105,105,124,1,sevenfive,,,,,,,,,,,,,,,,,,,,,,,,,,,,,,,,,,,,,,,,,,,,,,,,,,,,,,,,,,,,,,,,,,,,,,,,,,,,,,,,,,,,,,,,,,,,,,,,,,,,,,,,,,,,,,,,,,,,,,,,,,,,,,,,,,,,,,,,,
,,60e0fc6ba2a0b43c2e64fefb,2024-02-19_04h09.35.252,kallum_motion_pilot,2023.2.2,Win32,59.52380952,60e0fc6ba2a0b43c2e64fefb,65d2b6c8f2eece985d8e374c,65d2b81f17fc4d337441e430,0.2904,0.2909,0,106,106,75,1,twofour,,,,,,,,,,,,,,,,,,,,,,,,,,,,,,,,,,,,,,,,,,,,,,,,,,,,,,,,,,,,,,,,,,,,,,,,,,,,,,,,,,,,,,,,,,,,,,,,,,,,,,,,,,,,,,,,,,,,,,,,,,,,,,,,,,,,,,,,,
,,60e0fc6ba2a0b43c2e64fefb,2024-02-19_04h09.35.252,kallum_motion_pilot,2023.2.2,Win32,59.52380952,60e0fc6ba2a0b43c2e64fefb,65d2b6c8f2eece985d8e374c,65d2b81f17fc4d337441e430,0.2914,0.2919,0,107,107,153,1,fiveseven,,,,,,,,,,,,,,,,,,,,,,,,,,,,,,,,,,,,,,,,,,,,,,,,,,,,,,,,,,,,,,,,,,,,,,,,,,,,,,,,,,,,,,,,,,,,,,,,,,,,,,,,,,,,,,,,,,,,,,,,,,,,,,,,,,,,,,,,,
,,60e0fc6ba2a0b43c2e64fefb,2024-02-19_04h09.35.252,kallum_motion_pilot,2023.2.2,Win32,59.52380952,60e0fc6ba2a0b43c2e64fefb,65d2b6c8f2eece985d8e374c,65d2b81f17fc4d337441e430,0.2924,0.2929,0,108,108,89,1,fiveseven,,,,,,,,,,,,,,,,,,,,,,,,,,,,,,,,,,,,,,,,,,,,,,,,,,,,,,,,,,,,,,,,,,,,,,,,,,,,,,,,,,,,,,,,,,,,,,,,,,,,,,,,,,,,,,,,,,,,,,,,,,,,,,,,,,,,,,,,,
,,60e0fc6ba2a0b43c2e64fefb,2024-02-19_04h09.35.252,kallum_motion_pilot,2023.2.2,Win32,59.52380952,60e0fc6ba2a0b43c2e64fefb,65d2b6c8f2eece985d8e374c,65d2b81f17fc4d337441e430,0.2942,0.2946,0,109,109,115,1,sixeight,,,,,,,,,,,,,,,,,,,,,,,,,,,,,,,,,,,,,,,,,,,,,,,,,,,,,,,,,,,,,,,,,,,,,,,,,,,,,,,,,,,,,,,,,,,,,,,,,,,,,,,,,,,,,,,,,,,,,,,,,,,,,,,,,,,,,,,,,
,,60e0fc6ba2a0b43c2e64fefb,2024-02-19_04h09.35.252,kallum_motion_pilot,2023.2.2,Win32,59.52380952,60e0fc6ba2a0b43c2e64fefb,65d2b6c8f2eece985d8e374c,65d2b81f17fc4d337441e430,0.2953,0.2959,0,110,110,88,1,fivesix,,,,,,,,,,,,,,,,,,,,,,,,,,,,,,,,,,,,,,,,,,,,,,,,,,,,,,,,,,,,,,,,,,,,,,,,,,,,,,,,,,,,,,,,,,,,,,,,,,,,,,,,,,,,,,,,,,,,,,,,,,,,,,,,,,,,,,,,,
,,60e0fc6ba2a0b43c2e64fefb,2024-02-19_04h09.35.252,kallum_motion_pilot,2023.2.2,Win32,59.52380952,60e0fc6ba2a0b43c2e64fefb,65d2b6c8f2eece985d8e374c,65d2b81f17fc4d337441e430,0.2964,0.2969,0,111,111,26,1,twoone,,,,,,,,,,,,,,,,,,,,,,,,,,,,,,,,,,,,,,,,,,,,,,,,,,,,,,,,,,,,,,,,,,,,,,,,,,,,,,,,,,,,,,,,,,,,,,,,,,,,,,,,,,,,,,,,,,,,,,,,,,,,,,,,,,,,,,,,,
,,60e0fc6ba2a0b43c2e64fefb,2024-02-19_04h09.35.252,kallum_motion_pilot,2023.2.2,Win32,59.52380952,60e0fc6ba2a0b43c2e64fefb,65d2b6c8f2eece985d8e374c,65d2b81f17fc4d337441e430,0.2975,0.298,0,112,112,100,1,sevenfive,,,,,,,,,,,,,,,,,,,,,,,,,,,,,,,,,,,,,,,,,,,,,,,,,,,,,,,,,,,,,,,,,,,,,,,,,,,,,,,,,,,,,,,,,,,,,,,,,,,,,,,,,,,,,,,,,,,,,,,,,,,,,,,,,,,,,,,,,
,,60e0fc6ba2a0b43c2e64fefb,2024-02-19_04h09.35.252,kallum_motion_pilot,2023.2.2,Win32,59.52380952,60e0fc6ba2a0b43c2e64fefb,65d2b6c8f2eece985d8e374c,65d2b81f17fc4d337441e430,0.2985,0.299,0,113,113,80,1,fivesix,,,,,,,,,,,,,,,,,,,,,,,,,,,,,,,,,,,,,,,,,,,,,,,,,,,,,,,,,,,,,,,,,,,,,,,,,,,,,,,,,,,,,,,,,,,,,,,,,,,,,,,,,,,,,,,,,,,,,,,,,,,,,,,,,,,,,,,,,
,,60e0fc6ba2a0b43c2e64fefb,2024-02-19_04h09.35.252,kallum_motion_pilot,2023.2.2,Win32,59.52380952,60e0fc6ba2a0b43c2e64fefb,65d2b6c8f2eece985d8e374c,65d2b81f17fc4d337441e430,0.2996,0.3001,0,114,114,128,1,fivesix,,,,,,,,,,,,,,,,,,,,,,,,,,,,,,,,,,,,,,,,,,,,,,,,,,,,,,,,,,,,,,,,,,,,,,,,,,,,,,,,,,,,,,,,,,,,,,,,,,,,,,,,,,,,,,,,,,,,,,,,,,,,,,,,,,,,,,,,,
,,60e0fc6ba2a0b43c2e64fefb,2024-02-19_04h09.35.252,kallum_motion_pilot,2023.2.2,Win32,59.52380952,60e0fc6ba2a0b43c2e64fefb,65d2b6c8f2eece985d8e374c,65d2b81f17fc4d337441e430,0.3007,0.3012,0,115,115,130,1,sixfive,,,,,,,,,,,,,,,,,,,,,,,,,,,,,,,,,,,,,,,,,,,,,,,,,,,,,,,,,,,,,,,,,,,,,,,,,,,,,,,,,,,,,,,,,,,,,,,,,,,,,,,,,,,,,,,,,,,,,,,,,,,,,,,,,,,,,,,,,
,,60e0fc6ba2a0b43c2e64fefb,2024-02-19_04h09.35.252,kallum_motion_pilot,2023.2.2,Win32,59.52380952,60e0fc6ba2a0b43c2e64fefb,65d2b6c8f2eece985d8e374c,65d2b81f17fc4d337441e430,0.3016,0.3032,0,116,116,49,1,onethree,,,,,,,,,,,,,,,,,,,,,,,,,,,,,,,,,,,,,,,,,,,,,,,,,,,,,,,,,,,,,,,,,,,,,,,,,,,,,,,,,,,,,,,,,,,,,,,,,,,,,,,,,,,,,,,,,,,,,,,,,,,,,,,,,,,,,,,,,
,,60e0fc6ba2a0b43c2e64fefb,2024-02-19_04h09.35.252,kallum_motion_pilot,2023.2.2,Win32,59.52380952,60e0fc6ba2a0b43c2e64fefb,65d2b6c8f2eece985d8e374c,65d2b81f17fc4d337441e430,0.3044,0.3046,0,117,117,67,1,twofour,,,,,,,,,,,,,,,,,,,,,,,,,,,,,,,,,,,,,,,,,,,,,,,,,,,,,,,,,,,,,,,,,,,,,,,,,,,,,,,,,,,,,,,,,,,,,,,,,,,,,,,,,,,,,,,,,,,,,,,,,,,,,,,,,,,,,,,,,
,,60e0fc6ba2a0b43c2e64fefb,2024-02-19_04h09.35.252,kallum_motion_pilot,2023.2.2,Win32,59.52380952,60e0fc6ba2a0b43c2e64fefb,65d2b6c8f2eece985d8e374c,65d2b81f17fc4d337441e430,0.3055,0.306,0,118,118,25,1,onethree,,,,,,,,,,,,,,,,,,,,,,,,,,,,,,,,,,,,,,,,,,,,,,,,,,,,,,,,,,,,,,,,,,,,,,,,,,,,,,,,,,,,,,,,,,,,,,,,,,,,,,,,,,,,,,,,,,,,,,,,,,,,,,,,,,,,,,,,,
,,60e0fc6ba2a0b43c2e64fefb,2024-02-19_04h09.35.252,kallum_motion_pilot,2023.2.2,Win32,59.52380952,60e0fc6ba2a0b43c2e64fefb,65d2b6c8f2eece985d8e374c,65d2b81f17fc4d337441e430,0.3065,0.3071,0,119,119,70,1,fourtwo,,,,,,,,,,,,,,,,,,,,,,,,,,,,,,,,,,,,,,,,,,,,,,,,,,,,,,,,,,,,,,,,,,,,,,,,,,,,,,,,,,,,,,,,,,,,,,,,,,,,,,,,,,,,,,,,,,,,,,,,,,,,,,,,,,,,,,,,,
,,60e0fc6ba2a0b43c2e64fefb,2024-02-19_04h09.35.252,kallum_motion_pilot,2023.2.2,Win32,59.52380952,60e0fc6ba2a0b43c2e64fefb,65d2b6c8f2eece985d8e374c,65d2b81f17fc4d337441e430,0.3085,0.3088,0,120,120,52,1,threeone,,,,,,,,,,,,,,,,,,,,,,,,,,,,,,,,,,,,,,,,,,,,,,,,,,,,,,,,,,,,,,,,,,,,,,,,,,,,,,,,,,,,,,,,,,,,,,,,,,,,,,,,,,,,,,,,,,,,,,,,,,,,,,,,,,,,,,,,,
,,60e0fc6ba2a0b43c2e64fefb,2024-02-19_04h09.35.252,kallum_motion_pilot,2023.2.2,Win32,59.52380952,60e0fc6ba2a0b43c2e64fefb,65d2b6c8f2eece985d8e374c,65d2b81f17fc4d337441e430,0.3102,0.3105,0,121,121,27,1,twofour,,,,,,,,,,,,,,,,,,,,,,,,,,,,,,,,,,,,,,,,,,,,,,,,,,,,,,,,,,,,,,,,,,,,,,,,,,,,,,,,,,,,,,,,,,,,,,,,,,,,,,,,,,,,,,,,,,,,,,,,,,,,,,,,,,,,,,,,,
,,60e0fc6ba2a0b43c2e64fefb,2024-02-19_04h09.35.252,kallum_motion_pilot,2023.2.2,Win32,59.52380952,60e0fc6ba2a0b43c2e64fefb,65d2b6c8f2eece985d8e374c,65d2b81f17fc4d337441e430,0.3114,0.312,0,122,122,65,1,onethree,,,,,,,,,,,,,,,,,,,,,,,,,,,,,,,,,,,,,,,,,,,,,,,,,,,,,,,,,,,,,,,,,,,,,,,,,,,,,,,,,,,,,,,,,,,,,,,,,,,,,,,,,,,,,,,,,,,,,,,,,,,,,,,,,,,,,,,,,
,,60e0fc6ba2a0b43c2e64fefb,2024-02-19_04h09.35.252,kallum_motion_pilot,2023.2.2,Win32,59.52380952,60e0fc6ba2a0b43c2e64fefb,65d2b6c8f2eece985d8e374c,65d2b81f17fc4d337441e430,0.3127,0.3132,0,123,123,62,1,fourtwo,,,,,,,,,,,,,,,,,,,,,,,,,,,,,,,,,,,,,,,,,,,,,,,,,,,,,,,,,,,,,,,,,,,,,,,,,,,,,,,,,,,,,,,,,,,,,,,,,,,,,,,,,,,,,,,,,,,,,,,,,,,,,,,,,,,,,,,,,
,,60e0fc6ba2a0b43c2e64fefb,2024-02-19_04h09.35.252,kallum_motion_pilot,2023.2.2,Win32,59.52380952,60e0fc6ba2a0b43c2e64fefb,65d2b6c8f2eece985d8e374c,65d2b81f17fc4d337441e430,0.3175,0.3179,0,124,124,86,1,eightsix,,,,,,,,,,,,,,,,,,,,,,,,,,,,,,,,,,,,,,,,,,,,,,,,,,,,,,,,,,,,,,,,,,,,,,,,,,,,,,,,,,,,,,,,,,,,,,,,,,,,,,,,,,,,,,,,,,,,,,,,,,,,,,,,,,,,,,,,,
,,60e0fc6ba2a0b43c2e64fefb,2024-02-19_04h09.35.252,kallum_motion_pilot,2023.2.2,Win32,59.52380952,60e0fc6ba2a0b43c2e64fefb,65d2b6c8f2eece985d8e374c,65d2b81f17fc4d337441e430,0.3197,0.3203,0,125,125,113,1,fiveseven,,,,,,,,,,,,,,,,,,,,,,,,,,,,,,,,,,,,,,,,,,,,,,,,,,,,,,,,,,,,,,,,,,,,,,,,,,,,,,,,,,,,,,,,,,,,,,,,,,,,,,,,,,,,,,,,,,,,,,,,,,,,,,,,,,,,,,,,,
,,60e0fc6ba2a0b43c2e64fefb,2024-02-19_04h09.35.252,kallum_motion_pilot,2023.2.2,Win32,59.52380952,60e0fc6ba2a0b43c2e64fefb,65d2b6c8f2eece985d8e374c,65d2b81f17fc4d337441e430,0.3211,0.3215,0,126,126,58,1,twoone,,,,,,,,,,,,,,,,,,,,,,,,,,,,,,,,,,,,,,,,,,,,,,,,,,,,,,,,,,,,,,,,,,,,,,,,,,,,,,,,,,,,,,,,,,,,,,,,,,,,,,,,,,,,,,,,,,,,,,,,,,,,,,,,,,,,,,,,,
,,60e0fc6ba2a0b43c2e64fefb,2024-02-19_04h09.35.252,kallum_motion_pilot,2023.2.2,Win32,59.52380952,60e0fc6ba2a0b43c2e64fefb,65d2b6c8f2eece985d8e374c,65d2b81f17fc4d337441e430,0.3228,0.3231,0,127,127,54,1,fourtwo,,,,,,,,,,,,,,,,,,,,,,,,,,,,,,,,,,,,,,,,,,,,,,,,,,,,,,,,,,,,,,,,,,,,,,,,,,,,,,,,,,,,,,,,,,,,,,,,,,,,,,,,,,,,,,,,,,,,,,,,,,,,,,,,,,,,,,,,,
,,60e0fc6ba2a0b43c2e64fefb,2024-02-19_04h09.35.252,kallum_motion_pilot,2023.2.2,Win32,59.52380952,60e0fc6ba2a0b43c2e64fefb,65d2b6c8f2eece985d8e374c,65d2b81f17fc4d337441e430,0.3246,0.3249,0,128,128,6,1,fourtwo,,,,,,,,,,,,,,,,,,,,,,,,,,,,,,,,,,,,,,,,,,,,,,,,,,,,,,,,,,,,,,,,,,,,,,,,,,,,,,,,,,,,,,,,,,,,,,,,,,,,,,,,,,,,,,,,,,,,,,,,,,,,,,,,,,,,,,,,,
,,60e0fc6ba2a0b43c2e64fefb,2024-02-19_04h09.35.252,kallum_motion_pilot,2023.2.2,Win32,59.52380952,60e0fc6ba2a0b43c2e64fefb,65d2b6c8f2eece985d8e374c,65d2b81f17fc4d337441e430,0.3261,0.3264,0,129,129,3,1,twofour,,,,,,,,,,,,,,,,,,,,,,,,,,,,,,,,,,,,,,,,,,,,,,,,,,,,,,,,,,,,,,,,,,,,,,,,,,,,,,,,,,,,,,,,,,,,,,,,,,,,,,,,,,,,,,,,,,,,,,,,,,,,,,,,,,,,,,,,,
,,60e0fc6ba2a0b43c2e64fefb,2024-02-19_04h09.35.252,kallum_motion_pilot,2023.2.2,Win32,59.52380952,60e0fc6ba2a0b43c2e64fefb,65d2b6c8f2eece985d8e374c,65d2b81f17fc4d337441e430,0.3273,0.3278,0,130,130,145,1,fiveseven,,,,,,,,,,,,,,,,,,,,,,,,,,,,,,,,,,,,,,,,,,,,,,,,,,,,,,,,,,,,,,,,,,,,,,,,,,,,,,,,,,,,,,,,,,,,,,,,,,,,,,,,,,,,,,,,,,,,,,,,,,,,,,,,,,,,,,,,,
,,60e0fc6ba2a0b43c2e64fefb,2024-02-19_04h09.35.252,kallum_motion_pilot,2023.2.2,Win32,59.52380952,60e0fc6ba2a0b43c2e64fefb,65d2b6c8f2eece985d8e374c,65d2b81f17fc4d337441e430,0.3293,0.33,0,131,131,22,1,fourtwo,,,,,,,,,,,,,,,,,,,,,,,,,,,,,,,,,,,,,,,,,,,,,,,,,,,,,,,,,,,,,,,,,,,,,,,,,,,,,,,,,,,,,,,,,,,,,,,,,,,,,,,,,,,,,,,,,,,,,,,,,,,,,,,,,,,,,,,,,
,,60e0fc6ba2a0b43c2e64fefb,2024-02-19_04h09.35.252,kallum_motion_pilot,2023.2.2,Win32,59.52380952,60e0fc6ba2a0b43c2e64fefb,65d2b6c8f2eece985d8e374c,65d2b81f17fc4d337441e430,0.3321,0.3332,0,132,132,57,1,onethree,,,,,,,,,,,,,,,,,,,,,,,,,,,,,,,,,,,,,,,,,,,,,,,,,,,,,,,,,,,,,,,,,,,,,,,,,,,,,,,,,,,,,,,,,,,,,,,,,,,,,,,,,,,,,,,,,,,,,,,,,,,,,,,,,,,,,,,,,
,,60e0fc6ba2a0b43c2e64fefb,2024-02-19_04h09.35.252,kallum_motion_pilot,2023.2.2,Win32,59.52380952,60e0fc6ba2a0b43c2e64fefb,65d2b6c8f2eece985d8e374c,65d2b81f17fc4d337441e430,0.335,0.3357,0,133,133,158,1,eightsix,,,,,,,,,,,,,,,,,,,,,,,,,,,,,,,,,,,,,,,,,,,,,,,,,,,,,,,,,,,,,,,,,,,,,,,,,,,,,,,,,,,,,,,,,,,,,,,,,,,,,,,,,,,,,,,,,,,,,,,,,,,,,,,,,,,,,,,,,
,,60e0fc6ba2a0b43c2e64fefb,2024-02-19_04h09.35.252,kallum_motion_pilot,2023.2.2,Win32,59.52380952,60e0fc6ba2a0b43c2e64fefb,65d2b6c8f2eece985d8e374c,65d2b81f17fc4d337441e430,0.3369,0.3373,0,134,134,135,1,eightseven,,,,,,,,,,,,,,,,,,,,,,,,,,,,,,,,,,,,,,,,,,,,,,,,,,,,,,,,,,,,,,,,,,,,,,,,,,,,,,,,,,,,,,,,,,,,,,,,,,,,,,,,,,,,,,,,,,,,,,,,,,,,,,,,,,,,,,,,,
,,60e0fc6ba2a0b43c2e64fefb,2024-02-19_04h09.35.252,kallum_motion_pilot,2023.2.2,Win32,59.52380952,60e0fc6ba2a0b43c2e64fefb,65d2b6c8f2eece985d8e374c,65d2b81f17fc4d337441e430,0.3382,0.3386,0,135,135,1,1,onethree,,,,,,,,,,,,,,,,,,,,,,,,,,,,,,,,,,,,,,,,,,,,,,,,,,,,,,,,,,,,,,,,,,,,,,,,,,,,,,,,,,,,,,,,,,,,,,,,,,,,,,,,,,,,,,,,,,,,,,,,,,,,,,,,,,,,,,,,,
,,60e0fc6ba2a0b43c2e64fefb,2024-02-19_04h09.35.252,kallum_motion_pilot,2023.2.2,Win32,59.52380952,60e0fc6ba2a0b43c2e64fefb,65d2b6c8f2eece985d8e374c,65d2b81f17fc4d337441e430,0.3394,0.34,0,136,136,154,1,sixfive,,,,,,,,,,,,,,,,,,,,,,,,,,,,,,,,,,,,,,,,,,,,,,,,,,,,,,,,,,,,,,,,,,,,,,,,,,,,,,,,,,,,,,,,,,,,,,,,,,,,,,,,,,,,,,,,,,,,,,,,,,,,,,,,,,,,,,,,,
,,60e0fc6ba2a0b43c2e64fefb,2024-02-19_04h09.35.252,kallum_motion_pilot,2023.2.2,Win32,59.52380952,60e0fc6ba2a0b43c2e64fefb,65d2b6c8f2eece985d8e374c,65d2b81f17fc4d337441e430,0.3408,0.3413,0,137,137,140,1,sevenfive,,,,,,,,,,,,,,,,,,,,,,,,,,,,,,,,,,,,,,,,,,,,,,,,,,,,,,,,,,,,,,,,,,,,,,,,,,,,,,,,,,,,,,,,,,,,,,,,,,,,,,,,,,,,,,,,,,,,,,,,,,,,,,,,,,,,,,,,,
,,60e0fc6ba2a0b43c2e64fefb,2024-02-19_04h09.35.252,kallum_motion_pilot,2023.2.2,Win32,59.52380952,60e0fc6ba2a0b43c2e64fefb,65d2b6c8f2eece985d8e374c,65d2b81f17fc4d337441e430,0.342,0.3425,0,138,138,110,1,eightsix,,,,,,,,,,,,,,,,,,,,,,,,,,,,,,,,,,,,,,,,,,,,,,,,,,,,,,,,,,,,,,,,,,,,,,,,,,,,,,,,,,,,,,,,,,,,,,,,,,,,,,,,,,,,,,,,,,,,,,,,,,,,,,,,,,,,,,,,,
,,60e0fc6ba2a0b43c2e64fefb,2024-02-19_04h09.35.252,kallum_motion_pilot,2023.2.2,Win32,59.52380952,60e0fc6ba2a0b43c2e64fefb,65d2b6c8f2eece985d8e374c,65d2b81f17fc4d337441e430,0.343,0.3436,0,139,139,126,1,eightsix,,,,,,,,,,,,,,,,,,,,,,,,,,,,,,,,,,,,,,,,,,,,,,,,,,,,,,,,,,,,,,,,,,,,,,,,,,,,,,,,,,,,,,,,,,,,,,,,,,,,,,,,,,,,,,,,,,,,,,,,,,,,,,,,,,,,,,,,,
,,60e0fc6ba2a0b43c2e64fefb,2024-02-19_04h09.35.252,kallum_motion_pilot,2023.2.2,Win32,59.52380952,60e0fc6ba2a0b43c2e64fefb,65d2b6c8f2eece985d8e374c,65d2b81f17fc4d337441e430,0.3442,0.3447,0,140,140,71,1,fourthree,,,,,,,,,,,,,,,,,,,,,,,,,,,,,,,,,,,,,,,,,,,,,,,,,,,,,,,,,,,,,,,,,,,,,,,,,,,,,,,,,,,,,,,,,,,,,,,,,,,,,,,,,,,,,,,,,,,,,,,,,,,,,,,,,,,,,,,,,
,,60e0fc6ba2a0b43c2e64fefb,2024-02-19_04h09.35.252,kallum_motion_pilot,2023.2.2,Win32,59.52380952,60e0fc6ba2a0b43c2e64fefb,65d2b6c8f2eece985d8e374c,65d2b81f17fc4d337441e430,0.3455,0.3463,0,141,141,33,1,onethree,,,,,,,,,,,,,,,,,,,,,,,,,,,,,,,,,,,,,,,,,,,,,,,,,,,,,,,,,,,,,,,,,,,,,,,,,,,,,,,,,,,,,,,,,,,,,,,,,,,,,,,,,,,,,,,,,,,,,,,,,,,,,,,,,,,,,,,,,
,,60e0fc6ba2a0b43c2e64fefb,2024-02-19_04h09.35.252,kallum_motion_pilot,2023.2.2,Win32,59.52380952,60e0fc6ba2a0b43c2e64fefb,65d2b6c8f2eece985d8e374c,65d2b81f17fc4d337441e430,0.3471,0.3476,0,142,142,38,1,fourtwo,,,,,,,,,,,,,,,,,,,,,,,,,,,,,,,,,,,,,,,,,,,,,,,,,,,,,,,,,,,,,,,,,,,,,,,,,,,,,,,,,,,,,,,,,,,,,,,,,,,,,,,,,,,,,,,,,,,,,,,,,,,,,,,,,,,,,,,,,
,,60e0fc6ba2a0b43c2e64fefb,2024-02-19_04h09.35.252,kallum_motion_pilot,2023.2.2,Win32,59.52380952,60e0fc6ba2a0b43c2e64fefb,65d2b6c8f2eece985d8e374c,65d2b81f17fc4d337441e430,0.3487,0.3491,0,143,143,132,1,sevenfive,,,,,,,,,,,,,,,,,,,,,,,,,,,,,,,,,,,,,,,,,,,,,,,,,,,,,,,,,,,,,,,,,,,,,,,,,,,,,,,,,,,,,,,,,,,,,,,,,,,,,,,,,,,,,,,,,,,,,,,,,,,,,,,,,,,,,,,,,
,,60e0fc6ba2a0b43c2e64fefb,2024-02-19_04h09.35.252,kallum_motion_pilot,2023.2.2,Win32,59.52380952,60e0fc6ba2a0b43c2e64fefb,65d2b6c8f2eece985d8e374c,65d2b81f17fc4d337441e430,0.3499,0.3509,0,144,144,105,1,fiveseven,,,,,,,,,,,,,,,,,,,,,,,,,,,,,,,,,,,,,,,,,,,,,,,,,,,,,,,,,,,,,,,,,,,,,,,,,,,,,,,,,,,,,,,,,,,,,,,,,,,,,,,,,,,,,,,,,,,,,,,,,,,,,,,,,,,,,,,,,
,,60e0fc6ba2a0b43c2e64fefb,2024-02-19_04h09.35.252,kallum_motion_pilot,2023.2.2,Win32,59.52380952,60e0fc6ba2a0b43c2e64fefb,65d2b6c8f2eece985d8e374c,65d2b81f17fc4d337441e430,0.3515,0.353,0,145,145,42,1,twoone,,,,,,,,,,,,,,,,,,,,,,,,,,,,,,,,,,,,,,,,,,,,,,,,,,,,,,,,,,,,,,,,,,,,,,,,,,,,,,,,,,,,,,,,,,,,,,,,,,,,,,,,,,,,,,,,,,,,,,,,,,,,,,,,,,,,,,,,,
,,60e0fc6ba2a0b43c2e64fefb,2024-02-19_04h09.35.252,kallum_motion_pilot,2023.2.2,Win32,59.52380952,60e0fc6ba2a0b43c2e64fefb,65d2b6c8f2eece985d8e374c,65d2b81f17fc4d337441e430,0.3543,0.3555,0,146,146,149,1,seveneight,,,,,,,,,,,,,,,,,,,,,,,,,,,,,,,,,,,,,,,,,,,,,,,,,,,,,,,,,,,,,,,,,,,,,,,,,,,,,,,,,,,,,,,,,,,,,,,,,,,,,,,,,,,,,,,,,,,,,,,,,,,,,,,,,,,,,,,,,
,,60e0fc6ba2a0b43c2e64fefb,2024-02-19_04h09.35.252,kallum_motion_pilot,2023.2.2,Win32,59.52380952,60e0fc6ba2a0b43c2e64fefb,65d2b6c8f2eece985d8e374c,65d2b81f17fc4d337441e430,0.3562,0.3567,0,147,147,23,1,fourthree,,,,,,,,,,,,,,,,,,,,,,,,,,,,,,,,,,,,,,,,,,,,,,,,,,,,,,,,,,,,,,,,,,,,,,,,,,,,,,,,,,,,,,,,,,,,,,,,,,,,,,,,,,,,,,,,,,,,,,,,,,,,,,,,,,,,,,,,,
,,60e0fc6ba2a0b43c2e64fefb,2024-02-19_04h09.35.252,kallum_motion_pilot,2023.2.2,Win32,59.52380952,60e0fc6ba2a0b43c2e64fefb,65d2b6c8f2eece985d8e374c,65d2b81f17fc4d337441e430,0.3573,0.3579,0,148,148,108,1,sevenfive,,,,,,,,,,,,,,,,,,,,,,,,,,,,,,,,,,,,,,,,,,,,,,,,,,,,,,,,,,,,,,,,,,,,,,,,,,,,,,,,,,,,,,,,,,,,,,,,,,,,,,,,,,,,,,,,,,,,,,,,,,,,,,,,,,,,,,,,,
,,60e0fc6ba2a0b43c2e64fefb,2024-02-19_04h09.35.252,kallum_motion_pilot,2023.2.2,Win32,59.52380952,60e0fc6ba2a0b43c2e64fefb,65d2b6c8f2eece985d8e374c,65d2b81f17fc4d337441e430,0.3596,0.36,0,149,149,24,1,onetwo,,,,,,,,,,,,,,,,,,,,,,,,,,,,,,,,,,,,,,,,,,,,,,,,,,,,,,,,,,,,,,,,,,,,,,,,,,,,,,,,,,,,,,,,,,,,,,,,,,,,,,,,,,,,,,,,,,,,,,,,,,,,,,,,,,,,,,,,,
,,60e0fc6ba2a0b43c2e64fefb,2024-02-19_04h09.35.252,kallum_motion_pilot,2023.2.2,Win32,59.52380952,60e0fc6ba2a0b43c2e64fefb,65d2b6c8f2eece985d8e374c,65d2b81f17fc4d337441e430,0.3612,0.3616,0,150,150,31,1,fourthree,,,,,,,,,,,,,,,,,,,,,,,,,,,,,,,,,,,,,,,,,,,,,,,,,,,,,,,,,,,,,,,,,,,,,,,,,,,,,,,,,,,,,,,,,,,,,,,,,,,,,,,,,,,,,,,,,,,,,,,,,,,,,,,,,,,,,,,,,
,,60e0fc6ba2a0b43c2e64fefb,2024-02-19_04h09.35.252,kallum_motion_pilot,2023.2.2,Win32,59.52380952,60e0fc6ba2a0b43c2e64fefb,65d2b6c8f2eece985d8e374c,65d2b81f17fc4d337441e430,0.3623,0.363,0,151,151,47,1,fourthree,,,,,,,,,,,,,,,,,,,,,,,,,,,,,,,,,,,,,,,,,,,,,,,,,,,,,,,,,,,,,,,,,,,,,,,,,,,,,,,,,,,,,,,,,,,,,,,,,,,,,,,,,,,,,,,,,,,,,,,,,,,,,,,,,,,,,,,,,
,,60e0fc6ba2a0b43c2e64fefb,2024-02-19_04h09.35.252,kallum_motion_pilot,2023.2.2,Win32,59.52380952,60e0fc6ba2a0b43c2e64fefb,65d2b6c8f2eece985d8e374c,65d2b81f17fc4d337441e430,0.3645,0.3648,0,152,152,122,1,sixfive,,,,,,,,,,,,,,,,,,,,,,,,,,,,,,,,,,,,,,,,,,,,,,,,,,,,,,,,,,,,,,,,,,,,,,,,,,,,,,,,,,,,,,,,,,,,,,,,,,,,,,,,,,,,,,,,,,,,,,,,,,,,,,,,,,,,,,,,,
,,60e0fc6ba2a0b43c2e64fefb,2024-02-19_04h09.35.252,kallum_motion_pilot,2023.2.2,Win32,59.52380952,60e0fc6ba2a0b43c2e64fefb,65d2b6c8f2eece985d8e374c,65d2b81f17fc4d337441e430,0.3657,0.3662,0,153,153,137,1,fiveseven,,,,,,,,,,,,,,,,,,,,,,,,,,,,,,,,,,,,,,,,,,,,,,,,,,,,,,,,,,,,,,,,,,,,,,,,,,,,,,,,,,,,,,,,,,,,,,,,,,,,,,,,,,,,,,,,,,,,,,,,,,,,,,,,,,,,,,,,,
,,60e0fc6ba2a0b43c2e64fefb,2024-02-19_04h09.35.252,kallum_motion_pilot,2023.2.2,Win32,59.52380952,60e0fc6ba2a0b43c2e64fefb,65d2b6c8f2eece985d8e374c,65d2b81f17fc4d337441e430,0.3668,0.3671,0,154,154,64,1,onetwo,,,,,,,,,,,,,,,,,,,,,,,,,,,,,,,,,,,,,,,,,,,,,,,,,,,,,,,,,,,,,,,,,,,,,,,,,,,,,,,,,,,,,,,,,,,,,,,,,,,,,,,,,,,,,,,,,,,,,,,,,,,,,,,,,,,,,,,,,
,,60e0fc6ba2a0b43c2e64fefb,2024-02-19_04h09.35.252,kallum_motion_pilot,2023.2.2,Win32,59.52380952,60e0fc6ba2a0b43c2e64fefb,65d2b6c8f2eece985d8e374c,65d2b81f17fc4d337441e430,0.3678,0.3682,0,155,155,125,1,seveneight,,,,,,,,,,,,,,,,,,,,,,,,,,,,,,,,,,,,,,,,,,,,,,,,,,,,,,,,,,,,,,,,,,,,,,,,,,,,,,,,,,,,,,,,,,,,,,,,,,,,,,,,,,,,,,,,,,,,,,,,,,,,,,,,,,,,,,,,,
,,60e0fc6ba2a0b43c2e64fefb,2024-02-19_04h09.35.252,kallum_motion_pilot,2023.2.2,Win32,59.52380952,60e0fc6ba2a0b43c2e64fefb,65d2b6c8f2eece985d8e374c,65d2b81f17fc4d337441e430,0.3694,0.3698,0,156,156,142,1,eightsix,,,,,,,,,,,,,,,,,,,,,,,,,,,,,,,,,,,,,,,,,,,,,,,,,,,,,,,,,,,,,,,,,,,,,,,,,,,,,,,,,,,,,,,,,,,,,,,,,,,,,,,,,,,,,,,,,,,,,,,,,,,,,,,,,,,,,,,,,
,,60e0fc6ba2a0b43c2e64fefb,2024-02-19_04h09.35.252,kallum_motion_pilot,2023.2.2,Win32,59.52380952,60e0fc6ba2a0b43c2e64fefb,65d2b6c8f2eece985d8e374c,65d2b81f17fc4d337441e430,0.3712,0.3715,0,157,157,131,1,sixeight,,,,,,,,,,,,,,,,,,,,,,,,,,,,,,,,,,,,,,,,,,,,,,,,,,,,,,,,,,,,,,,,,,,,,,,,,,,,,,,,,,,,,,,,,,,,,,,,,,,,,,,,,,,,,,,,,,,,,,,,,,,,,,,,,,,,,,,,,
,,60e0fc6ba2a0b43c2e64fefb,2024-02-19_04h09.35.252,kallum_motion_pilot,2023.2.2,Win32,59.52380952,60e0fc6ba2a0b43c2e64fefb,65d2b6c8f2eece985d8e374c,65d2b81f17fc4d337441e430,0.3723,0.3727,0,158,158,90,1,sixfive,,,,,,,,,,,,,,,,,,,,,,,,,,,,,,,,,,,,,,,,,,,,,,,,,,,,,,,,,,,,,,,,,,,,,,,,,,,,,,,,,,,,,,,,,,,,,,,,,,,,,,,,,,,,,,,,,,,,,,,,,,,,,,,,,,,,,,,,,
,,60e0fc6ba2a0b43c2e64fefb,2024-02-19_04h09.35.252,kallum_motion_pilot,2023.2.2,Win32,59.52380952,60e0fc6ba2a0b43c2e64fefb,65d2b6c8f2eece985d8e374c,65d2b81f17fc4d337441e430,0.3743,0.3746,0,159,159,61,1,threefour,,,,,,,,,,,,,,,,,,,,,,,,,,,,,,,,,,,,,,,,,,,,,,,,,,,,,,,,,,,,,,,,,,,,,,,,,,,,,,,,,,,,,,,,,,,,,,,,,,,,,,,,,,,,,,,,,,,,,,,,,,,,,,,,,,,,,,,,,
,,60e0fc6ba2a0b43c2e64fefb,2024-02-19_04h09.35.252,kallum_motion_pilot,2023.2.2,Win32,59.52380952,60e0fc6ba2a0b43c2e64fefb,65d2b6c8f2eece985d8e374c,65d2b81f17fc4d337441e430,0.3753,0.3758,0,160,160,77,1,threefour,,,,,,,,,,,,,,,,,,,,,,,,,,,,,,,,,,,,,,,,,,,,,,,,,,,,,,,,,,,,,,,,,,,,,,,,,,,,,,,,,,,,,,,,,,,,,,,,,,,,,,,,,,,,,,,,,,,,,,,,,,,,,,,,,,,,,,,,,
,,60e0fc6ba2a0b43c2e64fefb,2024-02-19_04h09.35.252,kallum_motion_pilot,2023.2.2,Win32,59.52380952,60e0fc6ba2a0b43c2e64fefb,65d2b6c8f2eece985d8e374c,65d2b81f17fc4d337441e430,0.3763,0.3767,0,161,161,12,1,threeone,,,,,,,,,,,,,,,,,,,,,,,,,,,,,,,,,,,,,,,,,,,,,,,,,,,,,,,,,,,,,,,,,,,,,,,,,,,,,,,,,,,,,,,,,,,,,,,,,,,,,,,,,,,,,,,,,,,,,,,,,,,,,,,,,,,,,,,,,
,,60e0fc6ba2a0b43c2e64fefb,2024-02-19_04h09.35.252,kallum_motion_pilot,2023.2.2,Win32,59.52380952,60e0fc6ba2a0b43c2e64fefb,65d2b6c8f2eece985d8e374c,65d2b81f17fc4d337441e430,0.3775,0.3781,1,0,162,18,1,twoone,,,,,,,,,,,,,,,,,,,,,,,,,,,,,,,,,,,,,,,,,,,,,,,,,,,,,,,,,,,,,,,,,,,,,,,,,,,,,,,,,,,,,,,,,,,,,,,,,,,,,,,,,,,,,,,,,,,,,,,,,,,,,,,,,,,,,,,,,
,,60e0fc6ba2a0b43c2e64fefb,2024-02-19_04h09.35.252,kallum_motion_pilot,2023.2.2,Win32,59.52380952,60e0fc6ba2a0b43c2e64fefb,65d2b6c8f2eece985d8e374c,65d2b81f17fc4d337441e430,0.3788,0.3795,1,1,163,133,1,seveneight,,,,,,,,,,,,,,,,,,,,,,,,,,,,,,,,,,,,,,,,,,,,,,,,,,,,,,,,,,,,,,,,,,,,,,,,,,,,,,,,,,,,,,,,,,,,,,,,,,,,,,,,,,,,,,,,,,,,,,,,,,,,,,,,,,,,,,,,,
,,60e0fc6ba2a0b43c2e64fefb,2024-02-19_04h09.35.252,kallum_motion_pilot,2023.2.2,Win32,59.52380952,60e0fc6ba2a0b43c2e64fefb,65d2b6c8f2eece985d8e374c,65d2b81f17fc4d337441e430,0.3806,0.3816,1,2,164,46,1,fourtwo,,,,,,,,,,,,,,,,,,,,,,,,,,,,,,,,,,,,,,,,,,,,,,,,,,,,,,,,,,,,,,,,,,,,,,,,,,,,,,,,,,,,,,,,,,,,,,,,,,,,,,,,,,,,,,,,,,,,,,,,,,,,,,,,,,,,,,,,,
,,60e0fc6ba2a0b43c2e64fefb,2024-02-19_04h09.35.252,kallum_motion_pilot,2023.2.2,Win32,59.52380952,60e0fc6ba2a0b43c2e64fefb,65d2b6c8f2eece985d8e374c,65d2b81f17fc4d337441e430,0.3826,0.3831,1,3,165,68,1,threeone,,,,,,,,,,,,,,,,,,,,,,,,,,,,,,,,,,,,,,,,,,,,,,,,,,,,,,,,,,,,,,,,,,,,,,,,,,,,,,,,,,,,,,,,,,,,,,,,,,,,,,,,,,,,,,,,,,,,,,,,,,,,,,,,,,,,,,,,,
,,60e0fc6ba2a0b43c2e64fefb,2024-02-19_04h09.35.252,kallum_motion_pilot,2023.2.2,Win32,59.52380952,60e0fc6ba2a0b43c2e64fefb,65d2b6c8f2eece985d8e374c,65d2b81f17fc4d337441e430,0.3837,0.3841,1,4,166,8,1,onetwo,,,,,,,,,,,,,,,,,,,,,,,,,,,,,,,,,,,,,,,,,,,,,,,,,,,,,,,,,,,,,,,,,,,,,,,,,,,,,,,,,,,,,,,,,,,,,,,,,,,,,,,,,,,,,,,,,,,,,,,,,,,,,,,,,,,,,,,,,
,,60e0fc6ba2a0b43c2e64fefb,2024-02-19_04h09.35.252,kallum_motion_pilot,2023.2.2,Win32,59.52380952,60e0fc6ba2a0b43c2e64fefb,65d2b6c8f2eece985d8e374c,65d2b81f17fc4d337441e430,0.3849,0.3858,1,5,167,86,1,eightsix,,,,,,,,,,,,,,,,,,,,,,,,,,,,,,,,,,,,,,,,,,,,,,,,,,,,,,,,,,,,,,,,,,,,,,,,,,,,,,,,,,,,,,,,,,,,,,,,,,,,,,,,,,,,,,,,,,,,,,,,,,,,,,,,,,,,,,,,,
,,60e0fc6ba2a0b43c2e64fefb,2024-02-19_04h09.35.252,kallum_motion_pilot,2023.2.2,Win32,59.52380952,60e0fc6ba2a0b43c2e64fefb,65d2b6c8f2eece985d8e374c,65d2b81f17fc4d337441e430,0.3867,0.3873,1,6,168,70,1,fourtwo,,,,,,,,,,,,,,,,,,,,,,,,,,,,,,,,,,,,,,,,,,,,,,,,,,,,,,,,,,,,,,,,,,,,,,,,,,,,,,,,,,,,,,,,,,,,,,,,,,,,,,,,,,,,,,,,,,,,,,,,,,,,,,,,,,,,,,,,,
,,60e0fc6ba2a0b43c2e64fefb,2024-02-19_04h09.35.252,kallum_motion_pilot,2023.2.2,Win32,59.52380952,60e0fc6ba2a0b43c2e64fefb,65d2b6c8f2eece985d8e374c,65d2b81f17fc4d337441e430,0.3879,0.3884,1,7,169,161,1,fiveseven,,,,,,,,,,,,,,,,,,,,,,,,,,,,,,,,,,,,,,,,,,,,,,,,,,,,,,,,,,,,,,,,,,,,,,,,,,,,,,,,,,,,,,,,,,,,,,,,,,,,,,,,,,,,,,,,,,,,,,,,,,,,,,,,,,,,,,,,,
,,60e0fc6ba2a0b43c2e64fefb,2024-02-19_04h09.35.252,kallum_motion_pilot,2023.2.2,Win32,59.52380952,60e0fc6ba2a0b43c2e64fefb,65d2b6c8f2eece985d8e374c,65d2b81f17fc4d337441e430,0.389,0.39,1,8,170,42,1,twoone,,,,,,,,,,,,,,,,,,,,,,,,,,,,,,,,,,,,,,,,,,,,,,,,,,,,,,,,,,,,,,,,,,,,,,,,,,,,,,,,,,,,,,,,,,,,,,,,,,,,,,,,,,,,,,,,,,,,,,,,,,,,,,,,,,,,,,,,,
,,60e0fc6ba2a0b43c2e64fefb,2024-02-19_04h09.35.252,kallum_motion_pilot,2023.2.2,Win32,59.52380952,60e0fc6ba2a0b43c2e64fefb,65d2b6c8f2eece985d8e374c,65d2b81f17fc4d337441e430,0.3913,0.3922,1,9,171,28,1,threeone,,,,,,,,,,,,,,,,,,,,,,,,,,,,,,,,,,,,,,,,,,,,,,,,,,,,,,,,,,,,,,,,,,,,,,,,,,,,,,,,,,,,,,,,,,,,,,,,,,,,,,,,,,,,,,,,,,,,,,,,,,,,,,,,,,,,,,,,,
,,60e0fc6ba2a0b43c2e64fefb,2024-02-19_04h09.35.252,kallum_motion_pilot,2023.2.2,Win32,59.52380952,60e0fc6ba2a0b43c2e64fefb,65d2b6c8f2eece985d8e374c,65d2b81f17fc4d337441e430,0.3929,0.3935,1,10,172,41,1,onethree,,,,,,,,,,,,,,,,,,,,,,,,,,,,,,,,,,,,,,,,,,,,,,,,,,,,,,,,,,,,,,,,,,,,,,,,,,,,,,,,,,,,,,,,,,,,,,,,,,,,,,,,,,,,,,,,,,,,,,,,,,,,,,,,,,,,,,,,,
,,60e0fc6ba2a0b43c2e64fefb,2024-02-19_04h09.35.252,kallum_motion_pilot,2023.2.2,Win32,59.52380952,60e0fc6ba2a0b43c2e64fefb,65d2b6c8f2eece985d8e374c,65d2b81f17fc4d337441e430,0.3941,0.3945,1,11,173,3,1,twofour,,,,,,,,,,,,,,,,,,,,,,,,,,,,,,,,,,,,,,,,,,,,,,,,,,,,,,,,,,,,,,,,,,,,,,,,,,,,,,,,,,,,,,,,,,,,,,,,,,,,,,,,,,,,,,,,,,,,,,,,,,,,,,,,,,,,,,,,,
,,60e0fc6ba2a0b43c2e64fefb,2024-02-19_04h09.35.252,kallum_motion_pilot,2023.2.2,Win32,59.52380952,60e0fc6ba2a0b43c2e64fefb,65d2b6c8f2eece985d8e374c,65d2b81f17fc4d337441e430,0.3952,0.3954,1,12,174,91,1,sixeight,,,,,,,,,,,,,,,,,,,,,,,,,,,,,,,,,,,,,,,,,,,,,,,,,,,,,,,,,,,,,,,,,,,,,,,,,,,,,,,,,,,,,,,,,,,,,,,,,,,,,,,,,,,,,,,,,,,,,,,,,,,,,,,,,,,,,,,,,
,,60e0fc6ba2a0b43c2e64fefb,2024-02-19_04h09.35.252,kallum_motion_pilot,2023.2.2,Win32,59.52380952,60e0fc6ba2a0b43c2e64fefb,65d2b6c8f2eece985d8e374c,65d2b81f17fc4d337441e430,0.3961,0.3964,1,13,175,67,1,twofour,,,,,,,,,,,,,,,,,,,,,,,,,,,,,,,,,,,,,,,,,,,,,,,,,,,,,,,,,,,,,,,,,,,,,,,,,,,,,,,,,,,,,,,,,,,,,,,,,,,,,,,,,,,,,,,,,,,,,,,,,,,,,,,,,,,,,,,,,
,,60e0fc6ba2a0b43c2e64fefb,2024-02-19_04h09.35.252,kallum_motion_pilot,2023.2.2,Win32,59.52380952,60e0fc6ba2a0b43c2e64fefb,65d2b6c8f2eece985d8e374c,65d2b81f17fc4d337441e430,0.3971,0.3975,1,14,176,126,1,eightsix,,,,,,,,,,,,,,,,,,,,,,,,,,,,,,,,,,,,,,,,,,,,,,,,,,,,,,,,,,,,,,,,,,,,,,,,,,,,,,,,,,,,,,,,,,,,,,,,,,,,,,,,,,,,,,,,,,,,,,,,,,,,,,,,,,,,,,,,,
,,60e0fc6ba2a0b43c2e64fefb,2024-02-19_04h09.35.252,kallum_motion_pilot,2023.2.2,Win32,59.52380952,60e0fc6ba2a0b43c2e64fefb,65d2b6c8f2eece985d8e374c,65d2b81f17fc4d337441e430,0.3981,0.3984,1,15,177,140,1,sevenfive,,,,,,,,,,,,,,,,,,,,,,,,,,,,,,,,,,,,,,,,,,,,,,,,,,,,,,,,,,,,,,,,,,,,,,,,,,,,,,,,,,,,,,,,,,,,,,,,,,,,,,,,,,,,,,,,,,,,,,,,,,,,,,,,,,,,,,,,,
,,60e0fc6ba2a0b43c2e64fefb,2024-02-19_04h09.35.252,kallum_motion_pilot,2023.2.2,Win32,59.52380952,60e0fc6ba2a0b43c2e64fefb,65d2b6c8f2eece985d8e374c,65d2b81f17fc4d337441e430,0.399,0.3996,1,16,178,77,1,threefour,,,,,,,,,,,,,,,,,,,,,,,,,,,,,,,,,,,,,,,,,,,,,,,,,,,,,,,,,,,,,,,,,,,,,,,,,,,,,,,,,,,,,,,,,,,,,,,,,,,,,,,,,,,,,,,,,,,,,,,,,,,,,,,,,,,,,,,,,
,,60e0fc6ba2a0b43c2e64fefb,2024-02-19_04h09.35.252,kallum_motion_pilot,2023.2.2,Win32,59.52380952,60e0fc6ba2a0b43c2e64fefb,65d2b6c8f2eece985d8e374c,65d2b81f17fc4d337441e430,0.4011,0.4026,1,17,179,141,1,seveneight,,,,,,,,,,,,,,,,,,,,,,,,,,,,,,,,,,,,,,,,,,,,,,,,,,,,,,,,,,,,,,,,,,,,,,,,,,,,,,,,,,,,,,,,,,,,,,,,,,,,,,,,,,,,,,,,,,,,,,,,,,,,,,,,,,,,,,,,,
,,60e0fc6ba2a0b43c2e64fefb,2024-02-19_04h09.35.252,kallum_motion_pilot,2023.2.2,Win32,59.52380952,60e0fc6ba2a0b43c2e64fefb,65d2b6c8f2eece985d8e374c,65d2b81f17fc4d337441e430,0.4034,0.404,1,18,180,9,1,onethree,,,,,,,,,,,,,,,,,,,,,,,,,,,,,,,,,,,,,,,,,,,,,,,,,,,,,,,,,,,,,,,,,,,,,,,,,,,,,,,,,,,,,,,,,,,,,,,,,,,,,,,,,,,,,,,,,,,,,,,,,,,,,,,,,,,,,,,,,
,,60e0fc6ba2a0b43c2e64fefb,2024-02-19_04h09.35.252,kallum_motion_pilot,2023.2.2,Win32,59.52380952,60e0fc6ba2a0b43c2e64fefb,65d2b6c8f2eece985d8e374c,65d2b81f17fc4d337441e430,0.4046,0.405,1,19,181,57,1,onethree,,,,,,,,,,,,,,,,,,,,,,,,,,,,,,,,,,,,,,,,,,,,,,,,,,,,,,,,,,,,,,,,,,,,,,,,,,,,,,,,,,,,,,,,,,,,,,,,,,,,,,,,,,,,,,,,,,,,,,,,,,,,,,,,,,,,,,,,,
,,60e0fc6ba2a0b43c2e64fefb,2024-02-19_04h09.35.252,kallum_motion_pilot,2023.2.2,Win32,59.52380952,60e0fc6ba2a0b43c2e64fefb,65d2b6c8f2eece985d8e374c,65d2b81f17fc4d337441e430,0.4056,0.4061,1,20,182,93,1,seveneight,,,,,,,,,,,,,,,,,,,,,,,,,,,,,,,,,,,,,,,,,,,,,,,,,,,,,,,,,,,,,,,,,,,,,,,,,,,,,,,,,,,,,,,,,,,,,,,,,,,,,,,,,,,,,,,,,,,,,,,,,,,,,,,,,,,,,,,,,
,,60e0fc6ba2a0b43c2e64fefb,2024-02-19_04h09.35.252,kallum_motion_pilot,2023.2.2,Win32,59.52380952,60e0fc6ba2a0b43c2e64fefb,65d2b6c8f2eece985d8e374c,65d2b81f17fc4d337441e430,0.4069,0.4074,1,21,183,13,1,threefour,,,,,,,,,,,,,,,,,,,,,,,,,,,,,,,,,,,,,,,,,,,,,,,,,,,,,,,,,,,,,,,,,,,,,,,,,,,,,,,,,,,,,,,,,,,,,,,,,,,,,,,,,,,,,,,,,,,,,,,,,,,,,,,,,,,,,,,,,
,,60e0fc6ba2a0b43c2e64fefb,2024-02-19_04h09.35.252,kallum_motion_pilot,2023.2.2,Win32,59.52380952,60e0fc6ba2a0b43c2e64fefb,65d2b6c8f2eece985d8e374c,65d2b81f17fc4d337441e430,0.4088,0.4096,1,22,184,51,1,twofour,,,,,,,,,,,,,,,,,,,,,,,,,,,,,,,,,,,,,,,,,,,,,,,,,,,,,,,,,,,,,,,,,,,,,,,,,,,,,,,,,,,,,,,,,,,,,,,,,,,,,,,,,,,,,,,,,,,,,,,,,,,,,,,,,,,,,,,,,
,,60e0fc6ba2a0b43c2e64fefb,2024-02-19_04h09.35.252,kallum_motion_pilot,2023.2.2,Win32,59.52380952,60e0fc6ba2a0b43c2e64fefb,65d2b6c8f2eece985d8e374c,65d2b81f17fc4d337441e430,0.411,0.4115,1,23,185,139,1,sixeight,,,,,,,,,,,,,,,,,,,,,,,,,,,,,,,,,,,,,,,,,,,,,,,,,,,,,,,,,,,,,,,,,,,,,,,,,,,,,,,,,,,,,,,,,,,,,,,,,,,,,,,,,,,,,,,,,,,,,,,,,,,,,,,,,,,,,,,,,
,,60e0fc6ba2a0b43c2e64fefb,2024-02-19_04h09.35.252,kallum_motion_pilot,2023.2.2,Win32,59.52380952,60e0fc6ba2a0b43c2e64fefb,65d2b6c8f2eece985d8e374c,65d2b81f17fc4d337441e430,0.4123,0.4127,1,24,186,63,1,fourthree,,,,,,,,,,,,,,,,,,,,,,,,,,,,,,,,,,,,,,,,,,,,,,,,,,,,,,,,,,,,,,,,,,,,,,,,,,,,,,,,,,,,,,,,,,,,,,,,,,,,,,,,,,,,,,,,,,,,,,,,,,,,,,,,,,,,,,,,,
,,60e0fc6ba2a0b43c2e64fefb,2024-02-19_04h09.35.252,kallum_motion_pilot,2023.2.2,Win32,59.52380952,60e0fc6ba2a0b43c2e64fefb,65d2b6c8f2eece985d8e374c,65d2b81f17fc4d337441e430,0.4133,0.4137,1,25,187,55,1,fourthree,,,,,,,,,,,,,,,,,,,,,,,,,,,,,,,,,,,,,,,,,,,,,,,,,,,,,,,,,,,,,,,,,,,,,,,,,,,,,,,,,,,,,,,,,,,,,,,,,,,,,,,,,,,,,,,,,,,,,,,,,,,,,,,,,,,,,,,,,
,,60e0fc6ba2a0b43c2e64fefb,2024-02-19_04h09.35.252,kallum_motion_pilot,2023.2.2,Win32,59.52380952,60e0fc6ba2a0b43c2e64fefb,65d2b6c8f2eece985d8e374c,65d2b81f17fc4d337441e430,0.4143,0.4148,1,26,188,20,1,threeone,,,,,,,,,,,,,,,,,,,,,,,,,,,,,,,,,,,,,,,,,,,,,,,,,,,,,,,,,,,,,,,,,,,,,,,,,,,,,,,,,,,,,,,,,,,,,,,,,,,,,,,,,,,,,,,,,,,,,,,,,,,,,,,,,,,,,,,,,
,,60e0fc6ba2a0b43c2e64fefb,2024-02-19_04h09.35.252,kallum_motion_pilot,2023.2.2,Win32,59.52380952,60e0fc6ba2a0b43c2e64fefb,65d2b6c8f2eece985d8e374c,65d2b81f17fc4d337441e430,0.4155,0.4158,1,27,189,155,1,sixeight,,,,,,,,,,,,,,,,,,,,,,,,,,,,,,,,,,,,,,,,,,,,,,,,,,,,,,,,,,,,,,,,,,,,,,,,,,,,,,,,,,,,,,,,,,,,,,,,,,,,,,,,,,,,,,,,,,,,,,,,,,,,,,,,,,,,,,,,,
,,60e0fc6ba2a0b43c2e64fefb,2024-02-19_04h09.35.252,kallum_motion_pilot,2023.2.2,Win32,59.52380952,60e0fc6ba2a0b43c2e64fefb,65d2b6c8f2eece985d8e374c,65d2b81f17fc4d337441e430,0.4165,0.4169,1,28,190,117,1,seveneight,,,,,,,,,,,,,,,,,,,,,,,,,,,,,,,,,,,,,,,,,,,,,,,,,,,,,,,,,,,,,,,,,,,,,,,,,,,,,,,,,,,,,,,,,,,,,,,,,,,,,,,,,,,,,,,,,,,,,,,,,,,,,,,,,,,,,,,,,
,,60e0fc6ba2a0b43c2e64fefb,2024-02-19_04h09.35.252,kallum_motion_pilot,2023.2.2,Win32,59.52380952,60e0fc6ba2a0b43c2e64fefb,65d2b6c8f2eece985d8e374c,65d2b81f17fc4d337441e430,0.4173,0.4178,1,29,191,145,1,fiveseven,,,,,,,,,,,,,,,,,,,,,,,,,,,,,,,,,,,,,,,,,,,,,,,,,,,,,,,,,,,,,,,,,,,,,,,,,,,,,,,,,,,,,,,,,,,,,,,,,,,,,,,,,,,,,,,,,,,,,,,,,,,,,,,,,,,,,,,,,
,,60e0fc6ba2a0b43c2e64fefb,2024-02-19_04h09.35.252,kallum_motion_pilot,2023.2.2,Win32,59.52380952,60e0fc6ba2a0b43c2e64fefb,65d2b6c8f2eece985d8e374c,65d2b81f17fc4d337441e430,0.4183,0.4199,1,30,192,121,1,fiveseven,,,,,,,,,,,,,,,,,,,,,,,,,,,,,,,,,,,,,,,,,,,,,,,,,,,,,,,,,,,,,,,,,,,,,,,,,,,,,,,,,,,,,,,,,,,,,,,,,,,,,,,,,,,,,,,,,,,,,,,,,,,,,,,,,,,,,,,,,
,,60e0fc6ba2a0b43c2e64fefb,2024-02-19_04h09.35.252,kallum_motion_pilot,2023.2.2,Win32,59.52380952,60e0fc6ba2a0b43c2e64fefb,65d2b6c8f2eece985d8e374c,65d2b81f17fc4d337441e430,0.4212,0.4222,1,31,193,95,1,eightseven,,,,,,,,,,,,,,,,,,,,,,,,,,,,,,,,,,,,,,,,,,,,,,,,,,,,,,,,,,,,,,,,,,,,,,,,,,,,,,,,,,,,,,,,,,,,,,,,,,,,,,,,,,,,,,,,,,,,,,,,,,,,,,,,,,,,,,,,,
,,60e0fc6ba2a0b43c2e64fefb,2024-02-19_04h09.35.252,kallum_motion_pilot,2023.2.2,Win32,59.52380952,60e0fc6ba2a0b43c2e64fefb,65d2b6c8f2eece985d8e374c,65d2b81f17fc4d337441e430,0.423,0.4236,1,32,194,82,1,sixfive,,,,,,,,,,,,,,,,,,,,,,,,,,,,,,,,,,,,,,,,,,,,,,,,,,,,,,,,,,,,,,,,,,,,,,,,,,,,,,,,,,,,,,,,,,,,,,,,,,,,,,,,,,,,,,,,,,,,,,,,,,,,,,,,,,,,,,,,,
,,60e0fc6ba2a0b43c2e64fefb,2024-02-19_04h09.35.252,kallum_motion_pilot,2023.2.2,Win32,59.52380952,60e0fc6ba2a0b43c2e64fefb,65d2b6c8f2eece985d8e374c,65d2b81f17fc4d337441e430,0.4241,0.4247,1,33,195,10,1,twoone,,,,,,,,,,,,,,,,,,,,,,,,,,,,,,,,,,,,,,,,,,,,,,,,,,,,,,,,,,,,,,,,,,,,,,,,,,,,,,,,,,,,,,,,,,,,,,,,,,,,,,,,,,,,,,,,,,,,,,,,,,,,,,,,,,,,,,,,,
,,60e0fc6ba2a0b43c2e64fefb,2024-02-19_04h09.35.252,kallum_motion_pilot,2023.2.2,Win32,59.52380952,60e0fc6ba2a0b43c2e64fefb,65d2b6c8f2eece985d8e374c,65d2b81f17fc4d337441e430,0.4252,0.4258,1,34,196,79,1,eightseven,,,,,,,,,,,,,,,,,,,,,,,,,,,,,,,,,,,,,,,,,,,,,,,,,,,,,,,,,,,,,,,,,,,,,,,,,,,,,,,,,,,,,,,,,,,,,,,,,,,,,,,,,,,,,,,,,,,,,,,,,,,,,,,,,,,,,,,,,
,,60e0fc6ba2a0b43c2e64fefb,2024-02-19_04h09.35.252,kallum_motion_pilot,2023.2.2,Win32,59.52380952,60e0fc6ba2a0b43c2e64fefb,65d2b6c8f2eece985d8e374c,65d2b81f17fc4d337441e430,0.4264,0.427,1,35,197,23,1,fourthree,,,,,,,,,,,,,,,,,,,,,,,,,,,,,,,,,,,,,,,,,,,,,,,,,,,,,,,,,,,,,,,,,,,,,,,,,,,,,,,,,,,,,,,,,,,,,,,,,,,,,,,,,,,,,,,,,,,,,,,,,,,,,,,,,,,,,,,,,
,,60e0fc6ba2a0b43c2e64fefb,2024-02-19_04h09.35.252,kallum_motion_pilot,2023.2.2,Win32,59.52380952,60e0fc6ba2a0b43c2e64fefb,65d2b6c8f2eece985d8e374c,65d2b81f17fc4d337441e430,0.4278,0.428,1,36,198,26,1,twoone,,,,,,,,,,,,,,,,,,,,,,,,,,,,,,,,,,,,,,,,,,,,,,,,,,,,,,,,,,,,,,,,,,,,,,,,,,,,,,,,,,,,,,,,,,,,,,,,,,,,,,,,,,,,,,,,,,,,,,,,,,,,,,,,,,,,,,,,,
,,60e0fc6ba2a0b43c2e64fefb,2024-02-19_04h09.35.252,kallum_motion_pilot,2023.2.2,Win32,59.52380952,60e0fc6ba2a0b43c2e64fefb,65d2b6c8f2eece985d8e374c,65d2b81f17fc4d337441e430,0.4288,0.4292,1,37,199,71,1,fourthree,,,,,,,,,,,,,,,,,,,,,,,,,,,,,,,,,,,,,,,,,,,,,,,,,,,,,,,,,,,,,,,,,,,,,,,,,,,,,,,,,,,,,,,,,,,,,,,,,,,,,,,,,,,,,,,,,,,,,,,,,,,,,,,,,,,,,,,,,
,,60e0fc6ba2a0b43c2e64fefb,2024-02-19_04h09.35.252,kallum_motion_pilot,2023.2.2,Win32,59.52380952,60e0fc6ba2a0b43c2e64fefb,65d2b6c8f2eece985d8e374c,65d2b81f17fc4d337441e430,0.4299,0.4308,1,38,200,136,1,fivesix,,,,,,,,,,,,,,,,,,,,,,,,,,,,,,,,,,,,,,,,,,,,,,,,,,,,,,,,,,,,,,,,,,,,,,,,,,,,,,,,,,,,,,,,,,,,,,,,,,,,,,,,,,,,,,,,,,,,,,,,,,,,,,,,,,,,,,,,,
,,60e0fc6ba2a0b43c2e64fefb,2024-02-19_04h09.35.252,kallum_motion_pilot,2023.2.2,Win32,59.52380952,60e0fc6ba2a0b43c2e64fefb,65d2b6c8f2eece985d8e374c,65d2b81f17fc4d337441e430,0.4322,0.4325,1,39,201,111,1,eightseven,,,,,,,,,,,,,,,,,,,,,,,,,,,,,,,,,,,,,,,,,,,,,,,,,,,,,,,,,,,,,,,,,,,,,,,,,,,,,,,,,,,,,,,,,,,,,,,,,,,,,,,,,,,,,,,,,,,,,,,,,,,,,,,,,,,,,,,,,
,,60e0fc6ba2a0b43c2e64fefb,2024-02-19_04h09.35.252,kallum_motion_pilot,2023.2.2,Win32,59.52380952,60e0fc6ba2a0b43c2e64fefb,65d2b6c8f2eece985d8e374c,65d2b81f17fc4d337441e430,0.4333,0.4338,1,40,202,137,1,fiveseven,,,,,,,,,,,,,,,,,,,,,,,,,,,,,,,,,,,,,,,,,,,,,,,,,,,,,,,,,,,,,,,,,,,,,,,,,,,,,,,,,,,,,,,,,,,,,,,,,,,,,,,,,,,,,,,,,,,,,,,,,,,,,,,,,,,,,,,,,
,,60e0fc6ba2a0b43c2e64fefb,2024-02-19_04h09.35.252,kallum_motion_pilot,2023.2.2,Win32,59.52380952,60e0fc6ba2a0b43c2e64fefb,65d2b6c8f2eece985d8e374c,65d2b81f17fc4d337441e430,0.4343,0.4348,1,41,203,138,1,sixfive,,,,,,,,,,,,,,,,,,,,,,,,,,,,,,,,,,,,,,,,,,,,,,,,,,,,,,,,,,,,,,,,,,,,,,,,,,,,,,,,,,,,,,,,,,,,,,,,,,,,,,,,,,,,,,,,,,,,,,,,,,,,,,,,,,,,,,,,,
,,60e0fc6ba2a0b43c2e64fefb,2024-02-19_04h09.35.252,kallum_motion_pilot,2023.2.2,Win32,59.52380952,60e0fc6ba2a0b43c2e64fefb,65d2b6c8f2eece985d8e374c,65d2b81f17fc4d337441e430,0.4362,0.4365,1,42,204,109,1,seveneight,,,,,,,,,,,,,,,,,,,,,,,,,,,,,,,,,,,,,,,,,,,,,,,,,,,,,,,,,,,,,,,,,,,,,,,,,,,,,,,,,,,,,,,,,,,,,,,,,,,,,,,,,,,,,,,,,,,,,,,,,,,,,,,,,,,,,,,,,
,,60e0fc6ba2a0b43c2e64fefb,2024-02-19_04h09.35.252,kallum_motion_pilot,2023.2.2,Win32,59.52380952,60e0fc6ba2a0b43c2e64fefb,65d2b6c8f2eece985d8e374c,65d2b81f17fc4d337441e430,0.4374,0.4378,1,43,205,17,1,onethree,,,,,,,,,,,,,,,,,,,,,,,,,,,,,,,,,,,,,,,,,,,,,,,,,,,,,,,,,,,,,,,,,,,,,,,,,,,,,,,,,,,,,,,,,,,,,,,,,,,,,,,,,,,,,,,,,,,,,,,,,,,,,,,,,,,,,,,,,
,,60e0fc6ba2a0b43c2e64fefb,2024-02-19_04h09.35.252,kallum_motion_pilot,2023.2.2,Win32,59.52380952,60e0fc6ba2a0b43c2e64fefb,65d2b6c8f2eece985d8e374c,65d2b81f17fc4d337441e430,0.4383,0.4388,1,44,206,159,1,eightseven,,,,,,,,,,,,,,,,,,,,,,,,,,,,,,,,,,,,,,,,,,,,,,,,,,,,,,,,,,,,,,,,,,,,,,,,,,,,,,,,,,,,,,,,,,,,,,,,,,,,,,,,,,,,,,,,,,,,,,,,,,,,,,,,,,,,,,,,,
,,60e0fc6ba2a0b43c2e64fefb,2024-02-19_04h09.35.252,kallum_motion_pilot,2023.2.2,Win32,59.52380952,60e0fc6ba2a0b43c2e64fefb,65d2b6c8f2eece985d8e374c,65d2b81f17fc4d337441e430,0.4394,0.4398,1,45,207,129,1,fiveseven,,,,,,,,,,,,,,,,,,,,,,,,,,,,,,,,,,,,,,,,,,,,,,,,,,,,,,,,,,,,,,,,,,,,,,,,,,,,,,,,,,,,,,,,,,,,,,,,,,,,,,,,,,,,,,,,,,,,,,,,,,,,,,,,,,,,,,,,,
,,60e0fc6ba2a0b43c2e64fefb,2024-02-19_04h09.35.252,kallum_motion_pilot,2023.2.2,Win32,59.52380952,60e0fc6ba2a0b43c2e64fefb,65d2b6c8f2eece985d8e374c,65d2b81f17fc4d337441e430,0.4412,0.4422,1,46,208,112,1,fivesix,,,,,,,,,,,,,,,,,,,,,,,,,,,,,,,,,,,,,,,,,,,,,,,,,,,,,,,,,,,,,,,,,,,,,,,,,,,,,,,,,,,,,,,,,,,,,,,,,,,,,,,,,,,,,,,,,,,,,,,,,,,,,,,,,,,,,,,,,
,,60e0fc6ba2a0b43c2e64fefb,2024-02-19_04h09.35.252,kallum_motion_pilot,2023.2.2,Win32,59.52380952,60e0fc6ba2a0b43c2e64fefb,65d2b6c8f2eece985d8e374c,65d2b81f17fc4d337441e430,0.4429,0.4435,1,47,209,96,1,fivesix,,,,,,,,,,,,,,,,,,,,,,,,,,,,,,,,,,,,,,,,,,,,,,,,,,,,,,,,,,,,,,,,,,,,,,,,,,,,,,,,,,,,,,,,,,,,,,,,,,,,,,,,,,,,,,,,,,,,,,,,,,,,,,,,,,,,,,,,,
,,60e0fc6ba2a0b43c2e64fefb,2024-02-19_04h09.35.252,kallum_motion_pilot,2023.2.2,Win32,59.52380952,60e0fc6ba2a0b43c2e64fefb,65d2b6c8f2eece985d8e374c,65d2b81f17fc4d337441e430,0.4441,0.4445,1,48,210,125,1,seveneight,,,,,,,,,,,,,,,,,,,,,,,,,,,,,,,,,,,,,,,,,,,,,,,,,,,,,,,,,,,,,,,,,,,,,,,,,,,,,,,,,,,,,,,,,,,,,,,,,,,,,,,,,,,,,,,,,,,,,,,,,,,,,,,,,,,,,,,,,
,,60e0fc6ba2a0b43c2e64fefb,2024-02-19_04h09.35.252,kallum_motion_pilot,2023.2.2,Win32,59.52380952,60e0fc6ba2a0b43c2e64fefb,65d2b6c8f2eece985d8e374c,65d2b81f17fc4d337441e430,0.4451,0.4454,1,49,211,39,1,fourthree,,,,,,,,,,,,,,,,,,,,,,,,,,,,,,,,,,,,,,,,,,,,,,,,,,,,,,,,,,,,,,,,,,,,,,,,,,,,,,,,,,,,,,,,,,,,,,,,,,,,,,,,,,,,,,,,,,,,,,,,,,,,,,,,,,,,,,,,,
,,60e0fc6ba2a0b43c2e64fefb,2024-02-19_04h09.35.252,kallum_motion_pilot,2023.2.2,Win32,59.52380952,60e0fc6ba2a0b43c2e64fefb,65d2b6c8f2eece985d8e374c,65d2b81f17fc4d337441e430,0.4461,0.4465,1,50,212,22,1,fourtwo,,,,,,,,,,,,,,,,,,,,,,,,,,,,,,,,,,,,,,,,,,,,,,,,,,,,,,,,,,,,,,,,,,,,,,,,,,,,,,,,,,,,,,,,,,,,,,,,,,,,,,,,,,,,,,,,,,,,,,,,,,,,,,,,,,,,,,,,,
,,60e0fc6ba2a0b43c2e64fefb,2024-02-19_04h09.35.252,kallum_motion_pilot,2023.2.2,Win32,59.52380952,60e0fc6ba2a0b43c2e64fefb,65d2b6c8f2eece985d8e374c,65d2b81f17fc4d337441e430,0.4471,0.4476,1,51,213,56,1,onetwo,,,,,,,,,,,,,,,,,,,,,,,,,,,,,,,,,,,,,,,,,,,,,,,,,,,,,,,,,,,,,,,,,,,,,,,,,,,,,,,,,,,,,,,,,,,,,,,,,,,,,,,,,,,,,,,,,,,,,,,,,,,,,,,,,,,,,,,,,
,,60e0fc6ba2a0b43c2e64fefb,2024-02-19_04h09.35.252,kallum_motion_pilot,2023.2.2,Win32,59.52380952,60e0fc6ba2a0b43c2e64fefb,65d2b6c8f2eece985d8e374c,65d2b81f17fc4d337441e430,0.4482,0.4486,1,52,214,50,1,twoone,,,,,,,,,,,,,,,,,,,,,,,,,,,,,,,,,,,,,,,,,,,,,,,,,,,,,,,,,,,,,,,,,,,,,,,,,,,,,,,,,,,,,,,,,,,,,,,,,,,,,,,,,,,,,,,,,,,,,,,,,,,,,,,,,,,,,,,,,
,,60e0fc6ba2a0b43c2e64fefb,2024-02-19_04h09.35.252,kallum_motion_pilot,2023.2.2,Win32,59.52380952,60e0fc6ba2a0b43c2e64fefb,65d2b6c8f2eece985d8e374c,65d2b81f17fc4d337441e430,0.4492,0.4497,1,53,215,142,1,eightsix,,,,,,,,,,,,,,,,,,,,,,,,,,,,,,,,,,,,,,,,,,,,,,,,,,,,,,,,,,,,,,,,,,,,,,,,,,,,,,,,,,,,,,,,,,,,,,,,,,,,,,,,,,,,,,,,,,,,,,,,,,,,,,,,,,,,,,,,,
,,60e0fc6ba2a0b43c2e64fefb,2024-02-19_04h09.35.252,kallum_motion_pilot,2023.2.2,Win32,59.52380952,60e0fc6ba2a0b43c2e64fefb,65d2b6c8f2eece985d8e374c,65d2b81f17fc4d337441e430,0.4513,0.4528,1,54,216,19,1,twofour,,,,,,,,,,,,,,,,,,,,,,,,,,,,,,,,,,,,,,,,,,,,,,,,,,,,,,,,,,,,,,,,,,,,,,,,,,,,,,,,,,,,,,,,,,,,,,,,,,,,,,,,,,,,,,,,,,,,,,,,,,,,,,,,,,,,,,,,,
,,60e0fc6ba2a0b43c2e64fefb,2024-02-19_04h09.35.252,kallum_motion_pilot,2023.2.2,Win32,59.52380952,60e0fc6ba2a0b43c2e64fefb,65d2b6c8f2eece985d8e374c,65d2b81f17fc4d337441e430,0.4536,0.4544,1,55,217,38,1,fourtwo,,,,,,,,,,,,,,,,,,,,,,,,,,,,,,,,,,,,,,,,,,,,,,,,,,,,,,,,,,,,,,,,,,,,,,,,,,,,,,,,,,,,,,,,,,,,,,,,,,,,,,,,,,,,,,,,,,,,,,,,,,,,,,,,,,,,,,,,,
,,60e0fc6ba2a0b43c2e64fefb,2024-02-19_04h09.35.252,kallum_motion_pilot,2023.2.2,Win32,59.52380952,60e0fc6ba2a0b43c2e64fefb,65d2b6c8f2eece985d8e374c,65d2b81f17fc4d337441e430,0.4549,0.4554,1,56,218,69,1,threefour,,,,,,,,,,,,,,,,,,,,,,,,,,,,,,,,,,,,,,,,,,,,,,,,,,,,,,,,,,,,,,,,,,,,,,,,,,,,,,,,,,,,,,,,,,,,,,,,,,,,,,,,,,,,,,,,,,,,,,,,,,,,,,,,,,,,,,,,,
,,60e0fc6ba2a0b43c2e64fefb,2024-02-19_04h09.35.252,kallum_motion_pilot,2023.2.2,Win32,59.52380952,60e0fc6ba2a0b43c2e64fefb,65d2b6c8f2eece985d8e374c,65d2b81f17fc4d337441e430,0.456,0.4564,1,57,219,11,1,twofour,,,,,,,,,,,,,,,,,,,,,,,,,,,,,,,,,,,,,,,,,,,,,,,,,,,,,,,,,,,,,,,,,,,,,,,,,,,,,,,,,,,,,,,,,,,,,,,,,,,,,,,,,,,,,,,,,,,,,,,,,,,,,,,,,,,,,,,,,
,,60e0fc6ba2a0b43c2e64fefb,2024-02-19_04h09.35.252,kallum_motion_pilot,2023.2.2,Win32,59.52380952,60e0fc6ba2a0b43c2e64fefb,65d2b6c8f2eece985d8e374c,65d2b81f17fc4d337441e430,0.4571,0.4575,1,58,220,135,1,eightseven,,,,,,,,,,,,,,,,,,,,,,,,,,,,,,,,,,,,,,,,,,,,,,,,,,,,,,,,,,,,,,,,,,,,,,,,,,,,,,,,,,,,,,,,,,,,,,,,,,,,,,,,,,,,,,,,,,,,,,,,,,,,,,,,,,,,,,,,,
,,60e0fc6ba2a0b43c2e64fefb,2024-02-19_04h09.35.252,kallum_motion_pilot,2023.2.2,Win32,59.52380952,60e0fc6ba2a0b43c2e64fefb,65d2b6c8f2eece985d8e374c,65d2b81f17fc4d337441e430,0.4581,0.4585,1,59,221,48,1,onetwo,,,,,,,,,,,,,,,,,,,,,,,,,,,,,,,,,,,,,,,,,,,,,,,,,,,,,,,,,,,,,,,,,,,,,,,,,,,,,,,,,,,,,,,,,,,,,,,,,,,,,,,,,,,,,,,,,,,,,,,,,,,,,,,,,,,,,,,,,
,,60e0fc6ba2a0b43c2e64fefb,2024-02-19_04h09.35.252,kallum_motion_pilot,2023.2.2,Win32,59.52380952,60e0fc6ba2a0b43c2e64fefb,65d2b6c8f2eece985d8e374c,65d2b81f17fc4d337441e430,0.4591,0.4595,1,60,222,131,1,sixeight,,,,,,,,,,,,,,,,,,,,,,,,,,,,,,,,,,,,,,,,,,,,,,,,,,,,,,,,,,,,,,,,,,,,,,,,,,,,,,,,,,,,,,,,,,,,,,,,,,,,,,,,,,,,,,,,,,,,,,,,,,,,,,,,,,,,,,,,,
,,60e0fc6ba2a0b43c2e64fefb,2024-02-19_04h09.35.252,kallum_motion_pilot,2023.2.2,Win32,59.52380952,60e0fc6ba2a0b43c2e64fefb,65d2b6c8f2eece985d8e374c,65d2b81f17fc4d337441e430,0.4607,0.4618,1,61,223,134,1,eightsix,,,,,,,,,,,,,,,,,,,,,,,,,,,,,,,,,,,,,,,,,,,,,,,,,,,,,,,,,,,,,,,,,,,,,,,,,,,,,,,,,,,,,,,,,,,,,,,,,,,,,,,,,,,,,,,,,,,,,,,,,,,,,,,,,,,,,,,,,
,,60e0fc6ba2a0b43c2e64fefb,2024-02-19_04h09.35.252,kallum_motion_pilot,2023.2.2,Win32,59.52380952,60e0fc6ba2a0b43c2e64fefb,65d2b6c8f2eece985d8e374c,65d2b81f17fc4d337441e430,0.4627,0.4635,1,62,224,144,1,fivesix,,,,,,,,,,,,,,,,,,,,,,,,,,,,,,,,,,,,,,,,,,,,,,,,,,,,,,,,,,,,,,,,,,,,,,,,,,,,,,,,,,,,,,,,,,,,,,,,,,,,,,,,,,,,,,,,,,,,,,,,,,,,,,,,,,,,,,,,,
,,60e0fc6ba2a0b43c2e64fefb,2024-02-19_04h09.35.252,kallum_motion_pilot,2023.2.2,Win32,59.52380952,60e0fc6ba2a0b43c2e64fefb,65d2b6c8f2eece985d8e374c,65d2b81f17fc4d337441e430,0.4641,0.4645,1,63,225,108,1,sevenfive,,,,,,,,,,,,,,,,,,,,,,,,,,,,,,,,,,,,,,,,,,,,,,,,,,,,,,,,,,,,,,,,,,,,,,,,,,,,,,,,,,,,,,,,,,,,,,,,,,,,,,,,,,,,,,,,,,,,,,,,,,,,,,,,,,,,,,,,,
,,60e0fc6ba2a0b43c2e64fefb,2024-02-19_04h09.35.252,kallum_motion_pilot,2023.2.2,Win32,59.52380952,60e0fc6ba2a0b43c2e64fefb,65d2b6c8f2eece985d8e374c,65d2b81f17fc4d337441e430,0.4663,0.4668,1,64,226,30,1,fourtwo,,,,,,,,,,,,,,,,,,,,,,,,,,,,,,,,,,,,,,,,,,,,,,,,,,,,,,,,,,,,,,,,,,,,,,,,,,,,,,,,,,,,,,,,,,,,,,,,,,,,,,,,,,,,,,,,,,,,,,,,,,,,,,,,,,,,,,,,,
,,60e0fc6ba2a0b43c2e64fefb,2024-02-19_04h09.35.252,kallum_motion_pilot,2023.2.2,Win32,59.52380952,60e0fc6ba2a0b43c2e64fefb,65d2b6c8f2eece985d8e374c,65d2b81f17fc4d337441e430,0.4674,0.4679,1,65,227,25,1,onethree,,,,,,,,,,,,,,,,,,,,,,,,,,,,,,,,,,,,,,,,,,,,,,,,,,,,,,,,,,,,,,,,,,,,,,,,,,,,,,,,,,,,,,,,,,,,,,,,,,,,,,,,,,,,,,,,,,,,,,,,,,,,,,,,,,,,,,,,,
,,60e0fc6ba2a0b43c2e64fefb,2024-02-19_04h09.35.252,kallum_motion_pilot,2023.2.2,Win32,59.52380952,60e0fc6ba2a0b43c2e64fefb,65d2b6c8f2eece985d8e374c,65d2b81f17fc4d337441e430,0.4685,0.4701,1,66,228,127,1,eightseven,,,,,,,,,,,,,,,,,,,,,,,,,,,,,,,,,,,,,,,,,,,,,,,,,,,,,,,,,,,,,,,,,,,,,,,,,,,,,,,,,,,,,,,,,,,,,,,,,,,,,,,,,,,,,,,,,,,,,,,,,,,,,,,,,,,,,,,,,
,,60e0fc6ba2a0b43c2e64fefb,2024-02-19_04h09.35.252,kallum_motion_pilot,2023.2.2,Win32,59.52380952,60e0fc6ba2a0b43c2e64fefb,65d2b6c8f2eece985d8e374c,65d2b81f17fc4d337441e430,0.472,0.4723,1,67,229,1,1,onethree,,,,,,,,,,,,,,,,,,,,,,,,,,,,,,,,,,,,,,,,,,,,,,,,,,,,,,,,,,,,,,,,,,,,,,,,,,,,,,,,,,,,,,,,,,,,,,,,,,,,,,,,,,,,,,,,,,,,,,,,,,,,,,,,,,,,,,,,,
,,60e0fc6ba2a0b43c2e64fefb,2024-02-19_04h09.35.252,kallum_motion_pilot,2023.2.2,Win32,59.52380952,60e0fc6ba2a0b43c2e64fefb,65d2b6c8f2eece985d8e374c,65d2b81f17fc4d337441e430,0.4732,0.4736,1,68,230,40,1,onetwo,,,,,,,,,,,,,,,,,,,,,,,,,,,,,,,,,,,,,,,,,,,,,,,,,,,,,,,,,,,,,,,,,,,,,,,,,,,,,,,,,,,,,,,,,,,,,,,,,,,,,,,,,,,,,,,,,,,,,,,,,,,,,,,,,,,,,,,,,
,,60e0fc6ba2a0b43c2e64fefb,2024-02-19_04h09.35.252,kallum_motion_pilot,2023.2.2,Win32,59.52380952,60e0fc6ba2a0b43c2e64fefb,65d2b6c8f2eece985d8e374c,65d2b81f17fc4d337441e430,0.4742,0.4748,1,69,231,76,1,threeone,,,,,,,,,,,,,,,,,,,,,,,,,,,,,,,,,,,,,,,,,,,,,,,,,,,,,,,,,,,,,,,,,,,,,,,,,,,,,,,,,,,,,,,,,,,,,,,,,,,,,,,,,,,,,,,,,,,,,,,,,,,,,,,,,,,,,,,,,
,,60e0fc6ba2a0b43c2e64fefb,2024-02-19_04h09.35.252,kallum_motion_pilot,2023.2.2,Win32,59.52380952,60e0fc6ba2a0b43c2e64fefb,65d2b6c8f2eece985d8e374c,65d2b81f17fc4d337441e430,0.4753,0.4759,1,70,232,83,1,sixeight,,,,,,,,,,,,,,,,,,,,,,,,,,,,,,,,,,,,,,,,,,,,,,,,,,,,,,,,,,,,,,,,,,,,,,,,,,,,,,,,,,,,,,,,,,,,,,,,,,,,,,,,,,,,,,,,,,,,,,,,,,,,,,,,,,,,,,,,,
,,60e0fc6ba2a0b43c2e64fefb,2024-02-19_04h09.35.252,kallum_motion_pilot,2023.2.2,Win32,59.52380952,60e0fc6ba2a0b43c2e64fefb,65d2b6c8f2eece985d8e374c,65d2b81f17fc4d337441e430,0.4764,0.4769,1,71,233,4,1,threeone,,,,,,,,,,,,,,,,,,,,,,,,,,,,,,,,,,,,,,,,,,,,,,,,,,,,,,,,,,,,,,,,,,,,,,,,,,,,,,,,,,,,,,,,,,,,,,,,,,,,,,,,,,,,,,,,,,,,,,,,,,,,,,,,,,,,,,,,,
,,60e0fc6ba2a0b43c2e64fefb,2024-02-19_04h09.35.252,kallum_motion_pilot,2023.2.2,Win32,59.52380952,60e0fc6ba2a0b43c2e64fefb,65d2b6c8f2eece985d8e374c,65d2b81f17fc4d337441e430,0.4775,0.478,1,72,234,122,1,sixfive,,,,,,,,,,,,,,,,,,,,,,,,,,,,,,,,,,,,,,,,,,,,,,,,,,,,,,,,,,,,,,,,,,,,,,,,,,,,,,,,,,,,,,,,,,,,,,,,,,,,,,,,,,,,,,,,,,,,,,,,,,,,,,,,,,,,,,,,,
,,60e0fc6ba2a0b43c2e64fefb,2024-02-19_04h09.35.252,kallum_motion_pilot,2023.2.2,Win32,59.52380952,60e0fc6ba2a0b43c2e64fefb,65d2b6c8f2eece985d8e374c,65d2b81f17fc4d337441e430,0.4785,0.4791,1,73,235,16,1,onetwo,,,,,,,,,,,,,,,,,,,,,,,,,,,,,,,,,,,,,,,,,,,,,,,,,,,,,,,,,,,,,,,,,,,,,,,,,,,,,,,,,,,,,,,,,,,,,,,,,,,,,,,,,,,,,,,,,,,,,,,,,,,,,,,,,,,,,,,,,
,,60e0fc6ba2a0b43c2e64fefb,2024-02-19_04h09.35.252,kallum_motion_pilot,2023.2.2,Win32,59.52380952,60e0fc6ba2a0b43c2e64fefb,65d2b6c8f2eece985d8e374c,65d2b81f17fc4d337441e430,0.4796,0.48,1,74,236,15,1,fourthree,,,,,,,,,,,,,,,,,,,,,,,,,,,,,,,,,,,,,,,,,,,,,,,,,,,,,,,,,,,,,,,,,,,,,,,,,,,,,,,,,,,,,,,,,,,,,,,,,,,,,,,,,,,,,,,,,,,,,,,,,,,,,,,,,,,,,,,,,
,,60e0fc6ba2a0b43c2e64fefb,2024-02-19_04h09.35.252,kallum_motion_pilot,2023.2.2,Win32,59.52380952,60e0fc6ba2a0b43c2e64fefb,65d2b6c8f2eece985d8e374c,65d2b81f17fc4d337441e430,0.4819,0.4823,1,75,237,73,1,onethree,,,,,,,,,,,,,,,,,,,,,,,,,,,,,,,,,,,,,,,,,,,,,,,,,,,,,,,,,,,,,,,,,,,,,,,,,,,,,,,,,,,,,,,,,,,,,,,,,,,,,,,,,,,,,,,,,,,,,,,,,,,,,,,,,,,,,,,,,
,,60e0fc6ba2a0b43c2e64fefb,2024-02-19_04h09.35.252,kallum_motion_pilot,2023.2.2,Win32,59.52380952,60e0fc6ba2a0b43c2e64fefb,65d2b6c8f2eece985d8e374c,65d2b81f17fc4d337441e430,0.4831,0.4836,1,76,238,54,1,fourtwo,,,,,,,,,,,,,,,,,,,,,,,,,,,,,,,,,,,,,,,,,,,,,,,,,,,,,,,,,,,,,,,,,,,,,,,,,,,,,,,,,,,,,,,,,,,,,,,,,,,,,,,,,,,,,,,,,,,,,,,,,,,,,,,,,,,,,,,,,
,,60e0fc6ba2a0b43c2e64fefb,2024-02-19_04h09.35.252,kallum_motion_pilot,2023.2.2,Win32,59.52380952,60e0fc6ba2a0b43c2e64fefb,65d2b6c8f2eece985d8e374c,65d2b81f17fc4d337441e430,0.4843,0.4848,1,77,239,102,1,eightsix,,,,,,,,,,,,,,,,,,,,,,,,,,,,,,,,,,,,,,,,,,,,,,,,,,,,,,,,,,,,,,,,,,,,,,,,,,,,,,,,,,,,,,,,,,,,,,,,,,,,,,,,,,,,,,,,,,,,,,,,,,,,,,,,,,,,,,,,,
,,60e0fc6ba2a0b43c2e64fefb,2024-02-19_04h09.35.252,kallum_motion_pilot,2023.2.2,Win32,59.52380952,60e0fc6ba2a0b43c2e64fefb,65d2b6c8f2eece985d8e374c,65d2b81f17fc4d337441e430,0.4868,0.4872,1,78,240,89,1,fiveseven,,,,,,,,,,,,,,,,,,,,,,,,,,,,,,,,,,,,,,,,,,,,,,,,,,,,,,,,,,,,,,,,,,,,,,,,,,,,,,,,,,,,,,,,,,,,,,,,,,,,,,,,,,,,,,,,,,,,,,,,,,,,,,,,,,,,,,,,,
,,60e0fc6ba2a0b43c2e64fefb,2024-02-19_04h09.35.252,kallum_motion_pilot,2023.2.2,Win32,59.52380952,60e0fc6ba2a0b43c2e64fefb,65d2b6c8f2eece985d8e374c,65d2b81f17fc4d337441e430,0.488,0.4885,1,79,241,14,1,fourtwo,,,,,,,,,,,,,,,,,,,,,,,,,,,,,,,,,,,,,,,,,,,,,,,,,,,,,,,,,,,,,,,,,,,,,,,,,,,,,,,,,,,,,,,,,,,,,,,,,,,,,,,,,,,,,,,,,,,,,,,,,,,,,,,,,,,,,,,,,
,,60e0fc6ba2a0b43c2e64fefb,2024-02-19_04h09.35.252,kallum_motion_pilot,2023.2.2,Win32,59.52380952,60e0fc6ba2a0b43c2e64fefb,65d2b6c8f2eece985d8e374c,65d2b81f17fc4d337441e430,0.4893,0.4896,1,80,242,34,1,twoone,,,,,,,,,,,,,,,,,,,,,,,,,,,,,,,,,,,,,,,,,,,,,,,,,,,,,,,,,,,,,,,,,,,,,,,,,,,,,,,,,,,,,,,,,,,,,,,,,,,,,,,,,,,,,,,,,,,,,,,,,,,,,,,,,,,,,,,,,
,,60e0fc6ba2a0b43c2e64fefb,2024-02-19_04h09.35.252,kallum_motion_pilot,2023.2.2,Win32,59.52380952,60e0fc6ba2a0b43c2e64fefb,65d2b6c8f2eece985d8e374c,65d2b81f17fc4d337441e430,0.4912,0.4916,1,81,243,7,1,fourthree,,,,,,,,,,,,,,,,,,,,,,,,,,,,,,,,,,,,,,,,,,,,,,,,,,,,,,,,,,,,,,,,,,,,,,,,,,,,,,,,,,,,,,,,,,,,,,,,,,,,,,,,,,,,,,,,,,,,,,,,,,,,,,,,,,,,,,,,,
,,60e0fc6ba2a0b43c2e64fefb,2024-02-19_04h09.35.252,kallum_motion_pilot,2023.2.2,Win32,59.52380952,60e0fc6ba2a0b43c2e64fefb,65d2b6c8f2eece985d8e374c,65d2b81f17fc4d337441e430,0.4924,0.4929,1,82,244,124,1,sevenfive,,,,,,,,,,,,,,,,,,,,,,,,,,,,,,,,,,,,,,,,,,,,,,,,,,,,,,,,,,,,,,,,,,,,,,,,,,,,,,,,,,,,,,,,,,,,,,,,,,,,,,,,,,,,,,,,,,,,,,,,,,,,,,,,,,,,,,,,,
,,60e0fc6ba2a0b43c2e64fefb,2024-02-19_04h09.35.252,kallum_motion_pilot,2023.2.2,Win32,59.52380952,60e0fc6ba2a0b43c2e64fefb,65d2b6c8f2eece985d8e374c,65d2b81f17fc4d337441e430,0.4935,0.4941,1,83,245,59,1,twofour,,,,,,,,,,,,,,,,,,,,,,,,,,,,,,,,,,,,,,,,,,,,,,,,,,,,,,,,,,,,,,,,,,,,,,,,,,,,,,,,,,,,,,,,,,,,,,,,,,,,,,,,,,,,,,,,,,,,,,,,,,,,,,,,,,,,,,,,,
,,60e0fc6ba2a0b43c2e64fefb,2024-02-19_04h09.35.252,kallum_motion_pilot,2023.2.2,Win32,59.52380952,60e0fc6ba2a0b43c2e64fefb,65d2b6c8f2eece985d8e374c,65d2b81f17fc4d337441e430,0.4947,0.495,1,84,246,97,1,fiveseven,,,,,,,,,,,,,,,,,,,,,,,,,,,,,,,,,,,,,,,,,,,,,,,,,,,,,,,,,,,,,,,,,,,,,,,,,,,,,,,,,,,,,,,,,,,,,,,,,,,,,,,,,,,,,,,,,,,,,,,,,,,,,,,,,,,,,,,,,
,,60e0fc6ba2a0b43c2e64fefb,2024-02-19_04h09.35.252,kallum_motion_pilot,2023.2.2,Win32,59.52380952,60e0fc6ba2a0b43c2e64fefb,65d2b6c8f2eece985d8e374c,65d2b81f17fc4d337441e430,0.4956,0.496,1,85,247,99,1,sixeight,,,,,,,,,,,,,,,,,,,,,,,,,,,,,,,,,,,,,,,,,,,,,,,,,,,,,,,,,,,,,,,,,,,,,,,,,,,,,,,,,,,,,,,,,,,,,,,,,,,,,,,,,,,,,,,,,,,,,,,,,,,,,,,,,,,,,,,,,
,,60e0fc6ba2a0b43c2e64fefb,2024-02-19_04h09.35.252,kallum_motion_pilot,2023.2.2,Win32,59.52380952,60e0fc6ba2a0b43c2e64fefb,65d2b6c8f2eece985d8e374c,65d2b81f17fc4d337441e430,0.4967,0.4971,1,86,248,66,1,twoone,,,,,,,,,,,,,,,,,,,,,,,,,,,,,,,,,,,,,,,,,,,,,,,,,,,,,,,,,,,,,,,,,,,,,,,,,,,,,,,,,,,,,,,,,,,,,,,,,,,,,,,,,,,,,,,,,,,,,,,,,,,,,,,,,,,,,,,,,
,,60e0fc6ba2a0b43c2e64fefb,2024-02-19_04h09.35.252,kallum_motion_pilot,2023.2.2,Win32,59.52380952,60e0fc6ba2a0b43c2e64fefb,65d2b6c8f2eece985d8e374c,65d2b81f17fc4d337441e430,0.4978,0.4981,1,87,249,143,1,eightseven,,,,,,,,,,,,,,,,,,,,,,,,,,,,,,,,,,,,,,,,,,,,,,,,,,,,,,,,,,,,,,,,,,,,,,,,,,,,,,,,,,,,,,,,,,,,,,,,,,,,,,,,,,,,,,,,,,,,,,,,,,,,,,,,,,,,,,,,,
,,60e0fc6ba2a0b43c2e64fefb,2024-02-19_04h09.35.252,kallum_motion_pilot,2023.2.2,Win32,59.52380952,60e0fc6ba2a0b43c2e64fefb,65d2b6c8f2eece985d8e374c,65d2b81f17fc4d337441e430,0.4987,0.4991,1,88,250,36,1,threeone,,,,,,,,,,,,,,,,,,,,,,,,,,,,,,,,,,,,,,,,,,,,,,,,,,,,,,,,,,,,,,,,,,,,,,,,,,,,,,,,,,,,,,,,,,,,,,,,,,,,,,,,,,,,,,,,,,,,,,,,,,,,,,,,,,,,,,,,,
,,60e0fc6ba2a0b43c2e64fefb,2024-02-19_04h09.35.252,kallum_motion_pilot,2023.2.2,Win32,59.52380952,60e0fc6ba2a0b43c2e64fefb,65d2b6c8f2eece985d8e374c,65d2b81f17fc4d337441e430,0.4998,0.5009,1,89,251,24,1,onetwo,,,,,,,,,,,,,,,,,,,,,,,,,,,,,,,,,,,,,,,,,,,,,,,,,,,,,,,,,,,,,,,,,,,,,,,,,,,,,,,,,,,,,,,,,,,,,,,,,,,,,,,,,,,,,,,,,,,,,,,,,,,,,,,,,,,,,,,,,
,,60e0fc6ba2a0b43c2e64fefb,2024-02-19_04h09.35.252,kallum_motion_pilot,2023.2.2,Win32,59.52380952,60e0fc6ba2a0b43c2e64fefb,65d2b6c8f2eece985d8e374c,65d2b81f17fc4d337441e430,0.5029,0.5034,1,90,252,128,1,fivesix,,,,,,,,,,,,,,,,,,,,,,,,,,,,,,,,,,,,,,,,,,,,,,,,,,,,,,,,,,,,,,,,,,,,,,,,,,,,,,,,,,,,,,,,,,,,,,,,,,,,,,,,,,,,,,,,,,,,,,,,,,,,,,,,,,,,,,,,,
,,60e0fc6ba2a0b43c2e64fefb,2024-02-19_04h09.35.252,kallum_motion_pilot,2023.2.2,Win32,59.52380952,60e0fc6ba2a0b43c2e64fefb,65d2b6c8f2eece985d8e374c,65d2b81f17fc4d337441e430,0.5042,0.5046,1,91,253,61,1,threefour,,,,,,,,,,,,,,,,,,,,,,,,,,,,,,,,,,,,,,,,,,,,,,,,,,,,,,,,,,,,,,,,,,,,,,,,,,,,,,,,,,,,,,,,,,,,,,,,,,,,,,,,,,,,,,,,,,,,,,,,,,,,,,,,,,,,,,,,,
,,60e0fc6ba2a0b43c2e64fefb,2024-02-19_04h09.35.252,kallum_motion_pilot,2023.2.2,Win32,59.52380952,60e0fc6ba2a0b43c2e64fefb,65d2b6c8f2eece985d8e374c,65d2b81f17fc4d337441e430,0.5053,0.5056,1,92,254,85,1,seveneight,,,,,,,,,,,,,,,,,,,,,,,,,,,,,,,,,,,,,,,,,,,,,,,,,,,,,,,,,,,,,,,,,,,,,,,,,,,,,,,,,,,,,,,,,,,,,,,,,,,,,,,,,,,,,,,,,,,,,,,,,,,,,,,,,,,,,,,,,
,,60e0fc6ba2a0b43c2e64fefb,2024-02-19_04h09.35.252,kallum_motion_pilot,2023.2.2,Win32,59.52380952,60e0fc6ba2a0b43c2e64fefb,65d2b6c8f2eece985d8e374c,65d2b81f17fc4d337441e430,0.5069,0.5073,1,93,255,74,1,twoone,,,,,,,,,,,,,,,,,,,,,,,,,,,,,,,,,,,,,,,,,,,,,,,,,,,,,,,,,,,,,,,,,,,,,,,,,,,,,,,,,,,,,,,,,,,,,,,,,,,,,,,,,,,,,,,,,,,,,,,,,,,,,,,,,,,,,,,,,
,,60e0fc6ba2a0b43c2e64fefb,2024-02-19_04h09.35.252,kallum_motion_pilot,2023.2.2,Win32,59.52380952,60e0fc6ba2a0b43c2e64fefb,65d2b6c8f2eece985d8e374c,65d2b81f17fc4d337441e430,0.508,0.5084,1,94,256,0,1,onetwo,,,,,,,,,,,,,,,,,,,,,,,,,,,,,,,,,,,,,,,,,,,,,,,,,,,,,,,,,,,,,,,,,,,,,,,,,,,,,,,,,,,,,,,,,,,,,,,,,,,,,,,,,,,,,,,,,,,,,,,,,,,,,,,,,,,,,,,,,
,,60e0fc6ba2a0b43c2e64fefb,2024-02-19_04h09.35.252,kallum_motion_pilot,2023.2.2,Win32,59.52380952,60e0fc6ba2a0b43c2e64fefb,65d2b6c8f2eece985d8e374c,65d2b81f17fc4d337441e430,0.5092,0.5096,1,95,257,80,1,fivesix,,,,,,,,,,,,,,,,,,,,,,,,,,,,,,,,,,,,,,,,,,,,,,,,,,,,,,,,,,,,,,,,,,,,,,,,,,,,,,,,,,,,,,,,,,,,,,,,,,,,,,,,,,,,,,,,,,,,,,,,,,,,,,,,,,,,,,,,,
,,60e0fc6ba2a0b43c2e64fefb,2024-02-19_04h09.35.252,kallum_motion_pilot,2023.2.2,Win32,59.52380952,60e0fc6ba2a0b43c2e64fefb,65d2b6c8f2eece985d8e374c,65d2b81f17fc4d337441e430,0.5117,0.5121,1,96,258,37,1,threefour,,,,,,,,,,,,,,,,,,,,,,,,,,,,,,,,,,,,,,,,,,,,,,,,,,,,,,,,,,,,,,,,,,,,,,,,,,,,,,,,,,,,,,,,,,,,,,,,,,,,,,,,,,,,,,,,,,,,,,,,,,,,,,,,,,,,,,,,,
,,60e0fc6ba2a0b43c2e64fefb,2024-02-19_04h09.35.252,kallum_motion_pilot,2023.2.2,Win32,59.52380952,60e0fc6ba2a0b43c2e64fefb,65d2b6c8f2eece985d8e374c,65d2b81f17fc4d337441e430,0.513,0.5137,1,97,259,6,1,fourtwo,,,,,,,,,,,,,,,,,,,,,,,,,,,,,,,,,,,,,,,,,,,,,,,,,,,,,,,,,,,,,,,,,,,,,,,,,,,,,,,,,,,,,,,,,,,,,,,,,,,,,,,,,,,,,,,,,,,,,,,,,,,,,,,,,,,,,,,,,
,,60e0fc6ba2a0b43c2e64fefb,2024-02-19_04h09.35.252,kallum_motion_pilot,2023.2.2,Win32,59.52380952,60e0fc6ba2a0b43c2e64fefb,65d2b6c8f2eece985d8e374c,65d2b81f17fc4d337441e430,0.5144,0.515,1,98,260,88,1,fivesix,,,,,,,,,,,,,,,,,,,,,,,,,,,,,,,,,,,,,,,,,,,,,,,,,,,,,,,,,,,,,,,,,,,,,,,,,,,,,,,,,,,,,,,,,,,,,,,,,,,,,,,,,,,,,,,,,,,,,,,,,,,,,,,,,,,,,,,,,
,,60e0fc6ba2a0b43c2e64fefb,2024-02-19_04h09.35.252,kallum_motion_pilot,2023.2.2,Win32,59.52380952,60e0fc6ba2a0b43c2e64fefb,65d2b6c8f2eece985d8e374c,65d2b81f17fc4d337441e430,0.5157,0.5161,1,99,261,27,1,twofour,,,,,,,,,,,,,,,,,,,,,,,,,,,,,,,,,,,,,,,,,,,,,,,,,,,,,,,,,,,,,,,,,,,,,,,,,,,,,,,,,,,,,,,,,,,,,,,,,,,,,,,,,,,,,,,,,,,,,,,,,,,,,,,,,,,,,,,,,
,,60e0fc6ba2a0b43c2e64fefb,2024-02-19_04h09.35.252,kallum_motion_pilot,2023.2.2,Win32,59.52380952,60e0fc6ba2a0b43c2e64fefb,65d2b6c8f2eece985d8e374c,65d2b81f17fc4d337441e430,0.5168,0.5171,1,100,262,152,1,fivesix,,,,,,,,,,,,,,,,,,,,,,,,,,,,,,,,,,,,,,,,,,,,,,,,,,,,,,,,,,,,,,,,,,,,,,,,,,,,,,,,,,,,,,,,,,,,,,,,,,,,,,,,,,,,,,,,,,,,,,,,,,,,,,,,,,,,,,,,,
,,60e0fc6ba2a0b43c2e64fefb,2024-02-19_04h09.35.252,kallum_motion_pilot,2023.2.2,Win32,59.52380952,60e0fc6ba2a0b43c2e64fefb,65d2b6c8f2eece985d8e374c,65d2b81f17fc4d337441e430,0.5177,0.5182,1,101,263,107,1,sixeight,,,,,,,,,,,,,,,,,,,,,,,,,,,,,,,,,,,,,,,,,,,,,,,,,,,,,,,,,,,,,,,,,,,,,,,,,,,,,,,,,,,,,,,,,,,,,,,,,,,,,,,,,,,,,,,,,,,,,,,,,,,,,,,,,,,,,,,,,
,,60e0fc6ba2a0b43c2e64fefb,2024-02-19_04h09.35.252,kallum_motion_pilot,2023.2.2,Win32,59.52380952,60e0fc6ba2a0b43c2e64fefb,65d2b6c8f2eece985d8e374c,65d2b81f17fc4d337441e430,0.5206,0.5218,1,102,264,113,1,fiveseven,,,,,,,,,,,,,,,,,,,,,,,,,,,,,,,,,,,,,,,,,,,,,,,,,,,,,,,,,,,,,,,,,,,,,,,,,,,,,,,,,,,,,,,,,,,,,,,,,,,,,,,,,,,,,,,,,,,,,,,,,,,,,,,,,,,,,,,,,
,,60e0fc6ba2a0b43c2e64fefb,2024-02-19_04h09.35.252,kallum_motion_pilot,2023.2.2,Win32,59.52380952,60e0fc6ba2a0b43c2e64fefb,65d2b6c8f2eece985d8e374c,65d2b81f17fc4d337441e430,0.5229,0.5236,1,103,265,114,1,sixfive,,,,,,,,,,,,,,,,,,,,,,,,,,,,,,,,,,,,,,,,,,,,,,,,,,,,,,,,,,,,,,,,,,,,,,,,,,,,,,,,,,,,,,,,,,,,,,,,,,,,,,,,,,,,,,,,,,,,,,,,,,,,,,,,,,,,,,,,,
,,60e0fc6ba2a0b43c2e64fefb,2024-02-19_04h09.35.252,kallum_motion_pilot,2023.2.2,Win32,59.52380952,60e0fc6ba2a0b43c2e64fefb,65d2b6c8f2eece985d8e374c,65d2b81f17fc4d337441e430,0.5242,0.5246,1,104,266,157,1,seveneight,,,,,,,,,,,,,,,,,,,,,,,,,,,,,,,,,,,,,,,,,,,,,,,,,,,,,,,,,,,,,,,,,,,,,,,,,,,,,,,,,,,,,,,,,,,,,,,,,,,,,,,,,,,,,,,,,,,,,,,,,,,,,,,,,,,,,,,,,
,,60e0fc6ba2a0b43c2e64fefb,2024-02-19_04h09.35.252,kallum_motion_pilot,2023.2.2,Win32,59.52380952,60e0fc6ba2a0b43c2e64fefb,65d2b6c8f2eece985d8e374c,65d2b81f17fc4d337441e430,0.5252,0.5257,1,105,267,62,1,fourtwo,,,,,,,,,,,,,,,,,,,,,,,,,,,,,,,,,,,,,,,,,,,,,,,,,,,,,,,,,,,,,,,,,,,,,,,,,,,,,,,,,,,,,,,,,,,,,,,,,,,,,,,,,,,,,,,,,,,,,,,,,,,,,,,,,,,,,,,,,
,,60e0fc6ba2a0b43c2e64fefb,2024-02-19_04h09.35.252,kallum_motion_pilot,2023.2.2,Win32,59.52380952,60e0fc6ba2a0b43c2e64fefb,65d2b6c8f2eece985d8e374c,65d2b81f17fc4d337441e430,0.5263,0.5268,1,106,268,103,1,eightseven,,,,,,,,,,,,,,,,,,,,,,,,,,,,,,,,,,,,,,,,,,,,,,,,,,,,,,,,,,,,,,,,,,,,,,,,,,,,,,,,,,,,,,,,,,,,,,,,,,,,,,,,,,,,,,,,,,,,,,,,,,,,,,,,,,,,,,,,,
,,60e0fc6ba2a0b43c2e64fefb,2024-02-19_04h09.35.252,kallum_motion_pilot,2023.2.2,Win32,59.52380952,60e0fc6ba2a0b43c2e64fefb,65d2b6c8f2eece985d8e374c,65d2b81f17fc4d337441e430,0.5274,0.5278,1,107,269,94,1,eightsix,,,,,,,,,,,,,,,,,,,,,,,,,,,,,,,,,,,,,,,,,,,,,,,,,,,,,,,,,,,,,,,,,,,,,,,,,,,,,,,,,,,,,,,,,,,,,,,,,,,,,,,,,,,,,,,,,,,,,,,,,,,,,,,,,,,,,,,,,
,,60e0fc6ba2a0b43c2e64fefb,2024-02-19_04h09.35.252,kallum_motion_pilot,2023.2.2,Win32,59.52380952,60e0fc6ba2a0b43c2e64fefb,65d2b6c8f2eece985d8e374c,65d2b81f17fc4d337441e430,0.5284,0.5288,1,108,270,98,1,sixfive,,,,,,,,,,,,,,,,,,,,,,,,,,,,,,,,,,,,,,,,,,,,,,,,,,,,,,,,,,,,,,,,,,,,,,,,,,,,,,,,,,,,,,,,,,,,,,,,,,,,,,,,,,,,,,,,,,,,,,,,,,,,,,,,,,,,,,,,,
,,60e0fc6ba2a0b43c2e64fefb,2024-02-19_04h09.35.252,kallum_motion_pilot,2023.2.2,Win32,59.52380952,60e0fc6ba2a0b43c2e64fefb,65d2b6c8f2eece985d8e374c,65d2b81f17fc4d337441e430,0.5294,0.5298,1,109,271,119,1,eightseven,,,,,,,,,,,,,,,,,,,,,,,,,,,,,,,,,,,,,,,,,,,,,,,,,,,,,,,,,,,,,,,,,,,,,,,,,,,,,,,,,,,,,,,,,,,,,,,,,,,,,,,,,,,,,,,,,,,,,,,,,,,,,,,,,,,,,,,,,
,,60e0fc6ba2a0b43c2e64fefb,2024-02-19_04h09.35.252,kallum_motion_pilot,2023.2.2,Win32,59.52380952,60e0fc6ba2a0b43c2e64fefb,65d2b6c8f2eece985d8e374c,65d2b81f17fc4d337441e430,0.5312,0.5324,1,110,272,32,1,onetwo,,,,,,,,,,,,,,,,,,,,,,,,,,,,,,,,,,,,,,,,,,,,,,,,,,,,,,,,,,,,,,,,,,,,,,,,,,,,,,,,,,,,,,,,,,,,,,,,,,,,,,,,,,,,,,,,,,,,,,,,,,,,,,,,,,,,,,,,,
,,60e0fc6ba2a0b43c2e64fefb,2024-02-19_04h09.35.252,kallum_motion_pilot,2023.2.2,Win32,59.52380952,60e0fc6ba2a0b43c2e64fefb,65d2b6c8f2eece985d8e374c,65d2b81f17fc4d337441e430,0.533,0.5335,1,111,273,92,1,sevenfive,,,,,,,,,,,,,,,,,,,,,,,,,,,,,,,,,,,,,,,,,,,,,,,,,,,,,,,,,,,,,,,,,,,,,,,,,,,,,,,,,,,,,,,,,,,,,,,,,,,,,,,,,,,,,,,,,,,,,,,,,,,,,,,,,,,,,,,,,
,,60e0fc6ba2a0b43c2e64fefb,2024-02-19_04h09.35.252,kallum_motion_pilot,2023.2.2,Win32,59.52380952,60e0fc6ba2a0b43c2e64fefb,65d2b6c8f2eece985d8e374c,65d2b81f17fc4d337441e430,0.5342,0.5346,1,112,274,100,1,sevenfive,,,,,,,,,,,,,,,,,,,,,,,,,,,,,,,,,,,,,,,,,,,,,,,,,,,,,,,,,,,,,,,,,,,,,,,,,,,,,,,,,,,,,,,,,,,,,,,,,,,,,,,,,,,,,,,,,,,,,,,,,,,,,,,,,,,,,,,,,
,,60e0fc6ba2a0b43c2e64fefb,2024-02-19_04h09.35.252,kallum_motion_pilot,2023.2.2,Win32,59.52380952,60e0fc6ba2a0b43c2e64fefb,65d2b6c8f2eece985d8e374c,65d2b81f17fc4d337441e430,0.5352,0.5364,1,113,275,58,1,twoone,,,,,,,,,,,,,,,,,,,,,,,,,,,,,,,,,,,,,,,,,,,,,,,,,,,,,,,,,,,,,,,,,,,,,,,,,,,,,,,,,,,,,,,,,,,,,,,,,,,,,,,,,,,,,,,,,,,,,,,,,,,,,,,,,,,,,,,,,
,,60e0fc6ba2a0b43c2e64fefb,2024-02-19_04h09.35.252,kallum_motion_pilot,2023.2.2,Win32,59.52380952,60e0fc6ba2a0b43c2e64fefb,65d2b6c8f2eece985d8e374c,65d2b81f17fc4d337441e430,0.5372,0.5376,1,114,276,5,1,threefour,,,,,,,,,,,,,,,,,,,,,,,,,,,,,,,,,,,,,,,,,,,,,,,,,,,,,,,,,,,,,,,,,,,,,,,,,,,,,,,,,,,,,,,,,,,,,,,,,,,,,,,,,,,,,,,,,,,,,,,,,,,,,,,,,,,,,,,,,
,,60e0fc6ba2a0b43c2e64fefb,2024-02-19_04h09.35.252,kallum_motion_pilot,2023.2.2,Win32,59.52380952,60e0fc6ba2a0b43c2e64fefb,65d2b6c8f2eece985d8e374c,65d2b81f17fc4d337441e430,0.5382,0.5387,1,115,277,118,1,eightsix,,,,,,,,,,,,,,,,,,,,,,,,,,,,,,,,,,,,,,,,,,,,,,,,,,,,,,,,,,,,,,,,,,,,,,,,,,,,,,,,,,,,,,,,,,,,,,,,,,,,,,,,,,,,,,,,,,,,,,,,,,,,,,,,,,,,,,,,,
