startup.started,startup.stopped,Prolific ID*,date,expName,psychopyVersion,OS,frameRate,participant,study_id,session,stimpositions.started,stimpositions.stopped,hardcoded_stimulus_positions.thisRepN,hardcoded_stimulus_positions.thisTrialN,hardcoded_stimulus_positions.thisN,hardcoded_stimulus_positions.thisIndex,hardcoded_stimulus_positions.ran,StimulusPos,stimorientation.started,stimorientation.stopped,prac_stimorientation_import_loop.thisRepN,prac_stimorientation_import_loop.thisTrialN,prac_stimorientation_import_loop.thisN,prac_stimorientation_import_loop.thisIndex,prac_stimorientation_import_loop.ran,Stimorientation,welcome_instr.started,welcome_instr.stopped,key_resp.keys,key_resp.rt,key_resp.duration,response_steppedout_1.started,response_steppedout_1.stopped,key_resp_20.keys,key_resp_20.rt,key_resp_20.duration,response_steppedout_2.started,response_steppedout_2.stopped,key_resp_19.keys,key_resp_19.rt,key_resp_19.duration,stim_response_instr.started,stim_response_instr.stopped,key_resp_15.keys,key_resp_15.rt,key_resp_15.duration,direction_instr_2.started,direction_instr_2.stopped,key_resp_9.keys,key_resp_9.rt,key_resp_9.duration,instr_prac.started,instr_prac.stopped,key_resp_10.keys,key_resp_10.rt,key_resp_10.duration,Stim1_display_prac.started,Stim1_display_prac.stopped,Ecc,Circle1_ori,Circle2_ori,response_prac.started,similarity,response_time,response_prac.stopped,mouse_5.x,mouse_5.y,mouse_5.leftButton,mouse_5.midButton,mouse_5.rightButton,mouse_5.clicked_name,responseprac_feedback.started,responseprac_feedback.stopped,summary2_prac.started,summary2_prac.stopped,mouse_6.x,mouse_6.y,mouse_6.leftButton,mouse_6.midButton,mouse_6.rightButton,mouse_6.clicked_name,duringprac.thisRepN,duringprac.thisTrialN,duringprac.thisN,duringprac.thisIndex,duringprac.ran,begin.started,begin.stopped,key_resp_22.keys,key_resp_22.rt,key_resp_22.duration,Stim1_display.started,Stim1_display.stopped,circle1_ori,circle2_ori,circle1_SF,circle2_SF,response.started,response.stopped,mouse.x,mouse.y,mouse.leftButton,mouse.midButton,mouse.rightButton,mouse.clicked_name,trialnumber,double_pass.thisRepN,double_pass.thisTrialN,double_pass.thisN,double_pass.thisIndex,double_pass.ran,double_pass.order,main_trial.thisRepN,main_trial.thisTrialN,main_trial.thisN,main_trial.thisIndex,main_trial.ran,main_trial.order,Trial_Counter,Catch,Frequencies,response_2.started,response_2.stopped,mouse_2.x,mouse_2.y,mouse_2.leftButton,mouse_2.midButton,mouse_2.rightButton,mouse_2.clicked_name,special_trial.started,special_trial.stopped,catch_1.started,catch_1.stopped,mouse_3.x,mouse_3.y,mouse_3.leftButton,mouse_3.midButton,mouse_3.rightButton,catchresponse,catchnumber,response_time_catch,response_sum.started,response_sum.stopped,mouse_11.x,mouse_11.y,mouse_11.leftButton,mouse_11.midButton,mouse_11.rightButton,flip_presentation_sequence_for_double_pass.started,flip_presentation_sequence_for_double_pass.stopped,goodbye.started,goodbye.stopped,key_resp_3.keys,key_resp_3.rt,key_resp_3.duration
0.0003,0.0004,60e33263f1759a9611770793,2024-02-22_05h20.38.140,kallum_motion_pilot,2023.2.2,Win32,29.76190476,60e33263f1759a9611770793,65d6bb0e977760de756971f7,65d6bd55dfcd203fc765b6db,,,,,,,,,,,,,,,,,,,,,,,,,,,,,,,,,,,,,,,,,,,,,,,,,,,,,,,,,,,,,,,,,,,,,,,,,,,,,,,,,,,,,,,,,,,,,,,,,,,,,,,,,,,,,,,,,,,,,,,,,,,,,,,,,,,,,,,,,,,,,,,,,
,,60e33263f1759a9611770793,2024-02-22_05h20.38.140,kallum_motion_pilot,2023.2.2,Win32,29.76190476,60e33263f1759a9611770793,65d6bb0e977760de756971f7,65d6bd55dfcd203fc765b6db,0.0204,0.0205,0,0,0,25,1,onethree,,,,,,,,,,,,,,,,,,,,,,,,,,,,,,,,,,,,,,,,,,,,,,,,,,,,,,,,,,,,,,,,,,,,,,,,,,,,,,,,,,,,,,,,,,,,,,,,,,,,,,,,,,,,,,,,,,,,,,,,,,,,,,,,,,,,,,,,,
,,60e33263f1759a9611770793,2024-02-22_05h20.38.140,kallum_motion_pilot,2023.2.2,Win32,29.76190476,60e33263f1759a9611770793,65d6bb0e977760de756971f7,65d6bd55dfcd203fc765b6db,0.0206,0.0207,0,1,1,39,1,fourthree,,,,,,,,,,,,,,,,,,,,,,,,,,,,,,,,,,,,,,,,,,,,,,,,,,,,,,,,,,,,,,,,,,,,,,,,,,,,,,,,,,,,,,,,,,,,,,,,,,,,,,,,,,,,,,,,,,,,,,,,,,,,,,,,,,,,,,,,,
,,60e33263f1759a9611770793,2024-02-22_05h20.38.140,kallum_motion_pilot,2023.2.2,Win32,29.76190476,60e33263f1759a9611770793,65d6bb0e977760de756971f7,65d6bd55dfcd203fc765b6db,0.0208,0.0208,0,2,2,36,1,threeone,,,,,,,,,,,,,,,,,,,,,,,,,,,,,,,,,,,,,,,,,,,,,,,,,,,,,,,,,,,,,,,,,,,,,,,,,,,,,,,,,,,,,,,,,,,,,,,,,,,,,,,,,,,,,,,,,,,,,,,,,,,,,,,,,,,,,,,,,
,,60e33263f1759a9611770793,2024-02-22_05h20.38.140,kallum_motion_pilot,2023.2.2,Win32,29.76190476,60e33263f1759a9611770793,65d6bb0e977760de756971f7,65d6bd55dfcd203fc765b6db,0.0208,0.0208,0,3,3,141,1,seveneight,,,,,,,,,,,,,,,,,,,,,,,,,,,,,,,,,,,,,,,,,,,,,,,,,,,,,,,,,,,,,,,,,,,,,,,,,,,,,,,,,,,,,,,,,,,,,,,,,,,,,,,,,,,,,,,,,,,,,,,,,,,,,,,,,,,,,,,,,
,,60e33263f1759a9611770793,2024-02-22_05h20.38.140,kallum_motion_pilot,2023.2.2,Win32,29.76190476,60e33263f1759a9611770793,65d6bb0e977760de756971f7,65d6bd55dfcd203fc765b6db,0.021,0.021,0,4,4,79,1,eightseven,,,,,,,,,,,,,,,,,,,,,,,,,,,,,,,,,,,,,,,,,,,,,,,,,,,,,,,,,,,,,,,,,,,,,,,,,,,,,,,,,,,,,,,,,,,,,,,,,,,,,,,,,,,,,,,,,,,,,,,,,,,,,,,,,,,,,,,,,
,,60e33263f1759a9611770793,2024-02-22_05h20.38.140,kallum_motion_pilot,2023.2.2,Win32,29.76190476,60e33263f1759a9611770793,65d6bb0e977760de756971f7,65d6bd55dfcd203fc765b6db,0.021,0.021,0,5,5,146,1,sixfive,,,,,,,,,,,,,,,,,,,,,,,,,,,,,,,,,,,,,,,,,,,,,,,,,,,,,,,,,,,,,,,,,,,,,,,,,,,,,,,,,,,,,,,,,,,,,,,,,,,,,,,,,,,,,,,,,,,,,,,,,,,,,,,,,,,,,,,,,
,,60e33263f1759a9611770793,2024-02-22_05h20.38.140,kallum_motion_pilot,2023.2.2,Win32,29.76190476,60e33263f1759a9611770793,65d6bb0e977760de756971f7,65d6bd55dfcd203fc765b6db,0.0211,0.0211,0,6,6,41,1,onethree,,,,,,,,,,,,,,,,,,,,,,,,,,,,,,,,,,,,,,,,,,,,,,,,,,,,,,,,,,,,,,,,,,,,,,,,,,,,,,,,,,,,,,,,,,,,,,,,,,,,,,,,,,,,,,,,,,,,,,,,,,,,,,,,,,,,,,,,,
,,60e33263f1759a9611770793,2024-02-22_05h20.38.140,kallum_motion_pilot,2023.2.2,Win32,29.76190476,60e33263f1759a9611770793,65d6bb0e977760de756971f7,65d6bd55dfcd203fc765b6db,0.0211,0.0211,0,7,7,101,1,seveneight,,,,,,,,,,,,,,,,,,,,,,,,,,,,,,,,,,,,,,,,,,,,,,,,,,,,,,,,,,,,,,,,,,,,,,,,,,,,,,,,,,,,,,,,,,,,,,,,,,,,,,,,,,,,,,,,,,,,,,,,,,,,,,,,,,,,,,,,,
,,60e33263f1759a9611770793,2024-02-22_05h20.38.140,kallum_motion_pilot,2023.2.2,Win32,29.76190476,60e33263f1759a9611770793,65d6bb0e977760de756971f7,65d6bd55dfcd203fc765b6db,0.0213,0.0213,0,8,8,139,1,sixeight,,,,,,,,,,,,,,,,,,,,,,,,,,,,,,,,,,,,,,,,,,,,,,,,,,,,,,,,,,,,,,,,,,,,,,,,,,,,,,,,,,,,,,,,,,,,,,,,,,,,,,,,,,,,,,,,,,,,,,,,,,,,,,,,,,,,,,,,,
,,60e33263f1759a9611770793,2024-02-22_05h20.38.140,kallum_motion_pilot,2023.2.2,Win32,29.76190476,60e33263f1759a9611770793,65d6bb0e977760de756971f7,65d6bd55dfcd203fc765b6db,0.0214,0.0214,0,9,9,144,1,fivesix,,,,,,,,,,,,,,,,,,,,,,,,,,,,,,,,,,,,,,,,,,,,,,,,,,,,,,,,,,,,,,,,,,,,,,,,,,,,,,,,,,,,,,,,,,,,,,,,,,,,,,,,,,,,,,,,,,,,,,,,,,,,,,,,,,,,,,,,,
,,60e33263f1759a9611770793,2024-02-22_05h20.38.140,kallum_motion_pilot,2023.2.2,Win32,29.76190476,60e33263f1759a9611770793,65d6bb0e977760de756971f7,65d6bd55dfcd203fc765b6db,0.0214,0.0214,0,10,10,61,1,threefour,,,,,,,,,,,,,,,,,,,,,,,,,,,,,,,,,,,,,,,,,,,,,,,,,,,,,,,,,,,,,,,,,,,,,,,,,,,,,,,,,,,,,,,,,,,,,,,,,,,,,,,,,,,,,,,,,,,,,,,,,,,,,,,,,,,,,,,,,
,,60e33263f1759a9611770793,2024-02-22_05h20.38.140,kallum_motion_pilot,2023.2.2,Win32,29.76190476,60e33263f1759a9611770793,65d6bb0e977760de756971f7,65d6bd55dfcd203fc765b6db,0.0215,0.0215,0,11,11,62,1,fourtwo,,,,,,,,,,,,,,,,,,,,,,,,,,,,,,,,,,,,,,,,,,,,,,,,,,,,,,,,,,,,,,,,,,,,,,,,,,,,,,,,,,,,,,,,,,,,,,,,,,,,,,,,,,,,,,,,,,,,,,,,,,,,,,,,,,,,,,,,,
,,60e33263f1759a9611770793,2024-02-22_05h20.38.140,kallum_motion_pilot,2023.2.2,Win32,29.76190476,60e33263f1759a9611770793,65d6bb0e977760de756971f7,65d6bd55dfcd203fc765b6db,0.0215,0.0215,0,12,12,48,1,onetwo,,,,,,,,,,,,,,,,,,,,,,,,,,,,,,,,,,,,,,,,,,,,,,,,,,,,,,,,,,,,,,,,,,,,,,,,,,,,,,,,,,,,,,,,,,,,,,,,,,,,,,,,,,,,,,,,,,,,,,,,,,,,,,,,,,,,,,,,,
,,60e33263f1759a9611770793,2024-02-22_05h20.38.140,kallum_motion_pilot,2023.2.2,Win32,29.76190476,60e33263f1759a9611770793,65d6bb0e977760de756971f7,65d6bd55dfcd203fc765b6db,0.0216,0.0216,0,13,13,52,1,threeone,,,,,,,,,,,,,,,,,,,,,,,,,,,,,,,,,,,,,,,,,,,,,,,,,,,,,,,,,,,,,,,,,,,,,,,,,,,,,,,,,,,,,,,,,,,,,,,,,,,,,,,,,,,,,,,,,,,,,,,,,,,,,,,,,,,,,,,,,
,,60e33263f1759a9611770793,2024-02-22_05h20.38.140,kallum_motion_pilot,2023.2.2,Win32,29.76190476,60e33263f1759a9611770793,65d6bb0e977760de756971f7,65d6bd55dfcd203fc765b6db,0.0217,0.0217,0,14,14,54,1,fourtwo,,,,,,,,,,,,,,,,,,,,,,,,,,,,,,,,,,,,,,,,,,,,,,,,,,,,,,,,,,,,,,,,,,,,,,,,,,,,,,,,,,,,,,,,,,,,,,,,,,,,,,,,,,,,,,,,,,,,,,,,,,,,,,,,,,,,,,,,,
,,60e33263f1759a9611770793,2024-02-22_05h20.38.140,kallum_motion_pilot,2023.2.2,Win32,29.76190476,60e33263f1759a9611770793,65d6bb0e977760de756971f7,65d6bd55dfcd203fc765b6db,0.0218,0.0218,0,15,15,125,1,seveneight,,,,,,,,,,,,,,,,,,,,,,,,,,,,,,,,,,,,,,,,,,,,,,,,,,,,,,,,,,,,,,,,,,,,,,,,,,,,,,,,,,,,,,,,,,,,,,,,,,,,,,,,,,,,,,,,,,,,,,,,,,,,,,,,,,,,,,,,,
,,60e33263f1759a9611770793,2024-02-22_05h20.38.140,kallum_motion_pilot,2023.2.2,Win32,29.76190476,60e33263f1759a9611770793,65d6bb0e977760de756971f7,65d6bd55dfcd203fc765b6db,0.0218,0.0218,0,16,16,111,1,eightseven,,,,,,,,,,,,,,,,,,,,,,,,,,,,,,,,,,,,,,,,,,,,,,,,,,,,,,,,,,,,,,,,,,,,,,,,,,,,,,,,,,,,,,,,,,,,,,,,,,,,,,,,,,,,,,,,,,,,,,,,,,,,,,,,,,,,,,,,,
,,60e33263f1759a9611770793,2024-02-22_05h20.38.140,kallum_motion_pilot,2023.2.2,Win32,29.76190476,60e33263f1759a9611770793,65d6bb0e977760de756971f7,65d6bd55dfcd203fc765b6db,0.0219,0.0219,0,17,17,160,1,fivesix,,,,,,,,,,,,,,,,,,,,,,,,,,,,,,,,,,,,,,,,,,,,,,,,,,,,,,,,,,,,,,,,,,,,,,,,,,,,,,,,,,,,,,,,,,,,,,,,,,,,,,,,,,,,,,,,,,,,,,,,,,,,,,,,,,,,,,,,,
,,60e33263f1759a9611770793,2024-02-22_05h20.38.140,kallum_motion_pilot,2023.2.2,Win32,29.76190476,60e33263f1759a9611770793,65d6bb0e977760de756971f7,65d6bd55dfcd203fc765b6db,0.0219,0.0219,0,18,18,96,1,fivesix,,,,,,,,,,,,,,,,,,,,,,,,,,,,,,,,,,,,,,,,,,,,,,,,,,,,,,,,,,,,,,,,,,,,,,,,,,,,,,,,,,,,,,,,,,,,,,,,,,,,,,,,,,,,,,,,,,,,,,,,,,,,,,,,,,,,,,,,,
,,60e33263f1759a9611770793,2024-02-22_05h20.38.140,kallum_motion_pilot,2023.2.2,Win32,29.76190476,60e33263f1759a9611770793,65d6bb0e977760de756971f7,65d6bd55dfcd203fc765b6db,0.022,0.022,0,19,19,109,1,seveneight,,,,,,,,,,,,,,,,,,,,,,,,,,,,,,,,,,,,,,,,,,,,,,,,,,,,,,,,,,,,,,,,,,,,,,,,,,,,,,,,,,,,,,,,,,,,,,,,,,,,,,,,,,,,,,,,,,,,,,,,,,,,,,,,,,,,,,,,,
,,60e33263f1759a9611770793,2024-02-22_05h20.38.140,kallum_motion_pilot,2023.2.2,Win32,29.76190476,60e33263f1759a9611770793,65d6bb0e977760de756971f7,65d6bd55dfcd203fc765b6db,0.022,0.0221,0,20,20,104,1,fivesix,,,,,,,,,,,,,,,,,,,,,,,,,,,,,,,,,,,,,,,,,,,,,,,,,,,,,,,,,,,,,,,,,,,,,,,,,,,,,,,,,,,,,,,,,,,,,,,,,,,,,,,,,,,,,,,,,,,,,,,,,,,,,,,,,,,,,,,,,
,,60e33263f1759a9611770793,2024-02-22_05h20.38.140,kallum_motion_pilot,2023.2.2,Win32,29.76190476,60e33263f1759a9611770793,65d6bb0e977760de756971f7,65d6bd55dfcd203fc765b6db,0.0221,0.0221,0,21,21,102,1,eightsix,,,,,,,,,,,,,,,,,,,,,,,,,,,,,,,,,,,,,,,,,,,,,,,,,,,,,,,,,,,,,,,,,,,,,,,,,,,,,,,,,,,,,,,,,,,,,,,,,,,,,,,,,,,,,,,,,,,,,,,,,,,,,,,,,,,,,,,,,
,,60e33263f1759a9611770793,2024-02-22_05h20.38.140,kallum_motion_pilot,2023.2.2,Win32,29.76190476,60e33263f1759a9611770793,65d6bb0e977760de756971f7,65d6bd55dfcd203fc765b6db,0.0221,0.0221,0,22,22,8,1,onetwo,,,,,,,,,,,,,,,,,,,,,,,,,,,,,,,,,,,,,,,,,,,,,,,,,,,,,,,,,,,,,,,,,,,,,,,,,,,,,,,,,,,,,,,,,,,,,,,,,,,,,,,,,,,,,,,,,,,,,,,,,,,,,,,,,,,,,,,,,
,,60e33263f1759a9611770793,2024-02-22_05h20.38.140,kallum_motion_pilot,2023.2.2,Win32,29.76190476,60e33263f1759a9611770793,65d6bb0e977760de756971f7,65d6bd55dfcd203fc765b6db,0.0221,0.0221,0,23,23,59,1,twofour,,,,,,,,,,,,,,,,,,,,,,,,,,,,,,,,,,,,,,,,,,,,,,,,,,,,,,,,,,,,,,,,,,,,,,,,,,,,,,,,,,,,,,,,,,,,,,,,,,,,,,,,,,,,,,,,,,,,,,,,,,,,,,,,,,,,,,,,,
,,60e33263f1759a9611770793,2024-02-22_05h20.38.140,kallum_motion_pilot,2023.2.2,Win32,29.76190476,60e33263f1759a9611770793,65d6bb0e977760de756971f7,65d6bd55dfcd203fc765b6db,0.0222,0.0223,0,24,24,45,1,threefour,,,,,,,,,,,,,,,,,,,,,,,,,,,,,,,,,,,,,,,,,,,,,,,,,,,,,,,,,,,,,,,,,,,,,,,,,,,,,,,,,,,,,,,,,,,,,,,,,,,,,,,,,,,,,,,,,,,,,,,,,,,,,,,,,,,,,,,,,
,,60e33263f1759a9611770793,2024-02-22_05h20.38.140,kallum_motion_pilot,2023.2.2,Win32,29.76190476,60e33263f1759a9611770793,65d6bb0e977760de756971f7,65d6bd55dfcd203fc765b6db,0.0223,0.0223,0,25,25,95,1,eightseven,,,,,,,,,,,,,,,,,,,,,,,,,,,,,,,,,,,,,,,,,,,,,,,,,,,,,,,,,,,,,,,,,,,,,,,,,,,,,,,,,,,,,,,,,,,,,,,,,,,,,,,,,,,,,,,,,,,,,,,,,,,,,,,,,,,,,,,,,
,,60e33263f1759a9611770793,2024-02-22_05h20.38.140,kallum_motion_pilot,2023.2.2,Win32,29.76190476,60e33263f1759a9611770793,65d6bb0e977760de756971f7,65d6bd55dfcd203fc765b6db,0.0223,0.0223,0,26,26,88,1,fivesix,,,,,,,,,,,,,,,,,,,,,,,,,,,,,,,,,,,,,,,,,,,,,,,,,,,,,,,,,,,,,,,,,,,,,,,,,,,,,,,,,,,,,,,,,,,,,,,,,,,,,,,,,,,,,,,,,,,,,,,,,,,,,,,,,,,,,,,,,
,,60e33263f1759a9611770793,2024-02-22_05h20.38.140,kallum_motion_pilot,2023.2.2,Win32,29.76190476,60e33263f1759a9611770793,65d6bb0e977760de756971f7,65d6bd55dfcd203fc765b6db,0.0224,0.0224,0,27,27,78,1,fourtwo,,,,,,,,,,,,,,,,,,,,,,,,,,,,,,,,,,,,,,,,,,,,,,,,,,,,,,,,,,,,,,,,,,,,,,,,,,,,,,,,,,,,,,,,,,,,,,,,,,,,,,,,,,,,,,,,,,,,,,,,,,,,,,,,,,,,,,,,,
,,60e33263f1759a9611770793,2024-02-22_05h20.38.140,kallum_motion_pilot,2023.2.2,Win32,29.76190476,60e33263f1759a9611770793,65d6bb0e977760de756971f7,65d6bd55dfcd203fc765b6db,0.0225,0.0225,0,28,28,155,1,sixeight,,,,,,,,,,,,,,,,,,,,,,,,,,,,,,,,,,,,,,,,,,,,,,,,,,,,,,,,,,,,,,,,,,,,,,,,,,,,,,,,,,,,,,,,,,,,,,,,,,,,,,,,,,,,,,,,,,,,,,,,,,,,,,,,,,,,,,,,,
,,60e33263f1759a9611770793,2024-02-22_05h20.38.140,kallum_motion_pilot,2023.2.2,Win32,29.76190476,60e33263f1759a9611770793,65d6bb0e977760de756971f7,65d6bd55dfcd203fc765b6db,0.0225,0.0225,0,29,29,154,1,sixfive,,,,,,,,,,,,,,,,,,,,,,,,,,,,,,,,,,,,,,,,,,,,,,,,,,,,,,,,,,,,,,,,,,,,,,,,,,,,,,,,,,,,,,,,,,,,,,,,,,,,,,,,,,,,,,,,,,,,,,,,,,,,,,,,,,,,,,,,,
,,60e33263f1759a9611770793,2024-02-22_05h20.38.140,kallum_motion_pilot,2023.2.2,Win32,29.76190476,60e33263f1759a9611770793,65d6bb0e977760de756971f7,65d6bd55dfcd203fc765b6db,0.0226,0.0226,0,30,30,80,1,fivesix,,,,,,,,,,,,,,,,,,,,,,,,,,,,,,,,,,,,,,,,,,,,,,,,,,,,,,,,,,,,,,,,,,,,,,,,,,,,,,,,,,,,,,,,,,,,,,,,,,,,,,,,,,,,,,,,,,,,,,,,,,,,,,,,,,,,,,,,,
,,60e33263f1759a9611770793,2024-02-22_05h20.38.140,kallum_motion_pilot,2023.2.2,Win32,29.76190476,60e33263f1759a9611770793,65d6bb0e977760de756971f7,65d6bd55dfcd203fc765b6db,0.0226,0.0226,0,31,31,84,1,sevenfive,,,,,,,,,,,,,,,,,,,,,,,,,,,,,,,,,,,,,,,,,,,,,,,,,,,,,,,,,,,,,,,,,,,,,,,,,,,,,,,,,,,,,,,,,,,,,,,,,,,,,,,,,,,,,,,,,,,,,,,,,,,,,,,,,,,,,,,,,
,,60e33263f1759a9611770793,2024-02-22_05h20.38.140,kallum_motion_pilot,2023.2.2,Win32,29.76190476,60e33263f1759a9611770793,65d6bb0e977760de756971f7,65d6bd55dfcd203fc765b6db,0.0227,0.0227,0,32,32,147,1,sixeight,,,,,,,,,,,,,,,,,,,,,,,,,,,,,,,,,,,,,,,,,,,,,,,,,,,,,,,,,,,,,,,,,,,,,,,,,,,,,,,,,,,,,,,,,,,,,,,,,,,,,,,,,,,,,,,,,,,,,,,,,,,,,,,,,,,,,,,,,
,,60e33263f1759a9611770793,2024-02-22_05h20.38.140,kallum_motion_pilot,2023.2.2,Win32,29.76190476,60e33263f1759a9611770793,65d6bb0e977760de756971f7,65d6bd55dfcd203fc765b6db,0.0228,0.0228,0,33,33,9,1,onethree,,,,,,,,,,,,,,,,,,,,,,,,,,,,,,,,,,,,,,,,,,,,,,,,,,,,,,,,,,,,,,,,,,,,,,,,,,,,,,,,,,,,,,,,,,,,,,,,,,,,,,,,,,,,,,,,,,,,,,,,,,,,,,,,,,,,,,,,,
,,60e33263f1759a9611770793,2024-02-22_05h20.38.140,kallum_motion_pilot,2023.2.2,Win32,29.76190476,60e33263f1759a9611770793,65d6bb0e977760de756971f7,65d6bd55dfcd203fc765b6db,0.0229,0.0229,0,34,34,16,1,onetwo,,,,,,,,,,,,,,,,,,,,,,,,,,,,,,,,,,,,,,,,,,,,,,,,,,,,,,,,,,,,,,,,,,,,,,,,,,,,,,,,,,,,,,,,,,,,,,,,,,,,,,,,,,,,,,,,,,,,,,,,,,,,,,,,,,,,,,,,,
,,60e33263f1759a9611770793,2024-02-22_05h20.38.140,kallum_motion_pilot,2023.2.2,Win32,29.76190476,60e33263f1759a9611770793,65d6bb0e977760de756971f7,65d6bd55dfcd203fc765b6db,0.023,0.023,0,35,35,121,1,fiveseven,,,,,,,,,,,,,,,,,,,,,,,,,,,,,,,,,,,,,,,,,,,,,,,,,,,,,,,,,,,,,,,,,,,,,,,,,,,,,,,,,,,,,,,,,,,,,,,,,,,,,,,,,,,,,,,,,,,,,,,,,,,,,,,,,,,,,,,,,
,,60e33263f1759a9611770793,2024-02-22_05h20.38.140,kallum_motion_pilot,2023.2.2,Win32,29.76190476,60e33263f1759a9611770793,65d6bb0e977760de756971f7,65d6bd55dfcd203fc765b6db,0.023,0.0231,0,36,36,2,1,twoone,,,,,,,,,,,,,,,,,,,,,,,,,,,,,,,,,,,,,,,,,,,,,,,,,,,,,,,,,,,,,,,,,,,,,,,,,,,,,,,,,,,,,,,,,,,,,,,,,,,,,,,,,,,,,,,,,,,,,,,,,,,,,,,,,,,,,,,,,
,,60e33263f1759a9611770793,2024-02-22_05h20.38.140,kallum_motion_pilot,2023.2.2,Win32,29.76190476,60e33263f1759a9611770793,65d6bb0e977760de756971f7,65d6bd55dfcd203fc765b6db,0.0232,0.0232,0,37,37,33,1,onethree,,,,,,,,,,,,,,,,,,,,,,,,,,,,,,,,,,,,,,,,,,,,,,,,,,,,,,,,,,,,,,,,,,,,,,,,,,,,,,,,,,,,,,,,,,,,,,,,,,,,,,,,,,,,,,,,,,,,,,,,,,,,,,,,,,,,,,,,,
,,60e33263f1759a9611770793,2024-02-22_05h20.38.140,kallum_motion_pilot,2023.2.2,Win32,29.76190476,60e33263f1759a9611770793,65d6bb0e977760de756971f7,65d6bd55dfcd203fc765b6db,0.0232,0.0232,0,38,38,108,1,sevenfive,,,,,,,,,,,,,,,,,,,,,,,,,,,,,,,,,,,,,,,,,,,,,,,,,,,,,,,,,,,,,,,,,,,,,,,,,,,,,,,,,,,,,,,,,,,,,,,,,,,,,,,,,,,,,,,,,,,,,,,,,,,,,,,,,,,,,,,,,
,,60e33263f1759a9611770793,2024-02-22_05h20.38.140,kallum_motion_pilot,2023.2.2,Win32,29.76190476,60e33263f1759a9611770793,65d6bb0e977760de756971f7,65d6bd55dfcd203fc765b6db,0.0233,0.0233,0,39,39,18,1,twoone,,,,,,,,,,,,,,,,,,,,,,,,,,,,,,,,,,,,,,,,,,,,,,,,,,,,,,,,,,,,,,,,,,,,,,,,,,,,,,,,,,,,,,,,,,,,,,,,,,,,,,,,,,,,,,,,,,,,,,,,,,,,,,,,,,,,,,,,,
,,60e33263f1759a9611770793,2024-02-22_05h20.38.140,kallum_motion_pilot,2023.2.2,Win32,29.76190476,60e33263f1759a9611770793,65d6bb0e977760de756971f7,65d6bd55dfcd203fc765b6db,0.0234,0.0234,0,40,40,56,1,onetwo,,,,,,,,,,,,,,,,,,,,,,,,,,,,,,,,,,,,,,,,,,,,,,,,,,,,,,,,,,,,,,,,,,,,,,,,,,,,,,,,,,,,,,,,,,,,,,,,,,,,,,,,,,,,,,,,,,,,,,,,,,,,,,,,,,,,,,,,,
,,60e33263f1759a9611770793,2024-02-22_05h20.38.140,kallum_motion_pilot,2023.2.2,Win32,29.76190476,60e33263f1759a9611770793,65d6bb0e977760de756971f7,65d6bd55dfcd203fc765b6db,0.0235,0.0235,0,41,41,140,1,sevenfive,,,,,,,,,,,,,,,,,,,,,,,,,,,,,,,,,,,,,,,,,,,,,,,,,,,,,,,,,,,,,,,,,,,,,,,,,,,,,,,,,,,,,,,,,,,,,,,,,,,,,,,,,,,,,,,,,,,,,,,,,,,,,,,,,,,,,,,,,
,,60e33263f1759a9611770793,2024-02-22_05h20.38.140,kallum_motion_pilot,2023.2.2,Win32,29.76190476,60e33263f1759a9611770793,65d6bb0e977760de756971f7,65d6bd55dfcd203fc765b6db,0.0237,0.0237,0,42,42,142,1,eightsix,,,,,,,,,,,,,,,,,,,,,,,,,,,,,,,,,,,,,,,,,,,,,,,,,,,,,,,,,,,,,,,,,,,,,,,,,,,,,,,,,,,,,,,,,,,,,,,,,,,,,,,,,,,,,,,,,,,,,,,,,,,,,,,,,,,,,,,,,
,,60e33263f1759a9611770793,2024-02-22_05h20.38.140,kallum_motion_pilot,2023.2.2,Win32,29.76190476,60e33263f1759a9611770793,65d6bb0e977760de756971f7,65d6bd55dfcd203fc765b6db,0.0237,0.0237,0,43,43,148,1,sevenfive,,,,,,,,,,,,,,,,,,,,,,,,,,,,,,,,,,,,,,,,,,,,,,,,,,,,,,,,,,,,,,,,,,,,,,,,,,,,,,,,,,,,,,,,,,,,,,,,,,,,,,,,,,,,,,,,,,,,,,,,,,,,,,,,,,,,,,,,,
,,60e33263f1759a9611770793,2024-02-22_05h20.38.140,kallum_motion_pilot,2023.2.2,Win32,29.76190476,60e33263f1759a9611770793,65d6bb0e977760de756971f7,65d6bd55dfcd203fc765b6db,0.0239,0.0239,0,44,44,67,1,twofour,,,,,,,,,,,,,,,,,,,,,,,,,,,,,,,,,,,,,,,,,,,,,,,,,,,,,,,,,,,,,,,,,,,,,,,,,,,,,,,,,,,,,,,,,,,,,,,,,,,,,,,,,,,,,,,,,,,,,,,,,,,,,,,,,,,,,,,,,
,,60e33263f1759a9611770793,2024-02-22_05h20.38.140,kallum_motion_pilot,2023.2.2,Win32,29.76190476,60e33263f1759a9611770793,65d6bb0e977760de756971f7,65d6bd55dfcd203fc765b6db,0.0239,0.0239,0,45,45,43,1,twofour,,,,,,,,,,,,,,,,,,,,,,,,,,,,,,,,,,,,,,,,,,,,,,,,,,,,,,,,,,,,,,,,,,,,,,,,,,,,,,,,,,,,,,,,,,,,,,,,,,,,,,,,,,,,,,,,,,,,,,,,,,,,,,,,,,,,,,,,,
,,60e33263f1759a9611770793,2024-02-22_05h20.38.140,kallum_motion_pilot,2023.2.2,Win32,29.76190476,60e33263f1759a9611770793,65d6bb0e977760de756971f7,65d6bd55dfcd203fc765b6db,0.024,0.024,0,46,46,58,1,twoone,,,,,,,,,,,,,,,,,,,,,,,,,,,,,,,,,,,,,,,,,,,,,,,,,,,,,,,,,,,,,,,,,,,,,,,,,,,,,,,,,,,,,,,,,,,,,,,,,,,,,,,,,,,,,,,,,,,,,,,,,,,,,,,,,,,,,,,,,
,,60e33263f1759a9611770793,2024-02-22_05h20.38.140,kallum_motion_pilot,2023.2.2,Win32,29.76190476,60e33263f1759a9611770793,65d6bb0e977760de756971f7,65d6bd55dfcd203fc765b6db,0.024,0.024,0,47,47,28,1,threeone,,,,,,,,,,,,,,,,,,,,,,,,,,,,,,,,,,,,,,,,,,,,,,,,,,,,,,,,,,,,,,,,,,,,,,,,,,,,,,,,,,,,,,,,,,,,,,,,,,,,,,,,,,,,,,,,,,,,,,,,,,,,,,,,,,,,,,,,,
,,60e33263f1759a9611770793,2024-02-22_05h20.38.140,kallum_motion_pilot,2023.2.2,Win32,29.76190476,60e33263f1759a9611770793,65d6bb0e977760de756971f7,65d6bd55dfcd203fc765b6db,0.0241,0.0242,0,48,48,15,1,fourthree,,,,,,,,,,,,,,,,,,,,,,,,,,,,,,,,,,,,,,,,,,,,,,,,,,,,,,,,,,,,,,,,,,,,,,,,,,,,,,,,,,,,,,,,,,,,,,,,,,,,,,,,,,,,,,,,,,,,,,,,,,,,,,,,,,,,,,,,,
,,60e33263f1759a9611770793,2024-02-22_05h20.38.140,kallum_motion_pilot,2023.2.2,Win32,29.76190476,60e33263f1759a9611770793,65d6bb0e977760de756971f7,65d6bd55dfcd203fc765b6db,0.0242,0.0242,0,49,49,91,1,sixeight,,,,,,,,,,,,,,,,,,,,,,,,,,,,,,,,,,,,,,,,,,,,,,,,,,,,,,,,,,,,,,,,,,,,,,,,,,,,,,,,,,,,,,,,,,,,,,,,,,,,,,,,,,,,,,,,,,,,,,,,,,,,,,,,,,,,,,,,,
,,60e33263f1759a9611770793,2024-02-22_05h20.38.140,kallum_motion_pilot,2023.2.2,Win32,29.76190476,60e33263f1759a9611770793,65d6bb0e977760de756971f7,65d6bd55dfcd203fc765b6db,0.0243,0.0243,0,50,50,98,1,sixfive,,,,,,,,,,,,,,,,,,,,,,,,,,,,,,,,,,,,,,,,,,,,,,,,,,,,,,,,,,,,,,,,,,,,,,,,,,,,,,,,,,,,,,,,,,,,,,,,,,,,,,,,,,,,,,,,,,,,,,,,,,,,,,,,,,,,,,,,,
,,60e33263f1759a9611770793,2024-02-22_05h20.38.140,kallum_motion_pilot,2023.2.2,Win32,29.76190476,60e33263f1759a9611770793,65d6bb0e977760de756971f7,65d6bd55dfcd203fc765b6db,0.0243,0.0243,0,51,51,14,1,fourtwo,,,,,,,,,,,,,,,,,,,,,,,,,,,,,,,,,,,,,,,,,,,,,,,,,,,,,,,,,,,,,,,,,,,,,,,,,,,,,,,,,,,,,,,,,,,,,,,,,,,,,,,,,,,,,,,,,,,,,,,,,,,,,,,,,,,,,,,,,
,,60e33263f1759a9611770793,2024-02-22_05h20.38.140,kallum_motion_pilot,2023.2.2,Win32,29.76190476,60e33263f1759a9611770793,65d6bb0e977760de756971f7,65d6bd55dfcd203fc765b6db,0.0243,0.0244,0,52,52,0,1,onetwo,,,,,,,,,,,,,,,,,,,,,,,,,,,,,,,,,,,,,,,,,,,,,,,,,,,,,,,,,,,,,,,,,,,,,,,,,,,,,,,,,,,,,,,,,,,,,,,,,,,,,,,,,,,,,,,,,,,,,,,,,,,,,,,,,,,,,,,,,
,,60e33263f1759a9611770793,2024-02-22_05h20.38.140,kallum_motion_pilot,2023.2.2,Win32,29.76190476,60e33263f1759a9611770793,65d6bb0e977760de756971f7,65d6bd55dfcd203fc765b6db,0.0244,0.0244,0,53,53,132,1,sevenfive,,,,,,,,,,,,,,,,,,,,,,,,,,,,,,,,,,,,,,,,,,,,,,,,,,,,,,,,,,,,,,,,,,,,,,,,,,,,,,,,,,,,,,,,,,,,,,,,,,,,,,,,,,,,,,,,,,,,,,,,,,,,,,,,,,,,,,,,,
,,60e33263f1759a9611770793,2024-02-22_05h20.38.140,kallum_motion_pilot,2023.2.2,Win32,29.76190476,60e33263f1759a9611770793,65d6bb0e977760de756971f7,65d6bd55dfcd203fc765b6db,0.0251,0.0251,0,54,54,81,1,fiveseven,,,,,,,,,,,,,,,,,,,,,,,,,,,,,,,,,,,,,,,,,,,,,,,,,,,,,,,,,,,,,,,,,,,,,,,,,,,,,,,,,,,,,,,,,,,,,,,,,,,,,,,,,,,,,,,,,,,,,,,,,,,,,,,,,,,,,,,,,
,,60e33263f1759a9611770793,2024-02-22_05h20.38.140,kallum_motion_pilot,2023.2.2,Win32,29.76190476,60e33263f1759a9611770793,65d6bb0e977760de756971f7,65d6bd55dfcd203fc765b6db,0.0252,0.0252,0,55,55,122,1,sixfive,,,,,,,,,,,,,,,,,,,,,,,,,,,,,,,,,,,,,,,,,,,,,,,,,,,,,,,,,,,,,,,,,,,,,,,,,,,,,,,,,,,,,,,,,,,,,,,,,,,,,,,,,,,,,,,,,,,,,,,,,,,,,,,,,,,,,,,,,
,,60e33263f1759a9611770793,2024-02-22_05h20.38.140,kallum_motion_pilot,2023.2.2,Win32,29.76190476,60e33263f1759a9611770793,65d6bb0e977760de756971f7,65d6bd55dfcd203fc765b6db,0.0253,0.0253,0,56,56,136,1,fivesix,,,,,,,,,,,,,,,,,,,,,,,,,,,,,,,,,,,,,,,,,,,,,,,,,,,,,,,,,,,,,,,,,,,,,,,,,,,,,,,,,,,,,,,,,,,,,,,,,,,,,,,,,,,,,,,,,,,,,,,,,,,,,,,,,,,,,,,,,
,,60e33263f1759a9611770793,2024-02-22_05h20.38.140,kallum_motion_pilot,2023.2.2,Win32,29.76190476,60e33263f1759a9611770793,65d6bb0e977760de756971f7,65d6bd55dfcd203fc765b6db,0.0253,0.0254,0,57,57,12,1,threeone,,,,,,,,,,,,,,,,,,,,,,,,,,,,,,,,,,,,,,,,,,,,,,,,,,,,,,,,,,,,,,,,,,,,,,,,,,,,,,,,,,,,,,,,,,,,,,,,,,,,,,,,,,,,,,,,,,,,,,,,,,,,,,,,,,,,,,,,,
,,60e33263f1759a9611770793,2024-02-22_05h20.38.140,kallum_motion_pilot,2023.2.2,Win32,29.76190476,60e33263f1759a9611770793,65d6bb0e977760de756971f7,65d6bd55dfcd203fc765b6db,0.0254,0.0255,0,58,58,119,1,eightseven,,,,,,,,,,,,,,,,,,,,,,,,,,,,,,,,,,,,,,,,,,,,,,,,,,,,,,,,,,,,,,,,,,,,,,,,,,,,,,,,,,,,,,,,,,,,,,,,,,,,,,,,,,,,,,,,,,,,,,,,,,,,,,,,,,,,,,,,,
,,60e33263f1759a9611770793,2024-02-22_05h20.38.140,kallum_motion_pilot,2023.2.2,Win32,29.76190476,60e33263f1759a9611770793,65d6bb0e977760de756971f7,65d6bd55dfcd203fc765b6db,0.0255,0.0255,0,59,59,107,1,sixeight,,,,,,,,,,,,,,,,,,,,,,,,,,,,,,,,,,,,,,,,,,,,,,,,,,,,,,,,,,,,,,,,,,,,,,,,,,,,,,,,,,,,,,,,,,,,,,,,,,,,,,,,,,,,,,,,,,,,,,,,,,,,,,,,,,,,,,,,,
,,60e33263f1759a9611770793,2024-02-22_05h20.38.140,kallum_motion_pilot,2023.2.2,Win32,29.76190476,60e33263f1759a9611770793,65d6bb0e977760de756971f7,65d6bd55dfcd203fc765b6db,0.0255,0.0255,0,60,60,120,1,fivesix,,,,,,,,,,,,,,,,,,,,,,,,,,,,,,,,,,,,,,,,,,,,,,,,,,,,,,,,,,,,,,,,,,,,,,,,,,,,,,,,,,,,,,,,,,,,,,,,,,,,,,,,,,,,,,,,,,,,,,,,,,,,,,,,,,,,,,,,,
,,60e33263f1759a9611770793,2024-02-22_05h20.38.140,kallum_motion_pilot,2023.2.2,Win32,29.76190476,60e33263f1759a9611770793,65d6bb0e977760de756971f7,65d6bd55dfcd203fc765b6db,0.0256,0.0256,0,61,61,64,1,onetwo,,,,,,,,,,,,,,,,,,,,,,,,,,,,,,,,,,,,,,,,,,,,,,,,,,,,,,,,,,,,,,,,,,,,,,,,,,,,,,,,,,,,,,,,,,,,,,,,,,,,,,,,,,,,,,,,,,,,,,,,,,,,,,,,,,,,,,,,,
,,60e33263f1759a9611770793,2024-02-22_05h20.38.140,kallum_motion_pilot,2023.2.2,Win32,29.76190476,60e33263f1759a9611770793,65d6bb0e977760de756971f7,65d6bd55dfcd203fc765b6db,0.0257,0.0257,0,62,62,105,1,fiveseven,,,,,,,,,,,,,,,,,,,,,,,,,,,,,,,,,,,,,,,,,,,,,,,,,,,,,,,,,,,,,,,,,,,,,,,,,,,,,,,,,,,,,,,,,,,,,,,,,,,,,,,,,,,,,,,,,,,,,,,,,,,,,,,,,,,,,,,,,
,,60e33263f1759a9611770793,2024-02-22_05h20.38.140,kallum_motion_pilot,2023.2.2,Win32,29.76190476,60e33263f1759a9611770793,65d6bb0e977760de756971f7,65d6bd55dfcd203fc765b6db,0.0258,0.0258,0,63,63,22,1,fourtwo,,,,,,,,,,,,,,,,,,,,,,,,,,,,,,,,,,,,,,,,,,,,,,,,,,,,,,,,,,,,,,,,,,,,,,,,,,,,,,,,,,,,,,,,,,,,,,,,,,,,,,,,,,,,,,,,,,,,,,,,,,,,,,,,,,,,,,,,,
,,60e33263f1759a9611770793,2024-02-22_05h20.38.140,kallum_motion_pilot,2023.2.2,Win32,29.76190476,60e33263f1759a9611770793,65d6bb0e977760de756971f7,65d6bd55dfcd203fc765b6db,0.0259,0.0259,0,64,64,27,1,twofour,,,,,,,,,,,,,,,,,,,,,,,,,,,,,,,,,,,,,,,,,,,,,,,,,,,,,,,,,,,,,,,,,,,,,,,,,,,,,,,,,,,,,,,,,,,,,,,,,,,,,,,,,,,,,,,,,,,,,,,,,,,,,,,,,,,,,,,,,
,,60e33263f1759a9611770793,2024-02-22_05h20.38.140,kallum_motion_pilot,2023.2.2,Win32,29.76190476,60e33263f1759a9611770793,65d6bb0e977760de756971f7,65d6bd55dfcd203fc765b6db,0.0259,0.026,0,65,65,71,1,fourthree,,,,,,,,,,,,,,,,,,,,,,,,,,,,,,,,,,,,,,,,,,,,,,,,,,,,,,,,,,,,,,,,,,,,,,,,,,,,,,,,,,,,,,,,,,,,,,,,,,,,,,,,,,,,,,,,,,,,,,,,,,,,,,,,,,,,,,,,,
,,60e33263f1759a9611770793,2024-02-22_05h20.38.140,kallum_motion_pilot,2023.2.2,Win32,29.76190476,60e33263f1759a9611770793,65d6bb0e977760de756971f7,65d6bd55dfcd203fc765b6db,0.026,0.026,0,66,66,32,1,onetwo,,,,,,,,,,,,,,,,,,,,,,,,,,,,,,,,,,,,,,,,,,,,,,,,,,,,,,,,,,,,,,,,,,,,,,,,,,,,,,,,,,,,,,,,,,,,,,,,,,,,,,,,,,,,,,,,,,,,,,,,,,,,,,,,,,,,,,,,,
,,60e33263f1759a9611770793,2024-02-22_05h20.38.140,kallum_motion_pilot,2023.2.2,Win32,29.76190476,60e33263f1759a9611770793,65d6bb0e977760de756971f7,65d6bd55dfcd203fc765b6db,0.0261,0.0261,0,67,67,99,1,sixeight,,,,,,,,,,,,,,,,,,,,,,,,,,,,,,,,,,,,,,,,,,,,,,,,,,,,,,,,,,,,,,,,,,,,,,,,,,,,,,,,,,,,,,,,,,,,,,,,,,,,,,,,,,,,,,,,,,,,,,,,,,,,,,,,,,,,,,,,,
,,60e33263f1759a9611770793,2024-02-22_05h20.38.140,kallum_motion_pilot,2023.2.2,Win32,29.76190476,60e33263f1759a9611770793,65d6bb0e977760de756971f7,65d6bd55dfcd203fc765b6db,0.0262,0.0262,0,68,68,113,1,fiveseven,,,,,,,,,,,,,,,,,,,,,,,,,,,,,,,,,,,,,,,,,,,,,,,,,,,,,,,,,,,,,,,,,,,,,,,,,,,,,,,,,,,,,,,,,,,,,,,,,,,,,,,,,,,,,,,,,,,,,,,,,,,,,,,,,,,,,,,,,
,,60e33263f1759a9611770793,2024-02-22_05h20.38.140,kallum_motion_pilot,2023.2.2,Win32,29.76190476,60e33263f1759a9611770793,65d6bb0e977760de756971f7,65d6bd55dfcd203fc765b6db,0.0262,0.0263,0,69,69,153,1,fiveseven,,,,,,,,,,,,,,,,,,,,,,,,,,,,,,,,,,,,,,,,,,,,,,,,,,,,,,,,,,,,,,,,,,,,,,,,,,,,,,,,,,,,,,,,,,,,,,,,,,,,,,,,,,,,,,,,,,,,,,,,,,,,,,,,,,,,,,,,,
,,60e33263f1759a9611770793,2024-02-22_05h20.38.140,kallum_motion_pilot,2023.2.2,Win32,29.76190476,60e33263f1759a9611770793,65d6bb0e977760de756971f7,65d6bd55dfcd203fc765b6db,0.0264,0.0264,0,70,70,10,1,twoone,,,,,,,,,,,,,,,,,,,,,,,,,,,,,,,,,,,,,,,,,,,,,,,,,,,,,,,,,,,,,,,,,,,,,,,,,,,,,,,,,,,,,,,,,,,,,,,,,,,,,,,,,,,,,,,,,,,,,,,,,,,,,,,,,,,,,,,,,
,,60e33263f1759a9611770793,2024-02-22_05h20.38.140,kallum_motion_pilot,2023.2.2,Win32,29.76190476,60e33263f1759a9611770793,65d6bb0e977760de756971f7,65d6bd55dfcd203fc765b6db,0.0265,0.0265,0,71,71,35,1,twofour,,,,,,,,,,,,,,,,,,,,,,,,,,,,,,,,,,,,,,,,,,,,,,,,,,,,,,,,,,,,,,,,,,,,,,,,,,,,,,,,,,,,,,,,,,,,,,,,,,,,,,,,,,,,,,,,,,,,,,,,,,,,,,,,,,,,,,,,,
,,60e33263f1759a9611770793,2024-02-22_05h20.38.140,kallum_motion_pilot,2023.2.2,Win32,29.76190476,60e33263f1759a9611770793,65d6bb0e977760de756971f7,65d6bd55dfcd203fc765b6db,0.0268,0.0269,0,72,72,4,1,threeone,,,,,,,,,,,,,,,,,,,,,,,,,,,,,,,,,,,,,,,,,,,,,,,,,,,,,,,,,,,,,,,,,,,,,,,,,,,,,,,,,,,,,,,,,,,,,,,,,,,,,,,,,,,,,,,,,,,,,,,,,,,,,,,,,,,,,,,,,
,,60e33263f1759a9611770793,2024-02-22_05h20.38.140,kallum_motion_pilot,2023.2.2,Win32,29.76190476,60e33263f1759a9611770793,65d6bb0e977760de756971f7,65d6bd55dfcd203fc765b6db,0.0269,0.027,0,73,73,93,1,seveneight,,,,,,,,,,,,,,,,,,,,,,,,,,,,,,,,,,,,,,,,,,,,,,,,,,,,,,,,,,,,,,,,,,,,,,,,,,,,,,,,,,,,,,,,,,,,,,,,,,,,,,,,,,,,,,,,,,,,,,,,,,,,,,,,,,,,,,,,,
,,60e33263f1759a9611770793,2024-02-22_05h20.38.140,kallum_motion_pilot,2023.2.2,Win32,29.76190476,60e33263f1759a9611770793,65d6bb0e977760de756971f7,65d6bd55dfcd203fc765b6db,0.0271,0.0272,0,74,74,131,1,sixeight,,,,,,,,,,,,,,,,,,,,,,,,,,,,,,,,,,,,,,,,,,,,,,,,,,,,,,,,,,,,,,,,,,,,,,,,,,,,,,,,,,,,,,,,,,,,,,,,,,,,,,,,,,,,,,,,,,,,,,,,,,,,,,,,,,,,,,,,,
,,60e33263f1759a9611770793,2024-02-22_05h20.38.140,kallum_motion_pilot,2023.2.2,Win32,29.76190476,60e33263f1759a9611770793,65d6bb0e977760de756971f7,65d6bd55dfcd203fc765b6db,0.0273,0.0274,0,75,75,63,1,fourthree,,,,,,,,,,,,,,,,,,,,,,,,,,,,,,,,,,,,,,,,,,,,,,,,,,,,,,,,,,,,,,,,,,,,,,,,,,,,,,,,,,,,,,,,,,,,,,,,,,,,,,,,,,,,,,,,,,,,,,,,,,,,,,,,,,,,,,,,,
,,60e33263f1759a9611770793,2024-02-22_05h20.38.140,kallum_motion_pilot,2023.2.2,Win32,29.76190476,60e33263f1759a9611770793,65d6bb0e977760de756971f7,65d6bd55dfcd203fc765b6db,0.0275,0.0275,0,76,76,149,1,seveneight,,,,,,,,,,,,,,,,,,,,,,,,,,,,,,,,,,,,,,,,,,,,,,,,,,,,,,,,,,,,,,,,,,,,,,,,,,,,,,,,,,,,,,,,,,,,,,,,,,,,,,,,,,,,,,,,,,,,,,,,,,,,,,,,,,,,,,,,,
,,60e33263f1759a9611770793,2024-02-22_05h20.38.140,kallum_motion_pilot,2023.2.2,Win32,29.76190476,60e33263f1759a9611770793,65d6bb0e977760de756971f7,65d6bd55dfcd203fc765b6db,0.0276,0.0277,0,77,77,77,1,threefour,,,,,,,,,,,,,,,,,,,,,,,,,,,,,,,,,,,,,,,,,,,,,,,,,,,,,,,,,,,,,,,,,,,,,,,,,,,,,,,,,,,,,,,,,,,,,,,,,,,,,,,,,,,,,,,,,,,,,,,,,,,,,,,,,,,,,,,,,
,,60e33263f1759a9611770793,2024-02-22_05h20.38.140,kallum_motion_pilot,2023.2.2,Win32,29.76190476,60e33263f1759a9611770793,65d6bb0e977760de756971f7,65d6bd55dfcd203fc765b6db,0.0278,0.0278,0,78,78,161,1,fiveseven,,,,,,,,,,,,,,,,,,,,,,,,,,,,,,,,,,,,,,,,,,,,,,,,,,,,,,,,,,,,,,,,,,,,,,,,,,,,,,,,,,,,,,,,,,,,,,,,,,,,,,,,,,,,,,,,,,,,,,,,,,,,,,,,,,,,,,,,,
,,60e33263f1759a9611770793,2024-02-22_05h20.38.140,kallum_motion_pilot,2023.2.2,Win32,29.76190476,60e33263f1759a9611770793,65d6bb0e977760de756971f7,65d6bd55dfcd203fc765b6db,0.0279,0.028,0,79,79,26,1,twoone,,,,,,,,,,,,,,,,,,,,,,,,,,,,,,,,,,,,,,,,,,,,,,,,,,,,,,,,,,,,,,,,,,,,,,,,,,,,,,,,,,,,,,,,,,,,,,,,,,,,,,,,,,,,,,,,,,,,,,,,,,,,,,,,,,,,,,,,,
,,60e33263f1759a9611770793,2024-02-22_05h20.38.140,kallum_motion_pilot,2023.2.2,Win32,29.76190476,60e33263f1759a9611770793,65d6bb0e977760de756971f7,65d6bd55dfcd203fc765b6db,0.0283,0.0284,0,80,80,29,1,threefour,,,,,,,,,,,,,,,,,,,,,,,,,,,,,,,,,,,,,,,,,,,,,,,,,,,,,,,,,,,,,,,,,,,,,,,,,,,,,,,,,,,,,,,,,,,,,,,,,,,,,,,,,,,,,,,,,,,,,,,,,,,,,,,,,,,,,,,,,
,,60e33263f1759a9611770793,2024-02-22_05h20.38.140,kallum_motion_pilot,2023.2.2,Win32,29.76190476,60e33263f1759a9611770793,65d6bb0e977760de756971f7,65d6bd55dfcd203fc765b6db,0.0286,0.0286,0,81,81,6,1,fourtwo,,,,,,,,,,,,,,,,,,,,,,,,,,,,,,,,,,,,,,,,,,,,,,,,,,,,,,,,,,,,,,,,,,,,,,,,,,,,,,,,,,,,,,,,,,,,,,,,,,,,,,,,,,,,,,,,,,,,,,,,,,,,,,,,,,,,,,,,,
,,60e33263f1759a9611770793,2024-02-22_05h20.38.140,kallum_motion_pilot,2023.2.2,Win32,29.76190476,60e33263f1759a9611770793,65d6bb0e977760de756971f7,65d6bd55dfcd203fc765b6db,0.0288,0.0289,0,82,82,31,1,fourthree,,,,,,,,,,,,,,,,,,,,,,,,,,,,,,,,,,,,,,,,,,,,,,,,,,,,,,,,,,,,,,,,,,,,,,,,,,,,,,,,,,,,,,,,,,,,,,,,,,,,,,,,,,,,,,,,,,,,,,,,,,,,,,,,,,,,,,,,,
,,60e33263f1759a9611770793,2024-02-22_05h20.38.140,kallum_motion_pilot,2023.2.2,Win32,29.76190476,60e33263f1759a9611770793,65d6bb0e977760de756971f7,65d6bd55dfcd203fc765b6db,0.029,0.029,0,83,83,87,1,eightseven,,,,,,,,,,,,,,,,,,,,,,,,,,,,,,,,,,,,,,,,,,,,,,,,,,,,,,,,,,,,,,,,,,,,,,,,,,,,,,,,,,,,,,,,,,,,,,,,,,,,,,,,,,,,,,,,,,,,,,,,,,,,,,,,,,,,,,,,,
,,60e33263f1759a9611770793,2024-02-22_05h20.38.140,kallum_motion_pilot,2023.2.2,Win32,29.76190476,60e33263f1759a9611770793,65d6bb0e977760de756971f7,65d6bd55dfcd203fc765b6db,0.0291,0.0292,0,84,84,130,1,sixfive,,,,,,,,,,,,,,,,,,,,,,,,,,,,,,,,,,,,,,,,,,,,,,,,,,,,,,,,,,,,,,,,,,,,,,,,,,,,,,,,,,,,,,,,,,,,,,,,,,,,,,,,,,,,,,,,,,,,,,,,,,,,,,,,,,,,,,,,,
,,60e33263f1759a9611770793,2024-02-22_05h20.38.140,kallum_motion_pilot,2023.2.2,Win32,29.76190476,60e33263f1759a9611770793,65d6bb0e977760de756971f7,65d6bd55dfcd203fc765b6db,0.0293,0.0293,0,85,85,150,1,eightsix,,,,,,,,,,,,,,,,,,,,,,,,,,,,,,,,,,,,,,,,,,,,,,,,,,,,,,,,,,,,,,,,,,,,,,,,,,,,,,,,,,,,,,,,,,,,,,,,,,,,,,,,,,,,,,,,,,,,,,,,,,,,,,,,,,,,,,,,,
,,60e33263f1759a9611770793,2024-02-22_05h20.38.140,kallum_motion_pilot,2023.2.2,Win32,29.76190476,60e33263f1759a9611770793,65d6bb0e977760de756971f7,65d6bd55dfcd203fc765b6db,0.0294,0.0294,0,86,86,112,1,fivesix,,,,,,,,,,,,,,,,,,,,,,,,,,,,,,,,,,,,,,,,,,,,,,,,,,,,,,,,,,,,,,,,,,,,,,,,,,,,,,,,,,,,,,,,,,,,,,,,,,,,,,,,,,,,,,,,,,,,,,,,,,,,,,,,,,,,,,,,,
,,60e33263f1759a9611770793,2024-02-22_05h20.38.140,kallum_motion_pilot,2023.2.2,Win32,29.76190476,60e33263f1759a9611770793,65d6bb0e977760de756971f7,65d6bd55dfcd203fc765b6db,0.0295,0.0296,0,87,87,5,1,threefour,,,,,,,,,,,,,,,,,,,,,,,,,,,,,,,,,,,,,,,,,,,,,,,,,,,,,,,,,,,,,,,,,,,,,,,,,,,,,,,,,,,,,,,,,,,,,,,,,,,,,,,,,,,,,,,,,,,,,,,,,,,,,,,,,,,,,,,,,
,,60e33263f1759a9611770793,2024-02-22_05h20.38.140,kallum_motion_pilot,2023.2.2,Win32,29.76190476,60e33263f1759a9611770793,65d6bb0e977760de756971f7,65d6bd55dfcd203fc765b6db,0.0298,0.03,0,88,88,44,1,threeone,,,,,,,,,,,,,,,,,,,,,,,,,,,,,,,,,,,,,,,,,,,,,,,,,,,,,,,,,,,,,,,,,,,,,,,,,,,,,,,,,,,,,,,,,,,,,,,,,,,,,,,,,,,,,,,,,,,,,,,,,,,,,,,,,,,,,,,,,
,,60e33263f1759a9611770793,2024-02-22_05h20.38.140,kallum_motion_pilot,2023.2.2,Win32,29.76190476,60e33263f1759a9611770793,65d6bb0e977760de756971f7,65d6bd55dfcd203fc765b6db,0.0304,0.0304,0,89,89,3,1,twofour,,,,,,,,,,,,,,,,,,,,,,,,,,,,,,,,,,,,,,,,,,,,,,,,,,,,,,,,,,,,,,,,,,,,,,,,,,,,,,,,,,,,,,,,,,,,,,,,,,,,,,,,,,,,,,,,,,,,,,,,,,,,,,,,,,,,,,,,,
,,60e33263f1759a9611770793,2024-02-22_05h20.38.140,kallum_motion_pilot,2023.2.2,Win32,29.76190476,60e33263f1759a9611770793,65d6bb0e977760de756971f7,65d6bd55dfcd203fc765b6db,0.0307,0.0308,0,90,90,40,1,onetwo,,,,,,,,,,,,,,,,,,,,,,,,,,,,,,,,,,,,,,,,,,,,,,,,,,,,,,,,,,,,,,,,,,,,,,,,,,,,,,,,,,,,,,,,,,,,,,,,,,,,,,,,,,,,,,,,,,,,,,,,,,,,,,,,,,,,,,,,,
,,60e33263f1759a9611770793,2024-02-22_05h20.38.140,kallum_motion_pilot,2023.2.2,Win32,29.76190476,60e33263f1759a9611770793,65d6bb0e977760de756971f7,65d6bd55dfcd203fc765b6db,0.0309,0.0309,0,91,91,46,1,fourtwo,,,,,,,,,,,,,,,,,,,,,,,,,,,,,,,,,,,,,,,,,,,,,,,,,,,,,,,,,,,,,,,,,,,,,,,,,,,,,,,,,,,,,,,,,,,,,,,,,,,,,,,,,,,,,,,,,,,,,,,,,,,,,,,,,,,,,,,,,
,,60e33263f1759a9611770793,2024-02-22_05h20.38.140,kallum_motion_pilot,2023.2.2,Win32,29.76190476,60e33263f1759a9611770793,65d6bb0e977760de756971f7,65d6bd55dfcd203fc765b6db,0.0311,0.0312,0,92,92,34,1,twoone,,,,,,,,,,,,,,,,,,,,,,,,,,,,,,,,,,,,,,,,,,,,,,,,,,,,,,,,,,,,,,,,,,,,,,,,,,,,,,,,,,,,,,,,,,,,,,,,,,,,,,,,,,,,,,,,,,,,,,,,,,,,,,,,,,,,,,,,,
,,60e33263f1759a9611770793,2024-02-22_05h20.38.140,kallum_motion_pilot,2023.2.2,Win32,29.76190476,60e33263f1759a9611770793,65d6bb0e977760de756971f7,65d6bd55dfcd203fc765b6db,0.0313,0.0313,0,93,93,23,1,fourthree,,,,,,,,,,,,,,,,,,,,,,,,,,,,,,,,,,,,,,,,,,,,,,,,,,,,,,,,,,,,,,,,,,,,,,,,,,,,,,,,,,,,,,,,,,,,,,,,,,,,,,,,,,,,,,,,,,,,,,,,,,,,,,,,,,,,,,,,,
,,60e33263f1759a9611770793,2024-02-22_05h20.38.140,kallum_motion_pilot,2023.2.2,Win32,29.76190476,60e33263f1759a9611770793,65d6bb0e977760de756971f7,65d6bd55dfcd203fc765b6db,0.0315,0.0316,0,94,94,51,1,twofour,,,,,,,,,,,,,,,,,,,,,,,,,,,,,,,,,,,,,,,,,,,,,,,,,,,,,,,,,,,,,,,,,,,,,,,,,,,,,,,,,,,,,,,,,,,,,,,,,,,,,,,,,,,,,,,,,,,,,,,,,,,,,,,,,,,,,,,,,
,,60e33263f1759a9611770793,2024-02-22_05h20.38.140,kallum_motion_pilot,2023.2.2,Win32,29.76190476,60e33263f1759a9611770793,65d6bb0e977760de756971f7,65d6bd55dfcd203fc765b6db,0.0319,0.0319,0,95,95,83,1,sixeight,,,,,,,,,,,,,,,,,,,,,,,,,,,,,,,,,,,,,,,,,,,,,,,,,,,,,,,,,,,,,,,,,,,,,,,,,,,,,,,,,,,,,,,,,,,,,,,,,,,,,,,,,,,,,,,,,,,,,,,,,,,,,,,,,,,,,,,,,
,,60e33263f1759a9611770793,2024-02-22_05h20.38.140,kallum_motion_pilot,2023.2.2,Win32,29.76190476,60e33263f1759a9611770793,65d6bb0e977760de756971f7,65d6bd55dfcd203fc765b6db,0.0322,0.0322,0,96,96,72,1,onetwo,,,,,,,,,,,,,,,,,,,,,,,,,,,,,,,,,,,,,,,,,,,,,,,,,,,,,,,,,,,,,,,,,,,,,,,,,,,,,,,,,,,,,,,,,,,,,,,,,,,,,,,,,,,,,,,,,,,,,,,,,,,,,,,,,,,,,,,,,
,,60e33263f1759a9611770793,2024-02-22_05h20.38.140,kallum_motion_pilot,2023.2.2,Win32,29.76190476,60e33263f1759a9611770793,65d6bb0e977760de756971f7,65d6bd55dfcd203fc765b6db,0.0324,0.0324,0,97,97,42,1,twoone,,,,,,,,,,,,,,,,,,,,,,,,,,,,,,,,,,,,,,,,,,,,,,,,,,,,,,,,,,,,,,,,,,,,,,,,,,,,,,,,,,,,,,,,,,,,,,,,,,,,,,,,,,,,,,,,,,,,,,,,,,,,,,,,,,,,,,,,,
,,60e33263f1759a9611770793,2024-02-22_05h20.38.140,kallum_motion_pilot,2023.2.2,Win32,29.76190476,60e33263f1759a9611770793,65d6bb0e977760de756971f7,65d6bd55dfcd203fc765b6db,0.0326,0.0327,0,98,98,1,1,onethree,,,,,,,,,,,,,,,,,,,,,,,,,,,,,,,,,,,,,,,,,,,,,,,,,,,,,,,,,,,,,,,,,,,,,,,,,,,,,,,,,,,,,,,,,,,,,,,,,,,,,,,,,,,,,,,,,,,,,,,,,,,,,,,,,,,,,,,,,
,,60e33263f1759a9611770793,2024-02-22_05h20.38.140,kallum_motion_pilot,2023.2.2,Win32,29.76190476,60e33263f1759a9611770793,65d6bb0e977760de756971f7,65d6bd55dfcd203fc765b6db,0.0327,0.0328,0,99,99,124,1,sevenfive,,,,,,,,,,,,,,,,,,,,,,,,,,,,,,,,,,,,,,,,,,,,,,,,,,,,,,,,,,,,,,,,,,,,,,,,,,,,,,,,,,,,,,,,,,,,,,,,,,,,,,,,,,,,,,,,,,,,,,,,,,,,,,,,,,,,,,,,,
,,60e33263f1759a9611770793,2024-02-22_05h20.38.140,kallum_motion_pilot,2023.2.2,Win32,29.76190476,60e33263f1759a9611770793,65d6bb0e977760de756971f7,65d6bd55dfcd203fc765b6db,0.0329,0.0329,0,100,100,11,1,twofour,,,,,,,,,,,,,,,,,,,,,,,,,,,,,,,,,,,,,,,,,,,,,,,,,,,,,,,,,,,,,,,,,,,,,,,,,,,,,,,,,,,,,,,,,,,,,,,,,,,,,,,,,,,,,,,,,,,,,,,,,,,,,,,,,,,,,,,,,
,,60e33263f1759a9611770793,2024-02-22_05h20.38.140,kallum_motion_pilot,2023.2.2,Win32,29.76190476,60e33263f1759a9611770793,65d6bb0e977760de756971f7,65d6bd55dfcd203fc765b6db,0.033,0.033,0,101,101,38,1,fourtwo,,,,,,,,,,,,,,,,,,,,,,,,,,,,,,,,,,,,,,,,,,,,,,,,,,,,,,,,,,,,,,,,,,,,,,,,,,,,,,,,,,,,,,,,,,,,,,,,,,,,,,,,,,,,,,,,,,,,,,,,,,,,,,,,,,,,,,,,,
,,60e33263f1759a9611770793,2024-02-22_05h20.38.140,kallum_motion_pilot,2023.2.2,Win32,29.76190476,60e33263f1759a9611770793,65d6bb0e977760de756971f7,65d6bd55dfcd203fc765b6db,0.033,0.033,0,102,102,106,1,sixfive,,,,,,,,,,,,,,,,,,,,,,,,,,,,,,,,,,,,,,,,,,,,,,,,,,,,,,,,,,,,,,,,,,,,,,,,,,,,,,,,,,,,,,,,,,,,,,,,,,,,,,,,,,,,,,,,,,,,,,,,,,,,,,,,,,,,,,,,,
,,60e33263f1759a9611770793,2024-02-22_05h20.38.140,kallum_motion_pilot,2023.2.2,Win32,29.76190476,60e33263f1759a9611770793,65d6bb0e977760de756971f7,65d6bd55dfcd203fc765b6db,0.0331,0.0333,0,103,103,57,1,onethree,,,,,,,,,,,,,,,,,,,,,,,,,,,,,,,,,,,,,,,,,,,,,,,,,,,,,,,,,,,,,,,,,,,,,,,,,,,,,,,,,,,,,,,,,,,,,,,,,,,,,,,,,,,,,,,,,,,,,,,,,,,,,,,,,,,,,,,,,
,,60e33263f1759a9611770793,2024-02-22_05h20.38.140,kallum_motion_pilot,2023.2.2,Win32,29.76190476,60e33263f1759a9611770793,65d6bb0e977760de756971f7,65d6bd55dfcd203fc765b6db,0.0333,0.0334,0,104,104,76,1,threeone,,,,,,,,,,,,,,,,,,,,,,,,,,,,,,,,,,,,,,,,,,,,,,,,,,,,,,,,,,,,,,,,,,,,,,,,,,,,,,,,,,,,,,,,,,,,,,,,,,,,,,,,,,,,,,,,,,,,,,,,,,,,,,,,,,,,,,,,,
,,60e33263f1759a9611770793,2024-02-22_05h20.38.140,kallum_motion_pilot,2023.2.2,Win32,29.76190476,60e33263f1759a9611770793,65d6bb0e977760de756971f7,65d6bd55dfcd203fc765b6db,0.0334,0.0334,0,105,105,134,1,eightsix,,,,,,,,,,,,,,,,,,,,,,,,,,,,,,,,,,,,,,,,,,,,,,,,,,,,,,,,,,,,,,,,,,,,,,,,,,,,,,,,,,,,,,,,,,,,,,,,,,,,,,,,,,,,,,,,,,,,,,,,,,,,,,,,,,,,,,,,,
,,60e33263f1759a9611770793,2024-02-22_05h20.38.140,kallum_motion_pilot,2023.2.2,Win32,29.76190476,60e33263f1759a9611770793,65d6bb0e977760de756971f7,65d6bd55dfcd203fc765b6db,0.0335,0.0335,0,106,106,114,1,sixfive,,,,,,,,,,,,,,,,,,,,,,,,,,,,,,,,,,,,,,,,,,,,,,,,,,,,,,,,,,,,,,,,,,,,,,,,,,,,,,,,,,,,,,,,,,,,,,,,,,,,,,,,,,,,,,,,,,,,,,,,,,,,,,,,,,,,,,,,,
,,60e33263f1759a9611770793,2024-02-22_05h20.38.140,kallum_motion_pilot,2023.2.2,Win32,29.76190476,60e33263f1759a9611770793,65d6bb0e977760de756971f7,65d6bd55dfcd203fc765b6db,0.0336,0.0336,0,107,107,50,1,twoone,,,,,,,,,,,,,,,,,,,,,,,,,,,,,,,,,,,,,,,,,,,,,,,,,,,,,,,,,,,,,,,,,,,,,,,,,,,,,,,,,,,,,,,,,,,,,,,,,,,,,,,,,,,,,,,,,,,,,,,,,,,,,,,,,,,,,,,,,
,,60e33263f1759a9611770793,2024-02-22_05h20.38.140,kallum_motion_pilot,2023.2.2,Win32,29.76190476,60e33263f1759a9611770793,65d6bb0e977760de756971f7,65d6bd55dfcd203fc765b6db,0.0337,0.0337,0,108,108,20,1,threeone,,,,,,,,,,,,,,,,,,,,,,,,,,,,,,,,,,,,,,,,,,,,,,,,,,,,,,,,,,,,,,,,,,,,,,,,,,,,,,,,,,,,,,,,,,,,,,,,,,,,,,,,,,,,,,,,,,,,,,,,,,,,,,,,,,,,,,,,,
,,60e33263f1759a9611770793,2024-02-22_05h20.38.140,kallum_motion_pilot,2023.2.2,Win32,29.76190476,60e33263f1759a9611770793,65d6bb0e977760de756971f7,65d6bd55dfcd203fc765b6db,0.0337,0.0338,0,109,109,37,1,threefour,,,,,,,,,,,,,,,,,,,,,,,,,,,,,,,,,,,,,,,,,,,,,,,,,,,,,,,,,,,,,,,,,,,,,,,,,,,,,,,,,,,,,,,,,,,,,,,,,,,,,,,,,,,,,,,,,,,,,,,,,,,,,,,,,,,,,,,,,
,,60e33263f1759a9611770793,2024-02-22_05h20.38.140,kallum_motion_pilot,2023.2.2,Win32,29.76190476,60e33263f1759a9611770793,65d6bb0e977760de756971f7,65d6bd55dfcd203fc765b6db,0.0338,0.0338,0,110,110,123,1,sixeight,,,,,,,,,,,,,,,,,,,,,,,,,,,,,,,,,,,,,,,,,,,,,,,,,,,,,,,,,,,,,,,,,,,,,,,,,,,,,,,,,,,,,,,,,,,,,,,,,,,,,,,,,,,,,,,,,,,,,,,,,,,,,,,,,,,,,,,,,
,,60e33263f1759a9611770793,2024-02-22_05h20.38.140,kallum_motion_pilot,2023.2.2,Win32,29.76190476,60e33263f1759a9611770793,65d6bb0e977760de756971f7,65d6bd55dfcd203fc765b6db,0.034,0.034,0,111,111,100,1,sevenfive,,,,,,,,,,,,,,,,,,,,,,,,,,,,,,,,,,,,,,,,,,,,,,,,,,,,,,,,,,,,,,,,,,,,,,,,,,,,,,,,,,,,,,,,,,,,,,,,,,,,,,,,,,,,,,,,,,,,,,,,,,,,,,,,,,,,,,,,,
,,60e33263f1759a9611770793,2024-02-22_05h20.38.140,kallum_motion_pilot,2023.2.2,Win32,29.76190476,60e33263f1759a9611770793,65d6bb0e977760de756971f7,65d6bd55dfcd203fc765b6db,0.0341,0.0341,0,112,112,55,1,fourthree,,,,,,,,,,,,,,,,,,,,,,,,,,,,,,,,,,,,,,,,,,,,,,,,,,,,,,,,,,,,,,,,,,,,,,,,,,,,,,,,,,,,,,,,,,,,,,,,,,,,,,,,,,,,,,,,,,,,,,,,,,,,,,,,,,,,,,,,,
,,60e33263f1759a9611770793,2024-02-22_05h20.38.140,kallum_motion_pilot,2023.2.2,Win32,29.76190476,60e33263f1759a9611770793,65d6bb0e977760de756971f7,65d6bd55dfcd203fc765b6db,0.0342,0.0342,0,113,113,129,1,fiveseven,,,,,,,,,,,,,,,,,,,,,,,,,,,,,,,,,,,,,,,,,,,,,,,,,,,,,,,,,,,,,,,,,,,,,,,,,,,,,,,,,,,,,,,,,,,,,,,,,,,,,,,,,,,,,,,,,,,,,,,,,,,,,,,,,,,,,,,,,
,,60e33263f1759a9611770793,2024-02-22_05h20.38.140,kallum_motion_pilot,2023.2.2,Win32,29.76190476,60e33263f1759a9611770793,65d6bb0e977760de756971f7,65d6bd55dfcd203fc765b6db,0.0342,0.0343,0,114,114,89,1,fiveseven,,,,,,,,,,,,,,,,,,,,,,,,,,,,,,,,,,,,,,,,,,,,,,,,,,,,,,,,,,,,,,,,,,,,,,,,,,,,,,,,,,,,,,,,,,,,,,,,,,,,,,,,,,,,,,,,,,,,,,,,,,,,,,,,,,,,,,,,,
,,60e33263f1759a9611770793,2024-02-22_05h20.38.140,kallum_motion_pilot,2023.2.2,Win32,29.76190476,60e33263f1759a9611770793,65d6bb0e977760de756971f7,65d6bd55dfcd203fc765b6db,0.0343,0.0343,0,115,115,85,1,seveneight,,,,,,,,,,,,,,,,,,,,,,,,,,,,,,,,,,,,,,,,,,,,,,,,,,,,,,,,,,,,,,,,,,,,,,,,,,,,,,,,,,,,,,,,,,,,,,,,,,,,,,,,,,,,,,,,,,,,,,,,,,,,,,,,,,,,,,,,,
,,60e33263f1759a9611770793,2024-02-22_05h20.38.140,kallum_motion_pilot,2023.2.2,Win32,29.76190476,60e33263f1759a9611770793,65d6bb0e977760de756971f7,65d6bd55dfcd203fc765b6db,0.0344,0.0345,0,116,116,13,1,threefour,,,,,,,,,,,,,,,,,,,,,,,,,,,,,,,,,,,,,,,,,,,,,,,,,,,,,,,,,,,,,,,,,,,,,,,,,,,,,,,,,,,,,,,,,,,,,,,,,,,,,,,,,,,,,,,,,,,,,,,,,,,,,,,,,,,,,,,,,
,,60e33263f1759a9611770793,2024-02-22_05h20.38.140,kallum_motion_pilot,2023.2.2,Win32,29.76190476,60e33263f1759a9611770793,65d6bb0e977760de756971f7,65d6bd55dfcd203fc765b6db,0.0345,0.0345,0,117,117,86,1,eightsix,,,,,,,,,,,,,,,,,,,,,,,,,,,,,,,,,,,,,,,,,,,,,,,,,,,,,,,,,,,,,,,,,,,,,,,,,,,,,,,,,,,,,,,,,,,,,,,,,,,,,,,,,,,,,,,,,,,,,,,,,,,,,,,,,,,,,,,,,
,,60e33263f1759a9611770793,2024-02-22_05h20.38.140,kallum_motion_pilot,2023.2.2,Win32,29.76190476,60e33263f1759a9611770793,65d6bb0e977760de756971f7,65d6bd55dfcd203fc765b6db,0.0346,0.0346,0,118,118,30,1,fourtwo,,,,,,,,,,,,,,,,,,,,,,,,,,,,,,,,,,,,,,,,,,,,,,,,,,,,,,,,,,,,,,,,,,,,,,,,,,,,,,,,,,,,,,,,,,,,,,,,,,,,,,,,,,,,,,,,,,,,,,,,,,,,,,,,,,,,,,,,,
,,60e33263f1759a9611770793,2024-02-22_05h20.38.140,kallum_motion_pilot,2023.2.2,Win32,29.76190476,60e33263f1759a9611770793,65d6bb0e977760de756971f7,65d6bd55dfcd203fc765b6db,0.0347,0.0347,0,119,119,117,1,seveneight,,,,,,,,,,,,,,,,,,,,,,,,,,,,,,,,,,,,,,,,,,,,,,,,,,,,,,,,,,,,,,,,,,,,,,,,,,,,,,,,,,,,,,,,,,,,,,,,,,,,,,,,,,,,,,,,,,,,,,,,,,,,,,,,,,,,,,,,,
,,60e33263f1759a9611770793,2024-02-22_05h20.38.140,kallum_motion_pilot,2023.2.2,Win32,29.76190476,60e33263f1759a9611770793,65d6bb0e977760de756971f7,65d6bd55dfcd203fc765b6db,0.0347,0.0347,0,120,120,133,1,seveneight,,,,,,,,,,,,,,,,,,,,,,,,,,,,,,,,,,,,,,,,,,,,,,,,,,,,,,,,,,,,,,,,,,,,,,,,,,,,,,,,,,,,,,,,,,,,,,,,,,,,,,,,,,,,,,,,,,,,,,,,,,,,,,,,,,,,,,,,,
,,60e33263f1759a9611770793,2024-02-22_05h20.38.140,kallum_motion_pilot,2023.2.2,Win32,29.76190476,60e33263f1759a9611770793,65d6bb0e977760de756971f7,65d6bd55dfcd203fc765b6db,0.0347,0.0348,0,121,121,60,1,threeone,,,,,,,,,,,,,,,,,,,,,,,,,,,,,,,,,,,,,,,,,,,,,,,,,,,,,,,,,,,,,,,,,,,,,,,,,,,,,,,,,,,,,,,,,,,,,,,,,,,,,,,,,,,,,,,,,,,,,,,,,,,,,,,,,,,,,,,,,
,,60e33263f1759a9611770793,2024-02-22_05h20.38.140,kallum_motion_pilot,2023.2.2,Win32,29.76190476,60e33263f1759a9611770793,65d6bb0e977760de756971f7,65d6bd55dfcd203fc765b6db,0.0348,0.0348,0,122,122,75,1,twofour,,,,,,,,,,,,,,,,,,,,,,,,,,,,,,,,,,,,,,,,,,,,,,,,,,,,,,,,,,,,,,,,,,,,,,,,,,,,,,,,,,,,,,,,,,,,,,,,,,,,,,,,,,,,,,,,,,,,,,,,,,,,,,,,,,,,,,,,,
,,60e33263f1759a9611770793,2024-02-22_05h20.38.140,kallum_motion_pilot,2023.2.2,Win32,29.76190476,60e33263f1759a9611770793,65d6bb0e977760de756971f7,65d6bd55dfcd203fc765b6db,0.0349,0.0349,0,123,123,66,1,twoone,,,,,,,,,,,,,,,,,,,,,,,,,,,,,,,,,,,,,,,,,,,,,,,,,,,,,,,,,,,,,,,,,,,,,,,,,,,,,,,,,,,,,,,,,,,,,,,,,,,,,,,,,,,,,,,,,,,,,,,,,,,,,,,,,,,,,,,,,
,,60e33263f1759a9611770793,2024-02-22_05h20.38.140,kallum_motion_pilot,2023.2.2,Win32,29.76190476,60e33263f1759a9611770793,65d6bb0e977760de756971f7,65d6bd55dfcd203fc765b6db,0.035,0.0351,0,124,124,135,1,eightseven,,,,,,,,,,,,,,,,,,,,,,,,,,,,,,,,,,,,,,,,,,,,,,,,,,,,,,,,,,,,,,,,,,,,,,,,,,,,,,,,,,,,,,,,,,,,,,,,,,,,,,,,,,,,,,,,,,,,,,,,,,,,,,,,,,,,,,,,,
,,60e33263f1759a9611770793,2024-02-22_05h20.38.140,kallum_motion_pilot,2023.2.2,Win32,29.76190476,60e33263f1759a9611770793,65d6bb0e977760de756971f7,65d6bd55dfcd203fc765b6db,0.0351,0.0351,0,125,125,103,1,eightseven,,,,,,,,,,,,,,,,,,,,,,,,,,,,,,,,,,,,,,,,,,,,,,,,,,,,,,,,,,,,,,,,,,,,,,,,,,,,,,,,,,,,,,,,,,,,,,,,,,,,,,,,,,,,,,,,,,,,,,,,,,,,,,,,,,,,,,,,,
,,60e33263f1759a9611770793,2024-02-22_05h20.38.140,kallum_motion_pilot,2023.2.2,Win32,29.76190476,60e33263f1759a9611770793,65d6bb0e977760de756971f7,65d6bd55dfcd203fc765b6db,0.0353,0.0353,0,126,126,90,1,sixfive,,,,,,,,,,,,,,,,,,,,,,,,,,,,,,,,,,,,,,,,,,,,,,,,,,,,,,,,,,,,,,,,,,,,,,,,,,,,,,,,,,,,,,,,,,,,,,,,,,,,,,,,,,,,,,,,,,,,,,,,,,,,,,,,,,,,,,,,,
,,60e33263f1759a9611770793,2024-02-22_05h20.38.140,kallum_motion_pilot,2023.2.2,Win32,29.76190476,60e33263f1759a9611770793,65d6bb0e977760de756971f7,65d6bd55dfcd203fc765b6db,0.0353,0.0354,0,127,127,7,1,fourthree,,,,,,,,,,,,,,,,,,,,,,,,,,,,,,,,,,,,,,,,,,,,,,,,,,,,,,,,,,,,,,,,,,,,,,,,,,,,,,,,,,,,,,,,,,,,,,,,,,,,,,,,,,,,,,,,,,,,,,,,,,,,,,,,,,,,,,,,,
,,60e33263f1759a9611770793,2024-02-22_05h20.38.140,kallum_motion_pilot,2023.2.2,Win32,29.76190476,60e33263f1759a9611770793,65d6bb0e977760de756971f7,65d6bd55dfcd203fc765b6db,0.0355,0.0355,0,128,128,19,1,twofour,,,,,,,,,,,,,,,,,,,,,,,,,,,,,,,,,,,,,,,,,,,,,,,,,,,,,,,,,,,,,,,,,,,,,,,,,,,,,,,,,,,,,,,,,,,,,,,,,,,,,,,,,,,,,,,,,,,,,,,,,,,,,,,,,,,,,,,,,
,,60e33263f1759a9611770793,2024-02-22_05h20.38.140,kallum_motion_pilot,2023.2.2,Win32,29.76190476,60e33263f1759a9611770793,65d6bb0e977760de756971f7,65d6bd55dfcd203fc765b6db,0.0355,0.0355,0,129,129,47,1,fourthree,,,,,,,,,,,,,,,,,,,,,,,,,,,,,,,,,,,,,,,,,,,,,,,,,,,,,,,,,,,,,,,,,,,,,,,,,,,,,,,,,,,,,,,,,,,,,,,,,,,,,,,,,,,,,,,,,,,,,,,,,,,,,,,,,,,,,,,,,
,,60e33263f1759a9611770793,2024-02-22_05h20.38.140,kallum_motion_pilot,2023.2.2,Win32,29.76190476,60e33263f1759a9611770793,65d6bb0e977760de756971f7,65d6bd55dfcd203fc765b6db,0.036,0.0361,0,130,130,159,1,eightseven,,,,,,,,,,,,,,,,,,,,,,,,,,,,,,,,,,,,,,,,,,,,,,,,,,,,,,,,,,,,,,,,,,,,,,,,,,,,,,,,,,,,,,,,,,,,,,,,,,,,,,,,,,,,,,,,,,,,,,,,,,,,,,,,,,,,,,,,,
,,60e33263f1759a9611770793,2024-02-22_05h20.38.140,kallum_motion_pilot,2023.2.2,Win32,29.76190476,60e33263f1759a9611770793,65d6bb0e977760de756971f7,65d6bd55dfcd203fc765b6db,0.0361,0.0362,0,131,131,158,1,eightsix,,,,,,,,,,,,,,,,,,,,,,,,,,,,,,,,,,,,,,,,,,,,,,,,,,,,,,,,,,,,,,,,,,,,,,,,,,,,,,,,,,,,,,,,,,,,,,,,,,,,,,,,,,,,,,,,,,,,,,,,,,,,,,,,,,,,,,,,,
,,60e33263f1759a9611770793,2024-02-22_05h20.38.140,kallum_motion_pilot,2023.2.2,Win32,29.76190476,60e33263f1759a9611770793,65d6bb0e977760de756971f7,65d6bd55dfcd203fc765b6db,0.0362,0.0363,0,132,132,69,1,threefour,,,,,,,,,,,,,,,,,,,,,,,,,,,,,,,,,,,,,,,,,,,,,,,,,,,,,,,,,,,,,,,,,,,,,,,,,,,,,,,,,,,,,,,,,,,,,,,,,,,,,,,,,,,,,,,,,,,,,,,,,,,,,,,,,,,,,,,,,
,,60e33263f1759a9611770793,2024-02-22_05h20.38.140,kallum_motion_pilot,2023.2.2,Win32,29.76190476,60e33263f1759a9611770793,65d6bb0e977760de756971f7,65d6bd55dfcd203fc765b6db,0.0363,0.0364,0,133,133,73,1,onethree,,,,,,,,,,,,,,,,,,,,,,,,,,,,,,,,,,,,,,,,,,,,,,,,,,,,,,,,,,,,,,,,,,,,,,,,,,,,,,,,,,,,,,,,,,,,,,,,,,,,,,,,,,,,,,,,,,,,,,,,,,,,,,,,,,,,,,,,,
,,60e33263f1759a9611770793,2024-02-22_05h20.38.140,kallum_motion_pilot,2023.2.2,Win32,29.76190476,60e33263f1759a9611770793,65d6bb0e977760de756971f7,65d6bd55dfcd203fc765b6db,0.0364,0.0364,0,134,134,115,1,sixeight,,,,,,,,,,,,,,,,,,,,,,,,,,,,,,,,,,,,,,,,,,,,,,,,,,,,,,,,,,,,,,,,,,,,,,,,,,,,,,,,,,,,,,,,,,,,,,,,,,,,,,,,,,,,,,,,,,,,,,,,,,,,,,,,,,,,,,,,,
,,60e33263f1759a9611770793,2024-02-22_05h20.38.140,kallum_motion_pilot,2023.2.2,Win32,29.76190476,60e33263f1759a9611770793,65d6bb0e977760de756971f7,65d6bd55dfcd203fc765b6db,0.0364,0.0365,0,135,135,65,1,onethree,,,,,,,,,,,,,,,,,,,,,,,,,,,,,,,,,,,,,,,,,,,,,,,,,,,,,,,,,,,,,,,,,,,,,,,,,,,,,,,,,,,,,,,,,,,,,,,,,,,,,,,,,,,,,,,,,,,,,,,,,,,,,,,,,,,,,,,,,
,,60e33263f1759a9611770793,2024-02-22_05h20.38.140,kallum_motion_pilot,2023.2.2,Win32,29.76190476,60e33263f1759a9611770793,65d6bb0e977760de756971f7,65d6bd55dfcd203fc765b6db,0.0366,0.0366,0,136,136,137,1,fiveseven,,,,,,,,,,,,,,,,,,,,,,,,,,,,,,,,,,,,,,,,,,,,,,,,,,,,,,,,,,,,,,,,,,,,,,,,,,,,,,,,,,,,,,,,,,,,,,,,,,,,,,,,,,,,,,,,,,,,,,,,,,,,,,,,,,,,,,,,,
,,60e33263f1759a9611770793,2024-02-22_05h20.38.140,kallum_motion_pilot,2023.2.2,Win32,29.76190476,60e33263f1759a9611770793,65d6bb0e977760de756971f7,65d6bd55dfcd203fc765b6db,0.0366,0.0366,0,137,137,157,1,seveneight,,,,,,,,,,,,,,,,,,,,,,,,,,,,,,,,,,,,,,,,,,,,,,,,,,,,,,,,,,,,,,,,,,,,,,,,,,,,,,,,,,,,,,,,,,,,,,,,,,,,,,,,,,,,,,,,,,,,,,,,,,,,,,,,,,,,,,,,,
,,60e33263f1759a9611770793,2024-02-22_05h20.38.140,kallum_motion_pilot,2023.2.2,Win32,29.76190476,60e33263f1759a9611770793,65d6bb0e977760de756971f7,65d6bd55dfcd203fc765b6db,0.0367,0.0368,0,138,138,145,1,fiveseven,,,,,,,,,,,,,,,,,,,,,,,,,,,,,,,,,,,,,,,,,,,,,,,,,,,,,,,,,,,,,,,,,,,,,,,,,,,,,,,,,,,,,,,,,,,,,,,,,,,,,,,,,,,,,,,,,,,,,,,,,,,,,,,,,,,,,,,,,
,,60e33263f1759a9611770793,2024-02-22_05h20.38.140,kallum_motion_pilot,2023.2.2,Win32,29.76190476,60e33263f1759a9611770793,65d6bb0e977760de756971f7,65d6bd55dfcd203fc765b6db,0.0368,0.0368,0,139,139,126,1,eightsix,,,,,,,,,,,,,,,,,,,,,,,,,,,,,,,,,,,,,,,,,,,,,,,,,,,,,,,,,,,,,,,,,,,,,,,,,,,,,,,,,,,,,,,,,,,,,,,,,,,,,,,,,,,,,,,,,,,,,,,,,,,,,,,,,,,,,,,,,
,,60e33263f1759a9611770793,2024-02-22_05h20.38.140,kallum_motion_pilot,2023.2.2,Win32,29.76190476,60e33263f1759a9611770793,65d6bb0e977760de756971f7,65d6bd55dfcd203fc765b6db,0.0369,0.0369,0,140,140,152,1,fivesix,,,,,,,,,,,,,,,,,,,,,,,,,,,,,,,,,,,,,,,,,,,,,,,,,,,,,,,,,,,,,,,,,,,,,,,,,,,,,,,,,,,,,,,,,,,,,,,,,,,,,,,,,,,,,,,,,,,,,,,,,,,,,,,,,,,,,,,,,
,,60e33263f1759a9611770793,2024-02-22_05h20.38.140,kallum_motion_pilot,2023.2.2,Win32,29.76190476,60e33263f1759a9611770793,65d6bb0e977760de756971f7,65d6bd55dfcd203fc765b6db,0.037,0.037,0,141,141,74,1,twoone,,,,,,,,,,,,,,,,,,,,,,,,,,,,,,,,,,,,,,,,,,,,,,,,,,,,,,,,,,,,,,,,,,,,,,,,,,,,,,,,,,,,,,,,,,,,,,,,,,,,,,,,,,,,,,,,,,,,,,,,,,,,,,,,,,,,,,,,,
,,60e33263f1759a9611770793,2024-02-22_05h20.38.140,kallum_motion_pilot,2023.2.2,Win32,29.76190476,60e33263f1759a9611770793,65d6bb0e977760de756971f7,65d6bd55dfcd203fc765b6db,0.037,0.037,0,142,142,92,1,sevenfive,,,,,,,,,,,,,,,,,,,,,,,,,,,,,,,,,,,,,,,,,,,,,,,,,,,,,,,,,,,,,,,,,,,,,,,,,,,,,,,,,,,,,,,,,,,,,,,,,,,,,,,,,,,,,,,,,,,,,,,,,,,,,,,,,,,,,,,,,
,,60e33263f1759a9611770793,2024-02-22_05h20.38.140,kallum_motion_pilot,2023.2.2,Win32,29.76190476,60e33263f1759a9611770793,65d6bb0e977760de756971f7,65d6bd55dfcd203fc765b6db,0.037,0.0371,0,143,143,82,1,sixfive,,,,,,,,,,,,,,,,,,,,,,,,,,,,,,,,,,,,,,,,,,,,,,,,,,,,,,,,,,,,,,,,,,,,,,,,,,,,,,,,,,,,,,,,,,,,,,,,,,,,,,,,,,,,,,,,,,,,,,,,,,,,,,,,,,,,,,,,,
,,60e33263f1759a9611770793,2024-02-22_05h20.38.140,kallum_motion_pilot,2023.2.2,Win32,29.76190476,60e33263f1759a9611770793,65d6bb0e977760de756971f7,65d6bd55dfcd203fc765b6db,0.0371,0.0372,0,144,144,116,1,sevenfive,,,,,,,,,,,,,,,,,,,,,,,,,,,,,,,,,,,,,,,,,,,,,,,,,,,,,,,,,,,,,,,,,,,,,,,,,,,,,,,,,,,,,,,,,,,,,,,,,,,,,,,,,,,,,,,,,,,,,,,,,,,,,,,,,,,,,,,,,
,,60e33263f1759a9611770793,2024-02-22_05h20.38.140,kallum_motion_pilot,2023.2.2,Win32,29.76190476,60e33263f1759a9611770793,65d6bb0e977760de756971f7,65d6bd55dfcd203fc765b6db,0.0373,0.0373,0,145,145,110,1,eightsix,,,,,,,,,,,,,,,,,,,,,,,,,,,,,,,,,,,,,,,,,,,,,,,,,,,,,,,,,,,,,,,,,,,,,,,,,,,,,,,,,,,,,,,,,,,,,,,,,,,,,,,,,,,,,,,,,,,,,,,,,,,,,,,,,,,,,,,,,
,,60e33263f1759a9611770793,2024-02-22_05h20.38.140,kallum_motion_pilot,2023.2.2,Win32,29.76190476,60e33263f1759a9611770793,65d6bb0e977760de756971f7,65d6bd55dfcd203fc765b6db,0.0373,0.0373,0,146,146,70,1,fourtwo,,,,,,,,,,,,,,,,,,,,,,,,,,,,,,,,,,,,,,,,,,,,,,,,,,,,,,,,,,,,,,,,,,,,,,,,,,,,,,,,,,,,,,,,,,,,,,,,,,,,,,,,,,,,,,,,,,,,,,,,,,,,,,,,,,,,,,,,,
,,60e33263f1759a9611770793,2024-02-22_05h20.38.140,kallum_motion_pilot,2023.2.2,Win32,29.76190476,60e33263f1759a9611770793,65d6bb0e977760de756971f7,65d6bd55dfcd203fc765b6db,0.0374,0.0374,0,147,147,151,1,eightseven,,,,,,,,,,,,,,,,,,,,,,,,,,,,,,,,,,,,,,,,,,,,,,,,,,,,,,,,,,,,,,,,,,,,,,,,,,,,,,,,,,,,,,,,,,,,,,,,,,,,,,,,,,,,,,,,,,,,,,,,,,,,,,,,,,,,,,,,,
,,60e33263f1759a9611770793,2024-02-22_05h20.38.140,kallum_motion_pilot,2023.2.2,Win32,29.76190476,60e33263f1759a9611770793,65d6bb0e977760de756971f7,65d6bd55dfcd203fc765b6db,0.0374,0.0376,0,148,148,53,1,threefour,,,,,,,,,,,,,,,,,,,,,,,,,,,,,,,,,,,,,,,,,,,,,,,,,,,,,,,,,,,,,,,,,,,,,,,,,,,,,,,,,,,,,,,,,,,,,,,,,,,,,,,,,,,,,,,,,,,,,,,,,,,,,,,,,,,,,,,,,
,,60e33263f1759a9611770793,2024-02-22_05h20.38.140,kallum_motion_pilot,2023.2.2,Win32,29.76190476,60e33263f1759a9611770793,65d6bb0e977760de756971f7,65d6bd55dfcd203fc765b6db,0.0376,0.0376,0,149,149,68,1,threeone,,,,,,,,,,,,,,,,,,,,,,,,,,,,,,,,,,,,,,,,,,,,,,,,,,,,,,,,,,,,,,,,,,,,,,,,,,,,,,,,,,,,,,,,,,,,,,,,,,,,,,,,,,,,,,,,,,,,,,,,,,,,,,,,,,,,,,,,,
,,60e33263f1759a9611770793,2024-02-22_05h20.38.140,kallum_motion_pilot,2023.2.2,Win32,29.76190476,60e33263f1759a9611770793,65d6bb0e977760de756971f7,65d6bd55dfcd203fc765b6db,0.0377,0.0377,0,150,150,21,1,threefour,,,,,,,,,,,,,,,,,,,,,,,,,,,,,,,,,,,,,,,,,,,,,,,,,,,,,,,,,,,,,,,,,,,,,,,,,,,,,,,,,,,,,,,,,,,,,,,,,,,,,,,,,,,,,,,,,,,,,,,,,,,,,,,,,,,,,,,,,
,,60e33263f1759a9611770793,2024-02-22_05h20.38.140,kallum_motion_pilot,2023.2.2,Win32,29.76190476,60e33263f1759a9611770793,65d6bb0e977760de756971f7,65d6bd55dfcd203fc765b6db,0.0377,0.0378,0,151,151,17,1,onethree,,,,,,,,,,,,,,,,,,,,,,,,,,,,,,,,,,,,,,,,,,,,,,,,,,,,,,,,,,,,,,,,,,,,,,,,,,,,,,,,,,,,,,,,,,,,,,,,,,,,,,,,,,,,,,,,,,,,,,,,,,,,,,,,,,,,,,,,,
,,60e33263f1759a9611770793,2024-02-22_05h20.38.140,kallum_motion_pilot,2023.2.2,Win32,29.76190476,60e33263f1759a9611770793,65d6bb0e977760de756971f7,65d6bd55dfcd203fc765b6db,0.0378,0.0378,0,152,152,97,1,fiveseven,,,,,,,,,,,,,,,,,,,,,,,,,,,,,,,,,,,,,,,,,,,,,,,,,,,,,,,,,,,,,,,,,,,,,,,,,,,,,,,,,,,,,,,,,,,,,,,,,,,,,,,,,,,,,,,,,,,,,,,,,,,,,,,,,,,,,,,,,
,,60e33263f1759a9611770793,2024-02-22_05h20.38.140,kallum_motion_pilot,2023.2.2,Win32,29.76190476,60e33263f1759a9611770793,65d6bb0e977760de756971f7,65d6bd55dfcd203fc765b6db,0.0379,0.0379,0,153,153,49,1,onethree,,,,,,,,,,,,,,,,,,,,,,,,,,,,,,,,,,,,,,,,,,,,,,,,,,,,,,,,,,,,,,,,,,,,,,,,,,,,,,,,,,,,,,,,,,,,,,,,,,,,,,,,,,,,,,,,,,,,,,,,,,,,,,,,,,,,,,,,,
,,60e33263f1759a9611770793,2024-02-22_05h20.38.140,kallum_motion_pilot,2023.2.2,Win32,29.76190476,60e33263f1759a9611770793,65d6bb0e977760de756971f7,65d6bd55dfcd203fc765b6db,0.0379,0.038,0,154,154,94,1,eightsix,,,,,,,,,,,,,,,,,,,,,,,,,,,,,,,,,,,,,,,,,,,,,,,,,,,,,,,,,,,,,,,,,,,,,,,,,,,,,,,,,,,,,,,,,,,,,,,,,,,,,,,,,,,,,,,,,,,,,,,,,,,,,,,,,,,,,,,,,
,,60e33263f1759a9611770793,2024-02-22_05h20.38.140,kallum_motion_pilot,2023.2.2,Win32,29.76190476,60e33263f1759a9611770793,65d6bb0e977760de756971f7,65d6bd55dfcd203fc765b6db,0.038,0.038,0,155,155,127,1,eightseven,,,,,,,,,,,,,,,,,,,,,,,,,,,,,,,,,,,,,,,,,,,,,,,,,,,,,,,,,,,,,,,,,,,,,,,,,,,,,,,,,,,,,,,,,,,,,,,,,,,,,,,,,,,,,,,,,,,,,,,,,,,,,,,,,,,,,,,,,
,,60e33263f1759a9611770793,2024-02-22_05h20.38.140,kallum_motion_pilot,2023.2.2,Win32,29.76190476,60e33263f1759a9611770793,65d6bb0e977760de756971f7,65d6bd55dfcd203fc765b6db,0.0381,0.0381,0,156,156,118,1,eightsix,,,,,,,,,,,,,,,,,,,,,,,,,,,,,,,,,,,,,,,,,,,,,,,,,,,,,,,,,,,,,,,,,,,,,,,,,,,,,,,,,,,,,,,,,,,,,,,,,,,,,,,,,,,,,,,,,,,,,,,,,,,,,,,,,,,,,,,,,
,,60e33263f1759a9611770793,2024-02-22_05h20.38.140,kallum_motion_pilot,2023.2.2,Win32,29.76190476,60e33263f1759a9611770793,65d6bb0e977760de756971f7,65d6bd55dfcd203fc765b6db,0.0382,0.0382,0,157,157,156,1,sevenfive,,,,,,,,,,,,,,,,,,,,,,,,,,,,,,,,,,,,,,,,,,,,,,,,,,,,,,,,,,,,,,,,,,,,,,,,,,,,,,,,,,,,,,,,,,,,,,,,,,,,,,,,,,,,,,,,,,,,,,,,,,,,,,,,,,,,,,,,,
,,60e33263f1759a9611770793,2024-02-22_05h20.38.140,kallum_motion_pilot,2023.2.2,Win32,29.76190476,60e33263f1759a9611770793,65d6bb0e977760de756971f7,65d6bd55dfcd203fc765b6db,0.0382,0.0382,0,158,158,138,1,sixfive,,,,,,,,,,,,,,,,,,,,,,,,,,,,,,,,,,,,,,,,,,,,,,,,,,,,,,,,,,,,,,,,,,,,,,,,,,,,,,,,,,,,,,,,,,,,,,,,,,,,,,,,,,,,,,,,,,,,,,,,,,,,,,,,,,,,,,,,,
,,60e33263f1759a9611770793,2024-02-22_05h20.38.140,kallum_motion_pilot,2023.2.2,Win32,29.76190476,60e33263f1759a9611770793,65d6bb0e977760de756971f7,65d6bd55dfcd203fc765b6db,0.0383,0.0384,0,159,159,143,1,eightseven,,,,,,,,,,,,,,,,,,,,,,,,,,,,,,,,,,,,,,,,,,,,,,,,,,,,,,,,,,,,,,,,,,,,,,,,,,,,,,,,,,,,,,,,,,,,,,,,,,,,,,,,,,,,,,,,,,,,,,,,,,,,,,,,,,,,,,,,,
,,60e33263f1759a9611770793,2024-02-22_05h20.38.140,kallum_motion_pilot,2023.2.2,Win32,29.76190476,60e33263f1759a9611770793,65d6bb0e977760de756971f7,65d6bd55dfcd203fc765b6db,0.0384,0.0384,0,160,160,128,1,fivesix,,,,,,,,,,,,,,,,,,,,,,,,,,,,,,,,,,,,,,,,,,,,,,,,,,,,,,,,,,,,,,,,,,,,,,,,,,,,,,,,,,,,,,,,,,,,,,,,,,,,,,,,,,,,,,,,,,,,,,,,,,,,,,,,,,,,,,,,,
,,60e33263f1759a9611770793,2024-02-22_05h20.38.140,kallum_motion_pilot,2023.2.2,Win32,29.76190476,60e33263f1759a9611770793,65d6bb0e977760de756971f7,65d6bd55dfcd203fc765b6db,0.0384,0.0385,0,161,161,24,1,onetwo,,,,,,,,,,,,,,,,,,,,,,,,,,,,,,,,,,,,,,,,,,,,,,,,,,,,,,,,,,,,,,,,,,,,,,,,,,,,,,,,,,,,,,,,,,,,,,,,,,,,,,,,,,,,,,,,,,,,,,,,,,,,,,,,,,,,,,,,,
,,60e33263f1759a9611770793,2024-02-22_05h20.38.140,kallum_motion_pilot,2023.2.2,Win32,29.76190476,60e33263f1759a9611770793,65d6bb0e977760de756971f7,65d6bd55dfcd203fc765b6db,0.0385,0.0385,1,0,162,7,1,fourthree,,,,,,,,,,,,,,,,,,,,,,,,,,,,,,,,,,,,,,,,,,,,,,,,,,,,,,,,,,,,,,,,,,,,,,,,,,,,,,,,,,,,,,,,,,,,,,,,,,,,,,,,,,,,,,,,,,,,,,,,,,,,,,,,,,,,,,,,,
,,60e33263f1759a9611770793,2024-02-22_05h20.38.140,kallum_motion_pilot,2023.2.2,Win32,29.76190476,60e33263f1759a9611770793,65d6bb0e977760de756971f7,65d6bd55dfcd203fc765b6db,0.0386,0.0386,1,1,163,31,1,fourthree,,,,,,,,,,,,,,,,,,,,,,,,,,,,,,,,,,,,,,,,,,,,,,,,,,,,,,,,,,,,,,,,,,,,,,,,,,,,,,,,,,,,,,,,,,,,,,,,,,,,,,,,,,,,,,,,,,,,,,,,,,,,,,,,,,,,,,,,,
,,60e33263f1759a9611770793,2024-02-22_05h20.38.140,kallum_motion_pilot,2023.2.2,Win32,29.76190476,60e33263f1759a9611770793,65d6bb0e977760de756971f7,65d6bd55dfcd203fc765b6db,0.0387,0.0387,1,2,164,125,1,seveneight,,,,,,,,,,,,,,,,,,,,,,,,,,,,,,,,,,,,,,,,,,,,,,,,,,,,,,,,,,,,,,,,,,,,,,,,,,,,,,,,,,,,,,,,,,,,,,,,,,,,,,,,,,,,,,,,,,,,,,,,,,,,,,,,,,,,,,,,,
,,60e33263f1759a9611770793,2024-02-22_05h20.38.140,kallum_motion_pilot,2023.2.2,Win32,29.76190476,60e33263f1759a9611770793,65d6bb0e977760de756971f7,65d6bd55dfcd203fc765b6db,0.0388,0.0388,1,3,165,45,1,threefour,,,,,,,,,,,,,,,,,,,,,,,,,,,,,,,,,,,,,,,,,,,,,,,,,,,,,,,,,,,,,,,,,,,,,,,,,,,,,,,,,,,,,,,,,,,,,,,,,,,,,,,,,,,,,,,,,,,,,,,,,,,,,,,,,,,,,,,,,
,,60e33263f1759a9611770793,2024-02-22_05h20.38.140,kallum_motion_pilot,2023.2.2,Win32,29.76190476,60e33263f1759a9611770793,65d6bb0e977760de756971f7,65d6bd55dfcd203fc765b6db,0.0388,0.0388,1,4,166,28,1,threeone,,,,,,,,,,,,,,,,,,,,,,,,,,,,,,,,,,,,,,,,,,,,,,,,,,,,,,,,,,,,,,,,,,,,,,,,,,,,,,,,,,,,,,,,,,,,,,,,,,,,,,,,,,,,,,,,,,,,,,,,,,,,,,,,,,,,,,,,,
,,60e33263f1759a9611770793,2024-02-22_05h20.38.140,kallum_motion_pilot,2023.2.2,Win32,29.76190476,60e33263f1759a9611770793,65d6bb0e977760de756971f7,65d6bd55dfcd203fc765b6db,0.0389,0.0389,1,5,167,160,1,fivesix,,,,,,,,,,,,,,,,,,,,,,,,,,,,,,,,,,,,,,,,,,,,,,,,,,,,,,,,,,,,,,,,,,,,,,,,,,,,,,,,,,,,,,,,,,,,,,,,,,,,,,,,,,,,,,,,,,,,,,,,,,,,,,,,,,,,,,,,,
,,60e33263f1759a9611770793,2024-02-22_05h20.38.140,kallum_motion_pilot,2023.2.2,Win32,29.76190476,60e33263f1759a9611770793,65d6bb0e977760de756971f7,65d6bd55dfcd203fc765b6db,0.039,0.039,1,6,168,27,1,twofour,,,,,,,,,,,,,,,,,,,,,,,,,,,,,,,,,,,,,,,,,,,,,,,,,,,,,,,,,,,,,,,,,,,,,,,,,,,,,,,,,,,,,,,,,,,,,,,,,,,,,,,,,,,,,,,,,,,,,,,,,,,,,,,,,,,,,,,,,
,,60e33263f1759a9611770793,2024-02-22_05h20.38.140,kallum_motion_pilot,2023.2.2,Win32,29.76190476,60e33263f1759a9611770793,65d6bb0e977760de756971f7,65d6bd55dfcd203fc765b6db,0.039,0.0391,1,7,169,158,1,eightsix,,,,,,,,,,,,,,,,,,,,,,,,,,,,,,,,,,,,,,,,,,,,,,,,,,,,,,,,,,,,,,,,,,,,,,,,,,,,,,,,,,,,,,,,,,,,,,,,,,,,,,,,,,,,,,,,,,,,,,,,,,,,,,,,,,,,,,,,,
,,60e33263f1759a9611770793,2024-02-22_05h20.38.140,kallum_motion_pilot,2023.2.2,Win32,29.76190476,60e33263f1759a9611770793,65d6bb0e977760de756971f7,65d6bd55dfcd203fc765b6db,0.0392,0.0392,1,8,170,79,1,eightseven,,,,,,,,,,,,,,,,,,,,,,,,,,,,,,,,,,,,,,,,,,,,,,,,,,,,,,,,,,,,,,,,,,,,,,,,,,,,,,,,,,,,,,,,,,,,,,,,,,,,,,,,,,,,,,,,,,,,,,,,,,,,,,,,,,,,,,,,,
,,60e33263f1759a9611770793,2024-02-22_05h20.38.140,kallum_motion_pilot,2023.2.2,Win32,29.76190476,60e33263f1759a9611770793,65d6bb0e977760de756971f7,65d6bd55dfcd203fc765b6db,0.0392,0.0392,1,9,171,24,1,onetwo,,,,,,,,,,,,,,,,,,,,,,,,,,,,,,,,,,,,,,,,,,,,,,,,,,,,,,,,,,,,,,,,,,,,,,,,,,,,,,,,,,,,,,,,,,,,,,,,,,,,,,,,,,,,,,,,,,,,,,,,,,,,,,,,,,,,,,,,,
,,60e33263f1759a9611770793,2024-02-22_05h20.38.140,kallum_motion_pilot,2023.2.2,Win32,29.76190476,60e33263f1759a9611770793,65d6bb0e977760de756971f7,65d6bd55dfcd203fc765b6db,0.0393,0.0393,1,10,172,93,1,seveneight,,,,,,,,,,,,,,,,,,,,,,,,,,,,,,,,,,,,,,,,,,,,,,,,,,,,,,,,,,,,,,,,,,,,,,,,,,,,,,,,,,,,,,,,,,,,,,,,,,,,,,,,,,,,,,,,,,,,,,,,,,,,,,,,,,,,,,,,,
,,60e33263f1759a9611770793,2024-02-22_05h20.38.140,kallum_motion_pilot,2023.2.2,Win32,29.76190476,60e33263f1759a9611770793,65d6bb0e977760de756971f7,65d6bd55dfcd203fc765b6db,0.0394,0.0394,1,11,173,57,1,onethree,,,,,,,,,,,,,,,,,,,,,,,,,,,,,,,,,,,,,,,,,,,,,,,,,,,,,,,,,,,,,,,,,,,,,,,,,,,,,,,,,,,,,,,,,,,,,,,,,,,,,,,,,,,,,,,,,,,,,,,,,,,,,,,,,,,,,,,,,
,,60e33263f1759a9611770793,2024-02-22_05h20.38.140,kallum_motion_pilot,2023.2.2,Win32,29.76190476,60e33263f1759a9611770793,65d6bb0e977760de756971f7,65d6bd55dfcd203fc765b6db,0.0394,0.0394,1,12,174,30,1,fourtwo,,,,,,,,,,,,,,,,,,,,,,,,,,,,,,,,,,,,,,,,,,,,,,,,,,,,,,,,,,,,,,,,,,,,,,,,,,,,,,,,,,,,,,,,,,,,,,,,,,,,,,,,,,,,,,,,,,,,,,,,,,,,,,,,,,,,,,,,,
,,60e33263f1759a9611770793,2024-02-22_05h20.38.140,kallum_motion_pilot,2023.2.2,Win32,29.76190476,60e33263f1759a9611770793,65d6bb0e977760de756971f7,65d6bd55dfcd203fc765b6db,0.0395,0.0396,1,13,175,32,1,onetwo,,,,,,,,,,,,,,,,,,,,,,,,,,,,,,,,,,,,,,,,,,,,,,,,,,,,,,,,,,,,,,,,,,,,,,,,,,,,,,,,,,,,,,,,,,,,,,,,,,,,,,,,,,,,,,,,,,,,,,,,,,,,,,,,,,,,,,,,,
,,60e33263f1759a9611770793,2024-02-22_05h20.38.140,kallum_motion_pilot,2023.2.2,Win32,29.76190476,60e33263f1759a9611770793,65d6bb0e977760de756971f7,65d6bd55dfcd203fc765b6db,0.0396,0.0397,1,14,176,84,1,sevenfive,,,,,,,,,,,,,,,,,,,,,,,,,,,,,,,,,,,,,,,,,,,,,,,,,,,,,,,,,,,,,,,,,,,,,,,,,,,,,,,,,,,,,,,,,,,,,,,,,,,,,,,,,,,,,,,,,,,,,,,,,,,,,,,,,,,,,,,,,
,,60e33263f1759a9611770793,2024-02-22_05h20.38.140,kallum_motion_pilot,2023.2.2,Win32,29.76190476,60e33263f1759a9611770793,65d6bb0e977760de756971f7,65d6bd55dfcd203fc765b6db,0.0397,0.0397,1,15,177,138,1,sixfive,,,,,,,,,,,,,,,,,,,,,,,,,,,,,,,,,,,,,,,,,,,,,,,,,,,,,,,,,,,,,,,,,,,,,,,,,,,,,,,,,,,,,,,,,,,,,,,,,,,,,,,,,,,,,,,,,,,,,,,,,,,,,,,,,,,,,,,,,
,,60e33263f1759a9611770793,2024-02-22_05h20.38.140,kallum_motion_pilot,2023.2.2,Win32,29.76190476,60e33263f1759a9611770793,65d6bb0e977760de756971f7,65d6bd55dfcd203fc765b6db,0.0398,0.0398,1,16,178,15,1,fourthree,,,,,,,,,,,,,,,,,,,,,,,,,,,,,,,,,,,,,,,,,,,,,,,,,,,,,,,,,,,,,,,,,,,,,,,,,,,,,,,,,,,,,,,,,,,,,,,,,,,,,,,,,,,,,,,,,,,,,,,,,,,,,,,,,,,,,,,,,
,,60e33263f1759a9611770793,2024-02-22_05h20.38.140,kallum_motion_pilot,2023.2.2,Win32,29.76190476,60e33263f1759a9611770793,65d6bb0e977760de756971f7,65d6bd55dfcd203fc765b6db,0.0398,0.0399,1,17,179,65,1,onethree,,,,,,,,,,,,,,,,,,,,,,,,,,,,,,,,,,,,,,,,,,,,,,,,,,,,,,,,,,,,,,,,,,,,,,,,,,,,,,,,,,,,,,,,,,,,,,,,,,,,,,,,,,,,,,,,,,,,,,,,,,,,,,,,,,,,,,,,,
,,60e33263f1759a9611770793,2024-02-22_05h20.38.140,kallum_motion_pilot,2023.2.2,Win32,29.76190476,60e33263f1759a9611770793,65d6bb0e977760de756971f7,65d6bd55dfcd203fc765b6db,0.04,0.0401,1,18,180,25,1,onethree,,,,,,,,,,,,,,,,,,,,,,,,,,,,,,,,,,,,,,,,,,,,,,,,,,,,,,,,,,,,,,,,,,,,,,,,,,,,,,,,,,,,,,,,,,,,,,,,,,,,,,,,,,,,,,,,,,,,,,,,,,,,,,,,,,,,,,,,,
,,60e33263f1759a9611770793,2024-02-22_05h20.38.140,kallum_motion_pilot,2023.2.2,Win32,29.76190476,60e33263f1759a9611770793,65d6bb0e977760de756971f7,65d6bd55dfcd203fc765b6db,0.0401,0.0402,1,19,181,39,1,fourthree,,,,,,,,,,,,,,,,,,,,,,,,,,,,,,,,,,,,,,,,,,,,,,,,,,,,,,,,,,,,,,,,,,,,,,,,,,,,,,,,,,,,,,,,,,,,,,,,,,,,,,,,,,,,,,,,,,,,,,,,,,,,,,,,,,,,,,,,,
,,60e33263f1759a9611770793,2024-02-22_05h20.38.140,kallum_motion_pilot,2023.2.2,Win32,29.76190476,60e33263f1759a9611770793,65d6bb0e977760de756971f7,65d6bd55dfcd203fc765b6db,0.0403,0.0403,1,20,182,126,1,eightsix,,,,,,,,,,,,,,,,,,,,,,,,,,,,,,,,,,,,,,,,,,,,,,,,,,,,,,,,,,,,,,,,,,,,,,,,,,,,,,,,,,,,,,,,,,,,,,,,,,,,,,,,,,,,,,,,,,,,,,,,,,,,,,,,,,,,,,,,,
,,60e33263f1759a9611770793,2024-02-22_05h20.38.140,kallum_motion_pilot,2023.2.2,Win32,29.76190476,60e33263f1759a9611770793,65d6bb0e977760de756971f7,65d6bd55dfcd203fc765b6db,0.0404,0.0404,1,21,183,143,1,eightseven,,,,,,,,,,,,,,,,,,,,,,,,,,,,,,,,,,,,,,,,,,,,,,,,,,,,,,,,,,,,,,,,,,,,,,,,,,,,,,,,,,,,,,,,,,,,,,,,,,,,,,,,,,,,,,,,,,,,,,,,,,,,,,,,,,,,,,,,,
,,60e33263f1759a9611770793,2024-02-22_05h20.38.140,kallum_motion_pilot,2023.2.2,Win32,29.76190476,60e33263f1759a9611770793,65d6bb0e977760de756971f7,65d6bd55dfcd203fc765b6db,0.0404,0.0405,1,22,184,151,1,eightseven,,,,,,,,,,,,,,,,,,,,,,,,,,,,,,,,,,,,,,,,,,,,,,,,,,,,,,,,,,,,,,,,,,,,,,,,,,,,,,,,,,,,,,,,,,,,,,,,,,,,,,,,,,,,,,,,,,,,,,,,,,,,,,,,,,,,,,,,,
,,60e33263f1759a9611770793,2024-02-22_05h20.38.140,kallum_motion_pilot,2023.2.2,Win32,29.76190476,60e33263f1759a9611770793,65d6bb0e977760de756971f7,65d6bd55dfcd203fc765b6db,0.0406,0.0407,1,23,185,16,1,onetwo,,,,,,,,,,,,,,,,,,,,,,,,,,,,,,,,,,,,,,,,,,,,,,,,,,,,,,,,,,,,,,,,,,,,,,,,,,,,,,,,,,,,,,,,,,,,,,,,,,,,,,,,,,,,,,,,,,,,,,,,,,,,,,,,,,,,,,,,,
,,60e33263f1759a9611770793,2024-02-22_05h20.38.140,kallum_motion_pilot,2023.2.2,Win32,29.76190476,60e33263f1759a9611770793,65d6bb0e977760de756971f7,65d6bd55dfcd203fc765b6db,0.0407,0.0407,1,24,186,102,1,eightsix,,,,,,,,,,,,,,,,,,,,,,,,,,,,,,,,,,,,,,,,,,,,,,,,,,,,,,,,,,,,,,,,,,,,,,,,,,,,,,,,,,,,,,,,,,,,,,,,,,,,,,,,,,,,,,,,,,,,,,,,,,,,,,,,,,,,,,,,,
,,60e33263f1759a9611770793,2024-02-22_05h20.38.140,kallum_motion_pilot,2023.2.2,Win32,29.76190476,60e33263f1759a9611770793,65d6bb0e977760de756971f7,65d6bd55dfcd203fc765b6db,0.0408,0.0409,1,25,187,41,1,onethree,,,,,,,,,,,,,,,,,,,,,,,,,,,,,,,,,,,,,,,,,,,,,,,,,,,,,,,,,,,,,,,,,,,,,,,,,,,,,,,,,,,,,,,,,,,,,,,,,,,,,,,,,,,,,,,,,,,,,,,,,,,,,,,,,,,,,,,,,
,,60e33263f1759a9611770793,2024-02-22_05h20.38.140,kallum_motion_pilot,2023.2.2,Win32,29.76190476,60e33263f1759a9611770793,65d6bb0e977760de756971f7,65d6bd55dfcd203fc765b6db,0.0409,0.0409,1,26,188,74,1,twoone,,,,,,,,,,,,,,,,,,,,,,,,,,,,,,,,,,,,,,,,,,,,,,,,,,,,,,,,,,,,,,,,,,,,,,,,,,,,,,,,,,,,,,,,,,,,,,,,,,,,,,,,,,,,,,,,,,,,,,,,,,,,,,,,,,,,,,,,,
,,60e33263f1759a9611770793,2024-02-22_05h20.38.140,kallum_motion_pilot,2023.2.2,Win32,29.76190476,60e33263f1759a9611770793,65d6bb0e977760de756971f7,65d6bd55dfcd203fc765b6db,0.041,0.041,1,27,189,144,1,fivesix,,,,,,,,,,,,,,,,,,,,,,,,,,,,,,,,,,,,,,,,,,,,,,,,,,,,,,,,,,,,,,,,,,,,,,,,,,,,,,,,,,,,,,,,,,,,,,,,,,,,,,,,,,,,,,,,,,,,,,,,,,,,,,,,,,,,,,,,,
,,60e33263f1759a9611770793,2024-02-22_05h20.38.140,kallum_motion_pilot,2023.2.2,Win32,29.76190476,60e33263f1759a9611770793,65d6bb0e977760de756971f7,65d6bd55dfcd203fc765b6db,0.0411,0.0411,1,28,190,106,1,sixfive,,,,,,,,,,,,,,,,,,,,,,,,,,,,,,,,,,,,,,,,,,,,,,,,,,,,,,,,,,,,,,,,,,,,,,,,,,,,,,,,,,,,,,,,,,,,,,,,,,,,,,,,,,,,,,,,,,,,,,,,,,,,,,,,,,,,,,,,,
,,60e33263f1759a9611770793,2024-02-22_05h20.38.140,kallum_motion_pilot,2023.2.2,Win32,29.76190476,60e33263f1759a9611770793,65d6bb0e977760de756971f7,65d6bd55dfcd203fc765b6db,0.0412,0.0412,1,29,191,123,1,sixeight,,,,,,,,,,,,,,,,,,,,,,,,,,,,,,,,,,,,,,,,,,,,,,,,,,,,,,,,,,,,,,,,,,,,,,,,,,,,,,,,,,,,,,,,,,,,,,,,,,,,,,,,,,,,,,,,,,,,,,,,,,,,,,,,,,,,,,,,,
,,60e33263f1759a9611770793,2024-02-22_05h20.38.140,kallum_motion_pilot,2023.2.2,Win32,29.76190476,60e33263f1759a9611770793,65d6bb0e977760de756971f7,65d6bd55dfcd203fc765b6db,0.0413,0.0413,1,30,192,75,1,twofour,,,,,,,,,,,,,,,,,,,,,,,,,,,,,,,,,,,,,,,,,,,,,,,,,,,,,,,,,,,,,,,,,,,,,,,,,,,,,,,,,,,,,,,,,,,,,,,,,,,,,,,,,,,,,,,,,,,,,,,,,,,,,,,,,,,,,,,,,
,,60e33263f1759a9611770793,2024-02-22_05h20.38.140,kallum_motion_pilot,2023.2.2,Win32,29.76190476,60e33263f1759a9611770793,65d6bb0e977760de756971f7,65d6bd55dfcd203fc765b6db,0.0413,0.0414,1,31,193,60,1,threeone,,,,,,,,,,,,,,,,,,,,,,,,,,,,,,,,,,,,,,,,,,,,,,,,,,,,,,,,,,,,,,,,,,,,,,,,,,,,,,,,,,,,,,,,,,,,,,,,,,,,,,,,,,,,,,,,,,,,,,,,,,,,,,,,,,,,,,,,,
,,60e33263f1759a9611770793,2024-02-22_05h20.38.140,kallum_motion_pilot,2023.2.2,Win32,29.76190476,60e33263f1759a9611770793,65d6bb0e977760de756971f7,65d6bd55dfcd203fc765b6db,0.0414,0.0415,1,32,194,146,1,sixfive,,,,,,,,,,,,,,,,,,,,,,,,,,,,,,,,,,,,,,,,,,,,,,,,,,,,,,,,,,,,,,,,,,,,,,,,,,,,,,,,,,,,,,,,,,,,,,,,,,,,,,,,,,,,,,,,,,,,,,,,,,,,,,,,,,,,,,,,,
,,60e33263f1759a9611770793,2024-02-22_05h20.38.140,kallum_motion_pilot,2023.2.2,Win32,29.76190476,60e33263f1759a9611770793,65d6bb0e977760de756971f7,65d6bd55dfcd203fc765b6db,0.0415,0.0415,1,33,195,136,1,fivesix,,,,,,,,,,,,,,,,,,,,,,,,,,,,,,,,,,,,,,,,,,,,,,,,,,,,,,,,,,,,,,,,,,,,,,,,,,,,,,,,,,,,,,,,,,,,,,,,,,,,,,,,,,,,,,,,,,,,,,,,,,,,,,,,,,,,,,,,,
,,60e33263f1759a9611770793,2024-02-22_05h20.38.140,kallum_motion_pilot,2023.2.2,Win32,29.76190476,60e33263f1759a9611770793,65d6bb0e977760de756971f7,65d6bd55dfcd203fc765b6db,0.0417,0.0417,1,34,196,152,1,fivesix,,,,,,,,,,,,,,,,,,,,,,,,,,,,,,,,,,,,,,,,,,,,,,,,,,,,,,,,,,,,,,,,,,,,,,,,,,,,,,,,,,,,,,,,,,,,,,,,,,,,,,,,,,,,,,,,,,,,,,,,,,,,,,,,,,,,,,,,,
,,60e33263f1759a9611770793,2024-02-22_05h20.38.140,kallum_motion_pilot,2023.2.2,Win32,29.76190476,60e33263f1759a9611770793,65d6bb0e977760de756971f7,65d6bd55dfcd203fc765b6db,0.0417,0.0418,1,35,197,58,1,twoone,,,,,,,,,,,,,,,,,,,,,,,,,,,,,,,,,,,,,,,,,,,,,,,,,,,,,,,,,,,,,,,,,,,,,,,,,,,,,,,,,,,,,,,,,,,,,,,,,,,,,,,,,,,,,,,,,,,,,,,,,,,,,,,,,,,,,,,,,
,,60e33263f1759a9611770793,2024-02-22_05h20.38.140,kallum_motion_pilot,2023.2.2,Win32,29.76190476,60e33263f1759a9611770793,65d6bb0e977760de756971f7,65d6bd55dfcd203fc765b6db,0.0419,0.0419,1,36,198,20,1,threeone,,,,,,,,,,,,,,,,,,,,,,,,,,,,,,,,,,,,,,,,,,,,,,,,,,,,,,,,,,,,,,,,,,,,,,,,,,,,,,,,,,,,,,,,,,,,,,,,,,,,,,,,,,,,,,,,,,,,,,,,,,,,,,,,,,,,,,,,,
,,60e33263f1759a9611770793,2024-02-22_05h20.38.140,kallum_motion_pilot,2023.2.2,Win32,29.76190476,60e33263f1759a9611770793,65d6bb0e977760de756971f7,65d6bd55dfcd203fc765b6db,0.042,0.042,1,37,199,115,1,sixeight,,,,,,,,,,,,,,,,,,,,,,,,,,,,,,,,,,,,,,,,,,,,,,,,,,,,,,,,,,,,,,,,,,,,,,,,,,,,,,,,,,,,,,,,,,,,,,,,,,,,,,,,,,,,,,,,,,,,,,,,,,,,,,,,,,,,,,,,,
,,60e33263f1759a9611770793,2024-02-22_05h20.38.140,kallum_motion_pilot,2023.2.2,Win32,29.76190476,60e33263f1759a9611770793,65d6bb0e977760de756971f7,65d6bd55dfcd203fc765b6db,0.0421,0.0421,1,38,200,118,1,eightsix,,,,,,,,,,,,,,,,,,,,,,,,,,,,,,,,,,,,,,,,,,,,,,,,,,,,,,,,,,,,,,,,,,,,,,,,,,,,,,,,,,,,,,,,,,,,,,,,,,,,,,,,,,,,,,,,,,,,,,,,,,,,,,,,,,,,,,,,,
,,60e33263f1759a9611770793,2024-02-22_05h20.38.140,kallum_motion_pilot,2023.2.2,Win32,29.76190476,60e33263f1759a9611770793,65d6bb0e977760de756971f7,65d6bd55dfcd203fc765b6db,0.0422,0.0422,1,39,201,131,1,sixeight,,,,,,,,,,,,,,,,,,,,,,,,,,,,,,,,,,,,,,,,,,,,,,,,,,,,,,,,,,,,,,,,,,,,,,,,,,,,,,,,,,,,,,,,,,,,,,,,,,,,,,,,,,,,,,,,,,,,,,,,,,,,,,,,,,,,,,,,,
,,60e33263f1759a9611770793,2024-02-22_05h20.38.140,kallum_motion_pilot,2023.2.2,Win32,29.76190476,60e33263f1759a9611770793,65d6bb0e977760de756971f7,65d6bd55dfcd203fc765b6db,0.0422,0.0423,1,40,202,44,1,threeone,,,,,,,,,,,,,,,,,,,,,,,,,,,,,,,,,,,,,,,,,,,,,,,,,,,,,,,,,,,,,,,,,,,,,,,,,,,,,,,,,,,,,,,,,,,,,,,,,,,,,,,,,,,,,,,,,,,,,,,,,,,,,,,,,,,,,,,,,
,,60e33263f1759a9611770793,2024-02-22_05h20.38.140,kallum_motion_pilot,2023.2.2,Win32,29.76190476,60e33263f1759a9611770793,65d6bb0e977760de756971f7,65d6bd55dfcd203fc765b6db,0.0423,0.0424,1,41,203,132,1,sevenfive,,,,,,,,,,,,,,,,,,,,,,,,,,,,,,,,,,,,,,,,,,,,,,,,,,,,,,,,,,,,,,,,,,,,,,,,,,,,,,,,,,,,,,,,,,,,,,,,,,,,,,,,,,,,,,,,,,,,,,,,,,,,,,,,,,,,,,,,,
,,60e33263f1759a9611770793,2024-02-22_05h20.38.140,kallum_motion_pilot,2023.2.2,Win32,29.76190476,60e33263f1759a9611770793,65d6bb0e977760de756971f7,65d6bd55dfcd203fc765b6db,0.0424,0.0424,1,42,204,81,1,fiveseven,,,,,,,,,,,,,,,,,,,,,,,,,,,,,,,,,,,,,,,,,,,,,,,,,,,,,,,,,,,,,,,,,,,,,,,,,,,,,,,,,,,,,,,,,,,,,,,,,,,,,,,,,,,,,,,,,,,,,,,,,,,,,,,,,,,,,,,,,
,,60e33263f1759a9611770793,2024-02-22_05h20.38.140,kallum_motion_pilot,2023.2.2,Win32,29.76190476,60e33263f1759a9611770793,65d6bb0e977760de756971f7,65d6bd55dfcd203fc765b6db,0.0425,0.0425,1,43,205,96,1,fivesix,,,,,,,,,,,,,,,,,,,,,,,,,,,,,,,,,,,,,,,,,,,,,,,,,,,,,,,,,,,,,,,,,,,,,,,,,,,,,,,,,,,,,,,,,,,,,,,,,,,,,,,,,,,,,,,,,,,,,,,,,,,,,,,,,,,,,,,,,
,,60e33263f1759a9611770793,2024-02-22_05h20.38.140,kallum_motion_pilot,2023.2.2,Win32,29.76190476,60e33263f1759a9611770793,65d6bb0e977760de756971f7,65d6bd55dfcd203fc765b6db,0.0426,0.0426,1,44,206,13,1,threefour,,,,,,,,,,,,,,,,,,,,,,,,,,,,,,,,,,,,,,,,,,,,,,,,,,,,,,,,,,,,,,,,,,,,,,,,,,,,,,,,,,,,,,,,,,,,,,,,,,,,,,,,,,,,,,,,,,,,,,,,,,,,,,,,,,,,,,,,,
,,60e33263f1759a9611770793,2024-02-22_05h20.38.140,kallum_motion_pilot,2023.2.2,Win32,29.76190476,60e33263f1759a9611770793,65d6bb0e977760de756971f7,65d6bd55dfcd203fc765b6db,0.0427,0.0427,1,45,207,9,1,onethree,,,,,,,,,,,,,,,,,,,,,,,,,,,,,,,,,,,,,,,,,,,,,,,,,,,,,,,,,,,,,,,,,,,,,,,,,,,,,,,,,,,,,,,,,,,,,,,,,,,,,,,,,,,,,,,,,,,,,,,,,,,,,,,,,,,,,,,,,
,,60e33263f1759a9611770793,2024-02-22_05h20.38.140,kallum_motion_pilot,2023.2.2,Win32,29.76190476,60e33263f1759a9611770793,65d6bb0e977760de756971f7,65d6bd55dfcd203fc765b6db,0.0427,0.0428,1,46,208,114,1,sixfive,,,,,,,,,,,,,,,,,,,,,,,,,,,,,,,,,,,,,,,,,,,,,,,,,,,,,,,,,,,,,,,,,,,,,,,,,,,,,,,,,,,,,,,,,,,,,,,,,,,,,,,,,,,,,,,,,,,,,,,,,,,,,,,,,,,,,,,,,
,,60e33263f1759a9611770793,2024-02-22_05h20.38.140,kallum_motion_pilot,2023.2.2,Win32,29.76190476,60e33263f1759a9611770793,65d6bb0e977760de756971f7,65d6bd55dfcd203fc765b6db,0.0429,0.0429,1,47,209,155,1,sixeight,,,,,,,,,,,,,,,,,,,,,,,,,,,,,,,,,,,,,,,,,,,,,,,,,,,,,,,,,,,,,,,,,,,,,,,,,,,,,,,,,,,,,,,,,,,,,,,,,,,,,,,,,,,,,,,,,,,,,,,,,,,,,,,,,,,,,,,,,
,,60e33263f1759a9611770793,2024-02-22_05h20.38.140,kallum_motion_pilot,2023.2.2,Win32,29.76190476,60e33263f1759a9611770793,65d6bb0e977760de756971f7,65d6bd55dfcd203fc765b6db,0.043,0.043,1,48,210,4,1,threeone,,,,,,,,,,,,,,,,,,,,,,,,,,,,,,,,,,,,,,,,,,,,,,,,,,,,,,,,,,,,,,,,,,,,,,,,,,,,,,,,,,,,,,,,,,,,,,,,,,,,,,,,,,,,,,,,,,,,,,,,,,,,,,,,,,,,,,,,,
,,60e33263f1759a9611770793,2024-02-22_05h20.38.140,kallum_motion_pilot,2023.2.2,Win32,29.76190476,60e33263f1759a9611770793,65d6bb0e977760de756971f7,65d6bd55dfcd203fc765b6db,0.0431,0.0431,1,49,211,100,1,sevenfive,,,,,,,,,,,,,,,,,,,,,,,,,,,,,,,,,,,,,,,,,,,,,,,,,,,,,,,,,,,,,,,,,,,,,,,,,,,,,,,,,,,,,,,,,,,,,,,,,,,,,,,,,,,,,,,,,,,,,,,,,,,,,,,,,,,,,,,,,
,,60e33263f1759a9611770793,2024-02-22_05h20.38.140,kallum_motion_pilot,2023.2.2,Win32,29.76190476,60e33263f1759a9611770793,65d6bb0e977760de756971f7,65d6bd55dfcd203fc765b6db,0.0431,0.0431,1,50,212,145,1,fiveseven,,,,,,,,,,,,,,,,,,,,,,,,,,,,,,,,,,,,,,,,,,,,,,,,,,,,,,,,,,,,,,,,,,,,,,,,,,,,,,,,,,,,,,,,,,,,,,,,,,,,,,,,,,,,,,,,,,,,,,,,,,,,,,,,,,,,,,,,,
,,60e33263f1759a9611770793,2024-02-22_05h20.38.140,kallum_motion_pilot,2023.2.2,Win32,29.76190476,60e33263f1759a9611770793,65d6bb0e977760de756971f7,65d6bd55dfcd203fc765b6db,0.0432,0.0434,1,51,213,11,1,twofour,,,,,,,,,,,,,,,,,,,,,,,,,,,,,,,,,,,,,,,,,,,,,,,,,,,,,,,,,,,,,,,,,,,,,,,,,,,,,,,,,,,,,,,,,,,,,,,,,,,,,,,,,,,,,,,,,,,,,,,,,,,,,,,,,,,,,,,,,
,,60e33263f1759a9611770793,2024-02-22_05h20.38.140,kallum_motion_pilot,2023.2.2,Win32,29.76190476,60e33263f1759a9611770793,65d6bb0e977760de756971f7,65d6bd55dfcd203fc765b6db,0.0436,0.0437,1,52,214,105,1,fiveseven,,,,,,,,,,,,,,,,,,,,,,,,,,,,,,,,,,,,,,,,,,,,,,,,,,,,,,,,,,,,,,,,,,,,,,,,,,,,,,,,,,,,,,,,,,,,,,,,,,,,,,,,,,,,,,,,,,,,,,,,,,,,,,,,,,,,,,,,,
,,60e33263f1759a9611770793,2024-02-22_05h20.38.140,kallum_motion_pilot,2023.2.2,Win32,29.76190476,60e33263f1759a9611770793,65d6bb0e977760de756971f7,65d6bd55dfcd203fc765b6db,0.0437,0.0438,1,53,215,101,1,seveneight,,,,,,,,,,,,,,,,,,,,,,,,,,,,,,,,,,,,,,,,,,,,,,,,,,,,,,,,,,,,,,,,,,,,,,,,,,,,,,,,,,,,,,,,,,,,,,,,,,,,,,,,,,,,,,,,,,,,,,,,,,,,,,,,,,,,,,,,,
,,60e33263f1759a9611770793,2024-02-22_05h20.38.140,kallum_motion_pilot,2023.2.2,Win32,29.76190476,60e33263f1759a9611770793,65d6bb0e977760de756971f7,65d6bd55dfcd203fc765b6db,0.0439,0.044,1,54,216,113,1,fiveseven,,,,,,,,,,,,,,,,,,,,,,,,,,,,,,,,,,,,,,,,,,,,,,,,,,,,,,,,,,,,,,,,,,,,,,,,,,,,,,,,,,,,,,,,,,,,,,,,,,,,,,,,,,,,,,,,,,,,,,,,,,,,,,,,,,,,,,,,,
,,60e33263f1759a9611770793,2024-02-22_05h20.38.140,kallum_motion_pilot,2023.2.2,Win32,29.76190476,60e33263f1759a9611770793,65d6bb0e977760de756971f7,65d6bd55dfcd203fc765b6db,0.0442,0.0443,1,55,217,35,1,twofour,,,,,,,,,,,,,,,,,,,,,,,,,,,,,,,,,,,,,,,,,,,,,,,,,,,,,,,,,,,,,,,,,,,,,,,,,,,,,,,,,,,,,,,,,,,,,,,,,,,,,,,,,,,,,,,,,,,,,,,,,,,,,,,,,,,,,,,,,
,,60e33263f1759a9611770793,2024-02-22_05h20.38.140,kallum_motion_pilot,2023.2.2,Win32,29.76190476,60e33263f1759a9611770793,65d6bb0e977760de756971f7,65d6bd55dfcd203fc765b6db,0.0444,0.0445,1,56,218,76,1,threeone,,,,,,,,,,,,,,,,,,,,,,,,,,,,,,,,,,,,,,,,,,,,,,,,,,,,,,,,,,,,,,,,,,,,,,,,,,,,,,,,,,,,,,,,,,,,,,,,,,,,,,,,,,,,,,,,,,,,,,,,,,,,,,,,,,,,,,,,,
,,60e33263f1759a9611770793,2024-02-22_05h20.38.140,kallum_motion_pilot,2023.2.2,Win32,29.76190476,60e33263f1759a9611770793,65d6bb0e977760de756971f7,65d6bd55dfcd203fc765b6db,0.0446,0.0447,1,57,219,156,1,sevenfive,,,,,,,,,,,,,,,,,,,,,,,,,,,,,,,,,,,,,,,,,,,,,,,,,,,,,,,,,,,,,,,,,,,,,,,,,,,,,,,,,,,,,,,,,,,,,,,,,,,,,,,,,,,,,,,,,,,,,,,,,,,,,,,,,,,,,,,,,
,,60e33263f1759a9611770793,2024-02-22_05h20.38.140,kallum_motion_pilot,2023.2.2,Win32,29.76190476,60e33263f1759a9611770793,65d6bb0e977760de756971f7,65d6bd55dfcd203fc765b6db,0.0454,0.0458,1,58,220,48,1,onetwo,,,,,,,,,,,,,,,,,,,,,,,,,,,,,,,,,,,,,,,,,,,,,,,,,,,,,,,,,,,,,,,,,,,,,,,,,,,,,,,,,,,,,,,,,,,,,,,,,,,,,,,,,,,,,,,,,,,,,,,,,,,,,,,,,,,,,,,,,
,,60e33263f1759a9611770793,2024-02-22_05h20.38.140,kallum_motion_pilot,2023.2.2,Win32,29.76190476,60e33263f1759a9611770793,65d6bb0e977760de756971f7,65d6bd55dfcd203fc765b6db,0.0462,0.0463,1,59,221,111,1,eightseven,,,,,,,,,,,,,,,,,,,,,,,,,,,,,,,,,,,,,,,,,,,,,,,,,,,,,,,,,,,,,,,,,,,,,,,,,,,,,,,,,,,,,,,,,,,,,,,,,,,,,,,,,,,,,,,,,,,,,,,,,,,,,,,,,,,,,,,,,
,,60e33263f1759a9611770793,2024-02-22_05h20.38.140,kallum_motion_pilot,2023.2.2,Win32,29.76190476,60e33263f1759a9611770793,65d6bb0e977760de756971f7,65d6bd55dfcd203fc765b6db,0.0464,0.0464,1,60,222,67,1,twofour,,,,,,,,,,,,,,,,,,,,,,,,,,,,,,,,,,,,,,,,,,,,,,,,,,,,,,,,,,,,,,,,,,,,,,,,,,,,,,,,,,,,,,,,,,,,,,,,,,,,,,,,,,,,,,,,,,,,,,,,,,,,,,,,,,,,,,,,,
,,60e33263f1759a9611770793,2024-02-22_05h20.38.140,kallum_motion_pilot,2023.2.2,Win32,29.76190476,60e33263f1759a9611770793,65d6bb0e977760de756971f7,65d6bd55dfcd203fc765b6db,0.0466,0.0466,1,61,223,104,1,fivesix,,,,,,,,,,,,,,,,,,,,,,,,,,,,,,,,,,,,,,,,,,,,,,,,,,,,,,,,,,,,,,,,,,,,,,,,,,,,,,,,,,,,,,,,,,,,,,,,,,,,,,,,,,,,,,,,,,,,,,,,,,,,,,,,,,,,,,,,,
,,60e33263f1759a9611770793,2024-02-22_05h20.38.140,kallum_motion_pilot,2023.2.2,Win32,29.76190476,60e33263f1759a9611770793,65d6bb0e977760de756971f7,65d6bd55dfcd203fc765b6db,0.0467,0.0468,1,62,224,17,1,onethree,,,,,,,,,,,,,,,,,,,,,,,,,,,,,,,,,,,,,,,,,,,,,,,,,,,,,,,,,,,,,,,,,,,,,,,,,,,,,,,,,,,,,,,,,,,,,,,,,,,,,,,,,,,,,,,,,,,,,,,,,,,,,,,,,,,,,,,,,
,,60e33263f1759a9611770793,2024-02-22_05h20.38.140,kallum_motion_pilot,2023.2.2,Win32,29.76190476,60e33263f1759a9611770793,65d6bb0e977760de756971f7,65d6bd55dfcd203fc765b6db,0.047,0.0471,1,63,225,147,1,sixeight,,,,,,,,,,,,,,,,,,,,,,,,,,,,,,,,,,,,,,,,,,,,,,,,,,,,,,,,,,,,,,,,,,,,,,,,,,,,,,,,,,,,,,,,,,,,,,,,,,,,,,,,,,,,,,,,,,,,,,,,,,,,,,,,,,,,,,,,,
,,60e33263f1759a9611770793,2024-02-22_05h20.38.140,kallum_motion_pilot,2023.2.2,Win32,29.76190476,60e33263f1759a9611770793,65d6bb0e977760de756971f7,65d6bd55dfcd203fc765b6db,0.0472,0.0472,1,64,226,34,1,twoone,,,,,,,,,,,,,,,,,,,,,,,,,,,,,,,,,,,,,,,,,,,,,,,,,,,,,,,,,,,,,,,,,,,,,,,,,,,,,,,,,,,,,,,,,,,,,,,,,,,,,,,,,,,,,,,,,,,,,,,,,,,,,,,,,,,,,,,,,
,,60e33263f1759a9611770793,2024-02-22_05h20.38.140,kallum_motion_pilot,2023.2.2,Win32,29.76190476,60e33263f1759a9611770793,65d6bb0e977760de756971f7,65d6bd55dfcd203fc765b6db,0.0472,0.0473,1,65,227,64,1,onetwo,,,,,,,,,,,,,,,,,,,,,,,,,,,,,,,,,,,,,,,,,,,,,,,,,,,,,,,,,,,,,,,,,,,,,,,,,,,,,,,,,,,,,,,,,,,,,,,,,,,,,,,,,,,,,,,,,,,,,,,,,,,,,,,,,,,,,,,,,
,,60e33263f1759a9611770793,2024-02-22_05h20.38.140,kallum_motion_pilot,2023.2.2,Win32,29.76190476,60e33263f1759a9611770793,65d6bb0e977760de756971f7,65d6bd55dfcd203fc765b6db,0.0473,0.0473,1,66,228,8,1,onetwo,,,,,,,,,,,,,,,,,,,,,,,,,,,,,,,,,,,,,,,,,,,,,,,,,,,,,,,,,,,,,,,,,,,,,,,,,,,,,,,,,,,,,,,,,,,,,,,,,,,,,,,,,,,,,,,,,,,,,,,,,,,,,,,,,,,,,,,,,
,,60e33263f1759a9611770793,2024-02-22_05h20.38.140,kallum_motion_pilot,2023.2.2,Win32,29.76190476,60e33263f1759a9611770793,65d6bb0e977760de756971f7,65d6bd55dfcd203fc765b6db,0.0474,0.0475,1,67,229,49,1,onethree,,,,,,,,,,,,,,,,,,,,,,,,,,,,,,,,,,,,,,,,,,,,,,,,,,,,,,,,,,,,,,,,,,,,,,,,,,,,,,,,,,,,,,,,,,,,,,,,,,,,,,,,,,,,,,,,,,,,,,,,,,,,,,,,,,,,,,,,,
,,60e33263f1759a9611770793,2024-02-22_05h20.38.140,kallum_motion_pilot,2023.2.2,Win32,29.76190476,60e33263f1759a9611770793,65d6bb0e977760de756971f7,65d6bd55dfcd203fc765b6db,0.0475,0.0476,1,68,230,133,1,seveneight,,,,,,,,,,,,,,,,,,,,,,,,,,,,,,,,,,,,,,,,,,,,,,,,,,,,,,,,,,,,,,,,,,,,,,,,,,,,,,,,,,,,,,,,,,,,,,,,,,,,,,,,,,,,,,,,,,,,,,,,,,,,,,,,,,,,,,,,,
,,60e33263f1759a9611770793,2024-02-22_05h20.38.140,kallum_motion_pilot,2023.2.2,Win32,29.76190476,60e33263f1759a9611770793,65d6bb0e977760de756971f7,65d6bd55dfcd203fc765b6db,0.0476,0.0476,1,69,231,46,1,fourtwo,,,,,,,,,,,,,,,,,,,,,,,,,,,,,,,,,,,,,,,,,,,,,,,,,,,,,,,,,,,,,,,,,,,,,,,,,,,,,,,,,,,,,,,,,,,,,,,,,,,,,,,,,,,,,,,,,,,,,,,,,,,,,,,,,,,,,,,,,
,,60e33263f1759a9611770793,2024-02-22_05h20.38.140,kallum_motion_pilot,2023.2.2,Win32,29.76190476,60e33263f1759a9611770793,65d6bb0e977760de756971f7,65d6bd55dfcd203fc765b6db,0.0476,0.0477,1,70,232,90,1,sixfive,,,,,,,,,,,,,,,,,,,,,,,,,,,,,,,,,,,,,,,,,,,,,,,,,,,,,,,,,,,,,,,,,,,,,,,,,,,,,,,,,,,,,,,,,,,,,,,,,,,,,,,,,,,,,,,,,,,,,,,,,,,,,,,,,,,,,,,,,
,,60e33263f1759a9611770793,2024-02-22_05h20.38.140,kallum_motion_pilot,2023.2.2,Win32,29.76190476,60e33263f1759a9611770793,65d6bb0e977760de756971f7,65d6bd55dfcd203fc765b6db,0.0478,0.0478,1,71,233,71,1,fourthree,,,,,,,,,,,,,,,,,,,,,,,,,,,,,,,,,,,,,,,,,,,,,,,,,,,,,,,,,,,,,,,,,,,,,,,,,,,,,,,,,,,,,,,,,,,,,,,,,,,,,,,,,,,,,,,,,,,,,,,,,,,,,,,,,,,,,,,,,
,,60e33263f1759a9611770793,2024-02-22_05h20.38.140,kallum_motion_pilot,2023.2.2,Win32,29.76190476,60e33263f1759a9611770793,65d6bb0e977760de756971f7,65d6bd55dfcd203fc765b6db,0.0478,0.0479,1,72,234,157,1,seveneight,,,,,,,,,,,,,,,,,,,,,,,,,,,,,,,,,,,,,,,,,,,,,,,,,,,,,,,,,,,,,,,,,,,,,,,,,,,,,,,,,,,,,,,,,,,,,,,,,,,,,,,,,,,,,,,,,,,,,,,,,,,,,,,,,,,,,,,,,
,,60e33263f1759a9611770793,2024-02-22_05h20.38.140,kallum_motion_pilot,2023.2.2,Win32,29.76190476,60e33263f1759a9611770793,65d6bb0e977760de756971f7,65d6bd55dfcd203fc765b6db,0.0479,0.048,1,73,235,142,1,eightsix,,,,,,,,,,,,,,,,,,,,,,,,,,,,,,,,,,,,,,,,,,,,,,,,,,,,,,,,,,,,,,,,,,,,,,,,,,,,,,,,,,,,,,,,,,,,,,,,,,,,,,,,,,,,,,,,,,,,,,,,,,,,,,,,,,,,,,,,,
,,60e33263f1759a9611770793,2024-02-22_05h20.38.140,kallum_motion_pilot,2023.2.2,Win32,29.76190476,60e33263f1759a9611770793,65d6bb0e977760de756971f7,65d6bd55dfcd203fc765b6db,0.0481,0.0481,1,74,236,107,1,sixeight,,,,,,,,,,,,,,,,,,,,,,,,,,,,,,,,,,,,,,,,,,,,,,,,,,,,,,,,,,,,,,,,,,,,,,,,,,,,,,,,,,,,,,,,,,,,,,,,,,,,,,,,,,,,,,,,,,,,,,,,,,,,,,,,,,,,,,,,,
,,60e33263f1759a9611770793,2024-02-22_05h20.38.140,kallum_motion_pilot,2023.2.2,Win32,29.76190476,60e33263f1759a9611770793,65d6bb0e977760de756971f7,65d6bd55dfcd203fc765b6db,0.0482,0.0482,1,75,237,139,1,sixeight,,,,,,,,,,,,,,,,,,,,,,,,,,,,,,,,,,,,,,,,,,,,,,,,,,,,,,,,,,,,,,,,,,,,,,,,,,,,,,,,,,,,,,,,,,,,,,,,,,,,,,,,,,,,,,,,,,,,,,,,,,,,,,,,,,,,,,,,,
,,60e33263f1759a9611770793,2024-02-22_05h20.38.140,kallum_motion_pilot,2023.2.2,Win32,29.76190476,60e33263f1759a9611770793,65d6bb0e977760de756971f7,65d6bd55dfcd203fc765b6db,0.0482,0.0483,1,76,238,148,1,sevenfive,,,,,,,,,,,,,,,,,,,,,,,,,,,,,,,,,,,,,,,,,,,,,,,,,,,,,,,,,,,,,,,,,,,,,,,,,,,,,,,,,,,,,,,,,,,,,,,,,,,,,,,,,,,,,,,,,,,,,,,,,,,,,,,,,,,,,,,,,
,,60e33263f1759a9611770793,2024-02-22_05h20.38.140,kallum_motion_pilot,2023.2.2,Win32,29.76190476,60e33263f1759a9611770793,65d6bb0e977760de756971f7,65d6bd55dfcd203fc765b6db,0.0483,0.0484,1,77,239,124,1,sevenfive,,,,,,,,,,,,,,,,,,,,,,,,,,,,,,,,,,,,,,,,,,,,,,,,,,,,,,,,,,,,,,,,,,,,,,,,,,,,,,,,,,,,,,,,,,,,,,,,,,,,,,,,,,,,,,,,,,,,,,,,,,,,,,,,,,,,,,,,,
,,60e33263f1759a9611770793,2024-02-22_05h20.38.140,kallum_motion_pilot,2023.2.2,Win32,29.76190476,60e33263f1759a9611770793,65d6bb0e977760de756971f7,65d6bd55dfcd203fc765b6db,0.0484,0.0485,1,78,240,73,1,onethree,,,,,,,,,,,,,,,,,,,,,,,,,,,,,,,,,,,,,,,,,,,,,,,,,,,,,,,,,,,,,,,,,,,,,,,,,,,,,,,,,,,,,,,,,,,,,,,,,,,,,,,,,,,,,,,,,,,,,,,,,,,,,,,,,,,,,,,,,
,,60e33263f1759a9611770793,2024-02-22_05h20.38.140,kallum_motion_pilot,2023.2.2,Win32,29.76190476,60e33263f1759a9611770793,65d6bb0e977760de756971f7,65d6bd55dfcd203fc765b6db,0.0485,0.0486,1,79,241,61,1,threefour,,,,,,,,,,,,,,,,,,,,,,,,,,,,,,,,,,,,,,,,,,,,,,,,,,,,,,,,,,,,,,,,,,,,,,,,,,,,,,,,,,,,,,,,,,,,,,,,,,,,,,,,,,,,,,,,,,,,,,,,,,,,,,,,,,,,,,,,,
,,60e33263f1759a9611770793,2024-02-22_05h20.38.140,kallum_motion_pilot,2023.2.2,Win32,29.76190476,60e33263f1759a9611770793,65d6bb0e977760de756971f7,65d6bd55dfcd203fc765b6db,0.0486,0.0486,1,80,242,18,1,twoone,,,,,,,,,,,,,,,,,,,,,,,,,,,,,,,,,,,,,,,,,,,,,,,,,,,,,,,,,,,,,,,,,,,,,,,,,,,,,,,,,,,,,,,,,,,,,,,,,,,,,,,,,,,,,,,,,,,,,,,,,,,,,,,,,,,,,,,,,
,,60e33263f1759a9611770793,2024-02-22_05h20.38.140,kallum_motion_pilot,2023.2.2,Win32,29.76190476,60e33263f1759a9611770793,65d6bb0e977760de756971f7,65d6bd55dfcd203fc765b6db,0.0486,0.0487,1,81,243,112,1,fivesix,,,,,,,,,,,,,,,,,,,,,,,,,,,,,,,,,,,,,,,,,,,,,,,,,,,,,,,,,,,,,,,,,,,,,,,,,,,,,,,,,,,,,,,,,,,,,,,,,,,,,,,,,,,,,,,,,,,,,,,,,,,,,,,,,,,,,,,,,
,,60e33263f1759a9611770793,2024-02-22_05h20.38.140,kallum_motion_pilot,2023.2.2,Win32,29.76190476,60e33263f1759a9611770793,65d6bb0e977760de756971f7,65d6bd55dfcd203fc765b6db,0.0488,0.0488,1,82,244,29,1,threefour,,,,,,,,,,,,,,,,,,,,,,,,,,,,,,,,,,,,,,,,,,,,,,,,,,,,,,,,,,,,,,,,,,,,,,,,,,,,,,,,,,,,,,,,,,,,,,,,,,,,,,,,,,,,,,,,,,,,,,,,,,,,,,,,,,,,,,,,,
,,60e33263f1759a9611770793,2024-02-22_05h20.38.140,kallum_motion_pilot,2023.2.2,Win32,29.76190476,60e33263f1759a9611770793,65d6bb0e977760de756971f7,65d6bd55dfcd203fc765b6db,0.0489,0.0489,1,83,245,37,1,threefour,,,,,,,,,,,,,,,,,,,,,,,,,,,,,,,,,,,,,,,,,,,,,,,,,,,,,,,,,,,,,,,,,,,,,,,,,,,,,,,,,,,,,,,,,,,,,,,,,,,,,,,,,,,,,,,,,,,,,,,,,,,,,,,,,,,,,,,,,
,,60e33263f1759a9611770793,2024-02-22_05h20.38.140,kallum_motion_pilot,2023.2.2,Win32,29.76190476,60e33263f1759a9611770793,65d6bb0e977760de756971f7,65d6bd55dfcd203fc765b6db,0.0489,0.0491,1,84,246,122,1,sixfive,,,,,,,,,,,,,,,,,,,,,,,,,,,,,,,,,,,,,,,,,,,,,,,,,,,,,,,,,,,,,,,,,,,,,,,,,,,,,,,,,,,,,,,,,,,,,,,,,,,,,,,,,,,,,,,,,,,,,,,,,,,,,,,,,,,,,,,,,
,,60e33263f1759a9611770793,2024-02-22_05h20.38.140,kallum_motion_pilot,2023.2.2,Win32,29.76190476,60e33263f1759a9611770793,65d6bb0e977760de756971f7,65d6bd55dfcd203fc765b6db,0.0491,0.0491,1,85,247,52,1,threeone,,,,,,,,,,,,,,,,,,,,,,,,,,,,,,,,,,,,,,,,,,,,,,,,,,,,,,,,,,,,,,,,,,,,,,,,,,,,,,,,,,,,,,,,,,,,,,,,,,,,,,,,,,,,,,,,,,,,,,,,,,,,,,,,,,,,,,,,,
,,60e33263f1759a9611770793,2024-02-22_05h20.38.140,kallum_motion_pilot,2023.2.2,Win32,29.76190476,60e33263f1759a9611770793,65d6bb0e977760de756971f7,65d6bd55dfcd203fc765b6db,0.0491,0.0492,1,86,248,88,1,fivesix,,,,,,,,,,,,,,,,,,,,,,,,,,,,,,,,,,,,,,,,,,,,,,,,,,,,,,,,,,,,,,,,,,,,,,,,,,,,,,,,,,,,,,,,,,,,,,,,,,,,,,,,,,,,,,,,,,,,,,,,,,,,,,,,,,,,,,,,,
,,60e33263f1759a9611770793,2024-02-22_05h20.38.140,kallum_motion_pilot,2023.2.2,Win32,29.76190476,60e33263f1759a9611770793,65d6bb0e977760de756971f7,65d6bd55dfcd203fc765b6db,0.0493,0.0493,1,87,249,87,1,eightseven,,,,,,,,,,,,,,,,,,,,,,,,,,,,,,,,,,,,,,,,,,,,,,,,,,,,,,,,,,,,,,,,,,,,,,,,,,,,,,,,,,,,,,,,,,,,,,,,,,,,,,,,,,,,,,,,,,,,,,,,,,,,,,,,,,,,,,,,,
,,60e33263f1759a9611770793,2024-02-22_05h20.38.140,kallum_motion_pilot,2023.2.2,Win32,29.76190476,60e33263f1759a9611770793,65d6bb0e977760de756971f7,65d6bd55dfcd203fc765b6db,0.0493,0.0495,1,88,250,89,1,fiveseven,,,,,,,,,,,,,,,,,,,,,,,,,,,,,,,,,,,,,,,,,,,,,,,,,,,,,,,,,,,,,,,,,,,,,,,,,,,,,,,,,,,,,,,,,,,,,,,,,,,,,,,,,,,,,,,,,,,,,,,,,,,,,,,,,,,,,,,,,
,,60e33263f1759a9611770793,2024-02-22_05h20.38.140,kallum_motion_pilot,2023.2.2,Win32,29.76190476,60e33263f1759a9611770793,65d6bb0e977760de756971f7,65d6bd55dfcd203fc765b6db,0.0495,0.0496,1,89,251,2,1,twoone,,,,,,,,,,,,,,,,,,,,,,,,,,,,,,,,,,,,,,,,,,,,,,,,,,,,,,,,,,,,,,,,,,,,,,,,,,,,,,,,,,,,,,,,,,,,,,,,,,,,,,,,,,,,,,,,,,,,,,,,,,,,,,,,,,,,,,,,,
,,60e33263f1759a9611770793,2024-02-22_05h20.38.140,kallum_motion_pilot,2023.2.2,Win32,29.76190476,60e33263f1759a9611770793,65d6bb0e977760de756971f7,65d6bd55dfcd203fc765b6db,0.0496,0.0496,1,90,252,33,1,onethree,,,,,,,,,,,,,,,,,,,,,,,,,,,,,,,,,,,,,,,,,,,,,,,,,,,,,,,,,,,,,,,,,,,,,,,,,,,,,,,,,,,,,,,,,,,,,,,,,,,,,,,,,,,,,,,,,,,,,,,,,,,,,,,,,,,,,,,,,
,,60e33263f1759a9611770793,2024-02-22_05h20.38.140,kallum_motion_pilot,2023.2.2,Win32,29.76190476,60e33263f1759a9611770793,65d6bb0e977760de756971f7,65d6bd55dfcd203fc765b6db,0.0497,0.0497,1,91,253,135,1,eightseven,,,,,,,,,,,,,,,,,,,,,,,,,,,,,,,,,,,,,,,,,,,,,,,,,,,,,,,,,,,,,,,,,,,,,,,,,,,,,,,,,,,,,,,,,,,,,,,,,,,,,,,,,,,,,,,,,,,,,,,,,,,,,,,,,,,,,,,,,
,,60e33263f1759a9611770793,2024-02-22_05h20.38.140,kallum_motion_pilot,2023.2.2,Win32,29.76190476,60e33263f1759a9611770793,65d6bb0e977760de756971f7,65d6bd55dfcd203fc765b6db,0.0498,0.0498,1,92,254,154,1,sixfive,,,,,,,,,,,,,,,,,,,,,,,,,,,,,,,,,,,,,,,,,,,,,,,,,,,,,,,,,,,,,,,,,,,,,,,,,,,,,,,,,,,,,,,,,,,,,,,,,,,,,,,,,,,,,,,,,,,,,,,,,,,,,,,,,,,,,,,,,
,,60e33263f1759a9611770793,2024-02-22_05h20.38.140,kallum_motion_pilot,2023.2.2,Win32,29.76190476,60e33263f1759a9611770793,65d6bb0e977760de756971f7,65d6bd55dfcd203fc765b6db,0.05,0.0501,1,93,255,51,1,twofour,,,,,,,,,,,,,,,,,,,,,,,,,,,,,,,,,,,,,,,,,,,,,,,,,,,,,,,,,,,,,,,,,,,,,,,,,,,,,,,,,,,,,,,,,,,,,,,,,,,,,,,,,,,,,,,,,,,,,,,,,,,,,,,,,,,,,,,,,
,,60e33263f1759a9611770793,2024-02-22_05h20.38.140,kallum_motion_pilot,2023.2.2,Win32,29.76190476,60e33263f1759a9611770793,65d6bb0e977760de756971f7,65d6bd55dfcd203fc765b6db,0.0502,0.0502,1,94,256,14,1,fourtwo,,,,,,,,,,,,,,,,,,,,,,,,,,,,,,,,,,,,,,,,,,,,,,,,,,,,,,,,,,,,,,,,,,,,,,,,,,,,,,,,,,,,,,,,,,,,,,,,,,,,,,,,,,,,,,,,,,,,,,,,,,,,,,,,,,,,,,,,,
,,60e33263f1759a9611770793,2024-02-22_05h20.38.140,kallum_motion_pilot,2023.2.2,Win32,29.76190476,60e33263f1759a9611770793,65d6bb0e977760de756971f7,65d6bd55dfcd203fc765b6db,0.0503,0.0504,1,95,257,103,1,eightseven,,,,,,,,,,,,,,,,,,,,,,,,,,,,,,,,,,,,,,,,,,,,,,,,,,,,,,,,,,,,,,,,,,,,,,,,,,,,,,,,,,,,,,,,,,,,,,,,,,,,,,,,,,,,,,,,,,,,,,,,,,,,,,,,,,,,,,,,,
,,60e33263f1759a9611770793,2024-02-22_05h20.38.140,kallum_motion_pilot,2023.2.2,Win32,29.76190476,60e33263f1759a9611770793,65d6bb0e977760de756971f7,65d6bd55dfcd203fc765b6db,0.0505,0.0506,1,96,258,91,1,sixeight,,,,,,,,,,,,,,,,,,,,,,,,,,,,,,,,,,,,,,,,,,,,,,,,,,,,,,,,,,,,,,,,,,,,,,,,,,,,,,,,,,,,,,,,,,,,,,,,,,,,,,,,,,,,,,,,,,,,,,,,,,,,,,,,,,,,,,,,,
,,60e33263f1759a9611770793,2024-02-22_05h20.38.140,kallum_motion_pilot,2023.2.2,Win32,29.76190476,60e33263f1759a9611770793,65d6bb0e977760de756971f7,65d6bd55dfcd203fc765b6db,0.0506,0.0506,1,97,259,108,1,sevenfive,,,,,,,,,,,,,,,,,,,,,,,,,,,,,,,,,,,,,,,,,,,,,,,,,,,,,,,,,,,,,,,,,,,,,,,,,,,,,,,,,,,,,,,,,,,,,,,,,,,,,,,,,,,,,,,,,,,,,,,,,,,,,,,,,,,,,,,,,
,,60e33263f1759a9611770793,2024-02-22_05h20.38.140,kallum_motion_pilot,2023.2.2,Win32,29.76190476,60e33263f1759a9611770793,65d6bb0e977760de756971f7,65d6bd55dfcd203fc765b6db,0.0507,0.0507,1,98,260,130,1,sixfive,,,,,,,,,,,,,,,,,,,,,,,,,,,,,,,,,,,,,,,,,,,,,,,,,,,,,,,,,,,,,,,,,,,,,,,,,,,,,,,,,,,,,,,,,,,,,,,,,,,,,,,,,,,,,,,,,,,,,,,,,,,,,,,,,,,,,,,,,
,,60e33263f1759a9611770793,2024-02-22_05h20.38.140,kallum_motion_pilot,2023.2.2,Win32,29.76190476,60e33263f1759a9611770793,65d6bb0e977760de756971f7,65d6bd55dfcd203fc765b6db,0.0508,0.0509,1,99,261,134,1,eightsix,,,,,,,,,,,,,,,,,,,,,,,,,,,,,,,,,,,,,,,,,,,,,,,,,,,,,,,,,,,,,,,,,,,,,,,,,,,,,,,,,,,,,,,,,,,,,,,,,,,,,,,,,,,,,,,,,,,,,,,,,,,,,,,,,,,,,,,,,
,,60e33263f1759a9611770793,2024-02-22_05h20.38.140,kallum_motion_pilot,2023.2.2,Win32,29.76190476,60e33263f1759a9611770793,65d6bb0e977760de756971f7,65d6bd55dfcd203fc765b6db,0.0509,0.051,1,100,262,63,1,fourthree,,,,,,,,,,,,,,,,,,,,,,,,,,,,,,,,,,,,,,,,,,,,,,,,,,,,,,,,,,,,,,,,,,,,,,,,,,,,,,,,,,,,,,,,,,,,,,,,,,,,,,,,,,,,,,,,,,,,,,,,,,,,,,,,,,,,,,,,,
,,60e33263f1759a9611770793,2024-02-22_05h20.38.140,kallum_motion_pilot,2023.2.2,Win32,29.76190476,60e33263f1759a9611770793,65d6bb0e977760de756971f7,65d6bd55dfcd203fc765b6db,0.0511,0.0511,1,101,263,140,1,sevenfive,,,,,,,,,,,,,,,,,,,,,,,,,,,,,,,,,,,,,,,,,,,,,,,,,,,,,,,,,,,,,,,,,,,,,,,,,,,,,,,,,,,,,,,,,,,,,,,,,,,,,,,,,,,,,,,,,,,,,,,,,,,,,,,,,,,,,,,,,
,,60e33263f1759a9611770793,2024-02-22_05h20.38.140,kallum_motion_pilot,2023.2.2,Win32,29.76190476,60e33263f1759a9611770793,65d6bb0e977760de756971f7,65d6bd55dfcd203fc765b6db,0.0512,0.0513,1,102,264,150,1,eightsix,,,,,,,,,,,,,,,,,,,,,,,,,,,,,,,,,,,,,,,,,,,,,,,,,,,,,,,,,,,,,,,,,,,,,,,,,,,,,,,,,,,,,,,,,,,,,,,,,,,,,,,,,,,,,,,,,,,,,,,,,,,,,,,,,,,,,,,,,
,,60e33263f1759a9611770793,2024-02-22_05h20.38.140,kallum_motion_pilot,2023.2.2,Win32,29.76190476,60e33263f1759a9611770793,65d6bb0e977760de756971f7,65d6bd55dfcd203fc765b6db,0.0513,0.0514,1,103,265,109,1,seveneight,,,,,,,,,,,,,,,,,,,,,,,,,,,,,,,,,,,,,,,,,,,,,,,,,,,,,,,,,,,,,,,,,,,,,,,,,,,,,,,,,,,,,,,,,,,,,,,,,,,,,,,,,,,,,,,,,,,,,,,,,,,,,,,,,,,,,,,,,
,,60e33263f1759a9611770793,2024-02-22_05h20.38.140,kallum_motion_pilot,2023.2.2,Win32,29.76190476,60e33263f1759a9611770793,65d6bb0e977760de756971f7,65d6bd55dfcd203fc765b6db,0.0514,0.0515,1,104,266,95,1,eightseven,,,,,,,,,,,,,,,,,,,,,,,,,,,,,,,,,,,,,,,,,,,,,,,,,,,,,,,,,,,,,,,,,,,,,,,,,,,,,,,,,,,,,,,,,,,,,,,,,,,,,,,,,,,,,,,,,,,,,,,,,,,,,,,,,,,,,,,,,
,,60e33263f1759a9611770793,2024-02-22_05h20.38.140,kallum_motion_pilot,2023.2.2,Win32,29.76190476,60e33263f1759a9611770793,65d6bb0e977760de756971f7,65d6bd55dfcd203fc765b6db,0.0516,0.0517,1,105,267,127,1,eightseven,,,,,,,,,,,,,,,,,,,,,,,,,,,,,,,,,,,,,,,,,,,,,,,,,,,,,,,,,,,,,,,,,,,,,,,,,,,,,,,,,,,,,,,,,,,,,,,,,,,,,,,,,,,,,,,,,,,,,,,,,,,,,,,,,,,,,,,,,
,,60e33263f1759a9611770793,2024-02-22_05h20.38.140,kallum_motion_pilot,2023.2.2,Win32,29.76190476,60e33263f1759a9611770793,65d6bb0e977760de756971f7,65d6bd55dfcd203fc765b6db,0.0517,0.0517,1,106,268,53,1,threefour,,,,,,,,,,,,,,,,,,,,,,,,,,,,,,,,,,,,,,,,,,,,,,,,,,,,,,,,,,,,,,,,,,,,,,,,,,,,,,,,,,,,,,,,,,,,,,,,,,,,,,,,,,,,,,,,,,,,,,,,,,,,,,,,,,,,,,,,,
,,60e33263f1759a9611770793,2024-02-22_05h20.38.140,kallum_motion_pilot,2023.2.2,Win32,29.76190476,60e33263f1759a9611770793,65d6bb0e977760de756971f7,65d6bd55dfcd203fc765b6db,0.0518,0.0519,1,107,269,3,1,twofour,,,,,,,,,,,,,,,,,,,,,,,,,,,,,,,,,,,,,,,,,,,,,,,,,,,,,,,,,,,,,,,,,,,,,,,,,,,,,,,,,,,,,,,,,,,,,,,,,,,,,,,,,,,,,,,,,,,,,,,,,,,,,,,,,,,,,,,,,
,,60e33263f1759a9611770793,2024-02-22_05h20.38.140,kallum_motion_pilot,2023.2.2,Win32,29.76190476,60e33263f1759a9611770793,65d6bb0e977760de756971f7,65d6bd55dfcd203fc765b6db,0.0519,0.052,1,108,270,121,1,fiveseven,,,,,,,,,,,,,,,,,,,,,,,,,,,,,,,,,,,,,,,,,,,,,,,,,,,,,,,,,,,,,,,,,,,,,,,,,,,,,,,,,,,,,,,,,,,,,,,,,,,,,,,,,,,,,,,,,,,,,,,,,,,,,,,,,,,,,,,,,
,,60e33263f1759a9611770793,2024-02-22_05h20.38.140,kallum_motion_pilot,2023.2.2,Win32,29.76190476,60e33263f1759a9611770793,65d6bb0e977760de756971f7,65d6bd55dfcd203fc765b6db,0.052,0.0521,1,109,271,22,1,fourtwo,,,,,,,,,,,,,,,,,,,,,,,,,,,,,,,,,,,,,,,,,,,,,,,,,,,,,,,,,,,,,,,,,,,,,,,,,,,,,,,,,,,,,,,,,,,,,,,,,,,,,,,,,,,,,,,,,,,,,,,,,,,,,,,,,,,,,,,,,
,,60e33263f1759a9611770793,2024-02-22_05h20.38.140,kallum_motion_pilot,2023.2.2,Win32,29.76190476,60e33263f1759a9611770793,65d6bb0e977760de756971f7,65d6bd55dfcd203fc765b6db,0.0521,0.0522,1,110,272,5,1,threefour,,,,,,,,,,,,,,,,,,,,,,,,,,,,,,,,,,,,,,,,,,,,,,,,,,,,,,,,,,,,,,,,,,,,,,,,,,,,,,,,,,,,,,,,,,,,,,,,,,,,,,,,,,,,,,,,,,,,,,,,,,,,,,,,,,,,,,,,,
,,60e33263f1759a9611770793,2024-02-22_05h20.38.140,kallum_motion_pilot,2023.2.2,Win32,29.76190476,60e33263f1759a9611770793,65d6bb0e977760de756971f7,65d6bd55dfcd203fc765b6db,0.0522,0.0523,1,111,273,99,1,sixeight,,,,,,,,,,,,,,,,,,,,,,,,,,,,,,,,,,,,,,,,,,,,,,,,,,,,,,,,,,,,,,,,,,,,,,,,,,,,,,,,,,,,,,,,,,,,,,,,,,,,,,,,,,,,,,,,,,,,,,,,,,,,,,,,,,,,,,,,,
,,60e33263f1759a9611770793,2024-02-22_05h20.38.140,kallum_motion_pilot,2023.2.2,Win32,29.76190476,60e33263f1759a9611770793,65d6bb0e977760de756971f7,65d6bd55dfcd203fc765b6db,0.0523,0.0524,1,112,274,56,1,onetwo,,,,,,,,,,,,,,,,,,,,,,,,,,,,,,,,,,,,,,,,,,,,,,,,,,,,,,,,,,,,,,,,,,,,,,,,,,,,,,,,,,,,,,,,,,,,,,,,,,,,,,,,,,,,,,,,,,,,,,,,,,,,,,,,,,,,,,,,,
,,60e33263f1759a9611770793,2024-02-22_05h20.38.140,kallum_motion_pilot,2023.2.2,Win32,29.76190476,60e33263f1759a9611770793,65d6bb0e977760de756971f7,65d6bd55dfcd203fc765b6db,0.0524,0.0525,1,113,275,137,1,fiveseven,,,,,,,,,,,,,,,,,,,,,,,,,,,,,,,,,,,,,,,,,,,,,,,,,,,,,,,,,,,,,,,,,,,,,,,,,,,,,,,,,,,,,,,,,,,,,,,,,,,,,,,,,,,,,,,,,,,,,,,,,,,,,,,,,,,,,,,,,
,,60e33263f1759a9611770793,2024-02-22_05h20.38.140,kallum_motion_pilot,2023.2.2,Win32,29.76190476,60e33263f1759a9611770793,65d6bb0e977760de756971f7,65d6bd55dfcd203fc765b6db,0.0525,0.0526,1,114,276,110,1,eightsix,,,,,,,,,,,,,,,,,,,,,,,,,,,,,,,,,,,,,,,,,,,,,,,,,,,,,,,,,,,,,,,,,,,,,,,,,,,,,,,,,,,,,,,,,,,,,,,,,,,,,,,,,,,,,,,,,,,,,,,,,,,,,,,,,,,,,,,,,
,,60e33263f1759a9611770793,2024-02-22_05h20.38.140,kallum_motion_pilot,2023.2.2,Win32,29.76190476,60e33263f1759a9611770793,65d6bb0e977760de756971f7,65d6bd55dfcd203fc765b6db,0.0526,0.0526,1,115,277,77,1,threefour,,,,,,,,,,,,,,,,,,,,,,,,,,,,,,,,,,,,,,,,,,,,,,,,,,,,,,,,,,,,,,,,,,,,,,,,,,,,,,,,,,,,,,,,,,,,,,,,,,,,,,,,,,,,,,,,,,,,,,,,,,,,,,,,,,,,,,,,,
