startup.started,startup.stopped,Prolific ID*,date,expName,psychopyVersion,OS,frameRate,participant,study_id,session,stimpositions.started,stimpositions.stopped,hardcoded_stimulus_positions.thisRepN,hardcoded_stimulus_positions.thisTrialN,hardcoded_stimulus_positions.thisN,hardcoded_stimulus_positions.thisIndex,hardcoded_stimulus_positions.ran,StimulusPos,stimorientation.started,stimorientation.stopped,prac_stimorientation_import_loop.thisRepN,prac_stimorientation_import_loop.thisTrialN,prac_stimorientation_import_loop.thisN,prac_stimorientation_import_loop.thisIndex,prac_stimorientation_import_loop.ran,Stimorientation,welcome_instr.started,welcome_instr.stopped,key_resp.keys,key_resp.rt,key_resp.duration,response_steppedout_1.started,response_steppedout_1.stopped,key_resp_20.keys,key_resp_20.rt,key_resp_20.duration,response_steppedout_2.started,response_steppedout_2.stopped,key_resp_19.keys,key_resp_19.rt,key_resp_19.duration,stim_response_instr.started,stim_response_instr.stopped,key_resp_15.keys,key_resp_15.rt,key_resp_15.duration,direction_instr_2.started,direction_instr_2.stopped,key_resp_9.keys,key_resp_9.rt,key_resp_9.duration,instr_prac.started,instr_prac.stopped,key_resp_10.keys,key_resp_10.rt,key_resp_10.duration,Stim1_display_prac.started,Stim1_display_prac.stopped,Ecc,Circle1_ori,Circle2_ori,response_prac.started,similarity,response_time,response_prac.stopped,mouse_5.x,mouse_5.y,mouse_5.leftButton,mouse_5.midButton,mouse_5.rightButton,mouse_5.clicked_name,responseprac_feedback.started,responseprac_feedback.stopped,summary2_prac.started,summary2_prac.stopped,mouse_6.x,mouse_6.y,mouse_6.leftButton,mouse_6.midButton,mouse_6.rightButton,mouse_6.clicked_name,duringprac.thisRepN,duringprac.thisTrialN,duringprac.thisN,duringprac.thisIndex,duringprac.ran,begin.started,begin.stopped,key_resp_22.keys,key_resp_22.rt,key_resp_22.duration,Stim1_display.started,Stim1_display.stopped,circle1_ori,circle2_ori,circle1_SF,circle2_SF,response.started,response.stopped,mouse.x,mouse.y,mouse.leftButton,mouse.midButton,mouse.rightButton,mouse.clicked_name,trialnumber,double_pass.thisRepN,double_pass.thisTrialN,double_pass.thisN,double_pass.thisIndex,double_pass.ran,double_pass.order,main_trial.thisRepN,main_trial.thisTrialN,main_trial.thisN,main_trial.thisIndex,main_trial.ran,main_trial.order,Trial_Counter,Catch,Frequencies,response_2.started,response_2.stopped,mouse_2.x,mouse_2.y,mouse_2.leftButton,mouse_2.midButton,mouse_2.rightButton,mouse_2.clicked_name,special_trial.started,special_trial.stopped,catch_1.started,catch_1.stopped,mouse_3.x,mouse_3.y,mouse_3.leftButton,mouse_3.midButton,mouse_3.rightButton,catchresponse,catchnumber,response_time_catch,response_sum.started,response_sum.stopped,mouse_11.x,mouse_11.y,mouse_11.leftButton,mouse_11.midButton,mouse_11.rightButton,flip_presentation_sequence_for_double_pass.started,flip_presentation_sequence_for_double_pass.stopped,goodbye.started,goodbye.stopped,key_resp_3.keys,key_resp_3.rt,key_resp_3.duration
0,0,60e5e98326d94f93738053c5,2024-02-19_02h10.59.230,kallum_motion_pilot,2023.2.2,Win32,142.8571429,60e5e98326d94f93738053c5,65d2b6c8f2eece985d8e374c,65d2b8a950ceff515d57c5c4,,,,,,,,,,,,,,,,,,,,,,,,,,,,,,,,,,,,,,,,,,,,,,,,,,,,,,,,,,,,,,,,,,,,,,,,,,,,,,,,,,,,,,,,,,,,,,,,,,,,,,,,,,,,,,,,,,,,,,,,,,,,,,,,,,,,,,,,,,,,,,,,,
,,60e5e98326d94f93738053c5,2024-02-19_02h10.59.230,kallum_motion_pilot,2023.2.2,Win32,142.8571429,60e5e98326d94f93738053c5,65d2b6c8f2eece985d8e374c,65d2b8a950ceff515d57c5c4,0.011,0.011,0,0,0,29,1,threefour,,,,,,,,,,,,,,,,,,,,,,,,,,,,,,,,,,,,,,,,,,,,,,,,,,,,,,,,,,,,,,,,,,,,,,,,,,,,,,,,,,,,,,,,,,,,,,,,,,,,,,,,,,,,,,,,,,,,,,,,,,,,,,,,,,,,,,,,,
,,60e5e98326d94f93738053c5,2024-02-19_02h10.59.230,kallum_motion_pilot,2023.2.2,Win32,142.8571429,60e5e98326d94f93738053c5,65d2b6c8f2eece985d8e374c,65d2b8a950ceff515d57c5c4,0.011,0.011,0,1,1,43,1,twofour,,,,,,,,,,,,,,,,,,,,,,,,,,,,,,,,,,,,,,,,,,,,,,,,,,,,,,,,,,,,,,,,,,,,,,,,,,,,,,,,,,,,,,,,,,,,,,,,,,,,,,,,,,,,,,,,,,,,,,,,,,,,,,,,,,,,,,,,,
,,60e5e98326d94f93738053c5,2024-02-19_02h10.59.230,kallum_motion_pilot,2023.2.2,Win32,142.8571429,60e5e98326d94f93738053c5,65d2b6c8f2eece985d8e374c,65d2b8a950ceff515d57c5c4,0.011,0.011,0,2,2,28,1,threeone,,,,,,,,,,,,,,,,,,,,,,,,,,,,,,,,,,,,,,,,,,,,,,,,,,,,,,,,,,,,,,,,,,,,,,,,,,,,,,,,,,,,,,,,,,,,,,,,,,,,,,,,,,,,,,,,,,,,,,,,,,,,,,,,,,,,,,,,,
,,60e5e98326d94f93738053c5,2024-02-19_02h10.59.230,kallum_motion_pilot,2023.2.2,Win32,142.8571429,60e5e98326d94f93738053c5,65d2b6c8f2eece985d8e374c,65d2b8a950ceff515d57c5c4,0.011,0.011,0,3,3,54,1,fourtwo,,,,,,,,,,,,,,,,,,,,,,,,,,,,,,,,,,,,,,,,,,,,,,,,,,,,,,,,,,,,,,,,,,,,,,,,,,,,,,,,,,,,,,,,,,,,,,,,,,,,,,,,,,,,,,,,,,,,,,,,,,,,,,,,,,,,,,,,,
,,60e5e98326d94f93738053c5,2024-02-19_02h10.59.230,kallum_motion_pilot,2023.2.2,Win32,142.8571429,60e5e98326d94f93738053c5,65d2b6c8f2eece985d8e374c,65d2b8a950ceff515d57c5c4,0.011,0.011,0,4,4,122,1,sixfive,,,,,,,,,,,,,,,,,,,,,,,,,,,,,,,,,,,,,,,,,,,,,,,,,,,,,,,,,,,,,,,,,,,,,,,,,,,,,,,,,,,,,,,,,,,,,,,,,,,,,,,,,,,,,,,,,,,,,,,,,,,,,,,,,,,,,,,,,
,,60e5e98326d94f93738053c5,2024-02-19_02h10.59.230,kallum_motion_pilot,2023.2.2,Win32,142.8571429,60e5e98326d94f93738053c5,65d2b6c8f2eece985d8e374c,65d2b8a950ceff515d57c5c4,0.011,0.011,0,5,5,53,1,threefour,,,,,,,,,,,,,,,,,,,,,,,,,,,,,,,,,,,,,,,,,,,,,,,,,,,,,,,,,,,,,,,,,,,,,,,,,,,,,,,,,,,,,,,,,,,,,,,,,,,,,,,,,,,,,,,,,,,,,,,,,,,,,,,,,,,,,,,,,
,,60e5e98326d94f93738053c5,2024-02-19_02h10.59.230,kallum_motion_pilot,2023.2.2,Win32,142.8571429,60e5e98326d94f93738053c5,65d2b6c8f2eece985d8e374c,65d2b8a950ceff515d57c5c4,0.011,0.011,0,6,6,18,1,twoone,,,,,,,,,,,,,,,,,,,,,,,,,,,,,,,,,,,,,,,,,,,,,,,,,,,,,,,,,,,,,,,,,,,,,,,,,,,,,,,,,,,,,,,,,,,,,,,,,,,,,,,,,,,,,,,,,,,,,,,,,,,,,,,,,,,,,,,,,
,,60e5e98326d94f93738053c5,2024-02-19_02h10.59.230,kallum_motion_pilot,2023.2.2,Win32,142.8571429,60e5e98326d94f93738053c5,65d2b6c8f2eece985d8e374c,65d2b8a950ceff515d57c5c4,0.012,0.012,0,7,7,13,1,threefour,,,,,,,,,,,,,,,,,,,,,,,,,,,,,,,,,,,,,,,,,,,,,,,,,,,,,,,,,,,,,,,,,,,,,,,,,,,,,,,,,,,,,,,,,,,,,,,,,,,,,,,,,,,,,,,,,,,,,,,,,,,,,,,,,,,,,,,,,
,,60e5e98326d94f93738053c5,2024-02-19_02h10.59.230,kallum_motion_pilot,2023.2.2,Win32,142.8571429,60e5e98326d94f93738053c5,65d2b6c8f2eece985d8e374c,65d2b8a950ceff515d57c5c4,0.012,0.012,0,8,8,107,1,sixeight,,,,,,,,,,,,,,,,,,,,,,,,,,,,,,,,,,,,,,,,,,,,,,,,,,,,,,,,,,,,,,,,,,,,,,,,,,,,,,,,,,,,,,,,,,,,,,,,,,,,,,,,,,,,,,,,,,,,,,,,,,,,,,,,,,,,,,,,,
,,60e5e98326d94f93738053c5,2024-02-19_02h10.59.230,kallum_motion_pilot,2023.2.2,Win32,142.8571429,60e5e98326d94f93738053c5,65d2b6c8f2eece985d8e374c,65d2b8a950ceff515d57c5c4,0.012,0.012,0,9,9,106,1,sixfive,,,,,,,,,,,,,,,,,,,,,,,,,,,,,,,,,,,,,,,,,,,,,,,,,,,,,,,,,,,,,,,,,,,,,,,,,,,,,,,,,,,,,,,,,,,,,,,,,,,,,,,,,,,,,,,,,,,,,,,,,,,,,,,,,,,,,,,,,
,,60e5e98326d94f93738053c5,2024-02-19_02h10.59.230,kallum_motion_pilot,2023.2.2,Win32,142.8571429,60e5e98326d94f93738053c5,65d2b6c8f2eece985d8e374c,65d2b8a950ceff515d57c5c4,0.012,0.012,0,10,10,1,1,onethree,,,,,,,,,,,,,,,,,,,,,,,,,,,,,,,,,,,,,,,,,,,,,,,,,,,,,,,,,,,,,,,,,,,,,,,,,,,,,,,,,,,,,,,,,,,,,,,,,,,,,,,,,,,,,,,,,,,,,,,,,,,,,,,,,,,,,,,,,
,,60e5e98326d94f93738053c5,2024-02-19_02h10.59.230,kallum_motion_pilot,2023.2.2,Win32,142.8571429,60e5e98326d94f93738053c5,65d2b6c8f2eece985d8e374c,65d2b8a950ceff515d57c5c4,0.012,0.012,0,11,11,76,1,threeone,,,,,,,,,,,,,,,,,,,,,,,,,,,,,,,,,,,,,,,,,,,,,,,,,,,,,,,,,,,,,,,,,,,,,,,,,,,,,,,,,,,,,,,,,,,,,,,,,,,,,,,,,,,,,,,,,,,,,,,,,,,,,,,,,,,,,,,,,
,,60e5e98326d94f93738053c5,2024-02-19_02h10.59.230,kallum_motion_pilot,2023.2.2,Win32,142.8571429,60e5e98326d94f93738053c5,65d2b6c8f2eece985d8e374c,65d2b8a950ceff515d57c5c4,0.012,0.012,0,12,12,65,1,onethree,,,,,,,,,,,,,,,,,,,,,,,,,,,,,,,,,,,,,,,,,,,,,,,,,,,,,,,,,,,,,,,,,,,,,,,,,,,,,,,,,,,,,,,,,,,,,,,,,,,,,,,,,,,,,,,,,,,,,,,,,,,,,,,,,,,,,,,,,
,,60e5e98326d94f93738053c5,2024-02-19_02h10.59.230,kallum_motion_pilot,2023.2.2,Win32,142.8571429,60e5e98326d94f93738053c5,65d2b6c8f2eece985d8e374c,65d2b8a950ceff515d57c5c4,0.012,0.012,0,13,13,153,1,fiveseven,,,,,,,,,,,,,,,,,,,,,,,,,,,,,,,,,,,,,,,,,,,,,,,,,,,,,,,,,,,,,,,,,,,,,,,,,,,,,,,,,,,,,,,,,,,,,,,,,,,,,,,,,,,,,,,,,,,,,,,,,,,,,,,,,,,,,,,,,
,,60e5e98326d94f93738053c5,2024-02-19_02h10.59.230,kallum_motion_pilot,2023.2.2,Win32,142.8571429,60e5e98326d94f93738053c5,65d2b6c8f2eece985d8e374c,65d2b8a950ceff515d57c5c4,0.012,0.012,0,14,14,73,1,onethree,,,,,,,,,,,,,,,,,,,,,,,,,,,,,,,,,,,,,,,,,,,,,,,,,,,,,,,,,,,,,,,,,,,,,,,,,,,,,,,,,,,,,,,,,,,,,,,,,,,,,,,,,,,,,,,,,,,,,,,,,,,,,,,,,,,,,,,,,
,,60e5e98326d94f93738053c5,2024-02-19_02h10.59.230,kallum_motion_pilot,2023.2.2,Win32,142.8571429,60e5e98326d94f93738053c5,65d2b6c8f2eece985d8e374c,65d2b8a950ceff515d57c5c4,0.012,0.013,0,15,15,39,1,fourthree,,,,,,,,,,,,,,,,,,,,,,,,,,,,,,,,,,,,,,,,,,,,,,,,,,,,,,,,,,,,,,,,,,,,,,,,,,,,,,,,,,,,,,,,,,,,,,,,,,,,,,,,,,,,,,,,,,,,,,,,,,,,,,,,,,,,,,,,,
,,60e5e98326d94f93738053c5,2024-02-19_02h10.59.230,kallum_motion_pilot,2023.2.2,Win32,142.8571429,60e5e98326d94f93738053c5,65d2b6c8f2eece985d8e374c,65d2b8a950ceff515d57c5c4,0.013,0.013,0,16,16,49,1,onethree,,,,,,,,,,,,,,,,,,,,,,,,,,,,,,,,,,,,,,,,,,,,,,,,,,,,,,,,,,,,,,,,,,,,,,,,,,,,,,,,,,,,,,,,,,,,,,,,,,,,,,,,,,,,,,,,,,,,,,,,,,,,,,,,,,,,,,,,,
,,60e5e98326d94f93738053c5,2024-02-19_02h10.59.230,kallum_motion_pilot,2023.2.2,Win32,142.8571429,60e5e98326d94f93738053c5,65d2b6c8f2eece985d8e374c,65d2b8a950ceff515d57c5c4,0.013,0.013,0,17,17,88,1,fivesix,,,,,,,,,,,,,,,,,,,,,,,,,,,,,,,,,,,,,,,,,,,,,,,,,,,,,,,,,,,,,,,,,,,,,,,,,,,,,,,,,,,,,,,,,,,,,,,,,,,,,,,,,,,,,,,,,,,,,,,,,,,,,,,,,,,,,,,,,
,,60e5e98326d94f93738053c5,2024-02-19_02h10.59.230,kallum_motion_pilot,2023.2.2,Win32,142.8571429,60e5e98326d94f93738053c5,65d2b6c8f2eece985d8e374c,65d2b8a950ceff515d57c5c4,0.013,0.013,0,18,18,34,1,twoone,,,,,,,,,,,,,,,,,,,,,,,,,,,,,,,,,,,,,,,,,,,,,,,,,,,,,,,,,,,,,,,,,,,,,,,,,,,,,,,,,,,,,,,,,,,,,,,,,,,,,,,,,,,,,,,,,,,,,,,,,,,,,,,,,,,,,,,,,
,,60e5e98326d94f93738053c5,2024-02-19_02h10.59.230,kallum_motion_pilot,2023.2.2,Win32,142.8571429,60e5e98326d94f93738053c5,65d2b6c8f2eece985d8e374c,65d2b8a950ceff515d57c5c4,0.013,0.013,0,19,19,35,1,twofour,,,,,,,,,,,,,,,,,,,,,,,,,,,,,,,,,,,,,,,,,,,,,,,,,,,,,,,,,,,,,,,,,,,,,,,,,,,,,,,,,,,,,,,,,,,,,,,,,,,,,,,,,,,,,,,,,,,,,,,,,,,,,,,,,,,,,,,,,
,,60e5e98326d94f93738053c5,2024-02-19_02h10.59.230,kallum_motion_pilot,2023.2.2,Win32,142.8571429,60e5e98326d94f93738053c5,65d2b6c8f2eece985d8e374c,65d2b8a950ceff515d57c5c4,0.013,0.013,0,20,20,6,1,fourtwo,,,,,,,,,,,,,,,,,,,,,,,,,,,,,,,,,,,,,,,,,,,,,,,,,,,,,,,,,,,,,,,,,,,,,,,,,,,,,,,,,,,,,,,,,,,,,,,,,,,,,,,,,,,,,,,,,,,,,,,,,,,,,,,,,,,,,,,,,
,,60e5e98326d94f93738053c5,2024-02-19_02h10.59.230,kallum_motion_pilot,2023.2.2,Win32,142.8571429,60e5e98326d94f93738053c5,65d2b6c8f2eece985d8e374c,65d2b8a950ceff515d57c5c4,0.013,0.013,0,21,21,83,1,sixeight,,,,,,,,,,,,,,,,,,,,,,,,,,,,,,,,,,,,,,,,,,,,,,,,,,,,,,,,,,,,,,,,,,,,,,,,,,,,,,,,,,,,,,,,,,,,,,,,,,,,,,,,,,,,,,,,,,,,,,,,,,,,,,,,,,,,,,,,,
,,60e5e98326d94f93738053c5,2024-02-19_02h10.59.230,kallum_motion_pilot,2023.2.2,Win32,142.8571429,60e5e98326d94f93738053c5,65d2b6c8f2eece985d8e374c,65d2b8a950ceff515d57c5c4,0.013,0.013,0,22,22,123,1,sixeight,,,,,,,,,,,,,,,,,,,,,,,,,,,,,,,,,,,,,,,,,,,,,,,,,,,,,,,,,,,,,,,,,,,,,,,,,,,,,,,,,,,,,,,,,,,,,,,,,,,,,,,,,,,,,,,,,,,,,,,,,,,,,,,,,,,,,,,,,
,,60e5e98326d94f93738053c5,2024-02-19_02h10.59.230,kallum_motion_pilot,2023.2.2,Win32,142.8571429,60e5e98326d94f93738053c5,65d2b6c8f2eece985d8e374c,65d2b8a950ceff515d57c5c4,0.013,0.013,0,23,23,78,1,fourtwo,,,,,,,,,,,,,,,,,,,,,,,,,,,,,,,,,,,,,,,,,,,,,,,,,,,,,,,,,,,,,,,,,,,,,,,,,,,,,,,,,,,,,,,,,,,,,,,,,,,,,,,,,,,,,,,,,,,,,,,,,,,,,,,,,,,,,,,,,
,,60e5e98326d94f93738053c5,2024-02-19_02h10.59.230,kallum_motion_pilot,2023.2.2,Win32,142.8571429,60e5e98326d94f93738053c5,65d2b6c8f2eece985d8e374c,65d2b8a950ceff515d57c5c4,0.013,0.013,0,24,24,144,1,fivesix,,,,,,,,,,,,,,,,,,,,,,,,,,,,,,,,,,,,,,,,,,,,,,,,,,,,,,,,,,,,,,,,,,,,,,,,,,,,,,,,,,,,,,,,,,,,,,,,,,,,,,,,,,,,,,,,,,,,,,,,,,,,,,,,,,,,,,,,,
,,60e5e98326d94f93738053c5,2024-02-19_02h10.59.230,kallum_motion_pilot,2023.2.2,Win32,142.8571429,60e5e98326d94f93738053c5,65d2b6c8f2eece985d8e374c,65d2b8a950ceff515d57c5c4,0.013,0.013,0,25,25,84,1,sevenfive,,,,,,,,,,,,,,,,,,,,,,,,,,,,,,,,,,,,,,,,,,,,,,,,,,,,,,,,,,,,,,,,,,,,,,,,,,,,,,,,,,,,,,,,,,,,,,,,,,,,,,,,,,,,,,,,,,,,,,,,,,,,,,,,,,,,,,,,,
,,60e5e98326d94f93738053c5,2024-02-19_02h10.59.230,kallum_motion_pilot,2023.2.2,Win32,142.8571429,60e5e98326d94f93738053c5,65d2b6c8f2eece985d8e374c,65d2b8a950ceff515d57c5c4,0.013,0.013,0,26,26,158,1,eightsix,,,,,,,,,,,,,,,,,,,,,,,,,,,,,,,,,,,,,,,,,,,,,,,,,,,,,,,,,,,,,,,,,,,,,,,,,,,,,,,,,,,,,,,,,,,,,,,,,,,,,,,,,,,,,,,,,,,,,,,,,,,,,,,,,,,,,,,,,
,,60e5e98326d94f93738053c5,2024-02-19_02h10.59.230,kallum_motion_pilot,2023.2.2,Win32,142.8571429,60e5e98326d94f93738053c5,65d2b6c8f2eece985d8e374c,65d2b8a950ceff515d57c5c4,0.013,0.013,0,27,27,134,1,eightsix,,,,,,,,,,,,,,,,,,,,,,,,,,,,,,,,,,,,,,,,,,,,,,,,,,,,,,,,,,,,,,,,,,,,,,,,,,,,,,,,,,,,,,,,,,,,,,,,,,,,,,,,,,,,,,,,,,,,,,,,,,,,,,,,,,,,,,,,,
,,60e5e98326d94f93738053c5,2024-02-19_02h10.59.230,kallum_motion_pilot,2023.2.2,Win32,142.8571429,60e5e98326d94f93738053c5,65d2b6c8f2eece985d8e374c,65d2b8a950ceff515d57c5c4,0.013,0.013,0,28,28,151,1,eightseven,,,,,,,,,,,,,,,,,,,,,,,,,,,,,,,,,,,,,,,,,,,,,,,,,,,,,,,,,,,,,,,,,,,,,,,,,,,,,,,,,,,,,,,,,,,,,,,,,,,,,,,,,,,,,,,,,,,,,,,,,,,,,,,,,,,,,,,,,
,,60e5e98326d94f93738053c5,2024-02-19_02h10.59.230,kallum_motion_pilot,2023.2.2,Win32,142.8571429,60e5e98326d94f93738053c5,65d2b6c8f2eece985d8e374c,65d2b8a950ceff515d57c5c4,0.013,0.013,0,29,29,95,1,eightseven,,,,,,,,,,,,,,,,,,,,,,,,,,,,,,,,,,,,,,,,,,,,,,,,,,,,,,,,,,,,,,,,,,,,,,,,,,,,,,,,,,,,,,,,,,,,,,,,,,,,,,,,,,,,,,,,,,,,,,,,,,,,,,,,,,,,,,,,,
,,60e5e98326d94f93738053c5,2024-02-19_02h10.59.230,kallum_motion_pilot,2023.2.2,Win32,142.8571429,60e5e98326d94f93738053c5,65d2b6c8f2eece985d8e374c,65d2b8a950ceff515d57c5c4,0.013,0.013,0,30,30,46,1,fourtwo,,,,,,,,,,,,,,,,,,,,,,,,,,,,,,,,,,,,,,,,,,,,,,,,,,,,,,,,,,,,,,,,,,,,,,,,,,,,,,,,,,,,,,,,,,,,,,,,,,,,,,,,,,,,,,,,,,,,,,,,,,,,,,,,,,,,,,,,,
,,60e5e98326d94f93738053c5,2024-02-19_02h10.59.230,kallum_motion_pilot,2023.2.2,Win32,142.8571429,60e5e98326d94f93738053c5,65d2b6c8f2eece985d8e374c,65d2b8a950ceff515d57c5c4,0.013,0.013,0,31,31,58,1,twoone,,,,,,,,,,,,,,,,,,,,,,,,,,,,,,,,,,,,,,,,,,,,,,,,,,,,,,,,,,,,,,,,,,,,,,,,,,,,,,,,,,,,,,,,,,,,,,,,,,,,,,,,,,,,,,,,,,,,,,,,,,,,,,,,,,,,,,,,,
,,60e5e98326d94f93738053c5,2024-02-19_02h10.59.230,kallum_motion_pilot,2023.2.2,Win32,142.8571429,60e5e98326d94f93738053c5,65d2b6c8f2eece985d8e374c,65d2b8a950ceff515d57c5c4,0.013,0.013,0,32,32,110,1,eightsix,,,,,,,,,,,,,,,,,,,,,,,,,,,,,,,,,,,,,,,,,,,,,,,,,,,,,,,,,,,,,,,,,,,,,,,,,,,,,,,,,,,,,,,,,,,,,,,,,,,,,,,,,,,,,,,,,,,,,,,,,,,,,,,,,,,,,,,,,
,,60e5e98326d94f93738053c5,2024-02-19_02h10.59.230,kallum_motion_pilot,2023.2.2,Win32,142.8571429,60e5e98326d94f93738053c5,65d2b6c8f2eece985d8e374c,65d2b8a950ceff515d57c5c4,0.013,0.013,0,33,33,92,1,sevenfive,,,,,,,,,,,,,,,,,,,,,,,,,,,,,,,,,,,,,,,,,,,,,,,,,,,,,,,,,,,,,,,,,,,,,,,,,,,,,,,,,,,,,,,,,,,,,,,,,,,,,,,,,,,,,,,,,,,,,,,,,,,,,,,,,,,,,,,,,
,,60e5e98326d94f93738053c5,2024-02-19_02h10.59.230,kallum_motion_pilot,2023.2.2,Win32,142.8571429,60e5e98326d94f93738053c5,65d2b6c8f2eece985d8e374c,65d2b8a950ceff515d57c5c4,0.013,0.013,0,34,34,93,1,seveneight,,,,,,,,,,,,,,,,,,,,,,,,,,,,,,,,,,,,,,,,,,,,,,,,,,,,,,,,,,,,,,,,,,,,,,,,,,,,,,,,,,,,,,,,,,,,,,,,,,,,,,,,,,,,,,,,,,,,,,,,,,,,,,,,,,,,,,,,,
,,60e5e98326d94f93738053c5,2024-02-19_02h10.59.230,kallum_motion_pilot,2023.2.2,Win32,142.8571429,60e5e98326d94f93738053c5,65d2b6c8f2eece985d8e374c,65d2b8a950ceff515d57c5c4,0.013,0.013,0,35,35,91,1,sixeight,,,,,,,,,,,,,,,,,,,,,,,,,,,,,,,,,,,,,,,,,,,,,,,,,,,,,,,,,,,,,,,,,,,,,,,,,,,,,,,,,,,,,,,,,,,,,,,,,,,,,,,,,,,,,,,,,,,,,,,,,,,,,,,,,,,,,,,,,
,,60e5e98326d94f93738053c5,2024-02-19_02h10.59.230,kallum_motion_pilot,2023.2.2,Win32,142.8571429,60e5e98326d94f93738053c5,65d2b6c8f2eece985d8e374c,65d2b8a950ceff515d57c5c4,0.013,0.013,0,36,36,115,1,sixeight,,,,,,,,,,,,,,,,,,,,,,,,,,,,,,,,,,,,,,,,,,,,,,,,,,,,,,,,,,,,,,,,,,,,,,,,,,,,,,,,,,,,,,,,,,,,,,,,,,,,,,,,,,,,,,,,,,,,,,,,,,,,,,,,,,,,,,,,,
,,60e5e98326d94f93738053c5,2024-02-19_02h10.59.230,kallum_motion_pilot,2023.2.2,Win32,142.8571429,60e5e98326d94f93738053c5,65d2b6c8f2eece985d8e374c,65d2b8a950ceff515d57c5c4,0.013,0.013,0,37,37,146,1,sixfive,,,,,,,,,,,,,,,,,,,,,,,,,,,,,,,,,,,,,,,,,,,,,,,,,,,,,,,,,,,,,,,,,,,,,,,,,,,,,,,,,,,,,,,,,,,,,,,,,,,,,,,,,,,,,,,,,,,,,,,,,,,,,,,,,,,,,,,,,
,,60e5e98326d94f93738053c5,2024-02-19_02h10.59.230,kallum_motion_pilot,2023.2.2,Win32,142.8571429,60e5e98326d94f93738053c5,65d2b6c8f2eece985d8e374c,65d2b8a950ceff515d57c5c4,0.013,0.013,0,38,38,17,1,onethree,,,,,,,,,,,,,,,,,,,,,,,,,,,,,,,,,,,,,,,,,,,,,,,,,,,,,,,,,,,,,,,,,,,,,,,,,,,,,,,,,,,,,,,,,,,,,,,,,,,,,,,,,,,,,,,,,,,,,,,,,,,,,,,,,,,,,,,,,
,,60e5e98326d94f93738053c5,2024-02-19_02h10.59.230,kallum_motion_pilot,2023.2.2,Win32,142.8571429,60e5e98326d94f93738053c5,65d2b6c8f2eece985d8e374c,65d2b8a950ceff515d57c5c4,0.013,0.013,0,39,39,69,1,threefour,,,,,,,,,,,,,,,,,,,,,,,,,,,,,,,,,,,,,,,,,,,,,,,,,,,,,,,,,,,,,,,,,,,,,,,,,,,,,,,,,,,,,,,,,,,,,,,,,,,,,,,,,,,,,,,,,,,,,,,,,,,,,,,,,,,,,,,,,
,,60e5e98326d94f93738053c5,2024-02-19_02h10.59.230,kallum_motion_pilot,2023.2.2,Win32,142.8571429,60e5e98326d94f93738053c5,65d2b6c8f2eece985d8e374c,65d2b8a950ceff515d57c5c4,0.013,0.013,0,40,40,38,1,fourtwo,,,,,,,,,,,,,,,,,,,,,,,,,,,,,,,,,,,,,,,,,,,,,,,,,,,,,,,,,,,,,,,,,,,,,,,,,,,,,,,,,,,,,,,,,,,,,,,,,,,,,,,,,,,,,,,,,,,,,,,,,,,,,,,,,,,,,,,,,
,,60e5e98326d94f93738053c5,2024-02-19_02h10.59.230,kallum_motion_pilot,2023.2.2,Win32,142.8571429,60e5e98326d94f93738053c5,65d2b6c8f2eece985d8e374c,65d2b8a950ceff515d57c5c4,0.013,0.014,0,41,41,67,1,twofour,,,,,,,,,,,,,,,,,,,,,,,,,,,,,,,,,,,,,,,,,,,,,,,,,,,,,,,,,,,,,,,,,,,,,,,,,,,,,,,,,,,,,,,,,,,,,,,,,,,,,,,,,,,,,,,,,,,,,,,,,,,,,,,,,,,,,,,,,
,,60e5e98326d94f93738053c5,2024-02-19_02h10.59.230,kallum_motion_pilot,2023.2.2,Win32,142.8571429,60e5e98326d94f93738053c5,65d2b6c8f2eece985d8e374c,65d2b8a950ceff515d57c5c4,0.014,0.014,0,42,42,66,1,twoone,,,,,,,,,,,,,,,,,,,,,,,,,,,,,,,,,,,,,,,,,,,,,,,,,,,,,,,,,,,,,,,,,,,,,,,,,,,,,,,,,,,,,,,,,,,,,,,,,,,,,,,,,,,,,,,,,,,,,,,,,,,,,,,,,,,,,,,,,
,,60e5e98326d94f93738053c5,2024-02-19_02h10.59.230,kallum_motion_pilot,2023.2.2,Win32,142.8571429,60e5e98326d94f93738053c5,65d2b6c8f2eece985d8e374c,65d2b8a950ceff515d57c5c4,0.014,0.014,0,43,43,147,1,sixeight,,,,,,,,,,,,,,,,,,,,,,,,,,,,,,,,,,,,,,,,,,,,,,,,,,,,,,,,,,,,,,,,,,,,,,,,,,,,,,,,,,,,,,,,,,,,,,,,,,,,,,,,,,,,,,,,,,,,,,,,,,,,,,,,,,,,,,,,,
,,60e5e98326d94f93738053c5,2024-02-19_02h10.59.230,kallum_motion_pilot,2023.2.2,Win32,142.8571429,60e5e98326d94f93738053c5,65d2b6c8f2eece985d8e374c,65d2b8a950ceff515d57c5c4,0.014,0.014,0,44,44,100,1,sevenfive,,,,,,,,,,,,,,,,,,,,,,,,,,,,,,,,,,,,,,,,,,,,,,,,,,,,,,,,,,,,,,,,,,,,,,,,,,,,,,,,,,,,,,,,,,,,,,,,,,,,,,,,,,,,,,,,,,,,,,,,,,,,,,,,,,,,,,,,,
,,60e5e98326d94f93738053c5,2024-02-19_02h10.59.230,kallum_motion_pilot,2023.2.2,Win32,142.8571429,60e5e98326d94f93738053c5,65d2b6c8f2eece985d8e374c,65d2b8a950ceff515d57c5c4,0.015,0.015,0,45,45,149,1,seveneight,,,,,,,,,,,,,,,,,,,,,,,,,,,,,,,,,,,,,,,,,,,,,,,,,,,,,,,,,,,,,,,,,,,,,,,,,,,,,,,,,,,,,,,,,,,,,,,,,,,,,,,,,,,,,,,,,,,,,,,,,,,,,,,,,,,,,,,,,
,,60e5e98326d94f93738053c5,2024-02-19_02h10.59.230,kallum_motion_pilot,2023.2.2,Win32,142.8571429,60e5e98326d94f93738053c5,65d2b6c8f2eece985d8e374c,65d2b8a950ceff515d57c5c4,0.015,0.015,0,46,46,77,1,threefour,,,,,,,,,,,,,,,,,,,,,,,,,,,,,,,,,,,,,,,,,,,,,,,,,,,,,,,,,,,,,,,,,,,,,,,,,,,,,,,,,,,,,,,,,,,,,,,,,,,,,,,,,,,,,,,,,,,,,,,,,,,,,,,,,,,,,,,,,
,,60e5e98326d94f93738053c5,2024-02-19_02h10.59.230,kallum_motion_pilot,2023.2.2,Win32,142.8571429,60e5e98326d94f93738053c5,65d2b6c8f2eece985d8e374c,65d2b8a950ceff515d57c5c4,0.015,0.015,0,47,47,159,1,eightseven,,,,,,,,,,,,,,,,,,,,,,,,,,,,,,,,,,,,,,,,,,,,,,,,,,,,,,,,,,,,,,,,,,,,,,,,,,,,,,,,,,,,,,,,,,,,,,,,,,,,,,,,,,,,,,,,,,,,,,,,,,,,,,,,,,,,,,,,,
,,60e5e98326d94f93738053c5,2024-02-19_02h10.59.230,kallum_motion_pilot,2023.2.2,Win32,142.8571429,60e5e98326d94f93738053c5,65d2b6c8f2eece985d8e374c,65d2b8a950ceff515d57c5c4,0.015,0.015,0,48,48,72,1,onetwo,,,,,,,,,,,,,,,,,,,,,,,,,,,,,,,,,,,,,,,,,,,,,,,,,,,,,,,,,,,,,,,,,,,,,,,,,,,,,,,,,,,,,,,,,,,,,,,,,,,,,,,,,,,,,,,,,,,,,,,,,,,,,,,,,,,,,,,,,
,,60e5e98326d94f93738053c5,2024-02-19_02h10.59.230,kallum_motion_pilot,2023.2.2,Win32,142.8571429,60e5e98326d94f93738053c5,65d2b6c8f2eece985d8e374c,65d2b8a950ceff515d57c5c4,0.015,0.015,0,49,49,111,1,eightseven,,,,,,,,,,,,,,,,,,,,,,,,,,,,,,,,,,,,,,,,,,,,,,,,,,,,,,,,,,,,,,,,,,,,,,,,,,,,,,,,,,,,,,,,,,,,,,,,,,,,,,,,,,,,,,,,,,,,,,,,,,,,,,,,,,,,,,,,,
,,60e5e98326d94f93738053c5,2024-02-19_02h10.59.230,kallum_motion_pilot,2023.2.2,Win32,142.8571429,60e5e98326d94f93738053c5,65d2b6c8f2eece985d8e374c,65d2b8a950ceff515d57c5c4,0.015,0.015,0,50,50,33,1,onethree,,,,,,,,,,,,,,,,,,,,,,,,,,,,,,,,,,,,,,,,,,,,,,,,,,,,,,,,,,,,,,,,,,,,,,,,,,,,,,,,,,,,,,,,,,,,,,,,,,,,,,,,,,,,,,,,,,,,,,,,,,,,,,,,,,,,,,,,,
,,60e5e98326d94f93738053c5,2024-02-19_02h10.59.230,kallum_motion_pilot,2023.2.2,Win32,142.8571429,60e5e98326d94f93738053c5,65d2b6c8f2eece985d8e374c,65d2b8a950ceff515d57c5c4,0.016,0.016,0,51,51,14,1,fourtwo,,,,,,,,,,,,,,,,,,,,,,,,,,,,,,,,,,,,,,,,,,,,,,,,,,,,,,,,,,,,,,,,,,,,,,,,,,,,,,,,,,,,,,,,,,,,,,,,,,,,,,,,,,,,,,,,,,,,,,,,,,,,,,,,,,,,,,,,,
,,60e5e98326d94f93738053c5,2024-02-19_02h10.59.230,kallum_motion_pilot,2023.2.2,Win32,142.8571429,60e5e98326d94f93738053c5,65d2b6c8f2eece985d8e374c,65d2b8a950ceff515d57c5c4,0.016,0.016,0,52,52,25,1,onethree,,,,,,,,,,,,,,,,,,,,,,,,,,,,,,,,,,,,,,,,,,,,,,,,,,,,,,,,,,,,,,,,,,,,,,,,,,,,,,,,,,,,,,,,,,,,,,,,,,,,,,,,,,,,,,,,,,,,,,,,,,,,,,,,,,,,,,,,,
,,60e5e98326d94f93738053c5,2024-02-19_02h10.59.230,kallum_motion_pilot,2023.2.2,Win32,142.8571429,60e5e98326d94f93738053c5,65d2b6c8f2eece985d8e374c,65d2b8a950ceff515d57c5c4,0.016,0.016,0,53,53,139,1,sixeight,,,,,,,,,,,,,,,,,,,,,,,,,,,,,,,,,,,,,,,,,,,,,,,,,,,,,,,,,,,,,,,,,,,,,,,,,,,,,,,,,,,,,,,,,,,,,,,,,,,,,,,,,,,,,,,,,,,,,,,,,,,,,,,,,,,,,,,,,
,,60e5e98326d94f93738053c5,2024-02-19_02h10.59.230,kallum_motion_pilot,2023.2.2,Win32,142.8571429,60e5e98326d94f93738053c5,65d2b6c8f2eece985d8e374c,65d2b8a950ceff515d57c5c4,0.016,0.016,0,54,54,137,1,fiveseven,,,,,,,,,,,,,,,,,,,,,,,,,,,,,,,,,,,,,,,,,,,,,,,,,,,,,,,,,,,,,,,,,,,,,,,,,,,,,,,,,,,,,,,,,,,,,,,,,,,,,,,,,,,,,,,,,,,,,,,,,,,,,,,,,,,,,,,,,
,,60e5e98326d94f93738053c5,2024-02-19_02h10.59.230,kallum_motion_pilot,2023.2.2,Win32,142.8571429,60e5e98326d94f93738053c5,65d2b6c8f2eece985d8e374c,65d2b8a950ceff515d57c5c4,0.016,0.016,0,55,55,12,1,threeone,,,,,,,,,,,,,,,,,,,,,,,,,,,,,,,,,,,,,,,,,,,,,,,,,,,,,,,,,,,,,,,,,,,,,,,,,,,,,,,,,,,,,,,,,,,,,,,,,,,,,,,,,,,,,,,,,,,,,,,,,,,,,,,,,,,,,,,,,
,,60e5e98326d94f93738053c5,2024-02-19_02h10.59.230,kallum_motion_pilot,2023.2.2,Win32,142.8571429,60e5e98326d94f93738053c5,65d2b6c8f2eece985d8e374c,65d2b8a950ceff515d57c5c4,0.016,0.016,0,56,56,86,1,eightsix,,,,,,,,,,,,,,,,,,,,,,,,,,,,,,,,,,,,,,,,,,,,,,,,,,,,,,,,,,,,,,,,,,,,,,,,,,,,,,,,,,,,,,,,,,,,,,,,,,,,,,,,,,,,,,,,,,,,,,,,,,,,,,,,,,,,,,,,,
,,60e5e98326d94f93738053c5,2024-02-19_02h10.59.230,kallum_motion_pilot,2023.2.2,Win32,142.8571429,60e5e98326d94f93738053c5,65d2b6c8f2eece985d8e374c,65d2b8a950ceff515d57c5c4,0.016,0.016,0,57,57,36,1,threeone,,,,,,,,,,,,,,,,,,,,,,,,,,,,,,,,,,,,,,,,,,,,,,,,,,,,,,,,,,,,,,,,,,,,,,,,,,,,,,,,,,,,,,,,,,,,,,,,,,,,,,,,,,,,,,,,,,,,,,,,,,,,,,,,,,,,,,,,,
,,60e5e98326d94f93738053c5,2024-02-19_02h10.59.230,kallum_motion_pilot,2023.2.2,Win32,142.8571429,60e5e98326d94f93738053c5,65d2b6c8f2eece985d8e374c,65d2b8a950ceff515d57c5c4,0.016,0.016,0,58,58,157,1,seveneight,,,,,,,,,,,,,,,,,,,,,,,,,,,,,,,,,,,,,,,,,,,,,,,,,,,,,,,,,,,,,,,,,,,,,,,,,,,,,,,,,,,,,,,,,,,,,,,,,,,,,,,,,,,,,,,,,,,,,,,,,,,,,,,,,,,,,,,,,
,,60e5e98326d94f93738053c5,2024-02-19_02h10.59.230,kallum_motion_pilot,2023.2.2,Win32,142.8571429,60e5e98326d94f93738053c5,65d2b6c8f2eece985d8e374c,65d2b8a950ceff515d57c5c4,0.016,0.016,0,59,59,41,1,onethree,,,,,,,,,,,,,,,,,,,,,,,,,,,,,,,,,,,,,,,,,,,,,,,,,,,,,,,,,,,,,,,,,,,,,,,,,,,,,,,,,,,,,,,,,,,,,,,,,,,,,,,,,,,,,,,,,,,,,,,,,,,,,,,,,,,,,,,,,
,,60e5e98326d94f93738053c5,2024-02-19_02h10.59.230,kallum_motion_pilot,2023.2.2,Win32,142.8571429,60e5e98326d94f93738053c5,65d2b6c8f2eece985d8e374c,65d2b8a950ceff515d57c5c4,0.016,0.016,0,60,60,63,1,fourthree,,,,,,,,,,,,,,,,,,,,,,,,,,,,,,,,,,,,,,,,,,,,,,,,,,,,,,,,,,,,,,,,,,,,,,,,,,,,,,,,,,,,,,,,,,,,,,,,,,,,,,,,,,,,,,,,,,,,,,,,,,,,,,,,,,,,,,,,,
,,60e5e98326d94f93738053c5,2024-02-19_02h10.59.230,kallum_motion_pilot,2023.2.2,Win32,142.8571429,60e5e98326d94f93738053c5,65d2b6c8f2eece985d8e374c,65d2b8a950ceff515d57c5c4,0.016,0.016,0,61,61,7,1,fourthree,,,,,,,,,,,,,,,,,,,,,,,,,,,,,,,,,,,,,,,,,,,,,,,,,,,,,,,,,,,,,,,,,,,,,,,,,,,,,,,,,,,,,,,,,,,,,,,,,,,,,,,,,,,,,,,,,,,,,,,,,,,,,,,,,,,,,,,,,
,,60e5e98326d94f93738053c5,2024-02-19_02h10.59.230,kallum_motion_pilot,2023.2.2,Win32,142.8571429,60e5e98326d94f93738053c5,65d2b6c8f2eece985d8e374c,65d2b8a950ceff515d57c5c4,0.016,0.016,0,62,62,15,1,fourthree,,,,,,,,,,,,,,,,,,,,,,,,,,,,,,,,,,,,,,,,,,,,,,,,,,,,,,,,,,,,,,,,,,,,,,,,,,,,,,,,,,,,,,,,,,,,,,,,,,,,,,,,,,,,,,,,,,,,,,,,,,,,,,,,,,,,,,,,,
,,60e5e98326d94f93738053c5,2024-02-19_02h10.59.230,kallum_motion_pilot,2023.2.2,Win32,142.8571429,60e5e98326d94f93738053c5,65d2b6c8f2eece985d8e374c,65d2b8a950ceff515d57c5c4,0.016,0.016,0,63,63,138,1,sixfive,,,,,,,,,,,,,,,,,,,,,,,,,,,,,,,,,,,,,,,,,,,,,,,,,,,,,,,,,,,,,,,,,,,,,,,,,,,,,,,,,,,,,,,,,,,,,,,,,,,,,,,,,,,,,,,,,,,,,,,,,,,,,,,,,,,,,,,,,
,,60e5e98326d94f93738053c5,2024-02-19_02h10.59.230,kallum_motion_pilot,2023.2.2,Win32,142.8571429,60e5e98326d94f93738053c5,65d2b6c8f2eece985d8e374c,65d2b8a950ceff515d57c5c4,0.016,0.016,0,64,64,55,1,fourthree,,,,,,,,,,,,,,,,,,,,,,,,,,,,,,,,,,,,,,,,,,,,,,,,,,,,,,,,,,,,,,,,,,,,,,,,,,,,,,,,,,,,,,,,,,,,,,,,,,,,,,,,,,,,,,,,,,,,,,,,,,,,,,,,,,,,,,,,,
,,60e5e98326d94f93738053c5,2024-02-19_02h10.59.230,kallum_motion_pilot,2023.2.2,Win32,142.8571429,60e5e98326d94f93738053c5,65d2b6c8f2eece985d8e374c,65d2b8a950ceff515d57c5c4,0.016,0.016,0,65,65,47,1,fourthree,,,,,,,,,,,,,,,,,,,,,,,,,,,,,,,,,,,,,,,,,,,,,,,,,,,,,,,,,,,,,,,,,,,,,,,,,,,,,,,,,,,,,,,,,,,,,,,,,,,,,,,,,,,,,,,,,,,,,,,,,,,,,,,,,,,,,,,,,
,,60e5e98326d94f93738053c5,2024-02-19_02h10.59.230,kallum_motion_pilot,2023.2.2,Win32,142.8571429,60e5e98326d94f93738053c5,65d2b6c8f2eece985d8e374c,65d2b8a950ceff515d57c5c4,0.016,0.016,0,66,66,97,1,fiveseven,,,,,,,,,,,,,,,,,,,,,,,,,,,,,,,,,,,,,,,,,,,,,,,,,,,,,,,,,,,,,,,,,,,,,,,,,,,,,,,,,,,,,,,,,,,,,,,,,,,,,,,,,,,,,,,,,,,,,,,,,,,,,,,,,,,,,,,,,
,,60e5e98326d94f93738053c5,2024-02-19_02h10.59.230,kallum_motion_pilot,2023.2.2,Win32,142.8571429,60e5e98326d94f93738053c5,65d2b6c8f2eece985d8e374c,65d2b8a950ceff515d57c5c4,0.016,0.016,0,67,67,102,1,eightsix,,,,,,,,,,,,,,,,,,,,,,,,,,,,,,,,,,,,,,,,,,,,,,,,,,,,,,,,,,,,,,,,,,,,,,,,,,,,,,,,,,,,,,,,,,,,,,,,,,,,,,,,,,,,,,,,,,,,,,,,,,,,,,,,,,,,,,,,,
,,60e5e98326d94f93738053c5,2024-02-19_02h10.59.230,kallum_motion_pilot,2023.2.2,Win32,142.8571429,60e5e98326d94f93738053c5,65d2b6c8f2eece985d8e374c,65d2b8a950ceff515d57c5c4,0.016,0.016,0,68,68,64,1,onetwo,,,,,,,,,,,,,,,,,,,,,,,,,,,,,,,,,,,,,,,,,,,,,,,,,,,,,,,,,,,,,,,,,,,,,,,,,,,,,,,,,,,,,,,,,,,,,,,,,,,,,,,,,,,,,,,,,,,,,,,,,,,,,,,,,,,,,,,,,
,,60e5e98326d94f93738053c5,2024-02-19_02h10.59.230,kallum_motion_pilot,2023.2.2,Win32,142.8571429,60e5e98326d94f93738053c5,65d2b6c8f2eece985d8e374c,65d2b8a950ceff515d57c5c4,0.016,0.016,0,69,69,82,1,sixfive,,,,,,,,,,,,,,,,,,,,,,,,,,,,,,,,,,,,,,,,,,,,,,,,,,,,,,,,,,,,,,,,,,,,,,,,,,,,,,,,,,,,,,,,,,,,,,,,,,,,,,,,,,,,,,,,,,,,,,,,,,,,,,,,,,,,,,,,,
,,60e5e98326d94f93738053c5,2024-02-19_02h10.59.230,kallum_motion_pilot,2023.2.2,Win32,142.8571429,60e5e98326d94f93738053c5,65d2b6c8f2eece985d8e374c,65d2b8a950ceff515d57c5c4,0.016,0.016,0,70,70,103,1,eightseven,,,,,,,,,,,,,,,,,,,,,,,,,,,,,,,,,,,,,,,,,,,,,,,,,,,,,,,,,,,,,,,,,,,,,,,,,,,,,,,,,,,,,,,,,,,,,,,,,,,,,,,,,,,,,,,,,,,,,,,,,,,,,,,,,,,,,,,,,
,,60e5e98326d94f93738053c5,2024-02-19_02h10.59.230,kallum_motion_pilot,2023.2.2,Win32,142.8571429,60e5e98326d94f93738053c5,65d2b6c8f2eece985d8e374c,65d2b8a950ceff515d57c5c4,0.017,0.017,0,71,71,20,1,threeone,,,,,,,,,,,,,,,,,,,,,,,,,,,,,,,,,,,,,,,,,,,,,,,,,,,,,,,,,,,,,,,,,,,,,,,,,,,,,,,,,,,,,,,,,,,,,,,,,,,,,,,,,,,,,,,,,,,,,,,,,,,,,,,,,,,,,,,,,
,,60e5e98326d94f93738053c5,2024-02-19_02h10.59.230,kallum_motion_pilot,2023.2.2,Win32,142.8571429,60e5e98326d94f93738053c5,65d2b6c8f2eece985d8e374c,65d2b8a950ceff515d57c5c4,0.017,0.017,0,72,72,8,1,onetwo,,,,,,,,,,,,,,,,,,,,,,,,,,,,,,,,,,,,,,,,,,,,,,,,,,,,,,,,,,,,,,,,,,,,,,,,,,,,,,,,,,,,,,,,,,,,,,,,,,,,,,,,,,,,,,,,,,,,,,,,,,,,,,,,,,,,,,,,,
,,60e5e98326d94f93738053c5,2024-02-19_02h10.59.230,kallum_motion_pilot,2023.2.2,Win32,142.8571429,60e5e98326d94f93738053c5,65d2b6c8f2eece985d8e374c,65d2b8a950ceff515d57c5c4,0.017,0.017,0,73,73,156,1,sevenfive,,,,,,,,,,,,,,,,,,,,,,,,,,,,,,,,,,,,,,,,,,,,,,,,,,,,,,,,,,,,,,,,,,,,,,,,,,,,,,,,,,,,,,,,,,,,,,,,,,,,,,,,,,,,,,,,,,,,,,,,,,,,,,,,,,,,,,,,,
,,60e5e98326d94f93738053c5,2024-02-19_02h10.59.230,kallum_motion_pilot,2023.2.2,Win32,142.8571429,60e5e98326d94f93738053c5,65d2b6c8f2eece985d8e374c,65d2b8a950ceff515d57c5c4,0.017,0.017,0,74,74,125,1,seveneight,,,,,,,,,,,,,,,,,,,,,,,,,,,,,,,,,,,,,,,,,,,,,,,,,,,,,,,,,,,,,,,,,,,,,,,,,,,,,,,,,,,,,,,,,,,,,,,,,,,,,,,,,,,,,,,,,,,,,,,,,,,,,,,,,,,,,,,,,
,,60e5e98326d94f93738053c5,2024-02-19_02h10.59.230,kallum_motion_pilot,2023.2.2,Win32,142.8571429,60e5e98326d94f93738053c5,65d2b6c8f2eece985d8e374c,65d2b8a950ceff515d57c5c4,0.017,0.017,0,75,75,131,1,sixeight,,,,,,,,,,,,,,,,,,,,,,,,,,,,,,,,,,,,,,,,,,,,,,,,,,,,,,,,,,,,,,,,,,,,,,,,,,,,,,,,,,,,,,,,,,,,,,,,,,,,,,,,,,,,,,,,,,,,,,,,,,,,,,,,,,,,,,,,,
,,60e5e98326d94f93738053c5,2024-02-19_02h10.59.230,kallum_motion_pilot,2023.2.2,Win32,142.8571429,60e5e98326d94f93738053c5,65d2b6c8f2eece985d8e374c,65d2b8a950ceff515d57c5c4,0.017,0.017,0,76,76,9,1,onethree,,,,,,,,,,,,,,,,,,,,,,,,,,,,,,,,,,,,,,,,,,,,,,,,,,,,,,,,,,,,,,,,,,,,,,,,,,,,,,,,,,,,,,,,,,,,,,,,,,,,,,,,,,,,,,,,,,,,,,,,,,,,,,,,,,,,,,,,,
,,60e5e98326d94f93738053c5,2024-02-19_02h10.59.230,kallum_motion_pilot,2023.2.2,Win32,142.8571429,60e5e98326d94f93738053c5,65d2b6c8f2eece985d8e374c,65d2b8a950ceff515d57c5c4,0.017,0.017,0,77,77,119,1,eightseven,,,,,,,,,,,,,,,,,,,,,,,,,,,,,,,,,,,,,,,,,,,,,,,,,,,,,,,,,,,,,,,,,,,,,,,,,,,,,,,,,,,,,,,,,,,,,,,,,,,,,,,,,,,,,,,,,,,,,,,,,,,,,,,,,,,,,,,,,
,,60e5e98326d94f93738053c5,2024-02-19_02h10.59.230,kallum_motion_pilot,2023.2.2,Win32,142.8571429,60e5e98326d94f93738053c5,65d2b6c8f2eece985d8e374c,65d2b8a950ceff515d57c5c4,0.017,0.017,0,78,78,98,1,sixfive,,,,,,,,,,,,,,,,,,,,,,,,,,,,,,,,,,,,,,,,,,,,,,,,,,,,,,,,,,,,,,,,,,,,,,,,,,,,,,,,,,,,,,,,,,,,,,,,,,,,,,,,,,,,,,,,,,,,,,,,,,,,,,,,,,,,,,,,,
,,60e5e98326d94f93738053c5,2024-02-19_02h10.59.230,kallum_motion_pilot,2023.2.2,Win32,142.8571429,60e5e98326d94f93738053c5,65d2b6c8f2eece985d8e374c,65d2b8a950ceff515d57c5c4,0.017,0.017,0,79,79,23,1,fourthree,,,,,,,,,,,,,,,,,,,,,,,,,,,,,,,,,,,,,,,,,,,,,,,,,,,,,,,,,,,,,,,,,,,,,,,,,,,,,,,,,,,,,,,,,,,,,,,,,,,,,,,,,,,,,,,,,,,,,,,,,,,,,,,,,,,,,,,,,
,,60e5e98326d94f93738053c5,2024-02-19_02h10.59.230,kallum_motion_pilot,2023.2.2,Win32,142.8571429,60e5e98326d94f93738053c5,65d2b6c8f2eece985d8e374c,65d2b8a950ceff515d57c5c4,0.017,0.017,0,80,80,99,1,sixeight,,,,,,,,,,,,,,,,,,,,,,,,,,,,,,,,,,,,,,,,,,,,,,,,,,,,,,,,,,,,,,,,,,,,,,,,,,,,,,,,,,,,,,,,,,,,,,,,,,,,,,,,,,,,,,,,,,,,,,,,,,,,,,,,,,,,,,,,,
,,60e5e98326d94f93738053c5,2024-02-19_02h10.59.230,kallum_motion_pilot,2023.2.2,Win32,142.8571429,60e5e98326d94f93738053c5,65d2b6c8f2eece985d8e374c,65d2b8a950ceff515d57c5c4,0.017,0.017,0,81,81,80,1,fivesix,,,,,,,,,,,,,,,,,,,,,,,,,,,,,,,,,,,,,,,,,,,,,,,,,,,,,,,,,,,,,,,,,,,,,,,,,,,,,,,,,,,,,,,,,,,,,,,,,,,,,,,,,,,,,,,,,,,,,,,,,,,,,,,,,,,,,,,,,
,,60e5e98326d94f93738053c5,2024-02-19_02h10.59.230,kallum_motion_pilot,2023.2.2,Win32,142.8571429,60e5e98326d94f93738053c5,65d2b6c8f2eece985d8e374c,65d2b8a950ceff515d57c5c4,0.017,0.017,0,82,82,154,1,sixfive,,,,,,,,,,,,,,,,,,,,,,,,,,,,,,,,,,,,,,,,,,,,,,,,,,,,,,,,,,,,,,,,,,,,,,,,,,,,,,,,,,,,,,,,,,,,,,,,,,,,,,,,,,,,,,,,,,,,,,,,,,,,,,,,,,,,,,,,,
,,60e5e98326d94f93738053c5,2024-02-19_02h10.59.230,kallum_motion_pilot,2023.2.2,Win32,142.8571429,60e5e98326d94f93738053c5,65d2b6c8f2eece985d8e374c,65d2b8a950ceff515d57c5c4,0.018,0.018,0,83,83,90,1,sixfive,,,,,,,,,,,,,,,,,,,,,,,,,,,,,,,,,,,,,,,,,,,,,,,,,,,,,,,,,,,,,,,,,,,,,,,,,,,,,,,,,,,,,,,,,,,,,,,,,,,,,,,,,,,,,,,,,,,,,,,,,,,,,,,,,,,,,,,,,
,,60e5e98326d94f93738053c5,2024-02-19_02h10.59.230,kallum_motion_pilot,2023.2.2,Win32,142.8571429,60e5e98326d94f93738053c5,65d2b6c8f2eece985d8e374c,65d2b8a950ceff515d57c5c4,0.018,0.018,0,84,84,48,1,onetwo,,,,,,,,,,,,,,,,,,,,,,,,,,,,,,,,,,,,,,,,,,,,,,,,,,,,,,,,,,,,,,,,,,,,,,,,,,,,,,,,,,,,,,,,,,,,,,,,,,,,,,,,,,,,,,,,,,,,,,,,,,,,,,,,,,,,,,,,,
,,60e5e98326d94f93738053c5,2024-02-19_02h10.59.230,kallum_motion_pilot,2023.2.2,Win32,142.8571429,60e5e98326d94f93738053c5,65d2b6c8f2eece985d8e374c,65d2b8a950ceff515d57c5c4,0.018,0.018,0,85,85,52,1,threeone,,,,,,,,,,,,,,,,,,,,,,,,,,,,,,,,,,,,,,,,,,,,,,,,,,,,,,,,,,,,,,,,,,,,,,,,,,,,,,,,,,,,,,,,,,,,,,,,,,,,,,,,,,,,,,,,,,,,,,,,,,,,,,,,,,,,,,,,,
,,60e5e98326d94f93738053c5,2024-02-19_02h10.59.230,kallum_motion_pilot,2023.2.2,Win32,142.8571429,60e5e98326d94f93738053c5,65d2b6c8f2eece985d8e374c,65d2b8a950ceff515d57c5c4,0.018,0.018,0,86,86,87,1,eightseven,,,,,,,,,,,,,,,,,,,,,,,,,,,,,,,,,,,,,,,,,,,,,,,,,,,,,,,,,,,,,,,,,,,,,,,,,,,,,,,,,,,,,,,,,,,,,,,,,,,,,,,,,,,,,,,,,,,,,,,,,,,,,,,,,,,,,,,,,
,,60e5e98326d94f93738053c5,2024-02-19_02h10.59.230,kallum_motion_pilot,2023.2.2,Win32,142.8571429,60e5e98326d94f93738053c5,65d2b6c8f2eece985d8e374c,65d2b8a950ceff515d57c5c4,0.018,0.018,0,87,87,60,1,threeone,,,,,,,,,,,,,,,,,,,,,,,,,,,,,,,,,,,,,,,,,,,,,,,,,,,,,,,,,,,,,,,,,,,,,,,,,,,,,,,,,,,,,,,,,,,,,,,,,,,,,,,,,,,,,,,,,,,,,,,,,,,,,,,,,,,,,,,,,
,,60e5e98326d94f93738053c5,2024-02-19_02h10.59.230,kallum_motion_pilot,2023.2.2,Win32,142.8571429,60e5e98326d94f93738053c5,65d2b6c8f2eece985d8e374c,65d2b8a950ceff515d57c5c4,0.018,0.018,0,88,88,68,1,threeone,,,,,,,,,,,,,,,,,,,,,,,,,,,,,,,,,,,,,,,,,,,,,,,,,,,,,,,,,,,,,,,,,,,,,,,,,,,,,,,,,,,,,,,,,,,,,,,,,,,,,,,,,,,,,,,,,,,,,,,,,,,,,,,,,,,,,,,,,
,,60e5e98326d94f93738053c5,2024-02-19_02h10.59.230,kallum_motion_pilot,2023.2.2,Win32,142.8571429,60e5e98326d94f93738053c5,65d2b6c8f2eece985d8e374c,65d2b8a950ceff515d57c5c4,0.018,0.018,0,89,89,160,1,fivesix,,,,,,,,,,,,,,,,,,,,,,,,,,,,,,,,,,,,,,,,,,,,,,,,,,,,,,,,,,,,,,,,,,,,,,,,,,,,,,,,,,,,,,,,,,,,,,,,,,,,,,,,,,,,,,,,,,,,,,,,,,,,,,,,,,,,,,,,,
,,60e5e98326d94f93738053c5,2024-02-19_02h10.59.230,kallum_motion_pilot,2023.2.2,Win32,142.8571429,60e5e98326d94f93738053c5,65d2b6c8f2eece985d8e374c,65d2b8a950ceff515d57c5c4,0.018,0.018,0,90,90,0,1,onetwo,,,,,,,,,,,,,,,,,,,,,,,,,,,,,,,,,,,,,,,,,,,,,,,,,,,,,,,,,,,,,,,,,,,,,,,,,,,,,,,,,,,,,,,,,,,,,,,,,,,,,,,,,,,,,,,,,,,,,,,,,,,,,,,,,,,,,,,,,
,,60e5e98326d94f93738053c5,2024-02-19_02h10.59.230,kallum_motion_pilot,2023.2.2,Win32,142.8571429,60e5e98326d94f93738053c5,65d2b6c8f2eece985d8e374c,65d2b8a950ceff515d57c5c4,0.018,0.018,0,91,91,3,1,twofour,,,,,,,,,,,,,,,,,,,,,,,,,,,,,,,,,,,,,,,,,,,,,,,,,,,,,,,,,,,,,,,,,,,,,,,,,,,,,,,,,,,,,,,,,,,,,,,,,,,,,,,,,,,,,,,,,,,,,,,,,,,,,,,,,,,,,,,,,
,,60e5e98326d94f93738053c5,2024-02-19_02h10.59.230,kallum_motion_pilot,2023.2.2,Win32,142.8571429,60e5e98326d94f93738053c5,65d2b6c8f2eece985d8e374c,65d2b8a950ceff515d57c5c4,0.018,0.018,0,92,92,133,1,seveneight,,,,,,,,,,,,,,,,,,,,,,,,,,,,,,,,,,,,,,,,,,,,,,,,,,,,,,,,,,,,,,,,,,,,,,,,,,,,,,,,,,,,,,,,,,,,,,,,,,,,,,,,,,,,,,,,,,,,,,,,,,,,,,,,,,,,,,,,,
,,60e5e98326d94f93738053c5,2024-02-19_02h10.59.230,kallum_motion_pilot,2023.2.2,Win32,142.8571429,60e5e98326d94f93738053c5,65d2b6c8f2eece985d8e374c,65d2b8a950ceff515d57c5c4,0.018,0.018,0,93,93,104,1,fivesix,,,,,,,,,,,,,,,,,,,,,,,,,,,,,,,,,,,,,,,,,,,,,,,,,,,,,,,,,,,,,,,,,,,,,,,,,,,,,,,,,,,,,,,,,,,,,,,,,,,,,,,,,,,,,,,,,,,,,,,,,,,,,,,,,,,,,,,,,
,,60e5e98326d94f93738053c5,2024-02-19_02h10.59.230,kallum_motion_pilot,2023.2.2,Win32,142.8571429,60e5e98326d94f93738053c5,65d2b6c8f2eece985d8e374c,65d2b8a950ceff515d57c5c4,0.019,0.019,0,94,94,105,1,fiveseven,,,,,,,,,,,,,,,,,,,,,,,,,,,,,,,,,,,,,,,,,,,,,,,,,,,,,,,,,,,,,,,,,,,,,,,,,,,,,,,,,,,,,,,,,,,,,,,,,,,,,,,,,,,,,,,,,,,,,,,,,,,,,,,,,,,,,,,,,
,,60e5e98326d94f93738053c5,2024-02-19_02h10.59.230,kallum_motion_pilot,2023.2.2,Win32,142.8571429,60e5e98326d94f93738053c5,65d2b6c8f2eece985d8e374c,65d2b8a950ceff515d57c5c4,0.019,0.019,0,95,95,126,1,eightsix,,,,,,,,,,,,,,,,,,,,,,,,,,,,,,,,,,,,,,,,,,,,,,,,,,,,,,,,,,,,,,,,,,,,,,,,,,,,,,,,,,,,,,,,,,,,,,,,,,,,,,,,,,,,,,,,,,,,,,,,,,,,,,,,,,,,,,,,,
,,60e5e98326d94f93738053c5,2024-02-19_02h10.59.230,kallum_motion_pilot,2023.2.2,Win32,142.8571429,60e5e98326d94f93738053c5,65d2b6c8f2eece985d8e374c,65d2b8a950ceff515d57c5c4,0.019,0.019,0,96,96,120,1,fivesix,,,,,,,,,,,,,,,,,,,,,,,,,,,,,,,,,,,,,,,,,,,,,,,,,,,,,,,,,,,,,,,,,,,,,,,,,,,,,,,,,,,,,,,,,,,,,,,,,,,,,,,,,,,,,,,,,,,,,,,,,,,,,,,,,,,,,,,,,
,,60e5e98326d94f93738053c5,2024-02-19_02h10.59.230,kallum_motion_pilot,2023.2.2,Win32,142.8571429,60e5e98326d94f93738053c5,65d2b6c8f2eece985d8e374c,65d2b8a950ceff515d57c5c4,0.019,0.019,0,97,97,143,1,eightseven,,,,,,,,,,,,,,,,,,,,,,,,,,,,,,,,,,,,,,,,,,,,,,,,,,,,,,,,,,,,,,,,,,,,,,,,,,,,,,,,,,,,,,,,,,,,,,,,,,,,,,,,,,,,,,,,,,,,,,,,,,,,,,,,,,,,,,,,,
,,60e5e98326d94f93738053c5,2024-02-19_02h10.59.230,kallum_motion_pilot,2023.2.2,Win32,142.8571429,60e5e98326d94f93738053c5,65d2b6c8f2eece985d8e374c,65d2b8a950ceff515d57c5c4,0.019,0.019,0,98,98,117,1,seveneight,,,,,,,,,,,,,,,,,,,,,,,,,,,,,,,,,,,,,,,,,,,,,,,,,,,,,,,,,,,,,,,,,,,,,,,,,,,,,,,,,,,,,,,,,,,,,,,,,,,,,,,,,,,,,,,,,,,,,,,,,,,,,,,,,,,,,,,,,
,,60e5e98326d94f93738053c5,2024-02-19_02h10.59.230,kallum_motion_pilot,2023.2.2,Win32,142.8571429,60e5e98326d94f93738053c5,65d2b6c8f2eece985d8e374c,65d2b8a950ceff515d57c5c4,0.019,0.019,0,99,99,94,1,eightsix,,,,,,,,,,,,,,,,,,,,,,,,,,,,,,,,,,,,,,,,,,,,,,,,,,,,,,,,,,,,,,,,,,,,,,,,,,,,,,,,,,,,,,,,,,,,,,,,,,,,,,,,,,,,,,,,,,,,,,,,,,,,,,,,,,,,,,,,,
,,60e5e98326d94f93738053c5,2024-02-19_02h10.59.230,kallum_motion_pilot,2023.2.2,Win32,142.8571429,60e5e98326d94f93738053c5,65d2b6c8f2eece985d8e374c,65d2b8a950ceff515d57c5c4,0.019,0.019,0,100,100,26,1,twoone,,,,,,,,,,,,,,,,,,,,,,,,,,,,,,,,,,,,,,,,,,,,,,,,,,,,,,,,,,,,,,,,,,,,,,,,,,,,,,,,,,,,,,,,,,,,,,,,,,,,,,,,,,,,,,,,,,,,,,,,,,,,,,,,,,,,,,,,,
,,60e5e98326d94f93738053c5,2024-02-19_02h10.59.230,kallum_motion_pilot,2023.2.2,Win32,142.8571429,60e5e98326d94f93738053c5,65d2b6c8f2eece985d8e374c,65d2b8a950ceff515d57c5c4,0.019,0.019,0,101,101,21,1,threefour,,,,,,,,,,,,,,,,,,,,,,,,,,,,,,,,,,,,,,,,,,,,,,,,,,,,,,,,,,,,,,,,,,,,,,,,,,,,,,,,,,,,,,,,,,,,,,,,,,,,,,,,,,,,,,,,,,,,,,,,,,,,,,,,,,,,,,,,,
,,60e5e98326d94f93738053c5,2024-02-19_02h10.59.230,kallum_motion_pilot,2023.2.2,Win32,142.8571429,60e5e98326d94f93738053c5,65d2b6c8f2eece985d8e374c,65d2b8a950ceff515d57c5c4,0.019,0.019,0,102,102,161,1,fiveseven,,,,,,,,,,,,,,,,,,,,,,,,,,,,,,,,,,,,,,,,,,,,,,,,,,,,,,,,,,,,,,,,,,,,,,,,,,,,,,,,,,,,,,,,,,,,,,,,,,,,,,,,,,,,,,,,,,,,,,,,,,,,,,,,,,,,,,,,,
,,60e5e98326d94f93738053c5,2024-02-19_02h10.59.230,kallum_motion_pilot,2023.2.2,Win32,142.8571429,60e5e98326d94f93738053c5,65d2b6c8f2eece985d8e374c,65d2b8a950ceff515d57c5c4,0.019,0.019,0,103,103,37,1,threefour,,,,,,,,,,,,,,,,,,,,,,,,,,,,,,,,,,,,,,,,,,,,,,,,,,,,,,,,,,,,,,,,,,,,,,,,,,,,,,,,,,,,,,,,,,,,,,,,,,,,,,,,,,,,,,,,,,,,,,,,,,,,,,,,,,,,,,,,,
,,60e5e98326d94f93738053c5,2024-02-19_02h10.59.230,kallum_motion_pilot,2023.2.2,Win32,142.8571429,60e5e98326d94f93738053c5,65d2b6c8f2eece985d8e374c,65d2b8a950ceff515d57c5c4,0.019,0.019,0,104,104,5,1,threefour,,,,,,,,,,,,,,,,,,,,,,,,,,,,,,,,,,,,,,,,,,,,,,,,,,,,,,,,,,,,,,,,,,,,,,,,,,,,,,,,,,,,,,,,,,,,,,,,,,,,,,,,,,,,,,,,,,,,,,,,,,,,,,,,,,,,,,,,,
,,60e5e98326d94f93738053c5,2024-02-19_02h10.59.230,kallum_motion_pilot,2023.2.2,Win32,142.8571429,60e5e98326d94f93738053c5,65d2b6c8f2eece985d8e374c,65d2b8a950ceff515d57c5c4,0.019,0.019,0,105,105,148,1,sevenfive,,,,,,,,,,,,,,,,,,,,,,,,,,,,,,,,,,,,,,,,,,,,,,,,,,,,,,,,,,,,,,,,,,,,,,,,,,,,,,,,,,,,,,,,,,,,,,,,,,,,,,,,,,,,,,,,,,,,,,,,,,,,,,,,,,,,,,,,,
,,60e5e98326d94f93738053c5,2024-02-19_02h10.59.230,kallum_motion_pilot,2023.2.2,Win32,142.8571429,60e5e98326d94f93738053c5,65d2b6c8f2eece985d8e374c,65d2b8a950ceff515d57c5c4,0.019,0.019,0,106,106,129,1,fiveseven,,,,,,,,,,,,,,,,,,,,,,,,,,,,,,,,,,,,,,,,,,,,,,,,,,,,,,,,,,,,,,,,,,,,,,,,,,,,,,,,,,,,,,,,,,,,,,,,,,,,,,,,,,,,,,,,,,,,,,,,,,,,,,,,,,,,,,,,,
,,60e5e98326d94f93738053c5,2024-02-19_02h10.59.230,kallum_motion_pilot,2023.2.2,Win32,142.8571429,60e5e98326d94f93738053c5,65d2b6c8f2eece985d8e374c,65d2b8a950ceff515d57c5c4,0.019,0.02,0,107,107,109,1,seveneight,,,,,,,,,,,,,,,,,,,,,,,,,,,,,,,,,,,,,,,,,,,,,,,,,,,,,,,,,,,,,,,,,,,,,,,,,,,,,,,,,,,,,,,,,,,,,,,,,,,,,,,,,,,,,,,,,,,,,,,,,,,,,,,,,,,,,,,,,
,,60e5e98326d94f93738053c5,2024-02-19_02h10.59.230,kallum_motion_pilot,2023.2.2,Win32,142.8571429,60e5e98326d94f93738053c5,65d2b6c8f2eece985d8e374c,65d2b8a950ceff515d57c5c4,0.02,0.02,0,108,108,118,1,eightsix,,,,,,,,,,,,,,,,,,,,,,,,,,,,,,,,,,,,,,,,,,,,,,,,,,,,,,,,,,,,,,,,,,,,,,,,,,,,,,,,,,,,,,,,,,,,,,,,,,,,,,,,,,,,,,,,,,,,,,,,,,,,,,,,,,,,,,,,,
,,60e5e98326d94f93738053c5,2024-02-19_02h10.59.230,kallum_motion_pilot,2023.2.2,Win32,142.8571429,60e5e98326d94f93738053c5,65d2b6c8f2eece985d8e374c,65d2b8a950ceff515d57c5c4,0.02,0.02,0,109,109,113,1,fiveseven,,,,,,,,,,,,,,,,,,,,,,,,,,,,,,,,,,,,,,,,,,,,,,,,,,,,,,,,,,,,,,,,,,,,,,,,,,,,,,,,,,,,,,,,,,,,,,,,,,,,,,,,,,,,,,,,,,,,,,,,,,,,,,,,,,,,,,,,,
,,60e5e98326d94f93738053c5,2024-02-19_02h10.59.230,kallum_motion_pilot,2023.2.2,Win32,142.8571429,60e5e98326d94f93738053c5,65d2b6c8f2eece985d8e374c,65d2b8a950ceff515d57c5c4,0.02,0.02,0,110,110,96,1,fivesix,,,,,,,,,,,,,,,,,,,,,,,,,,,,,,,,,,,,,,,,,,,,,,,,,,,,,,,,,,,,,,,,,,,,,,,,,,,,,,,,,,,,,,,,,,,,,,,,,,,,,,,,,,,,,,,,,,,,,,,,,,,,,,,,,,,,,,,,,
,,60e5e98326d94f93738053c5,2024-02-19_02h10.59.230,kallum_motion_pilot,2023.2.2,Win32,142.8571429,60e5e98326d94f93738053c5,65d2b6c8f2eece985d8e374c,65d2b8a950ceff515d57c5c4,0.02,0.02,0,111,111,128,1,fivesix,,,,,,,,,,,,,,,,,,,,,,,,,,,,,,,,,,,,,,,,,,,,,,,,,,,,,,,,,,,,,,,,,,,,,,,,,,,,,,,,,,,,,,,,,,,,,,,,,,,,,,,,,,,,,,,,,,,,,,,,,,,,,,,,,,,,,,,,,
,,60e5e98326d94f93738053c5,2024-02-19_02h10.59.230,kallum_motion_pilot,2023.2.2,Win32,142.8571429,60e5e98326d94f93738053c5,65d2b6c8f2eece985d8e374c,65d2b8a950ceff515d57c5c4,0.02,0.02,0,112,112,127,1,eightseven,,,,,,,,,,,,,,,,,,,,,,,,,,,,,,,,,,,,,,,,,,,,,,,,,,,,,,,,,,,,,,,,,,,,,,,,,,,,,,,,,,,,,,,,,,,,,,,,,,,,,,,,,,,,,,,,,,,,,,,,,,,,,,,,,,,,,,,,,
,,60e5e98326d94f93738053c5,2024-02-19_02h10.59.230,kallum_motion_pilot,2023.2.2,Win32,142.8571429,60e5e98326d94f93738053c5,65d2b6c8f2eece985d8e374c,65d2b8a950ceff515d57c5c4,0.02,0.02,0,113,113,27,1,twofour,,,,,,,,,,,,,,,,,,,,,,,,,,,,,,,,,,,,,,,,,,,,,,,,,,,,,,,,,,,,,,,,,,,,,,,,,,,,,,,,,,,,,,,,,,,,,,,,,,,,,,,,,,,,,,,,,,,,,,,,,,,,,,,,,,,,,,,,,
,,60e5e98326d94f93738053c5,2024-02-19_02h10.59.230,kallum_motion_pilot,2023.2.2,Win32,142.8571429,60e5e98326d94f93738053c5,65d2b6c8f2eece985d8e374c,65d2b8a950ceff515d57c5c4,0.02,0.02,0,114,114,141,1,seveneight,,,,,,,,,,,,,,,,,,,,,,,,,,,,,,,,,,,,,,,,,,,,,,,,,,,,,,,,,,,,,,,,,,,,,,,,,,,,,,,,,,,,,,,,,,,,,,,,,,,,,,,,,,,,,,,,,,,,,,,,,,,,,,,,,,,,,,,,,
,,60e5e98326d94f93738053c5,2024-02-19_02h10.59.230,kallum_motion_pilot,2023.2.2,Win32,142.8571429,60e5e98326d94f93738053c5,65d2b6c8f2eece985d8e374c,65d2b8a950ceff515d57c5c4,0.02,0.02,0,115,115,85,1,seveneight,,,,,,,,,,,,,,,,,,,,,,,,,,,,,,,,,,,,,,,,,,,,,,,,,,,,,,,,,,,,,,,,,,,,,,,,,,,,,,,,,,,,,,,,,,,,,,,,,,,,,,,,,,,,,,,,,,,,,,,,,,,,,,,,,,,,,,,,,
,,60e5e98326d94f93738053c5,2024-02-19_02h10.59.230,kallum_motion_pilot,2023.2.2,Win32,142.8571429,60e5e98326d94f93738053c5,65d2b6c8f2eece985d8e374c,65d2b8a950ceff515d57c5c4,0.02,0.02,0,116,116,2,1,twoone,,,,,,,,,,,,,,,,,,,,,,,,,,,,,,,,,,,,,,,,,,,,,,,,,,,,,,,,,,,,,,,,,,,,,,,,,,,,,,,,,,,,,,,,,,,,,,,,,,,,,,,,,,,,,,,,,,,,,,,,,,,,,,,,,,,,,,,,,
,,60e5e98326d94f93738053c5,2024-02-19_02h10.59.230,kallum_motion_pilot,2023.2.2,Win32,142.8571429,60e5e98326d94f93738053c5,65d2b6c8f2eece985d8e374c,65d2b8a950ceff515d57c5c4,0.02,0.02,0,117,117,124,1,sevenfive,,,,,,,,,,,,,,,,,,,,,,,,,,,,,,,,,,,,,,,,,,,,,,,,,,,,,,,,,,,,,,,,,,,,,,,,,,,,,,,,,,,,,,,,,,,,,,,,,,,,,,,,,,,,,,,,,,,,,,,,,,,,,,,,,,,,,,,,,
,,60e5e98326d94f93738053c5,2024-02-19_02h10.59.230,kallum_motion_pilot,2023.2.2,Win32,142.8571429,60e5e98326d94f93738053c5,65d2b6c8f2eece985d8e374c,65d2b8a950ceff515d57c5c4,0.02,0.02,0,118,118,59,1,twofour,,,,,,,,,,,,,,,,,,,,,,,,,,,,,,,,,,,,,,,,,,,,,,,,,,,,,,,,,,,,,,,,,,,,,,,,,,,,,,,,,,,,,,,,,,,,,,,,,,,,,,,,,,,,,,,,,,,,,,,,,,,,,,,,,,,,,,,,,
,,60e5e98326d94f93738053c5,2024-02-19_02h10.59.230,kallum_motion_pilot,2023.2.2,Win32,142.8571429,60e5e98326d94f93738053c5,65d2b6c8f2eece985d8e374c,65d2b8a950ceff515d57c5c4,0.02,0.02,0,119,119,142,1,eightsix,,,,,,,,,,,,,,,,,,,,,,,,,,,,,,,,,,,,,,,,,,,,,,,,,,,,,,,,,,,,,,,,,,,,,,,,,,,,,,,,,,,,,,,,,,,,,,,,,,,,,,,,,,,,,,,,,,,,,,,,,,,,,,,,,,,,,,,,,
,,60e5e98326d94f93738053c5,2024-02-19_02h10.59.230,kallum_motion_pilot,2023.2.2,Win32,142.8571429,60e5e98326d94f93738053c5,65d2b6c8f2eece985d8e374c,65d2b8a950ceff515d57c5c4,0.02,0.02,0,120,120,70,1,fourtwo,,,,,,,,,,,,,,,,,,,,,,,,,,,,,,,,,,,,,,,,,,,,,,,,,,,,,,,,,,,,,,,,,,,,,,,,,,,,,,,,,,,,,,,,,,,,,,,,,,,,,,,,,,,,,,,,,,,,,,,,,,,,,,,,,,,,,,,,,
,,60e5e98326d94f93738053c5,2024-02-19_02h10.59.230,kallum_motion_pilot,2023.2.2,Win32,142.8571429,60e5e98326d94f93738053c5,65d2b6c8f2eece985d8e374c,65d2b8a950ceff515d57c5c4,0.02,0.02,0,121,121,42,1,twoone,,,,,,,,,,,,,,,,,,,,,,,,,,,,,,,,,,,,,,,,,,,,,,,,,,,,,,,,,,,,,,,,,,,,,,,,,,,,,,,,,,,,,,,,,,,,,,,,,,,,,,,,,,,,,,,,,,,,,,,,,,,,,,,,,,,,,,,,,
,,60e5e98326d94f93738053c5,2024-02-19_02h10.59.230,kallum_motion_pilot,2023.2.2,Win32,142.8571429,60e5e98326d94f93738053c5,65d2b6c8f2eece985d8e374c,65d2b8a950ceff515d57c5c4,0.02,0.02,0,122,122,150,1,eightsix,,,,,,,,,,,,,,,,,,,,,,,,,,,,,,,,,,,,,,,,,,,,,,,,,,,,,,,,,,,,,,,,,,,,,,,,,,,,,,,,,,,,,,,,,,,,,,,,,,,,,,,,,,,,,,,,,,,,,,,,,,,,,,,,,,,,,,,,,
,,60e5e98326d94f93738053c5,2024-02-19_02h10.59.230,kallum_motion_pilot,2023.2.2,Win32,142.8571429,60e5e98326d94f93738053c5,65d2b6c8f2eece985d8e374c,65d2b8a950ceff515d57c5c4,0.02,0.02,0,123,123,61,1,threefour,,,,,,,,,,,,,,,,,,,,,,,,,,,,,,,,,,,,,,,,,,,,,,,,,,,,,,,,,,,,,,,,,,,,,,,,,,,,,,,,,,,,,,,,,,,,,,,,,,,,,,,,,,,,,,,,,,,,,,,,,,,,,,,,,,,,,,,,,
,,60e5e98326d94f93738053c5,2024-02-19_02h10.59.230,kallum_motion_pilot,2023.2.2,Win32,142.8571429,60e5e98326d94f93738053c5,65d2b6c8f2eece985d8e374c,65d2b8a950ceff515d57c5c4,0.02,0.02,0,124,124,74,1,twoone,,,,,,,,,,,,,,,,,,,,,,,,,,,,,,,,,,,,,,,,,,,,,,,,,,,,,,,,,,,,,,,,,,,,,,,,,,,,,,,,,,,,,,,,,,,,,,,,,,,,,,,,,,,,,,,,,,,,,,,,,,,,,,,,,,,,,,,,,
,,60e5e98326d94f93738053c5,2024-02-19_02h10.59.230,kallum_motion_pilot,2023.2.2,Win32,142.8571429,60e5e98326d94f93738053c5,65d2b6c8f2eece985d8e374c,65d2b8a950ceff515d57c5c4,0.02,0.02,0,125,125,114,1,sixfive,,,,,,,,,,,,,,,,,,,,,,,,,,,,,,,,,,,,,,,,,,,,,,,,,,,,,,,,,,,,,,,,,,,,,,,,,,,,,,,,,,,,,,,,,,,,,,,,,,,,,,,,,,,,,,,,,,,,,,,,,,,,,,,,,,,,,,,,,
,,60e5e98326d94f93738053c5,2024-02-19_02h10.59.230,kallum_motion_pilot,2023.2.2,Win32,142.8571429,60e5e98326d94f93738053c5,65d2b6c8f2eece985d8e374c,65d2b8a950ceff515d57c5c4,0.02,0.02,0,126,126,130,1,sixfive,,,,,,,,,,,,,,,,,,,,,,,,,,,,,,,,,,,,,,,,,,,,,,,,,,,,,,,,,,,,,,,,,,,,,,,,,,,,,,,,,,,,,,,,,,,,,,,,,,,,,,,,,,,,,,,,,,,,,,,,,,,,,,,,,,,,,,,,,
,,60e5e98326d94f93738053c5,2024-02-19_02h10.59.230,kallum_motion_pilot,2023.2.2,Win32,142.8571429,60e5e98326d94f93738053c5,65d2b6c8f2eece985d8e374c,65d2b8a950ceff515d57c5c4,0.02,0.02,0,127,127,136,1,fivesix,,,,,,,,,,,,,,,,,,,,,,,,,,,,,,,,,,,,,,,,,,,,,,,,,,,,,,,,,,,,,,,,,,,,,,,,,,,,,,,,,,,,,,,,,,,,,,,,,,,,,,,,,,,,,,,,,,,,,,,,,,,,,,,,,,,,,,,,,
,,60e5e98326d94f93738053c5,2024-02-19_02h10.59.230,kallum_motion_pilot,2023.2.2,Win32,142.8571429,60e5e98326d94f93738053c5,65d2b6c8f2eece985d8e374c,65d2b8a950ceff515d57c5c4,0.021,0.021,0,128,128,81,1,fiveseven,,,,,,,,,,,,,,,,,,,,,,,,,,,,,,,,,,,,,,,,,,,,,,,,,,,,,,,,,,,,,,,,,,,,,,,,,,,,,,,,,,,,,,,,,,,,,,,,,,,,,,,,,,,,,,,,,,,,,,,,,,,,,,,,,,,,,,,,,
,,60e5e98326d94f93738053c5,2024-02-19_02h10.59.230,kallum_motion_pilot,2023.2.2,Win32,142.8571429,60e5e98326d94f93738053c5,65d2b6c8f2eece985d8e374c,65d2b8a950ceff515d57c5c4,0.021,0.021,0,129,129,19,1,twofour,,,,,,,,,,,,,,,,,,,,,,,,,,,,,,,,,,,,,,,,,,,,,,,,,,,,,,,,,,,,,,,,,,,,,,,,,,,,,,,,,,,,,,,,,,,,,,,,,,,,,,,,,,,,,,,,,,,,,,,,,,,,,,,,,,,,,,,,,
,,60e5e98326d94f93738053c5,2024-02-19_02h10.59.230,kallum_motion_pilot,2023.2.2,Win32,142.8571429,60e5e98326d94f93738053c5,65d2b6c8f2eece985d8e374c,65d2b8a950ceff515d57c5c4,0.021,0.021,0,130,130,51,1,twofour,,,,,,,,,,,,,,,,,,,,,,,,,,,,,,,,,,,,,,,,,,,,,,,,,,,,,,,,,,,,,,,,,,,,,,,,,,,,,,,,,,,,,,,,,,,,,,,,,,,,,,,,,,,,,,,,,,,,,,,,,,,,,,,,,,,,,,,,,
,,60e5e98326d94f93738053c5,2024-02-19_02h10.59.230,kallum_motion_pilot,2023.2.2,Win32,142.8571429,60e5e98326d94f93738053c5,65d2b6c8f2eece985d8e374c,65d2b8a950ceff515d57c5c4,0.021,0.021,0,131,131,24,1,onetwo,,,,,,,,,,,,,,,,,,,,,,,,,,,,,,,,,,,,,,,,,,,,,,,,,,,,,,,,,,,,,,,,,,,,,,,,,,,,,,,,,,,,,,,,,,,,,,,,,,,,,,,,,,,,,,,,,,,,,,,,,,,,,,,,,,,,,,,,,
,,60e5e98326d94f93738053c5,2024-02-19_02h10.59.230,kallum_motion_pilot,2023.2.2,Win32,142.8571429,60e5e98326d94f93738053c5,65d2b6c8f2eece985d8e374c,65d2b8a950ceff515d57c5c4,0.021,0.021,0,132,132,31,1,fourthree,,,,,,,,,,,,,,,,,,,,,,,,,,,,,,,,,,,,,,,,,,,,,,,,,,,,,,,,,,,,,,,,,,,,,,,,,,,,,,,,,,,,,,,,,,,,,,,,,,,,,,,,,,,,,,,,,,,,,,,,,,,,,,,,,,,,,,,,,
,,60e5e98326d94f93738053c5,2024-02-19_02h10.59.230,kallum_motion_pilot,2023.2.2,Win32,142.8571429,60e5e98326d94f93738053c5,65d2b6c8f2eece985d8e374c,65d2b8a950ceff515d57c5c4,0.021,0.021,0,133,133,40,1,onetwo,,,,,,,,,,,,,,,,,,,,,,,,,,,,,,,,,,,,,,,,,,,,,,,,,,,,,,,,,,,,,,,,,,,,,,,,,,,,,,,,,,,,,,,,,,,,,,,,,,,,,,,,,,,,,,,,,,,,,,,,,,,,,,,,,,,,,,,,,
,,60e5e98326d94f93738053c5,2024-02-19_02h10.59.230,kallum_motion_pilot,2023.2.2,Win32,142.8571429,60e5e98326d94f93738053c5,65d2b6c8f2eece985d8e374c,65d2b8a950ceff515d57c5c4,0.021,0.021,0,134,134,22,1,fourtwo,,,,,,,,,,,,,,,,,,,,,,,,,,,,,,,,,,,,,,,,,,,,,,,,,,,,,,,,,,,,,,,,,,,,,,,,,,,,,,,,,,,,,,,,,,,,,,,,,,,,,,,,,,,,,,,,,,,,,,,,,,,,,,,,,,,,,,,,,
,,60e5e98326d94f93738053c5,2024-02-19_02h10.59.230,kallum_motion_pilot,2023.2.2,Win32,142.8571429,60e5e98326d94f93738053c5,65d2b6c8f2eece985d8e374c,65d2b8a950ceff515d57c5c4,0.021,0.021,0,135,135,10,1,twoone,,,,,,,,,,,,,,,,,,,,,,,,,,,,,,,,,,,,,,,,,,,,,,,,,,,,,,,,,,,,,,,,,,,,,,,,,,,,,,,,,,,,,,,,,,,,,,,,,,,,,,,,,,,,,,,,,,,,,,,,,,,,,,,,,,,,,,,,,
,,60e5e98326d94f93738053c5,2024-02-19_02h10.59.230,kallum_motion_pilot,2023.2.2,Win32,142.8571429,60e5e98326d94f93738053c5,65d2b6c8f2eece985d8e374c,65d2b8a950ceff515d57c5c4,0.021,0.021,0,136,136,62,1,fourtwo,,,,,,,,,,,,,,,,,,,,,,,,,,,,,,,,,,,,,,,,,,,,,,,,,,,,,,,,,,,,,,,,,,,,,,,,,,,,,,,,,,,,,,,,,,,,,,,,,,,,,,,,,,,,,,,,,,,,,,,,,,,,,,,,,,,,,,,,,
,,60e5e98326d94f93738053c5,2024-02-19_02h10.59.230,kallum_motion_pilot,2023.2.2,Win32,142.8571429,60e5e98326d94f93738053c5,65d2b6c8f2eece985d8e374c,65d2b8a950ceff515d57c5c4,0.021,0.021,0,137,137,145,1,fiveseven,,,,,,,,,,,,,,,,,,,,,,,,,,,,,,,,,,,,,,,,,,,,,,,,,,,,,,,,,,,,,,,,,,,,,,,,,,,,,,,,,,,,,,,,,,,,,,,,,,,,,,,,,,,,,,,,,,,,,,,,,,,,,,,,,,,,,,,,,
,,60e5e98326d94f93738053c5,2024-02-19_02h10.59.230,kallum_motion_pilot,2023.2.2,Win32,142.8571429,60e5e98326d94f93738053c5,65d2b6c8f2eece985d8e374c,65d2b8a950ceff515d57c5c4,0.021,0.021,0,138,138,121,1,fiveseven,,,,,,,,,,,,,,,,,,,,,,,,,,,,,,,,,,,,,,,,,,,,,,,,,,,,,,,,,,,,,,,,,,,,,,,,,,,,,,,,,,,,,,,,,,,,,,,,,,,,,,,,,,,,,,,,,,,,,,,,,,,,,,,,,,,,,,,,,
,,60e5e98326d94f93738053c5,2024-02-19_02h10.59.230,kallum_motion_pilot,2023.2.2,Win32,142.8571429,60e5e98326d94f93738053c5,65d2b6c8f2eece985d8e374c,65d2b8a950ceff515d57c5c4,0.021,0.021,0,139,139,56,1,onetwo,,,,,,,,,,,,,,,,,,,,,,,,,,,,,,,,,,,,,,,,,,,,,,,,,,,,,,,,,,,,,,,,,,,,,,,,,,,,,,,,,,,,,,,,,,,,,,,,,,,,,,,,,,,,,,,,,,,,,,,,,,,,,,,,,,,,,,,,,
,,60e5e98326d94f93738053c5,2024-02-19_02h10.59.230,kallum_motion_pilot,2023.2.2,Win32,142.8571429,60e5e98326d94f93738053c5,65d2b6c8f2eece985d8e374c,65d2b8a950ceff515d57c5c4,0.021,0.021,0,140,140,75,1,twofour,,,,,,,,,,,,,,,,,,,,,,,,,,,,,,,,,,,,,,,,,,,,,,,,,,,,,,,,,,,,,,,,,,,,,,,,,,,,,,,,,,,,,,,,,,,,,,,,,,,,,,,,,,,,,,,,,,,,,,,,,,,,,,,,,,,,,,,,,
,,60e5e98326d94f93738053c5,2024-02-19_02h10.59.230,kallum_motion_pilot,2023.2.2,Win32,142.8571429,60e5e98326d94f93738053c5,65d2b6c8f2eece985d8e374c,65d2b8a950ceff515d57c5c4,0.021,0.021,0,141,141,45,1,threefour,,,,,,,,,,,,,,,,,,,,,,,,,,,,,,,,,,,,,,,,,,,,,,,,,,,,,,,,,,,,,,,,,,,,,,,,,,,,,,,,,,,,,,,,,,,,,,,,,,,,,,,,,,,,,,,,,,,,,,,,,,,,,,,,,,,,,,,,,
,,60e5e98326d94f93738053c5,2024-02-19_02h10.59.230,kallum_motion_pilot,2023.2.2,Win32,142.8571429,60e5e98326d94f93738053c5,65d2b6c8f2eece985d8e374c,65d2b8a950ceff515d57c5c4,0.021,0.021,0,142,142,155,1,sixeight,,,,,,,,,,,,,,,,,,,,,,,,,,,,,,,,,,,,,,,,,,,,,,,,,,,,,,,,,,,,,,,,,,,,,,,,,,,,,,,,,,,,,,,,,,,,,,,,,,,,,,,,,,,,,,,,,,,,,,,,,,,,,,,,,,,,,,,,,
,,60e5e98326d94f93738053c5,2024-02-19_02h10.59.230,kallum_motion_pilot,2023.2.2,Win32,142.8571429,60e5e98326d94f93738053c5,65d2b6c8f2eece985d8e374c,65d2b8a950ceff515d57c5c4,0.021,0.021,0,143,143,4,1,threeone,,,,,,,,,,,,,,,,,,,,,,,,,,,,,,,,,,,,,,,,,,,,,,,,,,,,,,,,,,,,,,,,,,,,,,,,,,,,,,,,,,,,,,,,,,,,,,,,,,,,,,,,,,,,,,,,,,,,,,,,,,,,,,,,,,,,,,,,,
,,60e5e98326d94f93738053c5,2024-02-19_02h10.59.230,kallum_motion_pilot,2023.2.2,Win32,142.8571429,60e5e98326d94f93738053c5,65d2b6c8f2eece985d8e374c,65d2b8a950ceff515d57c5c4,0.021,0.021,0,144,144,135,1,eightseven,,,,,,,,,,,,,,,,,,,,,,,,,,,,,,,,,,,,,,,,,,,,,,,,,,,,,,,,,,,,,,,,,,,,,,,,,,,,,,,,,,,,,,,,,,,,,,,,,,,,,,,,,,,,,,,,,,,,,,,,,,,,,,,,,,,,,,,,,
,,60e5e98326d94f93738053c5,2024-02-19_02h10.59.230,kallum_motion_pilot,2023.2.2,Win32,142.8571429,60e5e98326d94f93738053c5,65d2b6c8f2eece985d8e374c,65d2b8a950ceff515d57c5c4,0.021,0.021,0,145,145,50,1,twoone,,,,,,,,,,,,,,,,,,,,,,,,,,,,,,,,,,,,,,,,,,,,,,,,,,,,,,,,,,,,,,,,,,,,,,,,,,,,,,,,,,,,,,,,,,,,,,,,,,,,,,,,,,,,,,,,,,,,,,,,,,,,,,,,,,,,,,,,,
,,60e5e98326d94f93738053c5,2024-02-19_02h10.59.230,kallum_motion_pilot,2023.2.2,Win32,142.8571429,60e5e98326d94f93738053c5,65d2b6c8f2eece985d8e374c,65d2b8a950ceff515d57c5c4,0.021,0.022,0,146,146,79,1,eightseven,,,,,,,,,,,,,,,,,,,,,,,,,,,,,,,,,,,,,,,,,,,,,,,,,,,,,,,,,,,,,,,,,,,,,,,,,,,,,,,,,,,,,,,,,,,,,,,,,,,,,,,,,,,,,,,,,,,,,,,,,,,,,,,,,,,,,,,,,
,,60e5e98326d94f93738053c5,2024-02-19_02h10.59.230,kallum_motion_pilot,2023.2.2,Win32,142.8571429,60e5e98326d94f93738053c5,65d2b6c8f2eece985d8e374c,65d2b8a950ceff515d57c5c4,0.022,0.022,0,147,147,140,1,sevenfive,,,,,,,,,,,,,,,,,,,,,,,,,,,,,,,,,,,,,,,,,,,,,,,,,,,,,,,,,,,,,,,,,,,,,,,,,,,,,,,,,,,,,,,,,,,,,,,,,,,,,,,,,,,,,,,,,,,,,,,,,,,,,,,,,,,,,,,,,
,,60e5e98326d94f93738053c5,2024-02-19_02h10.59.230,kallum_motion_pilot,2023.2.2,Win32,142.8571429,60e5e98326d94f93738053c5,65d2b6c8f2eece985d8e374c,65d2b8a950ceff515d57c5c4,0.022,0.022,0,148,148,112,1,fivesix,,,,,,,,,,,,,,,,,,,,,,,,,,,,,,,,,,,,,,,,,,,,,,,,,,,,,,,,,,,,,,,,,,,,,,,,,,,,,,,,,,,,,,,,,,,,,,,,,,,,,,,,,,,,,,,,,,,,,,,,,,,,,,,,,,,,,,,,,
,,60e5e98326d94f93738053c5,2024-02-19_02h10.59.230,kallum_motion_pilot,2023.2.2,Win32,142.8571429,60e5e98326d94f93738053c5,65d2b6c8f2eece985d8e374c,65d2b8a950ceff515d57c5c4,0.022,0.022,0,149,149,57,1,onethree,,,,,,,,,,,,,,,,,,,,,,,,,,,,,,,,,,,,,,,,,,,,,,,,,,,,,,,,,,,,,,,,,,,,,,,,,,,,,,,,,,,,,,,,,,,,,,,,,,,,,,,,,,,,,,,,,,,,,,,,,,,,,,,,,,,,,,,,,
,,60e5e98326d94f93738053c5,2024-02-19_02h10.59.230,kallum_motion_pilot,2023.2.2,Win32,142.8571429,60e5e98326d94f93738053c5,65d2b6c8f2eece985d8e374c,65d2b8a950ceff515d57c5c4,0.022,0.022,0,150,150,116,1,sevenfive,,,,,,,,,,,,,,,,,,,,,,,,,,,,,,,,,,,,,,,,,,,,,,,,,,,,,,,,,,,,,,,,,,,,,,,,,,,,,,,,,,,,,,,,,,,,,,,,,,,,,,,,,,,,,,,,,,,,,,,,,,,,,,,,,,,,,,,,,
,,60e5e98326d94f93738053c5,2024-02-19_02h10.59.230,kallum_motion_pilot,2023.2.2,Win32,142.8571429,60e5e98326d94f93738053c5,65d2b6c8f2eece985d8e374c,65d2b8a950ceff515d57c5c4,0.022,0.022,0,151,151,101,1,seveneight,,,,,,,,,,,,,,,,,,,,,,,,,,,,,,,,,,,,,,,,,,,,,,,,,,,,,,,,,,,,,,,,,,,,,,,,,,,,,,,,,,,,,,,,,,,,,,,,,,,,,,,,,,,,,,,,,,,,,,,,,,,,,,,,,,,,,,,,,
,,60e5e98326d94f93738053c5,2024-02-19_02h10.59.230,kallum_motion_pilot,2023.2.2,Win32,142.8571429,60e5e98326d94f93738053c5,65d2b6c8f2eece985d8e374c,65d2b8a950ceff515d57c5c4,0.022,0.023,0,152,152,16,1,onetwo,,,,,,,,,,,,,,,,,,,,,,,,,,,,,,,,,,,,,,,,,,,,,,,,,,,,,,,,,,,,,,,,,,,,,,,,,,,,,,,,,,,,,,,,,,,,,,,,,,,,,,,,,,,,,,,,,,,,,,,,,,,,,,,,,,,,,,,,,
,,60e5e98326d94f93738053c5,2024-02-19_02h10.59.230,kallum_motion_pilot,2023.2.2,Win32,142.8571429,60e5e98326d94f93738053c5,65d2b6c8f2eece985d8e374c,65d2b8a950ceff515d57c5c4,0.023,0.023,0,153,153,132,1,sevenfive,,,,,,,,,,,,,,,,,,,,,,,,,,,,,,,,,,,,,,,,,,,,,,,,,,,,,,,,,,,,,,,,,,,,,,,,,,,,,,,,,,,,,,,,,,,,,,,,,,,,,,,,,,,,,,,,,,,,,,,,,,,,,,,,,,,,,,,,,
,,60e5e98326d94f93738053c5,2024-02-19_02h10.59.230,kallum_motion_pilot,2023.2.2,Win32,142.8571429,60e5e98326d94f93738053c5,65d2b6c8f2eece985d8e374c,65d2b8a950ceff515d57c5c4,0.023,0.023,0,154,154,30,1,fourtwo,,,,,,,,,,,,,,,,,,,,,,,,,,,,,,,,,,,,,,,,,,,,,,,,,,,,,,,,,,,,,,,,,,,,,,,,,,,,,,,,,,,,,,,,,,,,,,,,,,,,,,,,,,,,,,,,,,,,,,,,,,,,,,,,,,,,,,,,,
,,60e5e98326d94f93738053c5,2024-02-19_02h10.59.230,kallum_motion_pilot,2023.2.2,Win32,142.8571429,60e5e98326d94f93738053c5,65d2b6c8f2eece985d8e374c,65d2b8a950ceff515d57c5c4,0.023,0.023,0,155,155,89,1,fiveseven,,,,,,,,,,,,,,,,,,,,,,,,,,,,,,,,,,,,,,,,,,,,,,,,,,,,,,,,,,,,,,,,,,,,,,,,,,,,,,,,,,,,,,,,,,,,,,,,,,,,,,,,,,,,,,,,,,,,,,,,,,,,,,,,,,,,,,,,,
,,60e5e98326d94f93738053c5,2024-02-19_02h10.59.230,kallum_motion_pilot,2023.2.2,Win32,142.8571429,60e5e98326d94f93738053c5,65d2b6c8f2eece985d8e374c,65d2b8a950ceff515d57c5c4,0.023,0.023,0,156,156,152,1,fivesix,,,,,,,,,,,,,,,,,,,,,,,,,,,,,,,,,,,,,,,,,,,,,,,,,,,,,,,,,,,,,,,,,,,,,,,,,,,,,,,,,,,,,,,,,,,,,,,,,,,,,,,,,,,,,,,,,,,,,,,,,,,,,,,,,,,,,,,,,
,,60e5e98326d94f93738053c5,2024-02-19_02h10.59.230,kallum_motion_pilot,2023.2.2,Win32,142.8571429,60e5e98326d94f93738053c5,65d2b6c8f2eece985d8e374c,65d2b8a950ceff515d57c5c4,0.023,0.023,0,157,157,108,1,sevenfive,,,,,,,,,,,,,,,,,,,,,,,,,,,,,,,,,,,,,,,,,,,,,,,,,,,,,,,,,,,,,,,,,,,,,,,,,,,,,,,,,,,,,,,,,,,,,,,,,,,,,,,,,,,,,,,,,,,,,,,,,,,,,,,,,,,,,,,,,
,,60e5e98326d94f93738053c5,2024-02-19_02h10.59.230,kallum_motion_pilot,2023.2.2,Win32,142.8571429,60e5e98326d94f93738053c5,65d2b6c8f2eece985d8e374c,65d2b8a950ceff515d57c5c4,0.023,0.023,0,158,158,44,1,threeone,,,,,,,,,,,,,,,,,,,,,,,,,,,,,,,,,,,,,,,,,,,,,,,,,,,,,,,,,,,,,,,,,,,,,,,,,,,,,,,,,,,,,,,,,,,,,,,,,,,,,,,,,,,,,,,,,,,,,,,,,,,,,,,,,,,,,,,,,
,,60e5e98326d94f93738053c5,2024-02-19_02h10.59.230,kallum_motion_pilot,2023.2.2,Win32,142.8571429,60e5e98326d94f93738053c5,65d2b6c8f2eece985d8e374c,65d2b8a950ceff515d57c5c4,0.023,0.023,0,159,159,71,1,fourthree,,,,,,,,,,,,,,,,,,,,,,,,,,,,,,,,,,,,,,,,,,,,,,,,,,,,,,,,,,,,,,,,,,,,,,,,,,,,,,,,,,,,,,,,,,,,,,,,,,,,,,,,,,,,,,,,,,,,,,,,,,,,,,,,,,,,,,,,,
,,60e5e98326d94f93738053c5,2024-02-19_02h10.59.230,kallum_motion_pilot,2023.2.2,Win32,142.8571429,60e5e98326d94f93738053c5,65d2b6c8f2eece985d8e374c,65d2b8a950ceff515d57c5c4,0.023,0.023,0,160,160,11,1,twofour,,,,,,,,,,,,,,,,,,,,,,,,,,,,,,,,,,,,,,,,,,,,,,,,,,,,,,,,,,,,,,,,,,,,,,,,,,,,,,,,,,,,,,,,,,,,,,,,,,,,,,,,,,,,,,,,,,,,,,,,,,,,,,,,,,,,,,,,,
,,60e5e98326d94f93738053c5,2024-02-19_02h10.59.230,kallum_motion_pilot,2023.2.2,Win32,142.8571429,60e5e98326d94f93738053c5,65d2b6c8f2eece985d8e374c,65d2b8a950ceff515d57c5c4,0.023,0.023,0,161,161,32,1,onetwo,,,,,,,,,,,,,,,,,,,,,,,,,,,,,,,,,,,,,,,,,,,,,,,,,,,,,,,,,,,,,,,,,,,,,,,,,,,,,,,,,,,,,,,,,,,,,,,,,,,,,,,,,,,,,,,,,,,,,,,,,,,,,,,,,,,,,,,,,
,,60e5e98326d94f93738053c5,2024-02-19_02h10.59.230,kallum_motion_pilot,2023.2.2,Win32,142.8571429,60e5e98326d94f93738053c5,65d2b6c8f2eece985d8e374c,65d2b8a950ceff515d57c5c4,0.023,0.023,1,0,162,140,1,sevenfive,,,,,,,,,,,,,,,,,,,,,,,,,,,,,,,,,,,,,,,,,,,,,,,,,,,,,,,,,,,,,,,,,,,,,,,,,,,,,,,,,,,,,,,,,,,,,,,,,,,,,,,,,,,,,,,,,,,,,,,,,,,,,,,,,,,,,,,,,
,,60e5e98326d94f93738053c5,2024-02-19_02h10.59.230,kallum_motion_pilot,2023.2.2,Win32,142.8571429,60e5e98326d94f93738053c5,65d2b6c8f2eece985d8e374c,65d2b8a950ceff515d57c5c4,0.023,0.023,1,1,163,107,1,sixeight,,,,,,,,,,,,,,,,,,,,,,,,,,,,,,,,,,,,,,,,,,,,,,,,,,,,,,,,,,,,,,,,,,,,,,,,,,,,,,,,,,,,,,,,,,,,,,,,,,,,,,,,,,,,,,,,,,,,,,,,,,,,,,,,,,,,,,,,,
,,60e5e98326d94f93738053c5,2024-02-19_02h10.59.230,kallum_motion_pilot,2023.2.2,Win32,142.8571429,60e5e98326d94f93738053c5,65d2b6c8f2eece985d8e374c,65d2b8a950ceff515d57c5c4,0.023,0.023,1,2,164,129,1,fiveseven,,,,,,,,,,,,,,,,,,,,,,,,,,,,,,,,,,,,,,,,,,,,,,,,,,,,,,,,,,,,,,,,,,,,,,,,,,,,,,,,,,,,,,,,,,,,,,,,,,,,,,,,,,,,,,,,,,,,,,,,,,,,,,,,,,,,,,,,,
,,60e5e98326d94f93738053c5,2024-02-19_02h10.59.230,kallum_motion_pilot,2023.2.2,Win32,142.8571429,60e5e98326d94f93738053c5,65d2b6c8f2eece985d8e374c,65d2b8a950ceff515d57c5c4,0.023,0.023,1,3,165,102,1,eightsix,,,,,,,,,,,,,,,,,,,,,,,,,,,,,,,,,,,,,,,,,,,,,,,,,,,,,,,,,,,,,,,,,,,,,,,,,,,,,,,,,,,,,,,,,,,,,,,,,,,,,,,,,,,,,,,,,,,,,,,,,,,,,,,,,,,,,,,,,
,,60e5e98326d94f93738053c5,2024-02-19_02h10.59.230,kallum_motion_pilot,2023.2.2,Win32,142.8571429,60e5e98326d94f93738053c5,65d2b6c8f2eece985d8e374c,65d2b8a950ceff515d57c5c4,0.024,0.024,1,4,166,149,1,seveneight,,,,,,,,,,,,,,,,,,,,,,,,,,,,,,,,,,,,,,,,,,,,,,,,,,,,,,,,,,,,,,,,,,,,,,,,,,,,,,,,,,,,,,,,,,,,,,,,,,,,,,,,,,,,,,,,,,,,,,,,,,,,,,,,,,,,,,,,,
,,60e5e98326d94f93738053c5,2024-02-19_02h10.59.230,kallum_motion_pilot,2023.2.2,Win32,142.8571429,60e5e98326d94f93738053c5,65d2b6c8f2eece985d8e374c,65d2b8a950ceff515d57c5c4,0.024,0.024,1,5,167,120,1,fivesix,,,,,,,,,,,,,,,,,,,,,,,,,,,,,,,,,,,,,,,,,,,,,,,,,,,,,,,,,,,,,,,,,,,,,,,,,,,,,,,,,,,,,,,,,,,,,,,,,,,,,,,,,,,,,,,,,,,,,,,,,,,,,,,,,,,,,,,,,
,,60e5e98326d94f93738053c5,2024-02-19_02h10.59.230,kallum_motion_pilot,2023.2.2,Win32,142.8571429,60e5e98326d94f93738053c5,65d2b6c8f2eece985d8e374c,65d2b8a950ceff515d57c5c4,0.024,0.024,1,6,168,34,1,twoone,,,,,,,,,,,,,,,,,,,,,,,,,,,,,,,,,,,,,,,,,,,,,,,,,,,,,,,,,,,,,,,,,,,,,,,,,,,,,,,,,,,,,,,,,,,,,,,,,,,,,,,,,,,,,,,,,,,,,,,,,,,,,,,,,,,,,,,,,
,,60e5e98326d94f93738053c5,2024-02-19_02h10.59.230,kallum_motion_pilot,2023.2.2,Win32,142.8571429,60e5e98326d94f93738053c5,65d2b6c8f2eece985d8e374c,65d2b8a950ceff515d57c5c4,0.024,0.024,1,7,169,29,1,threefour,,,,,,,,,,,,,,,,,,,,,,,,,,,,,,,,,,,,,,,,,,,,,,,,,,,,,,,,,,,,,,,,,,,,,,,,,,,,,,,,,,,,,,,,,,,,,,,,,,,,,,,,,,,,,,,,,,,,,,,,,,,,,,,,,,,,,,,,,
,,60e5e98326d94f93738053c5,2024-02-19_02h10.59.230,kallum_motion_pilot,2023.2.2,Win32,142.8571429,60e5e98326d94f93738053c5,65d2b6c8f2eece985d8e374c,65d2b8a950ceff515d57c5c4,0.024,0.024,1,8,170,101,1,seveneight,,,,,,,,,,,,,,,,,,,,,,,,,,,,,,,,,,,,,,,,,,,,,,,,,,,,,,,,,,,,,,,,,,,,,,,,,,,,,,,,,,,,,,,,,,,,,,,,,,,,,,,,,,,,,,,,,,,,,,,,,,,,,,,,,,,,,,,,,
,,60e5e98326d94f93738053c5,2024-02-19_02h10.59.230,kallum_motion_pilot,2023.2.2,Win32,142.8571429,60e5e98326d94f93738053c5,65d2b6c8f2eece985d8e374c,65d2b8a950ceff515d57c5c4,0.024,0.024,1,9,171,33,1,onethree,,,,,,,,,,,,,,,,,,,,,,,,,,,,,,,,,,,,,,,,,,,,,,,,,,,,,,,,,,,,,,,,,,,,,,,,,,,,,,,,,,,,,,,,,,,,,,,,,,,,,,,,,,,,,,,,,,,,,,,,,,,,,,,,,,,,,,,,,
,,60e5e98326d94f93738053c5,2024-02-19_02h10.59.230,kallum_motion_pilot,2023.2.2,Win32,142.8571429,60e5e98326d94f93738053c5,65d2b6c8f2eece985d8e374c,65d2b8a950ceff515d57c5c4,0.024,0.024,1,10,172,59,1,twofour,,,,,,,,,,,,,,,,,,,,,,,,,,,,,,,,,,,,,,,,,,,,,,,,,,,,,,,,,,,,,,,,,,,,,,,,,,,,,,,,,,,,,,,,,,,,,,,,,,,,,,,,,,,,,,,,,,,,,,,,,,,,,,,,,,,,,,,,,
,,60e5e98326d94f93738053c5,2024-02-19_02h10.59.230,kallum_motion_pilot,2023.2.2,Win32,142.8571429,60e5e98326d94f93738053c5,65d2b6c8f2eece985d8e374c,65d2b8a950ceff515d57c5c4,0.024,0.024,1,11,173,143,1,eightseven,,,,,,,,,,,,,,,,,,,,,,,,,,,,,,,,,,,,,,,,,,,,,,,,,,,,,,,,,,,,,,,,,,,,,,,,,,,,,,,,,,,,,,,,,,,,,,,,,,,,,,,,,,,,,,,,,,,,,,,,,,,,,,,,,,,,,,,,,
,,60e5e98326d94f93738053c5,2024-02-19_02h10.59.230,kallum_motion_pilot,2023.2.2,Win32,142.8571429,60e5e98326d94f93738053c5,65d2b6c8f2eece985d8e374c,65d2b8a950ceff515d57c5c4,0.024,0.024,1,12,174,57,1,onethree,,,,,,,,,,,,,,,,,,,,,,,,,,,,,,,,,,,,,,,,,,,,,,,,,,,,,,,,,,,,,,,,,,,,,,,,,,,,,,,,,,,,,,,,,,,,,,,,,,,,,,,,,,,,,,,,,,,,,,,,,,,,,,,,,,,,,,,,,
,,60e5e98326d94f93738053c5,2024-02-19_02h10.59.230,kallum_motion_pilot,2023.2.2,Win32,142.8571429,60e5e98326d94f93738053c5,65d2b6c8f2eece985d8e374c,65d2b8a950ceff515d57c5c4,0.024,0.024,1,13,175,12,1,threeone,,,,,,,,,,,,,,,,,,,,,,,,,,,,,,,,,,,,,,,,,,,,,,,,,,,,,,,,,,,,,,,,,,,,,,,,,,,,,,,,,,,,,,,,,,,,,,,,,,,,,,,,,,,,,,,,,,,,,,,,,,,,,,,,,,,,,,,,,
,,60e5e98326d94f93738053c5,2024-02-19_02h10.59.230,kallum_motion_pilot,2023.2.2,Win32,142.8571429,60e5e98326d94f93738053c5,65d2b6c8f2eece985d8e374c,65d2b8a950ceff515d57c5c4,0.024,0.024,1,14,176,6,1,fourtwo,,,,,,,,,,,,,,,,,,,,,,,,,,,,,,,,,,,,,,,,,,,,,,,,,,,,,,,,,,,,,,,,,,,,,,,,,,,,,,,,,,,,,,,,,,,,,,,,,,,,,,,,,,,,,,,,,,,,,,,,,,,,,,,,,,,,,,,,,
,,60e5e98326d94f93738053c5,2024-02-19_02h10.59.230,kallum_motion_pilot,2023.2.2,Win32,142.8571429,60e5e98326d94f93738053c5,65d2b6c8f2eece985d8e374c,65d2b8a950ceff515d57c5c4,0.024,0.024,1,15,177,31,1,fourthree,,,,,,,,,,,,,,,,,,,,,,,,,,,,,,,,,,,,,,,,,,,,,,,,,,,,,,,,,,,,,,,,,,,,,,,,,,,,,,,,,,,,,,,,,,,,,,,,,,,,,,,,,,,,,,,,,,,,,,,,,,,,,,,,,,,,,,,,,
,,60e5e98326d94f93738053c5,2024-02-19_02h10.59.230,kallum_motion_pilot,2023.2.2,Win32,142.8571429,60e5e98326d94f93738053c5,65d2b6c8f2eece985d8e374c,65d2b8a950ceff515d57c5c4,0.024,0.024,1,16,178,27,1,twofour,,,,,,,,,,,,,,,,,,,,,,,,,,,,,,,,,,,,,,,,,,,,,,,,,,,,,,,,,,,,,,,,,,,,,,,,,,,,,,,,,,,,,,,,,,,,,,,,,,,,,,,,,,,,,,,,,,,,,,,,,,,,,,,,,,,,,,,,,
,,60e5e98326d94f93738053c5,2024-02-19_02h10.59.230,kallum_motion_pilot,2023.2.2,Win32,142.8571429,60e5e98326d94f93738053c5,65d2b6c8f2eece985d8e374c,65d2b8a950ceff515d57c5c4,0.024,0.024,1,17,179,68,1,threeone,,,,,,,,,,,,,,,,,,,,,,,,,,,,,,,,,,,,,,,,,,,,,,,,,,,,,,,,,,,,,,,,,,,,,,,,,,,,,,,,,,,,,,,,,,,,,,,,,,,,,,,,,,,,,,,,,,,,,,,,,,,,,,,,,,,,,,,,,
,,60e5e98326d94f93738053c5,2024-02-19_02h10.59.230,kallum_motion_pilot,2023.2.2,Win32,142.8571429,60e5e98326d94f93738053c5,65d2b6c8f2eece985d8e374c,65d2b8a950ceff515d57c5c4,0.024,0.024,1,18,180,77,1,threefour,,,,,,,,,,,,,,,,,,,,,,,,,,,,,,,,,,,,,,,,,,,,,,,,,,,,,,,,,,,,,,,,,,,,,,,,,,,,,,,,,,,,,,,,,,,,,,,,,,,,,,,,,,,,,,,,,,,,,,,,,,,,,,,,,,,,,,,,,
,,60e5e98326d94f93738053c5,2024-02-19_02h10.59.230,kallum_motion_pilot,2023.2.2,Win32,142.8571429,60e5e98326d94f93738053c5,65d2b6c8f2eece985d8e374c,65d2b8a950ceff515d57c5c4,0.024,0.024,1,19,181,15,1,fourthree,,,,,,,,,,,,,,,,,,,,,,,,,,,,,,,,,,,,,,,,,,,,,,,,,,,,,,,,,,,,,,,,,,,,,,,,,,,,,,,,,,,,,,,,,,,,,,,,,,,,,,,,,,,,,,,,,,,,,,,,,,,,,,,,,,,,,,,,,
,,60e5e98326d94f93738053c5,2024-02-19_02h10.59.230,kallum_motion_pilot,2023.2.2,Win32,142.8571429,60e5e98326d94f93738053c5,65d2b6c8f2eece985d8e374c,65d2b8a950ceff515d57c5c4,0.024,0.024,1,20,182,119,1,eightseven,,,,,,,,,,,,,,,,,,,,,,,,,,,,,,,,,,,,,,,,,,,,,,,,,,,,,,,,,,,,,,,,,,,,,,,,,,,,,,,,,,,,,,,,,,,,,,,,,,,,,,,,,,,,,,,,,,,,,,,,,,,,,,,,,,,,,,,,,
,,60e5e98326d94f93738053c5,2024-02-19_02h10.59.230,kallum_motion_pilot,2023.2.2,Win32,142.8571429,60e5e98326d94f93738053c5,65d2b6c8f2eece985d8e374c,65d2b8a950ceff515d57c5c4,0.024,0.024,1,21,183,80,1,fivesix,,,,,,,,,,,,,,,,,,,,,,,,,,,,,,,,,,,,,,,,,,,,,,,,,,,,,,,,,,,,,,,,,,,,,,,,,,,,,,,,,,,,,,,,,,,,,,,,,,,,,,,,,,,,,,,,,,,,,,,,,,,,,,,,,,,,,,,,,
,,60e5e98326d94f93738053c5,2024-02-19_02h10.59.230,kallum_motion_pilot,2023.2.2,Win32,142.8571429,60e5e98326d94f93738053c5,65d2b6c8f2eece985d8e374c,65d2b8a950ceff515d57c5c4,0.024,0.024,1,22,184,9,1,onethree,,,,,,,,,,,,,,,,,,,,,,,,,,,,,,,,,,,,,,,,,,,,,,,,,,,,,,,,,,,,,,,,,,,,,,,,,,,,,,,,,,,,,,,,,,,,,,,,,,,,,,,,,,,,,,,,,,,,,,,,,,,,,,,,,,,,,,,,,
,,60e5e98326d94f93738053c5,2024-02-19_02h10.59.230,kallum_motion_pilot,2023.2.2,Win32,142.8571429,60e5e98326d94f93738053c5,65d2b6c8f2eece985d8e374c,65d2b8a950ceff515d57c5c4,0.024,0.024,1,23,185,146,1,sixfive,,,,,,,,,,,,,,,,,,,,,,,,,,,,,,,,,,,,,,,,,,,,,,,,,,,,,,,,,,,,,,,,,,,,,,,,,,,,,,,,,,,,,,,,,,,,,,,,,,,,,,,,,,,,,,,,,,,,,,,,,,,,,,,,,,,,,,,,,
,,60e5e98326d94f93738053c5,2024-02-19_02h10.59.230,kallum_motion_pilot,2023.2.2,Win32,142.8571429,60e5e98326d94f93738053c5,65d2b6c8f2eece985d8e374c,65d2b8a950ceff515d57c5c4,0.025,0.025,1,24,186,161,1,fiveseven,,,,,,,,,,,,,,,,,,,,,,,,,,,,,,,,,,,,,,,,,,,,,,,,,,,,,,,,,,,,,,,,,,,,,,,,,,,,,,,,,,,,,,,,,,,,,,,,,,,,,,,,,,,,,,,,,,,,,,,,,,,,,,,,,,,,,,,,,
,,60e5e98326d94f93738053c5,2024-02-19_02h10.59.230,kallum_motion_pilot,2023.2.2,Win32,142.8571429,60e5e98326d94f93738053c5,65d2b6c8f2eece985d8e374c,65d2b8a950ceff515d57c5c4,0.025,0.025,1,25,187,145,1,fiveseven,,,,,,,,,,,,,,,,,,,,,,,,,,,,,,,,,,,,,,,,,,,,,,,,,,,,,,,,,,,,,,,,,,,,,,,,,,,,,,,,,,,,,,,,,,,,,,,,,,,,,,,,,,,,,,,,,,,,,,,,,,,,,,,,,,,,,,,,,
,,60e5e98326d94f93738053c5,2024-02-19_02h10.59.230,kallum_motion_pilot,2023.2.2,Win32,142.8571429,60e5e98326d94f93738053c5,65d2b6c8f2eece985d8e374c,65d2b8a950ceff515d57c5c4,0.025,0.025,1,26,188,130,1,sixfive,,,,,,,,,,,,,,,,,,,,,,,,,,,,,,,,,,,,,,,,,,,,,,,,,,,,,,,,,,,,,,,,,,,,,,,,,,,,,,,,,,,,,,,,,,,,,,,,,,,,,,,,,,,,,,,,,,,,,,,,,,,,,,,,,,,,,,,,,
,,60e5e98326d94f93738053c5,2024-02-19_02h10.59.230,kallum_motion_pilot,2023.2.2,Win32,142.8571429,60e5e98326d94f93738053c5,65d2b6c8f2eece985d8e374c,65d2b8a950ceff515d57c5c4,0.025,0.025,1,27,189,127,1,eightseven,,,,,,,,,,,,,,,,,,,,,,,,,,,,,,,,,,,,,,,,,,,,,,,,,,,,,,,,,,,,,,,,,,,,,,,,,,,,,,,,,,,,,,,,,,,,,,,,,,,,,,,,,,,,,,,,,,,,,,,,,,,,,,,,,,,,,,,,,
,,60e5e98326d94f93738053c5,2024-02-19_02h10.59.230,kallum_motion_pilot,2023.2.2,Win32,142.8571429,60e5e98326d94f93738053c5,65d2b6c8f2eece985d8e374c,65d2b8a950ceff515d57c5c4,0.025,0.025,1,28,190,21,1,threefour,,,,,,,,,,,,,,,,,,,,,,,,,,,,,,,,,,,,,,,,,,,,,,,,,,,,,,,,,,,,,,,,,,,,,,,,,,,,,,,,,,,,,,,,,,,,,,,,,,,,,,,,,,,,,,,,,,,,,,,,,,,,,,,,,,,,,,,,,
,,60e5e98326d94f93738053c5,2024-02-19_02h10.59.230,kallum_motion_pilot,2023.2.2,Win32,142.8571429,60e5e98326d94f93738053c5,65d2b6c8f2eece985d8e374c,65d2b8a950ceff515d57c5c4,0.025,0.025,1,29,191,28,1,threeone,,,,,,,,,,,,,,,,,,,,,,,,,,,,,,,,,,,,,,,,,,,,,,,,,,,,,,,,,,,,,,,,,,,,,,,,,,,,,,,,,,,,,,,,,,,,,,,,,,,,,,,,,,,,,,,,,,,,,,,,,,,,,,,,,,,,,,,,,
,,60e5e98326d94f93738053c5,2024-02-19_02h10.59.230,kallum_motion_pilot,2023.2.2,Win32,142.8571429,60e5e98326d94f93738053c5,65d2b6c8f2eece985d8e374c,65d2b8a950ceff515d57c5c4,0.025,0.025,1,30,192,8,1,onetwo,,,,,,,,,,,,,,,,,,,,,,,,,,,,,,,,,,,,,,,,,,,,,,,,,,,,,,,,,,,,,,,,,,,,,,,,,,,,,,,,,,,,,,,,,,,,,,,,,,,,,,,,,,,,,,,,,,,,,,,,,,,,,,,,,,,,,,,,,
,,60e5e98326d94f93738053c5,2024-02-19_02h10.59.230,kallum_motion_pilot,2023.2.2,Win32,142.8571429,60e5e98326d94f93738053c5,65d2b6c8f2eece985d8e374c,65d2b8a950ceff515d57c5c4,0.025,0.025,1,31,193,137,1,fiveseven,,,,,,,,,,,,,,,,,,,,,,,,,,,,,,,,,,,,,,,,,,,,,,,,,,,,,,,,,,,,,,,,,,,,,,,,,,,,,,,,,,,,,,,,,,,,,,,,,,,,,,,,,,,,,,,,,,,,,,,,,,,,,,,,,,,,,,,,,
,,60e5e98326d94f93738053c5,2024-02-19_02h10.59.230,kallum_motion_pilot,2023.2.2,Win32,142.8571429,60e5e98326d94f93738053c5,65d2b6c8f2eece985d8e374c,65d2b8a950ceff515d57c5c4,0.025,0.025,1,32,194,96,1,fivesix,,,,,,,,,,,,,,,,,,,,,,,,,,,,,,,,,,,,,,,,,,,,,,,,,,,,,,,,,,,,,,,,,,,,,,,,,,,,,,,,,,,,,,,,,,,,,,,,,,,,,,,,,,,,,,,,,,,,,,,,,,,,,,,,,,,,,,,,,
,,60e5e98326d94f93738053c5,2024-02-19_02h10.59.230,kallum_motion_pilot,2023.2.2,Win32,142.8571429,60e5e98326d94f93738053c5,65d2b6c8f2eece985d8e374c,65d2b8a950ceff515d57c5c4,0.025,0.025,1,33,195,50,1,twoone,,,,,,,,,,,,,,,,,,,,,,,,,,,,,,,,,,,,,,,,,,,,,,,,,,,,,,,,,,,,,,,,,,,,,,,,,,,,,,,,,,,,,,,,,,,,,,,,,,,,,,,,,,,,,,,,,,,,,,,,,,,,,,,,,,,,,,,,,
,,60e5e98326d94f93738053c5,2024-02-19_02h10.59.230,kallum_motion_pilot,2023.2.2,Win32,142.8571429,60e5e98326d94f93738053c5,65d2b6c8f2eece985d8e374c,65d2b8a950ceff515d57c5c4,0.025,0.025,1,34,196,62,1,fourtwo,,,,,,,,,,,,,,,,,,,,,,,,,,,,,,,,,,,,,,,,,,,,,,,,,,,,,,,,,,,,,,,,,,,,,,,,,,,,,,,,,,,,,,,,,,,,,,,,,,,,,,,,,,,,,,,,,,,,,,,,,,,,,,,,,,,,,,,,,
,,60e5e98326d94f93738053c5,2024-02-19_02h10.59.230,kallum_motion_pilot,2023.2.2,Win32,142.8571429,60e5e98326d94f93738053c5,65d2b6c8f2eece985d8e374c,65d2b8a950ceff515d57c5c4,0.025,0.025,1,35,197,70,1,fourtwo,,,,,,,,,,,,,,,,,,,,,,,,,,,,,,,,,,,,,,,,,,,,,,,,,,,,,,,,,,,,,,,,,,,,,,,,,,,,,,,,,,,,,,,,,,,,,,,,,,,,,,,,,,,,,,,,,,,,,,,,,,,,,,,,,,,,,,,,,
,,60e5e98326d94f93738053c5,2024-02-19_02h10.59.230,kallum_motion_pilot,2023.2.2,Win32,142.8571429,60e5e98326d94f93738053c5,65d2b6c8f2eece985d8e374c,65d2b8a950ceff515d57c5c4,0.025,0.025,1,36,198,64,1,onetwo,,,,,,,,,,,,,,,,,,,,,,,,,,,,,,,,,,,,,,,,,,,,,,,,,,,,,,,,,,,,,,,,,,,,,,,,,,,,,,,,,,,,,,,,,,,,,,,,,,,,,,,,,,,,,,,,,,,,,,,,,,,,,,,,,,,,,,,,,
,,60e5e98326d94f93738053c5,2024-02-19_02h10.59.230,kallum_motion_pilot,2023.2.2,Win32,142.8571429,60e5e98326d94f93738053c5,65d2b6c8f2eece985d8e374c,65d2b8a950ceff515d57c5c4,0.025,0.025,1,37,199,122,1,sixfive,,,,,,,,,,,,,,,,,,,,,,,,,,,,,,,,,,,,,,,,,,,,,,,,,,,,,,,,,,,,,,,,,,,,,,,,,,,,,,,,,,,,,,,,,,,,,,,,,,,,,,,,,,,,,,,,,,,,,,,,,,,,,,,,,,,,,,,,,
,,60e5e98326d94f93738053c5,2024-02-19_02h10.59.230,kallum_motion_pilot,2023.2.2,Win32,142.8571429,60e5e98326d94f93738053c5,65d2b6c8f2eece985d8e374c,65d2b8a950ceff515d57c5c4,0.025,0.025,1,38,200,52,1,threeone,,,,,,,,,,,,,,,,,,,,,,,,,,,,,,,,,,,,,,,,,,,,,,,,,,,,,,,,,,,,,,,,,,,,,,,,,,,,,,,,,,,,,,,,,,,,,,,,,,,,,,,,,,,,,,,,,,,,,,,,,,,,,,,,,,,,,,,,,
,,60e5e98326d94f93738053c5,2024-02-19_02h10.59.230,kallum_motion_pilot,2023.2.2,Win32,142.8571429,60e5e98326d94f93738053c5,65d2b6c8f2eece985d8e374c,65d2b8a950ceff515d57c5c4,0.025,0.025,1,39,201,113,1,fiveseven,,,,,,,,,,,,,,,,,,,,,,,,,,,,,,,,,,,,,,,,,,,,,,,,,,,,,,,,,,,,,,,,,,,,,,,,,,,,,,,,,,,,,,,,,,,,,,,,,,,,,,,,,,,,,,,,,,,,,,,,,,,,,,,,,,,,,,,,,
,,60e5e98326d94f93738053c5,2024-02-19_02h10.59.230,kallum_motion_pilot,2023.2.2,Win32,142.8571429,60e5e98326d94f93738053c5,65d2b6c8f2eece985d8e374c,65d2b8a950ceff515d57c5c4,0.025,0.026,1,40,202,91,1,sixeight,,,,,,,,,,,,,,,,,,,,,,,,,,,,,,,,,,,,,,,,,,,,,,,,,,,,,,,,,,,,,,,,,,,,,,,,,,,,,,,,,,,,,,,,,,,,,,,,,,,,,,,,,,,,,,,,,,,,,,,,,,,,,,,,,,,,,,,,,
,,60e5e98326d94f93738053c5,2024-02-19_02h10.59.230,kallum_motion_pilot,2023.2.2,Win32,142.8571429,60e5e98326d94f93738053c5,65d2b6c8f2eece985d8e374c,65d2b8a950ceff515d57c5c4,0.026,0.026,1,41,203,23,1,fourthree,,,,,,,,,,,,,,,,,,,,,,,,,,,,,,,,,,,,,,,,,,,,,,,,,,,,,,,,,,,,,,,,,,,,,,,,,,,,,,,,,,,,,,,,,,,,,,,,,,,,,,,,,,,,,,,,,,,,,,,,,,,,,,,,,,,,,,,,,
,,60e5e98326d94f93738053c5,2024-02-19_02h10.59.230,kallum_motion_pilot,2023.2.2,Win32,142.8571429,60e5e98326d94f93738053c5,65d2b6c8f2eece985d8e374c,65d2b8a950ceff515d57c5c4,0.026,0.026,1,42,204,87,1,eightseven,,,,,,,,,,,,,,,,,,,,,,,,,,,,,,,,,,,,,,,,,,,,,,,,,,,,,,,,,,,,,,,,,,,,,,,,,,,,,,,,,,,,,,,,,,,,,,,,,,,,,,,,,,,,,,,,,,,,,,,,,,,,,,,,,,,,,,,,,
,,60e5e98326d94f93738053c5,2024-02-19_02h10.59.230,kallum_motion_pilot,2023.2.2,Win32,142.8571429,60e5e98326d94f93738053c5,65d2b6c8f2eece985d8e374c,65d2b8a950ceff515d57c5c4,0.026,0.026,1,43,205,147,1,sixeight,,,,,,,,,,,,,,,,,,,,,,,,,,,,,,,,,,,,,,,,,,,,,,,,,,,,,,,,,,,,,,,,,,,,,,,,,,,,,,,,,,,,,,,,,,,,,,,,,,,,,,,,,,,,,,,,,,,,,,,,,,,,,,,,,,,,,,,,,
,,60e5e98326d94f93738053c5,2024-02-19_02h10.59.230,kallum_motion_pilot,2023.2.2,Win32,142.8571429,60e5e98326d94f93738053c5,65d2b6c8f2eece985d8e374c,65d2b8a950ceff515d57c5c4,0.026,0.026,1,44,206,38,1,fourtwo,,,,,,,,,,,,,,,,,,,,,,,,,,,,,,,,,,,,,,,,,,,,,,,,,,,,,,,,,,,,,,,,,,,,,,,,,,,,,,,,,,,,,,,,,,,,,,,,,,,,,,,,,,,,,,,,,,,,,,,,,,,,,,,,,,,,,,,,,
,,60e5e98326d94f93738053c5,2024-02-19_02h10.59.230,kallum_motion_pilot,2023.2.2,Win32,142.8571429,60e5e98326d94f93738053c5,65d2b6c8f2eece985d8e374c,65d2b8a950ceff515d57c5c4,0.026,0.026,1,45,207,125,1,seveneight,,,,,,,,,,,,,,,,,,,,,,,,,,,,,,,,,,,,,,,,,,,,,,,,,,,,,,,,,,,,,,,,,,,,,,,,,,,,,,,,,,,,,,,,,,,,,,,,,,,,,,,,,,,,,,,,,,,,,,,,,,,,,,,,,,,,,,,,,
,,60e5e98326d94f93738053c5,2024-02-19_02h10.59.230,kallum_motion_pilot,2023.2.2,Win32,142.8571429,60e5e98326d94f93738053c5,65d2b6c8f2eece985d8e374c,65d2b8a950ceff515d57c5c4,0.026,0.026,1,46,208,150,1,eightsix,,,,,,,,,,,,,,,,,,,,,,,,,,,,,,,,,,,,,,,,,,,,,,,,,,,,,,,,,,,,,,,,,,,,,,,,,,,,,,,,,,,,,,,,,,,,,,,,,,,,,,,,,,,,,,,,,,,,,,,,,,,,,,,,,,,,,,,,,
,,60e5e98326d94f93738053c5,2024-02-19_02h10.59.230,kallum_motion_pilot,2023.2.2,Win32,142.8571429,60e5e98326d94f93738053c5,65d2b6c8f2eece985d8e374c,65d2b8a950ceff515d57c5c4,0.026,0.026,1,47,209,79,1,eightseven,,,,,,,,,,,,,,,,,,,,,,,,,,,,,,,,,,,,,,,,,,,,,,,,,,,,,,,,,,,,,,,,,,,,,,,,,,,,,,,,,,,,,,,,,,,,,,,,,,,,,,,,,,,,,,,,,,,,,,,,,,,,,,,,,,,,,,,,,
,,60e5e98326d94f93738053c5,2024-02-19_02h10.59.230,kallum_motion_pilot,2023.2.2,Win32,142.8571429,60e5e98326d94f93738053c5,65d2b6c8f2eece985d8e374c,65d2b8a950ceff515d57c5c4,0.026,0.026,1,48,210,73,1,onethree,,,,,,,,,,,,,,,,,,,,,,,,,,,,,,,,,,,,,,,,,,,,,,,,,,,,,,,,,,,,,,,,,,,,,,,,,,,,,,,,,,,,,,,,,,,,,,,,,,,,,,,,,,,,,,,,,,,,,,,,,,,,,,,,,,,,,,,,,
,,60e5e98326d94f93738053c5,2024-02-19_02h10.59.230,kallum_motion_pilot,2023.2.2,Win32,142.8571429,60e5e98326d94f93738053c5,65d2b6c8f2eece985d8e374c,65d2b8a950ceff515d57c5c4,0.026,0.026,1,49,211,132,1,sevenfive,,,,,,,,,,,,,,,,,,,,,,,,,,,,,,,,,,,,,,,,,,,,,,,,,,,,,,,,,,,,,,,,,,,,,,,,,,,,,,,,,,,,,,,,,,,,,,,,,,,,,,,,,,,,,,,,,,,,,,,,,,,,,,,,,,,,,,,,,
,,60e5e98326d94f93738053c5,2024-02-19_02h10.59.230,kallum_motion_pilot,2023.2.2,Win32,142.8571429,60e5e98326d94f93738053c5,65d2b6c8f2eece985d8e374c,65d2b8a950ceff515d57c5c4,0.026,0.026,1,50,212,10,1,twoone,,,,,,,,,,,,,,,,,,,,,,,,,,,,,,,,,,,,,,,,,,,,,,,,,,,,,,,,,,,,,,,,,,,,,,,,,,,,,,,,,,,,,,,,,,,,,,,,,,,,,,,,,,,,,,,,,,,,,,,,,,,,,,,,,,,,,,,,,
,,60e5e98326d94f93738053c5,2024-02-19_02h10.59.230,kallum_motion_pilot,2023.2.2,Win32,142.8571429,60e5e98326d94f93738053c5,65d2b6c8f2eece985d8e374c,65d2b8a950ceff515d57c5c4,0.026,0.026,1,51,213,17,1,onethree,,,,,,,,,,,,,,,,,,,,,,,,,,,,,,,,,,,,,,,,,,,,,,,,,,,,,,,,,,,,,,,,,,,,,,,,,,,,,,,,,,,,,,,,,,,,,,,,,,,,,,,,,,,,,,,,,,,,,,,,,,,,,,,,,,,,,,,,,
,,60e5e98326d94f93738053c5,2024-02-19_02h10.59.230,kallum_motion_pilot,2023.2.2,Win32,142.8571429,60e5e98326d94f93738053c5,65d2b6c8f2eece985d8e374c,65d2b8a950ceff515d57c5c4,0.027,0.027,1,52,214,103,1,eightseven,,,,,,,,,,,,,,,,,,,,,,,,,,,,,,,,,,,,,,,,,,,,,,,,,,,,,,,,,,,,,,,,,,,,,,,,,,,,,,,,,,,,,,,,,,,,,,,,,,,,,,,,,,,,,,,,,,,,,,,,,,,,,,,,,,,,,,,,,
,,60e5e98326d94f93738053c5,2024-02-19_02h10.59.230,kallum_motion_pilot,2023.2.2,Win32,142.8571429,60e5e98326d94f93738053c5,65d2b6c8f2eece985d8e374c,65d2b8a950ceff515d57c5c4,0.027,0.027,1,53,215,19,1,twofour,,,,,,,,,,,,,,,,,,,,,,,,,,,,,,,,,,,,,,,,,,,,,,,,,,,,,,,,,,,,,,,,,,,,,,,,,,,,,,,,,,,,,,,,,,,,,,,,,,,,,,,,,,,,,,,,,,,,,,,,,,,,,,,,,,,,,,,,,
,,60e5e98326d94f93738053c5,2024-02-19_02h10.59.230,kallum_motion_pilot,2023.2.2,Win32,142.8571429,60e5e98326d94f93738053c5,65d2b6c8f2eece985d8e374c,65d2b8a950ceff515d57c5c4,0.027,0.027,1,54,216,0,1,onetwo,,,,,,,,,,,,,,,,,,,,,,,,,,,,,,,,,,,,,,,,,,,,,,,,,,,,,,,,,,,,,,,,,,,,,,,,,,,,,,,,,,,,,,,,,,,,,,,,,,,,,,,,,,,,,,,,,,,,,,,,,,,,,,,,,,,,,,,,,
,,60e5e98326d94f93738053c5,2024-02-19_02h10.59.230,kallum_motion_pilot,2023.2.2,Win32,142.8571429,60e5e98326d94f93738053c5,65d2b6c8f2eece985d8e374c,65d2b8a950ceff515d57c5c4,0.027,0.027,1,55,217,35,1,twofour,,,,,,,,,,,,,,,,,,,,,,,,,,,,,,,,,,,,,,,,,,,,,,,,,,,,,,,,,,,,,,,,,,,,,,,,,,,,,,,,,,,,,,,,,,,,,,,,,,,,,,,,,,,,,,,,,,,,,,,,,,,,,,,,,,,,,,,,,
,,60e5e98326d94f93738053c5,2024-02-19_02h10.59.230,kallum_motion_pilot,2023.2.2,Win32,142.8571429,60e5e98326d94f93738053c5,65d2b6c8f2eece985d8e374c,65d2b8a950ceff515d57c5c4,0.027,0.027,1,56,218,97,1,fiveseven,,,,,,,,,,,,,,,,,,,,,,,,,,,,,,,,,,,,,,,,,,,,,,,,,,,,,,,,,,,,,,,,,,,,,,,,,,,,,,,,,,,,,,,,,,,,,,,,,,,,,,,,,,,,,,,,,,,,,,,,,,,,,,,,,,,,,,,,,
,,60e5e98326d94f93738053c5,2024-02-19_02h10.59.230,kallum_motion_pilot,2023.2.2,Win32,142.8571429,60e5e98326d94f93738053c5,65d2b6c8f2eece985d8e374c,65d2b8a950ceff515d57c5c4,0.027,0.027,1,57,219,67,1,twofour,,,,,,,,,,,,,,,,,,,,,,,,,,,,,,,,,,,,,,,,,,,,,,,,,,,,,,,,,,,,,,,,,,,,,,,,,,,,,,,,,,,,,,,,,,,,,,,,,,,,,,,,,,,,,,,,,,,,,,,,,,,,,,,,,,,,,,,,,
,,60e5e98326d94f93738053c5,2024-02-19_02h10.59.230,kallum_motion_pilot,2023.2.2,Win32,142.8571429,60e5e98326d94f93738053c5,65d2b6c8f2eece985d8e374c,65d2b8a950ceff515d57c5c4,0.027,0.027,1,58,220,110,1,eightsix,,,,,,,,,,,,,,,,,,,,,,,,,,,,,,,,,,,,,,,,,,,,,,,,,,,,,,,,,,,,,,,,,,,,,,,,,,,,,,,,,,,,,,,,,,,,,,,,,,,,,,,,,,,,,,,,,,,,,,,,,,,,,,,,,,,,,,,,,
,,60e5e98326d94f93738053c5,2024-02-19_02h10.59.230,kallum_motion_pilot,2023.2.2,Win32,142.8571429,60e5e98326d94f93738053c5,65d2b6c8f2eece985d8e374c,65d2b8a950ceff515d57c5c4,0.028,0.028,1,59,221,78,1,fourtwo,,,,,,,,,,,,,,,,,,,,,,,,,,,,,,,,,,,,,,,,,,,,,,,,,,,,,,,,,,,,,,,,,,,,,,,,,,,,,,,,,,,,,,,,,,,,,,,,,,,,,,,,,,,,,,,,,,,,,,,,,,,,,,,,,,,,,,,,,
,,60e5e98326d94f93738053c5,2024-02-19_02h10.59.230,kallum_motion_pilot,2023.2.2,Win32,142.8571429,60e5e98326d94f93738053c5,65d2b6c8f2eece985d8e374c,65d2b8a950ceff515d57c5c4,0.028,0.028,1,60,222,1,1,onethree,,,,,,,,,,,,,,,,,,,,,,,,,,,,,,,,,,,,,,,,,,,,,,,,,,,,,,,,,,,,,,,,,,,,,,,,,,,,,,,,,,,,,,,,,,,,,,,,,,,,,,,,,,,,,,,,,,,,,,,,,,,,,,,,,,,,,,,,,
,,60e5e98326d94f93738053c5,2024-02-19_02h10.59.230,kallum_motion_pilot,2023.2.2,Win32,142.8571429,60e5e98326d94f93738053c5,65d2b6c8f2eece985d8e374c,65d2b8a950ceff515d57c5c4,0.028,0.028,1,61,223,40,1,onetwo,,,,,,,,,,,,,,,,,,,,,,,,,,,,,,,,,,,,,,,,,,,,,,,,,,,,,,,,,,,,,,,,,,,,,,,,,,,,,,,,,,,,,,,,,,,,,,,,,,,,,,,,,,,,,,,,,,,,,,,,,,,,,,,,,,,,,,,,,
,,60e5e98326d94f93738053c5,2024-02-19_02h10.59.230,kallum_motion_pilot,2023.2.2,Win32,142.8571429,60e5e98326d94f93738053c5,65d2b6c8f2eece985d8e374c,65d2b8a950ceff515d57c5c4,0.028,0.028,1,62,224,58,1,twoone,,,,,,,,,,,,,,,,,,,,,,,,,,,,,,,,,,,,,,,,,,,,,,,,,,,,,,,,,,,,,,,,,,,,,,,,,,,,,,,,,,,,,,,,,,,,,,,,,,,,,,,,,,,,,,,,,,,,,,,,,,,,,,,,,,,,,,,,,
,,60e5e98326d94f93738053c5,2024-02-19_02h10.59.230,kallum_motion_pilot,2023.2.2,Win32,142.8571429,60e5e98326d94f93738053c5,65d2b6c8f2eece985d8e374c,65d2b8a950ceff515d57c5c4,0.028,0.028,1,63,225,158,1,eightsix,,,,,,,,,,,,,,,,,,,,,,,,,,,,,,,,,,,,,,,,,,,,,,,,,,,,,,,,,,,,,,,,,,,,,,,,,,,,,,,,,,,,,,,,,,,,,,,,,,,,,,,,,,,,,,,,,,,,,,,,,,,,,,,,,,,,,,,,,
,,60e5e98326d94f93738053c5,2024-02-19_02h10.59.230,kallum_motion_pilot,2023.2.2,Win32,142.8571429,60e5e98326d94f93738053c5,65d2b6c8f2eece985d8e374c,65d2b8a950ceff515d57c5c4,0.028,0.028,1,64,226,152,1,fivesix,,,,,,,,,,,,,,,,,,,,,,,,,,,,,,,,,,,,,,,,,,,,,,,,,,,,,,,,,,,,,,,,,,,,,,,,,,,,,,,,,,,,,,,,,,,,,,,,,,,,,,,,,,,,,,,,,,,,,,,,,,,,,,,,,,,,,,,,,
,,60e5e98326d94f93738053c5,2024-02-19_02h10.59.230,kallum_motion_pilot,2023.2.2,Win32,142.8571429,60e5e98326d94f93738053c5,65d2b6c8f2eece985d8e374c,65d2b8a950ceff515d57c5c4,0.028,0.028,1,65,227,2,1,twoone,,,,,,,,,,,,,,,,,,,,,,,,,,,,,,,,,,,,,,,,,,,,,,,,,,,,,,,,,,,,,,,,,,,,,,,,,,,,,,,,,,,,,,,,,,,,,,,,,,,,,,,,,,,,,,,,,,,,,,,,,,,,,,,,,,,,,,,,,
,,60e5e98326d94f93738053c5,2024-02-19_02h10.59.230,kallum_motion_pilot,2023.2.2,Win32,142.8571429,60e5e98326d94f93738053c5,65d2b6c8f2eece985d8e374c,65d2b8a950ceff515d57c5c4,0.028,0.028,1,66,228,85,1,seveneight,,,,,,,,,,,,,,,,,,,,,,,,,,,,,,,,,,,,,,,,,,,,,,,,,,,,,,,,,,,,,,,,,,,,,,,,,,,,,,,,,,,,,,,,,,,,,,,,,,,,,,,,,,,,,,,,,,,,,,,,,,,,,,,,,,,,,,,,,
,,60e5e98326d94f93738053c5,2024-02-19_02h10.59.230,kallum_motion_pilot,2023.2.2,Win32,142.8571429,60e5e98326d94f93738053c5,65d2b6c8f2eece985d8e374c,65d2b8a950ceff515d57c5c4,0.028,0.028,1,67,229,81,1,fiveseven,,,,,,,,,,,,,,,,,,,,,,,,,,,,,,,,,,,,,,,,,,,,,,,,,,,,,,,,,,,,,,,,,,,,,,,,,,,,,,,,,,,,,,,,,,,,,,,,,,,,,,,,,,,,,,,,,,,,,,,,,,,,,,,,,,,,,,,,,
,,60e5e98326d94f93738053c5,2024-02-19_02h10.59.230,kallum_motion_pilot,2023.2.2,Win32,142.8571429,60e5e98326d94f93738053c5,65d2b6c8f2eece985d8e374c,65d2b8a950ceff515d57c5c4,0.029,0.029,1,68,230,7,1,fourthree,,,,,,,,,,,,,,,,,,,,,,,,,,,,,,,,,,,,,,,,,,,,,,,,,,,,,,,,,,,,,,,,,,,,,,,,,,,,,,,,,,,,,,,,,,,,,,,,,,,,,,,,,,,,,,,,,,,,,,,,,,,,,,,,,,,,,,,,,
,,60e5e98326d94f93738053c5,2024-02-19_02h10.59.230,kallum_motion_pilot,2023.2.2,Win32,142.8571429,60e5e98326d94f93738053c5,65d2b6c8f2eece985d8e374c,65d2b8a950ceff515d57c5c4,0.029,0.029,1,69,231,22,1,fourtwo,,,,,,,,,,,,,,,,,,,,,,,,,,,,,,,,,,,,,,,,,,,,,,,,,,,,,,,,,,,,,,,,,,,,,,,,,,,,,,,,,,,,,,,,,,,,,,,,,,,,,,,,,,,,,,,,,,,,,,,,,,,,,,,,,,,,,,,,,
,,60e5e98326d94f93738053c5,2024-02-19_02h10.59.230,kallum_motion_pilot,2023.2.2,Win32,142.8571429,60e5e98326d94f93738053c5,65d2b6c8f2eece985d8e374c,65d2b8a950ceff515d57c5c4,0.029,0.029,1,70,232,75,1,twofour,,,,,,,,,,,,,,,,,,,,,,,,,,,,,,,,,,,,,,,,,,,,,,,,,,,,,,,,,,,,,,,,,,,,,,,,,,,,,,,,,,,,,,,,,,,,,,,,,,,,,,,,,,,,,,,,,,,,,,,,,,,,,,,,,,,,,,,,,
,,60e5e98326d94f93738053c5,2024-02-19_02h10.59.230,kallum_motion_pilot,2023.2.2,Win32,142.8571429,60e5e98326d94f93738053c5,65d2b6c8f2eece985d8e374c,65d2b8a950ceff515d57c5c4,0.029,0.029,1,71,233,98,1,sixfive,,,,,,,,,,,,,,,,,,,,,,,,,,,,,,,,,,,,,,,,,,,,,,,,,,,,,,,,,,,,,,,,,,,,,,,,,,,,,,,,,,,,,,,,,,,,,,,,,,,,,,,,,,,,,,,,,,,,,,,,,,,,,,,,,,,,,,,,,
,,60e5e98326d94f93738053c5,2024-02-19_02h10.59.230,kallum_motion_pilot,2023.2.2,Win32,142.8571429,60e5e98326d94f93738053c5,65d2b6c8f2eece985d8e374c,65d2b8a950ceff515d57c5c4,0.029,0.029,1,72,234,124,1,sevenfive,,,,,,,,,,,,,,,,,,,,,,,,,,,,,,,,,,,,,,,,,,,,,,,,,,,,,,,,,,,,,,,,,,,,,,,,,,,,,,,,,,,,,,,,,,,,,,,,,,,,,,,,,,,,,,,,,,,,,,,,,,,,,,,,,,,,,,,,,
,,60e5e98326d94f93738053c5,2024-02-19_02h10.59.230,kallum_motion_pilot,2023.2.2,Win32,142.8571429,60e5e98326d94f93738053c5,65d2b6c8f2eece985d8e374c,65d2b8a950ceff515d57c5c4,0.029,0.029,1,73,235,61,1,threefour,,,,,,,,,,,,,,,,,,,,,,,,,,,,,,,,,,,,,,,,,,,,,,,,,,,,,,,,,,,,,,,,,,,,,,,,,,,,,,,,,,,,,,,,,,,,,,,,,,,,,,,,,,,,,,,,,,,,,,,,,,,,,,,,,,,,,,,,,
,,60e5e98326d94f93738053c5,2024-02-19_02h10.59.230,kallum_motion_pilot,2023.2.2,Win32,142.8571429,60e5e98326d94f93738053c5,65d2b6c8f2eece985d8e374c,65d2b8a950ceff515d57c5c4,0.029,0.029,1,74,236,83,1,sixeight,,,,,,,,,,,,,,,,,,,,,,,,,,,,,,,,,,,,,,,,,,,,,,,,,,,,,,,,,,,,,,,,,,,,,,,,,,,,,,,,,,,,,,,,,,,,,,,,,,,,,,,,,,,,,,,,,,,,,,,,,,,,,,,,,,,,,,,,,
,,60e5e98326d94f93738053c5,2024-02-19_02h10.59.230,kallum_motion_pilot,2023.2.2,Win32,142.8571429,60e5e98326d94f93738053c5,65d2b6c8f2eece985d8e374c,65d2b8a950ceff515d57c5c4,0.029,0.029,1,75,237,36,1,threeone,,,,,,,,,,,,,,,,,,,,,,,,,,,,,,,,,,,,,,,,,,,,,,,,,,,,,,,,,,,,,,,,,,,,,,,,,,,,,,,,,,,,,,,,,,,,,,,,,,,,,,,,,,,,,,,,,,,,,,,,,,,,,,,,,,,,,,,,,
,,60e5e98326d94f93738053c5,2024-02-19_02h10.59.230,kallum_motion_pilot,2023.2.2,Win32,142.8571429,60e5e98326d94f93738053c5,65d2b6c8f2eece985d8e374c,65d2b8a950ceff515d57c5c4,0.029,0.029,1,76,238,86,1,eightsix,,,,,,,,,,,,,,,,,,,,,,,,,,,,,,,,,,,,,,,,,,,,,,,,,,,,,,,,,,,,,,,,,,,,,,,,,,,,,,,,,,,,,,,,,,,,,,,,,,,,,,,,,,,,,,,,,,,,,,,,,,,,,,,,,,,,,,,,,
,,60e5e98326d94f93738053c5,2024-02-19_02h10.59.230,kallum_motion_pilot,2023.2.2,Win32,142.8571429,60e5e98326d94f93738053c5,65d2b6c8f2eece985d8e374c,65d2b8a950ceff515d57c5c4,0.029,0.029,1,77,239,93,1,seveneight,,,,,,,,,,,,,,,,,,,,,,,,,,,,,,,,,,,,,,,,,,,,,,,,,,,,,,,,,,,,,,,,,,,,,,,,,,,,,,,,,,,,,,,,,,,,,,,,,,,,,,,,,,,,,,,,,,,,,,,,,,,,,,,,,,,,,,,,,
,,60e5e98326d94f93738053c5,2024-02-19_02h10.59.230,kallum_motion_pilot,2023.2.2,Win32,142.8571429,60e5e98326d94f93738053c5,65d2b6c8f2eece985d8e374c,65d2b8a950ceff515d57c5c4,0.029,0.029,1,78,240,88,1,fivesix,,,,,,,,,,,,,,,,,,,,,,,,,,,,,,,,,,,,,,,,,,,,,,,,,,,,,,,,,,,,,,,,,,,,,,,,,,,,,,,,,,,,,,,,,,,,,,,,,,,,,,,,,,,,,,,,,,,,,,,,,,,,,,,,,,,,,,,,,
,,60e5e98326d94f93738053c5,2024-02-19_02h10.59.230,kallum_motion_pilot,2023.2.2,Win32,142.8571429,60e5e98326d94f93738053c5,65d2b6c8f2eece985d8e374c,65d2b8a950ceff515d57c5c4,0.029,0.029,1,79,241,53,1,threefour,,,,,,,,,,,,,,,,,,,,,,,,,,,,,,,,,,,,,,,,,,,,,,,,,,,,,,,,,,,,,,,,,,,,,,,,,,,,,,,,,,,,,,,,,,,,,,,,,,,,,,,,,,,,,,,,,,,,,,,,,,,,,,,,,,,,,,,,,
,,60e5e98326d94f93738053c5,2024-02-19_02h10.59.230,kallum_motion_pilot,2023.2.2,Win32,142.8571429,60e5e98326d94f93738053c5,65d2b6c8f2eece985d8e374c,65d2b8a950ceff515d57c5c4,0.029,0.029,1,80,242,135,1,eightseven,,,,,,,,,,,,,,,,,,,,,,,,,,,,,,,,,,,,,,,,,,,,,,,,,,,,,,,,,,,,,,,,,,,,,,,,,,,,,,,,,,,,,,,,,,,,,,,,,,,,,,,,,,,,,,,,,,,,,,,,,,,,,,,,,,,,,,,,,
,,60e5e98326d94f93738053c5,2024-02-19_02h10.59.230,kallum_motion_pilot,2023.2.2,Win32,142.8571429,60e5e98326d94f93738053c5,65d2b6c8f2eece985d8e374c,65d2b8a950ceff515d57c5c4,0.029,0.029,1,81,243,41,1,onethree,,,,,,,,,,,,,,,,,,,,,,,,,,,,,,,,,,,,,,,,,,,,,,,,,,,,,,,,,,,,,,,,,,,,,,,,,,,,,,,,,,,,,,,,,,,,,,,,,,,,,,,,,,,,,,,,,,,,,,,,,,,,,,,,,,,,,,,,,
,,60e5e98326d94f93738053c5,2024-02-19_02h10.59.230,kallum_motion_pilot,2023.2.2,Win32,142.8571429,60e5e98326d94f93738053c5,65d2b6c8f2eece985d8e374c,65d2b8a950ceff515d57c5c4,0.029,0.029,1,82,244,114,1,sixfive,,,,,,,,,,,,,,,,,,,,,,,,,,,,,,,,,,,,,,,,,,,,,,,,,,,,,,,,,,,,,,,,,,,,,,,,,,,,,,,,,,,,,,,,,,,,,,,,,,,,,,,,,,,,,,,,,,,,,,,,,,,,,,,,,,,,,,,,,
,,60e5e98326d94f93738053c5,2024-02-19_02h10.59.230,kallum_motion_pilot,2023.2.2,Win32,142.8571429,60e5e98326d94f93738053c5,65d2b6c8f2eece985d8e374c,65d2b8a950ceff515d57c5c4,0.029,0.03,1,83,245,60,1,threeone,,,,,,,,,,,,,,,,,,,,,,,,,,,,,,,,,,,,,,,,,,,,,,,,,,,,,,,,,,,,,,,,,,,,,,,,,,,,,,,,,,,,,,,,,,,,,,,,,,,,,,,,,,,,,,,,,,,,,,,,,,,,,,,,,,,,,,,,,
,,60e5e98326d94f93738053c5,2024-02-19_02h10.59.230,kallum_motion_pilot,2023.2.2,Win32,142.8571429,60e5e98326d94f93738053c5,65d2b6c8f2eece985d8e374c,65d2b8a950ceff515d57c5c4,0.03,0.03,1,84,246,157,1,seveneight,,,,,,,,,,,,,,,,,,,,,,,,,,,,,,,,,,,,,,,,,,,,,,,,,,,,,,,,,,,,,,,,,,,,,,,,,,,,,,,,,,,,,,,,,,,,,,,,,,,,,,,,,,,,,,,,,,,,,,,,,,,,,,,,,,,,,,,,,
,,60e5e98326d94f93738053c5,2024-02-19_02h10.59.230,kallum_motion_pilot,2023.2.2,Win32,142.8571429,60e5e98326d94f93738053c5,65d2b6c8f2eece985d8e374c,65d2b8a950ceff515d57c5c4,0.03,0.03,1,85,247,116,1,sevenfive,,,,,,,,,,,,,,,,,,,,,,,,,,,,,,,,,,,,,,,,,,,,,,,,,,,,,,,,,,,,,,,,,,,,,,,,,,,,,,,,,,,,,,,,,,,,,,,,,,,,,,,,,,,,,,,,,,,,,,,,,,,,,,,,,,,,,,,,,
,,60e5e98326d94f93738053c5,2024-02-19_02h10.59.230,kallum_motion_pilot,2023.2.2,Win32,142.8571429,60e5e98326d94f93738053c5,65d2b6c8f2eece985d8e374c,65d2b8a950ceff515d57c5c4,0.03,0.03,1,86,248,55,1,fourthree,,,,,,,,,,,,,,,,,,,,,,,,,,,,,,,,,,,,,,,,,,,,,,,,,,,,,,,,,,,,,,,,,,,,,,,,,,,,,,,,,,,,,,,,,,,,,,,,,,,,,,,,,,,,,,,,,,,,,,,,,,,,,,,,,,,,,,,,,
,,60e5e98326d94f93738053c5,2024-02-19_02h10.59.230,kallum_motion_pilot,2023.2.2,Win32,142.8571429,60e5e98326d94f93738053c5,65d2b6c8f2eece985d8e374c,65d2b8a950ceff515d57c5c4,0.03,0.03,1,87,249,72,1,onetwo,,,,,,,,,,,,,,,,,,,,,,,,,,,,,,,,,,,,,,,,,,,,,,,,,,,,,,,,,,,,,,,,,,,,,,,,,,,,,,,,,,,,,,,,,,,,,,,,,,,,,,,,,,,,,,,,,,,,,,,,,,,,,,,,,,,,,,,,,
,,60e5e98326d94f93738053c5,2024-02-19_02h10.59.230,kallum_motion_pilot,2023.2.2,Win32,142.8571429,60e5e98326d94f93738053c5,65d2b6c8f2eece985d8e374c,65d2b8a950ceff515d57c5c4,0.03,0.03,1,88,250,106,1,sixfive,,,,,,,,,,,,,,,,,,,,,,,,,,,,,,,,,,,,,,,,,,,,,,,,,,,,,,,,,,,,,,,,,,,,,,,,,,,,,,,,,,,,,,,,,,,,,,,,,,,,,,,,,,,,,,,,,,,,,,,,,,,,,,,,,,,,,,,,,
,,60e5e98326d94f93738053c5,2024-02-19_02h10.59.230,kallum_motion_pilot,2023.2.2,Win32,142.8571429,60e5e98326d94f93738053c5,65d2b6c8f2eece985d8e374c,65d2b8a950ceff515d57c5c4,0.03,0.03,1,89,251,84,1,sevenfive,,,,,,,,,,,,,,,,,,,,,,,,,,,,,,,,,,,,,,,,,,,,,,,,,,,,,,,,,,,,,,,,,,,,,,,,,,,,,,,,,,,,,,,,,,,,,,,,,,,,,,,,,,,,,,,,,,,,,,,,,,,,,,,,,,,,,,,,,
,,60e5e98326d94f93738053c5,2024-02-19_02h10.59.230,kallum_motion_pilot,2023.2.2,Win32,142.8571429,60e5e98326d94f93738053c5,65d2b6c8f2eece985d8e374c,65d2b8a950ceff515d57c5c4,0.03,0.03,1,90,252,20,1,threeone,,,,,,,,,,,,,,,,,,,,,,,,,,,,,,,,,,,,,,,,,,,,,,,,,,,,,,,,,,,,,,,,,,,,,,,,,,,,,,,,,,,,,,,,,,,,,,,,,,,,,,,,,,,,,,,,,,,,,,,,,,,,,,,,,,,,,,,,,
,,60e5e98326d94f93738053c5,2024-02-19_02h10.59.230,kallum_motion_pilot,2023.2.2,Win32,142.8571429,60e5e98326d94f93738053c5,65d2b6c8f2eece985d8e374c,65d2b8a950ceff515d57c5c4,0.03,0.03,1,91,253,142,1,eightsix,,,,,,,,,,,,,,,,,,,,,,,,,,,,,,,,,,,,,,,,,,,,,,,,,,,,,,,,,,,,,,,,,,,,,,,,,,,,,,,,,,,,,,,,,,,,,,,,,,,,,,,,,,,,,,,,,,,,,,,,,,,,,,,,,,,,,,,,,
,,60e5e98326d94f93738053c5,2024-02-19_02h10.59.230,kallum_motion_pilot,2023.2.2,Win32,142.8571429,60e5e98326d94f93738053c5,65d2b6c8f2eece985d8e374c,65d2b8a950ceff515d57c5c4,0.03,0.03,1,92,254,45,1,threefour,,,,,,,,,,,,,,,,,,,,,,,,,,,,,,,,,,,,,,,,,,,,,,,,,,,,,,,,,,,,,,,,,,,,,,,,,,,,,,,,,,,,,,,,,,,,,,,,,,,,,,,,,,,,,,,,,,,,,,,,,,,,,,,,,,,,,,,,,
,,60e5e98326d94f93738053c5,2024-02-19_02h10.59.230,kallum_motion_pilot,2023.2.2,Win32,142.8571429,60e5e98326d94f93738053c5,65d2b6c8f2eece985d8e374c,65d2b8a950ceff515d57c5c4,0.03,0.03,1,93,255,155,1,sixeight,,,,,,,,,,,,,,,,,,,,,,,,,,,,,,,,,,,,,,,,,,,,,,,,,,,,,,,,,,,,,,,,,,,,,,,,,,,,,,,,,,,,,,,,,,,,,,,,,,,,,,,,,,,,,,,,,,,,,,,,,,,,,,,,,,,,,,,,,
,,60e5e98326d94f93738053c5,2024-02-19_02h10.59.230,kallum_motion_pilot,2023.2.2,Win32,142.8571429,60e5e98326d94f93738053c5,65d2b6c8f2eece985d8e374c,65d2b8a950ceff515d57c5c4,0.03,0.031,1,94,256,76,1,threeone,,,,,,,,,,,,,,,,,,,,,,,,,,,,,,,,,,,,,,,,,,,,,,,,,,,,,,,,,,,,,,,,,,,,,,,,,,,,,,,,,,,,,,,,,,,,,,,,,,,,,,,,,,,,,,,,,,,,,,,,,,,,,,,,,,,,,,,,,
,,60e5e98326d94f93738053c5,2024-02-19_02h10.59.230,kallum_motion_pilot,2023.2.2,Win32,142.8571429,60e5e98326d94f93738053c5,65d2b6c8f2eece985d8e374c,65d2b8a950ceff515d57c5c4,0.031,0.031,1,95,257,32,1,onetwo,,,,,,,,,,,,,,,,,,,,,,,,,,,,,,,,,,,,,,,,,,,,,,,,,,,,,,,,,,,,,,,,,,,,,,,,,,,,,,,,,,,,,,,,,,,,,,,,,,,,,,,,,,,,,,,,,,,,,,,,,,,,,,,,,,,,,,,,,
,,60e5e98326d94f93738053c5,2024-02-19_02h10.59.230,kallum_motion_pilot,2023.2.2,Win32,142.8571429,60e5e98326d94f93738053c5,65d2b6c8f2eece985d8e374c,65d2b8a950ceff515d57c5c4,0.031,0.031,1,96,258,90,1,sixfive,,,,,,,,,,,,,,,,,,,,,,,,,,,,,,,,,,,,,,,,,,,,,,,,,,,,,,,,,,,,,,,,,,,,,,,,,,,,,,,,,,,,,,,,,,,,,,,,,,,,,,,,,,,,,,,,,,,,,,,,,,,,,,,,,,,,,,,,,
,,60e5e98326d94f93738053c5,2024-02-19_02h10.59.230,kallum_motion_pilot,2023.2.2,Win32,142.8571429,60e5e98326d94f93738053c5,65d2b6c8f2eece985d8e374c,65d2b8a950ceff515d57c5c4,0.031,0.032,1,97,259,54,1,fourtwo,,,,,,,,,,,,,,,,,,,,,,,,,,,,,,,,,,,,,,,,,,,,,,,,,,,,,,,,,,,,,,,,,,,,,,,,,,,,,,,,,,,,,,,,,,,,,,,,,,,,,,,,,,,,,,,,,,,,,,,,,,,,,,,,,,,,,,,,,
,,60e5e98326d94f93738053c5,2024-02-19_02h10.59.230,kallum_motion_pilot,2023.2.2,Win32,142.8571429,60e5e98326d94f93738053c5,65d2b6c8f2eece985d8e374c,65d2b8a950ceff515d57c5c4,0.032,0.032,1,98,260,66,1,twoone,,,,,,,,,,,,,,,,,,,,,,,,,,,,,,,,,,,,,,,,,,,,,,,,,,,,,,,,,,,,,,,,,,,,,,,,,,,,,,,,,,,,,,,,,,,,,,,,,,,,,,,,,,,,,,,,,,,,,,,,,,,,,,,,,,,,,,,,,
,,60e5e98326d94f93738053c5,2024-02-19_02h10.59.230,kallum_motion_pilot,2023.2.2,Win32,142.8571429,60e5e98326d94f93738053c5,65d2b6c8f2eece985d8e374c,65d2b8a950ceff515d57c5c4,0.032,0.032,1,99,261,156,1,sevenfive,,,,,,,,,,,,,,,,,,,,,,,,,,,,,,,,,,,,,,,,,,,,,,,,,,,,,,,,,,,,,,,,,,,,,,,,,,,,,,,,,,,,,,,,,,,,,,,,,,,,,,,,,,,,,,,,,,,,,,,,,,,,,,,,,,,,,,,,,
,,60e5e98326d94f93738053c5,2024-02-19_02h10.59.230,kallum_motion_pilot,2023.2.2,Win32,142.8571429,60e5e98326d94f93738053c5,65d2b6c8f2eece985d8e374c,65d2b8a950ceff515d57c5c4,0.032,0.032,1,100,262,105,1,fiveseven,,,,,,,,,,,,,,,,,,,,,,,,,,,,,,,,,,,,,,,,,,,,,,,,,,,,,,,,,,,,,,,,,,,,,,,,,,,,,,,,,,,,,,,,,,,,,,,,,,,,,,,,,,,,,,,,,,,,,,,,,,,,,,,,,,,,,,,,,
,,60e5e98326d94f93738053c5,2024-02-19_02h10.59.230,kallum_motion_pilot,2023.2.2,Win32,142.8571429,60e5e98326d94f93738053c5,65d2b6c8f2eece985d8e374c,65d2b8a950ceff515d57c5c4,0.032,0.032,1,101,263,134,1,eightsix,,,,,,,,,,,,,,,,,,,,,,,,,,,,,,,,,,,,,,,,,,,,,,,,,,,,,,,,,,,,,,,,,,,,,,,,,,,,,,,,,,,,,,,,,,,,,,,,,,,,,,,,,,,,,,,,,,,,,,,,,,,,,,,,,,,,,,,,,
,,60e5e98326d94f93738053c5,2024-02-19_02h10.59.230,kallum_motion_pilot,2023.2.2,Win32,142.8571429,60e5e98326d94f93738053c5,65d2b6c8f2eece985d8e374c,65d2b8a950ceff515d57c5c4,0.032,0.032,1,102,264,25,1,onethree,,,,,,,,,,,,,,,,,,,,,,,,,,,,,,,,,,,,,,,,,,,,,,,,,,,,,,,,,,,,,,,,,,,,,,,,,,,,,,,,,,,,,,,,,,,,,,,,,,,,,,,,,,,,,,,,,,,,,,,,,,,,,,,,,,,,,,,,,
,,60e5e98326d94f93738053c5,2024-02-19_02h10.59.230,kallum_motion_pilot,2023.2.2,Win32,142.8571429,60e5e98326d94f93738053c5,65d2b6c8f2eece985d8e374c,65d2b8a950ceff515d57c5c4,0.032,0.032,1,103,265,42,1,twoone,,,,,,,,,,,,,,,,,,,,,,,,,,,,,,,,,,,,,,,,,,,,,,,,,,,,,,,,,,,,,,,,,,,,,,,,,,,,,,,,,,,,,,,,,,,,,,,,,,,,,,,,,,,,,,,,,,,,,,,,,,,,,,,,,,,,,,,,,
,,60e5e98326d94f93738053c5,2024-02-19_02h10.59.230,kallum_motion_pilot,2023.2.2,Win32,142.8571429,60e5e98326d94f93738053c5,65d2b6c8f2eece985d8e374c,65d2b8a950ceff515d57c5c4,0.032,0.032,1,104,266,89,1,fiveseven,,,,,,,,,,,,,,,,,,,,,,,,,,,,,,,,,,,,,,,,,,,,,,,,,,,,,,,,,,,,,,,,,,,,,,,,,,,,,,,,,,,,,,,,,,,,,,,,,,,,,,,,,,,,,,,,,,,,,,,,,,,,,,,,,,,,,,,,,
,,60e5e98326d94f93738053c5,2024-02-19_02h10.59.230,kallum_motion_pilot,2023.2.2,Win32,142.8571429,60e5e98326d94f93738053c5,65d2b6c8f2eece985d8e374c,65d2b8a950ceff515d57c5c4,0.032,0.032,1,105,267,159,1,eightseven,,,,,,,,,,,,,,,,,,,,,,,,,,,,,,,,,,,,,,,,,,,,,,,,,,,,,,,,,,,,,,,,,,,,,,,,,,,,,,,,,,,,,,,,,,,,,,,,,,,,,,,,,,,,,,,,,,,,,,,,,,,,,,,,,,,,,,,,,
,,60e5e98326d94f93738053c5,2024-02-19_02h10.59.230,kallum_motion_pilot,2023.2.2,Win32,142.8571429,60e5e98326d94f93738053c5,65d2b6c8f2eece985d8e374c,65d2b8a950ceff515d57c5c4,0.032,0.032,1,106,268,37,1,threefour,,,,,,,,,,,,,,,,,,,,,,,,,,,,,,,,,,,,,,,,,,,,,,,,,,,,,,,,,,,,,,,,,,,,,,,,,,,,,,,,,,,,,,,,,,,,,,,,,,,,,,,,,,,,,,,,,,,,,,,,,,,,,,,,,,,,,,,,,
,,60e5e98326d94f93738053c5,2024-02-19_02h10.59.230,kallum_motion_pilot,2023.2.2,Win32,142.8571429,60e5e98326d94f93738053c5,65d2b6c8f2eece985d8e374c,65d2b8a950ceff515d57c5c4,0.032,0.032,1,107,269,148,1,sevenfive,,,,,,,,,,,,,,,,,,,,,,,,,,,,,,,,,,,,,,,,,,,,,,,,,,,,,,,,,,,,,,,,,,,,,,,,,,,,,,,,,,,,,,,,,,,,,,,,,,,,,,,,,,,,,,,,,,,,,,,,,,,,,,,,,,,,,,,,,
,,60e5e98326d94f93738053c5,2024-02-19_02h10.59.230,kallum_motion_pilot,2023.2.2,Win32,142.8571429,60e5e98326d94f93738053c5,65d2b6c8f2eece985d8e374c,65d2b8a950ceff515d57c5c4,0.032,0.032,1,108,270,138,1,sixfive,,,,,,,,,,,,,,,,,,,,,,,,,,,,,,,,,,,,,,,,,,,,,,,,,,,,,,,,,,,,,,,,,,,,,,,,,,,,,,,,,,,,,,,,,,,,,,,,,,,,,,,,,,,,,,,,,,,,,,,,,,,,,,,,,,,,,,,,,
,,60e5e98326d94f93738053c5,2024-02-19_02h10.59.230,kallum_motion_pilot,2023.2.2,Win32,142.8571429,60e5e98326d94f93738053c5,65d2b6c8f2eece985d8e374c,65d2b8a950ceff515d57c5c4,0.032,0.032,1,109,271,13,1,threefour,,,,,,,,,,,,,,,,,,,,,,,,,,,,,,,,,,,,,,,,,,,,,,,,,,,,,,,,,,,,,,,,,,,,,,,,,,,,,,,,,,,,,,,,,,,,,,,,,,,,,,,,,,,,,,,,,,,,,,,,,,,,,,,,,,,,,,,,,
,,60e5e98326d94f93738053c5,2024-02-19_02h10.59.230,kallum_motion_pilot,2023.2.2,Win32,142.8571429,60e5e98326d94f93738053c5,65d2b6c8f2eece985d8e374c,65d2b8a950ceff515d57c5c4,0.032,0.032,1,110,272,4,1,threeone,,,,,,,,,,,,,,,,,,,,,,,,,,,,,,,,,,,,,,,,,,,,,,,,,,,,,,,,,,,,,,,,,,,,,,,,,,,,,,,,,,,,,,,,,,,,,,,,,,,,,,,,,,,,,,,,,,,,,,,,,,,,,,,,,,,,,,,,,
,,60e5e98326d94f93738053c5,2024-02-19_02h10.59.230,kallum_motion_pilot,2023.2.2,Win32,142.8571429,60e5e98326d94f93738053c5,65d2b6c8f2eece985d8e374c,65d2b8a950ceff515d57c5c4,0.033,0.033,1,111,273,14,1,fourtwo,,,,,,,,,,,,,,,,,,,,,,,,,,,,,,,,,,,,,,,,,,,,,,,,,,,,,,,,,,,,,,,,,,,,,,,,,,,,,,,,,,,,,,,,,,,,,,,,,,,,,,,,,,,,,,,,,,,,,,,,,,,,,,,,,,,,,,,,,
,,60e5e98326d94f93738053c5,2024-02-19_02h10.59.230,kallum_motion_pilot,2023.2.2,Win32,142.8571429,60e5e98326d94f93738053c5,65d2b6c8f2eece985d8e374c,65d2b8a950ceff515d57c5c4,0.033,0.033,1,112,274,39,1,fourthree,,,,,,,,,,,,,,,,,,,,,,,,,,,,,,,,,,,,,,,,,,,,,,,,,,,,,,,,,,,,,,,,,,,,,,,,,,,,,,,,,,,,,,,,,,,,,,,,,,,,,,,,,,,,,,,,,,,,,,,,,,,,,,,,,,,,,,,,,
,,60e5e98326d94f93738053c5,2024-02-19_02h10.59.230,kallum_motion_pilot,2023.2.2,Win32,142.8571429,60e5e98326d94f93738053c5,65d2b6c8f2eece985d8e374c,65d2b8a950ceff515d57c5c4,0.033,0.033,1,113,275,115,1,sixeight,,,,,,,,,,,,,,,,,,,,,,,,,,,,,,,,,,,,,,,,,,,,,,,,,,,,,,,,,,,,,,,,,,,,,,,,,,,,,,,,,,,,,,,,,,,,,,,,,,,,,,,,,,,,,,,,,,,,,,,,,,,,,,,,,,,,,,,,,
,,60e5e98326d94f93738053c5,2024-02-19_02h10.59.230,kallum_motion_pilot,2023.2.2,Win32,142.8571429,60e5e98326d94f93738053c5,65d2b6c8f2eece985d8e374c,65d2b8a950ceff515d57c5c4,0.033,0.033,1,114,276,95,1,eightseven,,,,,,,,,,,,,,,,,,,,,,,,,,,,,,,,,,,,,,,,,,,,,,,,,,,,,,,,,,,,,,,,,,,,,,,,,,,,,,,,,,,,,,,,,,,,,,,,,,,,,,,,,,,,,,,,,,,,,,,,,,,,,,,,,,,,,,,,,
,,60e5e98326d94f93738053c5,2024-02-19_02h10.59.230,kallum_motion_pilot,2023.2.2,Win32,142.8571429,60e5e98326d94f93738053c5,65d2b6c8f2eece985d8e374c,65d2b8a950ceff515d57c5c4,0.033,0.033,1,115,277,16,1,onetwo,,,,,,,,,,,,,,,,,,,,,,,,,,,,,,,,,,,,,,,,,,,,,,,,,,,,,,,,,,,,,,,,,,,,,,,,,,,,,,,,,,,,,,,,,,,,,,,,,,,,,,,,,,,,,,,,,,,,,,,,,,,,,,,,,,,,,,,,,
,,60e5e98326d94f93738053c5,2024-02-19_02h10.59.230,kallum_motion_pilot,2023.2.2,Win32,142.8571429,60e5e98326d94f93738053c5,65d2b6c8f2eece985d8e374c,65d2b8a950ceff515d57c5c4,0.033,0.033,1,116,278,94,1,eightsix,,,,,,,,,,,,,,,,,,,,,,,,,,,,,,,,,,,,,,,,,,,,,,,,,,,,,,,,,,,,,,,,,,,,,,,,,,,,,,,,,,,,,,,,,,,,,,,,,,,,,,,,,,,,,,,,,,,,,,,,,,,,,,,,,,,,,,,,,
,,60e5e98326d94f93738053c5,2024-02-19_02h10.59.230,kallum_motion_pilot,2023.2.2,Win32,142.8571429,60e5e98326d94f93738053c5,65d2b6c8f2eece985d8e374c,65d2b8a950ceff515d57c5c4,0.033,0.033,1,117,279,24,1,onetwo,,,,,,,,,,,,,,,,,,,,,,,,,,,,,,,,,,,,,,,,,,,,,,,,,,,,,,,,,,,,,,,,,,,,,,,,,,,,,,,,,,,,,,,,,,,,,,,,,,,,,,,,,,,,,,,,,,,,,,,,,,,,,,,,,,,,,,,,,
