startup.started,startup.stopped,Prolific ID*,date,expName,psychopyVersion,OS,frameRate,participant,study_id,session,stimpositions.started,stimpositions.stopped,hardcoded_stimulus_positions.thisRepN,hardcoded_stimulus_positions.thisTrialN,hardcoded_stimulus_positions.thisN,hardcoded_stimulus_positions.thisIndex,hardcoded_stimulus_positions.ran,StimulusPos,stimorientation.started,stimorientation.stopped,prac_stimorientation_import_loop.thisRepN,prac_stimorientation_import_loop.thisTrialN,prac_stimorientation_import_loop.thisN,prac_stimorientation_import_loop.thisIndex,prac_stimorientation_import_loop.ran,Stimorientation,welcome_instr.started,welcome_instr.stopped,key_resp.keys,key_resp.rt,key_resp.duration,response_steppedout_1.started,response_steppedout_1.stopped,key_resp_20.keys,key_resp_20.rt,key_resp_20.duration,response_steppedout_2.started,response_steppedout_2.stopped,key_resp_19.keys,key_resp_19.rt,key_resp_19.duration,stim_response_instr.started,stim_response_instr.stopped,key_resp_15.keys,key_resp_15.rt,key_resp_15.duration,direction_instr_2.started,direction_instr_2.stopped,key_resp_9.keys,key_resp_9.rt,key_resp_9.duration,instr_prac.started,instr_prac.stopped,key_resp_10.keys,key_resp_10.rt,key_resp_10.duration,Stim1_display_prac.started,Stim1_display_prac.stopped,Ecc,Circle1_ori,Circle2_ori,response_prac.started,similarity,response_time,response_prac.stopped,mouse_5.x,mouse_5.y,mouse_5.leftButton,mouse_5.midButton,mouse_5.rightButton,mouse_5.clicked_name,responseprac_feedback.started,responseprac_feedback.stopped,summary2_prac.started,summary2_prac.stopped,mouse_6.x,mouse_6.y,mouse_6.leftButton,mouse_6.midButton,mouse_6.rightButton,mouse_6.clicked_name,duringprac.thisRepN,duringprac.thisTrialN,duringprac.thisN,duringprac.thisIndex,duringprac.ran,begin.started,begin.stopped,key_resp_22.keys,key_resp_22.rt,key_resp_22.duration,Stim1_display.started,Stim1_display.stopped,circle1_ori,circle2_ori,circle1_SF,circle2_SF,response.started,response.stopped,mouse.x,mouse.y,mouse.leftButton,mouse.midButton,mouse.rightButton,mouse.clicked_name,trialnumber,double_pass.thisRepN,double_pass.thisTrialN,double_pass.thisN,double_pass.thisIndex,double_pass.ran,double_pass.order,main_trial.thisRepN,main_trial.thisTrialN,main_trial.thisN,main_trial.thisIndex,main_trial.ran,main_trial.order,Trial_Counter,Catch,Frequencies,response_2.started,response_2.stopped,mouse_2.x,mouse_2.y,mouse_2.leftButton,mouse_2.midButton,mouse_2.rightButton,mouse_2.clicked_name,special_trial.started,special_trial.stopped,catch_1.started,catch_1.stopped,mouse_3.x,mouse_3.y,mouse_3.leftButton,mouse_3.midButton,mouse_3.rightButton,catchresponse,catchnumber,response_time_catch,response_sum.started,response_sum.stopped,mouse_11.x,mouse_11.y,mouse_11.leftButton,mouse_11.midButton,mouse_11.rightButton,flip_presentation_sequence_for_double_pass.started,flip_presentation_sequence_for_double_pass.stopped,goodbye.started,goodbye.stopped,key_resp_3.keys,key_resp_3.rt,key_resp_3.duration
0.0003,0.0003,60ea5c6d8fcc1129d20b7b92,2024-02-21_19h27.13.534,kallum_motion_pilot,2023.2.2,Win32,82.6446281,60ea5c6d8fcc1129d20b7b92,65d6bb0e977760de756971f7,65d6befb979b6efb5b451d21,,,,,,,,,,,,,,,,,,,,,,,,,,,,,,,,,,,,,,,,,,,,,,,,,,,,,,,,,,,,,,,,,,,,,,,,,,,,,,,,,,,,,,,,,,,,,,,,,,,,,,,,,,,,,,,,,,,,,,,,,,,,,,,,,,,,,,,,,,,,,,,,,
,,60ea5c6d8fcc1129d20b7b92,2024-02-21_19h27.13.534,kallum_motion_pilot,2023.2.2,Win32,82.6446281,60ea5c6d8fcc1129d20b7b92,65d6bb0e977760de756971f7,65d6befb979b6efb5b451d21,0.0145,0.0146,0,0,0,30,1,fourtwo,,,,,,,,,,,,,,,,,,,,,,,,,,,,,,,,,,,,,,,,,,,,,,,,,,,,,,,,,,,,,,,,,,,,,,,,,,,,,,,,,,,,,,,,,,,,,,,,,,,,,,,,,,,,,,,,,,,,,,,,,,,,,,,,,,,,,,,,,
,,60ea5c6d8fcc1129d20b7b92,2024-02-21_19h27.13.534,kallum_motion_pilot,2023.2.2,Win32,82.6446281,60ea5c6d8fcc1129d20b7b92,65d6bb0e977760de756971f7,65d6befb979b6efb5b451d21,0.0148,0.0148,0,1,1,0,1,onetwo,,,,,,,,,,,,,,,,,,,,,,,,,,,,,,,,,,,,,,,,,,,,,,,,,,,,,,,,,,,,,,,,,,,,,,,,,,,,,,,,,,,,,,,,,,,,,,,,,,,,,,,,,,,,,,,,,,,,,,,,,,,,,,,,,,,,,,,,,
,,60ea5c6d8fcc1129d20b7b92,2024-02-21_19h27.13.534,kallum_motion_pilot,2023.2.2,Win32,82.6446281,60ea5c6d8fcc1129d20b7b92,65d6bb0e977760de756971f7,65d6befb979b6efb5b451d21,0.0149,0.0149,0,2,2,97,1,fiveseven,,,,,,,,,,,,,,,,,,,,,,,,,,,,,,,,,,,,,,,,,,,,,,,,,,,,,,,,,,,,,,,,,,,,,,,,,,,,,,,,,,,,,,,,,,,,,,,,,,,,,,,,,,,,,,,,,,,,,,,,,,,,,,,,,,,,,,,,,
,,60ea5c6d8fcc1129d20b7b92,2024-02-21_19h27.13.534,kallum_motion_pilot,2023.2.2,Win32,82.6446281,60ea5c6d8fcc1129d20b7b92,65d6bb0e977760de756971f7,65d6befb979b6efb5b451d21,0.0149,0.0149,0,3,3,25,1,onethree,,,,,,,,,,,,,,,,,,,,,,,,,,,,,,,,,,,,,,,,,,,,,,,,,,,,,,,,,,,,,,,,,,,,,,,,,,,,,,,,,,,,,,,,,,,,,,,,,,,,,,,,,,,,,,,,,,,,,,,,,,,,,,,,,,,,,,,,,
,,60ea5c6d8fcc1129d20b7b92,2024-02-21_19h27.13.534,kallum_motion_pilot,2023.2.2,Win32,82.6446281,60ea5c6d8fcc1129d20b7b92,65d6bb0e977760de756971f7,65d6befb979b6efb5b451d21,0.0149,0.0149,0,4,4,148,1,sevenfive,,,,,,,,,,,,,,,,,,,,,,,,,,,,,,,,,,,,,,,,,,,,,,,,,,,,,,,,,,,,,,,,,,,,,,,,,,,,,,,,,,,,,,,,,,,,,,,,,,,,,,,,,,,,,,,,,,,,,,,,,,,,,,,,,,,,,,,,,
,,60ea5c6d8fcc1129d20b7b92,2024-02-21_19h27.13.534,kallum_motion_pilot,2023.2.2,Win32,82.6446281,60ea5c6d8fcc1129d20b7b92,65d6bb0e977760de756971f7,65d6befb979b6efb5b451d21,0.015,0.015,0,5,5,106,1,sixfive,,,,,,,,,,,,,,,,,,,,,,,,,,,,,,,,,,,,,,,,,,,,,,,,,,,,,,,,,,,,,,,,,,,,,,,,,,,,,,,,,,,,,,,,,,,,,,,,,,,,,,,,,,,,,,,,,,,,,,,,,,,,,,,,,,,,,,,,,
,,60ea5c6d8fcc1129d20b7b92,2024-02-21_19h27.13.534,kallum_motion_pilot,2023.2.2,Win32,82.6446281,60ea5c6d8fcc1129d20b7b92,65d6bb0e977760de756971f7,65d6befb979b6efb5b451d21,0.0151,0.0151,0,6,6,32,1,onetwo,,,,,,,,,,,,,,,,,,,,,,,,,,,,,,,,,,,,,,,,,,,,,,,,,,,,,,,,,,,,,,,,,,,,,,,,,,,,,,,,,,,,,,,,,,,,,,,,,,,,,,,,,,,,,,,,,,,,,,,,,,,,,,,,,,,,,,,,,
,,60ea5c6d8fcc1129d20b7b92,2024-02-21_19h27.13.534,kallum_motion_pilot,2023.2.2,Win32,82.6446281,60ea5c6d8fcc1129d20b7b92,65d6bb0e977760de756971f7,65d6befb979b6efb5b451d21,0.0151,0.0151,0,7,7,131,1,sixeight,,,,,,,,,,,,,,,,,,,,,,,,,,,,,,,,,,,,,,,,,,,,,,,,,,,,,,,,,,,,,,,,,,,,,,,,,,,,,,,,,,,,,,,,,,,,,,,,,,,,,,,,,,,,,,,,,,,,,,,,,,,,,,,,,,,,,,,,,
,,60ea5c6d8fcc1129d20b7b92,2024-02-21_19h27.13.534,kallum_motion_pilot,2023.2.2,Win32,82.6446281,60ea5c6d8fcc1129d20b7b92,65d6bb0e977760de756971f7,65d6befb979b6efb5b451d21,0.0152,0.0152,0,8,8,52,1,threeone,,,,,,,,,,,,,,,,,,,,,,,,,,,,,,,,,,,,,,,,,,,,,,,,,,,,,,,,,,,,,,,,,,,,,,,,,,,,,,,,,,,,,,,,,,,,,,,,,,,,,,,,,,,,,,,,,,,,,,,,,,,,,,,,,,,,,,,,,
,,60ea5c6d8fcc1129d20b7b92,2024-02-21_19h27.13.534,kallum_motion_pilot,2023.2.2,Win32,82.6446281,60ea5c6d8fcc1129d20b7b92,65d6bb0e977760de756971f7,65d6befb979b6efb5b451d21,0.0153,0.0153,0,9,9,133,1,seveneight,,,,,,,,,,,,,,,,,,,,,,,,,,,,,,,,,,,,,,,,,,,,,,,,,,,,,,,,,,,,,,,,,,,,,,,,,,,,,,,,,,,,,,,,,,,,,,,,,,,,,,,,,,,,,,,,,,,,,,,,,,,,,,,,,,,,,,,,,
,,60ea5c6d8fcc1129d20b7b92,2024-02-21_19h27.13.534,kallum_motion_pilot,2023.2.2,Win32,82.6446281,60ea5c6d8fcc1129d20b7b92,65d6bb0e977760de756971f7,65d6befb979b6efb5b451d21,0.0153,0.0153,0,10,10,5,1,threefour,,,,,,,,,,,,,,,,,,,,,,,,,,,,,,,,,,,,,,,,,,,,,,,,,,,,,,,,,,,,,,,,,,,,,,,,,,,,,,,,,,,,,,,,,,,,,,,,,,,,,,,,,,,,,,,,,,,,,,,,,,,,,,,,,,,,,,,,,
,,60ea5c6d8fcc1129d20b7b92,2024-02-21_19h27.13.534,kallum_motion_pilot,2023.2.2,Win32,82.6446281,60ea5c6d8fcc1129d20b7b92,65d6bb0e977760de756971f7,65d6befb979b6efb5b451d21,0.0154,0.0154,0,11,11,27,1,twofour,,,,,,,,,,,,,,,,,,,,,,,,,,,,,,,,,,,,,,,,,,,,,,,,,,,,,,,,,,,,,,,,,,,,,,,,,,,,,,,,,,,,,,,,,,,,,,,,,,,,,,,,,,,,,,,,,,,,,,,,,,,,,,,,,,,,,,,,,
,,60ea5c6d8fcc1129d20b7b92,2024-02-21_19h27.13.534,kallum_motion_pilot,2023.2.2,Win32,82.6446281,60ea5c6d8fcc1129d20b7b92,65d6bb0e977760de756971f7,65d6befb979b6efb5b451d21,0.0154,0.0154,0,12,12,48,1,onetwo,,,,,,,,,,,,,,,,,,,,,,,,,,,,,,,,,,,,,,,,,,,,,,,,,,,,,,,,,,,,,,,,,,,,,,,,,,,,,,,,,,,,,,,,,,,,,,,,,,,,,,,,,,,,,,,,,,,,,,,,,,,,,,,,,,,,,,,,,
,,60ea5c6d8fcc1129d20b7b92,2024-02-21_19h27.13.534,kallum_motion_pilot,2023.2.2,Win32,82.6446281,60ea5c6d8fcc1129d20b7b92,65d6bb0e977760de756971f7,65d6befb979b6efb5b451d21,0.0154,0.0154,0,13,13,68,1,threeone,,,,,,,,,,,,,,,,,,,,,,,,,,,,,,,,,,,,,,,,,,,,,,,,,,,,,,,,,,,,,,,,,,,,,,,,,,,,,,,,,,,,,,,,,,,,,,,,,,,,,,,,,,,,,,,,,,,,,,,,,,,,,,,,,,,,,,,,,
,,60ea5c6d8fcc1129d20b7b92,2024-02-21_19h27.13.534,kallum_motion_pilot,2023.2.2,Win32,82.6446281,60ea5c6d8fcc1129d20b7b92,65d6bb0e977760de756971f7,65d6befb979b6efb5b451d21,0.0154,0.0154,0,14,14,105,1,fiveseven,,,,,,,,,,,,,,,,,,,,,,,,,,,,,,,,,,,,,,,,,,,,,,,,,,,,,,,,,,,,,,,,,,,,,,,,,,,,,,,,,,,,,,,,,,,,,,,,,,,,,,,,,,,,,,,,,,,,,,,,,,,,,,,,,,,,,,,,,
,,60ea5c6d8fcc1129d20b7b92,2024-02-21_19h27.13.534,kallum_motion_pilot,2023.2.2,Win32,82.6446281,60ea5c6d8fcc1129d20b7b92,65d6bb0e977760de756971f7,65d6befb979b6efb5b451d21,0.0155,0.0155,0,15,15,94,1,eightsix,,,,,,,,,,,,,,,,,,,,,,,,,,,,,,,,,,,,,,,,,,,,,,,,,,,,,,,,,,,,,,,,,,,,,,,,,,,,,,,,,,,,,,,,,,,,,,,,,,,,,,,,,,,,,,,,,,,,,,,,,,,,,,,,,,,,,,,,,
,,60ea5c6d8fcc1129d20b7b92,2024-02-21_19h27.13.534,kallum_motion_pilot,2023.2.2,Win32,82.6446281,60ea5c6d8fcc1129d20b7b92,65d6bb0e977760de756971f7,65d6befb979b6efb5b451d21,0.0155,0.0155,0,16,16,85,1,seveneight,,,,,,,,,,,,,,,,,,,,,,,,,,,,,,,,,,,,,,,,,,,,,,,,,,,,,,,,,,,,,,,,,,,,,,,,,,,,,,,,,,,,,,,,,,,,,,,,,,,,,,,,,,,,,,,,,,,,,,,,,,,,,,,,,,,,,,,,,
,,60ea5c6d8fcc1129d20b7b92,2024-02-21_19h27.13.534,kallum_motion_pilot,2023.2.2,Win32,82.6446281,60ea5c6d8fcc1129d20b7b92,65d6bb0e977760de756971f7,65d6befb979b6efb5b451d21,0.0156,0.0156,0,17,17,152,1,fivesix,,,,,,,,,,,,,,,,,,,,,,,,,,,,,,,,,,,,,,,,,,,,,,,,,,,,,,,,,,,,,,,,,,,,,,,,,,,,,,,,,,,,,,,,,,,,,,,,,,,,,,,,,,,,,,,,,,,,,,,,,,,,,,,,,,,,,,,,,
,,60ea5c6d8fcc1129d20b7b92,2024-02-21_19h27.13.534,kallum_motion_pilot,2023.2.2,Win32,82.6446281,60ea5c6d8fcc1129d20b7b92,65d6bb0e977760de756971f7,65d6befb979b6efb5b451d21,0.0156,0.0156,0,18,18,118,1,eightsix,,,,,,,,,,,,,,,,,,,,,,,,,,,,,,,,,,,,,,,,,,,,,,,,,,,,,,,,,,,,,,,,,,,,,,,,,,,,,,,,,,,,,,,,,,,,,,,,,,,,,,,,,,,,,,,,,,,,,,,,,,,,,,,,,,,,,,,,,
,,60ea5c6d8fcc1129d20b7b92,2024-02-21_19h27.13.534,kallum_motion_pilot,2023.2.2,Win32,82.6446281,60ea5c6d8fcc1129d20b7b92,65d6bb0e977760de756971f7,65d6befb979b6efb5b451d21,0.0156,0.0157,0,19,19,45,1,threefour,,,,,,,,,,,,,,,,,,,,,,,,,,,,,,,,,,,,,,,,,,,,,,,,,,,,,,,,,,,,,,,,,,,,,,,,,,,,,,,,,,,,,,,,,,,,,,,,,,,,,,,,,,,,,,,,,,,,,,,,,,,,,,,,,,,,,,,,,
,,60ea5c6d8fcc1129d20b7b92,2024-02-21_19h27.13.534,kallum_motion_pilot,2023.2.2,Win32,82.6446281,60ea5c6d8fcc1129d20b7b92,65d6bb0e977760de756971f7,65d6befb979b6efb5b451d21,0.0157,0.0157,0,20,20,80,1,fivesix,,,,,,,,,,,,,,,,,,,,,,,,,,,,,,,,,,,,,,,,,,,,,,,,,,,,,,,,,,,,,,,,,,,,,,,,,,,,,,,,,,,,,,,,,,,,,,,,,,,,,,,,,,,,,,,,,,,,,,,,,,,,,,,,,,,,,,,,,
,,60ea5c6d8fcc1129d20b7b92,2024-02-21_19h27.13.534,kallum_motion_pilot,2023.2.2,Win32,82.6446281,60ea5c6d8fcc1129d20b7b92,65d6bb0e977760de756971f7,65d6befb979b6efb5b451d21,0.0158,0.0158,0,21,21,157,1,seveneight,,,,,,,,,,,,,,,,,,,,,,,,,,,,,,,,,,,,,,,,,,,,,,,,,,,,,,,,,,,,,,,,,,,,,,,,,,,,,,,,,,,,,,,,,,,,,,,,,,,,,,,,,,,,,,,,,,,,,,,,,,,,,,,,,,,,,,,,,
,,60ea5c6d8fcc1129d20b7b92,2024-02-21_19h27.13.534,kallum_motion_pilot,2023.2.2,Win32,82.6446281,60ea5c6d8fcc1129d20b7b92,65d6bb0e977760de756971f7,65d6befb979b6efb5b451d21,0.0158,0.0158,0,22,22,150,1,eightsix,,,,,,,,,,,,,,,,,,,,,,,,,,,,,,,,,,,,,,,,,,,,,,,,,,,,,,,,,,,,,,,,,,,,,,,,,,,,,,,,,,,,,,,,,,,,,,,,,,,,,,,,,,,,,,,,,,,,,,,,,,,,,,,,,,,,,,,,,
,,60ea5c6d8fcc1129d20b7b92,2024-02-21_19h27.13.534,kallum_motion_pilot,2023.2.2,Win32,82.6446281,60ea5c6d8fcc1129d20b7b92,65d6bb0e977760de756971f7,65d6befb979b6efb5b451d21,0.0158,0.0158,0,23,23,93,1,seveneight,,,,,,,,,,,,,,,,,,,,,,,,,,,,,,,,,,,,,,,,,,,,,,,,,,,,,,,,,,,,,,,,,,,,,,,,,,,,,,,,,,,,,,,,,,,,,,,,,,,,,,,,,,,,,,,,,,,,,,,,,,,,,,,,,,,,,,,,,
,,60ea5c6d8fcc1129d20b7b92,2024-02-21_19h27.13.534,kallum_motion_pilot,2023.2.2,Win32,82.6446281,60ea5c6d8fcc1129d20b7b92,65d6bb0e977760de756971f7,65d6befb979b6efb5b451d21,0.0159,0.0159,0,24,24,103,1,eightseven,,,,,,,,,,,,,,,,,,,,,,,,,,,,,,,,,,,,,,,,,,,,,,,,,,,,,,,,,,,,,,,,,,,,,,,,,,,,,,,,,,,,,,,,,,,,,,,,,,,,,,,,,,,,,,,,,,,,,,,,,,,,,,,,,,,,,,,,,
,,60ea5c6d8fcc1129d20b7b92,2024-02-21_19h27.13.534,kallum_motion_pilot,2023.2.2,Win32,82.6446281,60ea5c6d8fcc1129d20b7b92,65d6bb0e977760de756971f7,65d6befb979b6efb5b451d21,0.016,0.016,0,25,25,161,1,fiveseven,,,,,,,,,,,,,,,,,,,,,,,,,,,,,,,,,,,,,,,,,,,,,,,,,,,,,,,,,,,,,,,,,,,,,,,,,,,,,,,,,,,,,,,,,,,,,,,,,,,,,,,,,,,,,,,,,,,,,,,,,,,,,,,,,,,,,,,,,
,,60ea5c6d8fcc1129d20b7b92,2024-02-21_19h27.13.534,kallum_motion_pilot,2023.2.2,Win32,82.6446281,60ea5c6d8fcc1129d20b7b92,65d6bb0e977760de756971f7,65d6befb979b6efb5b451d21,0.016,0.016,0,26,26,29,1,threefour,,,,,,,,,,,,,,,,,,,,,,,,,,,,,,,,,,,,,,,,,,,,,,,,,,,,,,,,,,,,,,,,,,,,,,,,,,,,,,,,,,,,,,,,,,,,,,,,,,,,,,,,,,,,,,,,,,,,,,,,,,,,,,,,,,,,,,,,,
,,60ea5c6d8fcc1129d20b7b92,2024-02-21_19h27.13.534,kallum_motion_pilot,2023.2.2,Win32,82.6446281,60ea5c6d8fcc1129d20b7b92,65d6bb0e977760de756971f7,65d6befb979b6efb5b451d21,0.016,0.016,0,27,27,26,1,twoone,,,,,,,,,,,,,,,,,,,,,,,,,,,,,,,,,,,,,,,,,,,,,,,,,,,,,,,,,,,,,,,,,,,,,,,,,,,,,,,,,,,,,,,,,,,,,,,,,,,,,,,,,,,,,,,,,,,,,,,,,,,,,,,,,,,,,,,,,
,,60ea5c6d8fcc1129d20b7b92,2024-02-21_19h27.13.534,kallum_motion_pilot,2023.2.2,Win32,82.6446281,60ea5c6d8fcc1129d20b7b92,65d6bb0e977760de756971f7,65d6befb979b6efb5b451d21,0.016,0.016,0,28,28,117,1,seveneight,,,,,,,,,,,,,,,,,,,,,,,,,,,,,,,,,,,,,,,,,,,,,,,,,,,,,,,,,,,,,,,,,,,,,,,,,,,,,,,,,,,,,,,,,,,,,,,,,,,,,,,,,,,,,,,,,,,,,,,,,,,,,,,,,,,,,,,,,
,,60ea5c6d8fcc1129d20b7b92,2024-02-21_19h27.13.534,kallum_motion_pilot,2023.2.2,Win32,82.6446281,60ea5c6d8fcc1129d20b7b92,65d6bb0e977760de756971f7,65d6befb979b6efb5b451d21,0.0161,0.0161,0,29,29,34,1,twoone,,,,,,,,,,,,,,,,,,,,,,,,,,,,,,,,,,,,,,,,,,,,,,,,,,,,,,,,,,,,,,,,,,,,,,,,,,,,,,,,,,,,,,,,,,,,,,,,,,,,,,,,,,,,,,,,,,,,,,,,,,,,,,,,,,,,,,,,,
,,60ea5c6d8fcc1129d20b7b92,2024-02-21_19h27.13.534,kallum_motion_pilot,2023.2.2,Win32,82.6446281,60ea5c6d8fcc1129d20b7b92,65d6bb0e977760de756971f7,65d6befb979b6efb5b451d21,0.0161,0.0161,0,30,30,73,1,onethree,,,,,,,,,,,,,,,,,,,,,,,,,,,,,,,,,,,,,,,,,,,,,,,,,,,,,,,,,,,,,,,,,,,,,,,,,,,,,,,,,,,,,,,,,,,,,,,,,,,,,,,,,,,,,,,,,,,,,,,,,,,,,,,,,,,,,,,,,
,,60ea5c6d8fcc1129d20b7b92,2024-02-21_19h27.13.534,kallum_motion_pilot,2023.2.2,Win32,82.6446281,60ea5c6d8fcc1129d20b7b92,65d6bb0e977760de756971f7,65d6befb979b6efb5b451d21,0.0161,0.0161,0,31,31,19,1,twofour,,,,,,,,,,,,,,,,,,,,,,,,,,,,,,,,,,,,,,,,,,,,,,,,,,,,,,,,,,,,,,,,,,,,,,,,,,,,,,,,,,,,,,,,,,,,,,,,,,,,,,,,,,,,,,,,,,,,,,,,,,,,,,,,,,,,,,,,,
,,60ea5c6d8fcc1129d20b7b92,2024-02-21_19h27.13.534,kallum_motion_pilot,2023.2.2,Win32,82.6446281,60ea5c6d8fcc1129d20b7b92,65d6bb0e977760de756971f7,65d6befb979b6efb5b451d21,0.0162,0.0162,0,32,32,91,1,sixeight,,,,,,,,,,,,,,,,,,,,,,,,,,,,,,,,,,,,,,,,,,,,,,,,,,,,,,,,,,,,,,,,,,,,,,,,,,,,,,,,,,,,,,,,,,,,,,,,,,,,,,,,,,,,,,,,,,,,,,,,,,,,,,,,,,,,,,,,,
,,60ea5c6d8fcc1129d20b7b92,2024-02-21_19h27.13.534,kallum_motion_pilot,2023.2.2,Win32,82.6446281,60ea5c6d8fcc1129d20b7b92,65d6bb0e977760de756971f7,65d6befb979b6efb5b451d21,0.0162,0.0162,0,33,33,16,1,onetwo,,,,,,,,,,,,,,,,,,,,,,,,,,,,,,,,,,,,,,,,,,,,,,,,,,,,,,,,,,,,,,,,,,,,,,,,,,,,,,,,,,,,,,,,,,,,,,,,,,,,,,,,,,,,,,,,,,,,,,,,,,,,,,,,,,,,,,,,,
,,60ea5c6d8fcc1129d20b7b92,2024-02-21_19h27.13.534,kallum_motion_pilot,2023.2.2,Win32,82.6446281,60ea5c6d8fcc1129d20b7b92,65d6bb0e977760de756971f7,65d6befb979b6efb5b451d21,0.0163,0.0163,0,34,34,130,1,sixfive,,,,,,,,,,,,,,,,,,,,,,,,,,,,,,,,,,,,,,,,,,,,,,,,,,,,,,,,,,,,,,,,,,,,,,,,,,,,,,,,,,,,,,,,,,,,,,,,,,,,,,,,,,,,,,,,,,,,,,,,,,,,,,,,,,,,,,,,,
,,60ea5c6d8fcc1129d20b7b92,2024-02-21_19h27.13.534,kallum_motion_pilot,2023.2.2,Win32,82.6446281,60ea5c6d8fcc1129d20b7b92,65d6bb0e977760de756971f7,65d6befb979b6efb5b451d21,0.0163,0.0163,0,35,35,60,1,threeone,,,,,,,,,,,,,,,,,,,,,,,,,,,,,,,,,,,,,,,,,,,,,,,,,,,,,,,,,,,,,,,,,,,,,,,,,,,,,,,,,,,,,,,,,,,,,,,,,,,,,,,,,,,,,,,,,,,,,,,,,,,,,,,,,,,,,,,,,
,,60ea5c6d8fcc1129d20b7b92,2024-02-21_19h27.13.534,kallum_motion_pilot,2023.2.2,Win32,82.6446281,60ea5c6d8fcc1129d20b7b92,65d6bb0e977760de756971f7,65d6befb979b6efb5b451d21,0.0164,0.0164,0,36,36,142,1,eightsix,,,,,,,,,,,,,,,,,,,,,,,,,,,,,,,,,,,,,,,,,,,,,,,,,,,,,,,,,,,,,,,,,,,,,,,,,,,,,,,,,,,,,,,,,,,,,,,,,,,,,,,,,,,,,,,,,,,,,,,,,,,,,,,,,,,,,,,,,
,,60ea5c6d8fcc1129d20b7b92,2024-02-21_19h27.13.534,kallum_motion_pilot,2023.2.2,Win32,82.6446281,60ea5c6d8fcc1129d20b7b92,65d6bb0e977760de756971f7,65d6befb979b6efb5b451d21,0.0164,0.0164,0,37,37,153,1,fiveseven,,,,,,,,,,,,,,,,,,,,,,,,,,,,,,,,,,,,,,,,,,,,,,,,,,,,,,,,,,,,,,,,,,,,,,,,,,,,,,,,,,,,,,,,,,,,,,,,,,,,,,,,,,,,,,,,,,,,,,,,,,,,,,,,,,,,,,,,,
,,60ea5c6d8fcc1129d20b7b92,2024-02-21_19h27.13.534,kallum_motion_pilot,2023.2.2,Win32,82.6446281,60ea5c6d8fcc1129d20b7b92,65d6bb0e977760de756971f7,65d6befb979b6efb5b451d21,0.0164,0.0164,0,38,38,143,1,eightseven,,,,,,,,,,,,,,,,,,,,,,,,,,,,,,,,,,,,,,,,,,,,,,,,,,,,,,,,,,,,,,,,,,,,,,,,,,,,,,,,,,,,,,,,,,,,,,,,,,,,,,,,,,,,,,,,,,,,,,,,,,,,,,,,,,,,,,,,,
,,60ea5c6d8fcc1129d20b7b92,2024-02-21_19h27.13.534,kallum_motion_pilot,2023.2.2,Win32,82.6446281,60ea5c6d8fcc1129d20b7b92,65d6bb0e977760de756971f7,65d6befb979b6efb5b451d21,0.0165,0.0165,0,39,39,82,1,sixfive,,,,,,,,,,,,,,,,,,,,,,,,,,,,,,,,,,,,,,,,,,,,,,,,,,,,,,,,,,,,,,,,,,,,,,,,,,,,,,,,,,,,,,,,,,,,,,,,,,,,,,,,,,,,,,,,,,,,,,,,,,,,,,,,,,,,,,,,,
,,60ea5c6d8fcc1129d20b7b92,2024-02-21_19h27.13.534,kallum_motion_pilot,2023.2.2,Win32,82.6446281,60ea5c6d8fcc1129d20b7b92,65d6bb0e977760de756971f7,65d6befb979b6efb5b451d21,0.0165,0.0165,0,40,40,65,1,onethree,,,,,,,,,,,,,,,,,,,,,,,,,,,,,,,,,,,,,,,,,,,,,,,,,,,,,,,,,,,,,,,,,,,,,,,,,,,,,,,,,,,,,,,,,,,,,,,,,,,,,,,,,,,,,,,,,,,,,,,,,,,,,,,,,,,,,,,,,
,,60ea5c6d8fcc1129d20b7b92,2024-02-21_19h27.13.534,kallum_motion_pilot,2023.2.2,Win32,82.6446281,60ea5c6d8fcc1129d20b7b92,65d6bb0e977760de756971f7,65d6befb979b6efb5b451d21,0.0166,0.0166,0,41,41,158,1,eightsix,,,,,,,,,,,,,,,,,,,,,,,,,,,,,,,,,,,,,,,,,,,,,,,,,,,,,,,,,,,,,,,,,,,,,,,,,,,,,,,,,,,,,,,,,,,,,,,,,,,,,,,,,,,,,,,,,,,,,,,,,,,,,,,,,,,,,,,,,
,,60ea5c6d8fcc1129d20b7b92,2024-02-21_19h27.13.534,kallum_motion_pilot,2023.2.2,Win32,82.6446281,60ea5c6d8fcc1129d20b7b92,65d6bb0e977760de756971f7,65d6befb979b6efb5b451d21,0.0167,0.0167,0,42,42,9,1,onethree,,,,,,,,,,,,,,,,,,,,,,,,,,,,,,,,,,,,,,,,,,,,,,,,,,,,,,,,,,,,,,,,,,,,,,,,,,,,,,,,,,,,,,,,,,,,,,,,,,,,,,,,,,,,,,,,,,,,,,,,,,,,,,,,,,,,,,,,,
,,60ea5c6d8fcc1129d20b7b92,2024-02-21_19h27.13.534,kallum_motion_pilot,2023.2.2,Win32,82.6446281,60ea5c6d8fcc1129d20b7b92,65d6bb0e977760de756971f7,65d6befb979b6efb5b451d21,0.0167,0.0167,0,43,43,81,1,fiveseven,,,,,,,,,,,,,,,,,,,,,,,,,,,,,,,,,,,,,,,,,,,,,,,,,,,,,,,,,,,,,,,,,,,,,,,,,,,,,,,,,,,,,,,,,,,,,,,,,,,,,,,,,,,,,,,,,,,,,,,,,,,,,,,,,,,,,,,,,
,,60ea5c6d8fcc1129d20b7b92,2024-02-21_19h27.13.534,kallum_motion_pilot,2023.2.2,Win32,82.6446281,60ea5c6d8fcc1129d20b7b92,65d6bb0e977760de756971f7,65d6befb979b6efb5b451d21,0.0167,0.0168,0,44,44,21,1,threefour,,,,,,,,,,,,,,,,,,,,,,,,,,,,,,,,,,,,,,,,,,,,,,,,,,,,,,,,,,,,,,,,,,,,,,,,,,,,,,,,,,,,,,,,,,,,,,,,,,,,,,,,,,,,,,,,,,,,,,,,,,,,,,,,,,,,,,,,,
,,60ea5c6d8fcc1129d20b7b92,2024-02-21_19h27.13.534,kallum_motion_pilot,2023.2.2,Win32,82.6446281,60ea5c6d8fcc1129d20b7b92,65d6bb0e977760de756971f7,65d6befb979b6efb5b451d21,0.0168,0.0168,0,45,45,88,1,fivesix,,,,,,,,,,,,,,,,,,,,,,,,,,,,,,,,,,,,,,,,,,,,,,,,,,,,,,,,,,,,,,,,,,,,,,,,,,,,,,,,,,,,,,,,,,,,,,,,,,,,,,,,,,,,,,,,,,,,,,,,,,,,,,,,,,,,,,,,,
,,60ea5c6d8fcc1129d20b7b92,2024-02-21_19h27.13.534,kallum_motion_pilot,2023.2.2,Win32,82.6446281,60ea5c6d8fcc1129d20b7b92,65d6bb0e977760de756971f7,65d6befb979b6efb5b451d21,0.0168,0.0168,0,46,46,134,1,eightsix,,,,,,,,,,,,,,,,,,,,,,,,,,,,,,,,,,,,,,,,,,,,,,,,,,,,,,,,,,,,,,,,,,,,,,,,,,,,,,,,,,,,,,,,,,,,,,,,,,,,,,,,,,,,,,,,,,,,,,,,,,,,,,,,,,,,,,,,,
,,60ea5c6d8fcc1129d20b7b92,2024-02-21_19h27.13.534,kallum_motion_pilot,2023.2.2,Win32,82.6446281,60ea5c6d8fcc1129d20b7b92,65d6bb0e977760de756971f7,65d6befb979b6efb5b451d21,0.0169,0.0169,0,47,47,2,1,twoone,,,,,,,,,,,,,,,,,,,,,,,,,,,,,,,,,,,,,,,,,,,,,,,,,,,,,,,,,,,,,,,,,,,,,,,,,,,,,,,,,,,,,,,,,,,,,,,,,,,,,,,,,,,,,,,,,,,,,,,,,,,,,,,,,,,,,,,,,
,,60ea5c6d8fcc1129d20b7b92,2024-02-21_19h27.13.534,kallum_motion_pilot,2023.2.2,Win32,82.6446281,60ea5c6d8fcc1129d20b7b92,65d6bb0e977760de756971f7,65d6befb979b6efb5b451d21,0.0169,0.0169,0,48,48,159,1,eightseven,,,,,,,,,,,,,,,,,,,,,,,,,,,,,,,,,,,,,,,,,,,,,,,,,,,,,,,,,,,,,,,,,,,,,,,,,,,,,,,,,,,,,,,,,,,,,,,,,,,,,,,,,,,,,,,,,,,,,,,,,,,,,,,,,,,,,,,,,
,,60ea5c6d8fcc1129d20b7b92,2024-02-21_19h27.13.534,kallum_motion_pilot,2023.2.2,Win32,82.6446281,60ea5c6d8fcc1129d20b7b92,65d6bb0e977760de756971f7,65d6befb979b6efb5b451d21,0.0169,0.0169,0,49,49,54,1,fourtwo,,,,,,,,,,,,,,,,,,,,,,,,,,,,,,,,,,,,,,,,,,,,,,,,,,,,,,,,,,,,,,,,,,,,,,,,,,,,,,,,,,,,,,,,,,,,,,,,,,,,,,,,,,,,,,,,,,,,,,,,,,,,,,,,,,,,,,,,,
,,60ea5c6d8fcc1129d20b7b92,2024-02-21_19h27.13.534,kallum_motion_pilot,2023.2.2,Win32,82.6446281,60ea5c6d8fcc1129d20b7b92,65d6bb0e977760de756971f7,65d6befb979b6efb5b451d21,0.017,0.017,0,50,50,47,1,fourthree,,,,,,,,,,,,,,,,,,,,,,,,,,,,,,,,,,,,,,,,,,,,,,,,,,,,,,,,,,,,,,,,,,,,,,,,,,,,,,,,,,,,,,,,,,,,,,,,,,,,,,,,,,,,,,,,,,,,,,,,,,,,,,,,,,,,,,,,,
,,60ea5c6d8fcc1129d20b7b92,2024-02-21_19h27.13.534,kallum_motion_pilot,2023.2.2,Win32,82.6446281,60ea5c6d8fcc1129d20b7b92,65d6bb0e977760de756971f7,65d6befb979b6efb5b451d21,0.017,0.017,0,51,51,20,1,threeone,,,,,,,,,,,,,,,,,,,,,,,,,,,,,,,,,,,,,,,,,,,,,,,,,,,,,,,,,,,,,,,,,,,,,,,,,,,,,,,,,,,,,,,,,,,,,,,,,,,,,,,,,,,,,,,,,,,,,,,,,,,,,,,,,,,,,,,,,
,,60ea5c6d8fcc1129d20b7b92,2024-02-21_19h27.13.534,kallum_motion_pilot,2023.2.2,Win32,82.6446281,60ea5c6d8fcc1129d20b7b92,65d6bb0e977760de756971f7,65d6befb979b6efb5b451d21,0.0171,0.0171,0,52,52,44,1,threeone,,,,,,,,,,,,,,,,,,,,,,,,,,,,,,,,,,,,,,,,,,,,,,,,,,,,,,,,,,,,,,,,,,,,,,,,,,,,,,,,,,,,,,,,,,,,,,,,,,,,,,,,,,,,,,,,,,,,,,,,,,,,,,,,,,,,,,,,,
,,60ea5c6d8fcc1129d20b7b92,2024-02-21_19h27.13.534,kallum_motion_pilot,2023.2.2,Win32,82.6446281,60ea5c6d8fcc1129d20b7b92,65d6bb0e977760de756971f7,65d6befb979b6efb5b451d21,0.0171,0.0171,0,53,53,124,1,sevenfive,,,,,,,,,,,,,,,,,,,,,,,,,,,,,,,,,,,,,,,,,,,,,,,,,,,,,,,,,,,,,,,,,,,,,,,,,,,,,,,,,,,,,,,,,,,,,,,,,,,,,,,,,,,,,,,,,,,,,,,,,,,,,,,,,,,,,,,,,
,,60ea5c6d8fcc1129d20b7b92,2024-02-21_19h27.13.534,kallum_motion_pilot,2023.2.2,Win32,82.6446281,60ea5c6d8fcc1129d20b7b92,65d6bb0e977760de756971f7,65d6befb979b6efb5b451d21,0.0171,0.0171,0,54,54,67,1,twofour,,,,,,,,,,,,,,,,,,,,,,,,,,,,,,,,,,,,,,,,,,,,,,,,,,,,,,,,,,,,,,,,,,,,,,,,,,,,,,,,,,,,,,,,,,,,,,,,,,,,,,,,,,,,,,,,,,,,,,,,,,,,,,,,,,,,,,,,,
,,60ea5c6d8fcc1129d20b7b92,2024-02-21_19h27.13.534,kallum_motion_pilot,2023.2.2,Win32,82.6446281,60ea5c6d8fcc1129d20b7b92,65d6bb0e977760de756971f7,65d6befb979b6efb5b451d21,0.0171,0.0172,0,55,55,112,1,fivesix,,,,,,,,,,,,,,,,,,,,,,,,,,,,,,,,,,,,,,,,,,,,,,,,,,,,,,,,,,,,,,,,,,,,,,,,,,,,,,,,,,,,,,,,,,,,,,,,,,,,,,,,,,,,,,,,,,,,,,,,,,,,,,,,,,,,,,,,,
,,60ea5c6d8fcc1129d20b7b92,2024-02-21_19h27.13.534,kallum_motion_pilot,2023.2.2,Win32,82.6446281,60ea5c6d8fcc1129d20b7b92,65d6bb0e977760de756971f7,65d6befb979b6efb5b451d21,0.0172,0.0172,0,56,56,123,1,sixeight,,,,,,,,,,,,,,,,,,,,,,,,,,,,,,,,,,,,,,,,,,,,,,,,,,,,,,,,,,,,,,,,,,,,,,,,,,,,,,,,,,,,,,,,,,,,,,,,,,,,,,,,,,,,,,,,,,,,,,,,,,,,,,,,,,,,,,,,,
,,60ea5c6d8fcc1129d20b7b92,2024-02-21_19h27.13.534,kallum_motion_pilot,2023.2.2,Win32,82.6446281,60ea5c6d8fcc1129d20b7b92,65d6bb0e977760de756971f7,65d6befb979b6efb5b451d21,0.0173,0.0173,0,57,57,66,1,twoone,,,,,,,,,,,,,,,,,,,,,,,,,,,,,,,,,,,,,,,,,,,,,,,,,,,,,,,,,,,,,,,,,,,,,,,,,,,,,,,,,,,,,,,,,,,,,,,,,,,,,,,,,,,,,,,,,,,,,,,,,,,,,,,,,,,,,,,,,
,,60ea5c6d8fcc1129d20b7b92,2024-02-21_19h27.13.534,kallum_motion_pilot,2023.2.2,Win32,82.6446281,60ea5c6d8fcc1129d20b7b92,65d6bb0e977760de756971f7,65d6befb979b6efb5b451d21,0.0173,0.0173,0,58,58,35,1,twofour,,,,,,,,,,,,,,,,,,,,,,,,,,,,,,,,,,,,,,,,,,,,,,,,,,,,,,,,,,,,,,,,,,,,,,,,,,,,,,,,,,,,,,,,,,,,,,,,,,,,,,,,,,,,,,,,,,,,,,,,,,,,,,,,,,,,,,,,,
,,60ea5c6d8fcc1129d20b7b92,2024-02-21_19h27.13.534,kallum_motion_pilot,2023.2.2,Win32,82.6446281,60ea5c6d8fcc1129d20b7b92,65d6bb0e977760de756971f7,65d6befb979b6efb5b451d21,0.0174,0.0174,0,59,59,136,1,fivesix,,,,,,,,,,,,,,,,,,,,,,,,,,,,,,,,,,,,,,,,,,,,,,,,,,,,,,,,,,,,,,,,,,,,,,,,,,,,,,,,,,,,,,,,,,,,,,,,,,,,,,,,,,,,,,,,,,,,,,,,,,,,,,,,,,,,,,,,,
,,60ea5c6d8fcc1129d20b7b92,2024-02-21_19h27.13.534,kallum_motion_pilot,2023.2.2,Win32,82.6446281,60ea5c6d8fcc1129d20b7b92,65d6bb0e977760de756971f7,65d6befb979b6efb5b451d21,0.0174,0.0174,0,60,60,58,1,twoone,,,,,,,,,,,,,,,,,,,,,,,,,,,,,,,,,,,,,,,,,,,,,,,,,,,,,,,,,,,,,,,,,,,,,,,,,,,,,,,,,,,,,,,,,,,,,,,,,,,,,,,,,,,,,,,,,,,,,,,,,,,,,,,,,,,,,,,,,
,,60ea5c6d8fcc1129d20b7b92,2024-02-21_19h27.13.534,kallum_motion_pilot,2023.2.2,Win32,82.6446281,60ea5c6d8fcc1129d20b7b92,65d6bb0e977760de756971f7,65d6befb979b6efb5b451d21,0.0174,0.0175,0,61,61,107,1,sixeight,,,,,,,,,,,,,,,,,,,,,,,,,,,,,,,,,,,,,,,,,,,,,,,,,,,,,,,,,,,,,,,,,,,,,,,,,,,,,,,,,,,,,,,,,,,,,,,,,,,,,,,,,,,,,,,,,,,,,,,,,,,,,,,,,,,,,,,,,
,,60ea5c6d8fcc1129d20b7b92,2024-02-21_19h27.13.534,kallum_motion_pilot,2023.2.2,Win32,82.6446281,60ea5c6d8fcc1129d20b7b92,65d6bb0e977760de756971f7,65d6befb979b6efb5b451d21,0.0175,0.0176,0,62,62,101,1,seveneight,,,,,,,,,,,,,,,,,,,,,,,,,,,,,,,,,,,,,,,,,,,,,,,,,,,,,,,,,,,,,,,,,,,,,,,,,,,,,,,,,,,,,,,,,,,,,,,,,,,,,,,,,,,,,,,,,,,,,,,,,,,,,,,,,,,,,,,,,
,,60ea5c6d8fcc1129d20b7b92,2024-02-21_19h27.13.534,kallum_motion_pilot,2023.2.2,Win32,82.6446281,60ea5c6d8fcc1129d20b7b92,65d6bb0e977760de756971f7,65d6befb979b6efb5b451d21,0.0176,0.0176,0,63,63,74,1,twoone,,,,,,,,,,,,,,,,,,,,,,,,,,,,,,,,,,,,,,,,,,,,,,,,,,,,,,,,,,,,,,,,,,,,,,,,,,,,,,,,,,,,,,,,,,,,,,,,,,,,,,,,,,,,,,,,,,,,,,,,,,,,,,,,,,,,,,,,,
,,60ea5c6d8fcc1129d20b7b92,2024-02-21_19h27.13.534,kallum_motion_pilot,2023.2.2,Win32,82.6446281,60ea5c6d8fcc1129d20b7b92,65d6bb0e977760de756971f7,65d6befb979b6efb5b451d21,0.0176,0.0176,0,64,64,121,1,fiveseven,,,,,,,,,,,,,,,,,,,,,,,,,,,,,,,,,,,,,,,,,,,,,,,,,,,,,,,,,,,,,,,,,,,,,,,,,,,,,,,,,,,,,,,,,,,,,,,,,,,,,,,,,,,,,,,,,,,,,,,,,,,,,,,,,,,,,,,,,
,,60ea5c6d8fcc1129d20b7b92,2024-02-21_19h27.13.534,kallum_motion_pilot,2023.2.2,Win32,82.6446281,60ea5c6d8fcc1129d20b7b92,65d6bb0e977760de756971f7,65d6befb979b6efb5b451d21,0.0176,0.0177,0,65,65,36,1,threeone,,,,,,,,,,,,,,,,,,,,,,,,,,,,,,,,,,,,,,,,,,,,,,,,,,,,,,,,,,,,,,,,,,,,,,,,,,,,,,,,,,,,,,,,,,,,,,,,,,,,,,,,,,,,,,,,,,,,,,,,,,,,,,,,,,,,,,,,,
,,60ea5c6d8fcc1129d20b7b92,2024-02-21_19h27.13.534,kallum_motion_pilot,2023.2.2,Win32,82.6446281,60ea5c6d8fcc1129d20b7b92,65d6bb0e977760de756971f7,65d6befb979b6efb5b451d21,0.0177,0.0177,0,66,66,12,1,threeone,,,,,,,,,,,,,,,,,,,,,,,,,,,,,,,,,,,,,,,,,,,,,,,,,,,,,,,,,,,,,,,,,,,,,,,,,,,,,,,,,,,,,,,,,,,,,,,,,,,,,,,,,,,,,,,,,,,,,,,,,,,,,,,,,,,,,,,,,
,,60ea5c6d8fcc1129d20b7b92,2024-02-21_19h27.13.534,kallum_motion_pilot,2023.2.2,Win32,82.6446281,60ea5c6d8fcc1129d20b7b92,65d6bb0e977760de756971f7,65d6befb979b6efb5b451d21,0.0177,0.0177,0,67,67,71,1,fourthree,,,,,,,,,,,,,,,,,,,,,,,,,,,,,,,,,,,,,,,,,,,,,,,,,,,,,,,,,,,,,,,,,,,,,,,,,,,,,,,,,,,,,,,,,,,,,,,,,,,,,,,,,,,,,,,,,,,,,,,,,,,,,,,,,,,,,,,,,
,,60ea5c6d8fcc1129d20b7b92,2024-02-21_19h27.13.534,kallum_motion_pilot,2023.2.2,Win32,82.6446281,60ea5c6d8fcc1129d20b7b92,65d6bb0e977760de756971f7,65d6befb979b6efb5b451d21,0.0177,0.0177,0,68,68,100,1,sevenfive,,,,,,,,,,,,,,,,,,,,,,,,,,,,,,,,,,,,,,,,,,,,,,,,,,,,,,,,,,,,,,,,,,,,,,,,,,,,,,,,,,,,,,,,,,,,,,,,,,,,,,,,,,,,,,,,,,,,,,,,,,,,,,,,,,,,,,,,,
,,60ea5c6d8fcc1129d20b7b92,2024-02-21_19h27.13.534,kallum_motion_pilot,2023.2.2,Win32,82.6446281,60ea5c6d8fcc1129d20b7b92,65d6bb0e977760de756971f7,65d6befb979b6efb5b451d21,0.0178,0.0178,0,69,69,15,1,fourthree,,,,,,,,,,,,,,,,,,,,,,,,,,,,,,,,,,,,,,,,,,,,,,,,,,,,,,,,,,,,,,,,,,,,,,,,,,,,,,,,,,,,,,,,,,,,,,,,,,,,,,,,,,,,,,,,,,,,,,,,,,,,,,,,,,,,,,,,,
,,60ea5c6d8fcc1129d20b7b92,2024-02-21_19h27.13.534,kallum_motion_pilot,2023.2.2,Win32,82.6446281,60ea5c6d8fcc1129d20b7b92,65d6bb0e977760de756971f7,65d6befb979b6efb5b451d21,0.0179,0.0179,0,70,70,109,1,seveneight,,,,,,,,,,,,,,,,,,,,,,,,,,,,,,,,,,,,,,,,,,,,,,,,,,,,,,,,,,,,,,,,,,,,,,,,,,,,,,,,,,,,,,,,,,,,,,,,,,,,,,,,,,,,,,,,,,,,,,,,,,,,,,,,,,,,,,,,,
,,60ea5c6d8fcc1129d20b7b92,2024-02-21_19h27.13.534,kallum_motion_pilot,2023.2.2,Win32,82.6446281,60ea5c6d8fcc1129d20b7b92,65d6bb0e977760de756971f7,65d6befb979b6efb5b451d21,0.0179,0.018,0,71,71,127,1,eightseven,,,,,,,,,,,,,,,,,,,,,,,,,,,,,,,,,,,,,,,,,,,,,,,,,,,,,,,,,,,,,,,,,,,,,,,,,,,,,,,,,,,,,,,,,,,,,,,,,,,,,,,,,,,,,,,,,,,,,,,,,,,,,,,,,,,,,,,,,
,,60ea5c6d8fcc1129d20b7b92,2024-02-21_19h27.13.534,kallum_motion_pilot,2023.2.2,Win32,82.6446281,60ea5c6d8fcc1129d20b7b92,65d6bb0e977760de756971f7,65d6befb979b6efb5b451d21,0.018,0.018,0,72,72,141,1,seveneight,,,,,,,,,,,,,,,,,,,,,,,,,,,,,,,,,,,,,,,,,,,,,,,,,,,,,,,,,,,,,,,,,,,,,,,,,,,,,,,,,,,,,,,,,,,,,,,,,,,,,,,,,,,,,,,,,,,,,,,,,,,,,,,,,,,,,,,,,
,,60ea5c6d8fcc1129d20b7b92,2024-02-21_19h27.13.534,kallum_motion_pilot,2023.2.2,Win32,82.6446281,60ea5c6d8fcc1129d20b7b92,65d6bb0e977760de756971f7,65d6befb979b6efb5b451d21,0.018,0.018,0,73,73,49,1,onethree,,,,,,,,,,,,,,,,,,,,,,,,,,,,,,,,,,,,,,,,,,,,,,,,,,,,,,,,,,,,,,,,,,,,,,,,,,,,,,,,,,,,,,,,,,,,,,,,,,,,,,,,,,,,,,,,,,,,,,,,,,,,,,,,,,,,,,,,,
,,60ea5c6d8fcc1129d20b7b92,2024-02-21_19h27.13.534,kallum_motion_pilot,2023.2.2,Win32,82.6446281,60ea5c6d8fcc1129d20b7b92,65d6bb0e977760de756971f7,65d6befb979b6efb5b451d21,0.0181,0.0181,0,74,74,146,1,sixfive,,,,,,,,,,,,,,,,,,,,,,,,,,,,,,,,,,,,,,,,,,,,,,,,,,,,,,,,,,,,,,,,,,,,,,,,,,,,,,,,,,,,,,,,,,,,,,,,,,,,,,,,,,,,,,,,,,,,,,,,,,,,,,,,,,,,,,,,,
,,60ea5c6d8fcc1129d20b7b92,2024-02-21_19h27.13.534,kallum_motion_pilot,2023.2.2,Win32,82.6446281,60ea5c6d8fcc1129d20b7b92,65d6bb0e977760de756971f7,65d6befb979b6efb5b451d21,0.0181,0.0182,0,75,75,13,1,threefour,,,,,,,,,,,,,,,,,,,,,,,,,,,,,,,,,,,,,,,,,,,,,,,,,,,,,,,,,,,,,,,,,,,,,,,,,,,,,,,,,,,,,,,,,,,,,,,,,,,,,,,,,,,,,,,,,,,,,,,,,,,,,,,,,,,,,,,,,
,,60ea5c6d8fcc1129d20b7b92,2024-02-21_19h27.13.534,kallum_motion_pilot,2023.2.2,Win32,82.6446281,60ea5c6d8fcc1129d20b7b92,65d6bb0e977760de756971f7,65d6befb979b6efb5b451d21,0.0182,0.0183,0,76,76,120,1,fivesix,,,,,,,,,,,,,,,,,,,,,,,,,,,,,,,,,,,,,,,,,,,,,,,,,,,,,,,,,,,,,,,,,,,,,,,,,,,,,,,,,,,,,,,,,,,,,,,,,,,,,,,,,,,,,,,,,,,,,,,,,,,,,,,,,,,,,,,,,
,,60ea5c6d8fcc1129d20b7b92,2024-02-21_19h27.13.534,kallum_motion_pilot,2023.2.2,Win32,82.6446281,60ea5c6d8fcc1129d20b7b92,65d6bb0e977760de756971f7,65d6befb979b6efb5b451d21,0.0183,0.0183,0,77,77,14,1,fourtwo,,,,,,,,,,,,,,,,,,,,,,,,,,,,,,,,,,,,,,,,,,,,,,,,,,,,,,,,,,,,,,,,,,,,,,,,,,,,,,,,,,,,,,,,,,,,,,,,,,,,,,,,,,,,,,,,,,,,,,,,,,,,,,,,,,,,,,,,,
,,60ea5c6d8fcc1129d20b7b92,2024-02-21_19h27.13.534,kallum_motion_pilot,2023.2.2,Win32,82.6446281,60ea5c6d8fcc1129d20b7b92,65d6bb0e977760de756971f7,65d6befb979b6efb5b451d21,0.0183,0.0183,0,78,78,115,1,sixeight,,,,,,,,,,,,,,,,,,,,,,,,,,,,,,,,,,,,,,,,,,,,,,,,,,,,,,,,,,,,,,,,,,,,,,,,,,,,,,,,,,,,,,,,,,,,,,,,,,,,,,,,,,,,,,,,,,,,,,,,,,,,,,,,,,,,,,,,,
,,60ea5c6d8fcc1129d20b7b92,2024-02-21_19h27.13.534,kallum_motion_pilot,2023.2.2,Win32,82.6446281,60ea5c6d8fcc1129d20b7b92,65d6bb0e977760de756971f7,65d6befb979b6efb5b451d21,0.0183,0.0183,0,79,79,140,1,sevenfive,,,,,,,,,,,,,,,,,,,,,,,,,,,,,,,,,,,,,,,,,,,,,,,,,,,,,,,,,,,,,,,,,,,,,,,,,,,,,,,,,,,,,,,,,,,,,,,,,,,,,,,,,,,,,,,,,,,,,,,,,,,,,,,,,,,,,,,,,
,,60ea5c6d8fcc1129d20b7b92,2024-02-21_19h27.13.534,kallum_motion_pilot,2023.2.2,Win32,82.6446281,60ea5c6d8fcc1129d20b7b92,65d6bb0e977760de756971f7,65d6befb979b6efb5b451d21,0.0183,0.0184,0,80,80,78,1,fourtwo,,,,,,,,,,,,,,,,,,,,,,,,,,,,,,,,,,,,,,,,,,,,,,,,,,,,,,,,,,,,,,,,,,,,,,,,,,,,,,,,,,,,,,,,,,,,,,,,,,,,,,,,,,,,,,,,,,,,,,,,,,,,,,,,,,,,,,,,,
,,60ea5c6d8fcc1129d20b7b92,2024-02-21_19h27.13.534,kallum_motion_pilot,2023.2.2,Win32,82.6446281,60ea5c6d8fcc1129d20b7b92,65d6bb0e977760de756971f7,65d6befb979b6efb5b451d21,0.0184,0.0184,0,81,81,75,1,twofour,,,,,,,,,,,,,,,,,,,,,,,,,,,,,,,,,,,,,,,,,,,,,,,,,,,,,,,,,,,,,,,,,,,,,,,,,,,,,,,,,,,,,,,,,,,,,,,,,,,,,,,,,,,,,,,,,,,,,,,,,,,,,,,,,,,,,,,,,
,,60ea5c6d8fcc1129d20b7b92,2024-02-21_19h27.13.534,kallum_motion_pilot,2023.2.2,Win32,82.6446281,60ea5c6d8fcc1129d20b7b92,65d6bb0e977760de756971f7,65d6befb979b6efb5b451d21,0.0185,0.0185,0,82,82,50,1,twoone,,,,,,,,,,,,,,,,,,,,,,,,,,,,,,,,,,,,,,,,,,,,,,,,,,,,,,,,,,,,,,,,,,,,,,,,,,,,,,,,,,,,,,,,,,,,,,,,,,,,,,,,,,,,,,,,,,,,,,,,,,,,,,,,,,,,,,,,,
,,60ea5c6d8fcc1129d20b7b92,2024-02-21_19h27.13.534,kallum_motion_pilot,2023.2.2,Win32,82.6446281,60ea5c6d8fcc1129d20b7b92,65d6bb0e977760de756971f7,65d6befb979b6efb5b451d21,0.0186,0.0186,0,83,83,4,1,threeone,,,,,,,,,,,,,,,,,,,,,,,,,,,,,,,,,,,,,,,,,,,,,,,,,,,,,,,,,,,,,,,,,,,,,,,,,,,,,,,,,,,,,,,,,,,,,,,,,,,,,,,,,,,,,,,,,,,,,,,,,,,,,,,,,,,,,,,,,
,,60ea5c6d8fcc1129d20b7b92,2024-02-21_19h27.13.534,kallum_motion_pilot,2023.2.2,Win32,82.6446281,60ea5c6d8fcc1129d20b7b92,65d6bb0e977760de756971f7,65d6befb979b6efb5b451d21,0.0186,0.0186,0,84,84,57,1,onethree,,,,,,,,,,,,,,,,,,,,,,,,,,,,,,,,,,,,,,,,,,,,,,,,,,,,,,,,,,,,,,,,,,,,,,,,,,,,,,,,,,,,,,,,,,,,,,,,,,,,,,,,,,,,,,,,,,,,,,,,,,,,,,,,,,,,,,,,,
,,60ea5c6d8fcc1129d20b7b92,2024-02-21_19h27.13.534,kallum_motion_pilot,2023.2.2,Win32,82.6446281,60ea5c6d8fcc1129d20b7b92,65d6bb0e977760de756971f7,65d6befb979b6efb5b451d21,0.0187,0.0187,0,85,85,42,1,twoone,,,,,,,,,,,,,,,,,,,,,,,,,,,,,,,,,,,,,,,,,,,,,,,,,,,,,,,,,,,,,,,,,,,,,,,,,,,,,,,,,,,,,,,,,,,,,,,,,,,,,,,,,,,,,,,,,,,,,,,,,,,,,,,,,,,,,,,,,
,,60ea5c6d8fcc1129d20b7b92,2024-02-21_19h27.13.534,kallum_motion_pilot,2023.2.2,Win32,82.6446281,60ea5c6d8fcc1129d20b7b92,65d6bb0e977760de756971f7,65d6befb979b6efb5b451d21,0.0187,0.0187,0,86,86,40,1,onetwo,,,,,,,,,,,,,,,,,,,,,,,,,,,,,,,,,,,,,,,,,,,,,,,,,,,,,,,,,,,,,,,,,,,,,,,,,,,,,,,,,,,,,,,,,,,,,,,,,,,,,,,,,,,,,,,,,,,,,,,,,,,,,,,,,,,,,,,,,
,,60ea5c6d8fcc1129d20b7b92,2024-02-21_19h27.13.534,kallum_motion_pilot,2023.2.2,Win32,82.6446281,60ea5c6d8fcc1129d20b7b92,65d6bb0e977760de756971f7,65d6befb979b6efb5b451d21,0.0187,0.0187,0,87,87,147,1,sixeight,,,,,,,,,,,,,,,,,,,,,,,,,,,,,,,,,,,,,,,,,,,,,,,,,,,,,,,,,,,,,,,,,,,,,,,,,,,,,,,,,,,,,,,,,,,,,,,,,,,,,,,,,,,,,,,,,,,,,,,,,,,,,,,,,,,,,,,,,
,,60ea5c6d8fcc1129d20b7b92,2024-02-21_19h27.13.534,kallum_motion_pilot,2023.2.2,Win32,82.6446281,60ea5c6d8fcc1129d20b7b92,65d6bb0e977760de756971f7,65d6befb979b6efb5b451d21,0.0188,0.0188,0,88,88,113,1,fiveseven,,,,,,,,,,,,,,,,,,,,,,,,,,,,,,,,,,,,,,,,,,,,,,,,,,,,,,,,,,,,,,,,,,,,,,,,,,,,,,,,,,,,,,,,,,,,,,,,,,,,,,,,,,,,,,,,,,,,,,,,,,,,,,,,,,,,,,,,,
,,60ea5c6d8fcc1129d20b7b92,2024-02-21_19h27.13.534,kallum_motion_pilot,2023.2.2,Win32,82.6446281,60ea5c6d8fcc1129d20b7b92,65d6bb0e977760de756971f7,65d6befb979b6efb5b451d21,0.0188,0.0188,0,89,89,1,1,onethree,,,,,,,,,,,,,,,,,,,,,,,,,,,,,,,,,,,,,,,,,,,,,,,,,,,,,,,,,,,,,,,,,,,,,,,,,,,,,,,,,,,,,,,,,,,,,,,,,,,,,,,,,,,,,,,,,,,,,,,,,,,,,,,,,,,,,,,,,
,,60ea5c6d8fcc1129d20b7b92,2024-02-21_19h27.13.534,kallum_motion_pilot,2023.2.2,Win32,82.6446281,60ea5c6d8fcc1129d20b7b92,65d6bb0e977760de756971f7,65d6befb979b6efb5b451d21,0.0189,0.0189,0,90,90,129,1,fiveseven,,,,,,,,,,,,,,,,,,,,,,,,,,,,,,,,,,,,,,,,,,,,,,,,,,,,,,,,,,,,,,,,,,,,,,,,,,,,,,,,,,,,,,,,,,,,,,,,,,,,,,,,,,,,,,,,,,,,,,,,,,,,,,,,,,,,,,,,,
,,60ea5c6d8fcc1129d20b7b92,2024-02-21_19h27.13.534,kallum_motion_pilot,2023.2.2,Win32,82.6446281,60ea5c6d8fcc1129d20b7b92,65d6bb0e977760de756971f7,65d6befb979b6efb5b451d21,0.0189,0.0197,0,91,91,76,1,threeone,,,,,,,,,,,,,,,,,,,,,,,,,,,,,,,,,,,,,,,,,,,,,,,,,,,,,,,,,,,,,,,,,,,,,,,,,,,,,,,,,,,,,,,,,,,,,,,,,,,,,,,,,,,,,,,,,,,,,,,,,,,,,,,,,,,,,,,,,
,,60ea5c6d8fcc1129d20b7b92,2024-02-21_19h27.13.534,kallum_motion_pilot,2023.2.2,Win32,82.6446281,60ea5c6d8fcc1129d20b7b92,65d6bb0e977760de756971f7,65d6befb979b6efb5b451d21,0.0198,0.0198,0,92,92,59,1,twofour,,,,,,,,,,,,,,,,,,,,,,,,,,,,,,,,,,,,,,,,,,,,,,,,,,,,,,,,,,,,,,,,,,,,,,,,,,,,,,,,,,,,,,,,,,,,,,,,,,,,,,,,,,,,,,,,,,,,,,,,,,,,,,,,,,,,,,,,,
,,60ea5c6d8fcc1129d20b7b92,2024-02-21_19h27.13.534,kallum_motion_pilot,2023.2.2,Win32,82.6446281,60ea5c6d8fcc1129d20b7b92,65d6bb0e977760de756971f7,65d6befb979b6efb5b451d21,0.0199,0.0199,0,93,93,61,1,threefour,,,,,,,,,,,,,,,,,,,,,,,,,,,,,,,,,,,,,,,,,,,,,,,,,,,,,,,,,,,,,,,,,,,,,,,,,,,,,,,,,,,,,,,,,,,,,,,,,,,,,,,,,,,,,,,,,,,,,,,,,,,,,,,,,,,,,,,,,
,,60ea5c6d8fcc1129d20b7b92,2024-02-21_19h27.13.534,kallum_motion_pilot,2023.2.2,Win32,82.6446281,60ea5c6d8fcc1129d20b7b92,65d6bb0e977760de756971f7,65d6befb979b6efb5b451d21,0.0199,0.02,0,94,94,7,1,fourthree,,,,,,,,,,,,,,,,,,,,,,,,,,,,,,,,,,,,,,,,,,,,,,,,,,,,,,,,,,,,,,,,,,,,,,,,,,,,,,,,,,,,,,,,,,,,,,,,,,,,,,,,,,,,,,,,,,,,,,,,,,,,,,,,,,,,,,,,,
,,60ea5c6d8fcc1129d20b7b92,2024-02-21_19h27.13.534,kallum_motion_pilot,2023.2.2,Win32,82.6446281,60ea5c6d8fcc1129d20b7b92,65d6bb0e977760de756971f7,65d6befb979b6efb5b451d21,0.02,0.02,0,95,95,155,1,sixeight,,,,,,,,,,,,,,,,,,,,,,,,,,,,,,,,,,,,,,,,,,,,,,,,,,,,,,,,,,,,,,,,,,,,,,,,,,,,,,,,,,,,,,,,,,,,,,,,,,,,,,,,,,,,,,,,,,,,,,,,,,,,,,,,,,,,,,,,,
,,60ea5c6d8fcc1129d20b7b92,2024-02-21_19h27.13.534,kallum_motion_pilot,2023.2.2,Win32,82.6446281,60ea5c6d8fcc1129d20b7b92,65d6bb0e977760de756971f7,65d6befb979b6efb5b451d21,0.02,0.0201,0,96,96,89,1,fiveseven,,,,,,,,,,,,,,,,,,,,,,,,,,,,,,,,,,,,,,,,,,,,,,,,,,,,,,,,,,,,,,,,,,,,,,,,,,,,,,,,,,,,,,,,,,,,,,,,,,,,,,,,,,,,,,,,,,,,,,,,,,,,,,,,,,,,,,,,,
,,60ea5c6d8fcc1129d20b7b92,2024-02-21_19h27.13.534,kallum_motion_pilot,2023.2.2,Win32,82.6446281,60ea5c6d8fcc1129d20b7b92,65d6bb0e977760de756971f7,65d6befb979b6efb5b451d21,0.0201,0.0201,0,97,97,22,1,fourtwo,,,,,,,,,,,,,,,,,,,,,,,,,,,,,,,,,,,,,,,,,,,,,,,,,,,,,,,,,,,,,,,,,,,,,,,,,,,,,,,,,,,,,,,,,,,,,,,,,,,,,,,,,,,,,,,,,,,,,,,,,,,,,,,,,,,,,,,,,
,,60ea5c6d8fcc1129d20b7b92,2024-02-21_19h27.13.534,kallum_motion_pilot,2023.2.2,Win32,82.6446281,60ea5c6d8fcc1129d20b7b92,65d6bb0e977760de756971f7,65d6befb979b6efb5b451d21,0.0201,0.0201,0,98,98,96,1,fivesix,,,,,,,,,,,,,,,,,,,,,,,,,,,,,,,,,,,,,,,,,,,,,,,,,,,,,,,,,,,,,,,,,,,,,,,,,,,,,,,,,,,,,,,,,,,,,,,,,,,,,,,,,,,,,,,,,,,,,,,,,,,,,,,,,,,,,,,,,
,,60ea5c6d8fcc1129d20b7b92,2024-02-21_19h27.13.534,kallum_motion_pilot,2023.2.2,Win32,82.6446281,60ea5c6d8fcc1129d20b7b92,65d6bb0e977760de756971f7,65d6befb979b6efb5b451d21,0.0201,0.0202,0,99,99,70,1,fourtwo,,,,,,,,,,,,,,,,,,,,,,,,,,,,,,,,,,,,,,,,,,,,,,,,,,,,,,,,,,,,,,,,,,,,,,,,,,,,,,,,,,,,,,,,,,,,,,,,,,,,,,,,,,,,,,,,,,,,,,,,,,,,,,,,,,,,,,,,,
,,60ea5c6d8fcc1129d20b7b92,2024-02-21_19h27.13.534,kallum_motion_pilot,2023.2.2,Win32,82.6446281,60ea5c6d8fcc1129d20b7b92,65d6bb0e977760de756971f7,65d6befb979b6efb5b451d21,0.0202,0.0203,0,100,100,126,1,eightsix,,,,,,,,,,,,,,,,,,,,,,,,,,,,,,,,,,,,,,,,,,,,,,,,,,,,,,,,,,,,,,,,,,,,,,,,,,,,,,,,,,,,,,,,,,,,,,,,,,,,,,,,,,,,,,,,,,,,,,,,,,,,,,,,,,,,,,,,,
,,60ea5c6d8fcc1129d20b7b92,2024-02-21_19h27.13.534,kallum_motion_pilot,2023.2.2,Win32,82.6446281,60ea5c6d8fcc1129d20b7b92,65d6bb0e977760de756971f7,65d6befb979b6efb5b451d21,0.0203,0.0203,0,101,101,69,1,threefour,,,,,,,,,,,,,,,,,,,,,,,,,,,,,,,,,,,,,,,,,,,,,,,,,,,,,,,,,,,,,,,,,,,,,,,,,,,,,,,,,,,,,,,,,,,,,,,,,,,,,,,,,,,,,,,,,,,,,,,,,,,,,,,,,,,,,,,,,
,,60ea5c6d8fcc1129d20b7b92,2024-02-21_19h27.13.534,kallum_motion_pilot,2023.2.2,Win32,82.6446281,60ea5c6d8fcc1129d20b7b92,65d6bb0e977760de756971f7,65d6befb979b6efb5b451d21,0.0203,0.0203,0,102,102,10,1,twoone,,,,,,,,,,,,,,,,,,,,,,,,,,,,,,,,,,,,,,,,,,,,,,,,,,,,,,,,,,,,,,,,,,,,,,,,,,,,,,,,,,,,,,,,,,,,,,,,,,,,,,,,,,,,,,,,,,,,,,,,,,,,,,,,,,,,,,,,,
,,60ea5c6d8fcc1129d20b7b92,2024-02-21_19h27.13.534,kallum_motion_pilot,2023.2.2,Win32,82.6446281,60ea5c6d8fcc1129d20b7b92,65d6bb0e977760de756971f7,65d6befb979b6efb5b451d21,0.0204,0.0204,0,103,103,53,1,threefour,,,,,,,,,,,,,,,,,,,,,,,,,,,,,,,,,,,,,,,,,,,,,,,,,,,,,,,,,,,,,,,,,,,,,,,,,,,,,,,,,,,,,,,,,,,,,,,,,,,,,,,,,,,,,,,,,,,,,,,,,,,,,,,,,,,,,,,,,
,,60ea5c6d8fcc1129d20b7b92,2024-02-21_19h27.13.534,kallum_motion_pilot,2023.2.2,Win32,82.6446281,60ea5c6d8fcc1129d20b7b92,65d6bb0e977760de756971f7,65d6befb979b6efb5b451d21,0.0204,0.0204,0,104,104,132,1,sevenfive,,,,,,,,,,,,,,,,,,,,,,,,,,,,,,,,,,,,,,,,,,,,,,,,,,,,,,,,,,,,,,,,,,,,,,,,,,,,,,,,,,,,,,,,,,,,,,,,,,,,,,,,,,,,,,,,,,,,,,,,,,,,,,,,,,,,,,,,,
,,60ea5c6d8fcc1129d20b7b92,2024-02-21_19h27.13.534,kallum_motion_pilot,2023.2.2,Win32,82.6446281,60ea5c6d8fcc1129d20b7b92,65d6bb0e977760de756971f7,65d6befb979b6efb5b451d21,0.0204,0.0205,0,105,105,108,1,sevenfive,,,,,,,,,,,,,,,,,,,,,,,,,,,,,,,,,,,,,,,,,,,,,,,,,,,,,,,,,,,,,,,,,,,,,,,,,,,,,,,,,,,,,,,,,,,,,,,,,,,,,,,,,,,,,,,,,,,,,,,,,,,,,,,,,,,,,,,,,
,,60ea5c6d8fcc1129d20b7b92,2024-02-21_19h27.13.534,kallum_motion_pilot,2023.2.2,Win32,82.6446281,60ea5c6d8fcc1129d20b7b92,65d6bb0e977760de756971f7,65d6befb979b6efb5b451d21,0.0205,0.0205,0,106,106,125,1,seveneight,,,,,,,,,,,,,,,,,,,,,,,,,,,,,,,,,,,,,,,,,,,,,,,,,,,,,,,,,,,,,,,,,,,,,,,,,,,,,,,,,,,,,,,,,,,,,,,,,,,,,,,,,,,,,,,,,,,,,,,,,,,,,,,,,,,,,,,,,
,,60ea5c6d8fcc1129d20b7b92,2024-02-21_19h27.13.534,kallum_motion_pilot,2023.2.2,Win32,82.6446281,60ea5c6d8fcc1129d20b7b92,65d6bb0e977760de756971f7,65d6befb979b6efb5b451d21,0.0205,0.0205,0,107,107,116,1,sevenfive,,,,,,,,,,,,,,,,,,,,,,,,,,,,,,,,,,,,,,,,,,,,,,,,,,,,,,,,,,,,,,,,,,,,,,,,,,,,,,,,,,,,,,,,,,,,,,,,,,,,,,,,,,,,,,,,,,,,,,,,,,,,,,,,,,,,,,,,,
,,60ea5c6d8fcc1129d20b7b92,2024-02-21_19h27.13.534,kallum_motion_pilot,2023.2.2,Win32,82.6446281,60ea5c6d8fcc1129d20b7b92,65d6bb0e977760de756971f7,65d6befb979b6efb5b451d21,0.0206,0.0206,0,108,108,33,1,onethree,,,,,,,,,,,,,,,,,,,,,,,,,,,,,,,,,,,,,,,,,,,,,,,,,,,,,,,,,,,,,,,,,,,,,,,,,,,,,,,,,,,,,,,,,,,,,,,,,,,,,,,,,,,,,,,,,,,,,,,,,,,,,,,,,,,,,,,,,
,,60ea5c6d8fcc1129d20b7b92,2024-02-21_19h27.13.534,kallum_motion_pilot,2023.2.2,Win32,82.6446281,60ea5c6d8fcc1129d20b7b92,65d6bb0e977760de756971f7,65d6befb979b6efb5b451d21,0.0206,0.0207,0,109,109,151,1,eightseven,,,,,,,,,,,,,,,,,,,,,,,,,,,,,,,,,,,,,,,,,,,,,,,,,,,,,,,,,,,,,,,,,,,,,,,,,,,,,,,,,,,,,,,,,,,,,,,,,,,,,,,,,,,,,,,,,,,,,,,,,,,,,,,,,,,,,,,,,
,,60ea5c6d8fcc1129d20b7b92,2024-02-21_19h27.13.534,kallum_motion_pilot,2023.2.2,Win32,82.6446281,60ea5c6d8fcc1129d20b7b92,65d6bb0e977760de756971f7,65d6befb979b6efb5b451d21,0.0207,0.0207,0,110,110,138,1,sixfive,,,,,,,,,,,,,,,,,,,,,,,,,,,,,,,,,,,,,,,,,,,,,,,,,,,,,,,,,,,,,,,,,,,,,,,,,,,,,,,,,,,,,,,,,,,,,,,,,,,,,,,,,,,,,,,,,,,,,,,,,,,,,,,,,,,,,,,,,
,,60ea5c6d8fcc1129d20b7b92,2024-02-21_19h27.13.534,kallum_motion_pilot,2023.2.2,Win32,82.6446281,60ea5c6d8fcc1129d20b7b92,65d6bb0e977760de756971f7,65d6befb979b6efb5b451d21,0.0207,0.0208,0,111,111,77,1,threefour,,,,,,,,,,,,,,,,,,,,,,,,,,,,,,,,,,,,,,,,,,,,,,,,,,,,,,,,,,,,,,,,,,,,,,,,,,,,,,,,,,,,,,,,,,,,,,,,,,,,,,,,,,,,,,,,,,,,,,,,,,,,,,,,,,,,,,,,,
,,60ea5c6d8fcc1129d20b7b92,2024-02-21_19h27.13.534,kallum_motion_pilot,2023.2.2,Win32,82.6446281,60ea5c6d8fcc1129d20b7b92,65d6bb0e977760de756971f7,65d6befb979b6efb5b451d21,0.0208,0.0208,0,112,112,43,1,twofour,,,,,,,,,,,,,,,,,,,,,,,,,,,,,,,,,,,,,,,,,,,,,,,,,,,,,,,,,,,,,,,,,,,,,,,,,,,,,,,,,,,,,,,,,,,,,,,,,,,,,,,,,,,,,,,,,,,,,,,,,,,,,,,,,,,,,,,,,
,,60ea5c6d8fcc1129d20b7b92,2024-02-21_19h27.13.534,kallum_motion_pilot,2023.2.2,Win32,82.6446281,60ea5c6d8fcc1129d20b7b92,65d6bb0e977760de756971f7,65d6befb979b6efb5b451d21,0.0209,0.0209,0,113,113,99,1,sixeight,,,,,,,,,,,,,,,,,,,,,,,,,,,,,,,,,,,,,,,,,,,,,,,,,,,,,,,,,,,,,,,,,,,,,,,,,,,,,,,,,,,,,,,,,,,,,,,,,,,,,,,,,,,,,,,,,,,,,,,,,,,,,,,,,,,,,,,,,
,,60ea5c6d8fcc1129d20b7b92,2024-02-21_19h27.13.534,kallum_motion_pilot,2023.2.2,Win32,82.6446281,60ea5c6d8fcc1129d20b7b92,65d6bb0e977760de756971f7,65d6befb979b6efb5b451d21,0.0209,0.0209,0,114,114,137,1,fiveseven,,,,,,,,,,,,,,,,,,,,,,,,,,,,,,,,,,,,,,,,,,,,,,,,,,,,,,,,,,,,,,,,,,,,,,,,,,,,,,,,,,,,,,,,,,,,,,,,,,,,,,,,,,,,,,,,,,,,,,,,,,,,,,,,,,,,,,,,,
,,60ea5c6d8fcc1129d20b7b92,2024-02-21_19h27.13.534,kallum_motion_pilot,2023.2.2,Win32,82.6446281,60ea5c6d8fcc1129d20b7b92,65d6bb0e977760de756971f7,65d6befb979b6efb5b451d21,0.0209,0.0209,0,115,115,83,1,sixeight,,,,,,,,,,,,,,,,,,,,,,,,,,,,,,,,,,,,,,,,,,,,,,,,,,,,,,,,,,,,,,,,,,,,,,,,,,,,,,,,,,,,,,,,,,,,,,,,,,,,,,,,,,,,,,,,,,,,,,,,,,,,,,,,,,,,,,,,,
,,60ea5c6d8fcc1129d20b7b92,2024-02-21_19h27.13.534,kallum_motion_pilot,2023.2.2,Win32,82.6446281,60ea5c6d8fcc1129d20b7b92,65d6bb0e977760de756971f7,65d6befb979b6efb5b451d21,0.021,0.0211,0,116,116,38,1,fourtwo,,,,,,,,,,,,,,,,,,,,,,,,,,,,,,,,,,,,,,,,,,,,,,,,,,,,,,,,,,,,,,,,,,,,,,,,,,,,,,,,,,,,,,,,,,,,,,,,,,,,,,,,,,,,,,,,,,,,,,,,,,,,,,,,,,,,,,,,,
,,60ea5c6d8fcc1129d20b7b92,2024-02-21_19h27.13.534,kallum_motion_pilot,2023.2.2,Win32,82.6446281,60ea5c6d8fcc1129d20b7b92,65d6bb0e977760de756971f7,65d6befb979b6efb5b451d21,0.0211,0.0211,0,117,117,128,1,fivesix,,,,,,,,,,,,,,,,,,,,,,,,,,,,,,,,,,,,,,,,,,,,,,,,,,,,,,,,,,,,,,,,,,,,,,,,,,,,,,,,,,,,,,,,,,,,,,,,,,,,,,,,,,,,,,,,,,,,,,,,,,,,,,,,,,,,,,,,,
,,60ea5c6d8fcc1129d20b7b92,2024-02-21_19h27.13.534,kallum_motion_pilot,2023.2.2,Win32,82.6446281,60ea5c6d8fcc1129d20b7b92,65d6bb0e977760de756971f7,65d6befb979b6efb5b451d21,0.0211,0.0211,0,118,118,145,1,fiveseven,,,,,,,,,,,,,,,,,,,,,,,,,,,,,,,,,,,,,,,,,,,,,,,,,,,,,,,,,,,,,,,,,,,,,,,,,,,,,,,,,,,,,,,,,,,,,,,,,,,,,,,,,,,,,,,,,,,,,,,,,,,,,,,,,,,,,,,,,
,,60ea5c6d8fcc1129d20b7b92,2024-02-21_19h27.13.534,kallum_motion_pilot,2023.2.2,Win32,82.6446281,60ea5c6d8fcc1129d20b7b92,65d6bb0e977760de756971f7,65d6befb979b6efb5b451d21,0.0212,0.0212,0,119,119,37,1,threefour,,,,,,,,,,,,,,,,,,,,,,,,,,,,,,,,,,,,,,,,,,,,,,,,,,,,,,,,,,,,,,,,,,,,,,,,,,,,,,,,,,,,,,,,,,,,,,,,,,,,,,,,,,,,,,,,,,,,,,,,,,,,,,,,,,,,,,,,,
,,60ea5c6d8fcc1129d20b7b92,2024-02-21_19h27.13.534,kallum_motion_pilot,2023.2.2,Win32,82.6446281,60ea5c6d8fcc1129d20b7b92,65d6bb0e977760de756971f7,65d6befb979b6efb5b451d21,0.0212,0.0212,0,120,120,63,1,fourthree,,,,,,,,,,,,,,,,,,,,,,,,,,,,,,,,,,,,,,,,,,,,,,,,,,,,,,,,,,,,,,,,,,,,,,,,,,,,,,,,,,,,,,,,,,,,,,,,,,,,,,,,,,,,,,,,,,,,,,,,,,,,,,,,,,,,,,,,,
,,60ea5c6d8fcc1129d20b7b92,2024-02-21_19h27.13.534,kallum_motion_pilot,2023.2.2,Win32,82.6446281,60ea5c6d8fcc1129d20b7b92,65d6bb0e977760de756971f7,65d6befb979b6efb5b451d21,0.0212,0.0212,0,121,121,104,1,fivesix,,,,,,,,,,,,,,,,,,,,,,,,,,,,,,,,,,,,,,,,,,,,,,,,,,,,,,,,,,,,,,,,,,,,,,,,,,,,,,,,,,,,,,,,,,,,,,,,,,,,,,,,,,,,,,,,,,,,,,,,,,,,,,,,,,,,,,,,,
,,60ea5c6d8fcc1129d20b7b92,2024-02-21_19h27.13.534,kallum_motion_pilot,2023.2.2,Win32,82.6446281,60ea5c6d8fcc1129d20b7b92,65d6bb0e977760de756971f7,65d6befb979b6efb5b451d21,0.0213,0.0213,0,122,122,79,1,eightseven,,,,,,,,,,,,,,,,,,,,,,,,,,,,,,,,,,,,,,,,,,,,,,,,,,,,,,,,,,,,,,,,,,,,,,,,,,,,,,,,,,,,,,,,,,,,,,,,,,,,,,,,,,,,,,,,,,,,,,,,,,,,,,,,,,,,,,,,,
,,60ea5c6d8fcc1129d20b7b92,2024-02-21_19h27.13.534,kallum_motion_pilot,2023.2.2,Win32,82.6446281,60ea5c6d8fcc1129d20b7b92,65d6bb0e977760de756971f7,65d6befb979b6efb5b451d21,0.0214,0.0214,0,123,123,46,1,fourtwo,,,,,,,,,,,,,,,,,,,,,,,,,,,,,,,,,,,,,,,,,,,,,,,,,,,,,,,,,,,,,,,,,,,,,,,,,,,,,,,,,,,,,,,,,,,,,,,,,,,,,,,,,,,,,,,,,,,,,,,,,,,,,,,,,,,,,,,,,
,,60ea5c6d8fcc1129d20b7b92,2024-02-21_19h27.13.534,kallum_motion_pilot,2023.2.2,Win32,82.6446281,60ea5c6d8fcc1129d20b7b92,65d6bb0e977760de756971f7,65d6befb979b6efb5b451d21,0.0214,0.0214,0,124,124,24,1,onetwo,,,,,,,,,,,,,,,,,,,,,,,,,,,,,,,,,,,,,,,,,,,,,,,,,,,,,,,,,,,,,,,,,,,,,,,,,,,,,,,,,,,,,,,,,,,,,,,,,,,,,,,,,,,,,,,,,,,,,,,,,,,,,,,,,,,,,,,,,
,,60ea5c6d8fcc1129d20b7b92,2024-02-21_19h27.13.534,kallum_motion_pilot,2023.2.2,Win32,82.6446281,60ea5c6d8fcc1129d20b7b92,65d6bb0e977760de756971f7,65d6befb979b6efb5b451d21,0.0214,0.0215,0,125,125,160,1,fivesix,,,,,,,,,,,,,,,,,,,,,,,,,,,,,,,,,,,,,,,,,,,,,,,,,,,,,,,,,,,,,,,,,,,,,,,,,,,,,,,,,,,,,,,,,,,,,,,,,,,,,,,,,,,,,,,,,,,,,,,,,,,,,,,,,,,,,,,,,
,,60ea5c6d8fcc1129d20b7b92,2024-02-21_19h27.13.534,kallum_motion_pilot,2023.2.2,Win32,82.6446281,60ea5c6d8fcc1129d20b7b92,65d6bb0e977760de756971f7,65d6befb979b6efb5b451d21,0.0215,0.0216,0,126,126,41,1,onethree,,,,,,,,,,,,,,,,,,,,,,,,,,,,,,,,,,,,,,,,,,,,,,,,,,,,,,,,,,,,,,,,,,,,,,,,,,,,,,,,,,,,,,,,,,,,,,,,,,,,,,,,,,,,,,,,,,,,,,,,,,,,,,,,,,,,,,,,,
,,60ea5c6d8fcc1129d20b7b92,2024-02-21_19h27.13.534,kallum_motion_pilot,2023.2.2,Win32,82.6446281,60ea5c6d8fcc1129d20b7b92,65d6bb0e977760de756971f7,65d6befb979b6efb5b451d21,0.0216,0.0216,0,127,127,8,1,onetwo,,,,,,,,,,,,,,,,,,,,,,,,,,,,,,,,,,,,,,,,,,,,,,,,,,,,,,,,,,,,,,,,,,,,,,,,,,,,,,,,,,,,,,,,,,,,,,,,,,,,,,,,,,,,,,,,,,,,,,,,,,,,,,,,,,,,,,,,,
,,60ea5c6d8fcc1129d20b7b92,2024-02-21_19h27.13.534,kallum_motion_pilot,2023.2.2,Win32,82.6446281,60ea5c6d8fcc1129d20b7b92,65d6bb0e977760de756971f7,65d6befb979b6efb5b451d21,0.0216,0.0216,0,128,128,92,1,sevenfive,,,,,,,,,,,,,,,,,,,,,,,,,,,,,,,,,,,,,,,,,,,,,,,,,,,,,,,,,,,,,,,,,,,,,,,,,,,,,,,,,,,,,,,,,,,,,,,,,,,,,,,,,,,,,,,,,,,,,,,,,,,,,,,,,,,,,,,,,
,,60ea5c6d8fcc1129d20b7b92,2024-02-21_19h27.13.534,kallum_motion_pilot,2023.2.2,Win32,82.6446281,60ea5c6d8fcc1129d20b7b92,65d6bb0e977760de756971f7,65d6befb979b6efb5b451d21,0.0216,0.0217,0,129,129,64,1,onetwo,,,,,,,,,,,,,,,,,,,,,,,,,,,,,,,,,,,,,,,,,,,,,,,,,,,,,,,,,,,,,,,,,,,,,,,,,,,,,,,,,,,,,,,,,,,,,,,,,,,,,,,,,,,,,,,,,,,,,,,,,,,,,,,,,,,,,,,,,
,,60ea5c6d8fcc1129d20b7b92,2024-02-21_19h27.13.534,kallum_motion_pilot,2023.2.2,Win32,82.6446281,60ea5c6d8fcc1129d20b7b92,65d6bb0e977760de756971f7,65d6befb979b6efb5b451d21,0.0218,0.0218,0,130,130,23,1,fourthree,,,,,,,,,,,,,,,,,,,,,,,,,,,,,,,,,,,,,,,,,,,,,,,,,,,,,,,,,,,,,,,,,,,,,,,,,,,,,,,,,,,,,,,,,,,,,,,,,,,,,,,,,,,,,,,,,,,,,,,,,,,,,,,,,,,,,,,,,
,,60ea5c6d8fcc1129d20b7b92,2024-02-21_19h27.13.534,kallum_motion_pilot,2023.2.2,Win32,82.6446281,60ea5c6d8fcc1129d20b7b92,65d6bb0e977760de756971f7,65d6befb979b6efb5b451d21,0.0218,0.0218,0,131,131,84,1,sevenfive,,,,,,,,,,,,,,,,,,,,,,,,,,,,,,,,,,,,,,,,,,,,,,,,,,,,,,,,,,,,,,,,,,,,,,,,,,,,,,,,,,,,,,,,,,,,,,,,,,,,,,,,,,,,,,,,,,,,,,,,,,,,,,,,,,,,,,,,,
,,60ea5c6d8fcc1129d20b7b92,2024-02-21_19h27.13.534,kallum_motion_pilot,2023.2.2,Win32,82.6446281,60ea5c6d8fcc1129d20b7b92,65d6bb0e977760de756971f7,65d6befb979b6efb5b451d21,0.0218,0.0218,0,132,132,149,1,seveneight,,,,,,,,,,,,,,,,,,,,,,,,,,,,,,,,,,,,,,,,,,,,,,,,,,,,,,,,,,,,,,,,,,,,,,,,,,,,,,,,,,,,,,,,,,,,,,,,,,,,,,,,,,,,,,,,,,,,,,,,,,,,,,,,,,,,,,,,,
,,60ea5c6d8fcc1129d20b7b92,2024-02-21_19h27.13.534,kallum_motion_pilot,2023.2.2,Win32,82.6446281,60ea5c6d8fcc1129d20b7b92,65d6bb0e977760de756971f7,65d6befb979b6efb5b451d21,0.0218,0.0219,0,133,133,110,1,eightsix,,,,,,,,,,,,,,,,,,,,,,,,,,,,,,,,,,,,,,,,,,,,,,,,,,,,,,,,,,,,,,,,,,,,,,,,,,,,,,,,,,,,,,,,,,,,,,,,,,,,,,,,,,,,,,,,,,,,,,,,,,,,,,,,,,,,,,,,,
,,60ea5c6d8fcc1129d20b7b92,2024-02-21_19h27.13.534,kallum_motion_pilot,2023.2.2,Win32,82.6446281,60ea5c6d8fcc1129d20b7b92,65d6bb0e977760de756971f7,65d6befb979b6efb5b451d21,0.0219,0.0219,0,134,134,111,1,eightseven,,,,,,,,,,,,,,,,,,,,,,,,,,,,,,,,,,,,,,,,,,,,,,,,,,,,,,,,,,,,,,,,,,,,,,,,,,,,,,,,,,,,,,,,,,,,,,,,,,,,,,,,,,,,,,,,,,,,,,,,,,,,,,,,,,,,,,,,,
,,60ea5c6d8fcc1129d20b7b92,2024-02-21_19h27.13.534,kallum_motion_pilot,2023.2.2,Win32,82.6446281,60ea5c6d8fcc1129d20b7b92,65d6bb0e977760de756971f7,65d6befb979b6efb5b451d21,0.022,0.022,0,135,135,90,1,sixfive,,,,,,,,,,,,,,,,,,,,,,,,,,,,,,,,,,,,,,,,,,,,,,,,,,,,,,,,,,,,,,,,,,,,,,,,,,,,,,,,,,,,,,,,,,,,,,,,,,,,,,,,,,,,,,,,,,,,,,,,,,,,,,,,,,,,,,,,,
,,60ea5c6d8fcc1129d20b7b92,2024-02-21_19h27.13.534,kallum_motion_pilot,2023.2.2,Win32,82.6446281,60ea5c6d8fcc1129d20b7b92,65d6bb0e977760de756971f7,65d6befb979b6efb5b451d21,0.0221,0.0221,0,136,136,156,1,sevenfive,,,,,,,,,,,,,,,,,,,,,,,,,,,,,,,,,,,,,,,,,,,,,,,,,,,,,,,,,,,,,,,,,,,,,,,,,,,,,,,,,,,,,,,,,,,,,,,,,,,,,,,,,,,,,,,,,,,,,,,,,,,,,,,,,,,,,,,,,
,,60ea5c6d8fcc1129d20b7b92,2024-02-21_19h27.13.534,kallum_motion_pilot,2023.2.2,Win32,82.6446281,60ea5c6d8fcc1129d20b7b92,65d6bb0e977760de756971f7,65d6befb979b6efb5b451d21,0.0221,0.0221,0,137,137,86,1,eightsix,,,,,,,,,,,,,,,,,,,,,,,,,,,,,,,,,,,,,,,,,,,,,,,,,,,,,,,,,,,,,,,,,,,,,,,,,,,,,,,,,,,,,,,,,,,,,,,,,,,,,,,,,,,,,,,,,,,,,,,,,,,,,,,,,,,,,,,,,
,,60ea5c6d8fcc1129d20b7b92,2024-02-21_19h27.13.534,kallum_motion_pilot,2023.2.2,Win32,82.6446281,60ea5c6d8fcc1129d20b7b92,65d6bb0e977760de756971f7,65d6befb979b6efb5b451d21,0.0221,0.0221,0,138,138,102,1,eightsix,,,,,,,,,,,,,,,,,,,,,,,,,,,,,,,,,,,,,,,,,,,,,,,,,,,,,,,,,,,,,,,,,,,,,,,,,,,,,,,,,,,,,,,,,,,,,,,,,,,,,,,,,,,,,,,,,,,,,,,,,,,,,,,,,,,,,,,,,
,,60ea5c6d8fcc1129d20b7b92,2024-02-21_19h27.13.534,kallum_motion_pilot,2023.2.2,Win32,82.6446281,60ea5c6d8fcc1129d20b7b92,65d6bb0e977760de756971f7,65d6befb979b6efb5b451d21,0.0222,0.0222,0,139,139,3,1,twofour,,,,,,,,,,,,,,,,,,,,,,,,,,,,,,,,,,,,,,,,,,,,,,,,,,,,,,,,,,,,,,,,,,,,,,,,,,,,,,,,,,,,,,,,,,,,,,,,,,,,,,,,,,,,,,,,,,,,,,,,,,,,,,,,,,,,,,,,,
,,60ea5c6d8fcc1129d20b7b92,2024-02-21_19h27.13.534,kallum_motion_pilot,2023.2.2,Win32,82.6446281,60ea5c6d8fcc1129d20b7b92,65d6bb0e977760de756971f7,65d6befb979b6efb5b451d21,0.0223,0.0223,0,140,140,51,1,twofour,,,,,,,,,,,,,,,,,,,,,,,,,,,,,,,,,,,,,,,,,,,,,,,,,,,,,,,,,,,,,,,,,,,,,,,,,,,,,,,,,,,,,,,,,,,,,,,,,,,,,,,,,,,,,,,,,,,,,,,,,,,,,,,,,,,,,,,,,
,,60ea5c6d8fcc1129d20b7b92,2024-02-21_19h27.13.534,kallum_motion_pilot,2023.2.2,Win32,82.6446281,60ea5c6d8fcc1129d20b7b92,65d6bb0e977760de756971f7,65d6befb979b6efb5b451d21,0.0223,0.0223,0,141,141,31,1,fourthree,,,,,,,,,,,,,,,,,,,,,,,,,,,,,,,,,,,,,,,,,,,,,,,,,,,,,,,,,,,,,,,,,,,,,,,,,,,,,,,,,,,,,,,,,,,,,,,,,,,,,,,,,,,,,,,,,,,,,,,,,,,,,,,,,,,,,,,,,
,,60ea5c6d8fcc1129d20b7b92,2024-02-21_19h27.13.534,kallum_motion_pilot,2023.2.2,Win32,82.6446281,60ea5c6d8fcc1129d20b7b92,65d6bb0e977760de756971f7,65d6befb979b6efb5b451d21,0.0224,0.0224,0,142,142,11,1,twofour,,,,,,,,,,,,,,,,,,,,,,,,,,,,,,,,,,,,,,,,,,,,,,,,,,,,,,,,,,,,,,,,,,,,,,,,,,,,,,,,,,,,,,,,,,,,,,,,,,,,,,,,,,,,,,,,,,,,,,,,,,,,,,,,,,,,,,,,,
,,60ea5c6d8fcc1129d20b7b92,2024-02-21_19h27.13.534,kallum_motion_pilot,2023.2.2,Win32,82.6446281,60ea5c6d8fcc1129d20b7b92,65d6bb0e977760de756971f7,65d6befb979b6efb5b451d21,0.0224,0.0224,0,143,143,56,1,onetwo,,,,,,,,,,,,,,,,,,,,,,,,,,,,,,,,,,,,,,,,,,,,,,,,,,,,,,,,,,,,,,,,,,,,,,,,,,,,,,,,,,,,,,,,,,,,,,,,,,,,,,,,,,,,,,,,,,,,,,,,,,,,,,,,,,,,,,,,,
,,60ea5c6d8fcc1129d20b7b92,2024-02-21_19h27.13.534,kallum_motion_pilot,2023.2.2,Win32,82.6446281,60ea5c6d8fcc1129d20b7b92,65d6bb0e977760de756971f7,65d6befb979b6efb5b451d21,0.0225,0.0225,0,144,144,154,1,sixfive,,,,,,,,,,,,,,,,,,,,,,,,,,,,,,,,,,,,,,,,,,,,,,,,,,,,,,,,,,,,,,,,,,,,,,,,,,,,,,,,,,,,,,,,,,,,,,,,,,,,,,,,,,,,,,,,,,,,,,,,,,,,,,,,,,,,,,,,,
,,60ea5c6d8fcc1129d20b7b92,2024-02-21_19h27.13.534,kallum_motion_pilot,2023.2.2,Win32,82.6446281,60ea5c6d8fcc1129d20b7b92,65d6bb0e977760de756971f7,65d6befb979b6efb5b451d21,0.0225,0.0225,0,145,145,39,1,fourthree,,,,,,,,,,,,,,,,,,,,,,,,,,,,,,,,,,,,,,,,,,,,,,,,,,,,,,,,,,,,,,,,,,,,,,,,,,,,,,,,,,,,,,,,,,,,,,,,,,,,,,,,,,,,,,,,,,,,,,,,,,,,,,,,,,,,,,,,,
,,60ea5c6d8fcc1129d20b7b92,2024-02-21_19h27.13.534,kallum_motion_pilot,2023.2.2,Win32,82.6446281,60ea5c6d8fcc1129d20b7b92,65d6bb0e977760de756971f7,65d6befb979b6efb5b451d21,0.0225,0.0225,0,146,146,98,1,sixfive,,,,,,,,,,,,,,,,,,,,,,,,,,,,,,,,,,,,,,,,,,,,,,,,,,,,,,,,,,,,,,,,,,,,,,,,,,,,,,,,,,,,,,,,,,,,,,,,,,,,,,,,,,,,,,,,,,,,,,,,,,,,,,,,,,,,,,,,,
,,60ea5c6d8fcc1129d20b7b92,2024-02-21_19h27.13.534,kallum_motion_pilot,2023.2.2,Win32,82.6446281,60ea5c6d8fcc1129d20b7b92,65d6bb0e977760de756971f7,65d6befb979b6efb5b451d21,0.0225,0.0226,0,147,147,95,1,eightseven,,,,,,,,,,,,,,,,,,,,,,,,,,,,,,,,,,,,,,,,,,,,,,,,,,,,,,,,,,,,,,,,,,,,,,,,,,,,,,,,,,,,,,,,,,,,,,,,,,,,,,,,,,,,,,,,,,,,,,,,,,,,,,,,,,,,,,,,,
,,60ea5c6d8fcc1129d20b7b92,2024-02-21_19h27.13.534,kallum_motion_pilot,2023.2.2,Win32,82.6446281,60ea5c6d8fcc1129d20b7b92,65d6bb0e977760de756971f7,65d6befb979b6efb5b451d21,0.0226,0.0226,0,148,148,28,1,threeone,,,,,,,,,,,,,,,,,,,,,,,,,,,,,,,,,,,,,,,,,,,,,,,,,,,,,,,,,,,,,,,,,,,,,,,,,,,,,,,,,,,,,,,,,,,,,,,,,,,,,,,,,,,,,,,,,,,,,,,,,,,,,,,,,,,,,,,,,
,,60ea5c6d8fcc1129d20b7b92,2024-02-21_19h27.13.534,kallum_motion_pilot,2023.2.2,Win32,82.6446281,60ea5c6d8fcc1129d20b7b92,65d6bb0e977760de756971f7,65d6befb979b6efb5b451d21,0.0227,0.0227,0,149,149,139,1,sixeight,,,,,,,,,,,,,,,,,,,,,,,,,,,,,,,,,,,,,,,,,,,,,,,,,,,,,,,,,,,,,,,,,,,,,,,,,,,,,,,,,,,,,,,,,,,,,,,,,,,,,,,,,,,,,,,,,,,,,,,,,,,,,,,,,,,,,,,,,
,,60ea5c6d8fcc1129d20b7b92,2024-02-21_19h27.13.534,kallum_motion_pilot,2023.2.2,Win32,82.6446281,60ea5c6d8fcc1129d20b7b92,65d6bb0e977760de756971f7,65d6befb979b6efb5b451d21,0.0228,0.0228,0,150,150,119,1,eightseven,,,,,,,,,,,,,,,,,,,,,,,,,,,,,,,,,,,,,,,,,,,,,,,,,,,,,,,,,,,,,,,,,,,,,,,,,,,,,,,,,,,,,,,,,,,,,,,,,,,,,,,,,,,,,,,,,,,,,,,,,,,,,,,,,,,,,,,,,
,,60ea5c6d8fcc1129d20b7b92,2024-02-21_19h27.13.534,kallum_motion_pilot,2023.2.2,Win32,82.6446281,60ea5c6d8fcc1129d20b7b92,65d6bb0e977760de756971f7,65d6befb979b6efb5b451d21,0.0228,0.0228,0,151,151,18,1,twoone,,,,,,,,,,,,,,,,,,,,,,,,,,,,,,,,,,,,,,,,,,,,,,,,,,,,,,,,,,,,,,,,,,,,,,,,,,,,,,,,,,,,,,,,,,,,,,,,,,,,,,,,,,,,,,,,,,,,,,,,,,,,,,,,,,,,,,,,,
,,60ea5c6d8fcc1129d20b7b92,2024-02-21_19h27.13.534,kallum_motion_pilot,2023.2.2,Win32,82.6446281,60ea5c6d8fcc1129d20b7b92,65d6bb0e977760de756971f7,65d6befb979b6efb5b451d21,0.0228,0.0228,0,152,152,135,1,eightseven,,,,,,,,,,,,,,,,,,,,,,,,,,,,,,,,,,,,,,,,,,,,,,,,,,,,,,,,,,,,,,,,,,,,,,,,,,,,,,,,,,,,,,,,,,,,,,,,,,,,,,,,,,,,,,,,,,,,,,,,,,,,,,,,,,,,,,,,,
,,60ea5c6d8fcc1129d20b7b92,2024-02-21_19h27.13.534,kallum_motion_pilot,2023.2.2,Win32,82.6446281,60ea5c6d8fcc1129d20b7b92,65d6bb0e977760de756971f7,65d6befb979b6efb5b451d21,0.0228,0.0229,0,153,153,144,1,fivesix,,,,,,,,,,,,,,,,,,,,,,,,,,,,,,,,,,,,,,,,,,,,,,,,,,,,,,,,,,,,,,,,,,,,,,,,,,,,,,,,,,,,,,,,,,,,,,,,,,,,,,,,,,,,,,,,,,,,,,,,,,,,,,,,,,,,,,,,,
,,60ea5c6d8fcc1129d20b7b92,2024-02-21_19h27.13.534,kallum_motion_pilot,2023.2.2,Win32,82.6446281,60ea5c6d8fcc1129d20b7b92,65d6bb0e977760de756971f7,65d6befb979b6efb5b451d21,0.0229,0.0229,0,154,154,122,1,sixfive,,,,,,,,,,,,,,,,,,,,,,,,,,,,,,,,,,,,,,,,,,,,,,,,,,,,,,,,,,,,,,,,,,,,,,,,,,,,,,,,,,,,,,,,,,,,,,,,,,,,,,,,,,,,,,,,,,,,,,,,,,,,,,,,,,,,,,,,,
,,60ea5c6d8fcc1129d20b7b92,2024-02-21_19h27.13.534,kallum_motion_pilot,2023.2.2,Win32,82.6446281,60ea5c6d8fcc1129d20b7b92,65d6bb0e977760de756971f7,65d6befb979b6efb5b451d21,0.023,0.023,0,155,155,55,1,fourthree,,,,,,,,,,,,,,,,,,,,,,,,,,,,,,,,,,,,,,,,,,,,,,,,,,,,,,,,,,,,,,,,,,,,,,,,,,,,,,,,,,,,,,,,,,,,,,,,,,,,,,,,,,,,,,,,,,,,,,,,,,,,,,,,,,,,,,,,,
,,60ea5c6d8fcc1129d20b7b92,2024-02-21_19h27.13.534,kallum_motion_pilot,2023.2.2,Win32,82.6446281,60ea5c6d8fcc1129d20b7b92,65d6bb0e977760de756971f7,65d6befb979b6efb5b451d21,0.023,0.0231,0,156,156,62,1,fourtwo,,,,,,,,,,,,,,,,,,,,,,,,,,,,,,,,,,,,,,,,,,,,,,,,,,,,,,,,,,,,,,,,,,,,,,,,,,,,,,,,,,,,,,,,,,,,,,,,,,,,,,,,,,,,,,,,,,,,,,,,,,,,,,,,,,,,,,,,,
,,60ea5c6d8fcc1129d20b7b92,2024-02-21_19h27.13.534,kallum_motion_pilot,2023.2.2,Win32,82.6446281,60ea5c6d8fcc1129d20b7b92,65d6bb0e977760de756971f7,65d6befb979b6efb5b451d21,0.0231,0.0231,0,157,157,114,1,sixfive,,,,,,,,,,,,,,,,,,,,,,,,,,,,,,,,,,,,,,,,,,,,,,,,,,,,,,,,,,,,,,,,,,,,,,,,,,,,,,,,,,,,,,,,,,,,,,,,,,,,,,,,,,,,,,,,,,,,,,,,,,,,,,,,,,,,,,,,,
,,60ea5c6d8fcc1129d20b7b92,2024-02-21_19h27.13.534,kallum_motion_pilot,2023.2.2,Win32,82.6446281,60ea5c6d8fcc1129d20b7b92,65d6bb0e977760de756971f7,65d6befb979b6efb5b451d21,0.0232,0.0232,0,158,158,17,1,onethree,,,,,,,,,,,,,,,,,,,,,,,,,,,,,,,,,,,,,,,,,,,,,,,,,,,,,,,,,,,,,,,,,,,,,,,,,,,,,,,,,,,,,,,,,,,,,,,,,,,,,,,,,,,,,,,,,,,,,,,,,,,,,,,,,,,,,,,,,
,,60ea5c6d8fcc1129d20b7b92,2024-02-21_19h27.13.534,kallum_motion_pilot,2023.2.2,Win32,82.6446281,60ea5c6d8fcc1129d20b7b92,65d6bb0e977760de756971f7,65d6befb979b6efb5b451d21,0.0232,0.0232,0,159,159,72,1,onetwo,,,,,,,,,,,,,,,,,,,,,,,,,,,,,,,,,,,,,,,,,,,,,,,,,,,,,,,,,,,,,,,,,,,,,,,,,,,,,,,,,,,,,,,,,,,,,,,,,,,,,,,,,,,,,,,,,,,,,,,,,,,,,,,,,,,,,,,,,
,,60ea5c6d8fcc1129d20b7b92,2024-02-21_19h27.13.534,kallum_motion_pilot,2023.2.2,Win32,82.6446281,60ea5c6d8fcc1129d20b7b92,65d6bb0e977760de756971f7,65d6befb979b6efb5b451d21,0.0232,0.0232,0,160,160,6,1,fourtwo,,,,,,,,,,,,,,,,,,,,,,,,,,,,,,,,,,,,,,,,,,,,,,,,,,,,,,,,,,,,,,,,,,,,,,,,,,,,,,,,,,,,,,,,,,,,,,,,,,,,,,,,,,,,,,,,,,,,,,,,,,,,,,,,,,,,,,,,,
,,60ea5c6d8fcc1129d20b7b92,2024-02-21_19h27.13.534,kallum_motion_pilot,2023.2.2,Win32,82.6446281,60ea5c6d8fcc1129d20b7b92,65d6bb0e977760de756971f7,65d6befb979b6efb5b451d21,0.0233,0.0234,0,161,161,87,1,eightseven,,,,,,,,,,,,,,,,,,,,,,,,,,,,,,,,,,,,,,,,,,,,,,,,,,,,,,,,,,,,,,,,,,,,,,,,,,,,,,,,,,,,,,,,,,,,,,,,,,,,,,,,,,,,,,,,,,,,,,,,,,,,,,,,,,,,,,,,,
,,60ea5c6d8fcc1129d20b7b92,2024-02-21_19h27.13.534,kallum_motion_pilot,2023.2.2,Win32,82.6446281,60ea5c6d8fcc1129d20b7b92,65d6bb0e977760de756971f7,65d6befb979b6efb5b451d21,0.0234,0.0234,1,0,162,9,1,onethree,,,,,,,,,,,,,,,,,,,,,,,,,,,,,,,,,,,,,,,,,,,,,,,,,,,,,,,,,,,,,,,,,,,,,,,,,,,,,,,,,,,,,,,,,,,,,,,,,,,,,,,,,,,,,,,,,,,,,,,,,,,,,,,,,,,,,,,,,
,,60ea5c6d8fcc1129d20b7b92,2024-02-21_19h27.13.534,kallum_motion_pilot,2023.2.2,Win32,82.6446281,60ea5c6d8fcc1129d20b7b92,65d6bb0e977760de756971f7,65d6befb979b6efb5b451d21,0.0234,0.0234,1,1,163,33,1,onethree,,,,,,,,,,,,,,,,,,,,,,,,,,,,,,,,,,,,,,,,,,,,,,,,,,,,,,,,,,,,,,,,,,,,,,,,,,,,,,,,,,,,,,,,,,,,,,,,,,,,,,,,,,,,,,,,,,,,,,,,,,,,,,,,,,,,,,,,,
,,60ea5c6d8fcc1129d20b7b92,2024-02-21_19h27.13.534,kallum_motion_pilot,2023.2.2,Win32,82.6446281,60ea5c6d8fcc1129d20b7b92,65d6bb0e977760de756971f7,65d6befb979b6efb5b451d21,0.0234,0.0235,1,2,164,41,1,onethree,,,,,,,,,,,,,,,,,,,,,,,,,,,,,,,,,,,,,,,,,,,,,,,,,,,,,,,,,,,,,,,,,,,,,,,,,,,,,,,,,,,,,,,,,,,,,,,,,,,,,,,,,,,,,,,,,,,,,,,,,,,,,,,,,,,,,,,,,
,,60ea5c6d8fcc1129d20b7b92,2024-02-21_19h27.13.534,kallum_motion_pilot,2023.2.2,Win32,82.6446281,60ea5c6d8fcc1129d20b7b92,65d6bb0e977760de756971f7,65d6befb979b6efb5b451d21,0.0235,0.0235,1,3,165,84,1,sevenfive,,,,,,,,,,,,,,,,,,,,,,,,,,,,,,,,,,,,,,,,,,,,,,,,,,,,,,,,,,,,,,,,,,,,,,,,,,,,,,,,,,,,,,,,,,,,,,,,,,,,,,,,,,,,,,,,,,,,,,,,,,,,,,,,,,,,,,,,,
,,60ea5c6d8fcc1129d20b7b92,2024-02-21_19h27.13.534,kallum_motion_pilot,2023.2.2,Win32,82.6446281,60ea5c6d8fcc1129d20b7b92,65d6bb0e977760de756971f7,65d6befb979b6efb5b451d21,0.0236,0.0236,1,4,166,112,1,fivesix,,,,,,,,,,,,,,,,,,,,,,,,,,,,,,,,,,,,,,,,,,,,,,,,,,,,,,,,,,,,,,,,,,,,,,,,,,,,,,,,,,,,,,,,,,,,,,,,,,,,,,,,,,,,,,,,,,,,,,,,,,,,,,,,,,,,,,,,,
,,60ea5c6d8fcc1129d20b7b92,2024-02-21_19h27.13.534,kallum_motion_pilot,2023.2.2,Win32,82.6446281,60ea5c6d8fcc1129d20b7b92,65d6bb0e977760de756971f7,65d6befb979b6efb5b451d21,0.0236,0.0237,1,5,167,155,1,sixeight,,,,,,,,,,,,,,,,,,,,,,,,,,,,,,,,,,,,,,,,,,,,,,,,,,,,,,,,,,,,,,,,,,,,,,,,,,,,,,,,,,,,,,,,,,,,,,,,,,,,,,,,,,,,,,,,,,,,,,,,,,,,,,,,,,,,,,,,,
,,60ea5c6d8fcc1129d20b7b92,2024-02-21_19h27.13.534,kallum_motion_pilot,2023.2.2,Win32,82.6446281,60ea5c6d8fcc1129d20b7b92,65d6bb0e977760de756971f7,65d6befb979b6efb5b451d21,0.0237,0.0237,1,6,168,5,1,threefour,,,,,,,,,,,,,,,,,,,,,,,,,,,,,,,,,,,,,,,,,,,,,,,,,,,,,,,,,,,,,,,,,,,,,,,,,,,,,,,,,,,,,,,,,,,,,,,,,,,,,,,,,,,,,,,,,,,,,,,,,,,,,,,,,,,,,,,,,
,,60ea5c6d8fcc1129d20b7b92,2024-02-21_19h27.13.534,kallum_motion_pilot,2023.2.2,Win32,82.6446281,60ea5c6d8fcc1129d20b7b92,65d6bb0e977760de756971f7,65d6befb979b6efb5b451d21,0.0237,0.0237,1,7,169,99,1,sixeight,,,,,,,,,,,,,,,,,,,,,,,,,,,,,,,,,,,,,,,,,,,,,,,,,,,,,,,,,,,,,,,,,,,,,,,,,,,,,,,,,,,,,,,,,,,,,,,,,,,,,,,,,,,,,,,,,,,,,,,,,,,,,,,,,,,,,,,,,
,,60ea5c6d8fcc1129d20b7b92,2024-02-21_19h27.13.534,kallum_motion_pilot,2023.2.2,Win32,82.6446281,60ea5c6d8fcc1129d20b7b92,65d6bb0e977760de756971f7,65d6befb979b6efb5b451d21,0.0238,0.0238,1,8,170,8,1,onetwo,,,,,,,,,,,,,,,,,,,,,,,,,,,,,,,,,,,,,,,,,,,,,,,,,,,,,,,,,,,,,,,,,,,,,,,,,,,,,,,,,,,,,,,,,,,,,,,,,,,,,,,,,,,,,,,,,,,,,,,,,,,,,,,,,,,,,,,,,
,,60ea5c6d8fcc1129d20b7b92,2024-02-21_19h27.13.534,kallum_motion_pilot,2023.2.2,Win32,82.6446281,60ea5c6d8fcc1129d20b7b92,65d6bb0e977760de756971f7,65d6befb979b6efb5b451d21,0.0238,0.0238,1,9,171,102,1,eightsix,,,,,,,,,,,,,,,,,,,,,,,,,,,,,,,,,,,,,,,,,,,,,,,,,,,,,,,,,,,,,,,,,,,,,,,,,,,,,,,,,,,,,,,,,,,,,,,,,,,,,,,,,,,,,,,,,,,,,,,,,,,,,,,,,,,,,,,,,
,,60ea5c6d8fcc1129d20b7b92,2024-02-21_19h27.13.534,kallum_motion_pilot,2023.2.2,Win32,82.6446281,60ea5c6d8fcc1129d20b7b92,65d6bb0e977760de756971f7,65d6befb979b6efb5b451d21,0.0239,0.0239,1,10,172,137,1,fiveseven,,,,,,,,,,,,,,,,,,,,,,,,,,,,,,,,,,,,,,,,,,,,,,,,,,,,,,,,,,,,,,,,,,,,,,,,,,,,,,,,,,,,,,,,,,,,,,,,,,,,,,,,,,,,,,,,,,,,,,,,,,,,,,,,,,,,,,,,,
,,60ea5c6d8fcc1129d20b7b92,2024-02-21_19h27.13.534,kallum_motion_pilot,2023.2.2,Win32,82.6446281,60ea5c6d8fcc1129d20b7b92,65d6bb0e977760de756971f7,65d6befb979b6efb5b451d21,0.024,0.024,1,11,173,73,1,onethree,,,,,,,,,,,,,,,,,,,,,,,,,,,,,,,,,,,,,,,,,,,,,,,,,,,,,,,,,,,,,,,,,,,,,,,,,,,,,,,,,,,,,,,,,,,,,,,,,,,,,,,,,,,,,,,,,,,,,,,,,,,,,,,,,,,,,,,,,
,,60ea5c6d8fcc1129d20b7b92,2024-02-21_19h27.13.534,kallum_motion_pilot,2023.2.2,Win32,82.6446281,60ea5c6d8fcc1129d20b7b92,65d6bb0e977760de756971f7,65d6befb979b6efb5b451d21,0.024,0.024,1,12,174,149,1,seveneight,,,,,,,,,,,,,,,,,,,,,,,,,,,,,,,,,,,,,,,,,,,,,,,,,,,,,,,,,,,,,,,,,,,,,,,,,,,,,,,,,,,,,,,,,,,,,,,,,,,,,,,,,,,,,,,,,,,,,,,,,,,,,,,,,,,,,,,,,
,,60ea5c6d8fcc1129d20b7b92,2024-02-21_19h27.13.534,kallum_motion_pilot,2023.2.2,Win32,82.6446281,60ea5c6d8fcc1129d20b7b92,65d6bb0e977760de756971f7,65d6befb979b6efb5b451d21,0.0241,0.0241,1,13,175,65,1,onethree,,,,,,,,,,,,,,,,,,,,,,,,,,,,,,,,,,,,,,,,,,,,,,,,,,,,,,,,,,,,,,,,,,,,,,,,,,,,,,,,,,,,,,,,,,,,,,,,,,,,,,,,,,,,,,,,,,,,,,,,,,,,,,,,,,,,,,,,,
,,60ea5c6d8fcc1129d20b7b92,2024-02-21_19h27.13.534,kallum_motion_pilot,2023.2.2,Win32,82.6446281,60ea5c6d8fcc1129d20b7b92,65d6bb0e977760de756971f7,65d6befb979b6efb5b451d21,0.0241,0.0241,1,14,176,101,1,seveneight,,,,,,,,,,,,,,,,,,,,,,,,,,,,,,,,,,,,,,,,,,,,,,,,,,,,,,,,,,,,,,,,,,,,,,,,,,,,,,,,,,,,,,,,,,,,,,,,,,,,,,,,,,,,,,,,,,,,,,,,,,,,,,,,,,,,,,,,,
,,60ea5c6d8fcc1129d20b7b92,2024-02-21_19h27.13.534,kallum_motion_pilot,2023.2.2,Win32,82.6446281,60ea5c6d8fcc1129d20b7b92,65d6bb0e977760de756971f7,65d6befb979b6efb5b451d21,0.0241,0.0242,1,15,177,71,1,fourthree,,,,,,,,,,,,,,,,,,,,,,,,,,,,,,,,,,,,,,,,,,,,,,,,,,,,,,,,,,,,,,,,,,,,,,,,,,,,,,,,,,,,,,,,,,,,,,,,,,,,,,,,,,,,,,,,,,,,,,,,,,,,,,,,,,,,,,,,,
,,60ea5c6d8fcc1129d20b7b92,2024-02-21_19h27.13.534,kallum_motion_pilot,2023.2.2,Win32,82.6446281,60ea5c6d8fcc1129d20b7b92,65d6bb0e977760de756971f7,65d6befb979b6efb5b451d21,0.0242,0.0242,1,16,178,31,1,fourthree,,,,,,,,,,,,,,,,,,,,,,,,,,,,,,,,,,,,,,,,,,,,,,,,,,,,,,,,,,,,,,,,,,,,,,,,,,,,,,,,,,,,,,,,,,,,,,,,,,,,,,,,,,,,,,,,,,,,,,,,,,,,,,,,,,,,,,,,,
,,60ea5c6d8fcc1129d20b7b92,2024-02-21_19h27.13.534,kallum_motion_pilot,2023.2.2,Win32,82.6446281,60ea5c6d8fcc1129d20b7b92,65d6bb0e977760de756971f7,65d6befb979b6efb5b451d21,0.0243,0.0243,1,17,179,67,1,twofour,,,,,,,,,,,,,,,,,,,,,,,,,,,,,,,,,,,,,,,,,,,,,,,,,,,,,,,,,,,,,,,,,,,,,,,,,,,,,,,,,,,,,,,,,,,,,,,,,,,,,,,,,,,,,,,,,,,,,,,,,,,,,,,,,,,,,,,,,
,,60ea5c6d8fcc1129d20b7b92,2024-02-21_19h27.13.534,kallum_motion_pilot,2023.2.2,Win32,82.6446281,60ea5c6d8fcc1129d20b7b92,65d6bb0e977760de756971f7,65d6befb979b6efb5b451d21,0.0244,0.0244,1,18,180,100,1,sevenfive,,,,,,,,,,,,,,,,,,,,,,,,,,,,,,,,,,,,,,,,,,,,,,,,,,,,,,,,,,,,,,,,,,,,,,,,,,,,,,,,,,,,,,,,,,,,,,,,,,,,,,,,,,,,,,,,,,,,,,,,,,,,,,,,,,,,,,,,,
,,60ea5c6d8fcc1129d20b7b92,2024-02-21_19h27.13.534,kallum_motion_pilot,2023.2.2,Win32,82.6446281,60ea5c6d8fcc1129d20b7b92,65d6bb0e977760de756971f7,65d6befb979b6efb5b451d21,0.0244,0.0245,1,19,181,82,1,sixfive,,,,,,,,,,,,,,,,,,,,,,,,,,,,,,,,,,,,,,,,,,,,,,,,,,,,,,,,,,,,,,,,,,,,,,,,,,,,,,,,,,,,,,,,,,,,,,,,,,,,,,,,,,,,,,,,,,,,,,,,,,,,,,,,,,,,,,,,,
,,60ea5c6d8fcc1129d20b7b92,2024-02-21_19h27.13.534,kallum_motion_pilot,2023.2.2,Win32,82.6446281,60ea5c6d8fcc1129d20b7b92,65d6bb0e977760de756971f7,65d6befb979b6efb5b451d21,0.0245,0.0245,1,20,182,123,1,sixeight,,,,,,,,,,,,,,,,,,,,,,,,,,,,,,,,,,,,,,,,,,,,,,,,,,,,,,,,,,,,,,,,,,,,,,,,,,,,,,,,,,,,,,,,,,,,,,,,,,,,,,,,,,,,,,,,,,,,,,,,,,,,,,,,,,,,,,,,,
,,60ea5c6d8fcc1129d20b7b92,2024-02-21_19h27.13.534,kallum_motion_pilot,2023.2.2,Win32,82.6446281,60ea5c6d8fcc1129d20b7b92,65d6bb0e977760de756971f7,65d6befb979b6efb5b451d21,0.0245,0.0246,1,21,183,57,1,onethree,,,,,,,,,,,,,,,,,,,,,,,,,,,,,,,,,,,,,,,,,,,,,,,,,,,,,,,,,,,,,,,,,,,,,,,,,,,,,,,,,,,,,,,,,,,,,,,,,,,,,,,,,,,,,,,,,,,,,,,,,,,,,,,,,,,,,,,,,
,,60ea5c6d8fcc1129d20b7b92,2024-02-21_19h27.13.534,kallum_motion_pilot,2023.2.2,Win32,82.6446281,60ea5c6d8fcc1129d20b7b92,65d6bb0e977760de756971f7,65d6befb979b6efb5b451d21,0.0246,0.0246,1,22,184,93,1,seveneight,,,,,,,,,,,,,,,,,,,,,,,,,,,,,,,,,,,,,,,,,,,,,,,,,,,,,,,,,,,,,,,,,,,,,,,,,,,,,,,,,,,,,,,,,,,,,,,,,,,,,,,,,,,,,,,,,,,,,,,,,,,,,,,,,,,,,,,,,
,,60ea5c6d8fcc1129d20b7b92,2024-02-21_19h27.13.534,kallum_motion_pilot,2023.2.2,Win32,82.6446281,60ea5c6d8fcc1129d20b7b92,65d6bb0e977760de756971f7,65d6befb979b6efb5b451d21,0.0246,0.0247,1,23,185,10,1,twoone,,,,,,,,,,,,,,,,,,,,,,,,,,,,,,,,,,,,,,,,,,,,,,,,,,,,,,,,,,,,,,,,,,,,,,,,,,,,,,,,,,,,,,,,,,,,,,,,,,,,,,,,,,,,,,,,,,,,,,,,,,,,,,,,,,,,,,,,,
,,60ea5c6d8fcc1129d20b7b92,2024-02-21_19h27.13.534,kallum_motion_pilot,2023.2.2,Win32,82.6446281,60ea5c6d8fcc1129d20b7b92,65d6bb0e977760de756971f7,65d6befb979b6efb5b451d21,0.0247,0.0247,1,24,186,51,1,twofour,,,,,,,,,,,,,,,,,,,,,,,,,,,,,,,,,,,,,,,,,,,,,,,,,,,,,,,,,,,,,,,,,,,,,,,,,,,,,,,,,,,,,,,,,,,,,,,,,,,,,,,,,,,,,,,,,,,,,,,,,,,,,,,,,,,,,,,,,
,,60ea5c6d8fcc1129d20b7b92,2024-02-21_19h27.13.534,kallum_motion_pilot,2023.2.2,Win32,82.6446281,60ea5c6d8fcc1129d20b7b92,65d6bb0e977760de756971f7,65d6befb979b6efb5b451d21,0.0248,0.0248,1,25,187,43,1,twofour,,,,,,,,,,,,,,,,,,,,,,,,,,,,,,,,,,,,,,,,,,,,,,,,,,,,,,,,,,,,,,,,,,,,,,,,,,,,,,,,,,,,,,,,,,,,,,,,,,,,,,,,,,,,,,,,,,,,,,,,,,,,,,,,,,,,,,,,,
,,60ea5c6d8fcc1129d20b7b92,2024-02-21_19h27.13.534,kallum_motion_pilot,2023.2.2,Win32,82.6446281,60ea5c6d8fcc1129d20b7b92,65d6bb0e977760de756971f7,65d6befb979b6efb5b451d21,0.0248,0.0248,1,26,188,119,1,eightseven,,,,,,,,,,,,,,,,,,,,,,,,,,,,,,,,,,,,,,,,,,,,,,,,,,,,,,,,,,,,,,,,,,,,,,,,,,,,,,,,,,,,,,,,,,,,,,,,,,,,,,,,,,,,,,,,,,,,,,,,,,,,,,,,,,,,,,,,,
,,60ea5c6d8fcc1129d20b7b92,2024-02-21_19h27.13.534,kallum_motion_pilot,2023.2.2,Win32,82.6446281,60ea5c6d8fcc1129d20b7b92,65d6bb0e977760de756971f7,65d6befb979b6efb5b451d21,0.0248,0.0249,1,27,189,158,1,eightsix,,,,,,,,,,,,,,,,,,,,,,,,,,,,,,,,,,,,,,,,,,,,,,,,,,,,,,,,,,,,,,,,,,,,,,,,,,,,,,,,,,,,,,,,,,,,,,,,,,,,,,,,,,,,,,,,,,,,,,,,,,,,,,,,,,,,,,,,,
,,60ea5c6d8fcc1129d20b7b92,2024-02-21_19h27.13.534,kallum_motion_pilot,2023.2.2,Win32,82.6446281,60ea5c6d8fcc1129d20b7b92,65d6bb0e977760de756971f7,65d6befb979b6efb5b451d21,0.0249,0.0249,1,28,190,35,1,twofour,,,,,,,,,,,,,,,,,,,,,,,,,,,,,,,,,,,,,,,,,,,,,,,,,,,,,,,,,,,,,,,,,,,,,,,,,,,,,,,,,,,,,,,,,,,,,,,,,,,,,,,,,,,,,,,,,,,,,,,,,,,,,,,,,,,,,,,,,
,,60ea5c6d8fcc1129d20b7b92,2024-02-21_19h27.13.534,kallum_motion_pilot,2023.2.2,Win32,82.6446281,60ea5c6d8fcc1129d20b7b92,65d6bb0e977760de756971f7,65d6befb979b6efb5b451d21,0.0249,0.025,1,29,191,75,1,twofour,,,,,,,,,,,,,,,,,,,,,,,,,,,,,,,,,,,,,,,,,,,,,,,,,,,,,,,,,,,,,,,,,,,,,,,,,,,,,,,,,,,,,,,,,,,,,,,,,,,,,,,,,,,,,,,,,,,,,,,,,,,,,,,,,,,,,,,,,
,,60ea5c6d8fcc1129d20b7b92,2024-02-21_19h27.13.534,kallum_motion_pilot,2023.2.2,Win32,82.6446281,60ea5c6d8fcc1129d20b7b92,65d6bb0e977760de756971f7,65d6befb979b6efb5b451d21,0.0251,0.0251,1,30,192,25,1,onethree,,,,,,,,,,,,,,,,,,,,,,,,,,,,,,,,,,,,,,,,,,,,,,,,,,,,,,,,,,,,,,,,,,,,,,,,,,,,,,,,,,,,,,,,,,,,,,,,,,,,,,,,,,,,,,,,,,,,,,,,,,,,,,,,,,,,,,,,,
,,60ea5c6d8fcc1129d20b7b92,2024-02-21_19h27.13.534,kallum_motion_pilot,2023.2.2,Win32,82.6446281,60ea5c6d8fcc1129d20b7b92,65d6bb0e977760de756971f7,65d6befb979b6efb5b451d21,0.0251,0.0251,1,31,193,96,1,fivesix,,,,,,,,,,,,,,,,,,,,,,,,,,,,,,,,,,,,,,,,,,,,,,,,,,,,,,,,,,,,,,,,,,,,,,,,,,,,,,,,,,,,,,,,,,,,,,,,,,,,,,,,,,,,,,,,,,,,,,,,,,,,,,,,,,,,,,,,,
,,60ea5c6d8fcc1129d20b7b92,2024-02-21_19h27.13.534,kallum_motion_pilot,2023.2.2,Win32,82.6446281,60ea5c6d8fcc1129d20b7b92,65d6bb0e977760de756971f7,65d6befb979b6efb5b451d21,0.0251,0.0251,1,32,194,85,1,seveneight,,,,,,,,,,,,,,,,,,,,,,,,,,,,,,,,,,,,,,,,,,,,,,,,,,,,,,,,,,,,,,,,,,,,,,,,,,,,,,,,,,,,,,,,,,,,,,,,,,,,,,,,,,,,,,,,,,,,,,,,,,,,,,,,,,,,,,,,,
,,60ea5c6d8fcc1129d20b7b92,2024-02-21_19h27.13.534,kallum_motion_pilot,2023.2.2,Win32,82.6446281,60ea5c6d8fcc1129d20b7b92,65d6bb0e977760de756971f7,65d6befb979b6efb5b451d21,0.0252,0.0252,1,33,195,132,1,sevenfive,,,,,,,,,,,,,,,,,,,,,,,,,,,,,,,,,,,,,,,,,,,,,,,,,,,,,,,,,,,,,,,,,,,,,,,,,,,,,,,,,,,,,,,,,,,,,,,,,,,,,,,,,,,,,,,,,,,,,,,,,,,,,,,,,,,,,,,,,
,,60ea5c6d8fcc1129d20b7b92,2024-02-21_19h27.13.534,kallum_motion_pilot,2023.2.2,Win32,82.6446281,60ea5c6d8fcc1129d20b7b92,65d6bb0e977760de756971f7,65d6befb979b6efb5b451d21,0.0252,0.0252,1,34,196,122,1,sixfive,,,,,,,,,,,,,,,,,,,,,,,,,,,,,,,,,,,,,,,,,,,,,,,,,,,,,,,,,,,,,,,,,,,,,,,,,,,,,,,,,,,,,,,,,,,,,,,,,,,,,,,,,,,,,,,,,,,,,,,,,,,,,,,,,,,,,,,,,
,,60ea5c6d8fcc1129d20b7b92,2024-02-21_19h27.13.534,kallum_motion_pilot,2023.2.2,Win32,82.6446281,60ea5c6d8fcc1129d20b7b92,65d6bb0e977760de756971f7,65d6befb979b6efb5b451d21,0.0253,0.0253,1,35,197,154,1,sixfive,,,,,,,,,,,,,,,,,,,,,,,,,,,,,,,,,,,,,,,,,,,,,,,,,,,,,,,,,,,,,,,,,,,,,,,,,,,,,,,,,,,,,,,,,,,,,,,,,,,,,,,,,,,,,,,,,,,,,,,,,,,,,,,,,,,,,,,,,
,,60ea5c6d8fcc1129d20b7b92,2024-02-21_19h27.13.534,kallum_motion_pilot,2023.2.2,Win32,82.6446281,60ea5c6d8fcc1129d20b7b92,65d6bb0e977760de756971f7,65d6befb979b6efb5b451d21,0.0253,0.0254,1,36,198,103,1,eightseven,,,,,,,,,,,,,,,,,,,,,,,,,,,,,,,,,,,,,,,,,,,,,,,,,,,,,,,,,,,,,,,,,,,,,,,,,,,,,,,,,,,,,,,,,,,,,,,,,,,,,,,,,,,,,,,,,,,,,,,,,,,,,,,,,,,,,,,,,
,,60ea5c6d8fcc1129d20b7b92,2024-02-21_19h27.13.534,kallum_motion_pilot,2023.2.2,Win32,82.6446281,60ea5c6d8fcc1129d20b7b92,65d6bb0e977760de756971f7,65d6befb979b6efb5b451d21,0.0254,0.0255,1,37,199,39,1,fourthree,,,,,,,,,,,,,,,,,,,,,,,,,,,,,,,,,,,,,,,,,,,,,,,,,,,,,,,,,,,,,,,,,,,,,,,,,,,,,,,,,,,,,,,,,,,,,,,,,,,,,,,,,,,,,,,,,,,,,,,,,,,,,,,,,,,,,,,,,
,,60ea5c6d8fcc1129d20b7b92,2024-02-21_19h27.13.534,kallum_motion_pilot,2023.2.2,Win32,82.6446281,60ea5c6d8fcc1129d20b7b92,65d6bb0e977760de756971f7,65d6befb979b6efb5b451d21,0.0255,0.0255,1,38,200,77,1,threefour,,,,,,,,,,,,,,,,,,,,,,,,,,,,,,,,,,,,,,,,,,,,,,,,,,,,,,,,,,,,,,,,,,,,,,,,,,,,,,,,,,,,,,,,,,,,,,,,,,,,,,,,,,,,,,,,,,,,,,,,,,,,,,,,,,,,,,,,,
,,60ea5c6d8fcc1129d20b7b92,2024-02-21_19h27.13.534,kallum_motion_pilot,2023.2.2,Win32,82.6446281,60ea5c6d8fcc1129d20b7b92,65d6bb0e977760de756971f7,65d6befb979b6efb5b451d21,0.0255,0.0255,1,39,201,70,1,fourtwo,,,,,,,,,,,,,,,,,,,,,,,,,,,,,,,,,,,,,,,,,,,,,,,,,,,,,,,,,,,,,,,,,,,,,,,,,,,,,,,,,,,,,,,,,,,,,,,,,,,,,,,,,,,,,,,,,,,,,,,,,,,,,,,,,,,,,,,,,
,,60ea5c6d8fcc1129d20b7b92,2024-02-21_19h27.13.534,kallum_motion_pilot,2023.2.2,Win32,82.6446281,60ea5c6d8fcc1129d20b7b92,65d6bb0e977760de756971f7,65d6befb979b6efb5b451d21,0.0256,0.0256,1,40,202,53,1,threefour,,,,,,,,,,,,,,,,,,,,,,,,,,,,,,,,,,,,,,,,,,,,,,,,,,,,,,,,,,,,,,,,,,,,,,,,,,,,,,,,,,,,,,,,,,,,,,,,,,,,,,,,,,,,,,,,,,,,,,,,,,,,,,,,,,,,,,,,,
,,60ea5c6d8fcc1129d20b7b92,2024-02-21_19h27.13.534,kallum_motion_pilot,2023.2.2,Win32,82.6446281,60ea5c6d8fcc1129d20b7b92,65d6bb0e977760de756971f7,65d6befb979b6efb5b451d21,0.0257,0.0257,1,41,203,26,1,twoone,,,,,,,,,,,,,,,,,,,,,,,,,,,,,,,,,,,,,,,,,,,,,,,,,,,,,,,,,,,,,,,,,,,,,,,,,,,,,,,,,,,,,,,,,,,,,,,,,,,,,,,,,,,,,,,,,,,,,,,,,,,,,,,,,,,,,,,,,
,,60ea5c6d8fcc1129d20b7b92,2024-02-21_19h27.13.534,kallum_motion_pilot,2023.2.2,Win32,82.6446281,60ea5c6d8fcc1129d20b7b92,65d6bb0e977760de756971f7,65d6befb979b6efb5b451d21,0.0257,0.0257,1,42,204,34,1,twoone,,,,,,,,,,,,,,,,,,,,,,,,,,,,,,,,,,,,,,,,,,,,,,,,,,,,,,,,,,,,,,,,,,,,,,,,,,,,,,,,,,,,,,,,,,,,,,,,,,,,,,,,,,,,,,,,,,,,,,,,,,,,,,,,,,,,,,,,,
,,60ea5c6d8fcc1129d20b7b92,2024-02-21_19h27.13.534,kallum_motion_pilot,2023.2.2,Win32,82.6446281,60ea5c6d8fcc1129d20b7b92,65d6bb0e977760de756971f7,65d6befb979b6efb5b451d21,0.0258,0.0258,1,43,205,144,1,fivesix,,,,,,,,,,,,,,,,,,,,,,,,,,,,,,,,,,,,,,,,,,,,,,,,,,,,,,,,,,,,,,,,,,,,,,,,,,,,,,,,,,,,,,,,,,,,,,,,,,,,,,,,,,,,,,,,,,,,,,,,,,,,,,,,,,,,,,,,,
,,60ea5c6d8fcc1129d20b7b92,2024-02-21_19h27.13.534,kallum_motion_pilot,2023.2.2,Win32,82.6446281,60ea5c6d8fcc1129d20b7b92,65d6bb0e977760de756971f7,65d6befb979b6efb5b451d21,0.0259,0.0259,1,44,206,141,1,seveneight,,,,,,,,,,,,,,,,,,,,,,,,,,,,,,,,,,,,,,,,,,,,,,,,,,,,,,,,,,,,,,,,,,,,,,,,,,,,,,,,,,,,,,,,,,,,,,,,,,,,,,,,,,,,,,,,,,,,,,,,,,,,,,,,,,,,,,,,,
,,60ea5c6d8fcc1129d20b7b92,2024-02-21_19h27.13.534,kallum_motion_pilot,2023.2.2,Win32,82.6446281,60ea5c6d8fcc1129d20b7b92,65d6bb0e977760de756971f7,65d6befb979b6efb5b451d21,0.0259,0.0259,1,45,207,133,1,seveneight,,,,,,,,,,,,,,,,,,,,,,,,,,,,,,,,,,,,,,,,,,,,,,,,,,,,,,,,,,,,,,,,,,,,,,,,,,,,,,,,,,,,,,,,,,,,,,,,,,,,,,,,,,,,,,,,,,,,,,,,,,,,,,,,,,,,,,,,,
,,60ea5c6d8fcc1129d20b7b92,2024-02-21_19h27.13.534,kallum_motion_pilot,2023.2.2,Win32,82.6446281,60ea5c6d8fcc1129d20b7b92,65d6bb0e977760de756971f7,65d6befb979b6efb5b451d21,0.026,0.026,1,46,208,32,1,onetwo,,,,,,,,,,,,,,,,,,,,,,,,,,,,,,,,,,,,,,,,,,,,,,,,,,,,,,,,,,,,,,,,,,,,,,,,,,,,,,,,,,,,,,,,,,,,,,,,,,,,,,,,,,,,,,,,,,,,,,,,,,,,,,,,,,,,,,,,,
,,60ea5c6d8fcc1129d20b7b92,2024-02-21_19h27.13.534,kallum_motion_pilot,2023.2.2,Win32,82.6446281,60ea5c6d8fcc1129d20b7b92,65d6bb0e977760de756971f7,65d6befb979b6efb5b451d21,0.026,0.026,1,47,209,126,1,eightsix,,,,,,,,,,,,,,,,,,,,,,,,,,,,,,,,,,,,,,,,,,,,,,,,,,,,,,,,,,,,,,,,,,,,,,,,,,,,,,,,,,,,,,,,,,,,,,,,,,,,,,,,,,,,,,,,,,,,,,,,,,,,,,,,,,,,,,,,,
,,60ea5c6d8fcc1129d20b7b92,2024-02-21_19h27.13.534,kallum_motion_pilot,2023.2.2,Win32,82.6446281,60ea5c6d8fcc1129d20b7b92,65d6bb0e977760de756971f7,65d6befb979b6efb5b451d21,0.0261,0.0261,1,48,210,17,1,onethree,,,,,,,,,,,,,,,,,,,,,,,,,,,,,,,,,,,,,,,,,,,,,,,,,,,,,,,,,,,,,,,,,,,,,,,,,,,,,,,,,,,,,,,,,,,,,,,,,,,,,,,,,,,,,,,,,,,,,,,,,,,,,,,,,,,,,,,,,
,,60ea5c6d8fcc1129d20b7b92,2024-02-21_19h27.13.534,kallum_motion_pilot,2023.2.2,Win32,82.6446281,60ea5c6d8fcc1129d20b7b92,65d6bb0e977760de756971f7,65d6befb979b6efb5b451d21,0.0261,0.0261,1,49,211,81,1,fiveseven,,,,,,,,,,,,,,,,,,,,,,,,,,,,,,,,,,,,,,,,,,,,,,,,,,,,,,,,,,,,,,,,,,,,,,,,,,,,,,,,,,,,,,,,,,,,,,,,,,,,,,,,,,,,,,,,,,,,,,,,,,,,,,,,,,,,,,,,,
,,60ea5c6d8fcc1129d20b7b92,2024-02-21_19h27.13.534,kallum_motion_pilot,2023.2.2,Win32,82.6446281,60ea5c6d8fcc1129d20b7b92,65d6bb0e977760de756971f7,65d6befb979b6efb5b451d21,0.0262,0.0262,1,50,212,115,1,sixeight,,,,,,,,,,,,,,,,,,,,,,,,,,,,,,,,,,,,,,,,,,,,,,,,,,,,,,,,,,,,,,,,,,,,,,,,,,,,,,,,,,,,,,,,,,,,,,,,,,,,,,,,,,,,,,,,,,,,,,,,,,,,,,,,,,,,,,,,,
,,60ea5c6d8fcc1129d20b7b92,2024-02-21_19h27.13.534,kallum_motion_pilot,2023.2.2,Win32,82.6446281,60ea5c6d8fcc1129d20b7b92,65d6bb0e977760de756971f7,65d6befb979b6efb5b451d21,0.0262,0.0263,1,51,213,20,1,threeone,,,,,,,,,,,,,,,,,,,,,,,,,,,,,,,,,,,,,,,,,,,,,,,,,,,,,,,,,,,,,,,,,,,,,,,,,,,,,,,,,,,,,,,,,,,,,,,,,,,,,,,,,,,,,,,,,,,,,,,,,,,,,,,,,,,,,,,,,
,,60ea5c6d8fcc1129d20b7b92,2024-02-21_19h27.13.534,kallum_motion_pilot,2023.2.2,Win32,82.6446281,60ea5c6d8fcc1129d20b7b92,65d6bb0e977760de756971f7,65d6befb979b6efb5b451d21,0.0263,0.0263,1,52,214,30,1,fourtwo,,,,,,,,,,,,,,,,,,,,,,,,,,,,,,,,,,,,,,,,,,,,,,,,,,,,,,,,,,,,,,,,,,,,,,,,,,,,,,,,,,,,,,,,,,,,,,,,,,,,,,,,,,,,,,,,,,,,,,,,,,,,,,,,,,,,,,,,,
,,60ea5c6d8fcc1129d20b7b92,2024-02-21_19h27.13.534,kallum_motion_pilot,2023.2.2,Win32,82.6446281,60ea5c6d8fcc1129d20b7b92,65d6bb0e977760de756971f7,65d6befb979b6efb5b451d21,0.0264,0.0264,1,53,215,38,1,fourtwo,,,,,,,,,,,,,,,,,,,,,,,,,,,,,,,,,,,,,,,,,,,,,,,,,,,,,,,,,,,,,,,,,,,,,,,,,,,,,,,,,,,,,,,,,,,,,,,,,,,,,,,,,,,,,,,,,,,,,,,,,,,,,,,,,,,,,,,,,
,,60ea5c6d8fcc1129d20b7b92,2024-02-21_19h27.13.534,kallum_motion_pilot,2023.2.2,Win32,82.6446281,60ea5c6d8fcc1129d20b7b92,65d6bb0e977760de756971f7,65d6befb979b6efb5b451d21,0.0264,0.0264,1,54,216,52,1,threeone,,,,,,,,,,,,,,,,,,,,,,,,,,,,,,,,,,,,,,,,,,,,,,,,,,,,,,,,,,,,,,,,,,,,,,,,,,,,,,,,,,,,,,,,,,,,,,,,,,,,,,,,,,,,,,,,,,,,,,,,,,,,,,,,,,,,,,,,,
,,60ea5c6d8fcc1129d20b7b92,2024-02-21_19h27.13.534,kallum_motion_pilot,2023.2.2,Win32,82.6446281,60ea5c6d8fcc1129d20b7b92,65d6bb0e977760de756971f7,65d6befb979b6efb5b451d21,0.0265,0.0265,1,55,217,86,1,eightsix,,,,,,,,,,,,,,,,,,,,,,,,,,,,,,,,,,,,,,,,,,,,,,,,,,,,,,,,,,,,,,,,,,,,,,,,,,,,,,,,,,,,,,,,,,,,,,,,,,,,,,,,,,,,,,,,,,,,,,,,,,,,,,,,,,,,,,,,,
,,60ea5c6d8fcc1129d20b7b92,2024-02-21_19h27.13.534,kallum_motion_pilot,2023.2.2,Win32,82.6446281,60ea5c6d8fcc1129d20b7b92,65d6bb0e977760de756971f7,65d6befb979b6efb5b451d21,0.0266,0.0266,1,56,218,136,1,fivesix,,,,,,,,,,,,,,,,,,,,,,,,,,,,,,,,,,,,,,,,,,,,,,,,,,,,,,,,,,,,,,,,,,,,,,,,,,,,,,,,,,,,,,,,,,,,,,,,,,,,,,,,,,,,,,,,,,,,,,,,,,,,,,,,,,,,,,,,,
,,60ea5c6d8fcc1129d20b7b92,2024-02-21_19h27.13.534,kallum_motion_pilot,2023.2.2,Win32,82.6446281,60ea5c6d8fcc1129d20b7b92,65d6bb0e977760de756971f7,65d6befb979b6efb5b451d21,0.0266,0.0267,1,57,219,56,1,onetwo,,,,,,,,,,,,,,,,,,,,,,,,,,,,,,,,,,,,,,,,,,,,,,,,,,,,,,,,,,,,,,,,,,,,,,,,,,,,,,,,,,,,,,,,,,,,,,,,,,,,,,,,,,,,,,,,,,,,,,,,,,,,,,,,,,,,,,,,,
,,60ea5c6d8fcc1129d20b7b92,2024-02-21_19h27.13.534,kallum_motion_pilot,2023.2.2,Win32,82.6446281,60ea5c6d8fcc1129d20b7b92,65d6bb0e977760de756971f7,65d6befb979b6efb5b451d21,0.0267,0.0267,1,58,220,15,1,fourthree,,,,,,,,,,,,,,,,,,,,,,,,,,,,,,,,,,,,,,,,,,,,,,,,,,,,,,,,,,,,,,,,,,,,,,,,,,,,,,,,,,,,,,,,,,,,,,,,,,,,,,,,,,,,,,,,,,,,,,,,,,,,,,,,,,,,,,,,,
,,60ea5c6d8fcc1129d20b7b92,2024-02-21_19h27.13.534,kallum_motion_pilot,2023.2.2,Win32,82.6446281,60ea5c6d8fcc1129d20b7b92,65d6bb0e977760de756971f7,65d6befb979b6efb5b451d21,0.0267,0.0267,1,59,221,76,1,threeone,,,,,,,,,,,,,,,,,,,,,,,,,,,,,,,,,,,,,,,,,,,,,,,,,,,,,,,,,,,,,,,,,,,,,,,,,,,,,,,,,,,,,,,,,,,,,,,,,,,,,,,,,,,,,,,,,,,,,,,,,,,,,,,,,,,,,,,,,
,,60ea5c6d8fcc1129d20b7b92,2024-02-21_19h27.13.534,kallum_motion_pilot,2023.2.2,Win32,82.6446281,60ea5c6d8fcc1129d20b7b92,65d6bb0e977760de756971f7,65d6befb979b6efb5b451d21,0.0268,0.0268,1,60,222,3,1,twofour,,,,,,,,,,,,,,,,,,,,,,,,,,,,,,,,,,,,,,,,,,,,,,,,,,,,,,,,,,,,,,,,,,,,,,,,,,,,,,,,,,,,,,,,,,,,,,,,,,,,,,,,,,,,,,,,,,,,,,,,,,,,,,,,,,,,,,,,,
,,60ea5c6d8fcc1129d20b7b92,2024-02-21_19h27.13.534,kallum_motion_pilot,2023.2.2,Win32,82.6446281,60ea5c6d8fcc1129d20b7b92,65d6bb0e977760de756971f7,65d6befb979b6efb5b451d21,0.0268,0.0269,1,61,223,94,1,eightsix,,,,,,,,,,,,,,,,,,,,,,,,,,,,,,,,,,,,,,,,,,,,,,,,,,,,,,,,,,,,,,,,,,,,,,,,,,,,,,,,,,,,,,,,,,,,,,,,,,,,,,,,,,,,,,,,,,,,,,,,,,,,,,,,,,,,,,,,,
,,60ea5c6d8fcc1129d20b7b92,2024-02-21_19h27.13.534,kallum_motion_pilot,2023.2.2,Win32,82.6446281,60ea5c6d8fcc1129d20b7b92,65d6bb0e977760de756971f7,65d6befb979b6efb5b451d21,0.0269,0.027,1,62,224,36,1,threeone,,,,,,,,,,,,,,,,,,,,,,,,,,,,,,,,,,,,,,,,,,,,,,,,,,,,,,,,,,,,,,,,,,,,,,,,,,,,,,,,,,,,,,,,,,,,,,,,,,,,,,,,,,,,,,,,,,,,,,,,,,,,,,,,,,,,,,,,,
,,60ea5c6d8fcc1129d20b7b92,2024-02-21_19h27.13.534,kallum_motion_pilot,2023.2.2,Win32,82.6446281,60ea5c6d8fcc1129d20b7b92,65d6bb0e977760de756971f7,65d6befb979b6efb5b451d21,0.027,0.027,1,63,225,108,1,sevenfive,,,,,,,,,,,,,,,,,,,,,,,,,,,,,,,,,,,,,,,,,,,,,,,,,,,,,,,,,,,,,,,,,,,,,,,,,,,,,,,,,,,,,,,,,,,,,,,,,,,,,,,,,,,,,,,,,,,,,,,,,,,,,,,,,,,,,,,,,
,,60ea5c6d8fcc1129d20b7b92,2024-02-21_19h27.13.534,kallum_motion_pilot,2023.2.2,Win32,82.6446281,60ea5c6d8fcc1129d20b7b92,65d6bb0e977760de756971f7,65d6befb979b6efb5b451d21,0.027,0.0271,1,64,226,160,1,fivesix,,,,,,,,,,,,,,,,,,,,,,,,,,,,,,,,,,,,,,,,,,,,,,,,,,,,,,,,,,,,,,,,,,,,,,,,,,,,,,,,,,,,,,,,,,,,,,,,,,,,,,,,,,,,,,,,,,,,,,,,,,,,,,,,,,,,,,,,,
,,60ea5c6d8fcc1129d20b7b92,2024-02-21_19h27.13.534,kallum_motion_pilot,2023.2.2,Win32,82.6446281,60ea5c6d8fcc1129d20b7b92,65d6bb0e977760de756971f7,65d6befb979b6efb5b451d21,0.0271,0.0271,1,65,227,111,1,eightseven,,,,,,,,,,,,,,,,,,,,,,,,,,,,,,,,,,,,,,,,,,,,,,,,,,,,,,,,,,,,,,,,,,,,,,,,,,,,,,,,,,,,,,,,,,,,,,,,,,,,,,,,,,,,,,,,,,,,,,,,,,,,,,,,,,,,,,,,,
,,60ea5c6d8fcc1129d20b7b92,2024-02-21_19h27.13.534,kallum_motion_pilot,2023.2.2,Win32,82.6446281,60ea5c6d8fcc1129d20b7b92,65d6bb0e977760de756971f7,65d6befb979b6efb5b451d21,0.0271,0.0272,1,66,228,147,1,sixeight,,,,,,,,,,,,,,,,,,,,,,,,,,,,,,,,,,,,,,,,,,,,,,,,,,,,,,,,,,,,,,,,,,,,,,,,,,,,,,,,,,,,,,,,,,,,,,,,,,,,,,,,,,,,,,,,,,,,,,,,,,,,,,,,,,,,,,,,,
,,60ea5c6d8fcc1129d20b7b92,2024-02-21_19h27.13.534,kallum_motion_pilot,2023.2.2,Win32,82.6446281,60ea5c6d8fcc1129d20b7b92,65d6bb0e977760de756971f7,65d6befb979b6efb5b451d21,0.0272,0.0273,1,67,229,143,1,eightseven,,,,,,,,,,,,,,,,,,,,,,,,,,,,,,,,,,,,,,,,,,,,,,,,,,,,,,,,,,,,,,,,,,,,,,,,,,,,,,,,,,,,,,,,,,,,,,,,,,,,,,,,,,,,,,,,,,,,,,,,,,,,,,,,,,,,,,,,,
,,60ea5c6d8fcc1129d20b7b92,2024-02-21_19h27.13.534,kallum_motion_pilot,2023.2.2,Win32,82.6446281,60ea5c6d8fcc1129d20b7b92,65d6bb0e977760de756971f7,65d6befb979b6efb5b451d21,0.0273,0.0273,1,68,230,7,1,fourthree,,,,,,,,,,,,,,,,,,,,,,,,,,,,,,,,,,,,,,,,,,,,,,,,,,,,,,,,,,,,,,,,,,,,,,,,,,,,,,,,,,,,,,,,,,,,,,,,,,,,,,,,,,,,,,,,,,,,,,,,,,,,,,,,,,,,,,,,,
,,60ea5c6d8fcc1129d20b7b92,2024-02-21_19h27.13.534,kallum_motion_pilot,2023.2.2,Win32,82.6446281,60ea5c6d8fcc1129d20b7b92,65d6bb0e977760de756971f7,65d6befb979b6efb5b451d21,0.0273,0.0274,1,69,231,2,1,twoone,,,,,,,,,,,,,,,,,,,,,,,,,,,,,,,,,,,,,,,,,,,,,,,,,,,,,,,,,,,,,,,,,,,,,,,,,,,,,,,,,,,,,,,,,,,,,,,,,,,,,,,,,,,,,,,,,,,,,,,,,,,,,,,,,,,,,,,,,
,,60ea5c6d8fcc1129d20b7b92,2024-02-21_19h27.13.534,kallum_motion_pilot,2023.2.2,Win32,82.6446281,60ea5c6d8fcc1129d20b7b92,65d6bb0e977760de756971f7,65d6befb979b6efb5b451d21,0.0274,0.0274,1,70,232,117,1,seveneight,,,,,,,,,,,,,,,,,,,,,,,,,,,,,,,,,,,,,,,,,,,,,,,,,,,,,,,,,,,,,,,,,,,,,,,,,,,,,,,,,,,,,,,,,,,,,,,,,,,,,,,,,,,,,,,,,,,,,,,,,,,,,,,,,,,,,,,,,
,,60ea5c6d8fcc1129d20b7b92,2024-02-21_19h27.13.534,kallum_motion_pilot,2023.2.2,Win32,82.6446281,60ea5c6d8fcc1129d20b7b92,65d6bb0e977760de756971f7,65d6befb979b6efb5b451d21,0.0275,0.0275,1,71,233,78,1,fourtwo,,,,,,,,,,,,,,,,,,,,,,,,,,,,,,,,,,,,,,,,,,,,,,,,,,,,,,,,,,,,,,,,,,,,,,,,,,,,,,,,,,,,,,,,,,,,,,,,,,,,,,,,,,,,,,,,,,,,,,,,,,,,,,,,,,,,,,,,,
,,60ea5c6d8fcc1129d20b7b92,2024-02-21_19h27.13.534,kallum_motion_pilot,2023.2.2,Win32,82.6446281,60ea5c6d8fcc1129d20b7b92,65d6bb0e977760de756971f7,65d6befb979b6efb5b451d21,0.0275,0.0276,1,72,234,95,1,eightseven,,,,,,,,,,,,,,,,,,,,,,,,,,,,,,,,,,,,,,,,,,,,,,,,,,,,,,,,,,,,,,,,,,,,,,,,,,,,,,,,,,,,,,,,,,,,,,,,,,,,,,,,,,,,,,,,,,,,,,,,,,,,,,,,,,,,,,,,,
,,60ea5c6d8fcc1129d20b7b92,2024-02-21_19h27.13.534,kallum_motion_pilot,2023.2.2,Win32,82.6446281,60ea5c6d8fcc1129d20b7b92,65d6bb0e977760de756971f7,65d6befb979b6efb5b451d21,0.0276,0.0276,1,73,235,135,1,eightseven,,,,,,,,,,,,,,,,,,,,,,,,,,,,,,,,,,,,,,,,,,,,,,,,,,,,,,,,,,,,,,,,,,,,,,,,,,,,,,,,,,,,,,,,,,,,,,,,,,,,,,,,,,,,,,,,,,,,,,,,,,,,,,,,,,,,,,,,,
,,60ea5c6d8fcc1129d20b7b92,2024-02-21_19h27.13.534,kallum_motion_pilot,2023.2.2,Win32,82.6446281,60ea5c6d8fcc1129d20b7b92,65d6bb0e977760de756971f7,65d6befb979b6efb5b451d21,0.0277,0.0278,1,74,236,129,1,fiveseven,,,,,,,,,,,,,,,,,,,,,,,,,,,,,,,,,,,,,,,,,,,,,,,,,,,,,,,,,,,,,,,,,,,,,,,,,,,,,,,,,,,,,,,,,,,,,,,,,,,,,,,,,,,,,,,,,,,,,,,,,,,,,,,,,,,,,,,,,
,,60ea5c6d8fcc1129d20b7b92,2024-02-21_19h27.13.534,kallum_motion_pilot,2023.2.2,Win32,82.6446281,60ea5c6d8fcc1129d20b7b92,65d6bb0e977760de756971f7,65d6befb979b6efb5b451d21,0.0278,0.0278,1,75,237,89,1,fiveseven,,,,,,,,,,,,,,,,,,,,,,,,,,,,,,,,,,,,,,,,,,,,,,,,,,,,,,,,,,,,,,,,,,,,,,,,,,,,,,,,,,,,,,,,,,,,,,,,,,,,,,,,,,,,,,,,,,,,,,,,,,,,,,,,,,,,,,,,,
,,60ea5c6d8fcc1129d20b7b92,2024-02-21_19h27.13.534,kallum_motion_pilot,2023.2.2,Win32,82.6446281,60ea5c6d8fcc1129d20b7b92,65d6bb0e977760de756971f7,65d6befb979b6efb5b451d21,0.0279,0.0279,1,76,238,114,1,sixfive,,,,,,,,,,,,,,,,,,,,,,,,,,,,,,,,,,,,,,,,,,,,,,,,,,,,,,,,,,,,,,,,,,,,,,,,,,,,,,,,,,,,,,,,,,,,,,,,,,,,,,,,,,,,,,,,,,,,,,,,,,,,,,,,,,,,,,,,,
,,60ea5c6d8fcc1129d20b7b92,2024-02-21_19h27.13.534,kallum_motion_pilot,2023.2.2,Win32,82.6446281,60ea5c6d8fcc1129d20b7b92,65d6bb0e977760de756971f7,65d6befb979b6efb5b451d21,0.0279,0.0279,1,77,239,151,1,eightseven,,,,,,,,,,,,,,,,,,,,,,,,,,,,,,,,,,,,,,,,,,,,,,,,,,,,,,,,,,,,,,,,,,,,,,,,,,,,,,,,,,,,,,,,,,,,,,,,,,,,,,,,,,,,,,,,,,,,,,,,,,,,,,,,,,,,,,,,,
,,60ea5c6d8fcc1129d20b7b92,2024-02-21_19h27.13.534,kallum_motion_pilot,2023.2.2,Win32,82.6446281,60ea5c6d8fcc1129d20b7b92,65d6bb0e977760de756971f7,65d6befb979b6efb5b451d21,0.0279,0.028,1,78,240,125,1,seveneight,,,,,,,,,,,,,,,,,,,,,,,,,,,,,,,,,,,,,,,,,,,,,,,,,,,,,,,,,,,,,,,,,,,,,,,,,,,,,,,,,,,,,,,,,,,,,,,,,,,,,,,,,,,,,,,,,,,,,,,,,,,,,,,,,,,,,,,,,
,,60ea5c6d8fcc1129d20b7b92,2024-02-21_19h27.13.534,kallum_motion_pilot,2023.2.2,Win32,82.6446281,60ea5c6d8fcc1129d20b7b92,65d6bb0e977760de756971f7,65d6befb979b6efb5b451d21,0.0281,0.0281,1,79,241,139,1,sixeight,,,,,,,,,,,,,,,,,,,,,,,,,,,,,,,,,,,,,,,,,,,,,,,,,,,,,,,,,,,,,,,,,,,,,,,,,,,,,,,,,,,,,,,,,,,,,,,,,,,,,,,,,,,,,,,,,,,,,,,,,,,,,,,,,,,,,,,,,
,,60ea5c6d8fcc1129d20b7b92,2024-02-21_19h27.13.534,kallum_motion_pilot,2023.2.2,Win32,82.6446281,60ea5c6d8fcc1129d20b7b92,65d6bb0e977760de756971f7,65d6befb979b6efb5b451d21,0.0281,0.0282,1,80,242,62,1,fourtwo,,,,,,,,,,,,,,,,,,,,,,,,,,,,,,,,,,,,,,,,,,,,,,,,,,,,,,,,,,,,,,,,,,,,,,,,,,,,,,,,,,,,,,,,,,,,,,,,,,,,,,,,,,,,,,,,,,,,,,,,,,,,,,,,,,,,,,,,,
,,60ea5c6d8fcc1129d20b7b92,2024-02-21_19h27.13.534,kallum_motion_pilot,2023.2.2,Win32,82.6446281,60ea5c6d8fcc1129d20b7b92,65d6bb0e977760de756971f7,65d6befb979b6efb5b451d21,0.0282,0.0282,1,81,243,44,1,threeone,,,,,,,,,,,,,,,,,,,,,,,,,,,,,,,,,,,,,,,,,,,,,,,,,,,,,,,,,,,,,,,,,,,,,,,,,,,,,,,,,,,,,,,,,,,,,,,,,,,,,,,,,,,,,,,,,,,,,,,,,,,,,,,,,,,,,,,,,
,,60ea5c6d8fcc1129d20b7b92,2024-02-21_19h27.13.534,kallum_motion_pilot,2023.2.2,Win32,82.6446281,60ea5c6d8fcc1129d20b7b92,65d6bb0e977760de756971f7,65d6befb979b6efb5b451d21,0.0282,0.0283,1,82,244,21,1,threefour,,,,,,,,,,,,,,,,,,,,,,,,,,,,,,,,,,,,,,,,,,,,,,,,,,,,,,,,,,,,,,,,,,,,,,,,,,,,,,,,,,,,,,,,,,,,,,,,,,,,,,,,,,,,,,,,,,,,,,,,,,,,,,,,,,,,,,,,,
,,60ea5c6d8fcc1129d20b7b92,2024-02-21_19h27.13.534,kallum_motion_pilot,2023.2.2,Win32,82.6446281,60ea5c6d8fcc1129d20b7b92,65d6bb0e977760de756971f7,65d6befb979b6efb5b451d21,0.0283,0.0283,1,83,245,97,1,fiveseven,,,,,,,,,,,,,,,,,,,,,,,,,,,,,,,,,,,,,,,,,,,,,,,,,,,,,,,,,,,,,,,,,,,,,,,,,,,,,,,,,,,,,,,,,,,,,,,,,,,,,,,,,,,,,,,,,,,,,,,,,,,,,,,,,,,,,,,,,
,,60ea5c6d8fcc1129d20b7b92,2024-02-21_19h27.13.534,kallum_motion_pilot,2023.2.2,Win32,82.6446281,60ea5c6d8fcc1129d20b7b92,65d6bb0e977760de756971f7,65d6befb979b6efb5b451d21,0.0283,0.0283,1,84,246,161,1,fiveseven,,,,,,,,,,,,,,,,,,,,,,,,,,,,,,,,,,,,,,,,,,,,,,,,,,,,,,,,,,,,,,,,,,,,,,,,,,,,,,,,,,,,,,,,,,,,,,,,,,,,,,,,,,,,,,,,,,,,,,,,,,,,,,,,,,,,,,,,,
,,60ea5c6d8fcc1129d20b7b92,2024-02-21_19h27.13.534,kallum_motion_pilot,2023.2.2,Win32,82.6446281,60ea5c6d8fcc1129d20b7b92,65d6bb0e977760de756971f7,65d6befb979b6efb5b451d21,0.0284,0.0284,1,85,247,131,1,sixeight,,,,,,,,,,,,,,,,,,,,,,,,,,,,,,,,,,,,,,,,,,,,,,,,,,,,,,,,,,,,,,,,,,,,,,,,,,,,,,,,,,,,,,,,,,,,,,,,,,,,,,,,,,,,,,,,,,,,,,,,,,,,,,,,,,,,,,,,,
,,60ea5c6d8fcc1129d20b7b92,2024-02-21_19h27.13.534,kallum_motion_pilot,2023.2.2,Win32,82.6446281,60ea5c6d8fcc1129d20b7b92,65d6bb0e977760de756971f7,65d6befb979b6efb5b451d21,0.0285,0.0285,1,86,248,104,1,fivesix,,,,,,,,,,,,,,,,,,,,,,,,,,,,,,,,,,,,,,,,,,,,,,,,,,,,,,,,,,,,,,,,,,,,,,,,,,,,,,,,,,,,,,,,,,,,,,,,,,,,,,,,,,,,,,,,,,,,,,,,,,,,,,,,,,,,,,,,,
,,60ea5c6d8fcc1129d20b7b92,2024-02-21_19h27.13.534,kallum_motion_pilot,2023.2.2,Win32,82.6446281,60ea5c6d8fcc1129d20b7b92,65d6bb0e977760de756971f7,65d6befb979b6efb5b451d21,0.0286,0.0286,1,87,249,48,1,onetwo,,,,,,,,,,,,,,,,,,,,,,,,,,,,,,,,,,,,,,,,,,,,,,,,,,,,,,,,,,,,,,,,,,,,,,,,,,,,,,,,,,,,,,,,,,,,,,,,,,,,,,,,,,,,,,,,,,,,,,,,,,,,,,,,,,,,,,,,,
,,60ea5c6d8fcc1129d20b7b92,2024-02-21_19h27.13.534,kallum_motion_pilot,2023.2.2,Win32,82.6446281,60ea5c6d8fcc1129d20b7b92,65d6bb0e977760de756971f7,65d6befb979b6efb5b451d21,0.0286,0.0286,1,88,250,120,1,fivesix,,,,,,,,,,,,,,,,,,,,,,,,,,,,,,,,,,,,,,,,,,,,,,,,,,,,,,,,,,,,,,,,,,,,,,,,,,,,,,,,,,,,,,,,,,,,,,,,,,,,,,,,,,,,,,,,,,,,,,,,,,,,,,,,,,,,,,,,,
,,60ea5c6d8fcc1129d20b7b92,2024-02-21_19h27.13.534,kallum_motion_pilot,2023.2.2,Win32,82.6446281,60ea5c6d8fcc1129d20b7b92,65d6bb0e977760de756971f7,65d6befb979b6efb5b451d21,0.0287,0.0287,1,89,251,24,1,onetwo,,,,,,,,,,,,,,,,,,,,,,,,,,,,,,,,,,,,,,,,,,,,,,,,,,,,,,,,,,,,,,,,,,,,,,,,,,,,,,,,,,,,,,,,,,,,,,,,,,,,,,,,,,,,,,,,,,,,,,,,,,,,,,,,,,,,,,,,,
,,60ea5c6d8fcc1129d20b7b92,2024-02-21_19h27.13.534,kallum_motion_pilot,2023.2.2,Win32,82.6446281,60ea5c6d8fcc1129d20b7b92,65d6bb0e977760de756971f7,65d6befb979b6efb5b451d21,0.0288,0.0288,1,90,252,22,1,fourtwo,,,,,,,,,,,,,,,,,,,,,,,,,,,,,,,,,,,,,,,,,,,,,,,,,,,,,,,,,,,,,,,,,,,,,,,,,,,,,,,,,,,,,,,,,,,,,,,,,,,,,,,,,,,,,,,,,,,,,,,,,,,,,,,,,,,,,,,,,
,,60ea5c6d8fcc1129d20b7b92,2024-02-21_19h27.13.534,kallum_motion_pilot,2023.2.2,Win32,82.6446281,60ea5c6d8fcc1129d20b7b92,65d6bb0e977760de756971f7,65d6befb979b6efb5b451d21,0.0288,0.0289,1,91,253,90,1,sixfive,,,,,,,,,,,,,,,,,,,,,,,,,,,,,,,,,,,,,,,,,,,,,,,,,,,,,,,,,,,,,,,,,,,,,,,,,,,,,,,,,,,,,,,,,,,,,,,,,,,,,,,,,,,,,,,,,,,,,,,,,,,,,,,,,,,,,,,,,
,,60ea5c6d8fcc1129d20b7b92,2024-02-21_19h27.13.534,kallum_motion_pilot,2023.2.2,Win32,82.6446281,60ea5c6d8fcc1129d20b7b92,65d6bb0e977760de756971f7,65d6befb979b6efb5b451d21,0.0289,0.0289,1,92,254,12,1,threeone,,,,,,,,,,,,,,,,,,,,,,,,,,,,,,,,,,,,,,,,,,,,,,,,,,,,,,,,,,,,,,,,,,,,,,,,,,,,,,,,,,,,,,,,,,,,,,,,,,,,,,,,,,,,,,,,,,,,,,,,,,,,,,,,,,,,,,,,,
,,60ea5c6d8fcc1129d20b7b92,2024-02-21_19h27.13.534,kallum_motion_pilot,2023.2.2,Win32,82.6446281,60ea5c6d8fcc1129d20b7b92,65d6bb0e977760de756971f7,65d6befb979b6efb5b451d21,0.029,0.029,1,93,255,29,1,threefour,,,,,,,,,,,,,,,,,,,,,,,,,,,,,,,,,,,,,,,,,,,,,,,,,,,,,,,,,,,,,,,,,,,,,,,,,,,,,,,,,,,,,,,,,,,,,,,,,,,,,,,,,,,,,,,,,,,,,,,,,,,,,,,,,,,,,,,,,
,,60ea5c6d8fcc1129d20b7b92,2024-02-21_19h27.13.534,kallum_motion_pilot,2023.2.2,Win32,82.6446281,60ea5c6d8fcc1129d20b7b92,65d6bb0e977760de756971f7,65d6befb979b6efb5b451d21,0.0291,0.0291,1,94,256,150,1,eightsix,,,,,,,,,,,,,,,,,,,,,,,,,,,,,,,,,,,,,,,,,,,,,,,,,,,,,,,,,,,,,,,,,,,,,,,,,,,,,,,,,,,,,,,,,,,,,,,,,,,,,,,,,,,,,,,,,,,,,,,,,,,,,,,,,,,,,,,,,
,,60ea5c6d8fcc1129d20b7b92,2024-02-21_19h27.13.534,kallum_motion_pilot,2023.2.2,Win32,82.6446281,60ea5c6d8fcc1129d20b7b92,65d6bb0e977760de756971f7,65d6befb979b6efb5b451d21,0.0291,0.0291,1,95,257,47,1,fourthree,,,,,,,,,,,,,,,,,,,,,,,,,,,,,,,,,,,,,,,,,,,,,,,,,,,,,,,,,,,,,,,,,,,,,,,,,,,,,,,,,,,,,,,,,,,,,,,,,,,,,,,,,,,,,,,,,,,,,,,,,,,,,,,,,,,,,,,,,
,,60ea5c6d8fcc1129d20b7b92,2024-02-21_19h27.13.534,kallum_motion_pilot,2023.2.2,Win32,82.6446281,60ea5c6d8fcc1129d20b7b92,65d6bb0e977760de756971f7,65d6befb979b6efb5b451d21,0.0291,0.0292,1,96,258,13,1,threefour,,,,,,,,,,,,,,,,,,,,,,,,,,,,,,,,,,,,,,,,,,,,,,,,,,,,,,,,,,,,,,,,,,,,,,,,,,,,,,,,,,,,,,,,,,,,,,,,,,,,,,,,,,,,,,,,,,,,,,,,,,,,,,,,,,,,,,,,,
,,60ea5c6d8fcc1129d20b7b92,2024-02-21_19h27.13.534,kallum_motion_pilot,2023.2.2,Win32,82.6446281,60ea5c6d8fcc1129d20b7b92,65d6bb0e977760de756971f7,65d6befb979b6efb5b451d21,0.0292,0.0293,1,97,259,42,1,twoone,,,,,,,,,,,,,,,,,,,,,,,,,,,,,,,,,,,,,,,,,,,,,,,,,,,,,,,,,,,,,,,,,,,,,,,,,,,,,,,,,,,,,,,,,,,,,,,,,,,,,,,,,,,,,,,,,,,,,,,,,,,,,,,,,,,,,,,,,
,,60ea5c6d8fcc1129d20b7b92,2024-02-21_19h27.13.534,kallum_motion_pilot,2023.2.2,Win32,82.6446281,60ea5c6d8fcc1129d20b7b92,65d6bb0e977760de756971f7,65d6befb979b6efb5b451d21,0.0293,0.0293,1,98,260,109,1,seveneight,,,,,,,,,,,,,,,,,,,,,,,,,,,,,,,,,,,,,,,,,,,,,,,,,,,,,,,,,,,,,,,,,,,,,,,,,,,,,,,,,,,,,,,,,,,,,,,,,,,,,,,,,,,,,,,,,,,,,,,,,,,,,,,,,,,,,,,,,
,,60ea5c6d8fcc1129d20b7b92,2024-02-21_19h27.13.534,kallum_motion_pilot,2023.2.2,Win32,82.6446281,60ea5c6d8fcc1129d20b7b92,65d6bb0e977760de756971f7,65d6befb979b6efb5b451d21,0.0294,0.0294,1,99,261,142,1,eightsix,,,,,,,,,,,,,,,,,,,,,,,,,,,,,,,,,,,,,,,,,,,,,,,,,,,,,,,,,,,,,,,,,,,,,,,,,,,,,,,,,,,,,,,,,,,,,,,,,,,,,,,,,,,,,,,,,,,,,,,,,,,,,,,,,,,,,,,,,
,,60ea5c6d8fcc1129d20b7b92,2024-02-21_19h27.13.534,kallum_motion_pilot,2023.2.2,Win32,82.6446281,60ea5c6d8fcc1129d20b7b92,65d6bb0e977760de756971f7,65d6befb979b6efb5b451d21,0.0294,0.0294,1,100,262,152,1,fivesix,,,,,,,,,,,,,,,,,,,,,,,,,,,,,,,,,,,,,,,,,,,,,,,,,,,,,,,,,,,,,,,,,,,,,,,,,,,,,,,,,,,,,,,,,,,,,,,,,,,,,,,,,,,,,,,,,,,,,,,,,,,,,,,,,,,,,,,,,
,,60ea5c6d8fcc1129d20b7b92,2024-02-21_19h27.13.534,kallum_motion_pilot,2023.2.2,Win32,82.6446281,60ea5c6d8fcc1129d20b7b92,65d6bb0e977760de756971f7,65d6befb979b6efb5b451d21,0.0297,0.0297,1,101,263,66,1,twoone,,,,,,,,,,,,,,,,,,,,,,,,,,,,,,,,,,,,,,,,,,,,,,,,,,,,,,,,,,,,,,,,,,,,,,,,,,,,,,,,,,,,,,,,,,,,,,,,,,,,,,,,,,,,,,,,,,,,,,,,,,,,,,,,,,,,,,,,,
,,60ea5c6d8fcc1129d20b7b92,2024-02-21_19h27.13.534,kallum_motion_pilot,2023.2.2,Win32,82.6446281,60ea5c6d8fcc1129d20b7b92,65d6bb0e977760de756971f7,65d6befb979b6efb5b451d21,0.0298,0.0298,1,102,264,55,1,fourthree,,,,,,,,,,,,,,,,,,,,,,,,,,,,,,,,,,,,,,,,,,,,,,,,,,,,,,,,,,,,,,,,,,,,,,,,,,,,,,,,,,,,,,,,,,,,,,,,,,,,,,,,,,,,,,,,,,,,,,,,,,,,,,,,,,,,,,,,,
,,60ea5c6d8fcc1129d20b7b92,2024-02-21_19h27.13.534,kallum_motion_pilot,2023.2.2,Win32,82.6446281,60ea5c6d8fcc1129d20b7b92,65d6bb0e977760de756971f7,65d6befb979b6efb5b451d21,0.03,0.03,1,103,265,148,1,sevenfive,,,,,,,,,,,,,,,,,,,,,,,,,,,,,,,,,,,,,,,,,,,,,,,,,,,,,,,,,,,,,,,,,,,,,,,,,,,,,,,,,,,,,,,,,,,,,,,,,,,,,,,,,,,,,,,,,,,,,,,,,,,,,,,,,,,,,,,,,
,,60ea5c6d8fcc1129d20b7b92,2024-02-21_19h27.13.534,kallum_motion_pilot,2023.2.2,Win32,82.6446281,60ea5c6d8fcc1129d20b7b92,65d6bb0e977760de756971f7,65d6befb979b6efb5b451d21,0.03,0.03,1,104,266,16,1,onetwo,,,,,,,,,,,,,,,,,,,,,,,,,,,,,,,,,,,,,,,,,,,,,,,,,,,,,,,,,,,,,,,,,,,,,,,,,,,,,,,,,,,,,,,,,,,,,,,,,,,,,,,,,,,,,,,,,,,,,,,,,,,,,,,,,,,,,,,,,
,,60ea5c6d8fcc1129d20b7b92,2024-02-21_19h27.13.534,kallum_motion_pilot,2023.2.2,Win32,82.6446281,60ea5c6d8fcc1129d20b7b92,65d6bb0e977760de756971f7,65d6befb979b6efb5b451d21,0.03,0.0301,1,105,267,106,1,sixfive,,,,,,,,,,,,,,,,,,,,,,,,,,,,,,,,,,,,,,,,,,,,,,,,,,,,,,,,,,,,,,,,,,,,,,,,,,,,,,,,,,,,,,,,,,,,,,,,,,,,,,,,,,,,,,,,,,,,,,,,,,,,,,,,,,,,,,,,,
,,60ea5c6d8fcc1129d20b7b92,2024-02-21_19h27.13.534,kallum_motion_pilot,2023.2.2,Win32,82.6446281,60ea5c6d8fcc1129d20b7b92,65d6bb0e977760de756971f7,65d6befb979b6efb5b451d21,0.0301,0.0302,1,106,268,46,1,fourtwo,,,,,,,,,,,,,,,,,,,,,,,,,,,,,,,,,,,,,,,,,,,,,,,,,,,,,,,,,,,,,,,,,,,,,,,,,,,,,,,,,,,,,,,,,,,,,,,,,,,,,,,,,,,,,,,,,,,,,,,,,,,,,,,,,,,,,,,,,
,,60ea5c6d8fcc1129d20b7b92,2024-02-21_19h27.13.534,kallum_motion_pilot,2023.2.2,Win32,82.6446281,60ea5c6d8fcc1129d20b7b92,65d6bb0e977760de756971f7,65d6befb979b6efb5b451d21,0.0302,0.0302,1,107,269,50,1,twoone,,,,,,,,,,,,,,,,,,,,,,,,,,,,,,,,,,,,,,,,,,,,,,,,,,,,,,,,,,,,,,,,,,,,,,,,,,,,,,,,,,,,,,,,,,,,,,,,,,,,,,,,,,,,,,,,,,,,,,,,,,,,,,,,,,,,,,,,,
,,60ea5c6d8fcc1129d20b7b92,2024-02-21_19h27.13.534,kallum_motion_pilot,2023.2.2,Win32,82.6446281,60ea5c6d8fcc1129d20b7b92,65d6bb0e977760de756971f7,65d6befb979b6efb5b451d21,0.0302,0.0302,1,108,270,18,1,twoone,,,,,,,,,,,,,,,,,,,,,,,,,,,,,,,,,,,,,,,,,,,,,,,,,,,,,,,,,,,,,,,,,,,,,,,,,,,,,,,,,,,,,,,,,,,,,,,,,,,,,,,,,,,,,,,,,,,,,,,,,,,,,,,,,,,,,,,,,
,,60ea5c6d8fcc1129d20b7b92,2024-02-21_19h27.13.534,kallum_motion_pilot,2023.2.2,Win32,82.6446281,60ea5c6d8fcc1129d20b7b92,65d6bb0e977760de756971f7,65d6befb979b6efb5b451d21,0.0303,0.0303,1,109,271,6,1,fourtwo,,,,,,,,,,,,,,,,,,,,,,,,,,,,,,,,,,,,,,,,,,,,,,,,,,,,,,,,,,,,,,,,,,,,,,,,,,,,,,,,,,,,,,,,,,,,,,,,,,,,,,,,,,,,,,,,,,,,,,,,,,,,,,,,,,,,,,,,,
,,60ea5c6d8fcc1129d20b7b92,2024-02-21_19h27.13.534,kallum_motion_pilot,2023.2.2,Win32,82.6446281,60ea5c6d8fcc1129d20b7b92,65d6bb0e977760de756971f7,65d6befb979b6efb5b451d21,0.0304,0.0304,1,110,272,146,1,sixfive,,,,,,,,,,,,,,,,,,,,,,,,,,,,,,,,,,,,,,,,,,,,,,,,,,,,,,,,,,,,,,,,,,,,,,,,,,,,,,,,,,,,,,,,,,,,,,,,,,,,,,,,,,,,,,,,,,,,,,,,,,,,,,,,,,,,,,,,,
,,60ea5c6d8fcc1129d20b7b92,2024-02-21_19h27.13.534,kallum_motion_pilot,2023.2.2,Win32,82.6446281,60ea5c6d8fcc1129d20b7b92,65d6bb0e977760de756971f7,65d6befb979b6efb5b451d21,0.0305,0.0305,1,111,273,159,1,eightseven,,,,,,,,,,,,,,,,,,,,,,,,,,,,,,,,,,,,,,,,,,,,,,,,,,,,,,,,,,,,,,,,,,,,,,,,,,,,,,,,,,,,,,,,,,,,,,,,,,,,,,,,,,,,,,,,,,,,,,,,,,,,,,,,,,,,,,,,,
,,60ea5c6d8fcc1129d20b7b92,2024-02-21_19h27.13.534,kallum_motion_pilot,2023.2.2,Win32,82.6446281,60ea5c6d8fcc1129d20b7b92,65d6bb0e977760de756971f7,65d6befb979b6efb5b451d21,0.0305,0.0305,1,112,274,79,1,eightseven,,,,,,,,,,,,,,,,,,,,,,,,,,,,,,,,,,,,,,,,,,,,,,,,,,,,,,,,,,,,,,,,,,,,,,,,,,,,,,,,,,,,,,,,,,,,,,,,,,,,,,,,,,,,,,,,,,,,,,,,,,,,,,,,,,,,,,,,,
,,60ea5c6d8fcc1129d20b7b92,2024-02-21_19h27.13.534,kallum_motion_pilot,2023.2.2,Win32,82.6446281,60ea5c6d8fcc1129d20b7b92,65d6bb0e977760de756971f7,65d6befb979b6efb5b451d21,0.0305,0.0306,1,113,275,83,1,sixeight,,,,,,,,,,,,,,,,,,,,,,,,,,,,,,,,,,,,,,,,,,,,,,,,,,,,,,,,,,,,,,,,,,,,,,,,,,,,,,,,,,,,,,,,,,,,,,,,,,,,,,,,,,,,,,,,,,,,,,,,,,,,,,,,,,,,,,,,,
,,60ea5c6d8fcc1129d20b7b92,2024-02-21_19h27.13.534,kallum_motion_pilot,2023.2.2,Win32,82.6446281,60ea5c6d8fcc1129d20b7b92,65d6bb0e977760de756971f7,65d6befb979b6efb5b451d21,0.0306,0.0307,1,114,276,61,1,threefour,,,,,,,,,,,,,,,,,,,,,,,,,,,,,,,,,,,,,,,,,,,,,,,,,,,,,,,,,,,,,,,,,,,,,,,,,,,,,,,,,,,,,,,,,,,,,,,,,,,,,,,,,,,,,,,,,,,,,,,,,,,,,,,,,,,,,,,,,
,,60ea5c6d8fcc1129d20b7b92,2024-02-21_19h27.13.534,kallum_motion_pilot,2023.2.2,Win32,82.6446281,60ea5c6d8fcc1129d20b7b92,65d6bb0e977760de756971f7,65d6befb979b6efb5b451d21,0.0307,0.0307,1,115,277,107,1,sixeight,,,,,,,,,,,,,,,,,,,,,,,,,,,,,,,,,,,,,,,,,,,,,,,,,,,,,,,,,,,,,,,,,,,,,,,,,,,,,,,,,,,,,,,,,,,,,,,,,,,,,,,,,,,,,,,,,,,,,,,,,,,,,,,,,,,,,,,,,
,,60ea5c6d8fcc1129d20b7b92,2024-02-21_19h27.13.534,kallum_motion_pilot,2023.2.2,Win32,82.6446281,60ea5c6d8fcc1129d20b7b92,65d6bb0e977760de756971f7,65d6befb979b6efb5b451d21,0.0308,0.0308,1,116,278,58,1,twoone,,,,,,,,,,,,,,,,,,,,,,,,,,,,,,,,,,,,,,,,,,,,,,,,,,,,,,,,,,,,,,,,,,,,,,,,,,,,,,,,,,,,,,,,,,,,,,,,,,,,,,,,,,,,,,,,,,,,,,,,,,,,,,,,,,,,,,,,,
