startup.started,startup.stopped,Prolific ID*,date,expName,psychopyVersion,OS,frameRate,participant,study_id,session,stimpositions.started,stimpositions.stopped,hardcoded_stimulus_positions.thisRepN,hardcoded_stimulus_positions.thisTrialN,hardcoded_stimulus_positions.thisN,hardcoded_stimulus_positions.thisIndex,hardcoded_stimulus_positions.ran,StimulusPos,stimorientation.started,stimorientation.stopped,prac_stimorientation_import_loop.thisRepN,prac_stimorientation_import_loop.thisTrialN,prac_stimorientation_import_loop.thisN,prac_stimorientation_import_loop.thisIndex,prac_stimorientation_import_loop.ran,Stimorientation,welcome_instr.started,welcome_instr.stopped,key_resp.keys,key_resp.rt,key_resp.duration,response_steppedout_1.started,response_steppedout_1.stopped,key_resp_20.keys,key_resp_20.rt,key_resp_20.duration,response_steppedout_2.started,response_steppedout_2.stopped,key_resp_19.keys,key_resp_19.rt,key_resp_19.duration,stim_response_instr.started,stim_response_instr.stopped,key_resp_15.keys,key_resp_15.rt,key_resp_15.duration,direction_instr_2.started,direction_instr_2.stopped,key_resp_9.keys,key_resp_9.rt,key_resp_9.duration,instr_prac.started,instr_prac.stopped,key_resp_10.keys,key_resp_10.rt,key_resp_10.duration,Stim1_display_prac.started,Stim1_display_prac.stopped,Ecc,Circle1_ori,Circle2_ori,response_prac.started,similarity,response_time,response_prac.stopped,mouse_5.x,mouse_5.y,mouse_5.leftButton,mouse_5.midButton,mouse_5.rightButton,mouse_5.clicked_name,responseprac_feedback.started,responseprac_feedback.stopped,summary2_prac.started,summary2_prac.stopped,mouse_6.x,mouse_6.y,mouse_6.leftButton,mouse_6.midButton,mouse_6.rightButton,mouse_6.clicked_name,duringprac.thisRepN,duringprac.thisTrialN,duringprac.thisN,duringprac.thisIndex,duringprac.ran,begin.started,begin.stopped,key_resp_22.keys,key_resp_22.rt,key_resp_22.duration,Stim1_display.started,Stim1_display.stopped,circle1_ori,circle2_ori,circle1_SF,circle2_SF,response.started,response.stopped,mouse.x,mouse.y,mouse.leftButton,mouse.midButton,mouse.rightButton,mouse.clicked_name,trialnumber,double_pass.thisRepN,double_pass.thisTrialN,double_pass.thisN,double_pass.thisIndex,double_pass.ran,double_pass.order,main_trial.thisRepN,main_trial.thisTrialN,main_trial.thisN,main_trial.thisIndex,main_trial.ran,main_trial.order,Trial_Counter,Catch,Frequencies,response_2.started,response_2.stopped,mouse_2.x,mouse_2.y,mouse_2.leftButton,mouse_2.midButton,mouse_2.rightButton,mouse_2.clicked_name,special_trial.started,special_trial.stopped,catch_1.started,catch_1.stopped,mouse_3.x,mouse_3.y,mouse_3.leftButton,mouse_3.midButton,mouse_3.rightButton,catchresponse,catchnumber,response_time_catch,response_sum.started,response_sum.stopped,mouse_11.x,mouse_11.y,mouse_11.leftButton,mouse_11.midButton,mouse_11.rightButton,flip_presentation_sequence_for_double_pass.started,flip_presentation_sequence_for_double_pass.stopped,goodbye.started,goodbye.stopped,key_resp_3.keys,key_resp_3.rt,key_resp_3.duration
0.0017,0.0018,60ee0205933c5e01fb46bdeb,2024-02-22_03h25.16.960,kallum_motion_pilot,2023.2.2,Win32,144.9275362,60ee0205933c5e01fb46bdeb,65d6bb0e977760de756971f7,65d6be8fd2fb402f9170e84f,,,,,,,,,,,,,,,,,,,,,,,,,,,,,,,,,,,,,,,,,,,,,,,,,,,,,,,,,,,,,,,,,,,,,,,,,,,,,,,,,,,,,,,,,,,,,,,,,,,,,,,,,,,,,,,,,,,,,,,,,,,,,,,,,,,,,,,,,,,,,,,,,
,,60ee0205933c5e01fb46bdeb,2024-02-22_03h25.16.960,kallum_motion_pilot,2023.2.2,Win32,144.9275362,60ee0205933c5e01fb46bdeb,65d6bb0e977760de756971f7,65d6be8fd2fb402f9170e84f,0.0223,0.0224,0,0,0,158,1,eightsix,,,,,,,,,,,,,,,,,,,,,,,,,,,,,,,,,,,,,,,,,,,,,,,,,,,,,,,,,,,,,,,,,,,,,,,,,,,,,,,,,,,,,,,,,,,,,,,,,,,,,,,,,,,,,,,,,,,,,,,,,,,,,,,,,,,,,,,,,
,,60ee0205933c5e01fb46bdeb,2024-02-22_03h25.16.960,kallum_motion_pilot,2023.2.2,Win32,144.9275362,60ee0205933c5e01fb46bdeb,65d6bb0e977760de756971f7,65d6be8fd2fb402f9170e84f,0.0226,0.0226,0,1,1,99,1,sixeight,,,,,,,,,,,,,,,,,,,,,,,,,,,,,,,,,,,,,,,,,,,,,,,,,,,,,,,,,,,,,,,,,,,,,,,,,,,,,,,,,,,,,,,,,,,,,,,,,,,,,,,,,,,,,,,,,,,,,,,,,,,,,,,,,,,,,,,,,
,,60ee0205933c5e01fb46bdeb,2024-02-22_03h25.16.960,kallum_motion_pilot,2023.2.2,Win32,144.9275362,60ee0205933c5e01fb46bdeb,65d6bb0e977760de756971f7,65d6be8fd2fb402f9170e84f,0.0227,0.0227,0,2,2,157,1,seveneight,,,,,,,,,,,,,,,,,,,,,,,,,,,,,,,,,,,,,,,,,,,,,,,,,,,,,,,,,,,,,,,,,,,,,,,,,,,,,,,,,,,,,,,,,,,,,,,,,,,,,,,,,,,,,,,,,,,,,,,,,,,,,,,,,,,,,,,,,
,,60ee0205933c5e01fb46bdeb,2024-02-22_03h25.16.960,kallum_motion_pilot,2023.2.2,Win32,144.9275362,60ee0205933c5e01fb46bdeb,65d6bb0e977760de756971f7,65d6be8fd2fb402f9170e84f,0.0228,0.0228,0,3,3,86,1,eightsix,,,,,,,,,,,,,,,,,,,,,,,,,,,,,,,,,,,,,,,,,,,,,,,,,,,,,,,,,,,,,,,,,,,,,,,,,,,,,,,,,,,,,,,,,,,,,,,,,,,,,,,,,,,,,,,,,,,,,,,,,,,,,,,,,,,,,,,,,
,,60ee0205933c5e01fb46bdeb,2024-02-22_03h25.16.960,kallum_motion_pilot,2023.2.2,Win32,144.9275362,60ee0205933c5e01fb46bdeb,65d6bb0e977760de756971f7,65d6be8fd2fb402f9170e84f,0.0229,0.023,0,4,4,55,1,fourthree,,,,,,,,,,,,,,,,,,,,,,,,,,,,,,,,,,,,,,,,,,,,,,,,,,,,,,,,,,,,,,,,,,,,,,,,,,,,,,,,,,,,,,,,,,,,,,,,,,,,,,,,,,,,,,,,,,,,,,,,,,,,,,,,,,,,,,,,,
,,60ee0205933c5e01fb46bdeb,2024-02-22_03h25.16.960,kallum_motion_pilot,2023.2.2,Win32,144.9275362,60ee0205933c5e01fb46bdeb,65d6bb0e977760de756971f7,65d6be8fd2fb402f9170e84f,0.023,0.023,0,5,5,111,1,eightseven,,,,,,,,,,,,,,,,,,,,,,,,,,,,,,,,,,,,,,,,,,,,,,,,,,,,,,,,,,,,,,,,,,,,,,,,,,,,,,,,,,,,,,,,,,,,,,,,,,,,,,,,,,,,,,,,,,,,,,,,,,,,,,,,,,,,,,,,,
,,60ee0205933c5e01fb46bdeb,2024-02-22_03h25.16.960,kallum_motion_pilot,2023.2.2,Win32,144.9275362,60ee0205933c5e01fb46bdeb,65d6bb0e977760de756971f7,65d6be8fd2fb402f9170e84f,0.0231,0.0231,0,6,6,149,1,seveneight,,,,,,,,,,,,,,,,,,,,,,,,,,,,,,,,,,,,,,,,,,,,,,,,,,,,,,,,,,,,,,,,,,,,,,,,,,,,,,,,,,,,,,,,,,,,,,,,,,,,,,,,,,,,,,,,,,,,,,,,,,,,,,,,,,,,,,,,,
,,60ee0205933c5e01fb46bdeb,2024-02-22_03h25.16.960,kallum_motion_pilot,2023.2.2,Win32,144.9275362,60ee0205933c5e01fb46bdeb,65d6bb0e977760de756971f7,65d6be8fd2fb402f9170e84f,0.0232,0.0232,0,7,7,33,1,onethree,,,,,,,,,,,,,,,,,,,,,,,,,,,,,,,,,,,,,,,,,,,,,,,,,,,,,,,,,,,,,,,,,,,,,,,,,,,,,,,,,,,,,,,,,,,,,,,,,,,,,,,,,,,,,,,,,,,,,,,,,,,,,,,,,,,,,,,,,
,,60ee0205933c5e01fb46bdeb,2024-02-22_03h25.16.960,kallum_motion_pilot,2023.2.2,Win32,144.9275362,60ee0205933c5e01fb46bdeb,65d6bb0e977760de756971f7,65d6be8fd2fb402f9170e84f,0.0233,0.0233,0,8,8,161,1,fiveseven,,,,,,,,,,,,,,,,,,,,,,,,,,,,,,,,,,,,,,,,,,,,,,,,,,,,,,,,,,,,,,,,,,,,,,,,,,,,,,,,,,,,,,,,,,,,,,,,,,,,,,,,,,,,,,,,,,,,,,,,,,,,,,,,,,,,,,,,,
,,60ee0205933c5e01fb46bdeb,2024-02-22_03h25.16.960,kallum_motion_pilot,2023.2.2,Win32,144.9275362,60ee0205933c5e01fb46bdeb,65d6bb0e977760de756971f7,65d6be8fd2fb402f9170e84f,0.0234,0.0235,0,9,9,71,1,fourthree,,,,,,,,,,,,,,,,,,,,,,,,,,,,,,,,,,,,,,,,,,,,,,,,,,,,,,,,,,,,,,,,,,,,,,,,,,,,,,,,,,,,,,,,,,,,,,,,,,,,,,,,,,,,,,,,,,,,,,,,,,,,,,,,,,,,,,,,,
,,60ee0205933c5e01fb46bdeb,2024-02-22_03h25.16.960,kallum_motion_pilot,2023.2.2,Win32,144.9275362,60ee0205933c5e01fb46bdeb,65d6bb0e977760de756971f7,65d6be8fd2fb402f9170e84f,0.0236,0.0236,0,10,10,140,1,sevenfive,,,,,,,,,,,,,,,,,,,,,,,,,,,,,,,,,,,,,,,,,,,,,,,,,,,,,,,,,,,,,,,,,,,,,,,,,,,,,,,,,,,,,,,,,,,,,,,,,,,,,,,,,,,,,,,,,,,,,,,,,,,,,,,,,,,,,,,,,
,,60ee0205933c5e01fb46bdeb,2024-02-22_03h25.16.960,kallum_motion_pilot,2023.2.2,Win32,144.9275362,60ee0205933c5e01fb46bdeb,65d6bb0e977760de756971f7,65d6be8fd2fb402f9170e84f,0.0236,0.0236,0,11,11,89,1,fiveseven,,,,,,,,,,,,,,,,,,,,,,,,,,,,,,,,,,,,,,,,,,,,,,,,,,,,,,,,,,,,,,,,,,,,,,,,,,,,,,,,,,,,,,,,,,,,,,,,,,,,,,,,,,,,,,,,,,,,,,,,,,,,,,,,,,,,,,,,,
,,60ee0205933c5e01fb46bdeb,2024-02-22_03h25.16.960,kallum_motion_pilot,2023.2.2,Win32,144.9275362,60ee0205933c5e01fb46bdeb,65d6bb0e977760de756971f7,65d6be8fd2fb402f9170e84f,0.0237,0.0237,0,12,12,143,1,eightseven,,,,,,,,,,,,,,,,,,,,,,,,,,,,,,,,,,,,,,,,,,,,,,,,,,,,,,,,,,,,,,,,,,,,,,,,,,,,,,,,,,,,,,,,,,,,,,,,,,,,,,,,,,,,,,,,,,,,,,,,,,,,,,,,,,,,,,,,,
,,60ee0205933c5e01fb46bdeb,2024-02-22_03h25.16.960,kallum_motion_pilot,2023.2.2,Win32,144.9275362,60ee0205933c5e01fb46bdeb,65d6bb0e977760de756971f7,65d6be8fd2fb402f9170e84f,0.0238,0.0238,0,13,13,41,1,onethree,,,,,,,,,,,,,,,,,,,,,,,,,,,,,,,,,,,,,,,,,,,,,,,,,,,,,,,,,,,,,,,,,,,,,,,,,,,,,,,,,,,,,,,,,,,,,,,,,,,,,,,,,,,,,,,,,,,,,,,,,,,,,,,,,,,,,,,,,
,,60ee0205933c5e01fb46bdeb,2024-02-22_03h25.16.960,kallum_motion_pilot,2023.2.2,Win32,144.9275362,60ee0205933c5e01fb46bdeb,65d6bb0e977760de756971f7,65d6be8fd2fb402f9170e84f,0.0238,0.0238,0,14,14,15,1,fourthree,,,,,,,,,,,,,,,,,,,,,,,,,,,,,,,,,,,,,,,,,,,,,,,,,,,,,,,,,,,,,,,,,,,,,,,,,,,,,,,,,,,,,,,,,,,,,,,,,,,,,,,,,,,,,,,,,,,,,,,,,,,,,,,,,,,,,,,,,
,,60ee0205933c5e01fb46bdeb,2024-02-22_03h25.16.960,kallum_motion_pilot,2023.2.2,Win32,144.9275362,60ee0205933c5e01fb46bdeb,65d6bb0e977760de756971f7,65d6be8fd2fb402f9170e84f,0.0239,0.0239,0,15,15,127,1,eightseven,,,,,,,,,,,,,,,,,,,,,,,,,,,,,,,,,,,,,,,,,,,,,,,,,,,,,,,,,,,,,,,,,,,,,,,,,,,,,,,,,,,,,,,,,,,,,,,,,,,,,,,,,,,,,,,,,,,,,,,,,,,,,,,,,,,,,,,,,
,,60ee0205933c5e01fb46bdeb,2024-02-22_03h25.16.960,kallum_motion_pilot,2023.2.2,Win32,144.9275362,60ee0205933c5e01fb46bdeb,65d6bb0e977760de756971f7,65d6be8fd2fb402f9170e84f,0.024,0.024,0,16,16,109,1,seveneight,,,,,,,,,,,,,,,,,,,,,,,,,,,,,,,,,,,,,,,,,,,,,,,,,,,,,,,,,,,,,,,,,,,,,,,,,,,,,,,,,,,,,,,,,,,,,,,,,,,,,,,,,,,,,,,,,,,,,,,,,,,,,,,,,,,,,,,,,
,,60ee0205933c5e01fb46bdeb,2024-02-22_03h25.16.960,kallum_motion_pilot,2023.2.2,Win32,144.9275362,60ee0205933c5e01fb46bdeb,65d6bb0e977760de756971f7,65d6be8fd2fb402f9170e84f,0.0241,0.0241,0,17,17,37,1,threefour,,,,,,,,,,,,,,,,,,,,,,,,,,,,,,,,,,,,,,,,,,,,,,,,,,,,,,,,,,,,,,,,,,,,,,,,,,,,,,,,,,,,,,,,,,,,,,,,,,,,,,,,,,,,,,,,,,,,,,,,,,,,,,,,,,,,,,,,,
,,60ee0205933c5e01fb46bdeb,2024-02-22_03h25.16.960,kallum_motion_pilot,2023.2.2,Win32,144.9275362,60ee0205933c5e01fb46bdeb,65d6bb0e977760de756971f7,65d6be8fd2fb402f9170e84f,0.0242,0.0242,0,18,18,48,1,onetwo,,,,,,,,,,,,,,,,,,,,,,,,,,,,,,,,,,,,,,,,,,,,,,,,,,,,,,,,,,,,,,,,,,,,,,,,,,,,,,,,,,,,,,,,,,,,,,,,,,,,,,,,,,,,,,,,,,,,,,,,,,,,,,,,,,,,,,,,,
,,60ee0205933c5e01fb46bdeb,2024-02-22_03h25.16.960,kallum_motion_pilot,2023.2.2,Win32,144.9275362,60ee0205933c5e01fb46bdeb,65d6bb0e977760de756971f7,65d6be8fd2fb402f9170e84f,0.0243,0.0243,0,19,19,53,1,threefour,,,,,,,,,,,,,,,,,,,,,,,,,,,,,,,,,,,,,,,,,,,,,,,,,,,,,,,,,,,,,,,,,,,,,,,,,,,,,,,,,,,,,,,,,,,,,,,,,,,,,,,,,,,,,,,,,,,,,,,,,,,,,,,,,,,,,,,,,
,,60ee0205933c5e01fb46bdeb,2024-02-22_03h25.16.960,kallum_motion_pilot,2023.2.2,Win32,144.9275362,60ee0205933c5e01fb46bdeb,65d6bb0e977760de756971f7,65d6be8fd2fb402f9170e84f,0.0244,0.0244,0,20,20,69,1,threefour,,,,,,,,,,,,,,,,,,,,,,,,,,,,,,,,,,,,,,,,,,,,,,,,,,,,,,,,,,,,,,,,,,,,,,,,,,,,,,,,,,,,,,,,,,,,,,,,,,,,,,,,,,,,,,,,,,,,,,,,,,,,,,,,,,,,,,,,,
,,60ee0205933c5e01fb46bdeb,2024-02-22_03h25.16.960,kallum_motion_pilot,2023.2.2,Win32,144.9275362,60ee0205933c5e01fb46bdeb,65d6bb0e977760de756971f7,65d6be8fd2fb402f9170e84f,0.0245,0.0245,0,21,21,116,1,sevenfive,,,,,,,,,,,,,,,,,,,,,,,,,,,,,,,,,,,,,,,,,,,,,,,,,,,,,,,,,,,,,,,,,,,,,,,,,,,,,,,,,,,,,,,,,,,,,,,,,,,,,,,,,,,,,,,,,,,,,,,,,,,,,,,,,,,,,,,,,
,,60ee0205933c5e01fb46bdeb,2024-02-22_03h25.16.960,kallum_motion_pilot,2023.2.2,Win32,144.9275362,60ee0205933c5e01fb46bdeb,65d6bb0e977760de756971f7,65d6be8fd2fb402f9170e84f,0.0245,0.0245,0,22,22,46,1,fourtwo,,,,,,,,,,,,,,,,,,,,,,,,,,,,,,,,,,,,,,,,,,,,,,,,,,,,,,,,,,,,,,,,,,,,,,,,,,,,,,,,,,,,,,,,,,,,,,,,,,,,,,,,,,,,,,,,,,,,,,,,,,,,,,,,,,,,,,,,,
,,60ee0205933c5e01fb46bdeb,2024-02-22_03h25.16.960,kallum_motion_pilot,2023.2.2,Win32,144.9275362,60ee0205933c5e01fb46bdeb,65d6bb0e977760de756971f7,65d6be8fd2fb402f9170e84f,0.0246,0.0246,0,23,23,115,1,sixeight,,,,,,,,,,,,,,,,,,,,,,,,,,,,,,,,,,,,,,,,,,,,,,,,,,,,,,,,,,,,,,,,,,,,,,,,,,,,,,,,,,,,,,,,,,,,,,,,,,,,,,,,,,,,,,,,,,,,,,,,,,,,,,,,,,,,,,,,,
,,60ee0205933c5e01fb46bdeb,2024-02-22_03h25.16.960,kallum_motion_pilot,2023.2.2,Win32,144.9275362,60ee0205933c5e01fb46bdeb,65d6bb0e977760de756971f7,65d6be8fd2fb402f9170e84f,0.0246,0.0246,0,24,24,5,1,threefour,,,,,,,,,,,,,,,,,,,,,,,,,,,,,,,,,,,,,,,,,,,,,,,,,,,,,,,,,,,,,,,,,,,,,,,,,,,,,,,,,,,,,,,,,,,,,,,,,,,,,,,,,,,,,,,,,,,,,,,,,,,,,,,,,,,,,,,,,
,,60ee0205933c5e01fb46bdeb,2024-02-22_03h25.16.960,kallum_motion_pilot,2023.2.2,Win32,144.9275362,60ee0205933c5e01fb46bdeb,65d6bb0e977760de756971f7,65d6be8fd2fb402f9170e84f,0.0248,0.0248,0,25,25,58,1,twoone,,,,,,,,,,,,,,,,,,,,,,,,,,,,,,,,,,,,,,,,,,,,,,,,,,,,,,,,,,,,,,,,,,,,,,,,,,,,,,,,,,,,,,,,,,,,,,,,,,,,,,,,,,,,,,,,,,,,,,,,,,,,,,,,,,,,,,,,,
,,60ee0205933c5e01fb46bdeb,2024-02-22_03h25.16.960,kallum_motion_pilot,2023.2.2,Win32,144.9275362,60ee0205933c5e01fb46bdeb,65d6bb0e977760de756971f7,65d6be8fd2fb402f9170e84f,0.0249,0.0249,0,26,26,44,1,threeone,,,,,,,,,,,,,,,,,,,,,,,,,,,,,,,,,,,,,,,,,,,,,,,,,,,,,,,,,,,,,,,,,,,,,,,,,,,,,,,,,,,,,,,,,,,,,,,,,,,,,,,,,,,,,,,,,,,,,,,,,,,,,,,,,,,,,,,,,
,,60ee0205933c5e01fb46bdeb,2024-02-22_03h25.16.960,kallum_motion_pilot,2023.2.2,Win32,144.9275362,60ee0205933c5e01fb46bdeb,65d6bb0e977760de756971f7,65d6be8fd2fb402f9170e84f,0.0249,0.025,0,27,27,26,1,twoone,,,,,,,,,,,,,,,,,,,,,,,,,,,,,,,,,,,,,,,,,,,,,,,,,,,,,,,,,,,,,,,,,,,,,,,,,,,,,,,,,,,,,,,,,,,,,,,,,,,,,,,,,,,,,,,,,,,,,,,,,,,,,,,,,,,,,,,,,
,,60ee0205933c5e01fb46bdeb,2024-02-22_03h25.16.960,kallum_motion_pilot,2023.2.2,Win32,144.9275362,60ee0205933c5e01fb46bdeb,65d6bb0e977760de756971f7,65d6be8fd2fb402f9170e84f,0.025,0.025,0,28,28,35,1,twofour,,,,,,,,,,,,,,,,,,,,,,,,,,,,,,,,,,,,,,,,,,,,,,,,,,,,,,,,,,,,,,,,,,,,,,,,,,,,,,,,,,,,,,,,,,,,,,,,,,,,,,,,,,,,,,,,,,,,,,,,,,,,,,,,,,,,,,,,,
,,60ee0205933c5e01fb46bdeb,2024-02-22_03h25.16.960,kallum_motion_pilot,2023.2.2,Win32,144.9275362,60ee0205933c5e01fb46bdeb,65d6bb0e977760de756971f7,65d6be8fd2fb402f9170e84f,0.0251,0.0251,0,29,29,24,1,onetwo,,,,,,,,,,,,,,,,,,,,,,,,,,,,,,,,,,,,,,,,,,,,,,,,,,,,,,,,,,,,,,,,,,,,,,,,,,,,,,,,,,,,,,,,,,,,,,,,,,,,,,,,,,,,,,,,,,,,,,,,,,,,,,,,,,,,,,,,,
,,60ee0205933c5e01fb46bdeb,2024-02-22_03h25.16.960,kallum_motion_pilot,2023.2.2,Win32,144.9275362,60ee0205933c5e01fb46bdeb,65d6bb0e977760de756971f7,65d6be8fd2fb402f9170e84f,0.0252,0.0252,0,30,30,54,1,fourtwo,,,,,,,,,,,,,,,,,,,,,,,,,,,,,,,,,,,,,,,,,,,,,,,,,,,,,,,,,,,,,,,,,,,,,,,,,,,,,,,,,,,,,,,,,,,,,,,,,,,,,,,,,,,,,,,,,,,,,,,,,,,,,,,,,,,,,,,,,
,,60ee0205933c5e01fb46bdeb,2024-02-22_03h25.16.960,kallum_motion_pilot,2023.2.2,Win32,144.9275362,60ee0205933c5e01fb46bdeb,65d6bb0e977760de756971f7,65d6be8fd2fb402f9170e84f,0.0253,0.0253,0,31,31,118,1,eightsix,,,,,,,,,,,,,,,,,,,,,,,,,,,,,,,,,,,,,,,,,,,,,,,,,,,,,,,,,,,,,,,,,,,,,,,,,,,,,,,,,,,,,,,,,,,,,,,,,,,,,,,,,,,,,,,,,,,,,,,,,,,,,,,,,,,,,,,,,
,,60ee0205933c5e01fb46bdeb,2024-02-22_03h25.16.960,kallum_motion_pilot,2023.2.2,Win32,144.9275362,60ee0205933c5e01fb46bdeb,65d6bb0e977760de756971f7,65d6be8fd2fb402f9170e84f,0.0253,0.0253,0,32,32,61,1,threefour,,,,,,,,,,,,,,,,,,,,,,,,,,,,,,,,,,,,,,,,,,,,,,,,,,,,,,,,,,,,,,,,,,,,,,,,,,,,,,,,,,,,,,,,,,,,,,,,,,,,,,,,,,,,,,,,,,,,,,,,,,,,,,,,,,,,,,,,,
,,60ee0205933c5e01fb46bdeb,2024-02-22_03h25.16.960,kallum_motion_pilot,2023.2.2,Win32,144.9275362,60ee0205933c5e01fb46bdeb,65d6bb0e977760de756971f7,65d6be8fd2fb402f9170e84f,0.0254,0.0254,0,33,33,112,1,fivesix,,,,,,,,,,,,,,,,,,,,,,,,,,,,,,,,,,,,,,,,,,,,,,,,,,,,,,,,,,,,,,,,,,,,,,,,,,,,,,,,,,,,,,,,,,,,,,,,,,,,,,,,,,,,,,,,,,,,,,,,,,,,,,,,,,,,,,,,,
,,60ee0205933c5e01fb46bdeb,2024-02-22_03h25.16.960,kallum_motion_pilot,2023.2.2,Win32,144.9275362,60ee0205933c5e01fb46bdeb,65d6bb0e977760de756971f7,65d6be8fd2fb402f9170e84f,0.0255,0.0255,0,34,34,134,1,eightsix,,,,,,,,,,,,,,,,,,,,,,,,,,,,,,,,,,,,,,,,,,,,,,,,,,,,,,,,,,,,,,,,,,,,,,,,,,,,,,,,,,,,,,,,,,,,,,,,,,,,,,,,,,,,,,,,,,,,,,,,,,,,,,,,,,,,,,,,,
,,60ee0205933c5e01fb46bdeb,2024-02-22_03h25.16.960,kallum_motion_pilot,2023.2.2,Win32,144.9275362,60ee0205933c5e01fb46bdeb,65d6bb0e977760de756971f7,65d6be8fd2fb402f9170e84f,0.0256,0.0256,0,35,35,126,1,eightsix,,,,,,,,,,,,,,,,,,,,,,,,,,,,,,,,,,,,,,,,,,,,,,,,,,,,,,,,,,,,,,,,,,,,,,,,,,,,,,,,,,,,,,,,,,,,,,,,,,,,,,,,,,,,,,,,,,,,,,,,,,,,,,,,,,,,,,,,,
,,60ee0205933c5e01fb46bdeb,2024-02-22_03h25.16.960,kallum_motion_pilot,2023.2.2,Win32,144.9275362,60ee0205933c5e01fb46bdeb,65d6bb0e977760de756971f7,65d6be8fd2fb402f9170e84f,0.0256,0.0256,0,36,36,131,1,sixeight,,,,,,,,,,,,,,,,,,,,,,,,,,,,,,,,,,,,,,,,,,,,,,,,,,,,,,,,,,,,,,,,,,,,,,,,,,,,,,,,,,,,,,,,,,,,,,,,,,,,,,,,,,,,,,,,,,,,,,,,,,,,,,,,,,,,,,,,,
,,60ee0205933c5e01fb46bdeb,2024-02-22_03h25.16.960,kallum_motion_pilot,2023.2.2,Win32,144.9275362,60ee0205933c5e01fb46bdeb,65d6bb0e977760de756971f7,65d6be8fd2fb402f9170e84f,0.0258,0.0258,0,37,37,73,1,onethree,,,,,,,,,,,,,,,,,,,,,,,,,,,,,,,,,,,,,,,,,,,,,,,,,,,,,,,,,,,,,,,,,,,,,,,,,,,,,,,,,,,,,,,,,,,,,,,,,,,,,,,,,,,,,,,,,,,,,,,,,,,,,,,,,,,,,,,,,
,,60ee0205933c5e01fb46bdeb,2024-02-22_03h25.16.960,kallum_motion_pilot,2023.2.2,Win32,144.9275362,60ee0205933c5e01fb46bdeb,65d6bb0e977760de756971f7,65d6be8fd2fb402f9170e84f,0.0258,0.0259,0,38,38,87,1,eightseven,,,,,,,,,,,,,,,,,,,,,,,,,,,,,,,,,,,,,,,,,,,,,,,,,,,,,,,,,,,,,,,,,,,,,,,,,,,,,,,,,,,,,,,,,,,,,,,,,,,,,,,,,,,,,,,,,,,,,,,,,,,,,,,,,,,,,,,,,
,,60ee0205933c5e01fb46bdeb,2024-02-22_03h25.16.960,kallum_motion_pilot,2023.2.2,Win32,144.9275362,60ee0205933c5e01fb46bdeb,65d6bb0e977760de756971f7,65d6be8fd2fb402f9170e84f,0.0259,0.0259,0,39,39,101,1,seveneight,,,,,,,,,,,,,,,,,,,,,,,,,,,,,,,,,,,,,,,,,,,,,,,,,,,,,,,,,,,,,,,,,,,,,,,,,,,,,,,,,,,,,,,,,,,,,,,,,,,,,,,,,,,,,,,,,,,,,,,,,,,,,,,,,,,,,,,,,
,,60ee0205933c5e01fb46bdeb,2024-02-22_03h25.16.960,kallum_motion_pilot,2023.2.2,Win32,144.9275362,60ee0205933c5e01fb46bdeb,65d6bb0e977760de756971f7,65d6be8fd2fb402f9170e84f,0.026,0.026,0,40,40,49,1,onethree,,,,,,,,,,,,,,,,,,,,,,,,,,,,,,,,,,,,,,,,,,,,,,,,,,,,,,,,,,,,,,,,,,,,,,,,,,,,,,,,,,,,,,,,,,,,,,,,,,,,,,,,,,,,,,,,,,,,,,,,,,,,,,,,,,,,,,,,,
,,60ee0205933c5e01fb46bdeb,2024-02-22_03h25.16.960,kallum_motion_pilot,2023.2.2,Win32,144.9275362,60ee0205933c5e01fb46bdeb,65d6bb0e977760de756971f7,65d6be8fd2fb402f9170e84f,0.0261,0.0261,0,41,41,150,1,eightsix,,,,,,,,,,,,,,,,,,,,,,,,,,,,,,,,,,,,,,,,,,,,,,,,,,,,,,,,,,,,,,,,,,,,,,,,,,,,,,,,,,,,,,,,,,,,,,,,,,,,,,,,,,,,,,,,,,,,,,,,,,,,,,,,,,,,,,,,,
,,60ee0205933c5e01fb46bdeb,2024-02-22_03h25.16.960,kallum_motion_pilot,2023.2.2,Win32,144.9275362,60ee0205933c5e01fb46bdeb,65d6bb0e977760de756971f7,65d6be8fd2fb402f9170e84f,0.0262,0.0262,0,42,42,95,1,eightseven,,,,,,,,,,,,,,,,,,,,,,,,,,,,,,,,,,,,,,,,,,,,,,,,,,,,,,,,,,,,,,,,,,,,,,,,,,,,,,,,,,,,,,,,,,,,,,,,,,,,,,,,,,,,,,,,,,,,,,,,,,,,,,,,,,,,,,,,,
,,60ee0205933c5e01fb46bdeb,2024-02-22_03h25.16.960,kallum_motion_pilot,2023.2.2,Win32,144.9275362,60ee0205933c5e01fb46bdeb,65d6bb0e977760de756971f7,65d6be8fd2fb402f9170e84f,0.0263,0.0263,0,43,43,121,1,fiveseven,,,,,,,,,,,,,,,,,,,,,,,,,,,,,,,,,,,,,,,,,,,,,,,,,,,,,,,,,,,,,,,,,,,,,,,,,,,,,,,,,,,,,,,,,,,,,,,,,,,,,,,,,,,,,,,,,,,,,,,,,,,,,,,,,,,,,,,,,
,,60ee0205933c5e01fb46bdeb,2024-02-22_03h25.16.960,kallum_motion_pilot,2023.2.2,Win32,144.9275362,60ee0205933c5e01fb46bdeb,65d6bb0e977760de756971f7,65d6be8fd2fb402f9170e84f,0.0263,0.0263,0,44,44,100,1,sevenfive,,,,,,,,,,,,,,,,,,,,,,,,,,,,,,,,,,,,,,,,,,,,,,,,,,,,,,,,,,,,,,,,,,,,,,,,,,,,,,,,,,,,,,,,,,,,,,,,,,,,,,,,,,,,,,,,,,,,,,,,,,,,,,,,,,,,,,,,,
,,60ee0205933c5e01fb46bdeb,2024-02-22_03h25.16.960,kallum_motion_pilot,2023.2.2,Win32,144.9275362,60ee0205933c5e01fb46bdeb,65d6bb0e977760de756971f7,65d6be8fd2fb402f9170e84f,0.0264,0.0265,0,45,45,16,1,onetwo,,,,,,,,,,,,,,,,,,,,,,,,,,,,,,,,,,,,,,,,,,,,,,,,,,,,,,,,,,,,,,,,,,,,,,,,,,,,,,,,,,,,,,,,,,,,,,,,,,,,,,,,,,,,,,,,,,,,,,,,,,,,,,,,,,,,,,,,,
,,60ee0205933c5e01fb46bdeb,2024-02-22_03h25.16.960,kallum_motion_pilot,2023.2.2,Win32,144.9275362,60ee0205933c5e01fb46bdeb,65d6bb0e977760de756971f7,65d6be8fd2fb402f9170e84f,0.0272,0.0273,0,46,46,68,1,threeone,,,,,,,,,,,,,,,,,,,,,,,,,,,,,,,,,,,,,,,,,,,,,,,,,,,,,,,,,,,,,,,,,,,,,,,,,,,,,,,,,,,,,,,,,,,,,,,,,,,,,,,,,,,,,,,,,,,,,,,,,,,,,,,,,,,,,,,,,
,,60ee0205933c5e01fb46bdeb,2024-02-22_03h25.16.960,kallum_motion_pilot,2023.2.2,Win32,144.9275362,60ee0205933c5e01fb46bdeb,65d6bb0e977760de756971f7,65d6be8fd2fb402f9170e84f,0.0273,0.0273,0,47,47,153,1,fiveseven,,,,,,,,,,,,,,,,,,,,,,,,,,,,,,,,,,,,,,,,,,,,,,,,,,,,,,,,,,,,,,,,,,,,,,,,,,,,,,,,,,,,,,,,,,,,,,,,,,,,,,,,,,,,,,,,,,,,,,,,,,,,,,,,,,,,,,,,,
,,60ee0205933c5e01fb46bdeb,2024-02-22_03h25.16.960,kallum_motion_pilot,2023.2.2,Win32,144.9275362,60ee0205933c5e01fb46bdeb,65d6bb0e977760de756971f7,65d6be8fd2fb402f9170e84f,0.0274,0.0274,0,48,48,28,1,threeone,,,,,,,,,,,,,,,,,,,,,,,,,,,,,,,,,,,,,,,,,,,,,,,,,,,,,,,,,,,,,,,,,,,,,,,,,,,,,,,,,,,,,,,,,,,,,,,,,,,,,,,,,,,,,,,,,,,,,,,,,,,,,,,,,,,,,,,,,
,,60ee0205933c5e01fb46bdeb,2024-02-22_03h25.16.960,kallum_motion_pilot,2023.2.2,Win32,144.9275362,60ee0205933c5e01fb46bdeb,65d6bb0e977760de756971f7,65d6be8fd2fb402f9170e84f,0.0275,0.0275,0,49,49,88,1,fivesix,,,,,,,,,,,,,,,,,,,,,,,,,,,,,,,,,,,,,,,,,,,,,,,,,,,,,,,,,,,,,,,,,,,,,,,,,,,,,,,,,,,,,,,,,,,,,,,,,,,,,,,,,,,,,,,,,,,,,,,,,,,,,,,,,,,,,,,,,
,,60ee0205933c5e01fb46bdeb,2024-02-22_03h25.16.960,kallum_motion_pilot,2023.2.2,Win32,144.9275362,60ee0205933c5e01fb46bdeb,65d6bb0e977760de756971f7,65d6be8fd2fb402f9170e84f,0.0276,0.0276,0,50,50,128,1,fivesix,,,,,,,,,,,,,,,,,,,,,,,,,,,,,,,,,,,,,,,,,,,,,,,,,,,,,,,,,,,,,,,,,,,,,,,,,,,,,,,,,,,,,,,,,,,,,,,,,,,,,,,,,,,,,,,,,,,,,,,,,,,,,,,,,,,,,,,,,
,,60ee0205933c5e01fb46bdeb,2024-02-22_03h25.16.960,kallum_motion_pilot,2023.2.2,Win32,144.9275362,60ee0205933c5e01fb46bdeb,65d6bb0e977760de756971f7,65d6be8fd2fb402f9170e84f,0.0276,0.0276,0,51,51,13,1,threefour,,,,,,,,,,,,,,,,,,,,,,,,,,,,,,,,,,,,,,,,,,,,,,,,,,,,,,,,,,,,,,,,,,,,,,,,,,,,,,,,,,,,,,,,,,,,,,,,,,,,,,,,,,,,,,,,,,,,,,,,,,,,,,,,,,,,,,,,,
,,60ee0205933c5e01fb46bdeb,2024-02-22_03h25.16.960,kallum_motion_pilot,2023.2.2,Win32,144.9275362,60ee0205933c5e01fb46bdeb,65d6bb0e977760de756971f7,65d6be8fd2fb402f9170e84f,0.0277,0.0277,0,52,52,129,1,fiveseven,,,,,,,,,,,,,,,,,,,,,,,,,,,,,,,,,,,,,,,,,,,,,,,,,,,,,,,,,,,,,,,,,,,,,,,,,,,,,,,,,,,,,,,,,,,,,,,,,,,,,,,,,,,,,,,,,,,,,,,,,,,,,,,,,,,,,,,,,
,,60ee0205933c5e01fb46bdeb,2024-02-22_03h25.16.960,kallum_motion_pilot,2023.2.2,Win32,144.9275362,60ee0205933c5e01fb46bdeb,65d6bb0e977760de756971f7,65d6be8fd2fb402f9170e84f,0.0278,0.0278,0,53,53,147,1,sixeight,,,,,,,,,,,,,,,,,,,,,,,,,,,,,,,,,,,,,,,,,,,,,,,,,,,,,,,,,,,,,,,,,,,,,,,,,,,,,,,,,,,,,,,,,,,,,,,,,,,,,,,,,,,,,,,,,,,,,,,,,,,,,,,,,,,,,,,,,
,,60ee0205933c5e01fb46bdeb,2024-02-22_03h25.16.960,kallum_motion_pilot,2023.2.2,Win32,144.9275362,60ee0205933c5e01fb46bdeb,65d6bb0e977760de756971f7,65d6be8fd2fb402f9170e84f,0.0278,0.0279,0,54,54,148,1,sevenfive,,,,,,,,,,,,,,,,,,,,,,,,,,,,,,,,,,,,,,,,,,,,,,,,,,,,,,,,,,,,,,,,,,,,,,,,,,,,,,,,,,,,,,,,,,,,,,,,,,,,,,,,,,,,,,,,,,,,,,,,,,,,,,,,,,,,,,,,,
,,60ee0205933c5e01fb46bdeb,2024-02-22_03h25.16.960,kallum_motion_pilot,2023.2.2,Win32,144.9275362,60ee0205933c5e01fb46bdeb,65d6bb0e977760de756971f7,65d6be8fd2fb402f9170e84f,0.0279,0.028,0,55,55,36,1,threeone,,,,,,,,,,,,,,,,,,,,,,,,,,,,,,,,,,,,,,,,,,,,,,,,,,,,,,,,,,,,,,,,,,,,,,,,,,,,,,,,,,,,,,,,,,,,,,,,,,,,,,,,,,,,,,,,,,,,,,,,,,,,,,,,,,,,,,,,,
,,60ee0205933c5e01fb46bdeb,2024-02-22_03h25.16.960,kallum_motion_pilot,2023.2.2,Win32,144.9275362,60ee0205933c5e01fb46bdeb,65d6bb0e977760de756971f7,65d6be8fd2fb402f9170e84f,0.028,0.028,0,56,56,80,1,fivesix,,,,,,,,,,,,,,,,,,,,,,,,,,,,,,,,,,,,,,,,,,,,,,,,,,,,,,,,,,,,,,,,,,,,,,,,,,,,,,,,,,,,,,,,,,,,,,,,,,,,,,,,,,,,,,,,,,,,,,,,,,,,,,,,,,,,,,,,,
,,60ee0205933c5e01fb46bdeb,2024-02-22_03h25.16.960,kallum_motion_pilot,2023.2.2,Win32,144.9275362,60ee0205933c5e01fb46bdeb,65d6bb0e977760de756971f7,65d6be8fd2fb402f9170e84f,0.0281,0.0283,0,57,57,34,1,twoone,,,,,,,,,,,,,,,,,,,,,,,,,,,,,,,,,,,,,,,,,,,,,,,,,,,,,,,,,,,,,,,,,,,,,,,,,,,,,,,,,,,,,,,,,,,,,,,,,,,,,,,,,,,,,,,,,,,,,,,,,,,,,,,,,,,,,,,,,
,,60ee0205933c5e01fb46bdeb,2024-02-22_03h25.16.960,kallum_motion_pilot,2023.2.2,Win32,144.9275362,60ee0205933c5e01fb46bdeb,65d6bb0e977760de756971f7,65d6be8fd2fb402f9170e84f,0.0284,0.0284,0,58,58,84,1,sevenfive,,,,,,,,,,,,,,,,,,,,,,,,,,,,,,,,,,,,,,,,,,,,,,,,,,,,,,,,,,,,,,,,,,,,,,,,,,,,,,,,,,,,,,,,,,,,,,,,,,,,,,,,,,,,,,,,,,,,,,,,,,,,,,,,,,,,,,,,,
,,60ee0205933c5e01fb46bdeb,2024-02-22_03h25.16.960,kallum_motion_pilot,2023.2.2,Win32,144.9275362,60ee0205933c5e01fb46bdeb,65d6bb0e977760de756971f7,65d6be8fd2fb402f9170e84f,0.0285,0.0285,0,59,59,141,1,seveneight,,,,,,,,,,,,,,,,,,,,,,,,,,,,,,,,,,,,,,,,,,,,,,,,,,,,,,,,,,,,,,,,,,,,,,,,,,,,,,,,,,,,,,,,,,,,,,,,,,,,,,,,,,,,,,,,,,,,,,,,,,,,,,,,,,,,,,,,,
,,60ee0205933c5e01fb46bdeb,2024-02-22_03h25.16.960,kallum_motion_pilot,2023.2.2,Win32,144.9275362,60ee0205933c5e01fb46bdeb,65d6bb0e977760de756971f7,65d6be8fd2fb402f9170e84f,0.0287,0.0288,0,60,60,96,1,fivesix,,,,,,,,,,,,,,,,,,,,,,,,,,,,,,,,,,,,,,,,,,,,,,,,,,,,,,,,,,,,,,,,,,,,,,,,,,,,,,,,,,,,,,,,,,,,,,,,,,,,,,,,,,,,,,,,,,,,,,,,,,,,,,,,,,,,,,,,,
,,60ee0205933c5e01fb46bdeb,2024-02-22_03h25.16.960,kallum_motion_pilot,2023.2.2,Win32,144.9275362,60ee0205933c5e01fb46bdeb,65d6bb0e977760de756971f7,65d6be8fd2fb402f9170e84f,0.0289,0.0289,0,61,61,75,1,twofour,,,,,,,,,,,,,,,,,,,,,,,,,,,,,,,,,,,,,,,,,,,,,,,,,,,,,,,,,,,,,,,,,,,,,,,,,,,,,,,,,,,,,,,,,,,,,,,,,,,,,,,,,,,,,,,,,,,,,,,,,,,,,,,,,,,,,,,,,
,,60ee0205933c5e01fb46bdeb,2024-02-22_03h25.16.960,kallum_motion_pilot,2023.2.2,Win32,144.9275362,60ee0205933c5e01fb46bdeb,65d6bb0e977760de756971f7,65d6be8fd2fb402f9170e84f,0.0292,0.0292,0,62,62,38,1,fourtwo,,,,,,,,,,,,,,,,,,,,,,,,,,,,,,,,,,,,,,,,,,,,,,,,,,,,,,,,,,,,,,,,,,,,,,,,,,,,,,,,,,,,,,,,,,,,,,,,,,,,,,,,,,,,,,,,,,,,,,,,,,,,,,,,,,,,,,,,,
,,60ee0205933c5e01fb46bdeb,2024-02-22_03h25.16.960,kallum_motion_pilot,2023.2.2,Win32,144.9275362,60ee0205933c5e01fb46bdeb,65d6bb0e977760de756971f7,65d6be8fd2fb402f9170e84f,0.0293,0.0294,0,63,63,83,1,sixeight,,,,,,,,,,,,,,,,,,,,,,,,,,,,,,,,,,,,,,,,,,,,,,,,,,,,,,,,,,,,,,,,,,,,,,,,,,,,,,,,,,,,,,,,,,,,,,,,,,,,,,,,,,,,,,,,,,,,,,,,,,,,,,,,,,,,,,,,,
,,60ee0205933c5e01fb46bdeb,2024-02-22_03h25.16.960,kallum_motion_pilot,2023.2.2,Win32,144.9275362,60ee0205933c5e01fb46bdeb,65d6bb0e977760de756971f7,65d6be8fd2fb402f9170e84f,0.0295,0.0295,0,64,64,159,1,eightseven,,,,,,,,,,,,,,,,,,,,,,,,,,,,,,,,,,,,,,,,,,,,,,,,,,,,,,,,,,,,,,,,,,,,,,,,,,,,,,,,,,,,,,,,,,,,,,,,,,,,,,,,,,,,,,,,,,,,,,,,,,,,,,,,,,,,,,,,,
,,60ee0205933c5e01fb46bdeb,2024-02-22_03h25.16.960,kallum_motion_pilot,2023.2.2,Win32,144.9275362,60ee0205933c5e01fb46bdeb,65d6bb0e977760de756971f7,65d6be8fd2fb402f9170e84f,0.0295,0.0295,0,65,65,4,1,threeone,,,,,,,,,,,,,,,,,,,,,,,,,,,,,,,,,,,,,,,,,,,,,,,,,,,,,,,,,,,,,,,,,,,,,,,,,,,,,,,,,,,,,,,,,,,,,,,,,,,,,,,,,,,,,,,,,,,,,,,,,,,,,,,,,,,,,,,,,
,,60ee0205933c5e01fb46bdeb,2024-02-22_03h25.16.960,kallum_motion_pilot,2023.2.2,Win32,144.9275362,60ee0205933c5e01fb46bdeb,65d6bb0e977760de756971f7,65d6be8fd2fb402f9170e84f,0.0296,0.0296,0,66,66,152,1,fivesix,,,,,,,,,,,,,,,,,,,,,,,,,,,,,,,,,,,,,,,,,,,,,,,,,,,,,,,,,,,,,,,,,,,,,,,,,,,,,,,,,,,,,,,,,,,,,,,,,,,,,,,,,,,,,,,,,,,,,,,,,,,,,,,,,,,,,,,,,
,,60ee0205933c5e01fb46bdeb,2024-02-22_03h25.16.960,kallum_motion_pilot,2023.2.2,Win32,144.9275362,60ee0205933c5e01fb46bdeb,65d6bb0e977760de756971f7,65d6be8fd2fb402f9170e84f,0.0297,0.0297,0,67,67,107,1,sixeight,,,,,,,,,,,,,,,,,,,,,,,,,,,,,,,,,,,,,,,,,,,,,,,,,,,,,,,,,,,,,,,,,,,,,,,,,,,,,,,,,,,,,,,,,,,,,,,,,,,,,,,,,,,,,,,,,,,,,,,,,,,,,,,,,,,,,,,,,
,,60ee0205933c5e01fb46bdeb,2024-02-22_03h25.16.960,kallum_motion_pilot,2023.2.2,Win32,144.9275362,60ee0205933c5e01fb46bdeb,65d6bb0e977760de756971f7,65d6be8fd2fb402f9170e84f,0.0299,0.0299,0,68,68,151,1,eightseven,,,,,,,,,,,,,,,,,,,,,,,,,,,,,,,,,,,,,,,,,,,,,,,,,,,,,,,,,,,,,,,,,,,,,,,,,,,,,,,,,,,,,,,,,,,,,,,,,,,,,,,,,,,,,,,,,,,,,,,,,,,,,,,,,,,,,,,,,
,,60ee0205933c5e01fb46bdeb,2024-02-22_03h25.16.960,kallum_motion_pilot,2023.2.2,Win32,144.9275362,60ee0205933c5e01fb46bdeb,65d6bb0e977760de756971f7,65d6be8fd2fb402f9170e84f,0.03,0.03,0,69,69,90,1,sixfive,,,,,,,,,,,,,,,,,,,,,,,,,,,,,,,,,,,,,,,,,,,,,,,,,,,,,,,,,,,,,,,,,,,,,,,,,,,,,,,,,,,,,,,,,,,,,,,,,,,,,,,,,,,,,,,,,,,,,,,,,,,,,,,,,,,,,,,,,
,,60ee0205933c5e01fb46bdeb,2024-02-22_03h25.16.960,kallum_motion_pilot,2023.2.2,Win32,144.9275362,60ee0205933c5e01fb46bdeb,65d6bb0e977760de756971f7,65d6be8fd2fb402f9170e84f,0.0302,0.0302,0,70,70,64,1,onetwo,,,,,,,,,,,,,,,,,,,,,,,,,,,,,,,,,,,,,,,,,,,,,,,,,,,,,,,,,,,,,,,,,,,,,,,,,,,,,,,,,,,,,,,,,,,,,,,,,,,,,,,,,,,,,,,,,,,,,,,,,,,,,,,,,,,,,,,,,
,,60ee0205933c5e01fb46bdeb,2024-02-22_03h25.16.960,kallum_motion_pilot,2023.2.2,Win32,144.9275362,60ee0205933c5e01fb46bdeb,65d6bb0e977760de756971f7,65d6be8fd2fb402f9170e84f,0.0302,0.0303,0,71,71,47,1,fourthree,,,,,,,,,,,,,,,,,,,,,,,,,,,,,,,,,,,,,,,,,,,,,,,,,,,,,,,,,,,,,,,,,,,,,,,,,,,,,,,,,,,,,,,,,,,,,,,,,,,,,,,,,,,,,,,,,,,,,,,,,,,,,,,,,,,,,,,,,
,,60ee0205933c5e01fb46bdeb,2024-02-22_03h25.16.960,kallum_motion_pilot,2023.2.2,Win32,144.9275362,60ee0205933c5e01fb46bdeb,65d6bb0e977760de756971f7,65d6be8fd2fb402f9170e84f,0.0304,0.0304,0,72,72,9,1,onethree,,,,,,,,,,,,,,,,,,,,,,,,,,,,,,,,,,,,,,,,,,,,,,,,,,,,,,,,,,,,,,,,,,,,,,,,,,,,,,,,,,,,,,,,,,,,,,,,,,,,,,,,,,,,,,,,,,,,,,,,,,,,,,,,,,,,,,,,,
,,60ee0205933c5e01fb46bdeb,2024-02-22_03h25.16.960,kallum_motion_pilot,2023.2.2,Win32,144.9275362,60ee0205933c5e01fb46bdeb,65d6bb0e977760de756971f7,65d6be8fd2fb402f9170e84f,0.0306,0.0306,0,73,73,94,1,eightsix,,,,,,,,,,,,,,,,,,,,,,,,,,,,,,,,,,,,,,,,,,,,,,,,,,,,,,,,,,,,,,,,,,,,,,,,,,,,,,,,,,,,,,,,,,,,,,,,,,,,,,,,,,,,,,,,,,,,,,,,,,,,,,,,,,,,,,,,,
,,60ee0205933c5e01fb46bdeb,2024-02-22_03h25.16.960,kallum_motion_pilot,2023.2.2,Win32,144.9275362,60ee0205933c5e01fb46bdeb,65d6bb0e977760de756971f7,65d6be8fd2fb402f9170e84f,0.0306,0.0307,0,74,74,57,1,onethree,,,,,,,,,,,,,,,,,,,,,,,,,,,,,,,,,,,,,,,,,,,,,,,,,,,,,,,,,,,,,,,,,,,,,,,,,,,,,,,,,,,,,,,,,,,,,,,,,,,,,,,,,,,,,,,,,,,,,,,,,,,,,,,,,,,,,,,,,
,,60ee0205933c5e01fb46bdeb,2024-02-22_03h25.16.960,kallum_motion_pilot,2023.2.2,Win32,144.9275362,60ee0205933c5e01fb46bdeb,65d6bb0e977760de756971f7,65d6be8fd2fb402f9170e84f,0.0308,0.0308,0,75,75,145,1,fiveseven,,,,,,,,,,,,,,,,,,,,,,,,,,,,,,,,,,,,,,,,,,,,,,,,,,,,,,,,,,,,,,,,,,,,,,,,,,,,,,,,,,,,,,,,,,,,,,,,,,,,,,,,,,,,,,,,,,,,,,,,,,,,,,,,,,,,,,,,,
,,60ee0205933c5e01fb46bdeb,2024-02-22_03h25.16.960,kallum_motion_pilot,2023.2.2,Win32,144.9275362,60ee0205933c5e01fb46bdeb,65d6bb0e977760de756971f7,65d6be8fd2fb402f9170e84f,0.0308,0.0308,0,76,76,11,1,twofour,,,,,,,,,,,,,,,,,,,,,,,,,,,,,,,,,,,,,,,,,,,,,,,,,,,,,,,,,,,,,,,,,,,,,,,,,,,,,,,,,,,,,,,,,,,,,,,,,,,,,,,,,,,,,,,,,,,,,,,,,,,,,,,,,,,,,,,,,
,,60ee0205933c5e01fb46bdeb,2024-02-22_03h25.16.960,kallum_motion_pilot,2023.2.2,Win32,144.9275362,60ee0205933c5e01fb46bdeb,65d6bb0e977760de756971f7,65d6be8fd2fb402f9170e84f,0.0309,0.0309,0,77,77,77,1,threefour,,,,,,,,,,,,,,,,,,,,,,,,,,,,,,,,,,,,,,,,,,,,,,,,,,,,,,,,,,,,,,,,,,,,,,,,,,,,,,,,,,,,,,,,,,,,,,,,,,,,,,,,,,,,,,,,,,,,,,,,,,,,,,,,,,,,,,,,,
,,60ee0205933c5e01fb46bdeb,2024-02-22_03h25.16.960,kallum_motion_pilot,2023.2.2,Win32,144.9275362,60ee0205933c5e01fb46bdeb,65d6bb0e977760de756971f7,65d6be8fd2fb402f9170e84f,0.031,0.0311,0,78,78,27,1,twofour,,,,,,,,,,,,,,,,,,,,,,,,,,,,,,,,,,,,,,,,,,,,,,,,,,,,,,,,,,,,,,,,,,,,,,,,,,,,,,,,,,,,,,,,,,,,,,,,,,,,,,,,,,,,,,,,,,,,,,,,,,,,,,,,,,,,,,,,,
,,60ee0205933c5e01fb46bdeb,2024-02-22_03h25.16.960,kallum_motion_pilot,2023.2.2,Win32,144.9275362,60ee0205933c5e01fb46bdeb,65d6bb0e977760de756971f7,65d6be8fd2fb402f9170e84f,0.0311,0.0311,0,79,79,113,1,fiveseven,,,,,,,,,,,,,,,,,,,,,,,,,,,,,,,,,,,,,,,,,,,,,,,,,,,,,,,,,,,,,,,,,,,,,,,,,,,,,,,,,,,,,,,,,,,,,,,,,,,,,,,,,,,,,,,,,,,,,,,,,,,,,,,,,,,,,,,,,
,,60ee0205933c5e01fb46bdeb,2024-02-22_03h25.16.960,kallum_motion_pilot,2023.2.2,Win32,144.9275362,60ee0205933c5e01fb46bdeb,65d6bb0e977760de756971f7,65d6be8fd2fb402f9170e84f,0.0312,0.0312,0,80,80,154,1,sixfive,,,,,,,,,,,,,,,,,,,,,,,,,,,,,,,,,,,,,,,,,,,,,,,,,,,,,,,,,,,,,,,,,,,,,,,,,,,,,,,,,,,,,,,,,,,,,,,,,,,,,,,,,,,,,,,,,,,,,,,,,,,,,,,,,,,,,,,,,
,,60ee0205933c5e01fb46bdeb,2024-02-22_03h25.16.960,kallum_motion_pilot,2023.2.2,Win32,144.9275362,60ee0205933c5e01fb46bdeb,65d6bb0e977760de756971f7,65d6be8fd2fb402f9170e84f,0.0312,0.0313,0,81,81,92,1,sevenfive,,,,,,,,,,,,,,,,,,,,,,,,,,,,,,,,,,,,,,,,,,,,,,,,,,,,,,,,,,,,,,,,,,,,,,,,,,,,,,,,,,,,,,,,,,,,,,,,,,,,,,,,,,,,,,,,,,,,,,,,,,,,,,,,,,,,,,,,,
,,60ee0205933c5e01fb46bdeb,2024-02-22_03h25.16.960,kallum_motion_pilot,2023.2.2,Win32,144.9275362,60ee0205933c5e01fb46bdeb,65d6bb0e977760de756971f7,65d6be8fd2fb402f9170e84f,0.0314,0.0314,0,82,82,43,1,twofour,,,,,,,,,,,,,,,,,,,,,,,,,,,,,,,,,,,,,,,,,,,,,,,,,,,,,,,,,,,,,,,,,,,,,,,,,,,,,,,,,,,,,,,,,,,,,,,,,,,,,,,,,,,,,,,,,,,,,,,,,,,,,,,,,,,,,,,,,
,,60ee0205933c5e01fb46bdeb,2024-02-22_03h25.16.960,kallum_motion_pilot,2023.2.2,Win32,144.9275362,60ee0205933c5e01fb46bdeb,65d6bb0e977760de756971f7,65d6be8fd2fb402f9170e84f,0.0315,0.0315,0,83,83,108,1,sevenfive,,,,,,,,,,,,,,,,,,,,,,,,,,,,,,,,,,,,,,,,,,,,,,,,,,,,,,,,,,,,,,,,,,,,,,,,,,,,,,,,,,,,,,,,,,,,,,,,,,,,,,,,,,,,,,,,,,,,,,,,,,,,,,,,,,,,,,,,,
,,60ee0205933c5e01fb46bdeb,2024-02-22_03h25.16.960,kallum_motion_pilot,2023.2.2,Win32,144.9275362,60ee0205933c5e01fb46bdeb,65d6bb0e977760de756971f7,65d6be8fd2fb402f9170e84f,0.0315,0.0316,0,84,84,124,1,sevenfive,,,,,,,,,,,,,,,,,,,,,,,,,,,,,,,,,,,,,,,,,,,,,,,,,,,,,,,,,,,,,,,,,,,,,,,,,,,,,,,,,,,,,,,,,,,,,,,,,,,,,,,,,,,,,,,,,,,,,,,,,,,,,,,,,,,,,,,,,
,,60ee0205933c5e01fb46bdeb,2024-02-22_03h25.16.960,kallum_motion_pilot,2023.2.2,Win32,144.9275362,60ee0205933c5e01fb46bdeb,65d6bb0e977760de756971f7,65d6be8fd2fb402f9170e84f,0.0316,0.0317,0,85,85,136,1,fivesix,,,,,,,,,,,,,,,,,,,,,,,,,,,,,,,,,,,,,,,,,,,,,,,,,,,,,,,,,,,,,,,,,,,,,,,,,,,,,,,,,,,,,,,,,,,,,,,,,,,,,,,,,,,,,,,,,,,,,,,,,,,,,,,,,,,,,,,,,
,,60ee0205933c5e01fb46bdeb,2024-02-22_03h25.16.960,kallum_motion_pilot,2023.2.2,Win32,144.9275362,60ee0205933c5e01fb46bdeb,65d6bb0e977760de756971f7,65d6be8fd2fb402f9170e84f,0.0317,0.0318,0,86,86,156,1,sevenfive,,,,,,,,,,,,,,,,,,,,,,,,,,,,,,,,,,,,,,,,,,,,,,,,,,,,,,,,,,,,,,,,,,,,,,,,,,,,,,,,,,,,,,,,,,,,,,,,,,,,,,,,,,,,,,,,,,,,,,,,,,,,,,,,,,,,,,,,,
,,60ee0205933c5e01fb46bdeb,2024-02-22_03h25.16.960,kallum_motion_pilot,2023.2.2,Win32,144.9275362,60ee0205933c5e01fb46bdeb,65d6bb0e977760de756971f7,65d6be8fd2fb402f9170e84f,0.0318,0.0318,0,87,87,31,1,fourthree,,,,,,,,,,,,,,,,,,,,,,,,,,,,,,,,,,,,,,,,,,,,,,,,,,,,,,,,,,,,,,,,,,,,,,,,,,,,,,,,,,,,,,,,,,,,,,,,,,,,,,,,,,,,,,,,,,,,,,,,,,,,,,,,,,,,,,,,,
,,60ee0205933c5e01fb46bdeb,2024-02-22_03h25.16.960,kallum_motion_pilot,2023.2.2,Win32,144.9275362,60ee0205933c5e01fb46bdeb,65d6bb0e977760de756971f7,65d6be8fd2fb402f9170e84f,0.0319,0.0319,0,88,88,21,1,threefour,,,,,,,,,,,,,,,,,,,,,,,,,,,,,,,,,,,,,,,,,,,,,,,,,,,,,,,,,,,,,,,,,,,,,,,,,,,,,,,,,,,,,,,,,,,,,,,,,,,,,,,,,,,,,,,,,,,,,,,,,,,,,,,,,,,,,,,,,
,,60ee0205933c5e01fb46bdeb,2024-02-22_03h25.16.960,kallum_motion_pilot,2023.2.2,Win32,144.9275362,60ee0205933c5e01fb46bdeb,65d6bb0e977760de756971f7,65d6be8fd2fb402f9170e84f,0.032,0.032,0,89,89,93,1,seveneight,,,,,,,,,,,,,,,,,,,,,,,,,,,,,,,,,,,,,,,,,,,,,,,,,,,,,,,,,,,,,,,,,,,,,,,,,,,,,,,,,,,,,,,,,,,,,,,,,,,,,,,,,,,,,,,,,,,,,,,,,,,,,,,,,,,,,,,,,
,,60ee0205933c5e01fb46bdeb,2024-02-22_03h25.16.960,kallum_motion_pilot,2023.2.2,Win32,144.9275362,60ee0205933c5e01fb46bdeb,65d6bb0e977760de756971f7,65d6be8fd2fb402f9170e84f,0.0321,0.0321,0,90,90,70,1,fourtwo,,,,,,,,,,,,,,,,,,,,,,,,,,,,,,,,,,,,,,,,,,,,,,,,,,,,,,,,,,,,,,,,,,,,,,,,,,,,,,,,,,,,,,,,,,,,,,,,,,,,,,,,,,,,,,,,,,,,,,,,,,,,,,,,,,,,,,,,,
,,60ee0205933c5e01fb46bdeb,2024-02-22_03h25.16.960,kallum_motion_pilot,2023.2.2,Win32,144.9275362,60ee0205933c5e01fb46bdeb,65d6bb0e977760de756971f7,65d6be8fd2fb402f9170e84f,0.0322,0.0322,0,91,91,22,1,fourtwo,,,,,,,,,,,,,,,,,,,,,,,,,,,,,,,,,,,,,,,,,,,,,,,,,,,,,,,,,,,,,,,,,,,,,,,,,,,,,,,,,,,,,,,,,,,,,,,,,,,,,,,,,,,,,,,,,,,,,,,,,,,,,,,,,,,,,,,,,
,,60ee0205933c5e01fb46bdeb,2024-02-22_03h25.16.960,kallum_motion_pilot,2023.2.2,Win32,144.9275362,60ee0205933c5e01fb46bdeb,65d6bb0e977760de756971f7,65d6be8fd2fb402f9170e84f,0.0322,0.0323,0,92,92,139,1,sixeight,,,,,,,,,,,,,,,,,,,,,,,,,,,,,,,,,,,,,,,,,,,,,,,,,,,,,,,,,,,,,,,,,,,,,,,,,,,,,,,,,,,,,,,,,,,,,,,,,,,,,,,,,,,,,,,,,,,,,,,,,,,,,,,,,,,,,,,,,
,,60ee0205933c5e01fb46bdeb,2024-02-22_03h25.16.960,kallum_motion_pilot,2023.2.2,Win32,144.9275362,60ee0205933c5e01fb46bdeb,65d6bb0e977760de756971f7,65d6be8fd2fb402f9170e84f,0.0323,0.0324,0,93,93,23,1,fourthree,,,,,,,,,,,,,,,,,,,,,,,,,,,,,,,,,,,,,,,,,,,,,,,,,,,,,,,,,,,,,,,,,,,,,,,,,,,,,,,,,,,,,,,,,,,,,,,,,,,,,,,,,,,,,,,,,,,,,,,,,,,,,,,,,,,,,,,,,
,,60ee0205933c5e01fb46bdeb,2024-02-22_03h25.16.960,kallum_motion_pilot,2023.2.2,Win32,144.9275362,60ee0205933c5e01fb46bdeb,65d6bb0e977760de756971f7,65d6be8fd2fb402f9170e84f,0.0324,0.0325,0,94,94,25,1,onethree,,,,,,,,,,,,,,,,,,,,,,,,,,,,,,,,,,,,,,,,,,,,,,,,,,,,,,,,,,,,,,,,,,,,,,,,,,,,,,,,,,,,,,,,,,,,,,,,,,,,,,,,,,,,,,,,,,,,,,,,,,,,,,,,,,,,,,,,,
,,60ee0205933c5e01fb46bdeb,2024-02-22_03h25.16.960,kallum_motion_pilot,2023.2.2,Win32,144.9275362,60ee0205933c5e01fb46bdeb,65d6bb0e977760de756971f7,65d6be8fd2fb402f9170e84f,0.0325,0.0325,0,95,95,76,1,threeone,,,,,,,,,,,,,,,,,,,,,,,,,,,,,,,,,,,,,,,,,,,,,,,,,,,,,,,,,,,,,,,,,,,,,,,,,,,,,,,,,,,,,,,,,,,,,,,,,,,,,,,,,,,,,,,,,,,,,,,,,,,,,,,,,,,,,,,,,
,,60ee0205933c5e01fb46bdeb,2024-02-22_03h25.16.960,kallum_motion_pilot,2023.2.2,Win32,144.9275362,60ee0205933c5e01fb46bdeb,65d6bb0e977760de756971f7,65d6be8fd2fb402f9170e84f,0.0325,0.0326,0,96,96,67,1,twofour,,,,,,,,,,,,,,,,,,,,,,,,,,,,,,,,,,,,,,,,,,,,,,,,,,,,,,,,,,,,,,,,,,,,,,,,,,,,,,,,,,,,,,,,,,,,,,,,,,,,,,,,,,,,,,,,,,,,,,,,,,,,,,,,,,,,,,,,,
,,60ee0205933c5e01fb46bdeb,2024-02-22_03h25.16.960,kallum_motion_pilot,2023.2.2,Win32,144.9275362,60ee0205933c5e01fb46bdeb,65d6bb0e977760de756971f7,65d6be8fd2fb402f9170e84f,0.0326,0.0327,0,97,97,123,1,sixeight,,,,,,,,,,,,,,,,,,,,,,,,,,,,,,,,,,,,,,,,,,,,,,,,,,,,,,,,,,,,,,,,,,,,,,,,,,,,,,,,,,,,,,,,,,,,,,,,,,,,,,,,,,,,,,,,,,,,,,,,,,,,,,,,,,,,,,,,,
,,60ee0205933c5e01fb46bdeb,2024-02-22_03h25.16.960,kallum_motion_pilot,2023.2.2,Win32,144.9275362,60ee0205933c5e01fb46bdeb,65d6bb0e977760de756971f7,65d6be8fd2fb402f9170e84f,0.0327,0.0328,0,98,98,7,1,fourthree,,,,,,,,,,,,,,,,,,,,,,,,,,,,,,,,,,,,,,,,,,,,,,,,,,,,,,,,,,,,,,,,,,,,,,,,,,,,,,,,,,,,,,,,,,,,,,,,,,,,,,,,,,,,,,,,,,,,,,,,,,,,,,,,,,,,,,,,,
,,60ee0205933c5e01fb46bdeb,2024-02-22_03h25.16.960,kallum_motion_pilot,2023.2.2,Win32,144.9275362,60ee0205933c5e01fb46bdeb,65d6bb0e977760de756971f7,65d6be8fd2fb402f9170e84f,0.0329,0.0329,0,99,99,114,1,sixfive,,,,,,,,,,,,,,,,,,,,,,,,,,,,,,,,,,,,,,,,,,,,,,,,,,,,,,,,,,,,,,,,,,,,,,,,,,,,,,,,,,,,,,,,,,,,,,,,,,,,,,,,,,,,,,,,,,,,,,,,,,,,,,,,,,,,,,,,,
,,60ee0205933c5e01fb46bdeb,2024-02-22_03h25.16.960,kallum_motion_pilot,2023.2.2,Win32,144.9275362,60ee0205933c5e01fb46bdeb,65d6bb0e977760de756971f7,65d6be8fd2fb402f9170e84f,0.033,0.0331,0,100,100,125,1,seveneight,,,,,,,,,,,,,,,,,,,,,,,,,,,,,,,,,,,,,,,,,,,,,,,,,,,,,,,,,,,,,,,,,,,,,,,,,,,,,,,,,,,,,,,,,,,,,,,,,,,,,,,,,,,,,,,,,,,,,,,,,,,,,,,,,,,,,,,,,
,,60ee0205933c5e01fb46bdeb,2024-02-22_03h25.16.960,kallum_motion_pilot,2023.2.2,Win32,144.9275362,60ee0205933c5e01fb46bdeb,65d6bb0e977760de756971f7,65d6be8fd2fb402f9170e84f,0.0331,0.0331,0,101,101,2,1,twoone,,,,,,,,,,,,,,,,,,,,,,,,,,,,,,,,,,,,,,,,,,,,,,,,,,,,,,,,,,,,,,,,,,,,,,,,,,,,,,,,,,,,,,,,,,,,,,,,,,,,,,,,,,,,,,,,,,,,,,,,,,,,,,,,,,,,,,,,,
,,60ee0205933c5e01fb46bdeb,2024-02-22_03h25.16.960,kallum_motion_pilot,2023.2.2,Win32,144.9275362,60ee0205933c5e01fb46bdeb,65d6bb0e977760de756971f7,65d6be8fd2fb402f9170e84f,0.0332,0.0332,0,102,102,0,1,onetwo,,,,,,,,,,,,,,,,,,,,,,,,,,,,,,,,,,,,,,,,,,,,,,,,,,,,,,,,,,,,,,,,,,,,,,,,,,,,,,,,,,,,,,,,,,,,,,,,,,,,,,,,,,,,,,,,,,,,,,,,,,,,,,,,,,,,,,,,,
,,60ee0205933c5e01fb46bdeb,2024-02-22_03h25.16.960,kallum_motion_pilot,2023.2.2,Win32,144.9275362,60ee0205933c5e01fb46bdeb,65d6bb0e977760de756971f7,65d6be8fd2fb402f9170e84f,0.0333,0.0333,0,103,103,45,1,threefour,,,,,,,,,,,,,,,,,,,,,,,,,,,,,,,,,,,,,,,,,,,,,,,,,,,,,,,,,,,,,,,,,,,,,,,,,,,,,,,,,,,,,,,,,,,,,,,,,,,,,,,,,,,,,,,,,,,,,,,,,,,,,,,,,,,,,,,,,
,,60ee0205933c5e01fb46bdeb,2024-02-22_03h25.16.960,kallum_motion_pilot,2023.2.2,Win32,144.9275362,60ee0205933c5e01fb46bdeb,65d6bb0e977760de756971f7,65d6be8fd2fb402f9170e84f,0.0334,0.0335,0,104,104,40,1,onetwo,,,,,,,,,,,,,,,,,,,,,,,,,,,,,,,,,,,,,,,,,,,,,,,,,,,,,,,,,,,,,,,,,,,,,,,,,,,,,,,,,,,,,,,,,,,,,,,,,,,,,,,,,,,,,,,,,,,,,,,,,,,,,,,,,,,,,,,,,
,,60ee0205933c5e01fb46bdeb,2024-02-22_03h25.16.960,kallum_motion_pilot,2023.2.2,Win32,144.9275362,60ee0205933c5e01fb46bdeb,65d6bb0e977760de756971f7,65d6be8fd2fb402f9170e84f,0.0335,0.0335,0,105,105,117,1,seveneight,,,,,,,,,,,,,,,,,,,,,,,,,,,,,,,,,,,,,,,,,,,,,,,,,,,,,,,,,,,,,,,,,,,,,,,,,,,,,,,,,,,,,,,,,,,,,,,,,,,,,,,,,,,,,,,,,,,,,,,,,,,,,,,,,,,,,,,,,
,,60ee0205933c5e01fb46bdeb,2024-02-22_03h25.16.960,kallum_motion_pilot,2023.2.2,Win32,144.9275362,60ee0205933c5e01fb46bdeb,65d6bb0e977760de756971f7,65d6be8fd2fb402f9170e84f,0.0336,0.0336,0,106,106,135,1,eightseven,,,,,,,,,,,,,,,,,,,,,,,,,,,,,,,,,,,,,,,,,,,,,,,,,,,,,,,,,,,,,,,,,,,,,,,,,,,,,,,,,,,,,,,,,,,,,,,,,,,,,,,,,,,,,,,,,,,,,,,,,,,,,,,,,,,,,,,,,
,,60ee0205933c5e01fb46bdeb,2024-02-22_03h25.16.960,kallum_motion_pilot,2023.2.2,Win32,144.9275362,60ee0205933c5e01fb46bdeb,65d6bb0e977760de756971f7,65d6be8fd2fb402f9170e84f,0.0336,0.0337,0,107,107,30,1,fourtwo,,,,,,,,,,,,,,,,,,,,,,,,,,,,,,,,,,,,,,,,,,,,,,,,,,,,,,,,,,,,,,,,,,,,,,,,,,,,,,,,,,,,,,,,,,,,,,,,,,,,,,,,,,,,,,,,,,,,,,,,,,,,,,,,,,,,,,,,,
,,60ee0205933c5e01fb46bdeb,2024-02-22_03h25.16.960,kallum_motion_pilot,2023.2.2,Win32,144.9275362,60ee0205933c5e01fb46bdeb,65d6bb0e977760de756971f7,65d6be8fd2fb402f9170e84f,0.0337,0.0338,0,108,108,138,1,sixfive,,,,,,,,,,,,,,,,,,,,,,,,,,,,,,,,,,,,,,,,,,,,,,,,,,,,,,,,,,,,,,,,,,,,,,,,,,,,,,,,,,,,,,,,,,,,,,,,,,,,,,,,,,,,,,,,,,,,,,,,,,,,,,,,,,,,,,,,,
,,60ee0205933c5e01fb46bdeb,2024-02-22_03h25.16.960,kallum_motion_pilot,2023.2.2,Win32,144.9275362,60ee0205933c5e01fb46bdeb,65d6bb0e977760de756971f7,65d6be8fd2fb402f9170e84f,0.0338,0.0338,0,109,109,62,1,fourtwo,,,,,,,,,,,,,,,,,,,,,,,,,,,,,,,,,,,,,,,,,,,,,,,,,,,,,,,,,,,,,,,,,,,,,,,,,,,,,,,,,,,,,,,,,,,,,,,,,,,,,,,,,,,,,,,,,,,,,,,,,,,,,,,,,,,,,,,,,
,,60ee0205933c5e01fb46bdeb,2024-02-22_03h25.16.960,kallum_motion_pilot,2023.2.2,Win32,144.9275362,60ee0205933c5e01fb46bdeb,65d6bb0e977760de756971f7,65d6be8fd2fb402f9170e84f,0.034,0.034,0,110,110,29,1,threefour,,,,,,,,,,,,,,,,,,,,,,,,,,,,,,,,,,,,,,,,,,,,,,,,,,,,,,,,,,,,,,,,,,,,,,,,,,,,,,,,,,,,,,,,,,,,,,,,,,,,,,,,,,,,,,,,,,,,,,,,,,,,,,,,,,,,,,,,,
,,60ee0205933c5e01fb46bdeb,2024-02-22_03h25.16.960,kallum_motion_pilot,2023.2.2,Win32,144.9275362,60ee0205933c5e01fb46bdeb,65d6bb0e977760de756971f7,65d6be8fd2fb402f9170e84f,0.0341,0.0341,0,111,111,133,1,seveneight,,,,,,,,,,,,,,,,,,,,,,,,,,,,,,,,,,,,,,,,,,,,,,,,,,,,,,,,,,,,,,,,,,,,,,,,,,,,,,,,,,,,,,,,,,,,,,,,,,,,,,,,,,,,,,,,,,,,,,,,,,,,,,,,,,,,,,,,,
,,60ee0205933c5e01fb46bdeb,2024-02-22_03h25.16.960,kallum_motion_pilot,2023.2.2,Win32,144.9275362,60ee0205933c5e01fb46bdeb,65d6bb0e977760de756971f7,65d6be8fd2fb402f9170e84f,0.0342,0.0343,0,112,112,72,1,onetwo,,,,,,,,,,,,,,,,,,,,,,,,,,,,,,,,,,,,,,,,,,,,,,,,,,,,,,,,,,,,,,,,,,,,,,,,,,,,,,,,,,,,,,,,,,,,,,,,,,,,,,,,,,,,,,,,,,,,,,,,,,,,,,,,,,,,,,,,,
,,60ee0205933c5e01fb46bdeb,2024-02-22_03h25.16.960,kallum_motion_pilot,2023.2.2,Win32,144.9275362,60ee0205933c5e01fb46bdeb,65d6bb0e977760de756971f7,65d6be8fd2fb402f9170e84f,0.0343,0.0343,0,113,113,17,1,onethree,,,,,,,,,,,,,,,,,,,,,,,,,,,,,,,,,,,,,,,,,,,,,,,,,,,,,,,,,,,,,,,,,,,,,,,,,,,,,,,,,,,,,,,,,,,,,,,,,,,,,,,,,,,,,,,,,,,,,,,,,,,,,,,,,,,,,,,,,
,,60ee0205933c5e01fb46bdeb,2024-02-22_03h25.16.960,kallum_motion_pilot,2023.2.2,Win32,144.9275362,60ee0205933c5e01fb46bdeb,65d6bb0e977760de756971f7,65d6be8fd2fb402f9170e84f,0.0344,0.0345,0,114,114,74,1,twoone,,,,,,,,,,,,,,,,,,,,,,,,,,,,,,,,,,,,,,,,,,,,,,,,,,,,,,,,,,,,,,,,,,,,,,,,,,,,,,,,,,,,,,,,,,,,,,,,,,,,,,,,,,,,,,,,,,,,,,,,,,,,,,,,,,,,,,,,,
,,60ee0205933c5e01fb46bdeb,2024-02-22_03h25.16.960,kallum_motion_pilot,2023.2.2,Win32,144.9275362,60ee0205933c5e01fb46bdeb,65d6bb0e977760de756971f7,65d6be8fd2fb402f9170e84f,0.0345,0.0346,0,115,115,6,1,fourtwo,,,,,,,,,,,,,,,,,,,,,,,,,,,,,,,,,,,,,,,,,,,,,,,,,,,,,,,,,,,,,,,,,,,,,,,,,,,,,,,,,,,,,,,,,,,,,,,,,,,,,,,,,,,,,,,,,,,,,,,,,,,,,,,,,,,,,,,,,
,,60ee0205933c5e01fb46bdeb,2024-02-22_03h25.16.960,kallum_motion_pilot,2023.2.2,Win32,144.9275362,60ee0205933c5e01fb46bdeb,65d6bb0e977760de756971f7,65d6be8fd2fb402f9170e84f,0.0346,0.0346,0,116,116,122,1,sixfive,,,,,,,,,,,,,,,,,,,,,,,,,,,,,,,,,,,,,,,,,,,,,,,,,,,,,,,,,,,,,,,,,,,,,,,,,,,,,,,,,,,,,,,,,,,,,,,,,,,,,,,,,,,,,,,,,,,,,,,,,,,,,,,,,,,,,,,,,
,,60ee0205933c5e01fb46bdeb,2024-02-22_03h25.16.960,kallum_motion_pilot,2023.2.2,Win32,144.9275362,60ee0205933c5e01fb46bdeb,65d6bb0e977760de756971f7,65d6be8fd2fb402f9170e84f,0.0347,0.0348,0,117,117,12,1,threeone,,,,,,,,,,,,,,,,,,,,,,,,,,,,,,,,,,,,,,,,,,,,,,,,,,,,,,,,,,,,,,,,,,,,,,,,,,,,,,,,,,,,,,,,,,,,,,,,,,,,,,,,,,,,,,,,,,,,,,,,,,,,,,,,,,,,,,,,,
,,60ee0205933c5e01fb46bdeb,2024-02-22_03h25.16.960,kallum_motion_pilot,2023.2.2,Win32,144.9275362,60ee0205933c5e01fb46bdeb,65d6bb0e977760de756971f7,65d6be8fd2fb402f9170e84f,0.0348,0.0348,0,118,118,102,1,eightsix,,,,,,,,,,,,,,,,,,,,,,,,,,,,,,,,,,,,,,,,,,,,,,,,,,,,,,,,,,,,,,,,,,,,,,,,,,,,,,,,,,,,,,,,,,,,,,,,,,,,,,,,,,,,,,,,,,,,,,,,,,,,,,,,,,,,,,,,,
,,60ee0205933c5e01fb46bdeb,2024-02-22_03h25.16.960,kallum_motion_pilot,2023.2.2,Win32,144.9275362,60ee0205933c5e01fb46bdeb,65d6bb0e977760de756971f7,65d6be8fd2fb402f9170e84f,0.0348,0.0349,0,119,119,1,1,onethree,,,,,,,,,,,,,,,,,,,,,,,,,,,,,,,,,,,,,,,,,,,,,,,,,,,,,,,,,,,,,,,,,,,,,,,,,,,,,,,,,,,,,,,,,,,,,,,,,,,,,,,,,,,,,,,,,,,,,,,,,,,,,,,,,,,,,,,,,
,,60ee0205933c5e01fb46bdeb,2024-02-22_03h25.16.960,kallum_motion_pilot,2023.2.2,Win32,144.9275362,60ee0205933c5e01fb46bdeb,65d6bb0e977760de756971f7,65d6be8fd2fb402f9170e84f,0.0349,0.035,0,120,120,119,1,eightseven,,,,,,,,,,,,,,,,,,,,,,,,,,,,,,,,,,,,,,,,,,,,,,,,,,,,,,,,,,,,,,,,,,,,,,,,,,,,,,,,,,,,,,,,,,,,,,,,,,,,,,,,,,,,,,,,,,,,,,,,,,,,,,,,,,,,,,,,,
,,60ee0205933c5e01fb46bdeb,2024-02-22_03h25.16.960,kallum_motion_pilot,2023.2.2,Win32,144.9275362,60ee0205933c5e01fb46bdeb,65d6bb0e977760de756971f7,65d6be8fd2fb402f9170e84f,0.0351,0.0351,0,121,121,59,1,twofour,,,,,,,,,,,,,,,,,,,,,,,,,,,,,,,,,,,,,,,,,,,,,,,,,,,,,,,,,,,,,,,,,,,,,,,,,,,,,,,,,,,,,,,,,,,,,,,,,,,,,,,,,,,,,,,,,,,,,,,,,,,,,,,,,,,,,,,,,
,,60ee0205933c5e01fb46bdeb,2024-02-22_03h25.16.960,kallum_motion_pilot,2023.2.2,Win32,144.9275362,60ee0205933c5e01fb46bdeb,65d6bb0e977760de756971f7,65d6be8fd2fb402f9170e84f,0.0352,0.0352,0,122,122,10,1,twoone,,,,,,,,,,,,,,,,,,,,,,,,,,,,,,,,,,,,,,,,,,,,,,,,,,,,,,,,,,,,,,,,,,,,,,,,,,,,,,,,,,,,,,,,,,,,,,,,,,,,,,,,,,,,,,,,,,,,,,,,,,,,,,,,,,,,,,,,,
,,60ee0205933c5e01fb46bdeb,2024-02-22_03h25.16.960,kallum_motion_pilot,2023.2.2,Win32,144.9275362,60ee0205933c5e01fb46bdeb,65d6bb0e977760de756971f7,65d6be8fd2fb402f9170e84f,0.0353,0.0354,0,123,123,39,1,fourthree,,,,,,,,,,,,,,,,,,,,,,,,,,,,,,,,,,,,,,,,,,,,,,,,,,,,,,,,,,,,,,,,,,,,,,,,,,,,,,,,,,,,,,,,,,,,,,,,,,,,,,,,,,,,,,,,,,,,,,,,,,,,,,,,,,,,,,,,,
,,60ee0205933c5e01fb46bdeb,2024-02-22_03h25.16.960,kallum_motion_pilot,2023.2.2,Win32,144.9275362,60ee0205933c5e01fb46bdeb,65d6bb0e977760de756971f7,65d6be8fd2fb402f9170e84f,0.0356,0.0356,0,124,124,104,1,fivesix,,,,,,,,,,,,,,,,,,,,,,,,,,,,,,,,,,,,,,,,,,,,,,,,,,,,,,,,,,,,,,,,,,,,,,,,,,,,,,,,,,,,,,,,,,,,,,,,,,,,,,,,,,,,,,,,,,,,,,,,,,,,,,,,,,,,,,,,,
,,60ee0205933c5e01fb46bdeb,2024-02-22_03h25.16.960,kallum_motion_pilot,2023.2.2,Win32,144.9275362,60ee0205933c5e01fb46bdeb,65d6bb0e977760de756971f7,65d6be8fd2fb402f9170e84f,0.0357,0.0359,0,125,125,50,1,twoone,,,,,,,,,,,,,,,,,,,,,,,,,,,,,,,,,,,,,,,,,,,,,,,,,,,,,,,,,,,,,,,,,,,,,,,,,,,,,,,,,,,,,,,,,,,,,,,,,,,,,,,,,,,,,,,,,,,,,,,,,,,,,,,,,,,,,,,,,
,,60ee0205933c5e01fb46bdeb,2024-02-22_03h25.16.960,kallum_motion_pilot,2023.2.2,Win32,144.9275362,60ee0205933c5e01fb46bdeb,65d6bb0e977760de756971f7,65d6be8fd2fb402f9170e84f,0.0361,0.0362,0,126,126,160,1,fivesix,,,,,,,,,,,,,,,,,,,,,,,,,,,,,,,,,,,,,,,,,,,,,,,,,,,,,,,,,,,,,,,,,,,,,,,,,,,,,,,,,,,,,,,,,,,,,,,,,,,,,,,,,,,,,,,,,,,,,,,,,,,,,,,,,,,,,,,,,
,,60ee0205933c5e01fb46bdeb,2024-02-22_03h25.16.960,kallum_motion_pilot,2023.2.2,Win32,144.9275362,60ee0205933c5e01fb46bdeb,65d6bb0e977760de756971f7,65d6be8fd2fb402f9170e84f,0.0363,0.0363,0,127,127,82,1,sixfive,,,,,,,,,,,,,,,,,,,,,,,,,,,,,,,,,,,,,,,,,,,,,,,,,,,,,,,,,,,,,,,,,,,,,,,,,,,,,,,,,,,,,,,,,,,,,,,,,,,,,,,,,,,,,,,,,,,,,,,,,,,,,,,,,,,,,,,,,
,,60ee0205933c5e01fb46bdeb,2024-02-22_03h25.16.960,kallum_motion_pilot,2023.2.2,Win32,144.9275362,60ee0205933c5e01fb46bdeb,65d6bb0e977760de756971f7,65d6be8fd2fb402f9170e84f,0.0364,0.0364,0,128,128,42,1,twoone,,,,,,,,,,,,,,,,,,,,,,,,,,,,,,,,,,,,,,,,,,,,,,,,,,,,,,,,,,,,,,,,,,,,,,,,,,,,,,,,,,,,,,,,,,,,,,,,,,,,,,,,,,,,,,,,,,,,,,,,,,,,,,,,,,,,,,,,,
,,60ee0205933c5e01fb46bdeb,2024-02-22_03h25.16.960,kallum_motion_pilot,2023.2.2,Win32,144.9275362,60ee0205933c5e01fb46bdeb,65d6bb0e977760de756971f7,65d6be8fd2fb402f9170e84f,0.0365,0.0365,0,129,129,79,1,eightseven,,,,,,,,,,,,,,,,,,,,,,,,,,,,,,,,,,,,,,,,,,,,,,,,,,,,,,,,,,,,,,,,,,,,,,,,,,,,,,,,,,,,,,,,,,,,,,,,,,,,,,,,,,,,,,,,,,,,,,,,,,,,,,,,,,,,,,,,,
,,60ee0205933c5e01fb46bdeb,2024-02-22_03h25.16.960,kallum_motion_pilot,2023.2.2,Win32,144.9275362,60ee0205933c5e01fb46bdeb,65d6bb0e977760de756971f7,65d6be8fd2fb402f9170e84f,0.0366,0.0366,0,130,130,63,1,fourthree,,,,,,,,,,,,,,,,,,,,,,,,,,,,,,,,,,,,,,,,,,,,,,,,,,,,,,,,,,,,,,,,,,,,,,,,,,,,,,,,,,,,,,,,,,,,,,,,,,,,,,,,,,,,,,,,,,,,,,,,,,,,,,,,,,,,,,,,,
,,60ee0205933c5e01fb46bdeb,2024-02-22_03h25.16.960,kallum_motion_pilot,2023.2.2,Win32,144.9275362,60ee0205933c5e01fb46bdeb,65d6bb0e977760de756971f7,65d6be8fd2fb402f9170e84f,0.0367,0.0368,0,131,131,146,1,sixfive,,,,,,,,,,,,,,,,,,,,,,,,,,,,,,,,,,,,,,,,,,,,,,,,,,,,,,,,,,,,,,,,,,,,,,,,,,,,,,,,,,,,,,,,,,,,,,,,,,,,,,,,,,,,,,,,,,,,,,,,,,,,,,,,,,,,,,,,,
,,60ee0205933c5e01fb46bdeb,2024-02-22_03h25.16.960,kallum_motion_pilot,2023.2.2,Win32,144.9275362,60ee0205933c5e01fb46bdeb,65d6bb0e977760de756971f7,65d6be8fd2fb402f9170e84f,0.0369,0.0369,0,132,132,65,1,onethree,,,,,,,,,,,,,,,,,,,,,,,,,,,,,,,,,,,,,,,,,,,,,,,,,,,,,,,,,,,,,,,,,,,,,,,,,,,,,,,,,,,,,,,,,,,,,,,,,,,,,,,,,,,,,,,,,,,,,,,,,,,,,,,,,,,,,,,,,
,,60ee0205933c5e01fb46bdeb,2024-02-22_03h25.16.960,kallum_motion_pilot,2023.2.2,Win32,144.9275362,60ee0205933c5e01fb46bdeb,65d6bb0e977760de756971f7,65d6be8fd2fb402f9170e84f,0.037,0.037,0,133,133,32,1,onetwo,,,,,,,,,,,,,,,,,,,,,,,,,,,,,,,,,,,,,,,,,,,,,,,,,,,,,,,,,,,,,,,,,,,,,,,,,,,,,,,,,,,,,,,,,,,,,,,,,,,,,,,,,,,,,,,,,,,,,,,,,,,,,,,,,,,,,,,,,
,,60ee0205933c5e01fb46bdeb,2024-02-22_03h25.16.960,kallum_motion_pilot,2023.2.2,Win32,144.9275362,60ee0205933c5e01fb46bdeb,65d6bb0e977760de756971f7,65d6be8fd2fb402f9170e84f,0.0371,0.0372,0,134,134,106,1,sixfive,,,,,,,,,,,,,,,,,,,,,,,,,,,,,,,,,,,,,,,,,,,,,,,,,,,,,,,,,,,,,,,,,,,,,,,,,,,,,,,,,,,,,,,,,,,,,,,,,,,,,,,,,,,,,,,,,,,,,,,,,,,,,,,,,,,,,,,,,
,,60ee0205933c5e01fb46bdeb,2024-02-22_03h25.16.960,kallum_motion_pilot,2023.2.2,Win32,144.9275362,60ee0205933c5e01fb46bdeb,65d6bb0e977760de756971f7,65d6be8fd2fb402f9170e84f,0.0372,0.0372,0,135,135,103,1,eightseven,,,,,,,,,,,,,,,,,,,,,,,,,,,,,,,,,,,,,,,,,,,,,,,,,,,,,,,,,,,,,,,,,,,,,,,,,,,,,,,,,,,,,,,,,,,,,,,,,,,,,,,,,,,,,,,,,,,,,,,,,,,,,,,,,,,,,,,,,
,,60ee0205933c5e01fb46bdeb,2024-02-22_03h25.16.960,kallum_motion_pilot,2023.2.2,Win32,144.9275362,60ee0205933c5e01fb46bdeb,65d6bb0e977760de756971f7,65d6be8fd2fb402f9170e84f,0.0373,0.0374,0,136,136,56,1,onetwo,,,,,,,,,,,,,,,,,,,,,,,,,,,,,,,,,,,,,,,,,,,,,,,,,,,,,,,,,,,,,,,,,,,,,,,,,,,,,,,,,,,,,,,,,,,,,,,,,,,,,,,,,,,,,,,,,,,,,,,,,,,,,,,,,,,,,,,,,
,,60ee0205933c5e01fb46bdeb,2024-02-22_03h25.16.960,kallum_motion_pilot,2023.2.2,Win32,144.9275362,60ee0205933c5e01fb46bdeb,65d6bb0e977760de756971f7,65d6be8fd2fb402f9170e84f,0.0374,0.0374,0,137,137,120,1,fivesix,,,,,,,,,,,,,,,,,,,,,,,,,,,,,,,,,,,,,,,,,,,,,,,,,,,,,,,,,,,,,,,,,,,,,,,,,,,,,,,,,,,,,,,,,,,,,,,,,,,,,,,,,,,,,,,,,,,,,,,,,,,,,,,,,,,,,,,,,
,,60ee0205933c5e01fb46bdeb,2024-02-22_03h25.16.960,kallum_motion_pilot,2023.2.2,Win32,144.9275362,60ee0205933c5e01fb46bdeb,65d6bb0e977760de756971f7,65d6be8fd2fb402f9170e84f,0.0375,0.0375,0,138,138,98,1,sixfive,,,,,,,,,,,,,,,,,,,,,,,,,,,,,,,,,,,,,,,,,,,,,,,,,,,,,,,,,,,,,,,,,,,,,,,,,,,,,,,,,,,,,,,,,,,,,,,,,,,,,,,,,,,,,,,,,,,,,,,,,,,,,,,,,,,,,,,,,
,,60ee0205933c5e01fb46bdeb,2024-02-22_03h25.16.960,kallum_motion_pilot,2023.2.2,Win32,144.9275362,60ee0205933c5e01fb46bdeb,65d6bb0e977760de756971f7,65d6be8fd2fb402f9170e84f,0.0376,0.0376,0,139,139,19,1,twofour,,,,,,,,,,,,,,,,,,,,,,,,,,,,,,,,,,,,,,,,,,,,,,,,,,,,,,,,,,,,,,,,,,,,,,,,,,,,,,,,,,,,,,,,,,,,,,,,,,,,,,,,,,,,,,,,,,,,,,,,,,,,,,,,,,,,,,,,,
,,60ee0205933c5e01fb46bdeb,2024-02-22_03h25.16.960,kallum_motion_pilot,2023.2.2,Win32,144.9275362,60ee0205933c5e01fb46bdeb,65d6bb0e977760de756971f7,65d6be8fd2fb402f9170e84f,0.0377,0.0378,0,140,140,85,1,seveneight,,,,,,,,,,,,,,,,,,,,,,,,,,,,,,,,,,,,,,,,,,,,,,,,,,,,,,,,,,,,,,,,,,,,,,,,,,,,,,,,,,,,,,,,,,,,,,,,,,,,,,,,,,,,,,,,,,,,,,,,,,,,,,,,,,,,,,,,,
,,60ee0205933c5e01fb46bdeb,2024-02-22_03h25.16.960,kallum_motion_pilot,2023.2.2,Win32,144.9275362,60ee0205933c5e01fb46bdeb,65d6bb0e977760de756971f7,65d6be8fd2fb402f9170e84f,0.0378,0.0378,0,141,141,155,1,sixeight,,,,,,,,,,,,,,,,,,,,,,,,,,,,,,,,,,,,,,,,,,,,,,,,,,,,,,,,,,,,,,,,,,,,,,,,,,,,,,,,,,,,,,,,,,,,,,,,,,,,,,,,,,,,,,,,,,,,,,,,,,,,,,,,,,,,,,,,,
,,60ee0205933c5e01fb46bdeb,2024-02-22_03h25.16.960,kallum_motion_pilot,2023.2.2,Win32,144.9275362,60ee0205933c5e01fb46bdeb,65d6bb0e977760de756971f7,65d6be8fd2fb402f9170e84f,0.0379,0.0379,0,142,142,130,1,sixfive,,,,,,,,,,,,,,,,,,,,,,,,,,,,,,,,,,,,,,,,,,,,,,,,,,,,,,,,,,,,,,,,,,,,,,,,,,,,,,,,,,,,,,,,,,,,,,,,,,,,,,,,,,,,,,,,,,,,,,,,,,,,,,,,,,,,,,,,,
,,60ee0205933c5e01fb46bdeb,2024-02-22_03h25.16.960,kallum_motion_pilot,2023.2.2,Win32,144.9275362,60ee0205933c5e01fb46bdeb,65d6bb0e977760de756971f7,65d6be8fd2fb402f9170e84f,0.038,0.038,0,143,143,137,1,fiveseven,,,,,,,,,,,,,,,,,,,,,,,,,,,,,,,,,,,,,,,,,,,,,,,,,,,,,,,,,,,,,,,,,,,,,,,,,,,,,,,,,,,,,,,,,,,,,,,,,,,,,,,,,,,,,,,,,,,,,,,,,,,,,,,,,,,,,,,,,
,,60ee0205933c5e01fb46bdeb,2024-02-22_03h25.16.960,kallum_motion_pilot,2023.2.2,Win32,144.9275362,60ee0205933c5e01fb46bdeb,65d6bb0e977760de756971f7,65d6be8fd2fb402f9170e84f,0.0381,0.0381,0,144,144,51,1,twofour,,,,,,,,,,,,,,,,,,,,,,,,,,,,,,,,,,,,,,,,,,,,,,,,,,,,,,,,,,,,,,,,,,,,,,,,,,,,,,,,,,,,,,,,,,,,,,,,,,,,,,,,,,,,,,,,,,,,,,,,,,,,,,,,,,,,,,,,,
,,60ee0205933c5e01fb46bdeb,2024-02-22_03h25.16.960,kallum_motion_pilot,2023.2.2,Win32,144.9275362,60ee0205933c5e01fb46bdeb,65d6bb0e977760de756971f7,65d6be8fd2fb402f9170e84f,0.0382,0.0382,0,145,145,14,1,fourtwo,,,,,,,,,,,,,,,,,,,,,,,,,,,,,,,,,,,,,,,,,,,,,,,,,,,,,,,,,,,,,,,,,,,,,,,,,,,,,,,,,,,,,,,,,,,,,,,,,,,,,,,,,,,,,,,,,,,,,,,,,,,,,,,,,,,,,,,,,
,,60ee0205933c5e01fb46bdeb,2024-02-22_03h25.16.960,kallum_motion_pilot,2023.2.2,Win32,144.9275362,60ee0205933c5e01fb46bdeb,65d6bb0e977760de756971f7,65d6be8fd2fb402f9170e84f,0.0383,0.0383,0,146,146,91,1,sixeight,,,,,,,,,,,,,,,,,,,,,,,,,,,,,,,,,,,,,,,,,,,,,,,,,,,,,,,,,,,,,,,,,,,,,,,,,,,,,,,,,,,,,,,,,,,,,,,,,,,,,,,,,,,,,,,,,,,,,,,,,,,,,,,,,,,,,,,,,
,,60ee0205933c5e01fb46bdeb,2024-02-22_03h25.16.960,kallum_motion_pilot,2023.2.2,Win32,144.9275362,60ee0205933c5e01fb46bdeb,65d6bb0e977760de756971f7,65d6be8fd2fb402f9170e84f,0.0384,0.0384,0,147,147,52,1,threeone,,,,,,,,,,,,,,,,,,,,,,,,,,,,,,,,,,,,,,,,,,,,,,,,,,,,,,,,,,,,,,,,,,,,,,,,,,,,,,,,,,,,,,,,,,,,,,,,,,,,,,,,,,,,,,,,,,,,,,,,,,,,,,,,,,,,,,,,,
,,60ee0205933c5e01fb46bdeb,2024-02-22_03h25.16.960,kallum_motion_pilot,2023.2.2,Win32,144.9275362,60ee0205933c5e01fb46bdeb,65d6bb0e977760de756971f7,65d6be8fd2fb402f9170e84f,0.0385,0.0385,0,148,148,144,1,fivesix,,,,,,,,,,,,,,,,,,,,,,,,,,,,,,,,,,,,,,,,,,,,,,,,,,,,,,,,,,,,,,,,,,,,,,,,,,,,,,,,,,,,,,,,,,,,,,,,,,,,,,,,,,,,,,,,,,,,,,,,,,,,,,,,,,,,,,,,,
,,60ee0205933c5e01fb46bdeb,2024-02-22_03h25.16.960,kallum_motion_pilot,2023.2.2,Win32,144.9275362,60ee0205933c5e01fb46bdeb,65d6bb0e977760de756971f7,65d6be8fd2fb402f9170e84f,0.0387,0.0387,0,149,149,78,1,fourtwo,,,,,,,,,,,,,,,,,,,,,,,,,,,,,,,,,,,,,,,,,,,,,,,,,,,,,,,,,,,,,,,,,,,,,,,,,,,,,,,,,,,,,,,,,,,,,,,,,,,,,,,,,,,,,,,,,,,,,,,,,,,,,,,,,,,,,,,,,
,,60ee0205933c5e01fb46bdeb,2024-02-22_03h25.16.960,kallum_motion_pilot,2023.2.2,Win32,144.9275362,60ee0205933c5e01fb46bdeb,65d6bb0e977760de756971f7,65d6be8fd2fb402f9170e84f,0.0388,0.0389,0,150,150,18,1,twoone,,,,,,,,,,,,,,,,,,,,,,,,,,,,,,,,,,,,,,,,,,,,,,,,,,,,,,,,,,,,,,,,,,,,,,,,,,,,,,,,,,,,,,,,,,,,,,,,,,,,,,,,,,,,,,,,,,,,,,,,,,,,,,,,,,,,,,,,,
,,60ee0205933c5e01fb46bdeb,2024-02-22_03h25.16.960,kallum_motion_pilot,2023.2.2,Win32,144.9275362,60ee0205933c5e01fb46bdeb,65d6bb0e977760de756971f7,65d6be8fd2fb402f9170e84f,0.039,0.0391,0,151,151,81,1,fiveseven,,,,,,,,,,,,,,,,,,,,,,,,,,,,,,,,,,,,,,,,,,,,,,,,,,,,,,,,,,,,,,,,,,,,,,,,,,,,,,,,,,,,,,,,,,,,,,,,,,,,,,,,,,,,,,,,,,,,,,,,,,,,,,,,,,,,,,,,,
,,60ee0205933c5e01fb46bdeb,2024-02-22_03h25.16.960,kallum_motion_pilot,2023.2.2,Win32,144.9275362,60ee0205933c5e01fb46bdeb,65d6bb0e977760de756971f7,65d6be8fd2fb402f9170e84f,0.0391,0.0391,0,152,152,97,1,fiveseven,,,,,,,,,,,,,,,,,,,,,,,,,,,,,,,,,,,,,,,,,,,,,,,,,,,,,,,,,,,,,,,,,,,,,,,,,,,,,,,,,,,,,,,,,,,,,,,,,,,,,,,,,,,,,,,,,,,,,,,,,,,,,,,,,,,,,,,,,
,,60ee0205933c5e01fb46bdeb,2024-02-22_03h25.16.960,kallum_motion_pilot,2023.2.2,Win32,144.9275362,60ee0205933c5e01fb46bdeb,65d6bb0e977760de756971f7,65d6be8fd2fb402f9170e84f,0.0392,0.0392,0,153,153,105,1,fiveseven,,,,,,,,,,,,,,,,,,,,,,,,,,,,,,,,,,,,,,,,,,,,,,,,,,,,,,,,,,,,,,,,,,,,,,,,,,,,,,,,,,,,,,,,,,,,,,,,,,,,,,,,,,,,,,,,,,,,,,,,,,,,,,,,,,,,,,,,,
,,60ee0205933c5e01fb46bdeb,2024-02-22_03h25.16.960,kallum_motion_pilot,2023.2.2,Win32,144.9275362,60ee0205933c5e01fb46bdeb,65d6bb0e977760de756971f7,65d6be8fd2fb402f9170e84f,0.0393,0.0394,0,154,154,110,1,eightsix,,,,,,,,,,,,,,,,,,,,,,,,,,,,,,,,,,,,,,,,,,,,,,,,,,,,,,,,,,,,,,,,,,,,,,,,,,,,,,,,,,,,,,,,,,,,,,,,,,,,,,,,,,,,,,,,,,,,,,,,,,,,,,,,,,,,,,,,,
,,60ee0205933c5e01fb46bdeb,2024-02-22_03h25.16.960,kallum_motion_pilot,2023.2.2,Win32,144.9275362,60ee0205933c5e01fb46bdeb,65d6bb0e977760de756971f7,65d6be8fd2fb402f9170e84f,0.0394,0.0396,0,155,155,66,1,twoone,,,,,,,,,,,,,,,,,,,,,,,,,,,,,,,,,,,,,,,,,,,,,,,,,,,,,,,,,,,,,,,,,,,,,,,,,,,,,,,,,,,,,,,,,,,,,,,,,,,,,,,,,,,,,,,,,,,,,,,,,,,,,,,,,,,,,,,,,
,,60ee0205933c5e01fb46bdeb,2024-02-22_03h25.16.960,kallum_motion_pilot,2023.2.2,Win32,144.9275362,60ee0205933c5e01fb46bdeb,65d6bb0e977760de756971f7,65d6be8fd2fb402f9170e84f,0.0397,0.0397,0,156,156,20,1,threeone,,,,,,,,,,,,,,,,,,,,,,,,,,,,,,,,,,,,,,,,,,,,,,,,,,,,,,,,,,,,,,,,,,,,,,,,,,,,,,,,,,,,,,,,,,,,,,,,,,,,,,,,,,,,,,,,,,,,,,,,,,,,,,,,,,,,,,,,,
,,60ee0205933c5e01fb46bdeb,2024-02-22_03h25.16.960,kallum_motion_pilot,2023.2.2,Win32,144.9275362,60ee0205933c5e01fb46bdeb,65d6bb0e977760de756971f7,65d6be8fd2fb402f9170e84f,0.0398,0.0399,0,157,157,142,1,eightsix,,,,,,,,,,,,,,,,,,,,,,,,,,,,,,,,,,,,,,,,,,,,,,,,,,,,,,,,,,,,,,,,,,,,,,,,,,,,,,,,,,,,,,,,,,,,,,,,,,,,,,,,,,,,,,,,,,,,,,,,,,,,,,,,,,,,,,,,,
,,60ee0205933c5e01fb46bdeb,2024-02-22_03h25.16.960,kallum_motion_pilot,2023.2.2,Win32,144.9275362,60ee0205933c5e01fb46bdeb,65d6bb0e977760de756971f7,65d6be8fd2fb402f9170e84f,0.0399,0.04,0,158,158,60,1,threeone,,,,,,,,,,,,,,,,,,,,,,,,,,,,,,,,,,,,,,,,,,,,,,,,,,,,,,,,,,,,,,,,,,,,,,,,,,,,,,,,,,,,,,,,,,,,,,,,,,,,,,,,,,,,,,,,,,,,,,,,,,,,,,,,,,,,,,,,,
,,60ee0205933c5e01fb46bdeb,2024-02-22_03h25.16.960,kallum_motion_pilot,2023.2.2,Win32,144.9275362,60ee0205933c5e01fb46bdeb,65d6bb0e977760de756971f7,65d6be8fd2fb402f9170e84f,0.04,0.0401,0,159,159,8,1,onetwo,,,,,,,,,,,,,,,,,,,,,,,,,,,,,,,,,,,,,,,,,,,,,,,,,,,,,,,,,,,,,,,,,,,,,,,,,,,,,,,,,,,,,,,,,,,,,,,,,,,,,,,,,,,,,,,,,,,,,,,,,,,,,,,,,,,,,,,,,
,,60ee0205933c5e01fb46bdeb,2024-02-22_03h25.16.960,kallum_motion_pilot,2023.2.2,Win32,144.9275362,60ee0205933c5e01fb46bdeb,65d6bb0e977760de756971f7,65d6be8fd2fb402f9170e84f,0.0401,0.0402,0,160,160,3,1,twofour,,,,,,,,,,,,,,,,,,,,,,,,,,,,,,,,,,,,,,,,,,,,,,,,,,,,,,,,,,,,,,,,,,,,,,,,,,,,,,,,,,,,,,,,,,,,,,,,,,,,,,,,,,,,,,,,,,,,,,,,,,,,,,,,,,,,,,,,,
,,60ee0205933c5e01fb46bdeb,2024-02-22_03h25.16.960,kallum_motion_pilot,2023.2.2,Win32,144.9275362,60ee0205933c5e01fb46bdeb,65d6bb0e977760de756971f7,65d6be8fd2fb402f9170e84f,0.0402,0.0403,0,161,161,132,1,sevenfive,,,,,,,,,,,,,,,,,,,,,,,,,,,,,,,,,,,,,,,,,,,,,,,,,,,,,,,,,,,,,,,,,,,,,,,,,,,,,,,,,,,,,,,,,,,,,,,,,,,,,,,,,,,,,,,,,,,,,,,,,,,,,,,,,,,,,,,,,
,,60ee0205933c5e01fb46bdeb,2024-02-22_03h25.16.960,kallum_motion_pilot,2023.2.2,Win32,144.9275362,60ee0205933c5e01fb46bdeb,65d6bb0e977760de756971f7,65d6be8fd2fb402f9170e84f,0.0404,0.0404,1,0,162,9,1,onethree,,,,,,,,,,,,,,,,,,,,,,,,,,,,,,,,,,,,,,,,,,,,,,,,,,,,,,,,,,,,,,,,,,,,,,,,,,,,,,,,,,,,,,,,,,,,,,,,,,,,,,,,,,,,,,,,,,,,,,,,,,,,,,,,,,,,,,,,,
,,60ee0205933c5e01fb46bdeb,2024-02-22_03h25.16.960,kallum_motion_pilot,2023.2.2,Win32,144.9275362,60ee0205933c5e01fb46bdeb,65d6bb0e977760de756971f7,65d6be8fd2fb402f9170e84f,0.0404,0.0405,1,1,163,72,1,onetwo,,,,,,,,,,,,,,,,,,,,,,,,,,,,,,,,,,,,,,,,,,,,,,,,,,,,,,,,,,,,,,,,,,,,,,,,,,,,,,,,,,,,,,,,,,,,,,,,,,,,,,,,,,,,,,,,,,,,,,,,,,,,,,,,,,,,,,,,,
,,60ee0205933c5e01fb46bdeb,2024-02-22_03h25.16.960,kallum_motion_pilot,2023.2.2,Win32,144.9275362,60ee0205933c5e01fb46bdeb,65d6bb0e977760de756971f7,65d6be8fd2fb402f9170e84f,0.0406,0.0407,1,2,164,82,1,sixfive,,,,,,,,,,,,,,,,,,,,,,,,,,,,,,,,,,,,,,,,,,,,,,,,,,,,,,,,,,,,,,,,,,,,,,,,,,,,,,,,,,,,,,,,,,,,,,,,,,,,,,,,,,,,,,,,,,,,,,,,,,,,,,,,,,,,,,,,,
,,60ee0205933c5e01fb46bdeb,2024-02-22_03h25.16.960,kallum_motion_pilot,2023.2.2,Win32,144.9275362,60ee0205933c5e01fb46bdeb,65d6bb0e977760de756971f7,65d6be8fd2fb402f9170e84f,0.0407,0.0408,1,3,165,100,1,sevenfive,,,,,,,,,,,,,,,,,,,,,,,,,,,,,,,,,,,,,,,,,,,,,,,,,,,,,,,,,,,,,,,,,,,,,,,,,,,,,,,,,,,,,,,,,,,,,,,,,,,,,,,,,,,,,,,,,,,,,,,,,,,,,,,,,,,,,,,,,
,,60ee0205933c5e01fb46bdeb,2024-02-22_03h25.16.960,kallum_motion_pilot,2023.2.2,Win32,144.9275362,60ee0205933c5e01fb46bdeb,65d6bb0e977760de756971f7,65d6be8fd2fb402f9170e84f,0.0408,0.0409,1,4,166,87,1,eightseven,,,,,,,,,,,,,,,,,,,,,,,,,,,,,,,,,,,,,,,,,,,,,,,,,,,,,,,,,,,,,,,,,,,,,,,,,,,,,,,,,,,,,,,,,,,,,,,,,,,,,,,,,,,,,,,,,,,,,,,,,,,,,,,,,,,,,,,,,
,,60ee0205933c5e01fb46bdeb,2024-02-22_03h25.16.960,kallum_motion_pilot,2023.2.2,Win32,144.9275362,60ee0205933c5e01fb46bdeb,65d6bb0e977760de756971f7,65d6be8fd2fb402f9170e84f,0.041,0.041,1,5,167,83,1,sixeight,,,,,,,,,,,,,,,,,,,,,,,,,,,,,,,,,,,,,,,,,,,,,,,,,,,,,,,,,,,,,,,,,,,,,,,,,,,,,,,,,,,,,,,,,,,,,,,,,,,,,,,,,,,,,,,,,,,,,,,,,,,,,,,,,,,,,,,,,
,,60ee0205933c5e01fb46bdeb,2024-02-22_03h25.16.960,kallum_motion_pilot,2023.2.2,Win32,144.9275362,60ee0205933c5e01fb46bdeb,65d6bb0e977760de756971f7,65d6be8fd2fb402f9170e84f,0.0411,0.0411,1,6,168,115,1,sixeight,,,,,,,,,,,,,,,,,,,,,,,,,,,,,,,,,,,,,,,,,,,,,,,,,,,,,,,,,,,,,,,,,,,,,,,,,,,,,,,,,,,,,,,,,,,,,,,,,,,,,,,,,,,,,,,,,,,,,,,,,,,,,,,,,,,,,,,,,
,,60ee0205933c5e01fb46bdeb,2024-02-22_03h25.16.960,kallum_motion_pilot,2023.2.2,Win32,144.9275362,60ee0205933c5e01fb46bdeb,65d6bb0e977760de756971f7,65d6be8fd2fb402f9170e84f,0.0413,0.0413,1,7,169,36,1,threeone,,,,,,,,,,,,,,,,,,,,,,,,,,,,,,,,,,,,,,,,,,,,,,,,,,,,,,,,,,,,,,,,,,,,,,,,,,,,,,,,,,,,,,,,,,,,,,,,,,,,,,,,,,,,,,,,,,,,,,,,,,,,,,,,,,,,,,,,,
,,60ee0205933c5e01fb46bdeb,2024-02-22_03h25.16.960,kallum_motion_pilot,2023.2.2,Win32,144.9275362,60ee0205933c5e01fb46bdeb,65d6bb0e977760de756971f7,65d6be8fd2fb402f9170e84f,0.0414,0.0415,1,8,170,113,1,fiveseven,,,,,,,,,,,,,,,,,,,,,,,,,,,,,,,,,,,,,,,,,,,,,,,,,,,,,,,,,,,,,,,,,,,,,,,,,,,,,,,,,,,,,,,,,,,,,,,,,,,,,,,,,,,,,,,,,,,,,,,,,,,,,,,,,,,,,,,,,
,,60ee0205933c5e01fb46bdeb,2024-02-22_03h25.16.960,kallum_motion_pilot,2023.2.2,Win32,144.9275362,60ee0205933c5e01fb46bdeb,65d6bb0e977760de756971f7,65d6be8fd2fb402f9170e84f,0.0415,0.0415,1,9,171,76,1,threeone,,,,,,,,,,,,,,,,,,,,,,,,,,,,,,,,,,,,,,,,,,,,,,,,,,,,,,,,,,,,,,,,,,,,,,,,,,,,,,,,,,,,,,,,,,,,,,,,,,,,,,,,,,,,,,,,,,,,,,,,,,,,,,,,,,,,,,,,,
,,60ee0205933c5e01fb46bdeb,2024-02-22_03h25.16.960,kallum_motion_pilot,2023.2.2,Win32,144.9275362,60ee0205933c5e01fb46bdeb,65d6bb0e977760de756971f7,65d6be8fd2fb402f9170e84f,0.0416,0.0416,1,10,172,132,1,sevenfive,,,,,,,,,,,,,,,,,,,,,,,,,,,,,,,,,,,,,,,,,,,,,,,,,,,,,,,,,,,,,,,,,,,,,,,,,,,,,,,,,,,,,,,,,,,,,,,,,,,,,,,,,,,,,,,,,,,,,,,,,,,,,,,,,,,,,,,,,
,,60ee0205933c5e01fb46bdeb,2024-02-22_03h25.16.960,kallum_motion_pilot,2023.2.2,Win32,144.9275362,60ee0205933c5e01fb46bdeb,65d6bb0e977760de756971f7,65d6be8fd2fb402f9170e84f,0.0417,0.0417,1,11,173,7,1,fourthree,,,,,,,,,,,,,,,,,,,,,,,,,,,,,,,,,,,,,,,,,,,,,,,,,,,,,,,,,,,,,,,,,,,,,,,,,,,,,,,,,,,,,,,,,,,,,,,,,,,,,,,,,,,,,,,,,,,,,,,,,,,,,,,,,,,,,,,,,
,,60ee0205933c5e01fb46bdeb,2024-02-22_03h25.16.960,kallum_motion_pilot,2023.2.2,Win32,144.9275362,60ee0205933c5e01fb46bdeb,65d6bb0e977760de756971f7,65d6be8fd2fb402f9170e84f,0.0419,0.0419,1,12,174,118,1,eightsix,,,,,,,,,,,,,,,,,,,,,,,,,,,,,,,,,,,,,,,,,,,,,,,,,,,,,,,,,,,,,,,,,,,,,,,,,,,,,,,,,,,,,,,,,,,,,,,,,,,,,,,,,,,,,,,,,,,,,,,,,,,,,,,,,,,,,,,,,
,,60ee0205933c5e01fb46bdeb,2024-02-22_03h25.16.960,kallum_motion_pilot,2023.2.2,Win32,144.9275362,60ee0205933c5e01fb46bdeb,65d6bb0e977760de756971f7,65d6be8fd2fb402f9170e84f,0.0419,0.042,1,13,175,158,1,eightsix,,,,,,,,,,,,,,,,,,,,,,,,,,,,,,,,,,,,,,,,,,,,,,,,,,,,,,,,,,,,,,,,,,,,,,,,,,,,,,,,,,,,,,,,,,,,,,,,,,,,,,,,,,,,,,,,,,,,,,,,,,,,,,,,,,,,,,,,,
,,60ee0205933c5e01fb46bdeb,2024-02-22_03h25.16.960,kallum_motion_pilot,2023.2.2,Win32,144.9275362,60ee0205933c5e01fb46bdeb,65d6bb0e977760de756971f7,65d6be8fd2fb402f9170e84f,0.0423,0.0423,1,14,176,70,1,fourtwo,,,,,,,,,,,,,,,,,,,,,,,,,,,,,,,,,,,,,,,,,,,,,,,,,,,,,,,,,,,,,,,,,,,,,,,,,,,,,,,,,,,,,,,,,,,,,,,,,,,,,,,,,,,,,,,,,,,,,,,,,,,,,,,,,,,,,,,,,
,,60ee0205933c5e01fb46bdeb,2024-02-22_03h25.16.960,kallum_motion_pilot,2023.2.2,Win32,144.9275362,60ee0205933c5e01fb46bdeb,65d6bb0e977760de756971f7,65d6be8fd2fb402f9170e84f,0.0425,0.0425,1,15,177,35,1,twofour,,,,,,,,,,,,,,,,,,,,,,,,,,,,,,,,,,,,,,,,,,,,,,,,,,,,,,,,,,,,,,,,,,,,,,,,,,,,,,,,,,,,,,,,,,,,,,,,,,,,,,,,,,,,,,,,,,,,,,,,,,,,,,,,,,,,,,,,,
,,60ee0205933c5e01fb46bdeb,2024-02-22_03h25.16.960,kallum_motion_pilot,2023.2.2,Win32,144.9275362,60ee0205933c5e01fb46bdeb,65d6bb0e977760de756971f7,65d6be8fd2fb402f9170e84f,0.0426,0.0426,1,16,178,65,1,onethree,,,,,,,,,,,,,,,,,,,,,,,,,,,,,,,,,,,,,,,,,,,,,,,,,,,,,,,,,,,,,,,,,,,,,,,,,,,,,,,,,,,,,,,,,,,,,,,,,,,,,,,,,,,,,,,,,,,,,,,,,,,,,,,,,,,,,,,,,
,,60ee0205933c5e01fb46bdeb,2024-02-22_03h25.16.960,kallum_motion_pilot,2023.2.2,Win32,144.9275362,60ee0205933c5e01fb46bdeb,65d6bb0e977760de756971f7,65d6be8fd2fb402f9170e84f,0.0427,0.0428,1,17,179,56,1,onetwo,,,,,,,,,,,,,,,,,,,,,,,,,,,,,,,,,,,,,,,,,,,,,,,,,,,,,,,,,,,,,,,,,,,,,,,,,,,,,,,,,,,,,,,,,,,,,,,,,,,,,,,,,,,,,,,,,,,,,,,,,,,,,,,,,,,,,,,,,
,,60ee0205933c5e01fb46bdeb,2024-02-22_03h25.16.960,kallum_motion_pilot,2023.2.2,Win32,144.9275362,60ee0205933c5e01fb46bdeb,65d6bb0e977760de756971f7,65d6be8fd2fb402f9170e84f,0.0428,0.043,1,18,180,59,1,twofour,,,,,,,,,,,,,,,,,,,,,,,,,,,,,,,,,,,,,,,,,,,,,,,,,,,,,,,,,,,,,,,,,,,,,,,,,,,,,,,,,,,,,,,,,,,,,,,,,,,,,,,,,,,,,,,,,,,,,,,,,,,,,,,,,,,,,,,,,
,,60ee0205933c5e01fb46bdeb,2024-02-22_03h25.16.960,kallum_motion_pilot,2023.2.2,Win32,144.9275362,60ee0205933c5e01fb46bdeb,65d6bb0e977760de756971f7,65d6be8fd2fb402f9170e84f,0.0431,0.0431,1,19,181,102,1,eightsix,,,,,,,,,,,,,,,,,,,,,,,,,,,,,,,,,,,,,,,,,,,,,,,,,,,,,,,,,,,,,,,,,,,,,,,,,,,,,,,,,,,,,,,,,,,,,,,,,,,,,,,,,,,,,,,,,,,,,,,,,,,,,,,,,,,,,,,,,
,,60ee0205933c5e01fb46bdeb,2024-02-22_03h25.16.960,kallum_motion_pilot,2023.2.2,Win32,144.9275362,60ee0205933c5e01fb46bdeb,65d6bb0e977760de756971f7,65d6be8fd2fb402f9170e84f,0.0432,0.0432,1,20,182,114,1,sixfive,,,,,,,,,,,,,,,,,,,,,,,,,,,,,,,,,,,,,,,,,,,,,,,,,,,,,,,,,,,,,,,,,,,,,,,,,,,,,,,,,,,,,,,,,,,,,,,,,,,,,,,,,,,,,,,,,,,,,,,,,,,,,,,,,,,,,,,,,
,,60ee0205933c5e01fb46bdeb,2024-02-22_03h25.16.960,kallum_motion_pilot,2023.2.2,Win32,144.9275362,60ee0205933c5e01fb46bdeb,65d6bb0e977760de756971f7,65d6be8fd2fb402f9170e84f,0.0432,0.0433,1,21,183,77,1,threefour,,,,,,,,,,,,,,,,,,,,,,,,,,,,,,,,,,,,,,,,,,,,,,,,,,,,,,,,,,,,,,,,,,,,,,,,,,,,,,,,,,,,,,,,,,,,,,,,,,,,,,,,,,,,,,,,,,,,,,,,,,,,,,,,,,,,,,,,,
,,60ee0205933c5e01fb46bdeb,2024-02-22_03h25.16.960,kallum_motion_pilot,2023.2.2,Win32,144.9275362,60ee0205933c5e01fb46bdeb,65d6bb0e977760de756971f7,65d6be8fd2fb402f9170e84f,0.0434,0.0434,1,22,184,15,1,fourthree,,,,,,,,,,,,,,,,,,,,,,,,,,,,,,,,,,,,,,,,,,,,,,,,,,,,,,,,,,,,,,,,,,,,,,,,,,,,,,,,,,,,,,,,,,,,,,,,,,,,,,,,,,,,,,,,,,,,,,,,,,,,,,,,,,,,,,,,,
,,60ee0205933c5e01fb46bdeb,2024-02-22_03h25.16.960,kallum_motion_pilot,2023.2.2,Win32,144.9275362,60ee0205933c5e01fb46bdeb,65d6bb0e977760de756971f7,65d6be8fd2fb402f9170e84f,0.0435,0.0436,1,23,185,10,1,twoone,,,,,,,,,,,,,,,,,,,,,,,,,,,,,,,,,,,,,,,,,,,,,,,,,,,,,,,,,,,,,,,,,,,,,,,,,,,,,,,,,,,,,,,,,,,,,,,,,,,,,,,,,,,,,,,,,,,,,,,,,,,,,,,,,,,,,,,,,
,,60ee0205933c5e01fb46bdeb,2024-02-22_03h25.16.960,kallum_motion_pilot,2023.2.2,Win32,144.9275362,60ee0205933c5e01fb46bdeb,65d6bb0e977760de756971f7,65d6be8fd2fb402f9170e84f,0.0436,0.0436,1,24,186,28,1,threeone,,,,,,,,,,,,,,,,,,,,,,,,,,,,,,,,,,,,,,,,,,,,,,,,,,,,,,,,,,,,,,,,,,,,,,,,,,,,,,,,,,,,,,,,,,,,,,,,,,,,,,,,,,,,,,,,,,,,,,,,,,,,,,,,,,,,,,,,,
,,60ee0205933c5e01fb46bdeb,2024-02-22_03h25.16.960,kallum_motion_pilot,2023.2.2,Win32,144.9275362,60ee0205933c5e01fb46bdeb,65d6bb0e977760de756971f7,65d6be8fd2fb402f9170e84f,0.0438,0.0439,1,25,187,25,1,onethree,,,,,,,,,,,,,,,,,,,,,,,,,,,,,,,,,,,,,,,,,,,,,,,,,,,,,,,,,,,,,,,,,,,,,,,,,,,,,,,,,,,,,,,,,,,,,,,,,,,,,,,,,,,,,,,,,,,,,,,,,,,,,,,,,,,,,,,,,
,,60ee0205933c5e01fb46bdeb,2024-02-22_03h25.16.960,kallum_motion_pilot,2023.2.2,Win32,144.9275362,60ee0205933c5e01fb46bdeb,65d6bb0e977760de756971f7,65d6be8fd2fb402f9170e84f,0.0439,0.044,1,26,188,134,1,eightsix,,,,,,,,,,,,,,,,,,,,,,,,,,,,,,,,,,,,,,,,,,,,,,,,,,,,,,,,,,,,,,,,,,,,,,,,,,,,,,,,,,,,,,,,,,,,,,,,,,,,,,,,,,,,,,,,,,,,,,,,,,,,,,,,,,,,,,,,,
,,60ee0205933c5e01fb46bdeb,2024-02-22_03h25.16.960,kallum_motion_pilot,2023.2.2,Win32,144.9275362,60ee0205933c5e01fb46bdeb,65d6bb0e977760de756971f7,65d6be8fd2fb402f9170e84f,0.044,0.0441,1,27,189,146,1,sixfive,,,,,,,,,,,,,,,,,,,,,,,,,,,,,,,,,,,,,,,,,,,,,,,,,,,,,,,,,,,,,,,,,,,,,,,,,,,,,,,,,,,,,,,,,,,,,,,,,,,,,,,,,,,,,,,,,,,,,,,,,,,,,,,,,,,,,,,,,
,,60ee0205933c5e01fb46bdeb,2024-02-22_03h25.16.960,kallum_motion_pilot,2023.2.2,Win32,144.9275362,60ee0205933c5e01fb46bdeb,65d6bb0e977760de756971f7,65d6be8fd2fb402f9170e84f,0.0442,0.0442,1,28,190,33,1,onethree,,,,,,,,,,,,,,,,,,,,,,,,,,,,,,,,,,,,,,,,,,,,,,,,,,,,,,,,,,,,,,,,,,,,,,,,,,,,,,,,,,,,,,,,,,,,,,,,,,,,,,,,,,,,,,,,,,,,,,,,,,,,,,,,,,,,,,,,,
,,60ee0205933c5e01fb46bdeb,2024-02-22_03h25.16.960,kallum_motion_pilot,2023.2.2,Win32,144.9275362,60ee0205933c5e01fb46bdeb,65d6bb0e977760de756971f7,65d6be8fd2fb402f9170e84f,0.0443,0.0443,1,29,191,51,1,twofour,,,,,,,,,,,,,,,,,,,,,,,,,,,,,,,,,,,,,,,,,,,,,,,,,,,,,,,,,,,,,,,,,,,,,,,,,,,,,,,,,,,,,,,,,,,,,,,,,,,,,,,,,,,,,,,,,,,,,,,,,,,,,,,,,,,,,,,,,
,,60ee0205933c5e01fb46bdeb,2024-02-22_03h25.16.960,kallum_motion_pilot,2023.2.2,Win32,144.9275362,60ee0205933c5e01fb46bdeb,65d6bb0e977760de756971f7,65d6be8fd2fb402f9170e84f,0.0444,0.0444,1,30,192,130,1,sixfive,,,,,,,,,,,,,,,,,,,,,,,,,,,,,,,,,,,,,,,,,,,,,,,,,,,,,,,,,,,,,,,,,,,,,,,,,,,,,,,,,,,,,,,,,,,,,,,,,,,,,,,,,,,,,,,,,,,,,,,,,,,,,,,,,,,,,,,,,
,,60ee0205933c5e01fb46bdeb,2024-02-22_03h25.16.960,kallum_motion_pilot,2023.2.2,Win32,144.9275362,60ee0205933c5e01fb46bdeb,65d6bb0e977760de756971f7,65d6be8fd2fb402f9170e84f,0.0445,0.0445,1,31,193,142,1,eightsix,,,,,,,,,,,,,,,,,,,,,,,,,,,,,,,,,,,,,,,,,,,,,,,,,,,,,,,,,,,,,,,,,,,,,,,,,,,,,,,,,,,,,,,,,,,,,,,,,,,,,,,,,,,,,,,,,,,,,,,,,,,,,,,,,,,,,,,,,
,,60ee0205933c5e01fb46bdeb,2024-02-22_03h25.16.960,kallum_motion_pilot,2023.2.2,Win32,144.9275362,60ee0205933c5e01fb46bdeb,65d6bb0e977760de756971f7,65d6be8fd2fb402f9170e84f,0.0446,0.0446,1,32,194,92,1,sevenfive,,,,,,,,,,,,,,,,,,,,,,,,,,,,,,,,,,,,,,,,,,,,,,,,,,,,,,,,,,,,,,,,,,,,,,,,,,,,,,,,,,,,,,,,,,,,,,,,,,,,,,,,,,,,,,,,,,,,,,,,,,,,,,,,,,,,,,,,,
,,60ee0205933c5e01fb46bdeb,2024-02-22_03h25.16.960,kallum_motion_pilot,2023.2.2,Win32,144.9275362,60ee0205933c5e01fb46bdeb,65d6bb0e977760de756971f7,65d6be8fd2fb402f9170e84f,0.0447,0.0447,1,33,195,155,1,sixeight,,,,,,,,,,,,,,,,,,,,,,,,,,,,,,,,,,,,,,,,,,,,,,,,,,,,,,,,,,,,,,,,,,,,,,,,,,,,,,,,,,,,,,,,,,,,,,,,,,,,,,,,,,,,,,,,,,,,,,,,,,,,,,,,,,,,,,,,,
,,60ee0205933c5e01fb46bdeb,2024-02-22_03h25.16.960,kallum_motion_pilot,2023.2.2,Win32,144.9275362,60ee0205933c5e01fb46bdeb,65d6bb0e977760de756971f7,65d6be8fd2fb402f9170e84f,0.0448,0.0448,1,34,196,140,1,sevenfive,,,,,,,,,,,,,,,,,,,,,,,,,,,,,,,,,,,,,,,,,,,,,,,,,,,,,,,,,,,,,,,,,,,,,,,,,,,,,,,,,,,,,,,,,,,,,,,,,,,,,,,,,,,,,,,,,,,,,,,,,,,,,,,,,,,,,,,,,
,,60ee0205933c5e01fb46bdeb,2024-02-22_03h25.16.960,kallum_motion_pilot,2023.2.2,Win32,144.9275362,60ee0205933c5e01fb46bdeb,65d6bb0e977760de756971f7,65d6be8fd2fb402f9170e84f,0.0449,0.0449,1,35,197,13,1,threefour,,,,,,,,,,,,,,,,,,,,,,,,,,,,,,,,,,,,,,,,,,,,,,,,,,,,,,,,,,,,,,,,,,,,,,,,,,,,,,,,,,,,,,,,,,,,,,,,,,,,,,,,,,,,,,,,,,,,,,,,,,,,,,,,,,,,,,,,,
,,60ee0205933c5e01fb46bdeb,2024-02-22_03h25.16.960,kallum_motion_pilot,2023.2.2,Win32,144.9275362,60ee0205933c5e01fb46bdeb,65d6bb0e977760de756971f7,65d6be8fd2fb402f9170e84f,0.045,0.0451,1,36,198,157,1,seveneight,,,,,,,,,,,,,,,,,,,,,,,,,,,,,,,,,,,,,,,,,,,,,,,,,,,,,,,,,,,,,,,,,,,,,,,,,,,,,,,,,,,,,,,,,,,,,,,,,,,,,,,,,,,,,,,,,,,,,,,,,,,,,,,,,,,,,,,,,
,,60ee0205933c5e01fb46bdeb,2024-02-22_03h25.16.960,kallum_motion_pilot,2023.2.2,Win32,144.9275362,60ee0205933c5e01fb46bdeb,65d6bb0e977760de756971f7,65d6be8fd2fb402f9170e84f,0.0451,0.0452,1,37,199,37,1,threefour,,,,,,,,,,,,,,,,,,,,,,,,,,,,,,,,,,,,,,,,,,,,,,,,,,,,,,,,,,,,,,,,,,,,,,,,,,,,,,,,,,,,,,,,,,,,,,,,,,,,,,,,,,,,,,,,,,,,,,,,,,,,,,,,,,,,,,,,,
,,60ee0205933c5e01fb46bdeb,2024-02-22_03h25.16.960,kallum_motion_pilot,2023.2.2,Win32,144.9275362,60ee0205933c5e01fb46bdeb,65d6bb0e977760de756971f7,65d6be8fd2fb402f9170e84f,0.0453,0.0453,1,38,200,55,1,fourthree,,,,,,,,,,,,,,,,,,,,,,,,,,,,,,,,,,,,,,,,,,,,,,,,,,,,,,,,,,,,,,,,,,,,,,,,,,,,,,,,,,,,,,,,,,,,,,,,,,,,,,,,,,,,,,,,,,,,,,,,,,,,,,,,,,,,,,,,,
,,60ee0205933c5e01fb46bdeb,2024-02-22_03h25.16.960,kallum_motion_pilot,2023.2.2,Win32,144.9275362,60ee0205933c5e01fb46bdeb,65d6bb0e977760de756971f7,65d6be8fd2fb402f9170e84f,0.0453,0.0454,1,39,201,22,1,fourtwo,,,,,,,,,,,,,,,,,,,,,,,,,,,,,,,,,,,,,,,,,,,,,,,,,,,,,,,,,,,,,,,,,,,,,,,,,,,,,,,,,,,,,,,,,,,,,,,,,,,,,,,,,,,,,,,,,,,,,,,,,,,,,,,,,,,,,,,,,
,,60ee0205933c5e01fb46bdeb,2024-02-22_03h25.16.960,kallum_motion_pilot,2023.2.2,Win32,144.9275362,60ee0205933c5e01fb46bdeb,65d6bb0e977760de756971f7,65d6be8fd2fb402f9170e84f,0.0454,0.0455,1,40,202,42,1,twoone,,,,,,,,,,,,,,,,,,,,,,,,,,,,,,,,,,,,,,,,,,,,,,,,,,,,,,,,,,,,,,,,,,,,,,,,,,,,,,,,,,,,,,,,,,,,,,,,,,,,,,,,,,,,,,,,,,,,,,,,,,,,,,,,,,,,,,,,,
,,60ee0205933c5e01fb46bdeb,2024-02-22_03h25.16.960,kallum_motion_pilot,2023.2.2,Win32,144.9275362,60ee0205933c5e01fb46bdeb,65d6bb0e977760de756971f7,65d6be8fd2fb402f9170e84f,0.0455,0.0455,1,41,203,154,1,sixfive,,,,,,,,,,,,,,,,,,,,,,,,,,,,,,,,,,,,,,,,,,,,,,,,,,,,,,,,,,,,,,,,,,,,,,,,,,,,,,,,,,,,,,,,,,,,,,,,,,,,,,,,,,,,,,,,,,,,,,,,,,,,,,,,,,,,,,,,,
,,60ee0205933c5e01fb46bdeb,2024-02-22_03h25.16.960,kallum_motion_pilot,2023.2.2,Win32,144.9275362,60ee0205933c5e01fb46bdeb,65d6bb0e977760de756971f7,65d6be8fd2fb402f9170e84f,0.0456,0.0456,1,42,204,3,1,twofour,,,,,,,,,,,,,,,,,,,,,,,,,,,,,,,,,,,,,,,,,,,,,,,,,,,,,,,,,,,,,,,,,,,,,,,,,,,,,,,,,,,,,,,,,,,,,,,,,,,,,,,,,,,,,,,,,,,,,,,,,,,,,,,,,,,,,,,,,
,,60ee0205933c5e01fb46bdeb,2024-02-22_03h25.16.960,kallum_motion_pilot,2023.2.2,Win32,144.9275362,60ee0205933c5e01fb46bdeb,65d6bb0e977760de756971f7,65d6be8fd2fb402f9170e84f,0.0457,0.0457,1,43,205,23,1,fourthree,,,,,,,,,,,,,,,,,,,,,,,,,,,,,,,,,,,,,,,,,,,,,,,,,,,,,,,,,,,,,,,,,,,,,,,,,,,,,,,,,,,,,,,,,,,,,,,,,,,,,,,,,,,,,,,,,,,,,,,,,,,,,,,,,,,,,,,,,
,,60ee0205933c5e01fb46bdeb,2024-02-22_03h25.16.960,kallum_motion_pilot,2023.2.2,Win32,144.9275362,60ee0205933c5e01fb46bdeb,65d6bb0e977760de756971f7,65d6be8fd2fb402f9170e84f,0.0459,0.0459,1,44,206,105,1,fiveseven,,,,,,,,,,,,,,,,,,,,,,,,,,,,,,,,,,,,,,,,,,,,,,,,,,,,,,,,,,,,,,,,,,,,,,,,,,,,,,,,,,,,,,,,,,,,,,,,,,,,,,,,,,,,,,,,,,,,,,,,,,,,,,,,,,,,,,,,,
,,60ee0205933c5e01fb46bdeb,2024-02-22_03h25.16.960,kallum_motion_pilot,2023.2.2,Win32,144.9275362,60ee0205933c5e01fb46bdeb,65d6bb0e977760de756971f7,65d6be8fd2fb402f9170e84f,0.0459,0.046,1,45,207,21,1,threefour,,,,,,,,,,,,,,,,,,,,,,,,,,,,,,,,,,,,,,,,,,,,,,,,,,,,,,,,,,,,,,,,,,,,,,,,,,,,,,,,,,,,,,,,,,,,,,,,,,,,,,,,,,,,,,,,,,,,,,,,,,,,,,,,,,,,,,,,,
,,60ee0205933c5e01fb46bdeb,2024-02-22_03h25.16.960,kallum_motion_pilot,2023.2.2,Win32,144.9275362,60ee0205933c5e01fb46bdeb,65d6bb0e977760de756971f7,65d6be8fd2fb402f9170e84f,0.046,0.0461,1,46,208,108,1,sevenfive,,,,,,,,,,,,,,,,,,,,,,,,,,,,,,,,,,,,,,,,,,,,,,,,,,,,,,,,,,,,,,,,,,,,,,,,,,,,,,,,,,,,,,,,,,,,,,,,,,,,,,,,,,,,,,,,,,,,,,,,,,,,,,,,,,,,,,,,,
,,60ee0205933c5e01fb46bdeb,2024-02-22_03h25.16.960,kallum_motion_pilot,2023.2.2,Win32,144.9275362,60ee0205933c5e01fb46bdeb,65d6bb0e977760de756971f7,65d6be8fd2fb402f9170e84f,0.0462,0.0462,1,47,209,156,1,sevenfive,,,,,,,,,,,,,,,,,,,,,,,,,,,,,,,,,,,,,,,,,,,,,,,,,,,,,,,,,,,,,,,,,,,,,,,,,,,,,,,,,,,,,,,,,,,,,,,,,,,,,,,,,,,,,,,,,,,,,,,,,,,,,,,,,,,,,,,,,
,,60ee0205933c5e01fb46bdeb,2024-02-22_03h25.16.960,kallum_motion_pilot,2023.2.2,Win32,144.9275362,60ee0205933c5e01fb46bdeb,65d6bb0e977760de756971f7,65d6be8fd2fb402f9170e84f,0.0463,0.0463,1,48,210,5,1,threefour,,,,,,,,,,,,,,,,,,,,,,,,,,,,,,,,,,,,,,,,,,,,,,,,,,,,,,,,,,,,,,,,,,,,,,,,,,,,,,,,,,,,,,,,,,,,,,,,,,,,,,,,,,,,,,,,,,,,,,,,,,,,,,,,,,,,,,,,,
,,60ee0205933c5e01fb46bdeb,2024-02-22_03h25.16.960,kallum_motion_pilot,2023.2.2,Win32,144.9275362,60ee0205933c5e01fb46bdeb,65d6bb0e977760de756971f7,65d6be8fd2fb402f9170e84f,0.0464,0.0464,1,49,211,124,1,sevenfive,,,,,,,,,,,,,,,,,,,,,,,,,,,,,,,,,,,,,,,,,,,,,,,,,,,,,,,,,,,,,,,,,,,,,,,,,,,,,,,,,,,,,,,,,,,,,,,,,,,,,,,,,,,,,,,,,,,,,,,,,,,,,,,,,,,,,,,,,
,,60ee0205933c5e01fb46bdeb,2024-02-22_03h25.16.960,kallum_motion_pilot,2023.2.2,Win32,144.9275362,60ee0205933c5e01fb46bdeb,65d6bb0e977760de756971f7,65d6be8fd2fb402f9170e84f,0.0465,0.0465,1,50,212,119,1,eightseven,,,,,,,,,,,,,,,,,,,,,,,,,,,,,,,,,,,,,,,,,,,,,,,,,,,,,,,,,,,,,,,,,,,,,,,,,,,,,,,,,,,,,,,,,,,,,,,,,,,,,,,,,,,,,,,,,,,,,,,,,,,,,,,,,,,,,,,,,
,,60ee0205933c5e01fb46bdeb,2024-02-22_03h25.16.960,kallum_motion_pilot,2023.2.2,Win32,144.9275362,60ee0205933c5e01fb46bdeb,65d6bb0e977760de756971f7,65d6be8fd2fb402f9170e84f,0.0465,0.0466,1,51,213,110,1,eightsix,,,,,,,,,,,,,,,,,,,,,,,,,,,,,,,,,,,,,,,,,,,,,,,,,,,,,,,,,,,,,,,,,,,,,,,,,,,,,,,,,,,,,,,,,,,,,,,,,,,,,,,,,,,,,,,,,,,,,,,,,,,,,,,,,,,,,,,,,
,,60ee0205933c5e01fb46bdeb,2024-02-22_03h25.16.960,kallum_motion_pilot,2023.2.2,Win32,144.9275362,60ee0205933c5e01fb46bdeb,65d6bb0e977760de756971f7,65d6be8fd2fb402f9170e84f,0.0466,0.0467,1,52,214,66,1,twoone,,,,,,,,,,,,,,,,,,,,,,,,,,,,,,,,,,,,,,,,,,,,,,,,,,,,,,,,,,,,,,,,,,,,,,,,,,,,,,,,,,,,,,,,,,,,,,,,,,,,,,,,,,,,,,,,,,,,,,,,,,,,,,,,,,,,,,,,,
,,60ee0205933c5e01fb46bdeb,2024-02-22_03h25.16.960,kallum_motion_pilot,2023.2.2,Win32,144.9275362,60ee0205933c5e01fb46bdeb,65d6bb0e977760de756971f7,65d6be8fd2fb402f9170e84f,0.0473,0.0474,1,53,215,141,1,seveneight,,,,,,,,,,,,,,,,,,,,,,,,,,,,,,,,,,,,,,,,,,,,,,,,,,,,,,,,,,,,,,,,,,,,,,,,,,,,,,,,,,,,,,,,,,,,,,,,,,,,,,,,,,,,,,,,,,,,,,,,,,,,,,,,,,,,,,,,,
,,60ee0205933c5e01fb46bdeb,2024-02-22_03h25.16.960,kallum_motion_pilot,2023.2.2,Win32,144.9275362,60ee0205933c5e01fb46bdeb,65d6bb0e977760de756971f7,65d6be8fd2fb402f9170e84f,0.0475,0.0475,1,54,216,78,1,fourtwo,,,,,,,,,,,,,,,,,,,,,,,,,,,,,,,,,,,,,,,,,,,,,,,,,,,,,,,,,,,,,,,,,,,,,,,,,,,,,,,,,,,,,,,,,,,,,,,,,,,,,,,,,,,,,,,,,,,,,,,,,,,,,,,,,,,,,,,,,
,,60ee0205933c5e01fb46bdeb,2024-02-22_03h25.16.960,kallum_motion_pilot,2023.2.2,Win32,144.9275362,60ee0205933c5e01fb46bdeb,65d6bb0e977760de756971f7,65d6be8fd2fb402f9170e84f,0.0476,0.0476,1,55,217,147,1,sixeight,,,,,,,,,,,,,,,,,,,,,,,,,,,,,,,,,,,,,,,,,,,,,,,,,,,,,,,,,,,,,,,,,,,,,,,,,,,,,,,,,,,,,,,,,,,,,,,,,,,,,,,,,,,,,,,,,,,,,,,,,,,,,,,,,,,,,,,,,
,,60ee0205933c5e01fb46bdeb,2024-02-22_03h25.16.960,kallum_motion_pilot,2023.2.2,Win32,144.9275362,60ee0205933c5e01fb46bdeb,65d6bb0e977760de756971f7,65d6be8fd2fb402f9170e84f,0.0477,0.0477,1,56,218,39,1,fourthree,,,,,,,,,,,,,,,,,,,,,,,,,,,,,,,,,,,,,,,,,,,,,,,,,,,,,,,,,,,,,,,,,,,,,,,,,,,,,,,,,,,,,,,,,,,,,,,,,,,,,,,,,,,,,,,,,,,,,,,,,,,,,,,,,,,,,,,,,
,,60ee0205933c5e01fb46bdeb,2024-02-22_03h25.16.960,kallum_motion_pilot,2023.2.2,Win32,144.9275362,60ee0205933c5e01fb46bdeb,65d6bb0e977760de756971f7,65d6be8fd2fb402f9170e84f,0.0478,0.0478,1,57,219,95,1,eightseven,,,,,,,,,,,,,,,,,,,,,,,,,,,,,,,,,,,,,,,,,,,,,,,,,,,,,,,,,,,,,,,,,,,,,,,,,,,,,,,,,,,,,,,,,,,,,,,,,,,,,,,,,,,,,,,,,,,,,,,,,,,,,,,,,,,,,,,,,
,,60ee0205933c5e01fb46bdeb,2024-02-22_03h25.16.960,kallum_motion_pilot,2023.2.2,Win32,144.9275362,60ee0205933c5e01fb46bdeb,65d6bb0e977760de756971f7,65d6be8fd2fb402f9170e84f,0.0478,0.048,1,58,220,61,1,threefour,,,,,,,,,,,,,,,,,,,,,,,,,,,,,,,,,,,,,,,,,,,,,,,,,,,,,,,,,,,,,,,,,,,,,,,,,,,,,,,,,,,,,,,,,,,,,,,,,,,,,,,,,,,,,,,,,,,,,,,,,,,,,,,,,,,,,,,,,
,,60ee0205933c5e01fb46bdeb,2024-02-22_03h25.16.960,kallum_motion_pilot,2023.2.2,Win32,144.9275362,60ee0205933c5e01fb46bdeb,65d6bb0e977760de756971f7,65d6be8fd2fb402f9170e84f,0.048,0.0481,1,59,221,106,1,sixfive,,,,,,,,,,,,,,,,,,,,,,,,,,,,,,,,,,,,,,,,,,,,,,,,,,,,,,,,,,,,,,,,,,,,,,,,,,,,,,,,,,,,,,,,,,,,,,,,,,,,,,,,,,,,,,,,,,,,,,,,,,,,,,,,,,,,,,,,,
,,60ee0205933c5e01fb46bdeb,2024-02-22_03h25.16.960,kallum_motion_pilot,2023.2.2,Win32,144.9275362,60ee0205933c5e01fb46bdeb,65d6bb0e977760de756971f7,65d6be8fd2fb402f9170e84f,0.0481,0.0482,1,60,222,89,1,fiveseven,,,,,,,,,,,,,,,,,,,,,,,,,,,,,,,,,,,,,,,,,,,,,,,,,,,,,,,,,,,,,,,,,,,,,,,,,,,,,,,,,,,,,,,,,,,,,,,,,,,,,,,,,,,,,,,,,,,,,,,,,,,,,,,,,,,,,,,,,
,,60ee0205933c5e01fb46bdeb,2024-02-22_03h25.16.960,kallum_motion_pilot,2023.2.2,Win32,144.9275362,60ee0205933c5e01fb46bdeb,65d6bb0e977760de756971f7,65d6be8fd2fb402f9170e84f,0.0483,0.0484,1,61,223,145,1,fiveseven,,,,,,,,,,,,,,,,,,,,,,,,,,,,,,,,,,,,,,,,,,,,,,,,,,,,,,,,,,,,,,,,,,,,,,,,,,,,,,,,,,,,,,,,,,,,,,,,,,,,,,,,,,,,,,,,,,,,,,,,,,,,,,,,,,,,,,,,,
,,60ee0205933c5e01fb46bdeb,2024-02-22_03h25.16.960,kallum_motion_pilot,2023.2.2,Win32,144.9275362,60ee0205933c5e01fb46bdeb,65d6bb0e977760de756971f7,65d6be8fd2fb402f9170e84f,0.0484,0.0484,1,62,224,120,1,fivesix,,,,,,,,,,,,,,,,,,,,,,,,,,,,,,,,,,,,,,,,,,,,,,,,,,,,,,,,,,,,,,,,,,,,,,,,,,,,,,,,,,,,,,,,,,,,,,,,,,,,,,,,,,,,,,,,,,,,,,,,,,,,,,,,,,,,,,,,,
,,60ee0205933c5e01fb46bdeb,2024-02-22_03h25.16.960,kallum_motion_pilot,2023.2.2,Win32,144.9275362,60ee0205933c5e01fb46bdeb,65d6bb0e977760de756971f7,65d6be8fd2fb402f9170e84f,0.0485,0.0485,1,63,225,27,1,twofour,,,,,,,,,,,,,,,,,,,,,,,,,,,,,,,,,,,,,,,,,,,,,,,,,,,,,,,,,,,,,,,,,,,,,,,,,,,,,,,,,,,,,,,,,,,,,,,,,,,,,,,,,,,,,,,,,,,,,,,,,,,,,,,,,,,,,,,,,
,,60ee0205933c5e01fb46bdeb,2024-02-22_03h25.16.960,kallum_motion_pilot,2023.2.2,Win32,144.9275362,60ee0205933c5e01fb46bdeb,65d6bb0e977760de756971f7,65d6be8fd2fb402f9170e84f,0.0486,0.0487,1,64,226,112,1,fivesix,,,,,,,,,,,,,,,,,,,,,,,,,,,,,,,,,,,,,,,,,,,,,,,,,,,,,,,,,,,,,,,,,,,,,,,,,,,,,,,,,,,,,,,,,,,,,,,,,,,,,,,,,,,,,,,,,,,,,,,,,,,,,,,,,,,,,,,,,
,,60ee0205933c5e01fb46bdeb,2024-02-22_03h25.16.960,kallum_motion_pilot,2023.2.2,Win32,144.9275362,60ee0205933c5e01fb46bdeb,65d6bb0e977760de756971f7,65d6be8fd2fb402f9170e84f,0.0488,0.0488,1,65,227,52,1,threeone,,,,,,,,,,,,,,,,,,,,,,,,,,,,,,,,,,,,,,,,,,,,,,,,,,,,,,,,,,,,,,,,,,,,,,,,,,,,,,,,,,,,,,,,,,,,,,,,,,,,,,,,,,,,,,,,,,,,,,,,,,,,,,,,,,,,,,,,,
,,60ee0205933c5e01fb46bdeb,2024-02-22_03h25.16.960,kallum_motion_pilot,2023.2.2,Win32,144.9275362,60ee0205933c5e01fb46bdeb,65d6bb0e977760de756971f7,65d6be8fd2fb402f9170e84f,0.0489,0.049,1,66,228,18,1,twoone,,,,,,,,,,,,,,,,,,,,,,,,,,,,,,,,,,,,,,,,,,,,,,,,,,,,,,,,,,,,,,,,,,,,,,,,,,,,,,,,,,,,,,,,,,,,,,,,,,,,,,,,,,,,,,,,,,,,,,,,,,,,,,,,,,,,,,,,,
,,60ee0205933c5e01fb46bdeb,2024-02-22_03h25.16.960,kallum_motion_pilot,2023.2.2,Win32,144.9275362,60ee0205933c5e01fb46bdeb,65d6bb0e977760de756971f7,65d6be8fd2fb402f9170e84f,0.0491,0.0492,1,67,229,67,1,twofour,,,,,,,,,,,,,,,,,,,,,,,,,,,,,,,,,,,,,,,,,,,,,,,,,,,,,,,,,,,,,,,,,,,,,,,,,,,,,,,,,,,,,,,,,,,,,,,,,,,,,,,,,,,,,,,,,,,,,,,,,,,,,,,,,,,,,,,,,
,,60ee0205933c5e01fb46bdeb,2024-02-22_03h25.16.960,kallum_motion_pilot,2023.2.2,Win32,144.9275362,60ee0205933c5e01fb46bdeb,65d6bb0e977760de756971f7,65d6be8fd2fb402f9170e84f,0.0493,0.0494,1,68,230,69,1,threefour,,,,,,,,,,,,,,,,,,,,,,,,,,,,,,,,,,,,,,,,,,,,,,,,,,,,,,,,,,,,,,,,,,,,,,,,,,,,,,,,,,,,,,,,,,,,,,,,,,,,,,,,,,,,,,,,,,,,,,,,,,,,,,,,,,,,,,,,,
,,60ee0205933c5e01fb46bdeb,2024-02-22_03h25.16.960,kallum_motion_pilot,2023.2.2,Win32,144.9275362,60ee0205933c5e01fb46bdeb,65d6bb0e977760de756971f7,65d6be8fd2fb402f9170e84f,0.0495,0.0496,1,69,231,64,1,onetwo,,,,,,,,,,,,,,,,,,,,,,,,,,,,,,,,,,,,,,,,,,,,,,,,,,,,,,,,,,,,,,,,,,,,,,,,,,,,,,,,,,,,,,,,,,,,,,,,,,,,,,,,,,,,,,,,,,,,,,,,,,,,,,,,,,,,,,,,,
,,60ee0205933c5e01fb46bdeb,2024-02-22_03h25.16.960,kallum_motion_pilot,2023.2.2,Win32,144.9275362,60ee0205933c5e01fb46bdeb,65d6bb0e977760de756971f7,65d6be8fd2fb402f9170e84f,0.0496,0.0503,1,70,232,144,1,fivesix,,,,,,,,,,,,,,,,,,,,,,,,,,,,,,,,,,,,,,,,,,,,,,,,,,,,,,,,,,,,,,,,,,,,,,,,,,,,,,,,,,,,,,,,,,,,,,,,,,,,,,,,,,,,,,,,,,,,,,,,,,,,,,,,,,,,,,,,,
,,60ee0205933c5e01fb46bdeb,2024-02-22_03h25.16.960,kallum_motion_pilot,2023.2.2,Win32,144.9275362,60ee0205933c5e01fb46bdeb,65d6bb0e977760de756971f7,65d6be8fd2fb402f9170e84f,0.0505,0.0506,1,71,233,8,1,onetwo,,,,,,,,,,,,,,,,,,,,,,,,,,,,,,,,,,,,,,,,,,,,,,,,,,,,,,,,,,,,,,,,,,,,,,,,,,,,,,,,,,,,,,,,,,,,,,,,,,,,,,,,,,,,,,,,,,,,,,,,,,,,,,,,,,,,,,,,,
,,60ee0205933c5e01fb46bdeb,2024-02-22_03h25.16.960,kallum_motion_pilot,2023.2.2,Win32,144.9275362,60ee0205933c5e01fb46bdeb,65d6bb0e977760de756971f7,65d6be8fd2fb402f9170e84f,0.0506,0.0507,1,72,234,57,1,onethree,,,,,,,,,,,,,,,,,,,,,,,,,,,,,,,,,,,,,,,,,,,,,,,,,,,,,,,,,,,,,,,,,,,,,,,,,,,,,,,,,,,,,,,,,,,,,,,,,,,,,,,,,,,,,,,,,,,,,,,,,,,,,,,,,,,,,,,,,
,,60ee0205933c5e01fb46bdeb,2024-02-22_03h25.16.960,kallum_motion_pilot,2023.2.2,Win32,144.9275362,60ee0205933c5e01fb46bdeb,65d6bb0e977760de756971f7,65d6be8fd2fb402f9170e84f,0.0508,0.0508,1,73,235,90,1,sixfive,,,,,,,,,,,,,,,,,,,,,,,,,,,,,,,,,,,,,,,,,,,,,,,,,,,,,,,,,,,,,,,,,,,,,,,,,,,,,,,,,,,,,,,,,,,,,,,,,,,,,,,,,,,,,,,,,,,,,,,,,,,,,,,,,,,,,,,,,
,,60ee0205933c5e01fb46bdeb,2024-02-22_03h25.16.960,kallum_motion_pilot,2023.2.2,Win32,144.9275362,60ee0205933c5e01fb46bdeb,65d6bb0e977760de756971f7,65d6be8fd2fb402f9170e84f,0.0508,0.051,1,74,236,101,1,seveneight,,,,,,,,,,,,,,,,,,,,,,,,,,,,,,,,,,,,,,,,,,,,,,,,,,,,,,,,,,,,,,,,,,,,,,,,,,,,,,,,,,,,,,,,,,,,,,,,,,,,,,,,,,,,,,,,,,,,,,,,,,,,,,,,,,,,,,,,,
,,60ee0205933c5e01fb46bdeb,2024-02-22_03h25.16.960,kallum_motion_pilot,2023.2.2,Win32,144.9275362,60ee0205933c5e01fb46bdeb,65d6bb0e977760de756971f7,65d6be8fd2fb402f9170e84f,0.051,0.0511,1,75,237,71,1,fourthree,,,,,,,,,,,,,,,,,,,,,,,,,,,,,,,,,,,,,,,,,,,,,,,,,,,,,,,,,,,,,,,,,,,,,,,,,,,,,,,,,,,,,,,,,,,,,,,,,,,,,,,,,,,,,,,,,,,,,,,,,,,,,,,,,,,,,,,,,
,,60ee0205933c5e01fb46bdeb,2024-02-22_03h25.16.960,kallum_motion_pilot,2023.2.2,Win32,144.9275362,60ee0205933c5e01fb46bdeb,65d6bb0e977760de756971f7,65d6be8fd2fb402f9170e84f,0.0511,0.0512,1,76,238,104,1,fivesix,,,,,,,,,,,,,,,,,,,,,,,,,,,,,,,,,,,,,,,,,,,,,,,,,,,,,,,,,,,,,,,,,,,,,,,,,,,,,,,,,,,,,,,,,,,,,,,,,,,,,,,,,,,,,,,,,,,,,,,,,,,,,,,,,,,,,,,,,
,,60ee0205933c5e01fb46bdeb,2024-02-22_03h25.16.960,kallum_motion_pilot,2023.2.2,Win32,144.9275362,60ee0205933c5e01fb46bdeb,65d6bb0e977760de756971f7,65d6be8fd2fb402f9170e84f,0.0513,0.0513,1,77,239,127,1,eightseven,,,,,,,,,,,,,,,,,,,,,,,,,,,,,,,,,,,,,,,,,,,,,,,,,,,,,,,,,,,,,,,,,,,,,,,,,,,,,,,,,,,,,,,,,,,,,,,,,,,,,,,,,,,,,,,,,,,,,,,,,,,,,,,,,,,,,,,,,
,,60ee0205933c5e01fb46bdeb,2024-02-22_03h25.16.960,kallum_motion_pilot,2023.2.2,Win32,144.9275362,60ee0205933c5e01fb46bdeb,65d6bb0e977760de756971f7,65d6be8fd2fb402f9170e84f,0.0514,0.0515,1,78,240,137,1,fiveseven,,,,,,,,,,,,,,,,,,,,,,,,,,,,,,,,,,,,,,,,,,,,,,,,,,,,,,,,,,,,,,,,,,,,,,,,,,,,,,,,,,,,,,,,,,,,,,,,,,,,,,,,,,,,,,,,,,,,,,,,,,,,,,,,,,,,,,,,,
,,60ee0205933c5e01fb46bdeb,2024-02-22_03h25.16.960,kallum_motion_pilot,2023.2.2,Win32,144.9275362,60ee0205933c5e01fb46bdeb,65d6bb0e977760de756971f7,65d6be8fd2fb402f9170e84f,0.0515,0.0517,1,79,241,136,1,fivesix,,,,,,,,,,,,,,,,,,,,,,,,,,,,,,,,,,,,,,,,,,,,,,,,,,,,,,,,,,,,,,,,,,,,,,,,,,,,,,,,,,,,,,,,,,,,,,,,,,,,,,,,,,,,,,,,,,,,,,,,,,,,,,,,,,,,,,,,,
,,60ee0205933c5e01fb46bdeb,2024-02-22_03h25.16.960,kallum_motion_pilot,2023.2.2,Win32,144.9275362,60ee0205933c5e01fb46bdeb,65d6bb0e977760de756971f7,65d6be8fd2fb402f9170e84f,0.0517,0.0517,1,80,242,1,1,onethree,,,,,,,,,,,,,,,,,,,,,,,,,,,,,,,,,,,,,,,,,,,,,,,,,,,,,,,,,,,,,,,,,,,,,,,,,,,,,,,,,,,,,,,,,,,,,,,,,,,,,,,,,,,,,,,,,,,,,,,,,,,,,,,,,,,,,,,,,
,,60ee0205933c5e01fb46bdeb,2024-02-22_03h25.16.960,kallum_motion_pilot,2023.2.2,Win32,144.9275362,60ee0205933c5e01fb46bdeb,65d6bb0e977760de756971f7,65d6be8fd2fb402f9170e84f,0.0518,0.0518,1,81,243,74,1,twoone,,,,,,,,,,,,,,,,,,,,,,,,,,,,,,,,,,,,,,,,,,,,,,,,,,,,,,,,,,,,,,,,,,,,,,,,,,,,,,,,,,,,,,,,,,,,,,,,,,,,,,,,,,,,,,,,,,,,,,,,,,,,,,,,,,,,,,,,,
,,60ee0205933c5e01fb46bdeb,2024-02-22_03h25.16.960,kallum_motion_pilot,2023.2.2,Win32,144.9275362,60ee0205933c5e01fb46bdeb,65d6bb0e977760de756971f7,65d6be8fd2fb402f9170e84f,0.0519,0.052,1,82,244,98,1,sixfive,,,,,,,,,,,,,,,,,,,,,,,,,,,,,,,,,,,,,,,,,,,,,,,,,,,,,,,,,,,,,,,,,,,,,,,,,,,,,,,,,,,,,,,,,,,,,,,,,,,,,,,,,,,,,,,,,,,,,,,,,,,,,,,,,,,,,,,,,
,,60ee0205933c5e01fb46bdeb,2024-02-22_03h25.16.960,kallum_motion_pilot,2023.2.2,Win32,144.9275362,60ee0205933c5e01fb46bdeb,65d6bb0e977760de756971f7,65d6be8fd2fb402f9170e84f,0.0521,0.0521,1,83,245,54,1,fourtwo,,,,,,,,,,,,,,,,,,,,,,,,,,,,,,,,,,,,,,,,,,,,,,,,,,,,,,,,,,,,,,,,,,,,,,,,,,,,,,,,,,,,,,,,,,,,,,,,,,,,,,,,,,,,,,,,,,,,,,,,,,,,,,,,,,,,,,,,,
,,60ee0205933c5e01fb46bdeb,2024-02-22_03h25.16.960,kallum_motion_pilot,2023.2.2,Win32,144.9275362,60ee0205933c5e01fb46bdeb,65d6bb0e977760de756971f7,65d6be8fd2fb402f9170e84f,0.0521,0.0522,1,84,246,160,1,fivesix,,,,,,,,,,,,,,,,,,,,,,,,,,,,,,,,,,,,,,,,,,,,,,,,,,,,,,,,,,,,,,,,,,,,,,,,,,,,,,,,,,,,,,,,,,,,,,,,,,,,,,,,,,,,,,,,,,,,,,,,,,,,,,,,,,,,,,,,,
,,60ee0205933c5e01fb46bdeb,2024-02-22_03h25.16.960,kallum_motion_pilot,2023.2.2,Win32,144.9275362,60ee0205933c5e01fb46bdeb,65d6bb0e977760de756971f7,65d6be8fd2fb402f9170e84f,0.0522,0.0524,1,85,247,126,1,eightsix,,,,,,,,,,,,,,,,,,,,,,,,,,,,,,,,,,,,,,,,,,,,,,,,,,,,,,,,,,,,,,,,,,,,,,,,,,,,,,,,,,,,,,,,,,,,,,,,,,,,,,,,,,,,,,,,,,,,,,,,,,,,,,,,,,,,,,,,,
,,60ee0205933c5e01fb46bdeb,2024-02-22_03h25.16.960,kallum_motion_pilot,2023.2.2,Win32,144.9275362,60ee0205933c5e01fb46bdeb,65d6bb0e977760de756971f7,65d6be8fd2fb402f9170e84f,0.0524,0.0524,1,86,248,109,1,seveneight,,,,,,,,,,,,,,,,,,,,,,,,,,,,,,,,,,,,,,,,,,,,,,,,,,,,,,,,,,,,,,,,,,,,,,,,,,,,,,,,,,,,,,,,,,,,,,,,,,,,,,,,,,,,,,,,,,,,,,,,,,,,,,,,,,,,,,,,,
,,60ee0205933c5e01fb46bdeb,2024-02-22_03h25.16.960,kallum_motion_pilot,2023.2.2,Win32,144.9275362,60ee0205933c5e01fb46bdeb,65d6bb0e977760de756971f7,65d6be8fd2fb402f9170e84f,0.0525,0.0525,1,87,249,123,1,sixeight,,,,,,,,,,,,,,,,,,,,,,,,,,,,,,,,,,,,,,,,,,,,,,,,,,,,,,,,,,,,,,,,,,,,,,,,,,,,,,,,,,,,,,,,,,,,,,,,,,,,,,,,,,,,,,,,,,,,,,,,,,,,,,,,,,,,,,,,,
,,60ee0205933c5e01fb46bdeb,2024-02-22_03h25.16.960,kallum_motion_pilot,2023.2.2,Win32,144.9275362,60ee0205933c5e01fb46bdeb,65d6bb0e977760de756971f7,65d6be8fd2fb402f9170e84f,0.0526,0.0526,1,88,250,107,1,sixeight,,,,,,,,,,,,,,,,,,,,,,,,,,,,,,,,,,,,,,,,,,,,,,,,,,,,,,,,,,,,,,,,,,,,,,,,,,,,,,,,,,,,,,,,,,,,,,,,,,,,,,,,,,,,,,,,,,,,,,,,,,,,,,,,,,,,,,,,,
,,60ee0205933c5e01fb46bdeb,2024-02-22_03h25.16.960,kallum_motion_pilot,2023.2.2,Win32,144.9275362,60ee0205933c5e01fb46bdeb,65d6bb0e977760de756971f7,65d6be8fd2fb402f9170e84f,0.0527,0.0528,1,89,251,133,1,seveneight,,,,,,,,,,,,,,,,,,,,,,,,,,,,,,,,,,,,,,,,,,,,,,,,,,,,,,,,,,,,,,,,,,,,,,,,,,,,,,,,,,,,,,,,,,,,,,,,,,,,,,,,,,,,,,,,,,,,,,,,,,,,,,,,,,,,,,,,,
,,60ee0205933c5e01fb46bdeb,2024-02-22_03h25.16.960,kallum_motion_pilot,2023.2.2,Win32,144.9275362,60ee0205933c5e01fb46bdeb,65d6bb0e977760de756971f7,65d6be8fd2fb402f9170e84f,0.0528,0.0529,1,90,252,116,1,sevenfive,,,,,,,,,,,,,,,,,,,,,,,,,,,,,,,,,,,,,,,,,,,,,,,,,,,,,,,,,,,,,,,,,,,,,,,,,,,,,,,,,,,,,,,,,,,,,,,,,,,,,,,,,,,,,,,,,,,,,,,,,,,,,,,,,,,,,,,,,
,,60ee0205933c5e01fb46bdeb,2024-02-22_03h25.16.960,kallum_motion_pilot,2023.2.2,Win32,144.9275362,60ee0205933c5e01fb46bdeb,65d6bb0e977760de756971f7,65d6be8fd2fb402f9170e84f,0.0529,0.053,1,91,253,31,1,fourthree,,,,,,,,,,,,,,,,,,,,,,,,,,,,,,,,,,,,,,,,,,,,,,,,,,,,,,,,,,,,,,,,,,,,,,,,,,,,,,,,,,,,,,,,,,,,,,,,,,,,,,,,,,,,,,,,,,,,,,,,,,,,,,,,,,,,,,,,,
,,60ee0205933c5e01fb46bdeb,2024-02-22_03h25.16.960,kallum_motion_pilot,2023.2.2,Win32,144.9275362,60ee0205933c5e01fb46bdeb,65d6bb0e977760de756971f7,65d6be8fd2fb402f9170e84f,0.053,0.0531,1,92,254,45,1,threefour,,,,,,,,,,,,,,,,,,,,,,,,,,,,,,,,,,,,,,,,,,,,,,,,,,,,,,,,,,,,,,,,,,,,,,,,,,,,,,,,,,,,,,,,,,,,,,,,,,,,,,,,,,,,,,,,,,,,,,,,,,,,,,,,,,,,,,,,,
,,60ee0205933c5e01fb46bdeb,2024-02-22_03h25.16.960,kallum_motion_pilot,2023.2.2,Win32,144.9275362,60ee0205933c5e01fb46bdeb,65d6bb0e977760de756971f7,65d6be8fd2fb402f9170e84f,0.0533,0.0533,1,93,255,111,1,eightseven,,,,,,,,,,,,,,,,,,,,,,,,,,,,,,,,,,,,,,,,,,,,,,,,,,,,,,,,,,,,,,,,,,,,,,,,,,,,,,,,,,,,,,,,,,,,,,,,,,,,,,,,,,,,,,,,,,,,,,,,,,,,,,,,,,,,,,,,,
,,60ee0205933c5e01fb46bdeb,2024-02-22_03h25.16.960,kallum_motion_pilot,2023.2.2,Win32,144.9275362,60ee0205933c5e01fb46bdeb,65d6bb0e977760de756971f7,65d6be8fd2fb402f9170e84f,0.0534,0.0535,1,94,256,139,1,sixeight,,,,,,,,,,,,,,,,,,,,,,,,,,,,,,,,,,,,,,,,,,,,,,,,,,,,,,,,,,,,,,,,,,,,,,,,,,,,,,,,,,,,,,,,,,,,,,,,,,,,,,,,,,,,,,,,,,,,,,,,,,,,,,,,,,,,,,,,,
,,60ee0205933c5e01fb46bdeb,2024-02-22_03h25.16.960,kallum_motion_pilot,2023.2.2,Win32,144.9275362,60ee0205933c5e01fb46bdeb,65d6bb0e977760de756971f7,65d6be8fd2fb402f9170e84f,0.0535,0.0535,1,95,257,99,1,sixeight,,,,,,,,,,,,,,,,,,,,,,,,,,,,,,,,,,,,,,,,,,,,,,,,,,,,,,,,,,,,,,,,,,,,,,,,,,,,,,,,,,,,,,,,,,,,,,,,,,,,,,,,,,,,,,,,,,,,,,,,,,,,,,,,,,,,,,,,,
,,60ee0205933c5e01fb46bdeb,2024-02-22_03h25.16.960,kallum_motion_pilot,2023.2.2,Win32,144.9275362,60ee0205933c5e01fb46bdeb,65d6bb0e977760de756971f7,65d6be8fd2fb402f9170e84f,0.0536,0.0536,1,96,258,88,1,fivesix,,,,,,,,,,,,,,,,,,,,,,,,,,,,,,,,,,,,,,,,,,,,,,,,,,,,,,,,,,,,,,,,,,,,,,,,,,,,,,,,,,,,,,,,,,,,,,,,,,,,,,,,,,,,,,,,,,,,,,,,,,,,,,,,,,,,,,,,,
,,60ee0205933c5e01fb46bdeb,2024-02-22_03h25.16.960,kallum_motion_pilot,2023.2.2,Win32,144.9275362,60ee0205933c5e01fb46bdeb,65d6bb0e977760de756971f7,65d6be8fd2fb402f9170e84f,0.0537,0.0538,1,97,259,73,1,onethree,,,,,,,,,,,,,,,,,,,,,,,,,,,,,,,,,,,,,,,,,,,,,,,,,,,,,,,,,,,,,,,,,,,,,,,,,,,,,,,,,,,,,,,,,,,,,,,,,,,,,,,,,,,,,,,,,,,,,,,,,,,,,,,,,,,,,,,,,
,,60ee0205933c5e01fb46bdeb,2024-02-22_03h25.16.960,kallum_motion_pilot,2023.2.2,Win32,144.9275362,60ee0205933c5e01fb46bdeb,65d6bb0e977760de756971f7,65d6be8fd2fb402f9170e84f,0.0539,0.0539,1,98,260,153,1,fiveseven,,,,,,,,,,,,,,,,,,,,,,,,,,,,,,,,,,,,,,,,,,,,,,,,,,,,,,,,,,,,,,,,,,,,,,,,,,,,,,,,,,,,,,,,,,,,,,,,,,,,,,,,,,,,,,,,,,,,,,,,,,,,,,,,,,,,,,,,,
,,60ee0205933c5e01fb46bdeb,2024-02-22_03h25.16.960,kallum_motion_pilot,2023.2.2,Win32,144.9275362,60ee0205933c5e01fb46bdeb,65d6bb0e977760de756971f7,65d6be8fd2fb402f9170e84f,0.0539,0.054,1,99,261,2,1,twoone,,,,,,,,,,,,,,,,,,,,,,,,,,,,,,,,,,,,,,,,,,,,,,,,,,,,,,,,,,,,,,,,,,,,,,,,,,,,,,,,,,,,,,,,,,,,,,,,,,,,,,,,,,,,,,,,,,,,,,,,,,,,,,,,,,,,,,,,,
,,60ee0205933c5e01fb46bdeb,2024-02-22_03h25.16.960,kallum_motion_pilot,2023.2.2,Win32,144.9275362,60ee0205933c5e01fb46bdeb,65d6bb0e977760de756971f7,65d6be8fd2fb402f9170e84f,0.054,0.0541,1,100,262,49,1,onethree,,,,,,,,,,,,,,,,,,,,,,,,,,,,,,,,,,,,,,,,,,,,,,,,,,,,,,,,,,,,,,,,,,,,,,,,,,,,,,,,,,,,,,,,,,,,,,,,,,,,,,,,,,,,,,,,,,,,,,,,,,,,,,,,,,,,,,,,,
,,60ee0205933c5e01fb46bdeb,2024-02-22_03h25.16.960,kallum_motion_pilot,2023.2.2,Win32,144.9275362,60ee0205933c5e01fb46bdeb,65d6bb0e977760de756971f7,65d6be8fd2fb402f9170e84f,0.0542,0.0542,1,101,263,91,1,sixeight,,,,,,,,,,,,,,,,,,,,,,,,,,,,,,,,,,,,,,,,,,,,,,,,,,,,,,,,,,,,,,,,,,,,,,,,,,,,,,,,,,,,,,,,,,,,,,,,,,,,,,,,,,,,,,,,,,,,,,,,,,,,,,,,,,,,,,,,,
,,60ee0205933c5e01fb46bdeb,2024-02-22_03h25.16.960,kallum_motion_pilot,2023.2.2,Win32,144.9275362,60ee0205933c5e01fb46bdeb,65d6bb0e977760de756971f7,65d6be8fd2fb402f9170e84f,0.0543,0.0544,1,102,264,32,1,onetwo,,,,,,,,,,,,,,,,,,,,,,,,,,,,,,,,,,,,,,,,,,,,,,,,,,,,,,,,,,,,,,,,,,,,,,,,,,,,,,,,,,,,,,,,,,,,,,,,,,,,,,,,,,,,,,,,,,,,,,,,,,,,,,,,,,,,,,,,,
,,60ee0205933c5e01fb46bdeb,2024-02-22_03h25.16.960,kallum_motion_pilot,2023.2.2,Win32,144.9275362,60ee0205933c5e01fb46bdeb,65d6bb0e977760de756971f7,65d6be8fd2fb402f9170e84f,0.0544,0.0545,1,103,265,125,1,seveneight,,,,,,,,,,,,,,,,,,,,,,,,,,,,,,,,,,,,,,,,,,,,,,,,,,,,,,,,,,,,,,,,,,,,,,,,,,,,,,,,,,,,,,,,,,,,,,,,,,,,,,,,,,,,,,,,,,,,,,,,,,,,,,,,,,,,,,,,,
,,60ee0205933c5e01fb46bdeb,2024-02-22_03h25.16.960,kallum_motion_pilot,2023.2.2,Win32,144.9275362,60ee0205933c5e01fb46bdeb,65d6bb0e977760de756971f7,65d6be8fd2fb402f9170e84f,0.0546,0.0547,1,104,266,128,1,fivesix,,,,,,,,,,,,,,,,,,,,,,,,,,,,,,,,,,,,,,,,,,,,,,,,,,,,,,,,,,,,,,,,,,,,,,,,,,,,,,,,,,,,,,,,,,,,,,,,,,,,,,,,,,,,,,,,,,,,,,,,,,,,,,,,,,,,,,,,,
,,60ee0205933c5e01fb46bdeb,2024-02-22_03h25.16.960,kallum_motion_pilot,2023.2.2,Win32,144.9275362,60ee0205933c5e01fb46bdeb,65d6bb0e977760de756971f7,65d6be8fd2fb402f9170e84f,0.0547,0.0548,1,105,267,20,1,threeone,,,,,,,,,,,,,,,,,,,,,,,,,,,,,,,,,,,,,,,,,,,,,,,,,,,,,,,,,,,,,,,,,,,,,,,,,,,,,,,,,,,,,,,,,,,,,,,,,,,,,,,,,,,,,,,,,,,,,,,,,,,,,,,,,,,,,,,,,
,,60ee0205933c5e01fb46bdeb,2024-02-22_03h25.16.960,kallum_motion_pilot,2023.2.2,Win32,144.9275362,60ee0205933c5e01fb46bdeb,65d6bb0e977760de756971f7,65d6be8fd2fb402f9170e84f,0.0549,0.0549,1,106,268,131,1,sixeight,,,,,,,,,,,,,,,,,,,,,,,,,,,,,,,,,,,,,,,,,,,,,,,,,,,,,,,,,,,,,,,,,,,,,,,,,,,,,,,,,,,,,,,,,,,,,,,,,,,,,,,,,,,,,,,,,,,,,,,,,,,,,,,,,,,,,,,,,
,,60ee0205933c5e01fb46bdeb,2024-02-22_03h25.16.960,kallum_motion_pilot,2023.2.2,Win32,144.9275362,60ee0205933c5e01fb46bdeb,65d6bb0e977760de756971f7,65d6be8fd2fb402f9170e84f,0.055,0.0551,1,107,269,58,1,twoone,,,,,,,,,,,,,,,,,,,,,,,,,,,,,,,,,,,,,,,,,,,,,,,,,,,,,,,,,,,,,,,,,,,,,,,,,,,,,,,,,,,,,,,,,,,,,,,,,,,,,,,,,,,,,,,,,,,,,,,,,,,,,,,,,,,,,,,,,
,,60ee0205933c5e01fb46bdeb,2024-02-22_03h25.16.960,kallum_motion_pilot,2023.2.2,Win32,144.9275362,60ee0205933c5e01fb46bdeb,65d6bb0e977760de756971f7,65d6be8fd2fb402f9170e84f,0.0551,0.0551,1,108,270,48,1,onetwo,,,,,,,,,,,,,,,,,,,,,,,,,,,,,,,,,,,,,,,,,,,,,,,,,,,,,,,,,,,,,,,,,,,,,,,,,,,,,,,,,,,,,,,,,,,,,,,,,,,,,,,,,,,,,,,,,,,,,,,,,,,,,,,,,,,,,,,,,
,,60ee0205933c5e01fb46bdeb,2024-02-22_03h25.16.960,kallum_motion_pilot,2023.2.2,Win32,144.9275362,60ee0205933c5e01fb46bdeb,65d6bb0e977760de756971f7,65d6be8fd2fb402f9170e84f,0.0552,0.0553,1,109,271,96,1,fivesix,,,,,,,,,,,,,,,,,,,,,,,,,,,,,,,,,,,,,,,,,,,,,,,,,,,,,,,,,,,,,,,,,,,,,,,,,,,,,,,,,,,,,,,,,,,,,,,,,,,,,,,,,,,,,,,,,,,,,,,,,,,,,,,,,,,,,,,,,
,,60ee0205933c5e01fb46bdeb,2024-02-22_03h25.16.960,kallum_motion_pilot,2023.2.2,Win32,144.9275362,60ee0205933c5e01fb46bdeb,65d6bb0e977760de756971f7,65d6be8fd2fb402f9170e84f,0.0553,0.0553,1,110,272,40,1,onetwo,,,,,,,,,,,,,,,,,,,,,,,,,,,,,,,,,,,,,,,,,,,,,,,,,,,,,,,,,,,,,,,,,,,,,,,,,,,,,,,,,,,,,,,,,,,,,,,,,,,,,,,,,,,,,,,,,,,,,,,,,,,,,,,,,,,,,,,,,
,,60ee0205933c5e01fb46bdeb,2024-02-22_03h25.16.960,kallum_motion_pilot,2023.2.2,Win32,144.9275362,60ee0205933c5e01fb46bdeb,65d6bb0e977760de756971f7,65d6be8fd2fb402f9170e84f,0.0554,0.0555,1,111,273,62,1,fourtwo,,,,,,,,,,,,,,,,,,,,,,,,,,,,,,,,,,,,,,,,,,,,,,,,,,,,,,,,,,,,,,,,,,,,,,,,,,,,,,,,,,,,,,,,,,,,,,,,,,,,,,,,,,,,,,,,,,,,,,,,,,,,,,,,,,,,,,,,,
,,60ee0205933c5e01fb46bdeb,2024-02-22_03h25.16.960,kallum_motion_pilot,2023.2.2,Win32,144.9275362,60ee0205933c5e01fb46bdeb,65d6bb0e977760de756971f7,65d6be8fd2fb402f9170e84f,0.0556,0.0556,1,112,274,80,1,fivesix,,,,,,,,,,,,,,,,,,,,,,,,,,,,,,,,,,,,,,,,,,,,,,,,,,,,,,,,,,,,,,,,,,,,,,,,,,,,,,,,,,,,,,,,,,,,,,,,,,,,,,,,,,,,,,,,,,,,,,,,,,,,,,,,,,,,,,,,,
,,60ee0205933c5e01fb46bdeb,2024-02-22_03h25.16.960,kallum_motion_pilot,2023.2.2,Win32,144.9275362,60ee0205933c5e01fb46bdeb,65d6bb0e977760de756971f7,65d6be8fd2fb402f9170e84f,0.0557,0.0558,1,113,275,50,1,twoone,,,,,,,,,,,,,,,,,,,,,,,,,,,,,,,,,,,,,,,,,,,,,,,,,,,,,,,,,,,,,,,,,,,,,,,,,,,,,,,,,,,,,,,,,,,,,,,,,,,,,,,,,,,,,,,,,,,,,,,,,,,,,,,,,,,,,,,,,
,,60ee0205933c5e01fb46bdeb,2024-02-22_03h25.16.960,kallum_motion_pilot,2023.2.2,Win32,144.9275362,60ee0205933c5e01fb46bdeb,65d6bb0e977760de756971f7,65d6be8fd2fb402f9170e84f,0.0558,0.0559,1,114,276,26,1,twoone,,,,,,,,,,,,,,,,,,,,,,,,,,,,,,,,,,,,,,,,,,,,,,,,,,,,,,,,,,,,,,,,,,,,,,,,,,,,,,,,,,,,,,,,,,,,,,,,,,,,,,,,,,,,,,,,,,,,,,,,,,,,,,,,,,,,,,,,,
,,60ee0205933c5e01fb46bdeb,2024-02-22_03h25.16.960,kallum_motion_pilot,2023.2.2,Win32,144.9275362,60ee0205933c5e01fb46bdeb,65d6bb0e977760de756971f7,65d6be8fd2fb402f9170e84f,0.0559,0.0559,1,115,277,151,1,eightseven,,,,,,,,,,,,,,,,,,,,,,,,,,,,,,,,,,,,,,,,,,,,,,,,,,,,,,,,,,,,,,,,,,,,,,,,,,,,,,,,,,,,,,,,,,,,,,,,,,,,,,,,,,,,,,,,,,,,,,,,,,,,,,,,,,,,,,,,,
