startup.started,startup.stopped,Prolific ID*,date,expName,psychopyVersion,OS,frameRate,participant,study_id,session,stimpositions.started,stimpositions.stopped,hardcoded_stimulus_positions.thisRepN,hardcoded_stimulus_positions.thisTrialN,hardcoded_stimulus_positions.thisN,hardcoded_stimulus_positions.thisIndex,hardcoded_stimulus_positions.ran,StimulusPos,stimorientation.started,stimorientation.stopped,prac_stimorientation_import_loop.thisRepN,prac_stimorientation_import_loop.thisTrialN,prac_stimorientation_import_loop.thisN,prac_stimorientation_import_loop.thisIndex,prac_stimorientation_import_loop.ran,Stimorientation,welcome_instr.started,welcome_instr.stopped,key_resp.keys,key_resp.rt,key_resp.duration,response_steppedout_1.started,response_steppedout_1.stopped,key_resp_20.keys,key_resp_20.rt,key_resp_20.duration,response_steppedout_2.started,response_steppedout_2.stopped,key_resp_19.keys,key_resp_19.rt,key_resp_19.duration,stim_response_instr.started,stim_response_instr.stopped,key_resp_15.keys,key_resp_15.rt,key_resp_15.duration,direction_instr_2.started,direction_instr_2.stopped,key_resp_9.keys,key_resp_9.rt,key_resp_9.duration,instr_prac.started,instr_prac.stopped,key_resp_10.keys,key_resp_10.rt,key_resp_10.duration,Stim1_display_prac.started,Stim1_display_prac.stopped,Ecc,Circle1_ori,Circle2_ori,response_prac.started,similarity,response_time,response_prac.stopped,mouse_5.x,mouse_5.y,mouse_5.leftButton,mouse_5.midButton,mouse_5.rightButton,mouse_5.clicked_name,responseprac_feedback.started,responseprac_feedback.stopped,summary2_prac.started,summary2_prac.stopped,mouse_6.x,mouse_6.y,mouse_6.leftButton,mouse_6.midButton,mouse_6.rightButton,mouse_6.clicked_name,duringprac.thisRepN,duringprac.thisTrialN,duringprac.thisN,duringprac.thisIndex,duringprac.ran,begin.started,begin.stopped,key_resp_22.keys,key_resp_22.rt,key_resp_22.duration,Stim1_display.started,Stim1_display.stopped,circle1_ori,circle2_ori,circle1_SF,circle2_SF,response.started,response.stopped,mouse.x,mouse.y,mouse.leftButton,mouse.midButton,mouse.rightButton,mouse.clicked_name,trialnumber,double_pass.thisRepN,double_pass.thisTrialN,double_pass.thisN,double_pass.thisIndex,double_pass.ran,double_pass.order,main_trial.thisRepN,main_trial.thisTrialN,main_trial.thisN,main_trial.thisIndex,main_trial.ran,main_trial.order,Trial_Counter,Catch,Frequencies,response_2.started,response_2.stopped,mouse_2.x,mouse_2.y,mouse_2.leftButton,mouse_2.midButton,mouse_2.rightButton,mouse_2.clicked_name,special_trial.started,special_trial.stopped,catch_1.started,catch_1.stopped,mouse_3.x,mouse_3.y,mouse_3.leftButton,mouse_3.midButton,mouse_3.rightButton,catchresponse,catchnumber,response_time_catch,response_sum.started,response_sum.stopped,mouse_11.x,mouse_11.y,mouse_11.leftButton,mouse_11.midButton,mouse_11.rightButton,flip_presentation_sequence_for_double_pass.started,flip_presentation_sequence_for_double_pass.stopped,goodbye.started,goodbye.stopped,key_resp_3.keys,key_resp_3.rt,key_resp_3.duration
0.0002,0.0003,6101a827b8842aefda82f60a,2024-02-22_24h21.05.520,kallum_motion_pilot,2023.2.2,Win32,74.07407407,6101a827b8842aefda82f60a,65d6bb0e977760de756971f7,65d6bd7865325b67b36fb079,,,,,,,,,,,,,,,,,,,,,,,,,,,,,,,,,,,,,,,,,,,,,,,,,,,,,,,,,,,,,,,,,,,,,,,,,,,,,,,,,,,,,,,,,,,,,,,,,,,,,,,,,,,,,,,,,,,,,,,,,,,,,,,,,,,,,,,,,,,,,,,,,
,,6101a827b8842aefda82f60a,2024-02-22_24h21.05.520,kallum_motion_pilot,2023.2.2,Win32,74.07407407,6101a827b8842aefda82f60a,65d6bb0e977760de756971f7,65d6bd7865325b67b36fb079,0.0169,0.017,0,0,0,135,1,eightseven,,,,,,,,,,,,,,,,,,,,,,,,,,,,,,,,,,,,,,,,,,,,,,,,,,,,,,,,,,,,,,,,,,,,,,,,,,,,,,,,,,,,,,,,,,,,,,,,,,,,,,,,,,,,,,,,,,,,,,,,,,,,,,,,,,,,,,,,,
,,6101a827b8842aefda82f60a,2024-02-22_24h21.05.520,kallum_motion_pilot,2023.2.2,Win32,74.07407407,6101a827b8842aefda82f60a,65d6bb0e977760de756971f7,65d6bd7865325b67b36fb079,0.0172,0.0172,0,1,1,40,1,onetwo,,,,,,,,,,,,,,,,,,,,,,,,,,,,,,,,,,,,,,,,,,,,,,,,,,,,,,,,,,,,,,,,,,,,,,,,,,,,,,,,,,,,,,,,,,,,,,,,,,,,,,,,,,,,,,,,,,,,,,,,,,,,,,,,,,,,,,,,,
,,6101a827b8842aefda82f60a,2024-02-22_24h21.05.520,kallum_motion_pilot,2023.2.2,Win32,74.07407407,6101a827b8842aefda82f60a,65d6bb0e977760de756971f7,65d6bd7865325b67b36fb079,0.0172,0.0172,0,2,2,7,1,fourthree,,,,,,,,,,,,,,,,,,,,,,,,,,,,,,,,,,,,,,,,,,,,,,,,,,,,,,,,,,,,,,,,,,,,,,,,,,,,,,,,,,,,,,,,,,,,,,,,,,,,,,,,,,,,,,,,,,,,,,,,,,,,,,,,,,,,,,,,,
,,6101a827b8842aefda82f60a,2024-02-22_24h21.05.520,kallum_motion_pilot,2023.2.2,Win32,74.07407407,6101a827b8842aefda82f60a,65d6bb0e977760de756971f7,65d6bd7865325b67b36fb079,0.0173,0.0173,0,3,3,144,1,fivesix,,,,,,,,,,,,,,,,,,,,,,,,,,,,,,,,,,,,,,,,,,,,,,,,,,,,,,,,,,,,,,,,,,,,,,,,,,,,,,,,,,,,,,,,,,,,,,,,,,,,,,,,,,,,,,,,,,,,,,,,,,,,,,,,,,,,,,,,,
,,6101a827b8842aefda82f60a,2024-02-22_24h21.05.520,kallum_motion_pilot,2023.2.2,Win32,74.07407407,6101a827b8842aefda82f60a,65d6bb0e977760de756971f7,65d6bd7865325b67b36fb079,0.0173,0.0173,0,4,4,63,1,fourthree,,,,,,,,,,,,,,,,,,,,,,,,,,,,,,,,,,,,,,,,,,,,,,,,,,,,,,,,,,,,,,,,,,,,,,,,,,,,,,,,,,,,,,,,,,,,,,,,,,,,,,,,,,,,,,,,,,,,,,,,,,,,,,,,,,,,,,,,,
,,6101a827b8842aefda82f60a,2024-02-22_24h21.05.520,kallum_motion_pilot,2023.2.2,Win32,74.07407407,6101a827b8842aefda82f60a,65d6bb0e977760de756971f7,65d6bd7865325b67b36fb079,0.0175,0.0175,0,5,5,105,1,fiveseven,,,,,,,,,,,,,,,,,,,,,,,,,,,,,,,,,,,,,,,,,,,,,,,,,,,,,,,,,,,,,,,,,,,,,,,,,,,,,,,,,,,,,,,,,,,,,,,,,,,,,,,,,,,,,,,,,,,,,,,,,,,,,,,,,,,,,,,,,
,,6101a827b8842aefda82f60a,2024-02-22_24h21.05.520,kallum_motion_pilot,2023.2.2,Win32,74.07407407,6101a827b8842aefda82f60a,65d6bb0e977760de756971f7,65d6bd7865325b67b36fb079,0.0175,0.0175,0,6,6,79,1,eightseven,,,,,,,,,,,,,,,,,,,,,,,,,,,,,,,,,,,,,,,,,,,,,,,,,,,,,,,,,,,,,,,,,,,,,,,,,,,,,,,,,,,,,,,,,,,,,,,,,,,,,,,,,,,,,,,,,,,,,,,,,,,,,,,,,,,,,,,,,
,,6101a827b8842aefda82f60a,2024-02-22_24h21.05.520,kallum_motion_pilot,2023.2.2,Win32,74.07407407,6101a827b8842aefda82f60a,65d6bb0e977760de756971f7,65d6bd7865325b67b36fb079,0.0176,0.0176,0,7,7,104,1,fivesix,,,,,,,,,,,,,,,,,,,,,,,,,,,,,,,,,,,,,,,,,,,,,,,,,,,,,,,,,,,,,,,,,,,,,,,,,,,,,,,,,,,,,,,,,,,,,,,,,,,,,,,,,,,,,,,,,,,,,,,,,,,,,,,,,,,,,,,,,
,,6101a827b8842aefda82f60a,2024-02-22_24h21.05.520,kallum_motion_pilot,2023.2.2,Win32,74.07407407,6101a827b8842aefda82f60a,65d6bb0e977760de756971f7,65d6bd7865325b67b36fb079,0.0177,0.0177,0,8,8,81,1,fiveseven,,,,,,,,,,,,,,,,,,,,,,,,,,,,,,,,,,,,,,,,,,,,,,,,,,,,,,,,,,,,,,,,,,,,,,,,,,,,,,,,,,,,,,,,,,,,,,,,,,,,,,,,,,,,,,,,,,,,,,,,,,,,,,,,,,,,,,,,,
,,6101a827b8842aefda82f60a,2024-02-22_24h21.05.520,kallum_motion_pilot,2023.2.2,Win32,74.07407407,6101a827b8842aefda82f60a,65d6bb0e977760de756971f7,65d6bd7865325b67b36fb079,0.0177,0.0177,0,9,9,134,1,eightsix,,,,,,,,,,,,,,,,,,,,,,,,,,,,,,,,,,,,,,,,,,,,,,,,,,,,,,,,,,,,,,,,,,,,,,,,,,,,,,,,,,,,,,,,,,,,,,,,,,,,,,,,,,,,,,,,,,,,,,,,,,,,,,,,,,,,,,,,,
,,6101a827b8842aefda82f60a,2024-02-22_24h21.05.520,kallum_motion_pilot,2023.2.2,Win32,74.07407407,6101a827b8842aefda82f60a,65d6bb0e977760de756971f7,65d6bd7865325b67b36fb079,0.0178,0.0178,0,10,10,5,1,threefour,,,,,,,,,,,,,,,,,,,,,,,,,,,,,,,,,,,,,,,,,,,,,,,,,,,,,,,,,,,,,,,,,,,,,,,,,,,,,,,,,,,,,,,,,,,,,,,,,,,,,,,,,,,,,,,,,,,,,,,,,,,,,,,,,,,,,,,,,
,,6101a827b8842aefda82f60a,2024-02-22_24h21.05.520,kallum_motion_pilot,2023.2.2,Win32,74.07407407,6101a827b8842aefda82f60a,65d6bb0e977760de756971f7,65d6bd7865325b67b36fb079,0.0179,0.0179,0,11,11,115,1,sixeight,,,,,,,,,,,,,,,,,,,,,,,,,,,,,,,,,,,,,,,,,,,,,,,,,,,,,,,,,,,,,,,,,,,,,,,,,,,,,,,,,,,,,,,,,,,,,,,,,,,,,,,,,,,,,,,,,,,,,,,,,,,,,,,,,,,,,,,,,
,,6101a827b8842aefda82f60a,2024-02-22_24h21.05.520,kallum_motion_pilot,2023.2.2,Win32,74.07407407,6101a827b8842aefda82f60a,65d6bb0e977760de756971f7,65d6bd7865325b67b36fb079,0.0179,0.0179,0,12,12,108,1,sevenfive,,,,,,,,,,,,,,,,,,,,,,,,,,,,,,,,,,,,,,,,,,,,,,,,,,,,,,,,,,,,,,,,,,,,,,,,,,,,,,,,,,,,,,,,,,,,,,,,,,,,,,,,,,,,,,,,,,,,,,,,,,,,,,,,,,,,,,,,,
,,6101a827b8842aefda82f60a,2024-02-22_24h21.05.520,kallum_motion_pilot,2023.2.2,Win32,74.07407407,6101a827b8842aefda82f60a,65d6bb0e977760de756971f7,65d6bd7865325b67b36fb079,0.018,0.018,0,13,13,149,1,seveneight,,,,,,,,,,,,,,,,,,,,,,,,,,,,,,,,,,,,,,,,,,,,,,,,,,,,,,,,,,,,,,,,,,,,,,,,,,,,,,,,,,,,,,,,,,,,,,,,,,,,,,,,,,,,,,,,,,,,,,,,,,,,,,,,,,,,,,,,,
,,6101a827b8842aefda82f60a,2024-02-22_24h21.05.520,kallum_motion_pilot,2023.2.2,Win32,74.07407407,6101a827b8842aefda82f60a,65d6bb0e977760de756971f7,65d6bd7865325b67b36fb079,0.018,0.018,0,14,14,131,1,sixeight,,,,,,,,,,,,,,,,,,,,,,,,,,,,,,,,,,,,,,,,,,,,,,,,,,,,,,,,,,,,,,,,,,,,,,,,,,,,,,,,,,,,,,,,,,,,,,,,,,,,,,,,,,,,,,,,,,,,,,,,,,,,,,,,,,,,,,,,,
,,6101a827b8842aefda82f60a,2024-02-22_24h21.05.520,kallum_motion_pilot,2023.2.2,Win32,74.07407407,6101a827b8842aefda82f60a,65d6bb0e977760de756971f7,65d6bd7865325b67b36fb079,0.0181,0.0181,0,15,15,0,1,onetwo,,,,,,,,,,,,,,,,,,,,,,,,,,,,,,,,,,,,,,,,,,,,,,,,,,,,,,,,,,,,,,,,,,,,,,,,,,,,,,,,,,,,,,,,,,,,,,,,,,,,,,,,,,,,,,,,,,,,,,,,,,,,,,,,,,,,,,,,,
,,6101a827b8842aefda82f60a,2024-02-22_24h21.05.520,kallum_motion_pilot,2023.2.2,Win32,74.07407407,6101a827b8842aefda82f60a,65d6bb0e977760de756971f7,65d6bd7865325b67b36fb079,0.0181,0.0181,0,16,16,155,1,sixeight,,,,,,,,,,,,,,,,,,,,,,,,,,,,,,,,,,,,,,,,,,,,,,,,,,,,,,,,,,,,,,,,,,,,,,,,,,,,,,,,,,,,,,,,,,,,,,,,,,,,,,,,,,,,,,,,,,,,,,,,,,,,,,,,,,,,,,,,,
,,6101a827b8842aefda82f60a,2024-02-22_24h21.05.520,kallum_motion_pilot,2023.2.2,Win32,74.07407407,6101a827b8842aefda82f60a,65d6bb0e977760de756971f7,65d6bd7865325b67b36fb079,0.0181,0.0181,0,17,17,37,1,threefour,,,,,,,,,,,,,,,,,,,,,,,,,,,,,,,,,,,,,,,,,,,,,,,,,,,,,,,,,,,,,,,,,,,,,,,,,,,,,,,,,,,,,,,,,,,,,,,,,,,,,,,,,,,,,,,,,,,,,,,,,,,,,,,,,,,,,,,,,
,,6101a827b8842aefda82f60a,2024-02-22_24h21.05.520,kallum_motion_pilot,2023.2.2,Win32,74.07407407,6101a827b8842aefda82f60a,65d6bb0e977760de756971f7,65d6bd7865325b67b36fb079,0.0182,0.0182,0,18,18,87,1,eightseven,,,,,,,,,,,,,,,,,,,,,,,,,,,,,,,,,,,,,,,,,,,,,,,,,,,,,,,,,,,,,,,,,,,,,,,,,,,,,,,,,,,,,,,,,,,,,,,,,,,,,,,,,,,,,,,,,,,,,,,,,,,,,,,,,,,,,,,,,
,,6101a827b8842aefda82f60a,2024-02-22_24h21.05.520,kallum_motion_pilot,2023.2.2,Win32,74.07407407,6101a827b8842aefda82f60a,65d6bb0e977760de756971f7,65d6bd7865325b67b36fb079,0.0183,0.0183,0,19,19,45,1,threefour,,,,,,,,,,,,,,,,,,,,,,,,,,,,,,,,,,,,,,,,,,,,,,,,,,,,,,,,,,,,,,,,,,,,,,,,,,,,,,,,,,,,,,,,,,,,,,,,,,,,,,,,,,,,,,,,,,,,,,,,,,,,,,,,,,,,,,,,,
,,6101a827b8842aefda82f60a,2024-02-22_24h21.05.520,kallum_motion_pilot,2023.2.2,Win32,74.07407407,6101a827b8842aefda82f60a,65d6bb0e977760de756971f7,65d6bd7865325b67b36fb079,0.0183,0.0183,0,20,20,153,1,fiveseven,,,,,,,,,,,,,,,,,,,,,,,,,,,,,,,,,,,,,,,,,,,,,,,,,,,,,,,,,,,,,,,,,,,,,,,,,,,,,,,,,,,,,,,,,,,,,,,,,,,,,,,,,,,,,,,,,,,,,,,,,,,,,,,,,,,,,,,,,
,,6101a827b8842aefda82f60a,2024-02-22_24h21.05.520,kallum_motion_pilot,2023.2.2,Win32,74.07407407,6101a827b8842aefda82f60a,65d6bb0e977760de756971f7,65d6bd7865325b67b36fb079,0.0184,0.0184,0,21,21,128,1,fivesix,,,,,,,,,,,,,,,,,,,,,,,,,,,,,,,,,,,,,,,,,,,,,,,,,,,,,,,,,,,,,,,,,,,,,,,,,,,,,,,,,,,,,,,,,,,,,,,,,,,,,,,,,,,,,,,,,,,,,,,,,,,,,,,,,,,,,,,,,
,,6101a827b8842aefda82f60a,2024-02-22_24h21.05.520,kallum_motion_pilot,2023.2.2,Win32,74.07407407,6101a827b8842aefda82f60a,65d6bb0e977760de756971f7,65d6bd7865325b67b36fb079,0.0184,0.0184,0,22,22,54,1,fourtwo,,,,,,,,,,,,,,,,,,,,,,,,,,,,,,,,,,,,,,,,,,,,,,,,,,,,,,,,,,,,,,,,,,,,,,,,,,,,,,,,,,,,,,,,,,,,,,,,,,,,,,,,,,,,,,,,,,,,,,,,,,,,,,,,,,,,,,,,,
,,6101a827b8842aefda82f60a,2024-02-22_24h21.05.520,kallum_motion_pilot,2023.2.2,Win32,74.07407407,6101a827b8842aefda82f60a,65d6bb0e977760de756971f7,65d6bd7865325b67b36fb079,0.0185,0.0185,0,23,23,140,1,sevenfive,,,,,,,,,,,,,,,,,,,,,,,,,,,,,,,,,,,,,,,,,,,,,,,,,,,,,,,,,,,,,,,,,,,,,,,,,,,,,,,,,,,,,,,,,,,,,,,,,,,,,,,,,,,,,,,,,,,,,,,,,,,,,,,,,,,,,,,,,
,,6101a827b8842aefda82f60a,2024-02-22_24h21.05.520,kallum_motion_pilot,2023.2.2,Win32,74.07407407,6101a827b8842aefda82f60a,65d6bb0e977760de756971f7,65d6bd7865325b67b36fb079,0.0186,0.0186,0,24,24,10,1,twoone,,,,,,,,,,,,,,,,,,,,,,,,,,,,,,,,,,,,,,,,,,,,,,,,,,,,,,,,,,,,,,,,,,,,,,,,,,,,,,,,,,,,,,,,,,,,,,,,,,,,,,,,,,,,,,,,,,,,,,,,,,,,,,,,,,,,,,,,,
,,6101a827b8842aefda82f60a,2024-02-22_24h21.05.520,kallum_motion_pilot,2023.2.2,Win32,74.07407407,6101a827b8842aefda82f60a,65d6bb0e977760de756971f7,65d6bd7865325b67b36fb079,0.0186,0.0187,0,25,25,2,1,twoone,,,,,,,,,,,,,,,,,,,,,,,,,,,,,,,,,,,,,,,,,,,,,,,,,,,,,,,,,,,,,,,,,,,,,,,,,,,,,,,,,,,,,,,,,,,,,,,,,,,,,,,,,,,,,,,,,,,,,,,,,,,,,,,,,,,,,,,,,
,,6101a827b8842aefda82f60a,2024-02-22_24h21.05.520,kallum_motion_pilot,2023.2.2,Win32,74.07407407,6101a827b8842aefda82f60a,65d6bb0e977760de756971f7,65d6bd7865325b67b36fb079,0.0187,0.0187,0,26,26,154,1,sixfive,,,,,,,,,,,,,,,,,,,,,,,,,,,,,,,,,,,,,,,,,,,,,,,,,,,,,,,,,,,,,,,,,,,,,,,,,,,,,,,,,,,,,,,,,,,,,,,,,,,,,,,,,,,,,,,,,,,,,,,,,,,,,,,,,,,,,,,,,
,,6101a827b8842aefda82f60a,2024-02-22_24h21.05.520,kallum_motion_pilot,2023.2.2,Win32,74.07407407,6101a827b8842aefda82f60a,65d6bb0e977760de756971f7,65d6bd7865325b67b36fb079,0.0188,0.0188,0,27,27,52,1,threeone,,,,,,,,,,,,,,,,,,,,,,,,,,,,,,,,,,,,,,,,,,,,,,,,,,,,,,,,,,,,,,,,,,,,,,,,,,,,,,,,,,,,,,,,,,,,,,,,,,,,,,,,,,,,,,,,,,,,,,,,,,,,,,,,,,,,,,,,,
,,6101a827b8842aefda82f60a,2024-02-22_24h21.05.520,kallum_motion_pilot,2023.2.2,Win32,74.07407407,6101a827b8842aefda82f60a,65d6bb0e977760de756971f7,65d6bd7865325b67b36fb079,0.0188,0.0188,0,28,28,96,1,fivesix,,,,,,,,,,,,,,,,,,,,,,,,,,,,,,,,,,,,,,,,,,,,,,,,,,,,,,,,,,,,,,,,,,,,,,,,,,,,,,,,,,,,,,,,,,,,,,,,,,,,,,,,,,,,,,,,,,,,,,,,,,,,,,,,,,,,,,,,,
,,6101a827b8842aefda82f60a,2024-02-22_24h21.05.520,kallum_motion_pilot,2023.2.2,Win32,74.07407407,6101a827b8842aefda82f60a,65d6bb0e977760de756971f7,65d6bd7865325b67b36fb079,0.0189,0.0189,0,29,29,20,1,threeone,,,,,,,,,,,,,,,,,,,,,,,,,,,,,,,,,,,,,,,,,,,,,,,,,,,,,,,,,,,,,,,,,,,,,,,,,,,,,,,,,,,,,,,,,,,,,,,,,,,,,,,,,,,,,,,,,,,,,,,,,,,,,,,,,,,,,,,,,
,,6101a827b8842aefda82f60a,2024-02-22_24h21.05.520,kallum_motion_pilot,2023.2.2,Win32,74.07407407,6101a827b8842aefda82f60a,65d6bb0e977760de756971f7,65d6bd7865325b67b36fb079,0.019,0.019,0,30,30,25,1,onethree,,,,,,,,,,,,,,,,,,,,,,,,,,,,,,,,,,,,,,,,,,,,,,,,,,,,,,,,,,,,,,,,,,,,,,,,,,,,,,,,,,,,,,,,,,,,,,,,,,,,,,,,,,,,,,,,,,,,,,,,,,,,,,,,,,,,,,,,,
,,6101a827b8842aefda82f60a,2024-02-22_24h21.05.520,kallum_motion_pilot,2023.2.2,Win32,74.07407407,6101a827b8842aefda82f60a,65d6bb0e977760de756971f7,65d6bd7865325b67b36fb079,0.019,0.019,0,31,31,141,1,seveneight,,,,,,,,,,,,,,,,,,,,,,,,,,,,,,,,,,,,,,,,,,,,,,,,,,,,,,,,,,,,,,,,,,,,,,,,,,,,,,,,,,,,,,,,,,,,,,,,,,,,,,,,,,,,,,,,,,,,,,,,,,,,,,,,,,,,,,,,,
,,6101a827b8842aefda82f60a,2024-02-22_24h21.05.520,kallum_motion_pilot,2023.2.2,Win32,74.07407407,6101a827b8842aefda82f60a,65d6bb0e977760de756971f7,65d6bd7865325b67b36fb079,0.0191,0.0191,0,32,32,26,1,twoone,,,,,,,,,,,,,,,,,,,,,,,,,,,,,,,,,,,,,,,,,,,,,,,,,,,,,,,,,,,,,,,,,,,,,,,,,,,,,,,,,,,,,,,,,,,,,,,,,,,,,,,,,,,,,,,,,,,,,,,,,,,,,,,,,,,,,,,,,
,,6101a827b8842aefda82f60a,2024-02-22_24h21.05.520,kallum_motion_pilot,2023.2.2,Win32,74.07407407,6101a827b8842aefda82f60a,65d6bb0e977760de756971f7,65d6bd7865325b67b36fb079,0.0191,0.0191,0,33,33,43,1,twofour,,,,,,,,,,,,,,,,,,,,,,,,,,,,,,,,,,,,,,,,,,,,,,,,,,,,,,,,,,,,,,,,,,,,,,,,,,,,,,,,,,,,,,,,,,,,,,,,,,,,,,,,,,,,,,,,,,,,,,,,,,,,,,,,,,,,,,,,,
,,6101a827b8842aefda82f60a,2024-02-22_24h21.05.520,kallum_motion_pilot,2023.2.2,Win32,74.07407407,6101a827b8842aefda82f60a,65d6bb0e977760de756971f7,65d6bd7865325b67b36fb079,0.0192,0.0192,0,34,34,143,1,eightseven,,,,,,,,,,,,,,,,,,,,,,,,,,,,,,,,,,,,,,,,,,,,,,,,,,,,,,,,,,,,,,,,,,,,,,,,,,,,,,,,,,,,,,,,,,,,,,,,,,,,,,,,,,,,,,,,,,,,,,,,,,,,,,,,,,,,,,,,,
,,6101a827b8842aefda82f60a,2024-02-22_24h21.05.520,kallum_motion_pilot,2023.2.2,Win32,74.07407407,6101a827b8842aefda82f60a,65d6bb0e977760de756971f7,65d6bd7865325b67b36fb079,0.0192,0.0192,0,35,35,21,1,threefour,,,,,,,,,,,,,,,,,,,,,,,,,,,,,,,,,,,,,,,,,,,,,,,,,,,,,,,,,,,,,,,,,,,,,,,,,,,,,,,,,,,,,,,,,,,,,,,,,,,,,,,,,,,,,,,,,,,,,,,,,,,,,,,,,,,,,,,,,
,,6101a827b8842aefda82f60a,2024-02-22_24h21.05.520,kallum_motion_pilot,2023.2.2,Win32,74.07407407,6101a827b8842aefda82f60a,65d6bb0e977760de756971f7,65d6bd7865325b67b36fb079,0.0193,0.0193,0,36,36,136,1,fivesix,,,,,,,,,,,,,,,,,,,,,,,,,,,,,,,,,,,,,,,,,,,,,,,,,,,,,,,,,,,,,,,,,,,,,,,,,,,,,,,,,,,,,,,,,,,,,,,,,,,,,,,,,,,,,,,,,,,,,,,,,,,,,,,,,,,,,,,,,
,,6101a827b8842aefda82f60a,2024-02-22_24h21.05.520,kallum_motion_pilot,2023.2.2,Win32,74.07407407,6101a827b8842aefda82f60a,65d6bb0e977760de756971f7,65d6bd7865325b67b36fb079,0.0193,0.0193,0,37,37,110,1,eightsix,,,,,,,,,,,,,,,,,,,,,,,,,,,,,,,,,,,,,,,,,,,,,,,,,,,,,,,,,,,,,,,,,,,,,,,,,,,,,,,,,,,,,,,,,,,,,,,,,,,,,,,,,,,,,,,,,,,,,,,,,,,,,,,,,,,,,,,,,
,,6101a827b8842aefda82f60a,2024-02-22_24h21.05.520,kallum_motion_pilot,2023.2.2,Win32,74.07407407,6101a827b8842aefda82f60a,65d6bb0e977760de756971f7,65d6bd7865325b67b36fb079,0.0194,0.0194,0,38,38,130,1,sixfive,,,,,,,,,,,,,,,,,,,,,,,,,,,,,,,,,,,,,,,,,,,,,,,,,,,,,,,,,,,,,,,,,,,,,,,,,,,,,,,,,,,,,,,,,,,,,,,,,,,,,,,,,,,,,,,,,,,,,,,,,,,,,,,,,,,,,,,,,
,,6101a827b8842aefda82f60a,2024-02-22_24h21.05.520,kallum_motion_pilot,2023.2.2,Win32,74.07407407,6101a827b8842aefda82f60a,65d6bb0e977760de756971f7,65d6bd7865325b67b36fb079,0.0194,0.0195,0,39,39,126,1,eightsix,,,,,,,,,,,,,,,,,,,,,,,,,,,,,,,,,,,,,,,,,,,,,,,,,,,,,,,,,,,,,,,,,,,,,,,,,,,,,,,,,,,,,,,,,,,,,,,,,,,,,,,,,,,,,,,,,,,,,,,,,,,,,,,,,,,,,,,,,
,,6101a827b8842aefda82f60a,2024-02-22_24h21.05.520,kallum_motion_pilot,2023.2.2,Win32,74.07407407,6101a827b8842aefda82f60a,65d6bb0e977760de756971f7,65d6bd7865325b67b36fb079,0.0196,0.0196,0,40,40,74,1,twoone,,,,,,,,,,,,,,,,,,,,,,,,,,,,,,,,,,,,,,,,,,,,,,,,,,,,,,,,,,,,,,,,,,,,,,,,,,,,,,,,,,,,,,,,,,,,,,,,,,,,,,,,,,,,,,,,,,,,,,,,,,,,,,,,,,,,,,,,,
,,6101a827b8842aefda82f60a,2024-02-22_24h21.05.520,kallum_motion_pilot,2023.2.2,Win32,74.07407407,6101a827b8842aefda82f60a,65d6bb0e977760de756971f7,65d6bd7865325b67b36fb079,0.0196,0.0196,0,41,41,58,1,twoone,,,,,,,,,,,,,,,,,,,,,,,,,,,,,,,,,,,,,,,,,,,,,,,,,,,,,,,,,,,,,,,,,,,,,,,,,,,,,,,,,,,,,,,,,,,,,,,,,,,,,,,,,,,,,,,,,,,,,,,,,,,,,,,,,,,,,,,,,
,,6101a827b8842aefda82f60a,2024-02-22_24h21.05.520,kallum_motion_pilot,2023.2.2,Win32,74.07407407,6101a827b8842aefda82f60a,65d6bb0e977760de756971f7,65d6bd7865325b67b36fb079,0.0197,0.0197,0,42,42,17,1,onethree,,,,,,,,,,,,,,,,,,,,,,,,,,,,,,,,,,,,,,,,,,,,,,,,,,,,,,,,,,,,,,,,,,,,,,,,,,,,,,,,,,,,,,,,,,,,,,,,,,,,,,,,,,,,,,,,,,,,,,,,,,,,,,,,,,,,,,,,,
,,6101a827b8842aefda82f60a,2024-02-22_24h21.05.520,kallum_motion_pilot,2023.2.2,Win32,74.07407407,6101a827b8842aefda82f60a,65d6bb0e977760de756971f7,65d6bd7865325b67b36fb079,0.0197,0.0197,0,43,43,80,1,fivesix,,,,,,,,,,,,,,,,,,,,,,,,,,,,,,,,,,,,,,,,,,,,,,,,,,,,,,,,,,,,,,,,,,,,,,,,,,,,,,,,,,,,,,,,,,,,,,,,,,,,,,,,,,,,,,,,,,,,,,,,,,,,,,,,,,,,,,,,,
,,6101a827b8842aefda82f60a,2024-02-22_24h21.05.520,kallum_motion_pilot,2023.2.2,Win32,74.07407407,6101a827b8842aefda82f60a,65d6bb0e977760de756971f7,65d6bd7865325b67b36fb079,0.0197,0.0197,0,44,44,129,1,fiveseven,,,,,,,,,,,,,,,,,,,,,,,,,,,,,,,,,,,,,,,,,,,,,,,,,,,,,,,,,,,,,,,,,,,,,,,,,,,,,,,,,,,,,,,,,,,,,,,,,,,,,,,,,,,,,,,,,,,,,,,,,,,,,,,,,,,,,,,,,
,,6101a827b8842aefda82f60a,2024-02-22_24h21.05.520,kallum_motion_pilot,2023.2.2,Win32,74.07407407,6101a827b8842aefda82f60a,65d6bb0e977760de756971f7,65d6bd7865325b67b36fb079,0.0198,0.0198,0,45,45,137,1,fiveseven,,,,,,,,,,,,,,,,,,,,,,,,,,,,,,,,,,,,,,,,,,,,,,,,,,,,,,,,,,,,,,,,,,,,,,,,,,,,,,,,,,,,,,,,,,,,,,,,,,,,,,,,,,,,,,,,,,,,,,,,,,,,,,,,,,,,,,,,,
,,6101a827b8842aefda82f60a,2024-02-22_24h21.05.520,kallum_motion_pilot,2023.2.2,Win32,74.07407407,6101a827b8842aefda82f60a,65d6bb0e977760de756971f7,65d6bd7865325b67b36fb079,0.0199,0.0199,0,46,46,94,1,eightsix,,,,,,,,,,,,,,,,,,,,,,,,,,,,,,,,,,,,,,,,,,,,,,,,,,,,,,,,,,,,,,,,,,,,,,,,,,,,,,,,,,,,,,,,,,,,,,,,,,,,,,,,,,,,,,,,,,,,,,,,,,,,,,,,,,,,,,,,,
,,6101a827b8842aefda82f60a,2024-02-22_24h21.05.520,kallum_motion_pilot,2023.2.2,Win32,74.07407407,6101a827b8842aefda82f60a,65d6bb0e977760de756971f7,65d6bd7865325b67b36fb079,0.0199,0.02,0,47,47,161,1,fiveseven,,,,,,,,,,,,,,,,,,,,,,,,,,,,,,,,,,,,,,,,,,,,,,,,,,,,,,,,,,,,,,,,,,,,,,,,,,,,,,,,,,,,,,,,,,,,,,,,,,,,,,,,,,,,,,,,,,,,,,,,,,,,,,,,,,,,,,,,,
,,6101a827b8842aefda82f60a,2024-02-22_24h21.05.520,kallum_motion_pilot,2023.2.2,Win32,74.07407407,6101a827b8842aefda82f60a,65d6bb0e977760de756971f7,65d6bd7865325b67b36fb079,0.0201,0.0201,0,48,48,51,1,twofour,,,,,,,,,,,,,,,,,,,,,,,,,,,,,,,,,,,,,,,,,,,,,,,,,,,,,,,,,,,,,,,,,,,,,,,,,,,,,,,,,,,,,,,,,,,,,,,,,,,,,,,,,,,,,,,,,,,,,,,,,,,,,,,,,,,,,,,,,
,,6101a827b8842aefda82f60a,2024-02-22_24h21.05.520,kallum_motion_pilot,2023.2.2,Win32,74.07407407,6101a827b8842aefda82f60a,65d6bb0e977760de756971f7,65d6bd7865325b67b36fb079,0.0201,0.0201,0,49,49,19,1,twofour,,,,,,,,,,,,,,,,,,,,,,,,,,,,,,,,,,,,,,,,,,,,,,,,,,,,,,,,,,,,,,,,,,,,,,,,,,,,,,,,,,,,,,,,,,,,,,,,,,,,,,,,,,,,,,,,,,,,,,,,,,,,,,,,,,,,,,,,,
,,6101a827b8842aefda82f60a,2024-02-22_24h21.05.520,kallum_motion_pilot,2023.2.2,Win32,74.07407407,6101a827b8842aefda82f60a,65d6bb0e977760de756971f7,65d6bd7865325b67b36fb079,0.0202,0.0202,0,50,50,86,1,eightsix,,,,,,,,,,,,,,,,,,,,,,,,,,,,,,,,,,,,,,,,,,,,,,,,,,,,,,,,,,,,,,,,,,,,,,,,,,,,,,,,,,,,,,,,,,,,,,,,,,,,,,,,,,,,,,,,,,,,,,,,,,,,,,,,,,,,,,,,,
,,6101a827b8842aefda82f60a,2024-02-22_24h21.05.520,kallum_motion_pilot,2023.2.2,Win32,74.07407407,6101a827b8842aefda82f60a,65d6bb0e977760de756971f7,65d6bd7865325b67b36fb079,0.0202,0.0202,0,51,51,35,1,twofour,,,,,,,,,,,,,,,,,,,,,,,,,,,,,,,,,,,,,,,,,,,,,,,,,,,,,,,,,,,,,,,,,,,,,,,,,,,,,,,,,,,,,,,,,,,,,,,,,,,,,,,,,,,,,,,,,,,,,,,,,,,,,,,,,,,,,,,,,
,,6101a827b8842aefda82f60a,2024-02-22_24h21.05.520,kallum_motion_pilot,2023.2.2,Win32,74.07407407,6101a827b8842aefda82f60a,65d6bb0e977760de756971f7,65d6bd7865325b67b36fb079,0.0202,0.0202,0,52,52,77,1,threefour,,,,,,,,,,,,,,,,,,,,,,,,,,,,,,,,,,,,,,,,,,,,,,,,,,,,,,,,,,,,,,,,,,,,,,,,,,,,,,,,,,,,,,,,,,,,,,,,,,,,,,,,,,,,,,,,,,,,,,,,,,,,,,,,,,,,,,,,,
,,6101a827b8842aefda82f60a,2024-02-22_24h21.05.520,kallum_motion_pilot,2023.2.2,Win32,74.07407407,6101a827b8842aefda82f60a,65d6bb0e977760de756971f7,65d6bd7865325b67b36fb079,0.0203,0.0203,0,53,53,85,1,seveneight,,,,,,,,,,,,,,,,,,,,,,,,,,,,,,,,,,,,,,,,,,,,,,,,,,,,,,,,,,,,,,,,,,,,,,,,,,,,,,,,,,,,,,,,,,,,,,,,,,,,,,,,,,,,,,,,,,,,,,,,,,,,,,,,,,,,,,,,,
,,6101a827b8842aefda82f60a,2024-02-22_24h21.05.520,kallum_motion_pilot,2023.2.2,Win32,74.07407407,6101a827b8842aefda82f60a,65d6bb0e977760de756971f7,65d6bd7865325b67b36fb079,0.0204,0.0204,0,54,54,48,1,onetwo,,,,,,,,,,,,,,,,,,,,,,,,,,,,,,,,,,,,,,,,,,,,,,,,,,,,,,,,,,,,,,,,,,,,,,,,,,,,,,,,,,,,,,,,,,,,,,,,,,,,,,,,,,,,,,,,,,,,,,,,,,,,,,,,,,,,,,,,,
,,6101a827b8842aefda82f60a,2024-02-22_24h21.05.520,kallum_motion_pilot,2023.2.2,Win32,74.07407407,6101a827b8842aefda82f60a,65d6bb0e977760de756971f7,65d6bd7865325b67b36fb079,0.0204,0.0204,0,55,55,76,1,threeone,,,,,,,,,,,,,,,,,,,,,,,,,,,,,,,,,,,,,,,,,,,,,,,,,,,,,,,,,,,,,,,,,,,,,,,,,,,,,,,,,,,,,,,,,,,,,,,,,,,,,,,,,,,,,,,,,,,,,,,,,,,,,,,,,,,,,,,,,
,,6101a827b8842aefda82f60a,2024-02-22_24h21.05.520,kallum_motion_pilot,2023.2.2,Win32,74.07407407,6101a827b8842aefda82f60a,65d6bb0e977760de756971f7,65d6bd7865325b67b36fb079,0.0205,0.0206,0,56,56,30,1,fourtwo,,,,,,,,,,,,,,,,,,,,,,,,,,,,,,,,,,,,,,,,,,,,,,,,,,,,,,,,,,,,,,,,,,,,,,,,,,,,,,,,,,,,,,,,,,,,,,,,,,,,,,,,,,,,,,,,,,,,,,,,,,,,,,,,,,,,,,,,,
,,6101a827b8842aefda82f60a,2024-02-22_24h21.05.520,kallum_motion_pilot,2023.2.2,Win32,74.07407407,6101a827b8842aefda82f60a,65d6bb0e977760de756971f7,65d6bd7865325b67b36fb079,0.0206,0.0206,0,57,57,99,1,sixeight,,,,,,,,,,,,,,,,,,,,,,,,,,,,,,,,,,,,,,,,,,,,,,,,,,,,,,,,,,,,,,,,,,,,,,,,,,,,,,,,,,,,,,,,,,,,,,,,,,,,,,,,,,,,,,,,,,,,,,,,,,,,,,,,,,,,,,,,,
,,6101a827b8842aefda82f60a,2024-02-22_24h21.05.520,kallum_motion_pilot,2023.2.2,Win32,74.07407407,6101a827b8842aefda82f60a,65d6bb0e977760de756971f7,65d6bd7865325b67b36fb079,0.0206,0.0207,0,58,58,159,1,eightseven,,,,,,,,,,,,,,,,,,,,,,,,,,,,,,,,,,,,,,,,,,,,,,,,,,,,,,,,,,,,,,,,,,,,,,,,,,,,,,,,,,,,,,,,,,,,,,,,,,,,,,,,,,,,,,,,,,,,,,,,,,,,,,,,,,,,,,,,,
,,6101a827b8842aefda82f60a,2024-02-22_24h21.05.520,kallum_motion_pilot,2023.2.2,Win32,74.07407407,6101a827b8842aefda82f60a,65d6bb0e977760de756971f7,65d6bd7865325b67b36fb079,0.0207,0.0207,0,59,59,9,1,onethree,,,,,,,,,,,,,,,,,,,,,,,,,,,,,,,,,,,,,,,,,,,,,,,,,,,,,,,,,,,,,,,,,,,,,,,,,,,,,,,,,,,,,,,,,,,,,,,,,,,,,,,,,,,,,,,,,,,,,,,,,,,,,,,,,,,,,,,,,
,,6101a827b8842aefda82f60a,2024-02-22_24h21.05.520,kallum_motion_pilot,2023.2.2,Win32,74.07407407,6101a827b8842aefda82f60a,65d6bb0e977760de756971f7,65d6bd7865325b67b36fb079,0.0208,0.0208,0,60,60,69,1,threefour,,,,,,,,,,,,,,,,,,,,,,,,,,,,,,,,,,,,,,,,,,,,,,,,,,,,,,,,,,,,,,,,,,,,,,,,,,,,,,,,,,,,,,,,,,,,,,,,,,,,,,,,,,,,,,,,,,,,,,,,,,,,,,,,,,,,,,,,,
,,6101a827b8842aefda82f60a,2024-02-22_24h21.05.520,kallum_motion_pilot,2023.2.2,Win32,74.07407407,6101a827b8842aefda82f60a,65d6bb0e977760de756971f7,65d6bd7865325b67b36fb079,0.0209,0.0209,0,61,61,13,1,threefour,,,,,,,,,,,,,,,,,,,,,,,,,,,,,,,,,,,,,,,,,,,,,,,,,,,,,,,,,,,,,,,,,,,,,,,,,,,,,,,,,,,,,,,,,,,,,,,,,,,,,,,,,,,,,,,,,,,,,,,,,,,,,,,,,,,,,,,,,
,,6101a827b8842aefda82f60a,2024-02-22_24h21.05.520,kallum_motion_pilot,2023.2.2,Win32,74.07407407,6101a827b8842aefda82f60a,65d6bb0e977760de756971f7,65d6bd7865325b67b36fb079,0.0209,0.0209,0,62,62,107,1,sixeight,,,,,,,,,,,,,,,,,,,,,,,,,,,,,,,,,,,,,,,,,,,,,,,,,,,,,,,,,,,,,,,,,,,,,,,,,,,,,,,,,,,,,,,,,,,,,,,,,,,,,,,,,,,,,,,,,,,,,,,,,,,,,,,,,,,,,,,,,
,,6101a827b8842aefda82f60a,2024-02-22_24h21.05.520,kallum_motion_pilot,2023.2.2,Win32,74.07407407,6101a827b8842aefda82f60a,65d6bb0e977760de756971f7,65d6bd7865325b67b36fb079,0.021,0.021,0,63,63,49,1,onethree,,,,,,,,,,,,,,,,,,,,,,,,,,,,,,,,,,,,,,,,,,,,,,,,,,,,,,,,,,,,,,,,,,,,,,,,,,,,,,,,,,,,,,,,,,,,,,,,,,,,,,,,,,,,,,,,,,,,,,,,,,,,,,,,,,,,,,,,,
,,6101a827b8842aefda82f60a,2024-02-22_24h21.05.520,kallum_motion_pilot,2023.2.2,Win32,74.07407407,6101a827b8842aefda82f60a,65d6bb0e977760de756971f7,65d6bd7865325b67b36fb079,0.021,0.021,0,64,64,160,1,fivesix,,,,,,,,,,,,,,,,,,,,,,,,,,,,,,,,,,,,,,,,,,,,,,,,,,,,,,,,,,,,,,,,,,,,,,,,,,,,,,,,,,,,,,,,,,,,,,,,,,,,,,,,,,,,,,,,,,,,,,,,,,,,,,,,,,,,,,,,,
,,6101a827b8842aefda82f60a,2024-02-22_24h21.05.520,kallum_motion_pilot,2023.2.2,Win32,74.07407407,6101a827b8842aefda82f60a,65d6bb0e977760de756971f7,65d6bd7865325b67b36fb079,0.0211,0.0211,0,65,65,68,1,threeone,,,,,,,,,,,,,,,,,,,,,,,,,,,,,,,,,,,,,,,,,,,,,,,,,,,,,,,,,,,,,,,,,,,,,,,,,,,,,,,,,,,,,,,,,,,,,,,,,,,,,,,,,,,,,,,,,,,,,,,,,,,,,,,,,,,,,,,,,
,,6101a827b8842aefda82f60a,2024-02-22_24h21.05.520,kallum_motion_pilot,2023.2.2,Win32,74.07407407,6101a827b8842aefda82f60a,65d6bb0e977760de756971f7,65d6bd7865325b67b36fb079,0.0213,0.0213,0,66,66,90,1,sixfive,,,,,,,,,,,,,,,,,,,,,,,,,,,,,,,,,,,,,,,,,,,,,,,,,,,,,,,,,,,,,,,,,,,,,,,,,,,,,,,,,,,,,,,,,,,,,,,,,,,,,,,,,,,,,,,,,,,,,,,,,,,,,,,,,,,,,,,,,
,,6101a827b8842aefda82f60a,2024-02-22_24h21.05.520,kallum_motion_pilot,2023.2.2,Win32,74.07407407,6101a827b8842aefda82f60a,65d6bb0e977760de756971f7,65d6bd7865325b67b36fb079,0.0213,0.0213,0,67,67,91,1,sixeight,,,,,,,,,,,,,,,,,,,,,,,,,,,,,,,,,,,,,,,,,,,,,,,,,,,,,,,,,,,,,,,,,,,,,,,,,,,,,,,,,,,,,,,,,,,,,,,,,,,,,,,,,,,,,,,,,,,,,,,,,,,,,,,,,,,,,,,,,
,,6101a827b8842aefda82f60a,2024-02-22_24h21.05.520,kallum_motion_pilot,2023.2.2,Win32,74.07407407,6101a827b8842aefda82f60a,65d6bb0e977760de756971f7,65d6bd7865325b67b36fb079,0.0214,0.0214,0,68,68,150,1,eightsix,,,,,,,,,,,,,,,,,,,,,,,,,,,,,,,,,,,,,,,,,,,,,,,,,,,,,,,,,,,,,,,,,,,,,,,,,,,,,,,,,,,,,,,,,,,,,,,,,,,,,,,,,,,,,,,,,,,,,,,,,,,,,,,,,,,,,,,,,
,,6101a827b8842aefda82f60a,2024-02-22_24h21.05.520,kallum_motion_pilot,2023.2.2,Win32,74.07407407,6101a827b8842aefda82f60a,65d6bb0e977760de756971f7,65d6bd7865325b67b36fb079,0.0214,0.0214,0,69,69,98,1,sixfive,,,,,,,,,,,,,,,,,,,,,,,,,,,,,,,,,,,,,,,,,,,,,,,,,,,,,,,,,,,,,,,,,,,,,,,,,,,,,,,,,,,,,,,,,,,,,,,,,,,,,,,,,,,,,,,,,,,,,,,,,,,,,,,,,,,,,,,,,
,,6101a827b8842aefda82f60a,2024-02-22_24h21.05.520,kallum_motion_pilot,2023.2.2,Win32,74.07407407,6101a827b8842aefda82f60a,65d6bb0e977760de756971f7,65d6bd7865325b67b36fb079,0.0215,0.0215,0,70,70,16,1,onetwo,,,,,,,,,,,,,,,,,,,,,,,,,,,,,,,,,,,,,,,,,,,,,,,,,,,,,,,,,,,,,,,,,,,,,,,,,,,,,,,,,,,,,,,,,,,,,,,,,,,,,,,,,,,,,,,,,,,,,,,,,,,,,,,,,,,,,,,,,
,,6101a827b8842aefda82f60a,2024-02-22_24h21.05.520,kallum_motion_pilot,2023.2.2,Win32,74.07407407,6101a827b8842aefda82f60a,65d6bb0e977760de756971f7,65d6bd7865325b67b36fb079,0.0216,0.0216,0,71,71,92,1,sevenfive,,,,,,,,,,,,,,,,,,,,,,,,,,,,,,,,,,,,,,,,,,,,,,,,,,,,,,,,,,,,,,,,,,,,,,,,,,,,,,,,,,,,,,,,,,,,,,,,,,,,,,,,,,,,,,,,,,,,,,,,,,,,,,,,,,,,,,,,,
,,6101a827b8842aefda82f60a,2024-02-22_24h21.05.520,kallum_motion_pilot,2023.2.2,Win32,74.07407407,6101a827b8842aefda82f60a,65d6bb0e977760de756971f7,65d6bd7865325b67b36fb079,0.0216,0.0216,0,72,72,61,1,threefour,,,,,,,,,,,,,,,,,,,,,,,,,,,,,,,,,,,,,,,,,,,,,,,,,,,,,,,,,,,,,,,,,,,,,,,,,,,,,,,,,,,,,,,,,,,,,,,,,,,,,,,,,,,,,,,,,,,,,,,,,,,,,,,,,,,,,,,,,
,,6101a827b8842aefda82f60a,2024-02-22_24h21.05.520,kallum_motion_pilot,2023.2.2,Win32,74.07407407,6101a827b8842aefda82f60a,65d6bb0e977760de756971f7,65d6bd7865325b67b36fb079,0.0217,0.0218,0,73,73,109,1,seveneight,,,,,,,,,,,,,,,,,,,,,,,,,,,,,,,,,,,,,,,,,,,,,,,,,,,,,,,,,,,,,,,,,,,,,,,,,,,,,,,,,,,,,,,,,,,,,,,,,,,,,,,,,,,,,,,,,,,,,,,,,,,,,,,,,,,,,,,,,
,,6101a827b8842aefda82f60a,2024-02-22_24h21.05.520,kallum_motion_pilot,2023.2.2,Win32,74.07407407,6101a827b8842aefda82f60a,65d6bb0e977760de756971f7,65d6bd7865325b67b36fb079,0.0218,0.0218,0,74,74,89,1,fiveseven,,,,,,,,,,,,,,,,,,,,,,,,,,,,,,,,,,,,,,,,,,,,,,,,,,,,,,,,,,,,,,,,,,,,,,,,,,,,,,,,,,,,,,,,,,,,,,,,,,,,,,,,,,,,,,,,,,,,,,,,,,,,,,,,,,,,,,,,,
,,6101a827b8842aefda82f60a,2024-02-22_24h21.05.520,kallum_motion_pilot,2023.2.2,Win32,74.07407407,6101a827b8842aefda82f60a,65d6bb0e977760de756971f7,65d6bd7865325b67b36fb079,0.0219,0.0219,0,75,75,39,1,fourthree,,,,,,,,,,,,,,,,,,,,,,,,,,,,,,,,,,,,,,,,,,,,,,,,,,,,,,,,,,,,,,,,,,,,,,,,,,,,,,,,,,,,,,,,,,,,,,,,,,,,,,,,,,,,,,,,,,,,,,,,,,,,,,,,,,,,,,,,,
,,6101a827b8842aefda82f60a,2024-02-22_24h21.05.520,kallum_motion_pilot,2023.2.2,Win32,74.07407407,6101a827b8842aefda82f60a,65d6bb0e977760de756971f7,65d6bd7865325b67b36fb079,0.0219,0.0219,0,76,76,125,1,seveneight,,,,,,,,,,,,,,,,,,,,,,,,,,,,,,,,,,,,,,,,,,,,,,,,,,,,,,,,,,,,,,,,,,,,,,,,,,,,,,,,,,,,,,,,,,,,,,,,,,,,,,,,,,,,,,,,,,,,,,,,,,,,,,,,,,,,,,,,,
,,6101a827b8842aefda82f60a,2024-02-22_24h21.05.520,kallum_motion_pilot,2023.2.2,Win32,74.07407407,6101a827b8842aefda82f60a,65d6bb0e977760de756971f7,65d6bd7865325b67b36fb079,0.022,0.022,0,77,77,71,1,fourthree,,,,,,,,,,,,,,,,,,,,,,,,,,,,,,,,,,,,,,,,,,,,,,,,,,,,,,,,,,,,,,,,,,,,,,,,,,,,,,,,,,,,,,,,,,,,,,,,,,,,,,,,,,,,,,,,,,,,,,,,,,,,,,,,,,,,,,,,,
,,6101a827b8842aefda82f60a,2024-02-22_24h21.05.520,kallum_motion_pilot,2023.2.2,Win32,74.07407407,6101a827b8842aefda82f60a,65d6bb0e977760de756971f7,65d6bd7865325b67b36fb079,0.0221,0.0221,0,78,78,62,1,fourtwo,,,,,,,,,,,,,,,,,,,,,,,,,,,,,,,,,,,,,,,,,,,,,,,,,,,,,,,,,,,,,,,,,,,,,,,,,,,,,,,,,,,,,,,,,,,,,,,,,,,,,,,,,,,,,,,,,,,,,,,,,,,,,,,,,,,,,,,,,
,,6101a827b8842aefda82f60a,2024-02-22_24h21.05.520,kallum_motion_pilot,2023.2.2,Win32,74.07407407,6101a827b8842aefda82f60a,65d6bb0e977760de756971f7,65d6bd7865325b67b36fb079,0.0222,0.0222,0,79,79,18,1,twoone,,,,,,,,,,,,,,,,,,,,,,,,,,,,,,,,,,,,,,,,,,,,,,,,,,,,,,,,,,,,,,,,,,,,,,,,,,,,,,,,,,,,,,,,,,,,,,,,,,,,,,,,,,,,,,,,,,,,,,,,,,,,,,,,,,,,,,,,,
,,6101a827b8842aefda82f60a,2024-02-22_24h21.05.520,kallum_motion_pilot,2023.2.2,Win32,74.07407407,6101a827b8842aefda82f60a,65d6bb0e977760de756971f7,65d6bd7865325b67b36fb079,0.0222,0.0223,0,80,80,114,1,sixfive,,,,,,,,,,,,,,,,,,,,,,,,,,,,,,,,,,,,,,,,,,,,,,,,,,,,,,,,,,,,,,,,,,,,,,,,,,,,,,,,,,,,,,,,,,,,,,,,,,,,,,,,,,,,,,,,,,,,,,,,,,,,,,,,,,,,,,,,,
,,6101a827b8842aefda82f60a,2024-02-22_24h21.05.520,kallum_motion_pilot,2023.2.2,Win32,74.07407407,6101a827b8842aefda82f60a,65d6bb0e977760de756971f7,65d6bd7865325b67b36fb079,0.0223,0.0223,0,81,81,157,1,seveneight,,,,,,,,,,,,,,,,,,,,,,,,,,,,,,,,,,,,,,,,,,,,,,,,,,,,,,,,,,,,,,,,,,,,,,,,,,,,,,,,,,,,,,,,,,,,,,,,,,,,,,,,,,,,,,,,,,,,,,,,,,,,,,,,,,,,,,,,,
,,6101a827b8842aefda82f60a,2024-02-22_24h21.05.520,kallum_motion_pilot,2023.2.2,Win32,74.07407407,6101a827b8842aefda82f60a,65d6bb0e977760de756971f7,65d6bd7865325b67b36fb079,0.0224,0.0224,0,82,82,56,1,onetwo,,,,,,,,,,,,,,,,,,,,,,,,,,,,,,,,,,,,,,,,,,,,,,,,,,,,,,,,,,,,,,,,,,,,,,,,,,,,,,,,,,,,,,,,,,,,,,,,,,,,,,,,,,,,,,,,,,,,,,,,,,,,,,,,,,,,,,,,,
,,6101a827b8842aefda82f60a,2024-02-22_24h21.05.520,kallum_motion_pilot,2023.2.2,Win32,74.07407407,6101a827b8842aefda82f60a,65d6bb0e977760de756971f7,65d6bd7865325b67b36fb079,0.0224,0.0224,0,83,83,72,1,onetwo,,,,,,,,,,,,,,,,,,,,,,,,,,,,,,,,,,,,,,,,,,,,,,,,,,,,,,,,,,,,,,,,,,,,,,,,,,,,,,,,,,,,,,,,,,,,,,,,,,,,,,,,,,,,,,,,,,,,,,,,,,,,,,,,,,,,,,,,,
,,6101a827b8842aefda82f60a,2024-02-22_24h21.05.520,kallum_motion_pilot,2023.2.2,Win32,74.07407407,6101a827b8842aefda82f60a,65d6bb0e977760de756971f7,65d6bd7865325b67b36fb079,0.0225,0.0225,0,84,84,38,1,fourtwo,,,,,,,,,,,,,,,,,,,,,,,,,,,,,,,,,,,,,,,,,,,,,,,,,,,,,,,,,,,,,,,,,,,,,,,,,,,,,,,,,,,,,,,,,,,,,,,,,,,,,,,,,,,,,,,,,,,,,,,,,,,,,,,,,,,,,,,,,
,,6101a827b8842aefda82f60a,2024-02-22_24h21.05.520,kallum_motion_pilot,2023.2.2,Win32,74.07407407,6101a827b8842aefda82f60a,65d6bb0e977760de756971f7,65d6bd7865325b67b36fb079,0.0225,0.0225,0,85,85,112,1,fivesix,,,,,,,,,,,,,,,,,,,,,,,,,,,,,,,,,,,,,,,,,,,,,,,,,,,,,,,,,,,,,,,,,,,,,,,,,,,,,,,,,,,,,,,,,,,,,,,,,,,,,,,,,,,,,,,,,,,,,,,,,,,,,,,,,,,,,,,,,
,,6101a827b8842aefda82f60a,2024-02-22_24h21.05.520,kallum_motion_pilot,2023.2.2,Win32,74.07407407,6101a827b8842aefda82f60a,65d6bb0e977760de756971f7,65d6bd7865325b67b36fb079,0.0226,0.0226,0,86,86,120,1,fivesix,,,,,,,,,,,,,,,,,,,,,,,,,,,,,,,,,,,,,,,,,,,,,,,,,,,,,,,,,,,,,,,,,,,,,,,,,,,,,,,,,,,,,,,,,,,,,,,,,,,,,,,,,,,,,,,,,,,,,,,,,,,,,,,,,,,,,,,,,
,,6101a827b8842aefda82f60a,2024-02-22_24h21.05.520,kallum_motion_pilot,2023.2.2,Win32,74.07407407,6101a827b8842aefda82f60a,65d6bb0e977760de756971f7,65d6bd7865325b67b36fb079,0.0227,0.0227,0,87,87,133,1,seveneight,,,,,,,,,,,,,,,,,,,,,,,,,,,,,,,,,,,,,,,,,,,,,,,,,,,,,,,,,,,,,,,,,,,,,,,,,,,,,,,,,,,,,,,,,,,,,,,,,,,,,,,,,,,,,,,,,,,,,,,,,,,,,,,,,,,,,,,,,
,,6101a827b8842aefda82f60a,2024-02-22_24h21.05.520,kallum_motion_pilot,2023.2.2,Win32,74.07407407,6101a827b8842aefda82f60a,65d6bb0e977760de756971f7,65d6bd7865325b67b36fb079,0.0227,0.0228,0,88,88,73,1,onethree,,,,,,,,,,,,,,,,,,,,,,,,,,,,,,,,,,,,,,,,,,,,,,,,,,,,,,,,,,,,,,,,,,,,,,,,,,,,,,,,,,,,,,,,,,,,,,,,,,,,,,,,,,,,,,,,,,,,,,,,,,,,,,,,,,,,,,,,,
,,6101a827b8842aefda82f60a,2024-02-22_24h21.05.520,kallum_motion_pilot,2023.2.2,Win32,74.07407407,6101a827b8842aefda82f60a,65d6bb0e977760de756971f7,65d6bd7865325b67b36fb079,0.0228,0.0228,0,89,89,66,1,twoone,,,,,,,,,,,,,,,,,,,,,,,,,,,,,,,,,,,,,,,,,,,,,,,,,,,,,,,,,,,,,,,,,,,,,,,,,,,,,,,,,,,,,,,,,,,,,,,,,,,,,,,,,,,,,,,,,,,,,,,,,,,,,,,,,,,,,,,,,
,,6101a827b8842aefda82f60a,2024-02-22_24h21.05.520,kallum_motion_pilot,2023.2.2,Win32,74.07407407,6101a827b8842aefda82f60a,65d6bb0e977760de756971f7,65d6bd7865325b67b36fb079,0.0229,0.0229,0,90,90,151,1,eightseven,,,,,,,,,,,,,,,,,,,,,,,,,,,,,,,,,,,,,,,,,,,,,,,,,,,,,,,,,,,,,,,,,,,,,,,,,,,,,,,,,,,,,,,,,,,,,,,,,,,,,,,,,,,,,,,,,,,,,,,,,,,,,,,,,,,,,,,,,
,,6101a827b8842aefda82f60a,2024-02-22_24h21.05.520,kallum_motion_pilot,2023.2.2,Win32,74.07407407,6101a827b8842aefda82f60a,65d6bb0e977760de756971f7,65d6bd7865325b67b36fb079,0.0229,0.0229,0,91,91,70,1,fourtwo,,,,,,,,,,,,,,,,,,,,,,,,,,,,,,,,,,,,,,,,,,,,,,,,,,,,,,,,,,,,,,,,,,,,,,,,,,,,,,,,,,,,,,,,,,,,,,,,,,,,,,,,,,,,,,,,,,,,,,,,,,,,,,,,,,,,,,,,,
,,6101a827b8842aefda82f60a,2024-02-22_24h21.05.520,kallum_motion_pilot,2023.2.2,Win32,74.07407407,6101a827b8842aefda82f60a,65d6bb0e977760de756971f7,65d6bd7865325b67b36fb079,0.023,0.023,0,92,92,124,1,sevenfive,,,,,,,,,,,,,,,,,,,,,,,,,,,,,,,,,,,,,,,,,,,,,,,,,,,,,,,,,,,,,,,,,,,,,,,,,,,,,,,,,,,,,,,,,,,,,,,,,,,,,,,,,,,,,,,,,,,,,,,,,,,,,,,,,,,,,,,,,
,,6101a827b8842aefda82f60a,2024-02-22_24h21.05.520,kallum_motion_pilot,2023.2.2,Win32,74.07407407,6101a827b8842aefda82f60a,65d6bb0e977760de756971f7,65d6bd7865325b67b36fb079,0.0231,0.0231,0,93,93,28,1,threeone,,,,,,,,,,,,,,,,,,,,,,,,,,,,,,,,,,,,,,,,,,,,,,,,,,,,,,,,,,,,,,,,,,,,,,,,,,,,,,,,,,,,,,,,,,,,,,,,,,,,,,,,,,,,,,,,,,,,,,,,,,,,,,,,,,,,,,,,,
,,6101a827b8842aefda82f60a,2024-02-22_24h21.05.520,kallum_motion_pilot,2023.2.2,Win32,74.07407407,6101a827b8842aefda82f60a,65d6bb0e977760de756971f7,65d6bd7865325b67b36fb079,0.0231,0.0231,0,94,94,95,1,eightseven,,,,,,,,,,,,,,,,,,,,,,,,,,,,,,,,,,,,,,,,,,,,,,,,,,,,,,,,,,,,,,,,,,,,,,,,,,,,,,,,,,,,,,,,,,,,,,,,,,,,,,,,,,,,,,,,,,,,,,,,,,,,,,,,,,,,,,,,,
,,6101a827b8842aefda82f60a,2024-02-22_24h21.05.520,kallum_motion_pilot,2023.2.2,Win32,74.07407407,6101a827b8842aefda82f60a,65d6bb0e977760de756971f7,65d6bd7865325b67b36fb079,0.0231,0.0232,0,95,95,53,1,threefour,,,,,,,,,,,,,,,,,,,,,,,,,,,,,,,,,,,,,,,,,,,,,,,,,,,,,,,,,,,,,,,,,,,,,,,,,,,,,,,,,,,,,,,,,,,,,,,,,,,,,,,,,,,,,,,,,,,,,,,,,,,,,,,,,,,,,,,,,
,,6101a827b8842aefda82f60a,2024-02-22_24h21.05.520,kallum_motion_pilot,2023.2.2,Win32,74.07407407,6101a827b8842aefda82f60a,65d6bb0e977760de756971f7,65d6bd7865325b67b36fb079,0.0232,0.0233,0,96,96,59,1,twofour,,,,,,,,,,,,,,,,,,,,,,,,,,,,,,,,,,,,,,,,,,,,,,,,,,,,,,,,,,,,,,,,,,,,,,,,,,,,,,,,,,,,,,,,,,,,,,,,,,,,,,,,,,,,,,,,,,,,,,,,,,,,,,,,,,,,,,,,,
,,6101a827b8842aefda82f60a,2024-02-22_24h21.05.520,kallum_motion_pilot,2023.2.2,Win32,74.07407407,6101a827b8842aefda82f60a,65d6bb0e977760de756971f7,65d6bd7865325b67b36fb079,0.0233,0.0233,0,97,97,55,1,fourthree,,,,,,,,,,,,,,,,,,,,,,,,,,,,,,,,,,,,,,,,,,,,,,,,,,,,,,,,,,,,,,,,,,,,,,,,,,,,,,,,,,,,,,,,,,,,,,,,,,,,,,,,,,,,,,,,,,,,,,,,,,,,,,,,,,,,,,,,,
,,6101a827b8842aefda82f60a,2024-02-22_24h21.05.520,kallum_motion_pilot,2023.2.2,Win32,74.07407407,6101a827b8842aefda82f60a,65d6bb0e977760de756971f7,65d6bd7865325b67b36fb079,0.0234,0.0234,0,98,98,1,1,onethree,,,,,,,,,,,,,,,,,,,,,,,,,,,,,,,,,,,,,,,,,,,,,,,,,,,,,,,,,,,,,,,,,,,,,,,,,,,,,,,,,,,,,,,,,,,,,,,,,,,,,,,,,,,,,,,,,,,,,,,,,,,,,,,,,,,,,,,,,
,,6101a827b8842aefda82f60a,2024-02-22_24h21.05.520,kallum_motion_pilot,2023.2.2,Win32,74.07407407,6101a827b8842aefda82f60a,65d6bb0e977760de756971f7,65d6bd7865325b67b36fb079,0.0234,0.0235,0,99,99,33,1,onethree,,,,,,,,,,,,,,,,,,,,,,,,,,,,,,,,,,,,,,,,,,,,,,,,,,,,,,,,,,,,,,,,,,,,,,,,,,,,,,,,,,,,,,,,,,,,,,,,,,,,,,,,,,,,,,,,,,,,,,,,,,,,,,,,,,,,,,,,,
,,6101a827b8842aefda82f60a,2024-02-22_24h21.05.520,kallum_motion_pilot,2023.2.2,Win32,74.07407407,6101a827b8842aefda82f60a,65d6bb0e977760de756971f7,65d6bd7865325b67b36fb079,0.0235,0.0236,0,100,100,15,1,fourthree,,,,,,,,,,,,,,,,,,,,,,,,,,,,,,,,,,,,,,,,,,,,,,,,,,,,,,,,,,,,,,,,,,,,,,,,,,,,,,,,,,,,,,,,,,,,,,,,,,,,,,,,,,,,,,,,,,,,,,,,,,,,,,,,,,,,,,,,,
,,6101a827b8842aefda82f60a,2024-02-22_24h21.05.520,kallum_motion_pilot,2023.2.2,Win32,74.07407407,6101a827b8842aefda82f60a,65d6bb0e977760de756971f7,65d6bd7865325b67b36fb079,0.0236,0.0236,0,101,101,67,1,twofour,,,,,,,,,,,,,,,,,,,,,,,,,,,,,,,,,,,,,,,,,,,,,,,,,,,,,,,,,,,,,,,,,,,,,,,,,,,,,,,,,,,,,,,,,,,,,,,,,,,,,,,,,,,,,,,,,,,,,,,,,,,,,,,,,,,,,,,,,
,,6101a827b8842aefda82f60a,2024-02-22_24h21.05.520,kallum_motion_pilot,2023.2.2,Win32,74.07407407,6101a827b8842aefda82f60a,65d6bb0e977760de756971f7,65d6bd7865325b67b36fb079,0.0236,0.0236,0,102,102,14,1,fourtwo,,,,,,,,,,,,,,,,,,,,,,,,,,,,,,,,,,,,,,,,,,,,,,,,,,,,,,,,,,,,,,,,,,,,,,,,,,,,,,,,,,,,,,,,,,,,,,,,,,,,,,,,,,,,,,,,,,,,,,,,,,,,,,,,,,,,,,,,,
,,6101a827b8842aefda82f60a,2024-02-22_24h21.05.520,kallum_motion_pilot,2023.2.2,Win32,74.07407407,6101a827b8842aefda82f60a,65d6bb0e977760de756971f7,65d6bd7865325b67b36fb079,0.0238,0.0238,0,103,103,65,1,onethree,,,,,,,,,,,,,,,,,,,,,,,,,,,,,,,,,,,,,,,,,,,,,,,,,,,,,,,,,,,,,,,,,,,,,,,,,,,,,,,,,,,,,,,,,,,,,,,,,,,,,,,,,,,,,,,,,,,,,,,,,,,,,,,,,,,,,,,,,
,,6101a827b8842aefda82f60a,2024-02-22_24h21.05.520,kallum_motion_pilot,2023.2.2,Win32,74.07407407,6101a827b8842aefda82f60a,65d6bb0e977760de756971f7,65d6bd7865325b67b36fb079,0.0238,0.0239,0,104,104,44,1,threeone,,,,,,,,,,,,,,,,,,,,,,,,,,,,,,,,,,,,,,,,,,,,,,,,,,,,,,,,,,,,,,,,,,,,,,,,,,,,,,,,,,,,,,,,,,,,,,,,,,,,,,,,,,,,,,,,,,,,,,,,,,,,,,,,,,,,,,,,,
,,6101a827b8842aefda82f60a,2024-02-22_24h21.05.520,kallum_motion_pilot,2023.2.2,Win32,74.07407407,6101a827b8842aefda82f60a,65d6bb0e977760de756971f7,65d6bd7865325b67b36fb079,0.0241,0.0241,0,105,105,41,1,onethree,,,,,,,,,,,,,,,,,,,,,,,,,,,,,,,,,,,,,,,,,,,,,,,,,,,,,,,,,,,,,,,,,,,,,,,,,,,,,,,,,,,,,,,,,,,,,,,,,,,,,,,,,,,,,,,,,,,,,,,,,,,,,,,,,,,,,,,,,
,,6101a827b8842aefda82f60a,2024-02-22_24h21.05.520,kallum_motion_pilot,2023.2.2,Win32,74.07407407,6101a827b8842aefda82f60a,65d6bb0e977760de756971f7,65d6bd7865325b67b36fb079,0.0242,0.0243,0,106,106,64,1,onetwo,,,,,,,,,,,,,,,,,,,,,,,,,,,,,,,,,,,,,,,,,,,,,,,,,,,,,,,,,,,,,,,,,,,,,,,,,,,,,,,,,,,,,,,,,,,,,,,,,,,,,,,,,,,,,,,,,,,,,,,,,,,,,,,,,,,,,,,,,
,,6101a827b8842aefda82f60a,2024-02-22_24h21.05.520,kallum_motion_pilot,2023.2.2,Win32,74.07407407,6101a827b8842aefda82f60a,65d6bb0e977760de756971f7,65d6bd7865325b67b36fb079,0.0243,0.0243,0,107,107,93,1,seveneight,,,,,,,,,,,,,,,,,,,,,,,,,,,,,,,,,,,,,,,,,,,,,,,,,,,,,,,,,,,,,,,,,,,,,,,,,,,,,,,,,,,,,,,,,,,,,,,,,,,,,,,,,,,,,,,,,,,,,,,,,,,,,,,,,,,,,,,,,
,,6101a827b8842aefda82f60a,2024-02-22_24h21.05.520,kallum_motion_pilot,2023.2.2,Win32,74.07407407,6101a827b8842aefda82f60a,65d6bb0e977760de756971f7,65d6bd7865325b67b36fb079,0.0245,0.0245,0,108,108,132,1,sevenfive,,,,,,,,,,,,,,,,,,,,,,,,,,,,,,,,,,,,,,,,,,,,,,,,,,,,,,,,,,,,,,,,,,,,,,,,,,,,,,,,,,,,,,,,,,,,,,,,,,,,,,,,,,,,,,,,,,,,,,,,,,,,,,,,,,,,,,,,,
,,6101a827b8842aefda82f60a,2024-02-22_24h21.05.520,kallum_motion_pilot,2023.2.2,Win32,74.07407407,6101a827b8842aefda82f60a,65d6bb0e977760de756971f7,65d6bd7865325b67b36fb079,0.0245,0.0245,0,109,109,139,1,sixeight,,,,,,,,,,,,,,,,,,,,,,,,,,,,,,,,,,,,,,,,,,,,,,,,,,,,,,,,,,,,,,,,,,,,,,,,,,,,,,,,,,,,,,,,,,,,,,,,,,,,,,,,,,,,,,,,,,,,,,,,,,,,,,,,,,,,,,,,,
,,6101a827b8842aefda82f60a,2024-02-22_24h21.05.520,kallum_motion_pilot,2023.2.2,Win32,74.07407407,6101a827b8842aefda82f60a,65d6bb0e977760de756971f7,65d6bd7865325b67b36fb079,0.0246,0.0247,0,110,110,32,1,onetwo,,,,,,,,,,,,,,,,,,,,,,,,,,,,,,,,,,,,,,,,,,,,,,,,,,,,,,,,,,,,,,,,,,,,,,,,,,,,,,,,,,,,,,,,,,,,,,,,,,,,,,,,,,,,,,,,,,,,,,,,,,,,,,,,,,,,,,,,,
,,6101a827b8842aefda82f60a,2024-02-22_24h21.05.520,kallum_motion_pilot,2023.2.2,Win32,74.07407407,6101a827b8842aefda82f60a,65d6bb0e977760de756971f7,65d6bd7865325b67b36fb079,0.0247,0.0248,0,111,111,116,1,sevenfive,,,,,,,,,,,,,,,,,,,,,,,,,,,,,,,,,,,,,,,,,,,,,,,,,,,,,,,,,,,,,,,,,,,,,,,,,,,,,,,,,,,,,,,,,,,,,,,,,,,,,,,,,,,,,,,,,,,,,,,,,,,,,,,,,,,,,,,,,
,,6101a827b8842aefda82f60a,2024-02-22_24h21.05.520,kallum_motion_pilot,2023.2.2,Win32,74.07407407,6101a827b8842aefda82f60a,65d6bb0e977760de756971f7,65d6bd7865325b67b36fb079,0.0248,0.0249,0,112,112,122,1,sixfive,,,,,,,,,,,,,,,,,,,,,,,,,,,,,,,,,,,,,,,,,,,,,,,,,,,,,,,,,,,,,,,,,,,,,,,,,,,,,,,,,,,,,,,,,,,,,,,,,,,,,,,,,,,,,,,,,,,,,,,,,,,,,,,,,,,,,,,,,
,,6101a827b8842aefda82f60a,2024-02-22_24h21.05.520,kallum_motion_pilot,2023.2.2,Win32,74.07407407,6101a827b8842aefda82f60a,65d6bb0e977760de756971f7,65d6bd7865325b67b36fb079,0.025,0.025,0,113,113,78,1,fourtwo,,,,,,,,,,,,,,,,,,,,,,,,,,,,,,,,,,,,,,,,,,,,,,,,,,,,,,,,,,,,,,,,,,,,,,,,,,,,,,,,,,,,,,,,,,,,,,,,,,,,,,,,,,,,,,,,,,,,,,,,,,,,,,,,,,,,,,,,,
,,6101a827b8842aefda82f60a,2024-02-22_24h21.05.520,kallum_motion_pilot,2023.2.2,Win32,74.07407407,6101a827b8842aefda82f60a,65d6bb0e977760de756971f7,65d6bd7865325b67b36fb079,0.0251,0.0251,0,114,114,6,1,fourtwo,,,,,,,,,,,,,,,,,,,,,,,,,,,,,,,,,,,,,,,,,,,,,,,,,,,,,,,,,,,,,,,,,,,,,,,,,,,,,,,,,,,,,,,,,,,,,,,,,,,,,,,,,,,,,,,,,,,,,,,,,,,,,,,,,,,,,,,,,
,,6101a827b8842aefda82f60a,2024-02-22_24h21.05.520,kallum_motion_pilot,2023.2.2,Win32,74.07407407,6101a827b8842aefda82f60a,65d6bb0e977760de756971f7,65d6bd7865325b67b36fb079,0.0252,0.0253,0,115,115,113,1,fiveseven,,,,,,,,,,,,,,,,,,,,,,,,,,,,,,,,,,,,,,,,,,,,,,,,,,,,,,,,,,,,,,,,,,,,,,,,,,,,,,,,,,,,,,,,,,,,,,,,,,,,,,,,,,,,,,,,,,,,,,,,,,,,,,,,,,,,,,,,,
,,6101a827b8842aefda82f60a,2024-02-22_24h21.05.520,kallum_motion_pilot,2023.2.2,Win32,74.07407407,6101a827b8842aefda82f60a,65d6bb0e977760de756971f7,65d6bd7865325b67b36fb079,0.0253,0.0253,0,116,116,23,1,fourthree,,,,,,,,,,,,,,,,,,,,,,,,,,,,,,,,,,,,,,,,,,,,,,,,,,,,,,,,,,,,,,,,,,,,,,,,,,,,,,,,,,,,,,,,,,,,,,,,,,,,,,,,,,,,,,,,,,,,,,,,,,,,,,,,,,,,,,,,,
,,6101a827b8842aefda82f60a,2024-02-22_24h21.05.520,kallum_motion_pilot,2023.2.2,Win32,74.07407407,6101a827b8842aefda82f60a,65d6bb0e977760de756971f7,65d6bd7865325b67b36fb079,0.0254,0.0254,0,117,117,145,1,fiveseven,,,,,,,,,,,,,,,,,,,,,,,,,,,,,,,,,,,,,,,,,,,,,,,,,,,,,,,,,,,,,,,,,,,,,,,,,,,,,,,,,,,,,,,,,,,,,,,,,,,,,,,,,,,,,,,,,,,,,,,,,,,,,,,,,,,,,,,,,
,,6101a827b8842aefda82f60a,2024-02-22_24h21.05.520,kallum_motion_pilot,2023.2.2,Win32,74.07407407,6101a827b8842aefda82f60a,65d6bb0e977760de756971f7,65d6bd7865325b67b36fb079,0.0266,0.0266,0,118,118,46,1,fourtwo,,,,,,,,,,,,,,,,,,,,,,,,,,,,,,,,,,,,,,,,,,,,,,,,,,,,,,,,,,,,,,,,,,,,,,,,,,,,,,,,,,,,,,,,,,,,,,,,,,,,,,,,,,,,,,,,,,,,,,,,,,,,,,,,,,,,,,,,,
,,6101a827b8842aefda82f60a,2024-02-22_24h21.05.520,kallum_motion_pilot,2023.2.2,Win32,74.07407407,6101a827b8842aefda82f60a,65d6bb0e977760de756971f7,65d6bd7865325b67b36fb079,0.0267,0.0268,0,119,119,121,1,fiveseven,,,,,,,,,,,,,,,,,,,,,,,,,,,,,,,,,,,,,,,,,,,,,,,,,,,,,,,,,,,,,,,,,,,,,,,,,,,,,,,,,,,,,,,,,,,,,,,,,,,,,,,,,,,,,,,,,,,,,,,,,,,,,,,,,,,,,,,,,
,,6101a827b8842aefda82f60a,2024-02-22_24h21.05.520,kallum_motion_pilot,2023.2.2,Win32,74.07407407,6101a827b8842aefda82f60a,65d6bb0e977760de756971f7,65d6bd7865325b67b36fb079,0.0268,0.0269,0,120,120,83,1,sixeight,,,,,,,,,,,,,,,,,,,,,,,,,,,,,,,,,,,,,,,,,,,,,,,,,,,,,,,,,,,,,,,,,,,,,,,,,,,,,,,,,,,,,,,,,,,,,,,,,,,,,,,,,,,,,,,,,,,,,,,,,,,,,,,,,,,,,,,,,
,,6101a827b8842aefda82f60a,2024-02-22_24h21.05.520,kallum_motion_pilot,2023.2.2,Win32,74.07407407,6101a827b8842aefda82f60a,65d6bb0e977760de756971f7,65d6bd7865325b67b36fb079,0.0269,0.027,0,121,121,4,1,threeone,,,,,,,,,,,,,,,,,,,,,,,,,,,,,,,,,,,,,,,,,,,,,,,,,,,,,,,,,,,,,,,,,,,,,,,,,,,,,,,,,,,,,,,,,,,,,,,,,,,,,,,,,,,,,,,,,,,,,,,,,,,,,,,,,,,,,,,,,
,,6101a827b8842aefda82f60a,2024-02-22_24h21.05.520,kallum_motion_pilot,2023.2.2,Win32,74.07407407,6101a827b8842aefda82f60a,65d6bb0e977760de756971f7,65d6bd7865325b67b36fb079,0.0271,0.0271,0,122,122,146,1,sixfive,,,,,,,,,,,,,,,,,,,,,,,,,,,,,,,,,,,,,,,,,,,,,,,,,,,,,,,,,,,,,,,,,,,,,,,,,,,,,,,,,,,,,,,,,,,,,,,,,,,,,,,,,,,,,,,,,,,,,,,,,,,,,,,,,,,,,,,,,
,,6101a827b8842aefda82f60a,2024-02-22_24h21.05.520,kallum_motion_pilot,2023.2.2,Win32,74.07407407,6101a827b8842aefda82f60a,65d6bb0e977760de756971f7,65d6bd7865325b67b36fb079,0.0272,0.0272,0,123,123,22,1,fourtwo,,,,,,,,,,,,,,,,,,,,,,,,,,,,,,,,,,,,,,,,,,,,,,,,,,,,,,,,,,,,,,,,,,,,,,,,,,,,,,,,,,,,,,,,,,,,,,,,,,,,,,,,,,,,,,,,,,,,,,,,,,,,,,,,,,,,,,,,,
,,6101a827b8842aefda82f60a,2024-02-22_24h21.05.520,kallum_motion_pilot,2023.2.2,Win32,74.07407407,6101a827b8842aefda82f60a,65d6bb0e977760de756971f7,65d6bd7865325b67b36fb079,0.0273,0.0273,0,124,124,12,1,threeone,,,,,,,,,,,,,,,,,,,,,,,,,,,,,,,,,,,,,,,,,,,,,,,,,,,,,,,,,,,,,,,,,,,,,,,,,,,,,,,,,,,,,,,,,,,,,,,,,,,,,,,,,,,,,,,,,,,,,,,,,,,,,,,,,,,,,,,,,
,,6101a827b8842aefda82f60a,2024-02-22_24h21.05.520,kallum_motion_pilot,2023.2.2,Win32,74.07407407,6101a827b8842aefda82f60a,65d6bb0e977760de756971f7,65d6bd7865325b67b36fb079,0.0274,0.0274,0,125,125,60,1,threeone,,,,,,,,,,,,,,,,,,,,,,,,,,,,,,,,,,,,,,,,,,,,,,,,,,,,,,,,,,,,,,,,,,,,,,,,,,,,,,,,,,,,,,,,,,,,,,,,,,,,,,,,,,,,,,,,,,,,,,,,,,,,,,,,,,,,,,,,,
,,6101a827b8842aefda82f60a,2024-02-22_24h21.05.520,kallum_motion_pilot,2023.2.2,Win32,74.07407407,6101a827b8842aefda82f60a,65d6bb0e977760de756971f7,65d6bd7865325b67b36fb079,0.0275,0.0275,0,126,126,152,1,fivesix,,,,,,,,,,,,,,,,,,,,,,,,,,,,,,,,,,,,,,,,,,,,,,,,,,,,,,,,,,,,,,,,,,,,,,,,,,,,,,,,,,,,,,,,,,,,,,,,,,,,,,,,,,,,,,,,,,,,,,,,,,,,,,,,,,,,,,,,,
,,6101a827b8842aefda82f60a,2024-02-22_24h21.05.520,kallum_motion_pilot,2023.2.2,Win32,74.07407407,6101a827b8842aefda82f60a,65d6bb0e977760de756971f7,65d6bd7865325b67b36fb079,0.0277,0.0277,0,127,127,103,1,eightseven,,,,,,,,,,,,,,,,,,,,,,,,,,,,,,,,,,,,,,,,,,,,,,,,,,,,,,,,,,,,,,,,,,,,,,,,,,,,,,,,,,,,,,,,,,,,,,,,,,,,,,,,,,,,,,,,,,,,,,,,,,,,,,,,,,,,,,,,,
,,6101a827b8842aefda82f60a,2024-02-22_24h21.05.520,kallum_motion_pilot,2023.2.2,Win32,74.07407407,6101a827b8842aefda82f60a,65d6bb0e977760de756971f7,65d6bd7865325b67b36fb079,0.0278,0.0278,0,128,128,57,1,onethree,,,,,,,,,,,,,,,,,,,,,,,,,,,,,,,,,,,,,,,,,,,,,,,,,,,,,,,,,,,,,,,,,,,,,,,,,,,,,,,,,,,,,,,,,,,,,,,,,,,,,,,,,,,,,,,,,,,,,,,,,,,,,,,,,,,,,,,,,
,,6101a827b8842aefda82f60a,2024-02-22_24h21.05.520,kallum_motion_pilot,2023.2.2,Win32,74.07407407,6101a827b8842aefda82f60a,65d6bb0e977760de756971f7,65d6bd7865325b67b36fb079,0.0279,0.0279,0,129,129,27,1,twofour,,,,,,,,,,,,,,,,,,,,,,,,,,,,,,,,,,,,,,,,,,,,,,,,,,,,,,,,,,,,,,,,,,,,,,,,,,,,,,,,,,,,,,,,,,,,,,,,,,,,,,,,,,,,,,,,,,,,,,,,,,,,,,,,,,,,,,,,,
,,6101a827b8842aefda82f60a,2024-02-22_24h21.05.520,kallum_motion_pilot,2023.2.2,Win32,74.07407407,6101a827b8842aefda82f60a,65d6bb0e977760de756971f7,65d6bd7865325b67b36fb079,0.028,0.0281,0,130,130,50,1,twoone,,,,,,,,,,,,,,,,,,,,,,,,,,,,,,,,,,,,,,,,,,,,,,,,,,,,,,,,,,,,,,,,,,,,,,,,,,,,,,,,,,,,,,,,,,,,,,,,,,,,,,,,,,,,,,,,,,,,,,,,,,,,,,,,,,,,,,,,,
,,6101a827b8842aefda82f60a,2024-02-22_24h21.05.520,kallum_motion_pilot,2023.2.2,Win32,74.07407407,6101a827b8842aefda82f60a,65d6bb0e977760de756971f7,65d6bd7865325b67b36fb079,0.0281,0.0281,0,131,131,138,1,sixfive,,,,,,,,,,,,,,,,,,,,,,,,,,,,,,,,,,,,,,,,,,,,,,,,,,,,,,,,,,,,,,,,,,,,,,,,,,,,,,,,,,,,,,,,,,,,,,,,,,,,,,,,,,,,,,,,,,,,,,,,,,,,,,,,,,,,,,,,,
,,6101a827b8842aefda82f60a,2024-02-22_24h21.05.520,kallum_motion_pilot,2023.2.2,Win32,74.07407407,6101a827b8842aefda82f60a,65d6bb0e977760de756971f7,65d6bd7865325b67b36fb079,0.0282,0.0283,0,132,132,3,1,twofour,,,,,,,,,,,,,,,,,,,,,,,,,,,,,,,,,,,,,,,,,,,,,,,,,,,,,,,,,,,,,,,,,,,,,,,,,,,,,,,,,,,,,,,,,,,,,,,,,,,,,,,,,,,,,,,,,,,,,,,,,,,,,,,,,,,,,,,,,
,,6101a827b8842aefda82f60a,2024-02-22_24h21.05.520,kallum_motion_pilot,2023.2.2,Win32,74.07407407,6101a827b8842aefda82f60a,65d6bb0e977760de756971f7,65d6bd7865325b67b36fb079,0.0283,0.0284,0,133,133,84,1,sevenfive,,,,,,,,,,,,,,,,,,,,,,,,,,,,,,,,,,,,,,,,,,,,,,,,,,,,,,,,,,,,,,,,,,,,,,,,,,,,,,,,,,,,,,,,,,,,,,,,,,,,,,,,,,,,,,,,,,,,,,,,,,,,,,,,,,,,,,,,,
,,6101a827b8842aefda82f60a,2024-02-22_24h21.05.520,kallum_motion_pilot,2023.2.2,Win32,74.07407407,6101a827b8842aefda82f60a,65d6bb0e977760de756971f7,65d6bd7865325b67b36fb079,0.0284,0.0285,0,134,134,31,1,fourthree,,,,,,,,,,,,,,,,,,,,,,,,,,,,,,,,,,,,,,,,,,,,,,,,,,,,,,,,,,,,,,,,,,,,,,,,,,,,,,,,,,,,,,,,,,,,,,,,,,,,,,,,,,,,,,,,,,,,,,,,,,,,,,,,,,,,,,,,,
,,6101a827b8842aefda82f60a,2024-02-22_24h21.05.520,kallum_motion_pilot,2023.2.2,Win32,74.07407407,6101a827b8842aefda82f60a,65d6bb0e977760de756971f7,65d6bd7865325b67b36fb079,0.0285,0.0285,0,135,135,97,1,fiveseven,,,,,,,,,,,,,,,,,,,,,,,,,,,,,,,,,,,,,,,,,,,,,,,,,,,,,,,,,,,,,,,,,,,,,,,,,,,,,,,,,,,,,,,,,,,,,,,,,,,,,,,,,,,,,,,,,,,,,,,,,,,,,,,,,,,,,,,,,
,,6101a827b8842aefda82f60a,2024-02-22_24h21.05.520,kallum_motion_pilot,2023.2.2,Win32,74.07407407,6101a827b8842aefda82f60a,65d6bb0e977760de756971f7,65d6bd7865325b67b36fb079,0.0287,0.0287,0,136,136,29,1,threefour,,,,,,,,,,,,,,,,,,,,,,,,,,,,,,,,,,,,,,,,,,,,,,,,,,,,,,,,,,,,,,,,,,,,,,,,,,,,,,,,,,,,,,,,,,,,,,,,,,,,,,,,,,,,,,,,,,,,,,,,,,,,,,,,,,,,,,,,,
,,6101a827b8842aefda82f60a,2024-02-22_24h21.05.520,kallum_motion_pilot,2023.2.2,Win32,74.07407407,6101a827b8842aefda82f60a,65d6bb0e977760de756971f7,65d6bd7865325b67b36fb079,0.0287,0.0288,0,137,137,156,1,sevenfive,,,,,,,,,,,,,,,,,,,,,,,,,,,,,,,,,,,,,,,,,,,,,,,,,,,,,,,,,,,,,,,,,,,,,,,,,,,,,,,,,,,,,,,,,,,,,,,,,,,,,,,,,,,,,,,,,,,,,,,,,,,,,,,,,,,,,,,,,
,,6101a827b8842aefda82f60a,2024-02-22_24h21.05.520,kallum_motion_pilot,2023.2.2,Win32,74.07407407,6101a827b8842aefda82f60a,65d6bb0e977760de756971f7,65d6bd7865325b67b36fb079,0.0288,0.0288,0,138,138,142,1,eightsix,,,,,,,,,,,,,,,,,,,,,,,,,,,,,,,,,,,,,,,,,,,,,,,,,,,,,,,,,,,,,,,,,,,,,,,,,,,,,,,,,,,,,,,,,,,,,,,,,,,,,,,,,,,,,,,,,,,,,,,,,,,,,,,,,,,,,,,,,
,,6101a827b8842aefda82f60a,2024-02-22_24h21.05.520,kallum_motion_pilot,2023.2.2,Win32,74.07407407,6101a827b8842aefda82f60a,65d6bb0e977760de756971f7,65d6bd7865325b67b36fb079,0.0289,0.0289,0,139,139,100,1,sevenfive,,,,,,,,,,,,,,,,,,,,,,,,,,,,,,,,,,,,,,,,,,,,,,,,,,,,,,,,,,,,,,,,,,,,,,,,,,,,,,,,,,,,,,,,,,,,,,,,,,,,,,,,,,,,,,,,,,,,,,,,,,,,,,,,,,,,,,,,,
,,6101a827b8842aefda82f60a,2024-02-22_24h21.05.520,kallum_motion_pilot,2023.2.2,Win32,74.07407407,6101a827b8842aefda82f60a,65d6bb0e977760de756971f7,65d6bd7865325b67b36fb079,0.0289,0.0289,0,140,140,82,1,sixfive,,,,,,,,,,,,,,,,,,,,,,,,,,,,,,,,,,,,,,,,,,,,,,,,,,,,,,,,,,,,,,,,,,,,,,,,,,,,,,,,,,,,,,,,,,,,,,,,,,,,,,,,,,,,,,,,,,,,,,,,,,,,,,,,,,,,,,,,,
,,6101a827b8842aefda82f60a,2024-02-22_24h21.05.520,kallum_motion_pilot,2023.2.2,Win32,74.07407407,6101a827b8842aefda82f60a,65d6bb0e977760de756971f7,65d6bd7865325b67b36fb079,0.029,0.029,0,141,141,111,1,eightseven,,,,,,,,,,,,,,,,,,,,,,,,,,,,,,,,,,,,,,,,,,,,,,,,,,,,,,,,,,,,,,,,,,,,,,,,,,,,,,,,,,,,,,,,,,,,,,,,,,,,,,,,,,,,,,,,,,,,,,,,,,,,,,,,,,,,,,,,,
,,6101a827b8842aefda82f60a,2024-02-22_24h21.05.520,kallum_motion_pilot,2023.2.2,Win32,74.07407407,6101a827b8842aefda82f60a,65d6bb0e977760de756971f7,65d6bd7865325b67b36fb079,0.029,0.0291,0,142,142,127,1,eightseven,,,,,,,,,,,,,,,,,,,,,,,,,,,,,,,,,,,,,,,,,,,,,,,,,,,,,,,,,,,,,,,,,,,,,,,,,,,,,,,,,,,,,,,,,,,,,,,,,,,,,,,,,,,,,,,,,,,,,,,,,,,,,,,,,,,,,,,,,
,,6101a827b8842aefda82f60a,2024-02-22_24h21.05.520,kallum_motion_pilot,2023.2.2,Win32,74.07407407,6101a827b8842aefda82f60a,65d6bb0e977760de756971f7,65d6bd7865325b67b36fb079,0.0291,0.0292,0,143,143,8,1,onetwo,,,,,,,,,,,,,,,,,,,,,,,,,,,,,,,,,,,,,,,,,,,,,,,,,,,,,,,,,,,,,,,,,,,,,,,,,,,,,,,,,,,,,,,,,,,,,,,,,,,,,,,,,,,,,,,,,,,,,,,,,,,,,,,,,,,,,,,,,
,,6101a827b8842aefda82f60a,2024-02-22_24h21.05.520,kallum_motion_pilot,2023.2.2,Win32,74.07407407,6101a827b8842aefda82f60a,65d6bb0e977760de756971f7,65d6bd7865325b67b36fb079,0.0292,0.0292,0,144,144,117,1,seveneight,,,,,,,,,,,,,,,,,,,,,,,,,,,,,,,,,,,,,,,,,,,,,,,,,,,,,,,,,,,,,,,,,,,,,,,,,,,,,,,,,,,,,,,,,,,,,,,,,,,,,,,,,,,,,,,,,,,,,,,,,,,,,,,,,,,,,,,,,
,,6101a827b8842aefda82f60a,2024-02-22_24h21.05.520,kallum_motion_pilot,2023.2.2,Win32,74.07407407,6101a827b8842aefda82f60a,65d6bb0e977760de756971f7,65d6bd7865325b67b36fb079,0.0293,0.0293,0,145,145,47,1,fourthree,,,,,,,,,,,,,,,,,,,,,,,,,,,,,,,,,,,,,,,,,,,,,,,,,,,,,,,,,,,,,,,,,,,,,,,,,,,,,,,,,,,,,,,,,,,,,,,,,,,,,,,,,,,,,,,,,,,,,,,,,,,,,,,,,,,,,,,,,
,,6101a827b8842aefda82f60a,2024-02-22_24h21.05.520,kallum_motion_pilot,2023.2.2,Win32,74.07407407,6101a827b8842aefda82f60a,65d6bb0e977760de756971f7,65d6bd7865325b67b36fb079,0.0293,0.0294,0,146,146,36,1,threeone,,,,,,,,,,,,,,,,,,,,,,,,,,,,,,,,,,,,,,,,,,,,,,,,,,,,,,,,,,,,,,,,,,,,,,,,,,,,,,,,,,,,,,,,,,,,,,,,,,,,,,,,,,,,,,,,,,,,,,,,,,,,,,,,,,,,,,,,,
,,6101a827b8842aefda82f60a,2024-02-22_24h21.05.520,kallum_motion_pilot,2023.2.2,Win32,74.07407407,6101a827b8842aefda82f60a,65d6bb0e977760de756971f7,65d6bd7865325b67b36fb079,0.0294,0.0295,0,147,147,11,1,twofour,,,,,,,,,,,,,,,,,,,,,,,,,,,,,,,,,,,,,,,,,,,,,,,,,,,,,,,,,,,,,,,,,,,,,,,,,,,,,,,,,,,,,,,,,,,,,,,,,,,,,,,,,,,,,,,,,,,,,,,,,,,,,,,,,,,,,,,,,
,,6101a827b8842aefda82f60a,2024-02-22_24h21.05.520,kallum_motion_pilot,2023.2.2,Win32,74.07407407,6101a827b8842aefda82f60a,65d6bb0e977760de756971f7,65d6bd7865325b67b36fb079,0.0295,0.0295,0,148,148,34,1,twoone,,,,,,,,,,,,,,,,,,,,,,,,,,,,,,,,,,,,,,,,,,,,,,,,,,,,,,,,,,,,,,,,,,,,,,,,,,,,,,,,,,,,,,,,,,,,,,,,,,,,,,,,,,,,,,,,,,,,,,,,,,,,,,,,,,,,,,,,,
,,6101a827b8842aefda82f60a,2024-02-22_24h21.05.520,kallum_motion_pilot,2023.2.2,Win32,74.07407407,6101a827b8842aefda82f60a,65d6bb0e977760de756971f7,65d6bd7865325b67b36fb079,0.0296,0.0296,0,149,149,42,1,twoone,,,,,,,,,,,,,,,,,,,,,,,,,,,,,,,,,,,,,,,,,,,,,,,,,,,,,,,,,,,,,,,,,,,,,,,,,,,,,,,,,,,,,,,,,,,,,,,,,,,,,,,,,,,,,,,,,,,,,,,,,,,,,,,,,,,,,,,,,
,,6101a827b8842aefda82f60a,2024-02-22_24h21.05.520,kallum_motion_pilot,2023.2.2,Win32,74.07407407,6101a827b8842aefda82f60a,65d6bb0e977760de756971f7,65d6bd7865325b67b36fb079,0.0296,0.0296,0,150,150,102,1,eightsix,,,,,,,,,,,,,,,,,,,,,,,,,,,,,,,,,,,,,,,,,,,,,,,,,,,,,,,,,,,,,,,,,,,,,,,,,,,,,,,,,,,,,,,,,,,,,,,,,,,,,,,,,,,,,,,,,,,,,,,,,,,,,,,,,,,,,,,,,
,,6101a827b8842aefda82f60a,2024-02-22_24h21.05.520,kallum_motion_pilot,2023.2.2,Win32,74.07407407,6101a827b8842aefda82f60a,65d6bb0e977760de756971f7,65d6bd7865325b67b36fb079,0.0297,0.0297,0,151,151,147,1,sixeight,,,,,,,,,,,,,,,,,,,,,,,,,,,,,,,,,,,,,,,,,,,,,,,,,,,,,,,,,,,,,,,,,,,,,,,,,,,,,,,,,,,,,,,,,,,,,,,,,,,,,,,,,,,,,,,,,,,,,,,,,,,,,,,,,,,,,,,,,
,,6101a827b8842aefda82f60a,2024-02-22_24h21.05.520,kallum_motion_pilot,2023.2.2,Win32,74.07407407,6101a827b8842aefda82f60a,65d6bb0e977760de756971f7,65d6bd7865325b67b36fb079,0.0297,0.0297,0,152,152,88,1,fivesix,,,,,,,,,,,,,,,,,,,,,,,,,,,,,,,,,,,,,,,,,,,,,,,,,,,,,,,,,,,,,,,,,,,,,,,,,,,,,,,,,,,,,,,,,,,,,,,,,,,,,,,,,,,,,,,,,,,,,,,,,,,,,,,,,,,,,,,,,
,,6101a827b8842aefda82f60a,2024-02-22_24h21.05.520,kallum_motion_pilot,2023.2.2,Win32,74.07407407,6101a827b8842aefda82f60a,65d6bb0e977760de756971f7,65d6bd7865325b67b36fb079,0.0298,0.0299,0,153,153,119,1,eightseven,,,,,,,,,,,,,,,,,,,,,,,,,,,,,,,,,,,,,,,,,,,,,,,,,,,,,,,,,,,,,,,,,,,,,,,,,,,,,,,,,,,,,,,,,,,,,,,,,,,,,,,,,,,,,,,,,,,,,,,,,,,,,,,,,,,,,,,,,
,,6101a827b8842aefda82f60a,2024-02-22_24h21.05.520,kallum_motion_pilot,2023.2.2,Win32,74.07407407,6101a827b8842aefda82f60a,65d6bb0e977760de756971f7,65d6bd7865325b67b36fb079,0.0299,0.0299,0,154,154,118,1,eightsix,,,,,,,,,,,,,,,,,,,,,,,,,,,,,,,,,,,,,,,,,,,,,,,,,,,,,,,,,,,,,,,,,,,,,,,,,,,,,,,,,,,,,,,,,,,,,,,,,,,,,,,,,,,,,,,,,,,,,,,,,,,,,,,,,,,,,,,,,
,,6101a827b8842aefda82f60a,2024-02-22_24h21.05.520,kallum_motion_pilot,2023.2.2,Win32,74.07407407,6101a827b8842aefda82f60a,65d6bb0e977760de756971f7,65d6bd7865325b67b36fb079,0.0299,0.0299,0,155,155,123,1,sixeight,,,,,,,,,,,,,,,,,,,,,,,,,,,,,,,,,,,,,,,,,,,,,,,,,,,,,,,,,,,,,,,,,,,,,,,,,,,,,,,,,,,,,,,,,,,,,,,,,,,,,,,,,,,,,,,,,,,,,,,,,,,,,,,,,,,,,,,,,
,,6101a827b8842aefda82f60a,2024-02-22_24h21.05.520,kallum_motion_pilot,2023.2.2,Win32,74.07407407,6101a827b8842aefda82f60a,65d6bb0e977760de756971f7,65d6bd7865325b67b36fb079,0.03,0.03,0,156,156,106,1,sixfive,,,,,,,,,,,,,,,,,,,,,,,,,,,,,,,,,,,,,,,,,,,,,,,,,,,,,,,,,,,,,,,,,,,,,,,,,,,,,,,,,,,,,,,,,,,,,,,,,,,,,,,,,,,,,,,,,,,,,,,,,,,,,,,,,,,,,,,,,
,,6101a827b8842aefda82f60a,2024-02-22_24h21.05.520,kallum_motion_pilot,2023.2.2,Win32,74.07407407,6101a827b8842aefda82f60a,65d6bb0e977760de756971f7,65d6bd7865325b67b36fb079,0.0301,0.0301,0,157,157,148,1,sevenfive,,,,,,,,,,,,,,,,,,,,,,,,,,,,,,,,,,,,,,,,,,,,,,,,,,,,,,,,,,,,,,,,,,,,,,,,,,,,,,,,,,,,,,,,,,,,,,,,,,,,,,,,,,,,,,,,,,,,,,,,,,,,,,,,,,,,,,,,,
,,6101a827b8842aefda82f60a,2024-02-22_24h21.05.520,kallum_motion_pilot,2023.2.2,Win32,74.07407407,6101a827b8842aefda82f60a,65d6bb0e977760de756971f7,65d6bd7865325b67b36fb079,0.0302,0.0302,0,158,158,101,1,seveneight,,,,,,,,,,,,,,,,,,,,,,,,,,,,,,,,,,,,,,,,,,,,,,,,,,,,,,,,,,,,,,,,,,,,,,,,,,,,,,,,,,,,,,,,,,,,,,,,,,,,,,,,,,,,,,,,,,,,,,,,,,,,,,,,,,,,,,,,,
,,6101a827b8842aefda82f60a,2024-02-22_24h21.05.520,kallum_motion_pilot,2023.2.2,Win32,74.07407407,6101a827b8842aefda82f60a,65d6bb0e977760de756971f7,65d6bd7865325b67b36fb079,0.0302,0.0303,0,159,159,75,1,twofour,,,,,,,,,,,,,,,,,,,,,,,,,,,,,,,,,,,,,,,,,,,,,,,,,,,,,,,,,,,,,,,,,,,,,,,,,,,,,,,,,,,,,,,,,,,,,,,,,,,,,,,,,,,,,,,,,,,,,,,,,,,,,,,,,,,,,,,,,
,,6101a827b8842aefda82f60a,2024-02-22_24h21.05.520,kallum_motion_pilot,2023.2.2,Win32,74.07407407,6101a827b8842aefda82f60a,65d6bb0e977760de756971f7,65d6bd7865325b67b36fb079,0.0303,0.0303,0,160,160,158,1,eightsix,,,,,,,,,,,,,,,,,,,,,,,,,,,,,,,,,,,,,,,,,,,,,,,,,,,,,,,,,,,,,,,,,,,,,,,,,,,,,,,,,,,,,,,,,,,,,,,,,,,,,,,,,,,,,,,,,,,,,,,,,,,,,,,,,,,,,,,,,
,,6101a827b8842aefda82f60a,2024-02-22_24h21.05.520,kallum_motion_pilot,2023.2.2,Win32,74.07407407,6101a827b8842aefda82f60a,65d6bb0e977760de756971f7,65d6bd7865325b67b36fb079,0.0304,0.0304,0,161,161,24,1,onetwo,,,,,,,,,,,,,,,,,,,,,,,,,,,,,,,,,,,,,,,,,,,,,,,,,,,,,,,,,,,,,,,,,,,,,,,,,,,,,,,,,,,,,,,,,,,,,,,,,,,,,,,,,,,,,,,,,,,,,,,,,,,,,,,,,,,,,,,,,
,,6101a827b8842aefda82f60a,2024-02-22_24h21.05.520,kallum_motion_pilot,2023.2.2,Win32,74.07407407,6101a827b8842aefda82f60a,65d6bb0e977760de756971f7,65d6bd7865325b67b36fb079,0.0305,0.0305,1,0,162,11,1,twofour,,,,,,,,,,,,,,,,,,,,,,,,,,,,,,,,,,,,,,,,,,,,,,,,,,,,,,,,,,,,,,,,,,,,,,,,,,,,,,,,,,,,,,,,,,,,,,,,,,,,,,,,,,,,,,,,,,,,,,,,,,,,,,,,,,,,,,,,,
,,6101a827b8842aefda82f60a,2024-02-22_24h21.05.520,kallum_motion_pilot,2023.2.2,Win32,74.07407407,6101a827b8842aefda82f60a,65d6bb0e977760de756971f7,65d6bd7865325b67b36fb079,0.0305,0.0306,1,1,163,146,1,sixfive,,,,,,,,,,,,,,,,,,,,,,,,,,,,,,,,,,,,,,,,,,,,,,,,,,,,,,,,,,,,,,,,,,,,,,,,,,,,,,,,,,,,,,,,,,,,,,,,,,,,,,,,,,,,,,,,,,,,,,,,,,,,,,,,,,,,,,,,,
,,6101a827b8842aefda82f60a,2024-02-22_24h21.05.520,kallum_motion_pilot,2023.2.2,Win32,74.07407407,6101a827b8842aefda82f60a,65d6bb0e977760de756971f7,65d6bd7865325b67b36fb079,0.0306,0.0306,1,2,164,71,1,fourthree,,,,,,,,,,,,,,,,,,,,,,,,,,,,,,,,,,,,,,,,,,,,,,,,,,,,,,,,,,,,,,,,,,,,,,,,,,,,,,,,,,,,,,,,,,,,,,,,,,,,,,,,,,,,,,,,,,,,,,,,,,,,,,,,,,,,,,,,,
,,6101a827b8842aefda82f60a,2024-02-22_24h21.05.520,kallum_motion_pilot,2023.2.2,Win32,74.07407407,6101a827b8842aefda82f60a,65d6bb0e977760de756971f7,65d6bd7865325b67b36fb079,0.0307,0.0307,1,3,165,95,1,eightseven,,,,,,,,,,,,,,,,,,,,,,,,,,,,,,,,,,,,,,,,,,,,,,,,,,,,,,,,,,,,,,,,,,,,,,,,,,,,,,,,,,,,,,,,,,,,,,,,,,,,,,,,,,,,,,,,,,,,,,,,,,,,,,,,,,,,,,,,,
,,6101a827b8842aefda82f60a,2024-02-22_24h21.05.520,kallum_motion_pilot,2023.2.2,Win32,74.07407407,6101a827b8842aefda82f60a,65d6bb0e977760de756971f7,65d6bd7865325b67b36fb079,0.0308,0.0308,1,4,166,119,1,eightseven,,,,,,,,,,,,,,,,,,,,,,,,,,,,,,,,,,,,,,,,,,,,,,,,,,,,,,,,,,,,,,,,,,,,,,,,,,,,,,,,,,,,,,,,,,,,,,,,,,,,,,,,,,,,,,,,,,,,,,,,,,,,,,,,,,,,,,,,,
,,6101a827b8842aefda82f60a,2024-02-22_24h21.05.520,kallum_motion_pilot,2023.2.2,Win32,74.07407407,6101a827b8842aefda82f60a,65d6bb0e977760de756971f7,65d6bd7865325b67b36fb079,0.0309,0.0309,1,5,167,117,1,seveneight,,,,,,,,,,,,,,,,,,,,,,,,,,,,,,,,,,,,,,,,,,,,,,,,,,,,,,,,,,,,,,,,,,,,,,,,,,,,,,,,,,,,,,,,,,,,,,,,,,,,,,,,,,,,,,,,,,,,,,,,,,,,,,,,,,,,,,,,,
,,6101a827b8842aefda82f60a,2024-02-22_24h21.05.520,kallum_motion_pilot,2023.2.2,Win32,74.07407407,6101a827b8842aefda82f60a,65d6bb0e977760de756971f7,65d6bd7865325b67b36fb079,0.0309,0.031,1,6,168,90,1,sixfive,,,,,,,,,,,,,,,,,,,,,,,,,,,,,,,,,,,,,,,,,,,,,,,,,,,,,,,,,,,,,,,,,,,,,,,,,,,,,,,,,,,,,,,,,,,,,,,,,,,,,,,,,,,,,,,,,,,,,,,,,,,,,,,,,,,,,,,,,
,,6101a827b8842aefda82f60a,2024-02-22_24h21.05.520,kallum_motion_pilot,2023.2.2,Win32,74.07407407,6101a827b8842aefda82f60a,65d6bb0e977760de756971f7,65d6bd7865325b67b36fb079,0.031,0.031,1,7,169,79,1,eightseven,,,,,,,,,,,,,,,,,,,,,,,,,,,,,,,,,,,,,,,,,,,,,,,,,,,,,,,,,,,,,,,,,,,,,,,,,,,,,,,,,,,,,,,,,,,,,,,,,,,,,,,,,,,,,,,,,,,,,,,,,,,,,,,,,,,,,,,,,
,,6101a827b8842aefda82f60a,2024-02-22_24h21.05.520,kallum_motion_pilot,2023.2.2,Win32,74.07407407,6101a827b8842aefda82f60a,65d6bb0e977760de756971f7,65d6bd7865325b67b36fb079,0.031,0.031,1,8,170,83,1,sixeight,,,,,,,,,,,,,,,,,,,,,,,,,,,,,,,,,,,,,,,,,,,,,,,,,,,,,,,,,,,,,,,,,,,,,,,,,,,,,,,,,,,,,,,,,,,,,,,,,,,,,,,,,,,,,,,,,,,,,,,,,,,,,,,,,,,,,,,,,
,,6101a827b8842aefda82f60a,2024-02-22_24h21.05.520,kallum_motion_pilot,2023.2.2,Win32,74.07407407,6101a827b8842aefda82f60a,65d6bb0e977760de756971f7,65d6bd7865325b67b36fb079,0.0311,0.0311,1,9,171,142,1,eightsix,,,,,,,,,,,,,,,,,,,,,,,,,,,,,,,,,,,,,,,,,,,,,,,,,,,,,,,,,,,,,,,,,,,,,,,,,,,,,,,,,,,,,,,,,,,,,,,,,,,,,,,,,,,,,,,,,,,,,,,,,,,,,,,,,,,,,,,,,
,,6101a827b8842aefda82f60a,2024-02-22_24h21.05.520,kallum_motion_pilot,2023.2.2,Win32,74.07407407,6101a827b8842aefda82f60a,65d6bb0e977760de756971f7,65d6bd7865325b67b36fb079,0.0312,0.0312,1,10,172,35,1,twofour,,,,,,,,,,,,,,,,,,,,,,,,,,,,,,,,,,,,,,,,,,,,,,,,,,,,,,,,,,,,,,,,,,,,,,,,,,,,,,,,,,,,,,,,,,,,,,,,,,,,,,,,,,,,,,,,,,,,,,,,,,,,,,,,,,,,,,,,,
,,6101a827b8842aefda82f60a,2024-02-22_24h21.05.520,kallum_motion_pilot,2023.2.2,Win32,74.07407407,6101a827b8842aefda82f60a,65d6bb0e977760de756971f7,65d6bd7865325b67b36fb079,0.0313,0.0313,1,11,173,58,1,twoone,,,,,,,,,,,,,,,,,,,,,,,,,,,,,,,,,,,,,,,,,,,,,,,,,,,,,,,,,,,,,,,,,,,,,,,,,,,,,,,,,,,,,,,,,,,,,,,,,,,,,,,,,,,,,,,,,,,,,,,,,,,,,,,,,,,,,,,,,
,,6101a827b8842aefda82f60a,2024-02-22_24h21.05.520,kallum_motion_pilot,2023.2.2,Win32,74.07407407,6101a827b8842aefda82f60a,65d6bb0e977760de756971f7,65d6bd7865325b67b36fb079,0.0314,0.0314,1,12,174,60,1,threeone,,,,,,,,,,,,,,,,,,,,,,,,,,,,,,,,,,,,,,,,,,,,,,,,,,,,,,,,,,,,,,,,,,,,,,,,,,,,,,,,,,,,,,,,,,,,,,,,,,,,,,,,,,,,,,,,,,,,,,,,,,,,,,,,,,,,,,,,,
,,6101a827b8842aefda82f60a,2024-02-22_24h21.05.520,kallum_motion_pilot,2023.2.2,Win32,74.07407407,6101a827b8842aefda82f60a,65d6bb0e977760de756971f7,65d6bd7865325b67b36fb079,0.0314,0.0315,1,13,175,5,1,threefour,,,,,,,,,,,,,,,,,,,,,,,,,,,,,,,,,,,,,,,,,,,,,,,,,,,,,,,,,,,,,,,,,,,,,,,,,,,,,,,,,,,,,,,,,,,,,,,,,,,,,,,,,,,,,,,,,,,,,,,,,,,,,,,,,,,,,,,,,
,,6101a827b8842aefda82f60a,2024-02-22_24h21.05.520,kallum_motion_pilot,2023.2.2,Win32,74.07407407,6101a827b8842aefda82f60a,65d6bb0e977760de756971f7,65d6bd7865325b67b36fb079,0.0315,0.0316,1,14,176,137,1,fiveseven,,,,,,,,,,,,,,,,,,,,,,,,,,,,,,,,,,,,,,,,,,,,,,,,,,,,,,,,,,,,,,,,,,,,,,,,,,,,,,,,,,,,,,,,,,,,,,,,,,,,,,,,,,,,,,,,,,,,,,,,,,,,,,,,,,,,,,,,,
,,6101a827b8842aefda82f60a,2024-02-22_24h21.05.520,kallum_motion_pilot,2023.2.2,Win32,74.07407407,6101a827b8842aefda82f60a,65d6bb0e977760de756971f7,65d6bd7865325b67b36fb079,0.0316,0.0316,1,15,177,157,1,seveneight,,,,,,,,,,,,,,,,,,,,,,,,,,,,,,,,,,,,,,,,,,,,,,,,,,,,,,,,,,,,,,,,,,,,,,,,,,,,,,,,,,,,,,,,,,,,,,,,,,,,,,,,,,,,,,,,,,,,,,,,,,,,,,,,,,,,,,,,,
,,6101a827b8842aefda82f60a,2024-02-22_24h21.05.520,kallum_motion_pilot,2023.2.2,Win32,74.07407407,6101a827b8842aefda82f60a,65d6bb0e977760de756971f7,65d6bd7865325b67b36fb079,0.0316,0.0317,1,16,178,28,1,threeone,,,,,,,,,,,,,,,,,,,,,,,,,,,,,,,,,,,,,,,,,,,,,,,,,,,,,,,,,,,,,,,,,,,,,,,,,,,,,,,,,,,,,,,,,,,,,,,,,,,,,,,,,,,,,,,,,,,,,,,,,,,,,,,,,,,,,,,,,
,,6101a827b8842aefda82f60a,2024-02-22_24h21.05.520,kallum_motion_pilot,2023.2.2,Win32,74.07407407,6101a827b8842aefda82f60a,65d6bb0e977760de756971f7,65d6bd7865325b67b36fb079,0.0317,0.0317,1,17,179,63,1,fourthree,,,,,,,,,,,,,,,,,,,,,,,,,,,,,,,,,,,,,,,,,,,,,,,,,,,,,,,,,,,,,,,,,,,,,,,,,,,,,,,,,,,,,,,,,,,,,,,,,,,,,,,,,,,,,,,,,,,,,,,,,,,,,,,,,,,,,,,,,
,,6101a827b8842aefda82f60a,2024-02-22_24h21.05.520,kallum_motion_pilot,2023.2.2,Win32,74.07407407,6101a827b8842aefda82f60a,65d6bb0e977760de756971f7,65d6bd7865325b67b36fb079,0.0319,0.0319,1,18,180,155,1,sixeight,,,,,,,,,,,,,,,,,,,,,,,,,,,,,,,,,,,,,,,,,,,,,,,,,,,,,,,,,,,,,,,,,,,,,,,,,,,,,,,,,,,,,,,,,,,,,,,,,,,,,,,,,,,,,,,,,,,,,,,,,,,,,,,,,,,,,,,,,
,,6101a827b8842aefda82f60a,2024-02-22_24h21.05.520,kallum_motion_pilot,2023.2.2,Win32,74.07407407,6101a827b8842aefda82f60a,65d6bb0e977760de756971f7,65d6bd7865325b67b36fb079,0.0319,0.032,1,19,181,153,1,fiveseven,,,,,,,,,,,,,,,,,,,,,,,,,,,,,,,,,,,,,,,,,,,,,,,,,,,,,,,,,,,,,,,,,,,,,,,,,,,,,,,,,,,,,,,,,,,,,,,,,,,,,,,,,,,,,,,,,,,,,,,,,,,,,,,,,,,,,,,,,
,,6101a827b8842aefda82f60a,2024-02-22_24h21.05.520,kallum_motion_pilot,2023.2.2,Win32,74.07407407,6101a827b8842aefda82f60a,65d6bb0e977760de756971f7,65d6bd7865325b67b36fb079,0.032,0.032,1,20,182,148,1,sevenfive,,,,,,,,,,,,,,,,,,,,,,,,,,,,,,,,,,,,,,,,,,,,,,,,,,,,,,,,,,,,,,,,,,,,,,,,,,,,,,,,,,,,,,,,,,,,,,,,,,,,,,,,,,,,,,,,,,,,,,,,,,,,,,,,,,,,,,,,,
,,6101a827b8842aefda82f60a,2024-02-22_24h21.05.520,kallum_motion_pilot,2023.2.2,Win32,74.07407407,6101a827b8842aefda82f60a,65d6bb0e977760de756971f7,65d6bd7865325b67b36fb079,0.0321,0.0321,1,21,183,59,1,twofour,,,,,,,,,,,,,,,,,,,,,,,,,,,,,,,,,,,,,,,,,,,,,,,,,,,,,,,,,,,,,,,,,,,,,,,,,,,,,,,,,,,,,,,,,,,,,,,,,,,,,,,,,,,,,,,,,,,,,,,,,,,,,,,,,,,,,,,,,
,,6101a827b8842aefda82f60a,2024-02-22_24h21.05.520,kallum_motion_pilot,2023.2.2,Win32,74.07407407,6101a827b8842aefda82f60a,65d6bb0e977760de756971f7,65d6bd7865325b67b36fb079,0.0321,0.0321,1,22,184,102,1,eightsix,,,,,,,,,,,,,,,,,,,,,,,,,,,,,,,,,,,,,,,,,,,,,,,,,,,,,,,,,,,,,,,,,,,,,,,,,,,,,,,,,,,,,,,,,,,,,,,,,,,,,,,,,,,,,,,,,,,,,,,,,,,,,,,,,,,,,,,,,
,,6101a827b8842aefda82f60a,2024-02-22_24h21.05.520,kallum_motion_pilot,2023.2.2,Win32,74.07407407,6101a827b8842aefda82f60a,65d6bb0e977760de756971f7,65d6bd7865325b67b36fb079,0.0322,0.0322,1,23,185,139,1,sixeight,,,,,,,,,,,,,,,,,,,,,,,,,,,,,,,,,,,,,,,,,,,,,,,,,,,,,,,,,,,,,,,,,,,,,,,,,,,,,,,,,,,,,,,,,,,,,,,,,,,,,,,,,,,,,,,,,,,,,,,,,,,,,,,,,,,,,,,,,
,,6101a827b8842aefda82f60a,2024-02-22_24h21.05.520,kallum_motion_pilot,2023.2.2,Win32,74.07407407,6101a827b8842aefda82f60a,65d6bb0e977760de756971f7,65d6bd7865325b67b36fb079,0.0323,0.0324,1,24,186,127,1,eightseven,,,,,,,,,,,,,,,,,,,,,,,,,,,,,,,,,,,,,,,,,,,,,,,,,,,,,,,,,,,,,,,,,,,,,,,,,,,,,,,,,,,,,,,,,,,,,,,,,,,,,,,,,,,,,,,,,,,,,,,,,,,,,,,,,,,,,,,,,
,,6101a827b8842aefda82f60a,2024-02-22_24h21.05.520,kallum_motion_pilot,2023.2.2,Win32,74.07407407,6101a827b8842aefda82f60a,65d6bb0e977760de756971f7,65d6bd7865325b67b36fb079,0.0324,0.0324,1,25,187,91,1,sixeight,,,,,,,,,,,,,,,,,,,,,,,,,,,,,,,,,,,,,,,,,,,,,,,,,,,,,,,,,,,,,,,,,,,,,,,,,,,,,,,,,,,,,,,,,,,,,,,,,,,,,,,,,,,,,,,,,,,,,,,,,,,,,,,,,,,,,,,,,
,,6101a827b8842aefda82f60a,2024-02-22_24h21.05.520,kallum_motion_pilot,2023.2.2,Win32,74.07407407,6101a827b8842aefda82f60a,65d6bb0e977760de756971f7,65d6bd7865325b67b36fb079,0.0325,0.0325,1,26,188,156,1,sevenfive,,,,,,,,,,,,,,,,,,,,,,,,,,,,,,,,,,,,,,,,,,,,,,,,,,,,,,,,,,,,,,,,,,,,,,,,,,,,,,,,,,,,,,,,,,,,,,,,,,,,,,,,,,,,,,,,,,,,,,,,,,,,,,,,,,,,,,,,,
,,6101a827b8842aefda82f60a,2024-02-22_24h21.05.520,kallum_motion_pilot,2023.2.2,Win32,74.07407407,6101a827b8842aefda82f60a,65d6bb0e977760de756971f7,65d6bd7865325b67b36fb079,0.0325,0.0326,1,27,189,136,1,fivesix,,,,,,,,,,,,,,,,,,,,,,,,,,,,,,,,,,,,,,,,,,,,,,,,,,,,,,,,,,,,,,,,,,,,,,,,,,,,,,,,,,,,,,,,,,,,,,,,,,,,,,,,,,,,,,,,,,,,,,,,,,,,,,,,,,,,,,,,,
,,6101a827b8842aefda82f60a,2024-02-22_24h21.05.520,kallum_motion_pilot,2023.2.2,Win32,74.07407407,6101a827b8842aefda82f60a,65d6bb0e977760de756971f7,65d6bd7865325b67b36fb079,0.0327,0.0327,1,28,190,69,1,threefour,,,,,,,,,,,,,,,,,,,,,,,,,,,,,,,,,,,,,,,,,,,,,,,,,,,,,,,,,,,,,,,,,,,,,,,,,,,,,,,,,,,,,,,,,,,,,,,,,,,,,,,,,,,,,,,,,,,,,,,,,,,,,,,,,,,,,,,,,
,,6101a827b8842aefda82f60a,2024-02-22_24h21.05.520,kallum_motion_pilot,2023.2.2,Win32,74.07407407,6101a827b8842aefda82f60a,65d6bb0e977760de756971f7,65d6bd7865325b67b36fb079,0.0327,0.0327,1,29,191,75,1,twofour,,,,,,,,,,,,,,,,,,,,,,,,,,,,,,,,,,,,,,,,,,,,,,,,,,,,,,,,,,,,,,,,,,,,,,,,,,,,,,,,,,,,,,,,,,,,,,,,,,,,,,,,,,,,,,,,,,,,,,,,,,,,,,,,,,,,,,,,,
,,6101a827b8842aefda82f60a,2024-02-22_24h21.05.520,kallum_motion_pilot,2023.2.2,Win32,74.07407407,6101a827b8842aefda82f60a,65d6bb0e977760de756971f7,65d6bd7865325b67b36fb079,0.0328,0.0328,1,30,192,134,1,eightsix,,,,,,,,,,,,,,,,,,,,,,,,,,,,,,,,,,,,,,,,,,,,,,,,,,,,,,,,,,,,,,,,,,,,,,,,,,,,,,,,,,,,,,,,,,,,,,,,,,,,,,,,,,,,,,,,,,,,,,,,,,,,,,,,,,,,,,,,,
,,6101a827b8842aefda82f60a,2024-02-22_24h21.05.520,kallum_motion_pilot,2023.2.2,Win32,74.07407407,6101a827b8842aefda82f60a,65d6bb0e977760de756971f7,65d6bd7865325b67b36fb079,0.0329,0.0329,1,31,193,154,1,sixfive,,,,,,,,,,,,,,,,,,,,,,,,,,,,,,,,,,,,,,,,,,,,,,,,,,,,,,,,,,,,,,,,,,,,,,,,,,,,,,,,,,,,,,,,,,,,,,,,,,,,,,,,,,,,,,,,,,,,,,,,,,,,,,,,,,,,,,,,,
,,6101a827b8842aefda82f60a,2024-02-22_24h21.05.520,kallum_motion_pilot,2023.2.2,Win32,74.07407407,6101a827b8842aefda82f60a,65d6bb0e977760de756971f7,65d6bd7865325b67b36fb079,0.0329,0.0329,1,32,194,106,1,sixfive,,,,,,,,,,,,,,,,,,,,,,,,,,,,,,,,,,,,,,,,,,,,,,,,,,,,,,,,,,,,,,,,,,,,,,,,,,,,,,,,,,,,,,,,,,,,,,,,,,,,,,,,,,,,,,,,,,,,,,,,,,,,,,,,,,,,,,,,,
,,6101a827b8842aefda82f60a,2024-02-22_24h21.05.520,kallum_motion_pilot,2023.2.2,Win32,74.07407407,6101a827b8842aefda82f60a,65d6bb0e977760de756971f7,65d6bd7865325b67b36fb079,0.033,0.033,1,33,195,103,1,eightseven,,,,,,,,,,,,,,,,,,,,,,,,,,,,,,,,,,,,,,,,,,,,,,,,,,,,,,,,,,,,,,,,,,,,,,,,,,,,,,,,,,,,,,,,,,,,,,,,,,,,,,,,,,,,,,,,,,,,,,,,,,,,,,,,,,,,,,,,,
,,6101a827b8842aefda82f60a,2024-02-22_24h21.05.520,kallum_motion_pilot,2023.2.2,Win32,74.07407407,6101a827b8842aefda82f60a,65d6bb0e977760de756971f7,65d6bd7865325b67b36fb079,0.033,0.0331,1,34,196,66,1,twoone,,,,,,,,,,,,,,,,,,,,,,,,,,,,,,,,,,,,,,,,,,,,,,,,,,,,,,,,,,,,,,,,,,,,,,,,,,,,,,,,,,,,,,,,,,,,,,,,,,,,,,,,,,,,,,,,,,,,,,,,,,,,,,,,,,,,,,,,,
,,6101a827b8842aefda82f60a,2024-02-22_24h21.05.520,kallum_motion_pilot,2023.2.2,Win32,74.07407407,6101a827b8842aefda82f60a,65d6bb0e977760de756971f7,65d6bd7865325b67b36fb079,0.0331,0.0332,1,35,197,25,1,onethree,,,,,,,,,,,,,,,,,,,,,,,,,,,,,,,,,,,,,,,,,,,,,,,,,,,,,,,,,,,,,,,,,,,,,,,,,,,,,,,,,,,,,,,,,,,,,,,,,,,,,,,,,,,,,,,,,,,,,,,,,,,,,,,,,,,,,,,,,
,,6101a827b8842aefda82f60a,2024-02-22_24h21.05.520,kallum_motion_pilot,2023.2.2,Win32,74.07407407,6101a827b8842aefda82f60a,65d6bb0e977760de756971f7,65d6bd7865325b67b36fb079,0.0333,0.0333,1,36,198,8,1,onetwo,,,,,,,,,,,,,,,,,,,,,,,,,,,,,,,,,,,,,,,,,,,,,,,,,,,,,,,,,,,,,,,,,,,,,,,,,,,,,,,,,,,,,,,,,,,,,,,,,,,,,,,,,,,,,,,,,,,,,,,,,,,,,,,,,,,,,,,,,
,,6101a827b8842aefda82f60a,2024-02-22_24h21.05.520,kallum_motion_pilot,2023.2.2,Win32,74.07407407,6101a827b8842aefda82f60a,65d6bb0e977760de756971f7,65d6bd7865325b67b36fb079,0.0333,0.0333,1,37,199,96,1,fivesix,,,,,,,,,,,,,,,,,,,,,,,,,,,,,,,,,,,,,,,,,,,,,,,,,,,,,,,,,,,,,,,,,,,,,,,,,,,,,,,,,,,,,,,,,,,,,,,,,,,,,,,,,,,,,,,,,,,,,,,,,,,,,,,,,,,,,,,,,
,,6101a827b8842aefda82f60a,2024-02-22_24h21.05.520,kallum_motion_pilot,2023.2.2,Win32,74.07407407,6101a827b8842aefda82f60a,65d6bb0e977760de756971f7,65d6bd7865325b67b36fb079,0.0334,0.0334,1,38,200,143,1,eightseven,,,,,,,,,,,,,,,,,,,,,,,,,,,,,,,,,,,,,,,,,,,,,,,,,,,,,,,,,,,,,,,,,,,,,,,,,,,,,,,,,,,,,,,,,,,,,,,,,,,,,,,,,,,,,,,,,,,,,,,,,,,,,,,,,,,,,,,,,
,,6101a827b8842aefda82f60a,2024-02-22_24h21.05.520,kallum_motion_pilot,2023.2.2,Win32,74.07407407,6101a827b8842aefda82f60a,65d6bb0e977760de756971f7,65d6bd7865325b67b36fb079,0.0335,0.0335,1,39,201,36,1,threeone,,,,,,,,,,,,,,,,,,,,,,,,,,,,,,,,,,,,,,,,,,,,,,,,,,,,,,,,,,,,,,,,,,,,,,,,,,,,,,,,,,,,,,,,,,,,,,,,,,,,,,,,,,,,,,,,,,,,,,,,,,,,,,,,,,,,,,,,,
,,6101a827b8842aefda82f60a,2024-02-22_24h21.05.520,kallum_motion_pilot,2023.2.2,Win32,74.07407407,6101a827b8842aefda82f60a,65d6bb0e977760de756971f7,65d6bd7865325b67b36fb079,0.0335,0.0336,1,40,202,2,1,twoone,,,,,,,,,,,,,,,,,,,,,,,,,,,,,,,,,,,,,,,,,,,,,,,,,,,,,,,,,,,,,,,,,,,,,,,,,,,,,,,,,,,,,,,,,,,,,,,,,,,,,,,,,,,,,,,,,,,,,,,,,,,,,,,,,,,,,,,,,
,,6101a827b8842aefda82f60a,2024-02-22_24h21.05.520,kallum_motion_pilot,2023.2.2,Win32,74.07407407,6101a827b8842aefda82f60a,65d6bb0e977760de756971f7,65d6bd7865325b67b36fb079,0.0337,0.0337,1,41,203,111,1,eightseven,,,,,,,,,,,,,,,,,,,,,,,,,,,,,,,,,,,,,,,,,,,,,,,,,,,,,,,,,,,,,,,,,,,,,,,,,,,,,,,,,,,,,,,,,,,,,,,,,,,,,,,,,,,,,,,,,,,,,,,,,,,,,,,,,,,,,,,,,
,,6101a827b8842aefda82f60a,2024-02-22_24h21.05.520,kallum_motion_pilot,2023.2.2,Win32,74.07407407,6101a827b8842aefda82f60a,65d6bb0e977760de756971f7,65d6bd7865325b67b36fb079,0.0337,0.0338,1,42,204,98,1,sixfive,,,,,,,,,,,,,,,,,,,,,,,,,,,,,,,,,,,,,,,,,,,,,,,,,,,,,,,,,,,,,,,,,,,,,,,,,,,,,,,,,,,,,,,,,,,,,,,,,,,,,,,,,,,,,,,,,,,,,,,,,,,,,,,,,,,,,,,,,
,,6101a827b8842aefda82f60a,2024-02-22_24h21.05.520,kallum_motion_pilot,2023.2.2,Win32,74.07407407,6101a827b8842aefda82f60a,65d6bb0e977760de756971f7,65d6bd7865325b67b36fb079,0.0338,0.0338,1,43,205,120,1,fivesix,,,,,,,,,,,,,,,,,,,,,,,,,,,,,,,,,,,,,,,,,,,,,,,,,,,,,,,,,,,,,,,,,,,,,,,,,,,,,,,,,,,,,,,,,,,,,,,,,,,,,,,,,,,,,,,,,,,,,,,,,,,,,,,,,,,,,,,,,
,,6101a827b8842aefda82f60a,2024-02-22_24h21.05.520,kallum_motion_pilot,2023.2.2,Win32,74.07407407,6101a827b8842aefda82f60a,65d6bb0e977760de756971f7,65d6bd7865325b67b36fb079,0.0338,0.0338,1,44,206,19,1,twofour,,,,,,,,,,,,,,,,,,,,,,,,,,,,,,,,,,,,,,,,,,,,,,,,,,,,,,,,,,,,,,,,,,,,,,,,,,,,,,,,,,,,,,,,,,,,,,,,,,,,,,,,,,,,,,,,,,,,,,,,,,,,,,,,,,,,,,,,,
,,6101a827b8842aefda82f60a,2024-02-22_24h21.05.520,kallum_motion_pilot,2023.2.2,Win32,74.07407407,6101a827b8842aefda82f60a,65d6bb0e977760de756971f7,65d6bd7865325b67b36fb079,0.0339,0.0339,1,45,207,22,1,fourtwo,,,,,,,,,,,,,,,,,,,,,,,,,,,,,,,,,,,,,,,,,,,,,,,,,,,,,,,,,,,,,,,,,,,,,,,,,,,,,,,,,,,,,,,,,,,,,,,,,,,,,,,,,,,,,,,,,,,,,,,,,,,,,,,,,,,,,,,,,
,,6101a827b8842aefda82f60a,2024-02-22_24h21.05.520,kallum_motion_pilot,2023.2.2,Win32,74.07407407,6101a827b8842aefda82f60a,65d6bb0e977760de756971f7,65d6bd7865325b67b36fb079,0.034,0.0341,1,46,208,20,1,threeone,,,,,,,,,,,,,,,,,,,,,,,,,,,,,,,,,,,,,,,,,,,,,,,,,,,,,,,,,,,,,,,,,,,,,,,,,,,,,,,,,,,,,,,,,,,,,,,,,,,,,,,,,,,,,,,,,,,,,,,,,,,,,,,,,,,,,,,,,
,,6101a827b8842aefda82f60a,2024-02-22_24h21.05.520,kallum_motion_pilot,2023.2.2,Win32,74.07407407,6101a827b8842aefda82f60a,65d6bb0e977760de756971f7,65d6bd7865325b67b36fb079,0.0341,0.0341,1,47,209,50,1,twoone,,,,,,,,,,,,,,,,,,,,,,,,,,,,,,,,,,,,,,,,,,,,,,,,,,,,,,,,,,,,,,,,,,,,,,,,,,,,,,,,,,,,,,,,,,,,,,,,,,,,,,,,,,,,,,,,,,,,,,,,,,,,,,,,,,,,,,,,,
,,6101a827b8842aefda82f60a,2024-02-22_24h21.05.520,kallum_motion_pilot,2023.2.2,Win32,74.07407407,6101a827b8842aefda82f60a,65d6bb0e977760de756971f7,65d6bd7865325b67b36fb079,0.0342,0.0342,1,48,210,150,1,eightsix,,,,,,,,,,,,,,,,,,,,,,,,,,,,,,,,,,,,,,,,,,,,,,,,,,,,,,,,,,,,,,,,,,,,,,,,,,,,,,,,,,,,,,,,,,,,,,,,,,,,,,,,,,,,,,,,,,,,,,,,,,,,,,,,,,,,,,,,,
,,6101a827b8842aefda82f60a,2024-02-22_24h21.05.520,kallum_motion_pilot,2023.2.2,Win32,74.07407407,6101a827b8842aefda82f60a,65d6bb0e977760de756971f7,65d6bd7865325b67b36fb079,0.0343,0.0343,1,49,211,125,1,seveneight,,,,,,,,,,,,,,,,,,,,,,,,,,,,,,,,,,,,,,,,,,,,,,,,,,,,,,,,,,,,,,,,,,,,,,,,,,,,,,,,,,,,,,,,,,,,,,,,,,,,,,,,,,,,,,,,,,,,,,,,,,,,,,,,,,,,,,,,,
,,6101a827b8842aefda82f60a,2024-02-22_24h21.05.520,kallum_motion_pilot,2023.2.2,Win32,74.07407407,6101a827b8842aefda82f60a,65d6bb0e977760de756971f7,65d6bd7865325b67b36fb079,0.0344,0.0344,1,50,212,26,1,twoone,,,,,,,,,,,,,,,,,,,,,,,,,,,,,,,,,,,,,,,,,,,,,,,,,,,,,,,,,,,,,,,,,,,,,,,,,,,,,,,,,,,,,,,,,,,,,,,,,,,,,,,,,,,,,,,,,,,,,,,,,,,,,,,,,,,,,,,,,
,,6101a827b8842aefda82f60a,2024-02-22_24h21.05.520,kallum_motion_pilot,2023.2.2,Win32,74.07407407,6101a827b8842aefda82f60a,65d6bb0e977760de756971f7,65d6bd7865325b67b36fb079,0.0344,0.0344,1,51,213,108,1,sevenfive,,,,,,,,,,,,,,,,,,,,,,,,,,,,,,,,,,,,,,,,,,,,,,,,,,,,,,,,,,,,,,,,,,,,,,,,,,,,,,,,,,,,,,,,,,,,,,,,,,,,,,,,,,,,,,,,,,,,,,,,,,,,,,,,,,,,,,,,,
,,6101a827b8842aefda82f60a,2024-02-22_24h21.05.520,kallum_motion_pilot,2023.2.2,Win32,74.07407407,6101a827b8842aefda82f60a,65d6bb0e977760de756971f7,65d6bd7865325b67b36fb079,0.0345,0.0346,1,52,214,14,1,fourtwo,,,,,,,,,,,,,,,,,,,,,,,,,,,,,,,,,,,,,,,,,,,,,,,,,,,,,,,,,,,,,,,,,,,,,,,,,,,,,,,,,,,,,,,,,,,,,,,,,,,,,,,,,,,,,,,,,,,,,,,,,,,,,,,,,,,,,,,,,
,,6101a827b8842aefda82f60a,2024-02-22_24h21.05.520,kallum_motion_pilot,2023.2.2,Win32,74.07407407,6101a827b8842aefda82f60a,65d6bb0e977760de756971f7,65d6bd7865325b67b36fb079,0.0347,0.0347,1,53,215,110,1,eightsix,,,,,,,,,,,,,,,,,,,,,,,,,,,,,,,,,,,,,,,,,,,,,,,,,,,,,,,,,,,,,,,,,,,,,,,,,,,,,,,,,,,,,,,,,,,,,,,,,,,,,,,,,,,,,,,,,,,,,,,,,,,,,,,,,,,,,,,,,
,,6101a827b8842aefda82f60a,2024-02-22_24h21.05.520,kallum_motion_pilot,2023.2.2,Win32,74.07407407,6101a827b8842aefda82f60a,65d6bb0e977760de756971f7,65d6bd7865325b67b36fb079,0.0347,0.0347,1,54,216,84,1,sevenfive,,,,,,,,,,,,,,,,,,,,,,,,,,,,,,,,,,,,,,,,,,,,,,,,,,,,,,,,,,,,,,,,,,,,,,,,,,,,,,,,,,,,,,,,,,,,,,,,,,,,,,,,,,,,,,,,,,,,,,,,,,,,,,,,,,,,,,,,,
,,6101a827b8842aefda82f60a,2024-02-22_24h21.05.520,kallum_motion_pilot,2023.2.2,Win32,74.07407407,6101a827b8842aefda82f60a,65d6bb0e977760de756971f7,65d6bd7865325b67b36fb079,0.0348,0.0348,1,55,217,124,1,sevenfive,,,,,,,,,,,,,,,,,,,,,,,,,,,,,,,,,,,,,,,,,,,,,,,,,,,,,,,,,,,,,,,,,,,,,,,,,,,,,,,,,,,,,,,,,,,,,,,,,,,,,,,,,,,,,,,,,,,,,,,,,,,,,,,,,,,,,,,,,
,,6101a827b8842aefda82f60a,2024-02-22_24h21.05.520,kallum_motion_pilot,2023.2.2,Win32,74.07407407,6101a827b8842aefda82f60a,65d6bb0e977760de756971f7,65d6bd7865325b67b36fb079,0.0348,0.0348,1,56,218,4,1,threeone,,,,,,,,,,,,,,,,,,,,,,,,,,,,,,,,,,,,,,,,,,,,,,,,,,,,,,,,,,,,,,,,,,,,,,,,,,,,,,,,,,,,,,,,,,,,,,,,,,,,,,,,,,,,,,,,,,,,,,,,,,,,,,,,,,,,,,,,,
,,6101a827b8842aefda82f60a,2024-02-22_24h21.05.520,kallum_motion_pilot,2023.2.2,Win32,74.07407407,6101a827b8842aefda82f60a,65d6bb0e977760de756971f7,65d6bd7865325b67b36fb079,0.035,0.035,1,57,219,7,1,fourthree,,,,,,,,,,,,,,,,,,,,,,,,,,,,,,,,,,,,,,,,,,,,,,,,,,,,,,,,,,,,,,,,,,,,,,,,,,,,,,,,,,,,,,,,,,,,,,,,,,,,,,,,,,,,,,,,,,,,,,,,,,,,,,,,,,,,,,,,,
,,6101a827b8842aefda82f60a,2024-02-22_24h21.05.520,kallum_motion_pilot,2023.2.2,Win32,74.07407407,6101a827b8842aefda82f60a,65d6bb0e977760de756971f7,65d6bd7865325b67b36fb079,0.035,0.0351,1,58,220,114,1,sixfive,,,,,,,,,,,,,,,,,,,,,,,,,,,,,,,,,,,,,,,,,,,,,,,,,,,,,,,,,,,,,,,,,,,,,,,,,,,,,,,,,,,,,,,,,,,,,,,,,,,,,,,,,,,,,,,,,,,,,,,,,,,,,,,,,,,,,,,,,
,,6101a827b8842aefda82f60a,2024-02-22_24h21.05.520,kallum_motion_pilot,2023.2.2,Win32,74.07407407,6101a827b8842aefda82f60a,65d6bb0e977760de756971f7,65d6bd7865325b67b36fb079,0.0351,0.0351,1,59,221,48,1,onetwo,,,,,,,,,,,,,,,,,,,,,,,,,,,,,,,,,,,,,,,,,,,,,,,,,,,,,,,,,,,,,,,,,,,,,,,,,,,,,,,,,,,,,,,,,,,,,,,,,,,,,,,,,,,,,,,,,,,,,,,,,,,,,,,,,,,,,,,,,
,,6101a827b8842aefda82f60a,2024-02-22_24h21.05.520,kallum_motion_pilot,2023.2.2,Win32,74.07407407,6101a827b8842aefda82f60a,65d6bb0e977760de756971f7,65d6bd7865325b67b36fb079,0.0351,0.0352,1,60,222,94,1,eightsix,,,,,,,,,,,,,,,,,,,,,,,,,,,,,,,,,,,,,,,,,,,,,,,,,,,,,,,,,,,,,,,,,,,,,,,,,,,,,,,,,,,,,,,,,,,,,,,,,,,,,,,,,,,,,,,,,,,,,,,,,,,,,,,,,,,,,,,,,
,,6101a827b8842aefda82f60a,2024-02-22_24h21.05.520,kallum_motion_pilot,2023.2.2,Win32,74.07407407,6101a827b8842aefda82f60a,65d6bb0e977760de756971f7,65d6bd7865325b67b36fb079,0.0352,0.0353,1,61,223,128,1,fivesix,,,,,,,,,,,,,,,,,,,,,,,,,,,,,,,,,,,,,,,,,,,,,,,,,,,,,,,,,,,,,,,,,,,,,,,,,,,,,,,,,,,,,,,,,,,,,,,,,,,,,,,,,,,,,,,,,,,,,,,,,,,,,,,,,,,,,,,,,
,,6101a827b8842aefda82f60a,2024-02-22_24h21.05.520,kallum_motion_pilot,2023.2.2,Win32,74.07407407,6101a827b8842aefda82f60a,65d6bb0e977760de756971f7,65d6bd7865325b67b36fb079,0.0353,0.0353,1,62,224,46,1,fourtwo,,,,,,,,,,,,,,,,,,,,,,,,,,,,,,,,,,,,,,,,,,,,,,,,,,,,,,,,,,,,,,,,,,,,,,,,,,,,,,,,,,,,,,,,,,,,,,,,,,,,,,,,,,,,,,,,,,,,,,,,,,,,,,,,,,,,,,,,,
,,6101a827b8842aefda82f60a,2024-02-22_24h21.05.520,kallum_motion_pilot,2023.2.2,Win32,74.07407407,6101a827b8842aefda82f60a,65d6bb0e977760de756971f7,65d6bd7865325b67b36fb079,0.0354,0.0354,1,63,225,70,1,fourtwo,,,,,,,,,,,,,,,,,,,,,,,,,,,,,,,,,,,,,,,,,,,,,,,,,,,,,,,,,,,,,,,,,,,,,,,,,,,,,,,,,,,,,,,,,,,,,,,,,,,,,,,,,,,,,,,,,,,,,,,,,,,,,,,,,,,,,,,,,
,,6101a827b8842aefda82f60a,2024-02-22_24h21.05.520,kallum_motion_pilot,2023.2.2,Win32,74.07407407,6101a827b8842aefda82f60a,65d6bb0e977760de756971f7,65d6bd7865325b67b36fb079,0.0355,0.0355,1,64,226,53,1,threefour,,,,,,,,,,,,,,,,,,,,,,,,,,,,,,,,,,,,,,,,,,,,,,,,,,,,,,,,,,,,,,,,,,,,,,,,,,,,,,,,,,,,,,,,,,,,,,,,,,,,,,,,,,,,,,,,,,,,,,,,,,,,,,,,,,,,,,,,,
,,6101a827b8842aefda82f60a,2024-02-22_24h21.05.520,kallum_motion_pilot,2023.2.2,Win32,74.07407407,6101a827b8842aefda82f60a,65d6bb0e977760de756971f7,65d6bd7865325b67b36fb079,0.0355,0.0356,1,65,227,88,1,fivesix,,,,,,,,,,,,,,,,,,,,,,,,,,,,,,,,,,,,,,,,,,,,,,,,,,,,,,,,,,,,,,,,,,,,,,,,,,,,,,,,,,,,,,,,,,,,,,,,,,,,,,,,,,,,,,,,,,,,,,,,,,,,,,,,,,,,,,,,,
,,6101a827b8842aefda82f60a,2024-02-22_24h21.05.520,kallum_motion_pilot,2023.2.2,Win32,74.07407407,6101a827b8842aefda82f60a,65d6bb0e977760de756971f7,65d6bd7865325b67b36fb079,0.0357,0.0357,1,66,228,89,1,fiveseven,,,,,,,,,,,,,,,,,,,,,,,,,,,,,,,,,,,,,,,,,,,,,,,,,,,,,,,,,,,,,,,,,,,,,,,,,,,,,,,,,,,,,,,,,,,,,,,,,,,,,,,,,,,,,,,,,,,,,,,,,,,,,,,,,,,,,,,,,
,,6101a827b8842aefda82f60a,2024-02-22_24h21.05.520,kallum_motion_pilot,2023.2.2,Win32,74.07407407,6101a827b8842aefda82f60a,65d6bb0e977760de756971f7,65d6bd7865325b67b36fb079,0.0357,0.0358,1,67,229,118,1,eightsix,,,,,,,,,,,,,,,,,,,,,,,,,,,,,,,,,,,,,,,,,,,,,,,,,,,,,,,,,,,,,,,,,,,,,,,,,,,,,,,,,,,,,,,,,,,,,,,,,,,,,,,,,,,,,,,,,,,,,,,,,,,,,,,,,,,,,,,,,
,,6101a827b8842aefda82f60a,2024-02-22_24h21.05.520,kallum_motion_pilot,2023.2.2,Win32,74.07407407,6101a827b8842aefda82f60a,65d6bb0e977760de756971f7,65d6bd7865325b67b36fb079,0.0358,0.0358,1,68,230,104,1,fivesix,,,,,,,,,,,,,,,,,,,,,,,,,,,,,,,,,,,,,,,,,,,,,,,,,,,,,,,,,,,,,,,,,,,,,,,,,,,,,,,,,,,,,,,,,,,,,,,,,,,,,,,,,,,,,,,,,,,,,,,,,,,,,,,,,,,,,,,,,
,,6101a827b8842aefda82f60a,2024-02-22_24h21.05.520,kallum_motion_pilot,2023.2.2,Win32,74.07407407,6101a827b8842aefda82f60a,65d6bb0e977760de756971f7,65d6bd7865325b67b36fb079,0.0359,0.0359,1,69,231,135,1,eightseven,,,,,,,,,,,,,,,,,,,,,,,,,,,,,,,,,,,,,,,,,,,,,,,,,,,,,,,,,,,,,,,,,,,,,,,,,,,,,,,,,,,,,,,,,,,,,,,,,,,,,,,,,,,,,,,,,,,,,,,,,,,,,,,,,,,,,,,,,
,,6101a827b8842aefda82f60a,2024-02-22_24h21.05.520,kallum_motion_pilot,2023.2.2,Win32,74.07407407,6101a827b8842aefda82f60a,65d6bb0e977760de756971f7,65d6bd7865325b67b36fb079,0.0359,0.036,1,70,232,43,1,twofour,,,,,,,,,,,,,,,,,,,,,,,,,,,,,,,,,,,,,,,,,,,,,,,,,,,,,,,,,,,,,,,,,,,,,,,,,,,,,,,,,,,,,,,,,,,,,,,,,,,,,,,,,,,,,,,,,,,,,,,,,,,,,,,,,,,,,,,,,
,,6101a827b8842aefda82f60a,2024-02-22_24h21.05.520,kallum_motion_pilot,2023.2.2,Win32,74.07407407,6101a827b8842aefda82f60a,65d6bb0e977760de756971f7,65d6bd7865325b67b36fb079,0.036,0.036,1,71,233,57,1,onethree,,,,,,,,,,,,,,,,,,,,,,,,,,,,,,,,,,,,,,,,,,,,,,,,,,,,,,,,,,,,,,,,,,,,,,,,,,,,,,,,,,,,,,,,,,,,,,,,,,,,,,,,,,,,,,,,,,,,,,,,,,,,,,,,,,,,,,,,,
,,6101a827b8842aefda82f60a,2024-02-22_24h21.05.520,kallum_motion_pilot,2023.2.2,Win32,74.07407407,6101a827b8842aefda82f60a,65d6bb0e977760de756971f7,65d6bd7865325b67b36fb079,0.036,0.0362,1,72,234,151,1,eightseven,,,,,,,,,,,,,,,,,,,,,,,,,,,,,,,,,,,,,,,,,,,,,,,,,,,,,,,,,,,,,,,,,,,,,,,,,,,,,,,,,,,,,,,,,,,,,,,,,,,,,,,,,,,,,,,,,,,,,,,,,,,,,,,,,,,,,,,,,
,,6101a827b8842aefda82f60a,2024-02-22_24h21.05.520,kallum_motion_pilot,2023.2.2,Win32,74.07407407,6101a827b8842aefda82f60a,65d6bb0e977760de756971f7,65d6bd7865325b67b36fb079,0.0362,0.0362,1,73,235,93,1,seveneight,,,,,,,,,,,,,,,,,,,,,,,,,,,,,,,,,,,,,,,,,,,,,,,,,,,,,,,,,,,,,,,,,,,,,,,,,,,,,,,,,,,,,,,,,,,,,,,,,,,,,,,,,,,,,,,,,,,,,,,,,,,,,,,,,,,,,,,,,
,,6101a827b8842aefda82f60a,2024-02-22_24h21.05.520,kallum_motion_pilot,2023.2.2,Win32,74.07407407,6101a827b8842aefda82f60a,65d6bb0e977760de756971f7,65d6bd7865325b67b36fb079,0.0362,0.0363,1,74,236,82,1,sixfive,,,,,,,,,,,,,,,,,,,,,,,,,,,,,,,,,,,,,,,,,,,,,,,,,,,,,,,,,,,,,,,,,,,,,,,,,,,,,,,,,,,,,,,,,,,,,,,,,,,,,,,,,,,,,,,,,,,,,,,,,,,,,,,,,,,,,,,,,
,,6101a827b8842aefda82f60a,2024-02-22_24h21.05.520,kallum_motion_pilot,2023.2.2,Win32,74.07407407,6101a827b8842aefda82f60a,65d6bb0e977760de756971f7,65d6bd7865325b67b36fb079,0.0364,0.0364,1,75,237,141,1,seveneight,,,,,,,,,,,,,,,,,,,,,,,,,,,,,,,,,,,,,,,,,,,,,,,,,,,,,,,,,,,,,,,,,,,,,,,,,,,,,,,,,,,,,,,,,,,,,,,,,,,,,,,,,,,,,,,,,,,,,,,,,,,,,,,,,,,,,,,,,
,,6101a827b8842aefda82f60a,2024-02-22_24h21.05.520,kallum_motion_pilot,2023.2.2,Win32,74.07407407,6101a827b8842aefda82f60a,65d6bb0e977760de756971f7,65d6bd7865325b67b36fb079,0.0365,0.0365,1,76,238,87,1,eightseven,,,,,,,,,,,,,,,,,,,,,,,,,,,,,,,,,,,,,,,,,,,,,,,,,,,,,,,,,,,,,,,,,,,,,,,,,,,,,,,,,,,,,,,,,,,,,,,,,,,,,,,,,,,,,,,,,,,,,,,,,,,,,,,,,,,,,,,,,
,,6101a827b8842aefda82f60a,2024-02-22_24h21.05.520,kallum_motion_pilot,2023.2.2,Win32,74.07407407,6101a827b8842aefda82f60a,65d6bb0e977760de756971f7,65d6bd7865325b67b36fb079,0.0365,0.0366,1,77,239,140,1,sevenfive,,,,,,,,,,,,,,,,,,,,,,,,,,,,,,,,,,,,,,,,,,,,,,,,,,,,,,,,,,,,,,,,,,,,,,,,,,,,,,,,,,,,,,,,,,,,,,,,,,,,,,,,,,,,,,,,,,,,,,,,,,,,,,,,,,,,,,,,,
,,6101a827b8842aefda82f60a,2024-02-22_24h21.05.520,kallum_motion_pilot,2023.2.2,Win32,74.07407407,6101a827b8842aefda82f60a,65d6bb0e977760de756971f7,65d6bd7865325b67b36fb079,0.0366,0.0366,1,78,240,81,1,fiveseven,,,,,,,,,,,,,,,,,,,,,,,,,,,,,,,,,,,,,,,,,,,,,,,,,,,,,,,,,,,,,,,,,,,,,,,,,,,,,,,,,,,,,,,,,,,,,,,,,,,,,,,,,,,,,,,,,,,,,,,,,,,,,,,,,,,,,,,,,
,,6101a827b8842aefda82f60a,2024-02-22_24h21.05.520,kallum_motion_pilot,2023.2.2,Win32,74.07407407,6101a827b8842aefda82f60a,65d6bb0e977760de756971f7,65d6bd7865325b67b36fb079,0.0367,0.0367,1,79,241,13,1,threefour,,,,,,,,,,,,,,,,,,,,,,,,,,,,,,,,,,,,,,,,,,,,,,,,,,,,,,,,,,,,,,,,,,,,,,,,,,,,,,,,,,,,,,,,,,,,,,,,,,,,,,,,,,,,,,,,,,,,,,,,,,,,,,,,,,,,,,,,,
,,6101a827b8842aefda82f60a,2024-02-22_24h21.05.520,kallum_motion_pilot,2023.2.2,Win32,74.07407407,6101a827b8842aefda82f60a,65d6bb0e977760de756971f7,65d6bd7865325b67b36fb079,0.0367,0.0368,1,80,242,115,1,sixeight,,,,,,,,,,,,,,,,,,,,,,,,,,,,,,,,,,,,,,,,,,,,,,,,,,,,,,,,,,,,,,,,,,,,,,,,,,,,,,,,,,,,,,,,,,,,,,,,,,,,,,,,,,,,,,,,,,,,,,,,,,,,,,,,,,,,,,,,,
,,6101a827b8842aefda82f60a,2024-02-22_24h21.05.520,kallum_motion_pilot,2023.2.2,Win32,74.07407407,6101a827b8842aefda82f60a,65d6bb0e977760de756971f7,65d6bd7865325b67b36fb079,0.0368,0.0368,1,81,243,65,1,onethree,,,,,,,,,,,,,,,,,,,,,,,,,,,,,,,,,,,,,,,,,,,,,,,,,,,,,,,,,,,,,,,,,,,,,,,,,,,,,,,,,,,,,,,,,,,,,,,,,,,,,,,,,,,,,,,,,,,,,,,,,,,,,,,,,,,,,,,,,
,,6101a827b8842aefda82f60a,2024-02-22_24h21.05.520,kallum_motion_pilot,2023.2.2,Win32,74.07407407,6101a827b8842aefda82f60a,65d6bb0e977760de756971f7,65d6bd7865325b67b36fb079,0.0369,0.0369,1,82,244,74,1,twoone,,,,,,,,,,,,,,,,,,,,,,,,,,,,,,,,,,,,,,,,,,,,,,,,,,,,,,,,,,,,,,,,,,,,,,,,,,,,,,,,,,,,,,,,,,,,,,,,,,,,,,,,,,,,,,,,,,,,,,,,,,,,,,,,,,,,,,,,,
,,6101a827b8842aefda82f60a,2024-02-22_24h21.05.520,kallum_motion_pilot,2023.2.2,Win32,74.07407407,6101a827b8842aefda82f60a,65d6bb0e977760de756971f7,65d6bd7865325b67b36fb079,0.0369,0.0371,1,83,245,126,1,eightsix,,,,,,,,,,,,,,,,,,,,,,,,,,,,,,,,,,,,,,,,,,,,,,,,,,,,,,,,,,,,,,,,,,,,,,,,,,,,,,,,,,,,,,,,,,,,,,,,,,,,,,,,,,,,,,,,,,,,,,,,,,,,,,,,,,,,,,,,,
,,6101a827b8842aefda82f60a,2024-02-22_24h21.05.520,kallum_motion_pilot,2023.2.2,Win32,74.07407407,6101a827b8842aefda82f60a,65d6bb0e977760de756971f7,65d6bd7865325b67b36fb079,0.0371,0.0371,1,84,246,147,1,sixeight,,,,,,,,,,,,,,,,,,,,,,,,,,,,,,,,,,,,,,,,,,,,,,,,,,,,,,,,,,,,,,,,,,,,,,,,,,,,,,,,,,,,,,,,,,,,,,,,,,,,,,,,,,,,,,,,,,,,,,,,,,,,,,,,,,,,,,,,,
,,6101a827b8842aefda82f60a,2024-02-22_24h21.05.520,kallum_motion_pilot,2023.2.2,Win32,74.07407407,6101a827b8842aefda82f60a,65d6bb0e977760de756971f7,65d6bd7865325b67b36fb079,0.0372,0.0372,1,85,247,47,1,fourthree,,,,,,,,,,,,,,,,,,,,,,,,,,,,,,,,,,,,,,,,,,,,,,,,,,,,,,,,,,,,,,,,,,,,,,,,,,,,,,,,,,,,,,,,,,,,,,,,,,,,,,,,,,,,,,,,,,,,,,,,,,,,,,,,,,,,,,,,,
,,6101a827b8842aefda82f60a,2024-02-22_24h21.05.520,kallum_motion_pilot,2023.2.2,Win32,74.07407407,6101a827b8842aefda82f60a,65d6bb0e977760de756971f7,65d6bd7865325b67b36fb079,0.0372,0.0372,1,86,248,122,1,sixfive,,,,,,,,,,,,,,,,,,,,,,,,,,,,,,,,,,,,,,,,,,,,,,,,,,,,,,,,,,,,,,,,,,,,,,,,,,,,,,,,,,,,,,,,,,,,,,,,,,,,,,,,,,,,,,,,,,,,,,,,,,,,,,,,,,,,,,,,,
,,6101a827b8842aefda82f60a,2024-02-22_24h21.05.520,kallum_motion_pilot,2023.2.2,Win32,74.07407407,6101a827b8842aefda82f60a,65d6bb0e977760de756971f7,65d6bd7865325b67b36fb079,0.0373,0.0373,1,87,249,29,1,threefour,,,,,,,,,,,,,,,,,,,,,,,,,,,,,,,,,,,,,,,,,,,,,,,,,,,,,,,,,,,,,,,,,,,,,,,,,,,,,,,,,,,,,,,,,,,,,,,,,,,,,,,,,,,,,,,,,,,,,,,,,,,,,,,,,,,,,,,,,
,,6101a827b8842aefda82f60a,2024-02-22_24h21.05.520,kallum_motion_pilot,2023.2.2,Win32,74.07407407,6101a827b8842aefda82f60a,65d6bb0e977760de756971f7,65d6bd7865325b67b36fb079,0.0373,0.0374,1,88,250,121,1,fiveseven,,,,,,,,,,,,,,,,,,,,,,,,,,,,,,,,,,,,,,,,,,,,,,,,,,,,,,,,,,,,,,,,,,,,,,,,,,,,,,,,,,,,,,,,,,,,,,,,,,,,,,,,,,,,,,,,,,,,,,,,,,,,,,,,,,,,,,,,,
,,6101a827b8842aefda82f60a,2024-02-22_24h21.05.520,kallum_motion_pilot,2023.2.2,Win32,74.07407407,6101a827b8842aefda82f60a,65d6bb0e977760de756971f7,65d6bd7865325b67b36fb079,0.0375,0.0375,1,89,251,161,1,fiveseven,,,,,,,,,,,,,,,,,,,,,,,,,,,,,,,,,,,,,,,,,,,,,,,,,,,,,,,,,,,,,,,,,,,,,,,,,,,,,,,,,,,,,,,,,,,,,,,,,,,,,,,,,,,,,,,,,,,,,,,,,,,,,,,,,,,,,,,,,
,,6101a827b8842aefda82f60a,2024-02-22_24h21.05.520,kallum_motion_pilot,2023.2.2,Win32,74.07407407,6101a827b8842aefda82f60a,65d6bb0e977760de756971f7,65d6bd7865325b67b36fb079,0.0375,0.0376,1,90,252,109,1,seveneight,,,,,,,,,,,,,,,,,,,,,,,,,,,,,,,,,,,,,,,,,,,,,,,,,,,,,,,,,,,,,,,,,,,,,,,,,,,,,,,,,,,,,,,,,,,,,,,,,,,,,,,,,,,,,,,,,,,,,,,,,,,,,,,,,,,,,,,,,
,,6101a827b8842aefda82f60a,2024-02-22_24h21.05.520,kallum_motion_pilot,2023.2.2,Win32,74.07407407,6101a827b8842aefda82f60a,65d6bb0e977760de756971f7,65d6bd7865325b67b36fb079,0.0376,0.0376,1,91,253,62,1,fourtwo,,,,,,,,,,,,,,,,,,,,,,,,,,,,,,,,,,,,,,,,,,,,,,,,,,,,,,,,,,,,,,,,,,,,,,,,,,,,,,,,,,,,,,,,,,,,,,,,,,,,,,,,,,,,,,,,,,,,,,,,,,,,,,,,,,,,,,,,,
,,6101a827b8842aefda82f60a,2024-02-22_24h21.05.520,kallum_motion_pilot,2023.2.2,Win32,74.07407407,6101a827b8842aefda82f60a,65d6bb0e977760de756971f7,65d6bd7865325b67b36fb079,0.0377,0.0377,1,92,254,100,1,sevenfive,,,,,,,,,,,,,,,,,,,,,,,,,,,,,,,,,,,,,,,,,,,,,,,,,,,,,,,,,,,,,,,,,,,,,,,,,,,,,,,,,,,,,,,,,,,,,,,,,,,,,,,,,,,,,,,,,,,,,,,,,,,,,,,,,,,,,,,,,
,,6101a827b8842aefda82f60a,2024-02-22_24h21.05.520,kallum_motion_pilot,2023.2.2,Win32,74.07407407,6101a827b8842aefda82f60a,65d6bb0e977760de756971f7,65d6bd7865325b67b36fb079,0.0379,0.0379,1,93,255,34,1,twoone,,,,,,,,,,,,,,,,,,,,,,,,,,,,,,,,,,,,,,,,,,,,,,,,,,,,,,,,,,,,,,,,,,,,,,,,,,,,,,,,,,,,,,,,,,,,,,,,,,,,,,,,,,,,,,,,,,,,,,,,,,,,,,,,,,,,,,,,,
,,6101a827b8842aefda82f60a,2024-02-22_24h21.05.520,kallum_motion_pilot,2023.2.2,Win32,74.07407407,6101a827b8842aefda82f60a,65d6bb0e977760de756971f7,65d6bd7865325b67b36fb079,0.038,0.038,1,94,256,56,1,onetwo,,,,,,,,,,,,,,,,,,,,,,,,,,,,,,,,,,,,,,,,,,,,,,,,,,,,,,,,,,,,,,,,,,,,,,,,,,,,,,,,,,,,,,,,,,,,,,,,,,,,,,,,,,,,,,,,,,,,,,,,,,,,,,,,,,,,,,,,,
,,6101a827b8842aefda82f60a,2024-02-22_24h21.05.520,kallum_motion_pilot,2023.2.2,Win32,74.07407407,6101a827b8842aefda82f60a,65d6bb0e977760de756971f7,65d6bd7865325b67b36fb079,0.038,0.038,1,95,257,12,1,threeone,,,,,,,,,,,,,,,,,,,,,,,,,,,,,,,,,,,,,,,,,,,,,,,,,,,,,,,,,,,,,,,,,,,,,,,,,,,,,,,,,,,,,,,,,,,,,,,,,,,,,,,,,,,,,,,,,,,,,,,,,,,,,,,,,,,,,,,,,
,,6101a827b8842aefda82f60a,2024-02-22_24h21.05.520,kallum_motion_pilot,2023.2.2,Win32,74.07407407,6101a827b8842aefda82f60a,65d6bb0e977760de756971f7,65d6bd7865325b67b36fb079,0.0381,0.0381,1,96,258,64,1,onetwo,,,,,,,,,,,,,,,,,,,,,,,,,,,,,,,,,,,,,,,,,,,,,,,,,,,,,,,,,,,,,,,,,,,,,,,,,,,,,,,,,,,,,,,,,,,,,,,,,,,,,,,,,,,,,,,,,,,,,,,,,,,,,,,,,,,,,,,,,
,,6101a827b8842aefda82f60a,2024-02-22_24h21.05.520,kallum_motion_pilot,2023.2.2,Win32,74.07407407,6101a827b8842aefda82f60a,65d6bb0e977760de756971f7,65d6bd7865325b67b36fb079,0.0382,0.0383,1,97,259,3,1,twofour,,,,,,,,,,,,,,,,,,,,,,,,,,,,,,,,,,,,,,,,,,,,,,,,,,,,,,,,,,,,,,,,,,,,,,,,,,,,,,,,,,,,,,,,,,,,,,,,,,,,,,,,,,,,,,,,,,,,,,,,,,,,,,,,,,,,,,,,,
,,6101a827b8842aefda82f60a,2024-02-22_24h21.05.520,kallum_motion_pilot,2023.2.2,Win32,74.07407407,6101a827b8842aefda82f60a,65d6bb0e977760de756971f7,65d6bd7865325b67b36fb079,0.0383,0.0384,1,98,260,144,1,fivesix,,,,,,,,,,,,,,,,,,,,,,,,,,,,,,,,,,,,,,,,,,,,,,,,,,,,,,,,,,,,,,,,,,,,,,,,,,,,,,,,,,,,,,,,,,,,,,,,,,,,,,,,,,,,,,,,,,,,,,,,,,,,,,,,,,,,,,,,,
,,6101a827b8842aefda82f60a,2024-02-22_24h21.05.520,kallum_motion_pilot,2023.2.2,Win32,74.07407407,6101a827b8842aefda82f60a,65d6bb0e977760de756971f7,65d6bd7865325b67b36fb079,0.0384,0.0384,1,99,261,92,1,sevenfive,,,,,,,,,,,,,,,,,,,,,,,,,,,,,,,,,,,,,,,,,,,,,,,,,,,,,,,,,,,,,,,,,,,,,,,,,,,,,,,,,,,,,,,,,,,,,,,,,,,,,,,,,,,,,,,,,,,,,,,,,,,,,,,,,,,,,,,,,
,,6101a827b8842aefda82f60a,2024-02-22_24h21.05.520,kallum_motion_pilot,2023.2.2,Win32,74.07407407,6101a827b8842aefda82f60a,65d6bb0e977760de756971f7,65d6bd7865325b67b36fb079,0.0384,0.0385,1,100,262,129,1,fiveseven,,,,,,,,,,,,,,,,,,,,,,,,,,,,,,,,,,,,,,,,,,,,,,,,,,,,,,,,,,,,,,,,,,,,,,,,,,,,,,,,,,,,,,,,,,,,,,,,,,,,,,,,,,,,,,,,,,,,,,,,,,,,,,,,,,,,,,,,,
,,6101a827b8842aefda82f60a,2024-02-22_24h21.05.520,kallum_motion_pilot,2023.2.2,Win32,74.07407407,6101a827b8842aefda82f60a,65d6bb0e977760de756971f7,65d6bd7865325b67b36fb079,0.0385,0.0386,1,101,263,18,1,twoone,,,,,,,,,,,,,,,,,,,,,,,,,,,,,,,,,,,,,,,,,,,,,,,,,,,,,,,,,,,,,,,,,,,,,,,,,,,,,,,,,,,,,,,,,,,,,,,,,,,,,,,,,,,,,,,,,,,,,,,,,,,,,,,,,,,,,,,,,
,,6101a827b8842aefda82f60a,2024-02-22_24h21.05.520,kallum_motion_pilot,2023.2.2,Win32,74.07407407,6101a827b8842aefda82f60a,65d6bb0e977760de756971f7,65d6bd7865325b67b36fb079,0.0386,0.0387,1,102,264,107,1,sixeight,,,,,,,,,,,,,,,,,,,,,,,,,,,,,,,,,,,,,,,,,,,,,,,,,,,,,,,,,,,,,,,,,,,,,,,,,,,,,,,,,,,,,,,,,,,,,,,,,,,,,,,,,,,,,,,,,,,,,,,,,,,,,,,,,,,,,,,,,
,,6101a827b8842aefda82f60a,2024-02-22_24h21.05.520,kallum_motion_pilot,2023.2.2,Win32,74.07407407,6101a827b8842aefda82f60a,65d6bb0e977760de756971f7,65d6bd7865325b67b36fb079,0.0388,0.0388,1,103,265,131,1,sixeight,,,,,,,,,,,,,,,,,,,,,,,,,,,,,,,,,,,,,,,,,,,,,,,,,,,,,,,,,,,,,,,,,,,,,,,,,,,,,,,,,,,,,,,,,,,,,,,,,,,,,,,,,,,,,,,,,,,,,,,,,,,,,,,,,,,,,,,,,
,,6101a827b8842aefda82f60a,2024-02-22_24h21.05.520,kallum_motion_pilot,2023.2.2,Win32,74.07407407,6101a827b8842aefda82f60a,65d6bb0e977760de756971f7,65d6bd7865325b67b36fb079,0.0388,0.0389,1,104,266,44,1,threeone,,,,,,,,,,,,,,,,,,,,,,,,,,,,,,,,,,,,,,,,,,,,,,,,,,,,,,,,,,,,,,,,,,,,,,,,,,,,,,,,,,,,,,,,,,,,,,,,,,,,,,,,,,,,,,,,,,,,,,,,,,,,,,,,,,,,,,,,,
,,6101a827b8842aefda82f60a,2024-02-22_24h21.05.520,kallum_motion_pilot,2023.2.2,Win32,74.07407407,6101a827b8842aefda82f60a,65d6bb0e977760de756971f7,65d6bd7865325b67b36fb079,0.039,0.039,1,105,267,37,1,threefour,,,,,,,,,,,,,,,,,,,,,,,,,,,,,,,,,,,,,,,,,,,,,,,,,,,,,,,,,,,,,,,,,,,,,,,,,,,,,,,,,,,,,,,,,,,,,,,,,,,,,,,,,,,,,,,,,,,,,,,,,,,,,,,,,,,,,,,,,
,,6101a827b8842aefda82f60a,2024-02-22_24h21.05.520,kallum_motion_pilot,2023.2.2,Win32,74.07407407,6101a827b8842aefda82f60a,65d6bb0e977760de756971f7,65d6bd7865325b67b36fb079,0.039,0.0391,1,106,268,40,1,onetwo,,,,,,,,,,,,,,,,,,,,,,,,,,,,,,,,,,,,,,,,,,,,,,,,,,,,,,,,,,,,,,,,,,,,,,,,,,,,,,,,,,,,,,,,,,,,,,,,,,,,,,,,,,,,,,,,,,,,,,,,,,,,,,,,,,,,,,,,,
,,6101a827b8842aefda82f60a,2024-02-22_24h21.05.520,kallum_motion_pilot,2023.2.2,Win32,74.07407407,6101a827b8842aefda82f60a,65d6bb0e977760de756971f7,65d6bd7865325b67b36fb079,0.0392,0.0392,1,107,269,158,1,eightsix,,,,,,,,,,,,,,,,,,,,,,,,,,,,,,,,,,,,,,,,,,,,,,,,,,,,,,,,,,,,,,,,,,,,,,,,,,,,,,,,,,,,,,,,,,,,,,,,,,,,,,,,,,,,,,,,,,,,,,,,,,,,,,,,,,,,,,,,,
,,6101a827b8842aefda82f60a,2024-02-22_24h21.05.520,kallum_motion_pilot,2023.2.2,Win32,74.07407407,6101a827b8842aefda82f60a,65d6bb0e977760de756971f7,65d6bd7865325b67b36fb079,0.0393,0.0393,1,108,270,105,1,fiveseven,,,,,,,,,,,,,,,,,,,,,,,,,,,,,,,,,,,,,,,,,,,,,,,,,,,,,,,,,,,,,,,,,,,,,,,,,,,,,,,,,,,,,,,,,,,,,,,,,,,,,,,,,,,,,,,,,,,,,,,,,,,,,,,,,,,,,,,,,
,,6101a827b8842aefda82f60a,2024-02-22_24h21.05.520,kallum_motion_pilot,2023.2.2,Win32,74.07407407,6101a827b8842aefda82f60a,65d6bb0e977760de756971f7,65d6bd7865325b67b36fb079,0.0394,0.0394,1,109,271,78,1,fourtwo,,,,,,,,,,,,,,,,,,,,,,,,,,,,,,,,,,,,,,,,,,,,,,,,,,,,,,,,,,,,,,,,,,,,,,,,,,,,,,,,,,,,,,,,,,,,,,,,,,,,,,,,,,,,,,,,,,,,,,,,,,,,,,,,,,,,,,,,,
,,6101a827b8842aefda82f60a,2024-02-22_24h21.05.520,kallum_motion_pilot,2023.2.2,Win32,74.07407407,6101a827b8842aefda82f60a,65d6bb0e977760de756971f7,65d6bd7865325b67b36fb079,0.0395,0.0396,1,110,272,6,1,fourtwo,,,,,,,,,,,,,,,,,,,,,,,,,,,,,,,,,,,,,,,,,,,,,,,,,,,,,,,,,,,,,,,,,,,,,,,,,,,,,,,,,,,,,,,,,,,,,,,,,,,,,,,,,,,,,,,,,,,,,,,,,,,,,,,,,,,,,,,,,
,,6101a827b8842aefda82f60a,2024-02-22_24h21.05.520,kallum_motion_pilot,2023.2.2,Win32,74.07407407,6101a827b8842aefda82f60a,65d6bb0e977760de756971f7,65d6bd7865325b67b36fb079,0.0397,0.0397,1,111,273,45,1,threefour,,,,,,,,,,,,,,,,,,,,,,,,,,,,,,,,,,,,,,,,,,,,,,,,,,,,,,,,,,,,,,,,,,,,,,,,,,,,,,,,,,,,,,,,,,,,,,,,,,,,,,,,,,,,,,,,,,,,,,,,,,,,,,,,,,,,,,,,,
,,6101a827b8842aefda82f60a,2024-02-22_24h21.05.520,kallum_motion_pilot,2023.2.2,Win32,74.07407407,6101a827b8842aefda82f60a,65d6bb0e977760de756971f7,65d6bd7865325b67b36fb079,0.0398,0.0399,1,112,274,41,1,onethree,,,,,,,,,,,,,,,,,,,,,,,,,,,,,,,,,,,,,,,,,,,,,,,,,,,,,,,,,,,,,,,,,,,,,,,,,,,,,,,,,,,,,,,,,,,,,,,,,,,,,,,,,,,,,,,,,,,,,,,,,,,,,,,,,,,,,,,,,
,,6101a827b8842aefda82f60a,2024-02-22_24h21.05.520,kallum_motion_pilot,2023.2.2,Win32,74.07407407,6101a827b8842aefda82f60a,65d6bb0e977760de756971f7,65d6bd7865325b67b36fb079,0.0399,0.04,1,113,275,80,1,fivesix,,,,,,,,,,,,,,,,,,,,,,,,,,,,,,,,,,,,,,,,,,,,,,,,,,,,,,,,,,,,,,,,,,,,,,,,,,,,,,,,,,,,,,,,,,,,,,,,,,,,,,,,,,,,,,,,,,,,,,,,,,,,,,,,,,,,,,,,,
,,6101a827b8842aefda82f60a,2024-02-22_24h21.05.520,kallum_motion_pilot,2023.2.2,Win32,74.07407407,6101a827b8842aefda82f60a,65d6bb0e977760de756971f7,65d6bd7865325b67b36fb079,0.0401,0.0401,1,114,276,77,1,threefour,,,,,,,,,,,,,,,,,,,,,,,,,,,,,,,,,,,,,,,,,,,,,,,,,,,,,,,,,,,,,,,,,,,,,,,,,,,,,,,,,,,,,,,,,,,,,,,,,,,,,,,,,,,,,,,,,,,,,,,,,,,,,,,,,,,,,,,,,
,,6101a827b8842aefda82f60a,2024-02-22_24h21.05.520,kallum_motion_pilot,2023.2.2,Win32,74.07407407,6101a827b8842aefda82f60a,65d6bb0e977760de756971f7,65d6bd7865325b67b36fb079,0.0401,0.0402,1,115,277,0,1,onetwo,,,,,,,,,,,,,,,,,,,,,,,,,,,,,,,,,,,,,,,,,,,,,,,,,,,,,,,,,,,,,,,,,,,,,,,,,,,,,,,,,,,,,,,,,,,,,,,,,,,,,,,,,,,,,,,,,,,,,,,,,,,,,,,,,,,,,,,,,
