startup.started,startup.stopped,Prolific ID*,date,expName,psychopyVersion,OS,frameRate,participant,study_id,session,stimpositions.started,stimpositions.stopped,hardcoded_stimulus_positions.thisRepN,hardcoded_stimulus_positions.thisTrialN,hardcoded_stimulus_positions.thisN,hardcoded_stimulus_positions.thisIndex,hardcoded_stimulus_positions.ran,StimulusPos,stimorientation.started,stimorientation.stopped,prac_stimorientation_import_loop.thisRepN,prac_stimorientation_import_loop.thisTrialN,prac_stimorientation_import_loop.thisN,prac_stimorientation_import_loop.thisIndex,prac_stimorientation_import_loop.ran,Stimorientation,welcome_instr.started,welcome_instr.stopped,key_resp.keys,key_resp.rt,key_resp.duration,response_steppedout_1.started,response_steppedout_1.stopped,key_resp_20.keys,key_resp_20.rt,key_resp_20.duration,response_steppedout_2.started,response_steppedout_2.stopped,key_resp_19.keys,key_resp_19.rt,key_resp_19.duration,stim_response_instr.started,stim_response_instr.stopped,key_resp_15.keys,key_resp_15.rt,key_resp_15.duration,direction_instr_2.started,direction_instr_2.stopped,key_resp_9.keys,key_resp_9.rt,key_resp_9.duration,instr_prac.started,instr_prac.stopped,key_resp_10.keys,key_resp_10.rt,key_resp_10.duration,Stim1_display_prac.started,Stim1_display_prac.stopped,Ecc,Circle1_ori,Circle2_ori,response_prac.started,similarity,response_time,response_prac.stopped,mouse_5.x,mouse_5.y,mouse_5.leftButton,mouse_5.midButton,mouse_5.rightButton,mouse_5.clicked_name,responseprac_feedback.started,responseprac_feedback.stopped,summary2_prac.started,summary2_prac.stopped,mouse_6.x,mouse_6.y,mouse_6.leftButton,mouse_6.midButton,mouse_6.rightButton,mouse_6.clicked_name,duringprac.thisRepN,duringprac.thisTrialN,duringprac.thisN,duringprac.thisIndex,duringprac.ran,begin.started,begin.stopped,key_resp_22.keys,key_resp_22.rt,key_resp_22.duration,Stim1_display.started,Stim1_display.stopped,circle1_ori,circle2_ori,circle1_SF,circle2_SF,response.started,response.stopped,mouse.x,mouse.y,mouse.leftButton,mouse.midButton,mouse.rightButton,mouse.clicked_name,trialnumber,double_pass.thisRepN,double_pass.thisTrialN,double_pass.thisN,double_pass.thisIndex,double_pass.ran,double_pass.order,main_trial.thisRepN,main_trial.thisTrialN,main_trial.thisN,main_trial.thisIndex,main_trial.ran,main_trial.order,Trial_Counter,Catch,Frequencies,response_2.started,response_2.stopped,mouse_2.x,mouse_2.y,mouse_2.leftButton,mouse_2.midButton,mouse_2.rightButton,mouse_2.clicked_name,special_trial.started,special_trial.stopped,catch_1.started,catch_1.stopped,mouse_3.x,mouse_3.y,mouse_3.leftButton,mouse_3.midButton,mouse_3.rightButton,catchresponse,catchnumber,response_time_catch,response_sum.started,response_sum.stopped,mouse_11.x,mouse_11.y,mouse_11.leftButton,mouse_11.midButton,mouse_11.rightButton,flip_presentation_sequence_for_double_pass.started,flip_presentation_sequence_for_double_pass.stopped,goodbye.started,goodbye.stopped,key_resp_3.keys,key_resp_3.rt,key_resp_3.duration
0.0005,0.0006,61063279931132ebf6b9f0cf,2024-02-22_24h28.43.870,kallum_motion_pilot,2023.2.2,Win32,144.9275362,61063279931132ebf6b9f0cf,65d6bb0e977760de756971f7,65d6bf15ee13f9561621bf81,,,,,,,,,,,,,,,,,,,,,,,,,,,,,,,,,,,,,,,,,,,,,,,,,,,,,,,,,,,,,,,,,,,,,,,,,,,,,,,,,,,,,,,,,,,,,,,,,,,,,,,,,,,,,,,,,,,,,,,,,,,,,,,,,,,,,,,,,,,,,,,,,
,,61063279931132ebf6b9f0cf,2024-02-22_24h28.43.870,kallum_motion_pilot,2023.2.2,Win32,144.9275362,61063279931132ebf6b9f0cf,65d6bb0e977760de756971f7,65d6bf15ee13f9561621bf81,0.0224,0.0225,0,0,0,112,1,fivesix,,,,,,,,,,,,,,,,,,,,,,,,,,,,,,,,,,,,,,,,,,,,,,,,,,,,,,,,,,,,,,,,,,,,,,,,,,,,,,,,,,,,,,,,,,,,,,,,,,,,,,,,,,,,,,,,,,,,,,,,,,,,,,,,,,,,,,,,,
,,61063279931132ebf6b9f0cf,2024-02-22_24h28.43.870,kallum_motion_pilot,2023.2.2,Win32,144.9275362,61063279931132ebf6b9f0cf,65d6bb0e977760de756971f7,65d6bf15ee13f9561621bf81,0.0228,0.0228,0,1,1,157,1,seveneight,,,,,,,,,,,,,,,,,,,,,,,,,,,,,,,,,,,,,,,,,,,,,,,,,,,,,,,,,,,,,,,,,,,,,,,,,,,,,,,,,,,,,,,,,,,,,,,,,,,,,,,,,,,,,,,,,,,,,,,,,,,,,,,,,,,,,,,,,
,,61063279931132ebf6b9f0cf,2024-02-22_24h28.43.870,kallum_motion_pilot,2023.2.2,Win32,144.9275362,61063279931132ebf6b9f0cf,65d6bb0e977760de756971f7,65d6bf15ee13f9561621bf81,0.0228,0.0228,0,2,2,6,1,fourtwo,,,,,,,,,,,,,,,,,,,,,,,,,,,,,,,,,,,,,,,,,,,,,,,,,,,,,,,,,,,,,,,,,,,,,,,,,,,,,,,,,,,,,,,,,,,,,,,,,,,,,,,,,,,,,,,,,,,,,,,,,,,,,,,,,,,,,,,,,
,,61063279931132ebf6b9f0cf,2024-02-22_24h28.43.870,kallum_motion_pilot,2023.2.2,Win32,144.9275362,61063279931132ebf6b9f0cf,65d6bb0e977760de756971f7,65d6bf15ee13f9561621bf81,0.0229,0.023,0,3,3,67,1,twofour,,,,,,,,,,,,,,,,,,,,,,,,,,,,,,,,,,,,,,,,,,,,,,,,,,,,,,,,,,,,,,,,,,,,,,,,,,,,,,,,,,,,,,,,,,,,,,,,,,,,,,,,,,,,,,,,,,,,,,,,,,,,,,,,,,,,,,,,,
,,61063279931132ebf6b9f0cf,2024-02-22_24h28.43.870,kallum_motion_pilot,2023.2.2,Win32,144.9275362,61063279931132ebf6b9f0cf,65d6bb0e977760de756971f7,65d6bf15ee13f9561621bf81,0.0231,0.0231,0,4,4,14,1,fourtwo,,,,,,,,,,,,,,,,,,,,,,,,,,,,,,,,,,,,,,,,,,,,,,,,,,,,,,,,,,,,,,,,,,,,,,,,,,,,,,,,,,,,,,,,,,,,,,,,,,,,,,,,,,,,,,,,,,,,,,,,,,,,,,,,,,,,,,,,,
,,61063279931132ebf6b9f0cf,2024-02-22_24h28.43.870,kallum_motion_pilot,2023.2.2,Win32,144.9275362,61063279931132ebf6b9f0cf,65d6bb0e977760de756971f7,65d6bf15ee13f9561621bf81,0.0231,0.0231,0,5,5,23,1,fourthree,,,,,,,,,,,,,,,,,,,,,,,,,,,,,,,,,,,,,,,,,,,,,,,,,,,,,,,,,,,,,,,,,,,,,,,,,,,,,,,,,,,,,,,,,,,,,,,,,,,,,,,,,,,,,,,,,,,,,,,,,,,,,,,,,,,,,,,,,
,,61063279931132ebf6b9f0cf,2024-02-22_24h28.43.870,kallum_motion_pilot,2023.2.2,Win32,144.9275362,61063279931132ebf6b9f0cf,65d6bb0e977760de756971f7,65d6bf15ee13f9561621bf81,0.0233,0.0235,0,6,6,50,1,twoone,,,,,,,,,,,,,,,,,,,,,,,,,,,,,,,,,,,,,,,,,,,,,,,,,,,,,,,,,,,,,,,,,,,,,,,,,,,,,,,,,,,,,,,,,,,,,,,,,,,,,,,,,,,,,,,,,,,,,,,,,,,,,,,,,,,,,,,,,
,,61063279931132ebf6b9f0cf,2024-02-22_24h28.43.870,kallum_motion_pilot,2023.2.2,Win32,144.9275362,61063279931132ebf6b9f0cf,65d6bb0e977760de756971f7,65d6bf15ee13f9561621bf81,0.0236,0.0238,0,7,7,21,1,threefour,,,,,,,,,,,,,,,,,,,,,,,,,,,,,,,,,,,,,,,,,,,,,,,,,,,,,,,,,,,,,,,,,,,,,,,,,,,,,,,,,,,,,,,,,,,,,,,,,,,,,,,,,,,,,,,,,,,,,,,,,,,,,,,,,,,,,,,,,
,,61063279931132ebf6b9f0cf,2024-02-22_24h28.43.870,kallum_motion_pilot,2023.2.2,Win32,144.9275362,61063279931132ebf6b9f0cf,65d6bb0e977760de756971f7,65d6bf15ee13f9561621bf81,0.0242,0.0244,0,8,8,78,1,fourtwo,,,,,,,,,,,,,,,,,,,,,,,,,,,,,,,,,,,,,,,,,,,,,,,,,,,,,,,,,,,,,,,,,,,,,,,,,,,,,,,,,,,,,,,,,,,,,,,,,,,,,,,,,,,,,,,,,,,,,,,,,,,,,,,,,,,,,,,,,
,,61063279931132ebf6b9f0cf,2024-02-22_24h28.43.870,kallum_motion_pilot,2023.2.2,Win32,144.9275362,61063279931132ebf6b9f0cf,65d6bb0e977760de756971f7,65d6bf15ee13f9561621bf81,0.0246,0.0246,0,9,9,96,1,fivesix,,,,,,,,,,,,,,,,,,,,,,,,,,,,,,,,,,,,,,,,,,,,,,,,,,,,,,,,,,,,,,,,,,,,,,,,,,,,,,,,,,,,,,,,,,,,,,,,,,,,,,,,,,,,,,,,,,,,,,,,,,,,,,,,,,,,,,,,,
,,61063279931132ebf6b9f0cf,2024-02-22_24h28.43.870,kallum_motion_pilot,2023.2.2,Win32,144.9275362,61063279931132ebf6b9f0cf,65d6bb0e977760de756971f7,65d6bf15ee13f9561621bf81,0.0248,0.0248,0,10,10,56,1,onetwo,,,,,,,,,,,,,,,,,,,,,,,,,,,,,,,,,,,,,,,,,,,,,,,,,,,,,,,,,,,,,,,,,,,,,,,,,,,,,,,,,,,,,,,,,,,,,,,,,,,,,,,,,,,,,,,,,,,,,,,,,,,,,,,,,,,,,,,,,
,,61063279931132ebf6b9f0cf,2024-02-22_24h28.43.870,kallum_motion_pilot,2023.2.2,Win32,144.9275362,61063279931132ebf6b9f0cf,65d6bb0e977760de756971f7,65d6bf15ee13f9561621bf81,0.0249,0.0249,0,11,11,39,1,fourthree,,,,,,,,,,,,,,,,,,,,,,,,,,,,,,,,,,,,,,,,,,,,,,,,,,,,,,,,,,,,,,,,,,,,,,,,,,,,,,,,,,,,,,,,,,,,,,,,,,,,,,,,,,,,,,,,,,,,,,,,,,,,,,,,,,,,,,,,,
,,61063279931132ebf6b9f0cf,2024-02-22_24h28.43.870,kallum_motion_pilot,2023.2.2,Win32,144.9275362,61063279931132ebf6b9f0cf,65d6bb0e977760de756971f7,65d6bf15ee13f9561621bf81,0.025,0.025,0,12,12,128,1,fivesix,,,,,,,,,,,,,,,,,,,,,,,,,,,,,,,,,,,,,,,,,,,,,,,,,,,,,,,,,,,,,,,,,,,,,,,,,,,,,,,,,,,,,,,,,,,,,,,,,,,,,,,,,,,,,,,,,,,,,,,,,,,,,,,,,,,,,,,,,
,,61063279931132ebf6b9f0cf,2024-02-22_24h28.43.870,kallum_motion_pilot,2023.2.2,Win32,144.9275362,61063279931132ebf6b9f0cf,65d6bb0e977760de756971f7,65d6bf15ee13f9561621bf81,0.025,0.025,0,13,13,36,1,threeone,,,,,,,,,,,,,,,,,,,,,,,,,,,,,,,,,,,,,,,,,,,,,,,,,,,,,,,,,,,,,,,,,,,,,,,,,,,,,,,,,,,,,,,,,,,,,,,,,,,,,,,,,,,,,,,,,,,,,,,,,,,,,,,,,,,,,,,,,
,,61063279931132ebf6b9f0cf,2024-02-22_24h28.43.870,kallum_motion_pilot,2023.2.2,Win32,144.9275362,61063279931132ebf6b9f0cf,65d6bb0e977760de756971f7,65d6bf15ee13f9561621bf81,0.0252,0.0252,0,14,14,62,1,fourtwo,,,,,,,,,,,,,,,,,,,,,,,,,,,,,,,,,,,,,,,,,,,,,,,,,,,,,,,,,,,,,,,,,,,,,,,,,,,,,,,,,,,,,,,,,,,,,,,,,,,,,,,,,,,,,,,,,,,,,,,,,,,,,,,,,,,,,,,,,
,,61063279931132ebf6b9f0cf,2024-02-22_24h28.43.870,kallum_motion_pilot,2023.2.2,Win32,144.9275362,61063279931132ebf6b9f0cf,65d6bb0e977760de756971f7,65d6bf15ee13f9561621bf81,0.0252,0.0252,0,15,15,54,1,fourtwo,,,,,,,,,,,,,,,,,,,,,,,,,,,,,,,,,,,,,,,,,,,,,,,,,,,,,,,,,,,,,,,,,,,,,,,,,,,,,,,,,,,,,,,,,,,,,,,,,,,,,,,,,,,,,,,,,,,,,,,,,,,,,,,,,,,,,,,,,
,,61063279931132ebf6b9f0cf,2024-02-22_24h28.43.870,kallum_motion_pilot,2023.2.2,Win32,144.9275362,61063279931132ebf6b9f0cf,65d6bb0e977760de756971f7,65d6bf15ee13f9561621bf81,0.0252,0.0252,0,16,16,136,1,fivesix,,,,,,,,,,,,,,,,,,,,,,,,,,,,,,,,,,,,,,,,,,,,,,,,,,,,,,,,,,,,,,,,,,,,,,,,,,,,,,,,,,,,,,,,,,,,,,,,,,,,,,,,,,,,,,,,,,,,,,,,,,,,,,,,,,,,,,,,,
,,61063279931132ebf6b9f0cf,2024-02-22_24h28.43.870,kallum_motion_pilot,2023.2.2,Win32,144.9275362,61063279931132ebf6b9f0cf,65d6bb0e977760de756971f7,65d6bf15ee13f9561621bf81,0.0253,0.0253,0,17,17,71,1,fourthree,,,,,,,,,,,,,,,,,,,,,,,,,,,,,,,,,,,,,,,,,,,,,,,,,,,,,,,,,,,,,,,,,,,,,,,,,,,,,,,,,,,,,,,,,,,,,,,,,,,,,,,,,,,,,,,,,,,,,,,,,,,,,,,,,,,,,,,,,
,,61063279931132ebf6b9f0cf,2024-02-22_24h28.43.870,kallum_motion_pilot,2023.2.2,Win32,144.9275362,61063279931132ebf6b9f0cf,65d6bb0e977760de756971f7,65d6bf15ee13f9561621bf81,0.0254,0.0254,0,18,18,72,1,onetwo,,,,,,,,,,,,,,,,,,,,,,,,,,,,,,,,,,,,,,,,,,,,,,,,,,,,,,,,,,,,,,,,,,,,,,,,,,,,,,,,,,,,,,,,,,,,,,,,,,,,,,,,,,,,,,,,,,,,,,,,,,,,,,,,,,,,,,,,,
,,61063279931132ebf6b9f0cf,2024-02-22_24h28.43.870,kallum_motion_pilot,2023.2.2,Win32,144.9275362,61063279931132ebf6b9f0cf,65d6bb0e977760de756971f7,65d6bf15ee13f9561621bf81,0.0255,0.0255,0,19,19,75,1,twofour,,,,,,,,,,,,,,,,,,,,,,,,,,,,,,,,,,,,,,,,,,,,,,,,,,,,,,,,,,,,,,,,,,,,,,,,,,,,,,,,,,,,,,,,,,,,,,,,,,,,,,,,,,,,,,,,,,,,,,,,,,,,,,,,,,,,,,,,,
,,61063279931132ebf6b9f0cf,2024-02-22_24h28.43.870,kallum_motion_pilot,2023.2.2,Win32,144.9275362,61063279931132ebf6b9f0cf,65d6bb0e977760de756971f7,65d6bf15ee13f9561621bf81,0.0255,0.0255,0,20,20,119,1,eightseven,,,,,,,,,,,,,,,,,,,,,,,,,,,,,,,,,,,,,,,,,,,,,,,,,,,,,,,,,,,,,,,,,,,,,,,,,,,,,,,,,,,,,,,,,,,,,,,,,,,,,,,,,,,,,,,,,,,,,,,,,,,,,,,,,,,,,,,,,
,,61063279931132ebf6b9f0cf,2024-02-22_24h28.43.870,kallum_motion_pilot,2023.2.2,Win32,144.9275362,61063279931132ebf6b9f0cf,65d6bb0e977760de756971f7,65d6bf15ee13f9561621bf81,0.0256,0.0256,0,21,21,13,1,threefour,,,,,,,,,,,,,,,,,,,,,,,,,,,,,,,,,,,,,,,,,,,,,,,,,,,,,,,,,,,,,,,,,,,,,,,,,,,,,,,,,,,,,,,,,,,,,,,,,,,,,,,,,,,,,,,,,,,,,,,,,,,,,,,,,,,,,,,,,
,,61063279931132ebf6b9f0cf,2024-02-22_24h28.43.870,kallum_motion_pilot,2023.2.2,Win32,144.9275362,61063279931132ebf6b9f0cf,65d6bb0e977760de756971f7,65d6bf15ee13f9561621bf81,0.0257,0.0257,0,22,22,106,1,sixfive,,,,,,,,,,,,,,,,,,,,,,,,,,,,,,,,,,,,,,,,,,,,,,,,,,,,,,,,,,,,,,,,,,,,,,,,,,,,,,,,,,,,,,,,,,,,,,,,,,,,,,,,,,,,,,,,,,,,,,,,,,,,,,,,,,,,,,,,,
,,61063279931132ebf6b9f0cf,2024-02-22_24h28.43.870,kallum_motion_pilot,2023.2.2,Win32,144.9275362,61063279931132ebf6b9f0cf,65d6bb0e977760de756971f7,65d6bf15ee13f9561621bf81,0.0258,0.0258,0,23,23,120,1,fivesix,,,,,,,,,,,,,,,,,,,,,,,,,,,,,,,,,,,,,,,,,,,,,,,,,,,,,,,,,,,,,,,,,,,,,,,,,,,,,,,,,,,,,,,,,,,,,,,,,,,,,,,,,,,,,,,,,,,,,,,,,,,,,,,,,,,,,,,,,
,,61063279931132ebf6b9f0cf,2024-02-22_24h28.43.870,kallum_motion_pilot,2023.2.2,Win32,144.9275362,61063279931132ebf6b9f0cf,65d6bb0e977760de756971f7,65d6bf15ee13f9561621bf81,0.0258,0.0258,0,24,24,63,1,fourthree,,,,,,,,,,,,,,,,,,,,,,,,,,,,,,,,,,,,,,,,,,,,,,,,,,,,,,,,,,,,,,,,,,,,,,,,,,,,,,,,,,,,,,,,,,,,,,,,,,,,,,,,,,,,,,,,,,,,,,,,,,,,,,,,,,,,,,,,,
,,61063279931132ebf6b9f0cf,2024-02-22_24h28.43.870,kallum_motion_pilot,2023.2.2,Win32,144.9275362,61063279931132ebf6b9f0cf,65d6bb0e977760de756971f7,65d6bf15ee13f9561621bf81,0.0259,0.0259,0,25,25,145,1,fiveseven,,,,,,,,,,,,,,,,,,,,,,,,,,,,,,,,,,,,,,,,,,,,,,,,,,,,,,,,,,,,,,,,,,,,,,,,,,,,,,,,,,,,,,,,,,,,,,,,,,,,,,,,,,,,,,,,,,,,,,,,,,,,,,,,,,,,,,,,,
,,61063279931132ebf6b9f0cf,2024-02-22_24h28.43.870,kallum_motion_pilot,2023.2.2,Win32,144.9275362,61063279931132ebf6b9f0cf,65d6bb0e977760de756971f7,65d6bf15ee13f9561621bf81,0.026,0.026,0,26,26,58,1,twoone,,,,,,,,,,,,,,,,,,,,,,,,,,,,,,,,,,,,,,,,,,,,,,,,,,,,,,,,,,,,,,,,,,,,,,,,,,,,,,,,,,,,,,,,,,,,,,,,,,,,,,,,,,,,,,,,,,,,,,,,,,,,,,,,,,,,,,,,,
,,61063279931132ebf6b9f0cf,2024-02-22_24h28.43.870,kallum_motion_pilot,2023.2.2,Win32,144.9275362,61063279931132ebf6b9f0cf,65d6bb0e977760de756971f7,65d6bf15ee13f9561621bf81,0.026,0.026,0,27,27,92,1,sevenfive,,,,,,,,,,,,,,,,,,,,,,,,,,,,,,,,,,,,,,,,,,,,,,,,,,,,,,,,,,,,,,,,,,,,,,,,,,,,,,,,,,,,,,,,,,,,,,,,,,,,,,,,,,,,,,,,,,,,,,,,,,,,,,,,,,,,,,,,,
,,61063279931132ebf6b9f0cf,2024-02-22_24h28.43.870,kallum_motion_pilot,2023.2.2,Win32,144.9275362,61063279931132ebf6b9f0cf,65d6bb0e977760de756971f7,65d6bf15ee13f9561621bf81,0.0261,0.0261,0,28,28,105,1,fiveseven,,,,,,,,,,,,,,,,,,,,,,,,,,,,,,,,,,,,,,,,,,,,,,,,,,,,,,,,,,,,,,,,,,,,,,,,,,,,,,,,,,,,,,,,,,,,,,,,,,,,,,,,,,,,,,,,,,,,,,,,,,,,,,,,,,,,,,,,,
,,61063279931132ebf6b9f0cf,2024-02-22_24h28.43.870,kallum_motion_pilot,2023.2.2,Win32,144.9275362,61063279931132ebf6b9f0cf,65d6bb0e977760de756971f7,65d6bf15ee13f9561621bf81,0.0263,0.0264,0,29,29,42,1,twoone,,,,,,,,,,,,,,,,,,,,,,,,,,,,,,,,,,,,,,,,,,,,,,,,,,,,,,,,,,,,,,,,,,,,,,,,,,,,,,,,,,,,,,,,,,,,,,,,,,,,,,,,,,,,,,,,,,,,,,,,,,,,,,,,,,,,,,,,,
,,61063279931132ebf6b9f0cf,2024-02-22_24h28.43.870,kallum_motion_pilot,2023.2.2,Win32,144.9275362,61063279931132ebf6b9f0cf,65d6bb0e977760de756971f7,65d6bf15ee13f9561621bf81,0.0265,0.0265,0,30,30,18,1,twoone,,,,,,,,,,,,,,,,,,,,,,,,,,,,,,,,,,,,,,,,,,,,,,,,,,,,,,,,,,,,,,,,,,,,,,,,,,,,,,,,,,,,,,,,,,,,,,,,,,,,,,,,,,,,,,,,,,,,,,,,,,,,,,,,,,,,,,,,,
,,61063279931132ebf6b9f0cf,2024-02-22_24h28.43.870,kallum_motion_pilot,2023.2.2,Win32,144.9275362,61063279931132ebf6b9f0cf,65d6bb0e977760de756971f7,65d6bf15ee13f9561621bf81,0.0266,0.0266,0,31,31,4,1,threeone,,,,,,,,,,,,,,,,,,,,,,,,,,,,,,,,,,,,,,,,,,,,,,,,,,,,,,,,,,,,,,,,,,,,,,,,,,,,,,,,,,,,,,,,,,,,,,,,,,,,,,,,,,,,,,,,,,,,,,,,,,,,,,,,,,,,,,,,,
,,61063279931132ebf6b9f0cf,2024-02-22_24h28.43.870,kallum_motion_pilot,2023.2.2,Win32,144.9275362,61063279931132ebf6b9f0cf,65d6bb0e977760de756971f7,65d6bf15ee13f9561621bf81,0.0267,0.0267,0,32,32,84,1,sevenfive,,,,,,,,,,,,,,,,,,,,,,,,,,,,,,,,,,,,,,,,,,,,,,,,,,,,,,,,,,,,,,,,,,,,,,,,,,,,,,,,,,,,,,,,,,,,,,,,,,,,,,,,,,,,,,,,,,,,,,,,,,,,,,,,,,,,,,,,,
,,61063279931132ebf6b9f0cf,2024-02-22_24h28.43.870,kallum_motion_pilot,2023.2.2,Win32,144.9275362,61063279931132ebf6b9f0cf,65d6bb0e977760de756971f7,65d6bf15ee13f9561621bf81,0.0268,0.0268,0,33,33,104,1,fivesix,,,,,,,,,,,,,,,,,,,,,,,,,,,,,,,,,,,,,,,,,,,,,,,,,,,,,,,,,,,,,,,,,,,,,,,,,,,,,,,,,,,,,,,,,,,,,,,,,,,,,,,,,,,,,,,,,,,,,,,,,,,,,,,,,,,,,,,,,
,,61063279931132ebf6b9f0cf,2024-02-22_24h28.43.870,kallum_motion_pilot,2023.2.2,Win32,144.9275362,61063279931132ebf6b9f0cf,65d6bb0e977760de756971f7,65d6bf15ee13f9561621bf81,0.0269,0.0269,0,34,34,15,1,fourthree,,,,,,,,,,,,,,,,,,,,,,,,,,,,,,,,,,,,,,,,,,,,,,,,,,,,,,,,,,,,,,,,,,,,,,,,,,,,,,,,,,,,,,,,,,,,,,,,,,,,,,,,,,,,,,,,,,,,,,,,,,,,,,,,,,,,,,,,,
,,61063279931132ebf6b9f0cf,2024-02-22_24h28.43.870,kallum_motion_pilot,2023.2.2,Win32,144.9275362,61063279931132ebf6b9f0cf,65d6bb0e977760de756971f7,65d6bf15ee13f9561621bf81,0.027,0.0271,0,35,35,44,1,threeone,,,,,,,,,,,,,,,,,,,,,,,,,,,,,,,,,,,,,,,,,,,,,,,,,,,,,,,,,,,,,,,,,,,,,,,,,,,,,,,,,,,,,,,,,,,,,,,,,,,,,,,,,,,,,,,,,,,,,,,,,,,,,,,,,,,,,,,,,
,,61063279931132ebf6b9f0cf,2024-02-22_24h28.43.870,kallum_motion_pilot,2023.2.2,Win32,144.9275362,61063279931132ebf6b9f0cf,65d6bb0e977760de756971f7,65d6bf15ee13f9561621bf81,0.0271,0.0271,0,36,36,38,1,fourtwo,,,,,,,,,,,,,,,,,,,,,,,,,,,,,,,,,,,,,,,,,,,,,,,,,,,,,,,,,,,,,,,,,,,,,,,,,,,,,,,,,,,,,,,,,,,,,,,,,,,,,,,,,,,,,,,,,,,,,,,,,,,,,,,,,,,,,,,,,
,,61063279931132ebf6b9f0cf,2024-02-22_24h28.43.870,kallum_motion_pilot,2023.2.2,Win32,144.9275362,61063279931132ebf6b9f0cf,65d6bb0e977760de756971f7,65d6bf15ee13f9561621bf81,0.0271,0.0271,0,37,37,74,1,twoone,,,,,,,,,,,,,,,,,,,,,,,,,,,,,,,,,,,,,,,,,,,,,,,,,,,,,,,,,,,,,,,,,,,,,,,,,,,,,,,,,,,,,,,,,,,,,,,,,,,,,,,,,,,,,,,,,,,,,,,,,,,,,,,,,,,,,,,,,
,,61063279931132ebf6b9f0cf,2024-02-22_24h28.43.870,kallum_motion_pilot,2023.2.2,Win32,144.9275362,61063279931132ebf6b9f0cf,65d6bb0e977760de756971f7,65d6bf15ee13f9561621bf81,0.0272,0.0272,0,38,38,57,1,onethree,,,,,,,,,,,,,,,,,,,,,,,,,,,,,,,,,,,,,,,,,,,,,,,,,,,,,,,,,,,,,,,,,,,,,,,,,,,,,,,,,,,,,,,,,,,,,,,,,,,,,,,,,,,,,,,,,,,,,,,,,,,,,,,,,,,,,,,,,
,,61063279931132ebf6b9f0cf,2024-02-22_24h28.43.870,kallum_motion_pilot,2023.2.2,Win32,144.9275362,61063279931132ebf6b9f0cf,65d6bb0e977760de756971f7,65d6bf15ee13f9561621bf81,0.0273,0.0273,0,39,39,114,1,sixfive,,,,,,,,,,,,,,,,,,,,,,,,,,,,,,,,,,,,,,,,,,,,,,,,,,,,,,,,,,,,,,,,,,,,,,,,,,,,,,,,,,,,,,,,,,,,,,,,,,,,,,,,,,,,,,,,,,,,,,,,,,,,,,,,,,,,,,,,,
,,61063279931132ebf6b9f0cf,2024-02-22_24h28.43.870,kallum_motion_pilot,2023.2.2,Win32,144.9275362,61063279931132ebf6b9f0cf,65d6bb0e977760de756971f7,65d6bf15ee13f9561621bf81,0.0273,0.0273,0,40,40,12,1,threeone,,,,,,,,,,,,,,,,,,,,,,,,,,,,,,,,,,,,,,,,,,,,,,,,,,,,,,,,,,,,,,,,,,,,,,,,,,,,,,,,,,,,,,,,,,,,,,,,,,,,,,,,,,,,,,,,,,,,,,,,,,,,,,,,,,,,,,,,,
,,61063279931132ebf6b9f0cf,2024-02-22_24h28.43.870,kallum_motion_pilot,2023.2.2,Win32,144.9275362,61063279931132ebf6b9f0cf,65d6bb0e977760de756971f7,65d6bf15ee13f9561621bf81,0.0274,0.0274,0,41,41,69,1,threefour,,,,,,,,,,,,,,,,,,,,,,,,,,,,,,,,,,,,,,,,,,,,,,,,,,,,,,,,,,,,,,,,,,,,,,,,,,,,,,,,,,,,,,,,,,,,,,,,,,,,,,,,,,,,,,,,,,,,,,,,,,,,,,,,,,,,,,,,,
,,61063279931132ebf6b9f0cf,2024-02-22_24h28.43.870,kallum_motion_pilot,2023.2.2,Win32,144.9275362,61063279931132ebf6b9f0cf,65d6bb0e977760de756971f7,65d6bf15ee13f9561621bf81,0.0275,0.0275,0,42,42,47,1,fourthree,,,,,,,,,,,,,,,,,,,,,,,,,,,,,,,,,,,,,,,,,,,,,,,,,,,,,,,,,,,,,,,,,,,,,,,,,,,,,,,,,,,,,,,,,,,,,,,,,,,,,,,,,,,,,,,,,,,,,,,,,,,,,,,,,,,,,,,,,
,,61063279931132ebf6b9f0cf,2024-02-22_24h28.43.870,kallum_motion_pilot,2023.2.2,Win32,144.9275362,61063279931132ebf6b9f0cf,65d6bb0e977760de756971f7,65d6bf15ee13f9561621bf81,0.0276,0.0276,0,43,43,30,1,fourtwo,,,,,,,,,,,,,,,,,,,,,,,,,,,,,,,,,,,,,,,,,,,,,,,,,,,,,,,,,,,,,,,,,,,,,,,,,,,,,,,,,,,,,,,,,,,,,,,,,,,,,,,,,,,,,,,,,,,,,,,,,,,,,,,,,,,,,,,,,
,,61063279931132ebf6b9f0cf,2024-02-22_24h28.43.870,kallum_motion_pilot,2023.2.2,Win32,144.9275362,61063279931132ebf6b9f0cf,65d6bb0e977760de756971f7,65d6bf15ee13f9561621bf81,0.0277,0.0277,0,44,44,66,1,twoone,,,,,,,,,,,,,,,,,,,,,,,,,,,,,,,,,,,,,,,,,,,,,,,,,,,,,,,,,,,,,,,,,,,,,,,,,,,,,,,,,,,,,,,,,,,,,,,,,,,,,,,,,,,,,,,,,,,,,,,,,,,,,,,,,,,,,,,,,
,,61063279931132ebf6b9f0cf,2024-02-22_24h28.43.870,kallum_motion_pilot,2023.2.2,Win32,144.9275362,61063279931132ebf6b9f0cf,65d6bb0e977760de756971f7,65d6bf15ee13f9561621bf81,0.0277,0.0278,0,45,45,117,1,seveneight,,,,,,,,,,,,,,,,,,,,,,,,,,,,,,,,,,,,,,,,,,,,,,,,,,,,,,,,,,,,,,,,,,,,,,,,,,,,,,,,,,,,,,,,,,,,,,,,,,,,,,,,,,,,,,,,,,,,,,,,,,,,,,,,,,,,,,,,,
,,61063279931132ebf6b9f0cf,2024-02-22_24h28.43.870,kallum_motion_pilot,2023.2.2,Win32,144.9275362,61063279931132ebf6b9f0cf,65d6bb0e977760de756971f7,65d6bf15ee13f9561621bf81,0.0278,0.0278,0,46,46,35,1,twofour,,,,,,,,,,,,,,,,,,,,,,,,,,,,,,,,,,,,,,,,,,,,,,,,,,,,,,,,,,,,,,,,,,,,,,,,,,,,,,,,,,,,,,,,,,,,,,,,,,,,,,,,,,,,,,,,,,,,,,,,,,,,,,,,,,,,,,,,,
,,61063279931132ebf6b9f0cf,2024-02-22_24h28.43.870,kallum_motion_pilot,2023.2.2,Win32,144.9275362,61063279931132ebf6b9f0cf,65d6bb0e977760de756971f7,65d6bf15ee13f9561621bf81,0.0278,0.0279,0,47,47,27,1,twofour,,,,,,,,,,,,,,,,,,,,,,,,,,,,,,,,,,,,,,,,,,,,,,,,,,,,,,,,,,,,,,,,,,,,,,,,,,,,,,,,,,,,,,,,,,,,,,,,,,,,,,,,,,,,,,,,,,,,,,,,,,,,,,,,,,,,,,,,,
,,61063279931132ebf6b9f0cf,2024-02-22_24h28.43.870,kallum_motion_pilot,2023.2.2,Win32,144.9275362,61063279931132ebf6b9f0cf,65d6bb0e977760de756971f7,65d6bf15ee13f9561621bf81,0.0279,0.028,0,48,48,68,1,threeone,,,,,,,,,,,,,,,,,,,,,,,,,,,,,,,,,,,,,,,,,,,,,,,,,,,,,,,,,,,,,,,,,,,,,,,,,,,,,,,,,,,,,,,,,,,,,,,,,,,,,,,,,,,,,,,,,,,,,,,,,,,,,,,,,,,,,,,,,
,,61063279931132ebf6b9f0cf,2024-02-22_24h28.43.870,kallum_motion_pilot,2023.2.2,Win32,144.9275362,61063279931132ebf6b9f0cf,65d6bb0e977760de756971f7,65d6bf15ee13f9561621bf81,0.028,0.028,0,49,49,134,1,eightsix,,,,,,,,,,,,,,,,,,,,,,,,,,,,,,,,,,,,,,,,,,,,,,,,,,,,,,,,,,,,,,,,,,,,,,,,,,,,,,,,,,,,,,,,,,,,,,,,,,,,,,,,,,,,,,,,,,,,,,,,,,,,,,,,,,,,,,,,,
,,61063279931132ebf6b9f0cf,2024-02-22_24h28.43.870,kallum_motion_pilot,2023.2.2,Win32,144.9275362,61063279931132ebf6b9f0cf,65d6bb0e977760de756971f7,65d6bf15ee13f9561621bf81,0.0281,0.0281,0,50,50,60,1,threeone,,,,,,,,,,,,,,,,,,,,,,,,,,,,,,,,,,,,,,,,,,,,,,,,,,,,,,,,,,,,,,,,,,,,,,,,,,,,,,,,,,,,,,,,,,,,,,,,,,,,,,,,,,,,,,,,,,,,,,,,,,,,,,,,,,,,,,,,,
,,61063279931132ebf6b9f0cf,2024-02-22_24h28.43.870,kallum_motion_pilot,2023.2.2,Win32,144.9275362,61063279931132ebf6b9f0cf,65d6bb0e977760de756971f7,65d6bf15ee13f9561621bf81,0.0282,0.0282,0,51,51,28,1,threeone,,,,,,,,,,,,,,,,,,,,,,,,,,,,,,,,,,,,,,,,,,,,,,,,,,,,,,,,,,,,,,,,,,,,,,,,,,,,,,,,,,,,,,,,,,,,,,,,,,,,,,,,,,,,,,,,,,,,,,,,,,,,,,,,,,,,,,,,,
,,61063279931132ebf6b9f0cf,2024-02-22_24h28.43.870,kallum_motion_pilot,2023.2.2,Win32,144.9275362,61063279931132ebf6b9f0cf,65d6bb0e977760de756971f7,65d6bf15ee13f9561621bf81,0.0282,0.0283,0,52,52,148,1,sevenfive,,,,,,,,,,,,,,,,,,,,,,,,,,,,,,,,,,,,,,,,,,,,,,,,,,,,,,,,,,,,,,,,,,,,,,,,,,,,,,,,,,,,,,,,,,,,,,,,,,,,,,,,,,,,,,,,,,,,,,,,,,,,,,,,,,,,,,,,,
,,61063279931132ebf6b9f0cf,2024-02-22_24h28.43.870,kallum_motion_pilot,2023.2.2,Win32,144.9275362,61063279931132ebf6b9f0cf,65d6bb0e977760de756971f7,65d6bf15ee13f9561621bf81,0.0289,0.0289,0,53,53,17,1,onethree,,,,,,,,,,,,,,,,,,,,,,,,,,,,,,,,,,,,,,,,,,,,,,,,,,,,,,,,,,,,,,,,,,,,,,,,,,,,,,,,,,,,,,,,,,,,,,,,,,,,,,,,,,,,,,,,,,,,,,,,,,,,,,,,,,,,,,,,,
,,61063279931132ebf6b9f0cf,2024-02-22_24h28.43.870,kallum_motion_pilot,2023.2.2,Win32,144.9275362,61063279931132ebf6b9f0cf,65d6bb0e977760de756971f7,65d6bf15ee13f9561621bf81,0.029,0.029,0,54,54,29,1,threefour,,,,,,,,,,,,,,,,,,,,,,,,,,,,,,,,,,,,,,,,,,,,,,,,,,,,,,,,,,,,,,,,,,,,,,,,,,,,,,,,,,,,,,,,,,,,,,,,,,,,,,,,,,,,,,,,,,,,,,,,,,,,,,,,,,,,,,,,,
,,61063279931132ebf6b9f0cf,2024-02-22_24h28.43.870,kallum_motion_pilot,2023.2.2,Win32,144.9275362,61063279931132ebf6b9f0cf,65d6bb0e977760de756971f7,65d6bf15ee13f9561621bf81,0.029,0.029,0,55,55,52,1,threeone,,,,,,,,,,,,,,,,,,,,,,,,,,,,,,,,,,,,,,,,,,,,,,,,,,,,,,,,,,,,,,,,,,,,,,,,,,,,,,,,,,,,,,,,,,,,,,,,,,,,,,,,,,,,,,,,,,,,,,,,,,,,,,,,,,,,,,,,,
,,61063279931132ebf6b9f0cf,2024-02-22_24h28.43.870,kallum_motion_pilot,2023.2.2,Win32,144.9275362,61063279931132ebf6b9f0cf,65d6bb0e977760de756971f7,65d6bf15ee13f9561621bf81,0.0291,0.0291,0,56,56,127,1,eightseven,,,,,,,,,,,,,,,,,,,,,,,,,,,,,,,,,,,,,,,,,,,,,,,,,,,,,,,,,,,,,,,,,,,,,,,,,,,,,,,,,,,,,,,,,,,,,,,,,,,,,,,,,,,,,,,,,,,,,,,,,,,,,,,,,,,,,,,,,
,,61063279931132ebf6b9f0cf,2024-02-22_24h28.43.870,kallum_motion_pilot,2023.2.2,Win32,144.9275362,61063279931132ebf6b9f0cf,65d6bb0e977760de756971f7,65d6bf15ee13f9561621bf81,0.0292,0.0292,0,57,57,65,1,onethree,,,,,,,,,,,,,,,,,,,,,,,,,,,,,,,,,,,,,,,,,,,,,,,,,,,,,,,,,,,,,,,,,,,,,,,,,,,,,,,,,,,,,,,,,,,,,,,,,,,,,,,,,,,,,,,,,,,,,,,,,,,,,,,,,,,,,,,,,
,,61063279931132ebf6b9f0cf,2024-02-22_24h28.43.870,kallum_motion_pilot,2023.2.2,Win32,144.9275362,61063279931132ebf6b9f0cf,65d6bb0e977760de756971f7,65d6bf15ee13f9561621bf81,0.0292,0.0293,0,58,58,5,1,threefour,,,,,,,,,,,,,,,,,,,,,,,,,,,,,,,,,,,,,,,,,,,,,,,,,,,,,,,,,,,,,,,,,,,,,,,,,,,,,,,,,,,,,,,,,,,,,,,,,,,,,,,,,,,,,,,,,,,,,,,,,,,,,,,,,,,,,,,,,
,,61063279931132ebf6b9f0cf,2024-02-22_24h28.43.870,kallum_motion_pilot,2023.2.2,Win32,144.9275362,61063279931132ebf6b9f0cf,65d6bb0e977760de756971f7,65d6bf15ee13f9561621bf81,0.0293,0.0293,0,59,59,101,1,seveneight,,,,,,,,,,,,,,,,,,,,,,,,,,,,,,,,,,,,,,,,,,,,,,,,,,,,,,,,,,,,,,,,,,,,,,,,,,,,,,,,,,,,,,,,,,,,,,,,,,,,,,,,,,,,,,,,,,,,,,,,,,,,,,,,,,,,,,,,,
,,61063279931132ebf6b9f0cf,2024-02-22_24h28.43.870,kallum_motion_pilot,2023.2.2,Win32,144.9275362,61063279931132ebf6b9f0cf,65d6bb0e977760de756971f7,65d6bf15ee13f9561621bf81,0.0294,0.0294,0,60,60,87,1,eightseven,,,,,,,,,,,,,,,,,,,,,,,,,,,,,,,,,,,,,,,,,,,,,,,,,,,,,,,,,,,,,,,,,,,,,,,,,,,,,,,,,,,,,,,,,,,,,,,,,,,,,,,,,,,,,,,,,,,,,,,,,,,,,,,,,,,,,,,,,
,,61063279931132ebf6b9f0cf,2024-02-22_24h28.43.870,kallum_motion_pilot,2023.2.2,Win32,144.9275362,61063279931132ebf6b9f0cf,65d6bb0e977760de756971f7,65d6bf15ee13f9561621bf81,0.0295,0.0295,0,61,61,95,1,eightseven,,,,,,,,,,,,,,,,,,,,,,,,,,,,,,,,,,,,,,,,,,,,,,,,,,,,,,,,,,,,,,,,,,,,,,,,,,,,,,,,,,,,,,,,,,,,,,,,,,,,,,,,,,,,,,,,,,,,,,,,,,,,,,,,,,,,,,,,,
,,61063279931132ebf6b9f0cf,2024-02-22_24h28.43.870,kallum_motion_pilot,2023.2.2,Win32,144.9275362,61063279931132ebf6b9f0cf,65d6bb0e977760de756971f7,65d6bf15ee13f9561621bf81,0.0296,0.0296,0,62,62,76,1,threeone,,,,,,,,,,,,,,,,,,,,,,,,,,,,,,,,,,,,,,,,,,,,,,,,,,,,,,,,,,,,,,,,,,,,,,,,,,,,,,,,,,,,,,,,,,,,,,,,,,,,,,,,,,,,,,,,,,,,,,,,,,,,,,,,,,,,,,,,,
,,61063279931132ebf6b9f0cf,2024-02-22_24h28.43.870,kallum_motion_pilot,2023.2.2,Win32,144.9275362,61063279931132ebf6b9f0cf,65d6bb0e977760de756971f7,65d6bf15ee13f9561621bf81,0.0297,0.0298,0,63,63,91,1,sixeight,,,,,,,,,,,,,,,,,,,,,,,,,,,,,,,,,,,,,,,,,,,,,,,,,,,,,,,,,,,,,,,,,,,,,,,,,,,,,,,,,,,,,,,,,,,,,,,,,,,,,,,,,,,,,,,,,,,,,,,,,,,,,,,,,,,,,,,,,
,,61063279931132ebf6b9f0cf,2024-02-22_24h28.43.870,kallum_motion_pilot,2023.2.2,Win32,144.9275362,61063279931132ebf6b9f0cf,65d6bb0e977760de756971f7,65d6bf15ee13f9561621bf81,0.0299,0.0299,0,64,64,31,1,fourthree,,,,,,,,,,,,,,,,,,,,,,,,,,,,,,,,,,,,,,,,,,,,,,,,,,,,,,,,,,,,,,,,,,,,,,,,,,,,,,,,,,,,,,,,,,,,,,,,,,,,,,,,,,,,,,,,,,,,,,,,,,,,,,,,,,,,,,,,,
,,61063279931132ebf6b9f0cf,2024-02-22_24h28.43.870,kallum_motion_pilot,2023.2.2,Win32,144.9275362,61063279931132ebf6b9f0cf,65d6bb0e977760de756971f7,65d6bf15ee13f9561621bf81,0.03,0.03,0,65,65,133,1,seveneight,,,,,,,,,,,,,,,,,,,,,,,,,,,,,,,,,,,,,,,,,,,,,,,,,,,,,,,,,,,,,,,,,,,,,,,,,,,,,,,,,,,,,,,,,,,,,,,,,,,,,,,,,,,,,,,,,,,,,,,,,,,,,,,,,,,,,,,,,
,,61063279931132ebf6b9f0cf,2024-02-22_24h28.43.870,kallum_motion_pilot,2023.2.2,Win32,144.9275362,61063279931132ebf6b9f0cf,65d6bb0e977760de756971f7,65d6bf15ee13f9561621bf81,0.0302,0.0302,0,66,66,115,1,sixeight,,,,,,,,,,,,,,,,,,,,,,,,,,,,,,,,,,,,,,,,,,,,,,,,,,,,,,,,,,,,,,,,,,,,,,,,,,,,,,,,,,,,,,,,,,,,,,,,,,,,,,,,,,,,,,,,,,,,,,,,,,,,,,,,,,,,,,,,,
,,61063279931132ebf6b9f0cf,2024-02-22_24h28.43.870,kallum_motion_pilot,2023.2.2,Win32,144.9275362,61063279931132ebf6b9f0cf,65d6bb0e977760de756971f7,65d6bf15ee13f9561621bf81,0.0304,0.0305,0,67,67,34,1,twoone,,,,,,,,,,,,,,,,,,,,,,,,,,,,,,,,,,,,,,,,,,,,,,,,,,,,,,,,,,,,,,,,,,,,,,,,,,,,,,,,,,,,,,,,,,,,,,,,,,,,,,,,,,,,,,,,,,,,,,,,,,,,,,,,,,,,,,,,,
,,61063279931132ebf6b9f0cf,2024-02-22_24h28.43.870,kallum_motion_pilot,2023.2.2,Win32,144.9275362,61063279931132ebf6b9f0cf,65d6bb0e977760de756971f7,65d6bf15ee13f9561621bf81,0.0306,0.0306,0,68,68,126,1,eightsix,,,,,,,,,,,,,,,,,,,,,,,,,,,,,,,,,,,,,,,,,,,,,,,,,,,,,,,,,,,,,,,,,,,,,,,,,,,,,,,,,,,,,,,,,,,,,,,,,,,,,,,,,,,,,,,,,,,,,,,,,,,,,,,,,,,,,,,,,
,,61063279931132ebf6b9f0cf,2024-02-22_24h28.43.870,kallum_motion_pilot,2023.2.2,Win32,144.9275362,61063279931132ebf6b9f0cf,65d6bb0e977760de756971f7,65d6bf15ee13f9561621bf81,0.0308,0.0308,0,69,69,88,1,fivesix,,,,,,,,,,,,,,,,,,,,,,,,,,,,,,,,,,,,,,,,,,,,,,,,,,,,,,,,,,,,,,,,,,,,,,,,,,,,,,,,,,,,,,,,,,,,,,,,,,,,,,,,,,,,,,,,,,,,,,,,,,,,,,,,,,,,,,,,,
,,61063279931132ebf6b9f0cf,2024-02-22_24h28.43.870,kallum_motion_pilot,2023.2.2,Win32,144.9275362,61063279931132ebf6b9f0cf,65d6bb0e977760de756971f7,65d6bf15ee13f9561621bf81,0.031,0.031,0,70,70,130,1,sixfive,,,,,,,,,,,,,,,,,,,,,,,,,,,,,,,,,,,,,,,,,,,,,,,,,,,,,,,,,,,,,,,,,,,,,,,,,,,,,,,,,,,,,,,,,,,,,,,,,,,,,,,,,,,,,,,,,,,,,,,,,,,,,,,,,,,,,,,,,
,,61063279931132ebf6b9f0cf,2024-02-22_24h28.43.870,kallum_motion_pilot,2023.2.2,Win32,144.9275362,61063279931132ebf6b9f0cf,65d6bb0e977760de756971f7,65d6bf15ee13f9561621bf81,0.0311,0.0312,0,71,71,123,1,sixeight,,,,,,,,,,,,,,,,,,,,,,,,,,,,,,,,,,,,,,,,,,,,,,,,,,,,,,,,,,,,,,,,,,,,,,,,,,,,,,,,,,,,,,,,,,,,,,,,,,,,,,,,,,,,,,,,,,,,,,,,,,,,,,,,,,,,,,,,,
,,61063279931132ebf6b9f0cf,2024-02-22_24h28.43.870,kallum_motion_pilot,2023.2.2,Win32,144.9275362,61063279931132ebf6b9f0cf,65d6bb0e977760de756971f7,65d6bf15ee13f9561621bf81,0.0313,0.0313,0,72,72,55,1,fourthree,,,,,,,,,,,,,,,,,,,,,,,,,,,,,,,,,,,,,,,,,,,,,,,,,,,,,,,,,,,,,,,,,,,,,,,,,,,,,,,,,,,,,,,,,,,,,,,,,,,,,,,,,,,,,,,,,,,,,,,,,,,,,,,,,,,,,,,,,
,,61063279931132ebf6b9f0cf,2024-02-22_24h28.43.870,kallum_motion_pilot,2023.2.2,Win32,144.9275362,61063279931132ebf6b9f0cf,65d6bb0e977760de756971f7,65d6bf15ee13f9561621bf81,0.0314,0.0315,0,73,73,144,1,fivesix,,,,,,,,,,,,,,,,,,,,,,,,,,,,,,,,,,,,,,,,,,,,,,,,,,,,,,,,,,,,,,,,,,,,,,,,,,,,,,,,,,,,,,,,,,,,,,,,,,,,,,,,,,,,,,,,,,,,,,,,,,,,,,,,,,,,,,,,,
,,61063279931132ebf6b9f0cf,2024-02-22_24h28.43.870,kallum_motion_pilot,2023.2.2,Win32,144.9275362,61063279931132ebf6b9f0cf,65d6bb0e977760de756971f7,65d6bf15ee13f9561621bf81,0.0315,0.0315,0,74,74,73,1,onethree,,,,,,,,,,,,,,,,,,,,,,,,,,,,,,,,,,,,,,,,,,,,,,,,,,,,,,,,,,,,,,,,,,,,,,,,,,,,,,,,,,,,,,,,,,,,,,,,,,,,,,,,,,,,,,,,,,,,,,,,,,,,,,,,,,,,,,,,,
,,61063279931132ebf6b9f0cf,2024-02-22_24h28.43.870,kallum_motion_pilot,2023.2.2,Win32,144.9275362,61063279931132ebf6b9f0cf,65d6bb0e977760de756971f7,65d6bf15ee13f9561621bf81,0.0316,0.0316,0,75,75,51,1,twofour,,,,,,,,,,,,,,,,,,,,,,,,,,,,,,,,,,,,,,,,,,,,,,,,,,,,,,,,,,,,,,,,,,,,,,,,,,,,,,,,,,,,,,,,,,,,,,,,,,,,,,,,,,,,,,,,,,,,,,,,,,,,,,,,,,,,,,,,,
,,61063279931132ebf6b9f0cf,2024-02-22_24h28.43.870,kallum_motion_pilot,2023.2.2,Win32,144.9275362,61063279931132ebf6b9f0cf,65d6bb0e977760de756971f7,65d6bf15ee13f9561621bf81,0.0317,0.0317,0,76,76,153,1,fiveseven,,,,,,,,,,,,,,,,,,,,,,,,,,,,,,,,,,,,,,,,,,,,,,,,,,,,,,,,,,,,,,,,,,,,,,,,,,,,,,,,,,,,,,,,,,,,,,,,,,,,,,,,,,,,,,,,,,,,,,,,,,,,,,,,,,,,,,,,,
,,61063279931132ebf6b9f0cf,2024-02-22_24h28.43.870,kallum_motion_pilot,2023.2.2,Win32,144.9275362,61063279931132ebf6b9f0cf,65d6bb0e977760de756971f7,65d6bf15ee13f9561621bf81,0.0318,0.0319,0,77,77,107,1,sixeight,,,,,,,,,,,,,,,,,,,,,,,,,,,,,,,,,,,,,,,,,,,,,,,,,,,,,,,,,,,,,,,,,,,,,,,,,,,,,,,,,,,,,,,,,,,,,,,,,,,,,,,,,,,,,,,,,,,,,,,,,,,,,,,,,,,,,,,,,
,,61063279931132ebf6b9f0cf,2024-02-22_24h28.43.870,kallum_motion_pilot,2023.2.2,Win32,144.9275362,61063279931132ebf6b9f0cf,65d6bb0e977760de756971f7,65d6bf15ee13f9561621bf81,0.0319,0.0319,0,78,78,86,1,eightsix,,,,,,,,,,,,,,,,,,,,,,,,,,,,,,,,,,,,,,,,,,,,,,,,,,,,,,,,,,,,,,,,,,,,,,,,,,,,,,,,,,,,,,,,,,,,,,,,,,,,,,,,,,,,,,,,,,,,,,,,,,,,,,,,,,,,,,,,,
,,61063279931132ebf6b9f0cf,2024-02-22_24h28.43.870,kallum_motion_pilot,2023.2.2,Win32,144.9275362,61063279931132ebf6b9f0cf,65d6bb0e977760de756971f7,65d6bf15ee13f9561621bf81,0.032,0.0321,0,79,79,110,1,eightsix,,,,,,,,,,,,,,,,,,,,,,,,,,,,,,,,,,,,,,,,,,,,,,,,,,,,,,,,,,,,,,,,,,,,,,,,,,,,,,,,,,,,,,,,,,,,,,,,,,,,,,,,,,,,,,,,,,,,,,,,,,,,,,,,,,,,,,,,,
,,61063279931132ebf6b9f0cf,2024-02-22_24h28.43.870,kallum_motion_pilot,2023.2.2,Win32,144.9275362,61063279931132ebf6b9f0cf,65d6bb0e977760de756971f7,65d6bf15ee13f9561621bf81,0.0322,0.0322,0,80,80,156,1,sevenfive,,,,,,,,,,,,,,,,,,,,,,,,,,,,,,,,,,,,,,,,,,,,,,,,,,,,,,,,,,,,,,,,,,,,,,,,,,,,,,,,,,,,,,,,,,,,,,,,,,,,,,,,,,,,,,,,,,,,,,,,,,,,,,,,,,,,,,,,,
,,61063279931132ebf6b9f0cf,2024-02-22_24h28.43.870,kallum_motion_pilot,2023.2.2,Win32,144.9275362,61063279931132ebf6b9f0cf,65d6bb0e977760de756971f7,65d6bf15ee13f9561621bf81,0.0323,0.0324,0,81,81,150,1,eightsix,,,,,,,,,,,,,,,,,,,,,,,,,,,,,,,,,,,,,,,,,,,,,,,,,,,,,,,,,,,,,,,,,,,,,,,,,,,,,,,,,,,,,,,,,,,,,,,,,,,,,,,,,,,,,,,,,,,,,,,,,,,,,,,,,,,,,,,,,
,,61063279931132ebf6b9f0cf,2024-02-22_24h28.43.870,kallum_motion_pilot,2023.2.2,Win32,144.9275362,61063279931132ebf6b9f0cf,65d6bb0e977760de756971f7,65d6bf15ee13f9561621bf81,0.0325,0.0325,0,82,82,125,1,seveneight,,,,,,,,,,,,,,,,,,,,,,,,,,,,,,,,,,,,,,,,,,,,,,,,,,,,,,,,,,,,,,,,,,,,,,,,,,,,,,,,,,,,,,,,,,,,,,,,,,,,,,,,,,,,,,,,,,,,,,,,,,,,,,,,,,,,,,,,,
,,61063279931132ebf6b9f0cf,2024-02-22_24h28.43.870,kallum_motion_pilot,2023.2.2,Win32,144.9275362,61063279931132ebf6b9f0cf,65d6bb0e977760de756971f7,65d6bf15ee13f9561621bf81,0.0326,0.0326,0,83,83,142,1,eightsix,,,,,,,,,,,,,,,,,,,,,,,,,,,,,,,,,,,,,,,,,,,,,,,,,,,,,,,,,,,,,,,,,,,,,,,,,,,,,,,,,,,,,,,,,,,,,,,,,,,,,,,,,,,,,,,,,,,,,,,,,,,,,,,,,,,,,,,,,
,,61063279931132ebf6b9f0cf,2024-02-22_24h28.43.870,kallum_motion_pilot,2023.2.2,Win32,144.9275362,61063279931132ebf6b9f0cf,65d6bb0e977760de756971f7,65d6bf15ee13f9561621bf81,0.0328,0.0329,0,84,84,161,1,fiveseven,,,,,,,,,,,,,,,,,,,,,,,,,,,,,,,,,,,,,,,,,,,,,,,,,,,,,,,,,,,,,,,,,,,,,,,,,,,,,,,,,,,,,,,,,,,,,,,,,,,,,,,,,,,,,,,,,,,,,,,,,,,,,,,,,,,,,,,,,
,,61063279931132ebf6b9f0cf,2024-02-22_24h28.43.870,kallum_motion_pilot,2023.2.2,Win32,144.9275362,61063279931132ebf6b9f0cf,65d6bb0e977760de756971f7,65d6bf15ee13f9561621bf81,0.033,0.033,0,85,85,113,1,fiveseven,,,,,,,,,,,,,,,,,,,,,,,,,,,,,,,,,,,,,,,,,,,,,,,,,,,,,,,,,,,,,,,,,,,,,,,,,,,,,,,,,,,,,,,,,,,,,,,,,,,,,,,,,,,,,,,,,,,,,,,,,,,,,,,,,,,,,,,,,
,,61063279931132ebf6b9f0cf,2024-02-22_24h28.43.870,kallum_motion_pilot,2023.2.2,Win32,144.9275362,61063279931132ebf6b9f0cf,65d6bb0e977760de756971f7,65d6bf15ee13f9561621bf81,0.0331,0.0331,0,86,86,140,1,sevenfive,,,,,,,,,,,,,,,,,,,,,,,,,,,,,,,,,,,,,,,,,,,,,,,,,,,,,,,,,,,,,,,,,,,,,,,,,,,,,,,,,,,,,,,,,,,,,,,,,,,,,,,,,,,,,,,,,,,,,,,,,,,,,,,,,,,,,,,,,
,,61063279931132ebf6b9f0cf,2024-02-22_24h28.43.870,kallum_motion_pilot,2023.2.2,Win32,144.9275362,61063279931132ebf6b9f0cf,65d6bb0e977760de756971f7,65d6bf15ee13f9561621bf81,0.0332,0.0333,0,87,87,43,1,twofour,,,,,,,,,,,,,,,,,,,,,,,,,,,,,,,,,,,,,,,,,,,,,,,,,,,,,,,,,,,,,,,,,,,,,,,,,,,,,,,,,,,,,,,,,,,,,,,,,,,,,,,,,,,,,,,,,,,,,,,,,,,,,,,,,,,,,,,,,
,,61063279931132ebf6b9f0cf,2024-02-22_24h28.43.870,kallum_motion_pilot,2023.2.2,Win32,144.9275362,61063279931132ebf6b9f0cf,65d6bb0e977760de756971f7,65d6bf15ee13f9561621bf81,0.0334,0.0334,0,88,88,77,1,threefour,,,,,,,,,,,,,,,,,,,,,,,,,,,,,,,,,,,,,,,,,,,,,,,,,,,,,,,,,,,,,,,,,,,,,,,,,,,,,,,,,,,,,,,,,,,,,,,,,,,,,,,,,,,,,,,,,,,,,,,,,,,,,,,,,,,,,,,,,
,,61063279931132ebf6b9f0cf,2024-02-22_24h28.43.870,kallum_motion_pilot,2023.2.2,Win32,144.9275362,61063279931132ebf6b9f0cf,65d6bb0e977760de756971f7,65d6bf15ee13f9561621bf81,0.0334,0.0335,0,89,89,1,1,onethree,,,,,,,,,,,,,,,,,,,,,,,,,,,,,,,,,,,,,,,,,,,,,,,,,,,,,,,,,,,,,,,,,,,,,,,,,,,,,,,,,,,,,,,,,,,,,,,,,,,,,,,,,,,,,,,,,,,,,,,,,,,,,,,,,,,,,,,,,
,,61063279931132ebf6b9f0cf,2024-02-22_24h28.43.870,kallum_motion_pilot,2023.2.2,Win32,144.9275362,61063279931132ebf6b9f0cf,65d6bb0e977760de756971f7,65d6bf15ee13f9561621bf81,0.0336,0.0336,0,90,90,121,1,fiveseven,,,,,,,,,,,,,,,,,,,,,,,,,,,,,,,,,,,,,,,,,,,,,,,,,,,,,,,,,,,,,,,,,,,,,,,,,,,,,,,,,,,,,,,,,,,,,,,,,,,,,,,,,,,,,,,,,,,,,,,,,,,,,,,,,,,,,,,,,
,,61063279931132ebf6b9f0cf,2024-02-22_24h28.43.870,kallum_motion_pilot,2023.2.2,Win32,144.9275362,61063279931132ebf6b9f0cf,65d6bb0e977760de756971f7,65d6bf15ee13f9561621bf81,0.0337,0.0337,0,91,91,61,1,threefour,,,,,,,,,,,,,,,,,,,,,,,,,,,,,,,,,,,,,,,,,,,,,,,,,,,,,,,,,,,,,,,,,,,,,,,,,,,,,,,,,,,,,,,,,,,,,,,,,,,,,,,,,,,,,,,,,,,,,,,,,,,,,,,,,,,,,,,,,
,,61063279931132ebf6b9f0cf,2024-02-22_24h28.43.870,kallum_motion_pilot,2023.2.2,Win32,144.9275362,61063279931132ebf6b9f0cf,65d6bb0e977760de756971f7,65d6bf15ee13f9561621bf81,0.0339,0.0339,0,92,92,82,1,sixfive,,,,,,,,,,,,,,,,,,,,,,,,,,,,,,,,,,,,,,,,,,,,,,,,,,,,,,,,,,,,,,,,,,,,,,,,,,,,,,,,,,,,,,,,,,,,,,,,,,,,,,,,,,,,,,,,,,,,,,,,,,,,,,,,,,,,,,,,,
,,61063279931132ebf6b9f0cf,2024-02-22_24h28.43.870,kallum_motion_pilot,2023.2.2,Win32,144.9275362,61063279931132ebf6b9f0cf,65d6bb0e977760de756971f7,65d6bf15ee13f9561621bf81,0.0339,0.034,0,93,93,20,1,threeone,,,,,,,,,,,,,,,,,,,,,,,,,,,,,,,,,,,,,,,,,,,,,,,,,,,,,,,,,,,,,,,,,,,,,,,,,,,,,,,,,,,,,,,,,,,,,,,,,,,,,,,,,,,,,,,,,,,,,,,,,,,,,,,,,,,,,,,,,
,,61063279931132ebf6b9f0cf,2024-02-22_24h28.43.870,kallum_motion_pilot,2023.2.2,Win32,144.9275362,61063279931132ebf6b9f0cf,65d6bb0e977760de756971f7,65d6bf15ee13f9561621bf81,0.0341,0.0341,0,94,94,159,1,eightseven,,,,,,,,,,,,,,,,,,,,,,,,,,,,,,,,,,,,,,,,,,,,,,,,,,,,,,,,,,,,,,,,,,,,,,,,,,,,,,,,,,,,,,,,,,,,,,,,,,,,,,,,,,,,,,,,,,,,,,,,,,,,,,,,,,,,,,,,,
,,61063279931132ebf6b9f0cf,2024-02-22_24h28.43.870,kallum_motion_pilot,2023.2.2,Win32,144.9275362,61063279931132ebf6b9f0cf,65d6bb0e977760de756971f7,65d6bf15ee13f9561621bf81,0.0341,0.0342,0,95,95,93,1,seveneight,,,,,,,,,,,,,,,,,,,,,,,,,,,,,,,,,,,,,,,,,,,,,,,,,,,,,,,,,,,,,,,,,,,,,,,,,,,,,,,,,,,,,,,,,,,,,,,,,,,,,,,,,,,,,,,,,,,,,,,,,,,,,,,,,,,,,,,,,
,,61063279931132ebf6b9f0cf,2024-02-22_24h28.43.870,kallum_motion_pilot,2023.2.2,Win32,144.9275362,61063279931132ebf6b9f0cf,65d6bb0e977760de756971f7,65d6bf15ee13f9561621bf81,0.0342,0.0343,0,96,96,79,1,eightseven,,,,,,,,,,,,,,,,,,,,,,,,,,,,,,,,,,,,,,,,,,,,,,,,,,,,,,,,,,,,,,,,,,,,,,,,,,,,,,,,,,,,,,,,,,,,,,,,,,,,,,,,,,,,,,,,,,,,,,,,,,,,,,,,,,,,,,,,,
,,61063279931132ebf6b9f0cf,2024-02-22_24h28.43.870,kallum_motion_pilot,2023.2.2,Win32,144.9275362,61063279931132ebf6b9f0cf,65d6bb0e977760de756971f7,65d6bf15ee13f9561621bf81,0.0344,0.0345,0,97,97,48,1,onetwo,,,,,,,,,,,,,,,,,,,,,,,,,,,,,,,,,,,,,,,,,,,,,,,,,,,,,,,,,,,,,,,,,,,,,,,,,,,,,,,,,,,,,,,,,,,,,,,,,,,,,,,,,,,,,,,,,,,,,,,,,,,,,,,,,,,,,,,,,
,,61063279931132ebf6b9f0cf,2024-02-22_24h28.43.870,kallum_motion_pilot,2023.2.2,Win32,144.9275362,61063279931132ebf6b9f0cf,65d6bb0e977760de756971f7,65d6bf15ee13f9561621bf81,0.0346,0.0346,0,98,98,111,1,eightseven,,,,,,,,,,,,,,,,,,,,,,,,,,,,,,,,,,,,,,,,,,,,,,,,,,,,,,,,,,,,,,,,,,,,,,,,,,,,,,,,,,,,,,,,,,,,,,,,,,,,,,,,,,,,,,,,,,,,,,,,,,,,,,,,,,,,,,,,,
,,61063279931132ebf6b9f0cf,2024-02-22_24h28.43.870,kallum_motion_pilot,2023.2.2,Win32,144.9275362,61063279931132ebf6b9f0cf,65d6bb0e977760de756971f7,65d6bf15ee13f9561621bf81,0.0346,0.0347,0,99,99,24,1,onetwo,,,,,,,,,,,,,,,,,,,,,,,,,,,,,,,,,,,,,,,,,,,,,,,,,,,,,,,,,,,,,,,,,,,,,,,,,,,,,,,,,,,,,,,,,,,,,,,,,,,,,,,,,,,,,,,,,,,,,,,,,,,,,,,,,,,,,,,,,
,,61063279931132ebf6b9f0cf,2024-02-22_24h28.43.870,kallum_motion_pilot,2023.2.2,Win32,144.9275362,61063279931132ebf6b9f0cf,65d6bb0e977760de756971f7,65d6bf15ee13f9561621bf81,0.0348,0.0349,0,100,100,147,1,sixeight,,,,,,,,,,,,,,,,,,,,,,,,,,,,,,,,,,,,,,,,,,,,,,,,,,,,,,,,,,,,,,,,,,,,,,,,,,,,,,,,,,,,,,,,,,,,,,,,,,,,,,,,,,,,,,,,,,,,,,,,,,,,,,,,,,,,,,,,,
,,61063279931132ebf6b9f0cf,2024-02-22_24h28.43.870,kallum_motion_pilot,2023.2.2,Win32,144.9275362,61063279931132ebf6b9f0cf,65d6bb0e977760de756971f7,65d6bf15ee13f9561621bf81,0.0349,0.035,0,101,101,98,1,sixfive,,,,,,,,,,,,,,,,,,,,,,,,,,,,,,,,,,,,,,,,,,,,,,,,,,,,,,,,,,,,,,,,,,,,,,,,,,,,,,,,,,,,,,,,,,,,,,,,,,,,,,,,,,,,,,,,,,,,,,,,,,,,,,,,,,,,,,,,,
,,61063279931132ebf6b9f0cf,2024-02-22_24h28.43.870,kallum_motion_pilot,2023.2.2,Win32,144.9275362,61063279931132ebf6b9f0cf,65d6bb0e977760de756971f7,65d6bf15ee13f9561621bf81,0.035,0.035,0,102,102,26,1,twoone,,,,,,,,,,,,,,,,,,,,,,,,,,,,,,,,,,,,,,,,,,,,,,,,,,,,,,,,,,,,,,,,,,,,,,,,,,,,,,,,,,,,,,,,,,,,,,,,,,,,,,,,,,,,,,,,,,,,,,,,,,,,,,,,,,,,,,,,,
,,61063279931132ebf6b9f0cf,2024-02-22_24h28.43.870,kallum_motion_pilot,2023.2.2,Win32,144.9275362,61063279931132ebf6b9f0cf,65d6bb0e977760de756971f7,65d6bf15ee13f9561621bf81,0.0351,0.0351,0,103,103,16,1,onetwo,,,,,,,,,,,,,,,,,,,,,,,,,,,,,,,,,,,,,,,,,,,,,,,,,,,,,,,,,,,,,,,,,,,,,,,,,,,,,,,,,,,,,,,,,,,,,,,,,,,,,,,,,,,,,,,,,,,,,,,,,,,,,,,,,,,,,,,,,
,,61063279931132ebf6b9f0cf,2024-02-22_24h28.43.870,kallum_motion_pilot,2023.2.2,Win32,144.9275362,61063279931132ebf6b9f0cf,65d6bb0e977760de756971f7,65d6bf15ee13f9561621bf81,0.0352,0.0353,0,104,104,132,1,sevenfive,,,,,,,,,,,,,,,,,,,,,,,,,,,,,,,,,,,,,,,,,,,,,,,,,,,,,,,,,,,,,,,,,,,,,,,,,,,,,,,,,,,,,,,,,,,,,,,,,,,,,,,,,,,,,,,,,,,,,,,,,,,,,,,,,,,,,,,,,
,,61063279931132ebf6b9f0cf,2024-02-22_24h28.43.870,kallum_motion_pilot,2023.2.2,Win32,144.9275362,61063279931132ebf6b9f0cf,65d6bb0e977760de756971f7,65d6bf15ee13f9561621bf81,0.0353,0.0353,0,105,105,158,1,eightsix,,,,,,,,,,,,,,,,,,,,,,,,,,,,,,,,,,,,,,,,,,,,,,,,,,,,,,,,,,,,,,,,,,,,,,,,,,,,,,,,,,,,,,,,,,,,,,,,,,,,,,,,,,,,,,,,,,,,,,,,,,,,,,,,,,,,,,,,,
,,61063279931132ebf6b9f0cf,2024-02-22_24h28.43.870,kallum_motion_pilot,2023.2.2,Win32,144.9275362,61063279931132ebf6b9f0cf,65d6bb0e977760de756971f7,65d6bf15ee13f9561621bf81,0.0354,0.0354,0,106,106,160,1,fivesix,,,,,,,,,,,,,,,,,,,,,,,,,,,,,,,,,,,,,,,,,,,,,,,,,,,,,,,,,,,,,,,,,,,,,,,,,,,,,,,,,,,,,,,,,,,,,,,,,,,,,,,,,,,,,,,,,,,,,,,,,,,,,,,,,,,,,,,,,
,,61063279931132ebf6b9f0cf,2024-02-22_24h28.43.870,kallum_motion_pilot,2023.2.2,Win32,144.9275362,61063279931132ebf6b9f0cf,65d6bb0e977760de756971f7,65d6bf15ee13f9561621bf81,0.0355,0.0355,0,107,107,8,1,onetwo,,,,,,,,,,,,,,,,,,,,,,,,,,,,,,,,,,,,,,,,,,,,,,,,,,,,,,,,,,,,,,,,,,,,,,,,,,,,,,,,,,,,,,,,,,,,,,,,,,,,,,,,,,,,,,,,,,,,,,,,,,,,,,,,,,,,,,,,,
,,61063279931132ebf6b9f0cf,2024-02-22_24h28.43.870,kallum_motion_pilot,2023.2.2,Win32,144.9275362,61063279931132ebf6b9f0cf,65d6bb0e977760de756971f7,65d6bf15ee13f9561621bf81,0.0356,0.0357,0,108,108,151,1,eightseven,,,,,,,,,,,,,,,,,,,,,,,,,,,,,,,,,,,,,,,,,,,,,,,,,,,,,,,,,,,,,,,,,,,,,,,,,,,,,,,,,,,,,,,,,,,,,,,,,,,,,,,,,,,,,,,,,,,,,,,,,,,,,,,,,,,,,,,,,
,,61063279931132ebf6b9f0cf,2024-02-22_24h28.43.870,kallum_motion_pilot,2023.2.2,Win32,144.9275362,61063279931132ebf6b9f0cf,65d6bb0e977760de756971f7,65d6bf15ee13f9561621bf81,0.0357,0.0358,0,109,109,10,1,twoone,,,,,,,,,,,,,,,,,,,,,,,,,,,,,,,,,,,,,,,,,,,,,,,,,,,,,,,,,,,,,,,,,,,,,,,,,,,,,,,,,,,,,,,,,,,,,,,,,,,,,,,,,,,,,,,,,,,,,,,,,,,,,,,,,,,,,,,,,
,,61063279931132ebf6b9f0cf,2024-02-22_24h28.43.870,kallum_motion_pilot,2023.2.2,Win32,144.9275362,61063279931132ebf6b9f0cf,65d6bb0e977760de756971f7,65d6bf15ee13f9561621bf81,0.0358,0.0359,0,110,110,53,1,threefour,,,,,,,,,,,,,,,,,,,,,,,,,,,,,,,,,,,,,,,,,,,,,,,,,,,,,,,,,,,,,,,,,,,,,,,,,,,,,,,,,,,,,,,,,,,,,,,,,,,,,,,,,,,,,,,,,,,,,,,,,,,,,,,,,,,,,,,,,
,,61063279931132ebf6b9f0cf,2024-02-22_24h28.43.870,kallum_motion_pilot,2023.2.2,Win32,144.9275362,61063279931132ebf6b9f0cf,65d6bb0e977760de756971f7,65d6bf15ee13f9561621bf81,0.036,0.0361,0,111,111,122,1,sixfive,,,,,,,,,,,,,,,,,,,,,,,,,,,,,,,,,,,,,,,,,,,,,,,,,,,,,,,,,,,,,,,,,,,,,,,,,,,,,,,,,,,,,,,,,,,,,,,,,,,,,,,,,,,,,,,,,,,,,,,,,,,,,,,,,,,,,,,,,
,,61063279931132ebf6b9f0cf,2024-02-22_24h28.43.870,kallum_motion_pilot,2023.2.2,Win32,144.9275362,61063279931132ebf6b9f0cf,65d6bb0e977760de756971f7,65d6bf15ee13f9561621bf81,0.0362,0.0362,0,112,112,81,1,fiveseven,,,,,,,,,,,,,,,,,,,,,,,,,,,,,,,,,,,,,,,,,,,,,,,,,,,,,,,,,,,,,,,,,,,,,,,,,,,,,,,,,,,,,,,,,,,,,,,,,,,,,,,,,,,,,,,,,,,,,,,,,,,,,,,,,,,,,,,,,
,,61063279931132ebf6b9f0cf,2024-02-22_24h28.43.870,kallum_motion_pilot,2023.2.2,Win32,144.9275362,61063279931132ebf6b9f0cf,65d6bb0e977760de756971f7,65d6bf15ee13f9561621bf81,0.0362,0.0364,0,113,113,100,1,sevenfive,,,,,,,,,,,,,,,,,,,,,,,,,,,,,,,,,,,,,,,,,,,,,,,,,,,,,,,,,,,,,,,,,,,,,,,,,,,,,,,,,,,,,,,,,,,,,,,,,,,,,,,,,,,,,,,,,,,,,,,,,,,,,,,,,,,,,,,,,
,,61063279931132ebf6b9f0cf,2024-02-22_24h28.43.870,kallum_motion_pilot,2023.2.2,Win32,144.9275362,61063279931132ebf6b9f0cf,65d6bb0e977760de756971f7,65d6bf15ee13f9561621bf81,0.0364,0.0365,0,114,114,97,1,fiveseven,,,,,,,,,,,,,,,,,,,,,,,,,,,,,,,,,,,,,,,,,,,,,,,,,,,,,,,,,,,,,,,,,,,,,,,,,,,,,,,,,,,,,,,,,,,,,,,,,,,,,,,,,,,,,,,,,,,,,,,,,,,,,,,,,,,,,,,,,
,,61063279931132ebf6b9f0cf,2024-02-22_24h28.43.870,kallum_motion_pilot,2023.2.2,Win32,144.9275362,61063279931132ebf6b9f0cf,65d6bb0e977760de756971f7,65d6bf15ee13f9561621bf81,0.0365,0.0365,0,115,115,9,1,onethree,,,,,,,,,,,,,,,,,,,,,,,,,,,,,,,,,,,,,,,,,,,,,,,,,,,,,,,,,,,,,,,,,,,,,,,,,,,,,,,,,,,,,,,,,,,,,,,,,,,,,,,,,,,,,,,,,,,,,,,,,,,,,,,,,,,,,,,,,
,,61063279931132ebf6b9f0cf,2024-02-22_24h28.43.870,kallum_motion_pilot,2023.2.2,Win32,144.9275362,61063279931132ebf6b9f0cf,65d6bb0e977760de756971f7,65d6bf15ee13f9561621bf81,0.0366,0.0366,0,116,116,3,1,twofour,,,,,,,,,,,,,,,,,,,,,,,,,,,,,,,,,,,,,,,,,,,,,,,,,,,,,,,,,,,,,,,,,,,,,,,,,,,,,,,,,,,,,,,,,,,,,,,,,,,,,,,,,,,,,,,,,,,,,,,,,,,,,,,,,,,,,,,,,
,,61063279931132ebf6b9f0cf,2024-02-22_24h28.43.870,kallum_motion_pilot,2023.2.2,Win32,144.9275362,61063279931132ebf6b9f0cf,65d6bb0e977760de756971f7,65d6bf15ee13f9561621bf81,0.0367,0.0368,0,117,117,152,1,fivesix,,,,,,,,,,,,,,,,,,,,,,,,,,,,,,,,,,,,,,,,,,,,,,,,,,,,,,,,,,,,,,,,,,,,,,,,,,,,,,,,,,,,,,,,,,,,,,,,,,,,,,,,,,,,,,,,,,,,,,,,,,,,,,,,,,,,,,,,,
,,61063279931132ebf6b9f0cf,2024-02-22_24h28.43.870,kallum_motion_pilot,2023.2.2,Win32,144.9275362,61063279931132ebf6b9f0cf,65d6bb0e977760de756971f7,65d6bf15ee13f9561621bf81,0.0368,0.0368,0,118,118,154,1,sixfive,,,,,,,,,,,,,,,,,,,,,,,,,,,,,,,,,,,,,,,,,,,,,,,,,,,,,,,,,,,,,,,,,,,,,,,,,,,,,,,,,,,,,,,,,,,,,,,,,,,,,,,,,,,,,,,,,,,,,,,,,,,,,,,,,,,,,,,,,
,,61063279931132ebf6b9f0cf,2024-02-22_24h28.43.870,kallum_motion_pilot,2023.2.2,Win32,144.9275362,61063279931132ebf6b9f0cf,65d6bb0e977760de756971f7,65d6bf15ee13f9561621bf81,0.0369,0.0369,0,119,119,108,1,sevenfive,,,,,,,,,,,,,,,,,,,,,,,,,,,,,,,,,,,,,,,,,,,,,,,,,,,,,,,,,,,,,,,,,,,,,,,,,,,,,,,,,,,,,,,,,,,,,,,,,,,,,,,,,,,,,,,,,,,,,,,,,,,,,,,,,,,,,,,,,
,,61063279931132ebf6b9f0cf,2024-02-22_24h28.43.870,kallum_motion_pilot,2023.2.2,Win32,144.9275362,61063279931132ebf6b9f0cf,65d6bb0e977760de756971f7,65d6bf15ee13f9561621bf81,0.0369,0.037,0,120,120,131,1,sixeight,,,,,,,,,,,,,,,,,,,,,,,,,,,,,,,,,,,,,,,,,,,,,,,,,,,,,,,,,,,,,,,,,,,,,,,,,,,,,,,,,,,,,,,,,,,,,,,,,,,,,,,,,,,,,,,,,,,,,,,,,,,,,,,,,,,,,,,,,
,,61063279931132ebf6b9f0cf,2024-02-22_24h28.43.870,kallum_motion_pilot,2023.2.2,Win32,144.9275362,61063279931132ebf6b9f0cf,65d6bb0e977760de756971f7,65d6bf15ee13f9561621bf81,0.037,0.037,0,121,121,22,1,fourtwo,,,,,,,,,,,,,,,,,,,,,,,,,,,,,,,,,,,,,,,,,,,,,,,,,,,,,,,,,,,,,,,,,,,,,,,,,,,,,,,,,,,,,,,,,,,,,,,,,,,,,,,,,,,,,,,,,,,,,,,,,,,,,,,,,,,,,,,,,
,,61063279931132ebf6b9f0cf,2024-02-22_24h28.43.870,kallum_motion_pilot,2023.2.2,Win32,144.9275362,61063279931132ebf6b9f0cf,65d6bb0e977760de756971f7,65d6bf15ee13f9561621bf81,0.0371,0.0372,0,122,122,85,1,seveneight,,,,,,,,,,,,,,,,,,,,,,,,,,,,,,,,,,,,,,,,,,,,,,,,,,,,,,,,,,,,,,,,,,,,,,,,,,,,,,,,,,,,,,,,,,,,,,,,,,,,,,,,,,,,,,,,,,,,,,,,,,,,,,,,,,,,,,,,,
,,61063279931132ebf6b9f0cf,2024-02-22_24h28.43.870,kallum_motion_pilot,2023.2.2,Win32,144.9275362,61063279931132ebf6b9f0cf,65d6bb0e977760de756971f7,65d6bf15ee13f9561621bf81,0.0373,0.0375,0,123,123,89,1,fiveseven,,,,,,,,,,,,,,,,,,,,,,,,,,,,,,,,,,,,,,,,,,,,,,,,,,,,,,,,,,,,,,,,,,,,,,,,,,,,,,,,,,,,,,,,,,,,,,,,,,,,,,,,,,,,,,,,,,,,,,,,,,,,,,,,,,,,,,,,,
,,61063279931132ebf6b9f0cf,2024-02-22_24h28.43.870,kallum_motion_pilot,2023.2.2,Win32,144.9275362,61063279931132ebf6b9f0cf,65d6bb0e977760de756971f7,65d6bf15ee13f9561621bf81,0.0378,0.0378,0,124,124,59,1,twofour,,,,,,,,,,,,,,,,,,,,,,,,,,,,,,,,,,,,,,,,,,,,,,,,,,,,,,,,,,,,,,,,,,,,,,,,,,,,,,,,,,,,,,,,,,,,,,,,,,,,,,,,,,,,,,,,,,,,,,,,,,,,,,,,,,,,,,,,,
,,61063279931132ebf6b9f0cf,2024-02-22_24h28.43.870,kallum_motion_pilot,2023.2.2,Win32,144.9275362,61063279931132ebf6b9f0cf,65d6bb0e977760de756971f7,65d6bf15ee13f9561621bf81,0.038,0.038,0,125,125,40,1,onetwo,,,,,,,,,,,,,,,,,,,,,,,,,,,,,,,,,,,,,,,,,,,,,,,,,,,,,,,,,,,,,,,,,,,,,,,,,,,,,,,,,,,,,,,,,,,,,,,,,,,,,,,,,,,,,,,,,,,,,,,,,,,,,,,,,,,,,,,,,
,,61063279931132ebf6b9f0cf,2024-02-22_24h28.43.870,kallum_motion_pilot,2023.2.2,Win32,144.9275362,61063279931132ebf6b9f0cf,65d6bb0e977760de756971f7,65d6bf15ee13f9561621bf81,0.0381,0.0382,0,126,126,143,1,eightseven,,,,,,,,,,,,,,,,,,,,,,,,,,,,,,,,,,,,,,,,,,,,,,,,,,,,,,,,,,,,,,,,,,,,,,,,,,,,,,,,,,,,,,,,,,,,,,,,,,,,,,,,,,,,,,,,,,,,,,,,,,,,,,,,,,,,,,,,,
,,61063279931132ebf6b9f0cf,2024-02-22_24h28.43.870,kallum_motion_pilot,2023.2.2,Win32,144.9275362,61063279931132ebf6b9f0cf,65d6bb0e977760de756971f7,65d6bf15ee13f9561621bf81,0.0384,0.0384,0,127,127,90,1,sixfive,,,,,,,,,,,,,,,,,,,,,,,,,,,,,,,,,,,,,,,,,,,,,,,,,,,,,,,,,,,,,,,,,,,,,,,,,,,,,,,,,,,,,,,,,,,,,,,,,,,,,,,,,,,,,,,,,,,,,,,,,,,,,,,,,,,,,,,,,
,,61063279931132ebf6b9f0cf,2024-02-22_24h28.43.870,kallum_motion_pilot,2023.2.2,Win32,144.9275362,61063279931132ebf6b9f0cf,65d6bb0e977760de756971f7,65d6bf15ee13f9561621bf81,0.0391,0.0391,0,128,128,33,1,onethree,,,,,,,,,,,,,,,,,,,,,,,,,,,,,,,,,,,,,,,,,,,,,,,,,,,,,,,,,,,,,,,,,,,,,,,,,,,,,,,,,,,,,,,,,,,,,,,,,,,,,,,,,,,,,,,,,,,,,,,,,,,,,,,,,,,,,,,,,
,,61063279931132ebf6b9f0cf,2024-02-22_24h28.43.870,kallum_motion_pilot,2023.2.2,Win32,144.9275362,61063279931132ebf6b9f0cf,65d6bb0e977760de756971f7,65d6bf15ee13f9561621bf81,0.0392,0.0392,0,129,129,11,1,twofour,,,,,,,,,,,,,,,,,,,,,,,,,,,,,,,,,,,,,,,,,,,,,,,,,,,,,,,,,,,,,,,,,,,,,,,,,,,,,,,,,,,,,,,,,,,,,,,,,,,,,,,,,,,,,,,,,,,,,,,,,,,,,,,,,,,,,,,,,
,,61063279931132ebf6b9f0cf,2024-02-22_24h28.43.870,kallum_motion_pilot,2023.2.2,Win32,144.9275362,61063279931132ebf6b9f0cf,65d6bb0e977760de756971f7,65d6bf15ee13f9561621bf81,0.0393,0.0393,0,130,130,139,1,sixeight,,,,,,,,,,,,,,,,,,,,,,,,,,,,,,,,,,,,,,,,,,,,,,,,,,,,,,,,,,,,,,,,,,,,,,,,,,,,,,,,,,,,,,,,,,,,,,,,,,,,,,,,,,,,,,,,,,,,,,,,,,,,,,,,,,,,,,,,,
,,61063279931132ebf6b9f0cf,2024-02-22_24h28.43.870,kallum_motion_pilot,2023.2.2,Win32,144.9275362,61063279931132ebf6b9f0cf,65d6bb0e977760de756971f7,65d6bf15ee13f9561621bf81,0.0395,0.0395,0,131,131,116,1,sevenfive,,,,,,,,,,,,,,,,,,,,,,,,,,,,,,,,,,,,,,,,,,,,,,,,,,,,,,,,,,,,,,,,,,,,,,,,,,,,,,,,,,,,,,,,,,,,,,,,,,,,,,,,,,,,,,,,,,,,,,,,,,,,,,,,,,,,,,,,,
,,61063279931132ebf6b9f0cf,2024-02-22_24h28.43.870,kallum_motion_pilot,2023.2.2,Win32,144.9275362,61063279931132ebf6b9f0cf,65d6bb0e977760de756971f7,65d6bf15ee13f9561621bf81,0.0395,0.0396,0,132,132,45,1,threefour,,,,,,,,,,,,,,,,,,,,,,,,,,,,,,,,,,,,,,,,,,,,,,,,,,,,,,,,,,,,,,,,,,,,,,,,,,,,,,,,,,,,,,,,,,,,,,,,,,,,,,,,,,,,,,,,,,,,,,,,,,,,,,,,,,,,,,,,,
,,61063279931132ebf6b9f0cf,2024-02-22_24h28.43.870,kallum_motion_pilot,2023.2.2,Win32,144.9275362,61063279931132ebf6b9f0cf,65d6bb0e977760de756971f7,65d6bf15ee13f9561621bf81,0.0396,0.0397,0,133,133,109,1,seveneight,,,,,,,,,,,,,,,,,,,,,,,,,,,,,,,,,,,,,,,,,,,,,,,,,,,,,,,,,,,,,,,,,,,,,,,,,,,,,,,,,,,,,,,,,,,,,,,,,,,,,,,,,,,,,,,,,,,,,,,,,,,,,,,,,,,,,,,,,
,,61063279931132ebf6b9f0cf,2024-02-22_24h28.43.870,kallum_motion_pilot,2023.2.2,Win32,144.9275362,61063279931132ebf6b9f0cf,65d6bb0e977760de756971f7,65d6bf15ee13f9561621bf81,0.0397,0.0398,0,134,134,7,1,fourthree,,,,,,,,,,,,,,,,,,,,,,,,,,,,,,,,,,,,,,,,,,,,,,,,,,,,,,,,,,,,,,,,,,,,,,,,,,,,,,,,,,,,,,,,,,,,,,,,,,,,,,,,,,,,,,,,,,,,,,,,,,,,,,,,,,,,,,,,,
,,61063279931132ebf6b9f0cf,2024-02-22_24h28.43.870,kallum_motion_pilot,2023.2.2,Win32,144.9275362,61063279931132ebf6b9f0cf,65d6bb0e977760de756971f7,65d6bf15ee13f9561621bf81,0.0398,0.0399,0,135,135,41,1,onethree,,,,,,,,,,,,,,,,,,,,,,,,,,,,,,,,,,,,,,,,,,,,,,,,,,,,,,,,,,,,,,,,,,,,,,,,,,,,,,,,,,,,,,,,,,,,,,,,,,,,,,,,,,,,,,,,,,,,,,,,,,,,,,,,,,,,,,,,,
,,61063279931132ebf6b9f0cf,2024-02-22_24h28.43.870,kallum_motion_pilot,2023.2.2,Win32,144.9275362,61063279931132ebf6b9f0cf,65d6bb0e977760de756971f7,65d6bf15ee13f9561621bf81,0.0399,0.04,0,136,136,149,1,seveneight,,,,,,,,,,,,,,,,,,,,,,,,,,,,,,,,,,,,,,,,,,,,,,,,,,,,,,,,,,,,,,,,,,,,,,,,,,,,,,,,,,,,,,,,,,,,,,,,,,,,,,,,,,,,,,,,,,,,,,,,,,,,,,,,,,,,,,,,,
,,61063279931132ebf6b9f0cf,2024-02-22_24h28.43.870,kallum_motion_pilot,2023.2.2,Win32,144.9275362,61063279931132ebf6b9f0cf,65d6bb0e977760de756971f7,65d6bf15ee13f9561621bf81,0.0401,0.0401,0,137,137,64,1,onetwo,,,,,,,,,,,,,,,,,,,,,,,,,,,,,,,,,,,,,,,,,,,,,,,,,,,,,,,,,,,,,,,,,,,,,,,,,,,,,,,,,,,,,,,,,,,,,,,,,,,,,,,,,,,,,,,,,,,,,,,,,,,,,,,,,,,,,,,,,
,,61063279931132ebf6b9f0cf,2024-02-22_24h28.43.870,kallum_motion_pilot,2023.2.2,Win32,144.9275362,61063279931132ebf6b9f0cf,65d6bb0e977760de756971f7,65d6bf15ee13f9561621bf81,0.0402,0.0402,0,138,138,0,1,onetwo,,,,,,,,,,,,,,,,,,,,,,,,,,,,,,,,,,,,,,,,,,,,,,,,,,,,,,,,,,,,,,,,,,,,,,,,,,,,,,,,,,,,,,,,,,,,,,,,,,,,,,,,,,,,,,,,,,,,,,,,,,,,,,,,,,,,,,,,,
,,61063279931132ebf6b9f0cf,2024-02-22_24h28.43.870,kallum_motion_pilot,2023.2.2,Win32,144.9275362,61063279931132ebf6b9f0cf,65d6bb0e977760de756971f7,65d6bf15ee13f9561621bf81,0.0403,0.0403,0,139,139,2,1,twoone,,,,,,,,,,,,,,,,,,,,,,,,,,,,,,,,,,,,,,,,,,,,,,,,,,,,,,,,,,,,,,,,,,,,,,,,,,,,,,,,,,,,,,,,,,,,,,,,,,,,,,,,,,,,,,,,,,,,,,,,,,,,,,,,,,,,,,,,,
,,61063279931132ebf6b9f0cf,2024-02-22_24h28.43.870,kallum_motion_pilot,2023.2.2,Win32,144.9275362,61063279931132ebf6b9f0cf,65d6bb0e977760de756971f7,65d6bf15ee13f9561621bf81,0.0404,0.0404,0,140,140,83,1,sixeight,,,,,,,,,,,,,,,,,,,,,,,,,,,,,,,,,,,,,,,,,,,,,,,,,,,,,,,,,,,,,,,,,,,,,,,,,,,,,,,,,,,,,,,,,,,,,,,,,,,,,,,,,,,,,,,,,,,,,,,,,,,,,,,,,,,,,,,,,
,,61063279931132ebf6b9f0cf,2024-02-22_24h28.43.870,kallum_motion_pilot,2023.2.2,Win32,144.9275362,61063279931132ebf6b9f0cf,65d6bb0e977760de756971f7,65d6bf15ee13f9561621bf81,0.0406,0.0406,0,141,141,137,1,fiveseven,,,,,,,,,,,,,,,,,,,,,,,,,,,,,,,,,,,,,,,,,,,,,,,,,,,,,,,,,,,,,,,,,,,,,,,,,,,,,,,,,,,,,,,,,,,,,,,,,,,,,,,,,,,,,,,,,,,,,,,,,,,,,,,,,,,,,,,,,
,,61063279931132ebf6b9f0cf,2024-02-22_24h28.43.870,kallum_motion_pilot,2023.2.2,Win32,144.9275362,61063279931132ebf6b9f0cf,65d6bb0e977760de756971f7,65d6bf15ee13f9561621bf81,0.0407,0.0407,0,142,142,141,1,seveneight,,,,,,,,,,,,,,,,,,,,,,,,,,,,,,,,,,,,,,,,,,,,,,,,,,,,,,,,,,,,,,,,,,,,,,,,,,,,,,,,,,,,,,,,,,,,,,,,,,,,,,,,,,,,,,,,,,,,,,,,,,,,,,,,,,,,,,,,,
,,61063279931132ebf6b9f0cf,2024-02-22_24h28.43.870,kallum_motion_pilot,2023.2.2,Win32,144.9275362,61063279931132ebf6b9f0cf,65d6bb0e977760de756971f7,65d6bf15ee13f9561621bf81,0.0408,0.0409,0,143,143,80,1,fivesix,,,,,,,,,,,,,,,,,,,,,,,,,,,,,,,,,,,,,,,,,,,,,,,,,,,,,,,,,,,,,,,,,,,,,,,,,,,,,,,,,,,,,,,,,,,,,,,,,,,,,,,,,,,,,,,,,,,,,,,,,,,,,,,,,,,,,,,,,
,,61063279931132ebf6b9f0cf,2024-02-22_24h28.43.870,kallum_motion_pilot,2023.2.2,Win32,144.9275362,61063279931132ebf6b9f0cf,65d6bb0e977760de756971f7,65d6bf15ee13f9561621bf81,0.041,0.041,0,144,144,49,1,onethree,,,,,,,,,,,,,,,,,,,,,,,,,,,,,,,,,,,,,,,,,,,,,,,,,,,,,,,,,,,,,,,,,,,,,,,,,,,,,,,,,,,,,,,,,,,,,,,,,,,,,,,,,,,,,,,,,,,,,,,,,,,,,,,,,,,,,,,,,
,,61063279931132ebf6b9f0cf,2024-02-22_24h28.43.870,kallum_motion_pilot,2023.2.2,Win32,144.9275362,61063279931132ebf6b9f0cf,65d6bb0e977760de756971f7,65d6bf15ee13f9561621bf81,0.0411,0.0411,0,145,145,129,1,fiveseven,,,,,,,,,,,,,,,,,,,,,,,,,,,,,,,,,,,,,,,,,,,,,,,,,,,,,,,,,,,,,,,,,,,,,,,,,,,,,,,,,,,,,,,,,,,,,,,,,,,,,,,,,,,,,,,,,,,,,,,,,,,,,,,,,,,,,,,,,
,,61063279931132ebf6b9f0cf,2024-02-22_24h28.43.870,kallum_motion_pilot,2023.2.2,Win32,144.9275362,61063279931132ebf6b9f0cf,65d6bb0e977760de756971f7,65d6bf15ee13f9561621bf81,0.0412,0.0412,0,146,146,46,1,fourtwo,,,,,,,,,,,,,,,,,,,,,,,,,,,,,,,,,,,,,,,,,,,,,,,,,,,,,,,,,,,,,,,,,,,,,,,,,,,,,,,,,,,,,,,,,,,,,,,,,,,,,,,,,,,,,,,,,,,,,,,,,,,,,,,,,,,,,,,,,
,,61063279931132ebf6b9f0cf,2024-02-22_24h28.43.870,kallum_motion_pilot,2023.2.2,Win32,144.9275362,61063279931132ebf6b9f0cf,65d6bb0e977760de756971f7,65d6bf15ee13f9561621bf81,0.0413,0.0413,0,147,147,19,1,twofour,,,,,,,,,,,,,,,,,,,,,,,,,,,,,,,,,,,,,,,,,,,,,,,,,,,,,,,,,,,,,,,,,,,,,,,,,,,,,,,,,,,,,,,,,,,,,,,,,,,,,,,,,,,,,,,,,,,,,,,,,,,,,,,,,,,,,,,,,
,,61063279931132ebf6b9f0cf,2024-02-22_24h28.43.870,kallum_motion_pilot,2023.2.2,Win32,144.9275362,61063279931132ebf6b9f0cf,65d6bb0e977760de756971f7,65d6bf15ee13f9561621bf81,0.0413,0.0414,0,148,148,103,1,eightseven,,,,,,,,,,,,,,,,,,,,,,,,,,,,,,,,,,,,,,,,,,,,,,,,,,,,,,,,,,,,,,,,,,,,,,,,,,,,,,,,,,,,,,,,,,,,,,,,,,,,,,,,,,,,,,,,,,,,,,,,,,,,,,,,,,,,,,,,,
,,61063279931132ebf6b9f0cf,2024-02-22_24h28.43.870,kallum_motion_pilot,2023.2.2,Win32,144.9275362,61063279931132ebf6b9f0cf,65d6bb0e977760de756971f7,65d6bf15ee13f9561621bf81,0.0415,0.0415,0,149,149,124,1,sevenfive,,,,,,,,,,,,,,,,,,,,,,,,,,,,,,,,,,,,,,,,,,,,,,,,,,,,,,,,,,,,,,,,,,,,,,,,,,,,,,,,,,,,,,,,,,,,,,,,,,,,,,,,,,,,,,,,,,,,,,,,,,,,,,,,,,,,,,,,,
,,61063279931132ebf6b9f0cf,2024-02-22_24h28.43.870,kallum_motion_pilot,2023.2.2,Win32,144.9275362,61063279931132ebf6b9f0cf,65d6bb0e977760de756971f7,65d6bf15ee13f9561621bf81,0.0416,0.0417,0,150,150,94,1,eightsix,,,,,,,,,,,,,,,,,,,,,,,,,,,,,,,,,,,,,,,,,,,,,,,,,,,,,,,,,,,,,,,,,,,,,,,,,,,,,,,,,,,,,,,,,,,,,,,,,,,,,,,,,,,,,,,,,,,,,,,,,,,,,,,,,,,,,,,,,
,,61063279931132ebf6b9f0cf,2024-02-22_24h28.43.870,kallum_motion_pilot,2023.2.2,Win32,144.9275362,61063279931132ebf6b9f0cf,65d6bb0e977760de756971f7,65d6bf15ee13f9561621bf81,0.0417,0.0417,0,151,151,146,1,sixfive,,,,,,,,,,,,,,,,,,,,,,,,,,,,,,,,,,,,,,,,,,,,,,,,,,,,,,,,,,,,,,,,,,,,,,,,,,,,,,,,,,,,,,,,,,,,,,,,,,,,,,,,,,,,,,,,,,,,,,,,,,,,,,,,,,,,,,,,,
,,61063279931132ebf6b9f0cf,2024-02-22_24h28.43.870,kallum_motion_pilot,2023.2.2,Win32,144.9275362,61063279931132ebf6b9f0cf,65d6bb0e977760de756971f7,65d6bf15ee13f9561621bf81,0.0418,0.0418,0,152,152,25,1,onethree,,,,,,,,,,,,,,,,,,,,,,,,,,,,,,,,,,,,,,,,,,,,,,,,,,,,,,,,,,,,,,,,,,,,,,,,,,,,,,,,,,,,,,,,,,,,,,,,,,,,,,,,,,,,,,,,,,,,,,,,,,,,,,,,,,,,,,,,,
,,61063279931132ebf6b9f0cf,2024-02-22_24h28.43.870,kallum_motion_pilot,2023.2.2,Win32,144.9275362,61063279931132ebf6b9f0cf,65d6bb0e977760de756971f7,65d6bf15ee13f9561621bf81,0.0419,0.0419,0,153,153,70,1,fourtwo,,,,,,,,,,,,,,,,,,,,,,,,,,,,,,,,,,,,,,,,,,,,,,,,,,,,,,,,,,,,,,,,,,,,,,,,,,,,,,,,,,,,,,,,,,,,,,,,,,,,,,,,,,,,,,,,,,,,,,,,,,,,,,,,,,,,,,,,,
,,61063279931132ebf6b9f0cf,2024-02-22_24h28.43.870,kallum_motion_pilot,2023.2.2,Win32,144.9275362,61063279931132ebf6b9f0cf,65d6bb0e977760de756971f7,65d6bf15ee13f9561621bf81,0.042,0.0421,0,154,154,118,1,eightsix,,,,,,,,,,,,,,,,,,,,,,,,,,,,,,,,,,,,,,,,,,,,,,,,,,,,,,,,,,,,,,,,,,,,,,,,,,,,,,,,,,,,,,,,,,,,,,,,,,,,,,,,,,,,,,,,,,,,,,,,,,,,,,,,,,,,,,,,,
,,61063279931132ebf6b9f0cf,2024-02-22_24h28.43.870,kallum_motion_pilot,2023.2.2,Win32,144.9275362,61063279931132ebf6b9f0cf,65d6bb0e977760de756971f7,65d6bf15ee13f9561621bf81,0.0421,0.0422,0,155,155,32,1,onetwo,,,,,,,,,,,,,,,,,,,,,,,,,,,,,,,,,,,,,,,,,,,,,,,,,,,,,,,,,,,,,,,,,,,,,,,,,,,,,,,,,,,,,,,,,,,,,,,,,,,,,,,,,,,,,,,,,,,,,,,,,,,,,,,,,,,,,,,,,
,,61063279931132ebf6b9f0cf,2024-02-22_24h28.43.870,kallum_motion_pilot,2023.2.2,Win32,144.9275362,61063279931132ebf6b9f0cf,65d6bb0e977760de756971f7,65d6bf15ee13f9561621bf81,0.0422,0.0423,0,156,156,138,1,sixfive,,,,,,,,,,,,,,,,,,,,,,,,,,,,,,,,,,,,,,,,,,,,,,,,,,,,,,,,,,,,,,,,,,,,,,,,,,,,,,,,,,,,,,,,,,,,,,,,,,,,,,,,,,,,,,,,,,,,,,,,,,,,,,,,,,,,,,,,,
,,61063279931132ebf6b9f0cf,2024-02-22_24h28.43.870,kallum_motion_pilot,2023.2.2,Win32,144.9275362,61063279931132ebf6b9f0cf,65d6bb0e977760de756971f7,65d6bf15ee13f9561621bf81,0.0424,0.0424,0,157,157,135,1,eightseven,,,,,,,,,,,,,,,,,,,,,,,,,,,,,,,,,,,,,,,,,,,,,,,,,,,,,,,,,,,,,,,,,,,,,,,,,,,,,,,,,,,,,,,,,,,,,,,,,,,,,,,,,,,,,,,,,,,,,,,,,,,,,,,,,,,,,,,,,
,,61063279931132ebf6b9f0cf,2024-02-22_24h28.43.870,kallum_motion_pilot,2023.2.2,Win32,144.9275362,61063279931132ebf6b9f0cf,65d6bb0e977760de756971f7,65d6bf15ee13f9561621bf81,0.0424,0.0424,0,158,158,37,1,threefour,,,,,,,,,,,,,,,,,,,,,,,,,,,,,,,,,,,,,,,,,,,,,,,,,,,,,,,,,,,,,,,,,,,,,,,,,,,,,,,,,,,,,,,,,,,,,,,,,,,,,,,,,,,,,,,,,,,,,,,,,,,,,,,,,,,,,,,,,
,,61063279931132ebf6b9f0cf,2024-02-22_24h28.43.870,kallum_motion_pilot,2023.2.2,Win32,144.9275362,61063279931132ebf6b9f0cf,65d6bb0e977760de756971f7,65d6bf15ee13f9561621bf81,0.0426,0.0427,0,159,159,99,1,sixeight,,,,,,,,,,,,,,,,,,,,,,,,,,,,,,,,,,,,,,,,,,,,,,,,,,,,,,,,,,,,,,,,,,,,,,,,,,,,,,,,,,,,,,,,,,,,,,,,,,,,,,,,,,,,,,,,,,,,,,,,,,,,,,,,,,,,,,,,,
,,61063279931132ebf6b9f0cf,2024-02-22_24h28.43.870,kallum_motion_pilot,2023.2.2,Win32,144.9275362,61063279931132ebf6b9f0cf,65d6bb0e977760de756971f7,65d6bf15ee13f9561621bf81,0.0427,0.0427,0,160,160,155,1,sixeight,,,,,,,,,,,,,,,,,,,,,,,,,,,,,,,,,,,,,,,,,,,,,,,,,,,,,,,,,,,,,,,,,,,,,,,,,,,,,,,,,,,,,,,,,,,,,,,,,,,,,,,,,,,,,,,,,,,,,,,,,,,,,,,,,,,,,,,,,
,,61063279931132ebf6b9f0cf,2024-02-22_24h28.43.870,kallum_motion_pilot,2023.2.2,Win32,144.9275362,61063279931132ebf6b9f0cf,65d6bb0e977760de756971f7,65d6bf15ee13f9561621bf81,0.0427,0.0428,0,161,161,102,1,eightsix,,,,,,,,,,,,,,,,,,,,,,,,,,,,,,,,,,,,,,,,,,,,,,,,,,,,,,,,,,,,,,,,,,,,,,,,,,,,,,,,,,,,,,,,,,,,,,,,,,,,,,,,,,,,,,,,,,,,,,,,,,,,,,,,,,,,,,,,,
,,61063279931132ebf6b9f0cf,2024-02-22_24h28.43.870,kallum_motion_pilot,2023.2.2,Win32,144.9275362,61063279931132ebf6b9f0cf,65d6bb0e977760de756971f7,65d6bf15ee13f9561621bf81,0.0429,0.043,1,0,162,115,1,sixeight,,,,,,,,,,,,,,,,,,,,,,,,,,,,,,,,,,,,,,,,,,,,,,,,,,,,,,,,,,,,,,,,,,,,,,,,,,,,,,,,,,,,,,,,,,,,,,,,,,,,,,,,,,,,,,,,,,,,,,,,,,,,,,,,,,,,,,,,,
,,61063279931132ebf6b9f0cf,2024-02-22_24h28.43.870,kallum_motion_pilot,2023.2.2,Win32,144.9275362,61063279931132ebf6b9f0cf,65d6bb0e977760de756971f7,65d6bf15ee13f9561621bf81,0.0431,0.0431,1,1,163,124,1,sevenfive,,,,,,,,,,,,,,,,,,,,,,,,,,,,,,,,,,,,,,,,,,,,,,,,,,,,,,,,,,,,,,,,,,,,,,,,,,,,,,,,,,,,,,,,,,,,,,,,,,,,,,,,,,,,,,,,,,,,,,,,,,,,,,,,,,,,,,,,,
,,61063279931132ebf6b9f0cf,2024-02-22_24h28.43.870,kallum_motion_pilot,2023.2.2,Win32,144.9275362,61063279931132ebf6b9f0cf,65d6bb0e977760de756971f7,65d6bf15ee13f9561621bf81,0.0431,0.0432,1,2,164,31,1,fourthree,,,,,,,,,,,,,,,,,,,,,,,,,,,,,,,,,,,,,,,,,,,,,,,,,,,,,,,,,,,,,,,,,,,,,,,,,,,,,,,,,,,,,,,,,,,,,,,,,,,,,,,,,,,,,,,,,,,,,,,,,,,,,,,,,,,,,,,,,
,,61063279931132ebf6b9f0cf,2024-02-22_24h28.43.870,kallum_motion_pilot,2023.2.2,Win32,144.9275362,61063279931132ebf6b9f0cf,65d6bb0e977760de756971f7,65d6bf15ee13f9561621bf81,0.0433,0.0433,1,3,165,88,1,fivesix,,,,,,,,,,,,,,,,,,,,,,,,,,,,,,,,,,,,,,,,,,,,,,,,,,,,,,,,,,,,,,,,,,,,,,,,,,,,,,,,,,,,,,,,,,,,,,,,,,,,,,,,,,,,,,,,,,,,,,,,,,,,,,,,,,,,,,,,,
,,61063279931132ebf6b9f0cf,2024-02-22_24h28.43.870,kallum_motion_pilot,2023.2.2,Win32,144.9275362,61063279931132ebf6b9f0cf,65d6bb0e977760de756971f7,65d6bf15ee13f9561621bf81,0.0433,0.0434,1,4,166,41,1,onethree,,,,,,,,,,,,,,,,,,,,,,,,,,,,,,,,,,,,,,,,,,,,,,,,,,,,,,,,,,,,,,,,,,,,,,,,,,,,,,,,,,,,,,,,,,,,,,,,,,,,,,,,,,,,,,,,,,,,,,,,,,,,,,,,,,,,,,,,,
,,61063279931132ebf6b9f0cf,2024-02-22_24h28.43.870,kallum_motion_pilot,2023.2.2,Win32,144.9275362,61063279931132ebf6b9f0cf,65d6bb0e977760de756971f7,65d6bf15ee13f9561621bf81,0.0434,0.0434,1,5,167,101,1,seveneight,,,,,,,,,,,,,,,,,,,,,,,,,,,,,,,,,,,,,,,,,,,,,,,,,,,,,,,,,,,,,,,,,,,,,,,,,,,,,,,,,,,,,,,,,,,,,,,,,,,,,,,,,,,,,,,,,,,,,,,,,,,,,,,,,,,,,,,,,
,,61063279931132ebf6b9f0cf,2024-02-22_24h28.43.870,kallum_motion_pilot,2023.2.2,Win32,144.9275362,61063279931132ebf6b9f0cf,65d6bb0e977760de756971f7,65d6bf15ee13f9561621bf81,0.0435,0.0435,1,6,168,142,1,eightsix,,,,,,,,,,,,,,,,,,,,,,,,,,,,,,,,,,,,,,,,,,,,,,,,,,,,,,,,,,,,,,,,,,,,,,,,,,,,,,,,,,,,,,,,,,,,,,,,,,,,,,,,,,,,,,,,,,,,,,,,,,,,,,,,,,,,,,,,,
,,61063279931132ebf6b9f0cf,2024-02-22_24h28.43.870,kallum_motion_pilot,2023.2.2,Win32,144.9275362,61063279931132ebf6b9f0cf,65d6bb0e977760de756971f7,65d6bf15ee13f9561621bf81,0.0435,0.0436,1,7,169,133,1,seveneight,,,,,,,,,,,,,,,,,,,,,,,,,,,,,,,,,,,,,,,,,,,,,,,,,,,,,,,,,,,,,,,,,,,,,,,,,,,,,,,,,,,,,,,,,,,,,,,,,,,,,,,,,,,,,,,,,,,,,,,,,,,,,,,,,,,,,,,,,
,,61063279931132ebf6b9f0cf,2024-02-22_24h28.43.870,kallum_motion_pilot,2023.2.2,Win32,144.9275362,61063279931132ebf6b9f0cf,65d6bb0e977760de756971f7,65d6bf15ee13f9561621bf81,0.0437,0.0437,1,8,170,149,1,seveneight,,,,,,,,,,,,,,,,,,,,,,,,,,,,,,,,,,,,,,,,,,,,,,,,,,,,,,,,,,,,,,,,,,,,,,,,,,,,,,,,,,,,,,,,,,,,,,,,,,,,,,,,,,,,,,,,,,,,,,,,,,,,,,,,,,,,,,,,,
,,61063279931132ebf6b9f0cf,2024-02-22_24h28.43.870,kallum_motion_pilot,2023.2.2,Win32,144.9275362,61063279931132ebf6b9f0cf,65d6bb0e977760de756971f7,65d6bf15ee13f9561621bf81,0.0438,0.0438,1,9,171,12,1,threeone,,,,,,,,,,,,,,,,,,,,,,,,,,,,,,,,,,,,,,,,,,,,,,,,,,,,,,,,,,,,,,,,,,,,,,,,,,,,,,,,,,,,,,,,,,,,,,,,,,,,,,,,,,,,,,,,,,,,,,,,,,,,,,,,,,,,,,,,,
,,61063279931132ebf6b9f0cf,2024-02-22_24h28.43.870,kallum_motion_pilot,2023.2.2,Win32,144.9275362,61063279931132ebf6b9f0cf,65d6bb0e977760de756971f7,65d6bf15ee13f9561621bf81,0.0438,0.0439,1,10,172,73,1,onethree,,,,,,,,,,,,,,,,,,,,,,,,,,,,,,,,,,,,,,,,,,,,,,,,,,,,,,,,,,,,,,,,,,,,,,,,,,,,,,,,,,,,,,,,,,,,,,,,,,,,,,,,,,,,,,,,,,,,,,,,,,,,,,,,,,,,,,,,,
,,61063279931132ebf6b9f0cf,2024-02-22_24h28.43.870,kallum_motion_pilot,2023.2.2,Win32,144.9275362,61063279931132ebf6b9f0cf,65d6bb0e977760de756971f7,65d6bf15ee13f9561621bf81,0.044,0.044,1,11,173,79,1,eightseven,,,,,,,,,,,,,,,,,,,,,,,,,,,,,,,,,,,,,,,,,,,,,,,,,,,,,,,,,,,,,,,,,,,,,,,,,,,,,,,,,,,,,,,,,,,,,,,,,,,,,,,,,,,,,,,,,,,,,,,,,,,,,,,,,,,,,,,,,
,,61063279931132ebf6b9f0cf,2024-02-22_24h28.43.870,kallum_motion_pilot,2023.2.2,Win32,144.9275362,61063279931132ebf6b9f0cf,65d6bb0e977760de756971f7,65d6bf15ee13f9561621bf81,0.0441,0.0441,1,12,174,97,1,fiveseven,,,,,,,,,,,,,,,,,,,,,,,,,,,,,,,,,,,,,,,,,,,,,,,,,,,,,,,,,,,,,,,,,,,,,,,,,,,,,,,,,,,,,,,,,,,,,,,,,,,,,,,,,,,,,,,,,,,,,,,,,,,,,,,,,,,,,,,,,
,,61063279931132ebf6b9f0cf,2024-02-22_24h28.43.870,kallum_motion_pilot,2023.2.2,Win32,144.9275362,61063279931132ebf6b9f0cf,65d6bb0e977760de756971f7,65d6bf15ee13f9561621bf81,0.0442,0.0444,1,13,175,123,1,sixeight,,,,,,,,,,,,,,,,,,,,,,,,,,,,,,,,,,,,,,,,,,,,,,,,,,,,,,,,,,,,,,,,,,,,,,,,,,,,,,,,,,,,,,,,,,,,,,,,,,,,,,,,,,,,,,,,,,,,,,,,,,,,,,,,,,,,,,,,,
,,61063279931132ebf6b9f0cf,2024-02-22_24h28.43.870,kallum_motion_pilot,2023.2.2,Win32,144.9275362,61063279931132ebf6b9f0cf,65d6bb0e977760de756971f7,65d6bf15ee13f9561621bf81,0.0445,0.0447,1,14,176,160,1,fivesix,,,,,,,,,,,,,,,,,,,,,,,,,,,,,,,,,,,,,,,,,,,,,,,,,,,,,,,,,,,,,,,,,,,,,,,,,,,,,,,,,,,,,,,,,,,,,,,,,,,,,,,,,,,,,,,,,,,,,,,,,,,,,,,,,,,,,,,,,
,,61063279931132ebf6b9f0cf,2024-02-22_24h28.43.870,kallum_motion_pilot,2023.2.2,Win32,144.9275362,61063279931132ebf6b9f0cf,65d6bb0e977760de756971f7,65d6bf15ee13f9561621bf81,0.0448,0.0448,1,15,177,94,1,eightsix,,,,,,,,,,,,,,,,,,,,,,,,,,,,,,,,,,,,,,,,,,,,,,,,,,,,,,,,,,,,,,,,,,,,,,,,,,,,,,,,,,,,,,,,,,,,,,,,,,,,,,,,,,,,,,,,,,,,,,,,,,,,,,,,,,,,,,,,,
,,61063279931132ebf6b9f0cf,2024-02-22_24h28.43.870,kallum_motion_pilot,2023.2.2,Win32,144.9275362,61063279931132ebf6b9f0cf,65d6bb0e977760de756971f7,65d6bf15ee13f9561621bf81,0.045,0.0451,1,16,178,21,1,threefour,,,,,,,,,,,,,,,,,,,,,,,,,,,,,,,,,,,,,,,,,,,,,,,,,,,,,,,,,,,,,,,,,,,,,,,,,,,,,,,,,,,,,,,,,,,,,,,,,,,,,,,,,,,,,,,,,,,,,,,,,,,,,,,,,,,,,,,,,
,,61063279931132ebf6b9f0cf,2024-02-22_24h28.43.870,kallum_motion_pilot,2023.2.2,Win32,144.9275362,61063279931132ebf6b9f0cf,65d6bb0e977760de756971f7,65d6bf15ee13f9561621bf81,0.0451,0.0452,1,17,179,103,1,eightseven,,,,,,,,,,,,,,,,,,,,,,,,,,,,,,,,,,,,,,,,,,,,,,,,,,,,,,,,,,,,,,,,,,,,,,,,,,,,,,,,,,,,,,,,,,,,,,,,,,,,,,,,,,,,,,,,,,,,,,,,,,,,,,,,,,,,,,,,,
,,61063279931132ebf6b9f0cf,2024-02-22_24h28.43.870,kallum_motion_pilot,2023.2.2,Win32,144.9275362,61063279931132ebf6b9f0cf,65d6bb0e977760de756971f7,65d6bf15ee13f9561621bf81,0.0452,0.0453,1,18,180,28,1,threeone,,,,,,,,,,,,,,,,,,,,,,,,,,,,,,,,,,,,,,,,,,,,,,,,,,,,,,,,,,,,,,,,,,,,,,,,,,,,,,,,,,,,,,,,,,,,,,,,,,,,,,,,,,,,,,,,,,,,,,,,,,,,,,,,,,,,,,,,,
,,61063279931132ebf6b9f0cf,2024-02-22_24h28.43.870,kallum_motion_pilot,2023.2.2,Win32,144.9275362,61063279931132ebf6b9f0cf,65d6bb0e977760de756971f7,65d6bf15ee13f9561621bf81,0.0453,0.0454,1,19,181,107,1,sixeight,,,,,,,,,,,,,,,,,,,,,,,,,,,,,,,,,,,,,,,,,,,,,,,,,,,,,,,,,,,,,,,,,,,,,,,,,,,,,,,,,,,,,,,,,,,,,,,,,,,,,,,,,,,,,,,,,,,,,,,,,,,,,,,,,,,,,,,,,
,,61063279931132ebf6b9f0cf,2024-02-22_24h28.43.870,kallum_motion_pilot,2023.2.2,Win32,144.9275362,61063279931132ebf6b9f0cf,65d6bb0e977760de756971f7,65d6bf15ee13f9561621bf81,0.0454,0.0455,1,20,182,127,1,eightseven,,,,,,,,,,,,,,,,,,,,,,,,,,,,,,,,,,,,,,,,,,,,,,,,,,,,,,,,,,,,,,,,,,,,,,,,,,,,,,,,,,,,,,,,,,,,,,,,,,,,,,,,,,,,,,,,,,,,,,,,,,,,,,,,,,,,,,,,,
,,61063279931132ebf6b9f0cf,2024-02-22_24h28.43.870,kallum_motion_pilot,2023.2.2,Win32,144.9275362,61063279931132ebf6b9f0cf,65d6bb0e977760de756971f7,65d6bf15ee13f9561621bf81,0.0456,0.0457,1,21,183,15,1,fourthree,,,,,,,,,,,,,,,,,,,,,,,,,,,,,,,,,,,,,,,,,,,,,,,,,,,,,,,,,,,,,,,,,,,,,,,,,,,,,,,,,,,,,,,,,,,,,,,,,,,,,,,,,,,,,,,,,,,,,,,,,,,,,,,,,,,,,,,,,
,,61063279931132ebf6b9f0cf,2024-02-22_24h28.43.870,kallum_motion_pilot,2023.2.2,Win32,144.9275362,61063279931132ebf6b9f0cf,65d6bb0e977760de756971f7,65d6bf15ee13f9561621bf81,0.0458,0.0459,1,22,184,43,1,twofour,,,,,,,,,,,,,,,,,,,,,,,,,,,,,,,,,,,,,,,,,,,,,,,,,,,,,,,,,,,,,,,,,,,,,,,,,,,,,,,,,,,,,,,,,,,,,,,,,,,,,,,,,,,,,,,,,,,,,,,,,,,,,,,,,,,,,,,,,
,,61063279931132ebf6b9f0cf,2024-02-22_24h28.43.870,kallum_motion_pilot,2023.2.2,Win32,144.9275362,61063279931132ebf6b9f0cf,65d6bb0e977760de756971f7,65d6bf15ee13f9561621bf81,0.0459,0.0459,1,23,185,126,1,eightsix,,,,,,,,,,,,,,,,,,,,,,,,,,,,,,,,,,,,,,,,,,,,,,,,,,,,,,,,,,,,,,,,,,,,,,,,,,,,,,,,,,,,,,,,,,,,,,,,,,,,,,,,,,,,,,,,,,,,,,,,,,,,,,,,,,,,,,,,,
,,61063279931132ebf6b9f0cf,2024-02-22_24h28.43.870,kallum_motion_pilot,2023.2.2,Win32,144.9275362,61063279931132ebf6b9f0cf,65d6bb0e977760de756971f7,65d6bf15ee13f9561621bf81,0.0461,0.0461,1,24,186,84,1,sevenfive,,,,,,,,,,,,,,,,,,,,,,,,,,,,,,,,,,,,,,,,,,,,,,,,,,,,,,,,,,,,,,,,,,,,,,,,,,,,,,,,,,,,,,,,,,,,,,,,,,,,,,,,,,,,,,,,,,,,,,,,,,,,,,,,,,,,,,,,,
,,61063279931132ebf6b9f0cf,2024-02-22_24h28.43.870,kallum_motion_pilot,2023.2.2,Win32,144.9275362,61063279931132ebf6b9f0cf,65d6bb0e977760de756971f7,65d6bf15ee13f9561621bf81,0.0462,0.0462,1,25,187,36,1,threeone,,,,,,,,,,,,,,,,,,,,,,,,,,,,,,,,,,,,,,,,,,,,,,,,,,,,,,,,,,,,,,,,,,,,,,,,,,,,,,,,,,,,,,,,,,,,,,,,,,,,,,,,,,,,,,,,,,,,,,,,,,,,,,,,,,,,,,,,,
,,61063279931132ebf6b9f0cf,2024-02-22_24h28.43.870,kallum_motion_pilot,2023.2.2,Win32,144.9275362,61063279931132ebf6b9f0cf,65d6bb0e977760de756971f7,65d6bf15ee13f9561621bf81,0.0463,0.0463,1,26,188,26,1,twoone,,,,,,,,,,,,,,,,,,,,,,,,,,,,,,,,,,,,,,,,,,,,,,,,,,,,,,,,,,,,,,,,,,,,,,,,,,,,,,,,,,,,,,,,,,,,,,,,,,,,,,,,,,,,,,,,,,,,,,,,,,,,,,,,,,,,,,,,,
,,61063279931132ebf6b9f0cf,2024-02-22_24h28.43.870,kallum_motion_pilot,2023.2.2,Win32,144.9275362,61063279931132ebf6b9f0cf,65d6bb0e977760de756971f7,65d6bf15ee13f9561621bf81,0.0464,0.0465,1,27,189,8,1,onetwo,,,,,,,,,,,,,,,,,,,,,,,,,,,,,,,,,,,,,,,,,,,,,,,,,,,,,,,,,,,,,,,,,,,,,,,,,,,,,,,,,,,,,,,,,,,,,,,,,,,,,,,,,,,,,,,,,,,,,,,,,,,,,,,,,,,,,,,,,
,,61063279931132ebf6b9f0cf,2024-02-22_24h28.43.870,kallum_motion_pilot,2023.2.2,Win32,144.9275362,61063279931132ebf6b9f0cf,65d6bb0e977760de756971f7,65d6bf15ee13f9561621bf81,0.0465,0.0466,1,28,190,119,1,eightseven,,,,,,,,,,,,,,,,,,,,,,,,,,,,,,,,,,,,,,,,,,,,,,,,,,,,,,,,,,,,,,,,,,,,,,,,,,,,,,,,,,,,,,,,,,,,,,,,,,,,,,,,,,,,,,,,,,,,,,,,,,,,,,,,,,,,,,,,,
,,61063279931132ebf6b9f0cf,2024-02-22_24h28.43.870,kallum_motion_pilot,2023.2.2,Win32,144.9275362,61063279931132ebf6b9f0cf,65d6bb0e977760de756971f7,65d6bf15ee13f9561621bf81,0.0466,0.0467,1,29,191,114,1,sixfive,,,,,,,,,,,,,,,,,,,,,,,,,,,,,,,,,,,,,,,,,,,,,,,,,,,,,,,,,,,,,,,,,,,,,,,,,,,,,,,,,,,,,,,,,,,,,,,,,,,,,,,,,,,,,,,,,,,,,,,,,,,,,,,,,,,,,,,,,
,,61063279931132ebf6b9f0cf,2024-02-22_24h28.43.870,kallum_motion_pilot,2023.2.2,Win32,144.9275362,61063279931132ebf6b9f0cf,65d6bb0e977760de756971f7,65d6bf15ee13f9561621bf81,0.0467,0.0467,1,30,192,38,1,fourtwo,,,,,,,,,,,,,,,,,,,,,,,,,,,,,,,,,,,,,,,,,,,,,,,,,,,,,,,,,,,,,,,,,,,,,,,,,,,,,,,,,,,,,,,,,,,,,,,,,,,,,,,,,,,,,,,,,,,,,,,,,,,,,,,,,,,,,,,,,
,,61063279931132ebf6b9f0cf,2024-02-22_24h28.43.870,kallum_motion_pilot,2023.2.2,Win32,144.9275362,61063279931132ebf6b9f0cf,65d6bb0e977760de756971f7,65d6bf15ee13f9561621bf81,0.0468,0.0468,1,31,193,109,1,seveneight,,,,,,,,,,,,,,,,,,,,,,,,,,,,,,,,,,,,,,,,,,,,,,,,,,,,,,,,,,,,,,,,,,,,,,,,,,,,,,,,,,,,,,,,,,,,,,,,,,,,,,,,,,,,,,,,,,,,,,,,,,,,,,,,,,,,,,,,,
,,61063279931132ebf6b9f0cf,2024-02-22_24h28.43.870,kallum_motion_pilot,2023.2.2,Win32,144.9275362,61063279931132ebf6b9f0cf,65d6bb0e977760de756971f7,65d6bf15ee13f9561621bf81,0.0469,0.0469,1,32,194,134,1,eightsix,,,,,,,,,,,,,,,,,,,,,,,,,,,,,,,,,,,,,,,,,,,,,,,,,,,,,,,,,,,,,,,,,,,,,,,,,,,,,,,,,,,,,,,,,,,,,,,,,,,,,,,,,,,,,,,,,,,,,,,,,,,,,,,,,,,,,,,,,
,,61063279931132ebf6b9f0cf,2024-02-22_24h28.43.870,kallum_motion_pilot,2023.2.2,Win32,144.9275362,61063279931132ebf6b9f0cf,65d6bb0e977760de756971f7,65d6bf15ee13f9561621bf81,0.047,0.0472,1,33,195,64,1,onetwo,,,,,,,,,,,,,,,,,,,,,,,,,,,,,,,,,,,,,,,,,,,,,,,,,,,,,,,,,,,,,,,,,,,,,,,,,,,,,,,,,,,,,,,,,,,,,,,,,,,,,,,,,,,,,,,,,,,,,,,,,,,,,,,,,,,,,,,,,
,,61063279931132ebf6b9f0cf,2024-02-22_24h28.43.870,kallum_motion_pilot,2023.2.2,Win32,144.9275362,61063279931132ebf6b9f0cf,65d6bb0e977760de756971f7,65d6bf15ee13f9561621bf81,0.0472,0.0473,1,34,196,71,1,fourthree,,,,,,,,,,,,,,,,,,,,,,,,,,,,,,,,,,,,,,,,,,,,,,,,,,,,,,,,,,,,,,,,,,,,,,,,,,,,,,,,,,,,,,,,,,,,,,,,,,,,,,,,,,,,,,,,,,,,,,,,,,,,,,,,,,,,,,,,,
,,61063279931132ebf6b9f0cf,2024-02-22_24h28.43.870,kallum_motion_pilot,2023.2.2,Win32,144.9275362,61063279931132ebf6b9f0cf,65d6bb0e977760de756971f7,65d6bf15ee13f9561621bf81,0.0474,0.0475,1,35,197,140,1,sevenfive,,,,,,,,,,,,,,,,,,,,,,,,,,,,,,,,,,,,,,,,,,,,,,,,,,,,,,,,,,,,,,,,,,,,,,,,,,,,,,,,,,,,,,,,,,,,,,,,,,,,,,,,,,,,,,,,,,,,,,,,,,,,,,,,,,,,,,,,,
,,61063279931132ebf6b9f0cf,2024-02-22_24h28.43.870,kallum_motion_pilot,2023.2.2,Win32,144.9275362,61063279931132ebf6b9f0cf,65d6bb0e977760de756971f7,65d6bf15ee13f9561621bf81,0.0475,0.0476,1,36,198,105,1,fiveseven,,,,,,,,,,,,,,,,,,,,,,,,,,,,,,,,,,,,,,,,,,,,,,,,,,,,,,,,,,,,,,,,,,,,,,,,,,,,,,,,,,,,,,,,,,,,,,,,,,,,,,,,,,,,,,,,,,,,,,,,,,,,,,,,,,,,,,,,,
,,61063279931132ebf6b9f0cf,2024-02-22_24h28.43.870,kallum_motion_pilot,2023.2.2,Win32,144.9275362,61063279931132ebf6b9f0cf,65d6bb0e977760de756971f7,65d6bf15ee13f9561621bf81,0.0477,0.0477,1,37,199,30,1,fourtwo,,,,,,,,,,,,,,,,,,,,,,,,,,,,,,,,,,,,,,,,,,,,,,,,,,,,,,,,,,,,,,,,,,,,,,,,,,,,,,,,,,,,,,,,,,,,,,,,,,,,,,,,,,,,,,,,,,,,,,,,,,,,,,,,,,,,,,,,,
,,61063279931132ebf6b9f0cf,2024-02-22_24h28.43.870,kallum_motion_pilot,2023.2.2,Win32,144.9275362,61063279931132ebf6b9f0cf,65d6bb0e977760de756971f7,65d6bf15ee13f9561621bf81,0.0477,0.0479,1,38,200,66,1,twoone,,,,,,,,,,,,,,,,,,,,,,,,,,,,,,,,,,,,,,,,,,,,,,,,,,,,,,,,,,,,,,,,,,,,,,,,,,,,,,,,,,,,,,,,,,,,,,,,,,,,,,,,,,,,,,,,,,,,,,,,,,,,,,,,,,,,,,,,,
,,61063279931132ebf6b9f0cf,2024-02-22_24h28.43.870,kallum_motion_pilot,2023.2.2,Win32,144.9275362,61063279931132ebf6b9f0cf,65d6bb0e977760de756971f7,65d6bf15ee13f9561621bf81,0.0479,0.048,1,39,201,76,1,threeone,,,,,,,,,,,,,,,,,,,,,,,,,,,,,,,,,,,,,,,,,,,,,,,,,,,,,,,,,,,,,,,,,,,,,,,,,,,,,,,,,,,,,,,,,,,,,,,,,,,,,,,,,,,,,,,,,,,,,,,,,,,,,,,,,,,,,,,,,
,,61063279931132ebf6b9f0cf,2024-02-22_24h28.43.870,kallum_motion_pilot,2023.2.2,Win32,144.9275362,61063279931132ebf6b9f0cf,65d6bb0e977760de756971f7,65d6bf15ee13f9561621bf81,0.048,0.0481,1,40,202,159,1,eightseven,,,,,,,,,,,,,,,,,,,,,,,,,,,,,,,,,,,,,,,,,,,,,,,,,,,,,,,,,,,,,,,,,,,,,,,,,,,,,,,,,,,,,,,,,,,,,,,,,,,,,,,,,,,,,,,,,,,,,,,,,,,,,,,,,,,,,,,,,
,,61063279931132ebf6b9f0cf,2024-02-22_24h28.43.870,kallum_motion_pilot,2023.2.2,Win32,144.9275362,61063279931132ebf6b9f0cf,65d6bb0e977760de756971f7,65d6bf15ee13f9561621bf81,0.0481,0.0482,1,41,203,40,1,onetwo,,,,,,,,,,,,,,,,,,,,,,,,,,,,,,,,,,,,,,,,,,,,,,,,,,,,,,,,,,,,,,,,,,,,,,,,,,,,,,,,,,,,,,,,,,,,,,,,,,,,,,,,,,,,,,,,,,,,,,,,,,,,,,,,,,,,,,,,,
,,61063279931132ebf6b9f0cf,2024-02-22_24h28.43.870,kallum_motion_pilot,2023.2.2,Win32,144.9275362,61063279931132ebf6b9f0cf,65d6bb0e977760de756971f7,65d6bf15ee13f9561621bf81,0.0482,0.0483,1,42,204,3,1,twofour,,,,,,,,,,,,,,,,,,,,,,,,,,,,,,,,,,,,,,,,,,,,,,,,,,,,,,,,,,,,,,,,,,,,,,,,,,,,,,,,,,,,,,,,,,,,,,,,,,,,,,,,,,,,,,,,,,,,,,,,,,,,,,,,,,,,,,,,,
,,61063279931132ebf6b9f0cf,2024-02-22_24h28.43.870,kallum_motion_pilot,2023.2.2,Win32,144.9275362,61063279931132ebf6b9f0cf,65d6bb0e977760de756971f7,65d6bf15ee13f9561621bf81,0.0484,0.0484,1,43,205,53,1,threefour,,,,,,,,,,,,,,,,,,,,,,,,,,,,,,,,,,,,,,,,,,,,,,,,,,,,,,,,,,,,,,,,,,,,,,,,,,,,,,,,,,,,,,,,,,,,,,,,,,,,,,,,,,,,,,,,,,,,,,,,,,,,,,,,,,,,,,,,,
,,61063279931132ebf6b9f0cf,2024-02-22_24h28.43.870,kallum_motion_pilot,2023.2.2,Win32,144.9275362,61063279931132ebf6b9f0cf,65d6bb0e977760de756971f7,65d6bf15ee13f9561621bf81,0.0484,0.0485,1,44,206,135,1,eightseven,,,,,,,,,,,,,,,,,,,,,,,,,,,,,,,,,,,,,,,,,,,,,,,,,,,,,,,,,,,,,,,,,,,,,,,,,,,,,,,,,,,,,,,,,,,,,,,,,,,,,,,,,,,,,,,,,,,,,,,,,,,,,,,,,,,,,,,,,
,,61063279931132ebf6b9f0cf,2024-02-22_24h28.43.870,kallum_motion_pilot,2023.2.2,Win32,144.9275362,61063279931132ebf6b9f0cf,65d6bb0e977760de756971f7,65d6bf15ee13f9561621bf81,0.0486,0.0486,1,45,207,34,1,twoone,,,,,,,,,,,,,,,,,,,,,,,,,,,,,,,,,,,,,,,,,,,,,,,,,,,,,,,,,,,,,,,,,,,,,,,,,,,,,,,,,,,,,,,,,,,,,,,,,,,,,,,,,,,,,,,,,,,,,,,,,,,,,,,,,,,,,,,,,
,,61063279931132ebf6b9f0cf,2024-02-22_24h28.43.870,kallum_motion_pilot,2023.2.2,Win32,144.9275362,61063279931132ebf6b9f0cf,65d6bb0e977760de756971f7,65d6bf15ee13f9561621bf81,0.0487,0.0487,1,46,208,17,1,onethree,,,,,,,,,,,,,,,,,,,,,,,,,,,,,,,,,,,,,,,,,,,,,,,,,,,,,,,,,,,,,,,,,,,,,,,,,,,,,,,,,,,,,,,,,,,,,,,,,,,,,,,,,,,,,,,,,,,,,,,,,,,,,,,,,,,,,,,,,
,,61063279931132ebf6b9f0cf,2024-02-22_24h28.43.870,kallum_motion_pilot,2023.2.2,Win32,144.9275362,61063279931132ebf6b9f0cf,65d6bb0e977760de756971f7,65d6bf15ee13f9561621bf81,0.0488,0.0489,1,47,209,145,1,fiveseven,,,,,,,,,,,,,,,,,,,,,,,,,,,,,,,,,,,,,,,,,,,,,,,,,,,,,,,,,,,,,,,,,,,,,,,,,,,,,,,,,,,,,,,,,,,,,,,,,,,,,,,,,,,,,,,,,,,,,,,,,,,,,,,,,,,,,,,,,
,,61063279931132ebf6b9f0cf,2024-02-22_24h28.43.870,kallum_motion_pilot,2023.2.2,Win32,144.9275362,61063279931132ebf6b9f0cf,65d6bb0e977760de756971f7,65d6bf15ee13f9561621bf81,0.0489,0.0489,1,48,210,56,1,onetwo,,,,,,,,,,,,,,,,,,,,,,,,,,,,,,,,,,,,,,,,,,,,,,,,,,,,,,,,,,,,,,,,,,,,,,,,,,,,,,,,,,,,,,,,,,,,,,,,,,,,,,,,,,,,,,,,,,,,,,,,,,,,,,,,,,,,,,,,,
,,61063279931132ebf6b9f0cf,2024-02-22_24h28.43.870,kallum_motion_pilot,2023.2.2,Win32,144.9275362,61063279931132ebf6b9f0cf,65d6bb0e977760de756971f7,65d6bf15ee13f9561621bf81,0.0489,0.049,1,49,211,63,1,fourthree,,,,,,,,,,,,,,,,,,,,,,,,,,,,,,,,,,,,,,,,,,,,,,,,,,,,,,,,,,,,,,,,,,,,,,,,,,,,,,,,,,,,,,,,,,,,,,,,,,,,,,,,,,,,,,,,,,,,,,,,,,,,,,,,,,,,,,,,,
,,61063279931132ebf6b9f0cf,2024-02-22_24h28.43.870,kallum_motion_pilot,2023.2.2,Win32,144.9275362,61063279931132ebf6b9f0cf,65d6bb0e977760de756971f7,65d6bf15ee13f9561621bf81,0.0491,0.0491,1,50,212,14,1,fourtwo,,,,,,,,,,,,,,,,,,,,,,,,,,,,,,,,,,,,,,,,,,,,,,,,,,,,,,,,,,,,,,,,,,,,,,,,,,,,,,,,,,,,,,,,,,,,,,,,,,,,,,,,,,,,,,,,,,,,,,,,,,,,,,,,,,,,,,,,,
,,61063279931132ebf6b9f0cf,2024-02-22_24h28.43.870,kallum_motion_pilot,2023.2.2,Win32,144.9275362,61063279931132ebf6b9f0cf,65d6bb0e977760de756971f7,65d6bf15ee13f9561621bf81,0.0492,0.0492,1,51,213,39,1,fourthree,,,,,,,,,,,,,,,,,,,,,,,,,,,,,,,,,,,,,,,,,,,,,,,,,,,,,,,,,,,,,,,,,,,,,,,,,,,,,,,,,,,,,,,,,,,,,,,,,,,,,,,,,,,,,,,,,,,,,,,,,,,,,,,,,,,,,,,,,
,,61063279931132ebf6b9f0cf,2024-02-22_24h28.43.870,kallum_motion_pilot,2023.2.2,Win32,144.9275362,61063279931132ebf6b9f0cf,65d6bb0e977760de756971f7,65d6bf15ee13f9561621bf81,0.0492,0.0493,1,52,214,55,1,fourthree,,,,,,,,,,,,,,,,,,,,,,,,,,,,,,,,,,,,,,,,,,,,,,,,,,,,,,,,,,,,,,,,,,,,,,,,,,,,,,,,,,,,,,,,,,,,,,,,,,,,,,,,,,,,,,,,,,,,,,,,,,,,,,,,,,,,,,,,,
,,61063279931132ebf6b9f0cf,2024-02-22_24h28.43.870,kallum_motion_pilot,2023.2.2,Win32,144.9275362,61063279931132ebf6b9f0cf,65d6bb0e977760de756971f7,65d6bf15ee13f9561621bf81,0.0494,0.0494,1,53,215,78,1,fourtwo,,,,,,,,,,,,,,,,,,,,,,,,,,,,,,,,,,,,,,,,,,,,,,,,,,,,,,,,,,,,,,,,,,,,,,,,,,,,,,,,,,,,,,,,,,,,,,,,,,,,,,,,,,,,,,,,,,,,,,,,,,,,,,,,,,,,,,,,,
,,61063279931132ebf6b9f0cf,2024-02-22_24h28.43.870,kallum_motion_pilot,2023.2.2,Win32,144.9275362,61063279931132ebf6b9f0cf,65d6bb0e977760de756971f7,65d6bf15ee13f9561621bf81,0.0495,0.0495,1,54,216,47,1,fourthree,,,,,,,,,,,,,,,,,,,,,,,,,,,,,,,,,,,,,,,,,,,,,,,,,,,,,,,,,,,,,,,,,,,,,,,,,,,,,,,,,,,,,,,,,,,,,,,,,,,,,,,,,,,,,,,,,,,,,,,,,,,,,,,,,,,,,,,,,
,,61063279931132ebf6b9f0cf,2024-02-22_24h28.43.870,kallum_motion_pilot,2023.2.2,Win32,144.9275362,61063279931132ebf6b9f0cf,65d6bb0e977760de756971f7,65d6bf15ee13f9561621bf81,0.0495,0.0496,1,55,217,148,1,sevenfive,,,,,,,,,,,,,,,,,,,,,,,,,,,,,,,,,,,,,,,,,,,,,,,,,,,,,,,,,,,,,,,,,,,,,,,,,,,,,,,,,,,,,,,,,,,,,,,,,,,,,,,,,,,,,,,,,,,,,,,,,,,,,,,,,,,,,,,,,
,,61063279931132ebf6b9f0cf,2024-02-22_24h28.43.870,kallum_motion_pilot,2023.2.2,Win32,144.9275362,61063279931132ebf6b9f0cf,65d6bb0e977760de756971f7,65d6bf15ee13f9561621bf81,0.0497,0.0498,1,56,218,156,1,sevenfive,,,,,,,,,,,,,,,,,,,,,,,,,,,,,,,,,,,,,,,,,,,,,,,,,,,,,,,,,,,,,,,,,,,,,,,,,,,,,,,,,,,,,,,,,,,,,,,,,,,,,,,,,,,,,,,,,,,,,,,,,,,,,,,,,,,,,,,,,
,,61063279931132ebf6b9f0cf,2024-02-22_24h28.43.870,kallum_motion_pilot,2023.2.2,Win32,144.9275362,61063279931132ebf6b9f0cf,65d6bb0e977760de756971f7,65d6bf15ee13f9561621bf81,0.0499,0.0499,1,57,219,52,1,threeone,,,,,,,,,,,,,,,,,,,,,,,,,,,,,,,,,,,,,,,,,,,,,,,,,,,,,,,,,,,,,,,,,,,,,,,,,,,,,,,,,,,,,,,,,,,,,,,,,,,,,,,,,,,,,,,,,,,,,,,,,,,,,,,,,,,,,,,,,
,,61063279931132ebf6b9f0cf,2024-02-22_24h28.43.870,kallum_motion_pilot,2023.2.2,Win32,144.9275362,61063279931132ebf6b9f0cf,65d6bb0e977760de756971f7,65d6bf15ee13f9561621bf81,0.0499,0.05,1,58,220,20,1,threeone,,,,,,,,,,,,,,,,,,,,,,,,,,,,,,,,,,,,,,,,,,,,,,,,,,,,,,,,,,,,,,,,,,,,,,,,,,,,,,,,,,,,,,,,,,,,,,,,,,,,,,,,,,,,,,,,,,,,,,,,,,,,,,,,,,,,,,,,,
,,61063279931132ebf6b9f0cf,2024-02-22_24h28.43.870,kallum_motion_pilot,2023.2.2,Win32,144.9275362,61063279931132ebf6b9f0cf,65d6bb0e977760de756971f7,65d6bf15ee13f9561621bf81,0.0501,0.0501,1,59,221,90,1,sixfive,,,,,,,,,,,,,,,,,,,,,,,,,,,,,,,,,,,,,,,,,,,,,,,,,,,,,,,,,,,,,,,,,,,,,,,,,,,,,,,,,,,,,,,,,,,,,,,,,,,,,,,,,,,,,,,,,,,,,,,,,,,,,,,,,,,,,,,,,
,,61063279931132ebf6b9f0cf,2024-02-22_24h28.43.870,kallum_motion_pilot,2023.2.2,Win32,144.9275362,61063279931132ebf6b9f0cf,65d6bb0e977760de756971f7,65d6bf15ee13f9561621bf81,0.0502,0.0502,1,60,222,129,1,fiveseven,,,,,,,,,,,,,,,,,,,,,,,,,,,,,,,,,,,,,,,,,,,,,,,,,,,,,,,,,,,,,,,,,,,,,,,,,,,,,,,,,,,,,,,,,,,,,,,,,,,,,,,,,,,,,,,,,,,,,,,,,,,,,,,,,,,,,,,,,
,,61063279931132ebf6b9f0cf,2024-02-22_24h28.43.870,kallum_motion_pilot,2023.2.2,Win32,144.9275362,61063279931132ebf6b9f0cf,65d6bb0e977760de756971f7,65d6bf15ee13f9561621bf81,0.0503,0.0503,1,61,223,32,1,onetwo,,,,,,,,,,,,,,,,,,,,,,,,,,,,,,,,,,,,,,,,,,,,,,,,,,,,,,,,,,,,,,,,,,,,,,,,,,,,,,,,,,,,,,,,,,,,,,,,,,,,,,,,,,,,,,,,,,,,,,,,,,,,,,,,,,,,,,,,,
,,61063279931132ebf6b9f0cf,2024-02-22_24h28.43.870,kallum_motion_pilot,2023.2.2,Win32,144.9275362,61063279931132ebf6b9f0cf,65d6bb0e977760de756971f7,65d6bf15ee13f9561621bf81,0.0504,0.0504,1,62,224,42,1,twoone,,,,,,,,,,,,,,,,,,,,,,,,,,,,,,,,,,,,,,,,,,,,,,,,,,,,,,,,,,,,,,,,,,,,,,,,,,,,,,,,,,,,,,,,,,,,,,,,,,,,,,,,,,,,,,,,,,,,,,,,,,,,,,,,,,,,,,,,,
,,61063279931132ebf6b9f0cf,2024-02-22_24h28.43.870,kallum_motion_pilot,2023.2.2,Win32,144.9275362,61063279931132ebf6b9f0cf,65d6bb0e977760de756971f7,65d6bf15ee13f9561621bf81,0.0504,0.0506,1,63,225,35,1,twofour,,,,,,,,,,,,,,,,,,,,,,,,,,,,,,,,,,,,,,,,,,,,,,,,,,,,,,,,,,,,,,,,,,,,,,,,,,,,,,,,,,,,,,,,,,,,,,,,,,,,,,,,,,,,,,,,,,,,,,,,,,,,,,,,,,,,,,,,,
,,61063279931132ebf6b9f0cf,2024-02-22_24h28.43.870,kallum_motion_pilot,2023.2.2,Win32,144.9275362,61063279931132ebf6b9f0cf,65d6bb0e977760de756971f7,65d6bf15ee13f9561621bf81,0.0506,0.0506,1,64,226,106,1,sixfive,,,,,,,,,,,,,,,,,,,,,,,,,,,,,,,,,,,,,,,,,,,,,,,,,,,,,,,,,,,,,,,,,,,,,,,,,,,,,,,,,,,,,,,,,,,,,,,,,,,,,,,,,,,,,,,,,,,,,,,,,,,,,,,,,,,,,,,,,
,,61063279931132ebf6b9f0cf,2024-02-22_24h28.43.870,kallum_motion_pilot,2023.2.2,Win32,144.9275362,61063279931132ebf6b9f0cf,65d6bb0e977760de756971f7,65d6bf15ee13f9561621bf81,0.0507,0.0507,1,65,227,1,1,onethree,,,,,,,,,,,,,,,,,,,,,,,,,,,,,,,,,,,,,,,,,,,,,,,,,,,,,,,,,,,,,,,,,,,,,,,,,,,,,,,,,,,,,,,,,,,,,,,,,,,,,,,,,,,,,,,,,,,,,,,,,,,,,,,,,,,,,,,,,
,,61063279931132ebf6b9f0cf,2024-02-22_24h28.43.870,kallum_motion_pilot,2023.2.2,Win32,144.9275362,61063279931132ebf6b9f0cf,65d6bb0e977760de756971f7,65d6bf15ee13f9561621bf81,0.0508,0.0508,1,66,228,155,1,sixeight,,,,,,,,,,,,,,,,,,,,,,,,,,,,,,,,,,,,,,,,,,,,,,,,,,,,,,,,,,,,,,,,,,,,,,,,,,,,,,,,,,,,,,,,,,,,,,,,,,,,,,,,,,,,,,,,,,,,,,,,,,,,,,,,,,,,,,,,,
,,61063279931132ebf6b9f0cf,2024-02-22_24h28.43.870,kallum_motion_pilot,2023.2.2,Win32,144.9275362,61063279931132ebf6b9f0cf,65d6bb0e977760de756971f7,65d6bf15ee13f9561621bf81,0.0509,0.0509,1,67,229,154,1,sixfive,,,,,,,,,,,,,,,,,,,,,,,,,,,,,,,,,,,,,,,,,,,,,,,,,,,,,,,,,,,,,,,,,,,,,,,,,,,,,,,,,,,,,,,,,,,,,,,,,,,,,,,,,,,,,,,,,,,,,,,,,,,,,,,,,,,,,,,,,
,,61063279931132ebf6b9f0cf,2024-02-22_24h28.43.870,kallum_motion_pilot,2023.2.2,Win32,144.9275362,61063279931132ebf6b9f0cf,65d6bb0e977760de756971f7,65d6bf15ee13f9561621bf81,0.051,0.051,1,68,230,80,1,fivesix,,,,,,,,,,,,,,,,,,,,,,,,,,,,,,,,,,,,,,,,,,,,,,,,,,,,,,,,,,,,,,,,,,,,,,,,,,,,,,,,,,,,,,,,,,,,,,,,,,,,,,,,,,,,,,,,,,,,,,,,,,,,,,,,,,,,,,,,,
,,61063279931132ebf6b9f0cf,2024-02-22_24h28.43.870,kallum_motion_pilot,2023.2.2,Win32,144.9275362,61063279931132ebf6b9f0cf,65d6bb0e977760de756971f7,65d6bf15ee13f9561621bf81,0.0512,0.0514,1,69,231,161,1,fiveseven,,,,,,,,,,,,,,,,,,,,,,,,,,,,,,,,,,,,,,,,,,,,,,,,,,,,,,,,,,,,,,,,,,,,,,,,,,,,,,,,,,,,,,,,,,,,,,,,,,,,,,,,,,,,,,,,,,,,,,,,,,,,,,,,,,,,,,,,,
,,61063279931132ebf6b9f0cf,2024-02-22_24h28.43.870,kallum_motion_pilot,2023.2.2,Win32,144.9275362,61063279931132ebf6b9f0cf,65d6bb0e977760de756971f7,65d6bf15ee13f9561621bf81,0.0515,0.0516,1,70,232,7,1,fourthree,,,,,,,,,,,,,,,,,,,,,,,,,,,,,,,,,,,,,,,,,,,,,,,,,,,,,,,,,,,,,,,,,,,,,,,,,,,,,,,,,,,,,,,,,,,,,,,,,,,,,,,,,,,,,,,,,,,,,,,,,,,,,,,,,,,,,,,,,
,,61063279931132ebf6b9f0cf,2024-02-22_24h28.43.870,kallum_motion_pilot,2023.2.2,Win32,144.9275362,61063279931132ebf6b9f0cf,65d6bb0e977760de756971f7,65d6bf15ee13f9561621bf81,0.0517,0.0518,1,71,233,130,1,sixfive,,,,,,,,,,,,,,,,,,,,,,,,,,,,,,,,,,,,,,,,,,,,,,,,,,,,,,,,,,,,,,,,,,,,,,,,,,,,,,,,,,,,,,,,,,,,,,,,,,,,,,,,,,,,,,,,,,,,,,,,,,,,,,,,,,,,,,,,,
,,61063279931132ebf6b9f0cf,2024-02-22_24h28.43.870,kallum_motion_pilot,2023.2.2,Win32,144.9275362,61063279931132ebf6b9f0cf,65d6bb0e977760de756971f7,65d6bf15ee13f9561621bf81,0.0519,0.0519,1,72,234,121,1,fiveseven,,,,,,,,,,,,,,,,,,,,,,,,,,,,,,,,,,,,,,,,,,,,,,,,,,,,,,,,,,,,,,,,,,,,,,,,,,,,,,,,,,,,,,,,,,,,,,,,,,,,,,,,,,,,,,,,,,,,,,,,,,,,,,,,,,,,,,,,,
,,61063279931132ebf6b9f0cf,2024-02-22_24h28.43.870,kallum_motion_pilot,2023.2.2,Win32,144.9275362,61063279931132ebf6b9f0cf,65d6bb0e977760de756971f7,65d6bf15ee13f9561621bf81,0.0524,0.0525,1,73,235,118,1,eightsix,,,,,,,,,,,,,,,,,,,,,,,,,,,,,,,,,,,,,,,,,,,,,,,,,,,,,,,,,,,,,,,,,,,,,,,,,,,,,,,,,,,,,,,,,,,,,,,,,,,,,,,,,,,,,,,,,,,,,,,,,,,,,,,,,,,,,,,,,
,,61063279931132ebf6b9f0cf,2024-02-22_24h28.43.870,kallum_motion_pilot,2023.2.2,Win32,144.9275362,61063279931132ebf6b9f0cf,65d6bb0e977760de756971f7,65d6bf15ee13f9561621bf81,0.0526,0.0527,1,74,236,89,1,fiveseven,,,,,,,,,,,,,,,,,,,,,,,,,,,,,,,,,,,,,,,,,,,,,,,,,,,,,,,,,,,,,,,,,,,,,,,,,,,,,,,,,,,,,,,,,,,,,,,,,,,,,,,,,,,,,,,,,,,,,,,,,,,,,,,,,,,,,,,,,
,,61063279931132ebf6b9f0cf,2024-02-22_24h28.43.870,kallum_motion_pilot,2023.2.2,Win32,144.9275362,61063279931132ebf6b9f0cf,65d6bb0e977760de756971f7,65d6bf15ee13f9561621bf81,0.0528,0.0528,1,75,237,83,1,sixeight,,,,,,,,,,,,,,,,,,,,,,,,,,,,,,,,,,,,,,,,,,,,,,,,,,,,,,,,,,,,,,,,,,,,,,,,,,,,,,,,,,,,,,,,,,,,,,,,,,,,,,,,,,,,,,,,,,,,,,,,,,,,,,,,,,,,,,,,,
,,61063279931132ebf6b9f0cf,2024-02-22_24h28.43.870,kallum_motion_pilot,2023.2.2,Win32,144.9275362,61063279931132ebf6b9f0cf,65d6bb0e977760de756971f7,65d6bf15ee13f9561621bf81,0.0531,0.0532,1,76,238,131,1,sixeight,,,,,,,,,,,,,,,,,,,,,,,,,,,,,,,,,,,,,,,,,,,,,,,,,,,,,,,,,,,,,,,,,,,,,,,,,,,,,,,,,,,,,,,,,,,,,,,,,,,,,,,,,,,,,,,,,,,,,,,,,,,,,,,,,,,,,,,,,
,,61063279931132ebf6b9f0cf,2024-02-22_24h28.43.870,kallum_motion_pilot,2023.2.2,Win32,144.9275362,61063279931132ebf6b9f0cf,65d6bb0e977760de756971f7,65d6bf15ee13f9561621bf81,0.0532,0.0533,1,77,239,137,1,fiveseven,,,,,,,,,,,,,,,,,,,,,,,,,,,,,,,,,,,,,,,,,,,,,,,,,,,,,,,,,,,,,,,,,,,,,,,,,,,,,,,,,,,,,,,,,,,,,,,,,,,,,,,,,,,,,,,,,,,,,,,,,,,,,,,,,,,,,,,,,
,,61063279931132ebf6b9f0cf,2024-02-22_24h28.43.870,kallum_motion_pilot,2023.2.2,Win32,144.9275362,61063279931132ebf6b9f0cf,65d6bb0e977760de756971f7,65d6bf15ee13f9561621bf81,0.0534,0.0536,1,78,240,95,1,eightseven,,,,,,,,,,,,,,,,,,,,,,,,,,,,,,,,,,,,,,,,,,,,,,,,,,,,,,,,,,,,,,,,,,,,,,,,,,,,,,,,,,,,,,,,,,,,,,,,,,,,,,,,,,,,,,,,,,,,,,,,,,,,,,,,,,,,,,,,,
,,61063279931132ebf6b9f0cf,2024-02-22_24h28.43.870,kallum_motion_pilot,2023.2.2,Win32,144.9275362,61063279931132ebf6b9f0cf,65d6bb0e977760de756971f7,65d6bf15ee13f9561621bf81,0.0536,0.0537,1,79,241,19,1,twofour,,,,,,,,,,,,,,,,,,,,,,,,,,,,,,,,,,,,,,,,,,,,,,,,,,,,,,,,,,,,,,,,,,,,,,,,,,,,,,,,,,,,,,,,,,,,,,,,,,,,,,,,,,,,,,,,,,,,,,,,,,,,,,,,,,,,,,,,,
,,61063279931132ebf6b9f0cf,2024-02-22_24h28.43.870,kallum_motion_pilot,2023.2.2,Win32,144.9275362,61063279931132ebf6b9f0cf,65d6bb0e977760de756971f7,65d6bf15ee13f9561621bf81,0.0537,0.0538,1,80,242,51,1,twofour,,,,,,,,,,,,,,,,,,,,,,,,,,,,,,,,,,,,,,,,,,,,,,,,,,,,,,,,,,,,,,,,,,,,,,,,,,,,,,,,,,,,,,,,,,,,,,,,,,,,,,,,,,,,,,,,,,,,,,,,,,,,,,,,,,,,,,,,,
,,61063279931132ebf6b9f0cf,2024-02-22_24h28.43.870,kallum_motion_pilot,2023.2.2,Win32,144.9275362,61063279931132ebf6b9f0cf,65d6bb0e977760de756971f7,65d6bf15ee13f9561621bf81,0.0539,0.054,1,81,243,81,1,fiveseven,,,,,,,,,,,,,,,,,,,,,,,,,,,,,,,,,,,,,,,,,,,,,,,,,,,,,,,,,,,,,,,,,,,,,,,,,,,,,,,,,,,,,,,,,,,,,,,,,,,,,,,,,,,,,,,,,,,,,,,,,,,,,,,,,,,,,,,,,
,,61063279931132ebf6b9f0cf,2024-02-22_24h28.43.870,kallum_motion_pilot,2023.2.2,Win32,144.9275362,61063279931132ebf6b9f0cf,65d6bb0e977760de756971f7,65d6bf15ee13f9561621bf81,0.054,0.054,1,82,244,151,1,eightseven,,,,,,,,,,,,,,,,,,,,,,,,,,,,,,,,,,,,,,,,,,,,,,,,,,,,,,,,,,,,,,,,,,,,,,,,,,,,,,,,,,,,,,,,,,,,,,,,,,,,,,,,,,,,,,,,,,,,,,,,,,,,,,,,,,,,,,,,,
,,61063279931132ebf6b9f0cf,2024-02-22_24h28.43.870,kallum_motion_pilot,2023.2.2,Win32,144.9275362,61063279931132ebf6b9f0cf,65d6bb0e977760de756971f7,65d6bf15ee13f9561621bf81,0.0542,0.0542,1,83,245,98,1,sixfive,,,,,,,,,,,,,,,,,,,,,,,,,,,,,,,,,,,,,,,,,,,,,,,,,,,,,,,,,,,,,,,,,,,,,,,,,,,,,,,,,,,,,,,,,,,,,,,,,,,,,,,,,,,,,,,,,,,,,,,,,,,,,,,,,,,,,,,,,
,,61063279931132ebf6b9f0cf,2024-02-22_24h28.43.870,kallum_motion_pilot,2023.2.2,Win32,144.9275362,61063279931132ebf6b9f0cf,65d6bb0e977760de756971f7,65d6bf15ee13f9561621bf81,0.0542,0.0544,1,84,246,96,1,fivesix,,,,,,,,,,,,,,,,,,,,,,,,,,,,,,,,,,,,,,,,,,,,,,,,,,,,,,,,,,,,,,,,,,,,,,,,,,,,,,,,,,,,,,,,,,,,,,,,,,,,,,,,,,,,,,,,,,,,,,,,,,,,,,,,,,,,,,,,,
,,61063279931132ebf6b9f0cf,2024-02-22_24h28.43.870,kallum_motion_pilot,2023.2.2,Win32,144.9275362,61063279931132ebf6b9f0cf,65d6bb0e977760de756971f7,65d6bf15ee13f9561621bf81,0.0545,0.0545,1,85,247,11,1,twofour,,,,,,,,,,,,,,,,,,,,,,,,,,,,,,,,,,,,,,,,,,,,,,,,,,,,,,,,,,,,,,,,,,,,,,,,,,,,,,,,,,,,,,,,,,,,,,,,,,,,,,,,,,,,,,,,,,,,,,,,,,,,,,,,,,,,,,,,,
,,61063279931132ebf6b9f0cf,2024-02-22_24h28.43.870,kallum_motion_pilot,2023.2.2,Win32,144.9275362,61063279931132ebf6b9f0cf,65d6bb0e977760de756971f7,65d6bf15ee13f9561621bf81,0.0546,0.0547,1,86,248,0,1,onetwo,,,,,,,,,,,,,,,,,,,,,,,,,,,,,,,,,,,,,,,,,,,,,,,,,,,,,,,,,,,,,,,,,,,,,,,,,,,,,,,,,,,,,,,,,,,,,,,,,,,,,,,,,,,,,,,,,,,,,,,,,,,,,,,,,,,,,,,,,
,,61063279931132ebf6b9f0cf,2024-02-22_24h28.43.870,kallum_motion_pilot,2023.2.2,Win32,144.9275362,61063279931132ebf6b9f0cf,65d6bb0e977760de756971f7,65d6bf15ee13f9561621bf81,0.0547,0.0547,1,87,249,49,1,onethree,,,,,,,,,,,,,,,,,,,,,,,,,,,,,,,,,,,,,,,,,,,,,,,,,,,,,,,,,,,,,,,,,,,,,,,,,,,,,,,,,,,,,,,,,,,,,,,,,,,,,,,,,,,,,,,,,,,,,,,,,,,,,,,,,,,,,,,,,
,,61063279931132ebf6b9f0cf,2024-02-22_24h28.43.870,kallum_motion_pilot,2023.2.2,Win32,144.9275362,61063279931132ebf6b9f0cf,65d6bb0e977760de756971f7,65d6bf15ee13f9561621bf81,0.0548,0.0549,1,88,250,4,1,threeone,,,,,,,,,,,,,,,,,,,,,,,,,,,,,,,,,,,,,,,,,,,,,,,,,,,,,,,,,,,,,,,,,,,,,,,,,,,,,,,,,,,,,,,,,,,,,,,,,,,,,,,,,,,,,,,,,,,,,,,,,,,,,,,,,,,,,,,,,
,,61063279931132ebf6b9f0cf,2024-02-22_24h28.43.870,kallum_motion_pilot,2023.2.2,Win32,144.9275362,61063279931132ebf6b9f0cf,65d6bb0e977760de756971f7,65d6bf15ee13f9561621bf81,0.0549,0.055,1,89,251,33,1,onethree,,,,,,,,,,,,,,,,,,,,,,,,,,,,,,,,,,,,,,,,,,,,,,,,,,,,,,,,,,,,,,,,,,,,,,,,,,,,,,,,,,,,,,,,,,,,,,,,,,,,,,,,,,,,,,,,,,,,,,,,,,,,,,,,,,,,,,,,,
,,61063279931132ebf6b9f0cf,2024-02-22_24h28.43.870,kallum_motion_pilot,2023.2.2,Win32,144.9275362,61063279931132ebf6b9f0cf,65d6bb0e977760de756971f7,65d6bf15ee13f9561621bf81,0.0551,0.0551,1,90,252,69,1,threefour,,,,,,,,,,,,,,,,,,,,,,,,,,,,,,,,,,,,,,,,,,,,,,,,,,,,,,,,,,,,,,,,,,,,,,,,,,,,,,,,,,,,,,,,,,,,,,,,,,,,,,,,,,,,,,,,,,,,,,,,,,,,,,,,,,,,,,,,,
,,61063279931132ebf6b9f0cf,2024-02-22_24h28.43.870,kallum_motion_pilot,2023.2.2,Win32,144.9275362,61063279931132ebf6b9f0cf,65d6bb0e977760de756971f7,65d6bf15ee13f9561621bf81,0.0551,0.0553,1,91,253,29,1,threefour,,,,,,,,,,,,,,,,,,,,,,,,,,,,,,,,,,,,,,,,,,,,,,,,,,,,,,,,,,,,,,,,,,,,,,,,,,,,,,,,,,,,,,,,,,,,,,,,,,,,,,,,,,,,,,,,,,,,,,,,,,,,,,,,,,,,,,,,,
,,61063279931132ebf6b9f0cf,2024-02-22_24h28.43.870,kallum_motion_pilot,2023.2.2,Win32,144.9275362,61063279931132ebf6b9f0cf,65d6bb0e977760de756971f7,65d6bf15ee13f9561621bf81,0.0553,0.0554,1,92,254,125,1,seveneight,,,,,,,,,,,,,,,,,,,,,,,,,,,,,,,,,,,,,,,,,,,,,,,,,,,,,,,,,,,,,,,,,,,,,,,,,,,,,,,,,,,,,,,,,,,,,,,,,,,,,,,,,,,,,,,,,,,,,,,,,,,,,,,,,,,,,,,,,
,,61063279931132ebf6b9f0cf,2024-02-22_24h28.43.870,kallum_motion_pilot,2023.2.2,Win32,144.9275362,61063279931132ebf6b9f0cf,65d6bb0e977760de756971f7,65d6bf15ee13f9561621bf81,0.0554,0.0555,1,93,255,6,1,fourtwo,,,,,,,,,,,,,,,,,,,,,,,,,,,,,,,,,,,,,,,,,,,,,,,,,,,,,,,,,,,,,,,,,,,,,,,,,,,,,,,,,,,,,,,,,,,,,,,,,,,,,,,,,,,,,,,,,,,,,,,,,,,,,,,,,,,,,,,,,
,,61063279931132ebf6b9f0cf,2024-02-22_24h28.43.870,kallum_motion_pilot,2023.2.2,Win32,144.9275362,61063279931132ebf6b9f0cf,65d6bb0e977760de756971f7,65d6bf15ee13f9561621bf81,0.0556,0.0557,1,94,256,152,1,fivesix,,,,,,,,,,,,,,,,,,,,,,,,,,,,,,,,,,,,,,,,,,,,,,,,,,,,,,,,,,,,,,,,,,,,,,,,,,,,,,,,,,,,,,,,,,,,,,,,,,,,,,,,,,,,,,,,,,,,,,,,,,,,,,,,,,,,,,,,,
,,61063279931132ebf6b9f0cf,2024-02-22_24h28.43.870,kallum_motion_pilot,2023.2.2,Win32,144.9275362,61063279931132ebf6b9f0cf,65d6bb0e977760de756971f7,65d6bf15ee13f9561621bf81,0.0557,0.0558,1,95,257,57,1,onethree,,,,,,,,,,,,,,,,,,,,,,,,,,,,,,,,,,,,,,,,,,,,,,,,,,,,,,,,,,,,,,,,,,,,,,,,,,,,,,,,,,,,,,,,,,,,,,,,,,,,,,,,,,,,,,,,,,,,,,,,,,,,,,,,,,,,,,,,,
,,61063279931132ebf6b9f0cf,2024-02-22_24h28.43.870,kallum_motion_pilot,2023.2.2,Win32,144.9275362,61063279931132ebf6b9f0cf,65d6bb0e977760de756971f7,65d6bf15ee13f9561621bf81,0.0559,0.0559,1,96,258,5,1,threefour,,,,,,,,,,,,,,,,,,,,,,,,,,,,,,,,,,,,,,,,,,,,,,,,,,,,,,,,,,,,,,,,,,,,,,,,,,,,,,,,,,,,,,,,,,,,,,,,,,,,,,,,,,,,,,,,,,,,,,,,,,,,,,,,,,,,,,,,,
,,61063279931132ebf6b9f0cf,2024-02-22_24h28.43.870,kallum_motion_pilot,2023.2.2,Win32,144.9275362,61063279931132ebf6b9f0cf,65d6bb0e977760de756971f7,65d6bf15ee13f9561621bf81,0.0559,0.056,1,97,259,77,1,threefour,,,,,,,,,,,,,,,,,,,,,,,,,,,,,,,,,,,,,,,,,,,,,,,,,,,,,,,,,,,,,,,,,,,,,,,,,,,,,,,,,,,,,,,,,,,,,,,,,,,,,,,,,,,,,,,,,,,,,,,,,,,,,,,,,,,,,,,,,
,,61063279931132ebf6b9f0cf,2024-02-22_24h28.43.870,kallum_motion_pilot,2023.2.2,Win32,144.9275362,61063279931132ebf6b9f0cf,65d6bb0e977760de756971f7,65d6bf15ee13f9561621bf81,0.0561,0.0561,1,98,260,102,1,eightsix,,,,,,,,,,,,,,,,,,,,,,,,,,,,,,,,,,,,,,,,,,,,,,,,,,,,,,,,,,,,,,,,,,,,,,,,,,,,,,,,,,,,,,,,,,,,,,,,,,,,,,,,,,,,,,,,,,,,,,,,,,,,,,,,,,,,,,,,,
,,61063279931132ebf6b9f0cf,2024-02-22_24h28.43.870,kallum_motion_pilot,2023.2.2,Win32,144.9275362,61063279931132ebf6b9f0cf,65d6bb0e977760de756971f7,65d6bf15ee13f9561621bf81,0.0562,0.0562,1,99,261,150,1,eightsix,,,,,,,,,,,,,,,,,,,,,,,,,,,,,,,,,,,,,,,,,,,,,,,,,,,,,,,,,,,,,,,,,,,,,,,,,,,,,,,,,,,,,,,,,,,,,,,,,,,,,,,,,,,,,,,,,,,,,,,,,,,,,,,,,,,,,,,,,
,,61063279931132ebf6b9f0cf,2024-02-22_24h28.43.870,kallum_motion_pilot,2023.2.2,Win32,144.9275362,61063279931132ebf6b9f0cf,65d6bb0e977760de756971f7,65d6bf15ee13f9561621bf81,0.0563,0.0564,1,100,262,23,1,fourthree,,,,,,,,,,,,,,,,,,,,,,,,,,,,,,,,,,,,,,,,,,,,,,,,,,,,,,,,,,,,,,,,,,,,,,,,,,,,,,,,,,,,,,,,,,,,,,,,,,,,,,,,,,,,,,,,,,,,,,,,,,,,,,,,,,,,,,,,,
,,61063279931132ebf6b9f0cf,2024-02-22_24h28.43.870,kallum_motion_pilot,2023.2.2,Win32,144.9275362,61063279931132ebf6b9f0cf,65d6bb0e977760de756971f7,65d6bf15ee13f9561621bf81,0.0564,0.0565,1,101,263,153,1,fiveseven,,,,,,,,,,,,,,,,,,,,,,,,,,,,,,,,,,,,,,,,,,,,,,,,,,,,,,,,,,,,,,,,,,,,,,,,,,,,,,,,,,,,,,,,,,,,,,,,,,,,,,,,,,,,,,,,,,,,,,,,,,,,,,,,,,,,,,,,,
,,61063279931132ebf6b9f0cf,2024-02-22_24h28.43.870,kallum_motion_pilot,2023.2.2,Win32,144.9275362,61063279931132ebf6b9f0cf,65d6bb0e977760de756971f7,65d6bf15ee13f9561621bf81,0.0566,0.0566,1,102,264,50,1,twoone,,,,,,,,,,,,,,,,,,,,,,,,,,,,,,,,,,,,,,,,,,,,,,,,,,,,,,,,,,,,,,,,,,,,,,,,,,,,,,,,,,,,,,,,,,,,,,,,,,,,,,,,,,,,,,,,,,,,,,,,,,,,,,,,,,,,,,,,,
,,61063279931132ebf6b9f0cf,2024-02-22_24h28.43.870,kallum_motion_pilot,2023.2.2,Win32,144.9275362,61063279931132ebf6b9f0cf,65d6bb0e977760de756971f7,65d6bf15ee13f9561621bf81,0.0567,0.0568,1,103,265,45,1,threefour,,,,,,,,,,,,,,,,,,,,,,,,,,,,,,,,,,,,,,,,,,,,,,,,,,,,,,,,,,,,,,,,,,,,,,,,,,,,,,,,,,,,,,,,,,,,,,,,,,,,,,,,,,,,,,,,,,,,,,,,,,,,,,,,,,,,,,,,,
,,61063279931132ebf6b9f0cf,2024-02-22_24h28.43.870,kallum_motion_pilot,2023.2.2,Win32,144.9275362,61063279931132ebf6b9f0cf,65d6bb0e977760de756971f7,65d6bf15ee13f9561621bf81,0.0568,0.0569,1,104,266,58,1,twoone,,,,,,,,,,,,,,,,,,,,,,,,,,,,,,,,,,,,,,,,,,,,,,,,,,,,,,,,,,,,,,,,,,,,,,,,,,,,,,,,,,,,,,,,,,,,,,,,,,,,,,,,,,,,,,,,,,,,,,,,,,,,,,,,,,,,,,,,,
,,61063279931132ebf6b9f0cf,2024-02-22_24h28.43.870,kallum_motion_pilot,2023.2.2,Win32,144.9275362,61063279931132ebf6b9f0cf,65d6bb0e977760de756971f7,65d6bf15ee13f9561621bf81,0.0569,0.0571,1,105,267,70,1,fourtwo,,,,,,,,,,,,,,,,,,,,,,,,,,,,,,,,,,,,,,,,,,,,,,,,,,,,,,,,,,,,,,,,,,,,,,,,,,,,,,,,,,,,,,,,,,,,,,,,,,,,,,,,,,,,,,,,,,,,,,,,,,,,,,,,,,,,,,,,,
,,61063279931132ebf6b9f0cf,2024-02-22_24h28.43.870,kallum_motion_pilot,2023.2.2,Win32,144.9275362,61063279931132ebf6b9f0cf,65d6bb0e977760de756971f7,65d6bf15ee13f9561621bf81,0.0571,0.0571,1,106,268,108,1,sevenfive,,,,,,,,,,,,,,,,,,,,,,,,,,,,,,,,,,,,,,,,,,,,,,,,,,,,,,,,,,,,,,,,,,,,,,,,,,,,,,,,,,,,,,,,,,,,,,,,,,,,,,,,,,,,,,,,,,,,,,,,,,,,,,,,,,,,,,,,,
,,61063279931132ebf6b9f0cf,2024-02-22_24h28.43.870,kallum_motion_pilot,2023.2.2,Win32,144.9275362,61063279931132ebf6b9f0cf,65d6bb0e977760de756971f7,65d6bf15ee13f9561621bf81,0.0572,0.0572,1,107,269,68,1,threeone,,,,,,,,,,,,,,,,,,,,,,,,,,,,,,,,,,,,,,,,,,,,,,,,,,,,,,,,,,,,,,,,,,,,,,,,,,,,,,,,,,,,,,,,,,,,,,,,,,,,,,,,,,,,,,,,,,,,,,,,,,,,,,,,,,,,,,,,,
,,61063279931132ebf6b9f0cf,2024-02-22_24h28.43.870,kallum_motion_pilot,2023.2.2,Win32,144.9275362,61063279931132ebf6b9f0cf,65d6bb0e977760de756971f7,65d6bf15ee13f9561621bf81,0.0573,0.0573,1,108,270,25,1,onethree,,,,,,,,,,,,,,,,,,,,,,,,,,,,,,,,,,,,,,,,,,,,,,,,,,,,,,,,,,,,,,,,,,,,,,,,,,,,,,,,,,,,,,,,,,,,,,,,,,,,,,,,,,,,,,,,,,,,,,,,,,,,,,,,,,,,,,,,,
,,61063279931132ebf6b9f0cf,2024-02-22_24h28.43.870,kallum_motion_pilot,2023.2.2,Win32,144.9275362,61063279931132ebf6b9f0cf,65d6bb0e977760de756971f7,65d6bf15ee13f9561621bf81,0.0574,0.0575,1,109,271,2,1,twoone,,,,,,,,,,,,,,,,,,,,,,,,,,,,,,,,,,,,,,,,,,,,,,,,,,,,,,,,,,,,,,,,,,,,,,,,,,,,,,,,,,,,,,,,,,,,,,,,,,,,,,,,,,,,,,,,,,,,,,,,,,,,,,,,,,,,,,,,,
,,61063279931132ebf6b9f0cf,2024-02-22_24h28.43.870,kallum_motion_pilot,2023.2.2,Win32,144.9275362,61063279931132ebf6b9f0cf,65d6bb0e977760de756971f7,65d6bf15ee13f9561621bf81,0.0576,0.0576,1,110,272,16,1,onetwo,,,,,,,,,,,,,,,,,,,,,,,,,,,,,,,,,,,,,,,,,,,,,,,,,,,,,,,,,,,,,,,,,,,,,,,,,,,,,,,,,,,,,,,,,,,,,,,,,,,,,,,,,,,,,,,,,,,,,,,,,,,,,,,,,,,,,,,,,
,,61063279931132ebf6b9f0cf,2024-02-22_24h28.43.870,kallum_motion_pilot,2023.2.2,Win32,144.9275362,61063279931132ebf6b9f0cf,65d6bb0e977760de756971f7,65d6bf15ee13f9561621bf81,0.0576,0.0577,1,111,273,93,1,seveneight,,,,,,,,,,,,,,,,,,,,,,,,,,,,,,,,,,,,,,,,,,,,,,,,,,,,,,,,,,,,,,,,,,,,,,,,,,,,,,,,,,,,,,,,,,,,,,,,,,,,,,,,,,,,,,,,,,,,,,,,,,,,,,,,,,,,,,,,,
,,61063279931132ebf6b9f0cf,2024-02-22_24h28.43.870,kallum_motion_pilot,2023.2.2,Win32,144.9275362,61063279931132ebf6b9f0cf,65d6bb0e977760de756971f7,65d6bf15ee13f9561621bf81,0.0577,0.0578,1,112,274,120,1,fivesix,,,,,,,,,,,,,,,,,,,,,,,,,,,,,,,,,,,,,,,,,,,,,,,,,,,,,,,,,,,,,,,,,,,,,,,,,,,,,,,,,,,,,,,,,,,,,,,,,,,,,,,,,,,,,,,,,,,,,,,,,,,,,,,,,,,,,,,,,
,,61063279931132ebf6b9f0cf,2024-02-22_24h28.43.870,kallum_motion_pilot,2023.2.2,Win32,144.9275362,61063279931132ebf6b9f0cf,65d6bb0e977760de756971f7,65d6bf15ee13f9561621bf81,0.0579,0.058,1,113,275,86,1,eightsix,,,,,,,,,,,,,,,,,,,,,,,,,,,,,,,,,,,,,,,,,,,,,,,,,,,,,,,,,,,,,,,,,,,,,,,,,,,,,,,,,,,,,,,,,,,,,,,,,,,,,,,,,,,,,,,,,,,,,,,,,,,,,,,,,,,,,,,,,
,,61063279931132ebf6b9f0cf,2024-02-22_24h28.43.870,kallum_motion_pilot,2023.2.2,Win32,144.9275362,61063279931132ebf6b9f0cf,65d6bb0e977760de756971f7,65d6bf15ee13f9561621bf81,0.058,0.0581,1,114,276,74,1,twoone,,,,,,,,,,,,,,,,,,,,,,,,,,,,,,,,,,,,,,,,,,,,,,,,,,,,,,,,,,,,,,,,,,,,,,,,,,,,,,,,,,,,,,,,,,,,,,,,,,,,,,,,,,,,,,,,,,,,,,,,,,,,,,,,,,,,,,,,,
,,61063279931132ebf6b9f0cf,2024-02-22_24h28.43.870,kallum_motion_pilot,2023.2.2,Win32,144.9275362,61063279931132ebf6b9f0cf,65d6bb0e977760de756971f7,65d6bf15ee13f9561621bf81,0.0583,0.0584,1,115,277,116,1,sevenfive,,,,,,,,,,,,,,,,,,,,,,,,,,,,,,,,,,,,,,,,,,,,,,,,,,,,,,,,,,,,,,,,,,,,,,,,,,,,,,,,,,,,,,,,,,,,,,,,,,,,,,,,,,,,,,,,,,,,,,,,,,,,,,,,,,,,,,,,,
