startup.started,startup.stopped,Prolific ID*,date,expName,psychopyVersion,OS,frameRate,participant,study_id,session,stimpositions.started,stimpositions.stopped,hardcoded_stimulus_positions.thisRepN,hardcoded_stimulus_positions.thisTrialN,hardcoded_stimulus_positions.thisN,hardcoded_stimulus_positions.thisIndex,hardcoded_stimulus_positions.ran,StimulusPos,stimorientation.started,stimorientation.stopped,prac_stimorientation_import_loop.thisRepN,prac_stimorientation_import_loop.thisTrialN,prac_stimorientation_import_loop.thisN,prac_stimorientation_import_loop.thisIndex,prac_stimorientation_import_loop.ran,Stimorientation,welcome_instr.started,welcome_instr.stopped,key_resp.keys,key_resp.rt,key_resp.duration,response_steppedout_1.started,response_steppedout_1.stopped,key_resp_20.keys,key_resp_20.rt,key_resp_20.duration,response_steppedout_2.started,response_steppedout_2.stopped,key_resp_19.keys,key_resp_19.rt,key_resp_19.duration,stim_response_instr.started,stim_response_instr.stopped,key_resp_15.keys,key_resp_15.rt,key_resp_15.duration,direction_instr_2.started,direction_instr_2.stopped,key_resp_9.keys,key_resp_9.rt,key_resp_9.duration,instr_prac.started,instr_prac.stopped,key_resp_10.keys,key_resp_10.rt,key_resp_10.duration,Stim1_display_prac.started,Stim1_display_prac.stopped,Ecc,Circle1_ori,Circle2_ori,response_prac.started,similarity,response_time,response_prac.stopped,mouse_5.x,mouse_5.y,mouse_5.leftButton,mouse_5.midButton,mouse_5.rightButton,mouse_5.clicked_name,responseprac_feedback.started,responseprac_feedback.stopped,summary2_prac.started,summary2_prac.stopped,mouse_6.x,mouse_6.y,mouse_6.leftButton,mouse_6.midButton,mouse_6.rightButton,mouse_6.clicked_name,duringprac.thisRepN,duringprac.thisTrialN,duringprac.thisN,duringprac.thisIndex,duringprac.ran,begin.started,begin.stopped,key_resp_22.keys,key_resp_22.rt,key_resp_22.duration,Stim1_display.started,Stim1_display.stopped,circle1_ori,circle2_ori,circle1_SF,circle2_SF,response.started,response.stopped,mouse.x,mouse.y,mouse.leftButton,mouse.midButton,mouse.rightButton,mouse.clicked_name,trialnumber,double_pass.thisRepN,double_pass.thisTrialN,double_pass.thisN,double_pass.thisIndex,double_pass.ran,double_pass.order,main_trial.thisRepN,main_trial.thisTrialN,main_trial.thisN,main_trial.thisIndex,main_trial.ran,main_trial.order,Trial_Counter,Catch,Frequencies,response_2.started,response_2.stopped,mouse_2.x,mouse_2.y,mouse_2.leftButton,mouse_2.midButton,mouse_2.rightButton,mouse_2.clicked_name,special_trial.started,special_trial.stopped,catch_1.started,catch_1.stopped,mouse_3.x,mouse_3.y,mouse_3.leftButton,mouse_3.midButton,mouse_3.rightButton,catchresponse,catchnumber,response_time_catch,response_sum.started,response_sum.stopped,mouse_11.x,mouse_11.y,mouse_11.leftButton,mouse_11.midButton,mouse_11.rightButton,flip_presentation_sequence_for_double_pass.started,flip_presentation_sequence_for_double_pass.stopped,goodbye.started,goodbye.stopped,key_resp_3.keys,key_resp_3.rt,key_resp_3.duration
0.0005,0.0006,61073e6d38111b5924507b77,2024-02-21_21h27.53.489,kallum_motion_pilot,2023.2.2,Win32,60.24096386,61073e6d38111b5924507b77,65d6bb0e977760de756971f7,65d6bf0d3f7d9a4dcc97f339,,,,,,,,,,,,,,,,,,,,,,,,,,,,,,,,,,,,,,,,,,,,,,,,,,,,,,,,,,,,,,,,,,,,,,,,,,,,,,,,,,,,,,,,,,,,,,,,,,,,,,,,,,,,,,,,,,,,,,,,,,,,,,,,,,,,,,,,,,,,,,,,,
,,61073e6d38111b5924507b77,2024-02-21_21h27.53.489,kallum_motion_pilot,2023.2.2,Win32,60.24096386,61073e6d38111b5924507b77,65d6bb0e977760de756971f7,65d6bf0d3f7d9a4dcc97f339,0.0167,0.0169,0,0,0,126,1,eightsix,,,,,,,,,,,,,,,,,,,,,,,,,,,,,,,,,,,,,,,,,,,,,,,,,,,,,,,,,,,,,,,,,,,,,,,,,,,,,,,,,,,,,,,,,,,,,,,,,,,,,,,,,,,,,,,,,,,,,,,,,,,,,,,,,,,,,,,,,
,,61073e6d38111b5924507b77,2024-02-21_21h27.53.489,kallum_motion_pilot,2023.2.2,Win32,60.24096386,61073e6d38111b5924507b77,65d6bb0e977760de756971f7,65d6bf0d3f7d9a4dcc97f339,0.017,0.017,0,1,1,95,1,eightseven,,,,,,,,,,,,,,,,,,,,,,,,,,,,,,,,,,,,,,,,,,,,,,,,,,,,,,,,,,,,,,,,,,,,,,,,,,,,,,,,,,,,,,,,,,,,,,,,,,,,,,,,,,,,,,,,,,,,,,,,,,,,,,,,,,,,,,,,,
,,61073e6d38111b5924507b77,2024-02-21_21h27.53.489,kallum_motion_pilot,2023.2.2,Win32,60.24096386,61073e6d38111b5924507b77,65d6bb0e977760de756971f7,65d6bf0d3f7d9a4dcc97f339,0.0171,0.0171,0,2,2,88,1,fivesix,,,,,,,,,,,,,,,,,,,,,,,,,,,,,,,,,,,,,,,,,,,,,,,,,,,,,,,,,,,,,,,,,,,,,,,,,,,,,,,,,,,,,,,,,,,,,,,,,,,,,,,,,,,,,,,,,,,,,,,,,,,,,,,,,,,,,,,,,
,,61073e6d38111b5924507b77,2024-02-21_21h27.53.489,kallum_motion_pilot,2023.2.2,Win32,60.24096386,61073e6d38111b5924507b77,65d6bb0e977760de756971f7,65d6bf0d3f7d9a4dcc97f339,0.0171,0.0172,0,3,3,139,1,sixeight,,,,,,,,,,,,,,,,,,,,,,,,,,,,,,,,,,,,,,,,,,,,,,,,,,,,,,,,,,,,,,,,,,,,,,,,,,,,,,,,,,,,,,,,,,,,,,,,,,,,,,,,,,,,,,,,,,,,,,,,,,,,,,,,,,,,,,,,,
,,61073e6d38111b5924507b77,2024-02-21_21h27.53.489,kallum_motion_pilot,2023.2.2,Win32,60.24096386,61073e6d38111b5924507b77,65d6bb0e977760de756971f7,65d6bf0d3f7d9a4dcc97f339,0.0172,0.0173,0,4,4,65,1,onethree,,,,,,,,,,,,,,,,,,,,,,,,,,,,,,,,,,,,,,,,,,,,,,,,,,,,,,,,,,,,,,,,,,,,,,,,,,,,,,,,,,,,,,,,,,,,,,,,,,,,,,,,,,,,,,,,,,,,,,,,,,,,,,,,,,,,,,,,,
,,61073e6d38111b5924507b77,2024-02-21_21h27.53.489,kallum_motion_pilot,2023.2.2,Win32,60.24096386,61073e6d38111b5924507b77,65d6bb0e977760de756971f7,65d6bf0d3f7d9a4dcc97f339,0.0173,0.0174,0,5,5,149,1,seveneight,,,,,,,,,,,,,,,,,,,,,,,,,,,,,,,,,,,,,,,,,,,,,,,,,,,,,,,,,,,,,,,,,,,,,,,,,,,,,,,,,,,,,,,,,,,,,,,,,,,,,,,,,,,,,,,,,,,,,,,,,,,,,,,,,,,,,,,,,
,,61073e6d38111b5924507b77,2024-02-21_21h27.53.489,kallum_motion_pilot,2023.2.2,Win32,60.24096386,61073e6d38111b5924507b77,65d6bb0e977760de756971f7,65d6bf0d3f7d9a4dcc97f339,0.0174,0.0174,0,6,6,103,1,eightseven,,,,,,,,,,,,,,,,,,,,,,,,,,,,,,,,,,,,,,,,,,,,,,,,,,,,,,,,,,,,,,,,,,,,,,,,,,,,,,,,,,,,,,,,,,,,,,,,,,,,,,,,,,,,,,,,,,,,,,,,,,,,,,,,,,,,,,,,,
,,61073e6d38111b5924507b77,2024-02-21_21h27.53.489,kallum_motion_pilot,2023.2.2,Win32,60.24096386,61073e6d38111b5924507b77,65d6bb0e977760de756971f7,65d6bf0d3f7d9a4dcc97f339,0.0175,0.0175,0,7,7,48,1,onetwo,,,,,,,,,,,,,,,,,,,,,,,,,,,,,,,,,,,,,,,,,,,,,,,,,,,,,,,,,,,,,,,,,,,,,,,,,,,,,,,,,,,,,,,,,,,,,,,,,,,,,,,,,,,,,,,,,,,,,,,,,,,,,,,,,,,,,,,,,
,,61073e6d38111b5924507b77,2024-02-21_21h27.53.489,kallum_motion_pilot,2023.2.2,Win32,60.24096386,61073e6d38111b5924507b77,65d6bb0e977760de756971f7,65d6bf0d3f7d9a4dcc97f339,0.0181,0.0181,0,8,8,1,1,onethree,,,,,,,,,,,,,,,,,,,,,,,,,,,,,,,,,,,,,,,,,,,,,,,,,,,,,,,,,,,,,,,,,,,,,,,,,,,,,,,,,,,,,,,,,,,,,,,,,,,,,,,,,,,,,,,,,,,,,,,,,,,,,,,,,,,,,,,,,
,,61073e6d38111b5924507b77,2024-02-21_21h27.53.489,kallum_motion_pilot,2023.2.2,Win32,60.24096386,61073e6d38111b5924507b77,65d6bb0e977760de756971f7,65d6bf0d3f7d9a4dcc97f339,0.0182,0.0182,0,9,9,59,1,twofour,,,,,,,,,,,,,,,,,,,,,,,,,,,,,,,,,,,,,,,,,,,,,,,,,,,,,,,,,,,,,,,,,,,,,,,,,,,,,,,,,,,,,,,,,,,,,,,,,,,,,,,,,,,,,,,,,,,,,,,,,,,,,,,,,,,,,,,,,
,,61073e6d38111b5924507b77,2024-02-21_21h27.53.489,kallum_motion_pilot,2023.2.2,Win32,60.24096386,61073e6d38111b5924507b77,65d6bb0e977760de756971f7,65d6bf0d3f7d9a4dcc97f339,0.0183,0.0183,0,10,10,115,1,sixeight,,,,,,,,,,,,,,,,,,,,,,,,,,,,,,,,,,,,,,,,,,,,,,,,,,,,,,,,,,,,,,,,,,,,,,,,,,,,,,,,,,,,,,,,,,,,,,,,,,,,,,,,,,,,,,,,,,,,,,,,,,,,,,,,,,,,,,,,,
,,61073e6d38111b5924507b77,2024-02-21_21h27.53.489,kallum_motion_pilot,2023.2.2,Win32,60.24096386,61073e6d38111b5924507b77,65d6bb0e977760de756971f7,65d6bf0d3f7d9a4dcc97f339,0.0184,0.0184,0,11,11,41,1,onethree,,,,,,,,,,,,,,,,,,,,,,,,,,,,,,,,,,,,,,,,,,,,,,,,,,,,,,,,,,,,,,,,,,,,,,,,,,,,,,,,,,,,,,,,,,,,,,,,,,,,,,,,,,,,,,,,,,,,,,,,,,,,,,,,,,,,,,,,,
,,61073e6d38111b5924507b77,2024-02-21_21h27.53.489,kallum_motion_pilot,2023.2.2,Win32,60.24096386,61073e6d38111b5924507b77,65d6bb0e977760de756971f7,65d6bf0d3f7d9a4dcc97f339,0.0185,0.0185,0,12,12,52,1,threeone,,,,,,,,,,,,,,,,,,,,,,,,,,,,,,,,,,,,,,,,,,,,,,,,,,,,,,,,,,,,,,,,,,,,,,,,,,,,,,,,,,,,,,,,,,,,,,,,,,,,,,,,,,,,,,,,,,,,,,,,,,,,,,,,,,,,,,,,,
,,61073e6d38111b5924507b77,2024-02-21_21h27.53.489,kallum_motion_pilot,2023.2.2,Win32,60.24096386,61073e6d38111b5924507b77,65d6bb0e977760de756971f7,65d6bf0d3f7d9a4dcc97f339,0.0185,0.0185,0,13,13,141,1,seveneight,,,,,,,,,,,,,,,,,,,,,,,,,,,,,,,,,,,,,,,,,,,,,,,,,,,,,,,,,,,,,,,,,,,,,,,,,,,,,,,,,,,,,,,,,,,,,,,,,,,,,,,,,,,,,,,,,,,,,,,,,,,,,,,,,,,,,,,,,
,,61073e6d38111b5924507b77,2024-02-21_21h27.53.489,kallum_motion_pilot,2023.2.2,Win32,60.24096386,61073e6d38111b5924507b77,65d6bb0e977760de756971f7,65d6bf0d3f7d9a4dcc97f339,0.0186,0.0186,0,14,14,135,1,eightseven,,,,,,,,,,,,,,,,,,,,,,,,,,,,,,,,,,,,,,,,,,,,,,,,,,,,,,,,,,,,,,,,,,,,,,,,,,,,,,,,,,,,,,,,,,,,,,,,,,,,,,,,,,,,,,,,,,,,,,,,,,,,,,,,,,,,,,,,,
,,61073e6d38111b5924507b77,2024-02-21_21h27.53.489,kallum_motion_pilot,2023.2.2,Win32,60.24096386,61073e6d38111b5924507b77,65d6bb0e977760de756971f7,65d6bf0d3f7d9a4dcc97f339,0.0186,0.0186,0,15,15,43,1,twofour,,,,,,,,,,,,,,,,,,,,,,,,,,,,,,,,,,,,,,,,,,,,,,,,,,,,,,,,,,,,,,,,,,,,,,,,,,,,,,,,,,,,,,,,,,,,,,,,,,,,,,,,,,,,,,,,,,,,,,,,,,,,,,,,,,,,,,,,,
,,61073e6d38111b5924507b77,2024-02-21_21h27.53.489,kallum_motion_pilot,2023.2.2,Win32,60.24096386,61073e6d38111b5924507b77,65d6bb0e977760de756971f7,65d6bf0d3f7d9a4dcc97f339,0.0187,0.0187,0,16,16,31,1,fourthree,,,,,,,,,,,,,,,,,,,,,,,,,,,,,,,,,,,,,,,,,,,,,,,,,,,,,,,,,,,,,,,,,,,,,,,,,,,,,,,,,,,,,,,,,,,,,,,,,,,,,,,,,,,,,,,,,,,,,,,,,,,,,,,,,,,,,,,,,
,,61073e6d38111b5924507b77,2024-02-21_21h27.53.489,kallum_motion_pilot,2023.2.2,Win32,60.24096386,61073e6d38111b5924507b77,65d6bb0e977760de756971f7,65d6bf0d3f7d9a4dcc97f339,0.0187,0.0188,0,17,17,30,1,fourtwo,,,,,,,,,,,,,,,,,,,,,,,,,,,,,,,,,,,,,,,,,,,,,,,,,,,,,,,,,,,,,,,,,,,,,,,,,,,,,,,,,,,,,,,,,,,,,,,,,,,,,,,,,,,,,,,,,,,,,,,,,,,,,,,,,,,,,,,,,
,,61073e6d38111b5924507b77,2024-02-21_21h27.53.489,kallum_motion_pilot,2023.2.2,Win32,60.24096386,61073e6d38111b5924507b77,65d6bb0e977760de756971f7,65d6bf0d3f7d9a4dcc97f339,0.0188,0.0188,0,18,18,106,1,sixfive,,,,,,,,,,,,,,,,,,,,,,,,,,,,,,,,,,,,,,,,,,,,,,,,,,,,,,,,,,,,,,,,,,,,,,,,,,,,,,,,,,,,,,,,,,,,,,,,,,,,,,,,,,,,,,,,,,,,,,,,,,,,,,,,,,,,,,,,,
,,61073e6d38111b5924507b77,2024-02-21_21h27.53.489,kallum_motion_pilot,2023.2.2,Win32,60.24096386,61073e6d38111b5924507b77,65d6bb0e977760de756971f7,65d6bf0d3f7d9a4dcc97f339,0.0188,0.0188,0,19,19,54,1,fourtwo,,,,,,,,,,,,,,,,,,,,,,,,,,,,,,,,,,,,,,,,,,,,,,,,,,,,,,,,,,,,,,,,,,,,,,,,,,,,,,,,,,,,,,,,,,,,,,,,,,,,,,,,,,,,,,,,,,,,,,,,,,,,,,,,,,,,,,,,,
,,61073e6d38111b5924507b77,2024-02-21_21h27.53.489,kallum_motion_pilot,2023.2.2,Win32,60.24096386,61073e6d38111b5924507b77,65d6bb0e977760de756971f7,65d6bf0d3f7d9a4dcc97f339,0.0188,0.0189,0,20,20,85,1,seveneight,,,,,,,,,,,,,,,,,,,,,,,,,,,,,,,,,,,,,,,,,,,,,,,,,,,,,,,,,,,,,,,,,,,,,,,,,,,,,,,,,,,,,,,,,,,,,,,,,,,,,,,,,,,,,,,,,,,,,,,,,,,,,,,,,,,,,,,,,
,,61073e6d38111b5924507b77,2024-02-21_21h27.53.489,kallum_motion_pilot,2023.2.2,Win32,60.24096386,61073e6d38111b5924507b77,65d6bb0e977760de756971f7,65d6bf0d3f7d9a4dcc97f339,0.0189,0.0189,0,21,21,7,1,fourthree,,,,,,,,,,,,,,,,,,,,,,,,,,,,,,,,,,,,,,,,,,,,,,,,,,,,,,,,,,,,,,,,,,,,,,,,,,,,,,,,,,,,,,,,,,,,,,,,,,,,,,,,,,,,,,,,,,,,,,,,,,,,,,,,,,,,,,,,,
,,61073e6d38111b5924507b77,2024-02-21_21h27.53.489,kallum_motion_pilot,2023.2.2,Win32,60.24096386,61073e6d38111b5924507b77,65d6bb0e977760de756971f7,65d6bf0d3f7d9a4dcc97f339,0.019,0.019,0,22,22,93,1,seveneight,,,,,,,,,,,,,,,,,,,,,,,,,,,,,,,,,,,,,,,,,,,,,,,,,,,,,,,,,,,,,,,,,,,,,,,,,,,,,,,,,,,,,,,,,,,,,,,,,,,,,,,,,,,,,,,,,,,,,,,,,,,,,,,,,,,,,,,,,
,,61073e6d38111b5924507b77,2024-02-21_21h27.53.489,kallum_motion_pilot,2023.2.2,Win32,60.24096386,61073e6d38111b5924507b77,65d6bb0e977760de756971f7,65d6bf0d3f7d9a4dcc97f339,0.019,0.019,0,23,23,98,1,sixfive,,,,,,,,,,,,,,,,,,,,,,,,,,,,,,,,,,,,,,,,,,,,,,,,,,,,,,,,,,,,,,,,,,,,,,,,,,,,,,,,,,,,,,,,,,,,,,,,,,,,,,,,,,,,,,,,,,,,,,,,,,,,,,,,,,,,,,,,,
,,61073e6d38111b5924507b77,2024-02-21_21h27.53.489,kallum_motion_pilot,2023.2.2,Win32,60.24096386,61073e6d38111b5924507b77,65d6bb0e977760de756971f7,65d6bf0d3f7d9a4dcc97f339,0.0191,0.0191,0,24,24,101,1,seveneight,,,,,,,,,,,,,,,,,,,,,,,,,,,,,,,,,,,,,,,,,,,,,,,,,,,,,,,,,,,,,,,,,,,,,,,,,,,,,,,,,,,,,,,,,,,,,,,,,,,,,,,,,,,,,,,,,,,,,,,,,,,,,,,,,,,,,,,,,
,,61073e6d38111b5924507b77,2024-02-21_21h27.53.489,kallum_motion_pilot,2023.2.2,Win32,60.24096386,61073e6d38111b5924507b77,65d6bb0e977760de756971f7,65d6bf0d3f7d9a4dcc97f339,0.0191,0.0192,0,25,25,23,1,fourthree,,,,,,,,,,,,,,,,,,,,,,,,,,,,,,,,,,,,,,,,,,,,,,,,,,,,,,,,,,,,,,,,,,,,,,,,,,,,,,,,,,,,,,,,,,,,,,,,,,,,,,,,,,,,,,,,,,,,,,,,,,,,,,,,,,,,,,,,,
,,61073e6d38111b5924507b77,2024-02-21_21h27.53.489,kallum_motion_pilot,2023.2.2,Win32,60.24096386,61073e6d38111b5924507b77,65d6bb0e977760de756971f7,65d6bf0d3f7d9a4dcc97f339,0.0192,0.0192,0,26,26,13,1,threefour,,,,,,,,,,,,,,,,,,,,,,,,,,,,,,,,,,,,,,,,,,,,,,,,,,,,,,,,,,,,,,,,,,,,,,,,,,,,,,,,,,,,,,,,,,,,,,,,,,,,,,,,,,,,,,,,,,,,,,,,,,,,,,,,,,,,,,,,,
,,61073e6d38111b5924507b77,2024-02-21_21h27.53.489,kallum_motion_pilot,2023.2.2,Win32,60.24096386,61073e6d38111b5924507b77,65d6bb0e977760de756971f7,65d6bf0d3f7d9a4dcc97f339,0.0192,0.0192,0,27,27,87,1,eightseven,,,,,,,,,,,,,,,,,,,,,,,,,,,,,,,,,,,,,,,,,,,,,,,,,,,,,,,,,,,,,,,,,,,,,,,,,,,,,,,,,,,,,,,,,,,,,,,,,,,,,,,,,,,,,,,,,,,,,,,,,,,,,,,,,,,,,,,,,
,,61073e6d38111b5924507b77,2024-02-21_21h27.53.489,kallum_motion_pilot,2023.2.2,Win32,60.24096386,61073e6d38111b5924507b77,65d6bb0e977760de756971f7,65d6bf0d3f7d9a4dcc97f339,0.0193,0.0193,0,28,28,78,1,fourtwo,,,,,,,,,,,,,,,,,,,,,,,,,,,,,,,,,,,,,,,,,,,,,,,,,,,,,,,,,,,,,,,,,,,,,,,,,,,,,,,,,,,,,,,,,,,,,,,,,,,,,,,,,,,,,,,,,,,,,,,,,,,,,,,,,,,,,,,,,
,,61073e6d38111b5924507b77,2024-02-21_21h27.53.489,kallum_motion_pilot,2023.2.2,Win32,60.24096386,61073e6d38111b5924507b77,65d6bb0e977760de756971f7,65d6bf0d3f7d9a4dcc97f339,0.0193,0.0193,0,29,29,51,1,twofour,,,,,,,,,,,,,,,,,,,,,,,,,,,,,,,,,,,,,,,,,,,,,,,,,,,,,,,,,,,,,,,,,,,,,,,,,,,,,,,,,,,,,,,,,,,,,,,,,,,,,,,,,,,,,,,,,,,,,,,,,,,,,,,,,,,,,,,,,
,,61073e6d38111b5924507b77,2024-02-21_21h27.53.489,kallum_motion_pilot,2023.2.2,Win32,60.24096386,61073e6d38111b5924507b77,65d6bb0e977760de756971f7,65d6bf0d3f7d9a4dcc97f339,0.0194,0.0194,0,30,30,107,1,sixeight,,,,,,,,,,,,,,,,,,,,,,,,,,,,,,,,,,,,,,,,,,,,,,,,,,,,,,,,,,,,,,,,,,,,,,,,,,,,,,,,,,,,,,,,,,,,,,,,,,,,,,,,,,,,,,,,,,,,,,,,,,,,,,,,,,,,,,,,,
,,61073e6d38111b5924507b77,2024-02-21_21h27.53.489,kallum_motion_pilot,2023.2.2,Win32,60.24096386,61073e6d38111b5924507b77,65d6bb0e977760de756971f7,65d6bf0d3f7d9a4dcc97f339,0.0195,0.0195,0,31,31,74,1,twoone,,,,,,,,,,,,,,,,,,,,,,,,,,,,,,,,,,,,,,,,,,,,,,,,,,,,,,,,,,,,,,,,,,,,,,,,,,,,,,,,,,,,,,,,,,,,,,,,,,,,,,,,,,,,,,,,,,,,,,,,,,,,,,,,,,,,,,,,,
,,61073e6d38111b5924507b77,2024-02-21_21h27.53.489,kallum_motion_pilot,2023.2.2,Win32,60.24096386,61073e6d38111b5924507b77,65d6bb0e977760de756971f7,65d6bf0d3f7d9a4dcc97f339,0.0196,0.0196,0,32,32,46,1,fourtwo,,,,,,,,,,,,,,,,,,,,,,,,,,,,,,,,,,,,,,,,,,,,,,,,,,,,,,,,,,,,,,,,,,,,,,,,,,,,,,,,,,,,,,,,,,,,,,,,,,,,,,,,,,,,,,,,,,,,,,,,,,,,,,,,,,,,,,,,,
,,61073e6d38111b5924507b77,2024-02-21_21h27.53.489,kallum_motion_pilot,2023.2.2,Win32,60.24096386,61073e6d38111b5924507b77,65d6bb0e977760de756971f7,65d6bf0d3f7d9a4dcc97f339,0.0196,0.0196,0,33,33,109,1,seveneight,,,,,,,,,,,,,,,,,,,,,,,,,,,,,,,,,,,,,,,,,,,,,,,,,,,,,,,,,,,,,,,,,,,,,,,,,,,,,,,,,,,,,,,,,,,,,,,,,,,,,,,,,,,,,,,,,,,,,,,,,,,,,,,,,,,,,,,,,
,,61073e6d38111b5924507b77,2024-02-21_21h27.53.489,kallum_motion_pilot,2023.2.2,Win32,60.24096386,61073e6d38111b5924507b77,65d6bb0e977760de756971f7,65d6bf0d3f7d9a4dcc97f339,0.0196,0.0196,0,34,34,105,1,fiveseven,,,,,,,,,,,,,,,,,,,,,,,,,,,,,,,,,,,,,,,,,,,,,,,,,,,,,,,,,,,,,,,,,,,,,,,,,,,,,,,,,,,,,,,,,,,,,,,,,,,,,,,,,,,,,,,,,,,,,,,,,,,,,,,,,,,,,,,,,
,,61073e6d38111b5924507b77,2024-02-21_21h27.53.489,kallum_motion_pilot,2023.2.2,Win32,60.24096386,61073e6d38111b5924507b77,65d6bb0e977760de756971f7,65d6bf0d3f7d9a4dcc97f339,0.0196,0.0197,0,35,35,0,1,onetwo,,,,,,,,,,,,,,,,,,,,,,,,,,,,,,,,,,,,,,,,,,,,,,,,,,,,,,,,,,,,,,,,,,,,,,,,,,,,,,,,,,,,,,,,,,,,,,,,,,,,,,,,,,,,,,,,,,,,,,,,,,,,,,,,,,,,,,,,,
,,61073e6d38111b5924507b77,2024-02-21_21h27.53.489,kallum_motion_pilot,2023.2.2,Win32,60.24096386,61073e6d38111b5924507b77,65d6bb0e977760de756971f7,65d6bf0d3f7d9a4dcc97f339,0.0197,0.0197,0,36,36,125,1,seveneight,,,,,,,,,,,,,,,,,,,,,,,,,,,,,,,,,,,,,,,,,,,,,,,,,,,,,,,,,,,,,,,,,,,,,,,,,,,,,,,,,,,,,,,,,,,,,,,,,,,,,,,,,,,,,,,,,,,,,,,,,,,,,,,,,,,,,,,,,
,,61073e6d38111b5924507b77,2024-02-21_21h27.53.489,kallum_motion_pilot,2023.2.2,Win32,60.24096386,61073e6d38111b5924507b77,65d6bb0e977760de756971f7,65d6bf0d3f7d9a4dcc97f339,0.0198,0.0198,0,37,37,146,1,sixfive,,,,,,,,,,,,,,,,,,,,,,,,,,,,,,,,,,,,,,,,,,,,,,,,,,,,,,,,,,,,,,,,,,,,,,,,,,,,,,,,,,,,,,,,,,,,,,,,,,,,,,,,,,,,,,,,,,,,,,,,,,,,,,,,,,,,,,,,,
,,61073e6d38111b5924507b77,2024-02-21_21h27.53.489,kallum_motion_pilot,2023.2.2,Win32,60.24096386,61073e6d38111b5924507b77,65d6bb0e977760de756971f7,65d6bf0d3f7d9a4dcc97f339,0.0198,0.0198,0,38,38,160,1,fivesix,,,,,,,,,,,,,,,,,,,,,,,,,,,,,,,,,,,,,,,,,,,,,,,,,,,,,,,,,,,,,,,,,,,,,,,,,,,,,,,,,,,,,,,,,,,,,,,,,,,,,,,,,,,,,,,,,,,,,,,,,,,,,,,,,,,,,,,,,
,,61073e6d38111b5924507b77,2024-02-21_21h27.53.489,kallum_motion_pilot,2023.2.2,Win32,60.24096386,61073e6d38111b5924507b77,65d6bb0e977760de756971f7,65d6bf0d3f7d9a4dcc97f339,0.0198,0.0199,0,39,39,131,1,sixeight,,,,,,,,,,,,,,,,,,,,,,,,,,,,,,,,,,,,,,,,,,,,,,,,,,,,,,,,,,,,,,,,,,,,,,,,,,,,,,,,,,,,,,,,,,,,,,,,,,,,,,,,,,,,,,,,,,,,,,,,,,,,,,,,,,,,,,,,,
,,61073e6d38111b5924507b77,2024-02-21_21h27.53.489,kallum_motion_pilot,2023.2.2,Win32,60.24096386,61073e6d38111b5924507b77,65d6bb0e977760de756971f7,65d6bf0d3f7d9a4dcc97f339,0.0199,0.0199,0,40,40,86,1,eightsix,,,,,,,,,,,,,,,,,,,,,,,,,,,,,,,,,,,,,,,,,,,,,,,,,,,,,,,,,,,,,,,,,,,,,,,,,,,,,,,,,,,,,,,,,,,,,,,,,,,,,,,,,,,,,,,,,,,,,,,,,,,,,,,,,,,,,,,,,
,,61073e6d38111b5924507b77,2024-02-21_21h27.53.489,kallum_motion_pilot,2023.2.2,Win32,60.24096386,61073e6d38111b5924507b77,65d6bb0e977760de756971f7,65d6bf0d3f7d9a4dcc97f339,0.02,0.02,0,41,41,140,1,sevenfive,,,,,,,,,,,,,,,,,,,,,,,,,,,,,,,,,,,,,,,,,,,,,,,,,,,,,,,,,,,,,,,,,,,,,,,,,,,,,,,,,,,,,,,,,,,,,,,,,,,,,,,,,,,,,,,,,,,,,,,,,,,,,,,,,,,,,,,,,
,,61073e6d38111b5924507b77,2024-02-21_21h27.53.489,kallum_motion_pilot,2023.2.2,Win32,60.24096386,61073e6d38111b5924507b77,65d6bb0e977760de756971f7,65d6bf0d3f7d9a4dcc97f339,0.0201,0.0201,0,42,42,6,1,fourtwo,,,,,,,,,,,,,,,,,,,,,,,,,,,,,,,,,,,,,,,,,,,,,,,,,,,,,,,,,,,,,,,,,,,,,,,,,,,,,,,,,,,,,,,,,,,,,,,,,,,,,,,,,,,,,,,,,,,,,,,,,,,,,,,,,,,,,,,,,
,,61073e6d38111b5924507b77,2024-02-21_21h27.53.489,kallum_motion_pilot,2023.2.2,Win32,60.24096386,61073e6d38111b5924507b77,65d6bb0e977760de756971f7,65d6bf0d3f7d9a4dcc97f339,0.0202,0.0202,0,43,43,72,1,onetwo,,,,,,,,,,,,,,,,,,,,,,,,,,,,,,,,,,,,,,,,,,,,,,,,,,,,,,,,,,,,,,,,,,,,,,,,,,,,,,,,,,,,,,,,,,,,,,,,,,,,,,,,,,,,,,,,,,,,,,,,,,,,,,,,,,,,,,,,,
,,61073e6d38111b5924507b77,2024-02-21_21h27.53.489,kallum_motion_pilot,2023.2.2,Win32,60.24096386,61073e6d38111b5924507b77,65d6bb0e977760de756971f7,65d6bf0d3f7d9a4dcc97f339,0.0202,0.0202,0,44,44,90,1,sixfive,,,,,,,,,,,,,,,,,,,,,,,,,,,,,,,,,,,,,,,,,,,,,,,,,,,,,,,,,,,,,,,,,,,,,,,,,,,,,,,,,,,,,,,,,,,,,,,,,,,,,,,,,,,,,,,,,,,,,,,,,,,,,,,,,,,,,,,,,
,,61073e6d38111b5924507b77,2024-02-21_21h27.53.489,kallum_motion_pilot,2023.2.2,Win32,60.24096386,61073e6d38111b5924507b77,65d6bb0e977760de756971f7,65d6bf0d3f7d9a4dcc97f339,0.0203,0.0203,0,45,45,49,1,onethree,,,,,,,,,,,,,,,,,,,,,,,,,,,,,,,,,,,,,,,,,,,,,,,,,,,,,,,,,,,,,,,,,,,,,,,,,,,,,,,,,,,,,,,,,,,,,,,,,,,,,,,,,,,,,,,,,,,,,,,,,,,,,,,,,,,,,,,,,
,,61073e6d38111b5924507b77,2024-02-21_21h27.53.489,kallum_motion_pilot,2023.2.2,Win32,60.24096386,61073e6d38111b5924507b77,65d6bb0e977760de756971f7,65d6bf0d3f7d9a4dcc97f339,0.0203,0.0203,0,46,46,26,1,twoone,,,,,,,,,,,,,,,,,,,,,,,,,,,,,,,,,,,,,,,,,,,,,,,,,,,,,,,,,,,,,,,,,,,,,,,,,,,,,,,,,,,,,,,,,,,,,,,,,,,,,,,,,,,,,,,,,,,,,,,,,,,,,,,,,,,,,,,,,
,,61073e6d38111b5924507b77,2024-02-21_21h27.53.489,kallum_motion_pilot,2023.2.2,Win32,60.24096386,61073e6d38111b5924507b77,65d6bb0e977760de756971f7,65d6bf0d3f7d9a4dcc97f339,0.0204,0.0204,0,47,47,152,1,fivesix,,,,,,,,,,,,,,,,,,,,,,,,,,,,,,,,,,,,,,,,,,,,,,,,,,,,,,,,,,,,,,,,,,,,,,,,,,,,,,,,,,,,,,,,,,,,,,,,,,,,,,,,,,,,,,,,,,,,,,,,,,,,,,,,,,,,,,,,,
,,61073e6d38111b5924507b77,2024-02-21_21h27.53.489,kallum_motion_pilot,2023.2.2,Win32,60.24096386,61073e6d38111b5924507b77,65d6bb0e977760de756971f7,65d6bf0d3f7d9a4dcc97f339,0.0204,0.0205,0,48,48,120,1,fivesix,,,,,,,,,,,,,,,,,,,,,,,,,,,,,,,,,,,,,,,,,,,,,,,,,,,,,,,,,,,,,,,,,,,,,,,,,,,,,,,,,,,,,,,,,,,,,,,,,,,,,,,,,,,,,,,,,,,,,,,,,,,,,,,,,,,,,,,,,
,,61073e6d38111b5924507b77,2024-02-21_21h27.53.489,kallum_motion_pilot,2023.2.2,Win32,60.24096386,61073e6d38111b5924507b77,65d6bb0e977760de756971f7,65d6bf0d3f7d9a4dcc97f339,0.0205,0.0205,0,49,49,147,1,sixeight,,,,,,,,,,,,,,,,,,,,,,,,,,,,,,,,,,,,,,,,,,,,,,,,,,,,,,,,,,,,,,,,,,,,,,,,,,,,,,,,,,,,,,,,,,,,,,,,,,,,,,,,,,,,,,,,,,,,,,,,,,,,,,,,,,,,,,,,,
,,61073e6d38111b5924507b77,2024-02-21_21h27.53.489,kallum_motion_pilot,2023.2.2,Win32,60.24096386,61073e6d38111b5924507b77,65d6bb0e977760de756971f7,65d6bf0d3f7d9a4dcc97f339,0.0206,0.0206,0,50,50,76,1,threeone,,,,,,,,,,,,,,,,,,,,,,,,,,,,,,,,,,,,,,,,,,,,,,,,,,,,,,,,,,,,,,,,,,,,,,,,,,,,,,,,,,,,,,,,,,,,,,,,,,,,,,,,,,,,,,,,,,,,,,,,,,,,,,,,,,,,,,,,,
,,61073e6d38111b5924507b77,2024-02-21_21h27.53.489,kallum_motion_pilot,2023.2.2,Win32,60.24096386,61073e6d38111b5924507b77,65d6bb0e977760de756971f7,65d6bf0d3f7d9a4dcc97f339,0.0206,0.0207,0,51,51,16,1,onetwo,,,,,,,,,,,,,,,,,,,,,,,,,,,,,,,,,,,,,,,,,,,,,,,,,,,,,,,,,,,,,,,,,,,,,,,,,,,,,,,,,,,,,,,,,,,,,,,,,,,,,,,,,,,,,,,,,,,,,,,,,,,,,,,,,,,,,,,,,
,,61073e6d38111b5924507b77,2024-02-21_21h27.53.489,kallum_motion_pilot,2023.2.2,Win32,60.24096386,61073e6d38111b5924507b77,65d6bb0e977760de756971f7,65d6bf0d3f7d9a4dcc97f339,0.0207,0.0207,0,52,52,56,1,onetwo,,,,,,,,,,,,,,,,,,,,,,,,,,,,,,,,,,,,,,,,,,,,,,,,,,,,,,,,,,,,,,,,,,,,,,,,,,,,,,,,,,,,,,,,,,,,,,,,,,,,,,,,,,,,,,,,,,,,,,,,,,,,,,,,,,,,,,,,,
,,61073e6d38111b5924507b77,2024-02-21_21h27.53.489,kallum_motion_pilot,2023.2.2,Win32,60.24096386,61073e6d38111b5924507b77,65d6bb0e977760de756971f7,65d6bf0d3f7d9a4dcc97f339,0.0208,0.0208,0,53,53,112,1,fivesix,,,,,,,,,,,,,,,,,,,,,,,,,,,,,,,,,,,,,,,,,,,,,,,,,,,,,,,,,,,,,,,,,,,,,,,,,,,,,,,,,,,,,,,,,,,,,,,,,,,,,,,,,,,,,,,,,,,,,,,,,,,,,,,,,,,,,,,,,
,,61073e6d38111b5924507b77,2024-02-21_21h27.53.489,kallum_motion_pilot,2023.2.2,Win32,60.24096386,61073e6d38111b5924507b77,65d6bb0e977760de756971f7,65d6bf0d3f7d9a4dcc97f339,0.0208,0.0208,0,54,54,4,1,threeone,,,,,,,,,,,,,,,,,,,,,,,,,,,,,,,,,,,,,,,,,,,,,,,,,,,,,,,,,,,,,,,,,,,,,,,,,,,,,,,,,,,,,,,,,,,,,,,,,,,,,,,,,,,,,,,,,,,,,,,,,,,,,,,,,,,,,,,,,
,,61073e6d38111b5924507b77,2024-02-21_21h27.53.489,kallum_motion_pilot,2023.2.2,Win32,60.24096386,61073e6d38111b5924507b77,65d6bb0e977760de756971f7,65d6bf0d3f7d9a4dcc97f339,0.0209,0.0209,0,55,55,29,1,threefour,,,,,,,,,,,,,,,,,,,,,,,,,,,,,,,,,,,,,,,,,,,,,,,,,,,,,,,,,,,,,,,,,,,,,,,,,,,,,,,,,,,,,,,,,,,,,,,,,,,,,,,,,,,,,,,,,,,,,,,,,,,,,,,,,,,,,,,,,
,,61073e6d38111b5924507b77,2024-02-21_21h27.53.489,kallum_motion_pilot,2023.2.2,Win32,60.24096386,61073e6d38111b5924507b77,65d6bb0e977760de756971f7,65d6bf0d3f7d9a4dcc97f339,0.0209,0.021,0,56,56,156,1,sevenfive,,,,,,,,,,,,,,,,,,,,,,,,,,,,,,,,,,,,,,,,,,,,,,,,,,,,,,,,,,,,,,,,,,,,,,,,,,,,,,,,,,,,,,,,,,,,,,,,,,,,,,,,,,,,,,,,,,,,,,,,,,,,,,,,,,,,,,,,,
,,61073e6d38111b5924507b77,2024-02-21_21h27.53.489,kallum_motion_pilot,2023.2.2,Win32,60.24096386,61073e6d38111b5924507b77,65d6bb0e977760de756971f7,65d6bf0d3f7d9a4dcc97f339,0.021,0.021,0,57,57,63,1,fourthree,,,,,,,,,,,,,,,,,,,,,,,,,,,,,,,,,,,,,,,,,,,,,,,,,,,,,,,,,,,,,,,,,,,,,,,,,,,,,,,,,,,,,,,,,,,,,,,,,,,,,,,,,,,,,,,,,,,,,,,,,,,,,,,,,,,,,,,,,
,,61073e6d38111b5924507b77,2024-02-21_21h27.53.489,kallum_motion_pilot,2023.2.2,Win32,60.24096386,61073e6d38111b5924507b77,65d6bb0e977760de756971f7,65d6bf0d3f7d9a4dcc97f339,0.0211,0.0211,0,58,58,114,1,sixfive,,,,,,,,,,,,,,,,,,,,,,,,,,,,,,,,,,,,,,,,,,,,,,,,,,,,,,,,,,,,,,,,,,,,,,,,,,,,,,,,,,,,,,,,,,,,,,,,,,,,,,,,,,,,,,,,,,,,,,,,,,,,,,,,,,,,,,,,,
,,61073e6d38111b5924507b77,2024-02-21_21h27.53.489,kallum_motion_pilot,2023.2.2,Win32,60.24096386,61073e6d38111b5924507b77,65d6bb0e977760de756971f7,65d6bf0d3f7d9a4dcc97f339,0.0211,0.0211,0,59,59,132,1,sevenfive,,,,,,,,,,,,,,,,,,,,,,,,,,,,,,,,,,,,,,,,,,,,,,,,,,,,,,,,,,,,,,,,,,,,,,,,,,,,,,,,,,,,,,,,,,,,,,,,,,,,,,,,,,,,,,,,,,,,,,,,,,,,,,,,,,,,,,,,,
,,61073e6d38111b5924507b77,2024-02-21_21h27.53.489,kallum_motion_pilot,2023.2.2,Win32,60.24096386,61073e6d38111b5924507b77,65d6bb0e977760de756971f7,65d6bf0d3f7d9a4dcc97f339,0.0211,0.0212,0,60,60,116,1,sevenfive,,,,,,,,,,,,,,,,,,,,,,,,,,,,,,,,,,,,,,,,,,,,,,,,,,,,,,,,,,,,,,,,,,,,,,,,,,,,,,,,,,,,,,,,,,,,,,,,,,,,,,,,,,,,,,,,,,,,,,,,,,,,,,,,,,,,,,,,,
,,61073e6d38111b5924507b77,2024-02-21_21h27.53.489,kallum_motion_pilot,2023.2.2,Win32,60.24096386,61073e6d38111b5924507b77,65d6bb0e977760de756971f7,65d6bf0d3f7d9a4dcc97f339,0.0212,0.0212,0,61,61,102,1,eightsix,,,,,,,,,,,,,,,,,,,,,,,,,,,,,,,,,,,,,,,,,,,,,,,,,,,,,,,,,,,,,,,,,,,,,,,,,,,,,,,,,,,,,,,,,,,,,,,,,,,,,,,,,,,,,,,,,,,,,,,,,,,,,,,,,,,,,,,,,
,,61073e6d38111b5924507b77,2024-02-21_21h27.53.489,kallum_motion_pilot,2023.2.2,Win32,60.24096386,61073e6d38111b5924507b77,65d6bb0e977760de756971f7,65d6bf0d3f7d9a4dcc97f339,0.0212,0.0213,0,62,62,104,1,fivesix,,,,,,,,,,,,,,,,,,,,,,,,,,,,,,,,,,,,,,,,,,,,,,,,,,,,,,,,,,,,,,,,,,,,,,,,,,,,,,,,,,,,,,,,,,,,,,,,,,,,,,,,,,,,,,,,,,,,,,,,,,,,,,,,,,,,,,,,,
,,61073e6d38111b5924507b77,2024-02-21_21h27.53.489,kallum_motion_pilot,2023.2.2,Win32,60.24096386,61073e6d38111b5924507b77,65d6bb0e977760de756971f7,65d6bf0d3f7d9a4dcc97f339,0.0214,0.0214,0,63,63,124,1,sevenfive,,,,,,,,,,,,,,,,,,,,,,,,,,,,,,,,,,,,,,,,,,,,,,,,,,,,,,,,,,,,,,,,,,,,,,,,,,,,,,,,,,,,,,,,,,,,,,,,,,,,,,,,,,,,,,,,,,,,,,,,,,,,,,,,,,,,,,,,,
,,61073e6d38111b5924507b77,2024-02-21_21h27.53.489,kallum_motion_pilot,2023.2.2,Win32,60.24096386,61073e6d38111b5924507b77,65d6bb0e977760de756971f7,65d6bf0d3f7d9a4dcc97f339,0.0214,0.0214,0,64,64,83,1,sixeight,,,,,,,,,,,,,,,,,,,,,,,,,,,,,,,,,,,,,,,,,,,,,,,,,,,,,,,,,,,,,,,,,,,,,,,,,,,,,,,,,,,,,,,,,,,,,,,,,,,,,,,,,,,,,,,,,,,,,,,,,,,,,,,,,,,,,,,,,
,,61073e6d38111b5924507b77,2024-02-21_21h27.53.489,kallum_motion_pilot,2023.2.2,Win32,60.24096386,61073e6d38111b5924507b77,65d6bb0e977760de756971f7,65d6bf0d3f7d9a4dcc97f339,0.0215,0.0215,0,65,65,123,1,sixeight,,,,,,,,,,,,,,,,,,,,,,,,,,,,,,,,,,,,,,,,,,,,,,,,,,,,,,,,,,,,,,,,,,,,,,,,,,,,,,,,,,,,,,,,,,,,,,,,,,,,,,,,,,,,,,,,,,,,,,,,,,,,,,,,,,,,,,,,,
,,61073e6d38111b5924507b77,2024-02-21_21h27.53.489,kallum_motion_pilot,2023.2.2,Win32,60.24096386,61073e6d38111b5924507b77,65d6bb0e977760de756971f7,65d6bf0d3f7d9a4dcc97f339,0.0215,0.0215,0,66,66,155,1,sixeight,,,,,,,,,,,,,,,,,,,,,,,,,,,,,,,,,,,,,,,,,,,,,,,,,,,,,,,,,,,,,,,,,,,,,,,,,,,,,,,,,,,,,,,,,,,,,,,,,,,,,,,,,,,,,,,,,,,,,,,,,,,,,,,,,,,,,,,,,
,,61073e6d38111b5924507b77,2024-02-21_21h27.53.489,kallum_motion_pilot,2023.2.2,Win32,60.24096386,61073e6d38111b5924507b77,65d6bb0e977760de756971f7,65d6bf0d3f7d9a4dcc97f339,0.0216,0.0216,0,67,67,20,1,threeone,,,,,,,,,,,,,,,,,,,,,,,,,,,,,,,,,,,,,,,,,,,,,,,,,,,,,,,,,,,,,,,,,,,,,,,,,,,,,,,,,,,,,,,,,,,,,,,,,,,,,,,,,,,,,,,,,,,,,,,,,,,,,,,,,,,,,,,,,
,,61073e6d38111b5924507b77,2024-02-21_21h27.53.489,kallum_motion_pilot,2023.2.2,Win32,60.24096386,61073e6d38111b5924507b77,65d6bb0e977760de756971f7,65d6bf0d3f7d9a4dcc97f339,0.0216,0.0217,0,68,68,21,1,threefour,,,,,,,,,,,,,,,,,,,,,,,,,,,,,,,,,,,,,,,,,,,,,,,,,,,,,,,,,,,,,,,,,,,,,,,,,,,,,,,,,,,,,,,,,,,,,,,,,,,,,,,,,,,,,,,,,,,,,,,,,,,,,,,,,,,,,,,,,
,,61073e6d38111b5924507b77,2024-02-21_21h27.53.489,kallum_motion_pilot,2023.2.2,Win32,60.24096386,61073e6d38111b5924507b77,65d6bb0e977760de756971f7,65d6bf0d3f7d9a4dcc97f339,0.0218,0.0218,0,69,69,5,1,threefour,,,,,,,,,,,,,,,,,,,,,,,,,,,,,,,,,,,,,,,,,,,,,,,,,,,,,,,,,,,,,,,,,,,,,,,,,,,,,,,,,,,,,,,,,,,,,,,,,,,,,,,,,,,,,,,,,,,,,,,,,,,,,,,,,,,,,,,,,
,,61073e6d38111b5924507b77,2024-02-21_21h27.53.489,kallum_motion_pilot,2023.2.2,Win32,60.24096386,61073e6d38111b5924507b77,65d6bb0e977760de756971f7,65d6bf0d3f7d9a4dcc97f339,0.0218,0.0218,0,70,70,117,1,seveneight,,,,,,,,,,,,,,,,,,,,,,,,,,,,,,,,,,,,,,,,,,,,,,,,,,,,,,,,,,,,,,,,,,,,,,,,,,,,,,,,,,,,,,,,,,,,,,,,,,,,,,,,,,,,,,,,,,,,,,,,,,,,,,,,,,,,,,,,,
,,61073e6d38111b5924507b77,2024-02-21_21h27.53.489,kallum_motion_pilot,2023.2.2,Win32,60.24096386,61073e6d38111b5924507b77,65d6bb0e977760de756971f7,65d6bf0d3f7d9a4dcc97f339,0.0219,0.0219,0,71,71,128,1,fivesix,,,,,,,,,,,,,,,,,,,,,,,,,,,,,,,,,,,,,,,,,,,,,,,,,,,,,,,,,,,,,,,,,,,,,,,,,,,,,,,,,,,,,,,,,,,,,,,,,,,,,,,,,,,,,,,,,,,,,,,,,,,,,,,,,,,,,,,,,
,,61073e6d38111b5924507b77,2024-02-21_21h27.53.489,kallum_motion_pilot,2023.2.2,Win32,60.24096386,61073e6d38111b5924507b77,65d6bb0e977760de756971f7,65d6bf0d3f7d9a4dcc97f339,0.0219,0.022,0,72,72,40,1,onetwo,,,,,,,,,,,,,,,,,,,,,,,,,,,,,,,,,,,,,,,,,,,,,,,,,,,,,,,,,,,,,,,,,,,,,,,,,,,,,,,,,,,,,,,,,,,,,,,,,,,,,,,,,,,,,,,,,,,,,,,,,,,,,,,,,,,,,,,,,
,,61073e6d38111b5924507b77,2024-02-21_21h27.53.489,kallum_motion_pilot,2023.2.2,Win32,60.24096386,61073e6d38111b5924507b77,65d6bb0e977760de756971f7,65d6bf0d3f7d9a4dcc97f339,0.022,0.022,0,73,73,24,1,onetwo,,,,,,,,,,,,,,,,,,,,,,,,,,,,,,,,,,,,,,,,,,,,,,,,,,,,,,,,,,,,,,,,,,,,,,,,,,,,,,,,,,,,,,,,,,,,,,,,,,,,,,,,,,,,,,,,,,,,,,,,,,,,,,,,,,,,,,,,,
,,61073e6d38111b5924507b77,2024-02-21_21h27.53.489,kallum_motion_pilot,2023.2.2,Win32,60.24096386,61073e6d38111b5924507b77,65d6bb0e977760de756971f7,65d6bf0d3f7d9a4dcc97f339,0.0221,0.0221,0,74,74,97,1,fiveseven,,,,,,,,,,,,,,,,,,,,,,,,,,,,,,,,,,,,,,,,,,,,,,,,,,,,,,,,,,,,,,,,,,,,,,,,,,,,,,,,,,,,,,,,,,,,,,,,,,,,,,,,,,,,,,,,,,,,,,,,,,,,,,,,,,,,,,,,,
,,61073e6d38111b5924507b77,2024-02-21_21h27.53.489,kallum_motion_pilot,2023.2.2,Win32,60.24096386,61073e6d38111b5924507b77,65d6bb0e977760de756971f7,65d6bf0d3f7d9a4dcc97f339,0.0221,0.0221,0,75,75,77,1,threefour,,,,,,,,,,,,,,,,,,,,,,,,,,,,,,,,,,,,,,,,,,,,,,,,,,,,,,,,,,,,,,,,,,,,,,,,,,,,,,,,,,,,,,,,,,,,,,,,,,,,,,,,,,,,,,,,,,,,,,,,,,,,,,,,,,,,,,,,,
,,61073e6d38111b5924507b77,2024-02-21_21h27.53.489,kallum_motion_pilot,2023.2.2,Win32,60.24096386,61073e6d38111b5924507b77,65d6bb0e977760de756971f7,65d6bf0d3f7d9a4dcc97f339,0.0222,0.0222,0,76,76,45,1,threefour,,,,,,,,,,,,,,,,,,,,,,,,,,,,,,,,,,,,,,,,,,,,,,,,,,,,,,,,,,,,,,,,,,,,,,,,,,,,,,,,,,,,,,,,,,,,,,,,,,,,,,,,,,,,,,,,,,,,,,,,,,,,,,,,,,,,,,,,,
,,61073e6d38111b5924507b77,2024-02-21_21h27.53.489,kallum_motion_pilot,2023.2.2,Win32,60.24096386,61073e6d38111b5924507b77,65d6bb0e977760de756971f7,65d6bf0d3f7d9a4dcc97f339,0.0222,0.0223,0,77,77,8,1,onetwo,,,,,,,,,,,,,,,,,,,,,,,,,,,,,,,,,,,,,,,,,,,,,,,,,,,,,,,,,,,,,,,,,,,,,,,,,,,,,,,,,,,,,,,,,,,,,,,,,,,,,,,,,,,,,,,,,,,,,,,,,,,,,,,,,,,,,,,,,
,,61073e6d38111b5924507b77,2024-02-21_21h27.53.489,kallum_motion_pilot,2023.2.2,Win32,60.24096386,61073e6d38111b5924507b77,65d6bb0e977760de756971f7,65d6bf0d3f7d9a4dcc97f339,0.0224,0.0224,0,78,78,73,1,onethree,,,,,,,,,,,,,,,,,,,,,,,,,,,,,,,,,,,,,,,,,,,,,,,,,,,,,,,,,,,,,,,,,,,,,,,,,,,,,,,,,,,,,,,,,,,,,,,,,,,,,,,,,,,,,,,,,,,,,,,,,,,,,,,,,,,,,,,,,
,,61073e6d38111b5924507b77,2024-02-21_21h27.53.489,kallum_motion_pilot,2023.2.2,Win32,60.24096386,61073e6d38111b5924507b77,65d6bb0e977760de756971f7,65d6bf0d3f7d9a4dcc97f339,0.0229,0.0229,0,79,79,36,1,threeone,,,,,,,,,,,,,,,,,,,,,,,,,,,,,,,,,,,,,,,,,,,,,,,,,,,,,,,,,,,,,,,,,,,,,,,,,,,,,,,,,,,,,,,,,,,,,,,,,,,,,,,,,,,,,,,,,,,,,,,,,,,,,,,,,,,,,,,,,
,,61073e6d38111b5924507b77,2024-02-21_21h27.53.489,kallum_motion_pilot,2023.2.2,Win32,60.24096386,61073e6d38111b5924507b77,65d6bb0e977760de756971f7,65d6bf0d3f7d9a4dcc97f339,0.0229,0.0229,0,80,80,151,1,eightseven,,,,,,,,,,,,,,,,,,,,,,,,,,,,,,,,,,,,,,,,,,,,,,,,,,,,,,,,,,,,,,,,,,,,,,,,,,,,,,,,,,,,,,,,,,,,,,,,,,,,,,,,,,,,,,,,,,,,,,,,,,,,,,,,,,,,,,,,,
,,61073e6d38111b5924507b77,2024-02-21_21h27.53.489,kallum_motion_pilot,2023.2.2,Win32,60.24096386,61073e6d38111b5924507b77,65d6bb0e977760de756971f7,65d6bf0d3f7d9a4dcc97f339,0.023,0.023,0,81,81,64,1,onetwo,,,,,,,,,,,,,,,,,,,,,,,,,,,,,,,,,,,,,,,,,,,,,,,,,,,,,,,,,,,,,,,,,,,,,,,,,,,,,,,,,,,,,,,,,,,,,,,,,,,,,,,,,,,,,,,,,,,,,,,,,,,,,,,,,,,,,,,,,
,,61073e6d38111b5924507b77,2024-02-21_21h27.53.489,kallum_motion_pilot,2023.2.2,Win32,60.24096386,61073e6d38111b5924507b77,65d6bb0e977760de756971f7,65d6bf0d3f7d9a4dcc97f339,0.023,0.023,0,82,82,79,1,eightseven,,,,,,,,,,,,,,,,,,,,,,,,,,,,,,,,,,,,,,,,,,,,,,,,,,,,,,,,,,,,,,,,,,,,,,,,,,,,,,,,,,,,,,,,,,,,,,,,,,,,,,,,,,,,,,,,,,,,,,,,,,,,,,,,,,,,,,,,,
,,61073e6d38111b5924507b77,2024-02-21_21h27.53.489,kallum_motion_pilot,2023.2.2,Win32,60.24096386,61073e6d38111b5924507b77,65d6bb0e977760de756971f7,65d6bf0d3f7d9a4dcc97f339,0.0232,0.0232,0,83,83,61,1,threefour,,,,,,,,,,,,,,,,,,,,,,,,,,,,,,,,,,,,,,,,,,,,,,,,,,,,,,,,,,,,,,,,,,,,,,,,,,,,,,,,,,,,,,,,,,,,,,,,,,,,,,,,,,,,,,,,,,,,,,,,,,,,,,,,,,,,,,,,,
,,61073e6d38111b5924507b77,2024-02-21_21h27.53.489,kallum_motion_pilot,2023.2.2,Win32,60.24096386,61073e6d38111b5924507b77,65d6bb0e977760de756971f7,65d6bf0d3f7d9a4dcc97f339,0.0232,0.0232,0,84,84,154,1,sixfive,,,,,,,,,,,,,,,,,,,,,,,,,,,,,,,,,,,,,,,,,,,,,,,,,,,,,,,,,,,,,,,,,,,,,,,,,,,,,,,,,,,,,,,,,,,,,,,,,,,,,,,,,,,,,,,,,,,,,,,,,,,,,,,,,,,,,,,,,
,,61073e6d38111b5924507b77,2024-02-21_21h27.53.489,kallum_motion_pilot,2023.2.2,Win32,60.24096386,61073e6d38111b5924507b77,65d6bb0e977760de756971f7,65d6bf0d3f7d9a4dcc97f339,0.0233,0.0233,0,85,85,127,1,eightseven,,,,,,,,,,,,,,,,,,,,,,,,,,,,,,,,,,,,,,,,,,,,,,,,,,,,,,,,,,,,,,,,,,,,,,,,,,,,,,,,,,,,,,,,,,,,,,,,,,,,,,,,,,,,,,,,,,,,,,,,,,,,,,,,,,,,,,,,,
,,61073e6d38111b5924507b77,2024-02-21_21h27.53.489,kallum_motion_pilot,2023.2.2,Win32,60.24096386,61073e6d38111b5924507b77,65d6bb0e977760de756971f7,65d6bf0d3f7d9a4dcc97f339,0.0233,0.0233,0,86,86,27,1,twofour,,,,,,,,,,,,,,,,,,,,,,,,,,,,,,,,,,,,,,,,,,,,,,,,,,,,,,,,,,,,,,,,,,,,,,,,,,,,,,,,,,,,,,,,,,,,,,,,,,,,,,,,,,,,,,,,,,,,,,,,,,,,,,,,,,,,,,,,,
,,61073e6d38111b5924507b77,2024-02-21_21h27.53.489,kallum_motion_pilot,2023.2.2,Win32,60.24096386,61073e6d38111b5924507b77,65d6bb0e977760de756971f7,65d6bf0d3f7d9a4dcc97f339,0.0234,0.0234,0,87,87,133,1,seveneight,,,,,,,,,,,,,,,,,,,,,,,,,,,,,,,,,,,,,,,,,,,,,,,,,,,,,,,,,,,,,,,,,,,,,,,,,,,,,,,,,,,,,,,,,,,,,,,,,,,,,,,,,,,,,,,,,,,,,,,,,,,,,,,,,,,,,,,,,
,,61073e6d38111b5924507b77,2024-02-21_21h27.53.489,kallum_motion_pilot,2023.2.2,Win32,60.24096386,61073e6d38111b5924507b77,65d6bb0e977760de756971f7,65d6bf0d3f7d9a4dcc97f339,0.0235,0.0236,0,88,88,9,1,onethree,,,,,,,,,,,,,,,,,,,,,,,,,,,,,,,,,,,,,,,,,,,,,,,,,,,,,,,,,,,,,,,,,,,,,,,,,,,,,,,,,,,,,,,,,,,,,,,,,,,,,,,,,,,,,,,,,,,,,,,,,,,,,,,,,,,,,,,,,
,,61073e6d38111b5924507b77,2024-02-21_21h27.53.489,kallum_motion_pilot,2023.2.2,Win32,60.24096386,61073e6d38111b5924507b77,65d6bb0e977760de756971f7,65d6bf0d3f7d9a4dcc97f339,0.0236,0.0236,0,89,89,153,1,fiveseven,,,,,,,,,,,,,,,,,,,,,,,,,,,,,,,,,,,,,,,,,,,,,,,,,,,,,,,,,,,,,,,,,,,,,,,,,,,,,,,,,,,,,,,,,,,,,,,,,,,,,,,,,,,,,,,,,,,,,,,,,,,,,,,,,,,,,,,,,
,,61073e6d38111b5924507b77,2024-02-21_21h27.53.489,kallum_motion_pilot,2023.2.2,Win32,60.24096386,61073e6d38111b5924507b77,65d6bb0e977760de756971f7,65d6bf0d3f7d9a4dcc97f339,0.0236,0.0236,0,90,90,69,1,threefour,,,,,,,,,,,,,,,,,,,,,,,,,,,,,,,,,,,,,,,,,,,,,,,,,,,,,,,,,,,,,,,,,,,,,,,,,,,,,,,,,,,,,,,,,,,,,,,,,,,,,,,,,,,,,,,,,,,,,,,,,,,,,,,,,,,,,,,,,
,,61073e6d38111b5924507b77,2024-02-21_21h27.53.489,kallum_motion_pilot,2023.2.2,Win32,60.24096386,61073e6d38111b5924507b77,65d6bb0e977760de756971f7,65d6bf0d3f7d9a4dcc97f339,0.0237,0.0237,0,91,91,96,1,fivesix,,,,,,,,,,,,,,,,,,,,,,,,,,,,,,,,,,,,,,,,,,,,,,,,,,,,,,,,,,,,,,,,,,,,,,,,,,,,,,,,,,,,,,,,,,,,,,,,,,,,,,,,,,,,,,,,,,,,,,,,,,,,,,,,,,,,,,,,,
,,61073e6d38111b5924507b77,2024-02-21_21h27.53.489,kallum_motion_pilot,2023.2.2,Win32,60.24096386,61073e6d38111b5924507b77,65d6bb0e977760de756971f7,65d6bf0d3f7d9a4dcc97f339,0.0237,0.0238,0,92,92,44,1,threeone,,,,,,,,,,,,,,,,,,,,,,,,,,,,,,,,,,,,,,,,,,,,,,,,,,,,,,,,,,,,,,,,,,,,,,,,,,,,,,,,,,,,,,,,,,,,,,,,,,,,,,,,,,,,,,,,,,,,,,,,,,,,,,,,,,,,,,,,,
,,61073e6d38111b5924507b77,2024-02-21_21h27.53.489,kallum_motion_pilot,2023.2.2,Win32,60.24096386,61073e6d38111b5924507b77,65d6bb0e977760de756971f7,65d6bf0d3f7d9a4dcc97f339,0.0238,0.0238,0,93,93,71,1,fourthree,,,,,,,,,,,,,,,,,,,,,,,,,,,,,,,,,,,,,,,,,,,,,,,,,,,,,,,,,,,,,,,,,,,,,,,,,,,,,,,,,,,,,,,,,,,,,,,,,,,,,,,,,,,,,,,,,,,,,,,,,,,,,,,,,,,,,,,,,
,,61073e6d38111b5924507b77,2024-02-21_21h27.53.489,kallum_motion_pilot,2023.2.2,Win32,60.24096386,61073e6d38111b5924507b77,65d6bb0e977760de756971f7,65d6bf0d3f7d9a4dcc97f339,0.0239,0.024,0,94,94,38,1,fourtwo,,,,,,,,,,,,,,,,,,,,,,,,,,,,,,,,,,,,,,,,,,,,,,,,,,,,,,,,,,,,,,,,,,,,,,,,,,,,,,,,,,,,,,,,,,,,,,,,,,,,,,,,,,,,,,,,,,,,,,,,,,,,,,,,,,,,,,,,,
,,61073e6d38111b5924507b77,2024-02-21_21h27.53.489,kallum_motion_pilot,2023.2.2,Win32,60.24096386,61073e6d38111b5924507b77,65d6bb0e977760de756971f7,65d6bf0d3f7d9a4dcc97f339,0.024,0.024,0,95,95,161,1,fiveseven,,,,,,,,,,,,,,,,,,,,,,,,,,,,,,,,,,,,,,,,,,,,,,,,,,,,,,,,,,,,,,,,,,,,,,,,,,,,,,,,,,,,,,,,,,,,,,,,,,,,,,,,,,,,,,,,,,,,,,,,,,,,,,,,,,,,,,,,,
,,61073e6d38111b5924507b77,2024-02-21_21h27.53.489,kallum_motion_pilot,2023.2.2,Win32,60.24096386,61073e6d38111b5924507b77,65d6bb0e977760de756971f7,65d6bf0d3f7d9a4dcc97f339,0.024,0.024,0,96,96,28,1,threeone,,,,,,,,,,,,,,,,,,,,,,,,,,,,,,,,,,,,,,,,,,,,,,,,,,,,,,,,,,,,,,,,,,,,,,,,,,,,,,,,,,,,,,,,,,,,,,,,,,,,,,,,,,,,,,,,,,,,,,,,,,,,,,,,,,,,,,,,,
,,61073e6d38111b5924507b77,2024-02-21_21h27.53.489,kallum_motion_pilot,2023.2.2,Win32,60.24096386,61073e6d38111b5924507b77,65d6bb0e977760de756971f7,65d6bf0d3f7d9a4dcc97f339,0.024,0.0242,0,97,97,94,1,eightsix,,,,,,,,,,,,,,,,,,,,,,,,,,,,,,,,,,,,,,,,,,,,,,,,,,,,,,,,,,,,,,,,,,,,,,,,,,,,,,,,,,,,,,,,,,,,,,,,,,,,,,,,,,,,,,,,,,,,,,,,,,,,,,,,,,,,,,,,,
,,61073e6d38111b5924507b77,2024-02-21_21h27.53.489,kallum_motion_pilot,2023.2.2,Win32,60.24096386,61073e6d38111b5924507b77,65d6bb0e977760de756971f7,65d6bf0d3f7d9a4dcc97f339,0.0242,0.0242,0,98,98,53,1,threefour,,,,,,,,,,,,,,,,,,,,,,,,,,,,,,,,,,,,,,,,,,,,,,,,,,,,,,,,,,,,,,,,,,,,,,,,,,,,,,,,,,,,,,,,,,,,,,,,,,,,,,,,,,,,,,,,,,,,,,,,,,,,,,,,,,,,,,,,,
,,61073e6d38111b5924507b77,2024-02-21_21h27.53.489,kallum_motion_pilot,2023.2.2,Win32,60.24096386,61073e6d38111b5924507b77,65d6bb0e977760de756971f7,65d6bf0d3f7d9a4dcc97f339,0.0242,0.0242,0,99,99,50,1,twoone,,,,,,,,,,,,,,,,,,,,,,,,,,,,,,,,,,,,,,,,,,,,,,,,,,,,,,,,,,,,,,,,,,,,,,,,,,,,,,,,,,,,,,,,,,,,,,,,,,,,,,,,,,,,,,,,,,,,,,,,,,,,,,,,,,,,,,,,,
,,61073e6d38111b5924507b77,2024-02-21_21h27.53.489,kallum_motion_pilot,2023.2.2,Win32,60.24096386,61073e6d38111b5924507b77,65d6bb0e977760de756971f7,65d6bf0d3f7d9a4dcc97f339,0.0243,0.0244,0,100,100,121,1,fiveseven,,,,,,,,,,,,,,,,,,,,,,,,,,,,,,,,,,,,,,,,,,,,,,,,,,,,,,,,,,,,,,,,,,,,,,,,,,,,,,,,,,,,,,,,,,,,,,,,,,,,,,,,,,,,,,,,,,,,,,,,,,,,,,,,,,,,,,,,,
,,61073e6d38111b5924507b77,2024-02-21_21h27.53.489,kallum_motion_pilot,2023.2.2,Win32,60.24096386,61073e6d38111b5924507b77,65d6bb0e977760de756971f7,65d6bf0d3f7d9a4dcc97f339,0.0244,0.0244,0,101,101,148,1,sevenfive,,,,,,,,,,,,,,,,,,,,,,,,,,,,,,,,,,,,,,,,,,,,,,,,,,,,,,,,,,,,,,,,,,,,,,,,,,,,,,,,,,,,,,,,,,,,,,,,,,,,,,,,,,,,,,,,,,,,,,,,,,,,,,,,,,,,,,,,,
,,61073e6d38111b5924507b77,2024-02-21_21h27.53.489,kallum_motion_pilot,2023.2.2,Win32,60.24096386,61073e6d38111b5924507b77,65d6bb0e977760de756971f7,65d6bf0d3f7d9a4dcc97f339,0.0244,0.0244,0,102,102,75,1,twofour,,,,,,,,,,,,,,,,,,,,,,,,,,,,,,,,,,,,,,,,,,,,,,,,,,,,,,,,,,,,,,,,,,,,,,,,,,,,,,,,,,,,,,,,,,,,,,,,,,,,,,,,,,,,,,,,,,,,,,,,,,,,,,,,,,,,,,,,,
,,61073e6d38111b5924507b77,2024-02-21_21h27.53.489,kallum_motion_pilot,2023.2.2,Win32,60.24096386,61073e6d38111b5924507b77,65d6bb0e977760de756971f7,65d6bf0d3f7d9a4dcc97f339,0.0245,0.0245,0,103,103,158,1,eightsix,,,,,,,,,,,,,,,,,,,,,,,,,,,,,,,,,,,,,,,,,,,,,,,,,,,,,,,,,,,,,,,,,,,,,,,,,,,,,,,,,,,,,,,,,,,,,,,,,,,,,,,,,,,,,,,,,,,,,,,,,,,,,,,,,,,,,,,,,
,,61073e6d38111b5924507b77,2024-02-21_21h27.53.489,kallum_motion_pilot,2023.2.2,Win32,60.24096386,61073e6d38111b5924507b77,65d6bb0e977760de756971f7,65d6bf0d3f7d9a4dcc97f339,0.0246,0.0246,0,104,104,57,1,onethree,,,,,,,,,,,,,,,,,,,,,,,,,,,,,,,,,,,,,,,,,,,,,,,,,,,,,,,,,,,,,,,,,,,,,,,,,,,,,,,,,,,,,,,,,,,,,,,,,,,,,,,,,,,,,,,,,,,,,,,,,,,,,,,,,,,,,,,,,
,,61073e6d38111b5924507b77,2024-02-21_21h27.53.489,kallum_motion_pilot,2023.2.2,Win32,60.24096386,61073e6d38111b5924507b77,65d6bb0e977760de756971f7,65d6bf0d3f7d9a4dcc97f339,0.0246,0.0247,0,105,105,68,1,threeone,,,,,,,,,,,,,,,,,,,,,,,,,,,,,,,,,,,,,,,,,,,,,,,,,,,,,,,,,,,,,,,,,,,,,,,,,,,,,,,,,,,,,,,,,,,,,,,,,,,,,,,,,,,,,,,,,,,,,,,,,,,,,,,,,,,,,,,,,
,,61073e6d38111b5924507b77,2024-02-21_21h27.53.489,kallum_motion_pilot,2023.2.2,Win32,60.24096386,61073e6d38111b5924507b77,65d6bb0e977760de756971f7,65d6bf0d3f7d9a4dcc97f339,0.0247,0.0247,0,106,106,17,1,onethree,,,,,,,,,,,,,,,,,,,,,,,,,,,,,,,,,,,,,,,,,,,,,,,,,,,,,,,,,,,,,,,,,,,,,,,,,,,,,,,,,,,,,,,,,,,,,,,,,,,,,,,,,,,,,,,,,,,,,,,,,,,,,,,,,,,,,,,,,
,,61073e6d38111b5924507b77,2024-02-21_21h27.53.489,kallum_motion_pilot,2023.2.2,Win32,60.24096386,61073e6d38111b5924507b77,65d6bb0e977760de756971f7,65d6bf0d3f7d9a4dcc97f339,0.0248,0.0248,0,107,107,130,1,sixfive,,,,,,,,,,,,,,,,,,,,,,,,,,,,,,,,,,,,,,,,,,,,,,,,,,,,,,,,,,,,,,,,,,,,,,,,,,,,,,,,,,,,,,,,,,,,,,,,,,,,,,,,,,,,,,,,,,,,,,,,,,,,,,,,,,,,,,,,,
,,61073e6d38111b5924507b77,2024-02-21_21h27.53.489,kallum_motion_pilot,2023.2.2,Win32,60.24096386,61073e6d38111b5924507b77,65d6bb0e977760de756971f7,65d6bf0d3f7d9a4dcc97f339,0.0249,0.0249,0,108,108,136,1,fivesix,,,,,,,,,,,,,,,,,,,,,,,,,,,,,,,,,,,,,,,,,,,,,,,,,,,,,,,,,,,,,,,,,,,,,,,,,,,,,,,,,,,,,,,,,,,,,,,,,,,,,,,,,,,,,,,,,,,,,,,,,,,,,,,,,,,,,,,,,
,,61073e6d38111b5924507b77,2024-02-21_21h27.53.489,kallum_motion_pilot,2023.2.2,Win32,60.24096386,61073e6d38111b5924507b77,65d6bb0e977760de756971f7,65d6bf0d3f7d9a4dcc97f339,0.0249,0.0249,0,109,109,80,1,fivesix,,,,,,,,,,,,,,,,,,,,,,,,,,,,,,,,,,,,,,,,,,,,,,,,,,,,,,,,,,,,,,,,,,,,,,,,,,,,,,,,,,,,,,,,,,,,,,,,,,,,,,,,,,,,,,,,,,,,,,,,,,,,,,,,,,,,,,,,,
,,61073e6d38111b5924507b77,2024-02-21_21h27.53.489,kallum_motion_pilot,2023.2.2,Win32,60.24096386,61073e6d38111b5924507b77,65d6bb0e977760de756971f7,65d6bf0d3f7d9a4dcc97f339,0.0249,0.025,0,110,110,42,1,twoone,,,,,,,,,,,,,,,,,,,,,,,,,,,,,,,,,,,,,,,,,,,,,,,,,,,,,,,,,,,,,,,,,,,,,,,,,,,,,,,,,,,,,,,,,,,,,,,,,,,,,,,,,,,,,,,,,,,,,,,,,,,,,,,,,,,,,,,,,
,,61073e6d38111b5924507b77,2024-02-21_21h27.53.489,kallum_motion_pilot,2023.2.2,Win32,60.24096386,61073e6d38111b5924507b77,65d6bb0e977760de756971f7,65d6bf0d3f7d9a4dcc97f339,0.025,0.025,0,111,111,113,1,fiveseven,,,,,,,,,,,,,,,,,,,,,,,,,,,,,,,,,,,,,,,,,,,,,,,,,,,,,,,,,,,,,,,,,,,,,,,,,,,,,,,,,,,,,,,,,,,,,,,,,,,,,,,,,,,,,,,,,,,,,,,,,,,,,,,,,,,,,,,,,
,,61073e6d38111b5924507b77,2024-02-21_21h27.53.489,kallum_motion_pilot,2023.2.2,Win32,60.24096386,61073e6d38111b5924507b77,65d6bb0e977760de756971f7,65d6bf0d3f7d9a4dcc97f339,0.0251,0.0252,0,112,112,22,1,fourtwo,,,,,,,,,,,,,,,,,,,,,,,,,,,,,,,,,,,,,,,,,,,,,,,,,,,,,,,,,,,,,,,,,,,,,,,,,,,,,,,,,,,,,,,,,,,,,,,,,,,,,,,,,,,,,,,,,,,,,,,,,,,,,,,,,,,,,,,,,
,,61073e6d38111b5924507b77,2024-02-21_21h27.53.489,kallum_motion_pilot,2023.2.2,Win32,60.24096386,61073e6d38111b5924507b77,65d6bb0e977760de756971f7,65d6bf0d3f7d9a4dcc97f339,0.0252,0.0252,0,113,113,119,1,eightseven,,,,,,,,,,,,,,,,,,,,,,,,,,,,,,,,,,,,,,,,,,,,,,,,,,,,,,,,,,,,,,,,,,,,,,,,,,,,,,,,,,,,,,,,,,,,,,,,,,,,,,,,,,,,,,,,,,,,,,,,,,,,,,,,,,,,,,,,,
,,61073e6d38111b5924507b77,2024-02-21_21h27.53.489,kallum_motion_pilot,2023.2.2,Win32,60.24096386,61073e6d38111b5924507b77,65d6bb0e977760de756971f7,65d6bf0d3f7d9a4dcc97f339,0.0252,0.0253,0,114,114,134,1,eightsix,,,,,,,,,,,,,,,,,,,,,,,,,,,,,,,,,,,,,,,,,,,,,,,,,,,,,,,,,,,,,,,,,,,,,,,,,,,,,,,,,,,,,,,,,,,,,,,,,,,,,,,,,,,,,,,,,,,,,,,,,,,,,,,,,,,,,,,,,
,,61073e6d38111b5924507b77,2024-02-21_21h27.53.489,kallum_motion_pilot,2023.2.2,Win32,60.24096386,61073e6d38111b5924507b77,65d6bb0e977760de756971f7,65d6bf0d3f7d9a4dcc97f339,0.0253,0.0253,0,115,115,159,1,eightseven,,,,,,,,,,,,,,,,,,,,,,,,,,,,,,,,,,,,,,,,,,,,,,,,,,,,,,,,,,,,,,,,,,,,,,,,,,,,,,,,,,,,,,,,,,,,,,,,,,,,,,,,,,,,,,,,,,,,,,,,,,,,,,,,,,,,,,,,,
,,61073e6d38111b5924507b77,2024-02-21_21h27.53.489,kallum_motion_pilot,2023.2.2,Win32,60.24096386,61073e6d38111b5924507b77,65d6bb0e977760de756971f7,65d6bf0d3f7d9a4dcc97f339,0.0254,0.0255,0,116,116,2,1,twoone,,,,,,,,,,,,,,,,,,,,,,,,,,,,,,,,,,,,,,,,,,,,,,,,,,,,,,,,,,,,,,,,,,,,,,,,,,,,,,,,,,,,,,,,,,,,,,,,,,,,,,,,,,,,,,,,,,,,,,,,,,,,,,,,,,,,,,,,,
,,61073e6d38111b5924507b77,2024-02-21_21h27.53.489,kallum_motion_pilot,2023.2.2,Win32,60.24096386,61073e6d38111b5924507b77,65d6bb0e977760de756971f7,65d6bf0d3f7d9a4dcc97f339,0.0255,0.0255,0,117,117,14,1,fourtwo,,,,,,,,,,,,,,,,,,,,,,,,,,,,,,,,,,,,,,,,,,,,,,,,,,,,,,,,,,,,,,,,,,,,,,,,,,,,,,,,,,,,,,,,,,,,,,,,,,,,,,,,,,,,,,,,,,,,,,,,,,,,,,,,,,,,,,,,,
,,61073e6d38111b5924507b77,2024-02-21_21h27.53.489,kallum_motion_pilot,2023.2.2,Win32,60.24096386,61073e6d38111b5924507b77,65d6bb0e977760de756971f7,65d6bf0d3f7d9a4dcc97f339,0.0256,0.0256,0,118,118,33,1,onethree,,,,,,,,,,,,,,,,,,,,,,,,,,,,,,,,,,,,,,,,,,,,,,,,,,,,,,,,,,,,,,,,,,,,,,,,,,,,,,,,,,,,,,,,,,,,,,,,,,,,,,,,,,,,,,,,,,,,,,,,,,,,,,,,,,,,,,,,,
,,61073e6d38111b5924507b77,2024-02-21_21h27.53.489,kallum_motion_pilot,2023.2.2,Win32,60.24096386,61073e6d38111b5924507b77,65d6bb0e977760de756971f7,65d6bf0d3f7d9a4dcc97f339,0.0256,0.0256,0,119,119,58,1,twoone,,,,,,,,,,,,,,,,,,,,,,,,,,,,,,,,,,,,,,,,,,,,,,,,,,,,,,,,,,,,,,,,,,,,,,,,,,,,,,,,,,,,,,,,,,,,,,,,,,,,,,,,,,,,,,,,,,,,,,,,,,,,,,,,,,,,,,,,,
,,61073e6d38111b5924507b77,2024-02-21_21h27.53.489,kallum_motion_pilot,2023.2.2,Win32,60.24096386,61073e6d38111b5924507b77,65d6bb0e977760de756971f7,65d6bf0d3f7d9a4dcc97f339,0.0257,0.0257,0,120,120,144,1,fivesix,,,,,,,,,,,,,,,,,,,,,,,,,,,,,,,,,,,,,,,,,,,,,,,,,,,,,,,,,,,,,,,,,,,,,,,,,,,,,,,,,,,,,,,,,,,,,,,,,,,,,,,,,,,,,,,,,,,,,,,,,,,,,,,,,,,,,,,,,
,,61073e6d38111b5924507b77,2024-02-21_21h27.53.489,kallum_motion_pilot,2023.2.2,Win32,60.24096386,61073e6d38111b5924507b77,65d6bb0e977760de756971f7,65d6bf0d3f7d9a4dcc97f339,0.0257,0.0258,0,121,121,108,1,sevenfive,,,,,,,,,,,,,,,,,,,,,,,,,,,,,,,,,,,,,,,,,,,,,,,,,,,,,,,,,,,,,,,,,,,,,,,,,,,,,,,,,,,,,,,,,,,,,,,,,,,,,,,,,,,,,,,,,,,,,,,,,,,,,,,,,,,,,,,,,
,,61073e6d38111b5924507b77,2024-02-21_21h27.53.489,kallum_motion_pilot,2023.2.2,Win32,60.24096386,61073e6d38111b5924507b77,65d6bb0e977760de756971f7,65d6bf0d3f7d9a4dcc97f339,0.0259,0.0259,0,122,122,138,1,sixfive,,,,,,,,,,,,,,,,,,,,,,,,,,,,,,,,,,,,,,,,,,,,,,,,,,,,,,,,,,,,,,,,,,,,,,,,,,,,,,,,,,,,,,,,,,,,,,,,,,,,,,,,,,,,,,,,,,,,,,,,,,,,,,,,,,,,,,,,,
,,61073e6d38111b5924507b77,2024-02-21_21h27.53.489,kallum_motion_pilot,2023.2.2,Win32,60.24096386,61073e6d38111b5924507b77,65d6bb0e977760de756971f7,65d6bf0d3f7d9a4dcc97f339,0.0259,0.0259,0,123,123,70,1,fourtwo,,,,,,,,,,,,,,,,,,,,,,,,,,,,,,,,,,,,,,,,,,,,,,,,,,,,,,,,,,,,,,,,,,,,,,,,,,,,,,,,,,,,,,,,,,,,,,,,,,,,,,,,,,,,,,,,,,,,,,,,,,,,,,,,,,,,,,,,,
,,61073e6d38111b5924507b77,2024-02-21_21h27.53.489,kallum_motion_pilot,2023.2.2,Win32,60.24096386,61073e6d38111b5924507b77,65d6bb0e977760de756971f7,65d6bf0d3f7d9a4dcc97f339,0.026,0.026,0,124,124,19,1,twofour,,,,,,,,,,,,,,,,,,,,,,,,,,,,,,,,,,,,,,,,,,,,,,,,,,,,,,,,,,,,,,,,,,,,,,,,,,,,,,,,,,,,,,,,,,,,,,,,,,,,,,,,,,,,,,,,,,,,,,,,,,,,,,,,,,,,,,,,,
,,61073e6d38111b5924507b77,2024-02-21_21h27.53.489,kallum_motion_pilot,2023.2.2,Win32,60.24096386,61073e6d38111b5924507b77,65d6bb0e977760de756971f7,65d6bf0d3f7d9a4dcc97f339,0.0261,0.0261,0,125,125,18,1,twoone,,,,,,,,,,,,,,,,,,,,,,,,,,,,,,,,,,,,,,,,,,,,,,,,,,,,,,,,,,,,,,,,,,,,,,,,,,,,,,,,,,,,,,,,,,,,,,,,,,,,,,,,,,,,,,,,,,,,,,,,,,,,,,,,,,,,,,,,,
,,61073e6d38111b5924507b77,2024-02-21_21h27.53.489,kallum_motion_pilot,2023.2.2,Win32,60.24096386,61073e6d38111b5924507b77,65d6bb0e977760de756971f7,65d6bf0d3f7d9a4dcc97f339,0.0261,0.0262,0,126,126,67,1,twofour,,,,,,,,,,,,,,,,,,,,,,,,,,,,,,,,,,,,,,,,,,,,,,,,,,,,,,,,,,,,,,,,,,,,,,,,,,,,,,,,,,,,,,,,,,,,,,,,,,,,,,,,,,,,,,,,,,,,,,,,,,,,,,,,,,,,,,,,,
,,61073e6d38111b5924507b77,2024-02-21_21h27.53.489,kallum_motion_pilot,2023.2.2,Win32,60.24096386,61073e6d38111b5924507b77,65d6bb0e977760de756971f7,65d6bf0d3f7d9a4dcc97f339,0.0263,0.0263,0,127,127,60,1,threeone,,,,,,,,,,,,,,,,,,,,,,,,,,,,,,,,,,,,,,,,,,,,,,,,,,,,,,,,,,,,,,,,,,,,,,,,,,,,,,,,,,,,,,,,,,,,,,,,,,,,,,,,,,,,,,,,,,,,,,,,,,,,,,,,,,,,,,,,,
,,61073e6d38111b5924507b77,2024-02-21_21h27.53.489,kallum_motion_pilot,2023.2.2,Win32,60.24096386,61073e6d38111b5924507b77,65d6bb0e977760de756971f7,65d6bf0d3f7d9a4dcc97f339,0.0264,0.0264,0,128,128,91,1,sixeight,,,,,,,,,,,,,,,,,,,,,,,,,,,,,,,,,,,,,,,,,,,,,,,,,,,,,,,,,,,,,,,,,,,,,,,,,,,,,,,,,,,,,,,,,,,,,,,,,,,,,,,,,,,,,,,,,,,,,,,,,,,,,,,,,,,,,,,,,
,,61073e6d38111b5924507b77,2024-02-21_21h27.53.489,kallum_motion_pilot,2023.2.2,Win32,60.24096386,61073e6d38111b5924507b77,65d6bb0e977760de756971f7,65d6bf0d3f7d9a4dcc97f339,0.0264,0.0264,0,129,129,84,1,sevenfive,,,,,,,,,,,,,,,,,,,,,,,,,,,,,,,,,,,,,,,,,,,,,,,,,,,,,,,,,,,,,,,,,,,,,,,,,,,,,,,,,,,,,,,,,,,,,,,,,,,,,,,,,,,,,,,,,,,,,,,,,,,,,,,,,,,,,,,,,
,,61073e6d38111b5924507b77,2024-02-21_21h27.53.489,kallum_motion_pilot,2023.2.2,Win32,60.24096386,61073e6d38111b5924507b77,65d6bb0e977760de756971f7,65d6bf0d3f7d9a4dcc97f339,0.0265,0.0265,0,130,130,150,1,eightsix,,,,,,,,,,,,,,,,,,,,,,,,,,,,,,,,,,,,,,,,,,,,,,,,,,,,,,,,,,,,,,,,,,,,,,,,,,,,,,,,,,,,,,,,,,,,,,,,,,,,,,,,,,,,,,,,,,,,,,,,,,,,,,,,,,,,,,,,,
,,61073e6d38111b5924507b77,2024-02-21_21h27.53.489,kallum_motion_pilot,2023.2.2,Win32,60.24096386,61073e6d38111b5924507b77,65d6bb0e977760de756971f7,65d6bf0d3f7d9a4dcc97f339,0.0266,0.0266,0,131,131,92,1,sevenfive,,,,,,,,,,,,,,,,,,,,,,,,,,,,,,,,,,,,,,,,,,,,,,,,,,,,,,,,,,,,,,,,,,,,,,,,,,,,,,,,,,,,,,,,,,,,,,,,,,,,,,,,,,,,,,,,,,,,,,,,,,,,,,,,,,,,,,,,,
,,61073e6d38111b5924507b77,2024-02-21_21h27.53.489,kallum_motion_pilot,2023.2.2,Win32,60.24096386,61073e6d38111b5924507b77,65d6bb0e977760de756971f7,65d6bf0d3f7d9a4dcc97f339,0.0267,0.0268,0,132,132,10,1,twoone,,,,,,,,,,,,,,,,,,,,,,,,,,,,,,,,,,,,,,,,,,,,,,,,,,,,,,,,,,,,,,,,,,,,,,,,,,,,,,,,,,,,,,,,,,,,,,,,,,,,,,,,,,,,,,,,,,,,,,,,,,,,,,,,,,,,,,,,,
,,61073e6d38111b5924507b77,2024-02-21_21h27.53.489,kallum_motion_pilot,2023.2.2,Win32,60.24096386,61073e6d38111b5924507b77,65d6bb0e977760de756971f7,65d6bf0d3f7d9a4dcc97f339,0.0268,0.0268,0,133,133,55,1,fourthree,,,,,,,,,,,,,,,,,,,,,,,,,,,,,,,,,,,,,,,,,,,,,,,,,,,,,,,,,,,,,,,,,,,,,,,,,,,,,,,,,,,,,,,,,,,,,,,,,,,,,,,,,,,,,,,,,,,,,,,,,,,,,,,,,,,,,,,,,
,,61073e6d38111b5924507b77,2024-02-21_21h27.53.489,kallum_motion_pilot,2023.2.2,Win32,60.24096386,61073e6d38111b5924507b77,65d6bb0e977760de756971f7,65d6bf0d3f7d9a4dcc97f339,0.0268,0.0268,0,134,134,32,1,onetwo,,,,,,,,,,,,,,,,,,,,,,,,,,,,,,,,,,,,,,,,,,,,,,,,,,,,,,,,,,,,,,,,,,,,,,,,,,,,,,,,,,,,,,,,,,,,,,,,,,,,,,,,,,,,,,,,,,,,,,,,,,,,,,,,,,,,,,,,,
,,61073e6d38111b5924507b77,2024-02-21_21h27.53.489,kallum_motion_pilot,2023.2.2,Win32,60.24096386,61073e6d38111b5924507b77,65d6bb0e977760de756971f7,65d6bf0d3f7d9a4dcc97f339,0.0269,0.0269,0,135,135,12,1,threeone,,,,,,,,,,,,,,,,,,,,,,,,,,,,,,,,,,,,,,,,,,,,,,,,,,,,,,,,,,,,,,,,,,,,,,,,,,,,,,,,,,,,,,,,,,,,,,,,,,,,,,,,,,,,,,,,,,,,,,,,,,,,,,,,,,,,,,,,,
,,61073e6d38111b5924507b77,2024-02-21_21h27.53.489,kallum_motion_pilot,2023.2.2,Win32,60.24096386,61073e6d38111b5924507b77,65d6bb0e977760de756971f7,65d6bf0d3f7d9a4dcc97f339,0.0269,0.027,0,136,136,145,1,fiveseven,,,,,,,,,,,,,,,,,,,,,,,,,,,,,,,,,,,,,,,,,,,,,,,,,,,,,,,,,,,,,,,,,,,,,,,,,,,,,,,,,,,,,,,,,,,,,,,,,,,,,,,,,,,,,,,,,,,,,,,,,,,,,,,,,,,,,,,,,
,,61073e6d38111b5924507b77,2024-02-21_21h27.53.489,kallum_motion_pilot,2023.2.2,Win32,60.24096386,61073e6d38111b5924507b77,65d6bb0e977760de756971f7,65d6bf0d3f7d9a4dcc97f339,0.0271,0.0271,0,137,137,34,1,twoone,,,,,,,,,,,,,,,,,,,,,,,,,,,,,,,,,,,,,,,,,,,,,,,,,,,,,,,,,,,,,,,,,,,,,,,,,,,,,,,,,,,,,,,,,,,,,,,,,,,,,,,,,,,,,,,,,,,,,,,,,,,,,,,,,,,,,,,,,
,,61073e6d38111b5924507b77,2024-02-21_21h27.53.489,kallum_motion_pilot,2023.2.2,Win32,60.24096386,61073e6d38111b5924507b77,65d6bb0e977760de756971f7,65d6bf0d3f7d9a4dcc97f339,0.0271,0.0272,0,138,138,35,1,twofour,,,,,,,,,,,,,,,,,,,,,,,,,,,,,,,,,,,,,,,,,,,,,,,,,,,,,,,,,,,,,,,,,,,,,,,,,,,,,,,,,,,,,,,,,,,,,,,,,,,,,,,,,,,,,,,,,,,,,,,,,,,,,,,,,,,,,,,,,
,,61073e6d38111b5924507b77,2024-02-21_21h27.53.489,kallum_motion_pilot,2023.2.2,Win32,60.24096386,61073e6d38111b5924507b77,65d6bb0e977760de756971f7,65d6bf0d3f7d9a4dcc97f339,0.0272,0.0273,0,139,139,11,1,twofour,,,,,,,,,,,,,,,,,,,,,,,,,,,,,,,,,,,,,,,,,,,,,,,,,,,,,,,,,,,,,,,,,,,,,,,,,,,,,,,,,,,,,,,,,,,,,,,,,,,,,,,,,,,,,,,,,,,,,,,,,,,,,,,,,,,,,,,,,
,,61073e6d38111b5924507b77,2024-02-21_21h27.53.489,kallum_motion_pilot,2023.2.2,Win32,60.24096386,61073e6d38111b5924507b77,65d6bb0e977760de756971f7,65d6bf0d3f7d9a4dcc97f339,0.0273,0.0273,0,140,140,82,1,sixfive,,,,,,,,,,,,,,,,,,,,,,,,,,,,,,,,,,,,,,,,,,,,,,,,,,,,,,,,,,,,,,,,,,,,,,,,,,,,,,,,,,,,,,,,,,,,,,,,,,,,,,,,,,,,,,,,,,,,,,,,,,,,,,,,,,,,,,,,,
,,61073e6d38111b5924507b77,2024-02-21_21h27.53.489,kallum_motion_pilot,2023.2.2,Win32,60.24096386,61073e6d38111b5924507b77,65d6bb0e977760de756971f7,65d6bf0d3f7d9a4dcc97f339,0.0273,0.0274,0,141,141,62,1,fourtwo,,,,,,,,,,,,,,,,,,,,,,,,,,,,,,,,,,,,,,,,,,,,,,,,,,,,,,,,,,,,,,,,,,,,,,,,,,,,,,,,,,,,,,,,,,,,,,,,,,,,,,,,,,,,,,,,,,,,,,,,,,,,,,,,,,,,,,,,,
,,61073e6d38111b5924507b77,2024-02-21_21h27.53.489,kallum_motion_pilot,2023.2.2,Win32,60.24096386,61073e6d38111b5924507b77,65d6bb0e977760de756971f7,65d6bf0d3f7d9a4dcc97f339,0.0274,0.0275,0,142,142,142,1,eightsix,,,,,,,,,,,,,,,,,,,,,,,,,,,,,,,,,,,,,,,,,,,,,,,,,,,,,,,,,,,,,,,,,,,,,,,,,,,,,,,,,,,,,,,,,,,,,,,,,,,,,,,,,,,,,,,,,,,,,,,,,,,,,,,,,,,,,,,,,
,,61073e6d38111b5924507b77,2024-02-21_21h27.53.489,kallum_motion_pilot,2023.2.2,Win32,60.24096386,61073e6d38111b5924507b77,65d6bb0e977760de756971f7,65d6bf0d3f7d9a4dcc97f339,0.0275,0.0276,0,143,143,100,1,sevenfive,,,,,,,,,,,,,,,,,,,,,,,,,,,,,,,,,,,,,,,,,,,,,,,,,,,,,,,,,,,,,,,,,,,,,,,,,,,,,,,,,,,,,,,,,,,,,,,,,,,,,,,,,,,,,,,,,,,,,,,,,,,,,,,,,,,,,,,,,
,,61073e6d38111b5924507b77,2024-02-21_21h27.53.489,kallum_motion_pilot,2023.2.2,Win32,60.24096386,61073e6d38111b5924507b77,65d6bb0e977760de756971f7,65d6bf0d3f7d9a4dcc97f339,0.0277,0.0277,0,144,144,25,1,onethree,,,,,,,,,,,,,,,,,,,,,,,,,,,,,,,,,,,,,,,,,,,,,,,,,,,,,,,,,,,,,,,,,,,,,,,,,,,,,,,,,,,,,,,,,,,,,,,,,,,,,,,,,,,,,,,,,,,,,,,,,,,,,,,,,,,,,,,,,
,,61073e6d38111b5924507b77,2024-02-21_21h27.53.489,kallum_motion_pilot,2023.2.2,Win32,60.24096386,61073e6d38111b5924507b77,65d6bb0e977760de756971f7,65d6bf0d3f7d9a4dcc97f339,0.0278,0.0279,0,145,145,143,1,eightseven,,,,,,,,,,,,,,,,,,,,,,,,,,,,,,,,,,,,,,,,,,,,,,,,,,,,,,,,,,,,,,,,,,,,,,,,,,,,,,,,,,,,,,,,,,,,,,,,,,,,,,,,,,,,,,,,,,,,,,,,,,,,,,,,,,,,,,,,,
,,61073e6d38111b5924507b77,2024-02-21_21h27.53.489,kallum_motion_pilot,2023.2.2,Win32,60.24096386,61073e6d38111b5924507b77,65d6bb0e977760de756971f7,65d6bf0d3f7d9a4dcc97f339,0.0279,0.028,0,146,146,129,1,fiveseven,,,,,,,,,,,,,,,,,,,,,,,,,,,,,,,,,,,,,,,,,,,,,,,,,,,,,,,,,,,,,,,,,,,,,,,,,,,,,,,,,,,,,,,,,,,,,,,,,,,,,,,,,,,,,,,,,,,,,,,,,,,,,,,,,,,,,,,,,
,,61073e6d38111b5924507b77,2024-02-21_21h27.53.489,kallum_motion_pilot,2023.2.2,Win32,60.24096386,61073e6d38111b5924507b77,65d6bb0e977760de756971f7,65d6bf0d3f7d9a4dcc97f339,0.028,0.0281,0,147,147,15,1,fourthree,,,,,,,,,,,,,,,,,,,,,,,,,,,,,,,,,,,,,,,,,,,,,,,,,,,,,,,,,,,,,,,,,,,,,,,,,,,,,,,,,,,,,,,,,,,,,,,,,,,,,,,,,,,,,,,,,,,,,,,,,,,,,,,,,,,,,,,,,
,,61073e6d38111b5924507b77,2024-02-21_21h27.53.489,kallum_motion_pilot,2023.2.2,Win32,60.24096386,61073e6d38111b5924507b77,65d6bb0e977760de756971f7,65d6bf0d3f7d9a4dcc97f339,0.0281,0.0281,0,148,148,66,1,twoone,,,,,,,,,,,,,,,,,,,,,,,,,,,,,,,,,,,,,,,,,,,,,,,,,,,,,,,,,,,,,,,,,,,,,,,,,,,,,,,,,,,,,,,,,,,,,,,,,,,,,,,,,,,,,,,,,,,,,,,,,,,,,,,,,,,,,,,,,
,,61073e6d38111b5924507b77,2024-02-21_21h27.53.489,kallum_motion_pilot,2023.2.2,Win32,60.24096386,61073e6d38111b5924507b77,65d6bb0e977760de756971f7,65d6bf0d3f7d9a4dcc97f339,0.0282,0.0283,0,149,149,137,1,fiveseven,,,,,,,,,,,,,,,,,,,,,,,,,,,,,,,,,,,,,,,,,,,,,,,,,,,,,,,,,,,,,,,,,,,,,,,,,,,,,,,,,,,,,,,,,,,,,,,,,,,,,,,,,,,,,,,,,,,,,,,,,,,,,,,,,,,,,,,,,
,,61073e6d38111b5924507b77,2024-02-21_21h27.53.489,kallum_motion_pilot,2023.2.2,Win32,60.24096386,61073e6d38111b5924507b77,65d6bb0e977760de756971f7,65d6bf0d3f7d9a4dcc97f339,0.0283,0.0284,0,150,150,118,1,eightsix,,,,,,,,,,,,,,,,,,,,,,,,,,,,,,,,,,,,,,,,,,,,,,,,,,,,,,,,,,,,,,,,,,,,,,,,,,,,,,,,,,,,,,,,,,,,,,,,,,,,,,,,,,,,,,,,,,,,,,,,,,,,,,,,,,,,,,,,,
,,61073e6d38111b5924507b77,2024-02-21_21h27.53.489,kallum_motion_pilot,2023.2.2,Win32,60.24096386,61073e6d38111b5924507b77,65d6bb0e977760de756971f7,65d6bf0d3f7d9a4dcc97f339,0.0284,0.0286,0,151,151,122,1,sixfive,,,,,,,,,,,,,,,,,,,,,,,,,,,,,,,,,,,,,,,,,,,,,,,,,,,,,,,,,,,,,,,,,,,,,,,,,,,,,,,,,,,,,,,,,,,,,,,,,,,,,,,,,,,,,,,,,,,,,,,,,,,,,,,,,,,,,,,,,
,,61073e6d38111b5924507b77,2024-02-21_21h27.53.489,kallum_motion_pilot,2023.2.2,Win32,60.24096386,61073e6d38111b5924507b77,65d6bb0e977760de756971f7,65d6bf0d3f7d9a4dcc97f339,0.0286,0.0287,0,152,152,89,1,fiveseven,,,,,,,,,,,,,,,,,,,,,,,,,,,,,,,,,,,,,,,,,,,,,,,,,,,,,,,,,,,,,,,,,,,,,,,,,,,,,,,,,,,,,,,,,,,,,,,,,,,,,,,,,,,,,,,,,,,,,,,,,,,,,,,,,,,,,,,,,
,,61073e6d38111b5924507b77,2024-02-21_21h27.53.489,kallum_motion_pilot,2023.2.2,Win32,60.24096386,61073e6d38111b5924507b77,65d6bb0e977760de756971f7,65d6bf0d3f7d9a4dcc97f339,0.0288,0.0288,0,153,153,37,1,threefour,,,,,,,,,,,,,,,,,,,,,,,,,,,,,,,,,,,,,,,,,,,,,,,,,,,,,,,,,,,,,,,,,,,,,,,,,,,,,,,,,,,,,,,,,,,,,,,,,,,,,,,,,,,,,,,,,,,,,,,,,,,,,,,,,,,,,,,,,
,,61073e6d38111b5924507b77,2024-02-21_21h27.53.489,kallum_motion_pilot,2023.2.2,Win32,60.24096386,61073e6d38111b5924507b77,65d6bb0e977760de756971f7,65d6bf0d3f7d9a4dcc97f339,0.0289,0.029,0,154,154,3,1,twofour,,,,,,,,,,,,,,,,,,,,,,,,,,,,,,,,,,,,,,,,,,,,,,,,,,,,,,,,,,,,,,,,,,,,,,,,,,,,,,,,,,,,,,,,,,,,,,,,,,,,,,,,,,,,,,,,,,,,,,,,,,,,,,,,,,,,,,,,,
,,61073e6d38111b5924507b77,2024-02-21_21h27.53.489,kallum_motion_pilot,2023.2.2,Win32,60.24096386,61073e6d38111b5924507b77,65d6bb0e977760de756971f7,65d6bf0d3f7d9a4dcc97f339,0.029,0.0291,0,155,155,39,1,fourthree,,,,,,,,,,,,,,,,,,,,,,,,,,,,,,,,,,,,,,,,,,,,,,,,,,,,,,,,,,,,,,,,,,,,,,,,,,,,,,,,,,,,,,,,,,,,,,,,,,,,,,,,,,,,,,,,,,,,,,,,,,,,,,,,,,,,,,,,,
,,61073e6d38111b5924507b77,2024-02-21_21h27.53.489,kallum_motion_pilot,2023.2.2,Win32,60.24096386,61073e6d38111b5924507b77,65d6bb0e977760de756971f7,65d6bf0d3f7d9a4dcc97f339,0.0291,0.0292,0,156,156,157,1,seveneight,,,,,,,,,,,,,,,,,,,,,,,,,,,,,,,,,,,,,,,,,,,,,,,,,,,,,,,,,,,,,,,,,,,,,,,,,,,,,,,,,,,,,,,,,,,,,,,,,,,,,,,,,,,,,,,,,,,,,,,,,,,,,,,,,,,,,,,,,
,,61073e6d38111b5924507b77,2024-02-21_21h27.53.489,kallum_motion_pilot,2023.2.2,Win32,60.24096386,61073e6d38111b5924507b77,65d6bb0e977760de756971f7,65d6bf0d3f7d9a4dcc97f339,0.0293,0.0293,0,157,157,111,1,eightseven,,,,,,,,,,,,,,,,,,,,,,,,,,,,,,,,,,,,,,,,,,,,,,,,,,,,,,,,,,,,,,,,,,,,,,,,,,,,,,,,,,,,,,,,,,,,,,,,,,,,,,,,,,,,,,,,,,,,,,,,,,,,,,,,,,,,,,,,,
,,61073e6d38111b5924507b77,2024-02-21_21h27.53.489,kallum_motion_pilot,2023.2.2,Win32,60.24096386,61073e6d38111b5924507b77,65d6bb0e977760de756971f7,65d6bf0d3f7d9a4dcc97f339,0.0293,0.0294,0,158,158,110,1,eightsix,,,,,,,,,,,,,,,,,,,,,,,,,,,,,,,,,,,,,,,,,,,,,,,,,,,,,,,,,,,,,,,,,,,,,,,,,,,,,,,,,,,,,,,,,,,,,,,,,,,,,,,,,,,,,,,,,,,,,,,,,,,,,,,,,,,,,,,,,
,,61073e6d38111b5924507b77,2024-02-21_21h27.53.489,kallum_motion_pilot,2023.2.2,Win32,60.24096386,61073e6d38111b5924507b77,65d6bb0e977760de756971f7,65d6bf0d3f7d9a4dcc97f339,0.0294,0.0294,0,159,159,81,1,fiveseven,,,,,,,,,,,,,,,,,,,,,,,,,,,,,,,,,,,,,,,,,,,,,,,,,,,,,,,,,,,,,,,,,,,,,,,,,,,,,,,,,,,,,,,,,,,,,,,,,,,,,,,,,,,,,,,,,,,,,,,,,,,,,,,,,,,,,,,,,
,,61073e6d38111b5924507b77,2024-02-21_21h27.53.489,kallum_motion_pilot,2023.2.2,Win32,60.24096386,61073e6d38111b5924507b77,65d6bb0e977760de756971f7,65d6bf0d3f7d9a4dcc97f339,0.0295,0.0295,0,160,160,47,1,fourthree,,,,,,,,,,,,,,,,,,,,,,,,,,,,,,,,,,,,,,,,,,,,,,,,,,,,,,,,,,,,,,,,,,,,,,,,,,,,,,,,,,,,,,,,,,,,,,,,,,,,,,,,,,,,,,,,,,,,,,,,,,,,,,,,,,,,,,,,,
,,61073e6d38111b5924507b77,2024-02-21_21h27.53.489,kallum_motion_pilot,2023.2.2,Win32,60.24096386,61073e6d38111b5924507b77,65d6bb0e977760de756971f7,65d6bf0d3f7d9a4dcc97f339,0.0295,0.0296,0,161,161,99,1,sixeight,,,,,,,,,,,,,,,,,,,,,,,,,,,,,,,,,,,,,,,,,,,,,,,,,,,,,,,,,,,,,,,,,,,,,,,,,,,,,,,,,,,,,,,,,,,,,,,,,,,,,,,,,,,,,,,,,,,,,,,,,,,,,,,,,,,,,,,,,
,,61073e6d38111b5924507b77,2024-02-21_21h27.53.489,kallum_motion_pilot,2023.2.2,Win32,60.24096386,61073e6d38111b5924507b77,65d6bb0e977760de756971f7,65d6bf0d3f7d9a4dcc97f339,0.0296,0.0297,1,0,162,60,1,threeone,,,,,,,,,,,,,,,,,,,,,,,,,,,,,,,,,,,,,,,,,,,,,,,,,,,,,,,,,,,,,,,,,,,,,,,,,,,,,,,,,,,,,,,,,,,,,,,,,,,,,,,,,,,,,,,,,,,,,,,,,,,,,,,,,,,,,,,,,
,,61073e6d38111b5924507b77,2024-02-21_21h27.53.489,kallum_motion_pilot,2023.2.2,Win32,60.24096386,61073e6d38111b5924507b77,65d6bb0e977760de756971f7,65d6bf0d3f7d9a4dcc97f339,0.0298,0.0298,1,1,163,111,1,eightseven,,,,,,,,,,,,,,,,,,,,,,,,,,,,,,,,,,,,,,,,,,,,,,,,,,,,,,,,,,,,,,,,,,,,,,,,,,,,,,,,,,,,,,,,,,,,,,,,,,,,,,,,,,,,,,,,,,,,,,,,,,,,,,,,,,,,,,,,,
,,61073e6d38111b5924507b77,2024-02-21_21h27.53.489,kallum_motion_pilot,2023.2.2,Win32,60.24096386,61073e6d38111b5924507b77,65d6bb0e977760de756971f7,65d6bf0d3f7d9a4dcc97f339,0.0298,0.0298,1,2,164,18,1,twoone,,,,,,,,,,,,,,,,,,,,,,,,,,,,,,,,,,,,,,,,,,,,,,,,,,,,,,,,,,,,,,,,,,,,,,,,,,,,,,,,,,,,,,,,,,,,,,,,,,,,,,,,,,,,,,,,,,,,,,,,,,,,,,,,,,,,,,,,,
,,61073e6d38111b5924507b77,2024-02-21_21h27.53.489,kallum_motion_pilot,2023.2.2,Win32,60.24096386,61073e6d38111b5924507b77,65d6bb0e977760de756971f7,65d6bf0d3f7d9a4dcc97f339,0.0299,0.0299,1,3,165,41,1,onethree,,,,,,,,,,,,,,,,,,,,,,,,,,,,,,,,,,,,,,,,,,,,,,,,,,,,,,,,,,,,,,,,,,,,,,,,,,,,,,,,,,,,,,,,,,,,,,,,,,,,,,,,,,,,,,,,,,,,,,,,,,,,,,,,,,,,,,,,,
,,61073e6d38111b5924507b77,2024-02-21_21h27.53.489,kallum_motion_pilot,2023.2.2,Win32,60.24096386,61073e6d38111b5924507b77,65d6bb0e977760de756971f7,65d6bf0d3f7d9a4dcc97f339,0.03,0.03,1,4,166,97,1,fiveseven,,,,,,,,,,,,,,,,,,,,,,,,,,,,,,,,,,,,,,,,,,,,,,,,,,,,,,,,,,,,,,,,,,,,,,,,,,,,,,,,,,,,,,,,,,,,,,,,,,,,,,,,,,,,,,,,,,,,,,,,,,,,,,,,,,,,,,,,,
,,61073e6d38111b5924507b77,2024-02-21_21h27.53.489,kallum_motion_pilot,2023.2.2,Win32,60.24096386,61073e6d38111b5924507b77,65d6bb0e977760de756971f7,65d6bf0d3f7d9a4dcc97f339,0.0301,0.0301,1,5,167,138,1,sixfive,,,,,,,,,,,,,,,,,,,,,,,,,,,,,,,,,,,,,,,,,,,,,,,,,,,,,,,,,,,,,,,,,,,,,,,,,,,,,,,,,,,,,,,,,,,,,,,,,,,,,,,,,,,,,,,,,,,,,,,,,,,,,,,,,,,,,,,,,
,,61073e6d38111b5924507b77,2024-02-21_21h27.53.489,kallum_motion_pilot,2023.2.2,Win32,60.24096386,61073e6d38111b5924507b77,65d6bb0e977760de756971f7,65d6bf0d3f7d9a4dcc97f339,0.0301,0.0301,1,6,168,44,1,threeone,,,,,,,,,,,,,,,,,,,,,,,,,,,,,,,,,,,,,,,,,,,,,,,,,,,,,,,,,,,,,,,,,,,,,,,,,,,,,,,,,,,,,,,,,,,,,,,,,,,,,,,,,,,,,,,,,,,,,,,,,,,,,,,,,,,,,,,,,
,,61073e6d38111b5924507b77,2024-02-21_21h27.53.489,kallum_motion_pilot,2023.2.2,Win32,60.24096386,61073e6d38111b5924507b77,65d6bb0e977760de756971f7,65d6bf0d3f7d9a4dcc97f339,0.0302,0.0303,1,7,169,107,1,sixeight,,,,,,,,,,,,,,,,,,,,,,,,,,,,,,,,,,,,,,,,,,,,,,,,,,,,,,,,,,,,,,,,,,,,,,,,,,,,,,,,,,,,,,,,,,,,,,,,,,,,,,,,,,,,,,,,,,,,,,,,,,,,,,,,,,,,,,,,,
,,61073e6d38111b5924507b77,2024-02-21_21h27.53.489,kallum_motion_pilot,2023.2.2,Win32,60.24096386,61073e6d38111b5924507b77,65d6bb0e977760de756971f7,65d6bf0d3f7d9a4dcc97f339,0.0303,0.0303,1,8,170,101,1,seveneight,,,,,,,,,,,,,,,,,,,,,,,,,,,,,,,,,,,,,,,,,,,,,,,,,,,,,,,,,,,,,,,,,,,,,,,,,,,,,,,,,,,,,,,,,,,,,,,,,,,,,,,,,,,,,,,,,,,,,,,,,,,,,,,,,,,,,,,,,
,,61073e6d38111b5924507b77,2024-02-21_21h27.53.489,kallum_motion_pilot,2023.2.2,Win32,60.24096386,61073e6d38111b5924507b77,65d6bb0e977760de756971f7,65d6bf0d3f7d9a4dcc97f339,0.0304,0.0304,1,9,171,154,1,sixfive,,,,,,,,,,,,,,,,,,,,,,,,,,,,,,,,,,,,,,,,,,,,,,,,,,,,,,,,,,,,,,,,,,,,,,,,,,,,,,,,,,,,,,,,,,,,,,,,,,,,,,,,,,,,,,,,,,,,,,,,,,,,,,,,,,,,,,,,,
,,61073e6d38111b5924507b77,2024-02-21_21h27.53.489,kallum_motion_pilot,2023.2.2,Win32,60.24096386,61073e6d38111b5924507b77,65d6bb0e977760de756971f7,65d6bf0d3f7d9a4dcc97f339,0.0304,0.0305,1,10,172,159,1,eightseven,,,,,,,,,,,,,,,,,,,,,,,,,,,,,,,,,,,,,,,,,,,,,,,,,,,,,,,,,,,,,,,,,,,,,,,,,,,,,,,,,,,,,,,,,,,,,,,,,,,,,,,,,,,,,,,,,,,,,,,,,,,,,,,,,,,,,,,,,
,,61073e6d38111b5924507b77,2024-02-21_21h27.53.489,kallum_motion_pilot,2023.2.2,Win32,60.24096386,61073e6d38111b5924507b77,65d6bb0e977760de756971f7,65d6bf0d3f7d9a4dcc97f339,0.0305,0.0306,1,11,173,33,1,onethree,,,,,,,,,,,,,,,,,,,,,,,,,,,,,,,,,,,,,,,,,,,,,,,,,,,,,,,,,,,,,,,,,,,,,,,,,,,,,,,,,,,,,,,,,,,,,,,,,,,,,,,,,,,,,,,,,,,,,,,,,,,,,,,,,,,,,,,,,
,,61073e6d38111b5924507b77,2024-02-21_21h27.53.489,kallum_motion_pilot,2023.2.2,Win32,60.24096386,61073e6d38111b5924507b77,65d6bb0e977760de756971f7,65d6bf0d3f7d9a4dcc97f339,0.0306,0.0306,1,12,174,122,1,sixfive,,,,,,,,,,,,,,,,,,,,,,,,,,,,,,,,,,,,,,,,,,,,,,,,,,,,,,,,,,,,,,,,,,,,,,,,,,,,,,,,,,,,,,,,,,,,,,,,,,,,,,,,,,,,,,,,,,,,,,,,,,,,,,,,,,,,,,,,,
,,61073e6d38111b5924507b77,2024-02-21_21h27.53.489,kallum_motion_pilot,2023.2.2,Win32,60.24096386,61073e6d38111b5924507b77,65d6bb0e977760de756971f7,65d6bf0d3f7d9a4dcc97f339,0.0306,0.0307,1,13,175,46,1,fourtwo,,,,,,,,,,,,,,,,,,,,,,,,,,,,,,,,,,,,,,,,,,,,,,,,,,,,,,,,,,,,,,,,,,,,,,,,,,,,,,,,,,,,,,,,,,,,,,,,,,,,,,,,,,,,,,,,,,,,,,,,,,,,,,,,,,,,,,,,,
,,61073e6d38111b5924507b77,2024-02-21_21h27.53.489,kallum_motion_pilot,2023.2.2,Win32,60.24096386,61073e6d38111b5924507b77,65d6bb0e977760de756971f7,65d6bf0d3f7d9a4dcc97f339,0.0307,0.0307,1,14,176,19,1,twofour,,,,,,,,,,,,,,,,,,,,,,,,,,,,,,,,,,,,,,,,,,,,,,,,,,,,,,,,,,,,,,,,,,,,,,,,,,,,,,,,,,,,,,,,,,,,,,,,,,,,,,,,,,,,,,,,,,,,,,,,,,,,,,,,,,,,,,,,,
,,61073e6d38111b5924507b77,2024-02-21_21h27.53.489,kallum_motion_pilot,2023.2.2,Win32,60.24096386,61073e6d38111b5924507b77,65d6bb0e977760de756971f7,65d6bf0d3f7d9a4dcc97f339,0.0308,0.0308,1,15,177,34,1,twoone,,,,,,,,,,,,,,,,,,,,,,,,,,,,,,,,,,,,,,,,,,,,,,,,,,,,,,,,,,,,,,,,,,,,,,,,,,,,,,,,,,,,,,,,,,,,,,,,,,,,,,,,,,,,,,,,,,,,,,,,,,,,,,,,,,,,,,,,,
,,61073e6d38111b5924507b77,2024-02-21_21h27.53.489,kallum_motion_pilot,2023.2.2,Win32,60.24096386,61073e6d38111b5924507b77,65d6bb0e977760de756971f7,65d6bf0d3f7d9a4dcc97f339,0.0309,0.0309,1,16,178,70,1,fourtwo,,,,,,,,,,,,,,,,,,,,,,,,,,,,,,,,,,,,,,,,,,,,,,,,,,,,,,,,,,,,,,,,,,,,,,,,,,,,,,,,,,,,,,,,,,,,,,,,,,,,,,,,,,,,,,,,,,,,,,,,,,,,,,,,,,,,,,,,,
,,61073e6d38111b5924507b77,2024-02-21_21h27.53.489,kallum_motion_pilot,2023.2.2,Win32,60.24096386,61073e6d38111b5924507b77,65d6bb0e977760de756971f7,65d6bf0d3f7d9a4dcc97f339,0.0309,0.031,1,17,179,118,1,eightsix,,,,,,,,,,,,,,,,,,,,,,,,,,,,,,,,,,,,,,,,,,,,,,,,,,,,,,,,,,,,,,,,,,,,,,,,,,,,,,,,,,,,,,,,,,,,,,,,,,,,,,,,,,,,,,,,,,,,,,,,,,,,,,,,,,,,,,,,,
,,61073e6d38111b5924507b77,2024-02-21_21h27.53.489,kallum_motion_pilot,2023.2.2,Win32,60.24096386,61073e6d38111b5924507b77,65d6bb0e977760de756971f7,65d6bf0d3f7d9a4dcc97f339,0.0311,0.0311,1,18,180,15,1,fourthree,,,,,,,,,,,,,,,,,,,,,,,,,,,,,,,,,,,,,,,,,,,,,,,,,,,,,,,,,,,,,,,,,,,,,,,,,,,,,,,,,,,,,,,,,,,,,,,,,,,,,,,,,,,,,,,,,,,,,,,,,,,,,,,,,,,,,,,,,
,,61073e6d38111b5924507b77,2024-02-21_21h27.53.489,kallum_motion_pilot,2023.2.2,Win32,60.24096386,61073e6d38111b5924507b77,65d6bb0e977760de756971f7,65d6bf0d3f7d9a4dcc97f339,0.0314,0.0315,1,19,181,92,1,sevenfive,,,,,,,,,,,,,,,,,,,,,,,,,,,,,,,,,,,,,,,,,,,,,,,,,,,,,,,,,,,,,,,,,,,,,,,,,,,,,,,,,,,,,,,,,,,,,,,,,,,,,,,,,,,,,,,,,,,,,,,,,,,,,,,,,,,,,,,,,
,,61073e6d38111b5924507b77,2024-02-21_21h27.53.489,kallum_motion_pilot,2023.2.2,Win32,60.24096386,61073e6d38111b5924507b77,65d6bb0e977760de756971f7,65d6bf0d3f7d9a4dcc97f339,0.0315,0.0315,1,20,182,1,1,onethree,,,,,,,,,,,,,,,,,,,,,,,,,,,,,,,,,,,,,,,,,,,,,,,,,,,,,,,,,,,,,,,,,,,,,,,,,,,,,,,,,,,,,,,,,,,,,,,,,,,,,,,,,,,,,,,,,,,,,,,,,,,,,,,,,,,,,,,,,
,,61073e6d38111b5924507b77,2024-02-21_21h27.53.489,kallum_motion_pilot,2023.2.2,Win32,60.24096386,61073e6d38111b5924507b77,65d6bb0e977760de756971f7,65d6bf0d3f7d9a4dcc97f339,0.0315,0.0316,1,21,183,119,1,eightseven,,,,,,,,,,,,,,,,,,,,,,,,,,,,,,,,,,,,,,,,,,,,,,,,,,,,,,,,,,,,,,,,,,,,,,,,,,,,,,,,,,,,,,,,,,,,,,,,,,,,,,,,,,,,,,,,,,,,,,,,,,,,,,,,,,,,,,,,,
,,61073e6d38111b5924507b77,2024-02-21_21h27.53.489,kallum_motion_pilot,2023.2.2,Win32,60.24096386,61073e6d38111b5924507b77,65d6bb0e977760de756971f7,65d6bf0d3f7d9a4dcc97f339,0.0317,0.0317,1,22,184,156,1,sevenfive,,,,,,,,,,,,,,,,,,,,,,,,,,,,,,,,,,,,,,,,,,,,,,,,,,,,,,,,,,,,,,,,,,,,,,,,,,,,,,,,,,,,,,,,,,,,,,,,,,,,,,,,,,,,,,,,,,,,,,,,,,,,,,,,,,,,,,,,,
,,61073e6d38111b5924507b77,2024-02-21_21h27.53.489,kallum_motion_pilot,2023.2.2,Win32,60.24096386,61073e6d38111b5924507b77,65d6bb0e977760de756971f7,65d6bf0d3f7d9a4dcc97f339,0.0317,0.0317,1,23,185,27,1,twofour,,,,,,,,,,,,,,,,,,,,,,,,,,,,,,,,,,,,,,,,,,,,,,,,,,,,,,,,,,,,,,,,,,,,,,,,,,,,,,,,,,,,,,,,,,,,,,,,,,,,,,,,,,,,,,,,,,,,,,,,,,,,,,,,,,,,,,,,,
,,61073e6d38111b5924507b77,2024-02-21_21h27.53.489,kallum_motion_pilot,2023.2.2,Win32,60.24096386,61073e6d38111b5924507b77,65d6bb0e977760de756971f7,65d6bf0d3f7d9a4dcc97f339,0.0318,0.0318,1,24,186,130,1,sixfive,,,,,,,,,,,,,,,,,,,,,,,,,,,,,,,,,,,,,,,,,,,,,,,,,,,,,,,,,,,,,,,,,,,,,,,,,,,,,,,,,,,,,,,,,,,,,,,,,,,,,,,,,,,,,,,,,,,,,,,,,,,,,,,,,,,,,,,,,
,,61073e6d38111b5924507b77,2024-02-21_21h27.53.489,kallum_motion_pilot,2023.2.2,Win32,60.24096386,61073e6d38111b5924507b77,65d6bb0e977760de756971f7,65d6bf0d3f7d9a4dcc97f339,0.0319,0.0319,1,25,187,133,1,seveneight,,,,,,,,,,,,,,,,,,,,,,,,,,,,,,,,,,,,,,,,,,,,,,,,,,,,,,,,,,,,,,,,,,,,,,,,,,,,,,,,,,,,,,,,,,,,,,,,,,,,,,,,,,,,,,,,,,,,,,,,,,,,,,,,,,,,,,,,,
,,61073e6d38111b5924507b77,2024-02-21_21h27.53.489,kallum_motion_pilot,2023.2.2,Win32,60.24096386,61073e6d38111b5924507b77,65d6bb0e977760de756971f7,65d6bf0d3f7d9a4dcc97f339,0.032,0.0321,1,26,188,106,1,sixfive,,,,,,,,,,,,,,,,,,,,,,,,,,,,,,,,,,,,,,,,,,,,,,,,,,,,,,,,,,,,,,,,,,,,,,,,,,,,,,,,,,,,,,,,,,,,,,,,,,,,,,,,,,,,,,,,,,,,,,,,,,,,,,,,,,,,,,,,,
,,61073e6d38111b5924507b77,2024-02-21_21h27.53.489,kallum_motion_pilot,2023.2.2,Win32,60.24096386,61073e6d38111b5924507b77,65d6bb0e977760de756971f7,65d6bf0d3f7d9a4dcc97f339,0.0321,0.0321,1,27,189,78,1,fourtwo,,,,,,,,,,,,,,,,,,,,,,,,,,,,,,,,,,,,,,,,,,,,,,,,,,,,,,,,,,,,,,,,,,,,,,,,,,,,,,,,,,,,,,,,,,,,,,,,,,,,,,,,,,,,,,,,,,,,,,,,,,,,,,,,,,,,,,,,,
,,61073e6d38111b5924507b77,2024-02-21_21h27.53.489,kallum_motion_pilot,2023.2.2,Win32,60.24096386,61073e6d38111b5924507b77,65d6bb0e977760de756971f7,65d6bf0d3f7d9a4dcc97f339,0.0322,0.0322,1,28,190,69,1,threefour,,,,,,,,,,,,,,,,,,,,,,,,,,,,,,,,,,,,,,,,,,,,,,,,,,,,,,,,,,,,,,,,,,,,,,,,,,,,,,,,,,,,,,,,,,,,,,,,,,,,,,,,,,,,,,,,,,,,,,,,,,,,,,,,,,,,,,,,,
,,61073e6d38111b5924507b77,2024-02-21_21h27.53.489,kallum_motion_pilot,2023.2.2,Win32,60.24096386,61073e6d38111b5924507b77,65d6bb0e977760de756971f7,65d6bf0d3f7d9a4dcc97f339,0.0322,0.0323,1,29,191,23,1,fourthree,,,,,,,,,,,,,,,,,,,,,,,,,,,,,,,,,,,,,,,,,,,,,,,,,,,,,,,,,,,,,,,,,,,,,,,,,,,,,,,,,,,,,,,,,,,,,,,,,,,,,,,,,,,,,,,,,,,,,,,,,,,,,,,,,,,,,,,,,
,,61073e6d38111b5924507b77,2024-02-21_21h27.53.489,kallum_motion_pilot,2023.2.2,Win32,60.24096386,61073e6d38111b5924507b77,65d6bb0e977760de756971f7,65d6bf0d3f7d9a4dcc97f339,0.0323,0.0324,1,30,192,7,1,fourthree,,,,,,,,,,,,,,,,,,,,,,,,,,,,,,,,,,,,,,,,,,,,,,,,,,,,,,,,,,,,,,,,,,,,,,,,,,,,,,,,,,,,,,,,,,,,,,,,,,,,,,,,,,,,,,,,,,,,,,,,,,,,,,,,,,,,,,,,,
,,61073e6d38111b5924507b77,2024-02-21_21h27.53.489,kallum_motion_pilot,2023.2.2,Win32,60.24096386,61073e6d38111b5924507b77,65d6bb0e977760de756971f7,65d6bf0d3f7d9a4dcc97f339,0.0324,0.0324,1,31,193,9,1,onethree,,,,,,,,,,,,,,,,,,,,,,,,,,,,,,,,,,,,,,,,,,,,,,,,,,,,,,,,,,,,,,,,,,,,,,,,,,,,,,,,,,,,,,,,,,,,,,,,,,,,,,,,,,,,,,,,,,,,,,,,,,,,,,,,,,,,,,,,,
,,61073e6d38111b5924507b77,2024-02-21_21h27.53.489,kallum_motion_pilot,2023.2.2,Win32,60.24096386,61073e6d38111b5924507b77,65d6bb0e977760de756971f7,65d6bf0d3f7d9a4dcc97f339,0.0324,0.0324,1,32,194,62,1,fourtwo,,,,,,,,,,,,,,,,,,,,,,,,,,,,,,,,,,,,,,,,,,,,,,,,,,,,,,,,,,,,,,,,,,,,,,,,,,,,,,,,,,,,,,,,,,,,,,,,,,,,,,,,,,,,,,,,,,,,,,,,,,,,,,,,,,,,,,,,,
,,61073e6d38111b5924507b77,2024-02-21_21h27.53.489,kallum_motion_pilot,2023.2.2,Win32,60.24096386,61073e6d38111b5924507b77,65d6bb0e977760de756971f7,65d6bf0d3f7d9a4dcc97f339,0.0326,0.0326,1,33,195,113,1,fiveseven,,,,,,,,,,,,,,,,,,,,,,,,,,,,,,,,,,,,,,,,,,,,,,,,,,,,,,,,,,,,,,,,,,,,,,,,,,,,,,,,,,,,,,,,,,,,,,,,,,,,,,,,,,,,,,,,,,,,,,,,,,,,,,,,,,,,,,,,,
,,61073e6d38111b5924507b77,2024-02-21_21h27.53.489,kallum_motion_pilot,2023.2.2,Win32,60.24096386,61073e6d38111b5924507b77,65d6bb0e977760de756971f7,65d6bf0d3f7d9a4dcc97f339,0.0326,0.0327,1,34,196,39,1,fourthree,,,,,,,,,,,,,,,,,,,,,,,,,,,,,,,,,,,,,,,,,,,,,,,,,,,,,,,,,,,,,,,,,,,,,,,,,,,,,,,,,,,,,,,,,,,,,,,,,,,,,,,,,,,,,,,,,,,,,,,,,,,,,,,,,,,,,,,,,
,,61073e6d38111b5924507b77,2024-02-21_21h27.53.489,kallum_motion_pilot,2023.2.2,Win32,60.24096386,61073e6d38111b5924507b77,65d6bb0e977760de756971f7,65d6bf0d3f7d9a4dcc97f339,0.0327,0.0328,1,35,197,128,1,fivesix,,,,,,,,,,,,,,,,,,,,,,,,,,,,,,,,,,,,,,,,,,,,,,,,,,,,,,,,,,,,,,,,,,,,,,,,,,,,,,,,,,,,,,,,,,,,,,,,,,,,,,,,,,,,,,,,,,,,,,,,,,,,,,,,,,,,,,,,,
,,61073e6d38111b5924507b77,2024-02-21_21h27.53.489,kallum_motion_pilot,2023.2.2,Win32,60.24096386,61073e6d38111b5924507b77,65d6bb0e977760de756971f7,65d6bf0d3f7d9a4dcc97f339,0.0328,0.0329,1,36,198,132,1,sevenfive,,,,,,,,,,,,,,,,,,,,,,,,,,,,,,,,,,,,,,,,,,,,,,,,,,,,,,,,,,,,,,,,,,,,,,,,,,,,,,,,,,,,,,,,,,,,,,,,,,,,,,,,,,,,,,,,,,,,,,,,,,,,,,,,,,,,,,,,,
,,61073e6d38111b5924507b77,2024-02-21_21h27.53.489,kallum_motion_pilot,2023.2.2,Win32,60.24096386,61073e6d38111b5924507b77,65d6bb0e977760de756971f7,65d6bf0d3f7d9a4dcc97f339,0.0329,0.0331,1,37,199,88,1,fivesix,,,,,,,,,,,,,,,,,,,,,,,,,,,,,,,,,,,,,,,,,,,,,,,,,,,,,,,,,,,,,,,,,,,,,,,,,,,,,,,,,,,,,,,,,,,,,,,,,,,,,,,,,,,,,,,,,,,,,,,,,,,,,,,,,,,,,,,,,
,,61073e6d38111b5924507b77,2024-02-21_21h27.53.489,kallum_motion_pilot,2023.2.2,Win32,60.24096386,61073e6d38111b5924507b77,65d6bb0e977760de756971f7,65d6bf0d3f7d9a4dcc97f339,0.0331,0.0331,1,38,200,100,1,sevenfive,,,,,,,,,,,,,,,,,,,,,,,,,,,,,,,,,,,,,,,,,,,,,,,,,,,,,,,,,,,,,,,,,,,,,,,,,,,,,,,,,,,,,,,,,,,,,,,,,,,,,,,,,,,,,,,,,,,,,,,,,,,,,,,,,,,,,,,,,
,,61073e6d38111b5924507b77,2024-02-21_21h27.53.489,kallum_motion_pilot,2023.2.2,Win32,60.24096386,61073e6d38111b5924507b77,65d6bb0e977760de756971f7,65d6bf0d3f7d9a4dcc97f339,0.0331,0.0332,1,39,201,80,1,fivesix,,,,,,,,,,,,,,,,,,,,,,,,,,,,,,,,,,,,,,,,,,,,,,,,,,,,,,,,,,,,,,,,,,,,,,,,,,,,,,,,,,,,,,,,,,,,,,,,,,,,,,,,,,,,,,,,,,,,,,,,,,,,,,,,,,,,,,,,,
,,61073e6d38111b5924507b77,2024-02-21_21h27.53.489,kallum_motion_pilot,2023.2.2,Win32,60.24096386,61073e6d38111b5924507b77,65d6bb0e977760de756971f7,65d6bf0d3f7d9a4dcc97f339,0.0332,0.0333,1,40,202,137,1,fiveseven,,,,,,,,,,,,,,,,,,,,,,,,,,,,,,,,,,,,,,,,,,,,,,,,,,,,,,,,,,,,,,,,,,,,,,,,,,,,,,,,,,,,,,,,,,,,,,,,,,,,,,,,,,,,,,,,,,,,,,,,,,,,,,,,,,,,,,,,,
,,61073e6d38111b5924507b77,2024-02-21_21h27.53.489,kallum_motion_pilot,2023.2.2,Win32,60.24096386,61073e6d38111b5924507b77,65d6bb0e977760de756971f7,65d6bf0d3f7d9a4dcc97f339,0.0333,0.0333,1,41,203,120,1,fivesix,,,,,,,,,,,,,,,,,,,,,,,,,,,,,,,,,,,,,,,,,,,,,,,,,,,,,,,,,,,,,,,,,,,,,,,,,,,,,,,,,,,,,,,,,,,,,,,,,,,,,,,,,,,,,,,,,,,,,,,,,,,,,,,,,,,,,,,,,
,,61073e6d38111b5924507b77,2024-02-21_21h27.53.489,kallum_motion_pilot,2023.2.2,Win32,60.24096386,61073e6d38111b5924507b77,65d6bb0e977760de756971f7,65d6bf0d3f7d9a4dcc97f339,0.0334,0.0334,1,42,204,157,1,seveneight,,,,,,,,,,,,,,,,,,,,,,,,,,,,,,,,,,,,,,,,,,,,,,,,,,,,,,,,,,,,,,,,,,,,,,,,,,,,,,,,,,,,,,,,,,,,,,,,,,,,,,,,,,,,,,,,,,,,,,,,,,,,,,,,,,,,,,,,,
,,61073e6d38111b5924507b77,2024-02-21_21h27.53.489,kallum_motion_pilot,2023.2.2,Win32,60.24096386,61073e6d38111b5924507b77,65d6bb0e977760de756971f7,65d6bf0d3f7d9a4dcc97f339,0.0335,0.0336,1,43,205,36,1,threeone,,,,,,,,,,,,,,,,,,,,,,,,,,,,,,,,,,,,,,,,,,,,,,,,,,,,,,,,,,,,,,,,,,,,,,,,,,,,,,,,,,,,,,,,,,,,,,,,,,,,,,,,,,,,,,,,,,,,,,,,,,,,,,,,,,,,,,,,,
,,61073e6d38111b5924507b77,2024-02-21_21h27.53.489,kallum_motion_pilot,2023.2.2,Win32,60.24096386,61073e6d38111b5924507b77,65d6bb0e977760de756971f7,65d6bf0d3f7d9a4dcc97f339,0.0336,0.0336,1,44,206,14,1,fourtwo,,,,,,,,,,,,,,,,,,,,,,,,,,,,,,,,,,,,,,,,,,,,,,,,,,,,,,,,,,,,,,,,,,,,,,,,,,,,,,,,,,,,,,,,,,,,,,,,,,,,,,,,,,,,,,,,,,,,,,,,,,,,,,,,,,,,,,,,,
,,61073e6d38111b5924507b77,2024-02-21_21h27.53.489,kallum_motion_pilot,2023.2.2,Win32,60.24096386,61073e6d38111b5924507b77,65d6bb0e977760de756971f7,65d6bf0d3f7d9a4dcc97f339,0.0337,0.0337,1,45,207,98,1,sixfive,,,,,,,,,,,,,,,,,,,,,,,,,,,,,,,,,,,,,,,,,,,,,,,,,,,,,,,,,,,,,,,,,,,,,,,,,,,,,,,,,,,,,,,,,,,,,,,,,,,,,,,,,,,,,,,,,,,,,,,,,,,,,,,,,,,,,,,,,
,,61073e6d38111b5924507b77,2024-02-21_21h27.53.489,kallum_motion_pilot,2023.2.2,Win32,60.24096386,61073e6d38111b5924507b77,65d6bb0e977760de756971f7,65d6bf0d3f7d9a4dcc97f339,0.0338,0.0338,1,46,208,129,1,fiveseven,,,,,,,,,,,,,,,,,,,,,,,,,,,,,,,,,,,,,,,,,,,,,,,,,,,,,,,,,,,,,,,,,,,,,,,,,,,,,,,,,,,,,,,,,,,,,,,,,,,,,,,,,,,,,,,,,,,,,,,,,,,,,,,,,,,,,,,,,
,,61073e6d38111b5924507b77,2024-02-21_21h27.53.489,kallum_motion_pilot,2023.2.2,Win32,60.24096386,61073e6d38111b5924507b77,65d6bb0e977760de756971f7,65d6bf0d3f7d9a4dcc97f339,0.0338,0.0339,1,47,209,31,1,fourthree,,,,,,,,,,,,,,,,,,,,,,,,,,,,,,,,,,,,,,,,,,,,,,,,,,,,,,,,,,,,,,,,,,,,,,,,,,,,,,,,,,,,,,,,,,,,,,,,,,,,,,,,,,,,,,,,,,,,,,,,,,,,,,,,,,,,,,,,,
,,61073e6d38111b5924507b77,2024-02-21_21h27.53.489,kallum_motion_pilot,2023.2.2,Win32,60.24096386,61073e6d38111b5924507b77,65d6bb0e977760de756971f7,65d6bf0d3f7d9a4dcc97f339,0.0339,0.0339,1,48,210,143,1,eightseven,,,,,,,,,,,,,,,,,,,,,,,,,,,,,,,,,,,,,,,,,,,,,,,,,,,,,,,,,,,,,,,,,,,,,,,,,,,,,,,,,,,,,,,,,,,,,,,,,,,,,,,,,,,,,,,,,,,,,,,,,,,,,,,,,,,,,,,,,
,,61073e6d38111b5924507b77,2024-02-21_21h27.53.489,kallum_motion_pilot,2023.2.2,Win32,60.24096386,61073e6d38111b5924507b77,65d6bb0e977760de756971f7,65d6bf0d3f7d9a4dcc97f339,0.034,0.034,1,49,211,126,1,eightsix,,,,,,,,,,,,,,,,,,,,,,,,,,,,,,,,,,,,,,,,,,,,,,,,,,,,,,,,,,,,,,,,,,,,,,,,,,,,,,,,,,,,,,,,,,,,,,,,,,,,,,,,,,,,,,,,,,,,,,,,,,,,,,,,,,,,,,,,,
,,61073e6d38111b5924507b77,2024-02-21_21h27.53.489,kallum_motion_pilot,2023.2.2,Win32,60.24096386,61073e6d38111b5924507b77,65d6bb0e977760de756971f7,65d6bf0d3f7d9a4dcc97f339,0.0341,0.0341,1,50,212,42,1,twoone,,,,,,,,,,,,,,,,,,,,,,,,,,,,,,,,,,,,,,,,,,,,,,,,,,,,,,,,,,,,,,,,,,,,,,,,,,,,,,,,,,,,,,,,,,,,,,,,,,,,,,,,,,,,,,,,,,,,,,,,,,,,,,,,,,,,,,,,,
,,61073e6d38111b5924507b77,2024-02-21_21h27.53.489,kallum_motion_pilot,2023.2.2,Win32,60.24096386,61073e6d38111b5924507b77,65d6bb0e977760de756971f7,65d6bf0d3f7d9a4dcc97f339,0.0341,0.0342,1,51,213,135,1,eightseven,,,,,,,,,,,,,,,,,,,,,,,,,,,,,,,,,,,,,,,,,,,,,,,,,,,,,,,,,,,,,,,,,,,,,,,,,,,,,,,,,,,,,,,,,,,,,,,,,,,,,,,,,,,,,,,,,,,,,,,,,,,,,,,,,,,,,,,,,
,,61073e6d38111b5924507b77,2024-02-21_21h27.53.489,kallum_motion_pilot,2023.2.2,Win32,60.24096386,61073e6d38111b5924507b77,65d6bb0e977760de756971f7,65d6bf0d3f7d9a4dcc97f339,0.0343,0.0343,1,52,214,68,1,threeone,,,,,,,,,,,,,,,,,,,,,,,,,,,,,,,,,,,,,,,,,,,,,,,,,,,,,,,,,,,,,,,,,,,,,,,,,,,,,,,,,,,,,,,,,,,,,,,,,,,,,,,,,,,,,,,,,,,,,,,,,,,,,,,,,,,,,,,,,
,,61073e6d38111b5924507b77,2024-02-21_21h27.53.489,kallum_motion_pilot,2023.2.2,Win32,60.24096386,61073e6d38111b5924507b77,65d6bb0e977760de756971f7,65d6bf0d3f7d9a4dcc97f339,0.0343,0.0344,1,53,215,30,1,fourtwo,,,,,,,,,,,,,,,,,,,,,,,,,,,,,,,,,,,,,,,,,,,,,,,,,,,,,,,,,,,,,,,,,,,,,,,,,,,,,,,,,,,,,,,,,,,,,,,,,,,,,,,,,,,,,,,,,,,,,,,,,,,,,,,,,,,,,,,,,
,,61073e6d38111b5924507b77,2024-02-21_21h27.53.489,kallum_motion_pilot,2023.2.2,Win32,60.24096386,61073e6d38111b5924507b77,65d6bb0e977760de756971f7,65d6bf0d3f7d9a4dcc97f339,0.0344,0.0344,1,54,216,148,1,sevenfive,,,,,,,,,,,,,,,,,,,,,,,,,,,,,,,,,,,,,,,,,,,,,,,,,,,,,,,,,,,,,,,,,,,,,,,,,,,,,,,,,,,,,,,,,,,,,,,,,,,,,,,,,,,,,,,,,,,,,,,,,,,,,,,,,,,,,,,,,
,,61073e6d38111b5924507b77,2024-02-21_21h27.53.489,kallum_motion_pilot,2023.2.2,Win32,60.24096386,61073e6d38111b5924507b77,65d6bb0e977760de756971f7,65d6bf0d3f7d9a4dcc97f339,0.0344,0.0345,1,55,217,24,1,onetwo,,,,,,,,,,,,,,,,,,,,,,,,,,,,,,,,,,,,,,,,,,,,,,,,,,,,,,,,,,,,,,,,,,,,,,,,,,,,,,,,,,,,,,,,,,,,,,,,,,,,,,,,,,,,,,,,,,,,,,,,,,,,,,,,,,,,,,,,,
,,61073e6d38111b5924507b77,2024-02-21_21h27.53.489,kallum_motion_pilot,2023.2.2,Win32,60.24096386,61073e6d38111b5924507b77,65d6bb0e977760de756971f7,65d6bf0d3f7d9a4dcc97f339,0.0346,0.0346,1,56,218,124,1,sevenfive,,,,,,,,,,,,,,,,,,,,,,,,,,,,,,,,,,,,,,,,,,,,,,,,,,,,,,,,,,,,,,,,,,,,,,,,,,,,,,,,,,,,,,,,,,,,,,,,,,,,,,,,,,,,,,,,,,,,,,,,,,,,,,,,,,,,,,,,,
,,61073e6d38111b5924507b77,2024-02-21_21h27.53.489,kallum_motion_pilot,2023.2.2,Win32,60.24096386,61073e6d38111b5924507b77,65d6bb0e977760de756971f7,65d6bf0d3f7d9a4dcc97f339,0.0346,0.0346,1,57,219,134,1,eightsix,,,,,,,,,,,,,,,,,,,,,,,,,,,,,,,,,,,,,,,,,,,,,,,,,,,,,,,,,,,,,,,,,,,,,,,,,,,,,,,,,,,,,,,,,,,,,,,,,,,,,,,,,,,,,,,,,,,,,,,,,,,,,,,,,,,,,,,,,
,,61073e6d38111b5924507b77,2024-02-21_21h27.53.489,kallum_motion_pilot,2023.2.2,Win32,60.24096386,61073e6d38111b5924507b77,65d6bb0e977760de756971f7,65d6bf0d3f7d9a4dcc97f339,0.0347,0.0347,1,58,220,74,1,twoone,,,,,,,,,,,,,,,,,,,,,,,,,,,,,,,,,,,,,,,,,,,,,,,,,,,,,,,,,,,,,,,,,,,,,,,,,,,,,,,,,,,,,,,,,,,,,,,,,,,,,,,,,,,,,,,,,,,,,,,,,,,,,,,,,,,,,,,,,
,,61073e6d38111b5924507b77,2024-02-21_21h27.53.489,kallum_motion_pilot,2023.2.2,Win32,60.24096386,61073e6d38111b5924507b77,65d6bb0e977760de756971f7,65d6bf0d3f7d9a4dcc97f339,0.0347,0.0348,1,59,221,13,1,threefour,,,,,,,,,,,,,,,,,,,,,,,,,,,,,,,,,,,,,,,,,,,,,,,,,,,,,,,,,,,,,,,,,,,,,,,,,,,,,,,,,,,,,,,,,,,,,,,,,,,,,,,,,,,,,,,,,,,,,,,,,,,,,,,,,,,,,,,,,
,,61073e6d38111b5924507b77,2024-02-21_21h27.53.489,kallum_motion_pilot,2023.2.2,Win32,60.24096386,61073e6d38111b5924507b77,65d6bb0e977760de756971f7,65d6bf0d3f7d9a4dcc97f339,0.0349,0.0349,1,60,222,20,1,threeone,,,,,,,,,,,,,,,,,,,,,,,,,,,,,,,,,,,,,,,,,,,,,,,,,,,,,,,,,,,,,,,,,,,,,,,,,,,,,,,,,,,,,,,,,,,,,,,,,,,,,,,,,,,,,,,,,,,,,,,,,,,,,,,,,,,,,,,,,
,,61073e6d38111b5924507b77,2024-02-21_21h27.53.489,kallum_motion_pilot,2023.2.2,Win32,60.24096386,61073e6d38111b5924507b77,65d6bb0e977760de756971f7,65d6bf0d3f7d9a4dcc97f339,0.0349,0.035,1,61,223,45,1,threefour,,,,,,,,,,,,,,,,,,,,,,,,,,,,,,,,,,,,,,,,,,,,,,,,,,,,,,,,,,,,,,,,,,,,,,,,,,,,,,,,,,,,,,,,,,,,,,,,,,,,,,,,,,,,,,,,,,,,,,,,,,,,,,,,,,,,,,,,,
,,61073e6d38111b5924507b77,2024-02-21_21h27.53.489,kallum_motion_pilot,2023.2.2,Win32,60.24096386,61073e6d38111b5924507b77,65d6bb0e977760de756971f7,65d6bf0d3f7d9a4dcc97f339,0.0351,0.0351,1,62,224,121,1,fiveseven,,,,,,,,,,,,,,,,,,,,,,,,,,,,,,,,,,,,,,,,,,,,,,,,,,,,,,,,,,,,,,,,,,,,,,,,,,,,,,,,,,,,,,,,,,,,,,,,,,,,,,,,,,,,,,,,,,,,,,,,,,,,,,,,,,,,,,,,,
,,61073e6d38111b5924507b77,2024-02-21_21h27.53.489,kallum_motion_pilot,2023.2.2,Win32,60.24096386,61073e6d38111b5924507b77,65d6bb0e977760de756971f7,65d6bf0d3f7d9a4dcc97f339,0.0352,0.0352,1,63,225,139,1,sixeight,,,,,,,,,,,,,,,,,,,,,,,,,,,,,,,,,,,,,,,,,,,,,,,,,,,,,,,,,,,,,,,,,,,,,,,,,,,,,,,,,,,,,,,,,,,,,,,,,,,,,,,,,,,,,,,,,,,,,,,,,,,,,,,,,,,,,,,,,
,,61073e6d38111b5924507b77,2024-02-21_21h27.53.489,kallum_motion_pilot,2023.2.2,Win32,60.24096386,61073e6d38111b5924507b77,65d6bb0e977760de756971f7,65d6bf0d3f7d9a4dcc97f339,0.0352,0.0352,1,64,226,82,1,sixfive,,,,,,,,,,,,,,,,,,,,,,,,,,,,,,,,,,,,,,,,,,,,,,,,,,,,,,,,,,,,,,,,,,,,,,,,,,,,,,,,,,,,,,,,,,,,,,,,,,,,,,,,,,,,,,,,,,,,,,,,,,,,,,,,,,,,,,,,,
,,61073e6d38111b5924507b77,2024-02-21_21h27.53.489,kallum_motion_pilot,2023.2.2,Win32,60.24096386,61073e6d38111b5924507b77,65d6bb0e977760de756971f7,65d6bf0d3f7d9a4dcc97f339,0.0352,0.0353,1,65,227,4,1,threeone,,,,,,,,,,,,,,,,,,,,,,,,,,,,,,,,,,,,,,,,,,,,,,,,,,,,,,,,,,,,,,,,,,,,,,,,,,,,,,,,,,,,,,,,,,,,,,,,,,,,,,,,,,,,,,,,,,,,,,,,,,,,,,,,,,,,,,,,,
,,61073e6d38111b5924507b77,2024-02-21_21h27.53.489,kallum_motion_pilot,2023.2.2,Win32,60.24096386,61073e6d38111b5924507b77,65d6bb0e977760de756971f7,65d6bf0d3f7d9a4dcc97f339,0.0354,0.0354,1,66,228,147,1,sixeight,,,,,,,,,,,,,,,,,,,,,,,,,,,,,,,,,,,,,,,,,,,,,,,,,,,,,,,,,,,,,,,,,,,,,,,,,,,,,,,,,,,,,,,,,,,,,,,,,,,,,,,,,,,,,,,,,,,,,,,,,,,,,,,,,,,,,,,,,
,,61073e6d38111b5924507b77,2024-02-21_21h27.53.489,kallum_motion_pilot,2023.2.2,Win32,60.24096386,61073e6d38111b5924507b77,65d6bb0e977760de756971f7,65d6bf0d3f7d9a4dcc97f339,0.0355,0.0355,1,67,229,51,1,twofour,,,,,,,,,,,,,,,,,,,,,,,,,,,,,,,,,,,,,,,,,,,,,,,,,,,,,,,,,,,,,,,,,,,,,,,,,,,,,,,,,,,,,,,,,,,,,,,,,,,,,,,,,,,,,,,,,,,,,,,,,,,,,,,,,,,,,,,,,
,,61073e6d38111b5924507b77,2024-02-21_21h27.53.489,kallum_motion_pilot,2023.2.2,Win32,60.24096386,61073e6d38111b5924507b77,65d6bb0e977760de756971f7,65d6bf0d3f7d9a4dcc97f339,0.0355,0.0356,1,68,230,149,1,seveneight,,,,,,,,,,,,,,,,,,,,,,,,,,,,,,,,,,,,,,,,,,,,,,,,,,,,,,,,,,,,,,,,,,,,,,,,,,,,,,,,,,,,,,,,,,,,,,,,,,,,,,,,,,,,,,,,,,,,,,,,,,,,,,,,,,,,,,,,,
,,61073e6d38111b5924507b77,2024-02-21_21h27.53.489,kallum_motion_pilot,2023.2.2,Win32,60.24096386,61073e6d38111b5924507b77,65d6bb0e977760de756971f7,65d6bf0d3f7d9a4dcc97f339,0.0356,0.0357,1,69,231,96,1,fivesix,,,,,,,,,,,,,,,,,,,,,,,,,,,,,,,,,,,,,,,,,,,,,,,,,,,,,,,,,,,,,,,,,,,,,,,,,,,,,,,,,,,,,,,,,,,,,,,,,,,,,,,,,,,,,,,,,,,,,,,,,,,,,,,,,,,,,,,,,
,,61073e6d38111b5924507b77,2024-02-21_21h27.53.489,kallum_motion_pilot,2023.2.2,Win32,60.24096386,61073e6d38111b5924507b77,65d6bb0e977760de756971f7,65d6bf0d3f7d9a4dcc97f339,0.0357,0.0357,1,70,232,57,1,onethree,,,,,,,,,,,,,,,,,,,,,,,,,,,,,,,,,,,,,,,,,,,,,,,,,,,,,,,,,,,,,,,,,,,,,,,,,,,,,,,,,,,,,,,,,,,,,,,,,,,,,,,,,,,,,,,,,,,,,,,,,,,,,,,,,,,,,,,,,
,,61073e6d38111b5924507b77,2024-02-21_21h27.53.489,kallum_motion_pilot,2023.2.2,Win32,60.24096386,61073e6d38111b5924507b77,65d6bb0e977760de756971f7,65d6bf0d3f7d9a4dcc97f339,0.0357,0.0358,1,71,233,152,1,fivesix,,,,,,,,,,,,,,,,,,,,,,,,,,,,,,,,,,,,,,,,,,,,,,,,,,,,,,,,,,,,,,,,,,,,,,,,,,,,,,,,,,,,,,,,,,,,,,,,,,,,,,,,,,,,,,,,,,,,,,,,,,,,,,,,,,,,,,,,,
,,61073e6d38111b5924507b77,2024-02-21_21h27.53.489,kallum_motion_pilot,2023.2.2,Win32,60.24096386,61073e6d38111b5924507b77,65d6bb0e977760de756971f7,65d6bf0d3f7d9a4dcc97f339,0.0359,0.0359,1,72,234,103,1,eightseven,,,,,,,,,,,,,,,,,,,,,,,,,,,,,,,,,,,,,,,,,,,,,,,,,,,,,,,,,,,,,,,,,,,,,,,,,,,,,,,,,,,,,,,,,,,,,,,,,,,,,,,,,,,,,,,,,,,,,,,,,,,,,,,,,,,,,,,,,
,,61073e6d38111b5924507b77,2024-02-21_21h27.53.489,kallum_motion_pilot,2023.2.2,Win32,60.24096386,61073e6d38111b5924507b77,65d6bb0e977760de756971f7,65d6bf0d3f7d9a4dcc97f339,0.036,0.036,1,73,235,21,1,threefour,,,,,,,,,,,,,,,,,,,,,,,,,,,,,,,,,,,,,,,,,,,,,,,,,,,,,,,,,,,,,,,,,,,,,,,,,,,,,,,,,,,,,,,,,,,,,,,,,,,,,,,,,,,,,,,,,,,,,,,,,,,,,,,,,,,,,,,,,
,,61073e6d38111b5924507b77,2024-02-21_21h27.53.489,kallum_motion_pilot,2023.2.2,Win32,60.24096386,61073e6d38111b5924507b77,65d6bb0e977760de756971f7,65d6bf0d3f7d9a4dcc97f339,0.036,0.036,1,74,236,25,1,onethree,,,,,,,,,,,,,,,,,,,,,,,,,,,,,,,,,,,,,,,,,,,,,,,,,,,,,,,,,,,,,,,,,,,,,,,,,,,,,,,,,,,,,,,,,,,,,,,,,,,,,,,,,,,,,,,,,,,,,,,,,,,,,,,,,,,,,,,,,
,,61073e6d38111b5924507b77,2024-02-21_21h27.53.489,kallum_motion_pilot,2023.2.2,Win32,60.24096386,61073e6d38111b5924507b77,65d6bb0e977760de756971f7,65d6bf0d3f7d9a4dcc97f339,0.0361,0.0361,1,75,237,52,1,threeone,,,,,,,,,,,,,,,,,,,,,,,,,,,,,,,,,,,,,,,,,,,,,,,,,,,,,,,,,,,,,,,,,,,,,,,,,,,,,,,,,,,,,,,,,,,,,,,,,,,,,,,,,,,,,,,,,,,,,,,,,,,,,,,,,,,,,,,,,
,,61073e6d38111b5924507b77,2024-02-21_21h27.53.489,kallum_motion_pilot,2023.2.2,Win32,60.24096386,61073e6d38111b5924507b77,65d6bb0e977760de756971f7,65d6bf0d3f7d9a4dcc97f339,0.0361,0.0362,1,76,238,85,1,seveneight,,,,,,,,,,,,,,,,,,,,,,,,,,,,,,,,,,,,,,,,,,,,,,,,,,,,,,,,,,,,,,,,,,,,,,,,,,,,,,,,,,,,,,,,,,,,,,,,,,,,,,,,,,,,,,,,,,,,,,,,,,,,,,,,,,,,,,,,,
,,61073e6d38111b5924507b77,2024-02-21_21h27.53.489,kallum_motion_pilot,2023.2.2,Win32,60.24096386,61073e6d38111b5924507b77,65d6bb0e977760de756971f7,65d6bf0d3f7d9a4dcc97f339,0.0362,0.0363,1,77,239,32,1,onetwo,,,,,,,,,,,,,,,,,,,,,,,,,,,,,,,,,,,,,,,,,,,,,,,,,,,,,,,,,,,,,,,,,,,,,,,,,,,,,,,,,,,,,,,,,,,,,,,,,,,,,,,,,,,,,,,,,,,,,,,,,,,,,,,,,,,,,,,,,
,,61073e6d38111b5924507b77,2024-02-21_21h27.53.489,kallum_motion_pilot,2023.2.2,Win32,60.24096386,61073e6d38111b5924507b77,65d6bb0e977760de756971f7,65d6bf0d3f7d9a4dcc97f339,0.0363,0.0364,1,78,240,43,1,twofour,,,,,,,,,,,,,,,,,,,,,,,,,,,,,,,,,,,,,,,,,,,,,,,,,,,,,,,,,,,,,,,,,,,,,,,,,,,,,,,,,,,,,,,,,,,,,,,,,,,,,,,,,,,,,,,,,,,,,,,,,,,,,,,,,,,,,,,,,
,,61073e6d38111b5924507b77,2024-02-21_21h27.53.489,kallum_motion_pilot,2023.2.2,Win32,60.24096386,61073e6d38111b5924507b77,65d6bb0e977760de756971f7,65d6bf0d3f7d9a4dcc97f339,0.0364,0.0365,1,79,241,71,1,fourthree,,,,,,,,,,,,,,,,,,,,,,,,,,,,,,,,,,,,,,,,,,,,,,,,,,,,,,,,,,,,,,,,,,,,,,,,,,,,,,,,,,,,,,,,,,,,,,,,,,,,,,,,,,,,,,,,,,,,,,,,,,,,,,,,,,,,,,,,,
,,61073e6d38111b5924507b77,2024-02-21_21h27.53.489,kallum_motion_pilot,2023.2.2,Win32,60.24096386,61073e6d38111b5924507b77,65d6bb0e977760de756971f7,65d6bf0d3f7d9a4dcc97f339,0.0365,0.0366,1,80,242,90,1,sixfive,,,,,,,,,,,,,,,,,,,,,,,,,,,,,,,,,,,,,,,,,,,,,,,,,,,,,,,,,,,,,,,,,,,,,,,,,,,,,,,,,,,,,,,,,,,,,,,,,,,,,,,,,,,,,,,,,,,,,,,,,,,,,,,,,,,,,,,,,
,,61073e6d38111b5924507b77,2024-02-21_21h27.53.489,kallum_motion_pilot,2023.2.2,Win32,60.24096386,61073e6d38111b5924507b77,65d6bb0e977760de756971f7,65d6bf0d3f7d9a4dcc97f339,0.0366,0.0367,1,81,243,59,1,twofour,,,,,,,,,,,,,,,,,,,,,,,,,,,,,,,,,,,,,,,,,,,,,,,,,,,,,,,,,,,,,,,,,,,,,,,,,,,,,,,,,,,,,,,,,,,,,,,,,,,,,,,,,,,,,,,,,,,,,,,,,,,,,,,,,,,,,,,,,
,,61073e6d38111b5924507b77,2024-02-21_21h27.53.489,kallum_motion_pilot,2023.2.2,Win32,60.24096386,61073e6d38111b5924507b77,65d6bb0e977760de756971f7,65d6bf0d3f7d9a4dcc97f339,0.0367,0.0367,1,82,244,89,1,fiveseven,,,,,,,,,,,,,,,,,,,,,,,,,,,,,,,,,,,,,,,,,,,,,,,,,,,,,,,,,,,,,,,,,,,,,,,,,,,,,,,,,,,,,,,,,,,,,,,,,,,,,,,,,,,,,,,,,,,,,,,,,,,,,,,,,,,,,,,,,
,,61073e6d38111b5924507b77,2024-02-21_21h27.53.489,kallum_motion_pilot,2023.2.2,Win32,60.24096386,61073e6d38111b5924507b77,65d6bb0e977760de756971f7,65d6bf0d3f7d9a4dcc97f339,0.0368,0.0368,1,83,245,93,1,seveneight,,,,,,,,,,,,,,,,,,,,,,,,,,,,,,,,,,,,,,,,,,,,,,,,,,,,,,,,,,,,,,,,,,,,,,,,,,,,,,,,,,,,,,,,,,,,,,,,,,,,,,,,,,,,,,,,,,,,,,,,,,,,,,,,,,,,,,,,,
,,61073e6d38111b5924507b77,2024-02-21_21h27.53.489,kallum_motion_pilot,2023.2.2,Win32,60.24096386,61073e6d38111b5924507b77,65d6bb0e977760de756971f7,65d6bf0d3f7d9a4dcc97f339,0.0368,0.0369,1,84,246,87,1,eightseven,,,,,,,,,,,,,,,,,,,,,,,,,,,,,,,,,,,,,,,,,,,,,,,,,,,,,,,,,,,,,,,,,,,,,,,,,,,,,,,,,,,,,,,,,,,,,,,,,,,,,,,,,,,,,,,,,,,,,,,,,,,,,,,,,,,,,,,,,
,,61073e6d38111b5924507b77,2024-02-21_21h27.53.489,kallum_motion_pilot,2023.2.2,Win32,60.24096386,61073e6d38111b5924507b77,65d6bb0e977760de756971f7,65d6bf0d3f7d9a4dcc97f339,0.0369,0.037,1,85,247,145,1,fiveseven,,,,,,,,,,,,,,,,,,,,,,,,,,,,,,,,,,,,,,,,,,,,,,,,,,,,,,,,,,,,,,,,,,,,,,,,,,,,,,,,,,,,,,,,,,,,,,,,,,,,,,,,,,,,,,,,,,,,,,,,,,,,,,,,,,,,,,,,,
,,61073e6d38111b5924507b77,2024-02-21_21h27.53.489,kallum_motion_pilot,2023.2.2,Win32,60.24096386,61073e6d38111b5924507b77,65d6bb0e977760de756971f7,65d6bf0d3f7d9a4dcc97f339,0.037,0.0371,1,86,248,2,1,twoone,,,,,,,,,,,,,,,,,,,,,,,,,,,,,,,,,,,,,,,,,,,,,,,,,,,,,,,,,,,,,,,,,,,,,,,,,,,,,,,,,,,,,,,,,,,,,,,,,,,,,,,,,,,,,,,,,,,,,,,,,,,,,,,,,,,,,,,,,
,,61073e6d38111b5924507b77,2024-02-21_21h27.53.489,kallum_motion_pilot,2023.2.2,Win32,60.24096386,61073e6d38111b5924507b77,65d6bb0e977760de756971f7,65d6bf0d3f7d9a4dcc97f339,0.0371,0.0371,1,87,249,123,1,sixeight,,,,,,,,,,,,,,,,,,,,,,,,,,,,,,,,,,,,,,,,,,,,,,,,,,,,,,,,,,,,,,,,,,,,,,,,,,,,,,,,,,,,,,,,,,,,,,,,,,,,,,,,,,,,,,,,,,,,,,,,,,,,,,,,,,,,,,,,,
,,61073e6d38111b5924507b77,2024-02-21_21h27.53.489,kallum_motion_pilot,2023.2.2,Win32,60.24096386,61073e6d38111b5924507b77,65d6bb0e977760de756971f7,65d6bf0d3f7d9a4dcc97f339,0.0372,0.0372,1,88,250,84,1,sevenfive,,,,,,,,,,,,,,,,,,,,,,,,,,,,,,,,,,,,,,,,,,,,,,,,,,,,,,,,,,,,,,,,,,,,,,,,,,,,,,,,,,,,,,,,,,,,,,,,,,,,,,,,,,,,,,,,,,,,,,,,,,,,,,,,,,,,,,,,,
,,61073e6d38111b5924507b77,2024-02-21_21h27.53.489,kallum_motion_pilot,2023.2.2,Win32,60.24096386,61073e6d38111b5924507b77,65d6bb0e977760de756971f7,65d6bf0d3f7d9a4dcc97f339,0.0373,0.0373,1,89,251,53,1,threefour,,,,,,,,,,,,,,,,,,,,,,,,,,,,,,,,,,,,,,,,,,,,,,,,,,,,,,,,,,,,,,,,,,,,,,,,,,,,,,,,,,,,,,,,,,,,,,,,,,,,,,,,,,,,,,,,,,,,,,,,,,,,,,,,,,,,,,,,,
,,61073e6d38111b5924507b77,2024-02-21_21h27.53.489,kallum_motion_pilot,2023.2.2,Win32,60.24096386,61073e6d38111b5924507b77,65d6bb0e977760de756971f7,65d6bf0d3f7d9a4dcc97f339,0.0373,0.0374,1,90,252,105,1,fiveseven,,,,,,,,,,,,,,,,,,,,,,,,,,,,,,,,,,,,,,,,,,,,,,,,,,,,,,,,,,,,,,,,,,,,,,,,,,,,,,,,,,,,,,,,,,,,,,,,,,,,,,,,,,,,,,,,,,,,,,,,,,,,,,,,,,,,,,,,,
,,61073e6d38111b5924507b77,2024-02-21_21h27.53.489,kallum_motion_pilot,2023.2.2,Win32,60.24096386,61073e6d38111b5924507b77,65d6bb0e977760de756971f7,65d6bf0d3f7d9a4dcc97f339,0.0374,0.0375,1,91,253,28,1,threeone,,,,,,,,,,,,,,,,,,,,,,,,,,,,,,,,,,,,,,,,,,,,,,,,,,,,,,,,,,,,,,,,,,,,,,,,,,,,,,,,,,,,,,,,,,,,,,,,,,,,,,,,,,,,,,,,,,,,,,,,,,,,,,,,,,,,,,,,,
,,61073e6d38111b5924507b77,2024-02-21_21h27.53.489,kallum_motion_pilot,2023.2.2,Win32,60.24096386,61073e6d38111b5924507b77,65d6bb0e977760de756971f7,65d6bf0d3f7d9a4dcc97f339,0.0376,0.0376,1,92,254,17,1,onethree,,,,,,,,,,,,,,,,,,,,,,,,,,,,,,,,,,,,,,,,,,,,,,,,,,,,,,,,,,,,,,,,,,,,,,,,,,,,,,,,,,,,,,,,,,,,,,,,,,,,,,,,,,,,,,,,,,,,,,,,,,,,,,,,,,,,,,,,,
,,61073e6d38111b5924507b77,2024-02-21_21h27.53.489,kallum_motion_pilot,2023.2.2,Win32,60.24096386,61073e6d38111b5924507b77,65d6bb0e977760de756971f7,65d6bf0d3f7d9a4dcc97f339,0.0377,0.0377,1,93,255,55,1,fourthree,,,,,,,,,,,,,,,,,,,,,,,,,,,,,,,,,,,,,,,,,,,,,,,,,,,,,,,,,,,,,,,,,,,,,,,,,,,,,,,,,,,,,,,,,,,,,,,,,,,,,,,,,,,,,,,,,,,,,,,,,,,,,,,,,,,,,,,,,
,,61073e6d38111b5924507b77,2024-02-21_21h27.53.489,kallum_motion_pilot,2023.2.2,Win32,60.24096386,61073e6d38111b5924507b77,65d6bb0e977760de756971f7,65d6bf0d3f7d9a4dcc97f339,0.0377,0.0378,1,94,256,95,1,eightseven,,,,,,,,,,,,,,,,,,,,,,,,,,,,,,,,,,,,,,,,,,,,,,,,,,,,,,,,,,,,,,,,,,,,,,,,,,,,,,,,,,,,,,,,,,,,,,,,,,,,,,,,,,,,,,,,,,,,,,,,,,,,,,,,,,,,,,,,,
,,61073e6d38111b5924507b77,2024-02-21_21h27.53.489,kallum_motion_pilot,2023.2.2,Win32,60.24096386,61073e6d38111b5924507b77,65d6bb0e977760de756971f7,65d6bf0d3f7d9a4dcc97f339,0.0379,0.0379,1,95,257,56,1,onetwo,,,,,,,,,,,,,,,,,,,,,,,,,,,,,,,,,,,,,,,,,,,,,,,,,,,,,,,,,,,,,,,,,,,,,,,,,,,,,,,,,,,,,,,,,,,,,,,,,,,,,,,,,,,,,,,,,,,,,,,,,,,,,,,,,,,,,,,,,
,,61073e6d38111b5924507b77,2024-02-21_21h27.53.489,kallum_motion_pilot,2023.2.2,Win32,60.24096386,61073e6d38111b5924507b77,65d6bb0e977760de756971f7,65d6bf0d3f7d9a4dcc97f339,0.0379,0.038,1,96,258,64,1,onetwo,,,,,,,,,,,,,,,,,,,,,,,,,,,,,,,,,,,,,,,,,,,,,,,,,,,,,,,,,,,,,,,,,,,,,,,,,,,,,,,,,,,,,,,,,,,,,,,,,,,,,,,,,,,,,,,,,,,,,,,,,,,,,,,,,,,,,,,,,
,,61073e6d38111b5924507b77,2024-02-21_21h27.53.489,kallum_motion_pilot,2023.2.2,Win32,60.24096386,61073e6d38111b5924507b77,65d6bb0e977760de756971f7,65d6bf0d3f7d9a4dcc97f339,0.038,0.0381,1,97,259,10,1,twoone,,,,,,,,,,,,,,,,,,,,,,,,,,,,,,,,,,,,,,,,,,,,,,,,,,,,,,,,,,,,,,,,,,,,,,,,,,,,,,,,,,,,,,,,,,,,,,,,,,,,,,,,,,,,,,,,,,,,,,,,,,,,,,,,,,,,,,,,,
,,61073e6d38111b5924507b77,2024-02-21_21h27.53.489,kallum_motion_pilot,2023.2.2,Win32,60.24096386,61073e6d38111b5924507b77,65d6bb0e977760de756971f7,65d6bf0d3f7d9a4dcc97f339,0.0381,0.0381,1,98,260,112,1,fivesix,,,,,,,,,,,,,,,,,,,,,,,,,,,,,,,,,,,,,,,,,,,,,,,,,,,,,,,,,,,,,,,,,,,,,,,,,,,,,,,,,,,,,,,,,,,,,,,,,,,,,,,,,,,,,,,,,,,,,,,,,,,,,,,,,,,,,,,,,
,,61073e6d38111b5924507b77,2024-02-21_21h27.53.489,kallum_motion_pilot,2023.2.2,Win32,60.24096386,61073e6d38111b5924507b77,65d6bb0e977760de756971f7,65d6bf0d3f7d9a4dcc97f339,0.0382,0.0382,1,99,261,3,1,twofour,,,,,,,,,,,,,,,,,,,,,,,,,,,,,,,,,,,,,,,,,,,,,,,,,,,,,,,,,,,,,,,,,,,,,,,,,,,,,,,,,,,,,,,,,,,,,,,,,,,,,,,,,,,,,,,,,,,,,,,,,,,,,,,,,,,,,,,,,
,,61073e6d38111b5924507b77,2024-02-21_21h27.53.489,kallum_motion_pilot,2023.2.2,Win32,60.24096386,61073e6d38111b5924507b77,65d6bb0e977760de756971f7,65d6bf0d3f7d9a4dcc97f339,0.0383,0.0383,1,100,262,73,1,onethree,,,,,,,,,,,,,,,,,,,,,,,,,,,,,,,,,,,,,,,,,,,,,,,,,,,,,,,,,,,,,,,,,,,,,,,,,,,,,,,,,,,,,,,,,,,,,,,,,,,,,,,,,,,,,,,,,,,,,,,,,,,,,,,,,,,,,,,,,
,,61073e6d38111b5924507b77,2024-02-21_21h27.53.489,kallum_motion_pilot,2023.2.2,Win32,60.24096386,61073e6d38111b5924507b77,65d6bb0e977760de756971f7,65d6bf0d3f7d9a4dcc97f339,0.0383,0.0383,1,101,263,91,1,sixeight,,,,,,,,,,,,,,,,,,,,,,,,,,,,,,,,,,,,,,,,,,,,,,,,,,,,,,,,,,,,,,,,,,,,,,,,,,,,,,,,,,,,,,,,,,,,,,,,,,,,,,,,,,,,,,,,,,,,,,,,,,,,,,,,,,,,,,,,,
,,61073e6d38111b5924507b77,2024-02-21_21h27.53.489,kallum_motion_pilot,2023.2.2,Win32,60.24096386,61073e6d38111b5924507b77,65d6bb0e977760de756971f7,65d6bf0d3f7d9a4dcc97f339,0.0385,0.0385,1,102,264,37,1,threefour,,,,,,,,,,,,,,,,,,,,,,,,,,,,,,,,,,,,,,,,,,,,,,,,,,,,,,,,,,,,,,,,,,,,,,,,,,,,,,,,,,,,,,,,,,,,,,,,,,,,,,,,,,,,,,,,,,,,,,,,,,,,,,,,,,,,,,,,,
,,61073e6d38111b5924507b77,2024-02-21_21h27.53.489,kallum_motion_pilot,2023.2.2,Win32,60.24096386,61073e6d38111b5924507b77,65d6bb0e977760de756971f7,65d6bf0d3f7d9a4dcc97f339,0.0386,0.0386,1,103,265,114,1,sixfive,,,,,,,,,,,,,,,,,,,,,,,,,,,,,,,,,,,,,,,,,,,,,,,,,,,,,,,,,,,,,,,,,,,,,,,,,,,,,,,,,,,,,,,,,,,,,,,,,,,,,,,,,,,,,,,,,,,,,,,,,,,,,,,,,,,,,,,,,
,,61073e6d38111b5924507b77,2024-02-21_21h27.53.489,kallum_motion_pilot,2023.2.2,Win32,60.24096386,61073e6d38111b5924507b77,65d6bb0e977760de756971f7,65d6bf0d3f7d9a4dcc97f339,0.0387,0.0387,1,104,266,79,1,eightseven,,,,,,,,,,,,,,,,,,,,,,,,,,,,,,,,,,,,,,,,,,,,,,,,,,,,,,,,,,,,,,,,,,,,,,,,,,,,,,,,,,,,,,,,,,,,,,,,,,,,,,,,,,,,,,,,,,,,,,,,,,,,,,,,,,,,,,,,,
,,61073e6d38111b5924507b77,2024-02-21_21h27.53.489,kallum_motion_pilot,2023.2.2,Win32,60.24096386,61073e6d38111b5924507b77,65d6bb0e977760de756971f7,65d6bf0d3f7d9a4dcc97f339,0.0387,0.0388,1,105,267,151,1,eightseven,,,,,,,,,,,,,,,,,,,,,,,,,,,,,,,,,,,,,,,,,,,,,,,,,,,,,,,,,,,,,,,,,,,,,,,,,,,,,,,,,,,,,,,,,,,,,,,,,,,,,,,,,,,,,,,,,,,,,,,,,,,,,,,,,,,,,,,,,
,,61073e6d38111b5924507b77,2024-02-21_21h27.53.489,kallum_motion_pilot,2023.2.2,Win32,60.24096386,61073e6d38111b5924507b77,65d6bb0e977760de756971f7,65d6bf0d3f7d9a4dcc97f339,0.0388,0.0389,1,106,268,47,1,fourthree,,,,,,,,,,,,,,,,,,,,,,,,,,,,,,,,,,,,,,,,,,,,,,,,,,,,,,,,,,,,,,,,,,,,,,,,,,,,,,,,,,,,,,,,,,,,,,,,,,,,,,,,,,,,,,,,,,,,,,,,,,,,,,,,,,,,,,,,,
,,61073e6d38111b5924507b77,2024-02-21_21h27.53.489,kallum_motion_pilot,2023.2.2,Win32,60.24096386,61073e6d38111b5924507b77,65d6bb0e977760de756971f7,65d6bf0d3f7d9a4dcc97f339,0.0389,0.0389,1,107,269,61,1,threefour,,,,,,,,,,,,,,,,,,,,,,,,,,,,,,,,,,,,,,,,,,,,,,,,,,,,,,,,,,,,,,,,,,,,,,,,,,,,,,,,,,,,,,,,,,,,,,,,,,,,,,,,,,,,,,,,,,,,,,,,,,,,,,,,,,,,,,,,,
,,61073e6d38111b5924507b77,2024-02-21_21h27.53.489,kallum_motion_pilot,2023.2.2,Win32,60.24096386,61073e6d38111b5924507b77,65d6bb0e977760de756971f7,65d6bf0d3f7d9a4dcc97f339,0.039,0.0391,1,108,270,40,1,onetwo,,,,,,,,,,,,,,,,,,,,,,,,,,,,,,,,,,,,,,,,,,,,,,,,,,,,,,,,,,,,,,,,,,,,,,,,,,,,,,,,,,,,,,,,,,,,,,,,,,,,,,,,,,,,,,,,,,,,,,,,,,,,,,,,,,,,,,,,,
,,61073e6d38111b5924507b77,2024-02-21_21h27.53.489,kallum_motion_pilot,2023.2.2,Win32,60.24096386,61073e6d38111b5924507b77,65d6bb0e977760de756971f7,65d6bf0d3f7d9a4dcc97f339,0.0391,0.0391,1,109,271,155,1,sixeight,,,,,,,,,,,,,,,,,,,,,,,,,,,,,,,,,,,,,,,,,,,,,,,,,,,,,,,,,,,,,,,,,,,,,,,,,,,,,,,,,,,,,,,,,,,,,,,,,,,,,,,,,,,,,,,,,,,,,,,,,,,,,,,,,,,,,,,,,
,,61073e6d38111b5924507b77,2024-02-21_21h27.53.489,kallum_motion_pilot,2023.2.2,Win32,60.24096386,61073e6d38111b5924507b77,65d6bb0e977760de756971f7,65d6bf0d3f7d9a4dcc97f339,0.0392,0.0393,1,110,272,63,1,fourthree,,,,,,,,,,,,,,,,,,,,,,,,,,,,,,,,,,,,,,,,,,,,,,,,,,,,,,,,,,,,,,,,,,,,,,,,,,,,,,,,,,,,,,,,,,,,,,,,,,,,,,,,,,,,,,,,,,,,,,,,,,,,,,,,,,,,,,,,,
,,61073e6d38111b5924507b77,2024-02-21_21h27.53.489,kallum_motion_pilot,2023.2.2,Win32,60.24096386,61073e6d38111b5924507b77,65d6bb0e977760de756971f7,65d6bf0d3f7d9a4dcc97f339,0.0393,0.0393,1,111,273,125,1,seveneight,,,,,,,,,,,,,,,,,,,,,,,,,,,,,,,,,,,,,,,,,,,,,,,,,,,,,,,,,,,,,,,,,,,,,,,,,,,,,,,,,,,,,,,,,,,,,,,,,,,,,,,,,,,,,,,,,,,,,,,,,,,,,,,,,,,,,,,,,
,,61073e6d38111b5924507b77,2024-02-21_21h27.53.489,kallum_motion_pilot,2023.2.2,Win32,60.24096386,61073e6d38111b5924507b77,65d6bb0e977760de756971f7,65d6bf0d3f7d9a4dcc97f339,0.0393,0.0394,1,112,274,160,1,fivesix,,,,,,,,,,,,,,,,,,,,,,,,,,,,,,,,,,,,,,,,,,,,,,,,,,,,,,,,,,,,,,,,,,,,,,,,,,,,,,,,,,,,,,,,,,,,,,,,,,,,,,,,,,,,,,,,,,,,,,,,,,,,,,,,,,,,,,,,,
,,61073e6d38111b5924507b77,2024-02-21_21h27.53.489,kallum_motion_pilot,2023.2.2,Win32,60.24096386,61073e6d38111b5924507b77,65d6bb0e977760de756971f7,65d6bf0d3f7d9a4dcc97f339,0.0395,0.0395,1,113,275,140,1,sevenfive,,,,,,,,,,,,,,,,,,,,,,,,,,,,,,,,,,,,,,,,,,,,,,,,,,,,,,,,,,,,,,,,,,,,,,,,,,,,,,,,,,,,,,,,,,,,,,,,,,,,,,,,,,,,,,,,,,,,,,,,,,,,,,,,,,,,,,,,,
,,61073e6d38111b5924507b77,2024-02-21_21h27.53.489,kallum_motion_pilot,2023.2.2,Win32,60.24096386,61073e6d38111b5924507b77,65d6bb0e977760de756971f7,65d6bf0d3f7d9a4dcc97f339,0.0396,0.0396,1,114,276,144,1,fivesix,,,,,,,,,,,,,,,,,,,,,,,,,,,,,,,,,,,,,,,,,,,,,,,,,,,,,,,,,,,,,,,,,,,,,,,,,,,,,,,,,,,,,,,,,,,,,,,,,,,,,,,,,,,,,,,,,,,,,,,,,,,,,,,,,,,,,,,,,
,,61073e6d38111b5924507b77,2024-02-21_21h27.53.489,kallum_motion_pilot,2023.2.2,Win32,60.24096386,61073e6d38111b5924507b77,65d6bb0e977760de756971f7,65d6bf0d3f7d9a4dcc97f339,0.0396,0.0396,1,115,277,54,1,fourtwo,,,,,,,,,,,,,,,,,,,,,,,,,,,,,,,,,,,,,,,,,,,,,,,,,,,,,,,,,,,,,,,,,,,,,,,,,,,,,,,,,,,,,,,,,,,,,,,,,,,,,,,,,,,,,,,,,,,,,,,,,,,,,,,,,,,,,,,,,
