startup.started,startup.stopped,Prolific ID*,date,expName,psychopyVersion,OS,frameRate,participant,study_id,session,stimpositions.started,stimpositions.stopped,hardcoded_stimulus_positions.thisRepN,hardcoded_stimulus_positions.thisTrialN,hardcoded_stimulus_positions.thisN,hardcoded_stimulus_positions.thisIndex,hardcoded_stimulus_positions.ran,StimulusPos,stimorientation.started,stimorientation.stopped,prac_stimorientation_import_loop.thisRepN,prac_stimorientation_import_loop.thisTrialN,prac_stimorientation_import_loop.thisN,prac_stimorientation_import_loop.thisIndex,prac_stimorientation_import_loop.ran,Stimorientation,welcome_instr.started,welcome_instr.stopped,key_resp.keys,key_resp.rt,key_resp.duration,response_steppedout_1.started,response_steppedout_1.stopped,key_resp_20.keys,key_resp_20.rt,key_resp_20.duration,response_steppedout_2.started,response_steppedout_2.stopped,key_resp_19.keys,key_resp_19.rt,key_resp_19.duration,stim_response_instr.started,stim_response_instr.stopped,key_resp_15.keys,key_resp_15.rt,key_resp_15.duration,direction_instr_2.started,direction_instr_2.stopped,key_resp_9.keys,key_resp_9.rt,key_resp_9.duration,instr_prac.started,instr_prac.stopped,key_resp_10.keys,key_resp_10.rt,key_resp_10.duration,Stim1_display_prac.started,Stim1_display_prac.stopped,Ecc,Circle1_ori,Circle2_ori,response_prac.started,similarity,response_time,response_prac.stopped,mouse_5.x,mouse_5.y,mouse_5.leftButton,mouse_5.midButton,mouse_5.rightButton,mouse_5.clicked_name,responseprac_feedback.started,responseprac_feedback.stopped,summary2_prac.started,summary2_prac.stopped,mouse_6.x,mouse_6.y,mouse_6.leftButton,mouse_6.midButton,mouse_6.rightButton,mouse_6.clicked_name,duringprac.thisRepN,duringprac.thisTrialN,duringprac.thisN,duringprac.thisIndex,duringprac.ran,begin.started,begin.stopped,key_resp_22.keys,key_resp_22.rt,key_resp_22.duration,Stim1_display.started,Stim1_display.stopped,circle1_ori,circle2_ori,circle1_SF,circle2_SF,response.started,response.stopped,mouse.x,mouse.y,mouse.leftButton,mouse.midButton,mouse.rightButton,mouse.clicked_name,trialnumber,double_pass.thisRepN,double_pass.thisTrialN,double_pass.thisN,double_pass.thisIndex,double_pass.ran,double_pass.order,main_trial.thisRepN,main_trial.thisTrialN,main_trial.thisN,main_trial.thisIndex,main_trial.ran,main_trial.order,Trial_Counter,Catch,Frequencies,response_2.started,response_2.stopped,mouse_2.x,mouse_2.y,mouse_2.leftButton,mouse_2.midButton,mouse_2.rightButton,mouse_2.clicked_name,special_trial.started,special_trial.stopped,catch_1.started,catch_1.stopped,mouse_3.x,mouse_3.y,mouse_3.leftButton,mouse_3.midButton,mouse_3.rightButton,catchresponse,catchnumber,response_time_catch,response_sum.started,response_sum.stopped,mouse_11.x,mouse_11.y,mouse_11.leftButton,mouse_11.midButton,mouse_11.rightButton,flip_presentation_sequence_for_double_pass.started,flip_presentation_sequence_for_double_pass.stopped,goodbye.started,goodbye.stopped,key_resp_3.keys,key_resp_3.rt,key_resp_3.duration
0.0004,0.0006,61082411ae20078aaf317d35,2024-02-19_02h16.00.110,kallum_motion_pilot,2023.2.2,Win32,59.52380952,61082411ae20078aaf317d35,65d2b6c8f2eece985d8e374c,65d2b9c7901b20510b57917b,,,,,,,,,,,,,,,,,,,,,,,,,,,,,,,,,,,,,,,,,,,,,,,,,,,,,,,,,,,,,,,,,,,,,,,,,,,,,,,,,,,,,,,,,,,,,,,,,,,,,,,,,,,,,,,,,,,,,,,,,,,,,,,,,,,,,,,,,,,,,,,,,
,,61082411ae20078aaf317d35,2024-02-19_02h16.00.110,kallum_motion_pilot,2023.2.2,Win32,59.52380952,61082411ae20078aaf317d35,65d2b6c8f2eece985d8e374c,65d2b9c7901b20510b57917b,0.0202,0.0204,0,0,0,31,1,fourthree,,,,,,,,,,,,,,,,,,,,,,,,,,,,,,,,,,,,,,,,,,,,,,,,,,,,,,,,,,,,,,,,,,,,,,,,,,,,,,,,,,,,,,,,,,,,,,,,,,,,,,,,,,,,,,,,,,,,,,,,,,,,,,,,,,,,,,,,,
,,61082411ae20078aaf317d35,2024-02-19_02h16.00.110,kallum_motion_pilot,2023.2.2,Win32,59.52380952,61082411ae20078aaf317d35,65d2b6c8f2eece985d8e374c,65d2b9c7901b20510b57917b,0.0206,0.0206,0,1,1,89,1,fiveseven,,,,,,,,,,,,,,,,,,,,,,,,,,,,,,,,,,,,,,,,,,,,,,,,,,,,,,,,,,,,,,,,,,,,,,,,,,,,,,,,,,,,,,,,,,,,,,,,,,,,,,,,,,,,,,,,,,,,,,,,,,,,,,,,,,,,,,,,,
,,61082411ae20078aaf317d35,2024-02-19_02h16.00.110,kallum_motion_pilot,2023.2.2,Win32,59.52380952,61082411ae20078aaf317d35,65d2b6c8f2eece985d8e374c,65d2b9c7901b20510b57917b,0.0207,0.0207,0,2,2,99,1,sixeight,,,,,,,,,,,,,,,,,,,,,,,,,,,,,,,,,,,,,,,,,,,,,,,,,,,,,,,,,,,,,,,,,,,,,,,,,,,,,,,,,,,,,,,,,,,,,,,,,,,,,,,,,,,,,,,,,,,,,,,,,,,,,,,,,,,,,,,,,
,,61082411ae20078aaf317d35,2024-02-19_02h16.00.110,kallum_motion_pilot,2023.2.2,Win32,59.52380952,61082411ae20078aaf317d35,65d2b6c8f2eece985d8e374c,65d2b9c7901b20510b57917b,0.0207,0.0208,0,3,3,30,1,fourtwo,,,,,,,,,,,,,,,,,,,,,,,,,,,,,,,,,,,,,,,,,,,,,,,,,,,,,,,,,,,,,,,,,,,,,,,,,,,,,,,,,,,,,,,,,,,,,,,,,,,,,,,,,,,,,,,,,,,,,,,,,,,,,,,,,,,,,,,,,
,,61082411ae20078aaf317d35,2024-02-19_02h16.00.110,kallum_motion_pilot,2023.2.2,Win32,59.52380952,61082411ae20078aaf317d35,65d2b6c8f2eece985d8e374c,65d2b9c7901b20510b57917b,0.0209,0.0209,0,4,4,98,1,sixfive,,,,,,,,,,,,,,,,,,,,,,,,,,,,,,,,,,,,,,,,,,,,,,,,,,,,,,,,,,,,,,,,,,,,,,,,,,,,,,,,,,,,,,,,,,,,,,,,,,,,,,,,,,,,,,,,,,,,,,,,,,,,,,,,,,,,,,,,,
,,61082411ae20078aaf317d35,2024-02-19_02h16.00.110,kallum_motion_pilot,2023.2.2,Win32,59.52380952,61082411ae20078aaf317d35,65d2b6c8f2eece985d8e374c,65d2b9c7901b20510b57917b,0.021,0.021,0,5,5,5,1,threefour,,,,,,,,,,,,,,,,,,,,,,,,,,,,,,,,,,,,,,,,,,,,,,,,,,,,,,,,,,,,,,,,,,,,,,,,,,,,,,,,,,,,,,,,,,,,,,,,,,,,,,,,,,,,,,,,,,,,,,,,,,,,,,,,,,,,,,,,,
,,61082411ae20078aaf317d35,2024-02-19_02h16.00.110,kallum_motion_pilot,2023.2.2,Win32,59.52380952,61082411ae20078aaf317d35,65d2b6c8f2eece985d8e374c,65d2b9c7901b20510b57917b,0.0211,0.0211,0,6,6,32,1,onetwo,,,,,,,,,,,,,,,,,,,,,,,,,,,,,,,,,,,,,,,,,,,,,,,,,,,,,,,,,,,,,,,,,,,,,,,,,,,,,,,,,,,,,,,,,,,,,,,,,,,,,,,,,,,,,,,,,,,,,,,,,,,,,,,,,,,,,,,,,
,,61082411ae20078aaf317d35,2024-02-19_02h16.00.110,kallum_motion_pilot,2023.2.2,Win32,59.52380952,61082411ae20078aaf317d35,65d2b6c8f2eece985d8e374c,65d2b9c7901b20510b57917b,0.0211,0.0211,0,7,7,142,1,eightsix,,,,,,,,,,,,,,,,,,,,,,,,,,,,,,,,,,,,,,,,,,,,,,,,,,,,,,,,,,,,,,,,,,,,,,,,,,,,,,,,,,,,,,,,,,,,,,,,,,,,,,,,,,,,,,,,,,,,,,,,,,,,,,,,,,,,,,,,,
,,61082411ae20078aaf317d35,2024-02-19_02h16.00.110,kallum_motion_pilot,2023.2.2,Win32,59.52380952,61082411ae20078aaf317d35,65d2b6c8f2eece985d8e374c,65d2b9c7901b20510b57917b,0.0212,0.0213,0,8,8,16,1,onetwo,,,,,,,,,,,,,,,,,,,,,,,,,,,,,,,,,,,,,,,,,,,,,,,,,,,,,,,,,,,,,,,,,,,,,,,,,,,,,,,,,,,,,,,,,,,,,,,,,,,,,,,,,,,,,,,,,,,,,,,,,,,,,,,,,,,,,,,,,
,,61082411ae20078aaf317d35,2024-02-19_02h16.00.110,kallum_motion_pilot,2023.2.2,Win32,59.52380952,61082411ae20078aaf317d35,65d2b6c8f2eece985d8e374c,65d2b9c7901b20510b57917b,0.0213,0.0214,0,9,9,129,1,fiveseven,,,,,,,,,,,,,,,,,,,,,,,,,,,,,,,,,,,,,,,,,,,,,,,,,,,,,,,,,,,,,,,,,,,,,,,,,,,,,,,,,,,,,,,,,,,,,,,,,,,,,,,,,,,,,,,,,,,,,,,,,,,,,,,,,,,,,,,,,
,,61082411ae20078aaf317d35,2024-02-19_02h16.00.110,kallum_motion_pilot,2023.2.2,Win32,59.52380952,61082411ae20078aaf317d35,65d2b6c8f2eece985d8e374c,65d2b9c7901b20510b57917b,0.0215,0.0215,0,10,10,77,1,threefour,,,,,,,,,,,,,,,,,,,,,,,,,,,,,,,,,,,,,,,,,,,,,,,,,,,,,,,,,,,,,,,,,,,,,,,,,,,,,,,,,,,,,,,,,,,,,,,,,,,,,,,,,,,,,,,,,,,,,,,,,,,,,,,,,,,,,,,,,
,,61082411ae20078aaf317d35,2024-02-19_02h16.00.110,kallum_motion_pilot,2023.2.2,Win32,59.52380952,61082411ae20078aaf317d35,65d2b6c8f2eece985d8e374c,65d2b9c7901b20510b57917b,0.0215,0.0216,0,11,11,117,1,seveneight,,,,,,,,,,,,,,,,,,,,,,,,,,,,,,,,,,,,,,,,,,,,,,,,,,,,,,,,,,,,,,,,,,,,,,,,,,,,,,,,,,,,,,,,,,,,,,,,,,,,,,,,,,,,,,,,,,,,,,,,,,,,,,,,,,,,,,,,,
,,61082411ae20078aaf317d35,2024-02-19_02h16.00.110,kallum_motion_pilot,2023.2.2,Win32,59.52380952,61082411ae20078aaf317d35,65d2b6c8f2eece985d8e374c,65d2b9c7901b20510b57917b,0.0217,0.0217,0,12,12,66,1,twoone,,,,,,,,,,,,,,,,,,,,,,,,,,,,,,,,,,,,,,,,,,,,,,,,,,,,,,,,,,,,,,,,,,,,,,,,,,,,,,,,,,,,,,,,,,,,,,,,,,,,,,,,,,,,,,,,,,,,,,,,,,,,,,,,,,,,,,,,,
,,61082411ae20078aaf317d35,2024-02-19_02h16.00.110,kallum_motion_pilot,2023.2.2,Win32,59.52380952,61082411ae20078aaf317d35,65d2b6c8f2eece985d8e374c,65d2b9c7901b20510b57917b,0.0217,0.0218,0,13,13,96,1,fivesix,,,,,,,,,,,,,,,,,,,,,,,,,,,,,,,,,,,,,,,,,,,,,,,,,,,,,,,,,,,,,,,,,,,,,,,,,,,,,,,,,,,,,,,,,,,,,,,,,,,,,,,,,,,,,,,,,,,,,,,,,,,,,,,,,,,,,,,,,
,,61082411ae20078aaf317d35,2024-02-19_02h16.00.110,kallum_motion_pilot,2023.2.2,Win32,59.52380952,61082411ae20078aaf317d35,65d2b6c8f2eece985d8e374c,65d2b9c7901b20510b57917b,0.0218,0.0218,0,14,14,104,1,fivesix,,,,,,,,,,,,,,,,,,,,,,,,,,,,,,,,,,,,,,,,,,,,,,,,,,,,,,,,,,,,,,,,,,,,,,,,,,,,,,,,,,,,,,,,,,,,,,,,,,,,,,,,,,,,,,,,,,,,,,,,,,,,,,,,,,,,,,,,,
,,61082411ae20078aaf317d35,2024-02-19_02h16.00.110,kallum_motion_pilot,2023.2.2,Win32,59.52380952,61082411ae20078aaf317d35,65d2b6c8f2eece985d8e374c,65d2b9c7901b20510b57917b,0.0219,0.0219,0,15,15,63,1,fourthree,,,,,,,,,,,,,,,,,,,,,,,,,,,,,,,,,,,,,,,,,,,,,,,,,,,,,,,,,,,,,,,,,,,,,,,,,,,,,,,,,,,,,,,,,,,,,,,,,,,,,,,,,,,,,,,,,,,,,,,,,,,,,,,,,,,,,,,,,
,,61082411ae20078aaf317d35,2024-02-19_02h16.00.110,kallum_motion_pilot,2023.2.2,Win32,59.52380952,61082411ae20078aaf317d35,65d2b6c8f2eece985d8e374c,65d2b9c7901b20510b57917b,0.022,0.022,0,16,16,124,1,sevenfive,,,,,,,,,,,,,,,,,,,,,,,,,,,,,,,,,,,,,,,,,,,,,,,,,,,,,,,,,,,,,,,,,,,,,,,,,,,,,,,,,,,,,,,,,,,,,,,,,,,,,,,,,,,,,,,,,,,,,,,,,,,,,,,,,,,,,,,,,
,,61082411ae20078aaf317d35,2024-02-19_02h16.00.110,kallum_motion_pilot,2023.2.2,Win32,59.52380952,61082411ae20078aaf317d35,65d2b6c8f2eece985d8e374c,65d2b9c7901b20510b57917b,0.022,0.022,0,17,17,53,1,threefour,,,,,,,,,,,,,,,,,,,,,,,,,,,,,,,,,,,,,,,,,,,,,,,,,,,,,,,,,,,,,,,,,,,,,,,,,,,,,,,,,,,,,,,,,,,,,,,,,,,,,,,,,,,,,,,,,,,,,,,,,,,,,,,,,,,,,,,,,
,,61082411ae20078aaf317d35,2024-02-19_02h16.00.110,kallum_motion_pilot,2023.2.2,Win32,59.52380952,61082411ae20078aaf317d35,65d2b6c8f2eece985d8e374c,65d2b9c7901b20510b57917b,0.0221,0.0222,0,18,18,147,1,sixeight,,,,,,,,,,,,,,,,,,,,,,,,,,,,,,,,,,,,,,,,,,,,,,,,,,,,,,,,,,,,,,,,,,,,,,,,,,,,,,,,,,,,,,,,,,,,,,,,,,,,,,,,,,,,,,,,,,,,,,,,,,,,,,,,,,,,,,,,,
,,61082411ae20078aaf317d35,2024-02-19_02h16.00.110,kallum_motion_pilot,2023.2.2,Win32,59.52380952,61082411ae20078aaf317d35,65d2b6c8f2eece985d8e374c,65d2b9c7901b20510b57917b,0.0222,0.0222,0,19,19,116,1,sevenfive,,,,,,,,,,,,,,,,,,,,,,,,,,,,,,,,,,,,,,,,,,,,,,,,,,,,,,,,,,,,,,,,,,,,,,,,,,,,,,,,,,,,,,,,,,,,,,,,,,,,,,,,,,,,,,,,,,,,,,,,,,,,,,,,,,,,,,,,,
,,61082411ae20078aaf317d35,2024-02-19_02h16.00.110,kallum_motion_pilot,2023.2.2,Win32,59.52380952,61082411ae20078aaf317d35,65d2b6c8f2eece985d8e374c,65d2b9c7901b20510b57917b,0.0223,0.0223,0,20,20,51,1,twofour,,,,,,,,,,,,,,,,,,,,,,,,,,,,,,,,,,,,,,,,,,,,,,,,,,,,,,,,,,,,,,,,,,,,,,,,,,,,,,,,,,,,,,,,,,,,,,,,,,,,,,,,,,,,,,,,,,,,,,,,,,,,,,,,,,,,,,,,,
,,61082411ae20078aaf317d35,2024-02-19_02h16.00.110,kallum_motion_pilot,2023.2.2,Win32,59.52380952,61082411ae20078aaf317d35,65d2b6c8f2eece985d8e374c,65d2b9c7901b20510b57917b,0.0223,0.0224,0,21,21,24,1,onetwo,,,,,,,,,,,,,,,,,,,,,,,,,,,,,,,,,,,,,,,,,,,,,,,,,,,,,,,,,,,,,,,,,,,,,,,,,,,,,,,,,,,,,,,,,,,,,,,,,,,,,,,,,,,,,,,,,,,,,,,,,,,,,,,,,,,,,,,,,
,,61082411ae20078aaf317d35,2024-02-19_02h16.00.110,kallum_motion_pilot,2023.2.2,Win32,59.52380952,61082411ae20078aaf317d35,65d2b6c8f2eece985d8e374c,65d2b9c7901b20510b57917b,0.0224,0.0225,0,22,22,155,1,sixeight,,,,,,,,,,,,,,,,,,,,,,,,,,,,,,,,,,,,,,,,,,,,,,,,,,,,,,,,,,,,,,,,,,,,,,,,,,,,,,,,,,,,,,,,,,,,,,,,,,,,,,,,,,,,,,,,,,,,,,,,,,,,,,,,,,,,,,,,,
,,61082411ae20078aaf317d35,2024-02-19_02h16.00.110,kallum_motion_pilot,2023.2.2,Win32,59.52380952,61082411ae20078aaf317d35,65d2b6c8f2eece985d8e374c,65d2b9c7901b20510b57917b,0.0225,0.0225,0,23,23,149,1,seveneight,,,,,,,,,,,,,,,,,,,,,,,,,,,,,,,,,,,,,,,,,,,,,,,,,,,,,,,,,,,,,,,,,,,,,,,,,,,,,,,,,,,,,,,,,,,,,,,,,,,,,,,,,,,,,,,,,,,,,,,,,,,,,,,,,,,,,,,,,
,,61082411ae20078aaf317d35,2024-02-19_02h16.00.110,kallum_motion_pilot,2023.2.2,Win32,59.52380952,61082411ae20078aaf317d35,65d2b6c8f2eece985d8e374c,65d2b9c7901b20510b57917b,0.0226,0.0226,0,24,24,33,1,onethree,,,,,,,,,,,,,,,,,,,,,,,,,,,,,,,,,,,,,,,,,,,,,,,,,,,,,,,,,,,,,,,,,,,,,,,,,,,,,,,,,,,,,,,,,,,,,,,,,,,,,,,,,,,,,,,,,,,,,,,,,,,,,,,,,,,,,,,,,
,,61082411ae20078aaf317d35,2024-02-19_02h16.00.110,kallum_motion_pilot,2023.2.2,Win32,59.52380952,61082411ae20078aaf317d35,65d2b6c8f2eece985d8e374c,65d2b9c7901b20510b57917b,0.0227,0.0227,0,25,25,55,1,fourthree,,,,,,,,,,,,,,,,,,,,,,,,,,,,,,,,,,,,,,,,,,,,,,,,,,,,,,,,,,,,,,,,,,,,,,,,,,,,,,,,,,,,,,,,,,,,,,,,,,,,,,,,,,,,,,,,,,,,,,,,,,,,,,,,,,,,,,,,,
,,61082411ae20078aaf317d35,2024-02-19_02h16.00.110,kallum_motion_pilot,2023.2.2,Win32,59.52380952,61082411ae20078aaf317d35,65d2b6c8f2eece985d8e374c,65d2b9c7901b20510b57917b,0.0227,0.0228,0,26,26,8,1,onetwo,,,,,,,,,,,,,,,,,,,,,,,,,,,,,,,,,,,,,,,,,,,,,,,,,,,,,,,,,,,,,,,,,,,,,,,,,,,,,,,,,,,,,,,,,,,,,,,,,,,,,,,,,,,,,,,,,,,,,,,,,,,,,,,,,,,,,,,,,
,,61082411ae20078aaf317d35,2024-02-19_02h16.00.110,kallum_motion_pilot,2023.2.2,Win32,59.52380952,61082411ae20078aaf317d35,65d2b6c8f2eece985d8e374c,65d2b9c7901b20510b57917b,0.0229,0.0229,0,27,27,59,1,twofour,,,,,,,,,,,,,,,,,,,,,,,,,,,,,,,,,,,,,,,,,,,,,,,,,,,,,,,,,,,,,,,,,,,,,,,,,,,,,,,,,,,,,,,,,,,,,,,,,,,,,,,,,,,,,,,,,,,,,,,,,,,,,,,,,,,,,,,,,
,,61082411ae20078aaf317d35,2024-02-19_02h16.00.110,kallum_motion_pilot,2023.2.2,Win32,59.52380952,61082411ae20078aaf317d35,65d2b6c8f2eece985d8e374c,65d2b9c7901b20510b57917b,0.0229,0.0229,0,28,28,34,1,twoone,,,,,,,,,,,,,,,,,,,,,,,,,,,,,,,,,,,,,,,,,,,,,,,,,,,,,,,,,,,,,,,,,,,,,,,,,,,,,,,,,,,,,,,,,,,,,,,,,,,,,,,,,,,,,,,,,,,,,,,,,,,,,,,,,,,,,,,,,
,,61082411ae20078aaf317d35,2024-02-19_02h16.00.110,kallum_motion_pilot,2023.2.2,Win32,59.52380952,61082411ae20078aaf317d35,65d2b6c8f2eece985d8e374c,65d2b9c7901b20510b57917b,0.023,0.0231,0,29,29,11,1,twofour,,,,,,,,,,,,,,,,,,,,,,,,,,,,,,,,,,,,,,,,,,,,,,,,,,,,,,,,,,,,,,,,,,,,,,,,,,,,,,,,,,,,,,,,,,,,,,,,,,,,,,,,,,,,,,,,,,,,,,,,,,,,,,,,,,,,,,,,,
,,61082411ae20078aaf317d35,2024-02-19_02h16.00.110,kallum_motion_pilot,2023.2.2,Win32,59.52380952,61082411ae20078aaf317d35,65d2b6c8f2eece985d8e374c,65d2b9c7901b20510b57917b,0.0231,0.0231,0,30,30,100,1,sevenfive,,,,,,,,,,,,,,,,,,,,,,,,,,,,,,,,,,,,,,,,,,,,,,,,,,,,,,,,,,,,,,,,,,,,,,,,,,,,,,,,,,,,,,,,,,,,,,,,,,,,,,,,,,,,,,,,,,,,,,,,,,,,,,,,,,,,,,,,,
,,61082411ae20078aaf317d35,2024-02-19_02h16.00.110,kallum_motion_pilot,2023.2.2,Win32,59.52380952,61082411ae20078aaf317d35,65d2b6c8f2eece985d8e374c,65d2b9c7901b20510b57917b,0.0232,0.0232,0,31,31,57,1,onethree,,,,,,,,,,,,,,,,,,,,,,,,,,,,,,,,,,,,,,,,,,,,,,,,,,,,,,,,,,,,,,,,,,,,,,,,,,,,,,,,,,,,,,,,,,,,,,,,,,,,,,,,,,,,,,,,,,,,,,,,,,,,,,,,,,,,,,,,,
,,61082411ae20078aaf317d35,2024-02-19_02h16.00.110,kallum_motion_pilot,2023.2.2,Win32,59.52380952,61082411ae20078aaf317d35,65d2b6c8f2eece985d8e374c,65d2b9c7901b20510b57917b,0.0232,0.0232,0,32,32,97,1,fiveseven,,,,,,,,,,,,,,,,,,,,,,,,,,,,,,,,,,,,,,,,,,,,,,,,,,,,,,,,,,,,,,,,,,,,,,,,,,,,,,,,,,,,,,,,,,,,,,,,,,,,,,,,,,,,,,,,,,,,,,,,,,,,,,,,,,,,,,,,,
,,61082411ae20078aaf317d35,2024-02-19_02h16.00.110,kallum_motion_pilot,2023.2.2,Win32,59.52380952,61082411ae20078aaf317d35,65d2b6c8f2eece985d8e374c,65d2b9c7901b20510b57917b,0.0232,0.0233,0,33,33,126,1,eightsix,,,,,,,,,,,,,,,,,,,,,,,,,,,,,,,,,,,,,,,,,,,,,,,,,,,,,,,,,,,,,,,,,,,,,,,,,,,,,,,,,,,,,,,,,,,,,,,,,,,,,,,,,,,,,,,,,,,,,,,,,,,,,,,,,,,,,,,,,
,,61082411ae20078aaf317d35,2024-02-19_02h16.00.110,kallum_motion_pilot,2023.2.2,Win32,59.52380952,61082411ae20078aaf317d35,65d2b6c8f2eece985d8e374c,65d2b9c7901b20510b57917b,0.0233,0.0234,0,34,34,88,1,fivesix,,,,,,,,,,,,,,,,,,,,,,,,,,,,,,,,,,,,,,,,,,,,,,,,,,,,,,,,,,,,,,,,,,,,,,,,,,,,,,,,,,,,,,,,,,,,,,,,,,,,,,,,,,,,,,,,,,,,,,,,,,,,,,,,,,,,,,,,,
,,61082411ae20078aaf317d35,2024-02-19_02h16.00.110,kallum_motion_pilot,2023.2.2,Win32,59.52380952,61082411ae20078aaf317d35,65d2b6c8f2eece985d8e374c,65d2b9c7901b20510b57917b,0.0235,0.0235,0,35,35,47,1,fourthree,,,,,,,,,,,,,,,,,,,,,,,,,,,,,,,,,,,,,,,,,,,,,,,,,,,,,,,,,,,,,,,,,,,,,,,,,,,,,,,,,,,,,,,,,,,,,,,,,,,,,,,,,,,,,,,,,,,,,,,,,,,,,,,,,,,,,,,,,
,,61082411ae20078aaf317d35,2024-02-19_02h16.00.110,kallum_motion_pilot,2023.2.2,Win32,59.52380952,61082411ae20078aaf317d35,65d2b6c8f2eece985d8e374c,65d2b9c7901b20510b57917b,0.0235,0.0235,0,36,36,6,1,fourtwo,,,,,,,,,,,,,,,,,,,,,,,,,,,,,,,,,,,,,,,,,,,,,,,,,,,,,,,,,,,,,,,,,,,,,,,,,,,,,,,,,,,,,,,,,,,,,,,,,,,,,,,,,,,,,,,,,,,,,,,,,,,,,,,,,,,,,,,,,
,,61082411ae20078aaf317d35,2024-02-19_02h16.00.110,kallum_motion_pilot,2023.2.2,Win32,59.52380952,61082411ae20078aaf317d35,65d2b6c8f2eece985d8e374c,65d2b9c7901b20510b57917b,0.0236,0.0236,0,37,37,133,1,seveneight,,,,,,,,,,,,,,,,,,,,,,,,,,,,,,,,,,,,,,,,,,,,,,,,,,,,,,,,,,,,,,,,,,,,,,,,,,,,,,,,,,,,,,,,,,,,,,,,,,,,,,,,,,,,,,,,,,,,,,,,,,,,,,,,,,,,,,,,,
,,61082411ae20078aaf317d35,2024-02-19_02h16.00.110,kallum_motion_pilot,2023.2.2,Win32,59.52380952,61082411ae20078aaf317d35,65d2b6c8f2eece985d8e374c,65d2b9c7901b20510b57917b,0.0237,0.0237,0,38,38,106,1,sixfive,,,,,,,,,,,,,,,,,,,,,,,,,,,,,,,,,,,,,,,,,,,,,,,,,,,,,,,,,,,,,,,,,,,,,,,,,,,,,,,,,,,,,,,,,,,,,,,,,,,,,,,,,,,,,,,,,,,,,,,,,,,,,,,,,,,,,,,,,
,,61082411ae20078aaf317d35,2024-02-19_02h16.00.110,kallum_motion_pilot,2023.2.2,Win32,59.52380952,61082411ae20078aaf317d35,65d2b6c8f2eece985d8e374c,65d2b9c7901b20510b57917b,0.0238,0.0238,0,39,39,37,1,threefour,,,,,,,,,,,,,,,,,,,,,,,,,,,,,,,,,,,,,,,,,,,,,,,,,,,,,,,,,,,,,,,,,,,,,,,,,,,,,,,,,,,,,,,,,,,,,,,,,,,,,,,,,,,,,,,,,,,,,,,,,,,,,,,,,,,,,,,,,
,,61082411ae20078aaf317d35,2024-02-19_02h16.00.110,kallum_motion_pilot,2023.2.2,Win32,59.52380952,61082411ae20078aaf317d35,65d2b6c8f2eece985d8e374c,65d2b9c7901b20510b57917b,0.0239,0.0239,0,40,40,27,1,twofour,,,,,,,,,,,,,,,,,,,,,,,,,,,,,,,,,,,,,,,,,,,,,,,,,,,,,,,,,,,,,,,,,,,,,,,,,,,,,,,,,,,,,,,,,,,,,,,,,,,,,,,,,,,,,,,,,,,,,,,,,,,,,,,,,,,,,,,,,
,,61082411ae20078aaf317d35,2024-02-19_02h16.00.110,kallum_motion_pilot,2023.2.2,Win32,59.52380952,61082411ae20078aaf317d35,65d2b6c8f2eece985d8e374c,65d2b9c7901b20510b57917b,0.024,0.024,0,41,41,122,1,sixfive,,,,,,,,,,,,,,,,,,,,,,,,,,,,,,,,,,,,,,,,,,,,,,,,,,,,,,,,,,,,,,,,,,,,,,,,,,,,,,,,,,,,,,,,,,,,,,,,,,,,,,,,,,,,,,,,,,,,,,,,,,,,,,,,,,,,,,,,,
,,61082411ae20078aaf317d35,2024-02-19_02h16.00.110,kallum_motion_pilot,2023.2.2,Win32,59.52380952,61082411ae20078aaf317d35,65d2b6c8f2eece985d8e374c,65d2b9c7901b20510b57917b,0.024,0.024,0,42,42,161,1,fiveseven,,,,,,,,,,,,,,,,,,,,,,,,,,,,,,,,,,,,,,,,,,,,,,,,,,,,,,,,,,,,,,,,,,,,,,,,,,,,,,,,,,,,,,,,,,,,,,,,,,,,,,,,,,,,,,,,,,,,,,,,,,,,,,,,,,,,,,,,,
,,61082411ae20078aaf317d35,2024-02-19_02h16.00.110,kallum_motion_pilot,2023.2.2,Win32,59.52380952,61082411ae20078aaf317d35,65d2b6c8f2eece985d8e374c,65d2b9c7901b20510b57917b,0.0241,0.0241,0,43,43,12,1,threeone,,,,,,,,,,,,,,,,,,,,,,,,,,,,,,,,,,,,,,,,,,,,,,,,,,,,,,,,,,,,,,,,,,,,,,,,,,,,,,,,,,,,,,,,,,,,,,,,,,,,,,,,,,,,,,,,,,,,,,,,,,,,,,,,,,,,,,,,,
,,61082411ae20078aaf317d35,2024-02-19_02h16.00.110,kallum_motion_pilot,2023.2.2,Win32,59.52380952,61082411ae20078aaf317d35,65d2b6c8f2eece985d8e374c,65d2b9c7901b20510b57917b,0.0242,0.0242,0,44,44,62,1,fourtwo,,,,,,,,,,,,,,,,,,,,,,,,,,,,,,,,,,,,,,,,,,,,,,,,,,,,,,,,,,,,,,,,,,,,,,,,,,,,,,,,,,,,,,,,,,,,,,,,,,,,,,,,,,,,,,,,,,,,,,,,,,,,,,,,,,,,,,,,,
,,61082411ae20078aaf317d35,2024-02-19_02h16.00.110,kallum_motion_pilot,2023.2.2,Win32,59.52380952,61082411ae20078aaf317d35,65d2b6c8f2eece985d8e374c,65d2b9c7901b20510b57917b,0.0243,0.0243,0,45,45,91,1,sixeight,,,,,,,,,,,,,,,,,,,,,,,,,,,,,,,,,,,,,,,,,,,,,,,,,,,,,,,,,,,,,,,,,,,,,,,,,,,,,,,,,,,,,,,,,,,,,,,,,,,,,,,,,,,,,,,,,,,,,,,,,,,,,,,,,,,,,,,,,
,,61082411ae20078aaf317d35,2024-02-19_02h16.00.110,kallum_motion_pilot,2023.2.2,Win32,59.52380952,61082411ae20078aaf317d35,65d2b6c8f2eece985d8e374c,65d2b9c7901b20510b57917b,0.0243,0.0244,0,46,46,108,1,sevenfive,,,,,,,,,,,,,,,,,,,,,,,,,,,,,,,,,,,,,,,,,,,,,,,,,,,,,,,,,,,,,,,,,,,,,,,,,,,,,,,,,,,,,,,,,,,,,,,,,,,,,,,,,,,,,,,,,,,,,,,,,,,,,,,,,,,,,,,,,
,,61082411ae20078aaf317d35,2024-02-19_02h16.00.110,kallum_motion_pilot,2023.2.2,Win32,59.52380952,61082411ae20078aaf317d35,65d2b6c8f2eece985d8e374c,65d2b9c7901b20510b57917b,0.0245,0.0245,0,47,47,86,1,eightsix,,,,,,,,,,,,,,,,,,,,,,,,,,,,,,,,,,,,,,,,,,,,,,,,,,,,,,,,,,,,,,,,,,,,,,,,,,,,,,,,,,,,,,,,,,,,,,,,,,,,,,,,,,,,,,,,,,,,,,,,,,,,,,,,,,,,,,,,,
,,61082411ae20078aaf317d35,2024-02-19_02h16.00.110,kallum_motion_pilot,2023.2.2,Win32,59.52380952,61082411ae20078aaf317d35,65d2b6c8f2eece985d8e374c,65d2b9c7901b20510b57917b,0.0246,0.0246,0,48,48,128,1,fivesix,,,,,,,,,,,,,,,,,,,,,,,,,,,,,,,,,,,,,,,,,,,,,,,,,,,,,,,,,,,,,,,,,,,,,,,,,,,,,,,,,,,,,,,,,,,,,,,,,,,,,,,,,,,,,,,,,,,,,,,,,,,,,,,,,,,,,,,,,
,,61082411ae20078aaf317d35,2024-02-19_02h16.00.110,kallum_motion_pilot,2023.2.2,Win32,59.52380952,61082411ae20078aaf317d35,65d2b6c8f2eece985d8e374c,65d2b9c7901b20510b57917b,0.0246,0.0246,0,49,49,2,1,twoone,,,,,,,,,,,,,,,,,,,,,,,,,,,,,,,,,,,,,,,,,,,,,,,,,,,,,,,,,,,,,,,,,,,,,,,,,,,,,,,,,,,,,,,,,,,,,,,,,,,,,,,,,,,,,,,,,,,,,,,,,,,,,,,,,,,,,,,,,
,,61082411ae20078aaf317d35,2024-02-19_02h16.00.110,kallum_motion_pilot,2023.2.2,Win32,59.52380952,61082411ae20078aaf317d35,65d2b6c8f2eece985d8e374c,65d2b9c7901b20510b57917b,0.0247,0.0247,0,50,50,74,1,twoone,,,,,,,,,,,,,,,,,,,,,,,,,,,,,,,,,,,,,,,,,,,,,,,,,,,,,,,,,,,,,,,,,,,,,,,,,,,,,,,,,,,,,,,,,,,,,,,,,,,,,,,,,,,,,,,,,,,,,,,,,,,,,,,,,,,,,,,,,
,,61082411ae20078aaf317d35,2024-02-19_02h16.00.110,kallum_motion_pilot,2023.2.2,Win32,59.52380952,61082411ae20078aaf317d35,65d2b6c8f2eece985d8e374c,65d2b9c7901b20510b57917b,0.0248,0.0248,0,51,51,61,1,threefour,,,,,,,,,,,,,,,,,,,,,,,,,,,,,,,,,,,,,,,,,,,,,,,,,,,,,,,,,,,,,,,,,,,,,,,,,,,,,,,,,,,,,,,,,,,,,,,,,,,,,,,,,,,,,,,,,,,,,,,,,,,,,,,,,,,,,,,,,
,,61082411ae20078aaf317d35,2024-02-19_02h16.00.110,kallum_motion_pilot,2023.2.2,Win32,59.52380952,61082411ae20078aaf317d35,65d2b6c8f2eece985d8e374c,65d2b9c7901b20510b57917b,0.0248,0.0249,0,52,52,50,1,twoone,,,,,,,,,,,,,,,,,,,,,,,,,,,,,,,,,,,,,,,,,,,,,,,,,,,,,,,,,,,,,,,,,,,,,,,,,,,,,,,,,,,,,,,,,,,,,,,,,,,,,,,,,,,,,,,,,,,,,,,,,,,,,,,,,,,,,,,,,
,,61082411ae20078aaf317d35,2024-02-19_02h16.00.110,kallum_motion_pilot,2023.2.2,Win32,59.52380952,61082411ae20078aaf317d35,65d2b6c8f2eece985d8e374c,65d2b9c7901b20510b57917b,0.0249,0.0249,0,53,53,41,1,onethree,,,,,,,,,,,,,,,,,,,,,,,,,,,,,,,,,,,,,,,,,,,,,,,,,,,,,,,,,,,,,,,,,,,,,,,,,,,,,,,,,,,,,,,,,,,,,,,,,,,,,,,,,,,,,,,,,,,,,,,,,,,,,,,,,,,,,,,,,
,,61082411ae20078aaf317d35,2024-02-19_02h16.00.110,kallum_motion_pilot,2023.2.2,Win32,59.52380952,61082411ae20078aaf317d35,65d2b6c8f2eece985d8e374c,65d2b9c7901b20510b57917b,0.025,0.025,0,54,54,118,1,eightsix,,,,,,,,,,,,,,,,,,,,,,,,,,,,,,,,,,,,,,,,,,,,,,,,,,,,,,,,,,,,,,,,,,,,,,,,,,,,,,,,,,,,,,,,,,,,,,,,,,,,,,,,,,,,,,,,,,,,,,,,,,,,,,,,,,,,,,,,,
,,61082411ae20078aaf317d35,2024-02-19_02h16.00.110,kallum_motion_pilot,2023.2.2,Win32,59.52380952,61082411ae20078aaf317d35,65d2b6c8f2eece985d8e374c,65d2b9c7901b20510b57917b,0.025,0.0251,0,55,55,75,1,twofour,,,,,,,,,,,,,,,,,,,,,,,,,,,,,,,,,,,,,,,,,,,,,,,,,,,,,,,,,,,,,,,,,,,,,,,,,,,,,,,,,,,,,,,,,,,,,,,,,,,,,,,,,,,,,,,,,,,,,,,,,,,,,,,,,,,,,,,,,
,,61082411ae20078aaf317d35,2024-02-19_02h16.00.110,kallum_motion_pilot,2023.2.2,Win32,59.52380952,61082411ae20078aaf317d35,65d2b6c8f2eece985d8e374c,65d2b9c7901b20510b57917b,0.0251,0.0251,0,56,56,83,1,sixeight,,,,,,,,,,,,,,,,,,,,,,,,,,,,,,,,,,,,,,,,,,,,,,,,,,,,,,,,,,,,,,,,,,,,,,,,,,,,,,,,,,,,,,,,,,,,,,,,,,,,,,,,,,,,,,,,,,,,,,,,,,,,,,,,,,,,,,,,,
,,61082411ae20078aaf317d35,2024-02-19_02h16.00.110,kallum_motion_pilot,2023.2.2,Win32,59.52380952,61082411ae20078aaf317d35,65d2b6c8f2eece985d8e374c,65d2b9c7901b20510b57917b,0.0252,0.0252,0,57,57,42,1,twoone,,,,,,,,,,,,,,,,,,,,,,,,,,,,,,,,,,,,,,,,,,,,,,,,,,,,,,,,,,,,,,,,,,,,,,,,,,,,,,,,,,,,,,,,,,,,,,,,,,,,,,,,,,,,,,,,,,,,,,,,,,,,,,,,,,,,,,,,,
,,61082411ae20078aaf317d35,2024-02-19_02h16.00.110,kallum_motion_pilot,2023.2.2,Win32,59.52380952,61082411ae20078aaf317d35,65d2b6c8f2eece985d8e374c,65d2b9c7901b20510b57917b,0.0253,0.0253,0,58,58,85,1,seveneight,,,,,,,,,,,,,,,,,,,,,,,,,,,,,,,,,,,,,,,,,,,,,,,,,,,,,,,,,,,,,,,,,,,,,,,,,,,,,,,,,,,,,,,,,,,,,,,,,,,,,,,,,,,,,,,,,,,,,,,,,,,,,,,,,,,,,,,,,
,,61082411ae20078aaf317d35,2024-02-19_02h16.00.110,kallum_motion_pilot,2023.2.2,Win32,59.52380952,61082411ae20078aaf317d35,65d2b6c8f2eece985d8e374c,65d2b9c7901b20510b57917b,0.0253,0.0254,0,59,59,80,1,fivesix,,,,,,,,,,,,,,,,,,,,,,,,,,,,,,,,,,,,,,,,,,,,,,,,,,,,,,,,,,,,,,,,,,,,,,,,,,,,,,,,,,,,,,,,,,,,,,,,,,,,,,,,,,,,,,,,,,,,,,,,,,,,,,,,,,,,,,,,,
,,61082411ae20078aaf317d35,2024-02-19_02h16.00.110,kallum_motion_pilot,2023.2.2,Win32,59.52380952,61082411ae20078aaf317d35,65d2b6c8f2eece985d8e374c,65d2b9c7901b20510b57917b,0.0255,0.0255,0,60,60,79,1,eightseven,,,,,,,,,,,,,,,,,,,,,,,,,,,,,,,,,,,,,,,,,,,,,,,,,,,,,,,,,,,,,,,,,,,,,,,,,,,,,,,,,,,,,,,,,,,,,,,,,,,,,,,,,,,,,,,,,,,,,,,,,,,,,,,,,,,,,,,,,
,,61082411ae20078aaf317d35,2024-02-19_02h16.00.110,kallum_motion_pilot,2023.2.2,Win32,59.52380952,61082411ae20078aaf317d35,65d2b6c8f2eece985d8e374c,65d2b9c7901b20510b57917b,0.0256,0.0257,0,61,61,109,1,seveneight,,,,,,,,,,,,,,,,,,,,,,,,,,,,,,,,,,,,,,,,,,,,,,,,,,,,,,,,,,,,,,,,,,,,,,,,,,,,,,,,,,,,,,,,,,,,,,,,,,,,,,,,,,,,,,,,,,,,,,,,,,,,,,,,,,,,,,,,,
,,61082411ae20078aaf317d35,2024-02-19_02h16.00.110,kallum_motion_pilot,2023.2.2,Win32,59.52380952,61082411ae20078aaf317d35,65d2b6c8f2eece985d8e374c,65d2b9c7901b20510b57917b,0.0257,0.0258,0,62,62,119,1,eightseven,,,,,,,,,,,,,,,,,,,,,,,,,,,,,,,,,,,,,,,,,,,,,,,,,,,,,,,,,,,,,,,,,,,,,,,,,,,,,,,,,,,,,,,,,,,,,,,,,,,,,,,,,,,,,,,,,,,,,,,,,,,,,,,,,,,,,,,,,
,,61082411ae20078aaf317d35,2024-02-19_02h16.00.110,kallum_motion_pilot,2023.2.2,Win32,59.52380952,61082411ae20078aaf317d35,65d2b6c8f2eece985d8e374c,65d2b9c7901b20510b57917b,0.0259,0.026,0,63,63,7,1,fourthree,,,,,,,,,,,,,,,,,,,,,,,,,,,,,,,,,,,,,,,,,,,,,,,,,,,,,,,,,,,,,,,,,,,,,,,,,,,,,,,,,,,,,,,,,,,,,,,,,,,,,,,,,,,,,,,,,,,,,,,,,,,,,,,,,,,,,,,,,
,,61082411ae20078aaf317d35,2024-02-19_02h16.00.110,kallum_motion_pilot,2023.2.2,Win32,59.52380952,61082411ae20078aaf317d35,65d2b6c8f2eece985d8e374c,65d2b9c7901b20510b57917b,0.0261,0.0261,0,64,64,136,1,fivesix,,,,,,,,,,,,,,,,,,,,,,,,,,,,,,,,,,,,,,,,,,,,,,,,,,,,,,,,,,,,,,,,,,,,,,,,,,,,,,,,,,,,,,,,,,,,,,,,,,,,,,,,,,,,,,,,,,,,,,,,,,,,,,,,,,,,,,,,,
,,61082411ae20078aaf317d35,2024-02-19_02h16.00.110,kallum_motion_pilot,2023.2.2,Win32,59.52380952,61082411ae20078aaf317d35,65d2b6c8f2eece985d8e374c,65d2b9c7901b20510b57917b,0.0262,0.0262,0,65,65,101,1,seveneight,,,,,,,,,,,,,,,,,,,,,,,,,,,,,,,,,,,,,,,,,,,,,,,,,,,,,,,,,,,,,,,,,,,,,,,,,,,,,,,,,,,,,,,,,,,,,,,,,,,,,,,,,,,,,,,,,,,,,,,,,,,,,,,,,,,,,,,,,
,,61082411ae20078aaf317d35,2024-02-19_02h16.00.110,kallum_motion_pilot,2023.2.2,Win32,59.52380952,61082411ae20078aaf317d35,65d2b6c8f2eece985d8e374c,65d2b9c7901b20510b57917b,0.0262,0.0263,0,66,66,36,1,threeone,,,,,,,,,,,,,,,,,,,,,,,,,,,,,,,,,,,,,,,,,,,,,,,,,,,,,,,,,,,,,,,,,,,,,,,,,,,,,,,,,,,,,,,,,,,,,,,,,,,,,,,,,,,,,,,,,,,,,,,,,,,,,,,,,,,,,,,,,
,,61082411ae20078aaf317d35,2024-02-19_02h16.00.110,kallum_motion_pilot,2023.2.2,Win32,59.52380952,61082411ae20078aaf317d35,65d2b6c8f2eece985d8e374c,65d2b9c7901b20510b57917b,0.0264,0.0264,0,67,67,25,1,onethree,,,,,,,,,,,,,,,,,,,,,,,,,,,,,,,,,,,,,,,,,,,,,,,,,,,,,,,,,,,,,,,,,,,,,,,,,,,,,,,,,,,,,,,,,,,,,,,,,,,,,,,,,,,,,,,,,,,,,,,,,,,,,,,,,,,,,,,,,
,,61082411ae20078aaf317d35,2024-02-19_02h16.00.110,kallum_motion_pilot,2023.2.2,Win32,59.52380952,61082411ae20078aaf317d35,65d2b6c8f2eece985d8e374c,65d2b9c7901b20510b57917b,0.0265,0.0266,0,68,68,145,1,fiveseven,,,,,,,,,,,,,,,,,,,,,,,,,,,,,,,,,,,,,,,,,,,,,,,,,,,,,,,,,,,,,,,,,,,,,,,,,,,,,,,,,,,,,,,,,,,,,,,,,,,,,,,,,,,,,,,,,,,,,,,,,,,,,,,,,,,,,,,,,
,,61082411ae20078aaf317d35,2024-02-19_02h16.00.110,kallum_motion_pilot,2023.2.2,Win32,59.52380952,61082411ae20078aaf317d35,65d2b6c8f2eece985d8e374c,65d2b9c7901b20510b57917b,0.0266,0.0266,0,69,69,111,1,eightseven,,,,,,,,,,,,,,,,,,,,,,,,,,,,,,,,,,,,,,,,,,,,,,,,,,,,,,,,,,,,,,,,,,,,,,,,,,,,,,,,,,,,,,,,,,,,,,,,,,,,,,,,,,,,,,,,,,,,,,,,,,,,,,,,,,,,,,,,,
,,61082411ae20078aaf317d35,2024-02-19_02h16.00.110,kallum_motion_pilot,2023.2.2,Win32,59.52380952,61082411ae20078aaf317d35,65d2b6c8f2eece985d8e374c,65d2b9c7901b20510b57917b,0.0267,0.0267,0,70,70,70,1,fourtwo,,,,,,,,,,,,,,,,,,,,,,,,,,,,,,,,,,,,,,,,,,,,,,,,,,,,,,,,,,,,,,,,,,,,,,,,,,,,,,,,,,,,,,,,,,,,,,,,,,,,,,,,,,,,,,,,,,,,,,,,,,,,,,,,,,,,,,,,,
,,61082411ae20078aaf317d35,2024-02-19_02h16.00.110,kallum_motion_pilot,2023.2.2,Win32,59.52380952,61082411ae20078aaf317d35,65d2b6c8f2eece985d8e374c,65d2b9c7901b20510b57917b,0.0268,0.0268,0,71,71,143,1,eightseven,,,,,,,,,,,,,,,,,,,,,,,,,,,,,,,,,,,,,,,,,,,,,,,,,,,,,,,,,,,,,,,,,,,,,,,,,,,,,,,,,,,,,,,,,,,,,,,,,,,,,,,,,,,,,,,,,,,,,,,,,,,,,,,,,,,,,,,,,
,,61082411ae20078aaf317d35,2024-02-19_02h16.00.110,kallum_motion_pilot,2023.2.2,Win32,59.52380952,61082411ae20078aaf317d35,65d2b6c8f2eece985d8e374c,65d2b9c7901b20510b57917b,0.0269,0.0269,0,72,72,78,1,fourtwo,,,,,,,,,,,,,,,,,,,,,,,,,,,,,,,,,,,,,,,,,,,,,,,,,,,,,,,,,,,,,,,,,,,,,,,,,,,,,,,,,,,,,,,,,,,,,,,,,,,,,,,,,,,,,,,,,,,,,,,,,,,,,,,,,,,,,,,,,
,,61082411ae20078aaf317d35,2024-02-19_02h16.00.110,kallum_motion_pilot,2023.2.2,Win32,59.52380952,61082411ae20078aaf317d35,65d2b6c8f2eece985d8e374c,65d2b9c7901b20510b57917b,0.027,0.0271,0,73,73,4,1,threeone,,,,,,,,,,,,,,,,,,,,,,,,,,,,,,,,,,,,,,,,,,,,,,,,,,,,,,,,,,,,,,,,,,,,,,,,,,,,,,,,,,,,,,,,,,,,,,,,,,,,,,,,,,,,,,,,,,,,,,,,,,,,,,,,,,,,,,,,,
,,61082411ae20078aaf317d35,2024-02-19_02h16.00.110,kallum_motion_pilot,2023.2.2,Win32,59.52380952,61082411ae20078aaf317d35,65d2b6c8f2eece985d8e374c,65d2b9c7901b20510b57917b,0.0271,0.0272,0,74,74,20,1,threeone,,,,,,,,,,,,,,,,,,,,,,,,,,,,,,,,,,,,,,,,,,,,,,,,,,,,,,,,,,,,,,,,,,,,,,,,,,,,,,,,,,,,,,,,,,,,,,,,,,,,,,,,,,,,,,,,,,,,,,,,,,,,,,,,,,,,,,,,,
,,61082411ae20078aaf317d35,2024-02-19_02h16.00.110,kallum_motion_pilot,2023.2.2,Win32,59.52380952,61082411ae20078aaf317d35,65d2b6c8f2eece985d8e374c,65d2b9c7901b20510b57917b,0.0272,0.0272,0,75,75,105,1,fiveseven,,,,,,,,,,,,,,,,,,,,,,,,,,,,,,,,,,,,,,,,,,,,,,,,,,,,,,,,,,,,,,,,,,,,,,,,,,,,,,,,,,,,,,,,,,,,,,,,,,,,,,,,,,,,,,,,,,,,,,,,,,,,,,,,,,,,,,,,,
,,61082411ae20078aaf317d35,2024-02-19_02h16.00.110,kallum_motion_pilot,2023.2.2,Win32,59.52380952,61082411ae20078aaf317d35,65d2b6c8f2eece985d8e374c,65d2b9c7901b20510b57917b,0.0273,0.0274,0,76,76,81,1,fiveseven,,,,,,,,,,,,,,,,,,,,,,,,,,,,,,,,,,,,,,,,,,,,,,,,,,,,,,,,,,,,,,,,,,,,,,,,,,,,,,,,,,,,,,,,,,,,,,,,,,,,,,,,,,,,,,,,,,,,,,,,,,,,,,,,,,,,,,,,,
,,61082411ae20078aaf317d35,2024-02-19_02h16.00.110,kallum_motion_pilot,2023.2.2,Win32,59.52380952,61082411ae20078aaf317d35,65d2b6c8f2eece985d8e374c,65d2b9c7901b20510b57917b,0.0275,0.0275,0,77,77,43,1,twofour,,,,,,,,,,,,,,,,,,,,,,,,,,,,,,,,,,,,,,,,,,,,,,,,,,,,,,,,,,,,,,,,,,,,,,,,,,,,,,,,,,,,,,,,,,,,,,,,,,,,,,,,,,,,,,,,,,,,,,,,,,,,,,,,,,,,,,,,,
,,61082411ae20078aaf317d35,2024-02-19_02h16.00.110,kallum_motion_pilot,2023.2.2,Win32,59.52380952,61082411ae20078aaf317d35,65d2b6c8f2eece985d8e374c,65d2b9c7901b20510b57917b,0.0275,0.0276,0,78,78,13,1,threefour,,,,,,,,,,,,,,,,,,,,,,,,,,,,,,,,,,,,,,,,,,,,,,,,,,,,,,,,,,,,,,,,,,,,,,,,,,,,,,,,,,,,,,,,,,,,,,,,,,,,,,,,,,,,,,,,,,,,,,,,,,,,,,,,,,,,,,,,,
,,61082411ae20078aaf317d35,2024-02-19_02h16.00.110,kallum_motion_pilot,2023.2.2,Win32,59.52380952,61082411ae20078aaf317d35,65d2b6c8f2eece985d8e374c,65d2b9c7901b20510b57917b,0.0276,0.0276,0,79,79,138,1,sixfive,,,,,,,,,,,,,,,,,,,,,,,,,,,,,,,,,,,,,,,,,,,,,,,,,,,,,,,,,,,,,,,,,,,,,,,,,,,,,,,,,,,,,,,,,,,,,,,,,,,,,,,,,,,,,,,,,,,,,,,,,,,,,,,,,,,,,,,,,
,,61082411ae20078aaf317d35,2024-02-19_02h16.00.110,kallum_motion_pilot,2023.2.2,Win32,59.52380952,61082411ae20078aaf317d35,65d2b6c8f2eece985d8e374c,65d2b9c7901b20510b57917b,0.0277,0.0277,0,80,80,90,1,sixfive,,,,,,,,,,,,,,,,,,,,,,,,,,,,,,,,,,,,,,,,,,,,,,,,,,,,,,,,,,,,,,,,,,,,,,,,,,,,,,,,,,,,,,,,,,,,,,,,,,,,,,,,,,,,,,,,,,,,,,,,,,,,,,,,,,,,,,,,,
,,61082411ae20078aaf317d35,2024-02-19_02h16.00.110,kallum_motion_pilot,2023.2.2,Win32,59.52380952,61082411ae20078aaf317d35,65d2b6c8f2eece985d8e374c,65d2b9c7901b20510b57917b,0.0277,0.0278,0,81,81,54,1,fourtwo,,,,,,,,,,,,,,,,,,,,,,,,,,,,,,,,,,,,,,,,,,,,,,,,,,,,,,,,,,,,,,,,,,,,,,,,,,,,,,,,,,,,,,,,,,,,,,,,,,,,,,,,,,,,,,,,,,,,,,,,,,,,,,,,,,,,,,,,,
,,61082411ae20078aaf317d35,2024-02-19_02h16.00.110,kallum_motion_pilot,2023.2.2,Win32,59.52380952,61082411ae20078aaf317d35,65d2b6c8f2eece985d8e374c,65d2b9c7901b20510b57917b,0.0279,0.0279,0,82,82,18,1,twoone,,,,,,,,,,,,,,,,,,,,,,,,,,,,,,,,,,,,,,,,,,,,,,,,,,,,,,,,,,,,,,,,,,,,,,,,,,,,,,,,,,,,,,,,,,,,,,,,,,,,,,,,,,,,,,,,,,,,,,,,,,,,,,,,,,,,,,,,,
,,61082411ae20078aaf317d35,2024-02-19_02h16.00.110,kallum_motion_pilot,2023.2.2,Win32,59.52380952,61082411ae20078aaf317d35,65d2b6c8f2eece985d8e374c,65d2b9c7901b20510b57917b,0.0279,0.0279,0,83,83,40,1,onetwo,,,,,,,,,,,,,,,,,,,,,,,,,,,,,,,,,,,,,,,,,,,,,,,,,,,,,,,,,,,,,,,,,,,,,,,,,,,,,,,,,,,,,,,,,,,,,,,,,,,,,,,,,,,,,,,,,,,,,,,,,,,,,,,,,,,,,,,,,
,,61082411ae20078aaf317d35,2024-02-19_02h16.00.110,kallum_motion_pilot,2023.2.2,Win32,59.52380952,61082411ae20078aaf317d35,65d2b6c8f2eece985d8e374c,65d2b9c7901b20510b57917b,0.028,0.028,0,84,84,64,1,onetwo,,,,,,,,,,,,,,,,,,,,,,,,,,,,,,,,,,,,,,,,,,,,,,,,,,,,,,,,,,,,,,,,,,,,,,,,,,,,,,,,,,,,,,,,,,,,,,,,,,,,,,,,,,,,,,,,,,,,,,,,,,,,,,,,,,,,,,,,,
,,61082411ae20078aaf317d35,2024-02-19_02h16.00.110,kallum_motion_pilot,2023.2.2,Win32,59.52380952,61082411ae20078aaf317d35,65d2b6c8f2eece985d8e374c,65d2b9c7901b20510b57917b,0.0281,0.0282,0,85,85,94,1,eightsix,,,,,,,,,,,,,,,,,,,,,,,,,,,,,,,,,,,,,,,,,,,,,,,,,,,,,,,,,,,,,,,,,,,,,,,,,,,,,,,,,,,,,,,,,,,,,,,,,,,,,,,,,,,,,,,,,,,,,,,,,,,,,,,,,,,,,,,,,
,,61082411ae20078aaf317d35,2024-02-19_02h16.00.110,kallum_motion_pilot,2023.2.2,Win32,59.52380952,61082411ae20078aaf317d35,65d2b6c8f2eece985d8e374c,65d2b9c7901b20510b57917b,0.0282,0.0283,0,86,86,110,1,eightsix,,,,,,,,,,,,,,,,,,,,,,,,,,,,,,,,,,,,,,,,,,,,,,,,,,,,,,,,,,,,,,,,,,,,,,,,,,,,,,,,,,,,,,,,,,,,,,,,,,,,,,,,,,,,,,,,,,,,,,,,,,,,,,,,,,,,,,,,,
,,61082411ae20078aaf317d35,2024-02-19_02h16.00.110,kallum_motion_pilot,2023.2.2,Win32,59.52380952,61082411ae20078aaf317d35,65d2b6c8f2eece985d8e374c,65d2b9c7901b20510b57917b,0.0283,0.0284,0,87,87,38,1,fourtwo,,,,,,,,,,,,,,,,,,,,,,,,,,,,,,,,,,,,,,,,,,,,,,,,,,,,,,,,,,,,,,,,,,,,,,,,,,,,,,,,,,,,,,,,,,,,,,,,,,,,,,,,,,,,,,,,,,,,,,,,,,,,,,,,,,,,,,,,,
,,61082411ae20078aaf317d35,2024-02-19_02h16.00.110,kallum_motion_pilot,2023.2.2,Win32,59.52380952,61082411ae20078aaf317d35,65d2b6c8f2eece985d8e374c,65d2b9c7901b20510b57917b,0.0285,0.0285,0,88,88,114,1,sixfive,,,,,,,,,,,,,,,,,,,,,,,,,,,,,,,,,,,,,,,,,,,,,,,,,,,,,,,,,,,,,,,,,,,,,,,,,,,,,,,,,,,,,,,,,,,,,,,,,,,,,,,,,,,,,,,,,,,,,,,,,,,,,,,,,,,,,,,,,
,,61082411ae20078aaf317d35,2024-02-19_02h16.00.110,kallum_motion_pilot,2023.2.2,Win32,59.52380952,61082411ae20078aaf317d35,65d2b6c8f2eece985d8e374c,65d2b9c7901b20510b57917b,0.0286,0.0286,0,89,89,115,1,sixeight,,,,,,,,,,,,,,,,,,,,,,,,,,,,,,,,,,,,,,,,,,,,,,,,,,,,,,,,,,,,,,,,,,,,,,,,,,,,,,,,,,,,,,,,,,,,,,,,,,,,,,,,,,,,,,,,,,,,,,,,,,,,,,,,,,,,,,,,,
,,61082411ae20078aaf317d35,2024-02-19_02h16.00.110,kallum_motion_pilot,2023.2.2,Win32,59.52380952,61082411ae20078aaf317d35,65d2b6c8f2eece985d8e374c,65d2b9c7901b20510b57917b,0.0287,0.0287,0,90,90,35,1,twofour,,,,,,,,,,,,,,,,,,,,,,,,,,,,,,,,,,,,,,,,,,,,,,,,,,,,,,,,,,,,,,,,,,,,,,,,,,,,,,,,,,,,,,,,,,,,,,,,,,,,,,,,,,,,,,,,,,,,,,,,,,,,,,,,,,,,,,,,,
,,61082411ae20078aaf317d35,2024-02-19_02h16.00.110,kallum_motion_pilot,2023.2.2,Win32,59.52380952,61082411ae20078aaf317d35,65d2b6c8f2eece985d8e374c,65d2b9c7901b20510b57917b,0.0288,0.0289,0,91,91,132,1,sevenfive,,,,,,,,,,,,,,,,,,,,,,,,,,,,,,,,,,,,,,,,,,,,,,,,,,,,,,,,,,,,,,,,,,,,,,,,,,,,,,,,,,,,,,,,,,,,,,,,,,,,,,,,,,,,,,,,,,,,,,,,,,,,,,,,,,,,,,,,,
,,61082411ae20078aaf317d35,2024-02-19_02h16.00.110,kallum_motion_pilot,2023.2.2,Win32,59.52380952,61082411ae20078aaf317d35,65d2b6c8f2eece985d8e374c,65d2b9c7901b20510b57917b,0.0289,0.0289,0,92,92,156,1,sevenfive,,,,,,,,,,,,,,,,,,,,,,,,,,,,,,,,,,,,,,,,,,,,,,,,,,,,,,,,,,,,,,,,,,,,,,,,,,,,,,,,,,,,,,,,,,,,,,,,,,,,,,,,,,,,,,,,,,,,,,,,,,,,,,,,,,,,,,,,,
,,61082411ae20078aaf317d35,2024-02-19_02h16.00.110,kallum_motion_pilot,2023.2.2,Win32,59.52380952,61082411ae20078aaf317d35,65d2b6c8f2eece985d8e374c,65d2b9c7901b20510b57917b,0.029,0.029,0,93,93,69,1,threefour,,,,,,,,,,,,,,,,,,,,,,,,,,,,,,,,,,,,,,,,,,,,,,,,,,,,,,,,,,,,,,,,,,,,,,,,,,,,,,,,,,,,,,,,,,,,,,,,,,,,,,,,,,,,,,,,,,,,,,,,,,,,,,,,,,,,,,,,,
,,61082411ae20078aaf317d35,2024-02-19_02h16.00.110,kallum_motion_pilot,2023.2.2,Win32,59.52380952,61082411ae20078aaf317d35,65d2b6c8f2eece985d8e374c,65d2b9c7901b20510b57917b,0.0292,0.0292,0,94,94,23,1,fourthree,,,,,,,,,,,,,,,,,,,,,,,,,,,,,,,,,,,,,,,,,,,,,,,,,,,,,,,,,,,,,,,,,,,,,,,,,,,,,,,,,,,,,,,,,,,,,,,,,,,,,,,,,,,,,,,,,,,,,,,,,,,,,,,,,,,,,,,,,
,,61082411ae20078aaf317d35,2024-02-19_02h16.00.110,kallum_motion_pilot,2023.2.2,Win32,59.52380952,61082411ae20078aaf317d35,65d2b6c8f2eece985d8e374c,65d2b9c7901b20510b57917b,0.0293,0.0293,0,95,95,95,1,eightseven,,,,,,,,,,,,,,,,,,,,,,,,,,,,,,,,,,,,,,,,,,,,,,,,,,,,,,,,,,,,,,,,,,,,,,,,,,,,,,,,,,,,,,,,,,,,,,,,,,,,,,,,,,,,,,,,,,,,,,,,,,,,,,,,,,,,,,,,,
,,61082411ae20078aaf317d35,2024-02-19_02h16.00.110,kallum_motion_pilot,2023.2.2,Win32,59.52380952,61082411ae20078aaf317d35,65d2b6c8f2eece985d8e374c,65d2b9c7901b20510b57917b,0.0294,0.0294,0,96,96,92,1,sevenfive,,,,,,,,,,,,,,,,,,,,,,,,,,,,,,,,,,,,,,,,,,,,,,,,,,,,,,,,,,,,,,,,,,,,,,,,,,,,,,,,,,,,,,,,,,,,,,,,,,,,,,,,,,,,,,,,,,,,,,,,,,,,,,,,,,,,,,,,,
,,61082411ae20078aaf317d35,2024-02-19_02h16.00.110,kallum_motion_pilot,2023.2.2,Win32,59.52380952,61082411ae20078aaf317d35,65d2b6c8f2eece985d8e374c,65d2b9c7901b20510b57917b,0.0295,0.0295,0,97,97,150,1,eightsix,,,,,,,,,,,,,,,,,,,,,,,,,,,,,,,,,,,,,,,,,,,,,,,,,,,,,,,,,,,,,,,,,,,,,,,,,,,,,,,,,,,,,,,,,,,,,,,,,,,,,,,,,,,,,,,,,,,,,,,,,,,,,,,,,,,,,,,,,
,,61082411ae20078aaf317d35,2024-02-19_02h16.00.110,kallum_motion_pilot,2023.2.2,Win32,59.52380952,61082411ae20078aaf317d35,65d2b6c8f2eece985d8e374c,65d2b9c7901b20510b57917b,0.0297,0.0297,0,98,98,144,1,fivesix,,,,,,,,,,,,,,,,,,,,,,,,,,,,,,,,,,,,,,,,,,,,,,,,,,,,,,,,,,,,,,,,,,,,,,,,,,,,,,,,,,,,,,,,,,,,,,,,,,,,,,,,,,,,,,,,,,,,,,,,,,,,,,,,,,,,,,,,,
,,61082411ae20078aaf317d35,2024-02-19_02h16.00.110,kallum_motion_pilot,2023.2.2,Win32,59.52380952,61082411ae20078aaf317d35,65d2b6c8f2eece985d8e374c,65d2b9c7901b20510b57917b,0.0298,0.0298,0,99,99,15,1,fourthree,,,,,,,,,,,,,,,,,,,,,,,,,,,,,,,,,,,,,,,,,,,,,,,,,,,,,,,,,,,,,,,,,,,,,,,,,,,,,,,,,,,,,,,,,,,,,,,,,,,,,,,,,,,,,,,,,,,,,,,,,,,,,,,,,,,,,,,,,
,,61082411ae20078aaf317d35,2024-02-19_02h16.00.110,kallum_motion_pilot,2023.2.2,Win32,59.52380952,61082411ae20078aaf317d35,65d2b6c8f2eece985d8e374c,65d2b9c7901b20510b57917b,0.0299,0.0299,0,100,100,127,1,eightseven,,,,,,,,,,,,,,,,,,,,,,,,,,,,,,,,,,,,,,,,,,,,,,,,,,,,,,,,,,,,,,,,,,,,,,,,,,,,,,,,,,,,,,,,,,,,,,,,,,,,,,,,,,,,,,,,,,,,,,,,,,,,,,,,,,,,,,,,,
,,61082411ae20078aaf317d35,2024-02-19_02h16.00.110,kallum_motion_pilot,2023.2.2,Win32,59.52380952,61082411ae20078aaf317d35,65d2b6c8f2eece985d8e374c,65d2b9c7901b20510b57917b,0.03,0.0301,0,101,101,28,1,threeone,,,,,,,,,,,,,,,,,,,,,,,,,,,,,,,,,,,,,,,,,,,,,,,,,,,,,,,,,,,,,,,,,,,,,,,,,,,,,,,,,,,,,,,,,,,,,,,,,,,,,,,,,,,,,,,,,,,,,,,,,,,,,,,,,,,,,,,,,
,,61082411ae20078aaf317d35,2024-02-19_02h16.00.110,kallum_motion_pilot,2023.2.2,Win32,59.52380952,61082411ae20078aaf317d35,65d2b6c8f2eece985d8e374c,65d2b9c7901b20510b57917b,0.0301,0.0301,0,102,102,39,1,fourthree,,,,,,,,,,,,,,,,,,,,,,,,,,,,,,,,,,,,,,,,,,,,,,,,,,,,,,,,,,,,,,,,,,,,,,,,,,,,,,,,,,,,,,,,,,,,,,,,,,,,,,,,,,,,,,,,,,,,,,,,,,,,,,,,,,,,,,,,,
,,61082411ae20078aaf317d35,2024-02-19_02h16.00.110,kallum_motion_pilot,2023.2.2,Win32,59.52380952,61082411ae20078aaf317d35,65d2b6c8f2eece985d8e374c,65d2b9c7901b20510b57917b,0.0302,0.0303,0,103,103,158,1,eightsix,,,,,,,,,,,,,,,,,,,,,,,,,,,,,,,,,,,,,,,,,,,,,,,,,,,,,,,,,,,,,,,,,,,,,,,,,,,,,,,,,,,,,,,,,,,,,,,,,,,,,,,,,,,,,,,,,,,,,,,,,,,,,,,,,,,,,,,,,
,,61082411ae20078aaf317d35,2024-02-19_02h16.00.110,kallum_motion_pilot,2023.2.2,Win32,59.52380952,61082411ae20078aaf317d35,65d2b6c8f2eece985d8e374c,65d2b9c7901b20510b57917b,0.0303,0.0303,0,104,104,29,1,threefour,,,,,,,,,,,,,,,,,,,,,,,,,,,,,,,,,,,,,,,,,,,,,,,,,,,,,,,,,,,,,,,,,,,,,,,,,,,,,,,,,,,,,,,,,,,,,,,,,,,,,,,,,,,,,,,,,,,,,,,,,,,,,,,,,,,,,,,,,
,,61082411ae20078aaf317d35,2024-02-19_02h16.00.110,kallum_motion_pilot,2023.2.2,Win32,59.52380952,61082411ae20078aaf317d35,65d2b6c8f2eece985d8e374c,65d2b9c7901b20510b57917b,0.0304,0.0305,0,105,105,121,1,fiveseven,,,,,,,,,,,,,,,,,,,,,,,,,,,,,,,,,,,,,,,,,,,,,,,,,,,,,,,,,,,,,,,,,,,,,,,,,,,,,,,,,,,,,,,,,,,,,,,,,,,,,,,,,,,,,,,,,,,,,,,,,,,,,,,,,,,,,,,,,
,,61082411ae20078aaf317d35,2024-02-19_02h16.00.110,kallum_motion_pilot,2023.2.2,Win32,59.52380952,61082411ae20078aaf317d35,65d2b6c8f2eece985d8e374c,65d2b9c7901b20510b57917b,0.0305,0.0306,0,106,106,19,1,twofour,,,,,,,,,,,,,,,,,,,,,,,,,,,,,,,,,,,,,,,,,,,,,,,,,,,,,,,,,,,,,,,,,,,,,,,,,,,,,,,,,,,,,,,,,,,,,,,,,,,,,,,,,,,,,,,,,,,,,,,,,,,,,,,,,,,,,,,,,
,,61082411ae20078aaf317d35,2024-02-19_02h16.00.110,kallum_motion_pilot,2023.2.2,Win32,59.52380952,61082411ae20078aaf317d35,65d2b6c8f2eece985d8e374c,65d2b9c7901b20510b57917b,0.0306,0.0307,0,107,107,113,1,fiveseven,,,,,,,,,,,,,,,,,,,,,,,,,,,,,,,,,,,,,,,,,,,,,,,,,,,,,,,,,,,,,,,,,,,,,,,,,,,,,,,,,,,,,,,,,,,,,,,,,,,,,,,,,,,,,,,,,,,,,,,,,,,,,,,,,,,,,,,,,
,,61082411ae20078aaf317d35,2024-02-19_02h16.00.110,kallum_motion_pilot,2023.2.2,Win32,59.52380952,61082411ae20078aaf317d35,65d2b6c8f2eece985d8e374c,65d2b9c7901b20510b57917b,0.0307,0.0309,0,108,108,120,1,fivesix,,,,,,,,,,,,,,,,,,,,,,,,,,,,,,,,,,,,,,,,,,,,,,,,,,,,,,,,,,,,,,,,,,,,,,,,,,,,,,,,,,,,,,,,,,,,,,,,,,,,,,,,,,,,,,,,,,,,,,,,,,,,,,,,,,,,,,,,,
,,61082411ae20078aaf317d35,2024-02-19_02h16.00.110,kallum_motion_pilot,2023.2.2,Win32,59.52380952,61082411ae20078aaf317d35,65d2b6c8f2eece985d8e374c,65d2b9c7901b20510b57917b,0.0309,0.0309,0,109,109,151,1,eightseven,,,,,,,,,,,,,,,,,,,,,,,,,,,,,,,,,,,,,,,,,,,,,,,,,,,,,,,,,,,,,,,,,,,,,,,,,,,,,,,,,,,,,,,,,,,,,,,,,,,,,,,,,,,,,,,,,,,,,,,,,,,,,,,,,,,,,,,,,
,,61082411ae20078aaf317d35,2024-02-19_02h16.00.110,kallum_motion_pilot,2023.2.2,Win32,59.52380952,61082411ae20078aaf317d35,65d2b6c8f2eece985d8e374c,65d2b9c7901b20510b57917b,0.031,0.0311,0,110,110,102,1,eightsix,,,,,,,,,,,,,,,,,,,,,,,,,,,,,,,,,,,,,,,,,,,,,,,,,,,,,,,,,,,,,,,,,,,,,,,,,,,,,,,,,,,,,,,,,,,,,,,,,,,,,,,,,,,,,,,,,,,,,,,,,,,,,,,,,,,,,,,,,
,,61082411ae20078aaf317d35,2024-02-19_02h16.00.110,kallum_motion_pilot,2023.2.2,Win32,59.52380952,61082411ae20078aaf317d35,65d2b6c8f2eece985d8e374c,65d2b9c7901b20510b57917b,0.0311,0.0312,0,111,111,130,1,sixfive,,,,,,,,,,,,,,,,,,,,,,,,,,,,,,,,,,,,,,,,,,,,,,,,,,,,,,,,,,,,,,,,,,,,,,,,,,,,,,,,,,,,,,,,,,,,,,,,,,,,,,,,,,,,,,,,,,,,,,,,,,,,,,,,,,,,,,,,,
,,61082411ae20078aaf317d35,2024-02-19_02h16.00.110,kallum_motion_pilot,2023.2.2,Win32,59.52380952,61082411ae20078aaf317d35,65d2b6c8f2eece985d8e374c,65d2b9c7901b20510b57917b,0.0312,0.0312,0,112,112,26,1,twoone,,,,,,,,,,,,,,,,,,,,,,,,,,,,,,,,,,,,,,,,,,,,,,,,,,,,,,,,,,,,,,,,,,,,,,,,,,,,,,,,,,,,,,,,,,,,,,,,,,,,,,,,,,,,,,,,,,,,,,,,,,,,,,,,,,,,,,,,,
,,61082411ae20078aaf317d35,2024-02-19_02h16.00.110,kallum_motion_pilot,2023.2.2,Win32,59.52380952,61082411ae20078aaf317d35,65d2b6c8f2eece985d8e374c,65d2b9c7901b20510b57917b,0.0313,0.0313,0,113,113,140,1,sevenfive,,,,,,,,,,,,,,,,,,,,,,,,,,,,,,,,,,,,,,,,,,,,,,,,,,,,,,,,,,,,,,,,,,,,,,,,,,,,,,,,,,,,,,,,,,,,,,,,,,,,,,,,,,,,,,,,,,,,,,,,,,,,,,,,,,,,,,,,,
,,61082411ae20078aaf317d35,2024-02-19_02h16.00.110,kallum_motion_pilot,2023.2.2,Win32,59.52380952,61082411ae20078aaf317d35,65d2b6c8f2eece985d8e374c,65d2b9c7901b20510b57917b,0.0314,0.0314,0,114,114,10,1,twoone,,,,,,,,,,,,,,,,,,,,,,,,,,,,,,,,,,,,,,,,,,,,,,,,,,,,,,,,,,,,,,,,,,,,,,,,,,,,,,,,,,,,,,,,,,,,,,,,,,,,,,,,,,,,,,,,,,,,,,,,,,,,,,,,,,,,,,,,,
,,61082411ae20078aaf317d35,2024-02-19_02h16.00.110,kallum_motion_pilot,2023.2.2,Win32,59.52380952,61082411ae20078aaf317d35,65d2b6c8f2eece985d8e374c,65d2b9c7901b20510b57917b,0.0316,0.0316,0,115,115,49,1,onethree,,,,,,,,,,,,,,,,,,,,,,,,,,,,,,,,,,,,,,,,,,,,,,,,,,,,,,,,,,,,,,,,,,,,,,,,,,,,,,,,,,,,,,,,,,,,,,,,,,,,,,,,,,,,,,,,,,,,,,,,,,,,,,,,,,,,,,,,,
,,61082411ae20078aaf317d35,2024-02-19_02h16.00.110,kallum_motion_pilot,2023.2.2,Win32,59.52380952,61082411ae20078aaf317d35,65d2b6c8f2eece985d8e374c,65d2b9c7901b20510b57917b,0.0316,0.0317,0,116,116,112,1,fivesix,,,,,,,,,,,,,,,,,,,,,,,,,,,,,,,,,,,,,,,,,,,,,,,,,,,,,,,,,,,,,,,,,,,,,,,,,,,,,,,,,,,,,,,,,,,,,,,,,,,,,,,,,,,,,,,,,,,,,,,,,,,,,,,,,,,,,,,,,
,,61082411ae20078aaf317d35,2024-02-19_02h16.00.110,kallum_motion_pilot,2023.2.2,Win32,59.52380952,61082411ae20078aaf317d35,65d2b6c8f2eece985d8e374c,65d2b9c7901b20510b57917b,0.0317,0.0317,0,117,117,17,1,onethree,,,,,,,,,,,,,,,,,,,,,,,,,,,,,,,,,,,,,,,,,,,,,,,,,,,,,,,,,,,,,,,,,,,,,,,,,,,,,,,,,,,,,,,,,,,,,,,,,,,,,,,,,,,,,,,,,,,,,,,,,,,,,,,,,,,,,,,,,
,,61082411ae20078aaf317d35,2024-02-19_02h16.00.110,kallum_motion_pilot,2023.2.2,Win32,59.52380952,61082411ae20078aaf317d35,65d2b6c8f2eece985d8e374c,65d2b9c7901b20510b57917b,0.0318,0.0319,0,118,118,139,1,sixeight,,,,,,,,,,,,,,,,,,,,,,,,,,,,,,,,,,,,,,,,,,,,,,,,,,,,,,,,,,,,,,,,,,,,,,,,,,,,,,,,,,,,,,,,,,,,,,,,,,,,,,,,,,,,,,,,,,,,,,,,,,,,,,,,,,,,,,,,,
,,61082411ae20078aaf317d35,2024-02-19_02h16.00.110,kallum_motion_pilot,2023.2.2,Win32,59.52380952,61082411ae20078aaf317d35,65d2b6c8f2eece985d8e374c,65d2b9c7901b20510b57917b,0.0319,0.0319,0,119,119,123,1,sixeight,,,,,,,,,,,,,,,,,,,,,,,,,,,,,,,,,,,,,,,,,,,,,,,,,,,,,,,,,,,,,,,,,,,,,,,,,,,,,,,,,,,,,,,,,,,,,,,,,,,,,,,,,,,,,,,,,,,,,,,,,,,,,,,,,,,,,,,,,
,,61082411ae20078aaf317d35,2024-02-19_02h16.00.110,kallum_motion_pilot,2023.2.2,Win32,59.52380952,61082411ae20078aaf317d35,65d2b6c8f2eece985d8e374c,65d2b9c7901b20510b57917b,0.032,0.0321,0,120,120,93,1,seveneight,,,,,,,,,,,,,,,,,,,,,,,,,,,,,,,,,,,,,,,,,,,,,,,,,,,,,,,,,,,,,,,,,,,,,,,,,,,,,,,,,,,,,,,,,,,,,,,,,,,,,,,,,,,,,,,,,,,,,,,,,,,,,,,,,,,,,,,,,
,,61082411ae20078aaf317d35,2024-02-19_02h16.00.110,kallum_motion_pilot,2023.2.2,Win32,59.52380952,61082411ae20078aaf317d35,65d2b6c8f2eece985d8e374c,65d2b9c7901b20510b57917b,0.0321,0.0322,0,121,121,160,1,fivesix,,,,,,,,,,,,,,,,,,,,,,,,,,,,,,,,,,,,,,,,,,,,,,,,,,,,,,,,,,,,,,,,,,,,,,,,,,,,,,,,,,,,,,,,,,,,,,,,,,,,,,,,,,,,,,,,,,,,,,,,,,,,,,,,,,,,,,,,,
,,61082411ae20078aaf317d35,2024-02-19_02h16.00.110,kallum_motion_pilot,2023.2.2,Win32,59.52380952,61082411ae20078aaf317d35,65d2b6c8f2eece985d8e374c,65d2b9c7901b20510b57917b,0.0322,0.0323,0,122,122,21,1,threefour,,,,,,,,,,,,,,,,,,,,,,,,,,,,,,,,,,,,,,,,,,,,,,,,,,,,,,,,,,,,,,,,,,,,,,,,,,,,,,,,,,,,,,,,,,,,,,,,,,,,,,,,,,,,,,,,,,,,,,,,,,,,,,,,,,,,,,,,,
,,61082411ae20078aaf317d35,2024-02-19_02h16.00.110,kallum_motion_pilot,2023.2.2,Win32,59.52380952,61082411ae20078aaf317d35,65d2b6c8f2eece985d8e374c,65d2b9c7901b20510b57917b,0.0323,0.0324,0,123,123,56,1,onetwo,,,,,,,,,,,,,,,,,,,,,,,,,,,,,,,,,,,,,,,,,,,,,,,,,,,,,,,,,,,,,,,,,,,,,,,,,,,,,,,,,,,,,,,,,,,,,,,,,,,,,,,,,,,,,,,,,,,,,,,,,,,,,,,,,,,,,,,,,
,,61082411ae20078aaf317d35,2024-02-19_02h16.00.110,kallum_motion_pilot,2023.2.2,Win32,59.52380952,61082411ae20078aaf317d35,65d2b6c8f2eece985d8e374c,65d2b9c7901b20510b57917b,0.0325,0.0325,0,124,124,14,1,fourtwo,,,,,,,,,,,,,,,,,,,,,,,,,,,,,,,,,,,,,,,,,,,,,,,,,,,,,,,,,,,,,,,,,,,,,,,,,,,,,,,,,,,,,,,,,,,,,,,,,,,,,,,,,,,,,,,,,,,,,,,,,,,,,,,,,,,,,,,,,
,,61082411ae20078aaf317d35,2024-02-19_02h16.00.110,kallum_motion_pilot,2023.2.2,Win32,59.52380952,61082411ae20078aaf317d35,65d2b6c8f2eece985d8e374c,65d2b9c7901b20510b57917b,0.0325,0.0327,0,125,125,9,1,onethree,,,,,,,,,,,,,,,,,,,,,,,,,,,,,,,,,,,,,,,,,,,,,,,,,,,,,,,,,,,,,,,,,,,,,,,,,,,,,,,,,,,,,,,,,,,,,,,,,,,,,,,,,,,,,,,,,,,,,,,,,,,,,,,,,,,,,,,,,
,,61082411ae20078aaf317d35,2024-02-19_02h16.00.110,kallum_motion_pilot,2023.2.2,Win32,59.52380952,61082411ae20078aaf317d35,65d2b6c8f2eece985d8e374c,65d2b9c7901b20510b57917b,0.0327,0.0328,0,126,126,68,1,threeone,,,,,,,,,,,,,,,,,,,,,,,,,,,,,,,,,,,,,,,,,,,,,,,,,,,,,,,,,,,,,,,,,,,,,,,,,,,,,,,,,,,,,,,,,,,,,,,,,,,,,,,,,,,,,,,,,,,,,,,,,,,,,,,,,,,,,,,,,
,,61082411ae20078aaf317d35,2024-02-19_02h16.00.110,kallum_motion_pilot,2023.2.2,Win32,59.52380952,61082411ae20078aaf317d35,65d2b6c8f2eece985d8e374c,65d2b9c7901b20510b57917b,0.0329,0.033,0,127,127,152,1,fivesix,,,,,,,,,,,,,,,,,,,,,,,,,,,,,,,,,,,,,,,,,,,,,,,,,,,,,,,,,,,,,,,,,,,,,,,,,,,,,,,,,,,,,,,,,,,,,,,,,,,,,,,,,,,,,,,,,,,,,,,,,,,,,,,,,,,,,,,,,
,,61082411ae20078aaf317d35,2024-02-19_02h16.00.110,kallum_motion_pilot,2023.2.2,Win32,59.52380952,61082411ae20078aaf317d35,65d2b6c8f2eece985d8e374c,65d2b9c7901b20510b57917b,0.033,0.033,0,128,128,131,1,sixeight,,,,,,,,,,,,,,,,,,,,,,,,,,,,,,,,,,,,,,,,,,,,,,,,,,,,,,,,,,,,,,,,,,,,,,,,,,,,,,,,,,,,,,,,,,,,,,,,,,,,,,,,,,,,,,,,,,,,,,,,,,,,,,,,,,,,,,,,,
,,61082411ae20078aaf317d35,2024-02-19_02h16.00.110,kallum_motion_pilot,2023.2.2,Win32,59.52380952,61082411ae20078aaf317d35,65d2b6c8f2eece985d8e374c,65d2b9c7901b20510b57917b,0.0331,0.0332,0,129,129,103,1,eightseven,,,,,,,,,,,,,,,,,,,,,,,,,,,,,,,,,,,,,,,,,,,,,,,,,,,,,,,,,,,,,,,,,,,,,,,,,,,,,,,,,,,,,,,,,,,,,,,,,,,,,,,,,,,,,,,,,,,,,,,,,,,,,,,,,,,,,,,,,
,,61082411ae20078aaf317d35,2024-02-19_02h16.00.110,kallum_motion_pilot,2023.2.2,Win32,59.52380952,61082411ae20078aaf317d35,65d2b6c8f2eece985d8e374c,65d2b9c7901b20510b57917b,0.0332,0.0333,0,130,130,48,1,onetwo,,,,,,,,,,,,,,,,,,,,,,,,,,,,,,,,,,,,,,,,,,,,,,,,,,,,,,,,,,,,,,,,,,,,,,,,,,,,,,,,,,,,,,,,,,,,,,,,,,,,,,,,,,,,,,,,,,,,,,,,,,,,,,,,,,,,,,,,,
,,61082411ae20078aaf317d35,2024-02-19_02h16.00.110,kallum_motion_pilot,2023.2.2,Win32,59.52380952,61082411ae20078aaf317d35,65d2b6c8f2eece985d8e374c,65d2b9c7901b20510b57917b,0.0334,0.0335,0,131,131,52,1,threeone,,,,,,,,,,,,,,,,,,,,,,,,,,,,,,,,,,,,,,,,,,,,,,,,,,,,,,,,,,,,,,,,,,,,,,,,,,,,,,,,,,,,,,,,,,,,,,,,,,,,,,,,,,,,,,,,,,,,,,,,,,,,,,,,,,,,,,,,,
,,61082411ae20078aaf317d35,2024-02-19_02h16.00.110,kallum_motion_pilot,2023.2.2,Win32,59.52380952,61082411ae20078aaf317d35,65d2b6c8f2eece985d8e374c,65d2b9c7901b20510b57917b,0.0336,0.0337,0,132,132,45,1,threefour,,,,,,,,,,,,,,,,,,,,,,,,,,,,,,,,,,,,,,,,,,,,,,,,,,,,,,,,,,,,,,,,,,,,,,,,,,,,,,,,,,,,,,,,,,,,,,,,,,,,,,,,,,,,,,,,,,,,,,,,,,,,,,,,,,,,,,,,,
,,61082411ae20078aaf317d35,2024-02-19_02h16.00.110,kallum_motion_pilot,2023.2.2,Win32,59.52380952,61082411ae20078aaf317d35,65d2b6c8f2eece985d8e374c,65d2b9c7901b20510b57917b,0.0338,0.0339,0,133,133,0,1,onetwo,,,,,,,,,,,,,,,,,,,,,,,,,,,,,,,,,,,,,,,,,,,,,,,,,,,,,,,,,,,,,,,,,,,,,,,,,,,,,,,,,,,,,,,,,,,,,,,,,,,,,,,,,,,,,,,,,,,,,,,,,,,,,,,,,,,,,,,,,
,,61082411ae20078aaf317d35,2024-02-19_02h16.00.110,kallum_motion_pilot,2023.2.2,Win32,59.52380952,61082411ae20078aaf317d35,65d2b6c8f2eece985d8e374c,65d2b9c7901b20510b57917b,0.034,0.0341,0,134,134,154,1,sixfive,,,,,,,,,,,,,,,,,,,,,,,,,,,,,,,,,,,,,,,,,,,,,,,,,,,,,,,,,,,,,,,,,,,,,,,,,,,,,,,,,,,,,,,,,,,,,,,,,,,,,,,,,,,,,,,,,,,,,,,,,,,,,,,,,,,,,,,,,
,,61082411ae20078aaf317d35,2024-02-19_02h16.00.110,kallum_motion_pilot,2023.2.2,Win32,59.52380952,61082411ae20078aaf317d35,65d2b6c8f2eece985d8e374c,65d2b9c7901b20510b57917b,0.0343,0.0343,0,135,135,72,1,onetwo,,,,,,,,,,,,,,,,,,,,,,,,,,,,,,,,,,,,,,,,,,,,,,,,,,,,,,,,,,,,,,,,,,,,,,,,,,,,,,,,,,,,,,,,,,,,,,,,,,,,,,,,,,,,,,,,,,,,,,,,,,,,,,,,,,,,,,,,,
,,61082411ae20078aaf317d35,2024-02-19_02h16.00.110,kallum_motion_pilot,2023.2.2,Win32,59.52380952,61082411ae20078aaf317d35,65d2b6c8f2eece985d8e374c,65d2b9c7901b20510b57917b,0.0344,0.0344,0,136,136,60,1,threeone,,,,,,,,,,,,,,,,,,,,,,,,,,,,,,,,,,,,,,,,,,,,,,,,,,,,,,,,,,,,,,,,,,,,,,,,,,,,,,,,,,,,,,,,,,,,,,,,,,,,,,,,,,,,,,,,,,,,,,,,,,,,,,,,,,,,,,,,,
,,61082411ae20078aaf317d35,2024-02-19_02h16.00.110,kallum_motion_pilot,2023.2.2,Win32,59.52380952,61082411ae20078aaf317d35,65d2b6c8f2eece985d8e374c,65d2b9c7901b20510b57917b,0.0345,0.0346,0,137,137,71,1,fourthree,,,,,,,,,,,,,,,,,,,,,,,,,,,,,,,,,,,,,,,,,,,,,,,,,,,,,,,,,,,,,,,,,,,,,,,,,,,,,,,,,,,,,,,,,,,,,,,,,,,,,,,,,,,,,,,,,,,,,,,,,,,,,,,,,,,,,,,,,
,,61082411ae20078aaf317d35,2024-02-19_02h16.00.110,kallum_motion_pilot,2023.2.2,Win32,59.52380952,61082411ae20078aaf317d35,65d2b6c8f2eece985d8e374c,65d2b9c7901b20510b57917b,0.0347,0.0348,0,138,138,1,1,onethree,,,,,,,,,,,,,,,,,,,,,,,,,,,,,,,,,,,,,,,,,,,,,,,,,,,,,,,,,,,,,,,,,,,,,,,,,,,,,,,,,,,,,,,,,,,,,,,,,,,,,,,,,,,,,,,,,,,,,,,,,,,,,,,,,,,,,,,,,
,,61082411ae20078aaf317d35,2024-02-19_02h16.00.110,kallum_motion_pilot,2023.2.2,Win32,59.52380952,61082411ae20078aaf317d35,65d2b6c8f2eece985d8e374c,65d2b9c7901b20510b57917b,0.0349,0.035,0,139,139,84,1,sevenfive,,,,,,,,,,,,,,,,,,,,,,,,,,,,,,,,,,,,,,,,,,,,,,,,,,,,,,,,,,,,,,,,,,,,,,,,,,,,,,,,,,,,,,,,,,,,,,,,,,,,,,,,,,,,,,,,,,,,,,,,,,,,,,,,,,,,,,,,,
,,61082411ae20078aaf317d35,2024-02-19_02h16.00.110,kallum_motion_pilot,2023.2.2,Win32,59.52380952,61082411ae20078aaf317d35,65d2b6c8f2eece985d8e374c,65d2b9c7901b20510b57917b,0.0351,0.0351,0,140,140,157,1,seveneight,,,,,,,,,,,,,,,,,,,,,,,,,,,,,,,,,,,,,,,,,,,,,,,,,,,,,,,,,,,,,,,,,,,,,,,,,,,,,,,,,,,,,,,,,,,,,,,,,,,,,,,,,,,,,,,,,,,,,,,,,,,,,,,,,,,,,,,,,
,,61082411ae20078aaf317d35,2024-02-19_02h16.00.110,kallum_motion_pilot,2023.2.2,Win32,59.52380952,61082411ae20078aaf317d35,65d2b6c8f2eece985d8e374c,65d2b9c7901b20510b57917b,0.0352,0.0353,0,141,141,107,1,sixeight,,,,,,,,,,,,,,,,,,,,,,,,,,,,,,,,,,,,,,,,,,,,,,,,,,,,,,,,,,,,,,,,,,,,,,,,,,,,,,,,,,,,,,,,,,,,,,,,,,,,,,,,,,,,,,,,,,,,,,,,,,,,,,,,,,,,,,,,,
,,61082411ae20078aaf317d35,2024-02-19_02h16.00.110,kallum_motion_pilot,2023.2.2,Win32,59.52380952,61082411ae20078aaf317d35,65d2b6c8f2eece985d8e374c,65d2b9c7901b20510b57917b,0.0354,0.0354,0,142,142,146,1,sixfive,,,,,,,,,,,,,,,,,,,,,,,,,,,,,,,,,,,,,,,,,,,,,,,,,,,,,,,,,,,,,,,,,,,,,,,,,,,,,,,,,,,,,,,,,,,,,,,,,,,,,,,,,,,,,,,,,,,,,,,,,,,,,,,,,,,,,,,,,
,,61082411ae20078aaf317d35,2024-02-19_02h16.00.110,kallum_motion_pilot,2023.2.2,Win32,59.52380952,61082411ae20078aaf317d35,65d2b6c8f2eece985d8e374c,65d2b9c7901b20510b57917b,0.0354,0.0355,0,143,143,46,1,fourtwo,,,,,,,,,,,,,,,,,,,,,,,,,,,,,,,,,,,,,,,,,,,,,,,,,,,,,,,,,,,,,,,,,,,,,,,,,,,,,,,,,,,,,,,,,,,,,,,,,,,,,,,,,,,,,,,,,,,,,,,,,,,,,,,,,,,,,,,,,
,,61082411ae20078aaf317d35,2024-02-19_02h16.00.110,kallum_motion_pilot,2023.2.2,Win32,59.52380952,61082411ae20078aaf317d35,65d2b6c8f2eece985d8e374c,65d2b9c7901b20510b57917b,0.0356,0.0356,0,144,144,44,1,threeone,,,,,,,,,,,,,,,,,,,,,,,,,,,,,,,,,,,,,,,,,,,,,,,,,,,,,,,,,,,,,,,,,,,,,,,,,,,,,,,,,,,,,,,,,,,,,,,,,,,,,,,,,,,,,,,,,,,,,,,,,,,,,,,,,,,,,,,,,
,,61082411ae20078aaf317d35,2024-02-19_02h16.00.110,kallum_motion_pilot,2023.2.2,Win32,59.52380952,61082411ae20078aaf317d35,65d2b6c8f2eece985d8e374c,65d2b9c7901b20510b57917b,0.0357,0.0358,0,145,145,67,1,twofour,,,,,,,,,,,,,,,,,,,,,,,,,,,,,,,,,,,,,,,,,,,,,,,,,,,,,,,,,,,,,,,,,,,,,,,,,,,,,,,,,,,,,,,,,,,,,,,,,,,,,,,,,,,,,,,,,,,,,,,,,,,,,,,,,,,,,,,,,
,,61082411ae20078aaf317d35,2024-02-19_02h16.00.110,kallum_motion_pilot,2023.2.2,Win32,59.52380952,61082411ae20078aaf317d35,65d2b6c8f2eece985d8e374c,65d2b9c7901b20510b57917b,0.0359,0.0359,0,146,146,22,1,fourtwo,,,,,,,,,,,,,,,,,,,,,,,,,,,,,,,,,,,,,,,,,,,,,,,,,,,,,,,,,,,,,,,,,,,,,,,,,,,,,,,,,,,,,,,,,,,,,,,,,,,,,,,,,,,,,,,,,,,,,,,,,,,,,,,,,,,,,,,,,
,,61082411ae20078aaf317d35,2024-02-19_02h16.00.110,kallum_motion_pilot,2023.2.2,Win32,59.52380952,61082411ae20078aaf317d35,65d2b6c8f2eece985d8e374c,65d2b9c7901b20510b57917b,0.036,0.0361,0,147,147,82,1,sixfive,,,,,,,,,,,,,,,,,,,,,,,,,,,,,,,,,,,,,,,,,,,,,,,,,,,,,,,,,,,,,,,,,,,,,,,,,,,,,,,,,,,,,,,,,,,,,,,,,,,,,,,,,,,,,,,,,,,,,,,,,,,,,,,,,,,,,,,,,
,,61082411ae20078aaf317d35,2024-02-19_02h16.00.110,kallum_motion_pilot,2023.2.2,Win32,59.52380952,61082411ae20078aaf317d35,65d2b6c8f2eece985d8e374c,65d2b9c7901b20510b57917b,0.0362,0.0362,0,148,148,141,1,seveneight,,,,,,,,,,,,,,,,,,,,,,,,,,,,,,,,,,,,,,,,,,,,,,,,,,,,,,,,,,,,,,,,,,,,,,,,,,,,,,,,,,,,,,,,,,,,,,,,,,,,,,,,,,,,,,,,,,,,,,,,,,,,,,,,,,,,,,,,,
,,61082411ae20078aaf317d35,2024-02-19_02h16.00.110,kallum_motion_pilot,2023.2.2,Win32,59.52380952,61082411ae20078aaf317d35,65d2b6c8f2eece985d8e374c,65d2b9c7901b20510b57917b,0.0363,0.0364,0,149,149,125,1,seveneight,,,,,,,,,,,,,,,,,,,,,,,,,,,,,,,,,,,,,,,,,,,,,,,,,,,,,,,,,,,,,,,,,,,,,,,,,,,,,,,,,,,,,,,,,,,,,,,,,,,,,,,,,,,,,,,,,,,,,,,,,,,,,,,,,,,,,,,,,
,,61082411ae20078aaf317d35,2024-02-19_02h16.00.110,kallum_motion_pilot,2023.2.2,Win32,59.52380952,61082411ae20078aaf317d35,65d2b6c8f2eece985d8e374c,65d2b9c7901b20510b57917b,0.0364,0.0365,0,150,150,87,1,eightseven,,,,,,,,,,,,,,,,,,,,,,,,,,,,,,,,,,,,,,,,,,,,,,,,,,,,,,,,,,,,,,,,,,,,,,,,,,,,,,,,,,,,,,,,,,,,,,,,,,,,,,,,,,,,,,,,,,,,,,,,,,,,,,,,,,,,,,,,,
,,61082411ae20078aaf317d35,2024-02-19_02h16.00.110,kallum_motion_pilot,2023.2.2,Win32,59.52380952,61082411ae20078aaf317d35,65d2b6c8f2eece985d8e374c,65d2b9c7901b20510b57917b,0.0366,0.0367,0,151,151,58,1,twoone,,,,,,,,,,,,,,,,,,,,,,,,,,,,,,,,,,,,,,,,,,,,,,,,,,,,,,,,,,,,,,,,,,,,,,,,,,,,,,,,,,,,,,,,,,,,,,,,,,,,,,,,,,,,,,,,,,,,,,,,,,,,,,,,,,,,,,,,,
,,61082411ae20078aaf317d35,2024-02-19_02h16.00.110,kallum_motion_pilot,2023.2.2,Win32,59.52380952,61082411ae20078aaf317d35,65d2b6c8f2eece985d8e374c,65d2b9c7901b20510b57917b,0.0368,0.0368,0,152,152,148,1,sevenfive,,,,,,,,,,,,,,,,,,,,,,,,,,,,,,,,,,,,,,,,,,,,,,,,,,,,,,,,,,,,,,,,,,,,,,,,,,,,,,,,,,,,,,,,,,,,,,,,,,,,,,,,,,,,,,,,,,,,,,,,,,,,,,,,,,,,,,,,,
,,61082411ae20078aaf317d35,2024-02-19_02h16.00.110,kallum_motion_pilot,2023.2.2,Win32,59.52380952,61082411ae20078aaf317d35,65d2b6c8f2eece985d8e374c,65d2b9c7901b20510b57917b,0.0368,0.0369,0,153,153,137,1,fiveseven,,,,,,,,,,,,,,,,,,,,,,,,,,,,,,,,,,,,,,,,,,,,,,,,,,,,,,,,,,,,,,,,,,,,,,,,,,,,,,,,,,,,,,,,,,,,,,,,,,,,,,,,,,,,,,,,,,,,,,,,,,,,,,,,,,,,,,,,,
,,61082411ae20078aaf317d35,2024-02-19_02h16.00.110,kallum_motion_pilot,2023.2.2,Win32,59.52380952,61082411ae20078aaf317d35,65d2b6c8f2eece985d8e374c,65d2b9c7901b20510b57917b,0.037,0.0371,0,154,154,65,1,onethree,,,,,,,,,,,,,,,,,,,,,,,,,,,,,,,,,,,,,,,,,,,,,,,,,,,,,,,,,,,,,,,,,,,,,,,,,,,,,,,,,,,,,,,,,,,,,,,,,,,,,,,,,,,,,,,,,,,,,,,,,,,,,,,,,,,,,,,,,
,,61082411ae20078aaf317d35,2024-02-19_02h16.00.110,kallum_motion_pilot,2023.2.2,Win32,59.52380952,61082411ae20078aaf317d35,65d2b6c8f2eece985d8e374c,65d2b9c7901b20510b57917b,0.0372,0.0373,0,155,155,135,1,eightseven,,,,,,,,,,,,,,,,,,,,,,,,,,,,,,,,,,,,,,,,,,,,,,,,,,,,,,,,,,,,,,,,,,,,,,,,,,,,,,,,,,,,,,,,,,,,,,,,,,,,,,,,,,,,,,,,,,,,,,,,,,,,,,,,,,,,,,,,,
,,61082411ae20078aaf317d35,2024-02-19_02h16.00.110,kallum_motion_pilot,2023.2.2,Win32,59.52380952,61082411ae20078aaf317d35,65d2b6c8f2eece985d8e374c,65d2b9c7901b20510b57917b,0.0373,0.0373,0,156,156,76,1,threeone,,,,,,,,,,,,,,,,,,,,,,,,,,,,,,,,,,,,,,,,,,,,,,,,,,,,,,,,,,,,,,,,,,,,,,,,,,,,,,,,,,,,,,,,,,,,,,,,,,,,,,,,,,,,,,,,,,,,,,,,,,,,,,,,,,,,,,,,,
,,61082411ae20078aaf317d35,2024-02-19_02h16.00.110,kallum_motion_pilot,2023.2.2,Win32,59.52380952,61082411ae20078aaf317d35,65d2b6c8f2eece985d8e374c,65d2b9c7901b20510b57917b,0.0375,0.0375,0,157,157,3,1,twofour,,,,,,,,,,,,,,,,,,,,,,,,,,,,,,,,,,,,,,,,,,,,,,,,,,,,,,,,,,,,,,,,,,,,,,,,,,,,,,,,,,,,,,,,,,,,,,,,,,,,,,,,,,,,,,,,,,,,,,,,,,,,,,,,,,,,,,,,,
,,61082411ae20078aaf317d35,2024-02-19_02h16.00.110,kallum_motion_pilot,2023.2.2,Win32,59.52380952,61082411ae20078aaf317d35,65d2b6c8f2eece985d8e374c,65d2b9c7901b20510b57917b,0.0376,0.0376,0,158,158,73,1,onethree,,,,,,,,,,,,,,,,,,,,,,,,,,,,,,,,,,,,,,,,,,,,,,,,,,,,,,,,,,,,,,,,,,,,,,,,,,,,,,,,,,,,,,,,,,,,,,,,,,,,,,,,,,,,,,,,,,,,,,,,,,,,,,,,,,,,,,,,,
,,61082411ae20078aaf317d35,2024-02-19_02h16.00.110,kallum_motion_pilot,2023.2.2,Win32,59.52380952,61082411ae20078aaf317d35,65d2b6c8f2eece985d8e374c,65d2b9c7901b20510b57917b,0.0378,0.0378,0,159,159,159,1,eightseven,,,,,,,,,,,,,,,,,,,,,,,,,,,,,,,,,,,,,,,,,,,,,,,,,,,,,,,,,,,,,,,,,,,,,,,,,,,,,,,,,,,,,,,,,,,,,,,,,,,,,,,,,,,,,,,,,,,,,,,,,,,,,,,,,,,,,,,,,
,,61082411ae20078aaf317d35,2024-02-19_02h16.00.110,kallum_motion_pilot,2023.2.2,Win32,59.52380952,61082411ae20078aaf317d35,65d2b6c8f2eece985d8e374c,65d2b9c7901b20510b57917b,0.0379,0.0379,0,160,160,153,1,fiveseven,,,,,,,,,,,,,,,,,,,,,,,,,,,,,,,,,,,,,,,,,,,,,,,,,,,,,,,,,,,,,,,,,,,,,,,,,,,,,,,,,,,,,,,,,,,,,,,,,,,,,,,,,,,,,,,,,,,,,,,,,,,,,,,,,,,,,,,,,
,,61082411ae20078aaf317d35,2024-02-19_02h16.00.110,kallum_motion_pilot,2023.2.2,Win32,59.52380952,61082411ae20078aaf317d35,65d2b6c8f2eece985d8e374c,65d2b9c7901b20510b57917b,0.038,0.0385,0,161,161,134,1,eightsix,,,,,,,,,,,,,,,,,,,,,,,,,,,,,,,,,,,,,,,,,,,,,,,,,,,,,,,,,,,,,,,,,,,,,,,,,,,,,,,,,,,,,,,,,,,,,,,,,,,,,,,,,,,,,,,,,,,,,,,,,,,,,,,,,,,,,,,,,
,,61082411ae20078aaf317d35,2024-02-19_02h16.00.110,kallum_motion_pilot,2023.2.2,Win32,59.52380952,61082411ae20078aaf317d35,65d2b6c8f2eece985d8e374c,65d2b9c7901b20510b57917b,0.0385,0.0386,1,0,162,155,1,sixeight,,,,,,,,,,,,,,,,,,,,,,,,,,,,,,,,,,,,,,,,,,,,,,,,,,,,,,,,,,,,,,,,,,,,,,,,,,,,,,,,,,,,,,,,,,,,,,,,,,,,,,,,,,,,,,,,,,,,,,,,,,,,,,,,,,,,,,,,,
,,61082411ae20078aaf317d35,2024-02-19_02h16.00.110,kallum_motion_pilot,2023.2.2,Win32,59.52380952,61082411ae20078aaf317d35,65d2b6c8f2eece985d8e374c,65d2b9c7901b20510b57917b,0.0387,0.0387,1,1,163,41,1,onethree,,,,,,,,,,,,,,,,,,,,,,,,,,,,,,,,,,,,,,,,,,,,,,,,,,,,,,,,,,,,,,,,,,,,,,,,,,,,,,,,,,,,,,,,,,,,,,,,,,,,,,,,,,,,,,,,,,,,,,,,,,,,,,,,,,,,,,,,,
,,61082411ae20078aaf317d35,2024-02-19_02h16.00.110,kallum_motion_pilot,2023.2.2,Win32,59.52380952,61082411ae20078aaf317d35,65d2b6c8f2eece985d8e374c,65d2b9c7901b20510b57917b,0.0389,0.0389,1,2,164,95,1,eightseven,,,,,,,,,,,,,,,,,,,,,,,,,,,,,,,,,,,,,,,,,,,,,,,,,,,,,,,,,,,,,,,,,,,,,,,,,,,,,,,,,,,,,,,,,,,,,,,,,,,,,,,,,,,,,,,,,,,,,,,,,,,,,,,,,,,,,,,,,
,,61082411ae20078aaf317d35,2024-02-19_02h16.00.110,kallum_motion_pilot,2023.2.2,Win32,59.52380952,61082411ae20078aaf317d35,65d2b6c8f2eece985d8e374c,65d2b9c7901b20510b57917b,0.0389,0.039,1,3,165,29,1,threefour,,,,,,,,,,,,,,,,,,,,,,,,,,,,,,,,,,,,,,,,,,,,,,,,,,,,,,,,,,,,,,,,,,,,,,,,,,,,,,,,,,,,,,,,,,,,,,,,,,,,,,,,,,,,,,,,,,,,,,,,,,,,,,,,,,,,,,,,,
,,61082411ae20078aaf317d35,2024-02-19_02h16.00.110,kallum_motion_pilot,2023.2.2,Win32,59.52380952,61082411ae20078aaf317d35,65d2b6c8f2eece985d8e374c,65d2b9c7901b20510b57917b,0.039,0.0391,1,4,166,89,1,fiveseven,,,,,,,,,,,,,,,,,,,,,,,,,,,,,,,,,,,,,,,,,,,,,,,,,,,,,,,,,,,,,,,,,,,,,,,,,,,,,,,,,,,,,,,,,,,,,,,,,,,,,,,,,,,,,,,,,,,,,,,,,,,,,,,,,,,,,,,,,
,,61082411ae20078aaf317d35,2024-02-19_02h16.00.110,kallum_motion_pilot,2023.2.2,Win32,59.52380952,61082411ae20078aaf317d35,65d2b6c8f2eece985d8e374c,65d2b9c7901b20510b57917b,0.0392,0.0392,1,5,167,77,1,threefour,,,,,,,,,,,,,,,,,,,,,,,,,,,,,,,,,,,,,,,,,,,,,,,,,,,,,,,,,,,,,,,,,,,,,,,,,,,,,,,,,,,,,,,,,,,,,,,,,,,,,,,,,,,,,,,,,,,,,,,,,,,,,,,,,,,,,,,,,
,,61082411ae20078aaf317d35,2024-02-19_02h16.00.110,kallum_motion_pilot,2023.2.2,Win32,59.52380952,61082411ae20078aaf317d35,65d2b6c8f2eece985d8e374c,65d2b9c7901b20510b57917b,0.0392,0.0393,1,6,168,63,1,fourthree,,,,,,,,,,,,,,,,,,,,,,,,,,,,,,,,,,,,,,,,,,,,,,,,,,,,,,,,,,,,,,,,,,,,,,,,,,,,,,,,,,,,,,,,,,,,,,,,,,,,,,,,,,,,,,,,,,,,,,,,,,,,,,,,,,,,,,,,,
,,61082411ae20078aaf317d35,2024-02-19_02h16.00.110,kallum_motion_pilot,2023.2.2,Win32,59.52380952,61082411ae20078aaf317d35,65d2b6c8f2eece985d8e374c,65d2b9c7901b20510b57917b,0.0394,0.0395,1,7,169,39,1,fourthree,,,,,,,,,,,,,,,,,,,,,,,,,,,,,,,,,,,,,,,,,,,,,,,,,,,,,,,,,,,,,,,,,,,,,,,,,,,,,,,,,,,,,,,,,,,,,,,,,,,,,,,,,,,,,,,,,,,,,,,,,,,,,,,,,,,,,,,,,
,,61082411ae20078aaf317d35,2024-02-19_02h16.00.110,kallum_motion_pilot,2023.2.2,Win32,59.52380952,61082411ae20078aaf317d35,65d2b6c8f2eece985d8e374c,65d2b9c7901b20510b57917b,0.0396,0.0396,1,8,170,83,1,sixeight,,,,,,,,,,,,,,,,,,,,,,,,,,,,,,,,,,,,,,,,,,,,,,,,,,,,,,,,,,,,,,,,,,,,,,,,,,,,,,,,,,,,,,,,,,,,,,,,,,,,,,,,,,,,,,,,,,,,,,,,,,,,,,,,,,,,,,,,,
,,61082411ae20078aaf317d35,2024-02-19_02h16.00.110,kallum_motion_pilot,2023.2.2,Win32,59.52380952,61082411ae20078aaf317d35,65d2b6c8f2eece985d8e374c,65d2b9c7901b20510b57917b,0.0396,0.0396,1,9,171,59,1,twofour,,,,,,,,,,,,,,,,,,,,,,,,,,,,,,,,,,,,,,,,,,,,,,,,,,,,,,,,,,,,,,,,,,,,,,,,,,,,,,,,,,,,,,,,,,,,,,,,,,,,,,,,,,,,,,,,,,,,,,,,,,,,,,,,,,,,,,,,,
,,61082411ae20078aaf317d35,2024-02-19_02h16.00.110,kallum_motion_pilot,2023.2.2,Win32,59.52380952,61082411ae20078aaf317d35,65d2b6c8f2eece985d8e374c,65d2b9c7901b20510b57917b,0.0398,0.0398,1,10,172,148,1,sevenfive,,,,,,,,,,,,,,,,,,,,,,,,,,,,,,,,,,,,,,,,,,,,,,,,,,,,,,,,,,,,,,,,,,,,,,,,,,,,,,,,,,,,,,,,,,,,,,,,,,,,,,,,,,,,,,,,,,,,,,,,,,,,,,,,,,,,,,,,,
,,61082411ae20078aaf317d35,2024-02-19_02h16.00.110,kallum_motion_pilot,2023.2.2,Win32,59.52380952,61082411ae20078aaf317d35,65d2b6c8f2eece985d8e374c,65d2b9c7901b20510b57917b,0.0398,0.0399,1,11,173,13,1,threefour,,,,,,,,,,,,,,,,,,,,,,,,,,,,,,,,,,,,,,,,,,,,,,,,,,,,,,,,,,,,,,,,,,,,,,,,,,,,,,,,,,,,,,,,,,,,,,,,,,,,,,,,,,,,,,,,,,,,,,,,,,,,,,,,,,,,,,,,,
,,61082411ae20078aaf317d35,2024-02-19_02h16.00.110,kallum_motion_pilot,2023.2.2,Win32,59.52380952,61082411ae20078aaf317d35,65d2b6c8f2eece985d8e374c,65d2b9c7901b20510b57917b,0.04,0.0401,1,12,174,40,1,onetwo,,,,,,,,,,,,,,,,,,,,,,,,,,,,,,,,,,,,,,,,,,,,,,,,,,,,,,,,,,,,,,,,,,,,,,,,,,,,,,,,,,,,,,,,,,,,,,,,,,,,,,,,,,,,,,,,,,,,,,,,,,,,,,,,,,,,,,,,,
,,61082411ae20078aaf317d35,2024-02-19_02h16.00.110,kallum_motion_pilot,2023.2.2,Win32,59.52380952,61082411ae20078aaf317d35,65d2b6c8f2eece985d8e374c,65d2b9c7901b20510b57917b,0.0402,0.0403,1,13,175,33,1,onethree,,,,,,,,,,,,,,,,,,,,,,,,,,,,,,,,,,,,,,,,,,,,,,,,,,,,,,,,,,,,,,,,,,,,,,,,,,,,,,,,,,,,,,,,,,,,,,,,,,,,,,,,,,,,,,,,,,,,,,,,,,,,,,,,,,,,,,,,,
,,61082411ae20078aaf317d35,2024-02-19_02h16.00.110,kallum_motion_pilot,2023.2.2,Win32,59.52380952,61082411ae20078aaf317d35,65d2b6c8f2eece985d8e374c,65d2b9c7901b20510b57917b,0.0405,0.0406,1,14,176,43,1,twofour,,,,,,,,,,,,,,,,,,,,,,,,,,,,,,,,,,,,,,,,,,,,,,,,,,,,,,,,,,,,,,,,,,,,,,,,,,,,,,,,,,,,,,,,,,,,,,,,,,,,,,,,,,,,,,,,,,,,,,,,,,,,,,,,,,,,,,,,,
,,61082411ae20078aaf317d35,2024-02-19_02h16.00.110,kallum_motion_pilot,2023.2.2,Win32,59.52380952,61082411ae20078aaf317d35,65d2b6c8f2eece985d8e374c,65d2b9c7901b20510b57917b,0.0407,0.0407,1,15,177,122,1,sixfive,,,,,,,,,,,,,,,,,,,,,,,,,,,,,,,,,,,,,,,,,,,,,,,,,,,,,,,,,,,,,,,,,,,,,,,,,,,,,,,,,,,,,,,,,,,,,,,,,,,,,,,,,,,,,,,,,,,,,,,,,,,,,,,,,,,,,,,,,
,,61082411ae20078aaf317d35,2024-02-19_02h16.00.110,kallum_motion_pilot,2023.2.2,Win32,59.52380952,61082411ae20078aaf317d35,65d2b6c8f2eece985d8e374c,65d2b9c7901b20510b57917b,0.0408,0.0408,1,16,178,36,1,threeone,,,,,,,,,,,,,,,,,,,,,,,,,,,,,,,,,,,,,,,,,,,,,,,,,,,,,,,,,,,,,,,,,,,,,,,,,,,,,,,,,,,,,,,,,,,,,,,,,,,,,,,,,,,,,,,,,,,,,,,,,,,,,,,,,,,,,,,,,
,,61082411ae20078aaf317d35,2024-02-19_02h16.00.110,kallum_motion_pilot,2023.2.2,Win32,59.52380952,61082411ae20078aaf317d35,65d2b6c8f2eece985d8e374c,65d2b9c7901b20510b57917b,0.041,0.0411,1,17,179,8,1,onetwo,,,,,,,,,,,,,,,,,,,,,,,,,,,,,,,,,,,,,,,,,,,,,,,,,,,,,,,,,,,,,,,,,,,,,,,,,,,,,,,,,,,,,,,,,,,,,,,,,,,,,,,,,,,,,,,,,,,,,,,,,,,,,,,,,,,,,,,,,
,,61082411ae20078aaf317d35,2024-02-19_02h16.00.110,kallum_motion_pilot,2023.2.2,Win32,59.52380952,61082411ae20078aaf317d35,65d2b6c8f2eece985d8e374c,65d2b9c7901b20510b57917b,0.0412,0.0412,1,18,180,140,1,sevenfive,,,,,,,,,,,,,,,,,,,,,,,,,,,,,,,,,,,,,,,,,,,,,,,,,,,,,,,,,,,,,,,,,,,,,,,,,,,,,,,,,,,,,,,,,,,,,,,,,,,,,,,,,,,,,,,,,,,,,,,,,,,,,,,,,,,,,,,,,
,,61082411ae20078aaf317d35,2024-02-19_02h16.00.110,kallum_motion_pilot,2023.2.2,Win32,59.52380952,61082411ae20078aaf317d35,65d2b6c8f2eece985d8e374c,65d2b9c7901b20510b57917b,0.0413,0.0414,1,19,181,52,1,threeone,,,,,,,,,,,,,,,,,,,,,,,,,,,,,,,,,,,,,,,,,,,,,,,,,,,,,,,,,,,,,,,,,,,,,,,,,,,,,,,,,,,,,,,,,,,,,,,,,,,,,,,,,,,,,,,,,,,,,,,,,,,,,,,,,,,,,,,,,
,,61082411ae20078aaf317d35,2024-02-19_02h16.00.110,kallum_motion_pilot,2023.2.2,Win32,59.52380952,61082411ae20078aaf317d35,65d2b6c8f2eece985d8e374c,65d2b9c7901b20510b57917b,0.0414,0.0415,1,20,182,106,1,sixfive,,,,,,,,,,,,,,,,,,,,,,,,,,,,,,,,,,,,,,,,,,,,,,,,,,,,,,,,,,,,,,,,,,,,,,,,,,,,,,,,,,,,,,,,,,,,,,,,,,,,,,,,,,,,,,,,,,,,,,,,,,,,,,,,,,,,,,,,,
,,61082411ae20078aaf317d35,2024-02-19_02h16.00.110,kallum_motion_pilot,2023.2.2,Win32,59.52380952,61082411ae20078aaf317d35,65d2b6c8f2eece985d8e374c,65d2b9c7901b20510b57917b,0.0416,0.0417,1,21,183,128,1,fivesix,,,,,,,,,,,,,,,,,,,,,,,,,,,,,,,,,,,,,,,,,,,,,,,,,,,,,,,,,,,,,,,,,,,,,,,,,,,,,,,,,,,,,,,,,,,,,,,,,,,,,,,,,,,,,,,,,,,,,,,,,,,,,,,,,,,,,,,,,
,,61082411ae20078aaf317d35,2024-02-19_02h16.00.110,kallum_motion_pilot,2023.2.2,Win32,59.52380952,61082411ae20078aaf317d35,65d2b6c8f2eece985d8e374c,65d2b9c7901b20510b57917b,0.0418,0.0418,1,22,184,86,1,eightsix,,,,,,,,,,,,,,,,,,,,,,,,,,,,,,,,,,,,,,,,,,,,,,,,,,,,,,,,,,,,,,,,,,,,,,,,,,,,,,,,,,,,,,,,,,,,,,,,,,,,,,,,,,,,,,,,,,,,,,,,,,,,,,,,,,,,,,,,,
,,61082411ae20078aaf317d35,2024-02-19_02h16.00.110,kallum_motion_pilot,2023.2.2,Win32,59.52380952,61082411ae20078aaf317d35,65d2b6c8f2eece985d8e374c,65d2b9c7901b20510b57917b,0.042,0.042,1,23,185,20,1,threeone,,,,,,,,,,,,,,,,,,,,,,,,,,,,,,,,,,,,,,,,,,,,,,,,,,,,,,,,,,,,,,,,,,,,,,,,,,,,,,,,,,,,,,,,,,,,,,,,,,,,,,,,,,,,,,,,,,,,,,,,,,,,,,,,,,,,,,,,,
,,61082411ae20078aaf317d35,2024-02-19_02h16.00.110,kallum_motion_pilot,2023.2.2,Win32,59.52380952,61082411ae20078aaf317d35,65d2b6c8f2eece985d8e374c,65d2b9c7901b20510b57917b,0.0422,0.0422,1,24,186,87,1,eightseven,,,,,,,,,,,,,,,,,,,,,,,,,,,,,,,,,,,,,,,,,,,,,,,,,,,,,,,,,,,,,,,,,,,,,,,,,,,,,,,,,,,,,,,,,,,,,,,,,,,,,,,,,,,,,,,,,,,,,,,,,,,,,,,,,,,,,,,,,
,,61082411ae20078aaf317d35,2024-02-19_02h16.00.110,kallum_motion_pilot,2023.2.2,Win32,59.52380952,61082411ae20078aaf317d35,65d2b6c8f2eece985d8e374c,65d2b9c7901b20510b57917b,0.0423,0.0424,1,25,187,78,1,fourtwo,,,,,,,,,,,,,,,,,,,,,,,,,,,,,,,,,,,,,,,,,,,,,,,,,,,,,,,,,,,,,,,,,,,,,,,,,,,,,,,,,,,,,,,,,,,,,,,,,,,,,,,,,,,,,,,,,,,,,,,,,,,,,,,,,,,,,,,,,
,,61082411ae20078aaf317d35,2024-02-19_02h16.00.110,kallum_motion_pilot,2023.2.2,Win32,59.52380952,61082411ae20078aaf317d35,65d2b6c8f2eece985d8e374c,65d2b9c7901b20510b57917b,0.0425,0.0425,1,26,188,50,1,twoone,,,,,,,,,,,,,,,,,,,,,,,,,,,,,,,,,,,,,,,,,,,,,,,,,,,,,,,,,,,,,,,,,,,,,,,,,,,,,,,,,,,,,,,,,,,,,,,,,,,,,,,,,,,,,,,,,,,,,,,,,,,,,,,,,,,,,,,,,
,,61082411ae20078aaf317d35,2024-02-19_02h16.00.110,kallum_motion_pilot,2023.2.2,Win32,59.52380952,61082411ae20078aaf317d35,65d2b6c8f2eece985d8e374c,65d2b9c7901b20510b57917b,0.0425,0.0426,1,27,189,123,1,sixeight,,,,,,,,,,,,,,,,,,,,,,,,,,,,,,,,,,,,,,,,,,,,,,,,,,,,,,,,,,,,,,,,,,,,,,,,,,,,,,,,,,,,,,,,,,,,,,,,,,,,,,,,,,,,,,,,,,,,,,,,,,,,,,,,,,,,,,,,,
,,61082411ae20078aaf317d35,2024-02-19_02h16.00.110,kallum_motion_pilot,2023.2.2,Win32,59.52380952,61082411ae20078aaf317d35,65d2b6c8f2eece985d8e374c,65d2b9c7901b20510b57917b,0.0427,0.0427,1,28,190,48,1,onetwo,,,,,,,,,,,,,,,,,,,,,,,,,,,,,,,,,,,,,,,,,,,,,,,,,,,,,,,,,,,,,,,,,,,,,,,,,,,,,,,,,,,,,,,,,,,,,,,,,,,,,,,,,,,,,,,,,,,,,,,,,,,,,,,,,,,,,,,,,
,,61082411ae20078aaf317d35,2024-02-19_02h16.00.110,kallum_motion_pilot,2023.2.2,Win32,59.52380952,61082411ae20078aaf317d35,65d2b6c8f2eece985d8e374c,65d2b9c7901b20510b57917b,0.0427,0.0427,1,29,191,17,1,onethree,,,,,,,,,,,,,,,,,,,,,,,,,,,,,,,,,,,,,,,,,,,,,,,,,,,,,,,,,,,,,,,,,,,,,,,,,,,,,,,,,,,,,,,,,,,,,,,,,,,,,,,,,,,,,,,,,,,,,,,,,,,,,,,,,,,,,,,,,
,,61082411ae20078aaf317d35,2024-02-19_02h16.00.110,kallum_motion_pilot,2023.2.2,Win32,59.52380952,61082411ae20078aaf317d35,65d2b6c8f2eece985d8e374c,65d2b9c7901b20510b57917b,0.0428,0.0429,1,30,192,54,1,fourtwo,,,,,,,,,,,,,,,,,,,,,,,,,,,,,,,,,,,,,,,,,,,,,,,,,,,,,,,,,,,,,,,,,,,,,,,,,,,,,,,,,,,,,,,,,,,,,,,,,,,,,,,,,,,,,,,,,,,,,,,,,,,,,,,,,,,,,,,,,
,,61082411ae20078aaf317d35,2024-02-19_02h16.00.110,kallum_motion_pilot,2023.2.2,Win32,59.52380952,61082411ae20078aaf317d35,65d2b6c8f2eece985d8e374c,65d2b9c7901b20510b57917b,0.043,0.0431,1,31,193,105,1,fiveseven,,,,,,,,,,,,,,,,,,,,,,,,,,,,,,,,,,,,,,,,,,,,,,,,,,,,,,,,,,,,,,,,,,,,,,,,,,,,,,,,,,,,,,,,,,,,,,,,,,,,,,,,,,,,,,,,,,,,,,,,,,,,,,,,,,,,,,,,,
,,61082411ae20078aaf317d35,2024-02-19_02h16.00.110,kallum_motion_pilot,2023.2.2,Win32,59.52380952,61082411ae20078aaf317d35,65d2b6c8f2eece985d8e374c,65d2b9c7901b20510b57917b,0.0432,0.0432,1,32,194,152,1,fivesix,,,,,,,,,,,,,,,,,,,,,,,,,,,,,,,,,,,,,,,,,,,,,,,,,,,,,,,,,,,,,,,,,,,,,,,,,,,,,,,,,,,,,,,,,,,,,,,,,,,,,,,,,,,,,,,,,,,,,,,,,,,,,,,,,,,,,,,,,
,,61082411ae20078aaf317d35,2024-02-19_02h16.00.110,kallum_motion_pilot,2023.2.2,Win32,59.52380952,61082411ae20078aaf317d35,65d2b6c8f2eece985d8e374c,65d2b9c7901b20510b57917b,0.0433,0.0434,1,33,195,14,1,fourtwo,,,,,,,,,,,,,,,,,,,,,,,,,,,,,,,,,,,,,,,,,,,,,,,,,,,,,,,,,,,,,,,,,,,,,,,,,,,,,,,,,,,,,,,,,,,,,,,,,,,,,,,,,,,,,,,,,,,,,,,,,,,,,,,,,,,,,,,,,
,,61082411ae20078aaf317d35,2024-02-19_02h16.00.110,kallum_motion_pilot,2023.2.2,Win32,59.52380952,61082411ae20078aaf317d35,65d2b6c8f2eece985d8e374c,65d2b9c7901b20510b57917b,0.0436,0.0436,1,34,196,68,1,threeone,,,,,,,,,,,,,,,,,,,,,,,,,,,,,,,,,,,,,,,,,,,,,,,,,,,,,,,,,,,,,,,,,,,,,,,,,,,,,,,,,,,,,,,,,,,,,,,,,,,,,,,,,,,,,,,,,,,,,,,,,,,,,,,,,,,,,,,,,
,,61082411ae20078aaf317d35,2024-02-19_02h16.00.110,kallum_motion_pilot,2023.2.2,Win32,59.52380952,61082411ae20078aaf317d35,65d2b6c8f2eece985d8e374c,65d2b9c7901b20510b57917b,0.0437,0.0438,1,35,197,62,1,fourtwo,,,,,,,,,,,,,,,,,,,,,,,,,,,,,,,,,,,,,,,,,,,,,,,,,,,,,,,,,,,,,,,,,,,,,,,,,,,,,,,,,,,,,,,,,,,,,,,,,,,,,,,,,,,,,,,,,,,,,,,,,,,,,,,,,,,,,,,,,
,,61082411ae20078aaf317d35,2024-02-19_02h16.00.110,kallum_motion_pilot,2023.2.2,Win32,59.52380952,61082411ae20078aaf317d35,65d2b6c8f2eece985d8e374c,65d2b9c7901b20510b57917b,0.0438,0.0439,1,36,198,139,1,sixeight,,,,,,,,,,,,,,,,,,,,,,,,,,,,,,,,,,,,,,,,,,,,,,,,,,,,,,,,,,,,,,,,,,,,,,,,,,,,,,,,,,,,,,,,,,,,,,,,,,,,,,,,,,,,,,,,,,,,,,,,,,,,,,,,,,,,,,,,,
,,61082411ae20078aaf317d35,2024-02-19_02h16.00.110,kallum_motion_pilot,2023.2.2,Win32,59.52380952,61082411ae20078aaf317d35,65d2b6c8f2eece985d8e374c,65d2b9c7901b20510b57917b,0.0439,0.044,1,37,199,38,1,fourtwo,,,,,,,,,,,,,,,,,,,,,,,,,,,,,,,,,,,,,,,,,,,,,,,,,,,,,,,,,,,,,,,,,,,,,,,,,,,,,,,,,,,,,,,,,,,,,,,,,,,,,,,,,,,,,,,,,,,,,,,,,,,,,,,,,,,,,,,,,
,,61082411ae20078aaf317d35,2024-02-19_02h16.00.110,kallum_motion_pilot,2023.2.2,Win32,59.52380952,61082411ae20078aaf317d35,65d2b6c8f2eece985d8e374c,65d2b9c7901b20510b57917b,0.044,0.0441,1,38,200,31,1,fourthree,,,,,,,,,,,,,,,,,,,,,,,,,,,,,,,,,,,,,,,,,,,,,,,,,,,,,,,,,,,,,,,,,,,,,,,,,,,,,,,,,,,,,,,,,,,,,,,,,,,,,,,,,,,,,,,,,,,,,,,,,,,,,,,,,,,,,,,,,
,,61082411ae20078aaf317d35,2024-02-19_02h16.00.110,kallum_motion_pilot,2023.2.2,Win32,59.52380952,61082411ae20078aaf317d35,65d2b6c8f2eece985d8e374c,65d2b9c7901b20510b57917b,0.0441,0.0441,1,39,201,126,1,eightsix,,,,,,,,,,,,,,,,,,,,,,,,,,,,,,,,,,,,,,,,,,,,,,,,,,,,,,,,,,,,,,,,,,,,,,,,,,,,,,,,,,,,,,,,,,,,,,,,,,,,,,,,,,,,,,,,,,,,,,,,,,,,,,,,,,,,,,,,,
,,61082411ae20078aaf317d35,2024-02-19_02h16.00.110,kallum_motion_pilot,2023.2.2,Win32,59.52380952,61082411ae20078aaf317d35,65d2b6c8f2eece985d8e374c,65d2b9c7901b20510b57917b,0.0443,0.0444,1,40,202,64,1,onetwo,,,,,,,,,,,,,,,,,,,,,,,,,,,,,,,,,,,,,,,,,,,,,,,,,,,,,,,,,,,,,,,,,,,,,,,,,,,,,,,,,,,,,,,,,,,,,,,,,,,,,,,,,,,,,,,,,,,,,,,,,,,,,,,,,,,,,,,,,
,,61082411ae20078aaf317d35,2024-02-19_02h16.00.110,kallum_motion_pilot,2023.2.2,Win32,59.52380952,61082411ae20078aaf317d35,65d2b6c8f2eece985d8e374c,65d2b9c7901b20510b57917b,0.0444,0.0445,1,41,203,149,1,seveneight,,,,,,,,,,,,,,,,,,,,,,,,,,,,,,,,,,,,,,,,,,,,,,,,,,,,,,,,,,,,,,,,,,,,,,,,,,,,,,,,,,,,,,,,,,,,,,,,,,,,,,,,,,,,,,,,,,,,,,,,,,,,,,,,,,,,,,,,,
,,61082411ae20078aaf317d35,2024-02-19_02h16.00.110,kallum_motion_pilot,2023.2.2,Win32,59.52380952,61082411ae20078aaf317d35,65d2b6c8f2eece985d8e374c,65d2b9c7901b20510b57917b,0.0445,0.0445,1,42,204,34,1,twoone,,,,,,,,,,,,,,,,,,,,,,,,,,,,,,,,,,,,,,,,,,,,,,,,,,,,,,,,,,,,,,,,,,,,,,,,,,,,,,,,,,,,,,,,,,,,,,,,,,,,,,,,,,,,,,,,,,,,,,,,,,,,,,,,,,,,,,,,,
,,61082411ae20078aaf317d35,2024-02-19_02h16.00.110,kallum_motion_pilot,2023.2.2,Win32,59.52380952,61082411ae20078aaf317d35,65d2b6c8f2eece985d8e374c,65d2b9c7901b20510b57917b,0.0447,0.0447,1,43,205,111,1,eightseven,,,,,,,,,,,,,,,,,,,,,,,,,,,,,,,,,,,,,,,,,,,,,,,,,,,,,,,,,,,,,,,,,,,,,,,,,,,,,,,,,,,,,,,,,,,,,,,,,,,,,,,,,,,,,,,,,,,,,,,,,,,,,,,,,,,,,,,,,
,,61082411ae20078aaf317d35,2024-02-19_02h16.00.110,kallum_motion_pilot,2023.2.2,Win32,59.52380952,61082411ae20078aaf317d35,65d2b6c8f2eece985d8e374c,65d2b9c7901b20510b57917b,0.0448,0.0448,1,44,206,79,1,eightseven,,,,,,,,,,,,,,,,,,,,,,,,,,,,,,,,,,,,,,,,,,,,,,,,,,,,,,,,,,,,,,,,,,,,,,,,,,,,,,,,,,,,,,,,,,,,,,,,,,,,,,,,,,,,,,,,,,,,,,,,,,,,,,,,,,,,,,,,,
,,61082411ae20078aaf317d35,2024-02-19_02h16.00.110,kallum_motion_pilot,2023.2.2,Win32,59.52380952,61082411ae20078aaf317d35,65d2b6c8f2eece985d8e374c,65d2b9c7901b20510b57917b,0.0449,0.0449,1,45,207,18,1,twoone,,,,,,,,,,,,,,,,,,,,,,,,,,,,,,,,,,,,,,,,,,,,,,,,,,,,,,,,,,,,,,,,,,,,,,,,,,,,,,,,,,,,,,,,,,,,,,,,,,,,,,,,,,,,,,,,,,,,,,,,,,,,,,,,,,,,,,,,,
,,61082411ae20078aaf317d35,2024-02-19_02h16.00.110,kallum_motion_pilot,2023.2.2,Win32,59.52380952,61082411ae20078aaf317d35,65d2b6c8f2eece985d8e374c,65d2b9c7901b20510b57917b,0.045,0.045,1,46,208,37,1,threefour,,,,,,,,,,,,,,,,,,,,,,,,,,,,,,,,,,,,,,,,,,,,,,,,,,,,,,,,,,,,,,,,,,,,,,,,,,,,,,,,,,,,,,,,,,,,,,,,,,,,,,,,,,,,,,,,,,,,,,,,,,,,,,,,,,,,,,,,,
,,61082411ae20078aaf317d35,2024-02-19_02h16.00.110,kallum_motion_pilot,2023.2.2,Win32,59.52380952,61082411ae20078aaf317d35,65d2b6c8f2eece985d8e374c,65d2b9c7901b20510b57917b,0.0452,0.0452,1,47,209,49,1,onethree,,,,,,,,,,,,,,,,,,,,,,,,,,,,,,,,,,,,,,,,,,,,,,,,,,,,,,,,,,,,,,,,,,,,,,,,,,,,,,,,,,,,,,,,,,,,,,,,,,,,,,,,,,,,,,,,,,,,,,,,,,,,,,,,,,,,,,,,,
,,61082411ae20078aaf317d35,2024-02-19_02h16.00.110,kallum_motion_pilot,2023.2.2,Win32,59.52380952,61082411ae20078aaf317d35,65d2b6c8f2eece985d8e374c,65d2b9c7901b20510b57917b,0.0453,0.0453,1,48,210,102,1,eightsix,,,,,,,,,,,,,,,,,,,,,,,,,,,,,,,,,,,,,,,,,,,,,,,,,,,,,,,,,,,,,,,,,,,,,,,,,,,,,,,,,,,,,,,,,,,,,,,,,,,,,,,,,,,,,,,,,,,,,,,,,,,,,,,,,,,,,,,,,
,,61082411ae20078aaf317d35,2024-02-19_02h16.00.110,kallum_motion_pilot,2023.2.2,Win32,59.52380952,61082411ae20078aaf317d35,65d2b6c8f2eece985d8e374c,65d2b9c7901b20510b57917b,0.0454,0.0455,1,49,211,134,1,eightsix,,,,,,,,,,,,,,,,,,,,,,,,,,,,,,,,,,,,,,,,,,,,,,,,,,,,,,,,,,,,,,,,,,,,,,,,,,,,,,,,,,,,,,,,,,,,,,,,,,,,,,,,,,,,,,,,,,,,,,,,,,,,,,,,,,,,,,,,,
,,61082411ae20078aaf317d35,2024-02-19_02h16.00.110,kallum_motion_pilot,2023.2.2,Win32,59.52380952,61082411ae20078aaf317d35,65d2b6c8f2eece985d8e374c,65d2b9c7901b20510b57917b,0.0455,0.0456,1,50,212,143,1,eightseven,,,,,,,,,,,,,,,,,,,,,,,,,,,,,,,,,,,,,,,,,,,,,,,,,,,,,,,,,,,,,,,,,,,,,,,,,,,,,,,,,,,,,,,,,,,,,,,,,,,,,,,,,,,,,,,,,,,,,,,,,,,,,,,,,,,,,,,,,
,,61082411ae20078aaf317d35,2024-02-19_02h16.00.110,kallum_motion_pilot,2023.2.2,Win32,59.52380952,61082411ae20078aaf317d35,65d2b6c8f2eece985d8e374c,65d2b9c7901b20510b57917b,0.0457,0.0457,1,51,213,100,1,sevenfive,,,,,,,,,,,,,,,,,,,,,,,,,,,,,,,,,,,,,,,,,,,,,,,,,,,,,,,,,,,,,,,,,,,,,,,,,,,,,,,,,,,,,,,,,,,,,,,,,,,,,,,,,,,,,,,,,,,,,,,,,,,,,,,,,,,,,,,,,
,,61082411ae20078aaf317d35,2024-02-19_02h16.00.110,kallum_motion_pilot,2023.2.2,Win32,59.52380952,61082411ae20078aaf317d35,65d2b6c8f2eece985d8e374c,65d2b9c7901b20510b57917b,0.0457,0.0458,1,52,214,99,1,sixeight,,,,,,,,,,,,,,,,,,,,,,,,,,,,,,,,,,,,,,,,,,,,,,,,,,,,,,,,,,,,,,,,,,,,,,,,,,,,,,,,,,,,,,,,,,,,,,,,,,,,,,,,,,,,,,,,,,,,,,,,,,,,,,,,,,,,,,,,,
,,61082411ae20078aaf317d35,2024-02-19_02h16.00.110,kallum_motion_pilot,2023.2.2,Win32,59.52380952,61082411ae20078aaf317d35,65d2b6c8f2eece985d8e374c,65d2b9c7901b20510b57917b,0.0458,0.0459,1,53,215,53,1,threefour,,,,,,,,,,,,,,,,,,,,,,,,,,,,,,,,,,,,,,,,,,,,,,,,,,,,,,,,,,,,,,,,,,,,,,,,,,,,,,,,,,,,,,,,,,,,,,,,,,,,,,,,,,,,,,,,,,,,,,,,,,,,,,,,,,,,,,,,,
,,61082411ae20078aaf317d35,2024-02-19_02h16.00.110,kallum_motion_pilot,2023.2.2,Win32,59.52380952,61082411ae20078aaf317d35,65d2b6c8f2eece985d8e374c,65d2b9c7901b20510b57917b,0.046,0.046,1,54,216,1,1,onethree,,,,,,,,,,,,,,,,,,,,,,,,,,,,,,,,,,,,,,,,,,,,,,,,,,,,,,,,,,,,,,,,,,,,,,,,,,,,,,,,,,,,,,,,,,,,,,,,,,,,,,,,,,,,,,,,,,,,,,,,,,,,,,,,,,,,,,,,,
,,61082411ae20078aaf317d35,2024-02-19_02h16.00.110,kallum_motion_pilot,2023.2.2,Win32,59.52380952,61082411ae20078aaf317d35,65d2b6c8f2eece985d8e374c,65d2b9c7901b20510b57917b,0.0461,0.0461,1,55,217,94,1,eightsix,,,,,,,,,,,,,,,,,,,,,,,,,,,,,,,,,,,,,,,,,,,,,,,,,,,,,,,,,,,,,,,,,,,,,,,,,,,,,,,,,,,,,,,,,,,,,,,,,,,,,,,,,,,,,,,,,,,,,,,,,,,,,,,,,,,,,,,,,
,,61082411ae20078aaf317d35,2024-02-19_02h16.00.110,kallum_motion_pilot,2023.2.2,Win32,59.52380952,61082411ae20078aaf317d35,65d2b6c8f2eece985d8e374c,65d2b9c7901b20510b57917b,0.0462,0.0462,1,56,218,70,1,fourtwo,,,,,,,,,,,,,,,,,,,,,,,,,,,,,,,,,,,,,,,,,,,,,,,,,,,,,,,,,,,,,,,,,,,,,,,,,,,,,,,,,,,,,,,,,,,,,,,,,,,,,,,,,,,,,,,,,,,,,,,,,,,,,,,,,,,,,,,,,
,,61082411ae20078aaf317d35,2024-02-19_02h16.00.110,kallum_motion_pilot,2023.2.2,Win32,59.52380952,61082411ae20078aaf317d35,65d2b6c8f2eece985d8e374c,65d2b9c7901b20510b57917b,0.0462,0.0464,1,57,219,153,1,fiveseven,,,,,,,,,,,,,,,,,,,,,,,,,,,,,,,,,,,,,,,,,,,,,,,,,,,,,,,,,,,,,,,,,,,,,,,,,,,,,,,,,,,,,,,,,,,,,,,,,,,,,,,,,,,,,,,,,,,,,,,,,,,,,,,,,,,,,,,,,
,,61082411ae20078aaf317d35,2024-02-19_02h16.00.110,kallum_motion_pilot,2023.2.2,Win32,59.52380952,61082411ae20078aaf317d35,65d2b6c8f2eece985d8e374c,65d2b9c7901b20510b57917b,0.0465,0.0465,1,58,220,0,1,onetwo,,,,,,,,,,,,,,,,,,,,,,,,,,,,,,,,,,,,,,,,,,,,,,,,,,,,,,,,,,,,,,,,,,,,,,,,,,,,,,,,,,,,,,,,,,,,,,,,,,,,,,,,,,,,,,,,,,,,,,,,,,,,,,,,,,,,,,,,,
,,61082411ae20078aaf317d35,2024-02-19_02h16.00.110,kallum_motion_pilot,2023.2.2,Win32,59.52380952,61082411ae20078aaf317d35,65d2b6c8f2eece985d8e374c,65d2b9c7901b20510b57917b,0.0465,0.0467,1,59,221,137,1,fiveseven,,,,,,,,,,,,,,,,,,,,,,,,,,,,,,,,,,,,,,,,,,,,,,,,,,,,,,,,,,,,,,,,,,,,,,,,,,,,,,,,,,,,,,,,,,,,,,,,,,,,,,,,,,,,,,,,,,,,,,,,,,,,,,,,,,,,,,,,,
,,61082411ae20078aaf317d35,2024-02-19_02h16.00.110,kallum_motion_pilot,2023.2.2,Win32,59.52380952,61082411ae20078aaf317d35,65d2b6c8f2eece985d8e374c,65d2b9c7901b20510b57917b,0.0467,0.0467,1,60,222,117,1,seveneight,,,,,,,,,,,,,,,,,,,,,,,,,,,,,,,,,,,,,,,,,,,,,,,,,,,,,,,,,,,,,,,,,,,,,,,,,,,,,,,,,,,,,,,,,,,,,,,,,,,,,,,,,,,,,,,,,,,,,,,,,,,,,,,,,,,,,,,,,
,,61082411ae20078aaf317d35,2024-02-19_02h16.00.110,kallum_motion_pilot,2023.2.2,Win32,59.52380952,61082411ae20078aaf317d35,65d2b6c8f2eece985d8e374c,65d2b9c7901b20510b57917b,0.0468,0.0469,1,61,223,47,1,fourthree,,,,,,,,,,,,,,,,,,,,,,,,,,,,,,,,,,,,,,,,,,,,,,,,,,,,,,,,,,,,,,,,,,,,,,,,,,,,,,,,,,,,,,,,,,,,,,,,,,,,,,,,,,,,,,,,,,,,,,,,,,,,,,,,,,,,,,,,,
,,61082411ae20078aaf317d35,2024-02-19_02h16.00.110,kallum_motion_pilot,2023.2.2,Win32,59.52380952,61082411ae20078aaf317d35,65d2b6c8f2eece985d8e374c,65d2b9c7901b20510b57917b,0.0469,0.047,1,62,224,23,1,fourthree,,,,,,,,,,,,,,,,,,,,,,,,,,,,,,,,,,,,,,,,,,,,,,,,,,,,,,,,,,,,,,,,,,,,,,,,,,,,,,,,,,,,,,,,,,,,,,,,,,,,,,,,,,,,,,,,,,,,,,,,,,,,,,,,,,,,,,,,,
,,61082411ae20078aaf317d35,2024-02-19_02h16.00.110,kallum_motion_pilot,2023.2.2,Win32,59.52380952,61082411ae20078aaf317d35,65d2b6c8f2eece985d8e374c,65d2b9c7901b20510b57917b,0.0471,0.0471,1,63,225,58,1,twoone,,,,,,,,,,,,,,,,,,,,,,,,,,,,,,,,,,,,,,,,,,,,,,,,,,,,,,,,,,,,,,,,,,,,,,,,,,,,,,,,,,,,,,,,,,,,,,,,,,,,,,,,,,,,,,,,,,,,,,,,,,,,,,,,,,,,,,,,,
,,61082411ae20078aaf317d35,2024-02-19_02h16.00.110,kallum_motion_pilot,2023.2.2,Win32,59.52380952,61082411ae20078aaf317d35,65d2b6c8f2eece985d8e374c,65d2b9c7901b20510b57917b,0.0472,0.0473,1,64,226,132,1,sevenfive,,,,,,,,,,,,,,,,,,,,,,,,,,,,,,,,,,,,,,,,,,,,,,,,,,,,,,,,,,,,,,,,,,,,,,,,,,,,,,,,,,,,,,,,,,,,,,,,,,,,,,,,,,,,,,,,,,,,,,,,,,,,,,,,,,,,,,,,,
,,61082411ae20078aaf317d35,2024-02-19_02h16.00.110,kallum_motion_pilot,2023.2.2,Win32,59.52380952,61082411ae20078aaf317d35,65d2b6c8f2eece985d8e374c,65d2b9c7901b20510b57917b,0.0473,0.0474,1,65,227,21,1,threefour,,,,,,,,,,,,,,,,,,,,,,,,,,,,,,,,,,,,,,,,,,,,,,,,,,,,,,,,,,,,,,,,,,,,,,,,,,,,,,,,,,,,,,,,,,,,,,,,,,,,,,,,,,,,,,,,,,,,,,,,,,,,,,,,,,,,,,,,,
,,61082411ae20078aaf317d35,2024-02-19_02h16.00.110,kallum_motion_pilot,2023.2.2,Win32,59.52380952,61082411ae20078aaf317d35,65d2b6c8f2eece985d8e374c,65d2b9c7901b20510b57917b,0.0475,0.0476,1,66,228,10,1,twoone,,,,,,,,,,,,,,,,,,,,,,,,,,,,,,,,,,,,,,,,,,,,,,,,,,,,,,,,,,,,,,,,,,,,,,,,,,,,,,,,,,,,,,,,,,,,,,,,,,,,,,,,,,,,,,,,,,,,,,,,,,,,,,,,,,,,,,,,,
,,61082411ae20078aaf317d35,2024-02-19_02h16.00.110,kallum_motion_pilot,2023.2.2,Win32,59.52380952,61082411ae20078aaf317d35,65d2b6c8f2eece985d8e374c,65d2b9c7901b20510b57917b,0.0476,0.0476,1,67,229,32,1,onetwo,,,,,,,,,,,,,,,,,,,,,,,,,,,,,,,,,,,,,,,,,,,,,,,,,,,,,,,,,,,,,,,,,,,,,,,,,,,,,,,,,,,,,,,,,,,,,,,,,,,,,,,,,,,,,,,,,,,,,,,,,,,,,,,,,,,,,,,,,
,,61082411ae20078aaf317d35,2024-02-19_02h16.00.110,kallum_motion_pilot,2023.2.2,Win32,59.52380952,61082411ae20078aaf317d35,65d2b6c8f2eece985d8e374c,65d2b9c7901b20510b57917b,0.0477,0.0478,1,68,230,92,1,sevenfive,,,,,,,,,,,,,,,,,,,,,,,,,,,,,,,,,,,,,,,,,,,,,,,,,,,,,,,,,,,,,,,,,,,,,,,,,,,,,,,,,,,,,,,,,,,,,,,,,,,,,,,,,,,,,,,,,,,,,,,,,,,,,,,,,,,,,,,,,
,,61082411ae20078aaf317d35,2024-02-19_02h16.00.110,kallum_motion_pilot,2023.2.2,Win32,59.52380952,61082411ae20078aaf317d35,65d2b6c8f2eece985d8e374c,65d2b9c7901b20510b57917b,0.0478,0.0479,1,69,231,115,1,sixeight,,,,,,,,,,,,,,,,,,,,,,,,,,,,,,,,,,,,,,,,,,,,,,,,,,,,,,,,,,,,,,,,,,,,,,,,,,,,,,,,,,,,,,,,,,,,,,,,,,,,,,,,,,,,,,,,,,,,,,,,,,,,,,,,,,,,,,,,,
,,61082411ae20078aaf317d35,2024-02-19_02h16.00.110,kallum_motion_pilot,2023.2.2,Win32,59.52380952,61082411ae20078aaf317d35,65d2b6c8f2eece985d8e374c,65d2b9c7901b20510b57917b,0.048,0.0481,1,70,232,84,1,sevenfive,,,,,,,,,,,,,,,,,,,,,,,,,,,,,,,,,,,,,,,,,,,,,,,,,,,,,,,,,,,,,,,,,,,,,,,,,,,,,,,,,,,,,,,,,,,,,,,,,,,,,,,,,,,,,,,,,,,,,,,,,,,,,,,,,,,,,,,,,
,,61082411ae20078aaf317d35,2024-02-19_02h16.00.110,kallum_motion_pilot,2023.2.2,Win32,59.52380952,61082411ae20078aaf317d35,65d2b6c8f2eece985d8e374c,65d2b9c7901b20510b57917b,0.0481,0.0481,1,71,233,145,1,fiveseven,,,,,,,,,,,,,,,,,,,,,,,,,,,,,,,,,,,,,,,,,,,,,,,,,,,,,,,,,,,,,,,,,,,,,,,,,,,,,,,,,,,,,,,,,,,,,,,,,,,,,,,,,,,,,,,,,,,,,,,,,,,,,,,,,,,,,,,,,
,,61082411ae20078aaf317d35,2024-02-19_02h16.00.110,kallum_motion_pilot,2023.2.2,Win32,59.52380952,61082411ae20078aaf317d35,65d2b6c8f2eece985d8e374c,65d2b9c7901b20510b57917b,0.0482,0.0482,1,72,234,130,1,sixfive,,,,,,,,,,,,,,,,,,,,,,,,,,,,,,,,,,,,,,,,,,,,,,,,,,,,,,,,,,,,,,,,,,,,,,,,,,,,,,,,,,,,,,,,,,,,,,,,,,,,,,,,,,,,,,,,,,,,,,,,,,,,,,,,,,,,,,,,,
,,61082411ae20078aaf317d35,2024-02-19_02h16.00.110,kallum_motion_pilot,2023.2.2,Win32,59.52380952,61082411ae20078aaf317d35,65d2b6c8f2eece985d8e374c,65d2b9c7901b20510b57917b,0.0484,0.0485,1,73,235,127,1,eightseven,,,,,,,,,,,,,,,,,,,,,,,,,,,,,,,,,,,,,,,,,,,,,,,,,,,,,,,,,,,,,,,,,,,,,,,,,,,,,,,,,,,,,,,,,,,,,,,,,,,,,,,,,,,,,,,,,,,,,,,,,,,,,,,,,,,,,,,,,
,,61082411ae20078aaf317d35,2024-02-19_02h16.00.110,kallum_motion_pilot,2023.2.2,Win32,59.52380952,61082411ae20078aaf317d35,65d2b6c8f2eece985d8e374c,65d2b9c7901b20510b57917b,0.0485,0.0485,1,74,236,28,1,threeone,,,,,,,,,,,,,,,,,,,,,,,,,,,,,,,,,,,,,,,,,,,,,,,,,,,,,,,,,,,,,,,,,,,,,,,,,,,,,,,,,,,,,,,,,,,,,,,,,,,,,,,,,,,,,,,,,,,,,,,,,,,,,,,,,,,,,,,,,
,,61082411ae20078aaf317d35,2024-02-19_02h16.00.110,kallum_motion_pilot,2023.2.2,Win32,59.52380952,61082411ae20078aaf317d35,65d2b6c8f2eece985d8e374c,65d2b9c7901b20510b57917b,0.0486,0.0487,1,75,237,9,1,onethree,,,,,,,,,,,,,,,,,,,,,,,,,,,,,,,,,,,,,,,,,,,,,,,,,,,,,,,,,,,,,,,,,,,,,,,,,,,,,,,,,,,,,,,,,,,,,,,,,,,,,,,,,,,,,,,,,,,,,,,,,,,,,,,,,,,,,,,,,
,,61082411ae20078aaf317d35,2024-02-19_02h16.00.110,kallum_motion_pilot,2023.2.2,Win32,59.52380952,61082411ae20078aaf317d35,65d2b6c8f2eece985d8e374c,65d2b9c7901b20510b57917b,0.0487,0.0488,1,76,238,158,1,eightsix,,,,,,,,,,,,,,,,,,,,,,,,,,,,,,,,,,,,,,,,,,,,,,,,,,,,,,,,,,,,,,,,,,,,,,,,,,,,,,,,,,,,,,,,,,,,,,,,,,,,,,,,,,,,,,,,,,,,,,,,,,,,,,,,,,,,,,,,,
,,61082411ae20078aaf317d35,2024-02-19_02h16.00.110,kallum_motion_pilot,2023.2.2,Win32,59.52380952,61082411ae20078aaf317d35,65d2b6c8f2eece985d8e374c,65d2b9c7901b20510b57917b,0.0489,0.049,1,77,239,44,1,threeone,,,,,,,,,,,,,,,,,,,,,,,,,,,,,,,,,,,,,,,,,,,,,,,,,,,,,,,,,,,,,,,,,,,,,,,,,,,,,,,,,,,,,,,,,,,,,,,,,,,,,,,,,,,,,,,,,,,,,,,,,,,,,,,,,,,,,,,,,
,,61082411ae20078aaf317d35,2024-02-19_02h16.00.110,kallum_motion_pilot,2023.2.2,Win32,59.52380952,61082411ae20078aaf317d35,65d2b6c8f2eece985d8e374c,65d2b9c7901b20510b57917b,0.049,0.049,1,78,240,27,1,twofour,,,,,,,,,,,,,,,,,,,,,,,,,,,,,,,,,,,,,,,,,,,,,,,,,,,,,,,,,,,,,,,,,,,,,,,,,,,,,,,,,,,,,,,,,,,,,,,,,,,,,,,,,,,,,,,,,,,,,,,,,,,,,,,,,,,,,,,,,
,,61082411ae20078aaf317d35,2024-02-19_02h16.00.110,kallum_motion_pilot,2023.2.2,Win32,59.52380952,61082411ae20078aaf317d35,65d2b6c8f2eece985d8e374c,65d2b9c7901b20510b57917b,0.0491,0.0492,1,79,241,26,1,twoone,,,,,,,,,,,,,,,,,,,,,,,,,,,,,,,,,,,,,,,,,,,,,,,,,,,,,,,,,,,,,,,,,,,,,,,,,,,,,,,,,,,,,,,,,,,,,,,,,,,,,,,,,,,,,,,,,,,,,,,,,,,,,,,,,,,,,,,,,
,,61082411ae20078aaf317d35,2024-02-19_02h16.00.110,kallum_motion_pilot,2023.2.2,Win32,59.52380952,61082411ae20078aaf317d35,65d2b6c8f2eece985d8e374c,65d2b9c7901b20510b57917b,0.0492,0.0493,1,80,242,5,1,threefour,,,,,,,,,,,,,,,,,,,,,,,,,,,,,,,,,,,,,,,,,,,,,,,,,,,,,,,,,,,,,,,,,,,,,,,,,,,,,,,,,,,,,,,,,,,,,,,,,,,,,,,,,,,,,,,,,,,,,,,,,,,,,,,,,,,,,,,,,
,,61082411ae20078aaf317d35,2024-02-19_02h16.00.110,kallum_motion_pilot,2023.2.2,Win32,59.52380952,61082411ae20078aaf317d35,65d2b6c8f2eece985d8e374c,65d2b9c7901b20510b57917b,0.0493,0.0494,1,81,243,61,1,threefour,,,,,,,,,,,,,,,,,,,,,,,,,,,,,,,,,,,,,,,,,,,,,,,,,,,,,,,,,,,,,,,,,,,,,,,,,,,,,,,,,,,,,,,,,,,,,,,,,,,,,,,,,,,,,,,,,,,,,,,,,,,,,,,,,,,,,,,,,
,,61082411ae20078aaf317d35,2024-02-19_02h16.00.110,kallum_motion_pilot,2023.2.2,Win32,59.52380952,61082411ae20078aaf317d35,65d2b6c8f2eece985d8e374c,65d2b9c7901b20510b57917b,0.0495,0.0496,1,82,244,57,1,onethree,,,,,,,,,,,,,,,,,,,,,,,,,,,,,,,,,,,,,,,,,,,,,,,,,,,,,,,,,,,,,,,,,,,,,,,,,,,,,,,,,,,,,,,,,,,,,,,,,,,,,,,,,,,,,,,,,,,,,,,,,,,,,,,,,,,,,,,,,
,,61082411ae20078aaf317d35,2024-02-19_02h16.00.110,kallum_motion_pilot,2023.2.2,Win32,59.52380952,61082411ae20078aaf317d35,65d2b6c8f2eece985d8e374c,65d2b9c7901b20510b57917b,0.0496,0.0496,1,83,245,65,1,onethree,,,,,,,,,,,,,,,,,,,,,,,,,,,,,,,,,,,,,,,,,,,,,,,,,,,,,,,,,,,,,,,,,,,,,,,,,,,,,,,,,,,,,,,,,,,,,,,,,,,,,,,,,,,,,,,,,,,,,,,,,,,,,,,,,,,,,,,,,
,,61082411ae20078aaf317d35,2024-02-19_02h16.00.110,kallum_motion_pilot,2023.2.2,Win32,59.52380952,61082411ae20078aaf317d35,65d2b6c8f2eece985d8e374c,65d2b9c7901b20510b57917b,0.0497,0.0498,1,84,246,85,1,seveneight,,,,,,,,,,,,,,,,,,,,,,,,,,,,,,,,,,,,,,,,,,,,,,,,,,,,,,,,,,,,,,,,,,,,,,,,,,,,,,,,,,,,,,,,,,,,,,,,,,,,,,,,,,,,,,,,,,,,,,,,,,,,,,,,,,,,,,,,,
,,61082411ae20078aaf317d35,2024-02-19_02h16.00.110,kallum_motion_pilot,2023.2.2,Win32,59.52380952,61082411ae20078aaf317d35,65d2b6c8f2eece985d8e374c,65d2b9c7901b20510b57917b,0.0499,0.05,1,85,247,76,1,threeone,,,,,,,,,,,,,,,,,,,,,,,,,,,,,,,,,,,,,,,,,,,,,,,,,,,,,,,,,,,,,,,,,,,,,,,,,,,,,,,,,,,,,,,,,,,,,,,,,,,,,,,,,,,,,,,,,,,,,,,,,,,,,,,,,,,,,,,,,
,,61082411ae20078aaf317d35,2024-02-19_02h16.00.110,kallum_motion_pilot,2023.2.2,Win32,59.52380952,61082411ae20078aaf317d35,65d2b6c8f2eece985d8e374c,65d2b9c7901b20510b57917b,0.0501,0.0502,1,86,248,56,1,onetwo,,,,,,,,,,,,,,,,,,,,,,,,,,,,,,,,,,,,,,,,,,,,,,,,,,,,,,,,,,,,,,,,,,,,,,,,,,,,,,,,,,,,,,,,,,,,,,,,,,,,,,,,,,,,,,,,,,,,,,,,,,,,,,,,,,,,,,,,,
,,61082411ae20078aaf317d35,2024-02-19_02h16.00.110,kallum_motion_pilot,2023.2.2,Win32,59.52380952,61082411ae20078aaf317d35,65d2b6c8f2eece985d8e374c,65d2b9c7901b20510b57917b,0.0502,0.0503,1,87,249,98,1,sixfive,,,,,,,,,,,,,,,,,,,,,,,,,,,,,,,,,,,,,,,,,,,,,,,,,,,,,,,,,,,,,,,,,,,,,,,,,,,,,,,,,,,,,,,,,,,,,,,,,,,,,,,,,,,,,,,,,,,,,,,,,,,,,,,,,,,,,,,,,
,,61082411ae20078aaf317d35,2024-02-19_02h16.00.110,kallum_motion_pilot,2023.2.2,Win32,59.52380952,61082411ae20078aaf317d35,65d2b6c8f2eece985d8e374c,65d2b9c7901b20510b57917b,0.0504,0.0505,1,88,250,46,1,fourtwo,,,,,,,,,,,,,,,,,,,,,,,,,,,,,,,,,,,,,,,,,,,,,,,,,,,,,,,,,,,,,,,,,,,,,,,,,,,,,,,,,,,,,,,,,,,,,,,,,,,,,,,,,,,,,,,,,,,,,,,,,,,,,,,,,,,,,,,,,
,,61082411ae20078aaf317d35,2024-02-19_02h16.00.110,kallum_motion_pilot,2023.2.2,Win32,59.52380952,61082411ae20078aaf317d35,65d2b6c8f2eece985d8e374c,65d2b9c7901b20510b57917b,0.0506,0.0507,1,89,251,110,1,eightsix,,,,,,,,,,,,,,,,,,,,,,,,,,,,,,,,,,,,,,,,,,,,,,,,,,,,,,,,,,,,,,,,,,,,,,,,,,,,,,,,,,,,,,,,,,,,,,,,,,,,,,,,,,,,,,,,,,,,,,,,,,,,,,,,,,,,,,,,,
,,61082411ae20078aaf317d35,2024-02-19_02h16.00.110,kallum_motion_pilot,2023.2.2,Win32,59.52380952,61082411ae20078aaf317d35,65d2b6c8f2eece985d8e374c,65d2b9c7901b20510b57917b,0.0508,0.0508,1,90,252,142,1,eightsix,,,,,,,,,,,,,,,,,,,,,,,,,,,,,,,,,,,,,,,,,,,,,,,,,,,,,,,,,,,,,,,,,,,,,,,,,,,,,,,,,,,,,,,,,,,,,,,,,,,,,,,,,,,,,,,,,,,,,,,,,,,,,,,,,,,,,,,,,
,,61082411ae20078aaf317d35,2024-02-19_02h16.00.110,kallum_motion_pilot,2023.2.2,Win32,59.52380952,61082411ae20078aaf317d35,65d2b6c8f2eece985d8e374c,65d2b9c7901b20510b57917b,0.0509,0.0511,1,91,253,125,1,seveneight,,,,,,,,,,,,,,,,,,,,,,,,,,,,,,,,,,,,,,,,,,,,,,,,,,,,,,,,,,,,,,,,,,,,,,,,,,,,,,,,,,,,,,,,,,,,,,,,,,,,,,,,,,,,,,,,,,,,,,,,,,,,,,,,,,,,,,,,,
,,61082411ae20078aaf317d35,2024-02-19_02h16.00.110,kallum_motion_pilot,2023.2.2,Win32,59.52380952,61082411ae20078aaf317d35,65d2b6c8f2eece985d8e374c,65d2b9c7901b20510b57917b,0.0511,0.0512,1,92,254,30,1,fourtwo,,,,,,,,,,,,,,,,,,,,,,,,,,,,,,,,,,,,,,,,,,,,,,,,,,,,,,,,,,,,,,,,,,,,,,,,,,,,,,,,,,,,,,,,,,,,,,,,,,,,,,,,,,,,,,,,,,,,,,,,,,,,,,,,,,,,,,,,,
,,61082411ae20078aaf317d35,2024-02-19_02h16.00.110,kallum_motion_pilot,2023.2.2,Win32,59.52380952,61082411ae20078aaf317d35,65d2b6c8f2eece985d8e374c,65d2b9c7901b20510b57917b,0.0514,0.0515,1,93,255,71,1,fourthree,,,,,,,,,,,,,,,,,,,,,,,,,,,,,,,,,,,,,,,,,,,,,,,,,,,,,,,,,,,,,,,,,,,,,,,,,,,,,,,,,,,,,,,,,,,,,,,,,,,,,,,,,,,,,,,,,,,,,,,,,,,,,,,,,,,,,,,,,
,,61082411ae20078aaf317d35,2024-02-19_02h16.00.110,kallum_motion_pilot,2023.2.2,Win32,59.52380952,61082411ae20078aaf317d35,65d2b6c8f2eece985d8e374c,65d2b9c7901b20510b57917b,0.0516,0.0517,1,94,256,136,1,fivesix,,,,,,,,,,,,,,,,,,,,,,,,,,,,,,,,,,,,,,,,,,,,,,,,,,,,,,,,,,,,,,,,,,,,,,,,,,,,,,,,,,,,,,,,,,,,,,,,,,,,,,,,,,,,,,,,,,,,,,,,,,,,,,,,,,,,,,,,,
,,61082411ae20078aaf317d35,2024-02-19_02h16.00.110,kallum_motion_pilot,2023.2.2,Win32,59.52380952,61082411ae20078aaf317d35,65d2b6c8f2eece985d8e374c,65d2b9c7901b20510b57917b,0.0517,0.0518,1,95,257,69,1,threefour,,,,,,,,,,,,,,,,,,,,,,,,,,,,,,,,,,,,,,,,,,,,,,,,,,,,,,,,,,,,,,,,,,,,,,,,,,,,,,,,,,,,,,,,,,,,,,,,,,,,,,,,,,,,,,,,,,,,,,,,,,,,,,,,,,,,,,,,,
,,61082411ae20078aaf317d35,2024-02-19_02h16.00.110,kallum_motion_pilot,2023.2.2,Win32,59.52380952,61082411ae20078aaf317d35,65d2b6c8f2eece985d8e374c,65d2b9c7901b20510b57917b,0.0519,0.052,1,96,258,108,1,sevenfive,,,,,,,,,,,,,,,,,,,,,,,,,,,,,,,,,,,,,,,,,,,,,,,,,,,,,,,,,,,,,,,,,,,,,,,,,,,,,,,,,,,,,,,,,,,,,,,,,,,,,,,,,,,,,,,,,,,,,,,,,,,,,,,,,,,,,,,,,
,,61082411ae20078aaf317d35,2024-02-19_02h16.00.110,kallum_motion_pilot,2023.2.2,Win32,59.52380952,61082411ae20078aaf317d35,65d2b6c8f2eece985d8e374c,65d2b9c7901b20510b57917b,0.052,0.0521,1,97,259,159,1,eightseven,,,,,,,,,,,,,,,,,,,,,,,,,,,,,,,,,,,,,,,,,,,,,,,,,,,,,,,,,,,,,,,,,,,,,,,,,,,,,,,,,,,,,,,,,,,,,,,,,,,,,,,,,,,,,,,,,,,,,,,,,,,,,,,,,,,,,,,,,
,,61082411ae20078aaf317d35,2024-02-19_02h16.00.110,kallum_motion_pilot,2023.2.2,Win32,59.52380952,61082411ae20078aaf317d35,65d2b6c8f2eece985d8e374c,65d2b9c7901b20510b57917b,0.0523,0.0524,1,98,260,81,1,fiveseven,,,,,,,,,,,,,,,,,,,,,,,,,,,,,,,,,,,,,,,,,,,,,,,,,,,,,,,,,,,,,,,,,,,,,,,,,,,,,,,,,,,,,,,,,,,,,,,,,,,,,,,,,,,,,,,,,,,,,,,,,,,,,,,,,,,,,,,,,
,,61082411ae20078aaf317d35,2024-02-19_02h16.00.110,kallum_motion_pilot,2023.2.2,Win32,59.52380952,61082411ae20078aaf317d35,65d2b6c8f2eece985d8e374c,65d2b9c7901b20510b57917b,0.0526,0.0526,1,99,261,24,1,onetwo,,,,,,,,,,,,,,,,,,,,,,,,,,,,,,,,,,,,,,,,,,,,,,,,,,,,,,,,,,,,,,,,,,,,,,,,,,,,,,,,,,,,,,,,,,,,,,,,,,,,,,,,,,,,,,,,,,,,,,,,,,,,,,,,,,,,,,,,,
,,61082411ae20078aaf317d35,2024-02-19_02h16.00.110,kallum_motion_pilot,2023.2.2,Win32,59.52380952,61082411ae20078aaf317d35,65d2b6c8f2eece985d8e374c,65d2b9c7901b20510b57917b,0.0527,0.0528,1,100,262,15,1,fourthree,,,,,,,,,,,,,,,,,,,,,,,,,,,,,,,,,,,,,,,,,,,,,,,,,,,,,,,,,,,,,,,,,,,,,,,,,,,,,,,,,,,,,,,,,,,,,,,,,,,,,,,,,,,,,,,,,,,,,,,,,,,,,,,,,,,,,,,,,
,,61082411ae20078aaf317d35,2024-02-19_02h16.00.110,kallum_motion_pilot,2023.2.2,Win32,59.52380952,61082411ae20078aaf317d35,65d2b6c8f2eece985d8e374c,65d2b9c7901b20510b57917b,0.0529,0.0529,1,101,263,97,1,fiveseven,,,,,,,,,,,,,,,,,,,,,,,,,,,,,,,,,,,,,,,,,,,,,,,,,,,,,,,,,,,,,,,,,,,,,,,,,,,,,,,,,,,,,,,,,,,,,,,,,,,,,,,,,,,,,,,,,,,,,,,,,,,,,,,,,,,,,,,,,
,,61082411ae20078aaf317d35,2024-02-19_02h16.00.110,kallum_motion_pilot,2023.2.2,Win32,59.52380952,61082411ae20078aaf317d35,65d2b6c8f2eece985d8e374c,65d2b9c7901b20510b57917b,0.053,0.0531,1,102,264,104,1,fivesix,,,,,,,,,,,,,,,,,,,,,,,,,,,,,,,,,,,,,,,,,,,,,,,,,,,,,,,,,,,,,,,,,,,,,,,,,,,,,,,,,,,,,,,,,,,,,,,,,,,,,,,,,,,,,,,,,,,,,,,,,,,,,,,,,,,,,,,,,
,,61082411ae20078aaf317d35,2024-02-19_02h16.00.110,kallum_motion_pilot,2023.2.2,Win32,59.52380952,61082411ae20078aaf317d35,65d2b6c8f2eece985d8e374c,65d2b9c7901b20510b57917b,0.0532,0.0532,1,103,265,45,1,threefour,,,,,,,,,,,,,,,,,,,,,,,,,,,,,,,,,,,,,,,,,,,,,,,,,,,,,,,,,,,,,,,,,,,,,,,,,,,,,,,,,,,,,,,,,,,,,,,,,,,,,,,,,,,,,,,,,,,,,,,,,,,,,,,,,,,,,,,,,
,,61082411ae20078aaf317d35,2024-02-19_02h16.00.110,kallum_motion_pilot,2023.2.2,Win32,59.52380952,61082411ae20078aaf317d35,65d2b6c8f2eece985d8e374c,65d2b9c7901b20510b57917b,0.0533,0.0534,1,104,266,66,1,twoone,,,,,,,,,,,,,,,,,,,,,,,,,,,,,,,,,,,,,,,,,,,,,,,,,,,,,,,,,,,,,,,,,,,,,,,,,,,,,,,,,,,,,,,,,,,,,,,,,,,,,,,,,,,,,,,,,,,,,,,,,,,,,,,,,,,,,,,,,
,,61082411ae20078aaf317d35,2024-02-19_02h16.00.110,kallum_motion_pilot,2023.2.2,Win32,59.52380952,61082411ae20078aaf317d35,65d2b6c8f2eece985d8e374c,65d2b9c7901b20510b57917b,0.0535,0.0536,1,105,267,107,1,sixeight,,,,,,,,,,,,,,,,,,,,,,,,,,,,,,,,,,,,,,,,,,,,,,,,,,,,,,,,,,,,,,,,,,,,,,,,,,,,,,,,,,,,,,,,,,,,,,,,,,,,,,,,,,,,,,,,,,,,,,,,,,,,,,,,,,,,,,,,,
,,61082411ae20078aaf317d35,2024-02-19_02h16.00.110,kallum_motion_pilot,2023.2.2,Win32,59.52380952,61082411ae20078aaf317d35,65d2b6c8f2eece985d8e374c,65d2b9c7901b20510b57917b,0.0537,0.0537,1,106,268,12,1,threeone,,,,,,,,,,,,,,,,,,,,,,,,,,,,,,,,,,,,,,,,,,,,,,,,,,,,,,,,,,,,,,,,,,,,,,,,,,,,,,,,,,,,,,,,,,,,,,,,,,,,,,,,,,,,,,,,,,,,,,,,,,,,,,,,,,,,,,,,,
,,61082411ae20078aaf317d35,2024-02-19_02h16.00.110,kallum_motion_pilot,2023.2.2,Win32,59.52380952,61082411ae20078aaf317d35,65d2b6c8f2eece985d8e374c,65d2b9c7901b20510b57917b,0.0538,0.0538,1,107,269,135,1,eightseven,,,,,,,,,,,,,,,,,,,,,,,,,,,,,,,,,,,,,,,,,,,,,,,,,,,,,,,,,,,,,,,,,,,,,,,,,,,,,,,,,,,,,,,,,,,,,,,,,,,,,,,,,,,,,,,,,,,,,,,,,,,,,,,,,,,,,,,,,
,,61082411ae20078aaf317d35,2024-02-19_02h16.00.110,kallum_motion_pilot,2023.2.2,Win32,59.52380952,61082411ae20078aaf317d35,65d2b6c8f2eece985d8e374c,65d2b9c7901b20510b57917b,0.0539,0.054,1,108,270,42,1,twoone,,,,,,,,,,,,,,,,,,,,,,,,,,,,,,,,,,,,,,,,,,,,,,,,,,,,,,,,,,,,,,,,,,,,,,,,,,,,,,,,,,,,,,,,,,,,,,,,,,,,,,,,,,,,,,,,,,,,,,,,,,,,,,,,,,,,,,,,,
,,61082411ae20078aaf317d35,2024-02-19_02h16.00.110,kallum_motion_pilot,2023.2.2,Win32,59.52380952,61082411ae20078aaf317d35,65d2b6c8f2eece985d8e374c,65d2b9c7901b20510b57917b,0.054,0.054,1,109,271,73,1,onethree,,,,,,,,,,,,,,,,,,,,,,,,,,,,,,,,,,,,,,,,,,,,,,,,,,,,,,,,,,,,,,,,,,,,,,,,,,,,,,,,,,,,,,,,,,,,,,,,,,,,,,,,,,,,,,,,,,,,,,,,,,,,,,,,,,,,,,,,,
,,61082411ae20078aaf317d35,2024-02-19_02h16.00.110,kallum_motion_pilot,2023.2.2,Win32,59.52380952,61082411ae20078aaf317d35,65d2b6c8f2eece985d8e374c,65d2b9c7901b20510b57917b,0.0541,0.0542,1,110,272,160,1,fivesix,,,,,,,,,,,,,,,,,,,,,,,,,,,,,,,,,,,,,,,,,,,,,,,,,,,,,,,,,,,,,,,,,,,,,,,,,,,,,,,,,,,,,,,,,,,,,,,,,,,,,,,,,,,,,,,,,,,,,,,,,,,,,,,,,,,,,,,,,
,,61082411ae20078aaf317d35,2024-02-19_02h16.00.110,kallum_motion_pilot,2023.2.2,Win32,59.52380952,61082411ae20078aaf317d35,65d2b6c8f2eece985d8e374c,65d2b9c7901b20510b57917b,0.0542,0.0543,1,111,273,147,1,sixeight,,,,,,,,,,,,,,,,,,,,,,,,,,,,,,,,,,,,,,,,,,,,,,,,,,,,,,,,,,,,,,,,,,,,,,,,,,,,,,,,,,,,,,,,,,,,,,,,,,,,,,,,,,,,,,,,,,,,,,,,,,,,,,,,,,,,,,,,,
,,61082411ae20078aaf317d35,2024-02-19_02h16.00.110,kallum_motion_pilot,2023.2.2,Win32,59.52380952,61082411ae20078aaf317d35,65d2b6c8f2eece985d8e374c,65d2b9c7901b20510b57917b,0.0544,0.0544,1,112,274,141,1,seveneight,,,,,,,,,,,,,,,,,,,,,,,,,,,,,,,,,,,,,,,,,,,,,,,,,,,,,,,,,,,,,,,,,,,,,,,,,,,,,,,,,,,,,,,,,,,,,,,,,,,,,,,,,,,,,,,,,,,,,,,,,,,,,,,,,,,,,,,,,
,,61082411ae20078aaf317d35,2024-02-19_02h16.00.110,kallum_motion_pilot,2023.2.2,Win32,59.52380952,61082411ae20078aaf317d35,65d2b6c8f2eece985d8e374c,65d2b9c7901b20510b57917b,0.0545,0.0546,1,113,275,80,1,fivesix,,,,,,,,,,,,,,,,,,,,,,,,,,,,,,,,,,,,,,,,,,,,,,,,,,,,,,,,,,,,,,,,,,,,,,,,,,,,,,,,,,,,,,,,,,,,,,,,,,,,,,,,,,,,,,,,,,,,,,,,,,,,,,,,,,,,,,,,,
,,61082411ae20078aaf317d35,2024-02-19_02h16.00.110,kallum_motion_pilot,2023.2.2,Win32,59.52380952,61082411ae20078aaf317d35,65d2b6c8f2eece985d8e374c,65d2b9c7901b20510b57917b,0.0546,0.0546,1,114,276,129,1,fiveseven,,,,,,,,,,,,,,,,,,,,,,,,,,,,,,,,,,,,,,,,,,,,,,,,,,,,,,,,,,,,,,,,,,,,,,,,,,,,,,,,,,,,,,,,,,,,,,,,,,,,,,,,,,,,,,,,,,,,,,,,,,,,,,,,,,,,,,,,,
,,61082411ae20078aaf317d35,2024-02-19_02h16.00.110,kallum_motion_pilot,2023.2.2,Win32,59.52380952,61082411ae20078aaf317d35,65d2b6c8f2eece985d8e374c,65d2b9c7901b20510b57917b,0.0547,0.0548,1,115,277,121,1,fiveseven,,,,,,,,,,,,,,,,,,,,,,,,,,,,,,,,,,,,,,,,,,,,,,,,,,,,,,,,,,,,,,,,,,,,,,,,,,,,,,,,,,,,,,,,,,,,,,,,,,,,,,,,,,,,,,,,,,,,,,,,,,,,,,,,,,,,,,,,,
