startup.started,startup.stopped,Prolific ID*,date,expName,psychopyVersion,OS,frameRate,participant,study_id,session,stimpositions.started,stimpositions.stopped,hardcoded_stimulus_positions.thisRepN,hardcoded_stimulus_positions.thisTrialN,hardcoded_stimulus_positions.thisN,hardcoded_stimulus_positions.thisIndex,hardcoded_stimulus_positions.ran,StimulusPos,stimorientation.started,stimorientation.stopped,prac_stimorientation_import_loop.thisRepN,prac_stimorientation_import_loop.thisTrialN,prac_stimorientation_import_loop.thisN,prac_stimorientation_import_loop.thisIndex,prac_stimorientation_import_loop.ran,Stimorientation,welcome_instr.started,welcome_instr.stopped,key_resp.keys,key_resp.rt,key_resp.duration,response_steppedout_1.started,response_steppedout_1.stopped,key_resp_20.keys,key_resp_20.rt,key_resp_20.duration,response_steppedout_2.started,response_steppedout_2.stopped,key_resp_19.keys,key_resp_19.rt,key_resp_19.duration,stim_response_instr.started,stim_response_instr.stopped,key_resp_15.keys,key_resp_15.rt,key_resp_15.duration,direction_instr_2.started,direction_instr_2.stopped,key_resp_9.keys,key_resp_9.rt,key_resp_9.duration,instr_prac.started,instr_prac.stopped,key_resp_10.keys,key_resp_10.rt,key_resp_10.duration,Stim1_display_prac.started,Stim1_display_prac.stopped,Ecc,Circle1_ori,Circle2_ori,response_prac.started,similarity,response_time,response_prac.stopped,mouse_5.x,mouse_5.y,mouse_5.leftButton,mouse_5.midButton,mouse_5.rightButton,mouse_5.clicked_name,responseprac_feedback.started,responseprac_feedback.stopped,summary2_prac.started,summary2_prac.stopped,mouse_6.x,mouse_6.y,mouse_6.leftButton,mouse_6.midButton,mouse_6.rightButton,mouse_6.clicked_name,duringprac.thisRepN,duringprac.thisTrialN,duringprac.thisN,duringprac.thisIndex,duringprac.ran,begin.started,begin.stopped,key_resp_22.keys,key_resp_22.rt,key_resp_22.duration,Stim1_display.started,Stim1_display.stopped,circle1_ori,circle2_ori,circle1_SF,circle2_SF,response.started,response.stopped,mouse.x,mouse.y,mouse.leftButton,mouse.midButton,mouse.rightButton,mouse.clicked_name,trialnumber,double_pass.thisRepN,double_pass.thisTrialN,double_pass.thisN,double_pass.thisIndex,double_pass.ran,double_pass.order,main_trial.thisRepN,main_trial.thisTrialN,main_trial.thisN,main_trial.thisIndex,main_trial.ran,main_trial.order,Trial_Counter,Catch,Frequencies,response_2.started,response_2.stopped,mouse_2.x,mouse_2.y,mouse_2.leftButton,mouse_2.midButton,mouse_2.rightButton,mouse_2.clicked_name,special_trial.started,special_trial.stopped,catch_1.started,catch_1.stopped,mouse_3.x,mouse_3.y,mouse_3.leftButton,mouse_3.midButton,mouse_3.rightButton,catchresponse,catchnumber,response_time_catch,response_sum.started,response_sum.stopped,mouse_11.x,mouse_11.y,mouse_11.leftButton,mouse_11.midButton,mouse_11.rightButton,flip_presentation_sequence_for_double_pass.started,flip_presentation_sequence_for_double_pass.stopped,goodbye.started,goodbye.stopped,key_resp_3.keys,key_resp_3.rt,key_resp_3.duration
0.0006,0.0007,610c3fa9aa356c9ebde029b7,2024-02-18_20h13.55.581,kallum_motion_pilot,2023.2.2,Win32,144.9275362,610c3fa9aa356c9ebde029b7,65d2b6c8f2eece985d8e374c,65d2b948739cdfcf63afc37b,,,,,,,,,,,,,,,,,,,,,,,,,,,,,,,,,,,,,,,,,,,,,,,,,,,,,,,,,,,,,,,,,,,,,,,,,,,,,,,,,,,,,,,,,,,,,,,,,,,,,,,,,,,,,,,,,,,,,,,,,,,,,,,,,,,,,,,,,,,,,,,,,
,,610c3fa9aa356c9ebde029b7,2024-02-18_20h13.55.581,kallum_motion_pilot,2023.2.2,Win32,144.9275362,610c3fa9aa356c9ebde029b7,65d2b6c8f2eece985d8e374c,65d2b948739cdfcf63afc37b,0.0182,0.0184,0,0,0,109,1,seveneight,,,,,,,,,,,,,,,,,,,,,,,,,,,,,,,,,,,,,,,,,,,,,,,,,,,,,,,,,,,,,,,,,,,,,,,,,,,,,,,,,,,,,,,,,,,,,,,,,,,,,,,,,,,,,,,,,,,,,,,,,,,,,,,,,,,,,,,,,
,,610c3fa9aa356c9ebde029b7,2024-02-18_20h13.55.581,kallum_motion_pilot,2023.2.2,Win32,144.9275362,610c3fa9aa356c9ebde029b7,65d2b6c8f2eece985d8e374c,65d2b948739cdfcf63afc37b,0.0185,0.0185,0,1,1,76,1,threeone,,,,,,,,,,,,,,,,,,,,,,,,,,,,,,,,,,,,,,,,,,,,,,,,,,,,,,,,,,,,,,,,,,,,,,,,,,,,,,,,,,,,,,,,,,,,,,,,,,,,,,,,,,,,,,,,,,,,,,,,,,,,,,,,,,,,,,,,,
,,610c3fa9aa356c9ebde029b7,2024-02-18_20h13.55.581,kallum_motion_pilot,2023.2.2,Win32,144.9275362,610c3fa9aa356c9ebde029b7,65d2b6c8f2eece985d8e374c,65d2b948739cdfcf63afc37b,0.0186,0.0186,0,2,2,135,1,eightseven,,,,,,,,,,,,,,,,,,,,,,,,,,,,,,,,,,,,,,,,,,,,,,,,,,,,,,,,,,,,,,,,,,,,,,,,,,,,,,,,,,,,,,,,,,,,,,,,,,,,,,,,,,,,,,,,,,,,,,,,,,,,,,,,,,,,,,,,,
,,610c3fa9aa356c9ebde029b7,2024-02-18_20h13.55.581,kallum_motion_pilot,2023.2.2,Win32,144.9275362,610c3fa9aa356c9ebde029b7,65d2b6c8f2eece985d8e374c,65d2b948739cdfcf63afc37b,0.0187,0.0187,0,3,3,58,1,twoone,,,,,,,,,,,,,,,,,,,,,,,,,,,,,,,,,,,,,,,,,,,,,,,,,,,,,,,,,,,,,,,,,,,,,,,,,,,,,,,,,,,,,,,,,,,,,,,,,,,,,,,,,,,,,,,,,,,,,,,,,,,,,,,,,,,,,,,,,
,,610c3fa9aa356c9ebde029b7,2024-02-18_20h13.55.581,kallum_motion_pilot,2023.2.2,Win32,144.9275362,610c3fa9aa356c9ebde029b7,65d2b6c8f2eece985d8e374c,65d2b948739cdfcf63afc37b,0.0189,0.0189,0,4,4,64,1,onetwo,,,,,,,,,,,,,,,,,,,,,,,,,,,,,,,,,,,,,,,,,,,,,,,,,,,,,,,,,,,,,,,,,,,,,,,,,,,,,,,,,,,,,,,,,,,,,,,,,,,,,,,,,,,,,,,,,,,,,,,,,,,,,,,,,,,,,,,,,
,,610c3fa9aa356c9ebde029b7,2024-02-18_20h13.55.581,kallum_motion_pilot,2023.2.2,Win32,144.9275362,610c3fa9aa356c9ebde029b7,65d2b6c8f2eece985d8e374c,65d2b948739cdfcf63afc37b,0.019,0.019,0,5,5,105,1,fiveseven,,,,,,,,,,,,,,,,,,,,,,,,,,,,,,,,,,,,,,,,,,,,,,,,,,,,,,,,,,,,,,,,,,,,,,,,,,,,,,,,,,,,,,,,,,,,,,,,,,,,,,,,,,,,,,,,,,,,,,,,,,,,,,,,,,,,,,,,,
,,610c3fa9aa356c9ebde029b7,2024-02-18_20h13.55.581,kallum_motion_pilot,2023.2.2,Win32,144.9275362,610c3fa9aa356c9ebde029b7,65d2b6c8f2eece985d8e374c,65d2b948739cdfcf63afc37b,0.0192,0.0192,0,6,6,75,1,twofour,,,,,,,,,,,,,,,,,,,,,,,,,,,,,,,,,,,,,,,,,,,,,,,,,,,,,,,,,,,,,,,,,,,,,,,,,,,,,,,,,,,,,,,,,,,,,,,,,,,,,,,,,,,,,,,,,,,,,,,,,,,,,,,,,,,,,,,,,
,,610c3fa9aa356c9ebde029b7,2024-02-18_20h13.55.581,kallum_motion_pilot,2023.2.2,Win32,144.9275362,610c3fa9aa356c9ebde029b7,65d2b6c8f2eece985d8e374c,65d2b948739cdfcf63afc37b,0.0193,0.0193,0,7,7,28,1,threeone,,,,,,,,,,,,,,,,,,,,,,,,,,,,,,,,,,,,,,,,,,,,,,,,,,,,,,,,,,,,,,,,,,,,,,,,,,,,,,,,,,,,,,,,,,,,,,,,,,,,,,,,,,,,,,,,,,,,,,,,,,,,,,,,,,,,,,,,,
,,610c3fa9aa356c9ebde029b7,2024-02-18_20h13.55.581,kallum_motion_pilot,2023.2.2,Win32,144.9275362,610c3fa9aa356c9ebde029b7,65d2b6c8f2eece985d8e374c,65d2b948739cdfcf63afc37b,0.0195,0.0196,0,8,8,9,1,onethree,,,,,,,,,,,,,,,,,,,,,,,,,,,,,,,,,,,,,,,,,,,,,,,,,,,,,,,,,,,,,,,,,,,,,,,,,,,,,,,,,,,,,,,,,,,,,,,,,,,,,,,,,,,,,,,,,,,,,,,,,,,,,,,,,,,,,,,,,
,,610c3fa9aa356c9ebde029b7,2024-02-18_20h13.55.581,kallum_motion_pilot,2023.2.2,Win32,144.9275362,610c3fa9aa356c9ebde029b7,65d2b6c8f2eece985d8e374c,65d2b948739cdfcf63afc37b,0.0196,0.0196,0,9,9,87,1,eightseven,,,,,,,,,,,,,,,,,,,,,,,,,,,,,,,,,,,,,,,,,,,,,,,,,,,,,,,,,,,,,,,,,,,,,,,,,,,,,,,,,,,,,,,,,,,,,,,,,,,,,,,,,,,,,,,,,,,,,,,,,,,,,,,,,,,,,,,,,
,,610c3fa9aa356c9ebde029b7,2024-02-18_20h13.55.581,kallum_motion_pilot,2023.2.2,Win32,144.9275362,610c3fa9aa356c9ebde029b7,65d2b6c8f2eece985d8e374c,65d2b948739cdfcf63afc37b,0.0197,0.0198,0,10,10,72,1,onetwo,,,,,,,,,,,,,,,,,,,,,,,,,,,,,,,,,,,,,,,,,,,,,,,,,,,,,,,,,,,,,,,,,,,,,,,,,,,,,,,,,,,,,,,,,,,,,,,,,,,,,,,,,,,,,,,,,,,,,,,,,,,,,,,,,,,,,,,,,
,,610c3fa9aa356c9ebde029b7,2024-02-18_20h13.55.581,kallum_motion_pilot,2023.2.2,Win32,144.9275362,610c3fa9aa356c9ebde029b7,65d2b6c8f2eece985d8e374c,65d2b948739cdfcf63afc37b,0.0198,0.0198,0,11,11,38,1,fourtwo,,,,,,,,,,,,,,,,,,,,,,,,,,,,,,,,,,,,,,,,,,,,,,,,,,,,,,,,,,,,,,,,,,,,,,,,,,,,,,,,,,,,,,,,,,,,,,,,,,,,,,,,,,,,,,,,,,,,,,,,,,,,,,,,,,,,,,,,,
,,610c3fa9aa356c9ebde029b7,2024-02-18_20h13.55.581,kallum_motion_pilot,2023.2.2,Win32,144.9275362,610c3fa9aa356c9ebde029b7,65d2b6c8f2eece985d8e374c,65d2b948739cdfcf63afc37b,0.0198,0.0198,0,12,12,44,1,threeone,,,,,,,,,,,,,,,,,,,,,,,,,,,,,,,,,,,,,,,,,,,,,,,,,,,,,,,,,,,,,,,,,,,,,,,,,,,,,,,,,,,,,,,,,,,,,,,,,,,,,,,,,,,,,,,,,,,,,,,,,,,,,,,,,,,,,,,,,
,,610c3fa9aa356c9ebde029b7,2024-02-18_20h13.55.581,kallum_motion_pilot,2023.2.2,Win32,144.9275362,610c3fa9aa356c9ebde029b7,65d2b6c8f2eece985d8e374c,65d2b948739cdfcf63afc37b,0.02,0.02,0,13,13,52,1,threeone,,,,,,,,,,,,,,,,,,,,,,,,,,,,,,,,,,,,,,,,,,,,,,,,,,,,,,,,,,,,,,,,,,,,,,,,,,,,,,,,,,,,,,,,,,,,,,,,,,,,,,,,,,,,,,,,,,,,,,,,,,,,,,,,,,,,,,,,,
,,610c3fa9aa356c9ebde029b7,2024-02-18_20h13.55.581,kallum_motion_pilot,2023.2.2,Win32,144.9275362,610c3fa9aa356c9ebde029b7,65d2b6c8f2eece985d8e374c,65d2b948739cdfcf63afc37b,0.02,0.02,0,14,14,119,1,eightseven,,,,,,,,,,,,,,,,,,,,,,,,,,,,,,,,,,,,,,,,,,,,,,,,,,,,,,,,,,,,,,,,,,,,,,,,,,,,,,,,,,,,,,,,,,,,,,,,,,,,,,,,,,,,,,,,,,,,,,,,,,,,,,,,,,,,,,,,,
,,610c3fa9aa356c9ebde029b7,2024-02-18_20h13.55.581,kallum_motion_pilot,2023.2.2,Win32,144.9275362,610c3fa9aa356c9ebde029b7,65d2b6c8f2eece985d8e374c,65d2b948739cdfcf63afc37b,0.0201,0.0201,0,15,15,57,1,onethree,,,,,,,,,,,,,,,,,,,,,,,,,,,,,,,,,,,,,,,,,,,,,,,,,,,,,,,,,,,,,,,,,,,,,,,,,,,,,,,,,,,,,,,,,,,,,,,,,,,,,,,,,,,,,,,,,,,,,,,,,,,,,,,,,,,,,,,,,
,,610c3fa9aa356c9ebde029b7,2024-02-18_20h13.55.581,kallum_motion_pilot,2023.2.2,Win32,144.9275362,610c3fa9aa356c9ebde029b7,65d2b6c8f2eece985d8e374c,65d2b948739cdfcf63afc37b,0.0201,0.0201,0,16,16,86,1,eightsix,,,,,,,,,,,,,,,,,,,,,,,,,,,,,,,,,,,,,,,,,,,,,,,,,,,,,,,,,,,,,,,,,,,,,,,,,,,,,,,,,,,,,,,,,,,,,,,,,,,,,,,,,,,,,,,,,,,,,,,,,,,,,,,,,,,,,,,,,
,,610c3fa9aa356c9ebde029b7,2024-02-18_20h13.55.581,kallum_motion_pilot,2023.2.2,Win32,144.9275362,610c3fa9aa356c9ebde029b7,65d2b6c8f2eece985d8e374c,65d2b948739cdfcf63afc37b,0.0202,0.0202,0,17,17,41,1,onethree,,,,,,,,,,,,,,,,,,,,,,,,,,,,,,,,,,,,,,,,,,,,,,,,,,,,,,,,,,,,,,,,,,,,,,,,,,,,,,,,,,,,,,,,,,,,,,,,,,,,,,,,,,,,,,,,,,,,,,,,,,,,,,,,,,,,,,,,,
,,610c3fa9aa356c9ebde029b7,2024-02-18_20h13.55.581,kallum_motion_pilot,2023.2.2,Win32,144.9275362,610c3fa9aa356c9ebde029b7,65d2b6c8f2eece985d8e374c,65d2b948739cdfcf63afc37b,0.0203,0.0203,0,18,18,54,1,fourtwo,,,,,,,,,,,,,,,,,,,,,,,,,,,,,,,,,,,,,,,,,,,,,,,,,,,,,,,,,,,,,,,,,,,,,,,,,,,,,,,,,,,,,,,,,,,,,,,,,,,,,,,,,,,,,,,,,,,,,,,,,,,,,,,,,,,,,,,,,
,,610c3fa9aa356c9ebde029b7,2024-02-18_20h13.55.581,kallum_motion_pilot,2023.2.2,Win32,144.9275362,610c3fa9aa356c9ebde029b7,65d2b6c8f2eece985d8e374c,65d2b948739cdfcf63afc37b,0.0203,0.0203,0,19,19,102,1,eightsix,,,,,,,,,,,,,,,,,,,,,,,,,,,,,,,,,,,,,,,,,,,,,,,,,,,,,,,,,,,,,,,,,,,,,,,,,,,,,,,,,,,,,,,,,,,,,,,,,,,,,,,,,,,,,,,,,,,,,,,,,,,,,,,,,,,,,,,,,
,,610c3fa9aa356c9ebde029b7,2024-02-18_20h13.55.581,kallum_motion_pilot,2023.2.2,Win32,144.9275362,610c3fa9aa356c9ebde029b7,65d2b6c8f2eece985d8e374c,65d2b948739cdfcf63afc37b,0.0204,0.0204,0,20,20,130,1,sixfive,,,,,,,,,,,,,,,,,,,,,,,,,,,,,,,,,,,,,,,,,,,,,,,,,,,,,,,,,,,,,,,,,,,,,,,,,,,,,,,,,,,,,,,,,,,,,,,,,,,,,,,,,,,,,,,,,,,,,,,,,,,,,,,,,,,,,,,,,
,,610c3fa9aa356c9ebde029b7,2024-02-18_20h13.55.581,kallum_motion_pilot,2023.2.2,Win32,144.9275362,610c3fa9aa356c9ebde029b7,65d2b6c8f2eece985d8e374c,65d2b948739cdfcf63afc37b,0.0205,0.0205,0,21,21,36,1,threeone,,,,,,,,,,,,,,,,,,,,,,,,,,,,,,,,,,,,,,,,,,,,,,,,,,,,,,,,,,,,,,,,,,,,,,,,,,,,,,,,,,,,,,,,,,,,,,,,,,,,,,,,,,,,,,,,,,,,,,,,,,,,,,,,,,,,,,,,,
,,610c3fa9aa356c9ebde029b7,2024-02-18_20h13.55.581,kallum_motion_pilot,2023.2.2,Win32,144.9275362,610c3fa9aa356c9ebde029b7,65d2b6c8f2eece985d8e374c,65d2b948739cdfcf63afc37b,0.0206,0.0207,0,22,22,154,1,sixfive,,,,,,,,,,,,,,,,,,,,,,,,,,,,,,,,,,,,,,,,,,,,,,,,,,,,,,,,,,,,,,,,,,,,,,,,,,,,,,,,,,,,,,,,,,,,,,,,,,,,,,,,,,,,,,,,,,,,,,,,,,,,,,,,,,,,,,,,,
,,610c3fa9aa356c9ebde029b7,2024-02-18_20h13.55.581,kallum_motion_pilot,2023.2.2,Win32,144.9275362,610c3fa9aa356c9ebde029b7,65d2b6c8f2eece985d8e374c,65d2b948739cdfcf63afc37b,0.0207,0.0207,0,23,23,70,1,fourtwo,,,,,,,,,,,,,,,,,,,,,,,,,,,,,,,,,,,,,,,,,,,,,,,,,,,,,,,,,,,,,,,,,,,,,,,,,,,,,,,,,,,,,,,,,,,,,,,,,,,,,,,,,,,,,,,,,,,,,,,,,,,,,,,,,,,,,,,,,
,,610c3fa9aa356c9ebde029b7,2024-02-18_20h13.55.581,kallum_motion_pilot,2023.2.2,Win32,144.9275362,610c3fa9aa356c9ebde029b7,65d2b6c8f2eece985d8e374c,65d2b948739cdfcf63afc37b,0.0208,0.0209,0,24,24,110,1,eightsix,,,,,,,,,,,,,,,,,,,,,,,,,,,,,,,,,,,,,,,,,,,,,,,,,,,,,,,,,,,,,,,,,,,,,,,,,,,,,,,,,,,,,,,,,,,,,,,,,,,,,,,,,,,,,,,,,,,,,,,,,,,,,,,,,,,,,,,,,
,,610c3fa9aa356c9ebde029b7,2024-02-18_20h13.55.581,kallum_motion_pilot,2023.2.2,Win32,144.9275362,610c3fa9aa356c9ebde029b7,65d2b6c8f2eece985d8e374c,65d2b948739cdfcf63afc37b,0.022,0.022,0,25,25,25,1,onethree,,,,,,,,,,,,,,,,,,,,,,,,,,,,,,,,,,,,,,,,,,,,,,,,,,,,,,,,,,,,,,,,,,,,,,,,,,,,,,,,,,,,,,,,,,,,,,,,,,,,,,,,,,,,,,,,,,,,,,,,,,,,,,,,,,,,,,,,,
,,610c3fa9aa356c9ebde029b7,2024-02-18_20h13.55.581,kallum_motion_pilot,2023.2.2,Win32,144.9275362,610c3fa9aa356c9ebde029b7,65d2b6c8f2eece985d8e374c,65d2b948739cdfcf63afc37b,0.0222,0.0222,0,26,26,16,1,onetwo,,,,,,,,,,,,,,,,,,,,,,,,,,,,,,,,,,,,,,,,,,,,,,,,,,,,,,,,,,,,,,,,,,,,,,,,,,,,,,,,,,,,,,,,,,,,,,,,,,,,,,,,,,,,,,,,,,,,,,,,,,,,,,,,,,,,,,,,,
,,610c3fa9aa356c9ebde029b7,2024-02-18_20h13.55.581,kallum_motion_pilot,2023.2.2,Win32,144.9275362,610c3fa9aa356c9ebde029b7,65d2b6c8f2eece985d8e374c,65d2b948739cdfcf63afc37b,0.0223,0.0223,0,27,27,0,1,onetwo,,,,,,,,,,,,,,,,,,,,,,,,,,,,,,,,,,,,,,,,,,,,,,,,,,,,,,,,,,,,,,,,,,,,,,,,,,,,,,,,,,,,,,,,,,,,,,,,,,,,,,,,,,,,,,,,,,,,,,,,,,,,,,,,,,,,,,,,,
,,610c3fa9aa356c9ebde029b7,2024-02-18_20h13.55.581,kallum_motion_pilot,2023.2.2,Win32,144.9275362,610c3fa9aa356c9ebde029b7,65d2b6c8f2eece985d8e374c,65d2b948739cdfcf63afc37b,0.0223,0.0223,0,28,28,68,1,threeone,,,,,,,,,,,,,,,,,,,,,,,,,,,,,,,,,,,,,,,,,,,,,,,,,,,,,,,,,,,,,,,,,,,,,,,,,,,,,,,,,,,,,,,,,,,,,,,,,,,,,,,,,,,,,,,,,,,,,,,,,,,,,,,,,,,,,,,,,
,,610c3fa9aa356c9ebde029b7,2024-02-18_20h13.55.581,kallum_motion_pilot,2023.2.2,Win32,144.9275362,610c3fa9aa356c9ebde029b7,65d2b6c8f2eece985d8e374c,65d2b948739cdfcf63afc37b,0.0224,0.0224,0,29,29,129,1,fiveseven,,,,,,,,,,,,,,,,,,,,,,,,,,,,,,,,,,,,,,,,,,,,,,,,,,,,,,,,,,,,,,,,,,,,,,,,,,,,,,,,,,,,,,,,,,,,,,,,,,,,,,,,,,,,,,,,,,,,,,,,,,,,,,,,,,,,,,,,,
,,610c3fa9aa356c9ebde029b7,2024-02-18_20h13.55.581,kallum_motion_pilot,2023.2.2,Win32,144.9275362,610c3fa9aa356c9ebde029b7,65d2b6c8f2eece985d8e374c,65d2b948739cdfcf63afc37b,0.0225,0.0225,0,30,30,24,1,onetwo,,,,,,,,,,,,,,,,,,,,,,,,,,,,,,,,,,,,,,,,,,,,,,,,,,,,,,,,,,,,,,,,,,,,,,,,,,,,,,,,,,,,,,,,,,,,,,,,,,,,,,,,,,,,,,,,,,,,,,,,,,,,,,,,,,,,,,,,,
,,610c3fa9aa356c9ebde029b7,2024-02-18_20h13.55.581,kallum_motion_pilot,2023.2.2,Win32,144.9275362,610c3fa9aa356c9ebde029b7,65d2b6c8f2eece985d8e374c,65d2b948739cdfcf63afc37b,0.0226,0.0226,0,31,31,49,1,onethree,,,,,,,,,,,,,,,,,,,,,,,,,,,,,,,,,,,,,,,,,,,,,,,,,,,,,,,,,,,,,,,,,,,,,,,,,,,,,,,,,,,,,,,,,,,,,,,,,,,,,,,,,,,,,,,,,,,,,,,,,,,,,,,,,,,,,,,,,
,,610c3fa9aa356c9ebde029b7,2024-02-18_20h13.55.581,kallum_motion_pilot,2023.2.2,Win32,144.9275362,610c3fa9aa356c9ebde029b7,65d2b6c8f2eece985d8e374c,65d2b948739cdfcf63afc37b,0.0226,0.0226,0,32,32,80,1,fivesix,,,,,,,,,,,,,,,,,,,,,,,,,,,,,,,,,,,,,,,,,,,,,,,,,,,,,,,,,,,,,,,,,,,,,,,,,,,,,,,,,,,,,,,,,,,,,,,,,,,,,,,,,,,,,,,,,,,,,,,,,,,,,,,,,,,,,,,,,
,,610c3fa9aa356c9ebde029b7,2024-02-18_20h13.55.581,kallum_motion_pilot,2023.2.2,Win32,144.9275362,610c3fa9aa356c9ebde029b7,65d2b6c8f2eece985d8e374c,65d2b948739cdfcf63afc37b,0.0226,0.0227,0,33,33,117,1,seveneight,,,,,,,,,,,,,,,,,,,,,,,,,,,,,,,,,,,,,,,,,,,,,,,,,,,,,,,,,,,,,,,,,,,,,,,,,,,,,,,,,,,,,,,,,,,,,,,,,,,,,,,,,,,,,,,,,,,,,,,,,,,,,,,,,,,,,,,,,
,,610c3fa9aa356c9ebde029b7,2024-02-18_20h13.55.581,kallum_motion_pilot,2023.2.2,Win32,144.9275362,610c3fa9aa356c9ebde029b7,65d2b6c8f2eece985d8e374c,65d2b948739cdfcf63afc37b,0.0227,0.0228,0,34,34,123,1,sixeight,,,,,,,,,,,,,,,,,,,,,,,,,,,,,,,,,,,,,,,,,,,,,,,,,,,,,,,,,,,,,,,,,,,,,,,,,,,,,,,,,,,,,,,,,,,,,,,,,,,,,,,,,,,,,,,,,,,,,,,,,,,,,,,,,,,,,,,,,
,,610c3fa9aa356c9ebde029b7,2024-02-18_20h13.55.581,kallum_motion_pilot,2023.2.2,Win32,144.9275362,610c3fa9aa356c9ebde029b7,65d2b6c8f2eece985d8e374c,65d2b948739cdfcf63afc37b,0.0228,0.0228,0,35,35,69,1,threefour,,,,,,,,,,,,,,,,,,,,,,,,,,,,,,,,,,,,,,,,,,,,,,,,,,,,,,,,,,,,,,,,,,,,,,,,,,,,,,,,,,,,,,,,,,,,,,,,,,,,,,,,,,,,,,,,,,,,,,,,,,,,,,,,,,,,,,,,,
,,610c3fa9aa356c9ebde029b7,2024-02-18_20h13.55.581,kallum_motion_pilot,2023.2.2,Win32,144.9275362,610c3fa9aa356c9ebde029b7,65d2b6c8f2eece985d8e374c,65d2b948739cdfcf63afc37b,0.0228,0.0229,0,36,36,34,1,twoone,,,,,,,,,,,,,,,,,,,,,,,,,,,,,,,,,,,,,,,,,,,,,,,,,,,,,,,,,,,,,,,,,,,,,,,,,,,,,,,,,,,,,,,,,,,,,,,,,,,,,,,,,,,,,,,,,,,,,,,,,,,,,,,,,,,,,,,,,
,,610c3fa9aa356c9ebde029b7,2024-02-18_20h13.55.581,kallum_motion_pilot,2023.2.2,Win32,144.9275362,610c3fa9aa356c9ebde029b7,65d2b6c8f2eece985d8e374c,65d2b948739cdfcf63afc37b,0.0229,0.0229,0,37,37,82,1,sixfive,,,,,,,,,,,,,,,,,,,,,,,,,,,,,,,,,,,,,,,,,,,,,,,,,,,,,,,,,,,,,,,,,,,,,,,,,,,,,,,,,,,,,,,,,,,,,,,,,,,,,,,,,,,,,,,,,,,,,,,,,,,,,,,,,,,,,,,,,
,,610c3fa9aa356c9ebde029b7,2024-02-18_20h13.55.581,kallum_motion_pilot,2023.2.2,Win32,144.9275362,610c3fa9aa356c9ebde029b7,65d2b6c8f2eece985d8e374c,65d2b948739cdfcf63afc37b,0.023,0.023,0,38,38,53,1,threefour,,,,,,,,,,,,,,,,,,,,,,,,,,,,,,,,,,,,,,,,,,,,,,,,,,,,,,,,,,,,,,,,,,,,,,,,,,,,,,,,,,,,,,,,,,,,,,,,,,,,,,,,,,,,,,,,,,,,,,,,,,,,,,,,,,,,,,,,,
,,610c3fa9aa356c9ebde029b7,2024-02-18_20h13.55.581,kallum_motion_pilot,2023.2.2,Win32,144.9275362,610c3fa9aa356c9ebde029b7,65d2b6c8f2eece985d8e374c,65d2b948739cdfcf63afc37b,0.023,0.023,0,39,39,42,1,twoone,,,,,,,,,,,,,,,,,,,,,,,,,,,,,,,,,,,,,,,,,,,,,,,,,,,,,,,,,,,,,,,,,,,,,,,,,,,,,,,,,,,,,,,,,,,,,,,,,,,,,,,,,,,,,,,,,,,,,,,,,,,,,,,,,,,,,,,,,
,,610c3fa9aa356c9ebde029b7,2024-02-18_20h13.55.581,kallum_motion_pilot,2023.2.2,Win32,144.9275362,610c3fa9aa356c9ebde029b7,65d2b6c8f2eece985d8e374c,65d2b948739cdfcf63afc37b,0.0231,0.0232,0,40,40,11,1,twofour,,,,,,,,,,,,,,,,,,,,,,,,,,,,,,,,,,,,,,,,,,,,,,,,,,,,,,,,,,,,,,,,,,,,,,,,,,,,,,,,,,,,,,,,,,,,,,,,,,,,,,,,,,,,,,,,,,,,,,,,,,,,,,,,,,,,,,,,,
,,610c3fa9aa356c9ebde029b7,2024-02-18_20h13.55.581,kallum_motion_pilot,2023.2.2,Win32,144.9275362,610c3fa9aa356c9ebde029b7,65d2b6c8f2eece985d8e374c,65d2b948739cdfcf63afc37b,0.0232,0.0232,0,41,41,14,1,fourtwo,,,,,,,,,,,,,,,,,,,,,,,,,,,,,,,,,,,,,,,,,,,,,,,,,,,,,,,,,,,,,,,,,,,,,,,,,,,,,,,,,,,,,,,,,,,,,,,,,,,,,,,,,,,,,,,,,,,,,,,,,,,,,,,,,,,,,,,,,
,,610c3fa9aa356c9ebde029b7,2024-02-18_20h13.55.581,kallum_motion_pilot,2023.2.2,Win32,144.9275362,610c3fa9aa356c9ebde029b7,65d2b6c8f2eece985d8e374c,65d2b948739cdfcf63afc37b,0.0233,0.0233,0,42,42,40,1,onetwo,,,,,,,,,,,,,,,,,,,,,,,,,,,,,,,,,,,,,,,,,,,,,,,,,,,,,,,,,,,,,,,,,,,,,,,,,,,,,,,,,,,,,,,,,,,,,,,,,,,,,,,,,,,,,,,,,,,,,,,,,,,,,,,,,,,,,,,,,
,,610c3fa9aa356c9ebde029b7,2024-02-18_20h13.55.581,kallum_motion_pilot,2023.2.2,Win32,144.9275362,610c3fa9aa356c9ebde029b7,65d2b6c8f2eece985d8e374c,65d2b948739cdfcf63afc37b,0.0233,0.0233,0,43,43,121,1,fiveseven,,,,,,,,,,,,,,,,,,,,,,,,,,,,,,,,,,,,,,,,,,,,,,,,,,,,,,,,,,,,,,,,,,,,,,,,,,,,,,,,,,,,,,,,,,,,,,,,,,,,,,,,,,,,,,,,,,,,,,,,,,,,,,,,,,,,,,,,,
,,610c3fa9aa356c9ebde029b7,2024-02-18_20h13.55.581,kallum_motion_pilot,2023.2.2,Win32,144.9275362,610c3fa9aa356c9ebde029b7,65d2b6c8f2eece985d8e374c,65d2b948739cdfcf63afc37b,0.0234,0.0234,0,44,44,122,1,sixfive,,,,,,,,,,,,,,,,,,,,,,,,,,,,,,,,,,,,,,,,,,,,,,,,,,,,,,,,,,,,,,,,,,,,,,,,,,,,,,,,,,,,,,,,,,,,,,,,,,,,,,,,,,,,,,,,,,,,,,,,,,,,,,,,,,,,,,,,,
,,610c3fa9aa356c9ebde029b7,2024-02-18_20h13.55.581,kallum_motion_pilot,2023.2.2,Win32,144.9275362,610c3fa9aa356c9ebde029b7,65d2b6c8f2eece985d8e374c,65d2b948739cdfcf63afc37b,0.0235,0.0235,0,45,45,20,1,threeone,,,,,,,,,,,,,,,,,,,,,,,,,,,,,,,,,,,,,,,,,,,,,,,,,,,,,,,,,,,,,,,,,,,,,,,,,,,,,,,,,,,,,,,,,,,,,,,,,,,,,,,,,,,,,,,,,,,,,,,,,,,,,,,,,,,,,,,,,
,,610c3fa9aa356c9ebde029b7,2024-02-18_20h13.55.581,kallum_motion_pilot,2023.2.2,Win32,144.9275362,610c3fa9aa356c9ebde029b7,65d2b6c8f2eece985d8e374c,65d2b948739cdfcf63afc37b,0.0235,0.0236,0,46,46,90,1,sixfive,,,,,,,,,,,,,,,,,,,,,,,,,,,,,,,,,,,,,,,,,,,,,,,,,,,,,,,,,,,,,,,,,,,,,,,,,,,,,,,,,,,,,,,,,,,,,,,,,,,,,,,,,,,,,,,,,,,,,,,,,,,,,,,,,,,,,,,,,
,,610c3fa9aa356c9ebde029b7,2024-02-18_20h13.55.581,kallum_motion_pilot,2023.2.2,Win32,144.9275362,610c3fa9aa356c9ebde029b7,65d2b6c8f2eece985d8e374c,65d2b948739cdfcf63afc37b,0.0236,0.0236,0,47,47,5,1,threefour,,,,,,,,,,,,,,,,,,,,,,,,,,,,,,,,,,,,,,,,,,,,,,,,,,,,,,,,,,,,,,,,,,,,,,,,,,,,,,,,,,,,,,,,,,,,,,,,,,,,,,,,,,,,,,,,,,,,,,,,,,,,,,,,,,,,,,,,,
,,610c3fa9aa356c9ebde029b7,2024-02-18_20h13.55.581,kallum_motion_pilot,2023.2.2,Win32,144.9275362,610c3fa9aa356c9ebde029b7,65d2b6c8f2eece985d8e374c,65d2b948739cdfcf63afc37b,0.0236,0.0236,0,48,48,131,1,sixeight,,,,,,,,,,,,,,,,,,,,,,,,,,,,,,,,,,,,,,,,,,,,,,,,,,,,,,,,,,,,,,,,,,,,,,,,,,,,,,,,,,,,,,,,,,,,,,,,,,,,,,,,,,,,,,,,,,,,,,,,,,,,,,,,,,,,,,,,,
,,610c3fa9aa356c9ebde029b7,2024-02-18_20h13.55.581,kallum_motion_pilot,2023.2.2,Win32,144.9275362,610c3fa9aa356c9ebde029b7,65d2b6c8f2eece985d8e374c,65d2b948739cdfcf63afc37b,0.0237,0.0237,0,49,49,158,1,eightsix,,,,,,,,,,,,,,,,,,,,,,,,,,,,,,,,,,,,,,,,,,,,,,,,,,,,,,,,,,,,,,,,,,,,,,,,,,,,,,,,,,,,,,,,,,,,,,,,,,,,,,,,,,,,,,,,,,,,,,,,,,,,,,,,,,,,,,,,,
,,610c3fa9aa356c9ebde029b7,2024-02-18_20h13.55.581,kallum_motion_pilot,2023.2.2,Win32,144.9275362,610c3fa9aa356c9ebde029b7,65d2b6c8f2eece985d8e374c,65d2b948739cdfcf63afc37b,0.0238,0.0238,0,50,50,103,1,eightseven,,,,,,,,,,,,,,,,,,,,,,,,,,,,,,,,,,,,,,,,,,,,,,,,,,,,,,,,,,,,,,,,,,,,,,,,,,,,,,,,,,,,,,,,,,,,,,,,,,,,,,,,,,,,,,,,,,,,,,,,,,,,,,,,,,,,,,,,,
,,610c3fa9aa356c9ebde029b7,2024-02-18_20h13.55.581,kallum_motion_pilot,2023.2.2,Win32,144.9275362,610c3fa9aa356c9ebde029b7,65d2b6c8f2eece985d8e374c,65d2b948739cdfcf63afc37b,0.0239,0.0239,0,51,51,17,1,onethree,,,,,,,,,,,,,,,,,,,,,,,,,,,,,,,,,,,,,,,,,,,,,,,,,,,,,,,,,,,,,,,,,,,,,,,,,,,,,,,,,,,,,,,,,,,,,,,,,,,,,,,,,,,,,,,,,,,,,,,,,,,,,,,,,,,,,,,,,
,,610c3fa9aa356c9ebde029b7,2024-02-18_20h13.55.581,kallum_motion_pilot,2023.2.2,Win32,144.9275362,610c3fa9aa356c9ebde029b7,65d2b6c8f2eece985d8e374c,65d2b948739cdfcf63afc37b,0.0239,0.0239,0,52,52,12,1,threeone,,,,,,,,,,,,,,,,,,,,,,,,,,,,,,,,,,,,,,,,,,,,,,,,,,,,,,,,,,,,,,,,,,,,,,,,,,,,,,,,,,,,,,,,,,,,,,,,,,,,,,,,,,,,,,,,,,,,,,,,,,,,,,,,,,,,,,,,,
,,610c3fa9aa356c9ebde029b7,2024-02-18_20h13.55.581,kallum_motion_pilot,2023.2.2,Win32,144.9275362,610c3fa9aa356c9ebde029b7,65d2b6c8f2eece985d8e374c,65d2b948739cdfcf63afc37b,0.024,0.024,0,53,53,104,1,fivesix,,,,,,,,,,,,,,,,,,,,,,,,,,,,,,,,,,,,,,,,,,,,,,,,,,,,,,,,,,,,,,,,,,,,,,,,,,,,,,,,,,,,,,,,,,,,,,,,,,,,,,,,,,,,,,,,,,,,,,,,,,,,,,,,,,,,,,,,,
,,610c3fa9aa356c9ebde029b7,2024-02-18_20h13.55.581,kallum_motion_pilot,2023.2.2,Win32,144.9275362,610c3fa9aa356c9ebde029b7,65d2b6c8f2eece985d8e374c,65d2b948739cdfcf63afc37b,0.024,0.0241,0,54,54,32,1,onetwo,,,,,,,,,,,,,,,,,,,,,,,,,,,,,,,,,,,,,,,,,,,,,,,,,,,,,,,,,,,,,,,,,,,,,,,,,,,,,,,,,,,,,,,,,,,,,,,,,,,,,,,,,,,,,,,,,,,,,,,,,,,,,,,,,,,,,,,,,
,,610c3fa9aa356c9ebde029b7,2024-02-18_20h13.55.581,kallum_motion_pilot,2023.2.2,Win32,144.9275362,610c3fa9aa356c9ebde029b7,65d2b6c8f2eece985d8e374c,65d2b948739cdfcf63afc37b,0.0242,0.0242,0,55,55,78,1,fourtwo,,,,,,,,,,,,,,,,,,,,,,,,,,,,,,,,,,,,,,,,,,,,,,,,,,,,,,,,,,,,,,,,,,,,,,,,,,,,,,,,,,,,,,,,,,,,,,,,,,,,,,,,,,,,,,,,,,,,,,,,,,,,,,,,,,,,,,,,,
,,610c3fa9aa356c9ebde029b7,2024-02-18_20h13.55.581,kallum_motion_pilot,2023.2.2,Win32,144.9275362,610c3fa9aa356c9ebde029b7,65d2b6c8f2eece985d8e374c,65d2b948739cdfcf63afc37b,0.0242,0.0242,0,56,56,84,1,sevenfive,,,,,,,,,,,,,,,,,,,,,,,,,,,,,,,,,,,,,,,,,,,,,,,,,,,,,,,,,,,,,,,,,,,,,,,,,,,,,,,,,,,,,,,,,,,,,,,,,,,,,,,,,,,,,,,,,,,,,,,,,,,,,,,,,,,,,,,,,
,,610c3fa9aa356c9ebde029b7,2024-02-18_20h13.55.581,kallum_motion_pilot,2023.2.2,Win32,144.9275362,610c3fa9aa356c9ebde029b7,65d2b6c8f2eece985d8e374c,65d2b948739cdfcf63afc37b,0.0243,0.0243,0,57,57,1,1,onethree,,,,,,,,,,,,,,,,,,,,,,,,,,,,,,,,,,,,,,,,,,,,,,,,,,,,,,,,,,,,,,,,,,,,,,,,,,,,,,,,,,,,,,,,,,,,,,,,,,,,,,,,,,,,,,,,,,,,,,,,,,,,,,,,,,,,,,,,,
,,610c3fa9aa356c9ebde029b7,2024-02-18_20h13.55.581,kallum_motion_pilot,2023.2.2,Win32,144.9275362,610c3fa9aa356c9ebde029b7,65d2b6c8f2eece985d8e374c,65d2b948739cdfcf63afc37b,0.0244,0.0244,0,58,58,56,1,onetwo,,,,,,,,,,,,,,,,,,,,,,,,,,,,,,,,,,,,,,,,,,,,,,,,,,,,,,,,,,,,,,,,,,,,,,,,,,,,,,,,,,,,,,,,,,,,,,,,,,,,,,,,,,,,,,,,,,,,,,,,,,,,,,,,,,,,,,,,,
,,610c3fa9aa356c9ebde029b7,2024-02-18_20h13.55.581,kallum_motion_pilot,2023.2.2,Win32,144.9275362,610c3fa9aa356c9ebde029b7,65d2b6c8f2eece985d8e374c,65d2b948739cdfcf63afc37b,0.0244,0.0244,0,59,59,148,1,sevenfive,,,,,,,,,,,,,,,,,,,,,,,,,,,,,,,,,,,,,,,,,,,,,,,,,,,,,,,,,,,,,,,,,,,,,,,,,,,,,,,,,,,,,,,,,,,,,,,,,,,,,,,,,,,,,,,,,,,,,,,,,,,,,,,,,,,,,,,,,
,,610c3fa9aa356c9ebde029b7,2024-02-18_20h13.55.581,kallum_motion_pilot,2023.2.2,Win32,144.9275362,610c3fa9aa356c9ebde029b7,65d2b6c8f2eece985d8e374c,65d2b948739cdfcf63afc37b,0.0245,0.0245,0,60,60,106,1,sixfive,,,,,,,,,,,,,,,,,,,,,,,,,,,,,,,,,,,,,,,,,,,,,,,,,,,,,,,,,,,,,,,,,,,,,,,,,,,,,,,,,,,,,,,,,,,,,,,,,,,,,,,,,,,,,,,,,,,,,,,,,,,,,,,,,,,,,,,,,
,,610c3fa9aa356c9ebde029b7,2024-02-18_20h13.55.581,kallum_motion_pilot,2023.2.2,Win32,144.9275362,610c3fa9aa356c9ebde029b7,65d2b6c8f2eece985d8e374c,65d2b948739cdfcf63afc37b,0.0246,0.0246,0,61,61,39,1,fourthree,,,,,,,,,,,,,,,,,,,,,,,,,,,,,,,,,,,,,,,,,,,,,,,,,,,,,,,,,,,,,,,,,,,,,,,,,,,,,,,,,,,,,,,,,,,,,,,,,,,,,,,,,,,,,,,,,,,,,,,,,,,,,,,,,,,,,,,,,
,,610c3fa9aa356c9ebde029b7,2024-02-18_20h13.55.581,kallum_motion_pilot,2023.2.2,Win32,144.9275362,610c3fa9aa356c9ebde029b7,65d2b6c8f2eece985d8e374c,65d2b948739cdfcf63afc37b,0.0246,0.0246,0,62,62,113,1,fiveseven,,,,,,,,,,,,,,,,,,,,,,,,,,,,,,,,,,,,,,,,,,,,,,,,,,,,,,,,,,,,,,,,,,,,,,,,,,,,,,,,,,,,,,,,,,,,,,,,,,,,,,,,,,,,,,,,,,,,,,,,,,,,,,,,,,,,,,,,,
,,610c3fa9aa356c9ebde029b7,2024-02-18_20h13.55.581,kallum_motion_pilot,2023.2.2,Win32,144.9275362,610c3fa9aa356c9ebde029b7,65d2b6c8f2eece985d8e374c,65d2b948739cdfcf63afc37b,0.0247,0.0248,0,63,63,156,1,sevenfive,,,,,,,,,,,,,,,,,,,,,,,,,,,,,,,,,,,,,,,,,,,,,,,,,,,,,,,,,,,,,,,,,,,,,,,,,,,,,,,,,,,,,,,,,,,,,,,,,,,,,,,,,,,,,,,,,,,,,,,,,,,,,,,,,,,,,,,,,
,,610c3fa9aa356c9ebde029b7,2024-02-18_20h13.55.581,kallum_motion_pilot,2023.2.2,Win32,144.9275362,610c3fa9aa356c9ebde029b7,65d2b6c8f2eece985d8e374c,65d2b948739cdfcf63afc37b,0.0248,0.0248,0,64,64,7,1,fourthree,,,,,,,,,,,,,,,,,,,,,,,,,,,,,,,,,,,,,,,,,,,,,,,,,,,,,,,,,,,,,,,,,,,,,,,,,,,,,,,,,,,,,,,,,,,,,,,,,,,,,,,,,,,,,,,,,,,,,,,,,,,,,,,,,,,,,,,,,
,,610c3fa9aa356c9ebde029b7,2024-02-18_20h13.55.581,kallum_motion_pilot,2023.2.2,Win32,144.9275362,610c3fa9aa356c9ebde029b7,65d2b6c8f2eece985d8e374c,65d2b948739cdfcf63afc37b,0.0248,0.0249,0,65,65,147,1,sixeight,,,,,,,,,,,,,,,,,,,,,,,,,,,,,,,,,,,,,,,,,,,,,,,,,,,,,,,,,,,,,,,,,,,,,,,,,,,,,,,,,,,,,,,,,,,,,,,,,,,,,,,,,,,,,,,,,,,,,,,,,,,,,,,,,,,,,,,,,
,,610c3fa9aa356c9ebde029b7,2024-02-18_20h13.55.581,kallum_motion_pilot,2023.2.2,Win32,144.9275362,610c3fa9aa356c9ebde029b7,65d2b6c8f2eece985d8e374c,65d2b948739cdfcf63afc37b,0.0249,0.0249,0,66,66,139,1,sixeight,,,,,,,,,,,,,,,,,,,,,,,,,,,,,,,,,,,,,,,,,,,,,,,,,,,,,,,,,,,,,,,,,,,,,,,,,,,,,,,,,,,,,,,,,,,,,,,,,,,,,,,,,,,,,,,,,,,,,,,,,,,,,,,,,,,,,,,,,
,,610c3fa9aa356c9ebde029b7,2024-02-18_20h13.55.581,kallum_motion_pilot,2023.2.2,Win32,144.9275362,610c3fa9aa356c9ebde029b7,65d2b6c8f2eece985d8e374c,65d2b948739cdfcf63afc37b,0.0251,0.0251,0,67,67,138,1,sixfive,,,,,,,,,,,,,,,,,,,,,,,,,,,,,,,,,,,,,,,,,,,,,,,,,,,,,,,,,,,,,,,,,,,,,,,,,,,,,,,,,,,,,,,,,,,,,,,,,,,,,,,,,,,,,,,,,,,,,,,,,,,,,,,,,,,,,,,,,
,,610c3fa9aa356c9ebde029b7,2024-02-18_20h13.55.581,kallum_motion_pilot,2023.2.2,Win32,144.9275362,610c3fa9aa356c9ebde029b7,65d2b6c8f2eece985d8e374c,65d2b948739cdfcf63afc37b,0.0251,0.0251,0,68,68,108,1,sevenfive,,,,,,,,,,,,,,,,,,,,,,,,,,,,,,,,,,,,,,,,,,,,,,,,,,,,,,,,,,,,,,,,,,,,,,,,,,,,,,,,,,,,,,,,,,,,,,,,,,,,,,,,,,,,,,,,,,,,,,,,,,,,,,,,,,,,,,,,,
,,610c3fa9aa356c9ebde029b7,2024-02-18_20h13.55.581,kallum_motion_pilot,2023.2.2,Win32,144.9275362,610c3fa9aa356c9ebde029b7,65d2b6c8f2eece985d8e374c,65d2b948739cdfcf63afc37b,0.0252,0.0252,0,69,69,83,1,sixeight,,,,,,,,,,,,,,,,,,,,,,,,,,,,,,,,,,,,,,,,,,,,,,,,,,,,,,,,,,,,,,,,,,,,,,,,,,,,,,,,,,,,,,,,,,,,,,,,,,,,,,,,,,,,,,,,,,,,,,,,,,,,,,,,,,,,,,,,,
,,610c3fa9aa356c9ebde029b7,2024-02-18_20h13.55.581,kallum_motion_pilot,2023.2.2,Win32,144.9275362,610c3fa9aa356c9ebde029b7,65d2b6c8f2eece985d8e374c,65d2b948739cdfcf63afc37b,0.0252,0.0253,0,70,70,100,1,sevenfive,,,,,,,,,,,,,,,,,,,,,,,,,,,,,,,,,,,,,,,,,,,,,,,,,,,,,,,,,,,,,,,,,,,,,,,,,,,,,,,,,,,,,,,,,,,,,,,,,,,,,,,,,,,,,,,,,,,,,,,,,,,,,,,,,,,,,,,,,
,,610c3fa9aa356c9ebde029b7,2024-02-18_20h13.55.581,kallum_motion_pilot,2023.2.2,Win32,144.9275362,610c3fa9aa356c9ebde029b7,65d2b6c8f2eece985d8e374c,65d2b948739cdfcf63afc37b,0.0253,0.0254,0,71,71,55,1,fourthree,,,,,,,,,,,,,,,,,,,,,,,,,,,,,,,,,,,,,,,,,,,,,,,,,,,,,,,,,,,,,,,,,,,,,,,,,,,,,,,,,,,,,,,,,,,,,,,,,,,,,,,,,,,,,,,,,,,,,,,,,,,,,,,,,,,,,,,,,
,,610c3fa9aa356c9ebde029b7,2024-02-18_20h13.55.581,kallum_motion_pilot,2023.2.2,Win32,144.9275362,610c3fa9aa356c9ebde029b7,65d2b6c8f2eece985d8e374c,65d2b948739cdfcf63afc37b,0.0255,0.0255,0,72,72,120,1,fivesix,,,,,,,,,,,,,,,,,,,,,,,,,,,,,,,,,,,,,,,,,,,,,,,,,,,,,,,,,,,,,,,,,,,,,,,,,,,,,,,,,,,,,,,,,,,,,,,,,,,,,,,,,,,,,,,,,,,,,,,,,,,,,,,,,,,,,,,,,
,,610c3fa9aa356c9ebde029b7,2024-02-18_20h13.55.581,kallum_motion_pilot,2023.2.2,Win32,144.9275362,610c3fa9aa356c9ebde029b7,65d2b6c8f2eece985d8e374c,65d2b948739cdfcf63afc37b,0.0255,0.0255,0,73,73,33,1,onethree,,,,,,,,,,,,,,,,,,,,,,,,,,,,,,,,,,,,,,,,,,,,,,,,,,,,,,,,,,,,,,,,,,,,,,,,,,,,,,,,,,,,,,,,,,,,,,,,,,,,,,,,,,,,,,,,,,,,,,,,,,,,,,,,,,,,,,,,,
,,610c3fa9aa356c9ebde029b7,2024-02-18_20h13.55.581,kallum_motion_pilot,2023.2.2,Win32,144.9275362,610c3fa9aa356c9ebde029b7,65d2b6c8f2eece985d8e374c,65d2b948739cdfcf63afc37b,0.0256,0.0256,0,74,74,48,1,onetwo,,,,,,,,,,,,,,,,,,,,,,,,,,,,,,,,,,,,,,,,,,,,,,,,,,,,,,,,,,,,,,,,,,,,,,,,,,,,,,,,,,,,,,,,,,,,,,,,,,,,,,,,,,,,,,,,,,,,,,,,,,,,,,,,,,,,,,,,,
,,610c3fa9aa356c9ebde029b7,2024-02-18_20h13.55.581,kallum_motion_pilot,2023.2.2,Win32,144.9275362,610c3fa9aa356c9ebde029b7,65d2b6c8f2eece985d8e374c,65d2b948739cdfcf63afc37b,0.0257,0.0257,0,75,75,21,1,threefour,,,,,,,,,,,,,,,,,,,,,,,,,,,,,,,,,,,,,,,,,,,,,,,,,,,,,,,,,,,,,,,,,,,,,,,,,,,,,,,,,,,,,,,,,,,,,,,,,,,,,,,,,,,,,,,,,,,,,,,,,,,,,,,,,,,,,,,,,
,,610c3fa9aa356c9ebde029b7,2024-02-18_20h13.55.581,kallum_motion_pilot,2023.2.2,Win32,144.9275362,610c3fa9aa356c9ebde029b7,65d2b6c8f2eece985d8e374c,65d2b948739cdfcf63afc37b,0.0257,0.0257,0,76,76,63,1,fourthree,,,,,,,,,,,,,,,,,,,,,,,,,,,,,,,,,,,,,,,,,,,,,,,,,,,,,,,,,,,,,,,,,,,,,,,,,,,,,,,,,,,,,,,,,,,,,,,,,,,,,,,,,,,,,,,,,,,,,,,,,,,,,,,,,,,,,,,,,
,,610c3fa9aa356c9ebde029b7,2024-02-18_20h13.55.581,kallum_motion_pilot,2023.2.2,Win32,144.9275362,610c3fa9aa356c9ebde029b7,65d2b6c8f2eece985d8e374c,65d2b948739cdfcf63afc37b,0.0258,0.0258,0,77,77,157,1,seveneight,,,,,,,,,,,,,,,,,,,,,,,,,,,,,,,,,,,,,,,,,,,,,,,,,,,,,,,,,,,,,,,,,,,,,,,,,,,,,,,,,,,,,,,,,,,,,,,,,,,,,,,,,,,,,,,,,,,,,,,,,,,,,,,,,,,,,,,,,
,,610c3fa9aa356c9ebde029b7,2024-02-18_20h13.55.581,kallum_motion_pilot,2023.2.2,Win32,144.9275362,610c3fa9aa356c9ebde029b7,65d2b6c8f2eece985d8e374c,65d2b948739cdfcf63afc37b,0.0259,0.0259,0,78,78,23,1,fourthree,,,,,,,,,,,,,,,,,,,,,,,,,,,,,,,,,,,,,,,,,,,,,,,,,,,,,,,,,,,,,,,,,,,,,,,,,,,,,,,,,,,,,,,,,,,,,,,,,,,,,,,,,,,,,,,,,,,,,,,,,,,,,,,,,,,,,,,,,
,,610c3fa9aa356c9ebde029b7,2024-02-18_20h13.55.581,kallum_motion_pilot,2023.2.2,Win32,144.9275362,610c3fa9aa356c9ebde029b7,65d2b6c8f2eece985d8e374c,65d2b948739cdfcf63afc37b,0.026,0.026,0,79,79,67,1,twofour,,,,,,,,,,,,,,,,,,,,,,,,,,,,,,,,,,,,,,,,,,,,,,,,,,,,,,,,,,,,,,,,,,,,,,,,,,,,,,,,,,,,,,,,,,,,,,,,,,,,,,,,,,,,,,,,,,,,,,,,,,,,,,,,,,,,,,,,,
,,610c3fa9aa356c9ebde029b7,2024-02-18_20h13.55.581,kallum_motion_pilot,2023.2.2,Win32,144.9275362,610c3fa9aa356c9ebde029b7,65d2b6c8f2eece985d8e374c,65d2b948739cdfcf63afc37b,0.026,0.026,0,80,80,13,1,threefour,,,,,,,,,,,,,,,,,,,,,,,,,,,,,,,,,,,,,,,,,,,,,,,,,,,,,,,,,,,,,,,,,,,,,,,,,,,,,,,,,,,,,,,,,,,,,,,,,,,,,,,,,,,,,,,,,,,,,,,,,,,,,,,,,,,,,,,,,
,,610c3fa9aa356c9ebde029b7,2024-02-18_20h13.55.581,kallum_motion_pilot,2023.2.2,Win32,144.9275362,610c3fa9aa356c9ebde029b7,65d2b6c8f2eece985d8e374c,65d2b948739cdfcf63afc37b,0.0261,0.0261,0,81,81,99,1,sixeight,,,,,,,,,,,,,,,,,,,,,,,,,,,,,,,,,,,,,,,,,,,,,,,,,,,,,,,,,,,,,,,,,,,,,,,,,,,,,,,,,,,,,,,,,,,,,,,,,,,,,,,,,,,,,,,,,,,,,,,,,,,,,,,,,,,,,,,,,
,,610c3fa9aa356c9ebde029b7,2024-02-18_20h13.55.581,kallum_motion_pilot,2023.2.2,Win32,144.9275362,610c3fa9aa356c9ebde029b7,65d2b6c8f2eece985d8e374c,65d2b948739cdfcf63afc37b,0.0262,0.0262,0,82,82,155,1,sixeight,,,,,,,,,,,,,,,,,,,,,,,,,,,,,,,,,,,,,,,,,,,,,,,,,,,,,,,,,,,,,,,,,,,,,,,,,,,,,,,,,,,,,,,,,,,,,,,,,,,,,,,,,,,,,,,,,,,,,,,,,,,,,,,,,,,,,,,,,
,,610c3fa9aa356c9ebde029b7,2024-02-18_20h13.55.581,kallum_motion_pilot,2023.2.2,Win32,144.9275362,610c3fa9aa356c9ebde029b7,65d2b6c8f2eece985d8e374c,65d2b948739cdfcf63afc37b,0.0262,0.0262,0,83,83,60,1,threeone,,,,,,,,,,,,,,,,,,,,,,,,,,,,,,,,,,,,,,,,,,,,,,,,,,,,,,,,,,,,,,,,,,,,,,,,,,,,,,,,,,,,,,,,,,,,,,,,,,,,,,,,,,,,,,,,,,,,,,,,,,,,,,,,,,,,,,,,,
,,610c3fa9aa356c9ebde029b7,2024-02-18_20h13.55.581,kallum_motion_pilot,2023.2.2,Win32,144.9275362,610c3fa9aa356c9ebde029b7,65d2b6c8f2eece985d8e374c,65d2b948739cdfcf63afc37b,0.0263,0.0264,0,84,84,62,1,fourtwo,,,,,,,,,,,,,,,,,,,,,,,,,,,,,,,,,,,,,,,,,,,,,,,,,,,,,,,,,,,,,,,,,,,,,,,,,,,,,,,,,,,,,,,,,,,,,,,,,,,,,,,,,,,,,,,,,,,,,,,,,,,,,,,,,,,,,,,,,
,,610c3fa9aa356c9ebde029b7,2024-02-18_20h13.55.581,kallum_motion_pilot,2023.2.2,Win32,144.9275362,610c3fa9aa356c9ebde029b7,65d2b6c8f2eece985d8e374c,65d2b948739cdfcf63afc37b,0.0264,0.0264,0,85,85,27,1,twofour,,,,,,,,,,,,,,,,,,,,,,,,,,,,,,,,,,,,,,,,,,,,,,,,,,,,,,,,,,,,,,,,,,,,,,,,,,,,,,,,,,,,,,,,,,,,,,,,,,,,,,,,,,,,,,,,,,,,,,,,,,,,,,,,,,,,,,,,,
,,610c3fa9aa356c9ebde029b7,2024-02-18_20h13.55.581,kallum_motion_pilot,2023.2.2,Win32,144.9275362,610c3fa9aa356c9ebde029b7,65d2b6c8f2eece985d8e374c,65d2b948739cdfcf63afc37b,0.0265,0.0265,0,86,86,160,1,fivesix,,,,,,,,,,,,,,,,,,,,,,,,,,,,,,,,,,,,,,,,,,,,,,,,,,,,,,,,,,,,,,,,,,,,,,,,,,,,,,,,,,,,,,,,,,,,,,,,,,,,,,,,,,,,,,,,,,,,,,,,,,,,,,,,,,,,,,,,,
,,610c3fa9aa356c9ebde029b7,2024-02-18_20h13.55.581,kallum_motion_pilot,2023.2.2,Win32,144.9275362,610c3fa9aa356c9ebde029b7,65d2b6c8f2eece985d8e374c,65d2b948739cdfcf63afc37b,0.0265,0.0266,0,87,87,137,1,fiveseven,,,,,,,,,,,,,,,,,,,,,,,,,,,,,,,,,,,,,,,,,,,,,,,,,,,,,,,,,,,,,,,,,,,,,,,,,,,,,,,,,,,,,,,,,,,,,,,,,,,,,,,,,,,,,,,,,,,,,,,,,,,,,,,,,,,,,,,,,
,,610c3fa9aa356c9ebde029b7,2024-02-18_20h13.55.581,kallum_motion_pilot,2023.2.2,Win32,144.9275362,610c3fa9aa356c9ebde029b7,65d2b6c8f2eece985d8e374c,65d2b948739cdfcf63afc37b,0.0267,0.0267,0,88,88,132,1,sevenfive,,,,,,,,,,,,,,,,,,,,,,,,,,,,,,,,,,,,,,,,,,,,,,,,,,,,,,,,,,,,,,,,,,,,,,,,,,,,,,,,,,,,,,,,,,,,,,,,,,,,,,,,,,,,,,,,,,,,,,,,,,,,,,,,,,,,,,,,,
,,610c3fa9aa356c9ebde029b7,2024-02-18_20h13.55.581,kallum_motion_pilot,2023.2.2,Win32,144.9275362,610c3fa9aa356c9ebde029b7,65d2b6c8f2eece985d8e374c,65d2b948739cdfcf63afc37b,0.0267,0.0267,0,89,89,151,1,eightseven,,,,,,,,,,,,,,,,,,,,,,,,,,,,,,,,,,,,,,,,,,,,,,,,,,,,,,,,,,,,,,,,,,,,,,,,,,,,,,,,,,,,,,,,,,,,,,,,,,,,,,,,,,,,,,,,,,,,,,,,,,,,,,,,,,,,,,,,,
,,610c3fa9aa356c9ebde029b7,2024-02-18_20h13.55.581,kallum_motion_pilot,2023.2.2,Win32,144.9275362,610c3fa9aa356c9ebde029b7,65d2b6c8f2eece985d8e374c,65d2b948739cdfcf63afc37b,0.0268,0.0269,0,90,90,47,1,fourthree,,,,,,,,,,,,,,,,,,,,,,,,,,,,,,,,,,,,,,,,,,,,,,,,,,,,,,,,,,,,,,,,,,,,,,,,,,,,,,,,,,,,,,,,,,,,,,,,,,,,,,,,,,,,,,,,,,,,,,,,,,,,,,,,,,,,,,,,,
,,610c3fa9aa356c9ebde029b7,2024-02-18_20h13.55.581,kallum_motion_pilot,2023.2.2,Win32,144.9275362,610c3fa9aa356c9ebde029b7,65d2b6c8f2eece985d8e374c,65d2b948739cdfcf63afc37b,0.0269,0.0269,0,91,91,152,1,fivesix,,,,,,,,,,,,,,,,,,,,,,,,,,,,,,,,,,,,,,,,,,,,,,,,,,,,,,,,,,,,,,,,,,,,,,,,,,,,,,,,,,,,,,,,,,,,,,,,,,,,,,,,,,,,,,,,,,,,,,,,,,,,,,,,,,,,,,,,,
,,610c3fa9aa356c9ebde029b7,2024-02-18_20h13.55.581,kallum_motion_pilot,2023.2.2,Win32,144.9275362,610c3fa9aa356c9ebde029b7,65d2b6c8f2eece985d8e374c,65d2b948739cdfcf63afc37b,0.0269,0.0269,0,92,92,143,1,eightseven,,,,,,,,,,,,,,,,,,,,,,,,,,,,,,,,,,,,,,,,,,,,,,,,,,,,,,,,,,,,,,,,,,,,,,,,,,,,,,,,,,,,,,,,,,,,,,,,,,,,,,,,,,,,,,,,,,,,,,,,,,,,,,,,,,,,,,,,,
,,610c3fa9aa356c9ebde029b7,2024-02-18_20h13.55.581,kallum_motion_pilot,2023.2.2,Win32,144.9275362,610c3fa9aa356c9ebde029b7,65d2b6c8f2eece985d8e374c,65d2b948739cdfcf63afc37b,0.027,0.0271,0,93,93,125,1,seveneight,,,,,,,,,,,,,,,,,,,,,,,,,,,,,,,,,,,,,,,,,,,,,,,,,,,,,,,,,,,,,,,,,,,,,,,,,,,,,,,,,,,,,,,,,,,,,,,,,,,,,,,,,,,,,,,,,,,,,,,,,,,,,,,,,,,,,,,,,
,,610c3fa9aa356c9ebde029b7,2024-02-18_20h13.55.581,kallum_motion_pilot,2023.2.2,Win32,144.9275362,610c3fa9aa356c9ebde029b7,65d2b6c8f2eece985d8e374c,65d2b948739cdfcf63afc37b,0.0271,0.0272,0,94,94,37,1,threefour,,,,,,,,,,,,,,,,,,,,,,,,,,,,,,,,,,,,,,,,,,,,,,,,,,,,,,,,,,,,,,,,,,,,,,,,,,,,,,,,,,,,,,,,,,,,,,,,,,,,,,,,,,,,,,,,,,,,,,,,,,,,,,,,,,,,,,,,,
,,610c3fa9aa356c9ebde029b7,2024-02-18_20h13.55.581,kallum_motion_pilot,2023.2.2,Win32,144.9275362,610c3fa9aa356c9ebde029b7,65d2b6c8f2eece985d8e374c,65d2b948739cdfcf63afc37b,0.0272,0.0273,0,95,95,29,1,threefour,,,,,,,,,,,,,,,,,,,,,,,,,,,,,,,,,,,,,,,,,,,,,,,,,,,,,,,,,,,,,,,,,,,,,,,,,,,,,,,,,,,,,,,,,,,,,,,,,,,,,,,,,,,,,,,,,,,,,,,,,,,,,,,,,,,,,,,,,
,,610c3fa9aa356c9ebde029b7,2024-02-18_20h13.55.581,kallum_motion_pilot,2023.2.2,Win32,144.9275362,610c3fa9aa356c9ebde029b7,65d2b6c8f2eece985d8e374c,65d2b948739cdfcf63afc37b,0.0273,0.0273,0,96,96,126,1,eightsix,,,,,,,,,,,,,,,,,,,,,,,,,,,,,,,,,,,,,,,,,,,,,,,,,,,,,,,,,,,,,,,,,,,,,,,,,,,,,,,,,,,,,,,,,,,,,,,,,,,,,,,,,,,,,,,,,,,,,,,,,,,,,,,,,,,,,,,,,
,,610c3fa9aa356c9ebde029b7,2024-02-18_20h13.55.581,kallum_motion_pilot,2023.2.2,Win32,144.9275362,610c3fa9aa356c9ebde029b7,65d2b6c8f2eece985d8e374c,65d2b948739cdfcf63afc37b,0.0273,0.0274,0,97,97,116,1,sevenfive,,,,,,,,,,,,,,,,,,,,,,,,,,,,,,,,,,,,,,,,,,,,,,,,,,,,,,,,,,,,,,,,,,,,,,,,,,,,,,,,,,,,,,,,,,,,,,,,,,,,,,,,,,,,,,,,,,,,,,,,,,,,,,,,,,,,,,,,,
,,610c3fa9aa356c9ebde029b7,2024-02-18_20h13.55.581,kallum_motion_pilot,2023.2.2,Win32,144.9275362,610c3fa9aa356c9ebde029b7,65d2b6c8f2eece985d8e374c,65d2b948739cdfcf63afc37b,0.0275,0.0275,0,98,98,95,1,eightseven,,,,,,,,,,,,,,,,,,,,,,,,,,,,,,,,,,,,,,,,,,,,,,,,,,,,,,,,,,,,,,,,,,,,,,,,,,,,,,,,,,,,,,,,,,,,,,,,,,,,,,,,,,,,,,,,,,,,,,,,,,,,,,,,,,,,,,,,,
,,610c3fa9aa356c9ebde029b7,2024-02-18_20h13.55.581,kallum_motion_pilot,2023.2.2,Win32,144.9275362,610c3fa9aa356c9ebde029b7,65d2b6c8f2eece985d8e374c,65d2b948739cdfcf63afc37b,0.0276,0.0276,0,99,99,97,1,fiveseven,,,,,,,,,,,,,,,,,,,,,,,,,,,,,,,,,,,,,,,,,,,,,,,,,,,,,,,,,,,,,,,,,,,,,,,,,,,,,,,,,,,,,,,,,,,,,,,,,,,,,,,,,,,,,,,,,,,,,,,,,,,,,,,,,,,,,,,,,
,,610c3fa9aa356c9ebde029b7,2024-02-18_20h13.55.581,kallum_motion_pilot,2023.2.2,Win32,144.9275362,610c3fa9aa356c9ebde029b7,65d2b6c8f2eece985d8e374c,65d2b948739cdfcf63afc37b,0.0277,0.0277,0,100,100,59,1,twofour,,,,,,,,,,,,,,,,,,,,,,,,,,,,,,,,,,,,,,,,,,,,,,,,,,,,,,,,,,,,,,,,,,,,,,,,,,,,,,,,,,,,,,,,,,,,,,,,,,,,,,,,,,,,,,,,,,,,,,,,,,,,,,,,,,,,,,,,,
,,610c3fa9aa356c9ebde029b7,2024-02-18_20h13.55.581,kallum_motion_pilot,2023.2.2,Win32,144.9275362,610c3fa9aa356c9ebde029b7,65d2b6c8f2eece985d8e374c,65d2b948739cdfcf63afc37b,0.0278,0.0278,0,101,101,96,1,fivesix,,,,,,,,,,,,,,,,,,,,,,,,,,,,,,,,,,,,,,,,,,,,,,,,,,,,,,,,,,,,,,,,,,,,,,,,,,,,,,,,,,,,,,,,,,,,,,,,,,,,,,,,,,,,,,,,,,,,,,,,,,,,,,,,,,,,,,,,,
,,610c3fa9aa356c9ebde029b7,2024-02-18_20h13.55.581,kallum_motion_pilot,2023.2.2,Win32,144.9275362,610c3fa9aa356c9ebde029b7,65d2b6c8f2eece985d8e374c,65d2b948739cdfcf63afc37b,0.0279,0.0279,0,102,102,22,1,fourtwo,,,,,,,,,,,,,,,,,,,,,,,,,,,,,,,,,,,,,,,,,,,,,,,,,,,,,,,,,,,,,,,,,,,,,,,,,,,,,,,,,,,,,,,,,,,,,,,,,,,,,,,,,,,,,,,,,,,,,,,,,,,,,,,,,,,,,,,,,
,,610c3fa9aa356c9ebde029b7,2024-02-18_20h13.55.581,kallum_motion_pilot,2023.2.2,Win32,144.9275362,610c3fa9aa356c9ebde029b7,65d2b6c8f2eece985d8e374c,65d2b948739cdfcf63afc37b,0.028,0.028,0,103,103,101,1,seveneight,,,,,,,,,,,,,,,,,,,,,,,,,,,,,,,,,,,,,,,,,,,,,,,,,,,,,,,,,,,,,,,,,,,,,,,,,,,,,,,,,,,,,,,,,,,,,,,,,,,,,,,,,,,,,,,,,,,,,,,,,,,,,,,,,,,,,,,,,
,,610c3fa9aa356c9ebde029b7,2024-02-18_20h13.55.581,kallum_motion_pilot,2023.2.2,Win32,144.9275362,610c3fa9aa356c9ebde029b7,65d2b6c8f2eece985d8e374c,65d2b948739cdfcf63afc37b,0.0281,0.0281,0,104,104,149,1,seveneight,,,,,,,,,,,,,,,,,,,,,,,,,,,,,,,,,,,,,,,,,,,,,,,,,,,,,,,,,,,,,,,,,,,,,,,,,,,,,,,,,,,,,,,,,,,,,,,,,,,,,,,,,,,,,,,,,,,,,,,,,,,,,,,,,,,,,,,,,
,,610c3fa9aa356c9ebde029b7,2024-02-18_20h13.55.581,kallum_motion_pilot,2023.2.2,Win32,144.9275362,610c3fa9aa356c9ebde029b7,65d2b6c8f2eece985d8e374c,65d2b948739cdfcf63afc37b,0.0281,0.0281,0,105,105,92,1,sevenfive,,,,,,,,,,,,,,,,,,,,,,,,,,,,,,,,,,,,,,,,,,,,,,,,,,,,,,,,,,,,,,,,,,,,,,,,,,,,,,,,,,,,,,,,,,,,,,,,,,,,,,,,,,,,,,,,,,,,,,,,,,,,,,,,,,,,,,,,,
,,610c3fa9aa356c9ebde029b7,2024-02-18_20h13.55.581,kallum_motion_pilot,2023.2.2,Win32,144.9275362,610c3fa9aa356c9ebde029b7,65d2b6c8f2eece985d8e374c,65d2b948739cdfcf63afc37b,0.0282,0.0283,0,106,106,79,1,eightseven,,,,,,,,,,,,,,,,,,,,,,,,,,,,,,,,,,,,,,,,,,,,,,,,,,,,,,,,,,,,,,,,,,,,,,,,,,,,,,,,,,,,,,,,,,,,,,,,,,,,,,,,,,,,,,,,,,,,,,,,,,,,,,,,,,,,,,,,,
,,610c3fa9aa356c9ebde029b7,2024-02-18_20h13.55.581,kallum_motion_pilot,2023.2.2,Win32,144.9275362,610c3fa9aa356c9ebde029b7,65d2b6c8f2eece985d8e374c,65d2b948739cdfcf63afc37b,0.0283,0.0283,0,107,107,51,1,twofour,,,,,,,,,,,,,,,,,,,,,,,,,,,,,,,,,,,,,,,,,,,,,,,,,,,,,,,,,,,,,,,,,,,,,,,,,,,,,,,,,,,,,,,,,,,,,,,,,,,,,,,,,,,,,,,,,,,,,,,,,,,,,,,,,,,,,,,,,
,,610c3fa9aa356c9ebde029b7,2024-02-18_20h13.55.581,kallum_motion_pilot,2023.2.2,Win32,144.9275362,610c3fa9aa356c9ebde029b7,65d2b6c8f2eece985d8e374c,65d2b948739cdfcf63afc37b,0.0284,0.0285,0,108,108,15,1,fourthree,,,,,,,,,,,,,,,,,,,,,,,,,,,,,,,,,,,,,,,,,,,,,,,,,,,,,,,,,,,,,,,,,,,,,,,,,,,,,,,,,,,,,,,,,,,,,,,,,,,,,,,,,,,,,,,,,,,,,,,,,,,,,,,,,,,,,,,,,
,,610c3fa9aa356c9ebde029b7,2024-02-18_20h13.55.581,kallum_motion_pilot,2023.2.2,Win32,144.9275362,610c3fa9aa356c9ebde029b7,65d2b6c8f2eece985d8e374c,65d2b948739cdfcf63afc37b,0.0285,0.0285,0,109,109,66,1,twoone,,,,,,,,,,,,,,,,,,,,,,,,,,,,,,,,,,,,,,,,,,,,,,,,,,,,,,,,,,,,,,,,,,,,,,,,,,,,,,,,,,,,,,,,,,,,,,,,,,,,,,,,,,,,,,,,,,,,,,,,,,,,,,,,,,,,,,,,,
,,610c3fa9aa356c9ebde029b7,2024-02-18_20h13.55.581,kallum_motion_pilot,2023.2.2,Win32,144.9275362,610c3fa9aa356c9ebde029b7,65d2b6c8f2eece985d8e374c,65d2b948739cdfcf63afc37b,0.0285,0.0285,0,110,110,150,1,eightsix,,,,,,,,,,,,,,,,,,,,,,,,,,,,,,,,,,,,,,,,,,,,,,,,,,,,,,,,,,,,,,,,,,,,,,,,,,,,,,,,,,,,,,,,,,,,,,,,,,,,,,,,,,,,,,,,,,,,,,,,,,,,,,,,,,,,,,,,,
,,610c3fa9aa356c9ebde029b7,2024-02-18_20h13.55.581,kallum_motion_pilot,2023.2.2,Win32,144.9275362,610c3fa9aa356c9ebde029b7,65d2b6c8f2eece985d8e374c,65d2b948739cdfcf63afc37b,0.0286,0.0286,0,111,111,45,1,threefour,,,,,,,,,,,,,,,,,,,,,,,,,,,,,,,,,,,,,,,,,,,,,,,,,,,,,,,,,,,,,,,,,,,,,,,,,,,,,,,,,,,,,,,,,,,,,,,,,,,,,,,,,,,,,,,,,,,,,,,,,,,,,,,,,,,,,,,,,
,,610c3fa9aa356c9ebde029b7,2024-02-18_20h13.55.581,kallum_motion_pilot,2023.2.2,Win32,144.9275362,610c3fa9aa356c9ebde029b7,65d2b6c8f2eece985d8e374c,65d2b948739cdfcf63afc37b,0.0287,0.0287,0,112,112,71,1,fourthree,,,,,,,,,,,,,,,,,,,,,,,,,,,,,,,,,,,,,,,,,,,,,,,,,,,,,,,,,,,,,,,,,,,,,,,,,,,,,,,,,,,,,,,,,,,,,,,,,,,,,,,,,,,,,,,,,,,,,,,,,,,,,,,,,,,,,,,,,
,,610c3fa9aa356c9ebde029b7,2024-02-18_20h13.55.581,kallum_motion_pilot,2023.2.2,Win32,144.9275362,610c3fa9aa356c9ebde029b7,65d2b6c8f2eece985d8e374c,65d2b948739cdfcf63afc37b,0.0288,0.0288,0,113,113,98,1,sixfive,,,,,,,,,,,,,,,,,,,,,,,,,,,,,,,,,,,,,,,,,,,,,,,,,,,,,,,,,,,,,,,,,,,,,,,,,,,,,,,,,,,,,,,,,,,,,,,,,,,,,,,,,,,,,,,,,,,,,,,,,,,,,,,,,,,,,,,,,
,,610c3fa9aa356c9ebde029b7,2024-02-18_20h13.55.581,kallum_motion_pilot,2023.2.2,Win32,144.9275362,610c3fa9aa356c9ebde029b7,65d2b6c8f2eece985d8e374c,65d2b948739cdfcf63afc37b,0.0289,0.0289,0,114,114,4,1,threeone,,,,,,,,,,,,,,,,,,,,,,,,,,,,,,,,,,,,,,,,,,,,,,,,,,,,,,,,,,,,,,,,,,,,,,,,,,,,,,,,,,,,,,,,,,,,,,,,,,,,,,,,,,,,,,,,,,,,,,,,,,,,,,,,,,,,,,,,,
,,610c3fa9aa356c9ebde029b7,2024-02-18_20h13.55.581,kallum_motion_pilot,2023.2.2,Win32,144.9275362,610c3fa9aa356c9ebde029b7,65d2b6c8f2eece985d8e374c,65d2b948739cdfcf63afc37b,0.0289,0.029,0,115,115,124,1,sevenfive,,,,,,,,,,,,,,,,,,,,,,,,,,,,,,,,,,,,,,,,,,,,,,,,,,,,,,,,,,,,,,,,,,,,,,,,,,,,,,,,,,,,,,,,,,,,,,,,,,,,,,,,,,,,,,,,,,,,,,,,,,,,,,,,,,,,,,,,,
,,610c3fa9aa356c9ebde029b7,2024-02-18_20h13.55.581,kallum_motion_pilot,2023.2.2,Win32,144.9275362,610c3fa9aa356c9ebde029b7,65d2b6c8f2eece985d8e374c,65d2b948739cdfcf63afc37b,0.029,0.029,0,116,116,94,1,eightsix,,,,,,,,,,,,,,,,,,,,,,,,,,,,,,,,,,,,,,,,,,,,,,,,,,,,,,,,,,,,,,,,,,,,,,,,,,,,,,,,,,,,,,,,,,,,,,,,,,,,,,,,,,,,,,,,,,,,,,,,,,,,,,,,,,,,,,,,,
,,610c3fa9aa356c9ebde029b7,2024-02-18_20h13.55.581,kallum_motion_pilot,2023.2.2,Win32,144.9275362,610c3fa9aa356c9ebde029b7,65d2b6c8f2eece985d8e374c,65d2b948739cdfcf63afc37b,0.0291,0.0292,0,117,117,35,1,twofour,,,,,,,,,,,,,,,,,,,,,,,,,,,,,,,,,,,,,,,,,,,,,,,,,,,,,,,,,,,,,,,,,,,,,,,,,,,,,,,,,,,,,,,,,,,,,,,,,,,,,,,,,,,,,,,,,,,,,,,,,,,,,,,,,,,,,,,,,
,,610c3fa9aa356c9ebde029b7,2024-02-18_20h13.55.581,kallum_motion_pilot,2023.2.2,Win32,144.9275362,610c3fa9aa356c9ebde029b7,65d2b6c8f2eece985d8e374c,65d2b948739cdfcf63afc37b,0.0292,0.0293,0,118,118,134,1,eightsix,,,,,,,,,,,,,,,,,,,,,,,,,,,,,,,,,,,,,,,,,,,,,,,,,,,,,,,,,,,,,,,,,,,,,,,,,,,,,,,,,,,,,,,,,,,,,,,,,,,,,,,,,,,,,,,,,,,,,,,,,,,,,,,,,,,,,,,,,
,,610c3fa9aa356c9ebde029b7,2024-02-18_20h13.55.581,kallum_motion_pilot,2023.2.2,Win32,144.9275362,610c3fa9aa356c9ebde029b7,65d2b6c8f2eece985d8e374c,65d2b948739cdfcf63afc37b,0.0293,0.0293,0,119,119,30,1,fourtwo,,,,,,,,,,,,,,,,,,,,,,,,,,,,,,,,,,,,,,,,,,,,,,,,,,,,,,,,,,,,,,,,,,,,,,,,,,,,,,,,,,,,,,,,,,,,,,,,,,,,,,,,,,,,,,,,,,,,,,,,,,,,,,,,,,,,,,,,,
,,610c3fa9aa356c9ebde029b7,2024-02-18_20h13.55.581,kallum_motion_pilot,2023.2.2,Win32,144.9275362,610c3fa9aa356c9ebde029b7,65d2b6c8f2eece985d8e374c,65d2b948739cdfcf63afc37b,0.0293,0.0294,0,120,120,118,1,eightsix,,,,,,,,,,,,,,,,,,,,,,,,,,,,,,,,,,,,,,,,,,,,,,,,,,,,,,,,,,,,,,,,,,,,,,,,,,,,,,,,,,,,,,,,,,,,,,,,,,,,,,,,,,,,,,,,,,,,,,,,,,,,,,,,,,,,,,,,,
,,610c3fa9aa356c9ebde029b7,2024-02-18_20h13.55.581,kallum_motion_pilot,2023.2.2,Win32,144.9275362,610c3fa9aa356c9ebde029b7,65d2b6c8f2eece985d8e374c,65d2b948739cdfcf63afc37b,0.0294,0.0294,0,121,121,65,1,onethree,,,,,,,,,,,,,,,,,,,,,,,,,,,,,,,,,,,,,,,,,,,,,,,,,,,,,,,,,,,,,,,,,,,,,,,,,,,,,,,,,,,,,,,,,,,,,,,,,,,,,,,,,,,,,,,,,,,,,,,,,,,,,,,,,,,,,,,,,
,,610c3fa9aa356c9ebde029b7,2024-02-18_20h13.55.581,kallum_motion_pilot,2023.2.2,Win32,144.9275362,610c3fa9aa356c9ebde029b7,65d2b6c8f2eece985d8e374c,65d2b948739cdfcf63afc37b,0.0295,0.0295,0,122,122,136,1,fivesix,,,,,,,,,,,,,,,,,,,,,,,,,,,,,,,,,,,,,,,,,,,,,,,,,,,,,,,,,,,,,,,,,,,,,,,,,,,,,,,,,,,,,,,,,,,,,,,,,,,,,,,,,,,,,,,,,,,,,,,,,,,,,,,,,,,,,,,,,
,,610c3fa9aa356c9ebde029b7,2024-02-18_20h13.55.581,kallum_motion_pilot,2023.2.2,Win32,144.9275362,610c3fa9aa356c9ebde029b7,65d2b6c8f2eece985d8e374c,65d2b948739cdfcf63afc37b,0.0296,0.0296,0,123,123,8,1,onetwo,,,,,,,,,,,,,,,,,,,,,,,,,,,,,,,,,,,,,,,,,,,,,,,,,,,,,,,,,,,,,,,,,,,,,,,,,,,,,,,,,,,,,,,,,,,,,,,,,,,,,,,,,,,,,,,,,,,,,,,,,,,,,,,,,,,,,,,,,
,,610c3fa9aa356c9ebde029b7,2024-02-18_20h13.55.581,kallum_motion_pilot,2023.2.2,Win32,144.9275362,610c3fa9aa356c9ebde029b7,65d2b6c8f2eece985d8e374c,65d2b948739cdfcf63afc37b,0.0297,0.0297,0,124,124,50,1,twoone,,,,,,,,,,,,,,,,,,,,,,,,,,,,,,,,,,,,,,,,,,,,,,,,,,,,,,,,,,,,,,,,,,,,,,,,,,,,,,,,,,,,,,,,,,,,,,,,,,,,,,,,,,,,,,,,,,,,,,,,,,,,,,,,,,,,,,,,,
,,610c3fa9aa356c9ebde029b7,2024-02-18_20h13.55.581,kallum_motion_pilot,2023.2.2,Win32,144.9275362,610c3fa9aa356c9ebde029b7,65d2b6c8f2eece985d8e374c,65d2b948739cdfcf63afc37b,0.0297,0.0298,0,125,125,145,1,fiveseven,,,,,,,,,,,,,,,,,,,,,,,,,,,,,,,,,,,,,,,,,,,,,,,,,,,,,,,,,,,,,,,,,,,,,,,,,,,,,,,,,,,,,,,,,,,,,,,,,,,,,,,,,,,,,,,,,,,,,,,,,,,,,,,,,,,,,,,,,
,,610c3fa9aa356c9ebde029b7,2024-02-18_20h13.55.581,kallum_motion_pilot,2023.2.2,Win32,144.9275362,610c3fa9aa356c9ebde029b7,65d2b6c8f2eece985d8e374c,65d2b948739cdfcf63afc37b,0.0299,0.0299,0,126,126,107,1,sixeight,,,,,,,,,,,,,,,,,,,,,,,,,,,,,,,,,,,,,,,,,,,,,,,,,,,,,,,,,,,,,,,,,,,,,,,,,,,,,,,,,,,,,,,,,,,,,,,,,,,,,,,,,,,,,,,,,,,,,,,,,,,,,,,,,,,,,,,,,
,,610c3fa9aa356c9ebde029b7,2024-02-18_20h13.55.581,kallum_motion_pilot,2023.2.2,Win32,144.9275362,610c3fa9aa356c9ebde029b7,65d2b6c8f2eece985d8e374c,65d2b948739cdfcf63afc37b,0.03,0.03,0,127,127,153,1,fiveseven,,,,,,,,,,,,,,,,,,,,,,,,,,,,,,,,,,,,,,,,,,,,,,,,,,,,,,,,,,,,,,,,,,,,,,,,,,,,,,,,,,,,,,,,,,,,,,,,,,,,,,,,,,,,,,,,,,,,,,,,,,,,,,,,,,,,,,,,,
,,610c3fa9aa356c9ebde029b7,2024-02-18_20h13.55.581,kallum_motion_pilot,2023.2.2,Win32,144.9275362,610c3fa9aa356c9ebde029b7,65d2b6c8f2eece985d8e374c,65d2b948739cdfcf63afc37b,0.03,0.03,0,128,128,128,1,fivesix,,,,,,,,,,,,,,,,,,,,,,,,,,,,,,,,,,,,,,,,,,,,,,,,,,,,,,,,,,,,,,,,,,,,,,,,,,,,,,,,,,,,,,,,,,,,,,,,,,,,,,,,,,,,,,,,,,,,,,,,,,,,,,,,,,,,,,,,,
,,610c3fa9aa356c9ebde029b7,2024-02-18_20h13.55.581,kallum_motion_pilot,2023.2.2,Win32,144.9275362,610c3fa9aa356c9ebde029b7,65d2b6c8f2eece985d8e374c,65d2b948739cdfcf63afc37b,0.0301,0.0302,0,129,129,88,1,fivesix,,,,,,,,,,,,,,,,,,,,,,,,,,,,,,,,,,,,,,,,,,,,,,,,,,,,,,,,,,,,,,,,,,,,,,,,,,,,,,,,,,,,,,,,,,,,,,,,,,,,,,,,,,,,,,,,,,,,,,,,,,,,,,,,,,,,,,,,,
,,610c3fa9aa356c9ebde029b7,2024-02-18_20h13.55.581,kallum_motion_pilot,2023.2.2,Win32,144.9275362,610c3fa9aa356c9ebde029b7,65d2b6c8f2eece985d8e374c,65d2b948739cdfcf63afc37b,0.0302,0.0302,0,130,130,127,1,eightseven,,,,,,,,,,,,,,,,,,,,,,,,,,,,,,,,,,,,,,,,,,,,,,,,,,,,,,,,,,,,,,,,,,,,,,,,,,,,,,,,,,,,,,,,,,,,,,,,,,,,,,,,,,,,,,,,,,,,,,,,,,,,,,,,,,,,,,,,,
,,610c3fa9aa356c9ebde029b7,2024-02-18_20h13.55.581,kallum_motion_pilot,2023.2.2,Win32,144.9275362,610c3fa9aa356c9ebde029b7,65d2b6c8f2eece985d8e374c,65d2b948739cdfcf63afc37b,0.0303,0.0304,0,131,131,74,1,twoone,,,,,,,,,,,,,,,,,,,,,,,,,,,,,,,,,,,,,,,,,,,,,,,,,,,,,,,,,,,,,,,,,,,,,,,,,,,,,,,,,,,,,,,,,,,,,,,,,,,,,,,,,,,,,,,,,,,,,,,,,,,,,,,,,,,,,,,,,
,,610c3fa9aa356c9ebde029b7,2024-02-18_20h13.55.581,kallum_motion_pilot,2023.2.2,Win32,144.9275362,610c3fa9aa356c9ebde029b7,65d2b6c8f2eece985d8e374c,65d2b948739cdfcf63afc37b,0.0304,0.0304,0,132,132,89,1,fiveseven,,,,,,,,,,,,,,,,,,,,,,,,,,,,,,,,,,,,,,,,,,,,,,,,,,,,,,,,,,,,,,,,,,,,,,,,,,,,,,,,,,,,,,,,,,,,,,,,,,,,,,,,,,,,,,,,,,,,,,,,,,,,,,,,,,,,,,,,,
,,610c3fa9aa356c9ebde029b7,2024-02-18_20h13.55.581,kallum_motion_pilot,2023.2.2,Win32,144.9275362,610c3fa9aa356c9ebde029b7,65d2b6c8f2eece985d8e374c,65d2b948739cdfcf63afc37b,0.0304,0.0305,0,133,133,77,1,threefour,,,,,,,,,,,,,,,,,,,,,,,,,,,,,,,,,,,,,,,,,,,,,,,,,,,,,,,,,,,,,,,,,,,,,,,,,,,,,,,,,,,,,,,,,,,,,,,,,,,,,,,,,,,,,,,,,,,,,,,,,,,,,,,,,,,,,,,,,
,,610c3fa9aa356c9ebde029b7,2024-02-18_20h13.55.581,kallum_motion_pilot,2023.2.2,Win32,144.9275362,610c3fa9aa356c9ebde029b7,65d2b6c8f2eece985d8e374c,65d2b948739cdfcf63afc37b,0.0305,0.0305,0,134,134,144,1,fivesix,,,,,,,,,,,,,,,,,,,,,,,,,,,,,,,,,,,,,,,,,,,,,,,,,,,,,,,,,,,,,,,,,,,,,,,,,,,,,,,,,,,,,,,,,,,,,,,,,,,,,,,,,,,,,,,,,,,,,,,,,,,,,,,,,,,,,,,,,
,,610c3fa9aa356c9ebde029b7,2024-02-18_20h13.55.581,kallum_motion_pilot,2023.2.2,Win32,144.9275362,610c3fa9aa356c9ebde029b7,65d2b6c8f2eece985d8e374c,65d2b948739cdfcf63afc37b,0.0307,0.0307,0,135,135,43,1,twofour,,,,,,,,,,,,,,,,,,,,,,,,,,,,,,,,,,,,,,,,,,,,,,,,,,,,,,,,,,,,,,,,,,,,,,,,,,,,,,,,,,,,,,,,,,,,,,,,,,,,,,,,,,,,,,,,,,,,,,,,,,,,,,,,,,,,,,,,,
,,610c3fa9aa356c9ebde029b7,2024-02-18_20h13.55.581,kallum_motion_pilot,2023.2.2,Win32,144.9275362,610c3fa9aa356c9ebde029b7,65d2b6c8f2eece985d8e374c,65d2b948739cdfcf63afc37b,0.0307,0.0308,0,136,136,31,1,fourthree,,,,,,,,,,,,,,,,,,,,,,,,,,,,,,,,,,,,,,,,,,,,,,,,,,,,,,,,,,,,,,,,,,,,,,,,,,,,,,,,,,,,,,,,,,,,,,,,,,,,,,,,,,,,,,,,,,,,,,,,,,,,,,,,,,,,,,,,,
,,610c3fa9aa356c9ebde029b7,2024-02-18_20h13.55.581,kallum_motion_pilot,2023.2.2,Win32,144.9275362,610c3fa9aa356c9ebde029b7,65d2b6c8f2eece985d8e374c,65d2b948739cdfcf63afc37b,0.0308,0.0308,0,137,137,2,1,twoone,,,,,,,,,,,,,,,,,,,,,,,,,,,,,,,,,,,,,,,,,,,,,,,,,,,,,,,,,,,,,,,,,,,,,,,,,,,,,,,,,,,,,,,,,,,,,,,,,,,,,,,,,,,,,,,,,,,,,,,,,,,,,,,,,,,,,,,,,
,,610c3fa9aa356c9ebde029b7,2024-02-18_20h13.55.581,kallum_motion_pilot,2023.2.2,Win32,144.9275362,610c3fa9aa356c9ebde029b7,65d2b6c8f2eece985d8e374c,65d2b948739cdfcf63afc37b,0.0308,0.0309,0,138,138,133,1,seveneight,,,,,,,,,,,,,,,,,,,,,,,,,,,,,,,,,,,,,,,,,,,,,,,,,,,,,,,,,,,,,,,,,,,,,,,,,,,,,,,,,,,,,,,,,,,,,,,,,,,,,,,,,,,,,,,,,,,,,,,,,,,,,,,,,,,,,,,,,
,,610c3fa9aa356c9ebde029b7,2024-02-18_20h13.55.581,kallum_motion_pilot,2023.2.2,Win32,144.9275362,610c3fa9aa356c9ebde029b7,65d2b6c8f2eece985d8e374c,65d2b948739cdfcf63afc37b,0.031,0.031,0,139,139,161,1,fiveseven,,,,,,,,,,,,,,,,,,,,,,,,,,,,,,,,,,,,,,,,,,,,,,,,,,,,,,,,,,,,,,,,,,,,,,,,,,,,,,,,,,,,,,,,,,,,,,,,,,,,,,,,,,,,,,,,,,,,,,,,,,,,,,,,,,,,,,,,,
,,610c3fa9aa356c9ebde029b7,2024-02-18_20h13.55.581,kallum_motion_pilot,2023.2.2,Win32,144.9275362,610c3fa9aa356c9ebde029b7,65d2b6c8f2eece985d8e374c,65d2b948739cdfcf63afc37b,0.0311,0.0311,0,140,140,3,1,twofour,,,,,,,,,,,,,,,,,,,,,,,,,,,,,,,,,,,,,,,,,,,,,,,,,,,,,,,,,,,,,,,,,,,,,,,,,,,,,,,,,,,,,,,,,,,,,,,,,,,,,,,,,,,,,,,,,,,,,,,,,,,,,,,,,,,,,,,,,
,,610c3fa9aa356c9ebde029b7,2024-02-18_20h13.55.581,kallum_motion_pilot,2023.2.2,Win32,144.9275362,610c3fa9aa356c9ebde029b7,65d2b6c8f2eece985d8e374c,65d2b948739cdfcf63afc37b,0.0311,0.0313,0,141,141,114,1,sixfive,,,,,,,,,,,,,,,,,,,,,,,,,,,,,,,,,,,,,,,,,,,,,,,,,,,,,,,,,,,,,,,,,,,,,,,,,,,,,,,,,,,,,,,,,,,,,,,,,,,,,,,,,,,,,,,,,,,,,,,,,,,,,,,,,,,,,,,,,
,,610c3fa9aa356c9ebde029b7,2024-02-18_20h13.55.581,kallum_motion_pilot,2023.2.2,Win32,144.9275362,610c3fa9aa356c9ebde029b7,65d2b6c8f2eece985d8e374c,65d2b948739cdfcf63afc37b,0.0313,0.0313,0,142,142,141,1,seveneight,,,,,,,,,,,,,,,,,,,,,,,,,,,,,,,,,,,,,,,,,,,,,,,,,,,,,,,,,,,,,,,,,,,,,,,,,,,,,,,,,,,,,,,,,,,,,,,,,,,,,,,,,,,,,,,,,,,,,,,,,,,,,,,,,,,,,,,,,
,,610c3fa9aa356c9ebde029b7,2024-02-18_20h13.55.581,kallum_motion_pilot,2023.2.2,Win32,144.9275362,610c3fa9aa356c9ebde029b7,65d2b6c8f2eece985d8e374c,65d2b948739cdfcf63afc37b,0.0313,0.0314,0,143,143,111,1,eightseven,,,,,,,,,,,,,,,,,,,,,,,,,,,,,,,,,,,,,,,,,,,,,,,,,,,,,,,,,,,,,,,,,,,,,,,,,,,,,,,,,,,,,,,,,,,,,,,,,,,,,,,,,,,,,,,,,,,,,,,,,,,,,,,,,,,,,,,,,
,,610c3fa9aa356c9ebde029b7,2024-02-18_20h13.55.581,kallum_motion_pilot,2023.2.2,Win32,144.9275362,610c3fa9aa356c9ebde029b7,65d2b6c8f2eece985d8e374c,65d2b948739cdfcf63afc37b,0.0314,0.0315,0,144,144,6,1,fourtwo,,,,,,,,,,,,,,,,,,,,,,,,,,,,,,,,,,,,,,,,,,,,,,,,,,,,,,,,,,,,,,,,,,,,,,,,,,,,,,,,,,,,,,,,,,,,,,,,,,,,,,,,,,,,,,,,,,,,,,,,,,,,,,,,,,,,,,,,,
,,610c3fa9aa356c9ebde029b7,2024-02-18_20h13.55.581,kallum_motion_pilot,2023.2.2,Win32,144.9275362,610c3fa9aa356c9ebde029b7,65d2b6c8f2eece985d8e374c,65d2b948739cdfcf63afc37b,0.0316,0.0316,0,145,145,115,1,sixeight,,,,,,,,,,,,,,,,,,,,,,,,,,,,,,,,,,,,,,,,,,,,,,,,,,,,,,,,,,,,,,,,,,,,,,,,,,,,,,,,,,,,,,,,,,,,,,,,,,,,,,,,,,,,,,,,,,,,,,,,,,,,,,,,,,,,,,,,,
,,610c3fa9aa356c9ebde029b7,2024-02-18_20h13.55.581,kallum_motion_pilot,2023.2.2,Win32,144.9275362,610c3fa9aa356c9ebde029b7,65d2b6c8f2eece985d8e374c,65d2b948739cdfcf63afc37b,0.0316,0.0317,0,146,146,91,1,sixeight,,,,,,,,,,,,,,,,,,,,,,,,,,,,,,,,,,,,,,,,,,,,,,,,,,,,,,,,,,,,,,,,,,,,,,,,,,,,,,,,,,,,,,,,,,,,,,,,,,,,,,,,,,,,,,,,,,,,,,,,,,,,,,,,,,,,,,,,,
,,610c3fa9aa356c9ebde029b7,2024-02-18_20h13.55.581,kallum_motion_pilot,2023.2.2,Win32,144.9275362,610c3fa9aa356c9ebde029b7,65d2b6c8f2eece985d8e374c,65d2b948739cdfcf63afc37b,0.0317,0.0318,0,147,147,18,1,twoone,,,,,,,,,,,,,,,,,,,,,,,,,,,,,,,,,,,,,,,,,,,,,,,,,,,,,,,,,,,,,,,,,,,,,,,,,,,,,,,,,,,,,,,,,,,,,,,,,,,,,,,,,,,,,,,,,,,,,,,,,,,,,,,,,,,,,,,,,
,,610c3fa9aa356c9ebde029b7,2024-02-18_20h13.55.581,kallum_motion_pilot,2023.2.2,Win32,144.9275362,610c3fa9aa356c9ebde029b7,65d2b6c8f2eece985d8e374c,65d2b948739cdfcf63afc37b,0.0318,0.0318,0,148,148,112,1,fivesix,,,,,,,,,,,,,,,,,,,,,,,,,,,,,,,,,,,,,,,,,,,,,,,,,,,,,,,,,,,,,,,,,,,,,,,,,,,,,,,,,,,,,,,,,,,,,,,,,,,,,,,,,,,,,,,,,,,,,,,,,,,,,,,,,,,,,,,,,
,,610c3fa9aa356c9ebde029b7,2024-02-18_20h13.55.581,kallum_motion_pilot,2023.2.2,Win32,144.9275362,610c3fa9aa356c9ebde029b7,65d2b6c8f2eece985d8e374c,65d2b948739cdfcf63afc37b,0.0319,0.0319,0,149,149,93,1,seveneight,,,,,,,,,,,,,,,,,,,,,,,,,,,,,,,,,,,,,,,,,,,,,,,,,,,,,,,,,,,,,,,,,,,,,,,,,,,,,,,,,,,,,,,,,,,,,,,,,,,,,,,,,,,,,,,,,,,,,,,,,,,,,,,,,,,,,,,,,
,,610c3fa9aa356c9ebde029b7,2024-02-18_20h13.55.581,kallum_motion_pilot,2023.2.2,Win32,144.9275362,610c3fa9aa356c9ebde029b7,65d2b6c8f2eece985d8e374c,65d2b948739cdfcf63afc37b,0.032,0.0321,0,150,150,142,1,eightsix,,,,,,,,,,,,,,,,,,,,,,,,,,,,,,,,,,,,,,,,,,,,,,,,,,,,,,,,,,,,,,,,,,,,,,,,,,,,,,,,,,,,,,,,,,,,,,,,,,,,,,,,,,,,,,,,,,,,,,,,,,,,,,,,,,,,,,,,,
,,610c3fa9aa356c9ebde029b7,2024-02-18_20h13.55.581,kallum_motion_pilot,2023.2.2,Win32,144.9275362,610c3fa9aa356c9ebde029b7,65d2b6c8f2eece985d8e374c,65d2b948739cdfcf63afc37b,0.0321,0.0321,0,151,151,146,1,sixfive,,,,,,,,,,,,,,,,,,,,,,,,,,,,,,,,,,,,,,,,,,,,,,,,,,,,,,,,,,,,,,,,,,,,,,,,,,,,,,,,,,,,,,,,,,,,,,,,,,,,,,,,,,,,,,,,,,,,,,,,,,,,,,,,,,,,,,,,,
,,610c3fa9aa356c9ebde029b7,2024-02-18_20h13.55.581,kallum_motion_pilot,2023.2.2,Win32,144.9275362,610c3fa9aa356c9ebde029b7,65d2b6c8f2eece985d8e374c,65d2b948739cdfcf63afc37b,0.0321,0.0322,0,152,152,81,1,fiveseven,,,,,,,,,,,,,,,,,,,,,,,,,,,,,,,,,,,,,,,,,,,,,,,,,,,,,,,,,,,,,,,,,,,,,,,,,,,,,,,,,,,,,,,,,,,,,,,,,,,,,,,,,,,,,,,,,,,,,,,,,,,,,,,,,,,,,,,,,
,,610c3fa9aa356c9ebde029b7,2024-02-18_20h13.55.581,kallum_motion_pilot,2023.2.2,Win32,144.9275362,610c3fa9aa356c9ebde029b7,65d2b6c8f2eece985d8e374c,65d2b948739cdfcf63afc37b,0.0323,0.0323,0,153,153,140,1,sevenfive,,,,,,,,,,,,,,,,,,,,,,,,,,,,,,,,,,,,,,,,,,,,,,,,,,,,,,,,,,,,,,,,,,,,,,,,,,,,,,,,,,,,,,,,,,,,,,,,,,,,,,,,,,,,,,,,,,,,,,,,,,,,,,,,,,,,,,,,,
,,610c3fa9aa356c9ebde029b7,2024-02-18_20h13.55.581,kallum_motion_pilot,2023.2.2,Win32,144.9275362,610c3fa9aa356c9ebde029b7,65d2b6c8f2eece985d8e374c,65d2b948739cdfcf63afc37b,0.0323,0.0323,0,154,154,10,1,twoone,,,,,,,,,,,,,,,,,,,,,,,,,,,,,,,,,,,,,,,,,,,,,,,,,,,,,,,,,,,,,,,,,,,,,,,,,,,,,,,,,,,,,,,,,,,,,,,,,,,,,,,,,,,,,,,,,,,,,,,,,,,,,,,,,,,,,,,,,
,,610c3fa9aa356c9ebde029b7,2024-02-18_20h13.55.581,kallum_motion_pilot,2023.2.2,Win32,144.9275362,610c3fa9aa356c9ebde029b7,65d2b6c8f2eece985d8e374c,65d2b948739cdfcf63afc37b,0.0325,0.0325,0,155,155,19,1,twofour,,,,,,,,,,,,,,,,,,,,,,,,,,,,,,,,,,,,,,,,,,,,,,,,,,,,,,,,,,,,,,,,,,,,,,,,,,,,,,,,,,,,,,,,,,,,,,,,,,,,,,,,,,,,,,,,,,,,,,,,,,,,,,,,,,,,,,,,,
,,610c3fa9aa356c9ebde029b7,2024-02-18_20h13.55.581,kallum_motion_pilot,2023.2.2,Win32,144.9275362,610c3fa9aa356c9ebde029b7,65d2b6c8f2eece985d8e374c,65d2b948739cdfcf63afc37b,0.0325,0.0326,0,156,156,26,1,twoone,,,,,,,,,,,,,,,,,,,,,,,,,,,,,,,,,,,,,,,,,,,,,,,,,,,,,,,,,,,,,,,,,,,,,,,,,,,,,,,,,,,,,,,,,,,,,,,,,,,,,,,,,,,,,,,,,,,,,,,,,,,,,,,,,,,,,,,,,
,,610c3fa9aa356c9ebde029b7,2024-02-18_20h13.55.581,kallum_motion_pilot,2023.2.2,Win32,144.9275362,610c3fa9aa356c9ebde029b7,65d2b6c8f2eece985d8e374c,65d2b948739cdfcf63afc37b,0.0326,0.0326,0,157,157,85,1,seveneight,,,,,,,,,,,,,,,,,,,,,,,,,,,,,,,,,,,,,,,,,,,,,,,,,,,,,,,,,,,,,,,,,,,,,,,,,,,,,,,,,,,,,,,,,,,,,,,,,,,,,,,,,,,,,,,,,,,,,,,,,,,,,,,,,,,,,,,,,
,,610c3fa9aa356c9ebde029b7,2024-02-18_20h13.55.581,kallum_motion_pilot,2023.2.2,Win32,144.9275362,610c3fa9aa356c9ebde029b7,65d2b6c8f2eece985d8e374c,65d2b948739cdfcf63afc37b,0.0327,0.0328,0,158,158,61,1,threefour,,,,,,,,,,,,,,,,,,,,,,,,,,,,,,,,,,,,,,,,,,,,,,,,,,,,,,,,,,,,,,,,,,,,,,,,,,,,,,,,,,,,,,,,,,,,,,,,,,,,,,,,,,,,,,,,,,,,,,,,,,,,,,,,,,,,,,,,,
,,610c3fa9aa356c9ebde029b7,2024-02-18_20h13.55.581,kallum_motion_pilot,2023.2.2,Win32,144.9275362,610c3fa9aa356c9ebde029b7,65d2b6c8f2eece985d8e374c,65d2b948739cdfcf63afc37b,0.0328,0.0329,0,159,159,46,1,fourtwo,,,,,,,,,,,,,,,,,,,,,,,,,,,,,,,,,,,,,,,,,,,,,,,,,,,,,,,,,,,,,,,,,,,,,,,,,,,,,,,,,,,,,,,,,,,,,,,,,,,,,,,,,,,,,,,,,,,,,,,,,,,,,,,,,,,,,,,,,
,,610c3fa9aa356c9ebde029b7,2024-02-18_20h13.55.581,kallum_motion_pilot,2023.2.2,Win32,144.9275362,610c3fa9aa356c9ebde029b7,65d2b6c8f2eece985d8e374c,65d2b948739cdfcf63afc37b,0.0329,0.0329,0,160,160,73,1,onethree,,,,,,,,,,,,,,,,,,,,,,,,,,,,,,,,,,,,,,,,,,,,,,,,,,,,,,,,,,,,,,,,,,,,,,,,,,,,,,,,,,,,,,,,,,,,,,,,,,,,,,,,,,,,,,,,,,,,,,,,,,,,,,,,,,,,,,,,,
,,610c3fa9aa356c9ebde029b7,2024-02-18_20h13.55.581,kallum_motion_pilot,2023.2.2,Win32,144.9275362,610c3fa9aa356c9ebde029b7,65d2b6c8f2eece985d8e374c,65d2b948739cdfcf63afc37b,0.0329,0.033,0,161,161,159,1,eightseven,,,,,,,,,,,,,,,,,,,,,,,,,,,,,,,,,,,,,,,,,,,,,,,,,,,,,,,,,,,,,,,,,,,,,,,,,,,,,,,,,,,,,,,,,,,,,,,,,,,,,,,,,,,,,,,,,,,,,,,,,,,,,,,,,,,,,,,,,
,,610c3fa9aa356c9ebde029b7,2024-02-18_20h13.55.581,kallum_motion_pilot,2023.2.2,Win32,144.9275362,610c3fa9aa356c9ebde029b7,65d2b6c8f2eece985d8e374c,65d2b948739cdfcf63afc37b,0.0331,0.0332,1,0,162,66,1,twoone,,,,,,,,,,,,,,,,,,,,,,,,,,,,,,,,,,,,,,,,,,,,,,,,,,,,,,,,,,,,,,,,,,,,,,,,,,,,,,,,,,,,,,,,,,,,,,,,,,,,,,,,,,,,,,,,,,,,,,,,,,,,,,,,,,,,,,,,,
,,610c3fa9aa356c9ebde029b7,2024-02-18_20h13.55.581,kallum_motion_pilot,2023.2.2,Win32,144.9275362,610c3fa9aa356c9ebde029b7,65d2b6c8f2eece985d8e374c,65d2b948739cdfcf63afc37b,0.0332,0.0332,1,1,163,63,1,fourthree,,,,,,,,,,,,,,,,,,,,,,,,,,,,,,,,,,,,,,,,,,,,,,,,,,,,,,,,,,,,,,,,,,,,,,,,,,,,,,,,,,,,,,,,,,,,,,,,,,,,,,,,,,,,,,,,,,,,,,,,,,,,,,,,,,,,,,,,,
,,610c3fa9aa356c9ebde029b7,2024-02-18_20h13.55.581,kallum_motion_pilot,2023.2.2,Win32,144.9275362,610c3fa9aa356c9ebde029b7,65d2b6c8f2eece985d8e374c,65d2b948739cdfcf63afc37b,0.0332,0.0333,1,2,164,112,1,fivesix,,,,,,,,,,,,,,,,,,,,,,,,,,,,,,,,,,,,,,,,,,,,,,,,,,,,,,,,,,,,,,,,,,,,,,,,,,,,,,,,,,,,,,,,,,,,,,,,,,,,,,,,,,,,,,,,,,,,,,,,,,,,,,,,,,,,,,,,,
,,610c3fa9aa356c9ebde029b7,2024-02-18_20h13.55.581,kallum_motion_pilot,2023.2.2,Win32,144.9275362,610c3fa9aa356c9ebde029b7,65d2b6c8f2eece985d8e374c,65d2b948739cdfcf63afc37b,0.0333,0.0333,1,3,165,84,1,sevenfive,,,,,,,,,,,,,,,,,,,,,,,,,,,,,,,,,,,,,,,,,,,,,,,,,,,,,,,,,,,,,,,,,,,,,,,,,,,,,,,,,,,,,,,,,,,,,,,,,,,,,,,,,,,,,,,,,,,,,,,,,,,,,,,,,,,,,,,,,
,,610c3fa9aa356c9ebde029b7,2024-02-18_20h13.55.581,kallum_motion_pilot,2023.2.2,Win32,144.9275362,610c3fa9aa356c9ebde029b7,65d2b6c8f2eece985d8e374c,65d2b948739cdfcf63afc37b,0.0335,0.0335,1,4,166,33,1,onethree,,,,,,,,,,,,,,,,,,,,,,,,,,,,,,,,,,,,,,,,,,,,,,,,,,,,,,,,,,,,,,,,,,,,,,,,,,,,,,,,,,,,,,,,,,,,,,,,,,,,,,,,,,,,,,,,,,,,,,,,,,,,,,,,,,,,,,,,,
,,610c3fa9aa356c9ebde029b7,2024-02-18_20h13.55.581,kallum_motion_pilot,2023.2.2,Win32,144.9275362,610c3fa9aa356c9ebde029b7,65d2b6c8f2eece985d8e374c,65d2b948739cdfcf63afc37b,0.0336,0.0336,1,5,167,4,1,threeone,,,,,,,,,,,,,,,,,,,,,,,,,,,,,,,,,,,,,,,,,,,,,,,,,,,,,,,,,,,,,,,,,,,,,,,,,,,,,,,,,,,,,,,,,,,,,,,,,,,,,,,,,,,,,,,,,,,,,,,,,,,,,,,,,,,,,,,,,
,,610c3fa9aa356c9ebde029b7,2024-02-18_20h13.55.581,kallum_motion_pilot,2023.2.2,Win32,144.9275362,610c3fa9aa356c9ebde029b7,65d2b6c8f2eece985d8e374c,65d2b948739cdfcf63afc37b,0.0337,0.0337,1,6,168,128,1,fivesix,,,,,,,,,,,,,,,,,,,,,,,,,,,,,,,,,,,,,,,,,,,,,,,,,,,,,,,,,,,,,,,,,,,,,,,,,,,,,,,,,,,,,,,,,,,,,,,,,,,,,,,,,,,,,,,,,,,,,,,,,,,,,,,,,,,,,,,,,
,,610c3fa9aa356c9ebde029b7,2024-02-18_20h13.55.581,kallum_motion_pilot,2023.2.2,Win32,144.9275362,610c3fa9aa356c9ebde029b7,65d2b6c8f2eece985d8e374c,65d2b948739cdfcf63afc37b,0.0337,0.0338,1,7,169,40,1,onetwo,,,,,,,,,,,,,,,,,,,,,,,,,,,,,,,,,,,,,,,,,,,,,,,,,,,,,,,,,,,,,,,,,,,,,,,,,,,,,,,,,,,,,,,,,,,,,,,,,,,,,,,,,,,,,,,,,,,,,,,,,,,,,,,,,,,,,,,,,
,,610c3fa9aa356c9ebde029b7,2024-02-18_20h13.55.581,kallum_motion_pilot,2023.2.2,Win32,144.9275362,610c3fa9aa356c9ebde029b7,65d2b6c8f2eece985d8e374c,65d2b948739cdfcf63afc37b,0.0338,0.0338,1,8,170,47,1,fourthree,,,,,,,,,,,,,,,,,,,,,,,,,,,,,,,,,,,,,,,,,,,,,,,,,,,,,,,,,,,,,,,,,,,,,,,,,,,,,,,,,,,,,,,,,,,,,,,,,,,,,,,,,,,,,,,,,,,,,,,,,,,,,,,,,,,,,,,,,
,,610c3fa9aa356c9ebde029b7,2024-02-18_20h13.55.581,kallum_motion_pilot,2023.2.2,Win32,144.9275362,610c3fa9aa356c9ebde029b7,65d2b6c8f2eece985d8e374c,65d2b948739cdfcf63afc37b,0.0339,0.0339,1,9,171,108,1,sevenfive,,,,,,,,,,,,,,,,,,,,,,,,,,,,,,,,,,,,,,,,,,,,,,,,,,,,,,,,,,,,,,,,,,,,,,,,,,,,,,,,,,,,,,,,,,,,,,,,,,,,,,,,,,,,,,,,,,,,,,,,,,,,,,,,,,,,,,,,,
,,610c3fa9aa356c9ebde029b7,2024-02-18_20h13.55.581,kallum_motion_pilot,2023.2.2,Win32,144.9275362,610c3fa9aa356c9ebde029b7,65d2b6c8f2eece985d8e374c,65d2b948739cdfcf63afc37b,0.034,0.034,1,10,172,153,1,fiveseven,,,,,,,,,,,,,,,,,,,,,,,,,,,,,,,,,,,,,,,,,,,,,,,,,,,,,,,,,,,,,,,,,,,,,,,,,,,,,,,,,,,,,,,,,,,,,,,,,,,,,,,,,,,,,,,,,,,,,,,,,,,,,,,,,,,,,,,,,
,,610c3fa9aa356c9ebde029b7,2024-02-18_20h13.55.581,kallum_motion_pilot,2023.2.2,Win32,144.9275362,610c3fa9aa356c9ebde029b7,65d2b6c8f2eece985d8e374c,65d2b948739cdfcf63afc37b,0.0341,0.0341,1,11,173,21,1,threefour,,,,,,,,,,,,,,,,,,,,,,,,,,,,,,,,,,,,,,,,,,,,,,,,,,,,,,,,,,,,,,,,,,,,,,,,,,,,,,,,,,,,,,,,,,,,,,,,,,,,,,,,,,,,,,,,,,,,,,,,,,,,,,,,,,,,,,,,,
,,610c3fa9aa356c9ebde029b7,2024-02-18_20h13.55.581,kallum_motion_pilot,2023.2.2,Win32,144.9275362,610c3fa9aa356c9ebde029b7,65d2b6c8f2eece985d8e374c,65d2b948739cdfcf63afc37b,0.0342,0.0342,1,12,174,18,1,twoone,,,,,,,,,,,,,,,,,,,,,,,,,,,,,,,,,,,,,,,,,,,,,,,,,,,,,,,,,,,,,,,,,,,,,,,,,,,,,,,,,,,,,,,,,,,,,,,,,,,,,,,,,,,,,,,,,,,,,,,,,,,,,,,,,,,,,,,,,
,,610c3fa9aa356c9ebde029b7,2024-02-18_20h13.55.581,kallum_motion_pilot,2023.2.2,Win32,144.9275362,610c3fa9aa356c9ebde029b7,65d2b6c8f2eece985d8e374c,65d2b948739cdfcf63afc37b,0.0343,0.0343,1,13,175,92,1,sevenfive,,,,,,,,,,,,,,,,,,,,,,,,,,,,,,,,,,,,,,,,,,,,,,,,,,,,,,,,,,,,,,,,,,,,,,,,,,,,,,,,,,,,,,,,,,,,,,,,,,,,,,,,,,,,,,,,,,,,,,,,,,,,,,,,,,,,,,,,,
,,610c3fa9aa356c9ebde029b7,2024-02-18_20h13.55.581,kallum_motion_pilot,2023.2.2,Win32,144.9275362,610c3fa9aa356c9ebde029b7,65d2b6c8f2eece985d8e374c,65d2b948739cdfcf63afc37b,0.0344,0.0344,1,14,176,154,1,sixfive,,,,,,,,,,,,,,,,,,,,,,,,,,,,,,,,,,,,,,,,,,,,,,,,,,,,,,,,,,,,,,,,,,,,,,,,,,,,,,,,,,,,,,,,,,,,,,,,,,,,,,,,,,,,,,,,,,,,,,,,,,,,,,,,,,,,,,,,,
,,610c3fa9aa356c9ebde029b7,2024-02-18_20h13.55.581,kallum_motion_pilot,2023.2.2,Win32,144.9275362,610c3fa9aa356c9ebde029b7,65d2b6c8f2eece985d8e374c,65d2b948739cdfcf63afc37b,0.0344,0.0345,1,15,177,131,1,sixeight,,,,,,,,,,,,,,,,,,,,,,,,,,,,,,,,,,,,,,,,,,,,,,,,,,,,,,,,,,,,,,,,,,,,,,,,,,,,,,,,,,,,,,,,,,,,,,,,,,,,,,,,,,,,,,,,,,,,,,,,,,,,,,,,,,,,,,,,,
,,610c3fa9aa356c9ebde029b7,2024-02-18_20h13.55.581,kallum_motion_pilot,2023.2.2,Win32,144.9275362,610c3fa9aa356c9ebde029b7,65d2b6c8f2eece985d8e374c,65d2b948739cdfcf63afc37b,0.0346,0.0346,1,16,178,78,1,fourtwo,,,,,,,,,,,,,,,,,,,,,,,,,,,,,,,,,,,,,,,,,,,,,,,,,,,,,,,,,,,,,,,,,,,,,,,,,,,,,,,,,,,,,,,,,,,,,,,,,,,,,,,,,,,,,,,,,,,,,,,,,,,,,,,,,,,,,,,,,
,,610c3fa9aa356c9ebde029b7,2024-02-18_20h13.55.581,kallum_motion_pilot,2023.2.2,Win32,144.9275362,610c3fa9aa356c9ebde029b7,65d2b6c8f2eece985d8e374c,65d2b948739cdfcf63afc37b,0.0347,0.0347,1,17,179,20,1,threeone,,,,,,,,,,,,,,,,,,,,,,,,,,,,,,,,,,,,,,,,,,,,,,,,,,,,,,,,,,,,,,,,,,,,,,,,,,,,,,,,,,,,,,,,,,,,,,,,,,,,,,,,,,,,,,,,,,,,,,,,,,,,,,,,,,,,,,,,,
,,610c3fa9aa356c9ebde029b7,2024-02-18_20h13.55.581,kallum_motion_pilot,2023.2.2,Win32,144.9275362,610c3fa9aa356c9ebde029b7,65d2b6c8f2eece985d8e374c,65d2b948739cdfcf63afc37b,0.0348,0.0348,1,18,180,158,1,eightsix,,,,,,,,,,,,,,,,,,,,,,,,,,,,,,,,,,,,,,,,,,,,,,,,,,,,,,,,,,,,,,,,,,,,,,,,,,,,,,,,,,,,,,,,,,,,,,,,,,,,,,,,,,,,,,,,,,,,,,,,,,,,,,,,,,,,,,,,,
,,610c3fa9aa356c9ebde029b7,2024-02-18_20h13.55.581,kallum_motion_pilot,2023.2.2,Win32,144.9275362,610c3fa9aa356c9ebde029b7,65d2b6c8f2eece985d8e374c,65d2b948739cdfcf63afc37b,0.0349,0.0349,1,19,181,95,1,eightseven,,,,,,,,,,,,,,,,,,,,,,,,,,,,,,,,,,,,,,,,,,,,,,,,,,,,,,,,,,,,,,,,,,,,,,,,,,,,,,,,,,,,,,,,,,,,,,,,,,,,,,,,,,,,,,,,,,,,,,,,,,,,,,,,,,,,,,,,,
,,610c3fa9aa356c9ebde029b7,2024-02-18_20h13.55.581,kallum_motion_pilot,2023.2.2,Win32,144.9275362,610c3fa9aa356c9ebde029b7,65d2b6c8f2eece985d8e374c,65d2b948739cdfcf63afc37b,0.0349,0.0356,1,20,182,139,1,sixeight,,,,,,,,,,,,,,,,,,,,,,,,,,,,,,,,,,,,,,,,,,,,,,,,,,,,,,,,,,,,,,,,,,,,,,,,,,,,,,,,,,,,,,,,,,,,,,,,,,,,,,,,,,,,,,,,,,,,,,,,,,,,,,,,,,,,,,,,,
,,610c3fa9aa356c9ebde029b7,2024-02-18_20h13.55.581,kallum_motion_pilot,2023.2.2,Win32,144.9275362,610c3fa9aa356c9ebde029b7,65d2b6c8f2eece985d8e374c,65d2b948739cdfcf63afc37b,0.0357,0.0357,1,21,183,53,1,threefour,,,,,,,,,,,,,,,,,,,,,,,,,,,,,,,,,,,,,,,,,,,,,,,,,,,,,,,,,,,,,,,,,,,,,,,,,,,,,,,,,,,,,,,,,,,,,,,,,,,,,,,,,,,,,,,,,,,,,,,,,,,,,,,,,,,,,,,,,
,,610c3fa9aa356c9ebde029b7,2024-02-18_20h13.55.581,kallum_motion_pilot,2023.2.2,Win32,144.9275362,610c3fa9aa356c9ebde029b7,65d2b6c8f2eece985d8e374c,65d2b948739cdfcf63afc37b,0.0358,0.0358,1,22,184,143,1,eightseven,,,,,,,,,,,,,,,,,,,,,,,,,,,,,,,,,,,,,,,,,,,,,,,,,,,,,,,,,,,,,,,,,,,,,,,,,,,,,,,,,,,,,,,,,,,,,,,,,,,,,,,,,,,,,,,,,,,,,,,,,,,,,,,,,,,,,,,,,
,,610c3fa9aa356c9ebde029b7,2024-02-18_20h13.55.581,kallum_motion_pilot,2023.2.2,Win32,144.9275362,610c3fa9aa356c9ebde029b7,65d2b6c8f2eece985d8e374c,65d2b948739cdfcf63afc37b,0.0359,0.0359,1,23,185,39,1,fourthree,,,,,,,,,,,,,,,,,,,,,,,,,,,,,,,,,,,,,,,,,,,,,,,,,,,,,,,,,,,,,,,,,,,,,,,,,,,,,,,,,,,,,,,,,,,,,,,,,,,,,,,,,,,,,,,,,,,,,,,,,,,,,,,,,,,,,,,,,
,,610c3fa9aa356c9ebde029b7,2024-02-18_20h13.55.581,kallum_motion_pilot,2023.2.2,Win32,144.9275362,610c3fa9aa356c9ebde029b7,65d2b6c8f2eece985d8e374c,65d2b948739cdfcf63afc37b,0.036,0.036,1,24,186,69,1,threefour,,,,,,,,,,,,,,,,,,,,,,,,,,,,,,,,,,,,,,,,,,,,,,,,,,,,,,,,,,,,,,,,,,,,,,,,,,,,,,,,,,,,,,,,,,,,,,,,,,,,,,,,,,,,,,,,,,,,,,,,,,,,,,,,,,,,,,,,,
,,610c3fa9aa356c9ebde029b7,2024-02-18_20h13.55.581,kallum_motion_pilot,2023.2.2,Win32,144.9275362,610c3fa9aa356c9ebde029b7,65d2b6c8f2eece985d8e374c,65d2b948739cdfcf63afc37b,0.0361,0.0362,1,25,187,13,1,threefour,,,,,,,,,,,,,,,,,,,,,,,,,,,,,,,,,,,,,,,,,,,,,,,,,,,,,,,,,,,,,,,,,,,,,,,,,,,,,,,,,,,,,,,,,,,,,,,,,,,,,,,,,,,,,,,,,,,,,,,,,,,,,,,,,,,,,,,,,
,,610c3fa9aa356c9ebde029b7,2024-02-18_20h13.55.581,kallum_motion_pilot,2023.2.2,Win32,144.9275362,610c3fa9aa356c9ebde029b7,65d2b6c8f2eece985d8e374c,65d2b948739cdfcf63afc37b,0.0362,0.0363,1,26,188,19,1,twofour,,,,,,,,,,,,,,,,,,,,,,,,,,,,,,,,,,,,,,,,,,,,,,,,,,,,,,,,,,,,,,,,,,,,,,,,,,,,,,,,,,,,,,,,,,,,,,,,,,,,,,,,,,,,,,,,,,,,,,,,,,,,,,,,,,,,,,,,,
,,610c3fa9aa356c9ebde029b7,2024-02-18_20h13.55.581,kallum_motion_pilot,2023.2.2,Win32,144.9275362,610c3fa9aa356c9ebde029b7,65d2b6c8f2eece985d8e374c,65d2b948739cdfcf63afc37b,0.0363,0.0363,1,27,189,75,1,twofour,,,,,,,,,,,,,,,,,,,,,,,,,,,,,,,,,,,,,,,,,,,,,,,,,,,,,,,,,,,,,,,,,,,,,,,,,,,,,,,,,,,,,,,,,,,,,,,,,,,,,,,,,,,,,,,,,,,,,,,,,,,,,,,,,,,,,,,,,
,,610c3fa9aa356c9ebde029b7,2024-02-18_20h13.55.581,kallum_motion_pilot,2023.2.2,Win32,144.9275362,610c3fa9aa356c9ebde029b7,65d2b6c8f2eece985d8e374c,65d2b948739cdfcf63afc37b,0.0364,0.0364,1,28,190,11,1,twofour,,,,,,,,,,,,,,,,,,,,,,,,,,,,,,,,,,,,,,,,,,,,,,,,,,,,,,,,,,,,,,,,,,,,,,,,,,,,,,,,,,,,,,,,,,,,,,,,,,,,,,,,,,,,,,,,,,,,,,,,,,,,,,,,,,,,,,,,,
,,610c3fa9aa356c9ebde029b7,2024-02-18_20h13.55.581,kallum_motion_pilot,2023.2.2,Win32,144.9275362,610c3fa9aa356c9ebde029b7,65d2b6c8f2eece985d8e374c,65d2b948739cdfcf63afc37b,0.0365,0.0365,1,29,191,101,1,seveneight,,,,,,,,,,,,,,,,,,,,,,,,,,,,,,,,,,,,,,,,,,,,,,,,,,,,,,,,,,,,,,,,,,,,,,,,,,,,,,,,,,,,,,,,,,,,,,,,,,,,,,,,,,,,,,,,,,,,,,,,,,,,,,,,,,,,,,,,,
,,610c3fa9aa356c9ebde029b7,2024-02-18_20h13.55.581,kallum_motion_pilot,2023.2.2,Win32,144.9275362,610c3fa9aa356c9ebde029b7,65d2b6c8f2eece985d8e374c,65d2b948739cdfcf63afc37b,0.0366,0.0366,1,30,192,121,1,fiveseven,,,,,,,,,,,,,,,,,,,,,,,,,,,,,,,,,,,,,,,,,,,,,,,,,,,,,,,,,,,,,,,,,,,,,,,,,,,,,,,,,,,,,,,,,,,,,,,,,,,,,,,,,,,,,,,,,,,,,,,,,,,,,,,,,,,,,,,,,
,,610c3fa9aa356c9ebde029b7,2024-02-18_20h13.55.581,kallum_motion_pilot,2023.2.2,Win32,144.9275362,610c3fa9aa356c9ebde029b7,65d2b6c8f2eece985d8e374c,65d2b948739cdfcf63afc37b,0.0367,0.0368,1,31,193,144,1,fivesix,,,,,,,,,,,,,,,,,,,,,,,,,,,,,,,,,,,,,,,,,,,,,,,,,,,,,,,,,,,,,,,,,,,,,,,,,,,,,,,,,,,,,,,,,,,,,,,,,,,,,,,,,,,,,,,,,,,,,,,,,,,,,,,,,,,,,,,,,
,,610c3fa9aa356c9ebde029b7,2024-02-18_20h13.55.581,kallum_motion_pilot,2023.2.2,Win32,144.9275362,610c3fa9aa356c9ebde029b7,65d2b6c8f2eece985d8e374c,65d2b948739cdfcf63afc37b,0.0368,0.0368,1,32,194,129,1,fiveseven,,,,,,,,,,,,,,,,,,,,,,,,,,,,,,,,,,,,,,,,,,,,,,,,,,,,,,,,,,,,,,,,,,,,,,,,,,,,,,,,,,,,,,,,,,,,,,,,,,,,,,,,,,,,,,,,,,,,,,,,,,,,,,,,,,,,,,,,,
,,610c3fa9aa356c9ebde029b7,2024-02-18_20h13.55.581,kallum_motion_pilot,2023.2.2,Win32,144.9275362,610c3fa9aa356c9ebde029b7,65d2b6c8f2eece985d8e374c,65d2b948739cdfcf63afc37b,0.0368,0.0369,1,33,195,127,1,eightseven,,,,,,,,,,,,,,,,,,,,,,,,,,,,,,,,,,,,,,,,,,,,,,,,,,,,,,,,,,,,,,,,,,,,,,,,,,,,,,,,,,,,,,,,,,,,,,,,,,,,,,,,,,,,,,,,,,,,,,,,,,,,,,,,,,,,,,,,,
,,610c3fa9aa356c9ebde029b7,2024-02-18_20h13.55.581,kallum_motion_pilot,2023.2.2,Win32,144.9275362,610c3fa9aa356c9ebde029b7,65d2b6c8f2eece985d8e374c,65d2b948739cdfcf63afc37b,0.0369,0.037,1,34,196,36,1,threeone,,,,,,,,,,,,,,,,,,,,,,,,,,,,,,,,,,,,,,,,,,,,,,,,,,,,,,,,,,,,,,,,,,,,,,,,,,,,,,,,,,,,,,,,,,,,,,,,,,,,,,,,,,,,,,,,,,,,,,,,,,,,,,,,,,,,,,,,,
,,610c3fa9aa356c9ebde029b7,2024-02-18_20h13.55.581,kallum_motion_pilot,2023.2.2,Win32,144.9275362,610c3fa9aa356c9ebde029b7,65d2b6c8f2eece985d8e374c,65d2b948739cdfcf63afc37b,0.037,0.0371,1,35,197,72,1,onetwo,,,,,,,,,,,,,,,,,,,,,,,,,,,,,,,,,,,,,,,,,,,,,,,,,,,,,,,,,,,,,,,,,,,,,,,,,,,,,,,,,,,,,,,,,,,,,,,,,,,,,,,,,,,,,,,,,,,,,,,,,,,,,,,,,,,,,,,,,
,,610c3fa9aa356c9ebde029b7,2024-02-18_20h13.55.581,kallum_motion_pilot,2023.2.2,Win32,144.9275362,610c3fa9aa356c9ebde029b7,65d2b6c8f2eece985d8e374c,65d2b948739cdfcf63afc37b,0.0372,0.0372,1,36,198,14,1,fourtwo,,,,,,,,,,,,,,,,,,,,,,,,,,,,,,,,,,,,,,,,,,,,,,,,,,,,,,,,,,,,,,,,,,,,,,,,,,,,,,,,,,,,,,,,,,,,,,,,,,,,,,,,,,,,,,,,,,,,,,,,,,,,,,,,,,,,,,,,,
,,610c3fa9aa356c9ebde029b7,2024-02-18_20h13.55.581,kallum_motion_pilot,2023.2.2,Win32,144.9275362,610c3fa9aa356c9ebde029b7,65d2b6c8f2eece985d8e374c,65d2b948739cdfcf63afc37b,0.0372,0.0373,1,37,199,150,1,eightsix,,,,,,,,,,,,,,,,,,,,,,,,,,,,,,,,,,,,,,,,,,,,,,,,,,,,,,,,,,,,,,,,,,,,,,,,,,,,,,,,,,,,,,,,,,,,,,,,,,,,,,,,,,,,,,,,,,,,,,,,,,,,,,,,,,,,,,,,,
,,610c3fa9aa356c9ebde029b7,2024-02-18_20h13.55.581,kallum_motion_pilot,2023.2.2,Win32,144.9275362,610c3fa9aa356c9ebde029b7,65d2b6c8f2eece985d8e374c,65d2b948739cdfcf63afc37b,0.0373,0.0374,1,38,200,147,1,sixeight,,,,,,,,,,,,,,,,,,,,,,,,,,,,,,,,,,,,,,,,,,,,,,,,,,,,,,,,,,,,,,,,,,,,,,,,,,,,,,,,,,,,,,,,,,,,,,,,,,,,,,,,,,,,,,,,,,,,,,,,,,,,,,,,,,,,,,,,,
,,610c3fa9aa356c9ebde029b7,2024-02-18_20h13.55.581,kallum_motion_pilot,2023.2.2,Win32,144.9275362,610c3fa9aa356c9ebde029b7,65d2b6c8f2eece985d8e374c,65d2b948739cdfcf63afc37b,0.0375,0.0375,1,39,201,96,1,fivesix,,,,,,,,,,,,,,,,,,,,,,,,,,,,,,,,,,,,,,,,,,,,,,,,,,,,,,,,,,,,,,,,,,,,,,,,,,,,,,,,,,,,,,,,,,,,,,,,,,,,,,,,,,,,,,,,,,,,,,,,,,,,,,,,,,,,,,,,,
,,610c3fa9aa356c9ebde029b7,2024-02-18_20h13.55.581,kallum_motion_pilot,2023.2.2,Win32,144.9275362,610c3fa9aa356c9ebde029b7,65d2b6c8f2eece985d8e374c,65d2b948739cdfcf63afc37b,0.0376,0.0376,1,40,202,125,1,seveneight,,,,,,,,,,,,,,,,,,,,,,,,,,,,,,,,,,,,,,,,,,,,,,,,,,,,,,,,,,,,,,,,,,,,,,,,,,,,,,,,,,,,,,,,,,,,,,,,,,,,,,,,,,,,,,,,,,,,,,,,,,,,,,,,,,,,,,,,,
,,610c3fa9aa356c9ebde029b7,2024-02-18_20h13.55.581,kallum_motion_pilot,2023.2.2,Win32,144.9275362,610c3fa9aa356c9ebde029b7,65d2b6c8f2eece985d8e374c,65d2b948739cdfcf63afc37b,0.0376,0.0377,1,41,203,6,1,fourtwo,,,,,,,,,,,,,,,,,,,,,,,,,,,,,,,,,,,,,,,,,,,,,,,,,,,,,,,,,,,,,,,,,,,,,,,,,,,,,,,,,,,,,,,,,,,,,,,,,,,,,,,,,,,,,,,,,,,,,,,,,,,,,,,,,,,,,,,,,
,,610c3fa9aa356c9ebde029b7,2024-02-18_20h13.55.581,kallum_motion_pilot,2023.2.2,Win32,144.9275362,610c3fa9aa356c9ebde029b7,65d2b6c8f2eece985d8e374c,65d2b948739cdfcf63afc37b,0.0378,0.0378,1,42,204,107,1,sixeight,,,,,,,,,,,,,,,,,,,,,,,,,,,,,,,,,,,,,,,,,,,,,,,,,,,,,,,,,,,,,,,,,,,,,,,,,,,,,,,,,,,,,,,,,,,,,,,,,,,,,,,,,,,,,,,,,,,,,,,,,,,,,,,,,,,,,,,,,
,,610c3fa9aa356c9ebde029b7,2024-02-18_20h13.55.581,kallum_motion_pilot,2023.2.2,Win32,144.9275362,610c3fa9aa356c9ebde029b7,65d2b6c8f2eece985d8e374c,65d2b948739cdfcf63afc37b,0.0379,0.0379,1,43,205,102,1,eightsix,,,,,,,,,,,,,,,,,,,,,,,,,,,,,,,,,,,,,,,,,,,,,,,,,,,,,,,,,,,,,,,,,,,,,,,,,,,,,,,,,,,,,,,,,,,,,,,,,,,,,,,,,,,,,,,,,,,,,,,,,,,,,,,,,,,,,,,,,
,,610c3fa9aa356c9ebde029b7,2024-02-18_20h13.55.581,kallum_motion_pilot,2023.2.2,Win32,144.9275362,610c3fa9aa356c9ebde029b7,65d2b6c8f2eece985d8e374c,65d2b948739cdfcf63afc37b,0.0379,0.038,1,44,206,73,1,onethree,,,,,,,,,,,,,,,,,,,,,,,,,,,,,,,,,,,,,,,,,,,,,,,,,,,,,,,,,,,,,,,,,,,,,,,,,,,,,,,,,,,,,,,,,,,,,,,,,,,,,,,,,,,,,,,,,,,,,,,,,,,,,,,,,,,,,,,,,
,,610c3fa9aa356c9ebde029b7,2024-02-18_20h13.55.581,kallum_motion_pilot,2023.2.2,Win32,144.9275362,610c3fa9aa356c9ebde029b7,65d2b6c8f2eece985d8e374c,65d2b948739cdfcf63afc37b,0.038,0.0381,1,45,207,106,1,sixfive,,,,,,,,,,,,,,,,,,,,,,,,,,,,,,,,,,,,,,,,,,,,,,,,,,,,,,,,,,,,,,,,,,,,,,,,,,,,,,,,,,,,,,,,,,,,,,,,,,,,,,,,,,,,,,,,,,,,,,,,,,,,,,,,,,,,,,,,,
,,610c3fa9aa356c9ebde029b7,2024-02-18_20h13.55.581,kallum_motion_pilot,2023.2.2,Win32,144.9275362,610c3fa9aa356c9ebde029b7,65d2b6c8f2eece985d8e374c,65d2b948739cdfcf63afc37b,0.0382,0.0382,1,46,208,8,1,onetwo,,,,,,,,,,,,,,,,,,,,,,,,,,,,,,,,,,,,,,,,,,,,,,,,,,,,,,,,,,,,,,,,,,,,,,,,,,,,,,,,,,,,,,,,,,,,,,,,,,,,,,,,,,,,,,,,,,,,,,,,,,,,,,,,,,,,,,,,,
,,610c3fa9aa356c9ebde029b7,2024-02-18_20h13.55.581,kallum_motion_pilot,2023.2.2,Win32,144.9275362,610c3fa9aa356c9ebde029b7,65d2b6c8f2eece985d8e374c,65d2b948739cdfcf63afc37b,0.0382,0.0383,1,47,209,16,1,onetwo,,,,,,,,,,,,,,,,,,,,,,,,,,,,,,,,,,,,,,,,,,,,,,,,,,,,,,,,,,,,,,,,,,,,,,,,,,,,,,,,,,,,,,,,,,,,,,,,,,,,,,,,,,,,,,,,,,,,,,,,,,,,,,,,,,,,,,,,,
,,610c3fa9aa356c9ebde029b7,2024-02-18_20h13.55.581,kallum_motion_pilot,2023.2.2,Win32,144.9275362,610c3fa9aa356c9ebde029b7,65d2b6c8f2eece985d8e374c,65d2b948739cdfcf63afc37b,0.0383,0.0383,1,48,210,149,1,seveneight,,,,,,,,,,,,,,,,,,,,,,,,,,,,,,,,,,,,,,,,,,,,,,,,,,,,,,,,,,,,,,,,,,,,,,,,,,,,,,,,,,,,,,,,,,,,,,,,,,,,,,,,,,,,,,,,,,,,,,,,,,,,,,,,,,,,,,,,,
,,610c3fa9aa356c9ebde029b7,2024-02-18_20h13.55.581,kallum_motion_pilot,2023.2.2,Win32,144.9275362,610c3fa9aa356c9ebde029b7,65d2b6c8f2eece985d8e374c,65d2b948739cdfcf63afc37b,0.0384,0.0384,1,49,211,134,1,eightsix,,,,,,,,,,,,,,,,,,,,,,,,,,,,,,,,,,,,,,,,,,,,,,,,,,,,,,,,,,,,,,,,,,,,,,,,,,,,,,,,,,,,,,,,,,,,,,,,,,,,,,,,,,,,,,,,,,,,,,,,,,,,,,,,,,,,,,,,,
,,610c3fa9aa356c9ebde029b7,2024-02-18_20h13.55.581,kallum_motion_pilot,2023.2.2,Win32,144.9275362,610c3fa9aa356c9ebde029b7,65d2b6c8f2eece985d8e374c,65d2b948739cdfcf63afc37b,0.0385,0.0386,1,50,212,116,1,sevenfive,,,,,,,,,,,,,,,,,,,,,,,,,,,,,,,,,,,,,,,,,,,,,,,,,,,,,,,,,,,,,,,,,,,,,,,,,,,,,,,,,,,,,,,,,,,,,,,,,,,,,,,,,,,,,,,,,,,,,,,,,,,,,,,,,,,,,,,,,
,,610c3fa9aa356c9ebde029b7,2024-02-18_20h13.55.581,kallum_motion_pilot,2023.2.2,Win32,144.9275362,610c3fa9aa356c9ebde029b7,65d2b6c8f2eece985d8e374c,65d2b948739cdfcf63afc37b,0.0386,0.0386,1,51,213,100,1,sevenfive,,,,,,,,,,,,,,,,,,,,,,,,,,,,,,,,,,,,,,,,,,,,,,,,,,,,,,,,,,,,,,,,,,,,,,,,,,,,,,,,,,,,,,,,,,,,,,,,,,,,,,,,,,,,,,,,,,,,,,,,,,,,,,,,,,,,,,,,,
,,610c3fa9aa356c9ebde029b7,2024-02-18_20h13.55.581,kallum_motion_pilot,2023.2.2,Win32,144.9275362,610c3fa9aa356c9ebde029b7,65d2b6c8f2eece985d8e374c,65d2b948739cdfcf63afc37b,0.0387,0.0387,1,52,214,67,1,twofour,,,,,,,,,,,,,,,,,,,,,,,,,,,,,,,,,,,,,,,,,,,,,,,,,,,,,,,,,,,,,,,,,,,,,,,,,,,,,,,,,,,,,,,,,,,,,,,,,,,,,,,,,,,,,,,,,,,,,,,,,,,,,,,,,,,,,,,,,
,,610c3fa9aa356c9ebde029b7,2024-02-18_20h13.55.581,kallum_motion_pilot,2023.2.2,Win32,144.9275362,610c3fa9aa356c9ebde029b7,65d2b6c8f2eece985d8e374c,65d2b948739cdfcf63afc37b,0.0387,0.0389,1,53,215,58,1,twoone,,,,,,,,,,,,,,,,,,,,,,,,,,,,,,,,,,,,,,,,,,,,,,,,,,,,,,,,,,,,,,,,,,,,,,,,,,,,,,,,,,,,,,,,,,,,,,,,,,,,,,,,,,,,,,,,,,,,,,,,,,,,,,,,,,,,,,,,,
,,610c3fa9aa356c9ebde029b7,2024-02-18_20h13.55.581,kallum_motion_pilot,2023.2.2,Win32,144.9275362,610c3fa9aa356c9ebde029b7,65d2b6c8f2eece985d8e374c,65d2b948739cdfcf63afc37b,0.0389,0.0389,1,54,216,124,1,sevenfive,,,,,,,,,,,,,,,,,,,,,,,,,,,,,,,,,,,,,,,,,,,,,,,,,,,,,,,,,,,,,,,,,,,,,,,,,,,,,,,,,,,,,,,,,,,,,,,,,,,,,,,,,,,,,,,,,,,,,,,,,,,,,,,,,,,,,,,,,
,,610c3fa9aa356c9ebde029b7,2024-02-18_20h13.55.581,kallum_motion_pilot,2023.2.2,Win32,144.9275362,610c3fa9aa356c9ebde029b7,65d2b6c8f2eece985d8e374c,65d2b948739cdfcf63afc37b,0.0389,0.039,1,55,217,48,1,onetwo,,,,,,,,,,,,,,,,,,,,,,,,,,,,,,,,,,,,,,,,,,,,,,,,,,,,,,,,,,,,,,,,,,,,,,,,,,,,,,,,,,,,,,,,,,,,,,,,,,,,,,,,,,,,,,,,,,,,,,,,,,,,,,,,,,,,,,,,,
,,610c3fa9aa356c9ebde029b7,2024-02-18_20h13.55.581,kallum_motion_pilot,2023.2.2,Win32,144.9275362,610c3fa9aa356c9ebde029b7,65d2b6c8f2eece985d8e374c,65d2b948739cdfcf63afc37b,0.0391,0.0391,1,56,218,97,1,fiveseven,,,,,,,,,,,,,,,,,,,,,,,,,,,,,,,,,,,,,,,,,,,,,,,,,,,,,,,,,,,,,,,,,,,,,,,,,,,,,,,,,,,,,,,,,,,,,,,,,,,,,,,,,,,,,,,,,,,,,,,,,,,,,,,,,,,,,,,,,
,,610c3fa9aa356c9ebde029b7,2024-02-18_20h13.55.581,kallum_motion_pilot,2023.2.2,Win32,144.9275362,610c3fa9aa356c9ebde029b7,65d2b6c8f2eece985d8e374c,65d2b948739cdfcf63afc37b,0.0391,0.0392,1,57,219,145,1,fiveseven,,,,,,,,,,,,,,,,,,,,,,,,,,,,,,,,,,,,,,,,,,,,,,,,,,,,,,,,,,,,,,,,,,,,,,,,,,,,,,,,,,,,,,,,,,,,,,,,,,,,,,,,,,,,,,,,,,,,,,,,,,,,,,,,,,,,,,,,,
,,610c3fa9aa356c9ebde029b7,2024-02-18_20h13.55.581,kallum_motion_pilot,2023.2.2,Win32,144.9275362,610c3fa9aa356c9ebde029b7,65d2b6c8f2eece985d8e374c,65d2b948739cdfcf63afc37b,0.0393,0.0393,1,58,220,3,1,twofour,,,,,,,,,,,,,,,,,,,,,,,,,,,,,,,,,,,,,,,,,,,,,,,,,,,,,,,,,,,,,,,,,,,,,,,,,,,,,,,,,,,,,,,,,,,,,,,,,,,,,,,,,,,,,,,,,,,,,,,,,,,,,,,,,,,,,,,,,
,,610c3fa9aa356c9ebde029b7,2024-02-18_20h13.55.581,kallum_motion_pilot,2023.2.2,Win32,144.9275362,610c3fa9aa356c9ebde029b7,65d2b6c8f2eece985d8e374c,65d2b948739cdfcf63afc37b,0.0393,0.0394,1,59,221,126,1,eightsix,,,,,,,,,,,,,,,,,,,,,,,,,,,,,,,,,,,,,,,,,,,,,,,,,,,,,,,,,,,,,,,,,,,,,,,,,,,,,,,,,,,,,,,,,,,,,,,,,,,,,,,,,,,,,,,,,,,,,,,,,,,,,,,,,,,,,,,,,
,,610c3fa9aa356c9ebde029b7,2024-02-18_20h13.55.581,kallum_motion_pilot,2023.2.2,Win32,144.9275362,610c3fa9aa356c9ebde029b7,65d2b6c8f2eece985d8e374c,65d2b948739cdfcf63afc37b,0.0394,0.0395,1,60,222,99,1,sixeight,,,,,,,,,,,,,,,,,,,,,,,,,,,,,,,,,,,,,,,,,,,,,,,,,,,,,,,,,,,,,,,,,,,,,,,,,,,,,,,,,,,,,,,,,,,,,,,,,,,,,,,,,,,,,,,,,,,,,,,,,,,,,,,,,,,,,,,,,
,,610c3fa9aa356c9ebde029b7,2024-02-18_20h13.55.581,kallum_motion_pilot,2023.2.2,Win32,144.9275362,610c3fa9aa356c9ebde029b7,65d2b6c8f2eece985d8e374c,65d2b948739cdfcf63afc37b,0.0395,0.0395,1,61,223,152,1,fivesix,,,,,,,,,,,,,,,,,,,,,,,,,,,,,,,,,,,,,,,,,,,,,,,,,,,,,,,,,,,,,,,,,,,,,,,,,,,,,,,,,,,,,,,,,,,,,,,,,,,,,,,,,,,,,,,,,,,,,,,,,,,,,,,,,,,,,,,,,
,,610c3fa9aa356c9ebde029b7,2024-02-18_20h13.55.581,kallum_motion_pilot,2023.2.2,Win32,144.9275362,610c3fa9aa356c9ebde029b7,65d2b6c8f2eece985d8e374c,65d2b948739cdfcf63afc37b,0.0396,0.0397,1,62,224,113,1,fiveseven,,,,,,,,,,,,,,,,,,,,,,,,,,,,,,,,,,,,,,,,,,,,,,,,,,,,,,,,,,,,,,,,,,,,,,,,,,,,,,,,,,,,,,,,,,,,,,,,,,,,,,,,,,,,,,,,,,,,,,,,,,,,,,,,,,,,,,,,,
,,610c3fa9aa356c9ebde029b7,2024-02-18_20h13.55.581,kallum_motion_pilot,2023.2.2,Win32,144.9275362,610c3fa9aa356c9ebde029b7,65d2b6c8f2eece985d8e374c,65d2b948739cdfcf63afc37b,0.0398,0.0398,1,63,225,12,1,threeone,,,,,,,,,,,,,,,,,,,,,,,,,,,,,,,,,,,,,,,,,,,,,,,,,,,,,,,,,,,,,,,,,,,,,,,,,,,,,,,,,,,,,,,,,,,,,,,,,,,,,,,,,,,,,,,,,,,,,,,,,,,,,,,,,,,,,,,,,
,,610c3fa9aa356c9ebde029b7,2024-02-18_20h13.55.581,kallum_motion_pilot,2023.2.2,Win32,144.9275362,610c3fa9aa356c9ebde029b7,65d2b6c8f2eece985d8e374c,65d2b948739cdfcf63afc37b,0.0398,0.0398,1,64,226,38,1,fourtwo,,,,,,,,,,,,,,,,,,,,,,,,,,,,,,,,,,,,,,,,,,,,,,,,,,,,,,,,,,,,,,,,,,,,,,,,,,,,,,,,,,,,,,,,,,,,,,,,,,,,,,,,,,,,,,,,,,,,,,,,,,,,,,,,,,,,,,,,,
,,610c3fa9aa356c9ebde029b7,2024-02-18_20h13.55.581,kallum_motion_pilot,2023.2.2,Win32,144.9275362,610c3fa9aa356c9ebde029b7,65d2b6c8f2eece985d8e374c,65d2b948739cdfcf63afc37b,0.0399,0.04,1,65,227,118,1,eightsix,,,,,,,,,,,,,,,,,,,,,,,,,,,,,,,,,,,,,,,,,,,,,,,,,,,,,,,,,,,,,,,,,,,,,,,,,,,,,,,,,,,,,,,,,,,,,,,,,,,,,,,,,,,,,,,,,,,,,,,,,,,,,,,,,,,,,,,,,
,,610c3fa9aa356c9ebde029b7,2024-02-18_20h13.55.581,kallum_motion_pilot,2023.2.2,Win32,144.9275362,610c3fa9aa356c9ebde029b7,65d2b6c8f2eece985d8e374c,65d2b948739cdfcf63afc37b,0.04,0.0401,1,66,228,105,1,fiveseven,,,,,,,,,,,,,,,,,,,,,,,,,,,,,,,,,,,,,,,,,,,,,,,,,,,,,,,,,,,,,,,,,,,,,,,,,,,,,,,,,,,,,,,,,,,,,,,,,,,,,,,,,,,,,,,,,,,,,,,,,,,,,,,,,,,,,,,,,
,,610c3fa9aa356c9ebde029b7,2024-02-18_20h13.55.581,kallum_motion_pilot,2023.2.2,Win32,144.9275362,610c3fa9aa356c9ebde029b7,65d2b6c8f2eece985d8e374c,65d2b948739cdfcf63afc37b,0.0401,0.0402,1,67,229,29,1,threefour,,,,,,,,,,,,,,,,,,,,,,,,,,,,,,,,,,,,,,,,,,,,,,,,,,,,,,,,,,,,,,,,,,,,,,,,,,,,,,,,,,,,,,,,,,,,,,,,,,,,,,,,,,,,,,,,,,,,,,,,,,,,,,,,,,,,,,,,,
,,610c3fa9aa356c9ebde029b7,2024-02-18_20h13.55.581,kallum_motion_pilot,2023.2.2,Win32,144.9275362,610c3fa9aa356c9ebde029b7,65d2b6c8f2eece985d8e374c,65d2b948739cdfcf63afc37b,0.0402,0.0403,1,68,230,77,1,threefour,,,,,,,,,,,,,,,,,,,,,,,,,,,,,,,,,,,,,,,,,,,,,,,,,,,,,,,,,,,,,,,,,,,,,,,,,,,,,,,,,,,,,,,,,,,,,,,,,,,,,,,,,,,,,,,,,,,,,,,,,,,,,,,,,,,,,,,,,
,,610c3fa9aa356c9ebde029b7,2024-02-18_20h13.55.581,kallum_motion_pilot,2023.2.2,Win32,144.9275362,610c3fa9aa356c9ebde029b7,65d2b6c8f2eece985d8e374c,65d2b948739cdfcf63afc37b,0.0403,0.0404,1,69,231,35,1,twofour,,,,,,,,,,,,,,,,,,,,,,,,,,,,,,,,,,,,,,,,,,,,,,,,,,,,,,,,,,,,,,,,,,,,,,,,,,,,,,,,,,,,,,,,,,,,,,,,,,,,,,,,,,,,,,,,,,,,,,,,,,,,,,,,,,,,,,,,,
,,610c3fa9aa356c9ebde029b7,2024-02-18_20h13.55.581,kallum_motion_pilot,2023.2.2,Win32,144.9275362,610c3fa9aa356c9ebde029b7,65d2b6c8f2eece985d8e374c,65d2b948739cdfcf63afc37b,0.0404,0.0404,1,70,232,52,1,threeone,,,,,,,,,,,,,,,,,,,,,,,,,,,,,,,,,,,,,,,,,,,,,,,,,,,,,,,,,,,,,,,,,,,,,,,,,,,,,,,,,,,,,,,,,,,,,,,,,,,,,,,,,,,,,,,,,,,,,,,,,,,,,,,,,,,,,,,,,
,,610c3fa9aa356c9ebde029b7,2024-02-18_20h13.55.581,kallum_motion_pilot,2023.2.2,Win32,144.9275362,610c3fa9aa356c9ebde029b7,65d2b6c8f2eece985d8e374c,65d2b948739cdfcf63afc37b,0.0405,0.0405,1,71,233,76,1,threeone,,,,,,,,,,,,,,,,,,,,,,,,,,,,,,,,,,,,,,,,,,,,,,,,,,,,,,,,,,,,,,,,,,,,,,,,,,,,,,,,,,,,,,,,,,,,,,,,,,,,,,,,,,,,,,,,,,,,,,,,,,,,,,,,,,,,,,,,,
,,610c3fa9aa356c9ebde029b7,2024-02-18_20h13.55.581,kallum_motion_pilot,2023.2.2,Win32,144.9275362,610c3fa9aa356c9ebde029b7,65d2b6c8f2eece985d8e374c,65d2b948739cdfcf63afc37b,0.0406,0.0407,1,72,234,135,1,eightseven,,,,,,,,,,,,,,,,,,,,,,,,,,,,,,,,,,,,,,,,,,,,,,,,,,,,,,,,,,,,,,,,,,,,,,,,,,,,,,,,,,,,,,,,,,,,,,,,,,,,,,,,,,,,,,,,,,,,,,,,,,,,,,,,,,,,,,,,,
,,610c3fa9aa356c9ebde029b7,2024-02-18_20h13.55.581,kallum_motion_pilot,2023.2.2,Win32,144.9275362,610c3fa9aa356c9ebde029b7,65d2b6c8f2eece985d8e374c,65d2b948739cdfcf63afc37b,0.0407,0.0407,1,73,235,141,1,seveneight,,,,,,,,,,,,,,,,,,,,,,,,,,,,,,,,,,,,,,,,,,,,,,,,,,,,,,,,,,,,,,,,,,,,,,,,,,,,,,,,,,,,,,,,,,,,,,,,,,,,,,,,,,,,,,,,,,,,,,,,,,,,,,,,,,,,,,,,,
,,610c3fa9aa356c9ebde029b7,2024-02-18_20h13.55.581,kallum_motion_pilot,2023.2.2,Win32,144.9275362,610c3fa9aa356c9ebde029b7,65d2b6c8f2eece985d8e374c,65d2b948739cdfcf63afc37b,0.0408,0.0409,1,74,236,85,1,seveneight,,,,,,,,,,,,,,,,,,,,,,,,,,,,,,,,,,,,,,,,,,,,,,,,,,,,,,,,,,,,,,,,,,,,,,,,,,,,,,,,,,,,,,,,,,,,,,,,,,,,,,,,,,,,,,,,,,,,,,,,,,,,,,,,,,,,,,,,,
,,610c3fa9aa356c9ebde029b7,2024-02-18_20h13.55.581,kallum_motion_pilot,2023.2.2,Win32,144.9275362,610c3fa9aa356c9ebde029b7,65d2b6c8f2eece985d8e374c,65d2b948739cdfcf63afc37b,0.0409,0.041,1,75,237,90,1,sixfive,,,,,,,,,,,,,,,,,,,,,,,,,,,,,,,,,,,,,,,,,,,,,,,,,,,,,,,,,,,,,,,,,,,,,,,,,,,,,,,,,,,,,,,,,,,,,,,,,,,,,,,,,,,,,,,,,,,,,,,,,,,,,,,,,,,,,,,,,
,,610c3fa9aa356c9ebde029b7,2024-02-18_20h13.55.581,kallum_motion_pilot,2023.2.2,Win32,144.9275362,610c3fa9aa356c9ebde029b7,65d2b6c8f2eece985d8e374c,65d2b948739cdfcf63afc37b,0.041,0.0411,1,76,238,94,1,eightsix,,,,,,,,,,,,,,,,,,,,,,,,,,,,,,,,,,,,,,,,,,,,,,,,,,,,,,,,,,,,,,,,,,,,,,,,,,,,,,,,,,,,,,,,,,,,,,,,,,,,,,,,,,,,,,,,,,,,,,,,,,,,,,,,,,,,,,,,,
,,610c3fa9aa356c9ebde029b7,2024-02-18_20h13.55.581,kallum_motion_pilot,2023.2.2,Win32,144.9275362,610c3fa9aa356c9ebde029b7,65d2b6c8f2eece985d8e374c,65d2b948739cdfcf63afc37b,0.0411,0.0412,1,77,239,115,1,sixeight,,,,,,,,,,,,,,,,,,,,,,,,,,,,,,,,,,,,,,,,,,,,,,,,,,,,,,,,,,,,,,,,,,,,,,,,,,,,,,,,,,,,,,,,,,,,,,,,,,,,,,,,,,,,,,,,,,,,,,,,,,,,,,,,,,,,,,,,,
,,610c3fa9aa356c9ebde029b7,2024-02-18_20h13.55.581,kallum_motion_pilot,2023.2.2,Win32,144.9275362,610c3fa9aa356c9ebde029b7,65d2b6c8f2eece985d8e374c,65d2b948739cdfcf63afc37b,0.0412,0.0414,1,78,240,59,1,twofour,,,,,,,,,,,,,,,,,,,,,,,,,,,,,,,,,,,,,,,,,,,,,,,,,,,,,,,,,,,,,,,,,,,,,,,,,,,,,,,,,,,,,,,,,,,,,,,,,,,,,,,,,,,,,,,,,,,,,,,,,,,,,,,,,,,,,,,,,
,,610c3fa9aa356c9ebde029b7,2024-02-18_20h13.55.581,kallum_motion_pilot,2023.2.2,Win32,144.9275362,610c3fa9aa356c9ebde029b7,65d2b6c8f2eece985d8e374c,65d2b948739cdfcf63afc37b,0.0414,0.0414,1,79,241,64,1,onetwo,,,,,,,,,,,,,,,,,,,,,,,,,,,,,,,,,,,,,,,,,,,,,,,,,,,,,,,,,,,,,,,,,,,,,,,,,,,,,,,,,,,,,,,,,,,,,,,,,,,,,,,,,,,,,,,,,,,,,,,,,,,,,,,,,,,,,,,,,
,,610c3fa9aa356c9ebde029b7,2024-02-18_20h13.55.581,kallum_motion_pilot,2023.2.2,Win32,144.9275362,610c3fa9aa356c9ebde029b7,65d2b6c8f2eece985d8e374c,65d2b948739cdfcf63afc37b,0.0416,0.0416,1,80,242,45,1,threefour,,,,,,,,,,,,,,,,,,,,,,,,,,,,,,,,,,,,,,,,,,,,,,,,,,,,,,,,,,,,,,,,,,,,,,,,,,,,,,,,,,,,,,,,,,,,,,,,,,,,,,,,,,,,,,,,,,,,,,,,,,,,,,,,,,,,,,,,,
,,610c3fa9aa356c9ebde029b7,2024-02-18_20h13.55.581,kallum_motion_pilot,2023.2.2,Win32,144.9275362,610c3fa9aa356c9ebde029b7,65d2b6c8f2eece985d8e374c,65d2b948739cdfcf63afc37b,0.0416,0.0418,1,81,243,23,1,fourthree,,,,,,,,,,,,,,,,,,,,,,,,,,,,,,,,,,,,,,,,,,,,,,,,,,,,,,,,,,,,,,,,,,,,,,,,,,,,,,,,,,,,,,,,,,,,,,,,,,,,,,,,,,,,,,,,,,,,,,,,,,,,,,,,,,,,,,,,,
,,610c3fa9aa356c9ebde029b7,2024-02-18_20h13.55.581,kallum_motion_pilot,2023.2.2,Win32,144.9275362,610c3fa9aa356c9ebde029b7,65d2b6c8f2eece985d8e374c,65d2b948739cdfcf63afc37b,0.0418,0.0419,1,82,244,159,1,eightseven,,,,,,,,,,,,,,,,,,,,,,,,,,,,,,,,,,,,,,,,,,,,,,,,,,,,,,,,,,,,,,,,,,,,,,,,,,,,,,,,,,,,,,,,,,,,,,,,,,,,,,,,,,,,,,,,,,,,,,,,,,,,,,,,,,,,,,,,,
,,610c3fa9aa356c9ebde029b7,2024-02-18_20h13.55.581,kallum_motion_pilot,2023.2.2,Win32,144.9275362,610c3fa9aa356c9ebde029b7,65d2b6c8f2eece985d8e374c,65d2b948739cdfcf63afc37b,0.0419,0.0419,1,83,245,24,1,onetwo,,,,,,,,,,,,,,,,,,,,,,,,,,,,,,,,,,,,,,,,,,,,,,,,,,,,,,,,,,,,,,,,,,,,,,,,,,,,,,,,,,,,,,,,,,,,,,,,,,,,,,,,,,,,,,,,,,,,,,,,,,,,,,,,,,,,,,,,,
,,610c3fa9aa356c9ebde029b7,2024-02-18_20h13.55.581,kallum_motion_pilot,2023.2.2,Win32,144.9275362,610c3fa9aa356c9ebde029b7,65d2b6c8f2eece985d8e374c,65d2b948739cdfcf63afc37b,0.042,0.0421,1,84,246,28,1,threeone,,,,,,,,,,,,,,,,,,,,,,,,,,,,,,,,,,,,,,,,,,,,,,,,,,,,,,,,,,,,,,,,,,,,,,,,,,,,,,,,,,,,,,,,,,,,,,,,,,,,,,,,,,,,,,,,,,,,,,,,,,,,,,,,,,,,,,,,,
,,610c3fa9aa356c9ebde029b7,2024-02-18_20h13.55.581,kallum_motion_pilot,2023.2.2,Win32,144.9275362,610c3fa9aa356c9ebde029b7,65d2b6c8f2eece985d8e374c,65d2b948739cdfcf63afc37b,0.0421,0.0422,1,85,247,9,1,onethree,,,,,,,,,,,,,,,,,,,,,,,,,,,,,,,,,,,,,,,,,,,,,,,,,,,,,,,,,,,,,,,,,,,,,,,,,,,,,,,,,,,,,,,,,,,,,,,,,,,,,,,,,,,,,,,,,,,,,,,,,,,,,,,,,,,,,,,,,
,,610c3fa9aa356c9ebde029b7,2024-02-18_20h13.55.581,kallum_motion_pilot,2023.2.2,Win32,144.9275362,610c3fa9aa356c9ebde029b7,65d2b6c8f2eece985d8e374c,65d2b948739cdfcf63afc37b,0.0422,0.0422,1,86,248,31,1,fourthree,,,,,,,,,,,,,,,,,,,,,,,,,,,,,,,,,,,,,,,,,,,,,,,,,,,,,,,,,,,,,,,,,,,,,,,,,,,,,,,,,,,,,,,,,,,,,,,,,,,,,,,,,,,,,,,,,,,,,,,,,,,,,,,,,,,,,,,,,
,,610c3fa9aa356c9ebde029b7,2024-02-18_20h13.55.581,kallum_motion_pilot,2023.2.2,Win32,144.9275362,610c3fa9aa356c9ebde029b7,65d2b6c8f2eece985d8e374c,65d2b948739cdfcf63afc37b,0.0423,0.0423,1,87,249,146,1,sixfive,,,,,,,,,,,,,,,,,,,,,,,,,,,,,,,,,,,,,,,,,,,,,,,,,,,,,,,,,,,,,,,,,,,,,,,,,,,,,,,,,,,,,,,,,,,,,,,,,,,,,,,,,,,,,,,,,,,,,,,,,,,,,,,,,,,,,,,,,
,,610c3fa9aa356c9ebde029b7,2024-02-18_20h13.55.581,kallum_motion_pilot,2023.2.2,Win32,144.9275362,610c3fa9aa356c9ebde029b7,65d2b6c8f2eece985d8e374c,65d2b948739cdfcf63afc37b,0.0425,0.0425,1,88,250,68,1,threeone,,,,,,,,,,,,,,,,,,,,,,,,,,,,,,,,,,,,,,,,,,,,,,,,,,,,,,,,,,,,,,,,,,,,,,,,,,,,,,,,,,,,,,,,,,,,,,,,,,,,,,,,,,,,,,,,,,,,,,,,,,,,,,,,,,,,,,,,,
,,610c3fa9aa356c9ebde029b7,2024-02-18_20h13.55.581,kallum_motion_pilot,2023.2.2,Win32,144.9275362,610c3fa9aa356c9ebde029b7,65d2b6c8f2eece985d8e374c,65d2b948739cdfcf63afc37b,0.0425,0.0426,1,89,251,156,1,sevenfive,,,,,,,,,,,,,,,,,,,,,,,,,,,,,,,,,,,,,,,,,,,,,,,,,,,,,,,,,,,,,,,,,,,,,,,,,,,,,,,,,,,,,,,,,,,,,,,,,,,,,,,,,,,,,,,,,,,,,,,,,,,,,,,,,,,,,,,,,
,,610c3fa9aa356c9ebde029b7,2024-02-18_20h13.55.581,kallum_motion_pilot,2023.2.2,Win32,144.9275362,610c3fa9aa356c9ebde029b7,65d2b6c8f2eece985d8e374c,65d2b948739cdfcf63afc37b,0.0427,0.0427,1,90,252,110,1,eightsix,,,,,,,,,,,,,,,,,,,,,,,,,,,,,,,,,,,,,,,,,,,,,,,,,,,,,,,,,,,,,,,,,,,,,,,,,,,,,,,,,,,,,,,,,,,,,,,,,,,,,,,,,,,,,,,,,,,,,,,,,,,,,,,,,,,,,,,,,
,,610c3fa9aa356c9ebde029b7,2024-02-18_20h13.55.581,kallum_motion_pilot,2023.2.2,Win32,144.9275362,610c3fa9aa356c9ebde029b7,65d2b6c8f2eece985d8e374c,65d2b948739cdfcf63afc37b,0.0428,0.0428,1,91,253,122,1,sixfive,,,,,,,,,,,,,,,,,,,,,,,,,,,,,,,,,,,,,,,,,,,,,,,,,,,,,,,,,,,,,,,,,,,,,,,,,,,,,,,,,,,,,,,,,,,,,,,,,,,,,,,,,,,,,,,,,,,,,,,,,,,,,,,,,,,,,,,,,
,,610c3fa9aa356c9ebde029b7,2024-02-18_20h13.55.581,kallum_motion_pilot,2023.2.2,Win32,144.9275362,610c3fa9aa356c9ebde029b7,65d2b6c8f2eece985d8e374c,65d2b948739cdfcf63afc37b,0.0429,0.0429,1,92,254,17,1,onethree,,,,,,,,,,,,,,,,,,,,,,,,,,,,,,,,,,,,,,,,,,,,,,,,,,,,,,,,,,,,,,,,,,,,,,,,,,,,,,,,,,,,,,,,,,,,,,,,,,,,,,,,,,,,,,,,,,,,,,,,,,,,,,,,,,,,,,,,,
,,610c3fa9aa356c9ebde029b7,2024-02-18_20h13.55.581,kallum_motion_pilot,2023.2.2,Win32,144.9275362,610c3fa9aa356c9ebde029b7,65d2b6c8f2eece985d8e374c,65d2b948739cdfcf63afc37b,0.0429,0.043,1,93,255,0,1,onetwo,,,,,,,,,,,,,,,,,,,,,,,,,,,,,,,,,,,,,,,,,,,,,,,,,,,,,,,,,,,,,,,,,,,,,,,,,,,,,,,,,,,,,,,,,,,,,,,,,,,,,,,,,,,,,,,,,,,,,,,,,,,,,,,,,,,,,,,,,
,,610c3fa9aa356c9ebde029b7,2024-02-18_20h13.55.581,kallum_motion_pilot,2023.2.2,Win32,144.9275362,610c3fa9aa356c9ebde029b7,65d2b6c8f2eece985d8e374c,65d2b948739cdfcf63afc37b,0.0431,0.0432,1,94,256,151,1,eightseven,,,,,,,,,,,,,,,,,,,,,,,,,,,,,,,,,,,,,,,,,,,,,,,,,,,,,,,,,,,,,,,,,,,,,,,,,,,,,,,,,,,,,,,,,,,,,,,,,,,,,,,,,,,,,,,,,,,,,,,,,,,,,,,,,,,,,,,,,
,,610c3fa9aa356c9ebde029b7,2024-02-18_20h13.55.581,kallum_motion_pilot,2023.2.2,Win32,144.9275362,610c3fa9aa356c9ebde029b7,65d2b6c8f2eece985d8e374c,65d2b948739cdfcf63afc37b,0.0433,0.0433,1,95,257,132,1,sevenfive,,,,,,,,,,,,,,,,,,,,,,,,,,,,,,,,,,,,,,,,,,,,,,,,,,,,,,,,,,,,,,,,,,,,,,,,,,,,,,,,,,,,,,,,,,,,,,,,,,,,,,,,,,,,,,,,,,,,,,,,,,,,,,,,,,,,,,,,,
,,610c3fa9aa356c9ebde029b7,2024-02-18_20h13.55.581,kallum_motion_pilot,2023.2.2,Win32,144.9275362,610c3fa9aa356c9ebde029b7,65d2b6c8f2eece985d8e374c,65d2b948739cdfcf63afc37b,0.0433,0.0433,1,96,258,161,1,fiveseven,,,,,,,,,,,,,,,,,,,,,,,,,,,,,,,,,,,,,,,,,,,,,,,,,,,,,,,,,,,,,,,,,,,,,,,,,,,,,,,,,,,,,,,,,,,,,,,,,,,,,,,,,,,,,,,,,,,,,,,,,,,,,,,,,,,,,,,,,
,,610c3fa9aa356c9ebde029b7,2024-02-18_20h13.55.581,kallum_motion_pilot,2023.2.2,Win32,144.9275362,610c3fa9aa356c9ebde029b7,65d2b6c8f2eece985d8e374c,65d2b948739cdfcf63afc37b,0.0434,0.0435,1,97,259,15,1,fourthree,,,,,,,,,,,,,,,,,,,,,,,,,,,,,,,,,,,,,,,,,,,,,,,,,,,,,,,,,,,,,,,,,,,,,,,,,,,,,,,,,,,,,,,,,,,,,,,,,,,,,,,,,,,,,,,,,,,,,,,,,,,,,,,,,,,,,,,,,
,,610c3fa9aa356c9ebde029b7,2024-02-18_20h13.55.581,kallum_motion_pilot,2023.2.2,Win32,144.9275362,610c3fa9aa356c9ebde029b7,65d2b6c8f2eece985d8e374c,65d2b948739cdfcf63afc37b,0.0435,0.0436,1,98,260,30,1,fourtwo,,,,,,,,,,,,,,,,,,,,,,,,,,,,,,,,,,,,,,,,,,,,,,,,,,,,,,,,,,,,,,,,,,,,,,,,,,,,,,,,,,,,,,,,,,,,,,,,,,,,,,,,,,,,,,,,,,,,,,,,,,,,,,,,,,,,,,,,,
,,610c3fa9aa356c9ebde029b7,2024-02-18_20h13.55.581,kallum_motion_pilot,2023.2.2,Win32,144.9275362,610c3fa9aa356c9ebde029b7,65d2b6c8f2eece985d8e374c,65d2b948739cdfcf63afc37b,0.0436,0.0437,1,99,261,81,1,fiveseven,,,,,,,,,,,,,,,,,,,,,,,,,,,,,,,,,,,,,,,,,,,,,,,,,,,,,,,,,,,,,,,,,,,,,,,,,,,,,,,,,,,,,,,,,,,,,,,,,,,,,,,,,,,,,,,,,,,,,,,,,,,,,,,,,,,,,,,,,
,,610c3fa9aa356c9ebde029b7,2024-02-18_20h13.55.581,kallum_motion_pilot,2023.2.2,Win32,144.9275362,610c3fa9aa356c9ebde029b7,65d2b6c8f2eece985d8e374c,65d2b948739cdfcf63afc37b,0.0437,0.0438,1,100,262,157,1,seveneight,,,,,,,,,,,,,,,,,,,,,,,,,,,,,,,,,,,,,,,,,,,,,,,,,,,,,,,,,,,,,,,,,,,,,,,,,,,,,,,,,,,,,,,,,,,,,,,,,,,,,,,,,,,,,,,,,,,,,,,,,,,,,,,,,,,,,,,,,
,,610c3fa9aa356c9ebde029b7,2024-02-18_20h13.55.581,kallum_motion_pilot,2023.2.2,Win32,144.9275362,610c3fa9aa356c9ebde029b7,65d2b6c8f2eece985d8e374c,65d2b948739cdfcf63afc37b,0.0438,0.0439,1,101,263,114,1,sixfive,,,,,,,,,,,,,,,,,,,,,,,,,,,,,,,,,,,,,,,,,,,,,,,,,,,,,,,,,,,,,,,,,,,,,,,,,,,,,,,,,,,,,,,,,,,,,,,,,,,,,,,,,,,,,,,,,,,,,,,,,,,,,,,,,,,,,,,,,
,,610c3fa9aa356c9ebde029b7,2024-02-18_20h13.55.581,kallum_motion_pilot,2023.2.2,Win32,144.9275362,610c3fa9aa356c9ebde029b7,65d2b6c8f2eece985d8e374c,65d2b948739cdfcf63afc37b,0.0439,0.044,1,102,264,43,1,twofour,,,,,,,,,,,,,,,,,,,,,,,,,,,,,,,,,,,,,,,,,,,,,,,,,,,,,,,,,,,,,,,,,,,,,,,,,,,,,,,,,,,,,,,,,,,,,,,,,,,,,,,,,,,,,,,,,,,,,,,,,,,,,,,,,,,,,,,,,
,,610c3fa9aa356c9ebde029b7,2024-02-18_20h13.55.581,kallum_motion_pilot,2023.2.2,Win32,144.9275362,610c3fa9aa356c9ebde029b7,65d2b6c8f2eece985d8e374c,65d2b948739cdfcf63afc37b,0.0441,0.0441,1,103,265,80,1,fivesix,,,,,,,,,,,,,,,,,,,,,,,,,,,,,,,,,,,,,,,,,,,,,,,,,,,,,,,,,,,,,,,,,,,,,,,,,,,,,,,,,,,,,,,,,,,,,,,,,,,,,,,,,,,,,,,,,,,,,,,,,,,,,,,,,,,,,,,,,
,,610c3fa9aa356c9ebde029b7,2024-02-18_20h13.55.581,kallum_motion_pilot,2023.2.2,Win32,144.9275362,610c3fa9aa356c9ebde029b7,65d2b6c8f2eece985d8e374c,65d2b948739cdfcf63afc37b,0.0442,0.0443,1,104,266,50,1,twoone,,,,,,,,,,,,,,,,,,,,,,,,,,,,,,,,,,,,,,,,,,,,,,,,,,,,,,,,,,,,,,,,,,,,,,,,,,,,,,,,,,,,,,,,,,,,,,,,,,,,,,,,,,,,,,,,,,,,,,,,,,,,,,,,,,,,,,,,,
,,610c3fa9aa356c9ebde029b7,2024-02-18_20h13.55.581,kallum_motion_pilot,2023.2.2,Win32,144.9275362,610c3fa9aa356c9ebde029b7,65d2b6c8f2eece985d8e374c,65d2b948739cdfcf63afc37b,0.0443,0.0444,1,105,267,10,1,twoone,,,,,,,,,,,,,,,,,,,,,,,,,,,,,,,,,,,,,,,,,,,,,,,,,,,,,,,,,,,,,,,,,,,,,,,,,,,,,,,,,,,,,,,,,,,,,,,,,,,,,,,,,,,,,,,,,,,,,,,,,,,,,,,,,,,,,,,,,
,,610c3fa9aa356c9ebde029b7,2024-02-18_20h13.55.581,kallum_motion_pilot,2023.2.2,Win32,144.9275362,610c3fa9aa356c9ebde029b7,65d2b6c8f2eece985d8e374c,65d2b948739cdfcf63afc37b,0.0444,0.0445,1,106,268,133,1,seveneight,,,,,,,,,,,,,,,,,,,,,,,,,,,,,,,,,,,,,,,,,,,,,,,,,,,,,,,,,,,,,,,,,,,,,,,,,,,,,,,,,,,,,,,,,,,,,,,,,,,,,,,,,,,,,,,,,,,,,,,,,,,,,,,,,,,,,,,,,
,,610c3fa9aa356c9ebde029b7,2024-02-18_20h13.55.581,kallum_motion_pilot,2023.2.2,Win32,144.9275362,610c3fa9aa356c9ebde029b7,65d2b6c8f2eece985d8e374c,65d2b948739cdfcf63afc37b,0.0446,0.0446,1,107,269,117,1,seveneight,,,,,,,,,,,,,,,,,,,,,,,,,,,,,,,,,,,,,,,,,,,,,,,,,,,,,,,,,,,,,,,,,,,,,,,,,,,,,,,,,,,,,,,,,,,,,,,,,,,,,,,,,,,,,,,,,,,,,,,,,,,,,,,,,,,,,,,,,
,,610c3fa9aa356c9ebde029b7,2024-02-18_20h13.55.581,kallum_motion_pilot,2023.2.2,Win32,144.9275362,610c3fa9aa356c9ebde029b7,65d2b6c8f2eece985d8e374c,65d2b948739cdfcf63afc37b,0.0446,0.0446,1,108,270,82,1,sixfive,,,,,,,,,,,,,,,,,,,,,,,,,,,,,,,,,,,,,,,,,,,,,,,,,,,,,,,,,,,,,,,,,,,,,,,,,,,,,,,,,,,,,,,,,,,,,,,,,,,,,,,,,,,,,,,,,,,,,,,,,,,,,,,,,,,,,,,,,
,,610c3fa9aa356c9ebde029b7,2024-02-18_20h13.55.581,kallum_motion_pilot,2023.2.2,Win32,144.9275362,610c3fa9aa356c9ebde029b7,65d2b6c8f2eece985d8e374c,65d2b948739cdfcf63afc37b,0.0447,0.0448,1,109,271,136,1,fivesix,,,,,,,,,,,,,,,,,,,,,,,,,,,,,,,,,,,,,,,,,,,,,,,,,,,,,,,,,,,,,,,,,,,,,,,,,,,,,,,,,,,,,,,,,,,,,,,,,,,,,,,,,,,,,,,,,,,,,,,,,,,,,,,,,,,,,,,,,
,,610c3fa9aa356c9ebde029b7,2024-02-18_20h13.55.581,kallum_motion_pilot,2023.2.2,Win32,144.9275362,610c3fa9aa356c9ebde029b7,65d2b6c8f2eece985d8e374c,65d2b948739cdfcf63afc37b,0.0448,0.0449,1,110,272,60,1,threeone,,,,,,,,,,,,,,,,,,,,,,,,,,,,,,,,,,,,,,,,,,,,,,,,,,,,,,,,,,,,,,,,,,,,,,,,,,,,,,,,,,,,,,,,,,,,,,,,,,,,,,,,,,,,,,,,,,,,,,,,,,,,,,,,,,,,,,,,,
,,610c3fa9aa356c9ebde029b7,2024-02-18_20h13.55.581,kallum_motion_pilot,2023.2.2,Win32,144.9275362,610c3fa9aa356c9ebde029b7,65d2b6c8f2eece985d8e374c,65d2b948739cdfcf63afc37b,0.045,0.045,1,111,273,27,1,twofour,,,,,,,,,,,,,,,,,,,,,,,,,,,,,,,,,,,,,,,,,,,,,,,,,,,,,,,,,,,,,,,,,,,,,,,,,,,,,,,,,,,,,,,,,,,,,,,,,,,,,,,,,,,,,,,,,,,,,,,,,,,,,,,,,,,,,,,,,
,,610c3fa9aa356c9ebde029b7,2024-02-18_20h13.55.581,kallum_motion_pilot,2023.2.2,Win32,144.9275362,610c3fa9aa356c9ebde029b7,65d2b6c8f2eece985d8e374c,65d2b948739cdfcf63afc37b,0.045,0.0451,1,112,274,5,1,threefour,,,,,,,,,,,,,,,,,,,,,,,,,,,,,,,,,,,,,,,,,,,,,,,,,,,,,,,,,,,,,,,,,,,,,,,,,,,,,,,,,,,,,,,,,,,,,,,,,,,,,,,,,,,,,,,,,,,,,,,,,,,,,,,,,,,,,,,,,
,,610c3fa9aa356c9ebde029b7,2024-02-18_20h13.55.581,kallum_motion_pilot,2023.2.2,Win32,144.9275362,610c3fa9aa356c9ebde029b7,65d2b6c8f2eece985d8e374c,65d2b948739cdfcf63afc37b,0.0452,0.0452,1,113,275,32,1,onetwo,,,,,,,,,,,,,,,,,,,,,,,,,,,,,,,,,,,,,,,,,,,,,,,,,,,,,,,,,,,,,,,,,,,,,,,,,,,,,,,,,,,,,,,,,,,,,,,,,,,,,,,,,,,,,,,,,,,,,,,,,,,,,,,,,,,,,,,,,
,,610c3fa9aa356c9ebde029b7,2024-02-18_20h13.55.581,kallum_motion_pilot,2023.2.2,Win32,144.9275362,610c3fa9aa356c9ebde029b7,65d2b6c8f2eece985d8e374c,65d2b948739cdfcf63afc37b,0.0453,0.0453,1,114,276,62,1,fourtwo,,,,,,,,,,,,,,,,,,,,,,,,,,,,,,,,,,,,,,,,,,,,,,,,,,,,,,,,,,,,,,,,,,,,,,,,,,,,,,,,,,,,,,,,,,,,,,,,,,,,,,,,,,,,,,,,,,,,,,,,,,,,,,,,,,,,,,,,,
,,610c3fa9aa356c9ebde029b7,2024-02-18_20h13.55.581,kallum_motion_pilot,2023.2.2,Win32,144.9275362,610c3fa9aa356c9ebde029b7,65d2b6c8f2eece985d8e374c,65d2b948739cdfcf63afc37b,0.0453,0.0454,1,115,277,109,1,seveneight,,,,,,,,,,,,,,,,,,,,,,,,,,,,,,,,,,,,,,,,,,,,,,,,,,,,,,,,,,,,,,,,,,,,,,,,,,,,,,,,,,,,,,,,,,,,,,,,,,,,,,,,,,,,,,,,,,,,,,,,,,,,,,,,,,,,,,,,,
