startup.started,startup.stopped,Prolific ID*,date,expName,psychopyVersion,OS,frameRate,participant,study_id,session,stimpositions.started,stimpositions.stopped,hardcoded_stimulus_positions.thisRepN,hardcoded_stimulus_positions.thisTrialN,hardcoded_stimulus_positions.thisN,hardcoded_stimulus_positions.thisIndex,hardcoded_stimulus_positions.ran,StimulusPos,stimorientation.started,stimorientation.stopped,prac_stimorientation_import_loop.thisRepN,prac_stimorientation_import_loop.thisTrialN,prac_stimorientation_import_loop.thisN,prac_stimorientation_import_loop.thisIndex,prac_stimorientation_import_loop.ran,Stimorientation,welcome_instr.started,welcome_instr.stopped,key_resp.keys,key_resp.rt,key_resp.duration,response_steppedout_1.started,response_steppedout_1.stopped,key_resp_20.keys,key_resp_20.rt,key_resp_20.duration,response_steppedout_2.started,response_steppedout_2.stopped,key_resp_19.keys,key_resp_19.rt,key_resp_19.duration,stim_response_instr.started,stim_response_instr.stopped,key_resp_15.keys,key_resp_15.rt,key_resp_15.duration,direction_instr_2.started,direction_instr_2.stopped,key_resp_9.keys,key_resp_9.rt,key_resp_9.duration,instr_prac.started,instr_prac.stopped,key_resp_10.keys,key_resp_10.rt,key_resp_10.duration,Stim1_display_prac.started,Stim1_display_prac.stopped,Ecc,Circle1_ori,Circle2_ori,response_prac.started,similarity,response_time,response_prac.stopped,mouse_5.x,mouse_5.y,mouse_5.leftButton,mouse_5.midButton,mouse_5.rightButton,mouse_5.clicked_name,responseprac_feedback.started,responseprac_feedback.stopped,summary2_prac.started,summary2_prac.stopped,mouse_6.x,mouse_6.y,mouse_6.leftButton,mouse_6.midButton,mouse_6.rightButton,mouse_6.clicked_name,duringprac.thisRepN,duringprac.thisTrialN,duringprac.thisN,duringprac.thisIndex,duringprac.ran,begin.started,begin.stopped,key_resp_22.keys,key_resp_22.rt,key_resp_22.duration,Stim1_display.started,Stim1_display.stopped,circle1_ori,circle2_ori,circle1_SF,circle2_SF,response.started,response.stopped,mouse.x,mouse.y,mouse.leftButton,mouse.midButton,mouse.rightButton,mouse.clicked_name,trialnumber,double_pass.thisRepN,double_pass.thisTrialN,double_pass.thisN,double_pass.thisIndex,double_pass.ran,double_pass.order,main_trial.thisRepN,main_trial.thisTrialN,main_trial.thisN,main_trial.thisIndex,main_trial.ran,main_trial.order,Trial_Counter,Catch,Frequencies,response_2.started,response_2.stopped,mouse_2.x,mouse_2.y,mouse_2.leftButton,mouse_2.midButton,mouse_2.rightButton,mouse_2.clicked_name,special_trial.started,special_trial.stopped,catch_1.started,catch_1.stopped,mouse_3.x,mouse_3.y,mouse_3.leftButton,mouse_3.midButton,mouse_3.rightButton,catchresponse,catchnumber,response_time_catch,response_sum.started,response_sum.stopped,mouse_11.x,mouse_11.y,mouse_11.leftButton,mouse_11.midButton,mouse_11.rightButton,flip_presentation_sequence_for_double_pass.started,flip_presentation_sequence_for_double_pass.stopped,goodbye.started,goodbye.stopped,key_resp_3.keys,key_resp_3.rt,key_resp_3.duration
0.0003,0.0004,610cca28e74fbb8c330464b8,2024-02-18_20h11.35.418,kallum_motion_pilot,2023.2.2,Win32,60.24096386,610cca28e74fbb8c330464b8,65d2b6c8f2eece985d8e374c,65d2b8885dfcb3e376af6146,,,,,,,,,,,,,,,,,,,,,,,,,,,,,,,,,,,,,,,,,,,,,,,,,,,,,,,,,,,,,,,,,,,,,,,,,,,,,,,,,,,,,,,,,,,,,,,,,,,,,,,,,,,,,,,,,,,,,,,,,,,,,,,,,,,,,,,,,,,,,,,,,
,,610cca28e74fbb8c330464b8,2024-02-18_20h11.35.418,kallum_motion_pilot,2023.2.2,Win32,60.24096386,610cca28e74fbb8c330464b8,65d2b6c8f2eece985d8e374c,65d2b8885dfcb3e376af6146,0.0257,0.0261,0,0,0,126,1,eightsix,,,,,,,,,,,,,,,,,,,,,,,,,,,,,,,,,,,,,,,,,,,,,,,,,,,,,,,,,,,,,,,,,,,,,,,,,,,,,,,,,,,,,,,,,,,,,,,,,,,,,,,,,,,,,,,,,,,,,,,,,,,,,,,,,,,,,,,,,
,,610cca28e74fbb8c330464b8,2024-02-18_20h11.35.418,kallum_motion_pilot,2023.2.2,Win32,60.24096386,610cca28e74fbb8c330464b8,65d2b6c8f2eece985d8e374c,65d2b8885dfcb3e376af6146,0.0263,0.0264,0,1,1,18,1,twoone,,,,,,,,,,,,,,,,,,,,,,,,,,,,,,,,,,,,,,,,,,,,,,,,,,,,,,,,,,,,,,,,,,,,,,,,,,,,,,,,,,,,,,,,,,,,,,,,,,,,,,,,,,,,,,,,,,,,,,,,,,,,,,,,,,,,,,,,,
,,610cca28e74fbb8c330464b8,2024-02-18_20h11.35.418,kallum_motion_pilot,2023.2.2,Win32,60.24096386,610cca28e74fbb8c330464b8,65d2b6c8f2eece985d8e374c,65d2b8885dfcb3e376af6146,0.0266,0.0266,0,2,2,5,1,threefour,,,,,,,,,,,,,,,,,,,,,,,,,,,,,,,,,,,,,,,,,,,,,,,,,,,,,,,,,,,,,,,,,,,,,,,,,,,,,,,,,,,,,,,,,,,,,,,,,,,,,,,,,,,,,,,,,,,,,,,,,,,,,,,,,,,,,,,,,
,,610cca28e74fbb8c330464b8,2024-02-18_20h11.35.418,kallum_motion_pilot,2023.2.2,Win32,60.24096386,610cca28e74fbb8c330464b8,65d2b6c8f2eece985d8e374c,65d2b8885dfcb3e376af6146,0.0268,0.0269,0,3,3,158,1,eightsix,,,,,,,,,,,,,,,,,,,,,,,,,,,,,,,,,,,,,,,,,,,,,,,,,,,,,,,,,,,,,,,,,,,,,,,,,,,,,,,,,,,,,,,,,,,,,,,,,,,,,,,,,,,,,,,,,,,,,,,,,,,,,,,,,,,,,,,,,
,,610cca28e74fbb8c330464b8,2024-02-18_20h11.35.418,kallum_motion_pilot,2023.2.2,Win32,60.24096386,610cca28e74fbb8c330464b8,65d2b6c8f2eece985d8e374c,65d2b8885dfcb3e376af6146,0.0269,0.027,0,4,4,68,1,threeone,,,,,,,,,,,,,,,,,,,,,,,,,,,,,,,,,,,,,,,,,,,,,,,,,,,,,,,,,,,,,,,,,,,,,,,,,,,,,,,,,,,,,,,,,,,,,,,,,,,,,,,,,,,,,,,,,,,,,,,,,,,,,,,,,,,,,,,,,
,,610cca28e74fbb8c330464b8,2024-02-18_20h11.35.418,kallum_motion_pilot,2023.2.2,Win32,60.24096386,610cca28e74fbb8c330464b8,65d2b6c8f2eece985d8e374c,65d2b8885dfcb3e376af6146,0.0271,0.0271,0,5,5,138,1,sixfive,,,,,,,,,,,,,,,,,,,,,,,,,,,,,,,,,,,,,,,,,,,,,,,,,,,,,,,,,,,,,,,,,,,,,,,,,,,,,,,,,,,,,,,,,,,,,,,,,,,,,,,,,,,,,,,,,,,,,,,,,,,,,,,,,,,,,,,,,
,,610cca28e74fbb8c330464b8,2024-02-18_20h11.35.418,kallum_motion_pilot,2023.2.2,Win32,60.24096386,610cca28e74fbb8c330464b8,65d2b6c8f2eece985d8e374c,65d2b8885dfcb3e376af6146,0.0272,0.0273,0,6,6,66,1,twoone,,,,,,,,,,,,,,,,,,,,,,,,,,,,,,,,,,,,,,,,,,,,,,,,,,,,,,,,,,,,,,,,,,,,,,,,,,,,,,,,,,,,,,,,,,,,,,,,,,,,,,,,,,,,,,,,,,,,,,,,,,,,,,,,,,,,,,,,,
,,610cca28e74fbb8c330464b8,2024-02-18_20h11.35.418,kallum_motion_pilot,2023.2.2,Win32,60.24096386,610cca28e74fbb8c330464b8,65d2b6c8f2eece985d8e374c,65d2b8885dfcb3e376af6146,0.0274,0.0274,0,7,7,82,1,sixfive,,,,,,,,,,,,,,,,,,,,,,,,,,,,,,,,,,,,,,,,,,,,,,,,,,,,,,,,,,,,,,,,,,,,,,,,,,,,,,,,,,,,,,,,,,,,,,,,,,,,,,,,,,,,,,,,,,,,,,,,,,,,,,,,,,,,,,,,,
,,610cca28e74fbb8c330464b8,2024-02-18_20h11.35.418,kallum_motion_pilot,2023.2.2,Win32,60.24096386,610cca28e74fbb8c330464b8,65d2b6c8f2eece985d8e374c,65d2b8885dfcb3e376af6146,0.0275,0.0276,0,8,8,46,1,fourtwo,,,,,,,,,,,,,,,,,,,,,,,,,,,,,,,,,,,,,,,,,,,,,,,,,,,,,,,,,,,,,,,,,,,,,,,,,,,,,,,,,,,,,,,,,,,,,,,,,,,,,,,,,,,,,,,,,,,,,,,,,,,,,,,,,,,,,,,,,
,,610cca28e74fbb8c330464b8,2024-02-18_20h11.35.418,kallum_motion_pilot,2023.2.2,Win32,60.24096386,610cca28e74fbb8c330464b8,65d2b6c8f2eece985d8e374c,65d2b8885dfcb3e376af6146,0.0278,0.0278,0,9,9,144,1,fivesix,,,,,,,,,,,,,,,,,,,,,,,,,,,,,,,,,,,,,,,,,,,,,,,,,,,,,,,,,,,,,,,,,,,,,,,,,,,,,,,,,,,,,,,,,,,,,,,,,,,,,,,,,,,,,,,,,,,,,,,,,,,,,,,,,,,,,,,,,
,,610cca28e74fbb8c330464b8,2024-02-18_20h11.35.418,kallum_motion_pilot,2023.2.2,Win32,60.24096386,610cca28e74fbb8c330464b8,65d2b6c8f2eece985d8e374c,65d2b8885dfcb3e376af6146,0.0279,0.0279,0,10,10,27,1,twofour,,,,,,,,,,,,,,,,,,,,,,,,,,,,,,,,,,,,,,,,,,,,,,,,,,,,,,,,,,,,,,,,,,,,,,,,,,,,,,,,,,,,,,,,,,,,,,,,,,,,,,,,,,,,,,,,,,,,,,,,,,,,,,,,,,,,,,,,,
,,610cca28e74fbb8c330464b8,2024-02-18_20h11.35.418,kallum_motion_pilot,2023.2.2,Win32,60.24096386,610cca28e74fbb8c330464b8,65d2b6c8f2eece985d8e374c,65d2b8885dfcb3e376af6146,0.028,0.0281,0,11,11,123,1,sixeight,,,,,,,,,,,,,,,,,,,,,,,,,,,,,,,,,,,,,,,,,,,,,,,,,,,,,,,,,,,,,,,,,,,,,,,,,,,,,,,,,,,,,,,,,,,,,,,,,,,,,,,,,,,,,,,,,,,,,,,,,,,,,,,,,,,,,,,,,
,,610cca28e74fbb8c330464b8,2024-02-18_20h11.35.418,kallum_motion_pilot,2023.2.2,Win32,60.24096386,610cca28e74fbb8c330464b8,65d2b6c8f2eece985d8e374c,65d2b8885dfcb3e376af6146,0.0282,0.0283,0,12,12,91,1,sixeight,,,,,,,,,,,,,,,,,,,,,,,,,,,,,,,,,,,,,,,,,,,,,,,,,,,,,,,,,,,,,,,,,,,,,,,,,,,,,,,,,,,,,,,,,,,,,,,,,,,,,,,,,,,,,,,,,,,,,,,,,,,,,,,,,,,,,,,,,
,,610cca28e74fbb8c330464b8,2024-02-18_20h11.35.418,kallum_motion_pilot,2023.2.2,Win32,60.24096386,610cca28e74fbb8c330464b8,65d2b6c8f2eece985d8e374c,65d2b8885dfcb3e376af6146,0.0284,0.0285,0,13,13,142,1,eightsix,,,,,,,,,,,,,,,,,,,,,,,,,,,,,,,,,,,,,,,,,,,,,,,,,,,,,,,,,,,,,,,,,,,,,,,,,,,,,,,,,,,,,,,,,,,,,,,,,,,,,,,,,,,,,,,,,,,,,,,,,,,,,,,,,,,,,,,,,
,,610cca28e74fbb8c330464b8,2024-02-18_20h11.35.418,kallum_motion_pilot,2023.2.2,Win32,60.24096386,610cca28e74fbb8c330464b8,65d2b6c8f2eece985d8e374c,65d2b8885dfcb3e376af6146,0.0286,0.0287,0,14,14,29,1,threefour,,,,,,,,,,,,,,,,,,,,,,,,,,,,,,,,,,,,,,,,,,,,,,,,,,,,,,,,,,,,,,,,,,,,,,,,,,,,,,,,,,,,,,,,,,,,,,,,,,,,,,,,,,,,,,,,,,,,,,,,,,,,,,,,,,,,,,,,,
,,610cca28e74fbb8c330464b8,2024-02-18_20h11.35.418,kallum_motion_pilot,2023.2.2,Win32,60.24096386,610cca28e74fbb8c330464b8,65d2b6c8f2eece985d8e374c,65d2b8885dfcb3e376af6146,0.0288,0.0289,0,15,15,111,1,eightseven,,,,,,,,,,,,,,,,,,,,,,,,,,,,,,,,,,,,,,,,,,,,,,,,,,,,,,,,,,,,,,,,,,,,,,,,,,,,,,,,,,,,,,,,,,,,,,,,,,,,,,,,,,,,,,,,,,,,,,,,,,,,,,,,,,,,,,,,,
,,610cca28e74fbb8c330464b8,2024-02-18_20h11.35.418,kallum_motion_pilot,2023.2.2,Win32,60.24096386,610cca28e74fbb8c330464b8,65d2b6c8f2eece985d8e374c,65d2b8885dfcb3e376af6146,0.029,0.029,0,16,16,0,1,onetwo,,,,,,,,,,,,,,,,,,,,,,,,,,,,,,,,,,,,,,,,,,,,,,,,,,,,,,,,,,,,,,,,,,,,,,,,,,,,,,,,,,,,,,,,,,,,,,,,,,,,,,,,,,,,,,,,,,,,,,,,,,,,,,,,,,,,,,,,,
,,610cca28e74fbb8c330464b8,2024-02-18_20h11.35.418,kallum_motion_pilot,2023.2.2,Win32,60.24096386,610cca28e74fbb8c330464b8,65d2b6c8f2eece985d8e374c,65d2b8885dfcb3e376af6146,0.0292,0.0292,0,17,17,6,1,fourtwo,,,,,,,,,,,,,,,,,,,,,,,,,,,,,,,,,,,,,,,,,,,,,,,,,,,,,,,,,,,,,,,,,,,,,,,,,,,,,,,,,,,,,,,,,,,,,,,,,,,,,,,,,,,,,,,,,,,,,,,,,,,,,,,,,,,,,,,,,
,,610cca28e74fbb8c330464b8,2024-02-18_20h11.35.418,kallum_motion_pilot,2023.2.2,Win32,60.24096386,610cca28e74fbb8c330464b8,65d2b6c8f2eece985d8e374c,65d2b8885dfcb3e376af6146,0.0294,0.0295,0,18,18,151,1,eightseven,,,,,,,,,,,,,,,,,,,,,,,,,,,,,,,,,,,,,,,,,,,,,,,,,,,,,,,,,,,,,,,,,,,,,,,,,,,,,,,,,,,,,,,,,,,,,,,,,,,,,,,,,,,,,,,,,,,,,,,,,,,,,,,,,,,,,,,,,
,,610cca28e74fbb8c330464b8,2024-02-18_20h11.35.418,kallum_motion_pilot,2023.2.2,Win32,60.24096386,610cca28e74fbb8c330464b8,65d2b6c8f2eece985d8e374c,65d2b8885dfcb3e376af6146,0.0297,0.0297,0,19,19,103,1,eightseven,,,,,,,,,,,,,,,,,,,,,,,,,,,,,,,,,,,,,,,,,,,,,,,,,,,,,,,,,,,,,,,,,,,,,,,,,,,,,,,,,,,,,,,,,,,,,,,,,,,,,,,,,,,,,,,,,,,,,,,,,,,,,,,,,,,,,,,,,
,,610cca28e74fbb8c330464b8,2024-02-18_20h11.35.418,kallum_motion_pilot,2023.2.2,Win32,60.24096386,610cca28e74fbb8c330464b8,65d2b6c8f2eece985d8e374c,65d2b8885dfcb3e376af6146,0.0297,0.0298,0,20,20,23,1,fourthree,,,,,,,,,,,,,,,,,,,,,,,,,,,,,,,,,,,,,,,,,,,,,,,,,,,,,,,,,,,,,,,,,,,,,,,,,,,,,,,,,,,,,,,,,,,,,,,,,,,,,,,,,,,,,,,,,,,,,,,,,,,,,,,,,,,,,,,,,
,,610cca28e74fbb8c330464b8,2024-02-18_20h11.35.418,kallum_motion_pilot,2023.2.2,Win32,60.24096386,610cca28e74fbb8c330464b8,65d2b6c8f2eece985d8e374c,65d2b8885dfcb3e376af6146,0.0299,0.0299,0,21,21,15,1,fourthree,,,,,,,,,,,,,,,,,,,,,,,,,,,,,,,,,,,,,,,,,,,,,,,,,,,,,,,,,,,,,,,,,,,,,,,,,,,,,,,,,,,,,,,,,,,,,,,,,,,,,,,,,,,,,,,,,,,,,,,,,,,,,,,,,,,,,,,,,
,,610cca28e74fbb8c330464b8,2024-02-18_20h11.35.418,kallum_motion_pilot,2023.2.2,Win32,60.24096386,610cca28e74fbb8c330464b8,65d2b6c8f2eece985d8e374c,65d2b8885dfcb3e376af6146,0.0299,0.03,0,22,22,108,1,sevenfive,,,,,,,,,,,,,,,,,,,,,,,,,,,,,,,,,,,,,,,,,,,,,,,,,,,,,,,,,,,,,,,,,,,,,,,,,,,,,,,,,,,,,,,,,,,,,,,,,,,,,,,,,,,,,,,,,,,,,,,,,,,,,,,,,,,,,,,,,
,,610cca28e74fbb8c330464b8,2024-02-18_20h11.35.418,kallum_motion_pilot,2023.2.2,Win32,60.24096386,610cca28e74fbb8c330464b8,65d2b6c8f2eece985d8e374c,65d2b8885dfcb3e376af6146,0.0301,0.0301,0,23,23,139,1,sixeight,,,,,,,,,,,,,,,,,,,,,,,,,,,,,,,,,,,,,,,,,,,,,,,,,,,,,,,,,,,,,,,,,,,,,,,,,,,,,,,,,,,,,,,,,,,,,,,,,,,,,,,,,,,,,,,,,,,,,,,,,,,,,,,,,,,,,,,,,
,,610cca28e74fbb8c330464b8,2024-02-18_20h11.35.418,kallum_motion_pilot,2023.2.2,Win32,60.24096386,610cca28e74fbb8c330464b8,65d2b6c8f2eece985d8e374c,65d2b8885dfcb3e376af6146,0.0302,0.0302,0,24,24,26,1,twoone,,,,,,,,,,,,,,,,,,,,,,,,,,,,,,,,,,,,,,,,,,,,,,,,,,,,,,,,,,,,,,,,,,,,,,,,,,,,,,,,,,,,,,,,,,,,,,,,,,,,,,,,,,,,,,,,,,,,,,,,,,,,,,,,,,,,,,,,,
,,610cca28e74fbb8c330464b8,2024-02-18_20h11.35.418,kallum_motion_pilot,2023.2.2,Win32,60.24096386,610cca28e74fbb8c330464b8,65d2b6c8f2eece985d8e374c,65d2b8885dfcb3e376af6146,0.0303,0.0303,0,25,25,11,1,twofour,,,,,,,,,,,,,,,,,,,,,,,,,,,,,,,,,,,,,,,,,,,,,,,,,,,,,,,,,,,,,,,,,,,,,,,,,,,,,,,,,,,,,,,,,,,,,,,,,,,,,,,,,,,,,,,,,,,,,,,,,,,,,,,,,,,,,,,,,
,,610cca28e74fbb8c330464b8,2024-02-18_20h11.35.418,kallum_motion_pilot,2023.2.2,Win32,60.24096386,610cca28e74fbb8c330464b8,65d2b6c8f2eece985d8e374c,65d2b8885dfcb3e376af6146,0.0304,0.0305,0,26,26,89,1,fiveseven,,,,,,,,,,,,,,,,,,,,,,,,,,,,,,,,,,,,,,,,,,,,,,,,,,,,,,,,,,,,,,,,,,,,,,,,,,,,,,,,,,,,,,,,,,,,,,,,,,,,,,,,,,,,,,,,,,,,,,,,,,,,,,,,,,,,,,,,,
,,610cca28e74fbb8c330464b8,2024-02-18_20h11.35.418,kallum_motion_pilot,2023.2.2,Win32,60.24096386,610cca28e74fbb8c330464b8,65d2b6c8f2eece985d8e374c,65d2b8885dfcb3e376af6146,0.0306,0.0307,0,27,27,97,1,fiveseven,,,,,,,,,,,,,,,,,,,,,,,,,,,,,,,,,,,,,,,,,,,,,,,,,,,,,,,,,,,,,,,,,,,,,,,,,,,,,,,,,,,,,,,,,,,,,,,,,,,,,,,,,,,,,,,,,,,,,,,,,,,,,,,,,,,,,,,,,
,,610cca28e74fbb8c330464b8,2024-02-18_20h11.35.418,kallum_motion_pilot,2023.2.2,Win32,60.24096386,610cca28e74fbb8c330464b8,65d2b6c8f2eece985d8e374c,65d2b8885dfcb3e376af6146,0.0308,0.0309,0,28,28,41,1,onethree,,,,,,,,,,,,,,,,,,,,,,,,,,,,,,,,,,,,,,,,,,,,,,,,,,,,,,,,,,,,,,,,,,,,,,,,,,,,,,,,,,,,,,,,,,,,,,,,,,,,,,,,,,,,,,,,,,,,,,,,,,,,,,,,,,,,,,,,,
,,610cca28e74fbb8c330464b8,2024-02-18_20h11.35.418,kallum_motion_pilot,2023.2.2,Win32,60.24096386,610cca28e74fbb8c330464b8,65d2b6c8f2eece985d8e374c,65d2b8885dfcb3e376af6146,0.0309,0.0309,0,29,29,31,1,fourthree,,,,,,,,,,,,,,,,,,,,,,,,,,,,,,,,,,,,,,,,,,,,,,,,,,,,,,,,,,,,,,,,,,,,,,,,,,,,,,,,,,,,,,,,,,,,,,,,,,,,,,,,,,,,,,,,,,,,,,,,,,,,,,,,,,,,,,,,,
,,610cca28e74fbb8c330464b8,2024-02-18_20h11.35.418,kallum_motion_pilot,2023.2.2,Win32,60.24096386,610cca28e74fbb8c330464b8,65d2b6c8f2eece985d8e374c,65d2b8885dfcb3e376af6146,0.031,0.0311,0,30,30,104,1,fivesix,,,,,,,,,,,,,,,,,,,,,,,,,,,,,,,,,,,,,,,,,,,,,,,,,,,,,,,,,,,,,,,,,,,,,,,,,,,,,,,,,,,,,,,,,,,,,,,,,,,,,,,,,,,,,,,,,,,,,,,,,,,,,,,,,,,,,,,,,
,,610cca28e74fbb8c330464b8,2024-02-18_20h11.35.418,kallum_motion_pilot,2023.2.2,Win32,60.24096386,610cca28e74fbb8c330464b8,65d2b6c8f2eece985d8e374c,65d2b8885dfcb3e376af6146,0.0312,0.0312,0,31,31,62,1,fourtwo,,,,,,,,,,,,,,,,,,,,,,,,,,,,,,,,,,,,,,,,,,,,,,,,,,,,,,,,,,,,,,,,,,,,,,,,,,,,,,,,,,,,,,,,,,,,,,,,,,,,,,,,,,,,,,,,,,,,,,,,,,,,,,,,,,,,,,,,,
,,610cca28e74fbb8c330464b8,2024-02-18_20h11.35.418,kallum_motion_pilot,2023.2.2,Win32,60.24096386,610cca28e74fbb8c330464b8,65d2b6c8f2eece985d8e374c,65d2b8885dfcb3e376af6146,0.0312,0.0313,0,32,32,42,1,twoone,,,,,,,,,,,,,,,,,,,,,,,,,,,,,,,,,,,,,,,,,,,,,,,,,,,,,,,,,,,,,,,,,,,,,,,,,,,,,,,,,,,,,,,,,,,,,,,,,,,,,,,,,,,,,,,,,,,,,,,,,,,,,,,,,,,,,,,,,
,,610cca28e74fbb8c330464b8,2024-02-18_20h11.35.418,kallum_motion_pilot,2023.2.2,Win32,60.24096386,610cca28e74fbb8c330464b8,65d2b6c8f2eece985d8e374c,65d2b8885dfcb3e376af6146,0.0314,0.0314,0,33,33,3,1,twofour,,,,,,,,,,,,,,,,,,,,,,,,,,,,,,,,,,,,,,,,,,,,,,,,,,,,,,,,,,,,,,,,,,,,,,,,,,,,,,,,,,,,,,,,,,,,,,,,,,,,,,,,,,,,,,,,,,,,,,,,,,,,,,,,,,,,,,,,,
,,610cca28e74fbb8c330464b8,2024-02-18_20h11.35.418,kallum_motion_pilot,2023.2.2,Win32,60.24096386,610cca28e74fbb8c330464b8,65d2b6c8f2eece985d8e374c,65d2b8885dfcb3e376af6146,0.0315,0.0315,0,34,34,4,1,threeone,,,,,,,,,,,,,,,,,,,,,,,,,,,,,,,,,,,,,,,,,,,,,,,,,,,,,,,,,,,,,,,,,,,,,,,,,,,,,,,,,,,,,,,,,,,,,,,,,,,,,,,,,,,,,,,,,,,,,,,,,,,,,,,,,,,,,,,,,
,,610cca28e74fbb8c330464b8,2024-02-18_20h11.35.418,kallum_motion_pilot,2023.2.2,Win32,60.24096386,610cca28e74fbb8c330464b8,65d2b6c8f2eece985d8e374c,65d2b8885dfcb3e376af6146,0.0315,0.0316,0,35,35,16,1,onetwo,,,,,,,,,,,,,,,,,,,,,,,,,,,,,,,,,,,,,,,,,,,,,,,,,,,,,,,,,,,,,,,,,,,,,,,,,,,,,,,,,,,,,,,,,,,,,,,,,,,,,,,,,,,,,,,,,,,,,,,,,,,,,,,,,,,,,,,,,
,,610cca28e74fbb8c330464b8,2024-02-18_20h11.35.418,kallum_motion_pilot,2023.2.2,Win32,60.24096386,610cca28e74fbb8c330464b8,65d2b6c8f2eece985d8e374c,65d2b8885dfcb3e376af6146,0.0317,0.0317,0,36,36,33,1,onethree,,,,,,,,,,,,,,,,,,,,,,,,,,,,,,,,,,,,,,,,,,,,,,,,,,,,,,,,,,,,,,,,,,,,,,,,,,,,,,,,,,,,,,,,,,,,,,,,,,,,,,,,,,,,,,,,,,,,,,,,,,,,,,,,,,,,,,,,,
,,610cca28e74fbb8c330464b8,2024-02-18_20h11.35.418,kallum_motion_pilot,2023.2.2,Win32,60.24096386,610cca28e74fbb8c330464b8,65d2b6c8f2eece985d8e374c,65d2b8885dfcb3e376af6146,0.0319,0.0319,0,37,37,156,1,sevenfive,,,,,,,,,,,,,,,,,,,,,,,,,,,,,,,,,,,,,,,,,,,,,,,,,,,,,,,,,,,,,,,,,,,,,,,,,,,,,,,,,,,,,,,,,,,,,,,,,,,,,,,,,,,,,,,,,,,,,,,,,,,,,,,,,,,,,,,,,
,,610cca28e74fbb8c330464b8,2024-02-18_20h11.35.418,kallum_motion_pilot,2023.2.2,Win32,60.24096386,610cca28e74fbb8c330464b8,65d2b6c8f2eece985d8e374c,65d2b8885dfcb3e376af6146,0.0319,0.0319,0,38,38,73,1,onethree,,,,,,,,,,,,,,,,,,,,,,,,,,,,,,,,,,,,,,,,,,,,,,,,,,,,,,,,,,,,,,,,,,,,,,,,,,,,,,,,,,,,,,,,,,,,,,,,,,,,,,,,,,,,,,,,,,,,,,,,,,,,,,,,,,,,,,,,,
,,610cca28e74fbb8c330464b8,2024-02-18_20h11.35.418,kallum_motion_pilot,2023.2.2,Win32,60.24096386,610cca28e74fbb8c330464b8,65d2b6c8f2eece985d8e374c,65d2b8885dfcb3e376af6146,0.032,0.032,0,39,39,17,1,onethree,,,,,,,,,,,,,,,,,,,,,,,,,,,,,,,,,,,,,,,,,,,,,,,,,,,,,,,,,,,,,,,,,,,,,,,,,,,,,,,,,,,,,,,,,,,,,,,,,,,,,,,,,,,,,,,,,,,,,,,,,,,,,,,,,,,,,,,,,
,,610cca28e74fbb8c330464b8,2024-02-18_20h11.35.418,kallum_motion_pilot,2023.2.2,Win32,60.24096386,610cca28e74fbb8c330464b8,65d2b6c8f2eece985d8e374c,65d2b8885dfcb3e376af6146,0.0321,0.0321,0,40,40,88,1,fivesix,,,,,,,,,,,,,,,,,,,,,,,,,,,,,,,,,,,,,,,,,,,,,,,,,,,,,,,,,,,,,,,,,,,,,,,,,,,,,,,,,,,,,,,,,,,,,,,,,,,,,,,,,,,,,,,,,,,,,,,,,,,,,,,,,,,,,,,,,
,,610cca28e74fbb8c330464b8,2024-02-18_20h11.35.418,kallum_motion_pilot,2023.2.2,Win32,60.24096386,610cca28e74fbb8c330464b8,65d2b6c8f2eece985d8e374c,65d2b8885dfcb3e376af6146,0.0322,0.0323,0,41,41,92,1,sevenfive,,,,,,,,,,,,,,,,,,,,,,,,,,,,,,,,,,,,,,,,,,,,,,,,,,,,,,,,,,,,,,,,,,,,,,,,,,,,,,,,,,,,,,,,,,,,,,,,,,,,,,,,,,,,,,,,,,,,,,,,,,,,,,,,,,,,,,,,,
,,610cca28e74fbb8c330464b8,2024-02-18_20h11.35.418,kallum_motion_pilot,2023.2.2,Win32,60.24096386,610cca28e74fbb8c330464b8,65d2b6c8f2eece985d8e374c,65d2b8885dfcb3e376af6146,0.0323,0.0323,0,42,42,93,1,seveneight,,,,,,,,,,,,,,,,,,,,,,,,,,,,,,,,,,,,,,,,,,,,,,,,,,,,,,,,,,,,,,,,,,,,,,,,,,,,,,,,,,,,,,,,,,,,,,,,,,,,,,,,,,,,,,,,,,,,,,,,,,,,,,,,,,,,,,,,,
,,610cca28e74fbb8c330464b8,2024-02-18_20h11.35.418,kallum_motion_pilot,2023.2.2,Win32,60.24096386,610cca28e74fbb8c330464b8,65d2b6c8f2eece985d8e374c,65d2b8885dfcb3e376af6146,0.0325,0.0325,0,43,43,154,1,sixfive,,,,,,,,,,,,,,,,,,,,,,,,,,,,,,,,,,,,,,,,,,,,,,,,,,,,,,,,,,,,,,,,,,,,,,,,,,,,,,,,,,,,,,,,,,,,,,,,,,,,,,,,,,,,,,,,,,,,,,,,,,,,,,,,,,,,,,,,,
,,610cca28e74fbb8c330464b8,2024-02-18_20h11.35.418,kallum_motion_pilot,2023.2.2,Win32,60.24096386,610cca28e74fbb8c330464b8,65d2b6c8f2eece985d8e374c,65d2b8885dfcb3e376af6146,0.0326,0.0326,0,44,44,35,1,twofour,,,,,,,,,,,,,,,,,,,,,,,,,,,,,,,,,,,,,,,,,,,,,,,,,,,,,,,,,,,,,,,,,,,,,,,,,,,,,,,,,,,,,,,,,,,,,,,,,,,,,,,,,,,,,,,,,,,,,,,,,,,,,,,,,,,,,,,,,
,,610cca28e74fbb8c330464b8,2024-02-18_20h11.35.418,kallum_motion_pilot,2023.2.2,Win32,60.24096386,610cca28e74fbb8c330464b8,65d2b6c8f2eece985d8e374c,65d2b8885dfcb3e376af6146,0.0327,0.0327,0,45,45,53,1,threefour,,,,,,,,,,,,,,,,,,,,,,,,,,,,,,,,,,,,,,,,,,,,,,,,,,,,,,,,,,,,,,,,,,,,,,,,,,,,,,,,,,,,,,,,,,,,,,,,,,,,,,,,,,,,,,,,,,,,,,,,,,,,,,,,,,,,,,,,,
,,610cca28e74fbb8c330464b8,2024-02-18_20h11.35.418,kallum_motion_pilot,2023.2.2,Win32,60.24096386,610cca28e74fbb8c330464b8,65d2b6c8f2eece985d8e374c,65d2b8885dfcb3e376af6146,0.0328,0.0329,0,46,46,153,1,fiveseven,,,,,,,,,,,,,,,,,,,,,,,,,,,,,,,,,,,,,,,,,,,,,,,,,,,,,,,,,,,,,,,,,,,,,,,,,,,,,,,,,,,,,,,,,,,,,,,,,,,,,,,,,,,,,,,,,,,,,,,,,,,,,,,,,,,,,,,,,
,,610cca28e74fbb8c330464b8,2024-02-18_20h11.35.418,kallum_motion_pilot,2023.2.2,Win32,60.24096386,610cca28e74fbb8c330464b8,65d2b6c8f2eece985d8e374c,65d2b8885dfcb3e376af6146,0.0329,0.0329,0,47,47,9,1,onethree,,,,,,,,,,,,,,,,,,,,,,,,,,,,,,,,,,,,,,,,,,,,,,,,,,,,,,,,,,,,,,,,,,,,,,,,,,,,,,,,,,,,,,,,,,,,,,,,,,,,,,,,,,,,,,,,,,,,,,,,,,,,,,,,,,,,,,,,,
,,610cca28e74fbb8c330464b8,2024-02-18_20h11.35.418,kallum_motion_pilot,2023.2.2,Win32,60.24096386,610cca28e74fbb8c330464b8,65d2b6c8f2eece985d8e374c,65d2b8885dfcb3e376af6146,0.033,0.033,0,48,48,137,1,fiveseven,,,,,,,,,,,,,,,,,,,,,,,,,,,,,,,,,,,,,,,,,,,,,,,,,,,,,,,,,,,,,,,,,,,,,,,,,,,,,,,,,,,,,,,,,,,,,,,,,,,,,,,,,,,,,,,,,,,,,,,,,,,,,,,,,,,,,,,,,
,,610cca28e74fbb8c330464b8,2024-02-18_20h11.35.418,kallum_motion_pilot,2023.2.2,Win32,60.24096386,610cca28e74fbb8c330464b8,65d2b6c8f2eece985d8e374c,65d2b8885dfcb3e376af6146,0.0331,0.0331,0,49,49,40,1,onetwo,,,,,,,,,,,,,,,,,,,,,,,,,,,,,,,,,,,,,,,,,,,,,,,,,,,,,,,,,,,,,,,,,,,,,,,,,,,,,,,,,,,,,,,,,,,,,,,,,,,,,,,,,,,,,,,,,,,,,,,,,,,,,,,,,,,,,,,,,
,,610cca28e74fbb8c330464b8,2024-02-18_20h11.35.418,kallum_motion_pilot,2023.2.2,Win32,60.24096386,610cca28e74fbb8c330464b8,65d2b6c8f2eece985d8e374c,65d2b8885dfcb3e376af6146,0.0332,0.0332,0,50,50,84,1,sevenfive,,,,,,,,,,,,,,,,,,,,,,,,,,,,,,,,,,,,,,,,,,,,,,,,,,,,,,,,,,,,,,,,,,,,,,,,,,,,,,,,,,,,,,,,,,,,,,,,,,,,,,,,,,,,,,,,,,,,,,,,,,,,,,,,,,,,,,,,,
,,610cca28e74fbb8c330464b8,2024-02-18_20h11.35.418,kallum_motion_pilot,2023.2.2,Win32,60.24096386,610cca28e74fbb8c330464b8,65d2b6c8f2eece985d8e374c,65d2b8885dfcb3e376af6146,0.0333,0.0333,0,51,51,100,1,sevenfive,,,,,,,,,,,,,,,,,,,,,,,,,,,,,,,,,,,,,,,,,,,,,,,,,,,,,,,,,,,,,,,,,,,,,,,,,,,,,,,,,,,,,,,,,,,,,,,,,,,,,,,,,,,,,,,,,,,,,,,,,,,,,,,,,,,,,,,,,
,,610cca28e74fbb8c330464b8,2024-02-18_20h11.35.418,kallum_motion_pilot,2023.2.2,Win32,60.24096386,610cca28e74fbb8c330464b8,65d2b6c8f2eece985d8e374c,65d2b8885dfcb3e376af6146,0.0334,0.0335,0,52,52,145,1,fiveseven,,,,,,,,,,,,,,,,,,,,,,,,,,,,,,,,,,,,,,,,,,,,,,,,,,,,,,,,,,,,,,,,,,,,,,,,,,,,,,,,,,,,,,,,,,,,,,,,,,,,,,,,,,,,,,,,,,,,,,,,,,,,,,,,,,,,,,,,,
,,610cca28e74fbb8c330464b8,2024-02-18_20h11.35.418,kallum_motion_pilot,2023.2.2,Win32,60.24096386,610cca28e74fbb8c330464b8,65d2b6c8f2eece985d8e374c,65d2b8885dfcb3e376af6146,0.0336,0.0336,0,53,53,69,1,threefour,,,,,,,,,,,,,,,,,,,,,,,,,,,,,,,,,,,,,,,,,,,,,,,,,,,,,,,,,,,,,,,,,,,,,,,,,,,,,,,,,,,,,,,,,,,,,,,,,,,,,,,,,,,,,,,,,,,,,,,,,,,,,,,,,,,,,,,,,
,,610cca28e74fbb8c330464b8,2024-02-18_20h11.35.418,kallum_motion_pilot,2023.2.2,Win32,60.24096386,610cca28e74fbb8c330464b8,65d2b6c8f2eece985d8e374c,65d2b8885dfcb3e376af6146,0.0337,0.0337,0,54,54,105,1,fiveseven,,,,,,,,,,,,,,,,,,,,,,,,,,,,,,,,,,,,,,,,,,,,,,,,,,,,,,,,,,,,,,,,,,,,,,,,,,,,,,,,,,,,,,,,,,,,,,,,,,,,,,,,,,,,,,,,,,,,,,,,,,,,,,,,,,,,,,,,,
,,610cca28e74fbb8c330464b8,2024-02-18_20h11.35.418,kallum_motion_pilot,2023.2.2,Win32,60.24096386,610cca28e74fbb8c330464b8,65d2b6c8f2eece985d8e374c,65d2b8885dfcb3e376af6146,0.0338,0.0338,0,55,55,48,1,onetwo,,,,,,,,,,,,,,,,,,,,,,,,,,,,,,,,,,,,,,,,,,,,,,,,,,,,,,,,,,,,,,,,,,,,,,,,,,,,,,,,,,,,,,,,,,,,,,,,,,,,,,,,,,,,,,,,,,,,,,,,,,,,,,,,,,,,,,,,,
,,610cca28e74fbb8c330464b8,2024-02-18_20h11.35.418,kallum_motion_pilot,2023.2.2,Win32,60.24096386,610cca28e74fbb8c330464b8,65d2b6c8f2eece985d8e374c,65d2b8885dfcb3e376af6146,0.0338,0.0339,0,56,56,44,1,threeone,,,,,,,,,,,,,,,,,,,,,,,,,,,,,,,,,,,,,,,,,,,,,,,,,,,,,,,,,,,,,,,,,,,,,,,,,,,,,,,,,,,,,,,,,,,,,,,,,,,,,,,,,,,,,,,,,,,,,,,,,,,,,,,,,,,,,,,,,
,,610cca28e74fbb8c330464b8,2024-02-18_20h11.35.418,kallum_motion_pilot,2023.2.2,Win32,60.24096386,610cca28e74fbb8c330464b8,65d2b6c8f2eece985d8e374c,65d2b8885dfcb3e376af6146,0.034,0.034,0,57,57,81,1,fiveseven,,,,,,,,,,,,,,,,,,,,,,,,,,,,,,,,,,,,,,,,,,,,,,,,,,,,,,,,,,,,,,,,,,,,,,,,,,,,,,,,,,,,,,,,,,,,,,,,,,,,,,,,,,,,,,,,,,,,,,,,,,,,,,,,,,,,,,,,,
,,610cca28e74fbb8c330464b8,2024-02-18_20h11.35.418,kallum_motion_pilot,2023.2.2,Win32,60.24096386,610cca28e74fbb8c330464b8,65d2b6c8f2eece985d8e374c,65d2b8885dfcb3e376af6146,0.0341,0.0342,0,58,58,51,1,twofour,,,,,,,,,,,,,,,,,,,,,,,,,,,,,,,,,,,,,,,,,,,,,,,,,,,,,,,,,,,,,,,,,,,,,,,,,,,,,,,,,,,,,,,,,,,,,,,,,,,,,,,,,,,,,,,,,,,,,,,,,,,,,,,,,,,,,,,,,
,,610cca28e74fbb8c330464b8,2024-02-18_20h11.35.418,kallum_motion_pilot,2023.2.2,Win32,60.24096386,610cca28e74fbb8c330464b8,65d2b6c8f2eece985d8e374c,65d2b8885dfcb3e376af6146,0.0343,0.0343,0,59,59,155,1,sixeight,,,,,,,,,,,,,,,,,,,,,,,,,,,,,,,,,,,,,,,,,,,,,,,,,,,,,,,,,,,,,,,,,,,,,,,,,,,,,,,,,,,,,,,,,,,,,,,,,,,,,,,,,,,,,,,,,,,,,,,,,,,,,,,,,,,,,,,,,
,,610cca28e74fbb8c330464b8,2024-02-18_20h11.35.418,kallum_motion_pilot,2023.2.2,Win32,60.24096386,610cca28e74fbb8c330464b8,65d2b6c8f2eece985d8e374c,65d2b8885dfcb3e376af6146,0.0345,0.0346,0,60,60,28,1,threeone,,,,,,,,,,,,,,,,,,,,,,,,,,,,,,,,,,,,,,,,,,,,,,,,,,,,,,,,,,,,,,,,,,,,,,,,,,,,,,,,,,,,,,,,,,,,,,,,,,,,,,,,,,,,,,,,,,,,,,,,,,,,,,,,,,,,,,,,,
,,610cca28e74fbb8c330464b8,2024-02-18_20h11.35.418,kallum_motion_pilot,2023.2.2,Win32,60.24096386,610cca28e74fbb8c330464b8,65d2b6c8f2eece985d8e374c,65d2b8885dfcb3e376af6146,0.0347,0.0348,0,61,61,99,1,sixeight,,,,,,,,,,,,,,,,,,,,,,,,,,,,,,,,,,,,,,,,,,,,,,,,,,,,,,,,,,,,,,,,,,,,,,,,,,,,,,,,,,,,,,,,,,,,,,,,,,,,,,,,,,,,,,,,,,,,,,,,,,,,,,,,,,,,,,,,,
,,610cca28e74fbb8c330464b8,2024-02-18_20h11.35.418,kallum_motion_pilot,2023.2.2,Win32,60.24096386,610cca28e74fbb8c330464b8,65d2b6c8f2eece985d8e374c,65d2b8885dfcb3e376af6146,0.0349,0.0349,0,62,62,149,1,seveneight,,,,,,,,,,,,,,,,,,,,,,,,,,,,,,,,,,,,,,,,,,,,,,,,,,,,,,,,,,,,,,,,,,,,,,,,,,,,,,,,,,,,,,,,,,,,,,,,,,,,,,,,,,,,,,,,,,,,,,,,,,,,,,,,,,,,,,,,,
,,610cca28e74fbb8c330464b8,2024-02-18_20h11.35.418,kallum_motion_pilot,2023.2.2,Win32,60.24096386,610cca28e74fbb8c330464b8,65d2b6c8f2eece985d8e374c,65d2b8885dfcb3e376af6146,0.0351,0.0351,0,63,63,121,1,fiveseven,,,,,,,,,,,,,,,,,,,,,,,,,,,,,,,,,,,,,,,,,,,,,,,,,,,,,,,,,,,,,,,,,,,,,,,,,,,,,,,,,,,,,,,,,,,,,,,,,,,,,,,,,,,,,,,,,,,,,,,,,,,,,,,,,,,,,,,,,
,,610cca28e74fbb8c330464b8,2024-02-18_20h11.35.418,kallum_motion_pilot,2023.2.2,Win32,60.24096386,610cca28e74fbb8c330464b8,65d2b6c8f2eece985d8e374c,65d2b8885dfcb3e376af6146,0.0352,0.0353,0,64,64,136,1,fivesix,,,,,,,,,,,,,,,,,,,,,,,,,,,,,,,,,,,,,,,,,,,,,,,,,,,,,,,,,,,,,,,,,,,,,,,,,,,,,,,,,,,,,,,,,,,,,,,,,,,,,,,,,,,,,,,,,,,,,,,,,,,,,,,,,,,,,,,,,
,,610cca28e74fbb8c330464b8,2024-02-18_20h11.35.418,kallum_motion_pilot,2023.2.2,Win32,60.24096386,610cca28e74fbb8c330464b8,65d2b6c8f2eece985d8e374c,65d2b8885dfcb3e376af6146,0.0354,0.0354,0,65,65,63,1,fourthree,,,,,,,,,,,,,,,,,,,,,,,,,,,,,,,,,,,,,,,,,,,,,,,,,,,,,,,,,,,,,,,,,,,,,,,,,,,,,,,,,,,,,,,,,,,,,,,,,,,,,,,,,,,,,,,,,,,,,,,,,,,,,,,,,,,,,,,,,
,,610cca28e74fbb8c330464b8,2024-02-18_20h11.35.418,kallum_motion_pilot,2023.2.2,Win32,60.24096386,610cca28e74fbb8c330464b8,65d2b6c8f2eece985d8e374c,65d2b8885dfcb3e376af6146,0.0354,0.0355,0,66,66,96,1,fivesix,,,,,,,,,,,,,,,,,,,,,,,,,,,,,,,,,,,,,,,,,,,,,,,,,,,,,,,,,,,,,,,,,,,,,,,,,,,,,,,,,,,,,,,,,,,,,,,,,,,,,,,,,,,,,,,,,,,,,,,,,,,,,,,,,,,,,,,,,
,,610cca28e74fbb8c330464b8,2024-02-18_20h11.35.418,kallum_motion_pilot,2023.2.2,Win32,60.24096386,610cca28e74fbb8c330464b8,65d2b6c8f2eece985d8e374c,65d2b8885dfcb3e376af6146,0.0356,0.0356,0,67,67,64,1,onetwo,,,,,,,,,,,,,,,,,,,,,,,,,,,,,,,,,,,,,,,,,,,,,,,,,,,,,,,,,,,,,,,,,,,,,,,,,,,,,,,,,,,,,,,,,,,,,,,,,,,,,,,,,,,,,,,,,,,,,,,,,,,,,,,,,,,,,,,,,
,,610cca28e74fbb8c330464b8,2024-02-18_20h11.35.418,kallum_motion_pilot,2023.2.2,Win32,60.24096386,610cca28e74fbb8c330464b8,65d2b6c8f2eece985d8e374c,65d2b8885dfcb3e376af6146,0.0358,0.0359,0,68,68,57,1,onethree,,,,,,,,,,,,,,,,,,,,,,,,,,,,,,,,,,,,,,,,,,,,,,,,,,,,,,,,,,,,,,,,,,,,,,,,,,,,,,,,,,,,,,,,,,,,,,,,,,,,,,,,,,,,,,,,,,,,,,,,,,,,,,,,,,,,,,,,,
,,610cca28e74fbb8c330464b8,2024-02-18_20h11.35.418,kallum_motion_pilot,2023.2.2,Win32,60.24096386,610cca28e74fbb8c330464b8,65d2b6c8f2eece985d8e374c,65d2b8885dfcb3e376af6146,0.036,0.036,0,69,69,127,1,eightseven,,,,,,,,,,,,,,,,,,,,,,,,,,,,,,,,,,,,,,,,,,,,,,,,,,,,,,,,,,,,,,,,,,,,,,,,,,,,,,,,,,,,,,,,,,,,,,,,,,,,,,,,,,,,,,,,,,,,,,,,,,,,,,,,,,,,,,,,,
,,610cca28e74fbb8c330464b8,2024-02-18_20h11.35.418,kallum_motion_pilot,2023.2.2,Win32,60.24096386,610cca28e74fbb8c330464b8,65d2b6c8f2eece985d8e374c,65d2b8885dfcb3e376af6146,0.0361,0.0361,0,70,70,160,1,fivesix,,,,,,,,,,,,,,,,,,,,,,,,,,,,,,,,,,,,,,,,,,,,,,,,,,,,,,,,,,,,,,,,,,,,,,,,,,,,,,,,,,,,,,,,,,,,,,,,,,,,,,,,,,,,,,,,,,,,,,,,,,,,,,,,,,,,,,,,,
,,610cca28e74fbb8c330464b8,2024-02-18_20h11.35.418,kallum_motion_pilot,2023.2.2,Win32,60.24096386,610cca28e74fbb8c330464b8,65d2b6c8f2eece985d8e374c,65d2b8885dfcb3e376af6146,0.0362,0.0362,0,71,71,129,1,fiveseven,,,,,,,,,,,,,,,,,,,,,,,,,,,,,,,,,,,,,,,,,,,,,,,,,,,,,,,,,,,,,,,,,,,,,,,,,,,,,,,,,,,,,,,,,,,,,,,,,,,,,,,,,,,,,,,,,,,,,,,,,,,,,,,,,,,,,,,,,
,,610cca28e74fbb8c330464b8,2024-02-18_20h11.35.418,kallum_motion_pilot,2023.2.2,Win32,60.24096386,610cca28e74fbb8c330464b8,65d2b6c8f2eece985d8e374c,65d2b8885dfcb3e376af6146,0.0364,0.0364,0,72,72,60,1,threeone,,,,,,,,,,,,,,,,,,,,,,,,,,,,,,,,,,,,,,,,,,,,,,,,,,,,,,,,,,,,,,,,,,,,,,,,,,,,,,,,,,,,,,,,,,,,,,,,,,,,,,,,,,,,,,,,,,,,,,,,,,,,,,,,,,,,,,,,,
,,610cca28e74fbb8c330464b8,2024-02-18_20h11.35.418,kallum_motion_pilot,2023.2.2,Win32,60.24096386,610cca28e74fbb8c330464b8,65d2b6c8f2eece985d8e374c,65d2b8885dfcb3e376af6146,0.0365,0.0366,0,73,73,110,1,eightsix,,,,,,,,,,,,,,,,,,,,,,,,,,,,,,,,,,,,,,,,,,,,,,,,,,,,,,,,,,,,,,,,,,,,,,,,,,,,,,,,,,,,,,,,,,,,,,,,,,,,,,,,,,,,,,,,,,,,,,,,,,,,,,,,,,,,,,,,,
,,610cca28e74fbb8c330464b8,2024-02-18_20h11.35.418,kallum_motion_pilot,2023.2.2,Win32,60.24096386,610cca28e74fbb8c330464b8,65d2b6c8f2eece985d8e374c,65d2b8885dfcb3e376af6146,0.0366,0.0366,0,74,74,161,1,fiveseven,,,,,,,,,,,,,,,,,,,,,,,,,,,,,,,,,,,,,,,,,,,,,,,,,,,,,,,,,,,,,,,,,,,,,,,,,,,,,,,,,,,,,,,,,,,,,,,,,,,,,,,,,,,,,,,,,,,,,,,,,,,,,,,,,,,,,,,,,
,,610cca28e74fbb8c330464b8,2024-02-18_20h11.35.418,kallum_motion_pilot,2023.2.2,Win32,60.24096386,610cca28e74fbb8c330464b8,65d2b6c8f2eece985d8e374c,65d2b8885dfcb3e376af6146,0.0367,0.0368,0,75,75,143,1,eightseven,,,,,,,,,,,,,,,,,,,,,,,,,,,,,,,,,,,,,,,,,,,,,,,,,,,,,,,,,,,,,,,,,,,,,,,,,,,,,,,,,,,,,,,,,,,,,,,,,,,,,,,,,,,,,,,,,,,,,,,,,,,,,,,,,,,,,,,,,
,,610cca28e74fbb8c330464b8,2024-02-18_20h11.35.418,kallum_motion_pilot,2023.2.2,Win32,60.24096386,610cca28e74fbb8c330464b8,65d2b6c8f2eece985d8e374c,65d2b8885dfcb3e376af6146,0.0369,0.037,0,76,76,58,1,twoone,,,,,,,,,,,,,,,,,,,,,,,,,,,,,,,,,,,,,,,,,,,,,,,,,,,,,,,,,,,,,,,,,,,,,,,,,,,,,,,,,,,,,,,,,,,,,,,,,,,,,,,,,,,,,,,,,,,,,,,,,,,,,,,,,,,,,,,,,
,,610cca28e74fbb8c330464b8,2024-02-18_20h11.35.418,kallum_motion_pilot,2023.2.2,Win32,60.24096386,610cca28e74fbb8c330464b8,65d2b6c8f2eece985d8e374c,65d2b8885dfcb3e376af6146,0.0371,0.0372,0,77,77,20,1,threeone,,,,,,,,,,,,,,,,,,,,,,,,,,,,,,,,,,,,,,,,,,,,,,,,,,,,,,,,,,,,,,,,,,,,,,,,,,,,,,,,,,,,,,,,,,,,,,,,,,,,,,,,,,,,,,,,,,,,,,,,,,,,,,,,,,,,,,,,,
,,610cca28e74fbb8c330464b8,2024-02-18_20h11.35.418,kallum_motion_pilot,2023.2.2,Win32,60.24096386,610cca28e74fbb8c330464b8,65d2b6c8f2eece985d8e374c,65d2b8885dfcb3e376af6146,0.0372,0.0372,0,78,78,85,1,seveneight,,,,,,,,,,,,,,,,,,,,,,,,,,,,,,,,,,,,,,,,,,,,,,,,,,,,,,,,,,,,,,,,,,,,,,,,,,,,,,,,,,,,,,,,,,,,,,,,,,,,,,,,,,,,,,,,,,,,,,,,,,,,,,,,,,,,,,,,,
,,610cca28e74fbb8c330464b8,2024-02-18_20h11.35.418,kallum_motion_pilot,2023.2.2,Win32,60.24096386,610cca28e74fbb8c330464b8,65d2b6c8f2eece985d8e374c,65d2b8885dfcb3e376af6146,0.0373,0.0374,0,79,79,25,1,onethree,,,,,,,,,,,,,,,,,,,,,,,,,,,,,,,,,,,,,,,,,,,,,,,,,,,,,,,,,,,,,,,,,,,,,,,,,,,,,,,,,,,,,,,,,,,,,,,,,,,,,,,,,,,,,,,,,,,,,,,,,,,,,,,,,,,,,,,,,
,,610cca28e74fbb8c330464b8,2024-02-18_20h11.35.418,kallum_motion_pilot,2023.2.2,Win32,60.24096386,610cca28e74fbb8c330464b8,65d2b6c8f2eece985d8e374c,65d2b8885dfcb3e376af6146,0.0374,0.0375,0,80,80,119,1,eightseven,,,,,,,,,,,,,,,,,,,,,,,,,,,,,,,,,,,,,,,,,,,,,,,,,,,,,,,,,,,,,,,,,,,,,,,,,,,,,,,,,,,,,,,,,,,,,,,,,,,,,,,,,,,,,,,,,,,,,,,,,,,,,,,,,,,,,,,,,
,,610cca28e74fbb8c330464b8,2024-02-18_20h11.35.418,kallum_motion_pilot,2023.2.2,Win32,60.24096386,610cca28e74fbb8c330464b8,65d2b6c8f2eece985d8e374c,65d2b8885dfcb3e376af6146,0.0375,0.0376,0,81,81,80,1,fivesix,,,,,,,,,,,,,,,,,,,,,,,,,,,,,,,,,,,,,,,,,,,,,,,,,,,,,,,,,,,,,,,,,,,,,,,,,,,,,,,,,,,,,,,,,,,,,,,,,,,,,,,,,,,,,,,,,,,,,,,,,,,,,,,,,,,,,,,,,
,,610cca28e74fbb8c330464b8,2024-02-18_20h11.35.418,kallum_motion_pilot,2023.2.2,Win32,60.24096386,610cca28e74fbb8c330464b8,65d2b6c8f2eece985d8e374c,65d2b8885dfcb3e376af6146,0.0377,0.0378,0,82,82,109,1,seveneight,,,,,,,,,,,,,,,,,,,,,,,,,,,,,,,,,,,,,,,,,,,,,,,,,,,,,,,,,,,,,,,,,,,,,,,,,,,,,,,,,,,,,,,,,,,,,,,,,,,,,,,,,,,,,,,,,,,,,,,,,,,,,,,,,,,,,,,,,
,,610cca28e74fbb8c330464b8,2024-02-18_20h11.35.418,kallum_motion_pilot,2023.2.2,Win32,60.24096386,610cca28e74fbb8c330464b8,65d2b6c8f2eece985d8e374c,65d2b8885dfcb3e376af6146,0.0378,0.0379,0,83,83,1,1,onethree,,,,,,,,,,,,,,,,,,,,,,,,,,,,,,,,,,,,,,,,,,,,,,,,,,,,,,,,,,,,,,,,,,,,,,,,,,,,,,,,,,,,,,,,,,,,,,,,,,,,,,,,,,,,,,,,,,,,,,,,,,,,,,,,,,,,,,,,,
,,610cca28e74fbb8c330464b8,2024-02-18_20h11.35.418,kallum_motion_pilot,2023.2.2,Win32,60.24096386,610cca28e74fbb8c330464b8,65d2b6c8f2eece985d8e374c,65d2b8885dfcb3e376af6146,0.038,0.038,0,84,84,67,1,twofour,,,,,,,,,,,,,,,,,,,,,,,,,,,,,,,,,,,,,,,,,,,,,,,,,,,,,,,,,,,,,,,,,,,,,,,,,,,,,,,,,,,,,,,,,,,,,,,,,,,,,,,,,,,,,,,,,,,,,,,,,,,,,,,,,,,,,,,,,
,,610cca28e74fbb8c330464b8,2024-02-18_20h11.35.418,kallum_motion_pilot,2023.2.2,Win32,60.24096386,610cca28e74fbb8c330464b8,65d2b6c8f2eece985d8e374c,65d2b8885dfcb3e376af6146,0.0381,0.0382,0,85,85,94,1,eightsix,,,,,,,,,,,,,,,,,,,,,,,,,,,,,,,,,,,,,,,,,,,,,,,,,,,,,,,,,,,,,,,,,,,,,,,,,,,,,,,,,,,,,,,,,,,,,,,,,,,,,,,,,,,,,,,,,,,,,,,,,,,,,,,,,,,,,,,,,
,,610cca28e74fbb8c330464b8,2024-02-18_20h11.35.418,kallum_motion_pilot,2023.2.2,Win32,60.24096386,610cca28e74fbb8c330464b8,65d2b6c8f2eece985d8e374c,65d2b8885dfcb3e376af6146,0.0383,0.0384,0,86,86,65,1,onethree,,,,,,,,,,,,,,,,,,,,,,,,,,,,,,,,,,,,,,,,,,,,,,,,,,,,,,,,,,,,,,,,,,,,,,,,,,,,,,,,,,,,,,,,,,,,,,,,,,,,,,,,,,,,,,,,,,,,,,,,,,,,,,,,,,,,,,,,,
,,610cca28e74fbb8c330464b8,2024-02-18_20h11.35.418,kallum_motion_pilot,2023.2.2,Win32,60.24096386,610cca28e74fbb8c330464b8,65d2b6c8f2eece985d8e374c,65d2b8885dfcb3e376af6146,0.0384,0.0385,0,87,87,107,1,sixeight,,,,,,,,,,,,,,,,,,,,,,,,,,,,,,,,,,,,,,,,,,,,,,,,,,,,,,,,,,,,,,,,,,,,,,,,,,,,,,,,,,,,,,,,,,,,,,,,,,,,,,,,,,,,,,,,,,,,,,,,,,,,,,,,,,,,,,,,,
,,610cca28e74fbb8c330464b8,2024-02-18_20h11.35.418,kallum_motion_pilot,2023.2.2,Win32,60.24096386,610cca28e74fbb8c330464b8,65d2b6c8f2eece985d8e374c,65d2b8885dfcb3e376af6146,0.0386,0.0387,0,88,88,74,1,twoone,,,,,,,,,,,,,,,,,,,,,,,,,,,,,,,,,,,,,,,,,,,,,,,,,,,,,,,,,,,,,,,,,,,,,,,,,,,,,,,,,,,,,,,,,,,,,,,,,,,,,,,,,,,,,,,,,,,,,,,,,,,,,,,,,,,,,,,,,
,,610cca28e74fbb8c330464b8,2024-02-18_20h11.35.418,kallum_motion_pilot,2023.2.2,Win32,60.24096386,610cca28e74fbb8c330464b8,65d2b6c8f2eece985d8e374c,65d2b8885dfcb3e376af6146,0.0387,0.0388,0,89,89,49,1,onethree,,,,,,,,,,,,,,,,,,,,,,,,,,,,,,,,,,,,,,,,,,,,,,,,,,,,,,,,,,,,,,,,,,,,,,,,,,,,,,,,,,,,,,,,,,,,,,,,,,,,,,,,,,,,,,,,,,,,,,,,,,,,,,,,,,,,,,,,,
,,610cca28e74fbb8c330464b8,2024-02-18_20h11.35.418,kallum_motion_pilot,2023.2.2,Win32,60.24096386,610cca28e74fbb8c330464b8,65d2b6c8f2eece985d8e374c,65d2b8885dfcb3e376af6146,0.0388,0.0389,0,90,90,116,1,sevenfive,,,,,,,,,,,,,,,,,,,,,,,,,,,,,,,,,,,,,,,,,,,,,,,,,,,,,,,,,,,,,,,,,,,,,,,,,,,,,,,,,,,,,,,,,,,,,,,,,,,,,,,,,,,,,,,,,,,,,,,,,,,,,,,,,,,,,,,,,
,,610cca28e74fbb8c330464b8,2024-02-18_20h11.35.418,kallum_motion_pilot,2023.2.2,Win32,60.24096386,610cca28e74fbb8c330464b8,65d2b6c8f2eece985d8e374c,65d2b8885dfcb3e376af6146,0.039,0.039,0,91,91,159,1,eightseven,,,,,,,,,,,,,,,,,,,,,,,,,,,,,,,,,,,,,,,,,,,,,,,,,,,,,,,,,,,,,,,,,,,,,,,,,,,,,,,,,,,,,,,,,,,,,,,,,,,,,,,,,,,,,,,,,,,,,,,,,,,,,,,,,,,,,,,,,
,,610cca28e74fbb8c330464b8,2024-02-18_20h11.35.418,kallum_motion_pilot,2023.2.2,Win32,60.24096386,610cca28e74fbb8c330464b8,65d2b6c8f2eece985d8e374c,65d2b8885dfcb3e376af6146,0.039,0.0391,0,92,92,134,1,eightsix,,,,,,,,,,,,,,,,,,,,,,,,,,,,,,,,,,,,,,,,,,,,,,,,,,,,,,,,,,,,,,,,,,,,,,,,,,,,,,,,,,,,,,,,,,,,,,,,,,,,,,,,,,,,,,,,,,,,,,,,,,,,,,,,,,,,,,,,,
,,610cca28e74fbb8c330464b8,2024-02-18_20h11.35.418,kallum_motion_pilot,2023.2.2,Win32,60.24096386,610cca28e74fbb8c330464b8,65d2b6c8f2eece985d8e374c,65d2b8885dfcb3e376af6146,0.0392,0.0393,0,93,93,87,1,eightseven,,,,,,,,,,,,,,,,,,,,,,,,,,,,,,,,,,,,,,,,,,,,,,,,,,,,,,,,,,,,,,,,,,,,,,,,,,,,,,,,,,,,,,,,,,,,,,,,,,,,,,,,,,,,,,,,,,,,,,,,,,,,,,,,,,,,,,,,,
,,610cca28e74fbb8c330464b8,2024-02-18_20h11.35.418,kallum_motion_pilot,2023.2.2,Win32,60.24096386,610cca28e74fbb8c330464b8,65d2b6c8f2eece985d8e374c,65d2b8885dfcb3e376af6146,0.0394,0.0394,0,94,94,135,1,eightseven,,,,,,,,,,,,,,,,,,,,,,,,,,,,,,,,,,,,,,,,,,,,,,,,,,,,,,,,,,,,,,,,,,,,,,,,,,,,,,,,,,,,,,,,,,,,,,,,,,,,,,,,,,,,,,,,,,,,,,,,,,,,,,,,,,,,,,,,,
,,610cca28e74fbb8c330464b8,2024-02-18_20h11.35.418,kallum_motion_pilot,2023.2.2,Win32,60.24096386,610cca28e74fbb8c330464b8,65d2b6c8f2eece985d8e374c,65d2b8885dfcb3e376af6146,0.0395,0.0395,0,95,95,113,1,fiveseven,,,,,,,,,,,,,,,,,,,,,,,,,,,,,,,,,,,,,,,,,,,,,,,,,,,,,,,,,,,,,,,,,,,,,,,,,,,,,,,,,,,,,,,,,,,,,,,,,,,,,,,,,,,,,,,,,,,,,,,,,,,,,,,,,,,,,,,,,
,,610cca28e74fbb8c330464b8,2024-02-18_20h11.35.418,kallum_motion_pilot,2023.2.2,Win32,60.24096386,610cca28e74fbb8c330464b8,65d2b6c8f2eece985d8e374c,65d2b8885dfcb3e376af6146,0.0397,0.0401,0,96,96,130,1,sixfive,,,,,,,,,,,,,,,,,,,,,,,,,,,,,,,,,,,,,,,,,,,,,,,,,,,,,,,,,,,,,,,,,,,,,,,,,,,,,,,,,,,,,,,,,,,,,,,,,,,,,,,,,,,,,,,,,,,,,,,,,,,,,,,,,,,,,,,,,
,,610cca28e74fbb8c330464b8,2024-02-18_20h11.35.418,kallum_motion_pilot,2023.2.2,Win32,60.24096386,610cca28e74fbb8c330464b8,65d2b6c8f2eece985d8e374c,65d2b8885dfcb3e376af6146,0.0409,0.041,0,97,97,146,1,sixfive,,,,,,,,,,,,,,,,,,,,,,,,,,,,,,,,,,,,,,,,,,,,,,,,,,,,,,,,,,,,,,,,,,,,,,,,,,,,,,,,,,,,,,,,,,,,,,,,,,,,,,,,,,,,,,,,,,,,,,,,,,,,,,,,,,,,,,,,,
,,610cca28e74fbb8c330464b8,2024-02-18_20h11.35.418,kallum_motion_pilot,2023.2.2,Win32,60.24096386,610cca28e74fbb8c330464b8,65d2b6c8f2eece985d8e374c,65d2b8885dfcb3e376af6146,0.0414,0.0415,0,98,98,141,1,seveneight,,,,,,,,,,,,,,,,,,,,,,,,,,,,,,,,,,,,,,,,,,,,,,,,,,,,,,,,,,,,,,,,,,,,,,,,,,,,,,,,,,,,,,,,,,,,,,,,,,,,,,,,,,,,,,,,,,,,,,,,,,,,,,,,,,,,,,,,,
,,610cca28e74fbb8c330464b8,2024-02-18_20h11.35.418,kallum_motion_pilot,2023.2.2,Win32,60.24096386,610cca28e74fbb8c330464b8,65d2b6c8f2eece985d8e374c,65d2b8885dfcb3e376af6146,0.0418,0.0419,0,99,99,76,1,threeone,,,,,,,,,,,,,,,,,,,,,,,,,,,,,,,,,,,,,,,,,,,,,,,,,,,,,,,,,,,,,,,,,,,,,,,,,,,,,,,,,,,,,,,,,,,,,,,,,,,,,,,,,,,,,,,,,,,,,,,,,,,,,,,,,,,,,,,,,
,,610cca28e74fbb8c330464b8,2024-02-18_20h11.35.418,kallum_motion_pilot,2023.2.2,Win32,60.24096386,610cca28e74fbb8c330464b8,65d2b6c8f2eece985d8e374c,65d2b8885dfcb3e376af6146,0.0422,0.0422,0,100,100,120,1,fivesix,,,,,,,,,,,,,,,,,,,,,,,,,,,,,,,,,,,,,,,,,,,,,,,,,,,,,,,,,,,,,,,,,,,,,,,,,,,,,,,,,,,,,,,,,,,,,,,,,,,,,,,,,,,,,,,,,,,,,,,,,,,,,,,,,,,,,,,,,
,,610cca28e74fbb8c330464b8,2024-02-18_20h11.35.418,kallum_motion_pilot,2023.2.2,Win32,60.24096386,610cca28e74fbb8c330464b8,65d2b6c8f2eece985d8e374c,65d2b8885dfcb3e376af6146,0.0424,0.0424,0,101,101,101,1,seveneight,,,,,,,,,,,,,,,,,,,,,,,,,,,,,,,,,,,,,,,,,,,,,,,,,,,,,,,,,,,,,,,,,,,,,,,,,,,,,,,,,,,,,,,,,,,,,,,,,,,,,,,,,,,,,,,,,,,,,,,,,,,,,,,,,,,,,,,,,
,,610cca28e74fbb8c330464b8,2024-02-18_20h11.35.418,kallum_motion_pilot,2023.2.2,Win32,60.24096386,610cca28e74fbb8c330464b8,65d2b6c8f2eece985d8e374c,65d2b8885dfcb3e376af6146,0.0425,0.0426,0,102,102,117,1,seveneight,,,,,,,,,,,,,,,,,,,,,,,,,,,,,,,,,,,,,,,,,,,,,,,,,,,,,,,,,,,,,,,,,,,,,,,,,,,,,,,,,,,,,,,,,,,,,,,,,,,,,,,,,,,,,,,,,,,,,,,,,,,,,,,,,,,,,,,,,
,,610cca28e74fbb8c330464b8,2024-02-18_20h11.35.418,kallum_motion_pilot,2023.2.2,Win32,60.24096386,610cca28e74fbb8c330464b8,65d2b6c8f2eece985d8e374c,65d2b8885dfcb3e376af6146,0.0428,0.0428,0,103,103,34,1,twoone,,,,,,,,,,,,,,,,,,,,,,,,,,,,,,,,,,,,,,,,,,,,,,,,,,,,,,,,,,,,,,,,,,,,,,,,,,,,,,,,,,,,,,,,,,,,,,,,,,,,,,,,,,,,,,,,,,,,,,,,,,,,,,,,,,,,,,,,,
,,610cca28e74fbb8c330464b8,2024-02-18_20h11.35.418,kallum_motion_pilot,2023.2.2,Win32,60.24096386,610cca28e74fbb8c330464b8,65d2b6c8f2eece985d8e374c,65d2b8885dfcb3e376af6146,0.0429,0.0429,0,104,104,131,1,sixeight,,,,,,,,,,,,,,,,,,,,,,,,,,,,,,,,,,,,,,,,,,,,,,,,,,,,,,,,,,,,,,,,,,,,,,,,,,,,,,,,,,,,,,,,,,,,,,,,,,,,,,,,,,,,,,,,,,,,,,,,,,,,,,,,,,,,,,,,,
,,610cca28e74fbb8c330464b8,2024-02-18_20h11.35.418,kallum_motion_pilot,2023.2.2,Win32,60.24096386,610cca28e74fbb8c330464b8,65d2b6c8f2eece985d8e374c,65d2b8885dfcb3e376af6146,0.0431,0.0431,0,105,105,75,1,twofour,,,,,,,,,,,,,,,,,,,,,,,,,,,,,,,,,,,,,,,,,,,,,,,,,,,,,,,,,,,,,,,,,,,,,,,,,,,,,,,,,,,,,,,,,,,,,,,,,,,,,,,,,,,,,,,,,,,,,,,,,,,,,,,,,,,,,,,,,
,,610cca28e74fbb8c330464b8,2024-02-18_20h11.35.418,kallum_motion_pilot,2023.2.2,Win32,60.24096386,610cca28e74fbb8c330464b8,65d2b6c8f2eece985d8e374c,65d2b8885dfcb3e376af6146,0.0432,0.0433,0,106,106,2,1,twoone,,,,,,,,,,,,,,,,,,,,,,,,,,,,,,,,,,,,,,,,,,,,,,,,,,,,,,,,,,,,,,,,,,,,,,,,,,,,,,,,,,,,,,,,,,,,,,,,,,,,,,,,,,,,,,,,,,,,,,,,,,,,,,,,,,,,,,,,,
,,610cca28e74fbb8c330464b8,2024-02-18_20h11.35.418,kallum_motion_pilot,2023.2.2,Win32,60.24096386,610cca28e74fbb8c330464b8,65d2b6c8f2eece985d8e374c,65d2b8885dfcb3e376af6146,0.0433,0.0433,0,107,107,125,1,seveneight,,,,,,,,,,,,,,,,,,,,,,,,,,,,,,,,,,,,,,,,,,,,,,,,,,,,,,,,,,,,,,,,,,,,,,,,,,,,,,,,,,,,,,,,,,,,,,,,,,,,,,,,,,,,,,,,,,,,,,,,,,,,,,,,,,,,,,,,,
,,610cca28e74fbb8c330464b8,2024-02-18_20h11.35.418,kallum_motion_pilot,2023.2.2,Win32,60.24096386,610cca28e74fbb8c330464b8,65d2b6c8f2eece985d8e374c,65d2b8885dfcb3e376af6146,0.0434,0.0435,0,108,108,152,1,fivesix,,,,,,,,,,,,,,,,,,,,,,,,,,,,,,,,,,,,,,,,,,,,,,,,,,,,,,,,,,,,,,,,,,,,,,,,,,,,,,,,,,,,,,,,,,,,,,,,,,,,,,,,,,,,,,,,,,,,,,,,,,,,,,,,,,,,,,,,,
,,610cca28e74fbb8c330464b8,2024-02-18_20h11.35.418,kallum_motion_pilot,2023.2.2,Win32,60.24096386,610cca28e74fbb8c330464b8,65d2b6c8f2eece985d8e374c,65d2b8885dfcb3e376af6146,0.0436,0.0437,0,109,109,8,1,onetwo,,,,,,,,,,,,,,,,,,,,,,,,,,,,,,,,,,,,,,,,,,,,,,,,,,,,,,,,,,,,,,,,,,,,,,,,,,,,,,,,,,,,,,,,,,,,,,,,,,,,,,,,,,,,,,,,,,,,,,,,,,,,,,,,,,,,,,,,,
,,610cca28e74fbb8c330464b8,2024-02-18_20h11.35.418,kallum_motion_pilot,2023.2.2,Win32,60.24096386,610cca28e74fbb8c330464b8,65d2b6c8f2eece985d8e374c,65d2b8885dfcb3e376af6146,0.0437,0.0437,0,110,110,21,1,threefour,,,,,,,,,,,,,,,,,,,,,,,,,,,,,,,,,,,,,,,,,,,,,,,,,,,,,,,,,,,,,,,,,,,,,,,,,,,,,,,,,,,,,,,,,,,,,,,,,,,,,,,,,,,,,,,,,,,,,,,,,,,,,,,,,,,,,,,,,
,,610cca28e74fbb8c330464b8,2024-02-18_20h11.35.418,kallum_motion_pilot,2023.2.2,Win32,60.24096386,610cca28e74fbb8c330464b8,65d2b6c8f2eece985d8e374c,65d2b8885dfcb3e376af6146,0.0438,0.0439,0,111,111,95,1,eightseven,,,,,,,,,,,,,,,,,,,,,,,,,,,,,,,,,,,,,,,,,,,,,,,,,,,,,,,,,,,,,,,,,,,,,,,,,,,,,,,,,,,,,,,,,,,,,,,,,,,,,,,,,,,,,,,,,,,,,,,,,,,,,,,,,,,,,,,,,
,,610cca28e74fbb8c330464b8,2024-02-18_20h11.35.418,kallum_motion_pilot,2023.2.2,Win32,60.24096386,610cca28e74fbb8c330464b8,65d2b6c8f2eece985d8e374c,65d2b8885dfcb3e376af6146,0.044,0.044,0,112,112,106,1,sixfive,,,,,,,,,,,,,,,,,,,,,,,,,,,,,,,,,,,,,,,,,,,,,,,,,,,,,,,,,,,,,,,,,,,,,,,,,,,,,,,,,,,,,,,,,,,,,,,,,,,,,,,,,,,,,,,,,,,,,,,,,,,,,,,,,,,,,,,,,
,,610cca28e74fbb8c330464b8,2024-02-18_20h11.35.418,kallum_motion_pilot,2023.2.2,Win32,60.24096386,610cca28e74fbb8c330464b8,65d2b6c8f2eece985d8e374c,65d2b8885dfcb3e376af6146,0.0441,0.0442,0,113,113,86,1,eightsix,,,,,,,,,,,,,,,,,,,,,,,,,,,,,,,,,,,,,,,,,,,,,,,,,,,,,,,,,,,,,,,,,,,,,,,,,,,,,,,,,,,,,,,,,,,,,,,,,,,,,,,,,,,,,,,,,,,,,,,,,,,,,,,,,,,,,,,,,
,,610cca28e74fbb8c330464b8,2024-02-18_20h11.35.418,kallum_motion_pilot,2023.2.2,Win32,60.24096386,610cca28e74fbb8c330464b8,65d2b6c8f2eece985d8e374c,65d2b8885dfcb3e376af6146,0.0444,0.0444,0,114,114,30,1,fourtwo,,,,,,,,,,,,,,,,,,,,,,,,,,,,,,,,,,,,,,,,,,,,,,,,,,,,,,,,,,,,,,,,,,,,,,,,,,,,,,,,,,,,,,,,,,,,,,,,,,,,,,,,,,,,,,,,,,,,,,,,,,,,,,,,,,,,,,,,,
,,610cca28e74fbb8c330464b8,2024-02-18_20h11.35.418,kallum_motion_pilot,2023.2.2,Win32,60.24096386,610cca28e74fbb8c330464b8,65d2b6c8f2eece985d8e374c,65d2b8885dfcb3e376af6146,0.0446,0.0446,0,115,115,37,1,threefour,,,,,,,,,,,,,,,,,,,,,,,,,,,,,,,,,,,,,,,,,,,,,,,,,,,,,,,,,,,,,,,,,,,,,,,,,,,,,,,,,,,,,,,,,,,,,,,,,,,,,,,,,,,,,,,,,,,,,,,,,,,,,,,,,,,,,,,,,
,,610cca28e74fbb8c330464b8,2024-02-18_20h11.35.418,kallum_motion_pilot,2023.2.2,Win32,60.24096386,610cca28e74fbb8c330464b8,65d2b6c8f2eece985d8e374c,65d2b8885dfcb3e376af6146,0.0448,0.0448,0,116,116,70,1,fourtwo,,,,,,,,,,,,,,,,,,,,,,,,,,,,,,,,,,,,,,,,,,,,,,,,,,,,,,,,,,,,,,,,,,,,,,,,,,,,,,,,,,,,,,,,,,,,,,,,,,,,,,,,,,,,,,,,,,,,,,,,,,,,,,,,,,,,,,,,,
,,610cca28e74fbb8c330464b8,2024-02-18_20h11.35.418,kallum_motion_pilot,2023.2.2,Win32,60.24096386,610cca28e74fbb8c330464b8,65d2b6c8f2eece985d8e374c,65d2b8885dfcb3e376af6146,0.0449,0.045,0,117,117,43,1,twofour,,,,,,,,,,,,,,,,,,,,,,,,,,,,,,,,,,,,,,,,,,,,,,,,,,,,,,,,,,,,,,,,,,,,,,,,,,,,,,,,,,,,,,,,,,,,,,,,,,,,,,,,,,,,,,,,,,,,,,,,,,,,,,,,,,,,,,,,,
,,610cca28e74fbb8c330464b8,2024-02-18_20h11.35.418,kallum_motion_pilot,2023.2.2,Win32,60.24096386,610cca28e74fbb8c330464b8,65d2b6c8f2eece985d8e374c,65d2b8885dfcb3e376af6146,0.0451,0.0451,0,118,118,50,1,twoone,,,,,,,,,,,,,,,,,,,,,,,,,,,,,,,,,,,,,,,,,,,,,,,,,,,,,,,,,,,,,,,,,,,,,,,,,,,,,,,,,,,,,,,,,,,,,,,,,,,,,,,,,,,,,,,,,,,,,,,,,,,,,,,,,,,,,,,,,
,,610cca28e74fbb8c330464b8,2024-02-18_20h11.35.418,kallum_motion_pilot,2023.2.2,Win32,60.24096386,610cca28e74fbb8c330464b8,65d2b6c8f2eece985d8e374c,65d2b8885dfcb3e376af6146,0.0452,0.0453,0,119,119,83,1,sixeight,,,,,,,,,,,,,,,,,,,,,,,,,,,,,,,,,,,,,,,,,,,,,,,,,,,,,,,,,,,,,,,,,,,,,,,,,,,,,,,,,,,,,,,,,,,,,,,,,,,,,,,,,,,,,,,,,,,,,,,,,,,,,,,,,,,,,,,,,
,,610cca28e74fbb8c330464b8,2024-02-18_20h11.35.418,kallum_motion_pilot,2023.2.2,Win32,60.24096386,610cca28e74fbb8c330464b8,65d2b6c8f2eece985d8e374c,65d2b8885dfcb3e376af6146,0.0454,0.0454,0,120,120,24,1,onetwo,,,,,,,,,,,,,,,,,,,,,,,,,,,,,,,,,,,,,,,,,,,,,,,,,,,,,,,,,,,,,,,,,,,,,,,,,,,,,,,,,,,,,,,,,,,,,,,,,,,,,,,,,,,,,,,,,,,,,,,,,,,,,,,,,,,,,,,,,
,,610cca28e74fbb8c330464b8,2024-02-18_20h11.35.418,kallum_motion_pilot,2023.2.2,Win32,60.24096386,610cca28e74fbb8c330464b8,65d2b6c8f2eece985d8e374c,65d2b8885dfcb3e376af6146,0.0454,0.0455,0,121,121,14,1,fourtwo,,,,,,,,,,,,,,,,,,,,,,,,,,,,,,,,,,,,,,,,,,,,,,,,,,,,,,,,,,,,,,,,,,,,,,,,,,,,,,,,,,,,,,,,,,,,,,,,,,,,,,,,,,,,,,,,,,,,,,,,,,,,,,,,,,,,,,,,,
,,610cca28e74fbb8c330464b8,2024-02-18_20h11.35.418,kallum_motion_pilot,2023.2.2,Win32,60.24096386,610cca28e74fbb8c330464b8,65d2b6c8f2eece985d8e374c,65d2b8885dfcb3e376af6146,0.0455,0.0457,0,122,122,39,1,fourthree,,,,,,,,,,,,,,,,,,,,,,,,,,,,,,,,,,,,,,,,,,,,,,,,,,,,,,,,,,,,,,,,,,,,,,,,,,,,,,,,,,,,,,,,,,,,,,,,,,,,,,,,,,,,,,,,,,,,,,,,,,,,,,,,,,,,,,,,,
,,610cca28e74fbb8c330464b8,2024-02-18_20h11.35.418,kallum_motion_pilot,2023.2.2,Win32,60.24096386,610cca28e74fbb8c330464b8,65d2b6c8f2eece985d8e374c,65d2b8885dfcb3e376af6146,0.0457,0.0457,0,123,123,7,1,fourthree,,,,,,,,,,,,,,,,,,,,,,,,,,,,,,,,,,,,,,,,,,,,,,,,,,,,,,,,,,,,,,,,,,,,,,,,,,,,,,,,,,,,,,,,,,,,,,,,,,,,,,,,,,,,,,,,,,,,,,,,,,,,,,,,,,,,,,,,,
,,610cca28e74fbb8c330464b8,2024-02-18_20h11.35.418,kallum_motion_pilot,2023.2.2,Win32,60.24096386,610cca28e74fbb8c330464b8,65d2b6c8f2eece985d8e374c,65d2b8885dfcb3e376af6146,0.0459,0.0459,0,124,124,56,1,onetwo,,,,,,,,,,,,,,,,,,,,,,,,,,,,,,,,,,,,,,,,,,,,,,,,,,,,,,,,,,,,,,,,,,,,,,,,,,,,,,,,,,,,,,,,,,,,,,,,,,,,,,,,,,,,,,,,,,,,,,,,,,,,,,,,,,,,,,,,,
,,610cca28e74fbb8c330464b8,2024-02-18_20h11.35.418,kallum_motion_pilot,2023.2.2,Win32,60.24096386,610cca28e74fbb8c330464b8,65d2b6c8f2eece985d8e374c,65d2b8885dfcb3e376af6146,0.0461,0.0461,0,125,125,122,1,sixfive,,,,,,,,,,,,,,,,,,,,,,,,,,,,,,,,,,,,,,,,,,,,,,,,,,,,,,,,,,,,,,,,,,,,,,,,,,,,,,,,,,,,,,,,,,,,,,,,,,,,,,,,,,,,,,,,,,,,,,,,,,,,,,,,,,,,,,,,,
,,610cca28e74fbb8c330464b8,2024-02-18_20h11.35.418,kallum_motion_pilot,2023.2.2,Win32,60.24096386,610cca28e74fbb8c330464b8,65d2b6c8f2eece985d8e374c,65d2b8885dfcb3e376af6146,0.0463,0.0464,0,126,126,32,1,onetwo,,,,,,,,,,,,,,,,,,,,,,,,,,,,,,,,,,,,,,,,,,,,,,,,,,,,,,,,,,,,,,,,,,,,,,,,,,,,,,,,,,,,,,,,,,,,,,,,,,,,,,,,,,,,,,,,,,,,,,,,,,,,,,,,,,,,,,,,,
,,610cca28e74fbb8c330464b8,2024-02-18_20h11.35.418,kallum_motion_pilot,2023.2.2,Win32,60.24096386,610cca28e74fbb8c330464b8,65d2b6c8f2eece985d8e374c,65d2b8885dfcb3e376af6146,0.0464,0.0465,0,127,127,102,1,eightsix,,,,,,,,,,,,,,,,,,,,,,,,,,,,,,,,,,,,,,,,,,,,,,,,,,,,,,,,,,,,,,,,,,,,,,,,,,,,,,,,,,,,,,,,,,,,,,,,,,,,,,,,,,,,,,,,,,,,,,,,,,,,,,,,,,,,,,,,,
,,610cca28e74fbb8c330464b8,2024-02-18_20h11.35.418,kallum_motion_pilot,2023.2.2,Win32,60.24096386,610cca28e74fbb8c330464b8,65d2b6c8f2eece985d8e374c,65d2b8885dfcb3e376af6146,0.0466,0.0466,0,128,128,114,1,sixfive,,,,,,,,,,,,,,,,,,,,,,,,,,,,,,,,,,,,,,,,,,,,,,,,,,,,,,,,,,,,,,,,,,,,,,,,,,,,,,,,,,,,,,,,,,,,,,,,,,,,,,,,,,,,,,,,,,,,,,,,,,,,,,,,,,,,,,,,,
,,610cca28e74fbb8c330464b8,2024-02-18_20h11.35.418,kallum_motion_pilot,2023.2.2,Win32,60.24096386,610cca28e74fbb8c330464b8,65d2b6c8f2eece985d8e374c,65d2b8885dfcb3e376af6146,0.0467,0.0468,0,129,129,19,1,twofour,,,,,,,,,,,,,,,,,,,,,,,,,,,,,,,,,,,,,,,,,,,,,,,,,,,,,,,,,,,,,,,,,,,,,,,,,,,,,,,,,,,,,,,,,,,,,,,,,,,,,,,,,,,,,,,,,,,,,,,,,,,,,,,,,,,,,,,,,
,,610cca28e74fbb8c330464b8,2024-02-18_20h11.35.418,kallum_motion_pilot,2023.2.2,Win32,60.24096386,610cca28e74fbb8c330464b8,65d2b6c8f2eece985d8e374c,65d2b8885dfcb3e376af6146,0.0469,0.0469,0,130,130,13,1,threefour,,,,,,,,,,,,,,,,,,,,,,,,,,,,,,,,,,,,,,,,,,,,,,,,,,,,,,,,,,,,,,,,,,,,,,,,,,,,,,,,,,,,,,,,,,,,,,,,,,,,,,,,,,,,,,,,,,,,,,,,,,,,,,,,,,,,,,,,,
,,610cca28e74fbb8c330464b8,2024-02-18_20h11.35.418,kallum_motion_pilot,2023.2.2,Win32,60.24096386,610cca28e74fbb8c330464b8,65d2b6c8f2eece985d8e374c,65d2b8885dfcb3e376af6146,0.047,0.0471,0,131,131,77,1,threefour,,,,,,,,,,,,,,,,,,,,,,,,,,,,,,,,,,,,,,,,,,,,,,,,,,,,,,,,,,,,,,,,,,,,,,,,,,,,,,,,,,,,,,,,,,,,,,,,,,,,,,,,,,,,,,,,,,,,,,,,,,,,,,,,,,,,,,,,,
,,610cca28e74fbb8c330464b8,2024-02-18_20h11.35.418,kallum_motion_pilot,2023.2.2,Win32,60.24096386,610cca28e74fbb8c330464b8,65d2b6c8f2eece985d8e374c,65d2b8885dfcb3e376af6146,0.0472,0.0473,0,132,132,55,1,fourthree,,,,,,,,,,,,,,,,,,,,,,,,,,,,,,,,,,,,,,,,,,,,,,,,,,,,,,,,,,,,,,,,,,,,,,,,,,,,,,,,,,,,,,,,,,,,,,,,,,,,,,,,,,,,,,,,,,,,,,,,,,,,,,,,,,,,,,,,,
,,610cca28e74fbb8c330464b8,2024-02-18_20h11.35.418,kallum_motion_pilot,2023.2.2,Win32,60.24096386,610cca28e74fbb8c330464b8,65d2b6c8f2eece985d8e374c,65d2b8885dfcb3e376af6146,0.0474,0.0474,0,133,133,128,1,fivesix,,,,,,,,,,,,,,,,,,,,,,,,,,,,,,,,,,,,,,,,,,,,,,,,,,,,,,,,,,,,,,,,,,,,,,,,,,,,,,,,,,,,,,,,,,,,,,,,,,,,,,,,,,,,,,,,,,,,,,,,,,,,,,,,,,,,,,,,,
,,610cca28e74fbb8c330464b8,2024-02-18_20h11.35.418,kallum_motion_pilot,2023.2.2,Win32,60.24096386,610cca28e74fbb8c330464b8,65d2b6c8f2eece985d8e374c,65d2b8885dfcb3e376af6146,0.0475,0.0475,0,134,134,118,1,eightsix,,,,,,,,,,,,,,,,,,,,,,,,,,,,,,,,,,,,,,,,,,,,,,,,,,,,,,,,,,,,,,,,,,,,,,,,,,,,,,,,,,,,,,,,,,,,,,,,,,,,,,,,,,,,,,,,,,,,,,,,,,,,,,,,,,,,,,,,,
,,610cca28e74fbb8c330464b8,2024-02-18_20h11.35.418,kallum_motion_pilot,2023.2.2,Win32,60.24096386,610cca28e74fbb8c330464b8,65d2b6c8f2eece985d8e374c,65d2b8885dfcb3e376af6146,0.0477,0.0478,0,135,135,148,1,sevenfive,,,,,,,,,,,,,,,,,,,,,,,,,,,,,,,,,,,,,,,,,,,,,,,,,,,,,,,,,,,,,,,,,,,,,,,,,,,,,,,,,,,,,,,,,,,,,,,,,,,,,,,,,,,,,,,,,,,,,,,,,,,,,,,,,,,,,,,,,
,,610cca28e74fbb8c330464b8,2024-02-18_20h11.35.418,kallum_motion_pilot,2023.2.2,Win32,60.24096386,610cca28e74fbb8c330464b8,65d2b6c8f2eece985d8e374c,65d2b8885dfcb3e376af6146,0.0478,0.0479,0,136,136,150,1,eightsix,,,,,,,,,,,,,,,,,,,,,,,,,,,,,,,,,,,,,,,,,,,,,,,,,,,,,,,,,,,,,,,,,,,,,,,,,,,,,,,,,,,,,,,,,,,,,,,,,,,,,,,,,,,,,,,,,,,,,,,,,,,,,,,,,,,,,,,,,
,,610cca28e74fbb8c330464b8,2024-02-18_20h11.35.418,kallum_motion_pilot,2023.2.2,Win32,60.24096386,610cca28e74fbb8c330464b8,65d2b6c8f2eece985d8e374c,65d2b8885dfcb3e376af6146,0.0479,0.048,0,137,137,157,1,seveneight,,,,,,,,,,,,,,,,,,,,,,,,,,,,,,,,,,,,,,,,,,,,,,,,,,,,,,,,,,,,,,,,,,,,,,,,,,,,,,,,,,,,,,,,,,,,,,,,,,,,,,,,,,,,,,,,,,,,,,,,,,,,,,,,,,,,,,,,,
,,610cca28e74fbb8c330464b8,2024-02-18_20h11.35.418,kallum_motion_pilot,2023.2.2,Win32,60.24096386,610cca28e74fbb8c330464b8,65d2b6c8f2eece985d8e374c,65d2b8885dfcb3e376af6146,0.0481,0.0482,0,138,138,98,1,sixfive,,,,,,,,,,,,,,,,,,,,,,,,,,,,,,,,,,,,,,,,,,,,,,,,,,,,,,,,,,,,,,,,,,,,,,,,,,,,,,,,,,,,,,,,,,,,,,,,,,,,,,,,,,,,,,,,,,,,,,,,,,,,,,,,,,,,,,,,,
,,610cca28e74fbb8c330464b8,2024-02-18_20h11.35.418,kallum_motion_pilot,2023.2.2,Win32,60.24096386,610cca28e74fbb8c330464b8,65d2b6c8f2eece985d8e374c,65d2b8885dfcb3e376af6146,0.0483,0.0485,0,139,139,140,1,sevenfive,,,,,,,,,,,,,,,,,,,,,,,,,,,,,,,,,,,,,,,,,,,,,,,,,,,,,,,,,,,,,,,,,,,,,,,,,,,,,,,,,,,,,,,,,,,,,,,,,,,,,,,,,,,,,,,,,,,,,,,,,,,,,,,,,,,,,,,,,
,,610cca28e74fbb8c330464b8,2024-02-18_20h11.35.418,kallum_motion_pilot,2023.2.2,Win32,60.24096386,610cca28e74fbb8c330464b8,65d2b6c8f2eece985d8e374c,65d2b8885dfcb3e376af6146,0.0486,0.0488,0,140,140,90,1,sixfive,,,,,,,,,,,,,,,,,,,,,,,,,,,,,,,,,,,,,,,,,,,,,,,,,,,,,,,,,,,,,,,,,,,,,,,,,,,,,,,,,,,,,,,,,,,,,,,,,,,,,,,,,,,,,,,,,,,,,,,,,,,,,,,,,,,,,,,,,
,,610cca28e74fbb8c330464b8,2024-02-18_20h11.35.418,kallum_motion_pilot,2023.2.2,Win32,60.24096386,610cca28e74fbb8c330464b8,65d2b6c8f2eece985d8e374c,65d2b8885dfcb3e376af6146,0.0489,0.0491,0,141,141,54,1,fourtwo,,,,,,,,,,,,,,,,,,,,,,,,,,,,,,,,,,,,,,,,,,,,,,,,,,,,,,,,,,,,,,,,,,,,,,,,,,,,,,,,,,,,,,,,,,,,,,,,,,,,,,,,,,,,,,,,,,,,,,,,,,,,,,,,,,,,,,,,,
,,610cca28e74fbb8c330464b8,2024-02-18_20h11.35.418,kallum_motion_pilot,2023.2.2,Win32,60.24096386,610cca28e74fbb8c330464b8,65d2b6c8f2eece985d8e374c,65d2b8885dfcb3e376af6146,0.0492,0.0493,0,142,142,10,1,twoone,,,,,,,,,,,,,,,,,,,,,,,,,,,,,,,,,,,,,,,,,,,,,,,,,,,,,,,,,,,,,,,,,,,,,,,,,,,,,,,,,,,,,,,,,,,,,,,,,,,,,,,,,,,,,,,,,,,,,,,,,,,,,,,,,,,,,,,,,
,,610cca28e74fbb8c330464b8,2024-02-18_20h11.35.418,kallum_motion_pilot,2023.2.2,Win32,60.24096386,610cca28e74fbb8c330464b8,65d2b6c8f2eece985d8e374c,65d2b8885dfcb3e376af6146,0.05,0.0501,0,143,143,59,1,twofour,,,,,,,,,,,,,,,,,,,,,,,,,,,,,,,,,,,,,,,,,,,,,,,,,,,,,,,,,,,,,,,,,,,,,,,,,,,,,,,,,,,,,,,,,,,,,,,,,,,,,,,,,,,,,,,,,,,,,,,,,,,,,,,,,,,,,,,,,
,,610cca28e74fbb8c330464b8,2024-02-18_20h11.35.418,kallum_motion_pilot,2023.2.2,Win32,60.24096386,610cca28e74fbb8c330464b8,65d2b6c8f2eece985d8e374c,65d2b8885dfcb3e376af6146,0.0503,0.0503,0,144,144,61,1,threefour,,,,,,,,,,,,,,,,,,,,,,,,,,,,,,,,,,,,,,,,,,,,,,,,,,,,,,,,,,,,,,,,,,,,,,,,,,,,,,,,,,,,,,,,,,,,,,,,,,,,,,,,,,,,,,,,,,,,,,,,,,,,,,,,,,,,,,,,,
,,610cca28e74fbb8c330464b8,2024-02-18_20h11.35.418,kallum_motion_pilot,2023.2.2,Win32,60.24096386,610cca28e74fbb8c330464b8,65d2b6c8f2eece985d8e374c,65d2b8885dfcb3e376af6146,0.0504,0.0504,0,145,145,133,1,seveneight,,,,,,,,,,,,,,,,,,,,,,,,,,,,,,,,,,,,,,,,,,,,,,,,,,,,,,,,,,,,,,,,,,,,,,,,,,,,,,,,,,,,,,,,,,,,,,,,,,,,,,,,,,,,,,,,,,,,,,,,,,,,,,,,,,,,,,,,,
,,610cca28e74fbb8c330464b8,2024-02-18_20h11.35.418,kallum_motion_pilot,2023.2.2,Win32,60.24096386,610cca28e74fbb8c330464b8,65d2b6c8f2eece985d8e374c,65d2b8885dfcb3e376af6146,0.0505,0.0506,0,146,146,45,1,threefour,,,,,,,,,,,,,,,,,,,,,,,,,,,,,,,,,,,,,,,,,,,,,,,,,,,,,,,,,,,,,,,,,,,,,,,,,,,,,,,,,,,,,,,,,,,,,,,,,,,,,,,,,,,,,,,,,,,,,,,,,,,,,,,,,,,,,,,,,
,,610cca28e74fbb8c330464b8,2024-02-18_20h11.35.418,kallum_motion_pilot,2023.2.2,Win32,60.24096386,610cca28e74fbb8c330464b8,65d2b6c8f2eece985d8e374c,65d2b8885dfcb3e376af6146,0.0507,0.0507,0,147,147,47,1,fourthree,,,,,,,,,,,,,,,,,,,,,,,,,,,,,,,,,,,,,,,,,,,,,,,,,,,,,,,,,,,,,,,,,,,,,,,,,,,,,,,,,,,,,,,,,,,,,,,,,,,,,,,,,,,,,,,,,,,,,,,,,,,,,,,,,,,,,,,,,
,,610cca28e74fbb8c330464b8,2024-02-18_20h11.35.418,kallum_motion_pilot,2023.2.2,Win32,60.24096386,610cca28e74fbb8c330464b8,65d2b6c8f2eece985d8e374c,65d2b8885dfcb3e376af6146,0.0508,0.0508,0,148,148,132,1,sevenfive,,,,,,,,,,,,,,,,,,,,,,,,,,,,,,,,,,,,,,,,,,,,,,,,,,,,,,,,,,,,,,,,,,,,,,,,,,,,,,,,,,,,,,,,,,,,,,,,,,,,,,,,,,,,,,,,,,,,,,,,,,,,,,,,,,,,,,,,,
,,610cca28e74fbb8c330464b8,2024-02-18_20h11.35.418,kallum_motion_pilot,2023.2.2,Win32,60.24096386,610cca28e74fbb8c330464b8,65d2b6c8f2eece985d8e374c,65d2b8885dfcb3e376af6146,0.0509,0.051,0,149,149,22,1,fourtwo,,,,,,,,,,,,,,,,,,,,,,,,,,,,,,,,,,,,,,,,,,,,,,,,,,,,,,,,,,,,,,,,,,,,,,,,,,,,,,,,,,,,,,,,,,,,,,,,,,,,,,,,,,,,,,,,,,,,,,,,,,,,,,,,,,,,,,,,,
,,610cca28e74fbb8c330464b8,2024-02-18_20h11.35.418,kallum_motion_pilot,2023.2.2,Win32,60.24096386,610cca28e74fbb8c330464b8,65d2b6c8f2eece985d8e374c,65d2b8885dfcb3e376af6146,0.0511,0.0511,0,150,150,147,1,sixeight,,,,,,,,,,,,,,,,,,,,,,,,,,,,,,,,,,,,,,,,,,,,,,,,,,,,,,,,,,,,,,,,,,,,,,,,,,,,,,,,,,,,,,,,,,,,,,,,,,,,,,,,,,,,,,,,,,,,,,,,,,,,,,,,,,,,,,,,,
,,610cca28e74fbb8c330464b8,2024-02-18_20h11.35.418,kallum_motion_pilot,2023.2.2,Win32,60.24096386,610cca28e74fbb8c330464b8,65d2b6c8f2eece985d8e374c,65d2b8885dfcb3e376af6146,0.0512,0.0512,0,151,151,115,1,sixeight,,,,,,,,,,,,,,,,,,,,,,,,,,,,,,,,,,,,,,,,,,,,,,,,,,,,,,,,,,,,,,,,,,,,,,,,,,,,,,,,,,,,,,,,,,,,,,,,,,,,,,,,,,,,,,,,,,,,,,,,,,,,,,,,,,,,,,,,,
,,610cca28e74fbb8c330464b8,2024-02-18_20h11.35.418,kallum_motion_pilot,2023.2.2,Win32,60.24096386,610cca28e74fbb8c330464b8,65d2b6c8f2eece985d8e374c,65d2b8885dfcb3e376af6146,0.0512,0.0514,0,152,152,79,1,eightseven,,,,,,,,,,,,,,,,,,,,,,,,,,,,,,,,,,,,,,,,,,,,,,,,,,,,,,,,,,,,,,,,,,,,,,,,,,,,,,,,,,,,,,,,,,,,,,,,,,,,,,,,,,,,,,,,,,,,,,,,,,,,,,,,,,,,,,,,,
,,610cca28e74fbb8c330464b8,2024-02-18_20h11.35.418,kallum_motion_pilot,2023.2.2,Win32,60.24096386,610cca28e74fbb8c330464b8,65d2b6c8f2eece985d8e374c,65d2b8885dfcb3e376af6146,0.0514,0.0514,0,153,153,12,1,threeone,,,,,,,,,,,,,,,,,,,,,,,,,,,,,,,,,,,,,,,,,,,,,,,,,,,,,,,,,,,,,,,,,,,,,,,,,,,,,,,,,,,,,,,,,,,,,,,,,,,,,,,,,,,,,,,,,,,,,,,,,,,,,,,,,,,,,,,,,
,,610cca28e74fbb8c330464b8,2024-02-18_20h11.35.418,kallum_motion_pilot,2023.2.2,Win32,60.24096386,610cca28e74fbb8c330464b8,65d2b6c8f2eece985d8e374c,65d2b8885dfcb3e376af6146,0.0515,0.0515,0,154,154,71,1,fourthree,,,,,,,,,,,,,,,,,,,,,,,,,,,,,,,,,,,,,,,,,,,,,,,,,,,,,,,,,,,,,,,,,,,,,,,,,,,,,,,,,,,,,,,,,,,,,,,,,,,,,,,,,,,,,,,,,,,,,,,,,,,,,,,,,,,,,,,,,
,,610cca28e74fbb8c330464b8,2024-02-18_20h11.35.418,kallum_motion_pilot,2023.2.2,Win32,60.24096386,610cca28e74fbb8c330464b8,65d2b6c8f2eece985d8e374c,65d2b8885dfcb3e376af6146,0.0517,0.0517,0,155,155,52,1,threeone,,,,,,,,,,,,,,,,,,,,,,,,,,,,,,,,,,,,,,,,,,,,,,,,,,,,,,,,,,,,,,,,,,,,,,,,,,,,,,,,,,,,,,,,,,,,,,,,,,,,,,,,,,,,,,,,,,,,,,,,,,,,,,,,,,,,,,,,,
,,610cca28e74fbb8c330464b8,2024-02-18_20h11.35.418,kallum_motion_pilot,2023.2.2,Win32,60.24096386,610cca28e74fbb8c330464b8,65d2b6c8f2eece985d8e374c,65d2b8885dfcb3e376af6146,0.0518,0.0519,0,156,156,124,1,sevenfive,,,,,,,,,,,,,,,,,,,,,,,,,,,,,,,,,,,,,,,,,,,,,,,,,,,,,,,,,,,,,,,,,,,,,,,,,,,,,,,,,,,,,,,,,,,,,,,,,,,,,,,,,,,,,,,,,,,,,,,,,,,,,,,,,,,,,,,,,
,,610cca28e74fbb8c330464b8,2024-02-18_20h11.35.418,kallum_motion_pilot,2023.2.2,Win32,60.24096386,610cca28e74fbb8c330464b8,65d2b6c8f2eece985d8e374c,65d2b8885dfcb3e376af6146,0.0519,0.0519,0,157,157,78,1,fourtwo,,,,,,,,,,,,,,,,,,,,,,,,,,,,,,,,,,,,,,,,,,,,,,,,,,,,,,,,,,,,,,,,,,,,,,,,,,,,,,,,,,,,,,,,,,,,,,,,,,,,,,,,,,,,,,,,,,,,,,,,,,,,,,,,,,,,,,,,,
,,610cca28e74fbb8c330464b8,2024-02-18_20h11.35.418,kallum_motion_pilot,2023.2.2,Win32,60.24096386,610cca28e74fbb8c330464b8,65d2b6c8f2eece985d8e374c,65d2b8885dfcb3e376af6146,0.052,0.0521,0,158,158,36,1,threeone,,,,,,,,,,,,,,,,,,,,,,,,,,,,,,,,,,,,,,,,,,,,,,,,,,,,,,,,,,,,,,,,,,,,,,,,,,,,,,,,,,,,,,,,,,,,,,,,,,,,,,,,,,,,,,,,,,,,,,,,,,,,,,,,,,,,,,,,,
,,610cca28e74fbb8c330464b8,2024-02-18_20h11.35.418,kallum_motion_pilot,2023.2.2,Win32,60.24096386,610cca28e74fbb8c330464b8,65d2b6c8f2eece985d8e374c,65d2b8885dfcb3e376af6146,0.0522,0.0522,0,159,159,38,1,fourtwo,,,,,,,,,,,,,,,,,,,,,,,,,,,,,,,,,,,,,,,,,,,,,,,,,,,,,,,,,,,,,,,,,,,,,,,,,,,,,,,,,,,,,,,,,,,,,,,,,,,,,,,,,,,,,,,,,,,,,,,,,,,,,,,,,,,,,,,,,
,,610cca28e74fbb8c330464b8,2024-02-18_20h11.35.418,kallum_motion_pilot,2023.2.2,Win32,60.24096386,610cca28e74fbb8c330464b8,65d2b6c8f2eece985d8e374c,65d2b8885dfcb3e376af6146,0.0523,0.0523,0,160,160,112,1,fivesix,,,,,,,,,,,,,,,,,,,,,,,,,,,,,,,,,,,,,,,,,,,,,,,,,,,,,,,,,,,,,,,,,,,,,,,,,,,,,,,,,,,,,,,,,,,,,,,,,,,,,,,,,,,,,,,,,,,,,,,,,,,,,,,,,,,,,,,,,
,,610cca28e74fbb8c330464b8,2024-02-18_20h11.35.418,kallum_motion_pilot,2023.2.2,Win32,60.24096386,610cca28e74fbb8c330464b8,65d2b6c8f2eece985d8e374c,65d2b8885dfcb3e376af6146,0.0525,0.0525,0,161,161,72,1,onetwo,,,,,,,,,,,,,,,,,,,,,,,,,,,,,,,,,,,,,,,,,,,,,,,,,,,,,,,,,,,,,,,,,,,,,,,,,,,,,,,,,,,,,,,,,,,,,,,,,,,,,,,,,,,,,,,,,,,,,,,,,,,,,,,,,,,,,,,,,
,,610cca28e74fbb8c330464b8,2024-02-18_20h11.35.418,kallum_motion_pilot,2023.2.2,Win32,60.24096386,610cca28e74fbb8c330464b8,65d2b6c8f2eece985d8e374c,65d2b8885dfcb3e376af6146,0.0526,0.0527,1,0,162,63,1,fourthree,,,,,,,,,,,,,,,,,,,,,,,,,,,,,,,,,,,,,,,,,,,,,,,,,,,,,,,,,,,,,,,,,,,,,,,,,,,,,,,,,,,,,,,,,,,,,,,,,,,,,,,,,,,,,,,,,,,,,,,,,,,,,,,,,,,,,,,,,
,,610cca28e74fbb8c330464b8,2024-02-18_20h11.35.418,kallum_motion_pilot,2023.2.2,Win32,60.24096386,610cca28e74fbb8c330464b8,65d2b6c8f2eece985d8e374c,65d2b8885dfcb3e376af6146,0.0528,0.0528,1,1,163,140,1,sevenfive,,,,,,,,,,,,,,,,,,,,,,,,,,,,,,,,,,,,,,,,,,,,,,,,,,,,,,,,,,,,,,,,,,,,,,,,,,,,,,,,,,,,,,,,,,,,,,,,,,,,,,,,,,,,,,,,,,,,,,,,,,,,,,,,,,,,,,,,,
,,610cca28e74fbb8c330464b8,2024-02-18_20h11.35.418,kallum_motion_pilot,2023.2.2,Win32,60.24096386,610cca28e74fbb8c330464b8,65d2b6c8f2eece985d8e374c,65d2b8885dfcb3e376af6146,0.0528,0.0529,1,2,164,100,1,sevenfive,,,,,,,,,,,,,,,,,,,,,,,,,,,,,,,,,,,,,,,,,,,,,,,,,,,,,,,,,,,,,,,,,,,,,,,,,,,,,,,,,,,,,,,,,,,,,,,,,,,,,,,,,,,,,,,,,,,,,,,,,,,,,,,,,,,,,,,,,
,,610cca28e74fbb8c330464b8,2024-02-18_20h11.35.418,kallum_motion_pilot,2023.2.2,Win32,60.24096386,610cca28e74fbb8c330464b8,65d2b6c8f2eece985d8e374c,65d2b8885dfcb3e376af6146,0.053,0.0531,1,3,165,18,1,twoone,,,,,,,,,,,,,,,,,,,,,,,,,,,,,,,,,,,,,,,,,,,,,,,,,,,,,,,,,,,,,,,,,,,,,,,,,,,,,,,,,,,,,,,,,,,,,,,,,,,,,,,,,,,,,,,,,,,,,,,,,,,,,,,,,,,,,,,,,
,,610cca28e74fbb8c330464b8,2024-02-18_20h11.35.418,kallum_motion_pilot,2023.2.2,Win32,60.24096386,610cca28e74fbb8c330464b8,65d2b6c8f2eece985d8e374c,65d2b8885dfcb3e376af6146,0.0531,0.0532,1,4,166,1,1,onethree,,,,,,,,,,,,,,,,,,,,,,,,,,,,,,,,,,,,,,,,,,,,,,,,,,,,,,,,,,,,,,,,,,,,,,,,,,,,,,,,,,,,,,,,,,,,,,,,,,,,,,,,,,,,,,,,,,,,,,,,,,,,,,,,,,,,,,,,,
,,610cca28e74fbb8c330464b8,2024-02-18_20h11.35.418,kallum_motion_pilot,2023.2.2,Win32,60.24096386,610cca28e74fbb8c330464b8,65d2b6c8f2eece985d8e374c,65d2b8885dfcb3e376af6146,0.0532,0.0533,1,5,167,0,1,onetwo,,,,,,,,,,,,,,,,,,,,,,,,,,,,,,,,,,,,,,,,,,,,,,,,,,,,,,,,,,,,,,,,,,,,,,,,,,,,,,,,,,,,,,,,,,,,,,,,,,,,,,,,,,,,,,,,,,,,,,,,,,,,,,,,,,,,,,,,,
,,610cca28e74fbb8c330464b8,2024-02-18_20h11.35.418,kallum_motion_pilot,2023.2.2,Win32,60.24096386,610cca28e74fbb8c330464b8,65d2b6c8f2eece985d8e374c,65d2b8885dfcb3e376af6146,0.0533,0.0534,1,6,168,110,1,eightsix,,,,,,,,,,,,,,,,,,,,,,,,,,,,,,,,,,,,,,,,,,,,,,,,,,,,,,,,,,,,,,,,,,,,,,,,,,,,,,,,,,,,,,,,,,,,,,,,,,,,,,,,,,,,,,,,,,,,,,,,,,,,,,,,,,,,,,,,,
,,610cca28e74fbb8c330464b8,2024-02-18_20h11.35.418,kallum_motion_pilot,2023.2.2,Win32,60.24096386,610cca28e74fbb8c330464b8,65d2b6c8f2eece985d8e374c,65d2b8885dfcb3e376af6146,0.0536,0.0536,1,7,169,37,1,threefour,,,,,,,,,,,,,,,,,,,,,,,,,,,,,,,,,,,,,,,,,,,,,,,,,,,,,,,,,,,,,,,,,,,,,,,,,,,,,,,,,,,,,,,,,,,,,,,,,,,,,,,,,,,,,,,,,,,,,,,,,,,,,,,,,,,,,,,,,
,,610cca28e74fbb8c330464b8,2024-02-18_20h11.35.418,kallum_motion_pilot,2023.2.2,Win32,60.24096386,610cca28e74fbb8c330464b8,65d2b6c8f2eece985d8e374c,65d2b8885dfcb3e376af6146,0.0537,0.0537,1,8,170,46,1,fourtwo,,,,,,,,,,,,,,,,,,,,,,,,,,,,,,,,,,,,,,,,,,,,,,,,,,,,,,,,,,,,,,,,,,,,,,,,,,,,,,,,,,,,,,,,,,,,,,,,,,,,,,,,,,,,,,,,,,,,,,,,,,,,,,,,,,,,,,,,,
,,610cca28e74fbb8c330464b8,2024-02-18_20h11.35.418,kallum_motion_pilot,2023.2.2,Win32,60.24096386,610cca28e74fbb8c330464b8,65d2b6c8f2eece985d8e374c,65d2b8885dfcb3e376af6146,0.0539,0.0539,1,9,171,20,1,threeone,,,,,,,,,,,,,,,,,,,,,,,,,,,,,,,,,,,,,,,,,,,,,,,,,,,,,,,,,,,,,,,,,,,,,,,,,,,,,,,,,,,,,,,,,,,,,,,,,,,,,,,,,,,,,,,,,,,,,,,,,,,,,,,,,,,,,,,,,
,,610cca28e74fbb8c330464b8,2024-02-18_20h11.35.418,kallum_motion_pilot,2023.2.2,Win32,60.24096386,610cca28e74fbb8c330464b8,65d2b6c8f2eece985d8e374c,65d2b8885dfcb3e376af6146,0.0539,0.054,1,10,172,145,1,fiveseven,,,,,,,,,,,,,,,,,,,,,,,,,,,,,,,,,,,,,,,,,,,,,,,,,,,,,,,,,,,,,,,,,,,,,,,,,,,,,,,,,,,,,,,,,,,,,,,,,,,,,,,,,,,,,,,,,,,,,,,,,,,,,,,,,,,,,,,,,
,,610cca28e74fbb8c330464b8,2024-02-18_20h11.35.418,kallum_motion_pilot,2023.2.2,Win32,60.24096386,610cca28e74fbb8c330464b8,65d2b6c8f2eece985d8e374c,65d2b8885dfcb3e376af6146,0.0542,0.0543,1,11,173,62,1,fourtwo,,,,,,,,,,,,,,,,,,,,,,,,,,,,,,,,,,,,,,,,,,,,,,,,,,,,,,,,,,,,,,,,,,,,,,,,,,,,,,,,,,,,,,,,,,,,,,,,,,,,,,,,,,,,,,,,,,,,,,,,,,,,,,,,,,,,,,,,,
,,610cca28e74fbb8c330464b8,2024-02-18_20h11.35.418,kallum_motion_pilot,2023.2.2,Win32,60.24096386,610cca28e74fbb8c330464b8,65d2b6c8f2eece985d8e374c,65d2b8885dfcb3e376af6146,0.0544,0.0545,1,12,174,49,1,onethree,,,,,,,,,,,,,,,,,,,,,,,,,,,,,,,,,,,,,,,,,,,,,,,,,,,,,,,,,,,,,,,,,,,,,,,,,,,,,,,,,,,,,,,,,,,,,,,,,,,,,,,,,,,,,,,,,,,,,,,,,,,,,,,,,,,,,,,,,
,,610cca28e74fbb8c330464b8,2024-02-18_20h11.35.418,kallum_motion_pilot,2023.2.2,Win32,60.24096386,610cca28e74fbb8c330464b8,65d2b6c8f2eece985d8e374c,65d2b8885dfcb3e376af6146,0.0547,0.0547,1,13,175,133,1,seveneight,,,,,,,,,,,,,,,,,,,,,,,,,,,,,,,,,,,,,,,,,,,,,,,,,,,,,,,,,,,,,,,,,,,,,,,,,,,,,,,,,,,,,,,,,,,,,,,,,,,,,,,,,,,,,,,,,,,,,,,,,,,,,,,,,,,,,,,,,
,,610cca28e74fbb8c330464b8,2024-02-18_20h11.35.418,kallum_motion_pilot,2023.2.2,Win32,60.24096386,610cca28e74fbb8c330464b8,65d2b6c8f2eece985d8e374c,65d2b8885dfcb3e376af6146,0.0548,0.0548,1,14,176,60,1,threeone,,,,,,,,,,,,,,,,,,,,,,,,,,,,,,,,,,,,,,,,,,,,,,,,,,,,,,,,,,,,,,,,,,,,,,,,,,,,,,,,,,,,,,,,,,,,,,,,,,,,,,,,,,,,,,,,,,,,,,,,,,,,,,,,,,,,,,,,,
,,610cca28e74fbb8c330464b8,2024-02-18_20h11.35.418,kallum_motion_pilot,2023.2.2,Win32,60.24096386,610cca28e74fbb8c330464b8,65d2b6c8f2eece985d8e374c,65d2b8885dfcb3e376af6146,0.0549,0.055,1,15,177,22,1,fourtwo,,,,,,,,,,,,,,,,,,,,,,,,,,,,,,,,,,,,,,,,,,,,,,,,,,,,,,,,,,,,,,,,,,,,,,,,,,,,,,,,,,,,,,,,,,,,,,,,,,,,,,,,,,,,,,,,,,,,,,,,,,,,,,,,,,,,,,,,,
,,610cca28e74fbb8c330464b8,2024-02-18_20h11.35.418,kallum_motion_pilot,2023.2.2,Win32,60.24096386,610cca28e74fbb8c330464b8,65d2b6c8f2eece985d8e374c,65d2b8885dfcb3e376af6146,0.0551,0.0551,1,16,178,33,1,onethree,,,,,,,,,,,,,,,,,,,,,,,,,,,,,,,,,,,,,,,,,,,,,,,,,,,,,,,,,,,,,,,,,,,,,,,,,,,,,,,,,,,,,,,,,,,,,,,,,,,,,,,,,,,,,,,,,,,,,,,,,,,,,,,,,,,,,,,,,
,,610cca28e74fbb8c330464b8,2024-02-18_20h11.35.418,kallum_motion_pilot,2023.2.2,Win32,60.24096386,610cca28e74fbb8c330464b8,65d2b6c8f2eece985d8e374c,65d2b8885dfcb3e376af6146,0.0552,0.0553,1,17,179,81,1,fiveseven,,,,,,,,,,,,,,,,,,,,,,,,,,,,,,,,,,,,,,,,,,,,,,,,,,,,,,,,,,,,,,,,,,,,,,,,,,,,,,,,,,,,,,,,,,,,,,,,,,,,,,,,,,,,,,,,,,,,,,,,,,,,,,,,,,,,,,,,,
,,610cca28e74fbb8c330464b8,2024-02-18_20h11.35.418,kallum_motion_pilot,2023.2.2,Win32,60.24096386,610cca28e74fbb8c330464b8,65d2b6c8f2eece985d8e374c,65d2b8885dfcb3e376af6146,0.0553,0.0554,1,18,180,19,1,twofour,,,,,,,,,,,,,,,,,,,,,,,,,,,,,,,,,,,,,,,,,,,,,,,,,,,,,,,,,,,,,,,,,,,,,,,,,,,,,,,,,,,,,,,,,,,,,,,,,,,,,,,,,,,,,,,,,,,,,,,,,,,,,,,,,,,,,,,,,
,,610cca28e74fbb8c330464b8,2024-02-18_20h11.35.418,kallum_motion_pilot,2023.2.2,Win32,60.24096386,610cca28e74fbb8c330464b8,65d2b6c8f2eece985d8e374c,65d2b8885dfcb3e376af6146,0.0554,0.0556,1,19,181,92,1,sevenfive,,,,,,,,,,,,,,,,,,,,,,,,,,,,,,,,,,,,,,,,,,,,,,,,,,,,,,,,,,,,,,,,,,,,,,,,,,,,,,,,,,,,,,,,,,,,,,,,,,,,,,,,,,,,,,,,,,,,,,,,,,,,,,,,,,,,,,,,,
,,610cca28e74fbb8c330464b8,2024-02-18_20h11.35.418,kallum_motion_pilot,2023.2.2,Win32,60.24096386,610cca28e74fbb8c330464b8,65d2b6c8f2eece985d8e374c,65d2b8885dfcb3e376af6146,0.0556,0.0557,1,20,182,24,1,onetwo,,,,,,,,,,,,,,,,,,,,,,,,,,,,,,,,,,,,,,,,,,,,,,,,,,,,,,,,,,,,,,,,,,,,,,,,,,,,,,,,,,,,,,,,,,,,,,,,,,,,,,,,,,,,,,,,,,,,,,,,,,,,,,,,,,,,,,,,,
,,610cca28e74fbb8c330464b8,2024-02-18_20h11.35.418,kallum_motion_pilot,2023.2.2,Win32,60.24096386,610cca28e74fbb8c330464b8,65d2b6c8f2eece985d8e374c,65d2b8885dfcb3e376af6146,0.0557,0.0558,1,21,183,120,1,fivesix,,,,,,,,,,,,,,,,,,,,,,,,,,,,,,,,,,,,,,,,,,,,,,,,,,,,,,,,,,,,,,,,,,,,,,,,,,,,,,,,,,,,,,,,,,,,,,,,,,,,,,,,,,,,,,,,,,,,,,,,,,,,,,,,,,,,,,,,,
,,610cca28e74fbb8c330464b8,2024-02-18_20h11.35.418,kallum_motion_pilot,2023.2.2,Win32,60.24096386,610cca28e74fbb8c330464b8,65d2b6c8f2eece985d8e374c,65d2b8885dfcb3e376af6146,0.0559,0.056,1,22,184,25,1,onethree,,,,,,,,,,,,,,,,,,,,,,,,,,,,,,,,,,,,,,,,,,,,,,,,,,,,,,,,,,,,,,,,,,,,,,,,,,,,,,,,,,,,,,,,,,,,,,,,,,,,,,,,,,,,,,,,,,,,,,,,,,,,,,,,,,,,,,,,,
,,610cca28e74fbb8c330464b8,2024-02-18_20h11.35.418,kallum_motion_pilot,2023.2.2,Win32,60.24096386,610cca28e74fbb8c330464b8,65d2b6c8f2eece985d8e374c,65d2b8885dfcb3e376af6146,0.0561,0.0561,1,23,185,11,1,twofour,,,,,,,,,,,,,,,,,,,,,,,,,,,,,,,,,,,,,,,,,,,,,,,,,,,,,,,,,,,,,,,,,,,,,,,,,,,,,,,,,,,,,,,,,,,,,,,,,,,,,,,,,,,,,,,,,,,,,,,,,,,,,,,,,,,,,,,,,
,,610cca28e74fbb8c330464b8,2024-02-18_20h11.35.418,kallum_motion_pilot,2023.2.2,Win32,60.24096386,610cca28e74fbb8c330464b8,65d2b6c8f2eece985d8e374c,65d2b8885dfcb3e376af6146,0.0562,0.0563,1,24,186,66,1,twoone,,,,,,,,,,,,,,,,,,,,,,,,,,,,,,,,,,,,,,,,,,,,,,,,,,,,,,,,,,,,,,,,,,,,,,,,,,,,,,,,,,,,,,,,,,,,,,,,,,,,,,,,,,,,,,,,,,,,,,,,,,,,,,,,,,,,,,,,,
,,610cca28e74fbb8c330464b8,2024-02-18_20h11.35.418,kallum_motion_pilot,2023.2.2,Win32,60.24096386,610cca28e74fbb8c330464b8,65d2b6c8f2eece985d8e374c,65d2b8885dfcb3e376af6146,0.057,0.0574,1,25,187,150,1,eightsix,,,,,,,,,,,,,,,,,,,,,,,,,,,,,,,,,,,,,,,,,,,,,,,,,,,,,,,,,,,,,,,,,,,,,,,,,,,,,,,,,,,,,,,,,,,,,,,,,,,,,,,,,,,,,,,,,,,,,,,,,,,,,,,,,,,,,,,,,
,,610cca28e74fbb8c330464b8,2024-02-18_20h11.35.418,kallum_motion_pilot,2023.2.2,Win32,60.24096386,610cca28e74fbb8c330464b8,65d2b6c8f2eece985d8e374c,65d2b8885dfcb3e376af6146,0.0576,0.0578,1,26,188,152,1,fivesix,,,,,,,,,,,,,,,,,,,,,,,,,,,,,,,,,,,,,,,,,,,,,,,,,,,,,,,,,,,,,,,,,,,,,,,,,,,,,,,,,,,,,,,,,,,,,,,,,,,,,,,,,,,,,,,,,,,,,,,,,,,,,,,,,,,,,,,,,
,,610cca28e74fbb8c330464b8,2024-02-18_20h11.35.418,kallum_motion_pilot,2023.2.2,Win32,60.24096386,610cca28e74fbb8c330464b8,65d2b6c8f2eece985d8e374c,65d2b8885dfcb3e376af6146,0.058,0.0581,1,27,189,52,1,threeone,,,,,,,,,,,,,,,,,,,,,,,,,,,,,,,,,,,,,,,,,,,,,,,,,,,,,,,,,,,,,,,,,,,,,,,,,,,,,,,,,,,,,,,,,,,,,,,,,,,,,,,,,,,,,,,,,,,,,,,,,,,,,,,,,,,,,,,,,
,,610cca28e74fbb8c330464b8,2024-02-18_20h11.35.418,kallum_motion_pilot,2023.2.2,Win32,60.24096386,610cca28e74fbb8c330464b8,65d2b6c8f2eece985d8e374c,65d2b8885dfcb3e376af6146,0.0583,0.0586,1,28,190,2,1,twoone,,,,,,,,,,,,,,,,,,,,,,,,,,,,,,,,,,,,,,,,,,,,,,,,,,,,,,,,,,,,,,,,,,,,,,,,,,,,,,,,,,,,,,,,,,,,,,,,,,,,,,,,,,,,,,,,,,,,,,,,,,,,,,,,,,,,,,,,,
,,610cca28e74fbb8c330464b8,2024-02-18_20h11.35.418,kallum_motion_pilot,2023.2.2,Win32,60.24096386,610cca28e74fbb8c330464b8,65d2b6c8f2eece985d8e374c,65d2b8885dfcb3e376af6146,0.0586,0.0588,1,29,191,128,1,fivesix,,,,,,,,,,,,,,,,,,,,,,,,,,,,,,,,,,,,,,,,,,,,,,,,,,,,,,,,,,,,,,,,,,,,,,,,,,,,,,,,,,,,,,,,,,,,,,,,,,,,,,,,,,,,,,,,,,,,,,,,,,,,,,,,,,,,,,,,,
,,610cca28e74fbb8c330464b8,2024-02-18_20h11.35.418,kallum_motion_pilot,2023.2.2,Win32,60.24096386,610cca28e74fbb8c330464b8,65d2b6c8f2eece985d8e374c,65d2b8885dfcb3e376af6146,0.0588,0.0589,1,30,192,159,1,eightseven,,,,,,,,,,,,,,,,,,,,,,,,,,,,,,,,,,,,,,,,,,,,,,,,,,,,,,,,,,,,,,,,,,,,,,,,,,,,,,,,,,,,,,,,,,,,,,,,,,,,,,,,,,,,,,,,,,,,,,,,,,,,,,,,,,,,,,,,,
,,610cca28e74fbb8c330464b8,2024-02-18_20h11.35.418,kallum_motion_pilot,2023.2.2,Win32,60.24096386,610cca28e74fbb8c330464b8,65d2b6c8f2eece985d8e374c,65d2b8885dfcb3e376af6146,0.059,0.0591,1,31,193,42,1,twoone,,,,,,,,,,,,,,,,,,,,,,,,,,,,,,,,,,,,,,,,,,,,,,,,,,,,,,,,,,,,,,,,,,,,,,,,,,,,,,,,,,,,,,,,,,,,,,,,,,,,,,,,,,,,,,,,,,,,,,,,,,,,,,,,,,,,,,,,,
,,610cca28e74fbb8c330464b8,2024-02-18_20h11.35.418,kallum_motion_pilot,2023.2.2,Win32,60.24096386,610cca28e74fbb8c330464b8,65d2b6c8f2eece985d8e374c,65d2b8885dfcb3e376af6146,0.0592,0.0593,1,32,194,157,1,seveneight,,,,,,,,,,,,,,,,,,,,,,,,,,,,,,,,,,,,,,,,,,,,,,,,,,,,,,,,,,,,,,,,,,,,,,,,,,,,,,,,,,,,,,,,,,,,,,,,,,,,,,,,,,,,,,,,,,,,,,,,,,,,,,,,,,,,,,,,,
,,610cca28e74fbb8c330464b8,2024-02-18_20h11.35.418,kallum_motion_pilot,2023.2.2,Win32,60.24096386,610cca28e74fbb8c330464b8,65d2b6c8f2eece985d8e374c,65d2b8885dfcb3e376af6146,0.0594,0.0594,1,33,195,41,1,onethree,,,,,,,,,,,,,,,,,,,,,,,,,,,,,,,,,,,,,,,,,,,,,,,,,,,,,,,,,,,,,,,,,,,,,,,,,,,,,,,,,,,,,,,,,,,,,,,,,,,,,,,,,,,,,,,,,,,,,,,,,,,,,,,,,,,,,,,,,
,,610cca28e74fbb8c330464b8,2024-02-18_20h11.35.418,kallum_motion_pilot,2023.2.2,Win32,60.24096386,610cca28e74fbb8c330464b8,65d2b6c8f2eece985d8e374c,65d2b8885dfcb3e376af6146,0.0596,0.0597,1,34,196,45,1,threefour,,,,,,,,,,,,,,,,,,,,,,,,,,,,,,,,,,,,,,,,,,,,,,,,,,,,,,,,,,,,,,,,,,,,,,,,,,,,,,,,,,,,,,,,,,,,,,,,,,,,,,,,,,,,,,,,,,,,,,,,,,,,,,,,,,,,,,,,,
,,610cca28e74fbb8c330464b8,2024-02-18_20h11.35.418,kallum_motion_pilot,2023.2.2,Win32,60.24096386,610cca28e74fbb8c330464b8,65d2b6c8f2eece985d8e374c,65d2b8885dfcb3e376af6146,0.0598,0.0598,1,35,197,160,1,fivesix,,,,,,,,,,,,,,,,,,,,,,,,,,,,,,,,,,,,,,,,,,,,,,,,,,,,,,,,,,,,,,,,,,,,,,,,,,,,,,,,,,,,,,,,,,,,,,,,,,,,,,,,,,,,,,,,,,,,,,,,,,,,,,,,,,,,,,,,,
,,610cca28e74fbb8c330464b8,2024-02-18_20h11.35.418,kallum_motion_pilot,2023.2.2,Win32,60.24096386,610cca28e74fbb8c330464b8,65d2b6c8f2eece985d8e374c,65d2b8885dfcb3e376af6146,0.0599,0.06,1,36,198,71,1,fourthree,,,,,,,,,,,,,,,,,,,,,,,,,,,,,,,,,,,,,,,,,,,,,,,,,,,,,,,,,,,,,,,,,,,,,,,,,,,,,,,,,,,,,,,,,,,,,,,,,,,,,,,,,,,,,,,,,,,,,,,,,,,,,,,,,,,,,,,,,
,,610cca28e74fbb8c330464b8,2024-02-18_20h11.35.418,kallum_motion_pilot,2023.2.2,Win32,60.24096386,610cca28e74fbb8c330464b8,65d2b6c8f2eece985d8e374c,65d2b8885dfcb3e376af6146,0.0601,0.0601,1,37,199,85,1,seveneight,,,,,,,,,,,,,,,,,,,,,,,,,,,,,,,,,,,,,,,,,,,,,,,,,,,,,,,,,,,,,,,,,,,,,,,,,,,,,,,,,,,,,,,,,,,,,,,,,,,,,,,,,,,,,,,,,,,,,,,,,,,,,,,,,,,,,,,,,
,,610cca28e74fbb8c330464b8,2024-02-18_20h11.35.418,kallum_motion_pilot,2023.2.2,Win32,60.24096386,610cca28e74fbb8c330464b8,65d2b6c8f2eece985d8e374c,65d2b8885dfcb3e376af6146,0.0602,0.0603,1,38,200,70,1,fourtwo,,,,,,,,,,,,,,,,,,,,,,,,,,,,,,,,,,,,,,,,,,,,,,,,,,,,,,,,,,,,,,,,,,,,,,,,,,,,,,,,,,,,,,,,,,,,,,,,,,,,,,,,,,,,,,,,,,,,,,,,,,,,,,,,,,,,,,,,,
,,610cca28e74fbb8c330464b8,2024-02-18_20h11.35.418,kallum_motion_pilot,2023.2.2,Win32,60.24096386,610cca28e74fbb8c330464b8,65d2b6c8f2eece985d8e374c,65d2b8885dfcb3e376af6146,0.0604,0.0604,1,39,201,78,1,fourtwo,,,,,,,,,,,,,,,,,,,,,,,,,,,,,,,,,,,,,,,,,,,,,,,,,,,,,,,,,,,,,,,,,,,,,,,,,,,,,,,,,,,,,,,,,,,,,,,,,,,,,,,,,,,,,,,,,,,,,,,,,,,,,,,,,,,,,,,,,
,,610cca28e74fbb8c330464b8,2024-02-18_20h11.35.418,kallum_motion_pilot,2023.2.2,Win32,60.24096386,610cca28e74fbb8c330464b8,65d2b6c8f2eece985d8e374c,65d2b8885dfcb3e376af6146,0.0605,0.0606,1,40,202,53,1,threefour,,,,,,,,,,,,,,,,,,,,,,,,,,,,,,,,,,,,,,,,,,,,,,,,,,,,,,,,,,,,,,,,,,,,,,,,,,,,,,,,,,,,,,,,,,,,,,,,,,,,,,,,,,,,,,,,,,,,,,,,,,,,,,,,,,,,,,,,,
,,610cca28e74fbb8c330464b8,2024-02-18_20h11.35.418,kallum_motion_pilot,2023.2.2,Win32,60.24096386,610cca28e74fbb8c330464b8,65d2b6c8f2eece985d8e374c,65d2b8885dfcb3e376af6146,0.0607,0.0608,1,41,203,54,1,fourtwo,,,,,,,,,,,,,,,,,,,,,,,,,,,,,,,,,,,,,,,,,,,,,,,,,,,,,,,,,,,,,,,,,,,,,,,,,,,,,,,,,,,,,,,,,,,,,,,,,,,,,,,,,,,,,,,,,,,,,,,,,,,,,,,,,,,,,,,,,
,,610cca28e74fbb8c330464b8,2024-02-18_20h11.35.418,kallum_motion_pilot,2023.2.2,Win32,60.24096386,610cca28e74fbb8c330464b8,65d2b6c8f2eece985d8e374c,65d2b8885dfcb3e376af6146,0.0608,0.0609,1,42,204,21,1,threefour,,,,,,,,,,,,,,,,,,,,,,,,,,,,,,,,,,,,,,,,,,,,,,,,,,,,,,,,,,,,,,,,,,,,,,,,,,,,,,,,,,,,,,,,,,,,,,,,,,,,,,,,,,,,,,,,,,,,,,,,,,,,,,,,,,,,,,,,,
,,610cca28e74fbb8c330464b8,2024-02-18_20h11.35.418,kallum_motion_pilot,2023.2.2,Win32,60.24096386,610cca28e74fbb8c330464b8,65d2b6c8f2eece985d8e374c,65d2b8885dfcb3e376af6146,0.0609,0.061,1,43,205,124,1,sevenfive,,,,,,,,,,,,,,,,,,,,,,,,,,,,,,,,,,,,,,,,,,,,,,,,,,,,,,,,,,,,,,,,,,,,,,,,,,,,,,,,,,,,,,,,,,,,,,,,,,,,,,,,,,,,,,,,,,,,,,,,,,,,,,,,,,,,,,,,,
,,610cca28e74fbb8c330464b8,2024-02-18_20h11.35.418,kallum_motion_pilot,2023.2.2,Win32,60.24096386,610cca28e74fbb8c330464b8,65d2b6c8f2eece985d8e374c,65d2b8885dfcb3e376af6146,0.0611,0.0611,1,44,206,44,1,threeone,,,,,,,,,,,,,,,,,,,,,,,,,,,,,,,,,,,,,,,,,,,,,,,,,,,,,,,,,,,,,,,,,,,,,,,,,,,,,,,,,,,,,,,,,,,,,,,,,,,,,,,,,,,,,,,,,,,,,,,,,,,,,,,,,,,,,,,,,
,,610cca28e74fbb8c330464b8,2024-02-18_20h11.35.418,kallum_motion_pilot,2023.2.2,Win32,60.24096386,610cca28e74fbb8c330464b8,65d2b6c8f2eece985d8e374c,65d2b8885dfcb3e376af6146,0.0612,0.0613,1,45,207,65,1,onethree,,,,,,,,,,,,,,,,,,,,,,,,,,,,,,,,,,,,,,,,,,,,,,,,,,,,,,,,,,,,,,,,,,,,,,,,,,,,,,,,,,,,,,,,,,,,,,,,,,,,,,,,,,,,,,,,,,,,,,,,,,,,,,,,,,,,,,,,,
,,610cca28e74fbb8c330464b8,2024-02-18_20h11.35.418,kallum_motion_pilot,2023.2.2,Win32,60.24096386,610cca28e74fbb8c330464b8,65d2b6c8f2eece985d8e374c,65d2b8885dfcb3e376af6146,0.0614,0.0614,1,46,208,80,1,fivesix,,,,,,,,,,,,,,,,,,,,,,,,,,,,,,,,,,,,,,,,,,,,,,,,,,,,,,,,,,,,,,,,,,,,,,,,,,,,,,,,,,,,,,,,,,,,,,,,,,,,,,,,,,,,,,,,,,,,,,,,,,,,,,,,,,,,,,,,,
,,610cca28e74fbb8c330464b8,2024-02-18_20h11.35.418,kallum_motion_pilot,2023.2.2,Win32,60.24096386,610cca28e74fbb8c330464b8,65d2b6c8f2eece985d8e374c,65d2b8885dfcb3e376af6146,0.0615,0.0615,1,47,209,15,1,fourthree,,,,,,,,,,,,,,,,,,,,,,,,,,,,,,,,,,,,,,,,,,,,,,,,,,,,,,,,,,,,,,,,,,,,,,,,,,,,,,,,,,,,,,,,,,,,,,,,,,,,,,,,,,,,,,,,,,,,,,,,,,,,,,,,,,,,,,,,,
,,610cca28e74fbb8c330464b8,2024-02-18_20h11.35.418,kallum_motion_pilot,2023.2.2,Win32,60.24096386,610cca28e74fbb8c330464b8,65d2b6c8f2eece985d8e374c,65d2b8885dfcb3e376af6146,0.0617,0.0618,1,48,210,97,1,fiveseven,,,,,,,,,,,,,,,,,,,,,,,,,,,,,,,,,,,,,,,,,,,,,,,,,,,,,,,,,,,,,,,,,,,,,,,,,,,,,,,,,,,,,,,,,,,,,,,,,,,,,,,,,,,,,,,,,,,,,,,,,,,,,,,,,,,,,,,,,
,,610cca28e74fbb8c330464b8,2024-02-18_20h11.35.418,kallum_motion_pilot,2023.2.2,Win32,60.24096386,610cca28e74fbb8c330464b8,65d2b6c8f2eece985d8e374c,65d2b8885dfcb3e376af6146,0.0618,0.0619,1,49,211,138,1,sixfive,,,,,,,,,,,,,,,,,,,,,,,,,,,,,,,,,,,,,,,,,,,,,,,,,,,,,,,,,,,,,,,,,,,,,,,,,,,,,,,,,,,,,,,,,,,,,,,,,,,,,,,,,,,,,,,,,,,,,,,,,,,,,,,,,,,,,,,,,
,,610cca28e74fbb8c330464b8,2024-02-18_20h11.35.418,kallum_motion_pilot,2023.2.2,Win32,60.24096386,610cca28e74fbb8c330464b8,65d2b6c8f2eece985d8e374c,65d2b8885dfcb3e376af6146,0.062,0.062,1,50,212,119,1,eightseven,,,,,,,,,,,,,,,,,,,,,,,,,,,,,,,,,,,,,,,,,,,,,,,,,,,,,,,,,,,,,,,,,,,,,,,,,,,,,,,,,,,,,,,,,,,,,,,,,,,,,,,,,,,,,,,,,,,,,,,,,,,,,,,,,,,,,,,,,
,,610cca28e74fbb8c330464b8,2024-02-18_20h11.35.418,kallum_motion_pilot,2023.2.2,Win32,60.24096386,610cca28e74fbb8c330464b8,65d2b6c8f2eece985d8e374c,65d2b8885dfcb3e376af6146,0.0621,0.0622,1,51,213,10,1,twoone,,,,,,,,,,,,,,,,,,,,,,,,,,,,,,,,,,,,,,,,,,,,,,,,,,,,,,,,,,,,,,,,,,,,,,,,,,,,,,,,,,,,,,,,,,,,,,,,,,,,,,,,,,,,,,,,,,,,,,,,,,,,,,,,,,,,,,,,,
,,610cca28e74fbb8c330464b8,2024-02-18_20h11.35.418,kallum_motion_pilot,2023.2.2,Win32,60.24096386,610cca28e74fbb8c330464b8,65d2b6c8f2eece985d8e374c,65d2b8885dfcb3e376af6146,0.0623,0.0623,1,52,214,109,1,seveneight,,,,,,,,,,,,,,,,,,,,,,,,,,,,,,,,,,,,,,,,,,,,,,,,,,,,,,,,,,,,,,,,,,,,,,,,,,,,,,,,,,,,,,,,,,,,,,,,,,,,,,,,,,,,,,,,,,,,,,,,,,,,,,,,,,,,,,,,,
,,610cca28e74fbb8c330464b8,2024-02-18_20h11.35.418,kallum_motion_pilot,2023.2.2,Win32,60.24096386,610cca28e74fbb8c330464b8,65d2b6c8f2eece985d8e374c,65d2b8885dfcb3e376af6146,0.0624,0.0624,1,53,215,79,1,eightseven,,,,,,,,,,,,,,,,,,,,,,,,,,,,,,,,,,,,,,,,,,,,,,,,,,,,,,,,,,,,,,,,,,,,,,,,,,,,,,,,,,,,,,,,,,,,,,,,,,,,,,,,,,,,,,,,,,,,,,,,,,,,,,,,,,,,,,,,,
,,610cca28e74fbb8c330464b8,2024-02-18_20h11.35.418,kallum_motion_pilot,2023.2.2,Win32,60.24096386,610cca28e74fbb8c330464b8,65d2b6c8f2eece985d8e374c,65d2b8885dfcb3e376af6146,0.0625,0.0625,1,54,216,13,1,threefour,,,,,,,,,,,,,,,,,,,,,,,,,,,,,,,,,,,,,,,,,,,,,,,,,,,,,,,,,,,,,,,,,,,,,,,,,,,,,,,,,,,,,,,,,,,,,,,,,,,,,,,,,,,,,,,,,,,,,,,,,,,,,,,,,,,,,,,,,
,,610cca28e74fbb8c330464b8,2024-02-18_20h11.35.418,kallum_motion_pilot,2023.2.2,Win32,60.24096386,610cca28e74fbb8c330464b8,65d2b6c8f2eece985d8e374c,65d2b8885dfcb3e376af6146,0.0626,0.0627,1,55,217,75,1,twofour,,,,,,,,,,,,,,,,,,,,,,,,,,,,,,,,,,,,,,,,,,,,,,,,,,,,,,,,,,,,,,,,,,,,,,,,,,,,,,,,,,,,,,,,,,,,,,,,,,,,,,,,,,,,,,,,,,,,,,,,,,,,,,,,,,,,,,,,,
,,610cca28e74fbb8c330464b8,2024-02-18_20h11.35.418,kallum_motion_pilot,2023.2.2,Win32,60.24096386,610cca28e74fbb8c330464b8,65d2b6c8f2eece985d8e374c,65d2b8885dfcb3e376af6146,0.0628,0.0628,1,56,218,137,1,fiveseven,,,,,,,,,,,,,,,,,,,,,,,,,,,,,,,,,,,,,,,,,,,,,,,,,,,,,,,,,,,,,,,,,,,,,,,,,,,,,,,,,,,,,,,,,,,,,,,,,,,,,,,,,,,,,,,,,,,,,,,,,,,,,,,,,,,,,,,,,
,,610cca28e74fbb8c330464b8,2024-02-18_20h11.35.418,kallum_motion_pilot,2023.2.2,Win32,60.24096386,610cca28e74fbb8c330464b8,65d2b6c8f2eece985d8e374c,65d2b8885dfcb3e376af6146,0.0629,0.063,1,57,219,94,1,eightsix,,,,,,,,,,,,,,,,,,,,,,,,,,,,,,,,,,,,,,,,,,,,,,,,,,,,,,,,,,,,,,,,,,,,,,,,,,,,,,,,,,,,,,,,,,,,,,,,,,,,,,,,,,,,,,,,,,,,,,,,,,,,,,,,,,,,,,,,,
,,610cca28e74fbb8c330464b8,2024-02-18_20h11.35.418,kallum_motion_pilot,2023.2.2,Win32,60.24096386,610cca28e74fbb8c330464b8,65d2b6c8f2eece985d8e374c,65d2b8885dfcb3e376af6146,0.0631,0.0632,1,58,220,89,1,fiveseven,,,,,,,,,,,,,,,,,,,,,,,,,,,,,,,,,,,,,,,,,,,,,,,,,,,,,,,,,,,,,,,,,,,,,,,,,,,,,,,,,,,,,,,,,,,,,,,,,,,,,,,,,,,,,,,,,,,,,,,,,,,,,,,,,,,,,,,,,
,,610cca28e74fbb8c330464b8,2024-02-18_20h11.35.418,kallum_motion_pilot,2023.2.2,Win32,60.24096386,610cca28e74fbb8c330464b8,65d2b6c8f2eece985d8e374c,65d2b8885dfcb3e376af6146,0.0632,0.0633,1,59,221,101,1,seveneight,,,,,,,,,,,,,,,,,,,,,,,,,,,,,,,,,,,,,,,,,,,,,,,,,,,,,,,,,,,,,,,,,,,,,,,,,,,,,,,,,,,,,,,,,,,,,,,,,,,,,,,,,,,,,,,,,,,,,,,,,,,,,,,,,,,,,,,,,
,,610cca28e74fbb8c330464b8,2024-02-18_20h11.35.418,kallum_motion_pilot,2023.2.2,Win32,60.24096386,610cca28e74fbb8c330464b8,65d2b6c8f2eece985d8e374c,65d2b8885dfcb3e376af6146,0.0634,0.0635,1,60,222,16,1,onetwo,,,,,,,,,,,,,,,,,,,,,,,,,,,,,,,,,,,,,,,,,,,,,,,,,,,,,,,,,,,,,,,,,,,,,,,,,,,,,,,,,,,,,,,,,,,,,,,,,,,,,,,,,,,,,,,,,,,,,,,,,,,,,,,,,,,,,,,,,
,,610cca28e74fbb8c330464b8,2024-02-18_20h11.35.418,kallum_motion_pilot,2023.2.2,Win32,60.24096386,610cca28e74fbb8c330464b8,65d2b6c8f2eece985d8e374c,65d2b8885dfcb3e376af6146,0.0637,0.0638,1,61,223,142,1,eightsix,,,,,,,,,,,,,,,,,,,,,,,,,,,,,,,,,,,,,,,,,,,,,,,,,,,,,,,,,,,,,,,,,,,,,,,,,,,,,,,,,,,,,,,,,,,,,,,,,,,,,,,,,,,,,,,,,,,,,,,,,,,,,,,,,,,,,,,,,
,,610cca28e74fbb8c330464b8,2024-02-18_20h11.35.418,kallum_motion_pilot,2023.2.2,Win32,60.24096386,610cca28e74fbb8c330464b8,65d2b6c8f2eece985d8e374c,65d2b8885dfcb3e376af6146,0.0639,0.064,1,62,224,116,1,sevenfive,,,,,,,,,,,,,,,,,,,,,,,,,,,,,,,,,,,,,,,,,,,,,,,,,,,,,,,,,,,,,,,,,,,,,,,,,,,,,,,,,,,,,,,,,,,,,,,,,,,,,,,,,,,,,,,,,,,,,,,,,,,,,,,,,,,,,,,,,
,,610cca28e74fbb8c330464b8,2024-02-18_20h11.35.418,kallum_motion_pilot,2023.2.2,Win32,60.24096386,610cca28e74fbb8c330464b8,65d2b6c8f2eece985d8e374c,65d2b8885dfcb3e376af6146,0.0641,0.0641,1,63,225,96,1,fivesix,,,,,,,,,,,,,,,,,,,,,,,,,,,,,,,,,,,,,,,,,,,,,,,,,,,,,,,,,,,,,,,,,,,,,,,,,,,,,,,,,,,,,,,,,,,,,,,,,,,,,,,,,,,,,,,,,,,,,,,,,,,,,,,,,,,,,,,,,
,,610cca28e74fbb8c330464b8,2024-02-18_20h11.35.418,kallum_motion_pilot,2023.2.2,Win32,60.24096386,610cca28e74fbb8c330464b8,65d2b6c8f2eece985d8e374c,65d2b8885dfcb3e376af6146,0.0643,0.0644,1,64,226,121,1,fiveseven,,,,,,,,,,,,,,,,,,,,,,,,,,,,,,,,,,,,,,,,,,,,,,,,,,,,,,,,,,,,,,,,,,,,,,,,,,,,,,,,,,,,,,,,,,,,,,,,,,,,,,,,,,,,,,,,,,,,,,,,,,,,,,,,,,,,,,,,,
,,610cca28e74fbb8c330464b8,2024-02-18_20h11.35.418,kallum_motion_pilot,2023.2.2,Win32,60.24096386,610cca28e74fbb8c330464b8,65d2b6c8f2eece985d8e374c,65d2b8885dfcb3e376af6146,0.0645,0.0648,1,65,227,35,1,twofour,,,,,,,,,,,,,,,,,,,,,,,,,,,,,,,,,,,,,,,,,,,,,,,,,,,,,,,,,,,,,,,,,,,,,,,,,,,,,,,,,,,,,,,,,,,,,,,,,,,,,,,,,,,,,,,,,,,,,,,,,,,,,,,,,,,,,,,,,
,,610cca28e74fbb8c330464b8,2024-02-18_20h11.35.418,kallum_motion_pilot,2023.2.2,Win32,60.24096386,610cca28e74fbb8c330464b8,65d2b6c8f2eece985d8e374c,65d2b8885dfcb3e376af6146,0.0649,0.065,1,66,228,122,1,sixfive,,,,,,,,,,,,,,,,,,,,,,,,,,,,,,,,,,,,,,,,,,,,,,,,,,,,,,,,,,,,,,,,,,,,,,,,,,,,,,,,,,,,,,,,,,,,,,,,,,,,,,,,,,,,,,,,,,,,,,,,,,,,,,,,,,,,,,,,,
,,610cca28e74fbb8c330464b8,2024-02-18_20h11.35.418,kallum_motion_pilot,2023.2.2,Win32,60.24096386,610cca28e74fbb8c330464b8,65d2b6c8f2eece985d8e374c,65d2b8885dfcb3e376af6146,0.0651,0.0653,1,67,229,7,1,fourthree,,,,,,,,,,,,,,,,,,,,,,,,,,,,,,,,,,,,,,,,,,,,,,,,,,,,,,,,,,,,,,,,,,,,,,,,,,,,,,,,,,,,,,,,,,,,,,,,,,,,,,,,,,,,,,,,,,,,,,,,,,,,,,,,,,,,,,,,,
,,610cca28e74fbb8c330464b8,2024-02-18_20h11.35.418,kallum_motion_pilot,2023.2.2,Win32,60.24096386,610cca28e74fbb8c330464b8,65d2b6c8f2eece985d8e374c,65d2b8885dfcb3e376af6146,0.0653,0.0654,1,68,230,153,1,fiveseven,,,,,,,,,,,,,,,,,,,,,,,,,,,,,,,,,,,,,,,,,,,,,,,,,,,,,,,,,,,,,,,,,,,,,,,,,,,,,,,,,,,,,,,,,,,,,,,,,,,,,,,,,,,,,,,,,,,,,,,,,,,,,,,,,,,,,,,,,
,,610cca28e74fbb8c330464b8,2024-02-18_20h11.35.418,kallum_motion_pilot,2023.2.2,Win32,60.24096386,610cca28e74fbb8c330464b8,65d2b6c8f2eece985d8e374c,65d2b8885dfcb3e376af6146,0.0655,0.0656,1,69,231,36,1,threeone,,,,,,,,,,,,,,,,,,,,,,,,,,,,,,,,,,,,,,,,,,,,,,,,,,,,,,,,,,,,,,,,,,,,,,,,,,,,,,,,,,,,,,,,,,,,,,,,,,,,,,,,,,,,,,,,,,,,,,,,,,,,,,,,,,,,,,,,,
,,610cca28e74fbb8c330464b8,2024-02-18_20h11.35.418,kallum_motion_pilot,2023.2.2,Win32,60.24096386,610cca28e74fbb8c330464b8,65d2b6c8f2eece985d8e374c,65d2b8885dfcb3e376af6146,0.0657,0.0658,1,70,232,73,1,onethree,,,,,,,,,,,,,,,,,,,,,,,,,,,,,,,,,,,,,,,,,,,,,,,,,,,,,,,,,,,,,,,,,,,,,,,,,,,,,,,,,,,,,,,,,,,,,,,,,,,,,,,,,,,,,,,,,,,,,,,,,,,,,,,,,,,,,,,,,
,,610cca28e74fbb8c330464b8,2024-02-18_20h11.35.418,kallum_motion_pilot,2023.2.2,Win32,60.24096386,610cca28e74fbb8c330464b8,65d2b6c8f2eece985d8e374c,65d2b8885dfcb3e376af6146,0.0658,0.0659,1,71,233,156,1,sevenfive,,,,,,,,,,,,,,,,,,,,,,,,,,,,,,,,,,,,,,,,,,,,,,,,,,,,,,,,,,,,,,,,,,,,,,,,,,,,,,,,,,,,,,,,,,,,,,,,,,,,,,,,,,,,,,,,,,,,,,,,,,,,,,,,,,,,,,,,,
,,610cca28e74fbb8c330464b8,2024-02-18_20h11.35.418,kallum_motion_pilot,2023.2.2,Win32,60.24096386,610cca28e74fbb8c330464b8,65d2b6c8f2eece985d8e374c,65d2b8885dfcb3e376af6146,0.066,0.066,1,72,234,158,1,eightsix,,,,,,,,,,,,,,,,,,,,,,,,,,,,,,,,,,,,,,,,,,,,,,,,,,,,,,,,,,,,,,,,,,,,,,,,,,,,,,,,,,,,,,,,,,,,,,,,,,,,,,,,,,,,,,,,,,,,,,,,,,,,,,,,,,,,,,,,,
,,610cca28e74fbb8c330464b8,2024-02-18_20h11.35.418,kallum_motion_pilot,2023.2.2,Win32,60.24096386,610cca28e74fbb8c330464b8,65d2b6c8f2eece985d8e374c,65d2b8885dfcb3e376af6146,0.0661,0.0662,1,73,235,14,1,fourtwo,,,,,,,,,,,,,,,,,,,,,,,,,,,,,,,,,,,,,,,,,,,,,,,,,,,,,,,,,,,,,,,,,,,,,,,,,,,,,,,,,,,,,,,,,,,,,,,,,,,,,,,,,,,,,,,,,,,,,,,,,,,,,,,,,,,,,,,,,
,,610cca28e74fbb8c330464b8,2024-02-18_20h11.35.418,kallum_motion_pilot,2023.2.2,Win32,60.24096386,610cca28e74fbb8c330464b8,65d2b6c8f2eece985d8e374c,65d2b8885dfcb3e376af6146,0.0664,0.0664,1,74,236,123,1,sixeight,,,,,,,,,,,,,,,,,,,,,,,,,,,,,,,,,,,,,,,,,,,,,,,,,,,,,,,,,,,,,,,,,,,,,,,,,,,,,,,,,,,,,,,,,,,,,,,,,,,,,,,,,,,,,,,,,,,,,,,,,,,,,,,,,,,,,,,,,
,,610cca28e74fbb8c330464b8,2024-02-18_20h11.35.418,kallum_motion_pilot,2023.2.2,Win32,60.24096386,610cca28e74fbb8c330464b8,65d2b6c8f2eece985d8e374c,65d2b8885dfcb3e376af6146,0.0664,0.0666,1,75,237,115,1,sixeight,,,,,,,,,,,,,,,,,,,,,,,,,,,,,,,,,,,,,,,,,,,,,,,,,,,,,,,,,,,,,,,,,,,,,,,,,,,,,,,,,,,,,,,,,,,,,,,,,,,,,,,,,,,,,,,,,,,,,,,,,,,,,,,,,,,,,,,,,
,,610cca28e74fbb8c330464b8,2024-02-18_20h11.35.418,kallum_motion_pilot,2023.2.2,Win32,60.24096386,610cca28e74fbb8c330464b8,65d2b6c8f2eece985d8e374c,65d2b8885dfcb3e376af6146,0.0666,0.0667,1,76,238,5,1,threefour,,,,,,,,,,,,,,,,,,,,,,,,,,,,,,,,,,,,,,,,,,,,,,,,,,,,,,,,,,,,,,,,,,,,,,,,,,,,,,,,,,,,,,,,,,,,,,,,,,,,,,,,,,,,,,,,,,,,,,,,,,,,,,,,,,,,,,,,,
,,610cca28e74fbb8c330464b8,2024-02-18_20h11.35.418,kallum_motion_pilot,2023.2.2,Win32,60.24096386,610cca28e74fbb8c330464b8,65d2b6c8f2eece985d8e374c,65d2b8885dfcb3e376af6146,0.0668,0.0669,1,77,239,6,1,fourtwo,,,,,,,,,,,,,,,,,,,,,,,,,,,,,,,,,,,,,,,,,,,,,,,,,,,,,,,,,,,,,,,,,,,,,,,,,,,,,,,,,,,,,,,,,,,,,,,,,,,,,,,,,,,,,,,,,,,,,,,,,,,,,,,,,,,,,,,,,
,,610cca28e74fbb8c330464b8,2024-02-18_20h11.35.418,kallum_motion_pilot,2023.2.2,Win32,60.24096386,610cca28e74fbb8c330464b8,65d2b6c8f2eece985d8e374c,65d2b8885dfcb3e376af6146,0.067,0.067,1,78,240,113,1,fiveseven,,,,,,,,,,,,,,,,,,,,,,,,,,,,,,,,,,,,,,,,,,,,,,,,,,,,,,,,,,,,,,,,,,,,,,,,,,,,,,,,,,,,,,,,,,,,,,,,,,,,,,,,,,,,,,,,,,,,,,,,,,,,,,,,,,,,,,,,,
,,610cca28e74fbb8c330464b8,2024-02-18_20h11.35.418,kallum_motion_pilot,2023.2.2,Win32,60.24096386,610cca28e74fbb8c330464b8,65d2b6c8f2eece985d8e374c,65d2b8885dfcb3e376af6146,0.0672,0.0673,1,79,241,34,1,twoone,,,,,,,,,,,,,,,,,,,,,,,,,,,,,,,,,,,,,,,,,,,,,,,,,,,,,,,,,,,,,,,,,,,,,,,,,,,,,,,,,,,,,,,,,,,,,,,,,,,,,,,,,,,,,,,,,,,,,,,,,,,,,,,,,,,,,,,,,
,,610cca28e74fbb8c330464b8,2024-02-18_20h11.35.418,kallum_motion_pilot,2023.2.2,Win32,60.24096386,610cca28e74fbb8c330464b8,65d2b6c8f2eece985d8e374c,65d2b8885dfcb3e376af6146,0.0673,0.0674,1,80,242,83,1,sixeight,,,,,,,,,,,,,,,,,,,,,,,,,,,,,,,,,,,,,,,,,,,,,,,,,,,,,,,,,,,,,,,,,,,,,,,,,,,,,,,,,,,,,,,,,,,,,,,,,,,,,,,,,,,,,,,,,,,,,,,,,,,,,,,,,,,,,,,,,
,,610cca28e74fbb8c330464b8,2024-02-18_20h11.35.418,kallum_motion_pilot,2023.2.2,Win32,60.24096386,610cca28e74fbb8c330464b8,65d2b6c8f2eece985d8e374c,65d2b8885dfcb3e376af6146,0.0675,0.0676,1,81,243,64,1,onetwo,,,,,,,,,,,,,,,,,,,,,,,,,,,,,,,,,,,,,,,,,,,,,,,,,,,,,,,,,,,,,,,,,,,,,,,,,,,,,,,,,,,,,,,,,,,,,,,,,,,,,,,,,,,,,,,,,,,,,,,,,,,,,,,,,,,,,,,,,
,,610cca28e74fbb8c330464b8,2024-02-18_20h11.35.418,kallum_motion_pilot,2023.2.2,Win32,60.24096386,610cca28e74fbb8c330464b8,65d2b6c8f2eece985d8e374c,65d2b8885dfcb3e376af6146,0.0677,0.0678,1,82,244,50,1,twoone,,,,,,,,,,,,,,,,,,,,,,,,,,,,,,,,,,,,,,,,,,,,,,,,,,,,,,,,,,,,,,,,,,,,,,,,,,,,,,,,,,,,,,,,,,,,,,,,,,,,,,,,,,,,,,,,,,,,,,,,,,,,,,,,,,,,,,,,,
,,610cca28e74fbb8c330464b8,2024-02-18_20h11.35.418,kallum_motion_pilot,2023.2.2,Win32,60.24096386,610cca28e74fbb8c330464b8,65d2b6c8f2eece985d8e374c,65d2b8885dfcb3e376af6146,0.0679,0.0679,1,83,245,99,1,sixeight,,,,,,,,,,,,,,,,,,,,,,,,,,,,,,,,,,,,,,,,,,,,,,,,,,,,,,,,,,,,,,,,,,,,,,,,,,,,,,,,,,,,,,,,,,,,,,,,,,,,,,,,,,,,,,,,,,,,,,,,,,,,,,,,,,,,,,,,,
,,610cca28e74fbb8c330464b8,2024-02-18_20h11.35.418,kallum_motion_pilot,2023.2.2,Win32,60.24096386,610cca28e74fbb8c330464b8,65d2b6c8f2eece985d8e374c,65d2b8885dfcb3e376af6146,0.068,0.068,1,84,246,38,1,fourtwo,,,,,,,,,,,,,,,,,,,,,,,,,,,,,,,,,,,,,,,,,,,,,,,,,,,,,,,,,,,,,,,,,,,,,,,,,,,,,,,,,,,,,,,,,,,,,,,,,,,,,,,,,,,,,,,,,,,,,,,,,,,,,,,,,,,,,,,,,
,,610cca28e74fbb8c330464b8,2024-02-18_20h11.35.418,kallum_motion_pilot,2023.2.2,Win32,60.24096386,610cca28e74fbb8c330464b8,65d2b6c8f2eece985d8e374c,65d2b8885dfcb3e376af6146,0.0682,0.0683,1,85,247,68,1,threeone,,,,,,,,,,,,,,,,,,,,,,,,,,,,,,,,,,,,,,,,,,,,,,,,,,,,,,,,,,,,,,,,,,,,,,,,,,,,,,,,,,,,,,,,,,,,,,,,,,,,,,,,,,,,,,,,,,,,,,,,,,,,,,,,,,,,,,,,,
,,610cca28e74fbb8c330464b8,2024-02-18_20h11.35.418,kallum_motion_pilot,2023.2.2,Win32,60.24096386,610cca28e74fbb8c330464b8,65d2b6c8f2eece985d8e374c,65d2b8885dfcb3e376af6146,0.0684,0.0685,1,86,248,77,1,threefour,,,,,,,,,,,,,,,,,,,,,,,,,,,,,,,,,,,,,,,,,,,,,,,,,,,,,,,,,,,,,,,,,,,,,,,,,,,,,,,,,,,,,,,,,,,,,,,,,,,,,,,,,,,,,,,,,,,,,,,,,,,,,,,,,,,,,,,,,
,,610cca28e74fbb8c330464b8,2024-02-18_20h11.35.418,kallum_motion_pilot,2023.2.2,Win32,60.24096386,610cca28e74fbb8c330464b8,65d2b6c8f2eece985d8e374c,65d2b8885dfcb3e376af6146,0.0687,0.0689,1,87,249,91,1,sixeight,,,,,,,,,,,,,,,,,,,,,,,,,,,,,,,,,,,,,,,,,,,,,,,,,,,,,,,,,,,,,,,,,,,,,,,,,,,,,,,,,,,,,,,,,,,,,,,,,,,,,,,,,,,,,,,,,,,,,,,,,,,,,,,,,,,,,,,,,
,,610cca28e74fbb8c330464b8,2024-02-18_20h11.35.418,kallum_motion_pilot,2023.2.2,Win32,60.24096386,610cca28e74fbb8c330464b8,65d2b6c8f2eece985d8e374c,65d2b8885dfcb3e376af6146,0.0691,0.0692,1,88,250,125,1,seveneight,,,,,,,,,,,,,,,,,,,,,,,,,,,,,,,,,,,,,,,,,,,,,,,,,,,,,,,,,,,,,,,,,,,,,,,,,,,,,,,,,,,,,,,,,,,,,,,,,,,,,,,,,,,,,,,,,,,,,,,,,,,,,,,,,,,,,,,,,
,,610cca28e74fbb8c330464b8,2024-02-18_20h11.35.418,kallum_motion_pilot,2023.2.2,Win32,60.24096386,610cca28e74fbb8c330464b8,65d2b6c8f2eece985d8e374c,65d2b8885dfcb3e376af6146,0.0694,0.0695,1,89,251,114,1,sixfive,,,,,,,,,,,,,,,,,,,,,,,,,,,,,,,,,,,,,,,,,,,,,,,,,,,,,,,,,,,,,,,,,,,,,,,,,,,,,,,,,,,,,,,,,,,,,,,,,,,,,,,,,,,,,,,,,,,,,,,,,,,,,,,,,,,,,,,,,
,,610cca28e74fbb8c330464b8,2024-02-18_20h11.35.418,kallum_motion_pilot,2023.2.2,Win32,60.24096386,610cca28e74fbb8c330464b8,65d2b6c8f2eece985d8e374c,65d2b8885dfcb3e376af6146,0.0695,0.0696,1,90,252,104,1,fivesix,,,,,,,,,,,,,,,,,,,,,,,,,,,,,,,,,,,,,,,,,,,,,,,,,,,,,,,,,,,,,,,,,,,,,,,,,,,,,,,,,,,,,,,,,,,,,,,,,,,,,,,,,,,,,,,,,,,,,,,,,,,,,,,,,,,,,,,,,
,,610cca28e74fbb8c330464b8,2024-02-18_20h11.35.418,kallum_motion_pilot,2023.2.2,Win32,60.24096386,610cca28e74fbb8c330464b8,65d2b6c8f2eece985d8e374c,65d2b8885dfcb3e376af6146,0.0696,0.0697,1,91,253,74,1,twoone,,,,,,,,,,,,,,,,,,,,,,,,,,,,,,,,,,,,,,,,,,,,,,,,,,,,,,,,,,,,,,,,,,,,,,,,,,,,,,,,,,,,,,,,,,,,,,,,,,,,,,,,,,,,,,,,,,,,,,,,,,,,,,,,,,,,,,,,,
,,610cca28e74fbb8c330464b8,2024-02-18_20h11.35.418,kallum_motion_pilot,2023.2.2,Win32,60.24096386,610cca28e74fbb8c330464b8,65d2b6c8f2eece985d8e374c,65d2b8885dfcb3e376af6146,0.0699,0.0699,1,92,254,72,1,onetwo,,,,,,,,,,,,,,,,,,,,,,,,,,,,,,,,,,,,,,,,,,,,,,,,,,,,,,,,,,,,,,,,,,,,,,,,,,,,,,,,,,,,,,,,,,,,,,,,,,,,,,,,,,,,,,,,,,,,,,,,,,,,,,,,,,,,,,,,,
,,610cca28e74fbb8c330464b8,2024-02-18_20h11.35.418,kallum_motion_pilot,2023.2.2,Win32,60.24096386,610cca28e74fbb8c330464b8,65d2b6c8f2eece985d8e374c,65d2b8885dfcb3e376af6146,0.07,0.0703,1,93,255,12,1,threeone,,,,,,,,,,,,,,,,,,,,,,,,,,,,,,,,,,,,,,,,,,,,,,,,,,,,,,,,,,,,,,,,,,,,,,,,,,,,,,,,,,,,,,,,,,,,,,,,,,,,,,,,,,,,,,,,,,,,,,,,,,,,,,,,,,,,,,,,,
,,610cca28e74fbb8c330464b8,2024-02-18_20h11.35.418,kallum_motion_pilot,2023.2.2,Win32,60.24096386,610cca28e74fbb8c330464b8,65d2b6c8f2eece985d8e374c,65d2b8885dfcb3e376af6146,0.0704,0.0706,1,94,256,149,1,seveneight,,,,,,,,,,,,,,,,,,,,,,,,,,,,,,,,,,,,,,,,,,,,,,,,,,,,,,,,,,,,,,,,,,,,,,,,,,,,,,,,,,,,,,,,,,,,,,,,,,,,,,,,,,,,,,,,,,,,,,,,,,,,,,,,,,,,,,,,,
,,610cca28e74fbb8c330464b8,2024-02-18_20h11.35.418,kallum_motion_pilot,2023.2.2,Win32,60.24096386,610cca28e74fbb8c330464b8,65d2b6c8f2eece985d8e374c,65d2b8885dfcb3e376af6146,0.0706,0.0707,1,95,257,82,1,sixfive,,,,,,,,,,,,,,,,,,,,,,,,,,,,,,,,,,,,,,,,,,,,,,,,,,,,,,,,,,,,,,,,,,,,,,,,,,,,,,,,,,,,,,,,,,,,,,,,,,,,,,,,,,,,,,,,,,,,,,,,,,,,,,,,,,,,,,,,,
,,610cca28e74fbb8c330464b8,2024-02-18_20h11.35.418,kallum_motion_pilot,2023.2.2,Win32,60.24096386,610cca28e74fbb8c330464b8,65d2b6c8f2eece985d8e374c,65d2b8885dfcb3e376af6146,0.0707,0.0709,1,96,258,126,1,eightsix,,,,,,,,,,,,,,,,,,,,,,,,,,,,,,,,,,,,,,,,,,,,,,,,,,,,,,,,,,,,,,,,,,,,,,,,,,,,,,,,,,,,,,,,,,,,,,,,,,,,,,,,,,,,,,,,,,,,,,,,,,,,,,,,,,,,,,,,,
,,610cca28e74fbb8c330464b8,2024-02-18_20h11.35.418,kallum_motion_pilot,2023.2.2,Win32,60.24096386,610cca28e74fbb8c330464b8,65d2b6c8f2eece985d8e374c,65d2b8885dfcb3e376af6146,0.071,0.071,1,97,259,118,1,eightsix,,,,,,,,,,,,,,,,,,,,,,,,,,,,,,,,,,,,,,,,,,,,,,,,,,,,,,,,,,,,,,,,,,,,,,,,,,,,,,,,,,,,,,,,,,,,,,,,,,,,,,,,,,,,,,,,,,,,,,,,,,,,,,,,,,,,,,,,,
,,610cca28e74fbb8c330464b8,2024-02-18_20h11.35.418,kallum_motion_pilot,2023.2.2,Win32,60.24096386,610cca28e74fbb8c330464b8,65d2b6c8f2eece985d8e374c,65d2b8885dfcb3e376af6146,0.0712,0.0712,1,98,260,129,1,fiveseven,,,,,,,,,,,,,,,,,,,,,,,,,,,,,,,,,,,,,,,,,,,,,,,,,,,,,,,,,,,,,,,,,,,,,,,,,,,,,,,,,,,,,,,,,,,,,,,,,,,,,,,,,,,,,,,,,,,,,,,,,,,,,,,,,,,,,,,,,
,,610cca28e74fbb8c330464b8,2024-02-18_20h11.35.418,kallum_motion_pilot,2023.2.2,Win32,60.24096386,610cca28e74fbb8c330464b8,65d2b6c8f2eece985d8e374c,65d2b8885dfcb3e376af6146,0.0713,0.0713,1,99,261,117,1,seveneight,,,,,,,,,,,,,,,,,,,,,,,,,,,,,,,,,,,,,,,,,,,,,,,,,,,,,,,,,,,,,,,,,,,,,,,,,,,,,,,,,,,,,,,,,,,,,,,,,,,,,,,,,,,,,,,,,,,,,,,,,,,,,,,,,,,,,,,,,
,,610cca28e74fbb8c330464b8,2024-02-18_20h11.35.418,kallum_motion_pilot,2023.2.2,Win32,60.24096386,610cca28e74fbb8c330464b8,65d2b6c8f2eece985d8e374c,65d2b8885dfcb3e376af6146,0.0714,0.0714,1,100,262,132,1,sevenfive,,,,,,,,,,,,,,,,,,,,,,,,,,,,,,,,,,,,,,,,,,,,,,,,,,,,,,,,,,,,,,,,,,,,,,,,,,,,,,,,,,,,,,,,,,,,,,,,,,,,,,,,,,,,,,,,,,,,,,,,,,,,,,,,,,,,,,,,,
,,610cca28e74fbb8c330464b8,2024-02-18_20h11.35.418,kallum_motion_pilot,2023.2.2,Win32,60.24096386,610cca28e74fbb8c330464b8,65d2b6c8f2eece985d8e374c,65d2b8885dfcb3e376af6146,0.0716,0.0716,1,101,263,26,1,twoone,,,,,,,,,,,,,,,,,,,,,,,,,,,,,,,,,,,,,,,,,,,,,,,,,,,,,,,,,,,,,,,,,,,,,,,,,,,,,,,,,,,,,,,,,,,,,,,,,,,,,,,,,,,,,,,,,,,,,,,,,,,,,,,,,,,,,,,,,
,,610cca28e74fbb8c330464b8,2024-02-18_20h11.35.418,kallum_motion_pilot,2023.2.2,Win32,60.24096386,610cca28e74fbb8c330464b8,65d2b6c8f2eece985d8e374c,65d2b8885dfcb3e376af6146,0.0718,0.0719,1,102,264,107,1,sixeight,,,,,,,,,,,,,,,,,,,,,,,,,,,,,,,,,,,,,,,,,,,,,,,,,,,,,,,,,,,,,,,,,,,,,,,,,,,,,,,,,,,,,,,,,,,,,,,,,,,,,,,,,,,,,,,,,,,,,,,,,,,,,,,,,,,,,,,,,
,,610cca28e74fbb8c330464b8,2024-02-18_20h11.35.418,kallum_motion_pilot,2023.2.2,Win32,60.24096386,610cca28e74fbb8c330464b8,65d2b6c8f2eece985d8e374c,65d2b8885dfcb3e376af6146,0.072,0.0721,1,103,265,47,1,fourthree,,,,,,,,,,,,,,,,,,,,,,,,,,,,,,,,,,,,,,,,,,,,,,,,,,,,,,,,,,,,,,,,,,,,,,,,,,,,,,,,,,,,,,,,,,,,,,,,,,,,,,,,,,,,,,,,,,,,,,,,,,,,,,,,,,,,,,,,,
,,610cca28e74fbb8c330464b8,2024-02-18_20h11.35.418,kallum_motion_pilot,2023.2.2,Win32,60.24096386,610cca28e74fbb8c330464b8,65d2b6c8f2eece985d8e374c,65d2b8885dfcb3e376af6146,0.0721,0.0722,1,104,266,136,1,fivesix,,,,,,,,,,,,,,,,,,,,,,,,,,,,,,,,,,,,,,,,,,,,,,,,,,,,,,,,,,,,,,,,,,,,,,,,,,,,,,,,,,,,,,,,,,,,,,,,,,,,,,,,,,,,,,,,,,,,,,,,,,,,,,,,,,,,,,,,,
,,610cca28e74fbb8c330464b8,2024-02-18_20h11.35.418,kallum_motion_pilot,2023.2.2,Win32,60.24096386,610cca28e74fbb8c330464b8,65d2b6c8f2eece985d8e374c,65d2b8885dfcb3e376af6146,0.0723,0.0725,1,105,267,58,1,twoone,,,,,,,,,,,,,,,,,,,,,,,,,,,,,,,,,,,,,,,,,,,,,,,,,,,,,,,,,,,,,,,,,,,,,,,,,,,,,,,,,,,,,,,,,,,,,,,,,,,,,,,,,,,,,,,,,,,,,,,,,,,,,,,,,,,,,,,,,
,,610cca28e74fbb8c330464b8,2024-02-18_20h11.35.418,kallum_motion_pilot,2023.2.2,Win32,60.24096386,610cca28e74fbb8c330464b8,65d2b6c8f2eece985d8e374c,65d2b8885dfcb3e376af6146,0.0725,0.0726,1,106,268,148,1,sevenfive,,,,,,,,,,,,,,,,,,,,,,,,,,,,,,,,,,,,,,,,,,,,,,,,,,,,,,,,,,,,,,,,,,,,,,,,,,,,,,,,,,,,,,,,,,,,,,,,,,,,,,,,,,,,,,,,,,,,,,,,,,,,,,,,,,,,,,,,,
,,610cca28e74fbb8c330464b8,2024-02-18_20h11.35.418,kallum_motion_pilot,2023.2.2,Win32,60.24096386,610cca28e74fbb8c330464b8,65d2b6c8f2eece985d8e374c,65d2b8885dfcb3e376af6146,0.0727,0.0728,1,107,269,147,1,sixeight,,,,,,,,,,,,,,,,,,,,,,,,,,,,,,,,,,,,,,,,,,,,,,,,,,,,,,,,,,,,,,,,,,,,,,,,,,,,,,,,,,,,,,,,,,,,,,,,,,,,,,,,,,,,,,,,,,,,,,,,,,,,,,,,,,,,,,,,,
,,610cca28e74fbb8c330464b8,2024-02-18_20h11.35.418,kallum_motion_pilot,2023.2.2,Win32,60.24096386,610cca28e74fbb8c330464b8,65d2b6c8f2eece985d8e374c,65d2b8885dfcb3e376af6146,0.0728,0.0729,1,108,270,131,1,sixeight,,,,,,,,,,,,,,,,,,,,,,,,,,,,,,,,,,,,,,,,,,,,,,,,,,,,,,,,,,,,,,,,,,,,,,,,,,,,,,,,,,,,,,,,,,,,,,,,,,,,,,,,,,,,,,,,,,,,,,,,,,,,,,,,,,,,,,,,,
,,610cca28e74fbb8c330464b8,2024-02-18_20h11.35.418,kallum_motion_pilot,2023.2.2,Win32,60.24096386,610cca28e74fbb8c330464b8,65d2b6c8f2eece985d8e374c,65d2b8885dfcb3e376af6146,0.0734,0.0737,1,109,271,134,1,eightsix,,,,,,,,,,,,,,,,,,,,,,,,,,,,,,,,,,,,,,,,,,,,,,,,,,,,,,,,,,,,,,,,,,,,,,,,,,,,,,,,,,,,,,,,,,,,,,,,,,,,,,,,,,,,,,,,,,,,,,,,,,,,,,,,,,,,,,,,,
,,610cca28e74fbb8c330464b8,2024-02-18_20h11.35.418,kallum_motion_pilot,2023.2.2,Win32,60.24096386,610cca28e74fbb8c330464b8,65d2b6c8f2eece985d8e374c,65d2b8885dfcb3e376af6146,0.0743,0.0745,1,110,272,27,1,twofour,,,,,,,,,,,,,,,,,,,,,,,,,,,,,,,,,,,,,,,,,,,,,,,,,,,,,,,,,,,,,,,,,,,,,,,,,,,,,,,,,,,,,,,,,,,,,,,,,,,,,,,,,,,,,,,,,,,,,,,,,,,,,,,,,,,,,,,,,
,,610cca28e74fbb8c330464b8,2024-02-18_20h11.35.418,kallum_motion_pilot,2023.2.2,Win32,60.24096386,610cca28e74fbb8c330464b8,65d2b6c8f2eece985d8e374c,65d2b8885dfcb3e376af6146,0.075,0.0752,1,111,273,48,1,onetwo,,,,,,,,,,,,,,,,,,,,,,,,,,,,,,,,,,,,,,,,,,,,,,,,,,,,,,,,,,,,,,,,,,,,,,,,,,,,,,,,,,,,,,,,,,,,,,,,,,,,,,,,,,,,,,,,,,,,,,,,,,,,,,,,,,,,,,,,,
,,610cca28e74fbb8c330464b8,2024-02-18_20h11.35.418,kallum_motion_pilot,2023.2.2,Win32,60.24096386,610cca28e74fbb8c330464b8,65d2b6c8f2eece985d8e374c,65d2b8885dfcb3e376af6146,0.0754,0.0755,1,112,274,108,1,sevenfive,,,,,,,,,,,,,,,,,,,,,,,,,,,,,,,,,,,,,,,,,,,,,,,,,,,,,,,,,,,,,,,,,,,,,,,,,,,,,,,,,,,,,,,,,,,,,,,,,,,,,,,,,,,,,,,,,,,,,,,,,,,,,,,,,,,,,,,,,
,,610cca28e74fbb8c330464b8,2024-02-18_20h11.35.418,kallum_motion_pilot,2023.2.2,Win32,60.24096386,610cca28e74fbb8c330464b8,65d2b6c8f2eece985d8e374c,65d2b8885dfcb3e376af6146,0.0756,0.0756,1,113,275,40,1,onetwo,,,,,,,,,,,,,,,,,,,,,,,,,,,,,,,,,,,,,,,,,,,,,,,,,,,,,,,,,,,,,,,,,,,,,,,,,,,,,,,,,,,,,,,,,,,,,,,,,,,,,,,,,,,,,,,,,,,,,,,,,,,,,,,,,,,,,,,,,
,,610cca28e74fbb8c330464b8,2024-02-18_20h11.35.418,kallum_motion_pilot,2023.2.2,Win32,60.24096386,610cca28e74fbb8c330464b8,65d2b6c8f2eece985d8e374c,65d2b8885dfcb3e376af6146,0.0757,0.0758,1,114,276,51,1,twofour,,,,,,,,,,,,,,,,,,,,,,,,,,,,,,,,,,,,,,,,,,,,,,,,,,,,,,,,,,,,,,,,,,,,,,,,,,,,,,,,,,,,,,,,,,,,,,,,,,,,,,,,,,,,,,,,,,,,,,,,,,,,,,,,,,,,,,,,,
,,610cca28e74fbb8c330464b8,2024-02-18_20h11.35.418,kallum_motion_pilot,2023.2.2,Win32,60.24096386,610cca28e74fbb8c330464b8,65d2b6c8f2eece985d8e374c,65d2b8885dfcb3e376af6146,0.0759,0.0759,1,115,277,57,1,onethree,,,,,,,,,,,,,,,,,,,,,,,,,,,,,,,,,,,,,,,,,,,,,,,,,,,,,,,,,,,,,,,,,,,,,,,,,,,,,,,,,,,,,,,,,,,,,,,,,,,,,,,,,,,,,,,,,,,,,,,,,,,,,,,,,,,,,,,,,
