startup.started,startup.stopped,Prolific ID*,date,expName,psychopyVersion,OS,frameRate,participant,study_id,session,stimpositions.started,stimpositions.stopped,hardcoded_stimulus_positions.thisRepN,hardcoded_stimulus_positions.thisTrialN,hardcoded_stimulus_positions.thisN,hardcoded_stimulus_positions.thisIndex,hardcoded_stimulus_positions.ran,StimulusPos,stimorientation.started,stimorientation.stopped,prac_stimorientation_import_loop.thisRepN,prac_stimorientation_import_loop.thisTrialN,prac_stimorientation_import_loop.thisN,prac_stimorientation_import_loop.thisIndex,prac_stimorientation_import_loop.ran,Stimorientation,welcome_instr.started,welcome_instr.stopped,key_resp.keys,key_resp.rt,key_resp.duration,response_steppedout_1.started,response_steppedout_1.stopped,key_resp_20.keys,key_resp_20.rt,key_resp_20.duration,response_steppedout_2.started,response_steppedout_2.stopped,key_resp_19.keys,key_resp_19.rt,key_resp_19.duration,stim_response_instr.started,stim_response_instr.stopped,key_resp_15.keys,key_resp_15.rt,key_resp_15.duration,direction_instr_2.started,direction_instr_2.stopped,key_resp_9.keys,key_resp_9.rt,key_resp_9.duration,instr_prac.started,instr_prac.stopped,key_resp_10.keys,key_resp_10.rt,key_resp_10.duration,Stim1_display_prac.started,Stim1_display_prac.stopped,Ecc,Circle1_ori,Circle2_ori,response_prac.started,similarity,response_time,response_prac.stopped,mouse_5.x,mouse_5.y,mouse_5.leftButton,mouse_5.midButton,mouse_5.rightButton,mouse_5.clicked_name,responseprac_feedback.started,responseprac_feedback.stopped,summary2_prac.started,summary2_prac.stopped,mouse_6.x,mouse_6.y,mouse_6.leftButton,mouse_6.midButton,mouse_6.rightButton,mouse_6.clicked_name,duringprac.thisRepN,duringprac.thisTrialN,duringprac.thisN,duringprac.thisIndex,duringprac.ran,begin.started,begin.stopped,key_resp_22.keys,key_resp_22.rt,key_resp_22.duration,Stim1_display.started,Stim1_display.stopped,circle1_ori,circle2_ori,circle1_SF,circle2_SF,response.started,response.stopped,mouse.x,mouse.y,mouse.leftButton,mouse.midButton,mouse.rightButton,mouse.clicked_name,trialnumber,double_pass.thisRepN,double_pass.thisTrialN,double_pass.thisN,double_pass.thisIndex,double_pass.ran,double_pass.order,main_trial.thisRepN,main_trial.thisTrialN,main_trial.thisN,main_trial.thisIndex,main_trial.ran,main_trial.order,Trial_Counter,Catch,Frequencies,response_2.started,response_2.stopped,mouse_2.x,mouse_2.y,mouse_2.leftButton,mouse_2.midButton,mouse_2.rightButton,mouse_2.clicked_name,special_trial.started,special_trial.stopped,catch_1.started,catch_1.stopped,mouse_3.x,mouse_3.y,mouse_3.leftButton,mouse_3.midButton,mouse_3.rightButton,catchresponse,catchnumber,response_time_catch,response_sum.started,response_sum.stopped,mouse_11.x,mouse_11.y,mouse_11.leftButton,mouse_11.midButton,mouse_11.rightButton,flip_presentation_sequence_for_double_pass.started,flip_presentation_sequence_for_double_pass.stopped,goodbye.started,goodbye.stopped,key_resp_3.keys,key_resp_3.rt,key_resp_3.duration
0.002,0.0023,611086aa151462dc0ac8d02b,2024-02-22_05h34.32.920,kallum_motion_pilot,2023.2.2,Win32,59.88023952,611086aa151462dc0ac8d02b,65d6bb0e977760de756971f7,65d6be508923259cf31ece80,,,,,,,,,,,,,,,,,,,,,,,,,,,,,,,,,,,,,,,,,,,,,,,,,,,,,,,,,,,,,,,,,,,,,,,,,,,,,,,,,,,,,,,,,,,,,,,,,,,,,,,,,,,,,,,,,,,,,,,,,,,,,,,,,,,,,,,,,,,,,,,,,
,,611086aa151462dc0ac8d02b,2024-02-22_05h34.32.920,kallum_motion_pilot,2023.2.2,Win32,59.88023952,611086aa151462dc0ac8d02b,65d6bb0e977760de756971f7,65d6be508923259cf31ece80,0.0761,0.0764,0,0,0,59,1,twofour,,,,,,,,,,,,,,,,,,,,,,,,,,,,,,,,,,,,,,,,,,,,,,,,,,,,,,,,,,,,,,,,,,,,,,,,,,,,,,,,,,,,,,,,,,,,,,,,,,,,,,,,,,,,,,,,,,,,,,,,,,,,,,,,,,,,,,,,,
,,611086aa151462dc0ac8d02b,2024-02-22_05h34.32.920,kallum_motion_pilot,2023.2.2,Win32,59.88023952,611086aa151462dc0ac8d02b,65d6bb0e977760de756971f7,65d6be508923259cf31ece80,0.077,0.077,0,1,1,56,1,onetwo,,,,,,,,,,,,,,,,,,,,,,,,,,,,,,,,,,,,,,,,,,,,,,,,,,,,,,,,,,,,,,,,,,,,,,,,,,,,,,,,,,,,,,,,,,,,,,,,,,,,,,,,,,,,,,,,,,,,,,,,,,,,,,,,,,,,,,,,,
,,611086aa151462dc0ac8d02b,2024-02-22_05h34.32.920,kallum_motion_pilot,2023.2.2,Win32,59.88023952,611086aa151462dc0ac8d02b,65d6bb0e977760de756971f7,65d6be508923259cf31ece80,0.0775,0.0775,0,2,2,19,1,twofour,,,,,,,,,,,,,,,,,,,,,,,,,,,,,,,,,,,,,,,,,,,,,,,,,,,,,,,,,,,,,,,,,,,,,,,,,,,,,,,,,,,,,,,,,,,,,,,,,,,,,,,,,,,,,,,,,,,,,,,,,,,,,,,,,,,,,,,,,
,,611086aa151462dc0ac8d02b,2024-02-22_05h34.32.920,kallum_motion_pilot,2023.2.2,Win32,59.88023952,611086aa151462dc0ac8d02b,65d6bb0e977760de756971f7,65d6be508923259cf31ece80,0.078,0.0781,0,3,3,58,1,twoone,,,,,,,,,,,,,,,,,,,,,,,,,,,,,,,,,,,,,,,,,,,,,,,,,,,,,,,,,,,,,,,,,,,,,,,,,,,,,,,,,,,,,,,,,,,,,,,,,,,,,,,,,,,,,,,,,,,,,,,,,,,,,,,,,,,,,,,,,
,,611086aa151462dc0ac8d02b,2024-02-22_05h34.32.920,kallum_motion_pilot,2023.2.2,Win32,59.88023952,611086aa151462dc0ac8d02b,65d6bb0e977760de756971f7,65d6be508923259cf31ece80,0.0785,0.0786,0,4,4,79,1,eightseven,,,,,,,,,,,,,,,,,,,,,,,,,,,,,,,,,,,,,,,,,,,,,,,,,,,,,,,,,,,,,,,,,,,,,,,,,,,,,,,,,,,,,,,,,,,,,,,,,,,,,,,,,,,,,,,,,,,,,,,,,,,,,,,,,,,,,,,,,
,,611086aa151462dc0ac8d02b,2024-02-22_05h34.32.920,kallum_motion_pilot,2023.2.2,Win32,59.88023952,611086aa151462dc0ac8d02b,65d6bb0e977760de756971f7,65d6be508923259cf31ece80,0.079,0.0791,0,5,5,131,1,sixeight,,,,,,,,,,,,,,,,,,,,,,,,,,,,,,,,,,,,,,,,,,,,,,,,,,,,,,,,,,,,,,,,,,,,,,,,,,,,,,,,,,,,,,,,,,,,,,,,,,,,,,,,,,,,,,,,,,,,,,,,,,,,,,,,,,,,,,,,,
,,611086aa151462dc0ac8d02b,2024-02-22_05h34.32.920,kallum_motion_pilot,2023.2.2,Win32,59.88023952,611086aa151462dc0ac8d02b,65d6bb0e977760de756971f7,65d6be508923259cf31ece80,0.0793,0.0794,0,6,6,125,1,seveneight,,,,,,,,,,,,,,,,,,,,,,,,,,,,,,,,,,,,,,,,,,,,,,,,,,,,,,,,,,,,,,,,,,,,,,,,,,,,,,,,,,,,,,,,,,,,,,,,,,,,,,,,,,,,,,,,,,,,,,,,,,,,,,,,,,,,,,,,,
,,611086aa151462dc0ac8d02b,2024-02-22_05h34.32.920,kallum_motion_pilot,2023.2.2,Win32,59.88023952,611086aa151462dc0ac8d02b,65d6bb0e977760de756971f7,65d6be508923259cf31ece80,0.0797,0.0799,0,7,7,128,1,fivesix,,,,,,,,,,,,,,,,,,,,,,,,,,,,,,,,,,,,,,,,,,,,,,,,,,,,,,,,,,,,,,,,,,,,,,,,,,,,,,,,,,,,,,,,,,,,,,,,,,,,,,,,,,,,,,,,,,,,,,,,,,,,,,,,,,,,,,,,,
,,611086aa151462dc0ac8d02b,2024-02-22_05h34.32.920,kallum_motion_pilot,2023.2.2,Win32,59.88023952,611086aa151462dc0ac8d02b,65d6bb0e977760de756971f7,65d6be508923259cf31ece80,0.0803,0.0803,0,8,8,124,1,sevenfive,,,,,,,,,,,,,,,,,,,,,,,,,,,,,,,,,,,,,,,,,,,,,,,,,,,,,,,,,,,,,,,,,,,,,,,,,,,,,,,,,,,,,,,,,,,,,,,,,,,,,,,,,,,,,,,,,,,,,,,,,,,,,,,,,,,,,,,,,
,,611086aa151462dc0ac8d02b,2024-02-22_05h34.32.920,kallum_motion_pilot,2023.2.2,Win32,59.88023952,611086aa151462dc0ac8d02b,65d6bb0e977760de756971f7,65d6be508923259cf31ece80,0.0808,0.0809,0,9,9,91,1,sixeight,,,,,,,,,,,,,,,,,,,,,,,,,,,,,,,,,,,,,,,,,,,,,,,,,,,,,,,,,,,,,,,,,,,,,,,,,,,,,,,,,,,,,,,,,,,,,,,,,,,,,,,,,,,,,,,,,,,,,,,,,,,,,,,,,,,,,,,,,
,,611086aa151462dc0ac8d02b,2024-02-22_05h34.32.920,kallum_motion_pilot,2023.2.2,Win32,59.88023952,611086aa151462dc0ac8d02b,65d6bb0e977760de756971f7,65d6be508923259cf31ece80,0.0812,0.0813,0,10,10,130,1,sixfive,,,,,,,,,,,,,,,,,,,,,,,,,,,,,,,,,,,,,,,,,,,,,,,,,,,,,,,,,,,,,,,,,,,,,,,,,,,,,,,,,,,,,,,,,,,,,,,,,,,,,,,,,,,,,,,,,,,,,,,,,,,,,,,,,,,,,,,,,
,,611086aa151462dc0ac8d02b,2024-02-22_05h34.32.920,kallum_motion_pilot,2023.2.2,Win32,59.88023952,611086aa151462dc0ac8d02b,65d6bb0e977760de756971f7,65d6be508923259cf31ece80,0.0816,0.0817,0,11,11,70,1,fourtwo,,,,,,,,,,,,,,,,,,,,,,,,,,,,,,,,,,,,,,,,,,,,,,,,,,,,,,,,,,,,,,,,,,,,,,,,,,,,,,,,,,,,,,,,,,,,,,,,,,,,,,,,,,,,,,,,,,,,,,,,,,,,,,,,,,,,,,,,,
,,611086aa151462dc0ac8d02b,2024-02-22_05h34.32.920,kallum_motion_pilot,2023.2.2,Win32,59.88023952,611086aa151462dc0ac8d02b,65d6bb0e977760de756971f7,65d6be508923259cf31ece80,0.0824,0.0826,0,12,12,98,1,sixfive,,,,,,,,,,,,,,,,,,,,,,,,,,,,,,,,,,,,,,,,,,,,,,,,,,,,,,,,,,,,,,,,,,,,,,,,,,,,,,,,,,,,,,,,,,,,,,,,,,,,,,,,,,,,,,,,,,,,,,,,,,,,,,,,,,,,,,,,,
,,611086aa151462dc0ac8d02b,2024-02-22_05h34.32.920,kallum_motion_pilot,2023.2.2,Win32,59.88023952,611086aa151462dc0ac8d02b,65d6bb0e977760de756971f7,65d6be508923259cf31ece80,0.0829,0.083,0,13,13,83,1,sixeight,,,,,,,,,,,,,,,,,,,,,,,,,,,,,,,,,,,,,,,,,,,,,,,,,,,,,,,,,,,,,,,,,,,,,,,,,,,,,,,,,,,,,,,,,,,,,,,,,,,,,,,,,,,,,,,,,,,,,,,,,,,,,,,,,,,,,,,,,
,,611086aa151462dc0ac8d02b,2024-02-22_05h34.32.920,kallum_motion_pilot,2023.2.2,Win32,59.88023952,611086aa151462dc0ac8d02b,65d6bb0e977760de756971f7,65d6be508923259cf31ece80,0.0833,0.0833,0,14,14,25,1,onethree,,,,,,,,,,,,,,,,,,,,,,,,,,,,,,,,,,,,,,,,,,,,,,,,,,,,,,,,,,,,,,,,,,,,,,,,,,,,,,,,,,,,,,,,,,,,,,,,,,,,,,,,,,,,,,,,,,,,,,,,,,,,,,,,,,,,,,,,,
,,611086aa151462dc0ac8d02b,2024-02-22_05h34.32.920,kallum_motion_pilot,2023.2.2,Win32,59.88023952,611086aa151462dc0ac8d02b,65d6bb0e977760de756971f7,65d6be508923259cf31ece80,0.0836,0.0837,0,15,15,36,1,threeone,,,,,,,,,,,,,,,,,,,,,,,,,,,,,,,,,,,,,,,,,,,,,,,,,,,,,,,,,,,,,,,,,,,,,,,,,,,,,,,,,,,,,,,,,,,,,,,,,,,,,,,,,,,,,,,,,,,,,,,,,,,,,,,,,,,,,,,,,
,,611086aa151462dc0ac8d02b,2024-02-22_05h34.32.920,kallum_motion_pilot,2023.2.2,Win32,59.88023952,611086aa151462dc0ac8d02b,65d6bb0e977760de756971f7,65d6be508923259cf31ece80,0.0839,0.0841,0,16,16,120,1,fivesix,,,,,,,,,,,,,,,,,,,,,,,,,,,,,,,,,,,,,,,,,,,,,,,,,,,,,,,,,,,,,,,,,,,,,,,,,,,,,,,,,,,,,,,,,,,,,,,,,,,,,,,,,,,,,,,,,,,,,,,,,,,,,,,,,,,,,,,,,
,,611086aa151462dc0ac8d02b,2024-02-22_05h34.32.920,kallum_motion_pilot,2023.2.2,Win32,59.88023952,611086aa151462dc0ac8d02b,65d6bb0e977760de756971f7,65d6be508923259cf31ece80,0.0843,0.0844,0,17,17,90,1,sixfive,,,,,,,,,,,,,,,,,,,,,,,,,,,,,,,,,,,,,,,,,,,,,,,,,,,,,,,,,,,,,,,,,,,,,,,,,,,,,,,,,,,,,,,,,,,,,,,,,,,,,,,,,,,,,,,,,,,,,,,,,,,,,,,,,,,,,,,,,
,,611086aa151462dc0ac8d02b,2024-02-22_05h34.32.920,kallum_motion_pilot,2023.2.2,Win32,59.88023952,611086aa151462dc0ac8d02b,65d6bb0e977760de756971f7,65d6be508923259cf31ece80,0.0887,0.0888,0,18,18,104,1,fivesix,,,,,,,,,,,,,,,,,,,,,,,,,,,,,,,,,,,,,,,,,,,,,,,,,,,,,,,,,,,,,,,,,,,,,,,,,,,,,,,,,,,,,,,,,,,,,,,,,,,,,,,,,,,,,,,,,,,,,,,,,,,,,,,,,,,,,,,,,
,,611086aa151462dc0ac8d02b,2024-02-22_05h34.32.920,kallum_motion_pilot,2023.2.2,Win32,59.88023952,611086aa151462dc0ac8d02b,65d6bb0e977760de756971f7,65d6be508923259cf31ece80,0.0893,0.0894,0,19,19,118,1,eightsix,,,,,,,,,,,,,,,,,,,,,,,,,,,,,,,,,,,,,,,,,,,,,,,,,,,,,,,,,,,,,,,,,,,,,,,,,,,,,,,,,,,,,,,,,,,,,,,,,,,,,,,,,,,,,,,,,,,,,,,,,,,,,,,,,,,,,,,,,
,,611086aa151462dc0ac8d02b,2024-02-22_05h34.32.920,kallum_motion_pilot,2023.2.2,Win32,59.88023952,611086aa151462dc0ac8d02b,65d6bb0e977760de756971f7,65d6be508923259cf31ece80,0.0898,0.0899,0,20,20,111,1,eightseven,,,,,,,,,,,,,,,,,,,,,,,,,,,,,,,,,,,,,,,,,,,,,,,,,,,,,,,,,,,,,,,,,,,,,,,,,,,,,,,,,,,,,,,,,,,,,,,,,,,,,,,,,,,,,,,,,,,,,,,,,,,,,,,,,,,,,,,,,
,,611086aa151462dc0ac8d02b,2024-02-22_05h34.32.920,kallum_motion_pilot,2023.2.2,Win32,59.88023952,611086aa151462dc0ac8d02b,65d6bb0e977760de756971f7,65d6be508923259cf31ece80,0.0902,0.0904,0,21,21,20,1,threeone,,,,,,,,,,,,,,,,,,,,,,,,,,,,,,,,,,,,,,,,,,,,,,,,,,,,,,,,,,,,,,,,,,,,,,,,,,,,,,,,,,,,,,,,,,,,,,,,,,,,,,,,,,,,,,,,,,,,,,,,,,,,,,,,,,,,,,,,,
,,611086aa151462dc0ac8d02b,2024-02-22_05h34.32.920,kallum_motion_pilot,2023.2.2,Win32,59.88023952,611086aa151462dc0ac8d02b,65d6bb0e977760de756971f7,65d6be508923259cf31ece80,0.091,0.0911,0,22,22,108,1,sevenfive,,,,,,,,,,,,,,,,,,,,,,,,,,,,,,,,,,,,,,,,,,,,,,,,,,,,,,,,,,,,,,,,,,,,,,,,,,,,,,,,,,,,,,,,,,,,,,,,,,,,,,,,,,,,,,,,,,,,,,,,,,,,,,,,,,,,,,,,,
,,611086aa151462dc0ac8d02b,2024-02-22_05h34.32.920,kallum_motion_pilot,2023.2.2,Win32,59.88023952,611086aa151462dc0ac8d02b,65d6bb0e977760de756971f7,65d6be508923259cf31ece80,0.0916,0.0917,0,23,23,72,1,onetwo,,,,,,,,,,,,,,,,,,,,,,,,,,,,,,,,,,,,,,,,,,,,,,,,,,,,,,,,,,,,,,,,,,,,,,,,,,,,,,,,,,,,,,,,,,,,,,,,,,,,,,,,,,,,,,,,,,,,,,,,,,,,,,,,,,,,,,,,,
,,611086aa151462dc0ac8d02b,2024-02-22_05h34.32.920,kallum_motion_pilot,2023.2.2,Win32,59.88023952,611086aa151462dc0ac8d02b,65d6bb0e977760de756971f7,65d6be508923259cf31ece80,0.0921,0.0922,0,24,24,14,1,fourtwo,,,,,,,,,,,,,,,,,,,,,,,,,,,,,,,,,,,,,,,,,,,,,,,,,,,,,,,,,,,,,,,,,,,,,,,,,,,,,,,,,,,,,,,,,,,,,,,,,,,,,,,,,,,,,,,,,,,,,,,,,,,,,,,,,,,,,,,,,
,,611086aa151462dc0ac8d02b,2024-02-22_05h34.32.920,kallum_motion_pilot,2023.2.2,Win32,59.88023952,611086aa151462dc0ac8d02b,65d6bb0e977760de756971f7,65d6be508923259cf31ece80,0.0926,0.0927,0,25,25,18,1,twoone,,,,,,,,,,,,,,,,,,,,,,,,,,,,,,,,,,,,,,,,,,,,,,,,,,,,,,,,,,,,,,,,,,,,,,,,,,,,,,,,,,,,,,,,,,,,,,,,,,,,,,,,,,,,,,,,,,,,,,,,,,,,,,,,,,,,,,,,,
,,611086aa151462dc0ac8d02b,2024-02-22_05h34.32.920,kallum_motion_pilot,2023.2.2,Win32,59.88023952,611086aa151462dc0ac8d02b,65d6bb0e977760de756971f7,65d6be508923259cf31ece80,0.093,0.0931,0,26,26,156,1,sevenfive,,,,,,,,,,,,,,,,,,,,,,,,,,,,,,,,,,,,,,,,,,,,,,,,,,,,,,,,,,,,,,,,,,,,,,,,,,,,,,,,,,,,,,,,,,,,,,,,,,,,,,,,,,,,,,,,,,,,,,,,,,,,,,,,,,,,,,,,,
,,611086aa151462dc0ac8d02b,2024-02-22_05h34.32.920,kallum_motion_pilot,2023.2.2,Win32,59.88023952,611086aa151462dc0ac8d02b,65d6bb0e977760de756971f7,65d6be508923259cf31ece80,0.0934,0.0936,0,27,27,129,1,fiveseven,,,,,,,,,,,,,,,,,,,,,,,,,,,,,,,,,,,,,,,,,,,,,,,,,,,,,,,,,,,,,,,,,,,,,,,,,,,,,,,,,,,,,,,,,,,,,,,,,,,,,,,,,,,,,,,,,,,,,,,,,,,,,,,,,,,,,,,,,
,,611086aa151462dc0ac8d02b,2024-02-22_05h34.32.920,kallum_motion_pilot,2023.2.2,Win32,59.88023952,611086aa151462dc0ac8d02b,65d6bb0e977760de756971f7,65d6be508923259cf31ece80,0.0939,0.0941,0,28,28,154,1,sixfive,,,,,,,,,,,,,,,,,,,,,,,,,,,,,,,,,,,,,,,,,,,,,,,,,,,,,,,,,,,,,,,,,,,,,,,,,,,,,,,,,,,,,,,,,,,,,,,,,,,,,,,,,,,,,,,,,,,,,,,,,,,,,,,,,,,,,,,,,
,,611086aa151462dc0ac8d02b,2024-02-22_05h34.32.920,kallum_motion_pilot,2023.2.2,Win32,59.88023952,611086aa151462dc0ac8d02b,65d6bb0e977760de756971f7,65d6be508923259cf31ece80,0.0943,0.0945,0,29,29,139,1,sixeight,,,,,,,,,,,,,,,,,,,,,,,,,,,,,,,,,,,,,,,,,,,,,,,,,,,,,,,,,,,,,,,,,,,,,,,,,,,,,,,,,,,,,,,,,,,,,,,,,,,,,,,,,,,,,,,,,,,,,,,,,,,,,,,,,,,,,,,,,
,,611086aa151462dc0ac8d02b,2024-02-22_05h34.32.920,kallum_motion_pilot,2023.2.2,Win32,59.88023952,611086aa151462dc0ac8d02b,65d6bb0e977760de756971f7,65d6be508923259cf31ece80,0.0948,0.0949,0,30,30,113,1,fiveseven,,,,,,,,,,,,,,,,,,,,,,,,,,,,,,,,,,,,,,,,,,,,,,,,,,,,,,,,,,,,,,,,,,,,,,,,,,,,,,,,,,,,,,,,,,,,,,,,,,,,,,,,,,,,,,,,,,,,,,,,,,,,,,,,,,,,,,,,,
,,611086aa151462dc0ac8d02b,2024-02-22_05h34.32.920,kallum_motion_pilot,2023.2.2,Win32,59.88023952,611086aa151462dc0ac8d02b,65d6bb0e977760de756971f7,65d6be508923259cf31ece80,0.0953,0.0954,0,31,31,44,1,threeone,,,,,,,,,,,,,,,,,,,,,,,,,,,,,,,,,,,,,,,,,,,,,,,,,,,,,,,,,,,,,,,,,,,,,,,,,,,,,,,,,,,,,,,,,,,,,,,,,,,,,,,,,,,,,,,,,,,,,,,,,,,,,,,,,,,,,,,,,
,,611086aa151462dc0ac8d02b,2024-02-22_05h34.32.920,kallum_motion_pilot,2023.2.2,Win32,59.88023952,611086aa151462dc0ac8d02b,65d6bb0e977760de756971f7,65d6be508923259cf31ece80,0.0957,0.0958,0,32,32,16,1,onetwo,,,,,,,,,,,,,,,,,,,,,,,,,,,,,,,,,,,,,,,,,,,,,,,,,,,,,,,,,,,,,,,,,,,,,,,,,,,,,,,,,,,,,,,,,,,,,,,,,,,,,,,,,,,,,,,,,,,,,,,,,,,,,,,,,,,,,,,,,
,,611086aa151462dc0ac8d02b,2024-02-22_05h34.32.920,kallum_motion_pilot,2023.2.2,Win32,59.88023952,611086aa151462dc0ac8d02b,65d6bb0e977760de756971f7,65d6be508923259cf31ece80,0.0961,0.0962,0,33,33,115,1,sixeight,,,,,,,,,,,,,,,,,,,,,,,,,,,,,,,,,,,,,,,,,,,,,,,,,,,,,,,,,,,,,,,,,,,,,,,,,,,,,,,,,,,,,,,,,,,,,,,,,,,,,,,,,,,,,,,,,,,,,,,,,,,,,,,,,,,,,,,,,
,,611086aa151462dc0ac8d02b,2024-02-22_05h34.32.920,kallum_motion_pilot,2023.2.2,Win32,59.88023952,611086aa151462dc0ac8d02b,65d6bb0e977760de756971f7,65d6be508923259cf31ece80,0.0965,0.0966,0,34,34,33,1,onethree,,,,,,,,,,,,,,,,,,,,,,,,,,,,,,,,,,,,,,,,,,,,,,,,,,,,,,,,,,,,,,,,,,,,,,,,,,,,,,,,,,,,,,,,,,,,,,,,,,,,,,,,,,,,,,,,,,,,,,,,,,,,,,,,,,,,,,,,,
,,611086aa151462dc0ac8d02b,2024-02-22_05h34.32.920,kallum_motion_pilot,2023.2.2,Win32,59.88023952,611086aa151462dc0ac8d02b,65d6bb0e977760de756971f7,65d6be508923259cf31ece80,0.0969,0.0971,0,35,35,73,1,onethree,,,,,,,,,,,,,,,,,,,,,,,,,,,,,,,,,,,,,,,,,,,,,,,,,,,,,,,,,,,,,,,,,,,,,,,,,,,,,,,,,,,,,,,,,,,,,,,,,,,,,,,,,,,,,,,,,,,,,,,,,,,,,,,,,,,,,,,,,
,,611086aa151462dc0ac8d02b,2024-02-22_05h34.32.920,kallum_motion_pilot,2023.2.2,Win32,59.88023952,611086aa151462dc0ac8d02b,65d6bb0e977760de756971f7,65d6be508923259cf31ece80,0.0974,0.0976,0,36,36,6,1,fourtwo,,,,,,,,,,,,,,,,,,,,,,,,,,,,,,,,,,,,,,,,,,,,,,,,,,,,,,,,,,,,,,,,,,,,,,,,,,,,,,,,,,,,,,,,,,,,,,,,,,,,,,,,,,,,,,,,,,,,,,,,,,,,,,,,,,,,,,,,,
,,611086aa151462dc0ac8d02b,2024-02-22_05h34.32.920,kallum_motion_pilot,2023.2.2,Win32,59.88023952,611086aa151462dc0ac8d02b,65d6bb0e977760de756971f7,65d6be508923259cf31ece80,0.0978,0.098,0,37,37,119,1,eightseven,,,,,,,,,,,,,,,,,,,,,,,,,,,,,,,,,,,,,,,,,,,,,,,,,,,,,,,,,,,,,,,,,,,,,,,,,,,,,,,,,,,,,,,,,,,,,,,,,,,,,,,,,,,,,,,,,,,,,,,,,,,,,,,,,,,,,,,,,
,,611086aa151462dc0ac8d02b,2024-02-22_05h34.32.920,kallum_motion_pilot,2023.2.2,Win32,59.88023952,611086aa151462dc0ac8d02b,65d6bb0e977760de756971f7,65d6be508923259cf31ece80,0.0984,0.0985,0,38,38,114,1,sixfive,,,,,,,,,,,,,,,,,,,,,,,,,,,,,,,,,,,,,,,,,,,,,,,,,,,,,,,,,,,,,,,,,,,,,,,,,,,,,,,,,,,,,,,,,,,,,,,,,,,,,,,,,,,,,,,,,,,,,,,,,,,,,,,,,,,,,,,,,
,,611086aa151462dc0ac8d02b,2024-02-22_05h34.32.920,kallum_motion_pilot,2023.2.2,Win32,59.88023952,611086aa151462dc0ac8d02b,65d6bb0e977760de756971f7,65d6be508923259cf31ece80,0.0992,0.0994,0,39,39,80,1,fivesix,,,,,,,,,,,,,,,,,,,,,,,,,,,,,,,,,,,,,,,,,,,,,,,,,,,,,,,,,,,,,,,,,,,,,,,,,,,,,,,,,,,,,,,,,,,,,,,,,,,,,,,,,,,,,,,,,,,,,,,,,,,,,,,,,,,,,,,,,
,,611086aa151462dc0ac8d02b,2024-02-22_05h34.32.920,kallum_motion_pilot,2023.2.2,Win32,59.88023952,611086aa151462dc0ac8d02b,65d6bb0e977760de756971f7,65d6be508923259cf31ece80,0.0998,0.0999,0,40,40,75,1,twofour,,,,,,,,,,,,,,,,,,,,,,,,,,,,,,,,,,,,,,,,,,,,,,,,,,,,,,,,,,,,,,,,,,,,,,,,,,,,,,,,,,,,,,,,,,,,,,,,,,,,,,,,,,,,,,,,,,,,,,,,,,,,,,,,,,,,,,,,,
,,611086aa151462dc0ac8d02b,2024-02-22_05h34.32.920,kallum_motion_pilot,2023.2.2,Win32,59.88023952,611086aa151462dc0ac8d02b,65d6bb0e977760de756971f7,65d6be508923259cf31ece80,0.1002,0.1003,0,41,41,53,1,threefour,,,,,,,,,,,,,,,,,,,,,,,,,,,,,,,,,,,,,,,,,,,,,,,,,,,,,,,,,,,,,,,,,,,,,,,,,,,,,,,,,,,,,,,,,,,,,,,,,,,,,,,,,,,,,,,,,,,,,,,,,,,,,,,,,,,,,,,,,
,,611086aa151462dc0ac8d02b,2024-02-22_05h34.32.920,kallum_motion_pilot,2023.2.2,Win32,59.88023952,611086aa151462dc0ac8d02b,65d6bb0e977760de756971f7,65d6be508923259cf31ece80,0.1006,0.1008,0,42,42,55,1,fourthree,,,,,,,,,,,,,,,,,,,,,,,,,,,,,,,,,,,,,,,,,,,,,,,,,,,,,,,,,,,,,,,,,,,,,,,,,,,,,,,,,,,,,,,,,,,,,,,,,,,,,,,,,,,,,,,,,,,,,,,,,,,,,,,,,,,,,,,,,
,,611086aa151462dc0ac8d02b,2024-02-22_05h34.32.920,kallum_motion_pilot,2023.2.2,Win32,59.88023952,611086aa151462dc0ac8d02b,65d6bb0e977760de756971f7,65d6be508923259cf31ece80,0.1011,0.1013,0,43,43,43,1,twofour,,,,,,,,,,,,,,,,,,,,,,,,,,,,,,,,,,,,,,,,,,,,,,,,,,,,,,,,,,,,,,,,,,,,,,,,,,,,,,,,,,,,,,,,,,,,,,,,,,,,,,,,,,,,,,,,,,,,,,,,,,,,,,,,,,,,,,,,,
,,611086aa151462dc0ac8d02b,2024-02-22_05h34.32.920,kallum_motion_pilot,2023.2.2,Win32,59.88023952,611086aa151462dc0ac8d02b,65d6bb0e977760de756971f7,65d6be508923259cf31ece80,0.1016,0.1017,0,44,44,93,1,seveneight,,,,,,,,,,,,,,,,,,,,,,,,,,,,,,,,,,,,,,,,,,,,,,,,,,,,,,,,,,,,,,,,,,,,,,,,,,,,,,,,,,,,,,,,,,,,,,,,,,,,,,,,,,,,,,,,,,,,,,,,,,,,,,,,,,,,,,,,,
,,611086aa151462dc0ac8d02b,2024-02-22_05h34.32.920,kallum_motion_pilot,2023.2.2,Win32,59.88023952,611086aa151462dc0ac8d02b,65d6bb0e977760de756971f7,65d6be508923259cf31ece80,0.102,0.1022,0,45,45,66,1,twoone,,,,,,,,,,,,,,,,,,,,,,,,,,,,,,,,,,,,,,,,,,,,,,,,,,,,,,,,,,,,,,,,,,,,,,,,,,,,,,,,,,,,,,,,,,,,,,,,,,,,,,,,,,,,,,,,,,,,,,,,,,,,,,,,,,,,,,,,,
,,611086aa151462dc0ac8d02b,2024-02-22_05h34.32.920,kallum_motion_pilot,2023.2.2,Win32,59.88023952,611086aa151462dc0ac8d02b,65d6bb0e977760de756971f7,65d6be508923259cf31ece80,0.1025,0.1027,0,46,46,117,1,seveneight,,,,,,,,,,,,,,,,,,,,,,,,,,,,,,,,,,,,,,,,,,,,,,,,,,,,,,,,,,,,,,,,,,,,,,,,,,,,,,,,,,,,,,,,,,,,,,,,,,,,,,,,,,,,,,,,,,,,,,,,,,,,,,,,,,,,,,,,,
,,611086aa151462dc0ac8d02b,2024-02-22_05h34.32.920,kallum_motion_pilot,2023.2.2,Win32,59.88023952,611086aa151462dc0ac8d02b,65d6bb0e977760de756971f7,65d6be508923259cf31ece80,0.103,0.1032,0,47,47,64,1,onetwo,,,,,,,,,,,,,,,,,,,,,,,,,,,,,,,,,,,,,,,,,,,,,,,,,,,,,,,,,,,,,,,,,,,,,,,,,,,,,,,,,,,,,,,,,,,,,,,,,,,,,,,,,,,,,,,,,,,,,,,,,,,,,,,,,,,,,,,,,
,,611086aa151462dc0ac8d02b,2024-02-22_05h34.32.920,kallum_motion_pilot,2023.2.2,Win32,59.88023952,611086aa151462dc0ac8d02b,65d6bb0e977760de756971f7,65d6be508923259cf31ece80,0.1035,0.1036,0,48,48,15,1,fourthree,,,,,,,,,,,,,,,,,,,,,,,,,,,,,,,,,,,,,,,,,,,,,,,,,,,,,,,,,,,,,,,,,,,,,,,,,,,,,,,,,,,,,,,,,,,,,,,,,,,,,,,,,,,,,,,,,,,,,,,,,,,,,,,,,,,,,,,,,
,,611086aa151462dc0ac8d02b,2024-02-22_05h34.32.920,kallum_motion_pilot,2023.2.2,Win32,59.88023952,611086aa151462dc0ac8d02b,65d6bb0e977760de756971f7,65d6be508923259cf31ece80,0.1039,0.1041,0,49,49,21,1,threefour,,,,,,,,,,,,,,,,,,,,,,,,,,,,,,,,,,,,,,,,,,,,,,,,,,,,,,,,,,,,,,,,,,,,,,,,,,,,,,,,,,,,,,,,,,,,,,,,,,,,,,,,,,,,,,,,,,,,,,,,,,,,,,,,,,,,,,,,,
,,611086aa151462dc0ac8d02b,2024-02-22_05h34.32.920,kallum_motion_pilot,2023.2.2,Win32,59.88023952,611086aa151462dc0ac8d02b,65d6bb0e977760de756971f7,65d6be508923259cf31ece80,0.1045,0.1046,0,50,50,85,1,seveneight,,,,,,,,,,,,,,,,,,,,,,,,,,,,,,,,,,,,,,,,,,,,,,,,,,,,,,,,,,,,,,,,,,,,,,,,,,,,,,,,,,,,,,,,,,,,,,,,,,,,,,,,,,,,,,,,,,,,,,,,,,,,,,,,,,,,,,,,,
,,611086aa151462dc0ac8d02b,2024-02-22_05h34.32.920,kallum_motion_pilot,2023.2.2,Win32,59.88023952,611086aa151462dc0ac8d02b,65d6bb0e977760de756971f7,65d6be508923259cf31ece80,0.1049,0.1051,0,51,51,149,1,seveneight,,,,,,,,,,,,,,,,,,,,,,,,,,,,,,,,,,,,,,,,,,,,,,,,,,,,,,,,,,,,,,,,,,,,,,,,,,,,,,,,,,,,,,,,,,,,,,,,,,,,,,,,,,,,,,,,,,,,,,,,,,,,,,,,,,,,,,,,,
,,611086aa151462dc0ac8d02b,2024-02-22_05h34.32.920,kallum_motion_pilot,2023.2.2,Win32,59.88023952,611086aa151462dc0ac8d02b,65d6bb0e977760de756971f7,65d6be508923259cf31ece80,0.1055,0.1056,0,52,52,48,1,onetwo,,,,,,,,,,,,,,,,,,,,,,,,,,,,,,,,,,,,,,,,,,,,,,,,,,,,,,,,,,,,,,,,,,,,,,,,,,,,,,,,,,,,,,,,,,,,,,,,,,,,,,,,,,,,,,,,,,,,,,,,,,,,,,,,,,,,,,,,,
,,611086aa151462dc0ac8d02b,2024-02-22_05h34.32.920,kallum_motion_pilot,2023.2.2,Win32,59.88023952,611086aa151462dc0ac8d02b,65d6bb0e977760de756971f7,65d6be508923259cf31ece80,0.106,0.1061,0,53,53,152,1,fivesix,,,,,,,,,,,,,,,,,,,,,,,,,,,,,,,,,,,,,,,,,,,,,,,,,,,,,,,,,,,,,,,,,,,,,,,,,,,,,,,,,,,,,,,,,,,,,,,,,,,,,,,,,,,,,,,,,,,,,,,,,,,,,,,,,,,,,,,,,
,,611086aa151462dc0ac8d02b,2024-02-22_05h34.32.920,kallum_motion_pilot,2023.2.2,Win32,59.88023952,611086aa151462dc0ac8d02b,65d6bb0e977760de756971f7,65d6be508923259cf31ece80,0.1064,0.1065,0,54,54,3,1,twofour,,,,,,,,,,,,,,,,,,,,,,,,,,,,,,,,,,,,,,,,,,,,,,,,,,,,,,,,,,,,,,,,,,,,,,,,,,,,,,,,,,,,,,,,,,,,,,,,,,,,,,,,,,,,,,,,,,,,,,,,,,,,,,,,,,,,,,,,,
,,611086aa151462dc0ac8d02b,2024-02-22_05h34.32.920,kallum_motion_pilot,2023.2.2,Win32,59.88023952,611086aa151462dc0ac8d02b,65d6bb0e977760de756971f7,65d6be508923259cf31ece80,0.1069,0.107,0,55,55,84,1,sevenfive,,,,,,,,,,,,,,,,,,,,,,,,,,,,,,,,,,,,,,,,,,,,,,,,,,,,,,,,,,,,,,,,,,,,,,,,,,,,,,,,,,,,,,,,,,,,,,,,,,,,,,,,,,,,,,,,,,,,,,,,,,,,,,,,,,,,,,,,,
,,611086aa151462dc0ac8d02b,2024-02-22_05h34.32.920,kallum_motion_pilot,2023.2.2,Win32,59.88023952,611086aa151462dc0ac8d02b,65d6bb0e977760de756971f7,65d6be508923259cf31ece80,0.1073,0.1075,0,56,56,13,1,threefour,,,,,,,,,,,,,,,,,,,,,,,,,,,,,,,,,,,,,,,,,,,,,,,,,,,,,,,,,,,,,,,,,,,,,,,,,,,,,,,,,,,,,,,,,,,,,,,,,,,,,,,,,,,,,,,,,,,,,,,,,,,,,,,,,,,,,,,,,
,,611086aa151462dc0ac8d02b,2024-02-22_05h34.32.920,kallum_motion_pilot,2023.2.2,Win32,59.88023952,611086aa151462dc0ac8d02b,65d6bb0e977760de756971f7,65d6be508923259cf31ece80,0.1077,0.1079,0,57,57,34,1,twoone,,,,,,,,,,,,,,,,,,,,,,,,,,,,,,,,,,,,,,,,,,,,,,,,,,,,,,,,,,,,,,,,,,,,,,,,,,,,,,,,,,,,,,,,,,,,,,,,,,,,,,,,,,,,,,,,,,,,,,,,,,,,,,,,,,,,,,,,,
,,611086aa151462dc0ac8d02b,2024-02-22_05h34.32.920,kallum_motion_pilot,2023.2.2,Win32,59.88023952,611086aa151462dc0ac8d02b,65d6bb0e977760de756971f7,65d6be508923259cf31ece80,0.1083,0.1085,0,58,58,101,1,seveneight,,,,,,,,,,,,,,,,,,,,,,,,,,,,,,,,,,,,,,,,,,,,,,,,,,,,,,,,,,,,,,,,,,,,,,,,,,,,,,,,,,,,,,,,,,,,,,,,,,,,,,,,,,,,,,,,,,,,,,,,,,,,,,,,,,,,,,,,,
,,611086aa151462dc0ac8d02b,2024-02-22_05h34.32.920,kallum_motion_pilot,2023.2.2,Win32,59.88023952,611086aa151462dc0ac8d02b,65d6bb0e977760de756971f7,65d6be508923259cf31ece80,0.1089,0.1091,0,59,59,86,1,eightsix,,,,,,,,,,,,,,,,,,,,,,,,,,,,,,,,,,,,,,,,,,,,,,,,,,,,,,,,,,,,,,,,,,,,,,,,,,,,,,,,,,,,,,,,,,,,,,,,,,,,,,,,,,,,,,,,,,,,,,,,,,,,,,,,,,,,,,,,,
,,611086aa151462dc0ac8d02b,2024-02-22_05h34.32.920,kallum_motion_pilot,2023.2.2,Win32,59.88023952,611086aa151462dc0ac8d02b,65d6bb0e977760de756971f7,65d6be508923259cf31ece80,0.1094,0.1096,0,60,60,78,1,fourtwo,,,,,,,,,,,,,,,,,,,,,,,,,,,,,,,,,,,,,,,,,,,,,,,,,,,,,,,,,,,,,,,,,,,,,,,,,,,,,,,,,,,,,,,,,,,,,,,,,,,,,,,,,,,,,,,,,,,,,,,,,,,,,,,,,,,,,,,,,
,,611086aa151462dc0ac8d02b,2024-02-22_05h34.32.920,kallum_motion_pilot,2023.2.2,Win32,59.88023952,611086aa151462dc0ac8d02b,65d6bb0e977760de756971f7,65d6be508923259cf31ece80,0.11,0.1103,0,61,61,107,1,sixeight,,,,,,,,,,,,,,,,,,,,,,,,,,,,,,,,,,,,,,,,,,,,,,,,,,,,,,,,,,,,,,,,,,,,,,,,,,,,,,,,,,,,,,,,,,,,,,,,,,,,,,,,,,,,,,,,,,,,,,,,,,,,,,,,,,,,,,,,,
,,611086aa151462dc0ac8d02b,2024-02-22_05h34.32.920,kallum_motion_pilot,2023.2.2,Win32,59.88023952,611086aa151462dc0ac8d02b,65d6bb0e977760de756971f7,65d6be508923259cf31ece80,0.1105,0.1106,0,62,62,0,1,onetwo,,,,,,,,,,,,,,,,,,,,,,,,,,,,,,,,,,,,,,,,,,,,,,,,,,,,,,,,,,,,,,,,,,,,,,,,,,,,,,,,,,,,,,,,,,,,,,,,,,,,,,,,,,,,,,,,,,,,,,,,,,,,,,,,,,,,,,,,,
,,611086aa151462dc0ac8d02b,2024-02-22_05h34.32.920,kallum_motion_pilot,2023.2.2,Win32,59.88023952,611086aa151462dc0ac8d02b,65d6bb0e977760de756971f7,65d6be508923259cf31ece80,0.1109,0.111,0,63,63,40,1,onetwo,,,,,,,,,,,,,,,,,,,,,,,,,,,,,,,,,,,,,,,,,,,,,,,,,,,,,,,,,,,,,,,,,,,,,,,,,,,,,,,,,,,,,,,,,,,,,,,,,,,,,,,,,,,,,,,,,,,,,,,,,,,,,,,,,,,,,,,,,
,,611086aa151462dc0ac8d02b,2024-02-22_05h34.32.920,kallum_motion_pilot,2023.2.2,Win32,59.88023952,611086aa151462dc0ac8d02b,65d6bb0e977760de756971f7,65d6be508923259cf31ece80,0.1113,0.1114,0,64,64,76,1,threeone,,,,,,,,,,,,,,,,,,,,,,,,,,,,,,,,,,,,,,,,,,,,,,,,,,,,,,,,,,,,,,,,,,,,,,,,,,,,,,,,,,,,,,,,,,,,,,,,,,,,,,,,,,,,,,,,,,,,,,,,,,,,,,,,,,,,,,,,,
,,611086aa151462dc0ac8d02b,2024-02-22_05h34.32.920,kallum_motion_pilot,2023.2.2,Win32,59.88023952,611086aa151462dc0ac8d02b,65d6bb0e977760de756971f7,65d6be508923259cf31ece80,0.1117,0.1117,0,65,65,126,1,eightsix,,,,,,,,,,,,,,,,,,,,,,,,,,,,,,,,,,,,,,,,,,,,,,,,,,,,,,,,,,,,,,,,,,,,,,,,,,,,,,,,,,,,,,,,,,,,,,,,,,,,,,,,,,,,,,,,,,,,,,,,,,,,,,,,,,,,,,,,,
,,611086aa151462dc0ac8d02b,2024-02-22_05h34.32.920,kallum_motion_pilot,2023.2.2,Win32,59.88023952,611086aa151462dc0ac8d02b,65d6bb0e977760de756971f7,65d6be508923259cf31ece80,0.1119,0.112,0,66,66,42,1,twoone,,,,,,,,,,,,,,,,,,,,,,,,,,,,,,,,,,,,,,,,,,,,,,,,,,,,,,,,,,,,,,,,,,,,,,,,,,,,,,,,,,,,,,,,,,,,,,,,,,,,,,,,,,,,,,,,,,,,,,,,,,,,,,,,,,,,,,,,,
,,611086aa151462dc0ac8d02b,2024-02-22_05h34.32.920,kallum_motion_pilot,2023.2.2,Win32,59.88023952,611086aa151462dc0ac8d02b,65d6bb0e977760de756971f7,65d6be508923259cf31ece80,0.1123,0.1125,0,67,67,140,1,sevenfive,,,,,,,,,,,,,,,,,,,,,,,,,,,,,,,,,,,,,,,,,,,,,,,,,,,,,,,,,,,,,,,,,,,,,,,,,,,,,,,,,,,,,,,,,,,,,,,,,,,,,,,,,,,,,,,,,,,,,,,,,,,,,,,,,,,,,,,,,
,,611086aa151462dc0ac8d02b,2024-02-22_05h34.32.920,kallum_motion_pilot,2023.2.2,Win32,59.88023952,611086aa151462dc0ac8d02b,65d6bb0e977760de756971f7,65d6be508923259cf31ece80,0.1127,0.1128,0,68,68,63,1,fourthree,,,,,,,,,,,,,,,,,,,,,,,,,,,,,,,,,,,,,,,,,,,,,,,,,,,,,,,,,,,,,,,,,,,,,,,,,,,,,,,,,,,,,,,,,,,,,,,,,,,,,,,,,,,,,,,,,,,,,,,,,,,,,,,,,,,,,,,,,
,,611086aa151462dc0ac8d02b,2024-02-22_05h34.32.920,kallum_motion_pilot,2023.2.2,Win32,59.88023952,611086aa151462dc0ac8d02b,65d6bb0e977760de756971f7,65d6be508923259cf31ece80,0.113,0.1131,0,69,69,95,1,eightseven,,,,,,,,,,,,,,,,,,,,,,,,,,,,,,,,,,,,,,,,,,,,,,,,,,,,,,,,,,,,,,,,,,,,,,,,,,,,,,,,,,,,,,,,,,,,,,,,,,,,,,,,,,,,,,,,,,,,,,,,,,,,,,,,,,,,,,,,,
,,611086aa151462dc0ac8d02b,2024-02-22_05h34.32.920,kallum_motion_pilot,2023.2.2,Win32,59.88023952,611086aa151462dc0ac8d02b,65d6bb0e977760de756971f7,65d6be508923259cf31ece80,0.1133,0.1134,0,70,70,17,1,onethree,,,,,,,,,,,,,,,,,,,,,,,,,,,,,,,,,,,,,,,,,,,,,,,,,,,,,,,,,,,,,,,,,,,,,,,,,,,,,,,,,,,,,,,,,,,,,,,,,,,,,,,,,,,,,,,,,,,,,,,,,,,,,,,,,,,,,,,,,
,,611086aa151462dc0ac8d02b,2024-02-22_05h34.32.920,kallum_motion_pilot,2023.2.2,Win32,59.88023952,611086aa151462dc0ac8d02b,65d6bb0e977760de756971f7,65d6be508923259cf31ece80,0.1136,0.1137,0,71,71,148,1,sevenfive,,,,,,,,,,,,,,,,,,,,,,,,,,,,,,,,,,,,,,,,,,,,,,,,,,,,,,,,,,,,,,,,,,,,,,,,,,,,,,,,,,,,,,,,,,,,,,,,,,,,,,,,,,,,,,,,,,,,,,,,,,,,,,,,,,,,,,,,,
,,611086aa151462dc0ac8d02b,2024-02-22_05h34.32.920,kallum_motion_pilot,2023.2.2,Win32,59.88023952,611086aa151462dc0ac8d02b,65d6bb0e977760de756971f7,65d6be508923259cf31ece80,0.1139,0.114,0,72,72,52,1,threeone,,,,,,,,,,,,,,,,,,,,,,,,,,,,,,,,,,,,,,,,,,,,,,,,,,,,,,,,,,,,,,,,,,,,,,,,,,,,,,,,,,,,,,,,,,,,,,,,,,,,,,,,,,,,,,,,,,,,,,,,,,,,,,,,,,,,,,,,,
,,611086aa151462dc0ac8d02b,2024-02-22_05h34.32.920,kallum_motion_pilot,2023.2.2,Win32,59.88023952,611086aa151462dc0ac8d02b,65d6bb0e977760de756971f7,65d6be508923259cf31ece80,0.1146,0.1146,0,73,73,133,1,seveneight,,,,,,,,,,,,,,,,,,,,,,,,,,,,,,,,,,,,,,,,,,,,,,,,,,,,,,,,,,,,,,,,,,,,,,,,,,,,,,,,,,,,,,,,,,,,,,,,,,,,,,,,,,,,,,,,,,,,,,,,,,,,,,,,,,,,,,,,,
,,611086aa151462dc0ac8d02b,2024-02-22_05h34.32.920,kallum_motion_pilot,2023.2.2,Win32,59.88023952,611086aa151462dc0ac8d02b,65d6bb0e977760de756971f7,65d6be508923259cf31ece80,0.1149,0.115,0,74,74,47,1,fourthree,,,,,,,,,,,,,,,,,,,,,,,,,,,,,,,,,,,,,,,,,,,,,,,,,,,,,,,,,,,,,,,,,,,,,,,,,,,,,,,,,,,,,,,,,,,,,,,,,,,,,,,,,,,,,,,,,,,,,,,,,,,,,,,,,,,,,,,,,
,,611086aa151462dc0ac8d02b,2024-02-22_05h34.32.920,kallum_motion_pilot,2023.2.2,Win32,59.88023952,611086aa151462dc0ac8d02b,65d6bb0e977760de756971f7,65d6be508923259cf31ece80,0.1152,0.1153,0,75,75,11,1,twofour,,,,,,,,,,,,,,,,,,,,,,,,,,,,,,,,,,,,,,,,,,,,,,,,,,,,,,,,,,,,,,,,,,,,,,,,,,,,,,,,,,,,,,,,,,,,,,,,,,,,,,,,,,,,,,,,,,,,,,,,,,,,,,,,,,,,,,,,,
,,611086aa151462dc0ac8d02b,2024-02-22_05h34.32.920,kallum_motion_pilot,2023.2.2,Win32,59.88023952,611086aa151462dc0ac8d02b,65d6bb0e977760de756971f7,65d6be508923259cf31ece80,0.1156,0.1159,0,76,76,96,1,fivesix,,,,,,,,,,,,,,,,,,,,,,,,,,,,,,,,,,,,,,,,,,,,,,,,,,,,,,,,,,,,,,,,,,,,,,,,,,,,,,,,,,,,,,,,,,,,,,,,,,,,,,,,,,,,,,,,,,,,,,,,,,,,,,,,,,,,,,,,,
,,611086aa151462dc0ac8d02b,2024-02-22_05h34.32.920,kallum_motion_pilot,2023.2.2,Win32,59.88023952,611086aa151462dc0ac8d02b,65d6bb0e977760de756971f7,65d6be508923259cf31ece80,0.1162,0.1163,0,77,77,71,1,fourthree,,,,,,,,,,,,,,,,,,,,,,,,,,,,,,,,,,,,,,,,,,,,,,,,,,,,,,,,,,,,,,,,,,,,,,,,,,,,,,,,,,,,,,,,,,,,,,,,,,,,,,,,,,,,,,,,,,,,,,,,,,,,,,,,,,,,,,,,,
,,611086aa151462dc0ac8d02b,2024-02-22_05h34.32.920,kallum_motion_pilot,2023.2.2,Win32,59.88023952,611086aa151462dc0ac8d02b,65d6bb0e977760de756971f7,65d6be508923259cf31ece80,0.1165,0.1166,0,78,78,23,1,fourthree,,,,,,,,,,,,,,,,,,,,,,,,,,,,,,,,,,,,,,,,,,,,,,,,,,,,,,,,,,,,,,,,,,,,,,,,,,,,,,,,,,,,,,,,,,,,,,,,,,,,,,,,,,,,,,,,,,,,,,,,,,,,,,,,,,,,,,,,,
,,611086aa151462dc0ac8d02b,2024-02-22_05h34.32.920,kallum_motion_pilot,2023.2.2,Win32,59.88023952,611086aa151462dc0ac8d02b,65d6bb0e977760de756971f7,65d6be508923259cf31ece80,0.1168,0.1169,0,79,79,123,1,sixeight,,,,,,,,,,,,,,,,,,,,,,,,,,,,,,,,,,,,,,,,,,,,,,,,,,,,,,,,,,,,,,,,,,,,,,,,,,,,,,,,,,,,,,,,,,,,,,,,,,,,,,,,,,,,,,,,,,,,,,,,,,,,,,,,,,,,,,,,,
,,611086aa151462dc0ac8d02b,2024-02-22_05h34.32.920,kallum_motion_pilot,2023.2.2,Win32,59.88023952,611086aa151462dc0ac8d02b,65d6bb0e977760de756971f7,65d6be508923259cf31ece80,0.1171,0.1172,0,80,80,161,1,fiveseven,,,,,,,,,,,,,,,,,,,,,,,,,,,,,,,,,,,,,,,,,,,,,,,,,,,,,,,,,,,,,,,,,,,,,,,,,,,,,,,,,,,,,,,,,,,,,,,,,,,,,,,,,,,,,,,,,,,,,,,,,,,,,,,,,,,,,,,,,
,,611086aa151462dc0ac8d02b,2024-02-22_05h34.32.920,kallum_motion_pilot,2023.2.2,Win32,59.88023952,611086aa151462dc0ac8d02b,65d6bb0e977760de756971f7,65d6be508923259cf31ece80,0.1174,0.1175,0,81,81,127,1,eightseven,,,,,,,,,,,,,,,,,,,,,,,,,,,,,,,,,,,,,,,,,,,,,,,,,,,,,,,,,,,,,,,,,,,,,,,,,,,,,,,,,,,,,,,,,,,,,,,,,,,,,,,,,,,,,,,,,,,,,,,,,,,,,,,,,,,,,,,,,
,,611086aa151462dc0ac8d02b,2024-02-22_05h34.32.920,kallum_motion_pilot,2023.2.2,Win32,59.88023952,611086aa151462dc0ac8d02b,65d6bb0e977760de756971f7,65d6be508923259cf31ece80,0.1177,0.1179,0,82,82,37,1,threefour,,,,,,,,,,,,,,,,,,,,,,,,,,,,,,,,,,,,,,,,,,,,,,,,,,,,,,,,,,,,,,,,,,,,,,,,,,,,,,,,,,,,,,,,,,,,,,,,,,,,,,,,,,,,,,,,,,,,,,,,,,,,,,,,,,,,,,,,,
,,611086aa151462dc0ac8d02b,2024-02-22_05h34.32.920,kallum_motion_pilot,2023.2.2,Win32,59.88023952,611086aa151462dc0ac8d02b,65d6bb0e977760de756971f7,65d6be508923259cf31ece80,0.1182,0.1183,0,83,83,10,1,twoone,,,,,,,,,,,,,,,,,,,,,,,,,,,,,,,,,,,,,,,,,,,,,,,,,,,,,,,,,,,,,,,,,,,,,,,,,,,,,,,,,,,,,,,,,,,,,,,,,,,,,,,,,,,,,,,,,,,,,,,,,,,,,,,,,,,,,,,,,
,,611086aa151462dc0ac8d02b,2024-02-22_05h34.32.920,kallum_motion_pilot,2023.2.2,Win32,59.88023952,611086aa151462dc0ac8d02b,65d6bb0e977760de756971f7,65d6be508923259cf31ece80,0.1186,0.1189,0,84,84,57,1,onethree,,,,,,,,,,,,,,,,,,,,,,,,,,,,,,,,,,,,,,,,,,,,,,,,,,,,,,,,,,,,,,,,,,,,,,,,,,,,,,,,,,,,,,,,,,,,,,,,,,,,,,,,,,,,,,,,,,,,,,,,,,,,,,,,,,,,,,,,,
,,611086aa151462dc0ac8d02b,2024-02-22_05h34.32.920,kallum_motion_pilot,2023.2.2,Win32,59.88023952,611086aa151462dc0ac8d02b,65d6bb0e977760de756971f7,65d6be508923259cf31ece80,0.1191,0.1193,0,85,85,94,1,eightsix,,,,,,,,,,,,,,,,,,,,,,,,,,,,,,,,,,,,,,,,,,,,,,,,,,,,,,,,,,,,,,,,,,,,,,,,,,,,,,,,,,,,,,,,,,,,,,,,,,,,,,,,,,,,,,,,,,,,,,,,,,,,,,,,,,,,,,,,,
,,611086aa151462dc0ac8d02b,2024-02-22_05h34.32.920,kallum_motion_pilot,2023.2.2,Win32,59.88023952,611086aa151462dc0ac8d02b,65d6bb0e977760de756971f7,65d6be508923259cf31ece80,0.1221,0.1221,0,86,86,38,1,fourtwo,,,,,,,,,,,,,,,,,,,,,,,,,,,,,,,,,,,,,,,,,,,,,,,,,,,,,,,,,,,,,,,,,,,,,,,,,,,,,,,,,,,,,,,,,,,,,,,,,,,,,,,,,,,,,,,,,,,,,,,,,,,,,,,,,,,,,,,,,
,,611086aa151462dc0ac8d02b,2024-02-22_05h34.32.920,kallum_motion_pilot,2023.2.2,Win32,59.88023952,611086aa151462dc0ac8d02b,65d6bb0e977760de756971f7,65d6be508923259cf31ece80,0.1224,0.1225,0,87,87,92,1,sevenfive,,,,,,,,,,,,,,,,,,,,,,,,,,,,,,,,,,,,,,,,,,,,,,,,,,,,,,,,,,,,,,,,,,,,,,,,,,,,,,,,,,,,,,,,,,,,,,,,,,,,,,,,,,,,,,,,,,,,,,,,,,,,,,,,,,,,,,,,,
,,611086aa151462dc0ac8d02b,2024-02-22_05h34.32.920,kallum_motion_pilot,2023.2.2,Win32,59.88023952,611086aa151462dc0ac8d02b,65d6bb0e977760de756971f7,65d6be508923259cf31ece80,0.1228,0.1229,0,88,88,28,1,threeone,,,,,,,,,,,,,,,,,,,,,,,,,,,,,,,,,,,,,,,,,,,,,,,,,,,,,,,,,,,,,,,,,,,,,,,,,,,,,,,,,,,,,,,,,,,,,,,,,,,,,,,,,,,,,,,,,,,,,,,,,,,,,,,,,,,,,,,,,
,,611086aa151462dc0ac8d02b,2024-02-22_05h34.32.920,kallum_motion_pilot,2023.2.2,Win32,59.88023952,611086aa151462dc0ac8d02b,65d6bb0e977760de756971f7,65d6be508923259cf31ece80,0.1231,0.1232,0,89,89,121,1,fiveseven,,,,,,,,,,,,,,,,,,,,,,,,,,,,,,,,,,,,,,,,,,,,,,,,,,,,,,,,,,,,,,,,,,,,,,,,,,,,,,,,,,,,,,,,,,,,,,,,,,,,,,,,,,,,,,,,,,,,,,,,,,,,,,,,,,,,,,,,,
,,611086aa151462dc0ac8d02b,2024-02-22_05h34.32.920,kallum_motion_pilot,2023.2.2,Win32,59.88023952,611086aa151462dc0ac8d02b,65d6bb0e977760de756971f7,65d6be508923259cf31ece80,0.1233,0.1235,0,90,90,143,1,eightseven,,,,,,,,,,,,,,,,,,,,,,,,,,,,,,,,,,,,,,,,,,,,,,,,,,,,,,,,,,,,,,,,,,,,,,,,,,,,,,,,,,,,,,,,,,,,,,,,,,,,,,,,,,,,,,,,,,,,,,,,,,,,,,,,,,,,,,,,,
,,611086aa151462dc0ac8d02b,2024-02-22_05h34.32.920,kallum_motion_pilot,2023.2.2,Win32,59.88023952,611086aa151462dc0ac8d02b,65d6bb0e977760de756971f7,65d6be508923259cf31ece80,0.1237,0.1237,0,91,91,137,1,fiveseven,,,,,,,,,,,,,,,,,,,,,,,,,,,,,,,,,,,,,,,,,,,,,,,,,,,,,,,,,,,,,,,,,,,,,,,,,,,,,,,,,,,,,,,,,,,,,,,,,,,,,,,,,,,,,,,,,,,,,,,,,,,,,,,,,,,,,,,,,
,,611086aa151462dc0ac8d02b,2024-02-22_05h34.32.920,kallum_motion_pilot,2023.2.2,Win32,59.88023952,611086aa151462dc0ac8d02b,65d6bb0e977760de756971f7,65d6be508923259cf31ece80,0.1239,0.124,0,92,92,45,1,threefour,,,,,,,,,,,,,,,,,,,,,,,,,,,,,,,,,,,,,,,,,,,,,,,,,,,,,,,,,,,,,,,,,,,,,,,,,,,,,,,,,,,,,,,,,,,,,,,,,,,,,,,,,,,,,,,,,,,,,,,,,,,,,,,,,,,,,,,,,
,,611086aa151462dc0ac8d02b,2024-02-22_05h34.32.920,kallum_motion_pilot,2023.2.2,Win32,59.88023952,611086aa151462dc0ac8d02b,65d6bb0e977760de756971f7,65d6be508923259cf31ece80,0.1242,0.1243,0,93,93,62,1,fourtwo,,,,,,,,,,,,,,,,,,,,,,,,,,,,,,,,,,,,,,,,,,,,,,,,,,,,,,,,,,,,,,,,,,,,,,,,,,,,,,,,,,,,,,,,,,,,,,,,,,,,,,,,,,,,,,,,,,,,,,,,,,,,,,,,,,,,,,,,,
,,611086aa151462dc0ac8d02b,2024-02-22_05h34.32.920,kallum_motion_pilot,2023.2.2,Win32,59.88023952,611086aa151462dc0ac8d02b,65d6bb0e977760de756971f7,65d6be508923259cf31ece80,0.1245,0.1246,0,94,94,151,1,eightseven,,,,,,,,,,,,,,,,,,,,,,,,,,,,,,,,,,,,,,,,,,,,,,,,,,,,,,,,,,,,,,,,,,,,,,,,,,,,,,,,,,,,,,,,,,,,,,,,,,,,,,,,,,,,,,,,,,,,,,,,,,,,,,,,,,,,,,,,,
,,611086aa151462dc0ac8d02b,2024-02-22_05h34.32.920,kallum_motion_pilot,2023.2.2,Win32,59.88023952,611086aa151462dc0ac8d02b,65d6bb0e977760de756971f7,65d6be508923259cf31ece80,0.1248,0.1249,0,95,95,46,1,fourtwo,,,,,,,,,,,,,,,,,,,,,,,,,,,,,,,,,,,,,,,,,,,,,,,,,,,,,,,,,,,,,,,,,,,,,,,,,,,,,,,,,,,,,,,,,,,,,,,,,,,,,,,,,,,,,,,,,,,,,,,,,,,,,,,,,,,,,,,,,
,,611086aa151462dc0ac8d02b,2024-02-22_05h34.32.920,kallum_motion_pilot,2023.2.2,Win32,59.88023952,611086aa151462dc0ac8d02b,65d6bb0e977760de756971f7,65d6be508923259cf31ece80,0.1251,0.1252,0,96,96,82,1,sixfive,,,,,,,,,,,,,,,,,,,,,,,,,,,,,,,,,,,,,,,,,,,,,,,,,,,,,,,,,,,,,,,,,,,,,,,,,,,,,,,,,,,,,,,,,,,,,,,,,,,,,,,,,,,,,,,,,,,,,,,,,,,,,,,,,,,,,,,,,
,,611086aa151462dc0ac8d02b,2024-02-22_05h34.32.920,kallum_motion_pilot,2023.2.2,Win32,59.88023952,611086aa151462dc0ac8d02b,65d6bb0e977760de756971f7,65d6be508923259cf31ece80,0.1253,0.1255,0,97,97,87,1,eightseven,,,,,,,,,,,,,,,,,,,,,,,,,,,,,,,,,,,,,,,,,,,,,,,,,,,,,,,,,,,,,,,,,,,,,,,,,,,,,,,,,,,,,,,,,,,,,,,,,,,,,,,,,,,,,,,,,,,,,,,,,,,,,,,,,,,,,,,,,
,,611086aa151462dc0ac8d02b,2024-02-22_05h34.32.920,kallum_motion_pilot,2023.2.2,Win32,59.88023952,611086aa151462dc0ac8d02b,65d6bb0e977760de756971f7,65d6be508923259cf31ece80,0.1257,0.1258,0,98,98,31,1,fourthree,,,,,,,,,,,,,,,,,,,,,,,,,,,,,,,,,,,,,,,,,,,,,,,,,,,,,,,,,,,,,,,,,,,,,,,,,,,,,,,,,,,,,,,,,,,,,,,,,,,,,,,,,,,,,,,,,,,,,,,,,,,,,,,,,,,,,,,,,
,,611086aa151462dc0ac8d02b,2024-02-22_05h34.32.920,kallum_motion_pilot,2023.2.2,Win32,59.88023952,611086aa151462dc0ac8d02b,65d6bb0e977760de756971f7,65d6be508923259cf31ece80,0.1259,0.1262,0,99,99,105,1,fiveseven,,,,,,,,,,,,,,,,,,,,,,,,,,,,,,,,,,,,,,,,,,,,,,,,,,,,,,,,,,,,,,,,,,,,,,,,,,,,,,,,,,,,,,,,,,,,,,,,,,,,,,,,,,,,,,,,,,,,,,,,,,,,,,,,,,,,,,,,,
,,611086aa151462dc0ac8d02b,2024-02-22_05h34.32.920,kallum_motion_pilot,2023.2.2,Win32,59.88023952,611086aa151462dc0ac8d02b,65d6bb0e977760de756971f7,65d6be508923259cf31ece80,0.1264,0.1264,0,100,100,7,1,fourthree,,,,,,,,,,,,,,,,,,,,,,,,,,,,,,,,,,,,,,,,,,,,,,,,,,,,,,,,,,,,,,,,,,,,,,,,,,,,,,,,,,,,,,,,,,,,,,,,,,,,,,,,,,,,,,,,,,,,,,,,,,,,,,,,,,,,,,,,,
,,611086aa151462dc0ac8d02b,2024-02-22_05h34.32.920,kallum_motion_pilot,2023.2.2,Win32,59.88023952,611086aa151462dc0ac8d02b,65d6bb0e977760de756971f7,65d6be508923259cf31ece80,0.1266,0.1268,0,101,101,4,1,threeone,,,,,,,,,,,,,,,,,,,,,,,,,,,,,,,,,,,,,,,,,,,,,,,,,,,,,,,,,,,,,,,,,,,,,,,,,,,,,,,,,,,,,,,,,,,,,,,,,,,,,,,,,,,,,,,,,,,,,,,,,,,,,,,,,,,,,,,,,
,,611086aa151462dc0ac8d02b,2024-02-22_05h34.32.920,kallum_motion_pilot,2023.2.2,Win32,59.88023952,611086aa151462dc0ac8d02b,65d6bb0e977760de756971f7,65d6be508923259cf31ece80,0.1269,0.127,0,102,102,77,1,threefour,,,,,,,,,,,,,,,,,,,,,,,,,,,,,,,,,,,,,,,,,,,,,,,,,,,,,,,,,,,,,,,,,,,,,,,,,,,,,,,,,,,,,,,,,,,,,,,,,,,,,,,,,,,,,,,,,,,,,,,,,,,,,,,,,,,,,,,,,
,,611086aa151462dc0ac8d02b,2024-02-22_05h34.32.920,kallum_motion_pilot,2023.2.2,Win32,59.88023952,611086aa151462dc0ac8d02b,65d6bb0e977760de756971f7,65d6be508923259cf31ece80,0.1273,0.1273,0,103,103,29,1,threefour,,,,,,,,,,,,,,,,,,,,,,,,,,,,,,,,,,,,,,,,,,,,,,,,,,,,,,,,,,,,,,,,,,,,,,,,,,,,,,,,,,,,,,,,,,,,,,,,,,,,,,,,,,,,,,,,,,,,,,,,,,,,,,,,,,,,,,,,,
,,611086aa151462dc0ac8d02b,2024-02-22_05h34.32.920,kallum_motion_pilot,2023.2.2,Win32,59.88023952,611086aa151462dc0ac8d02b,65d6bb0e977760de756971f7,65d6be508923259cf31ece80,0.1275,0.1276,0,104,104,65,1,onethree,,,,,,,,,,,,,,,,,,,,,,,,,,,,,,,,,,,,,,,,,,,,,,,,,,,,,,,,,,,,,,,,,,,,,,,,,,,,,,,,,,,,,,,,,,,,,,,,,,,,,,,,,,,,,,,,,,,,,,,,,,,,,,,,,,,,,,,,,
,,611086aa151462dc0ac8d02b,2024-02-22_05h34.32.920,kallum_motion_pilot,2023.2.2,Win32,59.88023952,611086aa151462dc0ac8d02b,65d6bb0e977760de756971f7,65d6be508923259cf31ece80,0.1279,0.1279,0,105,105,39,1,fourthree,,,,,,,,,,,,,,,,,,,,,,,,,,,,,,,,,,,,,,,,,,,,,,,,,,,,,,,,,,,,,,,,,,,,,,,,,,,,,,,,,,,,,,,,,,,,,,,,,,,,,,,,,,,,,,,,,,,,,,,,,,,,,,,,,,,,,,,,,
,,611086aa151462dc0ac8d02b,2024-02-22_05h34.32.920,kallum_motion_pilot,2023.2.2,Win32,59.88023952,611086aa151462dc0ac8d02b,65d6bb0e977760de756971f7,65d6be508923259cf31ece80,0.1282,0.1283,0,106,106,142,1,eightsix,,,,,,,,,,,,,,,,,,,,,,,,,,,,,,,,,,,,,,,,,,,,,,,,,,,,,,,,,,,,,,,,,,,,,,,,,,,,,,,,,,,,,,,,,,,,,,,,,,,,,,,,,,,,,,,,,,,,,,,,,,,,,,,,,,,,,,,,,
,,611086aa151462dc0ac8d02b,2024-02-22_05h34.32.920,kallum_motion_pilot,2023.2.2,Win32,59.88023952,611086aa151462dc0ac8d02b,65d6bb0e977760de756971f7,65d6be508923259cf31ece80,0.1289,0.1291,0,107,107,150,1,eightsix,,,,,,,,,,,,,,,,,,,,,,,,,,,,,,,,,,,,,,,,,,,,,,,,,,,,,,,,,,,,,,,,,,,,,,,,,,,,,,,,,,,,,,,,,,,,,,,,,,,,,,,,,,,,,,,,,,,,,,,,,,,,,,,,,,,,,,,,,
,,611086aa151462dc0ac8d02b,2024-02-22_05h34.32.920,kallum_motion_pilot,2023.2.2,Win32,59.88023952,611086aa151462dc0ac8d02b,65d6bb0e977760de756971f7,65d6be508923259cf31ece80,0.1293,0.1294,0,108,108,88,1,fivesix,,,,,,,,,,,,,,,,,,,,,,,,,,,,,,,,,,,,,,,,,,,,,,,,,,,,,,,,,,,,,,,,,,,,,,,,,,,,,,,,,,,,,,,,,,,,,,,,,,,,,,,,,,,,,,,,,,,,,,,,,,,,,,,,,,,,,,,,,
,,611086aa151462dc0ac8d02b,2024-02-22_05h34.32.920,kallum_motion_pilot,2023.2.2,Win32,59.88023952,611086aa151462dc0ac8d02b,65d6bb0e977760de756971f7,65d6be508923259cf31ece80,0.1296,0.1297,0,109,109,147,1,sixeight,,,,,,,,,,,,,,,,,,,,,,,,,,,,,,,,,,,,,,,,,,,,,,,,,,,,,,,,,,,,,,,,,,,,,,,,,,,,,,,,,,,,,,,,,,,,,,,,,,,,,,,,,,,,,,,,,,,,,,,,,,,,,,,,,,,,,,,,,
,,611086aa151462dc0ac8d02b,2024-02-22_05h34.32.920,kallum_motion_pilot,2023.2.2,Win32,59.88023952,611086aa151462dc0ac8d02b,65d6bb0e977760de756971f7,65d6be508923259cf31ece80,0.1299,0.1301,0,110,110,112,1,fivesix,,,,,,,,,,,,,,,,,,,,,,,,,,,,,,,,,,,,,,,,,,,,,,,,,,,,,,,,,,,,,,,,,,,,,,,,,,,,,,,,,,,,,,,,,,,,,,,,,,,,,,,,,,,,,,,,,,,,,,,,,,,,,,,,,,,,,,,,,
,,611086aa151462dc0ac8d02b,2024-02-22_05h34.32.920,kallum_motion_pilot,2023.2.2,Win32,59.88023952,611086aa151462dc0ac8d02b,65d6bb0e977760de756971f7,65d6be508923259cf31ece80,0.1302,0.1304,0,111,111,5,1,threefour,,,,,,,,,,,,,,,,,,,,,,,,,,,,,,,,,,,,,,,,,,,,,,,,,,,,,,,,,,,,,,,,,,,,,,,,,,,,,,,,,,,,,,,,,,,,,,,,,,,,,,,,,,,,,,,,,,,,,,,,,,,,,,,,,,,,,,,,,
,,611086aa151462dc0ac8d02b,2024-02-22_05h34.32.920,kallum_motion_pilot,2023.2.2,Win32,59.88023952,611086aa151462dc0ac8d02b,65d6bb0e977760de756971f7,65d6be508923259cf31ece80,0.1305,0.1306,0,112,112,110,1,eightsix,,,,,,,,,,,,,,,,,,,,,,,,,,,,,,,,,,,,,,,,,,,,,,,,,,,,,,,,,,,,,,,,,,,,,,,,,,,,,,,,,,,,,,,,,,,,,,,,,,,,,,,,,,,,,,,,,,,,,,,,,,,,,,,,,,,,,,,,,
,,611086aa151462dc0ac8d02b,2024-02-22_05h34.32.920,kallum_motion_pilot,2023.2.2,Win32,59.88023952,611086aa151462dc0ac8d02b,65d6bb0e977760de756971f7,65d6be508923259cf31ece80,0.1308,0.1311,0,113,113,132,1,sevenfive,,,,,,,,,,,,,,,,,,,,,,,,,,,,,,,,,,,,,,,,,,,,,,,,,,,,,,,,,,,,,,,,,,,,,,,,,,,,,,,,,,,,,,,,,,,,,,,,,,,,,,,,,,,,,,,,,,,,,,,,,,,,,,,,,,,,,,,,,
,,611086aa151462dc0ac8d02b,2024-02-22_05h34.32.920,kallum_motion_pilot,2023.2.2,Win32,59.88023952,611086aa151462dc0ac8d02b,65d6bb0e977760de756971f7,65d6be508923259cf31ece80,0.1312,0.1314,0,114,114,144,1,fivesix,,,,,,,,,,,,,,,,,,,,,,,,,,,,,,,,,,,,,,,,,,,,,,,,,,,,,,,,,,,,,,,,,,,,,,,,,,,,,,,,,,,,,,,,,,,,,,,,,,,,,,,,,,,,,,,,,,,,,,,,,,,,,,,,,,,,,,,,,
,,611086aa151462dc0ac8d02b,2024-02-22_05h34.32.920,kallum_motion_pilot,2023.2.2,Win32,59.88023952,611086aa151462dc0ac8d02b,65d6bb0e977760de756971f7,65d6be508923259cf31ece80,0.1316,0.1318,0,115,115,145,1,fiveseven,,,,,,,,,,,,,,,,,,,,,,,,,,,,,,,,,,,,,,,,,,,,,,,,,,,,,,,,,,,,,,,,,,,,,,,,,,,,,,,,,,,,,,,,,,,,,,,,,,,,,,,,,,,,,,,,,,,,,,,,,,,,,,,,,,,,,,,,,
,,611086aa151462dc0ac8d02b,2024-02-22_05h34.32.920,kallum_motion_pilot,2023.2.2,Win32,59.88023952,611086aa151462dc0ac8d02b,65d6bb0e977760de756971f7,65d6be508923259cf31ece80,0.1321,0.1323,0,116,116,50,1,twoone,,,,,,,,,,,,,,,,,,,,,,,,,,,,,,,,,,,,,,,,,,,,,,,,,,,,,,,,,,,,,,,,,,,,,,,,,,,,,,,,,,,,,,,,,,,,,,,,,,,,,,,,,,,,,,,,,,,,,,,,,,,,,,,,,,,,,,,,,
,,611086aa151462dc0ac8d02b,2024-02-22_05h34.32.920,kallum_motion_pilot,2023.2.2,Win32,59.88023952,611086aa151462dc0ac8d02b,65d6bb0e977760de756971f7,65d6be508923259cf31ece80,0.1325,0.1327,0,117,117,99,1,sixeight,,,,,,,,,,,,,,,,,,,,,,,,,,,,,,,,,,,,,,,,,,,,,,,,,,,,,,,,,,,,,,,,,,,,,,,,,,,,,,,,,,,,,,,,,,,,,,,,,,,,,,,,,,,,,,,,,,,,,,,,,,,,,,,,,,,,,,,,,
,,611086aa151462dc0ac8d02b,2024-02-22_05h34.32.920,kallum_motion_pilot,2023.2.2,Win32,59.88023952,611086aa151462dc0ac8d02b,65d6bb0e977760de756971f7,65d6be508923259cf31ece80,0.1328,0.133,0,118,118,159,1,eightseven,,,,,,,,,,,,,,,,,,,,,,,,,,,,,,,,,,,,,,,,,,,,,,,,,,,,,,,,,,,,,,,,,,,,,,,,,,,,,,,,,,,,,,,,,,,,,,,,,,,,,,,,,,,,,,,,,,,,,,,,,,,,,,,,,,,,,,,,,
,,611086aa151462dc0ac8d02b,2024-02-22_05h34.32.920,kallum_motion_pilot,2023.2.2,Win32,59.88023952,611086aa151462dc0ac8d02b,65d6bb0e977760de756971f7,65d6be508923259cf31ece80,0.1331,0.1332,0,119,119,60,1,threeone,,,,,,,,,,,,,,,,,,,,,,,,,,,,,,,,,,,,,,,,,,,,,,,,,,,,,,,,,,,,,,,,,,,,,,,,,,,,,,,,,,,,,,,,,,,,,,,,,,,,,,,,,,,,,,,,,,,,,,,,,,,,,,,,,,,,,,,,,
,,611086aa151462dc0ac8d02b,2024-02-22_05h34.32.920,kallum_motion_pilot,2023.2.2,Win32,59.88023952,611086aa151462dc0ac8d02b,65d6bb0e977760de756971f7,65d6be508923259cf31ece80,0.1334,0.1335,0,120,120,103,1,eightseven,,,,,,,,,,,,,,,,,,,,,,,,,,,,,,,,,,,,,,,,,,,,,,,,,,,,,,,,,,,,,,,,,,,,,,,,,,,,,,,,,,,,,,,,,,,,,,,,,,,,,,,,,,,,,,,,,,,,,,,,,,,,,,,,,,,,,,,,,
,,611086aa151462dc0ac8d02b,2024-02-22_05h34.32.920,kallum_motion_pilot,2023.2.2,Win32,59.88023952,611086aa151462dc0ac8d02b,65d6bb0e977760de756971f7,65d6be508923259cf31ece80,0.1337,0.1338,0,121,121,61,1,threefour,,,,,,,,,,,,,,,,,,,,,,,,,,,,,,,,,,,,,,,,,,,,,,,,,,,,,,,,,,,,,,,,,,,,,,,,,,,,,,,,,,,,,,,,,,,,,,,,,,,,,,,,,,,,,,,,,,,,,,,,,,,,,,,,,,,,,,,,,
,,611086aa151462dc0ac8d02b,2024-02-22_05h34.32.920,kallum_motion_pilot,2023.2.2,Win32,59.88023952,611086aa151462dc0ac8d02b,65d6bb0e977760de756971f7,65d6be508923259cf31ece80,0.134,0.1341,0,122,122,97,1,fiveseven,,,,,,,,,,,,,,,,,,,,,,,,,,,,,,,,,,,,,,,,,,,,,,,,,,,,,,,,,,,,,,,,,,,,,,,,,,,,,,,,,,,,,,,,,,,,,,,,,,,,,,,,,,,,,,,,,,,,,,,,,,,,,,,,,,,,,,,,,
,,611086aa151462dc0ac8d02b,2024-02-22_05h34.32.920,kallum_motion_pilot,2023.2.2,Win32,59.88023952,611086aa151462dc0ac8d02b,65d6bb0e977760de756971f7,65d6be508923259cf31ece80,0.1343,0.1344,0,123,123,81,1,fiveseven,,,,,,,,,,,,,,,,,,,,,,,,,,,,,,,,,,,,,,,,,,,,,,,,,,,,,,,,,,,,,,,,,,,,,,,,,,,,,,,,,,,,,,,,,,,,,,,,,,,,,,,,,,,,,,,,,,,,,,,,,,,,,,,,,,,,,,,,,
,,611086aa151462dc0ac8d02b,2024-02-22_05h34.32.920,kallum_motion_pilot,2023.2.2,Win32,59.88023952,611086aa151462dc0ac8d02b,65d6bb0e977760de756971f7,65d6be508923259cf31ece80,0.1347,0.1348,0,124,124,136,1,fivesix,,,,,,,,,,,,,,,,,,,,,,,,,,,,,,,,,,,,,,,,,,,,,,,,,,,,,,,,,,,,,,,,,,,,,,,,,,,,,,,,,,,,,,,,,,,,,,,,,,,,,,,,,,,,,,,,,,,,,,,,,,,,,,,,,,,,,,,,,
,,611086aa151462dc0ac8d02b,2024-02-22_05h34.32.920,kallum_motion_pilot,2023.2.2,Win32,59.88023952,611086aa151462dc0ac8d02b,65d6bb0e977760de756971f7,65d6be508923259cf31ece80,0.1351,0.1354,0,125,125,30,1,fourtwo,,,,,,,,,,,,,,,,,,,,,,,,,,,,,,,,,,,,,,,,,,,,,,,,,,,,,,,,,,,,,,,,,,,,,,,,,,,,,,,,,,,,,,,,,,,,,,,,,,,,,,,,,,,,,,,,,,,,,,,,,,,,,,,,,,,,,,,,,
,,611086aa151462dc0ac8d02b,2024-02-22_05h34.32.920,kallum_motion_pilot,2023.2.2,Win32,59.88023952,611086aa151462dc0ac8d02b,65d6bb0e977760de756971f7,65d6be508923259cf31ece80,0.1357,0.1359,0,126,126,12,1,threeone,,,,,,,,,,,,,,,,,,,,,,,,,,,,,,,,,,,,,,,,,,,,,,,,,,,,,,,,,,,,,,,,,,,,,,,,,,,,,,,,,,,,,,,,,,,,,,,,,,,,,,,,,,,,,,,,,,,,,,,,,,,,,,,,,,,,,,,,,
,,611086aa151462dc0ac8d02b,2024-02-22_05h34.32.920,kallum_motion_pilot,2023.2.2,Win32,59.88023952,611086aa151462dc0ac8d02b,65d6bb0e977760de756971f7,65d6be508923259cf31ece80,0.1362,0.1363,0,127,127,9,1,onethree,,,,,,,,,,,,,,,,,,,,,,,,,,,,,,,,,,,,,,,,,,,,,,,,,,,,,,,,,,,,,,,,,,,,,,,,,,,,,,,,,,,,,,,,,,,,,,,,,,,,,,,,,,,,,,,,,,,,,,,,,,,,,,,,,,,,,,,,,
,,611086aa151462dc0ac8d02b,2024-02-22_05h34.32.920,kallum_motion_pilot,2023.2.2,Win32,59.88023952,611086aa151462dc0ac8d02b,65d6bb0e977760de756971f7,65d6be508923259cf31ece80,0.1365,0.1366,0,128,128,89,1,fiveseven,,,,,,,,,,,,,,,,,,,,,,,,,,,,,,,,,,,,,,,,,,,,,,,,,,,,,,,,,,,,,,,,,,,,,,,,,,,,,,,,,,,,,,,,,,,,,,,,,,,,,,,,,,,,,,,,,,,,,,,,,,,,,,,,,,,,,,,,,
,,611086aa151462dc0ac8d02b,2024-02-22_05h34.32.920,kallum_motion_pilot,2023.2.2,Win32,59.88023952,611086aa151462dc0ac8d02b,65d6bb0e977760de756971f7,65d6be508923259cf31ece80,0.1368,0.1369,0,129,129,1,1,onethree,,,,,,,,,,,,,,,,,,,,,,,,,,,,,,,,,,,,,,,,,,,,,,,,,,,,,,,,,,,,,,,,,,,,,,,,,,,,,,,,,,,,,,,,,,,,,,,,,,,,,,,,,,,,,,,,,,,,,,,,,,,,,,,,,,,,,,,,,
,,611086aa151462dc0ac8d02b,2024-02-22_05h34.32.920,kallum_motion_pilot,2023.2.2,Win32,59.88023952,611086aa151462dc0ac8d02b,65d6bb0e977760de756971f7,65d6be508923259cf31ece80,0.1371,0.1372,0,130,130,24,1,onetwo,,,,,,,,,,,,,,,,,,,,,,,,,,,,,,,,,,,,,,,,,,,,,,,,,,,,,,,,,,,,,,,,,,,,,,,,,,,,,,,,,,,,,,,,,,,,,,,,,,,,,,,,,,,,,,,,,,,,,,,,,,,,,,,,,,,,,,,,,
,,611086aa151462dc0ac8d02b,2024-02-22_05h34.32.920,kallum_motion_pilot,2023.2.2,Win32,59.88023952,611086aa151462dc0ac8d02b,65d6bb0e977760de756971f7,65d6be508923259cf31ece80,0.1374,0.1376,0,131,131,51,1,twofour,,,,,,,,,,,,,,,,,,,,,,,,,,,,,,,,,,,,,,,,,,,,,,,,,,,,,,,,,,,,,,,,,,,,,,,,,,,,,,,,,,,,,,,,,,,,,,,,,,,,,,,,,,,,,,,,,,,,,,,,,,,,,,,,,,,,,,,,,
,,611086aa151462dc0ac8d02b,2024-02-22_05h34.32.920,kallum_motion_pilot,2023.2.2,Win32,59.88023952,611086aa151462dc0ac8d02b,65d6bb0e977760de756971f7,65d6be508923259cf31ece80,0.1377,0.1379,0,132,132,26,1,twoone,,,,,,,,,,,,,,,,,,,,,,,,,,,,,,,,,,,,,,,,,,,,,,,,,,,,,,,,,,,,,,,,,,,,,,,,,,,,,,,,,,,,,,,,,,,,,,,,,,,,,,,,,,,,,,,,,,,,,,,,,,,,,,,,,,,,,,,,,
,,611086aa151462dc0ac8d02b,2024-02-22_05h34.32.920,kallum_motion_pilot,2023.2.2,Win32,59.88023952,611086aa151462dc0ac8d02b,65d6bb0e977760de756971f7,65d6be508923259cf31ece80,0.1382,0.1384,0,133,133,146,1,sixfive,,,,,,,,,,,,,,,,,,,,,,,,,,,,,,,,,,,,,,,,,,,,,,,,,,,,,,,,,,,,,,,,,,,,,,,,,,,,,,,,,,,,,,,,,,,,,,,,,,,,,,,,,,,,,,,,,,,,,,,,,,,,,,,,,,,,,,,,,
,,611086aa151462dc0ac8d02b,2024-02-22_05h34.32.920,kallum_motion_pilot,2023.2.2,Win32,59.88023952,611086aa151462dc0ac8d02b,65d6bb0e977760de756971f7,65d6be508923259cf31ece80,0.1387,0.1388,0,134,134,109,1,seveneight,,,,,,,,,,,,,,,,,,,,,,,,,,,,,,,,,,,,,,,,,,,,,,,,,,,,,,,,,,,,,,,,,,,,,,,,,,,,,,,,,,,,,,,,,,,,,,,,,,,,,,,,,,,,,,,,,,,,,,,,,,,,,,,,,,,,,,,,,
,,611086aa151462dc0ac8d02b,2024-02-22_05h34.32.920,kallum_motion_pilot,2023.2.2,Win32,59.88023952,611086aa151462dc0ac8d02b,65d6bb0e977760de756971f7,65d6be508923259cf31ece80,0.1389,0.1391,0,135,135,100,1,sevenfive,,,,,,,,,,,,,,,,,,,,,,,,,,,,,,,,,,,,,,,,,,,,,,,,,,,,,,,,,,,,,,,,,,,,,,,,,,,,,,,,,,,,,,,,,,,,,,,,,,,,,,,,,,,,,,,,,,,,,,,,,,,,,,,,,,,,,,,,,
,,611086aa151462dc0ac8d02b,2024-02-22_05h34.32.920,kallum_motion_pilot,2023.2.2,Win32,59.88023952,611086aa151462dc0ac8d02b,65d6bb0e977760de756971f7,65d6be508923259cf31ece80,0.1393,0.1394,0,136,136,138,1,sixfive,,,,,,,,,,,,,,,,,,,,,,,,,,,,,,,,,,,,,,,,,,,,,,,,,,,,,,,,,,,,,,,,,,,,,,,,,,,,,,,,,,,,,,,,,,,,,,,,,,,,,,,,,,,,,,,,,,,,,,,,,,,,,,,,,,,,,,,,,
,,611086aa151462dc0ac8d02b,2024-02-22_05h34.32.920,kallum_motion_pilot,2023.2.2,Win32,59.88023952,611086aa151462dc0ac8d02b,65d6bb0e977760de756971f7,65d6be508923259cf31ece80,0.1396,0.1397,0,137,137,158,1,eightsix,,,,,,,,,,,,,,,,,,,,,,,,,,,,,,,,,,,,,,,,,,,,,,,,,,,,,,,,,,,,,,,,,,,,,,,,,,,,,,,,,,,,,,,,,,,,,,,,,,,,,,,,,,,,,,,,,,,,,,,,,,,,,,,,,,,,,,,,,
,,611086aa151462dc0ac8d02b,2024-02-22_05h34.32.920,kallum_motion_pilot,2023.2.2,Win32,59.88023952,611086aa151462dc0ac8d02b,65d6bb0e977760de756971f7,65d6be508923259cf31ece80,0.1399,0.14,0,138,138,153,1,fiveseven,,,,,,,,,,,,,,,,,,,,,,,,,,,,,,,,,,,,,,,,,,,,,,,,,,,,,,,,,,,,,,,,,,,,,,,,,,,,,,,,,,,,,,,,,,,,,,,,,,,,,,,,,,,,,,,,,,,,,,,,,,,,,,,,,,,,,,,,,
,,611086aa151462dc0ac8d02b,2024-02-22_05h34.32.920,kallum_motion_pilot,2023.2.2,Win32,59.88023952,611086aa151462dc0ac8d02b,65d6bb0e977760de756971f7,65d6be508923259cf31ece80,0.1402,0.1403,0,139,139,22,1,fourtwo,,,,,,,,,,,,,,,,,,,,,,,,,,,,,,,,,,,,,,,,,,,,,,,,,,,,,,,,,,,,,,,,,,,,,,,,,,,,,,,,,,,,,,,,,,,,,,,,,,,,,,,,,,,,,,,,,,,,,,,,,,,,,,,,,,,,,,,,,
,,611086aa151462dc0ac8d02b,2024-02-22_05h34.32.920,kallum_motion_pilot,2023.2.2,Win32,59.88023952,611086aa151462dc0ac8d02b,65d6bb0e977760de756971f7,65d6be508923259cf31ece80,0.1405,0.1407,0,140,140,69,1,threefour,,,,,,,,,,,,,,,,,,,,,,,,,,,,,,,,,,,,,,,,,,,,,,,,,,,,,,,,,,,,,,,,,,,,,,,,,,,,,,,,,,,,,,,,,,,,,,,,,,,,,,,,,,,,,,,,,,,,,,,,,,,,,,,,,,,,,,,,,
,,611086aa151462dc0ac8d02b,2024-02-22_05h34.32.920,kallum_motion_pilot,2023.2.2,Win32,59.88023952,611086aa151462dc0ac8d02b,65d6bb0e977760de756971f7,65d6be508923259cf31ece80,0.141,0.1412,0,141,141,160,1,fivesix,,,,,,,,,,,,,,,,,,,,,,,,,,,,,,,,,,,,,,,,,,,,,,,,,,,,,,,,,,,,,,,,,,,,,,,,,,,,,,,,,,,,,,,,,,,,,,,,,,,,,,,,,,,,,,,,,,,,,,,,,,,,,,,,,,,,,,,,,
,,611086aa151462dc0ac8d02b,2024-02-22_05h34.32.920,kallum_motion_pilot,2023.2.2,Win32,59.88023952,611086aa151462dc0ac8d02b,65d6bb0e977760de756971f7,65d6be508923259cf31ece80,0.1414,0.1415,0,142,142,35,1,twofour,,,,,,,,,,,,,,,,,,,,,,,,,,,,,,,,,,,,,,,,,,,,,,,,,,,,,,,,,,,,,,,,,,,,,,,,,,,,,,,,,,,,,,,,,,,,,,,,,,,,,,,,,,,,,,,,,,,,,,,,,,,,,,,,,,,,,,,,,
,,611086aa151462dc0ac8d02b,2024-02-22_05h34.32.920,kallum_motion_pilot,2023.2.2,Win32,59.88023952,611086aa151462dc0ac8d02b,65d6bb0e977760de756971f7,65d6be508923259cf31ece80,0.1416,0.1418,0,143,143,122,1,sixfive,,,,,,,,,,,,,,,,,,,,,,,,,,,,,,,,,,,,,,,,,,,,,,,,,,,,,,,,,,,,,,,,,,,,,,,,,,,,,,,,,,,,,,,,,,,,,,,,,,,,,,,,,,,,,,,,,,,,,,,,,,,,,,,,,,,,,,,,,
,,611086aa151462dc0ac8d02b,2024-02-22_05h34.32.920,kallum_motion_pilot,2023.2.2,Win32,59.88023952,611086aa151462dc0ac8d02b,65d6bb0e977760de756971f7,65d6be508923259cf31ece80,0.142,0.1421,0,144,144,41,1,onethree,,,,,,,,,,,,,,,,,,,,,,,,,,,,,,,,,,,,,,,,,,,,,,,,,,,,,,,,,,,,,,,,,,,,,,,,,,,,,,,,,,,,,,,,,,,,,,,,,,,,,,,,,,,,,,,,,,,,,,,,,,,,,,,,,,,,,,,,,
,,611086aa151462dc0ac8d02b,2024-02-22_05h34.32.920,kallum_motion_pilot,2023.2.2,Win32,59.88023952,611086aa151462dc0ac8d02b,65d6bb0e977760de756971f7,65d6be508923259cf31ece80,0.1423,0.1424,0,145,145,68,1,threeone,,,,,,,,,,,,,,,,,,,,,,,,,,,,,,,,,,,,,,,,,,,,,,,,,,,,,,,,,,,,,,,,,,,,,,,,,,,,,,,,,,,,,,,,,,,,,,,,,,,,,,,,,,,,,,,,,,,,,,,,,,,,,,,,,,,,,,,,,
,,611086aa151462dc0ac8d02b,2024-02-22_05h34.32.920,kallum_motion_pilot,2023.2.2,Win32,59.88023952,611086aa151462dc0ac8d02b,65d6bb0e977760de756971f7,65d6be508923259cf31ece80,0.1427,0.1428,0,146,146,157,1,seveneight,,,,,,,,,,,,,,,,,,,,,,,,,,,,,,,,,,,,,,,,,,,,,,,,,,,,,,,,,,,,,,,,,,,,,,,,,,,,,,,,,,,,,,,,,,,,,,,,,,,,,,,,,,,,,,,,,,,,,,,,,,,,,,,,,,,,,,,,,
,,611086aa151462dc0ac8d02b,2024-02-22_05h34.32.920,kallum_motion_pilot,2023.2.2,Win32,59.88023952,611086aa151462dc0ac8d02b,65d6bb0e977760de756971f7,65d6be508923259cf31ece80,0.143,0.1431,0,147,147,106,1,sixfive,,,,,,,,,,,,,,,,,,,,,,,,,,,,,,,,,,,,,,,,,,,,,,,,,,,,,,,,,,,,,,,,,,,,,,,,,,,,,,,,,,,,,,,,,,,,,,,,,,,,,,,,,,,,,,,,,,,,,,,,,,,,,,,,,,,,,,,,,
,,611086aa151462dc0ac8d02b,2024-02-22_05h34.32.920,kallum_motion_pilot,2023.2.2,Win32,59.88023952,611086aa151462dc0ac8d02b,65d6bb0e977760de756971f7,65d6be508923259cf31ece80,0.1433,0.1434,0,148,148,155,1,sixeight,,,,,,,,,,,,,,,,,,,,,,,,,,,,,,,,,,,,,,,,,,,,,,,,,,,,,,,,,,,,,,,,,,,,,,,,,,,,,,,,,,,,,,,,,,,,,,,,,,,,,,,,,,,,,,,,,,,,,,,,,,,,,,,,,,,,,,,,,
,,611086aa151462dc0ac8d02b,2024-02-22_05h34.32.920,kallum_motion_pilot,2023.2.2,Win32,59.88023952,611086aa151462dc0ac8d02b,65d6bb0e977760de756971f7,65d6be508923259cf31ece80,0.1436,0.1437,0,149,149,141,1,seveneight,,,,,,,,,,,,,,,,,,,,,,,,,,,,,,,,,,,,,,,,,,,,,,,,,,,,,,,,,,,,,,,,,,,,,,,,,,,,,,,,,,,,,,,,,,,,,,,,,,,,,,,,,,,,,,,,,,,,,,,,,,,,,,,,,,,,,,,,,
,,611086aa151462dc0ac8d02b,2024-02-22_05h34.32.920,kallum_motion_pilot,2023.2.2,Win32,59.88023952,611086aa151462dc0ac8d02b,65d6bb0e977760de756971f7,65d6be508923259cf31ece80,0.1439,0.144,0,150,150,2,1,twoone,,,,,,,,,,,,,,,,,,,,,,,,,,,,,,,,,,,,,,,,,,,,,,,,,,,,,,,,,,,,,,,,,,,,,,,,,,,,,,,,,,,,,,,,,,,,,,,,,,,,,,,,,,,,,,,,,,,,,,,,,,,,,,,,,,,,,,,,,
,,611086aa151462dc0ac8d02b,2024-02-22_05h34.32.920,kallum_motion_pilot,2023.2.2,Win32,59.88023952,611086aa151462dc0ac8d02b,65d6bb0e977760de756971f7,65d6be508923259cf31ece80,0.1441,0.1443,0,151,151,134,1,eightsix,,,,,,,,,,,,,,,,,,,,,,,,,,,,,,,,,,,,,,,,,,,,,,,,,,,,,,,,,,,,,,,,,,,,,,,,,,,,,,,,,,,,,,,,,,,,,,,,,,,,,,,,,,,,,,,,,,,,,,,,,,,,,,,,,,,,,,,,,
,,611086aa151462dc0ac8d02b,2024-02-22_05h34.32.920,kallum_motion_pilot,2023.2.2,Win32,59.88023952,611086aa151462dc0ac8d02b,65d6bb0e977760de756971f7,65d6be508923259cf31ece80,0.1445,0.1447,0,152,152,54,1,fourtwo,,,,,,,,,,,,,,,,,,,,,,,,,,,,,,,,,,,,,,,,,,,,,,,,,,,,,,,,,,,,,,,,,,,,,,,,,,,,,,,,,,,,,,,,,,,,,,,,,,,,,,,,,,,,,,,,,,,,,,,,,,,,,,,,,,,,,,,,,
,,611086aa151462dc0ac8d02b,2024-02-22_05h34.32.920,kallum_motion_pilot,2023.2.2,Win32,59.88023952,611086aa151462dc0ac8d02b,65d6bb0e977760de756971f7,65d6be508923259cf31ece80,0.1448,0.1449,0,153,153,116,1,sevenfive,,,,,,,,,,,,,,,,,,,,,,,,,,,,,,,,,,,,,,,,,,,,,,,,,,,,,,,,,,,,,,,,,,,,,,,,,,,,,,,,,,,,,,,,,,,,,,,,,,,,,,,,,,,,,,,,,,,,,,,,,,,,,,,,,,,,,,,,,
,,611086aa151462dc0ac8d02b,2024-02-22_05h34.32.920,kallum_motion_pilot,2023.2.2,Win32,59.88023952,611086aa151462dc0ac8d02b,65d6bb0e977760de756971f7,65d6be508923259cf31ece80,0.1451,0.1452,0,154,154,102,1,eightsix,,,,,,,,,,,,,,,,,,,,,,,,,,,,,,,,,,,,,,,,,,,,,,,,,,,,,,,,,,,,,,,,,,,,,,,,,,,,,,,,,,,,,,,,,,,,,,,,,,,,,,,,,,,,,,,,,,,,,,,,,,,,,,,,,,,,,,,,,
,,611086aa151462dc0ac8d02b,2024-02-22_05h34.32.920,kallum_motion_pilot,2023.2.2,Win32,59.88023952,611086aa151462dc0ac8d02b,65d6bb0e977760de756971f7,65d6be508923259cf31ece80,0.1454,0.1455,0,155,155,74,1,twoone,,,,,,,,,,,,,,,,,,,,,,,,,,,,,,,,,,,,,,,,,,,,,,,,,,,,,,,,,,,,,,,,,,,,,,,,,,,,,,,,,,,,,,,,,,,,,,,,,,,,,,,,,,,,,,,,,,,,,,,,,,,,,,,,,,,,,,,,,
,,611086aa151462dc0ac8d02b,2024-02-22_05h34.32.920,kallum_motion_pilot,2023.2.2,Win32,59.88023952,611086aa151462dc0ac8d02b,65d6bb0e977760de756971f7,65d6be508923259cf31ece80,0.1457,0.1458,0,156,156,135,1,eightseven,,,,,,,,,,,,,,,,,,,,,,,,,,,,,,,,,,,,,,,,,,,,,,,,,,,,,,,,,,,,,,,,,,,,,,,,,,,,,,,,,,,,,,,,,,,,,,,,,,,,,,,,,,,,,,,,,,,,,,,,,,,,,,,,,,,,,,,,,
,,611086aa151462dc0ac8d02b,2024-02-22_05h34.32.920,kallum_motion_pilot,2023.2.2,Win32,59.88023952,611086aa151462dc0ac8d02b,65d6bb0e977760de756971f7,65d6be508923259cf31ece80,0.146,0.1461,0,157,157,8,1,onetwo,,,,,,,,,,,,,,,,,,,,,,,,,,,,,,,,,,,,,,,,,,,,,,,,,,,,,,,,,,,,,,,,,,,,,,,,,,,,,,,,,,,,,,,,,,,,,,,,,,,,,,,,,,,,,,,,,,,,,,,,,,,,,,,,,,,,,,,,,
,,611086aa151462dc0ac8d02b,2024-02-22_05h34.32.920,kallum_motion_pilot,2023.2.2,Win32,59.88023952,611086aa151462dc0ac8d02b,65d6bb0e977760de756971f7,65d6be508923259cf31ece80,0.1463,0.1465,0,158,158,67,1,twofour,,,,,,,,,,,,,,,,,,,,,,,,,,,,,,,,,,,,,,,,,,,,,,,,,,,,,,,,,,,,,,,,,,,,,,,,,,,,,,,,,,,,,,,,,,,,,,,,,,,,,,,,,,,,,,,,,,,,,,,,,,,,,,,,,,,,,,,,,
,,611086aa151462dc0ac8d02b,2024-02-22_05h34.32.920,kallum_motion_pilot,2023.2.2,Win32,59.88023952,611086aa151462dc0ac8d02b,65d6bb0e977760de756971f7,65d6be508923259cf31ece80,0.1467,0.1469,0,159,159,49,1,onethree,,,,,,,,,,,,,,,,,,,,,,,,,,,,,,,,,,,,,,,,,,,,,,,,,,,,,,,,,,,,,,,,,,,,,,,,,,,,,,,,,,,,,,,,,,,,,,,,,,,,,,,,,,,,,,,,,,,,,,,,,,,,,,,,,,,,,,,,,
,,611086aa151462dc0ac8d02b,2024-02-22_05h34.32.920,kallum_motion_pilot,2023.2.2,Win32,59.88023952,611086aa151462dc0ac8d02b,65d6bb0e977760de756971f7,65d6be508923259cf31ece80,0.1472,0.1474,0,160,160,32,1,onetwo,,,,,,,,,,,,,,,,,,,,,,,,,,,,,,,,,,,,,,,,,,,,,,,,,,,,,,,,,,,,,,,,,,,,,,,,,,,,,,,,,,,,,,,,,,,,,,,,,,,,,,,,,,,,,,,,,,,,,,,,,,,,,,,,,,,,,,,,,
,,611086aa151462dc0ac8d02b,2024-02-22_05h34.32.920,kallum_motion_pilot,2023.2.2,Win32,59.88023952,611086aa151462dc0ac8d02b,65d6bb0e977760de756971f7,65d6be508923259cf31ece80,0.1477,0.1479,0,161,161,27,1,twofour,,,,,,,,,,,,,,,,,,,,,,,,,,,,,,,,,,,,,,,,,,,,,,,,,,,,,,,,,,,,,,,,,,,,,,,,,,,,,,,,,,,,,,,,,,,,,,,,,,,,,,,,,,,,,,,,,,,,,,,,,,,,,,,,,,,,,,,,,
,,611086aa151462dc0ac8d02b,2024-02-22_05h34.32.920,kallum_motion_pilot,2023.2.2,Win32,59.88023952,611086aa151462dc0ac8d02b,65d6bb0e977760de756971f7,65d6be508923259cf31ece80,0.1482,0.1485,1,0,162,108,1,sevenfive,,,,,,,,,,,,,,,,,,,,,,,,,,,,,,,,,,,,,,,,,,,,,,,,,,,,,,,,,,,,,,,,,,,,,,,,,,,,,,,,,,,,,,,,,,,,,,,,,,,,,,,,,,,,,,,,,,,,,,,,,,,,,,,,,,,,,,,,,
,,611086aa151462dc0ac8d02b,2024-02-22_05h34.32.920,kallum_motion_pilot,2023.2.2,Win32,59.88023952,611086aa151462dc0ac8d02b,65d6bb0e977760de756971f7,65d6be508923259cf31ece80,0.149,0.1492,1,1,163,157,1,seveneight,,,,,,,,,,,,,,,,,,,,,,,,,,,,,,,,,,,,,,,,,,,,,,,,,,,,,,,,,,,,,,,,,,,,,,,,,,,,,,,,,,,,,,,,,,,,,,,,,,,,,,,,,,,,,,,,,,,,,,,,,,,,,,,,,,,,,,,,,
,,611086aa151462dc0ac8d02b,2024-02-22_05h34.32.920,kallum_motion_pilot,2023.2.2,Win32,59.88023952,611086aa151462dc0ac8d02b,65d6bb0e977760de756971f7,65d6be508923259cf31ece80,0.1497,0.1499,1,2,164,33,1,onethree,,,,,,,,,,,,,,,,,,,,,,,,,,,,,,,,,,,,,,,,,,,,,,,,,,,,,,,,,,,,,,,,,,,,,,,,,,,,,,,,,,,,,,,,,,,,,,,,,,,,,,,,,,,,,,,,,,,,,,,,,,,,,,,,,,,,,,,,,
,,611086aa151462dc0ac8d02b,2024-02-22_05h34.32.920,kallum_motion_pilot,2023.2.2,Win32,59.88023952,611086aa151462dc0ac8d02b,65d6bb0e977760de756971f7,65d6be508923259cf31ece80,0.1502,0.1502,1,3,165,159,1,eightseven,,,,,,,,,,,,,,,,,,,,,,,,,,,,,,,,,,,,,,,,,,,,,,,,,,,,,,,,,,,,,,,,,,,,,,,,,,,,,,,,,,,,,,,,,,,,,,,,,,,,,,,,,,,,,,,,,,,,,,,,,,,,,,,,,,,,,,,,,
,,611086aa151462dc0ac8d02b,2024-02-22_05h34.32.920,kallum_motion_pilot,2023.2.2,Win32,59.88023952,611086aa151462dc0ac8d02b,65d6bb0e977760de756971f7,65d6be508923259cf31ece80,0.1504,0.1506,1,4,166,55,1,fourthree,,,,,,,,,,,,,,,,,,,,,,,,,,,,,,,,,,,,,,,,,,,,,,,,,,,,,,,,,,,,,,,,,,,,,,,,,,,,,,,,,,,,,,,,,,,,,,,,,,,,,,,,,,,,,,,,,,,,,,,,,,,,,,,,,,,,,,,,,
,,611086aa151462dc0ac8d02b,2024-02-22_05h34.32.920,kallum_motion_pilot,2023.2.2,Win32,59.88023952,611086aa151462dc0ac8d02b,65d6bb0e977760de756971f7,65d6be508923259cf31ece80,0.1508,0.151,1,5,167,93,1,seveneight,,,,,,,,,,,,,,,,,,,,,,,,,,,,,,,,,,,,,,,,,,,,,,,,,,,,,,,,,,,,,,,,,,,,,,,,,,,,,,,,,,,,,,,,,,,,,,,,,,,,,,,,,,,,,,,,,,,,,,,,,,,,,,,,,,,,,,,,,
,,611086aa151462dc0ac8d02b,2024-02-22_05h34.32.920,kallum_motion_pilot,2023.2.2,Win32,59.88023952,611086aa151462dc0ac8d02b,65d6bb0e977760de756971f7,65d6be508923259cf31ece80,0.1511,0.1513,1,6,168,50,1,twoone,,,,,,,,,,,,,,,,,,,,,,,,,,,,,,,,,,,,,,,,,,,,,,,,,,,,,,,,,,,,,,,,,,,,,,,,,,,,,,,,,,,,,,,,,,,,,,,,,,,,,,,,,,,,,,,,,,,,,,,,,,,,,,,,,,,,,,,,,
,,611086aa151462dc0ac8d02b,2024-02-22_05h34.32.920,kallum_motion_pilot,2023.2.2,Win32,59.88023952,611086aa151462dc0ac8d02b,65d6bb0e977760de756971f7,65d6be508923259cf31ece80,0.1515,0.1517,1,7,169,155,1,sixeight,,,,,,,,,,,,,,,,,,,,,,,,,,,,,,,,,,,,,,,,,,,,,,,,,,,,,,,,,,,,,,,,,,,,,,,,,,,,,,,,,,,,,,,,,,,,,,,,,,,,,,,,,,,,,,,,,,,,,,,,,,,,,,,,,,,,,,,,,
,,611086aa151462dc0ac8d02b,2024-02-22_05h34.32.920,kallum_motion_pilot,2023.2.2,Win32,59.88023952,611086aa151462dc0ac8d02b,65d6bb0e977760de756971f7,65d6be508923259cf31ece80,0.1519,0.152,1,8,170,119,1,eightseven,,,,,,,,,,,,,,,,,,,,,,,,,,,,,,,,,,,,,,,,,,,,,,,,,,,,,,,,,,,,,,,,,,,,,,,,,,,,,,,,,,,,,,,,,,,,,,,,,,,,,,,,,,,,,,,,,,,,,,,,,,,,,,,,,,,,,,,,,
,,611086aa151462dc0ac8d02b,2024-02-22_05h34.32.920,kallum_motion_pilot,2023.2.2,Win32,59.88023952,611086aa151462dc0ac8d02b,65d6bb0e977760de756971f7,65d6be508923259cf31ece80,0.1523,0.1524,1,9,171,34,1,twoone,,,,,,,,,,,,,,,,,,,,,,,,,,,,,,,,,,,,,,,,,,,,,,,,,,,,,,,,,,,,,,,,,,,,,,,,,,,,,,,,,,,,,,,,,,,,,,,,,,,,,,,,,,,,,,,,,,,,,,,,,,,,,,,,,,,,,,,,,
,,611086aa151462dc0ac8d02b,2024-02-22_05h34.32.920,kallum_motion_pilot,2023.2.2,Win32,59.88023952,611086aa151462dc0ac8d02b,65d6bb0e977760de756971f7,65d6be508923259cf31ece80,0.1526,0.1527,1,10,172,105,1,fiveseven,,,,,,,,,,,,,,,,,,,,,,,,,,,,,,,,,,,,,,,,,,,,,,,,,,,,,,,,,,,,,,,,,,,,,,,,,,,,,,,,,,,,,,,,,,,,,,,,,,,,,,,,,,,,,,,,,,,,,,,,,,,,,,,,,,,,,,,,,
,,611086aa151462dc0ac8d02b,2024-02-22_05h34.32.920,kallum_motion_pilot,2023.2.2,Win32,59.88023952,611086aa151462dc0ac8d02b,65d6bb0e977760de756971f7,65d6be508923259cf31ece80,0.1529,0.1531,1,11,173,128,1,fivesix,,,,,,,,,,,,,,,,,,,,,,,,,,,,,,,,,,,,,,,,,,,,,,,,,,,,,,,,,,,,,,,,,,,,,,,,,,,,,,,,,,,,,,,,,,,,,,,,,,,,,,,,,,,,,,,,,,,,,,,,,,,,,,,,,,,,,,,,,
,,611086aa151462dc0ac8d02b,2024-02-22_05h34.32.920,kallum_motion_pilot,2023.2.2,Win32,59.88023952,611086aa151462dc0ac8d02b,65d6bb0e977760de756971f7,65d6be508923259cf31ece80,0.1532,0.1536,1,12,174,95,1,eightseven,,,,,,,,,,,,,,,,,,,,,,,,,,,,,,,,,,,,,,,,,,,,,,,,,,,,,,,,,,,,,,,,,,,,,,,,,,,,,,,,,,,,,,,,,,,,,,,,,,,,,,,,,,,,,,,,,,,,,,,,,,,,,,,,,,,,,,,,,
,,611086aa151462dc0ac8d02b,2024-02-22_05h34.32.920,kallum_motion_pilot,2023.2.2,Win32,59.88023952,611086aa151462dc0ac8d02b,65d6bb0e977760de756971f7,65d6be508923259cf31ece80,0.1539,0.1541,1,13,175,28,1,threeone,,,,,,,,,,,,,,,,,,,,,,,,,,,,,,,,,,,,,,,,,,,,,,,,,,,,,,,,,,,,,,,,,,,,,,,,,,,,,,,,,,,,,,,,,,,,,,,,,,,,,,,,,,,,,,,,,,,,,,,,,,,,,,,,,,,,,,,,,
,,611086aa151462dc0ac8d02b,2024-02-22_05h34.32.920,kallum_motion_pilot,2023.2.2,Win32,59.88023952,611086aa151462dc0ac8d02b,65d6bb0e977760de756971f7,65d6be508923259cf31ece80,0.1543,0.1544,1,14,176,114,1,sixfive,,,,,,,,,,,,,,,,,,,,,,,,,,,,,,,,,,,,,,,,,,,,,,,,,,,,,,,,,,,,,,,,,,,,,,,,,,,,,,,,,,,,,,,,,,,,,,,,,,,,,,,,,,,,,,,,,,,,,,,,,,,,,,,,,,,,,,,,,
,,611086aa151462dc0ac8d02b,2024-02-22_05h34.32.920,kallum_motion_pilot,2023.2.2,Win32,59.88023952,611086aa151462dc0ac8d02b,65d6bb0e977760de756971f7,65d6be508923259cf31ece80,0.1546,0.1548,1,15,177,161,1,fiveseven,,,,,,,,,,,,,,,,,,,,,,,,,,,,,,,,,,,,,,,,,,,,,,,,,,,,,,,,,,,,,,,,,,,,,,,,,,,,,,,,,,,,,,,,,,,,,,,,,,,,,,,,,,,,,,,,,,,,,,,,,,,,,,,,,,,,,,,,,
,,611086aa151462dc0ac8d02b,2024-02-22_05h34.32.920,kallum_motion_pilot,2023.2.2,Win32,59.88023952,611086aa151462dc0ac8d02b,65d6bb0e977760de756971f7,65d6be508923259cf31ece80,0.1552,0.1554,1,16,178,137,1,fiveseven,,,,,,,,,,,,,,,,,,,,,,,,,,,,,,,,,,,,,,,,,,,,,,,,,,,,,,,,,,,,,,,,,,,,,,,,,,,,,,,,,,,,,,,,,,,,,,,,,,,,,,,,,,,,,,,,,,,,,,,,,,,,,,,,,,,,,,,,,
,,611086aa151462dc0ac8d02b,2024-02-22_05h34.32.920,kallum_motion_pilot,2023.2.2,Win32,59.88023952,611086aa151462dc0ac8d02b,65d6bb0e977760de756971f7,65d6be508923259cf31ece80,0.1557,0.1559,1,17,179,20,1,threeone,,,,,,,,,,,,,,,,,,,,,,,,,,,,,,,,,,,,,,,,,,,,,,,,,,,,,,,,,,,,,,,,,,,,,,,,,,,,,,,,,,,,,,,,,,,,,,,,,,,,,,,,,,,,,,,,,,,,,,,,,,,,,,,,,,,,,,,,,
,,611086aa151462dc0ac8d02b,2024-02-22_05h34.32.920,kallum_motion_pilot,2023.2.2,Win32,59.88023952,611086aa151462dc0ac8d02b,65d6bb0e977760de756971f7,65d6be508923259cf31ece80,0.1561,0.1563,1,18,180,48,1,onetwo,,,,,,,,,,,,,,,,,,,,,,,,,,,,,,,,,,,,,,,,,,,,,,,,,,,,,,,,,,,,,,,,,,,,,,,,,,,,,,,,,,,,,,,,,,,,,,,,,,,,,,,,,,,,,,,,,,,,,,,,,,,,,,,,,,,,,,,,,
,,611086aa151462dc0ac8d02b,2024-02-22_05h34.32.920,kallum_motion_pilot,2023.2.2,Win32,59.88023952,611086aa151462dc0ac8d02b,65d6bb0e977760de756971f7,65d6be508923259cf31ece80,0.1565,0.1566,1,19,181,130,1,sixfive,,,,,,,,,,,,,,,,,,,,,,,,,,,,,,,,,,,,,,,,,,,,,,,,,,,,,,,,,,,,,,,,,,,,,,,,,,,,,,,,,,,,,,,,,,,,,,,,,,,,,,,,,,,,,,,,,,,,,,,,,,,,,,,,,,,,,,,,,
,,611086aa151462dc0ac8d02b,2024-02-22_05h34.32.920,kallum_motion_pilot,2023.2.2,Win32,59.88023952,611086aa151462dc0ac8d02b,65d6bb0e977760de756971f7,65d6be508923259cf31ece80,0.1568,0.157,1,20,182,153,1,fiveseven,,,,,,,,,,,,,,,,,,,,,,,,,,,,,,,,,,,,,,,,,,,,,,,,,,,,,,,,,,,,,,,,,,,,,,,,,,,,,,,,,,,,,,,,,,,,,,,,,,,,,,,,,,,,,,,,,,,,,,,,,,,,,,,,,,,,,,,,,
,,611086aa151462dc0ac8d02b,2024-02-22_05h34.32.920,kallum_motion_pilot,2023.2.2,Win32,59.88023952,611086aa151462dc0ac8d02b,65d6bb0e977760de756971f7,65d6be508923259cf31ece80,0.1571,0.1573,1,21,183,136,1,fivesix,,,,,,,,,,,,,,,,,,,,,,,,,,,,,,,,,,,,,,,,,,,,,,,,,,,,,,,,,,,,,,,,,,,,,,,,,,,,,,,,,,,,,,,,,,,,,,,,,,,,,,,,,,,,,,,,,,,,,,,,,,,,,,,,,,,,,,,,,
,,611086aa151462dc0ac8d02b,2024-02-22_05h34.32.920,kallum_motion_pilot,2023.2.2,Win32,59.88023952,611086aa151462dc0ac8d02b,65d6bb0e977760de756971f7,65d6be508923259cf31ece80,0.1576,0.1578,1,22,184,0,1,onetwo,,,,,,,,,,,,,,,,,,,,,,,,,,,,,,,,,,,,,,,,,,,,,,,,,,,,,,,,,,,,,,,,,,,,,,,,,,,,,,,,,,,,,,,,,,,,,,,,,,,,,,,,,,,,,,,,,,,,,,,,,,,,,,,,,,,,,,,,,
,,611086aa151462dc0ac8d02b,2024-02-22_05h34.32.920,kallum_motion_pilot,2023.2.2,Win32,59.88023952,611086aa151462dc0ac8d02b,65d6bb0e977760de756971f7,65d6be508923259cf31ece80,0.1581,0.1584,1,23,185,121,1,fiveseven,,,,,,,,,,,,,,,,,,,,,,,,,,,,,,,,,,,,,,,,,,,,,,,,,,,,,,,,,,,,,,,,,,,,,,,,,,,,,,,,,,,,,,,,,,,,,,,,,,,,,,,,,,,,,,,,,,,,,,,,,,,,,,,,,,,,,,,,,
,,611086aa151462dc0ac8d02b,2024-02-22_05h34.32.920,kallum_motion_pilot,2023.2.2,Win32,59.88023952,611086aa151462dc0ac8d02b,65d6bb0e977760de756971f7,65d6be508923259cf31ece80,0.1588,0.1589,1,24,186,17,1,onethree,,,,,,,,,,,,,,,,,,,,,,,,,,,,,,,,,,,,,,,,,,,,,,,,,,,,,,,,,,,,,,,,,,,,,,,,,,,,,,,,,,,,,,,,,,,,,,,,,,,,,,,,,,,,,,,,,,,,,,,,,,,,,,,,,,,,,,,,,
,,611086aa151462dc0ac8d02b,2024-02-22_05h34.32.920,kallum_motion_pilot,2023.2.2,Win32,59.88023952,611086aa151462dc0ac8d02b,65d6bb0e977760de756971f7,65d6be508923259cf31ece80,0.1591,0.1593,1,25,187,125,1,seveneight,,,,,,,,,,,,,,,,,,,,,,,,,,,,,,,,,,,,,,,,,,,,,,,,,,,,,,,,,,,,,,,,,,,,,,,,,,,,,,,,,,,,,,,,,,,,,,,,,,,,,,,,,,,,,,,,,,,,,,,,,,,,,,,,,,,,,,,,,
,,611086aa151462dc0ac8d02b,2024-02-22_05h34.32.920,kallum_motion_pilot,2023.2.2,Win32,59.88023952,611086aa151462dc0ac8d02b,65d6bb0e977760de756971f7,65d6be508923259cf31ece80,0.1594,0.1601,1,26,188,97,1,fiveseven,,,,,,,,,,,,,,,,,,,,,,,,,,,,,,,,,,,,,,,,,,,,,,,,,,,,,,,,,,,,,,,,,,,,,,,,,,,,,,,,,,,,,,,,,,,,,,,,,,,,,,,,,,,,,,,,,,,,,,,,,,,,,,,,,,,,,,,,,
,,611086aa151462dc0ac8d02b,2024-02-22_05h34.32.920,kallum_motion_pilot,2023.2.2,Win32,59.88023952,611086aa151462dc0ac8d02b,65d6bb0e977760de756971f7,65d6be508923259cf31ece80,0.1602,0.1604,1,27,189,66,1,twoone,,,,,,,,,,,,,,,,,,,,,,,,,,,,,,,,,,,,,,,,,,,,,,,,,,,,,,,,,,,,,,,,,,,,,,,,,,,,,,,,,,,,,,,,,,,,,,,,,,,,,,,,,,,,,,,,,,,,,,,,,,,,,,,,,,,,,,,,,
,,611086aa151462dc0ac8d02b,2024-02-22_05h34.32.920,kallum_motion_pilot,2023.2.2,Win32,59.88023952,611086aa151462dc0ac8d02b,65d6bb0e977760de756971f7,65d6be508923259cf31ece80,0.1606,0.1606,1,28,190,84,1,sevenfive,,,,,,,,,,,,,,,,,,,,,,,,,,,,,,,,,,,,,,,,,,,,,,,,,,,,,,,,,,,,,,,,,,,,,,,,,,,,,,,,,,,,,,,,,,,,,,,,,,,,,,,,,,,,,,,,,,,,,,,,,,,,,,,,,,,,,,,,,
,,611086aa151462dc0ac8d02b,2024-02-22_05h34.32.920,kallum_motion_pilot,2023.2.2,Win32,59.88023952,611086aa151462dc0ac8d02b,65d6bb0e977760de756971f7,65d6be508923259cf31ece80,0.1609,0.161,1,29,191,133,1,seveneight,,,,,,,,,,,,,,,,,,,,,,,,,,,,,,,,,,,,,,,,,,,,,,,,,,,,,,,,,,,,,,,,,,,,,,,,,,,,,,,,,,,,,,,,,,,,,,,,,,,,,,,,,,,,,,,,,,,,,,,,,,,,,,,,,,,,,,,,,
,,611086aa151462dc0ac8d02b,2024-02-22_05h34.32.920,kallum_motion_pilot,2023.2.2,Win32,59.88023952,611086aa151462dc0ac8d02b,65d6bb0e977760de756971f7,65d6be508923259cf31ece80,0.1612,0.1613,1,30,192,80,1,fivesix,,,,,,,,,,,,,,,,,,,,,,,,,,,,,,,,,,,,,,,,,,,,,,,,,,,,,,,,,,,,,,,,,,,,,,,,,,,,,,,,,,,,,,,,,,,,,,,,,,,,,,,,,,,,,,,,,,,,,,,,,,,,,,,,,,,,,,,,,
,,611086aa151462dc0ac8d02b,2024-02-22_05h34.32.920,kallum_motion_pilot,2023.2.2,Win32,59.88023952,611086aa151462dc0ac8d02b,65d6bb0e977760de756971f7,65d6be508923259cf31ece80,0.1615,0.1617,1,31,193,151,1,eightseven,,,,,,,,,,,,,,,,,,,,,,,,,,,,,,,,,,,,,,,,,,,,,,,,,,,,,,,,,,,,,,,,,,,,,,,,,,,,,,,,,,,,,,,,,,,,,,,,,,,,,,,,,,,,,,,,,,,,,,,,,,,,,,,,,,,,,,,,,
,,611086aa151462dc0ac8d02b,2024-02-22_05h34.32.920,kallum_motion_pilot,2023.2.2,Win32,59.88023952,611086aa151462dc0ac8d02b,65d6bb0e977760de756971f7,65d6be508923259cf31ece80,0.1619,0.1622,1,32,194,51,1,twofour,,,,,,,,,,,,,,,,,,,,,,,,,,,,,,,,,,,,,,,,,,,,,,,,,,,,,,,,,,,,,,,,,,,,,,,,,,,,,,,,,,,,,,,,,,,,,,,,,,,,,,,,,,,,,,,,,,,,,,,,,,,,,,,,,,,,,,,,,
,,611086aa151462dc0ac8d02b,2024-02-22_05h34.32.920,kallum_motion_pilot,2023.2.2,Win32,59.88023952,611086aa151462dc0ac8d02b,65d6bb0e977760de756971f7,65d6be508923259cf31ece80,0.1625,0.1627,1,33,195,91,1,sixeight,,,,,,,,,,,,,,,,,,,,,,,,,,,,,,,,,,,,,,,,,,,,,,,,,,,,,,,,,,,,,,,,,,,,,,,,,,,,,,,,,,,,,,,,,,,,,,,,,,,,,,,,,,,,,,,,,,,,,,,,,,,,,,,,,,,,,,,,,
,,611086aa151462dc0ac8d02b,2024-02-22_05h34.32.920,kallum_motion_pilot,2023.2.2,Win32,59.88023952,611086aa151462dc0ac8d02b,65d6bb0e977760de756971f7,65d6be508923259cf31ece80,0.1631,0.1633,1,34,196,53,1,threefour,,,,,,,,,,,,,,,,,,,,,,,,,,,,,,,,,,,,,,,,,,,,,,,,,,,,,,,,,,,,,,,,,,,,,,,,,,,,,,,,,,,,,,,,,,,,,,,,,,,,,,,,,,,,,,,,,,,,,,,,,,,,,,,,,,,,,,,,,
,,611086aa151462dc0ac8d02b,2024-02-22_05h34.32.920,kallum_motion_pilot,2023.2.2,Win32,59.88023952,611086aa151462dc0ac8d02b,65d6bb0e977760de756971f7,65d6be508923259cf31ece80,0.1635,0.1637,1,35,197,143,1,eightseven,,,,,,,,,,,,,,,,,,,,,,,,,,,,,,,,,,,,,,,,,,,,,,,,,,,,,,,,,,,,,,,,,,,,,,,,,,,,,,,,,,,,,,,,,,,,,,,,,,,,,,,,,,,,,,,,,,,,,,,,,,,,,,,,,,,,,,,,,
,,611086aa151462dc0ac8d02b,2024-02-22_05h34.32.920,kallum_motion_pilot,2023.2.2,Win32,59.88023952,611086aa151462dc0ac8d02b,65d6bb0e977760de756971f7,65d6be508923259cf31ece80,0.1638,0.1639,1,36,198,127,1,eightseven,,,,,,,,,,,,,,,,,,,,,,,,,,,,,,,,,,,,,,,,,,,,,,,,,,,,,,,,,,,,,,,,,,,,,,,,,,,,,,,,,,,,,,,,,,,,,,,,,,,,,,,,,,,,,,,,,,,,,,,,,,,,,,,,,,,,,,,,,
,,611086aa151462dc0ac8d02b,2024-02-22_05h34.32.920,kallum_motion_pilot,2023.2.2,Win32,59.88023952,611086aa151462dc0ac8d02b,65d6bb0e977760de756971f7,65d6be508923259cf31ece80,0.1642,0.1643,1,37,199,12,1,threeone,,,,,,,,,,,,,,,,,,,,,,,,,,,,,,,,,,,,,,,,,,,,,,,,,,,,,,,,,,,,,,,,,,,,,,,,,,,,,,,,,,,,,,,,,,,,,,,,,,,,,,,,,,,,,,,,,,,,,,,,,,,,,,,,,,,,,,,,,
,,611086aa151462dc0ac8d02b,2024-02-22_05h34.32.920,kallum_motion_pilot,2023.2.2,Win32,59.88023952,611086aa151462dc0ac8d02b,65d6bb0e977760de756971f7,65d6be508923259cf31ece80,0.1645,0.1646,1,38,200,13,1,threefour,,,,,,,,,,,,,,,,,,,,,,,,,,,,,,,,,,,,,,,,,,,,,,,,,,,,,,,,,,,,,,,,,,,,,,,,,,,,,,,,,,,,,,,,,,,,,,,,,,,,,,,,,,,,,,,,,,,,,,,,,,,,,,,,,,,,,,,,,
,,611086aa151462dc0ac8d02b,2024-02-22_05h34.32.920,kallum_motion_pilot,2023.2.2,Win32,59.88023952,611086aa151462dc0ac8d02b,65d6bb0e977760de756971f7,65d6be508923259cf31ece80,0.1649,0.165,1,39,201,15,1,fourthree,,,,,,,,,,,,,,,,,,,,,,,,,,,,,,,,,,,,,,,,,,,,,,,,,,,,,,,,,,,,,,,,,,,,,,,,,,,,,,,,,,,,,,,,,,,,,,,,,,,,,,,,,,,,,,,,,,,,,,,,,,,,,,,,,,,,,,,,,
,,611086aa151462dc0ac8d02b,2024-02-22_05h34.32.920,kallum_motion_pilot,2023.2.2,Win32,59.88023952,611086aa151462dc0ac8d02b,65d6bb0e977760de756971f7,65d6be508923259cf31ece80,0.1652,0.1656,1,40,202,78,1,fourtwo,,,,,,,,,,,,,,,,,,,,,,,,,,,,,,,,,,,,,,,,,,,,,,,,,,,,,,,,,,,,,,,,,,,,,,,,,,,,,,,,,,,,,,,,,,,,,,,,,,,,,,,,,,,,,,,,,,,,,,,,,,,,,,,,,,,,,,,,,
,,611086aa151462dc0ac8d02b,2024-02-22_05h34.32.920,kallum_motion_pilot,2023.2.2,Win32,59.88023952,611086aa151462dc0ac8d02b,65d6bb0e977760de756971f7,65d6be508923259cf31ece80,0.1659,0.1661,1,41,203,2,1,twoone,,,,,,,,,,,,,,,,,,,,,,,,,,,,,,,,,,,,,,,,,,,,,,,,,,,,,,,,,,,,,,,,,,,,,,,,,,,,,,,,,,,,,,,,,,,,,,,,,,,,,,,,,,,,,,,,,,,,,,,,,,,,,,,,,,,,,,,,,
,,611086aa151462dc0ac8d02b,2024-02-22_05h34.32.920,kallum_motion_pilot,2023.2.2,Win32,59.88023952,611086aa151462dc0ac8d02b,65d6bb0e977760de756971f7,65d6be508923259cf31ece80,0.1663,0.1665,1,42,204,120,1,fivesix,,,,,,,,,,,,,,,,,,,,,,,,,,,,,,,,,,,,,,,,,,,,,,,,,,,,,,,,,,,,,,,,,,,,,,,,,,,,,,,,,,,,,,,,,,,,,,,,,,,,,,,,,,,,,,,,,,,,,,,,,,,,,,,,,,,,,,,,,
,,611086aa151462dc0ac8d02b,2024-02-22_05h34.32.920,kallum_motion_pilot,2023.2.2,Win32,59.88023952,611086aa151462dc0ac8d02b,65d6bb0e977760de756971f7,65d6be508923259cf31ece80,0.1667,0.1668,1,43,205,52,1,threeone,,,,,,,,,,,,,,,,,,,,,,,,,,,,,,,,,,,,,,,,,,,,,,,,,,,,,,,,,,,,,,,,,,,,,,,,,,,,,,,,,,,,,,,,,,,,,,,,,,,,,,,,,,,,,,,,,,,,,,,,,,,,,,,,,,,,,,,,,
,,611086aa151462dc0ac8d02b,2024-02-22_05h34.32.920,kallum_motion_pilot,2023.2.2,Win32,59.88023952,611086aa151462dc0ac8d02b,65d6bb0e977760de756971f7,65d6be508923259cf31ece80,0.1672,0.1674,1,44,206,109,1,seveneight,,,,,,,,,,,,,,,,,,,,,,,,,,,,,,,,,,,,,,,,,,,,,,,,,,,,,,,,,,,,,,,,,,,,,,,,,,,,,,,,,,,,,,,,,,,,,,,,,,,,,,,,,,,,,,,,,,,,,,,,,,,,,,,,,,,,,,,,,
,,611086aa151462dc0ac8d02b,2024-02-22_05h34.32.920,kallum_motion_pilot,2023.2.2,Win32,59.88023952,611086aa151462dc0ac8d02b,65d6bb0e977760de756971f7,65d6be508923259cf31ece80,0.1677,0.168,1,45,207,156,1,sevenfive,,,,,,,,,,,,,,,,,,,,,,,,,,,,,,,,,,,,,,,,,,,,,,,,,,,,,,,,,,,,,,,,,,,,,,,,,,,,,,,,,,,,,,,,,,,,,,,,,,,,,,,,,,,,,,,,,,,,,,,,,,,,,,,,,,,,,,,,,
,,611086aa151462dc0ac8d02b,2024-02-22_05h34.32.920,kallum_motion_pilot,2023.2.2,Win32,59.88023952,611086aa151462dc0ac8d02b,65d6bb0e977760de756971f7,65d6be508923259cf31ece80,0.1684,0.1687,1,46,208,135,1,eightseven,,,,,,,,,,,,,,,,,,,,,,,,,,,,,,,,,,,,,,,,,,,,,,,,,,,,,,,,,,,,,,,,,,,,,,,,,,,,,,,,,,,,,,,,,,,,,,,,,,,,,,,,,,,,,,,,,,,,,,,,,,,,,,,,,,,,,,,,,
,,611086aa151462dc0ac8d02b,2024-02-22_05h34.32.920,kallum_motion_pilot,2023.2.2,Win32,59.88023952,611086aa151462dc0ac8d02b,65d6bb0e977760de756971f7,65d6be508923259cf31ece80,0.169,0.1693,1,47,209,49,1,onethree,,,,,,,,,,,,,,,,,,,,,,,,,,,,,,,,,,,,,,,,,,,,,,,,,,,,,,,,,,,,,,,,,,,,,,,,,,,,,,,,,,,,,,,,,,,,,,,,,,,,,,,,,,,,,,,,,,,,,,,,,,,,,,,,,,,,,,,,,
,,611086aa151462dc0ac8d02b,2024-02-22_05h34.32.920,kallum_motion_pilot,2023.2.2,Win32,59.88023952,611086aa151462dc0ac8d02b,65d6bb0e977760de756971f7,65d6be508923259cf31ece80,0.1696,0.1699,1,48,210,19,1,twofour,,,,,,,,,,,,,,,,,,,,,,,,,,,,,,,,,,,,,,,,,,,,,,,,,,,,,,,,,,,,,,,,,,,,,,,,,,,,,,,,,,,,,,,,,,,,,,,,,,,,,,,,,,,,,,,,,,,,,,,,,,,,,,,,,,,,,,,,,
,,611086aa151462dc0ac8d02b,2024-02-22_05h34.32.920,kallum_motion_pilot,2023.2.2,Win32,59.88023952,611086aa151462dc0ac8d02b,65d6bb0e977760de756971f7,65d6be508923259cf31ece80,0.1703,0.1705,1,49,211,141,1,seveneight,,,,,,,,,,,,,,,,,,,,,,,,,,,,,,,,,,,,,,,,,,,,,,,,,,,,,,,,,,,,,,,,,,,,,,,,,,,,,,,,,,,,,,,,,,,,,,,,,,,,,,,,,,,,,,,,,,,,,,,,,,,,,,,,,,,,,,,,,
,,611086aa151462dc0ac8d02b,2024-02-22_05h34.32.920,kallum_motion_pilot,2023.2.2,Win32,59.88023952,611086aa151462dc0ac8d02b,65d6bb0e977760de756971f7,65d6be508923259cf31ece80,0.1708,0.171,1,50,212,101,1,seveneight,,,,,,,,,,,,,,,,,,,,,,,,,,,,,,,,,,,,,,,,,,,,,,,,,,,,,,,,,,,,,,,,,,,,,,,,,,,,,,,,,,,,,,,,,,,,,,,,,,,,,,,,,,,,,,,,,,,,,,,,,,,,,,,,,,,,,,,,,
,,611086aa151462dc0ac8d02b,2024-02-22_05h34.32.920,kallum_motion_pilot,2023.2.2,Win32,59.88023952,611086aa151462dc0ac8d02b,65d6bb0e977760de756971f7,65d6be508923259cf31ece80,0.1714,0.1717,1,51,213,83,1,sixeight,,,,,,,,,,,,,,,,,,,,,,,,,,,,,,,,,,,,,,,,,,,,,,,,,,,,,,,,,,,,,,,,,,,,,,,,,,,,,,,,,,,,,,,,,,,,,,,,,,,,,,,,,,,,,,,,,,,,,,,,,,,,,,,,,,,,,,,,,
,,611086aa151462dc0ac8d02b,2024-02-22_05h34.32.920,kallum_motion_pilot,2023.2.2,Win32,59.88023952,611086aa151462dc0ac8d02b,65d6bb0e977760de756971f7,65d6be508923259cf31ece80,0.1718,0.172,1,52,214,126,1,eightsix,,,,,,,,,,,,,,,,,,,,,,,,,,,,,,,,,,,,,,,,,,,,,,,,,,,,,,,,,,,,,,,,,,,,,,,,,,,,,,,,,,,,,,,,,,,,,,,,,,,,,,,,,,,,,,,,,,,,,,,,,,,,,,,,,,,,,,,,,
,,611086aa151462dc0ac8d02b,2024-02-22_05h34.32.920,kallum_motion_pilot,2023.2.2,Win32,59.88023952,611086aa151462dc0ac8d02b,65d6bb0e977760de756971f7,65d6be508923259cf31ece80,0.1722,0.1724,1,53,215,92,1,sevenfive,,,,,,,,,,,,,,,,,,,,,,,,,,,,,,,,,,,,,,,,,,,,,,,,,,,,,,,,,,,,,,,,,,,,,,,,,,,,,,,,,,,,,,,,,,,,,,,,,,,,,,,,,,,,,,,,,,,,,,,,,,,,,,,,,,,,,,,,,
,,611086aa151462dc0ac8d02b,2024-02-22_05h34.32.920,kallum_motion_pilot,2023.2.2,Win32,59.88023952,611086aa151462dc0ac8d02b,65d6bb0e977760de756971f7,65d6be508923259cf31ece80,0.1726,0.1727,1,54,216,42,1,twoone,,,,,,,,,,,,,,,,,,,,,,,,,,,,,,,,,,,,,,,,,,,,,,,,,,,,,,,,,,,,,,,,,,,,,,,,,,,,,,,,,,,,,,,,,,,,,,,,,,,,,,,,,,,,,,,,,,,,,,,,,,,,,,,,,,,,,,,,,
,,611086aa151462dc0ac8d02b,2024-02-22_05h34.32.920,kallum_motion_pilot,2023.2.2,Win32,59.88023952,611086aa151462dc0ac8d02b,65d6bb0e977760de756971f7,65d6be508923259cf31ece80,0.173,0.1731,1,55,217,63,1,fourthree,,,,,,,,,,,,,,,,,,,,,,,,,,,,,,,,,,,,,,,,,,,,,,,,,,,,,,,,,,,,,,,,,,,,,,,,,,,,,,,,,,,,,,,,,,,,,,,,,,,,,,,,,,,,,,,,,,,,,,,,,,,,,,,,,,,,,,,,,
,,611086aa151462dc0ac8d02b,2024-02-22_05h34.32.920,kallum_motion_pilot,2023.2.2,Win32,59.88023952,611086aa151462dc0ac8d02b,65d6bb0e977760de756971f7,65d6be508923259cf31ece80,0.1734,0.1735,1,56,218,104,1,fivesix,,,,,,,,,,,,,,,,,,,,,,,,,,,,,,,,,,,,,,,,,,,,,,,,,,,,,,,,,,,,,,,,,,,,,,,,,,,,,,,,,,,,,,,,,,,,,,,,,,,,,,,,,,,,,,,,,,,,,,,,,,,,,,,,,,,,,,,,,
,,611086aa151462dc0ac8d02b,2024-02-22_05h34.32.920,kallum_motion_pilot,2023.2.2,Win32,59.88023952,611086aa151462dc0ac8d02b,65d6bb0e977760de756971f7,65d6be508923259cf31ece80,0.1737,0.1739,1,57,219,134,1,eightsix,,,,,,,,,,,,,,,,,,,,,,,,,,,,,,,,,,,,,,,,,,,,,,,,,,,,,,,,,,,,,,,,,,,,,,,,,,,,,,,,,,,,,,,,,,,,,,,,,,,,,,,,,,,,,,,,,,,,,,,,,,,,,,,,,,,,,,,,,
,,611086aa151462dc0ac8d02b,2024-02-22_05h34.32.920,kallum_motion_pilot,2023.2.2,Win32,59.88023952,611086aa151462dc0ac8d02b,65d6bb0e977760de756971f7,65d6be508923259cf31ece80,0.174,0.1741,1,58,220,146,1,sixfive,,,,,,,,,,,,,,,,,,,,,,,,,,,,,,,,,,,,,,,,,,,,,,,,,,,,,,,,,,,,,,,,,,,,,,,,,,,,,,,,,,,,,,,,,,,,,,,,,,,,,,,,,,,,,,,,,,,,,,,,,,,,,,,,,,,,,,,,,
,,611086aa151462dc0ac8d02b,2024-02-22_05h34.32.920,kallum_motion_pilot,2023.2.2,Win32,59.88023952,611086aa151462dc0ac8d02b,65d6bb0e977760de756971f7,65d6be508923259cf31ece80,0.1744,0.1745,1,59,221,24,1,onetwo,,,,,,,,,,,,,,,,,,,,,,,,,,,,,,,,,,,,,,,,,,,,,,,,,,,,,,,,,,,,,,,,,,,,,,,,,,,,,,,,,,,,,,,,,,,,,,,,,,,,,,,,,,,,,,,,,,,,,,,,,,,,,,,,,,,,,,,,,
,,611086aa151462dc0ac8d02b,2024-02-22_05h34.32.920,kallum_motion_pilot,2023.2.2,Win32,59.88023952,611086aa151462dc0ac8d02b,65d6bb0e977760de756971f7,65d6be508923259cf31ece80,0.1748,0.1749,1,60,222,69,1,threefour,,,,,,,,,,,,,,,,,,,,,,,,,,,,,,,,,,,,,,,,,,,,,,,,,,,,,,,,,,,,,,,,,,,,,,,,,,,,,,,,,,,,,,,,,,,,,,,,,,,,,,,,,,,,,,,,,,,,,,,,,,,,,,,,,,,,,,,,,
,,611086aa151462dc0ac8d02b,2024-02-22_05h34.32.920,kallum_motion_pilot,2023.2.2,Win32,59.88023952,611086aa151462dc0ac8d02b,65d6bb0e977760de756971f7,65d6be508923259cf31ece80,0.1751,0.1752,1,61,223,142,1,eightsix,,,,,,,,,,,,,,,,,,,,,,,,,,,,,,,,,,,,,,,,,,,,,,,,,,,,,,,,,,,,,,,,,,,,,,,,,,,,,,,,,,,,,,,,,,,,,,,,,,,,,,,,,,,,,,,,,,,,,,,,,,,,,,,,,,,,,,,,,
,,611086aa151462dc0ac8d02b,2024-02-22_05h34.32.920,kallum_motion_pilot,2023.2.2,Win32,59.88023952,611086aa151462dc0ac8d02b,65d6bb0e977760de756971f7,65d6be508923259cf31ece80,0.1755,0.1756,1,62,224,54,1,fourtwo,,,,,,,,,,,,,,,,,,,,,,,,,,,,,,,,,,,,,,,,,,,,,,,,,,,,,,,,,,,,,,,,,,,,,,,,,,,,,,,,,,,,,,,,,,,,,,,,,,,,,,,,,,,,,,,,,,,,,,,,,,,,,,,,,,,,,,,,,
,,611086aa151462dc0ac8d02b,2024-02-22_05h34.32.920,kallum_motion_pilot,2023.2.2,Win32,59.88023952,611086aa151462dc0ac8d02b,65d6bb0e977760de756971f7,65d6be508923259cf31ece80,0.1758,0.1759,1,63,225,16,1,onetwo,,,,,,,,,,,,,,,,,,,,,,,,,,,,,,,,,,,,,,,,,,,,,,,,,,,,,,,,,,,,,,,,,,,,,,,,,,,,,,,,,,,,,,,,,,,,,,,,,,,,,,,,,,,,,,,,,,,,,,,,,,,,,,,,,,,,,,,,,
,,611086aa151462dc0ac8d02b,2024-02-22_05h34.32.920,kallum_motion_pilot,2023.2.2,Win32,59.88023952,611086aa151462dc0ac8d02b,65d6bb0e977760de756971f7,65d6be508923259cf31ece80,0.1762,0.1762,1,64,226,138,1,sixfive,,,,,,,,,,,,,,,,,,,,,,,,,,,,,,,,,,,,,,,,,,,,,,,,,,,,,,,,,,,,,,,,,,,,,,,,,,,,,,,,,,,,,,,,,,,,,,,,,,,,,,,,,,,,,,,,,,,,,,,,,,,,,,,,,,,,,,,,,
,,611086aa151462dc0ac8d02b,2024-02-22_05h34.32.920,kallum_motion_pilot,2023.2.2,Win32,59.88023952,611086aa151462dc0ac8d02b,65d6bb0e977760de756971f7,65d6be508923259cf31ece80,0.1764,0.1766,1,65,227,103,1,eightseven,,,,,,,,,,,,,,,,,,,,,,,,,,,,,,,,,,,,,,,,,,,,,,,,,,,,,,,,,,,,,,,,,,,,,,,,,,,,,,,,,,,,,,,,,,,,,,,,,,,,,,,,,,,,,,,,,,,,,,,,,,,,,,,,,,,,,,,,,
,,611086aa151462dc0ac8d02b,2024-02-22_05h34.32.920,kallum_motion_pilot,2023.2.2,Win32,59.88023952,611086aa151462dc0ac8d02b,65d6bb0e977760de756971f7,65d6be508923259cf31ece80,0.1768,0.177,1,66,228,18,1,twoone,,,,,,,,,,,,,,,,,,,,,,,,,,,,,,,,,,,,,,,,,,,,,,,,,,,,,,,,,,,,,,,,,,,,,,,,,,,,,,,,,,,,,,,,,,,,,,,,,,,,,,,,,,,,,,,,,,,,,,,,,,,,,,,,,,,,,,,,,
,,611086aa151462dc0ac8d02b,2024-02-22_05h34.32.920,kallum_motion_pilot,2023.2.2,Win32,59.88023952,611086aa151462dc0ac8d02b,65d6bb0e977760de756971f7,65d6be508923259cf31ece80,0.1771,0.1773,1,67,229,118,1,eightsix,,,,,,,,,,,,,,,,,,,,,,,,,,,,,,,,,,,,,,,,,,,,,,,,,,,,,,,,,,,,,,,,,,,,,,,,,,,,,,,,,,,,,,,,,,,,,,,,,,,,,,,,,,,,,,,,,,,,,,,,,,,,,,,,,,,,,,,,,
,,611086aa151462dc0ac8d02b,2024-02-22_05h34.32.920,kallum_motion_pilot,2023.2.2,Win32,59.88023952,611086aa151462dc0ac8d02b,65d6bb0e977760de756971f7,65d6be508923259cf31ece80,0.1774,0.1776,1,68,230,113,1,fiveseven,,,,,,,,,,,,,,,,,,,,,,,,,,,,,,,,,,,,,,,,,,,,,,,,,,,,,,,,,,,,,,,,,,,,,,,,,,,,,,,,,,,,,,,,,,,,,,,,,,,,,,,,,,,,,,,,,,,,,,,,,,,,,,,,,,,,,,,,,
,,611086aa151462dc0ac8d02b,2024-02-22_05h34.32.920,kallum_motion_pilot,2023.2.2,Win32,59.88023952,611086aa151462dc0ac8d02b,65d6bb0e977760de756971f7,65d6be508923259cf31ece80,0.1778,0.178,1,69,231,100,1,sevenfive,,,,,,,,,,,,,,,,,,,,,,,,,,,,,,,,,,,,,,,,,,,,,,,,,,,,,,,,,,,,,,,,,,,,,,,,,,,,,,,,,,,,,,,,,,,,,,,,,,,,,,,,,,,,,,,,,,,,,,,,,,,,,,,,,,,,,,,,,
,,611086aa151462dc0ac8d02b,2024-02-22_05h34.32.920,kallum_motion_pilot,2023.2.2,Win32,59.88023952,611086aa151462dc0ac8d02b,65d6bb0e977760de756971f7,65d6be508923259cf31ece80,0.1782,0.1785,1,70,232,158,1,eightsix,,,,,,,,,,,,,,,,,,,,,,,,,,,,,,,,,,,,,,,,,,,,,,,,,,,,,,,,,,,,,,,,,,,,,,,,,,,,,,,,,,,,,,,,,,,,,,,,,,,,,,,,,,,,,,,,,,,,,,,,,,,,,,,,,,,,,,,,,
,,611086aa151462dc0ac8d02b,2024-02-22_05h34.32.920,kallum_motion_pilot,2023.2.2,Win32,59.88023952,611086aa151462dc0ac8d02b,65d6bb0e977760de756971f7,65d6be508923259cf31ece80,0.1789,0.1791,1,71,233,36,1,threeone,,,,,,,,,,,,,,,,,,,,,,,,,,,,,,,,,,,,,,,,,,,,,,,,,,,,,,,,,,,,,,,,,,,,,,,,,,,,,,,,,,,,,,,,,,,,,,,,,,,,,,,,,,,,,,,,,,,,,,,,,,,,,,,,,,,,,,,,,
,,611086aa151462dc0ac8d02b,2024-02-22_05h34.32.920,kallum_motion_pilot,2023.2.2,Win32,59.88023952,611086aa151462dc0ac8d02b,65d6bb0e977760de756971f7,65d6be508923259cf31ece80,0.1794,0.1795,1,72,234,139,1,sixeight,,,,,,,,,,,,,,,,,,,,,,,,,,,,,,,,,,,,,,,,,,,,,,,,,,,,,,,,,,,,,,,,,,,,,,,,,,,,,,,,,,,,,,,,,,,,,,,,,,,,,,,,,,,,,,,,,,,,,,,,,,,,,,,,,,,,,,,,,
,,611086aa151462dc0ac8d02b,2024-02-22_05h34.32.920,kallum_motion_pilot,2023.2.2,Win32,59.88023952,611086aa151462dc0ac8d02b,65d6bb0e977760de756971f7,65d6be508923259cf31ece80,0.1798,0.1799,1,73,235,65,1,onethree,,,,,,,,,,,,,,,,,,,,,,,,,,,,,,,,,,,,,,,,,,,,,,,,,,,,,,,,,,,,,,,,,,,,,,,,,,,,,,,,,,,,,,,,,,,,,,,,,,,,,,,,,,,,,,,,,,,,,,,,,,,,,,,,,,,,,,,,,
,,611086aa151462dc0ac8d02b,2024-02-22_05h34.32.920,kallum_motion_pilot,2023.2.2,Win32,59.88023952,611086aa151462dc0ac8d02b,65d6bb0e977760de756971f7,65d6be508923259cf31ece80,0.1801,0.1803,1,74,236,61,1,threefour,,,,,,,,,,,,,,,,,,,,,,,,,,,,,,,,,,,,,,,,,,,,,,,,,,,,,,,,,,,,,,,,,,,,,,,,,,,,,,,,,,,,,,,,,,,,,,,,,,,,,,,,,,,,,,,,,,,,,,,,,,,,,,,,,,,,,,,,,
,,611086aa151462dc0ac8d02b,2024-02-22_05h34.32.920,kallum_motion_pilot,2023.2.2,Win32,59.88023952,611086aa151462dc0ac8d02b,65d6bb0e977760de756971f7,65d6be508923259cf31ece80,0.1805,0.1806,1,75,237,57,1,onethree,,,,,,,,,,,,,,,,,,,,,,,,,,,,,,,,,,,,,,,,,,,,,,,,,,,,,,,,,,,,,,,,,,,,,,,,,,,,,,,,,,,,,,,,,,,,,,,,,,,,,,,,,,,,,,,,,,,,,,,,,,,,,,,,,,,,,,,,,
,,611086aa151462dc0ac8d02b,2024-02-22_05h34.32.920,kallum_motion_pilot,2023.2.2,Win32,59.88023952,611086aa151462dc0ac8d02b,65d6bb0e977760de756971f7,65d6be508923259cf31ece80,0.1809,0.1811,1,76,238,117,1,seveneight,,,,,,,,,,,,,,,,,,,,,,,,,,,,,,,,,,,,,,,,,,,,,,,,,,,,,,,,,,,,,,,,,,,,,,,,,,,,,,,,,,,,,,,,,,,,,,,,,,,,,,,,,,,,,,,,,,,,,,,,,,,,,,,,,,,,,,,,,
,,611086aa151462dc0ac8d02b,2024-02-22_05h34.32.920,kallum_motion_pilot,2023.2.2,Win32,59.88023952,611086aa151462dc0ac8d02b,65d6bb0e977760de756971f7,65d6be508923259cf31ece80,0.1813,0.1814,1,77,239,90,1,sixfive,,,,,,,,,,,,,,,,,,,,,,,,,,,,,,,,,,,,,,,,,,,,,,,,,,,,,,,,,,,,,,,,,,,,,,,,,,,,,,,,,,,,,,,,,,,,,,,,,,,,,,,,,,,,,,,,,,,,,,,,,,,,,,,,,,,,,,,,,
,,611086aa151462dc0ac8d02b,2024-02-22_05h34.32.920,kallum_motion_pilot,2023.2.2,Win32,59.88023952,611086aa151462dc0ac8d02b,65d6bb0e977760de756971f7,65d6be508923259cf31ece80,0.1817,0.1819,1,78,240,38,1,fourtwo,,,,,,,,,,,,,,,,,,,,,,,,,,,,,,,,,,,,,,,,,,,,,,,,,,,,,,,,,,,,,,,,,,,,,,,,,,,,,,,,,,,,,,,,,,,,,,,,,,,,,,,,,,,,,,,,,,,,,,,,,,,,,,,,,,,,,,,,,
,,611086aa151462dc0ac8d02b,2024-02-22_05h34.32.920,kallum_motion_pilot,2023.2.2,Win32,59.88023952,611086aa151462dc0ac8d02b,65d6bb0e977760de756971f7,65d6be508923259cf31ece80,0.1822,0.1824,1,79,241,115,1,sixeight,,,,,,,,,,,,,,,,,,,,,,,,,,,,,,,,,,,,,,,,,,,,,,,,,,,,,,,,,,,,,,,,,,,,,,,,,,,,,,,,,,,,,,,,,,,,,,,,,,,,,,,,,,,,,,,,,,,,,,,,,,,,,,,,,,,,,,,,,
,,611086aa151462dc0ac8d02b,2024-02-22_05h34.32.920,kallum_motion_pilot,2023.2.2,Win32,59.88023952,611086aa151462dc0ac8d02b,65d6bb0e977760de756971f7,65d6be508923259cf31ece80,0.1826,0.1827,1,80,242,98,1,sixfive,,,,,,,,,,,,,,,,,,,,,,,,,,,,,,,,,,,,,,,,,,,,,,,,,,,,,,,,,,,,,,,,,,,,,,,,,,,,,,,,,,,,,,,,,,,,,,,,,,,,,,,,,,,,,,,,,,,,,,,,,,,,,,,,,,,,,,,,,
,,611086aa151462dc0ac8d02b,2024-02-22_05h34.32.920,kallum_motion_pilot,2023.2.2,Win32,59.88023952,611086aa151462dc0ac8d02b,65d6bb0e977760de756971f7,65d6be508923259cf31ece80,0.183,0.1831,1,81,243,140,1,sevenfive,,,,,,,,,,,,,,,,,,,,,,,,,,,,,,,,,,,,,,,,,,,,,,,,,,,,,,,,,,,,,,,,,,,,,,,,,,,,,,,,,,,,,,,,,,,,,,,,,,,,,,,,,,,,,,,,,,,,,,,,,,,,,,,,,,,,,,,,,
,,611086aa151462dc0ac8d02b,2024-02-22_05h34.32.920,kallum_motion_pilot,2023.2.2,Win32,59.88023952,611086aa151462dc0ac8d02b,65d6bb0e977760de756971f7,65d6be508923259cf31ece80,0.1833,0.1835,1,82,244,82,1,sixfive,,,,,,,,,,,,,,,,,,,,,,,,,,,,,,,,,,,,,,,,,,,,,,,,,,,,,,,,,,,,,,,,,,,,,,,,,,,,,,,,,,,,,,,,,,,,,,,,,,,,,,,,,,,,,,,,,,,,,,,,,,,,,,,,,,,,,,,,,
,,611086aa151462dc0ac8d02b,2024-02-22_05h34.32.920,kallum_motion_pilot,2023.2.2,Win32,59.88023952,611086aa151462dc0ac8d02b,65d6bb0e977760de756971f7,65d6be508923259cf31ece80,0.1836,0.1839,1,83,245,111,1,eightseven,,,,,,,,,,,,,,,,,,,,,,,,,,,,,,,,,,,,,,,,,,,,,,,,,,,,,,,,,,,,,,,,,,,,,,,,,,,,,,,,,,,,,,,,,,,,,,,,,,,,,,,,,,,,,,,,,,,,,,,,,,,,,,,,,,,,,,,,,
,,611086aa151462dc0ac8d02b,2024-02-22_05h34.32.920,kallum_motion_pilot,2023.2.2,Win32,59.88023952,611086aa151462dc0ac8d02b,65d6bb0e977760de756971f7,65d6be508923259cf31ece80,0.184,0.1842,1,84,246,23,1,fourthree,,,,,,,,,,,,,,,,,,,,,,,,,,,,,,,,,,,,,,,,,,,,,,,,,,,,,,,,,,,,,,,,,,,,,,,,,,,,,,,,,,,,,,,,,,,,,,,,,,,,,,,,,,,,,,,,,,,,,,,,,,,,,,,,,,,,,,,,,
,,611086aa151462dc0ac8d02b,2024-02-22_05h34.32.920,kallum_motion_pilot,2023.2.2,Win32,59.88023952,611086aa151462dc0ac8d02b,65d6bb0e977760de756971f7,65d6be508923259cf31ece80,0.1844,0.1846,1,85,247,26,1,twoone,,,,,,,,,,,,,,,,,,,,,,,,,,,,,,,,,,,,,,,,,,,,,,,,,,,,,,,,,,,,,,,,,,,,,,,,,,,,,,,,,,,,,,,,,,,,,,,,,,,,,,,,,,,,,,,,,,,,,,,,,,,,,,,,,,,,,,,,,
,,611086aa151462dc0ac8d02b,2024-02-22_05h34.32.920,kallum_motion_pilot,2023.2.2,Win32,59.88023952,611086aa151462dc0ac8d02b,65d6bb0e977760de756971f7,65d6be508923259cf31ece80,0.1847,0.1849,1,86,248,35,1,twofour,,,,,,,,,,,,,,,,,,,,,,,,,,,,,,,,,,,,,,,,,,,,,,,,,,,,,,,,,,,,,,,,,,,,,,,,,,,,,,,,,,,,,,,,,,,,,,,,,,,,,,,,,,,,,,,,,,,,,,,,,,,,,,,,,,,,,,,,,
,,611086aa151462dc0ac8d02b,2024-02-22_05h34.32.920,kallum_motion_pilot,2023.2.2,Win32,59.88023952,611086aa151462dc0ac8d02b,65d6bb0e977760de756971f7,65d6be508923259cf31ece80,0.1851,0.1852,1,87,249,59,1,twofour,,,,,,,,,,,,,,,,,,,,,,,,,,,,,,,,,,,,,,,,,,,,,,,,,,,,,,,,,,,,,,,,,,,,,,,,,,,,,,,,,,,,,,,,,,,,,,,,,,,,,,,,,,,,,,,,,,,,,,,,,,,,,,,,,,,,,,,,,
,,611086aa151462dc0ac8d02b,2024-02-22_05h34.32.920,kallum_motion_pilot,2023.2.2,Win32,59.88023952,611086aa151462dc0ac8d02b,65d6bb0e977760de756971f7,65d6be508923259cf31ece80,0.1854,0.1856,1,88,250,11,1,twofour,,,,,,,,,,,,,,,,,,,,,,,,,,,,,,,,,,,,,,,,,,,,,,,,,,,,,,,,,,,,,,,,,,,,,,,,,,,,,,,,,,,,,,,,,,,,,,,,,,,,,,,,,,,,,,,,,,,,,,,,,,,,,,,,,,,,,,,,,
,,611086aa151462dc0ac8d02b,2024-02-22_05h34.32.920,kallum_motion_pilot,2023.2.2,Win32,59.88023952,611086aa151462dc0ac8d02b,65d6bb0e977760de756971f7,65d6be508923259cf31ece80,0.1857,0.1859,1,89,251,47,1,fourthree,,,,,,,,,,,,,,,,,,,,,,,,,,,,,,,,,,,,,,,,,,,,,,,,,,,,,,,,,,,,,,,,,,,,,,,,,,,,,,,,,,,,,,,,,,,,,,,,,,,,,,,,,,,,,,,,,,,,,,,,,,,,,,,,,,,,,,,,,
,,611086aa151462dc0ac8d02b,2024-02-22_05h34.32.920,kallum_motion_pilot,2023.2.2,Win32,59.88023952,611086aa151462dc0ac8d02b,65d6bb0e977760de756971f7,65d6be508923259cf31ece80,0.1861,0.1862,1,90,252,86,1,eightsix,,,,,,,,,,,,,,,,,,,,,,,,,,,,,,,,,,,,,,,,,,,,,,,,,,,,,,,,,,,,,,,,,,,,,,,,,,,,,,,,,,,,,,,,,,,,,,,,,,,,,,,,,,,,,,,,,,,,,,,,,,,,,,,,,,,,,,,,,
,,611086aa151462dc0ac8d02b,2024-02-22_05h34.32.920,kallum_motion_pilot,2023.2.2,Win32,59.88023952,611086aa151462dc0ac8d02b,65d6bb0e977760de756971f7,65d6be508923259cf31ece80,0.1864,0.1866,1,91,253,74,1,twoone,,,,,,,,,,,,,,,,,,,,,,,,,,,,,,,,,,,,,,,,,,,,,,,,,,,,,,,,,,,,,,,,,,,,,,,,,,,,,,,,,,,,,,,,,,,,,,,,,,,,,,,,,,,,,,,,,,,,,,,,,,,,,,,,,,,,,,,,,
,,611086aa151462dc0ac8d02b,2024-02-22_05h34.32.920,kallum_motion_pilot,2023.2.2,Win32,59.88023952,611086aa151462dc0ac8d02b,65d6bb0e977760de756971f7,65d6be508923259cf31ece80,0.1867,0.1869,1,92,254,4,1,threeone,,,,,,,,,,,,,,,,,,,,,,,,,,,,,,,,,,,,,,,,,,,,,,,,,,,,,,,,,,,,,,,,,,,,,,,,,,,,,,,,,,,,,,,,,,,,,,,,,,,,,,,,,,,,,,,,,,,,,,,,,,,,,,,,,,,,,,,,,
,,611086aa151462dc0ac8d02b,2024-02-22_05h34.32.920,kallum_motion_pilot,2023.2.2,Win32,59.88023952,611086aa151462dc0ac8d02b,65d6bb0e977760de756971f7,65d6be508923259cf31ece80,0.1872,0.1877,1,93,255,87,1,eightseven,,,,,,,,,,,,,,,,,,,,,,,,,,,,,,,,,,,,,,,,,,,,,,,,,,,,,,,,,,,,,,,,,,,,,,,,,,,,,,,,,,,,,,,,,,,,,,,,,,,,,,,,,,,,,,,,,,,,,,,,,,,,,,,,,,,,,,,,,
,,611086aa151462dc0ac8d02b,2024-02-22_05h34.32.920,kallum_motion_pilot,2023.2.2,Win32,59.88023952,611086aa151462dc0ac8d02b,65d6bb0e977760de756971f7,65d6be508923259cf31ece80,0.188,0.1882,1,94,256,60,1,threeone,,,,,,,,,,,,,,,,,,,,,,,,,,,,,,,,,,,,,,,,,,,,,,,,,,,,,,,,,,,,,,,,,,,,,,,,,,,,,,,,,,,,,,,,,,,,,,,,,,,,,,,,,,,,,,,,,,,,,,,,,,,,,,,,,,,,,,,,,
,,611086aa151462dc0ac8d02b,2024-02-22_05h34.32.920,kallum_motion_pilot,2023.2.2,Win32,59.88023952,611086aa151462dc0ac8d02b,65d6bb0e977760de756971f7,65d6be508923259cf31ece80,0.1885,0.1886,1,95,257,77,1,threefour,,,,,,,,,,,,,,,,,,,,,,,,,,,,,,,,,,,,,,,,,,,,,,,,,,,,,,,,,,,,,,,,,,,,,,,,,,,,,,,,,,,,,,,,,,,,,,,,,,,,,,,,,,,,,,,,,,,,,,,,,,,,,,,,,,,,,,,,,
,,611086aa151462dc0ac8d02b,2024-02-22_05h34.32.920,kallum_motion_pilot,2023.2.2,Win32,59.88023952,611086aa151462dc0ac8d02b,65d6bb0e977760de756971f7,65d6be508923259cf31ece80,0.1888,0.189,1,96,258,46,1,fourtwo,,,,,,,,,,,,,,,,,,,,,,,,,,,,,,,,,,,,,,,,,,,,,,,,,,,,,,,,,,,,,,,,,,,,,,,,,,,,,,,,,,,,,,,,,,,,,,,,,,,,,,,,,,,,,,,,,,,,,,,,,,,,,,,,,,,,,,,,,
,,611086aa151462dc0ac8d02b,2024-02-22_05h34.32.920,kallum_motion_pilot,2023.2.2,Win32,59.88023952,611086aa151462dc0ac8d02b,65d6bb0e977760de756971f7,65d6be508923259cf31ece80,0.1891,0.1894,1,97,259,131,1,sixeight,,,,,,,,,,,,,,,,,,,,,,,,,,,,,,,,,,,,,,,,,,,,,,,,,,,,,,,,,,,,,,,,,,,,,,,,,,,,,,,,,,,,,,,,,,,,,,,,,,,,,,,,,,,,,,,,,,,,,,,,,,,,,,,,,,,,,,,,,
,,611086aa151462dc0ac8d02b,2024-02-22_05h34.32.920,kallum_motion_pilot,2023.2.2,Win32,59.88023952,611086aa151462dc0ac8d02b,65d6bb0e977760de756971f7,65d6be508923259cf31ece80,0.1895,0.1897,1,98,260,32,1,onetwo,,,,,,,,,,,,,,,,,,,,,,,,,,,,,,,,,,,,,,,,,,,,,,,,,,,,,,,,,,,,,,,,,,,,,,,,,,,,,,,,,,,,,,,,,,,,,,,,,,,,,,,,,,,,,,,,,,,,,,,,,,,,,,,,,,,,,,,,,
,,611086aa151462dc0ac8d02b,2024-02-22_05h34.32.920,kallum_motion_pilot,2023.2.2,Win32,59.88023952,611086aa151462dc0ac8d02b,65d6bb0e977760de756971f7,65d6be508923259cf31ece80,0.1898,0.19,1,99,261,160,1,fivesix,,,,,,,,,,,,,,,,,,,,,,,,,,,,,,,,,,,,,,,,,,,,,,,,,,,,,,,,,,,,,,,,,,,,,,,,,,,,,,,,,,,,,,,,,,,,,,,,,,,,,,,,,,,,,,,,,,,,,,,,,,,,,,,,,,,,,,,,,
,,611086aa151462dc0ac8d02b,2024-02-22_05h34.32.920,kallum_motion_pilot,2023.2.2,Win32,59.88023952,611086aa151462dc0ac8d02b,65d6bb0e977760de756971f7,65d6be508923259cf31ece80,0.1902,0.1904,1,100,262,89,1,fiveseven,,,,,,,,,,,,,,,,,,,,,,,,,,,,,,,,,,,,,,,,,,,,,,,,,,,,,,,,,,,,,,,,,,,,,,,,,,,,,,,,,,,,,,,,,,,,,,,,,,,,,,,,,,,,,,,,,,,,,,,,,,,,,,,,,,,,,,,,,
,,611086aa151462dc0ac8d02b,2024-02-22_05h34.32.920,kallum_motion_pilot,2023.2.2,Win32,59.88023952,611086aa151462dc0ac8d02b,65d6bb0e977760de756971f7,65d6be508923259cf31ece80,0.1906,0.1907,1,101,263,10,1,twoone,,,,,,,,,,,,,,,,,,,,,,,,,,,,,,,,,,,,,,,,,,,,,,,,,,,,,,,,,,,,,,,,,,,,,,,,,,,,,,,,,,,,,,,,,,,,,,,,,,,,,,,,,,,,,,,,,,,,,,,,,,,,,,,,,,,,,,,,,
,,611086aa151462dc0ac8d02b,2024-02-22_05h34.32.920,kallum_motion_pilot,2023.2.2,Win32,59.88023952,611086aa151462dc0ac8d02b,65d6bb0e977760de756971f7,65d6be508923259cf31ece80,0.1912,0.1915,1,102,264,1,1,onethree,,,,,,,,,,,,,,,,,,,,,,,,,,,,,,,,,,,,,,,,,,,,,,,,,,,,,,,,,,,,,,,,,,,,,,,,,,,,,,,,,,,,,,,,,,,,,,,,,,,,,,,,,,,,,,,,,,,,,,,,,,,,,,,,,,,,,,,,,
,,611086aa151462dc0ac8d02b,2024-02-22_05h34.32.920,kallum_motion_pilot,2023.2.2,Win32,59.88023952,611086aa151462dc0ac8d02b,65d6bb0e977760de756971f7,65d6be508923259cf31ece80,0.1918,0.1919,1,103,265,147,1,sixeight,,,,,,,,,,,,,,,,,,,,,,,,,,,,,,,,,,,,,,,,,,,,,,,,,,,,,,,,,,,,,,,,,,,,,,,,,,,,,,,,,,,,,,,,,,,,,,,,,,,,,,,,,,,,,,,,,,,,,,,,,,,,,,,,,,,,,,,,,
,,611086aa151462dc0ac8d02b,2024-02-22_05h34.32.920,kallum_motion_pilot,2023.2.2,Win32,59.88023952,611086aa151462dc0ac8d02b,65d6bb0e977760de756971f7,65d6be508923259cf31ece80,0.1921,0.1923,1,104,266,22,1,fourtwo,,,,,,,,,,,,,,,,,,,,,,,,,,,,,,,,,,,,,,,,,,,,,,,,,,,,,,,,,,,,,,,,,,,,,,,,,,,,,,,,,,,,,,,,,,,,,,,,,,,,,,,,,,,,,,,,,,,,,,,,,,,,,,,,,,,,,,,,,
,,611086aa151462dc0ac8d02b,2024-02-22_05h34.32.920,kallum_motion_pilot,2023.2.2,Win32,59.88023952,611086aa151462dc0ac8d02b,65d6bb0e977760de756971f7,65d6be508923259cf31ece80,0.1926,0.1929,1,105,267,29,1,threefour,,,,,,,,,,,,,,,,,,,,,,,,,,,,,,,,,,,,,,,,,,,,,,,,,,,,,,,,,,,,,,,,,,,,,,,,,,,,,,,,,,,,,,,,,,,,,,,,,,,,,,,,,,,,,,,,,,,,,,,,,,,,,,,,,,,,,,,,,
,,611086aa151462dc0ac8d02b,2024-02-22_05h34.32.920,kallum_motion_pilot,2023.2.2,Win32,59.88023952,611086aa151462dc0ac8d02b,65d6bb0e977760de756971f7,65d6be508923259cf31ece80,0.1931,0.1932,1,106,268,85,1,seveneight,,,,,,,,,,,,,,,,,,,,,,,,,,,,,,,,,,,,,,,,,,,,,,,,,,,,,,,,,,,,,,,,,,,,,,,,,,,,,,,,,,,,,,,,,,,,,,,,,,,,,,,,,,,,,,,,,,,,,,,,,,,,,,,,,,,,,,,,,
,,611086aa151462dc0ac8d02b,2024-02-22_05h34.32.920,kallum_motion_pilot,2023.2.2,Win32,59.88023952,611086aa151462dc0ac8d02b,65d6bb0e977760de756971f7,65d6be508923259cf31ece80,0.1935,0.1936,1,107,269,107,1,sixeight,,,,,,,,,,,,,,,,,,,,,,,,,,,,,,,,,,,,,,,,,,,,,,,,,,,,,,,,,,,,,,,,,,,,,,,,,,,,,,,,,,,,,,,,,,,,,,,,,,,,,,,,,,,,,,,,,,,,,,,,,,,,,,,,,,,,,,,,,
,,611086aa151462dc0ac8d02b,2024-02-22_05h34.32.920,kallum_motion_pilot,2023.2.2,Win32,59.88023952,611086aa151462dc0ac8d02b,65d6bb0e977760de756971f7,65d6be508923259cf31ece80,0.1938,0.194,1,108,270,43,1,twofour,,,,,,,,,,,,,,,,,,,,,,,,,,,,,,,,,,,,,,,,,,,,,,,,,,,,,,,,,,,,,,,,,,,,,,,,,,,,,,,,,,,,,,,,,,,,,,,,,,,,,,,,,,,,,,,,,,,,,,,,,,,,,,,,,,,,,,,,,
,,611086aa151462dc0ac8d02b,2024-02-22_05h34.32.920,kallum_motion_pilot,2023.2.2,Win32,59.88023952,611086aa151462dc0ac8d02b,65d6bb0e977760de756971f7,65d6be508923259cf31ece80,0.1942,0.1943,1,109,271,152,1,fivesix,,,,,,,,,,,,,,,,,,,,,,,,,,,,,,,,,,,,,,,,,,,,,,,,,,,,,,,,,,,,,,,,,,,,,,,,,,,,,,,,,,,,,,,,,,,,,,,,,,,,,,,,,,,,,,,,,,,,,,,,,,,,,,,,,,,,,,,,,
,,611086aa151462dc0ac8d02b,2024-02-22_05h34.32.920,kallum_motion_pilot,2023.2.2,Win32,59.88023952,611086aa151462dc0ac8d02b,65d6bb0e977760de756971f7,65d6be508923259cf31ece80,0.1945,0.1947,1,110,272,149,1,seveneight,,,,,,,,,,,,,,,,,,,,,,,,,,,,,,,,,,,,,,,,,,,,,,,,,,,,,,,,,,,,,,,,,,,,,,,,,,,,,,,,,,,,,,,,,,,,,,,,,,,,,,,,,,,,,,,,,,,,,,,,,,,,,,,,,,,,,,,,,
,,611086aa151462dc0ac8d02b,2024-02-22_05h34.32.920,kallum_motion_pilot,2023.2.2,Win32,59.88023952,611086aa151462dc0ac8d02b,65d6bb0e977760de756971f7,65d6be508923259cf31ece80,0.1949,0.195,1,111,273,102,1,eightsix,,,,,,,,,,,,,,,,,,,,,,,,,,,,,,,,,,,,,,,,,,,,,,,,,,,,,,,,,,,,,,,,,,,,,,,,,,,,,,,,,,,,,,,,,,,,,,,,,,,,,,,,,,,,,,,,,,,,,,,,,,,,,,,,,,,,,,,,,
,,611086aa151462dc0ac8d02b,2024-02-22_05h34.32.920,kallum_motion_pilot,2023.2.2,Win32,59.88023952,611086aa151462dc0ac8d02b,65d6bb0e977760de756971f7,65d6be508923259cf31ece80,0.1952,0.1954,1,112,274,148,1,sevenfive,,,,,,,,,,,,,,,,,,,,,,,,,,,,,,,,,,,,,,,,,,,,,,,,,,,,,,,,,,,,,,,,,,,,,,,,,,,,,,,,,,,,,,,,,,,,,,,,,,,,,,,,,,,,,,,,,,,,,,,,,,,,,,,,,,,,,,,,,
,,611086aa151462dc0ac8d02b,2024-02-22_05h34.32.920,kallum_motion_pilot,2023.2.2,Win32,59.88023952,611086aa151462dc0ac8d02b,65d6bb0e977760de756971f7,65d6be508923259cf31ece80,0.1956,0.1958,1,113,275,122,1,sixfive,,,,,,,,,,,,,,,,,,,,,,,,,,,,,,,,,,,,,,,,,,,,,,,,,,,,,,,,,,,,,,,,,,,,,,,,,,,,,,,,,,,,,,,,,,,,,,,,,,,,,,,,,,,,,,,,,,,,,,,,,,,,,,,,,,,,,,,,,
,,611086aa151462dc0ac8d02b,2024-02-22_05h34.32.920,kallum_motion_pilot,2023.2.2,Win32,59.88023952,611086aa151462dc0ac8d02b,65d6bb0e977760de756971f7,65d6be508923259cf31ece80,0.1959,0.1961,1,114,276,7,1,fourthree,,,,,,,,,,,,,,,,,,,,,,,,,,,,,,,,,,,,,,,,,,,,,,,,,,,,,,,,,,,,,,,,,,,,,,,,,,,,,,,,,,,,,,,,,,,,,,,,,,,,,,,,,,,,,,,,,,,,,,,,,,,,,,,,,,,,,,,,,
,,611086aa151462dc0ac8d02b,2024-02-22_05h34.32.920,kallum_motion_pilot,2023.2.2,Win32,59.88023952,611086aa151462dc0ac8d02b,65d6bb0e977760de756971f7,65d6be508923259cf31ece80,0.1963,0.1964,1,115,277,75,1,twofour,,,,,,,,,,,,,,,,,,,,,,,,,,,,,,,,,,,,,,,,,,,,,,,,,,,,,,,,,,,,,,,,,,,,,,,,,,,,,,,,,,,,,,,,,,,,,,,,,,,,,,,,,,,,,,,,,,,,,,,,,,,,,,,,,,,,,,,,,
