startup.started,startup.stopped,Prolific ID*,date,expName,psychopyVersion,OS,frameRate,participant,study_id,session,stimpositions.started,stimpositions.stopped,hardcoded_stimulus_positions.thisRepN,hardcoded_stimulus_positions.thisTrialN,hardcoded_stimulus_positions.thisN,hardcoded_stimulus_positions.thisIndex,hardcoded_stimulus_positions.ran,StimulusPos,stimorientation.started,stimorientation.stopped,prac_stimorientation_import_loop.thisRepN,prac_stimorientation_import_loop.thisTrialN,prac_stimorientation_import_loop.thisN,prac_stimorientation_import_loop.thisIndex,prac_stimorientation_import_loop.ran,Stimorientation,welcome_instr.started,welcome_instr.stopped,key_resp.keys,key_resp.rt,key_resp.duration,response_steppedout_1.started,response_steppedout_1.stopped,key_resp_20.keys,key_resp_20.rt,key_resp_20.duration,response_steppedout_2.started,response_steppedout_2.stopped,key_resp_19.keys,key_resp_19.rt,key_resp_19.duration,stim_response_instr.started,stim_response_instr.stopped,key_resp_15.keys,key_resp_15.rt,key_resp_15.duration,direction_instr_2.started,direction_instr_2.stopped,key_resp_9.keys,key_resp_9.rt,key_resp_9.duration,instr_prac.started,instr_prac.stopped,key_resp_10.keys,key_resp_10.rt,key_resp_10.duration,Stim1_display_prac.started,Stim1_display_prac.stopped,Ecc,Circle1_ori,Circle2_ori,response_prac.started,similarity,response_time,response_prac.stopped,mouse_5.x,mouse_5.y,mouse_5.leftButton,mouse_5.midButton,mouse_5.rightButton,mouse_5.clicked_name,responseprac_feedback.started,responseprac_feedback.stopped,summary2_prac.started,summary2_prac.stopped,mouse_6.x,mouse_6.y,mouse_6.leftButton,mouse_6.midButton,mouse_6.rightButton,mouse_6.clicked_name,duringprac.thisRepN,duringprac.thisTrialN,duringprac.thisN,duringprac.thisIndex,duringprac.ran,begin.started,begin.stopped,key_resp_22.keys,key_resp_22.rt,key_resp_22.duration,Stim1_display.started,Stim1_display.stopped,circle1_ori,circle2_ori,circle1_SF,circle2_SF,response.started,response.stopped,mouse.x,mouse.y,mouse.leftButton,mouse.midButton,mouse.rightButton,mouse.clicked_name,trialnumber,double_pass.thisRepN,double_pass.thisTrialN,double_pass.thisN,double_pass.thisIndex,double_pass.ran,double_pass.order,main_trial.thisRepN,main_trial.thisTrialN,main_trial.thisN,main_trial.thisIndex,main_trial.ran,main_trial.order,Trial_Counter,Catch,Frequencies,response_2.started,response_2.stopped,mouse_2.x,mouse_2.y,mouse_2.leftButton,mouse_2.midButton,mouse_2.rightButton,mouse_2.clicked_name,special_trial.started,special_trial.stopped,catch_1.started,catch_1.stopped,mouse_3.x,mouse_3.y,mouse_3.leftButton,mouse_3.midButton,mouse_3.rightButton,catchresponse,catchnumber,response_time_catch,response_sum.started,response_sum.stopped,mouse_11.x,mouse_11.y,mouse_11.leftButton,mouse_11.midButton,mouse_11.rightButton,flip_presentation_sequence_for_double_pass.started,flip_presentation_sequence_for_double_pass.stopped,goodbye.started,goodbye.stopped,key_resp_3.keys,key_resp_3.rt,key_resp_3.duration
0.0003,0.0004,611d0e8e242d979c62655c57,2024-02-22_05h17.43.055,kallum_motion_pilot,2023.2.2,Win32,59.17159763,611d0e8e242d979c62655c57,65d6bb0e977760de756971f7,65d6bcb1fde08c320ec40482,,,,,,,,,,,,,,,,,,,,,,,,,,,,,,,,,,,,,,,,,,,,,,,,,,,,,,,,,,,,,,,,,,,,,,,,,,,,,,,,,,,,,,,,,,,,,,,,,,,,,,,,,,,,,,,,,,,,,,,,,,,,,,,,,,,,,,,,,,,,,,,,,
,,611d0e8e242d979c62655c57,2024-02-22_05h17.43.055,kallum_motion_pilot,2023.2.2,Win32,59.17159763,611d0e8e242d979c62655c57,65d6bb0e977760de756971f7,65d6bcb1fde08c320ec40482,0.0203,0.0204,0,0,0,142,1,eightsix,,,,,,,,,,,,,,,,,,,,,,,,,,,,,,,,,,,,,,,,,,,,,,,,,,,,,,,,,,,,,,,,,,,,,,,,,,,,,,,,,,,,,,,,,,,,,,,,,,,,,,,,,,,,,,,,,,,,,,,,,,,,,,,,,,,,,,,,,
,,611d0e8e242d979c62655c57,2024-02-22_05h17.43.055,kallum_motion_pilot,2023.2.2,Win32,59.17159763,611d0e8e242d979c62655c57,65d6bb0e977760de756971f7,65d6bcb1fde08c320ec40482,0.0206,0.0206,0,1,1,114,1,sixfive,,,,,,,,,,,,,,,,,,,,,,,,,,,,,,,,,,,,,,,,,,,,,,,,,,,,,,,,,,,,,,,,,,,,,,,,,,,,,,,,,,,,,,,,,,,,,,,,,,,,,,,,,,,,,,,,,,,,,,,,,,,,,,,,,,,,,,,,,
,,611d0e8e242d979c62655c57,2024-02-22_05h17.43.055,kallum_motion_pilot,2023.2.2,Win32,59.17159763,611d0e8e242d979c62655c57,65d6bb0e977760de756971f7,65d6bcb1fde08c320ec40482,0.0208,0.0208,0,2,2,9,1,onethree,,,,,,,,,,,,,,,,,,,,,,,,,,,,,,,,,,,,,,,,,,,,,,,,,,,,,,,,,,,,,,,,,,,,,,,,,,,,,,,,,,,,,,,,,,,,,,,,,,,,,,,,,,,,,,,,,,,,,,,,,,,,,,,,,,,,,,,,,
,,611d0e8e242d979c62655c57,2024-02-22_05h17.43.055,kallum_motion_pilot,2023.2.2,Win32,59.17159763,611d0e8e242d979c62655c57,65d6bb0e977760de756971f7,65d6bcb1fde08c320ec40482,0.0209,0.0209,0,3,3,135,1,eightseven,,,,,,,,,,,,,,,,,,,,,,,,,,,,,,,,,,,,,,,,,,,,,,,,,,,,,,,,,,,,,,,,,,,,,,,,,,,,,,,,,,,,,,,,,,,,,,,,,,,,,,,,,,,,,,,,,,,,,,,,,,,,,,,,,,,,,,,,,
,,611d0e8e242d979c62655c57,2024-02-22_05h17.43.055,kallum_motion_pilot,2023.2.2,Win32,59.17159763,611d0e8e242d979c62655c57,65d6bb0e977760de756971f7,65d6bcb1fde08c320ec40482,0.0209,0.021,0,4,4,143,1,eightseven,,,,,,,,,,,,,,,,,,,,,,,,,,,,,,,,,,,,,,,,,,,,,,,,,,,,,,,,,,,,,,,,,,,,,,,,,,,,,,,,,,,,,,,,,,,,,,,,,,,,,,,,,,,,,,,,,,,,,,,,,,,,,,,,,,,,,,,,,
,,611d0e8e242d979c62655c57,2024-02-22_05h17.43.055,kallum_motion_pilot,2023.2.2,Win32,59.17159763,611d0e8e242d979c62655c57,65d6bb0e977760de756971f7,65d6bcb1fde08c320ec40482,0.0211,0.0211,0,5,5,99,1,sixeight,,,,,,,,,,,,,,,,,,,,,,,,,,,,,,,,,,,,,,,,,,,,,,,,,,,,,,,,,,,,,,,,,,,,,,,,,,,,,,,,,,,,,,,,,,,,,,,,,,,,,,,,,,,,,,,,,,,,,,,,,,,,,,,,,,,,,,,,,
,,611d0e8e242d979c62655c57,2024-02-22_05h17.43.055,kallum_motion_pilot,2023.2.2,Win32,59.17159763,611d0e8e242d979c62655c57,65d6bb0e977760de756971f7,65d6bcb1fde08c320ec40482,0.0211,0.0211,0,6,6,49,1,onethree,,,,,,,,,,,,,,,,,,,,,,,,,,,,,,,,,,,,,,,,,,,,,,,,,,,,,,,,,,,,,,,,,,,,,,,,,,,,,,,,,,,,,,,,,,,,,,,,,,,,,,,,,,,,,,,,,,,,,,,,,,,,,,,,,,,,,,,,,
,,611d0e8e242d979c62655c57,2024-02-22_05h17.43.055,kallum_motion_pilot,2023.2.2,Win32,59.17159763,611d0e8e242d979c62655c57,65d6bb0e977760de756971f7,65d6bcb1fde08c320ec40482,0.0213,0.0223,0,7,7,76,1,threeone,,,,,,,,,,,,,,,,,,,,,,,,,,,,,,,,,,,,,,,,,,,,,,,,,,,,,,,,,,,,,,,,,,,,,,,,,,,,,,,,,,,,,,,,,,,,,,,,,,,,,,,,,,,,,,,,,,,,,,,,,,,,,,,,,,,,,,,,,
,,611d0e8e242d979c62655c57,2024-02-22_05h17.43.055,kallum_motion_pilot,2023.2.2,Win32,59.17159763,611d0e8e242d979c62655c57,65d6bb0e977760de756971f7,65d6bcb1fde08c320ec40482,0.0223,0.0224,0,8,8,38,1,fourtwo,,,,,,,,,,,,,,,,,,,,,,,,,,,,,,,,,,,,,,,,,,,,,,,,,,,,,,,,,,,,,,,,,,,,,,,,,,,,,,,,,,,,,,,,,,,,,,,,,,,,,,,,,,,,,,,,,,,,,,,,,,,,,,,,,,,,,,,,,
,,611d0e8e242d979c62655c57,2024-02-22_05h17.43.055,kallum_motion_pilot,2023.2.2,Win32,59.17159763,611d0e8e242d979c62655c57,65d6bb0e977760de756971f7,65d6bcb1fde08c320ec40482,0.0225,0.0225,0,9,9,35,1,twofour,,,,,,,,,,,,,,,,,,,,,,,,,,,,,,,,,,,,,,,,,,,,,,,,,,,,,,,,,,,,,,,,,,,,,,,,,,,,,,,,,,,,,,,,,,,,,,,,,,,,,,,,,,,,,,,,,,,,,,,,,,,,,,,,,,,,,,,,,
,,611d0e8e242d979c62655c57,2024-02-22_05h17.43.055,kallum_motion_pilot,2023.2.2,Win32,59.17159763,611d0e8e242d979c62655c57,65d6bb0e977760de756971f7,65d6bcb1fde08c320ec40482,0.0225,0.0226,0,10,10,36,1,threeone,,,,,,,,,,,,,,,,,,,,,,,,,,,,,,,,,,,,,,,,,,,,,,,,,,,,,,,,,,,,,,,,,,,,,,,,,,,,,,,,,,,,,,,,,,,,,,,,,,,,,,,,,,,,,,,,,,,,,,,,,,,,,,,,,,,,,,,,,
,,611d0e8e242d979c62655c57,2024-02-22_05h17.43.055,kallum_motion_pilot,2023.2.2,Win32,59.17159763,611d0e8e242d979c62655c57,65d6bb0e977760de756971f7,65d6bcb1fde08c320ec40482,0.0226,0.0226,0,11,11,149,1,seveneight,,,,,,,,,,,,,,,,,,,,,,,,,,,,,,,,,,,,,,,,,,,,,,,,,,,,,,,,,,,,,,,,,,,,,,,,,,,,,,,,,,,,,,,,,,,,,,,,,,,,,,,,,,,,,,,,,,,,,,,,,,,,,,,,,,,,,,,,,
,,611d0e8e242d979c62655c57,2024-02-22_05h17.43.055,kallum_motion_pilot,2023.2.2,Win32,59.17159763,611d0e8e242d979c62655c57,65d6bb0e977760de756971f7,65d6bcb1fde08c320ec40482,0.0227,0.0227,0,12,12,72,1,onetwo,,,,,,,,,,,,,,,,,,,,,,,,,,,,,,,,,,,,,,,,,,,,,,,,,,,,,,,,,,,,,,,,,,,,,,,,,,,,,,,,,,,,,,,,,,,,,,,,,,,,,,,,,,,,,,,,,,,,,,,,,,,,,,,,,,,,,,,,,
,,611d0e8e242d979c62655c57,2024-02-22_05h17.43.055,kallum_motion_pilot,2023.2.2,Win32,59.17159763,611d0e8e242d979c62655c57,65d6bb0e977760de756971f7,65d6bcb1fde08c320ec40482,0.0228,0.0228,0,13,13,151,1,eightseven,,,,,,,,,,,,,,,,,,,,,,,,,,,,,,,,,,,,,,,,,,,,,,,,,,,,,,,,,,,,,,,,,,,,,,,,,,,,,,,,,,,,,,,,,,,,,,,,,,,,,,,,,,,,,,,,,,,,,,,,,,,,,,,,,,,,,,,,,
,,611d0e8e242d979c62655c57,2024-02-22_05h17.43.055,kallum_motion_pilot,2023.2.2,Win32,59.17159763,611d0e8e242d979c62655c57,65d6bb0e977760de756971f7,65d6bcb1fde08c320ec40482,0.0228,0.0228,0,14,14,14,1,fourtwo,,,,,,,,,,,,,,,,,,,,,,,,,,,,,,,,,,,,,,,,,,,,,,,,,,,,,,,,,,,,,,,,,,,,,,,,,,,,,,,,,,,,,,,,,,,,,,,,,,,,,,,,,,,,,,,,,,,,,,,,,,,,,,,,,,,,,,,,,
,,611d0e8e242d979c62655c57,2024-02-22_05h17.43.055,kallum_motion_pilot,2023.2.2,Win32,59.17159763,611d0e8e242d979c62655c57,65d6bb0e977760de756971f7,65d6bcb1fde08c320ec40482,0.0229,0.0229,0,15,15,111,1,eightseven,,,,,,,,,,,,,,,,,,,,,,,,,,,,,,,,,,,,,,,,,,,,,,,,,,,,,,,,,,,,,,,,,,,,,,,,,,,,,,,,,,,,,,,,,,,,,,,,,,,,,,,,,,,,,,,,,,,,,,,,,,,,,,,,,,,,,,,,,
,,611d0e8e242d979c62655c57,2024-02-22_05h17.43.055,kallum_motion_pilot,2023.2.2,Win32,59.17159763,611d0e8e242d979c62655c57,65d6bb0e977760de756971f7,65d6bcb1fde08c320ec40482,0.0229,0.0229,0,16,16,94,1,eightsix,,,,,,,,,,,,,,,,,,,,,,,,,,,,,,,,,,,,,,,,,,,,,,,,,,,,,,,,,,,,,,,,,,,,,,,,,,,,,,,,,,,,,,,,,,,,,,,,,,,,,,,,,,,,,,,,,,,,,,,,,,,,,,,,,,,,,,,,,
,,611d0e8e242d979c62655c57,2024-02-22_05h17.43.055,kallum_motion_pilot,2023.2.2,Win32,59.17159763,611d0e8e242d979c62655c57,65d6bb0e977760de756971f7,65d6bcb1fde08c320ec40482,0.023,0.023,0,17,17,157,1,seveneight,,,,,,,,,,,,,,,,,,,,,,,,,,,,,,,,,,,,,,,,,,,,,,,,,,,,,,,,,,,,,,,,,,,,,,,,,,,,,,,,,,,,,,,,,,,,,,,,,,,,,,,,,,,,,,,,,,,,,,,,,,,,,,,,,,,,,,,,,
,,611d0e8e242d979c62655c57,2024-02-22_05h17.43.055,kallum_motion_pilot,2023.2.2,Win32,59.17159763,611d0e8e242d979c62655c57,65d6bb0e977760de756971f7,65d6bcb1fde08c320ec40482,0.0231,0.0231,0,18,18,115,1,sixeight,,,,,,,,,,,,,,,,,,,,,,,,,,,,,,,,,,,,,,,,,,,,,,,,,,,,,,,,,,,,,,,,,,,,,,,,,,,,,,,,,,,,,,,,,,,,,,,,,,,,,,,,,,,,,,,,,,,,,,,,,,,,,,,,,,,,,,,,,
,,611d0e8e242d979c62655c57,2024-02-22_05h17.43.055,kallum_motion_pilot,2023.2.2,Win32,59.17159763,611d0e8e242d979c62655c57,65d6bb0e977760de756971f7,65d6bcb1fde08c320ec40482,0.0231,0.0231,0,19,19,0,1,onetwo,,,,,,,,,,,,,,,,,,,,,,,,,,,,,,,,,,,,,,,,,,,,,,,,,,,,,,,,,,,,,,,,,,,,,,,,,,,,,,,,,,,,,,,,,,,,,,,,,,,,,,,,,,,,,,,,,,,,,,,,,,,,,,,,,,,,,,,,,
,,611d0e8e242d979c62655c57,2024-02-22_05h17.43.055,kallum_motion_pilot,2023.2.2,Win32,59.17159763,611d0e8e242d979c62655c57,65d6bb0e977760de756971f7,65d6bcb1fde08c320ec40482,0.0232,0.0232,0,20,20,69,1,threefour,,,,,,,,,,,,,,,,,,,,,,,,,,,,,,,,,,,,,,,,,,,,,,,,,,,,,,,,,,,,,,,,,,,,,,,,,,,,,,,,,,,,,,,,,,,,,,,,,,,,,,,,,,,,,,,,,,,,,,,,,,,,,,,,,,,,,,,,,
,,611d0e8e242d979c62655c57,2024-02-22_05h17.43.055,kallum_motion_pilot,2023.2.2,Win32,59.17159763,611d0e8e242d979c62655c57,65d6bb0e977760de756971f7,65d6bcb1fde08c320ec40482,0.0233,0.0233,0,21,21,136,1,fivesix,,,,,,,,,,,,,,,,,,,,,,,,,,,,,,,,,,,,,,,,,,,,,,,,,,,,,,,,,,,,,,,,,,,,,,,,,,,,,,,,,,,,,,,,,,,,,,,,,,,,,,,,,,,,,,,,,,,,,,,,,,,,,,,,,,,,,,,,,
,,611d0e8e242d979c62655c57,2024-02-22_05h17.43.055,kallum_motion_pilot,2023.2.2,Win32,59.17159763,611d0e8e242d979c62655c57,65d6bb0e977760de756971f7,65d6bcb1fde08c320ec40482,0.0233,0.0233,0,22,22,88,1,fivesix,,,,,,,,,,,,,,,,,,,,,,,,,,,,,,,,,,,,,,,,,,,,,,,,,,,,,,,,,,,,,,,,,,,,,,,,,,,,,,,,,,,,,,,,,,,,,,,,,,,,,,,,,,,,,,,,,,,,,,,,,,,,,,,,,,,,,,,,,
,,611d0e8e242d979c62655c57,2024-02-22_05h17.43.055,kallum_motion_pilot,2023.2.2,Win32,59.17159763,611d0e8e242d979c62655c57,65d6bb0e977760de756971f7,65d6bcb1fde08c320ec40482,0.0233,0.0234,0,23,23,139,1,sixeight,,,,,,,,,,,,,,,,,,,,,,,,,,,,,,,,,,,,,,,,,,,,,,,,,,,,,,,,,,,,,,,,,,,,,,,,,,,,,,,,,,,,,,,,,,,,,,,,,,,,,,,,,,,,,,,,,,,,,,,,,,,,,,,,,,,,,,,,,
,,611d0e8e242d979c62655c57,2024-02-22_05h17.43.055,kallum_motion_pilot,2023.2.2,Win32,59.17159763,611d0e8e242d979c62655c57,65d6bb0e977760de756971f7,65d6bcb1fde08c320ec40482,0.0235,0.0235,0,24,24,155,1,sixeight,,,,,,,,,,,,,,,,,,,,,,,,,,,,,,,,,,,,,,,,,,,,,,,,,,,,,,,,,,,,,,,,,,,,,,,,,,,,,,,,,,,,,,,,,,,,,,,,,,,,,,,,,,,,,,,,,,,,,,,,,,,,,,,,,,,,,,,,,
,,611d0e8e242d979c62655c57,2024-02-22_05h17.43.055,kallum_motion_pilot,2023.2.2,Win32,59.17159763,611d0e8e242d979c62655c57,65d6bb0e977760de756971f7,65d6bcb1fde08c320ec40482,0.0236,0.0236,0,25,25,70,1,fourtwo,,,,,,,,,,,,,,,,,,,,,,,,,,,,,,,,,,,,,,,,,,,,,,,,,,,,,,,,,,,,,,,,,,,,,,,,,,,,,,,,,,,,,,,,,,,,,,,,,,,,,,,,,,,,,,,,,,,,,,,,,,,,,,,,,,,,,,,,,
,,611d0e8e242d979c62655c57,2024-02-22_05h17.43.055,kallum_motion_pilot,2023.2.2,Win32,59.17159763,611d0e8e242d979c62655c57,65d6bb0e977760de756971f7,65d6bcb1fde08c320ec40482,0.0237,0.0237,0,26,26,145,1,fiveseven,,,,,,,,,,,,,,,,,,,,,,,,,,,,,,,,,,,,,,,,,,,,,,,,,,,,,,,,,,,,,,,,,,,,,,,,,,,,,,,,,,,,,,,,,,,,,,,,,,,,,,,,,,,,,,,,,,,,,,,,,,,,,,,,,,,,,,,,,
,,611d0e8e242d979c62655c57,2024-02-22_05h17.43.055,kallum_motion_pilot,2023.2.2,Win32,59.17159763,611d0e8e242d979c62655c57,65d6bb0e977760de756971f7,65d6bcb1fde08c320ec40482,0.0238,0.0238,0,27,27,90,1,sixfive,,,,,,,,,,,,,,,,,,,,,,,,,,,,,,,,,,,,,,,,,,,,,,,,,,,,,,,,,,,,,,,,,,,,,,,,,,,,,,,,,,,,,,,,,,,,,,,,,,,,,,,,,,,,,,,,,,,,,,,,,,,,,,,,,,,,,,,,,
,,611d0e8e242d979c62655c57,2024-02-22_05h17.43.055,kallum_motion_pilot,2023.2.2,Win32,59.17159763,611d0e8e242d979c62655c57,65d6bb0e977760de756971f7,65d6bcb1fde08c320ec40482,0.0239,0.024,0,28,28,57,1,onethree,,,,,,,,,,,,,,,,,,,,,,,,,,,,,,,,,,,,,,,,,,,,,,,,,,,,,,,,,,,,,,,,,,,,,,,,,,,,,,,,,,,,,,,,,,,,,,,,,,,,,,,,,,,,,,,,,,,,,,,,,,,,,,,,,,,,,,,,,
,,611d0e8e242d979c62655c57,2024-02-22_05h17.43.055,kallum_motion_pilot,2023.2.2,Win32,59.17159763,611d0e8e242d979c62655c57,65d6bb0e977760de756971f7,65d6bcb1fde08c320ec40482,0.024,0.0241,0,29,29,39,1,fourthree,,,,,,,,,,,,,,,,,,,,,,,,,,,,,,,,,,,,,,,,,,,,,,,,,,,,,,,,,,,,,,,,,,,,,,,,,,,,,,,,,,,,,,,,,,,,,,,,,,,,,,,,,,,,,,,,,,,,,,,,,,,,,,,,,,,,,,,,,
,,611d0e8e242d979c62655c57,2024-02-22_05h17.43.055,kallum_motion_pilot,2023.2.2,Win32,59.17159763,611d0e8e242d979c62655c57,65d6bb0e977760de756971f7,65d6bcb1fde08c320ec40482,0.0241,0.0241,0,30,30,53,1,threefour,,,,,,,,,,,,,,,,,,,,,,,,,,,,,,,,,,,,,,,,,,,,,,,,,,,,,,,,,,,,,,,,,,,,,,,,,,,,,,,,,,,,,,,,,,,,,,,,,,,,,,,,,,,,,,,,,,,,,,,,,,,,,,,,,,,,,,,,,
,,611d0e8e242d979c62655c57,2024-02-22_05h17.43.055,kallum_motion_pilot,2023.2.2,Win32,59.17159763,611d0e8e242d979c62655c57,65d6bb0e977760de756971f7,65d6bcb1fde08c320ec40482,0.0242,0.0243,0,31,31,124,1,sevenfive,,,,,,,,,,,,,,,,,,,,,,,,,,,,,,,,,,,,,,,,,,,,,,,,,,,,,,,,,,,,,,,,,,,,,,,,,,,,,,,,,,,,,,,,,,,,,,,,,,,,,,,,,,,,,,,,,,,,,,,,,,,,,,,,,,,,,,,,,
,,611d0e8e242d979c62655c57,2024-02-22_05h17.43.055,kallum_motion_pilot,2023.2.2,Win32,59.17159763,611d0e8e242d979c62655c57,65d6bb0e977760de756971f7,65d6bcb1fde08c320ec40482,0.0243,0.0244,0,32,32,52,1,threeone,,,,,,,,,,,,,,,,,,,,,,,,,,,,,,,,,,,,,,,,,,,,,,,,,,,,,,,,,,,,,,,,,,,,,,,,,,,,,,,,,,,,,,,,,,,,,,,,,,,,,,,,,,,,,,,,,,,,,,,,,,,,,,,,,,,,,,,,,
,,611d0e8e242d979c62655c57,2024-02-22_05h17.43.055,kallum_motion_pilot,2023.2.2,Win32,59.17159763,611d0e8e242d979c62655c57,65d6bb0e977760de756971f7,65d6bcb1fde08c320ec40482,0.0244,0.0244,0,33,33,93,1,seveneight,,,,,,,,,,,,,,,,,,,,,,,,,,,,,,,,,,,,,,,,,,,,,,,,,,,,,,,,,,,,,,,,,,,,,,,,,,,,,,,,,,,,,,,,,,,,,,,,,,,,,,,,,,,,,,,,,,,,,,,,,,,,,,,,,,,,,,,,,
,,611d0e8e242d979c62655c57,2024-02-22_05h17.43.055,kallum_motion_pilot,2023.2.2,Win32,59.17159763,611d0e8e242d979c62655c57,65d6bb0e977760de756971f7,65d6bcb1fde08c320ec40482,0.0245,0.0245,0,34,34,101,1,seveneight,,,,,,,,,,,,,,,,,,,,,,,,,,,,,,,,,,,,,,,,,,,,,,,,,,,,,,,,,,,,,,,,,,,,,,,,,,,,,,,,,,,,,,,,,,,,,,,,,,,,,,,,,,,,,,,,,,,,,,,,,,,,,,,,,,,,,,,,,
,,611d0e8e242d979c62655c57,2024-02-22_05h17.43.055,kallum_motion_pilot,2023.2.2,Win32,59.17159763,611d0e8e242d979c62655c57,65d6bb0e977760de756971f7,65d6bcb1fde08c320ec40482,0.0245,0.0245,0,35,35,74,1,twoone,,,,,,,,,,,,,,,,,,,,,,,,,,,,,,,,,,,,,,,,,,,,,,,,,,,,,,,,,,,,,,,,,,,,,,,,,,,,,,,,,,,,,,,,,,,,,,,,,,,,,,,,,,,,,,,,,,,,,,,,,,,,,,,,,,,,,,,,,
,,611d0e8e242d979c62655c57,2024-02-22_05h17.43.055,kallum_motion_pilot,2023.2.2,Win32,59.17159763,611d0e8e242d979c62655c57,65d6bb0e977760de756971f7,65d6bcb1fde08c320ec40482,0.0246,0.0246,0,36,36,126,1,eightsix,,,,,,,,,,,,,,,,,,,,,,,,,,,,,,,,,,,,,,,,,,,,,,,,,,,,,,,,,,,,,,,,,,,,,,,,,,,,,,,,,,,,,,,,,,,,,,,,,,,,,,,,,,,,,,,,,,,,,,,,,,,,,,,,,,,,,,,,,
,,611d0e8e242d979c62655c57,2024-02-22_05h17.43.055,kallum_motion_pilot,2023.2.2,Win32,59.17159763,611d0e8e242d979c62655c57,65d6bb0e977760de756971f7,65d6bcb1fde08c320ec40482,0.0247,0.0247,0,37,37,100,1,sevenfive,,,,,,,,,,,,,,,,,,,,,,,,,,,,,,,,,,,,,,,,,,,,,,,,,,,,,,,,,,,,,,,,,,,,,,,,,,,,,,,,,,,,,,,,,,,,,,,,,,,,,,,,,,,,,,,,,,,,,,,,,,,,,,,,,,,,,,,,,
,,611d0e8e242d979c62655c57,2024-02-22_05h17.43.055,kallum_motion_pilot,2023.2.2,Win32,59.17159763,611d0e8e242d979c62655c57,65d6bb0e977760de756971f7,65d6bcb1fde08c320ec40482,0.0248,0.0248,0,38,38,22,1,fourtwo,,,,,,,,,,,,,,,,,,,,,,,,,,,,,,,,,,,,,,,,,,,,,,,,,,,,,,,,,,,,,,,,,,,,,,,,,,,,,,,,,,,,,,,,,,,,,,,,,,,,,,,,,,,,,,,,,,,,,,,,,,,,,,,,,,,,,,,,,
,,611d0e8e242d979c62655c57,2024-02-22_05h17.43.055,kallum_motion_pilot,2023.2.2,Win32,59.17159763,611d0e8e242d979c62655c57,65d6bb0e977760de756971f7,65d6bcb1fde08c320ec40482,0.0248,0.0249,0,39,39,56,1,onetwo,,,,,,,,,,,,,,,,,,,,,,,,,,,,,,,,,,,,,,,,,,,,,,,,,,,,,,,,,,,,,,,,,,,,,,,,,,,,,,,,,,,,,,,,,,,,,,,,,,,,,,,,,,,,,,,,,,,,,,,,,,,,,,,,,,,,,,,,,
,,611d0e8e242d979c62655c57,2024-02-22_05h17.43.055,kallum_motion_pilot,2023.2.2,Win32,59.17159763,611d0e8e242d979c62655c57,65d6bb0e977760de756971f7,65d6bcb1fde08c320ec40482,0.0249,0.025,0,40,40,159,1,eightseven,,,,,,,,,,,,,,,,,,,,,,,,,,,,,,,,,,,,,,,,,,,,,,,,,,,,,,,,,,,,,,,,,,,,,,,,,,,,,,,,,,,,,,,,,,,,,,,,,,,,,,,,,,,,,,,,,,,,,,,,,,,,,,,,,,,,,,,,,
,,611d0e8e242d979c62655c57,2024-02-22_05h17.43.055,kallum_motion_pilot,2023.2.2,Win32,59.17159763,611d0e8e242d979c62655c57,65d6bb0e977760de756971f7,65d6bcb1fde08c320ec40482,0.025,0.025,0,41,41,86,1,eightsix,,,,,,,,,,,,,,,,,,,,,,,,,,,,,,,,,,,,,,,,,,,,,,,,,,,,,,,,,,,,,,,,,,,,,,,,,,,,,,,,,,,,,,,,,,,,,,,,,,,,,,,,,,,,,,,,,,,,,,,,,,,,,,,,,,,,,,,,,
,,611d0e8e242d979c62655c57,2024-02-22_05h17.43.055,kallum_motion_pilot,2023.2.2,Win32,59.17159763,611d0e8e242d979c62655c57,65d6bb0e977760de756971f7,65d6bcb1fde08c320ec40482,0.0251,0.0251,0,42,42,21,1,threefour,,,,,,,,,,,,,,,,,,,,,,,,,,,,,,,,,,,,,,,,,,,,,,,,,,,,,,,,,,,,,,,,,,,,,,,,,,,,,,,,,,,,,,,,,,,,,,,,,,,,,,,,,,,,,,,,,,,,,,,,,,,,,,,,,,,,,,,,,
,,611d0e8e242d979c62655c57,2024-02-22_05h17.43.055,kallum_motion_pilot,2023.2.2,Win32,59.17159763,611d0e8e242d979c62655c57,65d6bb0e977760de756971f7,65d6bcb1fde08c320ec40482,0.0252,0.0252,0,43,43,77,1,threefour,,,,,,,,,,,,,,,,,,,,,,,,,,,,,,,,,,,,,,,,,,,,,,,,,,,,,,,,,,,,,,,,,,,,,,,,,,,,,,,,,,,,,,,,,,,,,,,,,,,,,,,,,,,,,,,,,,,,,,,,,,,,,,,,,,,,,,,,,
,,611d0e8e242d979c62655c57,2024-02-22_05h17.43.055,kallum_motion_pilot,2023.2.2,Win32,59.17159763,611d0e8e242d979c62655c57,65d6bb0e977760de756971f7,65d6bcb1fde08c320ec40482,0.0253,0.0253,0,44,44,26,1,twoone,,,,,,,,,,,,,,,,,,,,,,,,,,,,,,,,,,,,,,,,,,,,,,,,,,,,,,,,,,,,,,,,,,,,,,,,,,,,,,,,,,,,,,,,,,,,,,,,,,,,,,,,,,,,,,,,,,,,,,,,,,,,,,,,,,,,,,,,,
,,611d0e8e242d979c62655c57,2024-02-22_05h17.43.055,kallum_motion_pilot,2023.2.2,Win32,59.17159763,611d0e8e242d979c62655c57,65d6bb0e977760de756971f7,65d6bcb1fde08c320ec40482,0.0254,0.0254,0,45,45,63,1,fourthree,,,,,,,,,,,,,,,,,,,,,,,,,,,,,,,,,,,,,,,,,,,,,,,,,,,,,,,,,,,,,,,,,,,,,,,,,,,,,,,,,,,,,,,,,,,,,,,,,,,,,,,,,,,,,,,,,,,,,,,,,,,,,,,,,,,,,,,,,
,,611d0e8e242d979c62655c57,2024-02-22_05h17.43.055,kallum_motion_pilot,2023.2.2,Win32,59.17159763,611d0e8e242d979c62655c57,65d6bb0e977760de756971f7,65d6bcb1fde08c320ec40482,0.0255,0.0255,0,46,46,31,1,fourthree,,,,,,,,,,,,,,,,,,,,,,,,,,,,,,,,,,,,,,,,,,,,,,,,,,,,,,,,,,,,,,,,,,,,,,,,,,,,,,,,,,,,,,,,,,,,,,,,,,,,,,,,,,,,,,,,,,,,,,,,,,,,,,,,,,,,,,,,,
,,611d0e8e242d979c62655c57,2024-02-22_05h17.43.055,kallum_motion_pilot,2023.2.2,Win32,59.17159763,611d0e8e242d979c62655c57,65d6bb0e977760de756971f7,65d6bcb1fde08c320ec40482,0.0256,0.0256,0,47,47,58,1,twoone,,,,,,,,,,,,,,,,,,,,,,,,,,,,,,,,,,,,,,,,,,,,,,,,,,,,,,,,,,,,,,,,,,,,,,,,,,,,,,,,,,,,,,,,,,,,,,,,,,,,,,,,,,,,,,,,,,,,,,,,,,,,,,,,,,,,,,,,,
,,611d0e8e242d979c62655c57,2024-02-22_05h17.43.055,kallum_motion_pilot,2023.2.2,Win32,59.17159763,611d0e8e242d979c62655c57,65d6bb0e977760de756971f7,65d6bcb1fde08c320ec40482,0.0256,0.0256,0,48,48,17,1,onethree,,,,,,,,,,,,,,,,,,,,,,,,,,,,,,,,,,,,,,,,,,,,,,,,,,,,,,,,,,,,,,,,,,,,,,,,,,,,,,,,,,,,,,,,,,,,,,,,,,,,,,,,,,,,,,,,,,,,,,,,,,,,,,,,,,,,,,,,,
,,611d0e8e242d979c62655c57,2024-02-22_05h17.43.055,kallum_motion_pilot,2023.2.2,Win32,59.17159763,611d0e8e242d979c62655c57,65d6bb0e977760de756971f7,65d6bcb1fde08c320ec40482,0.0257,0.0257,0,49,49,1,1,onethree,,,,,,,,,,,,,,,,,,,,,,,,,,,,,,,,,,,,,,,,,,,,,,,,,,,,,,,,,,,,,,,,,,,,,,,,,,,,,,,,,,,,,,,,,,,,,,,,,,,,,,,,,,,,,,,,,,,,,,,,,,,,,,,,,,,,,,,,,
,,611d0e8e242d979c62655c57,2024-02-22_05h17.43.055,kallum_motion_pilot,2023.2.2,Win32,59.17159763,611d0e8e242d979c62655c57,65d6bb0e977760de756971f7,65d6bcb1fde08c320ec40482,0.0257,0.0258,0,50,50,112,1,fivesix,,,,,,,,,,,,,,,,,,,,,,,,,,,,,,,,,,,,,,,,,,,,,,,,,,,,,,,,,,,,,,,,,,,,,,,,,,,,,,,,,,,,,,,,,,,,,,,,,,,,,,,,,,,,,,,,,,,,,,,,,,,,,,,,,,,,,,,,,
,,611d0e8e242d979c62655c57,2024-02-22_05h17.43.055,kallum_motion_pilot,2023.2.2,Win32,59.17159763,611d0e8e242d979c62655c57,65d6bb0e977760de756971f7,65d6bcb1fde08c320ec40482,0.0259,0.0259,0,51,51,98,1,sixfive,,,,,,,,,,,,,,,,,,,,,,,,,,,,,,,,,,,,,,,,,,,,,,,,,,,,,,,,,,,,,,,,,,,,,,,,,,,,,,,,,,,,,,,,,,,,,,,,,,,,,,,,,,,,,,,,,,,,,,,,,,,,,,,,,,,,,,,,,
,,611d0e8e242d979c62655c57,2024-02-22_05h17.43.055,kallum_motion_pilot,2023.2.2,Win32,59.17159763,611d0e8e242d979c62655c57,65d6bb0e977760de756971f7,65d6bcb1fde08c320ec40482,0.0259,0.026,0,52,52,125,1,seveneight,,,,,,,,,,,,,,,,,,,,,,,,,,,,,,,,,,,,,,,,,,,,,,,,,,,,,,,,,,,,,,,,,,,,,,,,,,,,,,,,,,,,,,,,,,,,,,,,,,,,,,,,,,,,,,,,,,,,,,,,,,,,,,,,,,,,,,,,,
,,611d0e8e242d979c62655c57,2024-02-22_05h17.43.055,kallum_motion_pilot,2023.2.2,Win32,59.17159763,611d0e8e242d979c62655c57,65d6bb0e977760de756971f7,65d6bcb1fde08c320ec40482,0.026,0.026,0,53,53,68,1,threeone,,,,,,,,,,,,,,,,,,,,,,,,,,,,,,,,,,,,,,,,,,,,,,,,,,,,,,,,,,,,,,,,,,,,,,,,,,,,,,,,,,,,,,,,,,,,,,,,,,,,,,,,,,,,,,,,,,,,,,,,,,,,,,,,,,,,,,,,,
,,611d0e8e242d979c62655c57,2024-02-22_05h17.43.055,kallum_motion_pilot,2023.2.2,Win32,59.17159763,611d0e8e242d979c62655c57,65d6bb0e977760de756971f7,65d6bcb1fde08c320ec40482,0.0261,0.0261,0,54,54,27,1,twofour,,,,,,,,,,,,,,,,,,,,,,,,,,,,,,,,,,,,,,,,,,,,,,,,,,,,,,,,,,,,,,,,,,,,,,,,,,,,,,,,,,,,,,,,,,,,,,,,,,,,,,,,,,,,,,,,,,,,,,,,,,,,,,,,,,,,,,,,,
,,611d0e8e242d979c62655c57,2024-02-22_05h17.43.055,kallum_motion_pilot,2023.2.2,Win32,59.17159763,611d0e8e242d979c62655c57,65d6bb0e977760de756971f7,65d6bcb1fde08c320ec40482,0.0261,0.0262,0,55,55,34,1,twoone,,,,,,,,,,,,,,,,,,,,,,,,,,,,,,,,,,,,,,,,,,,,,,,,,,,,,,,,,,,,,,,,,,,,,,,,,,,,,,,,,,,,,,,,,,,,,,,,,,,,,,,,,,,,,,,,,,,,,,,,,,,,,,,,,,,,,,,,,
,,611d0e8e242d979c62655c57,2024-02-22_05h17.43.055,kallum_motion_pilot,2023.2.2,Win32,59.17159763,611d0e8e242d979c62655c57,65d6bb0e977760de756971f7,65d6bcb1fde08c320ec40482,0.0262,0.0262,0,56,56,24,1,onetwo,,,,,,,,,,,,,,,,,,,,,,,,,,,,,,,,,,,,,,,,,,,,,,,,,,,,,,,,,,,,,,,,,,,,,,,,,,,,,,,,,,,,,,,,,,,,,,,,,,,,,,,,,,,,,,,,,,,,,,,,,,,,,,,,,,,,,,,,,
,,611d0e8e242d979c62655c57,2024-02-22_05h17.43.055,kallum_motion_pilot,2023.2.2,Win32,59.17159763,611d0e8e242d979c62655c57,65d6bb0e977760de756971f7,65d6bcb1fde08c320ec40482,0.0263,0.0263,0,57,57,32,1,onetwo,,,,,,,,,,,,,,,,,,,,,,,,,,,,,,,,,,,,,,,,,,,,,,,,,,,,,,,,,,,,,,,,,,,,,,,,,,,,,,,,,,,,,,,,,,,,,,,,,,,,,,,,,,,,,,,,,,,,,,,,,,,,,,,,,,,,,,,,,
,,611d0e8e242d979c62655c57,2024-02-22_05h17.43.055,kallum_motion_pilot,2023.2.2,Win32,59.17159763,611d0e8e242d979c62655c57,65d6bb0e977760de756971f7,65d6bcb1fde08c320ec40482,0.0264,0.0264,0,58,58,152,1,fivesix,,,,,,,,,,,,,,,,,,,,,,,,,,,,,,,,,,,,,,,,,,,,,,,,,,,,,,,,,,,,,,,,,,,,,,,,,,,,,,,,,,,,,,,,,,,,,,,,,,,,,,,,,,,,,,,,,,,,,,,,,,,,,,,,,,,,,,,,,
,,611d0e8e242d979c62655c57,2024-02-22_05h17.43.055,kallum_motion_pilot,2023.2.2,Win32,59.17159763,611d0e8e242d979c62655c57,65d6bb0e977760de756971f7,65d6bcb1fde08c320ec40482,0.0265,0.0265,0,59,59,123,1,sixeight,,,,,,,,,,,,,,,,,,,,,,,,,,,,,,,,,,,,,,,,,,,,,,,,,,,,,,,,,,,,,,,,,,,,,,,,,,,,,,,,,,,,,,,,,,,,,,,,,,,,,,,,,,,,,,,,,,,,,,,,,,,,,,,,,,,,,,,,,
,,611d0e8e242d979c62655c57,2024-02-22_05h17.43.055,kallum_motion_pilot,2023.2.2,Win32,59.17159763,611d0e8e242d979c62655c57,65d6bb0e977760de756971f7,65d6bcb1fde08c320ec40482,0.0266,0.0266,0,60,60,13,1,threefour,,,,,,,,,,,,,,,,,,,,,,,,,,,,,,,,,,,,,,,,,,,,,,,,,,,,,,,,,,,,,,,,,,,,,,,,,,,,,,,,,,,,,,,,,,,,,,,,,,,,,,,,,,,,,,,,,,,,,,,,,,,,,,,,,,,,,,,,,
,,611d0e8e242d979c62655c57,2024-02-22_05h17.43.055,kallum_motion_pilot,2023.2.2,Win32,59.17159763,611d0e8e242d979c62655c57,65d6bb0e977760de756971f7,65d6bcb1fde08c320ec40482,0.0266,0.0266,0,61,61,23,1,fourthree,,,,,,,,,,,,,,,,,,,,,,,,,,,,,,,,,,,,,,,,,,,,,,,,,,,,,,,,,,,,,,,,,,,,,,,,,,,,,,,,,,,,,,,,,,,,,,,,,,,,,,,,,,,,,,,,,,,,,,,,,,,,,,,,,,,,,,,,,
,,611d0e8e242d979c62655c57,2024-02-22_05h17.43.055,kallum_motion_pilot,2023.2.2,Win32,59.17159763,611d0e8e242d979c62655c57,65d6bb0e977760de756971f7,65d6bcb1fde08c320ec40482,0.0267,0.0267,0,62,62,67,1,twofour,,,,,,,,,,,,,,,,,,,,,,,,,,,,,,,,,,,,,,,,,,,,,,,,,,,,,,,,,,,,,,,,,,,,,,,,,,,,,,,,,,,,,,,,,,,,,,,,,,,,,,,,,,,,,,,,,,,,,,,,,,,,,,,,,,,,,,,,,
,,611d0e8e242d979c62655c57,2024-02-22_05h17.43.055,kallum_motion_pilot,2023.2.2,Win32,59.17159763,611d0e8e242d979c62655c57,65d6bb0e977760de756971f7,65d6bcb1fde08c320ec40482,0.0268,0.0269,0,63,63,25,1,onethree,,,,,,,,,,,,,,,,,,,,,,,,,,,,,,,,,,,,,,,,,,,,,,,,,,,,,,,,,,,,,,,,,,,,,,,,,,,,,,,,,,,,,,,,,,,,,,,,,,,,,,,,,,,,,,,,,,,,,,,,,,,,,,,,,,,,,,,,,
,,611d0e8e242d979c62655c57,2024-02-22_05h17.43.055,kallum_motion_pilot,2023.2.2,Win32,59.17159763,611d0e8e242d979c62655c57,65d6bb0e977760de756971f7,65d6bcb1fde08c320ec40482,0.0269,0.027,0,64,64,48,1,onetwo,,,,,,,,,,,,,,,,,,,,,,,,,,,,,,,,,,,,,,,,,,,,,,,,,,,,,,,,,,,,,,,,,,,,,,,,,,,,,,,,,,,,,,,,,,,,,,,,,,,,,,,,,,,,,,,,,,,,,,,,,,,,,,,,,,,,,,,,,
,,611d0e8e242d979c62655c57,2024-02-22_05h17.43.055,kallum_motion_pilot,2023.2.2,Win32,59.17159763,611d0e8e242d979c62655c57,65d6bb0e977760de756971f7,65d6bcb1fde08c320ec40482,0.0271,0.0271,0,65,65,137,1,fiveseven,,,,,,,,,,,,,,,,,,,,,,,,,,,,,,,,,,,,,,,,,,,,,,,,,,,,,,,,,,,,,,,,,,,,,,,,,,,,,,,,,,,,,,,,,,,,,,,,,,,,,,,,,,,,,,,,,,,,,,,,,,,,,,,,,,,,,,,,,
,,611d0e8e242d979c62655c57,2024-02-22_05h17.43.055,kallum_motion_pilot,2023.2.2,Win32,59.17159763,611d0e8e242d979c62655c57,65d6bb0e977760de756971f7,65d6bcb1fde08c320ec40482,0.0271,0.0272,0,66,66,87,1,eightseven,,,,,,,,,,,,,,,,,,,,,,,,,,,,,,,,,,,,,,,,,,,,,,,,,,,,,,,,,,,,,,,,,,,,,,,,,,,,,,,,,,,,,,,,,,,,,,,,,,,,,,,,,,,,,,,,,,,,,,,,,,,,,,,,,,,,,,,,,
,,611d0e8e242d979c62655c57,2024-02-22_05h17.43.055,kallum_motion_pilot,2023.2.2,Win32,59.17159763,611d0e8e242d979c62655c57,65d6bb0e977760de756971f7,65d6bcb1fde08c320ec40482,0.0272,0.0273,0,67,67,65,1,onethree,,,,,,,,,,,,,,,,,,,,,,,,,,,,,,,,,,,,,,,,,,,,,,,,,,,,,,,,,,,,,,,,,,,,,,,,,,,,,,,,,,,,,,,,,,,,,,,,,,,,,,,,,,,,,,,,,,,,,,,,,,,,,,,,,,,,,,,,,
,,611d0e8e242d979c62655c57,2024-02-22_05h17.43.055,kallum_motion_pilot,2023.2.2,Win32,59.17159763,611d0e8e242d979c62655c57,65d6bb0e977760de756971f7,65d6bcb1fde08c320ec40482,0.0273,0.0273,0,68,68,147,1,sixeight,,,,,,,,,,,,,,,,,,,,,,,,,,,,,,,,,,,,,,,,,,,,,,,,,,,,,,,,,,,,,,,,,,,,,,,,,,,,,,,,,,,,,,,,,,,,,,,,,,,,,,,,,,,,,,,,,,,,,,,,,,,,,,,,,,,,,,,,,
,,611d0e8e242d979c62655c57,2024-02-22_05h17.43.055,kallum_motion_pilot,2023.2.2,Win32,59.17159763,611d0e8e242d979c62655c57,65d6bb0e977760de756971f7,65d6bcb1fde08c320ec40482,0.0274,0.0274,0,69,69,47,1,fourthree,,,,,,,,,,,,,,,,,,,,,,,,,,,,,,,,,,,,,,,,,,,,,,,,,,,,,,,,,,,,,,,,,,,,,,,,,,,,,,,,,,,,,,,,,,,,,,,,,,,,,,,,,,,,,,,,,,,,,,,,,,,,,,,,,,,,,,,,,
,,611d0e8e242d979c62655c57,2024-02-22_05h17.43.055,kallum_motion_pilot,2023.2.2,Win32,59.17159763,611d0e8e242d979c62655c57,65d6bb0e977760de756971f7,65d6bcb1fde08c320ec40482,0.0275,0.0275,0,70,70,83,1,sixeight,,,,,,,,,,,,,,,,,,,,,,,,,,,,,,,,,,,,,,,,,,,,,,,,,,,,,,,,,,,,,,,,,,,,,,,,,,,,,,,,,,,,,,,,,,,,,,,,,,,,,,,,,,,,,,,,,,,,,,,,,,,,,,,,,,,,,,,,,
,,611d0e8e242d979c62655c57,2024-02-22_05h17.43.055,kallum_motion_pilot,2023.2.2,Win32,59.17159763,611d0e8e242d979c62655c57,65d6bb0e977760de756971f7,65d6bcb1fde08c320ec40482,0.0276,0.0276,0,71,71,7,1,fourthree,,,,,,,,,,,,,,,,,,,,,,,,,,,,,,,,,,,,,,,,,,,,,,,,,,,,,,,,,,,,,,,,,,,,,,,,,,,,,,,,,,,,,,,,,,,,,,,,,,,,,,,,,,,,,,,,,,,,,,,,,,,,,,,,,,,,,,,,,
,,611d0e8e242d979c62655c57,2024-02-22_05h17.43.055,kallum_motion_pilot,2023.2.2,Win32,59.17159763,611d0e8e242d979c62655c57,65d6bb0e977760de756971f7,65d6bcb1fde08c320ec40482,0.0277,0.0277,0,72,72,82,1,sixfive,,,,,,,,,,,,,,,,,,,,,,,,,,,,,,,,,,,,,,,,,,,,,,,,,,,,,,,,,,,,,,,,,,,,,,,,,,,,,,,,,,,,,,,,,,,,,,,,,,,,,,,,,,,,,,,,,,,,,,,,,,,,,,,,,,,,,,,,,
,,611d0e8e242d979c62655c57,2024-02-22_05h17.43.055,kallum_motion_pilot,2023.2.2,Win32,59.17159763,611d0e8e242d979c62655c57,65d6bb0e977760de756971f7,65d6bcb1fde08c320ec40482,0.0277,0.0278,0,73,73,150,1,eightsix,,,,,,,,,,,,,,,,,,,,,,,,,,,,,,,,,,,,,,,,,,,,,,,,,,,,,,,,,,,,,,,,,,,,,,,,,,,,,,,,,,,,,,,,,,,,,,,,,,,,,,,,,,,,,,,,,,,,,,,,,,,,,,,,,,,,,,,,,
,,611d0e8e242d979c62655c57,2024-02-22_05h17.43.055,kallum_motion_pilot,2023.2.2,Win32,59.17159763,611d0e8e242d979c62655c57,65d6bb0e977760de756971f7,65d6bcb1fde08c320ec40482,0.0278,0.0279,0,74,74,96,1,fivesix,,,,,,,,,,,,,,,,,,,,,,,,,,,,,,,,,,,,,,,,,,,,,,,,,,,,,,,,,,,,,,,,,,,,,,,,,,,,,,,,,,,,,,,,,,,,,,,,,,,,,,,,,,,,,,,,,,,,,,,,,,,,,,,,,,,,,,,,,
,,611d0e8e242d979c62655c57,2024-02-22_05h17.43.055,kallum_motion_pilot,2023.2.2,Win32,59.17159763,611d0e8e242d979c62655c57,65d6bb0e977760de756971f7,65d6bcb1fde08c320ec40482,0.0279,0.0279,0,75,75,128,1,fivesix,,,,,,,,,,,,,,,,,,,,,,,,,,,,,,,,,,,,,,,,,,,,,,,,,,,,,,,,,,,,,,,,,,,,,,,,,,,,,,,,,,,,,,,,,,,,,,,,,,,,,,,,,,,,,,,,,,,,,,,,,,,,,,,,,,,,,,,,,
,,611d0e8e242d979c62655c57,2024-02-22_05h17.43.055,kallum_motion_pilot,2023.2.2,Win32,59.17159763,611d0e8e242d979c62655c57,65d6bb0e977760de756971f7,65d6bcb1fde08c320ec40482,0.0281,0.0281,0,76,76,33,1,onethree,,,,,,,,,,,,,,,,,,,,,,,,,,,,,,,,,,,,,,,,,,,,,,,,,,,,,,,,,,,,,,,,,,,,,,,,,,,,,,,,,,,,,,,,,,,,,,,,,,,,,,,,,,,,,,,,,,,,,,,,,,,,,,,,,,,,,,,,,
,,611d0e8e242d979c62655c57,2024-02-22_05h17.43.055,kallum_motion_pilot,2023.2.2,Win32,59.17159763,611d0e8e242d979c62655c57,65d6bb0e977760de756971f7,65d6bcb1fde08c320ec40482,0.0282,0.0283,0,77,77,79,1,eightseven,,,,,,,,,,,,,,,,,,,,,,,,,,,,,,,,,,,,,,,,,,,,,,,,,,,,,,,,,,,,,,,,,,,,,,,,,,,,,,,,,,,,,,,,,,,,,,,,,,,,,,,,,,,,,,,,,,,,,,,,,,,,,,,,,,,,,,,,,
,,611d0e8e242d979c62655c57,2024-02-22_05h17.43.055,kallum_motion_pilot,2023.2.2,Win32,59.17159763,611d0e8e242d979c62655c57,65d6bb0e977760de756971f7,65d6bcb1fde08c320ec40482,0.0283,0.0285,0,78,78,97,1,fiveseven,,,,,,,,,,,,,,,,,,,,,,,,,,,,,,,,,,,,,,,,,,,,,,,,,,,,,,,,,,,,,,,,,,,,,,,,,,,,,,,,,,,,,,,,,,,,,,,,,,,,,,,,,,,,,,,,,,,,,,,,,,,,,,,,,,,,,,,,,
,,611d0e8e242d979c62655c57,2024-02-22_05h17.43.055,kallum_motion_pilot,2023.2.2,Win32,59.17159763,611d0e8e242d979c62655c57,65d6bb0e977760de756971f7,65d6bcb1fde08c320ec40482,0.0285,0.0285,0,79,79,116,1,sevenfive,,,,,,,,,,,,,,,,,,,,,,,,,,,,,,,,,,,,,,,,,,,,,,,,,,,,,,,,,,,,,,,,,,,,,,,,,,,,,,,,,,,,,,,,,,,,,,,,,,,,,,,,,,,,,,,,,,,,,,,,,,,,,,,,,,,,,,,,,
,,611d0e8e242d979c62655c57,2024-02-22_05h17.43.055,kallum_motion_pilot,2023.2.2,Win32,59.17159763,611d0e8e242d979c62655c57,65d6bb0e977760de756971f7,65d6bcb1fde08c320ec40482,0.0287,0.0287,0,80,80,140,1,sevenfive,,,,,,,,,,,,,,,,,,,,,,,,,,,,,,,,,,,,,,,,,,,,,,,,,,,,,,,,,,,,,,,,,,,,,,,,,,,,,,,,,,,,,,,,,,,,,,,,,,,,,,,,,,,,,,,,,,,,,,,,,,,,,,,,,,,,,,,,,
,,611d0e8e242d979c62655c57,2024-02-22_05h17.43.055,kallum_motion_pilot,2023.2.2,Win32,59.17159763,611d0e8e242d979c62655c57,65d6bb0e977760de756971f7,65d6bcb1fde08c320ec40482,0.0288,0.0289,0,81,81,61,1,threefour,,,,,,,,,,,,,,,,,,,,,,,,,,,,,,,,,,,,,,,,,,,,,,,,,,,,,,,,,,,,,,,,,,,,,,,,,,,,,,,,,,,,,,,,,,,,,,,,,,,,,,,,,,,,,,,,,,,,,,,,,,,,,,,,,,,,,,,,,
,,611d0e8e242d979c62655c57,2024-02-22_05h17.43.055,kallum_motion_pilot,2023.2.2,Win32,59.17159763,611d0e8e242d979c62655c57,65d6bb0e977760de756971f7,65d6bcb1fde08c320ec40482,0.029,0.0291,0,82,82,127,1,eightseven,,,,,,,,,,,,,,,,,,,,,,,,,,,,,,,,,,,,,,,,,,,,,,,,,,,,,,,,,,,,,,,,,,,,,,,,,,,,,,,,,,,,,,,,,,,,,,,,,,,,,,,,,,,,,,,,,,,,,,,,,,,,,,,,,,,,,,,,,
,,611d0e8e242d979c62655c57,2024-02-22_05h17.43.055,kallum_motion_pilot,2023.2.2,Win32,59.17159763,611d0e8e242d979c62655c57,65d6bb0e977760de756971f7,65d6bcb1fde08c320ec40482,0.0295,0.0297,0,83,83,91,1,sixeight,,,,,,,,,,,,,,,,,,,,,,,,,,,,,,,,,,,,,,,,,,,,,,,,,,,,,,,,,,,,,,,,,,,,,,,,,,,,,,,,,,,,,,,,,,,,,,,,,,,,,,,,,,,,,,,,,,,,,,,,,,,,,,,,,,,,,,,,,
,,611d0e8e242d979c62655c57,2024-02-22_05h17.43.055,kallum_motion_pilot,2023.2.2,Win32,59.17159763,611d0e8e242d979c62655c57,65d6bb0e977760de756971f7,65d6bcb1fde08c320ec40482,0.0299,0.0299,0,84,84,18,1,twoone,,,,,,,,,,,,,,,,,,,,,,,,,,,,,,,,,,,,,,,,,,,,,,,,,,,,,,,,,,,,,,,,,,,,,,,,,,,,,,,,,,,,,,,,,,,,,,,,,,,,,,,,,,,,,,,,,,,,,,,,,,,,,,,,,,,,,,,,,
,,611d0e8e242d979c62655c57,2024-02-22_05h17.43.055,kallum_motion_pilot,2023.2.2,Win32,59.17159763,611d0e8e242d979c62655c57,65d6bb0e977760de756971f7,65d6bcb1fde08c320ec40482,0.0299,0.0301,0,85,85,43,1,twofour,,,,,,,,,,,,,,,,,,,,,,,,,,,,,,,,,,,,,,,,,,,,,,,,,,,,,,,,,,,,,,,,,,,,,,,,,,,,,,,,,,,,,,,,,,,,,,,,,,,,,,,,,,,,,,,,,,,,,,,,,,,,,,,,,,,,,,,,,
,,611d0e8e242d979c62655c57,2024-02-22_05h17.43.055,kallum_motion_pilot,2023.2.2,Win32,59.17159763,611d0e8e242d979c62655c57,65d6bb0e977760de756971f7,65d6bcb1fde08c320ec40482,0.0301,0.0302,0,86,86,46,1,fourtwo,,,,,,,,,,,,,,,,,,,,,,,,,,,,,,,,,,,,,,,,,,,,,,,,,,,,,,,,,,,,,,,,,,,,,,,,,,,,,,,,,,,,,,,,,,,,,,,,,,,,,,,,,,,,,,,,,,,,,,,,,,,,,,,,,,,,,,,,,
,,611d0e8e242d979c62655c57,2024-02-22_05h17.43.055,kallum_motion_pilot,2023.2.2,Win32,59.17159763,611d0e8e242d979c62655c57,65d6bb0e977760de756971f7,65d6bcb1fde08c320ec40482,0.0302,0.0303,0,87,87,117,1,seveneight,,,,,,,,,,,,,,,,,,,,,,,,,,,,,,,,,,,,,,,,,,,,,,,,,,,,,,,,,,,,,,,,,,,,,,,,,,,,,,,,,,,,,,,,,,,,,,,,,,,,,,,,,,,,,,,,,,,,,,,,,,,,,,,,,,,,,,,,,
,,611d0e8e242d979c62655c57,2024-02-22_05h17.43.055,kallum_motion_pilot,2023.2.2,Win32,59.17159763,611d0e8e242d979c62655c57,65d6bb0e977760de756971f7,65d6bcb1fde08c320ec40482,0.0305,0.0305,0,88,88,134,1,eightsix,,,,,,,,,,,,,,,,,,,,,,,,,,,,,,,,,,,,,,,,,,,,,,,,,,,,,,,,,,,,,,,,,,,,,,,,,,,,,,,,,,,,,,,,,,,,,,,,,,,,,,,,,,,,,,,,,,,,,,,,,,,,,,,,,,,,,,,,,
,,611d0e8e242d979c62655c57,2024-02-22_05h17.43.055,kallum_motion_pilot,2023.2.2,Win32,59.17159763,611d0e8e242d979c62655c57,65d6bb0e977760de756971f7,65d6bcb1fde08c320ec40482,0.0306,0.0306,0,89,89,161,1,fiveseven,,,,,,,,,,,,,,,,,,,,,,,,,,,,,,,,,,,,,,,,,,,,,,,,,,,,,,,,,,,,,,,,,,,,,,,,,,,,,,,,,,,,,,,,,,,,,,,,,,,,,,,,,,,,,,,,,,,,,,,,,,,,,,,,,,,,,,,,,
,,611d0e8e242d979c62655c57,2024-02-22_05h17.43.055,kallum_motion_pilot,2023.2.2,Win32,59.17159763,611d0e8e242d979c62655c57,65d6bb0e977760de756971f7,65d6bcb1fde08c320ec40482,0.0307,0.0307,0,90,90,50,1,twoone,,,,,,,,,,,,,,,,,,,,,,,,,,,,,,,,,,,,,,,,,,,,,,,,,,,,,,,,,,,,,,,,,,,,,,,,,,,,,,,,,,,,,,,,,,,,,,,,,,,,,,,,,,,,,,,,,,,,,,,,,,,,,,,,,,,,,,,,,
,,611d0e8e242d979c62655c57,2024-02-22_05h17.43.055,kallum_motion_pilot,2023.2.2,Win32,59.17159763,611d0e8e242d979c62655c57,65d6bb0e977760de756971f7,65d6bcb1fde08c320ec40482,0.0308,0.0308,0,91,91,119,1,eightseven,,,,,,,,,,,,,,,,,,,,,,,,,,,,,,,,,,,,,,,,,,,,,,,,,,,,,,,,,,,,,,,,,,,,,,,,,,,,,,,,,,,,,,,,,,,,,,,,,,,,,,,,,,,,,,,,,,,,,,,,,,,,,,,,,,,,,,,,,
,,611d0e8e242d979c62655c57,2024-02-22_05h17.43.055,kallum_motion_pilot,2023.2.2,Win32,59.17159763,611d0e8e242d979c62655c57,65d6bb0e977760de756971f7,65d6bcb1fde08c320ec40482,0.0309,0.0309,0,92,92,121,1,fiveseven,,,,,,,,,,,,,,,,,,,,,,,,,,,,,,,,,,,,,,,,,,,,,,,,,,,,,,,,,,,,,,,,,,,,,,,,,,,,,,,,,,,,,,,,,,,,,,,,,,,,,,,,,,,,,,,,,,,,,,,,,,,,,,,,,,,,,,,,,
,,611d0e8e242d979c62655c57,2024-02-22_05h17.43.055,kallum_motion_pilot,2023.2.2,Win32,59.17159763,611d0e8e242d979c62655c57,65d6bb0e977760de756971f7,65d6bcb1fde08c320ec40482,0.031,0.031,0,93,93,75,1,twofour,,,,,,,,,,,,,,,,,,,,,,,,,,,,,,,,,,,,,,,,,,,,,,,,,,,,,,,,,,,,,,,,,,,,,,,,,,,,,,,,,,,,,,,,,,,,,,,,,,,,,,,,,,,,,,,,,,,,,,,,,,,,,,,,,,,,,,,,,
,,611d0e8e242d979c62655c57,2024-02-22_05h17.43.055,kallum_motion_pilot,2023.2.2,Win32,59.17159763,611d0e8e242d979c62655c57,65d6bb0e977760de756971f7,65d6bcb1fde08c320ec40482,0.0311,0.0311,0,94,94,78,1,fourtwo,,,,,,,,,,,,,,,,,,,,,,,,,,,,,,,,,,,,,,,,,,,,,,,,,,,,,,,,,,,,,,,,,,,,,,,,,,,,,,,,,,,,,,,,,,,,,,,,,,,,,,,,,,,,,,,,,,,,,,,,,,,,,,,,,,,,,,,,,
,,611d0e8e242d979c62655c57,2024-02-22_05h17.43.055,kallum_motion_pilot,2023.2.2,Win32,59.17159763,611d0e8e242d979c62655c57,65d6bb0e977760de756971f7,65d6bcb1fde08c320ec40482,0.0312,0.0312,0,95,95,132,1,sevenfive,,,,,,,,,,,,,,,,,,,,,,,,,,,,,,,,,,,,,,,,,,,,,,,,,,,,,,,,,,,,,,,,,,,,,,,,,,,,,,,,,,,,,,,,,,,,,,,,,,,,,,,,,,,,,,,,,,,,,,,,,,,,,,,,,,,,,,,,,
,,611d0e8e242d979c62655c57,2024-02-22_05h17.43.055,kallum_motion_pilot,2023.2.2,Win32,59.17159763,611d0e8e242d979c62655c57,65d6bb0e977760de756971f7,65d6bcb1fde08c320ec40482,0.0312,0.0313,0,96,96,19,1,twofour,,,,,,,,,,,,,,,,,,,,,,,,,,,,,,,,,,,,,,,,,,,,,,,,,,,,,,,,,,,,,,,,,,,,,,,,,,,,,,,,,,,,,,,,,,,,,,,,,,,,,,,,,,,,,,,,,,,,,,,,,,,,,,,,,,,,,,,,,
,,611d0e8e242d979c62655c57,2024-02-22_05h17.43.055,kallum_motion_pilot,2023.2.2,Win32,59.17159763,611d0e8e242d979c62655c57,65d6bb0e977760de756971f7,65d6bcb1fde08c320ec40482,0.0314,0.0314,0,97,97,89,1,fiveseven,,,,,,,,,,,,,,,,,,,,,,,,,,,,,,,,,,,,,,,,,,,,,,,,,,,,,,,,,,,,,,,,,,,,,,,,,,,,,,,,,,,,,,,,,,,,,,,,,,,,,,,,,,,,,,,,,,,,,,,,,,,,,,,,,,,,,,,,,
,,611d0e8e242d979c62655c57,2024-02-22_05h17.43.055,kallum_motion_pilot,2023.2.2,Win32,59.17159763,611d0e8e242d979c62655c57,65d6bb0e977760de756971f7,65d6bcb1fde08c320ec40482,0.0315,0.0315,0,98,98,30,1,fourtwo,,,,,,,,,,,,,,,,,,,,,,,,,,,,,,,,,,,,,,,,,,,,,,,,,,,,,,,,,,,,,,,,,,,,,,,,,,,,,,,,,,,,,,,,,,,,,,,,,,,,,,,,,,,,,,,,,,,,,,,,,,,,,,,,,,,,,,,,,
,,611d0e8e242d979c62655c57,2024-02-22_05h17.43.055,kallum_motion_pilot,2023.2.2,Win32,59.17159763,611d0e8e242d979c62655c57,65d6bb0e977760de756971f7,65d6bcb1fde08c320ec40482,0.0316,0.0316,0,99,99,102,1,eightsix,,,,,,,,,,,,,,,,,,,,,,,,,,,,,,,,,,,,,,,,,,,,,,,,,,,,,,,,,,,,,,,,,,,,,,,,,,,,,,,,,,,,,,,,,,,,,,,,,,,,,,,,,,,,,,,,,,,,,,,,,,,,,,,,,,,,,,,,,
,,611d0e8e242d979c62655c57,2024-02-22_05h17.43.055,kallum_motion_pilot,2023.2.2,Win32,59.17159763,611d0e8e242d979c62655c57,65d6bb0e977760de756971f7,65d6bcb1fde08c320ec40482,0.0316,0.0316,0,100,100,129,1,fiveseven,,,,,,,,,,,,,,,,,,,,,,,,,,,,,,,,,,,,,,,,,,,,,,,,,,,,,,,,,,,,,,,,,,,,,,,,,,,,,,,,,,,,,,,,,,,,,,,,,,,,,,,,,,,,,,,,,,,,,,,,,,,,,,,,,,,,,,,,,
,,611d0e8e242d979c62655c57,2024-02-22_05h17.43.055,kallum_motion_pilot,2023.2.2,Win32,59.17159763,611d0e8e242d979c62655c57,65d6bb0e977760de756971f7,65d6bcb1fde08c320ec40482,0.0317,0.0318,0,101,101,16,1,onetwo,,,,,,,,,,,,,,,,,,,,,,,,,,,,,,,,,,,,,,,,,,,,,,,,,,,,,,,,,,,,,,,,,,,,,,,,,,,,,,,,,,,,,,,,,,,,,,,,,,,,,,,,,,,,,,,,,,,,,,,,,,,,,,,,,,,,,,,,,
,,611d0e8e242d979c62655c57,2024-02-22_05h17.43.055,kallum_motion_pilot,2023.2.2,Win32,59.17159763,611d0e8e242d979c62655c57,65d6bb0e977760de756971f7,65d6bcb1fde08c320ec40482,0.0318,0.0318,0,102,102,92,1,sevenfive,,,,,,,,,,,,,,,,,,,,,,,,,,,,,,,,,,,,,,,,,,,,,,,,,,,,,,,,,,,,,,,,,,,,,,,,,,,,,,,,,,,,,,,,,,,,,,,,,,,,,,,,,,,,,,,,,,,,,,,,,,,,,,,,,,,,,,,,,
,,611d0e8e242d979c62655c57,2024-02-22_05h17.43.055,kallum_motion_pilot,2023.2.2,Win32,59.17159763,611d0e8e242d979c62655c57,65d6bb0e977760de756971f7,65d6bcb1fde08c320ec40482,0.0319,0.0319,0,103,103,103,1,eightseven,,,,,,,,,,,,,,,,,,,,,,,,,,,,,,,,,,,,,,,,,,,,,,,,,,,,,,,,,,,,,,,,,,,,,,,,,,,,,,,,,,,,,,,,,,,,,,,,,,,,,,,,,,,,,,,,,,,,,,,,,,,,,,,,,,,,,,,,,
,,611d0e8e242d979c62655c57,2024-02-22_05h17.43.055,kallum_motion_pilot,2023.2.2,Win32,59.17159763,611d0e8e242d979c62655c57,65d6bb0e977760de756971f7,65d6bcb1fde08c320ec40482,0.032,0.032,0,104,104,45,1,threefour,,,,,,,,,,,,,,,,,,,,,,,,,,,,,,,,,,,,,,,,,,,,,,,,,,,,,,,,,,,,,,,,,,,,,,,,,,,,,,,,,,,,,,,,,,,,,,,,,,,,,,,,,,,,,,,,,,,,,,,,,,,,,,,,,,,,,,,,,
,,611d0e8e242d979c62655c57,2024-02-22_05h17.43.055,kallum_motion_pilot,2023.2.2,Win32,59.17159763,611d0e8e242d979c62655c57,65d6bb0e977760de756971f7,65d6bcb1fde08c320ec40482,0.0321,0.0321,0,105,105,146,1,sixfive,,,,,,,,,,,,,,,,,,,,,,,,,,,,,,,,,,,,,,,,,,,,,,,,,,,,,,,,,,,,,,,,,,,,,,,,,,,,,,,,,,,,,,,,,,,,,,,,,,,,,,,,,,,,,,,,,,,,,,,,,,,,,,,,,,,,,,,,,
,,611d0e8e242d979c62655c57,2024-02-22_05h17.43.055,kallum_motion_pilot,2023.2.2,Win32,59.17159763,611d0e8e242d979c62655c57,65d6bb0e977760de756971f7,65d6bcb1fde08c320ec40482,0.0322,0.0323,0,106,106,113,1,fiveseven,,,,,,,,,,,,,,,,,,,,,,,,,,,,,,,,,,,,,,,,,,,,,,,,,,,,,,,,,,,,,,,,,,,,,,,,,,,,,,,,,,,,,,,,,,,,,,,,,,,,,,,,,,,,,,,,,,,,,,,,,,,,,,,,,,,,,,,,,
,,611d0e8e242d979c62655c57,2024-02-22_05h17.43.055,kallum_motion_pilot,2023.2.2,Win32,59.17159763,611d0e8e242d979c62655c57,65d6bb0e977760de756971f7,65d6bcb1fde08c320ec40482,0.0323,0.0324,0,107,107,15,1,fourthree,,,,,,,,,,,,,,,,,,,,,,,,,,,,,,,,,,,,,,,,,,,,,,,,,,,,,,,,,,,,,,,,,,,,,,,,,,,,,,,,,,,,,,,,,,,,,,,,,,,,,,,,,,,,,,,,,,,,,,,,,,,,,,,,,,,,,,,,,
,,611d0e8e242d979c62655c57,2024-02-22_05h17.43.055,kallum_motion_pilot,2023.2.2,Win32,59.17159763,611d0e8e242d979c62655c57,65d6bb0e977760de756971f7,65d6bcb1fde08c320ec40482,0.0324,0.0324,0,108,108,130,1,sixfive,,,,,,,,,,,,,,,,,,,,,,,,,,,,,,,,,,,,,,,,,,,,,,,,,,,,,,,,,,,,,,,,,,,,,,,,,,,,,,,,,,,,,,,,,,,,,,,,,,,,,,,,,,,,,,,,,,,,,,,,,,,,,,,,,,,,,,,,,
,,611d0e8e242d979c62655c57,2024-02-22_05h17.43.055,kallum_motion_pilot,2023.2.2,Win32,59.17159763,611d0e8e242d979c62655c57,65d6bb0e977760de756971f7,65d6bcb1fde08c320ec40482,0.0324,0.0325,0,109,109,156,1,sevenfive,,,,,,,,,,,,,,,,,,,,,,,,,,,,,,,,,,,,,,,,,,,,,,,,,,,,,,,,,,,,,,,,,,,,,,,,,,,,,,,,,,,,,,,,,,,,,,,,,,,,,,,,,,,,,,,,,,,,,,,,,,,,,,,,,,,,,,,,,
,,611d0e8e242d979c62655c57,2024-02-22_05h17.43.055,kallum_motion_pilot,2023.2.2,Win32,59.17159763,611d0e8e242d979c62655c57,65d6bb0e977760de756971f7,65d6bcb1fde08c320ec40482,0.0325,0.0326,0,110,110,20,1,threeone,,,,,,,,,,,,,,,,,,,,,,,,,,,,,,,,,,,,,,,,,,,,,,,,,,,,,,,,,,,,,,,,,,,,,,,,,,,,,,,,,,,,,,,,,,,,,,,,,,,,,,,,,,,,,,,,,,,,,,,,,,,,,,,,,,,,,,,,,
,,611d0e8e242d979c62655c57,2024-02-22_05h17.43.055,kallum_motion_pilot,2023.2.2,Win32,59.17159763,611d0e8e242d979c62655c57,65d6bb0e977760de756971f7,65d6bcb1fde08c320ec40482,0.0327,0.0327,0,111,111,104,1,fivesix,,,,,,,,,,,,,,,,,,,,,,,,,,,,,,,,,,,,,,,,,,,,,,,,,,,,,,,,,,,,,,,,,,,,,,,,,,,,,,,,,,,,,,,,,,,,,,,,,,,,,,,,,,,,,,,,,,,,,,,,,,,,,,,,,,,,,,,,,
,,611d0e8e242d979c62655c57,2024-02-22_05h17.43.055,kallum_motion_pilot,2023.2.2,Win32,59.17159763,611d0e8e242d979c62655c57,65d6bb0e977760de756971f7,65d6bcb1fde08c320ec40482,0.0328,0.0328,0,112,112,73,1,onethree,,,,,,,,,,,,,,,,,,,,,,,,,,,,,,,,,,,,,,,,,,,,,,,,,,,,,,,,,,,,,,,,,,,,,,,,,,,,,,,,,,,,,,,,,,,,,,,,,,,,,,,,,,,,,,,,,,,,,,,,,,,,,,,,,,,,,,,,,
,,611d0e8e242d979c62655c57,2024-02-22_05h17.43.055,kallum_motion_pilot,2023.2.2,Win32,59.17159763,611d0e8e242d979c62655c57,65d6bb0e977760de756971f7,65d6bcb1fde08c320ec40482,0.0329,0.0329,0,113,113,110,1,eightsix,,,,,,,,,,,,,,,,,,,,,,,,,,,,,,,,,,,,,,,,,,,,,,,,,,,,,,,,,,,,,,,,,,,,,,,,,,,,,,,,,,,,,,,,,,,,,,,,,,,,,,,,,,,,,,,,,,,,,,,,,,,,,,,,,,,,,,,,,
,,611d0e8e242d979c62655c57,2024-02-22_05h17.43.055,kallum_motion_pilot,2023.2.2,Win32,59.17159763,611d0e8e242d979c62655c57,65d6bb0e977760de756971f7,65d6bcb1fde08c320ec40482,0.0329,0.033,0,114,114,148,1,sevenfive,,,,,,,,,,,,,,,,,,,,,,,,,,,,,,,,,,,,,,,,,,,,,,,,,,,,,,,,,,,,,,,,,,,,,,,,,,,,,,,,,,,,,,,,,,,,,,,,,,,,,,,,,,,,,,,,,,,,,,,,,,,,,,,,,,,,,,,,,
,,611d0e8e242d979c62655c57,2024-02-22_05h17.43.055,kallum_motion_pilot,2023.2.2,Win32,59.17159763,611d0e8e242d979c62655c57,65d6bb0e977760de756971f7,65d6bcb1fde08c320ec40482,0.033,0.0331,0,115,115,138,1,sixfive,,,,,,,,,,,,,,,,,,,,,,,,,,,,,,,,,,,,,,,,,,,,,,,,,,,,,,,,,,,,,,,,,,,,,,,,,,,,,,,,,,,,,,,,,,,,,,,,,,,,,,,,,,,,,,,,,,,,,,,,,,,,,,,,,,,,,,,,,
,,611d0e8e242d979c62655c57,2024-02-22_05h17.43.055,kallum_motion_pilot,2023.2.2,Win32,59.17159763,611d0e8e242d979c62655c57,65d6bb0e977760de756971f7,65d6bcb1fde08c320ec40482,0.0331,0.0332,0,116,116,107,1,sixeight,,,,,,,,,,,,,,,,,,,,,,,,,,,,,,,,,,,,,,,,,,,,,,,,,,,,,,,,,,,,,,,,,,,,,,,,,,,,,,,,,,,,,,,,,,,,,,,,,,,,,,,,,,,,,,,,,,,,,,,,,,,,,,,,,,,,,,,,,
,,611d0e8e242d979c62655c57,2024-02-22_05h17.43.055,kallum_motion_pilot,2023.2.2,Win32,59.17159763,611d0e8e242d979c62655c57,65d6bb0e977760de756971f7,65d6bcb1fde08c320ec40482,0.0332,0.0333,0,117,117,3,1,twofour,,,,,,,,,,,,,,,,,,,,,,,,,,,,,,,,,,,,,,,,,,,,,,,,,,,,,,,,,,,,,,,,,,,,,,,,,,,,,,,,,,,,,,,,,,,,,,,,,,,,,,,,,,,,,,,,,,,,,,,,,,,,,,,,,,,,,,,,,
,,611d0e8e242d979c62655c57,2024-02-22_05h17.43.055,kallum_motion_pilot,2023.2.2,Win32,59.17159763,611d0e8e242d979c62655c57,65d6bb0e977760de756971f7,65d6bcb1fde08c320ec40482,0.0333,0.0333,0,118,118,118,1,eightsix,,,,,,,,,,,,,,,,,,,,,,,,,,,,,,,,,,,,,,,,,,,,,,,,,,,,,,,,,,,,,,,,,,,,,,,,,,,,,,,,,,,,,,,,,,,,,,,,,,,,,,,,,,,,,,,,,,,,,,,,,,,,,,,,,,,,,,,,,
,,611d0e8e242d979c62655c57,2024-02-22_05h17.43.055,kallum_motion_pilot,2023.2.2,Win32,59.17159763,611d0e8e242d979c62655c57,65d6bb0e977760de756971f7,65d6bcb1fde08c320ec40482,0.0334,0.0334,0,119,119,37,1,threefour,,,,,,,,,,,,,,,,,,,,,,,,,,,,,,,,,,,,,,,,,,,,,,,,,,,,,,,,,,,,,,,,,,,,,,,,,,,,,,,,,,,,,,,,,,,,,,,,,,,,,,,,,,,,,,,,,,,,,,,,,,,,,,,,,,,,,,,,,
,,611d0e8e242d979c62655c57,2024-02-22_05h17.43.055,kallum_motion_pilot,2023.2.2,Win32,59.17159763,611d0e8e242d979c62655c57,65d6bb0e977760de756971f7,65d6bcb1fde08c320ec40482,0.0335,0.0336,0,120,120,131,1,sixeight,,,,,,,,,,,,,,,,,,,,,,,,,,,,,,,,,,,,,,,,,,,,,,,,,,,,,,,,,,,,,,,,,,,,,,,,,,,,,,,,,,,,,,,,,,,,,,,,,,,,,,,,,,,,,,,,,,,,,,,,,,,,,,,,,,,,,,,,,
,,611d0e8e242d979c62655c57,2024-02-22_05h17.43.055,kallum_motion_pilot,2023.2.2,Win32,59.17159763,611d0e8e242d979c62655c57,65d6bb0e977760de756971f7,65d6bcb1fde08c320ec40482,0.0336,0.0336,0,121,121,62,1,fourtwo,,,,,,,,,,,,,,,,,,,,,,,,,,,,,,,,,,,,,,,,,,,,,,,,,,,,,,,,,,,,,,,,,,,,,,,,,,,,,,,,,,,,,,,,,,,,,,,,,,,,,,,,,,,,,,,,,,,,,,,,,,,,,,,,,,,,,,,,,
,,611d0e8e242d979c62655c57,2024-02-22_05h17.43.055,kallum_motion_pilot,2023.2.2,Win32,59.17159763,611d0e8e242d979c62655c57,65d6bb0e977760de756971f7,65d6bcb1fde08c320ec40482,0.0337,0.0338,0,122,122,10,1,twoone,,,,,,,,,,,,,,,,,,,,,,,,,,,,,,,,,,,,,,,,,,,,,,,,,,,,,,,,,,,,,,,,,,,,,,,,,,,,,,,,,,,,,,,,,,,,,,,,,,,,,,,,,,,,,,,,,,,,,,,,,,,,,,,,,,,,,,,,,
,,611d0e8e242d979c62655c57,2024-02-22_05h17.43.055,kallum_motion_pilot,2023.2.2,Win32,59.17159763,611d0e8e242d979c62655c57,65d6bb0e977760de756971f7,65d6bcb1fde08c320ec40482,0.0339,0.0339,0,123,123,29,1,threefour,,,,,,,,,,,,,,,,,,,,,,,,,,,,,,,,,,,,,,,,,,,,,,,,,,,,,,,,,,,,,,,,,,,,,,,,,,,,,,,,,,,,,,,,,,,,,,,,,,,,,,,,,,,,,,,,,,,,,,,,,,,,,,,,,,,,,,,,,
,,611d0e8e242d979c62655c57,2024-02-22_05h17.43.055,kallum_motion_pilot,2023.2.2,Win32,59.17159763,611d0e8e242d979c62655c57,65d6bb0e977760de756971f7,65d6bcb1fde08c320ec40482,0.0339,0.0341,0,124,124,5,1,threefour,,,,,,,,,,,,,,,,,,,,,,,,,,,,,,,,,,,,,,,,,,,,,,,,,,,,,,,,,,,,,,,,,,,,,,,,,,,,,,,,,,,,,,,,,,,,,,,,,,,,,,,,,,,,,,,,,,,,,,,,,,,,,,,,,,,,,,,,,
,,611d0e8e242d979c62655c57,2024-02-22_05h17.43.055,kallum_motion_pilot,2023.2.2,Win32,59.17159763,611d0e8e242d979c62655c57,65d6bb0e977760de756971f7,65d6bcb1fde08c320ec40482,0.0341,0.0341,0,125,125,55,1,fourthree,,,,,,,,,,,,,,,,,,,,,,,,,,,,,,,,,,,,,,,,,,,,,,,,,,,,,,,,,,,,,,,,,,,,,,,,,,,,,,,,,,,,,,,,,,,,,,,,,,,,,,,,,,,,,,,,,,,,,,,,,,,,,,,,,,,,,,,,,
,,611d0e8e242d979c62655c57,2024-02-22_05h17.43.055,kallum_motion_pilot,2023.2.2,Win32,59.17159763,611d0e8e242d979c62655c57,65d6bb0e977760de756971f7,65d6bcb1fde08c320ec40482,0.0342,0.0342,0,126,126,109,1,seveneight,,,,,,,,,,,,,,,,,,,,,,,,,,,,,,,,,,,,,,,,,,,,,,,,,,,,,,,,,,,,,,,,,,,,,,,,,,,,,,,,,,,,,,,,,,,,,,,,,,,,,,,,,,,,,,,,,,,,,,,,,,,,,,,,,,,,,,,,,
,,611d0e8e242d979c62655c57,2024-02-22_05h17.43.055,kallum_motion_pilot,2023.2.2,Win32,59.17159763,611d0e8e242d979c62655c57,65d6bb0e977760de756971f7,65d6bcb1fde08c320ec40482,0.0344,0.0344,0,127,127,54,1,fourtwo,,,,,,,,,,,,,,,,,,,,,,,,,,,,,,,,,,,,,,,,,,,,,,,,,,,,,,,,,,,,,,,,,,,,,,,,,,,,,,,,,,,,,,,,,,,,,,,,,,,,,,,,,,,,,,,,,,,,,,,,,,,,,,,,,,,,,,,,,
,,611d0e8e242d979c62655c57,2024-02-22_05h17.43.055,kallum_motion_pilot,2023.2.2,Win32,59.17159763,611d0e8e242d979c62655c57,65d6bb0e977760de756971f7,65d6bcb1fde08c320ec40482,0.0345,0.0345,0,128,128,84,1,sevenfive,,,,,,,,,,,,,,,,,,,,,,,,,,,,,,,,,,,,,,,,,,,,,,,,,,,,,,,,,,,,,,,,,,,,,,,,,,,,,,,,,,,,,,,,,,,,,,,,,,,,,,,,,,,,,,,,,,,,,,,,,,,,,,,,,,,,,,,,,
,,611d0e8e242d979c62655c57,2024-02-22_05h17.43.055,kallum_motion_pilot,2023.2.2,Win32,59.17159763,611d0e8e242d979c62655c57,65d6bb0e977760de756971f7,65d6bcb1fde08c320ec40482,0.0346,0.0346,0,129,129,122,1,sixfive,,,,,,,,,,,,,,,,,,,,,,,,,,,,,,,,,,,,,,,,,,,,,,,,,,,,,,,,,,,,,,,,,,,,,,,,,,,,,,,,,,,,,,,,,,,,,,,,,,,,,,,,,,,,,,,,,,,,,,,,,,,,,,,,,,,,,,,,,
,,611d0e8e242d979c62655c57,2024-02-22_05h17.43.055,kallum_motion_pilot,2023.2.2,Win32,59.17159763,611d0e8e242d979c62655c57,65d6bb0e977760de756971f7,65d6bcb1fde08c320ec40482,0.0347,0.0347,0,130,130,64,1,onetwo,,,,,,,,,,,,,,,,,,,,,,,,,,,,,,,,,,,,,,,,,,,,,,,,,,,,,,,,,,,,,,,,,,,,,,,,,,,,,,,,,,,,,,,,,,,,,,,,,,,,,,,,,,,,,,,,,,,,,,,,,,,,,,,,,,,,,,,,,
,,611d0e8e242d979c62655c57,2024-02-22_05h17.43.055,kallum_motion_pilot,2023.2.2,Win32,59.17159763,611d0e8e242d979c62655c57,65d6bb0e977760de756971f7,65d6bcb1fde08c320ec40482,0.0347,0.0348,0,131,131,2,1,twoone,,,,,,,,,,,,,,,,,,,,,,,,,,,,,,,,,,,,,,,,,,,,,,,,,,,,,,,,,,,,,,,,,,,,,,,,,,,,,,,,,,,,,,,,,,,,,,,,,,,,,,,,,,,,,,,,,,,,,,,,,,,,,,,,,,,,,,,,,
,,611d0e8e242d979c62655c57,2024-02-22_05h17.43.055,kallum_motion_pilot,2023.2.2,Win32,59.17159763,611d0e8e242d979c62655c57,65d6bb0e977760de756971f7,65d6bcb1fde08c320ec40482,0.0348,0.0348,0,132,132,158,1,eightsix,,,,,,,,,,,,,,,,,,,,,,,,,,,,,,,,,,,,,,,,,,,,,,,,,,,,,,,,,,,,,,,,,,,,,,,,,,,,,,,,,,,,,,,,,,,,,,,,,,,,,,,,,,,,,,,,,,,,,,,,,,,,,,,,,,,,,,,,,
,,611d0e8e242d979c62655c57,2024-02-22_05h17.43.055,kallum_motion_pilot,2023.2.2,Win32,59.17159763,611d0e8e242d979c62655c57,65d6bb0e977760de756971f7,65d6bcb1fde08c320ec40482,0.035,0.035,0,133,133,141,1,seveneight,,,,,,,,,,,,,,,,,,,,,,,,,,,,,,,,,,,,,,,,,,,,,,,,,,,,,,,,,,,,,,,,,,,,,,,,,,,,,,,,,,,,,,,,,,,,,,,,,,,,,,,,,,,,,,,,,,,,,,,,,,,,,,,,,,,,,,,,,
,,611d0e8e242d979c62655c57,2024-02-22_05h17.43.055,kallum_motion_pilot,2023.2.2,Win32,59.17159763,611d0e8e242d979c62655c57,65d6bb0e977760de756971f7,65d6bcb1fde08c320ec40482,0.0351,0.0351,0,134,134,120,1,fivesix,,,,,,,,,,,,,,,,,,,,,,,,,,,,,,,,,,,,,,,,,,,,,,,,,,,,,,,,,,,,,,,,,,,,,,,,,,,,,,,,,,,,,,,,,,,,,,,,,,,,,,,,,,,,,,,,,,,,,,,,,,,,,,,,,,,,,,,,,
,,611d0e8e242d979c62655c57,2024-02-22_05h17.43.055,kallum_motion_pilot,2023.2.2,Win32,59.17159763,611d0e8e242d979c62655c57,65d6bb0e977760de756971f7,65d6bcb1fde08c320ec40482,0.0351,0.0352,0,135,135,51,1,twofour,,,,,,,,,,,,,,,,,,,,,,,,,,,,,,,,,,,,,,,,,,,,,,,,,,,,,,,,,,,,,,,,,,,,,,,,,,,,,,,,,,,,,,,,,,,,,,,,,,,,,,,,,,,,,,,,,,,,,,,,,,,,,,,,,,,,,,,,,
,,611d0e8e242d979c62655c57,2024-02-22_05h17.43.055,kallum_motion_pilot,2023.2.2,Win32,59.17159763,611d0e8e242d979c62655c57,65d6bb0e977760de756971f7,65d6bcb1fde08c320ec40482,0.0352,0.0352,0,136,136,108,1,sevenfive,,,,,,,,,,,,,,,,,,,,,,,,,,,,,,,,,,,,,,,,,,,,,,,,,,,,,,,,,,,,,,,,,,,,,,,,,,,,,,,,,,,,,,,,,,,,,,,,,,,,,,,,,,,,,,,,,,,,,,,,,,,,,,,,,,,,,,,,,
,,611d0e8e242d979c62655c57,2024-02-22_05h17.43.055,kallum_motion_pilot,2023.2.2,Win32,59.17159763,611d0e8e242d979c62655c57,65d6bb0e977760de756971f7,65d6bcb1fde08c320ec40482,0.0353,0.0354,0,137,137,12,1,threeone,,,,,,,,,,,,,,,,,,,,,,,,,,,,,,,,,,,,,,,,,,,,,,,,,,,,,,,,,,,,,,,,,,,,,,,,,,,,,,,,,,,,,,,,,,,,,,,,,,,,,,,,,,,,,,,,,,,,,,,,,,,,,,,,,,,,,,,,,
,,611d0e8e242d979c62655c57,2024-02-22_05h17.43.055,kallum_motion_pilot,2023.2.2,Win32,59.17159763,611d0e8e242d979c62655c57,65d6bb0e977760de756971f7,65d6bcb1fde08c320ec40482,0.0354,0.0354,0,138,138,85,1,seveneight,,,,,,,,,,,,,,,,,,,,,,,,,,,,,,,,,,,,,,,,,,,,,,,,,,,,,,,,,,,,,,,,,,,,,,,,,,,,,,,,,,,,,,,,,,,,,,,,,,,,,,,,,,,,,,,,,,,,,,,,,,,,,,,,,,,,,,,,,
,,611d0e8e242d979c62655c57,2024-02-22_05h17.43.055,kallum_motion_pilot,2023.2.2,Win32,59.17159763,611d0e8e242d979c62655c57,65d6bb0e977760de756971f7,65d6bcb1fde08c320ec40482,0.0355,0.0355,0,139,139,44,1,threeone,,,,,,,,,,,,,,,,,,,,,,,,,,,,,,,,,,,,,,,,,,,,,,,,,,,,,,,,,,,,,,,,,,,,,,,,,,,,,,,,,,,,,,,,,,,,,,,,,,,,,,,,,,,,,,,,,,,,,,,,,,,,,,,,,,,,,,,,,
,,611d0e8e242d979c62655c57,2024-02-22_05h17.43.055,kallum_motion_pilot,2023.2.2,Win32,59.17159763,611d0e8e242d979c62655c57,65d6bb0e977760de756971f7,65d6bcb1fde08c320ec40482,0.0355,0.0356,0,140,140,60,1,threeone,,,,,,,,,,,,,,,,,,,,,,,,,,,,,,,,,,,,,,,,,,,,,,,,,,,,,,,,,,,,,,,,,,,,,,,,,,,,,,,,,,,,,,,,,,,,,,,,,,,,,,,,,,,,,,,,,,,,,,,,,,,,,,,,,,,,,,,,,
,,611d0e8e242d979c62655c57,2024-02-22_05h17.43.055,kallum_motion_pilot,2023.2.2,Win32,59.17159763,611d0e8e242d979c62655c57,65d6bb0e977760de756971f7,65d6bcb1fde08c320ec40482,0.0357,0.0357,0,141,141,95,1,eightseven,,,,,,,,,,,,,,,,,,,,,,,,,,,,,,,,,,,,,,,,,,,,,,,,,,,,,,,,,,,,,,,,,,,,,,,,,,,,,,,,,,,,,,,,,,,,,,,,,,,,,,,,,,,,,,,,,,,,,,,,,,,,,,,,,,,,,,,,,
,,611d0e8e242d979c62655c57,2024-02-22_05h17.43.055,kallum_motion_pilot,2023.2.2,Win32,59.17159763,611d0e8e242d979c62655c57,65d6bb0e977760de756971f7,65d6bcb1fde08c320ec40482,0.0358,0.0358,0,142,142,71,1,fourthree,,,,,,,,,,,,,,,,,,,,,,,,,,,,,,,,,,,,,,,,,,,,,,,,,,,,,,,,,,,,,,,,,,,,,,,,,,,,,,,,,,,,,,,,,,,,,,,,,,,,,,,,,,,,,,,,,,,,,,,,,,,,,,,,,,,,,,,,,
,,611d0e8e242d979c62655c57,2024-02-22_05h17.43.055,kallum_motion_pilot,2023.2.2,Win32,59.17159763,611d0e8e242d979c62655c57,65d6bb0e977760de756971f7,65d6bcb1fde08c320ec40482,0.0359,0.036,0,143,143,133,1,seveneight,,,,,,,,,,,,,,,,,,,,,,,,,,,,,,,,,,,,,,,,,,,,,,,,,,,,,,,,,,,,,,,,,,,,,,,,,,,,,,,,,,,,,,,,,,,,,,,,,,,,,,,,,,,,,,,,,,,,,,,,,,,,,,,,,,,,,,,,,
,,611d0e8e242d979c62655c57,2024-02-22_05h17.43.055,kallum_motion_pilot,2023.2.2,Win32,59.17159763,611d0e8e242d979c62655c57,65d6bb0e977760de756971f7,65d6bcb1fde08c320ec40482,0.036,0.036,0,144,144,105,1,fiveseven,,,,,,,,,,,,,,,,,,,,,,,,,,,,,,,,,,,,,,,,,,,,,,,,,,,,,,,,,,,,,,,,,,,,,,,,,,,,,,,,,,,,,,,,,,,,,,,,,,,,,,,,,,,,,,,,,,,,,,,,,,,,,,,,,,,,,,,,,
,,611d0e8e242d979c62655c57,2024-02-22_05h17.43.055,kallum_motion_pilot,2023.2.2,Win32,59.17159763,611d0e8e242d979c62655c57,65d6bb0e977760de756971f7,65d6bcb1fde08c320ec40482,0.036,0.036,0,145,145,6,1,fourtwo,,,,,,,,,,,,,,,,,,,,,,,,,,,,,,,,,,,,,,,,,,,,,,,,,,,,,,,,,,,,,,,,,,,,,,,,,,,,,,,,,,,,,,,,,,,,,,,,,,,,,,,,,,,,,,,,,,,,,,,,,,,,,,,,,,,,,,,,,
,,611d0e8e242d979c62655c57,2024-02-22_05h17.43.055,kallum_motion_pilot,2023.2.2,Win32,59.17159763,611d0e8e242d979c62655c57,65d6bb0e977760de756971f7,65d6bcb1fde08c320ec40482,0.0361,0.0362,0,146,146,153,1,fiveseven,,,,,,,,,,,,,,,,,,,,,,,,,,,,,,,,,,,,,,,,,,,,,,,,,,,,,,,,,,,,,,,,,,,,,,,,,,,,,,,,,,,,,,,,,,,,,,,,,,,,,,,,,,,,,,,,,,,,,,,,,,,,,,,,,,,,,,,,,
,,611d0e8e242d979c62655c57,2024-02-22_05h17.43.055,kallum_motion_pilot,2023.2.2,Win32,59.17159763,611d0e8e242d979c62655c57,65d6bb0e977760de756971f7,65d6bcb1fde08c320ec40482,0.0363,0.0363,0,147,147,81,1,fiveseven,,,,,,,,,,,,,,,,,,,,,,,,,,,,,,,,,,,,,,,,,,,,,,,,,,,,,,,,,,,,,,,,,,,,,,,,,,,,,,,,,,,,,,,,,,,,,,,,,,,,,,,,,,,,,,,,,,,,,,,,,,,,,,,,,,,,,,,,,
,,611d0e8e242d979c62655c57,2024-02-22_05h17.43.055,kallum_motion_pilot,2023.2.2,Win32,59.17159763,611d0e8e242d979c62655c57,65d6bb0e977760de756971f7,65d6bcb1fde08c320ec40482,0.0363,0.0363,0,148,148,11,1,twofour,,,,,,,,,,,,,,,,,,,,,,,,,,,,,,,,,,,,,,,,,,,,,,,,,,,,,,,,,,,,,,,,,,,,,,,,,,,,,,,,,,,,,,,,,,,,,,,,,,,,,,,,,,,,,,,,,,,,,,,,,,,,,,,,,,,,,,,,,
,,611d0e8e242d979c62655c57,2024-02-22_05h17.43.055,kallum_motion_pilot,2023.2.2,Win32,59.17159763,611d0e8e242d979c62655c57,65d6bb0e977760de756971f7,65d6bcb1fde08c320ec40482,0.0364,0.0365,0,149,149,80,1,fivesix,,,,,,,,,,,,,,,,,,,,,,,,,,,,,,,,,,,,,,,,,,,,,,,,,,,,,,,,,,,,,,,,,,,,,,,,,,,,,,,,,,,,,,,,,,,,,,,,,,,,,,,,,,,,,,,,,,,,,,,,,,,,,,,,,,,,,,,,,
,,611d0e8e242d979c62655c57,2024-02-22_05h17.43.055,kallum_motion_pilot,2023.2.2,Win32,59.17159763,611d0e8e242d979c62655c57,65d6bb0e977760de756971f7,65d6bcb1fde08c320ec40482,0.0365,0.0365,0,150,150,28,1,threeone,,,,,,,,,,,,,,,,,,,,,,,,,,,,,,,,,,,,,,,,,,,,,,,,,,,,,,,,,,,,,,,,,,,,,,,,,,,,,,,,,,,,,,,,,,,,,,,,,,,,,,,,,,,,,,,,,,,,,,,,,,,,,,,,,,,,,,,,,
,,611d0e8e242d979c62655c57,2024-02-22_05h17.43.055,kallum_motion_pilot,2023.2.2,Win32,59.17159763,611d0e8e242d979c62655c57,65d6bb0e977760de756971f7,65d6bcb1fde08c320ec40482,0.0365,0.0366,0,151,151,4,1,threeone,,,,,,,,,,,,,,,,,,,,,,,,,,,,,,,,,,,,,,,,,,,,,,,,,,,,,,,,,,,,,,,,,,,,,,,,,,,,,,,,,,,,,,,,,,,,,,,,,,,,,,,,,,,,,,,,,,,,,,,,,,,,,,,,,,,,,,,,,
,,611d0e8e242d979c62655c57,2024-02-22_05h17.43.055,kallum_motion_pilot,2023.2.2,Win32,59.17159763,611d0e8e242d979c62655c57,65d6bb0e977760de756971f7,65d6bcb1fde08c320ec40482,0.0366,0.0367,0,152,152,66,1,twoone,,,,,,,,,,,,,,,,,,,,,,,,,,,,,,,,,,,,,,,,,,,,,,,,,,,,,,,,,,,,,,,,,,,,,,,,,,,,,,,,,,,,,,,,,,,,,,,,,,,,,,,,,,,,,,,,,,,,,,,,,,,,,,,,,,,,,,,,,
,,611d0e8e242d979c62655c57,2024-02-22_05h17.43.055,kallum_motion_pilot,2023.2.2,Win32,59.17159763,611d0e8e242d979c62655c57,65d6bb0e977760de756971f7,65d6bcb1fde08c320ec40482,0.0367,0.0367,0,153,153,154,1,sixfive,,,,,,,,,,,,,,,,,,,,,,,,,,,,,,,,,,,,,,,,,,,,,,,,,,,,,,,,,,,,,,,,,,,,,,,,,,,,,,,,,,,,,,,,,,,,,,,,,,,,,,,,,,,,,,,,,,,,,,,,,,,,,,,,,,,,,,,,,
,,611d0e8e242d979c62655c57,2024-02-22_05h17.43.055,kallum_motion_pilot,2023.2.2,Win32,59.17159763,611d0e8e242d979c62655c57,65d6bb0e977760de756971f7,65d6bcb1fde08c320ec40482,0.0369,0.0369,0,154,154,8,1,onetwo,,,,,,,,,,,,,,,,,,,,,,,,,,,,,,,,,,,,,,,,,,,,,,,,,,,,,,,,,,,,,,,,,,,,,,,,,,,,,,,,,,,,,,,,,,,,,,,,,,,,,,,,,,,,,,,,,,,,,,,,,,,,,,,,,,,,,,,,,
,,611d0e8e242d979c62655c57,2024-02-22_05h17.43.055,kallum_motion_pilot,2023.2.2,Win32,59.17159763,611d0e8e242d979c62655c57,65d6bb0e977760de756971f7,65d6bcb1fde08c320ec40482,0.037,0.037,0,155,155,59,1,twofour,,,,,,,,,,,,,,,,,,,,,,,,,,,,,,,,,,,,,,,,,,,,,,,,,,,,,,,,,,,,,,,,,,,,,,,,,,,,,,,,,,,,,,,,,,,,,,,,,,,,,,,,,,,,,,,,,,,,,,,,,,,,,,,,,,,,,,,,,
,,611d0e8e242d979c62655c57,2024-02-22_05h17.43.055,kallum_motion_pilot,2023.2.2,Win32,59.17159763,611d0e8e242d979c62655c57,65d6bb0e977760de756971f7,65d6bcb1fde08c320ec40482,0.0371,0.0371,0,156,156,40,1,onetwo,,,,,,,,,,,,,,,,,,,,,,,,,,,,,,,,,,,,,,,,,,,,,,,,,,,,,,,,,,,,,,,,,,,,,,,,,,,,,,,,,,,,,,,,,,,,,,,,,,,,,,,,,,,,,,,,,,,,,,,,,,,,,,,,,,,,,,,,,
,,611d0e8e242d979c62655c57,2024-02-22_05h17.43.055,kallum_motion_pilot,2023.2.2,Win32,59.17159763,611d0e8e242d979c62655c57,65d6bb0e977760de756971f7,65d6bcb1fde08c320ec40482,0.0371,0.0372,0,157,157,42,1,twoone,,,,,,,,,,,,,,,,,,,,,,,,,,,,,,,,,,,,,,,,,,,,,,,,,,,,,,,,,,,,,,,,,,,,,,,,,,,,,,,,,,,,,,,,,,,,,,,,,,,,,,,,,,,,,,,,,,,,,,,,,,,,,,,,,,,,,,,,,
,,611d0e8e242d979c62655c57,2024-02-22_05h17.43.055,kallum_motion_pilot,2023.2.2,Win32,59.17159763,611d0e8e242d979c62655c57,65d6bb0e977760de756971f7,65d6bcb1fde08c320ec40482,0.0372,0.0373,0,158,158,144,1,fivesix,,,,,,,,,,,,,,,,,,,,,,,,,,,,,,,,,,,,,,,,,,,,,,,,,,,,,,,,,,,,,,,,,,,,,,,,,,,,,,,,,,,,,,,,,,,,,,,,,,,,,,,,,,,,,,,,,,,,,,,,,,,,,,,,,,,,,,,,,
,,611d0e8e242d979c62655c57,2024-02-22_05h17.43.055,kallum_motion_pilot,2023.2.2,Win32,59.17159763,611d0e8e242d979c62655c57,65d6bb0e977760de756971f7,65d6bcb1fde08c320ec40482,0.0373,0.0374,0,159,159,160,1,fivesix,,,,,,,,,,,,,,,,,,,,,,,,,,,,,,,,,,,,,,,,,,,,,,,,,,,,,,,,,,,,,,,,,,,,,,,,,,,,,,,,,,,,,,,,,,,,,,,,,,,,,,,,,,,,,,,,,,,,,,,,,,,,,,,,,,,,,,,,,
,,611d0e8e242d979c62655c57,2024-02-22_05h17.43.055,kallum_motion_pilot,2023.2.2,Win32,59.17159763,611d0e8e242d979c62655c57,65d6bb0e977760de756971f7,65d6bcb1fde08c320ec40482,0.0374,0.0375,0,160,160,106,1,sixfive,,,,,,,,,,,,,,,,,,,,,,,,,,,,,,,,,,,,,,,,,,,,,,,,,,,,,,,,,,,,,,,,,,,,,,,,,,,,,,,,,,,,,,,,,,,,,,,,,,,,,,,,,,,,,,,,,,,,,,,,,,,,,,,,,,,,,,,,,
,,611d0e8e242d979c62655c57,2024-02-22_05h17.43.055,kallum_motion_pilot,2023.2.2,Win32,59.17159763,611d0e8e242d979c62655c57,65d6bb0e977760de756971f7,65d6bcb1fde08c320ec40482,0.0376,0.0376,0,161,161,41,1,onethree,,,,,,,,,,,,,,,,,,,,,,,,,,,,,,,,,,,,,,,,,,,,,,,,,,,,,,,,,,,,,,,,,,,,,,,,,,,,,,,,,,,,,,,,,,,,,,,,,,,,,,,,,,,,,,,,,,,,,,,,,,,,,,,,,,,,,,,,,
,,611d0e8e242d979c62655c57,2024-02-22_05h17.43.055,kallum_motion_pilot,2023.2.2,Win32,59.17159763,611d0e8e242d979c62655c57,65d6bb0e977760de756971f7,65d6bcb1fde08c320ec40482,0.0376,0.0376,1,0,162,68,1,threeone,,,,,,,,,,,,,,,,,,,,,,,,,,,,,,,,,,,,,,,,,,,,,,,,,,,,,,,,,,,,,,,,,,,,,,,,,,,,,,,,,,,,,,,,,,,,,,,,,,,,,,,,,,,,,,,,,,,,,,,,,,,,,,,,,,,,,,,,,
,,611d0e8e242d979c62655c57,2024-02-22_05h17.43.055,kallum_motion_pilot,2023.2.2,Win32,59.17159763,611d0e8e242d979c62655c57,65d6bb0e977760de756971f7,65d6bcb1fde08c320ec40482,0.0378,0.0378,1,1,163,104,1,fivesix,,,,,,,,,,,,,,,,,,,,,,,,,,,,,,,,,,,,,,,,,,,,,,,,,,,,,,,,,,,,,,,,,,,,,,,,,,,,,,,,,,,,,,,,,,,,,,,,,,,,,,,,,,,,,,,,,,,,,,,,,,,,,,,,,,,,,,,,,
,,611d0e8e242d979c62655c57,2024-02-22_05h17.43.055,kallum_motion_pilot,2023.2.2,Win32,59.17159763,611d0e8e242d979c62655c57,65d6bb0e977760de756971f7,65d6bcb1fde08c320ec40482,0.0378,0.0379,1,2,164,146,1,sixfive,,,,,,,,,,,,,,,,,,,,,,,,,,,,,,,,,,,,,,,,,,,,,,,,,,,,,,,,,,,,,,,,,,,,,,,,,,,,,,,,,,,,,,,,,,,,,,,,,,,,,,,,,,,,,,,,,,,,,,,,,,,,,,,,,,,,,,,,,
,,611d0e8e242d979c62655c57,2024-02-22_05h17.43.055,kallum_motion_pilot,2023.2.2,Win32,59.17159763,611d0e8e242d979c62655c57,65d6bb0e977760de756971f7,65d6bcb1fde08c320ec40482,0.0386,0.0387,1,3,165,105,1,fiveseven,,,,,,,,,,,,,,,,,,,,,,,,,,,,,,,,,,,,,,,,,,,,,,,,,,,,,,,,,,,,,,,,,,,,,,,,,,,,,,,,,,,,,,,,,,,,,,,,,,,,,,,,,,,,,,,,,,,,,,,,,,,,,,,,,,,,,,,,,
,,611d0e8e242d979c62655c57,2024-02-22_05h17.43.055,kallum_motion_pilot,2023.2.2,Win32,59.17159763,611d0e8e242d979c62655c57,65d6bb0e977760de756971f7,65d6bcb1fde08c320ec40482,0.0388,0.0389,1,4,166,133,1,seveneight,,,,,,,,,,,,,,,,,,,,,,,,,,,,,,,,,,,,,,,,,,,,,,,,,,,,,,,,,,,,,,,,,,,,,,,,,,,,,,,,,,,,,,,,,,,,,,,,,,,,,,,,,,,,,,,,,,,,,,,,,,,,,,,,,,,,,,,,,
,,611d0e8e242d979c62655c57,2024-02-22_05h17.43.055,kallum_motion_pilot,2023.2.2,Win32,59.17159763,611d0e8e242d979c62655c57,65d6bb0e977760de756971f7,65d6bcb1fde08c320ec40482,0.0389,0.0389,1,5,167,111,1,eightseven,,,,,,,,,,,,,,,,,,,,,,,,,,,,,,,,,,,,,,,,,,,,,,,,,,,,,,,,,,,,,,,,,,,,,,,,,,,,,,,,,,,,,,,,,,,,,,,,,,,,,,,,,,,,,,,,,,,,,,,,,,,,,,,,,,,,,,,,,
,,611d0e8e242d979c62655c57,2024-02-22_05h17.43.055,kallum_motion_pilot,2023.2.2,Win32,59.17159763,611d0e8e242d979c62655c57,65d6bb0e977760de756971f7,65d6bcb1fde08c320ec40482,0.039,0.039,1,6,168,160,1,fivesix,,,,,,,,,,,,,,,,,,,,,,,,,,,,,,,,,,,,,,,,,,,,,,,,,,,,,,,,,,,,,,,,,,,,,,,,,,,,,,,,,,,,,,,,,,,,,,,,,,,,,,,,,,,,,,,,,,,,,,,,,,,,,,,,,,,,,,,,,
,,611d0e8e242d979c62655c57,2024-02-22_05h17.43.055,kallum_motion_pilot,2023.2.2,Win32,59.17159763,611d0e8e242d979c62655c57,65d6bb0e977760de756971f7,65d6bcb1fde08c320ec40482,0.0391,0.0393,1,7,169,151,1,eightseven,,,,,,,,,,,,,,,,,,,,,,,,,,,,,,,,,,,,,,,,,,,,,,,,,,,,,,,,,,,,,,,,,,,,,,,,,,,,,,,,,,,,,,,,,,,,,,,,,,,,,,,,,,,,,,,,,,,,,,,,,,,,,,,,,,,,,,,,,
,,611d0e8e242d979c62655c57,2024-02-22_05h17.43.055,kallum_motion_pilot,2023.2.2,Win32,59.17159763,611d0e8e242d979c62655c57,65d6bb0e977760de756971f7,65d6bcb1fde08c320ec40482,0.0394,0.0395,1,8,170,47,1,fourthree,,,,,,,,,,,,,,,,,,,,,,,,,,,,,,,,,,,,,,,,,,,,,,,,,,,,,,,,,,,,,,,,,,,,,,,,,,,,,,,,,,,,,,,,,,,,,,,,,,,,,,,,,,,,,,,,,,,,,,,,,,,,,,,,,,,,,,,,,
,,611d0e8e242d979c62655c57,2024-02-22_05h17.43.055,kallum_motion_pilot,2023.2.2,Win32,59.17159763,611d0e8e242d979c62655c57,65d6bb0e977760de756971f7,65d6bcb1fde08c320ec40482,0.0396,0.0397,1,9,171,26,1,twoone,,,,,,,,,,,,,,,,,,,,,,,,,,,,,,,,,,,,,,,,,,,,,,,,,,,,,,,,,,,,,,,,,,,,,,,,,,,,,,,,,,,,,,,,,,,,,,,,,,,,,,,,,,,,,,,,,,,,,,,,,,,,,,,,,,,,,,,,,
,,611d0e8e242d979c62655c57,2024-02-22_05h17.43.055,kallum_motion_pilot,2023.2.2,Win32,59.17159763,611d0e8e242d979c62655c57,65d6bb0e977760de756971f7,65d6bcb1fde08c320ec40482,0.0398,0.0399,1,10,172,140,1,sevenfive,,,,,,,,,,,,,,,,,,,,,,,,,,,,,,,,,,,,,,,,,,,,,,,,,,,,,,,,,,,,,,,,,,,,,,,,,,,,,,,,,,,,,,,,,,,,,,,,,,,,,,,,,,,,,,,,,,,,,,,,,,,,,,,,,,,,,,,,,
,,611d0e8e242d979c62655c57,2024-02-22_05h17.43.055,kallum_motion_pilot,2023.2.2,Win32,59.17159763,611d0e8e242d979c62655c57,65d6bb0e977760de756971f7,65d6bcb1fde08c320ec40482,0.04,0.0401,1,11,173,20,1,threeone,,,,,,,,,,,,,,,,,,,,,,,,,,,,,,,,,,,,,,,,,,,,,,,,,,,,,,,,,,,,,,,,,,,,,,,,,,,,,,,,,,,,,,,,,,,,,,,,,,,,,,,,,,,,,,,,,,,,,,,,,,,,,,,,,,,,,,,,,
,,611d0e8e242d979c62655c57,2024-02-22_05h17.43.055,kallum_motion_pilot,2023.2.2,Win32,59.17159763,611d0e8e242d979c62655c57,65d6bb0e977760de756971f7,65d6bcb1fde08c320ec40482,0.0401,0.0401,1,12,174,120,1,fivesix,,,,,,,,,,,,,,,,,,,,,,,,,,,,,,,,,,,,,,,,,,,,,,,,,,,,,,,,,,,,,,,,,,,,,,,,,,,,,,,,,,,,,,,,,,,,,,,,,,,,,,,,,,,,,,,,,,,,,,,,,,,,,,,,,,,,,,,,,
,,611d0e8e242d979c62655c57,2024-02-22_05h17.43.055,kallum_motion_pilot,2023.2.2,Win32,59.17159763,611d0e8e242d979c62655c57,65d6bb0e977760de756971f7,65d6bcb1fde08c320ec40482,0.0402,0.0403,1,13,175,134,1,eightsix,,,,,,,,,,,,,,,,,,,,,,,,,,,,,,,,,,,,,,,,,,,,,,,,,,,,,,,,,,,,,,,,,,,,,,,,,,,,,,,,,,,,,,,,,,,,,,,,,,,,,,,,,,,,,,,,,,,,,,,,,,,,,,,,,,,,,,,,,
,,611d0e8e242d979c62655c57,2024-02-22_05h17.43.055,kallum_motion_pilot,2023.2.2,Win32,59.17159763,611d0e8e242d979c62655c57,65d6bb0e977760de756971f7,65d6bcb1fde08c320ec40482,0.0403,0.0403,1,14,176,81,1,fiveseven,,,,,,,,,,,,,,,,,,,,,,,,,,,,,,,,,,,,,,,,,,,,,,,,,,,,,,,,,,,,,,,,,,,,,,,,,,,,,,,,,,,,,,,,,,,,,,,,,,,,,,,,,,,,,,,,,,,,,,,,,,,,,,,,,,,,,,,,,
,,611d0e8e242d979c62655c57,2024-02-22_05h17.43.055,kallum_motion_pilot,2023.2.2,Win32,59.17159763,611d0e8e242d979c62655c57,65d6bb0e977760de756971f7,65d6bcb1fde08c320ec40482,0.0404,0.0405,1,15,177,102,1,eightsix,,,,,,,,,,,,,,,,,,,,,,,,,,,,,,,,,,,,,,,,,,,,,,,,,,,,,,,,,,,,,,,,,,,,,,,,,,,,,,,,,,,,,,,,,,,,,,,,,,,,,,,,,,,,,,,,,,,,,,,,,,,,,,,,,,,,,,,,,
,,611d0e8e242d979c62655c57,2024-02-22_05h17.43.055,kallum_motion_pilot,2023.2.2,Win32,59.17159763,611d0e8e242d979c62655c57,65d6bb0e977760de756971f7,65d6bcb1fde08c320ec40482,0.0405,0.0405,1,16,178,139,1,sixeight,,,,,,,,,,,,,,,,,,,,,,,,,,,,,,,,,,,,,,,,,,,,,,,,,,,,,,,,,,,,,,,,,,,,,,,,,,,,,,,,,,,,,,,,,,,,,,,,,,,,,,,,,,,,,,,,,,,,,,,,,,,,,,,,,,,,,,,,,
,,611d0e8e242d979c62655c57,2024-02-22_05h17.43.055,kallum_motion_pilot,2023.2.2,Win32,59.17159763,611d0e8e242d979c62655c57,65d6bb0e977760de756971f7,65d6bcb1fde08c320ec40482,0.0406,0.0407,1,17,179,23,1,fourthree,,,,,,,,,,,,,,,,,,,,,,,,,,,,,,,,,,,,,,,,,,,,,,,,,,,,,,,,,,,,,,,,,,,,,,,,,,,,,,,,,,,,,,,,,,,,,,,,,,,,,,,,,,,,,,,,,,,,,,,,,,,,,,,,,,,,,,,,,
,,611d0e8e242d979c62655c57,2024-02-22_05h17.43.055,kallum_motion_pilot,2023.2.2,Win32,59.17159763,611d0e8e242d979c62655c57,65d6bb0e977760de756971f7,65d6bcb1fde08c320ec40482,0.0407,0.0408,1,18,180,61,1,threefour,,,,,,,,,,,,,,,,,,,,,,,,,,,,,,,,,,,,,,,,,,,,,,,,,,,,,,,,,,,,,,,,,,,,,,,,,,,,,,,,,,,,,,,,,,,,,,,,,,,,,,,,,,,,,,,,,,,,,,,,,,,,,,,,,,,,,,,,,
,,611d0e8e242d979c62655c57,2024-02-22_05h17.43.055,kallum_motion_pilot,2023.2.2,Win32,59.17159763,611d0e8e242d979c62655c57,65d6bb0e977760de756971f7,65d6bcb1fde08c320ec40482,0.0409,0.0409,1,19,181,44,1,threeone,,,,,,,,,,,,,,,,,,,,,,,,,,,,,,,,,,,,,,,,,,,,,,,,,,,,,,,,,,,,,,,,,,,,,,,,,,,,,,,,,,,,,,,,,,,,,,,,,,,,,,,,,,,,,,,,,,,,,,,,,,,,,,,,,,,,,,,,,
,,611d0e8e242d979c62655c57,2024-02-22_05h17.43.055,kallum_motion_pilot,2023.2.2,Win32,59.17159763,611d0e8e242d979c62655c57,65d6bb0e977760de756971f7,65d6bcb1fde08c320ec40482,0.041,0.041,1,20,182,101,1,seveneight,,,,,,,,,,,,,,,,,,,,,,,,,,,,,,,,,,,,,,,,,,,,,,,,,,,,,,,,,,,,,,,,,,,,,,,,,,,,,,,,,,,,,,,,,,,,,,,,,,,,,,,,,,,,,,,,,,,,,,,,,,,,,,,,,,,,,,,,,
,,611d0e8e242d979c62655c57,2024-02-22_05h17.43.055,kallum_motion_pilot,2023.2.2,Win32,59.17159763,611d0e8e242d979c62655c57,65d6bb0e977760de756971f7,65d6bcb1fde08c320ec40482,0.0411,0.0411,1,21,183,96,1,fivesix,,,,,,,,,,,,,,,,,,,,,,,,,,,,,,,,,,,,,,,,,,,,,,,,,,,,,,,,,,,,,,,,,,,,,,,,,,,,,,,,,,,,,,,,,,,,,,,,,,,,,,,,,,,,,,,,,,,,,,,,,,,,,,,,,,,,,,,,,
,,611d0e8e242d979c62655c57,2024-02-22_05h17.43.055,kallum_motion_pilot,2023.2.2,Win32,59.17159763,611d0e8e242d979c62655c57,65d6bb0e977760de756971f7,65d6bcb1fde08c320ec40482,0.0412,0.0413,1,22,184,157,1,seveneight,,,,,,,,,,,,,,,,,,,,,,,,,,,,,,,,,,,,,,,,,,,,,,,,,,,,,,,,,,,,,,,,,,,,,,,,,,,,,,,,,,,,,,,,,,,,,,,,,,,,,,,,,,,,,,,,,,,,,,,,,,,,,,,,,,,,,,,,,
,,611d0e8e242d979c62655c57,2024-02-22_05h17.43.055,kallum_motion_pilot,2023.2.2,Win32,59.17159763,611d0e8e242d979c62655c57,65d6bb0e977760de756971f7,65d6bcb1fde08c320ec40482,0.0413,0.0414,1,23,185,113,1,fiveseven,,,,,,,,,,,,,,,,,,,,,,,,,,,,,,,,,,,,,,,,,,,,,,,,,,,,,,,,,,,,,,,,,,,,,,,,,,,,,,,,,,,,,,,,,,,,,,,,,,,,,,,,,,,,,,,,,,,,,,,,,,,,,,,,,,,,,,,,,
,,611d0e8e242d979c62655c57,2024-02-22_05h17.43.055,kallum_motion_pilot,2023.2.2,Win32,59.17159763,611d0e8e242d979c62655c57,65d6bb0e977760de756971f7,65d6bcb1fde08c320ec40482,0.0414,0.0415,1,24,186,110,1,eightsix,,,,,,,,,,,,,,,,,,,,,,,,,,,,,,,,,,,,,,,,,,,,,,,,,,,,,,,,,,,,,,,,,,,,,,,,,,,,,,,,,,,,,,,,,,,,,,,,,,,,,,,,,,,,,,,,,,,,,,,,,,,,,,,,,,,,,,,,,
,,611d0e8e242d979c62655c57,2024-02-22_05h17.43.055,kallum_motion_pilot,2023.2.2,Win32,59.17159763,611d0e8e242d979c62655c57,65d6bb0e977760de756971f7,65d6bcb1fde08c320ec40482,0.0416,0.0417,1,25,187,95,1,eightseven,,,,,,,,,,,,,,,,,,,,,,,,,,,,,,,,,,,,,,,,,,,,,,,,,,,,,,,,,,,,,,,,,,,,,,,,,,,,,,,,,,,,,,,,,,,,,,,,,,,,,,,,,,,,,,,,,,,,,,,,,,,,,,,,,,,,,,,,,
,,611d0e8e242d979c62655c57,2024-02-22_05h17.43.055,kallum_motion_pilot,2023.2.2,Win32,59.17159763,611d0e8e242d979c62655c57,65d6bb0e977760de756971f7,65d6bcb1fde08c320ec40482,0.0418,0.0418,1,26,188,18,1,twoone,,,,,,,,,,,,,,,,,,,,,,,,,,,,,,,,,,,,,,,,,,,,,,,,,,,,,,,,,,,,,,,,,,,,,,,,,,,,,,,,,,,,,,,,,,,,,,,,,,,,,,,,,,,,,,,,,,,,,,,,,,,,,,,,,,,,,,,,,
,,611d0e8e242d979c62655c57,2024-02-22_05h17.43.055,kallum_motion_pilot,2023.2.2,Win32,59.17159763,611d0e8e242d979c62655c57,65d6bb0e977760de756971f7,65d6bcb1fde08c320ec40482,0.0418,0.0419,1,27,189,45,1,threefour,,,,,,,,,,,,,,,,,,,,,,,,,,,,,,,,,,,,,,,,,,,,,,,,,,,,,,,,,,,,,,,,,,,,,,,,,,,,,,,,,,,,,,,,,,,,,,,,,,,,,,,,,,,,,,,,,,,,,,,,,,,,,,,,,,,,,,,,,
,,611d0e8e242d979c62655c57,2024-02-22_05h17.43.055,kallum_motion_pilot,2023.2.2,Win32,59.17159763,611d0e8e242d979c62655c57,65d6bb0e977760de756971f7,65d6bcb1fde08c320ec40482,0.042,0.042,1,28,190,60,1,threeone,,,,,,,,,,,,,,,,,,,,,,,,,,,,,,,,,,,,,,,,,,,,,,,,,,,,,,,,,,,,,,,,,,,,,,,,,,,,,,,,,,,,,,,,,,,,,,,,,,,,,,,,,,,,,,,,,,,,,,,,,,,,,,,,,,,,,,,,,
,,611d0e8e242d979c62655c57,2024-02-22_05h17.43.055,kallum_motion_pilot,2023.2.2,Win32,59.17159763,611d0e8e242d979c62655c57,65d6bb0e977760de756971f7,65d6bcb1fde08c320ec40482,0.0421,0.0421,1,29,191,14,1,fourtwo,,,,,,,,,,,,,,,,,,,,,,,,,,,,,,,,,,,,,,,,,,,,,,,,,,,,,,,,,,,,,,,,,,,,,,,,,,,,,,,,,,,,,,,,,,,,,,,,,,,,,,,,,,,,,,,,,,,,,,,,,,,,,,,,,,,,,,,,,
,,611d0e8e242d979c62655c57,2024-02-22_05h17.43.055,kallum_motion_pilot,2023.2.2,Win32,59.17159763,611d0e8e242d979c62655c57,65d6bb0e977760de756971f7,65d6bcb1fde08c320ec40482,0.0422,0.0422,1,30,192,22,1,fourtwo,,,,,,,,,,,,,,,,,,,,,,,,,,,,,,,,,,,,,,,,,,,,,,,,,,,,,,,,,,,,,,,,,,,,,,,,,,,,,,,,,,,,,,,,,,,,,,,,,,,,,,,,,,,,,,,,,,,,,,,,,,,,,,,,,,,,,,,,,
,,611d0e8e242d979c62655c57,2024-02-22_05h17.43.055,kallum_motion_pilot,2023.2.2,Win32,59.17159763,611d0e8e242d979c62655c57,65d6bb0e977760de756971f7,65d6bcb1fde08c320ec40482,0.0423,0.0423,1,31,193,128,1,fivesix,,,,,,,,,,,,,,,,,,,,,,,,,,,,,,,,,,,,,,,,,,,,,,,,,,,,,,,,,,,,,,,,,,,,,,,,,,,,,,,,,,,,,,,,,,,,,,,,,,,,,,,,,,,,,,,,,,,,,,,,,,,,,,,,,,,,,,,,,
,,611d0e8e242d979c62655c57,2024-02-22_05h17.43.055,kallum_motion_pilot,2023.2.2,Win32,59.17159763,611d0e8e242d979c62655c57,65d6bb0e977760de756971f7,65d6bcb1fde08c320ec40482,0.0424,0.0425,1,32,194,153,1,fiveseven,,,,,,,,,,,,,,,,,,,,,,,,,,,,,,,,,,,,,,,,,,,,,,,,,,,,,,,,,,,,,,,,,,,,,,,,,,,,,,,,,,,,,,,,,,,,,,,,,,,,,,,,,,,,,,,,,,,,,,,,,,,,,,,,,,,,,,,,,
,,611d0e8e242d979c62655c57,2024-02-22_05h17.43.055,kallum_motion_pilot,2023.2.2,Win32,59.17159763,611d0e8e242d979c62655c57,65d6bb0e977760de756971f7,65d6bcb1fde08c320ec40482,0.0425,0.0426,1,33,195,5,1,threefour,,,,,,,,,,,,,,,,,,,,,,,,,,,,,,,,,,,,,,,,,,,,,,,,,,,,,,,,,,,,,,,,,,,,,,,,,,,,,,,,,,,,,,,,,,,,,,,,,,,,,,,,,,,,,,,,,,,,,,,,,,,,,,,,,,,,,,,,,
,,611d0e8e242d979c62655c57,2024-02-22_05h17.43.055,kallum_motion_pilot,2023.2.2,Win32,59.17159763,611d0e8e242d979c62655c57,65d6bb0e977760de756971f7,65d6bcb1fde08c320ec40482,0.0426,0.0427,1,34,196,43,1,twofour,,,,,,,,,,,,,,,,,,,,,,,,,,,,,,,,,,,,,,,,,,,,,,,,,,,,,,,,,,,,,,,,,,,,,,,,,,,,,,,,,,,,,,,,,,,,,,,,,,,,,,,,,,,,,,,,,,,,,,,,,,,,,,,,,,,,,,,,,
,,611d0e8e242d979c62655c57,2024-02-22_05h17.43.055,kallum_motion_pilot,2023.2.2,Win32,59.17159763,611d0e8e242d979c62655c57,65d6bb0e977760de756971f7,65d6bcb1fde08c320ec40482,0.0427,0.0428,1,35,197,16,1,onetwo,,,,,,,,,,,,,,,,,,,,,,,,,,,,,,,,,,,,,,,,,,,,,,,,,,,,,,,,,,,,,,,,,,,,,,,,,,,,,,,,,,,,,,,,,,,,,,,,,,,,,,,,,,,,,,,,,,,,,,,,,,,,,,,,,,,,,,,,,
,,611d0e8e242d979c62655c57,2024-02-22_05h17.43.055,kallum_motion_pilot,2023.2.2,Win32,59.17159763,611d0e8e242d979c62655c57,65d6bb0e977760de756971f7,65d6bcb1fde08c320ec40482,0.0428,0.0429,1,36,198,143,1,eightseven,,,,,,,,,,,,,,,,,,,,,,,,,,,,,,,,,,,,,,,,,,,,,,,,,,,,,,,,,,,,,,,,,,,,,,,,,,,,,,,,,,,,,,,,,,,,,,,,,,,,,,,,,,,,,,,,,,,,,,,,,,,,,,,,,,,,,,,,,
,,611d0e8e242d979c62655c57,2024-02-22_05h17.43.055,kallum_motion_pilot,2023.2.2,Win32,59.17159763,611d0e8e242d979c62655c57,65d6bb0e977760de756971f7,65d6bcb1fde08c320ec40482,0.043,0.0431,1,37,199,50,1,twoone,,,,,,,,,,,,,,,,,,,,,,,,,,,,,,,,,,,,,,,,,,,,,,,,,,,,,,,,,,,,,,,,,,,,,,,,,,,,,,,,,,,,,,,,,,,,,,,,,,,,,,,,,,,,,,,,,,,,,,,,,,,,,,,,,,,,,,,,,
,,611d0e8e242d979c62655c57,2024-02-22_05h17.43.055,kallum_motion_pilot,2023.2.2,Win32,59.17159763,611d0e8e242d979c62655c57,65d6bb0e977760de756971f7,65d6bcb1fde08c320ec40482,0.0432,0.0432,1,38,200,97,1,fiveseven,,,,,,,,,,,,,,,,,,,,,,,,,,,,,,,,,,,,,,,,,,,,,,,,,,,,,,,,,,,,,,,,,,,,,,,,,,,,,,,,,,,,,,,,,,,,,,,,,,,,,,,,,,,,,,,,,,,,,,,,,,,,,,,,,,,,,,,,,
,,611d0e8e242d979c62655c57,2024-02-22_05h17.43.055,kallum_motion_pilot,2023.2.2,Win32,59.17159763,611d0e8e242d979c62655c57,65d6bb0e977760de756971f7,65d6bcb1fde08c320ec40482,0.0432,0.0433,1,39,201,15,1,fourthree,,,,,,,,,,,,,,,,,,,,,,,,,,,,,,,,,,,,,,,,,,,,,,,,,,,,,,,,,,,,,,,,,,,,,,,,,,,,,,,,,,,,,,,,,,,,,,,,,,,,,,,,,,,,,,,,,,,,,,,,,,,,,,,,,,,,,,,,,
,,611d0e8e242d979c62655c57,2024-02-22_05h17.43.055,kallum_motion_pilot,2023.2.2,Win32,59.17159763,611d0e8e242d979c62655c57,65d6bb0e977760de756971f7,65d6bcb1fde08c320ec40482,0.0433,0.0434,1,40,202,82,1,sixfive,,,,,,,,,,,,,,,,,,,,,,,,,,,,,,,,,,,,,,,,,,,,,,,,,,,,,,,,,,,,,,,,,,,,,,,,,,,,,,,,,,,,,,,,,,,,,,,,,,,,,,,,,,,,,,,,,,,,,,,,,,,,,,,,,,,,,,,,,
,,611d0e8e242d979c62655c57,2024-02-22_05h17.43.055,kallum_motion_pilot,2023.2.2,Win32,59.17159763,611d0e8e242d979c62655c57,65d6bb0e977760de756971f7,65d6bcb1fde08c320ec40482,0.0435,0.0435,1,41,203,124,1,sevenfive,,,,,,,,,,,,,,,,,,,,,,,,,,,,,,,,,,,,,,,,,,,,,,,,,,,,,,,,,,,,,,,,,,,,,,,,,,,,,,,,,,,,,,,,,,,,,,,,,,,,,,,,,,,,,,,,,,,,,,,,,,,,,,,,,,,,,,,,,
,,611d0e8e242d979c62655c57,2024-02-22_05h17.43.055,kallum_motion_pilot,2023.2.2,Win32,59.17159763,611d0e8e242d979c62655c57,65d6bb0e977760de756971f7,65d6bcb1fde08c320ec40482,0.0435,0.0436,1,42,204,27,1,twofour,,,,,,,,,,,,,,,,,,,,,,,,,,,,,,,,,,,,,,,,,,,,,,,,,,,,,,,,,,,,,,,,,,,,,,,,,,,,,,,,,,,,,,,,,,,,,,,,,,,,,,,,,,,,,,,,,,,,,,,,,,,,,,,,,,,,,,,,,
,,611d0e8e242d979c62655c57,2024-02-22_05h17.43.055,kallum_motion_pilot,2023.2.2,Win32,59.17159763,611d0e8e242d979c62655c57,65d6bb0e977760de756971f7,65d6bcb1fde08c320ec40482,0.0436,0.0437,1,43,205,87,1,eightseven,,,,,,,,,,,,,,,,,,,,,,,,,,,,,,,,,,,,,,,,,,,,,,,,,,,,,,,,,,,,,,,,,,,,,,,,,,,,,,,,,,,,,,,,,,,,,,,,,,,,,,,,,,,,,,,,,,,,,,,,,,,,,,,,,,,,,,,,,
,,611d0e8e242d979c62655c57,2024-02-22_05h17.43.055,kallum_motion_pilot,2023.2.2,Win32,59.17159763,611d0e8e242d979c62655c57,65d6bb0e977760de756971f7,65d6bcb1fde08c320ec40482,0.0437,0.0438,1,44,206,70,1,fourtwo,,,,,,,,,,,,,,,,,,,,,,,,,,,,,,,,,,,,,,,,,,,,,,,,,,,,,,,,,,,,,,,,,,,,,,,,,,,,,,,,,,,,,,,,,,,,,,,,,,,,,,,,,,,,,,,,,,,,,,,,,,,,,,,,,,,,,,,,,
,,611d0e8e242d979c62655c57,2024-02-22_05h17.43.055,kallum_motion_pilot,2023.2.2,Win32,59.17159763,611d0e8e242d979c62655c57,65d6bb0e977760de756971f7,65d6bcb1fde08c320ec40482,0.0438,0.0439,1,45,207,33,1,onethree,,,,,,,,,,,,,,,,,,,,,,,,,,,,,,,,,,,,,,,,,,,,,,,,,,,,,,,,,,,,,,,,,,,,,,,,,,,,,,,,,,,,,,,,,,,,,,,,,,,,,,,,,,,,,,,,,,,,,,,,,,,,,,,,,,,,,,,,,
,,611d0e8e242d979c62655c57,2024-02-22_05h17.43.055,kallum_motion_pilot,2023.2.2,Win32,59.17159763,611d0e8e242d979c62655c57,65d6bb0e977760de756971f7,65d6bcb1fde08c320ec40482,0.044,0.044,1,46,208,34,1,twoone,,,,,,,,,,,,,,,,,,,,,,,,,,,,,,,,,,,,,,,,,,,,,,,,,,,,,,,,,,,,,,,,,,,,,,,,,,,,,,,,,,,,,,,,,,,,,,,,,,,,,,,,,,,,,,,,,,,,,,,,,,,,,,,,,,,,,,,,,
,,611d0e8e242d979c62655c57,2024-02-22_05h17.43.055,kallum_motion_pilot,2023.2.2,Win32,59.17159763,611d0e8e242d979c62655c57,65d6bb0e977760de756971f7,65d6bcb1fde08c320ec40482,0.044,0.0441,1,47,209,152,1,fivesix,,,,,,,,,,,,,,,,,,,,,,,,,,,,,,,,,,,,,,,,,,,,,,,,,,,,,,,,,,,,,,,,,,,,,,,,,,,,,,,,,,,,,,,,,,,,,,,,,,,,,,,,,,,,,,,,,,,,,,,,,,,,,,,,,,,,,,,,,
,,611d0e8e242d979c62655c57,2024-02-22_05h17.43.055,kallum_motion_pilot,2023.2.2,Win32,59.17159763,611d0e8e242d979c62655c57,65d6bb0e977760de756971f7,65d6bcb1fde08c320ec40482,0.0441,0.0442,1,48,210,77,1,threefour,,,,,,,,,,,,,,,,,,,,,,,,,,,,,,,,,,,,,,,,,,,,,,,,,,,,,,,,,,,,,,,,,,,,,,,,,,,,,,,,,,,,,,,,,,,,,,,,,,,,,,,,,,,,,,,,,,,,,,,,,,,,,,,,,,,,,,,,,
,,611d0e8e242d979c62655c57,2024-02-22_05h17.43.055,kallum_motion_pilot,2023.2.2,Win32,59.17159763,611d0e8e242d979c62655c57,65d6bb0e977760de756971f7,65d6bcb1fde08c320ec40482,0.0443,0.0443,1,49,211,28,1,threeone,,,,,,,,,,,,,,,,,,,,,,,,,,,,,,,,,,,,,,,,,,,,,,,,,,,,,,,,,,,,,,,,,,,,,,,,,,,,,,,,,,,,,,,,,,,,,,,,,,,,,,,,,,,,,,,,,,,,,,,,,,,,,,,,,,,,,,,,,
,,611d0e8e242d979c62655c57,2024-02-22_05h17.43.055,kallum_motion_pilot,2023.2.2,Win32,59.17159763,611d0e8e242d979c62655c57,65d6bb0e977760de756971f7,65d6bcb1fde08c320ec40482,0.0444,0.0444,1,50,212,80,1,fivesix,,,,,,,,,,,,,,,,,,,,,,,,,,,,,,,,,,,,,,,,,,,,,,,,,,,,,,,,,,,,,,,,,,,,,,,,,,,,,,,,,,,,,,,,,,,,,,,,,,,,,,,,,,,,,,,,,,,,,,,,,,,,,,,,,,,,,,,,,
,,611d0e8e242d979c62655c57,2024-02-22_05h17.43.055,kallum_motion_pilot,2023.2.2,Win32,59.17159763,611d0e8e242d979c62655c57,65d6bb0e977760de756971f7,65d6bcb1fde08c320ec40482,0.0445,0.0445,1,51,213,78,1,fourtwo,,,,,,,,,,,,,,,,,,,,,,,,,,,,,,,,,,,,,,,,,,,,,,,,,,,,,,,,,,,,,,,,,,,,,,,,,,,,,,,,,,,,,,,,,,,,,,,,,,,,,,,,,,,,,,,,,,,,,,,,,,,,,,,,,,,,,,,,,
,,611d0e8e242d979c62655c57,2024-02-22_05h17.43.055,kallum_motion_pilot,2023.2.2,Win32,59.17159763,611d0e8e242d979c62655c57,65d6bb0e977760de756971f7,65d6bcb1fde08c320ec40482,0.0447,0.045,1,52,214,103,1,eightseven,,,,,,,,,,,,,,,,,,,,,,,,,,,,,,,,,,,,,,,,,,,,,,,,,,,,,,,,,,,,,,,,,,,,,,,,,,,,,,,,,,,,,,,,,,,,,,,,,,,,,,,,,,,,,,,,,,,,,,,,,,,,,,,,,,,,,,,,,
,,611d0e8e242d979c62655c57,2024-02-22_05h17.43.055,kallum_motion_pilot,2023.2.2,Win32,59.17159763,611d0e8e242d979c62655c57,65d6bb0e977760de756971f7,65d6bcb1fde08c320ec40482,0.0452,0.0453,1,53,215,116,1,sevenfive,,,,,,,,,,,,,,,,,,,,,,,,,,,,,,,,,,,,,,,,,,,,,,,,,,,,,,,,,,,,,,,,,,,,,,,,,,,,,,,,,,,,,,,,,,,,,,,,,,,,,,,,,,,,,,,,,,,,,,,,,,,,,,,,,,,,,,,,,
,,611d0e8e242d979c62655c57,2024-02-22_05h17.43.055,kallum_motion_pilot,2023.2.2,Win32,59.17159763,611d0e8e242d979c62655c57,65d6bb0e977760de756971f7,65d6bcb1fde08c320ec40482,0.0453,0.0454,1,54,216,51,1,twofour,,,,,,,,,,,,,,,,,,,,,,,,,,,,,,,,,,,,,,,,,,,,,,,,,,,,,,,,,,,,,,,,,,,,,,,,,,,,,,,,,,,,,,,,,,,,,,,,,,,,,,,,,,,,,,,,,,,,,,,,,,,,,,,,,,,,,,,,,
,,611d0e8e242d979c62655c57,2024-02-22_05h17.43.055,kallum_motion_pilot,2023.2.2,Win32,59.17159763,611d0e8e242d979c62655c57,65d6bb0e977760de756971f7,65d6bcb1fde08c320ec40482,0.0456,0.0456,1,55,217,90,1,sixfive,,,,,,,,,,,,,,,,,,,,,,,,,,,,,,,,,,,,,,,,,,,,,,,,,,,,,,,,,,,,,,,,,,,,,,,,,,,,,,,,,,,,,,,,,,,,,,,,,,,,,,,,,,,,,,,,,,,,,,,,,,,,,,,,,,,,,,,,,
,,611d0e8e242d979c62655c57,2024-02-22_05h17.43.055,kallum_motion_pilot,2023.2.2,Win32,59.17159763,611d0e8e242d979c62655c57,65d6bb0e977760de756971f7,65d6bcb1fde08c320ec40482,0.0457,0.0458,1,56,218,117,1,seveneight,,,,,,,,,,,,,,,,,,,,,,,,,,,,,,,,,,,,,,,,,,,,,,,,,,,,,,,,,,,,,,,,,,,,,,,,,,,,,,,,,,,,,,,,,,,,,,,,,,,,,,,,,,,,,,,,,,,,,,,,,,,,,,,,,,,,,,,,,
,,611d0e8e242d979c62655c57,2024-02-22_05h17.43.055,kallum_motion_pilot,2023.2.2,Win32,59.17159763,611d0e8e242d979c62655c57,65d6bb0e977760de756971f7,65d6bcb1fde08c320ec40482,0.0459,0.0459,1,57,219,54,1,fourtwo,,,,,,,,,,,,,,,,,,,,,,,,,,,,,,,,,,,,,,,,,,,,,,,,,,,,,,,,,,,,,,,,,,,,,,,,,,,,,,,,,,,,,,,,,,,,,,,,,,,,,,,,,,,,,,,,,,,,,,,,,,,,,,,,,,,,,,,,,
,,611d0e8e242d979c62655c57,2024-02-22_05h17.43.055,kallum_motion_pilot,2023.2.2,Win32,59.17159763,611d0e8e242d979c62655c57,65d6bb0e977760de756971f7,65d6bcb1fde08c320ec40482,0.046,0.0461,1,58,220,115,1,sixeight,,,,,,,,,,,,,,,,,,,,,,,,,,,,,,,,,,,,,,,,,,,,,,,,,,,,,,,,,,,,,,,,,,,,,,,,,,,,,,,,,,,,,,,,,,,,,,,,,,,,,,,,,,,,,,,,,,,,,,,,,,,,,,,,,,,,,,,,,
,,611d0e8e242d979c62655c57,2024-02-22_05h17.43.055,kallum_motion_pilot,2023.2.2,Win32,59.17159763,611d0e8e242d979c62655c57,65d6bb0e977760de756971f7,65d6bcb1fde08c320ec40482,0.0461,0.0462,1,59,221,85,1,seveneight,,,,,,,,,,,,,,,,,,,,,,,,,,,,,,,,,,,,,,,,,,,,,,,,,,,,,,,,,,,,,,,,,,,,,,,,,,,,,,,,,,,,,,,,,,,,,,,,,,,,,,,,,,,,,,,,,,,,,,,,,,,,,,,,,,,,,,,,,
,,611d0e8e242d979c62655c57,2024-02-22_05h17.43.055,kallum_motion_pilot,2023.2.2,Win32,59.17159763,611d0e8e242d979c62655c57,65d6bb0e977760de756971f7,65d6bcb1fde08c320ec40482,0.0464,0.0464,1,60,222,148,1,sevenfive,,,,,,,,,,,,,,,,,,,,,,,,,,,,,,,,,,,,,,,,,,,,,,,,,,,,,,,,,,,,,,,,,,,,,,,,,,,,,,,,,,,,,,,,,,,,,,,,,,,,,,,,,,,,,,,,,,,,,,,,,,,,,,,,,,,,,,,,,
,,611d0e8e242d979c62655c57,2024-02-22_05h17.43.055,kallum_motion_pilot,2023.2.2,Win32,59.17159763,611d0e8e242d979c62655c57,65d6bb0e977760de756971f7,65d6bcb1fde08c320ec40482,0.0465,0.0466,1,61,223,8,1,onetwo,,,,,,,,,,,,,,,,,,,,,,,,,,,,,,,,,,,,,,,,,,,,,,,,,,,,,,,,,,,,,,,,,,,,,,,,,,,,,,,,,,,,,,,,,,,,,,,,,,,,,,,,,,,,,,,,,,,,,,,,,,,,,,,,,,,,,,,,,
,,611d0e8e242d979c62655c57,2024-02-22_05h17.43.055,kallum_motion_pilot,2023.2.2,Win32,59.17159763,611d0e8e242d979c62655c57,65d6bb0e977760de756971f7,65d6bcb1fde08c320ec40482,0.0467,0.0467,1,62,224,13,1,threefour,,,,,,,,,,,,,,,,,,,,,,,,,,,,,,,,,,,,,,,,,,,,,,,,,,,,,,,,,,,,,,,,,,,,,,,,,,,,,,,,,,,,,,,,,,,,,,,,,,,,,,,,,,,,,,,,,,,,,,,,,,,,,,,,,,,,,,,,,
,,611d0e8e242d979c62655c57,2024-02-22_05h17.43.055,kallum_motion_pilot,2023.2.2,Win32,59.17159763,611d0e8e242d979c62655c57,65d6bb0e977760de756971f7,65d6bcb1fde08c320ec40482,0.0467,0.0468,1,63,225,141,1,seveneight,,,,,,,,,,,,,,,,,,,,,,,,,,,,,,,,,,,,,,,,,,,,,,,,,,,,,,,,,,,,,,,,,,,,,,,,,,,,,,,,,,,,,,,,,,,,,,,,,,,,,,,,,,,,,,,,,,,,,,,,,,,,,,,,,,,,,,,,,
,,611d0e8e242d979c62655c57,2024-02-22_05h17.43.055,kallum_motion_pilot,2023.2.2,Win32,59.17159763,611d0e8e242d979c62655c57,65d6bb0e977760de756971f7,65d6bcb1fde08c320ec40482,0.0469,0.047,1,64,226,42,1,twoone,,,,,,,,,,,,,,,,,,,,,,,,,,,,,,,,,,,,,,,,,,,,,,,,,,,,,,,,,,,,,,,,,,,,,,,,,,,,,,,,,,,,,,,,,,,,,,,,,,,,,,,,,,,,,,,,,,,,,,,,,,,,,,,,,,,,,,,,,
,,611d0e8e242d979c62655c57,2024-02-22_05h17.43.055,kallum_motion_pilot,2023.2.2,Win32,59.17159763,611d0e8e242d979c62655c57,65d6bb0e977760de756971f7,65d6bcb1fde08c320ec40482,0.047,0.0471,1,65,227,76,1,threeone,,,,,,,,,,,,,,,,,,,,,,,,,,,,,,,,,,,,,,,,,,,,,,,,,,,,,,,,,,,,,,,,,,,,,,,,,,,,,,,,,,,,,,,,,,,,,,,,,,,,,,,,,,,,,,,,,,,,,,,,,,,,,,,,,,,,,,,,,
,,611d0e8e242d979c62655c57,2024-02-22_05h17.43.055,kallum_motion_pilot,2023.2.2,Win32,59.17159763,611d0e8e242d979c62655c57,65d6bb0e977760de756971f7,65d6bcb1fde08c320ec40482,0.0471,0.0471,1,66,228,136,1,fivesix,,,,,,,,,,,,,,,,,,,,,,,,,,,,,,,,,,,,,,,,,,,,,,,,,,,,,,,,,,,,,,,,,,,,,,,,,,,,,,,,,,,,,,,,,,,,,,,,,,,,,,,,,,,,,,,,,,,,,,,,,,,,,,,,,,,,,,,,,
,,611d0e8e242d979c62655c57,2024-02-22_05h17.43.055,kallum_motion_pilot,2023.2.2,Win32,59.17159763,611d0e8e242d979c62655c57,65d6bb0e977760de756971f7,65d6bcb1fde08c320ec40482,0.0472,0.0473,1,67,229,144,1,fivesix,,,,,,,,,,,,,,,,,,,,,,,,,,,,,,,,,,,,,,,,,,,,,,,,,,,,,,,,,,,,,,,,,,,,,,,,,,,,,,,,,,,,,,,,,,,,,,,,,,,,,,,,,,,,,,,,,,,,,,,,,,,,,,,,,,,,,,,,,
,,611d0e8e242d979c62655c57,2024-02-22_05h17.43.055,kallum_motion_pilot,2023.2.2,Win32,59.17159763,611d0e8e242d979c62655c57,65d6bb0e977760de756971f7,65d6bcb1fde08c320ec40482,0.0473,0.0474,1,68,230,145,1,fiveseven,,,,,,,,,,,,,,,,,,,,,,,,,,,,,,,,,,,,,,,,,,,,,,,,,,,,,,,,,,,,,,,,,,,,,,,,,,,,,,,,,,,,,,,,,,,,,,,,,,,,,,,,,,,,,,,,,,,,,,,,,,,,,,,,,,,,,,,,,
,,611d0e8e242d979c62655c57,2024-02-22_05h17.43.055,kallum_motion_pilot,2023.2.2,Win32,59.17159763,611d0e8e242d979c62655c57,65d6bb0e977760de756971f7,65d6bcb1fde08c320ec40482,0.0474,0.0475,1,69,231,57,1,onethree,,,,,,,,,,,,,,,,,,,,,,,,,,,,,,,,,,,,,,,,,,,,,,,,,,,,,,,,,,,,,,,,,,,,,,,,,,,,,,,,,,,,,,,,,,,,,,,,,,,,,,,,,,,,,,,,,,,,,,,,,,,,,,,,,,,,,,,,,
,,611d0e8e242d979c62655c57,2024-02-22_05h17.43.055,kallum_motion_pilot,2023.2.2,Win32,59.17159763,611d0e8e242d979c62655c57,65d6bb0e977760de756971f7,65d6bcb1fde08c320ec40482,0.0475,0.0476,1,70,232,35,1,twofour,,,,,,,,,,,,,,,,,,,,,,,,,,,,,,,,,,,,,,,,,,,,,,,,,,,,,,,,,,,,,,,,,,,,,,,,,,,,,,,,,,,,,,,,,,,,,,,,,,,,,,,,,,,,,,,,,,,,,,,,,,,,,,,,,,,,,,,,,
,,611d0e8e242d979c62655c57,2024-02-22_05h17.43.055,kallum_motion_pilot,2023.2.2,Win32,59.17159763,611d0e8e242d979c62655c57,65d6bb0e977760de756971f7,65d6bcb1fde08c320ec40482,0.0477,0.0477,1,71,233,122,1,sixfive,,,,,,,,,,,,,,,,,,,,,,,,,,,,,,,,,,,,,,,,,,,,,,,,,,,,,,,,,,,,,,,,,,,,,,,,,,,,,,,,,,,,,,,,,,,,,,,,,,,,,,,,,,,,,,,,,,,,,,,,,,,,,,,,,,,,,,,,,
,,611d0e8e242d979c62655c57,2024-02-22_05h17.43.055,kallum_motion_pilot,2023.2.2,Win32,59.17159763,611d0e8e242d979c62655c57,65d6bb0e977760de756971f7,65d6bcb1fde08c320ec40482,0.0477,0.0478,1,72,234,147,1,sixeight,,,,,,,,,,,,,,,,,,,,,,,,,,,,,,,,,,,,,,,,,,,,,,,,,,,,,,,,,,,,,,,,,,,,,,,,,,,,,,,,,,,,,,,,,,,,,,,,,,,,,,,,,,,,,,,,,,,,,,,,,,,,,,,,,,,,,,,,,
,,611d0e8e242d979c62655c57,2024-02-22_05h17.43.055,kallum_motion_pilot,2023.2.2,Win32,59.17159763,611d0e8e242d979c62655c57,65d6bb0e977760de756971f7,65d6bcb1fde08c320ec40482,0.0478,0.0479,1,73,235,53,1,threefour,,,,,,,,,,,,,,,,,,,,,,,,,,,,,,,,,,,,,,,,,,,,,,,,,,,,,,,,,,,,,,,,,,,,,,,,,,,,,,,,,,,,,,,,,,,,,,,,,,,,,,,,,,,,,,,,,,,,,,,,,,,,,,,,,,,,,,,,,
,,611d0e8e242d979c62655c57,2024-02-22_05h17.43.055,kallum_motion_pilot,2023.2.2,Win32,59.17159763,611d0e8e242d979c62655c57,65d6bb0e977760de756971f7,65d6bcb1fde08c320ec40482,0.048,0.048,1,74,236,109,1,seveneight,,,,,,,,,,,,,,,,,,,,,,,,,,,,,,,,,,,,,,,,,,,,,,,,,,,,,,,,,,,,,,,,,,,,,,,,,,,,,,,,,,,,,,,,,,,,,,,,,,,,,,,,,,,,,,,,,,,,,,,,,,,,,,,,,,,,,,,,,
,,611d0e8e242d979c62655c57,2024-02-22_05h17.43.055,kallum_motion_pilot,2023.2.2,Win32,59.17159763,611d0e8e242d979c62655c57,65d6bb0e977760de756971f7,65d6bcb1fde08c320ec40482,0.0481,0.0481,1,75,237,67,1,twofour,,,,,,,,,,,,,,,,,,,,,,,,,,,,,,,,,,,,,,,,,,,,,,,,,,,,,,,,,,,,,,,,,,,,,,,,,,,,,,,,,,,,,,,,,,,,,,,,,,,,,,,,,,,,,,,,,,,,,,,,,,,,,,,,,,,,,,,,,
,,611d0e8e242d979c62655c57,2024-02-22_05h17.43.055,kallum_motion_pilot,2023.2.2,Win32,59.17159763,611d0e8e242d979c62655c57,65d6bb0e977760de756971f7,65d6bcb1fde08c320ec40482,0.0482,0.0483,1,76,238,73,1,onethree,,,,,,,,,,,,,,,,,,,,,,,,,,,,,,,,,,,,,,,,,,,,,,,,,,,,,,,,,,,,,,,,,,,,,,,,,,,,,,,,,,,,,,,,,,,,,,,,,,,,,,,,,,,,,,,,,,,,,,,,,,,,,,,,,,,,,,,,,
,,611d0e8e242d979c62655c57,2024-02-22_05h17.43.055,kallum_motion_pilot,2023.2.2,Win32,59.17159763,611d0e8e242d979c62655c57,65d6bb0e977760de756971f7,65d6bcb1fde08c320ec40482,0.0483,0.0484,1,77,239,58,1,twoone,,,,,,,,,,,,,,,,,,,,,,,,,,,,,,,,,,,,,,,,,,,,,,,,,,,,,,,,,,,,,,,,,,,,,,,,,,,,,,,,,,,,,,,,,,,,,,,,,,,,,,,,,,,,,,,,,,,,,,,,,,,,,,,,,,,,,,,,,
,,611d0e8e242d979c62655c57,2024-02-22_05h17.43.055,kallum_motion_pilot,2023.2.2,Win32,59.17159763,611d0e8e242d979c62655c57,65d6bb0e977760de756971f7,65d6bcb1fde08c320ec40482,0.0484,0.0485,1,78,240,75,1,twofour,,,,,,,,,,,,,,,,,,,,,,,,,,,,,,,,,,,,,,,,,,,,,,,,,,,,,,,,,,,,,,,,,,,,,,,,,,,,,,,,,,,,,,,,,,,,,,,,,,,,,,,,,,,,,,,,,,,,,,,,,,,,,,,,,,,,,,,,,
,,611d0e8e242d979c62655c57,2024-02-22_05h17.43.055,kallum_motion_pilot,2023.2.2,Win32,59.17159763,611d0e8e242d979c62655c57,65d6bb0e977760de756971f7,65d6bcb1fde08c320ec40482,0.0485,0.0485,1,79,241,92,1,sevenfive,,,,,,,,,,,,,,,,,,,,,,,,,,,,,,,,,,,,,,,,,,,,,,,,,,,,,,,,,,,,,,,,,,,,,,,,,,,,,,,,,,,,,,,,,,,,,,,,,,,,,,,,,,,,,,,,,,,,,,,,,,,,,,,,,,,,,,,,,
,,611d0e8e242d979c62655c57,2024-02-22_05h17.43.055,kallum_motion_pilot,2023.2.2,Win32,59.17159763,611d0e8e242d979c62655c57,65d6bb0e977760de756971f7,65d6bcb1fde08c320ec40482,0.0486,0.0486,1,80,242,100,1,sevenfive,,,,,,,,,,,,,,,,,,,,,,,,,,,,,,,,,,,,,,,,,,,,,,,,,,,,,,,,,,,,,,,,,,,,,,,,,,,,,,,,,,,,,,,,,,,,,,,,,,,,,,,,,,,,,,,,,,,,,,,,,,,,,,,,,,,,,,,,,
,,611d0e8e242d979c62655c57,2024-02-22_05h17.43.055,kallum_motion_pilot,2023.2.2,Win32,59.17159763,611d0e8e242d979c62655c57,65d6bb0e977760de756971f7,65d6bcb1fde08c320ec40482,0.0487,0.0488,1,81,243,21,1,threefour,,,,,,,,,,,,,,,,,,,,,,,,,,,,,,,,,,,,,,,,,,,,,,,,,,,,,,,,,,,,,,,,,,,,,,,,,,,,,,,,,,,,,,,,,,,,,,,,,,,,,,,,,,,,,,,,,,,,,,,,,,,,,,,,,,,,,,,,,
,,611d0e8e242d979c62655c57,2024-02-22_05h17.43.055,kallum_motion_pilot,2023.2.2,Win32,59.17159763,611d0e8e242d979c62655c57,65d6bb0e977760de756971f7,65d6bcb1fde08c320ec40482,0.0489,0.0489,1,82,244,41,1,onethree,,,,,,,,,,,,,,,,,,,,,,,,,,,,,,,,,,,,,,,,,,,,,,,,,,,,,,,,,,,,,,,,,,,,,,,,,,,,,,,,,,,,,,,,,,,,,,,,,,,,,,,,,,,,,,,,,,,,,,,,,,,,,,,,,,,,,,,,,
,,611d0e8e242d979c62655c57,2024-02-22_05h17.43.055,kallum_motion_pilot,2023.2.2,Win32,59.17159763,611d0e8e242d979c62655c57,65d6bb0e977760de756971f7,65d6bcb1fde08c320ec40482,0.049,0.049,1,83,245,32,1,onetwo,,,,,,,,,,,,,,,,,,,,,,,,,,,,,,,,,,,,,,,,,,,,,,,,,,,,,,,,,,,,,,,,,,,,,,,,,,,,,,,,,,,,,,,,,,,,,,,,,,,,,,,,,,,,,,,,,,,,,,,,,,,,,,,,,,,,,,,,,
,,611d0e8e242d979c62655c57,2024-02-22_05h17.43.055,kallum_motion_pilot,2023.2.2,Win32,59.17159763,611d0e8e242d979c62655c57,65d6bb0e977760de756971f7,65d6bcb1fde08c320ec40482,0.0491,0.0491,1,84,246,71,1,fourthree,,,,,,,,,,,,,,,,,,,,,,,,,,,,,,,,,,,,,,,,,,,,,,,,,,,,,,,,,,,,,,,,,,,,,,,,,,,,,,,,,,,,,,,,,,,,,,,,,,,,,,,,,,,,,,,,,,,,,,,,,,,,,,,,,,,,,,,,,
,,611d0e8e242d979c62655c57,2024-02-22_05h17.43.055,kallum_motion_pilot,2023.2.2,Win32,59.17159763,611d0e8e242d979c62655c57,65d6bb0e977760de756971f7,65d6bcb1fde08c320ec40482,0.0492,0.0493,1,85,247,37,1,threefour,,,,,,,,,,,,,,,,,,,,,,,,,,,,,,,,,,,,,,,,,,,,,,,,,,,,,,,,,,,,,,,,,,,,,,,,,,,,,,,,,,,,,,,,,,,,,,,,,,,,,,,,,,,,,,,,,,,,,,,,,,,,,,,,,,,,,,,,,
,,611d0e8e242d979c62655c57,2024-02-22_05h17.43.055,kallum_motion_pilot,2023.2.2,Win32,59.17159763,611d0e8e242d979c62655c57,65d6bb0e977760de756971f7,65d6bcb1fde08c320ec40482,0.0494,0.0494,1,86,248,89,1,fiveseven,,,,,,,,,,,,,,,,,,,,,,,,,,,,,,,,,,,,,,,,,,,,,,,,,,,,,,,,,,,,,,,,,,,,,,,,,,,,,,,,,,,,,,,,,,,,,,,,,,,,,,,,,,,,,,,,,,,,,,,,,,,,,,,,,,,,,,,,,
,,611d0e8e242d979c62655c57,2024-02-22_05h17.43.055,kallum_motion_pilot,2023.2.2,Win32,59.17159763,611d0e8e242d979c62655c57,65d6bb0e977760de756971f7,65d6bcb1fde08c320ec40482,0.0495,0.0496,1,87,249,74,1,twoone,,,,,,,,,,,,,,,,,,,,,,,,,,,,,,,,,,,,,,,,,,,,,,,,,,,,,,,,,,,,,,,,,,,,,,,,,,,,,,,,,,,,,,,,,,,,,,,,,,,,,,,,,,,,,,,,,,,,,,,,,,,,,,,,,,,,,,,,,
,,611d0e8e242d979c62655c57,2024-02-22_05h17.43.055,kallum_motion_pilot,2023.2.2,Win32,59.17159763,611d0e8e242d979c62655c57,65d6bb0e977760de756971f7,65d6bcb1fde08c320ec40482,0.0496,0.0497,1,88,250,36,1,threeone,,,,,,,,,,,,,,,,,,,,,,,,,,,,,,,,,,,,,,,,,,,,,,,,,,,,,,,,,,,,,,,,,,,,,,,,,,,,,,,,,,,,,,,,,,,,,,,,,,,,,,,,,,,,,,,,,,,,,,,,,,,,,,,,,,,,,,,,,
,,611d0e8e242d979c62655c57,2024-02-22_05h17.43.055,kallum_motion_pilot,2023.2.2,Win32,59.17159763,611d0e8e242d979c62655c57,65d6bb0e977760de756971f7,65d6bcb1fde08c320ec40482,0.0497,0.0498,1,89,251,150,1,eightsix,,,,,,,,,,,,,,,,,,,,,,,,,,,,,,,,,,,,,,,,,,,,,,,,,,,,,,,,,,,,,,,,,,,,,,,,,,,,,,,,,,,,,,,,,,,,,,,,,,,,,,,,,,,,,,,,,,,,,,,,,,,,,,,,,,,,,,,,,
,,611d0e8e242d979c62655c57,2024-02-22_05h17.43.055,kallum_motion_pilot,2023.2.2,Win32,59.17159763,611d0e8e242d979c62655c57,65d6bb0e977760de756971f7,65d6bcb1fde08c320ec40482,0.0499,0.05,1,90,252,0,1,onetwo,,,,,,,,,,,,,,,,,,,,,,,,,,,,,,,,,,,,,,,,,,,,,,,,,,,,,,,,,,,,,,,,,,,,,,,,,,,,,,,,,,,,,,,,,,,,,,,,,,,,,,,,,,,,,,,,,,,,,,,,,,,,,,,,,,,,,,,,,
,,611d0e8e242d979c62655c57,2024-02-22_05h17.43.055,kallum_motion_pilot,2023.2.2,Win32,59.17159763,611d0e8e242d979c62655c57,65d6bb0e977760de756971f7,65d6bcb1fde08c320ec40482,0.05,0.05,1,91,253,69,1,threefour,,,,,,,,,,,,,,,,,,,,,,,,,,,,,,,,,,,,,,,,,,,,,,,,,,,,,,,,,,,,,,,,,,,,,,,,,,,,,,,,,,,,,,,,,,,,,,,,,,,,,,,,,,,,,,,,,,,,,,,,,,,,,,,,,,,,,,,,,
,,611d0e8e242d979c62655c57,2024-02-22_05h17.43.055,kallum_motion_pilot,2023.2.2,Win32,59.17159763,611d0e8e242d979c62655c57,65d6bb0e977760de756971f7,65d6bcb1fde08c320ec40482,0.0501,0.0501,1,92,254,4,1,threeone,,,,,,,,,,,,,,,,,,,,,,,,,,,,,,,,,,,,,,,,,,,,,,,,,,,,,,,,,,,,,,,,,,,,,,,,,,,,,,,,,,,,,,,,,,,,,,,,,,,,,,,,,,,,,,,,,,,,,,,,,,,,,,,,,,,,,,,,,
,,611d0e8e242d979c62655c57,2024-02-22_05h17.43.055,kallum_motion_pilot,2023.2.2,Win32,59.17159763,611d0e8e242d979c62655c57,65d6bb0e977760de756971f7,65d6bcb1fde08c320ec40482,0.0503,0.0503,1,93,255,7,1,fourthree,,,,,,,,,,,,,,,,,,,,,,,,,,,,,,,,,,,,,,,,,,,,,,,,,,,,,,,,,,,,,,,,,,,,,,,,,,,,,,,,,,,,,,,,,,,,,,,,,,,,,,,,,,,,,,,,,,,,,,,,,,,,,,,,,,,,,,,,,
,,611d0e8e242d979c62655c57,2024-02-22_05h17.43.055,kallum_motion_pilot,2023.2.2,Win32,59.17159763,611d0e8e242d979c62655c57,65d6bb0e977760de756971f7,65d6bcb1fde08c320ec40482,0.0505,0.0505,1,94,256,119,1,eightseven,,,,,,,,,,,,,,,,,,,,,,,,,,,,,,,,,,,,,,,,,,,,,,,,,,,,,,,,,,,,,,,,,,,,,,,,,,,,,,,,,,,,,,,,,,,,,,,,,,,,,,,,,,,,,,,,,,,,,,,,,,,,,,,,,,,,,,,,,
,,611d0e8e242d979c62655c57,2024-02-22_05h17.43.055,kallum_motion_pilot,2023.2.2,Win32,59.17159763,611d0e8e242d979c62655c57,65d6bb0e977760de756971f7,65d6bcb1fde08c320ec40482,0.0505,0.0506,1,95,257,30,1,fourtwo,,,,,,,,,,,,,,,,,,,,,,,,,,,,,,,,,,,,,,,,,,,,,,,,,,,,,,,,,,,,,,,,,,,,,,,,,,,,,,,,,,,,,,,,,,,,,,,,,,,,,,,,,,,,,,,,,,,,,,,,,,,,,,,,,,,,,,,,,
,,611d0e8e242d979c62655c57,2024-02-22_05h17.43.055,kallum_motion_pilot,2023.2.2,Win32,59.17159763,611d0e8e242d979c62655c57,65d6bb0e977760de756971f7,65d6bcb1fde08c320ec40482,0.0506,0.0507,1,96,258,6,1,fourtwo,,,,,,,,,,,,,,,,,,,,,,,,,,,,,,,,,,,,,,,,,,,,,,,,,,,,,,,,,,,,,,,,,,,,,,,,,,,,,,,,,,,,,,,,,,,,,,,,,,,,,,,,,,,,,,,,,,,,,,,,,,,,,,,,,,,,,,,,,
,,611d0e8e242d979c62655c57,2024-02-22_05h17.43.055,kallum_motion_pilot,2023.2.2,Win32,59.17159763,611d0e8e242d979c62655c57,65d6bb0e977760de756971f7,65d6bcb1fde08c320ec40482,0.0507,0.0508,1,97,259,38,1,fourtwo,,,,,,,,,,,,,,,,,,,,,,,,,,,,,,,,,,,,,,,,,,,,,,,,,,,,,,,,,,,,,,,,,,,,,,,,,,,,,,,,,,,,,,,,,,,,,,,,,,,,,,,,,,,,,,,,,,,,,,,,,,,,,,,,,,,,,,,,,
,,611d0e8e242d979c62655c57,2024-02-22_05h17.43.055,kallum_motion_pilot,2023.2.2,Win32,59.17159763,611d0e8e242d979c62655c57,65d6bb0e977760de756971f7,65d6bcb1fde08c320ec40482,0.0508,0.0509,1,98,260,24,1,onetwo,,,,,,,,,,,,,,,,,,,,,,,,,,,,,,,,,,,,,,,,,,,,,,,,,,,,,,,,,,,,,,,,,,,,,,,,,,,,,,,,,,,,,,,,,,,,,,,,,,,,,,,,,,,,,,,,,,,,,,,,,,,,,,,,,,,,,,,,,
,,611d0e8e242d979c62655c57,2024-02-22_05h17.43.055,kallum_motion_pilot,2023.2.2,Win32,59.17159763,611d0e8e242d979c62655c57,65d6bb0e977760de756971f7,65d6bcb1fde08c320ec40482,0.051,0.051,1,99,261,79,1,eightseven,,,,,,,,,,,,,,,,,,,,,,,,,,,,,,,,,,,,,,,,,,,,,,,,,,,,,,,,,,,,,,,,,,,,,,,,,,,,,,,,,,,,,,,,,,,,,,,,,,,,,,,,,,,,,,,,,,,,,,,,,,,,,,,,,,,,,,,,,
,,611d0e8e242d979c62655c57,2024-02-22_05h17.43.055,kallum_motion_pilot,2023.2.2,Win32,59.17159763,611d0e8e242d979c62655c57,65d6bb0e977760de756971f7,65d6bcb1fde08c320ec40482,0.0511,0.0512,1,100,262,11,1,twofour,,,,,,,,,,,,,,,,,,,,,,,,,,,,,,,,,,,,,,,,,,,,,,,,,,,,,,,,,,,,,,,,,,,,,,,,,,,,,,,,,,,,,,,,,,,,,,,,,,,,,,,,,,,,,,,,,,,,,,,,,,,,,,,,,,,,,,,,,
,,611d0e8e242d979c62655c57,2024-02-22_05h17.43.055,kallum_motion_pilot,2023.2.2,Win32,59.17159763,611d0e8e242d979c62655c57,65d6bb0e977760de756971f7,65d6bcb1fde08c320ec40482,0.0512,0.0513,1,101,263,10,1,twoone,,,,,,,,,,,,,,,,,,,,,,,,,,,,,,,,,,,,,,,,,,,,,,,,,,,,,,,,,,,,,,,,,,,,,,,,,,,,,,,,,,,,,,,,,,,,,,,,,,,,,,,,,,,,,,,,,,,,,,,,,,,,,,,,,,,,,,,,,
,,611d0e8e242d979c62655c57,2024-02-22_05h17.43.055,kallum_motion_pilot,2023.2.2,Win32,59.17159763,611d0e8e242d979c62655c57,65d6bb0e977760de756971f7,65d6bcb1fde08c320ec40482,0.0513,0.0514,1,102,264,49,1,onethree,,,,,,,,,,,,,,,,,,,,,,,,,,,,,,,,,,,,,,,,,,,,,,,,,,,,,,,,,,,,,,,,,,,,,,,,,,,,,,,,,,,,,,,,,,,,,,,,,,,,,,,,,,,,,,,,,,,,,,,,,,,,,,,,,,,,,,,,,
,,611d0e8e242d979c62655c57,2024-02-22_05h17.43.055,kallum_motion_pilot,2023.2.2,Win32,59.17159763,611d0e8e242d979c62655c57,65d6bb0e977760de756971f7,65d6bcb1fde08c320ec40482,0.0515,0.0516,1,103,265,158,1,eightsix,,,,,,,,,,,,,,,,,,,,,,,,,,,,,,,,,,,,,,,,,,,,,,,,,,,,,,,,,,,,,,,,,,,,,,,,,,,,,,,,,,,,,,,,,,,,,,,,,,,,,,,,,,,,,,,,,,,,,,,,,,,,,,,,,,,,,,,,,
,,611d0e8e242d979c62655c57,2024-02-22_05h17.43.055,kallum_motion_pilot,2023.2.2,Win32,59.17159763,611d0e8e242d979c62655c57,65d6bb0e977760de756971f7,65d6bcb1fde08c320ec40482,0.0517,0.0517,1,104,266,129,1,fiveseven,,,,,,,,,,,,,,,,,,,,,,,,,,,,,,,,,,,,,,,,,,,,,,,,,,,,,,,,,,,,,,,,,,,,,,,,,,,,,,,,,,,,,,,,,,,,,,,,,,,,,,,,,,,,,,,,,,,,,,,,,,,,,,,,,,,,,,,,,
,,611d0e8e242d979c62655c57,2024-02-22_05h17.43.055,kallum_motion_pilot,2023.2.2,Win32,59.17159763,611d0e8e242d979c62655c57,65d6bb0e977760de756971f7,65d6bcb1fde08c320ec40482,0.0518,0.0519,1,105,267,156,1,sevenfive,,,,,,,,,,,,,,,,,,,,,,,,,,,,,,,,,,,,,,,,,,,,,,,,,,,,,,,,,,,,,,,,,,,,,,,,,,,,,,,,,,,,,,,,,,,,,,,,,,,,,,,,,,,,,,,,,,,,,,,,,,,,,,,,,,,,,,,,,
,,611d0e8e242d979c62655c57,2024-02-22_05h17.43.055,kallum_motion_pilot,2023.2.2,Win32,59.17159763,611d0e8e242d979c62655c57,65d6bb0e977760de756971f7,65d6bcb1fde08c320ec40482,0.0519,0.052,1,106,268,155,1,sixeight,,,,,,,,,,,,,,,,,,,,,,,,,,,,,,,,,,,,,,,,,,,,,,,,,,,,,,,,,,,,,,,,,,,,,,,,,,,,,,,,,,,,,,,,,,,,,,,,,,,,,,,,,,,,,,,,,,,,,,,,,,,,,,,,,,,,,,,,,
,,611d0e8e242d979c62655c57,2024-02-22_05h17.43.055,kallum_motion_pilot,2023.2.2,Win32,59.17159763,611d0e8e242d979c62655c57,65d6bb0e977760de756971f7,65d6bcb1fde08c320ec40482,0.052,0.052,1,107,269,125,1,seveneight,,,,,,,,,,,,,,,,,,,,,,,,,,,,,,,,,,,,,,,,,,,,,,,,,,,,,,,,,,,,,,,,,,,,,,,,,,,,,,,,,,,,,,,,,,,,,,,,,,,,,,,,,,,,,,,,,,,,,,,,,,,,,,,,,,,,,,,,,
,,611d0e8e242d979c62655c57,2024-02-22_05h17.43.055,kallum_motion_pilot,2023.2.2,Win32,59.17159763,611d0e8e242d979c62655c57,65d6bb0e977760de756971f7,65d6bcb1fde08c320ec40482,0.0521,0.0522,1,108,270,66,1,twoone,,,,,,,,,,,,,,,,,,,,,,,,,,,,,,,,,,,,,,,,,,,,,,,,,,,,,,,,,,,,,,,,,,,,,,,,,,,,,,,,,,,,,,,,,,,,,,,,,,,,,,,,,,,,,,,,,,,,,,,,,,,,,,,,,,,,,,,,,
,,611d0e8e242d979c62655c57,2024-02-22_05h17.43.055,kallum_motion_pilot,2023.2.2,Win32,59.17159763,611d0e8e242d979c62655c57,65d6bb0e977760de756971f7,65d6bcb1fde08c320ec40482,0.0522,0.0522,1,109,271,132,1,sevenfive,,,,,,,,,,,,,,,,,,,,,,,,,,,,,,,,,,,,,,,,,,,,,,,,,,,,,,,,,,,,,,,,,,,,,,,,,,,,,,,,,,,,,,,,,,,,,,,,,,,,,,,,,,,,,,,,,,,,,,,,,,,,,,,,,,,,,,,,,
,,611d0e8e242d979c62655c57,2024-02-22_05h17.43.055,kallum_motion_pilot,2023.2.2,Win32,59.17159763,611d0e8e242d979c62655c57,65d6bb0e977760de756971f7,65d6bcb1fde08c320ec40482,0.0523,0.0523,1,110,272,56,1,onetwo,,,,,,,,,,,,,,,,,,,,,,,,,,,,,,,,,,,,,,,,,,,,,,,,,,,,,,,,,,,,,,,,,,,,,,,,,,,,,,,,,,,,,,,,,,,,,,,,,,,,,,,,,,,,,,,,,,,,,,,,,,,,,,,,,,,,,,,,,
,,611d0e8e242d979c62655c57,2024-02-22_05h17.43.055,kallum_motion_pilot,2023.2.2,Win32,59.17159763,611d0e8e242d979c62655c57,65d6bb0e977760de756971f7,65d6bcb1fde08c320ec40482,0.0525,0.0525,1,111,273,142,1,eightsix,,,,,,,,,,,,,,,,,,,,,,,,,,,,,,,,,,,,,,,,,,,,,,,,,,,,,,,,,,,,,,,,,,,,,,,,,,,,,,,,,,,,,,,,,,,,,,,,,,,,,,,,,,,,,,,,,,,,,,,,,,,,,,,,,,,,,,,,,
,,611d0e8e242d979c62655c57,2024-02-22_05h17.43.055,kallum_motion_pilot,2023.2.2,Win32,59.17159763,611d0e8e242d979c62655c57,65d6bb0e977760de756971f7,65d6bcb1fde08c320ec40482,0.0526,0.0526,1,112,274,59,1,twofour,,,,,,,,,,,,,,,,,,,,,,,,,,,,,,,,,,,,,,,,,,,,,,,,,,,,,,,,,,,,,,,,,,,,,,,,,,,,,,,,,,,,,,,,,,,,,,,,,,,,,,,,,,,,,,,,,,,,,,,,,,,,,,,,,,,,,,,,,
,,611d0e8e242d979c62655c57,2024-02-22_05h17.43.055,kallum_motion_pilot,2023.2.2,Win32,59.17159763,611d0e8e242d979c62655c57,65d6bb0e977760de756971f7,65d6bcb1fde08c320ec40482,0.0526,0.0528,1,113,275,106,1,sixfive,,,,,,,,,,,,,,,,,,,,,,,,,,,,,,,,,,,,,,,,,,,,,,,,,,,,,,,,,,,,,,,,,,,,,,,,,,,,,,,,,,,,,,,,,,,,,,,,,,,,,,,,,,,,,,,,,,,,,,,,,,,,,,,,,,,,,,,,,
,,611d0e8e242d979c62655c57,2024-02-22_05h17.43.055,kallum_motion_pilot,2023.2.2,Win32,59.17159763,611d0e8e242d979c62655c57,65d6bb0e977760de756971f7,65d6bcb1fde08c320ec40482,0.0529,0.0529,1,114,276,130,1,sixfive,,,,,,,,,,,,,,,,,,,,,,,,,,,,,,,,,,,,,,,,,,,,,,,,,,,,,,,,,,,,,,,,,,,,,,,,,,,,,,,,,,,,,,,,,,,,,,,,,,,,,,,,,,,,,,,,,,,,,,,,,,,,,,,,,,,,,,,,,
,,611d0e8e242d979c62655c57,2024-02-22_05h17.43.055,kallum_motion_pilot,2023.2.2,Win32,59.17159763,611d0e8e242d979c62655c57,65d6bb0e977760de756971f7,65d6bcb1fde08c320ec40482,0.0529,0.053,1,115,277,137,1,fiveseven,,,,,,,,,,,,,,,,,,,,,,,,,,,,,,,,,,,,,,,,,,,,,,,,,,,,,,,,,,,,,,,,,,,,,,,,,,,,,,,,,,,,,,,,,,,,,,,,,,,,,,,,,,,,,,,,,,,,,,,,,,,,,,,,,,,,,,,,,
