startup.started,startup.stopped,Prolific ID*,date,expName,psychopyVersion,OS,frameRate,participant,study_id,session,stimpositions.started,stimpositions.stopped,hardcoded_stimulus_positions.thisRepN,hardcoded_stimulus_positions.thisTrialN,hardcoded_stimulus_positions.thisN,hardcoded_stimulus_positions.thisIndex,hardcoded_stimulus_positions.ran,StimulusPos,stimorientation.started,stimorientation.stopped,prac_stimorientation_import_loop.thisRepN,prac_stimorientation_import_loop.thisTrialN,prac_stimorientation_import_loop.thisN,prac_stimorientation_import_loop.thisIndex,prac_stimorientation_import_loop.ran,Stimorientation,welcome_instr.started,welcome_instr.stopped,key_resp.keys,key_resp.rt,key_resp.duration,response_steppedout_1.started,response_steppedout_1.stopped,key_resp_20.keys,key_resp_20.rt,key_resp_20.duration,response_steppedout_2.started,response_steppedout_2.stopped,key_resp_19.keys,key_resp_19.rt,key_resp_19.duration,stim_response_instr.started,stim_response_instr.stopped,key_resp_15.keys,key_resp_15.rt,key_resp_15.duration,direction_instr_2.started,direction_instr_2.stopped,key_resp_9.keys,key_resp_9.rt,key_resp_9.duration,instr_prac.started,instr_prac.stopped,key_resp_10.keys,key_resp_10.rt,key_resp_10.duration,Stim1_display_prac.started,Stim1_display_prac.stopped,Ecc,Circle1_ori,Circle2_ori,response_prac.started,similarity,response_time,response_prac.stopped,mouse_5.x,mouse_5.y,mouse_5.leftButton,mouse_5.midButton,mouse_5.rightButton,mouse_5.clicked_name,responseprac_feedback.started,responseprac_feedback.stopped,summary2_prac.started,summary2_prac.stopped,mouse_6.x,mouse_6.y,mouse_6.leftButton,mouse_6.midButton,mouse_6.rightButton,mouse_6.clicked_name,duringprac.thisRepN,duringprac.thisTrialN,duringprac.thisN,duringprac.thisIndex,duringprac.ran,begin.started,begin.stopped,key_resp_22.keys,key_resp_22.rt,key_resp_22.duration,Stim1_display.started,Stim1_display.stopped,circle1_ori,circle2_ori,circle1_SF,circle2_SF,response.started,response.stopped,mouse.x,mouse.y,mouse.leftButton,mouse.midButton,mouse.rightButton,mouse.clicked_name,trialnumber,double_pass.thisRepN,double_pass.thisTrialN,double_pass.thisN,double_pass.thisIndex,double_pass.ran,double_pass.order,main_trial.thisRepN,main_trial.thisTrialN,main_trial.thisN,main_trial.thisIndex,main_trial.ran,main_trial.order,Trial_Counter,Catch,Frequencies,response_2.started,response_2.stopped,mouse_2.x,mouse_2.y,mouse_2.leftButton,mouse_2.midButton,mouse_2.rightButton,mouse_2.clicked_name,special_trial.started,special_trial.stopped,catch_1.started,catch_1.stopped,mouse_3.x,mouse_3.y,mouse_3.leftButton,mouse_3.midButton,mouse_3.rightButton,catchresponse,catchnumber,response_time_catch,response_sum.started,response_sum.stopped,mouse_11.x,mouse_11.y,mouse_11.leftButton,mouse_11.midButton,mouse_11.rightButton,flip_presentation_sequence_for_double_pass.started,flip_presentation_sequence_for_double_pass.stopped,goodbye.started,goodbye.stopped,key_resp_3.keys,key_resp_3.rt,key_resp_3.duration
0.0006,0.0011,611d06624467771b706c520c,2024-02-22_05h27.48.764,kallum_motion_pilot,2023.2.2,Win32,60.60606061,611d06624467771b706c520c,65d6bb0e977760de756971f7,65d6bf13187b8f050d9ea6af,,,,,,,,,,,,,,,,,,,,,,,,,,,,,,,,,,,,,,,,,,,,,,,,,,,,,,,,,,,,,,,,,,,,,,,,,,,,,,,,,,,,,,,,,,,,,,,,,,,,,,,,,,,,,,,,,,,,,,,,,,,,,,,,,,,,,,,,,,,,,,,,,
,,611d06624467771b706c520c,2024-02-22_05h27.48.764,kallum_motion_pilot,2023.2.2,Win32,60.60606061,611d06624467771b706c520c,65d6bb0e977760de756971f7,65d6bf13187b8f050d9ea6af,0.0249,0.025,0,0,0,33,1,onethree,,,,,,,,,,,,,,,,,,,,,,,,,,,,,,,,,,,,,,,,,,,,,,,,,,,,,,,,,,,,,,,,,,,,,,,,,,,,,,,,,,,,,,,,,,,,,,,,,,,,,,,,,,,,,,,,,,,,,,,,,,,,,,,,,,,,,,,,,
,,611d06624467771b706c520c,2024-02-22_05h27.48.764,kallum_motion_pilot,2023.2.2,Win32,60.60606061,611d06624467771b706c520c,65d6bb0e977760de756971f7,65d6bf13187b8f050d9ea6af,0.0252,0.0252,0,1,1,65,1,onethree,,,,,,,,,,,,,,,,,,,,,,,,,,,,,,,,,,,,,,,,,,,,,,,,,,,,,,,,,,,,,,,,,,,,,,,,,,,,,,,,,,,,,,,,,,,,,,,,,,,,,,,,,,,,,,,,,,,,,,,,,,,,,,,,,,,,,,,,,
,,611d06624467771b706c520c,2024-02-22_05h27.48.764,kallum_motion_pilot,2023.2.2,Win32,60.60606061,611d06624467771b706c520c,65d6bb0e977760de756971f7,65d6bf13187b8f050d9ea6af,0.0253,0.0253,0,2,2,145,1,fiveseven,,,,,,,,,,,,,,,,,,,,,,,,,,,,,,,,,,,,,,,,,,,,,,,,,,,,,,,,,,,,,,,,,,,,,,,,,,,,,,,,,,,,,,,,,,,,,,,,,,,,,,,,,,,,,,,,,,,,,,,,,,,,,,,,,,,,,,,,,
,,611d06624467771b706c520c,2024-02-22_05h27.48.764,kallum_motion_pilot,2023.2.2,Win32,60.60606061,611d06624467771b706c520c,65d6bb0e977760de756971f7,65d6bf13187b8f050d9ea6af,0.0255,0.0255,0,3,3,117,1,seveneight,,,,,,,,,,,,,,,,,,,,,,,,,,,,,,,,,,,,,,,,,,,,,,,,,,,,,,,,,,,,,,,,,,,,,,,,,,,,,,,,,,,,,,,,,,,,,,,,,,,,,,,,,,,,,,,,,,,,,,,,,,,,,,,,,,,,,,,,,
,,611d06624467771b706c520c,2024-02-22_05h27.48.764,kallum_motion_pilot,2023.2.2,Win32,60.60606061,611d06624467771b706c520c,65d6bb0e977760de756971f7,65d6bf13187b8f050d9ea6af,0.0255,0.0256,0,4,4,21,1,threefour,,,,,,,,,,,,,,,,,,,,,,,,,,,,,,,,,,,,,,,,,,,,,,,,,,,,,,,,,,,,,,,,,,,,,,,,,,,,,,,,,,,,,,,,,,,,,,,,,,,,,,,,,,,,,,,,,,,,,,,,,,,,,,,,,,,,,,,,,
,,611d06624467771b706c520c,2024-02-22_05h27.48.764,kallum_motion_pilot,2023.2.2,Win32,60.60606061,611d06624467771b706c520c,65d6bb0e977760de756971f7,65d6bf13187b8f050d9ea6af,0.0257,0.0258,0,5,5,20,1,threeone,,,,,,,,,,,,,,,,,,,,,,,,,,,,,,,,,,,,,,,,,,,,,,,,,,,,,,,,,,,,,,,,,,,,,,,,,,,,,,,,,,,,,,,,,,,,,,,,,,,,,,,,,,,,,,,,,,,,,,,,,,,,,,,,,,,,,,,,,
,,611d06624467771b706c520c,2024-02-22_05h27.48.764,kallum_motion_pilot,2023.2.2,Win32,60.60606061,611d06624467771b706c520c,65d6bb0e977760de756971f7,65d6bf13187b8f050d9ea6af,0.0259,0.0259,0,6,6,54,1,fourtwo,,,,,,,,,,,,,,,,,,,,,,,,,,,,,,,,,,,,,,,,,,,,,,,,,,,,,,,,,,,,,,,,,,,,,,,,,,,,,,,,,,,,,,,,,,,,,,,,,,,,,,,,,,,,,,,,,,,,,,,,,,,,,,,,,,,,,,,,,
,,611d06624467771b706c520c,2024-02-22_05h27.48.764,kallum_motion_pilot,2023.2.2,Win32,60.60606061,611d06624467771b706c520c,65d6bb0e977760de756971f7,65d6bf13187b8f050d9ea6af,0.0261,0.0261,0,7,7,134,1,eightsix,,,,,,,,,,,,,,,,,,,,,,,,,,,,,,,,,,,,,,,,,,,,,,,,,,,,,,,,,,,,,,,,,,,,,,,,,,,,,,,,,,,,,,,,,,,,,,,,,,,,,,,,,,,,,,,,,,,,,,,,,,,,,,,,,,,,,,,,,
,,611d06624467771b706c520c,2024-02-22_05h27.48.764,kallum_motion_pilot,2023.2.2,Win32,60.60606061,611d06624467771b706c520c,65d6bb0e977760de756971f7,65d6bf13187b8f050d9ea6af,0.0263,0.0264,0,8,8,125,1,seveneight,,,,,,,,,,,,,,,,,,,,,,,,,,,,,,,,,,,,,,,,,,,,,,,,,,,,,,,,,,,,,,,,,,,,,,,,,,,,,,,,,,,,,,,,,,,,,,,,,,,,,,,,,,,,,,,,,,,,,,,,,,,,,,,,,,,,,,,,,
,,611d06624467771b706c520c,2024-02-22_05h27.48.764,kallum_motion_pilot,2023.2.2,Win32,60.60606061,611d06624467771b706c520c,65d6bb0e977760de756971f7,65d6bf13187b8f050d9ea6af,0.0266,0.0266,0,9,9,69,1,threefour,,,,,,,,,,,,,,,,,,,,,,,,,,,,,,,,,,,,,,,,,,,,,,,,,,,,,,,,,,,,,,,,,,,,,,,,,,,,,,,,,,,,,,,,,,,,,,,,,,,,,,,,,,,,,,,,,,,,,,,,,,,,,,,,,,,,,,,,,
,,611d06624467771b706c520c,2024-02-22_05h27.48.764,kallum_motion_pilot,2023.2.2,Win32,60.60606061,611d06624467771b706c520c,65d6bb0e977760de756971f7,65d6bf13187b8f050d9ea6af,0.0267,0.0267,0,10,10,93,1,seveneight,,,,,,,,,,,,,,,,,,,,,,,,,,,,,,,,,,,,,,,,,,,,,,,,,,,,,,,,,,,,,,,,,,,,,,,,,,,,,,,,,,,,,,,,,,,,,,,,,,,,,,,,,,,,,,,,,,,,,,,,,,,,,,,,,,,,,,,,,
,,611d06624467771b706c520c,2024-02-22_05h27.48.764,kallum_motion_pilot,2023.2.2,Win32,60.60606061,611d06624467771b706c520c,65d6bb0e977760de756971f7,65d6bf13187b8f050d9ea6af,0.0268,0.0269,0,11,11,90,1,sixfive,,,,,,,,,,,,,,,,,,,,,,,,,,,,,,,,,,,,,,,,,,,,,,,,,,,,,,,,,,,,,,,,,,,,,,,,,,,,,,,,,,,,,,,,,,,,,,,,,,,,,,,,,,,,,,,,,,,,,,,,,,,,,,,,,,,,,,,,,
,,611d06624467771b706c520c,2024-02-22_05h27.48.764,kallum_motion_pilot,2023.2.2,Win32,60.60606061,611d06624467771b706c520c,65d6bb0e977760de756971f7,65d6bf13187b8f050d9ea6af,0.0269,0.0271,0,12,12,121,1,fiveseven,,,,,,,,,,,,,,,,,,,,,,,,,,,,,,,,,,,,,,,,,,,,,,,,,,,,,,,,,,,,,,,,,,,,,,,,,,,,,,,,,,,,,,,,,,,,,,,,,,,,,,,,,,,,,,,,,,,,,,,,,,,,,,,,,,,,,,,,,
,,611d06624467771b706c520c,2024-02-22_05h27.48.764,kallum_motion_pilot,2023.2.2,Win32,60.60606061,611d06624467771b706c520c,65d6bb0e977760de756971f7,65d6bf13187b8f050d9ea6af,0.0272,0.0272,0,13,13,139,1,sixeight,,,,,,,,,,,,,,,,,,,,,,,,,,,,,,,,,,,,,,,,,,,,,,,,,,,,,,,,,,,,,,,,,,,,,,,,,,,,,,,,,,,,,,,,,,,,,,,,,,,,,,,,,,,,,,,,,,,,,,,,,,,,,,,,,,,,,,,,,
,,611d06624467771b706c520c,2024-02-22_05h27.48.764,kallum_motion_pilot,2023.2.2,Win32,60.60606061,611d06624467771b706c520c,65d6bb0e977760de756971f7,65d6bf13187b8f050d9ea6af,0.0273,0.0273,0,14,14,102,1,eightsix,,,,,,,,,,,,,,,,,,,,,,,,,,,,,,,,,,,,,,,,,,,,,,,,,,,,,,,,,,,,,,,,,,,,,,,,,,,,,,,,,,,,,,,,,,,,,,,,,,,,,,,,,,,,,,,,,,,,,,,,,,,,,,,,,,,,,,,,,
,,611d06624467771b706c520c,2024-02-22_05h27.48.764,kallum_motion_pilot,2023.2.2,Win32,60.60606061,611d06624467771b706c520c,65d6bb0e977760de756971f7,65d6bf13187b8f050d9ea6af,0.0275,0.0275,0,15,15,105,1,fiveseven,,,,,,,,,,,,,,,,,,,,,,,,,,,,,,,,,,,,,,,,,,,,,,,,,,,,,,,,,,,,,,,,,,,,,,,,,,,,,,,,,,,,,,,,,,,,,,,,,,,,,,,,,,,,,,,,,,,,,,,,,,,,,,,,,,,,,,,,,
,,611d06624467771b706c520c,2024-02-22_05h27.48.764,kallum_motion_pilot,2023.2.2,Win32,60.60606061,611d06624467771b706c520c,65d6bb0e977760de756971f7,65d6bf13187b8f050d9ea6af,0.0276,0.0276,0,16,16,19,1,twofour,,,,,,,,,,,,,,,,,,,,,,,,,,,,,,,,,,,,,,,,,,,,,,,,,,,,,,,,,,,,,,,,,,,,,,,,,,,,,,,,,,,,,,,,,,,,,,,,,,,,,,,,,,,,,,,,,,,,,,,,,,,,,,,,,,,,,,,,,
,,611d06624467771b706c520c,2024-02-22_05h27.48.764,kallum_motion_pilot,2023.2.2,Win32,60.60606061,611d06624467771b706c520c,65d6bb0e977760de756971f7,65d6bf13187b8f050d9ea6af,0.0277,0.0278,0,17,17,70,1,fourtwo,,,,,,,,,,,,,,,,,,,,,,,,,,,,,,,,,,,,,,,,,,,,,,,,,,,,,,,,,,,,,,,,,,,,,,,,,,,,,,,,,,,,,,,,,,,,,,,,,,,,,,,,,,,,,,,,,,,,,,,,,,,,,,,,,,,,,,,,,
,,611d06624467771b706c520c,2024-02-22_05h27.48.764,kallum_motion_pilot,2023.2.2,Win32,60.60606061,611d06624467771b706c520c,65d6bb0e977760de756971f7,65d6bf13187b8f050d9ea6af,0.0278,0.0279,0,18,18,51,1,twofour,,,,,,,,,,,,,,,,,,,,,,,,,,,,,,,,,,,,,,,,,,,,,,,,,,,,,,,,,,,,,,,,,,,,,,,,,,,,,,,,,,,,,,,,,,,,,,,,,,,,,,,,,,,,,,,,,,,,,,,,,,,,,,,,,,,,,,,,,
,,611d06624467771b706c520c,2024-02-22_05h27.48.764,kallum_motion_pilot,2023.2.2,Win32,60.60606061,611d06624467771b706c520c,65d6bb0e977760de756971f7,65d6bf13187b8f050d9ea6af,0.0279,0.028,0,19,19,100,1,sevenfive,,,,,,,,,,,,,,,,,,,,,,,,,,,,,,,,,,,,,,,,,,,,,,,,,,,,,,,,,,,,,,,,,,,,,,,,,,,,,,,,,,,,,,,,,,,,,,,,,,,,,,,,,,,,,,,,,,,,,,,,,,,,,,,,,,,,,,,,,
,,611d06624467771b706c520c,2024-02-22_05h27.48.764,kallum_motion_pilot,2023.2.2,Win32,60.60606061,611d06624467771b706c520c,65d6bb0e977760de756971f7,65d6bf13187b8f050d9ea6af,0.028,0.028,0,20,20,34,1,twoone,,,,,,,,,,,,,,,,,,,,,,,,,,,,,,,,,,,,,,,,,,,,,,,,,,,,,,,,,,,,,,,,,,,,,,,,,,,,,,,,,,,,,,,,,,,,,,,,,,,,,,,,,,,,,,,,,,,,,,,,,,,,,,,,,,,,,,,,,
,,611d06624467771b706c520c,2024-02-22_05h27.48.764,kallum_motion_pilot,2023.2.2,Win32,60.60606061,611d06624467771b706c520c,65d6bb0e977760de756971f7,65d6bf13187b8f050d9ea6af,0.0281,0.0281,0,21,21,138,1,sixfive,,,,,,,,,,,,,,,,,,,,,,,,,,,,,,,,,,,,,,,,,,,,,,,,,,,,,,,,,,,,,,,,,,,,,,,,,,,,,,,,,,,,,,,,,,,,,,,,,,,,,,,,,,,,,,,,,,,,,,,,,,,,,,,,,,,,,,,,,
,,611d06624467771b706c520c,2024-02-22_05h27.48.764,kallum_motion_pilot,2023.2.2,Win32,60.60606061,611d06624467771b706c520c,65d6bb0e977760de756971f7,65d6bf13187b8f050d9ea6af,0.0282,0.0282,0,22,22,98,1,sixfive,,,,,,,,,,,,,,,,,,,,,,,,,,,,,,,,,,,,,,,,,,,,,,,,,,,,,,,,,,,,,,,,,,,,,,,,,,,,,,,,,,,,,,,,,,,,,,,,,,,,,,,,,,,,,,,,,,,,,,,,,,,,,,,,,,,,,,,,,
,,611d06624467771b706c520c,2024-02-22_05h27.48.764,kallum_motion_pilot,2023.2.2,Win32,60.60606061,611d06624467771b706c520c,65d6bb0e977760de756971f7,65d6bf13187b8f050d9ea6af,0.0283,0.0284,0,23,23,88,1,fivesix,,,,,,,,,,,,,,,,,,,,,,,,,,,,,,,,,,,,,,,,,,,,,,,,,,,,,,,,,,,,,,,,,,,,,,,,,,,,,,,,,,,,,,,,,,,,,,,,,,,,,,,,,,,,,,,,,,,,,,,,,,,,,,,,,,,,,,,,,
,,611d06624467771b706c520c,2024-02-22_05h27.48.764,kallum_motion_pilot,2023.2.2,Win32,60.60606061,611d06624467771b706c520c,65d6bb0e977760de756971f7,65d6bf13187b8f050d9ea6af,0.0286,0.0287,0,24,24,18,1,twoone,,,,,,,,,,,,,,,,,,,,,,,,,,,,,,,,,,,,,,,,,,,,,,,,,,,,,,,,,,,,,,,,,,,,,,,,,,,,,,,,,,,,,,,,,,,,,,,,,,,,,,,,,,,,,,,,,,,,,,,,,,,,,,,,,,,,,,,,,
,,611d06624467771b706c520c,2024-02-22_05h27.48.764,kallum_motion_pilot,2023.2.2,Win32,60.60606061,611d06624467771b706c520c,65d6bb0e977760de756971f7,65d6bf13187b8f050d9ea6af,0.0288,0.0288,0,25,25,158,1,eightsix,,,,,,,,,,,,,,,,,,,,,,,,,,,,,,,,,,,,,,,,,,,,,,,,,,,,,,,,,,,,,,,,,,,,,,,,,,,,,,,,,,,,,,,,,,,,,,,,,,,,,,,,,,,,,,,,,,,,,,,,,,,,,,,,,,,,,,,,,
,,611d06624467771b706c520c,2024-02-22_05h27.48.764,kallum_motion_pilot,2023.2.2,Win32,60.60606061,611d06624467771b706c520c,65d6bb0e977760de756971f7,65d6bf13187b8f050d9ea6af,0.029,0.029,0,26,26,63,1,fourthree,,,,,,,,,,,,,,,,,,,,,,,,,,,,,,,,,,,,,,,,,,,,,,,,,,,,,,,,,,,,,,,,,,,,,,,,,,,,,,,,,,,,,,,,,,,,,,,,,,,,,,,,,,,,,,,,,,,,,,,,,,,,,,,,,,,,,,,,,
,,611d06624467771b706c520c,2024-02-22_05h27.48.764,kallum_motion_pilot,2023.2.2,Win32,60.60606061,611d06624467771b706c520c,65d6bb0e977760de756971f7,65d6bf13187b8f050d9ea6af,0.0292,0.0292,0,27,27,53,1,threefour,,,,,,,,,,,,,,,,,,,,,,,,,,,,,,,,,,,,,,,,,,,,,,,,,,,,,,,,,,,,,,,,,,,,,,,,,,,,,,,,,,,,,,,,,,,,,,,,,,,,,,,,,,,,,,,,,,,,,,,,,,,,,,,,,,,,,,,,,
,,611d06624467771b706c520c,2024-02-22_05h27.48.764,kallum_motion_pilot,2023.2.2,Win32,60.60606061,611d06624467771b706c520c,65d6bb0e977760de756971f7,65d6bf13187b8f050d9ea6af,0.0292,0.0292,0,28,28,144,1,fivesix,,,,,,,,,,,,,,,,,,,,,,,,,,,,,,,,,,,,,,,,,,,,,,,,,,,,,,,,,,,,,,,,,,,,,,,,,,,,,,,,,,,,,,,,,,,,,,,,,,,,,,,,,,,,,,,,,,,,,,,,,,,,,,,,,,,,,,,,,
,,611d06624467771b706c520c,2024-02-22_05h27.48.764,kallum_motion_pilot,2023.2.2,Win32,60.60606061,611d06624467771b706c520c,65d6bb0e977760de756971f7,65d6bf13187b8f050d9ea6af,0.0294,0.0294,0,29,29,66,1,twoone,,,,,,,,,,,,,,,,,,,,,,,,,,,,,,,,,,,,,,,,,,,,,,,,,,,,,,,,,,,,,,,,,,,,,,,,,,,,,,,,,,,,,,,,,,,,,,,,,,,,,,,,,,,,,,,,,,,,,,,,,,,,,,,,,,,,,,,,,
,,611d06624467771b706c520c,2024-02-22_05h27.48.764,kallum_motion_pilot,2023.2.2,Win32,60.60606061,611d06624467771b706c520c,65d6bb0e977760de756971f7,65d6bf13187b8f050d9ea6af,0.0295,0.0295,0,30,30,44,1,threeone,,,,,,,,,,,,,,,,,,,,,,,,,,,,,,,,,,,,,,,,,,,,,,,,,,,,,,,,,,,,,,,,,,,,,,,,,,,,,,,,,,,,,,,,,,,,,,,,,,,,,,,,,,,,,,,,,,,,,,,,,,,,,,,,,,,,,,,,,
,,611d06624467771b706c520c,2024-02-22_05h27.48.764,kallum_motion_pilot,2023.2.2,Win32,60.60606061,611d06624467771b706c520c,65d6bb0e977760de756971f7,65d6bf13187b8f050d9ea6af,0.0297,0.0297,0,31,31,82,1,sixfive,,,,,,,,,,,,,,,,,,,,,,,,,,,,,,,,,,,,,,,,,,,,,,,,,,,,,,,,,,,,,,,,,,,,,,,,,,,,,,,,,,,,,,,,,,,,,,,,,,,,,,,,,,,,,,,,,,,,,,,,,,,,,,,,,,,,,,,,,
,,611d06624467771b706c520c,2024-02-22_05h27.48.764,kallum_motion_pilot,2023.2.2,Win32,60.60606061,611d06624467771b706c520c,65d6bb0e977760de756971f7,65d6bf13187b8f050d9ea6af,0.0298,0.0298,0,32,32,50,1,twoone,,,,,,,,,,,,,,,,,,,,,,,,,,,,,,,,,,,,,,,,,,,,,,,,,,,,,,,,,,,,,,,,,,,,,,,,,,,,,,,,,,,,,,,,,,,,,,,,,,,,,,,,,,,,,,,,,,,,,,,,,,,,,,,,,,,,,,,,,
,,611d06624467771b706c520c,2024-02-22_05h27.48.764,kallum_motion_pilot,2023.2.2,Win32,60.60606061,611d06624467771b706c520c,65d6bb0e977760de756971f7,65d6bf13187b8f050d9ea6af,0.0299,0.0299,0,33,33,113,1,fiveseven,,,,,,,,,,,,,,,,,,,,,,,,,,,,,,,,,,,,,,,,,,,,,,,,,,,,,,,,,,,,,,,,,,,,,,,,,,,,,,,,,,,,,,,,,,,,,,,,,,,,,,,,,,,,,,,,,,,,,,,,,,,,,,,,,,,,,,,,,
,,611d06624467771b706c520c,2024-02-22_05h27.48.764,kallum_motion_pilot,2023.2.2,Win32,60.60606061,611d06624467771b706c520c,65d6bb0e977760de756971f7,65d6bf13187b8f050d9ea6af,0.0299,0.03,0,34,34,43,1,twofour,,,,,,,,,,,,,,,,,,,,,,,,,,,,,,,,,,,,,,,,,,,,,,,,,,,,,,,,,,,,,,,,,,,,,,,,,,,,,,,,,,,,,,,,,,,,,,,,,,,,,,,,,,,,,,,,,,,,,,,,,,,,,,,,,,,,,,,,,
,,611d06624467771b706c520c,2024-02-22_05h27.48.764,kallum_motion_pilot,2023.2.2,Win32,60.60606061,611d06624467771b706c520c,65d6bb0e977760de756971f7,65d6bf13187b8f050d9ea6af,0.0301,0.0301,0,35,35,99,1,sixeight,,,,,,,,,,,,,,,,,,,,,,,,,,,,,,,,,,,,,,,,,,,,,,,,,,,,,,,,,,,,,,,,,,,,,,,,,,,,,,,,,,,,,,,,,,,,,,,,,,,,,,,,,,,,,,,,,,,,,,,,,,,,,,,,,,,,,,,,,
,,611d06624467771b706c520c,2024-02-22_05h27.48.764,kallum_motion_pilot,2023.2.2,Win32,60.60606061,611d06624467771b706c520c,65d6bb0e977760de756971f7,65d6bf13187b8f050d9ea6af,0.0302,0.0302,0,36,36,136,1,fivesix,,,,,,,,,,,,,,,,,,,,,,,,,,,,,,,,,,,,,,,,,,,,,,,,,,,,,,,,,,,,,,,,,,,,,,,,,,,,,,,,,,,,,,,,,,,,,,,,,,,,,,,,,,,,,,,,,,,,,,,,,,,,,,,,,,,,,,,,,
,,611d06624467771b706c520c,2024-02-22_05h27.48.764,kallum_motion_pilot,2023.2.2,Win32,60.60606061,611d06624467771b706c520c,65d6bb0e977760de756971f7,65d6bf13187b8f050d9ea6af,0.0303,0.0304,0,37,37,119,1,eightseven,,,,,,,,,,,,,,,,,,,,,,,,,,,,,,,,,,,,,,,,,,,,,,,,,,,,,,,,,,,,,,,,,,,,,,,,,,,,,,,,,,,,,,,,,,,,,,,,,,,,,,,,,,,,,,,,,,,,,,,,,,,,,,,,,,,,,,,,,
,,611d06624467771b706c520c,2024-02-22_05h27.48.764,kallum_motion_pilot,2023.2.2,Win32,60.60606061,611d06624467771b706c520c,65d6bb0e977760de756971f7,65d6bf13187b8f050d9ea6af,0.0304,0.0305,0,38,38,101,1,seveneight,,,,,,,,,,,,,,,,,,,,,,,,,,,,,,,,,,,,,,,,,,,,,,,,,,,,,,,,,,,,,,,,,,,,,,,,,,,,,,,,,,,,,,,,,,,,,,,,,,,,,,,,,,,,,,,,,,,,,,,,,,,,,,,,,,,,,,,,,
,,611d06624467771b706c520c,2024-02-22_05h27.48.764,kallum_motion_pilot,2023.2.2,Win32,60.60606061,611d06624467771b706c520c,65d6bb0e977760de756971f7,65d6bf13187b8f050d9ea6af,0.0306,0.0307,0,39,39,147,1,sixeight,,,,,,,,,,,,,,,,,,,,,,,,,,,,,,,,,,,,,,,,,,,,,,,,,,,,,,,,,,,,,,,,,,,,,,,,,,,,,,,,,,,,,,,,,,,,,,,,,,,,,,,,,,,,,,,,,,,,,,,,,,,,,,,,,,,,,,,,,
,,611d06624467771b706c520c,2024-02-22_05h27.48.764,kallum_motion_pilot,2023.2.2,Win32,60.60606061,611d06624467771b706c520c,65d6bb0e977760de756971f7,65d6bf13187b8f050d9ea6af,0.0308,0.0308,0,40,40,95,1,eightseven,,,,,,,,,,,,,,,,,,,,,,,,,,,,,,,,,,,,,,,,,,,,,,,,,,,,,,,,,,,,,,,,,,,,,,,,,,,,,,,,,,,,,,,,,,,,,,,,,,,,,,,,,,,,,,,,,,,,,,,,,,,,,,,,,,,,,,,,,
,,611d06624467771b706c520c,2024-02-22_05h27.48.764,kallum_motion_pilot,2023.2.2,Win32,60.60606061,611d06624467771b706c520c,65d6bb0e977760de756971f7,65d6bf13187b8f050d9ea6af,0.0309,0.0309,0,41,41,78,1,fourtwo,,,,,,,,,,,,,,,,,,,,,,,,,,,,,,,,,,,,,,,,,,,,,,,,,,,,,,,,,,,,,,,,,,,,,,,,,,,,,,,,,,,,,,,,,,,,,,,,,,,,,,,,,,,,,,,,,,,,,,,,,,,,,,,,,,,,,,,,,
,,611d06624467771b706c520c,2024-02-22_05h27.48.764,kallum_motion_pilot,2023.2.2,Win32,60.60606061,611d06624467771b706c520c,65d6bb0e977760de756971f7,65d6bf13187b8f050d9ea6af,0.031,0.031,0,42,42,132,1,sevenfive,,,,,,,,,,,,,,,,,,,,,,,,,,,,,,,,,,,,,,,,,,,,,,,,,,,,,,,,,,,,,,,,,,,,,,,,,,,,,,,,,,,,,,,,,,,,,,,,,,,,,,,,,,,,,,,,,,,,,,,,,,,,,,,,,,,,,,,,,
,,611d06624467771b706c520c,2024-02-22_05h27.48.764,kallum_motion_pilot,2023.2.2,Win32,60.60606061,611d06624467771b706c520c,65d6bb0e977760de756971f7,65d6bf13187b8f050d9ea6af,0.0311,0.0312,0,43,43,61,1,threefour,,,,,,,,,,,,,,,,,,,,,,,,,,,,,,,,,,,,,,,,,,,,,,,,,,,,,,,,,,,,,,,,,,,,,,,,,,,,,,,,,,,,,,,,,,,,,,,,,,,,,,,,,,,,,,,,,,,,,,,,,,,,,,,,,,,,,,,,,
,,611d06624467771b706c520c,2024-02-22_05h27.48.764,kallum_motion_pilot,2023.2.2,Win32,60.60606061,611d06624467771b706c520c,65d6bb0e977760de756971f7,65d6bf13187b8f050d9ea6af,0.0313,0.0314,0,44,44,48,1,onetwo,,,,,,,,,,,,,,,,,,,,,,,,,,,,,,,,,,,,,,,,,,,,,,,,,,,,,,,,,,,,,,,,,,,,,,,,,,,,,,,,,,,,,,,,,,,,,,,,,,,,,,,,,,,,,,,,,,,,,,,,,,,,,,,,,,,,,,,,,
,,611d06624467771b706c520c,2024-02-22_05h27.48.764,kallum_motion_pilot,2023.2.2,Win32,60.60606061,611d06624467771b706c520c,65d6bb0e977760de756971f7,65d6bf13187b8f050d9ea6af,0.0314,0.0314,0,45,45,52,1,threeone,,,,,,,,,,,,,,,,,,,,,,,,,,,,,,,,,,,,,,,,,,,,,,,,,,,,,,,,,,,,,,,,,,,,,,,,,,,,,,,,,,,,,,,,,,,,,,,,,,,,,,,,,,,,,,,,,,,,,,,,,,,,,,,,,,,,,,,,,
,,611d06624467771b706c520c,2024-02-22_05h27.48.764,kallum_motion_pilot,2023.2.2,Win32,60.60606061,611d06624467771b706c520c,65d6bb0e977760de756971f7,65d6bf13187b8f050d9ea6af,0.0315,0.0315,0,46,46,72,1,onetwo,,,,,,,,,,,,,,,,,,,,,,,,,,,,,,,,,,,,,,,,,,,,,,,,,,,,,,,,,,,,,,,,,,,,,,,,,,,,,,,,,,,,,,,,,,,,,,,,,,,,,,,,,,,,,,,,,,,,,,,,,,,,,,,,,,,,,,,,,
,,611d06624467771b706c520c,2024-02-22_05h27.48.764,kallum_motion_pilot,2023.2.2,Win32,60.60606061,611d06624467771b706c520c,65d6bb0e977760de756971f7,65d6bf13187b8f050d9ea6af,0.0316,0.0317,0,47,47,79,1,eightseven,,,,,,,,,,,,,,,,,,,,,,,,,,,,,,,,,,,,,,,,,,,,,,,,,,,,,,,,,,,,,,,,,,,,,,,,,,,,,,,,,,,,,,,,,,,,,,,,,,,,,,,,,,,,,,,,,,,,,,,,,,,,,,,,,,,,,,,,,
,,611d06624467771b706c520c,2024-02-22_05h27.48.764,kallum_motion_pilot,2023.2.2,Win32,60.60606061,611d06624467771b706c520c,65d6bb0e977760de756971f7,65d6bf13187b8f050d9ea6af,0.0317,0.0318,0,48,48,112,1,fivesix,,,,,,,,,,,,,,,,,,,,,,,,,,,,,,,,,,,,,,,,,,,,,,,,,,,,,,,,,,,,,,,,,,,,,,,,,,,,,,,,,,,,,,,,,,,,,,,,,,,,,,,,,,,,,,,,,,,,,,,,,,,,,,,,,,,,,,,,,
,,611d06624467771b706c520c,2024-02-22_05h27.48.764,kallum_motion_pilot,2023.2.2,Win32,60.60606061,611d06624467771b706c520c,65d6bb0e977760de756971f7,65d6bf13187b8f050d9ea6af,0.0318,0.0318,0,49,49,155,1,sixeight,,,,,,,,,,,,,,,,,,,,,,,,,,,,,,,,,,,,,,,,,,,,,,,,,,,,,,,,,,,,,,,,,,,,,,,,,,,,,,,,,,,,,,,,,,,,,,,,,,,,,,,,,,,,,,,,,,,,,,,,,,,,,,,,,,,,,,,,,
,,611d06624467771b706c520c,2024-02-22_05h27.48.764,kallum_motion_pilot,2023.2.2,Win32,60.60606061,611d06624467771b706c520c,65d6bb0e977760de756971f7,65d6bf13187b8f050d9ea6af,0.0319,0.0319,0,50,50,126,1,eightsix,,,,,,,,,,,,,,,,,,,,,,,,,,,,,,,,,,,,,,,,,,,,,,,,,,,,,,,,,,,,,,,,,,,,,,,,,,,,,,,,,,,,,,,,,,,,,,,,,,,,,,,,,,,,,,,,,,,,,,,,,,,,,,,,,,,,,,,,,
,,611d06624467771b706c520c,2024-02-22_05h27.48.764,kallum_motion_pilot,2023.2.2,Win32,60.60606061,611d06624467771b706c520c,65d6bb0e977760de756971f7,65d6bf13187b8f050d9ea6af,0.032,0.032,0,51,51,114,1,sixfive,,,,,,,,,,,,,,,,,,,,,,,,,,,,,,,,,,,,,,,,,,,,,,,,,,,,,,,,,,,,,,,,,,,,,,,,,,,,,,,,,,,,,,,,,,,,,,,,,,,,,,,,,,,,,,,,,,,,,,,,,,,,,,,,,,,,,,,,,
,,611d06624467771b706c520c,2024-02-22_05h27.48.764,kallum_motion_pilot,2023.2.2,Win32,60.60606061,611d06624467771b706c520c,65d6bb0e977760de756971f7,65d6bf13187b8f050d9ea6af,0.0321,0.0321,0,52,52,46,1,fourtwo,,,,,,,,,,,,,,,,,,,,,,,,,,,,,,,,,,,,,,,,,,,,,,,,,,,,,,,,,,,,,,,,,,,,,,,,,,,,,,,,,,,,,,,,,,,,,,,,,,,,,,,,,,,,,,,,,,,,,,,,,,,,,,,,,,,,,,,,,
,,611d06624467771b706c520c,2024-02-22_05h27.48.764,kallum_motion_pilot,2023.2.2,Win32,60.60606061,611d06624467771b706c520c,65d6bb0e977760de756971f7,65d6bf13187b8f050d9ea6af,0.0321,0.0322,0,53,53,31,1,fourthree,,,,,,,,,,,,,,,,,,,,,,,,,,,,,,,,,,,,,,,,,,,,,,,,,,,,,,,,,,,,,,,,,,,,,,,,,,,,,,,,,,,,,,,,,,,,,,,,,,,,,,,,,,,,,,,,,,,,,,,,,,,,,,,,,,,,,,,,,
,,611d06624467771b706c520c,2024-02-22_05h27.48.764,kallum_motion_pilot,2023.2.2,Win32,60.60606061,611d06624467771b706c520c,65d6bb0e977760de756971f7,65d6bf13187b8f050d9ea6af,0.0323,0.0323,0,54,54,10,1,twoone,,,,,,,,,,,,,,,,,,,,,,,,,,,,,,,,,,,,,,,,,,,,,,,,,,,,,,,,,,,,,,,,,,,,,,,,,,,,,,,,,,,,,,,,,,,,,,,,,,,,,,,,,,,,,,,,,,,,,,,,,,,,,,,,,,,,,,,,,
,,611d06624467771b706c520c,2024-02-22_05h27.48.764,kallum_motion_pilot,2023.2.2,Win32,60.60606061,611d06624467771b706c520c,65d6bb0e977760de756971f7,65d6bf13187b8f050d9ea6af,0.0323,0.0324,0,55,55,137,1,fiveseven,,,,,,,,,,,,,,,,,,,,,,,,,,,,,,,,,,,,,,,,,,,,,,,,,,,,,,,,,,,,,,,,,,,,,,,,,,,,,,,,,,,,,,,,,,,,,,,,,,,,,,,,,,,,,,,,,,,,,,,,,,,,,,,,,,,,,,,,,
,,611d06624467771b706c520c,2024-02-22_05h27.48.764,kallum_motion_pilot,2023.2.2,Win32,60.60606061,611d06624467771b706c520c,65d6bb0e977760de756971f7,65d6bf13187b8f050d9ea6af,0.0325,0.0325,0,56,56,56,1,onetwo,,,,,,,,,,,,,,,,,,,,,,,,,,,,,,,,,,,,,,,,,,,,,,,,,,,,,,,,,,,,,,,,,,,,,,,,,,,,,,,,,,,,,,,,,,,,,,,,,,,,,,,,,,,,,,,,,,,,,,,,,,,,,,,,,,,,,,,,,
,,611d06624467771b706c520c,2024-02-22_05h27.48.764,kallum_motion_pilot,2023.2.2,Win32,60.60606061,611d06624467771b706c520c,65d6bb0e977760de756971f7,65d6bf13187b8f050d9ea6af,0.0325,0.0326,0,57,57,87,1,eightseven,,,,,,,,,,,,,,,,,,,,,,,,,,,,,,,,,,,,,,,,,,,,,,,,,,,,,,,,,,,,,,,,,,,,,,,,,,,,,,,,,,,,,,,,,,,,,,,,,,,,,,,,,,,,,,,,,,,,,,,,,,,,,,,,,,,,,,,,,
,,611d06624467771b706c520c,2024-02-22_05h27.48.764,kallum_motion_pilot,2023.2.2,Win32,60.60606061,611d06624467771b706c520c,65d6bb0e977760de756971f7,65d6bf13187b8f050d9ea6af,0.0326,0.0326,0,58,58,74,1,twoone,,,,,,,,,,,,,,,,,,,,,,,,,,,,,,,,,,,,,,,,,,,,,,,,,,,,,,,,,,,,,,,,,,,,,,,,,,,,,,,,,,,,,,,,,,,,,,,,,,,,,,,,,,,,,,,,,,,,,,,,,,,,,,,,,,,,,,,,,
,,611d06624467771b706c520c,2024-02-22_05h27.48.764,kallum_motion_pilot,2023.2.2,Win32,60.60606061,611d06624467771b706c520c,65d6bb0e977760de756971f7,65d6bf13187b8f050d9ea6af,0.0327,0.0327,0,59,59,37,1,threefour,,,,,,,,,,,,,,,,,,,,,,,,,,,,,,,,,,,,,,,,,,,,,,,,,,,,,,,,,,,,,,,,,,,,,,,,,,,,,,,,,,,,,,,,,,,,,,,,,,,,,,,,,,,,,,,,,,,,,,,,,,,,,,,,,,,,,,,,,
,,611d06624467771b706c520c,2024-02-22_05h27.48.764,kallum_motion_pilot,2023.2.2,Win32,60.60606061,611d06624467771b706c520c,65d6bb0e977760de756971f7,65d6bf13187b8f050d9ea6af,0.0328,0.0328,0,60,60,161,1,fiveseven,,,,,,,,,,,,,,,,,,,,,,,,,,,,,,,,,,,,,,,,,,,,,,,,,,,,,,,,,,,,,,,,,,,,,,,,,,,,,,,,,,,,,,,,,,,,,,,,,,,,,,,,,,,,,,,,,,,,,,,,,,,,,,,,,,,,,,,,,
,,611d06624467771b706c520c,2024-02-22_05h27.48.764,kallum_motion_pilot,2023.2.2,Win32,60.60606061,611d06624467771b706c520c,65d6bb0e977760de756971f7,65d6bf13187b8f050d9ea6af,0.033,0.033,0,61,61,12,1,threeone,,,,,,,,,,,,,,,,,,,,,,,,,,,,,,,,,,,,,,,,,,,,,,,,,,,,,,,,,,,,,,,,,,,,,,,,,,,,,,,,,,,,,,,,,,,,,,,,,,,,,,,,,,,,,,,,,,,,,,,,,,,,,,,,,,,,,,,,,
,,611d06624467771b706c520c,2024-02-22_05h27.48.764,kallum_motion_pilot,2023.2.2,Win32,60.60606061,611d06624467771b706c520c,65d6bb0e977760de756971f7,65d6bf13187b8f050d9ea6af,0.0331,0.0331,0,62,62,133,1,seveneight,,,,,,,,,,,,,,,,,,,,,,,,,,,,,,,,,,,,,,,,,,,,,,,,,,,,,,,,,,,,,,,,,,,,,,,,,,,,,,,,,,,,,,,,,,,,,,,,,,,,,,,,,,,,,,,,,,,,,,,,,,,,,,,,,,,,,,,,,
,,611d06624467771b706c520c,2024-02-22_05h27.48.764,kallum_motion_pilot,2023.2.2,Win32,60.60606061,611d06624467771b706c520c,65d6bb0e977760de756971f7,65d6bf13187b8f050d9ea6af,0.0331,0.0332,0,63,63,55,1,fourthree,,,,,,,,,,,,,,,,,,,,,,,,,,,,,,,,,,,,,,,,,,,,,,,,,,,,,,,,,,,,,,,,,,,,,,,,,,,,,,,,,,,,,,,,,,,,,,,,,,,,,,,,,,,,,,,,,,,,,,,,,,,,,,,,,,,,,,,,,
,,611d06624467771b706c520c,2024-02-22_05h27.48.764,kallum_motion_pilot,2023.2.2,Win32,60.60606061,611d06624467771b706c520c,65d6bb0e977760de756971f7,65d6bf13187b8f050d9ea6af,0.0333,0.0333,0,64,64,49,1,onethree,,,,,,,,,,,,,,,,,,,,,,,,,,,,,,,,,,,,,,,,,,,,,,,,,,,,,,,,,,,,,,,,,,,,,,,,,,,,,,,,,,,,,,,,,,,,,,,,,,,,,,,,,,,,,,,,,,,,,,,,,,,,,,,,,,,,,,,,,
,,611d06624467771b706c520c,2024-02-22_05h27.48.764,kallum_motion_pilot,2023.2.2,Win32,60.60606061,611d06624467771b706c520c,65d6bb0e977760de756971f7,65d6bf13187b8f050d9ea6af,0.0334,0.0334,0,65,65,27,1,twofour,,,,,,,,,,,,,,,,,,,,,,,,,,,,,,,,,,,,,,,,,,,,,,,,,,,,,,,,,,,,,,,,,,,,,,,,,,,,,,,,,,,,,,,,,,,,,,,,,,,,,,,,,,,,,,,,,,,,,,,,,,,,,,,,,,,,,,,,,
,,611d06624467771b706c520c,2024-02-22_05h27.48.764,kallum_motion_pilot,2023.2.2,Win32,60.60606061,611d06624467771b706c520c,65d6bb0e977760de756971f7,65d6bf13187b8f050d9ea6af,0.0335,0.0336,0,66,66,7,1,fourthree,,,,,,,,,,,,,,,,,,,,,,,,,,,,,,,,,,,,,,,,,,,,,,,,,,,,,,,,,,,,,,,,,,,,,,,,,,,,,,,,,,,,,,,,,,,,,,,,,,,,,,,,,,,,,,,,,,,,,,,,,,,,,,,,,,,,,,,,,
,,611d06624467771b706c520c,2024-02-22_05h27.48.764,kallum_motion_pilot,2023.2.2,Win32,60.60606061,611d06624467771b706c520c,65d6bb0e977760de756971f7,65d6bf13187b8f050d9ea6af,0.0337,0.0337,0,67,67,120,1,fivesix,,,,,,,,,,,,,,,,,,,,,,,,,,,,,,,,,,,,,,,,,,,,,,,,,,,,,,,,,,,,,,,,,,,,,,,,,,,,,,,,,,,,,,,,,,,,,,,,,,,,,,,,,,,,,,,,,,,,,,,,,,,,,,,,,,,,,,,,,
,,611d06624467771b706c520c,2024-02-22_05h27.48.764,kallum_motion_pilot,2023.2.2,Win32,60.60606061,611d06624467771b706c520c,65d6bb0e977760de756971f7,65d6bf13187b8f050d9ea6af,0.0337,0.0338,0,68,68,75,1,twofour,,,,,,,,,,,,,,,,,,,,,,,,,,,,,,,,,,,,,,,,,,,,,,,,,,,,,,,,,,,,,,,,,,,,,,,,,,,,,,,,,,,,,,,,,,,,,,,,,,,,,,,,,,,,,,,,,,,,,,,,,,,,,,,,,,,,,,,,,
,,611d06624467771b706c520c,2024-02-22_05h27.48.764,kallum_motion_pilot,2023.2.2,Win32,60.60606061,611d06624467771b706c520c,65d6bb0e977760de756971f7,65d6bf13187b8f050d9ea6af,0.0339,0.0339,0,69,69,140,1,sevenfive,,,,,,,,,,,,,,,,,,,,,,,,,,,,,,,,,,,,,,,,,,,,,,,,,,,,,,,,,,,,,,,,,,,,,,,,,,,,,,,,,,,,,,,,,,,,,,,,,,,,,,,,,,,,,,,,,,,,,,,,,,,,,,,,,,,,,,,,,
,,611d06624467771b706c520c,2024-02-22_05h27.48.764,kallum_motion_pilot,2023.2.2,Win32,60.60606061,611d06624467771b706c520c,65d6bb0e977760de756971f7,65d6bf13187b8f050d9ea6af,0.0339,0.034,0,70,70,42,1,twoone,,,,,,,,,,,,,,,,,,,,,,,,,,,,,,,,,,,,,,,,,,,,,,,,,,,,,,,,,,,,,,,,,,,,,,,,,,,,,,,,,,,,,,,,,,,,,,,,,,,,,,,,,,,,,,,,,,,,,,,,,,,,,,,,,,,,,,,,,
,,611d06624467771b706c520c,2024-02-22_05h27.48.764,kallum_motion_pilot,2023.2.2,Win32,60.60606061,611d06624467771b706c520c,65d6bb0e977760de756971f7,65d6bf13187b8f050d9ea6af,0.0342,0.0343,0,71,71,40,1,onetwo,,,,,,,,,,,,,,,,,,,,,,,,,,,,,,,,,,,,,,,,,,,,,,,,,,,,,,,,,,,,,,,,,,,,,,,,,,,,,,,,,,,,,,,,,,,,,,,,,,,,,,,,,,,,,,,,,,,,,,,,,,,,,,,,,,,,,,,,,
,,611d06624467771b706c520c,2024-02-22_05h27.48.764,kallum_motion_pilot,2023.2.2,Win32,60.60606061,611d06624467771b706c520c,65d6bb0e977760de756971f7,65d6bf13187b8f050d9ea6af,0.0345,0.0346,0,72,72,131,1,sixeight,,,,,,,,,,,,,,,,,,,,,,,,,,,,,,,,,,,,,,,,,,,,,,,,,,,,,,,,,,,,,,,,,,,,,,,,,,,,,,,,,,,,,,,,,,,,,,,,,,,,,,,,,,,,,,,,,,,,,,,,,,,,,,,,,,,,,,,,,
,,611d06624467771b706c520c,2024-02-22_05h27.48.764,kallum_motion_pilot,2023.2.2,Win32,60.60606061,611d06624467771b706c520c,65d6bb0e977760de756971f7,65d6bf13187b8f050d9ea6af,0.0348,0.0349,0,73,73,96,1,fivesix,,,,,,,,,,,,,,,,,,,,,,,,,,,,,,,,,,,,,,,,,,,,,,,,,,,,,,,,,,,,,,,,,,,,,,,,,,,,,,,,,,,,,,,,,,,,,,,,,,,,,,,,,,,,,,,,,,,,,,,,,,,,,,,,,,,,,,,,,
,,611d06624467771b706c520c,2024-02-22_05h27.48.764,kallum_motion_pilot,2023.2.2,Win32,60.60606061,611d06624467771b706c520c,65d6bb0e977760de756971f7,65d6bf13187b8f050d9ea6af,0.035,0.0351,0,74,74,17,1,onethree,,,,,,,,,,,,,,,,,,,,,,,,,,,,,,,,,,,,,,,,,,,,,,,,,,,,,,,,,,,,,,,,,,,,,,,,,,,,,,,,,,,,,,,,,,,,,,,,,,,,,,,,,,,,,,,,,,,,,,,,,,,,,,,,,,,,,,,,,
,,611d06624467771b706c520c,2024-02-22_05h27.48.764,kallum_motion_pilot,2023.2.2,Win32,60.60606061,611d06624467771b706c520c,65d6bb0e977760de756971f7,65d6bf13187b8f050d9ea6af,0.0352,0.0353,0,75,75,85,1,seveneight,,,,,,,,,,,,,,,,,,,,,,,,,,,,,,,,,,,,,,,,,,,,,,,,,,,,,,,,,,,,,,,,,,,,,,,,,,,,,,,,,,,,,,,,,,,,,,,,,,,,,,,,,,,,,,,,,,,,,,,,,,,,,,,,,,,,,,,,,
,,611d06624467771b706c520c,2024-02-22_05h27.48.764,kallum_motion_pilot,2023.2.2,Win32,60.60606061,611d06624467771b706c520c,65d6bb0e977760de756971f7,65d6bf13187b8f050d9ea6af,0.0354,0.0355,0,76,76,122,1,sixfive,,,,,,,,,,,,,,,,,,,,,,,,,,,,,,,,,,,,,,,,,,,,,,,,,,,,,,,,,,,,,,,,,,,,,,,,,,,,,,,,,,,,,,,,,,,,,,,,,,,,,,,,,,,,,,,,,,,,,,,,,,,,,,,,,,,,,,,,,
,,611d06624467771b706c520c,2024-02-22_05h27.48.764,kallum_motion_pilot,2023.2.2,Win32,60.60606061,611d06624467771b706c520c,65d6bb0e977760de756971f7,65d6bf13187b8f050d9ea6af,0.0356,0.0357,0,77,77,106,1,sixfive,,,,,,,,,,,,,,,,,,,,,,,,,,,,,,,,,,,,,,,,,,,,,,,,,,,,,,,,,,,,,,,,,,,,,,,,,,,,,,,,,,,,,,,,,,,,,,,,,,,,,,,,,,,,,,,,,,,,,,,,,,,,,,,,,,,,,,,,,
,,611d06624467771b706c520c,2024-02-22_05h27.48.764,kallum_motion_pilot,2023.2.2,Win32,60.60606061,611d06624467771b706c520c,65d6bb0e977760de756971f7,65d6bf13187b8f050d9ea6af,0.0358,0.0359,0,78,78,62,1,fourtwo,,,,,,,,,,,,,,,,,,,,,,,,,,,,,,,,,,,,,,,,,,,,,,,,,,,,,,,,,,,,,,,,,,,,,,,,,,,,,,,,,,,,,,,,,,,,,,,,,,,,,,,,,,,,,,,,,,,,,,,,,,,,,,,,,,,,,,,,,
,,611d06624467771b706c520c,2024-02-22_05h27.48.764,kallum_motion_pilot,2023.2.2,Win32,60.60606061,611d06624467771b706c520c,65d6bb0e977760de756971f7,65d6bf13187b8f050d9ea6af,0.036,0.036,0,79,79,6,1,fourtwo,,,,,,,,,,,,,,,,,,,,,,,,,,,,,,,,,,,,,,,,,,,,,,,,,,,,,,,,,,,,,,,,,,,,,,,,,,,,,,,,,,,,,,,,,,,,,,,,,,,,,,,,,,,,,,,,,,,,,,,,,,,,,,,,,,,,,,,,,
,,611d06624467771b706c520c,2024-02-22_05h27.48.764,kallum_motion_pilot,2023.2.2,Win32,60.60606061,611d06624467771b706c520c,65d6bb0e977760de756971f7,65d6bf13187b8f050d9ea6af,0.0361,0.0361,0,80,80,35,1,twofour,,,,,,,,,,,,,,,,,,,,,,,,,,,,,,,,,,,,,,,,,,,,,,,,,,,,,,,,,,,,,,,,,,,,,,,,,,,,,,,,,,,,,,,,,,,,,,,,,,,,,,,,,,,,,,,,,,,,,,,,,,,,,,,,,,,,,,,,,
,,611d06624467771b706c520c,2024-02-22_05h27.48.764,kallum_motion_pilot,2023.2.2,Win32,60.60606061,611d06624467771b706c520c,65d6bb0e977760de756971f7,65d6bf13187b8f050d9ea6af,0.0362,0.0363,0,81,81,13,1,threefour,,,,,,,,,,,,,,,,,,,,,,,,,,,,,,,,,,,,,,,,,,,,,,,,,,,,,,,,,,,,,,,,,,,,,,,,,,,,,,,,,,,,,,,,,,,,,,,,,,,,,,,,,,,,,,,,,,,,,,,,,,,,,,,,,,,,,,,,,
,,611d06624467771b706c520c,2024-02-22_05h27.48.764,kallum_motion_pilot,2023.2.2,Win32,60.60606061,611d06624467771b706c520c,65d6bb0e977760de756971f7,65d6bf13187b8f050d9ea6af,0.0363,0.0363,0,82,82,159,1,eightseven,,,,,,,,,,,,,,,,,,,,,,,,,,,,,,,,,,,,,,,,,,,,,,,,,,,,,,,,,,,,,,,,,,,,,,,,,,,,,,,,,,,,,,,,,,,,,,,,,,,,,,,,,,,,,,,,,,,,,,,,,,,,,,,,,,,,,,,,,
,,611d06624467771b706c520c,2024-02-22_05h27.48.764,kallum_motion_pilot,2023.2.2,Win32,60.60606061,611d06624467771b706c520c,65d6bb0e977760de756971f7,65d6bf13187b8f050d9ea6af,0.0364,0.0364,0,83,83,104,1,fivesix,,,,,,,,,,,,,,,,,,,,,,,,,,,,,,,,,,,,,,,,,,,,,,,,,,,,,,,,,,,,,,,,,,,,,,,,,,,,,,,,,,,,,,,,,,,,,,,,,,,,,,,,,,,,,,,,,,,,,,,,,,,,,,,,,,,,,,,,,
,,611d06624467771b706c520c,2024-02-22_05h27.48.764,kallum_motion_pilot,2023.2.2,Win32,60.60606061,611d06624467771b706c520c,65d6bb0e977760de756971f7,65d6bf13187b8f050d9ea6af,0.0368,0.0368,0,84,84,64,1,onetwo,,,,,,,,,,,,,,,,,,,,,,,,,,,,,,,,,,,,,,,,,,,,,,,,,,,,,,,,,,,,,,,,,,,,,,,,,,,,,,,,,,,,,,,,,,,,,,,,,,,,,,,,,,,,,,,,,,,,,,,,,,,,,,,,,,,,,,,,,
,,611d06624467771b706c520c,2024-02-22_05h27.48.764,kallum_motion_pilot,2023.2.2,Win32,60.60606061,611d06624467771b706c520c,65d6bb0e977760de756971f7,65d6bf13187b8f050d9ea6af,0.0372,0.0373,0,85,85,111,1,eightseven,,,,,,,,,,,,,,,,,,,,,,,,,,,,,,,,,,,,,,,,,,,,,,,,,,,,,,,,,,,,,,,,,,,,,,,,,,,,,,,,,,,,,,,,,,,,,,,,,,,,,,,,,,,,,,,,,,,,,,,,,,,,,,,,,,,,,,,,,
,,611d06624467771b706c520c,2024-02-22_05h27.48.764,kallum_motion_pilot,2023.2.2,Win32,60.60606061,611d06624467771b706c520c,65d6bb0e977760de756971f7,65d6bf13187b8f050d9ea6af,0.0376,0.0377,0,86,86,154,1,sixfive,,,,,,,,,,,,,,,,,,,,,,,,,,,,,,,,,,,,,,,,,,,,,,,,,,,,,,,,,,,,,,,,,,,,,,,,,,,,,,,,,,,,,,,,,,,,,,,,,,,,,,,,,,,,,,,,,,,,,,,,,,,,,,,,,,,,,,,,,
,,611d06624467771b706c520c,2024-02-22_05h27.48.764,kallum_motion_pilot,2023.2.2,Win32,60.60606061,611d06624467771b706c520c,65d6bb0e977760de756971f7,65d6bf13187b8f050d9ea6af,0.0379,0.0379,0,87,87,58,1,twoone,,,,,,,,,,,,,,,,,,,,,,,,,,,,,,,,,,,,,,,,,,,,,,,,,,,,,,,,,,,,,,,,,,,,,,,,,,,,,,,,,,,,,,,,,,,,,,,,,,,,,,,,,,,,,,,,,,,,,,,,,,,,,,,,,,,,,,,,,
,,611d06624467771b706c520c,2024-02-22_05h27.48.764,kallum_motion_pilot,2023.2.2,Win32,60.60606061,611d06624467771b706c520c,65d6bb0e977760de756971f7,65d6bf13187b8f050d9ea6af,0.0381,0.0381,0,88,88,83,1,sixeight,,,,,,,,,,,,,,,,,,,,,,,,,,,,,,,,,,,,,,,,,,,,,,,,,,,,,,,,,,,,,,,,,,,,,,,,,,,,,,,,,,,,,,,,,,,,,,,,,,,,,,,,,,,,,,,,,,,,,,,,,,,,,,,,,,,,,,,,,
,,611d06624467771b706c520c,2024-02-22_05h27.48.764,kallum_motion_pilot,2023.2.2,Win32,60.60606061,611d06624467771b706c520c,65d6bb0e977760de756971f7,65d6bf13187b8f050d9ea6af,0.0382,0.0383,0,89,89,41,1,onethree,,,,,,,,,,,,,,,,,,,,,,,,,,,,,,,,,,,,,,,,,,,,,,,,,,,,,,,,,,,,,,,,,,,,,,,,,,,,,,,,,,,,,,,,,,,,,,,,,,,,,,,,,,,,,,,,,,,,,,,,,,,,,,,,,,,,,,,,,
,,611d06624467771b706c520c,2024-02-22_05h27.48.764,kallum_motion_pilot,2023.2.2,Win32,60.60606061,611d06624467771b706c520c,65d6bb0e977760de756971f7,65d6bf13187b8f050d9ea6af,0.0385,0.0385,0,90,90,3,1,twofour,,,,,,,,,,,,,,,,,,,,,,,,,,,,,,,,,,,,,,,,,,,,,,,,,,,,,,,,,,,,,,,,,,,,,,,,,,,,,,,,,,,,,,,,,,,,,,,,,,,,,,,,,,,,,,,,,,,,,,,,,,,,,,,,,,,,,,,,,
,,611d06624467771b706c520c,2024-02-22_05h27.48.764,kallum_motion_pilot,2023.2.2,Win32,60.60606061,611d06624467771b706c520c,65d6bb0e977760de756971f7,65d6bf13187b8f050d9ea6af,0.0385,0.0386,0,91,91,108,1,sevenfive,,,,,,,,,,,,,,,,,,,,,,,,,,,,,,,,,,,,,,,,,,,,,,,,,,,,,,,,,,,,,,,,,,,,,,,,,,,,,,,,,,,,,,,,,,,,,,,,,,,,,,,,,,,,,,,,,,,,,,,,,,,,,,,,,,,,,,,,,
,,611d06624467771b706c520c,2024-02-22_05h27.48.764,kallum_motion_pilot,2023.2.2,Win32,60.60606061,611d06624467771b706c520c,65d6bb0e977760de756971f7,65d6bf13187b8f050d9ea6af,0.0386,0.0387,0,92,92,153,1,fiveseven,,,,,,,,,,,,,,,,,,,,,,,,,,,,,,,,,,,,,,,,,,,,,,,,,,,,,,,,,,,,,,,,,,,,,,,,,,,,,,,,,,,,,,,,,,,,,,,,,,,,,,,,,,,,,,,,,,,,,,,,,,,,,,,,,,,,,,,,,
,,611d06624467771b706c520c,2024-02-22_05h27.48.764,kallum_motion_pilot,2023.2.2,Win32,60.60606061,611d06624467771b706c520c,65d6bb0e977760de756971f7,65d6bf13187b8f050d9ea6af,0.0388,0.0388,0,93,93,4,1,threeone,,,,,,,,,,,,,,,,,,,,,,,,,,,,,,,,,,,,,,,,,,,,,,,,,,,,,,,,,,,,,,,,,,,,,,,,,,,,,,,,,,,,,,,,,,,,,,,,,,,,,,,,,,,,,,,,,,,,,,,,,,,,,,,,,,,,,,,,,
,,611d06624467771b706c520c,2024-02-22_05h27.48.764,kallum_motion_pilot,2023.2.2,Win32,60.60606061,611d06624467771b706c520c,65d6bb0e977760de756971f7,65d6bf13187b8f050d9ea6af,0.0389,0.039,0,94,94,71,1,fourthree,,,,,,,,,,,,,,,,,,,,,,,,,,,,,,,,,,,,,,,,,,,,,,,,,,,,,,,,,,,,,,,,,,,,,,,,,,,,,,,,,,,,,,,,,,,,,,,,,,,,,,,,,,,,,,,,,,,,,,,,,,,,,,,,,,,,,,,,,
,,611d06624467771b706c520c,2024-02-22_05h27.48.764,kallum_motion_pilot,2023.2.2,Win32,60.60606061,611d06624467771b706c520c,65d6bb0e977760de756971f7,65d6bf13187b8f050d9ea6af,0.0391,0.0391,0,95,95,60,1,threeone,,,,,,,,,,,,,,,,,,,,,,,,,,,,,,,,,,,,,,,,,,,,,,,,,,,,,,,,,,,,,,,,,,,,,,,,,,,,,,,,,,,,,,,,,,,,,,,,,,,,,,,,,,,,,,,,,,,,,,,,,,,,,,,,,,,,,,,,,
,,611d06624467771b706c520c,2024-02-22_05h27.48.764,kallum_motion_pilot,2023.2.2,Win32,60.60606061,611d06624467771b706c520c,65d6bb0e977760de756971f7,65d6bf13187b8f050d9ea6af,0.0392,0.0392,0,96,96,152,1,fivesix,,,,,,,,,,,,,,,,,,,,,,,,,,,,,,,,,,,,,,,,,,,,,,,,,,,,,,,,,,,,,,,,,,,,,,,,,,,,,,,,,,,,,,,,,,,,,,,,,,,,,,,,,,,,,,,,,,,,,,,,,,,,,,,,,,,,,,,,,
,,611d06624467771b706c520c,2024-02-22_05h27.48.764,kallum_motion_pilot,2023.2.2,Win32,60.60606061,611d06624467771b706c520c,65d6bb0e977760de756971f7,65d6bf13187b8f050d9ea6af,0.0393,0.0393,0,97,97,110,1,eightsix,,,,,,,,,,,,,,,,,,,,,,,,,,,,,,,,,,,,,,,,,,,,,,,,,,,,,,,,,,,,,,,,,,,,,,,,,,,,,,,,,,,,,,,,,,,,,,,,,,,,,,,,,,,,,,,,,,,,,,,,,,,,,,,,,,,,,,,,,
,,611d06624467771b706c520c,2024-02-22_05h27.48.764,kallum_motion_pilot,2023.2.2,Win32,60.60606061,611d06624467771b706c520c,65d6bb0e977760de756971f7,65d6bf13187b8f050d9ea6af,0.0393,0.0394,0,98,98,148,1,sevenfive,,,,,,,,,,,,,,,,,,,,,,,,,,,,,,,,,,,,,,,,,,,,,,,,,,,,,,,,,,,,,,,,,,,,,,,,,,,,,,,,,,,,,,,,,,,,,,,,,,,,,,,,,,,,,,,,,,,,,,,,,,,,,,,,,,,,,,,,,
,,611d06624467771b706c520c,2024-02-22_05h27.48.764,kallum_motion_pilot,2023.2.2,Win32,60.60606061,611d06624467771b706c520c,65d6bb0e977760de756971f7,65d6bf13187b8f050d9ea6af,0.0395,0.0395,0,99,99,160,1,fivesix,,,,,,,,,,,,,,,,,,,,,,,,,,,,,,,,,,,,,,,,,,,,,,,,,,,,,,,,,,,,,,,,,,,,,,,,,,,,,,,,,,,,,,,,,,,,,,,,,,,,,,,,,,,,,,,,,,,,,,,,,,,,,,,,,,,,,,,,,
,,611d06624467771b706c520c,2024-02-22_05h27.48.764,kallum_motion_pilot,2023.2.2,Win32,60.60606061,611d06624467771b706c520c,65d6bb0e977760de756971f7,65d6bf13187b8f050d9ea6af,0.0396,0.0396,0,100,100,30,1,fourtwo,,,,,,,,,,,,,,,,,,,,,,,,,,,,,,,,,,,,,,,,,,,,,,,,,,,,,,,,,,,,,,,,,,,,,,,,,,,,,,,,,,,,,,,,,,,,,,,,,,,,,,,,,,,,,,,,,,,,,,,,,,,,,,,,,,,,,,,,,
,,611d06624467771b706c520c,2024-02-22_05h27.48.764,kallum_motion_pilot,2023.2.2,Win32,60.60606061,611d06624467771b706c520c,65d6bb0e977760de756971f7,65d6bf13187b8f050d9ea6af,0.0398,0.0398,0,101,101,84,1,sevenfive,,,,,,,,,,,,,,,,,,,,,,,,,,,,,,,,,,,,,,,,,,,,,,,,,,,,,,,,,,,,,,,,,,,,,,,,,,,,,,,,,,,,,,,,,,,,,,,,,,,,,,,,,,,,,,,,,,,,,,,,,,,,,,,,,,,,,,,,,
,,611d06624467771b706c520c,2024-02-22_05h27.48.764,kallum_motion_pilot,2023.2.2,Win32,60.60606061,611d06624467771b706c520c,65d6bb0e977760de756971f7,65d6bf13187b8f050d9ea6af,0.0399,0.0399,0,102,102,128,1,fivesix,,,,,,,,,,,,,,,,,,,,,,,,,,,,,,,,,,,,,,,,,,,,,,,,,,,,,,,,,,,,,,,,,,,,,,,,,,,,,,,,,,,,,,,,,,,,,,,,,,,,,,,,,,,,,,,,,,,,,,,,,,,,,,,,,,,,,,,,,
,,611d06624467771b706c520c,2024-02-22_05h27.48.764,kallum_motion_pilot,2023.2.2,Win32,60.60606061,611d06624467771b706c520c,65d6bb0e977760de756971f7,65d6bf13187b8f050d9ea6af,0.0399,0.0401,0,103,103,80,1,fivesix,,,,,,,,,,,,,,,,,,,,,,,,,,,,,,,,,,,,,,,,,,,,,,,,,,,,,,,,,,,,,,,,,,,,,,,,,,,,,,,,,,,,,,,,,,,,,,,,,,,,,,,,,,,,,,,,,,,,,,,,,,,,,,,,,,,,,,,,,
,,611d06624467771b706c520c,2024-02-22_05h27.48.764,kallum_motion_pilot,2023.2.2,Win32,60.60606061,611d06624467771b706c520c,65d6bb0e977760de756971f7,65d6bf13187b8f050d9ea6af,0.0402,0.0402,0,104,104,67,1,twofour,,,,,,,,,,,,,,,,,,,,,,,,,,,,,,,,,,,,,,,,,,,,,,,,,,,,,,,,,,,,,,,,,,,,,,,,,,,,,,,,,,,,,,,,,,,,,,,,,,,,,,,,,,,,,,,,,,,,,,,,,,,,,,,,,,,,,,,,,
,,611d06624467771b706c520c,2024-02-22_05h27.48.764,kallum_motion_pilot,2023.2.2,Win32,60.60606061,611d06624467771b706c520c,65d6bb0e977760de756971f7,65d6bf13187b8f050d9ea6af,0.0402,0.0403,0,105,105,124,1,sevenfive,,,,,,,,,,,,,,,,,,,,,,,,,,,,,,,,,,,,,,,,,,,,,,,,,,,,,,,,,,,,,,,,,,,,,,,,,,,,,,,,,,,,,,,,,,,,,,,,,,,,,,,,,,,,,,,,,,,,,,,,,,,,,,,,,,,,,,,,,
,,611d06624467771b706c520c,2024-02-22_05h27.48.764,kallum_motion_pilot,2023.2.2,Win32,60.60606061,611d06624467771b706c520c,65d6bb0e977760de756971f7,65d6bf13187b8f050d9ea6af,0.0403,0.0404,0,106,106,59,1,twofour,,,,,,,,,,,,,,,,,,,,,,,,,,,,,,,,,,,,,,,,,,,,,,,,,,,,,,,,,,,,,,,,,,,,,,,,,,,,,,,,,,,,,,,,,,,,,,,,,,,,,,,,,,,,,,,,,,,,,,,,,,,,,,,,,,,,,,,,,
,,611d06624467771b706c520c,2024-02-22_05h27.48.764,kallum_motion_pilot,2023.2.2,Win32,60.60606061,611d06624467771b706c520c,65d6bb0e977760de756971f7,65d6bf13187b8f050d9ea6af,0.0405,0.0405,0,107,107,157,1,seveneight,,,,,,,,,,,,,,,,,,,,,,,,,,,,,,,,,,,,,,,,,,,,,,,,,,,,,,,,,,,,,,,,,,,,,,,,,,,,,,,,,,,,,,,,,,,,,,,,,,,,,,,,,,,,,,,,,,,,,,,,,,,,,,,,,,,,,,,,,
,,611d06624467771b706c520c,2024-02-22_05h27.48.764,kallum_motion_pilot,2023.2.2,Win32,60.60606061,611d06624467771b706c520c,65d6bb0e977760de756971f7,65d6bf13187b8f050d9ea6af,0.0406,0.0406,0,108,108,94,1,eightsix,,,,,,,,,,,,,,,,,,,,,,,,,,,,,,,,,,,,,,,,,,,,,,,,,,,,,,,,,,,,,,,,,,,,,,,,,,,,,,,,,,,,,,,,,,,,,,,,,,,,,,,,,,,,,,,,,,,,,,,,,,,,,,,,,,,,,,,,,
,,611d06624467771b706c520c,2024-02-22_05h27.48.764,kallum_motion_pilot,2023.2.2,Win32,60.60606061,611d06624467771b706c520c,65d6bb0e977760de756971f7,65d6bf13187b8f050d9ea6af,0.0407,0.0407,0,109,109,39,1,fourthree,,,,,,,,,,,,,,,,,,,,,,,,,,,,,,,,,,,,,,,,,,,,,,,,,,,,,,,,,,,,,,,,,,,,,,,,,,,,,,,,,,,,,,,,,,,,,,,,,,,,,,,,,,,,,,,,,,,,,,,,,,,,,,,,,,,,,,,,,
,,611d06624467771b706c520c,2024-02-22_05h27.48.764,kallum_motion_pilot,2023.2.2,Win32,60.60606061,611d06624467771b706c520c,65d6bb0e977760de756971f7,65d6bf13187b8f050d9ea6af,0.0407,0.0408,0,110,110,130,1,sixfive,,,,,,,,,,,,,,,,,,,,,,,,,,,,,,,,,,,,,,,,,,,,,,,,,,,,,,,,,,,,,,,,,,,,,,,,,,,,,,,,,,,,,,,,,,,,,,,,,,,,,,,,,,,,,,,,,,,,,,,,,,,,,,,,,,,,,,,,,
,,611d06624467771b706c520c,2024-02-22_05h27.48.764,kallum_motion_pilot,2023.2.2,Win32,60.60606061,611d06624467771b706c520c,65d6bb0e977760de756971f7,65d6bf13187b8f050d9ea6af,0.0409,0.041,0,111,111,151,1,eightseven,,,,,,,,,,,,,,,,,,,,,,,,,,,,,,,,,,,,,,,,,,,,,,,,,,,,,,,,,,,,,,,,,,,,,,,,,,,,,,,,,,,,,,,,,,,,,,,,,,,,,,,,,,,,,,,,,,,,,,,,,,,,,,,,,,,,,,,,,
,,611d06624467771b706c520c,2024-02-22_05h27.48.764,kallum_motion_pilot,2023.2.2,Win32,60.60606061,611d06624467771b706c520c,65d6bb0e977760de756971f7,65d6bf13187b8f050d9ea6af,0.0411,0.0411,0,112,112,5,1,threefour,,,,,,,,,,,,,,,,,,,,,,,,,,,,,,,,,,,,,,,,,,,,,,,,,,,,,,,,,,,,,,,,,,,,,,,,,,,,,,,,,,,,,,,,,,,,,,,,,,,,,,,,,,,,,,,,,,,,,,,,,,,,,,,,,,,,,,,,,
,,611d06624467771b706c520c,2024-02-22_05h27.48.764,kallum_motion_pilot,2023.2.2,Win32,60.60606061,611d06624467771b706c520c,65d6bb0e977760de756971f7,65d6bf13187b8f050d9ea6af,0.0411,0.0413,0,113,113,29,1,threefour,,,,,,,,,,,,,,,,,,,,,,,,,,,,,,,,,,,,,,,,,,,,,,,,,,,,,,,,,,,,,,,,,,,,,,,,,,,,,,,,,,,,,,,,,,,,,,,,,,,,,,,,,,,,,,,,,,,,,,,,,,,,,,,,,,,,,,,,,
,,611d06624467771b706c520c,2024-02-22_05h27.48.764,kallum_motion_pilot,2023.2.2,Win32,60.60606061,611d06624467771b706c520c,65d6bb0e977760de756971f7,65d6bf13187b8f050d9ea6af,0.0413,0.0414,0,114,114,77,1,threefour,,,,,,,,,,,,,,,,,,,,,,,,,,,,,,,,,,,,,,,,,,,,,,,,,,,,,,,,,,,,,,,,,,,,,,,,,,,,,,,,,,,,,,,,,,,,,,,,,,,,,,,,,,,,,,,,,,,,,,,,,,,,,,,,,,,,,,,,,
,,611d06624467771b706c520c,2024-02-22_05h27.48.764,kallum_motion_pilot,2023.2.2,Win32,60.60606061,611d06624467771b706c520c,65d6bb0e977760de756971f7,65d6bf13187b8f050d9ea6af,0.0414,0.0415,0,115,115,1,1,onethree,,,,,,,,,,,,,,,,,,,,,,,,,,,,,,,,,,,,,,,,,,,,,,,,,,,,,,,,,,,,,,,,,,,,,,,,,,,,,,,,,,,,,,,,,,,,,,,,,,,,,,,,,,,,,,,,,,,,,,,,,,,,,,,,,,,,,,,,,
,,611d06624467771b706c520c,2024-02-22_05h27.48.764,kallum_motion_pilot,2023.2.2,Win32,60.60606061,611d06624467771b706c520c,65d6bb0e977760de756971f7,65d6bf13187b8f050d9ea6af,0.0416,0.0416,0,116,116,24,1,onetwo,,,,,,,,,,,,,,,,,,,,,,,,,,,,,,,,,,,,,,,,,,,,,,,,,,,,,,,,,,,,,,,,,,,,,,,,,,,,,,,,,,,,,,,,,,,,,,,,,,,,,,,,,,,,,,,,,,,,,,,,,,,,,,,,,,,,,,,,,
,,611d06624467771b706c520c,2024-02-22_05h27.48.764,kallum_motion_pilot,2023.2.2,Win32,60.60606061,611d06624467771b706c520c,65d6bb0e977760de756971f7,65d6bf13187b8f050d9ea6af,0.0417,0.0418,0,117,117,135,1,eightseven,,,,,,,,,,,,,,,,,,,,,,,,,,,,,,,,,,,,,,,,,,,,,,,,,,,,,,,,,,,,,,,,,,,,,,,,,,,,,,,,,,,,,,,,,,,,,,,,,,,,,,,,,,,,,,,,,,,,,,,,,,,,,,,,,,,,,,,,,
,,611d06624467771b706c520c,2024-02-22_05h27.48.764,kallum_motion_pilot,2023.2.2,Win32,60.60606061,611d06624467771b706c520c,65d6bb0e977760de756971f7,65d6bf13187b8f050d9ea6af,0.0418,0.0418,0,118,118,143,1,eightseven,,,,,,,,,,,,,,,,,,,,,,,,,,,,,,,,,,,,,,,,,,,,,,,,,,,,,,,,,,,,,,,,,,,,,,,,,,,,,,,,,,,,,,,,,,,,,,,,,,,,,,,,,,,,,,,,,,,,,,,,,,,,,,,,,,,,,,,,,
,,611d06624467771b706c520c,2024-02-22_05h27.48.764,kallum_motion_pilot,2023.2.2,Win32,60.60606061,611d06624467771b706c520c,65d6bb0e977760de756971f7,65d6bf13187b8f050d9ea6af,0.0419,0.042,0,119,119,109,1,seveneight,,,,,,,,,,,,,,,,,,,,,,,,,,,,,,,,,,,,,,,,,,,,,,,,,,,,,,,,,,,,,,,,,,,,,,,,,,,,,,,,,,,,,,,,,,,,,,,,,,,,,,,,,,,,,,,,,,,,,,,,,,,,,,,,,,,,,,,,,
,,611d06624467771b706c520c,2024-02-22_05h27.48.764,kallum_motion_pilot,2023.2.2,Win32,60.60606061,611d06624467771b706c520c,65d6bb0e977760de756971f7,65d6bf13187b8f050d9ea6af,0.0421,0.0421,0,120,120,15,1,fourthree,,,,,,,,,,,,,,,,,,,,,,,,,,,,,,,,,,,,,,,,,,,,,,,,,,,,,,,,,,,,,,,,,,,,,,,,,,,,,,,,,,,,,,,,,,,,,,,,,,,,,,,,,,,,,,,,,,,,,,,,,,,,,,,,,,,,,,,,,
,,611d06624467771b706c520c,2024-02-22_05h27.48.764,kallum_motion_pilot,2023.2.2,Win32,60.60606061,611d06624467771b706c520c,65d6bb0e977760de756971f7,65d6bf13187b8f050d9ea6af,0.0422,0.0422,0,121,121,116,1,sevenfive,,,,,,,,,,,,,,,,,,,,,,,,,,,,,,,,,,,,,,,,,,,,,,,,,,,,,,,,,,,,,,,,,,,,,,,,,,,,,,,,,,,,,,,,,,,,,,,,,,,,,,,,,,,,,,,,,,,,,,,,,,,,,,,,,,,,,,,,,
,,611d06624467771b706c520c,2024-02-22_05h27.48.764,kallum_motion_pilot,2023.2.2,Win32,60.60606061,611d06624467771b706c520c,65d6bb0e977760de756971f7,65d6bf13187b8f050d9ea6af,0.0422,0.0422,0,122,122,146,1,sixfive,,,,,,,,,,,,,,,,,,,,,,,,,,,,,,,,,,,,,,,,,,,,,,,,,,,,,,,,,,,,,,,,,,,,,,,,,,,,,,,,,,,,,,,,,,,,,,,,,,,,,,,,,,,,,,,,,,,,,,,,,,,,,,,,,,,,,,,,,
,,611d06624467771b706c520c,2024-02-22_05h27.48.764,kallum_motion_pilot,2023.2.2,Win32,60.60606061,611d06624467771b706c520c,65d6bb0e977760de756971f7,65d6bf13187b8f050d9ea6af,0.0424,0.0424,0,123,123,25,1,onethree,,,,,,,,,,,,,,,,,,,,,,,,,,,,,,,,,,,,,,,,,,,,,,,,,,,,,,,,,,,,,,,,,,,,,,,,,,,,,,,,,,,,,,,,,,,,,,,,,,,,,,,,,,,,,,,,,,,,,,,,,,,,,,,,,,,,,,,,,
,,611d06624467771b706c520c,2024-02-22_05h27.48.764,kallum_motion_pilot,2023.2.2,Win32,60.60606061,611d06624467771b706c520c,65d6bb0e977760de756971f7,65d6bf13187b8f050d9ea6af,0.0425,0.0426,0,124,124,36,1,threeone,,,,,,,,,,,,,,,,,,,,,,,,,,,,,,,,,,,,,,,,,,,,,,,,,,,,,,,,,,,,,,,,,,,,,,,,,,,,,,,,,,,,,,,,,,,,,,,,,,,,,,,,,,,,,,,,,,,,,,,,,,,,,,,,,,,,,,,,,
,,611d06624467771b706c520c,2024-02-22_05h27.48.764,kallum_motion_pilot,2023.2.2,Win32,60.60606061,611d06624467771b706c520c,65d6bb0e977760de756971f7,65d6bf13187b8f050d9ea6af,0.0426,0.0427,0,125,125,91,1,sixeight,,,,,,,,,,,,,,,,,,,,,,,,,,,,,,,,,,,,,,,,,,,,,,,,,,,,,,,,,,,,,,,,,,,,,,,,,,,,,,,,,,,,,,,,,,,,,,,,,,,,,,,,,,,,,,,,,,,,,,,,,,,,,,,,,,,,,,,,,
,,611d06624467771b706c520c,2024-02-22_05h27.48.764,kallum_motion_pilot,2023.2.2,Win32,60.60606061,611d06624467771b706c520c,65d6bb0e977760de756971f7,65d6bf13187b8f050d9ea6af,0.0427,0.0427,0,126,126,0,1,onetwo,,,,,,,,,,,,,,,,,,,,,,,,,,,,,,,,,,,,,,,,,,,,,,,,,,,,,,,,,,,,,,,,,,,,,,,,,,,,,,,,,,,,,,,,,,,,,,,,,,,,,,,,,,,,,,,,,,,,,,,,,,,,,,,,,,,,,,,,,
,,611d06624467771b706c520c,2024-02-22_05h27.48.764,kallum_motion_pilot,2023.2.2,Win32,60.60606061,611d06624467771b706c520c,65d6bb0e977760de756971f7,65d6bf13187b8f050d9ea6af,0.0428,0.0429,0,127,127,141,1,seveneight,,,,,,,,,,,,,,,,,,,,,,,,,,,,,,,,,,,,,,,,,,,,,,,,,,,,,,,,,,,,,,,,,,,,,,,,,,,,,,,,,,,,,,,,,,,,,,,,,,,,,,,,,,,,,,,,,,,,,,,,,,,,,,,,,,,,,,,,,
,,611d06624467771b706c520c,2024-02-22_05h27.48.764,kallum_motion_pilot,2023.2.2,Win32,60.60606061,611d06624467771b706c520c,65d6bb0e977760de756971f7,65d6bf13187b8f050d9ea6af,0.0431,0.0431,0,128,128,92,1,sevenfive,,,,,,,,,,,,,,,,,,,,,,,,,,,,,,,,,,,,,,,,,,,,,,,,,,,,,,,,,,,,,,,,,,,,,,,,,,,,,,,,,,,,,,,,,,,,,,,,,,,,,,,,,,,,,,,,,,,,,,,,,,,,,,,,,,,,,,,,,
,,611d06624467771b706c520c,2024-02-22_05h27.48.764,kallum_motion_pilot,2023.2.2,Win32,60.60606061,611d06624467771b706c520c,65d6bb0e977760de756971f7,65d6bf13187b8f050d9ea6af,0.0431,0.0432,0,129,129,103,1,eightseven,,,,,,,,,,,,,,,,,,,,,,,,,,,,,,,,,,,,,,,,,,,,,,,,,,,,,,,,,,,,,,,,,,,,,,,,,,,,,,,,,,,,,,,,,,,,,,,,,,,,,,,,,,,,,,,,,,,,,,,,,,,,,,,,,,,,,,,,,
,,611d06624467771b706c520c,2024-02-22_05h27.48.764,kallum_motion_pilot,2023.2.2,Win32,60.60606061,611d06624467771b706c520c,65d6bb0e977760de756971f7,65d6bf13187b8f050d9ea6af,0.0433,0.0433,0,130,130,149,1,seveneight,,,,,,,,,,,,,,,,,,,,,,,,,,,,,,,,,,,,,,,,,,,,,,,,,,,,,,,,,,,,,,,,,,,,,,,,,,,,,,,,,,,,,,,,,,,,,,,,,,,,,,,,,,,,,,,,,,,,,,,,,,,,,,,,,,,,,,,,,
,,611d06624467771b706c520c,2024-02-22_05h27.48.764,kallum_motion_pilot,2023.2.2,Win32,60.60606061,611d06624467771b706c520c,65d6bb0e977760de756971f7,65d6bf13187b8f050d9ea6af,0.0433,0.0434,0,131,131,150,1,eightsix,,,,,,,,,,,,,,,,,,,,,,,,,,,,,,,,,,,,,,,,,,,,,,,,,,,,,,,,,,,,,,,,,,,,,,,,,,,,,,,,,,,,,,,,,,,,,,,,,,,,,,,,,,,,,,,,,,,,,,,,,,,,,,,,,,,,,,,,,
,,611d06624467771b706c520c,2024-02-22_05h27.48.764,kallum_motion_pilot,2023.2.2,Win32,60.60606061,611d06624467771b706c520c,65d6bb0e977760de756971f7,65d6bf13187b8f050d9ea6af,0.0435,0.0436,0,132,132,73,1,onethree,,,,,,,,,,,,,,,,,,,,,,,,,,,,,,,,,,,,,,,,,,,,,,,,,,,,,,,,,,,,,,,,,,,,,,,,,,,,,,,,,,,,,,,,,,,,,,,,,,,,,,,,,,,,,,,,,,,,,,,,,,,,,,,,,,,,,,,,,
,,611d06624467771b706c520c,2024-02-22_05h27.48.764,kallum_motion_pilot,2023.2.2,Win32,60.60606061,611d06624467771b706c520c,65d6bb0e977760de756971f7,65d6bf13187b8f050d9ea6af,0.0436,0.0437,0,133,133,107,1,sixeight,,,,,,,,,,,,,,,,,,,,,,,,,,,,,,,,,,,,,,,,,,,,,,,,,,,,,,,,,,,,,,,,,,,,,,,,,,,,,,,,,,,,,,,,,,,,,,,,,,,,,,,,,,,,,,,,,,,,,,,,,,,,,,,,,,,,,,,,,
,,611d06624467771b706c520c,2024-02-22_05h27.48.764,kallum_motion_pilot,2023.2.2,Win32,60.60606061,611d06624467771b706c520c,65d6bb0e977760de756971f7,65d6bf13187b8f050d9ea6af,0.0438,0.0438,0,134,134,76,1,threeone,,,,,,,,,,,,,,,,,,,,,,,,,,,,,,,,,,,,,,,,,,,,,,,,,,,,,,,,,,,,,,,,,,,,,,,,,,,,,,,,,,,,,,,,,,,,,,,,,,,,,,,,,,,,,,,,,,,,,,,,,,,,,,,,,,,,,,,,,
,,611d06624467771b706c520c,2024-02-22_05h27.48.764,kallum_motion_pilot,2023.2.2,Win32,60.60606061,611d06624467771b706c520c,65d6bb0e977760de756971f7,65d6bf13187b8f050d9ea6af,0.0451,0.0453,0,135,135,97,1,fiveseven,,,,,,,,,,,,,,,,,,,,,,,,,,,,,,,,,,,,,,,,,,,,,,,,,,,,,,,,,,,,,,,,,,,,,,,,,,,,,,,,,,,,,,,,,,,,,,,,,,,,,,,,,,,,,,,,,,,,,,,,,,,,,,,,,,,,,,,,,
,,611d06624467771b706c520c,2024-02-22_05h27.48.764,kallum_motion_pilot,2023.2.2,Win32,60.60606061,611d06624467771b706c520c,65d6bb0e977760de756971f7,65d6bf13187b8f050d9ea6af,0.0456,0.0457,0,136,136,2,1,twoone,,,,,,,,,,,,,,,,,,,,,,,,,,,,,,,,,,,,,,,,,,,,,,,,,,,,,,,,,,,,,,,,,,,,,,,,,,,,,,,,,,,,,,,,,,,,,,,,,,,,,,,,,,,,,,,,,,,,,,,,,,,,,,,,,,,,,,,,,
,,611d06624467771b706c520c,2024-02-22_05h27.48.764,kallum_motion_pilot,2023.2.2,Win32,60.60606061,611d06624467771b706c520c,65d6bb0e977760de756971f7,65d6bf13187b8f050d9ea6af,0.0458,0.0459,0,137,137,129,1,fiveseven,,,,,,,,,,,,,,,,,,,,,,,,,,,,,,,,,,,,,,,,,,,,,,,,,,,,,,,,,,,,,,,,,,,,,,,,,,,,,,,,,,,,,,,,,,,,,,,,,,,,,,,,,,,,,,,,,,,,,,,,,,,,,,,,,,,,,,,,,
,,611d06624467771b706c520c,2024-02-22_05h27.48.764,kallum_motion_pilot,2023.2.2,Win32,60.60606061,611d06624467771b706c520c,65d6bb0e977760de756971f7,65d6bf13187b8f050d9ea6af,0.046,0.0461,0,138,138,118,1,eightsix,,,,,,,,,,,,,,,,,,,,,,,,,,,,,,,,,,,,,,,,,,,,,,,,,,,,,,,,,,,,,,,,,,,,,,,,,,,,,,,,,,,,,,,,,,,,,,,,,,,,,,,,,,,,,,,,,,,,,,,,,,,,,,,,,,,,,,,,,
,,611d06624467771b706c520c,2024-02-22_05h27.48.764,kallum_motion_pilot,2023.2.2,Win32,60.60606061,611d06624467771b706c520c,65d6bb0e977760de756971f7,65d6bf13187b8f050d9ea6af,0.0462,0.0463,0,139,139,156,1,sevenfive,,,,,,,,,,,,,,,,,,,,,,,,,,,,,,,,,,,,,,,,,,,,,,,,,,,,,,,,,,,,,,,,,,,,,,,,,,,,,,,,,,,,,,,,,,,,,,,,,,,,,,,,,,,,,,,,,,,,,,,,,,,,,,,,,,,,,,,,,
,,611d06624467771b706c520c,2024-02-22_05h27.48.764,kallum_motion_pilot,2023.2.2,Win32,60.60606061,611d06624467771b706c520c,65d6bb0e977760de756971f7,65d6bf13187b8f050d9ea6af,0.0463,0.0464,0,140,140,11,1,twofour,,,,,,,,,,,,,,,,,,,,,,,,,,,,,,,,,,,,,,,,,,,,,,,,,,,,,,,,,,,,,,,,,,,,,,,,,,,,,,,,,,,,,,,,,,,,,,,,,,,,,,,,,,,,,,,,,,,,,,,,,,,,,,,,,,,,,,,,,
,,611d06624467771b706c520c,2024-02-22_05h27.48.764,kallum_motion_pilot,2023.2.2,Win32,60.60606061,611d06624467771b706c520c,65d6bb0e977760de756971f7,65d6bf13187b8f050d9ea6af,0.0465,0.0466,0,141,141,38,1,fourtwo,,,,,,,,,,,,,,,,,,,,,,,,,,,,,,,,,,,,,,,,,,,,,,,,,,,,,,,,,,,,,,,,,,,,,,,,,,,,,,,,,,,,,,,,,,,,,,,,,,,,,,,,,,,,,,,,,,,,,,,,,,,,,,,,,,,,,,,,,
,,611d06624467771b706c520c,2024-02-22_05h27.48.764,kallum_motion_pilot,2023.2.2,Win32,60.60606061,611d06624467771b706c520c,65d6bb0e977760de756971f7,65d6bf13187b8f050d9ea6af,0.0467,0.0467,0,142,142,127,1,eightseven,,,,,,,,,,,,,,,,,,,,,,,,,,,,,,,,,,,,,,,,,,,,,,,,,,,,,,,,,,,,,,,,,,,,,,,,,,,,,,,,,,,,,,,,,,,,,,,,,,,,,,,,,,,,,,,,,,,,,,,,,,,,,,,,,,,,,,,,,
,,611d06624467771b706c520c,2024-02-22_05h27.48.764,kallum_motion_pilot,2023.2.2,Win32,60.60606061,611d06624467771b706c520c,65d6bb0e977760de756971f7,65d6bf13187b8f050d9ea6af,0.0468,0.0469,0,143,143,32,1,onetwo,,,,,,,,,,,,,,,,,,,,,,,,,,,,,,,,,,,,,,,,,,,,,,,,,,,,,,,,,,,,,,,,,,,,,,,,,,,,,,,,,,,,,,,,,,,,,,,,,,,,,,,,,,,,,,,,,,,,,,,,,,,,,,,,,,,,,,,,,
,,611d06624467771b706c520c,2024-02-22_05h27.48.764,kallum_motion_pilot,2023.2.2,Win32,60.60606061,611d06624467771b706c520c,65d6bb0e977760de756971f7,65d6bf13187b8f050d9ea6af,0.047,0.047,0,144,144,89,1,fiveseven,,,,,,,,,,,,,,,,,,,,,,,,,,,,,,,,,,,,,,,,,,,,,,,,,,,,,,,,,,,,,,,,,,,,,,,,,,,,,,,,,,,,,,,,,,,,,,,,,,,,,,,,,,,,,,,,,,,,,,,,,,,,,,,,,,,,,,,,,
,,611d06624467771b706c520c,2024-02-22_05h27.48.764,kallum_motion_pilot,2023.2.2,Win32,60.60606061,611d06624467771b706c520c,65d6bb0e977760de756971f7,65d6bf13187b8f050d9ea6af,0.0471,0.0472,0,145,145,81,1,fiveseven,,,,,,,,,,,,,,,,,,,,,,,,,,,,,,,,,,,,,,,,,,,,,,,,,,,,,,,,,,,,,,,,,,,,,,,,,,,,,,,,,,,,,,,,,,,,,,,,,,,,,,,,,,,,,,,,,,,,,,,,,,,,,,,,,,,,,,,,,
,,611d06624467771b706c520c,2024-02-22_05h27.48.764,kallum_motion_pilot,2023.2.2,Win32,60.60606061,611d06624467771b706c520c,65d6bb0e977760de756971f7,65d6bf13187b8f050d9ea6af,0.0473,0.0474,0,146,146,26,1,twoone,,,,,,,,,,,,,,,,,,,,,,,,,,,,,,,,,,,,,,,,,,,,,,,,,,,,,,,,,,,,,,,,,,,,,,,,,,,,,,,,,,,,,,,,,,,,,,,,,,,,,,,,,,,,,,,,,,,,,,,,,,,,,,,,,,,,,,,,,
,,611d06624467771b706c520c,2024-02-22_05h27.48.764,kallum_motion_pilot,2023.2.2,Win32,60.60606061,611d06624467771b706c520c,65d6bb0e977760de756971f7,65d6bf13187b8f050d9ea6af,0.0474,0.0474,0,147,147,123,1,sixeight,,,,,,,,,,,,,,,,,,,,,,,,,,,,,,,,,,,,,,,,,,,,,,,,,,,,,,,,,,,,,,,,,,,,,,,,,,,,,,,,,,,,,,,,,,,,,,,,,,,,,,,,,,,,,,,,,,,,,,,,,,,,,,,,,,,,,,,,,
,,611d06624467771b706c520c,2024-02-22_05h27.48.764,kallum_motion_pilot,2023.2.2,Win32,60.60606061,611d06624467771b706c520c,65d6bb0e977760de756971f7,65d6bf13187b8f050d9ea6af,0.0476,0.0477,0,148,148,8,1,onetwo,,,,,,,,,,,,,,,,,,,,,,,,,,,,,,,,,,,,,,,,,,,,,,,,,,,,,,,,,,,,,,,,,,,,,,,,,,,,,,,,,,,,,,,,,,,,,,,,,,,,,,,,,,,,,,,,,,,,,,,,,,,,,,,,,,,,,,,,,
,,611d06624467771b706c520c,2024-02-22_05h27.48.764,kallum_motion_pilot,2023.2.2,Win32,60.60606061,611d06624467771b706c520c,65d6bb0e977760de756971f7,65d6bf13187b8f050d9ea6af,0.0477,0.0478,0,149,149,115,1,sixeight,,,,,,,,,,,,,,,,,,,,,,,,,,,,,,,,,,,,,,,,,,,,,,,,,,,,,,,,,,,,,,,,,,,,,,,,,,,,,,,,,,,,,,,,,,,,,,,,,,,,,,,,,,,,,,,,,,,,,,,,,,,,,,,,,,,,,,,,,
,,611d06624467771b706c520c,2024-02-22_05h27.48.764,kallum_motion_pilot,2023.2.2,Win32,60.60606061,611d06624467771b706c520c,65d6bb0e977760de756971f7,65d6bf13187b8f050d9ea6af,0.0479,0.048,0,150,150,9,1,onethree,,,,,,,,,,,,,,,,,,,,,,,,,,,,,,,,,,,,,,,,,,,,,,,,,,,,,,,,,,,,,,,,,,,,,,,,,,,,,,,,,,,,,,,,,,,,,,,,,,,,,,,,,,,,,,,,,,,,,,,,,,,,,,,,,,,,,,,,,
,,611d06624467771b706c520c,2024-02-22_05h27.48.764,kallum_motion_pilot,2023.2.2,Win32,60.60606061,611d06624467771b706c520c,65d6bb0e977760de756971f7,65d6bf13187b8f050d9ea6af,0.048,0.0481,0,151,151,14,1,fourtwo,,,,,,,,,,,,,,,,,,,,,,,,,,,,,,,,,,,,,,,,,,,,,,,,,,,,,,,,,,,,,,,,,,,,,,,,,,,,,,,,,,,,,,,,,,,,,,,,,,,,,,,,,,,,,,,,,,,,,,,,,,,,,,,,,,,,,,,,,
,,611d06624467771b706c520c,2024-02-22_05h27.48.764,kallum_motion_pilot,2023.2.2,Win32,60.60606061,611d06624467771b706c520c,65d6bb0e977760de756971f7,65d6bf13187b8f050d9ea6af,0.0482,0.0482,0,152,152,45,1,threefour,,,,,,,,,,,,,,,,,,,,,,,,,,,,,,,,,,,,,,,,,,,,,,,,,,,,,,,,,,,,,,,,,,,,,,,,,,,,,,,,,,,,,,,,,,,,,,,,,,,,,,,,,,,,,,,,,,,,,,,,,,,,,,,,,,,,,,,,,
,,611d06624467771b706c520c,2024-02-22_05h27.48.764,kallum_motion_pilot,2023.2.2,Win32,60.60606061,611d06624467771b706c520c,65d6bb0e977760de756971f7,65d6bf13187b8f050d9ea6af,0.0483,0.0484,0,153,153,57,1,onethree,,,,,,,,,,,,,,,,,,,,,,,,,,,,,,,,,,,,,,,,,,,,,,,,,,,,,,,,,,,,,,,,,,,,,,,,,,,,,,,,,,,,,,,,,,,,,,,,,,,,,,,,,,,,,,,,,,,,,,,,,,,,,,,,,,,,,,,,,
,,611d06624467771b706c520c,2024-02-22_05h27.48.764,kallum_motion_pilot,2023.2.2,Win32,60.60606061,611d06624467771b706c520c,65d6bb0e977760de756971f7,65d6bf13187b8f050d9ea6af,0.0484,0.0485,0,154,154,23,1,fourthree,,,,,,,,,,,,,,,,,,,,,,,,,,,,,,,,,,,,,,,,,,,,,,,,,,,,,,,,,,,,,,,,,,,,,,,,,,,,,,,,,,,,,,,,,,,,,,,,,,,,,,,,,,,,,,,,,,,,,,,,,,,,,,,,,,,,,,,,,
,,611d06624467771b706c520c,2024-02-22_05h27.48.764,kallum_motion_pilot,2023.2.2,Win32,60.60606061,611d06624467771b706c520c,65d6bb0e977760de756971f7,65d6bf13187b8f050d9ea6af,0.0486,0.0486,0,155,155,47,1,fourthree,,,,,,,,,,,,,,,,,,,,,,,,,,,,,,,,,,,,,,,,,,,,,,,,,,,,,,,,,,,,,,,,,,,,,,,,,,,,,,,,,,,,,,,,,,,,,,,,,,,,,,,,,,,,,,,,,,,,,,,,,,,,,,,,,,,,,,,,,
,,611d06624467771b706c520c,2024-02-22_05h27.48.764,kallum_motion_pilot,2023.2.2,Win32,60.60606061,611d06624467771b706c520c,65d6bb0e977760de756971f7,65d6bf13187b8f050d9ea6af,0.0488,0.0488,0,156,156,68,1,threeone,,,,,,,,,,,,,,,,,,,,,,,,,,,,,,,,,,,,,,,,,,,,,,,,,,,,,,,,,,,,,,,,,,,,,,,,,,,,,,,,,,,,,,,,,,,,,,,,,,,,,,,,,,,,,,,,,,,,,,,,,,,,,,,,,,,,,,,,,
,,611d06624467771b706c520c,2024-02-22_05h27.48.764,kallum_motion_pilot,2023.2.2,Win32,60.60606061,611d06624467771b706c520c,65d6bb0e977760de756971f7,65d6bf13187b8f050d9ea6af,0.0488,0.049,0,157,157,28,1,threeone,,,,,,,,,,,,,,,,,,,,,,,,,,,,,,,,,,,,,,,,,,,,,,,,,,,,,,,,,,,,,,,,,,,,,,,,,,,,,,,,,,,,,,,,,,,,,,,,,,,,,,,,,,,,,,,,,,,,,,,,,,,,,,,,,,,,,,,,,
,,611d06624467771b706c520c,2024-02-22_05h27.48.764,kallum_motion_pilot,2023.2.2,Win32,60.60606061,611d06624467771b706c520c,65d6bb0e977760de756971f7,65d6bf13187b8f050d9ea6af,0.049,0.049,0,158,158,22,1,fourtwo,,,,,,,,,,,,,,,,,,,,,,,,,,,,,,,,,,,,,,,,,,,,,,,,,,,,,,,,,,,,,,,,,,,,,,,,,,,,,,,,,,,,,,,,,,,,,,,,,,,,,,,,,,,,,,,,,,,,,,,,,,,,,,,,,,,,,,,,,
,,611d06624467771b706c520c,2024-02-22_05h27.48.764,kallum_motion_pilot,2023.2.2,Win32,60.60606061,611d06624467771b706c520c,65d6bb0e977760de756971f7,65d6bf13187b8f050d9ea6af,0.0491,0.0491,0,159,159,142,1,eightsix,,,,,,,,,,,,,,,,,,,,,,,,,,,,,,,,,,,,,,,,,,,,,,,,,,,,,,,,,,,,,,,,,,,,,,,,,,,,,,,,,,,,,,,,,,,,,,,,,,,,,,,,,,,,,,,,,,,,,,,,,,,,,,,,,,,,,,,,,
,,611d06624467771b706c520c,2024-02-22_05h27.48.764,kallum_motion_pilot,2023.2.2,Win32,60.60606061,611d06624467771b706c520c,65d6bb0e977760de756971f7,65d6bf13187b8f050d9ea6af,0.0492,0.0493,0,160,160,86,1,eightsix,,,,,,,,,,,,,,,,,,,,,,,,,,,,,,,,,,,,,,,,,,,,,,,,,,,,,,,,,,,,,,,,,,,,,,,,,,,,,,,,,,,,,,,,,,,,,,,,,,,,,,,,,,,,,,,,,,,,,,,,,,,,,,,,,,,,,,,,,
,,611d06624467771b706c520c,2024-02-22_05h27.48.764,kallum_motion_pilot,2023.2.2,Win32,60.60606061,611d06624467771b706c520c,65d6bb0e977760de756971f7,65d6bf13187b8f050d9ea6af,0.0494,0.0495,0,161,161,16,1,onetwo,,,,,,,,,,,,,,,,,,,,,,,,,,,,,,,,,,,,,,,,,,,,,,,,,,,,,,,,,,,,,,,,,,,,,,,,,,,,,,,,,,,,,,,,,,,,,,,,,,,,,,,,,,,,,,,,,,,,,,,,,,,,,,,,,,,,,,,,,
,,611d06624467771b706c520c,2024-02-22_05h27.48.764,kallum_motion_pilot,2023.2.2,Win32,60.60606061,611d06624467771b706c520c,65d6bb0e977760de756971f7,65d6bf13187b8f050d9ea6af,0.0495,0.0496,1,0,162,145,1,fiveseven,,,,,,,,,,,,,,,,,,,,,,,,,,,,,,,,,,,,,,,,,,,,,,,,,,,,,,,,,,,,,,,,,,,,,,,,,,,,,,,,,,,,,,,,,,,,,,,,,,,,,,,,,,,,,,,,,,,,,,,,,,,,,,,,,,,,,,,,,
,,611d06624467771b706c520c,2024-02-22_05h27.48.764,kallum_motion_pilot,2023.2.2,Win32,60.60606061,611d06624467771b706c520c,65d6bb0e977760de756971f7,65d6bf13187b8f050d9ea6af,0.0497,0.0498,1,1,163,80,1,fivesix,,,,,,,,,,,,,,,,,,,,,,,,,,,,,,,,,,,,,,,,,,,,,,,,,,,,,,,,,,,,,,,,,,,,,,,,,,,,,,,,,,,,,,,,,,,,,,,,,,,,,,,,,,,,,,,,,,,,,,,,,,,,,,,,,,,,,,,,,
,,611d06624467771b706c520c,2024-02-22_05h27.48.764,kallum_motion_pilot,2023.2.2,Win32,60.60606061,611d06624467771b706c520c,65d6bb0e977760de756971f7,65d6bf13187b8f050d9ea6af,0.0498,0.0499,1,2,164,71,1,fourthree,,,,,,,,,,,,,,,,,,,,,,,,,,,,,,,,,,,,,,,,,,,,,,,,,,,,,,,,,,,,,,,,,,,,,,,,,,,,,,,,,,,,,,,,,,,,,,,,,,,,,,,,,,,,,,,,,,,,,,,,,,,,,,,,,,,,,,,,,
,,611d06624467771b706c520c,2024-02-22_05h27.48.764,kallum_motion_pilot,2023.2.2,Win32,60.60606061,611d06624467771b706c520c,65d6bb0e977760de756971f7,65d6bf13187b8f050d9ea6af,0.05,0.05,1,3,165,107,1,sixeight,,,,,,,,,,,,,,,,,,,,,,,,,,,,,,,,,,,,,,,,,,,,,,,,,,,,,,,,,,,,,,,,,,,,,,,,,,,,,,,,,,,,,,,,,,,,,,,,,,,,,,,,,,,,,,,,,,,,,,,,,,,,,,,,,,,,,,,,,
,,611d06624467771b706c520c,2024-02-22_05h27.48.764,kallum_motion_pilot,2023.2.2,Win32,60.60606061,611d06624467771b706c520c,65d6bb0e977760de756971f7,65d6bf13187b8f050d9ea6af,0.05,0.0501,1,4,166,23,1,fourthree,,,,,,,,,,,,,,,,,,,,,,,,,,,,,,,,,,,,,,,,,,,,,,,,,,,,,,,,,,,,,,,,,,,,,,,,,,,,,,,,,,,,,,,,,,,,,,,,,,,,,,,,,,,,,,,,,,,,,,,,,,,,,,,,,,,,,,,,,
,,611d06624467771b706c520c,2024-02-22_05h27.48.764,kallum_motion_pilot,2023.2.2,Win32,60.60606061,611d06624467771b706c520c,65d6bb0e977760de756971f7,65d6bf13187b8f050d9ea6af,0.0502,0.0503,1,5,167,61,1,threefour,,,,,,,,,,,,,,,,,,,,,,,,,,,,,,,,,,,,,,,,,,,,,,,,,,,,,,,,,,,,,,,,,,,,,,,,,,,,,,,,,,,,,,,,,,,,,,,,,,,,,,,,,,,,,,,,,,,,,,,,,,,,,,,,,,,,,,,,,
,,611d06624467771b706c520c,2024-02-22_05h27.48.764,kallum_motion_pilot,2023.2.2,Win32,60.60606061,611d06624467771b706c520c,65d6bb0e977760de756971f7,65d6bf13187b8f050d9ea6af,0.0503,0.0503,1,6,168,98,1,sixfive,,,,,,,,,,,,,,,,,,,,,,,,,,,,,,,,,,,,,,,,,,,,,,,,,,,,,,,,,,,,,,,,,,,,,,,,,,,,,,,,,,,,,,,,,,,,,,,,,,,,,,,,,,,,,,,,,,,,,,,,,,,,,,,,,,,,,,,,,
,,611d06624467771b706c520c,2024-02-22_05h27.48.764,kallum_motion_pilot,2023.2.2,Win32,60.60606061,611d06624467771b706c520c,65d6bb0e977760de756971f7,65d6bf13187b8f050d9ea6af,0.0504,0.0504,1,7,169,14,1,fourtwo,,,,,,,,,,,,,,,,,,,,,,,,,,,,,,,,,,,,,,,,,,,,,,,,,,,,,,,,,,,,,,,,,,,,,,,,,,,,,,,,,,,,,,,,,,,,,,,,,,,,,,,,,,,,,,,,,,,,,,,,,,,,,,,,,,,,,,,,,
,,611d06624467771b706c520c,2024-02-22_05h27.48.764,kallum_motion_pilot,2023.2.2,Win32,60.60606061,611d06624467771b706c520c,65d6bb0e977760de756971f7,65d6bf13187b8f050d9ea6af,0.0505,0.0506,1,8,170,10,1,twoone,,,,,,,,,,,,,,,,,,,,,,,,,,,,,,,,,,,,,,,,,,,,,,,,,,,,,,,,,,,,,,,,,,,,,,,,,,,,,,,,,,,,,,,,,,,,,,,,,,,,,,,,,,,,,,,,,,,,,,,,,,,,,,,,,,,,,,,,,
,,611d06624467771b706c520c,2024-02-22_05h27.48.764,kallum_motion_pilot,2023.2.2,Win32,60.60606061,611d06624467771b706c520c,65d6bb0e977760de756971f7,65d6bf13187b8f050d9ea6af,0.0507,0.0508,1,9,171,110,1,eightsix,,,,,,,,,,,,,,,,,,,,,,,,,,,,,,,,,,,,,,,,,,,,,,,,,,,,,,,,,,,,,,,,,,,,,,,,,,,,,,,,,,,,,,,,,,,,,,,,,,,,,,,,,,,,,,,,,,,,,,,,,,,,,,,,,,,,,,,,,
,,611d06624467771b706c520c,2024-02-22_05h27.48.764,kallum_motion_pilot,2023.2.2,Win32,60.60606061,611d06624467771b706c520c,65d6bb0e977760de756971f7,65d6bf13187b8f050d9ea6af,0.0511,0.0514,1,10,172,0,1,onetwo,,,,,,,,,,,,,,,,,,,,,,,,,,,,,,,,,,,,,,,,,,,,,,,,,,,,,,,,,,,,,,,,,,,,,,,,,,,,,,,,,,,,,,,,,,,,,,,,,,,,,,,,,,,,,,,,,,,,,,,,,,,,,,,,,,,,,,,,,
,,611d06624467771b706c520c,2024-02-22_05h27.48.764,kallum_motion_pilot,2023.2.2,Win32,60.60606061,611d06624467771b706c520c,65d6bb0e977760de756971f7,65d6bf13187b8f050d9ea6af,0.0517,0.0518,1,11,173,35,1,twofour,,,,,,,,,,,,,,,,,,,,,,,,,,,,,,,,,,,,,,,,,,,,,,,,,,,,,,,,,,,,,,,,,,,,,,,,,,,,,,,,,,,,,,,,,,,,,,,,,,,,,,,,,,,,,,,,,,,,,,,,,,,,,,,,,,,,,,,,,
,,611d06624467771b706c520c,2024-02-22_05h27.48.764,kallum_motion_pilot,2023.2.2,Win32,60.60606061,611d06624467771b706c520c,65d6bb0e977760de756971f7,65d6bf13187b8f050d9ea6af,0.052,0.0521,1,12,174,41,1,onethree,,,,,,,,,,,,,,,,,,,,,,,,,,,,,,,,,,,,,,,,,,,,,,,,,,,,,,,,,,,,,,,,,,,,,,,,,,,,,,,,,,,,,,,,,,,,,,,,,,,,,,,,,,,,,,,,,,,,,,,,,,,,,,,,,,,,,,,,,
,,611d06624467771b706c520c,2024-02-22_05h27.48.764,kallum_motion_pilot,2023.2.2,Win32,60.60606061,611d06624467771b706c520c,65d6bb0e977760de756971f7,65d6bf13187b8f050d9ea6af,0.0522,0.0524,1,13,175,74,1,twoone,,,,,,,,,,,,,,,,,,,,,,,,,,,,,,,,,,,,,,,,,,,,,,,,,,,,,,,,,,,,,,,,,,,,,,,,,,,,,,,,,,,,,,,,,,,,,,,,,,,,,,,,,,,,,,,,,,,,,,,,,,,,,,,,,,,,,,,,,
,,611d06624467771b706c520c,2024-02-22_05h27.48.764,kallum_motion_pilot,2023.2.2,Win32,60.60606061,611d06624467771b706c520c,65d6bb0e977760de756971f7,65d6bf13187b8f050d9ea6af,0.0525,0.0526,1,14,176,32,1,onetwo,,,,,,,,,,,,,,,,,,,,,,,,,,,,,,,,,,,,,,,,,,,,,,,,,,,,,,,,,,,,,,,,,,,,,,,,,,,,,,,,,,,,,,,,,,,,,,,,,,,,,,,,,,,,,,,,,,,,,,,,,,,,,,,,,,,,,,,,,
,,611d06624467771b706c520c,2024-02-22_05h27.48.764,kallum_motion_pilot,2023.2.2,Win32,60.60606061,611d06624467771b706c520c,65d6bb0e977760de756971f7,65d6bf13187b8f050d9ea6af,0.0527,0.0528,1,15,177,38,1,fourtwo,,,,,,,,,,,,,,,,,,,,,,,,,,,,,,,,,,,,,,,,,,,,,,,,,,,,,,,,,,,,,,,,,,,,,,,,,,,,,,,,,,,,,,,,,,,,,,,,,,,,,,,,,,,,,,,,,,,,,,,,,,,,,,,,,,,,,,,,,
,,611d06624467771b706c520c,2024-02-22_05h27.48.764,kallum_motion_pilot,2023.2.2,Win32,60.60606061,611d06624467771b706c520c,65d6bb0e977760de756971f7,65d6bf13187b8f050d9ea6af,0.0529,0.053,1,16,178,94,1,eightsix,,,,,,,,,,,,,,,,,,,,,,,,,,,,,,,,,,,,,,,,,,,,,,,,,,,,,,,,,,,,,,,,,,,,,,,,,,,,,,,,,,,,,,,,,,,,,,,,,,,,,,,,,,,,,,,,,,,,,,,,,,,,,,,,,,,,,,,,,
,,611d06624467771b706c520c,2024-02-22_05h27.48.764,kallum_motion_pilot,2023.2.2,Win32,60.60606061,611d06624467771b706c520c,65d6bb0e977760de756971f7,65d6bf13187b8f050d9ea6af,0.053,0.0532,1,17,179,147,1,sixeight,,,,,,,,,,,,,,,,,,,,,,,,,,,,,,,,,,,,,,,,,,,,,,,,,,,,,,,,,,,,,,,,,,,,,,,,,,,,,,,,,,,,,,,,,,,,,,,,,,,,,,,,,,,,,,,,,,,,,,,,,,,,,,,,,,,,,,,,,
,,611d06624467771b706c520c,2024-02-22_05h27.48.764,kallum_motion_pilot,2023.2.2,Win32,60.60606061,611d06624467771b706c520c,65d6bb0e977760de756971f7,65d6bf13187b8f050d9ea6af,0.0533,0.0533,1,18,180,27,1,twofour,,,,,,,,,,,,,,,,,,,,,,,,,,,,,,,,,,,,,,,,,,,,,,,,,,,,,,,,,,,,,,,,,,,,,,,,,,,,,,,,,,,,,,,,,,,,,,,,,,,,,,,,,,,,,,,,,,,,,,,,,,,,,,,,,,,,,,,,,
,,611d06624467771b706c520c,2024-02-22_05h27.48.764,kallum_motion_pilot,2023.2.2,Win32,60.60606061,611d06624467771b706c520c,65d6bb0e977760de756971f7,65d6bf13187b8f050d9ea6af,0.0535,0.0536,1,19,181,67,1,twofour,,,,,,,,,,,,,,,,,,,,,,,,,,,,,,,,,,,,,,,,,,,,,,,,,,,,,,,,,,,,,,,,,,,,,,,,,,,,,,,,,,,,,,,,,,,,,,,,,,,,,,,,,,,,,,,,,,,,,,,,,,,,,,,,,,,,,,,,,
,,611d06624467771b706c520c,2024-02-22_05h27.48.764,kallum_motion_pilot,2023.2.2,Win32,60.60606061,611d06624467771b706c520c,65d6bb0e977760de756971f7,65d6bf13187b8f050d9ea6af,0.0537,0.0538,1,20,182,123,1,sixeight,,,,,,,,,,,,,,,,,,,,,,,,,,,,,,,,,,,,,,,,,,,,,,,,,,,,,,,,,,,,,,,,,,,,,,,,,,,,,,,,,,,,,,,,,,,,,,,,,,,,,,,,,,,,,,,,,,,,,,,,,,,,,,,,,,,,,,,,,
,,611d06624467771b706c520c,2024-02-22_05h27.48.764,kallum_motion_pilot,2023.2.2,Win32,60.60606061,611d06624467771b706c520c,65d6bb0e977760de756971f7,65d6bf13187b8f050d9ea6af,0.0539,0.0539,1,21,183,82,1,sixfive,,,,,,,,,,,,,,,,,,,,,,,,,,,,,,,,,,,,,,,,,,,,,,,,,,,,,,,,,,,,,,,,,,,,,,,,,,,,,,,,,,,,,,,,,,,,,,,,,,,,,,,,,,,,,,,,,,,,,,,,,,,,,,,,,,,,,,,,,
,,611d06624467771b706c520c,2024-02-22_05h27.48.764,kallum_motion_pilot,2023.2.2,Win32,60.60606061,611d06624467771b706c520c,65d6bb0e977760de756971f7,65d6bf13187b8f050d9ea6af,0.054,0.0541,1,22,184,58,1,twoone,,,,,,,,,,,,,,,,,,,,,,,,,,,,,,,,,,,,,,,,,,,,,,,,,,,,,,,,,,,,,,,,,,,,,,,,,,,,,,,,,,,,,,,,,,,,,,,,,,,,,,,,,,,,,,,,,,,,,,,,,,,,,,,,,,,,,,,,,
,,611d06624467771b706c520c,2024-02-22_05h27.48.764,kallum_motion_pilot,2023.2.2,Win32,60.60606061,611d06624467771b706c520c,65d6bb0e977760de756971f7,65d6bf13187b8f050d9ea6af,0.0541,0.0542,1,23,185,4,1,threeone,,,,,,,,,,,,,,,,,,,,,,,,,,,,,,,,,,,,,,,,,,,,,,,,,,,,,,,,,,,,,,,,,,,,,,,,,,,,,,,,,,,,,,,,,,,,,,,,,,,,,,,,,,,,,,,,,,,,,,,,,,,,,,,,,,,,,,,,,
,,611d06624467771b706c520c,2024-02-22_05h27.48.764,kallum_motion_pilot,2023.2.2,Win32,60.60606061,611d06624467771b706c520c,65d6bb0e977760de756971f7,65d6bf13187b8f050d9ea6af,0.0543,0.0544,1,24,186,9,1,onethree,,,,,,,,,,,,,,,,,,,,,,,,,,,,,,,,,,,,,,,,,,,,,,,,,,,,,,,,,,,,,,,,,,,,,,,,,,,,,,,,,,,,,,,,,,,,,,,,,,,,,,,,,,,,,,,,,,,,,,,,,,,,,,,,,,,,,,,,,
,,611d06624467771b706c520c,2024-02-22_05h27.48.764,kallum_motion_pilot,2023.2.2,Win32,60.60606061,611d06624467771b706c520c,65d6bb0e977760de756971f7,65d6bf13187b8f050d9ea6af,0.0545,0.0546,1,25,187,103,1,eightseven,,,,,,,,,,,,,,,,,,,,,,,,,,,,,,,,,,,,,,,,,,,,,,,,,,,,,,,,,,,,,,,,,,,,,,,,,,,,,,,,,,,,,,,,,,,,,,,,,,,,,,,,,,,,,,,,,,,,,,,,,,,,,,,,,,,,,,,,,
,,611d06624467771b706c520c,2024-02-22_05h27.48.764,kallum_motion_pilot,2023.2.2,Win32,60.60606061,611d06624467771b706c520c,65d6bb0e977760de756971f7,65d6bf13187b8f050d9ea6af,0.0546,0.0547,1,26,188,91,1,sixeight,,,,,,,,,,,,,,,,,,,,,,,,,,,,,,,,,,,,,,,,,,,,,,,,,,,,,,,,,,,,,,,,,,,,,,,,,,,,,,,,,,,,,,,,,,,,,,,,,,,,,,,,,,,,,,,,,,,,,,,,,,,,,,,,,,,,,,,,,
,,611d06624467771b706c520c,2024-02-22_05h27.48.764,kallum_motion_pilot,2023.2.2,Win32,60.60606061,611d06624467771b706c520c,65d6bb0e977760de756971f7,65d6bf13187b8f050d9ea6af,0.0548,0.0548,1,27,189,159,1,eightseven,,,,,,,,,,,,,,,,,,,,,,,,,,,,,,,,,,,,,,,,,,,,,,,,,,,,,,,,,,,,,,,,,,,,,,,,,,,,,,,,,,,,,,,,,,,,,,,,,,,,,,,,,,,,,,,,,,,,,,,,,,,,,,,,,,,,,,,,,
,,611d06624467771b706c520c,2024-02-22_05h27.48.764,kallum_motion_pilot,2023.2.2,Win32,60.60606061,611d06624467771b706c520c,65d6bb0e977760de756971f7,65d6bf13187b8f050d9ea6af,0.0549,0.055,1,28,190,62,1,fourtwo,,,,,,,,,,,,,,,,,,,,,,,,,,,,,,,,,,,,,,,,,,,,,,,,,,,,,,,,,,,,,,,,,,,,,,,,,,,,,,,,,,,,,,,,,,,,,,,,,,,,,,,,,,,,,,,,,,,,,,,,,,,,,,,,,,,,,,,,,
,,611d06624467771b706c520c,2024-02-22_05h27.48.764,kallum_motion_pilot,2023.2.2,Win32,60.60606061,611d06624467771b706c520c,65d6bb0e977760de756971f7,65d6bf13187b8f050d9ea6af,0.055,0.0552,1,29,191,5,1,threefour,,,,,,,,,,,,,,,,,,,,,,,,,,,,,,,,,,,,,,,,,,,,,,,,,,,,,,,,,,,,,,,,,,,,,,,,,,,,,,,,,,,,,,,,,,,,,,,,,,,,,,,,,,,,,,,,,,,,,,,,,,,,,,,,,,,,,,,,,
,,611d06624467771b706c520c,2024-02-22_05h27.48.764,kallum_motion_pilot,2023.2.2,Win32,60.60606061,611d06624467771b706c520c,65d6bb0e977760de756971f7,65d6bf13187b8f050d9ea6af,0.0552,0.0553,1,30,192,134,1,eightsix,,,,,,,,,,,,,,,,,,,,,,,,,,,,,,,,,,,,,,,,,,,,,,,,,,,,,,,,,,,,,,,,,,,,,,,,,,,,,,,,,,,,,,,,,,,,,,,,,,,,,,,,,,,,,,,,,,,,,,,,,,,,,,,,,,,,,,,,,
,,611d06624467771b706c520c,2024-02-22_05h27.48.764,kallum_motion_pilot,2023.2.2,Win32,60.60606061,611d06624467771b706c520c,65d6bb0e977760de756971f7,65d6bf13187b8f050d9ea6af,0.0553,0.0554,1,31,193,40,1,onetwo,,,,,,,,,,,,,,,,,,,,,,,,,,,,,,,,,,,,,,,,,,,,,,,,,,,,,,,,,,,,,,,,,,,,,,,,,,,,,,,,,,,,,,,,,,,,,,,,,,,,,,,,,,,,,,,,,,,,,,,,,,,,,,,,,,,,,,,,,
,,611d06624467771b706c520c,2024-02-22_05h27.48.764,kallum_motion_pilot,2023.2.2,Win32,60.60606061,611d06624467771b706c520c,65d6bb0e977760de756971f7,65d6bf13187b8f050d9ea6af,0.0555,0.0556,1,32,194,63,1,fourthree,,,,,,,,,,,,,,,,,,,,,,,,,,,,,,,,,,,,,,,,,,,,,,,,,,,,,,,,,,,,,,,,,,,,,,,,,,,,,,,,,,,,,,,,,,,,,,,,,,,,,,,,,,,,,,,,,,,,,,,,,,,,,,,,,,,,,,,,,
,,611d06624467771b706c520c,2024-02-22_05h27.48.764,kallum_motion_pilot,2023.2.2,Win32,60.60606061,611d06624467771b706c520c,65d6bb0e977760de756971f7,65d6bf13187b8f050d9ea6af,0.0556,0.0558,1,33,195,130,1,sixfive,,,,,,,,,,,,,,,,,,,,,,,,,,,,,,,,,,,,,,,,,,,,,,,,,,,,,,,,,,,,,,,,,,,,,,,,,,,,,,,,,,,,,,,,,,,,,,,,,,,,,,,,,,,,,,,,,,,,,,,,,,,,,,,,,,,,,,,,,
,,611d06624467771b706c520c,2024-02-22_05h27.48.764,kallum_motion_pilot,2023.2.2,Win32,60.60606061,611d06624467771b706c520c,65d6bb0e977760de756971f7,65d6bf13187b8f050d9ea6af,0.0558,0.0559,1,34,196,119,1,eightseven,,,,,,,,,,,,,,,,,,,,,,,,,,,,,,,,,,,,,,,,,,,,,,,,,,,,,,,,,,,,,,,,,,,,,,,,,,,,,,,,,,,,,,,,,,,,,,,,,,,,,,,,,,,,,,,,,,,,,,,,,,,,,,,,,,,,,,,,,
,,611d06624467771b706c520c,2024-02-22_05h27.48.764,kallum_motion_pilot,2023.2.2,Win32,60.60606061,611d06624467771b706c520c,65d6bb0e977760de756971f7,65d6bf13187b8f050d9ea6af,0.056,0.0561,1,35,197,44,1,threeone,,,,,,,,,,,,,,,,,,,,,,,,,,,,,,,,,,,,,,,,,,,,,,,,,,,,,,,,,,,,,,,,,,,,,,,,,,,,,,,,,,,,,,,,,,,,,,,,,,,,,,,,,,,,,,,,,,,,,,,,,,,,,,,,,,,,,,,,,
,,611d06624467771b706c520c,2024-02-22_05h27.48.764,kallum_motion_pilot,2023.2.2,Win32,60.60606061,611d06624467771b706c520c,65d6bb0e977760de756971f7,65d6bf13187b8f050d9ea6af,0.0562,0.0562,1,36,198,2,1,twoone,,,,,,,,,,,,,,,,,,,,,,,,,,,,,,,,,,,,,,,,,,,,,,,,,,,,,,,,,,,,,,,,,,,,,,,,,,,,,,,,,,,,,,,,,,,,,,,,,,,,,,,,,,,,,,,,,,,,,,,,,,,,,,,,,,,,,,,,,
,,611d06624467771b706c520c,2024-02-22_05h27.48.764,kallum_motion_pilot,2023.2.2,Win32,60.60606061,611d06624467771b706c520c,65d6bb0e977760de756971f7,65d6bf13187b8f050d9ea6af,0.0563,0.0564,1,37,199,111,1,eightseven,,,,,,,,,,,,,,,,,,,,,,,,,,,,,,,,,,,,,,,,,,,,,,,,,,,,,,,,,,,,,,,,,,,,,,,,,,,,,,,,,,,,,,,,,,,,,,,,,,,,,,,,,,,,,,,,,,,,,,,,,,,,,,,,,,,,,,,,,
,,611d06624467771b706c520c,2024-02-22_05h27.48.764,kallum_motion_pilot,2023.2.2,Win32,60.60606061,611d06624467771b706c520c,65d6bb0e977760de756971f7,65d6bf13187b8f050d9ea6af,0.0564,0.0565,1,38,200,137,1,fiveseven,,,,,,,,,,,,,,,,,,,,,,,,,,,,,,,,,,,,,,,,,,,,,,,,,,,,,,,,,,,,,,,,,,,,,,,,,,,,,,,,,,,,,,,,,,,,,,,,,,,,,,,,,,,,,,,,,,,,,,,,,,,,,,,,,,,,,,,,,
,,611d06624467771b706c520c,2024-02-22_05h27.48.764,kallum_motion_pilot,2023.2.2,Win32,60.60606061,611d06624467771b706c520c,65d6bb0e977760de756971f7,65d6bf13187b8f050d9ea6af,0.0566,0.0566,1,39,201,99,1,sixeight,,,,,,,,,,,,,,,,,,,,,,,,,,,,,,,,,,,,,,,,,,,,,,,,,,,,,,,,,,,,,,,,,,,,,,,,,,,,,,,,,,,,,,,,,,,,,,,,,,,,,,,,,,,,,,,,,,,,,,,,,,,,,,,,,,,,,,,,,
,,611d06624467771b706c520c,2024-02-22_05h27.48.764,kallum_motion_pilot,2023.2.2,Win32,60.60606061,611d06624467771b706c520c,65d6bb0e977760de756971f7,65d6bf13187b8f050d9ea6af,0.0567,0.0568,1,40,202,28,1,threeone,,,,,,,,,,,,,,,,,,,,,,,,,,,,,,,,,,,,,,,,,,,,,,,,,,,,,,,,,,,,,,,,,,,,,,,,,,,,,,,,,,,,,,,,,,,,,,,,,,,,,,,,,,,,,,,,,,,,,,,,,,,,,,,,,,,,,,,,,
,,611d06624467771b706c520c,2024-02-22_05h27.48.764,kallum_motion_pilot,2023.2.2,Win32,60.60606061,611d06624467771b706c520c,65d6bb0e977760de756971f7,65d6bf13187b8f050d9ea6af,0.0569,0.0569,1,41,203,102,1,eightsix,,,,,,,,,,,,,,,,,,,,,,,,,,,,,,,,,,,,,,,,,,,,,,,,,,,,,,,,,,,,,,,,,,,,,,,,,,,,,,,,,,,,,,,,,,,,,,,,,,,,,,,,,,,,,,,,,,,,,,,,,,,,,,,,,,,,,,,,,
,,611d06624467771b706c520c,2024-02-22_05h27.48.764,kallum_motion_pilot,2023.2.2,Win32,60.60606061,611d06624467771b706c520c,65d6bb0e977760de756971f7,65d6bf13187b8f050d9ea6af,0.0571,0.0572,1,42,204,81,1,fiveseven,,,,,,,,,,,,,,,,,,,,,,,,,,,,,,,,,,,,,,,,,,,,,,,,,,,,,,,,,,,,,,,,,,,,,,,,,,,,,,,,,,,,,,,,,,,,,,,,,,,,,,,,,,,,,,,,,,,,,,,,,,,,,,,,,,,,,,,,,
,,611d06624467771b706c520c,2024-02-22_05h27.48.764,kallum_motion_pilot,2023.2.2,Win32,60.60606061,611d06624467771b706c520c,65d6bb0e977760de756971f7,65d6bf13187b8f050d9ea6af,0.0572,0.0573,1,43,205,139,1,sixeight,,,,,,,,,,,,,,,,,,,,,,,,,,,,,,,,,,,,,,,,,,,,,,,,,,,,,,,,,,,,,,,,,,,,,,,,,,,,,,,,,,,,,,,,,,,,,,,,,,,,,,,,,,,,,,,,,,,,,,,,,,,,,,,,,,,,,,,,,
,,611d06624467771b706c520c,2024-02-22_05h27.48.764,kallum_motion_pilot,2023.2.2,Win32,60.60606061,611d06624467771b706c520c,65d6bb0e977760de756971f7,65d6bf13187b8f050d9ea6af,0.0574,0.0574,1,44,206,149,1,seveneight,,,,,,,,,,,,,,,,,,,,,,,,,,,,,,,,,,,,,,,,,,,,,,,,,,,,,,,,,,,,,,,,,,,,,,,,,,,,,,,,,,,,,,,,,,,,,,,,,,,,,,,,,,,,,,,,,,,,,,,,,,,,,,,,,,,,,,,,,
,,611d06624467771b706c520c,2024-02-22_05h27.48.764,kallum_motion_pilot,2023.2.2,Win32,60.60606061,611d06624467771b706c520c,65d6bb0e977760de756971f7,65d6bf13187b8f050d9ea6af,0.0575,0.0575,1,45,207,93,1,seveneight,,,,,,,,,,,,,,,,,,,,,,,,,,,,,,,,,,,,,,,,,,,,,,,,,,,,,,,,,,,,,,,,,,,,,,,,,,,,,,,,,,,,,,,,,,,,,,,,,,,,,,,,,,,,,,,,,,,,,,,,,,,,,,,,,,,,,,,,,
,,611d06624467771b706c520c,2024-02-22_05h27.48.764,kallum_motion_pilot,2023.2.2,Win32,60.60606061,611d06624467771b706c520c,65d6bb0e977760de756971f7,65d6bf13187b8f050d9ea6af,0.0576,0.0577,1,46,208,46,1,fourtwo,,,,,,,,,,,,,,,,,,,,,,,,,,,,,,,,,,,,,,,,,,,,,,,,,,,,,,,,,,,,,,,,,,,,,,,,,,,,,,,,,,,,,,,,,,,,,,,,,,,,,,,,,,,,,,,,,,,,,,,,,,,,,,,,,,,,,,,,,
,,611d06624467771b706c520c,2024-02-22_05h27.48.764,kallum_motion_pilot,2023.2.2,Win32,60.60606061,611d06624467771b706c520c,65d6bb0e977760de756971f7,65d6bf13187b8f050d9ea6af,0.0577,0.0578,1,47,209,105,1,fiveseven,,,,,,,,,,,,,,,,,,,,,,,,,,,,,,,,,,,,,,,,,,,,,,,,,,,,,,,,,,,,,,,,,,,,,,,,,,,,,,,,,,,,,,,,,,,,,,,,,,,,,,,,,,,,,,,,,,,,,,,,,,,,,,,,,,,,,,,,,
,,611d06624467771b706c520c,2024-02-22_05h27.48.764,kallum_motion_pilot,2023.2.2,Win32,60.60606061,611d06624467771b706c520c,65d6bb0e977760de756971f7,65d6bf13187b8f050d9ea6af,0.0578,0.0578,1,48,210,92,1,sevenfive,,,,,,,,,,,,,,,,,,,,,,,,,,,,,,,,,,,,,,,,,,,,,,,,,,,,,,,,,,,,,,,,,,,,,,,,,,,,,,,,,,,,,,,,,,,,,,,,,,,,,,,,,,,,,,,,,,,,,,,,,,,,,,,,,,,,,,,,,
,,611d06624467771b706c520c,2024-02-22_05h27.48.764,kallum_motion_pilot,2023.2.2,Win32,60.60606061,611d06624467771b706c520c,65d6bb0e977760de756971f7,65d6bf13187b8f050d9ea6af,0.058,0.058,1,49,211,30,1,fourtwo,,,,,,,,,,,,,,,,,,,,,,,,,,,,,,,,,,,,,,,,,,,,,,,,,,,,,,,,,,,,,,,,,,,,,,,,,,,,,,,,,,,,,,,,,,,,,,,,,,,,,,,,,,,,,,,,,,,,,,,,,,,,,,,,,,,,,,,,,
,,611d06624467771b706c520c,2024-02-22_05h27.48.764,kallum_motion_pilot,2023.2.2,Win32,60.60606061,611d06624467771b706c520c,65d6bb0e977760de756971f7,65d6bf13187b8f050d9ea6af,0.0581,0.0581,1,50,212,77,1,threefour,,,,,,,,,,,,,,,,,,,,,,,,,,,,,,,,,,,,,,,,,,,,,,,,,,,,,,,,,,,,,,,,,,,,,,,,,,,,,,,,,,,,,,,,,,,,,,,,,,,,,,,,,,,,,,,,,,,,,,,,,,,,,,,,,,,,,,,,,
,,611d06624467771b706c520c,2024-02-22_05h27.48.764,kallum_motion_pilot,2023.2.2,Win32,60.60606061,611d06624467771b706c520c,65d6bb0e977760de756971f7,65d6bf13187b8f050d9ea6af,0.0582,0.0583,1,51,213,129,1,fiveseven,,,,,,,,,,,,,,,,,,,,,,,,,,,,,,,,,,,,,,,,,,,,,,,,,,,,,,,,,,,,,,,,,,,,,,,,,,,,,,,,,,,,,,,,,,,,,,,,,,,,,,,,,,,,,,,,,,,,,,,,,,,,,,,,,,,,,,,,,
,,611d06624467771b706c520c,2024-02-22_05h27.48.764,kallum_motion_pilot,2023.2.2,Win32,60.60606061,611d06624467771b706c520c,65d6bb0e977760de756971f7,65d6bf13187b8f050d9ea6af,0.0583,0.0584,1,52,214,117,1,seveneight,,,,,,,,,,,,,,,,,,,,,,,,,,,,,,,,,,,,,,,,,,,,,,,,,,,,,,,,,,,,,,,,,,,,,,,,,,,,,,,,,,,,,,,,,,,,,,,,,,,,,,,,,,,,,,,,,,,,,,,,,,,,,,,,,,,,,,,,,
,,611d06624467771b706c520c,2024-02-22_05h27.48.764,kallum_motion_pilot,2023.2.2,Win32,60.60606061,611d06624467771b706c520c,65d6bb0e977760de756971f7,65d6bf13187b8f050d9ea6af,0.0585,0.0585,1,53,215,37,1,threefour,,,,,,,,,,,,,,,,,,,,,,,,,,,,,,,,,,,,,,,,,,,,,,,,,,,,,,,,,,,,,,,,,,,,,,,,,,,,,,,,,,,,,,,,,,,,,,,,,,,,,,,,,,,,,,,,,,,,,,,,,,,,,,,,,,,,,,,,,
,,611d06624467771b706c520c,2024-02-22_05h27.48.764,kallum_motion_pilot,2023.2.2,Win32,60.60606061,611d06624467771b706c520c,65d6bb0e977760de756971f7,65d6bf13187b8f050d9ea6af,0.0585,0.0586,1,54,216,127,1,eightseven,,,,,,,,,,,,,,,,,,,,,,,,,,,,,,,,,,,,,,,,,,,,,,,,,,,,,,,,,,,,,,,,,,,,,,,,,,,,,,,,,,,,,,,,,,,,,,,,,,,,,,,,,,,,,,,,,,,,,,,,,,,,,,,,,,,,,,,,,
,,611d06624467771b706c520c,2024-02-22_05h27.48.764,kallum_motion_pilot,2023.2.2,Win32,60.60606061,611d06624467771b706c520c,65d6bb0e977760de756971f7,65d6bf13187b8f050d9ea6af,0.0588,0.0588,1,55,217,97,1,fiveseven,,,,,,,,,,,,,,,,,,,,,,,,,,,,,,,,,,,,,,,,,,,,,,,,,,,,,,,,,,,,,,,,,,,,,,,,,,,,,,,,,,,,,,,,,,,,,,,,,,,,,,,,,,,,,,,,,,,,,,,,,,,,,,,,,,,,,,,,,
,,611d06624467771b706c520c,2024-02-22_05h27.48.764,kallum_motion_pilot,2023.2.2,Win32,60.60606061,611d06624467771b706c520c,65d6bb0e977760de756971f7,65d6bf13187b8f050d9ea6af,0.0588,0.0588,1,56,218,101,1,seveneight,,,,,,,,,,,,,,,,,,,,,,,,,,,,,,,,,,,,,,,,,,,,,,,,,,,,,,,,,,,,,,,,,,,,,,,,,,,,,,,,,,,,,,,,,,,,,,,,,,,,,,,,,,,,,,,,,,,,,,,,,,,,,,,,,,,,,,,,,
,,611d06624467771b706c520c,2024-02-22_05h27.48.764,kallum_motion_pilot,2023.2.2,Win32,60.60606061,611d06624467771b706c520c,65d6bb0e977760de756971f7,65d6bf13187b8f050d9ea6af,0.059,0.059,1,57,219,96,1,fivesix,,,,,,,,,,,,,,,,,,,,,,,,,,,,,,,,,,,,,,,,,,,,,,,,,,,,,,,,,,,,,,,,,,,,,,,,,,,,,,,,,,,,,,,,,,,,,,,,,,,,,,,,,,,,,,,,,,,,,,,,,,,,,,,,,,,,,,,,,
,,611d06624467771b706c520c,2024-02-22_05h27.48.764,kallum_motion_pilot,2023.2.2,Win32,60.60606061,611d06624467771b706c520c,65d6bb0e977760de756971f7,65d6bf13187b8f050d9ea6af,0.059,0.0591,1,58,220,73,1,onethree,,,,,,,,,,,,,,,,,,,,,,,,,,,,,,,,,,,,,,,,,,,,,,,,,,,,,,,,,,,,,,,,,,,,,,,,,,,,,,,,,,,,,,,,,,,,,,,,,,,,,,,,,,,,,,,,,,,,,,,,,,,,,,,,,,,,,,,,,
,,611d06624467771b706c520c,2024-02-22_05h27.48.764,kallum_motion_pilot,2023.2.2,Win32,60.60606061,611d06624467771b706c520c,65d6bb0e977760de756971f7,65d6bf13187b8f050d9ea6af,0.0592,0.0592,1,59,221,142,1,eightsix,,,,,,,,,,,,,,,,,,,,,,,,,,,,,,,,,,,,,,,,,,,,,,,,,,,,,,,,,,,,,,,,,,,,,,,,,,,,,,,,,,,,,,,,,,,,,,,,,,,,,,,,,,,,,,,,,,,,,,,,,,,,,,,,,,,,,,,,,
,,611d06624467771b706c520c,2024-02-22_05h27.48.764,kallum_motion_pilot,2023.2.2,Win32,60.60606061,611d06624467771b706c520c,65d6bb0e977760de756971f7,65d6bf13187b8f050d9ea6af,0.0593,0.0593,1,60,222,115,1,sixeight,,,,,,,,,,,,,,,,,,,,,,,,,,,,,,,,,,,,,,,,,,,,,,,,,,,,,,,,,,,,,,,,,,,,,,,,,,,,,,,,,,,,,,,,,,,,,,,,,,,,,,,,,,,,,,,,,,,,,,,,,,,,,,,,,,,,,,,,,
,,611d06624467771b706c520c,2024-02-22_05h27.48.764,kallum_motion_pilot,2023.2.2,Win32,60.60606061,611d06624467771b706c520c,65d6bb0e977760de756971f7,65d6bf13187b8f050d9ea6af,0.0594,0.0595,1,61,223,45,1,threefour,,,,,,,,,,,,,,,,,,,,,,,,,,,,,,,,,,,,,,,,,,,,,,,,,,,,,,,,,,,,,,,,,,,,,,,,,,,,,,,,,,,,,,,,,,,,,,,,,,,,,,,,,,,,,,,,,,,,,,,,,,,,,,,,,,,,,,,,,
,,611d06624467771b706c520c,2024-02-22_05h27.48.764,kallum_motion_pilot,2023.2.2,Win32,60.60606061,611d06624467771b706c520c,65d6bb0e977760de756971f7,65d6bf13187b8f050d9ea6af,0.0596,0.0596,1,62,224,85,1,seveneight,,,,,,,,,,,,,,,,,,,,,,,,,,,,,,,,,,,,,,,,,,,,,,,,,,,,,,,,,,,,,,,,,,,,,,,,,,,,,,,,,,,,,,,,,,,,,,,,,,,,,,,,,,,,,,,,,,,,,,,,,,,,,,,,,,,,,,,,,
,,611d06624467771b706c520c,2024-02-22_05h27.48.764,kallum_motion_pilot,2023.2.2,Win32,60.60606061,611d06624467771b706c520c,65d6bb0e977760de756971f7,65d6bf13187b8f050d9ea6af,0.0596,0.0597,1,63,225,140,1,sevenfive,,,,,,,,,,,,,,,,,,,,,,,,,,,,,,,,,,,,,,,,,,,,,,,,,,,,,,,,,,,,,,,,,,,,,,,,,,,,,,,,,,,,,,,,,,,,,,,,,,,,,,,,,,,,,,,,,,,,,,,,,,,,,,,,,,,,,,,,,
,,611d06624467771b706c520c,2024-02-22_05h27.48.764,kallum_motion_pilot,2023.2.2,Win32,60.60606061,611d06624467771b706c520c,65d6bb0e977760de756971f7,65d6bf13187b8f050d9ea6af,0.0598,0.0599,1,64,226,72,1,onetwo,,,,,,,,,,,,,,,,,,,,,,,,,,,,,,,,,,,,,,,,,,,,,,,,,,,,,,,,,,,,,,,,,,,,,,,,,,,,,,,,,,,,,,,,,,,,,,,,,,,,,,,,,,,,,,,,,,,,,,,,,,,,,,,,,,,,,,,,,
,,611d06624467771b706c520c,2024-02-22_05h27.48.764,kallum_motion_pilot,2023.2.2,Win32,60.60606061,611d06624467771b706c520c,65d6bb0e977760de756971f7,65d6bf13187b8f050d9ea6af,0.06,0.0601,1,65,227,70,1,fourtwo,,,,,,,,,,,,,,,,,,,,,,,,,,,,,,,,,,,,,,,,,,,,,,,,,,,,,,,,,,,,,,,,,,,,,,,,,,,,,,,,,,,,,,,,,,,,,,,,,,,,,,,,,,,,,,,,,,,,,,,,,,,,,,,,,,,,,,,,,
,,611d06624467771b706c520c,2024-02-22_05h27.48.764,kallum_motion_pilot,2023.2.2,Win32,60.60606061,611d06624467771b706c520c,65d6bb0e977760de756971f7,65d6bf13187b8f050d9ea6af,0.0602,0.0603,1,66,228,17,1,onethree,,,,,,,,,,,,,,,,,,,,,,,,,,,,,,,,,,,,,,,,,,,,,,,,,,,,,,,,,,,,,,,,,,,,,,,,,,,,,,,,,,,,,,,,,,,,,,,,,,,,,,,,,,,,,,,,,,,,,,,,,,,,,,,,,,,,,,,,,
,,611d06624467771b706c520c,2024-02-22_05h27.48.764,kallum_motion_pilot,2023.2.2,Win32,60.60606061,611d06624467771b706c520c,65d6bb0e977760de756971f7,65d6bf13187b8f050d9ea6af,0.0604,0.0605,1,67,229,112,1,fivesix,,,,,,,,,,,,,,,,,,,,,,,,,,,,,,,,,,,,,,,,,,,,,,,,,,,,,,,,,,,,,,,,,,,,,,,,,,,,,,,,,,,,,,,,,,,,,,,,,,,,,,,,,,,,,,,,,,,,,,,,,,,,,,,,,,,,,,,,,
,,611d06624467771b706c520c,2024-02-22_05h27.48.764,kallum_motion_pilot,2023.2.2,Win32,60.60606061,611d06624467771b706c520c,65d6bb0e977760de756971f7,65d6bf13187b8f050d9ea6af,0.0606,0.0607,1,68,230,54,1,fourtwo,,,,,,,,,,,,,,,,,,,,,,,,,,,,,,,,,,,,,,,,,,,,,,,,,,,,,,,,,,,,,,,,,,,,,,,,,,,,,,,,,,,,,,,,,,,,,,,,,,,,,,,,,,,,,,,,,,,,,,,,,,,,,,,,,,,,,,,,,
,,611d06624467771b706c520c,2024-02-22_05h27.48.764,kallum_motion_pilot,2023.2.2,Win32,60.60606061,611d06624467771b706c520c,65d6bb0e977760de756971f7,65d6bf13187b8f050d9ea6af,0.0607,0.0608,1,69,231,141,1,seveneight,,,,,,,,,,,,,,,,,,,,,,,,,,,,,,,,,,,,,,,,,,,,,,,,,,,,,,,,,,,,,,,,,,,,,,,,,,,,,,,,,,,,,,,,,,,,,,,,,,,,,,,,,,,,,,,,,,,,,,,,,,,,,,,,,,,,,,,,,
,,611d06624467771b706c520c,2024-02-22_05h27.48.764,kallum_motion_pilot,2023.2.2,Win32,60.60606061,611d06624467771b706c520c,65d6bb0e977760de756971f7,65d6bf13187b8f050d9ea6af,0.0609,0.061,1,70,232,120,1,fivesix,,,,,,,,,,,,,,,,,,,,,,,,,,,,,,,,,,,,,,,,,,,,,,,,,,,,,,,,,,,,,,,,,,,,,,,,,,,,,,,,,,,,,,,,,,,,,,,,,,,,,,,,,,,,,,,,,,,,,,,,,,,,,,,,,,,,,,,,,
,,611d06624467771b706c520c,2024-02-22_05h27.48.764,kallum_motion_pilot,2023.2.2,Win32,60.60606061,611d06624467771b706c520c,65d6bb0e977760de756971f7,65d6bf13187b8f050d9ea6af,0.0611,0.0613,1,71,233,1,1,onethree,,,,,,,,,,,,,,,,,,,,,,,,,,,,,,,,,,,,,,,,,,,,,,,,,,,,,,,,,,,,,,,,,,,,,,,,,,,,,,,,,,,,,,,,,,,,,,,,,,,,,,,,,,,,,,,,,,,,,,,,,,,,,,,,,,,,,,,,,
,,611d06624467771b706c520c,2024-02-22_05h27.48.764,kallum_motion_pilot,2023.2.2,Win32,60.60606061,611d06624467771b706c520c,65d6bb0e977760de756971f7,65d6bf13187b8f050d9ea6af,0.0613,0.0615,1,72,234,104,1,fivesix,,,,,,,,,,,,,,,,,,,,,,,,,,,,,,,,,,,,,,,,,,,,,,,,,,,,,,,,,,,,,,,,,,,,,,,,,,,,,,,,,,,,,,,,,,,,,,,,,,,,,,,,,,,,,,,,,,,,,,,,,,,,,,,,,,,,,,,,,
,,611d06624467771b706c520c,2024-02-22_05h27.48.764,kallum_motion_pilot,2023.2.2,Win32,60.60606061,611d06624467771b706c520c,65d6bb0e977760de756971f7,65d6bf13187b8f050d9ea6af,0.0616,0.0617,1,73,235,87,1,eightseven,,,,,,,,,,,,,,,,,,,,,,,,,,,,,,,,,,,,,,,,,,,,,,,,,,,,,,,,,,,,,,,,,,,,,,,,,,,,,,,,,,,,,,,,,,,,,,,,,,,,,,,,,,,,,,,,,,,,,,,,,,,,,,,,,,,,,,,,,
,,611d06624467771b706c520c,2024-02-22_05h27.48.764,kallum_motion_pilot,2023.2.2,Win32,60.60606061,611d06624467771b706c520c,65d6bb0e977760de756971f7,65d6bf13187b8f050d9ea6af,0.0618,0.0618,1,74,236,48,1,onetwo,,,,,,,,,,,,,,,,,,,,,,,,,,,,,,,,,,,,,,,,,,,,,,,,,,,,,,,,,,,,,,,,,,,,,,,,,,,,,,,,,,,,,,,,,,,,,,,,,,,,,,,,,,,,,,,,,,,,,,,,,,,,,,,,,,,,,,,,,
,,611d06624467771b706c520c,2024-02-22_05h27.48.764,kallum_motion_pilot,2023.2.2,Win32,60.60606061,611d06624467771b706c520c,65d6bb0e977760de756971f7,65d6bf13187b8f050d9ea6af,0.0619,0.062,1,75,237,121,1,fiveseven,,,,,,,,,,,,,,,,,,,,,,,,,,,,,,,,,,,,,,,,,,,,,,,,,,,,,,,,,,,,,,,,,,,,,,,,,,,,,,,,,,,,,,,,,,,,,,,,,,,,,,,,,,,,,,,,,,,,,,,,,,,,,,,,,,,,,,,,,
,,611d06624467771b706c520c,2024-02-22_05h27.48.764,kallum_motion_pilot,2023.2.2,Win32,60.60606061,611d06624467771b706c520c,65d6bb0e977760de756971f7,65d6bf13187b8f050d9ea6af,0.0621,0.0621,1,76,238,20,1,threeone,,,,,,,,,,,,,,,,,,,,,,,,,,,,,,,,,,,,,,,,,,,,,,,,,,,,,,,,,,,,,,,,,,,,,,,,,,,,,,,,,,,,,,,,,,,,,,,,,,,,,,,,,,,,,,,,,,,,,,,,,,,,,,,,,,,,,,,,,
,,611d06624467771b706c520c,2024-02-22_05h27.48.764,kallum_motion_pilot,2023.2.2,Win32,60.60606061,611d06624467771b706c520c,65d6bb0e977760de756971f7,65d6bf13187b8f050d9ea6af,0.0623,0.0623,1,77,239,49,1,onethree,,,,,,,,,,,,,,,,,,,,,,,,,,,,,,,,,,,,,,,,,,,,,,,,,,,,,,,,,,,,,,,,,,,,,,,,,,,,,,,,,,,,,,,,,,,,,,,,,,,,,,,,,,,,,,,,,,,,,,,,,,,,,,,,,,,,,,,,,
,,611d06624467771b706c520c,2024-02-22_05h27.48.764,kallum_motion_pilot,2023.2.2,Win32,60.60606061,611d06624467771b706c520c,65d6bb0e977760de756971f7,65d6bf13187b8f050d9ea6af,0.0625,0.0626,1,78,240,12,1,threeone,,,,,,,,,,,,,,,,,,,,,,,,,,,,,,,,,,,,,,,,,,,,,,,,,,,,,,,,,,,,,,,,,,,,,,,,,,,,,,,,,,,,,,,,,,,,,,,,,,,,,,,,,,,,,,,,,,,,,,,,,,,,,,,,,,,,,,,,,
,,611d06624467771b706c520c,2024-02-22_05h27.48.764,kallum_motion_pilot,2023.2.2,Win32,60.60606061,611d06624467771b706c520c,65d6bb0e977760de756971f7,65d6bf13187b8f050d9ea6af,0.0626,0.0627,1,79,241,33,1,onethree,,,,,,,,,,,,,,,,,,,,,,,,,,,,,,,,,,,,,,,,,,,,,,,,,,,,,,,,,,,,,,,,,,,,,,,,,,,,,,,,,,,,,,,,,,,,,,,,,,,,,,,,,,,,,,,,,,,,,,,,,,,,,,,,,,,,,,,,,
,,611d06624467771b706c520c,2024-02-22_05h27.48.764,kallum_motion_pilot,2023.2.2,Win32,60.60606061,611d06624467771b706c520c,65d6bb0e977760de756971f7,65d6bf13187b8f050d9ea6af,0.0628,0.0628,1,80,242,108,1,sevenfive,,,,,,,,,,,,,,,,,,,,,,,,,,,,,,,,,,,,,,,,,,,,,,,,,,,,,,,,,,,,,,,,,,,,,,,,,,,,,,,,,,,,,,,,,,,,,,,,,,,,,,,,,,,,,,,,,,,,,,,,,,,,,,,,,,,,,,,,,
,,611d06624467771b706c520c,2024-02-22_05h27.48.764,kallum_motion_pilot,2023.2.2,Win32,60.60606061,611d06624467771b706c520c,65d6bb0e977760de756971f7,65d6bf13187b8f050d9ea6af,0.0629,0.063,1,81,243,106,1,sixfive,,,,,,,,,,,,,,,,,,,,,,,,,,,,,,,,,,,,,,,,,,,,,,,,,,,,,,,,,,,,,,,,,,,,,,,,,,,,,,,,,,,,,,,,,,,,,,,,,,,,,,,,,,,,,,,,,,,,,,,,,,,,,,,,,,,,,,,,,
,,611d06624467771b706c520c,2024-02-22_05h27.48.764,kallum_motion_pilot,2023.2.2,Win32,60.60606061,611d06624467771b706c520c,65d6bb0e977760de756971f7,65d6bf13187b8f050d9ea6af,0.063,0.0631,1,82,244,43,1,twofour,,,,,,,,,,,,,,,,,,,,,,,,,,,,,,,,,,,,,,,,,,,,,,,,,,,,,,,,,,,,,,,,,,,,,,,,,,,,,,,,,,,,,,,,,,,,,,,,,,,,,,,,,,,,,,,,,,,,,,,,,,,,,,,,,,,,,,,,,
,,611d06624467771b706c520c,2024-02-22_05h27.48.764,kallum_motion_pilot,2023.2.2,Win32,60.60606061,611d06624467771b706c520c,65d6bb0e977760de756971f7,65d6bf13187b8f050d9ea6af,0.0632,0.0633,1,83,245,84,1,sevenfive,,,,,,,,,,,,,,,,,,,,,,,,,,,,,,,,,,,,,,,,,,,,,,,,,,,,,,,,,,,,,,,,,,,,,,,,,,,,,,,,,,,,,,,,,,,,,,,,,,,,,,,,,,,,,,,,,,,,,,,,,,,,,,,,,,,,,,,,,
,,611d06624467771b706c520c,2024-02-22_05h27.48.764,kallum_motion_pilot,2023.2.2,Win32,60.60606061,611d06624467771b706c520c,65d6bb0e977760de756971f7,65d6bf13187b8f050d9ea6af,0.0634,0.0634,1,84,246,57,1,onethree,,,,,,,,,,,,,,,,,,,,,,,,,,,,,,,,,,,,,,,,,,,,,,,,,,,,,,,,,,,,,,,,,,,,,,,,,,,,,,,,,,,,,,,,,,,,,,,,,,,,,,,,,,,,,,,,,,,,,,,,,,,,,,,,,,,,,,,,,
,,611d06624467771b706c520c,2024-02-22_05h27.48.764,kallum_motion_pilot,2023.2.2,Win32,60.60606061,611d06624467771b706c520c,65d6bb0e977760de756971f7,65d6bf13187b8f050d9ea6af,0.0635,0.0637,1,85,247,125,1,seveneight,,,,,,,,,,,,,,,,,,,,,,,,,,,,,,,,,,,,,,,,,,,,,,,,,,,,,,,,,,,,,,,,,,,,,,,,,,,,,,,,,,,,,,,,,,,,,,,,,,,,,,,,,,,,,,,,,,,,,,,,,,,,,,,,,,,,,,,,,
,,611d06624467771b706c520c,2024-02-22_05h27.48.764,kallum_motion_pilot,2023.2.2,Win32,60.60606061,611d06624467771b706c520c,65d6bb0e977760de756971f7,65d6bf13187b8f050d9ea6af,0.0637,0.0639,1,86,248,126,1,eightsix,,,,,,,,,,,,,,,,,,,,,,,,,,,,,,,,,,,,,,,,,,,,,,,,,,,,,,,,,,,,,,,,,,,,,,,,,,,,,,,,,,,,,,,,,,,,,,,,,,,,,,,,,,,,,,,,,,,,,,,,,,,,,,,,,,,,,,,,,
,,611d06624467771b706c520c,2024-02-22_05h27.48.764,kallum_motion_pilot,2023.2.2,Win32,60.60606061,611d06624467771b706c520c,65d6bb0e977760de756971f7,65d6bf13187b8f050d9ea6af,0.0639,0.0639,1,87,249,34,1,twoone,,,,,,,,,,,,,,,,,,,,,,,,,,,,,,,,,,,,,,,,,,,,,,,,,,,,,,,,,,,,,,,,,,,,,,,,,,,,,,,,,,,,,,,,,,,,,,,,,,,,,,,,,,,,,,,,,,,,,,,,,,,,,,,,,,,,,,,,,
,,611d06624467771b706c520c,2024-02-22_05h27.48.764,kallum_motion_pilot,2023.2.2,Win32,60.60606061,611d06624467771b706c520c,65d6bb0e977760de756971f7,65d6bf13187b8f050d9ea6af,0.064,0.0641,1,88,250,75,1,twofour,,,,,,,,,,,,,,,,,,,,,,,,,,,,,,,,,,,,,,,,,,,,,,,,,,,,,,,,,,,,,,,,,,,,,,,,,,,,,,,,,,,,,,,,,,,,,,,,,,,,,,,,,,,,,,,,,,,,,,,,,,,,,,,,,,,,,,,,,
,,611d06624467771b706c520c,2024-02-22_05h27.48.764,kallum_motion_pilot,2023.2.2,Win32,60.60606061,611d06624467771b706c520c,65d6bb0e977760de756971f7,65d6bf13187b8f050d9ea6af,0.0642,0.0642,1,89,251,59,1,twofour,,,,,,,,,,,,,,,,,,,,,,,,,,,,,,,,,,,,,,,,,,,,,,,,,,,,,,,,,,,,,,,,,,,,,,,,,,,,,,,,,,,,,,,,,,,,,,,,,,,,,,,,,,,,,,,,,,,,,,,,,,,,,,,,,,,,,,,,,
,,611d06624467771b706c520c,2024-02-22_05h27.48.764,kallum_motion_pilot,2023.2.2,Win32,60.60606061,611d06624467771b706c520c,65d6bb0e977760de756971f7,65d6bf13187b8f050d9ea6af,0.0643,0.0643,1,90,252,152,1,fivesix,,,,,,,,,,,,,,,,,,,,,,,,,,,,,,,,,,,,,,,,,,,,,,,,,,,,,,,,,,,,,,,,,,,,,,,,,,,,,,,,,,,,,,,,,,,,,,,,,,,,,,,,,,,,,,,,,,,,,,,,,,,,,,,,,,,,,,,,,
,,611d06624467771b706c520c,2024-02-22_05h27.48.764,kallum_motion_pilot,2023.2.2,Win32,60.60606061,611d06624467771b706c520c,65d6bb0e977760de756971f7,65d6bf13187b8f050d9ea6af,0.0645,0.0646,1,91,253,128,1,fivesix,,,,,,,,,,,,,,,,,,,,,,,,,,,,,,,,,,,,,,,,,,,,,,,,,,,,,,,,,,,,,,,,,,,,,,,,,,,,,,,,,,,,,,,,,,,,,,,,,,,,,,,,,,,,,,,,,,,,,,,,,,,,,,,,,,,,,,,,,
,,611d06624467771b706c520c,2024-02-22_05h27.48.764,kallum_motion_pilot,2023.2.2,Win32,60.60606061,611d06624467771b706c520c,65d6bb0e977760de756971f7,65d6bf13187b8f050d9ea6af,0.0646,0.0646,1,92,254,18,1,twoone,,,,,,,,,,,,,,,,,,,,,,,,,,,,,,,,,,,,,,,,,,,,,,,,,,,,,,,,,,,,,,,,,,,,,,,,,,,,,,,,,,,,,,,,,,,,,,,,,,,,,,,,,,,,,,,,,,,,,,,,,,,,,,,,,,,,,,,,,
,,611d06624467771b706c520c,2024-02-22_05h27.48.764,kallum_motion_pilot,2023.2.2,Win32,60.60606061,611d06624467771b706c520c,65d6bb0e977760de756971f7,65d6bf13187b8f050d9ea6af,0.0652,0.0652,1,93,255,150,1,eightsix,,,,,,,,,,,,,,,,,,,,,,,,,,,,,,,,,,,,,,,,,,,,,,,,,,,,,,,,,,,,,,,,,,,,,,,,,,,,,,,,,,,,,,,,,,,,,,,,,,,,,,,,,,,,,,,,,,,,,,,,,,,,,,,,,,,,,,,,,
,,611d06624467771b706c520c,2024-02-22_05h27.48.764,kallum_motion_pilot,2023.2.2,Win32,60.60606061,611d06624467771b706c520c,65d6bb0e977760de756971f7,65d6bf13187b8f050d9ea6af,0.0653,0.0654,1,94,256,39,1,fourthree,,,,,,,,,,,,,,,,,,,,,,,,,,,,,,,,,,,,,,,,,,,,,,,,,,,,,,,,,,,,,,,,,,,,,,,,,,,,,,,,,,,,,,,,,,,,,,,,,,,,,,,,,,,,,,,,,,,,,,,,,,,,,,,,,,,,,,,,,
,,611d06624467771b706c520c,2024-02-22_05h27.48.764,kallum_motion_pilot,2023.2.2,Win32,60.60606061,611d06624467771b706c520c,65d6bb0e977760de756971f7,65d6bf13187b8f050d9ea6af,0.0654,0.0655,1,95,257,26,1,twoone,,,,,,,,,,,,,,,,,,,,,,,,,,,,,,,,,,,,,,,,,,,,,,,,,,,,,,,,,,,,,,,,,,,,,,,,,,,,,,,,,,,,,,,,,,,,,,,,,,,,,,,,,,,,,,,,,,,,,,,,,,,,,,,,,,,,,,,,,
,,611d06624467771b706c520c,2024-02-22_05h27.48.764,kallum_motion_pilot,2023.2.2,Win32,60.60606061,611d06624467771b706c520c,65d6bb0e977760de756971f7,65d6bf13187b8f050d9ea6af,0.0656,0.0656,1,96,258,148,1,sevenfive,,,,,,,,,,,,,,,,,,,,,,,,,,,,,,,,,,,,,,,,,,,,,,,,,,,,,,,,,,,,,,,,,,,,,,,,,,,,,,,,,,,,,,,,,,,,,,,,,,,,,,,,,,,,,,,,,,,,,,,,,,,,,,,,,,,,,,,,,
,,611d06624467771b706c520c,2024-02-22_05h27.48.764,kallum_motion_pilot,2023.2.2,Win32,60.60606061,611d06624467771b706c520c,65d6bb0e977760de756971f7,65d6bf13187b8f050d9ea6af,0.0656,0.0658,1,97,259,52,1,threeone,,,,,,,,,,,,,,,,,,,,,,,,,,,,,,,,,,,,,,,,,,,,,,,,,,,,,,,,,,,,,,,,,,,,,,,,,,,,,,,,,,,,,,,,,,,,,,,,,,,,,,,,,,,,,,,,,,,,,,,,,,,,,,,,,,,,,,,,,
,,611d06624467771b706c520c,2024-02-22_05h27.48.764,kallum_motion_pilot,2023.2.2,Win32,60.60606061,611d06624467771b706c520c,65d6bb0e977760de756971f7,65d6bf13187b8f050d9ea6af,0.0659,0.0659,1,98,260,13,1,threefour,,,,,,,,,,,,,,,,,,,,,,,,,,,,,,,,,,,,,,,,,,,,,,,,,,,,,,,,,,,,,,,,,,,,,,,,,,,,,,,,,,,,,,,,,,,,,,,,,,,,,,,,,,,,,,,,,,,,,,,,,,,,,,,,,,,,,,,,,
,,611d06624467771b706c520c,2024-02-22_05h27.48.764,kallum_motion_pilot,2023.2.2,Win32,60.60606061,611d06624467771b706c520c,65d6bb0e977760de756971f7,65d6bf13187b8f050d9ea6af,0.066,0.0661,1,99,261,116,1,sevenfive,,,,,,,,,,,,,,,,,,,,,,,,,,,,,,,,,,,,,,,,,,,,,,,,,,,,,,,,,,,,,,,,,,,,,,,,,,,,,,,,,,,,,,,,,,,,,,,,,,,,,,,,,,,,,,,,,,,,,,,,,,,,,,,,,,,,,,,,,
,,611d06624467771b706c520c,2024-02-22_05h27.48.764,kallum_motion_pilot,2023.2.2,Win32,60.60606061,611d06624467771b706c520c,65d6bb0e977760de756971f7,65d6bf13187b8f050d9ea6af,0.0661,0.0661,1,100,262,122,1,sixfive,,,,,,,,,,,,,,,,,,,,,,,,,,,,,,,,,,,,,,,,,,,,,,,,,,,,,,,,,,,,,,,,,,,,,,,,,,,,,,,,,,,,,,,,,,,,,,,,,,,,,,,,,,,,,,,,,,,,,,,,,,,,,,,,,,,,,,,,,
,,611d06624467771b706c520c,2024-02-22_05h27.48.764,kallum_motion_pilot,2023.2.2,Win32,60.60606061,611d06624467771b706c520c,65d6bb0e977760de756971f7,65d6bf13187b8f050d9ea6af,0.0662,0.0663,1,101,263,114,1,sixfive,,,,,,,,,,,,,,,,,,,,,,,,,,,,,,,,,,,,,,,,,,,,,,,,,,,,,,,,,,,,,,,,,,,,,,,,,,,,,,,,,,,,,,,,,,,,,,,,,,,,,,,,,,,,,,,,,,,,,,,,,,,,,,,,,,,,,,,,,
,,611d06624467771b706c520c,2024-02-22_05h27.48.764,kallum_motion_pilot,2023.2.2,Win32,60.60606061,611d06624467771b706c520c,65d6bb0e977760de756971f7,65d6bf13187b8f050d9ea6af,0.0664,0.0665,1,102,264,138,1,sixfive,,,,,,,,,,,,,,,,,,,,,,,,,,,,,,,,,,,,,,,,,,,,,,,,,,,,,,,,,,,,,,,,,,,,,,,,,,,,,,,,,,,,,,,,,,,,,,,,,,,,,,,,,,,,,,,,,,,,,,,,,,,,,,,,,,,,,,,,,
,,611d06624467771b706c520c,2024-02-22_05h27.48.764,kallum_motion_pilot,2023.2.2,Win32,60.60606061,611d06624467771b706c520c,65d6bb0e977760de756971f7,65d6bf13187b8f050d9ea6af,0.0666,0.0667,1,103,265,19,1,twofour,,,,,,,,,,,,,,,,,,,,,,,,,,,,,,,,,,,,,,,,,,,,,,,,,,,,,,,,,,,,,,,,,,,,,,,,,,,,,,,,,,,,,,,,,,,,,,,,,,,,,,,,,,,,,,,,,,,,,,,,,,,,,,,,,,,,,,,,,
,,611d06624467771b706c520c,2024-02-22_05h27.48.764,kallum_motion_pilot,2023.2.2,Win32,60.60606061,611d06624467771b706c520c,65d6bb0e977760de756971f7,65d6bf13187b8f050d9ea6af,0.0668,0.0668,1,104,266,109,1,seveneight,,,,,,,,,,,,,,,,,,,,,,,,,,,,,,,,,,,,,,,,,,,,,,,,,,,,,,,,,,,,,,,,,,,,,,,,,,,,,,,,,,,,,,,,,,,,,,,,,,,,,,,,,,,,,,,,,,,,,,,,,,,,,,,,,,,,,,,,,
,,611d06624467771b706c520c,2024-02-22_05h27.48.764,kallum_motion_pilot,2023.2.2,Win32,60.60606061,611d06624467771b706c520c,65d6bb0e977760de756971f7,65d6bf13187b8f050d9ea6af,0.0669,0.0669,1,105,267,157,1,seveneight,,,,,,,,,,,,,,,,,,,,,,,,,,,,,,,,,,,,,,,,,,,,,,,,,,,,,,,,,,,,,,,,,,,,,,,,,,,,,,,,,,,,,,,,,,,,,,,,,,,,,,,,,,,,,,,,,,,,,,,,,,,,,,,,,,,,,,,,,
,,611d06624467771b706c520c,2024-02-22_05h27.48.764,kallum_motion_pilot,2023.2.2,Win32,60.60606061,611d06624467771b706c520c,65d6bb0e977760de756971f7,65d6bf13187b8f050d9ea6af,0.0671,0.0671,1,106,268,155,1,sixeight,,,,,,,,,,,,,,,,,,,,,,,,,,,,,,,,,,,,,,,,,,,,,,,,,,,,,,,,,,,,,,,,,,,,,,,,,,,,,,,,,,,,,,,,,,,,,,,,,,,,,,,,,,,,,,,,,,,,,,,,,,,,,,,,,,,,,,,,,
,,611d06624467771b706c520c,2024-02-22_05h27.48.764,kallum_motion_pilot,2023.2.2,Win32,60.60606061,611d06624467771b706c520c,65d6bb0e977760de756971f7,65d6bf13187b8f050d9ea6af,0.0672,0.0672,1,107,269,16,1,onetwo,,,,,,,,,,,,,,,,,,,,,,,,,,,,,,,,,,,,,,,,,,,,,,,,,,,,,,,,,,,,,,,,,,,,,,,,,,,,,,,,,,,,,,,,,,,,,,,,,,,,,,,,,,,,,,,,,,,,,,,,,,,,,,,,,,,,,,,,,
,,611d06624467771b706c520c,2024-02-22_05h27.48.764,kallum_motion_pilot,2023.2.2,Win32,60.60606061,611d06624467771b706c520c,65d6bb0e977760de756971f7,65d6bf13187b8f050d9ea6af,0.0674,0.0678,1,108,270,133,1,seveneight,,,,,,,,,,,,,,,,,,,,,,,,,,,,,,,,,,,,,,,,,,,,,,,,,,,,,,,,,,,,,,,,,,,,,,,,,,,,,,,,,,,,,,,,,,,,,,,,,,,,,,,,,,,,,,,,,,,,,,,,,,,,,,,,,,,,,,,,,
,,611d06624467771b706c520c,2024-02-22_05h27.48.764,kallum_motion_pilot,2023.2.2,Win32,60.60606061,611d06624467771b706c520c,65d6bb0e977760de756971f7,65d6bf13187b8f050d9ea6af,0.0682,0.0682,1,109,271,131,1,sixeight,,,,,,,,,,,,,,,,,,,,,,,,,,,,,,,,,,,,,,,,,,,,,,,,,,,,,,,,,,,,,,,,,,,,,,,,,,,,,,,,,,,,,,,,,,,,,,,,,,,,,,,,,,,,,,,,,,,,,,,,,,,,,,,,,,,,,,,,,
,,611d06624467771b706c520c,2024-02-22_05h27.48.764,kallum_motion_pilot,2023.2.2,Win32,60.60606061,611d06624467771b706c520c,65d6bb0e977760de756971f7,65d6bf13187b8f050d9ea6af,0.0684,0.0686,1,110,272,113,1,fiveseven,,,,,,,,,,,,,,,,,,,,,,,,,,,,,,,,,,,,,,,,,,,,,,,,,,,,,,,,,,,,,,,,,,,,,,,,,,,,,,,,,,,,,,,,,,,,,,,,,,,,,,,,,,,,,,,,,,,,,,,,,,,,,,,,,,,,,,,,,
,,611d06624467771b706c520c,2024-02-22_05h27.48.764,kallum_motion_pilot,2023.2.2,Win32,60.60606061,611d06624467771b706c520c,65d6bb0e977760de756971f7,65d6bf13187b8f050d9ea6af,0.0687,0.0688,1,111,273,24,1,onetwo,,,,,,,,,,,,,,,,,,,,,,,,,,,,,,,,,,,,,,,,,,,,,,,,,,,,,,,,,,,,,,,,,,,,,,,,,,,,,,,,,,,,,,,,,,,,,,,,,,,,,,,,,,,,,,,,,,,,,,,,,,,,,,,,,,,,,,,,,
,,611d06624467771b706c520c,2024-02-22_05h27.48.764,kallum_motion_pilot,2023.2.2,Win32,60.60606061,611d06624467771b706c520c,65d6bb0e977760de756971f7,65d6bf13187b8f050d9ea6af,0.0689,0.069,1,112,274,146,1,sixfive,,,,,,,,,,,,,,,,,,,,,,,,,,,,,,,,,,,,,,,,,,,,,,,,,,,,,,,,,,,,,,,,,,,,,,,,,,,,,,,,,,,,,,,,,,,,,,,,,,,,,,,,,,,,,,,,,,,,,,,,,,,,,,,,,,,,,,,,,
,,611d06624467771b706c520c,2024-02-22_05h27.48.764,kallum_motion_pilot,2023.2.2,Win32,60.60606061,611d06624467771b706c520c,65d6bb0e977760de756971f7,65d6bf13187b8f050d9ea6af,0.069,0.0692,1,113,275,15,1,fourthree,,,,,,,,,,,,,,,,,,,,,,,,,,,,,,,,,,,,,,,,,,,,,,,,,,,,,,,,,,,,,,,,,,,,,,,,,,,,,,,,,,,,,,,,,,,,,,,,,,,,,,,,,,,,,,,,,,,,,,,,,,,,,,,,,,,,,,,,,
,,611d06624467771b706c520c,2024-02-22_05h27.48.764,kallum_motion_pilot,2023.2.2,Win32,60.60606061,611d06624467771b706c520c,65d6bb0e977760de756971f7,65d6bf13187b8f050d9ea6af,0.0693,0.0694,1,114,276,68,1,threeone,,,,,,,,,,,,,,,,,,,,,,,,,,,,,,,,,,,,,,,,,,,,,,,,,,,,,,,,,,,,,,,,,,,,,,,,,,,,,,,,,,,,,,,,,,,,,,,,,,,,,,,,,,,,,,,,,,,,,,,,,,,,,,,,,,,,,,,,,
,,611d06624467771b706c520c,2024-02-22_05h27.48.764,kallum_motion_pilot,2023.2.2,Win32,60.60606061,611d06624467771b706c520c,65d6bb0e977760de756971f7,65d6bf13187b8f050d9ea6af,0.0695,0.0696,1,115,277,100,1,sevenfive,,,,,,,,,,,,,,,,,,,,,,,,,,,,,,,,,,,,,,,,,,,,,,,,,,,,,,,,,,,,,,,,,,,,,,,,,,,,,,,,,,,,,,,,,,,,,,,,,,,,,,,,,,,,,,,,,,,,,,,,,,,,,,,,,,,,,,,,,
