startup.started,startup.stopped,Prolific ID*,date,expName,psychopyVersion,OS,frameRate,participant,study_id,session,stimpositions.started,stimpositions.stopped,hardcoded_stimulus_positions.thisRepN,hardcoded_stimulus_positions.thisTrialN,hardcoded_stimulus_positions.thisN,hardcoded_stimulus_positions.thisIndex,hardcoded_stimulus_positions.ran,StimulusPos,stimorientation.started,stimorientation.stopped,prac_stimorientation_import_loop.thisRepN,prac_stimorientation_import_loop.thisTrialN,prac_stimorientation_import_loop.thisN,prac_stimorientation_import_loop.thisIndex,prac_stimorientation_import_loop.ran,Stimorientation,welcome_instr.started,welcome_instr.stopped,key_resp.keys,key_resp.rt,key_resp.duration,response_steppedout_1.started,response_steppedout_1.stopped,key_resp_20.keys,key_resp_20.rt,key_resp_20.duration,response_steppedout_2.started,response_steppedout_2.stopped,key_resp_19.keys,key_resp_19.rt,key_resp_19.duration,stim_response_instr.started,stim_response_instr.stopped,key_resp_15.keys,key_resp_15.rt,key_resp_15.duration,direction_instr_2.started,direction_instr_2.stopped,key_resp_9.keys,key_resp_9.rt,key_resp_9.duration,instr_prac.started,instr_prac.stopped,key_resp_10.keys,key_resp_10.rt,key_resp_10.duration,Stim1_display_prac.started,Stim1_display_prac.stopped,Ecc,Circle1_ori,Circle2_ori,response_prac.started,similarity,response_time,response_prac.stopped,mouse_5.x,mouse_5.y,mouse_5.leftButton,mouse_5.midButton,mouse_5.rightButton,mouse_5.clicked_name,responseprac_feedback.started,responseprac_feedback.stopped,summary2_prac.started,summary2_prac.stopped,mouse_6.x,mouse_6.y,mouse_6.leftButton,mouse_6.midButton,mouse_6.rightButton,mouse_6.clicked_name,duringprac.thisRepN,duringprac.thisTrialN,duringprac.thisN,duringprac.thisIndex,duringprac.ran,begin.started,begin.stopped,key_resp_22.keys,key_resp_22.rt,key_resp_22.duration,Stim1_display.started,Stim1_display.stopped,circle1_ori,circle2_ori,circle1_SF,circle2_SF,response.started,response.stopped,mouse.x,mouse.y,mouse.leftButton,mouse.midButton,mouse.rightButton,mouse.clicked_name,trialnumber,double_pass.thisRepN,double_pass.thisTrialN,double_pass.thisN,double_pass.thisIndex,double_pass.ran,double_pass.order,main_trial.thisRepN,main_trial.thisTrialN,main_trial.thisN,main_trial.thisIndex,main_trial.ran,main_trial.order,Trial_Counter,Catch,Frequencies,response_2.started,response_2.stopped,mouse_2.x,mouse_2.y,mouse_2.leftButton,mouse_2.midButton,mouse_2.rightButton,mouse_2.clicked_name,special_trial.started,special_trial.stopped,catch_1.started,catch_1.stopped,mouse_3.x,mouse_3.y,mouse_3.leftButton,mouse_3.midButton,mouse_3.rightButton,catchresponse,catchnumber,response_time_catch,response_sum.started,response_sum.stopped,mouse_11.x,mouse_11.y,mouse_11.leftButton,mouse_11.midButton,mouse_11.rightButton,flip_presentation_sequence_for_double_pass.started,flip_presentation_sequence_for_double_pass.stopped,goodbye.started,goodbye.stopped,key_resp_3.keys,key_resp_3.rt,key_resp_3.duration
0.0002,0.0002,611e981ff1974fc524751d25,2024-02-21_21h24.12.926,kallum_motion_pilot,2023.2.2,MacIntel,59.88023952,611e981ff1974fc524751d25,65d6bb0e977760de756971f7,65d6be4211081d3e25dfeead,,,,,,,,,,,,,,,,,,,,,,,,,,,,,,,,,,,,,,,,,,,,,,,,,,,,,,,,,,,,,,,,,,,,,,,,,,,,,,,,,,,,,,,,,,,,,,,,,,,,,,,,,,,,,,,,,,,,,,,,,,,,,,,,,,,,,,,,,,,,,,,,,
,,611e981ff1974fc524751d25,2024-02-21_21h24.12.926,kallum_motion_pilot,2023.2.2,MacIntel,59.88023952,611e981ff1974fc524751d25,65d6bb0e977760de756971f7,65d6be4211081d3e25dfeead,0.0105,0.0106,0,0,0,29,1,threefour,,,,,,,,,,,,,,,,,,,,,,,,,,,,,,,,,,,,,,,,,,,,,,,,,,,,,,,,,,,,,,,,,,,,,,,,,,,,,,,,,,,,,,,,,,,,,,,,,,,,,,,,,,,,,,,,,,,,,,,,,,,,,,,,,,,,,,,,,
,,611e981ff1974fc524751d25,2024-02-21_21h24.12.926,kallum_motion_pilot,2023.2.2,MacIntel,59.88023952,611e981ff1974fc524751d25,65d6bb0e977760de756971f7,65d6be4211081d3e25dfeead,0.0107,0.0107,0,1,1,78,1,fourtwo,,,,,,,,,,,,,,,,,,,,,,,,,,,,,,,,,,,,,,,,,,,,,,,,,,,,,,,,,,,,,,,,,,,,,,,,,,,,,,,,,,,,,,,,,,,,,,,,,,,,,,,,,,,,,,,,,,,,,,,,,,,,,,,,,,,,,,,,,
,,611e981ff1974fc524751d25,2024-02-21_21h24.12.926,kallum_motion_pilot,2023.2.2,MacIntel,59.88023952,611e981ff1974fc524751d25,65d6bb0e977760de756971f7,65d6be4211081d3e25dfeead,0.0107,0.0107,0,2,2,54,1,fourtwo,,,,,,,,,,,,,,,,,,,,,,,,,,,,,,,,,,,,,,,,,,,,,,,,,,,,,,,,,,,,,,,,,,,,,,,,,,,,,,,,,,,,,,,,,,,,,,,,,,,,,,,,,,,,,,,,,,,,,,,,,,,,,,,,,,,,,,,,,
,,611e981ff1974fc524751d25,2024-02-21_21h24.12.926,kallum_motion_pilot,2023.2.2,MacIntel,59.88023952,611e981ff1974fc524751d25,65d6bb0e977760de756971f7,65d6be4211081d3e25dfeead,0.0108,0.0108,0,3,3,156,1,sevenfive,,,,,,,,,,,,,,,,,,,,,,,,,,,,,,,,,,,,,,,,,,,,,,,,,,,,,,,,,,,,,,,,,,,,,,,,,,,,,,,,,,,,,,,,,,,,,,,,,,,,,,,,,,,,,,,,,,,,,,,,,,,,,,,,,,,,,,,,,
,,611e981ff1974fc524751d25,2024-02-21_21h24.12.926,kallum_motion_pilot,2023.2.2,MacIntel,59.88023952,611e981ff1974fc524751d25,65d6bb0e977760de756971f7,65d6be4211081d3e25dfeead,0.0109,0.0109,0,4,4,59,1,twofour,,,,,,,,,,,,,,,,,,,,,,,,,,,,,,,,,,,,,,,,,,,,,,,,,,,,,,,,,,,,,,,,,,,,,,,,,,,,,,,,,,,,,,,,,,,,,,,,,,,,,,,,,,,,,,,,,,,,,,,,,,,,,,,,,,,,,,,,,
,,611e981ff1974fc524751d25,2024-02-21_21h24.12.926,kallum_motion_pilot,2023.2.2,MacIntel,59.88023952,611e981ff1974fc524751d25,65d6bb0e977760de756971f7,65d6be4211081d3e25dfeead,0.0109,0.0109,0,5,5,4,1,threeone,,,,,,,,,,,,,,,,,,,,,,,,,,,,,,,,,,,,,,,,,,,,,,,,,,,,,,,,,,,,,,,,,,,,,,,,,,,,,,,,,,,,,,,,,,,,,,,,,,,,,,,,,,,,,,,,,,,,,,,,,,,,,,,,,,,,,,,,,
,,611e981ff1974fc524751d25,2024-02-21_21h24.12.926,kallum_motion_pilot,2023.2.2,MacIntel,59.88023952,611e981ff1974fc524751d25,65d6bb0e977760de756971f7,65d6be4211081d3e25dfeead,0.011,0.011,0,6,6,49,1,onethree,,,,,,,,,,,,,,,,,,,,,,,,,,,,,,,,,,,,,,,,,,,,,,,,,,,,,,,,,,,,,,,,,,,,,,,,,,,,,,,,,,,,,,,,,,,,,,,,,,,,,,,,,,,,,,,,,,,,,,,,,,,,,,,,,,,,,,,,,
,,611e981ff1974fc524751d25,2024-02-21_21h24.12.926,kallum_motion_pilot,2023.2.2,MacIntel,59.88023952,611e981ff1974fc524751d25,65d6bb0e977760de756971f7,65d6be4211081d3e25dfeead,0.011,0.011,0,7,7,62,1,fourtwo,,,,,,,,,,,,,,,,,,,,,,,,,,,,,,,,,,,,,,,,,,,,,,,,,,,,,,,,,,,,,,,,,,,,,,,,,,,,,,,,,,,,,,,,,,,,,,,,,,,,,,,,,,,,,,,,,,,,,,,,,,,,,,,,,,,,,,,,,
,,611e981ff1974fc524751d25,2024-02-21_21h24.12.926,kallum_motion_pilot,2023.2.2,MacIntel,59.88023952,611e981ff1974fc524751d25,65d6bb0e977760de756971f7,65d6be4211081d3e25dfeead,0.011,0.011,0,8,8,75,1,twofour,,,,,,,,,,,,,,,,,,,,,,,,,,,,,,,,,,,,,,,,,,,,,,,,,,,,,,,,,,,,,,,,,,,,,,,,,,,,,,,,,,,,,,,,,,,,,,,,,,,,,,,,,,,,,,,,,,,,,,,,,,,,,,,,,,,,,,,,,
,,611e981ff1974fc524751d25,2024-02-21_21h24.12.926,kallum_motion_pilot,2023.2.2,MacIntel,59.88023952,611e981ff1974fc524751d25,65d6bb0e977760de756971f7,65d6be4211081d3e25dfeead,0.0111,0.0111,0,9,9,94,1,eightsix,,,,,,,,,,,,,,,,,,,,,,,,,,,,,,,,,,,,,,,,,,,,,,,,,,,,,,,,,,,,,,,,,,,,,,,,,,,,,,,,,,,,,,,,,,,,,,,,,,,,,,,,,,,,,,,,,,,,,,,,,,,,,,,,,,,,,,,,,
,,611e981ff1974fc524751d25,2024-02-21_21h24.12.926,kallum_motion_pilot,2023.2.2,MacIntel,59.88023952,611e981ff1974fc524751d25,65d6bb0e977760de756971f7,65d6be4211081d3e25dfeead,0.0111,0.0111,0,10,10,36,1,threeone,,,,,,,,,,,,,,,,,,,,,,,,,,,,,,,,,,,,,,,,,,,,,,,,,,,,,,,,,,,,,,,,,,,,,,,,,,,,,,,,,,,,,,,,,,,,,,,,,,,,,,,,,,,,,,,,,,,,,,,,,,,,,,,,,,,,,,,,,
,,611e981ff1974fc524751d25,2024-02-21_21h24.12.926,kallum_motion_pilot,2023.2.2,MacIntel,59.88023952,611e981ff1974fc524751d25,65d6bb0e977760de756971f7,65d6be4211081d3e25dfeead,0.0112,0.0112,0,11,11,26,1,twoone,,,,,,,,,,,,,,,,,,,,,,,,,,,,,,,,,,,,,,,,,,,,,,,,,,,,,,,,,,,,,,,,,,,,,,,,,,,,,,,,,,,,,,,,,,,,,,,,,,,,,,,,,,,,,,,,,,,,,,,,,,,,,,,,,,,,,,,,,
,,611e981ff1974fc524751d25,2024-02-21_21h24.12.926,kallum_motion_pilot,2023.2.2,MacIntel,59.88023952,611e981ff1974fc524751d25,65d6bb0e977760de756971f7,65d6be4211081d3e25dfeead,0.0112,0.0112,0,12,12,23,1,fourthree,,,,,,,,,,,,,,,,,,,,,,,,,,,,,,,,,,,,,,,,,,,,,,,,,,,,,,,,,,,,,,,,,,,,,,,,,,,,,,,,,,,,,,,,,,,,,,,,,,,,,,,,,,,,,,,,,,,,,,,,,,,,,,,,,,,,,,,,,
,,611e981ff1974fc524751d25,2024-02-21_21h24.12.926,kallum_motion_pilot,2023.2.2,MacIntel,59.88023952,611e981ff1974fc524751d25,65d6bb0e977760de756971f7,65d6be4211081d3e25dfeead,0.0112,0.0112,0,13,13,100,1,sevenfive,,,,,,,,,,,,,,,,,,,,,,,,,,,,,,,,,,,,,,,,,,,,,,,,,,,,,,,,,,,,,,,,,,,,,,,,,,,,,,,,,,,,,,,,,,,,,,,,,,,,,,,,,,,,,,,,,,,,,,,,,,,,,,,,,,,,,,,,,
,,611e981ff1974fc524751d25,2024-02-21_21h24.12.926,kallum_motion_pilot,2023.2.2,MacIntel,59.88023952,611e981ff1974fc524751d25,65d6bb0e977760de756971f7,65d6be4211081d3e25dfeead,0.0113,0.0114,0,14,14,110,1,eightsix,,,,,,,,,,,,,,,,,,,,,,,,,,,,,,,,,,,,,,,,,,,,,,,,,,,,,,,,,,,,,,,,,,,,,,,,,,,,,,,,,,,,,,,,,,,,,,,,,,,,,,,,,,,,,,,,,,,,,,,,,,,,,,,,,,,,,,,,,
,,611e981ff1974fc524751d25,2024-02-21_21h24.12.926,kallum_motion_pilot,2023.2.2,MacIntel,59.88023952,611e981ff1974fc524751d25,65d6bb0e977760de756971f7,65d6be4211081d3e25dfeead,0.0114,0.0114,0,15,15,85,1,seveneight,,,,,,,,,,,,,,,,,,,,,,,,,,,,,,,,,,,,,,,,,,,,,,,,,,,,,,,,,,,,,,,,,,,,,,,,,,,,,,,,,,,,,,,,,,,,,,,,,,,,,,,,,,,,,,,,,,,,,,,,,,,,,,,,,,,,,,,,,
,,611e981ff1974fc524751d25,2024-02-21_21h24.12.926,kallum_motion_pilot,2023.2.2,MacIntel,59.88023952,611e981ff1974fc524751d25,65d6bb0e977760de756971f7,65d6be4211081d3e25dfeead,0.0114,0.0114,0,16,16,67,1,twofour,,,,,,,,,,,,,,,,,,,,,,,,,,,,,,,,,,,,,,,,,,,,,,,,,,,,,,,,,,,,,,,,,,,,,,,,,,,,,,,,,,,,,,,,,,,,,,,,,,,,,,,,,,,,,,,,,,,,,,,,,,,,,,,,,,,,,,,,,
,,611e981ff1974fc524751d25,2024-02-21_21h24.12.926,kallum_motion_pilot,2023.2.2,MacIntel,59.88023952,611e981ff1974fc524751d25,65d6bb0e977760de756971f7,65d6be4211081d3e25dfeead,0.0114,0.0114,0,17,17,2,1,twoone,,,,,,,,,,,,,,,,,,,,,,,,,,,,,,,,,,,,,,,,,,,,,,,,,,,,,,,,,,,,,,,,,,,,,,,,,,,,,,,,,,,,,,,,,,,,,,,,,,,,,,,,,,,,,,,,,,,,,,,,,,,,,,,,,,,,,,,,,
,,611e981ff1974fc524751d25,2024-02-21_21h24.12.926,kallum_motion_pilot,2023.2.2,MacIntel,59.88023952,611e981ff1974fc524751d25,65d6bb0e977760de756971f7,65d6be4211081d3e25dfeead,0.0114,0.0114,0,18,18,33,1,onethree,,,,,,,,,,,,,,,,,,,,,,,,,,,,,,,,,,,,,,,,,,,,,,,,,,,,,,,,,,,,,,,,,,,,,,,,,,,,,,,,,,,,,,,,,,,,,,,,,,,,,,,,,,,,,,,,,,,,,,,,,,,,,,,,,,,,,,,,,
,,611e981ff1974fc524751d25,2024-02-21_21h24.12.926,kallum_motion_pilot,2023.2.2,MacIntel,59.88023952,611e981ff1974fc524751d25,65d6bb0e977760de756971f7,65d6be4211081d3e25dfeead,0.0115,0.0115,0,19,19,34,1,twoone,,,,,,,,,,,,,,,,,,,,,,,,,,,,,,,,,,,,,,,,,,,,,,,,,,,,,,,,,,,,,,,,,,,,,,,,,,,,,,,,,,,,,,,,,,,,,,,,,,,,,,,,,,,,,,,,,,,,,,,,,,,,,,,,,,,,,,,,,
,,611e981ff1974fc524751d25,2024-02-21_21h24.12.926,kallum_motion_pilot,2023.2.2,MacIntel,59.88023952,611e981ff1974fc524751d25,65d6bb0e977760de756971f7,65d6be4211081d3e25dfeead,0.0115,0.0115,0,20,20,107,1,sixeight,,,,,,,,,,,,,,,,,,,,,,,,,,,,,,,,,,,,,,,,,,,,,,,,,,,,,,,,,,,,,,,,,,,,,,,,,,,,,,,,,,,,,,,,,,,,,,,,,,,,,,,,,,,,,,,,,,,,,,,,,,,,,,,,,,,,,,,,,
,,611e981ff1974fc524751d25,2024-02-21_21h24.12.926,kallum_motion_pilot,2023.2.2,MacIntel,59.88023952,611e981ff1974fc524751d25,65d6bb0e977760de756971f7,65d6be4211081d3e25dfeead,0.0116,0.0116,0,21,21,120,1,fivesix,,,,,,,,,,,,,,,,,,,,,,,,,,,,,,,,,,,,,,,,,,,,,,,,,,,,,,,,,,,,,,,,,,,,,,,,,,,,,,,,,,,,,,,,,,,,,,,,,,,,,,,,,,,,,,,,,,,,,,,,,,,,,,,,,,,,,,,,,
,,611e981ff1974fc524751d25,2024-02-21_21h24.12.926,kallum_motion_pilot,2023.2.2,MacIntel,59.88023952,611e981ff1974fc524751d25,65d6bb0e977760de756971f7,65d6be4211081d3e25dfeead,0.0116,0.0116,0,22,22,12,1,threeone,,,,,,,,,,,,,,,,,,,,,,,,,,,,,,,,,,,,,,,,,,,,,,,,,,,,,,,,,,,,,,,,,,,,,,,,,,,,,,,,,,,,,,,,,,,,,,,,,,,,,,,,,,,,,,,,,,,,,,,,,,,,,,,,,,,,,,,,,
,,611e981ff1974fc524751d25,2024-02-21_21h24.12.926,kallum_motion_pilot,2023.2.2,MacIntel,59.88023952,611e981ff1974fc524751d25,65d6bb0e977760de756971f7,65d6be4211081d3e25dfeead,0.0116,0.0117,0,23,23,82,1,sixfive,,,,,,,,,,,,,,,,,,,,,,,,,,,,,,,,,,,,,,,,,,,,,,,,,,,,,,,,,,,,,,,,,,,,,,,,,,,,,,,,,,,,,,,,,,,,,,,,,,,,,,,,,,,,,,,,,,,,,,,,,,,,,,,,,,,,,,,,,
,,611e981ff1974fc524751d25,2024-02-21_21h24.12.926,kallum_motion_pilot,2023.2.2,MacIntel,59.88023952,611e981ff1974fc524751d25,65d6bb0e977760de756971f7,65d6be4211081d3e25dfeead,0.0117,0.0117,0,24,24,152,1,fivesix,,,,,,,,,,,,,,,,,,,,,,,,,,,,,,,,,,,,,,,,,,,,,,,,,,,,,,,,,,,,,,,,,,,,,,,,,,,,,,,,,,,,,,,,,,,,,,,,,,,,,,,,,,,,,,,,,,,,,,,,,,,,,,,,,,,,,,,,,
,,611e981ff1974fc524751d25,2024-02-21_21h24.12.926,kallum_motion_pilot,2023.2.2,MacIntel,59.88023952,611e981ff1974fc524751d25,65d6bb0e977760de756971f7,65d6be4211081d3e25dfeead,0.0117,0.0118,0,25,25,108,1,sevenfive,,,,,,,,,,,,,,,,,,,,,,,,,,,,,,,,,,,,,,,,,,,,,,,,,,,,,,,,,,,,,,,,,,,,,,,,,,,,,,,,,,,,,,,,,,,,,,,,,,,,,,,,,,,,,,,,,,,,,,,,,,,,,,,,,,,,,,,,,
,,611e981ff1974fc524751d25,2024-02-21_21h24.12.926,kallum_motion_pilot,2023.2.2,MacIntel,59.88023952,611e981ff1974fc524751d25,65d6bb0e977760de756971f7,65d6be4211081d3e25dfeead,0.0118,0.0118,0,26,26,19,1,twofour,,,,,,,,,,,,,,,,,,,,,,,,,,,,,,,,,,,,,,,,,,,,,,,,,,,,,,,,,,,,,,,,,,,,,,,,,,,,,,,,,,,,,,,,,,,,,,,,,,,,,,,,,,,,,,,,,,,,,,,,,,,,,,,,,,,,,,,,,
,,611e981ff1974fc524751d25,2024-02-21_21h24.12.926,kallum_motion_pilot,2023.2.2,MacIntel,59.88023952,611e981ff1974fc524751d25,65d6bb0e977760de756971f7,65d6be4211081d3e25dfeead,0.0118,0.0118,0,27,27,95,1,eightseven,,,,,,,,,,,,,,,,,,,,,,,,,,,,,,,,,,,,,,,,,,,,,,,,,,,,,,,,,,,,,,,,,,,,,,,,,,,,,,,,,,,,,,,,,,,,,,,,,,,,,,,,,,,,,,,,,,,,,,,,,,,,,,,,,,,,,,,,,
,,611e981ff1974fc524751d25,2024-02-21_21h24.12.926,kallum_motion_pilot,2023.2.2,MacIntel,59.88023952,611e981ff1974fc524751d25,65d6bb0e977760de756971f7,65d6be4211081d3e25dfeead,0.0119,0.0119,0,28,28,60,1,threeone,,,,,,,,,,,,,,,,,,,,,,,,,,,,,,,,,,,,,,,,,,,,,,,,,,,,,,,,,,,,,,,,,,,,,,,,,,,,,,,,,,,,,,,,,,,,,,,,,,,,,,,,,,,,,,,,,,,,,,,,,,,,,,,,,,,,,,,,,
,,611e981ff1974fc524751d25,2024-02-21_21h24.12.926,kallum_motion_pilot,2023.2.2,MacIntel,59.88023952,611e981ff1974fc524751d25,65d6bb0e977760de756971f7,65d6be4211081d3e25dfeead,0.0119,0.0119,0,29,29,8,1,onetwo,,,,,,,,,,,,,,,,,,,,,,,,,,,,,,,,,,,,,,,,,,,,,,,,,,,,,,,,,,,,,,,,,,,,,,,,,,,,,,,,,,,,,,,,,,,,,,,,,,,,,,,,,,,,,,,,,,,,,,,,,,,,,,,,,,,,,,,,,
,,611e981ff1974fc524751d25,2024-02-21_21h24.12.926,kallum_motion_pilot,2023.2.2,MacIntel,59.88023952,611e981ff1974fc524751d25,65d6bb0e977760de756971f7,65d6be4211081d3e25dfeead,0.0119,0.0119,0,30,30,89,1,fiveseven,,,,,,,,,,,,,,,,,,,,,,,,,,,,,,,,,,,,,,,,,,,,,,,,,,,,,,,,,,,,,,,,,,,,,,,,,,,,,,,,,,,,,,,,,,,,,,,,,,,,,,,,,,,,,,,,,,,,,,,,,,,,,,,,,,,,,,,,,
,,611e981ff1974fc524751d25,2024-02-21_21h24.12.926,kallum_motion_pilot,2023.2.2,MacIntel,59.88023952,611e981ff1974fc524751d25,65d6bb0e977760de756971f7,65d6be4211081d3e25dfeead,0.012,0.012,0,31,31,157,1,seveneight,,,,,,,,,,,,,,,,,,,,,,,,,,,,,,,,,,,,,,,,,,,,,,,,,,,,,,,,,,,,,,,,,,,,,,,,,,,,,,,,,,,,,,,,,,,,,,,,,,,,,,,,,,,,,,,,,,,,,,,,,,,,,,,,,,,,,,,,,
,,611e981ff1974fc524751d25,2024-02-21_21h24.12.926,kallum_motion_pilot,2023.2.2,MacIntel,59.88023952,611e981ff1974fc524751d25,65d6bb0e977760de756971f7,65d6be4211081d3e25dfeead,0.012,0.012,0,32,32,32,1,onetwo,,,,,,,,,,,,,,,,,,,,,,,,,,,,,,,,,,,,,,,,,,,,,,,,,,,,,,,,,,,,,,,,,,,,,,,,,,,,,,,,,,,,,,,,,,,,,,,,,,,,,,,,,,,,,,,,,,,,,,,,,,,,,,,,,,,,,,,,,
,,611e981ff1974fc524751d25,2024-02-21_21h24.12.926,kallum_motion_pilot,2023.2.2,MacIntel,59.88023952,611e981ff1974fc524751d25,65d6bb0e977760de756971f7,65d6be4211081d3e25dfeead,0.012,0.012,0,33,33,132,1,sevenfive,,,,,,,,,,,,,,,,,,,,,,,,,,,,,,,,,,,,,,,,,,,,,,,,,,,,,,,,,,,,,,,,,,,,,,,,,,,,,,,,,,,,,,,,,,,,,,,,,,,,,,,,,,,,,,,,,,,,,,,,,,,,,,,,,,,,,,,,,
,,611e981ff1974fc524751d25,2024-02-21_21h24.12.926,kallum_motion_pilot,2023.2.2,MacIntel,59.88023952,611e981ff1974fc524751d25,65d6bb0e977760de756971f7,65d6be4211081d3e25dfeead,0.0121,0.0121,0,34,34,65,1,onethree,,,,,,,,,,,,,,,,,,,,,,,,,,,,,,,,,,,,,,,,,,,,,,,,,,,,,,,,,,,,,,,,,,,,,,,,,,,,,,,,,,,,,,,,,,,,,,,,,,,,,,,,,,,,,,,,,,,,,,,,,,,,,,,,,,,,,,,,,
,,611e981ff1974fc524751d25,2024-02-21_21h24.12.926,kallum_motion_pilot,2023.2.2,MacIntel,59.88023952,611e981ff1974fc524751d25,65d6bb0e977760de756971f7,65d6be4211081d3e25dfeead,0.0121,0.0121,0,35,35,14,1,fourtwo,,,,,,,,,,,,,,,,,,,,,,,,,,,,,,,,,,,,,,,,,,,,,,,,,,,,,,,,,,,,,,,,,,,,,,,,,,,,,,,,,,,,,,,,,,,,,,,,,,,,,,,,,,,,,,,,,,,,,,,,,,,,,,,,,,,,,,,,,
,,611e981ff1974fc524751d25,2024-02-21_21h24.12.926,kallum_motion_pilot,2023.2.2,MacIntel,59.88023952,611e981ff1974fc524751d25,65d6bb0e977760de756971f7,65d6be4211081d3e25dfeead,0.0122,0.0122,0,36,36,106,1,sixfive,,,,,,,,,,,,,,,,,,,,,,,,,,,,,,,,,,,,,,,,,,,,,,,,,,,,,,,,,,,,,,,,,,,,,,,,,,,,,,,,,,,,,,,,,,,,,,,,,,,,,,,,,,,,,,,,,,,,,,,,,,,,,,,,,,,,,,,,,
,,611e981ff1974fc524751d25,2024-02-21_21h24.12.926,kallum_motion_pilot,2023.2.2,MacIntel,59.88023952,611e981ff1974fc524751d25,65d6bb0e977760de756971f7,65d6be4211081d3e25dfeead,0.0122,0.0122,0,37,37,0,1,onetwo,,,,,,,,,,,,,,,,,,,,,,,,,,,,,,,,,,,,,,,,,,,,,,,,,,,,,,,,,,,,,,,,,,,,,,,,,,,,,,,,,,,,,,,,,,,,,,,,,,,,,,,,,,,,,,,,,,,,,,,,,,,,,,,,,,,,,,,,,
,,611e981ff1974fc524751d25,2024-02-21_21h24.12.926,kallum_motion_pilot,2023.2.2,MacIntel,59.88023952,611e981ff1974fc524751d25,65d6bb0e977760de756971f7,65d6be4211081d3e25dfeead,0.0123,0.0123,0,38,38,22,1,fourtwo,,,,,,,,,,,,,,,,,,,,,,,,,,,,,,,,,,,,,,,,,,,,,,,,,,,,,,,,,,,,,,,,,,,,,,,,,,,,,,,,,,,,,,,,,,,,,,,,,,,,,,,,,,,,,,,,,,,,,,,,,,,,,,,,,,,,,,,,,
,,611e981ff1974fc524751d25,2024-02-21_21h24.12.926,kallum_motion_pilot,2023.2.2,MacIntel,59.88023952,611e981ff1974fc524751d25,65d6bb0e977760de756971f7,65d6be4211081d3e25dfeead,0.0124,0.0124,0,39,39,140,1,sevenfive,,,,,,,,,,,,,,,,,,,,,,,,,,,,,,,,,,,,,,,,,,,,,,,,,,,,,,,,,,,,,,,,,,,,,,,,,,,,,,,,,,,,,,,,,,,,,,,,,,,,,,,,,,,,,,,,,,,,,,,,,,,,,,,,,,,,,,,,,
,,611e981ff1974fc524751d25,2024-02-21_21h24.12.926,kallum_motion_pilot,2023.2.2,MacIntel,59.88023952,611e981ff1974fc524751d25,65d6bb0e977760de756971f7,65d6be4211081d3e25dfeead,0.0124,0.0124,0,40,40,141,1,seveneight,,,,,,,,,,,,,,,,,,,,,,,,,,,,,,,,,,,,,,,,,,,,,,,,,,,,,,,,,,,,,,,,,,,,,,,,,,,,,,,,,,,,,,,,,,,,,,,,,,,,,,,,,,,,,,,,,,,,,,,,,,,,,,,,,,,,,,,,,
,,611e981ff1974fc524751d25,2024-02-21_21h24.12.926,kallum_motion_pilot,2023.2.2,MacIntel,59.88023952,611e981ff1974fc524751d25,65d6bb0e977760de756971f7,65d6be4211081d3e25dfeead,0.0125,0.0125,0,41,41,31,1,fourthree,,,,,,,,,,,,,,,,,,,,,,,,,,,,,,,,,,,,,,,,,,,,,,,,,,,,,,,,,,,,,,,,,,,,,,,,,,,,,,,,,,,,,,,,,,,,,,,,,,,,,,,,,,,,,,,,,,,,,,,,,,,,,,,,,,,,,,,,,
,,611e981ff1974fc524751d25,2024-02-21_21h24.12.926,kallum_motion_pilot,2023.2.2,MacIntel,59.88023952,611e981ff1974fc524751d25,65d6bb0e977760de756971f7,65d6be4211081d3e25dfeead,0.0125,0.0125,0,42,42,42,1,twoone,,,,,,,,,,,,,,,,,,,,,,,,,,,,,,,,,,,,,,,,,,,,,,,,,,,,,,,,,,,,,,,,,,,,,,,,,,,,,,,,,,,,,,,,,,,,,,,,,,,,,,,,,,,,,,,,,,,,,,,,,,,,,,,,,,,,,,,,,
,,611e981ff1974fc524751d25,2024-02-21_21h24.12.926,kallum_motion_pilot,2023.2.2,MacIntel,59.88023952,611e981ff1974fc524751d25,65d6bb0e977760de756971f7,65d6be4211081d3e25dfeead,0.0126,0.0126,0,43,43,38,1,fourtwo,,,,,,,,,,,,,,,,,,,,,,,,,,,,,,,,,,,,,,,,,,,,,,,,,,,,,,,,,,,,,,,,,,,,,,,,,,,,,,,,,,,,,,,,,,,,,,,,,,,,,,,,,,,,,,,,,,,,,,,,,,,,,,,,,,,,,,,,,
,,611e981ff1974fc524751d25,2024-02-21_21h24.12.926,kallum_motion_pilot,2023.2.2,MacIntel,59.88023952,611e981ff1974fc524751d25,65d6bb0e977760de756971f7,65d6be4211081d3e25dfeead,0.0126,0.0126,0,44,44,84,1,sevenfive,,,,,,,,,,,,,,,,,,,,,,,,,,,,,,,,,,,,,,,,,,,,,,,,,,,,,,,,,,,,,,,,,,,,,,,,,,,,,,,,,,,,,,,,,,,,,,,,,,,,,,,,,,,,,,,,,,,,,,,,,,,,,,,,,,,,,,,,,
,,611e981ff1974fc524751d25,2024-02-21_21h24.12.926,kallum_motion_pilot,2023.2.2,MacIntel,59.88023952,611e981ff1974fc524751d25,65d6bb0e977760de756971f7,65d6be4211081d3e25dfeead,0.0126,0.0126,0,45,45,112,1,fivesix,,,,,,,,,,,,,,,,,,,,,,,,,,,,,,,,,,,,,,,,,,,,,,,,,,,,,,,,,,,,,,,,,,,,,,,,,,,,,,,,,,,,,,,,,,,,,,,,,,,,,,,,,,,,,,,,,,,,,,,,,,,,,,,,,,,,,,,,,
,,611e981ff1974fc524751d25,2024-02-21_21h24.12.926,kallum_motion_pilot,2023.2.2,MacIntel,59.88023952,611e981ff1974fc524751d25,65d6bb0e977760de756971f7,65d6be4211081d3e25dfeead,0.0126,0.0126,0,46,46,96,1,fivesix,,,,,,,,,,,,,,,,,,,,,,,,,,,,,,,,,,,,,,,,,,,,,,,,,,,,,,,,,,,,,,,,,,,,,,,,,,,,,,,,,,,,,,,,,,,,,,,,,,,,,,,,,,,,,,,,,,,,,,,,,,,,,,,,,,,,,,,,,
,,611e981ff1974fc524751d25,2024-02-21_21h24.12.926,kallum_motion_pilot,2023.2.2,MacIntel,59.88023952,611e981ff1974fc524751d25,65d6bb0e977760de756971f7,65d6be4211081d3e25dfeead,0.0126,0.0126,0,47,47,9,1,onethree,,,,,,,,,,,,,,,,,,,,,,,,,,,,,,,,,,,,,,,,,,,,,,,,,,,,,,,,,,,,,,,,,,,,,,,,,,,,,,,,,,,,,,,,,,,,,,,,,,,,,,,,,,,,,,,,,,,,,,,,,,,,,,,,,,,,,,,,,
,,611e981ff1974fc524751d25,2024-02-21_21h24.12.926,kallum_motion_pilot,2023.2.2,MacIntel,59.88023952,611e981ff1974fc524751d25,65d6bb0e977760de756971f7,65d6be4211081d3e25dfeead,0.0127,0.0127,0,48,48,158,1,eightsix,,,,,,,,,,,,,,,,,,,,,,,,,,,,,,,,,,,,,,,,,,,,,,,,,,,,,,,,,,,,,,,,,,,,,,,,,,,,,,,,,,,,,,,,,,,,,,,,,,,,,,,,,,,,,,,,,,,,,,,,,,,,,,,,,,,,,,,,,
,,611e981ff1974fc524751d25,2024-02-21_21h24.12.926,kallum_motion_pilot,2023.2.2,MacIntel,59.88023952,611e981ff1974fc524751d25,65d6bb0e977760de756971f7,65d6be4211081d3e25dfeead,0.0127,0.0127,0,49,49,105,1,fiveseven,,,,,,,,,,,,,,,,,,,,,,,,,,,,,,,,,,,,,,,,,,,,,,,,,,,,,,,,,,,,,,,,,,,,,,,,,,,,,,,,,,,,,,,,,,,,,,,,,,,,,,,,,,,,,,,,,,,,,,,,,,,,,,,,,,,,,,,,,
,,611e981ff1974fc524751d25,2024-02-21_21h24.12.926,kallum_motion_pilot,2023.2.2,MacIntel,59.88023952,611e981ff1974fc524751d25,65d6bb0e977760de756971f7,65d6be4211081d3e25dfeead,0.0127,0.0127,0,50,50,101,1,seveneight,,,,,,,,,,,,,,,,,,,,,,,,,,,,,,,,,,,,,,,,,,,,,,,,,,,,,,,,,,,,,,,,,,,,,,,,,,,,,,,,,,,,,,,,,,,,,,,,,,,,,,,,,,,,,,,,,,,,,,,,,,,,,,,,,,,,,,,,,
,,611e981ff1974fc524751d25,2024-02-21_21h24.12.926,kallum_motion_pilot,2023.2.2,MacIntel,59.88023952,611e981ff1974fc524751d25,65d6bb0e977760de756971f7,65d6be4211081d3e25dfeead,0.0128,0.0128,0,51,51,28,1,threeone,,,,,,,,,,,,,,,,,,,,,,,,,,,,,,,,,,,,,,,,,,,,,,,,,,,,,,,,,,,,,,,,,,,,,,,,,,,,,,,,,,,,,,,,,,,,,,,,,,,,,,,,,,,,,,,,,,,,,,,,,,,,,,,,,,,,,,,,,
,,611e981ff1974fc524751d25,2024-02-21_21h24.12.926,kallum_motion_pilot,2023.2.2,MacIntel,59.88023952,611e981ff1974fc524751d25,65d6bb0e977760de756971f7,65d6be4211081d3e25dfeead,0.0128,0.0128,0,52,52,111,1,eightseven,,,,,,,,,,,,,,,,,,,,,,,,,,,,,,,,,,,,,,,,,,,,,,,,,,,,,,,,,,,,,,,,,,,,,,,,,,,,,,,,,,,,,,,,,,,,,,,,,,,,,,,,,,,,,,,,,,,,,,,,,,,,,,,,,,,,,,,,,
,,611e981ff1974fc524751d25,2024-02-21_21h24.12.926,kallum_motion_pilot,2023.2.2,MacIntel,59.88023952,611e981ff1974fc524751d25,65d6bb0e977760de756971f7,65d6be4211081d3e25dfeead,0.0129,0.013,0,53,53,51,1,twofour,,,,,,,,,,,,,,,,,,,,,,,,,,,,,,,,,,,,,,,,,,,,,,,,,,,,,,,,,,,,,,,,,,,,,,,,,,,,,,,,,,,,,,,,,,,,,,,,,,,,,,,,,,,,,,,,,,,,,,,,,,,,,,,,,,,,,,,,,
,,611e981ff1974fc524751d25,2024-02-21_21h24.12.926,kallum_motion_pilot,2023.2.2,MacIntel,59.88023952,611e981ff1974fc524751d25,65d6bb0e977760de756971f7,65d6be4211081d3e25dfeead,0.013,0.013,0,54,54,104,1,fivesix,,,,,,,,,,,,,,,,,,,,,,,,,,,,,,,,,,,,,,,,,,,,,,,,,,,,,,,,,,,,,,,,,,,,,,,,,,,,,,,,,,,,,,,,,,,,,,,,,,,,,,,,,,,,,,,,,,,,,,,,,,,,,,,,,,,,,,,,,
,,611e981ff1974fc524751d25,2024-02-21_21h24.12.926,kallum_motion_pilot,2023.2.2,MacIntel,59.88023952,611e981ff1974fc524751d25,65d6bb0e977760de756971f7,65d6be4211081d3e25dfeead,0.0131,0.0131,0,55,55,133,1,seveneight,,,,,,,,,,,,,,,,,,,,,,,,,,,,,,,,,,,,,,,,,,,,,,,,,,,,,,,,,,,,,,,,,,,,,,,,,,,,,,,,,,,,,,,,,,,,,,,,,,,,,,,,,,,,,,,,,,,,,,,,,,,,,,,,,,,,,,,,,
,,611e981ff1974fc524751d25,2024-02-21_21h24.12.926,kallum_motion_pilot,2023.2.2,MacIntel,59.88023952,611e981ff1974fc524751d25,65d6bb0e977760de756971f7,65d6be4211081d3e25dfeead,0.0131,0.0131,0,56,56,66,1,twoone,,,,,,,,,,,,,,,,,,,,,,,,,,,,,,,,,,,,,,,,,,,,,,,,,,,,,,,,,,,,,,,,,,,,,,,,,,,,,,,,,,,,,,,,,,,,,,,,,,,,,,,,,,,,,,,,,,,,,,,,,,,,,,,,,,,,,,,,,
,,611e981ff1974fc524751d25,2024-02-21_21h24.12.926,kallum_motion_pilot,2023.2.2,MacIntel,59.88023952,611e981ff1974fc524751d25,65d6bb0e977760de756971f7,65d6be4211081d3e25dfeead,0.0131,0.0131,0,57,57,13,1,threefour,,,,,,,,,,,,,,,,,,,,,,,,,,,,,,,,,,,,,,,,,,,,,,,,,,,,,,,,,,,,,,,,,,,,,,,,,,,,,,,,,,,,,,,,,,,,,,,,,,,,,,,,,,,,,,,,,,,,,,,,,,,,,,,,,,,,,,,,,
,,611e981ff1974fc524751d25,2024-02-21_21h24.12.926,kallum_motion_pilot,2023.2.2,MacIntel,59.88023952,611e981ff1974fc524751d25,65d6bb0e977760de756971f7,65d6be4211081d3e25dfeead,0.0131,0.0131,0,58,58,27,1,twofour,,,,,,,,,,,,,,,,,,,,,,,,,,,,,,,,,,,,,,,,,,,,,,,,,,,,,,,,,,,,,,,,,,,,,,,,,,,,,,,,,,,,,,,,,,,,,,,,,,,,,,,,,,,,,,,,,,,,,,,,,,,,,,,,,,,,,,,,,
,,611e981ff1974fc524751d25,2024-02-21_21h24.12.926,kallum_motion_pilot,2023.2.2,MacIntel,59.88023952,611e981ff1974fc524751d25,65d6bb0e977760de756971f7,65d6be4211081d3e25dfeead,0.0131,0.0131,0,59,59,160,1,fivesix,,,,,,,,,,,,,,,,,,,,,,,,,,,,,,,,,,,,,,,,,,,,,,,,,,,,,,,,,,,,,,,,,,,,,,,,,,,,,,,,,,,,,,,,,,,,,,,,,,,,,,,,,,,,,,,,,,,,,,,,,,,,,,,,,,,,,,,,,
,,611e981ff1974fc524751d25,2024-02-21_21h24.12.926,kallum_motion_pilot,2023.2.2,MacIntel,59.88023952,611e981ff1974fc524751d25,65d6bb0e977760de756971f7,65d6be4211081d3e25dfeead,0.0132,0.0132,0,60,60,121,1,fiveseven,,,,,,,,,,,,,,,,,,,,,,,,,,,,,,,,,,,,,,,,,,,,,,,,,,,,,,,,,,,,,,,,,,,,,,,,,,,,,,,,,,,,,,,,,,,,,,,,,,,,,,,,,,,,,,,,,,,,,,,,,,,,,,,,,,,,,,,,,
,,611e981ff1974fc524751d25,2024-02-21_21h24.12.926,kallum_motion_pilot,2023.2.2,MacIntel,59.88023952,611e981ff1974fc524751d25,65d6bb0e977760de756971f7,65d6be4211081d3e25dfeead,0.0132,0.0133,0,61,61,35,1,twofour,,,,,,,,,,,,,,,,,,,,,,,,,,,,,,,,,,,,,,,,,,,,,,,,,,,,,,,,,,,,,,,,,,,,,,,,,,,,,,,,,,,,,,,,,,,,,,,,,,,,,,,,,,,,,,,,,,,,,,,,,,,,,,,,,,,,,,,,,
,,611e981ff1974fc524751d25,2024-02-21_21h24.12.926,kallum_motion_pilot,2023.2.2,MacIntel,59.88023952,611e981ff1974fc524751d25,65d6bb0e977760de756971f7,65d6be4211081d3e25dfeead,0.0133,0.0133,0,62,62,97,1,fiveseven,,,,,,,,,,,,,,,,,,,,,,,,,,,,,,,,,,,,,,,,,,,,,,,,,,,,,,,,,,,,,,,,,,,,,,,,,,,,,,,,,,,,,,,,,,,,,,,,,,,,,,,,,,,,,,,,,,,,,,,,,,,,,,,,,,,,,,,,,
,,611e981ff1974fc524751d25,2024-02-21_21h24.12.926,kallum_motion_pilot,2023.2.2,MacIntel,59.88023952,611e981ff1974fc524751d25,65d6bb0e977760de756971f7,65d6be4211081d3e25dfeead,0.0133,0.0134,0,63,63,21,1,threefour,,,,,,,,,,,,,,,,,,,,,,,,,,,,,,,,,,,,,,,,,,,,,,,,,,,,,,,,,,,,,,,,,,,,,,,,,,,,,,,,,,,,,,,,,,,,,,,,,,,,,,,,,,,,,,,,,,,,,,,,,,,,,,,,,,,,,,,,,
,,611e981ff1974fc524751d25,2024-02-21_21h24.12.926,kallum_motion_pilot,2023.2.2,MacIntel,59.88023952,611e981ff1974fc524751d25,65d6bb0e977760de756971f7,65d6be4211081d3e25dfeead,0.0134,0.0134,0,64,64,128,1,fivesix,,,,,,,,,,,,,,,,,,,,,,,,,,,,,,,,,,,,,,,,,,,,,,,,,,,,,,,,,,,,,,,,,,,,,,,,,,,,,,,,,,,,,,,,,,,,,,,,,,,,,,,,,,,,,,,,,,,,,,,,,,,,,,,,,,,,,,,,,
,,611e981ff1974fc524751d25,2024-02-21_21h24.12.926,kallum_motion_pilot,2023.2.2,MacIntel,59.88023952,611e981ff1974fc524751d25,65d6bb0e977760de756971f7,65d6be4211081d3e25dfeead,0.0134,0.0135,0,65,65,86,1,eightsix,,,,,,,,,,,,,,,,,,,,,,,,,,,,,,,,,,,,,,,,,,,,,,,,,,,,,,,,,,,,,,,,,,,,,,,,,,,,,,,,,,,,,,,,,,,,,,,,,,,,,,,,,,,,,,,,,,,,,,,,,,,,,,,,,,,,,,,,,
,,611e981ff1974fc524751d25,2024-02-21_21h24.12.926,kallum_motion_pilot,2023.2.2,MacIntel,59.88023952,611e981ff1974fc524751d25,65d6bb0e977760de756971f7,65d6be4211081d3e25dfeead,0.0135,0.0135,0,66,66,118,1,eightsix,,,,,,,,,,,,,,,,,,,,,,,,,,,,,,,,,,,,,,,,,,,,,,,,,,,,,,,,,,,,,,,,,,,,,,,,,,,,,,,,,,,,,,,,,,,,,,,,,,,,,,,,,,,,,,,,,,,,,,,,,,,,,,,,,,,,,,,,,
,,611e981ff1974fc524751d25,2024-02-21_21h24.12.926,kallum_motion_pilot,2023.2.2,MacIntel,59.88023952,611e981ff1974fc524751d25,65d6bb0e977760de756971f7,65d6be4211081d3e25dfeead,0.0135,0.0135,0,67,67,136,1,fivesix,,,,,,,,,,,,,,,,,,,,,,,,,,,,,,,,,,,,,,,,,,,,,,,,,,,,,,,,,,,,,,,,,,,,,,,,,,,,,,,,,,,,,,,,,,,,,,,,,,,,,,,,,,,,,,,,,,,,,,,,,,,,,,,,,,,,,,,,,
,,611e981ff1974fc524751d25,2024-02-21_21h24.12.926,kallum_motion_pilot,2023.2.2,MacIntel,59.88023952,611e981ff1974fc524751d25,65d6bb0e977760de756971f7,65d6be4211081d3e25dfeead,0.0136,0.0136,0,68,68,146,1,sixfive,,,,,,,,,,,,,,,,,,,,,,,,,,,,,,,,,,,,,,,,,,,,,,,,,,,,,,,,,,,,,,,,,,,,,,,,,,,,,,,,,,,,,,,,,,,,,,,,,,,,,,,,,,,,,,,,,,,,,,,,,,,,,,,,,,,,,,,,,
,,611e981ff1974fc524751d25,2024-02-21_21h24.12.926,kallum_motion_pilot,2023.2.2,MacIntel,59.88023952,611e981ff1974fc524751d25,65d6bb0e977760de756971f7,65d6be4211081d3e25dfeead,0.0136,0.0136,0,69,69,71,1,fourthree,,,,,,,,,,,,,,,,,,,,,,,,,,,,,,,,,,,,,,,,,,,,,,,,,,,,,,,,,,,,,,,,,,,,,,,,,,,,,,,,,,,,,,,,,,,,,,,,,,,,,,,,,,,,,,,,,,,,,,,,,,,,,,,,,,,,,,,,,
,,611e981ff1974fc524751d25,2024-02-21_21h24.12.926,kallum_motion_pilot,2023.2.2,MacIntel,59.88023952,611e981ff1974fc524751d25,65d6bb0e977760de756971f7,65d6be4211081d3e25dfeead,0.0136,0.0136,0,70,70,103,1,eightseven,,,,,,,,,,,,,,,,,,,,,,,,,,,,,,,,,,,,,,,,,,,,,,,,,,,,,,,,,,,,,,,,,,,,,,,,,,,,,,,,,,,,,,,,,,,,,,,,,,,,,,,,,,,,,,,,,,,,,,,,,,,,,,,,,,,,,,,,,
,,611e981ff1974fc524751d25,2024-02-21_21h24.12.926,kallum_motion_pilot,2023.2.2,MacIntel,59.88023952,611e981ff1974fc524751d25,65d6bb0e977760de756971f7,65d6be4211081d3e25dfeead,0.0137,0.0137,0,71,71,127,1,eightseven,,,,,,,,,,,,,,,,,,,,,,,,,,,,,,,,,,,,,,,,,,,,,,,,,,,,,,,,,,,,,,,,,,,,,,,,,,,,,,,,,,,,,,,,,,,,,,,,,,,,,,,,,,,,,,,,,,,,,,,,,,,,,,,,,,,,,,,,,
,,611e981ff1974fc524751d25,2024-02-21_21h24.12.926,kallum_motion_pilot,2023.2.2,MacIntel,59.88023952,611e981ff1974fc524751d25,65d6bb0e977760de756971f7,65d6be4211081d3e25dfeead,0.0138,0.0138,0,72,72,17,1,onethree,,,,,,,,,,,,,,,,,,,,,,,,,,,,,,,,,,,,,,,,,,,,,,,,,,,,,,,,,,,,,,,,,,,,,,,,,,,,,,,,,,,,,,,,,,,,,,,,,,,,,,,,,,,,,,,,,,,,,,,,,,,,,,,,,,,,,,,,,
,,611e981ff1974fc524751d25,2024-02-21_21h24.12.926,kallum_motion_pilot,2023.2.2,MacIntel,59.88023952,611e981ff1974fc524751d25,65d6bb0e977760de756971f7,65d6be4211081d3e25dfeead,0.0138,0.0138,0,73,73,137,1,fiveseven,,,,,,,,,,,,,,,,,,,,,,,,,,,,,,,,,,,,,,,,,,,,,,,,,,,,,,,,,,,,,,,,,,,,,,,,,,,,,,,,,,,,,,,,,,,,,,,,,,,,,,,,,,,,,,,,,,,,,,,,,,,,,,,,,,,,,,,,,
,,611e981ff1974fc524751d25,2024-02-21_21h24.12.926,kallum_motion_pilot,2023.2.2,MacIntel,59.88023952,611e981ff1974fc524751d25,65d6bb0e977760de756971f7,65d6be4211081d3e25dfeead,0.0138,0.0139,0,74,74,90,1,sixfive,,,,,,,,,,,,,,,,,,,,,,,,,,,,,,,,,,,,,,,,,,,,,,,,,,,,,,,,,,,,,,,,,,,,,,,,,,,,,,,,,,,,,,,,,,,,,,,,,,,,,,,,,,,,,,,,,,,,,,,,,,,,,,,,,,,,,,,,,
,,611e981ff1974fc524751d25,2024-02-21_21h24.12.926,kallum_motion_pilot,2023.2.2,MacIntel,59.88023952,611e981ff1974fc524751d25,65d6bb0e977760de756971f7,65d6be4211081d3e25dfeead,0.0139,0.0139,0,75,75,113,1,fiveseven,,,,,,,,,,,,,,,,,,,,,,,,,,,,,,,,,,,,,,,,,,,,,,,,,,,,,,,,,,,,,,,,,,,,,,,,,,,,,,,,,,,,,,,,,,,,,,,,,,,,,,,,,,,,,,,,,,,,,,,,,,,,,,,,,,,,,,,,,
,,611e981ff1974fc524751d25,2024-02-21_21h24.12.926,kallum_motion_pilot,2023.2.2,MacIntel,59.88023952,611e981ff1974fc524751d25,65d6bb0e977760de756971f7,65d6be4211081d3e25dfeead,0.0139,0.014,0,76,76,72,1,onetwo,,,,,,,,,,,,,,,,,,,,,,,,,,,,,,,,,,,,,,,,,,,,,,,,,,,,,,,,,,,,,,,,,,,,,,,,,,,,,,,,,,,,,,,,,,,,,,,,,,,,,,,,,,,,,,,,,,,,,,,,,,,,,,,,,,,,,,,,,
,,611e981ff1974fc524751d25,2024-02-21_21h24.12.926,kallum_motion_pilot,2023.2.2,MacIntel,59.88023952,611e981ff1974fc524751d25,65d6bb0e977760de756971f7,65d6be4211081d3e25dfeead,0.014,0.014,0,77,77,145,1,fiveseven,,,,,,,,,,,,,,,,,,,,,,,,,,,,,,,,,,,,,,,,,,,,,,,,,,,,,,,,,,,,,,,,,,,,,,,,,,,,,,,,,,,,,,,,,,,,,,,,,,,,,,,,,,,,,,,,,,,,,,,,,,,,,,,,,,,,,,,,,
,,611e981ff1974fc524751d25,2024-02-21_21h24.12.926,kallum_motion_pilot,2023.2.2,MacIntel,59.88023952,611e981ff1974fc524751d25,65d6bb0e977760de756971f7,65d6be4211081d3e25dfeead,0.014,0.014,0,78,78,161,1,fiveseven,,,,,,,,,,,,,,,,,,,,,,,,,,,,,,,,,,,,,,,,,,,,,,,,,,,,,,,,,,,,,,,,,,,,,,,,,,,,,,,,,,,,,,,,,,,,,,,,,,,,,,,,,,,,,,,,,,,,,,,,,,,,,,,,,,,,,,,,,
,,611e981ff1974fc524751d25,2024-02-21_21h24.12.926,kallum_motion_pilot,2023.2.2,MacIntel,59.88023952,611e981ff1974fc524751d25,65d6bb0e977760de756971f7,65d6be4211081d3e25dfeead,0.014,0.014,0,79,79,147,1,sixeight,,,,,,,,,,,,,,,,,,,,,,,,,,,,,,,,,,,,,,,,,,,,,,,,,,,,,,,,,,,,,,,,,,,,,,,,,,,,,,,,,,,,,,,,,,,,,,,,,,,,,,,,,,,,,,,,,,,,,,,,,,,,,,,,,,,,,,,,,
,,611e981ff1974fc524751d25,2024-02-21_21h24.12.926,kallum_motion_pilot,2023.2.2,MacIntel,59.88023952,611e981ff1974fc524751d25,65d6bb0e977760de756971f7,65d6be4211081d3e25dfeead,0.014,0.014,0,80,80,50,1,twoone,,,,,,,,,,,,,,,,,,,,,,,,,,,,,,,,,,,,,,,,,,,,,,,,,,,,,,,,,,,,,,,,,,,,,,,,,,,,,,,,,,,,,,,,,,,,,,,,,,,,,,,,,,,,,,,,,,,,,,,,,,,,,,,,,,,,,,,,,
,,611e981ff1974fc524751d25,2024-02-21_21h24.12.926,kallum_motion_pilot,2023.2.2,MacIntel,59.88023952,611e981ff1974fc524751d25,65d6bb0e977760de756971f7,65d6be4211081d3e25dfeead,0.014,0.0141,0,81,81,57,1,onethree,,,,,,,,,,,,,,,,,,,,,,,,,,,,,,,,,,,,,,,,,,,,,,,,,,,,,,,,,,,,,,,,,,,,,,,,,,,,,,,,,,,,,,,,,,,,,,,,,,,,,,,,,,,,,,,,,,,,,,,,,,,,,,,,,,,,,,,,,
,,611e981ff1974fc524751d25,2024-02-21_21h24.12.926,kallum_motion_pilot,2023.2.2,MacIntel,59.88023952,611e981ff1974fc524751d25,65d6bb0e977760de756971f7,65d6be4211081d3e25dfeead,0.0142,0.0142,0,82,82,117,1,seveneight,,,,,,,,,,,,,,,,,,,,,,,,,,,,,,,,,,,,,,,,,,,,,,,,,,,,,,,,,,,,,,,,,,,,,,,,,,,,,,,,,,,,,,,,,,,,,,,,,,,,,,,,,,,,,,,,,,,,,,,,,,,,,,,,,,,,,,,,,
,,611e981ff1974fc524751d25,2024-02-21_21h24.12.926,kallum_motion_pilot,2023.2.2,MacIntel,59.88023952,611e981ff1974fc524751d25,65d6bb0e977760de756971f7,65d6be4211081d3e25dfeead,0.0142,0.0142,0,83,83,25,1,onethree,,,,,,,,,,,,,,,,,,,,,,,,,,,,,,,,,,,,,,,,,,,,,,,,,,,,,,,,,,,,,,,,,,,,,,,,,,,,,,,,,,,,,,,,,,,,,,,,,,,,,,,,,,,,,,,,,,,,,,,,,,,,,,,,,,,,,,,,,
,,611e981ff1974fc524751d25,2024-02-21_21h24.12.926,kallum_motion_pilot,2023.2.2,MacIntel,59.88023952,611e981ff1974fc524751d25,65d6bb0e977760de756971f7,65d6be4211081d3e25dfeead,0.0142,0.0142,0,84,84,129,1,fiveseven,,,,,,,,,,,,,,,,,,,,,,,,,,,,,,,,,,,,,,,,,,,,,,,,,,,,,,,,,,,,,,,,,,,,,,,,,,,,,,,,,,,,,,,,,,,,,,,,,,,,,,,,,,,,,,,,,,,,,,,,,,,,,,,,,,,,,,,,,
,,611e981ff1974fc524751d25,2024-02-21_21h24.12.926,kallum_motion_pilot,2023.2.2,MacIntel,59.88023952,611e981ff1974fc524751d25,65d6bb0e977760de756971f7,65d6be4211081d3e25dfeead,0.0142,0.0142,0,85,85,16,1,onetwo,,,,,,,,,,,,,,,,,,,,,,,,,,,,,,,,,,,,,,,,,,,,,,,,,,,,,,,,,,,,,,,,,,,,,,,,,,,,,,,,,,,,,,,,,,,,,,,,,,,,,,,,,,,,,,,,,,,,,,,,,,,,,,,,,,,,,,,,,
,,611e981ff1974fc524751d25,2024-02-21_21h24.12.926,kallum_motion_pilot,2023.2.2,MacIntel,59.88023952,611e981ff1974fc524751d25,65d6bb0e977760de756971f7,65d6be4211081d3e25dfeead,0.0142,0.0143,0,86,86,10,1,twoone,,,,,,,,,,,,,,,,,,,,,,,,,,,,,,,,,,,,,,,,,,,,,,,,,,,,,,,,,,,,,,,,,,,,,,,,,,,,,,,,,,,,,,,,,,,,,,,,,,,,,,,,,,,,,,,,,,,,,,,,,,,,,,,,,,,,,,,,,
,,611e981ff1974fc524751d25,2024-02-21_21h24.12.926,kallum_motion_pilot,2023.2.2,MacIntel,59.88023952,611e981ff1974fc524751d25,65d6bb0e977760de756971f7,65d6be4211081d3e25dfeead,0.0143,0.0144,0,87,87,7,1,fourthree,,,,,,,,,,,,,,,,,,,,,,,,,,,,,,,,,,,,,,,,,,,,,,,,,,,,,,,,,,,,,,,,,,,,,,,,,,,,,,,,,,,,,,,,,,,,,,,,,,,,,,,,,,,,,,,,,,,,,,,,,,,,,,,,,,,,,,,,,
,,611e981ff1974fc524751d25,2024-02-21_21h24.12.926,kallum_motion_pilot,2023.2.2,MacIntel,59.88023952,611e981ff1974fc524751d25,65d6bb0e977760de756971f7,65d6be4211081d3e25dfeead,0.0144,0.0144,0,88,88,11,1,twofour,,,,,,,,,,,,,,,,,,,,,,,,,,,,,,,,,,,,,,,,,,,,,,,,,,,,,,,,,,,,,,,,,,,,,,,,,,,,,,,,,,,,,,,,,,,,,,,,,,,,,,,,,,,,,,,,,,,,,,,,,,,,,,,,,,,,,,,,,
,,611e981ff1974fc524751d25,2024-02-21_21h24.12.926,kallum_motion_pilot,2023.2.2,MacIntel,59.88023952,611e981ff1974fc524751d25,65d6bb0e977760de756971f7,65d6be4211081d3e25dfeead,0.0144,0.0145,0,89,89,81,1,fiveseven,,,,,,,,,,,,,,,,,,,,,,,,,,,,,,,,,,,,,,,,,,,,,,,,,,,,,,,,,,,,,,,,,,,,,,,,,,,,,,,,,,,,,,,,,,,,,,,,,,,,,,,,,,,,,,,,,,,,,,,,,,,,,,,,,,,,,,,,,
,,611e981ff1974fc524751d25,2024-02-21_21h24.12.926,kallum_motion_pilot,2023.2.2,MacIntel,59.88023952,611e981ff1974fc524751d25,65d6bb0e977760de756971f7,65d6be4211081d3e25dfeead,0.0145,0.0145,0,90,90,125,1,seveneight,,,,,,,,,,,,,,,,,,,,,,,,,,,,,,,,,,,,,,,,,,,,,,,,,,,,,,,,,,,,,,,,,,,,,,,,,,,,,,,,,,,,,,,,,,,,,,,,,,,,,,,,,,,,,,,,,,,,,,,,,,,,,,,,,,,,,,,,,
,,611e981ff1974fc524751d25,2024-02-21_21h24.12.926,kallum_motion_pilot,2023.2.2,MacIntel,59.88023952,611e981ff1974fc524751d25,65d6bb0e977760de756971f7,65d6be4211081d3e25dfeead,0.0145,0.0145,0,91,91,46,1,fourtwo,,,,,,,,,,,,,,,,,,,,,,,,,,,,,,,,,,,,,,,,,,,,,,,,,,,,,,,,,,,,,,,,,,,,,,,,,,,,,,,,,,,,,,,,,,,,,,,,,,,,,,,,,,,,,,,,,,,,,,,,,,,,,,,,,,,,,,,,,
,,611e981ff1974fc524751d25,2024-02-21_21h24.12.926,kallum_motion_pilot,2023.2.2,MacIntel,59.88023952,611e981ff1974fc524751d25,65d6bb0e977760de756971f7,65d6be4211081d3e25dfeead,0.0145,0.0145,0,92,92,154,1,sixfive,,,,,,,,,,,,,,,,,,,,,,,,,,,,,,,,,,,,,,,,,,,,,,,,,,,,,,,,,,,,,,,,,,,,,,,,,,,,,,,,,,,,,,,,,,,,,,,,,,,,,,,,,,,,,,,,,,,,,,,,,,,,,,,,,,,,,,,,,
,,611e981ff1974fc524751d25,2024-02-21_21h24.12.926,kallum_motion_pilot,2023.2.2,MacIntel,59.88023952,611e981ff1974fc524751d25,65d6bb0e977760de756971f7,65d6be4211081d3e25dfeead,0.0145,0.0146,0,93,93,124,1,sevenfive,,,,,,,,,,,,,,,,,,,,,,,,,,,,,,,,,,,,,,,,,,,,,,,,,,,,,,,,,,,,,,,,,,,,,,,,,,,,,,,,,,,,,,,,,,,,,,,,,,,,,,,,,,,,,,,,,,,,,,,,,,,,,,,,,,,,,,,,,
,,611e981ff1974fc524751d25,2024-02-21_21h24.12.926,kallum_motion_pilot,2023.2.2,MacIntel,59.88023952,611e981ff1974fc524751d25,65d6bb0e977760de756971f7,65d6be4211081d3e25dfeead,0.0146,0.0146,0,94,94,53,1,threefour,,,,,,,,,,,,,,,,,,,,,,,,,,,,,,,,,,,,,,,,,,,,,,,,,,,,,,,,,,,,,,,,,,,,,,,,,,,,,,,,,,,,,,,,,,,,,,,,,,,,,,,,,,,,,,,,,,,,,,,,,,,,,,,,,,,,,,,,,
,,611e981ff1974fc524751d25,2024-02-21_21h24.12.926,kallum_motion_pilot,2023.2.2,MacIntel,59.88023952,611e981ff1974fc524751d25,65d6bb0e977760de756971f7,65d6be4211081d3e25dfeead,0.0147,0.0147,0,95,95,64,1,onetwo,,,,,,,,,,,,,,,,,,,,,,,,,,,,,,,,,,,,,,,,,,,,,,,,,,,,,,,,,,,,,,,,,,,,,,,,,,,,,,,,,,,,,,,,,,,,,,,,,,,,,,,,,,,,,,,,,,,,,,,,,,,,,,,,,,,,,,,,,
,,611e981ff1974fc524751d25,2024-02-21_21h24.12.926,kallum_motion_pilot,2023.2.2,MacIntel,59.88023952,611e981ff1974fc524751d25,65d6bb0e977760de756971f7,65d6be4211081d3e25dfeead,0.0147,0.0148,0,96,96,37,1,threefour,,,,,,,,,,,,,,,,,,,,,,,,,,,,,,,,,,,,,,,,,,,,,,,,,,,,,,,,,,,,,,,,,,,,,,,,,,,,,,,,,,,,,,,,,,,,,,,,,,,,,,,,,,,,,,,,,,,,,,,,,,,,,,,,,,,,,,,,,
,,611e981ff1974fc524751d25,2024-02-21_21h24.12.926,kallum_motion_pilot,2023.2.2,MacIntel,59.88023952,611e981ff1974fc524751d25,65d6bb0e977760de756971f7,65d6be4211081d3e25dfeead,0.0148,0.0148,0,97,97,40,1,onetwo,,,,,,,,,,,,,,,,,,,,,,,,,,,,,,,,,,,,,,,,,,,,,,,,,,,,,,,,,,,,,,,,,,,,,,,,,,,,,,,,,,,,,,,,,,,,,,,,,,,,,,,,,,,,,,,,,,,,,,,,,,,,,,,,,,,,,,,,,
,,611e981ff1974fc524751d25,2024-02-21_21h24.12.926,kallum_motion_pilot,2023.2.2,MacIntel,59.88023952,611e981ff1974fc524751d25,65d6bb0e977760de756971f7,65d6be4211081d3e25dfeead,0.0148,0.0148,0,98,98,142,1,eightsix,,,,,,,,,,,,,,,,,,,,,,,,,,,,,,,,,,,,,,,,,,,,,,,,,,,,,,,,,,,,,,,,,,,,,,,,,,,,,,,,,,,,,,,,,,,,,,,,,,,,,,,,,,,,,,,,,,,,,,,,,,,,,,,,,,,,,,,,,
,,611e981ff1974fc524751d25,2024-02-21_21h24.12.926,kallum_motion_pilot,2023.2.2,MacIntel,59.88023952,611e981ff1974fc524751d25,65d6bb0e977760de756971f7,65d6be4211081d3e25dfeead,0.0148,0.0148,0,99,99,83,1,sixeight,,,,,,,,,,,,,,,,,,,,,,,,,,,,,,,,,,,,,,,,,,,,,,,,,,,,,,,,,,,,,,,,,,,,,,,,,,,,,,,,,,,,,,,,,,,,,,,,,,,,,,,,,,,,,,,,,,,,,,,,,,,,,,,,,,,,,,,,,
,,611e981ff1974fc524751d25,2024-02-21_21h24.12.926,kallum_motion_pilot,2023.2.2,MacIntel,59.88023952,611e981ff1974fc524751d25,65d6bb0e977760de756971f7,65d6be4211081d3e25dfeead,0.0149,0.0149,0,100,100,44,1,threeone,,,,,,,,,,,,,,,,,,,,,,,,,,,,,,,,,,,,,,,,,,,,,,,,,,,,,,,,,,,,,,,,,,,,,,,,,,,,,,,,,,,,,,,,,,,,,,,,,,,,,,,,,,,,,,,,,,,,,,,,,,,,,,,,,,,,,,,,,
,,611e981ff1974fc524751d25,2024-02-21_21h24.12.926,kallum_motion_pilot,2023.2.2,MacIntel,59.88023952,611e981ff1974fc524751d25,65d6bb0e977760de756971f7,65d6be4211081d3e25dfeead,0.0149,0.0149,0,101,101,88,1,fivesix,,,,,,,,,,,,,,,,,,,,,,,,,,,,,,,,,,,,,,,,,,,,,,,,,,,,,,,,,,,,,,,,,,,,,,,,,,,,,,,,,,,,,,,,,,,,,,,,,,,,,,,,,,,,,,,,,,,,,,,,,,,,,,,,,,,,,,,,,
,,611e981ff1974fc524751d25,2024-02-21_21h24.12.926,kallum_motion_pilot,2023.2.2,MacIntel,59.88023952,611e981ff1974fc524751d25,65d6bb0e977760de756971f7,65d6be4211081d3e25dfeead,0.0149,0.0149,0,102,102,20,1,threeone,,,,,,,,,,,,,,,,,,,,,,,,,,,,,,,,,,,,,,,,,,,,,,,,,,,,,,,,,,,,,,,,,,,,,,,,,,,,,,,,,,,,,,,,,,,,,,,,,,,,,,,,,,,,,,,,,,,,,,,,,,,,,,,,,,,,,,,,,
,,611e981ff1974fc524751d25,2024-02-21_21h24.12.926,kallum_motion_pilot,2023.2.2,MacIntel,59.88023952,611e981ff1974fc524751d25,65d6bb0e977760de756971f7,65d6be4211081d3e25dfeead,0.015,0.015,0,103,103,30,1,fourtwo,,,,,,,,,,,,,,,,,,,,,,,,,,,,,,,,,,,,,,,,,,,,,,,,,,,,,,,,,,,,,,,,,,,,,,,,,,,,,,,,,,,,,,,,,,,,,,,,,,,,,,,,,,,,,,,,,,,,,,,,,,,,,,,,,,,,,,,,,
,,611e981ff1974fc524751d25,2024-02-21_21h24.12.926,kallum_motion_pilot,2023.2.2,MacIntel,59.88023952,611e981ff1974fc524751d25,65d6bb0e977760de756971f7,65d6be4211081d3e25dfeead,0.015,0.0151,0,104,104,98,1,sixfive,,,,,,,,,,,,,,,,,,,,,,,,,,,,,,,,,,,,,,,,,,,,,,,,,,,,,,,,,,,,,,,,,,,,,,,,,,,,,,,,,,,,,,,,,,,,,,,,,,,,,,,,,,,,,,,,,,,,,,,,,,,,,,,,,,,,,,,,,
,,611e981ff1974fc524751d25,2024-02-21_21h24.12.926,kallum_motion_pilot,2023.2.2,MacIntel,59.88023952,611e981ff1974fc524751d25,65d6bb0e977760de756971f7,65d6be4211081d3e25dfeead,0.0151,0.0151,0,105,105,139,1,sixeight,,,,,,,,,,,,,,,,,,,,,,,,,,,,,,,,,,,,,,,,,,,,,,,,,,,,,,,,,,,,,,,,,,,,,,,,,,,,,,,,,,,,,,,,,,,,,,,,,,,,,,,,,,,,,,,,,,,,,,,,,,,,,,,,,,,,,,,,,
,,611e981ff1974fc524751d25,2024-02-21_21h24.12.926,kallum_motion_pilot,2023.2.2,MacIntel,59.88023952,611e981ff1974fc524751d25,65d6bb0e977760de756971f7,65d6be4211081d3e25dfeead,0.0151,0.0151,0,106,106,138,1,sixfive,,,,,,,,,,,,,,,,,,,,,,,,,,,,,,,,,,,,,,,,,,,,,,,,,,,,,,,,,,,,,,,,,,,,,,,,,,,,,,,,,,,,,,,,,,,,,,,,,,,,,,,,,,,,,,,,,,,,,,,,,,,,,,,,,,,,,,,,,
,,611e981ff1974fc524751d25,2024-02-21_21h24.12.926,kallum_motion_pilot,2023.2.2,MacIntel,59.88023952,611e981ff1974fc524751d25,65d6bb0e977760de756971f7,65d6be4211081d3e25dfeead,0.0152,0.0152,0,107,107,150,1,eightsix,,,,,,,,,,,,,,,,,,,,,,,,,,,,,,,,,,,,,,,,,,,,,,,,,,,,,,,,,,,,,,,,,,,,,,,,,,,,,,,,,,,,,,,,,,,,,,,,,,,,,,,,,,,,,,,,,,,,,,,,,,,,,,,,,,,,,,,,,
,,611e981ff1974fc524751d25,2024-02-21_21h24.12.926,kallum_motion_pilot,2023.2.2,MacIntel,59.88023952,611e981ff1974fc524751d25,65d6bb0e977760de756971f7,65d6be4211081d3e25dfeead,0.0152,0.0152,0,108,108,48,1,onetwo,,,,,,,,,,,,,,,,,,,,,,,,,,,,,,,,,,,,,,,,,,,,,,,,,,,,,,,,,,,,,,,,,,,,,,,,,,,,,,,,,,,,,,,,,,,,,,,,,,,,,,,,,,,,,,,,,,,,,,,,,,,,,,,,,,,,,,,,,
,,611e981ff1974fc524751d25,2024-02-21_21h24.12.926,kallum_motion_pilot,2023.2.2,MacIntel,59.88023952,611e981ff1974fc524751d25,65d6bb0e977760de756971f7,65d6be4211081d3e25dfeead,0.0152,0.0152,0,109,109,116,1,sevenfive,,,,,,,,,,,,,,,,,,,,,,,,,,,,,,,,,,,,,,,,,,,,,,,,,,,,,,,,,,,,,,,,,,,,,,,,,,,,,,,,,,,,,,,,,,,,,,,,,,,,,,,,,,,,,,,,,,,,,,,,,,,,,,,,,,,,,,,,,
,,611e981ff1974fc524751d25,2024-02-21_21h24.12.926,kallum_motion_pilot,2023.2.2,MacIntel,59.88023952,611e981ff1974fc524751d25,65d6bb0e977760de756971f7,65d6be4211081d3e25dfeead,0.0153,0.0153,0,110,110,102,1,eightsix,,,,,,,,,,,,,,,,,,,,,,,,,,,,,,,,,,,,,,,,,,,,,,,,,,,,,,,,,,,,,,,,,,,,,,,,,,,,,,,,,,,,,,,,,,,,,,,,,,,,,,,,,,,,,,,,,,,,,,,,,,,,,,,,,,,,,,,,,
,,611e981ff1974fc524751d25,2024-02-21_21h24.12.926,kallum_motion_pilot,2023.2.2,MacIntel,59.88023952,611e981ff1974fc524751d25,65d6bb0e977760de756971f7,65d6be4211081d3e25dfeead,0.0153,0.0153,0,111,111,63,1,fourthree,,,,,,,,,,,,,,,,,,,,,,,,,,,,,,,,,,,,,,,,,,,,,,,,,,,,,,,,,,,,,,,,,,,,,,,,,,,,,,,,,,,,,,,,,,,,,,,,,,,,,,,,,,,,,,,,,,,,,,,,,,,,,,,,,,,,,,,,,
,,611e981ff1974fc524751d25,2024-02-21_21h24.12.926,kallum_motion_pilot,2023.2.2,MacIntel,59.88023952,611e981ff1974fc524751d25,65d6bb0e977760de756971f7,65d6be4211081d3e25dfeead,0.0153,0.0153,0,112,112,6,1,fourtwo,,,,,,,,,,,,,,,,,,,,,,,,,,,,,,,,,,,,,,,,,,,,,,,,,,,,,,,,,,,,,,,,,,,,,,,,,,,,,,,,,,,,,,,,,,,,,,,,,,,,,,,,,,,,,,,,,,,,,,,,,,,,,,,,,,,,,,,,,
,,611e981ff1974fc524751d25,2024-02-21_21h24.12.926,kallum_motion_pilot,2023.2.2,MacIntel,59.88023952,611e981ff1974fc524751d25,65d6bb0e977760de756971f7,65d6be4211081d3e25dfeead,0.0154,0.0154,0,113,113,135,1,eightseven,,,,,,,,,,,,,,,,,,,,,,,,,,,,,,,,,,,,,,,,,,,,,,,,,,,,,,,,,,,,,,,,,,,,,,,,,,,,,,,,,,,,,,,,,,,,,,,,,,,,,,,,,,,,,,,,,,,,,,,,,,,,,,,,,,,,,,,,,
,,611e981ff1974fc524751d25,2024-02-21_21h24.12.926,kallum_motion_pilot,2023.2.2,MacIntel,59.88023952,611e981ff1974fc524751d25,65d6bb0e977760de756971f7,65d6be4211081d3e25dfeead,0.0154,0.0154,0,114,114,18,1,twoone,,,,,,,,,,,,,,,,,,,,,,,,,,,,,,,,,,,,,,,,,,,,,,,,,,,,,,,,,,,,,,,,,,,,,,,,,,,,,,,,,,,,,,,,,,,,,,,,,,,,,,,,,,,,,,,,,,,,,,,,,,,,,,,,,,,,,,,,,
,,611e981ff1974fc524751d25,2024-02-21_21h24.12.926,kallum_motion_pilot,2023.2.2,MacIntel,59.88023952,611e981ff1974fc524751d25,65d6bb0e977760de756971f7,65d6be4211081d3e25dfeead,0.0154,0.0155,0,115,115,41,1,onethree,,,,,,,,,,,,,,,,,,,,,,,,,,,,,,,,,,,,,,,,,,,,,,,,,,,,,,,,,,,,,,,,,,,,,,,,,,,,,,,,,,,,,,,,,,,,,,,,,,,,,,,,,,,,,,,,,,,,,,,,,,,,,,,,,,,,,,,,,
,,611e981ff1974fc524751d25,2024-02-21_21h24.12.926,kallum_motion_pilot,2023.2.2,MacIntel,59.88023952,611e981ff1974fc524751d25,65d6bb0e977760de756971f7,65d6be4211081d3e25dfeead,0.0156,0.0156,0,116,116,3,1,twofour,,,,,,,,,,,,,,,,,,,,,,,,,,,,,,,,,,,,,,,,,,,,,,,,,,,,,,,,,,,,,,,,,,,,,,,,,,,,,,,,,,,,,,,,,,,,,,,,,,,,,,,,,,,,,,,,,,,,,,,,,,,,,,,,,,,,,,,,,
,,611e981ff1974fc524751d25,2024-02-21_21h24.12.926,kallum_motion_pilot,2023.2.2,MacIntel,59.88023952,611e981ff1974fc524751d25,65d6bb0e977760de756971f7,65d6be4211081d3e25dfeead,0.0156,0.0156,0,117,117,69,1,threefour,,,,,,,,,,,,,,,,,,,,,,,,,,,,,,,,,,,,,,,,,,,,,,,,,,,,,,,,,,,,,,,,,,,,,,,,,,,,,,,,,,,,,,,,,,,,,,,,,,,,,,,,,,,,,,,,,,,,,,,,,,,,,,,,,,,,,,,,,
,,611e981ff1974fc524751d25,2024-02-21_21h24.12.926,kallum_motion_pilot,2023.2.2,MacIntel,59.88023952,611e981ff1974fc524751d25,65d6bb0e977760de756971f7,65d6be4211081d3e25dfeead,0.0157,0.0157,0,118,118,15,1,fourthree,,,,,,,,,,,,,,,,,,,,,,,,,,,,,,,,,,,,,,,,,,,,,,,,,,,,,,,,,,,,,,,,,,,,,,,,,,,,,,,,,,,,,,,,,,,,,,,,,,,,,,,,,,,,,,,,,,,,,,,,,,,,,,,,,,,,,,,,,
,,611e981ff1974fc524751d25,2024-02-21_21h24.12.926,kallum_motion_pilot,2023.2.2,MacIntel,59.88023952,611e981ff1974fc524751d25,65d6bb0e977760de756971f7,65d6be4211081d3e25dfeead,0.0157,0.0157,0,119,119,91,1,sixeight,,,,,,,,,,,,,,,,,,,,,,,,,,,,,,,,,,,,,,,,,,,,,,,,,,,,,,,,,,,,,,,,,,,,,,,,,,,,,,,,,,,,,,,,,,,,,,,,,,,,,,,,,,,,,,,,,,,,,,,,,,,,,,,,,,,,,,,,,
,,611e981ff1974fc524751d25,2024-02-21_21h24.12.926,kallum_motion_pilot,2023.2.2,MacIntel,59.88023952,611e981ff1974fc524751d25,65d6bb0e977760de756971f7,65d6be4211081d3e25dfeead,0.0157,0.0157,0,120,120,56,1,onetwo,,,,,,,,,,,,,,,,,,,,,,,,,,,,,,,,,,,,,,,,,,,,,,,,,,,,,,,,,,,,,,,,,,,,,,,,,,,,,,,,,,,,,,,,,,,,,,,,,,,,,,,,,,,,,,,,,,,,,,,,,,,,,,,,,,,,,,,,,
,,611e981ff1974fc524751d25,2024-02-21_21h24.12.926,kallum_motion_pilot,2023.2.2,MacIntel,59.88023952,611e981ff1974fc524751d25,65d6bb0e977760de756971f7,65d6be4211081d3e25dfeead,0.0157,0.0158,0,121,121,153,1,fiveseven,,,,,,,,,,,,,,,,,,,,,,,,,,,,,,,,,,,,,,,,,,,,,,,,,,,,,,,,,,,,,,,,,,,,,,,,,,,,,,,,,,,,,,,,,,,,,,,,,,,,,,,,,,,,,,,,,,,,,,,,,,,,,,,,,,,,,,,,,
,,611e981ff1974fc524751d25,2024-02-21_21h24.12.926,kallum_motion_pilot,2023.2.2,MacIntel,59.88023952,611e981ff1974fc524751d25,65d6bb0e977760de756971f7,65d6be4211081d3e25dfeead,0.0158,0.0159,0,122,122,74,1,twoone,,,,,,,,,,,,,,,,,,,,,,,,,,,,,,,,,,,,,,,,,,,,,,,,,,,,,,,,,,,,,,,,,,,,,,,,,,,,,,,,,,,,,,,,,,,,,,,,,,,,,,,,,,,,,,,,,,,,,,,,,,,,,,,,,,,,,,,,,
,,611e981ff1974fc524751d25,2024-02-21_21h24.12.926,kallum_motion_pilot,2023.2.2,MacIntel,59.88023952,611e981ff1974fc524751d25,65d6bb0e977760de756971f7,65d6be4211081d3e25dfeead,0.0159,0.0159,0,123,123,77,1,threefour,,,,,,,,,,,,,,,,,,,,,,,,,,,,,,,,,,,,,,,,,,,,,,,,,,,,,,,,,,,,,,,,,,,,,,,,,,,,,,,,,,,,,,,,,,,,,,,,,,,,,,,,,,,,,,,,,,,,,,,,,,,,,,,,,,,,,,,,,
,,611e981ff1974fc524751d25,2024-02-21_21h24.12.926,kallum_motion_pilot,2023.2.2,MacIntel,59.88023952,611e981ff1974fc524751d25,65d6bb0e977760de756971f7,65d6be4211081d3e25dfeead,0.0159,0.0159,0,124,124,87,1,eightseven,,,,,,,,,,,,,,,,,,,,,,,,,,,,,,,,,,,,,,,,,,,,,,,,,,,,,,,,,,,,,,,,,,,,,,,,,,,,,,,,,,,,,,,,,,,,,,,,,,,,,,,,,,,,,,,,,,,,,,,,,,,,,,,,,,,,,,,,,
,,611e981ff1974fc524751d25,2024-02-21_21h24.12.926,kallum_motion_pilot,2023.2.2,MacIntel,59.88023952,611e981ff1974fc524751d25,65d6bb0e977760de756971f7,65d6be4211081d3e25dfeead,0.0159,0.016,0,125,125,148,1,sevenfive,,,,,,,,,,,,,,,,,,,,,,,,,,,,,,,,,,,,,,,,,,,,,,,,,,,,,,,,,,,,,,,,,,,,,,,,,,,,,,,,,,,,,,,,,,,,,,,,,,,,,,,,,,,,,,,,,,,,,,,,,,,,,,,,,,,,,,,,,
,,611e981ff1974fc524751d25,2024-02-21_21h24.12.926,kallum_motion_pilot,2023.2.2,MacIntel,59.88023952,611e981ff1974fc524751d25,65d6bb0e977760de756971f7,65d6be4211081d3e25dfeead,0.016,0.016,0,126,126,99,1,sixeight,,,,,,,,,,,,,,,,,,,,,,,,,,,,,,,,,,,,,,,,,,,,,,,,,,,,,,,,,,,,,,,,,,,,,,,,,,,,,,,,,,,,,,,,,,,,,,,,,,,,,,,,,,,,,,,,,,,,,,,,,,,,,,,,,,,,,,,,,
,,611e981ff1974fc524751d25,2024-02-21_21h24.12.926,kallum_motion_pilot,2023.2.2,MacIntel,59.88023952,611e981ff1974fc524751d25,65d6bb0e977760de756971f7,65d6be4211081d3e25dfeead,0.016,0.0161,0,127,127,122,1,sixfive,,,,,,,,,,,,,,,,,,,,,,,,,,,,,,,,,,,,,,,,,,,,,,,,,,,,,,,,,,,,,,,,,,,,,,,,,,,,,,,,,,,,,,,,,,,,,,,,,,,,,,,,,,,,,,,,,,,,,,,,,,,,,,,,,,,,,,,,,
,,611e981ff1974fc524751d25,2024-02-21_21h24.12.926,kallum_motion_pilot,2023.2.2,MacIntel,59.88023952,611e981ff1974fc524751d25,65d6bb0e977760de756971f7,65d6be4211081d3e25dfeead,0.0161,0.0162,0,128,128,58,1,twoone,,,,,,,,,,,,,,,,,,,,,,,,,,,,,,,,,,,,,,,,,,,,,,,,,,,,,,,,,,,,,,,,,,,,,,,,,,,,,,,,,,,,,,,,,,,,,,,,,,,,,,,,,,,,,,,,,,,,,,,,,,,,,,,,,,,,,,,,,
,,611e981ff1974fc524751d25,2024-02-21_21h24.12.926,kallum_motion_pilot,2023.2.2,MacIntel,59.88023952,611e981ff1974fc524751d25,65d6bb0e977760de756971f7,65d6be4211081d3e25dfeead,0.0162,0.0162,0,129,129,134,1,eightsix,,,,,,,,,,,,,,,,,,,,,,,,,,,,,,,,,,,,,,,,,,,,,,,,,,,,,,,,,,,,,,,,,,,,,,,,,,,,,,,,,,,,,,,,,,,,,,,,,,,,,,,,,,,,,,,,,,,,,,,,,,,,,,,,,,,,,,,,,
,,611e981ff1974fc524751d25,2024-02-21_21h24.12.926,kallum_motion_pilot,2023.2.2,MacIntel,59.88023952,611e981ff1974fc524751d25,65d6bb0e977760de756971f7,65d6be4211081d3e25dfeead,0.0163,0.0163,0,130,130,109,1,seveneight,,,,,,,,,,,,,,,,,,,,,,,,,,,,,,,,,,,,,,,,,,,,,,,,,,,,,,,,,,,,,,,,,,,,,,,,,,,,,,,,,,,,,,,,,,,,,,,,,,,,,,,,,,,,,,,,,,,,,,,,,,,,,,,,,,,,,,,,,
,,611e981ff1974fc524751d25,2024-02-21_21h24.12.926,kallum_motion_pilot,2023.2.2,MacIntel,59.88023952,611e981ff1974fc524751d25,65d6bb0e977760de756971f7,65d6be4211081d3e25dfeead,0.0163,0.0163,0,131,131,130,1,sixfive,,,,,,,,,,,,,,,,,,,,,,,,,,,,,,,,,,,,,,,,,,,,,,,,,,,,,,,,,,,,,,,,,,,,,,,,,,,,,,,,,,,,,,,,,,,,,,,,,,,,,,,,,,,,,,,,,,,,,,,,,,,,,,,,,,,,,,,,,
,,611e981ff1974fc524751d25,2024-02-21_21h24.12.926,kallum_motion_pilot,2023.2.2,MacIntel,59.88023952,611e981ff1974fc524751d25,65d6bb0e977760de756971f7,65d6be4211081d3e25dfeead,0.0163,0.0163,0,132,132,5,1,threefour,,,,,,,,,,,,,,,,,,,,,,,,,,,,,,,,,,,,,,,,,,,,,,,,,,,,,,,,,,,,,,,,,,,,,,,,,,,,,,,,,,,,,,,,,,,,,,,,,,,,,,,,,,,,,,,,,,,,,,,,,,,,,,,,,,,,,,,,,
,,611e981ff1974fc524751d25,2024-02-21_21h24.12.926,kallum_motion_pilot,2023.2.2,MacIntel,59.88023952,611e981ff1974fc524751d25,65d6bb0e977760de756971f7,65d6be4211081d3e25dfeead,0.0164,0.0164,0,133,133,119,1,eightseven,,,,,,,,,,,,,,,,,,,,,,,,,,,,,,,,,,,,,,,,,,,,,,,,,,,,,,,,,,,,,,,,,,,,,,,,,,,,,,,,,,,,,,,,,,,,,,,,,,,,,,,,,,,,,,,,,,,,,,,,,,,,,,,,,,,,,,,,,
,,611e981ff1974fc524751d25,2024-02-21_21h24.12.926,kallum_motion_pilot,2023.2.2,MacIntel,59.88023952,611e981ff1974fc524751d25,65d6bb0e977760de756971f7,65d6be4211081d3e25dfeead,0.0164,0.0164,0,134,134,70,1,fourtwo,,,,,,,,,,,,,,,,,,,,,,,,,,,,,,,,,,,,,,,,,,,,,,,,,,,,,,,,,,,,,,,,,,,,,,,,,,,,,,,,,,,,,,,,,,,,,,,,,,,,,,,,,,,,,,,,,,,,,,,,,,,,,,,,,,,,,,,,,
,,611e981ff1974fc524751d25,2024-02-21_21h24.12.926,kallum_motion_pilot,2023.2.2,MacIntel,59.88023952,611e981ff1974fc524751d25,65d6bb0e977760de756971f7,65d6be4211081d3e25dfeead,0.0164,0.0164,0,135,135,93,1,seveneight,,,,,,,,,,,,,,,,,,,,,,,,,,,,,,,,,,,,,,,,,,,,,,,,,,,,,,,,,,,,,,,,,,,,,,,,,,,,,,,,,,,,,,,,,,,,,,,,,,,,,,,,,,,,,,,,,,,,,,,,,,,,,,,,,,,,,,,,,
,,611e981ff1974fc524751d25,2024-02-21_21h24.12.926,kallum_motion_pilot,2023.2.2,MacIntel,59.88023952,611e981ff1974fc524751d25,65d6bb0e977760de756971f7,65d6be4211081d3e25dfeead,0.0165,0.0165,0,136,136,155,1,sixeight,,,,,,,,,,,,,,,,,,,,,,,,,,,,,,,,,,,,,,,,,,,,,,,,,,,,,,,,,,,,,,,,,,,,,,,,,,,,,,,,,,,,,,,,,,,,,,,,,,,,,,,,,,,,,,,,,,,,,,,,,,,,,,,,,,,,,,,,,
,,611e981ff1974fc524751d25,2024-02-21_21h24.12.926,kallum_motion_pilot,2023.2.2,MacIntel,59.88023952,611e981ff1974fc524751d25,65d6bb0e977760de756971f7,65d6be4211081d3e25dfeead,0.0166,0.0166,0,137,137,149,1,seveneight,,,,,,,,,,,,,,,,,,,,,,,,,,,,,,,,,,,,,,,,,,,,,,,,,,,,,,,,,,,,,,,,,,,,,,,,,,,,,,,,,,,,,,,,,,,,,,,,,,,,,,,,,,,,,,,,,,,,,,,,,,,,,,,,,,,,,,,,,
,,611e981ff1974fc524751d25,2024-02-21_21h24.12.926,kallum_motion_pilot,2023.2.2,MacIntel,59.88023952,611e981ff1974fc524751d25,65d6bb0e977760de756971f7,65d6be4211081d3e25dfeead,0.0166,0.0166,0,138,138,1,1,onethree,,,,,,,,,,,,,,,,,,,,,,,,,,,,,,,,,,,,,,,,,,,,,,,,,,,,,,,,,,,,,,,,,,,,,,,,,,,,,,,,,,,,,,,,,,,,,,,,,,,,,,,,,,,,,,,,,,,,,,,,,,,,,,,,,,,,,,,,,
,,611e981ff1974fc524751d25,2024-02-21_21h24.12.926,kallum_motion_pilot,2023.2.2,MacIntel,59.88023952,611e981ff1974fc524751d25,65d6bb0e977760de756971f7,65d6be4211081d3e25dfeead,0.0166,0.0167,0,139,139,92,1,sevenfive,,,,,,,,,,,,,,,,,,,,,,,,,,,,,,,,,,,,,,,,,,,,,,,,,,,,,,,,,,,,,,,,,,,,,,,,,,,,,,,,,,,,,,,,,,,,,,,,,,,,,,,,,,,,,,,,,,,,,,,,,,,,,,,,,,,,,,,,,
,,611e981ff1974fc524751d25,2024-02-21_21h24.12.926,kallum_motion_pilot,2023.2.2,MacIntel,59.88023952,611e981ff1974fc524751d25,65d6bb0e977760de756971f7,65d6be4211081d3e25dfeead,0.0167,0.0167,0,140,140,115,1,sixeight,,,,,,,,,,,,,,,,,,,,,,,,,,,,,,,,,,,,,,,,,,,,,,,,,,,,,,,,,,,,,,,,,,,,,,,,,,,,,,,,,,,,,,,,,,,,,,,,,,,,,,,,,,,,,,,,,,,,,,,,,,,,,,,,,,,,,,,,,
,,611e981ff1974fc524751d25,2024-02-21_21h24.12.926,kallum_motion_pilot,2023.2.2,MacIntel,59.88023952,611e981ff1974fc524751d25,65d6bb0e977760de756971f7,65d6be4211081d3e25dfeead,0.0167,0.0167,0,141,141,80,1,fivesix,,,,,,,,,,,,,,,,,,,,,,,,,,,,,,,,,,,,,,,,,,,,,,,,,,,,,,,,,,,,,,,,,,,,,,,,,,,,,,,,,,,,,,,,,,,,,,,,,,,,,,,,,,,,,,,,,,,,,,,,,,,,,,,,,,,,,,,,,
,,611e981ff1974fc524751d25,2024-02-21_21h24.12.926,kallum_motion_pilot,2023.2.2,MacIntel,59.88023952,611e981ff1974fc524751d25,65d6bb0e977760de756971f7,65d6be4211081d3e25dfeead,0.0167,0.0168,0,142,142,143,1,eightseven,,,,,,,,,,,,,,,,,,,,,,,,,,,,,,,,,,,,,,,,,,,,,,,,,,,,,,,,,,,,,,,,,,,,,,,,,,,,,,,,,,,,,,,,,,,,,,,,,,,,,,,,,,,,,,,,,,,,,,,,,,,,,,,,,,,,,,,,,
,,611e981ff1974fc524751d25,2024-02-21_21h24.12.926,kallum_motion_pilot,2023.2.2,MacIntel,59.88023952,611e981ff1974fc524751d25,65d6bb0e977760de756971f7,65d6be4211081d3e25dfeead,0.0168,0.0168,0,143,143,24,1,onetwo,,,,,,,,,,,,,,,,,,,,,,,,,,,,,,,,,,,,,,,,,,,,,,,,,,,,,,,,,,,,,,,,,,,,,,,,,,,,,,,,,,,,,,,,,,,,,,,,,,,,,,,,,,,,,,,,,,,,,,,,,,,,,,,,,,,,,,,,,
,,611e981ff1974fc524751d25,2024-02-21_21h24.12.926,kallum_motion_pilot,2023.2.2,MacIntel,59.88023952,611e981ff1974fc524751d25,65d6bb0e977760de756971f7,65d6be4211081d3e25dfeead,0.0168,0.0168,0,144,144,39,1,fourthree,,,,,,,,,,,,,,,,,,,,,,,,,,,,,,,,,,,,,,,,,,,,,,,,,,,,,,,,,,,,,,,,,,,,,,,,,,,,,,,,,,,,,,,,,,,,,,,,,,,,,,,,,,,,,,,,,,,,,,,,,,,,,,,,,,,,,,,,,
,,611e981ff1974fc524751d25,2024-02-21_21h24.12.926,kallum_motion_pilot,2023.2.2,MacIntel,59.88023952,611e981ff1974fc524751d25,65d6bb0e977760de756971f7,65d6be4211081d3e25dfeead,0.0169,0.0169,0,145,145,79,1,eightseven,,,,,,,,,,,,,,,,,,,,,,,,,,,,,,,,,,,,,,,,,,,,,,,,,,,,,,,,,,,,,,,,,,,,,,,,,,,,,,,,,,,,,,,,,,,,,,,,,,,,,,,,,,,,,,,,,,,,,,,,,,,,,,,,,,,,,,,,,
,,611e981ff1974fc524751d25,2024-02-21_21h24.12.926,kallum_motion_pilot,2023.2.2,MacIntel,59.88023952,611e981ff1974fc524751d25,65d6bb0e977760de756971f7,65d6be4211081d3e25dfeead,0.0169,0.0169,0,146,146,61,1,threefour,,,,,,,,,,,,,,,,,,,,,,,,,,,,,,,,,,,,,,,,,,,,,,,,,,,,,,,,,,,,,,,,,,,,,,,,,,,,,,,,,,,,,,,,,,,,,,,,,,,,,,,,,,,,,,,,,,,,,,,,,,,,,,,,,,,,,,,,,
,,611e981ff1974fc524751d25,2024-02-21_21h24.12.926,kallum_motion_pilot,2023.2.2,MacIntel,59.88023952,611e981ff1974fc524751d25,65d6bb0e977760de756971f7,65d6be4211081d3e25dfeead,0.017,0.017,0,147,147,123,1,sixeight,,,,,,,,,,,,,,,,,,,,,,,,,,,,,,,,,,,,,,,,,,,,,,,,,,,,,,,,,,,,,,,,,,,,,,,,,,,,,,,,,,,,,,,,,,,,,,,,,,,,,,,,,,,,,,,,,,,,,,,,,,,,,,,,,,,,,,,,,
,,611e981ff1974fc524751d25,2024-02-21_21h24.12.926,kallum_motion_pilot,2023.2.2,MacIntel,59.88023952,611e981ff1974fc524751d25,65d6bb0e977760de756971f7,65d6be4211081d3e25dfeead,0.017,0.017,0,148,148,159,1,eightseven,,,,,,,,,,,,,,,,,,,,,,,,,,,,,,,,,,,,,,,,,,,,,,,,,,,,,,,,,,,,,,,,,,,,,,,,,,,,,,,,,,,,,,,,,,,,,,,,,,,,,,,,,,,,,,,,,,,,,,,,,,,,,,,,,,,,,,,,,
,,611e981ff1974fc524751d25,2024-02-21_21h24.12.926,kallum_motion_pilot,2023.2.2,MacIntel,59.88023952,611e981ff1974fc524751d25,65d6bb0e977760de756971f7,65d6be4211081d3e25dfeead,0.017,0.0172,0,149,149,45,1,threefour,,,,,,,,,,,,,,,,,,,,,,,,,,,,,,,,,,,,,,,,,,,,,,,,,,,,,,,,,,,,,,,,,,,,,,,,,,,,,,,,,,,,,,,,,,,,,,,,,,,,,,,,,,,,,,,,,,,,,,,,,,,,,,,,,,,,,,,,,
,,611e981ff1974fc524751d25,2024-02-21_21h24.12.926,kallum_motion_pilot,2023.2.2,MacIntel,59.88023952,611e981ff1974fc524751d25,65d6bb0e977760de756971f7,65d6be4211081d3e25dfeead,0.0172,0.0172,0,150,150,55,1,fourthree,,,,,,,,,,,,,,,,,,,,,,,,,,,,,,,,,,,,,,,,,,,,,,,,,,,,,,,,,,,,,,,,,,,,,,,,,,,,,,,,,,,,,,,,,,,,,,,,,,,,,,,,,,,,,,,,,,,,,,,,,,,,,,,,,,,,,,,,,
,,611e981ff1974fc524751d25,2024-02-21_21h24.12.926,kallum_motion_pilot,2023.2.2,MacIntel,59.88023952,611e981ff1974fc524751d25,65d6bb0e977760de756971f7,65d6be4211081d3e25dfeead,0.0172,0.0172,0,151,151,144,1,fivesix,,,,,,,,,,,,,,,,,,,,,,,,,,,,,,,,,,,,,,,,,,,,,,,,,,,,,,,,,,,,,,,,,,,,,,,,,,,,,,,,,,,,,,,,,,,,,,,,,,,,,,,,,,,,,,,,,,,,,,,,,,,,,,,,,,,,,,,,,
,,611e981ff1974fc524751d25,2024-02-21_21h24.12.926,kallum_motion_pilot,2023.2.2,MacIntel,59.88023952,611e981ff1974fc524751d25,65d6bb0e977760de756971f7,65d6be4211081d3e25dfeead,0.0173,0.0173,0,152,152,73,1,onethree,,,,,,,,,,,,,,,,,,,,,,,,,,,,,,,,,,,,,,,,,,,,,,,,,,,,,,,,,,,,,,,,,,,,,,,,,,,,,,,,,,,,,,,,,,,,,,,,,,,,,,,,,,,,,,,,,,,,,,,,,,,,,,,,,,,,,,,,,
,,611e981ff1974fc524751d25,2024-02-21_21h24.12.926,kallum_motion_pilot,2023.2.2,MacIntel,59.88023952,611e981ff1974fc524751d25,65d6bb0e977760de756971f7,65d6be4211081d3e25dfeead,0.0173,0.0173,0,153,153,68,1,threeone,,,,,,,,,,,,,,,,,,,,,,,,,,,,,,,,,,,,,,,,,,,,,,,,,,,,,,,,,,,,,,,,,,,,,,,,,,,,,,,,,,,,,,,,,,,,,,,,,,,,,,,,,,,,,,,,,,,,,,,,,,,,,,,,,,,,,,,,,
,,611e981ff1974fc524751d25,2024-02-21_21h24.12.926,kallum_motion_pilot,2023.2.2,MacIntel,59.88023952,611e981ff1974fc524751d25,65d6bb0e977760de756971f7,65d6be4211081d3e25dfeead,0.0174,0.0174,0,154,154,114,1,sixfive,,,,,,,,,,,,,,,,,,,,,,,,,,,,,,,,,,,,,,,,,,,,,,,,,,,,,,,,,,,,,,,,,,,,,,,,,,,,,,,,,,,,,,,,,,,,,,,,,,,,,,,,,,,,,,,,,,,,,,,,,,,,,,,,,,,,,,,,,
,,611e981ff1974fc524751d25,2024-02-21_21h24.12.926,kallum_motion_pilot,2023.2.2,MacIntel,59.88023952,611e981ff1974fc524751d25,65d6bb0e977760de756971f7,65d6be4211081d3e25dfeead,0.0174,0.0174,0,155,155,126,1,eightsix,,,,,,,,,,,,,,,,,,,,,,,,,,,,,,,,,,,,,,,,,,,,,,,,,,,,,,,,,,,,,,,,,,,,,,,,,,,,,,,,,,,,,,,,,,,,,,,,,,,,,,,,,,,,,,,,,,,,,,,,,,,,,,,,,,,,,,,,,
,,611e981ff1974fc524751d25,2024-02-21_21h24.12.926,kallum_motion_pilot,2023.2.2,MacIntel,59.88023952,611e981ff1974fc524751d25,65d6bb0e977760de756971f7,65d6be4211081d3e25dfeead,0.0174,0.0174,0,156,156,131,1,sixeight,,,,,,,,,,,,,,,,,,,,,,,,,,,,,,,,,,,,,,,,,,,,,,,,,,,,,,,,,,,,,,,,,,,,,,,,,,,,,,,,,,,,,,,,,,,,,,,,,,,,,,,,,,,,,,,,,,,,,,,,,,,,,,,,,,,,,,,,,
,,611e981ff1974fc524751d25,2024-02-21_21h24.12.926,kallum_motion_pilot,2023.2.2,MacIntel,59.88023952,611e981ff1974fc524751d25,65d6bb0e977760de756971f7,65d6be4211081d3e25dfeead,0.0174,0.0175,0,157,157,47,1,fourthree,,,,,,,,,,,,,,,,,,,,,,,,,,,,,,,,,,,,,,,,,,,,,,,,,,,,,,,,,,,,,,,,,,,,,,,,,,,,,,,,,,,,,,,,,,,,,,,,,,,,,,,,,,,,,,,,,,,,,,,,,,,,,,,,,,,,,,,,,
,,611e981ff1974fc524751d25,2024-02-21_21h24.12.926,kallum_motion_pilot,2023.2.2,MacIntel,59.88023952,611e981ff1974fc524751d25,65d6bb0e977760de756971f7,65d6be4211081d3e25dfeead,0.0175,0.0176,0,158,158,151,1,eightseven,,,,,,,,,,,,,,,,,,,,,,,,,,,,,,,,,,,,,,,,,,,,,,,,,,,,,,,,,,,,,,,,,,,,,,,,,,,,,,,,,,,,,,,,,,,,,,,,,,,,,,,,,,,,,,,,,,,,,,,,,,,,,,,,,,,,,,,,,
,,611e981ff1974fc524751d25,2024-02-21_21h24.12.926,kallum_motion_pilot,2023.2.2,MacIntel,59.88023952,611e981ff1974fc524751d25,65d6bb0e977760de756971f7,65d6be4211081d3e25dfeead,0.0176,0.0176,0,159,159,43,1,twofour,,,,,,,,,,,,,,,,,,,,,,,,,,,,,,,,,,,,,,,,,,,,,,,,,,,,,,,,,,,,,,,,,,,,,,,,,,,,,,,,,,,,,,,,,,,,,,,,,,,,,,,,,,,,,,,,,,,,,,,,,,,,,,,,,,,,,,,,,
,,611e981ff1974fc524751d25,2024-02-21_21h24.12.926,kallum_motion_pilot,2023.2.2,MacIntel,59.88023952,611e981ff1974fc524751d25,65d6bb0e977760de756971f7,65d6be4211081d3e25dfeead,0.0176,0.0176,0,160,160,52,1,threeone,,,,,,,,,,,,,,,,,,,,,,,,,,,,,,,,,,,,,,,,,,,,,,,,,,,,,,,,,,,,,,,,,,,,,,,,,,,,,,,,,,,,,,,,,,,,,,,,,,,,,,,,,,,,,,,,,,,,,,,,,,,,,,,,,,,,,,,,,
,,611e981ff1974fc524751d25,2024-02-21_21h24.12.926,kallum_motion_pilot,2023.2.2,MacIntel,59.88023952,611e981ff1974fc524751d25,65d6bb0e977760de756971f7,65d6be4211081d3e25dfeead,0.0177,0.0177,0,161,161,76,1,threeone,,,,,,,,,,,,,,,,,,,,,,,,,,,,,,,,,,,,,,,,,,,,,,,,,,,,,,,,,,,,,,,,,,,,,,,,,,,,,,,,,,,,,,,,,,,,,,,,,,,,,,,,,,,,,,,,,,,,,,,,,,,,,,,,,,,,,,,,,
,,611e981ff1974fc524751d25,2024-02-21_21h24.12.926,kallum_motion_pilot,2023.2.2,MacIntel,59.88023952,611e981ff1974fc524751d25,65d6bb0e977760de756971f7,65d6be4211081d3e25dfeead,0.0177,0.0178,1,0,162,102,1,eightsix,,,,,,,,,,,,,,,,,,,,,,,,,,,,,,,,,,,,,,,,,,,,,,,,,,,,,,,,,,,,,,,,,,,,,,,,,,,,,,,,,,,,,,,,,,,,,,,,,,,,,,,,,,,,,,,,,,,,,,,,,,,,,,,,,,,,,,,,,
,,611e981ff1974fc524751d25,2024-02-21_21h24.12.926,kallum_motion_pilot,2023.2.2,MacIntel,59.88023952,611e981ff1974fc524751d25,65d6bb0e977760de756971f7,65d6be4211081d3e25dfeead,0.0178,0.0178,1,1,163,34,1,twoone,,,,,,,,,,,,,,,,,,,,,,,,,,,,,,,,,,,,,,,,,,,,,,,,,,,,,,,,,,,,,,,,,,,,,,,,,,,,,,,,,,,,,,,,,,,,,,,,,,,,,,,,,,,,,,,,,,,,,,,,,,,,,,,,,,,,,,,,,
,,611e981ff1974fc524751d25,2024-02-21_21h24.12.926,kallum_motion_pilot,2023.2.2,MacIntel,59.88023952,611e981ff1974fc524751d25,65d6bb0e977760de756971f7,65d6be4211081d3e25dfeead,0.0178,0.0178,1,2,164,88,1,fivesix,,,,,,,,,,,,,,,,,,,,,,,,,,,,,,,,,,,,,,,,,,,,,,,,,,,,,,,,,,,,,,,,,,,,,,,,,,,,,,,,,,,,,,,,,,,,,,,,,,,,,,,,,,,,,,,,,,,,,,,,,,,,,,,,,,,,,,,,,
,,611e981ff1974fc524751d25,2024-02-21_21h24.12.926,kallum_motion_pilot,2023.2.2,MacIntel,59.88023952,611e981ff1974fc524751d25,65d6bb0e977760de756971f7,65d6be4211081d3e25dfeead,0.0178,0.0178,1,3,165,151,1,eightseven,,,,,,,,,,,,,,,,,,,,,,,,,,,,,,,,,,,,,,,,,,,,,,,,,,,,,,,,,,,,,,,,,,,,,,,,,,,,,,,,,,,,,,,,,,,,,,,,,,,,,,,,,,,,,,,,,,,,,,,,,,,,,,,,,,,,,,,,,
,,611e981ff1974fc524751d25,2024-02-21_21h24.12.926,kallum_motion_pilot,2023.2.2,MacIntel,59.88023952,611e981ff1974fc524751d25,65d6bb0e977760de756971f7,65d6be4211081d3e25dfeead,0.0179,0.018,1,4,166,81,1,fiveseven,,,,,,,,,,,,,,,,,,,,,,,,,,,,,,,,,,,,,,,,,,,,,,,,,,,,,,,,,,,,,,,,,,,,,,,,,,,,,,,,,,,,,,,,,,,,,,,,,,,,,,,,,,,,,,,,,,,,,,,,,,,,,,,,,,,,,,,,,
,,611e981ff1974fc524751d25,2024-02-21_21h24.12.926,kallum_motion_pilot,2023.2.2,MacIntel,59.88023952,611e981ff1974fc524751d25,65d6bb0e977760de756971f7,65d6be4211081d3e25dfeead,0.018,0.018,1,5,167,60,1,threeone,,,,,,,,,,,,,,,,,,,,,,,,,,,,,,,,,,,,,,,,,,,,,,,,,,,,,,,,,,,,,,,,,,,,,,,,,,,,,,,,,,,,,,,,,,,,,,,,,,,,,,,,,,,,,,,,,,,,,,,,,,,,,,,,,,,,,,,,,
,,611e981ff1974fc524751d25,2024-02-21_21h24.12.926,kallum_motion_pilot,2023.2.2,MacIntel,59.88023952,611e981ff1974fc524751d25,65d6bb0e977760de756971f7,65d6be4211081d3e25dfeead,0.018,0.018,1,6,168,52,1,threeone,,,,,,,,,,,,,,,,,,,,,,,,,,,,,,,,,,,,,,,,,,,,,,,,,,,,,,,,,,,,,,,,,,,,,,,,,,,,,,,,,,,,,,,,,,,,,,,,,,,,,,,,,,,,,,,,,,,,,,,,,,,,,,,,,,,,,,,,,
,,611e981ff1974fc524751d25,2024-02-21_21h24.12.926,kallum_motion_pilot,2023.2.2,MacIntel,59.88023952,611e981ff1974fc524751d25,65d6bb0e977760de756971f7,65d6be4211081d3e25dfeead,0.018,0.0181,1,7,169,3,1,twofour,,,,,,,,,,,,,,,,,,,,,,,,,,,,,,,,,,,,,,,,,,,,,,,,,,,,,,,,,,,,,,,,,,,,,,,,,,,,,,,,,,,,,,,,,,,,,,,,,,,,,,,,,,,,,,,,,,,,,,,,,,,,,,,,,,,,,,,,,
,,611e981ff1974fc524751d25,2024-02-21_21h24.12.926,kallum_motion_pilot,2023.2.2,MacIntel,59.88023952,611e981ff1974fc524751d25,65d6bb0e977760de756971f7,65d6be4211081d3e25dfeead,0.0181,0.0181,1,8,170,118,1,eightsix,,,,,,,,,,,,,,,,,,,,,,,,,,,,,,,,,,,,,,,,,,,,,,,,,,,,,,,,,,,,,,,,,,,,,,,,,,,,,,,,,,,,,,,,,,,,,,,,,,,,,,,,,,,,,,,,,,,,,,,,,,,,,,,,,,,,,,,,,
,,611e981ff1974fc524751d25,2024-02-21_21h24.12.926,kallum_motion_pilot,2023.2.2,MacIntel,59.88023952,611e981ff1974fc524751d25,65d6bb0e977760de756971f7,65d6be4211081d3e25dfeead,0.0182,0.0182,1,9,171,14,1,fourtwo,,,,,,,,,,,,,,,,,,,,,,,,,,,,,,,,,,,,,,,,,,,,,,,,,,,,,,,,,,,,,,,,,,,,,,,,,,,,,,,,,,,,,,,,,,,,,,,,,,,,,,,,,,,,,,,,,,,,,,,,,,,,,,,,,,,,,,,,,
,,611e981ff1974fc524751d25,2024-02-21_21h24.12.926,kallum_motion_pilot,2023.2.2,MacIntel,59.88023952,611e981ff1974fc524751d25,65d6bb0e977760de756971f7,65d6be4211081d3e25dfeead,0.0182,0.0183,1,10,172,124,1,sevenfive,,,,,,,,,,,,,,,,,,,,,,,,,,,,,,,,,,,,,,,,,,,,,,,,,,,,,,,,,,,,,,,,,,,,,,,,,,,,,,,,,,,,,,,,,,,,,,,,,,,,,,,,,,,,,,,,,,,,,,,,,,,,,,,,,,,,,,,,,
,,611e981ff1974fc524751d25,2024-02-21_21h24.12.926,kallum_motion_pilot,2023.2.2,MacIntel,59.88023952,611e981ff1974fc524751d25,65d6bb0e977760de756971f7,65d6be4211081d3e25dfeead,0.0183,0.0183,1,11,173,120,1,fivesix,,,,,,,,,,,,,,,,,,,,,,,,,,,,,,,,,,,,,,,,,,,,,,,,,,,,,,,,,,,,,,,,,,,,,,,,,,,,,,,,,,,,,,,,,,,,,,,,,,,,,,,,,,,,,,,,,,,,,,,,,,,,,,,,,,,,,,,,,
,,611e981ff1974fc524751d25,2024-02-21_21h24.12.926,kallum_motion_pilot,2023.2.2,MacIntel,59.88023952,611e981ff1974fc524751d25,65d6bb0e977760de756971f7,65d6be4211081d3e25dfeead,0.0183,0.0183,1,12,174,135,1,eightseven,,,,,,,,,,,,,,,,,,,,,,,,,,,,,,,,,,,,,,,,,,,,,,,,,,,,,,,,,,,,,,,,,,,,,,,,,,,,,,,,,,,,,,,,,,,,,,,,,,,,,,,,,,,,,,,,,,,,,,,,,,,,,,,,,,,,,,,,,
,,611e981ff1974fc524751d25,2024-02-21_21h24.12.926,kallum_motion_pilot,2023.2.2,MacIntel,59.88023952,611e981ff1974fc524751d25,65d6bb0e977760de756971f7,65d6be4211081d3e25dfeead,0.0183,0.0183,1,13,175,62,1,fourtwo,,,,,,,,,,,,,,,,,,,,,,,,,,,,,,,,,,,,,,,,,,,,,,,,,,,,,,,,,,,,,,,,,,,,,,,,,,,,,,,,,,,,,,,,,,,,,,,,,,,,,,,,,,,,,,,,,,,,,,,,,,,,,,,,,,,,,,,,,
,,611e981ff1974fc524751d25,2024-02-21_21h24.12.926,kallum_motion_pilot,2023.2.2,MacIntel,59.88023952,611e981ff1974fc524751d25,65d6bb0e977760de756971f7,65d6be4211081d3e25dfeead,0.0183,0.0184,1,14,176,133,1,seveneight,,,,,,,,,,,,,,,,,,,,,,,,,,,,,,,,,,,,,,,,,,,,,,,,,,,,,,,,,,,,,,,,,,,,,,,,,,,,,,,,,,,,,,,,,,,,,,,,,,,,,,,,,,,,,,,,,,,,,,,,,,,,,,,,,,,,,,,,,
,,611e981ff1974fc524751d25,2024-02-21_21h24.12.926,kallum_motion_pilot,2023.2.2,MacIntel,59.88023952,611e981ff1974fc524751d25,65d6bb0e977760de756971f7,65d6be4211081d3e25dfeead,0.0184,0.0185,1,15,177,20,1,threeone,,,,,,,,,,,,,,,,,,,,,,,,,,,,,,,,,,,,,,,,,,,,,,,,,,,,,,,,,,,,,,,,,,,,,,,,,,,,,,,,,,,,,,,,,,,,,,,,,,,,,,,,,,,,,,,,,,,,,,,,,,,,,,,,,,,,,,,,,
,,611e981ff1974fc524751d25,2024-02-21_21h24.12.926,kallum_motion_pilot,2023.2.2,MacIntel,59.88023952,611e981ff1974fc524751d25,65d6bb0e977760de756971f7,65d6be4211081d3e25dfeead,0.0185,0.0185,1,16,178,1,1,onethree,,,,,,,,,,,,,,,,,,,,,,,,,,,,,,,,,,,,,,,,,,,,,,,,,,,,,,,,,,,,,,,,,,,,,,,,,,,,,,,,,,,,,,,,,,,,,,,,,,,,,,,,,,,,,,,,,,,,,,,,,,,,,,,,,,,,,,,,,
,,611e981ff1974fc524751d25,2024-02-21_21h24.12.926,kallum_motion_pilot,2023.2.2,MacIntel,59.88023952,611e981ff1974fc524751d25,65d6bb0e977760de756971f7,65d6be4211081d3e25dfeead,0.0186,0.0186,1,17,179,8,1,onetwo,,,,,,,,,,,,,,,,,,,,,,,,,,,,,,,,,,,,,,,,,,,,,,,,,,,,,,,,,,,,,,,,,,,,,,,,,,,,,,,,,,,,,,,,,,,,,,,,,,,,,,,,,,,,,,,,,,,,,,,,,,,,,,,,,,,,,,,,,
,,611e981ff1974fc524751d25,2024-02-21_21h24.12.926,kallum_motion_pilot,2023.2.2,MacIntel,59.88023952,611e981ff1974fc524751d25,65d6bb0e977760de756971f7,65d6be4211081d3e25dfeead,0.0186,0.0186,1,18,180,55,1,fourthree,,,,,,,,,,,,,,,,,,,,,,,,,,,,,,,,,,,,,,,,,,,,,,,,,,,,,,,,,,,,,,,,,,,,,,,,,,,,,,,,,,,,,,,,,,,,,,,,,,,,,,,,,,,,,,,,,,,,,,,,,,,,,,,,,,,,,,,,,
,,611e981ff1974fc524751d25,2024-02-21_21h24.12.926,kallum_motion_pilot,2023.2.2,MacIntel,59.88023952,611e981ff1974fc524751d25,65d6bb0e977760de756971f7,65d6be4211081d3e25dfeead,0.0186,0.0186,1,19,181,137,1,fiveseven,,,,,,,,,,,,,,,,,,,,,,,,,,,,,,,,,,,,,,,,,,,,,,,,,,,,,,,,,,,,,,,,,,,,,,,,,,,,,,,,,,,,,,,,,,,,,,,,,,,,,,,,,,,,,,,,,,,,,,,,,,,,,,,,,,,,,,,,,
,,611e981ff1974fc524751d25,2024-02-21_21h24.12.926,kallum_motion_pilot,2023.2.2,MacIntel,59.88023952,611e981ff1974fc524751d25,65d6bb0e977760de756971f7,65d6be4211081d3e25dfeead,0.0186,0.0186,1,20,182,13,1,threefour,,,,,,,,,,,,,,,,,,,,,,,,,,,,,,,,,,,,,,,,,,,,,,,,,,,,,,,,,,,,,,,,,,,,,,,,,,,,,,,,,,,,,,,,,,,,,,,,,,,,,,,,,,,,,,,,,,,,,,,,,,,,,,,,,,,,,,,,,
,,611e981ff1974fc524751d25,2024-02-21_21h24.12.926,kallum_motion_pilot,2023.2.2,MacIntel,59.88023952,611e981ff1974fc524751d25,65d6bb0e977760de756971f7,65d6be4211081d3e25dfeead,0.0187,0.0187,1,21,183,142,1,eightsix,,,,,,,,,,,,,,,,,,,,,,,,,,,,,,,,,,,,,,,,,,,,,,,,,,,,,,,,,,,,,,,,,,,,,,,,,,,,,,,,,,,,,,,,,,,,,,,,,,,,,,,,,,,,,,,,,,,,,,,,,,,,,,,,,,,,,,,,,
,,611e981ff1974fc524751d25,2024-02-21_21h24.12.926,kallum_motion_pilot,2023.2.2,MacIntel,59.88023952,611e981ff1974fc524751d25,65d6bb0e977760de756971f7,65d6be4211081d3e25dfeead,0.0188,0.0188,1,22,184,10,1,twoone,,,,,,,,,,,,,,,,,,,,,,,,,,,,,,,,,,,,,,,,,,,,,,,,,,,,,,,,,,,,,,,,,,,,,,,,,,,,,,,,,,,,,,,,,,,,,,,,,,,,,,,,,,,,,,,,,,,,,,,,,,,,,,,,,,,,,,,,,
,,611e981ff1974fc524751d25,2024-02-21_21h24.12.926,kallum_motion_pilot,2023.2.2,MacIntel,59.88023952,611e981ff1974fc524751d25,65d6bb0e977760de756971f7,65d6be4211081d3e25dfeead,0.0188,0.0189,1,23,185,7,1,fourthree,,,,,,,,,,,,,,,,,,,,,,,,,,,,,,,,,,,,,,,,,,,,,,,,,,,,,,,,,,,,,,,,,,,,,,,,,,,,,,,,,,,,,,,,,,,,,,,,,,,,,,,,,,,,,,,,,,,,,,,,,,,,,,,,,,,,,,,,,
,,611e981ff1974fc524751d25,2024-02-21_21h24.12.926,kallum_motion_pilot,2023.2.2,MacIntel,59.88023952,611e981ff1974fc524751d25,65d6bb0e977760de756971f7,65d6be4211081d3e25dfeead,0.0189,0.0189,1,24,186,35,1,twofour,,,,,,,,,,,,,,,,,,,,,,,,,,,,,,,,,,,,,,,,,,,,,,,,,,,,,,,,,,,,,,,,,,,,,,,,,,,,,,,,,,,,,,,,,,,,,,,,,,,,,,,,,,,,,,,,,,,,,,,,,,,,,,,,,,,,,,,,,
,,611e981ff1974fc524751d25,2024-02-21_21h24.12.926,kallum_motion_pilot,2023.2.2,MacIntel,59.88023952,611e981ff1974fc524751d25,65d6bb0e977760de756971f7,65d6be4211081d3e25dfeead,0.0189,0.0189,1,25,187,39,1,fourthree,,,,,,,,,,,,,,,,,,,,,,,,,,,,,,,,,,,,,,,,,,,,,,,,,,,,,,,,,,,,,,,,,,,,,,,,,,,,,,,,,,,,,,,,,,,,,,,,,,,,,,,,,,,,,,,,,,,,,,,,,,,,,,,,,,,,,,,,,
,,611e981ff1974fc524751d25,2024-02-21_21h24.12.926,kallum_motion_pilot,2023.2.2,MacIntel,59.88023952,611e981ff1974fc524751d25,65d6bb0e977760de756971f7,65d6be4211081d3e25dfeead,0.019,0.019,1,26,188,104,1,fivesix,,,,,,,,,,,,,,,,,,,,,,,,,,,,,,,,,,,,,,,,,,,,,,,,,,,,,,,,,,,,,,,,,,,,,,,,,,,,,,,,,,,,,,,,,,,,,,,,,,,,,,,,,,,,,,,,,,,,,,,,,,,,,,,,,,,,,,,,,
,,611e981ff1974fc524751d25,2024-02-21_21h24.12.926,kallum_motion_pilot,2023.2.2,MacIntel,59.88023952,611e981ff1974fc524751d25,65d6bb0e977760de756971f7,65d6be4211081d3e25dfeead,0.019,0.019,1,27,189,40,1,onetwo,,,,,,,,,,,,,,,,,,,,,,,,,,,,,,,,,,,,,,,,,,,,,,,,,,,,,,,,,,,,,,,,,,,,,,,,,,,,,,,,,,,,,,,,,,,,,,,,,,,,,,,,,,,,,,,,,,,,,,,,,,,,,,,,,,,,,,,,,
,,611e981ff1974fc524751d25,2024-02-21_21h24.12.926,kallum_motion_pilot,2023.2.2,MacIntel,59.88023952,611e981ff1974fc524751d25,65d6bb0e977760de756971f7,65d6be4211081d3e25dfeead,0.019,0.0191,1,28,190,61,1,threefour,,,,,,,,,,,,,,,,,,,,,,,,,,,,,,,,,,,,,,,,,,,,,,,,,,,,,,,,,,,,,,,,,,,,,,,,,,,,,,,,,,,,,,,,,,,,,,,,,,,,,,,,,,,,,,,,,,,,,,,,,,,,,,,,,,,,,,,,,
,,611e981ff1974fc524751d25,2024-02-21_21h24.12.926,kallum_motion_pilot,2023.2.2,MacIntel,59.88023952,611e981ff1974fc524751d25,65d6bb0e977760de756971f7,65d6be4211081d3e25dfeead,0.0192,0.0192,1,29,191,86,1,eightsix,,,,,,,,,,,,,,,,,,,,,,,,,,,,,,,,,,,,,,,,,,,,,,,,,,,,,,,,,,,,,,,,,,,,,,,,,,,,,,,,,,,,,,,,,,,,,,,,,,,,,,,,,,,,,,,,,,,,,,,,,,,,,,,,,,,,,,,,,
,,611e981ff1974fc524751d25,2024-02-21_21h24.12.926,kallum_motion_pilot,2023.2.2,MacIntel,59.88023952,611e981ff1974fc524751d25,65d6bb0e977760de756971f7,65d6be4211081d3e25dfeead,0.0192,0.0192,1,30,192,30,1,fourtwo,,,,,,,,,,,,,,,,,,,,,,,,,,,,,,,,,,,,,,,,,,,,,,,,,,,,,,,,,,,,,,,,,,,,,,,,,,,,,,,,,,,,,,,,,,,,,,,,,,,,,,,,,,,,,,,,,,,,,,,,,,,,,,,,,,,,,,,,,
,,611e981ff1974fc524751d25,2024-02-21_21h24.12.926,kallum_motion_pilot,2023.2.2,MacIntel,59.88023952,611e981ff1974fc524751d25,65d6bb0e977760de756971f7,65d6be4211081d3e25dfeead,0.0192,0.0192,1,31,193,143,1,eightseven,,,,,,,,,,,,,,,,,,,,,,,,,,,,,,,,,,,,,,,,,,,,,,,,,,,,,,,,,,,,,,,,,,,,,,,,,,,,,,,,,,,,,,,,,,,,,,,,,,,,,,,,,,,,,,,,,,,,,,,,,,,,,,,,,,,,,,,,,
,,611e981ff1974fc524751d25,2024-02-21_21h24.12.926,kallum_motion_pilot,2023.2.2,MacIntel,59.88023952,611e981ff1974fc524751d25,65d6bb0e977760de756971f7,65d6be4211081d3e25dfeead,0.0193,0.0193,1,32,194,66,1,twoone,,,,,,,,,,,,,,,,,,,,,,,,,,,,,,,,,,,,,,,,,,,,,,,,,,,,,,,,,,,,,,,,,,,,,,,,,,,,,,,,,,,,,,,,,,,,,,,,,,,,,,,,,,,,,,,,,,,,,,,,,,,,,,,,,,,,,,,,,
,,611e981ff1974fc524751d25,2024-02-21_21h24.12.926,kallum_motion_pilot,2023.2.2,MacIntel,59.88023952,611e981ff1974fc524751d25,65d6bb0e977760de756971f7,65d6be4211081d3e25dfeead,0.0194,0.0194,1,33,195,16,1,onetwo,,,,,,,,,,,,,,,,,,,,,,,,,,,,,,,,,,,,,,,,,,,,,,,,,,,,,,,,,,,,,,,,,,,,,,,,,,,,,,,,,,,,,,,,,,,,,,,,,,,,,,,,,,,,,,,,,,,,,,,,,,,,,,,,,,,,,,,,,
,,611e981ff1974fc524751d25,2024-02-21_21h24.12.926,kallum_motion_pilot,2023.2.2,MacIntel,59.88023952,611e981ff1974fc524751d25,65d6bb0e977760de756971f7,65d6be4211081d3e25dfeead,0.0194,0.0194,1,34,196,138,1,sixfive,,,,,,,,,,,,,,,,,,,,,,,,,,,,,,,,,,,,,,,,,,,,,,,,,,,,,,,,,,,,,,,,,,,,,,,,,,,,,,,,,,,,,,,,,,,,,,,,,,,,,,,,,,,,,,,,,,,,,,,,,,,,,,,,,,,,,,,,,
,,611e981ff1974fc524751d25,2024-02-21_21h24.12.926,kallum_motion_pilot,2023.2.2,MacIntel,59.88023952,611e981ff1974fc524751d25,65d6bb0e977760de756971f7,65d6be4211081d3e25dfeead,0.0194,0.0195,1,35,197,139,1,sixeight,,,,,,,,,,,,,,,,,,,,,,,,,,,,,,,,,,,,,,,,,,,,,,,,,,,,,,,,,,,,,,,,,,,,,,,,,,,,,,,,,,,,,,,,,,,,,,,,,,,,,,,,,,,,,,,,,,,,,,,,,,,,,,,,,,,,,,,,,
,,611e981ff1974fc524751d25,2024-02-21_21h24.12.926,kallum_motion_pilot,2023.2.2,MacIntel,59.88023952,611e981ff1974fc524751d25,65d6bb0e977760de756971f7,65d6be4211081d3e25dfeead,0.0195,0.0195,1,36,198,108,1,sevenfive,,,,,,,,,,,,,,,,,,,,,,,,,,,,,,,,,,,,,,,,,,,,,,,,,,,,,,,,,,,,,,,,,,,,,,,,,,,,,,,,,,,,,,,,,,,,,,,,,,,,,,,,,,,,,,,,,,,,,,,,,,,,,,,,,,,,,,,,,
,,611e981ff1974fc524751d25,2024-02-21_21h24.12.926,kallum_motion_pilot,2023.2.2,MacIntel,59.88023952,611e981ff1974fc524751d25,65d6bb0e977760de756971f7,65d6be4211081d3e25dfeead,0.0195,0.0195,1,37,199,63,1,fourthree,,,,,,,,,,,,,,,,,,,,,,,,,,,,,,,,,,,,,,,,,,,,,,,,,,,,,,,,,,,,,,,,,,,,,,,,,,,,,,,,,,,,,,,,,,,,,,,,,,,,,,,,,,,,,,,,,,,,,,,,,,,,,,,,,,,,,,,,,
,,611e981ff1974fc524751d25,2024-02-21_21h24.12.926,kallum_motion_pilot,2023.2.2,MacIntel,59.88023952,611e981ff1974fc524751d25,65d6bb0e977760de756971f7,65d6be4211081d3e25dfeead,0.0195,0.0196,1,38,200,87,1,eightseven,,,,,,,,,,,,,,,,,,,,,,,,,,,,,,,,,,,,,,,,,,,,,,,,,,,,,,,,,,,,,,,,,,,,,,,,,,,,,,,,,,,,,,,,,,,,,,,,,,,,,,,,,,,,,,,,,,,,,,,,,,,,,,,,,,,,,,,,,
,,611e981ff1974fc524751d25,2024-02-21_21h24.12.926,kallum_motion_pilot,2023.2.2,MacIntel,59.88023952,611e981ff1974fc524751d25,65d6bb0e977760de756971f7,65d6be4211081d3e25dfeead,0.0196,0.0196,1,39,201,93,1,seveneight,,,,,,,,,,,,,,,,,,,,,,,,,,,,,,,,,,,,,,,,,,,,,,,,,,,,,,,,,,,,,,,,,,,,,,,,,,,,,,,,,,,,,,,,,,,,,,,,,,,,,,,,,,,,,,,,,,,,,,,,,,,,,,,,,,,,,,,,,
,,611e981ff1974fc524751d25,2024-02-21_21h24.12.926,kallum_motion_pilot,2023.2.2,MacIntel,59.88023952,611e981ff1974fc524751d25,65d6bb0e977760de756971f7,65d6be4211081d3e25dfeead,0.0197,0.0197,1,40,202,140,1,sevenfive,,,,,,,,,,,,,,,,,,,,,,,,,,,,,,,,,,,,,,,,,,,,,,,,,,,,,,,,,,,,,,,,,,,,,,,,,,,,,,,,,,,,,,,,,,,,,,,,,,,,,,,,,,,,,,,,,,,,,,,,,,,,,,,,,,,,,,,,,
,,611e981ff1974fc524751d25,2024-02-21_21h24.12.926,kallum_motion_pilot,2023.2.2,MacIntel,59.88023952,611e981ff1974fc524751d25,65d6bb0e977760de756971f7,65d6be4211081d3e25dfeead,0.0197,0.0197,1,41,203,122,1,sixfive,,,,,,,,,,,,,,,,,,,,,,,,,,,,,,,,,,,,,,,,,,,,,,,,,,,,,,,,,,,,,,,,,,,,,,,,,,,,,,,,,,,,,,,,,,,,,,,,,,,,,,,,,,,,,,,,,,,,,,,,,,,,,,,,,,,,,,,,,
,,611e981ff1974fc524751d25,2024-02-21_21h24.12.926,kallum_motion_pilot,2023.2.2,MacIntel,59.88023952,611e981ff1974fc524751d25,65d6bb0e977760de756971f7,65d6be4211081d3e25dfeead,0.0197,0.0197,1,42,204,161,1,fiveseven,,,,,,,,,,,,,,,,,,,,,,,,,,,,,,,,,,,,,,,,,,,,,,,,,,,,,,,,,,,,,,,,,,,,,,,,,,,,,,,,,,,,,,,,,,,,,,,,,,,,,,,,,,,,,,,,,,,,,,,,,,,,,,,,,,,,,,,,,
,,611e981ff1974fc524751d25,2024-02-21_21h24.12.926,kallum_motion_pilot,2023.2.2,MacIntel,59.88023952,611e981ff1974fc524751d25,65d6bb0e977760de756971f7,65d6be4211081d3e25dfeead,0.0198,0.0198,1,43,205,6,1,fourtwo,,,,,,,,,,,,,,,,,,,,,,,,,,,,,,,,,,,,,,,,,,,,,,,,,,,,,,,,,,,,,,,,,,,,,,,,,,,,,,,,,,,,,,,,,,,,,,,,,,,,,,,,,,,,,,,,,,,,,,,,,,,,,,,,,,,,,,,,,
,,611e981ff1974fc524751d25,2024-02-21_21h24.12.926,kallum_motion_pilot,2023.2.2,MacIntel,59.88023952,611e981ff1974fc524751d25,65d6bb0e977760de756971f7,65d6be4211081d3e25dfeead,0.0198,0.0198,1,44,206,95,1,eightseven,,,,,,,,,,,,,,,,,,,,,,,,,,,,,,,,,,,,,,,,,,,,,,,,,,,,,,,,,,,,,,,,,,,,,,,,,,,,,,,,,,,,,,,,,,,,,,,,,,,,,,,,,,,,,,,,,,,,,,,,,,,,,,,,,,,,,,,,,
,,611e981ff1974fc524751d25,2024-02-21_21h24.12.926,kallum_motion_pilot,2023.2.2,MacIntel,59.88023952,611e981ff1974fc524751d25,65d6bb0e977760de756971f7,65d6be4211081d3e25dfeead,0.0199,0.0199,1,45,207,97,1,fiveseven,,,,,,,,,,,,,,,,,,,,,,,,,,,,,,,,,,,,,,,,,,,,,,,,,,,,,,,,,,,,,,,,,,,,,,,,,,,,,,,,,,,,,,,,,,,,,,,,,,,,,,,,,,,,,,,,,,,,,,,,,,,,,,,,,,,,,,,,,
,,611e981ff1974fc524751d25,2024-02-21_21h24.12.926,kallum_motion_pilot,2023.2.2,MacIntel,59.88023952,611e981ff1974fc524751d25,65d6bb0e977760de756971f7,65d6be4211081d3e25dfeead,0.0199,0.0199,1,46,208,154,1,sixfive,,,,,,,,,,,,,,,,,,,,,,,,,,,,,,,,,,,,,,,,,,,,,,,,,,,,,,,,,,,,,,,,,,,,,,,,,,,,,,,,,,,,,,,,,,,,,,,,,,,,,,,,,,,,,,,,,,,,,,,,,,,,,,,,,,,,,,,,,
,,611e981ff1974fc524751d25,2024-02-21_21h24.12.926,kallum_motion_pilot,2023.2.2,MacIntel,59.88023952,611e981ff1974fc524751d25,65d6bb0e977760de756971f7,65d6be4211081d3e25dfeead,0.0199,0.02,1,47,209,49,1,onethree,,,,,,,,,,,,,,,,,,,,,,,,,,,,,,,,,,,,,,,,,,,,,,,,,,,,,,,,,,,,,,,,,,,,,,,,,,,,,,,,,,,,,,,,,,,,,,,,,,,,,,,,,,,,,,,,,,,,,,,,,,,,,,,,,,,,,,,,,
,,611e981ff1974fc524751d25,2024-02-21_21h24.12.926,kallum_motion_pilot,2023.2.2,MacIntel,59.88023952,611e981ff1974fc524751d25,65d6bb0e977760de756971f7,65d6be4211081d3e25dfeead,0.0201,0.0201,1,48,210,153,1,fiveseven,,,,,,,,,,,,,,,,,,,,,,,,,,,,,,,,,,,,,,,,,,,,,,,,,,,,,,,,,,,,,,,,,,,,,,,,,,,,,,,,,,,,,,,,,,,,,,,,,,,,,,,,,,,,,,,,,,,,,,,,,,,,,,,,,,,,,,,,,
,,611e981ff1974fc524751d25,2024-02-21_21h24.12.926,kallum_motion_pilot,2023.2.2,MacIntel,59.88023952,611e981ff1974fc524751d25,65d6bb0e977760de756971f7,65d6be4211081d3e25dfeead,0.0201,0.0201,1,49,211,89,1,fiveseven,,,,,,,,,,,,,,,,,,,,,,,,,,,,,,,,,,,,,,,,,,,,,,,,,,,,,,,,,,,,,,,,,,,,,,,,,,,,,,,,,,,,,,,,,,,,,,,,,,,,,,,,,,,,,,,,,,,,,,,,,,,,,,,,,,,,,,,,,
,,611e981ff1974fc524751d25,2024-02-21_21h24.12.926,kallum_motion_pilot,2023.2.2,MacIntel,59.88023952,611e981ff1974fc524751d25,65d6bb0e977760de756971f7,65d6be4211081d3e25dfeead,0.0202,0.0202,1,50,212,24,1,onetwo,,,,,,,,,,,,,,,,,,,,,,,,,,,,,,,,,,,,,,,,,,,,,,,,,,,,,,,,,,,,,,,,,,,,,,,,,,,,,,,,,,,,,,,,,,,,,,,,,,,,,,,,,,,,,,,,,,,,,,,,,,,,,,,,,,,,,,,,,
,,611e981ff1974fc524751d25,2024-02-21_21h24.12.926,kallum_motion_pilot,2023.2.2,MacIntel,59.88023952,611e981ff1974fc524751d25,65d6bb0e977760de756971f7,65d6be4211081d3e25dfeead,0.0202,0.0202,1,51,213,23,1,fourthree,,,,,,,,,,,,,,,,,,,,,,,,,,,,,,,,,,,,,,,,,,,,,,,,,,,,,,,,,,,,,,,,,,,,,,,,,,,,,,,,,,,,,,,,,,,,,,,,,,,,,,,,,,,,,,,,,,,,,,,,,,,,,,,,,,,,,,,,,
,,611e981ff1974fc524751d25,2024-02-21_21h24.12.926,kallum_motion_pilot,2023.2.2,MacIntel,59.88023952,611e981ff1974fc524751d25,65d6bb0e977760de756971f7,65d6be4211081d3e25dfeead,0.0203,0.0203,1,52,214,119,1,eightseven,,,,,,,,,,,,,,,,,,,,,,,,,,,,,,,,,,,,,,,,,,,,,,,,,,,,,,,,,,,,,,,,,,,,,,,,,,,,,,,,,,,,,,,,,,,,,,,,,,,,,,,,,,,,,,,,,,,,,,,,,,,,,,,,,,,,,,,,,
,,611e981ff1974fc524751d25,2024-02-21_21h24.12.926,kallum_motion_pilot,2023.2.2,MacIntel,59.88023952,611e981ff1974fc524751d25,65d6bb0e977760de756971f7,65d6be4211081d3e25dfeead,0.0203,0.0203,1,53,215,11,1,twofour,,,,,,,,,,,,,,,,,,,,,,,,,,,,,,,,,,,,,,,,,,,,,,,,,,,,,,,,,,,,,,,,,,,,,,,,,,,,,,,,,,,,,,,,,,,,,,,,,,,,,,,,,,,,,,,,,,,,,,,,,,,,,,,,,,,,,,,,,
,,611e981ff1974fc524751d25,2024-02-21_21h24.12.926,kallum_motion_pilot,2023.2.2,MacIntel,59.88023952,611e981ff1974fc524751d25,65d6bb0e977760de756971f7,65d6be4211081d3e25dfeead,0.0204,0.0204,1,54,216,80,1,fivesix,,,,,,,,,,,,,,,,,,,,,,,,,,,,,,,,,,,,,,,,,,,,,,,,,,,,,,,,,,,,,,,,,,,,,,,,,,,,,,,,,,,,,,,,,,,,,,,,,,,,,,,,,,,,,,,,,,,,,,,,,,,,,,,,,,,,,,,,,
,,611e981ff1974fc524751d25,2024-02-21_21h24.12.926,kallum_motion_pilot,2023.2.2,MacIntel,59.88023952,611e981ff1974fc524751d25,65d6bb0e977760de756971f7,65d6be4211081d3e25dfeead,0.0204,0.0204,1,55,217,123,1,sixeight,,,,,,,,,,,,,,,,,,,,,,,,,,,,,,,,,,,,,,,,,,,,,,,,,,,,,,,,,,,,,,,,,,,,,,,,,,,,,,,,,,,,,,,,,,,,,,,,,,,,,,,,,,,,,,,,,,,,,,,,,,,,,,,,,,,,,,,,,
,,611e981ff1974fc524751d25,2024-02-21_21h24.12.926,kallum_motion_pilot,2023.2.2,MacIntel,59.88023952,611e981ff1974fc524751d25,65d6bb0e977760de756971f7,65d6be4211081d3e25dfeead,0.0205,0.0205,1,56,218,26,1,twoone,,,,,,,,,,,,,,,,,,,,,,,,,,,,,,,,,,,,,,,,,,,,,,,,,,,,,,,,,,,,,,,,,,,,,,,,,,,,,,,,,,,,,,,,,,,,,,,,,,,,,,,,,,,,,,,,,,,,,,,,,,,,,,,,,,,,,,,,,
,,611e981ff1974fc524751d25,2024-02-21_21h24.12.926,kallum_motion_pilot,2023.2.2,MacIntel,59.88023952,611e981ff1974fc524751d25,65d6bb0e977760de756971f7,65d6be4211081d3e25dfeead,0.0205,0.0206,1,57,219,0,1,onetwo,,,,,,,,,,,,,,,,,,,,,,,,,,,,,,,,,,,,,,,,,,,,,,,,,,,,,,,,,,,,,,,,,,,,,,,,,,,,,,,,,,,,,,,,,,,,,,,,,,,,,,,,,,,,,,,,,,,,,,,,,,,,,,,,,,,,,,,,,
,,611e981ff1974fc524751d25,2024-02-21_21h24.12.926,kallum_motion_pilot,2023.2.2,MacIntel,59.88023952,611e981ff1974fc524751d25,65d6bb0e977760de756971f7,65d6be4211081d3e25dfeead,0.0206,0.0206,1,58,220,99,1,sixeight,,,,,,,,,,,,,,,,,,,,,,,,,,,,,,,,,,,,,,,,,,,,,,,,,,,,,,,,,,,,,,,,,,,,,,,,,,,,,,,,,,,,,,,,,,,,,,,,,,,,,,,,,,,,,,,,,,,,,,,,,,,,,,,,,,,,,,,,,
,,611e981ff1974fc524751d25,2024-02-21_21h24.12.926,kallum_motion_pilot,2023.2.2,MacIntel,59.88023952,611e981ff1974fc524751d25,65d6bb0e977760de756971f7,65d6be4211081d3e25dfeead,0.0206,0.0206,1,59,221,106,1,sixfive,,,,,,,,,,,,,,,,,,,,,,,,,,,,,,,,,,,,,,,,,,,,,,,,,,,,,,,,,,,,,,,,,,,,,,,,,,,,,,,,,,,,,,,,,,,,,,,,,,,,,,,,,,,,,,,,,,,,,,,,,,,,,,,,,,,,,,,,,
,,611e981ff1974fc524751d25,2024-02-21_21h24.12.926,kallum_motion_pilot,2023.2.2,MacIntel,59.88023952,611e981ff1974fc524751d25,65d6bb0e977760de756971f7,65d6be4211081d3e25dfeead,0.0206,0.0207,1,60,222,57,1,onethree,,,,,,,,,,,,,,,,,,,,,,,,,,,,,,,,,,,,,,,,,,,,,,,,,,,,,,,,,,,,,,,,,,,,,,,,,,,,,,,,,,,,,,,,,,,,,,,,,,,,,,,,,,,,,,,,,,,,,,,,,,,,,,,,,,,,,,,,,
,,611e981ff1974fc524751d25,2024-02-21_21h24.12.926,kallum_motion_pilot,2023.2.2,MacIntel,59.88023952,611e981ff1974fc524751d25,65d6bb0e977760de756971f7,65d6be4211081d3e25dfeead,0.0207,0.0207,1,61,223,21,1,threefour,,,,,,,,,,,,,,,,,,,,,,,,,,,,,,,,,,,,,,,,,,,,,,,,,,,,,,,,,,,,,,,,,,,,,,,,,,,,,,,,,,,,,,,,,,,,,,,,,,,,,,,,,,,,,,,,,,,,,,,,,,,,,,,,,,,,,,,,,
,,611e981ff1974fc524751d25,2024-02-21_21h24.12.926,kallum_motion_pilot,2023.2.2,MacIntel,59.88023952,611e981ff1974fc524751d25,65d6bb0e977760de756971f7,65d6be4211081d3e25dfeead,0.0207,0.0207,1,62,224,76,1,threeone,,,,,,,,,,,,,,,,,,,,,,,,,,,,,,,,,,,,,,,,,,,,,,,,,,,,,,,,,,,,,,,,,,,,,,,,,,,,,,,,,,,,,,,,,,,,,,,,,,,,,,,,,,,,,,,,,,,,,,,,,,,,,,,,,,,,,,,,,
,,611e981ff1974fc524751d25,2024-02-21_21h24.12.926,kallum_motion_pilot,2023.2.2,MacIntel,59.88023952,611e981ff1974fc524751d25,65d6bb0e977760de756971f7,65d6be4211081d3e25dfeead,0.0207,0.0208,1,63,225,91,1,sixeight,,,,,,,,,,,,,,,,,,,,,,,,,,,,,,,,,,,,,,,,,,,,,,,,,,,,,,,,,,,,,,,,,,,,,,,,,,,,,,,,,,,,,,,,,,,,,,,,,,,,,,,,,,,,,,,,,,,,,,,,,,,,,,,,,,,,,,,,,
,,611e981ff1974fc524751d25,2024-02-21_21h24.12.926,kallum_motion_pilot,2023.2.2,MacIntel,59.88023952,611e981ff1974fc524751d25,65d6bb0e977760de756971f7,65d6be4211081d3e25dfeead,0.0209,0.0209,1,64,226,115,1,sixeight,,,,,,,,,,,,,,,,,,,,,,,,,,,,,,,,,,,,,,,,,,,,,,,,,,,,,,,,,,,,,,,,,,,,,,,,,,,,,,,,,,,,,,,,,,,,,,,,,,,,,,,,,,,,,,,,,,,,,,,,,,,,,,,,,,,,,,,,,
,,611e981ff1974fc524751d25,2024-02-21_21h24.12.926,kallum_motion_pilot,2023.2.2,MacIntel,59.88023952,611e981ff1974fc524751d25,65d6bb0e977760de756971f7,65d6be4211081d3e25dfeead,0.0209,0.0209,1,65,227,112,1,fivesix,,,,,,,,,,,,,,,,,,,,,,,,,,,,,,,,,,,,,,,,,,,,,,,,,,,,,,,,,,,,,,,,,,,,,,,,,,,,,,,,,,,,,,,,,,,,,,,,,,,,,,,,,,,,,,,,,,,,,,,,,,,,,,,,,,,,,,,,,
,,611e981ff1974fc524751d25,2024-02-21_21h24.12.926,kallum_motion_pilot,2023.2.2,MacIntel,59.88023952,611e981ff1974fc524751d25,65d6bb0e977760de756971f7,65d6be4211081d3e25dfeead,0.0209,0.0209,1,66,228,25,1,onethree,,,,,,,,,,,,,,,,,,,,,,,,,,,,,,,,,,,,,,,,,,,,,,,,,,,,,,,,,,,,,,,,,,,,,,,,,,,,,,,,,,,,,,,,,,,,,,,,,,,,,,,,,,,,,,,,,,,,,,,,,,,,,,,,,,,,,,,,,
,,611e981ff1974fc524751d25,2024-02-21_21h24.12.926,kallum_motion_pilot,2023.2.2,MacIntel,59.88023952,611e981ff1974fc524751d25,65d6bb0e977760de756971f7,65d6be4211081d3e25dfeead,0.021,0.0211,1,67,229,42,1,twoone,,,,,,,,,,,,,,,,,,,,,,,,,,,,,,,,,,,,,,,,,,,,,,,,,,,,,,,,,,,,,,,,,,,,,,,,,,,,,,,,,,,,,,,,,,,,,,,,,,,,,,,,,,,,,,,,,,,,,,,,,,,,,,,,,,,,,,,,,
,,611e981ff1974fc524751d25,2024-02-21_21h24.12.926,kallum_motion_pilot,2023.2.2,MacIntel,59.88023952,611e981ff1974fc524751d25,65d6bb0e977760de756971f7,65d6be4211081d3e25dfeead,0.0211,0.0211,1,68,230,31,1,fourthree,,,,,,,,,,,,,,,,,,,,,,,,,,,,,,,,,,,,,,,,,,,,,,,,,,,,,,,,,,,,,,,,,,,,,,,,,,,,,,,,,,,,,,,,,,,,,,,,,,,,,,,,,,,,,,,,,,,,,,,,,,,,,,,,,,,,,,,,,
,,611e981ff1974fc524751d25,2024-02-21_21h24.12.926,kallum_motion_pilot,2023.2.2,MacIntel,59.88023952,611e981ff1974fc524751d25,65d6bb0e977760de756971f7,65d6be4211081d3e25dfeead,0.0211,0.0211,1,69,231,79,1,eightseven,,,,,,,,,,,,,,,,,,,,,,,,,,,,,,,,,,,,,,,,,,,,,,,,,,,,,,,,,,,,,,,,,,,,,,,,,,,,,,,,,,,,,,,,,,,,,,,,,,,,,,,,,,,,,,,,,,,,,,,,,,,,,,,,,,,,,,,,,
,,611e981ff1974fc524751d25,2024-02-21_21h24.12.926,kallum_motion_pilot,2023.2.2,MacIntel,59.88023952,611e981ff1974fc524751d25,65d6bb0e977760de756971f7,65d6be4211081d3e25dfeead,0.0212,0.0212,1,70,232,29,1,threefour,,,,,,,,,,,,,,,,,,,,,,,,,,,,,,,,,,,,,,,,,,,,,,,,,,,,,,,,,,,,,,,,,,,,,,,,,,,,,,,,,,,,,,,,,,,,,,,,,,,,,,,,,,,,,,,,,,,,,,,,,,,,,,,,,,,,,,,,,
,,611e981ff1974fc524751d25,2024-02-21_21h24.12.926,kallum_motion_pilot,2023.2.2,MacIntel,59.88023952,611e981ff1974fc524751d25,65d6bb0e977760de756971f7,65d6be4211081d3e25dfeead,0.0213,0.0213,1,71,233,19,1,twofour,,,,,,,,,,,,,,,,,,,,,,,,,,,,,,,,,,,,,,,,,,,,,,,,,,,,,,,,,,,,,,,,,,,,,,,,,,,,,,,,,,,,,,,,,,,,,,,,,,,,,,,,,,,,,,,,,,,,,,,,,,,,,,,,,,,,,,,,,
,,611e981ff1974fc524751d25,2024-02-21_21h24.12.926,kallum_motion_pilot,2023.2.2,MacIntel,59.88023952,611e981ff1974fc524751d25,65d6bb0e977760de756971f7,65d6be4211081d3e25dfeead,0.0213,0.0213,1,72,234,117,1,seveneight,,,,,,,,,,,,,,,,,,,,,,,,,,,,,,,,,,,,,,,,,,,,,,,,,,,,,,,,,,,,,,,,,,,,,,,,,,,,,,,,,,,,,,,,,,,,,,,,,,,,,,,,,,,,,,,,,,,,,,,,,,,,,,,,,,,,,,,,,
,,611e981ff1974fc524751d25,2024-02-21_21h24.12.926,kallum_motion_pilot,2023.2.2,MacIntel,59.88023952,611e981ff1974fc524751d25,65d6bb0e977760de756971f7,65d6be4211081d3e25dfeead,0.0213,0.0214,1,73,235,12,1,threeone,,,,,,,,,,,,,,,,,,,,,,,,,,,,,,,,,,,,,,,,,,,,,,,,,,,,,,,,,,,,,,,,,,,,,,,,,,,,,,,,,,,,,,,,,,,,,,,,,,,,,,,,,,,,,,,,,,,,,,,,,,,,,,,,,,,,,,,,,
,,611e981ff1974fc524751d25,2024-02-21_21h24.12.926,kallum_motion_pilot,2023.2.2,MacIntel,59.88023952,611e981ff1974fc524751d25,65d6bb0e977760de756971f7,65d6be4211081d3e25dfeead,0.0214,0.0214,1,74,236,128,1,fivesix,,,,,,,,,,,,,,,,,,,,,,,,,,,,,,,,,,,,,,,,,,,,,,,,,,,,,,,,,,,,,,,,,,,,,,,,,,,,,,,,,,,,,,,,,,,,,,,,,,,,,,,,,,,,,,,,,,,,,,,,,,,,,,,,,,,,,,,,,
,,611e981ff1974fc524751d25,2024-02-21_21h24.12.926,kallum_motion_pilot,2023.2.2,MacIntel,59.88023952,611e981ff1974fc524751d25,65d6bb0e977760de756971f7,65d6be4211081d3e25dfeead,0.0214,0.0215,1,75,237,75,1,twofour,,,,,,,,,,,,,,,,,,,,,,,,,,,,,,,,,,,,,,,,,,,,,,,,,,,,,,,,,,,,,,,,,,,,,,,,,,,,,,,,,,,,,,,,,,,,,,,,,,,,,,,,,,,,,,,,,,,,,,,,,,,,,,,,,,,,,,,,,
,,611e981ff1974fc524751d25,2024-02-21_21h24.12.926,kallum_motion_pilot,2023.2.2,MacIntel,59.88023952,611e981ff1974fc524751d25,65d6bb0e977760de756971f7,65d6be4211081d3e25dfeead,0.0215,0.0215,1,76,238,103,1,eightseven,,,,,,,,,,,,,,,,,,,,,,,,,,,,,,,,,,,,,,,,,,,,,,,,,,,,,,,,,,,,,,,,,,,,,,,,,,,,,,,,,,,,,,,,,,,,,,,,,,,,,,,,,,,,,,,,,,,,,,,,,,,,,,,,,,,,,,,,,
,,611e981ff1974fc524751d25,2024-02-21_21h24.12.926,kallum_motion_pilot,2023.2.2,MacIntel,59.88023952,611e981ff1974fc524751d25,65d6bb0e977760de756971f7,65d6be4211081d3e25dfeead,0.0215,0.0216,1,77,239,145,1,fiveseven,,,,,,,,,,,,,,,,,,,,,,,,,,,,,,,,,,,,,,,,,,,,,,,,,,,,,,,,,,,,,,,,,,,,,,,,,,,,,,,,,,,,,,,,,,,,,,,,,,,,,,,,,,,,,,,,,,,,,,,,,,,,,,,,,,,,,,,,,
,,611e981ff1974fc524751d25,2024-02-21_21h24.12.926,kallum_motion_pilot,2023.2.2,MacIntel,59.88023952,611e981ff1974fc524751d25,65d6bb0e977760de756971f7,65d6be4211081d3e25dfeead,0.0216,0.0216,1,78,240,54,1,fourtwo,,,,,,,,,,,,,,,,,,,,,,,,,,,,,,,,,,,,,,,,,,,,,,,,,,,,,,,,,,,,,,,,,,,,,,,,,,,,,,,,,,,,,,,,,,,,,,,,,,,,,,,,,,,,,,,,,,,,,,,,,,,,,,,,,,,,,,,,,
,,611e981ff1974fc524751d25,2024-02-21_21h24.12.926,kallum_motion_pilot,2023.2.2,MacIntel,59.88023952,611e981ff1974fc524751d25,65d6bb0e977760de756971f7,65d6be4211081d3e25dfeead,0.0217,0.0217,1,79,241,47,1,fourthree,,,,,,,,,,,,,,,,,,,,,,,,,,,,,,,,,,,,,,,,,,,,,,,,,,,,,,,,,,,,,,,,,,,,,,,,,,,,,,,,,,,,,,,,,,,,,,,,,,,,,,,,,,,,,,,,,,,,,,,,,,,,,,,,,,,,,,,,,
,,611e981ff1974fc524751d25,2024-02-21_21h24.12.926,kallum_motion_pilot,2023.2.2,MacIntel,59.88023952,611e981ff1974fc524751d25,65d6bb0e977760de756971f7,65d6be4211081d3e25dfeead,0.0217,0.0217,1,80,242,65,1,onethree,,,,,,,,,,,,,,,,,,,,,,,,,,,,,,,,,,,,,,,,,,,,,,,,,,,,,,,,,,,,,,,,,,,,,,,,,,,,,,,,,,,,,,,,,,,,,,,,,,,,,,,,,,,,,,,,,,,,,,,,,,,,,,,,,,,,,,,,,
,,611e981ff1974fc524751d25,2024-02-21_21h24.12.926,kallum_motion_pilot,2023.2.2,MacIntel,59.88023952,611e981ff1974fc524751d25,65d6bb0e977760de756971f7,65d6be4211081d3e25dfeead,0.0217,0.0218,1,81,243,72,1,onetwo,,,,,,,,,,,,,,,,,,,,,,,,,,,,,,,,,,,,,,,,,,,,,,,,,,,,,,,,,,,,,,,,,,,,,,,,,,,,,,,,,,,,,,,,,,,,,,,,,,,,,,,,,,,,,,,,,,,,,,,,,,,,,,,,,,,,,,,,,
,,611e981ff1974fc524751d25,2024-02-21_21h24.12.926,kallum_motion_pilot,2023.2.2,MacIntel,59.88023952,611e981ff1974fc524751d25,65d6bb0e977760de756971f7,65d6be4211081d3e25dfeead,0.0219,0.0219,1,82,244,64,1,onetwo,,,,,,,,,,,,,,,,,,,,,,,,,,,,,,,,,,,,,,,,,,,,,,,,,,,,,,,,,,,,,,,,,,,,,,,,,,,,,,,,,,,,,,,,,,,,,,,,,,,,,,,,,,,,,,,,,,,,,,,,,,,,,,,,,,,,,,,,,
,,611e981ff1974fc524751d25,2024-02-21_21h24.12.926,kallum_motion_pilot,2023.2.2,MacIntel,59.88023952,611e981ff1974fc524751d25,65d6bb0e977760de756971f7,65d6be4211081d3e25dfeead,0.0219,0.0219,1,83,245,113,1,fiveseven,,,,,,,,,,,,,,,,,,,,,,,,,,,,,,,,,,,,,,,,,,,,,,,,,,,,,,,,,,,,,,,,,,,,,,,,,,,,,,,,,,,,,,,,,,,,,,,,,,,,,,,,,,,,,,,,,,,,,,,,,,,,,,,,,,,,,,,,,
,,611e981ff1974fc524751d25,2024-02-21_21h24.12.926,kallum_motion_pilot,2023.2.2,MacIntel,59.88023952,611e981ff1974fc524751d25,65d6bb0e977760de756971f7,65d6be4211081d3e25dfeead,0.0219,0.0219,1,84,246,43,1,twofour,,,,,,,,,,,,,,,,,,,,,,,,,,,,,,,,,,,,,,,,,,,,,,,,,,,,,,,,,,,,,,,,,,,,,,,,,,,,,,,,,,,,,,,,,,,,,,,,,,,,,,,,,,,,,,,,,,,,,,,,,,,,,,,,,,,,,,,,,
,,611e981ff1974fc524751d25,2024-02-21_21h24.12.926,kallum_motion_pilot,2023.2.2,MacIntel,59.88023952,611e981ff1974fc524751d25,65d6bb0e977760de756971f7,65d6be4211081d3e25dfeead,0.0219,0.022,1,85,247,98,1,sixfive,,,,,,,,,,,,,,,,,,,,,,,,,,,,,,,,,,,,,,,,,,,,,,,,,,,,,,,,,,,,,,,,,,,,,,,,,,,,,,,,,,,,,,,,,,,,,,,,,,,,,,,,,,,,,,,,,,,,,,,,,,,,,,,,,,,,,,,,,
,,611e981ff1974fc524751d25,2024-02-21_21h24.12.926,kallum_motion_pilot,2023.2.2,MacIntel,59.88023952,611e981ff1974fc524751d25,65d6bb0e977760de756971f7,65d6be4211081d3e25dfeead,0.0223,0.0223,1,86,248,152,1,fivesix,,,,,,,,,,,,,,,,,,,,,,,,,,,,,,,,,,,,,,,,,,,,,,,,,,,,,,,,,,,,,,,,,,,,,,,,,,,,,,,,,,,,,,,,,,,,,,,,,,,,,,,,,,,,,,,,,,,,,,,,,,,,,,,,,,,,,,,,,
,,611e981ff1974fc524751d25,2024-02-21_21h24.12.926,kallum_motion_pilot,2023.2.2,MacIntel,59.88023952,611e981ff1974fc524751d25,65d6bb0e977760de756971f7,65d6be4211081d3e25dfeead,0.0225,0.0225,1,87,249,28,1,threeone,,,,,,,,,,,,,,,,,,,,,,,,,,,,,,,,,,,,,,,,,,,,,,,,,,,,,,,,,,,,,,,,,,,,,,,,,,,,,,,,,,,,,,,,,,,,,,,,,,,,,,,,,,,,,,,,,,,,,,,,,,,,,,,,,,,,,,,,,
,,611e981ff1974fc524751d25,2024-02-21_21h24.12.926,kallum_motion_pilot,2023.2.2,MacIntel,59.88023952,611e981ff1974fc524751d25,65d6bb0e977760de756971f7,65d6be4211081d3e25dfeead,0.0225,0.0225,1,88,250,144,1,fivesix,,,,,,,,,,,,,,,,,,,,,,,,,,,,,,,,,,,,,,,,,,,,,,,,,,,,,,,,,,,,,,,,,,,,,,,,,,,,,,,,,,,,,,,,,,,,,,,,,,,,,,,,,,,,,,,,,,,,,,,,,,,,,,,,,,,,,,,,,
,,611e981ff1974fc524751d25,2024-02-21_21h24.12.926,kallum_motion_pilot,2023.2.2,MacIntel,59.88023952,611e981ff1974fc524751d25,65d6bb0e977760de756971f7,65d6be4211081d3e25dfeead,0.0225,0.0226,1,89,251,116,1,sevenfive,,,,,,,,,,,,,,,,,,,,,,,,,,,,,,,,,,,,,,,,,,,,,,,,,,,,,,,,,,,,,,,,,,,,,,,,,,,,,,,,,,,,,,,,,,,,,,,,,,,,,,,,,,,,,,,,,,,,,,,,,,,,,,,,,,,,,,,,,
,,611e981ff1974fc524751d25,2024-02-21_21h24.12.926,kallum_motion_pilot,2023.2.2,MacIntel,59.88023952,611e981ff1974fc524751d25,65d6bb0e977760de756971f7,65d6be4211081d3e25dfeead,0.0226,0.0226,1,90,252,82,1,sixfive,,,,,,,,,,,,,,,,,,,,,,,,,,,,,,,,,,,,,,,,,,,,,,,,,,,,,,,,,,,,,,,,,,,,,,,,,,,,,,,,,,,,,,,,,,,,,,,,,,,,,,,,,,,,,,,,,,,,,,,,,,,,,,,,,,,,,,,,,
,,611e981ff1974fc524751d25,2024-02-21_21h24.12.926,kallum_motion_pilot,2023.2.2,MacIntel,59.88023952,611e981ff1974fc524751d25,65d6bb0e977760de756971f7,65d6be4211081d3e25dfeead,0.0226,0.0227,1,91,253,83,1,sixeight,,,,,,,,,,,,,,,,,,,,,,,,,,,,,,,,,,,,,,,,,,,,,,,,,,,,,,,,,,,,,,,,,,,,,,,,,,,,,,,,,,,,,,,,,,,,,,,,,,,,,,,,,,,,,,,,,,,,,,,,,,,,,,,,,,,,,,,,,
,,611e981ff1974fc524751d25,2024-02-21_21h24.12.926,kallum_motion_pilot,2023.2.2,MacIntel,59.88023952,611e981ff1974fc524751d25,65d6bb0e977760de756971f7,65d6be4211081d3e25dfeead,0.0227,0.0227,1,92,254,159,1,eightseven,,,,,,,,,,,,,,,,,,,,,,,,,,,,,,,,,,,,,,,,,,,,,,,,,,,,,,,,,,,,,,,,,,,,,,,,,,,,,,,,,,,,,,,,,,,,,,,,,,,,,,,,,,,,,,,,,,,,,,,,,,,,,,,,,,,,,,,,,
,,611e981ff1974fc524751d25,2024-02-21_21h24.12.926,kallum_motion_pilot,2023.2.2,MacIntel,59.88023952,611e981ff1974fc524751d25,65d6bb0e977760de756971f7,65d6be4211081d3e25dfeead,0.0227,0.0227,1,93,255,85,1,seveneight,,,,,,,,,,,,,,,,,,,,,,,,,,,,,,,,,,,,,,,,,,,,,,,,,,,,,,,,,,,,,,,,,,,,,,,,,,,,,,,,,,,,,,,,,,,,,,,,,,,,,,,,,,,,,,,,,,,,,,,,,,,,,,,,,,,,,,,,,
,,611e981ff1974fc524751d25,2024-02-21_21h24.12.926,kallum_motion_pilot,2023.2.2,MacIntel,59.88023952,611e981ff1974fc524751d25,65d6bb0e977760de756971f7,65d6be4211081d3e25dfeead,0.0227,0.0229,1,94,256,141,1,seveneight,,,,,,,,,,,,,,,,,,,,,,,,,,,,,,,,,,,,,,,,,,,,,,,,,,,,,,,,,,,,,,,,,,,,,,,,,,,,,,,,,,,,,,,,,,,,,,,,,,,,,,,,,,,,,,,,,,,,,,,,,,,,,,,,,,,,,,,,,
,,611e981ff1974fc524751d25,2024-02-21_21h24.12.926,kallum_motion_pilot,2023.2.2,MacIntel,59.88023952,611e981ff1974fc524751d25,65d6bb0e977760de756971f7,65d6be4211081d3e25dfeead,0.0229,0.0229,1,95,257,4,1,threeone,,,,,,,,,,,,,,,,,,,,,,,,,,,,,,,,,,,,,,,,,,,,,,,,,,,,,,,,,,,,,,,,,,,,,,,,,,,,,,,,,,,,,,,,,,,,,,,,,,,,,,,,,,,,,,,,,,,,,,,,,,,,,,,,,,,,,,,,,
,,611e981ff1974fc524751d25,2024-02-21_21h24.12.926,kallum_motion_pilot,2023.2.2,MacIntel,59.88023952,611e981ff1974fc524751d25,65d6bb0e977760de756971f7,65d6be4211081d3e25dfeead,0.0229,0.023,1,96,258,67,1,twofour,,,,,,,,,,,,,,,,,,,,,,,,,,,,,,,,,,,,,,,,,,,,,,,,,,,,,,,,,,,,,,,,,,,,,,,,,,,,,,,,,,,,,,,,,,,,,,,,,,,,,,,,,,,,,,,,,,,,,,,,,,,,,,,,,,,,,,,,,
,,611e981ff1974fc524751d25,2024-02-21_21h24.12.926,kallum_motion_pilot,2023.2.2,MacIntel,59.88023952,611e981ff1974fc524751d25,65d6bb0e977760de756971f7,65d6be4211081d3e25dfeead,0.023,0.023,1,97,259,100,1,sevenfive,,,,,,,,,,,,,,,,,,,,,,,,,,,,,,,,,,,,,,,,,,,,,,,,,,,,,,,,,,,,,,,,,,,,,,,,,,,,,,,,,,,,,,,,,,,,,,,,,,,,,,,,,,,,,,,,,,,,,,,,,,,,,,,,,,,,,,,,,
,,611e981ff1974fc524751d25,2024-02-21_21h24.12.926,kallum_motion_pilot,2023.2.2,MacIntel,59.88023952,611e981ff1974fc524751d25,65d6bb0e977760de756971f7,65d6be4211081d3e25dfeead,0.023,0.023,1,98,260,78,1,fourtwo,,,,,,,,,,,,,,,,,,,,,,,,,,,,,,,,,,,,,,,,,,,,,,,,,,,,,,,,,,,,,,,,,,,,,,,,,,,,,,,,,,,,,,,,,,,,,,,,,,,,,,,,,,,,,,,,,,,,,,,,,,,,,,,,,,,,,,,,,
,,611e981ff1974fc524751d25,2024-02-21_21h24.12.926,kallum_motion_pilot,2023.2.2,MacIntel,59.88023952,611e981ff1974fc524751d25,65d6bb0e977760de756971f7,65d6be4211081d3e25dfeead,0.023,0.023,1,99,261,18,1,twoone,,,,,,,,,,,,,,,,,,,,,,,,,,,,,,,,,,,,,,,,,,,,,,,,,,,,,,,,,,,,,,,,,,,,,,,,,,,,,,,,,,,,,,,,,,,,,,,,,,,,,,,,,,,,,,,,,,,,,,,,,,,,,,,,,,,,,,,,,
,,611e981ff1974fc524751d25,2024-02-21_21h24.12.926,kallum_motion_pilot,2023.2.2,MacIntel,59.88023952,611e981ff1974fc524751d25,65d6bb0e977760de756971f7,65d6be4211081d3e25dfeead,0.0231,0.0231,1,100,262,84,1,sevenfive,,,,,,,,,,,,,,,,,,,,,,,,,,,,,,,,,,,,,,,,,,,,,,,,,,,,,,,,,,,,,,,,,,,,,,,,,,,,,,,,,,,,,,,,,,,,,,,,,,,,,,,,,,,,,,,,,,,,,,,,,,,,,,,,,,,,,,,,,
,,611e981ff1974fc524751d25,2024-02-21_21h24.12.926,kallum_motion_pilot,2023.2.2,MacIntel,59.88023952,611e981ff1974fc524751d25,65d6bb0e977760de756971f7,65d6be4211081d3e25dfeead,0.0231,0.0231,1,101,263,56,1,onetwo,,,,,,,,,,,,,,,,,,,,,,,,,,,,,,,,,,,,,,,,,,,,,,,,,,,,,,,,,,,,,,,,,,,,,,,,,,,,,,,,,,,,,,,,,,,,,,,,,,,,,,,,,,,,,,,,,,,,,,,,,,,,,,,,,,,,,,,,,
,,611e981ff1974fc524751d25,2024-02-21_21h24.12.926,kallum_motion_pilot,2023.2.2,MacIntel,59.88023952,611e981ff1974fc524751d25,65d6bb0e977760de756971f7,65d6be4211081d3e25dfeead,0.0232,0.0232,1,102,264,74,1,twoone,,,,,,,,,,,,,,,,,,,,,,,,,,,,,,,,,,,,,,,,,,,,,,,,,,,,,,,,,,,,,,,,,,,,,,,,,,,,,,,,,,,,,,,,,,,,,,,,,,,,,,,,,,,,,,,,,,,,,,,,,,,,,,,,,,,,,,,,,
,,611e981ff1974fc524751d25,2024-02-21_21h24.12.926,kallum_motion_pilot,2023.2.2,MacIntel,59.88023952,611e981ff1974fc524751d25,65d6bb0e977760de756971f7,65d6be4211081d3e25dfeead,0.0233,0.0233,1,103,265,44,1,threeone,,,,,,,,,,,,,,,,,,,,,,,,,,,,,,,,,,,,,,,,,,,,,,,,,,,,,,,,,,,,,,,,,,,,,,,,,,,,,,,,,,,,,,,,,,,,,,,,,,,,,,,,,,,,,,,,,,,,,,,,,,,,,,,,,,,,,,,,,
,,611e981ff1974fc524751d25,2024-02-21_21h24.12.926,kallum_motion_pilot,2023.2.2,MacIntel,59.88023952,611e981ff1974fc524751d25,65d6bb0e977760de756971f7,65d6be4211081d3e25dfeead,0.0233,0.0234,1,104,266,150,1,eightsix,,,,,,,,,,,,,,,,,,,,,,,,,,,,,,,,,,,,,,,,,,,,,,,,,,,,,,,,,,,,,,,,,,,,,,,,,,,,,,,,,,,,,,,,,,,,,,,,,,,,,,,,,,,,,,,,,,,,,,,,,,,,,,,,,,,,,,,,,
,,611e981ff1974fc524751d25,2024-02-21_21h24.12.926,kallum_motion_pilot,2023.2.2,MacIntel,59.88023952,611e981ff1974fc524751d25,65d6bb0e977760de756971f7,65d6be4211081d3e25dfeead,0.0234,0.0234,1,105,267,92,1,sevenfive,,,,,,,,,,,,,,,,,,,,,,,,,,,,,,,,,,,,,,,,,,,,,,,,,,,,,,,,,,,,,,,,,,,,,,,,,,,,,,,,,,,,,,,,,,,,,,,,,,,,,,,,,,,,,,,,,,,,,,,,,,,,,,,,,,,,,,,,,
,,611e981ff1974fc524751d25,2024-02-21_21h24.12.926,kallum_motion_pilot,2023.2.2,MacIntel,59.88023952,611e981ff1974fc524751d25,65d6bb0e977760de756971f7,65d6be4211081d3e25dfeead,0.0234,0.0234,1,106,268,111,1,eightseven,,,,,,,,,,,,,,,,,,,,,,,,,,,,,,,,,,,,,,,,,,,,,,,,,,,,,,,,,,,,,,,,,,,,,,,,,,,,,,,,,,,,,,,,,,,,,,,,,,,,,,,,,,,,,,,,,,,,,,,,,,,,,,,,,,,,,,,,,
,,611e981ff1974fc524751d25,2024-02-21_21h24.12.926,kallum_motion_pilot,2023.2.2,MacIntel,59.88023952,611e981ff1974fc524751d25,65d6bb0e977760de756971f7,65d6be4211081d3e25dfeead,0.0235,0.0235,1,107,269,147,1,sixeight,,,,,,,,,,,,,,,,,,,,,,,,,,,,,,,,,,,,,,,,,,,,,,,,,,,,,,,,,,,,,,,,,,,,,,,,,,,,,,,,,,,,,,,,,,,,,,,,,,,,,,,,,,,,,,,,,,,,,,,,,,,,,,,,,,,,,,,,,
,,611e981ff1974fc524751d25,2024-02-21_21h24.12.926,kallum_motion_pilot,2023.2.2,MacIntel,59.88023952,611e981ff1974fc524751d25,65d6bb0e977760de756971f7,65d6be4211081d3e25dfeead,0.0236,0.0236,1,108,270,2,1,twoone,,,,,,,,,,,,,,,,,,,,,,,,,,,,,,,,,,,,,,,,,,,,,,,,,,,,,,,,,,,,,,,,,,,,,,,,,,,,,,,,,,,,,,,,,,,,,,,,,,,,,,,,,,,,,,,,,,,,,,,,,,,,,,,,,,,,,,,,,
,,611e981ff1974fc524751d25,2024-02-21_21h24.12.926,kallum_motion_pilot,2023.2.2,MacIntel,59.88023952,611e981ff1974fc524751d25,65d6bb0e977760de756971f7,65d6be4211081d3e25dfeead,0.0236,0.0236,1,109,271,105,1,fiveseven,,,,,,,,,,,,,,,,,,,,,,,,,,,,,,,,,,,,,,,,,,,,,,,,,,,,,,,,,,,,,,,,,,,,,,,,,,,,,,,,,,,,,,,,,,,,,,,,,,,,,,,,,,,,,,,,,,,,,,,,,,,,,,,,,,,,,,,,,
,,611e981ff1974fc524751d25,2024-02-21_21h24.12.926,kallum_motion_pilot,2023.2.2,MacIntel,59.88023952,611e981ff1974fc524751d25,65d6bb0e977760de756971f7,65d6be4211081d3e25dfeead,0.0237,0.0237,1,110,272,50,1,twoone,,,,,,,,,,,,,,,,,,,,,,,,,,,,,,,,,,,,,,,,,,,,,,,,,,,,,,,,,,,,,,,,,,,,,,,,,,,,,,,,,,,,,,,,,,,,,,,,,,,,,,,,,,,,,,,,,,,,,,,,,,,,,,,,,,,,,,,,,
,,611e981ff1974fc524751d25,2024-02-21_21h24.12.926,kallum_motion_pilot,2023.2.2,MacIntel,59.88023952,611e981ff1974fc524751d25,65d6bb0e977760de756971f7,65d6be4211081d3e25dfeead,0.0237,0.0237,1,111,273,127,1,eightseven,,,,,,,,,,,,,,,,,,,,,,,,,,,,,,,,,,,,,,,,,,,,,,,,,,,,,,,,,,,,,,,,,,,,,,,,,,,,,,,,,,,,,,,,,,,,,,,,,,,,,,,,,,,,,,,,,,,,,,,,,,,,,,,,,,,,,,,,,
,,611e981ff1974fc524751d25,2024-02-21_21h24.12.926,kallum_motion_pilot,2023.2.2,MacIntel,59.88023952,611e981ff1974fc524751d25,65d6bb0e977760de756971f7,65d6be4211081d3e25dfeead,0.0238,0.0238,1,112,274,38,1,fourtwo,,,,,,,,,,,,,,,,,,,,,,,,,,,,,,,,,,,,,,,,,,,,,,,,,,,,,,,,,,,,,,,,,,,,,,,,,,,,,,,,,,,,,,,,,,,,,,,,,,,,,,,,,,,,,,,,,,,,,,,,,,,,,,,,,,,,,,,,,
,,611e981ff1974fc524751d25,2024-02-21_21h24.12.926,kallum_motion_pilot,2023.2.2,MacIntel,59.88023952,611e981ff1974fc524751d25,65d6bb0e977760de756971f7,65d6be4211081d3e25dfeead,0.0238,0.0238,1,113,275,130,1,sixfive,,,,,,,,,,,,,,,,,,,,,,,,,,,,,,,,,,,,,,,,,,,,,,,,,,,,,,,,,,,,,,,,,,,,,,,,,,,,,,,,,,,,,,,,,,,,,,,,,,,,,,,,,,,,,,,,,,,,,,,,,,,,,,,,,,,,,,,,,
