startup.started,startup.stopped,Prolific ID*,date,expName,psychopyVersion,OS,frameRate,participant,study_id,session,stimpositions.started,stimpositions.stopped,hardcoded_stimulus_positions.thisRepN,hardcoded_stimulus_positions.thisTrialN,hardcoded_stimulus_positions.thisN,hardcoded_stimulus_positions.thisIndex,hardcoded_stimulus_positions.ran,StimulusPos,stimorientation.started,stimorientation.stopped,prac_stimorientation_import_loop.thisRepN,prac_stimorientation_import_loop.thisTrialN,prac_stimorientation_import_loop.thisN,prac_stimorientation_import_loop.thisIndex,prac_stimorientation_import_loop.ran,Stimorientation,welcome_instr.started,welcome_instr.stopped,key_resp.keys,key_resp.rt,key_resp.duration,response_steppedout_1.started,response_steppedout_1.stopped,key_resp_20.keys,key_resp_20.rt,key_resp_20.duration,response_steppedout_2.started,response_steppedout_2.stopped,key_resp_19.keys,key_resp_19.rt,key_resp_19.duration,stim_response_instr.started,stim_response_instr.stopped,key_resp_15.keys,key_resp_15.rt,key_resp_15.duration,direction_instr_2.started,direction_instr_2.stopped,key_resp_9.keys,key_resp_9.rt,key_resp_9.duration,instr_prac.started,instr_prac.stopped,key_resp_10.keys,key_resp_10.rt,key_resp_10.duration,Stim1_display_prac.started,Stim1_display_prac.stopped,Ecc,Circle1_ori,Circle2_ori,response_prac.started,similarity,response_time,response_prac.stopped,mouse_5.x,mouse_5.y,mouse_5.leftButton,mouse_5.midButton,mouse_5.rightButton,mouse_5.clicked_name,responseprac_feedback.started,responseprac_feedback.stopped,summary2_prac.started,summary2_prac.stopped,mouse_6.x,mouse_6.y,mouse_6.leftButton,mouse_6.midButton,mouse_6.rightButton,mouse_6.clicked_name,duringprac.thisRepN,duringprac.thisTrialN,duringprac.thisN,duringprac.thisIndex,duringprac.ran,begin.started,begin.stopped,key_resp_22.keys,key_resp_22.rt,key_resp_22.duration,Stim1_display.started,Stim1_display.stopped,circle1_ori,circle2_ori,circle1_SF,circle2_SF,response.started,response.stopped,mouse.x,mouse.y,mouse.leftButton,mouse.midButton,mouse.rightButton,mouse.clicked_name,trialnumber,double_pass.thisRepN,double_pass.thisTrialN,double_pass.thisN,double_pass.thisIndex,double_pass.ran,double_pass.order,main_trial.thisRepN,main_trial.thisTrialN,main_trial.thisN,main_trial.thisIndex,main_trial.ran,main_trial.order,Trial_Counter,Catch,Frequencies,response_2.started,response_2.stopped,mouse_2.x,mouse_2.y,mouse_2.leftButton,mouse_2.midButton,mouse_2.rightButton,mouse_2.clicked_name,special_trial.started,special_trial.stopped,catch_1.started,catch_1.stopped,mouse_3.x,mouse_3.y,mouse_3.leftButton,mouse_3.midButton,mouse_3.rightButton,catchresponse,catchnumber,response_time_catch,response_sum.started,response_sum.stopped,mouse_11.x,mouse_11.y,mouse_11.leftButton,mouse_11.midButton,mouse_11.rightButton,flip_presentation_sequence_for_double_pass.started,flip_presentation_sequence_for_double_pass.stopped,goodbye.started,goodbye.stopped,key_resp_3.keys,key_resp_3.rt,key_resp_3.duration
0.0003,0.0004,611ed2c05be8517aa0d6076b,2024-02-19_02h14.40.606,kallum_motion_pilot,2023.2.2,Win32,59.88023952,611ed2c05be8517aa0d6076b,65d2b6c8f2eece985d8e374c,65d2b983021102d09219337b,,,,,,,,,,,,,,,,,,,,,,,,,,,,,,,,,,,,,,,,,,,,,,,,,,,,,,,,,,,,,,,,,,,,,,,,,,,,,,,,,,,,,,,,,,,,,,,,,,,,,,,,,,,,,,,,,,,,,,,,,,,,,,,,,,,,,,,,,,,,,,,,,
,,611ed2c05be8517aa0d6076b,2024-02-19_02h14.40.606,kallum_motion_pilot,2023.2.2,Win32,59.88023952,611ed2c05be8517aa0d6076b,65d2b6c8f2eece985d8e374c,65d2b983021102d09219337b,0.0187,0.0188,0,0,0,73,1,onethree,,,,,,,,,,,,,,,,,,,,,,,,,,,,,,,,,,,,,,,,,,,,,,,,,,,,,,,,,,,,,,,,,,,,,,,,,,,,,,,,,,,,,,,,,,,,,,,,,,,,,,,,,,,,,,,,,,,,,,,,,,,,,,,,,,,,,,,,,
,,611ed2c05be8517aa0d6076b,2024-02-19_02h14.40.606,kallum_motion_pilot,2023.2.2,Win32,59.88023952,611ed2c05be8517aa0d6076b,65d2b6c8f2eece985d8e374c,65d2b983021102d09219337b,0.0191,0.0191,0,1,1,139,1,sixeight,,,,,,,,,,,,,,,,,,,,,,,,,,,,,,,,,,,,,,,,,,,,,,,,,,,,,,,,,,,,,,,,,,,,,,,,,,,,,,,,,,,,,,,,,,,,,,,,,,,,,,,,,,,,,,,,,,,,,,,,,,,,,,,,,,,,,,,,,
,,611ed2c05be8517aa0d6076b,2024-02-19_02h14.40.606,kallum_motion_pilot,2023.2.2,Win32,59.88023952,611ed2c05be8517aa0d6076b,65d2b6c8f2eece985d8e374c,65d2b983021102d09219337b,0.0191,0.0191,0,2,2,153,1,fiveseven,,,,,,,,,,,,,,,,,,,,,,,,,,,,,,,,,,,,,,,,,,,,,,,,,,,,,,,,,,,,,,,,,,,,,,,,,,,,,,,,,,,,,,,,,,,,,,,,,,,,,,,,,,,,,,,,,,,,,,,,,,,,,,,,,,,,,,,,,
,,611ed2c05be8517aa0d6076b,2024-02-19_02h14.40.606,kallum_motion_pilot,2023.2.2,Win32,59.88023952,611ed2c05be8517aa0d6076b,65d2b6c8f2eece985d8e374c,65d2b983021102d09219337b,0.0192,0.0192,0,3,3,96,1,fivesix,,,,,,,,,,,,,,,,,,,,,,,,,,,,,,,,,,,,,,,,,,,,,,,,,,,,,,,,,,,,,,,,,,,,,,,,,,,,,,,,,,,,,,,,,,,,,,,,,,,,,,,,,,,,,,,,,,,,,,,,,,,,,,,,,,,,,,,,,
,,611ed2c05be8517aa0d6076b,2024-02-19_02h14.40.606,kallum_motion_pilot,2023.2.2,Win32,59.88023952,611ed2c05be8517aa0d6076b,65d2b6c8f2eece985d8e374c,65d2b983021102d09219337b,0.0194,0.0194,0,4,4,61,1,threefour,,,,,,,,,,,,,,,,,,,,,,,,,,,,,,,,,,,,,,,,,,,,,,,,,,,,,,,,,,,,,,,,,,,,,,,,,,,,,,,,,,,,,,,,,,,,,,,,,,,,,,,,,,,,,,,,,,,,,,,,,,,,,,,,,,,,,,,,,
,,611ed2c05be8517aa0d6076b,2024-02-19_02h14.40.606,kallum_motion_pilot,2023.2.2,Win32,59.88023952,611ed2c05be8517aa0d6076b,65d2b6c8f2eece985d8e374c,65d2b983021102d09219337b,0.0194,0.0194,0,5,5,43,1,twofour,,,,,,,,,,,,,,,,,,,,,,,,,,,,,,,,,,,,,,,,,,,,,,,,,,,,,,,,,,,,,,,,,,,,,,,,,,,,,,,,,,,,,,,,,,,,,,,,,,,,,,,,,,,,,,,,,,,,,,,,,,,,,,,,,,,,,,,,,
,,611ed2c05be8517aa0d6076b,2024-02-19_02h14.40.606,kallum_motion_pilot,2023.2.2,Win32,59.88023952,611ed2c05be8517aa0d6076b,65d2b6c8f2eece985d8e374c,65d2b983021102d09219337b,0.0195,0.0195,0,6,6,34,1,twoone,,,,,,,,,,,,,,,,,,,,,,,,,,,,,,,,,,,,,,,,,,,,,,,,,,,,,,,,,,,,,,,,,,,,,,,,,,,,,,,,,,,,,,,,,,,,,,,,,,,,,,,,,,,,,,,,,,,,,,,,,,,,,,,,,,,,,,,,,
,,611ed2c05be8517aa0d6076b,2024-02-19_02h14.40.606,kallum_motion_pilot,2023.2.2,Win32,59.88023952,611ed2c05be8517aa0d6076b,65d2b6c8f2eece985d8e374c,65d2b983021102d09219337b,0.0196,0.0196,0,7,7,23,1,fourthree,,,,,,,,,,,,,,,,,,,,,,,,,,,,,,,,,,,,,,,,,,,,,,,,,,,,,,,,,,,,,,,,,,,,,,,,,,,,,,,,,,,,,,,,,,,,,,,,,,,,,,,,,,,,,,,,,,,,,,,,,,,,,,,,,,,,,,,,,
,,611ed2c05be8517aa0d6076b,2024-02-19_02h14.40.606,kallum_motion_pilot,2023.2.2,Win32,59.88023952,611ed2c05be8517aa0d6076b,65d2b6c8f2eece985d8e374c,65d2b983021102d09219337b,0.0198,0.0198,0,8,8,63,1,fourthree,,,,,,,,,,,,,,,,,,,,,,,,,,,,,,,,,,,,,,,,,,,,,,,,,,,,,,,,,,,,,,,,,,,,,,,,,,,,,,,,,,,,,,,,,,,,,,,,,,,,,,,,,,,,,,,,,,,,,,,,,,,,,,,,,,,,,,,,,
,,611ed2c05be8517aa0d6076b,2024-02-19_02h14.40.606,kallum_motion_pilot,2023.2.2,Win32,59.88023952,611ed2c05be8517aa0d6076b,65d2b6c8f2eece985d8e374c,65d2b983021102d09219337b,0.0198,0.0198,0,9,9,155,1,sixeight,,,,,,,,,,,,,,,,,,,,,,,,,,,,,,,,,,,,,,,,,,,,,,,,,,,,,,,,,,,,,,,,,,,,,,,,,,,,,,,,,,,,,,,,,,,,,,,,,,,,,,,,,,,,,,,,,,,,,,,,,,,,,,,,,,,,,,,,,
,,611ed2c05be8517aa0d6076b,2024-02-19_02h14.40.606,kallum_motion_pilot,2023.2.2,Win32,59.88023952,611ed2c05be8517aa0d6076b,65d2b6c8f2eece985d8e374c,65d2b983021102d09219337b,0.0199,0.02,0,10,10,145,1,fiveseven,,,,,,,,,,,,,,,,,,,,,,,,,,,,,,,,,,,,,,,,,,,,,,,,,,,,,,,,,,,,,,,,,,,,,,,,,,,,,,,,,,,,,,,,,,,,,,,,,,,,,,,,,,,,,,,,,,,,,,,,,,,,,,,,,,,,,,,,,
,,611ed2c05be8517aa0d6076b,2024-02-19_02h14.40.606,kallum_motion_pilot,2023.2.2,Win32,59.88023952,611ed2c05be8517aa0d6076b,65d2b6c8f2eece985d8e374c,65d2b983021102d09219337b,0.02,0.02,0,11,11,98,1,sixfive,,,,,,,,,,,,,,,,,,,,,,,,,,,,,,,,,,,,,,,,,,,,,,,,,,,,,,,,,,,,,,,,,,,,,,,,,,,,,,,,,,,,,,,,,,,,,,,,,,,,,,,,,,,,,,,,,,,,,,,,,,,,,,,,,,,,,,,,,
,,611ed2c05be8517aa0d6076b,2024-02-19_02h14.40.606,kallum_motion_pilot,2023.2.2,Win32,59.88023952,611ed2c05be8517aa0d6076b,65d2b6c8f2eece985d8e374c,65d2b983021102d09219337b,0.0201,0.0201,0,12,12,70,1,fourtwo,,,,,,,,,,,,,,,,,,,,,,,,,,,,,,,,,,,,,,,,,,,,,,,,,,,,,,,,,,,,,,,,,,,,,,,,,,,,,,,,,,,,,,,,,,,,,,,,,,,,,,,,,,,,,,,,,,,,,,,,,,,,,,,,,,,,,,,,,
,,611ed2c05be8517aa0d6076b,2024-02-19_02h14.40.606,kallum_motion_pilot,2023.2.2,Win32,59.88023952,611ed2c05be8517aa0d6076b,65d2b6c8f2eece985d8e374c,65d2b983021102d09219337b,0.0201,0.0202,0,13,13,100,1,sevenfive,,,,,,,,,,,,,,,,,,,,,,,,,,,,,,,,,,,,,,,,,,,,,,,,,,,,,,,,,,,,,,,,,,,,,,,,,,,,,,,,,,,,,,,,,,,,,,,,,,,,,,,,,,,,,,,,,,,,,,,,,,,,,,,,,,,,,,,,,
,,611ed2c05be8517aa0d6076b,2024-02-19_02h14.40.606,kallum_motion_pilot,2023.2.2,Win32,59.88023952,611ed2c05be8517aa0d6076b,65d2b6c8f2eece985d8e374c,65d2b983021102d09219337b,0.0203,0.0203,0,14,14,121,1,fiveseven,,,,,,,,,,,,,,,,,,,,,,,,,,,,,,,,,,,,,,,,,,,,,,,,,,,,,,,,,,,,,,,,,,,,,,,,,,,,,,,,,,,,,,,,,,,,,,,,,,,,,,,,,,,,,,,,,,,,,,,,,,,,,,,,,,,,,,,,,
,,611ed2c05be8517aa0d6076b,2024-02-19_02h14.40.606,kallum_motion_pilot,2023.2.2,Win32,59.88023952,611ed2c05be8517aa0d6076b,65d2b6c8f2eece985d8e374c,65d2b983021102d09219337b,0.0203,0.0203,0,15,15,22,1,fourtwo,,,,,,,,,,,,,,,,,,,,,,,,,,,,,,,,,,,,,,,,,,,,,,,,,,,,,,,,,,,,,,,,,,,,,,,,,,,,,,,,,,,,,,,,,,,,,,,,,,,,,,,,,,,,,,,,,,,,,,,,,,,,,,,,,,,,,,,,,
,,611ed2c05be8517aa0d6076b,2024-02-19_02h14.40.606,kallum_motion_pilot,2023.2.2,Win32,59.88023952,611ed2c05be8517aa0d6076b,65d2b6c8f2eece985d8e374c,65d2b983021102d09219337b,0.0204,0.0204,0,16,16,65,1,onethree,,,,,,,,,,,,,,,,,,,,,,,,,,,,,,,,,,,,,,,,,,,,,,,,,,,,,,,,,,,,,,,,,,,,,,,,,,,,,,,,,,,,,,,,,,,,,,,,,,,,,,,,,,,,,,,,,,,,,,,,,,,,,,,,,,,,,,,,,
,,611ed2c05be8517aa0d6076b,2024-02-19_02h14.40.606,kallum_motion_pilot,2023.2.2,Win32,59.88023952,611ed2c05be8517aa0d6076b,65d2b6c8f2eece985d8e374c,65d2b983021102d09219337b,0.0205,0.0205,0,17,17,108,1,sevenfive,,,,,,,,,,,,,,,,,,,,,,,,,,,,,,,,,,,,,,,,,,,,,,,,,,,,,,,,,,,,,,,,,,,,,,,,,,,,,,,,,,,,,,,,,,,,,,,,,,,,,,,,,,,,,,,,,,,,,,,,,,,,,,,,,,,,,,,,,
,,611ed2c05be8517aa0d6076b,2024-02-19_02h14.40.606,kallum_motion_pilot,2023.2.2,Win32,59.88023952,611ed2c05be8517aa0d6076b,65d2b6c8f2eece985d8e374c,65d2b983021102d09219337b,0.0205,0.0205,0,18,18,36,1,threeone,,,,,,,,,,,,,,,,,,,,,,,,,,,,,,,,,,,,,,,,,,,,,,,,,,,,,,,,,,,,,,,,,,,,,,,,,,,,,,,,,,,,,,,,,,,,,,,,,,,,,,,,,,,,,,,,,,,,,,,,,,,,,,,,,,,,,,,,,
,,611ed2c05be8517aa0d6076b,2024-02-19_02h14.40.606,kallum_motion_pilot,2023.2.2,Win32,59.88023952,611ed2c05be8517aa0d6076b,65d2b6c8f2eece985d8e374c,65d2b983021102d09219337b,0.0206,0.0206,0,19,19,83,1,sixeight,,,,,,,,,,,,,,,,,,,,,,,,,,,,,,,,,,,,,,,,,,,,,,,,,,,,,,,,,,,,,,,,,,,,,,,,,,,,,,,,,,,,,,,,,,,,,,,,,,,,,,,,,,,,,,,,,,,,,,,,,,,,,,,,,,,,,,,,,
,,611ed2c05be8517aa0d6076b,2024-02-19_02h14.40.606,kallum_motion_pilot,2023.2.2,Win32,59.88023952,611ed2c05be8517aa0d6076b,65d2b6c8f2eece985d8e374c,65d2b983021102d09219337b,0.0206,0.0206,0,20,20,148,1,sevenfive,,,,,,,,,,,,,,,,,,,,,,,,,,,,,,,,,,,,,,,,,,,,,,,,,,,,,,,,,,,,,,,,,,,,,,,,,,,,,,,,,,,,,,,,,,,,,,,,,,,,,,,,,,,,,,,,,,,,,,,,,,,,,,,,,,,,,,,,,
,,611ed2c05be8517aa0d6076b,2024-02-19_02h14.40.606,kallum_motion_pilot,2023.2.2,Win32,59.88023952,611ed2c05be8517aa0d6076b,65d2b6c8f2eece985d8e374c,65d2b983021102d09219337b,0.0207,0.0207,0,21,21,102,1,eightsix,,,,,,,,,,,,,,,,,,,,,,,,,,,,,,,,,,,,,,,,,,,,,,,,,,,,,,,,,,,,,,,,,,,,,,,,,,,,,,,,,,,,,,,,,,,,,,,,,,,,,,,,,,,,,,,,,,,,,,,,,,,,,,,,,,,,,,,,,
,,611ed2c05be8517aa0d6076b,2024-02-19_02h14.40.606,kallum_motion_pilot,2023.2.2,Win32,59.88023952,611ed2c05be8517aa0d6076b,65d2b6c8f2eece985d8e374c,65d2b983021102d09219337b,0.0209,0.0209,0,22,22,69,1,threefour,,,,,,,,,,,,,,,,,,,,,,,,,,,,,,,,,,,,,,,,,,,,,,,,,,,,,,,,,,,,,,,,,,,,,,,,,,,,,,,,,,,,,,,,,,,,,,,,,,,,,,,,,,,,,,,,,,,,,,,,,,,,,,,,,,,,,,,,,
,,611ed2c05be8517aa0d6076b,2024-02-19_02h14.40.606,kallum_motion_pilot,2023.2.2,Win32,59.88023952,611ed2c05be8517aa0d6076b,65d2b6c8f2eece985d8e374c,65d2b983021102d09219337b,0.0209,0.0209,0,23,23,130,1,sixfive,,,,,,,,,,,,,,,,,,,,,,,,,,,,,,,,,,,,,,,,,,,,,,,,,,,,,,,,,,,,,,,,,,,,,,,,,,,,,,,,,,,,,,,,,,,,,,,,,,,,,,,,,,,,,,,,,,,,,,,,,,,,,,,,,,,,,,,,,
,,611ed2c05be8517aa0d6076b,2024-02-19_02h14.40.606,kallum_motion_pilot,2023.2.2,Win32,59.88023952,611ed2c05be8517aa0d6076b,65d2b6c8f2eece985d8e374c,65d2b983021102d09219337b,0.021,0.021,0,24,24,99,1,sixeight,,,,,,,,,,,,,,,,,,,,,,,,,,,,,,,,,,,,,,,,,,,,,,,,,,,,,,,,,,,,,,,,,,,,,,,,,,,,,,,,,,,,,,,,,,,,,,,,,,,,,,,,,,,,,,,,,,,,,,,,,,,,,,,,,,,,,,,,,
,,611ed2c05be8517aa0d6076b,2024-02-19_02h14.40.606,kallum_motion_pilot,2023.2.2,Win32,59.88023952,611ed2c05be8517aa0d6076b,65d2b6c8f2eece985d8e374c,65d2b983021102d09219337b,0.0211,0.0211,0,25,25,76,1,threeone,,,,,,,,,,,,,,,,,,,,,,,,,,,,,,,,,,,,,,,,,,,,,,,,,,,,,,,,,,,,,,,,,,,,,,,,,,,,,,,,,,,,,,,,,,,,,,,,,,,,,,,,,,,,,,,,,,,,,,,,,,,,,,,,,,,,,,,,,
,,611ed2c05be8517aa0d6076b,2024-02-19_02h14.40.606,kallum_motion_pilot,2023.2.2,Win32,59.88023952,611ed2c05be8517aa0d6076b,65d2b6c8f2eece985d8e374c,65d2b983021102d09219337b,0.0211,0.0212,0,26,26,31,1,fourthree,,,,,,,,,,,,,,,,,,,,,,,,,,,,,,,,,,,,,,,,,,,,,,,,,,,,,,,,,,,,,,,,,,,,,,,,,,,,,,,,,,,,,,,,,,,,,,,,,,,,,,,,,,,,,,,,,,,,,,,,,,,,,,,,,,,,,,,,,
,,611ed2c05be8517aa0d6076b,2024-02-19_02h14.40.606,kallum_motion_pilot,2023.2.2,Win32,59.88023952,611ed2c05be8517aa0d6076b,65d2b6c8f2eece985d8e374c,65d2b983021102d09219337b,0.0213,0.0213,0,27,27,74,1,twoone,,,,,,,,,,,,,,,,,,,,,,,,,,,,,,,,,,,,,,,,,,,,,,,,,,,,,,,,,,,,,,,,,,,,,,,,,,,,,,,,,,,,,,,,,,,,,,,,,,,,,,,,,,,,,,,,,,,,,,,,,,,,,,,,,,,,,,,,,
,,611ed2c05be8517aa0d6076b,2024-02-19_02h14.40.606,kallum_motion_pilot,2023.2.2,Win32,59.88023952,611ed2c05be8517aa0d6076b,65d2b6c8f2eece985d8e374c,65d2b983021102d09219337b,0.0213,0.0213,0,28,28,158,1,eightsix,,,,,,,,,,,,,,,,,,,,,,,,,,,,,,,,,,,,,,,,,,,,,,,,,,,,,,,,,,,,,,,,,,,,,,,,,,,,,,,,,,,,,,,,,,,,,,,,,,,,,,,,,,,,,,,,,,,,,,,,,,,,,,,,,,,,,,,,,
,,611ed2c05be8517aa0d6076b,2024-02-19_02h14.40.606,kallum_motion_pilot,2023.2.2,Win32,59.88023952,611ed2c05be8517aa0d6076b,65d2b6c8f2eece985d8e374c,65d2b983021102d09219337b,0.0214,0.0214,0,29,29,53,1,threefour,,,,,,,,,,,,,,,,,,,,,,,,,,,,,,,,,,,,,,,,,,,,,,,,,,,,,,,,,,,,,,,,,,,,,,,,,,,,,,,,,,,,,,,,,,,,,,,,,,,,,,,,,,,,,,,,,,,,,,,,,,,,,,,,,,,,,,,,,
,,611ed2c05be8517aa0d6076b,2024-02-19_02h14.40.606,kallum_motion_pilot,2023.2.2,Win32,59.88023952,611ed2c05be8517aa0d6076b,65d2b6c8f2eece985d8e374c,65d2b983021102d09219337b,0.0214,0.0215,0,30,30,39,1,fourthree,,,,,,,,,,,,,,,,,,,,,,,,,,,,,,,,,,,,,,,,,,,,,,,,,,,,,,,,,,,,,,,,,,,,,,,,,,,,,,,,,,,,,,,,,,,,,,,,,,,,,,,,,,,,,,,,,,,,,,,,,,,,,,,,,,,,,,,,,
,,611ed2c05be8517aa0d6076b,2024-02-19_02h14.40.606,kallum_motion_pilot,2023.2.2,Win32,59.88023952,611ed2c05be8517aa0d6076b,65d2b6c8f2eece985d8e374c,65d2b983021102d09219337b,0.0216,0.0216,0,31,31,14,1,fourtwo,,,,,,,,,,,,,,,,,,,,,,,,,,,,,,,,,,,,,,,,,,,,,,,,,,,,,,,,,,,,,,,,,,,,,,,,,,,,,,,,,,,,,,,,,,,,,,,,,,,,,,,,,,,,,,,,,,,,,,,,,,,,,,,,,,,,,,,,,
,,611ed2c05be8517aa0d6076b,2024-02-19_02h14.40.606,kallum_motion_pilot,2023.2.2,Win32,59.88023952,611ed2c05be8517aa0d6076b,65d2b6c8f2eece985d8e374c,65d2b983021102d09219337b,0.0216,0.0216,0,32,32,75,1,twofour,,,,,,,,,,,,,,,,,,,,,,,,,,,,,,,,,,,,,,,,,,,,,,,,,,,,,,,,,,,,,,,,,,,,,,,,,,,,,,,,,,,,,,,,,,,,,,,,,,,,,,,,,,,,,,,,,,,,,,,,,,,,,,,,,,,,,,,,,
,,611ed2c05be8517aa0d6076b,2024-02-19_02h14.40.606,kallum_motion_pilot,2023.2.2,Win32,59.88023952,611ed2c05be8517aa0d6076b,65d2b6c8f2eece985d8e374c,65d2b983021102d09219337b,0.0216,0.0217,0,33,33,17,1,onethree,,,,,,,,,,,,,,,,,,,,,,,,,,,,,,,,,,,,,,,,,,,,,,,,,,,,,,,,,,,,,,,,,,,,,,,,,,,,,,,,,,,,,,,,,,,,,,,,,,,,,,,,,,,,,,,,,,,,,,,,,,,,,,,,,,,,,,,,,
,,611ed2c05be8517aa0d6076b,2024-02-19_02h14.40.606,kallum_motion_pilot,2023.2.2,Win32,59.88023952,611ed2c05be8517aa0d6076b,65d2b6c8f2eece985d8e374c,65d2b983021102d09219337b,0.0218,0.0218,0,34,34,101,1,seveneight,,,,,,,,,,,,,,,,,,,,,,,,,,,,,,,,,,,,,,,,,,,,,,,,,,,,,,,,,,,,,,,,,,,,,,,,,,,,,,,,,,,,,,,,,,,,,,,,,,,,,,,,,,,,,,,,,,,,,,,,,,,,,,,,,,,,,,,,,
,,611ed2c05be8517aa0d6076b,2024-02-19_02h14.40.606,kallum_motion_pilot,2023.2.2,Win32,59.88023952,611ed2c05be8517aa0d6076b,65d2b6c8f2eece985d8e374c,65d2b983021102d09219337b,0.022,0.022,0,35,35,87,1,eightseven,,,,,,,,,,,,,,,,,,,,,,,,,,,,,,,,,,,,,,,,,,,,,,,,,,,,,,,,,,,,,,,,,,,,,,,,,,,,,,,,,,,,,,,,,,,,,,,,,,,,,,,,,,,,,,,,,,,,,,,,,,,,,,,,,,,,,,,,,
,,611ed2c05be8517aa0d6076b,2024-02-19_02h14.40.606,kallum_motion_pilot,2023.2.2,Win32,59.88023952,611ed2c05be8517aa0d6076b,65d2b6c8f2eece985d8e374c,65d2b983021102d09219337b,0.0221,0.0221,0,36,36,56,1,onetwo,,,,,,,,,,,,,,,,,,,,,,,,,,,,,,,,,,,,,,,,,,,,,,,,,,,,,,,,,,,,,,,,,,,,,,,,,,,,,,,,,,,,,,,,,,,,,,,,,,,,,,,,,,,,,,,,,,,,,,,,,,,,,,,,,,,,,,,,,
,,611ed2c05be8517aa0d6076b,2024-02-19_02h14.40.606,kallum_motion_pilot,2023.2.2,Win32,59.88023952,611ed2c05be8517aa0d6076b,65d2b6c8f2eece985d8e374c,65d2b983021102d09219337b,0.0222,0.0222,0,37,37,81,1,fiveseven,,,,,,,,,,,,,,,,,,,,,,,,,,,,,,,,,,,,,,,,,,,,,,,,,,,,,,,,,,,,,,,,,,,,,,,,,,,,,,,,,,,,,,,,,,,,,,,,,,,,,,,,,,,,,,,,,,,,,,,,,,,,,,,,,,,,,,,,,
,,611ed2c05be8517aa0d6076b,2024-02-19_02h14.40.606,kallum_motion_pilot,2023.2.2,Win32,59.88023952,611ed2c05be8517aa0d6076b,65d2b6c8f2eece985d8e374c,65d2b983021102d09219337b,0.0222,0.0222,0,38,38,4,1,threeone,,,,,,,,,,,,,,,,,,,,,,,,,,,,,,,,,,,,,,,,,,,,,,,,,,,,,,,,,,,,,,,,,,,,,,,,,,,,,,,,,,,,,,,,,,,,,,,,,,,,,,,,,,,,,,,,,,,,,,,,,,,,,,,,,,,,,,,,,
,,611ed2c05be8517aa0d6076b,2024-02-19_02h14.40.606,kallum_motion_pilot,2023.2.2,Win32,59.88023952,611ed2c05be8517aa0d6076b,65d2b6c8f2eece985d8e374c,65d2b983021102d09219337b,0.0223,0.0223,0,39,39,156,1,sevenfive,,,,,,,,,,,,,,,,,,,,,,,,,,,,,,,,,,,,,,,,,,,,,,,,,,,,,,,,,,,,,,,,,,,,,,,,,,,,,,,,,,,,,,,,,,,,,,,,,,,,,,,,,,,,,,,,,,,,,,,,,,,,,,,,,,,,,,,,,
,,611ed2c05be8517aa0d6076b,2024-02-19_02h14.40.606,kallum_motion_pilot,2023.2.2,Win32,59.88023952,611ed2c05be8517aa0d6076b,65d2b6c8f2eece985d8e374c,65d2b983021102d09219337b,0.0224,0.0224,0,40,40,71,1,fourthree,,,,,,,,,,,,,,,,,,,,,,,,,,,,,,,,,,,,,,,,,,,,,,,,,,,,,,,,,,,,,,,,,,,,,,,,,,,,,,,,,,,,,,,,,,,,,,,,,,,,,,,,,,,,,,,,,,,,,,,,,,,,,,,,,,,,,,,,,
,,611ed2c05be8517aa0d6076b,2024-02-19_02h14.40.606,kallum_motion_pilot,2023.2.2,Win32,59.88023952,611ed2c05be8517aa0d6076b,65d2b6c8f2eece985d8e374c,65d2b983021102d09219337b,0.0225,0.0225,0,41,41,120,1,fivesix,,,,,,,,,,,,,,,,,,,,,,,,,,,,,,,,,,,,,,,,,,,,,,,,,,,,,,,,,,,,,,,,,,,,,,,,,,,,,,,,,,,,,,,,,,,,,,,,,,,,,,,,,,,,,,,,,,,,,,,,,,,,,,,,,,,,,,,,,
,,611ed2c05be8517aa0d6076b,2024-02-19_02h14.40.606,kallum_motion_pilot,2023.2.2,Win32,59.88023952,611ed2c05be8517aa0d6076b,65d2b6c8f2eece985d8e374c,65d2b983021102d09219337b,0.0226,0.0226,0,42,42,157,1,seveneight,,,,,,,,,,,,,,,,,,,,,,,,,,,,,,,,,,,,,,,,,,,,,,,,,,,,,,,,,,,,,,,,,,,,,,,,,,,,,,,,,,,,,,,,,,,,,,,,,,,,,,,,,,,,,,,,,,,,,,,,,,,,,,,,,,,,,,,,,
,,611ed2c05be8517aa0d6076b,2024-02-19_02h14.40.606,kallum_motion_pilot,2023.2.2,Win32,59.88023952,611ed2c05be8517aa0d6076b,65d2b6c8f2eece985d8e374c,65d2b983021102d09219337b,0.0226,0.0226,0,43,43,116,1,sevenfive,,,,,,,,,,,,,,,,,,,,,,,,,,,,,,,,,,,,,,,,,,,,,,,,,,,,,,,,,,,,,,,,,,,,,,,,,,,,,,,,,,,,,,,,,,,,,,,,,,,,,,,,,,,,,,,,,,,,,,,,,,,,,,,,,,,,,,,,,
,,611ed2c05be8517aa0d6076b,2024-02-19_02h14.40.606,kallum_motion_pilot,2023.2.2,Win32,59.88023952,611ed2c05be8517aa0d6076b,65d2b6c8f2eece985d8e374c,65d2b983021102d09219337b,0.0228,0.0228,0,44,44,154,1,sixfive,,,,,,,,,,,,,,,,,,,,,,,,,,,,,,,,,,,,,,,,,,,,,,,,,,,,,,,,,,,,,,,,,,,,,,,,,,,,,,,,,,,,,,,,,,,,,,,,,,,,,,,,,,,,,,,,,,,,,,,,,,,,,,,,,,,,,,,,,
,,611ed2c05be8517aa0d6076b,2024-02-19_02h14.40.606,kallum_motion_pilot,2023.2.2,Win32,59.88023952,611ed2c05be8517aa0d6076b,65d2b6c8f2eece985d8e374c,65d2b983021102d09219337b,0.0228,0.0228,0,45,45,15,1,fourthree,,,,,,,,,,,,,,,,,,,,,,,,,,,,,,,,,,,,,,,,,,,,,,,,,,,,,,,,,,,,,,,,,,,,,,,,,,,,,,,,,,,,,,,,,,,,,,,,,,,,,,,,,,,,,,,,,,,,,,,,,,,,,,,,,,,,,,,,,
,,611ed2c05be8517aa0d6076b,2024-02-19_02h14.40.606,kallum_motion_pilot,2023.2.2,Win32,59.88023952,611ed2c05be8517aa0d6076b,65d2b6c8f2eece985d8e374c,65d2b983021102d09219337b,0.0229,0.0229,0,46,46,72,1,onetwo,,,,,,,,,,,,,,,,,,,,,,,,,,,,,,,,,,,,,,,,,,,,,,,,,,,,,,,,,,,,,,,,,,,,,,,,,,,,,,,,,,,,,,,,,,,,,,,,,,,,,,,,,,,,,,,,,,,,,,,,,,,,,,,,,,,,,,,,,
,,611ed2c05be8517aa0d6076b,2024-02-19_02h14.40.606,kallum_motion_pilot,2023.2.2,Win32,59.88023952,611ed2c05be8517aa0d6076b,65d2b6c8f2eece985d8e374c,65d2b983021102d09219337b,0.023,0.023,0,47,47,147,1,sixeight,,,,,,,,,,,,,,,,,,,,,,,,,,,,,,,,,,,,,,,,,,,,,,,,,,,,,,,,,,,,,,,,,,,,,,,,,,,,,,,,,,,,,,,,,,,,,,,,,,,,,,,,,,,,,,,,,,,,,,,,,,,,,,,,,,,,,,,,,
,,611ed2c05be8517aa0d6076b,2024-02-19_02h14.40.606,kallum_motion_pilot,2023.2.2,Win32,59.88023952,611ed2c05be8517aa0d6076b,65d2b6c8f2eece985d8e374c,65d2b983021102d09219337b,0.0231,0.0231,0,48,48,107,1,sixeight,,,,,,,,,,,,,,,,,,,,,,,,,,,,,,,,,,,,,,,,,,,,,,,,,,,,,,,,,,,,,,,,,,,,,,,,,,,,,,,,,,,,,,,,,,,,,,,,,,,,,,,,,,,,,,,,,,,,,,,,,,,,,,,,,,,,,,,,,
,,611ed2c05be8517aa0d6076b,2024-02-19_02h14.40.606,kallum_motion_pilot,2023.2.2,Win32,59.88023952,611ed2c05be8517aa0d6076b,65d2b6c8f2eece985d8e374c,65d2b983021102d09219337b,0.0232,0.0232,0,49,49,143,1,eightseven,,,,,,,,,,,,,,,,,,,,,,,,,,,,,,,,,,,,,,,,,,,,,,,,,,,,,,,,,,,,,,,,,,,,,,,,,,,,,,,,,,,,,,,,,,,,,,,,,,,,,,,,,,,,,,,,,,,,,,,,,,,,,,,,,,,,,,,,,
,,611ed2c05be8517aa0d6076b,2024-02-19_02h14.40.606,kallum_motion_pilot,2023.2.2,Win32,59.88023952,611ed2c05be8517aa0d6076b,65d2b6c8f2eece985d8e374c,65d2b983021102d09219337b,0.0232,0.0232,0,50,50,5,1,threefour,,,,,,,,,,,,,,,,,,,,,,,,,,,,,,,,,,,,,,,,,,,,,,,,,,,,,,,,,,,,,,,,,,,,,,,,,,,,,,,,,,,,,,,,,,,,,,,,,,,,,,,,,,,,,,,,,,,,,,,,,,,,,,,,,,,,,,,,,
,,611ed2c05be8517aa0d6076b,2024-02-19_02h14.40.606,kallum_motion_pilot,2023.2.2,Win32,59.88023952,611ed2c05be8517aa0d6076b,65d2b6c8f2eece985d8e374c,65d2b983021102d09219337b,0.0233,0.0233,0,51,51,41,1,onethree,,,,,,,,,,,,,,,,,,,,,,,,,,,,,,,,,,,,,,,,,,,,,,,,,,,,,,,,,,,,,,,,,,,,,,,,,,,,,,,,,,,,,,,,,,,,,,,,,,,,,,,,,,,,,,,,,,,,,,,,,,,,,,,,,,,,,,,,,
,,611ed2c05be8517aa0d6076b,2024-02-19_02h14.40.606,kallum_motion_pilot,2023.2.2,Win32,59.88023952,611ed2c05be8517aa0d6076b,65d2b6c8f2eece985d8e374c,65d2b983021102d09219337b,0.0234,0.0234,0,52,52,8,1,onetwo,,,,,,,,,,,,,,,,,,,,,,,,,,,,,,,,,,,,,,,,,,,,,,,,,,,,,,,,,,,,,,,,,,,,,,,,,,,,,,,,,,,,,,,,,,,,,,,,,,,,,,,,,,,,,,,,,,,,,,,,,,,,,,,,,,,,,,,,,
,,611ed2c05be8517aa0d6076b,2024-02-19_02h14.40.606,kallum_motion_pilot,2023.2.2,Win32,59.88023952,611ed2c05be8517aa0d6076b,65d2b6c8f2eece985d8e374c,65d2b983021102d09219337b,0.0235,0.0235,0,53,53,109,1,seveneight,,,,,,,,,,,,,,,,,,,,,,,,,,,,,,,,,,,,,,,,,,,,,,,,,,,,,,,,,,,,,,,,,,,,,,,,,,,,,,,,,,,,,,,,,,,,,,,,,,,,,,,,,,,,,,,,,,,,,,,,,,,,,,,,,,,,,,,,,
,,611ed2c05be8517aa0d6076b,2024-02-19_02h14.40.606,kallum_motion_pilot,2023.2.2,Win32,59.88023952,611ed2c05be8517aa0d6076b,65d2b6c8f2eece985d8e374c,65d2b983021102d09219337b,0.0235,0.0236,0,54,54,115,1,sixeight,,,,,,,,,,,,,,,,,,,,,,,,,,,,,,,,,,,,,,,,,,,,,,,,,,,,,,,,,,,,,,,,,,,,,,,,,,,,,,,,,,,,,,,,,,,,,,,,,,,,,,,,,,,,,,,,,,,,,,,,,,,,,,,,,,,,,,,,,
,,611ed2c05be8517aa0d6076b,2024-02-19_02h14.40.606,kallum_motion_pilot,2023.2.2,Win32,59.88023952,611ed2c05be8517aa0d6076b,65d2b6c8f2eece985d8e374c,65d2b983021102d09219337b,0.0237,0.0237,0,55,55,140,1,sevenfive,,,,,,,,,,,,,,,,,,,,,,,,,,,,,,,,,,,,,,,,,,,,,,,,,,,,,,,,,,,,,,,,,,,,,,,,,,,,,,,,,,,,,,,,,,,,,,,,,,,,,,,,,,,,,,,,,,,,,,,,,,,,,,,,,,,,,,,,,
,,611ed2c05be8517aa0d6076b,2024-02-19_02h14.40.606,kallum_motion_pilot,2023.2.2,Win32,59.88023952,611ed2c05be8517aa0d6076b,65d2b6c8f2eece985d8e374c,65d2b983021102d09219337b,0.0238,0.0238,0,56,56,40,1,onetwo,,,,,,,,,,,,,,,,,,,,,,,,,,,,,,,,,,,,,,,,,,,,,,,,,,,,,,,,,,,,,,,,,,,,,,,,,,,,,,,,,,,,,,,,,,,,,,,,,,,,,,,,,,,,,,,,,,,,,,,,,,,,,,,,,,,,,,,,,
,,611ed2c05be8517aa0d6076b,2024-02-19_02h14.40.606,kallum_motion_pilot,2023.2.2,Win32,59.88023952,611ed2c05be8517aa0d6076b,65d2b6c8f2eece985d8e374c,65d2b983021102d09219337b,0.0238,0.0238,0,57,57,128,1,fivesix,,,,,,,,,,,,,,,,,,,,,,,,,,,,,,,,,,,,,,,,,,,,,,,,,,,,,,,,,,,,,,,,,,,,,,,,,,,,,,,,,,,,,,,,,,,,,,,,,,,,,,,,,,,,,,,,,,,,,,,,,,,,,,,,,,,,,,,,,
,,611ed2c05be8517aa0d6076b,2024-02-19_02h14.40.606,kallum_motion_pilot,2023.2.2,Win32,59.88023952,611ed2c05be8517aa0d6076b,65d2b6c8f2eece985d8e374c,65d2b983021102d09219337b,0.0239,0.024,0,58,58,30,1,fourtwo,,,,,,,,,,,,,,,,,,,,,,,,,,,,,,,,,,,,,,,,,,,,,,,,,,,,,,,,,,,,,,,,,,,,,,,,,,,,,,,,,,,,,,,,,,,,,,,,,,,,,,,,,,,,,,,,,,,,,,,,,,,,,,,,,,,,,,,,,
,,611ed2c05be8517aa0d6076b,2024-02-19_02h14.40.606,kallum_motion_pilot,2023.2.2,Win32,59.88023952,611ed2c05be8517aa0d6076b,65d2b6c8f2eece985d8e374c,65d2b983021102d09219337b,0.024,0.024,0,59,59,13,1,threefour,,,,,,,,,,,,,,,,,,,,,,,,,,,,,,,,,,,,,,,,,,,,,,,,,,,,,,,,,,,,,,,,,,,,,,,,,,,,,,,,,,,,,,,,,,,,,,,,,,,,,,,,,,,,,,,,,,,,,,,,,,,,,,,,,,,,,,,,,
,,611ed2c05be8517aa0d6076b,2024-02-19_02h14.40.606,kallum_motion_pilot,2023.2.2,Win32,59.88023952,611ed2c05be8517aa0d6076b,65d2b6c8f2eece985d8e374c,65d2b983021102d09219337b,0.0241,0.0241,0,60,60,60,1,threeone,,,,,,,,,,,,,,,,,,,,,,,,,,,,,,,,,,,,,,,,,,,,,,,,,,,,,,,,,,,,,,,,,,,,,,,,,,,,,,,,,,,,,,,,,,,,,,,,,,,,,,,,,,,,,,,,,,,,,,,,,,,,,,,,,,,,,,,,,
,,611ed2c05be8517aa0d6076b,2024-02-19_02h14.40.606,kallum_motion_pilot,2023.2.2,Win32,59.88023952,611ed2c05be8517aa0d6076b,65d2b6c8f2eece985d8e374c,65d2b983021102d09219337b,0.0242,0.0242,0,61,61,82,1,sixfive,,,,,,,,,,,,,,,,,,,,,,,,,,,,,,,,,,,,,,,,,,,,,,,,,,,,,,,,,,,,,,,,,,,,,,,,,,,,,,,,,,,,,,,,,,,,,,,,,,,,,,,,,,,,,,,,,,,,,,,,,,,,,,,,,,,,,,,,,
,,611ed2c05be8517aa0d6076b,2024-02-19_02h14.40.606,kallum_motion_pilot,2023.2.2,Win32,59.88023952,611ed2c05be8517aa0d6076b,65d2b6c8f2eece985d8e374c,65d2b983021102d09219337b,0.0243,0.0243,0,62,62,7,1,fourthree,,,,,,,,,,,,,,,,,,,,,,,,,,,,,,,,,,,,,,,,,,,,,,,,,,,,,,,,,,,,,,,,,,,,,,,,,,,,,,,,,,,,,,,,,,,,,,,,,,,,,,,,,,,,,,,,,,,,,,,,,,,,,,,,,,,,,,,,,
,,611ed2c05be8517aa0d6076b,2024-02-19_02h14.40.606,kallum_motion_pilot,2023.2.2,Win32,59.88023952,611ed2c05be8517aa0d6076b,65d2b6c8f2eece985d8e374c,65d2b983021102d09219337b,0.0244,0.0245,0,63,63,85,1,seveneight,,,,,,,,,,,,,,,,,,,,,,,,,,,,,,,,,,,,,,,,,,,,,,,,,,,,,,,,,,,,,,,,,,,,,,,,,,,,,,,,,,,,,,,,,,,,,,,,,,,,,,,,,,,,,,,,,,,,,,,,,,,,,,,,,,,,,,,,,
,,611ed2c05be8517aa0d6076b,2024-02-19_02h14.40.606,kallum_motion_pilot,2023.2.2,Win32,59.88023952,611ed2c05be8517aa0d6076b,65d2b6c8f2eece985d8e374c,65d2b983021102d09219337b,0.0245,0.0247,0,64,64,29,1,threefour,,,,,,,,,,,,,,,,,,,,,,,,,,,,,,,,,,,,,,,,,,,,,,,,,,,,,,,,,,,,,,,,,,,,,,,,,,,,,,,,,,,,,,,,,,,,,,,,,,,,,,,,,,,,,,,,,,,,,,,,,,,,,,,,,,,,,,,,,
,,611ed2c05be8517aa0d6076b,2024-02-19_02h14.40.606,kallum_motion_pilot,2023.2.2,Win32,59.88023952,611ed2c05be8517aa0d6076b,65d2b6c8f2eece985d8e374c,65d2b983021102d09219337b,0.0247,0.0247,0,65,65,58,1,twoone,,,,,,,,,,,,,,,,,,,,,,,,,,,,,,,,,,,,,,,,,,,,,,,,,,,,,,,,,,,,,,,,,,,,,,,,,,,,,,,,,,,,,,,,,,,,,,,,,,,,,,,,,,,,,,,,,,,,,,,,,,,,,,,,,,,,,,,,,
,,611ed2c05be8517aa0d6076b,2024-02-19_02h14.40.606,kallum_motion_pilot,2023.2.2,Win32,59.88023952,611ed2c05be8517aa0d6076b,65d2b6c8f2eece985d8e374c,65d2b983021102d09219337b,0.0248,0.0249,0,66,66,38,1,fourtwo,,,,,,,,,,,,,,,,,,,,,,,,,,,,,,,,,,,,,,,,,,,,,,,,,,,,,,,,,,,,,,,,,,,,,,,,,,,,,,,,,,,,,,,,,,,,,,,,,,,,,,,,,,,,,,,,,,,,,,,,,,,,,,,,,,,,,,,,,
,,611ed2c05be8517aa0d6076b,2024-02-19_02h14.40.606,kallum_motion_pilot,2023.2.2,Win32,59.88023952,611ed2c05be8517aa0d6076b,65d2b6c8f2eece985d8e374c,65d2b983021102d09219337b,0.025,0.0251,0,67,67,91,1,sixeight,,,,,,,,,,,,,,,,,,,,,,,,,,,,,,,,,,,,,,,,,,,,,,,,,,,,,,,,,,,,,,,,,,,,,,,,,,,,,,,,,,,,,,,,,,,,,,,,,,,,,,,,,,,,,,,,,,,,,,,,,,,,,,,,,,,,,,,,,
,,611ed2c05be8517aa0d6076b,2024-02-19_02h14.40.606,kallum_motion_pilot,2023.2.2,Win32,59.88023952,611ed2c05be8517aa0d6076b,65d2b6c8f2eece985d8e374c,65d2b983021102d09219337b,0.0252,0.0253,0,68,68,10,1,twoone,,,,,,,,,,,,,,,,,,,,,,,,,,,,,,,,,,,,,,,,,,,,,,,,,,,,,,,,,,,,,,,,,,,,,,,,,,,,,,,,,,,,,,,,,,,,,,,,,,,,,,,,,,,,,,,,,,,,,,,,,,,,,,,,,,,,,,,,,
,,611ed2c05be8517aa0d6076b,2024-02-19_02h14.40.606,kallum_motion_pilot,2023.2.2,Win32,59.88023952,611ed2c05be8517aa0d6076b,65d2b6c8f2eece985d8e374c,65d2b983021102d09219337b,0.0253,0.0253,0,69,69,137,1,fiveseven,,,,,,,,,,,,,,,,,,,,,,,,,,,,,,,,,,,,,,,,,,,,,,,,,,,,,,,,,,,,,,,,,,,,,,,,,,,,,,,,,,,,,,,,,,,,,,,,,,,,,,,,,,,,,,,,,,,,,,,,,,,,,,,,,,,,,,,,,
,,611ed2c05be8517aa0d6076b,2024-02-19_02h14.40.606,kallum_motion_pilot,2023.2.2,Win32,59.88023952,611ed2c05be8517aa0d6076b,65d2b6c8f2eece985d8e374c,65d2b983021102d09219337b,0.0254,0.0256,0,70,70,152,1,fivesix,,,,,,,,,,,,,,,,,,,,,,,,,,,,,,,,,,,,,,,,,,,,,,,,,,,,,,,,,,,,,,,,,,,,,,,,,,,,,,,,,,,,,,,,,,,,,,,,,,,,,,,,,,,,,,,,,,,,,,,,,,,,,,,,,,,,,,,,,
,,611ed2c05be8517aa0d6076b,2024-02-19_02h14.40.606,kallum_motion_pilot,2023.2.2,Win32,59.88023952,611ed2c05be8517aa0d6076b,65d2b6c8f2eece985d8e374c,65d2b983021102d09219337b,0.0256,0.0256,0,71,71,47,1,fourthree,,,,,,,,,,,,,,,,,,,,,,,,,,,,,,,,,,,,,,,,,,,,,,,,,,,,,,,,,,,,,,,,,,,,,,,,,,,,,,,,,,,,,,,,,,,,,,,,,,,,,,,,,,,,,,,,,,,,,,,,,,,,,,,,,,,,,,,,,
,,611ed2c05be8517aa0d6076b,2024-02-19_02h14.40.606,kallum_motion_pilot,2023.2.2,Win32,59.88023952,611ed2c05be8517aa0d6076b,65d2b6c8f2eece985d8e374c,65d2b983021102d09219337b,0.0257,0.0258,0,72,72,122,1,sixfive,,,,,,,,,,,,,,,,,,,,,,,,,,,,,,,,,,,,,,,,,,,,,,,,,,,,,,,,,,,,,,,,,,,,,,,,,,,,,,,,,,,,,,,,,,,,,,,,,,,,,,,,,,,,,,,,,,,,,,,,,,,,,,,,,,,,,,,,,
,,611ed2c05be8517aa0d6076b,2024-02-19_02h14.40.606,kallum_motion_pilot,2023.2.2,Win32,59.88023952,611ed2c05be8517aa0d6076b,65d2b6c8f2eece985d8e374c,65d2b983021102d09219337b,0.0258,0.0258,0,73,73,59,1,twofour,,,,,,,,,,,,,,,,,,,,,,,,,,,,,,,,,,,,,,,,,,,,,,,,,,,,,,,,,,,,,,,,,,,,,,,,,,,,,,,,,,,,,,,,,,,,,,,,,,,,,,,,,,,,,,,,,,,,,,,,,,,,,,,,,,,,,,,,,
,,611ed2c05be8517aa0d6076b,2024-02-19_02h14.40.606,kallum_motion_pilot,2023.2.2,Win32,59.88023952,611ed2c05be8517aa0d6076b,65d2b6c8f2eece985d8e374c,65d2b983021102d09219337b,0.0259,0.0259,0,74,74,141,1,seveneight,,,,,,,,,,,,,,,,,,,,,,,,,,,,,,,,,,,,,,,,,,,,,,,,,,,,,,,,,,,,,,,,,,,,,,,,,,,,,,,,,,,,,,,,,,,,,,,,,,,,,,,,,,,,,,,,,,,,,,,,,,,,,,,,,,,,,,,,,
,,611ed2c05be8517aa0d6076b,2024-02-19_02h14.40.606,kallum_motion_pilot,2023.2.2,Win32,59.88023952,611ed2c05be8517aa0d6076b,65d2b6c8f2eece985d8e374c,65d2b983021102d09219337b,0.026,0.026,0,75,75,79,1,eightseven,,,,,,,,,,,,,,,,,,,,,,,,,,,,,,,,,,,,,,,,,,,,,,,,,,,,,,,,,,,,,,,,,,,,,,,,,,,,,,,,,,,,,,,,,,,,,,,,,,,,,,,,,,,,,,,,,,,,,,,,,,,,,,,,,,,,,,,,,
,,611ed2c05be8517aa0d6076b,2024-02-19_02h14.40.606,kallum_motion_pilot,2023.2.2,Win32,59.88023952,611ed2c05be8517aa0d6076b,65d2b6c8f2eece985d8e374c,65d2b983021102d09219337b,0.0262,0.0262,0,76,76,49,1,onethree,,,,,,,,,,,,,,,,,,,,,,,,,,,,,,,,,,,,,,,,,,,,,,,,,,,,,,,,,,,,,,,,,,,,,,,,,,,,,,,,,,,,,,,,,,,,,,,,,,,,,,,,,,,,,,,,,,,,,,,,,,,,,,,,,,,,,,,,,
,,611ed2c05be8517aa0d6076b,2024-02-19_02h14.40.606,kallum_motion_pilot,2023.2.2,Win32,59.88023952,611ed2c05be8517aa0d6076b,65d2b6c8f2eece985d8e374c,65d2b983021102d09219337b,0.0262,0.0263,0,77,77,127,1,eightseven,,,,,,,,,,,,,,,,,,,,,,,,,,,,,,,,,,,,,,,,,,,,,,,,,,,,,,,,,,,,,,,,,,,,,,,,,,,,,,,,,,,,,,,,,,,,,,,,,,,,,,,,,,,,,,,,,,,,,,,,,,,,,,,,,,,,,,,,,
,,611ed2c05be8517aa0d6076b,2024-02-19_02h14.40.606,kallum_motion_pilot,2023.2.2,Win32,59.88023952,611ed2c05be8517aa0d6076b,65d2b6c8f2eece985d8e374c,65d2b983021102d09219337b,0.0263,0.0264,0,78,78,89,1,fiveseven,,,,,,,,,,,,,,,,,,,,,,,,,,,,,,,,,,,,,,,,,,,,,,,,,,,,,,,,,,,,,,,,,,,,,,,,,,,,,,,,,,,,,,,,,,,,,,,,,,,,,,,,,,,,,,,,,,,,,,,,,,,,,,,,,,,,,,,,,
,,611ed2c05be8517aa0d6076b,2024-02-19_02h14.40.606,kallum_motion_pilot,2023.2.2,Win32,59.88023952,611ed2c05be8517aa0d6076b,65d2b6c8f2eece985d8e374c,65d2b983021102d09219337b,0.0264,0.0264,0,79,79,86,1,eightsix,,,,,,,,,,,,,,,,,,,,,,,,,,,,,,,,,,,,,,,,,,,,,,,,,,,,,,,,,,,,,,,,,,,,,,,,,,,,,,,,,,,,,,,,,,,,,,,,,,,,,,,,,,,,,,,,,,,,,,,,,,,,,,,,,,,,,,,,,
,,611ed2c05be8517aa0d6076b,2024-02-19_02h14.40.606,kallum_motion_pilot,2023.2.2,Win32,59.88023952,611ed2c05be8517aa0d6076b,65d2b6c8f2eece985d8e374c,65d2b983021102d09219337b,0.0264,0.0265,0,80,80,132,1,sevenfive,,,,,,,,,,,,,,,,,,,,,,,,,,,,,,,,,,,,,,,,,,,,,,,,,,,,,,,,,,,,,,,,,,,,,,,,,,,,,,,,,,,,,,,,,,,,,,,,,,,,,,,,,,,,,,,,,,,,,,,,,,,,,,,,,,,,,,,,,
,,611ed2c05be8517aa0d6076b,2024-02-19_02h14.40.606,kallum_motion_pilot,2023.2.2,Win32,59.88023952,611ed2c05be8517aa0d6076b,65d2b6c8f2eece985d8e374c,65d2b983021102d09219337b,0.0266,0.0266,0,81,81,57,1,onethree,,,,,,,,,,,,,,,,,,,,,,,,,,,,,,,,,,,,,,,,,,,,,,,,,,,,,,,,,,,,,,,,,,,,,,,,,,,,,,,,,,,,,,,,,,,,,,,,,,,,,,,,,,,,,,,,,,,,,,,,,,,,,,,,,,,,,,,,,
,,611ed2c05be8517aa0d6076b,2024-02-19_02h14.40.606,kallum_motion_pilot,2023.2.2,Win32,59.88023952,611ed2c05be8517aa0d6076b,65d2b6c8f2eece985d8e374c,65d2b983021102d09219337b,0.0267,0.0267,0,82,82,149,1,seveneight,,,,,,,,,,,,,,,,,,,,,,,,,,,,,,,,,,,,,,,,,,,,,,,,,,,,,,,,,,,,,,,,,,,,,,,,,,,,,,,,,,,,,,,,,,,,,,,,,,,,,,,,,,,,,,,,,,,,,,,,,,,,,,,,,,,,,,,,,
,,611ed2c05be8517aa0d6076b,2024-02-19_02h14.40.606,kallum_motion_pilot,2023.2.2,Win32,59.88023952,611ed2c05be8517aa0d6076b,65d2b6c8f2eece985d8e374c,65d2b983021102d09219337b,0.0268,0.0268,0,83,83,113,1,fiveseven,,,,,,,,,,,,,,,,,,,,,,,,,,,,,,,,,,,,,,,,,,,,,,,,,,,,,,,,,,,,,,,,,,,,,,,,,,,,,,,,,,,,,,,,,,,,,,,,,,,,,,,,,,,,,,,,,,,,,,,,,,,,,,,,,,,,,,,,,
,,611ed2c05be8517aa0d6076b,2024-02-19_02h14.40.606,kallum_motion_pilot,2023.2.2,Win32,59.88023952,611ed2c05be8517aa0d6076b,65d2b6c8f2eece985d8e374c,65d2b983021102d09219337b,0.0269,0.0269,0,84,84,124,1,sevenfive,,,,,,,,,,,,,,,,,,,,,,,,,,,,,,,,,,,,,,,,,,,,,,,,,,,,,,,,,,,,,,,,,,,,,,,,,,,,,,,,,,,,,,,,,,,,,,,,,,,,,,,,,,,,,,,,,,,,,,,,,,,,,,,,,,,,,,,,,
,,611ed2c05be8517aa0d6076b,2024-02-19_02h14.40.606,kallum_motion_pilot,2023.2.2,Win32,59.88023952,611ed2c05be8517aa0d6076b,65d2b6c8f2eece985d8e374c,65d2b983021102d09219337b,0.027,0.0271,0,85,85,35,1,twofour,,,,,,,,,,,,,,,,,,,,,,,,,,,,,,,,,,,,,,,,,,,,,,,,,,,,,,,,,,,,,,,,,,,,,,,,,,,,,,,,,,,,,,,,,,,,,,,,,,,,,,,,,,,,,,,,,,,,,,,,,,,,,,,,,,,,,,,,,
,,611ed2c05be8517aa0d6076b,2024-02-19_02h14.40.606,kallum_motion_pilot,2023.2.2,Win32,59.88023952,611ed2c05be8517aa0d6076b,65d2b6c8f2eece985d8e374c,65d2b983021102d09219337b,0.0271,0.0272,0,86,86,25,1,onethree,,,,,,,,,,,,,,,,,,,,,,,,,,,,,,,,,,,,,,,,,,,,,,,,,,,,,,,,,,,,,,,,,,,,,,,,,,,,,,,,,,,,,,,,,,,,,,,,,,,,,,,,,,,,,,,,,,,,,,,,,,,,,,,,,,,,,,,,,
,,611ed2c05be8517aa0d6076b,2024-02-19_02h14.40.606,kallum_motion_pilot,2023.2.2,Win32,59.88023952,611ed2c05be8517aa0d6076b,65d2b6c8f2eece985d8e374c,65d2b983021102d09219337b,0.0273,0.0273,0,87,87,150,1,eightsix,,,,,,,,,,,,,,,,,,,,,,,,,,,,,,,,,,,,,,,,,,,,,,,,,,,,,,,,,,,,,,,,,,,,,,,,,,,,,,,,,,,,,,,,,,,,,,,,,,,,,,,,,,,,,,,,,,,,,,,,,,,,,,,,,,,,,,,,,
,,611ed2c05be8517aa0d6076b,2024-02-19_02h14.40.606,kallum_motion_pilot,2023.2.2,Win32,59.88023952,611ed2c05be8517aa0d6076b,65d2b6c8f2eece985d8e374c,65d2b983021102d09219337b,0.0274,0.0274,0,88,88,50,1,twoone,,,,,,,,,,,,,,,,,,,,,,,,,,,,,,,,,,,,,,,,,,,,,,,,,,,,,,,,,,,,,,,,,,,,,,,,,,,,,,,,,,,,,,,,,,,,,,,,,,,,,,,,,,,,,,,,,,,,,,,,,,,,,,,,,,,,,,,,,
,,611ed2c05be8517aa0d6076b,2024-02-19_02h14.40.606,kallum_motion_pilot,2023.2.2,Win32,59.88023952,611ed2c05be8517aa0d6076b,65d2b6c8f2eece985d8e374c,65d2b983021102d09219337b,0.0275,0.0275,0,89,89,125,1,seveneight,,,,,,,,,,,,,,,,,,,,,,,,,,,,,,,,,,,,,,,,,,,,,,,,,,,,,,,,,,,,,,,,,,,,,,,,,,,,,,,,,,,,,,,,,,,,,,,,,,,,,,,,,,,,,,,,,,,,,,,,,,,,,,,,,,,,,,,,,
,,611ed2c05be8517aa0d6076b,2024-02-19_02h14.40.606,kallum_motion_pilot,2023.2.2,Win32,59.88023952,611ed2c05be8517aa0d6076b,65d2b6c8f2eece985d8e374c,65d2b983021102d09219337b,0.0276,0.0276,0,90,90,161,1,fiveseven,,,,,,,,,,,,,,,,,,,,,,,,,,,,,,,,,,,,,,,,,,,,,,,,,,,,,,,,,,,,,,,,,,,,,,,,,,,,,,,,,,,,,,,,,,,,,,,,,,,,,,,,,,,,,,,,,,,,,,,,,,,,,,,,,,,,,,,,,
,,611ed2c05be8517aa0d6076b,2024-02-19_02h14.40.606,kallum_motion_pilot,2023.2.2,Win32,59.88023952,611ed2c05be8517aa0d6076b,65d2b6c8f2eece985d8e374c,65d2b983021102d09219337b,0.0278,0.0278,0,91,91,110,1,eightsix,,,,,,,,,,,,,,,,,,,,,,,,,,,,,,,,,,,,,,,,,,,,,,,,,,,,,,,,,,,,,,,,,,,,,,,,,,,,,,,,,,,,,,,,,,,,,,,,,,,,,,,,,,,,,,,,,,,,,,,,,,,,,,,,,,,,,,,,,
,,611ed2c05be8517aa0d6076b,2024-02-19_02h14.40.606,kallum_motion_pilot,2023.2.2,Win32,59.88023952,611ed2c05be8517aa0d6076b,65d2b6c8f2eece985d8e374c,65d2b983021102d09219337b,0.0279,0.0279,0,92,92,54,1,fourtwo,,,,,,,,,,,,,,,,,,,,,,,,,,,,,,,,,,,,,,,,,,,,,,,,,,,,,,,,,,,,,,,,,,,,,,,,,,,,,,,,,,,,,,,,,,,,,,,,,,,,,,,,,,,,,,,,,,,,,,,,,,,,,,,,,,,,,,,,,
,,611ed2c05be8517aa0d6076b,2024-02-19_02h14.40.606,kallum_motion_pilot,2023.2.2,Win32,59.88023952,611ed2c05be8517aa0d6076b,65d2b6c8f2eece985d8e374c,65d2b983021102d09219337b,0.0279,0.028,0,93,93,118,1,eightsix,,,,,,,,,,,,,,,,,,,,,,,,,,,,,,,,,,,,,,,,,,,,,,,,,,,,,,,,,,,,,,,,,,,,,,,,,,,,,,,,,,,,,,,,,,,,,,,,,,,,,,,,,,,,,,,,,,,,,,,,,,,,,,,,,,,,,,,,,
,,611ed2c05be8517aa0d6076b,2024-02-19_02h14.40.606,kallum_motion_pilot,2023.2.2,Win32,59.88023952,611ed2c05be8517aa0d6076b,65d2b6c8f2eece985d8e374c,65d2b983021102d09219337b,0.0281,0.0281,0,94,94,16,1,onetwo,,,,,,,,,,,,,,,,,,,,,,,,,,,,,,,,,,,,,,,,,,,,,,,,,,,,,,,,,,,,,,,,,,,,,,,,,,,,,,,,,,,,,,,,,,,,,,,,,,,,,,,,,,,,,,,,,,,,,,,,,,,,,,,,,,,,,,,,,
,,611ed2c05be8517aa0d6076b,2024-02-19_02h14.40.606,kallum_motion_pilot,2023.2.2,Win32,59.88023952,611ed2c05be8517aa0d6076b,65d2b6c8f2eece985d8e374c,65d2b983021102d09219337b,0.0281,0.0281,0,95,95,93,1,seveneight,,,,,,,,,,,,,,,,,,,,,,,,,,,,,,,,,,,,,,,,,,,,,,,,,,,,,,,,,,,,,,,,,,,,,,,,,,,,,,,,,,,,,,,,,,,,,,,,,,,,,,,,,,,,,,,,,,,,,,,,,,,,,,,,,,,,,,,,,
,,611ed2c05be8517aa0d6076b,2024-02-19_02h14.40.606,kallum_motion_pilot,2023.2.2,Win32,59.88023952,611ed2c05be8517aa0d6076b,65d2b6c8f2eece985d8e374c,65d2b983021102d09219337b,0.0283,0.0283,0,96,96,2,1,twoone,,,,,,,,,,,,,,,,,,,,,,,,,,,,,,,,,,,,,,,,,,,,,,,,,,,,,,,,,,,,,,,,,,,,,,,,,,,,,,,,,,,,,,,,,,,,,,,,,,,,,,,,,,,,,,,,,,,,,,,,,,,,,,,,,,,,,,,,,
,,611ed2c05be8517aa0d6076b,2024-02-19_02h14.40.606,kallum_motion_pilot,2023.2.2,Win32,59.88023952,611ed2c05be8517aa0d6076b,65d2b6c8f2eece985d8e374c,65d2b983021102d09219337b,0.0284,0.0284,0,97,97,67,1,twofour,,,,,,,,,,,,,,,,,,,,,,,,,,,,,,,,,,,,,,,,,,,,,,,,,,,,,,,,,,,,,,,,,,,,,,,,,,,,,,,,,,,,,,,,,,,,,,,,,,,,,,,,,,,,,,,,,,,,,,,,,,,,,,,,,,,,,,,,,
,,611ed2c05be8517aa0d6076b,2024-02-19_02h14.40.606,kallum_motion_pilot,2023.2.2,Win32,59.88023952,611ed2c05be8517aa0d6076b,65d2b6c8f2eece985d8e374c,65d2b983021102d09219337b,0.0285,0.0285,0,98,98,103,1,eightseven,,,,,,,,,,,,,,,,,,,,,,,,,,,,,,,,,,,,,,,,,,,,,,,,,,,,,,,,,,,,,,,,,,,,,,,,,,,,,,,,,,,,,,,,,,,,,,,,,,,,,,,,,,,,,,,,,,,,,,,,,,,,,,,,,,,,,,,,,
,,611ed2c05be8517aa0d6076b,2024-02-19_02h14.40.606,kallum_motion_pilot,2023.2.2,Win32,59.88023952,611ed2c05be8517aa0d6076b,65d2b6c8f2eece985d8e374c,65d2b983021102d09219337b,0.0286,0.0286,0,99,99,119,1,eightseven,,,,,,,,,,,,,,,,,,,,,,,,,,,,,,,,,,,,,,,,,,,,,,,,,,,,,,,,,,,,,,,,,,,,,,,,,,,,,,,,,,,,,,,,,,,,,,,,,,,,,,,,,,,,,,,,,,,,,,,,,,,,,,,,,,,,,,,,,
,,611ed2c05be8517aa0d6076b,2024-02-19_02h14.40.606,kallum_motion_pilot,2023.2.2,Win32,59.88023952,611ed2c05be8517aa0d6076b,65d2b6c8f2eece985d8e374c,65d2b983021102d09219337b,0.0286,0.0287,0,100,100,146,1,sixfive,,,,,,,,,,,,,,,,,,,,,,,,,,,,,,,,,,,,,,,,,,,,,,,,,,,,,,,,,,,,,,,,,,,,,,,,,,,,,,,,,,,,,,,,,,,,,,,,,,,,,,,,,,,,,,,,,,,,,,,,,,,,,,,,,,,,,,,,,
,,611ed2c05be8517aa0d6076b,2024-02-19_02h14.40.606,kallum_motion_pilot,2023.2.2,Win32,59.88023952,611ed2c05be8517aa0d6076b,65d2b6c8f2eece985d8e374c,65d2b983021102d09219337b,0.0287,0.0287,0,101,101,114,1,sixfive,,,,,,,,,,,,,,,,,,,,,,,,,,,,,,,,,,,,,,,,,,,,,,,,,,,,,,,,,,,,,,,,,,,,,,,,,,,,,,,,,,,,,,,,,,,,,,,,,,,,,,,,,,,,,,,,,,,,,,,,,,,,,,,,,,,,,,,,,
,,611ed2c05be8517aa0d6076b,2024-02-19_02h14.40.606,kallum_motion_pilot,2023.2.2,Win32,59.88023952,611ed2c05be8517aa0d6076b,65d2b6c8f2eece985d8e374c,65d2b983021102d09219337b,0.0289,0.0289,0,102,102,90,1,sixfive,,,,,,,,,,,,,,,,,,,,,,,,,,,,,,,,,,,,,,,,,,,,,,,,,,,,,,,,,,,,,,,,,,,,,,,,,,,,,,,,,,,,,,,,,,,,,,,,,,,,,,,,,,,,,,,,,,,,,,,,,,,,,,,,,,,,,,,,,
,,611ed2c05be8517aa0d6076b,2024-02-19_02h14.40.606,kallum_motion_pilot,2023.2.2,Win32,59.88023952,611ed2c05be8517aa0d6076b,65d2b6c8f2eece985d8e374c,65d2b983021102d09219337b,0.0289,0.029,0,103,103,92,1,sevenfive,,,,,,,,,,,,,,,,,,,,,,,,,,,,,,,,,,,,,,,,,,,,,,,,,,,,,,,,,,,,,,,,,,,,,,,,,,,,,,,,,,,,,,,,,,,,,,,,,,,,,,,,,,,,,,,,,,,,,,,,,,,,,,,,,,,,,,,,,
,,611ed2c05be8517aa0d6076b,2024-02-19_02h14.40.606,kallum_motion_pilot,2023.2.2,Win32,59.88023952,611ed2c05be8517aa0d6076b,65d2b6c8f2eece985d8e374c,65d2b983021102d09219337b,0.0291,0.0291,0,104,104,27,1,twofour,,,,,,,,,,,,,,,,,,,,,,,,,,,,,,,,,,,,,,,,,,,,,,,,,,,,,,,,,,,,,,,,,,,,,,,,,,,,,,,,,,,,,,,,,,,,,,,,,,,,,,,,,,,,,,,,,,,,,,,,,,,,,,,,,,,,,,,,,
,,611ed2c05be8517aa0d6076b,2024-02-19_02h14.40.606,kallum_motion_pilot,2023.2.2,Win32,59.88023952,611ed2c05be8517aa0d6076b,65d2b6c8f2eece985d8e374c,65d2b983021102d09219337b,0.0291,0.0291,0,105,105,151,1,eightseven,,,,,,,,,,,,,,,,,,,,,,,,,,,,,,,,,,,,,,,,,,,,,,,,,,,,,,,,,,,,,,,,,,,,,,,,,,,,,,,,,,,,,,,,,,,,,,,,,,,,,,,,,,,,,,,,,,,,,,,,,,,,,,,,,,,,,,,,,
,,611ed2c05be8517aa0d6076b,2024-02-19_02h14.40.606,kallum_motion_pilot,2023.2.2,Win32,59.88023952,611ed2c05be8517aa0d6076b,65d2b6c8f2eece985d8e374c,65d2b983021102d09219337b,0.0293,0.0293,0,106,106,94,1,eightsix,,,,,,,,,,,,,,,,,,,,,,,,,,,,,,,,,,,,,,,,,,,,,,,,,,,,,,,,,,,,,,,,,,,,,,,,,,,,,,,,,,,,,,,,,,,,,,,,,,,,,,,,,,,,,,,,,,,,,,,,,,,,,,,,,,,,,,,,,
,,611ed2c05be8517aa0d6076b,2024-02-19_02h14.40.606,kallum_motion_pilot,2023.2.2,Win32,59.88023952,611ed2c05be8517aa0d6076b,65d2b6c8f2eece985d8e374c,65d2b983021102d09219337b,0.0294,0.0294,0,107,107,106,1,sixfive,,,,,,,,,,,,,,,,,,,,,,,,,,,,,,,,,,,,,,,,,,,,,,,,,,,,,,,,,,,,,,,,,,,,,,,,,,,,,,,,,,,,,,,,,,,,,,,,,,,,,,,,,,,,,,,,,,,,,,,,,,,,,,,,,,,,,,,,,
,,611ed2c05be8517aa0d6076b,2024-02-19_02h14.40.606,kallum_motion_pilot,2023.2.2,Win32,59.88023952,611ed2c05be8517aa0d6076b,65d2b6c8f2eece985d8e374c,65d2b983021102d09219337b,0.0295,0.0295,0,108,108,117,1,seveneight,,,,,,,,,,,,,,,,,,,,,,,,,,,,,,,,,,,,,,,,,,,,,,,,,,,,,,,,,,,,,,,,,,,,,,,,,,,,,,,,,,,,,,,,,,,,,,,,,,,,,,,,,,,,,,,,,,,,,,,,,,,,,,,,,,,,,,,,,
,,611ed2c05be8517aa0d6076b,2024-02-19_02h14.40.606,kallum_motion_pilot,2023.2.2,Win32,59.88023952,611ed2c05be8517aa0d6076b,65d2b6c8f2eece985d8e374c,65d2b983021102d09219337b,0.0296,0.0296,0,109,109,24,1,onetwo,,,,,,,,,,,,,,,,,,,,,,,,,,,,,,,,,,,,,,,,,,,,,,,,,,,,,,,,,,,,,,,,,,,,,,,,,,,,,,,,,,,,,,,,,,,,,,,,,,,,,,,,,,,,,,,,,,,,,,,,,,,,,,,,,,,,,,,,,
,,611ed2c05be8517aa0d6076b,2024-02-19_02h14.40.606,kallum_motion_pilot,2023.2.2,Win32,59.88023952,611ed2c05be8517aa0d6076b,65d2b6c8f2eece985d8e374c,65d2b983021102d09219337b,0.0297,0.0298,0,110,110,88,1,fivesix,,,,,,,,,,,,,,,,,,,,,,,,,,,,,,,,,,,,,,,,,,,,,,,,,,,,,,,,,,,,,,,,,,,,,,,,,,,,,,,,,,,,,,,,,,,,,,,,,,,,,,,,,,,,,,,,,,,,,,,,,,,,,,,,,,,,,,,,,
,,611ed2c05be8517aa0d6076b,2024-02-19_02h14.40.606,kallum_motion_pilot,2023.2.2,Win32,59.88023952,611ed2c05be8517aa0d6076b,65d2b6c8f2eece985d8e374c,65d2b983021102d09219337b,0.031,0.031,0,111,111,78,1,fourtwo,,,,,,,,,,,,,,,,,,,,,,,,,,,,,,,,,,,,,,,,,,,,,,,,,,,,,,,,,,,,,,,,,,,,,,,,,,,,,,,,,,,,,,,,,,,,,,,,,,,,,,,,,,,,,,,,,,,,,,,,,,,,,,,,,,,,,,,,,
,,611ed2c05be8517aa0d6076b,2024-02-19_02h14.40.606,kallum_motion_pilot,2023.2.2,Win32,59.88023952,611ed2c05be8517aa0d6076b,65d2b6c8f2eece985d8e374c,65d2b983021102d09219337b,0.0313,0.0313,0,112,112,135,1,eightseven,,,,,,,,,,,,,,,,,,,,,,,,,,,,,,,,,,,,,,,,,,,,,,,,,,,,,,,,,,,,,,,,,,,,,,,,,,,,,,,,,,,,,,,,,,,,,,,,,,,,,,,,,,,,,,,,,,,,,,,,,,,,,,,,,,,,,,,,,
,,611ed2c05be8517aa0d6076b,2024-02-19_02h14.40.606,kallum_motion_pilot,2023.2.2,Win32,59.88023952,611ed2c05be8517aa0d6076b,65d2b6c8f2eece985d8e374c,65d2b983021102d09219337b,0.0314,0.0315,0,113,113,18,1,twoone,,,,,,,,,,,,,,,,,,,,,,,,,,,,,,,,,,,,,,,,,,,,,,,,,,,,,,,,,,,,,,,,,,,,,,,,,,,,,,,,,,,,,,,,,,,,,,,,,,,,,,,,,,,,,,,,,,,,,,,,,,,,,,,,,,,,,,,,,
,,611ed2c05be8517aa0d6076b,2024-02-19_02h14.40.606,kallum_motion_pilot,2023.2.2,Win32,59.88023952,611ed2c05be8517aa0d6076b,65d2b6c8f2eece985d8e374c,65d2b983021102d09219337b,0.0316,0.0318,0,114,114,104,1,fivesix,,,,,,,,,,,,,,,,,,,,,,,,,,,,,,,,,,,,,,,,,,,,,,,,,,,,,,,,,,,,,,,,,,,,,,,,,,,,,,,,,,,,,,,,,,,,,,,,,,,,,,,,,,,,,,,,,,,,,,,,,,,,,,,,,,,,,,,,,
,,611ed2c05be8517aa0d6076b,2024-02-19_02h14.40.606,kallum_motion_pilot,2023.2.2,Win32,59.88023952,611ed2c05be8517aa0d6076b,65d2b6c8f2eece985d8e374c,65d2b983021102d09219337b,0.0322,0.0323,0,115,115,142,1,eightsix,,,,,,,,,,,,,,,,,,,,,,,,,,,,,,,,,,,,,,,,,,,,,,,,,,,,,,,,,,,,,,,,,,,,,,,,,,,,,,,,,,,,,,,,,,,,,,,,,,,,,,,,,,,,,,,,,,,,,,,,,,,,,,,,,,,,,,,,,
,,611ed2c05be8517aa0d6076b,2024-02-19_02h14.40.606,kallum_motion_pilot,2023.2.2,Win32,59.88023952,611ed2c05be8517aa0d6076b,65d2b6c8f2eece985d8e374c,65d2b983021102d09219337b,0.0326,0.0327,0,116,116,19,1,twofour,,,,,,,,,,,,,,,,,,,,,,,,,,,,,,,,,,,,,,,,,,,,,,,,,,,,,,,,,,,,,,,,,,,,,,,,,,,,,,,,,,,,,,,,,,,,,,,,,,,,,,,,,,,,,,,,,,,,,,,,,,,,,,,,,,,,,,,,,
,,611ed2c05be8517aa0d6076b,2024-02-19_02h14.40.606,kallum_motion_pilot,2023.2.2,Win32,59.88023952,611ed2c05be8517aa0d6076b,65d2b6c8f2eece985d8e374c,65d2b983021102d09219337b,0.0327,0.0328,0,117,117,112,1,fivesix,,,,,,,,,,,,,,,,,,,,,,,,,,,,,,,,,,,,,,,,,,,,,,,,,,,,,,,,,,,,,,,,,,,,,,,,,,,,,,,,,,,,,,,,,,,,,,,,,,,,,,,,,,,,,,,,,,,,,,,,,,,,,,,,,,,,,,,,,
,,611ed2c05be8517aa0d6076b,2024-02-19_02h14.40.606,kallum_motion_pilot,2023.2.2,Win32,59.88023952,611ed2c05be8517aa0d6076b,65d2b6c8f2eece985d8e374c,65d2b983021102d09219337b,0.0329,0.033,0,118,118,26,1,twoone,,,,,,,,,,,,,,,,,,,,,,,,,,,,,,,,,,,,,,,,,,,,,,,,,,,,,,,,,,,,,,,,,,,,,,,,,,,,,,,,,,,,,,,,,,,,,,,,,,,,,,,,,,,,,,,,,,,,,,,,,,,,,,,,,,,,,,,,,
,,611ed2c05be8517aa0d6076b,2024-02-19_02h14.40.606,kallum_motion_pilot,2023.2.2,Win32,59.88023952,611ed2c05be8517aa0d6076b,65d2b6c8f2eece985d8e374c,65d2b983021102d09219337b,0.033,0.033,0,119,119,55,1,fourthree,,,,,,,,,,,,,,,,,,,,,,,,,,,,,,,,,,,,,,,,,,,,,,,,,,,,,,,,,,,,,,,,,,,,,,,,,,,,,,,,,,,,,,,,,,,,,,,,,,,,,,,,,,,,,,,,,,,,,,,,,,,,,,,,,,,,,,,,,
,,611ed2c05be8517aa0d6076b,2024-02-19_02h14.40.606,kallum_motion_pilot,2023.2.2,Win32,59.88023952,611ed2c05be8517aa0d6076b,65d2b6c8f2eece985d8e374c,65d2b983021102d09219337b,0.0331,0.0332,0,120,120,133,1,seveneight,,,,,,,,,,,,,,,,,,,,,,,,,,,,,,,,,,,,,,,,,,,,,,,,,,,,,,,,,,,,,,,,,,,,,,,,,,,,,,,,,,,,,,,,,,,,,,,,,,,,,,,,,,,,,,,,,,,,,,,,,,,,,,,,,,,,,,,,,
,,611ed2c05be8517aa0d6076b,2024-02-19_02h14.40.606,kallum_motion_pilot,2023.2.2,Win32,59.88023952,611ed2c05be8517aa0d6076b,65d2b6c8f2eece985d8e374c,65d2b983021102d09219337b,0.0332,0.0332,0,121,121,9,1,onethree,,,,,,,,,,,,,,,,,,,,,,,,,,,,,,,,,,,,,,,,,,,,,,,,,,,,,,,,,,,,,,,,,,,,,,,,,,,,,,,,,,,,,,,,,,,,,,,,,,,,,,,,,,,,,,,,,,,,,,,,,,,,,,,,,,,,,,,,,
,,611ed2c05be8517aa0d6076b,2024-02-19_02h14.40.606,kallum_motion_pilot,2023.2.2,Win32,59.88023952,611ed2c05be8517aa0d6076b,65d2b6c8f2eece985d8e374c,65d2b983021102d09219337b,0.0333,0.0333,0,122,122,44,1,threeone,,,,,,,,,,,,,,,,,,,,,,,,,,,,,,,,,,,,,,,,,,,,,,,,,,,,,,,,,,,,,,,,,,,,,,,,,,,,,,,,,,,,,,,,,,,,,,,,,,,,,,,,,,,,,,,,,,,,,,,,,,,,,,,,,,,,,,,,,
,,611ed2c05be8517aa0d6076b,2024-02-19_02h14.40.606,kallum_motion_pilot,2023.2.2,Win32,59.88023952,611ed2c05be8517aa0d6076b,65d2b6c8f2eece985d8e374c,65d2b983021102d09219337b,0.0334,0.0334,0,123,123,105,1,fiveseven,,,,,,,,,,,,,,,,,,,,,,,,,,,,,,,,,,,,,,,,,,,,,,,,,,,,,,,,,,,,,,,,,,,,,,,,,,,,,,,,,,,,,,,,,,,,,,,,,,,,,,,,,,,,,,,,,,,,,,,,,,,,,,,,,,,,,,,,,
,,611ed2c05be8517aa0d6076b,2024-02-19_02h14.40.606,kallum_motion_pilot,2023.2.2,Win32,59.88023952,611ed2c05be8517aa0d6076b,65d2b6c8f2eece985d8e374c,65d2b983021102d09219337b,0.0335,0.0335,0,124,124,95,1,eightseven,,,,,,,,,,,,,,,,,,,,,,,,,,,,,,,,,,,,,,,,,,,,,,,,,,,,,,,,,,,,,,,,,,,,,,,,,,,,,,,,,,,,,,,,,,,,,,,,,,,,,,,,,,,,,,,,,,,,,,,,,,,,,,,,,,,,,,,,,
,,611ed2c05be8517aa0d6076b,2024-02-19_02h14.40.606,kallum_motion_pilot,2023.2.2,Win32,59.88023952,611ed2c05be8517aa0d6076b,65d2b6c8f2eece985d8e374c,65d2b983021102d09219337b,0.0336,0.0336,0,125,125,12,1,threeone,,,,,,,,,,,,,,,,,,,,,,,,,,,,,,,,,,,,,,,,,,,,,,,,,,,,,,,,,,,,,,,,,,,,,,,,,,,,,,,,,,,,,,,,,,,,,,,,,,,,,,,,,,,,,,,,,,,,,,,,,,,,,,,,,,,,,,,,,
,,611ed2c05be8517aa0d6076b,2024-02-19_02h14.40.606,kallum_motion_pilot,2023.2.2,Win32,59.88023952,611ed2c05be8517aa0d6076b,65d2b6c8f2eece985d8e374c,65d2b983021102d09219337b,0.0337,0.0337,0,126,126,42,1,twoone,,,,,,,,,,,,,,,,,,,,,,,,,,,,,,,,,,,,,,,,,,,,,,,,,,,,,,,,,,,,,,,,,,,,,,,,,,,,,,,,,,,,,,,,,,,,,,,,,,,,,,,,,,,,,,,,,,,,,,,,,,,,,,,,,,,,,,,,,
,,611ed2c05be8517aa0d6076b,2024-02-19_02h14.40.606,kallum_motion_pilot,2023.2.2,Win32,59.88023952,611ed2c05be8517aa0d6076b,65d2b6c8f2eece985d8e374c,65d2b983021102d09219337b,0.0338,0.0338,0,127,127,46,1,fourtwo,,,,,,,,,,,,,,,,,,,,,,,,,,,,,,,,,,,,,,,,,,,,,,,,,,,,,,,,,,,,,,,,,,,,,,,,,,,,,,,,,,,,,,,,,,,,,,,,,,,,,,,,,,,,,,,,,,,,,,,,,,,,,,,,,,,,,,,,,
,,611ed2c05be8517aa0d6076b,2024-02-19_02h14.40.606,kallum_motion_pilot,2023.2.2,Win32,59.88023952,611ed2c05be8517aa0d6076b,65d2b6c8f2eece985d8e374c,65d2b983021102d09219337b,0.034,0.034,0,128,128,20,1,threeone,,,,,,,,,,,,,,,,,,,,,,,,,,,,,,,,,,,,,,,,,,,,,,,,,,,,,,,,,,,,,,,,,,,,,,,,,,,,,,,,,,,,,,,,,,,,,,,,,,,,,,,,,,,,,,,,,,,,,,,,,,,,,,,,,,,,,,,,,
,,611ed2c05be8517aa0d6076b,2024-02-19_02h14.40.606,kallum_motion_pilot,2023.2.2,Win32,59.88023952,611ed2c05be8517aa0d6076b,65d2b6c8f2eece985d8e374c,65d2b983021102d09219337b,0.0341,0.0341,0,129,129,80,1,fivesix,,,,,,,,,,,,,,,,,,,,,,,,,,,,,,,,,,,,,,,,,,,,,,,,,,,,,,,,,,,,,,,,,,,,,,,,,,,,,,,,,,,,,,,,,,,,,,,,,,,,,,,,,,,,,,,,,,,,,,,,,,,,,,,,,,,,,,,,,
,,611ed2c05be8517aa0d6076b,2024-02-19_02h14.40.606,kallum_motion_pilot,2023.2.2,Win32,59.88023952,611ed2c05be8517aa0d6076b,65d2b6c8f2eece985d8e374c,65d2b983021102d09219337b,0.0341,0.0341,0,130,130,6,1,fourtwo,,,,,,,,,,,,,,,,,,,,,,,,,,,,,,,,,,,,,,,,,,,,,,,,,,,,,,,,,,,,,,,,,,,,,,,,,,,,,,,,,,,,,,,,,,,,,,,,,,,,,,,,,,,,,,,,,,,,,,,,,,,,,,,,,,,,,,,,,
,,611ed2c05be8517aa0d6076b,2024-02-19_02h14.40.606,kallum_motion_pilot,2023.2.2,Win32,59.88023952,611ed2c05be8517aa0d6076b,65d2b6c8f2eece985d8e374c,65d2b983021102d09219337b,0.0342,0.0343,0,131,131,11,1,twofour,,,,,,,,,,,,,,,,,,,,,,,,,,,,,,,,,,,,,,,,,,,,,,,,,,,,,,,,,,,,,,,,,,,,,,,,,,,,,,,,,,,,,,,,,,,,,,,,,,,,,,,,,,,,,,,,,,,,,,,,,,,,,,,,,,,,,,,,,
,,611ed2c05be8517aa0d6076b,2024-02-19_02h14.40.606,kallum_motion_pilot,2023.2.2,Win32,59.88023952,611ed2c05be8517aa0d6076b,65d2b6c8f2eece985d8e374c,65d2b983021102d09219337b,0.0343,0.0343,0,132,132,66,1,twoone,,,,,,,,,,,,,,,,,,,,,,,,,,,,,,,,,,,,,,,,,,,,,,,,,,,,,,,,,,,,,,,,,,,,,,,,,,,,,,,,,,,,,,,,,,,,,,,,,,,,,,,,,,,,,,,,,,,,,,,,,,,,,,,,,,,,,,,,,
,,611ed2c05be8517aa0d6076b,2024-02-19_02h14.40.606,kallum_motion_pilot,2023.2.2,Win32,59.88023952,611ed2c05be8517aa0d6076b,65d2b6c8f2eece985d8e374c,65d2b983021102d09219337b,0.0344,0.0344,0,133,133,126,1,eightsix,,,,,,,,,,,,,,,,,,,,,,,,,,,,,,,,,,,,,,,,,,,,,,,,,,,,,,,,,,,,,,,,,,,,,,,,,,,,,,,,,,,,,,,,,,,,,,,,,,,,,,,,,,,,,,,,,,,,,,,,,,,,,,,,,,,,,,,,,
,,611ed2c05be8517aa0d6076b,2024-02-19_02h14.40.606,kallum_motion_pilot,2023.2.2,Win32,59.88023952,611ed2c05be8517aa0d6076b,65d2b6c8f2eece985d8e374c,65d2b983021102d09219337b,0.0344,0.0346,0,134,134,77,1,threefour,,,,,,,,,,,,,,,,,,,,,,,,,,,,,,,,,,,,,,,,,,,,,,,,,,,,,,,,,,,,,,,,,,,,,,,,,,,,,,,,,,,,,,,,,,,,,,,,,,,,,,,,,,,,,,,,,,,,,,,,,,,,,,,,,,,,,,,,,
,,611ed2c05be8517aa0d6076b,2024-02-19_02h14.40.606,kallum_motion_pilot,2023.2.2,Win32,59.88023952,611ed2c05be8517aa0d6076b,65d2b6c8f2eece985d8e374c,65d2b983021102d09219337b,0.0346,0.0346,0,135,135,28,1,threeone,,,,,,,,,,,,,,,,,,,,,,,,,,,,,,,,,,,,,,,,,,,,,,,,,,,,,,,,,,,,,,,,,,,,,,,,,,,,,,,,,,,,,,,,,,,,,,,,,,,,,,,,,,,,,,,,,,,,,,,,,,,,,,,,,,,,,,,,,
,,611ed2c05be8517aa0d6076b,2024-02-19_02h14.40.606,kallum_motion_pilot,2023.2.2,Win32,59.88023952,611ed2c05be8517aa0d6076b,65d2b6c8f2eece985d8e374c,65d2b983021102d09219337b,0.0347,0.0347,0,136,136,111,1,eightseven,,,,,,,,,,,,,,,,,,,,,,,,,,,,,,,,,,,,,,,,,,,,,,,,,,,,,,,,,,,,,,,,,,,,,,,,,,,,,,,,,,,,,,,,,,,,,,,,,,,,,,,,,,,,,,,,,,,,,,,,,,,,,,,,,,,,,,,,,
,,611ed2c05be8517aa0d6076b,2024-02-19_02h14.40.606,kallum_motion_pilot,2023.2.2,Win32,59.88023952,611ed2c05be8517aa0d6076b,65d2b6c8f2eece985d8e374c,65d2b983021102d09219337b,0.0347,0.0348,0,137,137,136,1,fivesix,,,,,,,,,,,,,,,,,,,,,,,,,,,,,,,,,,,,,,,,,,,,,,,,,,,,,,,,,,,,,,,,,,,,,,,,,,,,,,,,,,,,,,,,,,,,,,,,,,,,,,,,,,,,,,,,,,,,,,,,,,,,,,,,,,,,,,,,,
,,611ed2c05be8517aa0d6076b,2024-02-19_02h14.40.606,kallum_motion_pilot,2023.2.2,Win32,59.88023952,611ed2c05be8517aa0d6076b,65d2b6c8f2eece985d8e374c,65d2b983021102d09219337b,0.0349,0.0349,0,138,138,131,1,sixeight,,,,,,,,,,,,,,,,,,,,,,,,,,,,,,,,,,,,,,,,,,,,,,,,,,,,,,,,,,,,,,,,,,,,,,,,,,,,,,,,,,,,,,,,,,,,,,,,,,,,,,,,,,,,,,,,,,,,,,,,,,,,,,,,,,,,,,,,,
,,611ed2c05be8517aa0d6076b,2024-02-19_02h14.40.606,kallum_motion_pilot,2023.2.2,Win32,59.88023952,611ed2c05be8517aa0d6076b,65d2b6c8f2eece985d8e374c,65d2b983021102d09219337b,0.0349,0.035,0,139,139,3,1,twofour,,,,,,,,,,,,,,,,,,,,,,,,,,,,,,,,,,,,,,,,,,,,,,,,,,,,,,,,,,,,,,,,,,,,,,,,,,,,,,,,,,,,,,,,,,,,,,,,,,,,,,,,,,,,,,,,,,,,,,,,,,,,,,,,,,,,,,,,,
,,611ed2c05be8517aa0d6076b,2024-02-19_02h14.40.606,kallum_motion_pilot,2023.2.2,Win32,59.88023952,611ed2c05be8517aa0d6076b,65d2b6c8f2eece985d8e374c,65d2b983021102d09219337b,0.035,0.0351,0,140,140,97,1,fiveseven,,,,,,,,,,,,,,,,,,,,,,,,,,,,,,,,,,,,,,,,,,,,,,,,,,,,,,,,,,,,,,,,,,,,,,,,,,,,,,,,,,,,,,,,,,,,,,,,,,,,,,,,,,,,,,,,,,,,,,,,,,,,,,,,,,,,,,,,,
,,611ed2c05be8517aa0d6076b,2024-02-19_02h14.40.606,kallum_motion_pilot,2023.2.2,Win32,59.88023952,611ed2c05be8517aa0d6076b,65d2b6c8f2eece985d8e374c,65d2b983021102d09219337b,0.0352,0.0352,0,141,141,52,1,threeone,,,,,,,,,,,,,,,,,,,,,,,,,,,,,,,,,,,,,,,,,,,,,,,,,,,,,,,,,,,,,,,,,,,,,,,,,,,,,,,,,,,,,,,,,,,,,,,,,,,,,,,,,,,,,,,,,,,,,,,,,,,,,,,,,,,,,,,,,
,,611ed2c05be8517aa0d6076b,2024-02-19_02h14.40.606,kallum_motion_pilot,2023.2.2,Win32,59.88023952,611ed2c05be8517aa0d6076b,65d2b6c8f2eece985d8e374c,65d2b983021102d09219337b,0.0352,0.0352,0,142,142,45,1,threefour,,,,,,,,,,,,,,,,,,,,,,,,,,,,,,,,,,,,,,,,,,,,,,,,,,,,,,,,,,,,,,,,,,,,,,,,,,,,,,,,,,,,,,,,,,,,,,,,,,,,,,,,,,,,,,,,,,,,,,,,,,,,,,,,,,,,,,,,,
,,611ed2c05be8517aa0d6076b,2024-02-19_02h14.40.606,kallum_motion_pilot,2023.2.2,Win32,59.88023952,611ed2c05be8517aa0d6076b,65d2b6c8f2eece985d8e374c,65d2b983021102d09219337b,0.0354,0.0354,0,143,143,144,1,fivesix,,,,,,,,,,,,,,,,,,,,,,,,,,,,,,,,,,,,,,,,,,,,,,,,,,,,,,,,,,,,,,,,,,,,,,,,,,,,,,,,,,,,,,,,,,,,,,,,,,,,,,,,,,,,,,,,,,,,,,,,,,,,,,,,,,,,,,,,,
,,611ed2c05be8517aa0d6076b,2024-02-19_02h14.40.606,kallum_motion_pilot,2023.2.2,Win32,59.88023952,611ed2c05be8517aa0d6076b,65d2b6c8f2eece985d8e374c,65d2b983021102d09219337b,0.0354,0.0355,0,144,144,123,1,sixeight,,,,,,,,,,,,,,,,,,,,,,,,,,,,,,,,,,,,,,,,,,,,,,,,,,,,,,,,,,,,,,,,,,,,,,,,,,,,,,,,,,,,,,,,,,,,,,,,,,,,,,,,,,,,,,,,,,,,,,,,,,,,,,,,,,,,,,,,,
,,611ed2c05be8517aa0d6076b,2024-02-19_02h14.40.606,kallum_motion_pilot,2023.2.2,Win32,59.88023952,611ed2c05be8517aa0d6076b,65d2b6c8f2eece985d8e374c,65d2b983021102d09219337b,0.0355,0.0355,0,145,145,64,1,onetwo,,,,,,,,,,,,,,,,,,,,,,,,,,,,,,,,,,,,,,,,,,,,,,,,,,,,,,,,,,,,,,,,,,,,,,,,,,,,,,,,,,,,,,,,,,,,,,,,,,,,,,,,,,,,,,,,,,,,,,,,,,,,,,,,,,,,,,,,,
,,611ed2c05be8517aa0d6076b,2024-02-19_02h14.40.606,kallum_motion_pilot,2023.2.2,Win32,59.88023952,611ed2c05be8517aa0d6076b,65d2b6c8f2eece985d8e374c,65d2b983021102d09219337b,0.0356,0.0356,0,146,146,68,1,threeone,,,,,,,,,,,,,,,,,,,,,,,,,,,,,,,,,,,,,,,,,,,,,,,,,,,,,,,,,,,,,,,,,,,,,,,,,,,,,,,,,,,,,,,,,,,,,,,,,,,,,,,,,,,,,,,,,,,,,,,,,,,,,,,,,,,,,,,,,
,,611ed2c05be8517aa0d6076b,2024-02-19_02h14.40.606,kallum_motion_pilot,2023.2.2,Win32,59.88023952,611ed2c05be8517aa0d6076b,65d2b6c8f2eece985d8e374c,65d2b983021102d09219337b,0.0358,0.0358,0,147,147,1,1,onethree,,,,,,,,,,,,,,,,,,,,,,,,,,,,,,,,,,,,,,,,,,,,,,,,,,,,,,,,,,,,,,,,,,,,,,,,,,,,,,,,,,,,,,,,,,,,,,,,,,,,,,,,,,,,,,,,,,,,,,,,,,,,,,,,,,,,,,,,,
,,611ed2c05be8517aa0d6076b,2024-02-19_02h14.40.606,kallum_motion_pilot,2023.2.2,Win32,59.88023952,611ed2c05be8517aa0d6076b,65d2b6c8f2eece985d8e374c,65d2b983021102d09219337b,0.0359,0.0359,0,148,148,134,1,eightsix,,,,,,,,,,,,,,,,,,,,,,,,,,,,,,,,,,,,,,,,,,,,,,,,,,,,,,,,,,,,,,,,,,,,,,,,,,,,,,,,,,,,,,,,,,,,,,,,,,,,,,,,,,,,,,,,,,,,,,,,,,,,,,,,,,,,,,,,,
,,611ed2c05be8517aa0d6076b,2024-02-19_02h14.40.606,kallum_motion_pilot,2023.2.2,Win32,59.88023952,611ed2c05be8517aa0d6076b,65d2b6c8f2eece985d8e374c,65d2b983021102d09219337b,0.036,0.036,0,149,149,160,1,fivesix,,,,,,,,,,,,,,,,,,,,,,,,,,,,,,,,,,,,,,,,,,,,,,,,,,,,,,,,,,,,,,,,,,,,,,,,,,,,,,,,,,,,,,,,,,,,,,,,,,,,,,,,,,,,,,,,,,,,,,,,,,,,,,,,,,,,,,,,,
,,611ed2c05be8517aa0d6076b,2024-02-19_02h14.40.606,kallum_motion_pilot,2023.2.2,Win32,59.88023952,611ed2c05be8517aa0d6076b,65d2b6c8f2eece985d8e374c,65d2b983021102d09219337b,0.036,0.0361,0,150,150,84,1,sevenfive,,,,,,,,,,,,,,,,,,,,,,,,,,,,,,,,,,,,,,,,,,,,,,,,,,,,,,,,,,,,,,,,,,,,,,,,,,,,,,,,,,,,,,,,,,,,,,,,,,,,,,,,,,,,,,,,,,,,,,,,,,,,,,,,,,,,,,,,,
,,611ed2c05be8517aa0d6076b,2024-02-19_02h14.40.606,kallum_motion_pilot,2023.2.2,Win32,59.88023952,611ed2c05be8517aa0d6076b,65d2b6c8f2eece985d8e374c,65d2b983021102d09219337b,0.0361,0.0362,0,151,151,129,1,fiveseven,,,,,,,,,,,,,,,,,,,,,,,,,,,,,,,,,,,,,,,,,,,,,,,,,,,,,,,,,,,,,,,,,,,,,,,,,,,,,,,,,,,,,,,,,,,,,,,,,,,,,,,,,,,,,,,,,,,,,,,,,,,,,,,,,,,,,,,,,
,,611ed2c05be8517aa0d6076b,2024-02-19_02h14.40.606,kallum_motion_pilot,2023.2.2,Win32,59.88023952,611ed2c05be8517aa0d6076b,65d2b6c8f2eece985d8e374c,65d2b983021102d09219337b,0.0362,0.0362,0,152,152,37,1,threefour,,,,,,,,,,,,,,,,,,,,,,,,,,,,,,,,,,,,,,,,,,,,,,,,,,,,,,,,,,,,,,,,,,,,,,,,,,,,,,,,,,,,,,,,,,,,,,,,,,,,,,,,,,,,,,,,,,,,,,,,,,,,,,,,,,,,,,,,,
,,611ed2c05be8517aa0d6076b,2024-02-19_02h14.40.606,kallum_motion_pilot,2023.2.2,Win32,59.88023952,611ed2c05be8517aa0d6076b,65d2b6c8f2eece985d8e374c,65d2b983021102d09219337b,0.0363,0.0363,0,153,153,159,1,eightseven,,,,,,,,,,,,,,,,,,,,,,,,,,,,,,,,,,,,,,,,,,,,,,,,,,,,,,,,,,,,,,,,,,,,,,,,,,,,,,,,,,,,,,,,,,,,,,,,,,,,,,,,,,,,,,,,,,,,,,,,,,,,,,,,,,,,,,,,,
,,611ed2c05be8517aa0d6076b,2024-02-19_02h14.40.606,kallum_motion_pilot,2023.2.2,Win32,59.88023952,611ed2c05be8517aa0d6076b,65d2b6c8f2eece985d8e374c,65d2b983021102d09219337b,0.0364,0.0364,0,154,154,0,1,onetwo,,,,,,,,,,,,,,,,,,,,,,,,,,,,,,,,,,,,,,,,,,,,,,,,,,,,,,,,,,,,,,,,,,,,,,,,,,,,,,,,,,,,,,,,,,,,,,,,,,,,,,,,,,,,,,,,,,,,,,,,,,,,,,,,,,,,,,,,,
,,611ed2c05be8517aa0d6076b,2024-02-19_02h14.40.606,kallum_motion_pilot,2023.2.2,Win32,59.88023952,611ed2c05be8517aa0d6076b,65d2b6c8f2eece985d8e374c,65d2b983021102d09219337b,0.0365,0.0366,0,155,155,32,1,onetwo,,,,,,,,,,,,,,,,,,,,,,,,,,,,,,,,,,,,,,,,,,,,,,,,,,,,,,,,,,,,,,,,,,,,,,,,,,,,,,,,,,,,,,,,,,,,,,,,,,,,,,,,,,,,,,,,,,,,,,,,,,,,,,,,,,,,,,,,,
,,611ed2c05be8517aa0d6076b,2024-02-19_02h14.40.606,kallum_motion_pilot,2023.2.2,Win32,59.88023952,611ed2c05be8517aa0d6076b,65d2b6c8f2eece985d8e374c,65d2b983021102d09219337b,0.0366,0.0367,0,156,156,138,1,sixfive,,,,,,,,,,,,,,,,,,,,,,,,,,,,,,,,,,,,,,,,,,,,,,,,,,,,,,,,,,,,,,,,,,,,,,,,,,,,,,,,,,,,,,,,,,,,,,,,,,,,,,,,,,,,,,,,,,,,,,,,,,,,,,,,,,,,,,,,,
,,611ed2c05be8517aa0d6076b,2024-02-19_02h14.40.606,kallum_motion_pilot,2023.2.2,Win32,59.88023952,611ed2c05be8517aa0d6076b,65d2b6c8f2eece985d8e374c,65d2b983021102d09219337b,0.0367,0.0367,0,157,157,21,1,threefour,,,,,,,,,,,,,,,,,,,,,,,,,,,,,,,,,,,,,,,,,,,,,,,,,,,,,,,,,,,,,,,,,,,,,,,,,,,,,,,,,,,,,,,,,,,,,,,,,,,,,,,,,,,,,,,,,,,,,,,,,,,,,,,,,,,,,,,,,
,,611ed2c05be8517aa0d6076b,2024-02-19_02h14.40.606,kallum_motion_pilot,2023.2.2,Win32,59.88023952,611ed2c05be8517aa0d6076b,65d2b6c8f2eece985d8e374c,65d2b983021102d09219337b,0.0367,0.0369,0,158,158,51,1,twofour,,,,,,,,,,,,,,,,,,,,,,,,,,,,,,,,,,,,,,,,,,,,,,,,,,,,,,,,,,,,,,,,,,,,,,,,,,,,,,,,,,,,,,,,,,,,,,,,,,,,,,,,,,,,,,,,,,,,,,,,,,,,,,,,,,,,,,,,,
,,611ed2c05be8517aa0d6076b,2024-02-19_02h14.40.606,kallum_motion_pilot,2023.2.2,Win32,59.88023952,611ed2c05be8517aa0d6076b,65d2b6c8f2eece985d8e374c,65d2b983021102d09219337b,0.0369,0.0369,0,159,159,62,1,fourtwo,,,,,,,,,,,,,,,,,,,,,,,,,,,,,,,,,,,,,,,,,,,,,,,,,,,,,,,,,,,,,,,,,,,,,,,,,,,,,,,,,,,,,,,,,,,,,,,,,,,,,,,,,,,,,,,,,,,,,,,,,,,,,,,,,,,,,,,,,
,,611ed2c05be8517aa0d6076b,2024-02-19_02h14.40.606,kallum_motion_pilot,2023.2.2,Win32,59.88023952,611ed2c05be8517aa0d6076b,65d2b6c8f2eece985d8e374c,65d2b983021102d09219337b,0.0369,0.0371,0,160,160,48,1,onetwo,,,,,,,,,,,,,,,,,,,,,,,,,,,,,,,,,,,,,,,,,,,,,,,,,,,,,,,,,,,,,,,,,,,,,,,,,,,,,,,,,,,,,,,,,,,,,,,,,,,,,,,,,,,,,,,,,,,,,,,,,,,,,,,,,,,,,,,,,
,,611ed2c05be8517aa0d6076b,2024-02-19_02h14.40.606,kallum_motion_pilot,2023.2.2,Win32,59.88023952,611ed2c05be8517aa0d6076b,65d2b6c8f2eece985d8e374c,65d2b983021102d09219337b,0.0371,0.0371,0,161,161,33,1,onethree,,,,,,,,,,,,,,,,,,,,,,,,,,,,,,,,,,,,,,,,,,,,,,,,,,,,,,,,,,,,,,,,,,,,,,,,,,,,,,,,,,,,,,,,,,,,,,,,,,,,,,,,,,,,,,,,,,,,,,,,,,,,,,,,,,,,,,,,,
,,611ed2c05be8517aa0d6076b,2024-02-19_02h14.40.606,kallum_motion_pilot,2023.2.2,Win32,59.88023952,611ed2c05be8517aa0d6076b,65d2b6c8f2eece985d8e374c,65d2b983021102d09219337b,0.0372,0.0372,1,0,162,36,1,threeone,,,,,,,,,,,,,,,,,,,,,,,,,,,,,,,,,,,,,,,,,,,,,,,,,,,,,,,,,,,,,,,,,,,,,,,,,,,,,,,,,,,,,,,,,,,,,,,,,,,,,,,,,,,,,,,,,,,,,,,,,,,,,,,,,,,,,,,,,
,,611ed2c05be8517aa0d6076b,2024-02-19_02h14.40.606,kallum_motion_pilot,2023.2.2,Win32,59.88023952,611ed2c05be8517aa0d6076b,65d2b6c8f2eece985d8e374c,65d2b983021102d09219337b,0.0373,0.0373,1,1,163,55,1,fourthree,,,,,,,,,,,,,,,,,,,,,,,,,,,,,,,,,,,,,,,,,,,,,,,,,,,,,,,,,,,,,,,,,,,,,,,,,,,,,,,,,,,,,,,,,,,,,,,,,,,,,,,,,,,,,,,,,,,,,,,,,,,,,,,,,,,,,,,,,
,,611ed2c05be8517aa0d6076b,2024-02-19_02h14.40.606,kallum_motion_pilot,2023.2.2,Win32,59.88023952,611ed2c05be8517aa0d6076b,65d2b6c8f2eece985d8e374c,65d2b983021102d09219337b,0.0374,0.0374,1,2,164,84,1,sevenfive,,,,,,,,,,,,,,,,,,,,,,,,,,,,,,,,,,,,,,,,,,,,,,,,,,,,,,,,,,,,,,,,,,,,,,,,,,,,,,,,,,,,,,,,,,,,,,,,,,,,,,,,,,,,,,,,,,,,,,,,,,,,,,,,,,,,,,,,,
,,611ed2c05be8517aa0d6076b,2024-02-19_02h14.40.606,kallum_motion_pilot,2023.2.2,Win32,59.88023952,611ed2c05be8517aa0d6076b,65d2b6c8f2eece985d8e374c,65d2b983021102d09219337b,0.0375,0.0375,1,3,165,161,1,fiveseven,,,,,,,,,,,,,,,,,,,,,,,,,,,,,,,,,,,,,,,,,,,,,,,,,,,,,,,,,,,,,,,,,,,,,,,,,,,,,,,,,,,,,,,,,,,,,,,,,,,,,,,,,,,,,,,,,,,,,,,,,,,,,,,,,,,,,,,,,
,,611ed2c05be8517aa0d6076b,2024-02-19_02h14.40.606,kallum_motion_pilot,2023.2.2,Win32,59.88023952,611ed2c05be8517aa0d6076b,65d2b6c8f2eece985d8e374c,65d2b983021102d09219337b,0.0376,0.0377,1,4,166,144,1,fivesix,,,,,,,,,,,,,,,,,,,,,,,,,,,,,,,,,,,,,,,,,,,,,,,,,,,,,,,,,,,,,,,,,,,,,,,,,,,,,,,,,,,,,,,,,,,,,,,,,,,,,,,,,,,,,,,,,,,,,,,,,,,,,,,,,,,,,,,,,
,,611ed2c05be8517aa0d6076b,2024-02-19_02h14.40.606,kallum_motion_pilot,2023.2.2,Win32,59.88023952,611ed2c05be8517aa0d6076b,65d2b6c8f2eece985d8e374c,65d2b983021102d09219337b,0.0377,0.0378,1,5,167,61,1,threefour,,,,,,,,,,,,,,,,,,,,,,,,,,,,,,,,,,,,,,,,,,,,,,,,,,,,,,,,,,,,,,,,,,,,,,,,,,,,,,,,,,,,,,,,,,,,,,,,,,,,,,,,,,,,,,,,,,,,,,,,,,,,,,,,,,,,,,,,,
,,611ed2c05be8517aa0d6076b,2024-02-19_02h14.40.606,kallum_motion_pilot,2023.2.2,Win32,59.88023952,611ed2c05be8517aa0d6076b,65d2b6c8f2eece985d8e374c,65d2b983021102d09219337b,0.0378,0.0378,1,6,168,132,1,sevenfive,,,,,,,,,,,,,,,,,,,,,,,,,,,,,,,,,,,,,,,,,,,,,,,,,,,,,,,,,,,,,,,,,,,,,,,,,,,,,,,,,,,,,,,,,,,,,,,,,,,,,,,,,,,,,,,,,,,,,,,,,,,,,,,,,,,,,,,,,
,,611ed2c05be8517aa0d6076b,2024-02-19_02h14.40.606,kallum_motion_pilot,2023.2.2,Win32,59.88023952,611ed2c05be8517aa0d6076b,65d2b6c8f2eece985d8e374c,65d2b983021102d09219337b,0.0379,0.038,1,7,169,77,1,threefour,,,,,,,,,,,,,,,,,,,,,,,,,,,,,,,,,,,,,,,,,,,,,,,,,,,,,,,,,,,,,,,,,,,,,,,,,,,,,,,,,,,,,,,,,,,,,,,,,,,,,,,,,,,,,,,,,,,,,,,,,,,,,,,,,,,,,,,,,
,,611ed2c05be8517aa0d6076b,2024-02-19_02h14.40.606,kallum_motion_pilot,2023.2.2,Win32,59.88023952,611ed2c05be8517aa0d6076b,65d2b6c8f2eece985d8e374c,65d2b983021102d09219337b,0.038,0.038,1,8,170,23,1,fourthree,,,,,,,,,,,,,,,,,,,,,,,,,,,,,,,,,,,,,,,,,,,,,,,,,,,,,,,,,,,,,,,,,,,,,,,,,,,,,,,,,,,,,,,,,,,,,,,,,,,,,,,,,,,,,,,,,,,,,,,,,,,,,,,,,,,,,,,,,
,,611ed2c05be8517aa0d6076b,2024-02-19_02h14.40.606,kallum_motion_pilot,2023.2.2,Win32,59.88023952,611ed2c05be8517aa0d6076b,65d2b6c8f2eece985d8e374c,65d2b983021102d09219337b,0.0381,0.0381,1,9,171,41,1,onethree,,,,,,,,,,,,,,,,,,,,,,,,,,,,,,,,,,,,,,,,,,,,,,,,,,,,,,,,,,,,,,,,,,,,,,,,,,,,,,,,,,,,,,,,,,,,,,,,,,,,,,,,,,,,,,,,,,,,,,,,,,,,,,,,,,,,,,,,,
,,611ed2c05be8517aa0d6076b,2024-02-19_02h14.40.606,kallum_motion_pilot,2023.2.2,Win32,59.88023952,611ed2c05be8517aa0d6076b,65d2b6c8f2eece985d8e374c,65d2b983021102d09219337b,0.0382,0.0382,1,10,172,56,1,onetwo,,,,,,,,,,,,,,,,,,,,,,,,,,,,,,,,,,,,,,,,,,,,,,,,,,,,,,,,,,,,,,,,,,,,,,,,,,,,,,,,,,,,,,,,,,,,,,,,,,,,,,,,,,,,,,,,,,,,,,,,,,,,,,,,,,,,,,,,,
,,611ed2c05be8517aa0d6076b,2024-02-19_02h14.40.606,kallum_motion_pilot,2023.2.2,Win32,59.88023952,611ed2c05be8517aa0d6076b,65d2b6c8f2eece985d8e374c,65d2b983021102d09219337b,0.0383,0.0383,1,11,173,42,1,twoone,,,,,,,,,,,,,,,,,,,,,,,,,,,,,,,,,,,,,,,,,,,,,,,,,,,,,,,,,,,,,,,,,,,,,,,,,,,,,,,,,,,,,,,,,,,,,,,,,,,,,,,,,,,,,,,,,,,,,,,,,,,,,,,,,,,,,,,,,
,,611ed2c05be8517aa0d6076b,2024-02-19_02h14.40.606,kallum_motion_pilot,2023.2.2,Win32,59.88023952,611ed2c05be8517aa0d6076b,65d2b6c8f2eece985d8e374c,65d2b983021102d09219337b,0.0384,0.0385,1,12,174,35,1,twofour,,,,,,,,,,,,,,,,,,,,,,,,,,,,,,,,,,,,,,,,,,,,,,,,,,,,,,,,,,,,,,,,,,,,,,,,,,,,,,,,,,,,,,,,,,,,,,,,,,,,,,,,,,,,,,,,,,,,,,,,,,,,,,,,,,,,,,,,,
,,611ed2c05be8517aa0d6076b,2024-02-19_02h14.40.606,kallum_motion_pilot,2023.2.2,Win32,59.88023952,611ed2c05be8517aa0d6076b,65d2b6c8f2eece985d8e374c,65d2b983021102d09219337b,0.0385,0.0385,1,13,175,156,1,sevenfive,,,,,,,,,,,,,,,,,,,,,,,,,,,,,,,,,,,,,,,,,,,,,,,,,,,,,,,,,,,,,,,,,,,,,,,,,,,,,,,,,,,,,,,,,,,,,,,,,,,,,,,,,,,,,,,,,,,,,,,,,,,,,,,,,,,,,,,,,
,,611ed2c05be8517aa0d6076b,2024-02-19_02h14.40.606,kallum_motion_pilot,2023.2.2,Win32,59.88023952,611ed2c05be8517aa0d6076b,65d2b6c8f2eece985d8e374c,65d2b983021102d09219337b,0.0386,0.0386,1,14,176,53,1,threefour,,,,,,,,,,,,,,,,,,,,,,,,,,,,,,,,,,,,,,,,,,,,,,,,,,,,,,,,,,,,,,,,,,,,,,,,,,,,,,,,,,,,,,,,,,,,,,,,,,,,,,,,,,,,,,,,,,,,,,,,,,,,,,,,,,,,,,,,,
,,611ed2c05be8517aa0d6076b,2024-02-19_02h14.40.606,kallum_motion_pilot,2023.2.2,Win32,59.88023952,611ed2c05be8517aa0d6076b,65d2b6c8f2eece985d8e374c,65d2b983021102d09219337b,0.0387,0.0387,1,15,177,100,1,sevenfive,,,,,,,,,,,,,,,,,,,,,,,,,,,,,,,,,,,,,,,,,,,,,,,,,,,,,,,,,,,,,,,,,,,,,,,,,,,,,,,,,,,,,,,,,,,,,,,,,,,,,,,,,,,,,,,,,,,,,,,,,,,,,,,,,,,,,,,,,
,,611ed2c05be8517aa0d6076b,2024-02-19_02h14.40.606,kallum_motion_pilot,2023.2.2,Win32,59.88023952,611ed2c05be8517aa0d6076b,65d2b6c8f2eece985d8e374c,65d2b983021102d09219337b,0.0388,0.0389,1,16,178,31,1,fourthree,,,,,,,,,,,,,,,,,,,,,,,,,,,,,,,,,,,,,,,,,,,,,,,,,,,,,,,,,,,,,,,,,,,,,,,,,,,,,,,,,,,,,,,,,,,,,,,,,,,,,,,,,,,,,,,,,,,,,,,,,,,,,,,,,,,,,,,,,
,,611ed2c05be8517aa0d6076b,2024-02-19_02h14.40.606,kallum_motion_pilot,2023.2.2,Win32,59.88023952,611ed2c05be8517aa0d6076b,65d2b6c8f2eece985d8e374c,65d2b983021102d09219337b,0.0389,0.039,1,17,179,69,1,threefour,,,,,,,,,,,,,,,,,,,,,,,,,,,,,,,,,,,,,,,,,,,,,,,,,,,,,,,,,,,,,,,,,,,,,,,,,,,,,,,,,,,,,,,,,,,,,,,,,,,,,,,,,,,,,,,,,,,,,,,,,,,,,,,,,,,,,,,,,
,,611ed2c05be8517aa0d6076b,2024-02-19_02h14.40.606,kallum_motion_pilot,2023.2.2,Win32,59.88023952,611ed2c05be8517aa0d6076b,65d2b6c8f2eece985d8e374c,65d2b983021102d09219337b,0.039,0.0392,1,18,180,12,1,threeone,,,,,,,,,,,,,,,,,,,,,,,,,,,,,,,,,,,,,,,,,,,,,,,,,,,,,,,,,,,,,,,,,,,,,,,,,,,,,,,,,,,,,,,,,,,,,,,,,,,,,,,,,,,,,,,,,,,,,,,,,,,,,,,,,,,,,,,,,
,,611ed2c05be8517aa0d6076b,2024-02-19_02h14.40.606,kallum_motion_pilot,2023.2.2,Win32,59.88023952,611ed2c05be8517aa0d6076b,65d2b6c8f2eece985d8e374c,65d2b983021102d09219337b,0.0392,0.0393,1,19,181,94,1,eightsix,,,,,,,,,,,,,,,,,,,,,,,,,,,,,,,,,,,,,,,,,,,,,,,,,,,,,,,,,,,,,,,,,,,,,,,,,,,,,,,,,,,,,,,,,,,,,,,,,,,,,,,,,,,,,,,,,,,,,,,,,,,,,,,,,,,,,,,,,
,,611ed2c05be8517aa0d6076b,2024-02-19_02h14.40.606,kallum_motion_pilot,2023.2.2,Win32,59.88023952,611ed2c05be8517aa0d6076b,65d2b6c8f2eece985d8e374c,65d2b983021102d09219337b,0.0394,0.0395,1,20,182,71,1,fourthree,,,,,,,,,,,,,,,,,,,,,,,,,,,,,,,,,,,,,,,,,,,,,,,,,,,,,,,,,,,,,,,,,,,,,,,,,,,,,,,,,,,,,,,,,,,,,,,,,,,,,,,,,,,,,,,,,,,,,,,,,,,,,,,,,,,,,,,,,
,,611ed2c05be8517aa0d6076b,2024-02-19_02h14.40.606,kallum_motion_pilot,2023.2.2,Win32,59.88023952,611ed2c05be8517aa0d6076b,65d2b6c8f2eece985d8e374c,65d2b983021102d09219337b,0.0396,0.0396,1,21,183,80,1,fivesix,,,,,,,,,,,,,,,,,,,,,,,,,,,,,,,,,,,,,,,,,,,,,,,,,,,,,,,,,,,,,,,,,,,,,,,,,,,,,,,,,,,,,,,,,,,,,,,,,,,,,,,,,,,,,,,,,,,,,,,,,,,,,,,,,,,,,,,,,
,,611ed2c05be8517aa0d6076b,2024-02-19_02h14.40.606,kallum_motion_pilot,2023.2.2,Win32,59.88023952,611ed2c05be8517aa0d6076b,65d2b6c8f2eece985d8e374c,65d2b983021102d09219337b,0.0397,0.0397,1,22,184,134,1,eightsix,,,,,,,,,,,,,,,,,,,,,,,,,,,,,,,,,,,,,,,,,,,,,,,,,,,,,,,,,,,,,,,,,,,,,,,,,,,,,,,,,,,,,,,,,,,,,,,,,,,,,,,,,,,,,,,,,,,,,,,,,,,,,,,,,,,,,,,,,
,,611ed2c05be8517aa0d6076b,2024-02-19_02h14.40.606,kallum_motion_pilot,2023.2.2,Win32,59.88023952,611ed2c05be8517aa0d6076b,65d2b6c8f2eece985d8e374c,65d2b983021102d09219337b,0.0398,0.0398,1,23,185,34,1,twoone,,,,,,,,,,,,,,,,,,,,,,,,,,,,,,,,,,,,,,,,,,,,,,,,,,,,,,,,,,,,,,,,,,,,,,,,,,,,,,,,,,,,,,,,,,,,,,,,,,,,,,,,,,,,,,,,,,,,,,,,,,,,,,,,,,,,,,,,,
,,611ed2c05be8517aa0d6076b,2024-02-19_02h14.40.606,kallum_motion_pilot,2023.2.2,Win32,59.88023952,611ed2c05be8517aa0d6076b,65d2b6c8f2eece985d8e374c,65d2b983021102d09219337b,0.04,0.04,1,24,186,154,1,sixfive,,,,,,,,,,,,,,,,,,,,,,,,,,,,,,,,,,,,,,,,,,,,,,,,,,,,,,,,,,,,,,,,,,,,,,,,,,,,,,,,,,,,,,,,,,,,,,,,,,,,,,,,,,,,,,,,,,,,,,,,,,,,,,,,,,,,,,,,,
,,611ed2c05be8517aa0d6076b,2024-02-19_02h14.40.606,kallum_motion_pilot,2023.2.2,Win32,59.88023952,611ed2c05be8517aa0d6076b,65d2b6c8f2eece985d8e374c,65d2b983021102d09219337b,0.04,0.0401,1,25,187,50,1,twoone,,,,,,,,,,,,,,,,,,,,,,,,,,,,,,,,,,,,,,,,,,,,,,,,,,,,,,,,,,,,,,,,,,,,,,,,,,,,,,,,,,,,,,,,,,,,,,,,,,,,,,,,,,,,,,,,,,,,,,,,,,,,,,,,,,,,,,,,,
,,611ed2c05be8517aa0d6076b,2024-02-19_02h14.40.606,kallum_motion_pilot,2023.2.2,Win32,59.88023952,611ed2c05be8517aa0d6076b,65d2b6c8f2eece985d8e374c,65d2b983021102d09219337b,0.0401,0.0402,1,26,188,115,1,sixeight,,,,,,,,,,,,,,,,,,,,,,,,,,,,,,,,,,,,,,,,,,,,,,,,,,,,,,,,,,,,,,,,,,,,,,,,,,,,,,,,,,,,,,,,,,,,,,,,,,,,,,,,,,,,,,,,,,,,,,,,,,,,,,,,,,,,,,,,,
,,611ed2c05be8517aa0d6076b,2024-02-19_02h14.40.606,kallum_motion_pilot,2023.2.2,Win32,59.88023952,611ed2c05be8517aa0d6076b,65d2b6c8f2eece985d8e374c,65d2b983021102d09219337b,0.0403,0.0403,1,27,189,64,1,onetwo,,,,,,,,,,,,,,,,,,,,,,,,,,,,,,,,,,,,,,,,,,,,,,,,,,,,,,,,,,,,,,,,,,,,,,,,,,,,,,,,,,,,,,,,,,,,,,,,,,,,,,,,,,,,,,,,,,,,,,,,,,,,,,,,,,,,,,,,,
,,611ed2c05be8517aa0d6076b,2024-02-19_02h14.40.606,kallum_motion_pilot,2023.2.2,Win32,59.88023952,611ed2c05be8517aa0d6076b,65d2b6c8f2eece985d8e374c,65d2b983021102d09219337b,0.0404,0.0404,1,28,190,159,1,eightseven,,,,,,,,,,,,,,,,,,,,,,,,,,,,,,,,,,,,,,,,,,,,,,,,,,,,,,,,,,,,,,,,,,,,,,,,,,,,,,,,,,,,,,,,,,,,,,,,,,,,,,,,,,,,,,,,,,,,,,,,,,,,,,,,,,,,,,,,,
,,611ed2c05be8517aa0d6076b,2024-02-19_02h14.40.606,kallum_motion_pilot,2023.2.2,Win32,59.88023952,611ed2c05be8517aa0d6076b,65d2b6c8f2eece985d8e374c,65d2b983021102d09219337b,0.0406,0.0406,1,29,191,125,1,seveneight,,,,,,,,,,,,,,,,,,,,,,,,,,,,,,,,,,,,,,,,,,,,,,,,,,,,,,,,,,,,,,,,,,,,,,,,,,,,,,,,,,,,,,,,,,,,,,,,,,,,,,,,,,,,,,,,,,,,,,,,,,,,,,,,,,,,,,,,,
,,611ed2c05be8517aa0d6076b,2024-02-19_02h14.40.606,kallum_motion_pilot,2023.2.2,Win32,59.88023952,611ed2c05be8517aa0d6076b,65d2b6c8f2eece985d8e374c,65d2b983021102d09219337b,0.0406,0.0407,1,30,192,133,1,seveneight,,,,,,,,,,,,,,,,,,,,,,,,,,,,,,,,,,,,,,,,,,,,,,,,,,,,,,,,,,,,,,,,,,,,,,,,,,,,,,,,,,,,,,,,,,,,,,,,,,,,,,,,,,,,,,,,,,,,,,,,,,,,,,,,,,,,,,,,,
,,611ed2c05be8517aa0d6076b,2024-02-19_02h14.40.606,kallum_motion_pilot,2023.2.2,Win32,59.88023952,611ed2c05be8517aa0d6076b,65d2b6c8f2eece985d8e374c,65d2b983021102d09219337b,0.0407,0.0407,1,31,193,25,1,onethree,,,,,,,,,,,,,,,,,,,,,,,,,,,,,,,,,,,,,,,,,,,,,,,,,,,,,,,,,,,,,,,,,,,,,,,,,,,,,,,,,,,,,,,,,,,,,,,,,,,,,,,,,,,,,,,,,,,,,,,,,,,,,,,,,,,,,,,,,
,,611ed2c05be8517aa0d6076b,2024-02-19_02h14.40.606,kallum_motion_pilot,2023.2.2,Win32,59.88023952,611ed2c05be8517aa0d6076b,65d2b6c8f2eece985d8e374c,65d2b983021102d09219337b,0.0408,0.0409,1,32,194,107,1,sixeight,,,,,,,,,,,,,,,,,,,,,,,,,,,,,,,,,,,,,,,,,,,,,,,,,,,,,,,,,,,,,,,,,,,,,,,,,,,,,,,,,,,,,,,,,,,,,,,,,,,,,,,,,,,,,,,,,,,,,,,,,,,,,,,,,,,,,,,,,
,,611ed2c05be8517aa0d6076b,2024-02-19_02h14.40.606,kallum_motion_pilot,2023.2.2,Win32,59.88023952,611ed2c05be8517aa0d6076b,65d2b6c8f2eece985d8e374c,65d2b983021102d09219337b,0.0409,0.041,1,33,195,16,1,onetwo,,,,,,,,,,,,,,,,,,,,,,,,,,,,,,,,,,,,,,,,,,,,,,,,,,,,,,,,,,,,,,,,,,,,,,,,,,,,,,,,,,,,,,,,,,,,,,,,,,,,,,,,,,,,,,,,,,,,,,,,,,,,,,,,,,,,,,,,,
,,611ed2c05be8517aa0d6076b,2024-02-19_02h14.40.606,kallum_motion_pilot,2023.2.2,Win32,59.88023952,611ed2c05be8517aa0d6076b,65d2b6c8f2eece985d8e374c,65d2b983021102d09219337b,0.0411,0.0411,1,34,196,74,1,twoone,,,,,,,,,,,,,,,,,,,,,,,,,,,,,,,,,,,,,,,,,,,,,,,,,,,,,,,,,,,,,,,,,,,,,,,,,,,,,,,,,,,,,,,,,,,,,,,,,,,,,,,,,,,,,,,,,,,,,,,,,,,,,,,,,,,,,,,,,
,,611ed2c05be8517aa0d6076b,2024-02-19_02h14.40.606,kallum_motion_pilot,2023.2.2,Win32,59.88023952,611ed2c05be8517aa0d6076b,65d2b6c8f2eece985d8e374c,65d2b983021102d09219337b,0.0412,0.0412,1,35,197,145,1,fiveseven,,,,,,,,,,,,,,,,,,,,,,,,,,,,,,,,,,,,,,,,,,,,,,,,,,,,,,,,,,,,,,,,,,,,,,,,,,,,,,,,,,,,,,,,,,,,,,,,,,,,,,,,,,,,,,,,,,,,,,,,,,,,,,,,,,,,,,,,,
,,611ed2c05be8517aa0d6076b,2024-02-19_02h14.40.606,kallum_motion_pilot,2023.2.2,Win32,59.88023952,611ed2c05be8517aa0d6076b,65d2b6c8f2eece985d8e374c,65d2b983021102d09219337b,0.0413,0.0414,1,36,198,67,1,twofour,,,,,,,,,,,,,,,,,,,,,,,,,,,,,,,,,,,,,,,,,,,,,,,,,,,,,,,,,,,,,,,,,,,,,,,,,,,,,,,,,,,,,,,,,,,,,,,,,,,,,,,,,,,,,,,,,,,,,,,,,,,,,,,,,,,,,,,,,
,,611ed2c05be8517aa0d6076b,2024-02-19_02h14.40.606,kallum_motion_pilot,2023.2.2,Win32,59.88023952,611ed2c05be8517aa0d6076b,65d2b6c8f2eece985d8e374c,65d2b983021102d09219337b,0.0414,0.0415,1,37,199,22,1,fourtwo,,,,,,,,,,,,,,,,,,,,,,,,,,,,,,,,,,,,,,,,,,,,,,,,,,,,,,,,,,,,,,,,,,,,,,,,,,,,,,,,,,,,,,,,,,,,,,,,,,,,,,,,,,,,,,,,,,,,,,,,,,,,,,,,,,,,,,,,,
,,611ed2c05be8517aa0d6076b,2024-02-19_02h14.40.606,kallum_motion_pilot,2023.2.2,Win32,59.88023952,611ed2c05be8517aa0d6076b,65d2b6c8f2eece985d8e374c,65d2b983021102d09219337b,0.0415,0.0415,1,38,200,68,1,threeone,,,,,,,,,,,,,,,,,,,,,,,,,,,,,,,,,,,,,,,,,,,,,,,,,,,,,,,,,,,,,,,,,,,,,,,,,,,,,,,,,,,,,,,,,,,,,,,,,,,,,,,,,,,,,,,,,,,,,,,,,,,,,,,,,,,,,,,,,
,,611ed2c05be8517aa0d6076b,2024-02-19_02h14.40.606,kallum_motion_pilot,2023.2.2,Win32,59.88023952,611ed2c05be8517aa0d6076b,65d2b6c8f2eece985d8e374c,65d2b983021102d09219337b,0.0416,0.0416,1,39,201,136,1,fivesix,,,,,,,,,,,,,,,,,,,,,,,,,,,,,,,,,,,,,,,,,,,,,,,,,,,,,,,,,,,,,,,,,,,,,,,,,,,,,,,,,,,,,,,,,,,,,,,,,,,,,,,,,,,,,,,,,,,,,,,,,,,,,,,,,,,,,,,,,
,,611ed2c05be8517aa0d6076b,2024-02-19_02h14.40.606,kallum_motion_pilot,2023.2.2,Win32,59.88023952,611ed2c05be8517aa0d6076b,65d2b6c8f2eece985d8e374c,65d2b983021102d09219337b,0.0418,0.0418,1,40,202,76,1,threeone,,,,,,,,,,,,,,,,,,,,,,,,,,,,,,,,,,,,,,,,,,,,,,,,,,,,,,,,,,,,,,,,,,,,,,,,,,,,,,,,,,,,,,,,,,,,,,,,,,,,,,,,,,,,,,,,,,,,,,,,,,,,,,,,,,,,,,,,,
,,611ed2c05be8517aa0d6076b,2024-02-19_02h14.40.606,kallum_motion_pilot,2023.2.2,Win32,59.88023952,611ed2c05be8517aa0d6076b,65d2b6c8f2eece985d8e374c,65d2b983021102d09219337b,0.0419,0.0419,1,41,203,58,1,twoone,,,,,,,,,,,,,,,,,,,,,,,,,,,,,,,,,,,,,,,,,,,,,,,,,,,,,,,,,,,,,,,,,,,,,,,,,,,,,,,,,,,,,,,,,,,,,,,,,,,,,,,,,,,,,,,,,,,,,,,,,,,,,,,,,,,,,,,,,
,,611ed2c05be8517aa0d6076b,2024-02-19_02h14.40.606,kallum_motion_pilot,2023.2.2,Win32,59.88023952,611ed2c05be8517aa0d6076b,65d2b6c8f2eece985d8e374c,65d2b983021102d09219337b,0.042,0.042,1,42,204,73,1,onethree,,,,,,,,,,,,,,,,,,,,,,,,,,,,,,,,,,,,,,,,,,,,,,,,,,,,,,,,,,,,,,,,,,,,,,,,,,,,,,,,,,,,,,,,,,,,,,,,,,,,,,,,,,,,,,,,,,,,,,,,,,,,,,,,,,,,,,,,,
,,611ed2c05be8517aa0d6076b,2024-02-19_02h14.40.606,kallum_motion_pilot,2023.2.2,Win32,59.88023952,611ed2c05be8517aa0d6076b,65d2b6c8f2eece985d8e374c,65d2b983021102d09219337b,0.0421,0.0421,1,43,205,72,1,onetwo,,,,,,,,,,,,,,,,,,,,,,,,,,,,,,,,,,,,,,,,,,,,,,,,,,,,,,,,,,,,,,,,,,,,,,,,,,,,,,,,,,,,,,,,,,,,,,,,,,,,,,,,,,,,,,,,,,,,,,,,,,,,,,,,,,,,,,,,,
,,611ed2c05be8517aa0d6076b,2024-02-19_02h14.40.606,kallum_motion_pilot,2023.2.2,Win32,59.88023952,611ed2c05be8517aa0d6076b,65d2b6c8f2eece985d8e374c,65d2b983021102d09219337b,0.0422,0.0422,1,44,206,130,1,sixfive,,,,,,,,,,,,,,,,,,,,,,,,,,,,,,,,,,,,,,,,,,,,,,,,,,,,,,,,,,,,,,,,,,,,,,,,,,,,,,,,,,,,,,,,,,,,,,,,,,,,,,,,,,,,,,,,,,,,,,,,,,,,,,,,,,,,,,,,,
,,611ed2c05be8517aa0d6076b,2024-02-19_02h14.40.606,kallum_motion_pilot,2023.2.2,Win32,59.88023952,611ed2c05be8517aa0d6076b,65d2b6c8f2eece985d8e374c,65d2b983021102d09219337b,0.0423,0.0424,1,45,207,106,1,sixfive,,,,,,,,,,,,,,,,,,,,,,,,,,,,,,,,,,,,,,,,,,,,,,,,,,,,,,,,,,,,,,,,,,,,,,,,,,,,,,,,,,,,,,,,,,,,,,,,,,,,,,,,,,,,,,,,,,,,,,,,,,,,,,,,,,,,,,,,,
,,611ed2c05be8517aa0d6076b,2024-02-19_02h14.40.606,kallum_motion_pilot,2023.2.2,Win32,59.88023952,611ed2c05be8517aa0d6076b,65d2b6c8f2eece985d8e374c,65d2b983021102d09219337b,0.0424,0.0425,1,46,208,111,1,eightseven,,,,,,,,,,,,,,,,,,,,,,,,,,,,,,,,,,,,,,,,,,,,,,,,,,,,,,,,,,,,,,,,,,,,,,,,,,,,,,,,,,,,,,,,,,,,,,,,,,,,,,,,,,,,,,,,,,,,,,,,,,,,,,,,,,,,,,,,,
,,611ed2c05be8517aa0d6076b,2024-02-19_02h14.40.606,kallum_motion_pilot,2023.2.2,Win32,59.88023952,611ed2c05be8517aa0d6076b,65d2b6c8f2eece985d8e374c,65d2b983021102d09219337b,0.0425,0.0426,1,47,209,91,1,sixeight,,,,,,,,,,,,,,,,,,,,,,,,,,,,,,,,,,,,,,,,,,,,,,,,,,,,,,,,,,,,,,,,,,,,,,,,,,,,,,,,,,,,,,,,,,,,,,,,,,,,,,,,,,,,,,,,,,,,,,,,,,,,,,,,,,,,,,,,,
,,611ed2c05be8517aa0d6076b,2024-02-19_02h14.40.606,kallum_motion_pilot,2023.2.2,Win32,59.88023952,611ed2c05be8517aa0d6076b,65d2b6c8f2eece985d8e374c,65d2b983021102d09219337b,0.0426,0.0427,1,48,210,148,1,sevenfive,,,,,,,,,,,,,,,,,,,,,,,,,,,,,,,,,,,,,,,,,,,,,,,,,,,,,,,,,,,,,,,,,,,,,,,,,,,,,,,,,,,,,,,,,,,,,,,,,,,,,,,,,,,,,,,,,,,,,,,,,,,,,,,,,,,,,,,,,
,,611ed2c05be8517aa0d6076b,2024-02-19_02h14.40.606,kallum_motion_pilot,2023.2.2,Win32,59.88023952,611ed2c05be8517aa0d6076b,65d2b6c8f2eece985d8e374c,65d2b983021102d09219337b,0.0427,0.0428,1,49,211,96,1,fivesix,,,,,,,,,,,,,,,,,,,,,,,,,,,,,,,,,,,,,,,,,,,,,,,,,,,,,,,,,,,,,,,,,,,,,,,,,,,,,,,,,,,,,,,,,,,,,,,,,,,,,,,,,,,,,,,,,,,,,,,,,,,,,,,,,,,,,,,,,
,,611ed2c05be8517aa0d6076b,2024-02-19_02h14.40.606,kallum_motion_pilot,2023.2.2,Win32,59.88023952,611ed2c05be8517aa0d6076b,65d2b6c8f2eece985d8e374c,65d2b983021102d09219337b,0.0429,0.0429,1,50,212,141,1,seveneight,,,,,,,,,,,,,,,,,,,,,,,,,,,,,,,,,,,,,,,,,,,,,,,,,,,,,,,,,,,,,,,,,,,,,,,,,,,,,,,,,,,,,,,,,,,,,,,,,,,,,,,,,,,,,,,,,,,,,,,,,,,,,,,,,,,,,,,,,
,,611ed2c05be8517aa0d6076b,2024-02-19_02h14.40.606,kallum_motion_pilot,2023.2.2,Win32,59.88023952,611ed2c05be8517aa0d6076b,65d2b6c8f2eece985d8e374c,65d2b983021102d09219337b,0.0429,0.043,1,51,213,114,1,sixfive,,,,,,,,,,,,,,,,,,,,,,,,,,,,,,,,,,,,,,,,,,,,,,,,,,,,,,,,,,,,,,,,,,,,,,,,,,,,,,,,,,,,,,,,,,,,,,,,,,,,,,,,,,,,,,,,,,,,,,,,,,,,,,,,,,,,,,,,,
,,611ed2c05be8517aa0d6076b,2024-02-19_02h14.40.606,kallum_motion_pilot,2023.2.2,Win32,59.88023952,611ed2c05be8517aa0d6076b,65d2b6c8f2eece985d8e374c,65d2b983021102d09219337b,0.043,0.0431,1,52,214,38,1,fourtwo,,,,,,,,,,,,,,,,,,,,,,,,,,,,,,,,,,,,,,,,,,,,,,,,,,,,,,,,,,,,,,,,,,,,,,,,,,,,,,,,,,,,,,,,,,,,,,,,,,,,,,,,,,,,,,,,,,,,,,,,,,,,,,,,,,,,,,,,,
,,611ed2c05be8517aa0d6076b,2024-02-19_02h14.40.606,kallum_motion_pilot,2023.2.2,Win32,59.88023952,611ed2c05be8517aa0d6076b,65d2b6c8f2eece985d8e374c,65d2b983021102d09219337b,0.0432,0.0432,1,53,215,142,1,eightsix,,,,,,,,,,,,,,,,,,,,,,,,,,,,,,,,,,,,,,,,,,,,,,,,,,,,,,,,,,,,,,,,,,,,,,,,,,,,,,,,,,,,,,,,,,,,,,,,,,,,,,,,,,,,,,,,,,,,,,,,,,,,,,,,,,,,,,,,,
,,611ed2c05be8517aa0d6076b,2024-02-19_02h14.40.606,kallum_motion_pilot,2023.2.2,Win32,59.88023952,611ed2c05be8517aa0d6076b,65d2b6c8f2eece985d8e374c,65d2b983021102d09219337b,0.0433,0.0434,1,54,216,122,1,sixfive,,,,,,,,,,,,,,,,,,,,,,,,,,,,,,,,,,,,,,,,,,,,,,,,,,,,,,,,,,,,,,,,,,,,,,,,,,,,,,,,,,,,,,,,,,,,,,,,,,,,,,,,,,,,,,,,,,,,,,,,,,,,,,,,,,,,,,,,,
,,611ed2c05be8517aa0d6076b,2024-02-19_02h14.40.606,kallum_motion_pilot,2023.2.2,Win32,59.88023952,611ed2c05be8517aa0d6076b,65d2b6c8f2eece985d8e374c,65d2b983021102d09219337b,0.0434,0.0434,1,55,217,118,1,eightsix,,,,,,,,,,,,,,,,,,,,,,,,,,,,,,,,,,,,,,,,,,,,,,,,,,,,,,,,,,,,,,,,,,,,,,,,,,,,,,,,,,,,,,,,,,,,,,,,,,,,,,,,,,,,,,,,,,,,,,,,,,,,,,,,,,,,,,,,,
,,611ed2c05be8517aa0d6076b,2024-02-19_02h14.40.606,kallum_motion_pilot,2023.2.2,Win32,59.88023952,611ed2c05be8517aa0d6076b,65d2b6c8f2eece985d8e374c,65d2b983021102d09219337b,0.0435,0.0435,1,56,218,26,1,twoone,,,,,,,,,,,,,,,,,,,,,,,,,,,,,,,,,,,,,,,,,,,,,,,,,,,,,,,,,,,,,,,,,,,,,,,,,,,,,,,,,,,,,,,,,,,,,,,,,,,,,,,,,,,,,,,,,,,,,,,,,,,,,,,,,,,,,,,,,
,,611ed2c05be8517aa0d6076b,2024-02-19_02h14.40.606,kallum_motion_pilot,2023.2.2,Win32,59.88023952,611ed2c05be8517aa0d6076b,65d2b6c8f2eece985d8e374c,65d2b983021102d09219337b,0.0436,0.0437,1,57,219,147,1,sixeight,,,,,,,,,,,,,,,,,,,,,,,,,,,,,,,,,,,,,,,,,,,,,,,,,,,,,,,,,,,,,,,,,,,,,,,,,,,,,,,,,,,,,,,,,,,,,,,,,,,,,,,,,,,,,,,,,,,,,,,,,,,,,,,,,,,,,,,,,
,,611ed2c05be8517aa0d6076b,2024-02-19_02h14.40.606,kallum_motion_pilot,2023.2.2,Win32,59.88023952,611ed2c05be8517aa0d6076b,65d2b6c8f2eece985d8e374c,65d2b983021102d09219337b,0.0437,0.0438,1,58,220,102,1,eightsix,,,,,,,,,,,,,,,,,,,,,,,,,,,,,,,,,,,,,,,,,,,,,,,,,,,,,,,,,,,,,,,,,,,,,,,,,,,,,,,,,,,,,,,,,,,,,,,,,,,,,,,,,,,,,,,,,,,,,,,,,,,,,,,,,,,,,,,,,
,,611ed2c05be8517aa0d6076b,2024-02-19_02h14.40.606,kallum_motion_pilot,2023.2.2,Win32,59.88023952,611ed2c05be8517aa0d6076b,65d2b6c8f2eece985d8e374c,65d2b983021102d09219337b,0.0438,0.0438,1,59,221,14,1,fourtwo,,,,,,,,,,,,,,,,,,,,,,,,,,,,,,,,,,,,,,,,,,,,,,,,,,,,,,,,,,,,,,,,,,,,,,,,,,,,,,,,,,,,,,,,,,,,,,,,,,,,,,,,,,,,,,,,,,,,,,,,,,,,,,,,,,,,,,,,,
,,611ed2c05be8517aa0d6076b,2024-02-19_02h14.40.606,kallum_motion_pilot,2023.2.2,Win32,59.88023952,611ed2c05be8517aa0d6076b,65d2b6c8f2eece985d8e374c,65d2b983021102d09219337b,0.0439,0.044,1,60,222,160,1,fivesix,,,,,,,,,,,,,,,,,,,,,,,,,,,,,,,,,,,,,,,,,,,,,,,,,,,,,,,,,,,,,,,,,,,,,,,,,,,,,,,,,,,,,,,,,,,,,,,,,,,,,,,,,,,,,,,,,,,,,,,,,,,,,,,,,,,,,,,,,
,,611ed2c05be8517aa0d6076b,2024-02-19_02h14.40.606,kallum_motion_pilot,2023.2.2,Win32,59.88023952,611ed2c05be8517aa0d6076b,65d2b6c8f2eece985d8e374c,65d2b983021102d09219337b,0.0441,0.0441,1,61,223,112,1,fivesix,,,,,,,,,,,,,,,,,,,,,,,,,,,,,,,,,,,,,,,,,,,,,,,,,,,,,,,,,,,,,,,,,,,,,,,,,,,,,,,,,,,,,,,,,,,,,,,,,,,,,,,,,,,,,,,,,,,,,,,,,,,,,,,,,,,,,,,,,
,,611ed2c05be8517aa0d6076b,2024-02-19_02h14.40.606,kallum_motion_pilot,2023.2.2,Win32,59.88023952,611ed2c05be8517aa0d6076b,65d2b6c8f2eece985d8e374c,65d2b983021102d09219337b,0.0442,0.0442,1,62,224,113,1,fiveseven,,,,,,,,,,,,,,,,,,,,,,,,,,,,,,,,,,,,,,,,,,,,,,,,,,,,,,,,,,,,,,,,,,,,,,,,,,,,,,,,,,,,,,,,,,,,,,,,,,,,,,,,,,,,,,,,,,,,,,,,,,,,,,,,,,,,,,,,,
,,611ed2c05be8517aa0d6076b,2024-02-19_02h14.40.606,kallum_motion_pilot,2023.2.2,Win32,59.88023952,611ed2c05be8517aa0d6076b,65d2b6c8f2eece985d8e374c,65d2b983021102d09219337b,0.0443,0.0443,1,63,225,110,1,eightsix,,,,,,,,,,,,,,,,,,,,,,,,,,,,,,,,,,,,,,,,,,,,,,,,,,,,,,,,,,,,,,,,,,,,,,,,,,,,,,,,,,,,,,,,,,,,,,,,,,,,,,,,,,,,,,,,,,,,,,,,,,,,,,,,,,,,,,,,,
,,611ed2c05be8517aa0d6076b,2024-02-19_02h14.40.606,kallum_motion_pilot,2023.2.2,Win32,59.88023952,611ed2c05be8517aa0d6076b,65d2b6c8f2eece985d8e374c,65d2b983021102d09219337b,0.0444,0.0445,1,64,226,155,1,sixeight,,,,,,,,,,,,,,,,,,,,,,,,,,,,,,,,,,,,,,,,,,,,,,,,,,,,,,,,,,,,,,,,,,,,,,,,,,,,,,,,,,,,,,,,,,,,,,,,,,,,,,,,,,,,,,,,,,,,,,,,,,,,,,,,,,,,,,,,,
,,611ed2c05be8517aa0d6076b,2024-02-19_02h14.40.606,kallum_motion_pilot,2023.2.2,Win32,59.88023952,611ed2c05be8517aa0d6076b,65d2b6c8f2eece985d8e374c,65d2b983021102d09219337b,0.0445,0.0446,1,65,227,137,1,fiveseven,,,,,,,,,,,,,,,,,,,,,,,,,,,,,,,,,,,,,,,,,,,,,,,,,,,,,,,,,,,,,,,,,,,,,,,,,,,,,,,,,,,,,,,,,,,,,,,,,,,,,,,,,,,,,,,,,,,,,,,,,,,,,,,,,,,,,,,,,
,,611ed2c05be8517aa0d6076b,2024-02-19_02h14.40.606,kallum_motion_pilot,2023.2.2,Win32,59.88023952,611ed2c05be8517aa0d6076b,65d2b6c8f2eece985d8e374c,65d2b983021102d09219337b,0.0446,0.0447,1,66,228,150,1,eightsix,,,,,,,,,,,,,,,,,,,,,,,,,,,,,,,,,,,,,,,,,,,,,,,,,,,,,,,,,,,,,,,,,,,,,,,,,,,,,,,,,,,,,,,,,,,,,,,,,,,,,,,,,,,,,,,,,,,,,,,,,,,,,,,,,,,,,,,,,
,,611ed2c05be8517aa0d6076b,2024-02-19_02h14.40.606,kallum_motion_pilot,2023.2.2,Win32,59.88023952,611ed2c05be8517aa0d6076b,65d2b6c8f2eece985d8e374c,65d2b983021102d09219337b,0.0447,0.0448,1,67,229,54,1,fourtwo,,,,,,,,,,,,,,,,,,,,,,,,,,,,,,,,,,,,,,,,,,,,,,,,,,,,,,,,,,,,,,,,,,,,,,,,,,,,,,,,,,,,,,,,,,,,,,,,,,,,,,,,,,,,,,,,,,,,,,,,,,,,,,,,,,,,,,,,,
,,611ed2c05be8517aa0d6076b,2024-02-19_02h14.40.606,kallum_motion_pilot,2023.2.2,Win32,59.88023952,611ed2c05be8517aa0d6076b,65d2b6c8f2eece985d8e374c,65d2b983021102d09219337b,0.0449,0.045,1,68,230,10,1,twoone,,,,,,,,,,,,,,,,,,,,,,,,,,,,,,,,,,,,,,,,,,,,,,,,,,,,,,,,,,,,,,,,,,,,,,,,,,,,,,,,,,,,,,,,,,,,,,,,,,,,,,,,,,,,,,,,,,,,,,,,,,,,,,,,,,,,,,,,,
,,611ed2c05be8517aa0d6076b,2024-02-19_02h14.40.606,kallum_motion_pilot,2023.2.2,Win32,59.88023952,611ed2c05be8517aa0d6076b,65d2b6c8f2eece985d8e374c,65d2b983021102d09219337b,0.045,0.045,1,69,231,120,1,fivesix,,,,,,,,,,,,,,,,,,,,,,,,,,,,,,,,,,,,,,,,,,,,,,,,,,,,,,,,,,,,,,,,,,,,,,,,,,,,,,,,,,,,,,,,,,,,,,,,,,,,,,,,,,,,,,,,,,,,,,,,,,,,,,,,,,,,,,,,,
,,611ed2c05be8517aa0d6076b,2024-02-19_02h14.40.606,kallum_motion_pilot,2023.2.2,Win32,59.88023952,611ed2c05be8517aa0d6076b,65d2b6c8f2eece985d8e374c,65d2b983021102d09219337b,0.0451,0.0452,1,70,232,87,1,eightseven,,,,,,,,,,,,,,,,,,,,,,,,,,,,,,,,,,,,,,,,,,,,,,,,,,,,,,,,,,,,,,,,,,,,,,,,,,,,,,,,,,,,,,,,,,,,,,,,,,,,,,,,,,,,,,,,,,,,,,,,,,,,,,,,,,,,,,,,,
,,611ed2c05be8517aa0d6076b,2024-02-19_02h14.40.606,kallum_motion_pilot,2023.2.2,Win32,59.88023952,611ed2c05be8517aa0d6076b,65d2b6c8f2eece985d8e374c,65d2b983021102d09219337b,0.0453,0.0453,1,71,233,139,1,sixeight,,,,,,,,,,,,,,,,,,,,,,,,,,,,,,,,,,,,,,,,,,,,,,,,,,,,,,,,,,,,,,,,,,,,,,,,,,,,,,,,,,,,,,,,,,,,,,,,,,,,,,,,,,,,,,,,,,,,,,,,,,,,,,,,,,,,,,,,,
,,611ed2c05be8517aa0d6076b,2024-02-19_02h14.40.606,kallum_motion_pilot,2023.2.2,Win32,59.88023952,611ed2c05be8517aa0d6076b,65d2b6c8f2eece985d8e374c,65d2b983021102d09219337b,0.0453,0.0454,1,72,234,90,1,sixfive,,,,,,,,,,,,,,,,,,,,,,,,,,,,,,,,,,,,,,,,,,,,,,,,,,,,,,,,,,,,,,,,,,,,,,,,,,,,,,,,,,,,,,,,,,,,,,,,,,,,,,,,,,,,,,,,,,,,,,,,,,,,,,,,,,,,,,,,,
,,611ed2c05be8517aa0d6076b,2024-02-19_02h14.40.606,kallum_motion_pilot,2023.2.2,Win32,59.88023952,611ed2c05be8517aa0d6076b,65d2b6c8f2eece985d8e374c,65d2b983021102d09219337b,0.0454,0.0455,1,73,235,49,1,onethree,,,,,,,,,,,,,,,,,,,,,,,,,,,,,,,,,,,,,,,,,,,,,,,,,,,,,,,,,,,,,,,,,,,,,,,,,,,,,,,,,,,,,,,,,,,,,,,,,,,,,,,,,,,,,,,,,,,,,,,,,,,,,,,,,,,,,,,,,
,,611ed2c05be8517aa0d6076b,2024-02-19_02h14.40.606,kallum_motion_pilot,2023.2.2,Win32,59.88023952,611ed2c05be8517aa0d6076b,65d2b6c8f2eece985d8e374c,65d2b983021102d09219337b,0.0455,0.0456,1,74,236,33,1,onethree,,,,,,,,,,,,,,,,,,,,,,,,,,,,,,,,,,,,,,,,,,,,,,,,,,,,,,,,,,,,,,,,,,,,,,,,,,,,,,,,,,,,,,,,,,,,,,,,,,,,,,,,,,,,,,,,,,,,,,,,,,,,,,,,,,,,,,,,,
,,611ed2c05be8517aa0d6076b,2024-02-19_02h14.40.606,kallum_motion_pilot,2023.2.2,Win32,59.88023952,611ed2c05be8517aa0d6076b,65d2b6c8f2eece985d8e374c,65d2b983021102d09219337b,0.0457,0.0458,1,75,237,3,1,twofour,,,,,,,,,,,,,,,,,,,,,,,,,,,,,,,,,,,,,,,,,,,,,,,,,,,,,,,,,,,,,,,,,,,,,,,,,,,,,,,,,,,,,,,,,,,,,,,,,,,,,,,,,,,,,,,,,,,,,,,,,,,,,,,,,,,,,,,,,
,,611ed2c05be8517aa0d6076b,2024-02-19_02h14.40.606,kallum_motion_pilot,2023.2.2,Win32,59.88023952,611ed2c05be8517aa0d6076b,65d2b6c8f2eece985d8e374c,65d2b983021102d09219337b,0.0459,0.0459,1,76,238,126,1,eightsix,,,,,,,,,,,,,,,,,,,,,,,,,,,,,,,,,,,,,,,,,,,,,,,,,,,,,,,,,,,,,,,,,,,,,,,,,,,,,,,,,,,,,,,,,,,,,,,,,,,,,,,,,,,,,,,,,,,,,,,,,,,,,,,,,,,,,,,,,
,,611ed2c05be8517aa0d6076b,2024-02-19_02h14.40.606,kallum_motion_pilot,2023.2.2,Win32,59.88023952,611ed2c05be8517aa0d6076b,65d2b6c8f2eece985d8e374c,65d2b983021102d09219337b,0.046,0.046,1,77,239,104,1,fivesix,,,,,,,,,,,,,,,,,,,,,,,,,,,,,,,,,,,,,,,,,,,,,,,,,,,,,,,,,,,,,,,,,,,,,,,,,,,,,,,,,,,,,,,,,,,,,,,,,,,,,,,,,,,,,,,,,,,,,,,,,,,,,,,,,,,,,,,,,
,,611ed2c05be8517aa0d6076b,2024-02-19_02h14.40.606,kallum_motion_pilot,2023.2.2,Win32,59.88023952,611ed2c05be8517aa0d6076b,65d2b6c8f2eece985d8e374c,65d2b983021102d09219337b,0.0461,0.0461,1,78,240,5,1,threefour,,,,,,,,,,,,,,,,,,,,,,,,,,,,,,,,,,,,,,,,,,,,,,,,,,,,,,,,,,,,,,,,,,,,,,,,,,,,,,,,,,,,,,,,,,,,,,,,,,,,,,,,,,,,,,,,,,,,,,,,,,,,,,,,,,,,,,,,,
,,611ed2c05be8517aa0d6076b,2024-02-19_02h14.40.606,kallum_motion_pilot,2023.2.2,Win32,59.88023952,611ed2c05be8517aa0d6076b,65d2b6c8f2eece985d8e374c,65d2b983021102d09219337b,0.0462,0.0462,1,79,241,75,1,twofour,,,,,,,,,,,,,,,,,,,,,,,,,,,,,,,,,,,,,,,,,,,,,,,,,,,,,,,,,,,,,,,,,,,,,,,,,,,,,,,,,,,,,,,,,,,,,,,,,,,,,,,,,,,,,,,,,,,,,,,,,,,,,,,,,,,,,,,,,
,,611ed2c05be8517aa0d6076b,2024-02-19_02h14.40.606,kallum_motion_pilot,2023.2.2,Win32,59.88023952,611ed2c05be8517aa0d6076b,65d2b6c8f2eece985d8e374c,65d2b983021102d09219337b,0.0463,0.0464,1,80,242,131,1,sixeight,,,,,,,,,,,,,,,,,,,,,,,,,,,,,,,,,,,,,,,,,,,,,,,,,,,,,,,,,,,,,,,,,,,,,,,,,,,,,,,,,,,,,,,,,,,,,,,,,,,,,,,,,,,,,,,,,,,,,,,,,,,,,,,,,,,,,,,,,
,,611ed2c05be8517aa0d6076b,2024-02-19_02h14.40.606,kallum_motion_pilot,2023.2.2,Win32,59.88023952,611ed2c05be8517aa0d6076b,65d2b6c8f2eece985d8e374c,65d2b983021102d09219337b,0.0464,0.0466,1,81,243,0,1,onetwo,,,,,,,,,,,,,,,,,,,,,,,,,,,,,,,,,,,,,,,,,,,,,,,,,,,,,,,,,,,,,,,,,,,,,,,,,,,,,,,,,,,,,,,,,,,,,,,,,,,,,,,,,,,,,,,,,,,,,,,,,,,,,,,,,,,,,,,,,
,,611ed2c05be8517aa0d6076b,2024-02-19_02h14.40.606,kallum_motion_pilot,2023.2.2,Win32,59.88023952,611ed2c05be8517aa0d6076b,65d2b6c8f2eece985d8e374c,65d2b983021102d09219337b,0.0467,0.0468,1,82,244,62,1,fourtwo,,,,,,,,,,,,,,,,,,,,,,,,,,,,,,,,,,,,,,,,,,,,,,,,,,,,,,,,,,,,,,,,,,,,,,,,,,,,,,,,,,,,,,,,,,,,,,,,,,,,,,,,,,,,,,,,,,,,,,,,,,,,,,,,,,,,,,,,,
,,611ed2c05be8517aa0d6076b,2024-02-19_02h14.40.606,kallum_motion_pilot,2023.2.2,Win32,59.88023952,611ed2c05be8517aa0d6076b,65d2b6c8f2eece985d8e374c,65d2b983021102d09219337b,0.0469,0.047,1,83,245,20,1,threeone,,,,,,,,,,,,,,,,,,,,,,,,,,,,,,,,,,,,,,,,,,,,,,,,,,,,,,,,,,,,,,,,,,,,,,,,,,,,,,,,,,,,,,,,,,,,,,,,,,,,,,,,,,,,,,,,,,,,,,,,,,,,,,,,,,,,,,,,,
,,611ed2c05be8517aa0d6076b,2024-02-19_02h14.40.606,kallum_motion_pilot,2023.2.2,Win32,59.88023952,611ed2c05be8517aa0d6076b,65d2b6c8f2eece985d8e374c,65d2b983021102d09219337b,0.0472,0.0472,1,84,246,51,1,twofour,,,,,,,,,,,,,,,,,,,,,,,,,,,,,,,,,,,,,,,,,,,,,,,,,,,,,,,,,,,,,,,,,,,,,,,,,,,,,,,,,,,,,,,,,,,,,,,,,,,,,,,,,,,,,,,,,,,,,,,,,,,,,,,,,,,,,,,,,
,,611ed2c05be8517aa0d6076b,2024-02-19_02h14.40.606,kallum_motion_pilot,2023.2.2,Win32,59.88023952,611ed2c05be8517aa0d6076b,65d2b6c8f2eece985d8e374c,65d2b983021102d09219337b,0.0473,0.0474,1,85,247,37,1,threefour,,,,,,,,,,,,,,,,,,,,,,,,,,,,,,,,,,,,,,,,,,,,,,,,,,,,,,,,,,,,,,,,,,,,,,,,,,,,,,,,,,,,,,,,,,,,,,,,,,,,,,,,,,,,,,,,,,,,,,,,,,,,,,,,,,,,,,,,,
,,611ed2c05be8517aa0d6076b,2024-02-19_02h14.40.606,kallum_motion_pilot,2023.2.2,Win32,59.88023952,611ed2c05be8517aa0d6076b,65d2b6c8f2eece985d8e374c,65d2b983021102d09219337b,0.0475,0.0475,1,86,248,103,1,eightseven,,,,,,,,,,,,,,,,,,,,,,,,,,,,,,,,,,,,,,,,,,,,,,,,,,,,,,,,,,,,,,,,,,,,,,,,,,,,,,,,,,,,,,,,,,,,,,,,,,,,,,,,,,,,,,,,,,,,,,,,,,,,,,,,,,,,,,,,,
,,611ed2c05be8517aa0d6076b,2024-02-19_02h14.40.606,kallum_motion_pilot,2023.2.2,Win32,59.88023952,611ed2c05be8517aa0d6076b,65d2b6c8f2eece985d8e374c,65d2b983021102d09219337b,0.0476,0.0476,1,87,249,44,1,threeone,,,,,,,,,,,,,,,,,,,,,,,,,,,,,,,,,,,,,,,,,,,,,,,,,,,,,,,,,,,,,,,,,,,,,,,,,,,,,,,,,,,,,,,,,,,,,,,,,,,,,,,,,,,,,,,,,,,,,,,,,,,,,,,,,,,,,,,,,
,,611ed2c05be8517aa0d6076b,2024-02-19_02h14.40.606,kallum_motion_pilot,2023.2.2,Win32,59.88023952,611ed2c05be8517aa0d6076b,65d2b6c8f2eece985d8e374c,65d2b983021102d09219337b,0.0477,0.0478,1,88,250,59,1,twofour,,,,,,,,,,,,,,,,,,,,,,,,,,,,,,,,,,,,,,,,,,,,,,,,,,,,,,,,,,,,,,,,,,,,,,,,,,,,,,,,,,,,,,,,,,,,,,,,,,,,,,,,,,,,,,,,,,,,,,,,,,,,,,,,,,,,,,,,,
,,611ed2c05be8517aa0d6076b,2024-02-19_02h14.40.606,kallum_motion_pilot,2023.2.2,Win32,59.88023952,611ed2c05be8517aa0d6076b,65d2b6c8f2eece985d8e374c,65d2b983021102d09219337b,0.0479,0.0479,1,89,251,129,1,fiveseven,,,,,,,,,,,,,,,,,,,,,,,,,,,,,,,,,,,,,,,,,,,,,,,,,,,,,,,,,,,,,,,,,,,,,,,,,,,,,,,,,,,,,,,,,,,,,,,,,,,,,,,,,,,,,,,,,,,,,,,,,,,,,,,,,,,,,,,,,
,,611ed2c05be8517aa0d6076b,2024-02-19_02h14.40.606,kallum_motion_pilot,2023.2.2,Win32,59.88023952,611ed2c05be8517aa0d6076b,65d2b6c8f2eece985d8e374c,65d2b983021102d09219337b,0.048,0.048,1,90,252,82,1,sixfive,,,,,,,,,,,,,,,,,,,,,,,,,,,,,,,,,,,,,,,,,,,,,,,,,,,,,,,,,,,,,,,,,,,,,,,,,,,,,,,,,,,,,,,,,,,,,,,,,,,,,,,,,,,,,,,,,,,,,,,,,,,,,,,,,,,,,,,,,
,,611ed2c05be8517aa0d6076b,2024-02-19_02h14.40.606,kallum_motion_pilot,2023.2.2,Win32,59.88023952,611ed2c05be8517aa0d6076b,65d2b6c8f2eece985d8e374c,65d2b983021102d09219337b,0.0481,0.0482,1,91,253,9,1,onethree,,,,,,,,,,,,,,,,,,,,,,,,,,,,,,,,,,,,,,,,,,,,,,,,,,,,,,,,,,,,,,,,,,,,,,,,,,,,,,,,,,,,,,,,,,,,,,,,,,,,,,,,,,,,,,,,,,,,,,,,,,,,,,,,,,,,,,,,,
,,611ed2c05be8517aa0d6076b,2024-02-19_02h14.40.606,kallum_motion_pilot,2023.2.2,Win32,59.88023952,611ed2c05be8517aa0d6076b,65d2b6c8f2eece985d8e374c,65d2b983021102d09219337b,0.0482,0.0482,1,92,254,123,1,sixeight,,,,,,,,,,,,,,,,,,,,,,,,,,,,,,,,,,,,,,,,,,,,,,,,,,,,,,,,,,,,,,,,,,,,,,,,,,,,,,,,,,,,,,,,,,,,,,,,,,,,,,,,,,,,,,,,,,,,,,,,,,,,,,,,,,,,,,,,,
,,611ed2c05be8517aa0d6076b,2024-02-19_02h14.40.606,kallum_motion_pilot,2023.2.2,Win32,59.88023952,611ed2c05be8517aa0d6076b,65d2b6c8f2eece985d8e374c,65d2b983021102d09219337b,0.0483,0.0485,1,93,255,108,1,sevenfive,,,,,,,,,,,,,,,,,,,,,,,,,,,,,,,,,,,,,,,,,,,,,,,,,,,,,,,,,,,,,,,,,,,,,,,,,,,,,,,,,,,,,,,,,,,,,,,,,,,,,,,,,,,,,,,,,,,,,,,,,,,,,,,,,,,,,,,,,
,,611ed2c05be8517aa0d6076b,2024-02-19_02h14.40.606,kallum_motion_pilot,2023.2.2,Win32,59.88023952,611ed2c05be8517aa0d6076b,65d2b6c8f2eece985d8e374c,65d2b983021102d09219337b,0.0485,0.0486,1,94,256,146,1,sixfive,,,,,,,,,,,,,,,,,,,,,,,,,,,,,,,,,,,,,,,,,,,,,,,,,,,,,,,,,,,,,,,,,,,,,,,,,,,,,,,,,,,,,,,,,,,,,,,,,,,,,,,,,,,,,,,,,,,,,,,,,,,,,,,,,,,,,,,,,
,,611ed2c05be8517aa0d6076b,2024-02-19_02h14.40.606,kallum_motion_pilot,2023.2.2,Win32,59.88023952,611ed2c05be8517aa0d6076b,65d2b6c8f2eece985d8e374c,65d2b983021102d09219337b,0.0486,0.0487,1,95,257,79,1,eightseven,,,,,,,,,,,,,,,,,,,,,,,,,,,,,,,,,,,,,,,,,,,,,,,,,,,,,,,,,,,,,,,,,,,,,,,,,,,,,,,,,,,,,,,,,,,,,,,,,,,,,,,,,,,,,,,,,,,,,,,,,,,,,,,,,,,,,,,,,
,,611ed2c05be8517aa0d6076b,2024-02-19_02h14.40.606,kallum_motion_pilot,2023.2.2,Win32,59.88023952,611ed2c05be8517aa0d6076b,65d2b6c8f2eece985d8e374c,65d2b983021102d09219337b,0.0487,0.0488,1,96,258,17,1,onethree,,,,,,,,,,,,,,,,,,,,,,,,,,,,,,,,,,,,,,,,,,,,,,,,,,,,,,,,,,,,,,,,,,,,,,,,,,,,,,,,,,,,,,,,,,,,,,,,,,,,,,,,,,,,,,,,,,,,,,,,,,,,,,,,,,,,,,,,,
,,611ed2c05be8517aa0d6076b,2024-02-19_02h14.40.606,kallum_motion_pilot,2023.2.2,Win32,59.88023952,611ed2c05be8517aa0d6076b,65d2b6c8f2eece985d8e374c,65d2b983021102d09219337b,0.0489,0.0489,1,97,259,135,1,eightseven,,,,,,,,,,,,,,,,,,,,,,,,,,,,,,,,,,,,,,,,,,,,,,,,,,,,,,,,,,,,,,,,,,,,,,,,,,,,,,,,,,,,,,,,,,,,,,,,,,,,,,,,,,,,,,,,,,,,,,,,,,,,,,,,,,,,,,,,,
,,611ed2c05be8517aa0d6076b,2024-02-19_02h14.40.606,kallum_motion_pilot,2023.2.2,Win32,59.88023952,611ed2c05be8517aa0d6076b,65d2b6c8f2eece985d8e374c,65d2b983021102d09219337b,0.049,0.049,1,98,260,40,1,onetwo,,,,,,,,,,,,,,,,,,,,,,,,,,,,,,,,,,,,,,,,,,,,,,,,,,,,,,,,,,,,,,,,,,,,,,,,,,,,,,,,,,,,,,,,,,,,,,,,,,,,,,,,,,,,,,,,,,,,,,,,,,,,,,,,,,,,,,,,,
,,611ed2c05be8517aa0d6076b,2024-02-19_02h14.40.606,kallum_motion_pilot,2023.2.2,Win32,59.88023952,611ed2c05be8517aa0d6076b,65d2b6c8f2eece985d8e374c,65d2b983021102d09219337b,0.0491,0.0492,1,99,261,140,1,sevenfive,,,,,,,,,,,,,,,,,,,,,,,,,,,,,,,,,,,,,,,,,,,,,,,,,,,,,,,,,,,,,,,,,,,,,,,,,,,,,,,,,,,,,,,,,,,,,,,,,,,,,,,,,,,,,,,,,,,,,,,,,,,,,,,,,,,,,,,,,
,,611ed2c05be8517aa0d6076b,2024-02-19_02h14.40.606,kallum_motion_pilot,2023.2.2,Win32,59.88023952,611ed2c05be8517aa0d6076b,65d2b6c8f2eece985d8e374c,65d2b983021102d09219337b,0.0492,0.0493,1,100,262,19,1,twofour,,,,,,,,,,,,,,,,,,,,,,,,,,,,,,,,,,,,,,,,,,,,,,,,,,,,,,,,,,,,,,,,,,,,,,,,,,,,,,,,,,,,,,,,,,,,,,,,,,,,,,,,,,,,,,,,,,,,,,,,,,,,,,,,,,,,,,,,,
,,611ed2c05be8517aa0d6076b,2024-02-19_02h14.40.606,kallum_motion_pilot,2023.2.2,Win32,59.88023952,611ed2c05be8517aa0d6076b,65d2b6c8f2eece985d8e374c,65d2b983021102d09219337b,0.0493,0.0494,1,101,263,86,1,eightsix,,,,,,,,,,,,,,,,,,,,,,,,,,,,,,,,,,,,,,,,,,,,,,,,,,,,,,,,,,,,,,,,,,,,,,,,,,,,,,,,,,,,,,,,,,,,,,,,,,,,,,,,,,,,,,,,,,,,,,,,,,,,,,,,,,,,,,,,,
,,611ed2c05be8517aa0d6076b,2024-02-19_02h14.40.606,kallum_motion_pilot,2023.2.2,Win32,59.88023952,611ed2c05be8517aa0d6076b,65d2b6c8f2eece985d8e374c,65d2b983021102d09219337b,0.0496,0.0496,1,102,264,85,1,seveneight,,,,,,,,,,,,,,,,,,,,,,,,,,,,,,,,,,,,,,,,,,,,,,,,,,,,,,,,,,,,,,,,,,,,,,,,,,,,,,,,,,,,,,,,,,,,,,,,,,,,,,,,,,,,,,,,,,,,,,,,,,,,,,,,,,,,,,,,,
,,611ed2c05be8517aa0d6076b,2024-02-19_02h14.40.606,kallum_motion_pilot,2023.2.2,Win32,59.88023952,611ed2c05be8517aa0d6076b,65d2b6c8f2eece985d8e374c,65d2b983021102d09219337b,0.0497,0.0498,1,103,265,4,1,threeone,,,,,,,,,,,,,,,,,,,,,,,,,,,,,,,,,,,,,,,,,,,,,,,,,,,,,,,,,,,,,,,,,,,,,,,,,,,,,,,,,,,,,,,,,,,,,,,,,,,,,,,,,,,,,,,,,,,,,,,,,,,,,,,,,,,,,,,,,
,,611ed2c05be8517aa0d6076b,2024-02-19_02h14.40.606,kallum_motion_pilot,2023.2.2,Win32,59.88023952,611ed2c05be8517aa0d6076b,65d2b6c8f2eece985d8e374c,65d2b983021102d09219337b,0.0498,0.0499,1,104,266,60,1,threeone,,,,,,,,,,,,,,,,,,,,,,,,,,,,,,,,,,,,,,,,,,,,,,,,,,,,,,,,,,,,,,,,,,,,,,,,,,,,,,,,,,,,,,,,,,,,,,,,,,,,,,,,,,,,,,,,,,,,,,,,,,,,,,,,,,,,,,,,,
,,611ed2c05be8517aa0d6076b,2024-02-19_02h14.40.606,kallum_motion_pilot,2023.2.2,Win32,59.88023952,611ed2c05be8517aa0d6076b,65d2b6c8f2eece985d8e374c,65d2b983021102d09219337b,0.05,0.05,1,105,267,52,1,threeone,,,,,,,,,,,,,,,,,,,,,,,,,,,,,,,,,,,,,,,,,,,,,,,,,,,,,,,,,,,,,,,,,,,,,,,,,,,,,,,,,,,,,,,,,,,,,,,,,,,,,,,,,,,,,,,,,,,,,,,,,,,,,,,,,,,,,,,,,
,,611ed2c05be8517aa0d6076b,2024-02-19_02h14.40.606,kallum_motion_pilot,2023.2.2,Win32,59.88023952,611ed2c05be8517aa0d6076b,65d2b6c8f2eece985d8e374c,65d2b983021102d09219337b,0.0501,0.0502,1,106,268,153,1,fiveseven,,,,,,,,,,,,,,,,,,,,,,,,,,,,,,,,,,,,,,,,,,,,,,,,,,,,,,,,,,,,,,,,,,,,,,,,,,,,,,,,,,,,,,,,,,,,,,,,,,,,,,,,,,,,,,,,,,,,,,,,,,,,,,,,,,,,,,,,,
,,611ed2c05be8517aa0d6076b,2024-02-19_02h14.40.606,kallum_motion_pilot,2023.2.2,Win32,59.88023952,611ed2c05be8517aa0d6076b,65d2b6c8f2eece985d8e374c,65d2b983021102d09219337b,0.0502,0.0503,1,107,269,127,1,eightseven,,,,,,,,,,,,,,,,,,,,,,,,,,,,,,,,,,,,,,,,,,,,,,,,,,,,,,,,,,,,,,,,,,,,,,,,,,,,,,,,,,,,,,,,,,,,,,,,,,,,,,,,,,,,,,,,,,,,,,,,,,,,,,,,,,,,,,,,,
,,611ed2c05be8517aa0d6076b,2024-02-19_02h14.40.606,kallum_motion_pilot,2023.2.2,Win32,59.88023952,611ed2c05be8517aa0d6076b,65d2b6c8f2eece985d8e374c,65d2b983021102d09219337b,0.0504,0.0504,1,108,270,151,1,eightseven,,,,,,,,,,,,,,,,,,,,,,,,,,,,,,,,,,,,,,,,,,,,,,,,,,,,,,,,,,,,,,,,,,,,,,,,,,,,,,,,,,,,,,,,,,,,,,,,,,,,,,,,,,,,,,,,,,,,,,,,,,,,,,,,,,,,,,,,,
,,611ed2c05be8517aa0d6076b,2024-02-19_02h14.40.606,kallum_motion_pilot,2023.2.2,Win32,59.88023952,611ed2c05be8517aa0d6076b,65d2b6c8f2eece985d8e374c,65d2b983021102d09219337b,0.0505,0.0505,1,109,271,8,1,onetwo,,,,,,,,,,,,,,,,,,,,,,,,,,,,,,,,,,,,,,,,,,,,,,,,,,,,,,,,,,,,,,,,,,,,,,,,,,,,,,,,,,,,,,,,,,,,,,,,,,,,,,,,,,,,,,,,,,,,,,,,,,,,,,,,,,,,,,,,,
,,611ed2c05be8517aa0d6076b,2024-02-19_02h14.40.606,kallum_motion_pilot,2023.2.2,Win32,59.88023952,611ed2c05be8517aa0d6076b,65d2b6c8f2eece985d8e374c,65d2b983021102d09219337b,0.0506,0.0506,1,110,272,66,1,twoone,,,,,,,,,,,,,,,,,,,,,,,,,,,,,,,,,,,,,,,,,,,,,,,,,,,,,,,,,,,,,,,,,,,,,,,,,,,,,,,,,,,,,,,,,,,,,,,,,,,,,,,,,,,,,,,,,,,,,,,,,,,,,,,,,,,,,,,,,
,,611ed2c05be8517aa0d6076b,2024-02-19_02h14.40.606,kallum_motion_pilot,2023.2.2,Win32,59.88023952,611ed2c05be8517aa0d6076b,65d2b6c8f2eece985d8e374c,65d2b983021102d09219337b,0.0507,0.0508,1,111,273,89,1,fiveseven,,,,,,,,,,,,,,,,,,,,,,,,,,,,,,,,,,,,,,,,,,,,,,,,,,,,,,,,,,,,,,,,,,,,,,,,,,,,,,,,,,,,,,,,,,,,,,,,,,,,,,,,,,,,,,,,,,,,,,,,,,,,,,,,,,,,,,,,,
,,611ed2c05be8517aa0d6076b,2024-02-19_02h14.40.606,kallum_motion_pilot,2023.2.2,Win32,59.88023952,611ed2c05be8517aa0d6076b,65d2b6c8f2eece985d8e374c,65d2b983021102d09219337b,0.0509,0.0509,1,112,274,119,1,eightseven,,,,,,,,,,,,,,,,,,,,,,,,,,,,,,,,,,,,,,,,,,,,,,,,,,,,,,,,,,,,,,,,,,,,,,,,,,,,,,,,,,,,,,,,,,,,,,,,,,,,,,,,,,,,,,,,,,,,,,,,,,,,,,,,,,,,,,,,,
,,611ed2c05be8517aa0d6076b,2024-02-19_02h14.40.606,kallum_motion_pilot,2023.2.2,Win32,59.88023952,611ed2c05be8517aa0d6076b,65d2b6c8f2eece985d8e374c,65d2b983021102d09219337b,0.051,0.051,1,113,275,98,1,sixfive,,,,,,,,,,,,,,,,,,,,,,,,,,,,,,,,,,,,,,,,,,,,,,,,,,,,,,,,,,,,,,,,,,,,,,,,,,,,,,,,,,,,,,,,,,,,,,,,,,,,,,,,,,,,,,,,,,,,,,,,,,,,,,,,,,,,,,,,,
,,611ed2c05be8517aa0d6076b,2024-02-19_02h14.40.606,kallum_motion_pilot,2023.2.2,Win32,59.88023952,611ed2c05be8517aa0d6076b,65d2b6c8f2eece985d8e374c,65d2b983021102d09219337b,0.0511,0.0511,1,114,276,138,1,sixfive,,,,,,,,,,,,,,,,,,,,,,,,,,,,,,,,,,,,,,,,,,,,,,,,,,,,,,,,,,,,,,,,,,,,,,,,,,,,,,,,,,,,,,,,,,,,,,,,,,,,,,,,,,,,,,,,,,,,,,,,,,,,,,,,,,,,,,,,,
,,611ed2c05be8517aa0d6076b,2024-02-19_02h14.40.606,kallum_motion_pilot,2023.2.2,Win32,59.88023952,611ed2c05be8517aa0d6076b,65d2b6c8f2eece985d8e374c,65d2b983021102d09219337b,0.0512,0.0513,1,115,277,109,1,seveneight,,,,,,,,,,,,,,,,,,,,,,,,,,,,,,,,,,,,,,,,,,,,,,,,,,,,,,,,,,,,,,,,,,,,,,,,,,,,,,,,,,,,,,,,,,,,,,,,,,,,,,,,,,,,,,,,,,,,,,,,,,,,,,,,,,,,,,,,,
