startup.started,startup.stopped,Prolific ID*,date,expName,psychopyVersion,OS,frameRate,participant,study_id,session,stimpositions.started,stimpositions.stopped,hardcoded_stimulus_positions.thisRepN,hardcoded_stimulus_positions.thisTrialN,hardcoded_stimulus_positions.thisN,hardcoded_stimulus_positions.thisIndex,hardcoded_stimulus_positions.ran,StimulusPos,stimorientation.started,stimorientation.stopped,prac_stimorientation_import_loop.thisRepN,prac_stimorientation_import_loop.thisTrialN,prac_stimorientation_import_loop.thisN,prac_stimorientation_import_loop.thisIndex,prac_stimorientation_import_loop.ran,Stimorientation,welcome_instr.started,welcome_instr.stopped,key_resp.keys,key_resp.rt,key_resp.duration,response_steppedout_1.started,response_steppedout_1.stopped,key_resp_20.keys,key_resp_20.rt,key_resp_20.duration,response_steppedout_2.started,response_steppedout_2.stopped,key_resp_19.keys,key_resp_19.rt,key_resp_19.duration,stim_response_instr.started,stim_response_instr.stopped,key_resp_15.keys,key_resp_15.rt,key_resp_15.duration,direction_instr_2.started,direction_instr_2.stopped,key_resp_9.keys,key_resp_9.rt,key_resp_9.duration,instr_prac.started,instr_prac.stopped,key_resp_10.keys,key_resp_10.rt,key_resp_10.duration,Stim1_display_prac.started,Stim1_display_prac.stopped,Ecc,Circle1_ori,Circle2_ori,response_prac.started,similarity,response_time,response_prac.stopped,mouse_5.x,mouse_5.y,mouse_5.leftButton,mouse_5.midButton,mouse_5.rightButton,mouse_5.clicked_name,responseprac_feedback.started,responseprac_feedback.stopped,summary2_prac.started,summary2_prac.stopped,mouse_6.x,mouse_6.y,mouse_6.leftButton,mouse_6.midButton,mouse_6.rightButton,mouse_6.clicked_name,duringprac.thisRepN,duringprac.thisTrialN,duringprac.thisN,duringprac.thisIndex,duringprac.ran,begin.started,begin.stopped,key_resp_22.keys,key_resp_22.rt,key_resp_22.duration,Stim1_display.started,Stim1_display.stopped,circle1_ori,circle2_ori,circle1_SF,circle2_SF,response.started,response.stopped,mouse.x,mouse.y,mouse.leftButton,mouse.midButton,mouse.rightButton,mouse.clicked_name,trialnumber,double_pass.thisRepN,double_pass.thisTrialN,double_pass.thisN,double_pass.thisIndex,double_pass.ran,double_pass.order,main_trial.thisRepN,main_trial.thisTrialN,main_trial.thisN,main_trial.thisIndex,main_trial.ran,main_trial.order,Trial_Counter,Catch,Frequencies,response_2.started,response_2.stopped,mouse_2.x,mouse_2.y,mouse_2.leftButton,mouse_2.midButton,mouse_2.rightButton,mouse_2.clicked_name,special_trial.started,special_trial.stopped,catch_1.started,catch_1.stopped,mouse_3.x,mouse_3.y,mouse_3.leftButton,mouse_3.midButton,mouse_3.rightButton,catchresponse,catchnumber,response_time_catch,response_sum.started,response_sum.stopped,mouse_11.x,mouse_11.y,mouse_11.leftButton,mouse_11.midButton,mouse_11.rightButton,flip_presentation_sequence_for_double_pass.started,flip_presentation_sequence_for_double_pass.stopped,goodbye.started,goodbye.stopped,key_resp_3.keys,key_resp_3.rt,key_resp_3.duration
0.0013,0.0016,611ec3be116703174027b104,2024-02-22_05h20.55.986,kallum_motion_pilot,2023.2.2,Win32,58.13953488,611ec3be116703174027b104,65d6bb0e977760de756971f7,65d6bd45cd33aca6bdaa7549,,,,,,,,,,,,,,,,,,,,,,,,,,,,,,,,,,,,,,,,,,,,,,,,,,,,,,,,,,,,,,,,,,,,,,,,,,,,,,,,,,,,,,,,,,,,,,,,,,,,,,,,,,,,,,,,,,,,,,,,,,,,,,,,,,,,,,,,,,,,,,,,,
,,611ec3be116703174027b104,2024-02-22_05h20.55.986,kallum_motion_pilot,2023.2.2,Win32,58.13953488,611ec3be116703174027b104,65d6bb0e977760de756971f7,65d6bd45cd33aca6bdaa7549,0.1657,0.1667,0,0,0,25,1,onethree,,,,,,,,,,,,,,,,,,,,,,,,,,,,,,,,,,,,,,,,,,,,,,,,,,,,,,,,,,,,,,,,,,,,,,,,,,,,,,,,,,,,,,,,,,,,,,,,,,,,,,,,,,,,,,,,,,,,,,,,,,,,,,,,,,,,,,,,,
,,611ec3be116703174027b104,2024-02-22_05h20.55.986,kallum_motion_pilot,2023.2.2,Win32,58.13953488,611ec3be116703174027b104,65d6bb0e977760de756971f7,65d6bd45cd33aca6bdaa7549,0.1679,0.1682,0,1,1,75,1,twofour,,,,,,,,,,,,,,,,,,,,,,,,,,,,,,,,,,,,,,,,,,,,,,,,,,,,,,,,,,,,,,,,,,,,,,,,,,,,,,,,,,,,,,,,,,,,,,,,,,,,,,,,,,,,,,,,,,,,,,,,,,,,,,,,,,,,,,,,,
,,611ec3be116703174027b104,2024-02-22_05h20.55.986,kallum_motion_pilot,2023.2.2,Win32,58.13953488,611ec3be116703174027b104,65d6bb0e977760de756971f7,65d6bd45cd33aca6bdaa7549,0.1691,0.1694,0,2,2,48,1,onetwo,,,,,,,,,,,,,,,,,,,,,,,,,,,,,,,,,,,,,,,,,,,,,,,,,,,,,,,,,,,,,,,,,,,,,,,,,,,,,,,,,,,,,,,,,,,,,,,,,,,,,,,,,,,,,,,,,,,,,,,,,,,,,,,,,,,,,,,,,
,,611ec3be116703174027b104,2024-02-22_05h20.55.986,kallum_motion_pilot,2023.2.2,Win32,58.13953488,611ec3be116703174027b104,65d6bb0e977760de756971f7,65d6bd45cd33aca6bdaa7549,0.1703,0.1706,0,3,3,136,1,fivesix,,,,,,,,,,,,,,,,,,,,,,,,,,,,,,,,,,,,,,,,,,,,,,,,,,,,,,,,,,,,,,,,,,,,,,,,,,,,,,,,,,,,,,,,,,,,,,,,,,,,,,,,,,,,,,,,,,,,,,,,,,,,,,,,,,,,,,,,,
,,611ec3be116703174027b104,2024-02-22_05h20.55.986,kallum_motion_pilot,2023.2.2,Win32,58.13953488,611ec3be116703174027b104,65d6bb0e977760de756971f7,65d6bd45cd33aca6bdaa7549,0.2613,0.2696,0,4,4,104,1,fivesix,,,,,,,,,,,,,,,,,,,,,,,,,,,,,,,,,,,,,,,,,,,,,,,,,,,,,,,,,,,,,,,,,,,,,,,,,,,,,,,,,,,,,,,,,,,,,,,,,,,,,,,,,,,,,,,,,,,,,,,,,,,,,,,,,,,,,,,,,
,,611ec3be116703174027b104,2024-02-22_05h20.55.986,kallum_motion_pilot,2023.2.2,Win32,58.13953488,611ec3be116703174027b104,65d6bb0e977760de756971f7,65d6bd45cd33aca6bdaa7549,0.2705,0.271,0,5,5,159,1,eightseven,,,,,,,,,,,,,,,,,,,,,,,,,,,,,,,,,,,,,,,,,,,,,,,,,,,,,,,,,,,,,,,,,,,,,,,,,,,,,,,,,,,,,,,,,,,,,,,,,,,,,,,,,,,,,,,,,,,,,,,,,,,,,,,,,,,,,,,,,
,,611ec3be116703174027b104,2024-02-22_05h20.55.986,kallum_motion_pilot,2023.2.2,Win32,58.13953488,611ec3be116703174027b104,65d6bb0e977760de756971f7,65d6bd45cd33aca6bdaa7549,0.2719,0.2735,0,6,6,12,1,threeone,,,,,,,,,,,,,,,,,,,,,,,,,,,,,,,,,,,,,,,,,,,,,,,,,,,,,,,,,,,,,,,,,,,,,,,,,,,,,,,,,,,,,,,,,,,,,,,,,,,,,,,,,,,,,,,,,,,,,,,,,,,,,,,,,,,,,,,,,
,,611ec3be116703174027b104,2024-02-22_05h20.55.986,kallum_motion_pilot,2023.2.2,Win32,58.13953488,611ec3be116703174027b104,65d6bb0e977760de756971f7,65d6bd45cd33aca6bdaa7549,0.2754,0.2758,0,7,7,33,1,onethree,,,,,,,,,,,,,,,,,,,,,,,,,,,,,,,,,,,,,,,,,,,,,,,,,,,,,,,,,,,,,,,,,,,,,,,,,,,,,,,,,,,,,,,,,,,,,,,,,,,,,,,,,,,,,,,,,,,,,,,,,,,,,,,,,,,,,,,,,
,,611ec3be116703174027b104,2024-02-22_05h20.55.986,kallum_motion_pilot,2023.2.2,Win32,58.13953488,611ec3be116703174027b104,65d6bb0e977760de756971f7,65d6bd45cd33aca6bdaa7549,0.2771,0.2776,0,8,8,85,1,seveneight,,,,,,,,,,,,,,,,,,,,,,,,,,,,,,,,,,,,,,,,,,,,,,,,,,,,,,,,,,,,,,,,,,,,,,,,,,,,,,,,,,,,,,,,,,,,,,,,,,,,,,,,,,,,,,,,,,,,,,,,,,,,,,,,,,,,,,,,,
,,611ec3be116703174027b104,2024-02-22_05h20.55.986,kallum_motion_pilot,2023.2.2,Win32,58.13953488,611ec3be116703174027b104,65d6bb0e977760de756971f7,65d6bd45cd33aca6bdaa7549,0.2893,0.2899,0,9,9,65,1,onethree,,,,,,,,,,,,,,,,,,,,,,,,,,,,,,,,,,,,,,,,,,,,,,,,,,,,,,,,,,,,,,,,,,,,,,,,,,,,,,,,,,,,,,,,,,,,,,,,,,,,,,,,,,,,,,,,,,,,,,,,,,,,,,,,,,,,,,,,,
,,611ec3be116703174027b104,2024-02-22_05h20.55.986,kallum_motion_pilot,2023.2.2,Win32,58.13953488,611ec3be116703174027b104,65d6bb0e977760de756971f7,65d6bd45cd33aca6bdaa7549,0.2907,0.2911,0,10,10,153,1,fiveseven,,,,,,,,,,,,,,,,,,,,,,,,,,,,,,,,,,,,,,,,,,,,,,,,,,,,,,,,,,,,,,,,,,,,,,,,,,,,,,,,,,,,,,,,,,,,,,,,,,,,,,,,,,,,,,,,,,,,,,,,,,,,,,,,,,,,,,,,,
,,611ec3be116703174027b104,2024-02-22_05h20.55.986,kallum_motion_pilot,2023.2.2,Win32,58.13953488,611ec3be116703174027b104,65d6bb0e977760de756971f7,65d6bd45cd33aca6bdaa7549,0.2917,0.2926,0,11,11,157,1,seveneight,,,,,,,,,,,,,,,,,,,,,,,,,,,,,,,,,,,,,,,,,,,,,,,,,,,,,,,,,,,,,,,,,,,,,,,,,,,,,,,,,,,,,,,,,,,,,,,,,,,,,,,,,,,,,,,,,,,,,,,,,,,,,,,,,,,,,,,,,
,,611ec3be116703174027b104,2024-02-22_05h20.55.986,kallum_motion_pilot,2023.2.2,Win32,58.13953488,611ec3be116703174027b104,65d6bb0e977760de756971f7,65d6bd45cd33aca6bdaa7549,0.2937,0.2941,0,12,12,43,1,twofour,,,,,,,,,,,,,,,,,,,,,,,,,,,,,,,,,,,,,,,,,,,,,,,,,,,,,,,,,,,,,,,,,,,,,,,,,,,,,,,,,,,,,,,,,,,,,,,,,,,,,,,,,,,,,,,,,,,,,,,,,,,,,,,,,,,,,,,,,
,,611ec3be116703174027b104,2024-02-22_05h20.55.986,kallum_motion_pilot,2023.2.2,Win32,58.13953488,611ec3be116703174027b104,65d6bb0e977760de756971f7,65d6bd45cd33aca6bdaa7549,0.2958,0.2995,0,13,13,49,1,onethree,,,,,,,,,,,,,,,,,,,,,,,,,,,,,,,,,,,,,,,,,,,,,,,,,,,,,,,,,,,,,,,,,,,,,,,,,,,,,,,,,,,,,,,,,,,,,,,,,,,,,,,,,,,,,,,,,,,,,,,,,,,,,,,,,,,,,,,,,
,,611ec3be116703174027b104,2024-02-22_05h20.55.986,kallum_motion_pilot,2023.2.2,Win32,58.13953488,611ec3be116703174027b104,65d6bb0e977760de756971f7,65d6bd45cd33aca6bdaa7549,0.301,0.3014,0,14,14,134,1,eightsix,,,,,,,,,,,,,,,,,,,,,,,,,,,,,,,,,,,,,,,,,,,,,,,,,,,,,,,,,,,,,,,,,,,,,,,,,,,,,,,,,,,,,,,,,,,,,,,,,,,,,,,,,,,,,,,,,,,,,,,,,,,,,,,,,,,,,,,,,
,,611ec3be116703174027b104,2024-02-22_05h20.55.986,kallum_motion_pilot,2023.2.2,Win32,58.13953488,611ec3be116703174027b104,65d6bb0e977760de756971f7,65d6bd45cd33aca6bdaa7549,0.3035,0.3044,0,15,15,90,1,sixfive,,,,,,,,,,,,,,,,,,,,,,,,,,,,,,,,,,,,,,,,,,,,,,,,,,,,,,,,,,,,,,,,,,,,,,,,,,,,,,,,,,,,,,,,,,,,,,,,,,,,,,,,,,,,,,,,,,,,,,,,,,,,,,,,,,,,,,,,,
,,611ec3be116703174027b104,2024-02-22_05h20.55.986,kallum_motion_pilot,2023.2.2,Win32,58.13953488,611ec3be116703174027b104,65d6bb0e977760de756971f7,65d6bd45cd33aca6bdaa7549,0.3066,0.307,0,16,16,74,1,twoone,,,,,,,,,,,,,,,,,,,,,,,,,,,,,,,,,,,,,,,,,,,,,,,,,,,,,,,,,,,,,,,,,,,,,,,,,,,,,,,,,,,,,,,,,,,,,,,,,,,,,,,,,,,,,,,,,,,,,,,,,,,,,,,,,,,,,,,,,
,,611ec3be116703174027b104,2024-02-22_05h20.55.986,kallum_motion_pilot,2023.2.2,Win32,58.13953488,611ec3be116703174027b104,65d6bb0e977760de756971f7,65d6bd45cd33aca6bdaa7549,0.3077,0.3081,0,17,17,152,1,fivesix,,,,,,,,,,,,,,,,,,,,,,,,,,,,,,,,,,,,,,,,,,,,,,,,,,,,,,,,,,,,,,,,,,,,,,,,,,,,,,,,,,,,,,,,,,,,,,,,,,,,,,,,,,,,,,,,,,,,,,,,,,,,,,,,,,,,,,,,,
,,611ec3be116703174027b104,2024-02-22_05h20.55.986,kallum_motion_pilot,2023.2.2,Win32,58.13953488,611ec3be116703174027b104,65d6bb0e977760de756971f7,65d6bd45cd33aca6bdaa7549,0.3087,0.309,0,18,18,99,1,sixeight,,,,,,,,,,,,,,,,,,,,,,,,,,,,,,,,,,,,,,,,,,,,,,,,,,,,,,,,,,,,,,,,,,,,,,,,,,,,,,,,,,,,,,,,,,,,,,,,,,,,,,,,,,,,,,,,,,,,,,,,,,,,,,,,,,,,,,,,,
,,611ec3be116703174027b104,2024-02-22_05h20.55.986,kallum_motion_pilot,2023.2.2,Win32,58.13953488,611ec3be116703174027b104,65d6bb0e977760de756971f7,65d6bd45cd33aca6bdaa7549,0.3101,0.3105,0,19,19,34,1,twoone,,,,,,,,,,,,,,,,,,,,,,,,,,,,,,,,,,,,,,,,,,,,,,,,,,,,,,,,,,,,,,,,,,,,,,,,,,,,,,,,,,,,,,,,,,,,,,,,,,,,,,,,,,,,,,,,,,,,,,,,,,,,,,,,,,,,,,,,,
,,611ec3be116703174027b104,2024-02-22_05h20.55.986,kallum_motion_pilot,2023.2.2,Win32,58.13953488,611ec3be116703174027b104,65d6bb0e977760de756971f7,65d6bd45cd33aca6bdaa7549,0.3112,0.3115,0,20,20,70,1,fourtwo,,,,,,,,,,,,,,,,,,,,,,,,,,,,,,,,,,,,,,,,,,,,,,,,,,,,,,,,,,,,,,,,,,,,,,,,,,,,,,,,,,,,,,,,,,,,,,,,,,,,,,,,,,,,,,,,,,,,,,,,,,,,,,,,,,,,,,,,,
,,611ec3be116703174027b104,2024-02-22_05h20.55.986,kallum_motion_pilot,2023.2.2,Win32,58.13953488,611ec3be116703174027b104,65d6bb0e977760de756971f7,65d6bd45cd33aca6bdaa7549,0.32,0.3204,0,21,21,17,1,onethree,,,,,,,,,,,,,,,,,,,,,,,,,,,,,,,,,,,,,,,,,,,,,,,,,,,,,,,,,,,,,,,,,,,,,,,,,,,,,,,,,,,,,,,,,,,,,,,,,,,,,,,,,,,,,,,,,,,,,,,,,,,,,,,,,,,,,,,,,
,,611ec3be116703174027b104,2024-02-22_05h20.55.986,kallum_motion_pilot,2023.2.2,Win32,58.13953488,611ec3be116703174027b104,65d6bb0e977760de756971f7,65d6bd45cd33aca6bdaa7549,0.3213,0.3217,0,22,22,31,1,fourthree,,,,,,,,,,,,,,,,,,,,,,,,,,,,,,,,,,,,,,,,,,,,,,,,,,,,,,,,,,,,,,,,,,,,,,,,,,,,,,,,,,,,,,,,,,,,,,,,,,,,,,,,,,,,,,,,,,,,,,,,,,,,,,,,,,,,,,,,,
,,611ec3be116703174027b104,2024-02-22_05h20.55.986,kallum_motion_pilot,2023.2.2,Win32,58.13953488,611ec3be116703174027b104,65d6bb0e977760de756971f7,65d6bd45cd33aca6bdaa7549,0.323,0.3236,0,23,23,20,1,threeone,,,,,,,,,,,,,,,,,,,,,,,,,,,,,,,,,,,,,,,,,,,,,,,,,,,,,,,,,,,,,,,,,,,,,,,,,,,,,,,,,,,,,,,,,,,,,,,,,,,,,,,,,,,,,,,,,,,,,,,,,,,,,,,,,,,,,,,,,
,,611ec3be116703174027b104,2024-02-22_05h20.55.986,kallum_motion_pilot,2023.2.2,Win32,58.13953488,611ec3be116703174027b104,65d6bb0e977760de756971f7,65d6bd45cd33aca6bdaa7549,0.3244,0.3248,0,24,24,50,1,twoone,,,,,,,,,,,,,,,,,,,,,,,,,,,,,,,,,,,,,,,,,,,,,,,,,,,,,,,,,,,,,,,,,,,,,,,,,,,,,,,,,,,,,,,,,,,,,,,,,,,,,,,,,,,,,,,,,,,,,,,,,,,,,,,,,,,,,,,,,
,,611ec3be116703174027b104,2024-02-22_05h20.55.986,kallum_motion_pilot,2023.2.2,Win32,58.13953488,611ec3be116703174027b104,65d6bb0e977760de756971f7,65d6bd45cd33aca6bdaa7549,0.3265,0.327,0,25,25,19,1,twofour,,,,,,,,,,,,,,,,,,,,,,,,,,,,,,,,,,,,,,,,,,,,,,,,,,,,,,,,,,,,,,,,,,,,,,,,,,,,,,,,,,,,,,,,,,,,,,,,,,,,,,,,,,,,,,,,,,,,,,,,,,,,,,,,,,,,,,,,,
,,611ec3be116703174027b104,2024-02-22_05h20.55.986,kallum_motion_pilot,2023.2.2,Win32,58.13953488,611ec3be116703174027b104,65d6bb0e977760de756971f7,65d6bd45cd33aca6bdaa7549,0.3283,0.3293,0,26,26,15,1,fourthree,,,,,,,,,,,,,,,,,,,,,,,,,,,,,,,,,,,,,,,,,,,,,,,,,,,,,,,,,,,,,,,,,,,,,,,,,,,,,,,,,,,,,,,,,,,,,,,,,,,,,,,,,,,,,,,,,,,,,,,,,,,,,,,,,,,,,,,,,
,,611ec3be116703174027b104,2024-02-22_05h20.55.986,kallum_motion_pilot,2023.2.2,Win32,58.13953488,611ec3be116703174027b104,65d6bb0e977760de756971f7,65d6bd45cd33aca6bdaa7549,0.3374,0.3378,0,27,27,128,1,fivesix,,,,,,,,,,,,,,,,,,,,,,,,,,,,,,,,,,,,,,,,,,,,,,,,,,,,,,,,,,,,,,,,,,,,,,,,,,,,,,,,,,,,,,,,,,,,,,,,,,,,,,,,,,,,,,,,,,,,,,,,,,,,,,,,,,,,,,,,,
,,611ec3be116703174027b104,2024-02-22_05h20.55.986,kallum_motion_pilot,2023.2.2,Win32,58.13953488,611ec3be116703174027b104,65d6bb0e977760de756971f7,65d6bd45cd33aca6bdaa7549,0.3386,0.339,0,28,28,9,1,onethree,,,,,,,,,,,,,,,,,,,,,,,,,,,,,,,,,,,,,,,,,,,,,,,,,,,,,,,,,,,,,,,,,,,,,,,,,,,,,,,,,,,,,,,,,,,,,,,,,,,,,,,,,,,,,,,,,,,,,,,,,,,,,,,,,,,,,,,,,
,,611ec3be116703174027b104,2024-02-22_05h20.55.986,kallum_motion_pilot,2023.2.2,Win32,58.13953488,611ec3be116703174027b104,65d6bb0e977760de756971f7,65d6bd45cd33aca6bdaa7549,0.3438,0.3443,0,29,29,108,1,sevenfive,,,,,,,,,,,,,,,,,,,,,,,,,,,,,,,,,,,,,,,,,,,,,,,,,,,,,,,,,,,,,,,,,,,,,,,,,,,,,,,,,,,,,,,,,,,,,,,,,,,,,,,,,,,,,,,,,,,,,,,,,,,,,,,,,,,,,,,,,
,,611ec3be116703174027b104,2024-02-22_05h20.55.986,kallum_motion_pilot,2023.2.2,Win32,58.13953488,611ec3be116703174027b104,65d6bb0e977760de756971f7,65d6bd45cd33aca6bdaa7549,0.3511,0.3515,0,30,30,154,1,sixfive,,,,,,,,,,,,,,,,,,,,,,,,,,,,,,,,,,,,,,,,,,,,,,,,,,,,,,,,,,,,,,,,,,,,,,,,,,,,,,,,,,,,,,,,,,,,,,,,,,,,,,,,,,,,,,,,,,,,,,,,,,,,,,,,,,,,,,,,,
,,611ec3be116703174027b104,2024-02-22_05h20.55.986,kallum_motion_pilot,2023.2.2,Win32,58.13953488,611ec3be116703174027b104,65d6bb0e977760de756971f7,65d6bd45cd33aca6bdaa7549,0.3528,0.3532,0,31,31,3,1,twofour,,,,,,,,,,,,,,,,,,,,,,,,,,,,,,,,,,,,,,,,,,,,,,,,,,,,,,,,,,,,,,,,,,,,,,,,,,,,,,,,,,,,,,,,,,,,,,,,,,,,,,,,,,,,,,,,,,,,,,,,,,,,,,,,,,,,,,,,,
,,611ec3be116703174027b104,2024-02-22_05h20.55.986,kallum_motion_pilot,2023.2.2,Win32,58.13953488,611ec3be116703174027b104,65d6bb0e977760de756971f7,65d6bd45cd33aca6bdaa7549,0.3538,0.3542,0,32,32,38,1,fourtwo,,,,,,,,,,,,,,,,,,,,,,,,,,,,,,,,,,,,,,,,,,,,,,,,,,,,,,,,,,,,,,,,,,,,,,,,,,,,,,,,,,,,,,,,,,,,,,,,,,,,,,,,,,,,,,,,,,,,,,,,,,,,,,,,,,,,,,,,,
,,611ec3be116703174027b104,2024-02-22_05h20.55.986,kallum_motion_pilot,2023.2.2,Win32,58.13953488,611ec3be116703174027b104,65d6bb0e977760de756971f7,65d6bd45cd33aca6bdaa7549,0.3564,0.3568,0,33,33,68,1,threeone,,,,,,,,,,,,,,,,,,,,,,,,,,,,,,,,,,,,,,,,,,,,,,,,,,,,,,,,,,,,,,,,,,,,,,,,,,,,,,,,,,,,,,,,,,,,,,,,,,,,,,,,,,,,,,,,,,,,,,,,,,,,,,,,,,,,,,,,,
,,611ec3be116703174027b104,2024-02-22_05h20.55.986,kallum_motion_pilot,2023.2.2,Win32,58.13953488,611ec3be116703174027b104,65d6bb0e977760de756971f7,65d6bd45cd33aca6bdaa7549,0.3576,0.358,0,34,34,22,1,fourtwo,,,,,,,,,,,,,,,,,,,,,,,,,,,,,,,,,,,,,,,,,,,,,,,,,,,,,,,,,,,,,,,,,,,,,,,,,,,,,,,,,,,,,,,,,,,,,,,,,,,,,,,,,,,,,,,,,,,,,,,,,,,,,,,,,,,,,,,,,
,,611ec3be116703174027b104,2024-02-22_05h20.55.986,kallum_motion_pilot,2023.2.2,Win32,58.13953488,611ec3be116703174027b104,65d6bb0e977760de756971f7,65d6bd45cd33aca6bdaa7549,0.3584,0.3591,0,35,35,160,1,fivesix,,,,,,,,,,,,,,,,,,,,,,,,,,,,,,,,,,,,,,,,,,,,,,,,,,,,,,,,,,,,,,,,,,,,,,,,,,,,,,,,,,,,,,,,,,,,,,,,,,,,,,,,,,,,,,,,,,,,,,,,,,,,,,,,,,,,,,,,,
,,611ec3be116703174027b104,2024-02-22_05h20.55.986,kallum_motion_pilot,2023.2.2,Win32,58.13953488,611ec3be116703174027b104,65d6bb0e977760de756971f7,65d6bd45cd33aca6bdaa7549,0.3598,0.3602,0,36,36,144,1,fivesix,,,,,,,,,,,,,,,,,,,,,,,,,,,,,,,,,,,,,,,,,,,,,,,,,,,,,,,,,,,,,,,,,,,,,,,,,,,,,,,,,,,,,,,,,,,,,,,,,,,,,,,,,,,,,,,,,,,,,,,,,,,,,,,,,,,,,,,,,
,,611ec3be116703174027b104,2024-02-22_05h20.55.986,kallum_motion_pilot,2023.2.2,Win32,58.13953488,611ec3be116703174027b104,65d6bb0e977760de756971f7,65d6bd45cd33aca6bdaa7549,0.3607,0.3611,0,37,37,102,1,eightsix,,,,,,,,,,,,,,,,,,,,,,,,,,,,,,,,,,,,,,,,,,,,,,,,,,,,,,,,,,,,,,,,,,,,,,,,,,,,,,,,,,,,,,,,,,,,,,,,,,,,,,,,,,,,,,,,,,,,,,,,,,,,,,,,,,,,,,,,,
,,611ec3be116703174027b104,2024-02-22_05h20.55.986,kallum_motion_pilot,2023.2.2,Win32,58.13953488,611ec3be116703174027b104,65d6bb0e977760de756971f7,65d6bd45cd33aca6bdaa7549,0.3617,0.3676,0,38,38,138,1,sixfive,,,,,,,,,,,,,,,,,,,,,,,,,,,,,,,,,,,,,,,,,,,,,,,,,,,,,,,,,,,,,,,,,,,,,,,,,,,,,,,,,,,,,,,,,,,,,,,,,,,,,,,,,,,,,,,,,,,,,,,,,,,,,,,,,,,,,,,,,
,,611ec3be116703174027b104,2024-02-22_05h20.55.986,kallum_motion_pilot,2023.2.2,Win32,58.13953488,611ec3be116703174027b104,65d6bb0e977760de756971f7,65d6bd45cd33aca6bdaa7549,0.3692,0.3694,0,39,39,23,1,fourthree,,,,,,,,,,,,,,,,,,,,,,,,,,,,,,,,,,,,,,,,,,,,,,,,,,,,,,,,,,,,,,,,,,,,,,,,,,,,,,,,,,,,,,,,,,,,,,,,,,,,,,,,,,,,,,,,,,,,,,,,,,,,,,,,,,,,,,,,,
,,611ec3be116703174027b104,2024-02-22_05h20.55.986,kallum_motion_pilot,2023.2.2,Win32,58.13953488,611ec3be116703174027b104,65d6bb0e977760de756971f7,65d6bd45cd33aca6bdaa7549,0.3704,0.3709,0,40,40,110,1,eightsix,,,,,,,,,,,,,,,,,,,,,,,,,,,,,,,,,,,,,,,,,,,,,,,,,,,,,,,,,,,,,,,,,,,,,,,,,,,,,,,,,,,,,,,,,,,,,,,,,,,,,,,,,,,,,,,,,,,,,,,,,,,,,,,,,,,,,,,,,
,,611ec3be116703174027b104,2024-02-22_05h20.55.986,kallum_motion_pilot,2023.2.2,Win32,58.13953488,611ec3be116703174027b104,65d6bb0e977760de756971f7,65d6bd45cd33aca6bdaa7549,0.3715,0.372,0,41,41,135,1,eightseven,,,,,,,,,,,,,,,,,,,,,,,,,,,,,,,,,,,,,,,,,,,,,,,,,,,,,,,,,,,,,,,,,,,,,,,,,,,,,,,,,,,,,,,,,,,,,,,,,,,,,,,,,,,,,,,,,,,,,,,,,,,,,,,,,,,,,,,,,
,,611ec3be116703174027b104,2024-02-22_05h20.55.986,kallum_motion_pilot,2023.2.2,Win32,58.13953488,611ec3be116703174027b104,65d6bb0e977760de756971f7,65d6bd45cd33aca6bdaa7549,0.3735,0.3737,0,42,42,87,1,eightseven,,,,,,,,,,,,,,,,,,,,,,,,,,,,,,,,,,,,,,,,,,,,,,,,,,,,,,,,,,,,,,,,,,,,,,,,,,,,,,,,,,,,,,,,,,,,,,,,,,,,,,,,,,,,,,,,,,,,,,,,,,,,,,,,,,,,,,,,,
,,611ec3be116703174027b104,2024-02-22_05h20.55.986,kallum_motion_pilot,2023.2.2,Win32,58.13953488,611ec3be116703174027b104,65d6bb0e977760de756971f7,65d6bd45cd33aca6bdaa7549,0.3748,0.376,0,43,43,7,1,fourthree,,,,,,,,,,,,,,,,,,,,,,,,,,,,,,,,,,,,,,,,,,,,,,,,,,,,,,,,,,,,,,,,,,,,,,,,,,,,,,,,,,,,,,,,,,,,,,,,,,,,,,,,,,,,,,,,,,,,,,,,,,,,,,,,,,,,,,,,,
,,611ec3be116703174027b104,2024-02-22_05h20.55.986,kallum_motion_pilot,2023.2.2,Win32,58.13953488,611ec3be116703174027b104,65d6bb0e977760de756971f7,65d6bd45cd33aca6bdaa7549,0.3768,0.3773,0,44,44,151,1,eightseven,,,,,,,,,,,,,,,,,,,,,,,,,,,,,,,,,,,,,,,,,,,,,,,,,,,,,,,,,,,,,,,,,,,,,,,,,,,,,,,,,,,,,,,,,,,,,,,,,,,,,,,,,,,,,,,,,,,,,,,,,,,,,,,,,,,,,,,,,
,,611ec3be116703174027b104,2024-02-22_05h20.55.986,kallum_motion_pilot,2023.2.2,Win32,58.13953488,611ec3be116703174027b104,65d6bb0e977760de756971f7,65d6bd45cd33aca6bdaa7549,0.3784,0.379,0,45,45,121,1,fiveseven,,,,,,,,,,,,,,,,,,,,,,,,,,,,,,,,,,,,,,,,,,,,,,,,,,,,,,,,,,,,,,,,,,,,,,,,,,,,,,,,,,,,,,,,,,,,,,,,,,,,,,,,,,,,,,,,,,,,,,,,,,,,,,,,,,,,,,,,,
,,611ec3be116703174027b104,2024-02-22_05h20.55.986,kallum_motion_pilot,2023.2.2,Win32,58.13953488,611ec3be116703174027b104,65d6bb0e977760de756971f7,65d6bd45cd33aca6bdaa7549,0.3848,0.387,0,46,46,55,1,fourthree,,,,,,,,,,,,,,,,,,,,,,,,,,,,,,,,,,,,,,,,,,,,,,,,,,,,,,,,,,,,,,,,,,,,,,,,,,,,,,,,,,,,,,,,,,,,,,,,,,,,,,,,,,,,,,,,,,,,,,,,,,,,,,,,,,,,,,,,,
,,611ec3be116703174027b104,2024-02-22_05h20.55.986,kallum_motion_pilot,2023.2.2,Win32,58.13953488,611ec3be116703174027b104,65d6bb0e977760de756971f7,65d6bd45cd33aca6bdaa7549,0.3877,0.3881,0,47,47,69,1,threefour,,,,,,,,,,,,,,,,,,,,,,,,,,,,,,,,,,,,,,,,,,,,,,,,,,,,,,,,,,,,,,,,,,,,,,,,,,,,,,,,,,,,,,,,,,,,,,,,,,,,,,,,,,,,,,,,,,,,,,,,,,,,,,,,,,,,,,,,,
,,611ec3be116703174027b104,2024-02-22_05h20.55.986,kallum_motion_pilot,2023.2.2,Win32,58.13953488,611ec3be116703174027b104,65d6bb0e977760de756971f7,65d6bd45cd33aca6bdaa7549,0.3887,0.3892,0,48,48,42,1,twoone,,,,,,,,,,,,,,,,,,,,,,,,,,,,,,,,,,,,,,,,,,,,,,,,,,,,,,,,,,,,,,,,,,,,,,,,,,,,,,,,,,,,,,,,,,,,,,,,,,,,,,,,,,,,,,,,,,,,,,,,,,,,,,,,,,,,,,,,,
,,611ec3be116703174027b104,2024-02-22_05h20.55.986,kallum_motion_pilot,2023.2.2,Win32,58.13953488,611ec3be116703174027b104,65d6bb0e977760de756971f7,65d6bd45cd33aca6bdaa7549,0.3896,0.3901,0,49,49,24,1,onetwo,,,,,,,,,,,,,,,,,,,,,,,,,,,,,,,,,,,,,,,,,,,,,,,,,,,,,,,,,,,,,,,,,,,,,,,,,,,,,,,,,,,,,,,,,,,,,,,,,,,,,,,,,,,,,,,,,,,,,,,,,,,,,,,,,,,,,,,,,
,,611ec3be116703174027b104,2024-02-22_05h20.55.986,kallum_motion_pilot,2023.2.2,Win32,58.13953488,611ec3be116703174027b104,65d6bb0e977760de756971f7,65d6bd45cd33aca6bdaa7549,0.3905,0.391,0,50,50,62,1,fourtwo,,,,,,,,,,,,,,,,,,,,,,,,,,,,,,,,,,,,,,,,,,,,,,,,,,,,,,,,,,,,,,,,,,,,,,,,,,,,,,,,,,,,,,,,,,,,,,,,,,,,,,,,,,,,,,,,,,,,,,,,,,,,,,,,,,,,,,,,,
,,611ec3be116703174027b104,2024-02-22_05h20.55.986,kallum_motion_pilot,2023.2.2,Win32,58.13953488,611ec3be116703174027b104,65d6bb0e977760de756971f7,65d6bd45cd33aca6bdaa7549,0.3915,0.3917,0,51,51,72,1,onetwo,,,,,,,,,,,,,,,,,,,,,,,,,,,,,,,,,,,,,,,,,,,,,,,,,,,,,,,,,,,,,,,,,,,,,,,,,,,,,,,,,,,,,,,,,,,,,,,,,,,,,,,,,,,,,,,,,,,,,,,,,,,,,,,,,,,,,,,,,
,,611ec3be116703174027b104,2024-02-22_05h20.55.986,kallum_motion_pilot,2023.2.2,Win32,58.13953488,611ec3be116703174027b104,65d6bb0e977760de756971f7,65d6bd45cd33aca6bdaa7549,0.3935,0.394,0,52,52,81,1,fiveseven,,,,,,,,,,,,,,,,,,,,,,,,,,,,,,,,,,,,,,,,,,,,,,,,,,,,,,,,,,,,,,,,,,,,,,,,,,,,,,,,,,,,,,,,,,,,,,,,,,,,,,,,,,,,,,,,,,,,,,,,,,,,,,,,,,,,,,,,,
,,611ec3be116703174027b104,2024-02-22_05h20.55.986,kallum_motion_pilot,2023.2.2,Win32,58.13953488,611ec3be116703174027b104,65d6bb0e977760de756971f7,65d6bd45cd33aca6bdaa7549,0.3946,0.3984,0,53,53,30,1,fourtwo,,,,,,,,,,,,,,,,,,,,,,,,,,,,,,,,,,,,,,,,,,,,,,,,,,,,,,,,,,,,,,,,,,,,,,,,,,,,,,,,,,,,,,,,,,,,,,,,,,,,,,,,,,,,,,,,,,,,,,,,,,,,,,,,,,,,,,,,,
,,611ec3be116703174027b104,2024-02-22_05h20.55.986,kallum_motion_pilot,2023.2.2,Win32,58.13953488,611ec3be116703174027b104,65d6bb0e977760de756971f7,65d6bd45cd33aca6bdaa7549,0.3996,0.3999,0,54,54,149,1,seveneight,,,,,,,,,,,,,,,,,,,,,,,,,,,,,,,,,,,,,,,,,,,,,,,,,,,,,,,,,,,,,,,,,,,,,,,,,,,,,,,,,,,,,,,,,,,,,,,,,,,,,,,,,,,,,,,,,,,,,,,,,,,,,,,,,,,,,,,,,
,,611ec3be116703174027b104,2024-02-22_05h20.55.986,kallum_motion_pilot,2023.2.2,Win32,58.13953488,611ec3be116703174027b104,65d6bb0e977760de756971f7,65d6bd45cd33aca6bdaa7549,0.4005,0.401,0,55,55,129,1,fiveseven,,,,,,,,,,,,,,,,,,,,,,,,,,,,,,,,,,,,,,,,,,,,,,,,,,,,,,,,,,,,,,,,,,,,,,,,,,,,,,,,,,,,,,,,,,,,,,,,,,,,,,,,,,,,,,,,,,,,,,,,,,,,,,,,,,,,,,,,,
,,611ec3be116703174027b104,2024-02-22_05h20.55.986,kallum_motion_pilot,2023.2.2,Win32,58.13953488,611ec3be116703174027b104,65d6bb0e977760de756971f7,65d6bd45cd33aca6bdaa7549,0.4015,0.4019,0,56,56,140,1,sevenfive,,,,,,,,,,,,,,,,,,,,,,,,,,,,,,,,,,,,,,,,,,,,,,,,,,,,,,,,,,,,,,,,,,,,,,,,,,,,,,,,,,,,,,,,,,,,,,,,,,,,,,,,,,,,,,,,,,,,,,,,,,,,,,,,,,,,,,,,,
,,611ec3be116703174027b104,2024-02-22_05h20.55.986,kallum_motion_pilot,2023.2.2,Win32,58.13953488,611ec3be116703174027b104,65d6bb0e977760de756971f7,65d6bd45cd33aca6bdaa7549,0.4034,0.4037,0,57,57,98,1,sixfive,,,,,,,,,,,,,,,,,,,,,,,,,,,,,,,,,,,,,,,,,,,,,,,,,,,,,,,,,,,,,,,,,,,,,,,,,,,,,,,,,,,,,,,,,,,,,,,,,,,,,,,,,,,,,,,,,,,,,,,,,,,,,,,,,,,,,,,,,
,,611ec3be116703174027b104,2024-02-22_05h20.55.986,kallum_motion_pilot,2023.2.2,Win32,58.13953488,611ec3be116703174027b104,65d6bb0e977760de756971f7,65d6bd45cd33aca6bdaa7549,0.4047,0.4052,0,58,58,47,1,fourthree,,,,,,,,,,,,,,,,,,,,,,,,,,,,,,,,,,,,,,,,,,,,,,,,,,,,,,,,,,,,,,,,,,,,,,,,,,,,,,,,,,,,,,,,,,,,,,,,,,,,,,,,,,,,,,,,,,,,,,,,,,,,,,,,,,,,,,,,,
,,611ec3be116703174027b104,2024-02-22_05h20.55.986,kallum_motion_pilot,2023.2.2,Win32,58.13953488,611ec3be116703174027b104,65d6bb0e977760de756971f7,65d6bd45cd33aca6bdaa7549,0.4065,0.407,0,59,59,115,1,sixeight,,,,,,,,,,,,,,,,,,,,,,,,,,,,,,,,,,,,,,,,,,,,,,,,,,,,,,,,,,,,,,,,,,,,,,,,,,,,,,,,,,,,,,,,,,,,,,,,,,,,,,,,,,,,,,,,,,,,,,,,,,,,,,,,,,,,,,,,,
,,611ec3be116703174027b104,2024-02-22_05h20.55.986,kallum_motion_pilot,2023.2.2,Win32,58.13953488,611ec3be116703174027b104,65d6bb0e977760de756971f7,65d6bd45cd33aca6bdaa7549,0.4077,0.4084,0,60,60,131,1,sixeight,,,,,,,,,,,,,,,,,,,,,,,,,,,,,,,,,,,,,,,,,,,,,,,,,,,,,,,,,,,,,,,,,,,,,,,,,,,,,,,,,,,,,,,,,,,,,,,,,,,,,,,,,,,,,,,,,,,,,,,,,,,,,,,,,,,,,,,,,
,,611ec3be116703174027b104,2024-02-22_05h20.55.986,kallum_motion_pilot,2023.2.2,Win32,58.13953488,611ec3be116703174027b104,65d6bb0e977760de756971f7,65d6bd45cd33aca6bdaa7549,0.4102,0.4105,0,61,61,148,1,sevenfive,,,,,,,,,,,,,,,,,,,,,,,,,,,,,,,,,,,,,,,,,,,,,,,,,,,,,,,,,,,,,,,,,,,,,,,,,,,,,,,,,,,,,,,,,,,,,,,,,,,,,,,,,,,,,,,,,,,,,,,,,,,,,,,,,,,,,,,,,
,,611ec3be116703174027b104,2024-02-22_05h20.55.986,kallum_motion_pilot,2023.2.2,Win32,58.13953488,611ec3be116703174027b104,65d6bb0e977760de756971f7,65d6bd45cd33aca6bdaa7549,0.4143,0.4162,0,62,62,116,1,sevenfive,,,,,,,,,,,,,,,,,,,,,,,,,,,,,,,,,,,,,,,,,,,,,,,,,,,,,,,,,,,,,,,,,,,,,,,,,,,,,,,,,,,,,,,,,,,,,,,,,,,,,,,,,,,,,,,,,,,,,,,,,,,,,,,,,,,,,,,,,
,,611ec3be116703174027b104,2024-02-22_05h20.55.986,kallum_motion_pilot,2023.2.2,Win32,58.13953488,611ec3be116703174027b104,65d6bb0e977760de756971f7,65d6bd45cd33aca6bdaa7549,0.4169,0.4175,0,63,63,57,1,onethree,,,,,,,,,,,,,,,,,,,,,,,,,,,,,,,,,,,,,,,,,,,,,,,,,,,,,,,,,,,,,,,,,,,,,,,,,,,,,,,,,,,,,,,,,,,,,,,,,,,,,,,,,,,,,,,,,,,,,,,,,,,,,,,,,,,,,,,,,
,,611ec3be116703174027b104,2024-02-22_05h20.55.986,kallum_motion_pilot,2023.2.2,Win32,58.13953488,611ec3be116703174027b104,65d6bb0e977760de756971f7,65d6bd45cd33aca6bdaa7549,0.4181,0.4185,0,64,64,106,1,sixfive,,,,,,,,,,,,,,,,,,,,,,,,,,,,,,,,,,,,,,,,,,,,,,,,,,,,,,,,,,,,,,,,,,,,,,,,,,,,,,,,,,,,,,,,,,,,,,,,,,,,,,,,,,,,,,,,,,,,,,,,,,,,,,,,,,,,,,,,,
,,611ec3be116703174027b104,2024-02-22_05h20.55.986,kallum_motion_pilot,2023.2.2,Win32,58.13953488,611ec3be116703174027b104,65d6bb0e977760de756971f7,65d6bd45cd33aca6bdaa7549,0.419,0.4194,0,65,65,122,1,sixfive,,,,,,,,,,,,,,,,,,,,,,,,,,,,,,,,,,,,,,,,,,,,,,,,,,,,,,,,,,,,,,,,,,,,,,,,,,,,,,,,,,,,,,,,,,,,,,,,,,,,,,,,,,,,,,,,,,,,,,,,,,,,,,,,,,,,,,,,,
,,611ec3be116703174027b104,2024-02-22_05h20.55.986,kallum_motion_pilot,2023.2.2,Win32,58.13953488,611ec3be116703174027b104,65d6bb0e977760de756971f7,65d6bd45cd33aca6bdaa7549,0.4199,0.4205,0,66,66,145,1,fiveseven,,,,,,,,,,,,,,,,,,,,,,,,,,,,,,,,,,,,,,,,,,,,,,,,,,,,,,,,,,,,,,,,,,,,,,,,,,,,,,,,,,,,,,,,,,,,,,,,,,,,,,,,,,,,,,,,,,,,,,,,,,,,,,,,,,,,,,,,,
,,611ec3be116703174027b104,2024-02-22_05h20.55.986,kallum_motion_pilot,2023.2.2,Win32,58.13953488,611ec3be116703174027b104,65d6bb0e977760de756971f7,65d6bd45cd33aca6bdaa7549,0.4211,0.4215,0,67,67,36,1,threeone,,,,,,,,,,,,,,,,,,,,,,,,,,,,,,,,,,,,,,,,,,,,,,,,,,,,,,,,,,,,,,,,,,,,,,,,,,,,,,,,,,,,,,,,,,,,,,,,,,,,,,,,,,,,,,,,,,,,,,,,,,,,,,,,,,,,,,,,,
,,611ec3be116703174027b104,2024-02-22_05h20.55.986,kallum_motion_pilot,2023.2.2,Win32,58.13953488,611ec3be116703174027b104,65d6bb0e977760de756971f7,65d6bd45cd33aca6bdaa7549,0.4219,0.4235,0,68,68,0,1,onetwo,,,,,,,,,,,,,,,,,,,,,,,,,,,,,,,,,,,,,,,,,,,,,,,,,,,,,,,,,,,,,,,,,,,,,,,,,,,,,,,,,,,,,,,,,,,,,,,,,,,,,,,,,,,,,,,,,,,,,,,,,,,,,,,,,,,,,,,,,
,,611ec3be116703174027b104,2024-02-22_05h20.55.986,kallum_motion_pilot,2023.2.2,Win32,58.13953488,611ec3be116703174027b104,65d6bb0e977760de756971f7,65d6bd45cd33aca6bdaa7549,0.4244,0.4247,0,69,69,96,1,fivesix,,,,,,,,,,,,,,,,,,,,,,,,,,,,,,,,,,,,,,,,,,,,,,,,,,,,,,,,,,,,,,,,,,,,,,,,,,,,,,,,,,,,,,,,,,,,,,,,,,,,,,,,,,,,,,,,,,,,,,,,,,,,,,,,,,,,,,,,,
,,611ec3be116703174027b104,2024-02-22_05h20.55.986,kallum_motion_pilot,2023.2.2,Win32,58.13953488,611ec3be116703174027b104,65d6bb0e977760de756971f7,65d6bd45cd33aca6bdaa7549,0.4264,0.427,0,70,70,5,1,threefour,,,,,,,,,,,,,,,,,,,,,,,,,,,,,,,,,,,,,,,,,,,,,,,,,,,,,,,,,,,,,,,,,,,,,,,,,,,,,,,,,,,,,,,,,,,,,,,,,,,,,,,,,,,,,,,,,,,,,,,,,,,,,,,,,,,,,,,,,
,,611ec3be116703174027b104,2024-02-22_05h20.55.986,kallum_motion_pilot,2023.2.2,Win32,58.13953488,611ec3be116703174027b104,65d6bb0e977760de756971f7,65d6bd45cd33aca6bdaa7549,0.4275,0.4288,0,71,71,16,1,onetwo,,,,,,,,,,,,,,,,,,,,,,,,,,,,,,,,,,,,,,,,,,,,,,,,,,,,,,,,,,,,,,,,,,,,,,,,,,,,,,,,,,,,,,,,,,,,,,,,,,,,,,,,,,,,,,,,,,,,,,,,,,,,,,,,,,,,,,,,,
,,611ec3be116703174027b104,2024-02-22_05h20.55.986,kallum_motion_pilot,2023.2.2,Win32,58.13953488,611ec3be116703174027b104,65d6bb0e977760de756971f7,65d6bd45cd33aca6bdaa7549,0.43,0.4304,0,72,72,58,1,twoone,,,,,,,,,,,,,,,,,,,,,,,,,,,,,,,,,,,,,,,,,,,,,,,,,,,,,,,,,,,,,,,,,,,,,,,,,,,,,,,,,,,,,,,,,,,,,,,,,,,,,,,,,,,,,,,,,,,,,,,,,,,,,,,,,,,,,,,,,
,,611ec3be116703174027b104,2024-02-22_05h20.55.986,kallum_motion_pilot,2023.2.2,Win32,58.13953488,611ec3be116703174027b104,65d6bb0e977760de756971f7,65d6bd45cd33aca6bdaa7549,0.436,0.4364,0,73,73,26,1,twoone,,,,,,,,,,,,,,,,,,,,,,,,,,,,,,,,,,,,,,,,,,,,,,,,,,,,,,,,,,,,,,,,,,,,,,,,,,,,,,,,,,,,,,,,,,,,,,,,,,,,,,,,,,,,,,,,,,,,,,,,,,,,,,,,,,,,,,,,,
,,611ec3be116703174027b104,2024-02-22_05h20.55.986,kallum_motion_pilot,2023.2.2,Win32,58.13953488,611ec3be116703174027b104,65d6bb0e977760de756971f7,65d6bd45cd33aca6bdaa7549,0.4375,0.438,0,74,74,113,1,fiveseven,,,,,,,,,,,,,,,,,,,,,,,,,,,,,,,,,,,,,,,,,,,,,,,,,,,,,,,,,,,,,,,,,,,,,,,,,,,,,,,,,,,,,,,,,,,,,,,,,,,,,,,,,,,,,,,,,,,,,,,,,,,,,,,,,,,,,,,,,
,,611ec3be116703174027b104,2024-02-22_05h20.55.986,kallum_motion_pilot,2023.2.2,Win32,58.13953488,611ec3be116703174027b104,65d6bb0e977760de756971f7,65d6bd45cd33aca6bdaa7549,0.4387,0.4392,0,75,75,161,1,fiveseven,,,,,,,,,,,,,,,,,,,,,,,,,,,,,,,,,,,,,,,,,,,,,,,,,,,,,,,,,,,,,,,,,,,,,,,,,,,,,,,,,,,,,,,,,,,,,,,,,,,,,,,,,,,,,,,,,,,,,,,,,,,,,,,,,,,,,,,,,
,,611ec3be116703174027b104,2024-02-22_05h20.55.986,kallum_motion_pilot,2023.2.2,Win32,58.13953488,611ec3be116703174027b104,65d6bb0e977760de756971f7,65d6bd45cd33aca6bdaa7549,0.4403,0.4406,0,76,76,59,1,twofour,,,,,,,,,,,,,,,,,,,,,,,,,,,,,,,,,,,,,,,,,,,,,,,,,,,,,,,,,,,,,,,,,,,,,,,,,,,,,,,,,,,,,,,,,,,,,,,,,,,,,,,,,,,,,,,,,,,,,,,,,,,,,,,,,,,,,,,,,
,,611ec3be116703174027b104,2024-02-22_05h20.55.986,kallum_motion_pilot,2023.2.2,Win32,58.13953488,611ec3be116703174027b104,65d6bb0e977760de756971f7,65d6bd45cd33aca6bdaa7549,0.4413,0.4418,0,77,77,78,1,fourtwo,,,,,,,,,,,,,,,,,,,,,,,,,,,,,,,,,,,,,,,,,,,,,,,,,,,,,,,,,,,,,,,,,,,,,,,,,,,,,,,,,,,,,,,,,,,,,,,,,,,,,,,,,,,,,,,,,,,,,,,,,,,,,,,,,,,,,,,,,
,,611ec3be116703174027b104,2024-02-22_05h20.55.986,kallum_motion_pilot,2023.2.2,Win32,58.13953488,611ec3be116703174027b104,65d6bb0e977760de756971f7,65d6bd45cd33aca6bdaa7549,0.4534,0.4541,0,78,78,14,1,fourtwo,,,,,,,,,,,,,,,,,,,,,,,,,,,,,,,,,,,,,,,,,,,,,,,,,,,,,,,,,,,,,,,,,,,,,,,,,,,,,,,,,,,,,,,,,,,,,,,,,,,,,,,,,,,,,,,,,,,,,,,,,,,,,,,,,,,,,,,,,
,,611ec3be116703174027b104,2024-02-22_05h20.55.986,kallum_motion_pilot,2023.2.2,Win32,58.13953488,611ec3be116703174027b104,65d6bb0e977760de756971f7,65d6bd45cd33aca6bdaa7549,0.4548,0.4565,0,79,79,150,1,eightsix,,,,,,,,,,,,,,,,,,,,,,,,,,,,,,,,,,,,,,,,,,,,,,,,,,,,,,,,,,,,,,,,,,,,,,,,,,,,,,,,,,,,,,,,,,,,,,,,,,,,,,,,,,,,,,,,,,,,,,,,,,,,,,,,,,,,,,,,,
,,611ec3be116703174027b104,2024-02-22_05h20.55.986,kallum_motion_pilot,2023.2.2,Win32,58.13953488,611ec3be116703174027b104,65d6bb0e977760de756971f7,65d6bd45cd33aca6bdaa7549,0.4572,0.4577,0,80,80,101,1,seveneight,,,,,,,,,,,,,,,,,,,,,,,,,,,,,,,,,,,,,,,,,,,,,,,,,,,,,,,,,,,,,,,,,,,,,,,,,,,,,,,,,,,,,,,,,,,,,,,,,,,,,,,,,,,,,,,,,,,,,,,,,,,,,,,,,,,,,,,,,
,,611ec3be116703174027b104,2024-02-22_05h20.55.986,kallum_motion_pilot,2023.2.2,Win32,58.13953488,611ec3be116703174027b104,65d6bb0e977760de756971f7,65d6bd45cd33aca6bdaa7549,0.4582,0.4587,0,81,81,11,1,twofour,,,,,,,,,,,,,,,,,,,,,,,,,,,,,,,,,,,,,,,,,,,,,,,,,,,,,,,,,,,,,,,,,,,,,,,,,,,,,,,,,,,,,,,,,,,,,,,,,,,,,,,,,,,,,,,,,,,,,,,,,,,,,,,,,,,,,,,,,
,,611ec3be116703174027b104,2024-02-22_05h20.55.986,kallum_motion_pilot,2023.2.2,Win32,58.13953488,611ec3be116703174027b104,65d6bb0e977760de756971f7,65d6bd45cd33aca6bdaa7549,0.4592,0.4597,0,82,82,37,1,threefour,,,,,,,,,,,,,,,,,,,,,,,,,,,,,,,,,,,,,,,,,,,,,,,,,,,,,,,,,,,,,,,,,,,,,,,,,,,,,,,,,,,,,,,,,,,,,,,,,,,,,,,,,,,,,,,,,,,,,,,,,,,,,,,,,,,,,,,,,
,,611ec3be116703174027b104,2024-02-22_05h20.55.986,kallum_motion_pilot,2023.2.2,Win32,58.13953488,611ec3be116703174027b104,65d6bb0e977760de756971f7,65d6bd45cd33aca6bdaa7549,0.4608,0.4644,0,83,83,91,1,sixeight,,,,,,,,,,,,,,,,,,,,,,,,,,,,,,,,,,,,,,,,,,,,,,,,,,,,,,,,,,,,,,,,,,,,,,,,,,,,,,,,,,,,,,,,,,,,,,,,,,,,,,,,,,,,,,,,,,,,,,,,,,,,,,,,,,,,,,,,,
,,611ec3be116703174027b104,2024-02-22_05h20.55.986,kallum_motion_pilot,2023.2.2,Win32,58.13953488,611ec3be116703174027b104,65d6bb0e977760de756971f7,65d6bd45cd33aca6bdaa7549,0.4664,0.4667,0,84,84,18,1,twoone,,,,,,,,,,,,,,,,,,,,,,,,,,,,,,,,,,,,,,,,,,,,,,,,,,,,,,,,,,,,,,,,,,,,,,,,,,,,,,,,,,,,,,,,,,,,,,,,,,,,,,,,,,,,,,,,,,,,,,,,,,,,,,,,,,,,,,,,,
,,611ec3be116703174027b104,2024-02-22_05h20.55.986,kallum_motion_pilot,2023.2.2,Win32,58.13953488,611ec3be116703174027b104,65d6bb0e977760de756971f7,65d6bd45cd33aca6bdaa7549,0.4693,0.4695,0,85,85,105,1,fiveseven,,,,,,,,,,,,,,,,,,,,,,,,,,,,,,,,,,,,,,,,,,,,,,,,,,,,,,,,,,,,,,,,,,,,,,,,,,,,,,,,,,,,,,,,,,,,,,,,,,,,,,,,,,,,,,,,,,,,,,,,,,,,,,,,,,,,,,,,,
,,611ec3be116703174027b104,2024-02-22_05h20.55.986,kallum_motion_pilot,2023.2.2,Win32,58.13953488,611ec3be116703174027b104,65d6bb0e977760de756971f7,65d6bd45cd33aca6bdaa7549,0.4711,0.4719,0,86,86,64,1,onetwo,,,,,,,,,,,,,,,,,,,,,,,,,,,,,,,,,,,,,,,,,,,,,,,,,,,,,,,,,,,,,,,,,,,,,,,,,,,,,,,,,,,,,,,,,,,,,,,,,,,,,,,,,,,,,,,,,,,,,,,,,,,,,,,,,,,,,,,,,
,,611ec3be116703174027b104,2024-02-22_05h20.55.986,kallum_motion_pilot,2023.2.2,Win32,58.13953488,611ec3be116703174027b104,65d6bb0e977760de756971f7,65d6bd45cd33aca6bdaa7549,0.4748,0.4767,0,87,87,156,1,sevenfive,,,,,,,,,,,,,,,,,,,,,,,,,,,,,,,,,,,,,,,,,,,,,,,,,,,,,,,,,,,,,,,,,,,,,,,,,,,,,,,,,,,,,,,,,,,,,,,,,,,,,,,,,,,,,,,,,,,,,,,,,,,,,,,,,,,,,,,,,
,,611ec3be116703174027b104,2024-02-22_05h20.55.986,kallum_motion_pilot,2023.2.2,Win32,58.13953488,611ec3be116703174027b104,65d6bb0e977760de756971f7,65d6bd45cd33aca6bdaa7549,0.4784,0.4791,0,88,88,45,1,threefour,,,,,,,,,,,,,,,,,,,,,,,,,,,,,,,,,,,,,,,,,,,,,,,,,,,,,,,,,,,,,,,,,,,,,,,,,,,,,,,,,,,,,,,,,,,,,,,,,,,,,,,,,,,,,,,,,,,,,,,,,,,,,,,,,,,,,,,,,
,,611ec3be116703174027b104,2024-02-22_05h20.55.986,kallum_motion_pilot,2023.2.2,Win32,58.13953488,611ec3be116703174027b104,65d6bb0e977760de756971f7,65d6bd45cd33aca6bdaa7549,0.4809,0.4837,0,89,89,52,1,threeone,,,,,,,,,,,,,,,,,,,,,,,,,,,,,,,,,,,,,,,,,,,,,,,,,,,,,,,,,,,,,,,,,,,,,,,,,,,,,,,,,,,,,,,,,,,,,,,,,,,,,,,,,,,,,,,,,,,,,,,,,,,,,,,,,,,,,,,,,
,,611ec3be116703174027b104,2024-02-22_05h20.55.986,kallum_motion_pilot,2023.2.2,Win32,58.13953488,611ec3be116703174027b104,65d6bb0e977760de756971f7,65d6bd45cd33aca6bdaa7549,0.4852,0.4863,0,90,90,82,1,sixfive,,,,,,,,,,,,,,,,,,,,,,,,,,,,,,,,,,,,,,,,,,,,,,,,,,,,,,,,,,,,,,,,,,,,,,,,,,,,,,,,,,,,,,,,,,,,,,,,,,,,,,,,,,,,,,,,,,,,,,,,,,,,,,,,,,,,,,,,,
,,611ec3be116703174027b104,2024-02-22_05h20.55.986,kallum_motion_pilot,2023.2.2,Win32,58.13953488,611ec3be116703174027b104,65d6bb0e977760de756971f7,65d6bd45cd33aca6bdaa7549,0.4876,0.4883,0,91,91,133,1,seveneight,,,,,,,,,,,,,,,,,,,,,,,,,,,,,,,,,,,,,,,,,,,,,,,,,,,,,,,,,,,,,,,,,,,,,,,,,,,,,,,,,,,,,,,,,,,,,,,,,,,,,,,,,,,,,,,,,,,,,,,,,,,,,,,,,,,,,,,,,
,,611ec3be116703174027b104,2024-02-22_05h20.55.986,kallum_motion_pilot,2023.2.2,Win32,58.13953488,611ec3be116703174027b104,65d6bb0e977760de756971f7,65d6bd45cd33aca6bdaa7549,0.4894,0.4901,0,92,92,61,1,threefour,,,,,,,,,,,,,,,,,,,,,,,,,,,,,,,,,,,,,,,,,,,,,,,,,,,,,,,,,,,,,,,,,,,,,,,,,,,,,,,,,,,,,,,,,,,,,,,,,,,,,,,,,,,,,,,,,,,,,,,,,,,,,,,,,,,,,,,,,
,,611ec3be116703174027b104,2024-02-22_05h20.55.986,kallum_motion_pilot,2023.2.2,Win32,58.13953488,611ec3be116703174027b104,65d6bb0e977760de756971f7,65d6bd45cd33aca6bdaa7549,0.4941,0.4944,0,93,93,88,1,fivesix,,,,,,,,,,,,,,,,,,,,,,,,,,,,,,,,,,,,,,,,,,,,,,,,,,,,,,,,,,,,,,,,,,,,,,,,,,,,,,,,,,,,,,,,,,,,,,,,,,,,,,,,,,,,,,,,,,,,,,,,,,,,,,,,,,,,,,,,,
,,611ec3be116703174027b104,2024-02-22_05h20.55.986,kallum_motion_pilot,2023.2.2,Win32,58.13953488,611ec3be116703174027b104,65d6bb0e977760de756971f7,65d6bd45cd33aca6bdaa7549,0.4967,0.4978,0,94,94,92,1,sevenfive,,,,,,,,,,,,,,,,,,,,,,,,,,,,,,,,,,,,,,,,,,,,,,,,,,,,,,,,,,,,,,,,,,,,,,,,,,,,,,,,,,,,,,,,,,,,,,,,,,,,,,,,,,,,,,,,,,,,,,,,,,,,,,,,,,,,,,,,,
,,611ec3be116703174027b104,2024-02-22_05h20.55.986,kallum_motion_pilot,2023.2.2,Win32,58.13953488,611ec3be116703174027b104,65d6bb0e977760de756971f7,65d6bd45cd33aca6bdaa7549,0.4986,0.4991,0,95,95,80,1,fivesix,,,,,,,,,,,,,,,,,,,,,,,,,,,,,,,,,,,,,,,,,,,,,,,,,,,,,,,,,,,,,,,,,,,,,,,,,,,,,,,,,,,,,,,,,,,,,,,,,,,,,,,,,,,,,,,,,,,,,,,,,,,,,,,,,,,,,,,,,
,,611ec3be116703174027b104,2024-02-22_05h20.55.986,kallum_motion_pilot,2023.2.2,Win32,58.13953488,611ec3be116703174027b104,65d6bb0e977760de756971f7,65d6bd45cd33aca6bdaa7549,0.4996,0.5002,0,96,96,67,1,twofour,,,,,,,,,,,,,,,,,,,,,,,,,,,,,,,,,,,,,,,,,,,,,,,,,,,,,,,,,,,,,,,,,,,,,,,,,,,,,,,,,,,,,,,,,,,,,,,,,,,,,,,,,,,,,,,,,,,,,,,,,,,,,,,,,,,,,,,,,
,,611ec3be116703174027b104,2024-02-22_05h20.55.986,kallum_motion_pilot,2023.2.2,Win32,58.13953488,611ec3be116703174027b104,65d6bb0e977760de756971f7,65d6bd45cd33aca6bdaa7549,0.5006,0.501,0,97,97,137,1,fiveseven,,,,,,,,,,,,,,,,,,,,,,,,,,,,,,,,,,,,,,,,,,,,,,,,,,,,,,,,,,,,,,,,,,,,,,,,,,,,,,,,,,,,,,,,,,,,,,,,,,,,,,,,,,,,,,,,,,,,,,,,,,,,,,,,,,,,,,,,,
,,611ec3be116703174027b104,2024-02-22_05h20.55.986,kallum_motion_pilot,2023.2.2,Win32,58.13953488,611ec3be116703174027b104,65d6bb0e977760de756971f7,65d6bd45cd33aca6bdaa7549,0.5016,0.5039,0,98,98,40,1,onetwo,,,,,,,,,,,,,,,,,,,,,,,,,,,,,,,,,,,,,,,,,,,,,,,,,,,,,,,,,,,,,,,,,,,,,,,,,,,,,,,,,,,,,,,,,,,,,,,,,,,,,,,,,,,,,,,,,,,,,,,,,,,,,,,,,,,,,,,,,
,,611ec3be116703174027b104,2024-02-22_05h20.55.986,kallum_motion_pilot,2023.2.2,Win32,58.13953488,611ec3be116703174027b104,65d6bb0e977760de756971f7,65d6bd45cd33aca6bdaa7549,0.5053,0.5065,0,99,99,2,1,twoone,,,,,,,,,,,,,,,,,,,,,,,,,,,,,,,,,,,,,,,,,,,,,,,,,,,,,,,,,,,,,,,,,,,,,,,,,,,,,,,,,,,,,,,,,,,,,,,,,,,,,,,,,,,,,,,,,,,,,,,,,,,,,,,,,,,,,,,,,
,,611ec3be116703174027b104,2024-02-22_05h20.55.986,kallum_motion_pilot,2023.2.2,Win32,58.13953488,611ec3be116703174027b104,65d6bb0e977760de756971f7,65d6bd45cd33aca6bdaa7549,0.5081,0.5086,0,100,100,158,1,eightsix,,,,,,,,,,,,,,,,,,,,,,,,,,,,,,,,,,,,,,,,,,,,,,,,,,,,,,,,,,,,,,,,,,,,,,,,,,,,,,,,,,,,,,,,,,,,,,,,,,,,,,,,,,,,,,,,,,,,,,,,,,,,,,,,,,,,,,,,,
,,611ec3be116703174027b104,2024-02-22_05h20.55.986,kallum_motion_pilot,2023.2.2,Win32,58.13953488,611ec3be116703174027b104,65d6bb0e977760de756971f7,65d6bd45cd33aca6bdaa7549,0.5098,0.511,0,101,101,103,1,eightseven,,,,,,,,,,,,,,,,,,,,,,,,,,,,,,,,,,,,,,,,,,,,,,,,,,,,,,,,,,,,,,,,,,,,,,,,,,,,,,,,,,,,,,,,,,,,,,,,,,,,,,,,,,,,,,,,,,,,,,,,,,,,,,,,,,,,,,,,,
,,611ec3be116703174027b104,2024-02-22_05h20.55.986,kallum_motion_pilot,2023.2.2,Win32,58.13953488,611ec3be116703174027b104,65d6bb0e977760de756971f7,65d6bd45cd33aca6bdaa7549,0.5138,0.5146,0,102,102,132,1,sevenfive,,,,,,,,,,,,,,,,,,,,,,,,,,,,,,,,,,,,,,,,,,,,,,,,,,,,,,,,,,,,,,,,,,,,,,,,,,,,,,,,,,,,,,,,,,,,,,,,,,,,,,,,,,,,,,,,,,,,,,,,,,,,,,,,,,,,,,,,,
,,611ec3be116703174027b104,2024-02-22_05h20.55.986,kallum_motion_pilot,2023.2.2,Win32,58.13953488,611ec3be116703174027b104,65d6bb0e977760de756971f7,65d6bd45cd33aca6bdaa7549,0.5167,0.5175,0,103,103,39,1,fourthree,,,,,,,,,,,,,,,,,,,,,,,,,,,,,,,,,,,,,,,,,,,,,,,,,,,,,,,,,,,,,,,,,,,,,,,,,,,,,,,,,,,,,,,,,,,,,,,,,,,,,,,,,,,,,,,,,,,,,,,,,,,,,,,,,,,,,,,,,
,,611ec3be116703174027b104,2024-02-22_05h20.55.986,kallum_motion_pilot,2023.2.2,Win32,58.13953488,611ec3be116703174027b104,65d6bb0e977760de756971f7,65d6bd45cd33aca6bdaa7549,0.5186,0.5193,0,104,104,79,1,eightseven,,,,,,,,,,,,,,,,,,,,,,,,,,,,,,,,,,,,,,,,,,,,,,,,,,,,,,,,,,,,,,,,,,,,,,,,,,,,,,,,,,,,,,,,,,,,,,,,,,,,,,,,,,,,,,,,,,,,,,,,,,,,,,,,,,,,,,,,,
,,611ec3be116703174027b104,2024-02-22_05h20.55.986,kallum_motion_pilot,2023.2.2,Win32,58.13953488,611ec3be116703174027b104,65d6bb0e977760de756971f7,65d6bd45cd33aca6bdaa7549,0.5203,0.5209,0,105,105,44,1,threeone,,,,,,,,,,,,,,,,,,,,,,,,,,,,,,,,,,,,,,,,,,,,,,,,,,,,,,,,,,,,,,,,,,,,,,,,,,,,,,,,,,,,,,,,,,,,,,,,,,,,,,,,,,,,,,,,,,,,,,,,,,,,,,,,,,,,,,,,,
,,611ec3be116703174027b104,2024-02-22_05h20.55.986,kallum_motion_pilot,2023.2.2,Win32,58.13953488,611ec3be116703174027b104,65d6bb0e977760de756971f7,65d6bd45cd33aca6bdaa7549,0.5238,0.5241,0,106,106,126,1,eightsix,,,,,,,,,,,,,,,,,,,,,,,,,,,,,,,,,,,,,,,,,,,,,,,,,,,,,,,,,,,,,,,,,,,,,,,,,,,,,,,,,,,,,,,,,,,,,,,,,,,,,,,,,,,,,,,,,,,,,,,,,,,,,,,,,,,,,,,,,
,,611ec3be116703174027b104,2024-02-22_05h20.55.986,kallum_motion_pilot,2023.2.2,Win32,58.13953488,611ec3be116703174027b104,65d6bb0e977760de756971f7,65d6bd45cd33aca6bdaa7549,0.5264,0.5274,0,107,107,8,1,onetwo,,,,,,,,,,,,,,,,,,,,,,,,,,,,,,,,,,,,,,,,,,,,,,,,,,,,,,,,,,,,,,,,,,,,,,,,,,,,,,,,,,,,,,,,,,,,,,,,,,,,,,,,,,,,,,,,,,,,,,,,,,,,,,,,,,,,,,,,,
,,611ec3be116703174027b104,2024-02-22_05h20.55.986,kallum_motion_pilot,2023.2.2,Win32,58.13953488,611ec3be116703174027b104,65d6bb0e977760de756971f7,65d6bd45cd33aca6bdaa7549,0.5285,0.5292,0,108,108,112,1,fivesix,,,,,,,,,,,,,,,,,,,,,,,,,,,,,,,,,,,,,,,,,,,,,,,,,,,,,,,,,,,,,,,,,,,,,,,,,,,,,,,,,,,,,,,,,,,,,,,,,,,,,,,,,,,,,,,,,,,,,,,,,,,,,,,,,,,,,,,,,
,,611ec3be116703174027b104,2024-02-22_05h20.55.986,kallum_motion_pilot,2023.2.2,Win32,58.13953488,611ec3be116703174027b104,65d6bb0e977760de756971f7,65d6bd45cd33aca6bdaa7549,0.5306,0.5311,0,109,109,125,1,seveneight,,,,,,,,,,,,,,,,,,,,,,,,,,,,,,,,,,,,,,,,,,,,,,,,,,,,,,,,,,,,,,,,,,,,,,,,,,,,,,,,,,,,,,,,,,,,,,,,,,,,,,,,,,,,,,,,,,,,,,,,,,,,,,,,,,,,,,,,,
,,611ec3be116703174027b104,2024-02-22_05h20.55.986,kallum_motion_pilot,2023.2.2,Win32,58.13953488,611ec3be116703174027b104,65d6bb0e977760de756971f7,65d6bd45cd33aca6bdaa7549,0.5317,0.5334,0,110,110,29,1,threefour,,,,,,,,,,,,,,,,,,,,,,,,,,,,,,,,,,,,,,,,,,,,,,,,,,,,,,,,,,,,,,,,,,,,,,,,,,,,,,,,,,,,,,,,,,,,,,,,,,,,,,,,,,,,,,,,,,,,,,,,,,,,,,,,,,,,,,,,,
,,611ec3be116703174027b104,2024-02-22_05h20.55.986,kallum_motion_pilot,2023.2.2,Win32,58.13953488,611ec3be116703174027b104,65d6bb0e977760de756971f7,65d6bd45cd33aca6bdaa7549,0.5344,0.5347,0,111,111,51,1,twofour,,,,,,,,,,,,,,,,,,,,,,,,,,,,,,,,,,,,,,,,,,,,,,,,,,,,,,,,,,,,,,,,,,,,,,,,,,,,,,,,,,,,,,,,,,,,,,,,,,,,,,,,,,,,,,,,,,,,,,,,,,,,,,,,,,,,,,,,,
,,611ec3be116703174027b104,2024-02-22_05h20.55.986,kallum_motion_pilot,2023.2.2,Win32,58.13953488,611ec3be116703174027b104,65d6bb0e977760de756971f7,65d6bd45cd33aca6bdaa7549,0.5355,0.536,0,112,112,35,1,twofour,,,,,,,,,,,,,,,,,,,,,,,,,,,,,,,,,,,,,,,,,,,,,,,,,,,,,,,,,,,,,,,,,,,,,,,,,,,,,,,,,,,,,,,,,,,,,,,,,,,,,,,,,,,,,,,,,,,,,,,,,,,,,,,,,,,,,,,,,
,,611ec3be116703174027b104,2024-02-22_05h20.55.986,kallum_motion_pilot,2023.2.2,Win32,58.13953488,611ec3be116703174027b104,65d6bb0e977760de756971f7,65d6bd45cd33aca6bdaa7549,0.5375,0.538,0,113,113,6,1,fourtwo,,,,,,,,,,,,,,,,,,,,,,,,,,,,,,,,,,,,,,,,,,,,,,,,,,,,,,,,,,,,,,,,,,,,,,,,,,,,,,,,,,,,,,,,,,,,,,,,,,,,,,,,,,,,,,,,,,,,,,,,,,,,,,,,,,,,,,,,,
,,611ec3be116703174027b104,2024-02-22_05h20.55.986,kallum_motion_pilot,2023.2.2,Win32,58.13953488,611ec3be116703174027b104,65d6bb0e977760de756971f7,65d6bd45cd33aca6bdaa7549,0.5385,0.5389,0,114,114,56,1,onetwo,,,,,,,,,,,,,,,,,,,,,,,,,,,,,,,,,,,,,,,,,,,,,,,,,,,,,,,,,,,,,,,,,,,,,,,,,,,,,,,,,,,,,,,,,,,,,,,,,,,,,,,,,,,,,,,,,,,,,,,,,,,,,,,,,,,,,,,,,
,,611ec3be116703174027b104,2024-02-22_05h20.55.986,kallum_motion_pilot,2023.2.2,Win32,58.13953488,611ec3be116703174027b104,65d6bb0e977760de756971f7,65d6bd45cd33aca6bdaa7549,0.5397,0.5405,0,115,115,4,1,threeone,,,,,,,,,,,,,,,,,,,,,,,,,,,,,,,,,,,,,,,,,,,,,,,,,,,,,,,,,,,,,,,,,,,,,,,,,,,,,,,,,,,,,,,,,,,,,,,,,,,,,,,,,,,,,,,,,,,,,,,,,,,,,,,,,,,,,,,,,
,,611ec3be116703174027b104,2024-02-22_05h20.55.986,kallum_motion_pilot,2023.2.2,Win32,58.13953488,611ec3be116703174027b104,65d6bb0e977760de756971f7,65d6bd45cd33aca6bdaa7549,0.5413,0.5417,0,116,116,84,1,sevenfive,,,,,,,,,,,,,,,,,,,,,,,,,,,,,,,,,,,,,,,,,,,,,,,,,,,,,,,,,,,,,,,,,,,,,,,,,,,,,,,,,,,,,,,,,,,,,,,,,,,,,,,,,,,,,,,,,,,,,,,,,,,,,,,,,,,,,,,,,
,,611ec3be116703174027b104,2024-02-22_05h20.55.986,kallum_motion_pilot,2023.2.2,Win32,58.13953488,611ec3be116703174027b104,65d6bb0e977760de756971f7,65d6bd45cd33aca6bdaa7549,0.5432,0.5447,0,117,117,76,1,threeone,,,,,,,,,,,,,,,,,,,,,,,,,,,,,,,,,,,,,,,,,,,,,,,,,,,,,,,,,,,,,,,,,,,,,,,,,,,,,,,,,,,,,,,,,,,,,,,,,,,,,,,,,,,,,,,,,,,,,,,,,,,,,,,,,,,,,,,,,
,,611ec3be116703174027b104,2024-02-22_05h20.55.986,kallum_motion_pilot,2023.2.2,Win32,58.13953488,611ec3be116703174027b104,65d6bb0e977760de756971f7,65d6bd45cd33aca6bdaa7549,0.5457,0.5477,0,118,118,66,1,twoone,,,,,,,,,,,,,,,,,,,,,,,,,,,,,,,,,,,,,,,,,,,,,,,,,,,,,,,,,,,,,,,,,,,,,,,,,,,,,,,,,,,,,,,,,,,,,,,,,,,,,,,,,,,,,,,,,,,,,,,,,,,,,,,,,,,,,,,,,
,,611ec3be116703174027b104,2024-02-22_05h20.55.986,kallum_motion_pilot,2023.2.2,Win32,58.13953488,611ec3be116703174027b104,65d6bb0e977760de756971f7,65d6bd45cd33aca6bdaa7549,0.5491,0.5498,0,119,119,141,1,seveneight,,,,,,,,,,,,,,,,,,,,,,,,,,,,,,,,,,,,,,,,,,,,,,,,,,,,,,,,,,,,,,,,,,,,,,,,,,,,,,,,,,,,,,,,,,,,,,,,,,,,,,,,,,,,,,,,,,,,,,,,,,,,,,,,,,,,,,,,,
,,611ec3be116703174027b104,2024-02-22_05h20.55.986,kallum_motion_pilot,2023.2.2,Win32,58.13953488,611ec3be116703174027b104,65d6bb0e977760de756971f7,65d6bd45cd33aca6bdaa7549,0.5505,0.5511,0,120,120,118,1,eightsix,,,,,,,,,,,,,,,,,,,,,,,,,,,,,,,,,,,,,,,,,,,,,,,,,,,,,,,,,,,,,,,,,,,,,,,,,,,,,,,,,,,,,,,,,,,,,,,,,,,,,,,,,,,,,,,,,,,,,,,,,,,,,,,,,,,,,,,,,
,,611ec3be116703174027b104,2024-02-22_05h20.55.986,kallum_motion_pilot,2023.2.2,Win32,58.13953488,611ec3be116703174027b104,65d6bb0e977760de756971f7,65d6bd45cd33aca6bdaa7549,0.5515,0.5529,0,121,121,86,1,eightsix,,,,,,,,,,,,,,,,,,,,,,,,,,,,,,,,,,,,,,,,,,,,,,,,,,,,,,,,,,,,,,,,,,,,,,,,,,,,,,,,,,,,,,,,,,,,,,,,,,,,,,,,,,,,,,,,,,,,,,,,,,,,,,,,,,,,,,,,,
,,611ec3be116703174027b104,2024-02-22_05h20.55.986,kallum_motion_pilot,2023.2.2,Win32,58.13953488,611ec3be116703174027b104,65d6bb0e977760de756971f7,65d6bd45cd33aca6bdaa7549,0.5537,0.5544,0,122,122,53,1,threefour,,,,,,,,,,,,,,,,,,,,,,,,,,,,,,,,,,,,,,,,,,,,,,,,,,,,,,,,,,,,,,,,,,,,,,,,,,,,,,,,,,,,,,,,,,,,,,,,,,,,,,,,,,,,,,,,,,,,,,,,,,,,,,,,,,,,,,,,,
,,611ec3be116703174027b104,2024-02-22_05h20.55.986,kallum_motion_pilot,2023.2.2,Win32,58.13953488,611ec3be116703174027b104,65d6bb0e977760de756971f7,65d6bd45cd33aca6bdaa7549,0.5553,0.5559,0,123,123,41,1,onethree,,,,,,,,,,,,,,,,,,,,,,,,,,,,,,,,,,,,,,,,,,,,,,,,,,,,,,,,,,,,,,,,,,,,,,,,,,,,,,,,,,,,,,,,,,,,,,,,,,,,,,,,,,,,,,,,,,,,,,,,,,,,,,,,,,,,,,,,,
,,611ec3be116703174027b104,2024-02-22_05h20.55.986,kallum_motion_pilot,2023.2.2,Win32,58.13953488,611ec3be116703174027b104,65d6bb0e977760de756971f7,65d6bd45cd33aca6bdaa7549,0.5594,0.5599,0,124,124,107,1,sixeight,,,,,,,,,,,,,,,,,,,,,,,,,,,,,,,,,,,,,,,,,,,,,,,,,,,,,,,,,,,,,,,,,,,,,,,,,,,,,,,,,,,,,,,,,,,,,,,,,,,,,,,,,,,,,,,,,,,,,,,,,,,,,,,,,,,,,,,,,
,,611ec3be116703174027b104,2024-02-22_05h20.55.986,kallum_motion_pilot,2023.2.2,Win32,58.13953488,611ec3be116703174027b104,65d6bb0e977760de756971f7,65d6bd45cd33aca6bdaa7549,0.5613,0.5636,0,125,125,130,1,sixfive,,,,,,,,,,,,,,,,,,,,,,,,,,,,,,,,,,,,,,,,,,,,,,,,,,,,,,,,,,,,,,,,,,,,,,,,,,,,,,,,,,,,,,,,,,,,,,,,,,,,,,,,,,,,,,,,,,,,,,,,,,,,,,,,,,,,,,,,,
,,611ec3be116703174027b104,2024-02-22_05h20.55.986,kallum_motion_pilot,2023.2.2,Win32,58.13953488,611ec3be116703174027b104,65d6bb0e977760de756971f7,65d6bd45cd33aca6bdaa7549,0.5646,0.5651,0,126,126,100,1,sevenfive,,,,,,,,,,,,,,,,,,,,,,,,,,,,,,,,,,,,,,,,,,,,,,,,,,,,,,,,,,,,,,,,,,,,,,,,,,,,,,,,,,,,,,,,,,,,,,,,,,,,,,,,,,,,,,,,,,,,,,,,,,,,,,,,,,,,,,,,,
,,611ec3be116703174027b104,2024-02-22_05h20.55.986,kallum_motion_pilot,2023.2.2,Win32,58.13953488,611ec3be116703174027b104,65d6bb0e977760de756971f7,65d6bd45cd33aca6bdaa7549,0.5656,0.5669,0,127,127,89,1,fiveseven,,,,,,,,,,,,,,,,,,,,,,,,,,,,,,,,,,,,,,,,,,,,,,,,,,,,,,,,,,,,,,,,,,,,,,,,,,,,,,,,,,,,,,,,,,,,,,,,,,,,,,,,,,,,,,,,,,,,,,,,,,,,,,,,,,,,,,,,,
,,611ec3be116703174027b104,2024-02-22_05h20.55.986,kallum_motion_pilot,2023.2.2,Win32,58.13953488,611ec3be116703174027b104,65d6bb0e977760de756971f7,65d6bd45cd33aca6bdaa7549,0.5675,0.5683,0,128,128,77,1,threefour,,,,,,,,,,,,,,,,,,,,,,,,,,,,,,,,,,,,,,,,,,,,,,,,,,,,,,,,,,,,,,,,,,,,,,,,,,,,,,,,,,,,,,,,,,,,,,,,,,,,,,,,,,,,,,,,,,,,,,,,,,,,,,,,,,,,,,,,,
,,611ec3be116703174027b104,2024-02-22_05h20.55.986,kallum_motion_pilot,2023.2.2,Win32,58.13953488,611ec3be116703174027b104,65d6bb0e977760de756971f7,65d6bd45cd33aca6bdaa7549,0.5689,0.5694,0,129,129,109,1,seveneight,,,,,,,,,,,,,,,,,,,,,,,,,,,,,,,,,,,,,,,,,,,,,,,,,,,,,,,,,,,,,,,,,,,,,,,,,,,,,,,,,,,,,,,,,,,,,,,,,,,,,,,,,,,,,,,,,,,,,,,,,,,,,,,,,,,,,,,,,
,,611ec3be116703174027b104,2024-02-22_05h20.55.986,kallum_motion_pilot,2023.2.2,Win32,58.13953488,611ec3be116703174027b104,65d6bb0e977760de756971f7,65d6bd45cd33aca6bdaa7549,0.5701,0.5706,0,130,130,117,1,seveneight,,,,,,,,,,,,,,,,,,,,,,,,,,,,,,,,,,,,,,,,,,,,,,,,,,,,,,,,,,,,,,,,,,,,,,,,,,,,,,,,,,,,,,,,,,,,,,,,,,,,,,,,,,,,,,,,,,,,,,,,,,,,,,,,,,,,,,,,,
,,611ec3be116703174027b104,2024-02-22_05h20.55.986,kallum_motion_pilot,2023.2.2,Win32,58.13953488,611ec3be116703174027b104,65d6bb0e977760de756971f7,65d6bd45cd33aca6bdaa7549,0.5711,0.5716,0,131,131,73,1,onethree,,,,,,,,,,,,,,,,,,,,,,,,,,,,,,,,,,,,,,,,,,,,,,,,,,,,,,,,,,,,,,,,,,,,,,,,,,,,,,,,,,,,,,,,,,,,,,,,,,,,,,,,,,,,,,,,,,,,,,,,,,,,,,,,,,,,,,,,,
,,611ec3be116703174027b104,2024-02-22_05h20.55.986,kallum_motion_pilot,2023.2.2,Win32,58.13953488,611ec3be116703174027b104,65d6bb0e977760de756971f7,65d6bd45cd33aca6bdaa7549,0.5735,0.5745,0,132,132,32,1,onetwo,,,,,,,,,,,,,,,,,,,,,,,,,,,,,,,,,,,,,,,,,,,,,,,,,,,,,,,,,,,,,,,,,,,,,,,,,,,,,,,,,,,,,,,,,,,,,,,,,,,,,,,,,,,,,,,,,,,,,,,,,,,,,,,,,,,,,,,,,
,,611ec3be116703174027b104,2024-02-22_05h20.55.986,kallum_motion_pilot,2023.2.2,Win32,58.13953488,611ec3be116703174027b104,65d6bb0e977760de756971f7,65d6bd45cd33aca6bdaa7549,0.5769,0.5779,0,133,133,147,1,sixeight,,,,,,,,,,,,,,,,,,,,,,,,,,,,,,,,,,,,,,,,,,,,,,,,,,,,,,,,,,,,,,,,,,,,,,,,,,,,,,,,,,,,,,,,,,,,,,,,,,,,,,,,,,,,,,,,,,,,,,,,,,,,,,,,,,,,,,,,,
,,611ec3be116703174027b104,2024-02-22_05h20.55.986,kallum_motion_pilot,2023.2.2,Win32,58.13953488,611ec3be116703174027b104,65d6bb0e977760de756971f7,65d6bd45cd33aca6bdaa7549,0.5785,0.5796,0,134,134,21,1,threefour,,,,,,,,,,,,,,,,,,,,,,,,,,,,,,,,,,,,,,,,,,,,,,,,,,,,,,,,,,,,,,,,,,,,,,,,,,,,,,,,,,,,,,,,,,,,,,,,,,,,,,,,,,,,,,,,,,,,,,,,,,,,,,,,,,,,,,,,,
,,611ec3be116703174027b104,2024-02-22_05h20.55.986,kallum_motion_pilot,2023.2.2,Win32,58.13953488,611ec3be116703174027b104,65d6bb0e977760de756971f7,65d6bd45cd33aca6bdaa7549,0.5805,0.5811,0,135,135,1,1,onethree,,,,,,,,,,,,,,,,,,,,,,,,,,,,,,,,,,,,,,,,,,,,,,,,,,,,,,,,,,,,,,,,,,,,,,,,,,,,,,,,,,,,,,,,,,,,,,,,,,,,,,,,,,,,,,,,,,,,,,,,,,,,,,,,,,,,,,,,,
,,611ec3be116703174027b104,2024-02-22_05h20.55.986,kallum_motion_pilot,2023.2.2,Win32,58.13953488,611ec3be116703174027b104,65d6bb0e977760de756971f7,65d6bd45cd33aca6bdaa7549,0.5816,0.5825,0,136,136,97,1,fiveseven,,,,,,,,,,,,,,,,,,,,,,,,,,,,,,,,,,,,,,,,,,,,,,,,,,,,,,,,,,,,,,,,,,,,,,,,,,,,,,,,,,,,,,,,,,,,,,,,,,,,,,,,,,,,,,,,,,,,,,,,,,,,,,,,,,,,,,,,,
,,611ec3be116703174027b104,2024-02-22_05h20.55.986,kallum_motion_pilot,2023.2.2,Win32,58.13953488,611ec3be116703174027b104,65d6bb0e977760de756971f7,65d6bd45cd33aca6bdaa7549,0.5836,0.5838,0,137,137,27,1,twofour,,,,,,,,,,,,,,,,,,,,,,,,,,,,,,,,,,,,,,,,,,,,,,,,,,,,,,,,,,,,,,,,,,,,,,,,,,,,,,,,,,,,,,,,,,,,,,,,,,,,,,,,,,,,,,,,,,,,,,,,,,,,,,,,,,,,,,,,,
,,611ec3be116703174027b104,2024-02-22_05h20.55.986,kallum_motion_pilot,2023.2.2,Win32,58.13953488,611ec3be116703174027b104,65d6bb0e977760de756971f7,65d6bd45cd33aca6bdaa7549,0.5847,0.5852,0,138,138,46,1,fourtwo,,,,,,,,,,,,,,,,,,,,,,,,,,,,,,,,,,,,,,,,,,,,,,,,,,,,,,,,,,,,,,,,,,,,,,,,,,,,,,,,,,,,,,,,,,,,,,,,,,,,,,,,,,,,,,,,,,,,,,,,,,,,,,,,,,,,,,,,,
,,611ec3be116703174027b104,2024-02-22_05h20.55.986,kallum_motion_pilot,2023.2.2,Win32,58.13953488,611ec3be116703174027b104,65d6bb0e977760de756971f7,65d6bd45cd33aca6bdaa7549,0.5858,0.5875,0,139,139,95,1,eightseven,,,,,,,,,,,,,,,,,,,,,,,,,,,,,,,,,,,,,,,,,,,,,,,,,,,,,,,,,,,,,,,,,,,,,,,,,,,,,,,,,,,,,,,,,,,,,,,,,,,,,,,,,,,,,,,,,,,,,,,,,,,,,,,,,,,,,,,,,
,,611ec3be116703174027b104,2024-02-22_05h20.55.986,kallum_motion_pilot,2023.2.2,Win32,58.13953488,611ec3be116703174027b104,65d6bb0e977760de756971f7,65d6bd45cd33aca6bdaa7549,0.5883,0.5887,0,140,140,94,1,eightsix,,,,,,,,,,,,,,,,,,,,,,,,,,,,,,,,,,,,,,,,,,,,,,,,,,,,,,,,,,,,,,,,,,,,,,,,,,,,,,,,,,,,,,,,,,,,,,,,,,,,,,,,,,,,,,,,,,,,,,,,,,,,,,,,,,,,,,,,,
,,611ec3be116703174027b104,2024-02-22_05h20.55.986,kallum_motion_pilot,2023.2.2,Win32,58.13953488,611ec3be116703174027b104,65d6bb0e977760de756971f7,65d6bd45cd33aca6bdaa7549,0.5901,0.5904,0,141,141,123,1,sixeight,,,,,,,,,,,,,,,,,,,,,,,,,,,,,,,,,,,,,,,,,,,,,,,,,,,,,,,,,,,,,,,,,,,,,,,,,,,,,,,,,,,,,,,,,,,,,,,,,,,,,,,,,,,,,,,,,,,,,,,,,,,,,,,,,,,,,,,,,
,,611ec3be116703174027b104,2024-02-22_05h20.55.986,kallum_motion_pilot,2023.2.2,Win32,58.13953488,611ec3be116703174027b104,65d6bb0e977760de756971f7,65d6bd45cd33aca6bdaa7549,0.5912,0.5916,0,142,142,142,1,eightsix,,,,,,,,,,,,,,,,,,,,,,,,,,,,,,,,,,,,,,,,,,,,,,,,,,,,,,,,,,,,,,,,,,,,,,,,,,,,,,,,,,,,,,,,,,,,,,,,,,,,,,,,,,,,,,,,,,,,,,,,,,,,,,,,,,,,,,,,,
,,611ec3be116703174027b104,2024-02-22_05h20.55.986,kallum_motion_pilot,2023.2.2,Win32,58.13953488,611ec3be116703174027b104,65d6bb0e977760de756971f7,65d6bd45cd33aca6bdaa7549,0.5934,0.5937,0,143,143,71,1,fourthree,,,,,,,,,,,,,,,,,,,,,,,,,,,,,,,,,,,,,,,,,,,,,,,,,,,,,,,,,,,,,,,,,,,,,,,,,,,,,,,,,,,,,,,,,,,,,,,,,,,,,,,,,,,,,,,,,,,,,,,,,,,,,,,,,,,,,,,,,
,,611ec3be116703174027b104,2024-02-22_05h20.55.986,kallum_motion_pilot,2023.2.2,Win32,58.13953488,611ec3be116703174027b104,65d6bb0e977760de756971f7,65d6bd45cd33aca6bdaa7549,0.5948,0.5952,0,144,144,60,1,threeone,,,,,,,,,,,,,,,,,,,,,,,,,,,,,,,,,,,,,,,,,,,,,,,,,,,,,,,,,,,,,,,,,,,,,,,,,,,,,,,,,,,,,,,,,,,,,,,,,,,,,,,,,,,,,,,,,,,,,,,,,,,,,,,,,,,,,,,,,
,,611ec3be116703174027b104,2024-02-22_05h20.55.986,kallum_motion_pilot,2023.2.2,Win32,58.13953488,611ec3be116703174027b104,65d6bb0e977760de756971f7,65d6bd45cd33aca6bdaa7549,0.5958,0.5976,0,145,145,143,1,eightseven,,,,,,,,,,,,,,,,,,,,,,,,,,,,,,,,,,,,,,,,,,,,,,,,,,,,,,,,,,,,,,,,,,,,,,,,,,,,,,,,,,,,,,,,,,,,,,,,,,,,,,,,,,,,,,,,,,,,,,,,,,,,,,,,,,,,,,,,,
,,611ec3be116703174027b104,2024-02-22_05h20.55.986,kallum_motion_pilot,2023.2.2,Win32,58.13953488,611ec3be116703174027b104,65d6bb0e977760de756971f7,65d6bd45cd33aca6bdaa7549,0.5985,0.5991,0,146,146,111,1,eightseven,,,,,,,,,,,,,,,,,,,,,,,,,,,,,,,,,,,,,,,,,,,,,,,,,,,,,,,,,,,,,,,,,,,,,,,,,,,,,,,,,,,,,,,,,,,,,,,,,,,,,,,,,,,,,,,,,,,,,,,,,,,,,,,,,,,,,,,,,
,,611ec3be116703174027b104,2024-02-22_05h20.55.986,kallum_motion_pilot,2023.2.2,Win32,58.13953488,611ec3be116703174027b104,65d6bb0e977760de756971f7,65d6bd45cd33aca6bdaa7549,0.5996,0.6002,0,147,147,127,1,eightseven,,,,,,,,,,,,,,,,,,,,,,,,,,,,,,,,,,,,,,,,,,,,,,,,,,,,,,,,,,,,,,,,,,,,,,,,,,,,,,,,,,,,,,,,,,,,,,,,,,,,,,,,,,,,,,,,,,,,,,,,,,,,,,,,,,,,,,,,,
,,611ec3be116703174027b104,2024-02-22_05h20.55.986,kallum_motion_pilot,2023.2.2,Win32,58.13953488,611ec3be116703174027b104,65d6bb0e977760de756971f7,65d6bd45cd33aca6bdaa7549,0.6006,0.6017,0,148,148,83,1,sixeight,,,,,,,,,,,,,,,,,,,,,,,,,,,,,,,,,,,,,,,,,,,,,,,,,,,,,,,,,,,,,,,,,,,,,,,,,,,,,,,,,,,,,,,,,,,,,,,,,,,,,,,,,,,,,,,,,,,,,,,,,,,,,,,,,,,,,,,,,
,,611ec3be116703174027b104,2024-02-22_05h20.55.986,kallum_motion_pilot,2023.2.2,Win32,58.13953488,611ec3be116703174027b104,65d6bb0e977760de756971f7,65d6bd45cd33aca6bdaa7549,0.6036,0.6041,0,149,149,139,1,sixeight,,,,,,,,,,,,,,,,,,,,,,,,,,,,,,,,,,,,,,,,,,,,,,,,,,,,,,,,,,,,,,,,,,,,,,,,,,,,,,,,,,,,,,,,,,,,,,,,,,,,,,,,,,,,,,,,,,,,,,,,,,,,,,,,,,,,,,,,,
,,611ec3be116703174027b104,2024-02-22_05h20.55.986,kallum_motion_pilot,2023.2.2,Win32,58.13953488,611ec3be116703174027b104,65d6bb0e977760de756971f7,65d6bd45cd33aca6bdaa7549,0.6048,0.6054,0,150,150,119,1,eightseven,,,,,,,,,,,,,,,,,,,,,,,,,,,,,,,,,,,,,,,,,,,,,,,,,,,,,,,,,,,,,,,,,,,,,,,,,,,,,,,,,,,,,,,,,,,,,,,,,,,,,,,,,,,,,,,,,,,,,,,,,,,,,,,,,,,,,,,,,
,,611ec3be116703174027b104,2024-02-22_05h20.55.986,kallum_motion_pilot,2023.2.2,Win32,58.13953488,611ec3be116703174027b104,65d6bb0e977760de756971f7,65d6bd45cd33aca6bdaa7549,0.6067,0.6072,0,151,151,93,1,seveneight,,,,,,,,,,,,,,,,,,,,,,,,,,,,,,,,,,,,,,,,,,,,,,,,,,,,,,,,,,,,,,,,,,,,,,,,,,,,,,,,,,,,,,,,,,,,,,,,,,,,,,,,,,,,,,,,,,,,,,,,,,,,,,,,,,,,,,,,,
,,611ec3be116703174027b104,2024-02-22_05h20.55.986,kallum_motion_pilot,2023.2.2,Win32,58.13953488,611ec3be116703174027b104,65d6bb0e977760de756971f7,65d6bd45cd33aca6bdaa7549,0.6088,0.6099,0,152,152,114,1,sixfive,,,,,,,,,,,,,,,,,,,,,,,,,,,,,,,,,,,,,,,,,,,,,,,,,,,,,,,,,,,,,,,,,,,,,,,,,,,,,,,,,,,,,,,,,,,,,,,,,,,,,,,,,,,,,,,,,,,,,,,,,,,,,,,,,,,,,,,,,
,,611ec3be116703174027b104,2024-02-22_05h20.55.986,kallum_motion_pilot,2023.2.2,Win32,58.13953488,611ec3be116703174027b104,65d6bb0e977760de756971f7,65d6bd45cd33aca6bdaa7549,0.6105,0.6111,0,153,153,146,1,sixfive,,,,,,,,,,,,,,,,,,,,,,,,,,,,,,,,,,,,,,,,,,,,,,,,,,,,,,,,,,,,,,,,,,,,,,,,,,,,,,,,,,,,,,,,,,,,,,,,,,,,,,,,,,,,,,,,,,,,,,,,,,,,,,,,,,,,,,,,,
,,611ec3be116703174027b104,2024-02-22_05h20.55.986,kallum_motion_pilot,2023.2.2,Win32,58.13953488,611ec3be116703174027b104,65d6bb0e977760de756971f7,65d6bd45cd33aca6bdaa7549,0.6115,0.6126,0,154,154,54,1,fourtwo,,,,,,,,,,,,,,,,,,,,,,,,,,,,,,,,,,,,,,,,,,,,,,,,,,,,,,,,,,,,,,,,,,,,,,,,,,,,,,,,,,,,,,,,,,,,,,,,,,,,,,,,,,,,,,,,,,,,,,,,,,,,,,,,,,,,,,,,,
,,611ec3be116703174027b104,2024-02-22_05h20.55.986,kallum_motion_pilot,2023.2.2,Win32,58.13953488,611ec3be116703174027b104,65d6bb0e977760de756971f7,65d6bd45cd33aca6bdaa7549,0.6152,0.6156,0,155,155,28,1,threeone,,,,,,,,,,,,,,,,,,,,,,,,,,,,,,,,,,,,,,,,,,,,,,,,,,,,,,,,,,,,,,,,,,,,,,,,,,,,,,,,,,,,,,,,,,,,,,,,,,,,,,,,,,,,,,,,,,,,,,,,,,,,,,,,,,,,,,,,,
,,611ec3be116703174027b104,2024-02-22_05h20.55.986,kallum_motion_pilot,2023.2.2,Win32,58.13953488,611ec3be116703174027b104,65d6bb0e977760de756971f7,65d6bd45cd33aca6bdaa7549,0.6171,0.6174,0,156,156,124,1,sevenfive,,,,,,,,,,,,,,,,,,,,,,,,,,,,,,,,,,,,,,,,,,,,,,,,,,,,,,,,,,,,,,,,,,,,,,,,,,,,,,,,,,,,,,,,,,,,,,,,,,,,,,,,,,,,,,,,,,,,,,,,,,,,,,,,,,,,,,,,,
,,611ec3be116703174027b104,2024-02-22_05h20.55.986,kallum_motion_pilot,2023.2.2,Win32,58.13953488,611ec3be116703174027b104,65d6bb0e977760de756971f7,65d6bd45cd33aca6bdaa7549,0.6188,0.6198,0,157,157,13,1,threefour,,,,,,,,,,,,,,,,,,,,,,,,,,,,,,,,,,,,,,,,,,,,,,,,,,,,,,,,,,,,,,,,,,,,,,,,,,,,,,,,,,,,,,,,,,,,,,,,,,,,,,,,,,,,,,,,,,,,,,,,,,,,,,,,,,,,,,,,,
,,611ec3be116703174027b104,2024-02-22_05h20.55.986,kallum_motion_pilot,2023.2.2,Win32,58.13953488,611ec3be116703174027b104,65d6bb0e977760de756971f7,65d6bd45cd33aca6bdaa7549,0.6209,0.6219,0,158,158,10,1,twoone,,,,,,,,,,,,,,,,,,,,,,,,,,,,,,,,,,,,,,,,,,,,,,,,,,,,,,,,,,,,,,,,,,,,,,,,,,,,,,,,,,,,,,,,,,,,,,,,,,,,,,,,,,,,,,,,,,,,,,,,,,,,,,,,,,,,,,,,,
,,611ec3be116703174027b104,2024-02-22_05h20.55.986,kallum_motion_pilot,2023.2.2,Win32,58.13953488,611ec3be116703174027b104,65d6bb0e977760de756971f7,65d6bd45cd33aca6bdaa7549,0.6247,0.6258,0,159,159,155,1,sixeight,,,,,,,,,,,,,,,,,,,,,,,,,,,,,,,,,,,,,,,,,,,,,,,,,,,,,,,,,,,,,,,,,,,,,,,,,,,,,,,,,,,,,,,,,,,,,,,,,,,,,,,,,,,,,,,,,,,,,,,,,,,,,,,,,,,,,,,,,
,,611ec3be116703174027b104,2024-02-22_05h20.55.986,kallum_motion_pilot,2023.2.2,Win32,58.13953488,611ec3be116703174027b104,65d6bb0e977760de756971f7,65d6bd45cd33aca6bdaa7549,0.6275,0.6279,0,160,160,63,1,fourthree,,,,,,,,,,,,,,,,,,,,,,,,,,,,,,,,,,,,,,,,,,,,,,,,,,,,,,,,,,,,,,,,,,,,,,,,,,,,,,,,,,,,,,,,,,,,,,,,,,,,,,,,,,,,,,,,,,,,,,,,,,,,,,,,,,,,,,,,,
,,611ec3be116703174027b104,2024-02-22_05h20.55.986,kallum_motion_pilot,2023.2.2,Win32,58.13953488,611ec3be116703174027b104,65d6bb0e977760de756971f7,65d6bd45cd33aca6bdaa7549,0.6286,0.6292,0,161,161,120,1,fivesix,,,,,,,,,,,,,,,,,,,,,,,,,,,,,,,,,,,,,,,,,,,,,,,,,,,,,,,,,,,,,,,,,,,,,,,,,,,,,,,,,,,,,,,,,,,,,,,,,,,,,,,,,,,,,,,,,,,,,,,,,,,,,,,,,,,,,,,,,
,,611ec3be116703174027b104,2024-02-22_05h20.55.986,kallum_motion_pilot,2023.2.2,Win32,58.13953488,611ec3be116703174027b104,65d6bb0e977760de756971f7,65d6bd45cd33aca6bdaa7549,0.6309,0.6313,1,0,162,44,1,threeone,,,,,,,,,,,,,,,,,,,,,,,,,,,,,,,,,,,,,,,,,,,,,,,,,,,,,,,,,,,,,,,,,,,,,,,,,,,,,,,,,,,,,,,,,,,,,,,,,,,,,,,,,,,,,,,,,,,,,,,,,,,,,,,,,,,,,,,,,
,,611ec3be116703174027b104,2024-02-22_05h20.55.986,kallum_motion_pilot,2023.2.2,Win32,58.13953488,611ec3be116703174027b104,65d6bb0e977760de756971f7,65d6bd45cd33aca6bdaa7549,0.6341,0.6347,1,1,163,74,1,twoone,,,,,,,,,,,,,,,,,,,,,,,,,,,,,,,,,,,,,,,,,,,,,,,,,,,,,,,,,,,,,,,,,,,,,,,,,,,,,,,,,,,,,,,,,,,,,,,,,,,,,,,,,,,,,,,,,,,,,,,,,,,,,,,,,,,,,,,,,
,,611ec3be116703174027b104,2024-02-22_05h20.55.986,kallum_motion_pilot,2023.2.2,Win32,58.13953488,611ec3be116703174027b104,65d6bb0e977760de756971f7,65d6bd45cd33aca6bdaa7549,0.6354,0.6368,1,2,164,40,1,onetwo,,,,,,,,,,,,,,,,,,,,,,,,,,,,,,,,,,,,,,,,,,,,,,,,,,,,,,,,,,,,,,,,,,,,,,,,,,,,,,,,,,,,,,,,,,,,,,,,,,,,,,,,,,,,,,,,,,,,,,,,,,,,,,,,,,,,,,,,,
,,611ec3be116703174027b104,2024-02-22_05h20.55.986,kallum_motion_pilot,2023.2.2,Win32,58.13953488,611ec3be116703174027b104,65d6bb0e977760de756971f7,65d6bd45cd33aca6bdaa7549,0.6383,0.6392,1,3,165,155,1,sixeight,,,,,,,,,,,,,,,,,,,,,,,,,,,,,,,,,,,,,,,,,,,,,,,,,,,,,,,,,,,,,,,,,,,,,,,,,,,,,,,,,,,,,,,,,,,,,,,,,,,,,,,,,,,,,,,,,,,,,,,,,,,,,,,,,,,,,,,,,
,,611ec3be116703174027b104,2024-02-22_05h20.55.986,kallum_motion_pilot,2023.2.2,Win32,58.13953488,611ec3be116703174027b104,65d6bb0e977760de756971f7,65d6bd45cd33aca6bdaa7549,0.6397,0.6406,1,4,166,43,1,twofour,,,,,,,,,,,,,,,,,,,,,,,,,,,,,,,,,,,,,,,,,,,,,,,,,,,,,,,,,,,,,,,,,,,,,,,,,,,,,,,,,,,,,,,,,,,,,,,,,,,,,,,,,,,,,,,,,,,,,,,,,,,,,,,,,,,,,,,,,
,,611ec3be116703174027b104,2024-02-22_05h20.55.986,kallum_motion_pilot,2023.2.2,Win32,58.13953488,611ec3be116703174027b104,65d6bb0e977760de756971f7,65d6bd45cd33aca6bdaa7549,0.6416,0.6428,1,5,167,0,1,onetwo,,,,,,,,,,,,,,,,,,,,,,,,,,,,,,,,,,,,,,,,,,,,,,,,,,,,,,,,,,,,,,,,,,,,,,,,,,,,,,,,,,,,,,,,,,,,,,,,,,,,,,,,,,,,,,,,,,,,,,,,,,,,,,,,,,,,,,,,,
,,611ec3be116703174027b104,2024-02-22_05h20.55.986,kallum_motion_pilot,2023.2.2,Win32,58.13953488,611ec3be116703174027b104,65d6bb0e977760de756971f7,65d6bd45cd33aca6bdaa7549,0.6436,0.6442,1,6,168,149,1,seveneight,,,,,,,,,,,,,,,,,,,,,,,,,,,,,,,,,,,,,,,,,,,,,,,,,,,,,,,,,,,,,,,,,,,,,,,,,,,,,,,,,,,,,,,,,,,,,,,,,,,,,,,,,,,,,,,,,,,,,,,,,,,,,,,,,,,,,,,,,
,,611ec3be116703174027b104,2024-02-22_05h20.55.986,kallum_motion_pilot,2023.2.2,Win32,58.13953488,611ec3be116703174027b104,65d6bb0e977760de756971f7,65d6bd45cd33aca6bdaa7549,0.6447,0.6456,1,7,169,127,1,eightseven,,,,,,,,,,,,,,,,,,,,,,,,,,,,,,,,,,,,,,,,,,,,,,,,,,,,,,,,,,,,,,,,,,,,,,,,,,,,,,,,,,,,,,,,,,,,,,,,,,,,,,,,,,,,,,,,,,,,,,,,,,,,,,,,,,,,,,,,,
,,611ec3be116703174027b104,2024-02-22_05h20.55.986,kallum_motion_pilot,2023.2.2,Win32,58.13953488,611ec3be116703174027b104,65d6bb0e977760de756971f7,65d6bd45cd33aca6bdaa7549,0.6477,0.6482,1,8,170,101,1,seveneight,,,,,,,,,,,,,,,,,,,,,,,,,,,,,,,,,,,,,,,,,,,,,,,,,,,,,,,,,,,,,,,,,,,,,,,,,,,,,,,,,,,,,,,,,,,,,,,,,,,,,,,,,,,,,,,,,,,,,,,,,,,,,,,,,,,,,,,,,
,,611ec3be116703174027b104,2024-02-22_05h20.55.986,kallum_motion_pilot,2023.2.2,Win32,58.13953488,611ec3be116703174027b104,65d6bb0e977760de756971f7,65d6bd45cd33aca6bdaa7549,0.6488,0.6501,1,9,171,89,1,fiveseven,,,,,,,,,,,,,,,,,,,,,,,,,,,,,,,,,,,,,,,,,,,,,,,,,,,,,,,,,,,,,,,,,,,,,,,,,,,,,,,,,,,,,,,,,,,,,,,,,,,,,,,,,,,,,,,,,,,,,,,,,,,,,,,,,,,,,,,,,
,,611ec3be116703174027b104,2024-02-22_05h20.55.986,kallum_motion_pilot,2023.2.2,Win32,58.13953488,611ec3be116703174027b104,65d6bb0e977760de756971f7,65d6bd45cd33aca6bdaa7549,0.6536,0.6541,1,10,172,154,1,sixfive,,,,,,,,,,,,,,,,,,,,,,,,,,,,,,,,,,,,,,,,,,,,,,,,,,,,,,,,,,,,,,,,,,,,,,,,,,,,,,,,,,,,,,,,,,,,,,,,,,,,,,,,,,,,,,,,,,,,,,,,,,,,,,,,,,,,,,,,,
,,611ec3be116703174027b104,2024-02-22_05h20.55.986,kallum_motion_pilot,2023.2.2,Win32,58.13953488,611ec3be116703174027b104,65d6bb0e977760de756971f7,65d6bd45cd33aca6bdaa7549,0.6549,0.6553,1,11,173,73,1,onethree,,,,,,,,,,,,,,,,,,,,,,,,,,,,,,,,,,,,,,,,,,,,,,,,,,,,,,,,,,,,,,,,,,,,,,,,,,,,,,,,,,,,,,,,,,,,,,,,,,,,,,,,,,,,,,,,,,,,,,,,,,,,,,,,,,,,,,,,,
,,611ec3be116703174027b104,2024-02-22_05h20.55.986,kallum_motion_pilot,2023.2.2,Win32,58.13953488,611ec3be116703174027b104,65d6bb0e977760de756971f7,65d6bd45cd33aca6bdaa7549,0.6572,0.6575,1,12,174,123,1,sixeight,,,,,,,,,,,,,,,,,,,,,,,,,,,,,,,,,,,,,,,,,,,,,,,,,,,,,,,,,,,,,,,,,,,,,,,,,,,,,,,,,,,,,,,,,,,,,,,,,,,,,,,,,,,,,,,,,,,,,,,,,,,,,,,,,,,,,,,,,
,,611ec3be116703174027b104,2024-02-22_05h20.55.986,kallum_motion_pilot,2023.2.2,Win32,58.13953488,611ec3be116703174027b104,65d6bb0e977760de756971f7,65d6bd45cd33aca6bdaa7549,0.6583,0.6588,1,13,175,3,1,twofour,,,,,,,,,,,,,,,,,,,,,,,,,,,,,,,,,,,,,,,,,,,,,,,,,,,,,,,,,,,,,,,,,,,,,,,,,,,,,,,,,,,,,,,,,,,,,,,,,,,,,,,,,,,,,,,,,,,,,,,,,,,,,,,,,,,,,,,,,
,,611ec3be116703174027b104,2024-02-22_05h20.55.986,kallum_motion_pilot,2023.2.2,Win32,58.13953488,611ec3be116703174027b104,65d6bb0e977760de756971f7,65d6bd45cd33aca6bdaa7549,0.6593,0.6597,1,14,176,90,1,sixfive,,,,,,,,,,,,,,,,,,,,,,,,,,,,,,,,,,,,,,,,,,,,,,,,,,,,,,,,,,,,,,,,,,,,,,,,,,,,,,,,,,,,,,,,,,,,,,,,,,,,,,,,,,,,,,,,,,,,,,,,,,,,,,,,,,,,,,,,,
,,611ec3be116703174027b104,2024-02-22_05h20.55.986,kallum_motion_pilot,2023.2.2,Win32,58.13953488,611ec3be116703174027b104,65d6bb0e977760de756971f7,65d6bd45cd33aca6bdaa7549,0.6605,0.661,1,15,177,135,1,eightseven,,,,,,,,,,,,,,,,,,,,,,,,,,,,,,,,,,,,,,,,,,,,,,,,,,,,,,,,,,,,,,,,,,,,,,,,,,,,,,,,,,,,,,,,,,,,,,,,,,,,,,,,,,,,,,,,,,,,,,,,,,,,,,,,,,,,,,,,,
,,611ec3be116703174027b104,2024-02-22_05h20.55.986,kallum_motion_pilot,2023.2.2,Win32,58.13953488,611ec3be116703174027b104,65d6bb0e977760de756971f7,65d6bd45cd33aca6bdaa7549,0.6615,0.6622,1,16,178,66,1,twoone,,,,,,,,,,,,,,,,,,,,,,,,,,,,,,,,,,,,,,,,,,,,,,,,,,,,,,,,,,,,,,,,,,,,,,,,,,,,,,,,,,,,,,,,,,,,,,,,,,,,,,,,,,,,,,,,,,,,,,,,,,,,,,,,,,,,,,,,,
,,611ec3be116703174027b104,2024-02-22_05h20.55.986,kallum_motion_pilot,2023.2.2,Win32,58.13953488,611ec3be116703174027b104,65d6bb0e977760de756971f7,65d6bd45cd33aca6bdaa7549,0.6646,0.6651,1,17,179,157,1,seveneight,,,,,,,,,,,,,,,,,,,,,,,,,,,,,,,,,,,,,,,,,,,,,,,,,,,,,,,,,,,,,,,,,,,,,,,,,,,,,,,,,,,,,,,,,,,,,,,,,,,,,,,,,,,,,,,,,,,,,,,,,,,,,,,,,,,,,,,,,
,,611ec3be116703174027b104,2024-02-22_05h20.55.986,kallum_motion_pilot,2023.2.2,Win32,58.13953488,611ec3be116703174027b104,65d6bb0e977760de756971f7,65d6bd45cd33aca6bdaa7549,0.6659,0.6662,1,18,180,161,1,fiveseven,,,,,,,,,,,,,,,,,,,,,,,,,,,,,,,,,,,,,,,,,,,,,,,,,,,,,,,,,,,,,,,,,,,,,,,,,,,,,,,,,,,,,,,,,,,,,,,,,,,,,,,,,,,,,,,,,,,,,,,,,,,,,,,,,,,,,,,,,
,,611ec3be116703174027b104,2024-02-22_05h20.55.986,kallum_motion_pilot,2023.2.2,Win32,58.13953488,611ec3be116703174027b104,65d6bb0e977760de756971f7,65d6bd45cd33aca6bdaa7549,0.6668,0.6687,1,19,181,81,1,fiveseven,,,,,,,,,,,,,,,,,,,,,,,,,,,,,,,,,,,,,,,,,,,,,,,,,,,,,,,,,,,,,,,,,,,,,,,,,,,,,,,,,,,,,,,,,,,,,,,,,,,,,,,,,,,,,,,,,,,,,,,,,,,,,,,,,,,,,,,,,
,,611ec3be116703174027b104,2024-02-22_05h20.55.986,kallum_motion_pilot,2023.2.2,Win32,58.13953488,611ec3be116703174027b104,65d6bb0e977760de756971f7,65d6bd45cd33aca6bdaa7549,0.6696,0.6701,1,20,182,57,1,onethree,,,,,,,,,,,,,,,,,,,,,,,,,,,,,,,,,,,,,,,,,,,,,,,,,,,,,,,,,,,,,,,,,,,,,,,,,,,,,,,,,,,,,,,,,,,,,,,,,,,,,,,,,,,,,,,,,,,,,,,,,,,,,,,,,,,,,,,,,
,,611ec3be116703174027b104,2024-02-22_05h20.55.986,kallum_motion_pilot,2023.2.2,Win32,58.13953488,611ec3be116703174027b104,65d6bb0e977760de756971f7,65d6bd45cd33aca6bdaa7549,0.6707,0.6713,1,21,183,46,1,fourtwo,,,,,,,,,,,,,,,,,,,,,,,,,,,,,,,,,,,,,,,,,,,,,,,,,,,,,,,,,,,,,,,,,,,,,,,,,,,,,,,,,,,,,,,,,,,,,,,,,,,,,,,,,,,,,,,,,,,,,,,,,,,,,,,,,,,,,,,,,
,,611ec3be116703174027b104,2024-02-22_05h20.55.986,kallum_motion_pilot,2023.2.2,Win32,58.13953488,611ec3be116703174027b104,65d6bb0e977760de756971f7,65d6bd45cd33aca6bdaa7549,0.6733,0.6738,1,22,184,140,1,sevenfive,,,,,,,,,,,,,,,,,,,,,,,,,,,,,,,,,,,,,,,,,,,,,,,,,,,,,,,,,,,,,,,,,,,,,,,,,,,,,,,,,,,,,,,,,,,,,,,,,,,,,,,,,,,,,,,,,,,,,,,,,,,,,,,,,,,,,,,,,
,,611ec3be116703174027b104,2024-02-22_05h20.55.986,kallum_motion_pilot,2023.2.2,Win32,58.13953488,611ec3be116703174027b104,65d6bb0e977760de756971f7,65d6bd45cd33aca6bdaa7549,0.6747,0.6754,1,23,185,16,1,onetwo,,,,,,,,,,,,,,,,,,,,,,,,,,,,,,,,,,,,,,,,,,,,,,,,,,,,,,,,,,,,,,,,,,,,,,,,,,,,,,,,,,,,,,,,,,,,,,,,,,,,,,,,,,,,,,,,,,,,,,,,,,,,,,,,,,,,,,,,,
,,611ec3be116703174027b104,2024-02-22_05h20.55.986,kallum_motion_pilot,2023.2.2,Win32,58.13953488,611ec3be116703174027b104,65d6bb0e977760de756971f7,65d6bd45cd33aca6bdaa7549,0.6762,0.6767,1,24,186,124,1,sevenfive,,,,,,,,,,,,,,,,,,,,,,,,,,,,,,,,,,,,,,,,,,,,,,,,,,,,,,,,,,,,,,,,,,,,,,,,,,,,,,,,,,,,,,,,,,,,,,,,,,,,,,,,,,,,,,,,,,,,,,,,,,,,,,,,,,,,,,,,,
,,611ec3be116703174027b104,2024-02-22_05h20.55.986,kallum_motion_pilot,2023.2.2,Win32,58.13953488,611ec3be116703174027b104,65d6bb0e977760de756971f7,65d6bd45cd33aca6bdaa7549,0.6781,0.6788,1,25,187,52,1,threeone,,,,,,,,,,,,,,,,,,,,,,,,,,,,,,,,,,,,,,,,,,,,,,,,,,,,,,,,,,,,,,,,,,,,,,,,,,,,,,,,,,,,,,,,,,,,,,,,,,,,,,,,,,,,,,,,,,,,,,,,,,,,,,,,,,,,,,,,,
,,611ec3be116703174027b104,2024-02-22_05h20.55.986,kallum_motion_pilot,2023.2.2,Win32,58.13953488,611ec3be116703174027b104,65d6bb0e977760de756971f7,65d6bd45cd33aca6bdaa7549,0.6802,0.6804,1,26,188,22,1,fourtwo,,,,,,,,,,,,,,,,,,,,,,,,,,,,,,,,,,,,,,,,,,,,,,,,,,,,,,,,,,,,,,,,,,,,,,,,,,,,,,,,,,,,,,,,,,,,,,,,,,,,,,,,,,,,,,,,,,,,,,,,,,,,,,,,,,,,,,,,,
,,611ec3be116703174027b104,2024-02-22_05h20.55.986,kallum_motion_pilot,2023.2.2,Win32,58.13953488,611ec3be116703174027b104,65d6bb0e977760de756971f7,65d6bd45cd33aca6bdaa7549,0.6811,0.6816,1,27,189,117,1,seveneight,,,,,,,,,,,,,,,,,,,,,,,,,,,,,,,,,,,,,,,,,,,,,,,,,,,,,,,,,,,,,,,,,,,,,,,,,,,,,,,,,,,,,,,,,,,,,,,,,,,,,,,,,,,,,,,,,,,,,,,,,,,,,,,,,,,,,,,,,
,,611ec3be116703174027b104,2024-02-22_05h20.55.986,kallum_motion_pilot,2023.2.2,Win32,58.13953488,611ec3be116703174027b104,65d6bb0e977760de756971f7,65d6bd45cd33aca6bdaa7549,0.6855,0.6864,1,28,190,151,1,eightseven,,,,,,,,,,,,,,,,,,,,,,,,,,,,,,,,,,,,,,,,,,,,,,,,,,,,,,,,,,,,,,,,,,,,,,,,,,,,,,,,,,,,,,,,,,,,,,,,,,,,,,,,,,,,,,,,,,,,,,,,,,,,,,,,,,,,,,,,,
,,611ec3be116703174027b104,2024-02-22_05h20.55.986,kallum_motion_pilot,2023.2.2,Win32,58.13953488,611ec3be116703174027b104,65d6bb0e977760de756971f7,65d6bd45cd33aca6bdaa7549,0.6882,0.6888,1,29,191,153,1,fiveseven,,,,,,,,,,,,,,,,,,,,,,,,,,,,,,,,,,,,,,,,,,,,,,,,,,,,,,,,,,,,,,,,,,,,,,,,,,,,,,,,,,,,,,,,,,,,,,,,,,,,,,,,,,,,,,,,,,,,,,,,,,,,,,,,,,,,,,,,,
,,611ec3be116703174027b104,2024-02-22_05h20.55.986,kallum_motion_pilot,2023.2.2,Win32,58.13953488,611ec3be116703174027b104,65d6bb0e977760de756971f7,65d6bd45cd33aca6bdaa7549,0.6894,0.6904,1,30,192,150,1,eightsix,,,,,,,,,,,,,,,,,,,,,,,,,,,,,,,,,,,,,,,,,,,,,,,,,,,,,,,,,,,,,,,,,,,,,,,,,,,,,,,,,,,,,,,,,,,,,,,,,,,,,,,,,,,,,,,,,,,,,,,,,,,,,,,,,,,,,,,,,
,,611ec3be116703174027b104,2024-02-22_05h20.55.986,kallum_motion_pilot,2023.2.2,Win32,58.13953488,611ec3be116703174027b104,65d6bb0e977760de756971f7,65d6bd45cd33aca6bdaa7549,0.6915,0.6936,1,31,193,63,1,fourthree,,,,,,,,,,,,,,,,,,,,,,,,,,,,,,,,,,,,,,,,,,,,,,,,,,,,,,,,,,,,,,,,,,,,,,,,,,,,,,,,,,,,,,,,,,,,,,,,,,,,,,,,,,,,,,,,,,,,,,,,,,,,,,,,,,,,,,,,,
,,611ec3be116703174027b104,2024-02-22_05h20.55.986,kallum_motion_pilot,2023.2.2,Win32,58.13953488,611ec3be116703174027b104,65d6bb0e977760de756971f7,65d6bd45cd33aca6bdaa7549,0.6954,0.6969,1,32,194,142,1,eightsix,,,,,,,,,,,,,,,,,,,,,,,,,,,,,,,,,,,,,,,,,,,,,,,,,,,,,,,,,,,,,,,,,,,,,,,,,,,,,,,,,,,,,,,,,,,,,,,,,,,,,,,,,,,,,,,,,,,,,,,,,,,,,,,,,,,,,,,,,
,,611ec3be116703174027b104,2024-02-22_05h20.55.986,kallum_motion_pilot,2023.2.2,Win32,58.13953488,611ec3be116703174027b104,65d6bb0e977760de756971f7,65d6bd45cd33aca6bdaa7549,0.6975,0.6981,1,33,195,104,1,fivesix,,,,,,,,,,,,,,,,,,,,,,,,,,,,,,,,,,,,,,,,,,,,,,,,,,,,,,,,,,,,,,,,,,,,,,,,,,,,,,,,,,,,,,,,,,,,,,,,,,,,,,,,,,,,,,,,,,,,,,,,,,,,,,,,,,,,,,,,,
,,611ec3be116703174027b104,2024-02-22_05h20.55.986,kallum_motion_pilot,2023.2.2,Win32,58.13953488,611ec3be116703174027b104,65d6bb0e977760de756971f7,65d6bd45cd33aca6bdaa7549,0.6986,0.6993,1,34,196,25,1,onethree,,,,,,,,,,,,,,,,,,,,,,,,,,,,,,,,,,,,,,,,,,,,,,,,,,,,,,,,,,,,,,,,,,,,,,,,,,,,,,,,,,,,,,,,,,,,,,,,,,,,,,,,,,,,,,,,,,,,,,,,,,,,,,,,,,,,,,,,,
,,611ec3be116703174027b104,2024-02-22_05h20.55.986,kallum_motion_pilot,2023.2.2,Win32,58.13953488,611ec3be116703174027b104,65d6bb0e977760de756971f7,65d6bd45cd33aca6bdaa7549,0.6998,0.7004,1,35,197,71,1,fourthree,,,,,,,,,,,,,,,,,,,,,,,,,,,,,,,,,,,,,,,,,,,,,,,,,,,,,,,,,,,,,,,,,,,,,,,,,,,,,,,,,,,,,,,,,,,,,,,,,,,,,,,,,,,,,,,,,,,,,,,,,,,,,,,,,,,,,,,,,
,,611ec3be116703174027b104,2024-02-22_05h20.55.986,kallum_motion_pilot,2023.2.2,Win32,58.13953488,611ec3be116703174027b104,65d6bb0e977760de756971f7,65d6bd45cd33aca6bdaa7549,0.701,0.7014,1,36,198,112,1,fivesix,,,,,,,,,,,,,,,,,,,,,,,,,,,,,,,,,,,,,,,,,,,,,,,,,,,,,,,,,,,,,,,,,,,,,,,,,,,,,,,,,,,,,,,,,,,,,,,,,,,,,,,,,,,,,,,,,,,,,,,,,,,,,,,,,,,,,,,,,
,,611ec3be116703174027b104,2024-02-22_05h20.55.986,kallum_motion_pilot,2023.2.2,Win32,58.13953488,611ec3be116703174027b104,65d6bb0e977760de756971f7,65d6bd45cd33aca6bdaa7549,0.702,0.7034,1,37,199,145,1,fiveseven,,,,,,,,,,,,,,,,,,,,,,,,,,,,,,,,,,,,,,,,,,,,,,,,,,,,,,,,,,,,,,,,,,,,,,,,,,,,,,,,,,,,,,,,,,,,,,,,,,,,,,,,,,,,,,,,,,,,,,,,,,,,,,,,,,,,,,,,,
,,611ec3be116703174027b104,2024-02-22_05h20.55.986,kallum_motion_pilot,2023.2.2,Win32,58.13953488,611ec3be116703174027b104,65d6bb0e977760de756971f7,65d6bd45cd33aca6bdaa7549,0.7041,0.7047,1,38,200,69,1,threefour,,,,,,,,,,,,,,,,,,,,,,,,,,,,,,,,,,,,,,,,,,,,,,,,,,,,,,,,,,,,,,,,,,,,,,,,,,,,,,,,,,,,,,,,,,,,,,,,,,,,,,,,,,,,,,,,,,,,,,,,,,,,,,,,,,,,,,,,,
,,611ec3be116703174027b104,2024-02-22_05h20.55.986,kallum_motion_pilot,2023.2.2,Win32,58.13953488,611ec3be116703174027b104,65d6bb0e977760de756971f7,65d6bd45cd33aca6bdaa7549,0.7054,0.7059,1,39,201,134,1,eightsix,,,,,,,,,,,,,,,,,,,,,,,,,,,,,,,,,,,,,,,,,,,,,,,,,,,,,,,,,,,,,,,,,,,,,,,,,,,,,,,,,,,,,,,,,,,,,,,,,,,,,,,,,,,,,,,,,,,,,,,,,,,,,,,,,,,,,,,,,
,,611ec3be116703174027b104,2024-02-22_05h20.55.986,kallum_motion_pilot,2023.2.2,Win32,58.13953488,611ec3be116703174027b104,65d6bb0e977760de756971f7,65d6bd45cd33aca6bdaa7549,0.7066,0.7081,1,40,202,93,1,seveneight,,,,,,,,,,,,,,,,,,,,,,,,,,,,,,,,,,,,,,,,,,,,,,,,,,,,,,,,,,,,,,,,,,,,,,,,,,,,,,,,,,,,,,,,,,,,,,,,,,,,,,,,,,,,,,,,,,,,,,,,,,,,,,,,,,,,,,,,,
,,611ec3be116703174027b104,2024-02-22_05h20.55.986,kallum_motion_pilot,2023.2.2,Win32,58.13953488,611ec3be116703174027b104,65d6bb0e977760de756971f7,65d6bd45cd33aca6bdaa7549,0.7089,0.7094,1,41,203,115,1,sixeight,,,,,,,,,,,,,,,,,,,,,,,,,,,,,,,,,,,,,,,,,,,,,,,,,,,,,,,,,,,,,,,,,,,,,,,,,,,,,,,,,,,,,,,,,,,,,,,,,,,,,,,,,,,,,,,,,,,,,,,,,,,,,,,,,,,,,,,,,
,,611ec3be116703174027b104,2024-02-22_05h20.55.986,kallum_motion_pilot,2023.2.2,Win32,58.13953488,611ec3be116703174027b104,65d6bb0e977760de756971f7,65d6bd45cd33aca6bdaa7549,0.71,0.7104,1,42,204,85,1,seveneight,,,,,,,,,,,,,,,,,,,,,,,,,,,,,,,,,,,,,,,,,,,,,,,,,,,,,,,,,,,,,,,,,,,,,,,,,,,,,,,,,,,,,,,,,,,,,,,,,,,,,,,,,,,,,,,,,,,,,,,,,,,,,,,,,,,,,,,,,
,,611ec3be116703174027b104,2024-02-22_05h20.55.986,kallum_motion_pilot,2023.2.2,Win32,58.13953488,611ec3be116703174027b104,65d6bb0e977760de756971f7,65d6bd45cd33aca6bdaa7549,0.711,0.7115,1,43,205,88,1,fivesix,,,,,,,,,,,,,,,,,,,,,,,,,,,,,,,,,,,,,,,,,,,,,,,,,,,,,,,,,,,,,,,,,,,,,,,,,,,,,,,,,,,,,,,,,,,,,,,,,,,,,,,,,,,,,,,,,,,,,,,,,,,,,,,,,,,,,,,,,
,,611ec3be116703174027b104,2024-02-22_05h20.55.986,kallum_motion_pilot,2023.2.2,Win32,58.13953488,611ec3be116703174027b104,65d6bb0e977760de756971f7,65d6bd45cd33aca6bdaa7549,0.7137,0.7142,1,44,206,144,1,fivesix,,,,,,,,,,,,,,,,,,,,,,,,,,,,,,,,,,,,,,,,,,,,,,,,,,,,,,,,,,,,,,,,,,,,,,,,,,,,,,,,,,,,,,,,,,,,,,,,,,,,,,,,,,,,,,,,,,,,,,,,,,,,,,,,,,,,,,,,,
,,611ec3be116703174027b104,2024-02-22_05h20.55.986,kallum_motion_pilot,2023.2.2,Win32,58.13953488,611ec3be116703174027b104,65d6bb0e977760de756971f7,65d6bd45cd33aca6bdaa7549,0.7156,0.7163,1,45,207,11,1,twofour,,,,,,,,,,,,,,,,,,,,,,,,,,,,,,,,,,,,,,,,,,,,,,,,,,,,,,,,,,,,,,,,,,,,,,,,,,,,,,,,,,,,,,,,,,,,,,,,,,,,,,,,,,,,,,,,,,,,,,,,,,,,,,,,,,,,,,,,,
,,611ec3be116703174027b104,2024-02-22_05h20.55.986,kallum_motion_pilot,2023.2.2,Win32,58.13953488,611ec3be116703174027b104,65d6bb0e977760de756971f7,65d6bd45cd33aca6bdaa7549,0.7168,0.7174,1,46,208,111,1,eightseven,,,,,,,,,,,,,,,,,,,,,,,,,,,,,,,,,,,,,,,,,,,,,,,,,,,,,,,,,,,,,,,,,,,,,,,,,,,,,,,,,,,,,,,,,,,,,,,,,,,,,,,,,,,,,,,,,,,,,,,,,,,,,,,,,,,,,,,,,
,,611ec3be116703174027b104,2024-02-22_05h20.55.986,kallum_motion_pilot,2023.2.2,Win32,58.13953488,611ec3be116703174027b104,65d6bb0e977760de756971f7,65d6bd45cd33aca6bdaa7549,0.7194,0.721,1,47,209,119,1,eightseven,,,,,,,,,,,,,,,,,,,,,,,,,,,,,,,,,,,,,,,,,,,,,,,,,,,,,,,,,,,,,,,,,,,,,,,,,,,,,,,,,,,,,,,,,,,,,,,,,,,,,,,,,,,,,,,,,,,,,,,,,,,,,,,,,,,,,,,,,
,,611ec3be116703174027b104,2024-02-22_05h20.55.986,kallum_motion_pilot,2023.2.2,Win32,58.13953488,611ec3be116703174027b104,65d6bb0e977760de756971f7,65d6bd45cd33aca6bdaa7549,0.7216,0.723,1,48,210,103,1,eightseven,,,,,,,,,,,,,,,,,,,,,,,,,,,,,,,,,,,,,,,,,,,,,,,,,,,,,,,,,,,,,,,,,,,,,,,,,,,,,,,,,,,,,,,,,,,,,,,,,,,,,,,,,,,,,,,,,,,,,,,,,,,,,,,,,,,,,,,,,
,,611ec3be116703174027b104,2024-02-22_05h20.55.986,kallum_motion_pilot,2023.2.2,Win32,58.13953488,611ec3be116703174027b104,65d6bb0e977760de756971f7,65d6bd45cd33aca6bdaa7549,0.7239,0.7245,1,49,211,1,1,onethree,,,,,,,,,,,,,,,,,,,,,,,,,,,,,,,,,,,,,,,,,,,,,,,,,,,,,,,,,,,,,,,,,,,,,,,,,,,,,,,,,,,,,,,,,,,,,,,,,,,,,,,,,,,,,,,,,,,,,,,,,,,,,,,,,,,,,,,,,
,,611ec3be116703174027b104,2024-02-22_05h20.55.986,kallum_motion_pilot,2023.2.2,Win32,58.13953488,611ec3be116703174027b104,65d6bb0e977760de756971f7,65d6bd45cd33aca6bdaa7549,0.7266,0.7273,1,50,212,15,1,fourthree,,,,,,,,,,,,,,,,,,,,,,,,,,,,,,,,,,,,,,,,,,,,,,,,,,,,,,,,,,,,,,,,,,,,,,,,,,,,,,,,,,,,,,,,,,,,,,,,,,,,,,,,,,,,,,,,,,,,,,,,,,,,,,,,,,,,,,,,,
,,611ec3be116703174027b104,2024-02-22_05h20.55.986,kallum_motion_pilot,2023.2.2,Win32,58.13953488,611ec3be116703174027b104,65d6bb0e977760de756971f7,65d6bd45cd33aca6bdaa7549,0.7282,0.7286,1,51,213,7,1,fourthree,,,,,,,,,,,,,,,,,,,,,,,,,,,,,,,,,,,,,,,,,,,,,,,,,,,,,,,,,,,,,,,,,,,,,,,,,,,,,,,,,,,,,,,,,,,,,,,,,,,,,,,,,,,,,,,,,,,,,,,,,,,,,,,,,,,,,,,,,
,,611ec3be116703174027b104,2024-02-22_05h20.55.986,kallum_motion_pilot,2023.2.2,Win32,58.13953488,611ec3be116703174027b104,65d6bb0e977760de756971f7,65d6bd45cd33aca6bdaa7549,0.7297,0.7305,1,52,214,13,1,threefour,,,,,,,,,,,,,,,,,,,,,,,,,,,,,,,,,,,,,,,,,,,,,,,,,,,,,,,,,,,,,,,,,,,,,,,,,,,,,,,,,,,,,,,,,,,,,,,,,,,,,,,,,,,,,,,,,,,,,,,,,,,,,,,,,,,,,,,,,
,,611ec3be116703174027b104,2024-02-22_05h20.55.986,kallum_motion_pilot,2023.2.2,Win32,58.13953488,611ec3be116703174027b104,65d6bb0e977760de756971f7,65d6bd45cd33aca6bdaa7549,0.7312,0.7318,1,53,215,18,1,twoone,,,,,,,,,,,,,,,,,,,,,,,,,,,,,,,,,,,,,,,,,,,,,,,,,,,,,,,,,,,,,,,,,,,,,,,,,,,,,,,,,,,,,,,,,,,,,,,,,,,,,,,,,,,,,,,,,,,,,,,,,,,,,,,,,,,,,,,,,
,,611ec3be116703174027b104,2024-02-22_05h20.55.986,kallum_motion_pilot,2023.2.2,Win32,58.13953488,611ec3be116703174027b104,65d6bb0e977760de756971f7,65d6bd45cd33aca6bdaa7549,0.7333,0.7339,1,54,216,126,1,eightsix,,,,,,,,,,,,,,,,,,,,,,,,,,,,,,,,,,,,,,,,,,,,,,,,,,,,,,,,,,,,,,,,,,,,,,,,,,,,,,,,,,,,,,,,,,,,,,,,,,,,,,,,,,,,,,,,,,,,,,,,,,,,,,,,,,,,,,,,,
,,611ec3be116703174027b104,2024-02-22_05h20.55.986,kallum_motion_pilot,2023.2.2,Win32,58.13953488,611ec3be116703174027b104,65d6bb0e977760de756971f7,65d6bd45cd33aca6bdaa7549,0.7346,0.7362,1,55,217,136,1,fivesix,,,,,,,,,,,,,,,,,,,,,,,,,,,,,,,,,,,,,,,,,,,,,,,,,,,,,,,,,,,,,,,,,,,,,,,,,,,,,,,,,,,,,,,,,,,,,,,,,,,,,,,,,,,,,,,,,,,,,,,,,,,,,,,,,,,,,,,,,
,,611ec3be116703174027b104,2024-02-22_05h20.55.986,kallum_motion_pilot,2023.2.2,Win32,58.13953488,611ec3be116703174027b104,65d6bb0e977760de756971f7,65d6bd45cd33aca6bdaa7549,0.7369,0.7373,1,56,218,97,1,fiveseven,,,,,,,,,,,,,,,,,,,,,,,,,,,,,,,,,,,,,,,,,,,,,,,,,,,,,,,,,,,,,,,,,,,,,,,,,,,,,,,,,,,,,,,,,,,,,,,,,,,,,,,,,,,,,,,,,,,,,,,,,,,,,,,,,,,,,,,,,
,,611ec3be116703174027b104,2024-02-22_05h20.55.986,kallum_motion_pilot,2023.2.2,Win32,58.13953488,611ec3be116703174027b104,65d6bb0e977760de756971f7,65d6bd45cd33aca6bdaa7549,0.7381,0.7386,1,57,219,41,1,onethree,,,,,,,,,,,,,,,,,,,,,,,,,,,,,,,,,,,,,,,,,,,,,,,,,,,,,,,,,,,,,,,,,,,,,,,,,,,,,,,,,,,,,,,,,,,,,,,,,,,,,,,,,,,,,,,,,,,,,,,,,,,,,,,,,,,,,,,,,
,,611ec3be116703174027b104,2024-02-22_05h20.55.986,kallum_motion_pilot,2023.2.2,Win32,58.13953488,611ec3be116703174027b104,65d6bb0e977760de756971f7,65d6bd45cd33aca6bdaa7549,0.7393,0.7396,1,58,220,107,1,sixeight,,,,,,,,,,,,,,,,,,,,,,,,,,,,,,,,,,,,,,,,,,,,,,,,,,,,,,,,,,,,,,,,,,,,,,,,,,,,,,,,,,,,,,,,,,,,,,,,,,,,,,,,,,,,,,,,,,,,,,,,,,,,,,,,,,,,,,,,,
,,611ec3be116703174027b104,2024-02-22_05h20.55.986,kallum_motion_pilot,2023.2.2,Win32,58.13953488,611ec3be116703174027b104,65d6bb0e977760de756971f7,65d6bd45cd33aca6bdaa7549,0.7404,0.7409,1,59,221,67,1,twofour,,,,,,,,,,,,,,,,,,,,,,,,,,,,,,,,,,,,,,,,,,,,,,,,,,,,,,,,,,,,,,,,,,,,,,,,,,,,,,,,,,,,,,,,,,,,,,,,,,,,,,,,,,,,,,,,,,,,,,,,,,,,,,,,,,,,,,,,,
,,611ec3be116703174027b104,2024-02-22_05h20.55.986,kallum_motion_pilot,2023.2.2,Win32,58.13953488,611ec3be116703174027b104,65d6bb0e977760de756971f7,65d6bd45cd33aca6bdaa7549,0.7416,0.7434,1,60,222,10,1,twoone,,,,,,,,,,,,,,,,,,,,,,,,,,,,,,,,,,,,,,,,,,,,,,,,,,,,,,,,,,,,,,,,,,,,,,,,,,,,,,,,,,,,,,,,,,,,,,,,,,,,,,,,,,,,,,,,,,,,,,,,,,,,,,,,,,,,,,,,,
,,611ec3be116703174027b104,2024-02-22_05h20.55.986,kallum_motion_pilot,2023.2.2,Win32,58.13953488,611ec3be116703174027b104,65d6bb0e977760de756971f7,65d6bd45cd33aca6bdaa7549,0.7441,0.7459,1,61,223,114,1,sixfive,,,,,,,,,,,,,,,,,,,,,,,,,,,,,,,,,,,,,,,,,,,,,,,,,,,,,,,,,,,,,,,,,,,,,,,,,,,,,,,,,,,,,,,,,,,,,,,,,,,,,,,,,,,,,,,,,,,,,,,,,,,,,,,,,,,,,,,,,
,,611ec3be116703174027b104,2024-02-22_05h20.55.986,kallum_motion_pilot,2023.2.2,Win32,58.13953488,611ec3be116703174027b104,65d6bb0e977760de756971f7,65d6bd45cd33aca6bdaa7549,0.7471,0.7477,1,62,224,39,1,fourthree,,,,,,,,,,,,,,,,,,,,,,,,,,,,,,,,,,,,,,,,,,,,,,,,,,,,,,,,,,,,,,,,,,,,,,,,,,,,,,,,,,,,,,,,,,,,,,,,,,,,,,,,,,,,,,,,,,,,,,,,,,,,,,,,,,,,,,,,,
,,611ec3be116703174027b104,2024-02-22_05h20.55.986,kallum_motion_pilot,2023.2.2,Win32,58.13953488,611ec3be116703174027b104,65d6bb0e977760de756971f7,65d6bd45cd33aca6bdaa7549,0.7484,0.7493,1,63,225,121,1,fiveseven,,,,,,,,,,,,,,,,,,,,,,,,,,,,,,,,,,,,,,,,,,,,,,,,,,,,,,,,,,,,,,,,,,,,,,,,,,,,,,,,,,,,,,,,,,,,,,,,,,,,,,,,,,,,,,,,,,,,,,,,,,,,,,,,,,,,,,,,,
,,611ec3be116703174027b104,2024-02-22_05h20.55.986,kallum_motion_pilot,2023.2.2,Win32,58.13953488,611ec3be116703174027b104,65d6bb0e977760de756971f7,65d6bd45cd33aca6bdaa7549,0.7501,0.7504,1,64,226,87,1,eightseven,,,,,,,,,,,,,,,,,,,,,,,,,,,,,,,,,,,,,,,,,,,,,,,,,,,,,,,,,,,,,,,,,,,,,,,,,,,,,,,,,,,,,,,,,,,,,,,,,,,,,,,,,,,,,,,,,,,,,,,,,,,,,,,,,,,,,,,,,
,,611ec3be116703174027b104,2024-02-22_05h20.55.986,kallum_motion_pilot,2023.2.2,Win32,58.13953488,611ec3be116703174027b104,65d6bb0e977760de756971f7,65d6bd45cd33aca6bdaa7549,0.7512,0.7516,1,65,227,56,1,onetwo,,,,,,,,,,,,,,,,,,,,,,,,,,,,,,,,,,,,,,,,,,,,,,,,,,,,,,,,,,,,,,,,,,,,,,,,,,,,,,,,,,,,,,,,,,,,,,,,,,,,,,,,,,,,,,,,,,,,,,,,,,,,,,,,,,,,,,,,,
,,611ec3be116703174027b104,2024-02-22_05h20.55.986,kallum_motion_pilot,2023.2.2,Win32,58.13953488,611ec3be116703174027b104,65d6bb0e977760de756971f7,65d6bd45cd33aca6bdaa7549,0.7532,0.7543,1,66,228,147,1,sixeight,,,,,,,,,,,,,,,,,,,,,,,,,,,,,,,,,,,,,,,,,,,,,,,,,,,,,,,,,,,,,,,,,,,,,,,,,,,,,,,,,,,,,,,,,,,,,,,,,,,,,,,,,,,,,,,,,,,,,,,,,,,,,,,,,,,,,,,,,
,,611ec3be116703174027b104,2024-02-22_05h20.55.986,kallum_motion_pilot,2023.2.2,Win32,58.13953488,611ec3be116703174027b104,65d6bb0e977760de756971f7,65d6bd45cd33aca6bdaa7549,0.7559,0.7564,1,67,229,45,1,threefour,,,,,,,,,,,,,,,,,,,,,,,,,,,,,,,,,,,,,,,,,,,,,,,,,,,,,,,,,,,,,,,,,,,,,,,,,,,,,,,,,,,,,,,,,,,,,,,,,,,,,,,,,,,,,,,,,,,,,,,,,,,,,,,,,,,,,,,,,
,,611ec3be116703174027b104,2024-02-22_05h20.55.986,kallum_motion_pilot,2023.2.2,Win32,58.13953488,611ec3be116703174027b104,65d6bb0e977760de756971f7,65d6bd45cd33aca6bdaa7549,0.7572,0.7575,1,68,230,59,1,twofour,,,,,,,,,,,,,,,,,,,,,,,,,,,,,,,,,,,,,,,,,,,,,,,,,,,,,,,,,,,,,,,,,,,,,,,,,,,,,,,,,,,,,,,,,,,,,,,,,,,,,,,,,,,,,,,,,,,,,,,,,,,,,,,,,,,,,,,,,
,,611ec3be116703174027b104,2024-02-22_05h20.55.986,kallum_motion_pilot,2023.2.2,Win32,58.13953488,611ec3be116703174027b104,65d6bb0e977760de756971f7,65d6bd45cd33aca6bdaa7549,0.7582,0.7589,1,69,231,120,1,fivesix,,,,,,,,,,,,,,,,,,,,,,,,,,,,,,,,,,,,,,,,,,,,,,,,,,,,,,,,,,,,,,,,,,,,,,,,,,,,,,,,,,,,,,,,,,,,,,,,,,,,,,,,,,,,,,,,,,,,,,,,,,,,,,,,,,,,,,,,,
,,611ec3be116703174027b104,2024-02-22_05h20.55.986,kallum_motion_pilot,2023.2.2,Win32,58.13953488,611ec3be116703174027b104,65d6bb0e977760de756971f7,65d6bd45cd33aca6bdaa7549,0.7606,0.761,1,70,232,58,1,twoone,,,,,,,,,,,,,,,,,,,,,,,,,,,,,,,,,,,,,,,,,,,,,,,,,,,,,,,,,,,,,,,,,,,,,,,,,,,,,,,,,,,,,,,,,,,,,,,,,,,,,,,,,,,,,,,,,,,,,,,,,,,,,,,,,,,,,,,,,
,,611ec3be116703174027b104,2024-02-22_05h20.55.986,kallum_motion_pilot,2023.2.2,Win32,58.13953488,611ec3be116703174027b104,65d6bb0e977760de756971f7,65d6bd45cd33aca6bdaa7549,0.7635,0.7644,1,71,233,125,1,seveneight,,,,,,,,,,,,,,,,,,,,,,,,,,,,,,,,,,,,,,,,,,,,,,,,,,,,,,,,,,,,,,,,,,,,,,,,,,,,,,,,,,,,,,,,,,,,,,,,,,,,,,,,,,,,,,,,,,,,,,,,,,,,,,,,,,,,,,,,,
,,611ec3be116703174027b104,2024-02-22_05h20.55.986,kallum_motion_pilot,2023.2.2,Win32,58.13953488,611ec3be116703174027b104,65d6bb0e977760de756971f7,65d6bd45cd33aca6bdaa7549,0.7673,0.7688,1,72,234,102,1,eightsix,,,,,,,,,,,,,,,,,,,,,,,,,,,,,,,,,,,,,,,,,,,,,,,,,,,,,,,,,,,,,,,,,,,,,,,,,,,,,,,,,,,,,,,,,,,,,,,,,,,,,,,,,,,,,,,,,,,,,,,,,,,,,,,,,,,,,,,,,
,,611ec3be116703174027b104,2024-02-22_05h20.55.986,kallum_motion_pilot,2023.2.2,Win32,58.13953488,611ec3be116703174027b104,65d6bb0e977760de756971f7,65d6bd45cd33aca6bdaa7549,0.7693,0.7701,1,73,235,96,1,fivesix,,,,,,,,,,,,,,,,,,,,,,,,,,,,,,,,,,,,,,,,,,,,,,,,,,,,,,,,,,,,,,,,,,,,,,,,,,,,,,,,,,,,,,,,,,,,,,,,,,,,,,,,,,,,,,,,,,,,,,,,,,,,,,,,,,,,,,,,,
,,611ec3be116703174027b104,2024-02-22_05h20.55.986,kallum_motion_pilot,2023.2.2,Win32,58.13953488,611ec3be116703174027b104,65d6bb0e977760de756971f7,65d6bd45cd33aca6bdaa7549,0.7709,0.7714,1,74,236,156,1,sevenfive,,,,,,,,,,,,,,,,,,,,,,,,,,,,,,,,,,,,,,,,,,,,,,,,,,,,,,,,,,,,,,,,,,,,,,,,,,,,,,,,,,,,,,,,,,,,,,,,,,,,,,,,,,,,,,,,,,,,,,,,,,,,,,,,,,,,,,,,,
,,611ec3be116703174027b104,2024-02-22_05h20.55.986,kallum_motion_pilot,2023.2.2,Win32,58.13953488,611ec3be116703174027b104,65d6bb0e977760de756971f7,65d6bd45cd33aca6bdaa7549,0.7731,0.7736,1,75,237,23,1,fourthree,,,,,,,,,,,,,,,,,,,,,,,,,,,,,,,,,,,,,,,,,,,,,,,,,,,,,,,,,,,,,,,,,,,,,,,,,,,,,,,,,,,,,,,,,,,,,,,,,,,,,,,,,,,,,,,,,,,,,,,,,,,,,,,,,,,,,,,,,
,,611ec3be116703174027b104,2024-02-22_05h20.55.986,kallum_motion_pilot,2023.2.2,Win32,58.13953488,611ec3be116703174027b104,65d6bb0e977760de756971f7,65d6bd45cd33aca6bdaa7549,0.7758,0.7764,1,76,238,77,1,threefour,,,,,,,,,,,,,,,,,,,,,,,,,,,,,,,,,,,,,,,,,,,,,,,,,,,,,,,,,,,,,,,,,,,,,,,,,,,,,,,,,,,,,,,,,,,,,,,,,,,,,,,,,,,,,,,,,,,,,,,,,,,,,,,,,,,,,,,,,
,,611ec3be116703174027b104,2024-02-22_05h20.55.986,kallum_motion_pilot,2023.2.2,Win32,58.13953488,611ec3be116703174027b104,65d6bb0e977760de756971f7,65d6bd45cd33aca6bdaa7549,0.7773,0.7778,1,77,239,113,1,fiveseven,,,,,,,,,,,,,,,,,,,,,,,,,,,,,,,,,,,,,,,,,,,,,,,,,,,,,,,,,,,,,,,,,,,,,,,,,,,,,,,,,,,,,,,,,,,,,,,,,,,,,,,,,,,,,,,,,,,,,,,,,,,,,,,,,,,,,,,,,
,,611ec3be116703174027b104,2024-02-22_05h20.55.986,kallum_motion_pilot,2023.2.2,Win32,58.13953488,611ec3be116703174027b104,65d6bb0e977760de756971f7,65d6bd45cd33aca6bdaa7549,0.7784,0.7792,1,78,240,42,1,twoone,,,,,,,,,,,,,,,,,,,,,,,,,,,,,,,,,,,,,,,,,,,,,,,,,,,,,,,,,,,,,,,,,,,,,,,,,,,,,,,,,,,,,,,,,,,,,,,,,,,,,,,,,,,,,,,,,,,,,,,,,,,,,,,,,,,,,,,,,
,,611ec3be116703174027b104,2024-02-22_05h20.55.986,kallum_motion_pilot,2023.2.2,Win32,58.13953488,611ec3be116703174027b104,65d6bb0e977760de756971f7,65d6bd45cd33aca6bdaa7549,0.7808,0.7811,1,79,241,72,1,onetwo,,,,,,,,,,,,,,,,,,,,,,,,,,,,,,,,,,,,,,,,,,,,,,,,,,,,,,,,,,,,,,,,,,,,,,,,,,,,,,,,,,,,,,,,,,,,,,,,,,,,,,,,,,,,,,,,,,,,,,,,,,,,,,,,,,,,,,,,,
,,611ec3be116703174027b104,2024-02-22_05h20.55.986,kallum_motion_pilot,2023.2.2,Win32,58.13953488,611ec3be116703174027b104,65d6bb0e977760de756971f7,65d6bd45cd33aca6bdaa7549,0.7819,0.7835,1,80,242,76,1,threeone,,,,,,,,,,,,,,,,,,,,,,,,,,,,,,,,,,,,,,,,,,,,,,,,,,,,,,,,,,,,,,,,,,,,,,,,,,,,,,,,,,,,,,,,,,,,,,,,,,,,,,,,,,,,,,,,,,,,,,,,,,,,,,,,,,,,,,,,,
,,611ec3be116703174027b104,2024-02-22_05h20.55.986,kallum_motion_pilot,2023.2.2,Win32,58.13953488,611ec3be116703174027b104,65d6bb0e977760de756971f7,65d6bd45cd33aca6bdaa7549,0.7855,0.7867,1,81,243,94,1,eightsix,,,,,,,,,,,,,,,,,,,,,,,,,,,,,,,,,,,,,,,,,,,,,,,,,,,,,,,,,,,,,,,,,,,,,,,,,,,,,,,,,,,,,,,,,,,,,,,,,,,,,,,,,,,,,,,,,,,,,,,,,,,,,,,,,,,,,,,,,
,,611ec3be116703174027b104,2024-02-22_05h20.55.986,kallum_motion_pilot,2023.2.2,Win32,58.13953488,611ec3be116703174027b104,65d6bb0e977760de756971f7,65d6bd45cd33aca6bdaa7549,0.7872,0.7878,1,82,244,31,1,fourthree,,,,,,,,,,,,,,,,,,,,,,,,,,,,,,,,,,,,,,,,,,,,,,,,,,,,,,,,,,,,,,,,,,,,,,,,,,,,,,,,,,,,,,,,,,,,,,,,,,,,,,,,,,,,,,,,,,,,,,,,,,,,,,,,,,,,,,,,,
,,611ec3be116703174027b104,2024-02-22_05h20.55.986,kallum_motion_pilot,2023.2.2,Win32,58.13953488,611ec3be116703174027b104,65d6bb0e977760de756971f7,65d6bd45cd33aca6bdaa7549,0.7889,0.7894,1,83,245,158,1,eightsix,,,,,,,,,,,,,,,,,,,,,,,,,,,,,,,,,,,,,,,,,,,,,,,,,,,,,,,,,,,,,,,,,,,,,,,,,,,,,,,,,,,,,,,,,,,,,,,,,,,,,,,,,,,,,,,,,,,,,,,,,,,,,,,,,,,,,,,,,
,,611ec3be116703174027b104,2024-02-22_05h20.55.986,kallum_motion_pilot,2023.2.2,Win32,58.13953488,611ec3be116703174027b104,65d6bb0e977760de756971f7,65d6bd45cd33aca6bdaa7549,0.7902,0.7905,1,84,246,80,1,fivesix,,,,,,,,,,,,,,,,,,,,,,,,,,,,,,,,,,,,,,,,,,,,,,,,,,,,,,,,,,,,,,,,,,,,,,,,,,,,,,,,,,,,,,,,,,,,,,,,,,,,,,,,,,,,,,,,,,,,,,,,,,,,,,,,,,,,,,,,,
,,611ec3be116703174027b104,2024-02-22_05h20.55.986,kallum_motion_pilot,2023.2.2,Win32,58.13953488,611ec3be116703174027b104,65d6bb0e977760de756971f7,65d6bd45cd33aca6bdaa7549,0.7912,0.7916,1,85,247,148,1,sevenfive,,,,,,,,,,,,,,,,,,,,,,,,,,,,,,,,,,,,,,,,,,,,,,,,,,,,,,,,,,,,,,,,,,,,,,,,,,,,,,,,,,,,,,,,,,,,,,,,,,,,,,,,,,,,,,,,,,,,,,,,,,,,,,,,,,,,,,,,,
,,611ec3be116703174027b104,2024-02-22_05h20.55.986,kallum_motion_pilot,2023.2.2,Win32,58.13953488,611ec3be116703174027b104,65d6bb0e977760de756971f7,65d6bd45cd33aca6bdaa7549,0.7939,0.7969,1,86,248,86,1,eightsix,,,,,,,,,,,,,,,,,,,,,,,,,,,,,,,,,,,,,,,,,,,,,,,,,,,,,,,,,,,,,,,,,,,,,,,,,,,,,,,,,,,,,,,,,,,,,,,,,,,,,,,,,,,,,,,,,,,,,,,,,,,,,,,,,,,,,,,,,
,,611ec3be116703174027b104,2024-02-22_05h20.55.986,kallum_motion_pilot,2023.2.2,Win32,58.13953488,611ec3be116703174027b104,65d6bb0e977760de756971f7,65d6bd45cd33aca6bdaa7549,0.7978,0.7995,1,87,249,14,1,fourtwo,,,,,,,,,,,,,,,,,,,,,,,,,,,,,,,,,,,,,,,,,,,,,,,,,,,,,,,,,,,,,,,,,,,,,,,,,,,,,,,,,,,,,,,,,,,,,,,,,,,,,,,,,,,,,,,,,,,,,,,,,,,,,,,,,,,,,,,,,
,,611ec3be116703174027b104,2024-02-22_05h20.55.986,kallum_motion_pilot,2023.2.2,Win32,58.13953488,611ec3be116703174027b104,65d6bb0e977760de756971f7,65d6bd45cd33aca6bdaa7549,0.8001,0.8008,1,88,250,128,1,fivesix,,,,,,,,,,,,,,,,,,,,,,,,,,,,,,,,,,,,,,,,,,,,,,,,,,,,,,,,,,,,,,,,,,,,,,,,,,,,,,,,,,,,,,,,,,,,,,,,,,,,,,,,,,,,,,,,,,,,,,,,,,,,,,,,,,,,,,,,,
,,611ec3be116703174027b104,2024-02-22_05h20.55.986,kallum_motion_pilot,2023.2.2,Win32,58.13953488,611ec3be116703174027b104,65d6bb0e977760de756971f7,65d6bd45cd33aca6bdaa7549,0.802,0.8036,1,89,251,83,1,sixeight,,,,,,,,,,,,,,,,,,,,,,,,,,,,,,,,,,,,,,,,,,,,,,,,,,,,,,,,,,,,,,,,,,,,,,,,,,,,,,,,,,,,,,,,,,,,,,,,,,,,,,,,,,,,,,,,,,,,,,,,,,,,,,,,,,,,,,,,,
,,611ec3be116703174027b104,2024-02-22_05h20.55.986,kallum_motion_pilot,2023.2.2,Win32,58.13953488,611ec3be116703174027b104,65d6bb0e977760de756971f7,65d6bd45cd33aca6bdaa7549,0.8044,0.8048,1,90,252,109,1,seveneight,,,,,,,,,,,,,,,,,,,,,,,,,,,,,,,,,,,,,,,,,,,,,,,,,,,,,,,,,,,,,,,,,,,,,,,,,,,,,,,,,,,,,,,,,,,,,,,,,,,,,,,,,,,,,,,,,,,,,,,,,,,,,,,,,,,,,,,,,
,,611ec3be116703174027b104,2024-02-22_05h20.55.986,kallum_motion_pilot,2023.2.2,Win32,58.13953488,611ec3be116703174027b104,65d6bb0e977760de756971f7,65d6bd45cd33aca6bdaa7549,0.8066,0.8072,1,91,253,20,1,threeone,,,,,,,,,,,,,,,,,,,,,,,,,,,,,,,,,,,,,,,,,,,,,,,,,,,,,,,,,,,,,,,,,,,,,,,,,,,,,,,,,,,,,,,,,,,,,,,,,,,,,,,,,,,,,,,,,,,,,,,,,,,,,,,,,,,,,,,,,
,,611ec3be116703174027b104,2024-02-22_05h20.55.986,kallum_motion_pilot,2023.2.2,Win32,58.13953488,611ec3be116703174027b104,65d6bb0e977760de756971f7,65d6bd45cd33aca6bdaa7549,0.8079,0.8084,1,92,254,2,1,twoone,,,,,,,,,,,,,,,,,,,,,,,,,,,,,,,,,,,,,,,,,,,,,,,,,,,,,,,,,,,,,,,,,,,,,,,,,,,,,,,,,,,,,,,,,,,,,,,,,,,,,,,,,,,,,,,,,,,,,,,,,,,,,,,,,,,,,,,,,
,,611ec3be116703174027b104,2024-02-22_05h20.55.986,kallum_motion_pilot,2023.2.2,Win32,58.13953488,611ec3be116703174027b104,65d6bb0e977760de756971f7,65d6bd45cd33aca6bdaa7549,0.8093,0.8098,1,93,255,68,1,threeone,,,,,,,,,,,,,,,,,,,,,,,,,,,,,,,,,,,,,,,,,,,,,,,,,,,,,,,,,,,,,,,,,,,,,,,,,,,,,,,,,,,,,,,,,,,,,,,,,,,,,,,,,,,,,,,,,,,,,,,,,,,,,,,,,,,,,,,,,
,,611ec3be116703174027b104,2024-02-22_05h20.55.986,kallum_motion_pilot,2023.2.2,Win32,58.13953488,611ec3be116703174027b104,65d6bb0e977760de756971f7,65d6bd45cd33aca6bdaa7549,0.8106,0.8109,1,94,256,131,1,sixeight,,,,,,,,,,,,,,,,,,,,,,,,,,,,,,,,,,,,,,,,,,,,,,,,,,,,,,,,,,,,,,,,,,,,,,,,,,,,,,,,,,,,,,,,,,,,,,,,,,,,,,,,,,,,,,,,,,,,,,,,,,,,,,,,,,,,,,,,,
,,611ec3be116703174027b104,2024-02-22_05h20.55.986,kallum_motion_pilot,2023.2.2,Win32,58.13953488,611ec3be116703174027b104,65d6bb0e977760de756971f7,65d6bd45cd33aca6bdaa7549,0.8135,0.814,1,95,257,4,1,threeone,,,,,,,,,,,,,,,,,,,,,,,,,,,,,,,,,,,,,,,,,,,,,,,,,,,,,,,,,,,,,,,,,,,,,,,,,,,,,,,,,,,,,,,,,,,,,,,,,,,,,,,,,,,,,,,,,,,,,,,,,,,,,,,,,,,,,,,,,
,,611ec3be116703174027b104,2024-02-22_05h20.55.986,kallum_motion_pilot,2023.2.2,Win32,58.13953488,611ec3be116703174027b104,65d6bb0e977760de756971f7,65d6bd45cd33aca6bdaa7549,0.816,0.8163,1,96,258,19,1,twofour,,,,,,,,,,,,,,,,,,,,,,,,,,,,,,,,,,,,,,,,,,,,,,,,,,,,,,,,,,,,,,,,,,,,,,,,,,,,,,,,,,,,,,,,,,,,,,,,,,,,,,,,,,,,,,,,,,,,,,,,,,,,,,,,,,,,,,,,,
,,611ec3be116703174027b104,2024-02-22_05h20.55.986,kallum_motion_pilot,2023.2.2,Win32,58.13953488,611ec3be116703174027b104,65d6bb0e977760de756971f7,65d6bd45cd33aca6bdaa7549,0.8171,0.8178,1,97,259,54,1,fourtwo,,,,,,,,,,,,,,,,,,,,,,,,,,,,,,,,,,,,,,,,,,,,,,,,,,,,,,,,,,,,,,,,,,,,,,,,,,,,,,,,,,,,,,,,,,,,,,,,,,,,,,,,,,,,,,,,,,,,,,,,,,,,,,,,,,,,,,,,,
,,611ec3be116703174027b104,2024-02-22_05h20.55.986,kallum_motion_pilot,2023.2.2,Win32,58.13953488,611ec3be116703174027b104,65d6bb0e977760de756971f7,65d6bd45cd33aca6bdaa7549,0.8187,0.8193,1,98,260,17,1,onethree,,,,,,,,,,,,,,,,,,,,,,,,,,,,,,,,,,,,,,,,,,,,,,,,,,,,,,,,,,,,,,,,,,,,,,,,,,,,,,,,,,,,,,,,,,,,,,,,,,,,,,,,,,,,,,,,,,,,,,,,,,,,,,,,,,,,,,,,,
,,611ec3be116703174027b104,2024-02-22_05h20.55.986,kallum_motion_pilot,2023.2.2,Win32,58.13953488,611ec3be116703174027b104,65d6bb0e977760de756971f7,65d6bd45cd33aca6bdaa7549,0.8201,0.8206,1,99,261,122,1,sixfive,,,,,,,,,,,,,,,,,,,,,,,,,,,,,,,,,,,,,,,,,,,,,,,,,,,,,,,,,,,,,,,,,,,,,,,,,,,,,,,,,,,,,,,,,,,,,,,,,,,,,,,,,,,,,,,,,,,,,,,,,,,,,,,,,,,,,,,,,
,,611ec3be116703174027b104,2024-02-22_05h20.55.986,kallum_motion_pilot,2023.2.2,Win32,58.13953488,611ec3be116703174027b104,65d6bb0e977760de756971f7,65d6bd45cd33aca6bdaa7549,0.8213,0.8217,1,100,262,75,1,twofour,,,,,,,,,,,,,,,,,,,,,,,,,,,,,,,,,,,,,,,,,,,,,,,,,,,,,,,,,,,,,,,,,,,,,,,,,,,,,,,,,,,,,,,,,,,,,,,,,,,,,,,,,,,,,,,,,,,,,,,,,,,,,,,,,,,,,,,,,
,,611ec3be116703174027b104,2024-02-22_05h20.55.986,kallum_motion_pilot,2023.2.2,Win32,58.13953488,611ec3be116703174027b104,65d6bb0e977760de756971f7,65d6bd45cd33aca6bdaa7549,0.8234,0.8239,1,101,263,53,1,threefour,,,,,,,,,,,,,,,,,,,,,,,,,,,,,,,,,,,,,,,,,,,,,,,,,,,,,,,,,,,,,,,,,,,,,,,,,,,,,,,,,,,,,,,,,,,,,,,,,,,,,,,,,,,,,,,,,,,,,,,,,,,,,,,,,,,,,,,,,
,,611ec3be116703174027b104,2024-02-22_05h20.55.986,kallum_motion_pilot,2023.2.2,Win32,58.13953488,611ec3be116703174027b104,65d6bb0e977760de756971f7,65d6bd45cd33aca6bdaa7549,0.8256,0.8261,1,102,264,118,1,eightsix,,,,,,,,,,,,,,,,,,,,,,,,,,,,,,,,,,,,,,,,,,,,,,,,,,,,,,,,,,,,,,,,,,,,,,,,,,,,,,,,,,,,,,,,,,,,,,,,,,,,,,,,,,,,,,,,,,,,,,,,,,,,,,,,,,,,,,,,,
,,611ec3be116703174027b104,2024-02-22_05h20.55.986,kallum_motion_pilot,2023.2.2,Win32,58.13953488,611ec3be116703174027b104,65d6bb0e977760de756971f7,65d6bd45cd33aca6bdaa7549,0.8276,0.8282,1,103,265,5,1,threefour,,,,,,,,,,,,,,,,,,,,,,,,,,,,,,,,,,,,,,,,,,,,,,,,,,,,,,,,,,,,,,,,,,,,,,,,,,,,,,,,,,,,,,,,,,,,,,,,,,,,,,,,,,,,,,,,,,,,,,,,,,,,,,,,,,,,,,,,,
,,611ec3be116703174027b104,2024-02-22_05h20.55.986,kallum_motion_pilot,2023.2.2,Win32,58.13953488,611ec3be116703174027b104,65d6bb0e977760de756971f7,65d6bd45cd33aca6bdaa7549,0.8292,0.8301,1,104,266,110,1,eightsix,,,,,,,,,,,,,,,,,,,,,,,,,,,,,,,,,,,,,,,,,,,,,,,,,,,,,,,,,,,,,,,,,,,,,,,,,,,,,,,,,,,,,,,,,,,,,,,,,,,,,,,,,,,,,,,,,,,,,,,,,,,,,,,,,,,,,,,,,
,,611ec3be116703174027b104,2024-02-22_05h20.55.986,kallum_motion_pilot,2023.2.2,Win32,58.13953488,611ec3be116703174027b104,65d6bb0e977760de756971f7,65d6bd45cd33aca6bdaa7549,0.8311,0.8318,1,105,267,6,1,fourtwo,,,,,,,,,,,,,,,,,,,,,,,,,,,,,,,,,,,,,,,,,,,,,,,,,,,,,,,,,,,,,,,,,,,,,,,,,,,,,,,,,,,,,,,,,,,,,,,,,,,,,,,,,,,,,,,,,,,,,,,,,,,,,,,,,,,,,,,,,
,,611ec3be116703174027b104,2024-02-22_05h20.55.986,kallum_motion_pilot,2023.2.2,Win32,58.13953488,611ec3be116703174027b104,65d6bb0e977760de756971f7,65d6bd45cd33aca6bdaa7549,0.8336,0.834,1,106,268,34,1,twoone,,,,,,,,,,,,,,,,,,,,,,,,,,,,,,,,,,,,,,,,,,,,,,,,,,,,,,,,,,,,,,,,,,,,,,,,,,,,,,,,,,,,,,,,,,,,,,,,,,,,,,,,,,,,,,,,,,,,,,,,,,,,,,,,,,,,,,,,,
,,611ec3be116703174027b104,2024-02-22_05h20.55.986,kallum_motion_pilot,2023.2.2,Win32,58.13953488,611ec3be116703174027b104,65d6bb0e977760de756971f7,65d6bd45cd33aca6bdaa7549,0.8347,0.8361,1,107,269,100,1,sevenfive,,,,,,,,,,,,,,,,,,,,,,,,,,,,,,,,,,,,,,,,,,,,,,,,,,,,,,,,,,,,,,,,,,,,,,,,,,,,,,,,,,,,,,,,,,,,,,,,,,,,,,,,,,,,,,,,,,,,,,,,,,,,,,,,,,,,,,,,,
,,611ec3be116703174027b104,2024-02-22_05h20.55.986,kallum_motion_pilot,2023.2.2,Win32,58.13953488,611ec3be116703174027b104,65d6bb0e977760de756971f7,65d6bd45cd33aca6bdaa7549,0.8371,0.8374,1,108,270,98,1,sixfive,,,,,,,,,,,,,,,,,,,,,,,,,,,,,,,,,,,,,,,,,,,,,,,,,,,,,,,,,,,,,,,,,,,,,,,,,,,,,,,,,,,,,,,,,,,,,,,,,,,,,,,,,,,,,,,,,,,,,,,,,,,,,,,,,,,,,,,,,
,,611ec3be116703174027b104,2024-02-22_05h20.55.986,kallum_motion_pilot,2023.2.2,Win32,58.13953488,611ec3be116703174027b104,65d6bb0e977760de756971f7,65d6bd45cd33aca6bdaa7549,0.8392,0.8398,1,109,271,49,1,onethree,,,,,,,,,,,,,,,,,,,,,,,,,,,,,,,,,,,,,,,,,,,,,,,,,,,,,,,,,,,,,,,,,,,,,,,,,,,,,,,,,,,,,,,,,,,,,,,,,,,,,,,,,,,,,,,,,,,,,,,,,,,,,,,,,,,,,,,,,
,,611ec3be116703174027b104,2024-02-22_05h20.55.986,kallum_motion_pilot,2023.2.2,Win32,58.13953488,611ec3be116703174027b104,65d6bb0e977760de756971f7,65d6bd45cd33aca6bdaa7549,0.8406,0.8413,1,110,272,9,1,onethree,,,,,,,,,,,,,,,,,,,,,,,,,,,,,,,,,,,,,,,,,,,,,,,,,,,,,,,,,,,,,,,,,,,,,,,,,,,,,,,,,,,,,,,,,,,,,,,,,,,,,,,,,,,,,,,,,,,,,,,,,,,,,,,,,,,,,,,,,
,,611ec3be116703174027b104,2024-02-22_05h20.55.986,kallum_motion_pilot,2023.2.2,Win32,58.13953488,611ec3be116703174027b104,65d6bb0e977760de756971f7,65d6bd45cd33aca6bdaa7549,0.8417,0.8436,1,111,273,60,1,threeone,,,,,,,,,,,,,,,,,,,,,,,,,,,,,,,,,,,,,,,,,,,,,,,,,,,,,,,,,,,,,,,,,,,,,,,,,,,,,,,,,,,,,,,,,,,,,,,,,,,,,,,,,,,,,,,,,,,,,,,,,,,,,,,,,,,,,,,,,
,,611ec3be116703174027b104,2024-02-22_05h20.55.986,kallum_motion_pilot,2023.2.2,Win32,58.13953488,611ec3be116703174027b104,65d6bb0e977760de756971f7,65d6bd45cd33aca6bdaa7549,0.8455,0.8467,1,112,274,38,1,fourtwo,,,,,,,,,,,,,,,,,,,,,,,,,,,,,,,,,,,,,,,,,,,,,,,,,,,,,,,,,,,,,,,,,,,,,,,,,,,,,,,,,,,,,,,,,,,,,,,,,,,,,,,,,,,,,,,,,,,,,,,,,,,,,,,,,,,,,,,,,
,,611ec3be116703174027b104,2024-02-22_05h20.55.986,kallum_motion_pilot,2023.2.2,Win32,58.13953488,611ec3be116703174027b104,65d6bb0e977760de756971f7,65d6bd45cd33aca6bdaa7549,0.8474,0.848,1,113,275,108,1,sevenfive,,,,,,,,,,,,,,,,,,,,,,,,,,,,,,,,,,,,,,,,,,,,,,,,,,,,,,,,,,,,,,,,,,,,,,,,,,,,,,,,,,,,,,,,,,,,,,,,,,,,,,,,,,,,,,,,,,,,,,,,,,,,,,,,,,,,,,,,,
,,611ec3be116703174027b104,2024-02-22_05h20.55.986,kallum_motion_pilot,2023.2.2,Win32,58.13953488,611ec3be116703174027b104,65d6bb0e977760de756971f7,65d6bd45cd33aca6bdaa7549,0.8487,0.849,1,114,276,139,1,sixeight,,,,,,,,,,,,,,,,,,,,,,,,,,,,,,,,,,,,,,,,,,,,,,,,,,,,,,,,,,,,,,,,,,,,,,,,,,,,,,,,,,,,,,,,,,,,,,,,,,,,,,,,,,,,,,,,,,,,,,,,,,,,,,,,,,,,,,,,,
,,611ec3be116703174027b104,2024-02-22_05h20.55.986,kallum_motion_pilot,2023.2.2,Win32,58.13953488,611ec3be116703174027b104,65d6bb0e977760de756971f7,65d6bd45cd33aca6bdaa7549,0.8498,0.8502,1,115,277,138,1,sixfive,,,,,,,,,,,,,,,,,,,,,,,,,,,,,,,,,,,,,,,,,,,,,,,,,,,,,,,,,,,,,,,,,,,,,,,,,,,,,,,,,,,,,,,,,,,,,,,,,,,,,,,,,,,,,,,,,,,,,,,,,,,,,,,,,,,,,,,,,
