startup.started,startup.stopped,Prolific ID*,date,expName,psychopyVersion,OS,frameRate,participant,study_id,session,stimpositions.started,stimpositions.stopped,hardcoded_stimulus_positions.thisRepN,hardcoded_stimulus_positions.thisTrialN,hardcoded_stimulus_positions.thisN,hardcoded_stimulus_positions.thisIndex,hardcoded_stimulus_positions.ran,StimulusPos,stimorientation.started,stimorientation.stopped,prac_stimorientation_import_loop.thisRepN,prac_stimorientation_import_loop.thisTrialN,prac_stimorientation_import_loop.thisN,prac_stimorientation_import_loop.thisIndex,prac_stimorientation_import_loop.ran,Stimorientation,welcome_instr.started,welcome_instr.stopped,key_resp.keys,key_resp.rt,key_resp.duration,response_steppedout_1.started,response_steppedout_1.stopped,key_resp_20.keys,key_resp_20.rt,key_resp_20.duration,response_steppedout_2.started,response_steppedout_2.stopped,key_resp_19.keys,key_resp_19.rt,key_resp_19.duration,stim_response_instr.started,stim_response_instr.stopped,key_resp_15.keys,key_resp_15.rt,key_resp_15.duration,direction_instr_2.started,direction_instr_2.stopped,key_resp_9.keys,key_resp_9.rt,key_resp_9.duration,instr_prac.started,instr_prac.stopped,key_resp_10.keys,key_resp_10.rt,key_resp_10.duration,Stim1_display_prac.started,Stim1_display_prac.stopped,Ecc,Circle1_ori,Circle2_ori,response_prac.started,similarity,response_time,response_prac.stopped,mouse_5.x,mouse_5.y,mouse_5.leftButton,mouse_5.midButton,mouse_5.rightButton,mouse_5.clicked_name,responseprac_feedback.started,responseprac_feedback.stopped,summary2_prac.started,summary2_prac.stopped,mouse_6.x,mouse_6.y,mouse_6.leftButton,mouse_6.midButton,mouse_6.rightButton,mouse_6.clicked_name,duringprac.thisRepN,duringprac.thisTrialN,duringprac.thisN,duringprac.thisIndex,duringprac.ran,begin.started,begin.stopped,key_resp_22.keys,key_resp_22.rt,key_resp_22.duration,Stim1_display.started,Stim1_display.stopped,circle1_ori,circle2_ori,circle1_SF,circle2_SF,response.started,response.stopped,mouse.x,mouse.y,mouse.leftButton,mouse.midButton,mouse.rightButton,mouse.clicked_name,trialnumber,double_pass.thisRepN,double_pass.thisTrialN,double_pass.thisN,double_pass.thisIndex,double_pass.ran,double_pass.order,main_trial.thisRepN,main_trial.thisTrialN,main_trial.thisN,main_trial.thisIndex,main_trial.ran,main_trial.order,Trial_Counter,Catch,Frequencies,response_2.started,response_2.stopped,mouse_2.x,mouse_2.y,mouse_2.leftButton,mouse_2.midButton,mouse_2.rightButton,mouse_2.clicked_name,special_trial.started,special_trial.stopped,catch_1.started,catch_1.stopped,mouse_3.x,mouse_3.y,mouse_3.leftButton,mouse_3.midButton,mouse_3.rightButton,catchresponse,catchnumber,response_time_catch,response_sum.started,response_sum.stopped,mouse_11.x,mouse_11.y,mouse_11.leftButton,mouse_11.midButton,mouse_11.rightButton,flip_presentation_sequence_for_double_pass.started,flip_presentation_sequence_for_double_pass.stopped,goodbye.started,goodbye.stopped,key_resp_3.keys,key_resp_3.rt,key_resp_3.duration
0.001,0.001,6122a9e94ab256ca93f1dd37,2024-02-22_03h37.55.102,kallum_motion_pilot,2023.2.2,Win32,20,6122a9e94ab256ca93f1dd37,65d6bb0e977760de756971f7,65d6c173972c1d2144b7f57e,,,,,,,,,,,,,,,,,,,,,,,,,,,,,,,,,,,,,,,,,,,,,,,,,,,,,,,,,,,,,,,,,,,,,,,,,,,,,,,,,,,,,,,,,,,,,,,,,,,,,,,,,,,,,,,,,,,,,,,,,,,,,,,,,,,,,,,,,,,,,,,,,
,,6122a9e94ab256ca93f1dd37,2024-02-22_03h37.55.102,kallum_motion_pilot,2023.2.2,Win32,20,6122a9e94ab256ca93f1dd37,65d6bb0e977760de756971f7,65d6c173972c1d2144b7f57e,0.012,0.012,0,0,0,105,1,fiveseven,,,,,,,,,,,,,,,,,,,,,,,,,,,,,,,,,,,,,,,,,,,,,,,,,,,,,,,,,,,,,,,,,,,,,,,,,,,,,,,,,,,,,,,,,,,,,,,,,,,,,,,,,,,,,,,,,,,,,,,,,,,,,,,,,,,,,,,,,
,,6122a9e94ab256ca93f1dd37,2024-02-22_03h37.55.102,kallum_motion_pilot,2023.2.2,Win32,20,6122a9e94ab256ca93f1dd37,65d6bb0e977760de756971f7,65d6c173972c1d2144b7f57e,0.012,0.012,0,1,1,10,1,twoone,,,,,,,,,,,,,,,,,,,,,,,,,,,,,,,,,,,,,,,,,,,,,,,,,,,,,,,,,,,,,,,,,,,,,,,,,,,,,,,,,,,,,,,,,,,,,,,,,,,,,,,,,,,,,,,,,,,,,,,,,,,,,,,,,,,,,,,,,
,,6122a9e94ab256ca93f1dd37,2024-02-22_03h37.55.102,kallum_motion_pilot,2023.2.2,Win32,20,6122a9e94ab256ca93f1dd37,65d6bb0e977760de756971f7,65d6c173972c1d2144b7f57e,0.012,0.012,0,2,2,44,1,threeone,,,,,,,,,,,,,,,,,,,,,,,,,,,,,,,,,,,,,,,,,,,,,,,,,,,,,,,,,,,,,,,,,,,,,,,,,,,,,,,,,,,,,,,,,,,,,,,,,,,,,,,,,,,,,,,,,,,,,,,,,,,,,,,,,,,,,,,,,
,,6122a9e94ab256ca93f1dd37,2024-02-22_03h37.55.102,kallum_motion_pilot,2023.2.2,Win32,20,6122a9e94ab256ca93f1dd37,65d6bb0e977760de756971f7,65d6c173972c1d2144b7f57e,0.013,0.013,0,3,3,3,1,twofour,,,,,,,,,,,,,,,,,,,,,,,,,,,,,,,,,,,,,,,,,,,,,,,,,,,,,,,,,,,,,,,,,,,,,,,,,,,,,,,,,,,,,,,,,,,,,,,,,,,,,,,,,,,,,,,,,,,,,,,,,,,,,,,,,,,,,,,,,
,,6122a9e94ab256ca93f1dd37,2024-02-22_03h37.55.102,kallum_motion_pilot,2023.2.2,Win32,20,6122a9e94ab256ca93f1dd37,65d6bb0e977760de756971f7,65d6c173972c1d2144b7f57e,0.013,0.013,0,4,4,154,1,sixfive,,,,,,,,,,,,,,,,,,,,,,,,,,,,,,,,,,,,,,,,,,,,,,,,,,,,,,,,,,,,,,,,,,,,,,,,,,,,,,,,,,,,,,,,,,,,,,,,,,,,,,,,,,,,,,,,,,,,,,,,,,,,,,,,,,,,,,,,,
,,6122a9e94ab256ca93f1dd37,2024-02-22_03h37.55.102,kallum_motion_pilot,2023.2.2,Win32,20,6122a9e94ab256ca93f1dd37,65d6bb0e977760de756971f7,65d6c173972c1d2144b7f57e,0.013,0.013,0,5,5,53,1,threefour,,,,,,,,,,,,,,,,,,,,,,,,,,,,,,,,,,,,,,,,,,,,,,,,,,,,,,,,,,,,,,,,,,,,,,,,,,,,,,,,,,,,,,,,,,,,,,,,,,,,,,,,,,,,,,,,,,,,,,,,,,,,,,,,,,,,,,,,,
,,6122a9e94ab256ca93f1dd37,2024-02-22_03h37.55.102,kallum_motion_pilot,2023.2.2,Win32,20,6122a9e94ab256ca93f1dd37,65d6bb0e977760de756971f7,65d6c173972c1d2144b7f57e,0.013,0.013,0,6,6,112,1,fivesix,,,,,,,,,,,,,,,,,,,,,,,,,,,,,,,,,,,,,,,,,,,,,,,,,,,,,,,,,,,,,,,,,,,,,,,,,,,,,,,,,,,,,,,,,,,,,,,,,,,,,,,,,,,,,,,,,,,,,,,,,,,,,,,,,,,,,,,,,
,,6122a9e94ab256ca93f1dd37,2024-02-22_03h37.55.102,kallum_motion_pilot,2023.2.2,Win32,20,6122a9e94ab256ca93f1dd37,65d6bb0e977760de756971f7,65d6c173972c1d2144b7f57e,0.013,0.013,0,7,7,91,1,sixeight,,,,,,,,,,,,,,,,,,,,,,,,,,,,,,,,,,,,,,,,,,,,,,,,,,,,,,,,,,,,,,,,,,,,,,,,,,,,,,,,,,,,,,,,,,,,,,,,,,,,,,,,,,,,,,,,,,,,,,,,,,,,,,,,,,,,,,,,,
,,6122a9e94ab256ca93f1dd37,2024-02-22_03h37.55.102,kallum_motion_pilot,2023.2.2,Win32,20,6122a9e94ab256ca93f1dd37,65d6bb0e977760de756971f7,65d6c173972c1d2144b7f57e,0.013,0.014,0,8,8,119,1,eightseven,,,,,,,,,,,,,,,,,,,,,,,,,,,,,,,,,,,,,,,,,,,,,,,,,,,,,,,,,,,,,,,,,,,,,,,,,,,,,,,,,,,,,,,,,,,,,,,,,,,,,,,,,,,,,,,,,,,,,,,,,,,,,,,,,,,,,,,,,
,,6122a9e94ab256ca93f1dd37,2024-02-22_03h37.55.102,kallum_motion_pilot,2023.2.2,Win32,20,6122a9e94ab256ca93f1dd37,65d6bb0e977760de756971f7,65d6c173972c1d2144b7f57e,0.014,0.014,0,9,9,78,1,fourtwo,,,,,,,,,,,,,,,,,,,,,,,,,,,,,,,,,,,,,,,,,,,,,,,,,,,,,,,,,,,,,,,,,,,,,,,,,,,,,,,,,,,,,,,,,,,,,,,,,,,,,,,,,,,,,,,,,,,,,,,,,,,,,,,,,,,,,,,,,
,,6122a9e94ab256ca93f1dd37,2024-02-22_03h37.55.102,kallum_motion_pilot,2023.2.2,Win32,20,6122a9e94ab256ca93f1dd37,65d6bb0e977760de756971f7,65d6c173972c1d2144b7f57e,0.014,0.014,0,10,10,21,1,threefour,,,,,,,,,,,,,,,,,,,,,,,,,,,,,,,,,,,,,,,,,,,,,,,,,,,,,,,,,,,,,,,,,,,,,,,,,,,,,,,,,,,,,,,,,,,,,,,,,,,,,,,,,,,,,,,,,,,,,,,,,,,,,,,,,,,,,,,,,
,,6122a9e94ab256ca93f1dd37,2024-02-22_03h37.55.102,kallum_motion_pilot,2023.2.2,Win32,20,6122a9e94ab256ca93f1dd37,65d6bb0e977760de756971f7,65d6c173972c1d2144b7f57e,0.014,0.014,0,11,11,52,1,threeone,,,,,,,,,,,,,,,,,,,,,,,,,,,,,,,,,,,,,,,,,,,,,,,,,,,,,,,,,,,,,,,,,,,,,,,,,,,,,,,,,,,,,,,,,,,,,,,,,,,,,,,,,,,,,,,,,,,,,,,,,,,,,,,,,,,,,,,,,
,,6122a9e94ab256ca93f1dd37,2024-02-22_03h37.55.102,kallum_motion_pilot,2023.2.2,Win32,20,6122a9e94ab256ca93f1dd37,65d6bb0e977760de756971f7,65d6c173972c1d2144b7f57e,0.014,0.014,0,12,12,15,1,fourthree,,,,,,,,,,,,,,,,,,,,,,,,,,,,,,,,,,,,,,,,,,,,,,,,,,,,,,,,,,,,,,,,,,,,,,,,,,,,,,,,,,,,,,,,,,,,,,,,,,,,,,,,,,,,,,,,,,,,,,,,,,,,,,,,,,,,,,,,,
,,6122a9e94ab256ca93f1dd37,2024-02-22_03h37.55.102,kallum_motion_pilot,2023.2.2,Win32,20,6122a9e94ab256ca93f1dd37,65d6bb0e977760de756971f7,65d6c173972c1d2144b7f57e,0.014,0.014,0,13,13,28,1,threeone,,,,,,,,,,,,,,,,,,,,,,,,,,,,,,,,,,,,,,,,,,,,,,,,,,,,,,,,,,,,,,,,,,,,,,,,,,,,,,,,,,,,,,,,,,,,,,,,,,,,,,,,,,,,,,,,,,,,,,,,,,,,,,,,,,,,,,,,,
,,6122a9e94ab256ca93f1dd37,2024-02-22_03h37.55.102,kallum_motion_pilot,2023.2.2,Win32,20,6122a9e94ab256ca93f1dd37,65d6bb0e977760de756971f7,65d6c173972c1d2144b7f57e,0.014,0.014,0,14,14,161,1,fiveseven,,,,,,,,,,,,,,,,,,,,,,,,,,,,,,,,,,,,,,,,,,,,,,,,,,,,,,,,,,,,,,,,,,,,,,,,,,,,,,,,,,,,,,,,,,,,,,,,,,,,,,,,,,,,,,,,,,,,,,,,,,,,,,,,,,,,,,,,,
,,6122a9e94ab256ca93f1dd37,2024-02-22_03h37.55.102,kallum_motion_pilot,2023.2.2,Win32,20,6122a9e94ab256ca93f1dd37,65d6bb0e977760de756971f7,65d6c173972c1d2144b7f57e,0.014,0.014,0,15,15,118,1,eightsix,,,,,,,,,,,,,,,,,,,,,,,,,,,,,,,,,,,,,,,,,,,,,,,,,,,,,,,,,,,,,,,,,,,,,,,,,,,,,,,,,,,,,,,,,,,,,,,,,,,,,,,,,,,,,,,,,,,,,,,,,,,,,,,,,,,,,,,,,
,,6122a9e94ab256ca93f1dd37,2024-02-22_03h37.55.102,kallum_motion_pilot,2023.2.2,Win32,20,6122a9e94ab256ca93f1dd37,65d6bb0e977760de756971f7,65d6c173972c1d2144b7f57e,0.014,0.014,0,16,16,26,1,twoone,,,,,,,,,,,,,,,,,,,,,,,,,,,,,,,,,,,,,,,,,,,,,,,,,,,,,,,,,,,,,,,,,,,,,,,,,,,,,,,,,,,,,,,,,,,,,,,,,,,,,,,,,,,,,,,,,,,,,,,,,,,,,,,,,,,,,,,,,
,,6122a9e94ab256ca93f1dd37,2024-02-22_03h37.55.102,kallum_motion_pilot,2023.2.2,Win32,20,6122a9e94ab256ca93f1dd37,65d6bb0e977760de756971f7,65d6c173972c1d2144b7f57e,0.014,0.014,0,17,17,87,1,eightseven,,,,,,,,,,,,,,,,,,,,,,,,,,,,,,,,,,,,,,,,,,,,,,,,,,,,,,,,,,,,,,,,,,,,,,,,,,,,,,,,,,,,,,,,,,,,,,,,,,,,,,,,,,,,,,,,,,,,,,,,,,,,,,,,,,,,,,,,,
,,6122a9e94ab256ca93f1dd37,2024-02-22_03h37.55.102,kallum_motion_pilot,2023.2.2,Win32,20,6122a9e94ab256ca93f1dd37,65d6bb0e977760de756971f7,65d6c173972c1d2144b7f57e,0.014,0.014,0,18,18,148,1,sevenfive,,,,,,,,,,,,,,,,,,,,,,,,,,,,,,,,,,,,,,,,,,,,,,,,,,,,,,,,,,,,,,,,,,,,,,,,,,,,,,,,,,,,,,,,,,,,,,,,,,,,,,,,,,,,,,,,,,,,,,,,,,,,,,,,,,,,,,,,,
,,6122a9e94ab256ca93f1dd37,2024-02-22_03h37.55.102,kallum_motion_pilot,2023.2.2,Win32,20,6122a9e94ab256ca93f1dd37,65d6bb0e977760de756971f7,65d6c173972c1d2144b7f57e,0.015,0.015,0,19,19,98,1,sixfive,,,,,,,,,,,,,,,,,,,,,,,,,,,,,,,,,,,,,,,,,,,,,,,,,,,,,,,,,,,,,,,,,,,,,,,,,,,,,,,,,,,,,,,,,,,,,,,,,,,,,,,,,,,,,,,,,,,,,,,,,,,,,,,,,,,,,,,,,
,,6122a9e94ab256ca93f1dd37,2024-02-22_03h37.55.102,kallum_motion_pilot,2023.2.2,Win32,20,6122a9e94ab256ca93f1dd37,65d6bb0e977760de756971f7,65d6c173972c1d2144b7f57e,0.015,0.015,0,20,20,128,1,fivesix,,,,,,,,,,,,,,,,,,,,,,,,,,,,,,,,,,,,,,,,,,,,,,,,,,,,,,,,,,,,,,,,,,,,,,,,,,,,,,,,,,,,,,,,,,,,,,,,,,,,,,,,,,,,,,,,,,,,,,,,,,,,,,,,,,,,,,,,,
,,6122a9e94ab256ca93f1dd37,2024-02-22_03h37.55.102,kallum_motion_pilot,2023.2.2,Win32,20,6122a9e94ab256ca93f1dd37,65d6bb0e977760de756971f7,65d6c173972c1d2144b7f57e,0.015,0.015,0,21,21,103,1,eightseven,,,,,,,,,,,,,,,,,,,,,,,,,,,,,,,,,,,,,,,,,,,,,,,,,,,,,,,,,,,,,,,,,,,,,,,,,,,,,,,,,,,,,,,,,,,,,,,,,,,,,,,,,,,,,,,,,,,,,,,,,,,,,,,,,,,,,,,,,
,,6122a9e94ab256ca93f1dd37,2024-02-22_03h37.55.102,kallum_motion_pilot,2023.2.2,Win32,20,6122a9e94ab256ca93f1dd37,65d6bb0e977760de756971f7,65d6c173972c1d2144b7f57e,0.015,0.015,0,22,22,95,1,eightseven,,,,,,,,,,,,,,,,,,,,,,,,,,,,,,,,,,,,,,,,,,,,,,,,,,,,,,,,,,,,,,,,,,,,,,,,,,,,,,,,,,,,,,,,,,,,,,,,,,,,,,,,,,,,,,,,,,,,,,,,,,,,,,,,,,,,,,,,,
,,6122a9e94ab256ca93f1dd37,2024-02-22_03h37.55.102,kallum_motion_pilot,2023.2.2,Win32,20,6122a9e94ab256ca93f1dd37,65d6bb0e977760de756971f7,65d6c173972c1d2144b7f57e,0.015,0.015,0,23,23,115,1,sixeight,,,,,,,,,,,,,,,,,,,,,,,,,,,,,,,,,,,,,,,,,,,,,,,,,,,,,,,,,,,,,,,,,,,,,,,,,,,,,,,,,,,,,,,,,,,,,,,,,,,,,,,,,,,,,,,,,,,,,,,,,,,,,,,,,,,,,,,,,
,,6122a9e94ab256ca93f1dd37,2024-02-22_03h37.55.102,kallum_motion_pilot,2023.2.2,Win32,20,6122a9e94ab256ca93f1dd37,65d6bb0e977760de756971f7,65d6c173972c1d2144b7f57e,0.015,0.015,0,24,24,136,1,fivesix,,,,,,,,,,,,,,,,,,,,,,,,,,,,,,,,,,,,,,,,,,,,,,,,,,,,,,,,,,,,,,,,,,,,,,,,,,,,,,,,,,,,,,,,,,,,,,,,,,,,,,,,,,,,,,,,,,,,,,,,,,,,,,,,,,,,,,,,,
,,6122a9e94ab256ca93f1dd37,2024-02-22_03h37.55.102,kallum_motion_pilot,2023.2.2,Win32,20,6122a9e94ab256ca93f1dd37,65d6bb0e977760de756971f7,65d6c173972c1d2144b7f57e,0.015,0.015,0,25,25,79,1,eightseven,,,,,,,,,,,,,,,,,,,,,,,,,,,,,,,,,,,,,,,,,,,,,,,,,,,,,,,,,,,,,,,,,,,,,,,,,,,,,,,,,,,,,,,,,,,,,,,,,,,,,,,,,,,,,,,,,,,,,,,,,,,,,,,,,,,,,,,,,
,,6122a9e94ab256ca93f1dd37,2024-02-22_03h37.55.102,kallum_motion_pilot,2023.2.2,Win32,20,6122a9e94ab256ca93f1dd37,65d6bb0e977760de756971f7,65d6c173972c1d2144b7f57e,0.015,0.015,0,26,26,39,1,fourthree,,,,,,,,,,,,,,,,,,,,,,,,,,,,,,,,,,,,,,,,,,,,,,,,,,,,,,,,,,,,,,,,,,,,,,,,,,,,,,,,,,,,,,,,,,,,,,,,,,,,,,,,,,,,,,,,,,,,,,,,,,,,,,,,,,,,,,,,,
,,6122a9e94ab256ca93f1dd37,2024-02-22_03h37.55.102,kallum_motion_pilot,2023.2.2,Win32,20,6122a9e94ab256ca93f1dd37,65d6bb0e977760de756971f7,65d6c173972c1d2144b7f57e,0.015,0.015,0,27,27,27,1,twofour,,,,,,,,,,,,,,,,,,,,,,,,,,,,,,,,,,,,,,,,,,,,,,,,,,,,,,,,,,,,,,,,,,,,,,,,,,,,,,,,,,,,,,,,,,,,,,,,,,,,,,,,,,,,,,,,,,,,,,,,,,,,,,,,,,,,,,,,,
,,6122a9e94ab256ca93f1dd37,2024-02-22_03h37.55.102,kallum_motion_pilot,2023.2.2,Win32,20,6122a9e94ab256ca93f1dd37,65d6bb0e977760de756971f7,65d6c173972c1d2144b7f57e,0.015,0.015,0,28,28,89,1,fiveseven,,,,,,,,,,,,,,,,,,,,,,,,,,,,,,,,,,,,,,,,,,,,,,,,,,,,,,,,,,,,,,,,,,,,,,,,,,,,,,,,,,,,,,,,,,,,,,,,,,,,,,,,,,,,,,,,,,,,,,,,,,,,,,,,,,,,,,,,,
,,6122a9e94ab256ca93f1dd37,2024-02-22_03h37.55.102,kallum_motion_pilot,2023.2.2,Win32,20,6122a9e94ab256ca93f1dd37,65d6bb0e977760de756971f7,65d6c173972c1d2144b7f57e,0.015,0.015,0,29,29,9,1,onethree,,,,,,,,,,,,,,,,,,,,,,,,,,,,,,,,,,,,,,,,,,,,,,,,,,,,,,,,,,,,,,,,,,,,,,,,,,,,,,,,,,,,,,,,,,,,,,,,,,,,,,,,,,,,,,,,,,,,,,,,,,,,,,,,,,,,,,,,,
,,6122a9e94ab256ca93f1dd37,2024-02-22_03h37.55.102,kallum_motion_pilot,2023.2.2,Win32,20,6122a9e94ab256ca93f1dd37,65d6bb0e977760de756971f7,65d6c173972c1d2144b7f57e,0.015,0.015,0,30,30,45,1,threefour,,,,,,,,,,,,,,,,,,,,,,,,,,,,,,,,,,,,,,,,,,,,,,,,,,,,,,,,,,,,,,,,,,,,,,,,,,,,,,,,,,,,,,,,,,,,,,,,,,,,,,,,,,,,,,,,,,,,,,,,,,,,,,,,,,,,,,,,,
,,6122a9e94ab256ca93f1dd37,2024-02-22_03h37.55.102,kallum_motion_pilot,2023.2.2,Win32,20,6122a9e94ab256ca93f1dd37,65d6bb0e977760de756971f7,65d6c173972c1d2144b7f57e,0.015,0.015,0,31,31,41,1,onethree,,,,,,,,,,,,,,,,,,,,,,,,,,,,,,,,,,,,,,,,,,,,,,,,,,,,,,,,,,,,,,,,,,,,,,,,,,,,,,,,,,,,,,,,,,,,,,,,,,,,,,,,,,,,,,,,,,,,,,,,,,,,,,,,,,,,,,,,,
,,6122a9e94ab256ca93f1dd37,2024-02-22_03h37.55.102,kallum_motion_pilot,2023.2.2,Win32,20,6122a9e94ab256ca93f1dd37,65d6bb0e977760de756971f7,65d6c173972c1d2144b7f57e,0.015,0.015,0,32,32,4,1,threeone,,,,,,,,,,,,,,,,,,,,,,,,,,,,,,,,,,,,,,,,,,,,,,,,,,,,,,,,,,,,,,,,,,,,,,,,,,,,,,,,,,,,,,,,,,,,,,,,,,,,,,,,,,,,,,,,,,,,,,,,,,,,,,,,,,,,,,,,,
,,6122a9e94ab256ca93f1dd37,2024-02-22_03h37.55.102,kallum_motion_pilot,2023.2.2,Win32,20,6122a9e94ab256ca93f1dd37,65d6bb0e977760de756971f7,65d6c173972c1d2144b7f57e,0.015,0.015,0,33,33,111,1,eightseven,,,,,,,,,,,,,,,,,,,,,,,,,,,,,,,,,,,,,,,,,,,,,,,,,,,,,,,,,,,,,,,,,,,,,,,,,,,,,,,,,,,,,,,,,,,,,,,,,,,,,,,,,,,,,,,,,,,,,,,,,,,,,,,,,,,,,,,,,
,,6122a9e94ab256ca93f1dd37,2024-02-22_03h37.55.102,kallum_motion_pilot,2023.2.2,Win32,20,6122a9e94ab256ca93f1dd37,65d6bb0e977760de756971f7,65d6c173972c1d2144b7f57e,0.015,0.015,0,34,34,108,1,sevenfive,,,,,,,,,,,,,,,,,,,,,,,,,,,,,,,,,,,,,,,,,,,,,,,,,,,,,,,,,,,,,,,,,,,,,,,,,,,,,,,,,,,,,,,,,,,,,,,,,,,,,,,,,,,,,,,,,,,,,,,,,,,,,,,,,,,,,,,,,
,,6122a9e94ab256ca93f1dd37,2024-02-22_03h37.55.102,kallum_motion_pilot,2023.2.2,Win32,20,6122a9e94ab256ca93f1dd37,65d6bb0e977760de756971f7,65d6c173972c1d2144b7f57e,0.015,0.015,0,35,35,88,1,fivesix,,,,,,,,,,,,,,,,,,,,,,,,,,,,,,,,,,,,,,,,,,,,,,,,,,,,,,,,,,,,,,,,,,,,,,,,,,,,,,,,,,,,,,,,,,,,,,,,,,,,,,,,,,,,,,,,,,,,,,,,,,,,,,,,,,,,,,,,,
,,6122a9e94ab256ca93f1dd37,2024-02-22_03h37.55.102,kallum_motion_pilot,2023.2.2,Win32,20,6122a9e94ab256ca93f1dd37,65d6bb0e977760de756971f7,65d6c173972c1d2144b7f57e,0.015,0.015,0,36,36,35,1,twofour,,,,,,,,,,,,,,,,,,,,,,,,,,,,,,,,,,,,,,,,,,,,,,,,,,,,,,,,,,,,,,,,,,,,,,,,,,,,,,,,,,,,,,,,,,,,,,,,,,,,,,,,,,,,,,,,,,,,,,,,,,,,,,,,,,,,,,,,,
,,6122a9e94ab256ca93f1dd37,2024-02-22_03h37.55.102,kallum_motion_pilot,2023.2.2,Win32,20,6122a9e94ab256ca93f1dd37,65d6bb0e977760de756971f7,65d6c173972c1d2144b7f57e,0.015,0.015,0,37,37,49,1,onethree,,,,,,,,,,,,,,,,,,,,,,,,,,,,,,,,,,,,,,,,,,,,,,,,,,,,,,,,,,,,,,,,,,,,,,,,,,,,,,,,,,,,,,,,,,,,,,,,,,,,,,,,,,,,,,,,,,,,,,,,,,,,,,,,,,,,,,,,,
,,6122a9e94ab256ca93f1dd37,2024-02-22_03h37.55.102,kallum_motion_pilot,2023.2.2,Win32,20,6122a9e94ab256ca93f1dd37,65d6bb0e977760de756971f7,65d6c173972c1d2144b7f57e,0.015,0.015,0,38,38,150,1,eightsix,,,,,,,,,,,,,,,,,,,,,,,,,,,,,,,,,,,,,,,,,,,,,,,,,,,,,,,,,,,,,,,,,,,,,,,,,,,,,,,,,,,,,,,,,,,,,,,,,,,,,,,,,,,,,,,,,,,,,,,,,,,,,,,,,,,,,,,,,
,,6122a9e94ab256ca93f1dd37,2024-02-22_03h37.55.102,kallum_motion_pilot,2023.2.2,Win32,20,6122a9e94ab256ca93f1dd37,65d6bb0e977760de756971f7,65d6c173972c1d2144b7f57e,0.015,0.015,0,39,39,124,1,sevenfive,,,,,,,,,,,,,,,,,,,,,,,,,,,,,,,,,,,,,,,,,,,,,,,,,,,,,,,,,,,,,,,,,,,,,,,,,,,,,,,,,,,,,,,,,,,,,,,,,,,,,,,,,,,,,,,,,,,,,,,,,,,,,,,,,,,,,,,,,
,,6122a9e94ab256ca93f1dd37,2024-02-22_03h37.55.102,kallum_motion_pilot,2023.2.2,Win32,20,6122a9e94ab256ca93f1dd37,65d6bb0e977760de756971f7,65d6c173972c1d2144b7f57e,0.015,0.015,0,40,40,127,1,eightseven,,,,,,,,,,,,,,,,,,,,,,,,,,,,,,,,,,,,,,,,,,,,,,,,,,,,,,,,,,,,,,,,,,,,,,,,,,,,,,,,,,,,,,,,,,,,,,,,,,,,,,,,,,,,,,,,,,,,,,,,,,,,,,,,,,,,,,,,,
,,6122a9e94ab256ca93f1dd37,2024-02-22_03h37.55.102,kallum_motion_pilot,2023.2.2,Win32,20,6122a9e94ab256ca93f1dd37,65d6bb0e977760de756971f7,65d6c173972c1d2144b7f57e,0.015,0.015,0,41,41,85,1,seveneight,,,,,,,,,,,,,,,,,,,,,,,,,,,,,,,,,,,,,,,,,,,,,,,,,,,,,,,,,,,,,,,,,,,,,,,,,,,,,,,,,,,,,,,,,,,,,,,,,,,,,,,,,,,,,,,,,,,,,,,,,,,,,,,,,,,,,,,,,
,,6122a9e94ab256ca93f1dd37,2024-02-22_03h37.55.102,kallum_motion_pilot,2023.2.2,Win32,20,6122a9e94ab256ca93f1dd37,65d6bb0e977760de756971f7,65d6c173972c1d2144b7f57e,0.015,0.015,0,42,42,75,1,twofour,,,,,,,,,,,,,,,,,,,,,,,,,,,,,,,,,,,,,,,,,,,,,,,,,,,,,,,,,,,,,,,,,,,,,,,,,,,,,,,,,,,,,,,,,,,,,,,,,,,,,,,,,,,,,,,,,,,,,,,,,,,,,,,,,,,,,,,,,
,,6122a9e94ab256ca93f1dd37,2024-02-22_03h37.55.102,kallum_motion_pilot,2023.2.2,Win32,20,6122a9e94ab256ca93f1dd37,65d6bb0e977760de756971f7,65d6c173972c1d2144b7f57e,0.015,0.015,0,43,43,131,1,sixeight,,,,,,,,,,,,,,,,,,,,,,,,,,,,,,,,,,,,,,,,,,,,,,,,,,,,,,,,,,,,,,,,,,,,,,,,,,,,,,,,,,,,,,,,,,,,,,,,,,,,,,,,,,,,,,,,,,,,,,,,,,,,,,,,,,,,,,,,,
,,6122a9e94ab256ca93f1dd37,2024-02-22_03h37.55.102,kallum_motion_pilot,2023.2.2,Win32,20,6122a9e94ab256ca93f1dd37,65d6bb0e977760de756971f7,65d6c173972c1d2144b7f57e,0.016,0.016,0,44,44,106,1,sixfive,,,,,,,,,,,,,,,,,,,,,,,,,,,,,,,,,,,,,,,,,,,,,,,,,,,,,,,,,,,,,,,,,,,,,,,,,,,,,,,,,,,,,,,,,,,,,,,,,,,,,,,,,,,,,,,,,,,,,,,,,,,,,,,,,,,,,,,,,
,,6122a9e94ab256ca93f1dd37,2024-02-22_03h37.55.102,kallum_motion_pilot,2023.2.2,Win32,20,6122a9e94ab256ca93f1dd37,65d6bb0e977760de756971f7,65d6c173972c1d2144b7f57e,0.016,0.016,0,45,45,94,1,eightsix,,,,,,,,,,,,,,,,,,,,,,,,,,,,,,,,,,,,,,,,,,,,,,,,,,,,,,,,,,,,,,,,,,,,,,,,,,,,,,,,,,,,,,,,,,,,,,,,,,,,,,,,,,,,,,,,,,,,,,,,,,,,,,,,,,,,,,,,,
,,6122a9e94ab256ca93f1dd37,2024-02-22_03h37.55.102,kallum_motion_pilot,2023.2.2,Win32,20,6122a9e94ab256ca93f1dd37,65d6bb0e977760de756971f7,65d6c173972c1d2144b7f57e,0.016,0.016,0,46,46,68,1,threeone,,,,,,,,,,,,,,,,,,,,,,,,,,,,,,,,,,,,,,,,,,,,,,,,,,,,,,,,,,,,,,,,,,,,,,,,,,,,,,,,,,,,,,,,,,,,,,,,,,,,,,,,,,,,,,,,,,,,,,,,,,,,,,,,,,,,,,,,,
,,6122a9e94ab256ca93f1dd37,2024-02-22_03h37.55.102,kallum_motion_pilot,2023.2.2,Win32,20,6122a9e94ab256ca93f1dd37,65d6bb0e977760de756971f7,65d6c173972c1d2144b7f57e,0.016,0.016,0,47,47,55,1,fourthree,,,,,,,,,,,,,,,,,,,,,,,,,,,,,,,,,,,,,,,,,,,,,,,,,,,,,,,,,,,,,,,,,,,,,,,,,,,,,,,,,,,,,,,,,,,,,,,,,,,,,,,,,,,,,,,,,,,,,,,,,,,,,,,,,,,,,,,,,
,,6122a9e94ab256ca93f1dd37,2024-02-22_03h37.55.102,kallum_motion_pilot,2023.2.2,Win32,20,6122a9e94ab256ca93f1dd37,65d6bb0e977760de756971f7,65d6c173972c1d2144b7f57e,0.016,0.016,0,48,48,157,1,seveneight,,,,,,,,,,,,,,,,,,,,,,,,,,,,,,,,,,,,,,,,,,,,,,,,,,,,,,,,,,,,,,,,,,,,,,,,,,,,,,,,,,,,,,,,,,,,,,,,,,,,,,,,,,,,,,,,,,,,,,,,,,,,,,,,,,,,,,,,,
,,6122a9e94ab256ca93f1dd37,2024-02-22_03h37.55.102,kallum_motion_pilot,2023.2.2,Win32,20,6122a9e94ab256ca93f1dd37,65d6bb0e977760de756971f7,65d6c173972c1d2144b7f57e,0.016,0.016,0,49,49,149,1,seveneight,,,,,,,,,,,,,,,,,,,,,,,,,,,,,,,,,,,,,,,,,,,,,,,,,,,,,,,,,,,,,,,,,,,,,,,,,,,,,,,,,,,,,,,,,,,,,,,,,,,,,,,,,,,,,,,,,,,,,,,,,,,,,,,,,,,,,,,,,
,,6122a9e94ab256ca93f1dd37,2024-02-22_03h37.55.102,kallum_motion_pilot,2023.2.2,Win32,20,6122a9e94ab256ca93f1dd37,65d6bb0e977760de756971f7,65d6c173972c1d2144b7f57e,0.016,0.016,0,50,50,117,1,seveneight,,,,,,,,,,,,,,,,,,,,,,,,,,,,,,,,,,,,,,,,,,,,,,,,,,,,,,,,,,,,,,,,,,,,,,,,,,,,,,,,,,,,,,,,,,,,,,,,,,,,,,,,,,,,,,,,,,,,,,,,,,,,,,,,,,,,,,,,,
,,6122a9e94ab256ca93f1dd37,2024-02-22_03h37.55.102,kallum_motion_pilot,2023.2.2,Win32,20,6122a9e94ab256ca93f1dd37,65d6bb0e977760de756971f7,65d6c173972c1d2144b7f57e,0.016,0.016,0,51,51,114,1,sixfive,,,,,,,,,,,,,,,,,,,,,,,,,,,,,,,,,,,,,,,,,,,,,,,,,,,,,,,,,,,,,,,,,,,,,,,,,,,,,,,,,,,,,,,,,,,,,,,,,,,,,,,,,,,,,,,,,,,,,,,,,,,,,,,,,,,,,,,,,
,,6122a9e94ab256ca93f1dd37,2024-02-22_03h37.55.102,kallum_motion_pilot,2023.2.2,Win32,20,6122a9e94ab256ca93f1dd37,65d6bb0e977760de756971f7,65d6c173972c1d2144b7f57e,0.016,0.016,0,52,52,69,1,threefour,,,,,,,,,,,,,,,,,,,,,,,,,,,,,,,,,,,,,,,,,,,,,,,,,,,,,,,,,,,,,,,,,,,,,,,,,,,,,,,,,,,,,,,,,,,,,,,,,,,,,,,,,,,,,,,,,,,,,,,,,,,,,,,,,,,,,,,,,
,,6122a9e94ab256ca93f1dd37,2024-02-22_03h37.55.102,kallum_motion_pilot,2023.2.2,Win32,20,6122a9e94ab256ca93f1dd37,65d6bb0e977760de756971f7,65d6c173972c1d2144b7f57e,0.016,0.016,0,53,53,42,1,twoone,,,,,,,,,,,,,,,,,,,,,,,,,,,,,,,,,,,,,,,,,,,,,,,,,,,,,,,,,,,,,,,,,,,,,,,,,,,,,,,,,,,,,,,,,,,,,,,,,,,,,,,,,,,,,,,,,,,,,,,,,,,,,,,,,,,,,,,,,
,,6122a9e94ab256ca93f1dd37,2024-02-22_03h37.55.102,kallum_motion_pilot,2023.2.2,Win32,20,6122a9e94ab256ca93f1dd37,65d6bb0e977760de756971f7,65d6c173972c1d2144b7f57e,0.016,0.016,0,54,54,140,1,sevenfive,,,,,,,,,,,,,,,,,,,,,,,,,,,,,,,,,,,,,,,,,,,,,,,,,,,,,,,,,,,,,,,,,,,,,,,,,,,,,,,,,,,,,,,,,,,,,,,,,,,,,,,,,,,,,,,,,,,,,,,,,,,,,,,,,,,,,,,,,
,,6122a9e94ab256ca93f1dd37,2024-02-22_03h37.55.102,kallum_motion_pilot,2023.2.2,Win32,20,6122a9e94ab256ca93f1dd37,65d6bb0e977760de756971f7,65d6c173972c1d2144b7f57e,0.016,0.016,0,55,55,102,1,eightsix,,,,,,,,,,,,,,,,,,,,,,,,,,,,,,,,,,,,,,,,,,,,,,,,,,,,,,,,,,,,,,,,,,,,,,,,,,,,,,,,,,,,,,,,,,,,,,,,,,,,,,,,,,,,,,,,,,,,,,,,,,,,,,,,,,,,,,,,,
,,6122a9e94ab256ca93f1dd37,2024-02-22_03h37.55.102,kallum_motion_pilot,2023.2.2,Win32,20,6122a9e94ab256ca93f1dd37,65d6bb0e977760de756971f7,65d6c173972c1d2144b7f57e,0.016,0.016,0,56,56,126,1,eightsix,,,,,,,,,,,,,,,,,,,,,,,,,,,,,,,,,,,,,,,,,,,,,,,,,,,,,,,,,,,,,,,,,,,,,,,,,,,,,,,,,,,,,,,,,,,,,,,,,,,,,,,,,,,,,,,,,,,,,,,,,,,,,,,,,,,,,,,,,
,,6122a9e94ab256ca93f1dd37,2024-02-22_03h37.55.102,kallum_motion_pilot,2023.2.2,Win32,20,6122a9e94ab256ca93f1dd37,65d6bb0e977760de756971f7,65d6c173972c1d2144b7f57e,0.016,0.016,0,57,57,72,1,onetwo,,,,,,,,,,,,,,,,,,,,,,,,,,,,,,,,,,,,,,,,,,,,,,,,,,,,,,,,,,,,,,,,,,,,,,,,,,,,,,,,,,,,,,,,,,,,,,,,,,,,,,,,,,,,,,,,,,,,,,,,,,,,,,,,,,,,,,,,,
,,6122a9e94ab256ca93f1dd37,2024-02-22_03h37.55.102,kallum_motion_pilot,2023.2.2,Win32,20,6122a9e94ab256ca93f1dd37,65d6bb0e977760de756971f7,65d6c173972c1d2144b7f57e,0.016,0.017,0,58,58,54,1,fourtwo,,,,,,,,,,,,,,,,,,,,,,,,,,,,,,,,,,,,,,,,,,,,,,,,,,,,,,,,,,,,,,,,,,,,,,,,,,,,,,,,,,,,,,,,,,,,,,,,,,,,,,,,,,,,,,,,,,,,,,,,,,,,,,,,,,,,,,,,,
,,6122a9e94ab256ca93f1dd37,2024-02-22_03h37.55.102,kallum_motion_pilot,2023.2.2,Win32,20,6122a9e94ab256ca93f1dd37,65d6bb0e977760de756971f7,65d6c173972c1d2144b7f57e,0.017,0.017,0,59,59,132,1,sevenfive,,,,,,,,,,,,,,,,,,,,,,,,,,,,,,,,,,,,,,,,,,,,,,,,,,,,,,,,,,,,,,,,,,,,,,,,,,,,,,,,,,,,,,,,,,,,,,,,,,,,,,,,,,,,,,,,,,,,,,,,,,,,,,,,,,,,,,,,,
,,6122a9e94ab256ca93f1dd37,2024-02-22_03h37.55.102,kallum_motion_pilot,2023.2.2,Win32,20,6122a9e94ab256ca93f1dd37,65d6bb0e977760de756971f7,65d6c173972c1d2144b7f57e,0.017,0.017,0,60,60,152,1,fivesix,,,,,,,,,,,,,,,,,,,,,,,,,,,,,,,,,,,,,,,,,,,,,,,,,,,,,,,,,,,,,,,,,,,,,,,,,,,,,,,,,,,,,,,,,,,,,,,,,,,,,,,,,,,,,,,,,,,,,,,,,,,,,,,,,,,,,,,,,
,,6122a9e94ab256ca93f1dd37,2024-02-22_03h37.55.102,kallum_motion_pilot,2023.2.2,Win32,20,6122a9e94ab256ca93f1dd37,65d6bb0e977760de756971f7,65d6c173972c1d2144b7f57e,0.017,0.017,0,61,61,134,1,eightsix,,,,,,,,,,,,,,,,,,,,,,,,,,,,,,,,,,,,,,,,,,,,,,,,,,,,,,,,,,,,,,,,,,,,,,,,,,,,,,,,,,,,,,,,,,,,,,,,,,,,,,,,,,,,,,,,,,,,,,,,,,,,,,,,,,,,,,,,,
,,6122a9e94ab256ca93f1dd37,2024-02-22_03h37.55.102,kallum_motion_pilot,2023.2.2,Win32,20,6122a9e94ab256ca93f1dd37,65d6bb0e977760de756971f7,65d6c173972c1d2144b7f57e,0.017,0.017,0,62,62,57,1,onethree,,,,,,,,,,,,,,,,,,,,,,,,,,,,,,,,,,,,,,,,,,,,,,,,,,,,,,,,,,,,,,,,,,,,,,,,,,,,,,,,,,,,,,,,,,,,,,,,,,,,,,,,,,,,,,,,,,,,,,,,,,,,,,,,,,,,,,,,,
,,6122a9e94ab256ca93f1dd37,2024-02-22_03h37.55.102,kallum_motion_pilot,2023.2.2,Win32,20,6122a9e94ab256ca93f1dd37,65d6bb0e977760de756971f7,65d6c173972c1d2144b7f57e,0.017,0.017,0,63,63,18,1,twoone,,,,,,,,,,,,,,,,,,,,,,,,,,,,,,,,,,,,,,,,,,,,,,,,,,,,,,,,,,,,,,,,,,,,,,,,,,,,,,,,,,,,,,,,,,,,,,,,,,,,,,,,,,,,,,,,,,,,,,,,,,,,,,,,,,,,,,,,,
,,6122a9e94ab256ca93f1dd37,2024-02-22_03h37.55.102,kallum_motion_pilot,2023.2.2,Win32,20,6122a9e94ab256ca93f1dd37,65d6bb0e977760de756971f7,65d6c173972c1d2144b7f57e,0.017,0.017,0,64,64,107,1,sixeight,,,,,,,,,,,,,,,,,,,,,,,,,,,,,,,,,,,,,,,,,,,,,,,,,,,,,,,,,,,,,,,,,,,,,,,,,,,,,,,,,,,,,,,,,,,,,,,,,,,,,,,,,,,,,,,,,,,,,,,,,,,,,,,,,,,,,,,,,
,,6122a9e94ab256ca93f1dd37,2024-02-22_03h37.55.102,kallum_motion_pilot,2023.2.2,Win32,20,6122a9e94ab256ca93f1dd37,65d6bb0e977760de756971f7,65d6c173972c1d2144b7f57e,0.017,0.017,0,65,65,100,1,sevenfive,,,,,,,,,,,,,,,,,,,,,,,,,,,,,,,,,,,,,,,,,,,,,,,,,,,,,,,,,,,,,,,,,,,,,,,,,,,,,,,,,,,,,,,,,,,,,,,,,,,,,,,,,,,,,,,,,,,,,,,,,,,,,,,,,,,,,,,,,
,,6122a9e94ab256ca93f1dd37,2024-02-22_03h37.55.102,kallum_motion_pilot,2023.2.2,Win32,20,6122a9e94ab256ca93f1dd37,65d6bb0e977760de756971f7,65d6c173972c1d2144b7f57e,0.017,0.017,0,66,66,62,1,fourtwo,,,,,,,,,,,,,,,,,,,,,,,,,,,,,,,,,,,,,,,,,,,,,,,,,,,,,,,,,,,,,,,,,,,,,,,,,,,,,,,,,,,,,,,,,,,,,,,,,,,,,,,,,,,,,,,,,,,,,,,,,,,,,,,,,,,,,,,,,
,,6122a9e94ab256ca93f1dd37,2024-02-22_03h37.55.102,kallum_motion_pilot,2023.2.2,Win32,20,6122a9e94ab256ca93f1dd37,65d6bb0e977760de756971f7,65d6c173972c1d2144b7f57e,0.017,0.017,0,67,67,11,1,twofour,,,,,,,,,,,,,,,,,,,,,,,,,,,,,,,,,,,,,,,,,,,,,,,,,,,,,,,,,,,,,,,,,,,,,,,,,,,,,,,,,,,,,,,,,,,,,,,,,,,,,,,,,,,,,,,,,,,,,,,,,,,,,,,,,,,,,,,,,
,,6122a9e94ab256ca93f1dd37,2024-02-22_03h37.55.102,kallum_motion_pilot,2023.2.2,Win32,20,6122a9e94ab256ca93f1dd37,65d6bb0e977760de756971f7,65d6c173972c1d2144b7f57e,0.017,0.017,0,68,68,141,1,seveneight,,,,,,,,,,,,,,,,,,,,,,,,,,,,,,,,,,,,,,,,,,,,,,,,,,,,,,,,,,,,,,,,,,,,,,,,,,,,,,,,,,,,,,,,,,,,,,,,,,,,,,,,,,,,,,,,,,,,,,,,,,,,,,,,,,,,,,,,,
,,6122a9e94ab256ca93f1dd37,2024-02-22_03h37.55.102,kallum_motion_pilot,2023.2.2,Win32,20,6122a9e94ab256ca93f1dd37,65d6bb0e977760de756971f7,65d6c173972c1d2144b7f57e,0.017,0.017,0,69,69,147,1,sixeight,,,,,,,,,,,,,,,,,,,,,,,,,,,,,,,,,,,,,,,,,,,,,,,,,,,,,,,,,,,,,,,,,,,,,,,,,,,,,,,,,,,,,,,,,,,,,,,,,,,,,,,,,,,,,,,,,,,,,,,,,,,,,,,,,,,,,,,,,
,,6122a9e94ab256ca93f1dd37,2024-02-22_03h37.55.102,kallum_motion_pilot,2023.2.2,Win32,20,6122a9e94ab256ca93f1dd37,65d6bb0e977760de756971f7,65d6c173972c1d2144b7f57e,0.017,0.017,0,70,70,5,1,threefour,,,,,,,,,,,,,,,,,,,,,,,,,,,,,,,,,,,,,,,,,,,,,,,,,,,,,,,,,,,,,,,,,,,,,,,,,,,,,,,,,,,,,,,,,,,,,,,,,,,,,,,,,,,,,,,,,,,,,,,,,,,,,,,,,,,,,,,,,
,,6122a9e94ab256ca93f1dd37,2024-02-22_03h37.55.102,kallum_motion_pilot,2023.2.2,Win32,20,6122a9e94ab256ca93f1dd37,65d6bb0e977760de756971f7,65d6c173972c1d2144b7f57e,0.017,0.017,0,71,71,24,1,onetwo,,,,,,,,,,,,,,,,,,,,,,,,,,,,,,,,,,,,,,,,,,,,,,,,,,,,,,,,,,,,,,,,,,,,,,,,,,,,,,,,,,,,,,,,,,,,,,,,,,,,,,,,,,,,,,,,,,,,,,,,,,,,,,,,,,,,,,,,,
,,6122a9e94ab256ca93f1dd37,2024-02-22_03h37.55.102,kallum_motion_pilot,2023.2.2,Win32,20,6122a9e94ab256ca93f1dd37,65d6bb0e977760de756971f7,65d6c173972c1d2144b7f57e,0.018,0.018,0,72,72,97,1,fiveseven,,,,,,,,,,,,,,,,,,,,,,,,,,,,,,,,,,,,,,,,,,,,,,,,,,,,,,,,,,,,,,,,,,,,,,,,,,,,,,,,,,,,,,,,,,,,,,,,,,,,,,,,,,,,,,,,,,,,,,,,,,,,,,,,,,,,,,,,,
,,6122a9e94ab256ca93f1dd37,2024-02-22_03h37.55.102,kallum_motion_pilot,2023.2.2,Win32,20,6122a9e94ab256ca93f1dd37,65d6bb0e977760de756971f7,65d6c173972c1d2144b7f57e,0.018,0.018,0,73,73,22,1,fourtwo,,,,,,,,,,,,,,,,,,,,,,,,,,,,,,,,,,,,,,,,,,,,,,,,,,,,,,,,,,,,,,,,,,,,,,,,,,,,,,,,,,,,,,,,,,,,,,,,,,,,,,,,,,,,,,,,,,,,,,,,,,,,,,,,,,,,,,,,,
,,6122a9e94ab256ca93f1dd37,2024-02-22_03h37.55.102,kallum_motion_pilot,2023.2.2,Win32,20,6122a9e94ab256ca93f1dd37,65d6bb0e977760de756971f7,65d6c173972c1d2144b7f57e,0.018,0.018,0,74,74,80,1,fivesix,,,,,,,,,,,,,,,,,,,,,,,,,,,,,,,,,,,,,,,,,,,,,,,,,,,,,,,,,,,,,,,,,,,,,,,,,,,,,,,,,,,,,,,,,,,,,,,,,,,,,,,,,,,,,,,,,,,,,,,,,,,,,,,,,,,,,,,,,
,,6122a9e94ab256ca93f1dd37,2024-02-22_03h37.55.102,kallum_motion_pilot,2023.2.2,Win32,20,6122a9e94ab256ca93f1dd37,65d6bb0e977760de756971f7,65d6c173972c1d2144b7f57e,0.018,0.018,0,75,75,66,1,twoone,,,,,,,,,,,,,,,,,,,,,,,,,,,,,,,,,,,,,,,,,,,,,,,,,,,,,,,,,,,,,,,,,,,,,,,,,,,,,,,,,,,,,,,,,,,,,,,,,,,,,,,,,,,,,,,,,,,,,,,,,,,,,,,,,,,,,,,,,
,,6122a9e94ab256ca93f1dd37,2024-02-22_03h37.55.102,kallum_motion_pilot,2023.2.2,Win32,20,6122a9e94ab256ca93f1dd37,65d6bb0e977760de756971f7,65d6c173972c1d2144b7f57e,0.018,0.018,0,76,76,33,1,onethree,,,,,,,,,,,,,,,,,,,,,,,,,,,,,,,,,,,,,,,,,,,,,,,,,,,,,,,,,,,,,,,,,,,,,,,,,,,,,,,,,,,,,,,,,,,,,,,,,,,,,,,,,,,,,,,,,,,,,,,,,,,,,,,,,,,,,,,,,
,,6122a9e94ab256ca93f1dd37,2024-02-22_03h37.55.102,kallum_motion_pilot,2023.2.2,Win32,20,6122a9e94ab256ca93f1dd37,65d6bb0e977760de756971f7,65d6c173972c1d2144b7f57e,0.018,0.018,0,77,77,83,1,sixeight,,,,,,,,,,,,,,,,,,,,,,,,,,,,,,,,,,,,,,,,,,,,,,,,,,,,,,,,,,,,,,,,,,,,,,,,,,,,,,,,,,,,,,,,,,,,,,,,,,,,,,,,,,,,,,,,,,,,,,,,,,,,,,,,,,,,,,,,,
,,6122a9e94ab256ca93f1dd37,2024-02-22_03h37.55.102,kallum_motion_pilot,2023.2.2,Win32,20,6122a9e94ab256ca93f1dd37,65d6bb0e977760de756971f7,65d6c173972c1d2144b7f57e,0.018,0.018,0,78,78,144,1,fivesix,,,,,,,,,,,,,,,,,,,,,,,,,,,,,,,,,,,,,,,,,,,,,,,,,,,,,,,,,,,,,,,,,,,,,,,,,,,,,,,,,,,,,,,,,,,,,,,,,,,,,,,,,,,,,,,,,,,,,,,,,,,,,,,,,,,,,,,,,
,,6122a9e94ab256ca93f1dd37,2024-02-22_03h37.55.102,kallum_motion_pilot,2023.2.2,Win32,20,6122a9e94ab256ca93f1dd37,65d6bb0e977760de756971f7,65d6c173972c1d2144b7f57e,0.018,0.018,0,79,79,120,1,fivesix,,,,,,,,,,,,,,,,,,,,,,,,,,,,,,,,,,,,,,,,,,,,,,,,,,,,,,,,,,,,,,,,,,,,,,,,,,,,,,,,,,,,,,,,,,,,,,,,,,,,,,,,,,,,,,,,,,,,,,,,,,,,,,,,,,,,,,,,,
,,6122a9e94ab256ca93f1dd37,2024-02-22_03h37.55.102,kallum_motion_pilot,2023.2.2,Win32,20,6122a9e94ab256ca93f1dd37,65d6bb0e977760de756971f7,65d6c173972c1d2144b7f57e,0.019,0.019,0,80,80,116,1,sevenfive,,,,,,,,,,,,,,,,,,,,,,,,,,,,,,,,,,,,,,,,,,,,,,,,,,,,,,,,,,,,,,,,,,,,,,,,,,,,,,,,,,,,,,,,,,,,,,,,,,,,,,,,,,,,,,,,,,,,,,,,,,,,,,,,,,,,,,,,,
,,6122a9e94ab256ca93f1dd37,2024-02-22_03h37.55.102,kallum_motion_pilot,2023.2.2,Win32,20,6122a9e94ab256ca93f1dd37,65d6bb0e977760de756971f7,65d6c173972c1d2144b7f57e,0.019,0.019,0,81,81,142,1,eightsix,,,,,,,,,,,,,,,,,,,,,,,,,,,,,,,,,,,,,,,,,,,,,,,,,,,,,,,,,,,,,,,,,,,,,,,,,,,,,,,,,,,,,,,,,,,,,,,,,,,,,,,,,,,,,,,,,,,,,,,,,,,,,,,,,,,,,,,,,
,,6122a9e94ab256ca93f1dd37,2024-02-22_03h37.55.102,kallum_motion_pilot,2023.2.2,Win32,20,6122a9e94ab256ca93f1dd37,65d6bb0e977760de756971f7,65d6c173972c1d2144b7f57e,0.019,0.019,0,82,82,113,1,fiveseven,,,,,,,,,,,,,,,,,,,,,,,,,,,,,,,,,,,,,,,,,,,,,,,,,,,,,,,,,,,,,,,,,,,,,,,,,,,,,,,,,,,,,,,,,,,,,,,,,,,,,,,,,,,,,,,,,,,,,,,,,,,,,,,,,,,,,,,,,
,,6122a9e94ab256ca93f1dd37,2024-02-22_03h37.55.102,kallum_motion_pilot,2023.2.2,Win32,20,6122a9e94ab256ca93f1dd37,65d6bb0e977760de756971f7,65d6c173972c1d2144b7f57e,0.019,0.019,0,83,83,81,1,fiveseven,,,,,,,,,,,,,,,,,,,,,,,,,,,,,,,,,,,,,,,,,,,,,,,,,,,,,,,,,,,,,,,,,,,,,,,,,,,,,,,,,,,,,,,,,,,,,,,,,,,,,,,,,,,,,,,,,,,,,,,,,,,,,,,,,,,,,,,,,
,,6122a9e94ab256ca93f1dd37,2024-02-22_03h37.55.102,kallum_motion_pilot,2023.2.2,Win32,20,6122a9e94ab256ca93f1dd37,65d6bb0e977760de756971f7,65d6c173972c1d2144b7f57e,0.019,0.019,0,84,84,122,1,sixfive,,,,,,,,,,,,,,,,,,,,,,,,,,,,,,,,,,,,,,,,,,,,,,,,,,,,,,,,,,,,,,,,,,,,,,,,,,,,,,,,,,,,,,,,,,,,,,,,,,,,,,,,,,,,,,,,,,,,,,,,,,,,,,,,,,,,,,,,,
,,6122a9e94ab256ca93f1dd37,2024-02-22_03h37.55.102,kallum_motion_pilot,2023.2.2,Win32,20,6122a9e94ab256ca93f1dd37,65d6bb0e977760de756971f7,65d6c173972c1d2144b7f57e,0.019,0.019,0,85,85,146,1,sixfive,,,,,,,,,,,,,,,,,,,,,,,,,,,,,,,,,,,,,,,,,,,,,,,,,,,,,,,,,,,,,,,,,,,,,,,,,,,,,,,,,,,,,,,,,,,,,,,,,,,,,,,,,,,,,,,,,,,,,,,,,,,,,,,,,,,,,,,,,
,,6122a9e94ab256ca93f1dd37,2024-02-22_03h37.55.102,kallum_motion_pilot,2023.2.2,Win32,20,6122a9e94ab256ca93f1dd37,65d6bb0e977760de756971f7,65d6c173972c1d2144b7f57e,0.019,0.019,0,86,86,46,1,fourtwo,,,,,,,,,,,,,,,,,,,,,,,,,,,,,,,,,,,,,,,,,,,,,,,,,,,,,,,,,,,,,,,,,,,,,,,,,,,,,,,,,,,,,,,,,,,,,,,,,,,,,,,,,,,,,,,,,,,,,,,,,,,,,,,,,,,,,,,,,
,,6122a9e94ab256ca93f1dd37,2024-02-22_03h37.55.102,kallum_motion_pilot,2023.2.2,Win32,20,6122a9e94ab256ca93f1dd37,65d6bb0e977760de756971f7,65d6c173972c1d2144b7f57e,0.019,0.019,0,87,87,99,1,sixeight,,,,,,,,,,,,,,,,,,,,,,,,,,,,,,,,,,,,,,,,,,,,,,,,,,,,,,,,,,,,,,,,,,,,,,,,,,,,,,,,,,,,,,,,,,,,,,,,,,,,,,,,,,,,,,,,,,,,,,,,,,,,,,,,,,,,,,,,,
,,6122a9e94ab256ca93f1dd37,2024-02-22_03h37.55.102,kallum_motion_pilot,2023.2.2,Win32,20,6122a9e94ab256ca93f1dd37,65d6bb0e977760de756971f7,65d6c173972c1d2144b7f57e,0.019,0.019,0,88,88,34,1,twoone,,,,,,,,,,,,,,,,,,,,,,,,,,,,,,,,,,,,,,,,,,,,,,,,,,,,,,,,,,,,,,,,,,,,,,,,,,,,,,,,,,,,,,,,,,,,,,,,,,,,,,,,,,,,,,,,,,,,,,,,,,,,,,,,,,,,,,,,,
,,6122a9e94ab256ca93f1dd37,2024-02-22_03h37.55.102,kallum_motion_pilot,2023.2.2,Win32,20,6122a9e94ab256ca93f1dd37,65d6bb0e977760de756971f7,65d6c173972c1d2144b7f57e,0.019,0.019,0,89,89,59,1,twofour,,,,,,,,,,,,,,,,,,,,,,,,,,,,,,,,,,,,,,,,,,,,,,,,,,,,,,,,,,,,,,,,,,,,,,,,,,,,,,,,,,,,,,,,,,,,,,,,,,,,,,,,,,,,,,,,,,,,,,,,,,,,,,,,,,,,,,,,,
,,6122a9e94ab256ca93f1dd37,2024-02-22_03h37.55.102,kallum_motion_pilot,2023.2.2,Win32,20,6122a9e94ab256ca93f1dd37,65d6bb0e977760de756971f7,65d6c173972c1d2144b7f57e,0.019,0.019,0,90,90,159,1,eightseven,,,,,,,,,,,,,,,,,,,,,,,,,,,,,,,,,,,,,,,,,,,,,,,,,,,,,,,,,,,,,,,,,,,,,,,,,,,,,,,,,,,,,,,,,,,,,,,,,,,,,,,,,,,,,,,,,,,,,,,,,,,,,,,,,,,,,,,,,
,,6122a9e94ab256ca93f1dd37,2024-02-22_03h37.55.102,kallum_motion_pilot,2023.2.2,Win32,20,6122a9e94ab256ca93f1dd37,65d6bb0e977760de756971f7,65d6c173972c1d2144b7f57e,0.019,0.019,0,91,91,30,1,fourtwo,,,,,,,,,,,,,,,,,,,,,,,,,,,,,,,,,,,,,,,,,,,,,,,,,,,,,,,,,,,,,,,,,,,,,,,,,,,,,,,,,,,,,,,,,,,,,,,,,,,,,,,,,,,,,,,,,,,,,,,,,,,,,,,,,,,,,,,,,
,,6122a9e94ab256ca93f1dd37,2024-02-22_03h37.55.102,kallum_motion_pilot,2023.2.2,Win32,20,6122a9e94ab256ca93f1dd37,65d6bb0e977760de756971f7,65d6c173972c1d2144b7f57e,0.019,0.02,0,92,92,38,1,fourtwo,,,,,,,,,,,,,,,,,,,,,,,,,,,,,,,,,,,,,,,,,,,,,,,,,,,,,,,,,,,,,,,,,,,,,,,,,,,,,,,,,,,,,,,,,,,,,,,,,,,,,,,,,,,,,,,,,,,,,,,,,,,,,,,,,,,,,,,,,
,,6122a9e94ab256ca93f1dd37,2024-02-22_03h37.55.102,kallum_motion_pilot,2023.2.2,Win32,20,6122a9e94ab256ca93f1dd37,65d6bb0e977760de756971f7,65d6c173972c1d2144b7f57e,0.02,0.02,0,93,93,67,1,twofour,,,,,,,,,,,,,,,,,,,,,,,,,,,,,,,,,,,,,,,,,,,,,,,,,,,,,,,,,,,,,,,,,,,,,,,,,,,,,,,,,,,,,,,,,,,,,,,,,,,,,,,,,,,,,,,,,,,,,,,,,,,,,,,,,,,,,,,,,
,,6122a9e94ab256ca93f1dd37,2024-02-22_03h37.55.102,kallum_motion_pilot,2023.2.2,Win32,20,6122a9e94ab256ca93f1dd37,65d6bb0e977760de756971f7,65d6c173972c1d2144b7f57e,0.02,0.02,0,94,94,13,1,threefour,,,,,,,,,,,,,,,,,,,,,,,,,,,,,,,,,,,,,,,,,,,,,,,,,,,,,,,,,,,,,,,,,,,,,,,,,,,,,,,,,,,,,,,,,,,,,,,,,,,,,,,,,,,,,,,,,,,,,,,,,,,,,,,,,,,,,,,,,
,,6122a9e94ab256ca93f1dd37,2024-02-22_03h37.55.102,kallum_motion_pilot,2023.2.2,Win32,20,6122a9e94ab256ca93f1dd37,65d6bb0e977760de756971f7,65d6c173972c1d2144b7f57e,0.02,0.02,0,95,95,104,1,fivesix,,,,,,,,,,,,,,,,,,,,,,,,,,,,,,,,,,,,,,,,,,,,,,,,,,,,,,,,,,,,,,,,,,,,,,,,,,,,,,,,,,,,,,,,,,,,,,,,,,,,,,,,,,,,,,,,,,,,,,,,,,,,,,,,,,,,,,,,,
,,6122a9e94ab256ca93f1dd37,2024-02-22_03h37.55.102,kallum_motion_pilot,2023.2.2,Win32,20,6122a9e94ab256ca93f1dd37,65d6bb0e977760de756971f7,65d6c173972c1d2144b7f57e,0.02,0.02,0,96,96,32,1,onetwo,,,,,,,,,,,,,,,,,,,,,,,,,,,,,,,,,,,,,,,,,,,,,,,,,,,,,,,,,,,,,,,,,,,,,,,,,,,,,,,,,,,,,,,,,,,,,,,,,,,,,,,,,,,,,,,,,,,,,,,,,,,,,,,,,,,,,,,,,
,,6122a9e94ab256ca93f1dd37,2024-02-22_03h37.55.102,kallum_motion_pilot,2023.2.2,Win32,20,6122a9e94ab256ca93f1dd37,65d6bb0e977760de756971f7,65d6c173972c1d2144b7f57e,0.021,0.021,0,97,97,51,1,twofour,,,,,,,,,,,,,,,,,,,,,,,,,,,,,,,,,,,,,,,,,,,,,,,,,,,,,,,,,,,,,,,,,,,,,,,,,,,,,,,,,,,,,,,,,,,,,,,,,,,,,,,,,,,,,,,,,,,,,,,,,,,,,,,,,,,,,,,,,
,,6122a9e94ab256ca93f1dd37,2024-02-22_03h37.55.102,kallum_motion_pilot,2023.2.2,Win32,20,6122a9e94ab256ca93f1dd37,65d6bb0e977760de756971f7,65d6c173972c1d2144b7f57e,0.021,0.021,0,98,98,61,1,threefour,,,,,,,,,,,,,,,,,,,,,,,,,,,,,,,,,,,,,,,,,,,,,,,,,,,,,,,,,,,,,,,,,,,,,,,,,,,,,,,,,,,,,,,,,,,,,,,,,,,,,,,,,,,,,,,,,,,,,,,,,,,,,,,,,,,,,,,,,
,,6122a9e94ab256ca93f1dd37,2024-02-22_03h37.55.102,kallum_motion_pilot,2023.2.2,Win32,20,6122a9e94ab256ca93f1dd37,65d6bb0e977760de756971f7,65d6c173972c1d2144b7f57e,0.021,0.021,0,99,99,86,1,eightsix,,,,,,,,,,,,,,,,,,,,,,,,,,,,,,,,,,,,,,,,,,,,,,,,,,,,,,,,,,,,,,,,,,,,,,,,,,,,,,,,,,,,,,,,,,,,,,,,,,,,,,,,,,,,,,,,,,,,,,,,,,,,,,,,,,,,,,,,,
,,6122a9e94ab256ca93f1dd37,2024-02-22_03h37.55.102,kallum_motion_pilot,2023.2.2,Win32,20,6122a9e94ab256ca93f1dd37,65d6bb0e977760de756971f7,65d6c173972c1d2144b7f57e,0.021,0.021,0,100,100,50,1,twoone,,,,,,,,,,,,,,,,,,,,,,,,,,,,,,,,,,,,,,,,,,,,,,,,,,,,,,,,,,,,,,,,,,,,,,,,,,,,,,,,,,,,,,,,,,,,,,,,,,,,,,,,,,,,,,,,,,,,,,,,,,,,,,,,,,,,,,,,,
,,6122a9e94ab256ca93f1dd37,2024-02-22_03h37.55.102,kallum_motion_pilot,2023.2.2,Win32,20,6122a9e94ab256ca93f1dd37,65d6bb0e977760de756971f7,65d6c173972c1d2144b7f57e,0.021,0.021,0,101,101,70,1,fourtwo,,,,,,,,,,,,,,,,,,,,,,,,,,,,,,,,,,,,,,,,,,,,,,,,,,,,,,,,,,,,,,,,,,,,,,,,,,,,,,,,,,,,,,,,,,,,,,,,,,,,,,,,,,,,,,,,,,,,,,,,,,,,,,,,,,,,,,,,,
,,6122a9e94ab256ca93f1dd37,2024-02-22_03h37.55.102,kallum_motion_pilot,2023.2.2,Win32,20,6122a9e94ab256ca93f1dd37,65d6bb0e977760de756971f7,65d6c173972c1d2144b7f57e,0.021,0.021,0,102,102,137,1,fiveseven,,,,,,,,,,,,,,,,,,,,,,,,,,,,,,,,,,,,,,,,,,,,,,,,,,,,,,,,,,,,,,,,,,,,,,,,,,,,,,,,,,,,,,,,,,,,,,,,,,,,,,,,,,,,,,,,,,,,,,,,,,,,,,,,,,,,,,,,,
,,6122a9e94ab256ca93f1dd37,2024-02-22_03h37.55.102,kallum_motion_pilot,2023.2.2,Win32,20,6122a9e94ab256ca93f1dd37,65d6bb0e977760de756971f7,65d6c173972c1d2144b7f57e,0.021,0.021,0,103,103,65,1,onethree,,,,,,,,,,,,,,,,,,,,,,,,,,,,,,,,,,,,,,,,,,,,,,,,,,,,,,,,,,,,,,,,,,,,,,,,,,,,,,,,,,,,,,,,,,,,,,,,,,,,,,,,,,,,,,,,,,,,,,,,,,,,,,,,,,,,,,,,,
,,6122a9e94ab256ca93f1dd37,2024-02-22_03h37.55.102,kallum_motion_pilot,2023.2.2,Win32,20,6122a9e94ab256ca93f1dd37,65d6bb0e977760de756971f7,65d6c173972c1d2144b7f57e,0.021,0.021,0,104,104,73,1,onethree,,,,,,,,,,,,,,,,,,,,,,,,,,,,,,,,,,,,,,,,,,,,,,,,,,,,,,,,,,,,,,,,,,,,,,,,,,,,,,,,,,,,,,,,,,,,,,,,,,,,,,,,,,,,,,,,,,,,,,,,,,,,,,,,,,,,,,,,,
,,6122a9e94ab256ca93f1dd37,2024-02-22_03h37.55.102,kallum_motion_pilot,2023.2.2,Win32,20,6122a9e94ab256ca93f1dd37,65d6bb0e977760de756971f7,65d6c173972c1d2144b7f57e,0.021,0.021,0,105,105,60,1,threeone,,,,,,,,,,,,,,,,,,,,,,,,,,,,,,,,,,,,,,,,,,,,,,,,,,,,,,,,,,,,,,,,,,,,,,,,,,,,,,,,,,,,,,,,,,,,,,,,,,,,,,,,,,,,,,,,,,,,,,,,,,,,,,,,,,,,,,,,,
,,6122a9e94ab256ca93f1dd37,2024-02-22_03h37.55.102,kallum_motion_pilot,2023.2.2,Win32,20,6122a9e94ab256ca93f1dd37,65d6bb0e977760de756971f7,65d6c173972c1d2144b7f57e,0.021,0.021,0,106,106,29,1,threefour,,,,,,,,,,,,,,,,,,,,,,,,,,,,,,,,,,,,,,,,,,,,,,,,,,,,,,,,,,,,,,,,,,,,,,,,,,,,,,,,,,,,,,,,,,,,,,,,,,,,,,,,,,,,,,,,,,,,,,,,,,,,,,,,,,,,,,,,,
,,6122a9e94ab256ca93f1dd37,2024-02-22_03h37.55.102,kallum_motion_pilot,2023.2.2,Win32,20,6122a9e94ab256ca93f1dd37,65d6bb0e977760de756971f7,65d6c173972c1d2144b7f57e,0.021,0.021,0,107,107,133,1,seveneight,,,,,,,,,,,,,,,,,,,,,,,,,,,,,,,,,,,,,,,,,,,,,,,,,,,,,,,,,,,,,,,,,,,,,,,,,,,,,,,,,,,,,,,,,,,,,,,,,,,,,,,,,,,,,,,,,,,,,,,,,,,,,,,,,,,,,,,,,
,,6122a9e94ab256ca93f1dd37,2024-02-22_03h37.55.102,kallum_motion_pilot,2023.2.2,Win32,20,6122a9e94ab256ca93f1dd37,65d6bb0e977760de756971f7,65d6c173972c1d2144b7f57e,0.021,0.021,0,108,108,63,1,fourthree,,,,,,,,,,,,,,,,,,,,,,,,,,,,,,,,,,,,,,,,,,,,,,,,,,,,,,,,,,,,,,,,,,,,,,,,,,,,,,,,,,,,,,,,,,,,,,,,,,,,,,,,,,,,,,,,,,,,,,,,,,,,,,,,,,,,,,,,,
,,6122a9e94ab256ca93f1dd37,2024-02-22_03h37.55.102,kallum_motion_pilot,2023.2.2,Win32,20,6122a9e94ab256ca93f1dd37,65d6bb0e977760de756971f7,65d6c173972c1d2144b7f57e,0.021,0.021,0,109,109,139,1,sixeight,,,,,,,,,,,,,,,,,,,,,,,,,,,,,,,,,,,,,,,,,,,,,,,,,,,,,,,,,,,,,,,,,,,,,,,,,,,,,,,,,,,,,,,,,,,,,,,,,,,,,,,,,,,,,,,,,,,,,,,,,,,,,,,,,,,,,,,,,
,,6122a9e94ab256ca93f1dd37,2024-02-22_03h37.55.102,kallum_motion_pilot,2023.2.2,Win32,20,6122a9e94ab256ca93f1dd37,65d6bb0e977760de756971f7,65d6c173972c1d2144b7f57e,0.021,0.021,0,110,110,7,1,fourthree,,,,,,,,,,,,,,,,,,,,,,,,,,,,,,,,,,,,,,,,,,,,,,,,,,,,,,,,,,,,,,,,,,,,,,,,,,,,,,,,,,,,,,,,,,,,,,,,,,,,,,,,,,,,,,,,,,,,,,,,,,,,,,,,,,,,,,,,,
,,6122a9e94ab256ca93f1dd37,2024-02-22_03h37.55.102,kallum_motion_pilot,2023.2.2,Win32,20,6122a9e94ab256ca93f1dd37,65d6bb0e977760de756971f7,65d6c173972c1d2144b7f57e,0.021,0.022,0,111,111,101,1,seveneight,,,,,,,,,,,,,,,,,,,,,,,,,,,,,,,,,,,,,,,,,,,,,,,,,,,,,,,,,,,,,,,,,,,,,,,,,,,,,,,,,,,,,,,,,,,,,,,,,,,,,,,,,,,,,,,,,,,,,,,,,,,,,,,,,,,,,,,,,
,,6122a9e94ab256ca93f1dd37,2024-02-22_03h37.55.102,kallum_motion_pilot,2023.2.2,Win32,20,6122a9e94ab256ca93f1dd37,65d6bb0e977760de756971f7,65d6c173972c1d2144b7f57e,0.022,0.022,0,112,112,23,1,fourthree,,,,,,,,,,,,,,,,,,,,,,,,,,,,,,,,,,,,,,,,,,,,,,,,,,,,,,,,,,,,,,,,,,,,,,,,,,,,,,,,,,,,,,,,,,,,,,,,,,,,,,,,,,,,,,,,,,,,,,,,,,,,,,,,,,,,,,,,,
,,6122a9e94ab256ca93f1dd37,2024-02-22_03h37.55.102,kallum_motion_pilot,2023.2.2,Win32,20,6122a9e94ab256ca93f1dd37,65d6bb0e977760de756971f7,65d6c173972c1d2144b7f57e,0.022,0.022,0,113,113,76,1,threeone,,,,,,,,,,,,,,,,,,,,,,,,,,,,,,,,,,,,,,,,,,,,,,,,,,,,,,,,,,,,,,,,,,,,,,,,,,,,,,,,,,,,,,,,,,,,,,,,,,,,,,,,,,,,,,,,,,,,,,,,,,,,,,,,,,,,,,,,,
,,6122a9e94ab256ca93f1dd37,2024-02-22_03h37.55.102,kallum_motion_pilot,2023.2.2,Win32,20,6122a9e94ab256ca93f1dd37,65d6bb0e977760de756971f7,65d6c173972c1d2144b7f57e,0.022,0.022,0,114,114,138,1,sixfive,,,,,,,,,,,,,,,,,,,,,,,,,,,,,,,,,,,,,,,,,,,,,,,,,,,,,,,,,,,,,,,,,,,,,,,,,,,,,,,,,,,,,,,,,,,,,,,,,,,,,,,,,,,,,,,,,,,,,,,,,,,,,,,,,,,,,,,,,
,,6122a9e94ab256ca93f1dd37,2024-02-22_03h37.55.102,kallum_motion_pilot,2023.2.2,Win32,20,6122a9e94ab256ca93f1dd37,65d6bb0e977760de756971f7,65d6c173972c1d2144b7f57e,0.023,0.023,0,115,115,40,1,onetwo,,,,,,,,,,,,,,,,,,,,,,,,,,,,,,,,,,,,,,,,,,,,,,,,,,,,,,,,,,,,,,,,,,,,,,,,,,,,,,,,,,,,,,,,,,,,,,,,,,,,,,,,,,,,,,,,,,,,,,,,,,,,,,,,,,,,,,,,,
,,6122a9e94ab256ca93f1dd37,2024-02-22_03h37.55.102,kallum_motion_pilot,2023.2.2,Win32,20,6122a9e94ab256ca93f1dd37,65d6bb0e977760de756971f7,65d6c173972c1d2144b7f57e,0.023,0.023,0,116,116,64,1,onetwo,,,,,,,,,,,,,,,,,,,,,,,,,,,,,,,,,,,,,,,,,,,,,,,,,,,,,,,,,,,,,,,,,,,,,,,,,,,,,,,,,,,,,,,,,,,,,,,,,,,,,,,,,,,,,,,,,,,,,,,,,,,,,,,,,,,,,,,,,
,,6122a9e94ab256ca93f1dd37,2024-02-22_03h37.55.102,kallum_motion_pilot,2023.2.2,Win32,20,6122a9e94ab256ca93f1dd37,65d6bb0e977760de756971f7,65d6c173972c1d2144b7f57e,0.023,0.023,0,117,117,37,1,threefour,,,,,,,,,,,,,,,,,,,,,,,,,,,,,,,,,,,,,,,,,,,,,,,,,,,,,,,,,,,,,,,,,,,,,,,,,,,,,,,,,,,,,,,,,,,,,,,,,,,,,,,,,,,,,,,,,,,,,,,,,,,,,,,,,,,,,,,,,
,,6122a9e94ab256ca93f1dd37,2024-02-22_03h37.55.102,kallum_motion_pilot,2023.2.2,Win32,20,6122a9e94ab256ca93f1dd37,65d6bb0e977760de756971f7,65d6c173972c1d2144b7f57e,0.023,0.023,0,118,118,155,1,sixeight,,,,,,,,,,,,,,,,,,,,,,,,,,,,,,,,,,,,,,,,,,,,,,,,,,,,,,,,,,,,,,,,,,,,,,,,,,,,,,,,,,,,,,,,,,,,,,,,,,,,,,,,,,,,,,,,,,,,,,,,,,,,,,,,,,,,,,,,,
,,6122a9e94ab256ca93f1dd37,2024-02-22_03h37.55.102,kallum_motion_pilot,2023.2.2,Win32,20,6122a9e94ab256ca93f1dd37,65d6bb0e977760de756971f7,65d6c173972c1d2144b7f57e,0.023,0.023,0,119,119,130,1,sixfive,,,,,,,,,,,,,,,,,,,,,,,,,,,,,,,,,,,,,,,,,,,,,,,,,,,,,,,,,,,,,,,,,,,,,,,,,,,,,,,,,,,,,,,,,,,,,,,,,,,,,,,,,,,,,,,,,,,,,,,,,,,,,,,,,,,,,,,,,
,,6122a9e94ab256ca93f1dd37,2024-02-22_03h37.55.102,kallum_motion_pilot,2023.2.2,Win32,20,6122a9e94ab256ca93f1dd37,65d6bb0e977760de756971f7,65d6c173972c1d2144b7f57e,0.023,0.023,0,120,120,109,1,seveneight,,,,,,,,,,,,,,,,,,,,,,,,,,,,,,,,,,,,,,,,,,,,,,,,,,,,,,,,,,,,,,,,,,,,,,,,,,,,,,,,,,,,,,,,,,,,,,,,,,,,,,,,,,,,,,,,,,,,,,,,,,,,,,,,,,,,,,,,,
,,6122a9e94ab256ca93f1dd37,2024-02-22_03h37.55.102,kallum_motion_pilot,2023.2.2,Win32,20,6122a9e94ab256ca93f1dd37,65d6bb0e977760de756971f7,65d6c173972c1d2144b7f57e,0.023,0.023,0,121,121,14,1,fourtwo,,,,,,,,,,,,,,,,,,,,,,,,,,,,,,,,,,,,,,,,,,,,,,,,,,,,,,,,,,,,,,,,,,,,,,,,,,,,,,,,,,,,,,,,,,,,,,,,,,,,,,,,,,,,,,,,,,,,,,,,,,,,,,,,,,,,,,,,,
,,6122a9e94ab256ca93f1dd37,2024-02-22_03h37.55.102,kallum_motion_pilot,2023.2.2,Win32,20,6122a9e94ab256ca93f1dd37,65d6bb0e977760de756971f7,65d6c173972c1d2144b7f57e,0.023,0.023,0,122,122,143,1,eightseven,,,,,,,,,,,,,,,,,,,,,,,,,,,,,,,,,,,,,,,,,,,,,,,,,,,,,,,,,,,,,,,,,,,,,,,,,,,,,,,,,,,,,,,,,,,,,,,,,,,,,,,,,,,,,,,,,,,,,,,,,,,,,,,,,,,,,,,,,
,,6122a9e94ab256ca93f1dd37,2024-02-22_03h37.55.102,kallum_motion_pilot,2023.2.2,Win32,20,6122a9e94ab256ca93f1dd37,65d6bb0e977760de756971f7,65d6c173972c1d2144b7f57e,0.023,0.023,0,123,123,77,1,threefour,,,,,,,,,,,,,,,,,,,,,,,,,,,,,,,,,,,,,,,,,,,,,,,,,,,,,,,,,,,,,,,,,,,,,,,,,,,,,,,,,,,,,,,,,,,,,,,,,,,,,,,,,,,,,,,,,,,,,,,,,,,,,,,,,,,,,,,,,
,,6122a9e94ab256ca93f1dd37,2024-02-22_03h37.55.102,kallum_motion_pilot,2023.2.2,Win32,20,6122a9e94ab256ca93f1dd37,65d6bb0e977760de756971f7,65d6c173972c1d2144b7f57e,0.023,0.023,0,124,124,6,1,fourtwo,,,,,,,,,,,,,,,,,,,,,,,,,,,,,,,,,,,,,,,,,,,,,,,,,,,,,,,,,,,,,,,,,,,,,,,,,,,,,,,,,,,,,,,,,,,,,,,,,,,,,,,,,,,,,,,,,,,,,,,,,,,,,,,,,,,,,,,,,
,,6122a9e94ab256ca93f1dd37,2024-02-22_03h37.55.102,kallum_motion_pilot,2023.2.2,Win32,20,6122a9e94ab256ca93f1dd37,65d6bb0e977760de756971f7,65d6c173972c1d2144b7f57e,0.023,0.023,0,125,125,84,1,sevenfive,,,,,,,,,,,,,,,,,,,,,,,,,,,,,,,,,,,,,,,,,,,,,,,,,,,,,,,,,,,,,,,,,,,,,,,,,,,,,,,,,,,,,,,,,,,,,,,,,,,,,,,,,,,,,,,,,,,,,,,,,,,,,,,,,,,,,,,,,
,,6122a9e94ab256ca93f1dd37,2024-02-22_03h37.55.102,kallum_motion_pilot,2023.2.2,Win32,20,6122a9e94ab256ca93f1dd37,65d6bb0e977760de756971f7,65d6c173972c1d2144b7f57e,0.023,0.023,0,126,126,31,1,fourthree,,,,,,,,,,,,,,,,,,,,,,,,,,,,,,,,,,,,,,,,,,,,,,,,,,,,,,,,,,,,,,,,,,,,,,,,,,,,,,,,,,,,,,,,,,,,,,,,,,,,,,,,,,,,,,,,,,,,,,,,,,,,,,,,,,,,,,,,,
,,6122a9e94ab256ca93f1dd37,2024-02-22_03h37.55.102,kallum_motion_pilot,2023.2.2,Win32,20,6122a9e94ab256ca93f1dd37,65d6bb0e977760de756971f7,65d6c173972c1d2144b7f57e,0.023,0.023,0,127,127,93,1,seveneight,,,,,,,,,,,,,,,,,,,,,,,,,,,,,,,,,,,,,,,,,,,,,,,,,,,,,,,,,,,,,,,,,,,,,,,,,,,,,,,,,,,,,,,,,,,,,,,,,,,,,,,,,,,,,,,,,,,,,,,,,,,,,,,,,,,,,,,,,
,,6122a9e94ab256ca93f1dd37,2024-02-22_03h37.55.102,kallum_motion_pilot,2023.2.2,Win32,20,6122a9e94ab256ca93f1dd37,65d6bb0e977760de756971f7,65d6c173972c1d2144b7f57e,0.023,0.023,0,128,128,74,1,twoone,,,,,,,,,,,,,,,,,,,,,,,,,,,,,,,,,,,,,,,,,,,,,,,,,,,,,,,,,,,,,,,,,,,,,,,,,,,,,,,,,,,,,,,,,,,,,,,,,,,,,,,,,,,,,,,,,,,,,,,,,,,,,,,,,,,,,,,,,
,,6122a9e94ab256ca93f1dd37,2024-02-22_03h37.55.102,kallum_motion_pilot,2023.2.2,Win32,20,6122a9e94ab256ca93f1dd37,65d6bb0e977760de756971f7,65d6c173972c1d2144b7f57e,0.023,0.023,0,129,129,145,1,fiveseven,,,,,,,,,,,,,,,,,,,,,,,,,,,,,,,,,,,,,,,,,,,,,,,,,,,,,,,,,,,,,,,,,,,,,,,,,,,,,,,,,,,,,,,,,,,,,,,,,,,,,,,,,,,,,,,,,,,,,,,,,,,,,,,,,,,,,,,,,
,,6122a9e94ab256ca93f1dd37,2024-02-22_03h37.55.102,kallum_motion_pilot,2023.2.2,Win32,20,6122a9e94ab256ca93f1dd37,65d6bb0e977760de756971f7,65d6c173972c1d2144b7f57e,0.023,0.023,0,130,130,123,1,sixeight,,,,,,,,,,,,,,,,,,,,,,,,,,,,,,,,,,,,,,,,,,,,,,,,,,,,,,,,,,,,,,,,,,,,,,,,,,,,,,,,,,,,,,,,,,,,,,,,,,,,,,,,,,,,,,,,,,,,,,,,,,,,,,,,,,,,,,,,,
,,6122a9e94ab256ca93f1dd37,2024-02-22_03h37.55.102,kallum_motion_pilot,2023.2.2,Win32,20,6122a9e94ab256ca93f1dd37,65d6bb0e977760de756971f7,65d6c173972c1d2144b7f57e,0.024,0.024,0,131,131,135,1,eightseven,,,,,,,,,,,,,,,,,,,,,,,,,,,,,,,,,,,,,,,,,,,,,,,,,,,,,,,,,,,,,,,,,,,,,,,,,,,,,,,,,,,,,,,,,,,,,,,,,,,,,,,,,,,,,,,,,,,,,,,,,,,,,,,,,,,,,,,,,
,,6122a9e94ab256ca93f1dd37,2024-02-22_03h37.55.102,kallum_motion_pilot,2023.2.2,Win32,20,6122a9e94ab256ca93f1dd37,65d6bb0e977760de756971f7,65d6c173972c1d2144b7f57e,0.024,0.024,0,132,132,58,1,twoone,,,,,,,,,,,,,,,,,,,,,,,,,,,,,,,,,,,,,,,,,,,,,,,,,,,,,,,,,,,,,,,,,,,,,,,,,,,,,,,,,,,,,,,,,,,,,,,,,,,,,,,,,,,,,,,,,,,,,,,,,,,,,,,,,,,,,,,,,
,,6122a9e94ab256ca93f1dd37,2024-02-22_03h37.55.102,kallum_motion_pilot,2023.2.2,Win32,20,6122a9e94ab256ca93f1dd37,65d6bb0e977760de756971f7,65d6c173972c1d2144b7f57e,0.024,0.024,0,133,133,110,1,eightsix,,,,,,,,,,,,,,,,,,,,,,,,,,,,,,,,,,,,,,,,,,,,,,,,,,,,,,,,,,,,,,,,,,,,,,,,,,,,,,,,,,,,,,,,,,,,,,,,,,,,,,,,,,,,,,,,,,,,,,,,,,,,,,,,,,,,,,,,,
,,6122a9e94ab256ca93f1dd37,2024-02-22_03h37.55.102,kallum_motion_pilot,2023.2.2,Win32,20,6122a9e94ab256ca93f1dd37,65d6bb0e977760de756971f7,65d6c173972c1d2144b7f57e,0.024,0.024,0,134,134,121,1,fiveseven,,,,,,,,,,,,,,,,,,,,,,,,,,,,,,,,,,,,,,,,,,,,,,,,,,,,,,,,,,,,,,,,,,,,,,,,,,,,,,,,,,,,,,,,,,,,,,,,,,,,,,,,,,,,,,,,,,,,,,,,,,,,,,,,,,,,,,,,,
,,6122a9e94ab256ca93f1dd37,2024-02-22_03h37.55.102,kallum_motion_pilot,2023.2.2,Win32,20,6122a9e94ab256ca93f1dd37,65d6bb0e977760de756971f7,65d6c173972c1d2144b7f57e,0.024,0.024,0,135,135,129,1,fiveseven,,,,,,,,,,,,,,,,,,,,,,,,,,,,,,,,,,,,,,,,,,,,,,,,,,,,,,,,,,,,,,,,,,,,,,,,,,,,,,,,,,,,,,,,,,,,,,,,,,,,,,,,,,,,,,,,,,,,,,,,,,,,,,,,,,,,,,,,,
,,6122a9e94ab256ca93f1dd37,2024-02-22_03h37.55.102,kallum_motion_pilot,2023.2.2,Win32,20,6122a9e94ab256ca93f1dd37,65d6bb0e977760de756971f7,65d6c173972c1d2144b7f57e,0.024,0.024,0,136,136,71,1,fourthree,,,,,,,,,,,,,,,,,,,,,,,,,,,,,,,,,,,,,,,,,,,,,,,,,,,,,,,,,,,,,,,,,,,,,,,,,,,,,,,,,,,,,,,,,,,,,,,,,,,,,,,,,,,,,,,,,,,,,,,,,,,,,,,,,,,,,,,,,
,,6122a9e94ab256ca93f1dd37,2024-02-22_03h37.55.102,kallum_motion_pilot,2023.2.2,Win32,20,6122a9e94ab256ca93f1dd37,65d6bb0e977760de756971f7,65d6c173972c1d2144b7f57e,0.025,0.025,0,137,137,8,1,onetwo,,,,,,,,,,,,,,,,,,,,,,,,,,,,,,,,,,,,,,,,,,,,,,,,,,,,,,,,,,,,,,,,,,,,,,,,,,,,,,,,,,,,,,,,,,,,,,,,,,,,,,,,,,,,,,,,,,,,,,,,,,,,,,,,,,,,,,,,,
,,6122a9e94ab256ca93f1dd37,2024-02-22_03h37.55.102,kallum_motion_pilot,2023.2.2,Win32,20,6122a9e94ab256ca93f1dd37,65d6bb0e977760de756971f7,65d6c173972c1d2144b7f57e,0.025,0.025,0,138,138,92,1,sevenfive,,,,,,,,,,,,,,,,,,,,,,,,,,,,,,,,,,,,,,,,,,,,,,,,,,,,,,,,,,,,,,,,,,,,,,,,,,,,,,,,,,,,,,,,,,,,,,,,,,,,,,,,,,,,,,,,,,,,,,,,,,,,,,,,,,,,,,,,,
,,6122a9e94ab256ca93f1dd37,2024-02-22_03h37.55.102,kallum_motion_pilot,2023.2.2,Win32,20,6122a9e94ab256ca93f1dd37,65d6bb0e977760de756971f7,65d6c173972c1d2144b7f57e,0.025,0.025,0,139,139,17,1,onethree,,,,,,,,,,,,,,,,,,,,,,,,,,,,,,,,,,,,,,,,,,,,,,,,,,,,,,,,,,,,,,,,,,,,,,,,,,,,,,,,,,,,,,,,,,,,,,,,,,,,,,,,,,,,,,,,,,,,,,,,,,,,,,,,,,,,,,,,,
,,6122a9e94ab256ca93f1dd37,2024-02-22_03h37.55.102,kallum_motion_pilot,2023.2.2,Win32,20,6122a9e94ab256ca93f1dd37,65d6bb0e977760de756971f7,65d6c173972c1d2144b7f57e,0.025,0.025,0,140,140,19,1,twofour,,,,,,,,,,,,,,,,,,,,,,,,,,,,,,,,,,,,,,,,,,,,,,,,,,,,,,,,,,,,,,,,,,,,,,,,,,,,,,,,,,,,,,,,,,,,,,,,,,,,,,,,,,,,,,,,,,,,,,,,,,,,,,,,,,,,,,,,,
,,6122a9e94ab256ca93f1dd37,2024-02-22_03h37.55.102,kallum_motion_pilot,2023.2.2,Win32,20,6122a9e94ab256ca93f1dd37,65d6bb0e977760de756971f7,65d6c173972c1d2144b7f57e,0.025,0.025,0,141,141,16,1,onetwo,,,,,,,,,,,,,,,,,,,,,,,,,,,,,,,,,,,,,,,,,,,,,,,,,,,,,,,,,,,,,,,,,,,,,,,,,,,,,,,,,,,,,,,,,,,,,,,,,,,,,,,,,,,,,,,,,,,,,,,,,,,,,,,,,,,,,,,,,
,,6122a9e94ab256ca93f1dd37,2024-02-22_03h37.55.102,kallum_motion_pilot,2023.2.2,Win32,20,6122a9e94ab256ca93f1dd37,65d6bb0e977760de756971f7,65d6c173972c1d2144b7f57e,0.025,0.025,0,142,142,47,1,fourthree,,,,,,,,,,,,,,,,,,,,,,,,,,,,,,,,,,,,,,,,,,,,,,,,,,,,,,,,,,,,,,,,,,,,,,,,,,,,,,,,,,,,,,,,,,,,,,,,,,,,,,,,,,,,,,,,,,,,,,,,,,,,,,,,,,,,,,,,,
,,6122a9e94ab256ca93f1dd37,2024-02-22_03h37.55.102,kallum_motion_pilot,2023.2.2,Win32,20,6122a9e94ab256ca93f1dd37,65d6bb0e977760de756971f7,65d6c173972c1d2144b7f57e,0.025,0.025,0,143,143,43,1,twofour,,,,,,,,,,,,,,,,,,,,,,,,,,,,,,,,,,,,,,,,,,,,,,,,,,,,,,,,,,,,,,,,,,,,,,,,,,,,,,,,,,,,,,,,,,,,,,,,,,,,,,,,,,,,,,,,,,,,,,,,,,,,,,,,,,,,,,,,,
,,6122a9e94ab256ca93f1dd37,2024-02-22_03h37.55.102,kallum_motion_pilot,2023.2.2,Win32,20,6122a9e94ab256ca93f1dd37,65d6bb0e977760de756971f7,65d6c173972c1d2144b7f57e,0.025,0.025,0,144,144,20,1,threeone,,,,,,,,,,,,,,,,,,,,,,,,,,,,,,,,,,,,,,,,,,,,,,,,,,,,,,,,,,,,,,,,,,,,,,,,,,,,,,,,,,,,,,,,,,,,,,,,,,,,,,,,,,,,,,,,,,,,,,,,,,,,,,,,,,,,,,,,,
,,6122a9e94ab256ca93f1dd37,2024-02-22_03h37.55.102,kallum_motion_pilot,2023.2.2,Win32,20,6122a9e94ab256ca93f1dd37,65d6bb0e977760de756971f7,65d6c173972c1d2144b7f57e,0.025,0.025,0,145,145,12,1,threeone,,,,,,,,,,,,,,,,,,,,,,,,,,,,,,,,,,,,,,,,,,,,,,,,,,,,,,,,,,,,,,,,,,,,,,,,,,,,,,,,,,,,,,,,,,,,,,,,,,,,,,,,,,,,,,,,,,,,,,,,,,,,,,,,,,,,,,,,,
,,6122a9e94ab256ca93f1dd37,2024-02-22_03h37.55.102,kallum_motion_pilot,2023.2.2,Win32,20,6122a9e94ab256ca93f1dd37,65d6bb0e977760de756971f7,65d6c173972c1d2144b7f57e,0.025,0.025,0,146,146,156,1,sevenfive,,,,,,,,,,,,,,,,,,,,,,,,,,,,,,,,,,,,,,,,,,,,,,,,,,,,,,,,,,,,,,,,,,,,,,,,,,,,,,,,,,,,,,,,,,,,,,,,,,,,,,,,,,,,,,,,,,,,,,,,,,,,,,,,,,,,,,,,,
,,6122a9e94ab256ca93f1dd37,2024-02-22_03h37.55.102,kallum_motion_pilot,2023.2.2,Win32,20,6122a9e94ab256ca93f1dd37,65d6bb0e977760de756971f7,65d6c173972c1d2144b7f57e,0.025,0.025,0,147,147,0,1,onetwo,,,,,,,,,,,,,,,,,,,,,,,,,,,,,,,,,,,,,,,,,,,,,,,,,,,,,,,,,,,,,,,,,,,,,,,,,,,,,,,,,,,,,,,,,,,,,,,,,,,,,,,,,,,,,,,,,,,,,,,,,,,,,,,,,,,,,,,,,
,,6122a9e94ab256ca93f1dd37,2024-02-22_03h37.55.102,kallum_motion_pilot,2023.2.2,Win32,20,6122a9e94ab256ca93f1dd37,65d6bb0e977760de756971f7,65d6c173972c1d2144b7f57e,0.026,0.026,0,148,148,158,1,eightsix,,,,,,,,,,,,,,,,,,,,,,,,,,,,,,,,,,,,,,,,,,,,,,,,,,,,,,,,,,,,,,,,,,,,,,,,,,,,,,,,,,,,,,,,,,,,,,,,,,,,,,,,,,,,,,,,,,,,,,,,,,,,,,,,,,,,,,,,,
,,6122a9e94ab256ca93f1dd37,2024-02-22_03h37.55.102,kallum_motion_pilot,2023.2.2,Win32,20,6122a9e94ab256ca93f1dd37,65d6bb0e977760de756971f7,65d6c173972c1d2144b7f57e,0.026,0.026,0,149,149,125,1,seveneight,,,,,,,,,,,,,,,,,,,,,,,,,,,,,,,,,,,,,,,,,,,,,,,,,,,,,,,,,,,,,,,,,,,,,,,,,,,,,,,,,,,,,,,,,,,,,,,,,,,,,,,,,,,,,,,,,,,,,,,,,,,,,,,,,,,,,,,,,
,,6122a9e94ab256ca93f1dd37,2024-02-22_03h37.55.102,kallum_motion_pilot,2023.2.2,Win32,20,6122a9e94ab256ca93f1dd37,65d6bb0e977760de756971f7,65d6c173972c1d2144b7f57e,0.026,0.026,0,150,150,2,1,twoone,,,,,,,,,,,,,,,,,,,,,,,,,,,,,,,,,,,,,,,,,,,,,,,,,,,,,,,,,,,,,,,,,,,,,,,,,,,,,,,,,,,,,,,,,,,,,,,,,,,,,,,,,,,,,,,,,,,,,,,,,,,,,,,,,,,,,,,,,
,,6122a9e94ab256ca93f1dd37,2024-02-22_03h37.55.102,kallum_motion_pilot,2023.2.2,Win32,20,6122a9e94ab256ca93f1dd37,65d6bb0e977760de756971f7,65d6c173972c1d2144b7f57e,0.026,0.026,0,151,151,96,1,fivesix,,,,,,,,,,,,,,,,,,,,,,,,,,,,,,,,,,,,,,,,,,,,,,,,,,,,,,,,,,,,,,,,,,,,,,,,,,,,,,,,,,,,,,,,,,,,,,,,,,,,,,,,,,,,,,,,,,,,,,,,,,,,,,,,,,,,,,,,,
,,6122a9e94ab256ca93f1dd37,2024-02-22_03h37.55.102,kallum_motion_pilot,2023.2.2,Win32,20,6122a9e94ab256ca93f1dd37,65d6bb0e977760de756971f7,65d6c173972c1d2144b7f57e,0.026,0.026,0,152,152,1,1,onethree,,,,,,,,,,,,,,,,,,,,,,,,,,,,,,,,,,,,,,,,,,,,,,,,,,,,,,,,,,,,,,,,,,,,,,,,,,,,,,,,,,,,,,,,,,,,,,,,,,,,,,,,,,,,,,,,,,,,,,,,,,,,,,,,,,,,,,,,,
,,6122a9e94ab256ca93f1dd37,2024-02-22_03h37.55.102,kallum_motion_pilot,2023.2.2,Win32,20,6122a9e94ab256ca93f1dd37,65d6bb0e977760de756971f7,65d6c173972c1d2144b7f57e,0.026,0.026,0,153,153,56,1,onetwo,,,,,,,,,,,,,,,,,,,,,,,,,,,,,,,,,,,,,,,,,,,,,,,,,,,,,,,,,,,,,,,,,,,,,,,,,,,,,,,,,,,,,,,,,,,,,,,,,,,,,,,,,,,,,,,,,,,,,,,,,,,,,,,,,,,,,,,,,
,,6122a9e94ab256ca93f1dd37,2024-02-22_03h37.55.102,kallum_motion_pilot,2023.2.2,Win32,20,6122a9e94ab256ca93f1dd37,65d6bb0e977760de756971f7,65d6c173972c1d2144b7f57e,0.026,0.026,0,154,154,36,1,threeone,,,,,,,,,,,,,,,,,,,,,,,,,,,,,,,,,,,,,,,,,,,,,,,,,,,,,,,,,,,,,,,,,,,,,,,,,,,,,,,,,,,,,,,,,,,,,,,,,,,,,,,,,,,,,,,,,,,,,,,,,,,,,,,,,,,,,,,,,
,,6122a9e94ab256ca93f1dd37,2024-02-22_03h37.55.102,kallum_motion_pilot,2023.2.2,Win32,20,6122a9e94ab256ca93f1dd37,65d6bb0e977760de756971f7,65d6c173972c1d2144b7f57e,0.026,0.026,0,155,155,90,1,sixfive,,,,,,,,,,,,,,,,,,,,,,,,,,,,,,,,,,,,,,,,,,,,,,,,,,,,,,,,,,,,,,,,,,,,,,,,,,,,,,,,,,,,,,,,,,,,,,,,,,,,,,,,,,,,,,,,,,,,,,,,,,,,,,,,,,,,,,,,,
,,6122a9e94ab256ca93f1dd37,2024-02-22_03h37.55.102,kallum_motion_pilot,2023.2.2,Win32,20,6122a9e94ab256ca93f1dd37,65d6bb0e977760de756971f7,65d6c173972c1d2144b7f57e,0.026,0.026,0,156,156,48,1,onetwo,,,,,,,,,,,,,,,,,,,,,,,,,,,,,,,,,,,,,,,,,,,,,,,,,,,,,,,,,,,,,,,,,,,,,,,,,,,,,,,,,,,,,,,,,,,,,,,,,,,,,,,,,,,,,,,,,,,,,,,,,,,,,,,,,,,,,,,,,
,,6122a9e94ab256ca93f1dd37,2024-02-22_03h37.55.102,kallum_motion_pilot,2023.2.2,Win32,20,6122a9e94ab256ca93f1dd37,65d6bb0e977760de756971f7,65d6c173972c1d2144b7f57e,0.026,0.026,0,157,157,160,1,fivesix,,,,,,,,,,,,,,,,,,,,,,,,,,,,,,,,,,,,,,,,,,,,,,,,,,,,,,,,,,,,,,,,,,,,,,,,,,,,,,,,,,,,,,,,,,,,,,,,,,,,,,,,,,,,,,,,,,,,,,,,,,,,,,,,,,,,,,,,,
,,6122a9e94ab256ca93f1dd37,2024-02-22_03h37.55.102,kallum_motion_pilot,2023.2.2,Win32,20,6122a9e94ab256ca93f1dd37,65d6bb0e977760de756971f7,65d6c173972c1d2144b7f57e,0.026,0.026,0,158,158,25,1,onethree,,,,,,,,,,,,,,,,,,,,,,,,,,,,,,,,,,,,,,,,,,,,,,,,,,,,,,,,,,,,,,,,,,,,,,,,,,,,,,,,,,,,,,,,,,,,,,,,,,,,,,,,,,,,,,,,,,,,,,,,,,,,,,,,,,,,,,,,,
,,6122a9e94ab256ca93f1dd37,2024-02-22_03h37.55.102,kallum_motion_pilot,2023.2.2,Win32,20,6122a9e94ab256ca93f1dd37,65d6bb0e977760de756971f7,65d6c173972c1d2144b7f57e,0.026,0.026,0,159,159,153,1,fiveseven,,,,,,,,,,,,,,,,,,,,,,,,,,,,,,,,,,,,,,,,,,,,,,,,,,,,,,,,,,,,,,,,,,,,,,,,,,,,,,,,,,,,,,,,,,,,,,,,,,,,,,,,,,,,,,,,,,,,,,,,,,,,,,,,,,,,,,,,,
,,6122a9e94ab256ca93f1dd37,2024-02-22_03h37.55.102,kallum_motion_pilot,2023.2.2,Win32,20,6122a9e94ab256ca93f1dd37,65d6bb0e977760de756971f7,65d6c173972c1d2144b7f57e,0.026,0.027,0,160,160,151,1,eightseven,,,,,,,,,,,,,,,,,,,,,,,,,,,,,,,,,,,,,,,,,,,,,,,,,,,,,,,,,,,,,,,,,,,,,,,,,,,,,,,,,,,,,,,,,,,,,,,,,,,,,,,,,,,,,,,,,,,,,,,,,,,,,,,,,,,,,,,,,
,,6122a9e94ab256ca93f1dd37,2024-02-22_03h37.55.102,kallum_motion_pilot,2023.2.2,Win32,20,6122a9e94ab256ca93f1dd37,65d6bb0e977760de756971f7,65d6c173972c1d2144b7f57e,0.027,0.027,0,161,161,82,1,sixfive,,,,,,,,,,,,,,,,,,,,,,,,,,,,,,,,,,,,,,,,,,,,,,,,,,,,,,,,,,,,,,,,,,,,,,,,,,,,,,,,,,,,,,,,,,,,,,,,,,,,,,,,,,,,,,,,,,,,,,,,,,,,,,,,,,,,,,,,,
,,6122a9e94ab256ca93f1dd37,2024-02-22_03h37.55.102,kallum_motion_pilot,2023.2.2,Win32,20,6122a9e94ab256ca93f1dd37,65d6bb0e977760de756971f7,65d6c173972c1d2144b7f57e,0.027,0.027,1,0,162,35,1,twofour,,,,,,,,,,,,,,,,,,,,,,,,,,,,,,,,,,,,,,,,,,,,,,,,,,,,,,,,,,,,,,,,,,,,,,,,,,,,,,,,,,,,,,,,,,,,,,,,,,,,,,,,,,,,,,,,,,,,,,,,,,,,,,,,,,,,,,,,,
,,6122a9e94ab256ca93f1dd37,2024-02-22_03h37.55.102,kallum_motion_pilot,2023.2.2,Win32,20,6122a9e94ab256ca93f1dd37,65d6bb0e977760de756971f7,65d6c173972c1d2144b7f57e,0.027,0.027,1,1,163,125,1,seveneight,,,,,,,,,,,,,,,,,,,,,,,,,,,,,,,,,,,,,,,,,,,,,,,,,,,,,,,,,,,,,,,,,,,,,,,,,,,,,,,,,,,,,,,,,,,,,,,,,,,,,,,,,,,,,,,,,,,,,,,,,,,,,,,,,,,,,,,,,
,,6122a9e94ab256ca93f1dd37,2024-02-22_03h37.55.102,kallum_motion_pilot,2023.2.2,Win32,20,6122a9e94ab256ca93f1dd37,65d6bb0e977760de756971f7,65d6c173972c1d2144b7f57e,0.027,0.027,1,2,164,49,1,onethree,,,,,,,,,,,,,,,,,,,,,,,,,,,,,,,,,,,,,,,,,,,,,,,,,,,,,,,,,,,,,,,,,,,,,,,,,,,,,,,,,,,,,,,,,,,,,,,,,,,,,,,,,,,,,,,,,,,,,,,,,,,,,,,,,,,,,,,,,
,,6122a9e94ab256ca93f1dd37,2024-02-22_03h37.55.102,kallum_motion_pilot,2023.2.2,Win32,20,6122a9e94ab256ca93f1dd37,65d6bb0e977760de756971f7,65d6c173972c1d2144b7f57e,0.027,0.027,1,3,165,129,1,fiveseven,,,,,,,,,,,,,,,,,,,,,,,,,,,,,,,,,,,,,,,,,,,,,,,,,,,,,,,,,,,,,,,,,,,,,,,,,,,,,,,,,,,,,,,,,,,,,,,,,,,,,,,,,,,,,,,,,,,,,,,,,,,,,,,,,,,,,,,,,
,,6122a9e94ab256ca93f1dd37,2024-02-22_03h37.55.102,kallum_motion_pilot,2023.2.2,Win32,20,6122a9e94ab256ca93f1dd37,65d6bb0e977760de756971f7,65d6c173972c1d2144b7f57e,0.027,0.027,1,4,166,36,1,threeone,,,,,,,,,,,,,,,,,,,,,,,,,,,,,,,,,,,,,,,,,,,,,,,,,,,,,,,,,,,,,,,,,,,,,,,,,,,,,,,,,,,,,,,,,,,,,,,,,,,,,,,,,,,,,,,,,,,,,,,,,,,,,,,,,,,,,,,,,
,,6122a9e94ab256ca93f1dd37,2024-02-22_03h37.55.102,kallum_motion_pilot,2023.2.2,Win32,20,6122a9e94ab256ca93f1dd37,65d6bb0e977760de756971f7,65d6c173972c1d2144b7f57e,0.027,0.027,1,5,167,77,1,threefour,,,,,,,,,,,,,,,,,,,,,,,,,,,,,,,,,,,,,,,,,,,,,,,,,,,,,,,,,,,,,,,,,,,,,,,,,,,,,,,,,,,,,,,,,,,,,,,,,,,,,,,,,,,,,,,,,,,,,,,,,,,,,,,,,,,,,,,,,
,,6122a9e94ab256ca93f1dd37,2024-02-22_03h37.55.102,kallum_motion_pilot,2023.2.2,Win32,20,6122a9e94ab256ca93f1dd37,65d6bb0e977760de756971f7,65d6c173972c1d2144b7f57e,0.027,0.027,1,6,168,15,1,fourthree,,,,,,,,,,,,,,,,,,,,,,,,,,,,,,,,,,,,,,,,,,,,,,,,,,,,,,,,,,,,,,,,,,,,,,,,,,,,,,,,,,,,,,,,,,,,,,,,,,,,,,,,,,,,,,,,,,,,,,,,,,,,,,,,,,,,,,,,,
,,6122a9e94ab256ca93f1dd37,2024-02-22_03h37.55.102,kallum_motion_pilot,2023.2.2,Win32,20,6122a9e94ab256ca93f1dd37,65d6bb0e977760de756971f7,65d6c173972c1d2144b7f57e,0.027,0.028,1,7,169,113,1,fiveseven,,,,,,,,,,,,,,,,,,,,,,,,,,,,,,,,,,,,,,,,,,,,,,,,,,,,,,,,,,,,,,,,,,,,,,,,,,,,,,,,,,,,,,,,,,,,,,,,,,,,,,,,,,,,,,,,,,,,,,,,,,,,,,,,,,,,,,,,,
,,6122a9e94ab256ca93f1dd37,2024-02-22_03h37.55.102,kallum_motion_pilot,2023.2.2,Win32,20,6122a9e94ab256ca93f1dd37,65d6bb0e977760de756971f7,65d6c173972c1d2144b7f57e,0.028,0.028,1,8,170,155,1,sixeight,,,,,,,,,,,,,,,,,,,,,,,,,,,,,,,,,,,,,,,,,,,,,,,,,,,,,,,,,,,,,,,,,,,,,,,,,,,,,,,,,,,,,,,,,,,,,,,,,,,,,,,,,,,,,,,,,,,,,,,,,,,,,,,,,,,,,,,,,
,,6122a9e94ab256ca93f1dd37,2024-02-22_03h37.55.102,kallum_motion_pilot,2023.2.2,Win32,20,6122a9e94ab256ca93f1dd37,65d6bb0e977760de756971f7,65d6c173972c1d2144b7f57e,0.028,0.028,1,9,171,154,1,sixfive,,,,,,,,,,,,,,,,,,,,,,,,,,,,,,,,,,,,,,,,,,,,,,,,,,,,,,,,,,,,,,,,,,,,,,,,,,,,,,,,,,,,,,,,,,,,,,,,,,,,,,,,,,,,,,,,,,,,,,,,,,,,,,,,,,,,,,,,,
,,6122a9e94ab256ca93f1dd37,2024-02-22_03h37.55.102,kallum_motion_pilot,2023.2.2,Win32,20,6122a9e94ab256ca93f1dd37,65d6bb0e977760de756971f7,65d6c173972c1d2144b7f57e,0.028,0.028,1,10,172,17,1,onethree,,,,,,,,,,,,,,,,,,,,,,,,,,,,,,,,,,,,,,,,,,,,,,,,,,,,,,,,,,,,,,,,,,,,,,,,,,,,,,,,,,,,,,,,,,,,,,,,,,,,,,,,,,,,,,,,,,,,,,,,,,,,,,,,,,,,,,,,,
,,6122a9e94ab256ca93f1dd37,2024-02-22_03h37.55.102,kallum_motion_pilot,2023.2.2,Win32,20,6122a9e94ab256ca93f1dd37,65d6bb0e977760de756971f7,65d6c173972c1d2144b7f57e,0.028,0.028,1,11,173,146,1,sixfive,,,,,,,,,,,,,,,,,,,,,,,,,,,,,,,,,,,,,,,,,,,,,,,,,,,,,,,,,,,,,,,,,,,,,,,,,,,,,,,,,,,,,,,,,,,,,,,,,,,,,,,,,,,,,,,,,,,,,,,,,,,,,,,,,,,,,,,,,
,,6122a9e94ab256ca93f1dd37,2024-02-22_03h37.55.102,kallum_motion_pilot,2023.2.2,Win32,20,6122a9e94ab256ca93f1dd37,65d6bb0e977760de756971f7,65d6c173972c1d2144b7f57e,0.028,0.028,1,12,174,91,1,sixeight,,,,,,,,,,,,,,,,,,,,,,,,,,,,,,,,,,,,,,,,,,,,,,,,,,,,,,,,,,,,,,,,,,,,,,,,,,,,,,,,,,,,,,,,,,,,,,,,,,,,,,,,,,,,,,,,,,,,,,,,,,,,,,,,,,,,,,,,,
,,6122a9e94ab256ca93f1dd37,2024-02-22_03h37.55.102,kallum_motion_pilot,2023.2.2,Win32,20,6122a9e94ab256ca93f1dd37,65d6bb0e977760de756971f7,65d6c173972c1d2144b7f57e,0.028,0.028,1,13,175,124,1,sevenfive,,,,,,,,,,,,,,,,,,,,,,,,,,,,,,,,,,,,,,,,,,,,,,,,,,,,,,,,,,,,,,,,,,,,,,,,,,,,,,,,,,,,,,,,,,,,,,,,,,,,,,,,,,,,,,,,,,,,,,,,,,,,,,,,,,,,,,,,,
,,6122a9e94ab256ca93f1dd37,2024-02-22_03h37.55.102,kallum_motion_pilot,2023.2.2,Win32,20,6122a9e94ab256ca93f1dd37,65d6bb0e977760de756971f7,65d6c173972c1d2144b7f57e,0.028,0.028,1,14,176,88,1,fivesix,,,,,,,,,,,,,,,,,,,,,,,,,,,,,,,,,,,,,,,,,,,,,,,,,,,,,,,,,,,,,,,,,,,,,,,,,,,,,,,,,,,,,,,,,,,,,,,,,,,,,,,,,,,,,,,,,,,,,,,,,,,,,,,,,,,,,,,,,
,,6122a9e94ab256ca93f1dd37,2024-02-22_03h37.55.102,kallum_motion_pilot,2023.2.2,Win32,20,6122a9e94ab256ca93f1dd37,65d6bb0e977760de756971f7,65d6c173972c1d2144b7f57e,0.028,0.028,1,15,177,133,1,seveneight,,,,,,,,,,,,,,,,,,,,,,,,,,,,,,,,,,,,,,,,,,,,,,,,,,,,,,,,,,,,,,,,,,,,,,,,,,,,,,,,,,,,,,,,,,,,,,,,,,,,,,,,,,,,,,,,,,,,,,,,,,,,,,,,,,,,,,,,,
,,6122a9e94ab256ca93f1dd37,2024-02-22_03h37.55.102,kallum_motion_pilot,2023.2.2,Win32,20,6122a9e94ab256ca93f1dd37,65d6bb0e977760de756971f7,65d6c173972c1d2144b7f57e,0.028,0.028,1,16,178,92,1,sevenfive,,,,,,,,,,,,,,,,,,,,,,,,,,,,,,,,,,,,,,,,,,,,,,,,,,,,,,,,,,,,,,,,,,,,,,,,,,,,,,,,,,,,,,,,,,,,,,,,,,,,,,,,,,,,,,,,,,,,,,,,,,,,,,,,,,,,,,,,,
,,6122a9e94ab256ca93f1dd37,2024-02-22_03h37.55.102,kallum_motion_pilot,2023.2.2,Win32,20,6122a9e94ab256ca93f1dd37,65d6bb0e977760de756971f7,65d6c173972c1d2144b7f57e,0.029,0.029,1,17,179,151,1,eightseven,,,,,,,,,,,,,,,,,,,,,,,,,,,,,,,,,,,,,,,,,,,,,,,,,,,,,,,,,,,,,,,,,,,,,,,,,,,,,,,,,,,,,,,,,,,,,,,,,,,,,,,,,,,,,,,,,,,,,,,,,,,,,,,,,,,,,,,,,
,,6122a9e94ab256ca93f1dd37,2024-02-22_03h37.55.102,kallum_motion_pilot,2023.2.2,Win32,20,6122a9e94ab256ca93f1dd37,65d6bb0e977760de756971f7,65d6c173972c1d2144b7f57e,0.029,0.029,1,18,180,7,1,fourthree,,,,,,,,,,,,,,,,,,,,,,,,,,,,,,,,,,,,,,,,,,,,,,,,,,,,,,,,,,,,,,,,,,,,,,,,,,,,,,,,,,,,,,,,,,,,,,,,,,,,,,,,,,,,,,,,,,,,,,,,,,,,,,,,,,,,,,,,,
,,6122a9e94ab256ca93f1dd37,2024-02-22_03h37.55.102,kallum_motion_pilot,2023.2.2,Win32,20,6122a9e94ab256ca93f1dd37,65d6bb0e977760de756971f7,65d6c173972c1d2144b7f57e,0.029,0.029,1,19,181,115,1,sixeight,,,,,,,,,,,,,,,,,,,,,,,,,,,,,,,,,,,,,,,,,,,,,,,,,,,,,,,,,,,,,,,,,,,,,,,,,,,,,,,,,,,,,,,,,,,,,,,,,,,,,,,,,,,,,,,,,,,,,,,,,,,,,,,,,,,,,,,,,
,,6122a9e94ab256ca93f1dd37,2024-02-22_03h37.55.102,kallum_motion_pilot,2023.2.2,Win32,20,6122a9e94ab256ca93f1dd37,65d6bb0e977760de756971f7,65d6c173972c1d2144b7f57e,0.029,0.029,1,20,182,55,1,fourthree,,,,,,,,,,,,,,,,,,,,,,,,,,,,,,,,,,,,,,,,,,,,,,,,,,,,,,,,,,,,,,,,,,,,,,,,,,,,,,,,,,,,,,,,,,,,,,,,,,,,,,,,,,,,,,,,,,,,,,,,,,,,,,,,,,,,,,,,,
,,6122a9e94ab256ca93f1dd37,2024-02-22_03h37.55.102,kallum_motion_pilot,2023.2.2,Win32,20,6122a9e94ab256ca93f1dd37,65d6bb0e977760de756971f7,65d6c173972c1d2144b7f57e,0.029,0.029,1,21,183,119,1,eightseven,,,,,,,,,,,,,,,,,,,,,,,,,,,,,,,,,,,,,,,,,,,,,,,,,,,,,,,,,,,,,,,,,,,,,,,,,,,,,,,,,,,,,,,,,,,,,,,,,,,,,,,,,,,,,,,,,,,,,,,,,,,,,,,,,,,,,,,,,
,,6122a9e94ab256ca93f1dd37,2024-02-22_03h37.55.102,kallum_motion_pilot,2023.2.2,Win32,20,6122a9e94ab256ca93f1dd37,65d6bb0e977760de756971f7,65d6c173972c1d2144b7f57e,0.029,0.029,1,22,184,62,1,fourtwo,,,,,,,,,,,,,,,,,,,,,,,,,,,,,,,,,,,,,,,,,,,,,,,,,,,,,,,,,,,,,,,,,,,,,,,,,,,,,,,,,,,,,,,,,,,,,,,,,,,,,,,,,,,,,,,,,,,,,,,,,,,,,,,,,,,,,,,,,
,,6122a9e94ab256ca93f1dd37,2024-02-22_03h37.55.102,kallum_motion_pilot,2023.2.2,Win32,20,6122a9e94ab256ca93f1dd37,65d6bb0e977760de756971f7,65d6c173972c1d2144b7f57e,0.03,0.03,1,23,185,24,1,onetwo,,,,,,,,,,,,,,,,,,,,,,,,,,,,,,,,,,,,,,,,,,,,,,,,,,,,,,,,,,,,,,,,,,,,,,,,,,,,,,,,,,,,,,,,,,,,,,,,,,,,,,,,,,,,,,,,,,,,,,,,,,,,,,,,,,,,,,,,,
,,6122a9e94ab256ca93f1dd37,2024-02-22_03h37.55.102,kallum_motion_pilot,2023.2.2,Win32,20,6122a9e94ab256ca93f1dd37,65d6bb0e977760de756971f7,65d6c173972c1d2144b7f57e,0.03,0.03,1,24,186,94,1,eightsix,,,,,,,,,,,,,,,,,,,,,,,,,,,,,,,,,,,,,,,,,,,,,,,,,,,,,,,,,,,,,,,,,,,,,,,,,,,,,,,,,,,,,,,,,,,,,,,,,,,,,,,,,,,,,,,,,,,,,,,,,,,,,,,,,,,,,,,,,
,,6122a9e94ab256ca93f1dd37,2024-02-22_03h37.55.102,kallum_motion_pilot,2023.2.2,Win32,20,6122a9e94ab256ca93f1dd37,65d6bb0e977760de756971f7,65d6c173972c1d2144b7f57e,0.03,0.03,1,25,187,81,1,fiveseven,,,,,,,,,,,,,,,,,,,,,,,,,,,,,,,,,,,,,,,,,,,,,,,,,,,,,,,,,,,,,,,,,,,,,,,,,,,,,,,,,,,,,,,,,,,,,,,,,,,,,,,,,,,,,,,,,,,,,,,,,,,,,,,,,,,,,,,,,
,,6122a9e94ab256ca93f1dd37,2024-02-22_03h37.55.102,kallum_motion_pilot,2023.2.2,Win32,20,6122a9e94ab256ca93f1dd37,65d6bb0e977760de756971f7,65d6c173972c1d2144b7f57e,0.03,0.03,1,26,188,53,1,threefour,,,,,,,,,,,,,,,,,,,,,,,,,,,,,,,,,,,,,,,,,,,,,,,,,,,,,,,,,,,,,,,,,,,,,,,,,,,,,,,,,,,,,,,,,,,,,,,,,,,,,,,,,,,,,,,,,,,,,,,,,,,,,,,,,,,,,,,,,
,,6122a9e94ab256ca93f1dd37,2024-02-22_03h37.55.102,kallum_motion_pilot,2023.2.2,Win32,20,6122a9e94ab256ca93f1dd37,65d6bb0e977760de756971f7,65d6c173972c1d2144b7f57e,0.03,0.03,1,27,189,136,1,fivesix,,,,,,,,,,,,,,,,,,,,,,,,,,,,,,,,,,,,,,,,,,,,,,,,,,,,,,,,,,,,,,,,,,,,,,,,,,,,,,,,,,,,,,,,,,,,,,,,,,,,,,,,,,,,,,,,,,,,,,,,,,,,,,,,,,,,,,,,,
,,6122a9e94ab256ca93f1dd37,2024-02-22_03h37.55.102,kallum_motion_pilot,2023.2.2,Win32,20,6122a9e94ab256ca93f1dd37,65d6bb0e977760de756971f7,65d6c173972c1d2144b7f57e,0.03,0.03,1,28,190,100,1,sevenfive,,,,,,,,,,,,,,,,,,,,,,,,,,,,,,,,,,,,,,,,,,,,,,,,,,,,,,,,,,,,,,,,,,,,,,,,,,,,,,,,,,,,,,,,,,,,,,,,,,,,,,,,,,,,,,,,,,,,,,,,,,,,,,,,,,,,,,,,,
,,6122a9e94ab256ca93f1dd37,2024-02-22_03h37.55.102,kallum_motion_pilot,2023.2.2,Win32,20,6122a9e94ab256ca93f1dd37,65d6bb0e977760de756971f7,65d6c173972c1d2144b7f57e,0.03,0.03,1,29,191,74,1,twoone,,,,,,,,,,,,,,,,,,,,,,,,,,,,,,,,,,,,,,,,,,,,,,,,,,,,,,,,,,,,,,,,,,,,,,,,,,,,,,,,,,,,,,,,,,,,,,,,,,,,,,,,,,,,,,,,,,,,,,,,,,,,,,,,,,,,,,,,,
,,6122a9e94ab256ca93f1dd37,2024-02-22_03h37.55.102,kallum_motion_pilot,2023.2.2,Win32,20,6122a9e94ab256ca93f1dd37,65d6bb0e977760de756971f7,65d6c173972c1d2144b7f57e,0.03,0.031,1,30,192,1,1,onethree,,,,,,,,,,,,,,,,,,,,,,,,,,,,,,,,,,,,,,,,,,,,,,,,,,,,,,,,,,,,,,,,,,,,,,,,,,,,,,,,,,,,,,,,,,,,,,,,,,,,,,,,,,,,,,,,,,,,,,,,,,,,,,,,,,,,,,,,,
,,6122a9e94ab256ca93f1dd37,2024-02-22_03h37.55.102,kallum_motion_pilot,2023.2.2,Win32,20,6122a9e94ab256ca93f1dd37,65d6bb0e977760de756971f7,65d6c173972c1d2144b7f57e,0.031,0.031,1,31,193,83,1,sixeight,,,,,,,,,,,,,,,,,,,,,,,,,,,,,,,,,,,,,,,,,,,,,,,,,,,,,,,,,,,,,,,,,,,,,,,,,,,,,,,,,,,,,,,,,,,,,,,,,,,,,,,,,,,,,,,,,,,,,,,,,,,,,,,,,,,,,,,,,
,,6122a9e94ab256ca93f1dd37,2024-02-22_03h37.55.102,kallum_motion_pilot,2023.2.2,Win32,20,6122a9e94ab256ca93f1dd37,65d6bb0e977760de756971f7,65d6c173972c1d2144b7f57e,0.031,0.031,1,32,194,111,1,eightseven,,,,,,,,,,,,,,,,,,,,,,,,,,,,,,,,,,,,,,,,,,,,,,,,,,,,,,,,,,,,,,,,,,,,,,,,,,,,,,,,,,,,,,,,,,,,,,,,,,,,,,,,,,,,,,,,,,,,,,,,,,,,,,,,,,,,,,,,,
,,6122a9e94ab256ca93f1dd37,2024-02-22_03h37.55.102,kallum_motion_pilot,2023.2.2,Win32,20,6122a9e94ab256ca93f1dd37,65d6bb0e977760de756971f7,65d6c173972c1d2144b7f57e,0.031,0.031,1,33,195,87,1,eightseven,,,,,,,,,,,,,,,,,,,,,,,,,,,,,,,,,,,,,,,,,,,,,,,,,,,,,,,,,,,,,,,,,,,,,,,,,,,,,,,,,,,,,,,,,,,,,,,,,,,,,,,,,,,,,,,,,,,,,,,,,,,,,,,,,,,,,,,,,
,,6122a9e94ab256ca93f1dd37,2024-02-22_03h37.55.102,kallum_motion_pilot,2023.2.2,Win32,20,6122a9e94ab256ca93f1dd37,65d6bb0e977760de756971f7,65d6c173972c1d2144b7f57e,0.031,0.031,1,34,196,89,1,fiveseven,,,,,,,,,,,,,,,,,,,,,,,,,,,,,,,,,,,,,,,,,,,,,,,,,,,,,,,,,,,,,,,,,,,,,,,,,,,,,,,,,,,,,,,,,,,,,,,,,,,,,,,,,,,,,,,,,,,,,,,,,,,,,,,,,,,,,,,,,
,,6122a9e94ab256ca93f1dd37,2024-02-22_03h37.55.102,kallum_motion_pilot,2023.2.2,Win32,20,6122a9e94ab256ca93f1dd37,65d6bb0e977760de756971f7,65d6c173972c1d2144b7f57e,0.031,0.031,1,35,197,139,1,sixeight,,,,,,,,,,,,,,,,,,,,,,,,,,,,,,,,,,,,,,,,,,,,,,,,,,,,,,,,,,,,,,,,,,,,,,,,,,,,,,,,,,,,,,,,,,,,,,,,,,,,,,,,,,,,,,,,,,,,,,,,,,,,,,,,,,,,,,,,,
,,6122a9e94ab256ca93f1dd37,2024-02-22_03h37.55.102,kallum_motion_pilot,2023.2.2,Win32,20,6122a9e94ab256ca93f1dd37,65d6bb0e977760de756971f7,65d6c173972c1d2144b7f57e,0.031,0.031,1,36,198,27,1,twofour,,,,,,,,,,,,,,,,,,,,,,,,,,,,,,,,,,,,,,,,,,,,,,,,,,,,,,,,,,,,,,,,,,,,,,,,,,,,,,,,,,,,,,,,,,,,,,,,,,,,,,,,,,,,,,,,,,,,,,,,,,,,,,,,,,,,,,,,,
,,6122a9e94ab256ca93f1dd37,2024-02-22_03h37.55.102,kallum_motion_pilot,2023.2.2,Win32,20,6122a9e94ab256ca93f1dd37,65d6bb0e977760de756971f7,65d6c173972c1d2144b7f57e,0.031,0.031,1,37,199,116,1,sevenfive,,,,,,,,,,,,,,,,,,,,,,,,,,,,,,,,,,,,,,,,,,,,,,,,,,,,,,,,,,,,,,,,,,,,,,,,,,,,,,,,,,,,,,,,,,,,,,,,,,,,,,,,,,,,,,,,,,,,,,,,,,,,,,,,,,,,,,,,,
,,6122a9e94ab256ca93f1dd37,2024-02-22_03h37.55.102,kallum_motion_pilot,2023.2.2,Win32,20,6122a9e94ab256ca93f1dd37,65d6bb0e977760de756971f7,65d6c173972c1d2144b7f57e,0.031,0.031,1,38,200,134,1,eightsix,,,,,,,,,,,,,,,,,,,,,,,,,,,,,,,,,,,,,,,,,,,,,,,,,,,,,,,,,,,,,,,,,,,,,,,,,,,,,,,,,,,,,,,,,,,,,,,,,,,,,,,,,,,,,,,,,,,,,,,,,,,,,,,,,,,,,,,,,
,,6122a9e94ab256ca93f1dd37,2024-02-22_03h37.55.102,kallum_motion_pilot,2023.2.2,Win32,20,6122a9e94ab256ca93f1dd37,65d6bb0e977760de756971f7,65d6c173972c1d2144b7f57e,0.031,0.031,1,39,201,79,1,eightseven,,,,,,,,,,,,,,,,,,,,,,,,,,,,,,,,,,,,,,,,,,,,,,,,,,,,,,,,,,,,,,,,,,,,,,,,,,,,,,,,,,,,,,,,,,,,,,,,,,,,,,,,,,,,,,,,,,,,,,,,,,,,,,,,,,,,,,,,,
,,6122a9e94ab256ca93f1dd37,2024-02-22_03h37.55.102,kallum_motion_pilot,2023.2.2,Win32,20,6122a9e94ab256ca93f1dd37,65d6bb0e977760de756971f7,65d6c173972c1d2144b7f57e,0.031,0.031,1,40,202,108,1,sevenfive,,,,,,,,,,,,,,,,,,,,,,,,,,,,,,,,,,,,,,,,,,,,,,,,,,,,,,,,,,,,,,,,,,,,,,,,,,,,,,,,,,,,,,,,,,,,,,,,,,,,,,,,,,,,,,,,,,,,,,,,,,,,,,,,,,,,,,,,,
,,6122a9e94ab256ca93f1dd37,2024-02-22_03h37.55.102,kallum_motion_pilot,2023.2.2,Win32,20,6122a9e94ab256ca93f1dd37,65d6bb0e977760de756971f7,65d6c173972c1d2144b7f57e,0.031,0.031,1,41,203,126,1,eightsix,,,,,,,,,,,,,,,,,,,,,,,,,,,,,,,,,,,,,,,,,,,,,,,,,,,,,,,,,,,,,,,,,,,,,,,,,,,,,,,,,,,,,,,,,,,,,,,,,,,,,,,,,,,,,,,,,,,,,,,,,,,,,,,,,,,,,,,,,
,,6122a9e94ab256ca93f1dd37,2024-02-22_03h37.55.102,kallum_motion_pilot,2023.2.2,Win32,20,6122a9e94ab256ca93f1dd37,65d6bb0e977760de756971f7,65d6c173972c1d2144b7f57e,0.031,0.031,1,42,204,3,1,twofour,,,,,,,,,,,,,,,,,,,,,,,,,,,,,,,,,,,,,,,,,,,,,,,,,,,,,,,,,,,,,,,,,,,,,,,,,,,,,,,,,,,,,,,,,,,,,,,,,,,,,,,,,,,,,,,,,,,,,,,,,,,,,,,,,,,,,,,,,
,,6122a9e94ab256ca93f1dd37,2024-02-22_03h37.55.102,kallum_motion_pilot,2023.2.2,Win32,20,6122a9e94ab256ca93f1dd37,65d6bb0e977760de756971f7,65d6c173972c1d2144b7f57e,0.032,0.032,1,43,205,157,1,seveneight,,,,,,,,,,,,,,,,,,,,,,,,,,,,,,,,,,,,,,,,,,,,,,,,,,,,,,,,,,,,,,,,,,,,,,,,,,,,,,,,,,,,,,,,,,,,,,,,,,,,,,,,,,,,,,,,,,,,,,,,,,,,,,,,,,,,,,,,,
,,6122a9e94ab256ca93f1dd37,2024-02-22_03h37.55.102,kallum_motion_pilot,2023.2.2,Win32,20,6122a9e94ab256ca93f1dd37,65d6bb0e977760de756971f7,65d6c173972c1d2144b7f57e,0.032,0.032,1,44,206,66,1,twoone,,,,,,,,,,,,,,,,,,,,,,,,,,,,,,,,,,,,,,,,,,,,,,,,,,,,,,,,,,,,,,,,,,,,,,,,,,,,,,,,,,,,,,,,,,,,,,,,,,,,,,,,,,,,,,,,,,,,,,,,,,,,,,,,,,,,,,,,,
,,6122a9e94ab256ca93f1dd37,2024-02-22_03h37.55.102,kallum_motion_pilot,2023.2.2,Win32,20,6122a9e94ab256ca93f1dd37,65d6bb0e977760de756971f7,65d6c173972c1d2144b7f57e,0.032,0.032,1,45,207,30,1,fourtwo,,,,,,,,,,,,,,,,,,,,,,,,,,,,,,,,,,,,,,,,,,,,,,,,,,,,,,,,,,,,,,,,,,,,,,,,,,,,,,,,,,,,,,,,,,,,,,,,,,,,,,,,,,,,,,,,,,,,,,,,,,,,,,,,,,,,,,,,,
,,6122a9e94ab256ca93f1dd37,2024-02-22_03h37.55.102,kallum_motion_pilot,2023.2.2,Win32,20,6122a9e94ab256ca93f1dd37,65d6bb0e977760de756971f7,65d6c173972c1d2144b7f57e,0.033,0.033,1,46,208,6,1,fourtwo,,,,,,,,,,,,,,,,,,,,,,,,,,,,,,,,,,,,,,,,,,,,,,,,,,,,,,,,,,,,,,,,,,,,,,,,,,,,,,,,,,,,,,,,,,,,,,,,,,,,,,,,,,,,,,,,,,,,,,,,,,,,,,,,,,,,,,,,,
,,6122a9e94ab256ca93f1dd37,2024-02-22_03h37.55.102,kallum_motion_pilot,2023.2.2,Win32,20,6122a9e94ab256ca93f1dd37,65d6bb0e977760de756971f7,65d6c173972c1d2144b7f57e,0.033,0.033,1,47,209,161,1,fiveseven,,,,,,,,,,,,,,,,,,,,,,,,,,,,,,,,,,,,,,,,,,,,,,,,,,,,,,,,,,,,,,,,,,,,,,,,,,,,,,,,,,,,,,,,,,,,,,,,,,,,,,,,,,,,,,,,,,,,,,,,,,,,,,,,,,,,,,,,,
,,6122a9e94ab256ca93f1dd37,2024-02-22_03h37.55.102,kallum_motion_pilot,2023.2.2,Win32,20,6122a9e94ab256ca93f1dd37,65d6bb0e977760de756971f7,65d6c173972c1d2144b7f57e,0.033,0.033,1,48,210,0,1,onetwo,,,,,,,,,,,,,,,,,,,,,,,,,,,,,,,,,,,,,,,,,,,,,,,,,,,,,,,,,,,,,,,,,,,,,,,,,,,,,,,,,,,,,,,,,,,,,,,,,,,,,,,,,,,,,,,,,,,,,,,,,,,,,,,,,,,,,,,,,
,,6122a9e94ab256ca93f1dd37,2024-02-22_03h37.55.102,kallum_motion_pilot,2023.2.2,Win32,20,6122a9e94ab256ca93f1dd37,65d6bb0e977760de756971f7,65d6c173972c1d2144b7f57e,0.033,0.033,1,49,211,32,1,onetwo,,,,,,,,,,,,,,,,,,,,,,,,,,,,,,,,,,,,,,,,,,,,,,,,,,,,,,,,,,,,,,,,,,,,,,,,,,,,,,,,,,,,,,,,,,,,,,,,,,,,,,,,,,,,,,,,,,,,,,,,,,,,,,,,,,,,,,,,,
,,6122a9e94ab256ca93f1dd37,2024-02-22_03h37.55.102,kallum_motion_pilot,2023.2.2,Win32,20,6122a9e94ab256ca93f1dd37,65d6bb0e977760de756971f7,65d6c173972c1d2144b7f57e,0.033,0.033,1,50,212,8,1,onetwo,,,,,,,,,,,,,,,,,,,,,,,,,,,,,,,,,,,,,,,,,,,,,,,,,,,,,,,,,,,,,,,,,,,,,,,,,,,,,,,,,,,,,,,,,,,,,,,,,,,,,,,,,,,,,,,,,,,,,,,,,,,,,,,,,,,,,,,,,
,,6122a9e94ab256ca93f1dd37,2024-02-22_03h37.55.102,kallum_motion_pilot,2023.2.2,Win32,20,6122a9e94ab256ca93f1dd37,65d6bb0e977760de756971f7,65d6c173972c1d2144b7f57e,0.033,0.033,1,51,213,128,1,fivesix,,,,,,,,,,,,,,,,,,,,,,,,,,,,,,,,,,,,,,,,,,,,,,,,,,,,,,,,,,,,,,,,,,,,,,,,,,,,,,,,,,,,,,,,,,,,,,,,,,,,,,,,,,,,,,,,,,,,,,,,,,,,,,,,,,,,,,,,,
,,6122a9e94ab256ca93f1dd37,2024-02-22_03h37.55.102,kallum_motion_pilot,2023.2.2,Win32,20,6122a9e94ab256ca93f1dd37,65d6bb0e977760de756971f7,65d6c173972c1d2144b7f57e,0.033,0.033,1,52,214,72,1,onetwo,,,,,,,,,,,,,,,,,,,,,,,,,,,,,,,,,,,,,,,,,,,,,,,,,,,,,,,,,,,,,,,,,,,,,,,,,,,,,,,,,,,,,,,,,,,,,,,,,,,,,,,,,,,,,,,,,,,,,,,,,,,,,,,,,,,,,,,,,
,,6122a9e94ab256ca93f1dd37,2024-02-22_03h37.55.102,kallum_motion_pilot,2023.2.2,Win32,20,6122a9e94ab256ca93f1dd37,65d6bb0e977760de756971f7,65d6c173972c1d2144b7f57e,0.033,0.033,1,53,215,33,1,onethree,,,,,,,,,,,,,,,,,,,,,,,,,,,,,,,,,,,,,,,,,,,,,,,,,,,,,,,,,,,,,,,,,,,,,,,,,,,,,,,,,,,,,,,,,,,,,,,,,,,,,,,,,,,,,,,,,,,,,,,,,,,,,,,,,,,,,,,,,
,,6122a9e94ab256ca93f1dd37,2024-02-22_03h37.55.102,kallum_motion_pilot,2023.2.2,Win32,20,6122a9e94ab256ca93f1dd37,65d6bb0e977760de756971f7,65d6c173972c1d2144b7f57e,0.033,0.033,1,54,216,57,1,onethree,,,,,,,,,,,,,,,,,,,,,,,,,,,,,,,,,,,,,,,,,,,,,,,,,,,,,,,,,,,,,,,,,,,,,,,,,,,,,,,,,,,,,,,,,,,,,,,,,,,,,,,,,,,,,,,,,,,,,,,,,,,,,,,,,,,,,,,,,
,,6122a9e94ab256ca93f1dd37,2024-02-22_03h37.55.102,kallum_motion_pilot,2023.2.2,Win32,20,6122a9e94ab256ca93f1dd37,65d6bb0e977760de756971f7,65d6c173972c1d2144b7f57e,0.033,0.033,1,55,217,101,1,seveneight,,,,,,,,,,,,,,,,,,,,,,,,,,,,,,,,,,,,,,,,,,,,,,,,,,,,,,,,,,,,,,,,,,,,,,,,,,,,,,,,,,,,,,,,,,,,,,,,,,,,,,,,,,,,,,,,,,,,,,,,,,,,,,,,,,,,,,,,,
,,6122a9e94ab256ca93f1dd37,2024-02-22_03h37.55.102,kallum_motion_pilot,2023.2.2,Win32,20,6122a9e94ab256ca93f1dd37,65d6bb0e977760de756971f7,65d6c173972c1d2144b7f57e,0.033,0.033,1,56,218,2,1,twoone,,,,,,,,,,,,,,,,,,,,,,,,,,,,,,,,,,,,,,,,,,,,,,,,,,,,,,,,,,,,,,,,,,,,,,,,,,,,,,,,,,,,,,,,,,,,,,,,,,,,,,,,,,,,,,,,,,,,,,,,,,,,,,,,,,,,,,,,,
,,6122a9e94ab256ca93f1dd37,2024-02-22_03h37.55.102,kallum_motion_pilot,2023.2.2,Win32,20,6122a9e94ab256ca93f1dd37,65d6bb0e977760de756971f7,65d6c173972c1d2144b7f57e,0.033,0.033,1,57,219,60,1,threeone,,,,,,,,,,,,,,,,,,,,,,,,,,,,,,,,,,,,,,,,,,,,,,,,,,,,,,,,,,,,,,,,,,,,,,,,,,,,,,,,,,,,,,,,,,,,,,,,,,,,,,,,,,,,,,,,,,,,,,,,,,,,,,,,,,,,,,,,,
,,6122a9e94ab256ca93f1dd37,2024-02-22_03h37.55.102,kallum_motion_pilot,2023.2.2,Win32,20,6122a9e94ab256ca93f1dd37,65d6bb0e977760de756971f7,65d6c173972c1d2144b7f57e,0.033,0.033,1,58,220,19,1,twofour,,,,,,,,,,,,,,,,,,,,,,,,,,,,,,,,,,,,,,,,,,,,,,,,,,,,,,,,,,,,,,,,,,,,,,,,,,,,,,,,,,,,,,,,,,,,,,,,,,,,,,,,,,,,,,,,,,,,,,,,,,,,,,,,,,,,,,,,,
,,6122a9e94ab256ca93f1dd37,2024-02-22_03h37.55.102,kallum_motion_pilot,2023.2.2,Win32,20,6122a9e94ab256ca93f1dd37,65d6bb0e977760de756971f7,65d6c173972c1d2144b7f57e,0.033,0.033,1,59,221,39,1,fourthree,,,,,,,,,,,,,,,,,,,,,,,,,,,,,,,,,,,,,,,,,,,,,,,,,,,,,,,,,,,,,,,,,,,,,,,,,,,,,,,,,,,,,,,,,,,,,,,,,,,,,,,,,,,,,,,,,,,,,,,,,,,,,,,,,,,,,,,,,
,,6122a9e94ab256ca93f1dd37,2024-02-22_03h37.55.102,kallum_motion_pilot,2023.2.2,Win32,20,6122a9e94ab256ca93f1dd37,65d6bb0e977760de756971f7,65d6c173972c1d2144b7f57e,0.033,0.034,1,60,222,142,1,eightsix,,,,,,,,,,,,,,,,,,,,,,,,,,,,,,,,,,,,,,,,,,,,,,,,,,,,,,,,,,,,,,,,,,,,,,,,,,,,,,,,,,,,,,,,,,,,,,,,,,,,,,,,,,,,,,,,,,,,,,,,,,,,,,,,,,,,,,,,,
,,6122a9e94ab256ca93f1dd37,2024-02-22_03h37.55.102,kallum_motion_pilot,2023.2.2,Win32,20,6122a9e94ab256ca93f1dd37,65d6bb0e977760de756971f7,65d6c173972c1d2144b7f57e,0.034,0.034,1,61,223,105,1,fiveseven,,,,,,,,,,,,,,,,,,,,,,,,,,,,,,,,,,,,,,,,,,,,,,,,,,,,,,,,,,,,,,,,,,,,,,,,,,,,,,,,,,,,,,,,,,,,,,,,,,,,,,,,,,,,,,,,,,,,,,,,,,,,,,,,,,,,,,,,,
,,6122a9e94ab256ca93f1dd37,2024-02-22_03h37.55.102,kallum_motion_pilot,2023.2.2,Win32,20,6122a9e94ab256ca93f1dd37,65d6bb0e977760de756971f7,65d6c173972c1d2144b7f57e,0.034,0.034,1,62,224,42,1,twoone,,,,,,,,,,,,,,,,,,,,,,,,,,,,,,,,,,,,,,,,,,,,,,,,,,,,,,,,,,,,,,,,,,,,,,,,,,,,,,,,,,,,,,,,,,,,,,,,,,,,,,,,,,,,,,,,,,,,,,,,,,,,,,,,,,,,,,,,,
,,6122a9e94ab256ca93f1dd37,2024-02-22_03h37.55.102,kallum_motion_pilot,2023.2.2,Win32,20,6122a9e94ab256ca93f1dd37,65d6bb0e977760de756971f7,65d6c173972c1d2144b7f57e,0.034,0.034,1,63,225,150,1,eightsix,,,,,,,,,,,,,,,,,,,,,,,,,,,,,,,,,,,,,,,,,,,,,,,,,,,,,,,,,,,,,,,,,,,,,,,,,,,,,,,,,,,,,,,,,,,,,,,,,,,,,,,,,,,,,,,,,,,,,,,,,,,,,,,,,,,,,,,,,
,,6122a9e94ab256ca93f1dd37,2024-02-22_03h37.55.102,kallum_motion_pilot,2023.2.2,Win32,20,6122a9e94ab256ca93f1dd37,65d6bb0e977760de756971f7,65d6c173972c1d2144b7f57e,0.034,0.034,1,64,226,9,1,onethree,,,,,,,,,,,,,,,,,,,,,,,,,,,,,,,,,,,,,,,,,,,,,,,,,,,,,,,,,,,,,,,,,,,,,,,,,,,,,,,,,,,,,,,,,,,,,,,,,,,,,,,,,,,,,,,,,,,,,,,,,,,,,,,,,,,,,,,,,
,,6122a9e94ab256ca93f1dd37,2024-02-22_03h37.55.102,kallum_motion_pilot,2023.2.2,Win32,20,6122a9e94ab256ca93f1dd37,65d6bb0e977760de756971f7,65d6c173972c1d2144b7f57e,0.034,0.034,1,65,227,135,1,eightseven,,,,,,,,,,,,,,,,,,,,,,,,,,,,,,,,,,,,,,,,,,,,,,,,,,,,,,,,,,,,,,,,,,,,,,,,,,,,,,,,,,,,,,,,,,,,,,,,,,,,,,,,,,,,,,,,,,,,,,,,,,,,,,,,,,,,,,,,,
,,6122a9e94ab256ca93f1dd37,2024-02-22_03h37.55.102,kallum_motion_pilot,2023.2.2,Win32,20,6122a9e94ab256ca93f1dd37,65d6bb0e977760de756971f7,65d6c173972c1d2144b7f57e,0.034,0.034,1,66,228,149,1,seveneight,,,,,,,,,,,,,,,,,,,,,,,,,,,,,,,,,,,,,,,,,,,,,,,,,,,,,,,,,,,,,,,,,,,,,,,,,,,,,,,,,,,,,,,,,,,,,,,,,,,,,,,,,,,,,,,,,,,,,,,,,,,,,,,,,,,,,,,,,
,,6122a9e94ab256ca93f1dd37,2024-02-22_03h37.55.102,kallum_motion_pilot,2023.2.2,Win32,20,6122a9e94ab256ca93f1dd37,65d6bb0e977760de756971f7,65d6c173972c1d2144b7f57e,0.034,0.034,1,67,229,67,1,twofour,,,,,,,,,,,,,,,,,,,,,,,,,,,,,,,,,,,,,,,,,,,,,,,,,,,,,,,,,,,,,,,,,,,,,,,,,,,,,,,,,,,,,,,,,,,,,,,,,,,,,,,,,,,,,,,,,,,,,,,,,,,,,,,,,,,,,,,,,
,,6122a9e94ab256ca93f1dd37,2024-02-22_03h37.55.102,kallum_motion_pilot,2023.2.2,Win32,20,6122a9e94ab256ca93f1dd37,65d6bb0e977760de756971f7,65d6c173972c1d2144b7f57e,0.034,0.034,1,68,230,141,1,seveneight,,,,,,,,,,,,,,,,,,,,,,,,,,,,,,,,,,,,,,,,,,,,,,,,,,,,,,,,,,,,,,,,,,,,,,,,,,,,,,,,,,,,,,,,,,,,,,,,,,,,,,,,,,,,,,,,,,,,,,,,,,,,,,,,,,,,,,,,,
,,6122a9e94ab256ca93f1dd37,2024-02-22_03h37.55.102,kallum_motion_pilot,2023.2.2,Win32,20,6122a9e94ab256ca93f1dd37,65d6bb0e977760de756971f7,65d6c173972c1d2144b7f57e,0.034,0.034,1,69,231,64,1,onetwo,,,,,,,,,,,,,,,,,,,,,,,,,,,,,,,,,,,,,,,,,,,,,,,,,,,,,,,,,,,,,,,,,,,,,,,,,,,,,,,,,,,,,,,,,,,,,,,,,,,,,,,,,,,,,,,,,,,,,,,,,,,,,,,,,,,,,,,,,
,,6122a9e94ab256ca93f1dd37,2024-02-22_03h37.55.102,kallum_motion_pilot,2023.2.2,Win32,20,6122a9e94ab256ca93f1dd37,65d6bb0e977760de756971f7,65d6c173972c1d2144b7f57e,0.034,0.034,1,70,232,44,1,threeone,,,,,,,,,,,,,,,,,,,,,,,,,,,,,,,,,,,,,,,,,,,,,,,,,,,,,,,,,,,,,,,,,,,,,,,,,,,,,,,,,,,,,,,,,,,,,,,,,,,,,,,,,,,,,,,,,,,,,,,,,,,,,,,,,,,,,,,,,
,,6122a9e94ab256ca93f1dd37,2024-02-22_03h37.55.102,kallum_motion_pilot,2023.2.2,Win32,20,6122a9e94ab256ca93f1dd37,65d6bb0e977760de756971f7,65d6c173972c1d2144b7f57e,0.034,0.034,1,71,233,148,1,sevenfive,,,,,,,,,,,,,,,,,,,,,,,,,,,,,,,,,,,,,,,,,,,,,,,,,,,,,,,,,,,,,,,,,,,,,,,,,,,,,,,,,,,,,,,,,,,,,,,,,,,,,,,,,,,,,,,,,,,,,,,,,,,,,,,,,,,,,,,,,
,,6122a9e94ab256ca93f1dd37,2024-02-22_03h37.55.102,kallum_motion_pilot,2023.2.2,Win32,20,6122a9e94ab256ca93f1dd37,65d6bb0e977760de756971f7,65d6c173972c1d2144b7f57e,0.034,0.034,1,72,234,140,1,sevenfive,,,,,,,,,,,,,,,,,,,,,,,,,,,,,,,,,,,,,,,,,,,,,,,,,,,,,,,,,,,,,,,,,,,,,,,,,,,,,,,,,,,,,,,,,,,,,,,,,,,,,,,,,,,,,,,,,,,,,,,,,,,,,,,,,,,,,,,,,
,,6122a9e94ab256ca93f1dd37,2024-02-22_03h37.55.102,kallum_motion_pilot,2023.2.2,Win32,20,6122a9e94ab256ca93f1dd37,65d6bb0e977760de756971f7,65d6c173972c1d2144b7f57e,0.034,0.034,1,73,235,86,1,eightsix,,,,,,,,,,,,,,,,,,,,,,,,,,,,,,,,,,,,,,,,,,,,,,,,,,,,,,,,,,,,,,,,,,,,,,,,,,,,,,,,,,,,,,,,,,,,,,,,,,,,,,,,,,,,,,,,,,,,,,,,,,,,,,,,,,,,,,,,,
,,6122a9e94ab256ca93f1dd37,2024-02-22_03h37.55.102,kallum_motion_pilot,2023.2.2,Win32,20,6122a9e94ab256ca93f1dd37,65d6bb0e977760de756971f7,65d6c173972c1d2144b7f57e,0.034,0.034,1,74,236,130,1,sixfive,,,,,,,,,,,,,,,,,,,,,,,,,,,,,,,,,,,,,,,,,,,,,,,,,,,,,,,,,,,,,,,,,,,,,,,,,,,,,,,,,,,,,,,,,,,,,,,,,,,,,,,,,,,,,,,,,,,,,,,,,,,,,,,,,,,,,,,,,
,,6122a9e94ab256ca93f1dd37,2024-02-22_03h37.55.102,kallum_motion_pilot,2023.2.2,Win32,20,6122a9e94ab256ca93f1dd37,65d6bb0e977760de756971f7,65d6c173972c1d2144b7f57e,0.034,0.034,1,75,237,160,1,fivesix,,,,,,,,,,,,,,,,,,,,,,,,,,,,,,,,,,,,,,,,,,,,,,,,,,,,,,,,,,,,,,,,,,,,,,,,,,,,,,,,,,,,,,,,,,,,,,,,,,,,,,,,,,,,,,,,,,,,,,,,,,,,,,,,,,,,,,,,,
,,6122a9e94ab256ca93f1dd37,2024-02-22_03h37.55.102,kallum_motion_pilot,2023.2.2,Win32,20,6122a9e94ab256ca93f1dd37,65d6bb0e977760de756971f7,65d6c173972c1d2144b7f57e,0.034,0.034,1,76,238,34,1,twoone,,,,,,,,,,,,,,,,,,,,,,,,,,,,,,,,,,,,,,,,,,,,,,,,,,,,,,,,,,,,,,,,,,,,,,,,,,,,,,,,,,,,,,,,,,,,,,,,,,,,,,,,,,,,,,,,,,,,,,,,,,,,,,,,,,,,,,,,,
,,6122a9e94ab256ca93f1dd37,2024-02-22_03h37.55.102,kallum_motion_pilot,2023.2.2,Win32,20,6122a9e94ab256ca93f1dd37,65d6bb0e977760de756971f7,65d6c173972c1d2144b7f57e,0.034,0.034,1,77,239,93,1,seveneight,,,,,,,,,,,,,,,,,,,,,,,,,,,,,,,,,,,,,,,,,,,,,,,,,,,,,,,,,,,,,,,,,,,,,,,,,,,,,,,,,,,,,,,,,,,,,,,,,,,,,,,,,,,,,,,,,,,,,,,,,,,,,,,,,,,,,,,,,
,,6122a9e94ab256ca93f1dd37,2024-02-22_03h37.55.102,kallum_motion_pilot,2023.2.2,Win32,20,6122a9e94ab256ca93f1dd37,65d6bb0e977760de756971f7,65d6c173972c1d2144b7f57e,0.035,0.035,1,78,240,31,1,fourthree,,,,,,,,,,,,,,,,,,,,,,,,,,,,,,,,,,,,,,,,,,,,,,,,,,,,,,,,,,,,,,,,,,,,,,,,,,,,,,,,,,,,,,,,,,,,,,,,,,,,,,,,,,,,,,,,,,,,,,,,,,,,,,,,,,,,,,,,,
,,6122a9e94ab256ca93f1dd37,2024-02-22_03h37.55.102,kallum_motion_pilot,2023.2.2,Win32,20,6122a9e94ab256ca93f1dd37,65d6bb0e977760de756971f7,65d6c173972c1d2144b7f57e,0.035,0.035,1,79,241,123,1,sixeight,,,,,,,,,,,,,,,,,,,,,,,,,,,,,,,,,,,,,,,,,,,,,,,,,,,,,,,,,,,,,,,,,,,,,,,,,,,,,,,,,,,,,,,,,,,,,,,,,,,,,,,,,,,,,,,,,,,,,,,,,,,,,,,,,,,,,,,,,
,,6122a9e94ab256ca93f1dd37,2024-02-22_03h37.55.102,kallum_motion_pilot,2023.2.2,Win32,20,6122a9e94ab256ca93f1dd37,65d6bb0e977760de756971f7,65d6c173972c1d2144b7f57e,0.035,0.035,1,80,242,12,1,threeone,,,,,,,,,,,,,,,,,,,,,,,,,,,,,,,,,,,,,,,,,,,,,,,,,,,,,,,,,,,,,,,,,,,,,,,,,,,,,,,,,,,,,,,,,,,,,,,,,,,,,,,,,,,,,,,,,,,,,,,,,,,,,,,,,,,,,,,,,
,,6122a9e94ab256ca93f1dd37,2024-02-22_03h37.55.102,kallum_motion_pilot,2023.2.2,Win32,20,6122a9e94ab256ca93f1dd37,65d6bb0e977760de756971f7,65d6c173972c1d2144b7f57e,0.035,0.035,1,81,243,52,1,threeone,,,,,,,,,,,,,,,,,,,,,,,,,,,,,,,,,,,,,,,,,,,,,,,,,,,,,,,,,,,,,,,,,,,,,,,,,,,,,,,,,,,,,,,,,,,,,,,,,,,,,,,,,,,,,,,,,,,,,,,,,,,,,,,,,,,,,,,,,
,,6122a9e94ab256ca93f1dd37,2024-02-22_03h37.55.102,kallum_motion_pilot,2023.2.2,Win32,20,6122a9e94ab256ca93f1dd37,65d6bb0e977760de756971f7,65d6c173972c1d2144b7f57e,0.035,0.035,1,82,244,11,1,twofour,,,,,,,,,,,,,,,,,,,,,,,,,,,,,,,,,,,,,,,,,,,,,,,,,,,,,,,,,,,,,,,,,,,,,,,,,,,,,,,,,,,,,,,,,,,,,,,,,,,,,,,,,,,,,,,,,,,,,,,,,,,,,,,,,,,,,,,,,
,,6122a9e94ab256ca93f1dd37,2024-02-22_03h37.55.102,kallum_motion_pilot,2023.2.2,Win32,20,6122a9e94ab256ca93f1dd37,65d6bb0e977760de756971f7,65d6c173972c1d2144b7f57e,0.035,0.035,1,83,245,85,1,seveneight,,,,,,,,,,,,,,,,,,,,,,,,,,,,,,,,,,,,,,,,,,,,,,,,,,,,,,,,,,,,,,,,,,,,,,,,,,,,,,,,,,,,,,,,,,,,,,,,,,,,,,,,,,,,,,,,,,,,,,,,,,,,,,,,,,,,,,,,,
,,6122a9e94ab256ca93f1dd37,2024-02-22_03h37.55.102,kallum_motion_pilot,2023.2.2,Win32,20,6122a9e94ab256ca93f1dd37,65d6bb0e977760de756971f7,65d6c173972c1d2144b7f57e,0.035,0.035,1,84,246,65,1,onethree,,,,,,,,,,,,,,,,,,,,,,,,,,,,,,,,,,,,,,,,,,,,,,,,,,,,,,,,,,,,,,,,,,,,,,,,,,,,,,,,,,,,,,,,,,,,,,,,,,,,,,,,,,,,,,,,,,,,,,,,,,,,,,,,,,,,,,,,,
,,6122a9e94ab256ca93f1dd37,2024-02-22_03h37.55.102,kallum_motion_pilot,2023.2.2,Win32,20,6122a9e94ab256ca93f1dd37,65d6bb0e977760de756971f7,65d6c173972c1d2144b7f57e,0.035,0.035,1,85,247,106,1,sixfive,,,,,,,,,,,,,,,,,,,,,,,,,,,,,,,,,,,,,,,,,,,,,,,,,,,,,,,,,,,,,,,,,,,,,,,,,,,,,,,,,,,,,,,,,,,,,,,,,,,,,,,,,,,,,,,,,,,,,,,,,,,,,,,,,,,,,,,,,
,,6122a9e94ab256ca93f1dd37,2024-02-22_03h37.55.102,kallum_motion_pilot,2023.2.2,Win32,20,6122a9e94ab256ca93f1dd37,65d6bb0e977760de756971f7,65d6c173972c1d2144b7f57e,0.035,0.035,1,86,248,110,1,eightsix,,,,,,,,,,,,,,,,,,,,,,,,,,,,,,,,,,,,,,,,,,,,,,,,,,,,,,,,,,,,,,,,,,,,,,,,,,,,,,,,,,,,,,,,,,,,,,,,,,,,,,,,,,,,,,,,,,,,,,,,,,,,,,,,,,,,,,,,,
,,6122a9e94ab256ca93f1dd37,2024-02-22_03h37.55.102,kallum_motion_pilot,2023.2.2,Win32,20,6122a9e94ab256ca93f1dd37,65d6bb0e977760de756971f7,65d6c173972c1d2144b7f57e,0.035,0.035,1,87,249,103,1,eightseven,,,,,,,,,,,,,,,,,,,,,,,,,,,,,,,,,,,,,,,,,,,,,,,,,,,,,,,,,,,,,,,,,,,,,,,,,,,,,,,,,,,,,,,,,,,,,,,,,,,,,,,,,,,,,,,,,,,,,,,,,,,,,,,,,,,,,,,,,
,,6122a9e94ab256ca93f1dd37,2024-02-22_03h37.55.102,kallum_motion_pilot,2023.2.2,Win32,20,6122a9e94ab256ca93f1dd37,65d6bb0e977760de756971f7,65d6c173972c1d2144b7f57e,0.035,0.035,1,88,250,38,1,fourtwo,,,,,,,,,,,,,,,,,,,,,,,,,,,,,,,,,,,,,,,,,,,,,,,,,,,,,,,,,,,,,,,,,,,,,,,,,,,,,,,,,,,,,,,,,,,,,,,,,,,,,,,,,,,,,,,,,,,,,,,,,,,,,,,,,,,,,,,,,
,,6122a9e94ab256ca93f1dd37,2024-02-22_03h37.55.102,kallum_motion_pilot,2023.2.2,Win32,20,6122a9e94ab256ca93f1dd37,65d6bb0e977760de756971f7,65d6c173972c1d2144b7f57e,0.035,0.035,1,89,251,20,1,threeone,,,,,,,,,,,,,,,,,,,,,,,,,,,,,,,,,,,,,,,,,,,,,,,,,,,,,,,,,,,,,,,,,,,,,,,,,,,,,,,,,,,,,,,,,,,,,,,,,,,,,,,,,,,,,,,,,,,,,,,,,,,,,,,,,,,,,,,,,
,,6122a9e94ab256ca93f1dd37,2024-02-22_03h37.55.102,kallum_motion_pilot,2023.2.2,Win32,20,6122a9e94ab256ca93f1dd37,65d6bb0e977760de756971f7,65d6c173972c1d2144b7f57e,0.035,0.035,1,90,252,10,1,twoone,,,,,,,,,,,,,,,,,,,,,,,,,,,,,,,,,,,,,,,,,,,,,,,,,,,,,,,,,,,,,,,,,,,,,,,,,,,,,,,,,,,,,,,,,,,,,,,,,,,,,,,,,,,,,,,,,,,,,,,,,,,,,,,,,,,,,,,,,
,,6122a9e94ab256ca93f1dd37,2024-02-22_03h37.55.102,kallum_motion_pilot,2023.2.2,Win32,20,6122a9e94ab256ca93f1dd37,65d6bb0e977760de756971f7,65d6c173972c1d2144b7f57e,0.036,0.036,1,91,253,37,1,threefour,,,,,,,,,,,,,,,,,,,,,,,,,,,,,,,,,,,,,,,,,,,,,,,,,,,,,,,,,,,,,,,,,,,,,,,,,,,,,,,,,,,,,,,,,,,,,,,,,,,,,,,,,,,,,,,,,,,,,,,,,,,,,,,,,,,,,,,,,
,,6122a9e94ab256ca93f1dd37,2024-02-22_03h37.55.102,kallum_motion_pilot,2023.2.2,Win32,20,6122a9e94ab256ca93f1dd37,65d6bb0e977760de756971f7,65d6c173972c1d2144b7f57e,0.036,0.036,1,92,254,109,1,seveneight,,,,,,,,,,,,,,,,,,,,,,,,,,,,,,,,,,,,,,,,,,,,,,,,,,,,,,,,,,,,,,,,,,,,,,,,,,,,,,,,,,,,,,,,,,,,,,,,,,,,,,,,,,,,,,,,,,,,,,,,,,,,,,,,,,,,,,,,,
,,6122a9e94ab256ca93f1dd37,2024-02-22_03h37.55.102,kallum_motion_pilot,2023.2.2,Win32,20,6122a9e94ab256ca93f1dd37,65d6bb0e977760de756971f7,65d6c173972c1d2144b7f57e,0.036,0.036,1,93,255,122,1,sixfive,,,,,,,,,,,,,,,,,,,,,,,,,,,,,,,,,,,,,,,,,,,,,,,,,,,,,,,,,,,,,,,,,,,,,,,,,,,,,,,,,,,,,,,,,,,,,,,,,,,,,,,,,,,,,,,,,,,,,,,,,,,,,,,,,,,,,,,,,
,,6122a9e94ab256ca93f1dd37,2024-02-22_03h37.55.102,kallum_motion_pilot,2023.2.2,Win32,20,6122a9e94ab256ca93f1dd37,65d6bb0e977760de756971f7,65d6c173972c1d2144b7f57e,0.036,0.036,1,94,256,43,1,twofour,,,,,,,,,,,,,,,,,,,,,,,,,,,,,,,,,,,,,,,,,,,,,,,,,,,,,,,,,,,,,,,,,,,,,,,,,,,,,,,,,,,,,,,,,,,,,,,,,,,,,,,,,,,,,,,,,,,,,,,,,,,,,,,,,,,,,,,,,
,,6122a9e94ab256ca93f1dd37,2024-02-22_03h37.55.102,kallum_motion_pilot,2023.2.2,Win32,20,6122a9e94ab256ca93f1dd37,65d6bb0e977760de756971f7,65d6c173972c1d2144b7f57e,0.036,0.036,1,95,257,76,1,threeone,,,,,,,,,,,,,,,,,,,,,,,,,,,,,,,,,,,,,,,,,,,,,,,,,,,,,,,,,,,,,,,,,,,,,,,,,,,,,,,,,,,,,,,,,,,,,,,,,,,,,,,,,,,,,,,,,,,,,,,,,,,,,,,,,,,,,,,,,
,,6122a9e94ab256ca93f1dd37,2024-02-22_03h37.55.102,kallum_motion_pilot,2023.2.2,Win32,20,6122a9e94ab256ca93f1dd37,65d6bb0e977760de756971f7,65d6c173972c1d2144b7f57e,0.036,0.036,1,96,258,117,1,seveneight,,,,,,,,,,,,,,,,,,,,,,,,,,,,,,,,,,,,,,,,,,,,,,,,,,,,,,,,,,,,,,,,,,,,,,,,,,,,,,,,,,,,,,,,,,,,,,,,,,,,,,,,,,,,,,,,,,,,,,,,,,,,,,,,,,,,,,,,,
,,6122a9e94ab256ca93f1dd37,2024-02-22_03h37.55.102,kallum_motion_pilot,2023.2.2,Win32,20,6122a9e94ab256ca93f1dd37,65d6bb0e977760de756971f7,65d6c173972c1d2144b7f57e,0.036,0.036,1,97,259,96,1,fivesix,,,,,,,,,,,,,,,,,,,,,,,,,,,,,,,,,,,,,,,,,,,,,,,,,,,,,,,,,,,,,,,,,,,,,,,,,,,,,,,,,,,,,,,,,,,,,,,,,,,,,,,,,,,,,,,,,,,,,,,,,,,,,,,,,,,,,,,,,
,,6122a9e94ab256ca93f1dd37,2024-02-22_03h37.55.102,kallum_motion_pilot,2023.2.2,Win32,20,6122a9e94ab256ca93f1dd37,65d6bb0e977760de756971f7,65d6c173972c1d2144b7f57e,0.036,0.036,1,98,260,120,1,fivesix,,,,,,,,,,,,,,,,,,,,,,,,,,,,,,,,,,,,,,,,,,,,,,,,,,,,,,,,,,,,,,,,,,,,,,,,,,,,,,,,,,,,,,,,,,,,,,,,,,,,,,,,,,,,,,,,,,,,,,,,,,,,,,,,,,,,,,,,,
,,6122a9e94ab256ca93f1dd37,2024-02-22_03h37.55.102,kallum_motion_pilot,2023.2.2,Win32,20,6122a9e94ab256ca93f1dd37,65d6bb0e977760de756971f7,65d6c173972c1d2144b7f57e,0.036,0.036,1,99,261,54,1,fourtwo,,,,,,,,,,,,,,,,,,,,,,,,,,,,,,,,,,,,,,,,,,,,,,,,,,,,,,,,,,,,,,,,,,,,,,,,,,,,,,,,,,,,,,,,,,,,,,,,,,,,,,,,,,,,,,,,,,,,,,,,,,,,,,,,,,,,,,,,,
,,6122a9e94ab256ca93f1dd37,2024-02-22_03h37.55.102,kallum_motion_pilot,2023.2.2,Win32,20,6122a9e94ab256ca93f1dd37,65d6bb0e977760de756971f7,65d6c173972c1d2144b7f57e,0.036,0.036,1,100,262,152,1,fivesix,,,,,,,,,,,,,,,,,,,,,,,,,,,,,,,,,,,,,,,,,,,,,,,,,,,,,,,,,,,,,,,,,,,,,,,,,,,,,,,,,,,,,,,,,,,,,,,,,,,,,,,,,,,,,,,,,,,,,,,,,,,,,,,,,,,,,,,,,
,,6122a9e94ab256ca93f1dd37,2024-02-22_03h37.55.102,kallum_motion_pilot,2023.2.2,Win32,20,6122a9e94ab256ca93f1dd37,65d6bb0e977760de756971f7,65d6c173972c1d2144b7f57e,0.036,0.036,1,101,263,78,1,fourtwo,,,,,,,,,,,,,,,,,,,,,,,,,,,,,,,,,,,,,,,,,,,,,,,,,,,,,,,,,,,,,,,,,,,,,,,,,,,,,,,,,,,,,,,,,,,,,,,,,,,,,,,,,,,,,,,,,,,,,,,,,,,,,,,,,,,,,,,,,
,,6122a9e94ab256ca93f1dd37,2024-02-22_03h37.55.102,kallum_motion_pilot,2023.2.2,Win32,20,6122a9e94ab256ca93f1dd37,65d6bb0e977760de756971f7,65d6c173972c1d2144b7f57e,0.036,0.036,1,102,264,82,1,sixfive,,,,,,,,,,,,,,,,,,,,,,,,,,,,,,,,,,,,,,,,,,,,,,,,,,,,,,,,,,,,,,,,,,,,,,,,,,,,,,,,,,,,,,,,,,,,,,,,,,,,,,,,,,,,,,,,,,,,,,,,,,,,,,,,,,,,,,,,,
,,6122a9e94ab256ca93f1dd37,2024-02-22_03h37.55.102,kallum_motion_pilot,2023.2.2,Win32,20,6122a9e94ab256ca93f1dd37,65d6bb0e977760de756971f7,65d6c173972c1d2144b7f57e,0.036,0.036,1,103,265,25,1,onethree,,,,,,,,,,,,,,,,,,,,,,,,,,,,,,,,,,,,,,,,,,,,,,,,,,,,,,,,,,,,,,,,,,,,,,,,,,,,,,,,,,,,,,,,,,,,,,,,,,,,,,,,,,,,,,,,,,,,,,,,,,,,,,,,,,,,,,,,,
,,6122a9e94ab256ca93f1dd37,2024-02-22_03h37.55.102,kallum_motion_pilot,2023.2.2,Win32,20,6122a9e94ab256ca93f1dd37,65d6bb0e977760de756971f7,65d6c173972c1d2144b7f57e,0.036,0.036,1,104,266,143,1,eightseven,,,,,,,,,,,,,,,,,,,,,,,,,,,,,,,,,,,,,,,,,,,,,,,,,,,,,,,,,,,,,,,,,,,,,,,,,,,,,,,,,,,,,,,,,,,,,,,,,,,,,,,,,,,,,,,,,,,,,,,,,,,,,,,,,,,,,,,,,
,,6122a9e94ab256ca93f1dd37,2024-02-22_03h37.55.102,kallum_motion_pilot,2023.2.2,Win32,20,6122a9e94ab256ca93f1dd37,65d6bb0e977760de756971f7,65d6c173972c1d2144b7f57e,0.036,0.036,1,105,267,28,1,threeone,,,,,,,,,,,,,,,,,,,,,,,,,,,,,,,,,,,,,,,,,,,,,,,,,,,,,,,,,,,,,,,,,,,,,,,,,,,,,,,,,,,,,,,,,,,,,,,,,,,,,,,,,,,,,,,,,,,,,,,,,,,,,,,,,,,,,,,,,
,,6122a9e94ab256ca93f1dd37,2024-02-22_03h37.55.102,kallum_motion_pilot,2023.2.2,Win32,20,6122a9e94ab256ca93f1dd37,65d6bb0e977760de756971f7,65d6c173972c1d2144b7f57e,0.036,0.036,1,106,268,5,1,threefour,,,,,,,,,,,,,,,,,,,,,,,,,,,,,,,,,,,,,,,,,,,,,,,,,,,,,,,,,,,,,,,,,,,,,,,,,,,,,,,,,,,,,,,,,,,,,,,,,,,,,,,,,,,,,,,,,,,,,,,,,,,,,,,,,,,,,,,,,
,,6122a9e94ab256ca93f1dd37,2024-02-22_03h37.55.102,kallum_motion_pilot,2023.2.2,Win32,20,6122a9e94ab256ca93f1dd37,65d6bb0e977760de756971f7,65d6c173972c1d2144b7f57e,0.036,0.036,1,107,269,16,1,onetwo,,,,,,,,,,,,,,,,,,,,,,,,,,,,,,,,,,,,,,,,,,,,,,,,,,,,,,,,,,,,,,,,,,,,,,,,,,,,,,,,,,,,,,,,,,,,,,,,,,,,,,,,,,,,,,,,,,,,,,,,,,,,,,,,,,,,,,,,,
,,6122a9e94ab256ca93f1dd37,2024-02-22_03h37.55.102,kallum_motion_pilot,2023.2.2,Win32,20,6122a9e94ab256ca93f1dd37,65d6bb0e977760de756971f7,65d6c173972c1d2144b7f57e,0.036,0.036,1,108,270,22,1,fourtwo,,,,,,,,,,,,,,,,,,,,,,,,,,,,,,,,,,,,,,,,,,,,,,,,,,,,,,,,,,,,,,,,,,,,,,,,,,,,,,,,,,,,,,,,,,,,,,,,,,,,,,,,,,,,,,,,,,,,,,,,,,,,,,,,,,,,,,,,,
,,6122a9e94ab256ca93f1dd37,2024-02-22_03h37.55.102,kallum_motion_pilot,2023.2.2,Win32,20,6122a9e94ab256ca93f1dd37,65d6bb0e977760de756971f7,65d6c173972c1d2144b7f57e,0.036,0.036,1,109,271,144,1,fivesix,,,,,,,,,,,,,,,,,,,,,,,,,,,,,,,,,,,,,,,,,,,,,,,,,,,,,,,,,,,,,,,,,,,,,,,,,,,,,,,,,,,,,,,,,,,,,,,,,,,,,,,,,,,,,,,,,,,,,,,,,,,,,,,,,,,,,,,,,
,,6122a9e94ab256ca93f1dd37,2024-02-22_03h37.55.102,kallum_motion_pilot,2023.2.2,Win32,20,6122a9e94ab256ca93f1dd37,65d6bb0e977760de756971f7,65d6c173972c1d2144b7f57e,0.036,0.036,1,110,272,73,1,onethree,,,,,,,,,,,,,,,,,,,,,,,,,,,,,,,,,,,,,,,,,,,,,,,,,,,,,,,,,,,,,,,,,,,,,,,,,,,,,,,,,,,,,,,,,,,,,,,,,,,,,,,,,,,,,,,,,,,,,,,,,,,,,,,,,,,,,,,,,
,,6122a9e94ab256ca93f1dd37,2024-02-22_03h37.55.102,kallum_motion_pilot,2023.2.2,Win32,20,6122a9e94ab256ca93f1dd37,65d6bb0e977760de756971f7,65d6c173972c1d2144b7f57e,0.036,0.036,1,111,273,21,1,threefour,,,,,,,,,,,,,,,,,,,,,,,,,,,,,,,,,,,,,,,,,,,,,,,,,,,,,,,,,,,,,,,,,,,,,,,,,,,,,,,,,,,,,,,,,,,,,,,,,,,,,,,,,,,,,,,,,,,,,,,,,,,,,,,,,,,,,,,,,
,,6122a9e94ab256ca93f1dd37,2024-02-22_03h37.55.102,kallum_motion_pilot,2023.2.2,Win32,20,6122a9e94ab256ca93f1dd37,65d6bb0e977760de756971f7,65d6c173972c1d2144b7f57e,0.036,0.036,1,112,274,84,1,sevenfive,,,,,,,,,,,,,,,,,,,,,,,,,,,,,,,,,,,,,,,,,,,,,,,,,,,,,,,,,,,,,,,,,,,,,,,,,,,,,,,,,,,,,,,,,,,,,,,,,,,,,,,,,,,,,,,,,,,,,,,,,,,,,,,,,,,,,,,,,
,,6122a9e94ab256ca93f1dd37,2024-02-22_03h37.55.102,kallum_motion_pilot,2023.2.2,Win32,20,6122a9e94ab256ca93f1dd37,65d6bb0e977760de756971f7,65d6c173972c1d2144b7f57e,0.036,0.036,1,113,275,90,1,sixfive,,,,,,,,,,,,,,,,,,,,,,,,,,,,,,,,,,,,,,,,,,,,,,,,,,,,,,,,,,,,,,,,,,,,,,,,,,,,,,,,,,,,,,,,,,,,,,,,,,,,,,,,,,,,,,,,,,,,,,,,,,,,,,,,,,,,,,,,,
,,6122a9e94ab256ca93f1dd37,2024-02-22_03h37.55.102,kallum_motion_pilot,2023.2.2,Win32,20,6122a9e94ab256ca93f1dd37,65d6bb0e977760de756971f7,65d6c173972c1d2144b7f57e,0.036,0.036,1,114,276,48,1,onetwo,,,,,,,,,,,,,,,,,,,,,,,,,,,,,,,,,,,,,,,,,,,,,,,,,,,,,,,,,,,,,,,,,,,,,,,,,,,,,,,,,,,,,,,,,,,,,,,,,,,,,,,,,,,,,,,,,,,,,,,,,,,,,,,,,,,,,,,,,
,,6122a9e94ab256ca93f1dd37,2024-02-22_03h37.55.102,kallum_motion_pilot,2023.2.2,Win32,20,6122a9e94ab256ca93f1dd37,65d6bb0e977760de756971f7,65d6c173972c1d2144b7f57e,0.036,0.036,1,115,277,158,1,eightsix,,,,,,,,,,,,,,,,,,,,,,,,,,,,,,,,,,,,,,,,,,,,,,,,,,,,,,,,,,,,,,,,,,,,,,,,,,,,,,,,,,,,,,,,,,,,,,,,,,,,,,,,,,,,,,,,,,,,,,,,,,,,,,,,,,,,,,,,,
,,6122a9e94ab256ca93f1dd37,2024-02-22_03h37.55.102,kallum_motion_pilot,2023.2.2,Win32,20,6122a9e94ab256ca93f1dd37,65d6bb0e977760de756971f7,65d6c173972c1d2144b7f57e,0.036,0.036,1,116,278,80,1,fivesix,,,,,,,,,,,,,,,,,,,,,,,,,,,,,,,,,,,,,,,,,,,,,,,,,,,,,,,,,,,,,,,,,,,,,,,,,,,,,,,,,,,,,,,,,,,,,,,,,,,,,,,,,,,,,,,,,,,,,,,,,,,,,,,,,,,,,,,,,
,,6122a9e94ab256ca93f1dd37,2024-02-22_03h37.55.102,kallum_motion_pilot,2023.2.2,Win32,20,6122a9e94ab256ca93f1dd37,65d6bb0e977760de756971f7,65d6c173972c1d2144b7f57e,0.036,0.036,1,117,279,156,1,sevenfive,,,,,,,,,,,,,,,,,,,,,,,,,,,,,,,,,,,,,,,,,,,,,,,,,,,,,,,,,,,,,,,,,,,,,,,,,,,,,,,,,,,,,,,,,,,,,,,,,,,,,,,,,,,,,,,,,,,,,,,,,,,,,,,,,,,,,,,,,
,,6122a9e94ab256ca93f1dd37,2024-02-22_03h37.55.102,kallum_motion_pilot,2023.2.2,Win32,20,6122a9e94ab256ca93f1dd37,65d6bb0e977760de756971f7,65d6c173972c1d2144b7f57e,0.037,0.037,1,118,280,56,1,onetwo,,,,,,,,,,,,,,,,,,,,,,,,,,,,,,,,,,,,,,,,,,,,,,,,,,,,,,,,,,,,,,,,,,,,,,,,,,,,,,,,,,,,,,,,,,,,,,,,,,,,,,,,,,,,,,,,,,,,,,,,,,,,,,,,,,,,,,,,,
,,6122a9e94ab256ca93f1dd37,2024-02-22_03h37.55.102,kallum_motion_pilot,2023.2.2,Win32,20,6122a9e94ab256ca93f1dd37,65d6bb0e977760de756971f7,65d6c173972c1d2144b7f57e,0.037,0.037,1,119,281,71,1,fourthree,,,,,,,,,,,,,,,,,,,,,,,,,,,,,,,,,,,,,,,,,,,,,,,,,,,,,,,,,,,,,,,,,,,,,,,,,,,,,,,,,,,,,,,,,,,,,,,,,,,,,,,,,,,,,,,,,,,,,,,,,,,,,,,,,,,,,,,,,
,,6122a9e94ab256ca93f1dd37,2024-02-22_03h37.55.102,kallum_motion_pilot,2023.2.2,Win32,20,6122a9e94ab256ca93f1dd37,65d6bb0e977760de756971f7,65d6c173972c1d2144b7f57e,0.037,0.037,1,120,282,153,1,fiveseven,,,,,,,,,,,,,,,,,,,,,,,,,,,,,,,,,,,,,,,,,,,,,,,,,,,,,,,,,,,,,,,,,,,,,,,,,,,,,,,,,,,,,,,,,,,,,,,,,,,,,,,,,,,,,,,,,,,,,,,,,,,,,,,,,,,,,,,,,
,,6122a9e94ab256ca93f1dd37,2024-02-22_03h37.55.102,kallum_motion_pilot,2023.2.2,Win32,20,6122a9e94ab256ca93f1dd37,65d6bb0e977760de756971f7,65d6c173972c1d2144b7f57e,0.037,0.037,1,121,283,23,1,fourthree,,,,,,,,,,,,,,,,,,,,,,,,,,,,,,,,,,,,,,,,,,,,,,,,,,,,,,,,,,,,,,,,,,,,,,,,,,,,,,,,,,,,,,,,,,,,,,,,,,,,,,,,,,,,,,,,,,,,,,,,,,,,,,,,,,,,,,,,,
,,6122a9e94ab256ca93f1dd37,2024-02-22_03h37.55.102,kallum_motion_pilot,2023.2.2,Win32,20,6122a9e94ab256ca93f1dd37,65d6bb0e977760de756971f7,65d6c173972c1d2144b7f57e,0.037,0.037,1,122,284,59,1,twofour,,,,,,,,,,,,,,,,,,,,,,,,,,,,,,,,,,,,,,,,,,,,,,,,,,,,,,,,,,,,,,,,,,,,,,,,,,,,,,,,,,,,,,,,,,,,,,,,,,,,,,,,,,,,,,,,,,,,,,,,,,,,,,,,,,,,,,,,,
,,6122a9e94ab256ca93f1dd37,2024-02-22_03h37.55.102,kallum_motion_pilot,2023.2.2,Win32,20,6122a9e94ab256ca93f1dd37,65d6bb0e977760de756971f7,65d6c173972c1d2144b7f57e,0.037,0.037,1,123,285,145,1,fiveseven,,,,,,,,,,,,,,,,,,,,,,,,,,,,,,,,,,,,,,,,,,,,,,,,,,,,,,,,,,,,,,,,,,,,,,,,,,,,,,,,,,,,,,,,,,,,,,,,,,,,,,,,,,,,,,,,,,,,,,,,,,,,,,,,,,,,,,,,,
,,6122a9e94ab256ca93f1dd37,2024-02-22_03h37.55.102,kallum_motion_pilot,2023.2.2,Win32,20,6122a9e94ab256ca93f1dd37,65d6bb0e977760de756971f7,65d6c173972c1d2144b7f57e,0.037,0.037,1,124,286,102,1,eightsix,,,,,,,,,,,,,,,,,,,,,,,,,,,,,,,,,,,,,,,,,,,,,,,,,,,,,,,,,,,,,,,,,,,,,,,,,,,,,,,,,,,,,,,,,,,,,,,,,,,,,,,,,,,,,,,,,,,,,,,,,,,,,,,,,,,,,,,,,
