startup.started,startup.stopped,Prolific ID*,date,expName,psychopyVersion,OS,frameRate,participant,study_id,session,stimpositions.started,stimpositions.stopped,hardcoded_stimulus_positions.thisRepN,hardcoded_stimulus_positions.thisTrialN,hardcoded_stimulus_positions.thisN,hardcoded_stimulus_positions.thisIndex,hardcoded_stimulus_positions.ran,StimulusPos,stimorientation.started,stimorientation.stopped,prac_stimorientation_import_loop.thisRepN,prac_stimorientation_import_loop.thisTrialN,prac_stimorientation_import_loop.thisN,prac_stimorientation_import_loop.thisIndex,prac_stimorientation_import_loop.ran,Stimorientation,welcome_instr.started,welcome_instr.stopped,key_resp.keys,key_resp.rt,key_resp.duration,response_steppedout_1.started,response_steppedout_1.stopped,key_resp_20.keys,key_resp_20.rt,key_resp_20.duration,response_steppedout_2.started,response_steppedout_2.stopped,key_resp_19.keys,key_resp_19.rt,key_resp_19.duration,stim_response_instr.started,stim_response_instr.stopped,key_resp_15.keys,key_resp_15.rt,key_resp_15.duration,direction_instr_2.started,direction_instr_2.stopped,key_resp_9.keys,key_resp_9.rt,key_resp_9.duration,instr_prac.started,instr_prac.stopped,key_resp_10.keys,key_resp_10.rt,key_resp_10.duration,Stim1_display_prac.started,Stim1_display_prac.stopped,Ecc,Circle1_ori,Circle2_ori,response_prac.started,similarity,response_time,response_prac.stopped,mouse_5.x,mouse_5.y,mouse_5.leftButton,mouse_5.midButton,mouse_5.rightButton,mouse_5.clicked_name,responseprac_feedback.started,responseprac_feedback.stopped,summary2_prac.started,summary2_prac.stopped,mouse_6.x,mouse_6.y,mouse_6.leftButton,mouse_6.midButton,mouse_6.rightButton,mouse_6.clicked_name,duringprac.thisRepN,duringprac.thisTrialN,duringprac.thisN,duringprac.thisIndex,duringprac.ran,begin.started,begin.stopped,key_resp_22.keys,key_resp_22.rt,key_resp_22.duration,Stim1_display.started,Stim1_display.stopped,circle1_ori,circle2_ori,circle1_SF,circle2_SF,response.started,response.stopped,mouse.x,mouse.y,mouse.leftButton,mouse.midButton,mouse.rightButton,mouse.clicked_name,trialnumber,double_pass.thisRepN,double_pass.thisTrialN,double_pass.thisN,double_pass.thisIndex,double_pass.ran,double_pass.order,main_trial.thisRepN,main_trial.thisTrialN,main_trial.thisN,main_trial.thisIndex,main_trial.ran,main_trial.order,Trial_Counter,Catch,Frequencies,response_2.started,response_2.stopped,mouse_2.x,mouse_2.y,mouse_2.leftButton,mouse_2.midButton,mouse_2.rightButton,mouse_2.clicked_name,special_trial.started,special_trial.stopped,catch_1.started,catch_1.stopped,mouse_3.x,mouse_3.y,mouse_3.leftButton,mouse_3.midButton,mouse_3.rightButton,catchresponse,catchnumber,response_time_catch,response_sum.started,response_sum.stopped,mouse_11.x,mouse_11.y,mouse_11.leftButton,mouse_11.midButton,mouse_11.rightButton,flip_presentation_sequence_for_double_pass.started,flip_presentation_sequence_for_double_pass.stopped,goodbye.started,goodbye.stopped,key_resp_3.keys,key_resp_3.rt,key_resp_3.duration
0.002,0.002,61238ae128da0cdc3fe7a9b6,2024-02-19_03h15.52.887,kallum_motion_pilot,2023.2.2,Win32,166.6666667,61238ae128da0cdc3fe7a9b6,65d2b6c8f2eece985d8e374c,65d2b9caf340fcf7c13cd3de,,,,,,,,,,,,,,,,,,,,,,,,,,,,,,,,,,,,,,,,,,,,,,,,,,,,,,,,,,,,,,,,,,,,,,,,,,,,,,,,,,,,,,,,,,,,,,,,,,,,,,,,,,,,,,,,,,,,,,,,,,,,,,,,,,,,,,,,,,,,,,,,,
,,61238ae128da0cdc3fe7a9b6,2024-02-19_03h15.52.887,kallum_motion_pilot,2023.2.2,Win32,166.6666667,61238ae128da0cdc3fe7a9b6,65d2b6c8f2eece985d8e374c,65d2b9caf340fcf7c13cd3de,0.016,0.017,0,0,0,136,1,fivesix,,,,,,,,,,,,,,,,,,,,,,,,,,,,,,,,,,,,,,,,,,,,,,,,,,,,,,,,,,,,,,,,,,,,,,,,,,,,,,,,,,,,,,,,,,,,,,,,,,,,,,,,,,,,,,,,,,,,,,,,,,,,,,,,,,,,,,,,,
,,61238ae128da0cdc3fe7a9b6,2024-02-19_03h15.52.887,kallum_motion_pilot,2023.2.2,Win32,166.6666667,61238ae128da0cdc3fe7a9b6,65d2b6c8f2eece985d8e374c,65d2b9caf340fcf7c13cd3de,0.017,0.017,0,1,1,126,1,eightsix,,,,,,,,,,,,,,,,,,,,,,,,,,,,,,,,,,,,,,,,,,,,,,,,,,,,,,,,,,,,,,,,,,,,,,,,,,,,,,,,,,,,,,,,,,,,,,,,,,,,,,,,,,,,,,,,,,,,,,,,,,,,,,,,,,,,,,,,,
,,61238ae128da0cdc3fe7a9b6,2024-02-19_03h15.52.887,kallum_motion_pilot,2023.2.2,Win32,166.6666667,61238ae128da0cdc3fe7a9b6,65d2b6c8f2eece985d8e374c,65d2b9caf340fcf7c13cd3de,0.017,0.017,0,2,2,4,1,threeone,,,,,,,,,,,,,,,,,,,,,,,,,,,,,,,,,,,,,,,,,,,,,,,,,,,,,,,,,,,,,,,,,,,,,,,,,,,,,,,,,,,,,,,,,,,,,,,,,,,,,,,,,,,,,,,,,,,,,,,,,,,,,,,,,,,,,,,,,
,,61238ae128da0cdc3fe7a9b6,2024-02-19_03h15.52.887,kallum_motion_pilot,2023.2.2,Win32,166.6666667,61238ae128da0cdc3fe7a9b6,65d2b6c8f2eece985d8e374c,65d2b9caf340fcf7c13cd3de,0.017,0.017,0,3,3,146,1,sixfive,,,,,,,,,,,,,,,,,,,,,,,,,,,,,,,,,,,,,,,,,,,,,,,,,,,,,,,,,,,,,,,,,,,,,,,,,,,,,,,,,,,,,,,,,,,,,,,,,,,,,,,,,,,,,,,,,,,,,,,,,,,,,,,,,,,,,,,,,
,,61238ae128da0cdc3fe7a9b6,2024-02-19_03h15.52.887,kallum_motion_pilot,2023.2.2,Win32,166.6666667,61238ae128da0cdc3fe7a9b6,65d2b6c8f2eece985d8e374c,65d2b9caf340fcf7c13cd3de,0.017,0.017,0,4,4,119,1,eightseven,,,,,,,,,,,,,,,,,,,,,,,,,,,,,,,,,,,,,,,,,,,,,,,,,,,,,,,,,,,,,,,,,,,,,,,,,,,,,,,,,,,,,,,,,,,,,,,,,,,,,,,,,,,,,,,,,,,,,,,,,,,,,,,,,,,,,,,,,
,,61238ae128da0cdc3fe7a9b6,2024-02-19_03h15.52.887,kallum_motion_pilot,2023.2.2,Win32,166.6666667,61238ae128da0cdc3fe7a9b6,65d2b6c8f2eece985d8e374c,65d2b9caf340fcf7c13cd3de,0.017,0.017,0,5,5,124,1,sevenfive,,,,,,,,,,,,,,,,,,,,,,,,,,,,,,,,,,,,,,,,,,,,,,,,,,,,,,,,,,,,,,,,,,,,,,,,,,,,,,,,,,,,,,,,,,,,,,,,,,,,,,,,,,,,,,,,,,,,,,,,,,,,,,,,,,,,,,,,,
,,61238ae128da0cdc3fe7a9b6,2024-02-19_03h15.52.887,kallum_motion_pilot,2023.2.2,Win32,166.6666667,61238ae128da0cdc3fe7a9b6,65d2b6c8f2eece985d8e374c,65d2b9caf340fcf7c13cd3de,0.017,0.017,0,6,6,80,1,fivesix,,,,,,,,,,,,,,,,,,,,,,,,,,,,,,,,,,,,,,,,,,,,,,,,,,,,,,,,,,,,,,,,,,,,,,,,,,,,,,,,,,,,,,,,,,,,,,,,,,,,,,,,,,,,,,,,,,,,,,,,,,,,,,,,,,,,,,,,,
,,61238ae128da0cdc3fe7a9b6,2024-02-19_03h15.52.887,kallum_motion_pilot,2023.2.2,Win32,166.6666667,61238ae128da0cdc3fe7a9b6,65d2b6c8f2eece985d8e374c,65d2b9caf340fcf7c13cd3de,0.018,0.018,0,7,7,77,1,threefour,,,,,,,,,,,,,,,,,,,,,,,,,,,,,,,,,,,,,,,,,,,,,,,,,,,,,,,,,,,,,,,,,,,,,,,,,,,,,,,,,,,,,,,,,,,,,,,,,,,,,,,,,,,,,,,,,,,,,,,,,,,,,,,,,,,,,,,,,
,,61238ae128da0cdc3fe7a9b6,2024-02-19_03h15.52.887,kallum_motion_pilot,2023.2.2,Win32,166.6666667,61238ae128da0cdc3fe7a9b6,65d2b6c8f2eece985d8e374c,65d2b9caf340fcf7c13cd3de,0.018,0.018,0,8,8,145,1,fiveseven,,,,,,,,,,,,,,,,,,,,,,,,,,,,,,,,,,,,,,,,,,,,,,,,,,,,,,,,,,,,,,,,,,,,,,,,,,,,,,,,,,,,,,,,,,,,,,,,,,,,,,,,,,,,,,,,,,,,,,,,,,,,,,,,,,,,,,,,,
,,61238ae128da0cdc3fe7a9b6,2024-02-19_03h15.52.887,kallum_motion_pilot,2023.2.2,Win32,166.6666667,61238ae128da0cdc3fe7a9b6,65d2b6c8f2eece985d8e374c,65d2b9caf340fcf7c13cd3de,0.018,0.018,0,9,9,14,1,fourtwo,,,,,,,,,,,,,,,,,,,,,,,,,,,,,,,,,,,,,,,,,,,,,,,,,,,,,,,,,,,,,,,,,,,,,,,,,,,,,,,,,,,,,,,,,,,,,,,,,,,,,,,,,,,,,,,,,,,,,,,,,,,,,,,,,,,,,,,,,
,,61238ae128da0cdc3fe7a9b6,2024-02-19_03h15.52.887,kallum_motion_pilot,2023.2.2,Win32,166.6666667,61238ae128da0cdc3fe7a9b6,65d2b6c8f2eece985d8e374c,65d2b9caf340fcf7c13cd3de,0.018,0.018,0,10,10,129,1,fiveseven,,,,,,,,,,,,,,,,,,,,,,,,,,,,,,,,,,,,,,,,,,,,,,,,,,,,,,,,,,,,,,,,,,,,,,,,,,,,,,,,,,,,,,,,,,,,,,,,,,,,,,,,,,,,,,,,,,,,,,,,,,,,,,,,,,,,,,,,,
,,61238ae128da0cdc3fe7a9b6,2024-02-19_03h15.52.887,kallum_motion_pilot,2023.2.2,Win32,166.6666667,61238ae128da0cdc3fe7a9b6,65d2b6c8f2eece985d8e374c,65d2b9caf340fcf7c13cd3de,0.018,0.018,0,11,11,11,1,twofour,,,,,,,,,,,,,,,,,,,,,,,,,,,,,,,,,,,,,,,,,,,,,,,,,,,,,,,,,,,,,,,,,,,,,,,,,,,,,,,,,,,,,,,,,,,,,,,,,,,,,,,,,,,,,,,,,,,,,,,,,,,,,,,,,,,,,,,,,
,,61238ae128da0cdc3fe7a9b6,2024-02-19_03h15.52.887,kallum_motion_pilot,2023.2.2,Win32,166.6666667,61238ae128da0cdc3fe7a9b6,65d2b6c8f2eece985d8e374c,65d2b9caf340fcf7c13cd3de,0.018,0.018,0,12,12,156,1,sevenfive,,,,,,,,,,,,,,,,,,,,,,,,,,,,,,,,,,,,,,,,,,,,,,,,,,,,,,,,,,,,,,,,,,,,,,,,,,,,,,,,,,,,,,,,,,,,,,,,,,,,,,,,,,,,,,,,,,,,,,,,,,,,,,,,,,,,,,,,,
,,61238ae128da0cdc3fe7a9b6,2024-02-19_03h15.52.887,kallum_motion_pilot,2023.2.2,Win32,166.6666667,61238ae128da0cdc3fe7a9b6,65d2b6c8f2eece985d8e374c,65d2b9caf340fcf7c13cd3de,0.018,0.018,0,13,13,51,1,twofour,,,,,,,,,,,,,,,,,,,,,,,,,,,,,,,,,,,,,,,,,,,,,,,,,,,,,,,,,,,,,,,,,,,,,,,,,,,,,,,,,,,,,,,,,,,,,,,,,,,,,,,,,,,,,,,,,,,,,,,,,,,,,,,,,,,,,,,,,
,,61238ae128da0cdc3fe7a9b6,2024-02-19_03h15.52.887,kallum_motion_pilot,2023.2.2,Win32,166.6666667,61238ae128da0cdc3fe7a9b6,65d2b6c8f2eece985d8e374c,65d2b9caf340fcf7c13cd3de,0.018,0.018,0,14,14,5,1,threefour,,,,,,,,,,,,,,,,,,,,,,,,,,,,,,,,,,,,,,,,,,,,,,,,,,,,,,,,,,,,,,,,,,,,,,,,,,,,,,,,,,,,,,,,,,,,,,,,,,,,,,,,,,,,,,,,,,,,,,,,,,,,,,,,,,,,,,,,,
,,61238ae128da0cdc3fe7a9b6,2024-02-19_03h15.52.887,kallum_motion_pilot,2023.2.2,Win32,166.6666667,61238ae128da0cdc3fe7a9b6,65d2b6c8f2eece985d8e374c,65d2b9caf340fcf7c13cd3de,0.018,0.018,0,15,15,139,1,sixeight,,,,,,,,,,,,,,,,,,,,,,,,,,,,,,,,,,,,,,,,,,,,,,,,,,,,,,,,,,,,,,,,,,,,,,,,,,,,,,,,,,,,,,,,,,,,,,,,,,,,,,,,,,,,,,,,,,,,,,,,,,,,,,,,,,,,,,,,,
,,61238ae128da0cdc3fe7a9b6,2024-02-19_03h15.52.887,kallum_motion_pilot,2023.2.2,Win32,166.6666667,61238ae128da0cdc3fe7a9b6,65d2b6c8f2eece985d8e374c,65d2b9caf340fcf7c13cd3de,0.018,0.018,0,16,16,79,1,eightseven,,,,,,,,,,,,,,,,,,,,,,,,,,,,,,,,,,,,,,,,,,,,,,,,,,,,,,,,,,,,,,,,,,,,,,,,,,,,,,,,,,,,,,,,,,,,,,,,,,,,,,,,,,,,,,,,,,,,,,,,,,,,,,,,,,,,,,,,,
,,61238ae128da0cdc3fe7a9b6,2024-02-19_03h15.52.887,kallum_motion_pilot,2023.2.2,Win32,166.6666667,61238ae128da0cdc3fe7a9b6,65d2b6c8f2eece985d8e374c,65d2b9caf340fcf7c13cd3de,0.018,0.018,0,17,17,160,1,fivesix,,,,,,,,,,,,,,,,,,,,,,,,,,,,,,,,,,,,,,,,,,,,,,,,,,,,,,,,,,,,,,,,,,,,,,,,,,,,,,,,,,,,,,,,,,,,,,,,,,,,,,,,,,,,,,,,,,,,,,,,,,,,,,,,,,,,,,,,,
,,61238ae128da0cdc3fe7a9b6,2024-02-19_03h15.52.887,kallum_motion_pilot,2023.2.2,Win32,166.6666667,61238ae128da0cdc3fe7a9b6,65d2b6c8f2eece985d8e374c,65d2b9caf340fcf7c13cd3de,0.018,0.018,0,18,18,155,1,sixeight,,,,,,,,,,,,,,,,,,,,,,,,,,,,,,,,,,,,,,,,,,,,,,,,,,,,,,,,,,,,,,,,,,,,,,,,,,,,,,,,,,,,,,,,,,,,,,,,,,,,,,,,,,,,,,,,,,,,,,,,,,,,,,,,,,,,,,,,,
,,61238ae128da0cdc3fe7a9b6,2024-02-19_03h15.52.887,kallum_motion_pilot,2023.2.2,Win32,166.6666667,61238ae128da0cdc3fe7a9b6,65d2b6c8f2eece985d8e374c,65d2b9caf340fcf7c13cd3de,0.018,0.018,0,19,19,161,1,fiveseven,,,,,,,,,,,,,,,,,,,,,,,,,,,,,,,,,,,,,,,,,,,,,,,,,,,,,,,,,,,,,,,,,,,,,,,,,,,,,,,,,,,,,,,,,,,,,,,,,,,,,,,,,,,,,,,,,,,,,,,,,,,,,,,,,,,,,,,,,
,,61238ae128da0cdc3fe7a9b6,2024-02-19_03h15.52.887,kallum_motion_pilot,2023.2.2,Win32,166.6666667,61238ae128da0cdc3fe7a9b6,65d2b6c8f2eece985d8e374c,65d2b9caf340fcf7c13cd3de,0.018,0.018,0,20,20,67,1,twofour,,,,,,,,,,,,,,,,,,,,,,,,,,,,,,,,,,,,,,,,,,,,,,,,,,,,,,,,,,,,,,,,,,,,,,,,,,,,,,,,,,,,,,,,,,,,,,,,,,,,,,,,,,,,,,,,,,,,,,,,,,,,,,,,,,,,,,,,,
,,61238ae128da0cdc3fe7a9b6,2024-02-19_03h15.52.887,kallum_motion_pilot,2023.2.2,Win32,166.6666667,61238ae128da0cdc3fe7a9b6,65d2b6c8f2eece985d8e374c,65d2b9caf340fcf7c13cd3de,0.018,0.018,0,21,21,9,1,onethree,,,,,,,,,,,,,,,,,,,,,,,,,,,,,,,,,,,,,,,,,,,,,,,,,,,,,,,,,,,,,,,,,,,,,,,,,,,,,,,,,,,,,,,,,,,,,,,,,,,,,,,,,,,,,,,,,,,,,,,,,,,,,,,,,,,,,,,,,
,,61238ae128da0cdc3fe7a9b6,2024-02-19_03h15.52.887,kallum_motion_pilot,2023.2.2,Win32,166.6666667,61238ae128da0cdc3fe7a9b6,65d2b6c8f2eece985d8e374c,65d2b9caf340fcf7c13cd3de,0.018,0.018,0,22,22,36,1,threeone,,,,,,,,,,,,,,,,,,,,,,,,,,,,,,,,,,,,,,,,,,,,,,,,,,,,,,,,,,,,,,,,,,,,,,,,,,,,,,,,,,,,,,,,,,,,,,,,,,,,,,,,,,,,,,,,,,,,,,,,,,,,,,,,,,,,,,,,,
,,61238ae128da0cdc3fe7a9b6,2024-02-19_03h15.52.887,kallum_motion_pilot,2023.2.2,Win32,166.6666667,61238ae128da0cdc3fe7a9b6,65d2b6c8f2eece985d8e374c,65d2b9caf340fcf7c13cd3de,0.018,0.018,0,23,23,62,1,fourtwo,,,,,,,,,,,,,,,,,,,,,,,,,,,,,,,,,,,,,,,,,,,,,,,,,,,,,,,,,,,,,,,,,,,,,,,,,,,,,,,,,,,,,,,,,,,,,,,,,,,,,,,,,,,,,,,,,,,,,,,,,,,,,,,,,,,,,,,,,
,,61238ae128da0cdc3fe7a9b6,2024-02-19_03h15.52.887,kallum_motion_pilot,2023.2.2,Win32,166.6666667,61238ae128da0cdc3fe7a9b6,65d2b6c8f2eece985d8e374c,65d2b9caf340fcf7c13cd3de,0.018,0.018,0,24,24,6,1,fourtwo,,,,,,,,,,,,,,,,,,,,,,,,,,,,,,,,,,,,,,,,,,,,,,,,,,,,,,,,,,,,,,,,,,,,,,,,,,,,,,,,,,,,,,,,,,,,,,,,,,,,,,,,,,,,,,,,,,,,,,,,,,,,,,,,,,,,,,,,,
,,61238ae128da0cdc3fe7a9b6,2024-02-19_03h15.52.887,kallum_motion_pilot,2023.2.2,Win32,166.6666667,61238ae128da0cdc3fe7a9b6,65d2b6c8f2eece985d8e374c,65d2b9caf340fcf7c13cd3de,0.018,0.019,0,25,25,78,1,fourtwo,,,,,,,,,,,,,,,,,,,,,,,,,,,,,,,,,,,,,,,,,,,,,,,,,,,,,,,,,,,,,,,,,,,,,,,,,,,,,,,,,,,,,,,,,,,,,,,,,,,,,,,,,,,,,,,,,,,,,,,,,,,,,,,,,,,,,,,,,
,,61238ae128da0cdc3fe7a9b6,2024-02-19_03h15.52.887,kallum_motion_pilot,2023.2.2,Win32,166.6666667,61238ae128da0cdc3fe7a9b6,65d2b6c8f2eece985d8e374c,65d2b9caf340fcf7c13cd3de,0.019,0.019,0,26,26,142,1,eightsix,,,,,,,,,,,,,,,,,,,,,,,,,,,,,,,,,,,,,,,,,,,,,,,,,,,,,,,,,,,,,,,,,,,,,,,,,,,,,,,,,,,,,,,,,,,,,,,,,,,,,,,,,,,,,,,,,,,,,,,,,,,,,,,,,,,,,,,,,
,,61238ae128da0cdc3fe7a9b6,2024-02-19_03h15.52.887,kallum_motion_pilot,2023.2.2,Win32,166.6666667,61238ae128da0cdc3fe7a9b6,65d2b6c8f2eece985d8e374c,65d2b9caf340fcf7c13cd3de,0.019,0.019,0,27,27,64,1,onetwo,,,,,,,,,,,,,,,,,,,,,,,,,,,,,,,,,,,,,,,,,,,,,,,,,,,,,,,,,,,,,,,,,,,,,,,,,,,,,,,,,,,,,,,,,,,,,,,,,,,,,,,,,,,,,,,,,,,,,,,,,,,,,,,,,,,,,,,,,
,,61238ae128da0cdc3fe7a9b6,2024-02-19_03h15.52.887,kallum_motion_pilot,2023.2.2,Win32,166.6666667,61238ae128da0cdc3fe7a9b6,65d2b6c8f2eece985d8e374c,65d2b9caf340fcf7c13cd3de,0.019,0.019,0,28,28,151,1,eightseven,,,,,,,,,,,,,,,,,,,,,,,,,,,,,,,,,,,,,,,,,,,,,,,,,,,,,,,,,,,,,,,,,,,,,,,,,,,,,,,,,,,,,,,,,,,,,,,,,,,,,,,,,,,,,,,,,,,,,,,,,,,,,,,,,,,,,,,,,
,,61238ae128da0cdc3fe7a9b6,2024-02-19_03h15.52.887,kallum_motion_pilot,2023.2.2,Win32,166.6666667,61238ae128da0cdc3fe7a9b6,65d2b6c8f2eece985d8e374c,65d2b9caf340fcf7c13cd3de,0.019,0.019,0,29,29,59,1,twofour,,,,,,,,,,,,,,,,,,,,,,,,,,,,,,,,,,,,,,,,,,,,,,,,,,,,,,,,,,,,,,,,,,,,,,,,,,,,,,,,,,,,,,,,,,,,,,,,,,,,,,,,,,,,,,,,,,,,,,,,,,,,,,,,,,,,,,,,,
,,61238ae128da0cdc3fe7a9b6,2024-02-19_03h15.52.887,kallum_motion_pilot,2023.2.2,Win32,166.6666667,61238ae128da0cdc3fe7a9b6,65d2b6c8f2eece985d8e374c,65d2b9caf340fcf7c13cd3de,0.019,0.02,0,30,30,27,1,twofour,,,,,,,,,,,,,,,,,,,,,,,,,,,,,,,,,,,,,,,,,,,,,,,,,,,,,,,,,,,,,,,,,,,,,,,,,,,,,,,,,,,,,,,,,,,,,,,,,,,,,,,,,,,,,,,,,,,,,,,,,,,,,,,,,,,,,,,,,
,,61238ae128da0cdc3fe7a9b6,2024-02-19_03h15.52.887,kallum_motion_pilot,2023.2.2,Win32,166.6666667,61238ae128da0cdc3fe7a9b6,65d2b6c8f2eece985d8e374c,65d2b9caf340fcf7c13cd3de,0.02,0.02,0,31,31,95,1,eightseven,,,,,,,,,,,,,,,,,,,,,,,,,,,,,,,,,,,,,,,,,,,,,,,,,,,,,,,,,,,,,,,,,,,,,,,,,,,,,,,,,,,,,,,,,,,,,,,,,,,,,,,,,,,,,,,,,,,,,,,,,,,,,,,,,,,,,,,,,
,,61238ae128da0cdc3fe7a9b6,2024-02-19_03h15.52.887,kallum_motion_pilot,2023.2.2,Win32,166.6666667,61238ae128da0cdc3fe7a9b6,65d2b6c8f2eece985d8e374c,65d2b9caf340fcf7c13cd3de,0.02,0.02,0,32,32,152,1,fivesix,,,,,,,,,,,,,,,,,,,,,,,,,,,,,,,,,,,,,,,,,,,,,,,,,,,,,,,,,,,,,,,,,,,,,,,,,,,,,,,,,,,,,,,,,,,,,,,,,,,,,,,,,,,,,,,,,,,,,,,,,,,,,,,,,,,,,,,,,
,,61238ae128da0cdc3fe7a9b6,2024-02-19_03h15.52.887,kallum_motion_pilot,2023.2.2,Win32,166.6666667,61238ae128da0cdc3fe7a9b6,65d2b6c8f2eece985d8e374c,65d2b9caf340fcf7c13cd3de,0.02,0.02,0,33,33,58,1,twoone,,,,,,,,,,,,,,,,,,,,,,,,,,,,,,,,,,,,,,,,,,,,,,,,,,,,,,,,,,,,,,,,,,,,,,,,,,,,,,,,,,,,,,,,,,,,,,,,,,,,,,,,,,,,,,,,,,,,,,,,,,,,,,,,,,,,,,,,,
,,61238ae128da0cdc3fe7a9b6,2024-02-19_03h15.52.887,kallum_motion_pilot,2023.2.2,Win32,166.6666667,61238ae128da0cdc3fe7a9b6,65d2b6c8f2eece985d8e374c,65d2b9caf340fcf7c13cd3de,0.02,0.02,0,34,34,133,1,seveneight,,,,,,,,,,,,,,,,,,,,,,,,,,,,,,,,,,,,,,,,,,,,,,,,,,,,,,,,,,,,,,,,,,,,,,,,,,,,,,,,,,,,,,,,,,,,,,,,,,,,,,,,,,,,,,,,,,,,,,,,,,,,,,,,,,,,,,,,,
,,61238ae128da0cdc3fe7a9b6,2024-02-19_03h15.52.887,kallum_motion_pilot,2023.2.2,Win32,166.6666667,61238ae128da0cdc3fe7a9b6,65d2b6c8f2eece985d8e374c,65d2b9caf340fcf7c13cd3de,0.02,0.02,0,35,35,81,1,fiveseven,,,,,,,,,,,,,,,,,,,,,,,,,,,,,,,,,,,,,,,,,,,,,,,,,,,,,,,,,,,,,,,,,,,,,,,,,,,,,,,,,,,,,,,,,,,,,,,,,,,,,,,,,,,,,,,,,,,,,,,,,,,,,,,,,,,,,,,,,
,,61238ae128da0cdc3fe7a9b6,2024-02-19_03h15.52.887,kallum_motion_pilot,2023.2.2,Win32,166.6666667,61238ae128da0cdc3fe7a9b6,65d2b6c8f2eece985d8e374c,65d2b9caf340fcf7c13cd3de,0.02,0.02,0,36,36,21,1,threefour,,,,,,,,,,,,,,,,,,,,,,,,,,,,,,,,,,,,,,,,,,,,,,,,,,,,,,,,,,,,,,,,,,,,,,,,,,,,,,,,,,,,,,,,,,,,,,,,,,,,,,,,,,,,,,,,,,,,,,,,,,,,,,,,,,,,,,,,,
,,61238ae128da0cdc3fe7a9b6,2024-02-19_03h15.52.887,kallum_motion_pilot,2023.2.2,Win32,166.6666667,61238ae128da0cdc3fe7a9b6,65d2b6c8f2eece985d8e374c,65d2b9caf340fcf7c13cd3de,0.02,0.02,0,37,37,71,1,fourthree,,,,,,,,,,,,,,,,,,,,,,,,,,,,,,,,,,,,,,,,,,,,,,,,,,,,,,,,,,,,,,,,,,,,,,,,,,,,,,,,,,,,,,,,,,,,,,,,,,,,,,,,,,,,,,,,,,,,,,,,,,,,,,,,,,,,,,,,,
,,61238ae128da0cdc3fe7a9b6,2024-02-19_03h15.52.887,kallum_motion_pilot,2023.2.2,Win32,166.6666667,61238ae128da0cdc3fe7a9b6,65d2b6c8f2eece985d8e374c,65d2b9caf340fcf7c13cd3de,0.02,0.02,0,38,38,121,1,fiveseven,,,,,,,,,,,,,,,,,,,,,,,,,,,,,,,,,,,,,,,,,,,,,,,,,,,,,,,,,,,,,,,,,,,,,,,,,,,,,,,,,,,,,,,,,,,,,,,,,,,,,,,,,,,,,,,,,,,,,,,,,,,,,,,,,,,,,,,,,
,,61238ae128da0cdc3fe7a9b6,2024-02-19_03h15.52.887,kallum_motion_pilot,2023.2.2,Win32,166.6666667,61238ae128da0cdc3fe7a9b6,65d2b6c8f2eece985d8e374c,65d2b9caf340fcf7c13cd3de,0.02,0.02,0,39,39,33,1,onethree,,,,,,,,,,,,,,,,,,,,,,,,,,,,,,,,,,,,,,,,,,,,,,,,,,,,,,,,,,,,,,,,,,,,,,,,,,,,,,,,,,,,,,,,,,,,,,,,,,,,,,,,,,,,,,,,,,,,,,,,,,,,,,,,,,,,,,,,,
,,61238ae128da0cdc3fe7a9b6,2024-02-19_03h15.52.887,kallum_motion_pilot,2023.2.2,Win32,166.6666667,61238ae128da0cdc3fe7a9b6,65d2b6c8f2eece985d8e374c,65d2b9caf340fcf7c13cd3de,0.02,0.02,0,40,40,135,1,eightseven,,,,,,,,,,,,,,,,,,,,,,,,,,,,,,,,,,,,,,,,,,,,,,,,,,,,,,,,,,,,,,,,,,,,,,,,,,,,,,,,,,,,,,,,,,,,,,,,,,,,,,,,,,,,,,,,,,,,,,,,,,,,,,,,,,,,,,,,,
,,61238ae128da0cdc3fe7a9b6,2024-02-19_03h15.52.887,kallum_motion_pilot,2023.2.2,Win32,166.6666667,61238ae128da0cdc3fe7a9b6,65d2b6c8f2eece985d8e374c,65d2b9caf340fcf7c13cd3de,0.02,0.02,0,41,41,65,1,onethree,,,,,,,,,,,,,,,,,,,,,,,,,,,,,,,,,,,,,,,,,,,,,,,,,,,,,,,,,,,,,,,,,,,,,,,,,,,,,,,,,,,,,,,,,,,,,,,,,,,,,,,,,,,,,,,,,,,,,,,,,,,,,,,,,,,,,,,,,
,,61238ae128da0cdc3fe7a9b6,2024-02-19_03h15.52.887,kallum_motion_pilot,2023.2.2,Win32,166.6666667,61238ae128da0cdc3fe7a9b6,65d2b6c8f2eece985d8e374c,65d2b9caf340fcf7c13cd3de,0.02,0.02,0,42,42,125,1,seveneight,,,,,,,,,,,,,,,,,,,,,,,,,,,,,,,,,,,,,,,,,,,,,,,,,,,,,,,,,,,,,,,,,,,,,,,,,,,,,,,,,,,,,,,,,,,,,,,,,,,,,,,,,,,,,,,,,,,,,,,,,,,,,,,,,,,,,,,,,
,,61238ae128da0cdc3fe7a9b6,2024-02-19_03h15.52.887,kallum_motion_pilot,2023.2.2,Win32,166.6666667,61238ae128da0cdc3fe7a9b6,65d2b6c8f2eece985d8e374c,65d2b9caf340fcf7c13cd3de,0.02,0.02,0,43,43,13,1,threefour,,,,,,,,,,,,,,,,,,,,,,,,,,,,,,,,,,,,,,,,,,,,,,,,,,,,,,,,,,,,,,,,,,,,,,,,,,,,,,,,,,,,,,,,,,,,,,,,,,,,,,,,,,,,,,,,,,,,,,,,,,,,,,,,,,,,,,,,,
,,61238ae128da0cdc3fe7a9b6,2024-02-19_03h15.52.887,kallum_motion_pilot,2023.2.2,Win32,166.6666667,61238ae128da0cdc3fe7a9b6,65d2b6c8f2eece985d8e374c,65d2b9caf340fcf7c13cd3de,0.02,0.02,0,44,44,18,1,twoone,,,,,,,,,,,,,,,,,,,,,,,,,,,,,,,,,,,,,,,,,,,,,,,,,,,,,,,,,,,,,,,,,,,,,,,,,,,,,,,,,,,,,,,,,,,,,,,,,,,,,,,,,,,,,,,,,,,,,,,,,,,,,,,,,,,,,,,,,
,,61238ae128da0cdc3fe7a9b6,2024-02-19_03h15.52.887,kallum_motion_pilot,2023.2.2,Win32,166.6666667,61238ae128da0cdc3fe7a9b6,65d2b6c8f2eece985d8e374c,65d2b9caf340fcf7c13cd3de,0.02,0.02,0,45,45,10,1,twoone,,,,,,,,,,,,,,,,,,,,,,,,,,,,,,,,,,,,,,,,,,,,,,,,,,,,,,,,,,,,,,,,,,,,,,,,,,,,,,,,,,,,,,,,,,,,,,,,,,,,,,,,,,,,,,,,,,,,,,,,,,,,,,,,,,,,,,,,,
,,61238ae128da0cdc3fe7a9b6,2024-02-19_03h15.52.887,kallum_motion_pilot,2023.2.2,Win32,166.6666667,61238ae128da0cdc3fe7a9b6,65d2b6c8f2eece985d8e374c,65d2b9caf340fcf7c13cd3de,0.02,0.02,0,46,46,25,1,onethree,,,,,,,,,,,,,,,,,,,,,,,,,,,,,,,,,,,,,,,,,,,,,,,,,,,,,,,,,,,,,,,,,,,,,,,,,,,,,,,,,,,,,,,,,,,,,,,,,,,,,,,,,,,,,,,,,,,,,,,,,,,,,,,,,,,,,,,,,
,,61238ae128da0cdc3fe7a9b6,2024-02-19_03h15.52.887,kallum_motion_pilot,2023.2.2,Win32,166.6666667,61238ae128da0cdc3fe7a9b6,65d2b6c8f2eece985d8e374c,65d2b9caf340fcf7c13cd3de,0.02,0.021,0,47,47,150,1,eightsix,,,,,,,,,,,,,,,,,,,,,,,,,,,,,,,,,,,,,,,,,,,,,,,,,,,,,,,,,,,,,,,,,,,,,,,,,,,,,,,,,,,,,,,,,,,,,,,,,,,,,,,,,,,,,,,,,,,,,,,,,,,,,,,,,,,,,,,,,
,,61238ae128da0cdc3fe7a9b6,2024-02-19_03h15.52.887,kallum_motion_pilot,2023.2.2,Win32,166.6666667,61238ae128da0cdc3fe7a9b6,65d2b6c8f2eece985d8e374c,65d2b9caf340fcf7c13cd3de,0.021,0.021,0,48,48,115,1,sixeight,,,,,,,,,,,,,,,,,,,,,,,,,,,,,,,,,,,,,,,,,,,,,,,,,,,,,,,,,,,,,,,,,,,,,,,,,,,,,,,,,,,,,,,,,,,,,,,,,,,,,,,,,,,,,,,,,,,,,,,,,,,,,,,,,,,,,,,,,
,,61238ae128da0cdc3fe7a9b6,2024-02-19_03h15.52.887,kallum_motion_pilot,2023.2.2,Win32,166.6666667,61238ae128da0cdc3fe7a9b6,65d2b6c8f2eece985d8e374c,65d2b9caf340fcf7c13cd3de,0.021,0.021,0,49,49,134,1,eightsix,,,,,,,,,,,,,,,,,,,,,,,,,,,,,,,,,,,,,,,,,,,,,,,,,,,,,,,,,,,,,,,,,,,,,,,,,,,,,,,,,,,,,,,,,,,,,,,,,,,,,,,,,,,,,,,,,,,,,,,,,,,,,,,,,,,,,,,,,
,,61238ae128da0cdc3fe7a9b6,2024-02-19_03h15.52.887,kallum_motion_pilot,2023.2.2,Win32,166.6666667,61238ae128da0cdc3fe7a9b6,65d2b6c8f2eece985d8e374c,65d2b9caf340fcf7c13cd3de,0.021,0.021,0,50,50,84,1,sevenfive,,,,,,,,,,,,,,,,,,,,,,,,,,,,,,,,,,,,,,,,,,,,,,,,,,,,,,,,,,,,,,,,,,,,,,,,,,,,,,,,,,,,,,,,,,,,,,,,,,,,,,,,,,,,,,,,,,,,,,,,,,,,,,,,,,,,,,,,,
,,61238ae128da0cdc3fe7a9b6,2024-02-19_03h15.52.887,kallum_motion_pilot,2023.2.2,Win32,166.6666667,61238ae128da0cdc3fe7a9b6,65d2b6c8f2eece985d8e374c,65d2b9caf340fcf7c13cd3de,0.021,0.021,0,51,51,113,1,fiveseven,,,,,,,,,,,,,,,,,,,,,,,,,,,,,,,,,,,,,,,,,,,,,,,,,,,,,,,,,,,,,,,,,,,,,,,,,,,,,,,,,,,,,,,,,,,,,,,,,,,,,,,,,,,,,,,,,,,,,,,,,,,,,,,,,,,,,,,,,
,,61238ae128da0cdc3fe7a9b6,2024-02-19_03h15.52.887,kallum_motion_pilot,2023.2.2,Win32,166.6666667,61238ae128da0cdc3fe7a9b6,65d2b6c8f2eece985d8e374c,65d2b9caf340fcf7c13cd3de,0.021,0.021,0,52,52,22,1,fourtwo,,,,,,,,,,,,,,,,,,,,,,,,,,,,,,,,,,,,,,,,,,,,,,,,,,,,,,,,,,,,,,,,,,,,,,,,,,,,,,,,,,,,,,,,,,,,,,,,,,,,,,,,,,,,,,,,,,,,,,,,,,,,,,,,,,,,,,,,,
,,61238ae128da0cdc3fe7a9b6,2024-02-19_03h15.52.887,kallum_motion_pilot,2023.2.2,Win32,166.6666667,61238ae128da0cdc3fe7a9b6,65d2b6c8f2eece985d8e374c,65d2b9caf340fcf7c13cd3de,0.021,0.021,0,53,53,114,1,sixfive,,,,,,,,,,,,,,,,,,,,,,,,,,,,,,,,,,,,,,,,,,,,,,,,,,,,,,,,,,,,,,,,,,,,,,,,,,,,,,,,,,,,,,,,,,,,,,,,,,,,,,,,,,,,,,,,,,,,,,,,,,,,,,,,,,,,,,,,,
,,61238ae128da0cdc3fe7a9b6,2024-02-19_03h15.52.887,kallum_motion_pilot,2023.2.2,Win32,166.6666667,61238ae128da0cdc3fe7a9b6,65d2b6c8f2eece985d8e374c,65d2b9caf340fcf7c13cd3de,0.021,0.021,0,54,54,63,1,fourthree,,,,,,,,,,,,,,,,,,,,,,,,,,,,,,,,,,,,,,,,,,,,,,,,,,,,,,,,,,,,,,,,,,,,,,,,,,,,,,,,,,,,,,,,,,,,,,,,,,,,,,,,,,,,,,,,,,,,,,,,,,,,,,,,,,,,,,,,,
,,61238ae128da0cdc3fe7a9b6,2024-02-19_03h15.52.887,kallum_motion_pilot,2023.2.2,Win32,166.6666667,61238ae128da0cdc3fe7a9b6,65d2b6c8f2eece985d8e374c,65d2b9caf340fcf7c13cd3de,0.021,0.021,0,55,55,96,1,fivesix,,,,,,,,,,,,,,,,,,,,,,,,,,,,,,,,,,,,,,,,,,,,,,,,,,,,,,,,,,,,,,,,,,,,,,,,,,,,,,,,,,,,,,,,,,,,,,,,,,,,,,,,,,,,,,,,,,,,,,,,,,,,,,,,,,,,,,,,,
,,61238ae128da0cdc3fe7a9b6,2024-02-19_03h15.52.887,kallum_motion_pilot,2023.2.2,Win32,166.6666667,61238ae128da0cdc3fe7a9b6,65d2b6c8f2eece985d8e374c,65d2b9caf340fcf7c13cd3de,0.021,0.021,0,56,56,87,1,eightseven,,,,,,,,,,,,,,,,,,,,,,,,,,,,,,,,,,,,,,,,,,,,,,,,,,,,,,,,,,,,,,,,,,,,,,,,,,,,,,,,,,,,,,,,,,,,,,,,,,,,,,,,,,,,,,,,,,,,,,,,,,,,,,,,,,,,,,,,,
,,61238ae128da0cdc3fe7a9b6,2024-02-19_03h15.52.887,kallum_motion_pilot,2023.2.2,Win32,166.6666667,61238ae128da0cdc3fe7a9b6,65d2b6c8f2eece985d8e374c,65d2b9caf340fcf7c13cd3de,0.021,0.021,0,57,57,17,1,onethree,,,,,,,,,,,,,,,,,,,,,,,,,,,,,,,,,,,,,,,,,,,,,,,,,,,,,,,,,,,,,,,,,,,,,,,,,,,,,,,,,,,,,,,,,,,,,,,,,,,,,,,,,,,,,,,,,,,,,,,,,,,,,,,,,,,,,,,,,
,,61238ae128da0cdc3fe7a9b6,2024-02-19_03h15.52.887,kallum_motion_pilot,2023.2.2,Win32,166.6666667,61238ae128da0cdc3fe7a9b6,65d2b6c8f2eece985d8e374c,65d2b9caf340fcf7c13cd3de,0.021,0.021,0,58,58,47,1,fourthree,,,,,,,,,,,,,,,,,,,,,,,,,,,,,,,,,,,,,,,,,,,,,,,,,,,,,,,,,,,,,,,,,,,,,,,,,,,,,,,,,,,,,,,,,,,,,,,,,,,,,,,,,,,,,,,,,,,,,,,,,,,,,,,,,,,,,,,,,
,,61238ae128da0cdc3fe7a9b6,2024-02-19_03h15.52.887,kallum_motion_pilot,2023.2.2,Win32,166.6666667,61238ae128da0cdc3fe7a9b6,65d2b6c8f2eece985d8e374c,65d2b9caf340fcf7c13cd3de,0.021,0.021,0,59,59,56,1,onetwo,,,,,,,,,,,,,,,,,,,,,,,,,,,,,,,,,,,,,,,,,,,,,,,,,,,,,,,,,,,,,,,,,,,,,,,,,,,,,,,,,,,,,,,,,,,,,,,,,,,,,,,,,,,,,,,,,,,,,,,,,,,,,,,,,,,,,,,,,
,,61238ae128da0cdc3fe7a9b6,2024-02-19_03h15.52.887,kallum_motion_pilot,2023.2.2,Win32,166.6666667,61238ae128da0cdc3fe7a9b6,65d2b6c8f2eece985d8e374c,65d2b9caf340fcf7c13cd3de,0.021,0.021,0,60,60,20,1,threeone,,,,,,,,,,,,,,,,,,,,,,,,,,,,,,,,,,,,,,,,,,,,,,,,,,,,,,,,,,,,,,,,,,,,,,,,,,,,,,,,,,,,,,,,,,,,,,,,,,,,,,,,,,,,,,,,,,,,,,,,,,,,,,,,,,,,,,,,,
,,61238ae128da0cdc3fe7a9b6,2024-02-19_03h15.52.887,kallum_motion_pilot,2023.2.2,Win32,166.6666667,61238ae128da0cdc3fe7a9b6,65d2b6c8f2eece985d8e374c,65d2b9caf340fcf7c13cd3de,0.021,0.021,0,61,61,132,1,sevenfive,,,,,,,,,,,,,,,,,,,,,,,,,,,,,,,,,,,,,,,,,,,,,,,,,,,,,,,,,,,,,,,,,,,,,,,,,,,,,,,,,,,,,,,,,,,,,,,,,,,,,,,,,,,,,,,,,,,,,,,,,,,,,,,,,,,,,,,,,
,,61238ae128da0cdc3fe7a9b6,2024-02-19_03h15.52.887,kallum_motion_pilot,2023.2.2,Win32,166.6666667,61238ae128da0cdc3fe7a9b6,65d2b6c8f2eece985d8e374c,65d2b9caf340fcf7c13cd3de,0.021,0.021,0,62,62,49,1,onethree,,,,,,,,,,,,,,,,,,,,,,,,,,,,,,,,,,,,,,,,,,,,,,,,,,,,,,,,,,,,,,,,,,,,,,,,,,,,,,,,,,,,,,,,,,,,,,,,,,,,,,,,,,,,,,,,,,,,,,,,,,,,,,,,,,,,,,,,,
,,61238ae128da0cdc3fe7a9b6,2024-02-19_03h15.52.887,kallum_motion_pilot,2023.2.2,Win32,166.6666667,61238ae128da0cdc3fe7a9b6,65d2b6c8f2eece985d8e374c,65d2b9caf340fcf7c13cd3de,0.021,0.021,0,63,63,94,1,eightsix,,,,,,,,,,,,,,,,,,,,,,,,,,,,,,,,,,,,,,,,,,,,,,,,,,,,,,,,,,,,,,,,,,,,,,,,,,,,,,,,,,,,,,,,,,,,,,,,,,,,,,,,,,,,,,,,,,,,,,,,,,,,,,,,,,,,,,,,,
,,61238ae128da0cdc3fe7a9b6,2024-02-19_03h15.52.887,kallum_motion_pilot,2023.2.2,Win32,166.6666667,61238ae128da0cdc3fe7a9b6,65d2b6c8f2eece985d8e374c,65d2b9caf340fcf7c13cd3de,0.021,0.021,0,64,64,143,1,eightseven,,,,,,,,,,,,,,,,,,,,,,,,,,,,,,,,,,,,,,,,,,,,,,,,,,,,,,,,,,,,,,,,,,,,,,,,,,,,,,,,,,,,,,,,,,,,,,,,,,,,,,,,,,,,,,,,,,,,,,,,,,,,,,,,,,,,,,,,,
,,61238ae128da0cdc3fe7a9b6,2024-02-19_03h15.52.887,kallum_motion_pilot,2023.2.2,Win32,166.6666667,61238ae128da0cdc3fe7a9b6,65d2b6c8f2eece985d8e374c,65d2b9caf340fcf7c13cd3de,0.021,0.021,0,65,65,149,1,seveneight,,,,,,,,,,,,,,,,,,,,,,,,,,,,,,,,,,,,,,,,,,,,,,,,,,,,,,,,,,,,,,,,,,,,,,,,,,,,,,,,,,,,,,,,,,,,,,,,,,,,,,,,,,,,,,,,,,,,,,,,,,,,,,,,,,,,,,,,,
,,61238ae128da0cdc3fe7a9b6,2024-02-19_03h15.52.887,kallum_motion_pilot,2023.2.2,Win32,166.6666667,61238ae128da0cdc3fe7a9b6,65d2b6c8f2eece985d8e374c,65d2b9caf340fcf7c13cd3de,0.021,0.021,0,66,66,120,1,fivesix,,,,,,,,,,,,,,,,,,,,,,,,,,,,,,,,,,,,,,,,,,,,,,,,,,,,,,,,,,,,,,,,,,,,,,,,,,,,,,,,,,,,,,,,,,,,,,,,,,,,,,,,,,,,,,,,,,,,,,,,,,,,,,,,,,,,,,,,,
,,61238ae128da0cdc3fe7a9b6,2024-02-19_03h15.52.887,kallum_motion_pilot,2023.2.2,Win32,166.6666667,61238ae128da0cdc3fe7a9b6,65d2b6c8f2eece985d8e374c,65d2b9caf340fcf7c13cd3de,0.021,0.021,0,67,67,93,1,seveneight,,,,,,,,,,,,,,,,,,,,,,,,,,,,,,,,,,,,,,,,,,,,,,,,,,,,,,,,,,,,,,,,,,,,,,,,,,,,,,,,,,,,,,,,,,,,,,,,,,,,,,,,,,,,,,,,,,,,,,,,,,,,,,,,,,,,,,,,,
,,61238ae128da0cdc3fe7a9b6,2024-02-19_03h15.52.887,kallum_motion_pilot,2023.2.2,Win32,166.6666667,61238ae128da0cdc3fe7a9b6,65d2b6c8f2eece985d8e374c,65d2b9caf340fcf7c13cd3de,0.021,0.021,0,68,68,19,1,twofour,,,,,,,,,,,,,,,,,,,,,,,,,,,,,,,,,,,,,,,,,,,,,,,,,,,,,,,,,,,,,,,,,,,,,,,,,,,,,,,,,,,,,,,,,,,,,,,,,,,,,,,,,,,,,,,,,,,,,,,,,,,,,,,,,,,,,,,,,
,,61238ae128da0cdc3fe7a9b6,2024-02-19_03h15.52.887,kallum_motion_pilot,2023.2.2,Win32,166.6666667,61238ae128da0cdc3fe7a9b6,65d2b6c8f2eece985d8e374c,65d2b9caf340fcf7c13cd3de,0.021,0.021,0,69,69,48,1,onetwo,,,,,,,,,,,,,,,,,,,,,,,,,,,,,,,,,,,,,,,,,,,,,,,,,,,,,,,,,,,,,,,,,,,,,,,,,,,,,,,,,,,,,,,,,,,,,,,,,,,,,,,,,,,,,,,,,,,,,,,,,,,,,,,,,,,,,,,,,
,,61238ae128da0cdc3fe7a9b6,2024-02-19_03h15.52.887,kallum_motion_pilot,2023.2.2,Win32,166.6666667,61238ae128da0cdc3fe7a9b6,65d2b6c8f2eece985d8e374c,65d2b9caf340fcf7c13cd3de,0.021,0.021,0,70,70,101,1,seveneight,,,,,,,,,,,,,,,,,,,,,,,,,,,,,,,,,,,,,,,,,,,,,,,,,,,,,,,,,,,,,,,,,,,,,,,,,,,,,,,,,,,,,,,,,,,,,,,,,,,,,,,,,,,,,,,,,,,,,,,,,,,,,,,,,,,,,,,,,
,,61238ae128da0cdc3fe7a9b6,2024-02-19_03h15.52.887,kallum_motion_pilot,2023.2.2,Win32,166.6666667,61238ae128da0cdc3fe7a9b6,65d2b6c8f2eece985d8e374c,65d2b9caf340fcf7c13cd3de,0.021,0.021,0,71,71,34,1,twoone,,,,,,,,,,,,,,,,,,,,,,,,,,,,,,,,,,,,,,,,,,,,,,,,,,,,,,,,,,,,,,,,,,,,,,,,,,,,,,,,,,,,,,,,,,,,,,,,,,,,,,,,,,,,,,,,,,,,,,,,,,,,,,,,,,,,,,,,,
,,61238ae128da0cdc3fe7a9b6,2024-02-19_03h15.52.887,kallum_motion_pilot,2023.2.2,Win32,166.6666667,61238ae128da0cdc3fe7a9b6,65d2b6c8f2eece985d8e374c,65d2b9caf340fcf7c13cd3de,0.021,0.021,0,72,72,92,1,sevenfive,,,,,,,,,,,,,,,,,,,,,,,,,,,,,,,,,,,,,,,,,,,,,,,,,,,,,,,,,,,,,,,,,,,,,,,,,,,,,,,,,,,,,,,,,,,,,,,,,,,,,,,,,,,,,,,,,,,,,,,,,,,,,,,,,,,,,,,,,
,,61238ae128da0cdc3fe7a9b6,2024-02-19_03h15.52.887,kallum_motion_pilot,2023.2.2,Win32,166.6666667,61238ae128da0cdc3fe7a9b6,65d2b6c8f2eece985d8e374c,65d2b9caf340fcf7c13cd3de,0.021,0.021,0,73,73,104,1,fivesix,,,,,,,,,,,,,,,,,,,,,,,,,,,,,,,,,,,,,,,,,,,,,,,,,,,,,,,,,,,,,,,,,,,,,,,,,,,,,,,,,,,,,,,,,,,,,,,,,,,,,,,,,,,,,,,,,,,,,,,,,,,,,,,,,,,,,,,,,
,,61238ae128da0cdc3fe7a9b6,2024-02-19_03h15.52.887,kallum_motion_pilot,2023.2.2,Win32,166.6666667,61238ae128da0cdc3fe7a9b6,65d2b6c8f2eece985d8e374c,65d2b9caf340fcf7c13cd3de,0.021,0.021,0,74,74,153,1,fiveseven,,,,,,,,,,,,,,,,,,,,,,,,,,,,,,,,,,,,,,,,,,,,,,,,,,,,,,,,,,,,,,,,,,,,,,,,,,,,,,,,,,,,,,,,,,,,,,,,,,,,,,,,,,,,,,,,,,,,,,,,,,,,,,,,,,,,,,,,,
,,61238ae128da0cdc3fe7a9b6,2024-02-19_03h15.52.887,kallum_motion_pilot,2023.2.2,Win32,166.6666667,61238ae128da0cdc3fe7a9b6,65d2b6c8f2eece985d8e374c,65d2b9caf340fcf7c13cd3de,0.021,0.021,0,75,75,105,1,fiveseven,,,,,,,,,,,,,,,,,,,,,,,,,,,,,,,,,,,,,,,,,,,,,,,,,,,,,,,,,,,,,,,,,,,,,,,,,,,,,,,,,,,,,,,,,,,,,,,,,,,,,,,,,,,,,,,,,,,,,,,,,,,,,,,,,,,,,,,,,
,,61238ae128da0cdc3fe7a9b6,2024-02-19_03h15.52.887,kallum_motion_pilot,2023.2.2,Win32,166.6666667,61238ae128da0cdc3fe7a9b6,65d2b6c8f2eece985d8e374c,65d2b9caf340fcf7c13cd3de,0.021,0.021,0,76,76,39,1,fourthree,,,,,,,,,,,,,,,,,,,,,,,,,,,,,,,,,,,,,,,,,,,,,,,,,,,,,,,,,,,,,,,,,,,,,,,,,,,,,,,,,,,,,,,,,,,,,,,,,,,,,,,,,,,,,,,,,,,,,,,,,,,,,,,,,,,,,,,,,
,,61238ae128da0cdc3fe7a9b6,2024-02-19_03h15.52.887,kallum_motion_pilot,2023.2.2,Win32,166.6666667,61238ae128da0cdc3fe7a9b6,65d2b6c8f2eece985d8e374c,65d2b9caf340fcf7c13cd3de,0.021,0.021,0,77,77,128,1,fivesix,,,,,,,,,,,,,,,,,,,,,,,,,,,,,,,,,,,,,,,,,,,,,,,,,,,,,,,,,,,,,,,,,,,,,,,,,,,,,,,,,,,,,,,,,,,,,,,,,,,,,,,,,,,,,,,,,,,,,,,,,,,,,,,,,,,,,,,,,
,,61238ae128da0cdc3fe7a9b6,2024-02-19_03h15.52.887,kallum_motion_pilot,2023.2.2,Win32,166.6666667,61238ae128da0cdc3fe7a9b6,65d2b6c8f2eece985d8e374c,65d2b9caf340fcf7c13cd3de,0.022,0.022,0,78,78,140,1,sevenfive,,,,,,,,,,,,,,,,,,,,,,,,,,,,,,,,,,,,,,,,,,,,,,,,,,,,,,,,,,,,,,,,,,,,,,,,,,,,,,,,,,,,,,,,,,,,,,,,,,,,,,,,,,,,,,,,,,,,,,,,,,,,,,,,,,,,,,,,,
,,61238ae128da0cdc3fe7a9b6,2024-02-19_03h15.52.887,kallum_motion_pilot,2023.2.2,Win32,166.6666667,61238ae128da0cdc3fe7a9b6,65d2b6c8f2eece985d8e374c,65d2b9caf340fcf7c13cd3de,0.022,0.022,0,79,79,61,1,threefour,,,,,,,,,,,,,,,,,,,,,,,,,,,,,,,,,,,,,,,,,,,,,,,,,,,,,,,,,,,,,,,,,,,,,,,,,,,,,,,,,,,,,,,,,,,,,,,,,,,,,,,,,,,,,,,,,,,,,,,,,,,,,,,,,,,,,,,,,
,,61238ae128da0cdc3fe7a9b6,2024-02-19_03h15.52.887,kallum_motion_pilot,2023.2.2,Win32,166.6666667,61238ae128da0cdc3fe7a9b6,65d2b6c8f2eece985d8e374c,65d2b9caf340fcf7c13cd3de,0.022,0.022,0,80,80,0,1,onetwo,,,,,,,,,,,,,,,,,,,,,,,,,,,,,,,,,,,,,,,,,,,,,,,,,,,,,,,,,,,,,,,,,,,,,,,,,,,,,,,,,,,,,,,,,,,,,,,,,,,,,,,,,,,,,,,,,,,,,,,,,,,,,,,,,,,,,,,,,
,,61238ae128da0cdc3fe7a9b6,2024-02-19_03h15.52.887,kallum_motion_pilot,2023.2.2,Win32,166.6666667,61238ae128da0cdc3fe7a9b6,65d2b6c8f2eece985d8e374c,65d2b9caf340fcf7c13cd3de,0.022,0.023,0,81,81,16,1,onetwo,,,,,,,,,,,,,,,,,,,,,,,,,,,,,,,,,,,,,,,,,,,,,,,,,,,,,,,,,,,,,,,,,,,,,,,,,,,,,,,,,,,,,,,,,,,,,,,,,,,,,,,,,,,,,,,,,,,,,,,,,,,,,,,,,,,,,,,,,
,,61238ae128da0cdc3fe7a9b6,2024-02-19_03h15.52.887,kallum_motion_pilot,2023.2.2,Win32,166.6666667,61238ae128da0cdc3fe7a9b6,65d2b6c8f2eece985d8e374c,65d2b9caf340fcf7c13cd3de,0.023,0.023,0,82,82,138,1,sixfive,,,,,,,,,,,,,,,,,,,,,,,,,,,,,,,,,,,,,,,,,,,,,,,,,,,,,,,,,,,,,,,,,,,,,,,,,,,,,,,,,,,,,,,,,,,,,,,,,,,,,,,,,,,,,,,,,,,,,,,,,,,,,,,,,,,,,,,,,
,,61238ae128da0cdc3fe7a9b6,2024-02-19_03h15.52.887,kallum_motion_pilot,2023.2.2,Win32,166.6666667,61238ae128da0cdc3fe7a9b6,65d2b6c8f2eece985d8e374c,65d2b9caf340fcf7c13cd3de,0.023,0.023,0,83,83,82,1,sixfive,,,,,,,,,,,,,,,,,,,,,,,,,,,,,,,,,,,,,,,,,,,,,,,,,,,,,,,,,,,,,,,,,,,,,,,,,,,,,,,,,,,,,,,,,,,,,,,,,,,,,,,,,,,,,,,,,,,,,,,,,,,,,,,,,,,,,,,,,
,,61238ae128da0cdc3fe7a9b6,2024-02-19_03h15.52.887,kallum_motion_pilot,2023.2.2,Win32,166.6666667,61238ae128da0cdc3fe7a9b6,65d2b6c8f2eece985d8e374c,65d2b9caf340fcf7c13cd3de,0.023,0.023,0,84,84,8,1,onetwo,,,,,,,,,,,,,,,,,,,,,,,,,,,,,,,,,,,,,,,,,,,,,,,,,,,,,,,,,,,,,,,,,,,,,,,,,,,,,,,,,,,,,,,,,,,,,,,,,,,,,,,,,,,,,,,,,,,,,,,,,,,,,,,,,,,,,,,,,
,,61238ae128da0cdc3fe7a9b6,2024-02-19_03h15.52.887,kallum_motion_pilot,2023.2.2,Win32,166.6666667,61238ae128da0cdc3fe7a9b6,65d2b6c8f2eece985d8e374c,65d2b9caf340fcf7c13cd3de,0.023,0.023,0,85,85,117,1,seveneight,,,,,,,,,,,,,,,,,,,,,,,,,,,,,,,,,,,,,,,,,,,,,,,,,,,,,,,,,,,,,,,,,,,,,,,,,,,,,,,,,,,,,,,,,,,,,,,,,,,,,,,,,,,,,,,,,,,,,,,,,,,,,,,,,,,,,,,,,
,,61238ae128da0cdc3fe7a9b6,2024-02-19_03h15.52.887,kallum_motion_pilot,2023.2.2,Win32,166.6666667,61238ae128da0cdc3fe7a9b6,65d2b6c8f2eece985d8e374c,65d2b9caf340fcf7c13cd3de,0.023,0.023,0,86,86,131,1,sixeight,,,,,,,,,,,,,,,,,,,,,,,,,,,,,,,,,,,,,,,,,,,,,,,,,,,,,,,,,,,,,,,,,,,,,,,,,,,,,,,,,,,,,,,,,,,,,,,,,,,,,,,,,,,,,,,,,,,,,,,,,,,,,,,,,,,,,,,,,
,,61238ae128da0cdc3fe7a9b6,2024-02-19_03h15.52.887,kallum_motion_pilot,2023.2.2,Win32,166.6666667,61238ae128da0cdc3fe7a9b6,65d2b6c8f2eece985d8e374c,65d2b9caf340fcf7c13cd3de,0.023,0.023,0,87,87,60,1,threeone,,,,,,,,,,,,,,,,,,,,,,,,,,,,,,,,,,,,,,,,,,,,,,,,,,,,,,,,,,,,,,,,,,,,,,,,,,,,,,,,,,,,,,,,,,,,,,,,,,,,,,,,,,,,,,,,,,,,,,,,,,,,,,,,,,,,,,,,,
,,61238ae128da0cdc3fe7a9b6,2024-02-19_03h15.52.887,kallum_motion_pilot,2023.2.2,Win32,166.6666667,61238ae128da0cdc3fe7a9b6,65d2b6c8f2eece985d8e374c,65d2b9caf340fcf7c13cd3de,0.023,0.023,0,88,88,41,1,onethree,,,,,,,,,,,,,,,,,,,,,,,,,,,,,,,,,,,,,,,,,,,,,,,,,,,,,,,,,,,,,,,,,,,,,,,,,,,,,,,,,,,,,,,,,,,,,,,,,,,,,,,,,,,,,,,,,,,,,,,,,,,,,,,,,,,,,,,,,
,,61238ae128da0cdc3fe7a9b6,2024-02-19_03h15.52.887,kallum_motion_pilot,2023.2.2,Win32,166.6666667,61238ae128da0cdc3fe7a9b6,65d2b6c8f2eece985d8e374c,65d2b9caf340fcf7c13cd3de,0.023,0.023,0,89,89,86,1,eightsix,,,,,,,,,,,,,,,,,,,,,,,,,,,,,,,,,,,,,,,,,,,,,,,,,,,,,,,,,,,,,,,,,,,,,,,,,,,,,,,,,,,,,,,,,,,,,,,,,,,,,,,,,,,,,,,,,,,,,,,,,,,,,,,,,,,,,,,,,
,,61238ae128da0cdc3fe7a9b6,2024-02-19_03h15.52.887,kallum_motion_pilot,2023.2.2,Win32,166.6666667,61238ae128da0cdc3fe7a9b6,65d2b6c8f2eece985d8e374c,65d2b9caf340fcf7c13cd3de,0.023,0.023,0,90,90,74,1,twoone,,,,,,,,,,,,,,,,,,,,,,,,,,,,,,,,,,,,,,,,,,,,,,,,,,,,,,,,,,,,,,,,,,,,,,,,,,,,,,,,,,,,,,,,,,,,,,,,,,,,,,,,,,,,,,,,,,,,,,,,,,,,,,,,,,,,,,,,,
,,61238ae128da0cdc3fe7a9b6,2024-02-19_03h15.52.887,kallum_motion_pilot,2023.2.2,Win32,166.6666667,61238ae128da0cdc3fe7a9b6,65d2b6c8f2eece985d8e374c,65d2b9caf340fcf7c13cd3de,0.023,0.023,0,91,91,98,1,sixfive,,,,,,,,,,,,,,,,,,,,,,,,,,,,,,,,,,,,,,,,,,,,,,,,,,,,,,,,,,,,,,,,,,,,,,,,,,,,,,,,,,,,,,,,,,,,,,,,,,,,,,,,,,,,,,,,,,,,,,,,,,,,,,,,,,,,,,,,,
,,61238ae128da0cdc3fe7a9b6,2024-02-19_03h15.52.887,kallum_motion_pilot,2023.2.2,Win32,166.6666667,61238ae128da0cdc3fe7a9b6,65d2b6c8f2eece985d8e374c,65d2b9caf340fcf7c13cd3de,0.023,0.023,0,92,92,107,1,sixeight,,,,,,,,,,,,,,,,,,,,,,,,,,,,,,,,,,,,,,,,,,,,,,,,,,,,,,,,,,,,,,,,,,,,,,,,,,,,,,,,,,,,,,,,,,,,,,,,,,,,,,,,,,,,,,,,,,,,,,,,,,,,,,,,,,,,,,,,,
,,61238ae128da0cdc3fe7a9b6,2024-02-19_03h15.52.887,kallum_motion_pilot,2023.2.2,Win32,166.6666667,61238ae128da0cdc3fe7a9b6,65d2b6c8f2eece985d8e374c,65d2b9caf340fcf7c13cd3de,0.023,0.023,0,93,93,111,1,eightseven,,,,,,,,,,,,,,,,,,,,,,,,,,,,,,,,,,,,,,,,,,,,,,,,,,,,,,,,,,,,,,,,,,,,,,,,,,,,,,,,,,,,,,,,,,,,,,,,,,,,,,,,,,,,,,,,,,,,,,,,,,,,,,,,,,,,,,,,,
,,61238ae128da0cdc3fe7a9b6,2024-02-19_03h15.52.887,kallum_motion_pilot,2023.2.2,Win32,166.6666667,61238ae128da0cdc3fe7a9b6,65d2b6c8f2eece985d8e374c,65d2b9caf340fcf7c13cd3de,0.023,0.023,0,94,94,127,1,eightseven,,,,,,,,,,,,,,,,,,,,,,,,,,,,,,,,,,,,,,,,,,,,,,,,,,,,,,,,,,,,,,,,,,,,,,,,,,,,,,,,,,,,,,,,,,,,,,,,,,,,,,,,,,,,,,,,,,,,,,,,,,,,,,,,,,,,,,,,,
,,61238ae128da0cdc3fe7a9b6,2024-02-19_03h15.52.887,kallum_motion_pilot,2023.2.2,Win32,166.6666667,61238ae128da0cdc3fe7a9b6,65d2b6c8f2eece985d8e374c,65d2b9caf340fcf7c13cd3de,0.023,0.023,0,95,95,112,1,fivesix,,,,,,,,,,,,,,,,,,,,,,,,,,,,,,,,,,,,,,,,,,,,,,,,,,,,,,,,,,,,,,,,,,,,,,,,,,,,,,,,,,,,,,,,,,,,,,,,,,,,,,,,,,,,,,,,,,,,,,,,,,,,,,,,,,,,,,,,,
,,61238ae128da0cdc3fe7a9b6,2024-02-19_03h15.52.887,kallum_motion_pilot,2023.2.2,Win32,166.6666667,61238ae128da0cdc3fe7a9b6,65d2b6c8f2eece985d8e374c,65d2b9caf340fcf7c13cd3de,0.024,0.024,0,96,96,97,1,fiveseven,,,,,,,,,,,,,,,,,,,,,,,,,,,,,,,,,,,,,,,,,,,,,,,,,,,,,,,,,,,,,,,,,,,,,,,,,,,,,,,,,,,,,,,,,,,,,,,,,,,,,,,,,,,,,,,,,,,,,,,,,,,,,,,,,,,,,,,,,
,,61238ae128da0cdc3fe7a9b6,2024-02-19_03h15.52.887,kallum_motion_pilot,2023.2.2,Win32,166.6666667,61238ae128da0cdc3fe7a9b6,65d2b6c8f2eece985d8e374c,65d2b9caf340fcf7c13cd3de,0.024,0.024,0,97,97,75,1,twofour,,,,,,,,,,,,,,,,,,,,,,,,,,,,,,,,,,,,,,,,,,,,,,,,,,,,,,,,,,,,,,,,,,,,,,,,,,,,,,,,,,,,,,,,,,,,,,,,,,,,,,,,,,,,,,,,,,,,,,,,,,,,,,,,,,,,,,,,,
,,61238ae128da0cdc3fe7a9b6,2024-02-19_03h15.52.887,kallum_motion_pilot,2023.2.2,Win32,166.6666667,61238ae128da0cdc3fe7a9b6,65d2b6c8f2eece985d8e374c,65d2b9caf340fcf7c13cd3de,0.024,0.024,0,98,98,108,1,sevenfive,,,,,,,,,,,,,,,,,,,,,,,,,,,,,,,,,,,,,,,,,,,,,,,,,,,,,,,,,,,,,,,,,,,,,,,,,,,,,,,,,,,,,,,,,,,,,,,,,,,,,,,,,,,,,,,,,,,,,,,,,,,,,,,,,,,,,,,,,
,,61238ae128da0cdc3fe7a9b6,2024-02-19_03h15.52.887,kallum_motion_pilot,2023.2.2,Win32,166.6666667,61238ae128da0cdc3fe7a9b6,65d2b6c8f2eece985d8e374c,65d2b9caf340fcf7c13cd3de,0.024,0.024,0,99,99,70,1,fourtwo,,,,,,,,,,,,,,,,,,,,,,,,,,,,,,,,,,,,,,,,,,,,,,,,,,,,,,,,,,,,,,,,,,,,,,,,,,,,,,,,,,,,,,,,,,,,,,,,,,,,,,,,,,,,,,,,,,,,,,,,,,,,,,,,,,,,,,,,,
,,61238ae128da0cdc3fe7a9b6,2024-02-19_03h15.52.887,kallum_motion_pilot,2023.2.2,Win32,166.6666667,61238ae128da0cdc3fe7a9b6,65d2b6c8f2eece985d8e374c,65d2b9caf340fcf7c13cd3de,0.024,0.024,0,100,100,100,1,sevenfive,,,,,,,,,,,,,,,,,,,,,,,,,,,,,,,,,,,,,,,,,,,,,,,,,,,,,,,,,,,,,,,,,,,,,,,,,,,,,,,,,,,,,,,,,,,,,,,,,,,,,,,,,,,,,,,,,,,,,,,,,,,,,,,,,,,,,,,,,
,,61238ae128da0cdc3fe7a9b6,2024-02-19_03h15.52.887,kallum_motion_pilot,2023.2.2,Win32,166.6666667,61238ae128da0cdc3fe7a9b6,65d2b6c8f2eece985d8e374c,65d2b9caf340fcf7c13cd3de,0.024,0.024,0,101,101,122,1,sixfive,,,,,,,,,,,,,,,,,,,,,,,,,,,,,,,,,,,,,,,,,,,,,,,,,,,,,,,,,,,,,,,,,,,,,,,,,,,,,,,,,,,,,,,,,,,,,,,,,,,,,,,,,,,,,,,,,,,,,,,,,,,,,,,,,,,,,,,,,
,,61238ae128da0cdc3fe7a9b6,2024-02-19_03h15.52.887,kallum_motion_pilot,2023.2.2,Win32,166.6666667,61238ae128da0cdc3fe7a9b6,65d2b6c8f2eece985d8e374c,65d2b9caf340fcf7c13cd3de,0.024,0.024,0,102,102,52,1,threeone,,,,,,,,,,,,,,,,,,,,,,,,,,,,,,,,,,,,,,,,,,,,,,,,,,,,,,,,,,,,,,,,,,,,,,,,,,,,,,,,,,,,,,,,,,,,,,,,,,,,,,,,,,,,,,,,,,,,,,,,,,,,,,,,,,,,,,,,,
,,61238ae128da0cdc3fe7a9b6,2024-02-19_03h15.52.887,kallum_motion_pilot,2023.2.2,Win32,166.6666667,61238ae128da0cdc3fe7a9b6,65d2b6c8f2eece985d8e374c,65d2b9caf340fcf7c13cd3de,0.024,0.024,0,103,103,54,1,fourtwo,,,,,,,,,,,,,,,,,,,,,,,,,,,,,,,,,,,,,,,,,,,,,,,,,,,,,,,,,,,,,,,,,,,,,,,,,,,,,,,,,,,,,,,,,,,,,,,,,,,,,,,,,,,,,,,,,,,,,,,,,,,,,,,,,,,,,,,,,
,,61238ae128da0cdc3fe7a9b6,2024-02-19_03h15.52.887,kallum_motion_pilot,2023.2.2,Win32,166.6666667,61238ae128da0cdc3fe7a9b6,65d2b6c8f2eece985d8e374c,65d2b9caf340fcf7c13cd3de,0.024,0.024,0,104,104,69,1,threefour,,,,,,,,,,,,,,,,,,,,,,,,,,,,,,,,,,,,,,,,,,,,,,,,,,,,,,,,,,,,,,,,,,,,,,,,,,,,,,,,,,,,,,,,,,,,,,,,,,,,,,,,,,,,,,,,,,,,,,,,,,,,,,,,,,,,,,,,,
,,61238ae128da0cdc3fe7a9b6,2024-02-19_03h15.52.887,kallum_motion_pilot,2023.2.2,Win32,166.6666667,61238ae128da0cdc3fe7a9b6,65d2b6c8f2eece985d8e374c,65d2b9caf340fcf7c13cd3de,0.024,0.024,0,105,105,118,1,eightsix,,,,,,,,,,,,,,,,,,,,,,,,,,,,,,,,,,,,,,,,,,,,,,,,,,,,,,,,,,,,,,,,,,,,,,,,,,,,,,,,,,,,,,,,,,,,,,,,,,,,,,,,,,,,,,,,,,,,,,,,,,,,,,,,,,,,,,,,,
,,61238ae128da0cdc3fe7a9b6,2024-02-19_03h15.52.887,kallum_motion_pilot,2023.2.2,Win32,166.6666667,61238ae128da0cdc3fe7a9b6,65d2b6c8f2eece985d8e374c,65d2b9caf340fcf7c13cd3de,0.024,0.024,0,106,106,37,1,threefour,,,,,,,,,,,,,,,,,,,,,,,,,,,,,,,,,,,,,,,,,,,,,,,,,,,,,,,,,,,,,,,,,,,,,,,,,,,,,,,,,,,,,,,,,,,,,,,,,,,,,,,,,,,,,,,,,,,,,,,,,,,,,,,,,,,,,,,,,
,,61238ae128da0cdc3fe7a9b6,2024-02-19_03h15.52.887,kallum_motion_pilot,2023.2.2,Win32,166.6666667,61238ae128da0cdc3fe7a9b6,65d2b6c8f2eece985d8e374c,65d2b9caf340fcf7c13cd3de,0.024,0.024,0,107,107,90,1,sixfive,,,,,,,,,,,,,,,,,,,,,,,,,,,,,,,,,,,,,,,,,,,,,,,,,,,,,,,,,,,,,,,,,,,,,,,,,,,,,,,,,,,,,,,,,,,,,,,,,,,,,,,,,,,,,,,,,,,,,,,,,,,,,,,,,,,,,,,,,
,,61238ae128da0cdc3fe7a9b6,2024-02-19_03h15.52.887,kallum_motion_pilot,2023.2.2,Win32,166.6666667,61238ae128da0cdc3fe7a9b6,65d2b6c8f2eece985d8e374c,65d2b9caf340fcf7c13cd3de,0.024,0.024,0,108,108,72,1,onetwo,,,,,,,,,,,,,,,,,,,,,,,,,,,,,,,,,,,,,,,,,,,,,,,,,,,,,,,,,,,,,,,,,,,,,,,,,,,,,,,,,,,,,,,,,,,,,,,,,,,,,,,,,,,,,,,,,,,,,,,,,,,,,,,,,,,,,,,,,
,,61238ae128da0cdc3fe7a9b6,2024-02-19_03h15.52.887,kallum_motion_pilot,2023.2.2,Win32,166.6666667,61238ae128da0cdc3fe7a9b6,65d2b6c8f2eece985d8e374c,65d2b9caf340fcf7c13cd3de,0.024,0.024,0,109,109,88,1,fivesix,,,,,,,,,,,,,,,,,,,,,,,,,,,,,,,,,,,,,,,,,,,,,,,,,,,,,,,,,,,,,,,,,,,,,,,,,,,,,,,,,,,,,,,,,,,,,,,,,,,,,,,,,,,,,,,,,,,,,,,,,,,,,,,,,,,,,,,,,
,,61238ae128da0cdc3fe7a9b6,2024-02-19_03h15.52.887,kallum_motion_pilot,2023.2.2,Win32,166.6666667,61238ae128da0cdc3fe7a9b6,65d2b6c8f2eece985d8e374c,65d2b9caf340fcf7c13cd3de,0.024,0.024,0,110,110,38,1,fourtwo,,,,,,,,,,,,,,,,,,,,,,,,,,,,,,,,,,,,,,,,,,,,,,,,,,,,,,,,,,,,,,,,,,,,,,,,,,,,,,,,,,,,,,,,,,,,,,,,,,,,,,,,,,,,,,,,,,,,,,,,,,,,,,,,,,,,,,,,,
,,61238ae128da0cdc3fe7a9b6,2024-02-19_03h15.52.887,kallum_motion_pilot,2023.2.2,Win32,166.6666667,61238ae128da0cdc3fe7a9b6,65d2b6c8f2eece985d8e374c,65d2b9caf340fcf7c13cd3de,0.024,0.024,0,111,111,57,1,onethree,,,,,,,,,,,,,,,,,,,,,,,,,,,,,,,,,,,,,,,,,,,,,,,,,,,,,,,,,,,,,,,,,,,,,,,,,,,,,,,,,,,,,,,,,,,,,,,,,,,,,,,,,,,,,,,,,,,,,,,,,,,,,,,,,,,,,,,,,
,,61238ae128da0cdc3fe7a9b6,2024-02-19_03h15.52.887,kallum_motion_pilot,2023.2.2,Win32,166.6666667,61238ae128da0cdc3fe7a9b6,65d2b6c8f2eece985d8e374c,65d2b9caf340fcf7c13cd3de,0.024,0.024,0,112,112,106,1,sixfive,,,,,,,,,,,,,,,,,,,,,,,,,,,,,,,,,,,,,,,,,,,,,,,,,,,,,,,,,,,,,,,,,,,,,,,,,,,,,,,,,,,,,,,,,,,,,,,,,,,,,,,,,,,,,,,,,,,,,,,,,,,,,,,,,,,,,,,,,
,,61238ae128da0cdc3fe7a9b6,2024-02-19_03h15.52.887,kallum_motion_pilot,2023.2.2,Win32,166.6666667,61238ae128da0cdc3fe7a9b6,65d2b6c8f2eece985d8e374c,65d2b9caf340fcf7c13cd3de,0.024,0.024,0,113,113,157,1,seveneight,,,,,,,,,,,,,,,,,,,,,,,,,,,,,,,,,,,,,,,,,,,,,,,,,,,,,,,,,,,,,,,,,,,,,,,,,,,,,,,,,,,,,,,,,,,,,,,,,,,,,,,,,,,,,,,,,,,,,,,,,,,,,,,,,,,,,,,,,
,,61238ae128da0cdc3fe7a9b6,2024-02-19_03h15.52.887,kallum_motion_pilot,2023.2.2,Win32,166.6666667,61238ae128da0cdc3fe7a9b6,65d2b6c8f2eece985d8e374c,65d2b9caf340fcf7c13cd3de,0.024,0.024,0,114,114,45,1,threefour,,,,,,,,,,,,,,,,,,,,,,,,,,,,,,,,,,,,,,,,,,,,,,,,,,,,,,,,,,,,,,,,,,,,,,,,,,,,,,,,,,,,,,,,,,,,,,,,,,,,,,,,,,,,,,,,,,,,,,,,,,,,,,,,,,,,,,,,,
,,61238ae128da0cdc3fe7a9b6,2024-02-19_03h15.52.887,kallum_motion_pilot,2023.2.2,Win32,166.6666667,61238ae128da0cdc3fe7a9b6,65d2b6c8f2eece985d8e374c,65d2b9caf340fcf7c13cd3de,0.024,0.024,0,115,115,141,1,seveneight,,,,,,,,,,,,,,,,,,,,,,,,,,,,,,,,,,,,,,,,,,,,,,,,,,,,,,,,,,,,,,,,,,,,,,,,,,,,,,,,,,,,,,,,,,,,,,,,,,,,,,,,,,,,,,,,,,,,,,,,,,,,,,,,,,,,,,,,,
,,61238ae128da0cdc3fe7a9b6,2024-02-19_03h15.52.887,kallum_motion_pilot,2023.2.2,Win32,166.6666667,61238ae128da0cdc3fe7a9b6,65d2b6c8f2eece985d8e374c,65d2b9caf340fcf7c13cd3de,0.024,0.024,0,116,116,26,1,twoone,,,,,,,,,,,,,,,,,,,,,,,,,,,,,,,,,,,,,,,,,,,,,,,,,,,,,,,,,,,,,,,,,,,,,,,,,,,,,,,,,,,,,,,,,,,,,,,,,,,,,,,,,,,,,,,,,,,,,,,,,,,,,,,,,,,,,,,,,
,,61238ae128da0cdc3fe7a9b6,2024-02-19_03h15.52.887,kallum_motion_pilot,2023.2.2,Win32,166.6666667,61238ae128da0cdc3fe7a9b6,65d2b6c8f2eece985d8e374c,65d2b9caf340fcf7c13cd3de,0.024,0.024,0,117,117,73,1,onethree,,,,,,,,,,,,,,,,,,,,,,,,,,,,,,,,,,,,,,,,,,,,,,,,,,,,,,,,,,,,,,,,,,,,,,,,,,,,,,,,,,,,,,,,,,,,,,,,,,,,,,,,,,,,,,,,,,,,,,,,,,,,,,,,,,,,,,,,,
,,61238ae128da0cdc3fe7a9b6,2024-02-19_03h15.52.887,kallum_motion_pilot,2023.2.2,Win32,166.6666667,61238ae128da0cdc3fe7a9b6,65d2b6c8f2eece985d8e374c,65d2b9caf340fcf7c13cd3de,0.024,0.024,0,118,118,83,1,sixeight,,,,,,,,,,,,,,,,,,,,,,,,,,,,,,,,,,,,,,,,,,,,,,,,,,,,,,,,,,,,,,,,,,,,,,,,,,,,,,,,,,,,,,,,,,,,,,,,,,,,,,,,,,,,,,,,,,,,,,,,,,,,,,,,,,,,,,,,,
,,61238ae128da0cdc3fe7a9b6,2024-02-19_03h15.52.887,kallum_motion_pilot,2023.2.2,Win32,166.6666667,61238ae128da0cdc3fe7a9b6,65d2b6c8f2eece985d8e374c,65d2b9caf340fcf7c13cd3de,0.024,0.024,0,119,119,99,1,sixeight,,,,,,,,,,,,,,,,,,,,,,,,,,,,,,,,,,,,,,,,,,,,,,,,,,,,,,,,,,,,,,,,,,,,,,,,,,,,,,,,,,,,,,,,,,,,,,,,,,,,,,,,,,,,,,,,,,,,,,,,,,,,,,,,,,,,,,,,,
,,61238ae128da0cdc3fe7a9b6,2024-02-19_03h15.52.887,kallum_motion_pilot,2023.2.2,Win32,166.6666667,61238ae128da0cdc3fe7a9b6,65d2b6c8f2eece985d8e374c,65d2b9caf340fcf7c13cd3de,0.024,0.025,0,120,120,89,1,fiveseven,,,,,,,,,,,,,,,,,,,,,,,,,,,,,,,,,,,,,,,,,,,,,,,,,,,,,,,,,,,,,,,,,,,,,,,,,,,,,,,,,,,,,,,,,,,,,,,,,,,,,,,,,,,,,,,,,,,,,,,,,,,,,,,,,,,,,,,,,
,,61238ae128da0cdc3fe7a9b6,2024-02-19_03h15.52.887,kallum_motion_pilot,2023.2.2,Win32,166.6666667,61238ae128da0cdc3fe7a9b6,65d2b6c8f2eece985d8e374c,65d2b9caf340fcf7c13cd3de,0.025,0.025,0,121,121,7,1,fourthree,,,,,,,,,,,,,,,,,,,,,,,,,,,,,,,,,,,,,,,,,,,,,,,,,,,,,,,,,,,,,,,,,,,,,,,,,,,,,,,,,,,,,,,,,,,,,,,,,,,,,,,,,,,,,,,,,,,,,,,,,,,,,,,,,,,,,,,,,
,,61238ae128da0cdc3fe7a9b6,2024-02-19_03h15.52.887,kallum_motion_pilot,2023.2.2,Win32,166.6666667,61238ae128da0cdc3fe7a9b6,65d2b6c8f2eece985d8e374c,65d2b9caf340fcf7c13cd3de,0.025,0.025,0,122,122,154,1,sixfive,,,,,,,,,,,,,,,,,,,,,,,,,,,,,,,,,,,,,,,,,,,,,,,,,,,,,,,,,,,,,,,,,,,,,,,,,,,,,,,,,,,,,,,,,,,,,,,,,,,,,,,,,,,,,,,,,,,,,,,,,,,,,,,,,,,,,,,,,
,,61238ae128da0cdc3fe7a9b6,2024-02-19_03h15.52.887,kallum_motion_pilot,2023.2.2,Win32,166.6666667,61238ae128da0cdc3fe7a9b6,65d2b6c8f2eece985d8e374c,65d2b9caf340fcf7c13cd3de,0.025,0.025,0,123,123,103,1,eightseven,,,,,,,,,,,,,,,,,,,,,,,,,,,,,,,,,,,,,,,,,,,,,,,,,,,,,,,,,,,,,,,,,,,,,,,,,,,,,,,,,,,,,,,,,,,,,,,,,,,,,,,,,,,,,,,,,,,,,,,,,,,,,,,,,,,,,,,,,
,,61238ae128da0cdc3fe7a9b6,2024-02-19_03h15.52.887,kallum_motion_pilot,2023.2.2,Win32,166.6666667,61238ae128da0cdc3fe7a9b6,65d2b6c8f2eece985d8e374c,65d2b9caf340fcf7c13cd3de,0.025,0.025,0,124,124,109,1,seveneight,,,,,,,,,,,,,,,,,,,,,,,,,,,,,,,,,,,,,,,,,,,,,,,,,,,,,,,,,,,,,,,,,,,,,,,,,,,,,,,,,,,,,,,,,,,,,,,,,,,,,,,,,,,,,,,,,,,,,,,,,,,,,,,,,,,,,,,,,
,,61238ae128da0cdc3fe7a9b6,2024-02-19_03h15.52.887,kallum_motion_pilot,2023.2.2,Win32,166.6666667,61238ae128da0cdc3fe7a9b6,65d2b6c8f2eece985d8e374c,65d2b9caf340fcf7c13cd3de,0.025,0.025,0,125,125,43,1,twofour,,,,,,,,,,,,,,,,,,,,,,,,,,,,,,,,,,,,,,,,,,,,,,,,,,,,,,,,,,,,,,,,,,,,,,,,,,,,,,,,,,,,,,,,,,,,,,,,,,,,,,,,,,,,,,,,,,,,,,,,,,,,,,,,,,,,,,,,,
,,61238ae128da0cdc3fe7a9b6,2024-02-19_03h15.52.887,kallum_motion_pilot,2023.2.2,Win32,166.6666667,61238ae128da0cdc3fe7a9b6,65d2b6c8f2eece985d8e374c,65d2b9caf340fcf7c13cd3de,0.025,0.025,0,126,126,24,1,onetwo,,,,,,,,,,,,,,,,,,,,,,,,,,,,,,,,,,,,,,,,,,,,,,,,,,,,,,,,,,,,,,,,,,,,,,,,,,,,,,,,,,,,,,,,,,,,,,,,,,,,,,,,,,,,,,,,,,,,,,,,,,,,,,,,,,,,,,,,,
,,61238ae128da0cdc3fe7a9b6,2024-02-19_03h15.52.887,kallum_motion_pilot,2023.2.2,Win32,166.6666667,61238ae128da0cdc3fe7a9b6,65d2b6c8f2eece985d8e374c,65d2b9caf340fcf7c13cd3de,0.025,0.025,0,127,127,35,1,twofour,,,,,,,,,,,,,,,,,,,,,,,,,,,,,,,,,,,,,,,,,,,,,,,,,,,,,,,,,,,,,,,,,,,,,,,,,,,,,,,,,,,,,,,,,,,,,,,,,,,,,,,,,,,,,,,,,,,,,,,,,,,,,,,,,,,,,,,,,
,,61238ae128da0cdc3fe7a9b6,2024-02-19_03h15.52.887,kallum_motion_pilot,2023.2.2,Win32,166.6666667,61238ae128da0cdc3fe7a9b6,65d2b6c8f2eece985d8e374c,65d2b9caf340fcf7c13cd3de,0.025,0.025,0,128,128,144,1,fivesix,,,,,,,,,,,,,,,,,,,,,,,,,,,,,,,,,,,,,,,,,,,,,,,,,,,,,,,,,,,,,,,,,,,,,,,,,,,,,,,,,,,,,,,,,,,,,,,,,,,,,,,,,,,,,,,,,,,,,,,,,,,,,,,,,,,,,,,,,
,,61238ae128da0cdc3fe7a9b6,2024-02-19_03h15.52.887,kallum_motion_pilot,2023.2.2,Win32,166.6666667,61238ae128da0cdc3fe7a9b6,65d2b6c8f2eece985d8e374c,65d2b9caf340fcf7c13cd3de,0.025,0.025,0,129,129,31,1,fourthree,,,,,,,,,,,,,,,,,,,,,,,,,,,,,,,,,,,,,,,,,,,,,,,,,,,,,,,,,,,,,,,,,,,,,,,,,,,,,,,,,,,,,,,,,,,,,,,,,,,,,,,,,,,,,,,,,,,,,,,,,,,,,,,,,,,,,,,,,
,,61238ae128da0cdc3fe7a9b6,2024-02-19_03h15.52.887,kallum_motion_pilot,2023.2.2,Win32,166.6666667,61238ae128da0cdc3fe7a9b6,65d2b6c8f2eece985d8e374c,65d2b9caf340fcf7c13cd3de,0.025,0.025,0,130,130,42,1,twoone,,,,,,,,,,,,,,,,,,,,,,,,,,,,,,,,,,,,,,,,,,,,,,,,,,,,,,,,,,,,,,,,,,,,,,,,,,,,,,,,,,,,,,,,,,,,,,,,,,,,,,,,,,,,,,,,,,,,,,,,,,,,,,,,,,,,,,,,,
,,61238ae128da0cdc3fe7a9b6,2024-02-19_03h15.52.887,kallum_motion_pilot,2023.2.2,Win32,166.6666667,61238ae128da0cdc3fe7a9b6,65d2b6c8f2eece985d8e374c,65d2b9caf340fcf7c13cd3de,0.025,0.025,0,131,131,159,1,eightseven,,,,,,,,,,,,,,,,,,,,,,,,,,,,,,,,,,,,,,,,,,,,,,,,,,,,,,,,,,,,,,,,,,,,,,,,,,,,,,,,,,,,,,,,,,,,,,,,,,,,,,,,,,,,,,,,,,,,,,,,,,,,,,,,,,,,,,,,,
,,61238ae128da0cdc3fe7a9b6,2024-02-19_03h15.52.887,kallum_motion_pilot,2023.2.2,Win32,166.6666667,61238ae128da0cdc3fe7a9b6,65d2b6c8f2eece985d8e374c,65d2b9caf340fcf7c13cd3de,0.025,0.025,0,132,132,148,1,sevenfive,,,,,,,,,,,,,,,,,,,,,,,,,,,,,,,,,,,,,,,,,,,,,,,,,,,,,,,,,,,,,,,,,,,,,,,,,,,,,,,,,,,,,,,,,,,,,,,,,,,,,,,,,,,,,,,,,,,,,,,,,,,,,,,,,,,,,,,,,
,,61238ae128da0cdc3fe7a9b6,2024-02-19_03h15.52.887,kallum_motion_pilot,2023.2.2,Win32,166.6666667,61238ae128da0cdc3fe7a9b6,65d2b6c8f2eece985d8e374c,65d2b9caf340fcf7c13cd3de,0.025,0.026,0,133,133,110,1,eightsix,,,,,,,,,,,,,,,,,,,,,,,,,,,,,,,,,,,,,,,,,,,,,,,,,,,,,,,,,,,,,,,,,,,,,,,,,,,,,,,,,,,,,,,,,,,,,,,,,,,,,,,,,,,,,,,,,,,,,,,,,,,,,,,,,,,,,,,,,
,,61238ae128da0cdc3fe7a9b6,2024-02-19_03h15.52.887,kallum_motion_pilot,2023.2.2,Win32,166.6666667,61238ae128da0cdc3fe7a9b6,65d2b6c8f2eece985d8e374c,65d2b9caf340fcf7c13cd3de,0.026,0.026,0,134,134,85,1,seveneight,,,,,,,,,,,,,,,,,,,,,,,,,,,,,,,,,,,,,,,,,,,,,,,,,,,,,,,,,,,,,,,,,,,,,,,,,,,,,,,,,,,,,,,,,,,,,,,,,,,,,,,,,,,,,,,,,,,,,,,,,,,,,,,,,,,,,,,,,
,,61238ae128da0cdc3fe7a9b6,2024-02-19_03h15.52.887,kallum_motion_pilot,2023.2.2,Win32,166.6666667,61238ae128da0cdc3fe7a9b6,65d2b6c8f2eece985d8e374c,65d2b9caf340fcf7c13cd3de,0.026,0.026,0,135,135,1,1,onethree,,,,,,,,,,,,,,,,,,,,,,,,,,,,,,,,,,,,,,,,,,,,,,,,,,,,,,,,,,,,,,,,,,,,,,,,,,,,,,,,,,,,,,,,,,,,,,,,,,,,,,,,,,,,,,,,,,,,,,,,,,,,,,,,,,,,,,,,,
,,61238ae128da0cdc3fe7a9b6,2024-02-19_03h15.52.887,kallum_motion_pilot,2023.2.2,Win32,166.6666667,61238ae128da0cdc3fe7a9b6,65d2b6c8f2eece985d8e374c,65d2b9caf340fcf7c13cd3de,0.026,0.026,0,136,136,147,1,sixeight,,,,,,,,,,,,,,,,,,,,,,,,,,,,,,,,,,,,,,,,,,,,,,,,,,,,,,,,,,,,,,,,,,,,,,,,,,,,,,,,,,,,,,,,,,,,,,,,,,,,,,,,,,,,,,,,,,,,,,,,,,,,,,,,,,,,,,,,,
,,61238ae128da0cdc3fe7a9b6,2024-02-19_03h15.52.887,kallum_motion_pilot,2023.2.2,Win32,166.6666667,61238ae128da0cdc3fe7a9b6,65d2b6c8f2eece985d8e374c,65d2b9caf340fcf7c13cd3de,0.026,0.026,0,137,137,2,1,twoone,,,,,,,,,,,,,,,,,,,,,,,,,,,,,,,,,,,,,,,,,,,,,,,,,,,,,,,,,,,,,,,,,,,,,,,,,,,,,,,,,,,,,,,,,,,,,,,,,,,,,,,,,,,,,,,,,,,,,,,,,,,,,,,,,,,,,,,,,
,,61238ae128da0cdc3fe7a9b6,2024-02-19_03h15.52.887,kallum_motion_pilot,2023.2.2,Win32,166.6666667,61238ae128da0cdc3fe7a9b6,65d2b6c8f2eece985d8e374c,65d2b9caf340fcf7c13cd3de,0.026,0.026,0,138,138,46,1,fourtwo,,,,,,,,,,,,,,,,,,,,,,,,,,,,,,,,,,,,,,,,,,,,,,,,,,,,,,,,,,,,,,,,,,,,,,,,,,,,,,,,,,,,,,,,,,,,,,,,,,,,,,,,,,,,,,,,,,,,,,,,,,,,,,,,,,,,,,,,,
,,61238ae128da0cdc3fe7a9b6,2024-02-19_03h15.52.887,kallum_motion_pilot,2023.2.2,Win32,166.6666667,61238ae128da0cdc3fe7a9b6,65d2b6c8f2eece985d8e374c,65d2b9caf340fcf7c13cd3de,0.026,0.026,0,139,139,123,1,sixeight,,,,,,,,,,,,,,,,,,,,,,,,,,,,,,,,,,,,,,,,,,,,,,,,,,,,,,,,,,,,,,,,,,,,,,,,,,,,,,,,,,,,,,,,,,,,,,,,,,,,,,,,,,,,,,,,,,,,,,,,,,,,,,,,,,,,,,,,,
,,61238ae128da0cdc3fe7a9b6,2024-02-19_03h15.52.887,kallum_motion_pilot,2023.2.2,Win32,166.6666667,61238ae128da0cdc3fe7a9b6,65d2b6c8f2eece985d8e374c,65d2b9caf340fcf7c13cd3de,0.026,0.026,0,140,140,130,1,sixfive,,,,,,,,,,,,,,,,,,,,,,,,,,,,,,,,,,,,,,,,,,,,,,,,,,,,,,,,,,,,,,,,,,,,,,,,,,,,,,,,,,,,,,,,,,,,,,,,,,,,,,,,,,,,,,,,,,,,,,,,,,,,,,,,,,,,,,,,,
,,61238ae128da0cdc3fe7a9b6,2024-02-19_03h15.52.887,kallum_motion_pilot,2023.2.2,Win32,166.6666667,61238ae128da0cdc3fe7a9b6,65d2b6c8f2eece985d8e374c,65d2b9caf340fcf7c13cd3de,0.026,0.026,0,141,141,91,1,sixeight,,,,,,,,,,,,,,,,,,,,,,,,,,,,,,,,,,,,,,,,,,,,,,,,,,,,,,,,,,,,,,,,,,,,,,,,,,,,,,,,,,,,,,,,,,,,,,,,,,,,,,,,,,,,,,,,,,,,,,,,,,,,,,,,,,,,,,,,,
,,61238ae128da0cdc3fe7a9b6,2024-02-19_03h15.52.887,kallum_motion_pilot,2023.2.2,Win32,166.6666667,61238ae128da0cdc3fe7a9b6,65d2b6c8f2eece985d8e374c,65d2b9caf340fcf7c13cd3de,0.026,0.026,0,142,142,55,1,fourthree,,,,,,,,,,,,,,,,,,,,,,,,,,,,,,,,,,,,,,,,,,,,,,,,,,,,,,,,,,,,,,,,,,,,,,,,,,,,,,,,,,,,,,,,,,,,,,,,,,,,,,,,,,,,,,,,,,,,,,,,,,,,,,,,,,,,,,,,,
,,61238ae128da0cdc3fe7a9b6,2024-02-19_03h15.52.887,kallum_motion_pilot,2023.2.2,Win32,166.6666667,61238ae128da0cdc3fe7a9b6,65d2b6c8f2eece985d8e374c,65d2b9caf340fcf7c13cd3de,0.026,0.026,0,143,143,44,1,threeone,,,,,,,,,,,,,,,,,,,,,,,,,,,,,,,,,,,,,,,,,,,,,,,,,,,,,,,,,,,,,,,,,,,,,,,,,,,,,,,,,,,,,,,,,,,,,,,,,,,,,,,,,,,,,,,,,,,,,,,,,,,,,,,,,,,,,,,,,
,,61238ae128da0cdc3fe7a9b6,2024-02-19_03h15.52.887,kallum_motion_pilot,2023.2.2,Win32,166.6666667,61238ae128da0cdc3fe7a9b6,65d2b6c8f2eece985d8e374c,65d2b9caf340fcf7c13cd3de,0.026,0.026,0,144,144,40,1,onetwo,,,,,,,,,,,,,,,,,,,,,,,,,,,,,,,,,,,,,,,,,,,,,,,,,,,,,,,,,,,,,,,,,,,,,,,,,,,,,,,,,,,,,,,,,,,,,,,,,,,,,,,,,,,,,,,,,,,,,,,,,,,,,,,,,,,,,,,,,
,,61238ae128da0cdc3fe7a9b6,2024-02-19_03h15.52.887,kallum_motion_pilot,2023.2.2,Win32,166.6666667,61238ae128da0cdc3fe7a9b6,65d2b6c8f2eece985d8e374c,65d2b9caf340fcf7c13cd3de,0.026,0.026,0,145,145,3,1,twofour,,,,,,,,,,,,,,,,,,,,,,,,,,,,,,,,,,,,,,,,,,,,,,,,,,,,,,,,,,,,,,,,,,,,,,,,,,,,,,,,,,,,,,,,,,,,,,,,,,,,,,,,,,,,,,,,,,,,,,,,,,,,,,,,,,,,,,,,,
,,61238ae128da0cdc3fe7a9b6,2024-02-19_03h15.52.887,kallum_motion_pilot,2023.2.2,Win32,166.6666667,61238ae128da0cdc3fe7a9b6,65d2b6c8f2eece985d8e374c,65d2b9caf340fcf7c13cd3de,0.027,0.027,0,146,146,12,1,threeone,,,,,,,,,,,,,,,,,,,,,,,,,,,,,,,,,,,,,,,,,,,,,,,,,,,,,,,,,,,,,,,,,,,,,,,,,,,,,,,,,,,,,,,,,,,,,,,,,,,,,,,,,,,,,,,,,,,,,,,,,,,,,,,,,,,,,,,,,
,,61238ae128da0cdc3fe7a9b6,2024-02-19_03h15.52.887,kallum_motion_pilot,2023.2.2,Win32,166.6666667,61238ae128da0cdc3fe7a9b6,65d2b6c8f2eece985d8e374c,65d2b9caf340fcf7c13cd3de,0.027,0.027,0,147,147,68,1,threeone,,,,,,,,,,,,,,,,,,,,,,,,,,,,,,,,,,,,,,,,,,,,,,,,,,,,,,,,,,,,,,,,,,,,,,,,,,,,,,,,,,,,,,,,,,,,,,,,,,,,,,,,,,,,,,,,,,,,,,,,,,,,,,,,,,,,,,,,,
,,61238ae128da0cdc3fe7a9b6,2024-02-19_03h15.52.887,kallum_motion_pilot,2023.2.2,Win32,166.6666667,61238ae128da0cdc3fe7a9b6,65d2b6c8f2eece985d8e374c,65d2b9caf340fcf7c13cd3de,0.027,0.027,0,148,148,116,1,sevenfive,,,,,,,,,,,,,,,,,,,,,,,,,,,,,,,,,,,,,,,,,,,,,,,,,,,,,,,,,,,,,,,,,,,,,,,,,,,,,,,,,,,,,,,,,,,,,,,,,,,,,,,,,,,,,,,,,,,,,,,,,,,,,,,,,,,,,,,,,
,,61238ae128da0cdc3fe7a9b6,2024-02-19_03h15.52.887,kallum_motion_pilot,2023.2.2,Win32,166.6666667,61238ae128da0cdc3fe7a9b6,65d2b6c8f2eece985d8e374c,65d2b9caf340fcf7c13cd3de,0.027,0.027,0,149,149,66,1,twoone,,,,,,,,,,,,,,,,,,,,,,,,,,,,,,,,,,,,,,,,,,,,,,,,,,,,,,,,,,,,,,,,,,,,,,,,,,,,,,,,,,,,,,,,,,,,,,,,,,,,,,,,,,,,,,,,,,,,,,,,,,,,,,,,,,,,,,,,,
,,61238ae128da0cdc3fe7a9b6,2024-02-19_03h15.52.887,kallum_motion_pilot,2023.2.2,Win32,166.6666667,61238ae128da0cdc3fe7a9b6,65d2b6c8f2eece985d8e374c,65d2b9caf340fcf7c13cd3de,0.027,0.027,0,150,150,32,1,onetwo,,,,,,,,,,,,,,,,,,,,,,,,,,,,,,,,,,,,,,,,,,,,,,,,,,,,,,,,,,,,,,,,,,,,,,,,,,,,,,,,,,,,,,,,,,,,,,,,,,,,,,,,,,,,,,,,,,,,,,,,,,,,,,,,,,,,,,,,,
,,61238ae128da0cdc3fe7a9b6,2024-02-19_03h15.52.887,kallum_motion_pilot,2023.2.2,Win32,166.6666667,61238ae128da0cdc3fe7a9b6,65d2b6c8f2eece985d8e374c,65d2b9caf340fcf7c13cd3de,0.027,0.027,0,151,151,23,1,fourthree,,,,,,,,,,,,,,,,,,,,,,,,,,,,,,,,,,,,,,,,,,,,,,,,,,,,,,,,,,,,,,,,,,,,,,,,,,,,,,,,,,,,,,,,,,,,,,,,,,,,,,,,,,,,,,,,,,,,,,,,,,,,,,,,,,,,,,,,,
,,61238ae128da0cdc3fe7a9b6,2024-02-19_03h15.52.887,kallum_motion_pilot,2023.2.2,Win32,166.6666667,61238ae128da0cdc3fe7a9b6,65d2b6c8f2eece985d8e374c,65d2b9caf340fcf7c13cd3de,0.027,0.027,0,152,152,76,1,threeone,,,,,,,,,,,,,,,,,,,,,,,,,,,,,,,,,,,,,,,,,,,,,,,,,,,,,,,,,,,,,,,,,,,,,,,,,,,,,,,,,,,,,,,,,,,,,,,,,,,,,,,,,,,,,,,,,,,,,,,,,,,,,,,,,,,,,,,,,
,,61238ae128da0cdc3fe7a9b6,2024-02-19_03h15.52.887,kallum_motion_pilot,2023.2.2,Win32,166.6666667,61238ae128da0cdc3fe7a9b6,65d2b6c8f2eece985d8e374c,65d2b9caf340fcf7c13cd3de,0.027,0.027,0,153,153,137,1,fiveseven,,,,,,,,,,,,,,,,,,,,,,,,,,,,,,,,,,,,,,,,,,,,,,,,,,,,,,,,,,,,,,,,,,,,,,,,,,,,,,,,,,,,,,,,,,,,,,,,,,,,,,,,,,,,,,,,,,,,,,,,,,,,,,,,,,,,,,,,,
,,61238ae128da0cdc3fe7a9b6,2024-02-19_03h15.52.887,kallum_motion_pilot,2023.2.2,Win32,166.6666667,61238ae128da0cdc3fe7a9b6,65d2b6c8f2eece985d8e374c,65d2b9caf340fcf7c13cd3de,0.027,0.027,0,154,154,53,1,threefour,,,,,,,,,,,,,,,,,,,,,,,,,,,,,,,,,,,,,,,,,,,,,,,,,,,,,,,,,,,,,,,,,,,,,,,,,,,,,,,,,,,,,,,,,,,,,,,,,,,,,,,,,,,,,,,,,,,,,,,,,,,,,,,,,,,,,,,,,
,,61238ae128da0cdc3fe7a9b6,2024-02-19_03h15.52.887,kallum_motion_pilot,2023.2.2,Win32,166.6666667,61238ae128da0cdc3fe7a9b6,65d2b6c8f2eece985d8e374c,65d2b9caf340fcf7c13cd3de,0.027,0.027,0,155,155,50,1,twoone,,,,,,,,,,,,,,,,,,,,,,,,,,,,,,,,,,,,,,,,,,,,,,,,,,,,,,,,,,,,,,,,,,,,,,,,,,,,,,,,,,,,,,,,,,,,,,,,,,,,,,,,,,,,,,,,,,,,,,,,,,,,,,,,,,,,,,,,,
,,61238ae128da0cdc3fe7a9b6,2024-02-19_03h15.52.887,kallum_motion_pilot,2023.2.2,Win32,166.6666667,61238ae128da0cdc3fe7a9b6,65d2b6c8f2eece985d8e374c,65d2b9caf340fcf7c13cd3de,0.027,0.028,0,156,156,15,1,fourthree,,,,,,,,,,,,,,,,,,,,,,,,,,,,,,,,,,,,,,,,,,,,,,,,,,,,,,,,,,,,,,,,,,,,,,,,,,,,,,,,,,,,,,,,,,,,,,,,,,,,,,,,,,,,,,,,,,,,,,,,,,,,,,,,,,,,,,,,,
,,61238ae128da0cdc3fe7a9b6,2024-02-19_03h15.52.887,kallum_motion_pilot,2023.2.2,Win32,166.6666667,61238ae128da0cdc3fe7a9b6,65d2b6c8f2eece985d8e374c,65d2b9caf340fcf7c13cd3de,0.028,0.028,0,157,157,28,1,threeone,,,,,,,,,,,,,,,,,,,,,,,,,,,,,,,,,,,,,,,,,,,,,,,,,,,,,,,,,,,,,,,,,,,,,,,,,,,,,,,,,,,,,,,,,,,,,,,,,,,,,,,,,,,,,,,,,,,,,,,,,,,,,,,,,,,,,,,,,
,,61238ae128da0cdc3fe7a9b6,2024-02-19_03h15.52.887,kallum_motion_pilot,2023.2.2,Win32,166.6666667,61238ae128da0cdc3fe7a9b6,65d2b6c8f2eece985d8e374c,65d2b9caf340fcf7c13cd3de,0.028,0.028,0,158,158,158,1,eightsix,,,,,,,,,,,,,,,,,,,,,,,,,,,,,,,,,,,,,,,,,,,,,,,,,,,,,,,,,,,,,,,,,,,,,,,,,,,,,,,,,,,,,,,,,,,,,,,,,,,,,,,,,,,,,,,,,,,,,,,,,,,,,,,,,,,,,,,,,
,,61238ae128da0cdc3fe7a9b6,2024-02-19_03h15.52.887,kallum_motion_pilot,2023.2.2,Win32,166.6666667,61238ae128da0cdc3fe7a9b6,65d2b6c8f2eece985d8e374c,65d2b9caf340fcf7c13cd3de,0.028,0.028,0,159,159,30,1,fourtwo,,,,,,,,,,,,,,,,,,,,,,,,,,,,,,,,,,,,,,,,,,,,,,,,,,,,,,,,,,,,,,,,,,,,,,,,,,,,,,,,,,,,,,,,,,,,,,,,,,,,,,,,,,,,,,,,,,,,,,,,,,,,,,,,,,,,,,,,,
,,61238ae128da0cdc3fe7a9b6,2024-02-19_03h15.52.887,kallum_motion_pilot,2023.2.2,Win32,166.6666667,61238ae128da0cdc3fe7a9b6,65d2b6c8f2eece985d8e374c,65d2b9caf340fcf7c13cd3de,0.028,0.028,0,160,160,29,1,threefour,,,,,,,,,,,,,,,,,,,,,,,,,,,,,,,,,,,,,,,,,,,,,,,,,,,,,,,,,,,,,,,,,,,,,,,,,,,,,,,,,,,,,,,,,,,,,,,,,,,,,,,,,,,,,,,,,,,,,,,,,,,,,,,,,,,,,,,,,
,,61238ae128da0cdc3fe7a9b6,2024-02-19_03h15.52.887,kallum_motion_pilot,2023.2.2,Win32,166.6666667,61238ae128da0cdc3fe7a9b6,65d2b6c8f2eece985d8e374c,65d2b9caf340fcf7c13cd3de,0.028,0.028,0,161,161,102,1,eightsix,,,,,,,,,,,,,,,,,,,,,,,,,,,,,,,,,,,,,,,,,,,,,,,,,,,,,,,,,,,,,,,,,,,,,,,,,,,,,,,,,,,,,,,,,,,,,,,,,,,,,,,,,,,,,,,,,,,,,,,,,,,,,,,,,,,,,,,,,
,,61238ae128da0cdc3fe7a9b6,2024-02-19_03h15.52.887,kallum_motion_pilot,2023.2.2,Win32,166.6666667,61238ae128da0cdc3fe7a9b6,65d2b6c8f2eece985d8e374c,65d2b9caf340fcf7c13cd3de,0.028,0.028,1,0,162,24,1,onetwo,,,,,,,,,,,,,,,,,,,,,,,,,,,,,,,,,,,,,,,,,,,,,,,,,,,,,,,,,,,,,,,,,,,,,,,,,,,,,,,,,,,,,,,,,,,,,,,,,,,,,,,,,,,,,,,,,,,,,,,,,,,,,,,,,,,,,,,,,
,,61238ae128da0cdc3fe7a9b6,2024-02-19_03h15.52.887,kallum_motion_pilot,2023.2.2,Win32,166.6666667,61238ae128da0cdc3fe7a9b6,65d2b6c8f2eece985d8e374c,65d2b9caf340fcf7c13cd3de,0.028,0.028,1,1,163,114,1,sixfive,,,,,,,,,,,,,,,,,,,,,,,,,,,,,,,,,,,,,,,,,,,,,,,,,,,,,,,,,,,,,,,,,,,,,,,,,,,,,,,,,,,,,,,,,,,,,,,,,,,,,,,,,,,,,,,,,,,,,,,,,,,,,,,,,,,,,,,,,
,,61238ae128da0cdc3fe7a9b6,2024-02-19_03h15.52.887,kallum_motion_pilot,2023.2.2,Win32,166.6666667,61238ae128da0cdc3fe7a9b6,65d2b6c8f2eece985d8e374c,65d2b9caf340fcf7c13cd3de,0.028,0.028,1,2,164,54,1,fourtwo,,,,,,,,,,,,,,,,,,,,,,,,,,,,,,,,,,,,,,,,,,,,,,,,,,,,,,,,,,,,,,,,,,,,,,,,,,,,,,,,,,,,,,,,,,,,,,,,,,,,,,,,,,,,,,,,,,,,,,,,,,,,,,,,,,,,,,,,,
,,61238ae128da0cdc3fe7a9b6,2024-02-19_03h15.52.887,kallum_motion_pilot,2023.2.2,Win32,166.6666667,61238ae128da0cdc3fe7a9b6,65d2b6c8f2eece985d8e374c,65d2b9caf340fcf7c13cd3de,0.028,0.028,1,3,165,10,1,twoone,,,,,,,,,,,,,,,,,,,,,,,,,,,,,,,,,,,,,,,,,,,,,,,,,,,,,,,,,,,,,,,,,,,,,,,,,,,,,,,,,,,,,,,,,,,,,,,,,,,,,,,,,,,,,,,,,,,,,,,,,,,,,,,,,,,,,,,,,
,,61238ae128da0cdc3fe7a9b6,2024-02-19_03h15.52.887,kallum_motion_pilot,2023.2.2,Win32,166.6666667,61238ae128da0cdc3fe7a9b6,65d2b6c8f2eece985d8e374c,65d2b9caf340fcf7c13cd3de,0.028,0.028,1,4,166,18,1,twoone,,,,,,,,,,,,,,,,,,,,,,,,,,,,,,,,,,,,,,,,,,,,,,,,,,,,,,,,,,,,,,,,,,,,,,,,,,,,,,,,,,,,,,,,,,,,,,,,,,,,,,,,,,,,,,,,,,,,,,,,,,,,,,,,,,,,,,,,,
,,61238ae128da0cdc3fe7a9b6,2024-02-19_03h15.52.887,kallum_motion_pilot,2023.2.2,Win32,166.6666667,61238ae128da0cdc3fe7a9b6,65d2b6c8f2eece985d8e374c,65d2b9caf340fcf7c13cd3de,0.028,0.028,1,5,167,33,1,onethree,,,,,,,,,,,,,,,,,,,,,,,,,,,,,,,,,,,,,,,,,,,,,,,,,,,,,,,,,,,,,,,,,,,,,,,,,,,,,,,,,,,,,,,,,,,,,,,,,,,,,,,,,,,,,,,,,,,,,,,,,,,,,,,,,,,,,,,,,
,,61238ae128da0cdc3fe7a9b6,2024-02-19_03h15.52.887,kallum_motion_pilot,2023.2.2,Win32,166.6666667,61238ae128da0cdc3fe7a9b6,65d2b6c8f2eece985d8e374c,65d2b9caf340fcf7c13cd3de,0.028,0.028,1,6,168,25,1,onethree,,,,,,,,,,,,,,,,,,,,,,,,,,,,,,,,,,,,,,,,,,,,,,,,,,,,,,,,,,,,,,,,,,,,,,,,,,,,,,,,,,,,,,,,,,,,,,,,,,,,,,,,,,,,,,,,,,,,,,,,,,,,,,,,,,,,,,,,,
,,61238ae128da0cdc3fe7a9b6,2024-02-19_03h15.52.887,kallum_motion_pilot,2023.2.2,Win32,166.6666667,61238ae128da0cdc3fe7a9b6,65d2b6c8f2eece985d8e374c,65d2b9caf340fcf7c13cd3de,0.028,0.028,1,7,169,109,1,seveneight,,,,,,,,,,,,,,,,,,,,,,,,,,,,,,,,,,,,,,,,,,,,,,,,,,,,,,,,,,,,,,,,,,,,,,,,,,,,,,,,,,,,,,,,,,,,,,,,,,,,,,,,,,,,,,,,,,,,,,,,,,,,,,,,,,,,,,,,,
,,61238ae128da0cdc3fe7a9b6,2024-02-19_03h15.52.887,kallum_motion_pilot,2023.2.2,Win32,166.6666667,61238ae128da0cdc3fe7a9b6,65d2b6c8f2eece985d8e374c,65d2b9caf340fcf7c13cd3de,0.029,0.029,1,8,170,115,1,sixeight,,,,,,,,,,,,,,,,,,,,,,,,,,,,,,,,,,,,,,,,,,,,,,,,,,,,,,,,,,,,,,,,,,,,,,,,,,,,,,,,,,,,,,,,,,,,,,,,,,,,,,,,,,,,,,,,,,,,,,,,,,,,,,,,,,,,,,,,,
,,61238ae128da0cdc3fe7a9b6,2024-02-19_03h15.52.887,kallum_motion_pilot,2023.2.2,Win32,166.6666667,61238ae128da0cdc3fe7a9b6,65d2b6c8f2eece985d8e374c,65d2b9caf340fcf7c13cd3de,0.029,0.029,1,9,171,125,1,seveneight,,,,,,,,,,,,,,,,,,,,,,,,,,,,,,,,,,,,,,,,,,,,,,,,,,,,,,,,,,,,,,,,,,,,,,,,,,,,,,,,,,,,,,,,,,,,,,,,,,,,,,,,,,,,,,,,,,,,,,,,,,,,,,,,,,,,,,,,,
,,61238ae128da0cdc3fe7a9b6,2024-02-19_03h15.52.887,kallum_motion_pilot,2023.2.2,Win32,166.6666667,61238ae128da0cdc3fe7a9b6,65d2b6c8f2eece985d8e374c,65d2b9caf340fcf7c13cd3de,0.029,0.029,1,10,172,46,1,fourtwo,,,,,,,,,,,,,,,,,,,,,,,,,,,,,,,,,,,,,,,,,,,,,,,,,,,,,,,,,,,,,,,,,,,,,,,,,,,,,,,,,,,,,,,,,,,,,,,,,,,,,,,,,,,,,,,,,,,,,,,,,,,,,,,,,,,,,,,,,
,,61238ae128da0cdc3fe7a9b6,2024-02-19_03h15.52.887,kallum_motion_pilot,2023.2.2,Win32,166.6666667,61238ae128da0cdc3fe7a9b6,65d2b6c8f2eece985d8e374c,65d2b9caf340fcf7c13cd3de,0.029,0.029,1,11,173,3,1,twofour,,,,,,,,,,,,,,,,,,,,,,,,,,,,,,,,,,,,,,,,,,,,,,,,,,,,,,,,,,,,,,,,,,,,,,,,,,,,,,,,,,,,,,,,,,,,,,,,,,,,,,,,,,,,,,,,,,,,,,,,,,,,,,,,,,,,,,,,,
,,61238ae128da0cdc3fe7a9b6,2024-02-19_03h15.52.887,kallum_motion_pilot,2023.2.2,Win32,166.6666667,61238ae128da0cdc3fe7a9b6,65d2b6c8f2eece985d8e374c,65d2b9caf340fcf7c13cd3de,0.03,0.03,1,12,174,12,1,threeone,,,,,,,,,,,,,,,,,,,,,,,,,,,,,,,,,,,,,,,,,,,,,,,,,,,,,,,,,,,,,,,,,,,,,,,,,,,,,,,,,,,,,,,,,,,,,,,,,,,,,,,,,,,,,,,,,,,,,,,,,,,,,,,,,,,,,,,,,
,,61238ae128da0cdc3fe7a9b6,2024-02-19_03h15.52.887,kallum_motion_pilot,2023.2.2,Win32,166.6666667,61238ae128da0cdc3fe7a9b6,65d2b6c8f2eece985d8e374c,65d2b9caf340fcf7c13cd3de,0.03,0.03,1,13,175,145,1,fiveseven,,,,,,,,,,,,,,,,,,,,,,,,,,,,,,,,,,,,,,,,,,,,,,,,,,,,,,,,,,,,,,,,,,,,,,,,,,,,,,,,,,,,,,,,,,,,,,,,,,,,,,,,,,,,,,,,,,,,,,,,,,,,,,,,,,,,,,,,,
,,61238ae128da0cdc3fe7a9b6,2024-02-19_03h15.52.887,kallum_motion_pilot,2023.2.2,Win32,166.6666667,61238ae128da0cdc3fe7a9b6,65d2b6c8f2eece985d8e374c,65d2b9caf340fcf7c13cd3de,0.03,0.03,1,14,176,81,1,fiveseven,,,,,,,,,,,,,,,,,,,,,,,,,,,,,,,,,,,,,,,,,,,,,,,,,,,,,,,,,,,,,,,,,,,,,,,,,,,,,,,,,,,,,,,,,,,,,,,,,,,,,,,,,,,,,,,,,,,,,,,,,,,,,,,,,,,,,,,,,
,,61238ae128da0cdc3fe7a9b6,2024-02-19_03h15.52.887,kallum_motion_pilot,2023.2.2,Win32,166.6666667,61238ae128da0cdc3fe7a9b6,65d2b6c8f2eece985d8e374c,65d2b9caf340fcf7c13cd3de,0.03,0.03,1,15,177,41,1,onethree,,,,,,,,,,,,,,,,,,,,,,,,,,,,,,,,,,,,,,,,,,,,,,,,,,,,,,,,,,,,,,,,,,,,,,,,,,,,,,,,,,,,,,,,,,,,,,,,,,,,,,,,,,,,,,,,,,,,,,,,,,,,,,,,,,,,,,,,,
,,61238ae128da0cdc3fe7a9b6,2024-02-19_03h15.52.887,kallum_motion_pilot,2023.2.2,Win32,166.6666667,61238ae128da0cdc3fe7a9b6,65d2b6c8f2eece985d8e374c,65d2b9caf340fcf7c13cd3de,0.03,0.03,1,16,178,72,1,onetwo,,,,,,,,,,,,,,,,,,,,,,,,,,,,,,,,,,,,,,,,,,,,,,,,,,,,,,,,,,,,,,,,,,,,,,,,,,,,,,,,,,,,,,,,,,,,,,,,,,,,,,,,,,,,,,,,,,,,,,,,,,,,,,,,,,,,,,,,,
,,61238ae128da0cdc3fe7a9b6,2024-02-19_03h15.52.887,kallum_motion_pilot,2023.2.2,Win32,166.6666667,61238ae128da0cdc3fe7a9b6,65d2b6c8f2eece985d8e374c,65d2b9caf340fcf7c13cd3de,0.03,0.03,1,17,179,66,1,twoone,,,,,,,,,,,,,,,,,,,,,,,,,,,,,,,,,,,,,,,,,,,,,,,,,,,,,,,,,,,,,,,,,,,,,,,,,,,,,,,,,,,,,,,,,,,,,,,,,,,,,,,,,,,,,,,,,,,,,,,,,,,,,,,,,,,,,,,,,
,,61238ae128da0cdc3fe7a9b6,2024-02-19_03h15.52.887,kallum_motion_pilot,2023.2.2,Win32,166.6666667,61238ae128da0cdc3fe7a9b6,65d2b6c8f2eece985d8e374c,65d2b9caf340fcf7c13cd3de,0.03,0.03,1,18,180,57,1,onethree,,,,,,,,,,,,,,,,,,,,,,,,,,,,,,,,,,,,,,,,,,,,,,,,,,,,,,,,,,,,,,,,,,,,,,,,,,,,,,,,,,,,,,,,,,,,,,,,,,,,,,,,,,,,,,,,,,,,,,,,,,,,,,,,,,,,,,,,,
,,61238ae128da0cdc3fe7a9b6,2024-02-19_03h15.52.887,kallum_motion_pilot,2023.2.2,Win32,166.6666667,61238ae128da0cdc3fe7a9b6,65d2b6c8f2eece985d8e374c,65d2b9caf340fcf7c13cd3de,0.03,0.03,1,19,181,129,1,fiveseven,,,,,,,,,,,,,,,,,,,,,,,,,,,,,,,,,,,,,,,,,,,,,,,,,,,,,,,,,,,,,,,,,,,,,,,,,,,,,,,,,,,,,,,,,,,,,,,,,,,,,,,,,,,,,,,,,,,,,,,,,,,,,,,,,,,,,,,,,
,,61238ae128da0cdc3fe7a9b6,2024-02-19_03h15.52.887,kallum_motion_pilot,2023.2.2,Win32,166.6666667,61238ae128da0cdc3fe7a9b6,65d2b6c8f2eece985d8e374c,65d2b9caf340fcf7c13cd3de,0.03,0.03,1,20,182,135,1,eightseven,,,,,,,,,,,,,,,,,,,,,,,,,,,,,,,,,,,,,,,,,,,,,,,,,,,,,,,,,,,,,,,,,,,,,,,,,,,,,,,,,,,,,,,,,,,,,,,,,,,,,,,,,,,,,,,,,,,,,,,,,,,,,,,,,,,,,,,,,
,,61238ae128da0cdc3fe7a9b6,2024-02-19_03h15.52.887,kallum_motion_pilot,2023.2.2,Win32,166.6666667,61238ae128da0cdc3fe7a9b6,65d2b6c8f2eece985d8e374c,65d2b9caf340fcf7c13cd3de,0.03,0.03,1,21,183,149,1,seveneight,,,,,,,,,,,,,,,,,,,,,,,,,,,,,,,,,,,,,,,,,,,,,,,,,,,,,,,,,,,,,,,,,,,,,,,,,,,,,,,,,,,,,,,,,,,,,,,,,,,,,,,,,,,,,,,,,,,,,,,,,,,,,,,,,,,,,,,,,
,,61238ae128da0cdc3fe7a9b6,2024-02-19_03h15.52.887,kallum_motion_pilot,2023.2.2,Win32,166.6666667,61238ae128da0cdc3fe7a9b6,65d2b6c8f2eece985d8e374c,65d2b9caf340fcf7c13cd3de,0.03,0.03,1,22,184,103,1,eightseven,,,,,,,,,,,,,,,,,,,,,,,,,,,,,,,,,,,,,,,,,,,,,,,,,,,,,,,,,,,,,,,,,,,,,,,,,,,,,,,,,,,,,,,,,,,,,,,,,,,,,,,,,,,,,,,,,,,,,,,,,,,,,,,,,,,,,,,,,
,,61238ae128da0cdc3fe7a9b6,2024-02-19_03h15.52.887,kallum_motion_pilot,2023.2.2,Win32,166.6666667,61238ae128da0cdc3fe7a9b6,65d2b6c8f2eece985d8e374c,65d2b9caf340fcf7c13cd3de,0.03,0.03,1,23,185,42,1,twoone,,,,,,,,,,,,,,,,,,,,,,,,,,,,,,,,,,,,,,,,,,,,,,,,,,,,,,,,,,,,,,,,,,,,,,,,,,,,,,,,,,,,,,,,,,,,,,,,,,,,,,,,,,,,,,,,,,,,,,,,,,,,,,,,,,,,,,,,,
,,61238ae128da0cdc3fe7a9b6,2024-02-19_03h15.52.887,kallum_motion_pilot,2023.2.2,Win32,166.6666667,61238ae128da0cdc3fe7a9b6,65d2b6c8f2eece985d8e374c,65d2b9caf340fcf7c13cd3de,0.03,0.03,1,24,186,100,1,sevenfive,,,,,,,,,,,,,,,,,,,,,,,,,,,,,,,,,,,,,,,,,,,,,,,,,,,,,,,,,,,,,,,,,,,,,,,,,,,,,,,,,,,,,,,,,,,,,,,,,,,,,,,,,,,,,,,,,,,,,,,,,,,,,,,,,,,,,,,,,
,,61238ae128da0cdc3fe7a9b6,2024-02-19_03h15.52.887,kallum_motion_pilot,2023.2.2,Win32,166.6666667,61238ae128da0cdc3fe7a9b6,65d2b6c8f2eece985d8e374c,65d2b9caf340fcf7c13cd3de,0.03,0.03,1,25,187,133,1,seveneight,,,,,,,,,,,,,,,,,,,,,,,,,,,,,,,,,,,,,,,,,,,,,,,,,,,,,,,,,,,,,,,,,,,,,,,,,,,,,,,,,,,,,,,,,,,,,,,,,,,,,,,,,,,,,,,,,,,,,,,,,,,,,,,,,,,,,,,,,
,,61238ae128da0cdc3fe7a9b6,2024-02-19_03h15.52.887,kallum_motion_pilot,2023.2.2,Win32,166.6666667,61238ae128da0cdc3fe7a9b6,65d2b6c8f2eece985d8e374c,65d2b9caf340fcf7c13cd3de,0.03,0.03,1,26,188,112,1,fivesix,,,,,,,,,,,,,,,,,,,,,,,,,,,,,,,,,,,,,,,,,,,,,,,,,,,,,,,,,,,,,,,,,,,,,,,,,,,,,,,,,,,,,,,,,,,,,,,,,,,,,,,,,,,,,,,,,,,,,,,,,,,,,,,,,,,,,,,,,
,,61238ae128da0cdc3fe7a9b6,2024-02-19_03h15.52.887,kallum_motion_pilot,2023.2.2,Win32,166.6666667,61238ae128da0cdc3fe7a9b6,65d2b6c8f2eece985d8e374c,65d2b9caf340fcf7c13cd3de,0.03,0.03,1,27,189,134,1,eightsix,,,,,,,,,,,,,,,,,,,,,,,,,,,,,,,,,,,,,,,,,,,,,,,,,,,,,,,,,,,,,,,,,,,,,,,,,,,,,,,,,,,,,,,,,,,,,,,,,,,,,,,,,,,,,,,,,,,,,,,,,,,,,,,,,,,,,,,,,
,,61238ae128da0cdc3fe7a9b6,2024-02-19_03h15.52.887,kallum_motion_pilot,2023.2.2,Win32,166.6666667,61238ae128da0cdc3fe7a9b6,65d2b6c8f2eece985d8e374c,65d2b9caf340fcf7c13cd3de,0.03,0.03,1,28,190,69,1,threefour,,,,,,,,,,,,,,,,,,,,,,,,,,,,,,,,,,,,,,,,,,,,,,,,,,,,,,,,,,,,,,,,,,,,,,,,,,,,,,,,,,,,,,,,,,,,,,,,,,,,,,,,,,,,,,,,,,,,,,,,,,,,,,,,,,,,,,,,,
,,61238ae128da0cdc3fe7a9b6,2024-02-19_03h15.52.887,kallum_motion_pilot,2023.2.2,Win32,166.6666667,61238ae128da0cdc3fe7a9b6,65d2b6c8f2eece985d8e374c,65d2b9caf340fcf7c13cd3de,0.03,0.03,1,29,191,153,1,fiveseven,,,,,,,,,,,,,,,,,,,,,,,,,,,,,,,,,,,,,,,,,,,,,,,,,,,,,,,,,,,,,,,,,,,,,,,,,,,,,,,,,,,,,,,,,,,,,,,,,,,,,,,,,,,,,,,,,,,,,,,,,,,,,,,,,,,,,,,,,
,,61238ae128da0cdc3fe7a9b6,2024-02-19_03h15.52.887,kallum_motion_pilot,2023.2.2,Win32,166.6666667,61238ae128da0cdc3fe7a9b6,65d2b6c8f2eece985d8e374c,65d2b9caf340fcf7c13cd3de,0.03,0.03,1,30,192,119,1,eightseven,,,,,,,,,,,,,,,,,,,,,,,,,,,,,,,,,,,,,,,,,,,,,,,,,,,,,,,,,,,,,,,,,,,,,,,,,,,,,,,,,,,,,,,,,,,,,,,,,,,,,,,,,,,,,,,,,,,,,,,,,,,,,,,,,,,,,,,,,
,,61238ae128da0cdc3fe7a9b6,2024-02-19_03h15.52.887,kallum_motion_pilot,2023.2.2,Win32,166.6666667,61238ae128da0cdc3fe7a9b6,65d2b6c8f2eece985d8e374c,65d2b9caf340fcf7c13cd3de,0.03,0.03,1,31,193,96,1,fivesix,,,,,,,,,,,,,,,,,,,,,,,,,,,,,,,,,,,,,,,,,,,,,,,,,,,,,,,,,,,,,,,,,,,,,,,,,,,,,,,,,,,,,,,,,,,,,,,,,,,,,,,,,,,,,,,,,,,,,,,,,,,,,,,,,,,,,,,,,
,,61238ae128da0cdc3fe7a9b6,2024-02-19_03h15.52.887,kallum_motion_pilot,2023.2.2,Win32,166.6666667,61238ae128da0cdc3fe7a9b6,65d2b6c8f2eece985d8e374c,65d2b9caf340fcf7c13cd3de,0.03,0.03,1,32,194,74,1,twoone,,,,,,,,,,,,,,,,,,,,,,,,,,,,,,,,,,,,,,,,,,,,,,,,,,,,,,,,,,,,,,,,,,,,,,,,,,,,,,,,,,,,,,,,,,,,,,,,,,,,,,,,,,,,,,,,,,,,,,,,,,,,,,,,,,,,,,,,,
,,61238ae128da0cdc3fe7a9b6,2024-02-19_03h15.52.887,kallum_motion_pilot,2023.2.2,Win32,166.6666667,61238ae128da0cdc3fe7a9b6,65d2b6c8f2eece985d8e374c,65d2b9caf340fcf7c13cd3de,0.03,0.03,1,33,195,53,1,threefour,,,,,,,,,,,,,,,,,,,,,,,,,,,,,,,,,,,,,,,,,,,,,,,,,,,,,,,,,,,,,,,,,,,,,,,,,,,,,,,,,,,,,,,,,,,,,,,,,,,,,,,,,,,,,,,,,,,,,,,,,,,,,,,,,,,,,,,,,
,,61238ae128da0cdc3fe7a9b6,2024-02-19_03h15.52.887,kallum_motion_pilot,2023.2.2,Win32,166.6666667,61238ae128da0cdc3fe7a9b6,65d2b6c8f2eece985d8e374c,65d2b9caf340fcf7c13cd3de,0.03,0.031,1,34,196,34,1,twoone,,,,,,,,,,,,,,,,,,,,,,,,,,,,,,,,,,,,,,,,,,,,,,,,,,,,,,,,,,,,,,,,,,,,,,,,,,,,,,,,,,,,,,,,,,,,,,,,,,,,,,,,,,,,,,,,,,,,,,,,,,,,,,,,,,,,,,,,,
,,61238ae128da0cdc3fe7a9b6,2024-02-19_03h15.52.887,kallum_motion_pilot,2023.2.2,Win32,166.6666667,61238ae128da0cdc3fe7a9b6,65d2b6c8f2eece985d8e374c,65d2b9caf340fcf7c13cd3de,0.031,0.031,1,35,197,88,1,fivesix,,,,,,,,,,,,,,,,,,,,,,,,,,,,,,,,,,,,,,,,,,,,,,,,,,,,,,,,,,,,,,,,,,,,,,,,,,,,,,,,,,,,,,,,,,,,,,,,,,,,,,,,,,,,,,,,,,,,,,,,,,,,,,,,,,,,,,,,,
,,61238ae128da0cdc3fe7a9b6,2024-02-19_03h15.52.887,kallum_motion_pilot,2023.2.2,Win32,166.6666667,61238ae128da0cdc3fe7a9b6,65d2b6c8f2eece985d8e374c,65d2b9caf340fcf7c13cd3de,0.031,0.031,1,36,198,98,1,sixfive,,,,,,,,,,,,,,,,,,,,,,,,,,,,,,,,,,,,,,,,,,,,,,,,,,,,,,,,,,,,,,,,,,,,,,,,,,,,,,,,,,,,,,,,,,,,,,,,,,,,,,,,,,,,,,,,,,,,,,,,,,,,,,,,,,,,,,,,,
,,61238ae128da0cdc3fe7a9b6,2024-02-19_03h15.52.887,kallum_motion_pilot,2023.2.2,Win32,166.6666667,61238ae128da0cdc3fe7a9b6,65d2b6c8f2eece985d8e374c,65d2b9caf340fcf7c13cd3de,0.031,0.031,1,37,199,51,1,twofour,,,,,,,,,,,,,,,,,,,,,,,,,,,,,,,,,,,,,,,,,,,,,,,,,,,,,,,,,,,,,,,,,,,,,,,,,,,,,,,,,,,,,,,,,,,,,,,,,,,,,,,,,,,,,,,,,,,,,,,,,,,,,,,,,,,,,,,,,
,,61238ae128da0cdc3fe7a9b6,2024-02-19_03h15.52.887,kallum_motion_pilot,2023.2.2,Win32,166.6666667,61238ae128da0cdc3fe7a9b6,65d2b6c8f2eece985d8e374c,65d2b9caf340fcf7c13cd3de,0.031,0.031,1,38,200,102,1,eightsix,,,,,,,,,,,,,,,,,,,,,,,,,,,,,,,,,,,,,,,,,,,,,,,,,,,,,,,,,,,,,,,,,,,,,,,,,,,,,,,,,,,,,,,,,,,,,,,,,,,,,,,,,,,,,,,,,,,,,,,,,,,,,,,,,,,,,,,,,
,,61238ae128da0cdc3fe7a9b6,2024-02-19_03h15.52.887,kallum_motion_pilot,2023.2.2,Win32,166.6666667,61238ae128da0cdc3fe7a9b6,65d2b6c8f2eece985d8e374c,65d2b9caf340fcf7c13cd3de,0.031,0.031,1,39,201,110,1,eightsix,,,,,,,,,,,,,,,,,,,,,,,,,,,,,,,,,,,,,,,,,,,,,,,,,,,,,,,,,,,,,,,,,,,,,,,,,,,,,,,,,,,,,,,,,,,,,,,,,,,,,,,,,,,,,,,,,,,,,,,,,,,,,,,,,,,,,,,,,
,,61238ae128da0cdc3fe7a9b6,2024-02-19_03h15.52.887,kallum_motion_pilot,2023.2.2,Win32,166.6666667,61238ae128da0cdc3fe7a9b6,65d2b6c8f2eece985d8e374c,65d2b9caf340fcf7c13cd3de,0.032,0.032,1,40,202,67,1,twofour,,,,,,,,,,,,,,,,,,,,,,,,,,,,,,,,,,,,,,,,,,,,,,,,,,,,,,,,,,,,,,,,,,,,,,,,,,,,,,,,,,,,,,,,,,,,,,,,,,,,,,,,,,,,,,,,,,,,,,,,,,,,,,,,,,,,,,,,,
,,61238ae128da0cdc3fe7a9b6,2024-02-19_03h15.52.887,kallum_motion_pilot,2023.2.2,Win32,166.6666667,61238ae128da0cdc3fe7a9b6,65d2b6c8f2eece985d8e374c,65d2b9caf340fcf7c13cd3de,0.032,0.032,1,41,203,59,1,twofour,,,,,,,,,,,,,,,,,,,,,,,,,,,,,,,,,,,,,,,,,,,,,,,,,,,,,,,,,,,,,,,,,,,,,,,,,,,,,,,,,,,,,,,,,,,,,,,,,,,,,,,,,,,,,,,,,,,,,,,,,,,,,,,,,,,,,,,,,
,,61238ae128da0cdc3fe7a9b6,2024-02-19_03h15.52.887,kallum_motion_pilot,2023.2.2,Win32,166.6666667,61238ae128da0cdc3fe7a9b6,65d2b6c8f2eece985d8e374c,65d2b9caf340fcf7c13cd3de,0.032,0.032,1,42,204,78,1,fourtwo,,,,,,,,,,,,,,,,,,,,,,,,,,,,,,,,,,,,,,,,,,,,,,,,,,,,,,,,,,,,,,,,,,,,,,,,,,,,,,,,,,,,,,,,,,,,,,,,,,,,,,,,,,,,,,,,,,,,,,,,,,,,,,,,,,,,,,,,,
,,61238ae128da0cdc3fe7a9b6,2024-02-19_03h15.52.887,kallum_motion_pilot,2023.2.2,Win32,166.6666667,61238ae128da0cdc3fe7a9b6,65d2b6c8f2eece985d8e374c,65d2b9caf340fcf7c13cd3de,0.032,0.032,1,43,205,52,1,threeone,,,,,,,,,,,,,,,,,,,,,,,,,,,,,,,,,,,,,,,,,,,,,,,,,,,,,,,,,,,,,,,,,,,,,,,,,,,,,,,,,,,,,,,,,,,,,,,,,,,,,,,,,,,,,,,,,,,,,,,,,,,,,,,,,,,,,,,,,
,,61238ae128da0cdc3fe7a9b6,2024-02-19_03h15.52.887,kallum_motion_pilot,2023.2.2,Win32,166.6666667,61238ae128da0cdc3fe7a9b6,65d2b6c8f2eece985d8e374c,65d2b9caf340fcf7c13cd3de,0.032,0.032,1,44,206,15,1,fourthree,,,,,,,,,,,,,,,,,,,,,,,,,,,,,,,,,,,,,,,,,,,,,,,,,,,,,,,,,,,,,,,,,,,,,,,,,,,,,,,,,,,,,,,,,,,,,,,,,,,,,,,,,,,,,,,,,,,,,,,,,,,,,,,,,,,,,,,,,
,,61238ae128da0cdc3fe7a9b6,2024-02-19_03h15.52.887,kallum_motion_pilot,2023.2.2,Win32,166.6666667,61238ae128da0cdc3fe7a9b6,65d2b6c8f2eece985d8e374c,65d2b9caf340fcf7c13cd3de,0.032,0.032,1,45,207,37,1,threefour,,,,,,,,,,,,,,,,,,,,,,,,,,,,,,,,,,,,,,,,,,,,,,,,,,,,,,,,,,,,,,,,,,,,,,,,,,,,,,,,,,,,,,,,,,,,,,,,,,,,,,,,,,,,,,,,,,,,,,,,,,,,,,,,,,,,,,,,,
,,61238ae128da0cdc3fe7a9b6,2024-02-19_03h15.52.887,kallum_motion_pilot,2023.2.2,Win32,166.6666667,61238ae128da0cdc3fe7a9b6,65d2b6c8f2eece985d8e374c,65d2b9caf340fcf7c13cd3de,0.032,0.032,1,46,208,44,1,threeone,,,,,,,,,,,,,,,,,,,,,,,,,,,,,,,,,,,,,,,,,,,,,,,,,,,,,,,,,,,,,,,,,,,,,,,,,,,,,,,,,,,,,,,,,,,,,,,,,,,,,,,,,,,,,,,,,,,,,,,,,,,,,,,,,,,,,,,,,
,,61238ae128da0cdc3fe7a9b6,2024-02-19_03h15.52.887,kallum_motion_pilot,2023.2.2,Win32,166.6666667,61238ae128da0cdc3fe7a9b6,65d2b6c8f2eece985d8e374c,65d2b9caf340fcf7c13cd3de,0.032,0.032,1,47,209,40,1,onetwo,,,,,,,,,,,,,,,,,,,,,,,,,,,,,,,,,,,,,,,,,,,,,,,,,,,,,,,,,,,,,,,,,,,,,,,,,,,,,,,,,,,,,,,,,,,,,,,,,,,,,,,,,,,,,,,,,,,,,,,,,,,,,,,,,,,,,,,,,
,,61238ae128da0cdc3fe7a9b6,2024-02-19_03h15.52.887,kallum_motion_pilot,2023.2.2,Win32,166.6666667,61238ae128da0cdc3fe7a9b6,65d2b6c8f2eece985d8e374c,65d2b9caf340fcf7c13cd3de,0.032,0.032,1,48,210,65,1,onethree,,,,,,,,,,,,,,,,,,,,,,,,,,,,,,,,,,,,,,,,,,,,,,,,,,,,,,,,,,,,,,,,,,,,,,,,,,,,,,,,,,,,,,,,,,,,,,,,,,,,,,,,,,,,,,,,,,,,,,,,,,,,,,,,,,,,,,,,,
,,61238ae128da0cdc3fe7a9b6,2024-02-19_03h15.52.887,kallum_motion_pilot,2023.2.2,Win32,166.6666667,61238ae128da0cdc3fe7a9b6,65d2b6c8f2eece985d8e374c,65d2b9caf340fcf7c13cd3de,0.032,0.032,1,49,211,75,1,twofour,,,,,,,,,,,,,,,,,,,,,,,,,,,,,,,,,,,,,,,,,,,,,,,,,,,,,,,,,,,,,,,,,,,,,,,,,,,,,,,,,,,,,,,,,,,,,,,,,,,,,,,,,,,,,,,,,,,,,,,,,,,,,,,,,,,,,,,,,
,,61238ae128da0cdc3fe7a9b6,2024-02-19_03h15.52.887,kallum_motion_pilot,2023.2.2,Win32,166.6666667,61238ae128da0cdc3fe7a9b6,65d2b6c8f2eece985d8e374c,65d2b9caf340fcf7c13cd3de,0.032,0.032,1,50,212,21,1,threefour,,,,,,,,,,,,,,,,,,,,,,,,,,,,,,,,,,,,,,,,,,,,,,,,,,,,,,,,,,,,,,,,,,,,,,,,,,,,,,,,,,,,,,,,,,,,,,,,,,,,,,,,,,,,,,,,,,,,,,,,,,,,,,,,,,,,,,,,,
,,61238ae128da0cdc3fe7a9b6,2024-02-19_03h15.52.887,kallum_motion_pilot,2023.2.2,Win32,166.6666667,61238ae128da0cdc3fe7a9b6,65d2b6c8f2eece985d8e374c,65d2b9caf340fcf7c13cd3de,0.032,0.032,1,51,213,76,1,threeone,,,,,,,,,,,,,,,,,,,,,,,,,,,,,,,,,,,,,,,,,,,,,,,,,,,,,,,,,,,,,,,,,,,,,,,,,,,,,,,,,,,,,,,,,,,,,,,,,,,,,,,,,,,,,,,,,,,,,,,,,,,,,,,,,,,,,,,,,
,,61238ae128da0cdc3fe7a9b6,2024-02-19_03h15.52.887,kallum_motion_pilot,2023.2.2,Win32,166.6666667,61238ae128da0cdc3fe7a9b6,65d2b6c8f2eece985d8e374c,65d2b9caf340fcf7c13cd3de,0.032,0.032,1,52,214,27,1,twofour,,,,,,,,,,,,,,,,,,,,,,,,,,,,,,,,,,,,,,,,,,,,,,,,,,,,,,,,,,,,,,,,,,,,,,,,,,,,,,,,,,,,,,,,,,,,,,,,,,,,,,,,,,,,,,,,,,,,,,,,,,,,,,,,,,,,,,,,,
,,61238ae128da0cdc3fe7a9b6,2024-02-19_03h15.52.887,kallum_motion_pilot,2023.2.2,Win32,166.6666667,61238ae128da0cdc3fe7a9b6,65d2b6c8f2eece985d8e374c,65d2b9caf340fcf7c13cd3de,0.033,0.033,1,53,215,91,1,sixeight,,,,,,,,,,,,,,,,,,,,,,,,,,,,,,,,,,,,,,,,,,,,,,,,,,,,,,,,,,,,,,,,,,,,,,,,,,,,,,,,,,,,,,,,,,,,,,,,,,,,,,,,,,,,,,,,,,,,,,,,,,,,,,,,,,,,,,,,,
,,61238ae128da0cdc3fe7a9b6,2024-02-19_03h15.52.887,kallum_motion_pilot,2023.2.2,Win32,166.6666667,61238ae128da0cdc3fe7a9b6,65d2b6c8f2eece985d8e374c,65d2b9caf340fcf7c13cd3de,0.033,0.033,1,54,216,120,1,fivesix,,,,,,,,,,,,,,,,,,,,,,,,,,,,,,,,,,,,,,,,,,,,,,,,,,,,,,,,,,,,,,,,,,,,,,,,,,,,,,,,,,,,,,,,,,,,,,,,,,,,,,,,,,,,,,,,,,,,,,,,,,,,,,,,,,,,,,,,,
,,61238ae128da0cdc3fe7a9b6,2024-02-19_03h15.52.887,kallum_motion_pilot,2023.2.2,Win32,166.6666667,61238ae128da0cdc3fe7a9b6,65d2b6c8f2eece985d8e374c,65d2b9caf340fcf7c13cd3de,0.033,0.033,1,55,217,152,1,fivesix,,,,,,,,,,,,,,,,,,,,,,,,,,,,,,,,,,,,,,,,,,,,,,,,,,,,,,,,,,,,,,,,,,,,,,,,,,,,,,,,,,,,,,,,,,,,,,,,,,,,,,,,,,,,,,,,,,,,,,,,,,,,,,,,,,,,,,,,,
,,61238ae128da0cdc3fe7a9b6,2024-02-19_03h15.52.887,kallum_motion_pilot,2023.2.2,Win32,166.6666667,61238ae128da0cdc3fe7a9b6,65d2b6c8f2eece985d8e374c,65d2b9caf340fcf7c13cd3de,0.033,0.033,1,56,218,26,1,twoone,,,,,,,,,,,,,,,,,,,,,,,,,,,,,,,,,,,,,,,,,,,,,,,,,,,,,,,,,,,,,,,,,,,,,,,,,,,,,,,,,,,,,,,,,,,,,,,,,,,,,,,,,,,,,,,,,,,,,,,,,,,,,,,,,,,,,,,,,
,,61238ae128da0cdc3fe7a9b6,2024-02-19_03h15.52.887,kallum_motion_pilot,2023.2.2,Win32,166.6666667,61238ae128da0cdc3fe7a9b6,65d2b6c8f2eece985d8e374c,65d2b9caf340fcf7c13cd3de,0.033,0.033,1,57,219,50,1,twoone,,,,,,,,,,,,,,,,,,,,,,,,,,,,,,,,,,,,,,,,,,,,,,,,,,,,,,,,,,,,,,,,,,,,,,,,,,,,,,,,,,,,,,,,,,,,,,,,,,,,,,,,,,,,,,,,,,,,,,,,,,,,,,,,,,,,,,,,,
,,61238ae128da0cdc3fe7a9b6,2024-02-19_03h15.52.887,kallum_motion_pilot,2023.2.2,Win32,166.6666667,61238ae128da0cdc3fe7a9b6,65d2b6c8f2eece985d8e374c,65d2b9caf340fcf7c13cd3de,0.033,0.033,1,58,220,159,1,eightseven,,,,,,,,,,,,,,,,,,,,,,,,,,,,,,,,,,,,,,,,,,,,,,,,,,,,,,,,,,,,,,,,,,,,,,,,,,,,,,,,,,,,,,,,,,,,,,,,,,,,,,,,,,,,,,,,,,,,,,,,,,,,,,,,,,,,,,,,,
,,61238ae128da0cdc3fe7a9b6,2024-02-19_03h15.52.887,kallum_motion_pilot,2023.2.2,Win32,166.6666667,61238ae128da0cdc3fe7a9b6,65d2b6c8f2eece985d8e374c,65d2b9caf340fcf7c13cd3de,0.033,0.033,1,59,221,101,1,seveneight,,,,,,,,,,,,,,,,,,,,,,,,,,,,,,,,,,,,,,,,,,,,,,,,,,,,,,,,,,,,,,,,,,,,,,,,,,,,,,,,,,,,,,,,,,,,,,,,,,,,,,,,,,,,,,,,,,,,,,,,,,,,,,,,,,,,,,,,,
,,61238ae128da0cdc3fe7a9b6,2024-02-19_03h15.52.887,kallum_motion_pilot,2023.2.2,Win32,166.6666667,61238ae128da0cdc3fe7a9b6,65d2b6c8f2eece985d8e374c,65d2b9caf340fcf7c13cd3de,0.033,0.033,1,60,222,8,1,onetwo,,,,,,,,,,,,,,,,,,,,,,,,,,,,,,,,,,,,,,,,,,,,,,,,,,,,,,,,,,,,,,,,,,,,,,,,,,,,,,,,,,,,,,,,,,,,,,,,,,,,,,,,,,,,,,,,,,,,,,,,,,,,,,,,,,,,,,,,,
,,61238ae128da0cdc3fe7a9b6,2024-02-19_03h15.52.887,kallum_motion_pilot,2023.2.2,Win32,166.6666667,61238ae128da0cdc3fe7a9b6,65d2b6c8f2eece985d8e374c,65d2b9caf340fcf7c13cd3de,0.033,0.033,1,61,223,14,1,fourtwo,,,,,,,,,,,,,,,,,,,,,,,,,,,,,,,,,,,,,,,,,,,,,,,,,,,,,,,,,,,,,,,,,,,,,,,,,,,,,,,,,,,,,,,,,,,,,,,,,,,,,,,,,,,,,,,,,,,,,,,,,,,,,,,,,,,,,,,,,
,,61238ae128da0cdc3fe7a9b6,2024-02-19_03h15.52.887,kallum_motion_pilot,2023.2.2,Win32,166.6666667,61238ae128da0cdc3fe7a9b6,65d2b6c8f2eece985d8e374c,65d2b9caf340fcf7c13cd3de,0.033,0.033,1,62,224,140,1,sevenfive,,,,,,,,,,,,,,,,,,,,,,,,,,,,,,,,,,,,,,,,,,,,,,,,,,,,,,,,,,,,,,,,,,,,,,,,,,,,,,,,,,,,,,,,,,,,,,,,,,,,,,,,,,,,,,,,,,,,,,,,,,,,,,,,,,,,,,,,,
,,61238ae128da0cdc3fe7a9b6,2024-02-19_03h15.52.887,kallum_motion_pilot,2023.2.2,Win32,166.6666667,61238ae128da0cdc3fe7a9b6,65d2b6c8f2eece985d8e374c,65d2b9caf340fcf7c13cd3de,0.034,0.034,1,63,225,104,1,fivesix,,,,,,,,,,,,,,,,,,,,,,,,,,,,,,,,,,,,,,,,,,,,,,,,,,,,,,,,,,,,,,,,,,,,,,,,,,,,,,,,,,,,,,,,,,,,,,,,,,,,,,,,,,,,,,,,,,,,,,,,,,,,,,,,,,,,,,,,,
,,61238ae128da0cdc3fe7a9b6,2024-02-19_03h15.52.887,kallum_motion_pilot,2023.2.2,Win32,166.6666667,61238ae128da0cdc3fe7a9b6,65d2b6c8f2eece985d8e374c,65d2b9caf340fcf7c13cd3de,0.034,0.034,1,64,226,123,1,sixeight,,,,,,,,,,,,,,,,,,,,,,,,,,,,,,,,,,,,,,,,,,,,,,,,,,,,,,,,,,,,,,,,,,,,,,,,,,,,,,,,,,,,,,,,,,,,,,,,,,,,,,,,,,,,,,,,,,,,,,,,,,,,,,,,,,,,,,,,,
,,61238ae128da0cdc3fe7a9b6,2024-02-19_03h15.52.887,kallum_motion_pilot,2023.2.2,Win32,166.6666667,61238ae128da0cdc3fe7a9b6,65d2b6c8f2eece985d8e374c,65d2b9caf340fcf7c13cd3de,0.034,0.034,1,65,227,0,1,onetwo,,,,,,,,,,,,,,,,,,,,,,,,,,,,,,,,,,,,,,,,,,,,,,,,,,,,,,,,,,,,,,,,,,,,,,,,,,,,,,,,,,,,,,,,,,,,,,,,,,,,,,,,,,,,,,,,,,,,,,,,,,,,,,,,,,,,,,,,,
,,61238ae128da0cdc3fe7a9b6,2024-02-19_03h15.52.887,kallum_motion_pilot,2023.2.2,Win32,166.6666667,61238ae128da0cdc3fe7a9b6,65d2b6c8f2eece985d8e374c,65d2b9caf340fcf7c13cd3de,0.034,0.034,1,66,228,63,1,fourthree,,,,,,,,,,,,,,,,,,,,,,,,,,,,,,,,,,,,,,,,,,,,,,,,,,,,,,,,,,,,,,,,,,,,,,,,,,,,,,,,,,,,,,,,,,,,,,,,,,,,,,,,,,,,,,,,,,,,,,,,,,,,,,,,,,,,,,,,,
,,61238ae128da0cdc3fe7a9b6,2024-02-19_03h15.52.887,kallum_motion_pilot,2023.2.2,Win32,166.6666667,61238ae128da0cdc3fe7a9b6,65d2b6c8f2eece985d8e374c,65d2b9caf340fcf7c13cd3de,0.034,0.034,1,67,229,118,1,eightsix,,,,,,,,,,,,,,,,,,,,,,,,,,,,,,,,,,,,,,,,,,,,,,,,,,,,,,,,,,,,,,,,,,,,,,,,,,,,,,,,,,,,,,,,,,,,,,,,,,,,,,,,,,,,,,,,,,,,,,,,,,,,,,,,,,,,,,,,,
,,61238ae128da0cdc3fe7a9b6,2024-02-19_03h15.52.887,kallum_motion_pilot,2023.2.2,Win32,166.6666667,61238ae128da0cdc3fe7a9b6,65d2b6c8f2eece985d8e374c,65d2b9caf340fcf7c13cd3de,0.034,0.034,1,68,230,31,1,fourthree,,,,,,,,,,,,,,,,,,,,,,,,,,,,,,,,,,,,,,,,,,,,,,,,,,,,,,,,,,,,,,,,,,,,,,,,,,,,,,,,,,,,,,,,,,,,,,,,,,,,,,,,,,,,,,,,,,,,,,,,,,,,,,,,,,,,,,,,,
,,61238ae128da0cdc3fe7a9b6,2024-02-19_03h15.52.887,kallum_motion_pilot,2023.2.2,Win32,166.6666667,61238ae128da0cdc3fe7a9b6,65d2b6c8f2eece985d8e374c,65d2b9caf340fcf7c13cd3de,0.034,0.034,1,69,231,49,1,onethree,,,,,,,,,,,,,,,,,,,,,,,,,,,,,,,,,,,,,,,,,,,,,,,,,,,,,,,,,,,,,,,,,,,,,,,,,,,,,,,,,,,,,,,,,,,,,,,,,,,,,,,,,,,,,,,,,,,,,,,,,,,,,,,,,,,,,,,,,
,,61238ae128da0cdc3fe7a9b6,2024-02-19_03h15.52.887,kallum_motion_pilot,2023.2.2,Win32,166.6666667,61238ae128da0cdc3fe7a9b6,65d2b6c8f2eece985d8e374c,65d2b9caf340fcf7c13cd3de,0.034,0.034,1,70,232,158,1,eightsix,,,,,,,,,,,,,,,,,,,,,,,,,,,,,,,,,,,,,,,,,,,,,,,,,,,,,,,,,,,,,,,,,,,,,,,,,,,,,,,,,,,,,,,,,,,,,,,,,,,,,,,,,,,,,,,,,,,,,,,,,,,,,,,,,,,,,,,,,
,,61238ae128da0cdc3fe7a9b6,2024-02-19_03h15.52.887,kallum_motion_pilot,2023.2.2,Win32,166.6666667,61238ae128da0cdc3fe7a9b6,65d2b6c8f2eece985d8e374c,65d2b9caf340fcf7c13cd3de,0.034,0.034,1,71,233,161,1,fiveseven,,,,,,,,,,,,,,,,,,,,,,,,,,,,,,,,,,,,,,,,,,,,,,,,,,,,,,,,,,,,,,,,,,,,,,,,,,,,,,,,,,,,,,,,,,,,,,,,,,,,,,,,,,,,,,,,,,,,,,,,,,,,,,,,,,,,,,,,,
,,61238ae128da0cdc3fe7a9b6,2024-02-19_03h15.52.887,kallum_motion_pilot,2023.2.2,Win32,166.6666667,61238ae128da0cdc3fe7a9b6,65d2b6c8f2eece985d8e374c,65d2b9caf340fcf7c13cd3de,0.034,0.034,1,72,234,22,1,fourtwo,,,,,,,,,,,,,,,,,,,,,,,,,,,,,,,,,,,,,,,,,,,,,,,,,,,,,,,,,,,,,,,,,,,,,,,,,,,,,,,,,,,,,,,,,,,,,,,,,,,,,,,,,,,,,,,,,,,,,,,,,,,,,,,,,,,,,,,,,
,,61238ae128da0cdc3fe7a9b6,2024-02-19_03h15.52.887,kallum_motion_pilot,2023.2.2,Win32,166.6666667,61238ae128da0cdc3fe7a9b6,65d2b6c8f2eece985d8e374c,65d2b9caf340fcf7c13cd3de,0.034,0.034,1,73,235,83,1,sixeight,,,,,,,,,,,,,,,,,,,,,,,,,,,,,,,,,,,,,,,,,,,,,,,,,,,,,,,,,,,,,,,,,,,,,,,,,,,,,,,,,,,,,,,,,,,,,,,,,,,,,,,,,,,,,,,,,,,,,,,,,,,,,,,,,,,,,,,,,
,,61238ae128da0cdc3fe7a9b6,2024-02-19_03h15.52.887,kallum_motion_pilot,2023.2.2,Win32,166.6666667,61238ae128da0cdc3fe7a9b6,65d2b6c8f2eece985d8e374c,65d2b9caf340fcf7c13cd3de,0.034,0.034,1,74,236,86,1,eightsix,,,,,,,,,,,,,,,,,,,,,,,,,,,,,,,,,,,,,,,,,,,,,,,,,,,,,,,,,,,,,,,,,,,,,,,,,,,,,,,,,,,,,,,,,,,,,,,,,,,,,,,,,,,,,,,,,,,,,,,,,,,,,,,,,,,,,,,,,
,,61238ae128da0cdc3fe7a9b6,2024-02-19_03h15.52.887,kallum_motion_pilot,2023.2.2,Win32,166.6666667,61238ae128da0cdc3fe7a9b6,65d2b6c8f2eece985d8e374c,65d2b9caf340fcf7c13cd3de,0.034,0.034,1,75,237,47,1,fourthree,,,,,,,,,,,,,,,,,,,,,,,,,,,,,,,,,,,,,,,,,,,,,,,,,,,,,,,,,,,,,,,,,,,,,,,,,,,,,,,,,,,,,,,,,,,,,,,,,,,,,,,,,,,,,,,,,,,,,,,,,,,,,,,,,,,,,,,,,
,,61238ae128da0cdc3fe7a9b6,2024-02-19_03h15.52.887,kallum_motion_pilot,2023.2.2,Win32,166.6666667,61238ae128da0cdc3fe7a9b6,65d2b6c8f2eece985d8e374c,65d2b9caf340fcf7c13cd3de,0.034,0.034,1,76,238,58,1,twoone,,,,,,,,,,,,,,,,,,,,,,,,,,,,,,,,,,,,,,,,,,,,,,,,,,,,,,,,,,,,,,,,,,,,,,,,,,,,,,,,,,,,,,,,,,,,,,,,,,,,,,,,,,,,,,,,,,,,,,,,,,,,,,,,,,,,,,,,,
,,61238ae128da0cdc3fe7a9b6,2024-02-19_03h15.52.887,kallum_motion_pilot,2023.2.2,Win32,166.6666667,61238ae128da0cdc3fe7a9b6,65d2b6c8f2eece985d8e374c,65d2b9caf340fcf7c13cd3de,0.034,0.034,1,77,239,137,1,fiveseven,,,,,,,,,,,,,,,,,,,,,,,,,,,,,,,,,,,,,,,,,,,,,,,,,,,,,,,,,,,,,,,,,,,,,,,,,,,,,,,,,,,,,,,,,,,,,,,,,,,,,,,,,,,,,,,,,,,,,,,,,,,,,,,,,,,,,,,,,
,,61238ae128da0cdc3fe7a9b6,2024-02-19_03h15.52.887,kallum_motion_pilot,2023.2.2,Win32,166.6666667,61238ae128da0cdc3fe7a9b6,65d2b6c8f2eece985d8e374c,65d2b9caf340fcf7c13cd3de,0.034,0.034,1,78,240,6,1,fourtwo,,,,,,,,,,,,,,,,,,,,,,,,,,,,,,,,,,,,,,,,,,,,,,,,,,,,,,,,,,,,,,,,,,,,,,,,,,,,,,,,,,,,,,,,,,,,,,,,,,,,,,,,,,,,,,,,,,,,,,,,,,,,,,,,,,,,,,,,,
,,61238ae128da0cdc3fe7a9b6,2024-02-19_03h15.52.887,kallum_motion_pilot,2023.2.2,Win32,166.6666667,61238ae128da0cdc3fe7a9b6,65d2b6c8f2eece985d8e374c,65d2b9caf340fcf7c13cd3de,0.034,0.035,1,79,241,93,1,seveneight,,,,,,,,,,,,,,,,,,,,,,,,,,,,,,,,,,,,,,,,,,,,,,,,,,,,,,,,,,,,,,,,,,,,,,,,,,,,,,,,,,,,,,,,,,,,,,,,,,,,,,,,,,,,,,,,,,,,,,,,,,,,,,,,,,,,,,,,,
,,61238ae128da0cdc3fe7a9b6,2024-02-19_03h15.52.887,kallum_motion_pilot,2023.2.2,Win32,166.6666667,61238ae128da0cdc3fe7a9b6,65d2b6c8f2eece985d8e374c,65d2b9caf340fcf7c13cd3de,0.035,0.035,1,80,242,146,1,sixfive,,,,,,,,,,,,,,,,,,,,,,,,,,,,,,,,,,,,,,,,,,,,,,,,,,,,,,,,,,,,,,,,,,,,,,,,,,,,,,,,,,,,,,,,,,,,,,,,,,,,,,,,,,,,,,,,,,,,,,,,,,,,,,,,,,,,,,,,,
,,61238ae128da0cdc3fe7a9b6,2024-02-19_03h15.52.887,kallum_motion_pilot,2023.2.2,Win32,166.6666667,61238ae128da0cdc3fe7a9b6,65d2b6c8f2eece985d8e374c,65d2b9caf340fcf7c13cd3de,0.035,0.035,1,81,243,80,1,fivesix,,,,,,,,,,,,,,,,,,,,,,,,,,,,,,,,,,,,,,,,,,,,,,,,,,,,,,,,,,,,,,,,,,,,,,,,,,,,,,,,,,,,,,,,,,,,,,,,,,,,,,,,,,,,,,,,,,,,,,,,,,,,,,,,,,,,,,,,,
,,61238ae128da0cdc3fe7a9b6,2024-02-19_03h15.52.887,kallum_motion_pilot,2023.2.2,Win32,166.6666667,61238ae128da0cdc3fe7a9b6,65d2b6c8f2eece985d8e374c,65d2b9caf340fcf7c13cd3de,0.035,0.035,1,82,244,154,1,sixfive,,,,,,,,,,,,,,,,,,,,,,,,,,,,,,,,,,,,,,,,,,,,,,,,,,,,,,,,,,,,,,,,,,,,,,,,,,,,,,,,,,,,,,,,,,,,,,,,,,,,,,,,,,,,,,,,,,,,,,,,,,,,,,,,,,,,,,,,,
,,61238ae128da0cdc3fe7a9b6,2024-02-19_03h15.52.887,kallum_motion_pilot,2023.2.2,Win32,166.6666667,61238ae128da0cdc3fe7a9b6,65d2b6c8f2eece985d8e374c,65d2b9caf340fcf7c13cd3de,0.035,0.035,1,83,245,77,1,threefour,,,,,,,,,,,,,,,,,,,,,,,,,,,,,,,,,,,,,,,,,,,,,,,,,,,,,,,,,,,,,,,,,,,,,,,,,,,,,,,,,,,,,,,,,,,,,,,,,,,,,,,,,,,,,,,,,,,,,,,,,,,,,,,,,,,,,,,,,
,,61238ae128da0cdc3fe7a9b6,2024-02-19_03h15.52.887,kallum_motion_pilot,2023.2.2,Win32,166.6666667,61238ae128da0cdc3fe7a9b6,65d2b6c8f2eece985d8e374c,65d2b9caf340fcf7c13cd3de,0.035,0.035,1,84,246,39,1,fourthree,,,,,,,,,,,,,,,,,,,,,,,,,,,,,,,,,,,,,,,,,,,,,,,,,,,,,,,,,,,,,,,,,,,,,,,,,,,,,,,,,,,,,,,,,,,,,,,,,,,,,,,,,,,,,,,,,,,,,,,,,,,,,,,,,,,,,,,,,
,,61238ae128da0cdc3fe7a9b6,2024-02-19_03h15.52.887,kallum_motion_pilot,2023.2.2,Win32,166.6666667,61238ae128da0cdc3fe7a9b6,65d2b6c8f2eece985d8e374c,65d2b9caf340fcf7c13cd3de,0.035,0.035,1,85,247,108,1,sevenfive,,,,,,,,,,,,,,,,,,,,,,,,,,,,,,,,,,,,,,,,,,,,,,,,,,,,,,,,,,,,,,,,,,,,,,,,,,,,,,,,,,,,,,,,,,,,,,,,,,,,,,,,,,,,,,,,,,,,,,,,,,,,,,,,,,,,,,,,,
,,61238ae128da0cdc3fe7a9b6,2024-02-19_03h15.52.887,kallum_motion_pilot,2023.2.2,Win32,166.6666667,61238ae128da0cdc3fe7a9b6,65d2b6c8f2eece985d8e374c,65d2b9caf340fcf7c13cd3de,0.036,0.036,1,86,248,121,1,fiveseven,,,,,,,,,,,,,,,,,,,,,,,,,,,,,,,,,,,,,,,,,,,,,,,,,,,,,,,,,,,,,,,,,,,,,,,,,,,,,,,,,,,,,,,,,,,,,,,,,,,,,,,,,,,,,,,,,,,,,,,,,,,,,,,,,,,,,,,,,
,,61238ae128da0cdc3fe7a9b6,2024-02-19_03h15.52.887,kallum_motion_pilot,2023.2.2,Win32,166.6666667,61238ae128da0cdc3fe7a9b6,65d2b6c8f2eece985d8e374c,65d2b9caf340fcf7c13cd3de,0.036,0.036,1,87,249,56,1,onetwo,,,,,,,,,,,,,,,,,,,,,,,,,,,,,,,,,,,,,,,,,,,,,,,,,,,,,,,,,,,,,,,,,,,,,,,,,,,,,,,,,,,,,,,,,,,,,,,,,,,,,,,,,,,,,,,,,,,,,,,,,,,,,,,,,,,,,,,,,
,,61238ae128da0cdc3fe7a9b6,2024-02-19_03h15.52.887,kallum_motion_pilot,2023.2.2,Win32,166.6666667,61238ae128da0cdc3fe7a9b6,65d2b6c8f2eece985d8e374c,65d2b9caf340fcf7c13cd3de,0.036,0.036,1,88,250,19,1,twofour,,,,,,,,,,,,,,,,,,,,,,,,,,,,,,,,,,,,,,,,,,,,,,,,,,,,,,,,,,,,,,,,,,,,,,,,,,,,,,,,,,,,,,,,,,,,,,,,,,,,,,,,,,,,,,,,,,,,,,,,,,,,,,,,,,,,,,,,,
,,61238ae128da0cdc3fe7a9b6,2024-02-19_03h15.52.887,kallum_motion_pilot,2023.2.2,Win32,166.6666667,61238ae128da0cdc3fe7a9b6,65d2b6c8f2eece985d8e374c,65d2b9caf340fcf7c13cd3de,0.036,0.036,1,89,251,155,1,sixeight,,,,,,,,,,,,,,,,,,,,,,,,,,,,,,,,,,,,,,,,,,,,,,,,,,,,,,,,,,,,,,,,,,,,,,,,,,,,,,,,,,,,,,,,,,,,,,,,,,,,,,,,,,,,,,,,,,,,,,,,,,,,,,,,,,,,,,,,,
,,61238ae128da0cdc3fe7a9b6,2024-02-19_03h15.52.887,kallum_motion_pilot,2023.2.2,Win32,166.6666667,61238ae128da0cdc3fe7a9b6,65d2b6c8f2eece985d8e374c,65d2b9caf340fcf7c13cd3de,0.036,0.036,1,90,252,99,1,sixeight,,,,,,,,,,,,,,,,,,,,,,,,,,,,,,,,,,,,,,,,,,,,,,,,,,,,,,,,,,,,,,,,,,,,,,,,,,,,,,,,,,,,,,,,,,,,,,,,,,,,,,,,,,,,,,,,,,,,,,,,,,,,,,,,,,,,,,,,,
,,61238ae128da0cdc3fe7a9b6,2024-02-19_03h15.52.887,kallum_motion_pilot,2023.2.2,Win32,166.6666667,61238ae128da0cdc3fe7a9b6,65d2b6c8f2eece985d8e374c,65d2b9caf340fcf7c13cd3de,0.036,0.036,1,91,253,36,1,threeone,,,,,,,,,,,,,,,,,,,,,,,,,,,,,,,,,,,,,,,,,,,,,,,,,,,,,,,,,,,,,,,,,,,,,,,,,,,,,,,,,,,,,,,,,,,,,,,,,,,,,,,,,,,,,,,,,,,,,,,,,,,,,,,,,,,,,,,,,
,,61238ae128da0cdc3fe7a9b6,2024-02-19_03h15.52.887,kallum_motion_pilot,2023.2.2,Win32,166.6666667,61238ae128da0cdc3fe7a9b6,65d2b6c8f2eece985d8e374c,65d2b9caf340fcf7c13cd3de,0.036,0.036,1,92,254,136,1,fivesix,,,,,,,,,,,,,,,,,,,,,,,,,,,,,,,,,,,,,,,,,,,,,,,,,,,,,,,,,,,,,,,,,,,,,,,,,,,,,,,,,,,,,,,,,,,,,,,,,,,,,,,,,,,,,,,,,,,,,,,,,,,,,,,,,,,,,,,,,
,,61238ae128da0cdc3fe7a9b6,2024-02-19_03h15.52.887,kallum_motion_pilot,2023.2.2,Win32,166.6666667,61238ae128da0cdc3fe7a9b6,65d2b6c8f2eece985d8e374c,65d2b9caf340fcf7c13cd3de,0.036,0.036,1,93,255,68,1,threeone,,,,,,,,,,,,,,,,,,,,,,,,,,,,,,,,,,,,,,,,,,,,,,,,,,,,,,,,,,,,,,,,,,,,,,,,,,,,,,,,,,,,,,,,,,,,,,,,,,,,,,,,,,,,,,,,,,,,,,,,,,,,,,,,,,,,,,,,,
,,61238ae128da0cdc3fe7a9b6,2024-02-19_03h15.52.887,kallum_motion_pilot,2023.2.2,Win32,166.6666667,61238ae128da0cdc3fe7a9b6,65d2b6c8f2eece985d8e374c,65d2b9caf340fcf7c13cd3de,0.036,0.036,1,94,256,143,1,eightseven,,,,,,,,,,,,,,,,,,,,,,,,,,,,,,,,,,,,,,,,,,,,,,,,,,,,,,,,,,,,,,,,,,,,,,,,,,,,,,,,,,,,,,,,,,,,,,,,,,,,,,,,,,,,,,,,,,,,,,,,,,,,,,,,,,,,,,,,,
,,61238ae128da0cdc3fe7a9b6,2024-02-19_03h15.52.887,kallum_motion_pilot,2023.2.2,Win32,166.6666667,61238ae128da0cdc3fe7a9b6,65d2b6c8f2eece985d8e374c,65d2b9caf340fcf7c13cd3de,0.036,0.036,1,95,257,141,1,seveneight,,,,,,,,,,,,,,,,,,,,,,,,,,,,,,,,,,,,,,,,,,,,,,,,,,,,,,,,,,,,,,,,,,,,,,,,,,,,,,,,,,,,,,,,,,,,,,,,,,,,,,,,,,,,,,,,,,,,,,,,,,,,,,,,,,,,,,,,,
,,61238ae128da0cdc3fe7a9b6,2024-02-19_03h15.52.887,kallum_motion_pilot,2023.2.2,Win32,166.6666667,61238ae128da0cdc3fe7a9b6,65d2b6c8f2eece985d8e374c,65d2b9caf340fcf7c13cd3de,0.036,0.036,1,96,258,90,1,sixfive,,,,,,,,,,,,,,,,,,,,,,,,,,,,,,,,,,,,,,,,,,,,,,,,,,,,,,,,,,,,,,,,,,,,,,,,,,,,,,,,,,,,,,,,,,,,,,,,,,,,,,,,,,,,,,,,,,,,,,,,,,,,,,,,,,,,,,,,,
,,61238ae128da0cdc3fe7a9b6,2024-02-19_03h15.52.887,kallum_motion_pilot,2023.2.2,Win32,166.6666667,61238ae128da0cdc3fe7a9b6,65d2b6c8f2eece985d8e374c,65d2b9caf340fcf7c13cd3de,0.036,0.036,1,97,259,28,1,threeone,,,,,,,,,,,,,,,,,,,,,,,,,,,,,,,,,,,,,,,,,,,,,,,,,,,,,,,,,,,,,,,,,,,,,,,,,,,,,,,,,,,,,,,,,,,,,,,,,,,,,,,,,,,,,,,,,,,,,,,,,,,,,,,,,,,,,,,,,
,,61238ae128da0cdc3fe7a9b6,2024-02-19_03h15.52.887,kallum_motion_pilot,2023.2.2,Win32,166.6666667,61238ae128da0cdc3fe7a9b6,65d2b6c8f2eece985d8e374c,65d2b9caf340fcf7c13cd3de,0.036,0.036,1,98,260,106,1,sixfive,,,,,,,,,,,,,,,,,,,,,,,,,,,,,,,,,,,,,,,,,,,,,,,,,,,,,,,,,,,,,,,,,,,,,,,,,,,,,,,,,,,,,,,,,,,,,,,,,,,,,,,,,,,,,,,,,,,,,,,,,,,,,,,,,,,,,,,,,
,,61238ae128da0cdc3fe7a9b6,2024-02-19_03h15.52.887,kallum_motion_pilot,2023.2.2,Win32,166.6666667,61238ae128da0cdc3fe7a9b6,65d2b6c8f2eece985d8e374c,65d2b9caf340fcf7c13cd3de,0.036,0.036,1,99,261,122,1,sixfive,,,,,,,,,,,,,,,,,,,,,,,,,,,,,,,,,,,,,,,,,,,,,,,,,,,,,,,,,,,,,,,,,,,,,,,,,,,,,,,,,,,,,,,,,,,,,,,,,,,,,,,,,,,,,,,,,,,,,,,,,,,,,,,,,,,,,,,,,
,,61238ae128da0cdc3fe7a9b6,2024-02-19_03h15.52.887,kallum_motion_pilot,2023.2.2,Win32,166.6666667,61238ae128da0cdc3fe7a9b6,65d2b6c8f2eece985d8e374c,65d2b9caf340fcf7c13cd3de,0.036,0.036,1,100,262,144,1,fivesix,,,,,,,,,,,,,,,,,,,,,,,,,,,,,,,,,,,,,,,,,,,,,,,,,,,,,,,,,,,,,,,,,,,,,,,,,,,,,,,,,,,,,,,,,,,,,,,,,,,,,,,,,,,,,,,,,,,,,,,,,,,,,,,,,,,,,,,,,
,,61238ae128da0cdc3fe7a9b6,2024-02-19_03h15.52.887,kallum_motion_pilot,2023.2.2,Win32,166.6666667,61238ae128da0cdc3fe7a9b6,65d2b6c8f2eece985d8e374c,65d2b9caf340fcf7c13cd3de,0.036,0.036,1,101,263,148,1,sevenfive,,,,,,,,,,,,,,,,,,,,,,,,,,,,,,,,,,,,,,,,,,,,,,,,,,,,,,,,,,,,,,,,,,,,,,,,,,,,,,,,,,,,,,,,,,,,,,,,,,,,,,,,,,,,,,,,,,,,,,,,,,,,,,,,,,,,,,,,,
,,61238ae128da0cdc3fe7a9b6,2024-02-19_03h15.52.887,kallum_motion_pilot,2023.2.2,Win32,166.6666667,61238ae128da0cdc3fe7a9b6,65d2b6c8f2eece985d8e374c,65d2b9caf340fcf7c13cd3de,0.036,0.036,1,102,264,43,1,twofour,,,,,,,,,,,,,,,,,,,,,,,,,,,,,,,,,,,,,,,,,,,,,,,,,,,,,,,,,,,,,,,,,,,,,,,,,,,,,,,,,,,,,,,,,,,,,,,,,,,,,,,,,,,,,,,,,,,,,,,,,,,,,,,,,,,,,,,,,
,,61238ae128da0cdc3fe7a9b6,2024-02-19_03h15.52.887,kallum_motion_pilot,2023.2.2,Win32,166.6666667,61238ae128da0cdc3fe7a9b6,65d2b6c8f2eece985d8e374c,65d2b9caf340fcf7c13cd3de,0.036,0.036,1,103,265,127,1,eightseven,,,,,,,,,,,,,,,,,,,,,,,,,,,,,,,,,,,,,,,,,,,,,,,,,,,,,,,,,,,,,,,,,,,,,,,,,,,,,,,,,,,,,,,,,,,,,,,,,,,,,,,,,,,,,,,,,,,,,,,,,,,,,,,,,,,,,,,,,
,,61238ae128da0cdc3fe7a9b6,2024-02-19_03h15.52.887,kallum_motion_pilot,2023.2.2,Win32,166.6666667,61238ae128da0cdc3fe7a9b6,65d2b6c8f2eece985d8e374c,65d2b9caf340fcf7c13cd3de,0.036,0.037,1,104,266,117,1,seveneight,,,,,,,,,,,,,,,,,,,,,,,,,,,,,,,,,,,,,,,,,,,,,,,,,,,,,,,,,,,,,,,,,,,,,,,,,,,,,,,,,,,,,,,,,,,,,,,,,,,,,,,,,,,,,,,,,,,,,,,,,,,,,,,,,,,,,,,,,
,,61238ae128da0cdc3fe7a9b6,2024-02-19_03h15.52.887,kallum_motion_pilot,2023.2.2,Win32,166.6666667,61238ae128da0cdc3fe7a9b6,65d2b6c8f2eece985d8e374c,65d2b9caf340fcf7c13cd3de,0.037,0.037,1,105,267,2,1,twoone,,,,,,,,,,,,,,,,,,,,,,,,,,,,,,,,,,,,,,,,,,,,,,,,,,,,,,,,,,,,,,,,,,,,,,,,,,,,,,,,,,,,,,,,,,,,,,,,,,,,,,,,,,,,,,,,,,,,,,,,,,,,,,,,,,,,,,,,,
,,61238ae128da0cdc3fe7a9b6,2024-02-19_03h15.52.887,kallum_motion_pilot,2023.2.2,Win32,166.6666667,61238ae128da0cdc3fe7a9b6,65d2b6c8f2eece985d8e374c,65d2b9caf340fcf7c13cd3de,0.037,0.037,1,106,268,113,1,fiveseven,,,,,,,,,,,,,,,,,,,,,,,,,,,,,,,,,,,,,,,,,,,,,,,,,,,,,,,,,,,,,,,,,,,,,,,,,,,,,,,,,,,,,,,,,,,,,,,,,,,,,,,,,,,,,,,,,,,,,,,,,,,,,,,,,,,,,,,,,
,,61238ae128da0cdc3fe7a9b6,2024-02-19_03h15.52.887,kallum_motion_pilot,2023.2.2,Win32,166.6666667,61238ae128da0cdc3fe7a9b6,65d2b6c8f2eece985d8e374c,65d2b9caf340fcf7c13cd3de,0.037,0.037,1,107,269,61,1,threefour,,,,,,,,,,,,,,,,,,,,,,,,,,,,,,,,,,,,,,,,,,,,,,,,,,,,,,,,,,,,,,,,,,,,,,,,,,,,,,,,,,,,,,,,,,,,,,,,,,,,,,,,,,,,,,,,,,,,,,,,,,,,,,,,,,,,,,,,,
,,61238ae128da0cdc3fe7a9b6,2024-02-19_03h15.52.887,kallum_motion_pilot,2023.2.2,Win32,166.6666667,61238ae128da0cdc3fe7a9b6,65d2b6c8f2eece985d8e374c,65d2b9caf340fcf7c13cd3de,0.037,0.037,1,108,270,160,1,fivesix,,,,,,,,,,,,,,,,,,,,,,,,,,,,,,,,,,,,,,,,,,,,,,,,,,,,,,,,,,,,,,,,,,,,,,,,,,,,,,,,,,,,,,,,,,,,,,,,,,,,,,,,,,,,,,,,,,,,,,,,,,,,,,,,,,,,,,,,,
,,61238ae128da0cdc3fe7a9b6,2024-02-19_03h15.52.887,kallum_motion_pilot,2023.2.2,Win32,166.6666667,61238ae128da0cdc3fe7a9b6,65d2b6c8f2eece985d8e374c,65d2b9caf340fcf7c13cd3de,0.037,0.038,1,109,271,62,1,fourtwo,,,,,,,,,,,,,,,,,,,,,,,,,,,,,,,,,,,,,,,,,,,,,,,,,,,,,,,,,,,,,,,,,,,,,,,,,,,,,,,,,,,,,,,,,,,,,,,,,,,,,,,,,,,,,,,,,,,,,,,,,,,,,,,,,,,,,,,,,
,,61238ae128da0cdc3fe7a9b6,2024-02-19_03h15.52.887,kallum_motion_pilot,2023.2.2,Win32,166.6666667,61238ae128da0cdc3fe7a9b6,65d2b6c8f2eece985d8e374c,65d2b9caf340fcf7c13cd3de,0.038,0.038,1,110,272,16,1,onetwo,,,,,,,,,,,,,,,,,,,,,,,,,,,,,,,,,,,,,,,,,,,,,,,,,,,,,,,,,,,,,,,,,,,,,,,,,,,,,,,,,,,,,,,,,,,,,,,,,,,,,,,,,,,,,,,,,,,,,,,,,,,,,,,,,,,,,,,,,
,,61238ae128da0cdc3fe7a9b6,2024-02-19_03h15.52.887,kallum_motion_pilot,2023.2.2,Win32,166.6666667,61238ae128da0cdc3fe7a9b6,65d2b6c8f2eece985d8e374c,65d2b9caf340fcf7c13cd3de,0.038,0.038,1,111,273,84,1,sevenfive,,,,,,,,,,,,,,,,,,,,,,,,,,,,,,,,,,,,,,,,,,,,,,,,,,,,,,,,,,,,,,,,,,,,,,,,,,,,,,,,,,,,,,,,,,,,,,,,,,,,,,,,,,,,,,,,,,,,,,,,,,,,,,,,,,,,,,,,,
,,61238ae128da0cdc3fe7a9b6,2024-02-19_03h15.52.887,kallum_motion_pilot,2023.2.2,Win32,166.6666667,61238ae128da0cdc3fe7a9b6,65d2b6c8f2eece985d8e374c,65d2b9caf340fcf7c13cd3de,0.038,0.038,1,112,274,92,1,sevenfive,,,,,,,,,,,,,,,,,,,,,,,,,,,,,,,,,,,,,,,,,,,,,,,,,,,,,,,,,,,,,,,,,,,,,,,,,,,,,,,,,,,,,,,,,,,,,,,,,,,,,,,,,,,,,,,,,,,,,,,,,,,,,,,,,,,,,,,,,
,,61238ae128da0cdc3fe7a9b6,2024-02-19_03h15.52.887,kallum_motion_pilot,2023.2.2,Win32,166.6666667,61238ae128da0cdc3fe7a9b6,65d2b6c8f2eece985d8e374c,65d2b9caf340fcf7c13cd3de,0.038,0.038,1,113,275,87,1,eightseven,,,,,,,,,,,,,,,,,,,,,,,,,,,,,,,,,,,,,,,,,,,,,,,,,,,,,,,,,,,,,,,,,,,,,,,,,,,,,,,,,,,,,,,,,,,,,,,,,,,,,,,,,,,,,,,,,,,,,,,,,,,,,,,,,,,,,,,,,
,,61238ae128da0cdc3fe7a9b6,2024-02-19_03h15.52.887,kallum_motion_pilot,2023.2.2,Win32,166.6666667,61238ae128da0cdc3fe7a9b6,65d2b6c8f2eece985d8e374c,65d2b9caf340fcf7c13cd3de,0.038,0.038,1,114,276,73,1,onethree,,,,,,,,,,,,,,,,,,,,,,,,,,,,,,,,,,,,,,,,,,,,,,,,,,,,,,,,,,,,,,,,,,,,,,,,,,,,,,,,,,,,,,,,,,,,,,,,,,,,,,,,,,,,,,,,,,,,,,,,,,,,,,,,,,,,,,,,,
,,61238ae128da0cdc3fe7a9b6,2024-02-19_03h15.52.887,kallum_motion_pilot,2023.2.2,Win32,166.6666667,61238ae128da0cdc3fe7a9b6,65d2b6c8f2eece985d8e374c,65d2b9caf340fcf7c13cd3de,0.038,0.038,1,115,277,147,1,sixeight,,,,,,,,,,,,,,,,,,,,,,,,,,,,,,,,,,,,,,,,,,,,,,,,,,,,,,,,,,,,,,,,,,,,,,,,,,,,,,,,,,,,,,,,,,,,,,,,,,,,,,,,,,,,,,,,,,,,,,,,,,,,,,,,,,,,,,,,,
,,61238ae128da0cdc3fe7a9b6,2024-02-19_03h15.52.887,kallum_motion_pilot,2023.2.2,Win32,166.6666667,61238ae128da0cdc3fe7a9b6,65d2b6c8f2eece985d8e374c,65d2b9caf340fcf7c13cd3de,0.038,0.038,1,116,278,60,1,threeone,,,,,,,,,,,,,,,,,,,,,,,,,,,,,,,,,,,,,,,,,,,,,,,,,,,,,,,,,,,,,,,,,,,,,,,,,,,,,,,,,,,,,,,,,,,,,,,,,,,,,,,,,,,,,,,,,,,,,,,,,,,,,,,,,,,,,,,,,
,,61238ae128da0cdc3fe7a9b6,2024-02-19_03h15.52.887,kallum_motion_pilot,2023.2.2,Win32,166.6666667,61238ae128da0cdc3fe7a9b6,65d2b6c8f2eece985d8e374c,65d2b9caf340fcf7c13cd3de,0.038,0.038,1,117,279,139,1,sixeight,,,,,,,,,,,,,,,,,,,,,,,,,,,,,,,,,,,,,,,,,,,,,,,,,,,,,,,,,,,,,,,,,,,,,,,,,,,,,,,,,,,,,,,,,,,,,,,,,,,,,,,,,,,,,,,,,,,,,,,,,,,,,,,,,,,,,,,,,
