startup.started,startup.stopped,Prolific ID*,date,expName,psychopyVersion,OS,frameRate,participant,study_id,session,stimpositions.started,stimpositions.stopped,hardcoded_stimulus_positions.thisRepN,hardcoded_stimulus_positions.thisTrialN,hardcoded_stimulus_positions.thisN,hardcoded_stimulus_positions.thisIndex,hardcoded_stimulus_positions.ran,StimulusPos,stimorientation.started,stimorientation.stopped,prac_stimorientation_import_loop.thisRepN,prac_stimorientation_import_loop.thisTrialN,prac_stimorientation_import_loop.thisN,prac_stimorientation_import_loop.thisIndex,prac_stimorientation_import_loop.ran,Stimorientation,welcome_instr.started,welcome_instr.stopped,key_resp.keys,key_resp.rt,key_resp.duration,response_steppedout_1.started,response_steppedout_1.stopped,key_resp_20.keys,key_resp_20.rt,key_resp_20.duration,response_steppedout_2.started,response_steppedout_2.stopped,key_resp_19.keys,key_resp_19.rt,key_resp_19.duration,stim_response_instr.started,stim_response_instr.stopped,key_resp_15.keys,key_resp_15.rt,key_resp_15.duration,direction_instr_2.started,direction_instr_2.stopped,key_resp_9.keys,key_resp_9.rt,key_resp_9.duration,instr_prac.started,instr_prac.stopped,key_resp_10.keys,key_resp_10.rt,key_resp_10.duration,Stim1_display_prac.started,Stim1_display_prac.stopped,Ecc,Circle1_ori,Circle2_ori,response_prac.started,similarity,response_time,response_prac.stopped,mouse_5.x,mouse_5.y,mouse_5.leftButton,mouse_5.midButton,mouse_5.rightButton,mouse_5.clicked_name,responseprac_feedback.started,responseprac_feedback.stopped,summary2_prac.started,summary2_prac.stopped,mouse_6.x,mouse_6.y,mouse_6.leftButton,mouse_6.midButton,mouse_6.rightButton,mouse_6.clicked_name,duringprac.thisRepN,duringprac.thisTrialN,duringprac.thisN,duringprac.thisIndex,duringprac.ran,begin.started,begin.stopped,key_resp_22.keys,key_resp_22.rt,key_resp_22.duration,Stim1_display.started,Stim1_display.stopped,circle1_ori,circle2_ori,circle1_SF,circle2_SF,response.started,response.stopped,mouse.x,mouse.y,mouse.leftButton,mouse.midButton,mouse.rightButton,mouse.clicked_name,trialnumber,double_pass.thisRepN,double_pass.thisTrialN,double_pass.thisN,double_pass.thisIndex,double_pass.ran,double_pass.order,main_trial.thisRepN,main_trial.thisTrialN,main_trial.thisN,main_trial.thisIndex,main_trial.ran,main_trial.order,Trial_Counter,Catch,Frequencies,response_2.started,response_2.stopped,mouse_2.x,mouse_2.y,mouse_2.leftButton,mouse_2.midButton,mouse_2.rightButton,mouse_2.clicked_name,special_trial.started,special_trial.stopped,catch_1.started,catch_1.stopped,mouse_3.x,mouse_3.y,mouse_3.leftButton,mouse_3.midButton,mouse_3.rightButton,catchresponse,catchnumber,response_time_catch,response_sum.started,response_sum.stopped,mouse_11.x,mouse_11.y,mouse_11.leftButton,mouse_11.midButton,mouse_11.rightButton,flip_presentation_sequence_for_double_pass.started,flip_presentation_sequence_for_double_pass.stopped,goodbye.started,goodbye.stopped,key_resp_3.keys,key_resp_3.rt,key_resp_3.duration
0,0,612742541c10c193688cea34,2024-02-18_23h11.08.369,kallum_motion_pilot,2023.2.2,Win32,144.092219,612742541c10c193688cea34,65d2b6c8f2eece985d8e374c,65d2b8a00a1be5246173640d,,,,,,,,,,,,,,,,,,,,,,,,,,,,,,,,,,,,,,,,,,,,,,,,,,,,,,,,,,,,,,,,,,,,,,,,,,,,,,,,,,,,,,,,,,,,,,,,,,,,,,,,,,,,,,,,,,,,,,,,,,,,,,,,,,,,,,,,,,,,,,,,,
,,612742541c10c193688cea34,2024-02-18_23h11.08.369,kallum_motion_pilot,2023.2.2,Win32,144.092219,612742541c10c193688cea34,65d2b6c8f2eece985d8e374c,65d2b8a00a1be5246173640d,0.01,0.01,0,0,0,130,1,sixfive,,,,,,,,,,,,,,,,,,,,,,,,,,,,,,,,,,,,,,,,,,,,,,,,,,,,,,,,,,,,,,,,,,,,,,,,,,,,,,,,,,,,,,,,,,,,,,,,,,,,,,,,,,,,,,,,,,,,,,,,,,,,,,,,,,,,,,,,,
,,612742541c10c193688cea34,2024-02-18_23h11.08.369,kallum_motion_pilot,2023.2.2,Win32,144.092219,612742541c10c193688cea34,65d2b6c8f2eece985d8e374c,65d2b8a00a1be5246173640d,0.01,0.01,0,1,1,12,1,threeone,,,,,,,,,,,,,,,,,,,,,,,,,,,,,,,,,,,,,,,,,,,,,,,,,,,,,,,,,,,,,,,,,,,,,,,,,,,,,,,,,,,,,,,,,,,,,,,,,,,,,,,,,,,,,,,,,,,,,,,,,,,,,,,,,,,,,,,,,
,,612742541c10c193688cea34,2024-02-18_23h11.08.369,kallum_motion_pilot,2023.2.2,Win32,144.092219,612742541c10c193688cea34,65d2b6c8f2eece985d8e374c,65d2b8a00a1be5246173640d,0.01,0.01,0,2,2,9,1,onethree,,,,,,,,,,,,,,,,,,,,,,,,,,,,,,,,,,,,,,,,,,,,,,,,,,,,,,,,,,,,,,,,,,,,,,,,,,,,,,,,,,,,,,,,,,,,,,,,,,,,,,,,,,,,,,,,,,,,,,,,,,,,,,,,,,,,,,,,,
,,612742541c10c193688cea34,2024-02-18_23h11.08.369,kallum_motion_pilot,2023.2.2,Win32,144.092219,612742541c10c193688cea34,65d2b6c8f2eece985d8e374c,65d2b8a00a1be5246173640d,0.011,0.011,0,3,3,90,1,sixfive,,,,,,,,,,,,,,,,,,,,,,,,,,,,,,,,,,,,,,,,,,,,,,,,,,,,,,,,,,,,,,,,,,,,,,,,,,,,,,,,,,,,,,,,,,,,,,,,,,,,,,,,,,,,,,,,,,,,,,,,,,,,,,,,,,,,,,,,,
,,612742541c10c193688cea34,2024-02-18_23h11.08.369,kallum_motion_pilot,2023.2.2,Win32,144.092219,612742541c10c193688cea34,65d2b6c8f2eece985d8e374c,65d2b8a00a1be5246173640d,0.012,0.012,0,4,4,155,1,sixeight,,,,,,,,,,,,,,,,,,,,,,,,,,,,,,,,,,,,,,,,,,,,,,,,,,,,,,,,,,,,,,,,,,,,,,,,,,,,,,,,,,,,,,,,,,,,,,,,,,,,,,,,,,,,,,,,,,,,,,,,,,,,,,,,,,,,,,,,,
,,612742541c10c193688cea34,2024-02-18_23h11.08.369,kallum_motion_pilot,2023.2.2,Win32,144.092219,612742541c10c193688cea34,65d2b6c8f2eece985d8e374c,65d2b8a00a1be5246173640d,0.012,0.012,0,5,5,91,1,sixeight,,,,,,,,,,,,,,,,,,,,,,,,,,,,,,,,,,,,,,,,,,,,,,,,,,,,,,,,,,,,,,,,,,,,,,,,,,,,,,,,,,,,,,,,,,,,,,,,,,,,,,,,,,,,,,,,,,,,,,,,,,,,,,,,,,,,,,,,,
,,612742541c10c193688cea34,2024-02-18_23h11.08.369,kallum_motion_pilot,2023.2.2,Win32,144.092219,612742541c10c193688cea34,65d2b6c8f2eece985d8e374c,65d2b8a00a1be5246173640d,0.012,0.012,0,6,6,139,1,sixeight,,,,,,,,,,,,,,,,,,,,,,,,,,,,,,,,,,,,,,,,,,,,,,,,,,,,,,,,,,,,,,,,,,,,,,,,,,,,,,,,,,,,,,,,,,,,,,,,,,,,,,,,,,,,,,,,,,,,,,,,,,,,,,,,,,,,,,,,,
,,612742541c10c193688cea34,2024-02-18_23h11.08.369,kallum_motion_pilot,2023.2.2,Win32,144.092219,612742541c10c193688cea34,65d2b6c8f2eece985d8e374c,65d2b8a00a1be5246173640d,0.012,0.012,0,7,7,60,1,threeone,,,,,,,,,,,,,,,,,,,,,,,,,,,,,,,,,,,,,,,,,,,,,,,,,,,,,,,,,,,,,,,,,,,,,,,,,,,,,,,,,,,,,,,,,,,,,,,,,,,,,,,,,,,,,,,,,,,,,,,,,,,,,,,,,,,,,,,,,
,,612742541c10c193688cea34,2024-02-18_23h11.08.369,kallum_motion_pilot,2023.2.2,Win32,144.092219,612742541c10c193688cea34,65d2b6c8f2eece985d8e374c,65d2b8a00a1be5246173640d,0.012,0.012,0,8,8,108,1,sevenfive,,,,,,,,,,,,,,,,,,,,,,,,,,,,,,,,,,,,,,,,,,,,,,,,,,,,,,,,,,,,,,,,,,,,,,,,,,,,,,,,,,,,,,,,,,,,,,,,,,,,,,,,,,,,,,,,,,,,,,,,,,,,,,,,,,,,,,,,,
,,612742541c10c193688cea34,2024-02-18_23h11.08.369,kallum_motion_pilot,2023.2.2,Win32,144.092219,612742541c10c193688cea34,65d2b6c8f2eece985d8e374c,65d2b8a00a1be5246173640d,0.012,0.012,0,9,9,112,1,fivesix,,,,,,,,,,,,,,,,,,,,,,,,,,,,,,,,,,,,,,,,,,,,,,,,,,,,,,,,,,,,,,,,,,,,,,,,,,,,,,,,,,,,,,,,,,,,,,,,,,,,,,,,,,,,,,,,,,,,,,,,,,,,,,,,,,,,,,,,,
,,612742541c10c193688cea34,2024-02-18_23h11.08.369,kallum_motion_pilot,2023.2.2,Win32,144.092219,612742541c10c193688cea34,65d2b6c8f2eece985d8e374c,65d2b8a00a1be5246173640d,0.012,0.012,0,10,10,1,1,onethree,,,,,,,,,,,,,,,,,,,,,,,,,,,,,,,,,,,,,,,,,,,,,,,,,,,,,,,,,,,,,,,,,,,,,,,,,,,,,,,,,,,,,,,,,,,,,,,,,,,,,,,,,,,,,,,,,,,,,,,,,,,,,,,,,,,,,,,,,
,,612742541c10c193688cea34,2024-02-18_23h11.08.369,kallum_motion_pilot,2023.2.2,Win32,144.092219,612742541c10c193688cea34,65d2b6c8f2eece985d8e374c,65d2b8a00a1be5246173640d,0.012,0.012,0,11,11,45,1,threefour,,,,,,,,,,,,,,,,,,,,,,,,,,,,,,,,,,,,,,,,,,,,,,,,,,,,,,,,,,,,,,,,,,,,,,,,,,,,,,,,,,,,,,,,,,,,,,,,,,,,,,,,,,,,,,,,,,,,,,,,,,,,,,,,,,,,,,,,,
,,612742541c10c193688cea34,2024-02-18_23h11.08.369,kallum_motion_pilot,2023.2.2,Win32,144.092219,612742541c10c193688cea34,65d2b6c8f2eece985d8e374c,65d2b8a00a1be5246173640d,0.012,0.012,0,12,12,0,1,onetwo,,,,,,,,,,,,,,,,,,,,,,,,,,,,,,,,,,,,,,,,,,,,,,,,,,,,,,,,,,,,,,,,,,,,,,,,,,,,,,,,,,,,,,,,,,,,,,,,,,,,,,,,,,,,,,,,,,,,,,,,,,,,,,,,,,,,,,,,,
,,612742541c10c193688cea34,2024-02-18_23h11.08.369,kallum_motion_pilot,2023.2.2,Win32,144.092219,612742541c10c193688cea34,65d2b6c8f2eece985d8e374c,65d2b8a00a1be5246173640d,0.012,0.012,0,13,13,65,1,onethree,,,,,,,,,,,,,,,,,,,,,,,,,,,,,,,,,,,,,,,,,,,,,,,,,,,,,,,,,,,,,,,,,,,,,,,,,,,,,,,,,,,,,,,,,,,,,,,,,,,,,,,,,,,,,,,,,,,,,,,,,,,,,,,,,,,,,,,,,
,,612742541c10c193688cea34,2024-02-18_23h11.08.369,kallum_motion_pilot,2023.2.2,Win32,144.092219,612742541c10c193688cea34,65d2b6c8f2eece985d8e374c,65d2b8a00a1be5246173640d,0.012,0.012,0,14,14,23,1,fourthree,,,,,,,,,,,,,,,,,,,,,,,,,,,,,,,,,,,,,,,,,,,,,,,,,,,,,,,,,,,,,,,,,,,,,,,,,,,,,,,,,,,,,,,,,,,,,,,,,,,,,,,,,,,,,,,,,,,,,,,,,,,,,,,,,,,,,,,,,
,,612742541c10c193688cea34,2024-02-18_23h11.08.369,kallum_motion_pilot,2023.2.2,Win32,144.092219,612742541c10c193688cea34,65d2b6c8f2eece985d8e374c,65d2b8a00a1be5246173640d,0.012,0.012,0,15,15,33,1,onethree,,,,,,,,,,,,,,,,,,,,,,,,,,,,,,,,,,,,,,,,,,,,,,,,,,,,,,,,,,,,,,,,,,,,,,,,,,,,,,,,,,,,,,,,,,,,,,,,,,,,,,,,,,,,,,,,,,,,,,,,,,,,,,,,,,,,,,,,,
,,612742541c10c193688cea34,2024-02-18_23h11.08.369,kallum_motion_pilot,2023.2.2,Win32,144.092219,612742541c10c193688cea34,65d2b6c8f2eece985d8e374c,65d2b8a00a1be5246173640d,0.012,0.012,0,16,16,105,1,fiveseven,,,,,,,,,,,,,,,,,,,,,,,,,,,,,,,,,,,,,,,,,,,,,,,,,,,,,,,,,,,,,,,,,,,,,,,,,,,,,,,,,,,,,,,,,,,,,,,,,,,,,,,,,,,,,,,,,,,,,,,,,,,,,,,,,,,,,,,,,
,,612742541c10c193688cea34,2024-02-18_23h11.08.369,kallum_motion_pilot,2023.2.2,Win32,144.092219,612742541c10c193688cea34,65d2b6c8f2eece985d8e374c,65d2b8a00a1be5246173640d,0.012,0.012,0,17,17,25,1,onethree,,,,,,,,,,,,,,,,,,,,,,,,,,,,,,,,,,,,,,,,,,,,,,,,,,,,,,,,,,,,,,,,,,,,,,,,,,,,,,,,,,,,,,,,,,,,,,,,,,,,,,,,,,,,,,,,,,,,,,,,,,,,,,,,,,,,,,,,,
,,612742541c10c193688cea34,2024-02-18_23h11.08.369,kallum_motion_pilot,2023.2.2,Win32,144.092219,612742541c10c193688cea34,65d2b6c8f2eece985d8e374c,65d2b8a00a1be5246173640d,0.012,0.012,0,18,18,85,1,seveneight,,,,,,,,,,,,,,,,,,,,,,,,,,,,,,,,,,,,,,,,,,,,,,,,,,,,,,,,,,,,,,,,,,,,,,,,,,,,,,,,,,,,,,,,,,,,,,,,,,,,,,,,,,,,,,,,,,,,,,,,,,,,,,,,,,,,,,,,,
,,612742541c10c193688cea34,2024-02-18_23h11.08.369,kallum_motion_pilot,2023.2.2,Win32,144.092219,612742541c10c193688cea34,65d2b6c8f2eece985d8e374c,65d2b8a00a1be5246173640d,0.012,0.012,0,19,19,79,1,eightseven,,,,,,,,,,,,,,,,,,,,,,,,,,,,,,,,,,,,,,,,,,,,,,,,,,,,,,,,,,,,,,,,,,,,,,,,,,,,,,,,,,,,,,,,,,,,,,,,,,,,,,,,,,,,,,,,,,,,,,,,,,,,,,,,,,,,,,,,,
,,612742541c10c193688cea34,2024-02-18_23h11.08.369,kallum_motion_pilot,2023.2.2,Win32,144.092219,612742541c10c193688cea34,65d2b6c8f2eece985d8e374c,65d2b8a00a1be5246173640d,0.012,0.012,0,20,20,36,1,threeone,,,,,,,,,,,,,,,,,,,,,,,,,,,,,,,,,,,,,,,,,,,,,,,,,,,,,,,,,,,,,,,,,,,,,,,,,,,,,,,,,,,,,,,,,,,,,,,,,,,,,,,,,,,,,,,,,,,,,,,,,,,,,,,,,,,,,,,,,
,,612742541c10c193688cea34,2024-02-18_23h11.08.369,kallum_motion_pilot,2023.2.2,Win32,144.092219,612742541c10c193688cea34,65d2b6c8f2eece985d8e374c,65d2b8a00a1be5246173640d,0.012,0.012,0,21,21,97,1,fiveseven,,,,,,,,,,,,,,,,,,,,,,,,,,,,,,,,,,,,,,,,,,,,,,,,,,,,,,,,,,,,,,,,,,,,,,,,,,,,,,,,,,,,,,,,,,,,,,,,,,,,,,,,,,,,,,,,,,,,,,,,,,,,,,,,,,,,,,,,,
,,612742541c10c193688cea34,2024-02-18_23h11.08.369,kallum_motion_pilot,2023.2.2,Win32,144.092219,612742541c10c193688cea34,65d2b6c8f2eece985d8e374c,65d2b8a00a1be5246173640d,0.012,0.012,0,22,22,75,1,twofour,,,,,,,,,,,,,,,,,,,,,,,,,,,,,,,,,,,,,,,,,,,,,,,,,,,,,,,,,,,,,,,,,,,,,,,,,,,,,,,,,,,,,,,,,,,,,,,,,,,,,,,,,,,,,,,,,,,,,,,,,,,,,,,,,,,,,,,,,
,,612742541c10c193688cea34,2024-02-18_23h11.08.369,kallum_motion_pilot,2023.2.2,Win32,144.092219,612742541c10c193688cea34,65d2b6c8f2eece985d8e374c,65d2b8a00a1be5246173640d,0.012,0.012,0,23,23,76,1,threeone,,,,,,,,,,,,,,,,,,,,,,,,,,,,,,,,,,,,,,,,,,,,,,,,,,,,,,,,,,,,,,,,,,,,,,,,,,,,,,,,,,,,,,,,,,,,,,,,,,,,,,,,,,,,,,,,,,,,,,,,,,,,,,,,,,,,,,,,,
,,612742541c10c193688cea34,2024-02-18_23h11.08.369,kallum_motion_pilot,2023.2.2,Win32,144.092219,612742541c10c193688cea34,65d2b6c8f2eece985d8e374c,65d2b8a00a1be5246173640d,0.012,0.012,0,24,24,94,1,eightsix,,,,,,,,,,,,,,,,,,,,,,,,,,,,,,,,,,,,,,,,,,,,,,,,,,,,,,,,,,,,,,,,,,,,,,,,,,,,,,,,,,,,,,,,,,,,,,,,,,,,,,,,,,,,,,,,,,,,,,,,,,,,,,,,,,,,,,,,,
,,612742541c10c193688cea34,2024-02-18_23h11.08.369,kallum_motion_pilot,2023.2.2,Win32,144.092219,612742541c10c193688cea34,65d2b6c8f2eece985d8e374c,65d2b8a00a1be5246173640d,0.012,0.012,0,25,25,146,1,sixfive,,,,,,,,,,,,,,,,,,,,,,,,,,,,,,,,,,,,,,,,,,,,,,,,,,,,,,,,,,,,,,,,,,,,,,,,,,,,,,,,,,,,,,,,,,,,,,,,,,,,,,,,,,,,,,,,,,,,,,,,,,,,,,,,,,,,,,,,,
,,612742541c10c193688cea34,2024-02-18_23h11.08.369,kallum_motion_pilot,2023.2.2,Win32,144.092219,612742541c10c193688cea34,65d2b6c8f2eece985d8e374c,65d2b8a00a1be5246173640d,0.012,0.012,0,26,26,138,1,sixfive,,,,,,,,,,,,,,,,,,,,,,,,,,,,,,,,,,,,,,,,,,,,,,,,,,,,,,,,,,,,,,,,,,,,,,,,,,,,,,,,,,,,,,,,,,,,,,,,,,,,,,,,,,,,,,,,,,,,,,,,,,,,,,,,,,,,,,,,,
,,612742541c10c193688cea34,2024-02-18_23h11.08.369,kallum_motion_pilot,2023.2.2,Win32,144.092219,612742541c10c193688cea34,65d2b6c8f2eece985d8e374c,65d2b8a00a1be5246173640d,0.012,0.012,0,27,27,129,1,fiveseven,,,,,,,,,,,,,,,,,,,,,,,,,,,,,,,,,,,,,,,,,,,,,,,,,,,,,,,,,,,,,,,,,,,,,,,,,,,,,,,,,,,,,,,,,,,,,,,,,,,,,,,,,,,,,,,,,,,,,,,,,,,,,,,,,,,,,,,,,
,,612742541c10c193688cea34,2024-02-18_23h11.08.369,kallum_motion_pilot,2023.2.2,Win32,144.092219,612742541c10c193688cea34,65d2b6c8f2eece985d8e374c,65d2b8a00a1be5246173640d,0.012,0.012,0,28,28,24,1,onetwo,,,,,,,,,,,,,,,,,,,,,,,,,,,,,,,,,,,,,,,,,,,,,,,,,,,,,,,,,,,,,,,,,,,,,,,,,,,,,,,,,,,,,,,,,,,,,,,,,,,,,,,,,,,,,,,,,,,,,,,,,,,,,,,,,,,,,,,,,
,,612742541c10c193688cea34,2024-02-18_23h11.08.369,kallum_motion_pilot,2023.2.2,Win32,144.092219,612742541c10c193688cea34,65d2b6c8f2eece985d8e374c,65d2b8a00a1be5246173640d,0.012,0.012,0,29,29,70,1,fourtwo,,,,,,,,,,,,,,,,,,,,,,,,,,,,,,,,,,,,,,,,,,,,,,,,,,,,,,,,,,,,,,,,,,,,,,,,,,,,,,,,,,,,,,,,,,,,,,,,,,,,,,,,,,,,,,,,,,,,,,,,,,,,,,,,,,,,,,,,,
,,612742541c10c193688cea34,2024-02-18_23h11.08.369,kallum_motion_pilot,2023.2.2,Win32,144.092219,612742541c10c193688cea34,65d2b6c8f2eece985d8e374c,65d2b8a00a1be5246173640d,0.012,0.012,0,30,30,123,1,sixeight,,,,,,,,,,,,,,,,,,,,,,,,,,,,,,,,,,,,,,,,,,,,,,,,,,,,,,,,,,,,,,,,,,,,,,,,,,,,,,,,,,,,,,,,,,,,,,,,,,,,,,,,,,,,,,,,,,,,,,,,,,,,,,,,,,,,,,,,,
,,612742541c10c193688cea34,2024-02-18_23h11.08.369,kallum_motion_pilot,2023.2.2,Win32,144.092219,612742541c10c193688cea34,65d2b6c8f2eece985d8e374c,65d2b8a00a1be5246173640d,0.012,0.012,0,31,31,53,1,threefour,,,,,,,,,,,,,,,,,,,,,,,,,,,,,,,,,,,,,,,,,,,,,,,,,,,,,,,,,,,,,,,,,,,,,,,,,,,,,,,,,,,,,,,,,,,,,,,,,,,,,,,,,,,,,,,,,,,,,,,,,,,,,,,,,,,,,,,,,
,,612742541c10c193688cea34,2024-02-18_23h11.08.369,kallum_motion_pilot,2023.2.2,Win32,144.092219,612742541c10c193688cea34,65d2b6c8f2eece985d8e374c,65d2b8a00a1be5246173640d,0.013,0.013,0,32,32,22,1,fourtwo,,,,,,,,,,,,,,,,,,,,,,,,,,,,,,,,,,,,,,,,,,,,,,,,,,,,,,,,,,,,,,,,,,,,,,,,,,,,,,,,,,,,,,,,,,,,,,,,,,,,,,,,,,,,,,,,,,,,,,,,,,,,,,,,,,,,,,,,,
,,612742541c10c193688cea34,2024-02-18_23h11.08.369,kallum_motion_pilot,2023.2.2,Win32,144.092219,612742541c10c193688cea34,65d2b6c8f2eece985d8e374c,65d2b8a00a1be5246173640d,0.013,0.013,0,33,33,43,1,twofour,,,,,,,,,,,,,,,,,,,,,,,,,,,,,,,,,,,,,,,,,,,,,,,,,,,,,,,,,,,,,,,,,,,,,,,,,,,,,,,,,,,,,,,,,,,,,,,,,,,,,,,,,,,,,,,,,,,,,,,,,,,,,,,,,,,,,,,,,
,,612742541c10c193688cea34,2024-02-18_23h11.08.369,kallum_motion_pilot,2023.2.2,Win32,144.092219,612742541c10c193688cea34,65d2b6c8f2eece985d8e374c,65d2b8a00a1be5246173640d,0.013,0.013,0,34,34,34,1,twoone,,,,,,,,,,,,,,,,,,,,,,,,,,,,,,,,,,,,,,,,,,,,,,,,,,,,,,,,,,,,,,,,,,,,,,,,,,,,,,,,,,,,,,,,,,,,,,,,,,,,,,,,,,,,,,,,,,,,,,,,,,,,,,,,,,,,,,,,,
,,612742541c10c193688cea34,2024-02-18_23h11.08.369,kallum_motion_pilot,2023.2.2,Win32,144.092219,612742541c10c193688cea34,65d2b6c8f2eece985d8e374c,65d2b8a00a1be5246173640d,0.013,0.013,0,35,35,142,1,eightsix,,,,,,,,,,,,,,,,,,,,,,,,,,,,,,,,,,,,,,,,,,,,,,,,,,,,,,,,,,,,,,,,,,,,,,,,,,,,,,,,,,,,,,,,,,,,,,,,,,,,,,,,,,,,,,,,,,,,,,,,,,,,,,,,,,,,,,,,,
,,612742541c10c193688cea34,2024-02-18_23h11.08.369,kallum_motion_pilot,2023.2.2,Win32,144.092219,612742541c10c193688cea34,65d2b6c8f2eece985d8e374c,65d2b8a00a1be5246173640d,0.013,0.013,0,36,36,15,1,fourthree,,,,,,,,,,,,,,,,,,,,,,,,,,,,,,,,,,,,,,,,,,,,,,,,,,,,,,,,,,,,,,,,,,,,,,,,,,,,,,,,,,,,,,,,,,,,,,,,,,,,,,,,,,,,,,,,,,,,,,,,,,,,,,,,,,,,,,,,,
,,612742541c10c193688cea34,2024-02-18_23h11.08.369,kallum_motion_pilot,2023.2.2,Win32,144.092219,612742541c10c193688cea34,65d2b6c8f2eece985d8e374c,65d2b8a00a1be5246173640d,0.013,0.013,0,37,37,16,1,onetwo,,,,,,,,,,,,,,,,,,,,,,,,,,,,,,,,,,,,,,,,,,,,,,,,,,,,,,,,,,,,,,,,,,,,,,,,,,,,,,,,,,,,,,,,,,,,,,,,,,,,,,,,,,,,,,,,,,,,,,,,,,,,,,,,,,,,,,,,,
,,612742541c10c193688cea34,2024-02-18_23h11.08.369,kallum_motion_pilot,2023.2.2,Win32,144.092219,612742541c10c193688cea34,65d2b6c8f2eece985d8e374c,65d2b8a00a1be5246173640d,0.013,0.013,0,38,38,64,1,onetwo,,,,,,,,,,,,,,,,,,,,,,,,,,,,,,,,,,,,,,,,,,,,,,,,,,,,,,,,,,,,,,,,,,,,,,,,,,,,,,,,,,,,,,,,,,,,,,,,,,,,,,,,,,,,,,,,,,,,,,,,,,,,,,,,,,,,,,,,,
,,612742541c10c193688cea34,2024-02-18_23h11.08.369,kallum_motion_pilot,2023.2.2,Win32,144.092219,612742541c10c193688cea34,65d2b6c8f2eece985d8e374c,65d2b8a00a1be5246173640d,0.013,0.013,0,39,39,78,1,fourtwo,,,,,,,,,,,,,,,,,,,,,,,,,,,,,,,,,,,,,,,,,,,,,,,,,,,,,,,,,,,,,,,,,,,,,,,,,,,,,,,,,,,,,,,,,,,,,,,,,,,,,,,,,,,,,,,,,,,,,,,,,,,,,,,,,,,,,,,,,
,,612742541c10c193688cea34,2024-02-18_23h11.08.369,kallum_motion_pilot,2023.2.2,Win32,144.092219,612742541c10c193688cea34,65d2b6c8f2eece985d8e374c,65d2b8a00a1be5246173640d,0.013,0.013,0,40,40,136,1,fivesix,,,,,,,,,,,,,,,,,,,,,,,,,,,,,,,,,,,,,,,,,,,,,,,,,,,,,,,,,,,,,,,,,,,,,,,,,,,,,,,,,,,,,,,,,,,,,,,,,,,,,,,,,,,,,,,,,,,,,,,,,,,,,,,,,,,,,,,,,
,,612742541c10c193688cea34,2024-02-18_23h11.08.369,kallum_motion_pilot,2023.2.2,Win32,144.092219,612742541c10c193688cea34,65d2b6c8f2eece985d8e374c,65d2b8a00a1be5246173640d,0.013,0.013,0,41,41,72,1,onetwo,,,,,,,,,,,,,,,,,,,,,,,,,,,,,,,,,,,,,,,,,,,,,,,,,,,,,,,,,,,,,,,,,,,,,,,,,,,,,,,,,,,,,,,,,,,,,,,,,,,,,,,,,,,,,,,,,,,,,,,,,,,,,,,,,,,,,,,,,
,,612742541c10c193688cea34,2024-02-18_23h11.08.369,kallum_motion_pilot,2023.2.2,Win32,144.092219,612742541c10c193688cea34,65d2b6c8f2eece985d8e374c,65d2b8a00a1be5246173640d,0.013,0.013,0,42,42,87,1,eightseven,,,,,,,,,,,,,,,,,,,,,,,,,,,,,,,,,,,,,,,,,,,,,,,,,,,,,,,,,,,,,,,,,,,,,,,,,,,,,,,,,,,,,,,,,,,,,,,,,,,,,,,,,,,,,,,,,,,,,,,,,,,,,,,,,,,,,,,,,
,,612742541c10c193688cea34,2024-02-18_23h11.08.369,kallum_motion_pilot,2023.2.2,Win32,144.092219,612742541c10c193688cea34,65d2b6c8f2eece985d8e374c,65d2b8a00a1be5246173640d,0.013,0.013,0,43,43,81,1,fiveseven,,,,,,,,,,,,,,,,,,,,,,,,,,,,,,,,,,,,,,,,,,,,,,,,,,,,,,,,,,,,,,,,,,,,,,,,,,,,,,,,,,,,,,,,,,,,,,,,,,,,,,,,,,,,,,,,,,,,,,,,,,,,,,,,,,,,,,,,,
,,612742541c10c193688cea34,2024-02-18_23h11.08.369,kallum_motion_pilot,2023.2.2,Win32,144.092219,612742541c10c193688cea34,65d2b6c8f2eece985d8e374c,65d2b8a00a1be5246173640d,0.013,0.013,0,44,44,40,1,onetwo,,,,,,,,,,,,,,,,,,,,,,,,,,,,,,,,,,,,,,,,,,,,,,,,,,,,,,,,,,,,,,,,,,,,,,,,,,,,,,,,,,,,,,,,,,,,,,,,,,,,,,,,,,,,,,,,,,,,,,,,,,,,,,,,,,,,,,,,,
,,612742541c10c193688cea34,2024-02-18_23h11.08.369,kallum_motion_pilot,2023.2.2,Win32,144.092219,612742541c10c193688cea34,65d2b6c8f2eece985d8e374c,65d2b8a00a1be5246173640d,0.013,0.013,0,45,45,42,1,twoone,,,,,,,,,,,,,,,,,,,,,,,,,,,,,,,,,,,,,,,,,,,,,,,,,,,,,,,,,,,,,,,,,,,,,,,,,,,,,,,,,,,,,,,,,,,,,,,,,,,,,,,,,,,,,,,,,,,,,,,,,,,,,,,,,,,,,,,,,
,,612742541c10c193688cea34,2024-02-18_23h11.08.369,kallum_motion_pilot,2023.2.2,Win32,144.092219,612742541c10c193688cea34,65d2b6c8f2eece985d8e374c,65d2b8a00a1be5246173640d,0.013,0.013,0,46,46,51,1,twofour,,,,,,,,,,,,,,,,,,,,,,,,,,,,,,,,,,,,,,,,,,,,,,,,,,,,,,,,,,,,,,,,,,,,,,,,,,,,,,,,,,,,,,,,,,,,,,,,,,,,,,,,,,,,,,,,,,,,,,,,,,,,,,,,,,,,,,,,,
,,612742541c10c193688cea34,2024-02-18_23h11.08.369,kallum_motion_pilot,2023.2.2,Win32,144.092219,612742541c10c193688cea34,65d2b6c8f2eece985d8e374c,65d2b8a00a1be5246173640d,0.013,0.013,0,47,47,11,1,twofour,,,,,,,,,,,,,,,,,,,,,,,,,,,,,,,,,,,,,,,,,,,,,,,,,,,,,,,,,,,,,,,,,,,,,,,,,,,,,,,,,,,,,,,,,,,,,,,,,,,,,,,,,,,,,,,,,,,,,,,,,,,,,,,,,,,,,,,,,
,,612742541c10c193688cea34,2024-02-18_23h11.08.369,kallum_motion_pilot,2023.2.2,Win32,144.092219,612742541c10c193688cea34,65d2b6c8f2eece985d8e374c,65d2b8a00a1be5246173640d,0.013,0.013,0,48,48,30,1,fourtwo,,,,,,,,,,,,,,,,,,,,,,,,,,,,,,,,,,,,,,,,,,,,,,,,,,,,,,,,,,,,,,,,,,,,,,,,,,,,,,,,,,,,,,,,,,,,,,,,,,,,,,,,,,,,,,,,,,,,,,,,,,,,,,,,,,,,,,,,,
,,612742541c10c193688cea34,2024-02-18_23h11.08.369,kallum_motion_pilot,2023.2.2,Win32,144.092219,612742541c10c193688cea34,65d2b6c8f2eece985d8e374c,65d2b8a00a1be5246173640d,0.014,0.014,0,49,49,153,1,fiveseven,,,,,,,,,,,,,,,,,,,,,,,,,,,,,,,,,,,,,,,,,,,,,,,,,,,,,,,,,,,,,,,,,,,,,,,,,,,,,,,,,,,,,,,,,,,,,,,,,,,,,,,,,,,,,,,,,,,,,,,,,,,,,,,,,,,,,,,,,
,,612742541c10c193688cea34,2024-02-18_23h11.08.369,kallum_motion_pilot,2023.2.2,Win32,144.092219,612742541c10c193688cea34,65d2b6c8f2eece985d8e374c,65d2b8a00a1be5246173640d,0.014,0.014,0,50,50,104,1,fivesix,,,,,,,,,,,,,,,,,,,,,,,,,,,,,,,,,,,,,,,,,,,,,,,,,,,,,,,,,,,,,,,,,,,,,,,,,,,,,,,,,,,,,,,,,,,,,,,,,,,,,,,,,,,,,,,,,,,,,,,,,,,,,,,,,,,,,,,,,
,,612742541c10c193688cea34,2024-02-18_23h11.08.369,kallum_motion_pilot,2023.2.2,Win32,144.092219,612742541c10c193688cea34,65d2b6c8f2eece985d8e374c,65d2b8a00a1be5246173640d,0.014,0.014,0,51,51,128,1,fivesix,,,,,,,,,,,,,,,,,,,,,,,,,,,,,,,,,,,,,,,,,,,,,,,,,,,,,,,,,,,,,,,,,,,,,,,,,,,,,,,,,,,,,,,,,,,,,,,,,,,,,,,,,,,,,,,,,,,,,,,,,,,,,,,,,,,,,,,,,
,,612742541c10c193688cea34,2024-02-18_23h11.08.369,kallum_motion_pilot,2023.2.2,Win32,144.092219,612742541c10c193688cea34,65d2b6c8f2eece985d8e374c,65d2b8a00a1be5246173640d,0.014,0.014,0,52,52,157,1,seveneight,,,,,,,,,,,,,,,,,,,,,,,,,,,,,,,,,,,,,,,,,,,,,,,,,,,,,,,,,,,,,,,,,,,,,,,,,,,,,,,,,,,,,,,,,,,,,,,,,,,,,,,,,,,,,,,,,,,,,,,,,,,,,,,,,,,,,,,,,
,,612742541c10c193688cea34,2024-02-18_23h11.08.369,kallum_motion_pilot,2023.2.2,Win32,144.092219,612742541c10c193688cea34,65d2b6c8f2eece985d8e374c,65d2b8a00a1be5246173640d,0.014,0.014,0,53,53,29,1,threefour,,,,,,,,,,,,,,,,,,,,,,,,,,,,,,,,,,,,,,,,,,,,,,,,,,,,,,,,,,,,,,,,,,,,,,,,,,,,,,,,,,,,,,,,,,,,,,,,,,,,,,,,,,,,,,,,,,,,,,,,,,,,,,,,,,,,,,,,,
,,612742541c10c193688cea34,2024-02-18_23h11.08.369,kallum_motion_pilot,2023.2.2,Win32,144.092219,612742541c10c193688cea34,65d2b6c8f2eece985d8e374c,65d2b8a00a1be5246173640d,0.014,0.014,0,54,54,57,1,onethree,,,,,,,,,,,,,,,,,,,,,,,,,,,,,,,,,,,,,,,,,,,,,,,,,,,,,,,,,,,,,,,,,,,,,,,,,,,,,,,,,,,,,,,,,,,,,,,,,,,,,,,,,,,,,,,,,,,,,,,,,,,,,,,,,,,,,,,,,
,,612742541c10c193688cea34,2024-02-18_23h11.08.369,kallum_motion_pilot,2023.2.2,Win32,144.092219,612742541c10c193688cea34,65d2b6c8f2eece985d8e374c,65d2b8a00a1be5246173640d,0.014,0.014,0,55,55,28,1,threeone,,,,,,,,,,,,,,,,,,,,,,,,,,,,,,,,,,,,,,,,,,,,,,,,,,,,,,,,,,,,,,,,,,,,,,,,,,,,,,,,,,,,,,,,,,,,,,,,,,,,,,,,,,,,,,,,,,,,,,,,,,,,,,,,,,,,,,,,,
,,612742541c10c193688cea34,2024-02-18_23h11.08.369,kallum_motion_pilot,2023.2.2,Win32,144.092219,612742541c10c193688cea34,65d2b6c8f2eece985d8e374c,65d2b8a00a1be5246173640d,0.014,0.014,0,56,56,27,1,twofour,,,,,,,,,,,,,,,,,,,,,,,,,,,,,,,,,,,,,,,,,,,,,,,,,,,,,,,,,,,,,,,,,,,,,,,,,,,,,,,,,,,,,,,,,,,,,,,,,,,,,,,,,,,,,,,,,,,,,,,,,,,,,,,,,,,,,,,,,
,,612742541c10c193688cea34,2024-02-18_23h11.08.369,kallum_motion_pilot,2023.2.2,Win32,144.092219,612742541c10c193688cea34,65d2b6c8f2eece985d8e374c,65d2b8a00a1be5246173640d,0.014,0.014,0,57,57,135,1,eightseven,,,,,,,,,,,,,,,,,,,,,,,,,,,,,,,,,,,,,,,,,,,,,,,,,,,,,,,,,,,,,,,,,,,,,,,,,,,,,,,,,,,,,,,,,,,,,,,,,,,,,,,,,,,,,,,,,,,,,,,,,,,,,,,,,,,,,,,,,
,,612742541c10c193688cea34,2024-02-18_23h11.08.369,kallum_motion_pilot,2023.2.2,Win32,144.092219,612742541c10c193688cea34,65d2b6c8f2eece985d8e374c,65d2b8a00a1be5246173640d,0.014,0.014,0,58,58,31,1,fourthree,,,,,,,,,,,,,,,,,,,,,,,,,,,,,,,,,,,,,,,,,,,,,,,,,,,,,,,,,,,,,,,,,,,,,,,,,,,,,,,,,,,,,,,,,,,,,,,,,,,,,,,,,,,,,,,,,,,,,,,,,,,,,,,,,,,,,,,,,
,,612742541c10c193688cea34,2024-02-18_23h11.08.369,kallum_motion_pilot,2023.2.2,Win32,144.092219,612742541c10c193688cea34,65d2b6c8f2eece985d8e374c,65d2b8a00a1be5246173640d,0.014,0.014,0,59,59,58,1,twoone,,,,,,,,,,,,,,,,,,,,,,,,,,,,,,,,,,,,,,,,,,,,,,,,,,,,,,,,,,,,,,,,,,,,,,,,,,,,,,,,,,,,,,,,,,,,,,,,,,,,,,,,,,,,,,,,,,,,,,,,,,,,,,,,,,,,,,,,,
,,612742541c10c193688cea34,2024-02-18_23h11.08.369,kallum_motion_pilot,2023.2.2,Win32,144.092219,612742541c10c193688cea34,65d2b6c8f2eece985d8e374c,65d2b8a00a1be5246173640d,0.014,0.014,0,60,60,120,1,fivesix,,,,,,,,,,,,,,,,,,,,,,,,,,,,,,,,,,,,,,,,,,,,,,,,,,,,,,,,,,,,,,,,,,,,,,,,,,,,,,,,,,,,,,,,,,,,,,,,,,,,,,,,,,,,,,,,,,,,,,,,,,,,,,,,,,,,,,,,,
,,612742541c10c193688cea34,2024-02-18_23h11.08.369,kallum_motion_pilot,2023.2.2,Win32,144.092219,612742541c10c193688cea34,65d2b6c8f2eece985d8e374c,65d2b8a00a1be5246173640d,0.014,0.014,0,61,61,143,1,eightseven,,,,,,,,,,,,,,,,,,,,,,,,,,,,,,,,,,,,,,,,,,,,,,,,,,,,,,,,,,,,,,,,,,,,,,,,,,,,,,,,,,,,,,,,,,,,,,,,,,,,,,,,,,,,,,,,,,,,,,,,,,,,,,,,,,,,,,,,,
,,612742541c10c193688cea34,2024-02-18_23h11.08.369,kallum_motion_pilot,2023.2.2,Win32,144.092219,612742541c10c193688cea34,65d2b6c8f2eece985d8e374c,65d2b8a00a1be5246173640d,0.014,0.014,0,62,62,13,1,threefour,,,,,,,,,,,,,,,,,,,,,,,,,,,,,,,,,,,,,,,,,,,,,,,,,,,,,,,,,,,,,,,,,,,,,,,,,,,,,,,,,,,,,,,,,,,,,,,,,,,,,,,,,,,,,,,,,,,,,,,,,,,,,,,,,,,,,,,,,
,,612742541c10c193688cea34,2024-02-18_23h11.08.369,kallum_motion_pilot,2023.2.2,Win32,144.092219,612742541c10c193688cea34,65d2b6c8f2eece985d8e374c,65d2b8a00a1be5246173640d,0.014,0.014,0,63,63,59,1,twofour,,,,,,,,,,,,,,,,,,,,,,,,,,,,,,,,,,,,,,,,,,,,,,,,,,,,,,,,,,,,,,,,,,,,,,,,,,,,,,,,,,,,,,,,,,,,,,,,,,,,,,,,,,,,,,,,,,,,,,,,,,,,,,,,,,,,,,,,,
,,612742541c10c193688cea34,2024-02-18_23h11.08.369,kallum_motion_pilot,2023.2.2,Win32,144.092219,612742541c10c193688cea34,65d2b6c8f2eece985d8e374c,65d2b8a00a1be5246173640d,0.014,0.014,0,64,64,35,1,twofour,,,,,,,,,,,,,,,,,,,,,,,,,,,,,,,,,,,,,,,,,,,,,,,,,,,,,,,,,,,,,,,,,,,,,,,,,,,,,,,,,,,,,,,,,,,,,,,,,,,,,,,,,,,,,,,,,,,,,,,,,,,,,,,,,,,,,,,,,
,,612742541c10c193688cea34,2024-02-18_23h11.08.369,kallum_motion_pilot,2023.2.2,Win32,144.092219,612742541c10c193688cea34,65d2b6c8f2eece985d8e374c,65d2b8a00a1be5246173640d,0.014,0.015,0,65,65,18,1,twoone,,,,,,,,,,,,,,,,,,,,,,,,,,,,,,,,,,,,,,,,,,,,,,,,,,,,,,,,,,,,,,,,,,,,,,,,,,,,,,,,,,,,,,,,,,,,,,,,,,,,,,,,,,,,,,,,,,,,,,,,,,,,,,,,,,,,,,,,,
,,612742541c10c193688cea34,2024-02-18_23h11.08.369,kallum_motion_pilot,2023.2.2,Win32,144.092219,612742541c10c193688cea34,65d2b6c8f2eece985d8e374c,65d2b8a00a1be5246173640d,0.015,0.015,0,66,66,144,1,fivesix,,,,,,,,,,,,,,,,,,,,,,,,,,,,,,,,,,,,,,,,,,,,,,,,,,,,,,,,,,,,,,,,,,,,,,,,,,,,,,,,,,,,,,,,,,,,,,,,,,,,,,,,,,,,,,,,,,,,,,,,,,,,,,,,,,,,,,,,,
,,612742541c10c193688cea34,2024-02-18_23h11.08.369,kallum_motion_pilot,2023.2.2,Win32,144.092219,612742541c10c193688cea34,65d2b6c8f2eece985d8e374c,65d2b8a00a1be5246173640d,0.015,0.015,0,67,67,67,1,twofour,,,,,,,,,,,,,,,,,,,,,,,,,,,,,,,,,,,,,,,,,,,,,,,,,,,,,,,,,,,,,,,,,,,,,,,,,,,,,,,,,,,,,,,,,,,,,,,,,,,,,,,,,,,,,,,,,,,,,,,,,,,,,,,,,,,,,,,,,
,,612742541c10c193688cea34,2024-02-18_23h11.08.369,kallum_motion_pilot,2023.2.2,Win32,144.092219,612742541c10c193688cea34,65d2b6c8f2eece985d8e374c,65d2b8a00a1be5246173640d,0.015,0.015,0,68,68,151,1,eightseven,,,,,,,,,,,,,,,,,,,,,,,,,,,,,,,,,,,,,,,,,,,,,,,,,,,,,,,,,,,,,,,,,,,,,,,,,,,,,,,,,,,,,,,,,,,,,,,,,,,,,,,,,,,,,,,,,,,,,,,,,,,,,,,,,,,,,,,,,
,,612742541c10c193688cea34,2024-02-18_23h11.08.369,kallum_motion_pilot,2023.2.2,Win32,144.092219,612742541c10c193688cea34,65d2b6c8f2eece985d8e374c,65d2b8a00a1be5246173640d,0.015,0.015,0,69,69,74,1,twoone,,,,,,,,,,,,,,,,,,,,,,,,,,,,,,,,,,,,,,,,,,,,,,,,,,,,,,,,,,,,,,,,,,,,,,,,,,,,,,,,,,,,,,,,,,,,,,,,,,,,,,,,,,,,,,,,,,,,,,,,,,,,,,,,,,,,,,,,,
,,612742541c10c193688cea34,2024-02-18_23h11.08.369,kallum_motion_pilot,2023.2.2,Win32,144.092219,612742541c10c193688cea34,65d2b6c8f2eece985d8e374c,65d2b8a00a1be5246173640d,0.015,0.015,0,70,70,50,1,twoone,,,,,,,,,,,,,,,,,,,,,,,,,,,,,,,,,,,,,,,,,,,,,,,,,,,,,,,,,,,,,,,,,,,,,,,,,,,,,,,,,,,,,,,,,,,,,,,,,,,,,,,,,,,,,,,,,,,,,,,,,,,,,,,,,,,,,,,,,
,,612742541c10c193688cea34,2024-02-18_23h11.08.369,kallum_motion_pilot,2023.2.2,Win32,144.092219,612742541c10c193688cea34,65d2b6c8f2eece985d8e374c,65d2b8a00a1be5246173640d,0.015,0.015,0,71,71,125,1,seveneight,,,,,,,,,,,,,,,,,,,,,,,,,,,,,,,,,,,,,,,,,,,,,,,,,,,,,,,,,,,,,,,,,,,,,,,,,,,,,,,,,,,,,,,,,,,,,,,,,,,,,,,,,,,,,,,,,,,,,,,,,,,,,,,,,,,,,,,,,
,,612742541c10c193688cea34,2024-02-18_23h11.08.369,kallum_motion_pilot,2023.2.2,Win32,144.092219,612742541c10c193688cea34,65d2b6c8f2eece985d8e374c,65d2b8a00a1be5246173640d,0.015,0.015,0,72,72,52,1,threeone,,,,,,,,,,,,,,,,,,,,,,,,,,,,,,,,,,,,,,,,,,,,,,,,,,,,,,,,,,,,,,,,,,,,,,,,,,,,,,,,,,,,,,,,,,,,,,,,,,,,,,,,,,,,,,,,,,,,,,,,,,,,,,,,,,,,,,,,,
,,612742541c10c193688cea34,2024-02-18_23h11.08.369,kallum_motion_pilot,2023.2.2,Win32,144.092219,612742541c10c193688cea34,65d2b6c8f2eece985d8e374c,65d2b8a00a1be5246173640d,0.015,0.015,0,73,73,115,1,sixeight,,,,,,,,,,,,,,,,,,,,,,,,,,,,,,,,,,,,,,,,,,,,,,,,,,,,,,,,,,,,,,,,,,,,,,,,,,,,,,,,,,,,,,,,,,,,,,,,,,,,,,,,,,,,,,,,,,,,,,,,,,,,,,,,,,,,,,,,,
,,612742541c10c193688cea34,2024-02-18_23h11.08.369,kallum_motion_pilot,2023.2.2,Win32,144.092219,612742541c10c193688cea34,65d2b6c8f2eece985d8e374c,65d2b8a00a1be5246173640d,0.015,0.015,0,74,74,14,1,fourtwo,,,,,,,,,,,,,,,,,,,,,,,,,,,,,,,,,,,,,,,,,,,,,,,,,,,,,,,,,,,,,,,,,,,,,,,,,,,,,,,,,,,,,,,,,,,,,,,,,,,,,,,,,,,,,,,,,,,,,,,,,,,,,,,,,,,,,,,,,
,,612742541c10c193688cea34,2024-02-18_23h11.08.369,kallum_motion_pilot,2023.2.2,Win32,144.092219,612742541c10c193688cea34,65d2b6c8f2eece985d8e374c,65d2b8a00a1be5246173640d,0.015,0.015,0,75,75,61,1,threefour,,,,,,,,,,,,,,,,,,,,,,,,,,,,,,,,,,,,,,,,,,,,,,,,,,,,,,,,,,,,,,,,,,,,,,,,,,,,,,,,,,,,,,,,,,,,,,,,,,,,,,,,,,,,,,,,,,,,,,,,,,,,,,,,,,,,,,,,,
,,612742541c10c193688cea34,2024-02-18_23h11.08.369,kallum_motion_pilot,2023.2.2,Win32,144.092219,612742541c10c193688cea34,65d2b6c8f2eece985d8e374c,65d2b8a00a1be5246173640d,0.015,0.015,0,76,76,147,1,sixeight,,,,,,,,,,,,,,,,,,,,,,,,,,,,,,,,,,,,,,,,,,,,,,,,,,,,,,,,,,,,,,,,,,,,,,,,,,,,,,,,,,,,,,,,,,,,,,,,,,,,,,,,,,,,,,,,,,,,,,,,,,,,,,,,,,,,,,,,,
,,612742541c10c193688cea34,2024-02-18_23h11.08.369,kallum_motion_pilot,2023.2.2,Win32,144.092219,612742541c10c193688cea34,65d2b6c8f2eece985d8e374c,65d2b8a00a1be5246173640d,0.015,0.015,0,77,77,5,1,threefour,,,,,,,,,,,,,,,,,,,,,,,,,,,,,,,,,,,,,,,,,,,,,,,,,,,,,,,,,,,,,,,,,,,,,,,,,,,,,,,,,,,,,,,,,,,,,,,,,,,,,,,,,,,,,,,,,,,,,,,,,,,,,,,,,,,,,,,,,
,,612742541c10c193688cea34,2024-02-18_23h11.08.369,kallum_motion_pilot,2023.2.2,Win32,144.092219,612742541c10c193688cea34,65d2b6c8f2eece985d8e374c,65d2b8a00a1be5246173640d,0.015,0.015,0,78,78,98,1,sixfive,,,,,,,,,,,,,,,,,,,,,,,,,,,,,,,,,,,,,,,,,,,,,,,,,,,,,,,,,,,,,,,,,,,,,,,,,,,,,,,,,,,,,,,,,,,,,,,,,,,,,,,,,,,,,,,,,,,,,,,,,,,,,,,,,,,,,,,,,
,,612742541c10c193688cea34,2024-02-18_23h11.08.369,kallum_motion_pilot,2023.2.2,Win32,144.092219,612742541c10c193688cea34,65d2b6c8f2eece985d8e374c,65d2b8a00a1be5246173640d,0.015,0.015,0,79,79,158,1,eightsix,,,,,,,,,,,,,,,,,,,,,,,,,,,,,,,,,,,,,,,,,,,,,,,,,,,,,,,,,,,,,,,,,,,,,,,,,,,,,,,,,,,,,,,,,,,,,,,,,,,,,,,,,,,,,,,,,,,,,,,,,,,,,,,,,,,,,,,,,
,,612742541c10c193688cea34,2024-02-18_23h11.08.369,kallum_motion_pilot,2023.2.2,Win32,144.092219,612742541c10c193688cea34,65d2b6c8f2eece985d8e374c,65d2b8a00a1be5246173640d,0.015,0.015,0,80,80,121,1,fiveseven,,,,,,,,,,,,,,,,,,,,,,,,,,,,,,,,,,,,,,,,,,,,,,,,,,,,,,,,,,,,,,,,,,,,,,,,,,,,,,,,,,,,,,,,,,,,,,,,,,,,,,,,,,,,,,,,,,,,,,,,,,,,,,,,,,,,,,,,,
,,612742541c10c193688cea34,2024-02-18_23h11.08.369,kallum_motion_pilot,2023.2.2,Win32,144.092219,612742541c10c193688cea34,65d2b6c8f2eece985d8e374c,65d2b8a00a1be5246173640d,0.015,0.015,0,81,81,39,1,fourthree,,,,,,,,,,,,,,,,,,,,,,,,,,,,,,,,,,,,,,,,,,,,,,,,,,,,,,,,,,,,,,,,,,,,,,,,,,,,,,,,,,,,,,,,,,,,,,,,,,,,,,,,,,,,,,,,,,,,,,,,,,,,,,,,,,,,,,,,,
,,612742541c10c193688cea34,2024-02-18_23h11.08.369,kallum_motion_pilot,2023.2.2,Win32,144.092219,612742541c10c193688cea34,65d2b6c8f2eece985d8e374c,65d2b8a00a1be5246173640d,0.015,0.015,0,82,82,71,1,fourthree,,,,,,,,,,,,,,,,,,,,,,,,,,,,,,,,,,,,,,,,,,,,,,,,,,,,,,,,,,,,,,,,,,,,,,,,,,,,,,,,,,,,,,,,,,,,,,,,,,,,,,,,,,,,,,,,,,,,,,,,,,,,,,,,,,,,,,,,,
,,612742541c10c193688cea34,2024-02-18_23h11.08.369,kallum_motion_pilot,2023.2.2,Win32,144.092219,612742541c10c193688cea34,65d2b6c8f2eece985d8e374c,65d2b8a00a1be5246173640d,0.015,0.015,0,83,83,47,1,fourthree,,,,,,,,,,,,,,,,,,,,,,,,,,,,,,,,,,,,,,,,,,,,,,,,,,,,,,,,,,,,,,,,,,,,,,,,,,,,,,,,,,,,,,,,,,,,,,,,,,,,,,,,,,,,,,,,,,,,,,,,,,,,,,,,,,,,,,,,,
,,612742541c10c193688cea34,2024-02-18_23h11.08.369,kallum_motion_pilot,2023.2.2,Win32,144.092219,612742541c10c193688cea34,65d2b6c8f2eece985d8e374c,65d2b8a00a1be5246173640d,0.015,0.015,0,84,84,38,1,fourtwo,,,,,,,,,,,,,,,,,,,,,,,,,,,,,,,,,,,,,,,,,,,,,,,,,,,,,,,,,,,,,,,,,,,,,,,,,,,,,,,,,,,,,,,,,,,,,,,,,,,,,,,,,,,,,,,,,,,,,,,,,,,,,,,,,,,,,,,,,
,,612742541c10c193688cea34,2024-02-18_23h11.08.369,kallum_motion_pilot,2023.2.2,Win32,144.092219,612742541c10c193688cea34,65d2b6c8f2eece985d8e374c,65d2b8a00a1be5246173640d,0.015,0.015,0,85,85,37,1,threefour,,,,,,,,,,,,,,,,,,,,,,,,,,,,,,,,,,,,,,,,,,,,,,,,,,,,,,,,,,,,,,,,,,,,,,,,,,,,,,,,,,,,,,,,,,,,,,,,,,,,,,,,,,,,,,,,,,,,,,,,,,,,,,,,,,,,,,,,,
,,612742541c10c193688cea34,2024-02-18_23h11.08.369,kallum_motion_pilot,2023.2.2,Win32,144.092219,612742541c10c193688cea34,65d2b6c8f2eece985d8e374c,65d2b8a00a1be5246173640d,0.016,0.016,0,86,86,96,1,fivesix,,,,,,,,,,,,,,,,,,,,,,,,,,,,,,,,,,,,,,,,,,,,,,,,,,,,,,,,,,,,,,,,,,,,,,,,,,,,,,,,,,,,,,,,,,,,,,,,,,,,,,,,,,,,,,,,,,,,,,,,,,,,,,,,,,,,,,,,,
,,612742541c10c193688cea34,2024-02-18_23h11.08.369,kallum_motion_pilot,2023.2.2,Win32,144.092219,612742541c10c193688cea34,65d2b6c8f2eece985d8e374c,65d2b8a00a1be5246173640d,0.017,0.017,0,87,87,116,1,sevenfive,,,,,,,,,,,,,,,,,,,,,,,,,,,,,,,,,,,,,,,,,,,,,,,,,,,,,,,,,,,,,,,,,,,,,,,,,,,,,,,,,,,,,,,,,,,,,,,,,,,,,,,,,,,,,,,,,,,,,,,,,,,,,,,,,,,,,,,,,
,,612742541c10c193688cea34,2024-02-18_23h11.08.369,kallum_motion_pilot,2023.2.2,Win32,144.092219,612742541c10c193688cea34,65d2b6c8f2eece985d8e374c,65d2b8a00a1be5246173640d,0.017,0.017,0,88,88,133,1,seveneight,,,,,,,,,,,,,,,,,,,,,,,,,,,,,,,,,,,,,,,,,,,,,,,,,,,,,,,,,,,,,,,,,,,,,,,,,,,,,,,,,,,,,,,,,,,,,,,,,,,,,,,,,,,,,,,,,,,,,,,,,,,,,,,,,,,,,,,,,
,,612742541c10c193688cea34,2024-02-18_23h11.08.369,kallum_motion_pilot,2023.2.2,Win32,144.092219,612742541c10c193688cea34,65d2b6c8f2eece985d8e374c,65d2b8a00a1be5246173640d,0.017,0.017,0,89,89,119,1,eightseven,,,,,,,,,,,,,,,,,,,,,,,,,,,,,,,,,,,,,,,,,,,,,,,,,,,,,,,,,,,,,,,,,,,,,,,,,,,,,,,,,,,,,,,,,,,,,,,,,,,,,,,,,,,,,,,,,,,,,,,,,,,,,,,,,,,,,,,,,
,,612742541c10c193688cea34,2024-02-18_23h11.08.369,kallum_motion_pilot,2023.2.2,Win32,144.092219,612742541c10c193688cea34,65d2b6c8f2eece985d8e374c,65d2b8a00a1be5246173640d,0.017,0.017,0,90,90,21,1,threefour,,,,,,,,,,,,,,,,,,,,,,,,,,,,,,,,,,,,,,,,,,,,,,,,,,,,,,,,,,,,,,,,,,,,,,,,,,,,,,,,,,,,,,,,,,,,,,,,,,,,,,,,,,,,,,,,,,,,,,,,,,,,,,,,,,,,,,,,,
,,612742541c10c193688cea34,2024-02-18_23h11.08.369,kallum_motion_pilot,2023.2.2,Win32,144.092219,612742541c10c193688cea34,65d2b6c8f2eece985d8e374c,65d2b8a00a1be5246173640d,0.017,0.017,0,91,91,83,1,sixeight,,,,,,,,,,,,,,,,,,,,,,,,,,,,,,,,,,,,,,,,,,,,,,,,,,,,,,,,,,,,,,,,,,,,,,,,,,,,,,,,,,,,,,,,,,,,,,,,,,,,,,,,,,,,,,,,,,,,,,,,,,,,,,,,,,,,,,,,,
,,612742541c10c193688cea34,2024-02-18_23h11.08.369,kallum_motion_pilot,2023.2.2,Win32,144.092219,612742541c10c193688cea34,65d2b6c8f2eece985d8e374c,65d2b8a00a1be5246173640d,0.017,0.017,0,92,92,82,1,sixfive,,,,,,,,,,,,,,,,,,,,,,,,,,,,,,,,,,,,,,,,,,,,,,,,,,,,,,,,,,,,,,,,,,,,,,,,,,,,,,,,,,,,,,,,,,,,,,,,,,,,,,,,,,,,,,,,,,,,,,,,,,,,,,,,,,,,,,,,,
,,612742541c10c193688cea34,2024-02-18_23h11.08.369,kallum_motion_pilot,2023.2.2,Win32,144.092219,612742541c10c193688cea34,65d2b6c8f2eece985d8e374c,65d2b8a00a1be5246173640d,0.017,0.017,0,93,93,80,1,fivesix,,,,,,,,,,,,,,,,,,,,,,,,,,,,,,,,,,,,,,,,,,,,,,,,,,,,,,,,,,,,,,,,,,,,,,,,,,,,,,,,,,,,,,,,,,,,,,,,,,,,,,,,,,,,,,,,,,,,,,,,,,,,,,,,,,,,,,,,,
,,612742541c10c193688cea34,2024-02-18_23h11.08.369,kallum_motion_pilot,2023.2.2,Win32,144.092219,612742541c10c193688cea34,65d2b6c8f2eece985d8e374c,65d2b8a00a1be5246173640d,0.017,0.017,0,94,94,6,1,fourtwo,,,,,,,,,,,,,,,,,,,,,,,,,,,,,,,,,,,,,,,,,,,,,,,,,,,,,,,,,,,,,,,,,,,,,,,,,,,,,,,,,,,,,,,,,,,,,,,,,,,,,,,,,,,,,,,,,,,,,,,,,,,,,,,,,,,,,,,,,
,,612742541c10c193688cea34,2024-02-18_23h11.08.369,kallum_motion_pilot,2023.2.2,Win32,144.092219,612742541c10c193688cea34,65d2b6c8f2eece985d8e374c,65d2b8a00a1be5246173640d,0.017,0.017,0,95,95,161,1,fiveseven,,,,,,,,,,,,,,,,,,,,,,,,,,,,,,,,,,,,,,,,,,,,,,,,,,,,,,,,,,,,,,,,,,,,,,,,,,,,,,,,,,,,,,,,,,,,,,,,,,,,,,,,,,,,,,,,,,,,,,,,,,,,,,,,,,,,,,,,,
,,612742541c10c193688cea34,2024-02-18_23h11.08.369,kallum_motion_pilot,2023.2.2,Win32,144.092219,612742541c10c193688cea34,65d2b6c8f2eece985d8e374c,65d2b8a00a1be5246173640d,0.017,0.017,0,96,96,48,1,onetwo,,,,,,,,,,,,,,,,,,,,,,,,,,,,,,,,,,,,,,,,,,,,,,,,,,,,,,,,,,,,,,,,,,,,,,,,,,,,,,,,,,,,,,,,,,,,,,,,,,,,,,,,,,,,,,,,,,,,,,,,,,,,,,,,,,,,,,,,,
,,612742541c10c193688cea34,2024-02-18_23h11.08.369,kallum_motion_pilot,2023.2.2,Win32,144.092219,612742541c10c193688cea34,65d2b6c8f2eece985d8e374c,65d2b8a00a1be5246173640d,0.017,0.017,0,97,97,145,1,fiveseven,,,,,,,,,,,,,,,,,,,,,,,,,,,,,,,,,,,,,,,,,,,,,,,,,,,,,,,,,,,,,,,,,,,,,,,,,,,,,,,,,,,,,,,,,,,,,,,,,,,,,,,,,,,,,,,,,,,,,,,,,,,,,,,,,,,,,,,,,
,,612742541c10c193688cea34,2024-02-18_23h11.08.369,kallum_motion_pilot,2023.2.2,Win32,144.092219,612742541c10c193688cea34,65d2b6c8f2eece985d8e374c,65d2b8a00a1be5246173640d,0.017,0.017,0,98,98,101,1,seveneight,,,,,,,,,,,,,,,,,,,,,,,,,,,,,,,,,,,,,,,,,,,,,,,,,,,,,,,,,,,,,,,,,,,,,,,,,,,,,,,,,,,,,,,,,,,,,,,,,,,,,,,,,,,,,,,,,,,,,,,,,,,,,,,,,,,,,,,,,
,,612742541c10c193688cea34,2024-02-18_23h11.08.369,kallum_motion_pilot,2023.2.2,Win32,144.092219,612742541c10c193688cea34,65d2b6c8f2eece985d8e374c,65d2b8a00a1be5246173640d,0.017,0.017,0,99,99,56,1,onetwo,,,,,,,,,,,,,,,,,,,,,,,,,,,,,,,,,,,,,,,,,,,,,,,,,,,,,,,,,,,,,,,,,,,,,,,,,,,,,,,,,,,,,,,,,,,,,,,,,,,,,,,,,,,,,,,,,,,,,,,,,,,,,,,,,,,,,,,,,
,,612742541c10c193688cea34,2024-02-18_23h11.08.369,kallum_motion_pilot,2023.2.2,Win32,144.092219,612742541c10c193688cea34,65d2b6c8f2eece985d8e374c,65d2b8a00a1be5246173640d,0.017,0.017,0,100,100,8,1,onetwo,,,,,,,,,,,,,,,,,,,,,,,,,,,,,,,,,,,,,,,,,,,,,,,,,,,,,,,,,,,,,,,,,,,,,,,,,,,,,,,,,,,,,,,,,,,,,,,,,,,,,,,,,,,,,,,,,,,,,,,,,,,,,,,,,,,,,,,,,
,,612742541c10c193688cea34,2024-02-18_23h11.08.369,kallum_motion_pilot,2023.2.2,Win32,144.092219,612742541c10c193688cea34,65d2b6c8f2eece985d8e374c,65d2b8a00a1be5246173640d,0.017,0.017,0,101,101,114,1,sixfive,,,,,,,,,,,,,,,,,,,,,,,,,,,,,,,,,,,,,,,,,,,,,,,,,,,,,,,,,,,,,,,,,,,,,,,,,,,,,,,,,,,,,,,,,,,,,,,,,,,,,,,,,,,,,,,,,,,,,,,,,,,,,,,,,,,,,,,,,
,,612742541c10c193688cea34,2024-02-18_23h11.08.369,kallum_motion_pilot,2023.2.2,Win32,144.092219,612742541c10c193688cea34,65d2b6c8f2eece985d8e374c,65d2b8a00a1be5246173640d,0.017,0.017,0,102,102,19,1,twofour,,,,,,,,,,,,,,,,,,,,,,,,,,,,,,,,,,,,,,,,,,,,,,,,,,,,,,,,,,,,,,,,,,,,,,,,,,,,,,,,,,,,,,,,,,,,,,,,,,,,,,,,,,,,,,,,,,,,,,,,,,,,,,,,,,,,,,,,,
,,612742541c10c193688cea34,2024-02-18_23h11.08.369,kallum_motion_pilot,2023.2.2,Win32,144.092219,612742541c10c193688cea34,65d2b6c8f2eece985d8e374c,65d2b8a00a1be5246173640d,0.017,0.017,0,103,103,131,1,sixeight,,,,,,,,,,,,,,,,,,,,,,,,,,,,,,,,,,,,,,,,,,,,,,,,,,,,,,,,,,,,,,,,,,,,,,,,,,,,,,,,,,,,,,,,,,,,,,,,,,,,,,,,,,,,,,,,,,,,,,,,,,,,,,,,,,,,,,,,,
,,612742541c10c193688cea34,2024-02-18_23h11.08.369,kallum_motion_pilot,2023.2.2,Win32,144.092219,612742541c10c193688cea34,65d2b6c8f2eece985d8e374c,65d2b8a00a1be5246173640d,0.017,0.017,0,104,104,62,1,fourtwo,,,,,,,,,,,,,,,,,,,,,,,,,,,,,,,,,,,,,,,,,,,,,,,,,,,,,,,,,,,,,,,,,,,,,,,,,,,,,,,,,,,,,,,,,,,,,,,,,,,,,,,,,,,,,,,,,,,,,,,,,,,,,,,,,,,,,,,,,
,,612742541c10c193688cea34,2024-02-18_23h11.08.369,kallum_motion_pilot,2023.2.2,Win32,144.092219,612742541c10c193688cea34,65d2b6c8f2eece985d8e374c,65d2b8a00a1be5246173640d,0.017,0.017,0,105,105,88,1,fivesix,,,,,,,,,,,,,,,,,,,,,,,,,,,,,,,,,,,,,,,,,,,,,,,,,,,,,,,,,,,,,,,,,,,,,,,,,,,,,,,,,,,,,,,,,,,,,,,,,,,,,,,,,,,,,,,,,,,,,,,,,,,,,,,,,,,,,,,,,
,,612742541c10c193688cea34,2024-02-18_23h11.08.369,kallum_motion_pilot,2023.2.2,Win32,144.092219,612742541c10c193688cea34,65d2b6c8f2eece985d8e374c,65d2b8a00a1be5246173640d,0.017,0.017,0,106,106,32,1,onetwo,,,,,,,,,,,,,,,,,,,,,,,,,,,,,,,,,,,,,,,,,,,,,,,,,,,,,,,,,,,,,,,,,,,,,,,,,,,,,,,,,,,,,,,,,,,,,,,,,,,,,,,,,,,,,,,,,,,,,,,,,,,,,,,,,,,,,,,,,
,,612742541c10c193688cea34,2024-02-18_23h11.08.369,kallum_motion_pilot,2023.2.2,Win32,144.092219,612742541c10c193688cea34,65d2b6c8f2eece985d8e374c,65d2b8a00a1be5246173640d,0.017,0.017,0,107,107,113,1,fiveseven,,,,,,,,,,,,,,,,,,,,,,,,,,,,,,,,,,,,,,,,,,,,,,,,,,,,,,,,,,,,,,,,,,,,,,,,,,,,,,,,,,,,,,,,,,,,,,,,,,,,,,,,,,,,,,,,,,,,,,,,,,,,,,,,,,,,,,,,,
,,612742541c10c193688cea34,2024-02-18_23h11.08.369,kallum_motion_pilot,2023.2.2,Win32,144.092219,612742541c10c193688cea34,65d2b6c8f2eece985d8e374c,65d2b8a00a1be5246173640d,0.017,0.017,0,108,108,44,1,threeone,,,,,,,,,,,,,,,,,,,,,,,,,,,,,,,,,,,,,,,,,,,,,,,,,,,,,,,,,,,,,,,,,,,,,,,,,,,,,,,,,,,,,,,,,,,,,,,,,,,,,,,,,,,,,,,,,,,,,,,,,,,,,,,,,,,,,,,,,
,,612742541c10c193688cea34,2024-02-18_23h11.08.369,kallum_motion_pilot,2023.2.2,Win32,144.092219,612742541c10c193688cea34,65d2b6c8f2eece985d8e374c,65d2b8a00a1be5246173640d,0.017,0.017,0,109,109,41,1,onethree,,,,,,,,,,,,,,,,,,,,,,,,,,,,,,,,,,,,,,,,,,,,,,,,,,,,,,,,,,,,,,,,,,,,,,,,,,,,,,,,,,,,,,,,,,,,,,,,,,,,,,,,,,,,,,,,,,,,,,,,,,,,,,,,,,,,,,,,,
,,612742541c10c193688cea34,2024-02-18_23h11.08.369,kallum_motion_pilot,2023.2.2,Win32,144.092219,612742541c10c193688cea34,65d2b6c8f2eece985d8e374c,65d2b8a00a1be5246173640d,0.017,0.017,0,110,110,124,1,sevenfive,,,,,,,,,,,,,,,,,,,,,,,,,,,,,,,,,,,,,,,,,,,,,,,,,,,,,,,,,,,,,,,,,,,,,,,,,,,,,,,,,,,,,,,,,,,,,,,,,,,,,,,,,,,,,,,,,,,,,,,,,,,,,,,,,,,,,,,,,
,,612742541c10c193688cea34,2024-02-18_23h11.08.369,kallum_motion_pilot,2023.2.2,Win32,144.092219,612742541c10c193688cea34,65d2b6c8f2eece985d8e374c,65d2b8a00a1be5246173640d,0.017,0.017,0,111,111,159,1,eightseven,,,,,,,,,,,,,,,,,,,,,,,,,,,,,,,,,,,,,,,,,,,,,,,,,,,,,,,,,,,,,,,,,,,,,,,,,,,,,,,,,,,,,,,,,,,,,,,,,,,,,,,,,,,,,,,,,,,,,,,,,,,,,,,,,,,,,,,,,
,,612742541c10c193688cea34,2024-02-18_23h11.08.369,kallum_motion_pilot,2023.2.2,Win32,144.092219,612742541c10c193688cea34,65d2b6c8f2eece985d8e374c,65d2b8a00a1be5246173640d,0.017,0.017,0,112,112,93,1,seveneight,,,,,,,,,,,,,,,,,,,,,,,,,,,,,,,,,,,,,,,,,,,,,,,,,,,,,,,,,,,,,,,,,,,,,,,,,,,,,,,,,,,,,,,,,,,,,,,,,,,,,,,,,,,,,,,,,,,,,,,,,,,,,,,,,,,,,,,,,
,,612742541c10c193688cea34,2024-02-18_23h11.08.369,kallum_motion_pilot,2023.2.2,Win32,144.092219,612742541c10c193688cea34,65d2b6c8f2eece985d8e374c,65d2b8a00a1be5246173640d,0.017,0.017,0,113,113,92,1,sevenfive,,,,,,,,,,,,,,,,,,,,,,,,,,,,,,,,,,,,,,,,,,,,,,,,,,,,,,,,,,,,,,,,,,,,,,,,,,,,,,,,,,,,,,,,,,,,,,,,,,,,,,,,,,,,,,,,,,,,,,,,,,,,,,,,,,,,,,,,,
,,612742541c10c193688cea34,2024-02-18_23h11.08.369,kallum_motion_pilot,2023.2.2,Win32,144.092219,612742541c10c193688cea34,65d2b6c8f2eece985d8e374c,65d2b8a00a1be5246173640d,0.017,0.017,0,114,114,141,1,seveneight,,,,,,,,,,,,,,,,,,,,,,,,,,,,,,,,,,,,,,,,,,,,,,,,,,,,,,,,,,,,,,,,,,,,,,,,,,,,,,,,,,,,,,,,,,,,,,,,,,,,,,,,,,,,,,,,,,,,,,,,,,,,,,,,,,,,,,,,,
,,612742541c10c193688cea34,2024-02-18_23h11.08.369,kallum_motion_pilot,2023.2.2,Win32,144.092219,612742541c10c193688cea34,65d2b6c8f2eece985d8e374c,65d2b8a00a1be5246173640d,0.017,0.017,0,115,115,89,1,fiveseven,,,,,,,,,,,,,,,,,,,,,,,,,,,,,,,,,,,,,,,,,,,,,,,,,,,,,,,,,,,,,,,,,,,,,,,,,,,,,,,,,,,,,,,,,,,,,,,,,,,,,,,,,,,,,,,,,,,,,,,,,,,,,,,,,,,,,,,,,
,,612742541c10c193688cea34,2024-02-18_23h11.08.369,kallum_motion_pilot,2023.2.2,Win32,144.092219,612742541c10c193688cea34,65d2b6c8f2eece985d8e374c,65d2b8a00a1be5246173640d,0.017,0.017,0,116,116,68,1,threeone,,,,,,,,,,,,,,,,,,,,,,,,,,,,,,,,,,,,,,,,,,,,,,,,,,,,,,,,,,,,,,,,,,,,,,,,,,,,,,,,,,,,,,,,,,,,,,,,,,,,,,,,,,,,,,,,,,,,,,,,,,,,,,,,,,,,,,,,,
,,612742541c10c193688cea34,2024-02-18_23h11.08.369,kallum_motion_pilot,2023.2.2,Win32,144.092219,612742541c10c193688cea34,65d2b6c8f2eece985d8e374c,65d2b8a00a1be5246173640d,0.017,0.017,0,117,117,99,1,sixeight,,,,,,,,,,,,,,,,,,,,,,,,,,,,,,,,,,,,,,,,,,,,,,,,,,,,,,,,,,,,,,,,,,,,,,,,,,,,,,,,,,,,,,,,,,,,,,,,,,,,,,,,,,,,,,,,,,,,,,,,,,,,,,,,,,,,,,,,,
,,612742541c10c193688cea34,2024-02-18_23h11.08.369,kallum_motion_pilot,2023.2.2,Win32,144.092219,612742541c10c193688cea34,65d2b6c8f2eece985d8e374c,65d2b8a00a1be5246173640d,0.017,0.017,0,118,118,49,1,onethree,,,,,,,,,,,,,,,,,,,,,,,,,,,,,,,,,,,,,,,,,,,,,,,,,,,,,,,,,,,,,,,,,,,,,,,,,,,,,,,,,,,,,,,,,,,,,,,,,,,,,,,,,,,,,,,,,,,,,,,,,,,,,,,,,,,,,,,,,
,,612742541c10c193688cea34,2024-02-18_23h11.08.369,kallum_motion_pilot,2023.2.2,Win32,144.092219,612742541c10c193688cea34,65d2b6c8f2eece985d8e374c,65d2b8a00a1be5246173640d,0.018,0.018,0,119,119,117,1,seveneight,,,,,,,,,,,,,,,,,,,,,,,,,,,,,,,,,,,,,,,,,,,,,,,,,,,,,,,,,,,,,,,,,,,,,,,,,,,,,,,,,,,,,,,,,,,,,,,,,,,,,,,,,,,,,,,,,,,,,,,,,,,,,,,,,,,,,,,,,
,,612742541c10c193688cea34,2024-02-18_23h11.08.369,kallum_motion_pilot,2023.2.2,Win32,144.092219,612742541c10c193688cea34,65d2b6c8f2eece985d8e374c,65d2b8a00a1be5246173640d,0.018,0.018,0,120,120,2,1,twoone,,,,,,,,,,,,,,,,,,,,,,,,,,,,,,,,,,,,,,,,,,,,,,,,,,,,,,,,,,,,,,,,,,,,,,,,,,,,,,,,,,,,,,,,,,,,,,,,,,,,,,,,,,,,,,,,,,,,,,,,,,,,,,,,,,,,,,,,,
,,612742541c10c193688cea34,2024-02-18_23h11.08.369,kallum_motion_pilot,2023.2.2,Win32,144.092219,612742541c10c193688cea34,65d2b6c8f2eece985d8e374c,65d2b8a00a1be5246173640d,0.018,0.018,0,121,121,63,1,fourthree,,,,,,,,,,,,,,,,,,,,,,,,,,,,,,,,,,,,,,,,,,,,,,,,,,,,,,,,,,,,,,,,,,,,,,,,,,,,,,,,,,,,,,,,,,,,,,,,,,,,,,,,,,,,,,,,,,,,,,,,,,,,,,,,,,,,,,,,,
,,612742541c10c193688cea34,2024-02-18_23h11.08.369,kallum_motion_pilot,2023.2.2,Win32,144.092219,612742541c10c193688cea34,65d2b6c8f2eece985d8e374c,65d2b8a00a1be5246173640d,0.018,0.018,0,122,122,110,1,eightsix,,,,,,,,,,,,,,,,,,,,,,,,,,,,,,,,,,,,,,,,,,,,,,,,,,,,,,,,,,,,,,,,,,,,,,,,,,,,,,,,,,,,,,,,,,,,,,,,,,,,,,,,,,,,,,,,,,,,,,,,,,,,,,,,,,,,,,,,,
,,612742541c10c193688cea34,2024-02-18_23h11.08.369,kallum_motion_pilot,2023.2.2,Win32,144.092219,612742541c10c193688cea34,65d2b6c8f2eece985d8e374c,65d2b8a00a1be5246173640d,0.018,0.018,0,123,123,55,1,fourthree,,,,,,,,,,,,,,,,,,,,,,,,,,,,,,,,,,,,,,,,,,,,,,,,,,,,,,,,,,,,,,,,,,,,,,,,,,,,,,,,,,,,,,,,,,,,,,,,,,,,,,,,,,,,,,,,,,,,,,,,,,,,,,,,,,,,,,,,,
,,612742541c10c193688cea34,2024-02-18_23h11.08.369,kallum_motion_pilot,2023.2.2,Win32,144.092219,612742541c10c193688cea34,65d2b6c8f2eece985d8e374c,65d2b8a00a1be5246173640d,0.018,0.018,0,124,124,73,1,onethree,,,,,,,,,,,,,,,,,,,,,,,,,,,,,,,,,,,,,,,,,,,,,,,,,,,,,,,,,,,,,,,,,,,,,,,,,,,,,,,,,,,,,,,,,,,,,,,,,,,,,,,,,,,,,,,,,,,,,,,,,,,,,,,,,,,,,,,,,
,,612742541c10c193688cea34,2024-02-18_23h11.08.369,kallum_motion_pilot,2023.2.2,Win32,144.092219,612742541c10c193688cea34,65d2b6c8f2eece985d8e374c,65d2b8a00a1be5246173640d,0.018,0.018,0,125,125,109,1,seveneight,,,,,,,,,,,,,,,,,,,,,,,,,,,,,,,,,,,,,,,,,,,,,,,,,,,,,,,,,,,,,,,,,,,,,,,,,,,,,,,,,,,,,,,,,,,,,,,,,,,,,,,,,,,,,,,,,,,,,,,,,,,,,,,,,,,,,,,,,
,,612742541c10c193688cea34,2024-02-18_23h11.08.369,kallum_motion_pilot,2023.2.2,Win32,144.092219,612742541c10c193688cea34,65d2b6c8f2eece985d8e374c,65d2b8a00a1be5246173640d,0.018,0.018,0,126,126,102,1,eightsix,,,,,,,,,,,,,,,,,,,,,,,,,,,,,,,,,,,,,,,,,,,,,,,,,,,,,,,,,,,,,,,,,,,,,,,,,,,,,,,,,,,,,,,,,,,,,,,,,,,,,,,,,,,,,,,,,,,,,,,,,,,,,,,,,,,,,,,,,
,,612742541c10c193688cea34,2024-02-18_23h11.08.369,kallum_motion_pilot,2023.2.2,Win32,144.092219,612742541c10c193688cea34,65d2b6c8f2eece985d8e374c,65d2b8a00a1be5246173640d,0.018,0.018,0,127,127,100,1,sevenfive,,,,,,,,,,,,,,,,,,,,,,,,,,,,,,,,,,,,,,,,,,,,,,,,,,,,,,,,,,,,,,,,,,,,,,,,,,,,,,,,,,,,,,,,,,,,,,,,,,,,,,,,,,,,,,,,,,,,,,,,,,,,,,,,,,,,,,,,,
,,612742541c10c193688cea34,2024-02-18_23h11.08.369,kallum_motion_pilot,2023.2.2,Win32,144.092219,612742541c10c193688cea34,65d2b6c8f2eece985d8e374c,65d2b8a00a1be5246173640d,0.018,0.018,0,128,128,46,1,fourtwo,,,,,,,,,,,,,,,,,,,,,,,,,,,,,,,,,,,,,,,,,,,,,,,,,,,,,,,,,,,,,,,,,,,,,,,,,,,,,,,,,,,,,,,,,,,,,,,,,,,,,,,,,,,,,,,,,,,,,,,,,,,,,,,,,,,,,,,,,
,,612742541c10c193688cea34,2024-02-18_23h11.08.369,kallum_motion_pilot,2023.2.2,Win32,144.092219,612742541c10c193688cea34,65d2b6c8f2eece985d8e374c,65d2b8a00a1be5246173640d,0.018,0.018,0,129,129,156,1,sevenfive,,,,,,,,,,,,,,,,,,,,,,,,,,,,,,,,,,,,,,,,,,,,,,,,,,,,,,,,,,,,,,,,,,,,,,,,,,,,,,,,,,,,,,,,,,,,,,,,,,,,,,,,,,,,,,,,,,,,,,,,,,,,,,,,,,,,,,,,,
,,612742541c10c193688cea34,2024-02-18_23h11.08.369,kallum_motion_pilot,2023.2.2,Win32,144.092219,612742541c10c193688cea34,65d2b6c8f2eece985d8e374c,65d2b8a00a1be5246173640d,0.018,0.018,0,130,130,150,1,eightsix,,,,,,,,,,,,,,,,,,,,,,,,,,,,,,,,,,,,,,,,,,,,,,,,,,,,,,,,,,,,,,,,,,,,,,,,,,,,,,,,,,,,,,,,,,,,,,,,,,,,,,,,,,,,,,,,,,,,,,,,,,,,,,,,,,,,,,,,,
,,612742541c10c193688cea34,2024-02-18_23h11.08.369,kallum_motion_pilot,2023.2.2,Win32,144.092219,612742541c10c193688cea34,65d2b6c8f2eece985d8e374c,65d2b8a00a1be5246173640d,0.018,0.018,0,131,131,20,1,threeone,,,,,,,,,,,,,,,,,,,,,,,,,,,,,,,,,,,,,,,,,,,,,,,,,,,,,,,,,,,,,,,,,,,,,,,,,,,,,,,,,,,,,,,,,,,,,,,,,,,,,,,,,,,,,,,,,,,,,,,,,,,,,,,,,,,,,,,,,
,,612742541c10c193688cea34,2024-02-18_23h11.08.369,kallum_motion_pilot,2023.2.2,Win32,144.092219,612742541c10c193688cea34,65d2b6c8f2eece985d8e374c,65d2b8a00a1be5246173640d,0.018,0.018,0,132,132,127,1,eightseven,,,,,,,,,,,,,,,,,,,,,,,,,,,,,,,,,,,,,,,,,,,,,,,,,,,,,,,,,,,,,,,,,,,,,,,,,,,,,,,,,,,,,,,,,,,,,,,,,,,,,,,,,,,,,,,,,,,,,,,,,,,,,,,,,,,,,,,,,
,,612742541c10c193688cea34,2024-02-18_23h11.08.369,kallum_motion_pilot,2023.2.2,Win32,144.092219,612742541c10c193688cea34,65d2b6c8f2eece985d8e374c,65d2b8a00a1be5246173640d,0.018,0.018,0,133,133,26,1,twoone,,,,,,,,,,,,,,,,,,,,,,,,,,,,,,,,,,,,,,,,,,,,,,,,,,,,,,,,,,,,,,,,,,,,,,,,,,,,,,,,,,,,,,,,,,,,,,,,,,,,,,,,,,,,,,,,,,,,,,,,,,,,,,,,,,,,,,,,,
,,612742541c10c193688cea34,2024-02-18_23h11.08.369,kallum_motion_pilot,2023.2.2,Win32,144.092219,612742541c10c193688cea34,65d2b6c8f2eece985d8e374c,65d2b8a00a1be5246173640d,0.018,0.018,0,134,134,107,1,sixeight,,,,,,,,,,,,,,,,,,,,,,,,,,,,,,,,,,,,,,,,,,,,,,,,,,,,,,,,,,,,,,,,,,,,,,,,,,,,,,,,,,,,,,,,,,,,,,,,,,,,,,,,,,,,,,,,,,,,,,,,,,,,,,,,,,,,,,,,,
,,612742541c10c193688cea34,2024-02-18_23h11.08.369,kallum_motion_pilot,2023.2.2,Win32,144.092219,612742541c10c193688cea34,65d2b6c8f2eece985d8e374c,65d2b8a00a1be5246173640d,0.018,0.018,0,135,135,103,1,eightseven,,,,,,,,,,,,,,,,,,,,,,,,,,,,,,,,,,,,,,,,,,,,,,,,,,,,,,,,,,,,,,,,,,,,,,,,,,,,,,,,,,,,,,,,,,,,,,,,,,,,,,,,,,,,,,,,,,,,,,,,,,,,,,,,,,,,,,,,,
,,612742541c10c193688cea34,2024-02-18_23h11.08.369,kallum_motion_pilot,2023.2.2,Win32,144.092219,612742541c10c193688cea34,65d2b6c8f2eece985d8e374c,65d2b8a00a1be5246173640d,0.019,0.019,0,136,136,10,1,twoone,,,,,,,,,,,,,,,,,,,,,,,,,,,,,,,,,,,,,,,,,,,,,,,,,,,,,,,,,,,,,,,,,,,,,,,,,,,,,,,,,,,,,,,,,,,,,,,,,,,,,,,,,,,,,,,,,,,,,,,,,,,,,,,,,,,,,,,,,
,,612742541c10c193688cea34,2024-02-18_23h11.08.369,kallum_motion_pilot,2023.2.2,Win32,144.092219,612742541c10c193688cea34,65d2b6c8f2eece985d8e374c,65d2b8a00a1be5246173640d,0.019,0.019,0,137,137,148,1,sevenfive,,,,,,,,,,,,,,,,,,,,,,,,,,,,,,,,,,,,,,,,,,,,,,,,,,,,,,,,,,,,,,,,,,,,,,,,,,,,,,,,,,,,,,,,,,,,,,,,,,,,,,,,,,,,,,,,,,,,,,,,,,,,,,,,,,,,,,,,,
,,612742541c10c193688cea34,2024-02-18_23h11.08.369,kallum_motion_pilot,2023.2.2,Win32,144.092219,612742541c10c193688cea34,65d2b6c8f2eece985d8e374c,65d2b8a00a1be5246173640d,0.019,0.019,0,138,138,7,1,fourthree,,,,,,,,,,,,,,,,,,,,,,,,,,,,,,,,,,,,,,,,,,,,,,,,,,,,,,,,,,,,,,,,,,,,,,,,,,,,,,,,,,,,,,,,,,,,,,,,,,,,,,,,,,,,,,,,,,,,,,,,,,,,,,,,,,,,,,,,,
,,612742541c10c193688cea34,2024-02-18_23h11.08.369,kallum_motion_pilot,2023.2.2,Win32,144.092219,612742541c10c193688cea34,65d2b6c8f2eece985d8e374c,65d2b8a00a1be5246173640d,0.019,0.019,0,139,139,132,1,sevenfive,,,,,,,,,,,,,,,,,,,,,,,,,,,,,,,,,,,,,,,,,,,,,,,,,,,,,,,,,,,,,,,,,,,,,,,,,,,,,,,,,,,,,,,,,,,,,,,,,,,,,,,,,,,,,,,,,,,,,,,,,,,,,,,,,,,,,,,,,
,,612742541c10c193688cea34,2024-02-18_23h11.08.369,kallum_motion_pilot,2023.2.2,Win32,144.092219,612742541c10c193688cea34,65d2b6c8f2eece985d8e374c,65d2b8a00a1be5246173640d,0.019,0.019,0,140,140,95,1,eightseven,,,,,,,,,,,,,,,,,,,,,,,,,,,,,,,,,,,,,,,,,,,,,,,,,,,,,,,,,,,,,,,,,,,,,,,,,,,,,,,,,,,,,,,,,,,,,,,,,,,,,,,,,,,,,,,,,,,,,,,,,,,,,,,,,,,,,,,,,
,,612742541c10c193688cea34,2024-02-18_23h11.08.369,kallum_motion_pilot,2023.2.2,Win32,144.092219,612742541c10c193688cea34,65d2b6c8f2eece985d8e374c,65d2b8a00a1be5246173640d,0.019,0.019,0,141,141,140,1,sevenfive,,,,,,,,,,,,,,,,,,,,,,,,,,,,,,,,,,,,,,,,,,,,,,,,,,,,,,,,,,,,,,,,,,,,,,,,,,,,,,,,,,,,,,,,,,,,,,,,,,,,,,,,,,,,,,,,,,,,,,,,,,,,,,,,,,,,,,,,,
,,612742541c10c193688cea34,2024-02-18_23h11.08.369,kallum_motion_pilot,2023.2.2,Win32,144.092219,612742541c10c193688cea34,65d2b6c8f2eece985d8e374c,65d2b8a00a1be5246173640d,0.019,0.019,0,142,142,122,1,sixfive,,,,,,,,,,,,,,,,,,,,,,,,,,,,,,,,,,,,,,,,,,,,,,,,,,,,,,,,,,,,,,,,,,,,,,,,,,,,,,,,,,,,,,,,,,,,,,,,,,,,,,,,,,,,,,,,,,,,,,,,,,,,,,,,,,,,,,,,,
,,612742541c10c193688cea34,2024-02-18_23h11.08.369,kallum_motion_pilot,2023.2.2,Win32,144.092219,612742541c10c193688cea34,65d2b6c8f2eece985d8e374c,65d2b8a00a1be5246173640d,0.019,0.019,0,143,143,118,1,eightsix,,,,,,,,,,,,,,,,,,,,,,,,,,,,,,,,,,,,,,,,,,,,,,,,,,,,,,,,,,,,,,,,,,,,,,,,,,,,,,,,,,,,,,,,,,,,,,,,,,,,,,,,,,,,,,,,,,,,,,,,,,,,,,,,,,,,,,,,,
,,612742541c10c193688cea34,2024-02-18_23h11.08.369,kallum_motion_pilot,2023.2.2,Win32,144.092219,612742541c10c193688cea34,65d2b6c8f2eece985d8e374c,65d2b8a00a1be5246173640d,0.019,0.019,0,144,144,17,1,onethree,,,,,,,,,,,,,,,,,,,,,,,,,,,,,,,,,,,,,,,,,,,,,,,,,,,,,,,,,,,,,,,,,,,,,,,,,,,,,,,,,,,,,,,,,,,,,,,,,,,,,,,,,,,,,,,,,,,,,,,,,,,,,,,,,,,,,,,,,
,,612742541c10c193688cea34,2024-02-18_23h11.08.369,kallum_motion_pilot,2023.2.2,Win32,144.092219,612742541c10c193688cea34,65d2b6c8f2eece985d8e374c,65d2b8a00a1be5246173640d,0.019,0.019,0,145,145,160,1,fivesix,,,,,,,,,,,,,,,,,,,,,,,,,,,,,,,,,,,,,,,,,,,,,,,,,,,,,,,,,,,,,,,,,,,,,,,,,,,,,,,,,,,,,,,,,,,,,,,,,,,,,,,,,,,,,,,,,,,,,,,,,,,,,,,,,,,,,,,,,
,,612742541c10c193688cea34,2024-02-18_23h11.08.369,kallum_motion_pilot,2023.2.2,Win32,144.092219,612742541c10c193688cea34,65d2b6c8f2eece985d8e374c,65d2b8a00a1be5246173640d,0.019,0.019,0,146,146,106,1,sixfive,,,,,,,,,,,,,,,,,,,,,,,,,,,,,,,,,,,,,,,,,,,,,,,,,,,,,,,,,,,,,,,,,,,,,,,,,,,,,,,,,,,,,,,,,,,,,,,,,,,,,,,,,,,,,,,,,,,,,,,,,,,,,,,,,,,,,,,,,
,,612742541c10c193688cea34,2024-02-18_23h11.08.369,kallum_motion_pilot,2023.2.2,Win32,144.092219,612742541c10c193688cea34,65d2b6c8f2eece985d8e374c,65d2b8a00a1be5246173640d,0.019,0.019,0,147,147,66,1,twoone,,,,,,,,,,,,,,,,,,,,,,,,,,,,,,,,,,,,,,,,,,,,,,,,,,,,,,,,,,,,,,,,,,,,,,,,,,,,,,,,,,,,,,,,,,,,,,,,,,,,,,,,,,,,,,,,,,,,,,,,,,,,,,,,,,,,,,,,,
,,612742541c10c193688cea34,2024-02-18_23h11.08.369,kallum_motion_pilot,2023.2.2,Win32,144.092219,612742541c10c193688cea34,65d2b6c8f2eece985d8e374c,65d2b8a00a1be5246173640d,0.019,0.019,0,148,148,77,1,threefour,,,,,,,,,,,,,,,,,,,,,,,,,,,,,,,,,,,,,,,,,,,,,,,,,,,,,,,,,,,,,,,,,,,,,,,,,,,,,,,,,,,,,,,,,,,,,,,,,,,,,,,,,,,,,,,,,,,,,,,,,,,,,,,,,,,,,,,,,
,,612742541c10c193688cea34,2024-02-18_23h11.08.369,kallum_motion_pilot,2023.2.2,Win32,144.092219,612742541c10c193688cea34,65d2b6c8f2eece985d8e374c,65d2b8a00a1be5246173640d,0.019,0.019,0,149,149,84,1,sevenfive,,,,,,,,,,,,,,,,,,,,,,,,,,,,,,,,,,,,,,,,,,,,,,,,,,,,,,,,,,,,,,,,,,,,,,,,,,,,,,,,,,,,,,,,,,,,,,,,,,,,,,,,,,,,,,,,,,,,,,,,,,,,,,,,,,,,,,,,,
,,612742541c10c193688cea34,2024-02-18_23h11.08.369,kallum_motion_pilot,2023.2.2,Win32,144.092219,612742541c10c193688cea34,65d2b6c8f2eece985d8e374c,65d2b8a00a1be5246173640d,0.019,0.019,0,150,150,134,1,eightsix,,,,,,,,,,,,,,,,,,,,,,,,,,,,,,,,,,,,,,,,,,,,,,,,,,,,,,,,,,,,,,,,,,,,,,,,,,,,,,,,,,,,,,,,,,,,,,,,,,,,,,,,,,,,,,,,,,,,,,,,,,,,,,,,,,,,,,,,,
,,612742541c10c193688cea34,2024-02-18_23h11.08.369,kallum_motion_pilot,2023.2.2,Win32,144.092219,612742541c10c193688cea34,65d2b6c8f2eece985d8e374c,65d2b8a00a1be5246173640d,0.019,0.019,0,151,151,126,1,eightsix,,,,,,,,,,,,,,,,,,,,,,,,,,,,,,,,,,,,,,,,,,,,,,,,,,,,,,,,,,,,,,,,,,,,,,,,,,,,,,,,,,,,,,,,,,,,,,,,,,,,,,,,,,,,,,,,,,,,,,,,,,,,,,,,,,,,,,,,,
,,612742541c10c193688cea34,2024-02-18_23h11.08.369,kallum_motion_pilot,2023.2.2,Win32,144.092219,612742541c10c193688cea34,65d2b6c8f2eece985d8e374c,65d2b8a00a1be5246173640d,0.019,0.019,0,152,152,69,1,threefour,,,,,,,,,,,,,,,,,,,,,,,,,,,,,,,,,,,,,,,,,,,,,,,,,,,,,,,,,,,,,,,,,,,,,,,,,,,,,,,,,,,,,,,,,,,,,,,,,,,,,,,,,,,,,,,,,,,,,,,,,,,,,,,,,,,,,,,,,
,,612742541c10c193688cea34,2024-02-18_23h11.08.369,kallum_motion_pilot,2023.2.2,Win32,144.092219,612742541c10c193688cea34,65d2b6c8f2eece985d8e374c,65d2b8a00a1be5246173640d,0.019,0.019,0,153,153,86,1,eightsix,,,,,,,,,,,,,,,,,,,,,,,,,,,,,,,,,,,,,,,,,,,,,,,,,,,,,,,,,,,,,,,,,,,,,,,,,,,,,,,,,,,,,,,,,,,,,,,,,,,,,,,,,,,,,,,,,,,,,,,,,,,,,,,,,,,,,,,,,
,,612742541c10c193688cea34,2024-02-18_23h11.08.369,kallum_motion_pilot,2023.2.2,Win32,144.092219,612742541c10c193688cea34,65d2b6c8f2eece985d8e374c,65d2b8a00a1be5246173640d,0.019,0.019,0,154,154,137,1,fiveseven,,,,,,,,,,,,,,,,,,,,,,,,,,,,,,,,,,,,,,,,,,,,,,,,,,,,,,,,,,,,,,,,,,,,,,,,,,,,,,,,,,,,,,,,,,,,,,,,,,,,,,,,,,,,,,,,,,,,,,,,,,,,,,,,,,,,,,,,,
,,612742541c10c193688cea34,2024-02-18_23h11.08.369,kallum_motion_pilot,2023.2.2,Win32,144.092219,612742541c10c193688cea34,65d2b6c8f2eece985d8e374c,65d2b8a00a1be5246173640d,0.02,0.02,0,155,155,54,1,fourtwo,,,,,,,,,,,,,,,,,,,,,,,,,,,,,,,,,,,,,,,,,,,,,,,,,,,,,,,,,,,,,,,,,,,,,,,,,,,,,,,,,,,,,,,,,,,,,,,,,,,,,,,,,,,,,,,,,,,,,,,,,,,,,,,,,,,,,,,,,
,,612742541c10c193688cea34,2024-02-18_23h11.08.369,kallum_motion_pilot,2023.2.2,Win32,144.092219,612742541c10c193688cea34,65d2b6c8f2eece985d8e374c,65d2b8a00a1be5246173640d,0.02,0.02,0,156,156,111,1,eightseven,,,,,,,,,,,,,,,,,,,,,,,,,,,,,,,,,,,,,,,,,,,,,,,,,,,,,,,,,,,,,,,,,,,,,,,,,,,,,,,,,,,,,,,,,,,,,,,,,,,,,,,,,,,,,,,,,,,,,,,,,,,,,,,,,,,,,,,,,
,,612742541c10c193688cea34,2024-02-18_23h11.08.369,kallum_motion_pilot,2023.2.2,Win32,144.092219,612742541c10c193688cea34,65d2b6c8f2eece985d8e374c,65d2b8a00a1be5246173640d,0.02,0.02,0,157,157,3,1,twofour,,,,,,,,,,,,,,,,,,,,,,,,,,,,,,,,,,,,,,,,,,,,,,,,,,,,,,,,,,,,,,,,,,,,,,,,,,,,,,,,,,,,,,,,,,,,,,,,,,,,,,,,,,,,,,,,,,,,,,,,,,,,,,,,,,,,,,,,,
,,612742541c10c193688cea34,2024-02-18_23h11.08.369,kallum_motion_pilot,2023.2.2,Win32,144.092219,612742541c10c193688cea34,65d2b6c8f2eece985d8e374c,65d2b8a00a1be5246173640d,0.02,0.02,0,158,158,4,1,threeone,,,,,,,,,,,,,,,,,,,,,,,,,,,,,,,,,,,,,,,,,,,,,,,,,,,,,,,,,,,,,,,,,,,,,,,,,,,,,,,,,,,,,,,,,,,,,,,,,,,,,,,,,,,,,,,,,,,,,,,,,,,,,,,,,,,,,,,,,
,,612742541c10c193688cea34,2024-02-18_23h11.08.369,kallum_motion_pilot,2023.2.2,Win32,144.092219,612742541c10c193688cea34,65d2b6c8f2eece985d8e374c,65d2b8a00a1be5246173640d,0.021,0.021,0,159,159,152,1,fivesix,,,,,,,,,,,,,,,,,,,,,,,,,,,,,,,,,,,,,,,,,,,,,,,,,,,,,,,,,,,,,,,,,,,,,,,,,,,,,,,,,,,,,,,,,,,,,,,,,,,,,,,,,,,,,,,,,,,,,,,,,,,,,,,,,,,,,,,,,
,,612742541c10c193688cea34,2024-02-18_23h11.08.369,kallum_motion_pilot,2023.2.2,Win32,144.092219,612742541c10c193688cea34,65d2b6c8f2eece985d8e374c,65d2b8a00a1be5246173640d,0.021,0.021,0,160,160,149,1,seveneight,,,,,,,,,,,,,,,,,,,,,,,,,,,,,,,,,,,,,,,,,,,,,,,,,,,,,,,,,,,,,,,,,,,,,,,,,,,,,,,,,,,,,,,,,,,,,,,,,,,,,,,,,,,,,,,,,,,,,,,,,,,,,,,,,,,,,,,,,
,,612742541c10c193688cea34,2024-02-18_23h11.08.369,kallum_motion_pilot,2023.2.2,Win32,144.092219,612742541c10c193688cea34,65d2b6c8f2eece985d8e374c,65d2b8a00a1be5246173640d,0.021,0.021,0,161,161,154,1,sixfive,,,,,,,,,,,,,,,,,,,,,,,,,,,,,,,,,,,,,,,,,,,,,,,,,,,,,,,,,,,,,,,,,,,,,,,,,,,,,,,,,,,,,,,,,,,,,,,,,,,,,,,,,,,,,,,,,,,,,,,,,,,,,,,,,,,,,,,,,
,,612742541c10c193688cea34,2024-02-18_23h11.08.369,kallum_motion_pilot,2023.2.2,Win32,144.092219,612742541c10c193688cea34,65d2b6c8f2eece985d8e374c,65d2b8a00a1be5246173640d,0.021,0.021,1,0,162,133,1,seveneight,,,,,,,,,,,,,,,,,,,,,,,,,,,,,,,,,,,,,,,,,,,,,,,,,,,,,,,,,,,,,,,,,,,,,,,,,,,,,,,,,,,,,,,,,,,,,,,,,,,,,,,,,,,,,,,,,,,,,,,,,,,,,,,,,,,,,,,,,
,,612742541c10c193688cea34,2024-02-18_23h11.08.369,kallum_motion_pilot,2023.2.2,Win32,144.092219,612742541c10c193688cea34,65d2b6c8f2eece985d8e374c,65d2b8a00a1be5246173640d,0.021,0.021,1,1,163,104,1,fivesix,,,,,,,,,,,,,,,,,,,,,,,,,,,,,,,,,,,,,,,,,,,,,,,,,,,,,,,,,,,,,,,,,,,,,,,,,,,,,,,,,,,,,,,,,,,,,,,,,,,,,,,,,,,,,,,,,,,,,,,,,,,,,,,,,,,,,,,,,
,,612742541c10c193688cea34,2024-02-18_23h11.08.369,kallum_motion_pilot,2023.2.2,Win32,144.092219,612742541c10c193688cea34,65d2b6c8f2eece985d8e374c,65d2b8a00a1be5246173640d,0.021,0.021,1,2,164,96,1,fivesix,,,,,,,,,,,,,,,,,,,,,,,,,,,,,,,,,,,,,,,,,,,,,,,,,,,,,,,,,,,,,,,,,,,,,,,,,,,,,,,,,,,,,,,,,,,,,,,,,,,,,,,,,,,,,,,,,,,,,,,,,,,,,,,,,,,,,,,,,
,,612742541c10c193688cea34,2024-02-18_23h11.08.369,kallum_motion_pilot,2023.2.2,Win32,144.092219,612742541c10c193688cea34,65d2b6c8f2eece985d8e374c,65d2b8a00a1be5246173640d,0.021,0.021,1,3,165,28,1,threeone,,,,,,,,,,,,,,,,,,,,,,,,,,,,,,,,,,,,,,,,,,,,,,,,,,,,,,,,,,,,,,,,,,,,,,,,,,,,,,,,,,,,,,,,,,,,,,,,,,,,,,,,,,,,,,,,,,,,,,,,,,,,,,,,,,,,,,,,,
,,612742541c10c193688cea34,2024-02-18_23h11.08.369,kallum_motion_pilot,2023.2.2,Win32,144.092219,612742541c10c193688cea34,65d2b6c8f2eece985d8e374c,65d2b8a00a1be5246173640d,0.021,0.021,1,4,166,38,1,fourtwo,,,,,,,,,,,,,,,,,,,,,,,,,,,,,,,,,,,,,,,,,,,,,,,,,,,,,,,,,,,,,,,,,,,,,,,,,,,,,,,,,,,,,,,,,,,,,,,,,,,,,,,,,,,,,,,,,,,,,,,,,,,,,,,,,,,,,,,,,
,,612742541c10c193688cea34,2024-02-18_23h11.08.369,kallum_motion_pilot,2023.2.2,Win32,144.092219,612742541c10c193688cea34,65d2b6c8f2eece985d8e374c,65d2b8a00a1be5246173640d,0.021,0.021,1,5,167,161,1,fiveseven,,,,,,,,,,,,,,,,,,,,,,,,,,,,,,,,,,,,,,,,,,,,,,,,,,,,,,,,,,,,,,,,,,,,,,,,,,,,,,,,,,,,,,,,,,,,,,,,,,,,,,,,,,,,,,,,,,,,,,,,,,,,,,,,,,,,,,,,,
,,612742541c10c193688cea34,2024-02-18_23h11.08.369,kallum_motion_pilot,2023.2.2,Win32,144.092219,612742541c10c193688cea34,65d2b6c8f2eece985d8e374c,65d2b8a00a1be5246173640d,0.021,0.021,1,6,168,156,1,sevenfive,,,,,,,,,,,,,,,,,,,,,,,,,,,,,,,,,,,,,,,,,,,,,,,,,,,,,,,,,,,,,,,,,,,,,,,,,,,,,,,,,,,,,,,,,,,,,,,,,,,,,,,,,,,,,,,,,,,,,,,,,,,,,,,,,,,,,,,,,
,,612742541c10c193688cea34,2024-02-18_23h11.08.369,kallum_motion_pilot,2023.2.2,Win32,144.092219,612742541c10c193688cea34,65d2b6c8f2eece985d8e374c,65d2b8a00a1be5246173640d,0.021,0.021,1,7,169,82,1,sixfive,,,,,,,,,,,,,,,,,,,,,,,,,,,,,,,,,,,,,,,,,,,,,,,,,,,,,,,,,,,,,,,,,,,,,,,,,,,,,,,,,,,,,,,,,,,,,,,,,,,,,,,,,,,,,,,,,,,,,,,,,,,,,,,,,,,,,,,,,
,,612742541c10c193688cea34,2024-02-18_23h11.08.369,kallum_motion_pilot,2023.2.2,Win32,144.092219,612742541c10c193688cea34,65d2b6c8f2eece985d8e374c,65d2b8a00a1be5246173640d,0.021,0.021,1,8,170,69,1,threefour,,,,,,,,,,,,,,,,,,,,,,,,,,,,,,,,,,,,,,,,,,,,,,,,,,,,,,,,,,,,,,,,,,,,,,,,,,,,,,,,,,,,,,,,,,,,,,,,,,,,,,,,,,,,,,,,,,,,,,,,,,,,,,,,,,,,,,,,,
,,612742541c10c193688cea34,2024-02-18_23h11.08.369,kallum_motion_pilot,2023.2.2,Win32,144.092219,612742541c10c193688cea34,65d2b6c8f2eece985d8e374c,65d2b8a00a1be5246173640d,0.021,0.021,1,9,171,90,1,sixfive,,,,,,,,,,,,,,,,,,,,,,,,,,,,,,,,,,,,,,,,,,,,,,,,,,,,,,,,,,,,,,,,,,,,,,,,,,,,,,,,,,,,,,,,,,,,,,,,,,,,,,,,,,,,,,,,,,,,,,,,,,,,,,,,,,,,,,,,,
,,612742541c10c193688cea34,2024-02-18_23h11.08.369,kallum_motion_pilot,2023.2.2,Win32,144.092219,612742541c10c193688cea34,65d2b6c8f2eece985d8e374c,65d2b8a00a1be5246173640d,0.021,0.021,1,10,172,112,1,fivesix,,,,,,,,,,,,,,,,,,,,,,,,,,,,,,,,,,,,,,,,,,,,,,,,,,,,,,,,,,,,,,,,,,,,,,,,,,,,,,,,,,,,,,,,,,,,,,,,,,,,,,,,,,,,,,,,,,,,,,,,,,,,,,,,,,,,,,,,,
,,612742541c10c193688cea34,2024-02-18_23h11.08.369,kallum_motion_pilot,2023.2.2,Win32,144.092219,612742541c10c193688cea34,65d2b6c8f2eece985d8e374c,65d2b8a00a1be5246173640d,0.021,0.021,1,11,173,136,1,fivesix,,,,,,,,,,,,,,,,,,,,,,,,,,,,,,,,,,,,,,,,,,,,,,,,,,,,,,,,,,,,,,,,,,,,,,,,,,,,,,,,,,,,,,,,,,,,,,,,,,,,,,,,,,,,,,,,,,,,,,,,,,,,,,,,,,,,,,,,,
,,612742541c10c193688cea34,2024-02-18_23h11.08.369,kallum_motion_pilot,2023.2.2,Win32,144.092219,612742541c10c193688cea34,65d2b6c8f2eece985d8e374c,65d2b8a00a1be5246173640d,0.021,0.021,1,12,174,37,1,threefour,,,,,,,,,,,,,,,,,,,,,,,,,,,,,,,,,,,,,,,,,,,,,,,,,,,,,,,,,,,,,,,,,,,,,,,,,,,,,,,,,,,,,,,,,,,,,,,,,,,,,,,,,,,,,,,,,,,,,,,,,,,,,,,,,,,,,,,,,
,,612742541c10c193688cea34,2024-02-18_23h11.08.369,kallum_motion_pilot,2023.2.2,Win32,144.092219,612742541c10c193688cea34,65d2b6c8f2eece985d8e374c,65d2b8a00a1be5246173640d,0.021,0.021,1,13,175,151,1,eightseven,,,,,,,,,,,,,,,,,,,,,,,,,,,,,,,,,,,,,,,,,,,,,,,,,,,,,,,,,,,,,,,,,,,,,,,,,,,,,,,,,,,,,,,,,,,,,,,,,,,,,,,,,,,,,,,,,,,,,,,,,,,,,,,,,,,,,,,,,
,,612742541c10c193688cea34,2024-02-18_23h11.08.369,kallum_motion_pilot,2023.2.2,Win32,144.092219,612742541c10c193688cea34,65d2b6c8f2eece985d8e374c,65d2b8a00a1be5246173640d,0.021,0.021,1,14,176,33,1,onethree,,,,,,,,,,,,,,,,,,,,,,,,,,,,,,,,,,,,,,,,,,,,,,,,,,,,,,,,,,,,,,,,,,,,,,,,,,,,,,,,,,,,,,,,,,,,,,,,,,,,,,,,,,,,,,,,,,,,,,,,,,,,,,,,,,,,,,,,,
,,612742541c10c193688cea34,2024-02-18_23h11.08.369,kallum_motion_pilot,2023.2.2,Win32,144.092219,612742541c10c193688cea34,65d2b6c8f2eece985d8e374c,65d2b8a00a1be5246173640d,0.021,0.021,1,15,177,159,1,eightseven,,,,,,,,,,,,,,,,,,,,,,,,,,,,,,,,,,,,,,,,,,,,,,,,,,,,,,,,,,,,,,,,,,,,,,,,,,,,,,,,,,,,,,,,,,,,,,,,,,,,,,,,,,,,,,,,,,,,,,,,,,,,,,,,,,,,,,,,,
,,612742541c10c193688cea34,2024-02-18_23h11.08.369,kallum_motion_pilot,2023.2.2,Win32,144.092219,612742541c10c193688cea34,65d2b6c8f2eece985d8e374c,65d2b8a00a1be5246173640d,0.021,0.021,1,16,178,31,1,fourthree,,,,,,,,,,,,,,,,,,,,,,,,,,,,,,,,,,,,,,,,,,,,,,,,,,,,,,,,,,,,,,,,,,,,,,,,,,,,,,,,,,,,,,,,,,,,,,,,,,,,,,,,,,,,,,,,,,,,,,,,,,,,,,,,,,,,,,,,,
,,612742541c10c193688cea34,2024-02-18_23h11.08.369,kallum_motion_pilot,2023.2.2,Win32,144.092219,612742541c10c193688cea34,65d2b6c8f2eece985d8e374c,65d2b8a00a1be5246173640d,0.021,0.021,1,17,179,68,1,threeone,,,,,,,,,,,,,,,,,,,,,,,,,,,,,,,,,,,,,,,,,,,,,,,,,,,,,,,,,,,,,,,,,,,,,,,,,,,,,,,,,,,,,,,,,,,,,,,,,,,,,,,,,,,,,,,,,,,,,,,,,,,,,,,,,,,,,,,,,
,,612742541c10c193688cea34,2024-02-18_23h11.08.369,kallum_motion_pilot,2023.2.2,Win32,144.092219,612742541c10c193688cea34,65d2b6c8f2eece985d8e374c,65d2b8a00a1be5246173640d,0.021,0.021,1,18,180,89,1,fiveseven,,,,,,,,,,,,,,,,,,,,,,,,,,,,,,,,,,,,,,,,,,,,,,,,,,,,,,,,,,,,,,,,,,,,,,,,,,,,,,,,,,,,,,,,,,,,,,,,,,,,,,,,,,,,,,,,,,,,,,,,,,,,,,,,,,,,,,,,,
,,612742541c10c193688cea34,2024-02-18_23h11.08.369,kallum_motion_pilot,2023.2.2,Win32,144.092219,612742541c10c193688cea34,65d2b6c8f2eece985d8e374c,65d2b8a00a1be5246173640d,0.021,0.021,1,19,181,103,1,eightseven,,,,,,,,,,,,,,,,,,,,,,,,,,,,,,,,,,,,,,,,,,,,,,,,,,,,,,,,,,,,,,,,,,,,,,,,,,,,,,,,,,,,,,,,,,,,,,,,,,,,,,,,,,,,,,,,,,,,,,,,,,,,,,,,,,,,,,,,,
,,612742541c10c193688cea34,2024-02-18_23h11.08.369,kallum_motion_pilot,2023.2.2,Win32,144.092219,612742541c10c193688cea34,65d2b6c8f2eece985d8e374c,65d2b8a00a1be5246173640d,0.021,0.021,1,20,182,23,1,fourthree,,,,,,,,,,,,,,,,,,,,,,,,,,,,,,,,,,,,,,,,,,,,,,,,,,,,,,,,,,,,,,,,,,,,,,,,,,,,,,,,,,,,,,,,,,,,,,,,,,,,,,,,,,,,,,,,,,,,,,,,,,,,,,,,,,,,,,,,,
,,612742541c10c193688cea34,2024-02-18_23h11.08.369,kallum_motion_pilot,2023.2.2,Win32,144.092219,612742541c10c193688cea34,65d2b6c8f2eece985d8e374c,65d2b8a00a1be5246173640d,0.021,0.021,1,21,183,158,1,eightsix,,,,,,,,,,,,,,,,,,,,,,,,,,,,,,,,,,,,,,,,,,,,,,,,,,,,,,,,,,,,,,,,,,,,,,,,,,,,,,,,,,,,,,,,,,,,,,,,,,,,,,,,,,,,,,,,,,,,,,,,,,,,,,,,,,,,,,,,,
,,612742541c10c193688cea34,2024-02-18_23h11.08.369,kallum_motion_pilot,2023.2.2,Win32,144.092219,612742541c10c193688cea34,65d2b6c8f2eece985d8e374c,65d2b8a00a1be5246173640d,0.021,0.021,1,22,184,70,1,fourtwo,,,,,,,,,,,,,,,,,,,,,,,,,,,,,,,,,,,,,,,,,,,,,,,,,,,,,,,,,,,,,,,,,,,,,,,,,,,,,,,,,,,,,,,,,,,,,,,,,,,,,,,,,,,,,,,,,,,,,,,,,,,,,,,,,,,,,,,,,
,,612742541c10c193688cea34,2024-02-18_23h11.08.369,kallum_motion_pilot,2023.2.2,Win32,144.092219,612742541c10c193688cea34,65d2b6c8f2eece985d8e374c,65d2b8a00a1be5246173640d,0.021,0.021,1,23,185,57,1,onethree,,,,,,,,,,,,,,,,,,,,,,,,,,,,,,,,,,,,,,,,,,,,,,,,,,,,,,,,,,,,,,,,,,,,,,,,,,,,,,,,,,,,,,,,,,,,,,,,,,,,,,,,,,,,,,,,,,,,,,,,,,,,,,,,,,,,,,,,,
,,612742541c10c193688cea34,2024-02-18_23h11.08.369,kallum_motion_pilot,2023.2.2,Win32,144.092219,612742541c10c193688cea34,65d2b6c8f2eece985d8e374c,65d2b8a00a1be5246173640d,0.021,0.021,1,24,186,91,1,sixeight,,,,,,,,,,,,,,,,,,,,,,,,,,,,,,,,,,,,,,,,,,,,,,,,,,,,,,,,,,,,,,,,,,,,,,,,,,,,,,,,,,,,,,,,,,,,,,,,,,,,,,,,,,,,,,,,,,,,,,,,,,,,,,,,,,,,,,,,,
,,612742541c10c193688cea34,2024-02-18_23h11.08.369,kallum_motion_pilot,2023.2.2,Win32,144.092219,612742541c10c193688cea34,65d2b6c8f2eece985d8e374c,65d2b8a00a1be5246173640d,0.021,0.021,1,25,187,50,1,twoone,,,,,,,,,,,,,,,,,,,,,,,,,,,,,,,,,,,,,,,,,,,,,,,,,,,,,,,,,,,,,,,,,,,,,,,,,,,,,,,,,,,,,,,,,,,,,,,,,,,,,,,,,,,,,,,,,,,,,,,,,,,,,,,,,,,,,,,,,
,,612742541c10c193688cea34,2024-02-18_23h11.08.369,kallum_motion_pilot,2023.2.2,Win32,144.092219,612742541c10c193688cea34,65d2b6c8f2eece985d8e374c,65d2b8a00a1be5246173640d,0.021,0.021,1,26,188,117,1,seveneight,,,,,,,,,,,,,,,,,,,,,,,,,,,,,,,,,,,,,,,,,,,,,,,,,,,,,,,,,,,,,,,,,,,,,,,,,,,,,,,,,,,,,,,,,,,,,,,,,,,,,,,,,,,,,,,,,,,,,,,,,,,,,,,,,,,,,,,,,
,,612742541c10c193688cea34,2024-02-18_23h11.08.369,kallum_motion_pilot,2023.2.2,Win32,144.092219,612742541c10c193688cea34,65d2b6c8f2eece985d8e374c,65d2b8a00a1be5246173640d,0.021,0.021,1,27,189,135,1,eightseven,,,,,,,,,,,,,,,,,,,,,,,,,,,,,,,,,,,,,,,,,,,,,,,,,,,,,,,,,,,,,,,,,,,,,,,,,,,,,,,,,,,,,,,,,,,,,,,,,,,,,,,,,,,,,,,,,,,,,,,,,,,,,,,,,,,,,,,,,
,,612742541c10c193688cea34,2024-02-18_23h11.08.369,kallum_motion_pilot,2023.2.2,Win32,144.092219,612742541c10c193688cea34,65d2b6c8f2eece985d8e374c,65d2b8a00a1be5246173640d,0.021,0.021,1,28,190,129,1,fiveseven,,,,,,,,,,,,,,,,,,,,,,,,,,,,,,,,,,,,,,,,,,,,,,,,,,,,,,,,,,,,,,,,,,,,,,,,,,,,,,,,,,,,,,,,,,,,,,,,,,,,,,,,,,,,,,,,,,,,,,,,,,,,,,,,,,,,,,,,,
,,612742541c10c193688cea34,2024-02-18_23h11.08.369,kallum_motion_pilot,2023.2.2,Win32,144.092219,612742541c10c193688cea34,65d2b6c8f2eece985d8e374c,65d2b8a00a1be5246173640d,0.021,0.021,1,29,191,99,1,sixeight,,,,,,,,,,,,,,,,,,,,,,,,,,,,,,,,,,,,,,,,,,,,,,,,,,,,,,,,,,,,,,,,,,,,,,,,,,,,,,,,,,,,,,,,,,,,,,,,,,,,,,,,,,,,,,,,,,,,,,,,,,,,,,,,,,,,,,,,,
,,612742541c10c193688cea34,2024-02-18_23h11.08.369,kallum_motion_pilot,2023.2.2,Win32,144.092219,612742541c10c193688cea34,65d2b6c8f2eece985d8e374c,65d2b8a00a1be5246173640d,0.021,0.021,1,30,192,59,1,twofour,,,,,,,,,,,,,,,,,,,,,,,,,,,,,,,,,,,,,,,,,,,,,,,,,,,,,,,,,,,,,,,,,,,,,,,,,,,,,,,,,,,,,,,,,,,,,,,,,,,,,,,,,,,,,,,,,,,,,,,,,,,,,,,,,,,,,,,,,
,,612742541c10c193688cea34,2024-02-18_23h11.08.369,kallum_motion_pilot,2023.2.2,Win32,144.092219,612742541c10c193688cea34,65d2b6c8f2eece985d8e374c,65d2b8a00a1be5246173640d,0.021,0.021,1,31,193,132,1,sevenfive,,,,,,,,,,,,,,,,,,,,,,,,,,,,,,,,,,,,,,,,,,,,,,,,,,,,,,,,,,,,,,,,,,,,,,,,,,,,,,,,,,,,,,,,,,,,,,,,,,,,,,,,,,,,,,,,,,,,,,,,,,,,,,,,,,,,,,,,,
,,612742541c10c193688cea34,2024-02-18_23h11.08.369,kallum_motion_pilot,2023.2.2,Win32,144.092219,612742541c10c193688cea34,65d2b6c8f2eece985d8e374c,65d2b8a00a1be5246173640d,0.021,0.021,1,32,194,157,1,seveneight,,,,,,,,,,,,,,,,,,,,,,,,,,,,,,,,,,,,,,,,,,,,,,,,,,,,,,,,,,,,,,,,,,,,,,,,,,,,,,,,,,,,,,,,,,,,,,,,,,,,,,,,,,,,,,,,,,,,,,,,,,,,,,,,,,,,,,,,,
,,612742541c10c193688cea34,2024-02-18_23h11.08.369,kallum_motion_pilot,2023.2.2,Win32,144.092219,612742541c10c193688cea34,65d2b6c8f2eece985d8e374c,65d2b8a00a1be5246173640d,0.021,0.021,1,33,195,120,1,fivesix,,,,,,,,,,,,,,,,,,,,,,,,,,,,,,,,,,,,,,,,,,,,,,,,,,,,,,,,,,,,,,,,,,,,,,,,,,,,,,,,,,,,,,,,,,,,,,,,,,,,,,,,,,,,,,,,,,,,,,,,,,,,,,,,,,,,,,,,,
,,612742541c10c193688cea34,2024-02-18_23h11.08.369,kallum_motion_pilot,2023.2.2,Win32,144.092219,612742541c10c193688cea34,65d2b6c8f2eece985d8e374c,65d2b8a00a1be5246173640d,0.021,0.021,1,34,196,87,1,eightseven,,,,,,,,,,,,,,,,,,,,,,,,,,,,,,,,,,,,,,,,,,,,,,,,,,,,,,,,,,,,,,,,,,,,,,,,,,,,,,,,,,,,,,,,,,,,,,,,,,,,,,,,,,,,,,,,,,,,,,,,,,,,,,,,,,,,,,,,,
,,612742541c10c193688cea34,2024-02-18_23h11.08.369,kallum_motion_pilot,2023.2.2,Win32,144.092219,612742541c10c193688cea34,65d2b6c8f2eece985d8e374c,65d2b8a00a1be5246173640d,0.021,0.021,1,35,197,76,1,threeone,,,,,,,,,,,,,,,,,,,,,,,,,,,,,,,,,,,,,,,,,,,,,,,,,,,,,,,,,,,,,,,,,,,,,,,,,,,,,,,,,,,,,,,,,,,,,,,,,,,,,,,,,,,,,,,,,,,,,,,,,,,,,,,,,,,,,,,,,
,,612742541c10c193688cea34,2024-02-18_23h11.08.369,kallum_motion_pilot,2023.2.2,Win32,144.092219,612742541c10c193688cea34,65d2b6c8f2eece985d8e374c,65d2b8a00a1be5246173640d,0.021,0.021,1,36,198,20,1,threeone,,,,,,,,,,,,,,,,,,,,,,,,,,,,,,,,,,,,,,,,,,,,,,,,,,,,,,,,,,,,,,,,,,,,,,,,,,,,,,,,,,,,,,,,,,,,,,,,,,,,,,,,,,,,,,,,,,,,,,,,,,,,,,,,,,,,,,,,,
,,612742541c10c193688cea34,2024-02-18_23h11.08.369,kallum_motion_pilot,2023.2.2,Win32,144.092219,612742541c10c193688cea34,65d2b6c8f2eece985d8e374c,65d2b8a00a1be5246173640d,0.022,0.023,1,37,199,47,1,fourthree,,,,,,,,,,,,,,,,,,,,,,,,,,,,,,,,,,,,,,,,,,,,,,,,,,,,,,,,,,,,,,,,,,,,,,,,,,,,,,,,,,,,,,,,,,,,,,,,,,,,,,,,,,,,,,,,,,,,,,,,,,,,,,,,,,,,,,,,,
,,612742541c10c193688cea34,2024-02-18_23h11.08.369,kallum_motion_pilot,2023.2.2,Win32,144.092219,612742541c10c193688cea34,65d2b6c8f2eece985d8e374c,65d2b8a00a1be5246173640d,0.023,0.023,1,38,200,83,1,sixeight,,,,,,,,,,,,,,,,,,,,,,,,,,,,,,,,,,,,,,,,,,,,,,,,,,,,,,,,,,,,,,,,,,,,,,,,,,,,,,,,,,,,,,,,,,,,,,,,,,,,,,,,,,,,,,,,,,,,,,,,,,,,,,,,,,,,,,,,,
,,612742541c10c193688cea34,2024-02-18_23h11.08.369,kallum_motion_pilot,2023.2.2,Win32,144.092219,612742541c10c193688cea34,65d2b6c8f2eece985d8e374c,65d2b8a00a1be5246173640d,0.023,0.023,1,39,201,125,1,seveneight,,,,,,,,,,,,,,,,,,,,,,,,,,,,,,,,,,,,,,,,,,,,,,,,,,,,,,,,,,,,,,,,,,,,,,,,,,,,,,,,,,,,,,,,,,,,,,,,,,,,,,,,,,,,,,,,,,,,,,,,,,,,,,,,,,,,,,,,,
,,612742541c10c193688cea34,2024-02-18_23h11.08.369,kallum_motion_pilot,2023.2.2,Win32,144.092219,612742541c10c193688cea34,65d2b6c8f2eece985d8e374c,65d2b8a00a1be5246173640d,0.023,0.023,1,40,202,84,1,sevenfive,,,,,,,,,,,,,,,,,,,,,,,,,,,,,,,,,,,,,,,,,,,,,,,,,,,,,,,,,,,,,,,,,,,,,,,,,,,,,,,,,,,,,,,,,,,,,,,,,,,,,,,,,,,,,,,,,,,,,,,,,,,,,,,,,,,,,,,,,
,,612742541c10c193688cea34,2024-02-18_23h11.08.369,kallum_motion_pilot,2023.2.2,Win32,144.092219,612742541c10c193688cea34,65d2b6c8f2eece985d8e374c,65d2b8a00a1be5246173640d,0.023,0.023,1,41,203,29,1,threefour,,,,,,,,,,,,,,,,,,,,,,,,,,,,,,,,,,,,,,,,,,,,,,,,,,,,,,,,,,,,,,,,,,,,,,,,,,,,,,,,,,,,,,,,,,,,,,,,,,,,,,,,,,,,,,,,,,,,,,,,,,,,,,,,,,,,,,,,,
,,612742541c10c193688cea34,2024-02-18_23h11.08.369,kallum_motion_pilot,2023.2.2,Win32,144.092219,612742541c10c193688cea34,65d2b6c8f2eece985d8e374c,65d2b8a00a1be5246173640d,0.023,0.023,1,42,204,80,1,fivesix,,,,,,,,,,,,,,,,,,,,,,,,,,,,,,,,,,,,,,,,,,,,,,,,,,,,,,,,,,,,,,,,,,,,,,,,,,,,,,,,,,,,,,,,,,,,,,,,,,,,,,,,,,,,,,,,,,,,,,,,,,,,,,,,,,,,,,,,,
,,612742541c10c193688cea34,2024-02-18_23h11.08.369,kallum_motion_pilot,2023.2.2,Win32,144.092219,612742541c10c193688cea34,65d2b6c8f2eece985d8e374c,65d2b8a00a1be5246173640d,0.023,0.023,1,43,205,88,1,fivesix,,,,,,,,,,,,,,,,,,,,,,,,,,,,,,,,,,,,,,,,,,,,,,,,,,,,,,,,,,,,,,,,,,,,,,,,,,,,,,,,,,,,,,,,,,,,,,,,,,,,,,,,,,,,,,,,,,,,,,,,,,,,,,,,,,,,,,,,,
,,612742541c10c193688cea34,2024-02-18_23h11.08.369,kallum_motion_pilot,2023.2.2,Win32,144.092219,612742541c10c193688cea34,65d2b6c8f2eece985d8e374c,65d2b8a00a1be5246173640d,0.023,0.023,1,44,206,77,1,threefour,,,,,,,,,,,,,,,,,,,,,,,,,,,,,,,,,,,,,,,,,,,,,,,,,,,,,,,,,,,,,,,,,,,,,,,,,,,,,,,,,,,,,,,,,,,,,,,,,,,,,,,,,,,,,,,,,,,,,,,,,,,,,,,,,,,,,,,,,
,,612742541c10c193688cea34,2024-02-18_23h11.08.369,kallum_motion_pilot,2023.2.2,Win32,144.092219,612742541c10c193688cea34,65d2b6c8f2eece985d8e374c,65d2b8a00a1be5246173640d,0.023,0.023,1,45,207,81,1,fiveseven,,,,,,,,,,,,,,,,,,,,,,,,,,,,,,,,,,,,,,,,,,,,,,,,,,,,,,,,,,,,,,,,,,,,,,,,,,,,,,,,,,,,,,,,,,,,,,,,,,,,,,,,,,,,,,,,,,,,,,,,,,,,,,,,,,,,,,,,,
,,612742541c10c193688cea34,2024-02-18_23h11.08.369,kallum_motion_pilot,2023.2.2,Win32,144.092219,612742541c10c193688cea34,65d2b6c8f2eece985d8e374c,65d2b8a00a1be5246173640d,0.023,0.023,1,46,208,14,1,fourtwo,,,,,,,,,,,,,,,,,,,,,,,,,,,,,,,,,,,,,,,,,,,,,,,,,,,,,,,,,,,,,,,,,,,,,,,,,,,,,,,,,,,,,,,,,,,,,,,,,,,,,,,,,,,,,,,,,,,,,,,,,,,,,,,,,,,,,,,,,
,,612742541c10c193688cea34,2024-02-18_23h11.08.369,kallum_motion_pilot,2023.2.2,Win32,144.092219,612742541c10c193688cea34,65d2b6c8f2eece985d8e374c,65d2b8a00a1be5246173640d,0.023,0.023,1,47,209,128,1,fivesix,,,,,,,,,,,,,,,,,,,,,,,,,,,,,,,,,,,,,,,,,,,,,,,,,,,,,,,,,,,,,,,,,,,,,,,,,,,,,,,,,,,,,,,,,,,,,,,,,,,,,,,,,,,,,,,,,,,,,,,,,,,,,,,,,,,,,,,,,
,,612742541c10c193688cea34,2024-02-18_23h11.08.369,kallum_motion_pilot,2023.2.2,Win32,144.092219,612742541c10c193688cea34,65d2b6c8f2eece985d8e374c,65d2b8a00a1be5246173640d,0.023,0.023,1,48,210,106,1,sixfive,,,,,,,,,,,,,,,,,,,,,,,,,,,,,,,,,,,,,,,,,,,,,,,,,,,,,,,,,,,,,,,,,,,,,,,,,,,,,,,,,,,,,,,,,,,,,,,,,,,,,,,,,,,,,,,,,,,,,,,,,,,,,,,,,,,,,,,,,
,,612742541c10c193688cea34,2024-02-18_23h11.08.369,kallum_motion_pilot,2023.2.2,Win32,144.092219,612742541c10c193688cea34,65d2b6c8f2eece985d8e374c,65d2b8a00a1be5246173640d,0.023,0.023,1,49,211,6,1,fourtwo,,,,,,,,,,,,,,,,,,,,,,,,,,,,,,,,,,,,,,,,,,,,,,,,,,,,,,,,,,,,,,,,,,,,,,,,,,,,,,,,,,,,,,,,,,,,,,,,,,,,,,,,,,,,,,,,,,,,,,,,,,,,,,,,,,,,,,,,,
,,612742541c10c193688cea34,2024-02-18_23h11.08.369,kallum_motion_pilot,2023.2.2,Win32,144.092219,612742541c10c193688cea34,65d2b6c8f2eece985d8e374c,65d2b8a00a1be5246173640d,0.023,0.023,1,50,212,18,1,twoone,,,,,,,,,,,,,,,,,,,,,,,,,,,,,,,,,,,,,,,,,,,,,,,,,,,,,,,,,,,,,,,,,,,,,,,,,,,,,,,,,,,,,,,,,,,,,,,,,,,,,,,,,,,,,,,,,,,,,,,,,,,,,,,,,,,,,,,,,
,,612742541c10c193688cea34,2024-02-18_23h11.08.369,kallum_motion_pilot,2023.2.2,Win32,144.092219,612742541c10c193688cea34,65d2b6c8f2eece985d8e374c,65d2b8a00a1be5246173640d,0.023,0.023,1,51,213,55,1,fourthree,,,,,,,,,,,,,,,,,,,,,,,,,,,,,,,,,,,,,,,,,,,,,,,,,,,,,,,,,,,,,,,,,,,,,,,,,,,,,,,,,,,,,,,,,,,,,,,,,,,,,,,,,,,,,,,,,,,,,,,,,,,,,,,,,,,,,,,,,
,,612742541c10c193688cea34,2024-02-18_23h11.08.369,kallum_motion_pilot,2023.2.2,Win32,144.092219,612742541c10c193688cea34,65d2b6c8f2eece985d8e374c,65d2b8a00a1be5246173640d,0.023,0.023,1,52,214,107,1,sixeight,,,,,,,,,,,,,,,,,,,,,,,,,,,,,,,,,,,,,,,,,,,,,,,,,,,,,,,,,,,,,,,,,,,,,,,,,,,,,,,,,,,,,,,,,,,,,,,,,,,,,,,,,,,,,,,,,,,,,,,,,,,,,,,,,,,,,,,,,
,,612742541c10c193688cea34,2024-02-18_23h11.08.369,kallum_motion_pilot,2023.2.2,Win32,144.092219,612742541c10c193688cea34,65d2b6c8f2eece985d8e374c,65d2b8a00a1be5246173640d,0.023,0.023,1,53,215,146,1,sixfive,,,,,,,,,,,,,,,,,,,,,,,,,,,,,,,,,,,,,,,,,,,,,,,,,,,,,,,,,,,,,,,,,,,,,,,,,,,,,,,,,,,,,,,,,,,,,,,,,,,,,,,,,,,,,,,,,,,,,,,,,,,,,,,,,,,,,,,,,
,,612742541c10c193688cea34,2024-02-18_23h11.08.369,kallum_motion_pilot,2023.2.2,Win32,144.092219,612742541c10c193688cea34,65d2b6c8f2eece985d8e374c,65d2b8a00a1be5246173640d,0.023,0.023,1,54,216,85,1,seveneight,,,,,,,,,,,,,,,,,,,,,,,,,,,,,,,,,,,,,,,,,,,,,,,,,,,,,,,,,,,,,,,,,,,,,,,,,,,,,,,,,,,,,,,,,,,,,,,,,,,,,,,,,,,,,,,,,,,,,,,,,,,,,,,,,,,,,,,,,
,,612742541c10c193688cea34,2024-02-18_23h11.08.369,kallum_motion_pilot,2023.2.2,Win32,144.092219,612742541c10c193688cea34,65d2b6c8f2eece985d8e374c,65d2b8a00a1be5246173640d,0.023,0.023,1,55,217,5,1,threefour,,,,,,,,,,,,,,,,,,,,,,,,,,,,,,,,,,,,,,,,,,,,,,,,,,,,,,,,,,,,,,,,,,,,,,,,,,,,,,,,,,,,,,,,,,,,,,,,,,,,,,,,,,,,,,,,,,,,,,,,,,,,,,,,,,,,,,,,,
,,612742541c10c193688cea34,2024-02-18_23h11.08.369,kallum_motion_pilot,2023.2.2,Win32,144.092219,612742541c10c193688cea34,65d2b6c8f2eece985d8e374c,65d2b8a00a1be5246173640d,0.023,0.023,1,56,218,137,1,fiveseven,,,,,,,,,,,,,,,,,,,,,,,,,,,,,,,,,,,,,,,,,,,,,,,,,,,,,,,,,,,,,,,,,,,,,,,,,,,,,,,,,,,,,,,,,,,,,,,,,,,,,,,,,,,,,,,,,,,,,,,,,,,,,,,,,,,,,,,,,
,,612742541c10c193688cea34,2024-02-18_23h11.08.369,kallum_motion_pilot,2023.2.2,Win32,144.092219,612742541c10c193688cea34,65d2b6c8f2eece985d8e374c,65d2b8a00a1be5246173640d,0.023,0.023,1,57,219,61,1,threefour,,,,,,,,,,,,,,,,,,,,,,,,,,,,,,,,,,,,,,,,,,,,,,,,,,,,,,,,,,,,,,,,,,,,,,,,,,,,,,,,,,,,,,,,,,,,,,,,,,,,,,,,,,,,,,,,,,,,,,,,,,,,,,,,,,,,,,,,,
,,612742541c10c193688cea34,2024-02-18_23h11.08.369,kallum_motion_pilot,2023.2.2,Win32,144.092219,612742541c10c193688cea34,65d2b6c8f2eece985d8e374c,65d2b8a00a1be5246173640d,0.023,0.023,1,58,220,73,1,onethree,,,,,,,,,,,,,,,,,,,,,,,,,,,,,,,,,,,,,,,,,,,,,,,,,,,,,,,,,,,,,,,,,,,,,,,,,,,,,,,,,,,,,,,,,,,,,,,,,,,,,,,,,,,,,,,,,,,,,,,,,,,,,,,,,,,,,,,,,
,,612742541c10c193688cea34,2024-02-18_23h11.08.369,kallum_motion_pilot,2023.2.2,Win32,144.092219,612742541c10c193688cea34,65d2b6c8f2eece985d8e374c,65d2b8a00a1be5246173640d,0.023,0.023,1,59,221,2,1,twoone,,,,,,,,,,,,,,,,,,,,,,,,,,,,,,,,,,,,,,,,,,,,,,,,,,,,,,,,,,,,,,,,,,,,,,,,,,,,,,,,,,,,,,,,,,,,,,,,,,,,,,,,,,,,,,,,,,,,,,,,,,,,,,,,,,,,,,,,,
,,612742541c10c193688cea34,2024-02-18_23h11.08.369,kallum_motion_pilot,2023.2.2,Win32,144.092219,612742541c10c193688cea34,65d2b6c8f2eece985d8e374c,65d2b8a00a1be5246173640d,0.023,0.023,1,60,222,44,1,threeone,,,,,,,,,,,,,,,,,,,,,,,,,,,,,,,,,,,,,,,,,,,,,,,,,,,,,,,,,,,,,,,,,,,,,,,,,,,,,,,,,,,,,,,,,,,,,,,,,,,,,,,,,,,,,,,,,,,,,,,,,,,,,,,,,,,,,,,,,
,,612742541c10c193688cea34,2024-02-18_23h11.08.369,kallum_motion_pilot,2023.2.2,Win32,144.092219,612742541c10c193688cea34,65d2b6c8f2eece985d8e374c,65d2b8a00a1be5246173640d,0.023,0.023,1,61,223,150,1,eightsix,,,,,,,,,,,,,,,,,,,,,,,,,,,,,,,,,,,,,,,,,,,,,,,,,,,,,,,,,,,,,,,,,,,,,,,,,,,,,,,,,,,,,,,,,,,,,,,,,,,,,,,,,,,,,,,,,,,,,,,,,,,,,,,,,,,,,,,,,
,,612742541c10c193688cea34,2024-02-18_23h11.08.369,kallum_motion_pilot,2023.2.2,Win32,144.092219,612742541c10c193688cea34,65d2b6c8f2eece985d8e374c,65d2b8a00a1be5246173640d,0.023,0.023,1,62,224,138,1,sixfive,,,,,,,,,,,,,,,,,,,,,,,,,,,,,,,,,,,,,,,,,,,,,,,,,,,,,,,,,,,,,,,,,,,,,,,,,,,,,,,,,,,,,,,,,,,,,,,,,,,,,,,,,,,,,,,,,,,,,,,,,,,,,,,,,,,,,,,,,
,,612742541c10c193688cea34,2024-02-18_23h11.08.369,kallum_motion_pilot,2023.2.2,Win32,144.092219,612742541c10c193688cea34,65d2b6c8f2eece985d8e374c,65d2b8a00a1be5246173640d,0.023,0.023,1,63,225,53,1,threefour,,,,,,,,,,,,,,,,,,,,,,,,,,,,,,,,,,,,,,,,,,,,,,,,,,,,,,,,,,,,,,,,,,,,,,,,,,,,,,,,,,,,,,,,,,,,,,,,,,,,,,,,,,,,,,,,,,,,,,,,,,,,,,,,,,,,,,,,,
,,612742541c10c193688cea34,2024-02-18_23h11.08.369,kallum_motion_pilot,2023.2.2,Win32,144.092219,612742541c10c193688cea34,65d2b6c8f2eece985d8e374c,65d2b8a00a1be5246173640d,0.023,0.023,1,64,226,93,1,seveneight,,,,,,,,,,,,,,,,,,,,,,,,,,,,,,,,,,,,,,,,,,,,,,,,,,,,,,,,,,,,,,,,,,,,,,,,,,,,,,,,,,,,,,,,,,,,,,,,,,,,,,,,,,,,,,,,,,,,,,,,,,,,,,,,,,,,,,,,,
,,612742541c10c193688cea34,2024-02-18_23h11.08.369,kallum_motion_pilot,2023.2.2,Win32,144.092219,612742541c10c193688cea34,65d2b6c8f2eece985d8e374c,65d2b8a00a1be5246173640d,0.023,0.023,1,65,227,160,1,fivesix,,,,,,,,,,,,,,,,,,,,,,,,,,,,,,,,,,,,,,,,,,,,,,,,,,,,,,,,,,,,,,,,,,,,,,,,,,,,,,,,,,,,,,,,,,,,,,,,,,,,,,,,,,,,,,,,,,,,,,,,,,,,,,,,,,,,,,,,,
,,612742541c10c193688cea34,2024-02-18_23h11.08.369,kallum_motion_pilot,2023.2.2,Win32,144.092219,612742541c10c193688cea34,65d2b6c8f2eece985d8e374c,65d2b8a00a1be5246173640d,0.023,0.023,1,66,228,63,1,fourthree,,,,,,,,,,,,,,,,,,,,,,,,,,,,,,,,,,,,,,,,,,,,,,,,,,,,,,,,,,,,,,,,,,,,,,,,,,,,,,,,,,,,,,,,,,,,,,,,,,,,,,,,,,,,,,,,,,,,,,,,,,,,,,,,,,,,,,,,,
,,612742541c10c193688cea34,2024-02-18_23h11.08.369,kallum_motion_pilot,2023.2.2,Win32,144.092219,612742541c10c193688cea34,65d2b6c8f2eece985d8e374c,65d2b8a00a1be5246173640d,0.023,0.023,1,67,229,145,1,fiveseven,,,,,,,,,,,,,,,,,,,,,,,,,,,,,,,,,,,,,,,,,,,,,,,,,,,,,,,,,,,,,,,,,,,,,,,,,,,,,,,,,,,,,,,,,,,,,,,,,,,,,,,,,,,,,,,,,,,,,,,,,,,,,,,,,,,,,,,,,
,,612742541c10c193688cea34,2024-02-18_23h11.08.369,kallum_motion_pilot,2023.2.2,Win32,144.092219,612742541c10c193688cea34,65d2b6c8f2eece985d8e374c,65d2b8a00a1be5246173640d,0.023,0.023,1,68,230,36,1,threeone,,,,,,,,,,,,,,,,,,,,,,,,,,,,,,,,,,,,,,,,,,,,,,,,,,,,,,,,,,,,,,,,,,,,,,,,,,,,,,,,,,,,,,,,,,,,,,,,,,,,,,,,,,,,,,,,,,,,,,,,,,,,,,,,,,,,,,,,,
,,612742541c10c193688cea34,2024-02-18_23h11.08.369,kallum_motion_pilot,2023.2.2,Win32,144.092219,612742541c10c193688cea34,65d2b6c8f2eece985d8e374c,65d2b8a00a1be5246173640d,0.023,0.023,1,69,231,13,1,threefour,,,,,,,,,,,,,,,,,,,,,,,,,,,,,,,,,,,,,,,,,,,,,,,,,,,,,,,,,,,,,,,,,,,,,,,,,,,,,,,,,,,,,,,,,,,,,,,,,,,,,,,,,,,,,,,,,,,,,,,,,,,,,,,,,,,,,,,,,
,,612742541c10c193688cea34,2024-02-18_23h11.08.369,kallum_motion_pilot,2023.2.2,Win32,144.092219,612742541c10c193688cea34,65d2b6c8f2eece985d8e374c,65d2b8a00a1be5246173640d,0.023,0.023,1,70,232,30,1,fourtwo,,,,,,,,,,,,,,,,,,,,,,,,,,,,,,,,,,,,,,,,,,,,,,,,,,,,,,,,,,,,,,,,,,,,,,,,,,,,,,,,,,,,,,,,,,,,,,,,,,,,,,,,,,,,,,,,,,,,,,,,,,,,,,,,,,,,,,,,,
,,612742541c10c193688cea34,2024-02-18_23h11.08.369,kallum_motion_pilot,2023.2.2,Win32,144.092219,612742541c10c193688cea34,65d2b6c8f2eece985d8e374c,65d2b8a00a1be5246173640d,0.023,0.023,1,71,233,35,1,twofour,,,,,,,,,,,,,,,,,,,,,,,,,,,,,,,,,,,,,,,,,,,,,,,,,,,,,,,,,,,,,,,,,,,,,,,,,,,,,,,,,,,,,,,,,,,,,,,,,,,,,,,,,,,,,,,,,,,,,,,,,,,,,,,,,,,,,,,,,
,,612742541c10c193688cea34,2024-02-18_23h11.08.369,kallum_motion_pilot,2023.2.2,Win32,144.092219,612742541c10c193688cea34,65d2b6c8f2eece985d8e374c,65d2b8a00a1be5246173640d,0.023,0.023,1,72,234,7,1,fourthree,,,,,,,,,,,,,,,,,,,,,,,,,,,,,,,,,,,,,,,,,,,,,,,,,,,,,,,,,,,,,,,,,,,,,,,,,,,,,,,,,,,,,,,,,,,,,,,,,,,,,,,,,,,,,,,,,,,,,,,,,,,,,,,,,,,,,,,,,
,,612742541c10c193688cea34,2024-02-18_23h11.08.369,kallum_motion_pilot,2023.2.2,Win32,144.092219,612742541c10c193688cea34,65d2b6c8f2eece985d8e374c,65d2b8a00a1be5246173640d,0.024,0.024,1,73,235,3,1,twofour,,,,,,,,,,,,,,,,,,,,,,,,,,,,,,,,,,,,,,,,,,,,,,,,,,,,,,,,,,,,,,,,,,,,,,,,,,,,,,,,,,,,,,,,,,,,,,,,,,,,,,,,,,,,,,,,,,,,,,,,,,,,,,,,,,,,,,,,,
,,612742541c10c193688cea34,2024-02-18_23h11.08.369,kallum_motion_pilot,2023.2.2,Win32,144.092219,612742541c10c193688cea34,65d2b6c8f2eece985d8e374c,65d2b8a00a1be5246173640d,0.024,0.024,1,74,236,154,1,sixfive,,,,,,,,,,,,,,,,,,,,,,,,,,,,,,,,,,,,,,,,,,,,,,,,,,,,,,,,,,,,,,,,,,,,,,,,,,,,,,,,,,,,,,,,,,,,,,,,,,,,,,,,,,,,,,,,,,,,,,,,,,,,,,,,,,,,,,,,,
,,612742541c10c193688cea34,2024-02-18_23h11.08.369,kallum_motion_pilot,2023.2.2,Win32,144.092219,612742541c10c193688cea34,65d2b6c8f2eece985d8e374c,65d2b8a00a1be5246173640d,0.024,0.024,1,75,237,46,1,fourtwo,,,,,,,,,,,,,,,,,,,,,,,,,,,,,,,,,,,,,,,,,,,,,,,,,,,,,,,,,,,,,,,,,,,,,,,,,,,,,,,,,,,,,,,,,,,,,,,,,,,,,,,,,,,,,,,,,,,,,,,,,,,,,,,,,,,,,,,,,
,,612742541c10c193688cea34,2024-02-18_23h11.08.369,kallum_motion_pilot,2023.2.2,Win32,144.092219,612742541c10c193688cea34,65d2b6c8f2eece985d8e374c,65d2b8a00a1be5246173640d,0.024,0.024,1,76,238,123,1,sixeight,,,,,,,,,,,,,,,,,,,,,,,,,,,,,,,,,,,,,,,,,,,,,,,,,,,,,,,,,,,,,,,,,,,,,,,,,,,,,,,,,,,,,,,,,,,,,,,,,,,,,,,,,,,,,,,,,,,,,,,,,,,,,,,,,,,,,,,,,
,,612742541c10c193688cea34,2024-02-18_23h11.08.369,kallum_motion_pilot,2023.2.2,Win32,144.092219,612742541c10c193688cea34,65d2b6c8f2eece985d8e374c,65d2b8a00a1be5246173640d,0.024,0.024,1,77,239,64,1,onetwo,,,,,,,,,,,,,,,,,,,,,,,,,,,,,,,,,,,,,,,,,,,,,,,,,,,,,,,,,,,,,,,,,,,,,,,,,,,,,,,,,,,,,,,,,,,,,,,,,,,,,,,,,,,,,,,,,,,,,,,,,,,,,,,,,,,,,,,,,
,,612742541c10c193688cea34,2024-02-18_23h11.08.369,kallum_motion_pilot,2023.2.2,Win32,144.092219,612742541c10c193688cea34,65d2b6c8f2eece985d8e374c,65d2b8a00a1be5246173640d,0.024,0.024,1,78,240,34,1,twoone,,,,,,,,,,,,,,,,,,,,,,,,,,,,,,,,,,,,,,,,,,,,,,,,,,,,,,,,,,,,,,,,,,,,,,,,,,,,,,,,,,,,,,,,,,,,,,,,,,,,,,,,,,,,,,,,,,,,,,,,,,,,,,,,,,,,,,,,,
,,612742541c10c193688cea34,2024-02-18_23h11.08.369,kallum_motion_pilot,2023.2.2,Win32,144.092219,612742541c10c193688cea34,65d2b6c8f2eece985d8e374c,65d2b8a00a1be5246173640d,0.024,0.024,1,79,241,25,1,onethree,,,,,,,,,,,,,,,,,,,,,,,,,,,,,,,,,,,,,,,,,,,,,,,,,,,,,,,,,,,,,,,,,,,,,,,,,,,,,,,,,,,,,,,,,,,,,,,,,,,,,,,,,,,,,,,,,,,,,,,,,,,,,,,,,,,,,,,,,
,,612742541c10c193688cea34,2024-02-18_23h11.08.369,kallum_motion_pilot,2023.2.2,Win32,144.092219,612742541c10c193688cea34,65d2b6c8f2eece985d8e374c,65d2b8a00a1be5246173640d,0.024,0.024,1,80,242,17,1,onethree,,,,,,,,,,,,,,,,,,,,,,,,,,,,,,,,,,,,,,,,,,,,,,,,,,,,,,,,,,,,,,,,,,,,,,,,,,,,,,,,,,,,,,,,,,,,,,,,,,,,,,,,,,,,,,,,,,,,,,,,,,,,,,,,,,,,,,,,,
,,612742541c10c193688cea34,2024-02-18_23h11.08.369,kallum_motion_pilot,2023.2.2,Win32,144.092219,612742541c10c193688cea34,65d2b6c8f2eece985d8e374c,65d2b8a00a1be5246173640d,0.024,0.024,1,81,243,119,1,eightseven,,,,,,,,,,,,,,,,,,,,,,,,,,,,,,,,,,,,,,,,,,,,,,,,,,,,,,,,,,,,,,,,,,,,,,,,,,,,,,,,,,,,,,,,,,,,,,,,,,,,,,,,,,,,,,,,,,,,,,,,,,,,,,,,,,,,,,,,,
,,612742541c10c193688cea34,2024-02-18_23h11.08.369,kallum_motion_pilot,2023.2.2,Win32,144.092219,612742541c10c193688cea34,65d2b6c8f2eece985d8e374c,65d2b8a00a1be5246173640d,0.024,0.024,1,82,244,121,1,fiveseven,,,,,,,,,,,,,,,,,,,,,,,,,,,,,,,,,,,,,,,,,,,,,,,,,,,,,,,,,,,,,,,,,,,,,,,,,,,,,,,,,,,,,,,,,,,,,,,,,,,,,,,,,,,,,,,,,,,,,,,,,,,,,,,,,,,,,,,,,
,,612742541c10c193688cea34,2024-02-18_23h11.08.369,kallum_motion_pilot,2023.2.2,Win32,144.092219,612742541c10c193688cea34,65d2b6c8f2eece985d8e374c,65d2b8a00a1be5246173640d,0.024,0.024,1,83,245,131,1,sixeight,,,,,,,,,,,,,,,,,,,,,,,,,,,,,,,,,,,,,,,,,,,,,,,,,,,,,,,,,,,,,,,,,,,,,,,,,,,,,,,,,,,,,,,,,,,,,,,,,,,,,,,,,,,,,,,,,,,,,,,,,,,,,,,,,,,,,,,,,
,,612742541c10c193688cea34,2024-02-18_23h11.08.369,kallum_motion_pilot,2023.2.2,Win32,144.092219,612742541c10c193688cea34,65d2b6c8f2eece985d8e374c,65d2b8a00a1be5246173640d,0.024,0.024,1,84,246,86,1,eightsix,,,,,,,,,,,,,,,,,,,,,,,,,,,,,,,,,,,,,,,,,,,,,,,,,,,,,,,,,,,,,,,,,,,,,,,,,,,,,,,,,,,,,,,,,,,,,,,,,,,,,,,,,,,,,,,,,,,,,,,,,,,,,,,,,,,,,,,,,
,,612742541c10c193688cea34,2024-02-18_23h11.08.369,kallum_motion_pilot,2023.2.2,Win32,144.092219,612742541c10c193688cea34,65d2b6c8f2eece985d8e374c,65d2b8a00a1be5246173640d,0.024,0.024,1,85,247,105,1,fiveseven,,,,,,,,,,,,,,,,,,,,,,,,,,,,,,,,,,,,,,,,,,,,,,,,,,,,,,,,,,,,,,,,,,,,,,,,,,,,,,,,,,,,,,,,,,,,,,,,,,,,,,,,,,,,,,,,,,,,,,,,,,,,,,,,,,,,,,,,,
,,612742541c10c193688cea34,2024-02-18_23h11.08.369,kallum_motion_pilot,2023.2.2,Win32,144.092219,612742541c10c193688cea34,65d2b6c8f2eece985d8e374c,65d2b8a00a1be5246173640d,0.024,0.024,1,86,248,12,1,threeone,,,,,,,,,,,,,,,,,,,,,,,,,,,,,,,,,,,,,,,,,,,,,,,,,,,,,,,,,,,,,,,,,,,,,,,,,,,,,,,,,,,,,,,,,,,,,,,,,,,,,,,,,,,,,,,,,,,,,,,,,,,,,,,,,,,,,,,,,
,,612742541c10c193688cea34,2024-02-18_23h11.08.369,kallum_motion_pilot,2023.2.2,Win32,144.092219,612742541c10c193688cea34,65d2b6c8f2eece985d8e374c,65d2b8a00a1be5246173640d,0.024,0.024,1,87,249,10,1,twoone,,,,,,,,,,,,,,,,,,,,,,,,,,,,,,,,,,,,,,,,,,,,,,,,,,,,,,,,,,,,,,,,,,,,,,,,,,,,,,,,,,,,,,,,,,,,,,,,,,,,,,,,,,,,,,,,,,,,,,,,,,,,,,,,,,,,,,,,,
,,612742541c10c193688cea34,2024-02-18_23h11.08.369,kallum_motion_pilot,2023.2.2,Win32,144.092219,612742541c10c193688cea34,65d2b6c8f2eece985d8e374c,65d2b8a00a1be5246173640d,0.024,0.024,1,88,250,75,1,twofour,,,,,,,,,,,,,,,,,,,,,,,,,,,,,,,,,,,,,,,,,,,,,,,,,,,,,,,,,,,,,,,,,,,,,,,,,,,,,,,,,,,,,,,,,,,,,,,,,,,,,,,,,,,,,,,,,,,,,,,,,,,,,,,,,,,,,,,,,
,,612742541c10c193688cea34,2024-02-18_23h11.08.369,kallum_motion_pilot,2023.2.2,Win32,144.092219,612742541c10c193688cea34,65d2b6c8f2eece985d8e374c,65d2b8a00a1be5246173640d,0.024,0.024,1,89,251,134,1,eightsix,,,,,,,,,,,,,,,,,,,,,,,,,,,,,,,,,,,,,,,,,,,,,,,,,,,,,,,,,,,,,,,,,,,,,,,,,,,,,,,,,,,,,,,,,,,,,,,,,,,,,,,,,,,,,,,,,,,,,,,,,,,,,,,,,,,,,,,,,
,,612742541c10c193688cea34,2024-02-18_23h11.08.369,kallum_motion_pilot,2023.2.2,Win32,144.092219,612742541c10c193688cea34,65d2b6c8f2eece985d8e374c,65d2b8a00a1be5246173640d,0.025,0.025,1,90,252,124,1,sevenfive,,,,,,,,,,,,,,,,,,,,,,,,,,,,,,,,,,,,,,,,,,,,,,,,,,,,,,,,,,,,,,,,,,,,,,,,,,,,,,,,,,,,,,,,,,,,,,,,,,,,,,,,,,,,,,,,,,,,,,,,,,,,,,,,,,,,,,,,,
,,612742541c10c193688cea34,2024-02-18_23h11.08.369,kallum_motion_pilot,2023.2.2,Win32,144.092219,612742541c10c193688cea34,65d2b6c8f2eece985d8e374c,65d2b8a00a1be5246173640d,0.025,0.025,1,91,253,114,1,sixfive,,,,,,,,,,,,,,,,,,,,,,,,,,,,,,,,,,,,,,,,,,,,,,,,,,,,,,,,,,,,,,,,,,,,,,,,,,,,,,,,,,,,,,,,,,,,,,,,,,,,,,,,,,,,,,,,,,,,,,,,,,,,,,,,,,,,,,,,,
,,612742541c10c193688cea34,2024-02-18_23h11.08.369,kallum_motion_pilot,2023.2.2,Win32,144.092219,612742541c10c193688cea34,65d2b6c8f2eece985d8e374c,65d2b8a00a1be5246173640d,0.025,0.025,1,92,254,143,1,eightseven,,,,,,,,,,,,,,,,,,,,,,,,,,,,,,,,,,,,,,,,,,,,,,,,,,,,,,,,,,,,,,,,,,,,,,,,,,,,,,,,,,,,,,,,,,,,,,,,,,,,,,,,,,,,,,,,,,,,,,,,,,,,,,,,,,,,,,,,,
,,612742541c10c193688cea34,2024-02-18_23h11.08.369,kallum_motion_pilot,2023.2.2,Win32,144.092219,612742541c10c193688cea34,65d2b6c8f2eece985d8e374c,65d2b8a00a1be5246173640d,0.025,0.025,1,93,255,72,1,onetwo,,,,,,,,,,,,,,,,,,,,,,,,,,,,,,,,,,,,,,,,,,,,,,,,,,,,,,,,,,,,,,,,,,,,,,,,,,,,,,,,,,,,,,,,,,,,,,,,,,,,,,,,,,,,,,,,,,,,,,,,,,,,,,,,,,,,,,,,,
,,612742541c10c193688cea34,2024-02-18_23h11.08.369,kallum_motion_pilot,2023.2.2,Win32,144.092219,612742541c10c193688cea34,65d2b6c8f2eece985d8e374c,65d2b8a00a1be5246173640d,0.025,0.025,1,94,256,42,1,twoone,,,,,,,,,,,,,,,,,,,,,,,,,,,,,,,,,,,,,,,,,,,,,,,,,,,,,,,,,,,,,,,,,,,,,,,,,,,,,,,,,,,,,,,,,,,,,,,,,,,,,,,,,,,,,,,,,,,,,,,,,,,,,,,,,,,,,,,,,
,,612742541c10c193688cea34,2024-02-18_23h11.08.369,kallum_motion_pilot,2023.2.2,Win32,144.092219,612742541c10c193688cea34,65d2b6c8f2eece985d8e374c,65d2b8a00a1be5246173640d,0.025,0.025,1,95,257,40,1,onetwo,,,,,,,,,,,,,,,,,,,,,,,,,,,,,,,,,,,,,,,,,,,,,,,,,,,,,,,,,,,,,,,,,,,,,,,,,,,,,,,,,,,,,,,,,,,,,,,,,,,,,,,,,,,,,,,,,,,,,,,,,,,,,,,,,,,,,,,,,
,,612742541c10c193688cea34,2024-02-18_23h11.08.369,kallum_motion_pilot,2023.2.2,Win32,144.092219,612742541c10c193688cea34,65d2b6c8f2eece985d8e374c,65d2b8a00a1be5246173640d,0.025,0.025,1,96,258,98,1,sixfive,,,,,,,,,,,,,,,,,,,,,,,,,,,,,,,,,,,,,,,,,,,,,,,,,,,,,,,,,,,,,,,,,,,,,,,,,,,,,,,,,,,,,,,,,,,,,,,,,,,,,,,,,,,,,,,,,,,,,,,,,,,,,,,,,,,,,,,,,
,,612742541c10c193688cea34,2024-02-18_23h11.08.369,kallum_motion_pilot,2023.2.2,Win32,144.092219,612742541c10c193688cea34,65d2b6c8f2eece985d8e374c,65d2b8a00a1be5246173640d,0.025,0.025,1,97,259,16,1,onetwo,,,,,,,,,,,,,,,,,,,,,,,,,,,,,,,,,,,,,,,,,,,,,,,,,,,,,,,,,,,,,,,,,,,,,,,,,,,,,,,,,,,,,,,,,,,,,,,,,,,,,,,,,,,,,,,,,,,,,,,,,,,,,,,,,,,,,,,,,
,,612742541c10c193688cea34,2024-02-18_23h11.08.369,kallum_motion_pilot,2023.2.2,Win32,144.092219,612742541c10c193688cea34,65d2b6c8f2eece985d8e374c,65d2b8a00a1be5246173640d,0.025,0.025,1,98,260,56,1,onetwo,,,,,,,,,,,,,,,,,,,,,,,,,,,,,,,,,,,,,,,,,,,,,,,,,,,,,,,,,,,,,,,,,,,,,,,,,,,,,,,,,,,,,,,,,,,,,,,,,,,,,,,,,,,,,,,,,,,,,,,,,,,,,,,,,,,,,,,,,
,,612742541c10c193688cea34,2024-02-18_23h11.08.369,kallum_motion_pilot,2023.2.2,Win32,144.092219,612742541c10c193688cea34,65d2b6c8f2eece985d8e374c,65d2b8a00a1be5246173640d,0.025,0.025,1,99,261,155,1,sixeight,,,,,,,,,,,,,,,,,,,,,,,,,,,,,,,,,,,,,,,,,,,,,,,,,,,,,,,,,,,,,,,,,,,,,,,,,,,,,,,,,,,,,,,,,,,,,,,,,,,,,,,,,,,,,,,,,,,,,,,,,,,,,,,,,,,,,,,,,
,,612742541c10c193688cea34,2024-02-18_23h11.08.369,kallum_motion_pilot,2023.2.2,Win32,144.092219,612742541c10c193688cea34,65d2b6c8f2eece985d8e374c,65d2b8a00a1be5246173640d,0.025,0.025,1,100,262,43,1,twofour,,,,,,,,,,,,,,,,,,,,,,,,,,,,,,,,,,,,,,,,,,,,,,,,,,,,,,,,,,,,,,,,,,,,,,,,,,,,,,,,,,,,,,,,,,,,,,,,,,,,,,,,,,,,,,,,,,,,,,,,,,,,,,,,,,,,,,,,,
,,612742541c10c193688cea34,2024-02-18_23h11.08.369,kallum_motion_pilot,2023.2.2,Win32,144.092219,612742541c10c193688cea34,65d2b6c8f2eece985d8e374c,65d2b8a00a1be5246173640d,0.025,0.025,1,101,263,122,1,sixfive,,,,,,,,,,,,,,,,,,,,,,,,,,,,,,,,,,,,,,,,,,,,,,,,,,,,,,,,,,,,,,,,,,,,,,,,,,,,,,,,,,,,,,,,,,,,,,,,,,,,,,,,,,,,,,,,,,,,,,,,,,,,,,,,,,,,,,,,,
,,612742541c10c193688cea34,2024-02-18_23h11.08.369,kallum_motion_pilot,2023.2.2,Win32,144.092219,612742541c10c193688cea34,65d2b6c8f2eece985d8e374c,65d2b8a00a1be5246173640d,0.025,0.025,1,102,264,149,1,seveneight,,,,,,,,,,,,,,,,,,,,,,,,,,,,,,,,,,,,,,,,,,,,,,,,,,,,,,,,,,,,,,,,,,,,,,,,,,,,,,,,,,,,,,,,,,,,,,,,,,,,,,,,,,,,,,,,,,,,,,,,,,,,,,,,,,,,,,,,,
,,612742541c10c193688cea34,2024-02-18_23h11.08.369,kallum_motion_pilot,2023.2.2,Win32,144.092219,612742541c10c193688cea34,65d2b6c8f2eece985d8e374c,65d2b8a00a1be5246173640d,0.025,0.025,1,103,265,32,1,onetwo,,,,,,,,,,,,,,,,,,,,,,,,,,,,,,,,,,,,,,,,,,,,,,,,,,,,,,,,,,,,,,,,,,,,,,,,,,,,,,,,,,,,,,,,,,,,,,,,,,,,,,,,,,,,,,,,,,,,,,,,,,,,,,,,,,,,,,,,,
,,612742541c10c193688cea34,2024-02-18_23h11.08.369,kallum_motion_pilot,2023.2.2,Win32,144.092219,612742541c10c193688cea34,65d2b6c8f2eece985d8e374c,65d2b8a00a1be5246173640d,0.025,0.025,1,104,266,97,1,fiveseven,,,,,,,,,,,,,,,,,,,,,,,,,,,,,,,,,,,,,,,,,,,,,,,,,,,,,,,,,,,,,,,,,,,,,,,,,,,,,,,,,,,,,,,,,,,,,,,,,,,,,,,,,,,,,,,,,,,,,,,,,,,,,,,,,,,,,,,,,
,,612742541c10c193688cea34,2024-02-18_23h11.08.369,kallum_motion_pilot,2023.2.2,Win32,144.092219,612742541c10c193688cea34,65d2b6c8f2eece985d8e374c,65d2b8a00a1be5246173640d,0.025,0.025,1,105,267,94,1,eightsix,,,,,,,,,,,,,,,,,,,,,,,,,,,,,,,,,,,,,,,,,,,,,,,,,,,,,,,,,,,,,,,,,,,,,,,,,,,,,,,,,,,,,,,,,,,,,,,,,,,,,,,,,,,,,,,,,,,,,,,,,,,,,,,,,,,,,,,,,
,,612742541c10c193688cea34,2024-02-18_23h11.08.369,kallum_motion_pilot,2023.2.2,Win32,144.092219,612742541c10c193688cea34,65d2b6c8f2eece985d8e374c,65d2b8a00a1be5246173640d,0.026,0.026,1,106,268,130,1,sixfive,,,,,,,,,,,,,,,,,,,,,,,,,,,,,,,,,,,,,,,,,,,,,,,,,,,,,,,,,,,,,,,,,,,,,,,,,,,,,,,,,,,,,,,,,,,,,,,,,,,,,,,,,,,,,,,,,,,,,,,,,,,,,,,,,,,,,,,,,
,,612742541c10c193688cea34,2024-02-18_23h11.08.369,kallum_motion_pilot,2023.2.2,Win32,144.092219,612742541c10c193688cea34,65d2b6c8f2eece985d8e374c,65d2b8a00a1be5246173640d,0.026,0.026,1,107,269,79,1,eightseven,,,,,,,,,,,,,,,,,,,,,,,,,,,,,,,,,,,,,,,,,,,,,,,,,,,,,,,,,,,,,,,,,,,,,,,,,,,,,,,,,,,,,,,,,,,,,,,,,,,,,,,,,,,,,,,,,,,,,,,,,,,,,,,,,,,,,,,,,
,,612742541c10c193688cea34,2024-02-18_23h11.08.369,kallum_motion_pilot,2023.2.2,Win32,144.092219,612742541c10c193688cea34,65d2b6c8f2eece985d8e374c,65d2b8a00a1be5246173640d,0.026,0.026,1,108,270,41,1,onethree,,,,,,,,,,,,,,,,,,,,,,,,,,,,,,,,,,,,,,,,,,,,,,,,,,,,,,,,,,,,,,,,,,,,,,,,,,,,,,,,,,,,,,,,,,,,,,,,,,,,,,,,,,,,,,,,,,,,,,,,,,,,,,,,,,,,,,,,,
,,612742541c10c193688cea34,2024-02-18_23h11.08.369,kallum_motion_pilot,2023.2.2,Win32,144.092219,612742541c10c193688cea34,65d2b6c8f2eece985d8e374c,65d2b8a00a1be5246173640d,0.027,0.027,1,109,271,144,1,fivesix,,,,,,,,,,,,,,,,,,,,,,,,,,,,,,,,,,,,,,,,,,,,,,,,,,,,,,,,,,,,,,,,,,,,,,,,,,,,,,,,,,,,,,,,,,,,,,,,,,,,,,,,,,,,,,,,,,,,,,,,,,,,,,,,,,,,,,,,,
,,612742541c10c193688cea34,2024-02-18_23h11.08.369,kallum_motion_pilot,2023.2.2,Win32,144.092219,612742541c10c193688cea34,65d2b6c8f2eece985d8e374c,65d2b8a00a1be5246173640d,0.027,0.027,1,110,272,15,1,fourthree,,,,,,,,,,,,,,,,,,,,,,,,,,,,,,,,,,,,,,,,,,,,,,,,,,,,,,,,,,,,,,,,,,,,,,,,,,,,,,,,,,,,,,,,,,,,,,,,,,,,,,,,,,,,,,,,,,,,,,,,,,,,,,,,,,,,,,,,,
,,612742541c10c193688cea34,2024-02-18_23h11.08.369,kallum_motion_pilot,2023.2.2,Win32,144.092219,612742541c10c193688cea34,65d2b6c8f2eece985d8e374c,65d2b8a00a1be5246173640d,0.027,0.027,1,111,273,11,1,twofour,,,,,,,,,,,,,,,,,,,,,,,,,,,,,,,,,,,,,,,,,,,,,,,,,,,,,,,,,,,,,,,,,,,,,,,,,,,,,,,,,,,,,,,,,,,,,,,,,,,,,,,,,,,,,,,,,,,,,,,,,,,,,,,,,,,,,,,,,
,,612742541c10c193688cea34,2024-02-18_23h11.08.369,kallum_motion_pilot,2023.2.2,Win32,144.092219,612742541c10c193688cea34,65d2b6c8f2eece985d8e374c,65d2b8a00a1be5246173640d,0.027,0.027,1,112,274,60,1,threeone,,,,,,,,,,,,,,,,,,,,,,,,,,,,,,,,,,,,,,,,,,,,,,,,,,,,,,,,,,,,,,,,,,,,,,,,,,,,,,,,,,,,,,,,,,,,,,,,,,,,,,,,,,,,,,,,,,,,,,,,,,,,,,,,,,,,,,,,,
,,612742541c10c193688cea34,2024-02-18_23h11.08.369,kallum_motion_pilot,2023.2.2,Win32,144.092219,612742541c10c193688cea34,65d2b6c8f2eece985d8e374c,65d2b8a00a1be5246173640d,0.027,0.027,1,113,275,109,1,seveneight,,,,,,,,,,,,,,,,,,,,,,,,,,,,,,,,,,,,,,,,,,,,,,,,,,,,,,,,,,,,,,,,,,,,,,,,,,,,,,,,,,,,,,,,,,,,,,,,,,,,,,,,,,,,,,,,,,,,,,,,,,,,,,,,,,,,,,,,,
,,612742541c10c193688cea34,2024-02-18_23h11.08.369,kallum_motion_pilot,2023.2.2,Win32,144.092219,612742541c10c193688cea34,65d2b6c8f2eece985d8e374c,65d2b8a00a1be5246173640d,0.027,0.027,1,114,276,118,1,eightsix,,,,,,,,,,,,,,,,,,,,,,,,,,,,,,,,,,,,,,,,,,,,,,,,,,,,,,,,,,,,,,,,,,,,,,,,,,,,,,,,,,,,,,,,,,,,,,,,,,,,,,,,,,,,,,,,,,,,,,,,,,,,,,,,,,,,,,,,,
,,612742541c10c193688cea34,2024-02-18_23h11.08.369,kallum_motion_pilot,2023.2.2,Win32,144.092219,612742541c10c193688cea34,65d2b6c8f2eece985d8e374c,65d2b8a00a1be5246173640d,0.027,0.027,1,115,277,27,1,twofour,,,,,,,,,,,,,,,,,,,,,,,,,,,,,,,,,,,,,,,,,,,,,,,,,,,,,,,,,,,,,,,,,,,,,,,,,,,,,,,,,,,,,,,,,,,,,,,,,,,,,,,,,,,,,,,,,,,,,,,,,,,,,,,,,,,,,,,,,
,,612742541c10c193688cea34,2024-02-18_23h11.08.369,kallum_motion_pilot,2023.2.2,Win32,144.092219,612742541c10c193688cea34,65d2b6c8f2eece985d8e374c,65d2b8a00a1be5246173640d,0.027,0.027,1,116,278,147,1,sixeight,,,,,,,,,,,,,,,,,,,,,,,,,,,,,,,,,,,,,,,,,,,,,,,,,,,,,,,,,,,,,,,,,,,,,,,,,,,,,,,,,,,,,,,,,,,,,,,,,,,,,,,,,,,,,,,,,,,,,,,,,,,,,,,,,,,,,,,,,
,,612742541c10c193688cea34,2024-02-18_23h11.08.369,kallum_motion_pilot,2023.2.2,Win32,144.092219,612742541c10c193688cea34,65d2b6c8f2eece985d8e374c,65d2b8a00a1be5246173640d,0.027,0.027,1,117,279,49,1,onethree,,,,,,,,,,,,,,,,,,,,,,,,,,,,,,,,,,,,,,,,,,,,,,,,,,,,,,,,,,,,,,,,,,,,,,,,,,,,,,,,,,,,,,,,,,,,,,,,,,,,,,,,,,,,,,,,,,,,,,,,,,,,,,,,,,,,,,,,,
