startup.started,startup.stopped,Prolific ID*,date,expName,psychopyVersion,OS,frameRate,participant,study_id,session,stimpositions.started,stimpositions.stopped,hardcoded_stimulus_positions.thisRepN,hardcoded_stimulus_positions.thisTrialN,hardcoded_stimulus_positions.thisN,hardcoded_stimulus_positions.thisIndex,hardcoded_stimulus_positions.ran,StimulusPos,stimorientation.started,stimorientation.stopped,prac_stimorientation_import_loop.thisRepN,prac_stimorientation_import_loop.thisTrialN,prac_stimorientation_import_loop.thisN,prac_stimorientation_import_loop.thisIndex,prac_stimorientation_import_loop.ran,Stimorientation,welcome_instr.started,welcome_instr.stopped,key_resp.keys,key_resp.rt,key_resp.duration,response_steppedout_1.started,response_steppedout_1.stopped,key_resp_20.keys,key_resp_20.rt,key_resp_20.duration,response_steppedout_2.started,response_steppedout_2.stopped,key_resp_19.keys,key_resp_19.rt,key_resp_19.duration,stim_response_instr.started,stim_response_instr.stopped,key_resp_15.keys,key_resp_15.rt,key_resp_15.duration,direction_instr_2.started,direction_instr_2.stopped,key_resp_9.keys,key_resp_9.rt,key_resp_9.duration,instr_prac.started,instr_prac.stopped,key_resp_10.keys,key_resp_10.rt,key_resp_10.duration,Stim1_display_prac.started,Stim1_display_prac.stopped,Ecc,Circle1_ori,Circle2_ori,response_prac.started,similarity,response_time,response_prac.stopped,mouse_5.x,mouse_5.y,mouse_5.leftButton,mouse_5.midButton,mouse_5.rightButton,mouse_5.clicked_name,responseprac_feedback.started,responseprac_feedback.stopped,summary2_prac.started,summary2_prac.stopped,mouse_6.x,mouse_6.y,mouse_6.leftButton,mouse_6.midButton,mouse_6.rightButton,mouse_6.clicked_name,duringprac.thisRepN,duringprac.thisTrialN,duringprac.thisN,duringprac.thisIndex,duringprac.ran,begin.started,begin.stopped,key_resp_22.keys,key_resp_22.rt,key_resp_22.duration,Stim1_display.started,Stim1_display.stopped,circle1_ori,circle2_ori,circle1_SF,circle2_SF,response.started,response.stopped,mouse.x,mouse.y,mouse.leftButton,mouse.midButton,mouse.rightButton,mouse.clicked_name,trialnumber,double_pass.thisRepN,double_pass.thisTrialN,double_pass.thisN,double_pass.thisIndex,double_pass.ran,double_pass.order,main_trial.thisRepN,main_trial.thisTrialN,main_trial.thisN,main_trial.thisIndex,main_trial.ran,main_trial.order,Trial_Counter,Catch,Frequencies,response_2.started,response_2.stopped,mouse_2.x,mouse_2.y,mouse_2.leftButton,mouse_2.midButton,mouse_2.rightButton,mouse_2.clicked_name,special_trial.started,special_trial.stopped,catch_1.started,catch_1.stopped,mouse_3.x,mouse_3.y,mouse_3.leftButton,mouse_3.midButton,mouse_3.rightButton,catchresponse,catchnumber,response_time_catch,response_sum.started,response_sum.stopped,mouse_11.x,mouse_11.y,mouse_11.leftButton,mouse_11.midButton,mouse_11.rightButton,flip_presentation_sequence_for_double_pass.started,flip_presentation_sequence_for_double_pass.stopped,goodbye.started,goodbye.stopped,key_resp_3.keys,key_resp_3.rt,key_resp_3.duration
0.0003,0.0004,61300c2d5a36876db1251ff5,2024-02-21_20h19.12.079,kallum_motion_pilot,2023.2.2,Win32,59.88023952,61300c2d5a36876db1251ff5,65d6bb0e977760de756971f7,65d6bd0f97543519d98f2746,,,,,,,,,,,,,,,,,,,,,,,,,,,,,,,,,,,,,,,,,,,,,,,,,,,,,,,,,,,,,,,,,,,,,,,,,,,,,,,,,,,,,,,,,,,,,,,,,,,,,,,,,,,,,,,,,,,,,,,,,,,,,,,,,,,,,,,,,,,,,,,,,
,,61300c2d5a36876db1251ff5,2024-02-21_20h19.12.079,kallum_motion_pilot,2023.2.2,Win32,59.88023952,61300c2d5a36876db1251ff5,65d6bb0e977760de756971f7,65d6bd0f97543519d98f2746,0.0281,0.0282,0,0,0,0,1,onetwo,,,,,,,,,,,,,,,,,,,,,,,,,,,,,,,,,,,,,,,,,,,,,,,,,,,,,,,,,,,,,,,,,,,,,,,,,,,,,,,,,,,,,,,,,,,,,,,,,,,,,,,,,,,,,,,,,,,,,,,,,,,,,,,,,,,,,,,,,
,,61300c2d5a36876db1251ff5,2024-02-21_20h19.12.079,kallum_motion_pilot,2023.2.2,Win32,59.88023952,61300c2d5a36876db1251ff5,65d6bb0e977760de756971f7,65d6bd0f97543519d98f2746,0.0285,0.0285,0,1,1,26,1,twoone,,,,,,,,,,,,,,,,,,,,,,,,,,,,,,,,,,,,,,,,,,,,,,,,,,,,,,,,,,,,,,,,,,,,,,,,,,,,,,,,,,,,,,,,,,,,,,,,,,,,,,,,,,,,,,,,,,,,,,,,,,,,,,,,,,,,,,,,,
,,61300c2d5a36876db1251ff5,2024-02-21_20h19.12.079,kallum_motion_pilot,2023.2.2,Win32,59.88023952,61300c2d5a36876db1251ff5,65d6bb0e977760de756971f7,65d6bd0f97543519d98f2746,0.0287,0.0287,0,2,2,85,1,seveneight,,,,,,,,,,,,,,,,,,,,,,,,,,,,,,,,,,,,,,,,,,,,,,,,,,,,,,,,,,,,,,,,,,,,,,,,,,,,,,,,,,,,,,,,,,,,,,,,,,,,,,,,,,,,,,,,,,,,,,,,,,,,,,,,,,,,,,,,,
,,61300c2d5a36876db1251ff5,2024-02-21_20h19.12.079,kallum_motion_pilot,2023.2.2,Win32,59.88023952,61300c2d5a36876db1251ff5,65d6bb0e977760de756971f7,65d6bd0f97543519d98f2746,0.0289,0.0289,0,3,3,28,1,threeone,,,,,,,,,,,,,,,,,,,,,,,,,,,,,,,,,,,,,,,,,,,,,,,,,,,,,,,,,,,,,,,,,,,,,,,,,,,,,,,,,,,,,,,,,,,,,,,,,,,,,,,,,,,,,,,,,,,,,,,,,,,,,,,,,,,,,,,,,
,,61300c2d5a36876db1251ff5,2024-02-21_20h19.12.079,kallum_motion_pilot,2023.2.2,Win32,59.88023952,61300c2d5a36876db1251ff5,65d6bb0e977760de756971f7,65d6bd0f97543519d98f2746,0.029,0.0291,0,4,4,116,1,sevenfive,,,,,,,,,,,,,,,,,,,,,,,,,,,,,,,,,,,,,,,,,,,,,,,,,,,,,,,,,,,,,,,,,,,,,,,,,,,,,,,,,,,,,,,,,,,,,,,,,,,,,,,,,,,,,,,,,,,,,,,,,,,,,,,,,,,,,,,,,
,,61300c2d5a36876db1251ff5,2024-02-21_20h19.12.079,kallum_motion_pilot,2023.2.2,Win32,59.88023952,61300c2d5a36876db1251ff5,65d6bb0e977760de756971f7,65d6bd0f97543519d98f2746,0.0292,0.0292,0,5,5,113,1,fiveseven,,,,,,,,,,,,,,,,,,,,,,,,,,,,,,,,,,,,,,,,,,,,,,,,,,,,,,,,,,,,,,,,,,,,,,,,,,,,,,,,,,,,,,,,,,,,,,,,,,,,,,,,,,,,,,,,,,,,,,,,,,,,,,,,,,,,,,,,,
,,61300c2d5a36876db1251ff5,2024-02-21_20h19.12.079,kallum_motion_pilot,2023.2.2,Win32,59.88023952,61300c2d5a36876db1251ff5,65d6bb0e977760de756971f7,65d6bd0f97543519d98f2746,0.0293,0.0293,0,6,6,158,1,eightsix,,,,,,,,,,,,,,,,,,,,,,,,,,,,,,,,,,,,,,,,,,,,,,,,,,,,,,,,,,,,,,,,,,,,,,,,,,,,,,,,,,,,,,,,,,,,,,,,,,,,,,,,,,,,,,,,,,,,,,,,,,,,,,,,,,,,,,,,,
,,61300c2d5a36876db1251ff5,2024-02-21_20h19.12.079,kallum_motion_pilot,2023.2.2,Win32,59.88023952,61300c2d5a36876db1251ff5,65d6bb0e977760de756971f7,65d6bd0f97543519d98f2746,0.0293,0.0293,0,7,7,94,1,eightsix,,,,,,,,,,,,,,,,,,,,,,,,,,,,,,,,,,,,,,,,,,,,,,,,,,,,,,,,,,,,,,,,,,,,,,,,,,,,,,,,,,,,,,,,,,,,,,,,,,,,,,,,,,,,,,,,,,,,,,,,,,,,,,,,,,,,,,,,,
,,61300c2d5a36876db1251ff5,2024-02-21_20h19.12.079,kallum_motion_pilot,2023.2.2,Win32,59.88023952,61300c2d5a36876db1251ff5,65d6bb0e977760de756971f7,65d6bd0f97543519d98f2746,0.0295,0.0295,0,8,8,73,1,onethree,,,,,,,,,,,,,,,,,,,,,,,,,,,,,,,,,,,,,,,,,,,,,,,,,,,,,,,,,,,,,,,,,,,,,,,,,,,,,,,,,,,,,,,,,,,,,,,,,,,,,,,,,,,,,,,,,,,,,,,,,,,,,,,,,,,,,,,,,
,,61300c2d5a36876db1251ff5,2024-02-21_20h19.12.079,kallum_motion_pilot,2023.2.2,Win32,59.88023952,61300c2d5a36876db1251ff5,65d6bb0e977760de756971f7,65d6bd0f97543519d98f2746,0.0296,0.0296,0,9,9,37,1,threefour,,,,,,,,,,,,,,,,,,,,,,,,,,,,,,,,,,,,,,,,,,,,,,,,,,,,,,,,,,,,,,,,,,,,,,,,,,,,,,,,,,,,,,,,,,,,,,,,,,,,,,,,,,,,,,,,,,,,,,,,,,,,,,,,,,,,,,,,,
,,61300c2d5a36876db1251ff5,2024-02-21_20h19.12.079,kallum_motion_pilot,2023.2.2,Win32,59.88023952,61300c2d5a36876db1251ff5,65d6bb0e977760de756971f7,65d6bd0f97543519d98f2746,0.0296,0.0296,0,10,10,114,1,sixfive,,,,,,,,,,,,,,,,,,,,,,,,,,,,,,,,,,,,,,,,,,,,,,,,,,,,,,,,,,,,,,,,,,,,,,,,,,,,,,,,,,,,,,,,,,,,,,,,,,,,,,,,,,,,,,,,,,,,,,,,,,,,,,,,,,,,,,,,,
,,61300c2d5a36876db1251ff5,2024-02-21_20h19.12.079,kallum_motion_pilot,2023.2.2,Win32,59.88023952,61300c2d5a36876db1251ff5,65d6bb0e977760de756971f7,65d6bd0f97543519d98f2746,0.0297,0.0298,0,11,11,133,1,seveneight,,,,,,,,,,,,,,,,,,,,,,,,,,,,,,,,,,,,,,,,,,,,,,,,,,,,,,,,,,,,,,,,,,,,,,,,,,,,,,,,,,,,,,,,,,,,,,,,,,,,,,,,,,,,,,,,,,,,,,,,,,,,,,,,,,,,,,,,,
,,61300c2d5a36876db1251ff5,2024-02-21_20h19.12.079,kallum_motion_pilot,2023.2.2,Win32,59.88023952,61300c2d5a36876db1251ff5,65d6bb0e977760de756971f7,65d6bd0f97543519d98f2746,0.0298,0.0299,0,12,12,43,1,twofour,,,,,,,,,,,,,,,,,,,,,,,,,,,,,,,,,,,,,,,,,,,,,,,,,,,,,,,,,,,,,,,,,,,,,,,,,,,,,,,,,,,,,,,,,,,,,,,,,,,,,,,,,,,,,,,,,,,,,,,,,,,,,,,,,,,,,,,,,
,,61300c2d5a36876db1251ff5,2024-02-21_20h19.12.079,kallum_motion_pilot,2023.2.2,Win32,59.88023952,61300c2d5a36876db1251ff5,65d6bb0e977760de756971f7,65d6bd0f97543519d98f2746,0.03,0.03,0,13,13,106,1,sixfive,,,,,,,,,,,,,,,,,,,,,,,,,,,,,,,,,,,,,,,,,,,,,,,,,,,,,,,,,,,,,,,,,,,,,,,,,,,,,,,,,,,,,,,,,,,,,,,,,,,,,,,,,,,,,,,,,,,,,,,,,,,,,,,,,,,,,,,,,
,,61300c2d5a36876db1251ff5,2024-02-21_20h19.12.079,kallum_motion_pilot,2023.2.2,Win32,59.88023952,61300c2d5a36876db1251ff5,65d6bb0e977760de756971f7,65d6bd0f97543519d98f2746,0.0301,0.0301,0,14,14,39,1,fourthree,,,,,,,,,,,,,,,,,,,,,,,,,,,,,,,,,,,,,,,,,,,,,,,,,,,,,,,,,,,,,,,,,,,,,,,,,,,,,,,,,,,,,,,,,,,,,,,,,,,,,,,,,,,,,,,,,,,,,,,,,,,,,,,,,,,,,,,,,
,,61300c2d5a36876db1251ff5,2024-02-21_20h19.12.079,kallum_motion_pilot,2023.2.2,Win32,59.88023952,61300c2d5a36876db1251ff5,65d6bb0e977760de756971f7,65d6bd0f97543519d98f2746,0.0301,0.0301,0,15,15,81,1,fiveseven,,,,,,,,,,,,,,,,,,,,,,,,,,,,,,,,,,,,,,,,,,,,,,,,,,,,,,,,,,,,,,,,,,,,,,,,,,,,,,,,,,,,,,,,,,,,,,,,,,,,,,,,,,,,,,,,,,,,,,,,,,,,,,,,,,,,,,,,,
,,61300c2d5a36876db1251ff5,2024-02-21_20h19.12.079,kallum_motion_pilot,2023.2.2,Win32,59.88023952,61300c2d5a36876db1251ff5,65d6bb0e977760de756971f7,65d6bd0f97543519d98f2746,0.0303,0.0303,0,16,16,59,1,twofour,,,,,,,,,,,,,,,,,,,,,,,,,,,,,,,,,,,,,,,,,,,,,,,,,,,,,,,,,,,,,,,,,,,,,,,,,,,,,,,,,,,,,,,,,,,,,,,,,,,,,,,,,,,,,,,,,,,,,,,,,,,,,,,,,,,,,,,,,
,,61300c2d5a36876db1251ff5,2024-02-21_20h19.12.079,kallum_motion_pilot,2023.2.2,Win32,59.88023952,61300c2d5a36876db1251ff5,65d6bb0e977760de756971f7,65d6bd0f97543519d98f2746,0.0303,0.0304,0,17,17,61,1,threefour,,,,,,,,,,,,,,,,,,,,,,,,,,,,,,,,,,,,,,,,,,,,,,,,,,,,,,,,,,,,,,,,,,,,,,,,,,,,,,,,,,,,,,,,,,,,,,,,,,,,,,,,,,,,,,,,,,,,,,,,,,,,,,,,,,,,,,,,,
,,61300c2d5a36876db1251ff5,2024-02-21_20h19.12.079,kallum_motion_pilot,2023.2.2,Win32,59.88023952,61300c2d5a36876db1251ff5,65d6bb0e977760de756971f7,65d6bd0f97543519d98f2746,0.0304,0.0305,0,18,18,150,1,eightsix,,,,,,,,,,,,,,,,,,,,,,,,,,,,,,,,,,,,,,,,,,,,,,,,,,,,,,,,,,,,,,,,,,,,,,,,,,,,,,,,,,,,,,,,,,,,,,,,,,,,,,,,,,,,,,,,,,,,,,,,,,,,,,,,,,,,,,,,,
,,61300c2d5a36876db1251ff5,2024-02-21_20h19.12.079,kallum_motion_pilot,2023.2.2,Win32,59.88023952,61300c2d5a36876db1251ff5,65d6bb0e977760de756971f7,65d6bd0f97543519d98f2746,0.0306,0.0306,0,19,19,58,1,twoone,,,,,,,,,,,,,,,,,,,,,,,,,,,,,,,,,,,,,,,,,,,,,,,,,,,,,,,,,,,,,,,,,,,,,,,,,,,,,,,,,,,,,,,,,,,,,,,,,,,,,,,,,,,,,,,,,,,,,,,,,,,,,,,,,,,,,,,,,
,,61300c2d5a36876db1251ff5,2024-02-21_20h19.12.079,kallum_motion_pilot,2023.2.2,Win32,59.88023952,61300c2d5a36876db1251ff5,65d6bb0e977760de756971f7,65d6bd0f97543519d98f2746,0.0307,0.0307,0,20,20,131,1,sixeight,,,,,,,,,,,,,,,,,,,,,,,,,,,,,,,,,,,,,,,,,,,,,,,,,,,,,,,,,,,,,,,,,,,,,,,,,,,,,,,,,,,,,,,,,,,,,,,,,,,,,,,,,,,,,,,,,,,,,,,,,,,,,,,,,,,,,,,,,
,,61300c2d5a36876db1251ff5,2024-02-21_20h19.12.079,kallum_motion_pilot,2023.2.2,Win32,59.88023952,61300c2d5a36876db1251ff5,65d6bb0e977760de756971f7,65d6bd0f97543519d98f2746,0.0308,0.0308,0,21,21,52,1,threeone,,,,,,,,,,,,,,,,,,,,,,,,,,,,,,,,,,,,,,,,,,,,,,,,,,,,,,,,,,,,,,,,,,,,,,,,,,,,,,,,,,,,,,,,,,,,,,,,,,,,,,,,,,,,,,,,,,,,,,,,,,,,,,,,,,,,,,,,,
,,61300c2d5a36876db1251ff5,2024-02-21_20h19.12.079,kallum_motion_pilot,2023.2.2,Win32,59.88023952,61300c2d5a36876db1251ff5,65d6bb0e977760de756971f7,65d6bd0f97543519d98f2746,0.0309,0.0309,0,22,22,138,1,sixfive,,,,,,,,,,,,,,,,,,,,,,,,,,,,,,,,,,,,,,,,,,,,,,,,,,,,,,,,,,,,,,,,,,,,,,,,,,,,,,,,,,,,,,,,,,,,,,,,,,,,,,,,,,,,,,,,,,,,,,,,,,,,,,,,,,,,,,,,,
,,61300c2d5a36876db1251ff5,2024-02-21_20h19.12.079,kallum_motion_pilot,2023.2.2,Win32,59.88023952,61300c2d5a36876db1251ff5,65d6bb0e977760de756971f7,65d6bd0f97543519d98f2746,0.031,0.031,0,23,23,126,1,eightsix,,,,,,,,,,,,,,,,,,,,,,,,,,,,,,,,,,,,,,,,,,,,,,,,,,,,,,,,,,,,,,,,,,,,,,,,,,,,,,,,,,,,,,,,,,,,,,,,,,,,,,,,,,,,,,,,,,,,,,,,,,,,,,,,,,,,,,,,,
,,61300c2d5a36876db1251ff5,2024-02-21_20h19.12.079,kallum_motion_pilot,2023.2.2,Win32,59.88023952,61300c2d5a36876db1251ff5,65d6bb0e977760de756971f7,65d6bd0f97543519d98f2746,0.0311,0.0311,0,24,24,130,1,sixfive,,,,,,,,,,,,,,,,,,,,,,,,,,,,,,,,,,,,,,,,,,,,,,,,,,,,,,,,,,,,,,,,,,,,,,,,,,,,,,,,,,,,,,,,,,,,,,,,,,,,,,,,,,,,,,,,,,,,,,,,,,,,,,,,,,,,,,,,,
,,61300c2d5a36876db1251ff5,2024-02-21_20h19.12.079,kallum_motion_pilot,2023.2.2,Win32,59.88023952,61300c2d5a36876db1251ff5,65d6bb0e977760de756971f7,65d6bd0f97543519d98f2746,0.0312,0.0312,0,25,25,18,1,twoone,,,,,,,,,,,,,,,,,,,,,,,,,,,,,,,,,,,,,,,,,,,,,,,,,,,,,,,,,,,,,,,,,,,,,,,,,,,,,,,,,,,,,,,,,,,,,,,,,,,,,,,,,,,,,,,,,,,,,,,,,,,,,,,,,,,,,,,,,
,,61300c2d5a36876db1251ff5,2024-02-21_20h19.12.079,kallum_motion_pilot,2023.2.2,Win32,59.88023952,61300c2d5a36876db1251ff5,65d6bb0e977760de756971f7,65d6bd0f97543519d98f2746,0.0313,0.0313,0,26,26,32,1,onetwo,,,,,,,,,,,,,,,,,,,,,,,,,,,,,,,,,,,,,,,,,,,,,,,,,,,,,,,,,,,,,,,,,,,,,,,,,,,,,,,,,,,,,,,,,,,,,,,,,,,,,,,,,,,,,,,,,,,,,,,,,,,,,,,,,,,,,,,,,
,,61300c2d5a36876db1251ff5,2024-02-21_20h19.12.079,kallum_motion_pilot,2023.2.2,Win32,59.88023952,61300c2d5a36876db1251ff5,65d6bb0e977760de756971f7,65d6bd0f97543519d98f2746,0.0314,0.0314,0,27,27,153,1,fiveseven,,,,,,,,,,,,,,,,,,,,,,,,,,,,,,,,,,,,,,,,,,,,,,,,,,,,,,,,,,,,,,,,,,,,,,,,,,,,,,,,,,,,,,,,,,,,,,,,,,,,,,,,,,,,,,,,,,,,,,,,,,,,,,,,,,,,,,,,,
,,61300c2d5a36876db1251ff5,2024-02-21_20h19.12.079,kallum_motion_pilot,2023.2.2,Win32,59.88023952,61300c2d5a36876db1251ff5,65d6bb0e977760de756971f7,65d6bd0f97543519d98f2746,0.0315,0.0315,0,28,28,19,1,twofour,,,,,,,,,,,,,,,,,,,,,,,,,,,,,,,,,,,,,,,,,,,,,,,,,,,,,,,,,,,,,,,,,,,,,,,,,,,,,,,,,,,,,,,,,,,,,,,,,,,,,,,,,,,,,,,,,,,,,,,,,,,,,,,,,,,,,,,,,
,,61300c2d5a36876db1251ff5,2024-02-21_20h19.12.079,kallum_motion_pilot,2023.2.2,Win32,59.88023952,61300c2d5a36876db1251ff5,65d6bb0e977760de756971f7,65d6bd0f97543519d98f2746,0.0316,0.0316,0,29,29,86,1,eightsix,,,,,,,,,,,,,,,,,,,,,,,,,,,,,,,,,,,,,,,,,,,,,,,,,,,,,,,,,,,,,,,,,,,,,,,,,,,,,,,,,,,,,,,,,,,,,,,,,,,,,,,,,,,,,,,,,,,,,,,,,,,,,,,,,,,,,,,,,
,,61300c2d5a36876db1251ff5,2024-02-21_20h19.12.079,kallum_motion_pilot,2023.2.2,Win32,59.88023952,61300c2d5a36876db1251ff5,65d6bb0e977760de756971f7,65d6bd0f97543519d98f2746,0.0317,0.0317,0,30,30,139,1,sixeight,,,,,,,,,,,,,,,,,,,,,,,,,,,,,,,,,,,,,,,,,,,,,,,,,,,,,,,,,,,,,,,,,,,,,,,,,,,,,,,,,,,,,,,,,,,,,,,,,,,,,,,,,,,,,,,,,,,,,,,,,,,,,,,,,,,,,,,,,
,,61300c2d5a36876db1251ff5,2024-02-21_20h19.12.079,kallum_motion_pilot,2023.2.2,Win32,59.88023952,61300c2d5a36876db1251ff5,65d6bb0e977760de756971f7,65d6bd0f97543519d98f2746,0.0318,0.0318,0,31,31,14,1,fourtwo,,,,,,,,,,,,,,,,,,,,,,,,,,,,,,,,,,,,,,,,,,,,,,,,,,,,,,,,,,,,,,,,,,,,,,,,,,,,,,,,,,,,,,,,,,,,,,,,,,,,,,,,,,,,,,,,,,,,,,,,,,,,,,,,,,,,,,,,,
,,61300c2d5a36876db1251ff5,2024-02-21_20h19.12.079,kallum_motion_pilot,2023.2.2,Win32,59.88023952,61300c2d5a36876db1251ff5,65d6bb0e977760de756971f7,65d6bd0f97543519d98f2746,0.0318,0.0319,0,32,32,132,1,sevenfive,,,,,,,,,,,,,,,,,,,,,,,,,,,,,,,,,,,,,,,,,,,,,,,,,,,,,,,,,,,,,,,,,,,,,,,,,,,,,,,,,,,,,,,,,,,,,,,,,,,,,,,,,,,,,,,,,,,,,,,,,,,,,,,,,,,,,,,,,
,,61300c2d5a36876db1251ff5,2024-02-21_20h19.12.079,kallum_motion_pilot,2023.2.2,Win32,59.88023952,61300c2d5a36876db1251ff5,65d6bb0e977760de756971f7,65d6bd0f97543519d98f2746,0.032,0.032,0,33,33,115,1,sixeight,,,,,,,,,,,,,,,,,,,,,,,,,,,,,,,,,,,,,,,,,,,,,,,,,,,,,,,,,,,,,,,,,,,,,,,,,,,,,,,,,,,,,,,,,,,,,,,,,,,,,,,,,,,,,,,,,,,,,,,,,,,,,,,,,,,,,,,,,
,,61300c2d5a36876db1251ff5,2024-02-21_20h19.12.079,kallum_motion_pilot,2023.2.2,Win32,59.88023952,61300c2d5a36876db1251ff5,65d6bb0e977760de756971f7,65d6bd0f97543519d98f2746,0.032,0.0321,0,34,34,64,1,onetwo,,,,,,,,,,,,,,,,,,,,,,,,,,,,,,,,,,,,,,,,,,,,,,,,,,,,,,,,,,,,,,,,,,,,,,,,,,,,,,,,,,,,,,,,,,,,,,,,,,,,,,,,,,,,,,,,,,,,,,,,,,,,,,,,,,,,,,,,,
,,61300c2d5a36876db1251ff5,2024-02-21_20h19.12.079,kallum_motion_pilot,2023.2.2,Win32,59.88023952,61300c2d5a36876db1251ff5,65d6bb0e977760de756971f7,65d6bd0f97543519d98f2746,0.0322,0.0322,0,35,35,88,1,fivesix,,,,,,,,,,,,,,,,,,,,,,,,,,,,,,,,,,,,,,,,,,,,,,,,,,,,,,,,,,,,,,,,,,,,,,,,,,,,,,,,,,,,,,,,,,,,,,,,,,,,,,,,,,,,,,,,,,,,,,,,,,,,,,,,,,,,,,,,,
,,61300c2d5a36876db1251ff5,2024-02-21_20h19.12.079,kallum_motion_pilot,2023.2.2,Win32,59.88023952,61300c2d5a36876db1251ff5,65d6bb0e977760de756971f7,65d6bd0f97543519d98f2746,0.0323,0.0323,0,36,36,102,1,eightsix,,,,,,,,,,,,,,,,,,,,,,,,,,,,,,,,,,,,,,,,,,,,,,,,,,,,,,,,,,,,,,,,,,,,,,,,,,,,,,,,,,,,,,,,,,,,,,,,,,,,,,,,,,,,,,,,,,,,,,,,,,,,,,,,,,,,,,,,,
,,61300c2d5a36876db1251ff5,2024-02-21_20h19.12.079,kallum_motion_pilot,2023.2.2,Win32,59.88023952,61300c2d5a36876db1251ff5,65d6bb0e977760de756971f7,65d6bd0f97543519d98f2746,0.0324,0.0325,0,37,37,53,1,threefour,,,,,,,,,,,,,,,,,,,,,,,,,,,,,,,,,,,,,,,,,,,,,,,,,,,,,,,,,,,,,,,,,,,,,,,,,,,,,,,,,,,,,,,,,,,,,,,,,,,,,,,,,,,,,,,,,,,,,,,,,,,,,,,,,,,,,,,,,
,,61300c2d5a36876db1251ff5,2024-02-21_20h19.12.079,kallum_motion_pilot,2023.2.2,Win32,59.88023952,61300c2d5a36876db1251ff5,65d6bb0e977760de756971f7,65d6bd0f97543519d98f2746,0.0325,0.0326,0,38,38,107,1,sixeight,,,,,,,,,,,,,,,,,,,,,,,,,,,,,,,,,,,,,,,,,,,,,,,,,,,,,,,,,,,,,,,,,,,,,,,,,,,,,,,,,,,,,,,,,,,,,,,,,,,,,,,,,,,,,,,,,,,,,,,,,,,,,,,,,,,,,,,,,
,,61300c2d5a36876db1251ff5,2024-02-21_20h19.12.079,kallum_motion_pilot,2023.2.2,Win32,59.88023952,61300c2d5a36876db1251ff5,65d6bb0e977760de756971f7,65d6bd0f97543519d98f2746,0.0326,0.0326,0,39,39,95,1,eightseven,,,,,,,,,,,,,,,,,,,,,,,,,,,,,,,,,,,,,,,,,,,,,,,,,,,,,,,,,,,,,,,,,,,,,,,,,,,,,,,,,,,,,,,,,,,,,,,,,,,,,,,,,,,,,,,,,,,,,,,,,,,,,,,,,,,,,,,,,
,,61300c2d5a36876db1251ff5,2024-02-21_20h19.12.079,kallum_motion_pilot,2023.2.2,Win32,59.88023952,61300c2d5a36876db1251ff5,65d6bb0e977760de756971f7,65d6bd0f97543519d98f2746,0.0328,0.0328,0,40,40,142,1,eightsix,,,,,,,,,,,,,,,,,,,,,,,,,,,,,,,,,,,,,,,,,,,,,,,,,,,,,,,,,,,,,,,,,,,,,,,,,,,,,,,,,,,,,,,,,,,,,,,,,,,,,,,,,,,,,,,,,,,,,,,,,,,,,,,,,,,,,,,,,
,,61300c2d5a36876db1251ff5,2024-02-21_20h19.12.079,kallum_motion_pilot,2023.2.2,Win32,59.88023952,61300c2d5a36876db1251ff5,65d6bb0e977760de756971f7,65d6bd0f97543519d98f2746,0.0329,0.0329,0,41,41,112,1,fivesix,,,,,,,,,,,,,,,,,,,,,,,,,,,,,,,,,,,,,,,,,,,,,,,,,,,,,,,,,,,,,,,,,,,,,,,,,,,,,,,,,,,,,,,,,,,,,,,,,,,,,,,,,,,,,,,,,,,,,,,,,,,,,,,,,,,,,,,,,
,,61300c2d5a36876db1251ff5,2024-02-21_20h19.12.079,kallum_motion_pilot,2023.2.2,Win32,59.88023952,61300c2d5a36876db1251ff5,65d6bb0e977760de756971f7,65d6bd0f97543519d98f2746,0.033,0.0331,0,42,42,10,1,twoone,,,,,,,,,,,,,,,,,,,,,,,,,,,,,,,,,,,,,,,,,,,,,,,,,,,,,,,,,,,,,,,,,,,,,,,,,,,,,,,,,,,,,,,,,,,,,,,,,,,,,,,,,,,,,,,,,,,,,,,,,,,,,,,,,,,,,,,,,
,,61300c2d5a36876db1251ff5,2024-02-21_20h19.12.079,kallum_motion_pilot,2023.2.2,Win32,59.88023952,61300c2d5a36876db1251ff5,65d6bb0e977760de756971f7,65d6bd0f97543519d98f2746,0.0332,0.0332,0,43,43,67,1,twofour,,,,,,,,,,,,,,,,,,,,,,,,,,,,,,,,,,,,,,,,,,,,,,,,,,,,,,,,,,,,,,,,,,,,,,,,,,,,,,,,,,,,,,,,,,,,,,,,,,,,,,,,,,,,,,,,,,,,,,,,,,,,,,,,,,,,,,,,,
,,61300c2d5a36876db1251ff5,2024-02-21_20h19.12.079,kallum_motion_pilot,2023.2.2,Win32,59.88023952,61300c2d5a36876db1251ff5,65d6bb0e977760de756971f7,65d6bd0f97543519d98f2746,0.0332,0.0333,0,44,44,147,1,sixeight,,,,,,,,,,,,,,,,,,,,,,,,,,,,,,,,,,,,,,,,,,,,,,,,,,,,,,,,,,,,,,,,,,,,,,,,,,,,,,,,,,,,,,,,,,,,,,,,,,,,,,,,,,,,,,,,,,,,,,,,,,,,,,,,,,,,,,,,,
,,61300c2d5a36876db1251ff5,2024-02-21_20h19.12.079,kallum_motion_pilot,2023.2.2,Win32,59.88023952,61300c2d5a36876db1251ff5,65d6bb0e977760de756971f7,65d6bd0f97543519d98f2746,0.0334,0.0334,0,45,45,23,1,fourthree,,,,,,,,,,,,,,,,,,,,,,,,,,,,,,,,,,,,,,,,,,,,,,,,,,,,,,,,,,,,,,,,,,,,,,,,,,,,,,,,,,,,,,,,,,,,,,,,,,,,,,,,,,,,,,,,,,,,,,,,,,,,,,,,,,,,,,,,,
,,61300c2d5a36876db1251ff5,2024-02-21_20h19.12.079,kallum_motion_pilot,2023.2.2,Win32,59.88023952,61300c2d5a36876db1251ff5,65d6bb0e977760de756971f7,65d6bd0f97543519d98f2746,0.0334,0.0336,0,46,46,60,1,threeone,,,,,,,,,,,,,,,,,,,,,,,,,,,,,,,,,,,,,,,,,,,,,,,,,,,,,,,,,,,,,,,,,,,,,,,,,,,,,,,,,,,,,,,,,,,,,,,,,,,,,,,,,,,,,,,,,,,,,,,,,,,,,,,,,,,,,,,,,
,,61300c2d5a36876db1251ff5,2024-02-21_20h19.12.079,kallum_motion_pilot,2023.2.2,Win32,59.88023952,61300c2d5a36876db1251ff5,65d6bb0e977760de756971f7,65d6bd0f97543519d98f2746,0.0336,0.0336,0,47,47,155,1,sixeight,,,,,,,,,,,,,,,,,,,,,,,,,,,,,,,,,,,,,,,,,,,,,,,,,,,,,,,,,,,,,,,,,,,,,,,,,,,,,,,,,,,,,,,,,,,,,,,,,,,,,,,,,,,,,,,,,,,,,,,,,,,,,,,,,,,,,,,,,
,,61300c2d5a36876db1251ff5,2024-02-21_20h19.12.079,kallum_motion_pilot,2023.2.2,Win32,59.88023952,61300c2d5a36876db1251ff5,65d6bb0e977760de756971f7,65d6bd0f97543519d98f2746,0.0338,0.0338,0,48,48,152,1,fivesix,,,,,,,,,,,,,,,,,,,,,,,,,,,,,,,,,,,,,,,,,,,,,,,,,,,,,,,,,,,,,,,,,,,,,,,,,,,,,,,,,,,,,,,,,,,,,,,,,,,,,,,,,,,,,,,,,,,,,,,,,,,,,,,,,,,,,,,,,
,,61300c2d5a36876db1251ff5,2024-02-21_20h19.12.079,kallum_motion_pilot,2023.2.2,Win32,59.88023952,61300c2d5a36876db1251ff5,65d6bb0e977760de756971f7,65d6bd0f97543519d98f2746,0.0339,0.0339,0,49,49,143,1,eightseven,,,,,,,,,,,,,,,,,,,,,,,,,,,,,,,,,,,,,,,,,,,,,,,,,,,,,,,,,,,,,,,,,,,,,,,,,,,,,,,,,,,,,,,,,,,,,,,,,,,,,,,,,,,,,,,,,,,,,,,,,,,,,,,,,,,,,,,,,
,,61300c2d5a36876db1251ff5,2024-02-21_20h19.12.079,kallum_motion_pilot,2023.2.2,Win32,59.88023952,61300c2d5a36876db1251ff5,65d6bb0e977760de756971f7,65d6bd0f97543519d98f2746,0.034,0.034,0,50,50,51,1,twofour,,,,,,,,,,,,,,,,,,,,,,,,,,,,,,,,,,,,,,,,,,,,,,,,,,,,,,,,,,,,,,,,,,,,,,,,,,,,,,,,,,,,,,,,,,,,,,,,,,,,,,,,,,,,,,,,,,,,,,,,,,,,,,,,,,,,,,,,,
,,61300c2d5a36876db1251ff5,2024-02-21_20h19.12.079,kallum_motion_pilot,2023.2.2,Win32,59.88023952,61300c2d5a36876db1251ff5,65d6bb0e977760de756971f7,65d6bd0f97543519d98f2746,0.0341,0.0341,0,51,51,144,1,fivesix,,,,,,,,,,,,,,,,,,,,,,,,,,,,,,,,,,,,,,,,,,,,,,,,,,,,,,,,,,,,,,,,,,,,,,,,,,,,,,,,,,,,,,,,,,,,,,,,,,,,,,,,,,,,,,,,,,,,,,,,,,,,,,,,,,,,,,,,,
,,61300c2d5a36876db1251ff5,2024-02-21_20h19.12.079,kallum_motion_pilot,2023.2.2,Win32,59.88023952,61300c2d5a36876db1251ff5,65d6bb0e977760de756971f7,65d6bd0f97543519d98f2746,0.0342,0.0342,0,52,52,129,1,fiveseven,,,,,,,,,,,,,,,,,,,,,,,,,,,,,,,,,,,,,,,,,,,,,,,,,,,,,,,,,,,,,,,,,,,,,,,,,,,,,,,,,,,,,,,,,,,,,,,,,,,,,,,,,,,,,,,,,,,,,,,,,,,,,,,,,,,,,,,,,
,,61300c2d5a36876db1251ff5,2024-02-21_20h19.12.079,kallum_motion_pilot,2023.2.2,Win32,59.88023952,61300c2d5a36876db1251ff5,65d6bb0e977760de756971f7,65d6bd0f97543519d98f2746,0.0343,0.0343,0,53,53,82,1,sixfive,,,,,,,,,,,,,,,,,,,,,,,,,,,,,,,,,,,,,,,,,,,,,,,,,,,,,,,,,,,,,,,,,,,,,,,,,,,,,,,,,,,,,,,,,,,,,,,,,,,,,,,,,,,,,,,,,,,,,,,,,,,,,,,,,,,,,,,,,
,,61300c2d5a36876db1251ff5,2024-02-21_20h19.12.079,kallum_motion_pilot,2023.2.2,Win32,59.88023952,61300c2d5a36876db1251ff5,65d6bb0e977760de756971f7,65d6bd0f97543519d98f2746,0.0344,0.0345,0,54,54,77,1,threefour,,,,,,,,,,,,,,,,,,,,,,,,,,,,,,,,,,,,,,,,,,,,,,,,,,,,,,,,,,,,,,,,,,,,,,,,,,,,,,,,,,,,,,,,,,,,,,,,,,,,,,,,,,,,,,,,,,,,,,,,,,,,,,,,,,,,,,,,,
,,61300c2d5a36876db1251ff5,2024-02-21_20h19.12.079,kallum_motion_pilot,2023.2.2,Win32,59.88023952,61300c2d5a36876db1251ff5,65d6bb0e977760de756971f7,65d6bd0f97543519d98f2746,0.0345,0.0345,0,55,55,80,1,fivesix,,,,,,,,,,,,,,,,,,,,,,,,,,,,,,,,,,,,,,,,,,,,,,,,,,,,,,,,,,,,,,,,,,,,,,,,,,,,,,,,,,,,,,,,,,,,,,,,,,,,,,,,,,,,,,,,,,,,,,,,,,,,,,,,,,,,,,,,,
,,61300c2d5a36876db1251ff5,2024-02-21_20h19.12.079,kallum_motion_pilot,2023.2.2,Win32,59.88023952,61300c2d5a36876db1251ff5,65d6bb0e977760de756971f7,65d6bd0f97543519d98f2746,0.0347,0.0347,0,56,56,35,1,twofour,,,,,,,,,,,,,,,,,,,,,,,,,,,,,,,,,,,,,,,,,,,,,,,,,,,,,,,,,,,,,,,,,,,,,,,,,,,,,,,,,,,,,,,,,,,,,,,,,,,,,,,,,,,,,,,,,,,,,,,,,,,,,,,,,,,,,,,,,
,,61300c2d5a36876db1251ff5,2024-02-21_20h19.12.079,kallum_motion_pilot,2023.2.2,Win32,59.88023952,61300c2d5a36876db1251ff5,65d6bb0e977760de756971f7,65d6bd0f97543519d98f2746,0.0347,0.0348,0,57,57,55,1,fourthree,,,,,,,,,,,,,,,,,,,,,,,,,,,,,,,,,,,,,,,,,,,,,,,,,,,,,,,,,,,,,,,,,,,,,,,,,,,,,,,,,,,,,,,,,,,,,,,,,,,,,,,,,,,,,,,,,,,,,,,,,,,,,,,,,,,,,,,,,
,,61300c2d5a36876db1251ff5,2024-02-21_20h19.12.079,kallum_motion_pilot,2023.2.2,Win32,59.88023952,61300c2d5a36876db1251ff5,65d6bb0e977760de756971f7,65d6bd0f97543519d98f2746,0.0349,0.0349,0,58,58,1,1,onethree,,,,,,,,,,,,,,,,,,,,,,,,,,,,,,,,,,,,,,,,,,,,,,,,,,,,,,,,,,,,,,,,,,,,,,,,,,,,,,,,,,,,,,,,,,,,,,,,,,,,,,,,,,,,,,,,,,,,,,,,,,,,,,,,,,,,,,,,,
,,61300c2d5a36876db1251ff5,2024-02-21_20h19.12.079,kallum_motion_pilot,2023.2.2,Win32,59.88023952,61300c2d5a36876db1251ff5,65d6bb0e977760de756971f7,65d6bd0f97543519d98f2746,0.035,0.035,0,59,59,157,1,seveneight,,,,,,,,,,,,,,,,,,,,,,,,,,,,,,,,,,,,,,,,,,,,,,,,,,,,,,,,,,,,,,,,,,,,,,,,,,,,,,,,,,,,,,,,,,,,,,,,,,,,,,,,,,,,,,,,,,,,,,,,,,,,,,,,,,,,,,,,,
,,61300c2d5a36876db1251ff5,2024-02-21_20h19.12.079,kallum_motion_pilot,2023.2.2,Win32,59.88023952,61300c2d5a36876db1251ff5,65d6bb0e977760de756971f7,65d6bd0f97543519d98f2746,0.0351,0.0351,0,60,60,84,1,sevenfive,,,,,,,,,,,,,,,,,,,,,,,,,,,,,,,,,,,,,,,,,,,,,,,,,,,,,,,,,,,,,,,,,,,,,,,,,,,,,,,,,,,,,,,,,,,,,,,,,,,,,,,,,,,,,,,,,,,,,,,,,,,,,,,,,,,,,,,,,
,,61300c2d5a36876db1251ff5,2024-02-21_20h19.12.079,kallum_motion_pilot,2023.2.2,Win32,59.88023952,61300c2d5a36876db1251ff5,65d6bb0e977760de756971f7,65d6bd0f97543519d98f2746,0.0351,0.0352,0,61,61,101,1,seveneight,,,,,,,,,,,,,,,,,,,,,,,,,,,,,,,,,,,,,,,,,,,,,,,,,,,,,,,,,,,,,,,,,,,,,,,,,,,,,,,,,,,,,,,,,,,,,,,,,,,,,,,,,,,,,,,,,,,,,,,,,,,,,,,,,,,,,,,,,
,,61300c2d5a36876db1251ff5,2024-02-21_20h19.12.079,kallum_motion_pilot,2023.2.2,Win32,59.88023952,61300c2d5a36876db1251ff5,65d6bb0e977760de756971f7,65d6bd0f97543519d98f2746,0.0353,0.0353,0,62,62,99,1,sixeight,,,,,,,,,,,,,,,,,,,,,,,,,,,,,,,,,,,,,,,,,,,,,,,,,,,,,,,,,,,,,,,,,,,,,,,,,,,,,,,,,,,,,,,,,,,,,,,,,,,,,,,,,,,,,,,,,,,,,,,,,,,,,,,,,,,,,,,,,
,,61300c2d5a36876db1251ff5,2024-02-21_20h19.12.079,kallum_motion_pilot,2023.2.2,Win32,59.88023952,61300c2d5a36876db1251ff5,65d6bb0e977760de756971f7,65d6bd0f97543519d98f2746,0.0354,0.0354,0,63,63,62,1,fourtwo,,,,,,,,,,,,,,,,,,,,,,,,,,,,,,,,,,,,,,,,,,,,,,,,,,,,,,,,,,,,,,,,,,,,,,,,,,,,,,,,,,,,,,,,,,,,,,,,,,,,,,,,,,,,,,,,,,,,,,,,,,,,,,,,,,,,,,,,,
,,61300c2d5a36876db1251ff5,2024-02-21_20h19.12.079,kallum_motion_pilot,2023.2.2,Win32,59.88023952,61300c2d5a36876db1251ff5,65d6bb0e977760de756971f7,65d6bd0f97543519d98f2746,0.0355,0.0355,0,64,64,79,1,eightseven,,,,,,,,,,,,,,,,,,,,,,,,,,,,,,,,,,,,,,,,,,,,,,,,,,,,,,,,,,,,,,,,,,,,,,,,,,,,,,,,,,,,,,,,,,,,,,,,,,,,,,,,,,,,,,,,,,,,,,,,,,,,,,,,,,,,,,,,,
,,61300c2d5a36876db1251ff5,2024-02-21_20h19.12.079,kallum_motion_pilot,2023.2.2,Win32,59.88023952,61300c2d5a36876db1251ff5,65d6bb0e977760de756971f7,65d6bd0f97543519d98f2746,0.0356,0.0357,0,65,65,159,1,eightseven,,,,,,,,,,,,,,,,,,,,,,,,,,,,,,,,,,,,,,,,,,,,,,,,,,,,,,,,,,,,,,,,,,,,,,,,,,,,,,,,,,,,,,,,,,,,,,,,,,,,,,,,,,,,,,,,,,,,,,,,,,,,,,,,,,,,,,,,,
,,61300c2d5a36876db1251ff5,2024-02-21_20h19.12.079,kallum_motion_pilot,2023.2.2,Win32,59.88023952,61300c2d5a36876db1251ff5,65d6bb0e977760de756971f7,65d6bd0f97543519d98f2746,0.0358,0.0358,0,66,66,21,1,threefour,,,,,,,,,,,,,,,,,,,,,,,,,,,,,,,,,,,,,,,,,,,,,,,,,,,,,,,,,,,,,,,,,,,,,,,,,,,,,,,,,,,,,,,,,,,,,,,,,,,,,,,,,,,,,,,,,,,,,,,,,,,,,,,,,,,,,,,,,
,,61300c2d5a36876db1251ff5,2024-02-21_20h19.12.079,kallum_motion_pilot,2023.2.2,Win32,59.88023952,61300c2d5a36876db1251ff5,65d6bb0e977760de756971f7,65d6bd0f97543519d98f2746,0.0359,0.036,0,67,67,41,1,onethree,,,,,,,,,,,,,,,,,,,,,,,,,,,,,,,,,,,,,,,,,,,,,,,,,,,,,,,,,,,,,,,,,,,,,,,,,,,,,,,,,,,,,,,,,,,,,,,,,,,,,,,,,,,,,,,,,,,,,,,,,,,,,,,,,,,,,,,,,
,,61300c2d5a36876db1251ff5,2024-02-21_20h19.12.079,kallum_motion_pilot,2023.2.2,Win32,59.88023952,61300c2d5a36876db1251ff5,65d6bb0e977760de756971f7,65d6bd0f97543519d98f2746,0.0361,0.0362,0,68,68,87,1,eightseven,,,,,,,,,,,,,,,,,,,,,,,,,,,,,,,,,,,,,,,,,,,,,,,,,,,,,,,,,,,,,,,,,,,,,,,,,,,,,,,,,,,,,,,,,,,,,,,,,,,,,,,,,,,,,,,,,,,,,,,,,,,,,,,,,,,,,,,,,
,,61300c2d5a36876db1251ff5,2024-02-21_20h19.12.079,kallum_motion_pilot,2023.2.2,Win32,59.88023952,61300c2d5a36876db1251ff5,65d6bb0e977760de756971f7,65d6bd0f97543519d98f2746,0.0362,0.0362,0,69,69,65,1,onethree,,,,,,,,,,,,,,,,,,,,,,,,,,,,,,,,,,,,,,,,,,,,,,,,,,,,,,,,,,,,,,,,,,,,,,,,,,,,,,,,,,,,,,,,,,,,,,,,,,,,,,,,,,,,,,,,,,,,,,,,,,,,,,,,,,,,,,,,,
,,61300c2d5a36876db1251ff5,2024-02-21_20h19.12.079,kallum_motion_pilot,2023.2.2,Win32,59.88023952,61300c2d5a36876db1251ff5,65d6bb0e977760de756971f7,65d6bd0f97543519d98f2746,0.0362,0.0363,0,70,70,156,1,sevenfive,,,,,,,,,,,,,,,,,,,,,,,,,,,,,,,,,,,,,,,,,,,,,,,,,,,,,,,,,,,,,,,,,,,,,,,,,,,,,,,,,,,,,,,,,,,,,,,,,,,,,,,,,,,,,,,,,,,,,,,,,,,,,,,,,,,,,,,,,
,,61300c2d5a36876db1251ff5,2024-02-21_20h19.12.079,kallum_motion_pilot,2023.2.2,Win32,59.88023952,61300c2d5a36876db1251ff5,65d6bb0e977760de756971f7,65d6bd0f97543519d98f2746,0.0364,0.0364,0,71,71,120,1,fivesix,,,,,,,,,,,,,,,,,,,,,,,,,,,,,,,,,,,,,,,,,,,,,,,,,,,,,,,,,,,,,,,,,,,,,,,,,,,,,,,,,,,,,,,,,,,,,,,,,,,,,,,,,,,,,,,,,,,,,,,,,,,,,,,,,,,,,,,,,
,,61300c2d5a36876db1251ff5,2024-02-21_20h19.12.079,kallum_motion_pilot,2023.2.2,Win32,59.88023952,61300c2d5a36876db1251ff5,65d6bb0e977760de756971f7,65d6bd0f97543519d98f2746,0.0364,0.0364,0,72,72,40,1,onetwo,,,,,,,,,,,,,,,,,,,,,,,,,,,,,,,,,,,,,,,,,,,,,,,,,,,,,,,,,,,,,,,,,,,,,,,,,,,,,,,,,,,,,,,,,,,,,,,,,,,,,,,,,,,,,,,,,,,,,,,,,,,,,,,,,,,,,,,,,
,,61300c2d5a36876db1251ff5,2024-02-21_20h19.12.079,kallum_motion_pilot,2023.2.2,Win32,59.88023952,61300c2d5a36876db1251ff5,65d6bb0e977760de756971f7,65d6bd0f97543519d98f2746,0.0365,0.0366,0,73,73,71,1,fourthree,,,,,,,,,,,,,,,,,,,,,,,,,,,,,,,,,,,,,,,,,,,,,,,,,,,,,,,,,,,,,,,,,,,,,,,,,,,,,,,,,,,,,,,,,,,,,,,,,,,,,,,,,,,,,,,,,,,,,,,,,,,,,,,,,,,,,,,,,
,,61300c2d5a36876db1251ff5,2024-02-21_20h19.12.079,kallum_motion_pilot,2023.2.2,Win32,59.88023952,61300c2d5a36876db1251ff5,65d6bb0e977760de756971f7,65d6bd0f97543519d98f2746,0.0366,0.0366,0,74,74,137,1,fiveseven,,,,,,,,,,,,,,,,,,,,,,,,,,,,,,,,,,,,,,,,,,,,,,,,,,,,,,,,,,,,,,,,,,,,,,,,,,,,,,,,,,,,,,,,,,,,,,,,,,,,,,,,,,,,,,,,,,,,,,,,,,,,,,,,,,,,,,,,,
,,61300c2d5a36876db1251ff5,2024-02-21_20h19.12.079,kallum_motion_pilot,2023.2.2,Win32,59.88023952,61300c2d5a36876db1251ff5,65d6bb0e977760de756971f7,65d6bd0f97543519d98f2746,0.0367,0.0367,0,75,75,2,1,twoone,,,,,,,,,,,,,,,,,,,,,,,,,,,,,,,,,,,,,,,,,,,,,,,,,,,,,,,,,,,,,,,,,,,,,,,,,,,,,,,,,,,,,,,,,,,,,,,,,,,,,,,,,,,,,,,,,,,,,,,,,,,,,,,,,,,,,,,,,
,,61300c2d5a36876db1251ff5,2024-02-21_20h19.12.079,kallum_motion_pilot,2023.2.2,Win32,59.88023952,61300c2d5a36876db1251ff5,65d6bb0e977760de756971f7,65d6bd0f97543519d98f2746,0.0368,0.0368,0,76,76,161,1,fiveseven,,,,,,,,,,,,,,,,,,,,,,,,,,,,,,,,,,,,,,,,,,,,,,,,,,,,,,,,,,,,,,,,,,,,,,,,,,,,,,,,,,,,,,,,,,,,,,,,,,,,,,,,,,,,,,,,,,,,,,,,,,,,,,,,,,,,,,,,,
,,61300c2d5a36876db1251ff5,2024-02-21_20h19.12.079,kallum_motion_pilot,2023.2.2,Win32,59.88023952,61300c2d5a36876db1251ff5,65d6bb0e977760de756971f7,65d6bd0f97543519d98f2746,0.0369,0.0369,0,77,77,22,1,fourtwo,,,,,,,,,,,,,,,,,,,,,,,,,,,,,,,,,,,,,,,,,,,,,,,,,,,,,,,,,,,,,,,,,,,,,,,,,,,,,,,,,,,,,,,,,,,,,,,,,,,,,,,,,,,,,,,,,,,,,,,,,,,,,,,,,,,,,,,,,
,,61300c2d5a36876db1251ff5,2024-02-21_20h19.12.079,kallum_motion_pilot,2023.2.2,Win32,59.88023952,61300c2d5a36876db1251ff5,65d6bb0e977760de756971f7,65d6bd0f97543519d98f2746,0.037,0.037,0,78,78,124,1,sevenfive,,,,,,,,,,,,,,,,,,,,,,,,,,,,,,,,,,,,,,,,,,,,,,,,,,,,,,,,,,,,,,,,,,,,,,,,,,,,,,,,,,,,,,,,,,,,,,,,,,,,,,,,,,,,,,,,,,,,,,,,,,,,,,,,,,,,,,,,,
,,61300c2d5a36876db1251ff5,2024-02-21_20h19.12.079,kallum_motion_pilot,2023.2.2,Win32,59.88023952,61300c2d5a36876db1251ff5,65d6bb0e977760de756971f7,65d6bd0f97543519d98f2746,0.0371,0.0371,0,79,79,8,1,onetwo,,,,,,,,,,,,,,,,,,,,,,,,,,,,,,,,,,,,,,,,,,,,,,,,,,,,,,,,,,,,,,,,,,,,,,,,,,,,,,,,,,,,,,,,,,,,,,,,,,,,,,,,,,,,,,,,,,,,,,,,,,,,,,,,,,,,,,,,,
,,61300c2d5a36876db1251ff5,2024-02-21_20h19.12.079,kallum_motion_pilot,2023.2.2,Win32,59.88023952,61300c2d5a36876db1251ff5,65d6bb0e977760de756971f7,65d6bd0f97543519d98f2746,0.0372,0.0372,0,80,80,111,1,eightseven,,,,,,,,,,,,,,,,,,,,,,,,,,,,,,,,,,,,,,,,,,,,,,,,,,,,,,,,,,,,,,,,,,,,,,,,,,,,,,,,,,,,,,,,,,,,,,,,,,,,,,,,,,,,,,,,,,,,,,,,,,,,,,,,,,,,,,,,,
,,61300c2d5a36876db1251ff5,2024-02-21_20h19.12.079,kallum_motion_pilot,2023.2.2,Win32,59.88023952,61300c2d5a36876db1251ff5,65d6bb0e977760de756971f7,65d6bd0f97543519d98f2746,0.0373,0.0373,0,81,81,123,1,sixeight,,,,,,,,,,,,,,,,,,,,,,,,,,,,,,,,,,,,,,,,,,,,,,,,,,,,,,,,,,,,,,,,,,,,,,,,,,,,,,,,,,,,,,,,,,,,,,,,,,,,,,,,,,,,,,,,,,,,,,,,,,,,,,,,,,,,,,,,,
,,61300c2d5a36876db1251ff5,2024-02-21_20h19.12.079,kallum_motion_pilot,2023.2.2,Win32,59.88023952,61300c2d5a36876db1251ff5,65d6bb0e977760de756971f7,65d6bd0f97543519d98f2746,0.0374,0.0374,0,82,82,46,1,fourtwo,,,,,,,,,,,,,,,,,,,,,,,,,,,,,,,,,,,,,,,,,,,,,,,,,,,,,,,,,,,,,,,,,,,,,,,,,,,,,,,,,,,,,,,,,,,,,,,,,,,,,,,,,,,,,,,,,,,,,,,,,,,,,,,,,,,,,,,,,
,,61300c2d5a36876db1251ff5,2024-02-21_20h19.12.079,kallum_motion_pilot,2023.2.2,Win32,59.88023952,61300c2d5a36876db1251ff5,65d6bb0e977760de756971f7,65d6bd0f97543519d98f2746,0.0374,0.0374,0,83,83,4,1,threeone,,,,,,,,,,,,,,,,,,,,,,,,,,,,,,,,,,,,,,,,,,,,,,,,,,,,,,,,,,,,,,,,,,,,,,,,,,,,,,,,,,,,,,,,,,,,,,,,,,,,,,,,,,,,,,,,,,,,,,,,,,,,,,,,,,,,,,,,,
,,61300c2d5a36876db1251ff5,2024-02-21_20h19.12.079,kallum_motion_pilot,2023.2.2,Win32,59.88023952,61300c2d5a36876db1251ff5,65d6bb0e977760de756971f7,65d6bd0f97543519d98f2746,0.0376,0.0376,0,84,84,56,1,onetwo,,,,,,,,,,,,,,,,,,,,,,,,,,,,,,,,,,,,,,,,,,,,,,,,,,,,,,,,,,,,,,,,,,,,,,,,,,,,,,,,,,,,,,,,,,,,,,,,,,,,,,,,,,,,,,,,,,,,,,,,,,,,,,,,,,,,,,,,,
,,61300c2d5a36876db1251ff5,2024-02-21_20h19.12.079,kallum_motion_pilot,2023.2.2,Win32,59.88023952,61300c2d5a36876db1251ff5,65d6bb0e977760de756971f7,65d6bd0f97543519d98f2746,0.0376,0.0376,0,85,85,38,1,fourtwo,,,,,,,,,,,,,,,,,,,,,,,,,,,,,,,,,,,,,,,,,,,,,,,,,,,,,,,,,,,,,,,,,,,,,,,,,,,,,,,,,,,,,,,,,,,,,,,,,,,,,,,,,,,,,,,,,,,,,,,,,,,,,,,,,,,,,,,,,
,,61300c2d5a36876db1251ff5,2024-02-21_20h19.12.079,kallum_motion_pilot,2023.2.2,Win32,59.88023952,61300c2d5a36876db1251ff5,65d6bb0e977760de756971f7,65d6bd0f97543519d98f2746,0.0377,0.0377,0,86,86,148,1,sevenfive,,,,,,,,,,,,,,,,,,,,,,,,,,,,,,,,,,,,,,,,,,,,,,,,,,,,,,,,,,,,,,,,,,,,,,,,,,,,,,,,,,,,,,,,,,,,,,,,,,,,,,,,,,,,,,,,,,,,,,,,,,,,,,,,,,,,,,,,,
,,61300c2d5a36876db1251ff5,2024-02-21_20h19.12.079,kallum_motion_pilot,2023.2.2,Win32,59.88023952,61300c2d5a36876db1251ff5,65d6bb0e977760de756971f7,65d6bd0f97543519d98f2746,0.0379,0.0379,0,87,87,48,1,onetwo,,,,,,,,,,,,,,,,,,,,,,,,,,,,,,,,,,,,,,,,,,,,,,,,,,,,,,,,,,,,,,,,,,,,,,,,,,,,,,,,,,,,,,,,,,,,,,,,,,,,,,,,,,,,,,,,,,,,,,,,,,,,,,,,,,,,,,,,,
,,61300c2d5a36876db1251ff5,2024-02-21_20h19.12.079,kallum_motion_pilot,2023.2.2,Win32,59.88023952,61300c2d5a36876db1251ff5,65d6bb0e977760de756971f7,65d6bd0f97543519d98f2746,0.038,0.038,0,88,88,42,1,twoone,,,,,,,,,,,,,,,,,,,,,,,,,,,,,,,,,,,,,,,,,,,,,,,,,,,,,,,,,,,,,,,,,,,,,,,,,,,,,,,,,,,,,,,,,,,,,,,,,,,,,,,,,,,,,,,,,,,,,,,,,,,,,,,,,,,,,,,,,
,,61300c2d5a36876db1251ff5,2024-02-21_20h19.12.079,kallum_motion_pilot,2023.2.2,Win32,59.88023952,61300c2d5a36876db1251ff5,65d6bb0e977760de756971f7,65d6bd0f97543519d98f2746,0.0381,0.0381,0,89,89,100,1,sevenfive,,,,,,,,,,,,,,,,,,,,,,,,,,,,,,,,,,,,,,,,,,,,,,,,,,,,,,,,,,,,,,,,,,,,,,,,,,,,,,,,,,,,,,,,,,,,,,,,,,,,,,,,,,,,,,,,,,,,,,,,,,,,,,,,,,,,,,,,,
,,61300c2d5a36876db1251ff5,2024-02-21_20h19.12.079,kallum_motion_pilot,2023.2.2,Win32,59.88023952,61300c2d5a36876db1251ff5,65d6bb0e977760de756971f7,65d6bd0f97543519d98f2746,0.0382,0.0382,0,90,90,72,1,onetwo,,,,,,,,,,,,,,,,,,,,,,,,,,,,,,,,,,,,,,,,,,,,,,,,,,,,,,,,,,,,,,,,,,,,,,,,,,,,,,,,,,,,,,,,,,,,,,,,,,,,,,,,,,,,,,,,,,,,,,,,,,,,,,,,,,,,,,,,,
,,61300c2d5a36876db1251ff5,2024-02-21_20h19.12.079,kallum_motion_pilot,2023.2.2,Win32,59.88023952,61300c2d5a36876db1251ff5,65d6bb0e977760de756971f7,65d6bd0f97543519d98f2746,0.0383,0.0383,0,91,91,89,1,fiveseven,,,,,,,,,,,,,,,,,,,,,,,,,,,,,,,,,,,,,,,,,,,,,,,,,,,,,,,,,,,,,,,,,,,,,,,,,,,,,,,,,,,,,,,,,,,,,,,,,,,,,,,,,,,,,,,,,,,,,,,,,,,,,,,,,,,,,,,,,
,,61300c2d5a36876db1251ff5,2024-02-21_20h19.12.079,kallum_motion_pilot,2023.2.2,Win32,59.88023952,61300c2d5a36876db1251ff5,65d6bb0e977760de756971f7,65d6bd0f97543519d98f2746,0.0384,0.0384,0,92,92,76,1,threeone,,,,,,,,,,,,,,,,,,,,,,,,,,,,,,,,,,,,,,,,,,,,,,,,,,,,,,,,,,,,,,,,,,,,,,,,,,,,,,,,,,,,,,,,,,,,,,,,,,,,,,,,,,,,,,,,,,,,,,,,,,,,,,,,,,,,,,,,,
,,61300c2d5a36876db1251ff5,2024-02-21_20h19.12.079,kallum_motion_pilot,2023.2.2,Win32,59.88023952,61300c2d5a36876db1251ff5,65d6bb0e977760de756971f7,65d6bd0f97543519d98f2746,0.0385,0.0385,0,93,93,29,1,threefour,,,,,,,,,,,,,,,,,,,,,,,,,,,,,,,,,,,,,,,,,,,,,,,,,,,,,,,,,,,,,,,,,,,,,,,,,,,,,,,,,,,,,,,,,,,,,,,,,,,,,,,,,,,,,,,,,,,,,,,,,,,,,,,,,,,,,,,,,
,,61300c2d5a36876db1251ff5,2024-02-21_20h19.12.079,kallum_motion_pilot,2023.2.2,Win32,59.88023952,61300c2d5a36876db1251ff5,65d6bb0e977760de756971f7,65d6bd0f97543519d98f2746,0.0386,0.0386,0,94,94,54,1,fourtwo,,,,,,,,,,,,,,,,,,,,,,,,,,,,,,,,,,,,,,,,,,,,,,,,,,,,,,,,,,,,,,,,,,,,,,,,,,,,,,,,,,,,,,,,,,,,,,,,,,,,,,,,,,,,,,,,,,,,,,,,,,,,,,,,,,,,,,,,,
,,61300c2d5a36876db1251ff5,2024-02-21_20h19.12.079,kallum_motion_pilot,2023.2.2,Win32,59.88023952,61300c2d5a36876db1251ff5,65d6bb0e977760de756971f7,65d6bd0f97543519d98f2746,0.0387,0.0388,0,95,95,47,1,fourthree,,,,,,,,,,,,,,,,,,,,,,,,,,,,,,,,,,,,,,,,,,,,,,,,,,,,,,,,,,,,,,,,,,,,,,,,,,,,,,,,,,,,,,,,,,,,,,,,,,,,,,,,,,,,,,,,,,,,,,,,,,,,,,,,,,,,,,,,,
,,61300c2d5a36876db1251ff5,2024-02-21_20h19.12.079,kallum_motion_pilot,2023.2.2,Win32,59.88023952,61300c2d5a36876db1251ff5,65d6bb0e977760de756971f7,65d6bd0f97543519d98f2746,0.0388,0.0389,0,96,96,108,1,sevenfive,,,,,,,,,,,,,,,,,,,,,,,,,,,,,,,,,,,,,,,,,,,,,,,,,,,,,,,,,,,,,,,,,,,,,,,,,,,,,,,,,,,,,,,,,,,,,,,,,,,,,,,,,,,,,,,,,,,,,,,,,,,,,,,,,,,,,,,,,
,,61300c2d5a36876db1251ff5,2024-02-21_20h19.12.079,kallum_motion_pilot,2023.2.2,Win32,59.88023952,61300c2d5a36876db1251ff5,65d6bb0e977760de756971f7,65d6bd0f97543519d98f2746,0.039,0.039,0,97,97,127,1,eightseven,,,,,,,,,,,,,,,,,,,,,,,,,,,,,,,,,,,,,,,,,,,,,,,,,,,,,,,,,,,,,,,,,,,,,,,,,,,,,,,,,,,,,,,,,,,,,,,,,,,,,,,,,,,,,,,,,,,,,,,,,,,,,,,,,,,,,,,,,
,,61300c2d5a36876db1251ff5,2024-02-21_20h19.12.079,kallum_motion_pilot,2023.2.2,Win32,59.88023952,61300c2d5a36876db1251ff5,65d6bb0e977760de756971f7,65d6bd0f97543519d98f2746,0.0391,0.0391,0,98,98,9,1,onethree,,,,,,,,,,,,,,,,,,,,,,,,,,,,,,,,,,,,,,,,,,,,,,,,,,,,,,,,,,,,,,,,,,,,,,,,,,,,,,,,,,,,,,,,,,,,,,,,,,,,,,,,,,,,,,,,,,,,,,,,,,,,,,,,,,,,,,,,,
,,61300c2d5a36876db1251ff5,2024-02-21_20h19.12.079,kallum_motion_pilot,2023.2.2,Win32,59.88023952,61300c2d5a36876db1251ff5,65d6bb0e977760de756971f7,65d6bd0f97543519d98f2746,0.0391,0.0392,0,99,99,17,1,onethree,,,,,,,,,,,,,,,,,,,,,,,,,,,,,,,,,,,,,,,,,,,,,,,,,,,,,,,,,,,,,,,,,,,,,,,,,,,,,,,,,,,,,,,,,,,,,,,,,,,,,,,,,,,,,,,,,,,,,,,,,,,,,,,,,,,,,,,,,
,,61300c2d5a36876db1251ff5,2024-02-21_20h19.12.079,kallum_motion_pilot,2023.2.2,Win32,59.88023952,61300c2d5a36876db1251ff5,65d6bb0e977760de756971f7,65d6bd0f97543519d98f2746,0.0392,0.0393,0,100,100,122,1,sixfive,,,,,,,,,,,,,,,,,,,,,,,,,,,,,,,,,,,,,,,,,,,,,,,,,,,,,,,,,,,,,,,,,,,,,,,,,,,,,,,,,,,,,,,,,,,,,,,,,,,,,,,,,,,,,,,,,,,,,,,,,,,,,,,,,,,,,,,,,
,,61300c2d5a36876db1251ff5,2024-02-21_20h19.12.079,kallum_motion_pilot,2023.2.2,Win32,59.88023952,61300c2d5a36876db1251ff5,65d6bb0e977760de756971f7,65d6bd0f97543519d98f2746,0.0394,0.0394,0,101,101,160,1,fivesix,,,,,,,,,,,,,,,,,,,,,,,,,,,,,,,,,,,,,,,,,,,,,,,,,,,,,,,,,,,,,,,,,,,,,,,,,,,,,,,,,,,,,,,,,,,,,,,,,,,,,,,,,,,,,,,,,,,,,,,,,,,,,,,,,,,,,,,,,
,,61300c2d5a36876db1251ff5,2024-02-21_20h19.12.079,kallum_motion_pilot,2023.2.2,Win32,59.88023952,61300c2d5a36876db1251ff5,65d6bb0e977760de756971f7,65d6bd0f97543519d98f2746,0.0395,0.0395,0,102,102,78,1,fourtwo,,,,,,,,,,,,,,,,,,,,,,,,,,,,,,,,,,,,,,,,,,,,,,,,,,,,,,,,,,,,,,,,,,,,,,,,,,,,,,,,,,,,,,,,,,,,,,,,,,,,,,,,,,,,,,,,,,,,,,,,,,,,,,,,,,,,,,,,,
,,61300c2d5a36876db1251ff5,2024-02-21_20h19.12.079,kallum_motion_pilot,2023.2.2,Win32,59.88023952,61300c2d5a36876db1251ff5,65d6bb0e977760de756971f7,65d6bd0f97543519d98f2746,0.0395,0.0396,0,103,103,105,1,fiveseven,,,,,,,,,,,,,,,,,,,,,,,,,,,,,,,,,,,,,,,,,,,,,,,,,,,,,,,,,,,,,,,,,,,,,,,,,,,,,,,,,,,,,,,,,,,,,,,,,,,,,,,,,,,,,,,,,,,,,,,,,,,,,,,,,,,,,,,,,
,,61300c2d5a36876db1251ff5,2024-02-21_20h19.12.079,kallum_motion_pilot,2023.2.2,Win32,59.88023952,61300c2d5a36876db1251ff5,65d6bb0e977760de756971f7,65d6bd0f97543519d98f2746,0.0397,0.0397,0,104,104,27,1,twofour,,,,,,,,,,,,,,,,,,,,,,,,,,,,,,,,,,,,,,,,,,,,,,,,,,,,,,,,,,,,,,,,,,,,,,,,,,,,,,,,,,,,,,,,,,,,,,,,,,,,,,,,,,,,,,,,,,,,,,,,,,,,,,,,,,,,,,,,,
,,61300c2d5a36876db1251ff5,2024-02-21_20h19.12.079,kallum_motion_pilot,2023.2.2,Win32,59.88023952,61300c2d5a36876db1251ff5,65d6bb0e977760de756971f7,65d6bd0f97543519d98f2746,0.0398,0.0398,0,105,105,16,1,onetwo,,,,,,,,,,,,,,,,,,,,,,,,,,,,,,,,,,,,,,,,,,,,,,,,,,,,,,,,,,,,,,,,,,,,,,,,,,,,,,,,,,,,,,,,,,,,,,,,,,,,,,,,,,,,,,,,,,,,,,,,,,,,,,,,,,,,,,,,,
,,61300c2d5a36876db1251ff5,2024-02-21_20h19.12.079,kallum_motion_pilot,2023.2.2,Win32,59.88023952,61300c2d5a36876db1251ff5,65d6bb0e977760de756971f7,65d6bd0f97543519d98f2746,0.0399,0.0399,0,106,106,6,1,fourtwo,,,,,,,,,,,,,,,,,,,,,,,,,,,,,,,,,,,,,,,,,,,,,,,,,,,,,,,,,,,,,,,,,,,,,,,,,,,,,,,,,,,,,,,,,,,,,,,,,,,,,,,,,,,,,,,,,,,,,,,,,,,,,,,,,,,,,,,,,
,,61300c2d5a36876db1251ff5,2024-02-21_20h19.12.079,kallum_motion_pilot,2023.2.2,Win32,59.88023952,61300c2d5a36876db1251ff5,65d6bb0e977760de756971f7,65d6bd0f97543519d98f2746,0.04,0.04,0,107,107,93,1,seveneight,,,,,,,,,,,,,,,,,,,,,,,,,,,,,,,,,,,,,,,,,,,,,,,,,,,,,,,,,,,,,,,,,,,,,,,,,,,,,,,,,,,,,,,,,,,,,,,,,,,,,,,,,,,,,,,,,,,,,,,,,,,,,,,,,,,,,,,,,
,,61300c2d5a36876db1251ff5,2024-02-21_20h19.12.079,kallum_motion_pilot,2023.2.2,Win32,59.88023952,61300c2d5a36876db1251ff5,65d6bb0e977760de756971f7,65d6bd0f97543519d98f2746,0.0401,0.0401,0,108,108,57,1,onethree,,,,,,,,,,,,,,,,,,,,,,,,,,,,,,,,,,,,,,,,,,,,,,,,,,,,,,,,,,,,,,,,,,,,,,,,,,,,,,,,,,,,,,,,,,,,,,,,,,,,,,,,,,,,,,,,,,,,,,,,,,,,,,,,,,,,,,,,,
,,61300c2d5a36876db1251ff5,2024-02-21_20h19.12.079,kallum_motion_pilot,2023.2.2,Win32,59.88023952,61300c2d5a36876db1251ff5,65d6bb0e977760de756971f7,65d6bd0f97543519d98f2746,0.0401,0.0402,0,109,109,13,1,threefour,,,,,,,,,,,,,,,,,,,,,,,,,,,,,,,,,,,,,,,,,,,,,,,,,,,,,,,,,,,,,,,,,,,,,,,,,,,,,,,,,,,,,,,,,,,,,,,,,,,,,,,,,,,,,,,,,,,,,,,,,,,,,,,,,,,,,,,,,
,,61300c2d5a36876db1251ff5,2024-02-21_20h19.12.079,kallum_motion_pilot,2023.2.2,Win32,59.88023952,61300c2d5a36876db1251ff5,65d6bb0e977760de756971f7,65d6bd0f97543519d98f2746,0.0403,0.0403,0,110,110,7,1,fourthree,,,,,,,,,,,,,,,,,,,,,,,,,,,,,,,,,,,,,,,,,,,,,,,,,,,,,,,,,,,,,,,,,,,,,,,,,,,,,,,,,,,,,,,,,,,,,,,,,,,,,,,,,,,,,,,,,,,,,,,,,,,,,,,,,,,,,,,,,
,,61300c2d5a36876db1251ff5,2024-02-21_20h19.12.079,kallum_motion_pilot,2023.2.2,Win32,59.88023952,61300c2d5a36876db1251ff5,65d6bb0e977760de756971f7,65d6bd0f97543519d98f2746,0.0404,0.0404,0,111,111,104,1,fivesix,,,,,,,,,,,,,,,,,,,,,,,,,,,,,,,,,,,,,,,,,,,,,,,,,,,,,,,,,,,,,,,,,,,,,,,,,,,,,,,,,,,,,,,,,,,,,,,,,,,,,,,,,,,,,,,,,,,,,,,,,,,,,,,,,,,,,,,,,
,,61300c2d5a36876db1251ff5,2024-02-21_20h19.12.079,kallum_motion_pilot,2023.2.2,Win32,59.88023952,61300c2d5a36876db1251ff5,65d6bb0e977760de756971f7,65d6bd0f97543519d98f2746,0.0405,0.0405,0,112,112,36,1,threeone,,,,,,,,,,,,,,,,,,,,,,,,,,,,,,,,,,,,,,,,,,,,,,,,,,,,,,,,,,,,,,,,,,,,,,,,,,,,,,,,,,,,,,,,,,,,,,,,,,,,,,,,,,,,,,,,,,,,,,,,,,,,,,,,,,,,,,,,,
,,61300c2d5a36876db1251ff5,2024-02-21_20h19.12.079,kallum_motion_pilot,2023.2.2,Win32,59.88023952,61300c2d5a36876db1251ff5,65d6bb0e977760de756971f7,65d6bd0f97543519d98f2746,0.0406,0.0407,0,113,113,109,1,seveneight,,,,,,,,,,,,,,,,,,,,,,,,,,,,,,,,,,,,,,,,,,,,,,,,,,,,,,,,,,,,,,,,,,,,,,,,,,,,,,,,,,,,,,,,,,,,,,,,,,,,,,,,,,,,,,,,,,,,,,,,,,,,,,,,,,,,,,,,,
,,61300c2d5a36876db1251ff5,2024-02-21_20h19.12.079,kallum_motion_pilot,2023.2.2,Win32,59.88023952,61300c2d5a36876db1251ff5,65d6bb0e977760de756971f7,65d6bd0f97543519d98f2746,0.0408,0.0408,0,114,114,70,1,fourtwo,,,,,,,,,,,,,,,,,,,,,,,,,,,,,,,,,,,,,,,,,,,,,,,,,,,,,,,,,,,,,,,,,,,,,,,,,,,,,,,,,,,,,,,,,,,,,,,,,,,,,,,,,,,,,,,,,,,,,,,,,,,,,,,,,,,,,,,,,
,,61300c2d5a36876db1251ff5,2024-02-21_20h19.12.079,kallum_motion_pilot,2023.2.2,Win32,59.88023952,61300c2d5a36876db1251ff5,65d6bb0e977760de756971f7,65d6bd0f97543519d98f2746,0.0408,0.041,0,115,115,63,1,fourthree,,,,,,,,,,,,,,,,,,,,,,,,,,,,,,,,,,,,,,,,,,,,,,,,,,,,,,,,,,,,,,,,,,,,,,,,,,,,,,,,,,,,,,,,,,,,,,,,,,,,,,,,,,,,,,,,,,,,,,,,,,,,,,,,,,,,,,,,,
,,61300c2d5a36876db1251ff5,2024-02-21_20h19.12.079,kallum_motion_pilot,2023.2.2,Win32,59.88023952,61300c2d5a36876db1251ff5,65d6bb0e977760de756971f7,65d6bd0f97543519d98f2746,0.041,0.0411,0,116,116,45,1,threefour,,,,,,,,,,,,,,,,,,,,,,,,,,,,,,,,,,,,,,,,,,,,,,,,,,,,,,,,,,,,,,,,,,,,,,,,,,,,,,,,,,,,,,,,,,,,,,,,,,,,,,,,,,,,,,,,,,,,,,,,,,,,,,,,,,,,,,,,,
,,61300c2d5a36876db1251ff5,2024-02-21_20h19.12.079,kallum_motion_pilot,2023.2.2,Win32,59.88023952,61300c2d5a36876db1251ff5,65d6bb0e977760de756971f7,65d6bd0f97543519d98f2746,0.0436,0.0436,0,117,117,31,1,fourthree,,,,,,,,,,,,,,,,,,,,,,,,,,,,,,,,,,,,,,,,,,,,,,,,,,,,,,,,,,,,,,,,,,,,,,,,,,,,,,,,,,,,,,,,,,,,,,,,,,,,,,,,,,,,,,,,,,,,,,,,,,,,,,,,,,,,,,,,,
,,61300c2d5a36876db1251ff5,2024-02-21_20h19.12.079,kallum_motion_pilot,2023.2.2,Win32,59.88023952,61300c2d5a36876db1251ff5,65d6bb0e977760de756971f7,65d6bd0f97543519d98f2746,0.0438,0.0438,0,118,118,75,1,twofour,,,,,,,,,,,,,,,,,,,,,,,,,,,,,,,,,,,,,,,,,,,,,,,,,,,,,,,,,,,,,,,,,,,,,,,,,,,,,,,,,,,,,,,,,,,,,,,,,,,,,,,,,,,,,,,,,,,,,,,,,,,,,,,,,,,,,,,,,
,,61300c2d5a36876db1251ff5,2024-02-21_20h19.12.079,kallum_motion_pilot,2023.2.2,Win32,59.88023952,61300c2d5a36876db1251ff5,65d6bb0e977760de756971f7,65d6bd0f97543519d98f2746,0.0439,0.0439,0,119,119,121,1,fiveseven,,,,,,,,,,,,,,,,,,,,,,,,,,,,,,,,,,,,,,,,,,,,,,,,,,,,,,,,,,,,,,,,,,,,,,,,,,,,,,,,,,,,,,,,,,,,,,,,,,,,,,,,,,,,,,,,,,,,,,,,,,,,,,,,,,,,,,,,,
,,61300c2d5a36876db1251ff5,2024-02-21_20h19.12.079,kallum_motion_pilot,2023.2.2,Win32,59.88023952,61300c2d5a36876db1251ff5,65d6bb0e977760de756971f7,65d6bd0f97543519d98f2746,0.044,0.0441,0,120,120,90,1,sixfive,,,,,,,,,,,,,,,,,,,,,,,,,,,,,,,,,,,,,,,,,,,,,,,,,,,,,,,,,,,,,,,,,,,,,,,,,,,,,,,,,,,,,,,,,,,,,,,,,,,,,,,,,,,,,,,,,,,,,,,,,,,,,,,,,,,,,,,,,
,,61300c2d5a36876db1251ff5,2024-02-21_20h19.12.079,kallum_motion_pilot,2023.2.2,Win32,59.88023952,61300c2d5a36876db1251ff5,65d6bb0e977760de756971f7,65d6bd0f97543519d98f2746,0.0442,0.0442,0,121,121,117,1,seveneight,,,,,,,,,,,,,,,,,,,,,,,,,,,,,,,,,,,,,,,,,,,,,,,,,,,,,,,,,,,,,,,,,,,,,,,,,,,,,,,,,,,,,,,,,,,,,,,,,,,,,,,,,,,,,,,,,,,,,,,,,,,,,,,,,,,,,,,,,
,,61300c2d5a36876db1251ff5,2024-02-21_20h19.12.079,kallum_motion_pilot,2023.2.2,Win32,59.88023952,61300c2d5a36876db1251ff5,65d6bb0e977760de756971f7,65d6bd0f97543519d98f2746,0.0443,0.0443,0,122,122,24,1,onetwo,,,,,,,,,,,,,,,,,,,,,,,,,,,,,,,,,,,,,,,,,,,,,,,,,,,,,,,,,,,,,,,,,,,,,,,,,,,,,,,,,,,,,,,,,,,,,,,,,,,,,,,,,,,,,,,,,,,,,,,,,,,,,,,,,,,,,,,,,
,,61300c2d5a36876db1251ff5,2024-02-21_20h19.12.079,kallum_motion_pilot,2023.2.2,Win32,59.88023952,61300c2d5a36876db1251ff5,65d6bb0e977760de756971f7,65d6bd0f97543519d98f2746,0.0444,0.0444,0,123,123,134,1,eightsix,,,,,,,,,,,,,,,,,,,,,,,,,,,,,,,,,,,,,,,,,,,,,,,,,,,,,,,,,,,,,,,,,,,,,,,,,,,,,,,,,,,,,,,,,,,,,,,,,,,,,,,,,,,,,,,,,,,,,,,,,,,,,,,,,,,,,,,,,
,,61300c2d5a36876db1251ff5,2024-02-21_20h19.12.079,kallum_motion_pilot,2023.2.2,Win32,59.88023952,61300c2d5a36876db1251ff5,65d6bb0e977760de756971f7,65d6bd0f97543519d98f2746,0.0445,0.0446,0,124,124,118,1,eightsix,,,,,,,,,,,,,,,,,,,,,,,,,,,,,,,,,,,,,,,,,,,,,,,,,,,,,,,,,,,,,,,,,,,,,,,,,,,,,,,,,,,,,,,,,,,,,,,,,,,,,,,,,,,,,,,,,,,,,,,,,,,,,,,,,,,,,,,,,
,,61300c2d5a36876db1251ff5,2024-02-21_20h19.12.079,kallum_motion_pilot,2023.2.2,Win32,59.88023952,61300c2d5a36876db1251ff5,65d6bb0e977760de756971f7,65d6bd0f97543519d98f2746,0.0446,0.0447,0,125,125,49,1,onethree,,,,,,,,,,,,,,,,,,,,,,,,,,,,,,,,,,,,,,,,,,,,,,,,,,,,,,,,,,,,,,,,,,,,,,,,,,,,,,,,,,,,,,,,,,,,,,,,,,,,,,,,,,,,,,,,,,,,,,,,,,,,,,,,,,,,,,,,,
,,61300c2d5a36876db1251ff5,2024-02-21_20h19.12.079,kallum_motion_pilot,2023.2.2,Win32,59.88023952,61300c2d5a36876db1251ff5,65d6bb0e977760de756971f7,65d6bd0f97543519d98f2746,0.0447,0.0448,0,126,126,68,1,threeone,,,,,,,,,,,,,,,,,,,,,,,,,,,,,,,,,,,,,,,,,,,,,,,,,,,,,,,,,,,,,,,,,,,,,,,,,,,,,,,,,,,,,,,,,,,,,,,,,,,,,,,,,,,,,,,,,,,,,,,,,,,,,,,,,,,,,,,,,
,,61300c2d5a36876db1251ff5,2024-02-21_20h19.12.079,kallum_motion_pilot,2023.2.2,Win32,59.88023952,61300c2d5a36876db1251ff5,65d6bb0e977760de756971f7,65d6bd0f97543519d98f2746,0.0449,0.045,0,127,127,140,1,sevenfive,,,,,,,,,,,,,,,,,,,,,,,,,,,,,,,,,,,,,,,,,,,,,,,,,,,,,,,,,,,,,,,,,,,,,,,,,,,,,,,,,,,,,,,,,,,,,,,,,,,,,,,,,,,,,,,,,,,,,,,,,,,,,,,,,,,,,,,,,
,,61300c2d5a36876db1251ff5,2024-02-21_20h19.12.079,kallum_motion_pilot,2023.2.2,Win32,59.88023952,61300c2d5a36876db1251ff5,65d6bb0e977760de756971f7,65d6bd0f97543519d98f2746,0.0451,0.0451,0,128,128,136,1,fivesix,,,,,,,,,,,,,,,,,,,,,,,,,,,,,,,,,,,,,,,,,,,,,,,,,,,,,,,,,,,,,,,,,,,,,,,,,,,,,,,,,,,,,,,,,,,,,,,,,,,,,,,,,,,,,,,,,,,,,,,,,,,,,,,,,,,,,,,,,
,,61300c2d5a36876db1251ff5,2024-02-21_20h19.12.079,kallum_motion_pilot,2023.2.2,Win32,59.88023952,61300c2d5a36876db1251ff5,65d6bb0e977760de756971f7,65d6bd0f97543519d98f2746,0.0452,0.0452,0,129,129,125,1,seveneight,,,,,,,,,,,,,,,,,,,,,,,,,,,,,,,,,,,,,,,,,,,,,,,,,,,,,,,,,,,,,,,,,,,,,,,,,,,,,,,,,,,,,,,,,,,,,,,,,,,,,,,,,,,,,,,,,,,,,,,,,,,,,,,,,,,,,,,,,
,,61300c2d5a36876db1251ff5,2024-02-21_20h19.12.079,kallum_motion_pilot,2023.2.2,Win32,59.88023952,61300c2d5a36876db1251ff5,65d6bb0e977760de756971f7,65d6bd0f97543519d98f2746,0.0452,0.0452,0,130,130,3,1,twofour,,,,,,,,,,,,,,,,,,,,,,,,,,,,,,,,,,,,,,,,,,,,,,,,,,,,,,,,,,,,,,,,,,,,,,,,,,,,,,,,,,,,,,,,,,,,,,,,,,,,,,,,,,,,,,,,,,,,,,,,,,,,,,,,,,,,,,,,,
,,61300c2d5a36876db1251ff5,2024-02-21_20h19.12.079,kallum_motion_pilot,2023.2.2,Win32,59.88023952,61300c2d5a36876db1251ff5,65d6bb0e977760de756971f7,65d6bd0f97543519d98f2746,0.0453,0.0455,0,131,131,50,1,twoone,,,,,,,,,,,,,,,,,,,,,,,,,,,,,,,,,,,,,,,,,,,,,,,,,,,,,,,,,,,,,,,,,,,,,,,,,,,,,,,,,,,,,,,,,,,,,,,,,,,,,,,,,,,,,,,,,,,,,,,,,,,,,,,,,,,,,,,,,
,,61300c2d5a36876db1251ff5,2024-02-21_20h19.12.079,kallum_motion_pilot,2023.2.2,Win32,59.88023952,61300c2d5a36876db1251ff5,65d6bb0e977760de756971f7,65d6bd0f97543519d98f2746,0.0455,0.0456,0,132,132,15,1,fourthree,,,,,,,,,,,,,,,,,,,,,,,,,,,,,,,,,,,,,,,,,,,,,,,,,,,,,,,,,,,,,,,,,,,,,,,,,,,,,,,,,,,,,,,,,,,,,,,,,,,,,,,,,,,,,,,,,,,,,,,,,,,,,,,,,,,,,,,,,
,,61300c2d5a36876db1251ff5,2024-02-21_20h19.12.079,kallum_motion_pilot,2023.2.2,Win32,59.88023952,61300c2d5a36876db1251ff5,65d6bb0e977760de756971f7,65d6bd0f97543519d98f2746,0.0456,0.0456,0,133,133,128,1,fivesix,,,,,,,,,,,,,,,,,,,,,,,,,,,,,,,,,,,,,,,,,,,,,,,,,,,,,,,,,,,,,,,,,,,,,,,,,,,,,,,,,,,,,,,,,,,,,,,,,,,,,,,,,,,,,,,,,,,,,,,,,,,,,,,,,,,,,,,,,
,,61300c2d5a36876db1251ff5,2024-02-21_20h19.12.079,kallum_motion_pilot,2023.2.2,Win32,59.88023952,61300c2d5a36876db1251ff5,65d6bb0e977760de756971f7,65d6bd0f97543519d98f2746,0.0457,0.0457,0,134,134,149,1,seveneight,,,,,,,,,,,,,,,,,,,,,,,,,,,,,,,,,,,,,,,,,,,,,,,,,,,,,,,,,,,,,,,,,,,,,,,,,,,,,,,,,,,,,,,,,,,,,,,,,,,,,,,,,,,,,,,,,,,,,,,,,,,,,,,,,,,,,,,,,
,,61300c2d5a36876db1251ff5,2024-02-21_20h19.12.079,kallum_motion_pilot,2023.2.2,Win32,59.88023952,61300c2d5a36876db1251ff5,65d6bb0e977760de756971f7,65d6bd0f97543519d98f2746,0.0457,0.0458,0,135,135,34,1,twoone,,,,,,,,,,,,,,,,,,,,,,,,,,,,,,,,,,,,,,,,,,,,,,,,,,,,,,,,,,,,,,,,,,,,,,,,,,,,,,,,,,,,,,,,,,,,,,,,,,,,,,,,,,,,,,,,,,,,,,,,,,,,,,,,,,,,,,,,,
,,61300c2d5a36876db1251ff5,2024-02-21_20h19.12.079,kallum_motion_pilot,2023.2.2,Win32,59.88023952,61300c2d5a36876db1251ff5,65d6bb0e977760de756971f7,65d6bd0f97543519d98f2746,0.0459,0.0459,0,136,136,20,1,threeone,,,,,,,,,,,,,,,,,,,,,,,,,,,,,,,,,,,,,,,,,,,,,,,,,,,,,,,,,,,,,,,,,,,,,,,,,,,,,,,,,,,,,,,,,,,,,,,,,,,,,,,,,,,,,,,,,,,,,,,,,,,,,,,,,,,,,,,,,
,,61300c2d5a36876db1251ff5,2024-02-21_20h19.12.079,kallum_motion_pilot,2023.2.2,Win32,59.88023952,61300c2d5a36876db1251ff5,65d6bb0e977760de756971f7,65d6bd0f97543519d98f2746,0.0459,0.046,0,137,137,83,1,sixeight,,,,,,,,,,,,,,,,,,,,,,,,,,,,,,,,,,,,,,,,,,,,,,,,,,,,,,,,,,,,,,,,,,,,,,,,,,,,,,,,,,,,,,,,,,,,,,,,,,,,,,,,,,,,,,,,,,,,,,,,,,,,,,,,,,,,,,,,,
,,61300c2d5a36876db1251ff5,2024-02-21_20h19.12.079,kallum_motion_pilot,2023.2.2,Win32,59.88023952,61300c2d5a36876db1251ff5,65d6bb0e977760de756971f7,65d6bd0f97543519d98f2746,0.046,0.0461,0,138,138,141,1,seveneight,,,,,,,,,,,,,,,,,,,,,,,,,,,,,,,,,,,,,,,,,,,,,,,,,,,,,,,,,,,,,,,,,,,,,,,,,,,,,,,,,,,,,,,,,,,,,,,,,,,,,,,,,,,,,,,,,,,,,,,,,,,,,,,,,,,,,,,,,
,,61300c2d5a36876db1251ff5,2024-02-21_20h19.12.079,kallum_motion_pilot,2023.2.2,Win32,59.88023952,61300c2d5a36876db1251ff5,65d6bb0e977760de756971f7,65d6bd0f97543519d98f2746,0.0462,0.0462,0,139,139,69,1,threefour,,,,,,,,,,,,,,,,,,,,,,,,,,,,,,,,,,,,,,,,,,,,,,,,,,,,,,,,,,,,,,,,,,,,,,,,,,,,,,,,,,,,,,,,,,,,,,,,,,,,,,,,,,,,,,,,,,,,,,,,,,,,,,,,,,,,,,,,,
,,61300c2d5a36876db1251ff5,2024-02-21_20h19.12.079,kallum_motion_pilot,2023.2.2,Win32,59.88023952,61300c2d5a36876db1251ff5,65d6bb0e977760de756971f7,65d6bd0f97543519d98f2746,0.0463,0.0463,0,140,140,146,1,sixfive,,,,,,,,,,,,,,,,,,,,,,,,,,,,,,,,,,,,,,,,,,,,,,,,,,,,,,,,,,,,,,,,,,,,,,,,,,,,,,,,,,,,,,,,,,,,,,,,,,,,,,,,,,,,,,,,,,,,,,,,,,,,,,,,,,,,,,,,,
,,61300c2d5a36876db1251ff5,2024-02-21_20h19.12.079,kallum_motion_pilot,2023.2.2,Win32,59.88023952,61300c2d5a36876db1251ff5,65d6bb0e977760de756971f7,65d6bd0f97543519d98f2746,0.0464,0.0464,0,141,141,25,1,onethree,,,,,,,,,,,,,,,,,,,,,,,,,,,,,,,,,,,,,,,,,,,,,,,,,,,,,,,,,,,,,,,,,,,,,,,,,,,,,,,,,,,,,,,,,,,,,,,,,,,,,,,,,,,,,,,,,,,,,,,,,,,,,,,,,,,,,,,,,
,,61300c2d5a36876db1251ff5,2024-02-21_20h19.12.079,kallum_motion_pilot,2023.2.2,Win32,59.88023952,61300c2d5a36876db1251ff5,65d6bb0e977760de756971f7,65d6bd0f97543519d98f2746,0.0465,0.0465,0,142,142,154,1,sixfive,,,,,,,,,,,,,,,,,,,,,,,,,,,,,,,,,,,,,,,,,,,,,,,,,,,,,,,,,,,,,,,,,,,,,,,,,,,,,,,,,,,,,,,,,,,,,,,,,,,,,,,,,,,,,,,,,,,,,,,,,,,,,,,,,,,,,,,,,
,,61300c2d5a36876db1251ff5,2024-02-21_20h19.12.079,kallum_motion_pilot,2023.2.2,Win32,59.88023952,61300c2d5a36876db1251ff5,65d6bb0e977760de756971f7,65d6bd0f97543519d98f2746,0.0465,0.0467,0,143,143,96,1,fivesix,,,,,,,,,,,,,,,,,,,,,,,,,,,,,,,,,,,,,,,,,,,,,,,,,,,,,,,,,,,,,,,,,,,,,,,,,,,,,,,,,,,,,,,,,,,,,,,,,,,,,,,,,,,,,,,,,,,,,,,,,,,,,,,,,,,,,,,,,
,,61300c2d5a36876db1251ff5,2024-02-21_20h19.12.079,kallum_motion_pilot,2023.2.2,Win32,59.88023952,61300c2d5a36876db1251ff5,65d6bb0e977760de756971f7,65d6bd0f97543519d98f2746,0.0467,0.0467,0,144,144,119,1,eightseven,,,,,,,,,,,,,,,,,,,,,,,,,,,,,,,,,,,,,,,,,,,,,,,,,,,,,,,,,,,,,,,,,,,,,,,,,,,,,,,,,,,,,,,,,,,,,,,,,,,,,,,,,,,,,,,,,,,,,,,,,,,,,,,,,,,,,,,,,
,,61300c2d5a36876db1251ff5,2024-02-21_20h19.12.079,kallum_motion_pilot,2023.2.2,Win32,59.88023952,61300c2d5a36876db1251ff5,65d6bb0e977760de756971f7,65d6bd0f97543519d98f2746,0.0468,0.0469,0,145,145,92,1,sevenfive,,,,,,,,,,,,,,,,,,,,,,,,,,,,,,,,,,,,,,,,,,,,,,,,,,,,,,,,,,,,,,,,,,,,,,,,,,,,,,,,,,,,,,,,,,,,,,,,,,,,,,,,,,,,,,,,,,,,,,,,,,,,,,,,,,,,,,,,,
,,61300c2d5a36876db1251ff5,2024-02-21_20h19.12.079,kallum_motion_pilot,2023.2.2,Win32,59.88023952,61300c2d5a36876db1251ff5,65d6bb0e977760de756971f7,65d6bd0f97543519d98f2746,0.0469,0.0469,0,146,146,135,1,eightseven,,,,,,,,,,,,,,,,,,,,,,,,,,,,,,,,,,,,,,,,,,,,,,,,,,,,,,,,,,,,,,,,,,,,,,,,,,,,,,,,,,,,,,,,,,,,,,,,,,,,,,,,,,,,,,,,,,,,,,,,,,,,,,,,,,,,,,,,,
,,61300c2d5a36876db1251ff5,2024-02-21_20h19.12.079,kallum_motion_pilot,2023.2.2,Win32,59.88023952,61300c2d5a36876db1251ff5,65d6bb0e977760de756971f7,65d6bd0f97543519d98f2746,0.047,0.0471,0,147,147,11,1,twofour,,,,,,,,,,,,,,,,,,,,,,,,,,,,,,,,,,,,,,,,,,,,,,,,,,,,,,,,,,,,,,,,,,,,,,,,,,,,,,,,,,,,,,,,,,,,,,,,,,,,,,,,,,,,,,,,,,,,,,,,,,,,,,,,,,,,,,,,,
,,61300c2d5a36876db1251ff5,2024-02-21_20h19.12.079,kallum_motion_pilot,2023.2.2,Win32,59.88023952,61300c2d5a36876db1251ff5,65d6bb0e977760de756971f7,65d6bd0f97543519d98f2746,0.0471,0.0472,0,148,148,145,1,fiveseven,,,,,,,,,,,,,,,,,,,,,,,,,,,,,,,,,,,,,,,,,,,,,,,,,,,,,,,,,,,,,,,,,,,,,,,,,,,,,,,,,,,,,,,,,,,,,,,,,,,,,,,,,,,,,,,,,,,,,,,,,,,,,,,,,,,,,,,,,
,,61300c2d5a36876db1251ff5,2024-02-21_20h19.12.079,kallum_motion_pilot,2023.2.2,Win32,59.88023952,61300c2d5a36876db1251ff5,65d6bb0e977760de756971f7,65d6bd0f97543519d98f2746,0.0472,0.0472,0,149,149,97,1,fiveseven,,,,,,,,,,,,,,,,,,,,,,,,,,,,,,,,,,,,,,,,,,,,,,,,,,,,,,,,,,,,,,,,,,,,,,,,,,,,,,,,,,,,,,,,,,,,,,,,,,,,,,,,,,,,,,,,,,,,,,,,,,,,,,,,,,,,,,,,,
,,61300c2d5a36876db1251ff5,2024-02-21_20h19.12.079,kallum_motion_pilot,2023.2.2,Win32,59.88023952,61300c2d5a36876db1251ff5,65d6bb0e977760de756971f7,65d6bd0f97543519d98f2746,0.0474,0.0474,0,150,150,151,1,eightseven,,,,,,,,,,,,,,,,,,,,,,,,,,,,,,,,,,,,,,,,,,,,,,,,,,,,,,,,,,,,,,,,,,,,,,,,,,,,,,,,,,,,,,,,,,,,,,,,,,,,,,,,,,,,,,,,,,,,,,,,,,,,,,,,,,,,,,,,,
,,61300c2d5a36876db1251ff5,2024-02-21_20h19.12.079,kallum_motion_pilot,2023.2.2,Win32,59.88023952,61300c2d5a36876db1251ff5,65d6bb0e977760de756971f7,65d6bd0f97543519d98f2746,0.0474,0.0474,0,151,151,33,1,onethree,,,,,,,,,,,,,,,,,,,,,,,,,,,,,,,,,,,,,,,,,,,,,,,,,,,,,,,,,,,,,,,,,,,,,,,,,,,,,,,,,,,,,,,,,,,,,,,,,,,,,,,,,,,,,,,,,,,,,,,,,,,,,,,,,,,,,,,,,
,,61300c2d5a36876db1251ff5,2024-02-21_20h19.12.079,kallum_motion_pilot,2023.2.2,Win32,59.88023952,61300c2d5a36876db1251ff5,65d6bb0e977760de756971f7,65d6bd0f97543519d98f2746,0.0475,0.0476,0,152,152,66,1,twoone,,,,,,,,,,,,,,,,,,,,,,,,,,,,,,,,,,,,,,,,,,,,,,,,,,,,,,,,,,,,,,,,,,,,,,,,,,,,,,,,,,,,,,,,,,,,,,,,,,,,,,,,,,,,,,,,,,,,,,,,,,,,,,,,,,,,,,,,,
,,61300c2d5a36876db1251ff5,2024-02-21_20h19.12.079,kallum_motion_pilot,2023.2.2,Win32,59.88023952,61300c2d5a36876db1251ff5,65d6bb0e977760de756971f7,65d6bd0f97543519d98f2746,0.0477,0.0477,0,153,153,91,1,sixeight,,,,,,,,,,,,,,,,,,,,,,,,,,,,,,,,,,,,,,,,,,,,,,,,,,,,,,,,,,,,,,,,,,,,,,,,,,,,,,,,,,,,,,,,,,,,,,,,,,,,,,,,,,,,,,,,,,,,,,,,,,,,,,,,,,,,,,,,,
,,61300c2d5a36876db1251ff5,2024-02-21_20h19.12.079,kallum_motion_pilot,2023.2.2,Win32,59.88023952,61300c2d5a36876db1251ff5,65d6bb0e977760de756971f7,65d6bd0f97543519d98f2746,0.0477,0.0478,0,154,154,98,1,sixfive,,,,,,,,,,,,,,,,,,,,,,,,,,,,,,,,,,,,,,,,,,,,,,,,,,,,,,,,,,,,,,,,,,,,,,,,,,,,,,,,,,,,,,,,,,,,,,,,,,,,,,,,,,,,,,,,,,,,,,,,,,,,,,,,,,,,,,,,,
,,61300c2d5a36876db1251ff5,2024-02-21_20h19.12.079,kallum_motion_pilot,2023.2.2,Win32,59.88023952,61300c2d5a36876db1251ff5,65d6bb0e977760de756971f7,65d6bd0f97543519d98f2746,0.0479,0.048,0,155,155,5,1,threefour,,,,,,,,,,,,,,,,,,,,,,,,,,,,,,,,,,,,,,,,,,,,,,,,,,,,,,,,,,,,,,,,,,,,,,,,,,,,,,,,,,,,,,,,,,,,,,,,,,,,,,,,,,,,,,,,,,,,,,,,,,,,,,,,,,,,,,,,,
,,61300c2d5a36876db1251ff5,2024-02-21_20h19.12.079,kallum_motion_pilot,2023.2.2,Win32,59.88023952,61300c2d5a36876db1251ff5,65d6bb0e977760de756971f7,65d6bd0f97543519d98f2746,0.048,0.0481,0,156,156,30,1,fourtwo,,,,,,,,,,,,,,,,,,,,,,,,,,,,,,,,,,,,,,,,,,,,,,,,,,,,,,,,,,,,,,,,,,,,,,,,,,,,,,,,,,,,,,,,,,,,,,,,,,,,,,,,,,,,,,,,,,,,,,,,,,,,,,,,,,,,,,,,,
,,61300c2d5a36876db1251ff5,2024-02-21_20h19.12.079,kallum_motion_pilot,2023.2.2,Win32,59.88023952,61300c2d5a36876db1251ff5,65d6bb0e977760de756971f7,65d6bd0f97543519d98f2746,0.0481,0.0481,0,157,157,12,1,threeone,,,,,,,,,,,,,,,,,,,,,,,,,,,,,,,,,,,,,,,,,,,,,,,,,,,,,,,,,,,,,,,,,,,,,,,,,,,,,,,,,,,,,,,,,,,,,,,,,,,,,,,,,,,,,,,,,,,,,,,,,,,,,,,,,,,,,,,,,
,,61300c2d5a36876db1251ff5,2024-02-21_20h19.12.079,kallum_motion_pilot,2023.2.2,Win32,59.88023952,61300c2d5a36876db1251ff5,65d6bb0e977760de756971f7,65d6bd0f97543519d98f2746,0.0482,0.0482,0,158,158,74,1,twoone,,,,,,,,,,,,,,,,,,,,,,,,,,,,,,,,,,,,,,,,,,,,,,,,,,,,,,,,,,,,,,,,,,,,,,,,,,,,,,,,,,,,,,,,,,,,,,,,,,,,,,,,,,,,,,,,,,,,,,,,,,,,,,,,,,,,,,,,,
,,61300c2d5a36876db1251ff5,2024-02-21_20h19.12.079,kallum_motion_pilot,2023.2.2,Win32,59.88023952,61300c2d5a36876db1251ff5,65d6bb0e977760de756971f7,65d6bd0f97543519d98f2746,0.0483,0.0483,0,159,159,110,1,eightsix,,,,,,,,,,,,,,,,,,,,,,,,,,,,,,,,,,,,,,,,,,,,,,,,,,,,,,,,,,,,,,,,,,,,,,,,,,,,,,,,,,,,,,,,,,,,,,,,,,,,,,,,,,,,,,,,,,,,,,,,,,,,,,,,,,,,,,,,,
,,61300c2d5a36876db1251ff5,2024-02-21_20h19.12.079,kallum_motion_pilot,2023.2.2,Win32,59.88023952,61300c2d5a36876db1251ff5,65d6bb0e977760de756971f7,65d6bd0f97543519d98f2746,0.0484,0.0484,0,160,160,103,1,eightseven,,,,,,,,,,,,,,,,,,,,,,,,,,,,,,,,,,,,,,,,,,,,,,,,,,,,,,,,,,,,,,,,,,,,,,,,,,,,,,,,,,,,,,,,,,,,,,,,,,,,,,,,,,,,,,,,,,,,,,,,,,,,,,,,,,,,,,,,,
,,61300c2d5a36876db1251ff5,2024-02-21_20h19.12.079,kallum_motion_pilot,2023.2.2,Win32,59.88023952,61300c2d5a36876db1251ff5,65d6bb0e977760de756971f7,65d6bd0f97543519d98f2746,0.0486,0.0486,0,161,161,44,1,threeone,,,,,,,,,,,,,,,,,,,,,,,,,,,,,,,,,,,,,,,,,,,,,,,,,,,,,,,,,,,,,,,,,,,,,,,,,,,,,,,,,,,,,,,,,,,,,,,,,,,,,,,,,,,,,,,,,,,,,,,,,,,,,,,,,,,,,,,,,
,,61300c2d5a36876db1251ff5,2024-02-21_20h19.12.079,kallum_motion_pilot,2023.2.2,Win32,59.88023952,61300c2d5a36876db1251ff5,65d6bb0e977760de756971f7,65d6bd0f97543519d98f2746,0.0487,0.0487,1,0,162,153,1,fiveseven,,,,,,,,,,,,,,,,,,,,,,,,,,,,,,,,,,,,,,,,,,,,,,,,,,,,,,,,,,,,,,,,,,,,,,,,,,,,,,,,,,,,,,,,,,,,,,,,,,,,,,,,,,,,,,,,,,,,,,,,,,,,,,,,,,,,,,,,,
,,61300c2d5a36876db1251ff5,2024-02-21_20h19.12.079,kallum_motion_pilot,2023.2.2,Win32,59.88023952,61300c2d5a36876db1251ff5,65d6bb0e977760de756971f7,65d6bd0f97543519d98f2746,0.0488,0.0489,1,1,163,19,1,twofour,,,,,,,,,,,,,,,,,,,,,,,,,,,,,,,,,,,,,,,,,,,,,,,,,,,,,,,,,,,,,,,,,,,,,,,,,,,,,,,,,,,,,,,,,,,,,,,,,,,,,,,,,,,,,,,,,,,,,,,,,,,,,,,,,,,,,,,,,
,,61300c2d5a36876db1251ff5,2024-02-21_20h19.12.079,kallum_motion_pilot,2023.2.2,Win32,59.88023952,61300c2d5a36876db1251ff5,65d6bb0e977760de756971f7,65d6bd0f97543519d98f2746,0.0489,0.0489,1,2,164,4,1,threeone,,,,,,,,,,,,,,,,,,,,,,,,,,,,,,,,,,,,,,,,,,,,,,,,,,,,,,,,,,,,,,,,,,,,,,,,,,,,,,,,,,,,,,,,,,,,,,,,,,,,,,,,,,,,,,,,,,,,,,,,,,,,,,,,,,,,,,,,,
,,61300c2d5a36876db1251ff5,2024-02-21_20h19.12.079,kallum_motion_pilot,2023.2.2,Win32,59.88023952,61300c2d5a36876db1251ff5,65d6bb0e977760de756971f7,65d6bd0f97543519d98f2746,0.049,0.049,1,3,165,53,1,threefour,,,,,,,,,,,,,,,,,,,,,,,,,,,,,,,,,,,,,,,,,,,,,,,,,,,,,,,,,,,,,,,,,,,,,,,,,,,,,,,,,,,,,,,,,,,,,,,,,,,,,,,,,,,,,,,,,,,,,,,,,,,,,,,,,,,,,,,,,
,,61300c2d5a36876db1251ff5,2024-02-21_20h19.12.079,kallum_motion_pilot,2023.2.2,Win32,59.88023952,61300c2d5a36876db1251ff5,65d6bb0e977760de756971f7,65d6bd0f97543519d98f2746,0.0491,0.0491,1,4,166,64,1,onetwo,,,,,,,,,,,,,,,,,,,,,,,,,,,,,,,,,,,,,,,,,,,,,,,,,,,,,,,,,,,,,,,,,,,,,,,,,,,,,,,,,,,,,,,,,,,,,,,,,,,,,,,,,,,,,,,,,,,,,,,,,,,,,,,,,,,,,,,,,
,,61300c2d5a36876db1251ff5,2024-02-21_20h19.12.079,kallum_motion_pilot,2023.2.2,Win32,59.88023952,61300c2d5a36876db1251ff5,65d6bb0e977760de756971f7,65d6bd0f97543519d98f2746,0.0491,0.0492,1,5,167,65,1,onethree,,,,,,,,,,,,,,,,,,,,,,,,,,,,,,,,,,,,,,,,,,,,,,,,,,,,,,,,,,,,,,,,,,,,,,,,,,,,,,,,,,,,,,,,,,,,,,,,,,,,,,,,,,,,,,,,,,,,,,,,,,,,,,,,,,,,,,,,,
,,61300c2d5a36876db1251ff5,2024-02-21_20h19.12.079,kallum_motion_pilot,2023.2.2,Win32,59.88023952,61300c2d5a36876db1251ff5,65d6bb0e977760de756971f7,65d6bd0f97543519d98f2746,0.0493,0.0493,1,6,168,31,1,fourthree,,,,,,,,,,,,,,,,,,,,,,,,,,,,,,,,,,,,,,,,,,,,,,,,,,,,,,,,,,,,,,,,,,,,,,,,,,,,,,,,,,,,,,,,,,,,,,,,,,,,,,,,,,,,,,,,,,,,,,,,,,,,,,,,,,,,,,,,,
,,61300c2d5a36876db1251ff5,2024-02-21_20h19.12.079,kallum_motion_pilot,2023.2.2,Win32,59.88023952,61300c2d5a36876db1251ff5,65d6bb0e977760de756971f7,65d6bd0f97543519d98f2746,0.0494,0.0494,1,7,169,96,1,fivesix,,,,,,,,,,,,,,,,,,,,,,,,,,,,,,,,,,,,,,,,,,,,,,,,,,,,,,,,,,,,,,,,,,,,,,,,,,,,,,,,,,,,,,,,,,,,,,,,,,,,,,,,,,,,,,,,,,,,,,,,,,,,,,,,,,,,,,,,,
,,61300c2d5a36876db1251ff5,2024-02-21_20h19.12.079,kallum_motion_pilot,2023.2.2,Win32,59.88023952,61300c2d5a36876db1251ff5,65d6bb0e977760de756971f7,65d6bd0f97543519d98f2746,0.0495,0.0495,1,8,170,76,1,threeone,,,,,,,,,,,,,,,,,,,,,,,,,,,,,,,,,,,,,,,,,,,,,,,,,,,,,,,,,,,,,,,,,,,,,,,,,,,,,,,,,,,,,,,,,,,,,,,,,,,,,,,,,,,,,,,,,,,,,,,,,,,,,,,,,,,,,,,,,
,,61300c2d5a36876db1251ff5,2024-02-21_20h19.12.079,kallum_motion_pilot,2023.2.2,Win32,59.88023952,61300c2d5a36876db1251ff5,65d6bb0e977760de756971f7,65d6bd0f97543519d98f2746,0.0496,0.0497,1,9,171,155,1,sixeight,,,,,,,,,,,,,,,,,,,,,,,,,,,,,,,,,,,,,,,,,,,,,,,,,,,,,,,,,,,,,,,,,,,,,,,,,,,,,,,,,,,,,,,,,,,,,,,,,,,,,,,,,,,,,,,,,,,,,,,,,,,,,,,,,,,,,,,,,
,,61300c2d5a36876db1251ff5,2024-02-21_20h19.12.079,kallum_motion_pilot,2023.2.2,Win32,59.88023952,61300c2d5a36876db1251ff5,65d6bb0e977760de756971f7,65d6bd0f97543519d98f2746,0.0497,0.0497,1,10,172,93,1,seveneight,,,,,,,,,,,,,,,,,,,,,,,,,,,,,,,,,,,,,,,,,,,,,,,,,,,,,,,,,,,,,,,,,,,,,,,,,,,,,,,,,,,,,,,,,,,,,,,,,,,,,,,,,,,,,,,,,,,,,,,,,,,,,,,,,,,,,,,,,
,,61300c2d5a36876db1251ff5,2024-02-21_20h19.12.079,kallum_motion_pilot,2023.2.2,Win32,59.88023952,61300c2d5a36876db1251ff5,65d6bb0e977760de756971f7,65d6bd0f97543519d98f2746,0.0497,0.0498,1,11,173,47,1,fourthree,,,,,,,,,,,,,,,,,,,,,,,,,,,,,,,,,,,,,,,,,,,,,,,,,,,,,,,,,,,,,,,,,,,,,,,,,,,,,,,,,,,,,,,,,,,,,,,,,,,,,,,,,,,,,,,,,,,,,,,,,,,,,,,,,,,,,,,,,
,,61300c2d5a36876db1251ff5,2024-02-21_20h19.12.079,kallum_motion_pilot,2023.2.2,Win32,59.88023952,61300c2d5a36876db1251ff5,65d6bb0e977760de756971f7,65d6bd0f97543519d98f2746,0.0498,0.05,1,12,174,21,1,threefour,,,,,,,,,,,,,,,,,,,,,,,,,,,,,,,,,,,,,,,,,,,,,,,,,,,,,,,,,,,,,,,,,,,,,,,,,,,,,,,,,,,,,,,,,,,,,,,,,,,,,,,,,,,,,,,,,,,,,,,,,,,,,,,,,,,,,,,,,
,,61300c2d5a36876db1251ff5,2024-02-21_20h19.12.079,kallum_motion_pilot,2023.2.2,Win32,59.88023952,61300c2d5a36876db1251ff5,65d6bb0e977760de756971f7,65d6bd0f97543519d98f2746,0.05,0.0501,1,13,175,57,1,onethree,,,,,,,,,,,,,,,,,,,,,,,,,,,,,,,,,,,,,,,,,,,,,,,,,,,,,,,,,,,,,,,,,,,,,,,,,,,,,,,,,,,,,,,,,,,,,,,,,,,,,,,,,,,,,,,,,,,,,,,,,,,,,,,,,,,,,,,,,
,,61300c2d5a36876db1251ff5,2024-02-21_20h19.12.079,kallum_motion_pilot,2023.2.2,Win32,59.88023952,61300c2d5a36876db1251ff5,65d6bb0e977760de756971f7,65d6bd0f97543519d98f2746,0.0501,0.0501,1,14,176,13,1,threefour,,,,,,,,,,,,,,,,,,,,,,,,,,,,,,,,,,,,,,,,,,,,,,,,,,,,,,,,,,,,,,,,,,,,,,,,,,,,,,,,,,,,,,,,,,,,,,,,,,,,,,,,,,,,,,,,,,,,,,,,,,,,,,,,,,,,,,,,,
,,61300c2d5a36876db1251ff5,2024-02-21_20h19.12.079,kallum_motion_pilot,2023.2.2,Win32,59.88023952,61300c2d5a36876db1251ff5,65d6bb0e977760de756971f7,65d6bd0f97543519d98f2746,0.0501,0.0503,1,15,177,56,1,onetwo,,,,,,,,,,,,,,,,,,,,,,,,,,,,,,,,,,,,,,,,,,,,,,,,,,,,,,,,,,,,,,,,,,,,,,,,,,,,,,,,,,,,,,,,,,,,,,,,,,,,,,,,,,,,,,,,,,,,,,,,,,,,,,,,,,,,,,,,,
,,61300c2d5a36876db1251ff5,2024-02-21_20h19.12.079,kallum_motion_pilot,2023.2.2,Win32,59.88023952,61300c2d5a36876db1251ff5,65d6bb0e977760de756971f7,65d6bd0f97543519d98f2746,0.0503,0.0503,1,16,178,88,1,fivesix,,,,,,,,,,,,,,,,,,,,,,,,,,,,,,,,,,,,,,,,,,,,,,,,,,,,,,,,,,,,,,,,,,,,,,,,,,,,,,,,,,,,,,,,,,,,,,,,,,,,,,,,,,,,,,,,,,,,,,,,,,,,,,,,,,,,,,,,,
,,61300c2d5a36876db1251ff5,2024-02-21_20h19.12.079,kallum_motion_pilot,2023.2.2,Win32,59.88023952,61300c2d5a36876db1251ff5,65d6bb0e977760de756971f7,65d6bd0f97543519d98f2746,0.0504,0.0505,1,17,179,62,1,fourtwo,,,,,,,,,,,,,,,,,,,,,,,,,,,,,,,,,,,,,,,,,,,,,,,,,,,,,,,,,,,,,,,,,,,,,,,,,,,,,,,,,,,,,,,,,,,,,,,,,,,,,,,,,,,,,,,,,,,,,,,,,,,,,,,,,,,,,,,,,
,,61300c2d5a36876db1251ff5,2024-02-21_20h19.12.079,kallum_motion_pilot,2023.2.2,Win32,59.88023952,61300c2d5a36876db1251ff5,65d6bb0e977760de756971f7,65d6bd0f97543519d98f2746,0.0505,0.0505,1,18,180,9,1,onethree,,,,,,,,,,,,,,,,,,,,,,,,,,,,,,,,,,,,,,,,,,,,,,,,,,,,,,,,,,,,,,,,,,,,,,,,,,,,,,,,,,,,,,,,,,,,,,,,,,,,,,,,,,,,,,,,,,,,,,,,,,,,,,,,,,,,,,,,,
,,61300c2d5a36876db1251ff5,2024-02-21_20h19.12.079,kallum_motion_pilot,2023.2.2,Win32,59.88023952,61300c2d5a36876db1251ff5,65d6bb0e977760de756971f7,65d6bd0f97543519d98f2746,0.0506,0.0507,1,19,181,32,1,onetwo,,,,,,,,,,,,,,,,,,,,,,,,,,,,,,,,,,,,,,,,,,,,,,,,,,,,,,,,,,,,,,,,,,,,,,,,,,,,,,,,,,,,,,,,,,,,,,,,,,,,,,,,,,,,,,,,,,,,,,,,,,,,,,,,,,,,,,,,,
,,61300c2d5a36876db1251ff5,2024-02-21_20h19.12.079,kallum_motion_pilot,2023.2.2,Win32,59.88023952,61300c2d5a36876db1251ff5,65d6bb0e977760de756971f7,65d6bd0f97543519d98f2746,0.0507,0.0507,1,20,182,63,1,fourthree,,,,,,,,,,,,,,,,,,,,,,,,,,,,,,,,,,,,,,,,,,,,,,,,,,,,,,,,,,,,,,,,,,,,,,,,,,,,,,,,,,,,,,,,,,,,,,,,,,,,,,,,,,,,,,,,,,,,,,,,,,,,,,,,,,,,,,,,,
,,61300c2d5a36876db1251ff5,2024-02-21_20h19.12.079,kallum_motion_pilot,2023.2.2,Win32,59.88023952,61300c2d5a36876db1251ff5,65d6bb0e977760de756971f7,65d6bd0f97543519d98f2746,0.0508,0.0509,1,21,183,129,1,fiveseven,,,,,,,,,,,,,,,,,,,,,,,,,,,,,,,,,,,,,,,,,,,,,,,,,,,,,,,,,,,,,,,,,,,,,,,,,,,,,,,,,,,,,,,,,,,,,,,,,,,,,,,,,,,,,,,,,,,,,,,,,,,,,,,,,,,,,,,,,
,,61300c2d5a36876db1251ff5,2024-02-21_20h19.12.079,kallum_motion_pilot,2023.2.2,Win32,59.88023952,61300c2d5a36876db1251ff5,65d6bb0e977760de756971f7,65d6bd0f97543519d98f2746,0.0509,0.051,1,22,184,8,1,onetwo,,,,,,,,,,,,,,,,,,,,,,,,,,,,,,,,,,,,,,,,,,,,,,,,,,,,,,,,,,,,,,,,,,,,,,,,,,,,,,,,,,,,,,,,,,,,,,,,,,,,,,,,,,,,,,,,,,,,,,,,,,,,,,,,,,,,,,,,,
,,61300c2d5a36876db1251ff5,2024-02-21_20h19.12.079,kallum_motion_pilot,2023.2.2,Win32,59.88023952,61300c2d5a36876db1251ff5,65d6bb0e977760de756971f7,65d6bd0f97543519d98f2746,0.0511,0.0511,1,23,185,136,1,fivesix,,,,,,,,,,,,,,,,,,,,,,,,,,,,,,,,,,,,,,,,,,,,,,,,,,,,,,,,,,,,,,,,,,,,,,,,,,,,,,,,,,,,,,,,,,,,,,,,,,,,,,,,,,,,,,,,,,,,,,,,,,,,,,,,,,,,,,,,,
,,61300c2d5a36876db1251ff5,2024-02-21_20h19.12.079,kallum_motion_pilot,2023.2.2,Win32,59.88023952,61300c2d5a36876db1251ff5,65d6bb0e977760de756971f7,65d6bd0f97543519d98f2746,0.0512,0.0512,1,24,186,110,1,eightsix,,,,,,,,,,,,,,,,,,,,,,,,,,,,,,,,,,,,,,,,,,,,,,,,,,,,,,,,,,,,,,,,,,,,,,,,,,,,,,,,,,,,,,,,,,,,,,,,,,,,,,,,,,,,,,,,,,,,,,,,,,,,,,,,,,,,,,,,,
,,61300c2d5a36876db1251ff5,2024-02-21_20h19.12.079,kallum_motion_pilot,2023.2.2,Win32,59.88023952,61300c2d5a36876db1251ff5,65d6bb0e977760de756971f7,65d6bd0f97543519d98f2746,0.0513,0.0514,1,25,187,73,1,onethree,,,,,,,,,,,,,,,,,,,,,,,,,,,,,,,,,,,,,,,,,,,,,,,,,,,,,,,,,,,,,,,,,,,,,,,,,,,,,,,,,,,,,,,,,,,,,,,,,,,,,,,,,,,,,,,,,,,,,,,,,,,,,,,,,,,,,,,,,
,,61300c2d5a36876db1251ff5,2024-02-21_20h19.12.079,kallum_motion_pilot,2023.2.2,Win32,59.88023952,61300c2d5a36876db1251ff5,65d6bb0e977760de756971f7,65d6bd0f97543519d98f2746,0.0514,0.0514,1,26,188,122,1,sixfive,,,,,,,,,,,,,,,,,,,,,,,,,,,,,,,,,,,,,,,,,,,,,,,,,,,,,,,,,,,,,,,,,,,,,,,,,,,,,,,,,,,,,,,,,,,,,,,,,,,,,,,,,,,,,,,,,,,,,,,,,,,,,,,,,,,,,,,,,
,,61300c2d5a36876db1251ff5,2024-02-21_20h19.12.079,kallum_motion_pilot,2023.2.2,Win32,59.88023952,61300c2d5a36876db1251ff5,65d6bb0e977760de756971f7,65d6bd0f97543519d98f2746,0.0515,0.0516,1,27,189,16,1,onetwo,,,,,,,,,,,,,,,,,,,,,,,,,,,,,,,,,,,,,,,,,,,,,,,,,,,,,,,,,,,,,,,,,,,,,,,,,,,,,,,,,,,,,,,,,,,,,,,,,,,,,,,,,,,,,,,,,,,,,,,,,,,,,,,,,,,,,,,,,
,,61300c2d5a36876db1251ff5,2024-02-21_20h19.12.079,kallum_motion_pilot,2023.2.2,Win32,59.88023952,61300c2d5a36876db1251ff5,65d6bb0e977760de756971f7,65d6bd0f97543519d98f2746,0.0516,0.0516,1,28,190,95,1,eightseven,,,,,,,,,,,,,,,,,,,,,,,,,,,,,,,,,,,,,,,,,,,,,,,,,,,,,,,,,,,,,,,,,,,,,,,,,,,,,,,,,,,,,,,,,,,,,,,,,,,,,,,,,,,,,,,,,,,,,,,,,,,,,,,,,,,,,,,,,
,,61300c2d5a36876db1251ff5,2024-02-21_20h19.12.079,kallum_motion_pilot,2023.2.2,Win32,59.88023952,61300c2d5a36876db1251ff5,65d6bb0e977760de756971f7,65d6bd0f97543519d98f2746,0.0517,0.0518,1,29,191,106,1,sixfive,,,,,,,,,,,,,,,,,,,,,,,,,,,,,,,,,,,,,,,,,,,,,,,,,,,,,,,,,,,,,,,,,,,,,,,,,,,,,,,,,,,,,,,,,,,,,,,,,,,,,,,,,,,,,,,,,,,,,,,,,,,,,,,,,,,,,,,,,
,,61300c2d5a36876db1251ff5,2024-02-21_20h19.12.079,kallum_motion_pilot,2023.2.2,Win32,59.88023952,61300c2d5a36876db1251ff5,65d6bb0e977760de756971f7,65d6bd0f97543519d98f2746,0.0519,0.0519,1,30,192,143,1,eightseven,,,,,,,,,,,,,,,,,,,,,,,,,,,,,,,,,,,,,,,,,,,,,,,,,,,,,,,,,,,,,,,,,,,,,,,,,,,,,,,,,,,,,,,,,,,,,,,,,,,,,,,,,,,,,,,,,,,,,,,,,,,,,,,,,,,,,,,,,
,,61300c2d5a36876db1251ff5,2024-02-21_20h19.12.079,kallum_motion_pilot,2023.2.2,Win32,59.88023952,61300c2d5a36876db1251ff5,65d6bb0e977760de756971f7,65d6bd0f97543519d98f2746,0.052,0.052,1,31,193,120,1,fivesix,,,,,,,,,,,,,,,,,,,,,,,,,,,,,,,,,,,,,,,,,,,,,,,,,,,,,,,,,,,,,,,,,,,,,,,,,,,,,,,,,,,,,,,,,,,,,,,,,,,,,,,,,,,,,,,,,,,,,,,,,,,,,,,,,,,,,,,,,
,,61300c2d5a36876db1251ff5,2024-02-21_20h19.12.079,kallum_motion_pilot,2023.2.2,Win32,59.88023952,61300c2d5a36876db1251ff5,65d6bb0e977760de756971f7,65d6bd0f97543519d98f2746,0.052,0.0521,1,32,194,15,1,fourthree,,,,,,,,,,,,,,,,,,,,,,,,,,,,,,,,,,,,,,,,,,,,,,,,,,,,,,,,,,,,,,,,,,,,,,,,,,,,,,,,,,,,,,,,,,,,,,,,,,,,,,,,,,,,,,,,,,,,,,,,,,,,,,,,,,,,,,,,,
,,61300c2d5a36876db1251ff5,2024-02-21_20h19.12.079,kallum_motion_pilot,2023.2.2,Win32,59.88023952,61300c2d5a36876db1251ff5,65d6bb0e977760de756971f7,65d6bd0f97543519d98f2746,0.0522,0.0522,1,33,195,84,1,sevenfive,,,,,,,,,,,,,,,,,,,,,,,,,,,,,,,,,,,,,,,,,,,,,,,,,,,,,,,,,,,,,,,,,,,,,,,,,,,,,,,,,,,,,,,,,,,,,,,,,,,,,,,,,,,,,,,,,,,,,,,,,,,,,,,,,,,,,,,,,
,,61300c2d5a36876db1251ff5,2024-02-21_20h19.12.079,kallum_motion_pilot,2023.2.2,Win32,59.88023952,61300c2d5a36876db1251ff5,65d6bb0e977760de756971f7,65d6bd0f97543519d98f2746,0.0522,0.0523,1,34,196,94,1,eightsix,,,,,,,,,,,,,,,,,,,,,,,,,,,,,,,,,,,,,,,,,,,,,,,,,,,,,,,,,,,,,,,,,,,,,,,,,,,,,,,,,,,,,,,,,,,,,,,,,,,,,,,,,,,,,,,,,,,,,,,,,,,,,,,,,,,,,,,,,
,,61300c2d5a36876db1251ff5,2024-02-21_20h19.12.079,kallum_motion_pilot,2023.2.2,Win32,59.88023952,61300c2d5a36876db1251ff5,65d6bb0e977760de756971f7,65d6bd0f97543519d98f2746,0.0523,0.0523,1,35,197,108,1,sevenfive,,,,,,,,,,,,,,,,,,,,,,,,,,,,,,,,,,,,,,,,,,,,,,,,,,,,,,,,,,,,,,,,,,,,,,,,,,,,,,,,,,,,,,,,,,,,,,,,,,,,,,,,,,,,,,,,,,,,,,,,,,,,,,,,,,,,,,,,,
,,61300c2d5a36876db1251ff5,2024-02-21_20h19.12.079,kallum_motion_pilot,2023.2.2,Win32,59.88023952,61300c2d5a36876db1251ff5,65d6bb0e977760de756971f7,65d6bd0f97543519d98f2746,0.0524,0.0525,1,36,198,126,1,eightsix,,,,,,,,,,,,,,,,,,,,,,,,,,,,,,,,,,,,,,,,,,,,,,,,,,,,,,,,,,,,,,,,,,,,,,,,,,,,,,,,,,,,,,,,,,,,,,,,,,,,,,,,,,,,,,,,,,,,,,,,,,,,,,,,,,,,,,,,,
,,61300c2d5a36876db1251ff5,2024-02-21_20h19.12.079,kallum_motion_pilot,2023.2.2,Win32,59.88023952,61300c2d5a36876db1251ff5,65d6bb0e977760de756971f7,65d6bd0f97543519d98f2746,0.0525,0.0526,1,37,199,151,1,eightseven,,,,,,,,,,,,,,,,,,,,,,,,,,,,,,,,,,,,,,,,,,,,,,,,,,,,,,,,,,,,,,,,,,,,,,,,,,,,,,,,,,,,,,,,,,,,,,,,,,,,,,,,,,,,,,,,,,,,,,,,,,,,,,,,,,,,,,,,,
,,61300c2d5a36876db1251ff5,2024-02-21_20h19.12.079,kallum_motion_pilot,2023.2.2,Win32,59.88023952,61300c2d5a36876db1251ff5,65d6bb0e977760de756971f7,65d6bd0f97543519d98f2746,0.0527,0.0527,1,38,200,85,1,seveneight,,,,,,,,,,,,,,,,,,,,,,,,,,,,,,,,,,,,,,,,,,,,,,,,,,,,,,,,,,,,,,,,,,,,,,,,,,,,,,,,,,,,,,,,,,,,,,,,,,,,,,,,,,,,,,,,,,,,,,,,,,,,,,,,,,,,,,,,,
,,61300c2d5a36876db1251ff5,2024-02-21_20h19.12.079,kallum_motion_pilot,2023.2.2,Win32,59.88023952,61300c2d5a36876db1251ff5,65d6bb0e977760de756971f7,65d6bd0f97543519d98f2746,0.0528,0.0529,1,39,201,113,1,fiveseven,,,,,,,,,,,,,,,,,,,,,,,,,,,,,,,,,,,,,,,,,,,,,,,,,,,,,,,,,,,,,,,,,,,,,,,,,,,,,,,,,,,,,,,,,,,,,,,,,,,,,,,,,,,,,,,,,,,,,,,,,,,,,,,,,,,,,,,,,
,,61300c2d5a36876db1251ff5,2024-02-21_20h19.12.079,kallum_motion_pilot,2023.2.2,Win32,59.88023952,61300c2d5a36876db1251ff5,65d6bb0e977760de756971f7,65d6bd0f97543519d98f2746,0.0529,0.0529,1,40,202,139,1,sixeight,,,,,,,,,,,,,,,,,,,,,,,,,,,,,,,,,,,,,,,,,,,,,,,,,,,,,,,,,,,,,,,,,,,,,,,,,,,,,,,,,,,,,,,,,,,,,,,,,,,,,,,,,,,,,,,,,,,,,,,,,,,,,,,,,,,,,,,,,
,,61300c2d5a36876db1251ff5,2024-02-21_20h19.12.079,kallum_motion_pilot,2023.2.2,Win32,59.88023952,61300c2d5a36876db1251ff5,65d6bb0e977760de756971f7,65d6bd0f97543519d98f2746,0.053,0.0531,1,41,203,149,1,seveneight,,,,,,,,,,,,,,,,,,,,,,,,,,,,,,,,,,,,,,,,,,,,,,,,,,,,,,,,,,,,,,,,,,,,,,,,,,,,,,,,,,,,,,,,,,,,,,,,,,,,,,,,,,,,,,,,,,,,,,,,,,,,,,,,,,,,,,,,,
,,61300c2d5a36876db1251ff5,2024-02-21_20h19.12.079,kallum_motion_pilot,2023.2.2,Win32,59.88023952,61300c2d5a36876db1251ff5,65d6bb0e977760de756971f7,65d6bd0f97543519d98f2746,0.0531,0.0532,1,42,204,127,1,eightseven,,,,,,,,,,,,,,,,,,,,,,,,,,,,,,,,,,,,,,,,,,,,,,,,,,,,,,,,,,,,,,,,,,,,,,,,,,,,,,,,,,,,,,,,,,,,,,,,,,,,,,,,,,,,,,,,,,,,,,,,,,,,,,,,,,,,,,,,,
,,61300c2d5a36876db1251ff5,2024-02-21_20h19.12.079,kallum_motion_pilot,2023.2.2,Win32,59.88023952,61300c2d5a36876db1251ff5,65d6bb0e977760de756971f7,65d6bd0f97543519d98f2746,0.0532,0.0533,1,43,205,10,1,twoone,,,,,,,,,,,,,,,,,,,,,,,,,,,,,,,,,,,,,,,,,,,,,,,,,,,,,,,,,,,,,,,,,,,,,,,,,,,,,,,,,,,,,,,,,,,,,,,,,,,,,,,,,,,,,,,,,,,,,,,,,,,,,,,,,,,,,,,,,
,,61300c2d5a36876db1251ff5,2024-02-21_20h19.12.079,kallum_motion_pilot,2023.2.2,Win32,59.88023952,61300c2d5a36876db1251ff5,65d6bb0e977760de756971f7,65d6bd0f97543519d98f2746,0.0534,0.0534,1,44,206,154,1,sixfive,,,,,,,,,,,,,,,,,,,,,,,,,,,,,,,,,,,,,,,,,,,,,,,,,,,,,,,,,,,,,,,,,,,,,,,,,,,,,,,,,,,,,,,,,,,,,,,,,,,,,,,,,,,,,,,,,,,,,,,,,,,,,,,,,,,,,,,,,
,,61300c2d5a36876db1251ff5,2024-02-21_20h19.12.079,kallum_motion_pilot,2023.2.2,Win32,59.88023952,61300c2d5a36876db1251ff5,65d6bb0e977760de756971f7,65d6bd0f97543519d98f2746,0.0534,0.0535,1,45,207,128,1,fivesix,,,,,,,,,,,,,,,,,,,,,,,,,,,,,,,,,,,,,,,,,,,,,,,,,,,,,,,,,,,,,,,,,,,,,,,,,,,,,,,,,,,,,,,,,,,,,,,,,,,,,,,,,,,,,,,,,,,,,,,,,,,,,,,,,,,,,,,,,
,,61300c2d5a36876db1251ff5,2024-02-21_20h19.12.079,kallum_motion_pilot,2023.2.2,Win32,59.88023952,61300c2d5a36876db1251ff5,65d6bb0e977760de756971f7,65d6bd0f97543519d98f2746,0.0536,0.0536,1,46,208,158,1,eightsix,,,,,,,,,,,,,,,,,,,,,,,,,,,,,,,,,,,,,,,,,,,,,,,,,,,,,,,,,,,,,,,,,,,,,,,,,,,,,,,,,,,,,,,,,,,,,,,,,,,,,,,,,,,,,,,,,,,,,,,,,,,,,,,,,,,,,,,,,
,,61300c2d5a36876db1251ff5,2024-02-21_20h19.12.079,kallum_motion_pilot,2023.2.2,Win32,59.88023952,61300c2d5a36876db1251ff5,65d6bb0e977760de756971f7,65d6bd0f97543519d98f2746,0.0537,0.0537,1,47,209,67,1,twofour,,,,,,,,,,,,,,,,,,,,,,,,,,,,,,,,,,,,,,,,,,,,,,,,,,,,,,,,,,,,,,,,,,,,,,,,,,,,,,,,,,,,,,,,,,,,,,,,,,,,,,,,,,,,,,,,,,,,,,,,,,,,,,,,,,,,,,,,,
,,61300c2d5a36876db1251ff5,2024-02-21_20h19.12.079,kallum_motion_pilot,2023.2.2,Win32,59.88023952,61300c2d5a36876db1251ff5,65d6bb0e977760de756971f7,65d6bd0f97543519d98f2746,0.0537,0.0539,1,48,210,52,1,threeone,,,,,,,,,,,,,,,,,,,,,,,,,,,,,,,,,,,,,,,,,,,,,,,,,,,,,,,,,,,,,,,,,,,,,,,,,,,,,,,,,,,,,,,,,,,,,,,,,,,,,,,,,,,,,,,,,,,,,,,,,,,,,,,,,,,,,,,,,
,,61300c2d5a36876db1251ff5,2024-02-21_20h19.12.079,kallum_motion_pilot,2023.2.2,Win32,59.88023952,61300c2d5a36876db1251ff5,65d6bb0e977760de756971f7,65d6bd0f97543519d98f2746,0.0539,0.054,1,49,211,117,1,seveneight,,,,,,,,,,,,,,,,,,,,,,,,,,,,,,,,,,,,,,,,,,,,,,,,,,,,,,,,,,,,,,,,,,,,,,,,,,,,,,,,,,,,,,,,,,,,,,,,,,,,,,,,,,,,,,,,,,,,,,,,,,,,,,,,,,,,,,,,,
,,61300c2d5a36876db1251ff5,2024-02-21_20h19.12.079,kallum_motion_pilot,2023.2.2,Win32,59.88023952,61300c2d5a36876db1251ff5,65d6bb0e977760de756971f7,65d6bd0f97543519d98f2746,0.054,0.0541,1,50,212,70,1,fourtwo,,,,,,,,,,,,,,,,,,,,,,,,,,,,,,,,,,,,,,,,,,,,,,,,,,,,,,,,,,,,,,,,,,,,,,,,,,,,,,,,,,,,,,,,,,,,,,,,,,,,,,,,,,,,,,,,,,,,,,,,,,,,,,,,,,,,,,,,,
,,61300c2d5a36876db1251ff5,2024-02-21_20h19.12.079,kallum_motion_pilot,2023.2.2,Win32,59.88023952,61300c2d5a36876db1251ff5,65d6bb0e977760de756971f7,65d6bd0f97543519d98f2746,0.0541,0.0542,1,51,213,35,1,twofour,,,,,,,,,,,,,,,,,,,,,,,,,,,,,,,,,,,,,,,,,,,,,,,,,,,,,,,,,,,,,,,,,,,,,,,,,,,,,,,,,,,,,,,,,,,,,,,,,,,,,,,,,,,,,,,,,,,,,,,,,,,,,,,,,,,,,,,,,
,,61300c2d5a36876db1251ff5,2024-02-21_20h19.12.079,kallum_motion_pilot,2023.2.2,Win32,59.88023952,61300c2d5a36876db1251ff5,65d6bb0e977760de756971f7,65d6bd0f97543519d98f2746,0.0542,0.0542,1,52,214,61,1,threefour,,,,,,,,,,,,,,,,,,,,,,,,,,,,,,,,,,,,,,,,,,,,,,,,,,,,,,,,,,,,,,,,,,,,,,,,,,,,,,,,,,,,,,,,,,,,,,,,,,,,,,,,,,,,,,,,,,,,,,,,,,,,,,,,,,,,,,,,,
,,61300c2d5a36876db1251ff5,2024-02-21_20h19.12.079,kallum_motion_pilot,2023.2.2,Win32,59.88023952,61300c2d5a36876db1251ff5,65d6bb0e977760de756971f7,65d6bd0f97543519d98f2746,0.0543,0.0544,1,53,215,111,1,eightseven,,,,,,,,,,,,,,,,,,,,,,,,,,,,,,,,,,,,,,,,,,,,,,,,,,,,,,,,,,,,,,,,,,,,,,,,,,,,,,,,,,,,,,,,,,,,,,,,,,,,,,,,,,,,,,,,,,,,,,,,,,,,,,,,,,,,,,,,,
,,61300c2d5a36876db1251ff5,2024-02-21_20h19.12.079,kallum_motion_pilot,2023.2.2,Win32,59.88023952,61300c2d5a36876db1251ff5,65d6bb0e977760de756971f7,65d6bd0f97543519d98f2746,0.0545,0.0546,1,54,216,147,1,sixeight,,,,,,,,,,,,,,,,,,,,,,,,,,,,,,,,,,,,,,,,,,,,,,,,,,,,,,,,,,,,,,,,,,,,,,,,,,,,,,,,,,,,,,,,,,,,,,,,,,,,,,,,,,,,,,,,,,,,,,,,,,,,,,,,,,,,,,,,,
,,61300c2d5a36876db1251ff5,2024-02-21_20h19.12.079,kallum_motion_pilot,2023.2.2,Win32,59.88023952,61300c2d5a36876db1251ff5,65d6bb0e977760de756971f7,65d6bd0f97543519d98f2746,0.0546,0.0547,1,55,217,104,1,fivesix,,,,,,,,,,,,,,,,,,,,,,,,,,,,,,,,,,,,,,,,,,,,,,,,,,,,,,,,,,,,,,,,,,,,,,,,,,,,,,,,,,,,,,,,,,,,,,,,,,,,,,,,,,,,,,,,,,,,,,,,,,,,,,,,,,,,,,,,,
,,61300c2d5a36876db1251ff5,2024-02-21_20h19.12.079,kallum_motion_pilot,2023.2.2,Win32,59.88023952,61300c2d5a36876db1251ff5,65d6bb0e977760de756971f7,65d6bd0f97543519d98f2746,0.0547,0.0548,1,56,218,54,1,fourtwo,,,,,,,,,,,,,,,,,,,,,,,,,,,,,,,,,,,,,,,,,,,,,,,,,,,,,,,,,,,,,,,,,,,,,,,,,,,,,,,,,,,,,,,,,,,,,,,,,,,,,,,,,,,,,,,,,,,,,,,,,,,,,,,,,,,,,,,,,
,,61300c2d5a36876db1251ff5,2024-02-21_20h19.12.079,kallum_motion_pilot,2023.2.2,Win32,59.88023952,61300c2d5a36876db1251ff5,65d6bb0e977760de756971f7,65d6bd0f97543519d98f2746,0.0548,0.0549,1,57,219,22,1,fourtwo,,,,,,,,,,,,,,,,,,,,,,,,,,,,,,,,,,,,,,,,,,,,,,,,,,,,,,,,,,,,,,,,,,,,,,,,,,,,,,,,,,,,,,,,,,,,,,,,,,,,,,,,,,,,,,,,,,,,,,,,,,,,,,,,,,,,,,,,,
,,61300c2d5a36876db1251ff5,2024-02-21_20h19.12.079,kallum_motion_pilot,2023.2.2,Win32,59.88023952,61300c2d5a36876db1251ff5,65d6bb0e977760de756971f7,65d6bd0f97543519d98f2746,0.0549,0.055,1,58,220,43,1,twofour,,,,,,,,,,,,,,,,,,,,,,,,,,,,,,,,,,,,,,,,,,,,,,,,,,,,,,,,,,,,,,,,,,,,,,,,,,,,,,,,,,,,,,,,,,,,,,,,,,,,,,,,,,,,,,,,,,,,,,,,,,,,,,,,,,,,,,,,,
,,61300c2d5a36876db1251ff5,2024-02-21_20h19.12.079,kallum_motion_pilot,2023.2.2,Win32,59.88023952,61300c2d5a36876db1251ff5,65d6bb0e977760de756971f7,65d6bd0f97543519d98f2746,0.0551,0.0551,1,59,221,105,1,fiveseven,,,,,,,,,,,,,,,,,,,,,,,,,,,,,,,,,,,,,,,,,,,,,,,,,,,,,,,,,,,,,,,,,,,,,,,,,,,,,,,,,,,,,,,,,,,,,,,,,,,,,,,,,,,,,,,,,,,,,,,,,,,,,,,,,,,,,,,,,
,,61300c2d5a36876db1251ff5,2024-02-21_20h19.12.079,kallum_motion_pilot,2023.2.2,Win32,59.88023952,61300c2d5a36876db1251ff5,65d6bb0e977760de756971f7,65d6bd0f97543519d98f2746,0.0552,0.0552,1,60,222,37,1,threefour,,,,,,,,,,,,,,,,,,,,,,,,,,,,,,,,,,,,,,,,,,,,,,,,,,,,,,,,,,,,,,,,,,,,,,,,,,,,,,,,,,,,,,,,,,,,,,,,,,,,,,,,,,,,,,,,,,,,,,,,,,,,,,,,,,,,,,,,,
,,61300c2d5a36876db1251ff5,2024-02-21_20h19.12.079,kallum_motion_pilot,2023.2.2,Win32,59.88023952,61300c2d5a36876db1251ff5,65d6bb0e977760de756971f7,65d6bd0f97543519d98f2746,0.0553,0.0553,1,61,223,114,1,sixfive,,,,,,,,,,,,,,,,,,,,,,,,,,,,,,,,,,,,,,,,,,,,,,,,,,,,,,,,,,,,,,,,,,,,,,,,,,,,,,,,,,,,,,,,,,,,,,,,,,,,,,,,,,,,,,,,,,,,,,,,,,,,,,,,,,,,,,,,,
,,61300c2d5a36876db1251ff5,2024-02-21_20h19.12.079,kallum_motion_pilot,2023.2.2,Win32,59.88023952,61300c2d5a36876db1251ff5,65d6bb0e977760de756971f7,65d6bd0f97543519d98f2746,0.0554,0.0554,1,62,224,59,1,twofour,,,,,,,,,,,,,,,,,,,,,,,,,,,,,,,,,,,,,,,,,,,,,,,,,,,,,,,,,,,,,,,,,,,,,,,,,,,,,,,,,,,,,,,,,,,,,,,,,,,,,,,,,,,,,,,,,,,,,,,,,,,,,,,,,,,,,,,,,
,,61300c2d5a36876db1251ff5,2024-02-21_20h19.12.079,kallum_motion_pilot,2023.2.2,Win32,59.88023952,61300c2d5a36876db1251ff5,65d6bb0e977760de756971f7,65d6bd0f97543519d98f2746,0.0555,0.0556,1,63,225,3,1,twofour,,,,,,,,,,,,,,,,,,,,,,,,,,,,,,,,,,,,,,,,,,,,,,,,,,,,,,,,,,,,,,,,,,,,,,,,,,,,,,,,,,,,,,,,,,,,,,,,,,,,,,,,,,,,,,,,,,,,,,,,,,,,,,,,,,,,,,,,,
,,61300c2d5a36876db1251ff5,2024-02-21_20h19.12.079,kallum_motion_pilot,2023.2.2,Win32,59.88023952,61300c2d5a36876db1251ff5,65d6bb0e977760de756971f7,65d6bd0f97543519d98f2746,0.0557,0.0557,1,64,226,87,1,eightseven,,,,,,,,,,,,,,,,,,,,,,,,,,,,,,,,,,,,,,,,,,,,,,,,,,,,,,,,,,,,,,,,,,,,,,,,,,,,,,,,,,,,,,,,,,,,,,,,,,,,,,,,,,,,,,,,,,,,,,,,,,,,,,,,,,,,,,,,,
,,61300c2d5a36876db1251ff5,2024-02-21_20h19.12.079,kallum_motion_pilot,2023.2.2,Win32,59.88023952,61300c2d5a36876db1251ff5,65d6bb0e977760de756971f7,65d6bd0f97543519d98f2746,0.0557,0.0558,1,65,227,118,1,eightsix,,,,,,,,,,,,,,,,,,,,,,,,,,,,,,,,,,,,,,,,,,,,,,,,,,,,,,,,,,,,,,,,,,,,,,,,,,,,,,,,,,,,,,,,,,,,,,,,,,,,,,,,,,,,,,,,,,,,,,,,,,,,,,,,,,,,,,,,,
,,61300c2d5a36876db1251ff5,2024-02-21_20h19.12.079,kallum_motion_pilot,2023.2.2,Win32,59.88023952,61300c2d5a36876db1251ff5,65d6bb0e977760de756971f7,65d6bd0f97543519d98f2746,0.0559,0.0559,1,66,228,14,1,fourtwo,,,,,,,,,,,,,,,,,,,,,,,,,,,,,,,,,,,,,,,,,,,,,,,,,,,,,,,,,,,,,,,,,,,,,,,,,,,,,,,,,,,,,,,,,,,,,,,,,,,,,,,,,,,,,,,,,,,,,,,,,,,,,,,,,,,,,,,,,
,,61300c2d5a36876db1251ff5,2024-02-21_20h19.12.079,kallum_motion_pilot,2023.2.2,Win32,59.88023952,61300c2d5a36876db1251ff5,65d6bb0e977760de756971f7,65d6bd0f97543519d98f2746,0.056,0.0561,1,67,229,150,1,eightsix,,,,,,,,,,,,,,,,,,,,,,,,,,,,,,,,,,,,,,,,,,,,,,,,,,,,,,,,,,,,,,,,,,,,,,,,,,,,,,,,,,,,,,,,,,,,,,,,,,,,,,,,,,,,,,,,,,,,,,,,,,,,,,,,,,,,,,,,,
,,61300c2d5a36876db1251ff5,2024-02-21_20h19.12.079,kallum_motion_pilot,2023.2.2,Win32,59.88023952,61300c2d5a36876db1251ff5,65d6bb0e977760de756971f7,65d6bd0f97543519d98f2746,0.0561,0.0562,1,68,230,1,1,onethree,,,,,,,,,,,,,,,,,,,,,,,,,,,,,,,,,,,,,,,,,,,,,,,,,,,,,,,,,,,,,,,,,,,,,,,,,,,,,,,,,,,,,,,,,,,,,,,,,,,,,,,,,,,,,,,,,,,,,,,,,,,,,,,,,,,,,,,,,
,,61300c2d5a36876db1251ff5,2024-02-21_20h19.12.079,kallum_motion_pilot,2023.2.2,Win32,59.88023952,61300c2d5a36876db1251ff5,65d6bb0e977760de756971f7,65d6bd0f97543519d98f2746,0.0562,0.0563,1,69,231,101,1,seveneight,,,,,,,,,,,,,,,,,,,,,,,,,,,,,,,,,,,,,,,,,,,,,,,,,,,,,,,,,,,,,,,,,,,,,,,,,,,,,,,,,,,,,,,,,,,,,,,,,,,,,,,,,,,,,,,,,,,,,,,,,,,,,,,,,,,,,,,,,
,,61300c2d5a36876db1251ff5,2024-02-21_20h19.12.079,kallum_motion_pilot,2023.2.2,Win32,59.88023952,61300c2d5a36876db1251ff5,65d6bb0e977760de756971f7,65d6bd0f97543519d98f2746,0.0564,0.0564,1,70,232,40,1,onetwo,,,,,,,,,,,,,,,,,,,,,,,,,,,,,,,,,,,,,,,,,,,,,,,,,,,,,,,,,,,,,,,,,,,,,,,,,,,,,,,,,,,,,,,,,,,,,,,,,,,,,,,,,,,,,,,,,,,,,,,,,,,,,,,,,,,,,,,,,
,,61300c2d5a36876db1251ff5,2024-02-21_20h19.12.079,kallum_motion_pilot,2023.2.2,Win32,59.88023952,61300c2d5a36876db1251ff5,65d6bb0e977760de756971f7,65d6bd0f97543519d98f2746,0.0565,0.0566,1,71,233,48,1,onetwo,,,,,,,,,,,,,,,,,,,,,,,,,,,,,,,,,,,,,,,,,,,,,,,,,,,,,,,,,,,,,,,,,,,,,,,,,,,,,,,,,,,,,,,,,,,,,,,,,,,,,,,,,,,,,,,,,,,,,,,,,,,,,,,,,,,,,,,,,
,,61300c2d5a36876db1251ff5,2024-02-21_20h19.12.079,kallum_motion_pilot,2023.2.2,Win32,59.88023952,61300c2d5a36876db1251ff5,65d6bb0e977760de756971f7,65d6bd0f97543519d98f2746,0.0566,0.0567,1,72,234,20,1,threeone,,,,,,,,,,,,,,,,,,,,,,,,,,,,,,,,,,,,,,,,,,,,,,,,,,,,,,,,,,,,,,,,,,,,,,,,,,,,,,,,,,,,,,,,,,,,,,,,,,,,,,,,,,,,,,,,,,,,,,,,,,,,,,,,,,,,,,,,,
,,61300c2d5a36876db1251ff5,2024-02-21_20h19.12.079,kallum_motion_pilot,2023.2.2,Win32,59.88023952,61300c2d5a36876db1251ff5,65d6bb0e977760de756971f7,65d6bd0f97543519d98f2746,0.0568,0.0569,1,73,235,135,1,eightseven,,,,,,,,,,,,,,,,,,,,,,,,,,,,,,,,,,,,,,,,,,,,,,,,,,,,,,,,,,,,,,,,,,,,,,,,,,,,,,,,,,,,,,,,,,,,,,,,,,,,,,,,,,,,,,,,,,,,,,,,,,,,,,,,,,,,,,,,,
,,61300c2d5a36876db1251ff5,2024-02-21_20h19.12.079,kallum_motion_pilot,2023.2.2,Win32,59.88023952,61300c2d5a36876db1251ff5,65d6bb0e977760de756971f7,65d6bd0f97543519d98f2746,0.0569,0.057,1,74,236,49,1,onethree,,,,,,,,,,,,,,,,,,,,,,,,,,,,,,,,,,,,,,,,,,,,,,,,,,,,,,,,,,,,,,,,,,,,,,,,,,,,,,,,,,,,,,,,,,,,,,,,,,,,,,,,,,,,,,,,,,,,,,,,,,,,,,,,,,,,,,,,,
,,61300c2d5a36876db1251ff5,2024-02-21_20h19.12.079,kallum_motion_pilot,2023.2.2,Win32,59.88023952,61300c2d5a36876db1251ff5,65d6bb0e977760de756971f7,65d6bd0f97543519d98f2746,0.057,0.0572,1,75,237,66,1,twoone,,,,,,,,,,,,,,,,,,,,,,,,,,,,,,,,,,,,,,,,,,,,,,,,,,,,,,,,,,,,,,,,,,,,,,,,,,,,,,,,,,,,,,,,,,,,,,,,,,,,,,,,,,,,,,,,,,,,,,,,,,,,,,,,,,,,,,,,,
,,61300c2d5a36876db1251ff5,2024-02-21_20h19.12.079,kallum_motion_pilot,2023.2.2,Win32,59.88023952,61300c2d5a36876db1251ff5,65d6bb0e977760de756971f7,65d6bd0f97543519d98f2746,0.0572,0.0572,1,76,238,145,1,fiveseven,,,,,,,,,,,,,,,,,,,,,,,,,,,,,,,,,,,,,,,,,,,,,,,,,,,,,,,,,,,,,,,,,,,,,,,,,,,,,,,,,,,,,,,,,,,,,,,,,,,,,,,,,,,,,,,,,,,,,,,,,,,,,,,,,,,,,,,,,
,,61300c2d5a36876db1251ff5,2024-02-21_20h19.12.079,kallum_motion_pilot,2023.2.2,Win32,59.88023952,61300c2d5a36876db1251ff5,65d6bb0e977760de756971f7,65d6bd0f97543519d98f2746,0.0573,0.0574,1,77,239,34,1,twoone,,,,,,,,,,,,,,,,,,,,,,,,,,,,,,,,,,,,,,,,,,,,,,,,,,,,,,,,,,,,,,,,,,,,,,,,,,,,,,,,,,,,,,,,,,,,,,,,,,,,,,,,,,,,,,,,,,,,,,,,,,,,,,,,,,,,,,,,,
,,61300c2d5a36876db1251ff5,2024-02-21_20h19.12.079,kallum_motion_pilot,2023.2.2,Win32,59.88023952,61300c2d5a36876db1251ff5,65d6bb0e977760de756971f7,65d6bd0f97543519d98f2746,0.0574,0.0576,1,78,240,102,1,eightsix,,,,,,,,,,,,,,,,,,,,,,,,,,,,,,,,,,,,,,,,,,,,,,,,,,,,,,,,,,,,,,,,,,,,,,,,,,,,,,,,,,,,,,,,,,,,,,,,,,,,,,,,,,,,,,,,,,,,,,,,,,,,,,,,,,,,,,,,,
,,61300c2d5a36876db1251ff5,2024-02-21_20h19.12.079,kallum_motion_pilot,2023.2.2,Win32,59.88023952,61300c2d5a36876db1251ff5,65d6bb0e977760de756971f7,65d6bd0f97543519d98f2746,0.0576,0.0577,1,79,241,41,1,onethree,,,,,,,,,,,,,,,,,,,,,,,,,,,,,,,,,,,,,,,,,,,,,,,,,,,,,,,,,,,,,,,,,,,,,,,,,,,,,,,,,,,,,,,,,,,,,,,,,,,,,,,,,,,,,,,,,,,,,,,,,,,,,,,,,,,,,,,,,
,,61300c2d5a36876db1251ff5,2024-02-21_20h19.12.079,kallum_motion_pilot,2023.2.2,Win32,59.88023952,61300c2d5a36876db1251ff5,65d6bb0e977760de756971f7,65d6bd0f97543519d98f2746,0.0577,0.0579,1,80,242,51,1,twofour,,,,,,,,,,,,,,,,,,,,,,,,,,,,,,,,,,,,,,,,,,,,,,,,,,,,,,,,,,,,,,,,,,,,,,,,,,,,,,,,,,,,,,,,,,,,,,,,,,,,,,,,,,,,,,,,,,,,,,,,,,,,,,,,,,,,,,,,,
,,61300c2d5a36876db1251ff5,2024-02-21_20h19.12.079,kallum_motion_pilot,2023.2.2,Win32,59.88023952,61300c2d5a36876db1251ff5,65d6bb0e977760de756971f7,65d6bd0f97543519d98f2746,0.0579,0.0579,1,81,243,138,1,sixfive,,,,,,,,,,,,,,,,,,,,,,,,,,,,,,,,,,,,,,,,,,,,,,,,,,,,,,,,,,,,,,,,,,,,,,,,,,,,,,,,,,,,,,,,,,,,,,,,,,,,,,,,,,,,,,,,,,,,,,,,,,,,,,,,,,,,,,,,,
,,61300c2d5a36876db1251ff5,2024-02-21_20h19.12.079,kallum_motion_pilot,2023.2.2,Win32,59.88023952,61300c2d5a36876db1251ff5,65d6bb0e977760de756971f7,65d6bd0f97543519d98f2746,0.0581,0.0581,1,82,244,98,1,sixfive,,,,,,,,,,,,,,,,,,,,,,,,,,,,,,,,,,,,,,,,,,,,,,,,,,,,,,,,,,,,,,,,,,,,,,,,,,,,,,,,,,,,,,,,,,,,,,,,,,,,,,,,,,,,,,,,,,,,,,,,,,,,,,,,,,,,,,,,,
,,61300c2d5a36876db1251ff5,2024-02-21_20h19.12.079,kallum_motion_pilot,2023.2.2,Win32,59.88023952,61300c2d5a36876db1251ff5,65d6bb0e977760de756971f7,65d6bd0f97543519d98f2746,0.0582,0.0583,1,83,245,82,1,sixfive,,,,,,,,,,,,,,,,,,,,,,,,,,,,,,,,,,,,,,,,,,,,,,,,,,,,,,,,,,,,,,,,,,,,,,,,,,,,,,,,,,,,,,,,,,,,,,,,,,,,,,,,,,,,,,,,,,,,,,,,,,,,,,,,,,,,,,,,,
,,61300c2d5a36876db1251ff5,2024-02-21_20h19.12.079,kallum_motion_pilot,2023.2.2,Win32,59.88023952,61300c2d5a36876db1251ff5,65d6bb0e977760de756971f7,65d6bd0f97543519d98f2746,0.0583,0.0584,1,84,246,97,1,fiveseven,,,,,,,,,,,,,,,,,,,,,,,,,,,,,,,,,,,,,,,,,,,,,,,,,,,,,,,,,,,,,,,,,,,,,,,,,,,,,,,,,,,,,,,,,,,,,,,,,,,,,,,,,,,,,,,,,,,,,,,,,,,,,,,,,,,,,,,,,
,,61300c2d5a36876db1251ff5,2024-02-21_20h19.12.079,kallum_motion_pilot,2023.2.2,Win32,59.88023952,61300c2d5a36876db1251ff5,65d6bb0e977760de756971f7,65d6bd0f97543519d98f2746,0.0585,0.0586,1,85,247,81,1,fiveseven,,,,,,,,,,,,,,,,,,,,,,,,,,,,,,,,,,,,,,,,,,,,,,,,,,,,,,,,,,,,,,,,,,,,,,,,,,,,,,,,,,,,,,,,,,,,,,,,,,,,,,,,,,,,,,,,,,,,,,,,,,,,,,,,,,,,,,,,,
,,61300c2d5a36876db1251ff5,2024-02-21_20h19.12.079,kallum_motion_pilot,2023.2.2,Win32,59.88023952,61300c2d5a36876db1251ff5,65d6bb0e977760de756971f7,65d6bd0f97543519d98f2746,0.0586,0.0587,1,86,248,38,1,fourtwo,,,,,,,,,,,,,,,,,,,,,,,,,,,,,,,,,,,,,,,,,,,,,,,,,,,,,,,,,,,,,,,,,,,,,,,,,,,,,,,,,,,,,,,,,,,,,,,,,,,,,,,,,,,,,,,,,,,,,,,,,,,,,,,,,,,,,,,,,
,,61300c2d5a36876db1251ff5,2024-02-21_20h19.12.079,kallum_motion_pilot,2023.2.2,Win32,59.88023952,61300c2d5a36876db1251ff5,65d6bb0e977760de756971f7,65d6bd0f97543519d98f2746,0.0587,0.0588,1,87,249,11,1,twofour,,,,,,,,,,,,,,,,,,,,,,,,,,,,,,,,,,,,,,,,,,,,,,,,,,,,,,,,,,,,,,,,,,,,,,,,,,,,,,,,,,,,,,,,,,,,,,,,,,,,,,,,,,,,,,,,,,,,,,,,,,,,,,,,,,,,,,,,,
,,61300c2d5a36876db1251ff5,2024-02-21_20h19.12.079,kallum_motion_pilot,2023.2.2,Win32,59.88023952,61300c2d5a36876db1251ff5,65d6bb0e977760de756971f7,65d6bd0f97543519d98f2746,0.0588,0.0589,1,88,250,28,1,threeone,,,,,,,,,,,,,,,,,,,,,,,,,,,,,,,,,,,,,,,,,,,,,,,,,,,,,,,,,,,,,,,,,,,,,,,,,,,,,,,,,,,,,,,,,,,,,,,,,,,,,,,,,,,,,,,,,,,,,,,,,,,,,,,,,,,,,,,,,
,,61300c2d5a36876db1251ff5,2024-02-21_20h19.12.079,kallum_motion_pilot,2023.2.2,Win32,59.88023952,61300c2d5a36876db1251ff5,65d6bb0e977760de756971f7,65d6bd0f97543519d98f2746,0.059,0.059,1,89,251,148,1,sevenfive,,,,,,,,,,,,,,,,,,,,,,,,,,,,,,,,,,,,,,,,,,,,,,,,,,,,,,,,,,,,,,,,,,,,,,,,,,,,,,,,,,,,,,,,,,,,,,,,,,,,,,,,,,,,,,,,,,,,,,,,,,,,,,,,,,,,,,,,,
,,61300c2d5a36876db1251ff5,2024-02-21_20h19.12.079,kallum_motion_pilot,2023.2.2,Win32,59.88023952,61300c2d5a36876db1251ff5,65d6bb0e977760de756971f7,65d6bd0f97543519d98f2746,0.0591,0.0592,1,90,252,146,1,sixfive,,,,,,,,,,,,,,,,,,,,,,,,,,,,,,,,,,,,,,,,,,,,,,,,,,,,,,,,,,,,,,,,,,,,,,,,,,,,,,,,,,,,,,,,,,,,,,,,,,,,,,,,,,,,,,,,,,,,,,,,,,,,,,,,,,,,,,,,,
,,61300c2d5a36876db1251ff5,2024-02-21_20h19.12.079,kallum_motion_pilot,2023.2.2,Win32,59.88023952,61300c2d5a36876db1251ff5,65d6bb0e977760de756971f7,65d6bd0f97543519d98f2746,0.0593,0.0593,1,91,253,0,1,onetwo,,,,,,,,,,,,,,,,,,,,,,,,,,,,,,,,,,,,,,,,,,,,,,,,,,,,,,,,,,,,,,,,,,,,,,,,,,,,,,,,,,,,,,,,,,,,,,,,,,,,,,,,,,,,,,,,,,,,,,,,,,,,,,,,,,,,,,,,,
,,61300c2d5a36876db1251ff5,2024-02-21_20h19.12.079,kallum_motion_pilot,2023.2.2,Win32,59.88023952,61300c2d5a36876db1251ff5,65d6bb0e977760de756971f7,65d6bd0f97543519d98f2746,0.0594,0.0595,1,92,254,26,1,twoone,,,,,,,,,,,,,,,,,,,,,,,,,,,,,,,,,,,,,,,,,,,,,,,,,,,,,,,,,,,,,,,,,,,,,,,,,,,,,,,,,,,,,,,,,,,,,,,,,,,,,,,,,,,,,,,,,,,,,,,,,,,,,,,,,,,,,,,,,
,,61300c2d5a36876db1251ff5,2024-02-21_20h19.12.079,kallum_motion_pilot,2023.2.2,Win32,59.88023952,61300c2d5a36876db1251ff5,65d6bb0e977760de756971f7,65d6bd0f97543519d98f2746,0.0595,0.0596,1,93,255,33,1,onethree,,,,,,,,,,,,,,,,,,,,,,,,,,,,,,,,,,,,,,,,,,,,,,,,,,,,,,,,,,,,,,,,,,,,,,,,,,,,,,,,,,,,,,,,,,,,,,,,,,,,,,,,,,,,,,,,,,,,,,,,,,,,,,,,,,,,,,,,,
,,61300c2d5a36876db1251ff5,2024-02-21_20h19.12.079,kallum_motion_pilot,2023.2.2,Win32,59.88023952,61300c2d5a36876db1251ff5,65d6bb0e977760de756971f7,65d6bd0f97543519d98f2746,0.0597,0.0597,1,94,256,86,1,eightsix,,,,,,,,,,,,,,,,,,,,,,,,,,,,,,,,,,,,,,,,,,,,,,,,,,,,,,,,,,,,,,,,,,,,,,,,,,,,,,,,,,,,,,,,,,,,,,,,,,,,,,,,,,,,,,,,,,,,,,,,,,,,,,,,,,,,,,,,,
,,61300c2d5a36876db1251ff5,2024-02-21_20h19.12.079,kallum_motion_pilot,2023.2.2,Win32,59.88023952,61300c2d5a36876db1251ff5,65d6bb0e977760de756971f7,65d6bd0f97543519d98f2746,0.0598,0.0599,1,95,257,77,1,threefour,,,,,,,,,,,,,,,,,,,,,,,,,,,,,,,,,,,,,,,,,,,,,,,,,,,,,,,,,,,,,,,,,,,,,,,,,,,,,,,,,,,,,,,,,,,,,,,,,,,,,,,,,,,,,,,,,,,,,,,,,,,,,,,,,,,,,,,,,
,,61300c2d5a36876db1251ff5,2024-02-21_20h19.12.079,kallum_motion_pilot,2023.2.2,Win32,59.88023952,61300c2d5a36876db1251ff5,65d6bb0e977760de756971f7,65d6bd0f97543519d98f2746,0.06,0.06,1,96,258,12,1,threeone,,,,,,,,,,,,,,,,,,,,,,,,,,,,,,,,,,,,,,,,,,,,,,,,,,,,,,,,,,,,,,,,,,,,,,,,,,,,,,,,,,,,,,,,,,,,,,,,,,,,,,,,,,,,,,,,,,,,,,,,,,,,,,,,,,,,,,,,,
,,61300c2d5a36876db1251ff5,2024-02-21_20h19.12.079,kallum_motion_pilot,2023.2.2,Win32,59.88023952,61300c2d5a36876db1251ff5,65d6bb0e977760de756971f7,65d6bd0f97543519d98f2746,0.0602,0.0602,1,97,259,144,1,fivesix,,,,,,,,,,,,,,,,,,,,,,,,,,,,,,,,,,,,,,,,,,,,,,,,,,,,,,,,,,,,,,,,,,,,,,,,,,,,,,,,,,,,,,,,,,,,,,,,,,,,,,,,,,,,,,,,,,,,,,,,,,,,,,,,,,,,,,,,,
,,61300c2d5a36876db1251ff5,2024-02-21_20h19.12.079,kallum_motion_pilot,2023.2.2,Win32,59.88023952,61300c2d5a36876db1251ff5,65d6bb0e977760de756971f7,65d6bd0f97543519d98f2746,0.0602,0.0603,1,98,260,107,1,sixeight,,,,,,,,,,,,,,,,,,,,,,,,,,,,,,,,,,,,,,,,,,,,,,,,,,,,,,,,,,,,,,,,,,,,,,,,,,,,,,,,,,,,,,,,,,,,,,,,,,,,,,,,,,,,,,,,,,,,,,,,,,,,,,,,,,,,,,,,,
,,61300c2d5a36876db1251ff5,2024-02-21_20h19.12.079,kallum_motion_pilot,2023.2.2,Win32,59.88023952,61300c2d5a36876db1251ff5,65d6bb0e977760de756971f7,65d6bd0f97543519d98f2746,0.0603,0.0604,1,99,261,134,1,eightsix,,,,,,,,,,,,,,,,,,,,,,,,,,,,,,,,,,,,,,,,,,,,,,,,,,,,,,,,,,,,,,,,,,,,,,,,,,,,,,,,,,,,,,,,,,,,,,,,,,,,,,,,,,,,,,,,,,,,,,,,,,,,,,,,,,,,,,,,,
,,61300c2d5a36876db1251ff5,2024-02-21_20h19.12.079,kallum_motion_pilot,2023.2.2,Win32,59.88023952,61300c2d5a36876db1251ff5,65d6bb0e977760de756971f7,65d6bd0f97543519d98f2746,0.0605,0.0605,1,100,262,112,1,fivesix,,,,,,,,,,,,,,,,,,,,,,,,,,,,,,,,,,,,,,,,,,,,,,,,,,,,,,,,,,,,,,,,,,,,,,,,,,,,,,,,,,,,,,,,,,,,,,,,,,,,,,,,,,,,,,,,,,,,,,,,,,,,,,,,,,,,,,,,,
,,61300c2d5a36876db1251ff5,2024-02-21_20h19.12.079,kallum_motion_pilot,2023.2.2,Win32,59.88023952,61300c2d5a36876db1251ff5,65d6bb0e977760de756971f7,65d6bd0f97543519d98f2746,0.0606,0.0607,1,101,263,152,1,fivesix,,,,,,,,,,,,,,,,,,,,,,,,,,,,,,,,,,,,,,,,,,,,,,,,,,,,,,,,,,,,,,,,,,,,,,,,,,,,,,,,,,,,,,,,,,,,,,,,,,,,,,,,,,,,,,,,,,,,,,,,,,,,,,,,,,,,,,,,,
,,61300c2d5a36876db1251ff5,2024-02-21_20h19.12.079,kallum_motion_pilot,2023.2.2,Win32,59.88023952,61300c2d5a36876db1251ff5,65d6bb0e977760de756971f7,65d6bd0f97543519d98f2746,0.0608,0.0608,1,102,264,69,1,threefour,,,,,,,,,,,,,,,,,,,,,,,,,,,,,,,,,,,,,,,,,,,,,,,,,,,,,,,,,,,,,,,,,,,,,,,,,,,,,,,,,,,,,,,,,,,,,,,,,,,,,,,,,,,,,,,,,,,,,,,,,,,,,,,,,,,,,,,,,
,,61300c2d5a36876db1251ff5,2024-02-21_20h19.12.079,kallum_motion_pilot,2023.2.2,Win32,59.88023952,61300c2d5a36876db1251ff5,65d6bb0e977760de756971f7,65d6bd0f97543519d98f2746,0.061,0.061,1,103,265,45,1,threefour,,,,,,,,,,,,,,,,,,,,,,,,,,,,,,,,,,,,,,,,,,,,,,,,,,,,,,,,,,,,,,,,,,,,,,,,,,,,,,,,,,,,,,,,,,,,,,,,,,,,,,,,,,,,,,,,,,,,,,,,,,,,,,,,,,,,,,,,,
,,61300c2d5a36876db1251ff5,2024-02-21_20h19.12.079,kallum_motion_pilot,2023.2.2,Win32,59.88023952,61300c2d5a36876db1251ff5,65d6bb0e977760de756971f7,65d6bd0f97543519d98f2746,0.061,0.0612,1,104,266,142,1,eightsix,,,,,,,,,,,,,,,,,,,,,,,,,,,,,,,,,,,,,,,,,,,,,,,,,,,,,,,,,,,,,,,,,,,,,,,,,,,,,,,,,,,,,,,,,,,,,,,,,,,,,,,,,,,,,,,,,,,,,,,,,,,,,,,,,,,,,,,,,
,,61300c2d5a36876db1251ff5,2024-02-21_20h19.12.079,kallum_motion_pilot,2023.2.2,Win32,59.88023952,61300c2d5a36876db1251ff5,65d6bb0e977760de756971f7,65d6bd0f97543519d98f2746,0.0612,0.0612,1,105,267,75,1,twofour,,,,,,,,,,,,,,,,,,,,,,,,,,,,,,,,,,,,,,,,,,,,,,,,,,,,,,,,,,,,,,,,,,,,,,,,,,,,,,,,,,,,,,,,,,,,,,,,,,,,,,,,,,,,,,,,,,,,,,,,,,,,,,,,,,,,,,,,,
,,61300c2d5a36876db1251ff5,2024-02-21_20h19.12.079,kallum_motion_pilot,2023.2.2,Win32,59.88023952,61300c2d5a36876db1251ff5,65d6bb0e977760de756971f7,65d6bd0f97543519d98f2746,0.0613,0.0614,1,106,268,27,1,twofour,,,,,,,,,,,,,,,,,,,,,,,,,,,,,,,,,,,,,,,,,,,,,,,,,,,,,,,,,,,,,,,,,,,,,,,,,,,,,,,,,,,,,,,,,,,,,,,,,,,,,,,,,,,,,,,,,,,,,,,,,,,,,,,,,,,,,,,,,
,,61300c2d5a36876db1251ff5,2024-02-21_20h19.12.079,kallum_motion_pilot,2023.2.2,Win32,59.88023952,61300c2d5a36876db1251ff5,65d6bb0e977760de756971f7,65d6bd0f97543519d98f2746,0.0614,0.0615,1,107,269,55,1,fourthree,,,,,,,,,,,,,,,,,,,,,,,,,,,,,,,,,,,,,,,,,,,,,,,,,,,,,,,,,,,,,,,,,,,,,,,,,,,,,,,,,,,,,,,,,,,,,,,,,,,,,,,,,,,,,,,,,,,,,,,,,,,,,,,,,,,,,,,,,
,,61300c2d5a36876db1251ff5,2024-02-21_20h19.12.079,kallum_motion_pilot,2023.2.2,Win32,59.88023952,61300c2d5a36876db1251ff5,65d6bb0e977760de756971f7,65d6bd0f97543519d98f2746,0.0616,0.0617,1,108,270,141,1,seveneight,,,,,,,,,,,,,,,,,,,,,,,,,,,,,,,,,,,,,,,,,,,,,,,,,,,,,,,,,,,,,,,,,,,,,,,,,,,,,,,,,,,,,,,,,,,,,,,,,,,,,,,,,,,,,,,,,,,,,,,,,,,,,,,,,,,,,,,,,
,,61300c2d5a36876db1251ff5,2024-02-21_20h19.12.079,kallum_motion_pilot,2023.2.2,Win32,59.88023952,61300c2d5a36876db1251ff5,65d6bb0e977760de756971f7,65d6bd0f97543519d98f2746,0.0617,0.0618,1,109,271,131,1,sixeight,,,,,,,,,,,,,,,,,,,,,,,,,,,,,,,,,,,,,,,,,,,,,,,,,,,,,,,,,,,,,,,,,,,,,,,,,,,,,,,,,,,,,,,,,,,,,,,,,,,,,,,,,,,,,,,,,,,,,,,,,,,,,,,,,,,,,,,,,
,,61300c2d5a36876db1251ff5,2024-02-21_20h19.12.079,kallum_motion_pilot,2023.2.2,Win32,59.88023952,61300c2d5a36876db1251ff5,65d6bb0e977760de756971f7,65d6bd0f97543519d98f2746,0.0618,0.0619,1,110,272,42,1,twoone,,,,,,,,,,,,,,,,,,,,,,,,,,,,,,,,,,,,,,,,,,,,,,,,,,,,,,,,,,,,,,,,,,,,,,,,,,,,,,,,,,,,,,,,,,,,,,,,,,,,,,,,,,,,,,,,,,,,,,,,,,,,,,,,,,,,,,,,,
,,61300c2d5a36876db1251ff5,2024-02-21_20h19.12.079,kallum_motion_pilot,2023.2.2,Win32,59.88023952,61300c2d5a36876db1251ff5,65d6bb0e977760de756971f7,65d6bd0f97543519d98f2746,0.0619,0.062,1,111,273,58,1,twoone,,,,,,,,,,,,,,,,,,,,,,,,,,,,,,,,,,,,,,,,,,,,,,,,,,,,,,,,,,,,,,,,,,,,,,,,,,,,,,,,,,,,,,,,,,,,,,,,,,,,,,,,,,,,,,,,,,,,,,,,,,,,,,,,,,,,,,,,,
,,61300c2d5a36876db1251ff5,2024-02-21_20h19.12.079,kallum_motion_pilot,2023.2.2,Win32,59.88023952,61300c2d5a36876db1251ff5,65d6bb0e977760de756971f7,65d6bd0f97543519d98f2746,0.0621,0.0622,1,112,274,60,1,threeone,,,,,,,,,,,,,,,,,,,,,,,,,,,,,,,,,,,,,,,,,,,,,,,,,,,,,,,,,,,,,,,,,,,,,,,,,,,,,,,,,,,,,,,,,,,,,,,,,,,,,,,,,,,,,,,,,,,,,,,,,,,,,,,,,,,,,,,,,
,,61300c2d5a36876db1251ff5,2024-02-21_20h19.12.079,kallum_motion_pilot,2023.2.2,Win32,59.88023952,61300c2d5a36876db1251ff5,65d6bb0e977760de756971f7,65d6bd0f97543519d98f2746,0.0622,0.0623,1,113,275,50,1,twoone,,,,,,,,,,,,,,,,,,,,,,,,,,,,,,,,,,,,,,,,,,,,,,,,,,,,,,,,,,,,,,,,,,,,,,,,,,,,,,,,,,,,,,,,,,,,,,,,,,,,,,,,,,,,,,,,,,,,,,,,,,,,,,,,,,,,,,,,,
,,61300c2d5a36876db1251ff5,2024-02-21_20h19.12.079,kallum_motion_pilot,2023.2.2,Win32,59.88023952,61300c2d5a36876db1251ff5,65d6bb0e977760de756971f7,65d6bd0f97543519d98f2746,0.0623,0.0624,1,114,276,18,1,twoone,,,,,,,,,,,,,,,,,,,,,,,,,,,,,,,,,,,,,,,,,,,,,,,,,,,,,,,,,,,,,,,,,,,,,,,,,,,,,,,,,,,,,,,,,,,,,,,,,,,,,,,,,,,,,,,,,,,,,,,,,,,,,,,,,,,,,,,,,
,,61300c2d5a36876db1251ff5,2024-02-21_20h19.12.079,kallum_motion_pilot,2023.2.2,Win32,59.88023952,61300c2d5a36876db1251ff5,65d6bb0e977760de756971f7,65d6bd0f97543519d98f2746,0.0625,0.0626,1,115,277,123,1,sixeight,,,,,,,,,,,,,,,,,,,,,,,,,,,,,,,,,,,,,,,,,,,,,,,,,,,,,,,,,,,,,,,,,,,,,,,,,,,,,,,,,,,,,,,,,,,,,,,,,,,,,,,,,,,,,,,,,,,,,,,,,,,,,,,,,,,,,,,,,
