startup.started,startup.stopped,Prolific ID*,date,expName,psychopyVersion,OS,frameRate,participant,study_id,session,stimpositions.started,stimpositions.stopped,hardcoded_stimulus_positions.thisRepN,hardcoded_stimulus_positions.thisTrialN,hardcoded_stimulus_positions.thisN,hardcoded_stimulus_positions.thisIndex,hardcoded_stimulus_positions.ran,StimulusPos,stimorientation.started,stimorientation.stopped,prac_stimorientation_import_loop.thisRepN,prac_stimorientation_import_loop.thisTrialN,prac_stimorientation_import_loop.thisN,prac_stimorientation_import_loop.thisIndex,prac_stimorientation_import_loop.ran,Stimorientation,welcome_instr.started,welcome_instr.stopped,key_resp.keys,key_resp.rt,key_resp.duration,response_steppedout_1.started,response_steppedout_1.stopped,key_resp_20.keys,key_resp_20.rt,key_resp_20.duration,response_steppedout_2.started,response_steppedout_2.stopped,key_resp_19.keys,key_resp_19.rt,key_resp_19.duration,stim_response_instr.started,stim_response_instr.stopped,key_resp_15.keys,key_resp_15.rt,key_resp_15.duration,direction_instr_2.started,direction_instr_2.stopped,key_resp_9.keys,key_resp_9.rt,key_resp_9.duration,instr_prac.started,instr_prac.stopped,key_resp_10.keys,key_resp_10.rt,key_resp_10.duration,Stim1_display_prac.started,Stim1_display_prac.stopped,Ecc,Circle1_ori,Circle2_ori,response_prac.started,similarity,response_time,response_prac.stopped,mouse_5.x,mouse_5.y,mouse_5.leftButton,mouse_5.midButton,mouse_5.rightButton,mouse_5.clicked_name,responseprac_feedback.started,responseprac_feedback.stopped,summary2_prac.started,summary2_prac.stopped,mouse_6.x,mouse_6.y,mouse_6.leftButton,mouse_6.midButton,mouse_6.rightButton,mouse_6.clicked_name,duringprac.thisRepN,duringprac.thisTrialN,duringprac.thisN,duringprac.thisIndex,duringprac.ran,begin.started,begin.stopped,key_resp_22.keys,key_resp_22.rt,key_resp_22.duration,Stim1_display.started,Stim1_display.stopped,circle1_ori,circle2_ori,circle1_SF,circle2_SF,response.started,response.stopped,mouse.x,mouse.y,mouse.leftButton,mouse.midButton,mouse.rightButton,mouse.clicked_name,trialnumber,double_pass.thisRepN,double_pass.thisTrialN,double_pass.thisN,double_pass.thisIndex,double_pass.ran,double_pass.order,main_trial.thisRepN,main_trial.thisTrialN,main_trial.thisN,main_trial.thisIndex,main_trial.ran,main_trial.order,Trial_Counter,Catch,Frequencies,response_2.started,response_2.stopped,mouse_2.x,mouse_2.y,mouse_2.leftButton,mouse_2.midButton,mouse_2.rightButton,mouse_2.clicked_name,special_trial.started,special_trial.stopped,catch_1.started,catch_1.stopped,mouse_3.x,mouse_3.y,mouse_3.leftButton,mouse_3.midButton,mouse_3.rightButton,catchresponse,catchnumber,response_time_catch,response_sum.started,response_sum.stopped,mouse_11.x,mouse_11.y,mouse_11.leftButton,mouse_11.midButton,mouse_11.rightButton,flip_presentation_sequence_for_double_pass.started,flip_presentation_sequence_for_double_pass.stopped,goodbye.started,goodbye.stopped,key_resp_3.keys,key_resp_3.rt,key_resp_3.duration
0.0009,0.001,6139133041546096188da709,2024-02-21_21h26.32.498,kallum_motion_pilot,2023.2.2,Win32,59.17159763,6139133041546096188da709,65d6bb0e977760de756971f7,65d6bed1a69b90e7c1cebe08,,,,,,,,,,,,,,,,,,,,,,,,,,,,,,,,,,,,,,,,,,,,,,,,,,,,,,,,,,,,,,,,,,,,,,,,,,,,,,,,,,,,,,,,,,,,,,,,,,,,,,,,,,,,,,,,,,,,,,,,,,,,,,,,,,,,,,,,,,,,,,,,,
,,6139133041546096188da709,2024-02-21_21h26.32.498,kallum_motion_pilot,2023.2.2,Win32,59.17159763,6139133041546096188da709,65d6bb0e977760de756971f7,65d6bed1a69b90e7c1cebe08,0.0262,0.0263,0,0,0,50,1,twoone,,,,,,,,,,,,,,,,,,,,,,,,,,,,,,,,,,,,,,,,,,,,,,,,,,,,,,,,,,,,,,,,,,,,,,,,,,,,,,,,,,,,,,,,,,,,,,,,,,,,,,,,,,,,,,,,,,,,,,,,,,,,,,,,,,,,,,,,,
,,6139133041546096188da709,2024-02-21_21h26.32.498,kallum_motion_pilot,2023.2.2,Win32,59.17159763,6139133041546096188da709,65d6bb0e977760de756971f7,65d6bed1a69b90e7c1cebe08,0.0266,0.0267,0,1,1,58,1,twoone,,,,,,,,,,,,,,,,,,,,,,,,,,,,,,,,,,,,,,,,,,,,,,,,,,,,,,,,,,,,,,,,,,,,,,,,,,,,,,,,,,,,,,,,,,,,,,,,,,,,,,,,,,,,,,,,,,,,,,,,,,,,,,,,,,,,,,,,,
,,6139133041546096188da709,2024-02-21_21h26.32.498,kallum_motion_pilot,2023.2.2,Win32,59.17159763,6139133041546096188da709,65d6bb0e977760de756971f7,65d6bed1a69b90e7c1cebe08,0.0268,0.0269,0,2,2,145,1,fiveseven,,,,,,,,,,,,,,,,,,,,,,,,,,,,,,,,,,,,,,,,,,,,,,,,,,,,,,,,,,,,,,,,,,,,,,,,,,,,,,,,,,,,,,,,,,,,,,,,,,,,,,,,,,,,,,,,,,,,,,,,,,,,,,,,,,,,,,,,,
,,6139133041546096188da709,2024-02-21_21h26.32.498,kallum_motion_pilot,2023.2.2,Win32,59.17159763,6139133041546096188da709,65d6bb0e977760de756971f7,65d6bed1a69b90e7c1cebe08,0.027,0.027,0,3,3,43,1,twofour,,,,,,,,,,,,,,,,,,,,,,,,,,,,,,,,,,,,,,,,,,,,,,,,,,,,,,,,,,,,,,,,,,,,,,,,,,,,,,,,,,,,,,,,,,,,,,,,,,,,,,,,,,,,,,,,,,,,,,,,,,,,,,,,,,,,,,,,,
,,6139133041546096188da709,2024-02-21_21h26.32.498,kallum_motion_pilot,2023.2.2,Win32,59.17159763,6139133041546096188da709,65d6bb0e977760de756971f7,65d6bed1a69b90e7c1cebe08,0.0272,0.0272,0,4,4,10,1,twoone,,,,,,,,,,,,,,,,,,,,,,,,,,,,,,,,,,,,,,,,,,,,,,,,,,,,,,,,,,,,,,,,,,,,,,,,,,,,,,,,,,,,,,,,,,,,,,,,,,,,,,,,,,,,,,,,,,,,,,,,,,,,,,,,,,,,,,,,,
,,6139133041546096188da709,2024-02-21_21h26.32.498,kallum_motion_pilot,2023.2.2,Win32,59.17159763,6139133041546096188da709,65d6bb0e977760de756971f7,65d6bed1a69b90e7c1cebe08,0.0274,0.0274,0,5,5,13,1,threefour,,,,,,,,,,,,,,,,,,,,,,,,,,,,,,,,,,,,,,,,,,,,,,,,,,,,,,,,,,,,,,,,,,,,,,,,,,,,,,,,,,,,,,,,,,,,,,,,,,,,,,,,,,,,,,,,,,,,,,,,,,,,,,,,,,,,,,,,,
,,6139133041546096188da709,2024-02-21_21h26.32.498,kallum_motion_pilot,2023.2.2,Win32,59.17159763,6139133041546096188da709,65d6bb0e977760de756971f7,65d6bed1a69b90e7c1cebe08,0.0276,0.0276,0,6,6,55,1,fourthree,,,,,,,,,,,,,,,,,,,,,,,,,,,,,,,,,,,,,,,,,,,,,,,,,,,,,,,,,,,,,,,,,,,,,,,,,,,,,,,,,,,,,,,,,,,,,,,,,,,,,,,,,,,,,,,,,,,,,,,,,,,,,,,,,,,,,,,,,
,,6139133041546096188da709,2024-02-21_21h26.32.498,kallum_motion_pilot,2023.2.2,Win32,59.17159763,6139133041546096188da709,65d6bb0e977760de756971f7,65d6bed1a69b90e7c1cebe08,0.0277,0.0277,0,7,7,157,1,seveneight,,,,,,,,,,,,,,,,,,,,,,,,,,,,,,,,,,,,,,,,,,,,,,,,,,,,,,,,,,,,,,,,,,,,,,,,,,,,,,,,,,,,,,,,,,,,,,,,,,,,,,,,,,,,,,,,,,,,,,,,,,,,,,,,,,,,,,,,,
,,6139133041546096188da709,2024-02-21_21h26.32.498,kallum_motion_pilot,2023.2.2,Win32,59.17159763,6139133041546096188da709,65d6bb0e977760de756971f7,65d6bed1a69b90e7c1cebe08,0.0279,0.028,0,8,8,79,1,eightseven,,,,,,,,,,,,,,,,,,,,,,,,,,,,,,,,,,,,,,,,,,,,,,,,,,,,,,,,,,,,,,,,,,,,,,,,,,,,,,,,,,,,,,,,,,,,,,,,,,,,,,,,,,,,,,,,,,,,,,,,,,,,,,,,,,,,,,,,,
,,6139133041546096188da709,2024-02-21_21h26.32.498,kallum_motion_pilot,2023.2.2,Win32,59.17159763,6139133041546096188da709,65d6bb0e977760de756971f7,65d6bed1a69b90e7c1cebe08,0.0281,0.0282,0,9,9,139,1,sixeight,,,,,,,,,,,,,,,,,,,,,,,,,,,,,,,,,,,,,,,,,,,,,,,,,,,,,,,,,,,,,,,,,,,,,,,,,,,,,,,,,,,,,,,,,,,,,,,,,,,,,,,,,,,,,,,,,,,,,,,,,,,,,,,,,,,,,,,,,
,,6139133041546096188da709,2024-02-21_21h26.32.498,kallum_motion_pilot,2023.2.2,Win32,59.17159763,6139133041546096188da709,65d6bb0e977760de756971f7,65d6bed1a69b90e7c1cebe08,0.0282,0.0282,0,10,10,123,1,sixeight,,,,,,,,,,,,,,,,,,,,,,,,,,,,,,,,,,,,,,,,,,,,,,,,,,,,,,,,,,,,,,,,,,,,,,,,,,,,,,,,,,,,,,,,,,,,,,,,,,,,,,,,,,,,,,,,,,,,,,,,,,,,,,,,,,,,,,,,,
,,6139133041546096188da709,2024-02-21_21h26.32.498,kallum_motion_pilot,2023.2.2,Win32,59.17159763,6139133041546096188da709,65d6bb0e977760de756971f7,65d6bed1a69b90e7c1cebe08,0.0283,0.0284,0,11,11,81,1,fiveseven,,,,,,,,,,,,,,,,,,,,,,,,,,,,,,,,,,,,,,,,,,,,,,,,,,,,,,,,,,,,,,,,,,,,,,,,,,,,,,,,,,,,,,,,,,,,,,,,,,,,,,,,,,,,,,,,,,,,,,,,,,,,,,,,,,,,,,,,,
,,6139133041546096188da709,2024-02-21_21h26.32.498,kallum_motion_pilot,2023.2.2,Win32,59.17159763,6139133041546096188da709,65d6bb0e977760de756971f7,65d6bed1a69b90e7c1cebe08,0.0285,0.0285,0,12,12,161,1,fiveseven,,,,,,,,,,,,,,,,,,,,,,,,,,,,,,,,,,,,,,,,,,,,,,,,,,,,,,,,,,,,,,,,,,,,,,,,,,,,,,,,,,,,,,,,,,,,,,,,,,,,,,,,,,,,,,,,,,,,,,,,,,,,,,,,,,,,,,,,,
,,6139133041546096188da709,2024-02-21_21h26.32.498,kallum_motion_pilot,2023.2.2,Win32,59.17159763,6139133041546096188da709,65d6bb0e977760de756971f7,65d6bed1a69b90e7c1cebe08,0.0286,0.0287,0,13,13,148,1,sevenfive,,,,,,,,,,,,,,,,,,,,,,,,,,,,,,,,,,,,,,,,,,,,,,,,,,,,,,,,,,,,,,,,,,,,,,,,,,,,,,,,,,,,,,,,,,,,,,,,,,,,,,,,,,,,,,,,,,,,,,,,,,,,,,,,,,,,,,,,,
,,6139133041546096188da709,2024-02-21_21h26.32.498,kallum_motion_pilot,2023.2.2,Win32,59.17159763,6139133041546096188da709,65d6bb0e977760de756971f7,65d6bed1a69b90e7c1cebe08,0.0287,0.0288,0,14,14,76,1,threeone,,,,,,,,,,,,,,,,,,,,,,,,,,,,,,,,,,,,,,,,,,,,,,,,,,,,,,,,,,,,,,,,,,,,,,,,,,,,,,,,,,,,,,,,,,,,,,,,,,,,,,,,,,,,,,,,,,,,,,,,,,,,,,,,,,,,,,,,,
,,6139133041546096188da709,2024-02-21_21h26.32.498,kallum_motion_pilot,2023.2.2,Win32,59.17159763,6139133041546096188da709,65d6bb0e977760de756971f7,65d6bed1a69b90e7c1cebe08,0.0289,0.0289,0,15,15,83,1,sixeight,,,,,,,,,,,,,,,,,,,,,,,,,,,,,,,,,,,,,,,,,,,,,,,,,,,,,,,,,,,,,,,,,,,,,,,,,,,,,,,,,,,,,,,,,,,,,,,,,,,,,,,,,,,,,,,,,,,,,,,,,,,,,,,,,,,,,,,,,
,,6139133041546096188da709,2024-02-21_21h26.32.498,kallum_motion_pilot,2023.2.2,Win32,59.17159763,6139133041546096188da709,65d6bb0e977760de756971f7,65d6bed1a69b90e7c1cebe08,0.0291,0.0291,0,16,16,42,1,twoone,,,,,,,,,,,,,,,,,,,,,,,,,,,,,,,,,,,,,,,,,,,,,,,,,,,,,,,,,,,,,,,,,,,,,,,,,,,,,,,,,,,,,,,,,,,,,,,,,,,,,,,,,,,,,,,,,,,,,,,,,,,,,,,,,,,,,,,,,
,,6139133041546096188da709,2024-02-21_21h26.32.498,kallum_motion_pilot,2023.2.2,Win32,59.17159763,6139133041546096188da709,65d6bb0e977760de756971f7,65d6bed1a69b90e7c1cebe08,0.0292,0.0292,0,17,17,37,1,threefour,,,,,,,,,,,,,,,,,,,,,,,,,,,,,,,,,,,,,,,,,,,,,,,,,,,,,,,,,,,,,,,,,,,,,,,,,,,,,,,,,,,,,,,,,,,,,,,,,,,,,,,,,,,,,,,,,,,,,,,,,,,,,,,,,,,,,,,,,
,,6139133041546096188da709,2024-02-21_21h26.32.498,kallum_motion_pilot,2023.2.2,Win32,59.17159763,6139133041546096188da709,65d6bb0e977760de756971f7,65d6bed1a69b90e7c1cebe08,0.0293,0.0294,0,18,18,104,1,fivesix,,,,,,,,,,,,,,,,,,,,,,,,,,,,,,,,,,,,,,,,,,,,,,,,,,,,,,,,,,,,,,,,,,,,,,,,,,,,,,,,,,,,,,,,,,,,,,,,,,,,,,,,,,,,,,,,,,,,,,,,,,,,,,,,,,,,,,,,,
,,6139133041546096188da709,2024-02-21_21h26.32.498,kallum_motion_pilot,2023.2.2,Win32,59.17159763,6139133041546096188da709,65d6bb0e977760de756971f7,65d6bed1a69b90e7c1cebe08,0.0295,0.0296,0,19,19,93,1,seveneight,,,,,,,,,,,,,,,,,,,,,,,,,,,,,,,,,,,,,,,,,,,,,,,,,,,,,,,,,,,,,,,,,,,,,,,,,,,,,,,,,,,,,,,,,,,,,,,,,,,,,,,,,,,,,,,,,,,,,,,,,,,,,,,,,,,,,,,,,
,,6139133041546096188da709,2024-02-21_21h26.32.498,kallum_motion_pilot,2023.2.2,Win32,59.17159763,6139133041546096188da709,65d6bb0e977760de756971f7,65d6bed1a69b90e7c1cebe08,0.0296,0.0296,0,20,20,102,1,eightsix,,,,,,,,,,,,,,,,,,,,,,,,,,,,,,,,,,,,,,,,,,,,,,,,,,,,,,,,,,,,,,,,,,,,,,,,,,,,,,,,,,,,,,,,,,,,,,,,,,,,,,,,,,,,,,,,,,,,,,,,,,,,,,,,,,,,,,,,,
,,6139133041546096188da709,2024-02-21_21h26.32.498,kallum_motion_pilot,2023.2.2,Win32,59.17159763,6139133041546096188da709,65d6bb0e977760de756971f7,65d6bed1a69b90e7c1cebe08,0.0298,0.0298,0,21,21,2,1,twoone,,,,,,,,,,,,,,,,,,,,,,,,,,,,,,,,,,,,,,,,,,,,,,,,,,,,,,,,,,,,,,,,,,,,,,,,,,,,,,,,,,,,,,,,,,,,,,,,,,,,,,,,,,,,,,,,,,,,,,,,,,,,,,,,,,,,,,,,,
,,6139133041546096188da709,2024-02-21_21h26.32.498,kallum_motion_pilot,2023.2.2,Win32,59.17159763,6139133041546096188da709,65d6bb0e977760de756971f7,65d6bed1a69b90e7c1cebe08,0.0299,0.0299,0,22,22,63,1,fourthree,,,,,,,,,,,,,,,,,,,,,,,,,,,,,,,,,,,,,,,,,,,,,,,,,,,,,,,,,,,,,,,,,,,,,,,,,,,,,,,,,,,,,,,,,,,,,,,,,,,,,,,,,,,,,,,,,,,,,,,,,,,,,,,,,,,,,,,,,
,,6139133041546096188da709,2024-02-21_21h26.32.498,kallum_motion_pilot,2023.2.2,Win32,59.17159763,6139133041546096188da709,65d6bb0e977760de756971f7,65d6bed1a69b90e7c1cebe08,0.03,0.03,0,23,23,14,1,fourtwo,,,,,,,,,,,,,,,,,,,,,,,,,,,,,,,,,,,,,,,,,,,,,,,,,,,,,,,,,,,,,,,,,,,,,,,,,,,,,,,,,,,,,,,,,,,,,,,,,,,,,,,,,,,,,,,,,,,,,,,,,,,,,,,,,,,,,,,,,
,,6139133041546096188da709,2024-02-21_21h26.32.498,kallum_motion_pilot,2023.2.2,Win32,59.17159763,6139133041546096188da709,65d6bb0e977760de756971f7,65d6bed1a69b90e7c1cebe08,0.0302,0.0302,0,24,24,126,1,eightsix,,,,,,,,,,,,,,,,,,,,,,,,,,,,,,,,,,,,,,,,,,,,,,,,,,,,,,,,,,,,,,,,,,,,,,,,,,,,,,,,,,,,,,,,,,,,,,,,,,,,,,,,,,,,,,,,,,,,,,,,,,,,,,,,,,,,,,,,,
,,6139133041546096188da709,2024-02-21_21h26.32.498,kallum_motion_pilot,2023.2.2,Win32,59.17159763,6139133041546096188da709,65d6bb0e977760de756971f7,65d6bed1a69b90e7c1cebe08,0.0303,0.0303,0,25,25,25,1,onethree,,,,,,,,,,,,,,,,,,,,,,,,,,,,,,,,,,,,,,,,,,,,,,,,,,,,,,,,,,,,,,,,,,,,,,,,,,,,,,,,,,,,,,,,,,,,,,,,,,,,,,,,,,,,,,,,,,,,,,,,,,,,,,,,,,,,,,,,,
,,6139133041546096188da709,2024-02-21_21h26.32.498,kallum_motion_pilot,2023.2.2,Win32,59.17159763,6139133041546096188da709,65d6bb0e977760de756971f7,65d6bed1a69b90e7c1cebe08,0.0305,0.0305,0,26,26,9,1,onethree,,,,,,,,,,,,,,,,,,,,,,,,,,,,,,,,,,,,,,,,,,,,,,,,,,,,,,,,,,,,,,,,,,,,,,,,,,,,,,,,,,,,,,,,,,,,,,,,,,,,,,,,,,,,,,,,,,,,,,,,,,,,,,,,,,,,,,,,,
,,6139133041546096188da709,2024-02-21_21h26.32.498,kallum_motion_pilot,2023.2.2,Win32,59.17159763,6139133041546096188da709,65d6bb0e977760de756971f7,65d6bed1a69b90e7c1cebe08,0.0305,0.0306,0,27,27,87,1,eightseven,,,,,,,,,,,,,,,,,,,,,,,,,,,,,,,,,,,,,,,,,,,,,,,,,,,,,,,,,,,,,,,,,,,,,,,,,,,,,,,,,,,,,,,,,,,,,,,,,,,,,,,,,,,,,,,,,,,,,,,,,,,,,,,,,,,,,,,,,
,,6139133041546096188da709,2024-02-21_21h26.32.498,kallum_motion_pilot,2023.2.2,Win32,59.17159763,6139133041546096188da709,65d6bb0e977760de756971f7,65d6bed1a69b90e7c1cebe08,0.0307,0.0307,0,28,28,66,1,twoone,,,,,,,,,,,,,,,,,,,,,,,,,,,,,,,,,,,,,,,,,,,,,,,,,,,,,,,,,,,,,,,,,,,,,,,,,,,,,,,,,,,,,,,,,,,,,,,,,,,,,,,,,,,,,,,,,,,,,,,,,,,,,,,,,,,,,,,,,
,,6139133041546096188da709,2024-02-21_21h26.32.498,kallum_motion_pilot,2023.2.2,Win32,59.17159763,6139133041546096188da709,65d6bb0e977760de756971f7,65d6bed1a69b90e7c1cebe08,0.0309,0.0309,0,29,29,160,1,fivesix,,,,,,,,,,,,,,,,,,,,,,,,,,,,,,,,,,,,,,,,,,,,,,,,,,,,,,,,,,,,,,,,,,,,,,,,,,,,,,,,,,,,,,,,,,,,,,,,,,,,,,,,,,,,,,,,,,,,,,,,,,,,,,,,,,,,,,,,,
,,6139133041546096188da709,2024-02-21_21h26.32.498,kallum_motion_pilot,2023.2.2,Win32,59.17159763,6139133041546096188da709,65d6bb0e977760de756971f7,65d6bed1a69b90e7c1cebe08,0.0311,0.0311,0,30,30,35,1,twofour,,,,,,,,,,,,,,,,,,,,,,,,,,,,,,,,,,,,,,,,,,,,,,,,,,,,,,,,,,,,,,,,,,,,,,,,,,,,,,,,,,,,,,,,,,,,,,,,,,,,,,,,,,,,,,,,,,,,,,,,,,,,,,,,,,,,,,,,,
,,6139133041546096188da709,2024-02-21_21h26.32.498,kallum_motion_pilot,2023.2.2,Win32,59.17159763,6139133041546096188da709,65d6bb0e977760de756971f7,65d6bed1a69b90e7c1cebe08,0.0312,0.0312,0,31,31,118,1,eightsix,,,,,,,,,,,,,,,,,,,,,,,,,,,,,,,,,,,,,,,,,,,,,,,,,,,,,,,,,,,,,,,,,,,,,,,,,,,,,,,,,,,,,,,,,,,,,,,,,,,,,,,,,,,,,,,,,,,,,,,,,,,,,,,,,,,,,,,,,
,,6139133041546096188da709,2024-02-21_21h26.32.498,kallum_motion_pilot,2023.2.2,Win32,59.17159763,6139133041546096188da709,65d6bb0e977760de756971f7,65d6bed1a69b90e7c1cebe08,0.0313,0.0313,0,32,32,8,1,onetwo,,,,,,,,,,,,,,,,,,,,,,,,,,,,,,,,,,,,,,,,,,,,,,,,,,,,,,,,,,,,,,,,,,,,,,,,,,,,,,,,,,,,,,,,,,,,,,,,,,,,,,,,,,,,,,,,,,,,,,,,,,,,,,,,,,,,,,,,,
,,6139133041546096188da709,2024-02-21_21h26.32.498,kallum_motion_pilot,2023.2.2,Win32,59.17159763,6139133041546096188da709,65d6bb0e977760de756971f7,65d6bed1a69b90e7c1cebe08,0.0315,0.0316,0,33,33,56,1,onetwo,,,,,,,,,,,,,,,,,,,,,,,,,,,,,,,,,,,,,,,,,,,,,,,,,,,,,,,,,,,,,,,,,,,,,,,,,,,,,,,,,,,,,,,,,,,,,,,,,,,,,,,,,,,,,,,,,,,,,,,,,,,,,,,,,,,,,,,,,
,,6139133041546096188da709,2024-02-21_21h26.32.498,kallum_motion_pilot,2023.2.2,Win32,59.17159763,6139133041546096188da709,65d6bb0e977760de756971f7,65d6bed1a69b90e7c1cebe08,0.0317,0.0318,0,34,34,53,1,threefour,,,,,,,,,,,,,,,,,,,,,,,,,,,,,,,,,,,,,,,,,,,,,,,,,,,,,,,,,,,,,,,,,,,,,,,,,,,,,,,,,,,,,,,,,,,,,,,,,,,,,,,,,,,,,,,,,,,,,,,,,,,,,,,,,,,,,,,,,
,,6139133041546096188da709,2024-02-21_21h26.32.498,kallum_motion_pilot,2023.2.2,Win32,59.17159763,6139133041546096188da709,65d6bb0e977760de756971f7,65d6bed1a69b90e7c1cebe08,0.0319,0.032,0,35,35,57,1,onethree,,,,,,,,,,,,,,,,,,,,,,,,,,,,,,,,,,,,,,,,,,,,,,,,,,,,,,,,,,,,,,,,,,,,,,,,,,,,,,,,,,,,,,,,,,,,,,,,,,,,,,,,,,,,,,,,,,,,,,,,,,,,,,,,,,,,,,,,,
,,6139133041546096188da709,2024-02-21_21h26.32.498,kallum_motion_pilot,2023.2.2,Win32,59.17159763,6139133041546096188da709,65d6bb0e977760de756971f7,65d6bed1a69b90e7c1cebe08,0.0321,0.0321,0,36,36,44,1,threeone,,,,,,,,,,,,,,,,,,,,,,,,,,,,,,,,,,,,,,,,,,,,,,,,,,,,,,,,,,,,,,,,,,,,,,,,,,,,,,,,,,,,,,,,,,,,,,,,,,,,,,,,,,,,,,,,,,,,,,,,,,,,,,,,,,,,,,,,,
,,6139133041546096188da709,2024-02-21_21h26.32.498,kallum_motion_pilot,2023.2.2,Win32,59.17159763,6139133041546096188da709,65d6bb0e977760de756971f7,65d6bed1a69b90e7c1cebe08,0.0321,0.0322,0,37,37,134,1,eightsix,,,,,,,,,,,,,,,,,,,,,,,,,,,,,,,,,,,,,,,,,,,,,,,,,,,,,,,,,,,,,,,,,,,,,,,,,,,,,,,,,,,,,,,,,,,,,,,,,,,,,,,,,,,,,,,,,,,,,,,,,,,,,,,,,,,,,,,,,
,,6139133041546096188da709,2024-02-21_21h26.32.498,kallum_motion_pilot,2023.2.2,Win32,59.17159763,6139133041546096188da709,65d6bb0e977760de756971f7,65d6bed1a69b90e7c1cebe08,0.0323,0.0324,0,38,38,89,1,fiveseven,,,,,,,,,,,,,,,,,,,,,,,,,,,,,,,,,,,,,,,,,,,,,,,,,,,,,,,,,,,,,,,,,,,,,,,,,,,,,,,,,,,,,,,,,,,,,,,,,,,,,,,,,,,,,,,,,,,,,,,,,,,,,,,,,,,,,,,,,
,,6139133041546096188da709,2024-02-21_21h26.32.498,kallum_motion_pilot,2023.2.2,Win32,59.17159763,6139133041546096188da709,65d6bb0e977760de756971f7,65d6bed1a69b90e7c1cebe08,0.0325,0.0325,0,39,39,11,1,twofour,,,,,,,,,,,,,,,,,,,,,,,,,,,,,,,,,,,,,,,,,,,,,,,,,,,,,,,,,,,,,,,,,,,,,,,,,,,,,,,,,,,,,,,,,,,,,,,,,,,,,,,,,,,,,,,,,,,,,,,,,,,,,,,,,,,,,,,,,
,,6139133041546096188da709,2024-02-21_21h26.32.498,kallum_motion_pilot,2023.2.2,Win32,59.17159763,6139133041546096188da709,65d6bb0e977760de756971f7,65d6bed1a69b90e7c1cebe08,0.0327,0.0327,0,40,40,136,1,fivesix,,,,,,,,,,,,,,,,,,,,,,,,,,,,,,,,,,,,,,,,,,,,,,,,,,,,,,,,,,,,,,,,,,,,,,,,,,,,,,,,,,,,,,,,,,,,,,,,,,,,,,,,,,,,,,,,,,,,,,,,,,,,,,,,,,,,,,,,,
,,6139133041546096188da709,2024-02-21_21h26.32.498,kallum_motion_pilot,2023.2.2,Win32,59.17159763,6139133041546096188da709,65d6bb0e977760de756971f7,65d6bed1a69b90e7c1cebe08,0.0328,0.0329,0,41,41,75,1,twofour,,,,,,,,,,,,,,,,,,,,,,,,,,,,,,,,,,,,,,,,,,,,,,,,,,,,,,,,,,,,,,,,,,,,,,,,,,,,,,,,,,,,,,,,,,,,,,,,,,,,,,,,,,,,,,,,,,,,,,,,,,,,,,,,,,,,,,,,,
,,6139133041546096188da709,2024-02-21_21h26.32.498,kallum_motion_pilot,2023.2.2,Win32,59.17159763,6139133041546096188da709,65d6bb0e977760de756971f7,65d6bed1a69b90e7c1cebe08,0.033,0.033,0,42,42,92,1,sevenfive,,,,,,,,,,,,,,,,,,,,,,,,,,,,,,,,,,,,,,,,,,,,,,,,,,,,,,,,,,,,,,,,,,,,,,,,,,,,,,,,,,,,,,,,,,,,,,,,,,,,,,,,,,,,,,,,,,,,,,,,,,,,,,,,,,,,,,,,,
,,6139133041546096188da709,2024-02-21_21h26.32.498,kallum_motion_pilot,2023.2.2,Win32,59.17159763,6139133041546096188da709,65d6bb0e977760de756971f7,65d6bed1a69b90e7c1cebe08,0.0331,0.0331,0,43,43,31,1,fourthree,,,,,,,,,,,,,,,,,,,,,,,,,,,,,,,,,,,,,,,,,,,,,,,,,,,,,,,,,,,,,,,,,,,,,,,,,,,,,,,,,,,,,,,,,,,,,,,,,,,,,,,,,,,,,,,,,,,,,,,,,,,,,,,,,,,,,,,,,
,,6139133041546096188da709,2024-02-21_21h26.32.498,kallum_motion_pilot,2023.2.2,Win32,59.17159763,6139133041546096188da709,65d6bb0e977760de756971f7,65d6bed1a69b90e7c1cebe08,0.0332,0.0332,0,44,44,94,1,eightsix,,,,,,,,,,,,,,,,,,,,,,,,,,,,,,,,,,,,,,,,,,,,,,,,,,,,,,,,,,,,,,,,,,,,,,,,,,,,,,,,,,,,,,,,,,,,,,,,,,,,,,,,,,,,,,,,,,,,,,,,,,,,,,,,,,,,,,,,,
,,6139133041546096188da709,2024-02-21_21h26.32.498,kallum_motion_pilot,2023.2.2,Win32,59.17159763,6139133041546096188da709,65d6bb0e977760de756971f7,65d6bed1a69b90e7c1cebe08,0.0333,0.0334,0,45,45,108,1,sevenfive,,,,,,,,,,,,,,,,,,,,,,,,,,,,,,,,,,,,,,,,,,,,,,,,,,,,,,,,,,,,,,,,,,,,,,,,,,,,,,,,,,,,,,,,,,,,,,,,,,,,,,,,,,,,,,,,,,,,,,,,,,,,,,,,,,,,,,,,,
,,6139133041546096188da709,2024-02-21_21h26.32.498,kallum_motion_pilot,2023.2.2,Win32,59.17159763,6139133041546096188da709,65d6bb0e977760de756971f7,65d6bed1a69b90e7c1cebe08,0.0334,0.0335,0,46,46,16,1,onetwo,,,,,,,,,,,,,,,,,,,,,,,,,,,,,,,,,,,,,,,,,,,,,,,,,,,,,,,,,,,,,,,,,,,,,,,,,,,,,,,,,,,,,,,,,,,,,,,,,,,,,,,,,,,,,,,,,,,,,,,,,,,,,,,,,,,,,,,,,
,,6139133041546096188da709,2024-02-21_21h26.32.498,kallum_motion_pilot,2023.2.2,Win32,59.17159763,6139133041546096188da709,65d6bb0e977760de756971f7,65d6bed1a69b90e7c1cebe08,0.0336,0.0337,0,47,47,112,1,fivesix,,,,,,,,,,,,,,,,,,,,,,,,,,,,,,,,,,,,,,,,,,,,,,,,,,,,,,,,,,,,,,,,,,,,,,,,,,,,,,,,,,,,,,,,,,,,,,,,,,,,,,,,,,,,,,,,,,,,,,,,,,,,,,,,,,,,,,,,,
,,6139133041546096188da709,2024-02-21_21h26.32.498,kallum_motion_pilot,2023.2.2,Win32,59.17159763,6139133041546096188da709,65d6bb0e977760de756971f7,65d6bed1a69b90e7c1cebe08,0.0337,0.0338,0,48,48,127,1,eightseven,,,,,,,,,,,,,,,,,,,,,,,,,,,,,,,,,,,,,,,,,,,,,,,,,,,,,,,,,,,,,,,,,,,,,,,,,,,,,,,,,,,,,,,,,,,,,,,,,,,,,,,,,,,,,,,,,,,,,,,,,,,,,,,,,,,,,,,,,
,,6139133041546096188da709,2024-02-21_21h26.32.498,kallum_motion_pilot,2023.2.2,Win32,59.17159763,6139133041546096188da709,65d6bb0e977760de756971f7,65d6bed1a69b90e7c1cebe08,0.0352,0.0352,0,49,49,78,1,fourtwo,,,,,,,,,,,,,,,,,,,,,,,,,,,,,,,,,,,,,,,,,,,,,,,,,,,,,,,,,,,,,,,,,,,,,,,,,,,,,,,,,,,,,,,,,,,,,,,,,,,,,,,,,,,,,,,,,,,,,,,,,,,,,,,,,,,,,,,,,
,,6139133041546096188da709,2024-02-21_21h26.32.498,kallum_motion_pilot,2023.2.2,Win32,59.17159763,6139133041546096188da709,65d6bb0e977760de756971f7,65d6bed1a69b90e7c1cebe08,0.0354,0.0354,0,50,50,120,1,fivesix,,,,,,,,,,,,,,,,,,,,,,,,,,,,,,,,,,,,,,,,,,,,,,,,,,,,,,,,,,,,,,,,,,,,,,,,,,,,,,,,,,,,,,,,,,,,,,,,,,,,,,,,,,,,,,,,,,,,,,,,,,,,,,,,,,,,,,,,,
,,6139133041546096188da709,2024-02-21_21h26.32.498,kallum_motion_pilot,2023.2.2,Win32,59.17159763,6139133041546096188da709,65d6bb0e977760de756971f7,65d6bed1a69b90e7c1cebe08,0.0355,0.0355,0,51,51,154,1,sixfive,,,,,,,,,,,,,,,,,,,,,,,,,,,,,,,,,,,,,,,,,,,,,,,,,,,,,,,,,,,,,,,,,,,,,,,,,,,,,,,,,,,,,,,,,,,,,,,,,,,,,,,,,,,,,,,,,,,,,,,,,,,,,,,,,,,,,,,,,
,,6139133041546096188da709,2024-02-21_21h26.32.498,kallum_motion_pilot,2023.2.2,Win32,59.17159763,6139133041546096188da709,65d6bb0e977760de756971f7,65d6bed1a69b90e7c1cebe08,0.0356,0.0356,0,52,52,71,1,fourthree,,,,,,,,,,,,,,,,,,,,,,,,,,,,,,,,,,,,,,,,,,,,,,,,,,,,,,,,,,,,,,,,,,,,,,,,,,,,,,,,,,,,,,,,,,,,,,,,,,,,,,,,,,,,,,,,,,,,,,,,,,,,,,,,,,,,,,,,,
,,6139133041546096188da709,2024-02-21_21h26.32.498,kallum_motion_pilot,2023.2.2,Win32,59.17159763,6139133041546096188da709,65d6bb0e977760de756971f7,65d6bed1a69b90e7c1cebe08,0.0357,0.0358,0,53,53,138,1,sixfive,,,,,,,,,,,,,,,,,,,,,,,,,,,,,,,,,,,,,,,,,,,,,,,,,,,,,,,,,,,,,,,,,,,,,,,,,,,,,,,,,,,,,,,,,,,,,,,,,,,,,,,,,,,,,,,,,,,,,,,,,,,,,,,,,,,,,,,,,
,,6139133041546096188da709,2024-02-21_21h26.32.498,kallum_motion_pilot,2023.2.2,Win32,59.17159763,6139133041546096188da709,65d6bb0e977760de756971f7,65d6bed1a69b90e7c1cebe08,0.0359,0.036,0,54,54,114,1,sixfive,,,,,,,,,,,,,,,,,,,,,,,,,,,,,,,,,,,,,,,,,,,,,,,,,,,,,,,,,,,,,,,,,,,,,,,,,,,,,,,,,,,,,,,,,,,,,,,,,,,,,,,,,,,,,,,,,,,,,,,,,,,,,,,,,,,,,,,,,
,,6139133041546096188da709,2024-02-21_21h26.32.498,kallum_motion_pilot,2023.2.2,Win32,59.17159763,6139133041546096188da709,65d6bb0e977760de756971f7,65d6bed1a69b90e7c1cebe08,0.036,0.0361,0,55,55,147,1,sixeight,,,,,,,,,,,,,,,,,,,,,,,,,,,,,,,,,,,,,,,,,,,,,,,,,,,,,,,,,,,,,,,,,,,,,,,,,,,,,,,,,,,,,,,,,,,,,,,,,,,,,,,,,,,,,,,,,,,,,,,,,,,,,,,,,,,,,,,,,
,,6139133041546096188da709,2024-02-21_21h26.32.498,kallum_motion_pilot,2023.2.2,Win32,59.17159763,6139133041546096188da709,65d6bb0e977760de756971f7,65d6bed1a69b90e7c1cebe08,0.0362,0.0362,0,56,56,151,1,eightseven,,,,,,,,,,,,,,,,,,,,,,,,,,,,,,,,,,,,,,,,,,,,,,,,,,,,,,,,,,,,,,,,,,,,,,,,,,,,,,,,,,,,,,,,,,,,,,,,,,,,,,,,,,,,,,,,,,,,,,,,,,,,,,,,,,,,,,,,,
,,6139133041546096188da709,2024-02-21_21h26.32.498,kallum_motion_pilot,2023.2.2,Win32,59.17159763,6139133041546096188da709,65d6bb0e977760de756971f7,65d6bed1a69b90e7c1cebe08,0.0363,0.0363,0,57,57,4,1,threeone,,,,,,,,,,,,,,,,,,,,,,,,,,,,,,,,,,,,,,,,,,,,,,,,,,,,,,,,,,,,,,,,,,,,,,,,,,,,,,,,,,,,,,,,,,,,,,,,,,,,,,,,,,,,,,,,,,,,,,,,,,,,,,,,,,,,,,,,,
,,6139133041546096188da709,2024-02-21_21h26.32.498,kallum_motion_pilot,2023.2.2,Win32,59.17159763,6139133041546096188da709,65d6bb0e977760de756971f7,65d6bed1a69b90e7c1cebe08,0.0365,0.0365,0,58,58,7,1,fourthree,,,,,,,,,,,,,,,,,,,,,,,,,,,,,,,,,,,,,,,,,,,,,,,,,,,,,,,,,,,,,,,,,,,,,,,,,,,,,,,,,,,,,,,,,,,,,,,,,,,,,,,,,,,,,,,,,,,,,,,,,,,,,,,,,,,,,,,,,
,,6139133041546096188da709,2024-02-21_21h26.32.498,kallum_motion_pilot,2023.2.2,Win32,59.17159763,6139133041546096188da709,65d6bb0e977760de756971f7,65d6bed1a69b90e7c1cebe08,0.0366,0.0367,0,59,59,105,1,fiveseven,,,,,,,,,,,,,,,,,,,,,,,,,,,,,,,,,,,,,,,,,,,,,,,,,,,,,,,,,,,,,,,,,,,,,,,,,,,,,,,,,,,,,,,,,,,,,,,,,,,,,,,,,,,,,,,,,,,,,,,,,,,,,,,,,,,,,,,,,
,,6139133041546096188da709,2024-02-21_21h26.32.498,kallum_motion_pilot,2023.2.2,Win32,59.17159763,6139133041546096188da709,65d6bb0e977760de756971f7,65d6bed1a69b90e7c1cebe08,0.0368,0.0368,0,60,60,116,1,sevenfive,,,,,,,,,,,,,,,,,,,,,,,,,,,,,,,,,,,,,,,,,,,,,,,,,,,,,,,,,,,,,,,,,,,,,,,,,,,,,,,,,,,,,,,,,,,,,,,,,,,,,,,,,,,,,,,,,,,,,,,,,,,,,,,,,,,,,,,,,
,,6139133041546096188da709,2024-02-21_21h26.32.498,kallum_motion_pilot,2023.2.2,Win32,59.17159763,6139133041546096188da709,65d6bb0e977760de756971f7,65d6bed1a69b90e7c1cebe08,0.0369,0.037,0,61,61,111,1,eightseven,,,,,,,,,,,,,,,,,,,,,,,,,,,,,,,,,,,,,,,,,,,,,,,,,,,,,,,,,,,,,,,,,,,,,,,,,,,,,,,,,,,,,,,,,,,,,,,,,,,,,,,,,,,,,,,,,,,,,,,,,,,,,,,,,,,,,,,,,
,,6139133041546096188da709,2024-02-21_21h26.32.498,kallum_motion_pilot,2023.2.2,Win32,59.17159763,6139133041546096188da709,65d6bb0e977760de756971f7,65d6bed1a69b90e7c1cebe08,0.037,0.0371,0,62,62,28,1,threeone,,,,,,,,,,,,,,,,,,,,,,,,,,,,,,,,,,,,,,,,,,,,,,,,,,,,,,,,,,,,,,,,,,,,,,,,,,,,,,,,,,,,,,,,,,,,,,,,,,,,,,,,,,,,,,,,,,,,,,,,,,,,,,,,,,,,,,,,,
,,6139133041546096188da709,2024-02-21_21h26.32.498,kallum_motion_pilot,2023.2.2,Win32,59.17159763,6139133041546096188da709,65d6bb0e977760de756971f7,65d6bed1a69b90e7c1cebe08,0.0372,0.0373,0,63,63,5,1,threefour,,,,,,,,,,,,,,,,,,,,,,,,,,,,,,,,,,,,,,,,,,,,,,,,,,,,,,,,,,,,,,,,,,,,,,,,,,,,,,,,,,,,,,,,,,,,,,,,,,,,,,,,,,,,,,,,,,,,,,,,,,,,,,,,,,,,,,,,,
,,6139133041546096188da709,2024-02-21_21h26.32.498,kallum_motion_pilot,2023.2.2,Win32,59.17159763,6139133041546096188da709,65d6bb0e977760de756971f7,65d6bed1a69b90e7c1cebe08,0.0374,0.0374,0,64,64,86,1,eightsix,,,,,,,,,,,,,,,,,,,,,,,,,,,,,,,,,,,,,,,,,,,,,,,,,,,,,,,,,,,,,,,,,,,,,,,,,,,,,,,,,,,,,,,,,,,,,,,,,,,,,,,,,,,,,,,,,,,,,,,,,,,,,,,,,,,,,,,,,
,,6139133041546096188da709,2024-02-21_21h26.32.498,kallum_motion_pilot,2023.2.2,Win32,59.17159763,6139133041546096188da709,65d6bb0e977760de756971f7,65d6bed1a69b90e7c1cebe08,0.0376,0.0376,0,65,65,96,1,fivesix,,,,,,,,,,,,,,,,,,,,,,,,,,,,,,,,,,,,,,,,,,,,,,,,,,,,,,,,,,,,,,,,,,,,,,,,,,,,,,,,,,,,,,,,,,,,,,,,,,,,,,,,,,,,,,,,,,,,,,,,,,,,,,,,,,,,,,,,,
,,6139133041546096188da709,2024-02-21_21h26.32.498,kallum_motion_pilot,2023.2.2,Win32,59.17159763,6139133041546096188da709,65d6bb0e977760de756971f7,65d6bed1a69b90e7c1cebe08,0.0378,0.0378,0,66,66,70,1,fourtwo,,,,,,,,,,,,,,,,,,,,,,,,,,,,,,,,,,,,,,,,,,,,,,,,,,,,,,,,,,,,,,,,,,,,,,,,,,,,,,,,,,,,,,,,,,,,,,,,,,,,,,,,,,,,,,,,,,,,,,,,,,,,,,,,,,,,,,,,,
,,6139133041546096188da709,2024-02-21_21h26.32.498,kallum_motion_pilot,2023.2.2,Win32,59.17159763,6139133041546096188da709,65d6bb0e977760de756971f7,65d6bed1a69b90e7c1cebe08,0.0379,0.038,0,67,67,141,1,seveneight,,,,,,,,,,,,,,,,,,,,,,,,,,,,,,,,,,,,,,,,,,,,,,,,,,,,,,,,,,,,,,,,,,,,,,,,,,,,,,,,,,,,,,,,,,,,,,,,,,,,,,,,,,,,,,,,,,,,,,,,,,,,,,,,,,,,,,,,,
,,6139133041546096188da709,2024-02-21_21h26.32.498,kallum_motion_pilot,2023.2.2,Win32,59.17159763,6139133041546096188da709,65d6bb0e977760de756971f7,65d6bed1a69b90e7c1cebe08,0.0381,0.0381,0,68,68,117,1,seveneight,,,,,,,,,,,,,,,,,,,,,,,,,,,,,,,,,,,,,,,,,,,,,,,,,,,,,,,,,,,,,,,,,,,,,,,,,,,,,,,,,,,,,,,,,,,,,,,,,,,,,,,,,,,,,,,,,,,,,,,,,,,,,,,,,,,,,,,,,
,,6139133041546096188da709,2024-02-21_21h26.32.498,kallum_motion_pilot,2023.2.2,Win32,59.17159763,6139133041546096188da709,65d6bb0e977760de756971f7,65d6bed1a69b90e7c1cebe08,0.0383,0.0383,0,69,69,48,1,onetwo,,,,,,,,,,,,,,,,,,,,,,,,,,,,,,,,,,,,,,,,,,,,,,,,,,,,,,,,,,,,,,,,,,,,,,,,,,,,,,,,,,,,,,,,,,,,,,,,,,,,,,,,,,,,,,,,,,,,,,,,,,,,,,,,,,,,,,,,,
,,6139133041546096188da709,2024-02-21_21h26.32.498,kallum_motion_pilot,2023.2.2,Win32,59.17159763,6139133041546096188da709,65d6bb0e977760de756971f7,65d6bed1a69b90e7c1cebe08,0.0384,0.0385,0,70,70,51,1,twofour,,,,,,,,,,,,,,,,,,,,,,,,,,,,,,,,,,,,,,,,,,,,,,,,,,,,,,,,,,,,,,,,,,,,,,,,,,,,,,,,,,,,,,,,,,,,,,,,,,,,,,,,,,,,,,,,,,,,,,,,,,,,,,,,,,,,,,,,,
,,6139133041546096188da709,2024-02-21_21h26.32.498,kallum_motion_pilot,2023.2.2,Win32,59.17159763,6139133041546096188da709,65d6bb0e977760de756971f7,65d6bed1a69b90e7c1cebe08,0.0387,0.0389,0,71,71,140,1,sevenfive,,,,,,,,,,,,,,,,,,,,,,,,,,,,,,,,,,,,,,,,,,,,,,,,,,,,,,,,,,,,,,,,,,,,,,,,,,,,,,,,,,,,,,,,,,,,,,,,,,,,,,,,,,,,,,,,,,,,,,,,,,,,,,,,,,,,,,,,,
,,6139133041546096188da709,2024-02-21_21h26.32.498,kallum_motion_pilot,2023.2.2,Win32,59.17159763,6139133041546096188da709,65d6bb0e977760de756971f7,65d6bed1a69b90e7c1cebe08,0.039,0.039,0,72,72,144,1,fivesix,,,,,,,,,,,,,,,,,,,,,,,,,,,,,,,,,,,,,,,,,,,,,,,,,,,,,,,,,,,,,,,,,,,,,,,,,,,,,,,,,,,,,,,,,,,,,,,,,,,,,,,,,,,,,,,,,,,,,,,,,,,,,,,,,,,,,,,,,
,,6139133041546096188da709,2024-02-21_21h26.32.498,kallum_motion_pilot,2023.2.2,Win32,59.17159763,6139133041546096188da709,65d6bb0e977760de756971f7,65d6bed1a69b90e7c1cebe08,0.0393,0.0394,0,73,73,153,1,fiveseven,,,,,,,,,,,,,,,,,,,,,,,,,,,,,,,,,,,,,,,,,,,,,,,,,,,,,,,,,,,,,,,,,,,,,,,,,,,,,,,,,,,,,,,,,,,,,,,,,,,,,,,,,,,,,,,,,,,,,,,,,,,,,,,,,,,,,,,,,
,,6139133041546096188da709,2024-02-21_21h26.32.498,kallum_motion_pilot,2023.2.2,Win32,59.17159763,6139133041546096188da709,65d6bb0e977760de756971f7,65d6bed1a69b90e7c1cebe08,0.0397,0.0398,0,74,74,150,1,eightsix,,,,,,,,,,,,,,,,,,,,,,,,,,,,,,,,,,,,,,,,,,,,,,,,,,,,,,,,,,,,,,,,,,,,,,,,,,,,,,,,,,,,,,,,,,,,,,,,,,,,,,,,,,,,,,,,,,,,,,,,,,,,,,,,,,,,,,,,,
,,6139133041546096188da709,2024-02-21_21h26.32.498,kallum_motion_pilot,2023.2.2,Win32,59.17159763,6139133041546096188da709,65d6bb0e977760de756971f7,65d6bed1a69b90e7c1cebe08,0.0399,0.04,0,75,75,72,1,onetwo,,,,,,,,,,,,,,,,,,,,,,,,,,,,,,,,,,,,,,,,,,,,,,,,,,,,,,,,,,,,,,,,,,,,,,,,,,,,,,,,,,,,,,,,,,,,,,,,,,,,,,,,,,,,,,,,,,,,,,,,,,,,,,,,,,,,,,,,,
,,6139133041546096188da709,2024-02-21_21h26.32.498,kallum_motion_pilot,2023.2.2,Win32,59.17159763,6139133041546096188da709,65d6bb0e977760de756971f7,65d6bed1a69b90e7c1cebe08,0.0401,0.0401,0,76,76,64,1,onetwo,,,,,,,,,,,,,,,,,,,,,,,,,,,,,,,,,,,,,,,,,,,,,,,,,,,,,,,,,,,,,,,,,,,,,,,,,,,,,,,,,,,,,,,,,,,,,,,,,,,,,,,,,,,,,,,,,,,,,,,,,,,,,,,,,,,,,,,,,
,,6139133041546096188da709,2024-02-21_21h26.32.498,kallum_motion_pilot,2023.2.2,Win32,59.17159763,6139133041546096188da709,65d6bb0e977760de756971f7,65d6bed1a69b90e7c1cebe08,0.0403,0.0403,0,77,77,61,1,threefour,,,,,,,,,,,,,,,,,,,,,,,,,,,,,,,,,,,,,,,,,,,,,,,,,,,,,,,,,,,,,,,,,,,,,,,,,,,,,,,,,,,,,,,,,,,,,,,,,,,,,,,,,,,,,,,,,,,,,,,,,,,,,,,,,,,,,,,,,
,,6139133041546096188da709,2024-02-21_21h26.32.498,kallum_motion_pilot,2023.2.2,Win32,59.17159763,6139133041546096188da709,65d6bb0e977760de756971f7,65d6bed1a69b90e7c1cebe08,0.0405,0.0405,0,78,78,33,1,onethree,,,,,,,,,,,,,,,,,,,,,,,,,,,,,,,,,,,,,,,,,,,,,,,,,,,,,,,,,,,,,,,,,,,,,,,,,,,,,,,,,,,,,,,,,,,,,,,,,,,,,,,,,,,,,,,,,,,,,,,,,,,,,,,,,,,,,,,,,
,,6139133041546096188da709,2024-02-21_21h26.32.498,kallum_motion_pilot,2023.2.2,Win32,59.17159763,6139133041546096188da709,65d6bb0e977760de756971f7,65d6bed1a69b90e7c1cebe08,0.0406,0.0407,0,79,79,88,1,fivesix,,,,,,,,,,,,,,,,,,,,,,,,,,,,,,,,,,,,,,,,,,,,,,,,,,,,,,,,,,,,,,,,,,,,,,,,,,,,,,,,,,,,,,,,,,,,,,,,,,,,,,,,,,,,,,,,,,,,,,,,,,,,,,,,,,,,,,,,,
,,6139133041546096188da709,2024-02-21_21h26.32.498,kallum_motion_pilot,2023.2.2,Win32,59.17159763,6139133041546096188da709,65d6bb0e977760de756971f7,65d6bed1a69b90e7c1cebe08,0.0408,0.0409,0,80,80,91,1,sixeight,,,,,,,,,,,,,,,,,,,,,,,,,,,,,,,,,,,,,,,,,,,,,,,,,,,,,,,,,,,,,,,,,,,,,,,,,,,,,,,,,,,,,,,,,,,,,,,,,,,,,,,,,,,,,,,,,,,,,,,,,,,,,,,,,,,,,,,,,
,,6139133041546096188da709,2024-02-21_21h26.32.498,kallum_motion_pilot,2023.2.2,Win32,59.17159763,6139133041546096188da709,65d6bb0e977760de756971f7,65d6bed1a69b90e7c1cebe08,0.041,0.041,0,81,81,100,1,sevenfive,,,,,,,,,,,,,,,,,,,,,,,,,,,,,,,,,,,,,,,,,,,,,,,,,,,,,,,,,,,,,,,,,,,,,,,,,,,,,,,,,,,,,,,,,,,,,,,,,,,,,,,,,,,,,,,,,,,,,,,,,,,,,,,,,,,,,,,,,
,,6139133041546096188da709,2024-02-21_21h26.32.498,kallum_motion_pilot,2023.2.2,Win32,59.17159763,6139133041546096188da709,65d6bb0e977760de756971f7,65d6bed1a69b90e7c1cebe08,0.0411,0.0412,0,82,82,12,1,threeone,,,,,,,,,,,,,,,,,,,,,,,,,,,,,,,,,,,,,,,,,,,,,,,,,,,,,,,,,,,,,,,,,,,,,,,,,,,,,,,,,,,,,,,,,,,,,,,,,,,,,,,,,,,,,,,,,,,,,,,,,,,,,,,,,,,,,,,,,
,,6139133041546096188da709,2024-02-21_21h26.32.498,kallum_motion_pilot,2023.2.2,Win32,59.17159763,6139133041546096188da709,65d6bb0e977760de756971f7,65d6bed1a69b90e7c1cebe08,0.0413,0.0413,0,83,83,3,1,twofour,,,,,,,,,,,,,,,,,,,,,,,,,,,,,,,,,,,,,,,,,,,,,,,,,,,,,,,,,,,,,,,,,,,,,,,,,,,,,,,,,,,,,,,,,,,,,,,,,,,,,,,,,,,,,,,,,,,,,,,,,,,,,,,,,,,,,,,,,
,,6139133041546096188da709,2024-02-21_21h26.32.498,kallum_motion_pilot,2023.2.2,Win32,59.17159763,6139133041546096188da709,65d6bb0e977760de756971f7,65d6bed1a69b90e7c1cebe08,0.0413,0.0415,0,84,84,22,1,fourtwo,,,,,,,,,,,,,,,,,,,,,,,,,,,,,,,,,,,,,,,,,,,,,,,,,,,,,,,,,,,,,,,,,,,,,,,,,,,,,,,,,,,,,,,,,,,,,,,,,,,,,,,,,,,,,,,,,,,,,,,,,,,,,,,,,,,,,,,,,
,,6139133041546096188da709,2024-02-21_21h26.32.498,kallum_motion_pilot,2023.2.2,Win32,59.17159763,6139133041546096188da709,65d6bb0e977760de756971f7,65d6bed1a69b90e7c1cebe08,0.0416,0.0416,0,85,85,69,1,threefour,,,,,,,,,,,,,,,,,,,,,,,,,,,,,,,,,,,,,,,,,,,,,,,,,,,,,,,,,,,,,,,,,,,,,,,,,,,,,,,,,,,,,,,,,,,,,,,,,,,,,,,,,,,,,,,,,,,,,,,,,,,,,,,,,,,,,,,,,
,,6139133041546096188da709,2024-02-21_21h26.32.498,kallum_motion_pilot,2023.2.2,Win32,59.17159763,6139133041546096188da709,65d6bb0e977760de756971f7,65d6bed1a69b90e7c1cebe08,0.0417,0.0418,0,86,86,46,1,fourtwo,,,,,,,,,,,,,,,,,,,,,,,,,,,,,,,,,,,,,,,,,,,,,,,,,,,,,,,,,,,,,,,,,,,,,,,,,,,,,,,,,,,,,,,,,,,,,,,,,,,,,,,,,,,,,,,,,,,,,,,,,,,,,,,,,,,,,,,,,
,,6139133041546096188da709,2024-02-21_21h26.32.498,kallum_motion_pilot,2023.2.2,Win32,59.17159763,6139133041546096188da709,65d6bb0e977760de756971f7,65d6bed1a69b90e7c1cebe08,0.0418,0.0419,0,87,87,122,1,sixfive,,,,,,,,,,,,,,,,,,,,,,,,,,,,,,,,,,,,,,,,,,,,,,,,,,,,,,,,,,,,,,,,,,,,,,,,,,,,,,,,,,,,,,,,,,,,,,,,,,,,,,,,,,,,,,,,,,,,,,,,,,,,,,,,,,,,,,,,,
,,6139133041546096188da709,2024-02-21_21h26.32.498,kallum_motion_pilot,2023.2.2,Win32,59.17159763,6139133041546096188da709,65d6bb0e977760de756971f7,65d6bed1a69b90e7c1cebe08,0.042,0.0421,0,88,88,1,1,onethree,,,,,,,,,,,,,,,,,,,,,,,,,,,,,,,,,,,,,,,,,,,,,,,,,,,,,,,,,,,,,,,,,,,,,,,,,,,,,,,,,,,,,,,,,,,,,,,,,,,,,,,,,,,,,,,,,,,,,,,,,,,,,,,,,,,,,,,,,
,,6139133041546096188da709,2024-02-21_21h26.32.498,kallum_motion_pilot,2023.2.2,Win32,59.17159763,6139133041546096188da709,65d6bb0e977760de756971f7,65d6bed1a69b90e7c1cebe08,0.0422,0.0422,0,89,89,18,1,twoone,,,,,,,,,,,,,,,,,,,,,,,,,,,,,,,,,,,,,,,,,,,,,,,,,,,,,,,,,,,,,,,,,,,,,,,,,,,,,,,,,,,,,,,,,,,,,,,,,,,,,,,,,,,,,,,,,,,,,,,,,,,,,,,,,,,,,,,,,
,,6139133041546096188da709,2024-02-21_21h26.32.498,kallum_motion_pilot,2023.2.2,Win32,59.17159763,6139133041546096188da709,65d6bb0e977760de756971f7,65d6bed1a69b90e7c1cebe08,0.0424,0.0425,0,90,90,39,1,fourthree,,,,,,,,,,,,,,,,,,,,,,,,,,,,,,,,,,,,,,,,,,,,,,,,,,,,,,,,,,,,,,,,,,,,,,,,,,,,,,,,,,,,,,,,,,,,,,,,,,,,,,,,,,,,,,,,,,,,,,,,,,,,,,,,,,,,,,,,,
,,6139133041546096188da709,2024-02-21_21h26.32.498,kallum_motion_pilot,2023.2.2,Win32,59.17159763,6139133041546096188da709,65d6bb0e977760de756971f7,65d6bed1a69b90e7c1cebe08,0.0426,0.0427,0,91,91,52,1,threeone,,,,,,,,,,,,,,,,,,,,,,,,,,,,,,,,,,,,,,,,,,,,,,,,,,,,,,,,,,,,,,,,,,,,,,,,,,,,,,,,,,,,,,,,,,,,,,,,,,,,,,,,,,,,,,,,,,,,,,,,,,,,,,,,,,,,,,,,,
,,6139133041546096188da709,2024-02-21_21h26.32.498,kallum_motion_pilot,2023.2.2,Win32,59.17159763,6139133041546096188da709,65d6bb0e977760de756971f7,65d6bed1a69b90e7c1cebe08,0.0428,0.0429,0,92,92,115,1,sixeight,,,,,,,,,,,,,,,,,,,,,,,,,,,,,,,,,,,,,,,,,,,,,,,,,,,,,,,,,,,,,,,,,,,,,,,,,,,,,,,,,,,,,,,,,,,,,,,,,,,,,,,,,,,,,,,,,,,,,,,,,,,,,,,,,,,,,,,,,
,,6139133041546096188da709,2024-02-21_21h26.32.498,kallum_motion_pilot,2023.2.2,Win32,59.17159763,6139133041546096188da709,65d6bb0e977760de756971f7,65d6bed1a69b90e7c1cebe08,0.0429,0.0429,0,93,93,121,1,fiveseven,,,,,,,,,,,,,,,,,,,,,,,,,,,,,,,,,,,,,,,,,,,,,,,,,,,,,,,,,,,,,,,,,,,,,,,,,,,,,,,,,,,,,,,,,,,,,,,,,,,,,,,,,,,,,,,,,,,,,,,,,,,,,,,,,,,,,,,,,
,,6139133041546096188da709,2024-02-21_21h26.32.498,kallum_motion_pilot,2023.2.2,Win32,59.17159763,6139133041546096188da709,65d6bb0e977760de756971f7,65d6bed1a69b90e7c1cebe08,0.0431,0.0432,0,94,94,99,1,sixeight,,,,,,,,,,,,,,,,,,,,,,,,,,,,,,,,,,,,,,,,,,,,,,,,,,,,,,,,,,,,,,,,,,,,,,,,,,,,,,,,,,,,,,,,,,,,,,,,,,,,,,,,,,,,,,,,,,,,,,,,,,,,,,,,,,,,,,,,,
,,6139133041546096188da709,2024-02-21_21h26.32.498,kallum_motion_pilot,2023.2.2,Win32,59.17159763,6139133041546096188da709,65d6bb0e977760de756971f7,65d6bed1a69b90e7c1cebe08,0.0433,0.0434,0,95,95,146,1,sixfive,,,,,,,,,,,,,,,,,,,,,,,,,,,,,,,,,,,,,,,,,,,,,,,,,,,,,,,,,,,,,,,,,,,,,,,,,,,,,,,,,,,,,,,,,,,,,,,,,,,,,,,,,,,,,,,,,,,,,,,,,,,,,,,,,,,,,,,,,
,,6139133041546096188da709,2024-02-21_21h26.32.498,kallum_motion_pilot,2023.2.2,Win32,59.17159763,6139133041546096188da709,65d6bb0e977760de756971f7,65d6bed1a69b90e7c1cebe08,0.0434,0.0436,0,96,96,34,1,twoone,,,,,,,,,,,,,,,,,,,,,,,,,,,,,,,,,,,,,,,,,,,,,,,,,,,,,,,,,,,,,,,,,,,,,,,,,,,,,,,,,,,,,,,,,,,,,,,,,,,,,,,,,,,,,,,,,,,,,,,,,,,,,,,,,,,,,,,,,
,,6139133041546096188da709,2024-02-21_21h26.32.498,kallum_motion_pilot,2023.2.2,Win32,59.17159763,6139133041546096188da709,65d6bb0e977760de756971f7,65d6bed1a69b90e7c1cebe08,0.0437,0.0438,0,97,97,124,1,sevenfive,,,,,,,,,,,,,,,,,,,,,,,,,,,,,,,,,,,,,,,,,,,,,,,,,,,,,,,,,,,,,,,,,,,,,,,,,,,,,,,,,,,,,,,,,,,,,,,,,,,,,,,,,,,,,,,,,,,,,,,,,,,,,,,,,,,,,,,,,
,,6139133041546096188da709,2024-02-21_21h26.32.498,kallum_motion_pilot,2023.2.2,Win32,59.17159763,6139133041546096188da709,65d6bb0e977760de756971f7,65d6bed1a69b90e7c1cebe08,0.0439,0.0439,0,98,98,30,1,fourtwo,,,,,,,,,,,,,,,,,,,,,,,,,,,,,,,,,,,,,,,,,,,,,,,,,,,,,,,,,,,,,,,,,,,,,,,,,,,,,,,,,,,,,,,,,,,,,,,,,,,,,,,,,,,,,,,,,,,,,,,,,,,,,,,,,,,,,,,,,
,,6139133041546096188da709,2024-02-21_21h26.32.498,kallum_motion_pilot,2023.2.2,Win32,59.17159763,6139133041546096188da709,65d6bb0e977760de756971f7,65d6bed1a69b90e7c1cebe08,0.044,0.0441,0,99,99,17,1,onethree,,,,,,,,,,,,,,,,,,,,,,,,,,,,,,,,,,,,,,,,,,,,,,,,,,,,,,,,,,,,,,,,,,,,,,,,,,,,,,,,,,,,,,,,,,,,,,,,,,,,,,,,,,,,,,,,,,,,,,,,,,,,,,,,,,,,,,,,,
,,6139133041546096188da709,2024-02-21_21h26.32.498,kallum_motion_pilot,2023.2.2,Win32,59.17159763,6139133041546096188da709,65d6bb0e977760de756971f7,65d6bed1a69b90e7c1cebe08,0.0441,0.0442,0,100,100,158,1,eightsix,,,,,,,,,,,,,,,,,,,,,,,,,,,,,,,,,,,,,,,,,,,,,,,,,,,,,,,,,,,,,,,,,,,,,,,,,,,,,,,,,,,,,,,,,,,,,,,,,,,,,,,,,,,,,,,,,,,,,,,,,,,,,,,,,,,,,,,,,
,,6139133041546096188da709,2024-02-21_21h26.32.498,kallum_motion_pilot,2023.2.2,Win32,59.17159763,6139133041546096188da709,65d6bb0e977760de756971f7,65d6bed1a69b90e7c1cebe08,0.0443,0.0444,0,101,101,143,1,eightseven,,,,,,,,,,,,,,,,,,,,,,,,,,,,,,,,,,,,,,,,,,,,,,,,,,,,,,,,,,,,,,,,,,,,,,,,,,,,,,,,,,,,,,,,,,,,,,,,,,,,,,,,,,,,,,,,,,,,,,,,,,,,,,,,,,,,,,,,,
,,6139133041546096188da709,2024-02-21_21h26.32.498,kallum_motion_pilot,2023.2.2,Win32,59.17159763,6139133041546096188da709,65d6bb0e977760de756971f7,65d6bed1a69b90e7c1cebe08,0.0444,0.0445,0,102,102,0,1,onetwo,,,,,,,,,,,,,,,,,,,,,,,,,,,,,,,,,,,,,,,,,,,,,,,,,,,,,,,,,,,,,,,,,,,,,,,,,,,,,,,,,,,,,,,,,,,,,,,,,,,,,,,,,,,,,,,,,,,,,,,,,,,,,,,,,,,,,,,,,
,,6139133041546096188da709,2024-02-21_21h26.32.498,kallum_motion_pilot,2023.2.2,Win32,59.17159763,6139133041546096188da709,65d6bb0e977760de756971f7,65d6bed1a69b90e7c1cebe08,0.0447,0.0447,0,103,103,128,1,fivesix,,,,,,,,,,,,,,,,,,,,,,,,,,,,,,,,,,,,,,,,,,,,,,,,,,,,,,,,,,,,,,,,,,,,,,,,,,,,,,,,,,,,,,,,,,,,,,,,,,,,,,,,,,,,,,,,,,,,,,,,,,,,,,,,,,,,,,,,,
,,6139133041546096188da709,2024-02-21_21h26.32.498,kallum_motion_pilot,2023.2.2,Win32,59.17159763,6139133041546096188da709,65d6bb0e977760de756971f7,65d6bed1a69b90e7c1cebe08,0.0449,0.0449,0,104,104,106,1,sixfive,,,,,,,,,,,,,,,,,,,,,,,,,,,,,,,,,,,,,,,,,,,,,,,,,,,,,,,,,,,,,,,,,,,,,,,,,,,,,,,,,,,,,,,,,,,,,,,,,,,,,,,,,,,,,,,,,,,,,,,,,,,,,,,,,,,,,,,,,
,,6139133041546096188da709,2024-02-21_21h26.32.498,kallum_motion_pilot,2023.2.2,Win32,59.17159763,6139133041546096188da709,65d6bb0e977760de756971f7,65d6bed1a69b90e7c1cebe08,0.0451,0.0451,0,105,105,67,1,twofour,,,,,,,,,,,,,,,,,,,,,,,,,,,,,,,,,,,,,,,,,,,,,,,,,,,,,,,,,,,,,,,,,,,,,,,,,,,,,,,,,,,,,,,,,,,,,,,,,,,,,,,,,,,,,,,,,,,,,,,,,,,,,,,,,,,,,,,,,
,,6139133041546096188da709,2024-02-21_21h26.32.498,kallum_motion_pilot,2023.2.2,Win32,59.17159763,6139133041546096188da709,65d6bb0e977760de756971f7,65d6bed1a69b90e7c1cebe08,0.0452,0.0453,0,106,106,109,1,seveneight,,,,,,,,,,,,,,,,,,,,,,,,,,,,,,,,,,,,,,,,,,,,,,,,,,,,,,,,,,,,,,,,,,,,,,,,,,,,,,,,,,,,,,,,,,,,,,,,,,,,,,,,,,,,,,,,,,,,,,,,,,,,,,,,,,,,,,,,,
,,6139133041546096188da709,2024-02-21_21h26.32.498,kallum_motion_pilot,2023.2.2,Win32,59.17159763,6139133041546096188da709,65d6bb0e977760de756971f7,65d6bed1a69b90e7c1cebe08,0.0454,0.0455,0,107,107,62,1,fourtwo,,,,,,,,,,,,,,,,,,,,,,,,,,,,,,,,,,,,,,,,,,,,,,,,,,,,,,,,,,,,,,,,,,,,,,,,,,,,,,,,,,,,,,,,,,,,,,,,,,,,,,,,,,,,,,,,,,,,,,,,,,,,,,,,,,,,,,,,,
,,6139133041546096188da709,2024-02-21_21h26.32.498,kallum_motion_pilot,2023.2.2,Win32,59.17159763,6139133041546096188da709,65d6bb0e977760de756971f7,65d6bed1a69b90e7c1cebe08,0.0457,0.0457,0,108,108,77,1,threefour,,,,,,,,,,,,,,,,,,,,,,,,,,,,,,,,,,,,,,,,,,,,,,,,,,,,,,,,,,,,,,,,,,,,,,,,,,,,,,,,,,,,,,,,,,,,,,,,,,,,,,,,,,,,,,,,,,,,,,,,,,,,,,,,,,,,,,,,,
,,6139133041546096188da709,2024-02-21_21h26.32.498,kallum_motion_pilot,2023.2.2,Win32,59.17159763,6139133041546096188da709,65d6bb0e977760de756971f7,65d6bed1a69b90e7c1cebe08,0.0459,0.0459,0,109,109,15,1,fourthree,,,,,,,,,,,,,,,,,,,,,,,,,,,,,,,,,,,,,,,,,,,,,,,,,,,,,,,,,,,,,,,,,,,,,,,,,,,,,,,,,,,,,,,,,,,,,,,,,,,,,,,,,,,,,,,,,,,,,,,,,,,,,,,,,,,,,,,,,
,,6139133041546096188da709,2024-02-21_21h26.32.498,kallum_motion_pilot,2023.2.2,Win32,59.17159763,6139133041546096188da709,65d6bb0e977760de756971f7,65d6bed1a69b90e7c1cebe08,0.0459,0.046,0,110,110,131,1,sixeight,,,,,,,,,,,,,,,,,,,,,,,,,,,,,,,,,,,,,,,,,,,,,,,,,,,,,,,,,,,,,,,,,,,,,,,,,,,,,,,,,,,,,,,,,,,,,,,,,,,,,,,,,,,,,,,,,,,,,,,,,,,,,,,,,,,,,,,,,
,,6139133041546096188da709,2024-02-21_21h26.32.498,kallum_motion_pilot,2023.2.2,Win32,59.17159763,6139133041546096188da709,65d6bb0e977760de756971f7,65d6bed1a69b90e7c1cebe08,0.0462,0.0462,0,111,111,73,1,onethree,,,,,,,,,,,,,,,,,,,,,,,,,,,,,,,,,,,,,,,,,,,,,,,,,,,,,,,,,,,,,,,,,,,,,,,,,,,,,,,,,,,,,,,,,,,,,,,,,,,,,,,,,,,,,,,,,,,,,,,,,,,,,,,,,,,,,,,,,
,,6139133041546096188da709,2024-02-21_21h26.32.498,kallum_motion_pilot,2023.2.2,Win32,59.17159763,6139133041546096188da709,65d6bb0e977760de756971f7,65d6bed1a69b90e7c1cebe08,0.0463,0.0464,0,112,112,6,1,fourtwo,,,,,,,,,,,,,,,,,,,,,,,,,,,,,,,,,,,,,,,,,,,,,,,,,,,,,,,,,,,,,,,,,,,,,,,,,,,,,,,,,,,,,,,,,,,,,,,,,,,,,,,,,,,,,,,,,,,,,,,,,,,,,,,,,,,,,,,,,
,,6139133041546096188da709,2024-02-21_21h26.32.498,kallum_motion_pilot,2023.2.2,Win32,59.17159763,6139133041546096188da709,65d6bb0e977760de756971f7,65d6bed1a69b90e7c1cebe08,0.0464,0.0466,0,113,113,32,1,onetwo,,,,,,,,,,,,,,,,,,,,,,,,,,,,,,,,,,,,,,,,,,,,,,,,,,,,,,,,,,,,,,,,,,,,,,,,,,,,,,,,,,,,,,,,,,,,,,,,,,,,,,,,,,,,,,,,,,,,,,,,,,,,,,,,,,,,,,,,,
,,6139133041546096188da709,2024-02-21_21h26.32.498,kallum_motion_pilot,2023.2.2,Win32,59.17159763,6139133041546096188da709,65d6bb0e977760de756971f7,65d6bed1a69b90e7c1cebe08,0.0466,0.0467,0,114,114,135,1,eightseven,,,,,,,,,,,,,,,,,,,,,,,,,,,,,,,,,,,,,,,,,,,,,,,,,,,,,,,,,,,,,,,,,,,,,,,,,,,,,,,,,,,,,,,,,,,,,,,,,,,,,,,,,,,,,,,,,,,,,,,,,,,,,,,,,,,,,,,,,
,,6139133041546096188da709,2024-02-21_21h26.32.498,kallum_motion_pilot,2023.2.2,Win32,59.17159763,6139133041546096188da709,65d6bb0e977760de756971f7,65d6bed1a69b90e7c1cebe08,0.0468,0.0469,0,115,115,110,1,eightsix,,,,,,,,,,,,,,,,,,,,,,,,,,,,,,,,,,,,,,,,,,,,,,,,,,,,,,,,,,,,,,,,,,,,,,,,,,,,,,,,,,,,,,,,,,,,,,,,,,,,,,,,,,,,,,,,,,,,,,,,,,,,,,,,,,,,,,,,,
,,6139133041546096188da709,2024-02-21_21h26.32.498,kallum_motion_pilot,2023.2.2,Win32,59.17159763,6139133041546096188da709,65d6bb0e977760de756971f7,65d6bed1a69b90e7c1cebe08,0.047,0.0471,0,116,116,98,1,sixfive,,,,,,,,,,,,,,,,,,,,,,,,,,,,,,,,,,,,,,,,,,,,,,,,,,,,,,,,,,,,,,,,,,,,,,,,,,,,,,,,,,,,,,,,,,,,,,,,,,,,,,,,,,,,,,,,,,,,,,,,,,,,,,,,,,,,,,,,,
,,6139133041546096188da709,2024-02-21_21h26.32.498,kallum_motion_pilot,2023.2.2,Win32,59.17159763,6139133041546096188da709,65d6bb0e977760de756971f7,65d6bed1a69b90e7c1cebe08,0.0472,0.0473,0,117,117,68,1,threeone,,,,,,,,,,,,,,,,,,,,,,,,,,,,,,,,,,,,,,,,,,,,,,,,,,,,,,,,,,,,,,,,,,,,,,,,,,,,,,,,,,,,,,,,,,,,,,,,,,,,,,,,,,,,,,,,,,,,,,,,,,,,,,,,,,,,,,,,,
,,6139133041546096188da709,2024-02-21_21h26.32.498,kallum_motion_pilot,2023.2.2,Win32,59.17159763,6139133041546096188da709,65d6bb0e977760de756971f7,65d6bed1a69b90e7c1cebe08,0.0473,0.0474,0,118,118,97,1,fiveseven,,,,,,,,,,,,,,,,,,,,,,,,,,,,,,,,,,,,,,,,,,,,,,,,,,,,,,,,,,,,,,,,,,,,,,,,,,,,,,,,,,,,,,,,,,,,,,,,,,,,,,,,,,,,,,,,,,,,,,,,,,,,,,,,,,,,,,,,,
,,6139133041546096188da709,2024-02-21_21h26.32.498,kallum_motion_pilot,2023.2.2,Win32,59.17159763,6139133041546096188da709,65d6bb0e977760de756971f7,65d6bed1a69b90e7c1cebe08,0.0478,0.0479,0,119,119,40,1,onetwo,,,,,,,,,,,,,,,,,,,,,,,,,,,,,,,,,,,,,,,,,,,,,,,,,,,,,,,,,,,,,,,,,,,,,,,,,,,,,,,,,,,,,,,,,,,,,,,,,,,,,,,,,,,,,,,,,,,,,,,,,,,,,,,,,,,,,,,,,
,,6139133041546096188da709,2024-02-21_21h26.32.498,kallum_motion_pilot,2023.2.2,Win32,59.17159763,6139133041546096188da709,65d6bb0e977760de756971f7,65d6bed1a69b90e7c1cebe08,0.048,0.0481,0,120,120,152,1,fivesix,,,,,,,,,,,,,,,,,,,,,,,,,,,,,,,,,,,,,,,,,,,,,,,,,,,,,,,,,,,,,,,,,,,,,,,,,,,,,,,,,,,,,,,,,,,,,,,,,,,,,,,,,,,,,,,,,,,,,,,,,,,,,,,,,,,,,,,,,
,,6139133041546096188da709,2024-02-21_21h26.32.498,kallum_motion_pilot,2023.2.2,Win32,59.17159763,6139133041546096188da709,65d6bb0e977760de756971f7,65d6bed1a69b90e7c1cebe08,0.0482,0.0482,0,121,121,125,1,seveneight,,,,,,,,,,,,,,,,,,,,,,,,,,,,,,,,,,,,,,,,,,,,,,,,,,,,,,,,,,,,,,,,,,,,,,,,,,,,,,,,,,,,,,,,,,,,,,,,,,,,,,,,,,,,,,,,,,,,,,,,,,,,,,,,,,,,,,,,,
,,6139133041546096188da709,2024-02-21_21h26.32.498,kallum_motion_pilot,2023.2.2,Win32,59.17159763,6139133041546096188da709,65d6bb0e977760de756971f7,65d6bed1a69b90e7c1cebe08,0.0484,0.0485,0,122,122,129,1,fiveseven,,,,,,,,,,,,,,,,,,,,,,,,,,,,,,,,,,,,,,,,,,,,,,,,,,,,,,,,,,,,,,,,,,,,,,,,,,,,,,,,,,,,,,,,,,,,,,,,,,,,,,,,,,,,,,,,,,,,,,,,,,,,,,,,,,,,,,,,,
,,6139133041546096188da709,2024-02-21_21h26.32.498,kallum_motion_pilot,2023.2.2,Win32,59.17159763,6139133041546096188da709,65d6bb0e977760de756971f7,65d6bed1a69b90e7c1cebe08,0.0486,0.0487,0,123,123,60,1,threeone,,,,,,,,,,,,,,,,,,,,,,,,,,,,,,,,,,,,,,,,,,,,,,,,,,,,,,,,,,,,,,,,,,,,,,,,,,,,,,,,,,,,,,,,,,,,,,,,,,,,,,,,,,,,,,,,,,,,,,,,,,,,,,,,,,,,,,,,,
,,6139133041546096188da709,2024-02-21_21h26.32.498,kallum_motion_pilot,2023.2.2,Win32,59.17159763,6139133041546096188da709,65d6bb0e977760de756971f7,65d6bed1a69b90e7c1cebe08,0.0488,0.0489,0,124,124,26,1,twoone,,,,,,,,,,,,,,,,,,,,,,,,,,,,,,,,,,,,,,,,,,,,,,,,,,,,,,,,,,,,,,,,,,,,,,,,,,,,,,,,,,,,,,,,,,,,,,,,,,,,,,,,,,,,,,,,,,,,,,,,,,,,,,,,,,,,,,,,,
,,6139133041546096188da709,2024-02-21_21h26.32.498,kallum_motion_pilot,2023.2.2,Win32,59.17159763,6139133041546096188da709,65d6bb0e977760de756971f7,65d6bed1a69b90e7c1cebe08,0.049,0.0492,0,125,125,59,1,twofour,,,,,,,,,,,,,,,,,,,,,,,,,,,,,,,,,,,,,,,,,,,,,,,,,,,,,,,,,,,,,,,,,,,,,,,,,,,,,,,,,,,,,,,,,,,,,,,,,,,,,,,,,,,,,,,,,,,,,,,,,,,,,,,,,,,,,,,,,
,,6139133041546096188da709,2024-02-21_21h26.32.498,kallum_motion_pilot,2023.2.2,Win32,59.17159763,6139133041546096188da709,65d6bb0e977760de756971f7,65d6bed1a69b90e7c1cebe08,0.0493,0.0494,0,126,126,142,1,eightsix,,,,,,,,,,,,,,,,,,,,,,,,,,,,,,,,,,,,,,,,,,,,,,,,,,,,,,,,,,,,,,,,,,,,,,,,,,,,,,,,,,,,,,,,,,,,,,,,,,,,,,,,,,,,,,,,,,,,,,,,,,,,,,,,,,,,,,,,,
,,6139133041546096188da709,2024-02-21_21h26.32.498,kallum_motion_pilot,2023.2.2,Win32,59.17159763,6139133041546096188da709,65d6bb0e977760de756971f7,65d6bed1a69b90e7c1cebe08,0.0495,0.0496,0,127,127,54,1,fourtwo,,,,,,,,,,,,,,,,,,,,,,,,,,,,,,,,,,,,,,,,,,,,,,,,,,,,,,,,,,,,,,,,,,,,,,,,,,,,,,,,,,,,,,,,,,,,,,,,,,,,,,,,,,,,,,,,,,,,,,,,,,,,,,,,,,,,,,,,,
,,6139133041546096188da709,2024-02-21_21h26.32.498,kallum_motion_pilot,2023.2.2,Win32,59.17159763,6139133041546096188da709,65d6bb0e977760de756971f7,65d6bed1a69b90e7c1cebe08,0.0497,0.0497,0,128,128,132,1,sevenfive,,,,,,,,,,,,,,,,,,,,,,,,,,,,,,,,,,,,,,,,,,,,,,,,,,,,,,,,,,,,,,,,,,,,,,,,,,,,,,,,,,,,,,,,,,,,,,,,,,,,,,,,,,,,,,,,,,,,,,,,,,,,,,,,,,,,,,,,,
,,6139133041546096188da709,2024-02-21_21h26.32.498,kallum_motion_pilot,2023.2.2,Win32,59.17159763,6139133041546096188da709,65d6bb0e977760de756971f7,65d6bed1a69b90e7c1cebe08,0.0498,0.0499,0,129,129,85,1,seveneight,,,,,,,,,,,,,,,,,,,,,,,,,,,,,,,,,,,,,,,,,,,,,,,,,,,,,,,,,,,,,,,,,,,,,,,,,,,,,,,,,,,,,,,,,,,,,,,,,,,,,,,,,,,,,,,,,,,,,,,,,,,,,,,,,,,,,,,,,
,,6139133041546096188da709,2024-02-21_21h26.32.498,kallum_motion_pilot,2023.2.2,Win32,59.17159763,6139133041546096188da709,65d6bb0e977760de756971f7,65d6bed1a69b90e7c1cebe08,0.0499,0.05,0,130,130,74,1,twoone,,,,,,,,,,,,,,,,,,,,,,,,,,,,,,,,,,,,,,,,,,,,,,,,,,,,,,,,,,,,,,,,,,,,,,,,,,,,,,,,,,,,,,,,,,,,,,,,,,,,,,,,,,,,,,,,,,,,,,,,,,,,,,,,,,,,,,,,,
,,6139133041546096188da709,2024-02-21_21h26.32.498,kallum_motion_pilot,2023.2.2,Win32,59.17159763,6139133041546096188da709,65d6bb0e977760de756971f7,65d6bed1a69b90e7c1cebe08,0.0502,0.0503,0,131,131,119,1,eightseven,,,,,,,,,,,,,,,,,,,,,,,,,,,,,,,,,,,,,,,,,,,,,,,,,,,,,,,,,,,,,,,,,,,,,,,,,,,,,,,,,,,,,,,,,,,,,,,,,,,,,,,,,,,,,,,,,,,,,,,,,,,,,,,,,,,,,,,,,
,,6139133041546096188da709,2024-02-21_21h26.32.498,kallum_motion_pilot,2023.2.2,Win32,59.17159763,6139133041546096188da709,65d6bb0e977760de756971f7,65d6bed1a69b90e7c1cebe08,0.0503,0.0504,0,132,132,155,1,sixeight,,,,,,,,,,,,,,,,,,,,,,,,,,,,,,,,,,,,,,,,,,,,,,,,,,,,,,,,,,,,,,,,,,,,,,,,,,,,,,,,,,,,,,,,,,,,,,,,,,,,,,,,,,,,,,,,,,,,,,,,,,,,,,,,,,,,,,,,,
,,6139133041546096188da709,2024-02-21_21h26.32.498,kallum_motion_pilot,2023.2.2,Win32,59.17159763,6139133041546096188da709,65d6bb0e977760de756971f7,65d6bed1a69b90e7c1cebe08,0.0505,0.0506,0,133,133,156,1,sevenfive,,,,,,,,,,,,,,,,,,,,,,,,,,,,,,,,,,,,,,,,,,,,,,,,,,,,,,,,,,,,,,,,,,,,,,,,,,,,,,,,,,,,,,,,,,,,,,,,,,,,,,,,,,,,,,,,,,,,,,,,,,,,,,,,,,,,,,,,,
,,6139133041546096188da709,2024-02-21_21h26.32.498,kallum_motion_pilot,2023.2.2,Win32,59.17159763,6139133041546096188da709,65d6bb0e977760de756971f7,65d6bed1a69b90e7c1cebe08,0.0507,0.0507,0,134,134,23,1,fourthree,,,,,,,,,,,,,,,,,,,,,,,,,,,,,,,,,,,,,,,,,,,,,,,,,,,,,,,,,,,,,,,,,,,,,,,,,,,,,,,,,,,,,,,,,,,,,,,,,,,,,,,,,,,,,,,,,,,,,,,,,,,,,,,,,,,,,,,,,
,,6139133041546096188da709,2024-02-21_21h26.32.498,kallum_motion_pilot,2023.2.2,Win32,59.17159763,6139133041546096188da709,65d6bb0e977760de756971f7,65d6bed1a69b90e7c1cebe08,0.0508,0.0509,0,135,135,45,1,threefour,,,,,,,,,,,,,,,,,,,,,,,,,,,,,,,,,,,,,,,,,,,,,,,,,,,,,,,,,,,,,,,,,,,,,,,,,,,,,,,,,,,,,,,,,,,,,,,,,,,,,,,,,,,,,,,,,,,,,,,,,,,,,,,,,,,,,,,,,
,,6139133041546096188da709,2024-02-21_21h26.32.498,kallum_motion_pilot,2023.2.2,Win32,59.17159763,6139133041546096188da709,65d6bb0e977760de756971f7,65d6bed1a69b90e7c1cebe08,0.051,0.0511,0,136,136,29,1,threefour,,,,,,,,,,,,,,,,,,,,,,,,,,,,,,,,,,,,,,,,,,,,,,,,,,,,,,,,,,,,,,,,,,,,,,,,,,,,,,,,,,,,,,,,,,,,,,,,,,,,,,,,,,,,,,,,,,,,,,,,,,,,,,,,,,,,,,,,,
,,6139133041546096188da709,2024-02-21_21h26.32.498,kallum_motion_pilot,2023.2.2,Win32,59.17159763,6139133041546096188da709,65d6bb0e977760de756971f7,65d6bed1a69b90e7c1cebe08,0.0511,0.0512,0,137,137,107,1,sixeight,,,,,,,,,,,,,,,,,,,,,,,,,,,,,,,,,,,,,,,,,,,,,,,,,,,,,,,,,,,,,,,,,,,,,,,,,,,,,,,,,,,,,,,,,,,,,,,,,,,,,,,,,,,,,,,,,,,,,,,,,,,,,,,,,,,,,,,,,
,,6139133041546096188da709,2024-02-21_21h26.32.498,kallum_motion_pilot,2023.2.2,Win32,59.17159763,6139133041546096188da709,65d6bb0e977760de756971f7,65d6bed1a69b90e7c1cebe08,0.0513,0.0513,0,138,138,113,1,fiveseven,,,,,,,,,,,,,,,,,,,,,,,,,,,,,,,,,,,,,,,,,,,,,,,,,,,,,,,,,,,,,,,,,,,,,,,,,,,,,,,,,,,,,,,,,,,,,,,,,,,,,,,,,,,,,,,,,,,,,,,,,,,,,,,,,,,,,,,,,
,,6139133041546096188da709,2024-02-21_21h26.32.498,kallum_motion_pilot,2023.2.2,Win32,59.17159763,6139133041546096188da709,65d6bb0e977760de756971f7,65d6bed1a69b90e7c1cebe08,0.0514,0.0514,0,139,139,130,1,sixfive,,,,,,,,,,,,,,,,,,,,,,,,,,,,,,,,,,,,,,,,,,,,,,,,,,,,,,,,,,,,,,,,,,,,,,,,,,,,,,,,,,,,,,,,,,,,,,,,,,,,,,,,,,,,,,,,,,,,,,,,,,,,,,,,,,,,,,,,,
,,6139133041546096188da709,2024-02-21_21h26.32.498,kallum_motion_pilot,2023.2.2,Win32,59.17159763,6139133041546096188da709,65d6bb0e977760de756971f7,65d6bed1a69b90e7c1cebe08,0.0517,0.0517,0,140,140,47,1,fourthree,,,,,,,,,,,,,,,,,,,,,,,,,,,,,,,,,,,,,,,,,,,,,,,,,,,,,,,,,,,,,,,,,,,,,,,,,,,,,,,,,,,,,,,,,,,,,,,,,,,,,,,,,,,,,,,,,,,,,,,,,,,,,,,,,,,,,,,,,
,,6139133041546096188da709,2024-02-21_21h26.32.498,kallum_motion_pilot,2023.2.2,Win32,59.17159763,6139133041546096188da709,65d6bb0e977760de756971f7,65d6bed1a69b90e7c1cebe08,0.0518,0.0518,0,141,141,80,1,fivesix,,,,,,,,,,,,,,,,,,,,,,,,,,,,,,,,,,,,,,,,,,,,,,,,,,,,,,,,,,,,,,,,,,,,,,,,,,,,,,,,,,,,,,,,,,,,,,,,,,,,,,,,,,,,,,,,,,,,,,,,,,,,,,,,,,,,,,,,,
,,6139133041546096188da709,2024-02-21_21h26.32.498,kallum_motion_pilot,2023.2.2,Win32,59.17159763,6139133041546096188da709,65d6bb0e977760de756971f7,65d6bed1a69b90e7c1cebe08,0.0519,0.052,0,142,142,27,1,twofour,,,,,,,,,,,,,,,,,,,,,,,,,,,,,,,,,,,,,,,,,,,,,,,,,,,,,,,,,,,,,,,,,,,,,,,,,,,,,,,,,,,,,,,,,,,,,,,,,,,,,,,,,,,,,,,,,,,,,,,,,,,,,,,,,,,,,,,,,
,,6139133041546096188da709,2024-02-21_21h26.32.498,kallum_motion_pilot,2023.2.2,Win32,59.17159763,6139133041546096188da709,65d6bb0e977760de756971f7,65d6bed1a69b90e7c1cebe08,0.0522,0.0522,0,143,143,95,1,eightseven,,,,,,,,,,,,,,,,,,,,,,,,,,,,,,,,,,,,,,,,,,,,,,,,,,,,,,,,,,,,,,,,,,,,,,,,,,,,,,,,,,,,,,,,,,,,,,,,,,,,,,,,,,,,,,,,,,,,,,,,,,,,,,,,,,,,,,,,,
,,6139133041546096188da709,2024-02-21_21h26.32.498,kallum_motion_pilot,2023.2.2,Win32,59.17159763,6139133041546096188da709,65d6bb0e977760de756971f7,65d6bed1a69b90e7c1cebe08,0.0523,0.0524,0,144,144,84,1,sevenfive,,,,,,,,,,,,,,,,,,,,,,,,,,,,,,,,,,,,,,,,,,,,,,,,,,,,,,,,,,,,,,,,,,,,,,,,,,,,,,,,,,,,,,,,,,,,,,,,,,,,,,,,,,,,,,,,,,,,,,,,,,,,,,,,,,,,,,,,,
,,6139133041546096188da709,2024-02-21_21h26.32.498,kallum_motion_pilot,2023.2.2,Win32,59.17159763,6139133041546096188da709,65d6bb0e977760de756971f7,65d6bed1a69b90e7c1cebe08,0.0525,0.0525,0,145,145,101,1,seveneight,,,,,,,,,,,,,,,,,,,,,,,,,,,,,,,,,,,,,,,,,,,,,,,,,,,,,,,,,,,,,,,,,,,,,,,,,,,,,,,,,,,,,,,,,,,,,,,,,,,,,,,,,,,,,,,,,,,,,,,,,,,,,,,,,,,,,,,,,
,,6139133041546096188da709,2024-02-21_21h26.32.498,kallum_motion_pilot,2023.2.2,Win32,59.17159763,6139133041546096188da709,65d6bb0e977760de756971f7,65d6bed1a69b90e7c1cebe08,0.0526,0.0527,0,146,146,137,1,fiveseven,,,,,,,,,,,,,,,,,,,,,,,,,,,,,,,,,,,,,,,,,,,,,,,,,,,,,,,,,,,,,,,,,,,,,,,,,,,,,,,,,,,,,,,,,,,,,,,,,,,,,,,,,,,,,,,,,,,,,,,,,,,,,,,,,,,,,,,,,
,,6139133041546096188da709,2024-02-21_21h26.32.498,kallum_motion_pilot,2023.2.2,Win32,59.17159763,6139133041546096188da709,65d6bb0e977760de756971f7,65d6bed1a69b90e7c1cebe08,0.0528,0.0528,0,147,147,20,1,threeone,,,,,,,,,,,,,,,,,,,,,,,,,,,,,,,,,,,,,,,,,,,,,,,,,,,,,,,,,,,,,,,,,,,,,,,,,,,,,,,,,,,,,,,,,,,,,,,,,,,,,,,,,,,,,,,,,,,,,,,,,,,,,,,,,,,,,,,,,
,,6139133041546096188da709,2024-02-21_21h26.32.498,kallum_motion_pilot,2023.2.2,Win32,59.17159763,6139133041546096188da709,65d6bb0e977760de756971f7,65d6bed1a69b90e7c1cebe08,0.053,0.053,0,148,148,149,1,seveneight,,,,,,,,,,,,,,,,,,,,,,,,,,,,,,,,,,,,,,,,,,,,,,,,,,,,,,,,,,,,,,,,,,,,,,,,,,,,,,,,,,,,,,,,,,,,,,,,,,,,,,,,,,,,,,,,,,,,,,,,,,,,,,,,,,,,,,,,,
,,6139133041546096188da709,2024-02-21_21h26.32.498,kallum_motion_pilot,2023.2.2,Win32,59.17159763,6139133041546096188da709,65d6bb0e977760de756971f7,65d6bed1a69b90e7c1cebe08,0.0531,0.0532,0,149,149,41,1,onethree,,,,,,,,,,,,,,,,,,,,,,,,,,,,,,,,,,,,,,,,,,,,,,,,,,,,,,,,,,,,,,,,,,,,,,,,,,,,,,,,,,,,,,,,,,,,,,,,,,,,,,,,,,,,,,,,,,,,,,,,,,,,,,,,,,,,,,,,,
,,6139133041546096188da709,2024-02-21_21h26.32.498,kallum_motion_pilot,2023.2.2,Win32,59.17159763,6139133041546096188da709,65d6bb0e977760de756971f7,65d6bed1a69b90e7c1cebe08,0.0533,0.0534,0,150,150,38,1,fourtwo,,,,,,,,,,,,,,,,,,,,,,,,,,,,,,,,,,,,,,,,,,,,,,,,,,,,,,,,,,,,,,,,,,,,,,,,,,,,,,,,,,,,,,,,,,,,,,,,,,,,,,,,,,,,,,,,,,,,,,,,,,,,,,,,,,,,,,,,,
,,6139133041546096188da709,2024-02-21_21h26.32.498,kallum_motion_pilot,2023.2.2,Win32,59.17159763,6139133041546096188da709,65d6bb0e977760de756971f7,65d6bed1a69b90e7c1cebe08,0.0535,0.0536,0,151,151,133,1,seveneight,,,,,,,,,,,,,,,,,,,,,,,,,,,,,,,,,,,,,,,,,,,,,,,,,,,,,,,,,,,,,,,,,,,,,,,,,,,,,,,,,,,,,,,,,,,,,,,,,,,,,,,,,,,,,,,,,,,,,,,,,,,,,,,,,,,,,,,,,
,,6139133041546096188da709,2024-02-21_21h26.32.498,kallum_motion_pilot,2023.2.2,Win32,59.17159763,6139133041546096188da709,65d6bb0e977760de756971f7,65d6bed1a69b90e7c1cebe08,0.0536,0.0537,0,152,152,49,1,onethree,,,,,,,,,,,,,,,,,,,,,,,,,,,,,,,,,,,,,,,,,,,,,,,,,,,,,,,,,,,,,,,,,,,,,,,,,,,,,,,,,,,,,,,,,,,,,,,,,,,,,,,,,,,,,,,,,,,,,,,,,,,,,,,,,,,,,,,,,
,,6139133041546096188da709,2024-02-21_21h26.32.498,kallum_motion_pilot,2023.2.2,Win32,59.17159763,6139133041546096188da709,65d6bb0e977760de756971f7,65d6bed1a69b90e7c1cebe08,0.0537,0.0538,0,153,153,24,1,onetwo,,,,,,,,,,,,,,,,,,,,,,,,,,,,,,,,,,,,,,,,,,,,,,,,,,,,,,,,,,,,,,,,,,,,,,,,,,,,,,,,,,,,,,,,,,,,,,,,,,,,,,,,,,,,,,,,,,,,,,,,,,,,,,,,,,,,,,,,,
,,6139133041546096188da709,2024-02-21_21h26.32.498,kallum_motion_pilot,2023.2.2,Win32,59.17159763,6139133041546096188da709,65d6bb0e977760de756971f7,65d6bed1a69b90e7c1cebe08,0.054,0.054,0,154,154,36,1,threeone,,,,,,,,,,,,,,,,,,,,,,,,,,,,,,,,,,,,,,,,,,,,,,,,,,,,,,,,,,,,,,,,,,,,,,,,,,,,,,,,,,,,,,,,,,,,,,,,,,,,,,,,,,,,,,,,,,,,,,,,,,,,,,,,,,,,,,,,,
,,6139133041546096188da709,2024-02-21_21h26.32.498,kallum_motion_pilot,2023.2.2,Win32,59.17159763,6139133041546096188da709,65d6bb0e977760de756971f7,65d6bed1a69b90e7c1cebe08,0.0541,0.0541,0,155,155,65,1,onethree,,,,,,,,,,,,,,,,,,,,,,,,,,,,,,,,,,,,,,,,,,,,,,,,,,,,,,,,,,,,,,,,,,,,,,,,,,,,,,,,,,,,,,,,,,,,,,,,,,,,,,,,,,,,,,,,,,,,,,,,,,,,,,,,,,,,,,,,,
,,6139133041546096188da709,2024-02-21_21h26.32.498,kallum_motion_pilot,2023.2.2,Win32,59.17159763,6139133041546096188da709,65d6bb0e977760de756971f7,65d6bed1a69b90e7c1cebe08,0.0543,0.0543,0,156,156,90,1,sixfive,,,,,,,,,,,,,,,,,,,,,,,,,,,,,,,,,,,,,,,,,,,,,,,,,,,,,,,,,,,,,,,,,,,,,,,,,,,,,,,,,,,,,,,,,,,,,,,,,,,,,,,,,,,,,,,,,,,,,,,,,,,,,,,,,,,,,,,,,
,,6139133041546096188da709,2024-02-21_21h26.32.498,kallum_motion_pilot,2023.2.2,Win32,59.17159763,6139133041546096188da709,65d6bb0e977760de756971f7,65d6bed1a69b90e7c1cebe08,0.0544,0.0545,0,157,157,19,1,twofour,,,,,,,,,,,,,,,,,,,,,,,,,,,,,,,,,,,,,,,,,,,,,,,,,,,,,,,,,,,,,,,,,,,,,,,,,,,,,,,,,,,,,,,,,,,,,,,,,,,,,,,,,,,,,,,,,,,,,,,,,,,,,,,,,,,,,,,,,
,,6139133041546096188da709,2024-02-21_21h26.32.498,kallum_motion_pilot,2023.2.2,Win32,59.17159763,6139133041546096188da709,65d6bb0e977760de756971f7,65d6bed1a69b90e7c1cebe08,0.0546,0.0547,0,158,158,159,1,eightseven,,,,,,,,,,,,,,,,,,,,,,,,,,,,,,,,,,,,,,,,,,,,,,,,,,,,,,,,,,,,,,,,,,,,,,,,,,,,,,,,,,,,,,,,,,,,,,,,,,,,,,,,,,,,,,,,,,,,,,,,,,,,,,,,,,,,,,,,,
,,6139133041546096188da709,2024-02-21_21h26.32.498,kallum_motion_pilot,2023.2.2,Win32,59.17159763,6139133041546096188da709,65d6bb0e977760de756971f7,65d6bed1a69b90e7c1cebe08,0.0548,0.0549,0,159,159,103,1,eightseven,,,,,,,,,,,,,,,,,,,,,,,,,,,,,,,,,,,,,,,,,,,,,,,,,,,,,,,,,,,,,,,,,,,,,,,,,,,,,,,,,,,,,,,,,,,,,,,,,,,,,,,,,,,,,,,,,,,,,,,,,,,,,,,,,,,,,,,,,
,,6139133041546096188da709,2024-02-21_21h26.32.498,kallum_motion_pilot,2023.2.2,Win32,59.17159763,6139133041546096188da709,65d6bb0e977760de756971f7,65d6bed1a69b90e7c1cebe08,0.0549,0.0551,0,160,160,21,1,threefour,,,,,,,,,,,,,,,,,,,,,,,,,,,,,,,,,,,,,,,,,,,,,,,,,,,,,,,,,,,,,,,,,,,,,,,,,,,,,,,,,,,,,,,,,,,,,,,,,,,,,,,,,,,,,,,,,,,,,,,,,,,,,,,,,,,,,,,,,
,,6139133041546096188da709,2024-02-21_21h26.32.498,kallum_motion_pilot,2023.2.2,Win32,59.17159763,6139133041546096188da709,65d6bb0e977760de756971f7,65d6bed1a69b90e7c1cebe08,0.0551,0.0554,0,161,161,82,1,sixfive,,,,,,,,,,,,,,,,,,,,,,,,,,,,,,,,,,,,,,,,,,,,,,,,,,,,,,,,,,,,,,,,,,,,,,,,,,,,,,,,,,,,,,,,,,,,,,,,,,,,,,,,,,,,,,,,,,,,,,,,,,,,,,,,,,,,,,,,,
,,6139133041546096188da709,2024-02-21_21h26.32.498,kallum_motion_pilot,2023.2.2,Win32,59.17159763,6139133041546096188da709,65d6bb0e977760de756971f7,65d6bed1a69b90e7c1cebe08,0.0557,0.0558,1,0,162,70,1,fourtwo,,,,,,,,,,,,,,,,,,,,,,,,,,,,,,,,,,,,,,,,,,,,,,,,,,,,,,,,,,,,,,,,,,,,,,,,,,,,,,,,,,,,,,,,,,,,,,,,,,,,,,,,,,,,,,,,,,,,,,,,,,,,,,,,,,,,,,,,,
,,6139133041546096188da709,2024-02-21_21h26.32.498,kallum_motion_pilot,2023.2.2,Win32,59.17159763,6139133041546096188da709,65d6bb0e977760de756971f7,65d6bed1a69b90e7c1cebe08,0.0561,0.0561,1,1,163,102,1,eightsix,,,,,,,,,,,,,,,,,,,,,,,,,,,,,,,,,,,,,,,,,,,,,,,,,,,,,,,,,,,,,,,,,,,,,,,,,,,,,,,,,,,,,,,,,,,,,,,,,,,,,,,,,,,,,,,,,,,,,,,,,,,,,,,,,,,,,,,,,
,,6139133041546096188da709,2024-02-21_21h26.32.498,kallum_motion_pilot,2023.2.2,Win32,59.17159763,6139133041546096188da709,65d6bb0e977760de756971f7,65d6bed1a69b90e7c1cebe08,0.0564,0.0565,1,2,164,8,1,onetwo,,,,,,,,,,,,,,,,,,,,,,,,,,,,,,,,,,,,,,,,,,,,,,,,,,,,,,,,,,,,,,,,,,,,,,,,,,,,,,,,,,,,,,,,,,,,,,,,,,,,,,,,,,,,,,,,,,,,,,,,,,,,,,,,,,,,,,,,,
,,6139133041546096188da709,2024-02-21_21h26.32.498,kallum_motion_pilot,2023.2.2,Win32,59.17159763,6139133041546096188da709,65d6bb0e977760de756971f7,65d6bed1a69b90e7c1cebe08,0.0567,0.0567,1,3,165,82,1,sixfive,,,,,,,,,,,,,,,,,,,,,,,,,,,,,,,,,,,,,,,,,,,,,,,,,,,,,,,,,,,,,,,,,,,,,,,,,,,,,,,,,,,,,,,,,,,,,,,,,,,,,,,,,,,,,,,,,,,,,,,,,,,,,,,,,,,,,,,,,
,,6139133041546096188da709,2024-02-21_21h26.32.498,kallum_motion_pilot,2023.2.2,Win32,59.17159763,6139133041546096188da709,65d6bb0e977760de756971f7,65d6bed1a69b90e7c1cebe08,0.0569,0.0571,1,4,166,7,1,fourthree,,,,,,,,,,,,,,,,,,,,,,,,,,,,,,,,,,,,,,,,,,,,,,,,,,,,,,,,,,,,,,,,,,,,,,,,,,,,,,,,,,,,,,,,,,,,,,,,,,,,,,,,,,,,,,,,,,,,,,,,,,,,,,,,,,,,,,,,,
,,6139133041546096188da709,2024-02-21_21h26.32.498,kallum_motion_pilot,2023.2.2,Win32,59.17159763,6139133041546096188da709,65d6bb0e977760de756971f7,65d6bed1a69b90e7c1cebe08,0.0572,0.0573,1,5,167,78,1,fourtwo,,,,,,,,,,,,,,,,,,,,,,,,,,,,,,,,,,,,,,,,,,,,,,,,,,,,,,,,,,,,,,,,,,,,,,,,,,,,,,,,,,,,,,,,,,,,,,,,,,,,,,,,,,,,,,,,,,,,,,,,,,,,,,,,,,,,,,,,,
,,6139133041546096188da709,2024-02-21_21h26.32.498,kallum_motion_pilot,2023.2.2,Win32,59.17159763,6139133041546096188da709,65d6bb0e977760de756971f7,65d6bed1a69b90e7c1cebe08,0.0574,0.0574,1,6,168,138,1,sixfive,,,,,,,,,,,,,,,,,,,,,,,,,,,,,,,,,,,,,,,,,,,,,,,,,,,,,,,,,,,,,,,,,,,,,,,,,,,,,,,,,,,,,,,,,,,,,,,,,,,,,,,,,,,,,,,,,,,,,,,,,,,,,,,,,,,,,,,,,
,,6139133041546096188da709,2024-02-21_21h26.32.498,kallum_motion_pilot,2023.2.2,Win32,59.17159763,6139133041546096188da709,65d6bb0e977760de756971f7,65d6bed1a69b90e7c1cebe08,0.0576,0.0576,1,7,169,72,1,onetwo,,,,,,,,,,,,,,,,,,,,,,,,,,,,,,,,,,,,,,,,,,,,,,,,,,,,,,,,,,,,,,,,,,,,,,,,,,,,,,,,,,,,,,,,,,,,,,,,,,,,,,,,,,,,,,,,,,,,,,,,,,,,,,,,,,,,,,,,,
,,6139133041546096188da709,2024-02-21_21h26.32.498,kallum_motion_pilot,2023.2.2,Win32,59.17159763,6139133041546096188da709,65d6bb0e977760de756971f7,65d6bed1a69b90e7c1cebe08,0.0578,0.0579,1,8,170,21,1,threefour,,,,,,,,,,,,,,,,,,,,,,,,,,,,,,,,,,,,,,,,,,,,,,,,,,,,,,,,,,,,,,,,,,,,,,,,,,,,,,,,,,,,,,,,,,,,,,,,,,,,,,,,,,,,,,,,,,,,,,,,,,,,,,,,,,,,,,,,,
,,6139133041546096188da709,2024-02-21_21h26.32.498,kallum_motion_pilot,2023.2.2,Win32,59.17159763,6139133041546096188da709,65d6bb0e977760de756971f7,65d6bed1a69b90e7c1cebe08,0.058,0.058,1,9,171,105,1,fiveseven,,,,,,,,,,,,,,,,,,,,,,,,,,,,,,,,,,,,,,,,,,,,,,,,,,,,,,,,,,,,,,,,,,,,,,,,,,,,,,,,,,,,,,,,,,,,,,,,,,,,,,,,,,,,,,,,,,,,,,,,,,,,,,,,,,,,,,,,,
,,6139133041546096188da709,2024-02-21_21h26.32.498,kallum_motion_pilot,2023.2.2,Win32,59.17159763,6139133041546096188da709,65d6bb0e977760de756971f7,65d6bed1a69b90e7c1cebe08,0.0582,0.0582,1,10,172,48,1,onetwo,,,,,,,,,,,,,,,,,,,,,,,,,,,,,,,,,,,,,,,,,,,,,,,,,,,,,,,,,,,,,,,,,,,,,,,,,,,,,,,,,,,,,,,,,,,,,,,,,,,,,,,,,,,,,,,,,,,,,,,,,,,,,,,,,,,,,,,,,
,,6139133041546096188da709,2024-02-21_21h26.32.498,kallum_motion_pilot,2023.2.2,Win32,59.17159763,6139133041546096188da709,65d6bb0e977760de756971f7,65d6bed1a69b90e7c1cebe08,0.0583,0.0584,1,11,173,159,1,eightseven,,,,,,,,,,,,,,,,,,,,,,,,,,,,,,,,,,,,,,,,,,,,,,,,,,,,,,,,,,,,,,,,,,,,,,,,,,,,,,,,,,,,,,,,,,,,,,,,,,,,,,,,,,,,,,,,,,,,,,,,,,,,,,,,,,,,,,,,,
,,6139133041546096188da709,2024-02-21_21h26.32.498,kallum_motion_pilot,2023.2.2,Win32,59.17159763,6139133041546096188da709,65d6bb0e977760de756971f7,65d6bed1a69b90e7c1cebe08,0.0585,0.0586,1,12,174,150,1,eightsix,,,,,,,,,,,,,,,,,,,,,,,,,,,,,,,,,,,,,,,,,,,,,,,,,,,,,,,,,,,,,,,,,,,,,,,,,,,,,,,,,,,,,,,,,,,,,,,,,,,,,,,,,,,,,,,,,,,,,,,,,,,,,,,,,,,,,,,,,
,,6139133041546096188da709,2024-02-21_21h26.32.498,kallum_motion_pilot,2023.2.2,Win32,59.17159763,6139133041546096188da709,65d6bb0e977760de756971f7,65d6bed1a69b90e7c1cebe08,0.0587,0.0588,1,13,175,1,1,onethree,,,,,,,,,,,,,,,,,,,,,,,,,,,,,,,,,,,,,,,,,,,,,,,,,,,,,,,,,,,,,,,,,,,,,,,,,,,,,,,,,,,,,,,,,,,,,,,,,,,,,,,,,,,,,,,,,,,,,,,,,,,,,,,,,,,,,,,,,
,,6139133041546096188da709,2024-02-21_21h26.32.498,kallum_motion_pilot,2023.2.2,Win32,59.17159763,6139133041546096188da709,65d6bb0e977760de756971f7,65d6bed1a69b90e7c1cebe08,0.059,0.059,1,14,176,36,1,threeone,,,,,,,,,,,,,,,,,,,,,,,,,,,,,,,,,,,,,,,,,,,,,,,,,,,,,,,,,,,,,,,,,,,,,,,,,,,,,,,,,,,,,,,,,,,,,,,,,,,,,,,,,,,,,,,,,,,,,,,,,,,,,,,,,,,,,,,,,
,,6139133041546096188da709,2024-02-21_21h26.32.498,kallum_motion_pilot,2023.2.2,Win32,59.17159763,6139133041546096188da709,65d6bb0e977760de756971f7,65d6bed1a69b90e7c1cebe08,0.0591,0.0592,1,15,177,0,1,onetwo,,,,,,,,,,,,,,,,,,,,,,,,,,,,,,,,,,,,,,,,,,,,,,,,,,,,,,,,,,,,,,,,,,,,,,,,,,,,,,,,,,,,,,,,,,,,,,,,,,,,,,,,,,,,,,,,,,,,,,,,,,,,,,,,,,,,,,,,,
,,6139133041546096188da709,2024-02-21_21h26.32.498,kallum_motion_pilot,2023.2.2,Win32,59.17159763,6139133041546096188da709,65d6bb0e977760de756971f7,65d6bed1a69b90e7c1cebe08,0.0593,0.0594,1,16,178,56,1,onetwo,,,,,,,,,,,,,,,,,,,,,,,,,,,,,,,,,,,,,,,,,,,,,,,,,,,,,,,,,,,,,,,,,,,,,,,,,,,,,,,,,,,,,,,,,,,,,,,,,,,,,,,,,,,,,,,,,,,,,,,,,,,,,,,,,,,,,,,,,
,,6139133041546096188da709,2024-02-21_21h26.32.498,kallum_motion_pilot,2023.2.2,Win32,59.17159763,6139133041546096188da709,65d6bb0e977760de756971f7,65d6bed1a69b90e7c1cebe08,0.0595,0.0596,1,17,179,106,1,sixfive,,,,,,,,,,,,,,,,,,,,,,,,,,,,,,,,,,,,,,,,,,,,,,,,,,,,,,,,,,,,,,,,,,,,,,,,,,,,,,,,,,,,,,,,,,,,,,,,,,,,,,,,,,,,,,,,,,,,,,,,,,,,,,,,,,,,,,,,,
,,6139133041546096188da709,2024-02-21_21h26.32.498,kallum_motion_pilot,2023.2.2,Win32,59.17159763,6139133041546096188da709,65d6bb0e977760de756971f7,65d6bed1a69b90e7c1cebe08,0.0596,0.0597,1,18,180,123,1,sixeight,,,,,,,,,,,,,,,,,,,,,,,,,,,,,,,,,,,,,,,,,,,,,,,,,,,,,,,,,,,,,,,,,,,,,,,,,,,,,,,,,,,,,,,,,,,,,,,,,,,,,,,,,,,,,,,,,,,,,,,,,,,,,,,,,,,,,,,,,
,,6139133041546096188da709,2024-02-21_21h26.32.498,kallum_motion_pilot,2023.2.2,Win32,59.17159763,6139133041546096188da709,65d6bb0e977760de756971f7,65d6bed1a69b90e7c1cebe08,0.0599,0.0599,1,19,181,122,1,sixfive,,,,,,,,,,,,,,,,,,,,,,,,,,,,,,,,,,,,,,,,,,,,,,,,,,,,,,,,,,,,,,,,,,,,,,,,,,,,,,,,,,,,,,,,,,,,,,,,,,,,,,,,,,,,,,,,,,,,,,,,,,,,,,,,,,,,,,,,,
,,6139133041546096188da709,2024-02-21_21h26.32.498,kallum_motion_pilot,2023.2.2,Win32,59.17159763,6139133041546096188da709,65d6bb0e977760de756971f7,65d6bed1a69b90e7c1cebe08,0.06,0.0601,1,20,182,161,1,fiveseven,,,,,,,,,,,,,,,,,,,,,,,,,,,,,,,,,,,,,,,,,,,,,,,,,,,,,,,,,,,,,,,,,,,,,,,,,,,,,,,,,,,,,,,,,,,,,,,,,,,,,,,,,,,,,,,,,,,,,,,,,,,,,,,,,,,,,,,,,
,,6139133041546096188da709,2024-02-21_21h26.32.498,kallum_motion_pilot,2023.2.2,Win32,59.17159763,6139133041546096188da709,65d6bb0e977760de756971f7,65d6bed1a69b90e7c1cebe08,0.0602,0.0603,1,21,183,108,1,sevenfive,,,,,,,,,,,,,,,,,,,,,,,,,,,,,,,,,,,,,,,,,,,,,,,,,,,,,,,,,,,,,,,,,,,,,,,,,,,,,,,,,,,,,,,,,,,,,,,,,,,,,,,,,,,,,,,,,,,,,,,,,,,,,,,,,,,,,,,,,
,,6139133041546096188da709,2024-02-21_21h26.32.498,kallum_motion_pilot,2023.2.2,Win32,59.17159763,6139133041546096188da709,65d6bb0e977760de756971f7,65d6bed1a69b90e7c1cebe08,0.0604,0.0605,1,22,184,132,1,sevenfive,,,,,,,,,,,,,,,,,,,,,,,,,,,,,,,,,,,,,,,,,,,,,,,,,,,,,,,,,,,,,,,,,,,,,,,,,,,,,,,,,,,,,,,,,,,,,,,,,,,,,,,,,,,,,,,,,,,,,,,,,,,,,,,,,,,,,,,,,
,,6139133041546096188da709,2024-02-21_21h26.32.498,kallum_motion_pilot,2023.2.2,Win32,59.17159763,6139133041546096188da709,65d6bb0e977760de756971f7,65d6bed1a69b90e7c1cebe08,0.0606,0.0607,1,23,185,46,1,fourtwo,,,,,,,,,,,,,,,,,,,,,,,,,,,,,,,,,,,,,,,,,,,,,,,,,,,,,,,,,,,,,,,,,,,,,,,,,,,,,,,,,,,,,,,,,,,,,,,,,,,,,,,,,,,,,,,,,,,,,,,,,,,,,,,,,,,,,,,,,
,,6139133041546096188da709,2024-02-21_21h26.32.498,kallum_motion_pilot,2023.2.2,Win32,59.17159763,6139133041546096188da709,65d6bb0e977760de756971f7,65d6bed1a69b90e7c1cebe08,0.0608,0.0609,1,24,186,90,1,sixfive,,,,,,,,,,,,,,,,,,,,,,,,,,,,,,,,,,,,,,,,,,,,,,,,,,,,,,,,,,,,,,,,,,,,,,,,,,,,,,,,,,,,,,,,,,,,,,,,,,,,,,,,,,,,,,,,,,,,,,,,,,,,,,,,,,,,,,,,,
,,6139133041546096188da709,2024-02-21_21h26.32.498,kallum_motion_pilot,2023.2.2,Win32,59.17159763,6139133041546096188da709,65d6bb0e977760de756971f7,65d6bed1a69b90e7c1cebe08,0.061,0.0611,1,25,187,136,1,fivesix,,,,,,,,,,,,,,,,,,,,,,,,,,,,,,,,,,,,,,,,,,,,,,,,,,,,,,,,,,,,,,,,,,,,,,,,,,,,,,,,,,,,,,,,,,,,,,,,,,,,,,,,,,,,,,,,,,,,,,,,,,,,,,,,,,,,,,,,,
,,6139133041546096188da709,2024-02-21_21h26.32.498,kallum_motion_pilot,2023.2.2,Win32,59.17159763,6139133041546096188da709,65d6bb0e977760de756971f7,65d6bed1a69b90e7c1cebe08,0.0613,0.0614,1,26,188,59,1,twofour,,,,,,,,,,,,,,,,,,,,,,,,,,,,,,,,,,,,,,,,,,,,,,,,,,,,,,,,,,,,,,,,,,,,,,,,,,,,,,,,,,,,,,,,,,,,,,,,,,,,,,,,,,,,,,,,,,,,,,,,,,,,,,,,,,,,,,,,,
,,6139133041546096188da709,2024-02-21_21h26.32.498,kallum_motion_pilot,2023.2.2,Win32,59.17159763,6139133041546096188da709,65d6bb0e977760de756971f7,65d6bed1a69b90e7c1cebe08,0.0614,0.0615,1,27,189,117,1,seveneight,,,,,,,,,,,,,,,,,,,,,,,,,,,,,,,,,,,,,,,,,,,,,,,,,,,,,,,,,,,,,,,,,,,,,,,,,,,,,,,,,,,,,,,,,,,,,,,,,,,,,,,,,,,,,,,,,,,,,,,,,,,,,,,,,,,,,,,,,
,,6139133041546096188da709,2024-02-21_21h26.32.498,kallum_motion_pilot,2023.2.2,Win32,59.17159763,6139133041546096188da709,65d6bb0e977760de756971f7,65d6bed1a69b90e7c1cebe08,0.0616,0.0617,1,28,190,71,1,fourthree,,,,,,,,,,,,,,,,,,,,,,,,,,,,,,,,,,,,,,,,,,,,,,,,,,,,,,,,,,,,,,,,,,,,,,,,,,,,,,,,,,,,,,,,,,,,,,,,,,,,,,,,,,,,,,,,,,,,,,,,,,,,,,,,,,,,,,,,,
,,6139133041546096188da709,2024-02-21_21h26.32.498,kallum_motion_pilot,2023.2.2,Win32,59.17159763,6139133041546096188da709,65d6bb0e977760de756971f7,65d6bed1a69b90e7c1cebe08,0.0618,0.0619,1,29,191,22,1,fourtwo,,,,,,,,,,,,,,,,,,,,,,,,,,,,,,,,,,,,,,,,,,,,,,,,,,,,,,,,,,,,,,,,,,,,,,,,,,,,,,,,,,,,,,,,,,,,,,,,,,,,,,,,,,,,,,,,,,,,,,,,,,,,,,,,,,,,,,,,,
,,6139133041546096188da709,2024-02-21_21h26.32.498,kallum_motion_pilot,2023.2.2,Win32,59.17159763,6139133041546096188da709,65d6bb0e977760de756971f7,65d6bed1a69b90e7c1cebe08,0.062,0.062,1,30,192,52,1,threeone,,,,,,,,,,,,,,,,,,,,,,,,,,,,,,,,,,,,,,,,,,,,,,,,,,,,,,,,,,,,,,,,,,,,,,,,,,,,,,,,,,,,,,,,,,,,,,,,,,,,,,,,,,,,,,,,,,,,,,,,,,,,,,,,,,,,,,,,,
,,6139133041546096188da709,2024-02-21_21h26.32.498,kallum_motion_pilot,2023.2.2,Win32,59.17159763,6139133041546096188da709,65d6bb0e977760de756971f7,65d6bed1a69b90e7c1cebe08,0.0621,0.0622,1,31,193,81,1,fiveseven,,,,,,,,,,,,,,,,,,,,,,,,,,,,,,,,,,,,,,,,,,,,,,,,,,,,,,,,,,,,,,,,,,,,,,,,,,,,,,,,,,,,,,,,,,,,,,,,,,,,,,,,,,,,,,,,,,,,,,,,,,,,,,,,,,,,,,,,,
,,6139133041546096188da709,2024-02-21_21h26.32.498,kallum_motion_pilot,2023.2.2,Win32,59.17159763,6139133041546096188da709,65d6bb0e977760de756971f7,65d6bed1a69b90e7c1cebe08,0.0624,0.0624,1,32,194,55,1,fourthree,,,,,,,,,,,,,,,,,,,,,,,,,,,,,,,,,,,,,,,,,,,,,,,,,,,,,,,,,,,,,,,,,,,,,,,,,,,,,,,,,,,,,,,,,,,,,,,,,,,,,,,,,,,,,,,,,,,,,,,,,,,,,,,,,,,,,,,,,
,,6139133041546096188da709,2024-02-21_21h26.32.498,kallum_motion_pilot,2023.2.2,Win32,59.17159763,6139133041546096188da709,65d6bb0e977760de756971f7,65d6bed1a69b90e7c1cebe08,0.0626,0.0627,1,33,195,34,1,twoone,,,,,,,,,,,,,,,,,,,,,,,,,,,,,,,,,,,,,,,,,,,,,,,,,,,,,,,,,,,,,,,,,,,,,,,,,,,,,,,,,,,,,,,,,,,,,,,,,,,,,,,,,,,,,,,,,,,,,,,,,,,,,,,,,,,,,,,,,
,,6139133041546096188da709,2024-02-21_21h26.32.498,kallum_motion_pilot,2023.2.2,Win32,59.17159763,6139133041546096188da709,65d6bb0e977760de756971f7,65d6bed1a69b90e7c1cebe08,0.0627,0.0629,1,34,196,110,1,eightsix,,,,,,,,,,,,,,,,,,,,,,,,,,,,,,,,,,,,,,,,,,,,,,,,,,,,,,,,,,,,,,,,,,,,,,,,,,,,,,,,,,,,,,,,,,,,,,,,,,,,,,,,,,,,,,,,,,,,,,,,,,,,,,,,,,,,,,,,,
,,6139133041546096188da709,2024-02-21_21h26.32.498,kallum_motion_pilot,2023.2.2,Win32,59.17159763,6139133041546096188da709,65d6bb0e977760de756971f7,65d6bed1a69b90e7c1cebe08,0.0631,0.0632,1,35,197,73,1,onethree,,,,,,,,,,,,,,,,,,,,,,,,,,,,,,,,,,,,,,,,,,,,,,,,,,,,,,,,,,,,,,,,,,,,,,,,,,,,,,,,,,,,,,,,,,,,,,,,,,,,,,,,,,,,,,,,,,,,,,,,,,,,,,,,,,,,,,,,,
,,6139133041546096188da709,2024-02-21_21h26.32.498,kallum_motion_pilot,2023.2.2,Win32,59.17159763,6139133041546096188da709,65d6bb0e977760de756971f7,65d6bed1a69b90e7c1cebe08,0.0633,0.0634,1,36,198,11,1,twofour,,,,,,,,,,,,,,,,,,,,,,,,,,,,,,,,,,,,,,,,,,,,,,,,,,,,,,,,,,,,,,,,,,,,,,,,,,,,,,,,,,,,,,,,,,,,,,,,,,,,,,,,,,,,,,,,,,,,,,,,,,,,,,,,,,,,,,,,,
,,6139133041546096188da709,2024-02-21_21h26.32.498,kallum_motion_pilot,2023.2.2,Win32,59.17159763,6139133041546096188da709,65d6bb0e977760de756971f7,65d6bed1a69b90e7c1cebe08,0.0635,0.0636,1,37,199,131,1,sixeight,,,,,,,,,,,,,,,,,,,,,,,,,,,,,,,,,,,,,,,,,,,,,,,,,,,,,,,,,,,,,,,,,,,,,,,,,,,,,,,,,,,,,,,,,,,,,,,,,,,,,,,,,,,,,,,,,,,,,,,,,,,,,,,,,,,,,,,,,
,,6139133041546096188da709,2024-02-21_21h26.32.498,kallum_motion_pilot,2023.2.2,Win32,59.17159763,6139133041546096188da709,65d6bb0e977760de756971f7,65d6bed1a69b90e7c1cebe08,0.0637,0.0638,1,38,200,154,1,sixfive,,,,,,,,,,,,,,,,,,,,,,,,,,,,,,,,,,,,,,,,,,,,,,,,,,,,,,,,,,,,,,,,,,,,,,,,,,,,,,,,,,,,,,,,,,,,,,,,,,,,,,,,,,,,,,,,,,,,,,,,,,,,,,,,,,,,,,,,,
,,6139133041546096188da709,2024-02-21_21h26.32.498,kallum_motion_pilot,2023.2.2,Win32,59.17159763,6139133041546096188da709,65d6bb0e977760de756971f7,65d6bed1a69b90e7c1cebe08,0.0639,0.064,1,39,201,84,1,sevenfive,,,,,,,,,,,,,,,,,,,,,,,,,,,,,,,,,,,,,,,,,,,,,,,,,,,,,,,,,,,,,,,,,,,,,,,,,,,,,,,,,,,,,,,,,,,,,,,,,,,,,,,,,,,,,,,,,,,,,,,,,,,,,,,,,,,,,,,,,
,,6139133041546096188da709,2024-02-21_21h26.32.498,kallum_motion_pilot,2023.2.2,Win32,59.17159763,6139133041546096188da709,65d6bb0e977760de756971f7,65d6bed1a69b90e7c1cebe08,0.0641,0.0642,1,40,202,99,1,sixeight,,,,,,,,,,,,,,,,,,,,,,,,,,,,,,,,,,,,,,,,,,,,,,,,,,,,,,,,,,,,,,,,,,,,,,,,,,,,,,,,,,,,,,,,,,,,,,,,,,,,,,,,,,,,,,,,,,,,,,,,,,,,,,,,,,,,,,,,,
,,6139133041546096188da709,2024-02-21_21h26.32.498,kallum_motion_pilot,2023.2.2,Win32,59.17159763,6139133041546096188da709,65d6bb0e977760de756971f7,65d6bed1a69b90e7c1cebe08,0.0643,0.0643,1,41,203,27,1,twofour,,,,,,,,,,,,,,,,,,,,,,,,,,,,,,,,,,,,,,,,,,,,,,,,,,,,,,,,,,,,,,,,,,,,,,,,,,,,,,,,,,,,,,,,,,,,,,,,,,,,,,,,,,,,,,,,,,,,,,,,,,,,,,,,,,,,,,,,,
,,6139133041546096188da709,2024-02-21_21h26.32.498,kallum_motion_pilot,2023.2.2,Win32,59.17159763,6139133041546096188da709,65d6bb0e977760de756971f7,65d6bed1a69b90e7c1cebe08,0.0644,0.0645,1,42,204,23,1,fourthree,,,,,,,,,,,,,,,,,,,,,,,,,,,,,,,,,,,,,,,,,,,,,,,,,,,,,,,,,,,,,,,,,,,,,,,,,,,,,,,,,,,,,,,,,,,,,,,,,,,,,,,,,,,,,,,,,,,,,,,,,,,,,,,,,,,,,,,,,
,,6139133041546096188da709,2024-02-21_21h26.32.498,kallum_motion_pilot,2023.2.2,Win32,59.17159763,6139133041546096188da709,65d6bb0e977760de756971f7,65d6bed1a69b90e7c1cebe08,0.0646,0.0647,1,43,205,135,1,eightseven,,,,,,,,,,,,,,,,,,,,,,,,,,,,,,,,,,,,,,,,,,,,,,,,,,,,,,,,,,,,,,,,,,,,,,,,,,,,,,,,,,,,,,,,,,,,,,,,,,,,,,,,,,,,,,,,,,,,,,,,,,,,,,,,,,,,,,,,,
,,6139133041546096188da709,2024-02-21_21h26.32.498,kallum_motion_pilot,2023.2.2,Win32,59.17159763,6139133041546096188da709,65d6bb0e977760de756971f7,65d6bed1a69b90e7c1cebe08,0.0647,0.0648,1,44,206,85,1,seveneight,,,,,,,,,,,,,,,,,,,,,,,,,,,,,,,,,,,,,,,,,,,,,,,,,,,,,,,,,,,,,,,,,,,,,,,,,,,,,,,,,,,,,,,,,,,,,,,,,,,,,,,,,,,,,,,,,,,,,,,,,,,,,,,,,,,,,,,,,
,,6139133041546096188da709,2024-02-21_21h26.32.498,kallum_motion_pilot,2023.2.2,Win32,59.17159763,6139133041546096188da709,65d6bb0e977760de756971f7,65d6bed1a69b90e7c1cebe08,0.0649,0.065,1,45,207,142,1,eightsix,,,,,,,,,,,,,,,,,,,,,,,,,,,,,,,,,,,,,,,,,,,,,,,,,,,,,,,,,,,,,,,,,,,,,,,,,,,,,,,,,,,,,,,,,,,,,,,,,,,,,,,,,,,,,,,,,,,,,,,,,,,,,,,,,,,,,,,,,
,,6139133041546096188da709,2024-02-21_21h26.32.498,kallum_motion_pilot,2023.2.2,Win32,59.17159763,6139133041546096188da709,65d6bb0e977760de756971f7,65d6bed1a69b90e7c1cebe08,0.0651,0.0651,1,46,208,32,1,onetwo,,,,,,,,,,,,,,,,,,,,,,,,,,,,,,,,,,,,,,,,,,,,,,,,,,,,,,,,,,,,,,,,,,,,,,,,,,,,,,,,,,,,,,,,,,,,,,,,,,,,,,,,,,,,,,,,,,,,,,,,,,,,,,,,,,,,,,,,,
,,6139133041546096188da709,2024-02-21_21h26.32.498,kallum_motion_pilot,2023.2.2,Win32,59.17159763,6139133041546096188da709,65d6bb0e977760de756971f7,65d6bed1a69b90e7c1cebe08,0.0653,0.0654,1,47,209,77,1,threefour,,,,,,,,,,,,,,,,,,,,,,,,,,,,,,,,,,,,,,,,,,,,,,,,,,,,,,,,,,,,,,,,,,,,,,,,,,,,,,,,,,,,,,,,,,,,,,,,,,,,,,,,,,,,,,,,,,,,,,,,,,,,,,,,,,,,,,,,,
,,6139133041546096188da709,2024-02-21_21h26.32.498,kallum_motion_pilot,2023.2.2,Win32,59.17159763,6139133041546096188da709,65d6bb0e977760de756971f7,65d6bed1a69b90e7c1cebe08,0.0655,0.0655,1,48,210,115,1,sixeight,,,,,,,,,,,,,,,,,,,,,,,,,,,,,,,,,,,,,,,,,,,,,,,,,,,,,,,,,,,,,,,,,,,,,,,,,,,,,,,,,,,,,,,,,,,,,,,,,,,,,,,,,,,,,,,,,,,,,,,,,,,,,,,,,,,,,,,,,
,,6139133041546096188da709,2024-02-21_21h26.32.498,kallum_motion_pilot,2023.2.2,Win32,59.17159763,6139133041546096188da709,65d6bb0e977760de756971f7,65d6bed1a69b90e7c1cebe08,0.0656,0.0657,1,49,211,153,1,fiveseven,,,,,,,,,,,,,,,,,,,,,,,,,,,,,,,,,,,,,,,,,,,,,,,,,,,,,,,,,,,,,,,,,,,,,,,,,,,,,,,,,,,,,,,,,,,,,,,,,,,,,,,,,,,,,,,,,,,,,,,,,,,,,,,,,,,,,,,,,
,,6139133041546096188da709,2024-02-21_21h26.32.498,kallum_motion_pilot,2023.2.2,Win32,59.17159763,6139133041546096188da709,65d6bb0e977760de756971f7,65d6bed1a69b90e7c1cebe08,0.0658,0.0659,1,50,212,54,1,fourtwo,,,,,,,,,,,,,,,,,,,,,,,,,,,,,,,,,,,,,,,,,,,,,,,,,,,,,,,,,,,,,,,,,,,,,,,,,,,,,,,,,,,,,,,,,,,,,,,,,,,,,,,,,,,,,,,,,,,,,,,,,,,,,,,,,,,,,,,,,
,,6139133041546096188da709,2024-02-21_21h26.32.498,kallum_motion_pilot,2023.2.2,Win32,59.17159763,6139133041546096188da709,65d6bb0e977760de756971f7,65d6bed1a69b90e7c1cebe08,0.066,0.0661,1,51,213,156,1,sevenfive,,,,,,,,,,,,,,,,,,,,,,,,,,,,,,,,,,,,,,,,,,,,,,,,,,,,,,,,,,,,,,,,,,,,,,,,,,,,,,,,,,,,,,,,,,,,,,,,,,,,,,,,,,,,,,,,,,,,,,,,,,,,,,,,,,,,,,,,,
,,6139133041546096188da709,2024-02-21_21h26.32.498,kallum_motion_pilot,2023.2.2,Win32,59.17159763,6139133041546096188da709,65d6bb0e977760de756971f7,65d6bed1a69b90e7c1cebe08,0.0662,0.0664,1,52,214,141,1,seveneight,,,,,,,,,,,,,,,,,,,,,,,,,,,,,,,,,,,,,,,,,,,,,,,,,,,,,,,,,,,,,,,,,,,,,,,,,,,,,,,,,,,,,,,,,,,,,,,,,,,,,,,,,,,,,,,,,,,,,,,,,,,,,,,,,,,,,,,,,
,,6139133041546096188da709,2024-02-21_21h26.32.498,kallum_motion_pilot,2023.2.2,Win32,59.17159763,6139133041546096188da709,65d6bb0e977760de756971f7,65d6bed1a69b90e7c1cebe08,0.0672,0.0673,1,53,215,17,1,onethree,,,,,,,,,,,,,,,,,,,,,,,,,,,,,,,,,,,,,,,,,,,,,,,,,,,,,,,,,,,,,,,,,,,,,,,,,,,,,,,,,,,,,,,,,,,,,,,,,,,,,,,,,,,,,,,,,,,,,,,,,,,,,,,,,,,,,,,,,
,,6139133041546096188da709,2024-02-21_21h26.32.498,kallum_motion_pilot,2023.2.2,Win32,59.17159763,6139133041546096188da709,65d6bb0e977760de756971f7,65d6bed1a69b90e7c1cebe08,0.0674,0.0676,1,54,216,160,1,fivesix,,,,,,,,,,,,,,,,,,,,,,,,,,,,,,,,,,,,,,,,,,,,,,,,,,,,,,,,,,,,,,,,,,,,,,,,,,,,,,,,,,,,,,,,,,,,,,,,,,,,,,,,,,,,,,,,,,,,,,,,,,,,,,,,,,,,,,,,,
,,6139133041546096188da709,2024-02-21_21h26.32.498,kallum_motion_pilot,2023.2.2,Win32,59.17159763,6139133041546096188da709,65d6bb0e977760de756971f7,65d6bed1a69b90e7c1cebe08,0.0676,0.0678,1,55,217,101,1,seveneight,,,,,,,,,,,,,,,,,,,,,,,,,,,,,,,,,,,,,,,,,,,,,,,,,,,,,,,,,,,,,,,,,,,,,,,,,,,,,,,,,,,,,,,,,,,,,,,,,,,,,,,,,,,,,,,,,,,,,,,,,,,,,,,,,,,,,,,,,
,,6139133041546096188da709,2024-02-21_21h26.32.498,kallum_motion_pilot,2023.2.2,Win32,59.17159763,6139133041546096188da709,65d6bb0e977760de756971f7,65d6bed1a69b90e7c1cebe08,0.0679,0.068,1,56,218,149,1,seveneight,,,,,,,,,,,,,,,,,,,,,,,,,,,,,,,,,,,,,,,,,,,,,,,,,,,,,,,,,,,,,,,,,,,,,,,,,,,,,,,,,,,,,,,,,,,,,,,,,,,,,,,,,,,,,,,,,,,,,,,,,,,,,,,,,,,,,,,,,
,,6139133041546096188da709,2024-02-21_21h26.32.498,kallum_motion_pilot,2023.2.2,Win32,59.17159763,6139133041546096188da709,65d6bb0e977760de756971f7,65d6bed1a69b90e7c1cebe08,0.0681,0.0682,1,57,219,130,1,sixfive,,,,,,,,,,,,,,,,,,,,,,,,,,,,,,,,,,,,,,,,,,,,,,,,,,,,,,,,,,,,,,,,,,,,,,,,,,,,,,,,,,,,,,,,,,,,,,,,,,,,,,,,,,,,,,,,,,,,,,,,,,,,,,,,,,,,,,,,,
,,6139133041546096188da709,2024-02-21_21h26.32.498,kallum_motion_pilot,2023.2.2,Win32,59.17159763,6139133041546096188da709,65d6bb0e977760de756971f7,65d6bed1a69b90e7c1cebe08,0.0682,0.0683,1,58,220,124,1,sevenfive,,,,,,,,,,,,,,,,,,,,,,,,,,,,,,,,,,,,,,,,,,,,,,,,,,,,,,,,,,,,,,,,,,,,,,,,,,,,,,,,,,,,,,,,,,,,,,,,,,,,,,,,,,,,,,,,,,,,,,,,,,,,,,,,,,,,,,,,,
,,6139133041546096188da709,2024-02-21_21h26.32.498,kallum_motion_pilot,2023.2.2,Win32,59.17159763,6139133041546096188da709,65d6bb0e977760de756971f7,65d6bed1a69b90e7c1cebe08,0.0684,0.0686,1,59,221,5,1,threefour,,,,,,,,,,,,,,,,,,,,,,,,,,,,,,,,,,,,,,,,,,,,,,,,,,,,,,,,,,,,,,,,,,,,,,,,,,,,,,,,,,,,,,,,,,,,,,,,,,,,,,,,,,,,,,,,,,,,,,,,,,,,,,,,,,,,,,,,,
,,6139133041546096188da709,2024-02-21_21h26.32.498,kallum_motion_pilot,2023.2.2,Win32,59.17159763,6139133041546096188da709,65d6bb0e977760de756971f7,65d6bed1a69b90e7c1cebe08,0.0686,0.0688,1,60,222,67,1,twofour,,,,,,,,,,,,,,,,,,,,,,,,,,,,,,,,,,,,,,,,,,,,,,,,,,,,,,,,,,,,,,,,,,,,,,,,,,,,,,,,,,,,,,,,,,,,,,,,,,,,,,,,,,,,,,,,,,,,,,,,,,,,,,,,,,,,,,,,,
,,6139133041546096188da709,2024-02-21_21h26.32.498,kallum_motion_pilot,2023.2.2,Win32,59.17159763,6139133041546096188da709,65d6bb0e977760de756971f7,65d6bed1a69b90e7c1cebe08,0.0689,0.0689,1,61,223,140,1,sevenfive,,,,,,,,,,,,,,,,,,,,,,,,,,,,,,,,,,,,,,,,,,,,,,,,,,,,,,,,,,,,,,,,,,,,,,,,,,,,,,,,,,,,,,,,,,,,,,,,,,,,,,,,,,,,,,,,,,,,,,,,,,,,,,,,,,,,,,,,,
,,6139133041546096188da709,2024-02-21_21h26.32.498,kallum_motion_pilot,2023.2.2,Win32,59.17159763,6139133041546096188da709,65d6bb0e977760de756971f7,65d6bed1a69b90e7c1cebe08,0.069,0.0691,1,62,224,26,1,twoone,,,,,,,,,,,,,,,,,,,,,,,,,,,,,,,,,,,,,,,,,,,,,,,,,,,,,,,,,,,,,,,,,,,,,,,,,,,,,,,,,,,,,,,,,,,,,,,,,,,,,,,,,,,,,,,,,,,,,,,,,,,,,,,,,,,,,,,,,
,,6139133041546096188da709,2024-02-21_21h26.32.498,kallum_motion_pilot,2023.2.2,Win32,59.17159763,6139133041546096188da709,65d6bb0e977760de756971f7,65d6bed1a69b90e7c1cebe08,0.0693,0.0694,1,63,225,96,1,fivesix,,,,,,,,,,,,,,,,,,,,,,,,,,,,,,,,,,,,,,,,,,,,,,,,,,,,,,,,,,,,,,,,,,,,,,,,,,,,,,,,,,,,,,,,,,,,,,,,,,,,,,,,,,,,,,,,,,,,,,,,,,,,,,,,,,,,,,,,,
,,6139133041546096188da709,2024-02-21_21h26.32.498,kallum_motion_pilot,2023.2.2,Win32,59.17159763,6139133041546096188da709,65d6bb0e977760de756971f7,65d6bed1a69b90e7c1cebe08,0.0695,0.0696,1,64,226,147,1,sixeight,,,,,,,,,,,,,,,,,,,,,,,,,,,,,,,,,,,,,,,,,,,,,,,,,,,,,,,,,,,,,,,,,,,,,,,,,,,,,,,,,,,,,,,,,,,,,,,,,,,,,,,,,,,,,,,,,,,,,,,,,,,,,,,,,,,,,,,,,
,,6139133041546096188da709,2024-02-21_21h26.32.498,kallum_motion_pilot,2023.2.2,Win32,59.17159763,6139133041546096188da709,65d6bb0e977760de756971f7,65d6bed1a69b90e7c1cebe08,0.0697,0.0697,1,65,227,107,1,sixeight,,,,,,,,,,,,,,,,,,,,,,,,,,,,,,,,,,,,,,,,,,,,,,,,,,,,,,,,,,,,,,,,,,,,,,,,,,,,,,,,,,,,,,,,,,,,,,,,,,,,,,,,,,,,,,,,,,,,,,,,,,,,,,,,,,,,,,,,,
,,6139133041546096188da709,2024-02-21_21h26.32.498,kallum_motion_pilot,2023.2.2,Win32,59.17159763,6139133041546096188da709,65d6bb0e977760de756971f7,65d6bed1a69b90e7c1cebe08,0.0699,0.07,1,66,228,139,1,sixeight,,,,,,,,,,,,,,,,,,,,,,,,,,,,,,,,,,,,,,,,,,,,,,,,,,,,,,,,,,,,,,,,,,,,,,,,,,,,,,,,,,,,,,,,,,,,,,,,,,,,,,,,,,,,,,,,,,,,,,,,,,,,,,,,,,,,,,,,,
,,6139133041546096188da709,2024-02-21_21h26.32.498,kallum_motion_pilot,2023.2.2,Win32,59.17159763,6139133041546096188da709,65d6bb0e977760de756971f7,65d6bed1a69b90e7c1cebe08,0.0701,0.0701,1,67,229,104,1,fivesix,,,,,,,,,,,,,,,,,,,,,,,,,,,,,,,,,,,,,,,,,,,,,,,,,,,,,,,,,,,,,,,,,,,,,,,,,,,,,,,,,,,,,,,,,,,,,,,,,,,,,,,,,,,,,,,,,,,,,,,,,,,,,,,,,,,,,,,,,
,,6139133041546096188da709,2024-02-21_21h26.32.498,kallum_motion_pilot,2023.2.2,Win32,59.17159763,6139133041546096188da709,65d6bb0e977760de756971f7,65d6bed1a69b90e7c1cebe08,0.0702,0.0704,1,68,230,83,1,sixeight,,,,,,,,,,,,,,,,,,,,,,,,,,,,,,,,,,,,,,,,,,,,,,,,,,,,,,,,,,,,,,,,,,,,,,,,,,,,,,,,,,,,,,,,,,,,,,,,,,,,,,,,,,,,,,,,,,,,,,,,,,,,,,,,,,,,,,,,,
,,6139133041546096188da709,2024-02-21_21h26.32.498,kallum_motion_pilot,2023.2.2,Win32,59.17159763,6139133041546096188da709,65d6bb0e977760de756971f7,65d6bed1a69b90e7c1cebe08,0.0704,0.0705,1,69,231,79,1,eightseven,,,,,,,,,,,,,,,,,,,,,,,,,,,,,,,,,,,,,,,,,,,,,,,,,,,,,,,,,,,,,,,,,,,,,,,,,,,,,,,,,,,,,,,,,,,,,,,,,,,,,,,,,,,,,,,,,,,,,,,,,,,,,,,,,,,,,,,,,
,,6139133041546096188da709,2024-02-21_21h26.32.498,kallum_motion_pilot,2023.2.2,Win32,59.17159763,6139133041546096188da709,65d6bb0e977760de756971f7,65d6bed1a69b90e7c1cebe08,0.0706,0.0707,1,70,232,19,1,twofour,,,,,,,,,,,,,,,,,,,,,,,,,,,,,,,,,,,,,,,,,,,,,,,,,,,,,,,,,,,,,,,,,,,,,,,,,,,,,,,,,,,,,,,,,,,,,,,,,,,,,,,,,,,,,,,,,,,,,,,,,,,,,,,,,,,,,,,,,
,,6139133041546096188da709,2024-02-21_21h26.32.498,kallum_motion_pilot,2023.2.2,Win32,59.17159763,6139133041546096188da709,65d6bb0e977760de756971f7,65d6bed1a69b90e7c1cebe08,0.0708,0.0709,1,71,233,129,1,fiveseven,,,,,,,,,,,,,,,,,,,,,,,,,,,,,,,,,,,,,,,,,,,,,,,,,,,,,,,,,,,,,,,,,,,,,,,,,,,,,,,,,,,,,,,,,,,,,,,,,,,,,,,,,,,,,,,,,,,,,,,,,,,,,,,,,,,,,,,,,
,,6139133041546096188da709,2024-02-21_21h26.32.498,kallum_motion_pilot,2023.2.2,Win32,59.17159763,6139133041546096188da709,65d6bb0e977760de756971f7,65d6bed1a69b90e7c1cebe08,0.071,0.071,1,72,234,113,1,fiveseven,,,,,,,,,,,,,,,,,,,,,,,,,,,,,,,,,,,,,,,,,,,,,,,,,,,,,,,,,,,,,,,,,,,,,,,,,,,,,,,,,,,,,,,,,,,,,,,,,,,,,,,,,,,,,,,,,,,,,,,,,,,,,,,,,,,,,,,,,
,,6139133041546096188da709,2024-02-21_21h26.32.498,kallum_motion_pilot,2023.2.2,Win32,59.17159763,6139133041546096188da709,65d6bb0e977760de756971f7,65d6bed1a69b90e7c1cebe08,0.0712,0.0713,1,73,235,125,1,seveneight,,,,,,,,,,,,,,,,,,,,,,,,,,,,,,,,,,,,,,,,,,,,,,,,,,,,,,,,,,,,,,,,,,,,,,,,,,,,,,,,,,,,,,,,,,,,,,,,,,,,,,,,,,,,,,,,,,,,,,,,,,,,,,,,,,,,,,,,,
,,6139133041546096188da709,2024-02-21_21h26.32.498,kallum_motion_pilot,2023.2.2,Win32,59.17159763,6139133041546096188da709,65d6bb0e977760de756971f7,65d6bed1a69b90e7c1cebe08,0.0714,0.0714,1,74,236,24,1,onetwo,,,,,,,,,,,,,,,,,,,,,,,,,,,,,,,,,,,,,,,,,,,,,,,,,,,,,,,,,,,,,,,,,,,,,,,,,,,,,,,,,,,,,,,,,,,,,,,,,,,,,,,,,,,,,,,,,,,,,,,,,,,,,,,,,,,,,,,,,
,,6139133041546096188da709,2024-02-21_21h26.32.498,kallum_motion_pilot,2023.2.2,Win32,59.17159763,6139133041546096188da709,65d6bb0e977760de756971f7,65d6bed1a69b90e7c1cebe08,0.0716,0.0717,1,75,237,118,1,eightsix,,,,,,,,,,,,,,,,,,,,,,,,,,,,,,,,,,,,,,,,,,,,,,,,,,,,,,,,,,,,,,,,,,,,,,,,,,,,,,,,,,,,,,,,,,,,,,,,,,,,,,,,,,,,,,,,,,,,,,,,,,,,,,,,,,,,,,,,,
,,6139133041546096188da709,2024-02-21_21h26.32.498,kallum_motion_pilot,2023.2.2,Win32,59.17159763,6139133041546096188da709,65d6bb0e977760de756971f7,65d6bed1a69b90e7c1cebe08,0.0718,0.072,1,76,238,64,1,onetwo,,,,,,,,,,,,,,,,,,,,,,,,,,,,,,,,,,,,,,,,,,,,,,,,,,,,,,,,,,,,,,,,,,,,,,,,,,,,,,,,,,,,,,,,,,,,,,,,,,,,,,,,,,,,,,,,,,,,,,,,,,,,,,,,,,,,,,,,,
,,6139133041546096188da709,2024-02-21_21h26.32.498,kallum_motion_pilot,2023.2.2,Win32,59.17159763,6139133041546096188da709,65d6bb0e977760de756971f7,65d6bed1a69b90e7c1cebe08,0.0722,0.0725,1,77,239,144,1,fivesix,,,,,,,,,,,,,,,,,,,,,,,,,,,,,,,,,,,,,,,,,,,,,,,,,,,,,,,,,,,,,,,,,,,,,,,,,,,,,,,,,,,,,,,,,,,,,,,,,,,,,,,,,,,,,,,,,,,,,,,,,,,,,,,,,,,,,,,,,
,,6139133041546096188da709,2024-02-21_21h26.32.498,kallum_motion_pilot,2023.2.2,Win32,59.17159763,6139133041546096188da709,65d6bb0e977760de756971f7,65d6bed1a69b90e7c1cebe08,0.0726,0.0728,1,78,240,62,1,fourtwo,,,,,,,,,,,,,,,,,,,,,,,,,,,,,,,,,,,,,,,,,,,,,,,,,,,,,,,,,,,,,,,,,,,,,,,,,,,,,,,,,,,,,,,,,,,,,,,,,,,,,,,,,,,,,,,,,,,,,,,,,,,,,,,,,,,,,,,,,
,,6139133041546096188da709,2024-02-21_21h26.32.498,kallum_motion_pilot,2023.2.2,Win32,59.17159763,6139133041546096188da709,65d6bb0e977760de756971f7,65d6bed1a69b90e7c1cebe08,0.0731,0.0732,1,79,241,41,1,onethree,,,,,,,,,,,,,,,,,,,,,,,,,,,,,,,,,,,,,,,,,,,,,,,,,,,,,,,,,,,,,,,,,,,,,,,,,,,,,,,,,,,,,,,,,,,,,,,,,,,,,,,,,,,,,,,,,,,,,,,,,,,,,,,,,,,,,,,,,
,,6139133041546096188da709,2024-02-21_21h26.32.498,kallum_motion_pilot,2023.2.2,Win32,59.17159763,6139133041546096188da709,65d6bb0e977760de756971f7,65d6bed1a69b90e7c1cebe08,0.0735,0.0736,1,80,242,28,1,threeone,,,,,,,,,,,,,,,,,,,,,,,,,,,,,,,,,,,,,,,,,,,,,,,,,,,,,,,,,,,,,,,,,,,,,,,,,,,,,,,,,,,,,,,,,,,,,,,,,,,,,,,,,,,,,,,,,,,,,,,,,,,,,,,,,,,,,,,,,
,,6139133041546096188da709,2024-02-21_21h26.32.498,kallum_motion_pilot,2023.2.2,Win32,59.17159763,6139133041546096188da709,65d6bb0e977760de756971f7,65d6bed1a69b90e7c1cebe08,0.0737,0.0739,1,81,243,35,1,twofour,,,,,,,,,,,,,,,,,,,,,,,,,,,,,,,,,,,,,,,,,,,,,,,,,,,,,,,,,,,,,,,,,,,,,,,,,,,,,,,,,,,,,,,,,,,,,,,,,,,,,,,,,,,,,,,,,,,,,,,,,,,,,,,,,,,,,,,,,
,,6139133041546096188da709,2024-02-21_21h26.32.498,kallum_motion_pilot,2023.2.2,Win32,59.17159763,6139133041546096188da709,65d6bb0e977760de756971f7,65d6bed1a69b90e7c1cebe08,0.0739,0.074,1,82,244,63,1,fourthree,,,,,,,,,,,,,,,,,,,,,,,,,,,,,,,,,,,,,,,,,,,,,,,,,,,,,,,,,,,,,,,,,,,,,,,,,,,,,,,,,,,,,,,,,,,,,,,,,,,,,,,,,,,,,,,,,,,,,,,,,,,,,,,,,,,,,,,,,
,,6139133041546096188da709,2024-02-21_21h26.32.498,kallum_motion_pilot,2023.2.2,Win32,59.17159763,6139133041546096188da709,65d6bb0e977760de756971f7,65d6bed1a69b90e7c1cebe08,0.0741,0.0742,1,83,245,65,1,onethree,,,,,,,,,,,,,,,,,,,,,,,,,,,,,,,,,,,,,,,,,,,,,,,,,,,,,,,,,,,,,,,,,,,,,,,,,,,,,,,,,,,,,,,,,,,,,,,,,,,,,,,,,,,,,,,,,,,,,,,,,,,,,,,,,,,,,,,,,
,,6139133041546096188da709,2024-02-21_21h26.32.498,kallum_motion_pilot,2023.2.2,Win32,59.17159763,6139133041546096188da709,65d6bb0e977760de756971f7,65d6bed1a69b90e7c1cebe08,0.0744,0.0745,1,84,246,45,1,threefour,,,,,,,,,,,,,,,,,,,,,,,,,,,,,,,,,,,,,,,,,,,,,,,,,,,,,,,,,,,,,,,,,,,,,,,,,,,,,,,,,,,,,,,,,,,,,,,,,,,,,,,,,,,,,,,,,,,,,,,,,,,,,,,,,,,,,,,,,
,,6139133041546096188da709,2024-02-21_21h26.32.498,kallum_motion_pilot,2023.2.2,Win32,59.17159763,6139133041546096188da709,65d6bb0e977760de756971f7,65d6bed1a69b90e7c1cebe08,0.0746,0.0747,1,85,247,30,1,fourtwo,,,,,,,,,,,,,,,,,,,,,,,,,,,,,,,,,,,,,,,,,,,,,,,,,,,,,,,,,,,,,,,,,,,,,,,,,,,,,,,,,,,,,,,,,,,,,,,,,,,,,,,,,,,,,,,,,,,,,,,,,,,,,,,,,,,,,,,,,
,,6139133041546096188da709,2024-02-21_21h26.32.498,kallum_motion_pilot,2023.2.2,Win32,59.17159763,6139133041546096188da709,65d6bb0e977760de756971f7,65d6bed1a69b90e7c1cebe08,0.0748,0.0749,1,86,248,133,1,seveneight,,,,,,,,,,,,,,,,,,,,,,,,,,,,,,,,,,,,,,,,,,,,,,,,,,,,,,,,,,,,,,,,,,,,,,,,,,,,,,,,,,,,,,,,,,,,,,,,,,,,,,,,,,,,,,,,,,,,,,,,,,,,,,,,,,,,,,,,,
,,6139133041546096188da709,2024-02-21_21h26.32.498,kallum_motion_pilot,2023.2.2,Win32,59.17159763,6139133041546096188da709,65d6bb0e977760de756971f7,65d6bed1a69b90e7c1cebe08,0.075,0.0751,1,87,249,53,1,threefour,,,,,,,,,,,,,,,,,,,,,,,,,,,,,,,,,,,,,,,,,,,,,,,,,,,,,,,,,,,,,,,,,,,,,,,,,,,,,,,,,,,,,,,,,,,,,,,,,,,,,,,,,,,,,,,,,,,,,,,,,,,,,,,,,,,,,,,,,
,,6139133041546096188da709,2024-02-21_21h26.32.498,kallum_motion_pilot,2023.2.2,Win32,59.17159763,6139133041546096188da709,65d6bb0e977760de756971f7,65d6bed1a69b90e7c1cebe08,0.0753,0.0754,1,88,250,40,1,onetwo,,,,,,,,,,,,,,,,,,,,,,,,,,,,,,,,,,,,,,,,,,,,,,,,,,,,,,,,,,,,,,,,,,,,,,,,,,,,,,,,,,,,,,,,,,,,,,,,,,,,,,,,,,,,,,,,,,,,,,,,,,,,,,,,,,,,,,,,,
,,6139133041546096188da709,2024-02-21_21h26.32.498,kallum_motion_pilot,2023.2.2,Win32,59.17159763,6139133041546096188da709,65d6bb0e977760de756971f7,65d6bed1a69b90e7c1cebe08,0.0755,0.0756,1,89,251,25,1,onethree,,,,,,,,,,,,,,,,,,,,,,,,,,,,,,,,,,,,,,,,,,,,,,,,,,,,,,,,,,,,,,,,,,,,,,,,,,,,,,,,,,,,,,,,,,,,,,,,,,,,,,,,,,,,,,,,,,,,,,,,,,,,,,,,,,,,,,,,,
,,6139133041546096188da709,2024-02-21_21h26.32.498,kallum_motion_pilot,2023.2.2,Win32,59.17159763,6139133041546096188da709,65d6bb0e977760de756971f7,65d6bed1a69b90e7c1cebe08,0.0756,0.0757,1,90,252,66,1,twoone,,,,,,,,,,,,,,,,,,,,,,,,,,,,,,,,,,,,,,,,,,,,,,,,,,,,,,,,,,,,,,,,,,,,,,,,,,,,,,,,,,,,,,,,,,,,,,,,,,,,,,,,,,,,,,,,,,,,,,,,,,,,,,,,,,,,,,,,,
,,6139133041546096188da709,2024-02-21_21h26.32.498,kallum_motion_pilot,2023.2.2,Win32,59.17159763,6139133041546096188da709,65d6bb0e977760de756971f7,65d6bed1a69b90e7c1cebe08,0.0758,0.0759,1,91,253,4,1,threeone,,,,,,,,,,,,,,,,,,,,,,,,,,,,,,,,,,,,,,,,,,,,,,,,,,,,,,,,,,,,,,,,,,,,,,,,,,,,,,,,,,,,,,,,,,,,,,,,,,,,,,,,,,,,,,,,,,,,,,,,,,,,,,,,,,,,,,,,,
,,6139133041546096188da709,2024-02-21_21h26.32.498,kallum_motion_pilot,2023.2.2,Win32,59.17159763,6139133041546096188da709,65d6bb0e977760de756971f7,65d6bed1a69b90e7c1cebe08,0.0761,0.0762,1,92,254,18,1,twoone,,,,,,,,,,,,,,,,,,,,,,,,,,,,,,,,,,,,,,,,,,,,,,,,,,,,,,,,,,,,,,,,,,,,,,,,,,,,,,,,,,,,,,,,,,,,,,,,,,,,,,,,,,,,,,,,,,,,,,,,,,,,,,,,,,,,,,,,,
,,6139133041546096188da709,2024-02-21_21h26.32.498,kallum_motion_pilot,2023.2.2,Win32,59.17159763,6139133041546096188da709,65d6bb0e977760de756971f7,65d6bed1a69b90e7c1cebe08,0.0763,0.0765,1,93,255,111,1,eightseven,,,,,,,,,,,,,,,,,,,,,,,,,,,,,,,,,,,,,,,,,,,,,,,,,,,,,,,,,,,,,,,,,,,,,,,,,,,,,,,,,,,,,,,,,,,,,,,,,,,,,,,,,,,,,,,,,,,,,,,,,,,,,,,,,,,,,,,,,
,,6139133041546096188da709,2024-02-21_21h26.32.498,kallum_motion_pilot,2023.2.2,Win32,59.17159763,6139133041546096188da709,65d6bb0e977760de756971f7,65d6bed1a69b90e7c1cebe08,0.0766,0.0766,1,94,256,152,1,fivesix,,,,,,,,,,,,,,,,,,,,,,,,,,,,,,,,,,,,,,,,,,,,,,,,,,,,,,,,,,,,,,,,,,,,,,,,,,,,,,,,,,,,,,,,,,,,,,,,,,,,,,,,,,,,,,,,,,,,,,,,,,,,,,,,,,,,,,,,,
,,6139133041546096188da709,2024-02-21_21h26.32.498,kallum_motion_pilot,2023.2.2,Win32,59.17159763,6139133041546096188da709,65d6bb0e977760de756971f7,65d6bed1a69b90e7c1cebe08,0.0767,0.0769,1,95,257,29,1,threefour,,,,,,,,,,,,,,,,,,,,,,,,,,,,,,,,,,,,,,,,,,,,,,,,,,,,,,,,,,,,,,,,,,,,,,,,,,,,,,,,,,,,,,,,,,,,,,,,,,,,,,,,,,,,,,,,,,,,,,,,,,,,,,,,,,,,,,,,,
,,6139133041546096188da709,2024-02-21_21h26.32.498,kallum_motion_pilot,2023.2.2,Win32,59.17159763,6139133041546096188da709,65d6bb0e977760de756971f7,65d6bed1a69b90e7c1cebe08,0.0769,0.0771,1,96,258,74,1,twoone,,,,,,,,,,,,,,,,,,,,,,,,,,,,,,,,,,,,,,,,,,,,,,,,,,,,,,,,,,,,,,,,,,,,,,,,,,,,,,,,,,,,,,,,,,,,,,,,,,,,,,,,,,,,,,,,,,,,,,,,,,,,,,,,,,,,,,,,,
,,6139133041546096188da709,2024-02-21_21h26.32.498,kallum_motion_pilot,2023.2.2,Win32,59.17159763,6139133041546096188da709,65d6bb0e977760de756971f7,65d6bed1a69b90e7c1cebe08,0.0772,0.0773,1,97,259,3,1,twofour,,,,,,,,,,,,,,,,,,,,,,,,,,,,,,,,,,,,,,,,,,,,,,,,,,,,,,,,,,,,,,,,,,,,,,,,,,,,,,,,,,,,,,,,,,,,,,,,,,,,,,,,,,,,,,,,,,,,,,,,,,,,,,,,,,,,,,,,,
,,6139133041546096188da709,2024-02-21_21h26.32.498,kallum_motion_pilot,2023.2.2,Win32,59.17159763,6139133041546096188da709,65d6bb0e977760de756971f7,65d6bed1a69b90e7c1cebe08,0.0775,0.0776,1,98,260,146,1,sixfive,,,,,,,,,,,,,,,,,,,,,,,,,,,,,,,,,,,,,,,,,,,,,,,,,,,,,,,,,,,,,,,,,,,,,,,,,,,,,,,,,,,,,,,,,,,,,,,,,,,,,,,,,,,,,,,,,,,,,,,,,,,,,,,,,,,,,,,,,
,,6139133041546096188da709,2024-02-21_21h26.32.498,kallum_motion_pilot,2023.2.2,Win32,59.17159763,6139133041546096188da709,65d6bb0e977760de756971f7,65d6bed1a69b90e7c1cebe08,0.0776,0.0777,1,99,261,9,1,onethree,,,,,,,,,,,,,,,,,,,,,,,,,,,,,,,,,,,,,,,,,,,,,,,,,,,,,,,,,,,,,,,,,,,,,,,,,,,,,,,,,,,,,,,,,,,,,,,,,,,,,,,,,,,,,,,,,,,,,,,,,,,,,,,,,,,,,,,,,
,,6139133041546096188da709,2024-02-21_21h26.32.498,kallum_motion_pilot,2023.2.2,Win32,59.17159763,6139133041546096188da709,65d6bb0e977760de756971f7,65d6bed1a69b90e7c1cebe08,0.0779,0.078,1,100,262,12,1,threeone,,,,,,,,,,,,,,,,,,,,,,,,,,,,,,,,,,,,,,,,,,,,,,,,,,,,,,,,,,,,,,,,,,,,,,,,,,,,,,,,,,,,,,,,,,,,,,,,,,,,,,,,,,,,,,,,,,,,,,,,,,,,,,,,,,,,,,,,,
,,6139133041546096188da709,2024-02-21_21h26.32.498,kallum_motion_pilot,2023.2.2,Win32,59.17159763,6139133041546096188da709,65d6bb0e977760de756971f7,65d6bed1a69b90e7c1cebe08,0.078,0.0782,1,101,263,98,1,sixfive,,,,,,,,,,,,,,,,,,,,,,,,,,,,,,,,,,,,,,,,,,,,,,,,,,,,,,,,,,,,,,,,,,,,,,,,,,,,,,,,,,,,,,,,,,,,,,,,,,,,,,,,,,,,,,,,,,,,,,,,,,,,,,,,,,,,,,,,,
,,6139133041546096188da709,2024-02-21_21h26.32.498,kallum_motion_pilot,2023.2.2,Win32,59.17159763,6139133041546096188da709,65d6bb0e977760de756971f7,65d6bed1a69b90e7c1cebe08,0.0783,0.0785,1,102,264,14,1,fourtwo,,,,,,,,,,,,,,,,,,,,,,,,,,,,,,,,,,,,,,,,,,,,,,,,,,,,,,,,,,,,,,,,,,,,,,,,,,,,,,,,,,,,,,,,,,,,,,,,,,,,,,,,,,,,,,,,,,,,,,,,,,,,,,,,,,,,,,,,,
,,6139133041546096188da709,2024-02-21_21h26.32.498,kallum_motion_pilot,2023.2.2,Win32,59.17159763,6139133041546096188da709,65d6bb0e977760de756971f7,65d6bed1a69b90e7c1cebe08,0.0787,0.0788,1,103,265,120,1,fivesix,,,,,,,,,,,,,,,,,,,,,,,,,,,,,,,,,,,,,,,,,,,,,,,,,,,,,,,,,,,,,,,,,,,,,,,,,,,,,,,,,,,,,,,,,,,,,,,,,,,,,,,,,,,,,,,,,,,,,,,,,,,,,,,,,,,,,,,,,
,,6139133041546096188da709,2024-02-21_21h26.32.498,kallum_motion_pilot,2023.2.2,Win32,59.17159763,6139133041546096188da709,65d6bb0e977760de756971f7,65d6bed1a69b90e7c1cebe08,0.079,0.0791,1,104,266,88,1,fivesix,,,,,,,,,,,,,,,,,,,,,,,,,,,,,,,,,,,,,,,,,,,,,,,,,,,,,,,,,,,,,,,,,,,,,,,,,,,,,,,,,,,,,,,,,,,,,,,,,,,,,,,,,,,,,,,,,,,,,,,,,,,,,,,,,,,,,,,,,
,,6139133041546096188da709,2024-02-21_21h26.32.498,kallum_motion_pilot,2023.2.2,Win32,59.17159763,6139133041546096188da709,65d6bb0e977760de756971f7,65d6bed1a69b90e7c1cebe08,0.0793,0.0793,1,105,267,87,1,eightseven,,,,,,,,,,,,,,,,,,,,,,,,,,,,,,,,,,,,,,,,,,,,,,,,,,,,,,,,,,,,,,,,,,,,,,,,,,,,,,,,,,,,,,,,,,,,,,,,,,,,,,,,,,,,,,,,,,,,,,,,,,,,,,,,,,,,,,,,,
,,6139133041546096188da709,2024-02-21_21h26.32.498,kallum_motion_pilot,2023.2.2,Win32,59.17159763,6139133041546096188da709,65d6bb0e977760de756971f7,65d6bed1a69b90e7c1cebe08,0.0795,0.0795,1,106,268,137,1,fiveseven,,,,,,,,,,,,,,,,,,,,,,,,,,,,,,,,,,,,,,,,,,,,,,,,,,,,,,,,,,,,,,,,,,,,,,,,,,,,,,,,,,,,,,,,,,,,,,,,,,,,,,,,,,,,,,,,,,,,,,,,,,,,,,,,,,,,,,,,,
,,6139133041546096188da709,2024-02-21_21h26.32.498,kallum_motion_pilot,2023.2.2,Win32,59.17159763,6139133041546096188da709,65d6bb0e977760de756971f7,65d6bed1a69b90e7c1cebe08,0.0797,0.0797,1,107,269,42,1,twoone,,,,,,,,,,,,,,,,,,,,,,,,,,,,,,,,,,,,,,,,,,,,,,,,,,,,,,,,,,,,,,,,,,,,,,,,,,,,,,,,,,,,,,,,,,,,,,,,,,,,,,,,,,,,,,,,,,,,,,,,,,,,,,,,,,,,,,,,,
,,6139133041546096188da709,2024-02-21_21h26.32.498,kallum_motion_pilot,2023.2.2,Win32,59.17159763,6139133041546096188da709,65d6bb0e977760de756971f7,65d6bed1a69b90e7c1cebe08,0.0799,0.08,1,108,270,16,1,onetwo,,,,,,,,,,,,,,,,,,,,,,,,,,,,,,,,,,,,,,,,,,,,,,,,,,,,,,,,,,,,,,,,,,,,,,,,,,,,,,,,,,,,,,,,,,,,,,,,,,,,,,,,,,,,,,,,,,,,,,,,,,,,,,,,,,,,,,,,,
,,6139133041546096188da709,2024-02-21_21h26.32.498,kallum_motion_pilot,2023.2.2,Win32,59.17159763,6139133041546096188da709,65d6bb0e977760de756971f7,65d6bed1a69b90e7c1cebe08,0.08,0.0802,1,109,271,2,1,twoone,,,,,,,,,,,,,,,,,,,,,,,,,,,,,,,,,,,,,,,,,,,,,,,,,,,,,,,,,,,,,,,,,,,,,,,,,,,,,,,,,,,,,,,,,,,,,,,,,,,,,,,,,,,,,,,,,,,,,,,,,,,,,,,,,,,,,,,,,
,,6139133041546096188da709,2024-02-21_21h26.32.498,kallum_motion_pilot,2023.2.2,Win32,59.17159763,6139133041546096188da709,65d6bb0e977760de756971f7,65d6bed1a69b90e7c1cebe08,0.0803,0.0804,1,110,272,143,1,eightseven,,,,,,,,,,,,,,,,,,,,,,,,,,,,,,,,,,,,,,,,,,,,,,,,,,,,,,,,,,,,,,,,,,,,,,,,,,,,,,,,,,,,,,,,,,,,,,,,,,,,,,,,,,,,,,,,,,,,,,,,,,,,,,,,,,,,,,,,,
,,6139133041546096188da709,2024-02-21_21h26.32.498,kallum_motion_pilot,2023.2.2,Win32,59.17159763,6139133041546096188da709,65d6bb0e977760de756971f7,65d6bed1a69b90e7c1cebe08,0.0805,0.0806,1,111,273,60,1,threeone,,,,,,,,,,,,,,,,,,,,,,,,,,,,,,,,,,,,,,,,,,,,,,,,,,,,,,,,,,,,,,,,,,,,,,,,,,,,,,,,,,,,,,,,,,,,,,,,,,,,,,,,,,,,,,,,,,,,,,,,,,,,,,,,,,,,,,,,,
,,6139133041546096188da709,2024-02-21_21h26.32.498,kallum_motion_pilot,2023.2.2,Win32,59.17159763,6139133041546096188da709,65d6bb0e977760de756971f7,65d6bed1a69b90e7c1cebe08,0.0807,0.0808,1,112,274,119,1,eightseven,,,,,,,,,,,,,,,,,,,,,,,,,,,,,,,,,,,,,,,,,,,,,,,,,,,,,,,,,,,,,,,,,,,,,,,,,,,,,,,,,,,,,,,,,,,,,,,,,,,,,,,,,,,,,,,,,,,,,,,,,,,,,,,,,,,,,,,,,
,,6139133041546096188da709,2024-02-21_21h26.32.498,kallum_motion_pilot,2023.2.2,Win32,59.17159763,6139133041546096188da709,65d6bb0e977760de756971f7,65d6bed1a69b90e7c1cebe08,0.0809,0.081,1,113,275,10,1,twoone,,,,,,,,,,,,,,,,,,,,,,,,,,,,,,,,,,,,,,,,,,,,,,,,,,,,,,,,,,,,,,,,,,,,,,,,,,,,,,,,,,,,,,,,,,,,,,,,,,,,,,,,,,,,,,,,,,,,,,,,,,,,,,,,,,,,,,,,,
,,6139133041546096188da709,2024-02-21_21h26.32.498,kallum_motion_pilot,2023.2.2,Win32,59.17159763,6139133041546096188da709,65d6bb0e977760de756971f7,65d6bed1a69b90e7c1cebe08,0.0812,0.0813,1,114,276,37,1,threefour,,,,,,,,,,,,,,,,,,,,,,,,,,,,,,,,,,,,,,,,,,,,,,,,,,,,,,,,,,,,,,,,,,,,,,,,,,,,,,,,,,,,,,,,,,,,,,,,,,,,,,,,,,,,,,,,,,,,,,,,,,,,,,,,,,,,,,,,,
,,6139133041546096188da709,2024-02-21_21h26.32.498,kallum_motion_pilot,2023.2.2,Win32,59.17159763,6139133041546096188da709,65d6bb0e977760de756971f7,65d6bed1a69b90e7c1cebe08,0.0814,0.0815,1,115,277,13,1,threefour,,,,,,,,,,,,,,,,,,,,,,,,,,,,,,,,,,,,,,,,,,,,,,,,,,,,,,,,,,,,,,,,,,,,,,,,,,,,,,,,,,,,,,,,,,,,,,,,,,,,,,,,,,,,,,,,,,,,,,,,,,,,,,,,,,,,,,,,,
