startup.started,startup.stopped,Prolific ID*,date,expName,psychopyVersion,OS,frameRate,participant,study_id,session,stimpositions.started,stimpositions.stopped,hardcoded_stimulus_positions.thisRepN,hardcoded_stimulus_positions.thisTrialN,hardcoded_stimulus_positions.thisN,hardcoded_stimulus_positions.thisIndex,hardcoded_stimulus_positions.ran,StimulusPos,stimorientation.started,stimorientation.stopped,prac_stimorientation_import_loop.thisRepN,prac_stimorientation_import_loop.thisTrialN,prac_stimorientation_import_loop.thisN,prac_stimorientation_import_loop.thisIndex,prac_stimorientation_import_loop.ran,Stimorientation,welcome_instr.started,welcome_instr.stopped,key_resp.keys,key_resp.rt,key_resp.duration,response_steppedout_1.started,response_steppedout_1.stopped,key_resp_20.keys,key_resp_20.rt,key_resp_20.duration,response_steppedout_2.started,response_steppedout_2.stopped,key_resp_19.keys,key_resp_19.rt,key_resp_19.duration,stim_response_instr.started,stim_response_instr.stopped,key_resp_15.keys,key_resp_15.rt,key_resp_15.duration,direction_instr_2.started,direction_instr_2.stopped,key_resp_9.keys,key_resp_9.rt,key_resp_9.duration,instr_prac.started,instr_prac.stopped,key_resp_10.keys,key_resp_10.rt,key_resp_10.duration,Stim1_display_prac.started,Stim1_display_prac.stopped,Ecc,Circle1_ori,Circle2_ori,response_prac.started,similarity,response_time,response_prac.stopped,mouse_5.x,mouse_5.y,mouse_5.leftButton,mouse_5.midButton,mouse_5.rightButton,mouse_5.clicked_name,responseprac_feedback.started,responseprac_feedback.stopped,summary2_prac.started,summary2_prac.stopped,mouse_6.x,mouse_6.y,mouse_6.leftButton,mouse_6.midButton,mouse_6.rightButton,mouse_6.clicked_name,duringprac.thisRepN,duringprac.thisTrialN,duringprac.thisN,duringprac.thisIndex,duringprac.ran,begin.started,begin.stopped,key_resp_22.keys,key_resp_22.rt,key_resp_22.duration,Stim1_display.started,Stim1_display.stopped,circle1_ori,circle2_ori,circle1_SF,circle2_SF,response.started,response.stopped,mouse.x,mouse.y,mouse.leftButton,mouse.midButton,mouse.rightButton,mouse.clicked_name,trialnumber,double_pass.thisRepN,double_pass.thisTrialN,double_pass.thisN,double_pass.thisIndex,double_pass.ran,double_pass.order,main_trial.thisRepN,main_trial.thisTrialN,main_trial.thisN,main_trial.thisIndex,main_trial.ran,main_trial.order,Trial_Counter,Catch,Frequencies,response_2.started,response_2.stopped,mouse_2.x,mouse_2.y,mouse_2.leftButton,mouse_2.midButton,mouse_2.rightButton,mouse_2.clicked_name,special_trial.started,special_trial.stopped,catch_1.started,catch_1.stopped,mouse_3.x,mouse_3.y,mouse_3.leftButton,mouse_3.midButton,mouse_3.rightButton,catchresponse,catchnumber,response_time_catch,response_sum.started,response_sum.stopped,mouse_11.x,mouse_11.y,mouse_11.leftButton,mouse_11.midButton,mouse_11.rightButton,flip_presentation_sequence_for_double_pass.started,flip_presentation_sequence_for_double_pass.stopped,goodbye.started,goodbye.stopped,key_resp_3.keys,key_resp_3.rt,key_resp_3.duration
0.0004,0.0005,6139012c76a6707fb629ff55,2024-02-18_20h13.02.898,kallum_motion_pilot,2023.2.2,Win32,60.24096386,6139012c76a6707fb629ff55,65d2b6c8f2eece985d8e374c,65d2b91cc67a654a5c71c27a,,,,,,,,,,,,,,,,,,,,,,,,,,,,,,,,,,,,,,,,,,,,,,,,,,,,,,,,,,,,,,,,,,,,,,,,,,,,,,,,,,,,,,,,,,,,,,,,,,,,,,,,,,,,,,,,,,,,,,,,,,,,,,,,,,,,,,,,,,,,,,,,,
,,6139012c76a6707fb629ff55,2024-02-18_20h13.02.898,kallum_motion_pilot,2023.2.2,Win32,60.24096386,6139012c76a6707fb629ff55,65d2b6c8f2eece985d8e374c,65d2b91cc67a654a5c71c27a,0.0298,0.0299,0,0,0,120,1,fivesix,,,,,,,,,,,,,,,,,,,,,,,,,,,,,,,,,,,,,,,,,,,,,,,,,,,,,,,,,,,,,,,,,,,,,,,,,,,,,,,,,,,,,,,,,,,,,,,,,,,,,,,,,,,,,,,,,,,,,,,,,,,,,,,,,,,,,,,,,
,,6139012c76a6707fb629ff55,2024-02-18_20h13.02.898,kallum_motion_pilot,2023.2.2,Win32,60.24096386,6139012c76a6707fb629ff55,65d2b6c8f2eece985d8e374c,65d2b91cc67a654a5c71c27a,0.03,0.03,0,1,1,83,1,sixeight,,,,,,,,,,,,,,,,,,,,,,,,,,,,,,,,,,,,,,,,,,,,,,,,,,,,,,,,,,,,,,,,,,,,,,,,,,,,,,,,,,,,,,,,,,,,,,,,,,,,,,,,,,,,,,,,,,,,,,,,,,,,,,,,,,,,,,,,,
,,6139012c76a6707fb629ff55,2024-02-18_20h13.02.898,kallum_motion_pilot,2023.2.2,Win32,60.24096386,6139012c76a6707fb629ff55,65d2b6c8f2eece985d8e374c,65d2b91cc67a654a5c71c27a,0.0302,0.0302,0,2,2,146,1,sixfive,,,,,,,,,,,,,,,,,,,,,,,,,,,,,,,,,,,,,,,,,,,,,,,,,,,,,,,,,,,,,,,,,,,,,,,,,,,,,,,,,,,,,,,,,,,,,,,,,,,,,,,,,,,,,,,,,,,,,,,,,,,,,,,,,,,,,,,,,
,,6139012c76a6707fb629ff55,2024-02-18_20h13.02.898,kallum_motion_pilot,2023.2.2,Win32,60.24096386,6139012c76a6707fb629ff55,65d2b6c8f2eece985d8e374c,65d2b91cc67a654a5c71c27a,0.0303,0.0304,0,3,3,113,1,fiveseven,,,,,,,,,,,,,,,,,,,,,,,,,,,,,,,,,,,,,,,,,,,,,,,,,,,,,,,,,,,,,,,,,,,,,,,,,,,,,,,,,,,,,,,,,,,,,,,,,,,,,,,,,,,,,,,,,,,,,,,,,,,,,,,,,,,,,,,,,
,,6139012c76a6707fb629ff55,2024-02-18_20h13.02.898,kallum_motion_pilot,2023.2.2,Win32,60.24096386,6139012c76a6707fb629ff55,65d2b6c8f2eece985d8e374c,65d2b91cc67a654a5c71c27a,0.0304,0.0304,0,4,4,87,1,eightseven,,,,,,,,,,,,,,,,,,,,,,,,,,,,,,,,,,,,,,,,,,,,,,,,,,,,,,,,,,,,,,,,,,,,,,,,,,,,,,,,,,,,,,,,,,,,,,,,,,,,,,,,,,,,,,,,,,,,,,,,,,,,,,,,,,,,,,,,,
,,6139012c76a6707fb629ff55,2024-02-18_20h13.02.898,kallum_motion_pilot,2023.2.2,Win32,60.24096386,6139012c76a6707fb629ff55,65d2b6c8f2eece985d8e374c,65d2b91cc67a654a5c71c27a,0.0305,0.0305,0,5,5,76,1,threeone,,,,,,,,,,,,,,,,,,,,,,,,,,,,,,,,,,,,,,,,,,,,,,,,,,,,,,,,,,,,,,,,,,,,,,,,,,,,,,,,,,,,,,,,,,,,,,,,,,,,,,,,,,,,,,,,,,,,,,,,,,,,,,,,,,,,,,,,,
,,6139012c76a6707fb629ff55,2024-02-18_20h13.02.898,kallum_motion_pilot,2023.2.2,Win32,60.24096386,6139012c76a6707fb629ff55,65d2b6c8f2eece985d8e374c,65d2b91cc67a654a5c71c27a,0.0306,0.0307,0,6,6,14,1,fourtwo,,,,,,,,,,,,,,,,,,,,,,,,,,,,,,,,,,,,,,,,,,,,,,,,,,,,,,,,,,,,,,,,,,,,,,,,,,,,,,,,,,,,,,,,,,,,,,,,,,,,,,,,,,,,,,,,,,,,,,,,,,,,,,,,,,,,,,,,,
,,6139012c76a6707fb629ff55,2024-02-18_20h13.02.898,kallum_motion_pilot,2023.2.2,Win32,60.24096386,6139012c76a6707fb629ff55,65d2b6c8f2eece985d8e374c,65d2b91cc67a654a5c71c27a,0.0307,0.0307,0,7,7,26,1,twoone,,,,,,,,,,,,,,,,,,,,,,,,,,,,,,,,,,,,,,,,,,,,,,,,,,,,,,,,,,,,,,,,,,,,,,,,,,,,,,,,,,,,,,,,,,,,,,,,,,,,,,,,,,,,,,,,,,,,,,,,,,,,,,,,,,,,,,,,,
,,6139012c76a6707fb629ff55,2024-02-18_20h13.02.898,kallum_motion_pilot,2023.2.2,Win32,60.24096386,6139012c76a6707fb629ff55,65d2b6c8f2eece985d8e374c,65d2b91cc67a654a5c71c27a,0.0309,0.0309,0,8,8,41,1,onethree,,,,,,,,,,,,,,,,,,,,,,,,,,,,,,,,,,,,,,,,,,,,,,,,,,,,,,,,,,,,,,,,,,,,,,,,,,,,,,,,,,,,,,,,,,,,,,,,,,,,,,,,,,,,,,,,,,,,,,,,,,,,,,,,,,,,,,,,,
,,6139012c76a6707fb629ff55,2024-02-18_20h13.02.898,kallum_motion_pilot,2023.2.2,Win32,60.24096386,6139012c76a6707fb629ff55,65d2b6c8f2eece985d8e374c,65d2b91cc67a654a5c71c27a,0.031,0.031,0,9,9,147,1,sixeight,,,,,,,,,,,,,,,,,,,,,,,,,,,,,,,,,,,,,,,,,,,,,,,,,,,,,,,,,,,,,,,,,,,,,,,,,,,,,,,,,,,,,,,,,,,,,,,,,,,,,,,,,,,,,,,,,,,,,,,,,,,,,,,,,,,,,,,,,
,,6139012c76a6707fb629ff55,2024-02-18_20h13.02.898,kallum_motion_pilot,2023.2.2,Win32,60.24096386,6139012c76a6707fb629ff55,65d2b6c8f2eece985d8e374c,65d2b91cc67a654a5c71c27a,0.031,0.0311,0,10,10,20,1,threeone,,,,,,,,,,,,,,,,,,,,,,,,,,,,,,,,,,,,,,,,,,,,,,,,,,,,,,,,,,,,,,,,,,,,,,,,,,,,,,,,,,,,,,,,,,,,,,,,,,,,,,,,,,,,,,,,,,,,,,,,,,,,,,,,,,,,,,,,,
,,6139012c76a6707fb629ff55,2024-02-18_20h13.02.898,kallum_motion_pilot,2023.2.2,Win32,60.24096386,6139012c76a6707fb629ff55,65d2b6c8f2eece985d8e374c,65d2b91cc67a654a5c71c27a,0.0312,0.0312,0,11,11,97,1,fiveseven,,,,,,,,,,,,,,,,,,,,,,,,,,,,,,,,,,,,,,,,,,,,,,,,,,,,,,,,,,,,,,,,,,,,,,,,,,,,,,,,,,,,,,,,,,,,,,,,,,,,,,,,,,,,,,,,,,,,,,,,,,,,,,,,,,,,,,,,,
,,6139012c76a6707fb629ff55,2024-02-18_20h13.02.898,kallum_motion_pilot,2023.2.2,Win32,60.24096386,6139012c76a6707fb629ff55,65d2b6c8f2eece985d8e374c,65d2b91cc67a654a5c71c27a,0.0312,0.0312,0,12,12,93,1,seveneight,,,,,,,,,,,,,,,,,,,,,,,,,,,,,,,,,,,,,,,,,,,,,,,,,,,,,,,,,,,,,,,,,,,,,,,,,,,,,,,,,,,,,,,,,,,,,,,,,,,,,,,,,,,,,,,,,,,,,,,,,,,,,,,,,,,,,,,,,
,,6139012c76a6707fb629ff55,2024-02-18_20h13.02.898,kallum_motion_pilot,2023.2.2,Win32,60.24096386,6139012c76a6707fb629ff55,65d2b6c8f2eece985d8e374c,65d2b91cc67a654a5c71c27a,0.0313,0.0313,0,13,13,48,1,onetwo,,,,,,,,,,,,,,,,,,,,,,,,,,,,,,,,,,,,,,,,,,,,,,,,,,,,,,,,,,,,,,,,,,,,,,,,,,,,,,,,,,,,,,,,,,,,,,,,,,,,,,,,,,,,,,,,,,,,,,,,,,,,,,,,,,,,,,,,,
,,6139012c76a6707fb629ff55,2024-02-18_20h13.02.898,kallum_motion_pilot,2023.2.2,Win32,60.24096386,6139012c76a6707fb629ff55,65d2b6c8f2eece985d8e374c,65d2b91cc67a654a5c71c27a,0.0314,0.0314,0,14,14,42,1,twoone,,,,,,,,,,,,,,,,,,,,,,,,,,,,,,,,,,,,,,,,,,,,,,,,,,,,,,,,,,,,,,,,,,,,,,,,,,,,,,,,,,,,,,,,,,,,,,,,,,,,,,,,,,,,,,,,,,,,,,,,,,,,,,,,,,,,,,,,,
,,6139012c76a6707fb629ff55,2024-02-18_20h13.02.898,kallum_motion_pilot,2023.2.2,Win32,60.24096386,6139012c76a6707fb629ff55,65d2b6c8f2eece985d8e374c,65d2b91cc67a654a5c71c27a,0.0315,0.0315,0,15,15,1,1,onethree,,,,,,,,,,,,,,,,,,,,,,,,,,,,,,,,,,,,,,,,,,,,,,,,,,,,,,,,,,,,,,,,,,,,,,,,,,,,,,,,,,,,,,,,,,,,,,,,,,,,,,,,,,,,,,,,,,,,,,,,,,,,,,,,,,,,,,,,,
,,6139012c76a6707fb629ff55,2024-02-18_20h13.02.898,kallum_motion_pilot,2023.2.2,Win32,60.24096386,6139012c76a6707fb629ff55,65d2b6c8f2eece985d8e374c,65d2b91cc67a654a5c71c27a,0.0316,0.0316,0,16,16,112,1,fivesix,,,,,,,,,,,,,,,,,,,,,,,,,,,,,,,,,,,,,,,,,,,,,,,,,,,,,,,,,,,,,,,,,,,,,,,,,,,,,,,,,,,,,,,,,,,,,,,,,,,,,,,,,,,,,,,,,,,,,,,,,,,,,,,,,,,,,,,,,
,,6139012c76a6707fb629ff55,2024-02-18_20h13.02.898,kallum_motion_pilot,2023.2.2,Win32,60.24096386,6139012c76a6707fb629ff55,65d2b6c8f2eece985d8e374c,65d2b91cc67a654a5c71c27a,0.0316,0.0316,0,17,17,72,1,onetwo,,,,,,,,,,,,,,,,,,,,,,,,,,,,,,,,,,,,,,,,,,,,,,,,,,,,,,,,,,,,,,,,,,,,,,,,,,,,,,,,,,,,,,,,,,,,,,,,,,,,,,,,,,,,,,,,,,,,,,,,,,,,,,,,,,,,,,,,,
,,6139012c76a6707fb629ff55,2024-02-18_20h13.02.898,kallum_motion_pilot,2023.2.2,Win32,60.24096386,6139012c76a6707fb629ff55,65d2b6c8f2eece985d8e374c,65d2b91cc67a654a5c71c27a,0.0317,0.0318,0,18,18,27,1,twofour,,,,,,,,,,,,,,,,,,,,,,,,,,,,,,,,,,,,,,,,,,,,,,,,,,,,,,,,,,,,,,,,,,,,,,,,,,,,,,,,,,,,,,,,,,,,,,,,,,,,,,,,,,,,,,,,,,,,,,,,,,,,,,,,,,,,,,,,,
,,6139012c76a6707fb629ff55,2024-02-18_20h13.02.898,kallum_motion_pilot,2023.2.2,Win32,60.24096386,6139012c76a6707fb629ff55,65d2b6c8f2eece985d8e374c,65d2b91cc67a654a5c71c27a,0.0318,0.0318,0,19,19,88,1,fivesix,,,,,,,,,,,,,,,,,,,,,,,,,,,,,,,,,,,,,,,,,,,,,,,,,,,,,,,,,,,,,,,,,,,,,,,,,,,,,,,,,,,,,,,,,,,,,,,,,,,,,,,,,,,,,,,,,,,,,,,,,,,,,,,,,,,,,,,,,
,,6139012c76a6707fb629ff55,2024-02-18_20h13.02.898,kallum_motion_pilot,2023.2.2,Win32,60.24096386,6139012c76a6707fb629ff55,65d2b6c8f2eece985d8e374c,65d2b91cc67a654a5c71c27a,0.0319,0.0319,0,20,20,12,1,threeone,,,,,,,,,,,,,,,,,,,,,,,,,,,,,,,,,,,,,,,,,,,,,,,,,,,,,,,,,,,,,,,,,,,,,,,,,,,,,,,,,,,,,,,,,,,,,,,,,,,,,,,,,,,,,,,,,,,,,,,,,,,,,,,,,,,,,,,,,
,,6139012c76a6707fb629ff55,2024-02-18_20h13.02.898,kallum_motion_pilot,2023.2.2,Win32,60.24096386,6139012c76a6707fb629ff55,65d2b6c8f2eece985d8e374c,65d2b91cc67a654a5c71c27a,0.032,0.032,0,21,21,110,1,eightsix,,,,,,,,,,,,,,,,,,,,,,,,,,,,,,,,,,,,,,,,,,,,,,,,,,,,,,,,,,,,,,,,,,,,,,,,,,,,,,,,,,,,,,,,,,,,,,,,,,,,,,,,,,,,,,,,,,,,,,,,,,,,,,,,,,,,,,,,,
,,6139012c76a6707fb629ff55,2024-02-18_20h13.02.898,kallum_motion_pilot,2023.2.2,Win32,60.24096386,6139012c76a6707fb629ff55,65d2b6c8f2eece985d8e374c,65d2b91cc67a654a5c71c27a,0.032,0.0321,0,22,22,7,1,fourthree,,,,,,,,,,,,,,,,,,,,,,,,,,,,,,,,,,,,,,,,,,,,,,,,,,,,,,,,,,,,,,,,,,,,,,,,,,,,,,,,,,,,,,,,,,,,,,,,,,,,,,,,,,,,,,,,,,,,,,,,,,,,,,,,,,,,,,,,,
,,6139012c76a6707fb629ff55,2024-02-18_20h13.02.898,kallum_motion_pilot,2023.2.2,Win32,60.24096386,6139012c76a6707fb629ff55,65d2b6c8f2eece985d8e374c,65d2b91cc67a654a5c71c27a,0.0321,0.0321,0,23,23,124,1,sevenfive,,,,,,,,,,,,,,,,,,,,,,,,,,,,,,,,,,,,,,,,,,,,,,,,,,,,,,,,,,,,,,,,,,,,,,,,,,,,,,,,,,,,,,,,,,,,,,,,,,,,,,,,,,,,,,,,,,,,,,,,,,,,,,,,,,,,,,,,,
,,6139012c76a6707fb629ff55,2024-02-18_20h13.02.898,kallum_motion_pilot,2023.2.2,Win32,60.24096386,6139012c76a6707fb629ff55,65d2b6c8f2eece985d8e374c,65d2b91cc67a654a5c71c27a,0.0322,0.0322,0,24,24,153,1,fiveseven,,,,,,,,,,,,,,,,,,,,,,,,,,,,,,,,,,,,,,,,,,,,,,,,,,,,,,,,,,,,,,,,,,,,,,,,,,,,,,,,,,,,,,,,,,,,,,,,,,,,,,,,,,,,,,,,,,,,,,,,,,,,,,,,,,,,,,,,,
,,6139012c76a6707fb629ff55,2024-02-18_20h13.02.898,kallum_motion_pilot,2023.2.2,Win32,60.24096386,6139012c76a6707fb629ff55,65d2b6c8f2eece985d8e374c,65d2b91cc67a654a5c71c27a,0.0323,0.0323,0,25,25,86,1,eightsix,,,,,,,,,,,,,,,,,,,,,,,,,,,,,,,,,,,,,,,,,,,,,,,,,,,,,,,,,,,,,,,,,,,,,,,,,,,,,,,,,,,,,,,,,,,,,,,,,,,,,,,,,,,,,,,,,,,,,,,,,,,,,,,,,,,,,,,,,
,,6139012c76a6707fb629ff55,2024-02-18_20h13.02.898,kallum_motion_pilot,2023.2.2,Win32,60.24096386,6139012c76a6707fb629ff55,65d2b6c8f2eece985d8e374c,65d2b91cc67a654a5c71c27a,0.0324,0.0324,0,26,26,4,1,threeone,,,,,,,,,,,,,,,,,,,,,,,,,,,,,,,,,,,,,,,,,,,,,,,,,,,,,,,,,,,,,,,,,,,,,,,,,,,,,,,,,,,,,,,,,,,,,,,,,,,,,,,,,,,,,,,,,,,,,,,,,,,,,,,,,,,,,,,,,
,,6139012c76a6707fb629ff55,2024-02-18_20h13.02.898,kallum_motion_pilot,2023.2.2,Win32,60.24096386,6139012c76a6707fb629ff55,65d2b6c8f2eece985d8e374c,65d2b91cc67a654a5c71c27a,0.0325,0.0325,0,27,27,62,1,fourtwo,,,,,,,,,,,,,,,,,,,,,,,,,,,,,,,,,,,,,,,,,,,,,,,,,,,,,,,,,,,,,,,,,,,,,,,,,,,,,,,,,,,,,,,,,,,,,,,,,,,,,,,,,,,,,,,,,,,,,,,,,,,,,,,,,,,,,,,,,
,,6139012c76a6707fb629ff55,2024-02-18_20h13.02.898,kallum_motion_pilot,2023.2.2,Win32,60.24096386,6139012c76a6707fb629ff55,65d2b6c8f2eece985d8e374c,65d2b91cc67a654a5c71c27a,0.0326,0.0326,0,28,28,56,1,onetwo,,,,,,,,,,,,,,,,,,,,,,,,,,,,,,,,,,,,,,,,,,,,,,,,,,,,,,,,,,,,,,,,,,,,,,,,,,,,,,,,,,,,,,,,,,,,,,,,,,,,,,,,,,,,,,,,,,,,,,,,,,,,,,,,,,,,,,,,,
,,6139012c76a6707fb629ff55,2024-02-18_20h13.02.898,kallum_motion_pilot,2023.2.2,Win32,60.24096386,6139012c76a6707fb629ff55,65d2b6c8f2eece985d8e374c,65d2b91cc67a654a5c71c27a,0.0326,0.0326,0,29,29,47,1,fourthree,,,,,,,,,,,,,,,,,,,,,,,,,,,,,,,,,,,,,,,,,,,,,,,,,,,,,,,,,,,,,,,,,,,,,,,,,,,,,,,,,,,,,,,,,,,,,,,,,,,,,,,,,,,,,,,,,,,,,,,,,,,,,,,,,,,,,,,,,
,,6139012c76a6707fb629ff55,2024-02-18_20h13.02.898,kallum_motion_pilot,2023.2.2,Win32,60.24096386,6139012c76a6707fb629ff55,65d2b6c8f2eece985d8e374c,65d2b91cc67a654a5c71c27a,0.0327,0.0328,0,30,30,103,1,eightseven,,,,,,,,,,,,,,,,,,,,,,,,,,,,,,,,,,,,,,,,,,,,,,,,,,,,,,,,,,,,,,,,,,,,,,,,,,,,,,,,,,,,,,,,,,,,,,,,,,,,,,,,,,,,,,,,,,,,,,,,,,,,,,,,,,,,,,,,,
,,6139012c76a6707fb629ff55,2024-02-18_20h13.02.898,kallum_motion_pilot,2023.2.2,Win32,60.24096386,6139012c76a6707fb629ff55,65d2b6c8f2eece985d8e374c,65d2b91cc67a654a5c71c27a,0.0328,0.0328,0,31,31,121,1,fiveseven,,,,,,,,,,,,,,,,,,,,,,,,,,,,,,,,,,,,,,,,,,,,,,,,,,,,,,,,,,,,,,,,,,,,,,,,,,,,,,,,,,,,,,,,,,,,,,,,,,,,,,,,,,,,,,,,,,,,,,,,,,,,,,,,,,,,,,,,,
,,6139012c76a6707fb629ff55,2024-02-18_20h13.02.898,kallum_motion_pilot,2023.2.2,Win32,60.24096386,6139012c76a6707fb629ff55,65d2b6c8f2eece985d8e374c,65d2b91cc67a654a5c71c27a,0.0329,0.0329,0,32,32,17,1,onethree,,,,,,,,,,,,,,,,,,,,,,,,,,,,,,,,,,,,,,,,,,,,,,,,,,,,,,,,,,,,,,,,,,,,,,,,,,,,,,,,,,,,,,,,,,,,,,,,,,,,,,,,,,,,,,,,,,,,,,,,,,,,,,,,,,,,,,,,,
,,6139012c76a6707fb629ff55,2024-02-18_20h13.02.898,kallum_motion_pilot,2023.2.2,Win32,60.24096386,6139012c76a6707fb629ff55,65d2b6c8f2eece985d8e374c,65d2b91cc67a654a5c71c27a,0.033,0.033,0,33,33,65,1,onethree,,,,,,,,,,,,,,,,,,,,,,,,,,,,,,,,,,,,,,,,,,,,,,,,,,,,,,,,,,,,,,,,,,,,,,,,,,,,,,,,,,,,,,,,,,,,,,,,,,,,,,,,,,,,,,,,,,,,,,,,,,,,,,,,,,,,,,,,,
,,6139012c76a6707fb629ff55,2024-02-18_20h13.02.898,kallum_motion_pilot,2023.2.2,Win32,60.24096386,6139012c76a6707fb629ff55,65d2b6c8f2eece985d8e374c,65d2b91cc67a654a5c71c27a,0.0331,0.0331,0,34,34,55,1,fourthree,,,,,,,,,,,,,,,,,,,,,,,,,,,,,,,,,,,,,,,,,,,,,,,,,,,,,,,,,,,,,,,,,,,,,,,,,,,,,,,,,,,,,,,,,,,,,,,,,,,,,,,,,,,,,,,,,,,,,,,,,,,,,,,,,,,,,,,,,
,,6139012c76a6707fb629ff55,2024-02-18_20h13.02.898,kallum_motion_pilot,2023.2.2,Win32,60.24096386,6139012c76a6707fb629ff55,65d2b6c8f2eece985d8e374c,65d2b91cc67a654a5c71c27a,0.0331,0.0331,0,35,35,11,1,twofour,,,,,,,,,,,,,,,,,,,,,,,,,,,,,,,,,,,,,,,,,,,,,,,,,,,,,,,,,,,,,,,,,,,,,,,,,,,,,,,,,,,,,,,,,,,,,,,,,,,,,,,,,,,,,,,,,,,,,,,,,,,,,,,,,,,,,,,,,
,,6139012c76a6707fb629ff55,2024-02-18_20h13.02.898,kallum_motion_pilot,2023.2.2,Win32,60.24096386,6139012c76a6707fb629ff55,65d2b6c8f2eece985d8e374c,65d2b91cc67a654a5c71c27a,0.0332,0.0332,0,36,36,0,1,onetwo,,,,,,,,,,,,,,,,,,,,,,,,,,,,,,,,,,,,,,,,,,,,,,,,,,,,,,,,,,,,,,,,,,,,,,,,,,,,,,,,,,,,,,,,,,,,,,,,,,,,,,,,,,,,,,,,,,,,,,,,,,,,,,,,,,,,,,,,,
,,6139012c76a6707fb629ff55,2024-02-18_20h13.02.898,kallum_motion_pilot,2023.2.2,Win32,60.24096386,6139012c76a6707fb629ff55,65d2b6c8f2eece985d8e374c,65d2b91cc67a654a5c71c27a,0.0332,0.0332,0,37,37,15,1,fourthree,,,,,,,,,,,,,,,,,,,,,,,,,,,,,,,,,,,,,,,,,,,,,,,,,,,,,,,,,,,,,,,,,,,,,,,,,,,,,,,,,,,,,,,,,,,,,,,,,,,,,,,,,,,,,,,,,,,,,,,,,,,,,,,,,,,,,,,,,
,,6139012c76a6707fb629ff55,2024-02-18_20h13.02.898,kallum_motion_pilot,2023.2.2,Win32,60.24096386,6139012c76a6707fb629ff55,65d2b6c8f2eece985d8e374c,65d2b91cc67a654a5c71c27a,0.0333,0.0333,0,38,38,155,1,sixeight,,,,,,,,,,,,,,,,,,,,,,,,,,,,,,,,,,,,,,,,,,,,,,,,,,,,,,,,,,,,,,,,,,,,,,,,,,,,,,,,,,,,,,,,,,,,,,,,,,,,,,,,,,,,,,,,,,,,,,,,,,,,,,,,,,,,,,,,,
,,6139012c76a6707fb629ff55,2024-02-18_20h13.02.898,kallum_motion_pilot,2023.2.2,Win32,60.24096386,6139012c76a6707fb629ff55,65d2b6c8f2eece985d8e374c,65d2b91cc67a654a5c71c27a,0.0335,0.0335,0,39,39,32,1,onetwo,,,,,,,,,,,,,,,,,,,,,,,,,,,,,,,,,,,,,,,,,,,,,,,,,,,,,,,,,,,,,,,,,,,,,,,,,,,,,,,,,,,,,,,,,,,,,,,,,,,,,,,,,,,,,,,,,,,,,,,,,,,,,,,,,,,,,,,,,
,,6139012c76a6707fb629ff55,2024-02-18_20h13.02.898,kallum_motion_pilot,2023.2.2,Win32,60.24096386,6139012c76a6707fb629ff55,65d2b6c8f2eece985d8e374c,65d2b91cc67a654a5c71c27a,0.0335,0.0335,0,40,40,67,1,twofour,,,,,,,,,,,,,,,,,,,,,,,,,,,,,,,,,,,,,,,,,,,,,,,,,,,,,,,,,,,,,,,,,,,,,,,,,,,,,,,,,,,,,,,,,,,,,,,,,,,,,,,,,,,,,,,,,,,,,,,,,,,,,,,,,,,,,,,,,
,,6139012c76a6707fb629ff55,2024-02-18_20h13.02.898,kallum_motion_pilot,2023.2.2,Win32,60.24096386,6139012c76a6707fb629ff55,65d2b6c8f2eece985d8e374c,65d2b91cc67a654a5c71c27a,0.0336,0.0336,0,41,41,100,1,sevenfive,,,,,,,,,,,,,,,,,,,,,,,,,,,,,,,,,,,,,,,,,,,,,,,,,,,,,,,,,,,,,,,,,,,,,,,,,,,,,,,,,,,,,,,,,,,,,,,,,,,,,,,,,,,,,,,,,,,,,,,,,,,,,,,,,,,,,,,,,
,,6139012c76a6707fb629ff55,2024-02-18_20h13.02.898,kallum_motion_pilot,2023.2.2,Win32,60.24096386,6139012c76a6707fb629ff55,65d2b6c8f2eece985d8e374c,65d2b91cc67a654a5c71c27a,0.0337,0.0337,0,42,42,132,1,sevenfive,,,,,,,,,,,,,,,,,,,,,,,,,,,,,,,,,,,,,,,,,,,,,,,,,,,,,,,,,,,,,,,,,,,,,,,,,,,,,,,,,,,,,,,,,,,,,,,,,,,,,,,,,,,,,,,,,,,,,,,,,,,,,,,,,,,,,,,,,
,,6139012c76a6707fb629ff55,2024-02-18_20h13.02.898,kallum_motion_pilot,2023.2.2,Win32,60.24096386,6139012c76a6707fb629ff55,65d2b6c8f2eece985d8e374c,65d2b91cc67a654a5c71c27a,0.0338,0.0338,0,43,43,154,1,sixfive,,,,,,,,,,,,,,,,,,,,,,,,,,,,,,,,,,,,,,,,,,,,,,,,,,,,,,,,,,,,,,,,,,,,,,,,,,,,,,,,,,,,,,,,,,,,,,,,,,,,,,,,,,,,,,,,,,,,,,,,,,,,,,,,,,,,,,,,,
,,6139012c76a6707fb629ff55,2024-02-18_20h13.02.898,kallum_motion_pilot,2023.2.2,Win32,60.24096386,6139012c76a6707fb629ff55,65d2b6c8f2eece985d8e374c,65d2b91cc67a654a5c71c27a,0.0339,0.0339,0,44,44,6,1,fourtwo,,,,,,,,,,,,,,,,,,,,,,,,,,,,,,,,,,,,,,,,,,,,,,,,,,,,,,,,,,,,,,,,,,,,,,,,,,,,,,,,,,,,,,,,,,,,,,,,,,,,,,,,,,,,,,,,,,,,,,,,,,,,,,,,,,,,,,,,,
,,6139012c76a6707fb629ff55,2024-02-18_20h13.02.898,kallum_motion_pilot,2023.2.2,Win32,60.24096386,6139012c76a6707fb629ff55,65d2b6c8f2eece985d8e374c,65d2b91cc67a654a5c71c27a,0.034,0.034,0,45,45,129,1,fiveseven,,,,,,,,,,,,,,,,,,,,,,,,,,,,,,,,,,,,,,,,,,,,,,,,,,,,,,,,,,,,,,,,,,,,,,,,,,,,,,,,,,,,,,,,,,,,,,,,,,,,,,,,,,,,,,,,,,,,,,,,,,,,,,,,,,,,,,,,,
,,6139012c76a6707fb629ff55,2024-02-18_20h13.02.898,kallum_motion_pilot,2023.2.2,Win32,60.24096386,6139012c76a6707fb629ff55,65d2b6c8f2eece985d8e374c,65d2b91cc67a654a5c71c27a,0.034,0.034,0,46,46,136,1,fivesix,,,,,,,,,,,,,,,,,,,,,,,,,,,,,,,,,,,,,,,,,,,,,,,,,,,,,,,,,,,,,,,,,,,,,,,,,,,,,,,,,,,,,,,,,,,,,,,,,,,,,,,,,,,,,,,,,,,,,,,,,,,,,,,,,,,,,,,,,
,,6139012c76a6707fb629ff55,2024-02-18_20h13.02.898,kallum_motion_pilot,2023.2.2,Win32,60.24096386,6139012c76a6707fb629ff55,65d2b6c8f2eece985d8e374c,65d2b91cc67a654a5c71c27a,0.0341,0.0341,0,47,47,60,1,threeone,,,,,,,,,,,,,,,,,,,,,,,,,,,,,,,,,,,,,,,,,,,,,,,,,,,,,,,,,,,,,,,,,,,,,,,,,,,,,,,,,,,,,,,,,,,,,,,,,,,,,,,,,,,,,,,,,,,,,,,,,,,,,,,,,,,,,,,,,
,,6139012c76a6707fb629ff55,2024-02-18_20h13.02.898,kallum_motion_pilot,2023.2.2,Win32,60.24096386,6139012c76a6707fb629ff55,65d2b6c8f2eece985d8e374c,65d2b91cc67a654a5c71c27a,0.0342,0.0343,0,48,48,53,1,threefour,,,,,,,,,,,,,,,,,,,,,,,,,,,,,,,,,,,,,,,,,,,,,,,,,,,,,,,,,,,,,,,,,,,,,,,,,,,,,,,,,,,,,,,,,,,,,,,,,,,,,,,,,,,,,,,,,,,,,,,,,,,,,,,,,,,,,,,,,
,,6139012c76a6707fb629ff55,2024-02-18_20h13.02.898,kallum_motion_pilot,2023.2.2,Win32,60.24096386,6139012c76a6707fb629ff55,65d2b6c8f2eece985d8e374c,65d2b91cc67a654a5c71c27a,0.0343,0.0344,0,49,49,105,1,fiveseven,,,,,,,,,,,,,,,,,,,,,,,,,,,,,,,,,,,,,,,,,,,,,,,,,,,,,,,,,,,,,,,,,,,,,,,,,,,,,,,,,,,,,,,,,,,,,,,,,,,,,,,,,,,,,,,,,,,,,,,,,,,,,,,,,,,,,,,,,
,,6139012c76a6707fb629ff55,2024-02-18_20h13.02.898,kallum_motion_pilot,2023.2.2,Win32,60.24096386,6139012c76a6707fb629ff55,65d2b6c8f2eece985d8e374c,65d2b91cc67a654a5c71c27a,0.0344,0.0344,0,50,50,33,1,onethree,,,,,,,,,,,,,,,,,,,,,,,,,,,,,,,,,,,,,,,,,,,,,,,,,,,,,,,,,,,,,,,,,,,,,,,,,,,,,,,,,,,,,,,,,,,,,,,,,,,,,,,,,,,,,,,,,,,,,,,,,,,,,,,,,,,,,,,,,
,,6139012c76a6707fb629ff55,2024-02-18_20h13.02.898,kallum_motion_pilot,2023.2.2,Win32,60.24096386,6139012c76a6707fb629ff55,65d2b6c8f2eece985d8e374c,65d2b91cc67a654a5c71c27a,0.0345,0.0345,0,51,51,109,1,seveneight,,,,,,,,,,,,,,,,,,,,,,,,,,,,,,,,,,,,,,,,,,,,,,,,,,,,,,,,,,,,,,,,,,,,,,,,,,,,,,,,,,,,,,,,,,,,,,,,,,,,,,,,,,,,,,,,,,,,,,,,,,,,,,,,,,,,,,,,,
,,6139012c76a6707fb629ff55,2024-02-18_20h13.02.898,kallum_motion_pilot,2023.2.2,Win32,60.24096386,6139012c76a6707fb629ff55,65d2b6c8f2eece985d8e374c,65d2b91cc67a654a5c71c27a,0.0345,0.0346,0,52,52,2,1,twoone,,,,,,,,,,,,,,,,,,,,,,,,,,,,,,,,,,,,,,,,,,,,,,,,,,,,,,,,,,,,,,,,,,,,,,,,,,,,,,,,,,,,,,,,,,,,,,,,,,,,,,,,,,,,,,,,,,,,,,,,,,,,,,,,,,,,,,,,,
,,6139012c76a6707fb629ff55,2024-02-18_20h13.02.898,kallum_motion_pilot,2023.2.2,Win32,60.24096386,6139012c76a6707fb629ff55,65d2b6c8f2eece985d8e374c,65d2b91cc67a654a5c71c27a,0.0347,0.0347,0,53,53,104,1,fivesix,,,,,,,,,,,,,,,,,,,,,,,,,,,,,,,,,,,,,,,,,,,,,,,,,,,,,,,,,,,,,,,,,,,,,,,,,,,,,,,,,,,,,,,,,,,,,,,,,,,,,,,,,,,,,,,,,,,,,,,,,,,,,,,,,,,,,,,,,
,,6139012c76a6707fb629ff55,2024-02-18_20h13.02.898,kallum_motion_pilot,2023.2.2,Win32,60.24096386,6139012c76a6707fb629ff55,65d2b6c8f2eece985d8e374c,65d2b91cc67a654a5c71c27a,0.0347,0.0347,0,54,54,111,1,eightseven,,,,,,,,,,,,,,,,,,,,,,,,,,,,,,,,,,,,,,,,,,,,,,,,,,,,,,,,,,,,,,,,,,,,,,,,,,,,,,,,,,,,,,,,,,,,,,,,,,,,,,,,,,,,,,,,,,,,,,,,,,,,,,,,,,,,,,,,,
,,6139012c76a6707fb629ff55,2024-02-18_20h13.02.898,kallum_motion_pilot,2023.2.2,Win32,60.24096386,6139012c76a6707fb629ff55,65d2b6c8f2eece985d8e374c,65d2b91cc67a654a5c71c27a,0.0348,0.0348,0,55,55,69,1,threefour,,,,,,,,,,,,,,,,,,,,,,,,,,,,,,,,,,,,,,,,,,,,,,,,,,,,,,,,,,,,,,,,,,,,,,,,,,,,,,,,,,,,,,,,,,,,,,,,,,,,,,,,,,,,,,,,,,,,,,,,,,,,,,,,,,,,,,,,,
,,6139012c76a6707fb629ff55,2024-02-18_20h13.02.898,kallum_motion_pilot,2023.2.2,Win32,60.24096386,6139012c76a6707fb629ff55,65d2b6c8f2eece985d8e374c,65d2b91cc67a654a5c71c27a,0.0349,0.0349,0,56,56,54,1,fourtwo,,,,,,,,,,,,,,,,,,,,,,,,,,,,,,,,,,,,,,,,,,,,,,,,,,,,,,,,,,,,,,,,,,,,,,,,,,,,,,,,,,,,,,,,,,,,,,,,,,,,,,,,,,,,,,,,,,,,,,,,,,,,,,,,,,,,,,,,,
,,6139012c76a6707fb629ff55,2024-02-18_20h13.02.898,kallum_motion_pilot,2023.2.2,Win32,60.24096386,6139012c76a6707fb629ff55,65d2b6c8f2eece985d8e374c,65d2b91cc67a654a5c71c27a,0.035,0.035,0,57,57,80,1,fivesix,,,,,,,,,,,,,,,,,,,,,,,,,,,,,,,,,,,,,,,,,,,,,,,,,,,,,,,,,,,,,,,,,,,,,,,,,,,,,,,,,,,,,,,,,,,,,,,,,,,,,,,,,,,,,,,,,,,,,,,,,,,,,,,,,,,,,,,,,
,,6139012c76a6707fb629ff55,2024-02-18_20h13.02.898,kallum_motion_pilot,2023.2.2,Win32,60.24096386,6139012c76a6707fb629ff55,65d2b6c8f2eece985d8e374c,65d2b91cc67a654a5c71c27a,0.0351,0.0351,0,58,58,75,1,twofour,,,,,,,,,,,,,,,,,,,,,,,,,,,,,,,,,,,,,,,,,,,,,,,,,,,,,,,,,,,,,,,,,,,,,,,,,,,,,,,,,,,,,,,,,,,,,,,,,,,,,,,,,,,,,,,,,,,,,,,,,,,,,,,,,,,,,,,,,
,,6139012c76a6707fb629ff55,2024-02-18_20h13.02.898,kallum_motion_pilot,2023.2.2,Win32,60.24096386,6139012c76a6707fb629ff55,65d2b6c8f2eece985d8e374c,65d2b91cc67a654a5c71c27a,0.0352,0.0353,0,59,59,78,1,fourtwo,,,,,,,,,,,,,,,,,,,,,,,,,,,,,,,,,,,,,,,,,,,,,,,,,,,,,,,,,,,,,,,,,,,,,,,,,,,,,,,,,,,,,,,,,,,,,,,,,,,,,,,,,,,,,,,,,,,,,,,,,,,,,,,,,,,,,,,,,
,,6139012c76a6707fb629ff55,2024-02-18_20h13.02.898,kallum_motion_pilot,2023.2.2,Win32,60.24096386,6139012c76a6707fb629ff55,65d2b6c8f2eece985d8e374c,65d2b91cc67a654a5c71c27a,0.0353,0.0353,0,60,60,123,1,sixeight,,,,,,,,,,,,,,,,,,,,,,,,,,,,,,,,,,,,,,,,,,,,,,,,,,,,,,,,,,,,,,,,,,,,,,,,,,,,,,,,,,,,,,,,,,,,,,,,,,,,,,,,,,,,,,,,,,,,,,,,,,,,,,,,,,,,,,,,,
,,6139012c76a6707fb629ff55,2024-02-18_20h13.02.898,kallum_motion_pilot,2023.2.2,Win32,60.24096386,6139012c76a6707fb629ff55,65d2b6c8f2eece985d8e374c,65d2b91cc67a654a5c71c27a,0.0354,0.0354,0,61,61,82,1,sixfive,,,,,,,,,,,,,,,,,,,,,,,,,,,,,,,,,,,,,,,,,,,,,,,,,,,,,,,,,,,,,,,,,,,,,,,,,,,,,,,,,,,,,,,,,,,,,,,,,,,,,,,,,,,,,,,,,,,,,,,,,,,,,,,,,,,,,,,,,
,,6139012c76a6707fb629ff55,2024-02-18_20h13.02.898,kallum_motion_pilot,2023.2.2,Win32,60.24096386,6139012c76a6707fb629ff55,65d2b6c8f2eece985d8e374c,65d2b91cc67a654a5c71c27a,0.0354,0.0354,0,62,62,102,1,eightsix,,,,,,,,,,,,,,,,,,,,,,,,,,,,,,,,,,,,,,,,,,,,,,,,,,,,,,,,,,,,,,,,,,,,,,,,,,,,,,,,,,,,,,,,,,,,,,,,,,,,,,,,,,,,,,,,,,,,,,,,,,,,,,,,,,,,,,,,,
,,6139012c76a6707fb629ff55,2024-02-18_20h13.02.898,kallum_motion_pilot,2023.2.2,Win32,60.24096386,6139012c76a6707fb629ff55,65d2b6c8f2eece985d8e374c,65d2b91cc67a654a5c71c27a,0.0356,0.0356,0,63,63,139,1,sixeight,,,,,,,,,,,,,,,,,,,,,,,,,,,,,,,,,,,,,,,,,,,,,,,,,,,,,,,,,,,,,,,,,,,,,,,,,,,,,,,,,,,,,,,,,,,,,,,,,,,,,,,,,,,,,,,,,,,,,,,,,,,,,,,,,,,,,,,,,
,,6139012c76a6707fb629ff55,2024-02-18_20h13.02.898,kallum_motion_pilot,2023.2.2,Win32,60.24096386,6139012c76a6707fb629ff55,65d2b6c8f2eece985d8e374c,65d2b91cc67a654a5c71c27a,0.0357,0.0357,0,64,64,137,1,fiveseven,,,,,,,,,,,,,,,,,,,,,,,,,,,,,,,,,,,,,,,,,,,,,,,,,,,,,,,,,,,,,,,,,,,,,,,,,,,,,,,,,,,,,,,,,,,,,,,,,,,,,,,,,,,,,,,,,,,,,,,,,,,,,,,,,,,,,,,,,
,,6139012c76a6707fb629ff55,2024-02-18_20h13.02.898,kallum_motion_pilot,2023.2.2,Win32,60.24096386,6139012c76a6707fb629ff55,65d2b6c8f2eece985d8e374c,65d2b91cc67a654a5c71c27a,0.0358,0.0358,0,65,65,3,1,twofour,,,,,,,,,,,,,,,,,,,,,,,,,,,,,,,,,,,,,,,,,,,,,,,,,,,,,,,,,,,,,,,,,,,,,,,,,,,,,,,,,,,,,,,,,,,,,,,,,,,,,,,,,,,,,,,,,,,,,,,,,,,,,,,,,,,,,,,,,
,,6139012c76a6707fb629ff55,2024-02-18_20h13.02.898,kallum_motion_pilot,2023.2.2,Win32,60.24096386,6139012c76a6707fb629ff55,65d2b6c8f2eece985d8e374c,65d2b91cc67a654a5c71c27a,0.0359,0.0359,0,66,66,74,1,twoone,,,,,,,,,,,,,,,,,,,,,,,,,,,,,,,,,,,,,,,,,,,,,,,,,,,,,,,,,,,,,,,,,,,,,,,,,,,,,,,,,,,,,,,,,,,,,,,,,,,,,,,,,,,,,,,,,,,,,,,,,,,,,,,,,,,,,,,,,
,,6139012c76a6707fb629ff55,2024-02-18_20h13.02.898,kallum_motion_pilot,2023.2.2,Win32,60.24096386,6139012c76a6707fb629ff55,65d2b6c8f2eece985d8e374c,65d2b91cc67a654a5c71c27a,0.036,0.036,0,67,67,39,1,fourthree,,,,,,,,,,,,,,,,,,,,,,,,,,,,,,,,,,,,,,,,,,,,,,,,,,,,,,,,,,,,,,,,,,,,,,,,,,,,,,,,,,,,,,,,,,,,,,,,,,,,,,,,,,,,,,,,,,,,,,,,,,,,,,,,,,,,,,,,,
,,6139012c76a6707fb629ff55,2024-02-18_20h13.02.898,kallum_motion_pilot,2023.2.2,Win32,60.24096386,6139012c76a6707fb629ff55,65d2b6c8f2eece985d8e374c,65d2b91cc67a654a5c71c27a,0.0361,0.0361,0,68,68,145,1,fiveseven,,,,,,,,,,,,,,,,,,,,,,,,,,,,,,,,,,,,,,,,,,,,,,,,,,,,,,,,,,,,,,,,,,,,,,,,,,,,,,,,,,,,,,,,,,,,,,,,,,,,,,,,,,,,,,,,,,,,,,,,,,,,,,,,,,,,,,,,,
,,6139012c76a6707fb629ff55,2024-02-18_20h13.02.898,kallum_motion_pilot,2023.2.2,Win32,60.24096386,6139012c76a6707fb629ff55,65d2b6c8f2eece985d8e374c,65d2b91cc67a654a5c71c27a,0.0362,0.0362,0,69,69,57,1,onethree,,,,,,,,,,,,,,,,,,,,,,,,,,,,,,,,,,,,,,,,,,,,,,,,,,,,,,,,,,,,,,,,,,,,,,,,,,,,,,,,,,,,,,,,,,,,,,,,,,,,,,,,,,,,,,,,,,,,,,,,,,,,,,,,,,,,,,,,,
,,6139012c76a6707fb629ff55,2024-02-18_20h13.02.898,kallum_motion_pilot,2023.2.2,Win32,60.24096386,6139012c76a6707fb629ff55,65d2b6c8f2eece985d8e374c,65d2b91cc67a654a5c71c27a,0.0363,0.0364,0,70,70,24,1,onetwo,,,,,,,,,,,,,,,,,,,,,,,,,,,,,,,,,,,,,,,,,,,,,,,,,,,,,,,,,,,,,,,,,,,,,,,,,,,,,,,,,,,,,,,,,,,,,,,,,,,,,,,,,,,,,,,,,,,,,,,,,,,,,,,,,,,,,,,,,
,,6139012c76a6707fb629ff55,2024-02-18_20h13.02.898,kallum_motion_pilot,2023.2.2,Win32,60.24096386,6139012c76a6707fb629ff55,65d2b6c8f2eece985d8e374c,65d2b91cc67a654a5c71c27a,0.0364,0.0364,0,71,71,73,1,onethree,,,,,,,,,,,,,,,,,,,,,,,,,,,,,,,,,,,,,,,,,,,,,,,,,,,,,,,,,,,,,,,,,,,,,,,,,,,,,,,,,,,,,,,,,,,,,,,,,,,,,,,,,,,,,,,,,,,,,,,,,,,,,,,,,,,,,,,,,
,,6139012c76a6707fb629ff55,2024-02-18_20h13.02.898,kallum_motion_pilot,2023.2.2,Win32,60.24096386,6139012c76a6707fb629ff55,65d2b6c8f2eece985d8e374c,65d2b91cc67a654a5c71c27a,0.0365,0.0365,0,72,72,68,1,threeone,,,,,,,,,,,,,,,,,,,,,,,,,,,,,,,,,,,,,,,,,,,,,,,,,,,,,,,,,,,,,,,,,,,,,,,,,,,,,,,,,,,,,,,,,,,,,,,,,,,,,,,,,,,,,,,,,,,,,,,,,,,,,,,,,,,,,,,,,
,,6139012c76a6707fb629ff55,2024-02-18_20h13.02.898,kallum_motion_pilot,2023.2.2,Win32,60.24096386,6139012c76a6707fb629ff55,65d2b6c8f2eece985d8e374c,65d2b91cc67a654a5c71c27a,0.0366,0.0366,0,73,73,94,1,eightsix,,,,,,,,,,,,,,,,,,,,,,,,,,,,,,,,,,,,,,,,,,,,,,,,,,,,,,,,,,,,,,,,,,,,,,,,,,,,,,,,,,,,,,,,,,,,,,,,,,,,,,,,,,,,,,,,,,,,,,,,,,,,,,,,,,,,,,,,,
,,6139012c76a6707fb629ff55,2024-02-18_20h13.02.898,kallum_motion_pilot,2023.2.2,Win32,60.24096386,6139012c76a6707fb629ff55,65d2b6c8f2eece985d8e374c,65d2b91cc67a654a5c71c27a,0.0366,0.0367,0,74,74,141,1,seveneight,,,,,,,,,,,,,,,,,,,,,,,,,,,,,,,,,,,,,,,,,,,,,,,,,,,,,,,,,,,,,,,,,,,,,,,,,,,,,,,,,,,,,,,,,,,,,,,,,,,,,,,,,,,,,,,,,,,,,,,,,,,,,,,,,,,,,,,,,
,,6139012c76a6707fb629ff55,2024-02-18_20h13.02.898,kallum_motion_pilot,2023.2.2,Win32,60.24096386,6139012c76a6707fb629ff55,65d2b6c8f2eece985d8e374c,65d2b91cc67a654a5c71c27a,0.0368,0.0368,0,75,75,13,1,threefour,,,,,,,,,,,,,,,,,,,,,,,,,,,,,,,,,,,,,,,,,,,,,,,,,,,,,,,,,,,,,,,,,,,,,,,,,,,,,,,,,,,,,,,,,,,,,,,,,,,,,,,,,,,,,,,,,,,,,,,,,,,,,,,,,,,,,,,,,
,,6139012c76a6707fb629ff55,2024-02-18_20h13.02.898,kallum_motion_pilot,2023.2.2,Win32,60.24096386,6139012c76a6707fb629ff55,65d2b6c8f2eece985d8e374c,65d2b91cc67a654a5c71c27a,0.0368,0.0369,0,76,76,159,1,eightseven,,,,,,,,,,,,,,,,,,,,,,,,,,,,,,,,,,,,,,,,,,,,,,,,,,,,,,,,,,,,,,,,,,,,,,,,,,,,,,,,,,,,,,,,,,,,,,,,,,,,,,,,,,,,,,,,,,,,,,,,,,,,,,,,,,,,,,,,,
,,6139012c76a6707fb629ff55,2024-02-18_20h13.02.898,kallum_motion_pilot,2023.2.2,Win32,60.24096386,6139012c76a6707fb629ff55,65d2b6c8f2eece985d8e374c,65d2b91cc67a654a5c71c27a,0.0369,0.037,0,77,77,134,1,eightsix,,,,,,,,,,,,,,,,,,,,,,,,,,,,,,,,,,,,,,,,,,,,,,,,,,,,,,,,,,,,,,,,,,,,,,,,,,,,,,,,,,,,,,,,,,,,,,,,,,,,,,,,,,,,,,,,,,,,,,,,,,,,,,,,,,,,,,,,,
,,6139012c76a6707fb629ff55,2024-02-18_20h13.02.898,kallum_motion_pilot,2023.2.2,Win32,60.24096386,6139012c76a6707fb629ff55,65d2b6c8f2eece985d8e374c,65d2b91cc67a654a5c71c27a,0.0371,0.0371,0,78,78,149,1,seveneight,,,,,,,,,,,,,,,,,,,,,,,,,,,,,,,,,,,,,,,,,,,,,,,,,,,,,,,,,,,,,,,,,,,,,,,,,,,,,,,,,,,,,,,,,,,,,,,,,,,,,,,,,,,,,,,,,,,,,,,,,,,,,,,,,,,,,,,,,
,,6139012c76a6707fb629ff55,2024-02-18_20h13.02.898,kallum_motion_pilot,2023.2.2,Win32,60.24096386,6139012c76a6707fb629ff55,65d2b6c8f2eece985d8e374c,65d2b91cc67a654a5c71c27a,0.0372,0.0372,0,79,79,8,1,onetwo,,,,,,,,,,,,,,,,,,,,,,,,,,,,,,,,,,,,,,,,,,,,,,,,,,,,,,,,,,,,,,,,,,,,,,,,,,,,,,,,,,,,,,,,,,,,,,,,,,,,,,,,,,,,,,,,,,,,,,,,,,,,,,,,,,,,,,,,,
,,6139012c76a6707fb629ff55,2024-02-18_20h13.02.898,kallum_motion_pilot,2023.2.2,Win32,60.24096386,6139012c76a6707fb629ff55,65d2b6c8f2eece985d8e374c,65d2b91cc67a654a5c71c27a,0.0373,0.0373,0,80,80,106,1,sixfive,,,,,,,,,,,,,,,,,,,,,,,,,,,,,,,,,,,,,,,,,,,,,,,,,,,,,,,,,,,,,,,,,,,,,,,,,,,,,,,,,,,,,,,,,,,,,,,,,,,,,,,,,,,,,,,,,,,,,,,,,,,,,,,,,,,,,,,,,
,,6139012c76a6707fb629ff55,2024-02-18_20h13.02.898,kallum_motion_pilot,2023.2.2,Win32,60.24096386,6139012c76a6707fb629ff55,65d2b6c8f2eece985d8e374c,65d2b91cc67a654a5c71c27a,0.0373,0.0373,0,81,81,91,1,sixeight,,,,,,,,,,,,,,,,,,,,,,,,,,,,,,,,,,,,,,,,,,,,,,,,,,,,,,,,,,,,,,,,,,,,,,,,,,,,,,,,,,,,,,,,,,,,,,,,,,,,,,,,,,,,,,,,,,,,,,,,,,,,,,,,,,,,,,,,,
,,6139012c76a6707fb629ff55,2024-02-18_20h13.02.898,kallum_motion_pilot,2023.2.2,Win32,60.24096386,6139012c76a6707fb629ff55,65d2b6c8f2eece985d8e374c,65d2b91cc67a654a5c71c27a,0.0374,0.0374,0,82,82,128,1,fivesix,,,,,,,,,,,,,,,,,,,,,,,,,,,,,,,,,,,,,,,,,,,,,,,,,,,,,,,,,,,,,,,,,,,,,,,,,,,,,,,,,,,,,,,,,,,,,,,,,,,,,,,,,,,,,,,,,,,,,,,,,,,,,,,,,,,,,,,,,
,,6139012c76a6707fb629ff55,2024-02-18_20h13.02.898,kallum_motion_pilot,2023.2.2,Win32,60.24096386,6139012c76a6707fb629ff55,65d2b6c8f2eece985d8e374c,65d2b91cc67a654a5c71c27a,0.0375,0.0375,0,83,83,50,1,twoone,,,,,,,,,,,,,,,,,,,,,,,,,,,,,,,,,,,,,,,,,,,,,,,,,,,,,,,,,,,,,,,,,,,,,,,,,,,,,,,,,,,,,,,,,,,,,,,,,,,,,,,,,,,,,,,,,,,,,,,,,,,,,,,,,,,,,,,,,
,,6139012c76a6707fb629ff55,2024-02-18_20h13.02.898,kallum_motion_pilot,2023.2.2,Win32,60.24096386,6139012c76a6707fb629ff55,65d2b6c8f2eece985d8e374c,65d2b91cc67a654a5c71c27a,0.0377,0.0377,0,84,84,150,1,eightsix,,,,,,,,,,,,,,,,,,,,,,,,,,,,,,,,,,,,,,,,,,,,,,,,,,,,,,,,,,,,,,,,,,,,,,,,,,,,,,,,,,,,,,,,,,,,,,,,,,,,,,,,,,,,,,,,,,,,,,,,,,,,,,,,,,,,,,,,,
,,6139012c76a6707fb629ff55,2024-02-18_20h13.02.898,kallum_motion_pilot,2023.2.2,Win32,60.24096386,6139012c76a6707fb629ff55,65d2b6c8f2eece985d8e374c,65d2b91cc67a654a5c71c27a,0.0377,0.0377,0,85,85,5,1,threefour,,,,,,,,,,,,,,,,,,,,,,,,,,,,,,,,,,,,,,,,,,,,,,,,,,,,,,,,,,,,,,,,,,,,,,,,,,,,,,,,,,,,,,,,,,,,,,,,,,,,,,,,,,,,,,,,,,,,,,,,,,,,,,,,,,,,,,,,,
,,6139012c76a6707fb629ff55,2024-02-18_20h13.02.898,kallum_motion_pilot,2023.2.2,Win32,60.24096386,6139012c76a6707fb629ff55,65d2b6c8f2eece985d8e374c,65d2b91cc67a654a5c71c27a,0.0378,0.0379,0,86,86,85,1,seveneight,,,,,,,,,,,,,,,,,,,,,,,,,,,,,,,,,,,,,,,,,,,,,,,,,,,,,,,,,,,,,,,,,,,,,,,,,,,,,,,,,,,,,,,,,,,,,,,,,,,,,,,,,,,,,,,,,,,,,,,,,,,,,,,,,,,,,,,,,
,,6139012c76a6707fb629ff55,2024-02-18_20h13.02.898,kallum_motion_pilot,2023.2.2,Win32,60.24096386,6139012c76a6707fb629ff55,65d2b6c8f2eece985d8e374c,65d2b91cc67a654a5c71c27a,0.0379,0.038,0,87,87,115,1,sixeight,,,,,,,,,,,,,,,,,,,,,,,,,,,,,,,,,,,,,,,,,,,,,,,,,,,,,,,,,,,,,,,,,,,,,,,,,,,,,,,,,,,,,,,,,,,,,,,,,,,,,,,,,,,,,,,,,,,,,,,,,,,,,,,,,,,,,,,,,
,,6139012c76a6707fb629ff55,2024-02-18_20h13.02.898,kallum_motion_pilot,2023.2.2,Win32,60.24096386,6139012c76a6707fb629ff55,65d2b6c8f2eece985d8e374c,65d2b91cc67a654a5c71c27a,0.038,0.038,0,88,88,125,1,seveneight,,,,,,,,,,,,,,,,,,,,,,,,,,,,,,,,,,,,,,,,,,,,,,,,,,,,,,,,,,,,,,,,,,,,,,,,,,,,,,,,,,,,,,,,,,,,,,,,,,,,,,,,,,,,,,,,,,,,,,,,,,,,,,,,,,,,,,,,,
,,6139012c76a6707fb629ff55,2024-02-18_20h13.02.898,kallum_motion_pilot,2023.2.2,Win32,60.24096386,6139012c76a6707fb629ff55,65d2b6c8f2eece985d8e374c,65d2b91cc67a654a5c71c27a,0.0381,0.0382,0,89,89,35,1,twofour,,,,,,,,,,,,,,,,,,,,,,,,,,,,,,,,,,,,,,,,,,,,,,,,,,,,,,,,,,,,,,,,,,,,,,,,,,,,,,,,,,,,,,,,,,,,,,,,,,,,,,,,,,,,,,,,,,,,,,,,,,,,,,,,,,,,,,,,,
,,6139012c76a6707fb629ff55,2024-02-18_20h13.02.898,kallum_motion_pilot,2023.2.2,Win32,60.24096386,6139012c76a6707fb629ff55,65d2b6c8f2eece985d8e374c,65d2b91cc67a654a5c71c27a,0.0382,0.0383,0,90,90,138,1,sixfive,,,,,,,,,,,,,,,,,,,,,,,,,,,,,,,,,,,,,,,,,,,,,,,,,,,,,,,,,,,,,,,,,,,,,,,,,,,,,,,,,,,,,,,,,,,,,,,,,,,,,,,,,,,,,,,,,,,,,,,,,,,,,,,,,,,,,,,,,
,,6139012c76a6707fb629ff55,2024-02-18_20h13.02.898,kallum_motion_pilot,2023.2.2,Win32,60.24096386,6139012c76a6707fb629ff55,65d2b6c8f2eece985d8e374c,65d2b91cc67a654a5c71c27a,0.0384,0.0384,0,91,91,29,1,threefour,,,,,,,,,,,,,,,,,,,,,,,,,,,,,,,,,,,,,,,,,,,,,,,,,,,,,,,,,,,,,,,,,,,,,,,,,,,,,,,,,,,,,,,,,,,,,,,,,,,,,,,,,,,,,,,,,,,,,,,,,,,,,,,,,,,,,,,,,
,,6139012c76a6707fb629ff55,2024-02-18_20h13.02.898,kallum_motion_pilot,2023.2.2,Win32,60.24096386,6139012c76a6707fb629ff55,65d2b6c8f2eece985d8e374c,65d2b91cc67a654a5c71c27a,0.0386,0.0386,0,92,92,28,1,threeone,,,,,,,,,,,,,,,,,,,,,,,,,,,,,,,,,,,,,,,,,,,,,,,,,,,,,,,,,,,,,,,,,,,,,,,,,,,,,,,,,,,,,,,,,,,,,,,,,,,,,,,,,,,,,,,,,,,,,,,,,,,,,,,,,,,,,,,,,
,,6139012c76a6707fb629ff55,2024-02-18_20h13.02.898,kallum_motion_pilot,2023.2.2,Win32,60.24096386,6139012c76a6707fb629ff55,65d2b6c8f2eece985d8e374c,65d2b91cc67a654a5c71c27a,0.0386,0.0387,0,93,93,43,1,twofour,,,,,,,,,,,,,,,,,,,,,,,,,,,,,,,,,,,,,,,,,,,,,,,,,,,,,,,,,,,,,,,,,,,,,,,,,,,,,,,,,,,,,,,,,,,,,,,,,,,,,,,,,,,,,,,,,,,,,,,,,,,,,,,,,,,,,,,,,
,,6139012c76a6707fb629ff55,2024-02-18_20h13.02.898,kallum_motion_pilot,2023.2.2,Win32,60.24096386,6139012c76a6707fb629ff55,65d2b6c8f2eece985d8e374c,65d2b91cc67a654a5c71c27a,0.0387,0.0388,0,94,94,16,1,onetwo,,,,,,,,,,,,,,,,,,,,,,,,,,,,,,,,,,,,,,,,,,,,,,,,,,,,,,,,,,,,,,,,,,,,,,,,,,,,,,,,,,,,,,,,,,,,,,,,,,,,,,,,,,,,,,,,,,,,,,,,,,,,,,,,,,,,,,,,,
,,6139012c76a6707fb629ff55,2024-02-18_20h13.02.898,kallum_motion_pilot,2023.2.2,Win32,60.24096386,6139012c76a6707fb629ff55,65d2b6c8f2eece985d8e374c,65d2b91cc67a654a5c71c27a,0.039,0.039,0,95,95,19,1,twofour,,,,,,,,,,,,,,,,,,,,,,,,,,,,,,,,,,,,,,,,,,,,,,,,,,,,,,,,,,,,,,,,,,,,,,,,,,,,,,,,,,,,,,,,,,,,,,,,,,,,,,,,,,,,,,,,,,,,,,,,,,,,,,,,,,,,,,,,,
,,6139012c76a6707fb629ff55,2024-02-18_20h13.02.898,kallum_motion_pilot,2023.2.2,Win32,60.24096386,6139012c76a6707fb629ff55,65d2b6c8f2eece985d8e374c,65d2b91cc67a654a5c71c27a,0.0392,0.0394,0,96,96,116,1,sevenfive,,,,,,,,,,,,,,,,,,,,,,,,,,,,,,,,,,,,,,,,,,,,,,,,,,,,,,,,,,,,,,,,,,,,,,,,,,,,,,,,,,,,,,,,,,,,,,,,,,,,,,,,,,,,,,,,,,,,,,,,,,,,,,,,,,,,,,,,,
,,6139012c76a6707fb629ff55,2024-02-18_20h13.02.898,kallum_motion_pilot,2023.2.2,Win32,60.24096386,6139012c76a6707fb629ff55,65d2b6c8f2eece985d8e374c,65d2b91cc67a654a5c71c27a,0.0395,0.0397,0,97,97,44,1,threeone,,,,,,,,,,,,,,,,,,,,,,,,,,,,,,,,,,,,,,,,,,,,,,,,,,,,,,,,,,,,,,,,,,,,,,,,,,,,,,,,,,,,,,,,,,,,,,,,,,,,,,,,,,,,,,,,,,,,,,,,,,,,,,,,,,,,,,,,,
,,6139012c76a6707fb629ff55,2024-02-18_20h13.02.898,kallum_motion_pilot,2023.2.2,Win32,60.24096386,6139012c76a6707fb629ff55,65d2b6c8f2eece985d8e374c,65d2b91cc67a654a5c71c27a,0.0398,0.0398,0,98,98,95,1,eightseven,,,,,,,,,,,,,,,,,,,,,,,,,,,,,,,,,,,,,,,,,,,,,,,,,,,,,,,,,,,,,,,,,,,,,,,,,,,,,,,,,,,,,,,,,,,,,,,,,,,,,,,,,,,,,,,,,,,,,,,,,,,,,,,,,,,,,,,,,
,,6139012c76a6707fb629ff55,2024-02-18_20h13.02.898,kallum_motion_pilot,2023.2.2,Win32,60.24096386,6139012c76a6707fb629ff55,65d2b6c8f2eece985d8e374c,65d2b91cc67a654a5c71c27a,0.0401,0.0402,0,99,99,45,1,threefour,,,,,,,,,,,,,,,,,,,,,,,,,,,,,,,,,,,,,,,,,,,,,,,,,,,,,,,,,,,,,,,,,,,,,,,,,,,,,,,,,,,,,,,,,,,,,,,,,,,,,,,,,,,,,,,,,,,,,,,,,,,,,,,,,,,,,,,,,
,,6139012c76a6707fb629ff55,2024-02-18_20h13.02.898,kallum_motion_pilot,2023.2.2,Win32,60.24096386,6139012c76a6707fb629ff55,65d2b6c8f2eece985d8e374c,65d2b91cc67a654a5c71c27a,0.0403,0.0403,0,100,100,151,1,eightseven,,,,,,,,,,,,,,,,,,,,,,,,,,,,,,,,,,,,,,,,,,,,,,,,,,,,,,,,,,,,,,,,,,,,,,,,,,,,,,,,,,,,,,,,,,,,,,,,,,,,,,,,,,,,,,,,,,,,,,,,,,,,,,,,,,,,,,,,,
,,6139012c76a6707fb629ff55,2024-02-18_20h13.02.898,kallum_motion_pilot,2023.2.2,Win32,60.24096386,6139012c76a6707fb629ff55,65d2b6c8f2eece985d8e374c,65d2b91cc67a654a5c71c27a,0.0404,0.0405,0,101,101,70,1,fourtwo,,,,,,,,,,,,,,,,,,,,,,,,,,,,,,,,,,,,,,,,,,,,,,,,,,,,,,,,,,,,,,,,,,,,,,,,,,,,,,,,,,,,,,,,,,,,,,,,,,,,,,,,,,,,,,,,,,,,,,,,,,,,,,,,,,,,,,,,,
,,6139012c76a6707fb629ff55,2024-02-18_20h13.02.898,kallum_motion_pilot,2023.2.2,Win32,60.24096386,6139012c76a6707fb629ff55,65d2b6c8f2eece985d8e374c,65d2b91cc67a654a5c71c27a,0.0406,0.0406,0,102,102,77,1,threefour,,,,,,,,,,,,,,,,,,,,,,,,,,,,,,,,,,,,,,,,,,,,,,,,,,,,,,,,,,,,,,,,,,,,,,,,,,,,,,,,,,,,,,,,,,,,,,,,,,,,,,,,,,,,,,,,,,,,,,,,,,,,,,,,,,,,,,,,,
,,6139012c76a6707fb629ff55,2024-02-18_20h13.02.898,kallum_motion_pilot,2023.2.2,Win32,60.24096386,6139012c76a6707fb629ff55,65d2b6c8f2eece985d8e374c,65d2b91cc67a654a5c71c27a,0.0407,0.0407,0,103,103,22,1,fourtwo,,,,,,,,,,,,,,,,,,,,,,,,,,,,,,,,,,,,,,,,,,,,,,,,,,,,,,,,,,,,,,,,,,,,,,,,,,,,,,,,,,,,,,,,,,,,,,,,,,,,,,,,,,,,,,,,,,,,,,,,,,,,,,,,,,,,,,,,,
,,6139012c76a6707fb629ff55,2024-02-18_20h13.02.898,kallum_motion_pilot,2023.2.2,Win32,60.24096386,6139012c76a6707fb629ff55,65d2b6c8f2eece985d8e374c,65d2b91cc67a654a5c71c27a,0.0408,0.0408,0,104,104,96,1,fivesix,,,,,,,,,,,,,,,,,,,,,,,,,,,,,,,,,,,,,,,,,,,,,,,,,,,,,,,,,,,,,,,,,,,,,,,,,,,,,,,,,,,,,,,,,,,,,,,,,,,,,,,,,,,,,,,,,,,,,,,,,,,,,,,,,,,,,,,,,
,,6139012c76a6707fb629ff55,2024-02-18_20h13.02.898,kallum_motion_pilot,2023.2.2,Win32,60.24096386,6139012c76a6707fb629ff55,65d2b6c8f2eece985d8e374c,65d2b91cc67a654a5c71c27a,0.041,0.041,0,105,105,10,1,twoone,,,,,,,,,,,,,,,,,,,,,,,,,,,,,,,,,,,,,,,,,,,,,,,,,,,,,,,,,,,,,,,,,,,,,,,,,,,,,,,,,,,,,,,,,,,,,,,,,,,,,,,,,,,,,,,,,,,,,,,,,,,,,,,,,,,,,,,,,
,,6139012c76a6707fb629ff55,2024-02-18_20h13.02.898,kallum_motion_pilot,2023.2.2,Win32,60.24096386,6139012c76a6707fb629ff55,65d2b6c8f2eece985d8e374c,65d2b91cc67a654a5c71c27a,0.0411,0.0412,0,106,106,152,1,fivesix,,,,,,,,,,,,,,,,,,,,,,,,,,,,,,,,,,,,,,,,,,,,,,,,,,,,,,,,,,,,,,,,,,,,,,,,,,,,,,,,,,,,,,,,,,,,,,,,,,,,,,,,,,,,,,,,,,,,,,,,,,,,,,,,,,,,,,,,,
,,6139012c76a6707fb629ff55,2024-02-18_20h13.02.898,kallum_motion_pilot,2023.2.2,Win32,60.24096386,6139012c76a6707fb629ff55,65d2b6c8f2eece985d8e374c,65d2b91cc67a654a5c71c27a,0.0412,0.0412,0,107,107,161,1,fiveseven,,,,,,,,,,,,,,,,,,,,,,,,,,,,,,,,,,,,,,,,,,,,,,,,,,,,,,,,,,,,,,,,,,,,,,,,,,,,,,,,,,,,,,,,,,,,,,,,,,,,,,,,,,,,,,,,,,,,,,,,,,,,,,,,,,,,,,,,,
,,6139012c76a6707fb629ff55,2024-02-18_20h13.02.898,kallum_motion_pilot,2023.2.2,Win32,60.24096386,6139012c76a6707fb629ff55,65d2b6c8f2eece985d8e374c,65d2b91cc67a654a5c71c27a,0.0413,0.0414,0,108,108,81,1,fiveseven,,,,,,,,,,,,,,,,,,,,,,,,,,,,,,,,,,,,,,,,,,,,,,,,,,,,,,,,,,,,,,,,,,,,,,,,,,,,,,,,,,,,,,,,,,,,,,,,,,,,,,,,,,,,,,,,,,,,,,,,,,,,,,,,,,,,,,,,,
,,6139012c76a6707fb629ff55,2024-02-18_20h13.02.898,kallum_motion_pilot,2023.2.2,Win32,60.24096386,6139012c76a6707fb629ff55,65d2b6c8f2eece985d8e374c,65d2b91cc67a654a5c71c27a,0.0414,0.0414,0,109,109,23,1,fourthree,,,,,,,,,,,,,,,,,,,,,,,,,,,,,,,,,,,,,,,,,,,,,,,,,,,,,,,,,,,,,,,,,,,,,,,,,,,,,,,,,,,,,,,,,,,,,,,,,,,,,,,,,,,,,,,,,,,,,,,,,,,,,,,,,,,,,,,,,
,,6139012c76a6707fb629ff55,2024-02-18_20h13.02.898,kallum_motion_pilot,2023.2.2,Win32,60.24096386,6139012c76a6707fb629ff55,65d2b6c8f2eece985d8e374c,65d2b91cc67a654a5c71c27a,0.0427,0.0428,0,110,110,37,1,threefour,,,,,,,,,,,,,,,,,,,,,,,,,,,,,,,,,,,,,,,,,,,,,,,,,,,,,,,,,,,,,,,,,,,,,,,,,,,,,,,,,,,,,,,,,,,,,,,,,,,,,,,,,,,,,,,,,,,,,,,,,,,,,,,,,,,,,,,,,
,,6139012c76a6707fb629ff55,2024-02-18_20h13.02.898,kallum_motion_pilot,2023.2.2,Win32,60.24096386,6139012c76a6707fb629ff55,65d2b6c8f2eece985d8e374c,65d2b91cc67a654a5c71c27a,0.0428,0.0429,0,111,111,158,1,eightsix,,,,,,,,,,,,,,,,,,,,,,,,,,,,,,,,,,,,,,,,,,,,,,,,,,,,,,,,,,,,,,,,,,,,,,,,,,,,,,,,,,,,,,,,,,,,,,,,,,,,,,,,,,,,,,,,,,,,,,,,,,,,,,,,,,,,,,,,,
,,6139012c76a6707fb629ff55,2024-02-18_20h13.02.898,kallum_motion_pilot,2023.2.2,Win32,60.24096386,6139012c76a6707fb629ff55,65d2b6c8f2eece985d8e374c,65d2b91cc67a654a5c71c27a,0.043,0.043,0,112,112,99,1,sixeight,,,,,,,,,,,,,,,,,,,,,,,,,,,,,,,,,,,,,,,,,,,,,,,,,,,,,,,,,,,,,,,,,,,,,,,,,,,,,,,,,,,,,,,,,,,,,,,,,,,,,,,,,,,,,,,,,,,,,,,,,,,,,,,,,,,,,,,,,
,,6139012c76a6707fb629ff55,2024-02-18_20h13.02.898,kallum_motion_pilot,2023.2.2,Win32,60.24096386,6139012c76a6707fb629ff55,65d2b6c8f2eece985d8e374c,65d2b91cc67a654a5c71c27a,0.0431,0.0431,0,113,113,89,1,fiveseven,,,,,,,,,,,,,,,,,,,,,,,,,,,,,,,,,,,,,,,,,,,,,,,,,,,,,,,,,,,,,,,,,,,,,,,,,,,,,,,,,,,,,,,,,,,,,,,,,,,,,,,,,,,,,,,,,,,,,,,,,,,,,,,,,,,,,,,,,
,,6139012c76a6707fb629ff55,2024-02-18_20h13.02.898,kallum_motion_pilot,2023.2.2,Win32,60.24096386,6139012c76a6707fb629ff55,65d2b6c8f2eece985d8e374c,65d2b91cc67a654a5c71c27a,0.0432,0.0432,0,114,114,25,1,onethree,,,,,,,,,,,,,,,,,,,,,,,,,,,,,,,,,,,,,,,,,,,,,,,,,,,,,,,,,,,,,,,,,,,,,,,,,,,,,,,,,,,,,,,,,,,,,,,,,,,,,,,,,,,,,,,,,,,,,,,,,,,,,,,,,,,,,,,,,
,,6139012c76a6707fb629ff55,2024-02-18_20h13.02.898,kallum_motion_pilot,2023.2.2,Win32,60.24096386,6139012c76a6707fb629ff55,65d2b6c8f2eece985d8e374c,65d2b91cc67a654a5c71c27a,0.0433,0.0433,0,115,115,84,1,sevenfive,,,,,,,,,,,,,,,,,,,,,,,,,,,,,,,,,,,,,,,,,,,,,,,,,,,,,,,,,,,,,,,,,,,,,,,,,,,,,,,,,,,,,,,,,,,,,,,,,,,,,,,,,,,,,,,,,,,,,,,,,,,,,,,,,,,,,,,,,
,,6139012c76a6707fb629ff55,2024-02-18_20h13.02.898,kallum_motion_pilot,2023.2.2,Win32,60.24096386,6139012c76a6707fb629ff55,65d2b6c8f2eece985d8e374c,65d2b91cc67a654a5c71c27a,0.0434,0.0434,0,116,116,108,1,sevenfive,,,,,,,,,,,,,,,,,,,,,,,,,,,,,,,,,,,,,,,,,,,,,,,,,,,,,,,,,,,,,,,,,,,,,,,,,,,,,,,,,,,,,,,,,,,,,,,,,,,,,,,,,,,,,,,,,,,,,,,,,,,,,,,,,,,,,,,,,
,,6139012c76a6707fb629ff55,2024-02-18_20h13.02.898,kallum_motion_pilot,2023.2.2,Win32,60.24096386,6139012c76a6707fb629ff55,65d2b6c8f2eece985d8e374c,65d2b91cc67a654a5c71c27a,0.0435,0.0435,0,117,117,40,1,onetwo,,,,,,,,,,,,,,,,,,,,,,,,,,,,,,,,,,,,,,,,,,,,,,,,,,,,,,,,,,,,,,,,,,,,,,,,,,,,,,,,,,,,,,,,,,,,,,,,,,,,,,,,,,,,,,,,,,,,,,,,,,,,,,,,,,,,,,,,,
,,6139012c76a6707fb629ff55,2024-02-18_20h13.02.898,kallum_motion_pilot,2023.2.2,Win32,60.24096386,6139012c76a6707fb629ff55,65d2b6c8f2eece985d8e374c,65d2b91cc67a654a5c71c27a,0.0436,0.0437,0,118,118,126,1,eightsix,,,,,,,,,,,,,,,,,,,,,,,,,,,,,,,,,,,,,,,,,,,,,,,,,,,,,,,,,,,,,,,,,,,,,,,,,,,,,,,,,,,,,,,,,,,,,,,,,,,,,,,,,,,,,,,,,,,,,,,,,,,,,,,,,,,,,,,,,
,,6139012c76a6707fb629ff55,2024-02-18_20h13.02.898,kallum_motion_pilot,2023.2.2,Win32,60.24096386,6139012c76a6707fb629ff55,65d2b6c8f2eece985d8e374c,65d2b91cc67a654a5c71c27a,0.0437,0.0437,0,119,119,142,1,eightsix,,,,,,,,,,,,,,,,,,,,,,,,,,,,,,,,,,,,,,,,,,,,,,,,,,,,,,,,,,,,,,,,,,,,,,,,,,,,,,,,,,,,,,,,,,,,,,,,,,,,,,,,,,,,,,,,,,,,,,,,,,,,,,,,,,,,,,,,,
,,6139012c76a6707fb629ff55,2024-02-18_20h13.02.898,kallum_motion_pilot,2023.2.2,Win32,60.24096386,6139012c76a6707fb629ff55,65d2b6c8f2eece985d8e374c,65d2b91cc67a654a5c71c27a,0.0438,0.0438,0,120,120,52,1,threeone,,,,,,,,,,,,,,,,,,,,,,,,,,,,,,,,,,,,,,,,,,,,,,,,,,,,,,,,,,,,,,,,,,,,,,,,,,,,,,,,,,,,,,,,,,,,,,,,,,,,,,,,,,,,,,,,,,,,,,,,,,,,,,,,,,,,,,,,,
,,6139012c76a6707fb629ff55,2024-02-18_20h13.02.898,kallum_motion_pilot,2023.2.2,Win32,60.24096386,6139012c76a6707fb629ff55,65d2b6c8f2eece985d8e374c,65d2b91cc67a654a5c71c27a,0.0439,0.0439,0,121,121,71,1,fourthree,,,,,,,,,,,,,,,,,,,,,,,,,,,,,,,,,,,,,,,,,,,,,,,,,,,,,,,,,,,,,,,,,,,,,,,,,,,,,,,,,,,,,,,,,,,,,,,,,,,,,,,,,,,,,,,,,,,,,,,,,,,,,,,,,,,,,,,,,
,,6139012c76a6707fb629ff55,2024-02-18_20h13.02.898,kallum_motion_pilot,2023.2.2,Win32,60.24096386,6139012c76a6707fb629ff55,65d2b6c8f2eece985d8e374c,65d2b91cc67a654a5c71c27a,0.044,0.0441,0,122,122,117,1,seveneight,,,,,,,,,,,,,,,,,,,,,,,,,,,,,,,,,,,,,,,,,,,,,,,,,,,,,,,,,,,,,,,,,,,,,,,,,,,,,,,,,,,,,,,,,,,,,,,,,,,,,,,,,,,,,,,,,,,,,,,,,,,,,,,,,,,,,,,,,
,,6139012c76a6707fb629ff55,2024-02-18_20h13.02.898,kallum_motion_pilot,2023.2.2,Win32,60.24096386,6139012c76a6707fb629ff55,65d2b6c8f2eece985d8e374c,65d2b91cc67a654a5c71c27a,0.0442,0.0442,0,123,123,118,1,eightsix,,,,,,,,,,,,,,,,,,,,,,,,,,,,,,,,,,,,,,,,,,,,,,,,,,,,,,,,,,,,,,,,,,,,,,,,,,,,,,,,,,,,,,,,,,,,,,,,,,,,,,,,,,,,,,,,,,,,,,,,,,,,,,,,,,,,,,,,,
,,6139012c76a6707fb629ff55,2024-02-18_20h13.02.898,kallum_motion_pilot,2023.2.2,Win32,60.24096386,6139012c76a6707fb629ff55,65d2b6c8f2eece985d8e374c,65d2b91cc67a654a5c71c27a,0.0443,0.0444,0,124,124,114,1,sixfive,,,,,,,,,,,,,,,,,,,,,,,,,,,,,,,,,,,,,,,,,,,,,,,,,,,,,,,,,,,,,,,,,,,,,,,,,,,,,,,,,,,,,,,,,,,,,,,,,,,,,,,,,,,,,,,,,,,,,,,,,,,,,,,,,,,,,,,,,
,,6139012c76a6707fb629ff55,2024-02-18_20h13.02.898,kallum_motion_pilot,2023.2.2,Win32,60.24096386,6139012c76a6707fb629ff55,65d2b6c8f2eece985d8e374c,65d2b91cc67a654a5c71c27a,0.0444,0.0445,0,125,125,148,1,sevenfive,,,,,,,,,,,,,,,,,,,,,,,,,,,,,,,,,,,,,,,,,,,,,,,,,,,,,,,,,,,,,,,,,,,,,,,,,,,,,,,,,,,,,,,,,,,,,,,,,,,,,,,,,,,,,,,,,,,,,,,,,,,,,,,,,,,,,,,,,
,,6139012c76a6707fb629ff55,2024-02-18_20h13.02.898,kallum_motion_pilot,2023.2.2,Win32,60.24096386,6139012c76a6707fb629ff55,65d2b6c8f2eece985d8e374c,65d2b91cc67a654a5c71c27a,0.0446,0.0446,0,126,126,30,1,fourtwo,,,,,,,,,,,,,,,,,,,,,,,,,,,,,,,,,,,,,,,,,,,,,,,,,,,,,,,,,,,,,,,,,,,,,,,,,,,,,,,,,,,,,,,,,,,,,,,,,,,,,,,,,,,,,,,,,,,,,,,,,,,,,,,,,,,,,,,,,
,,6139012c76a6707fb629ff55,2024-02-18_20h13.02.898,kallum_motion_pilot,2023.2.2,Win32,60.24096386,6139012c76a6707fb629ff55,65d2b6c8f2eece985d8e374c,65d2b91cc67a654a5c71c27a,0.0447,0.0448,0,127,127,38,1,fourtwo,,,,,,,,,,,,,,,,,,,,,,,,,,,,,,,,,,,,,,,,,,,,,,,,,,,,,,,,,,,,,,,,,,,,,,,,,,,,,,,,,,,,,,,,,,,,,,,,,,,,,,,,,,,,,,,,,,,,,,,,,,,,,,,,,,,,,,,,,
,,6139012c76a6707fb629ff55,2024-02-18_20h13.02.898,kallum_motion_pilot,2023.2.2,Win32,60.24096386,6139012c76a6707fb629ff55,65d2b6c8f2eece985d8e374c,65d2b91cc67a654a5c71c27a,0.0448,0.0449,0,128,128,133,1,seveneight,,,,,,,,,,,,,,,,,,,,,,,,,,,,,,,,,,,,,,,,,,,,,,,,,,,,,,,,,,,,,,,,,,,,,,,,,,,,,,,,,,,,,,,,,,,,,,,,,,,,,,,,,,,,,,,,,,,,,,,,,,,,,,,,,,,,,,,,,
,,6139012c76a6707fb629ff55,2024-02-18_20h13.02.898,kallum_motion_pilot,2023.2.2,Win32,60.24096386,6139012c76a6707fb629ff55,65d2b6c8f2eece985d8e374c,65d2b91cc67a654a5c71c27a,0.0449,0.045,0,129,129,58,1,twoone,,,,,,,,,,,,,,,,,,,,,,,,,,,,,,,,,,,,,,,,,,,,,,,,,,,,,,,,,,,,,,,,,,,,,,,,,,,,,,,,,,,,,,,,,,,,,,,,,,,,,,,,,,,,,,,,,,,,,,,,,,,,,,,,,,,,,,,,,
,,6139012c76a6707fb629ff55,2024-02-18_20h13.02.898,kallum_motion_pilot,2023.2.2,Win32,60.24096386,6139012c76a6707fb629ff55,65d2b6c8f2eece985d8e374c,65d2b91cc67a654a5c71c27a,0.0451,0.0451,0,130,130,21,1,threefour,,,,,,,,,,,,,,,,,,,,,,,,,,,,,,,,,,,,,,,,,,,,,,,,,,,,,,,,,,,,,,,,,,,,,,,,,,,,,,,,,,,,,,,,,,,,,,,,,,,,,,,,,,,,,,,,,,,,,,,,,,,,,,,,,,,,,,,,,
,,6139012c76a6707fb629ff55,2024-02-18_20h13.02.898,kallum_motion_pilot,2023.2.2,Win32,60.24096386,6139012c76a6707fb629ff55,65d2b6c8f2eece985d8e374c,65d2b91cc67a654a5c71c27a,0.0451,0.0452,0,131,131,144,1,fivesix,,,,,,,,,,,,,,,,,,,,,,,,,,,,,,,,,,,,,,,,,,,,,,,,,,,,,,,,,,,,,,,,,,,,,,,,,,,,,,,,,,,,,,,,,,,,,,,,,,,,,,,,,,,,,,,,,,,,,,,,,,,,,,,,,,,,,,,,,
,,6139012c76a6707fb629ff55,2024-02-18_20h13.02.898,kallum_motion_pilot,2023.2.2,Win32,60.24096386,6139012c76a6707fb629ff55,65d2b6c8f2eece985d8e374c,65d2b91cc67a654a5c71c27a,0.0453,0.0453,0,132,132,157,1,seveneight,,,,,,,,,,,,,,,,,,,,,,,,,,,,,,,,,,,,,,,,,,,,,,,,,,,,,,,,,,,,,,,,,,,,,,,,,,,,,,,,,,,,,,,,,,,,,,,,,,,,,,,,,,,,,,,,,,,,,,,,,,,,,,,,,,,,,,,,,
,,6139012c76a6707fb629ff55,2024-02-18_20h13.02.898,kallum_motion_pilot,2023.2.2,Win32,60.24096386,6139012c76a6707fb629ff55,65d2b6c8f2eece985d8e374c,65d2b91cc67a654a5c71c27a,0.0454,0.0455,0,133,133,90,1,sixfive,,,,,,,,,,,,,,,,,,,,,,,,,,,,,,,,,,,,,,,,,,,,,,,,,,,,,,,,,,,,,,,,,,,,,,,,,,,,,,,,,,,,,,,,,,,,,,,,,,,,,,,,,,,,,,,,,,,,,,,,,,,,,,,,,,,,,,,,,
,,6139012c76a6707fb629ff55,2024-02-18_20h13.02.898,kallum_motion_pilot,2023.2.2,Win32,60.24096386,6139012c76a6707fb629ff55,65d2b6c8f2eece985d8e374c,65d2b91cc67a654a5c71c27a,0.0455,0.0455,0,134,134,135,1,eightseven,,,,,,,,,,,,,,,,,,,,,,,,,,,,,,,,,,,,,,,,,,,,,,,,,,,,,,,,,,,,,,,,,,,,,,,,,,,,,,,,,,,,,,,,,,,,,,,,,,,,,,,,,,,,,,,,,,,,,,,,,,,,,,,,,,,,,,,,,
,,6139012c76a6707fb629ff55,2024-02-18_20h13.02.898,kallum_motion_pilot,2023.2.2,Win32,60.24096386,6139012c76a6707fb629ff55,65d2b6c8f2eece985d8e374c,65d2b91cc67a654a5c71c27a,0.0456,0.0456,0,135,135,31,1,fourthree,,,,,,,,,,,,,,,,,,,,,,,,,,,,,,,,,,,,,,,,,,,,,,,,,,,,,,,,,,,,,,,,,,,,,,,,,,,,,,,,,,,,,,,,,,,,,,,,,,,,,,,,,,,,,,,,,,,,,,,,,,,,,,,,,,,,,,,,,
,,6139012c76a6707fb629ff55,2024-02-18_20h13.02.898,kallum_motion_pilot,2023.2.2,Win32,60.24096386,6139012c76a6707fb629ff55,65d2b6c8f2eece985d8e374c,65d2b91cc67a654a5c71c27a,0.0456,0.0457,0,136,136,127,1,eightseven,,,,,,,,,,,,,,,,,,,,,,,,,,,,,,,,,,,,,,,,,,,,,,,,,,,,,,,,,,,,,,,,,,,,,,,,,,,,,,,,,,,,,,,,,,,,,,,,,,,,,,,,,,,,,,,,,,,,,,,,,,,,,,,,,,,,,,,,,
,,6139012c76a6707fb629ff55,2024-02-18_20h13.02.898,kallum_motion_pilot,2023.2.2,Win32,60.24096386,6139012c76a6707fb629ff55,65d2b6c8f2eece985d8e374c,65d2b91cc67a654a5c71c27a,0.0457,0.0458,0,137,137,63,1,fourthree,,,,,,,,,,,,,,,,,,,,,,,,,,,,,,,,,,,,,,,,,,,,,,,,,,,,,,,,,,,,,,,,,,,,,,,,,,,,,,,,,,,,,,,,,,,,,,,,,,,,,,,,,,,,,,,,,,,,,,,,,,,,,,,,,,,,,,,,,
,,6139012c76a6707fb629ff55,2024-02-18_20h13.02.898,kallum_motion_pilot,2023.2.2,Win32,60.24096386,6139012c76a6707fb629ff55,65d2b6c8f2eece985d8e374c,65d2b91cc67a654a5c71c27a,0.0459,0.0459,0,138,138,46,1,fourtwo,,,,,,,,,,,,,,,,,,,,,,,,,,,,,,,,,,,,,,,,,,,,,,,,,,,,,,,,,,,,,,,,,,,,,,,,,,,,,,,,,,,,,,,,,,,,,,,,,,,,,,,,,,,,,,,,,,,,,,,,,,,,,,,,,,,,,,,,,
,,6139012c76a6707fb629ff55,2024-02-18_20h13.02.898,kallum_motion_pilot,2023.2.2,Win32,60.24096386,6139012c76a6707fb629ff55,65d2b6c8f2eece985d8e374c,65d2b91cc67a654a5c71c27a,0.046,0.046,0,139,139,61,1,threefour,,,,,,,,,,,,,,,,,,,,,,,,,,,,,,,,,,,,,,,,,,,,,,,,,,,,,,,,,,,,,,,,,,,,,,,,,,,,,,,,,,,,,,,,,,,,,,,,,,,,,,,,,,,,,,,,,,,,,,,,,,,,,,,,,,,,,,,,,
,,6139012c76a6707fb629ff55,2024-02-18_20h13.02.898,kallum_motion_pilot,2023.2.2,Win32,60.24096386,6139012c76a6707fb629ff55,65d2b6c8f2eece985d8e374c,65d2b91cc67a654a5c71c27a,0.0461,0.0461,0,140,140,98,1,sixfive,,,,,,,,,,,,,,,,,,,,,,,,,,,,,,,,,,,,,,,,,,,,,,,,,,,,,,,,,,,,,,,,,,,,,,,,,,,,,,,,,,,,,,,,,,,,,,,,,,,,,,,,,,,,,,,,,,,,,,,,,,,,,,,,,,,,,,,,,
,,6139012c76a6707fb629ff55,2024-02-18_20h13.02.898,kallum_motion_pilot,2023.2.2,Win32,60.24096386,6139012c76a6707fb629ff55,65d2b6c8f2eece985d8e374c,65d2b91cc67a654a5c71c27a,0.0462,0.0463,0,141,141,49,1,onethree,,,,,,,,,,,,,,,,,,,,,,,,,,,,,,,,,,,,,,,,,,,,,,,,,,,,,,,,,,,,,,,,,,,,,,,,,,,,,,,,,,,,,,,,,,,,,,,,,,,,,,,,,,,,,,,,,,,,,,,,,,,,,,,,,,,,,,,,,
,,6139012c76a6707fb629ff55,2024-02-18_20h13.02.898,kallum_motion_pilot,2023.2.2,Win32,60.24096386,6139012c76a6707fb629ff55,65d2b6c8f2eece985d8e374c,65d2b91cc67a654a5c71c27a,0.0464,0.0464,0,142,142,101,1,seveneight,,,,,,,,,,,,,,,,,,,,,,,,,,,,,,,,,,,,,,,,,,,,,,,,,,,,,,,,,,,,,,,,,,,,,,,,,,,,,,,,,,,,,,,,,,,,,,,,,,,,,,,,,,,,,,,,,,,,,,,,,,,,,,,,,,,,,,,,,
,,6139012c76a6707fb629ff55,2024-02-18_20h13.02.898,kallum_motion_pilot,2023.2.2,Win32,60.24096386,6139012c76a6707fb629ff55,65d2b6c8f2eece985d8e374c,65d2b91cc67a654a5c71c27a,0.0464,0.0464,0,143,143,122,1,sixfive,,,,,,,,,,,,,,,,,,,,,,,,,,,,,,,,,,,,,,,,,,,,,,,,,,,,,,,,,,,,,,,,,,,,,,,,,,,,,,,,,,,,,,,,,,,,,,,,,,,,,,,,,,,,,,,,,,,,,,,,,,,,,,,,,,,,,,,,,
,,6139012c76a6707fb629ff55,2024-02-18_20h13.02.898,kallum_motion_pilot,2023.2.2,Win32,60.24096386,6139012c76a6707fb629ff55,65d2b6c8f2eece985d8e374c,65d2b91cc67a654a5c71c27a,0.0466,0.0466,0,144,144,156,1,sevenfive,,,,,,,,,,,,,,,,,,,,,,,,,,,,,,,,,,,,,,,,,,,,,,,,,,,,,,,,,,,,,,,,,,,,,,,,,,,,,,,,,,,,,,,,,,,,,,,,,,,,,,,,,,,,,,,,,,,,,,,,,,,,,,,,,,,,,,,,,
,,6139012c76a6707fb629ff55,2024-02-18_20h13.02.898,kallum_motion_pilot,2023.2.2,Win32,60.24096386,6139012c76a6707fb629ff55,65d2b6c8f2eece985d8e374c,65d2b91cc67a654a5c71c27a,0.0466,0.0467,0,145,145,140,1,sevenfive,,,,,,,,,,,,,,,,,,,,,,,,,,,,,,,,,,,,,,,,,,,,,,,,,,,,,,,,,,,,,,,,,,,,,,,,,,,,,,,,,,,,,,,,,,,,,,,,,,,,,,,,,,,,,,,,,,,,,,,,,,,,,,,,,,,,,,,,,
,,6139012c76a6707fb629ff55,2024-02-18_20h13.02.898,kallum_motion_pilot,2023.2.2,Win32,60.24096386,6139012c76a6707fb629ff55,65d2b6c8f2eece985d8e374c,65d2b91cc67a654a5c71c27a,0.0467,0.0468,0,146,146,36,1,threeone,,,,,,,,,,,,,,,,,,,,,,,,,,,,,,,,,,,,,,,,,,,,,,,,,,,,,,,,,,,,,,,,,,,,,,,,,,,,,,,,,,,,,,,,,,,,,,,,,,,,,,,,,,,,,,,,,,,,,,,,,,,,,,,,,,,,,,,,,
,,6139012c76a6707fb629ff55,2024-02-18_20h13.02.898,kallum_motion_pilot,2023.2.2,Win32,60.24096386,6139012c76a6707fb629ff55,65d2b6c8f2eece985d8e374c,65d2b91cc67a654a5c71c27a,0.0468,0.0469,0,147,147,64,1,onetwo,,,,,,,,,,,,,,,,,,,,,,,,,,,,,,,,,,,,,,,,,,,,,,,,,,,,,,,,,,,,,,,,,,,,,,,,,,,,,,,,,,,,,,,,,,,,,,,,,,,,,,,,,,,,,,,,,,,,,,,,,,,,,,,,,,,,,,,,,
,,6139012c76a6707fb629ff55,2024-02-18_20h13.02.898,kallum_motion_pilot,2023.2.2,Win32,60.24096386,6139012c76a6707fb629ff55,65d2b6c8f2eece985d8e374c,65d2b91cc67a654a5c71c27a,0.0469,0.047,0,148,148,160,1,fivesix,,,,,,,,,,,,,,,,,,,,,,,,,,,,,,,,,,,,,,,,,,,,,,,,,,,,,,,,,,,,,,,,,,,,,,,,,,,,,,,,,,,,,,,,,,,,,,,,,,,,,,,,,,,,,,,,,,,,,,,,,,,,,,,,,,,,,,,,,
,,6139012c76a6707fb629ff55,2024-02-18_20h13.02.898,kallum_motion_pilot,2023.2.2,Win32,60.24096386,6139012c76a6707fb629ff55,65d2b6c8f2eece985d8e374c,65d2b91cc67a654a5c71c27a,0.047,0.0471,0,149,149,59,1,twofour,,,,,,,,,,,,,,,,,,,,,,,,,,,,,,,,,,,,,,,,,,,,,,,,,,,,,,,,,,,,,,,,,,,,,,,,,,,,,,,,,,,,,,,,,,,,,,,,,,,,,,,,,,,,,,,,,,,,,,,,,,,,,,,,,,,,,,,,,
,,6139012c76a6707fb629ff55,2024-02-18_20h13.02.898,kallum_motion_pilot,2023.2.2,Win32,60.24096386,6139012c76a6707fb629ff55,65d2b6c8f2eece985d8e374c,65d2b91cc67a654a5c71c27a,0.0471,0.0472,0,150,150,79,1,eightseven,,,,,,,,,,,,,,,,,,,,,,,,,,,,,,,,,,,,,,,,,,,,,,,,,,,,,,,,,,,,,,,,,,,,,,,,,,,,,,,,,,,,,,,,,,,,,,,,,,,,,,,,,,,,,,,,,,,,,,,,,,,,,,,,,,,,,,,,,
,,6139012c76a6707fb629ff55,2024-02-18_20h13.02.898,kallum_motion_pilot,2023.2.2,Win32,60.24096386,6139012c76a6707fb629ff55,65d2b6c8f2eece985d8e374c,65d2b91cc67a654a5c71c27a,0.0472,0.0473,0,151,151,51,1,twofour,,,,,,,,,,,,,,,,,,,,,,,,,,,,,,,,,,,,,,,,,,,,,,,,,,,,,,,,,,,,,,,,,,,,,,,,,,,,,,,,,,,,,,,,,,,,,,,,,,,,,,,,,,,,,,,,,,,,,,,,,,,,,,,,,,,,,,,,,
,,6139012c76a6707fb629ff55,2024-02-18_20h13.02.898,kallum_motion_pilot,2023.2.2,Win32,60.24096386,6139012c76a6707fb629ff55,65d2b6c8f2eece985d8e374c,65d2b91cc67a654a5c71c27a,0.0474,0.0474,0,152,152,119,1,eightseven,,,,,,,,,,,,,,,,,,,,,,,,,,,,,,,,,,,,,,,,,,,,,,,,,,,,,,,,,,,,,,,,,,,,,,,,,,,,,,,,,,,,,,,,,,,,,,,,,,,,,,,,,,,,,,,,,,,,,,,,,,,,,,,,,,,,,,,,,
,,6139012c76a6707fb629ff55,2024-02-18_20h13.02.898,kallum_motion_pilot,2023.2.2,Win32,60.24096386,6139012c76a6707fb629ff55,65d2b6c8f2eece985d8e374c,65d2b91cc67a654a5c71c27a,0.0474,0.0475,0,153,153,92,1,sevenfive,,,,,,,,,,,,,,,,,,,,,,,,,,,,,,,,,,,,,,,,,,,,,,,,,,,,,,,,,,,,,,,,,,,,,,,,,,,,,,,,,,,,,,,,,,,,,,,,,,,,,,,,,,,,,,,,,,,,,,,,,,,,,,,,,,,,,,,,,
,,6139012c76a6707fb629ff55,2024-02-18_20h13.02.898,kallum_motion_pilot,2023.2.2,Win32,60.24096386,6139012c76a6707fb629ff55,65d2b6c8f2eece985d8e374c,65d2b91cc67a654a5c71c27a,0.0476,0.0477,0,154,154,66,1,twoone,,,,,,,,,,,,,,,,,,,,,,,,,,,,,,,,,,,,,,,,,,,,,,,,,,,,,,,,,,,,,,,,,,,,,,,,,,,,,,,,,,,,,,,,,,,,,,,,,,,,,,,,,,,,,,,,,,,,,,,,,,,,,,,,,,,,,,,,,
,,6139012c76a6707fb629ff55,2024-02-18_20h13.02.898,kallum_motion_pilot,2023.2.2,Win32,60.24096386,6139012c76a6707fb629ff55,65d2b6c8f2eece985d8e374c,65d2b91cc67a654a5c71c27a,0.0477,0.0477,0,155,155,9,1,onethree,,,,,,,,,,,,,,,,,,,,,,,,,,,,,,,,,,,,,,,,,,,,,,,,,,,,,,,,,,,,,,,,,,,,,,,,,,,,,,,,,,,,,,,,,,,,,,,,,,,,,,,,,,,,,,,,,,,,,,,,,,,,,,,,,,,,,,,,,
,,6139012c76a6707fb629ff55,2024-02-18_20h13.02.898,kallum_motion_pilot,2023.2.2,Win32,60.24096386,6139012c76a6707fb629ff55,65d2b6c8f2eece985d8e374c,65d2b91cc67a654a5c71c27a,0.0478,0.0479,0,156,156,34,1,twoone,,,,,,,,,,,,,,,,,,,,,,,,,,,,,,,,,,,,,,,,,,,,,,,,,,,,,,,,,,,,,,,,,,,,,,,,,,,,,,,,,,,,,,,,,,,,,,,,,,,,,,,,,,,,,,,,,,,,,,,,,,,,,,,,,,,,,,,,,
,,6139012c76a6707fb629ff55,2024-02-18_20h13.02.898,kallum_motion_pilot,2023.2.2,Win32,60.24096386,6139012c76a6707fb629ff55,65d2b6c8f2eece985d8e374c,65d2b91cc67a654a5c71c27a,0.0479,0.0479,0,157,157,130,1,sixfive,,,,,,,,,,,,,,,,,,,,,,,,,,,,,,,,,,,,,,,,,,,,,,,,,,,,,,,,,,,,,,,,,,,,,,,,,,,,,,,,,,,,,,,,,,,,,,,,,,,,,,,,,,,,,,,,,,,,,,,,,,,,,,,,,,,,,,,,,
,,6139012c76a6707fb629ff55,2024-02-18_20h13.02.898,kallum_motion_pilot,2023.2.2,Win32,60.24096386,6139012c76a6707fb629ff55,65d2b6c8f2eece985d8e374c,65d2b91cc67a654a5c71c27a,0.048,0.048,0,158,158,107,1,sixeight,,,,,,,,,,,,,,,,,,,,,,,,,,,,,,,,,,,,,,,,,,,,,,,,,,,,,,,,,,,,,,,,,,,,,,,,,,,,,,,,,,,,,,,,,,,,,,,,,,,,,,,,,,,,,,,,,,,,,,,,,,,,,,,,,,,,,,,,,
,,6139012c76a6707fb629ff55,2024-02-18_20h13.02.898,kallum_motion_pilot,2023.2.2,Win32,60.24096386,6139012c76a6707fb629ff55,65d2b6c8f2eece985d8e374c,65d2b91cc67a654a5c71c27a,0.0481,0.0482,0,159,159,18,1,twoone,,,,,,,,,,,,,,,,,,,,,,,,,,,,,,,,,,,,,,,,,,,,,,,,,,,,,,,,,,,,,,,,,,,,,,,,,,,,,,,,,,,,,,,,,,,,,,,,,,,,,,,,,,,,,,,,,,,,,,,,,,,,,,,,,,,,,,,,,
,,6139012c76a6707fb629ff55,2024-02-18_20h13.02.898,kallum_motion_pilot,2023.2.2,Win32,60.24096386,6139012c76a6707fb629ff55,65d2b6c8f2eece985d8e374c,65d2b91cc67a654a5c71c27a,0.0482,0.0483,0,160,160,131,1,sixeight,,,,,,,,,,,,,,,,,,,,,,,,,,,,,,,,,,,,,,,,,,,,,,,,,,,,,,,,,,,,,,,,,,,,,,,,,,,,,,,,,,,,,,,,,,,,,,,,,,,,,,,,,,,,,,,,,,,,,,,,,,,,,,,,,,,,,,,,,
,,6139012c76a6707fb629ff55,2024-02-18_20h13.02.898,kallum_motion_pilot,2023.2.2,Win32,60.24096386,6139012c76a6707fb629ff55,65d2b6c8f2eece985d8e374c,65d2b91cc67a654a5c71c27a,0.0484,0.0484,0,161,161,143,1,eightseven,,,,,,,,,,,,,,,,,,,,,,,,,,,,,,,,,,,,,,,,,,,,,,,,,,,,,,,,,,,,,,,,,,,,,,,,,,,,,,,,,,,,,,,,,,,,,,,,,,,,,,,,,,,,,,,,,,,,,,,,,,,,,,,,,,,,,,,,,
,,6139012c76a6707fb629ff55,2024-02-18_20h13.02.898,kallum_motion_pilot,2023.2.2,Win32,60.24096386,6139012c76a6707fb629ff55,65d2b6c8f2eece985d8e374c,65d2b91cc67a654a5c71c27a,0.0485,0.0485,1,0,162,63,1,fourthree,,,,,,,,,,,,,,,,,,,,,,,,,,,,,,,,,,,,,,,,,,,,,,,,,,,,,,,,,,,,,,,,,,,,,,,,,,,,,,,,,,,,,,,,,,,,,,,,,,,,,,,,,,,,,,,,,,,,,,,,,,,,,,,,,,,,,,,,,
,,6139012c76a6707fb629ff55,2024-02-18_20h13.02.898,kallum_motion_pilot,2023.2.2,Win32,60.24096386,6139012c76a6707fb629ff55,65d2b6c8f2eece985d8e374c,65d2b91cc67a654a5c71c27a,0.0486,0.0486,1,1,163,145,1,fiveseven,,,,,,,,,,,,,,,,,,,,,,,,,,,,,,,,,,,,,,,,,,,,,,,,,,,,,,,,,,,,,,,,,,,,,,,,,,,,,,,,,,,,,,,,,,,,,,,,,,,,,,,,,,,,,,,,,,,,,,,,,,,,,,,,,,,,,,,,,
,,6139012c76a6707fb629ff55,2024-02-18_20h13.02.898,kallum_motion_pilot,2023.2.2,Win32,60.24096386,6139012c76a6707fb629ff55,65d2b6c8f2eece985d8e374c,65d2b91cc67a654a5c71c27a,0.0487,0.0488,1,2,164,60,1,threeone,,,,,,,,,,,,,,,,,,,,,,,,,,,,,,,,,,,,,,,,,,,,,,,,,,,,,,,,,,,,,,,,,,,,,,,,,,,,,,,,,,,,,,,,,,,,,,,,,,,,,,,,,,,,,,,,,,,,,,,,,,,,,,,,,,,,,,,,,
,,6139012c76a6707fb629ff55,2024-02-18_20h13.02.898,kallum_motion_pilot,2023.2.2,Win32,60.24096386,6139012c76a6707fb629ff55,65d2b6c8f2eece985d8e374c,65d2b91cc67a654a5c71c27a,0.0488,0.0489,1,3,165,142,1,eightsix,,,,,,,,,,,,,,,,,,,,,,,,,,,,,,,,,,,,,,,,,,,,,,,,,,,,,,,,,,,,,,,,,,,,,,,,,,,,,,,,,,,,,,,,,,,,,,,,,,,,,,,,,,,,,,,,,,,,,,,,,,,,,,,,,,,,,,,,,
,,6139012c76a6707fb629ff55,2024-02-18_20h13.02.898,kallum_motion_pilot,2023.2.2,Win32,60.24096386,6139012c76a6707fb629ff55,65d2b6c8f2eece985d8e374c,65d2b91cc67a654a5c71c27a,0.0489,0.049,1,4,166,9,1,onethree,,,,,,,,,,,,,,,,,,,,,,,,,,,,,,,,,,,,,,,,,,,,,,,,,,,,,,,,,,,,,,,,,,,,,,,,,,,,,,,,,,,,,,,,,,,,,,,,,,,,,,,,,,,,,,,,,,,,,,,,,,,,,,,,,,,,,,,,,
,,6139012c76a6707fb629ff55,2024-02-18_20h13.02.898,kallum_motion_pilot,2023.2.2,Win32,60.24096386,6139012c76a6707fb629ff55,65d2b6c8f2eece985d8e374c,65d2b91cc67a654a5c71c27a,0.049,0.0491,1,5,167,90,1,sixfive,,,,,,,,,,,,,,,,,,,,,,,,,,,,,,,,,,,,,,,,,,,,,,,,,,,,,,,,,,,,,,,,,,,,,,,,,,,,,,,,,,,,,,,,,,,,,,,,,,,,,,,,,,,,,,,,,,,,,,,,,,,,,,,,,,,,,,,,,
,,6139012c76a6707fb629ff55,2024-02-18_20h13.02.898,kallum_motion_pilot,2023.2.2,Win32,60.24096386,6139012c76a6707fb629ff55,65d2b6c8f2eece985d8e374c,65d2b91cc67a654a5c71c27a,0.0491,0.0492,1,6,168,81,1,fiveseven,,,,,,,,,,,,,,,,,,,,,,,,,,,,,,,,,,,,,,,,,,,,,,,,,,,,,,,,,,,,,,,,,,,,,,,,,,,,,,,,,,,,,,,,,,,,,,,,,,,,,,,,,,,,,,,,,,,,,,,,,,,,,,,,,,,,,,,,,
,,6139012c76a6707fb629ff55,2024-02-18_20h13.02.898,kallum_motion_pilot,2023.2.2,Win32,60.24096386,6139012c76a6707fb629ff55,65d2b6c8f2eece985d8e374c,65d2b91cc67a654a5c71c27a,0.0493,0.0493,1,7,169,159,1,eightseven,,,,,,,,,,,,,,,,,,,,,,,,,,,,,,,,,,,,,,,,,,,,,,,,,,,,,,,,,,,,,,,,,,,,,,,,,,,,,,,,,,,,,,,,,,,,,,,,,,,,,,,,,,,,,,,,,,,,,,,,,,,,,,,,,,,,,,,,,
,,6139012c76a6707fb629ff55,2024-02-18_20h13.02.898,kallum_motion_pilot,2023.2.2,Win32,60.24096386,6139012c76a6707fb629ff55,65d2b6c8f2eece985d8e374c,65d2b91cc67a654a5c71c27a,0.0493,0.0494,1,8,170,32,1,onetwo,,,,,,,,,,,,,,,,,,,,,,,,,,,,,,,,,,,,,,,,,,,,,,,,,,,,,,,,,,,,,,,,,,,,,,,,,,,,,,,,,,,,,,,,,,,,,,,,,,,,,,,,,,,,,,,,,,,,,,,,,,,,,,,,,,,,,,,,,
,,6139012c76a6707fb629ff55,2024-02-18_20h13.02.898,kallum_motion_pilot,2023.2.2,Win32,60.24096386,6139012c76a6707fb629ff55,65d2b6c8f2eece985d8e374c,65d2b91cc67a654a5c71c27a,0.0495,0.0496,1,9,171,77,1,threefour,,,,,,,,,,,,,,,,,,,,,,,,,,,,,,,,,,,,,,,,,,,,,,,,,,,,,,,,,,,,,,,,,,,,,,,,,,,,,,,,,,,,,,,,,,,,,,,,,,,,,,,,,,,,,,,,,,,,,,,,,,,,,,,,,,,,,,,,,
,,6139012c76a6707fb629ff55,2024-02-18_20h13.02.898,kallum_motion_pilot,2023.2.2,Win32,60.24096386,6139012c76a6707fb629ff55,65d2b6c8f2eece985d8e374c,65d2b91cc67a654a5c71c27a,0.0496,0.0497,1,10,172,18,1,twoone,,,,,,,,,,,,,,,,,,,,,,,,,,,,,,,,,,,,,,,,,,,,,,,,,,,,,,,,,,,,,,,,,,,,,,,,,,,,,,,,,,,,,,,,,,,,,,,,,,,,,,,,,,,,,,,,,,,,,,,,,,,,,,,,,,,,,,,,,
,,6139012c76a6707fb629ff55,2024-02-18_20h13.02.898,kallum_motion_pilot,2023.2.2,Win32,60.24096386,6139012c76a6707fb629ff55,65d2b6c8f2eece985d8e374c,65d2b91cc67a654a5c71c27a,0.0497,0.0497,1,11,173,15,1,fourthree,,,,,,,,,,,,,,,,,,,,,,,,,,,,,,,,,,,,,,,,,,,,,,,,,,,,,,,,,,,,,,,,,,,,,,,,,,,,,,,,,,,,,,,,,,,,,,,,,,,,,,,,,,,,,,,,,,,,,,,,,,,,,,,,,,,,,,,,,
,,6139012c76a6707fb629ff55,2024-02-18_20h13.02.898,kallum_motion_pilot,2023.2.2,Win32,60.24096386,6139012c76a6707fb629ff55,65d2b6c8f2eece985d8e374c,65d2b91cc67a654a5c71c27a,0.0498,0.0498,1,12,174,94,1,eightsix,,,,,,,,,,,,,,,,,,,,,,,,,,,,,,,,,,,,,,,,,,,,,,,,,,,,,,,,,,,,,,,,,,,,,,,,,,,,,,,,,,,,,,,,,,,,,,,,,,,,,,,,,,,,,,,,,,,,,,,,,,,,,,,,,,,,,,,,,
,,6139012c76a6707fb629ff55,2024-02-18_20h13.02.898,kallum_motion_pilot,2023.2.2,Win32,60.24096386,6139012c76a6707fb629ff55,65d2b6c8f2eece985d8e374c,65d2b91cc67a654a5c71c27a,0.0499,0.05,1,13,175,76,1,threeone,,,,,,,,,,,,,,,,,,,,,,,,,,,,,,,,,,,,,,,,,,,,,,,,,,,,,,,,,,,,,,,,,,,,,,,,,,,,,,,,,,,,,,,,,,,,,,,,,,,,,,,,,,,,,,,,,,,,,,,,,,,,,,,,,,,,,,,,,
,,6139012c76a6707fb629ff55,2024-02-18_20h13.02.898,kallum_motion_pilot,2023.2.2,Win32,60.24096386,6139012c76a6707fb629ff55,65d2b6c8f2eece985d8e374c,65d2b91cc67a654a5c71c27a,0.0501,0.0501,1,14,176,120,1,fivesix,,,,,,,,,,,,,,,,,,,,,,,,,,,,,,,,,,,,,,,,,,,,,,,,,,,,,,,,,,,,,,,,,,,,,,,,,,,,,,,,,,,,,,,,,,,,,,,,,,,,,,,,,,,,,,,,,,,,,,,,,,,,,,,,,,,,,,,,,
,,6139012c76a6707fb629ff55,2024-02-18_20h13.02.898,kallum_motion_pilot,2023.2.2,Win32,60.24096386,6139012c76a6707fb629ff55,65d2b6c8f2eece985d8e374c,65d2b91cc67a654a5c71c27a,0.0502,0.0503,1,15,177,85,1,seveneight,,,,,,,,,,,,,,,,,,,,,,,,,,,,,,,,,,,,,,,,,,,,,,,,,,,,,,,,,,,,,,,,,,,,,,,,,,,,,,,,,,,,,,,,,,,,,,,,,,,,,,,,,,,,,,,,,,,,,,,,,,,,,,,,,,,,,,,,,
,,6139012c76a6707fb629ff55,2024-02-18_20h13.02.898,kallum_motion_pilot,2023.2.2,Win32,60.24096386,6139012c76a6707fb629ff55,65d2b6c8f2eece985d8e374c,65d2b91cc67a654a5c71c27a,0.0503,0.0504,1,16,178,19,1,twofour,,,,,,,,,,,,,,,,,,,,,,,,,,,,,,,,,,,,,,,,,,,,,,,,,,,,,,,,,,,,,,,,,,,,,,,,,,,,,,,,,,,,,,,,,,,,,,,,,,,,,,,,,,,,,,,,,,,,,,,,,,,,,,,,,,,,,,,,,
,,6139012c76a6707fb629ff55,2024-02-18_20h13.02.898,kallum_motion_pilot,2023.2.2,Win32,60.24096386,6139012c76a6707fb629ff55,65d2b6c8f2eece985d8e374c,65d2b91cc67a654a5c71c27a,0.0504,0.0504,1,17,179,144,1,fivesix,,,,,,,,,,,,,,,,,,,,,,,,,,,,,,,,,,,,,,,,,,,,,,,,,,,,,,,,,,,,,,,,,,,,,,,,,,,,,,,,,,,,,,,,,,,,,,,,,,,,,,,,,,,,,,,,,,,,,,,,,,,,,,,,,,,,,,,,,
,,6139012c76a6707fb629ff55,2024-02-18_20h13.02.898,kallum_motion_pilot,2023.2.2,Win32,60.24096386,6139012c76a6707fb629ff55,65d2b6c8f2eece985d8e374c,65d2b91cc67a654a5c71c27a,0.0505,0.0506,1,18,180,69,1,threefour,,,,,,,,,,,,,,,,,,,,,,,,,,,,,,,,,,,,,,,,,,,,,,,,,,,,,,,,,,,,,,,,,,,,,,,,,,,,,,,,,,,,,,,,,,,,,,,,,,,,,,,,,,,,,,,,,,,,,,,,,,,,,,,,,,,,,,,,,
,,6139012c76a6707fb629ff55,2024-02-18_20h13.02.898,kallum_motion_pilot,2023.2.2,Win32,60.24096386,6139012c76a6707fb629ff55,65d2b6c8f2eece985d8e374c,65d2b91cc67a654a5c71c27a,0.0506,0.0507,1,19,181,11,1,twofour,,,,,,,,,,,,,,,,,,,,,,,,,,,,,,,,,,,,,,,,,,,,,,,,,,,,,,,,,,,,,,,,,,,,,,,,,,,,,,,,,,,,,,,,,,,,,,,,,,,,,,,,,,,,,,,,,,,,,,,,,,,,,,,,,,,,,,,,,
,,6139012c76a6707fb629ff55,2024-02-18_20h13.02.898,kallum_motion_pilot,2023.2.2,Win32,60.24096386,6139012c76a6707fb629ff55,65d2b6c8f2eece985d8e374c,65d2b91cc67a654a5c71c27a,0.0508,0.0508,1,20,182,66,1,twoone,,,,,,,,,,,,,,,,,,,,,,,,,,,,,,,,,,,,,,,,,,,,,,,,,,,,,,,,,,,,,,,,,,,,,,,,,,,,,,,,,,,,,,,,,,,,,,,,,,,,,,,,,,,,,,,,,,,,,,,,,,,,,,,,,,,,,,,,,
,,6139012c76a6707fb629ff55,2024-02-18_20h13.02.898,kallum_motion_pilot,2023.2.2,Win32,60.24096386,6139012c76a6707fb629ff55,65d2b6c8f2eece985d8e374c,65d2b91cc67a654a5c71c27a,0.0509,0.0509,1,21,183,108,1,sevenfive,,,,,,,,,,,,,,,,,,,,,,,,,,,,,,,,,,,,,,,,,,,,,,,,,,,,,,,,,,,,,,,,,,,,,,,,,,,,,,,,,,,,,,,,,,,,,,,,,,,,,,,,,,,,,,,,,,,,,,,,,,,,,,,,,,,,,,,,,
,,6139012c76a6707fb629ff55,2024-02-18_20h13.02.898,kallum_motion_pilot,2023.2.2,Win32,60.24096386,6139012c76a6707fb629ff55,65d2b6c8f2eece985d8e374c,65d2b91cc67a654a5c71c27a,0.0509,0.051,1,22,184,29,1,threefour,,,,,,,,,,,,,,,,,,,,,,,,,,,,,,,,,,,,,,,,,,,,,,,,,,,,,,,,,,,,,,,,,,,,,,,,,,,,,,,,,,,,,,,,,,,,,,,,,,,,,,,,,,,,,,,,,,,,,,,,,,,,,,,,,,,,,,,,,
,,6139012c76a6707fb629ff55,2024-02-18_20h13.02.898,kallum_motion_pilot,2023.2.2,Win32,60.24096386,6139012c76a6707fb629ff55,65d2b6c8f2eece985d8e374c,65d2b91cc67a654a5c71c27a,0.0511,0.0512,1,23,185,55,1,fourthree,,,,,,,,,,,,,,,,,,,,,,,,,,,,,,,,,,,,,,,,,,,,,,,,,,,,,,,,,,,,,,,,,,,,,,,,,,,,,,,,,,,,,,,,,,,,,,,,,,,,,,,,,,,,,,,,,,,,,,,,,,,,,,,,,,,,,,,,,
,,6139012c76a6707fb629ff55,2024-02-18_20h13.02.898,kallum_motion_pilot,2023.2.2,Win32,60.24096386,6139012c76a6707fb629ff55,65d2b6c8f2eece985d8e374c,65d2b91cc67a654a5c71c27a,0.0512,0.0513,1,24,186,62,1,fourtwo,,,,,,,,,,,,,,,,,,,,,,,,,,,,,,,,,,,,,,,,,,,,,,,,,,,,,,,,,,,,,,,,,,,,,,,,,,,,,,,,,,,,,,,,,,,,,,,,,,,,,,,,,,,,,,,,,,,,,,,,,,,,,,,,,,,,,,,,,
,,6139012c76a6707fb629ff55,2024-02-18_20h13.02.898,kallum_motion_pilot,2023.2.2,Win32,60.24096386,6139012c76a6707fb629ff55,65d2b6c8f2eece985d8e374c,65d2b91cc67a654a5c71c27a,0.0514,0.0514,1,25,187,14,1,fourtwo,,,,,,,,,,,,,,,,,,,,,,,,,,,,,,,,,,,,,,,,,,,,,,,,,,,,,,,,,,,,,,,,,,,,,,,,,,,,,,,,,,,,,,,,,,,,,,,,,,,,,,,,,,,,,,,,,,,,,,,,,,,,,,,,,,,,,,,,,
,,6139012c76a6707fb629ff55,2024-02-18_20h13.02.898,kallum_motion_pilot,2023.2.2,Win32,60.24096386,6139012c76a6707fb629ff55,65d2b6c8f2eece985d8e374c,65d2b91cc67a654a5c71c27a,0.0514,0.0515,1,26,188,138,1,sixfive,,,,,,,,,,,,,,,,,,,,,,,,,,,,,,,,,,,,,,,,,,,,,,,,,,,,,,,,,,,,,,,,,,,,,,,,,,,,,,,,,,,,,,,,,,,,,,,,,,,,,,,,,,,,,,,,,,,,,,,,,,,,,,,,,,,,,,,,,
,,6139012c76a6707fb629ff55,2024-02-18_20h13.02.898,kallum_motion_pilot,2023.2.2,Win32,60.24096386,6139012c76a6707fb629ff55,65d2b6c8f2eece985d8e374c,65d2b91cc67a654a5c71c27a,0.0516,0.0517,1,27,189,42,1,twoone,,,,,,,,,,,,,,,,,,,,,,,,,,,,,,,,,,,,,,,,,,,,,,,,,,,,,,,,,,,,,,,,,,,,,,,,,,,,,,,,,,,,,,,,,,,,,,,,,,,,,,,,,,,,,,,,,,,,,,,,,,,,,,,,,,,,,,,,,
,,6139012c76a6707fb629ff55,2024-02-18_20h13.02.898,kallum_motion_pilot,2023.2.2,Win32,60.24096386,6139012c76a6707fb629ff55,65d2b6c8f2eece985d8e374c,65d2b91cc67a654a5c71c27a,0.0517,0.0517,1,28,190,124,1,sevenfive,,,,,,,,,,,,,,,,,,,,,,,,,,,,,,,,,,,,,,,,,,,,,,,,,,,,,,,,,,,,,,,,,,,,,,,,,,,,,,,,,,,,,,,,,,,,,,,,,,,,,,,,,,,,,,,,,,,,,,,,,,,,,,,,,,,,,,,,,
,,6139012c76a6707fb629ff55,2024-02-18_20h13.02.898,kallum_motion_pilot,2023.2.2,Win32,60.24096386,6139012c76a6707fb629ff55,65d2b6c8f2eece985d8e374c,65d2b91cc67a654a5c71c27a,0.0519,0.0519,1,29,191,161,1,fiveseven,,,,,,,,,,,,,,,,,,,,,,,,,,,,,,,,,,,,,,,,,,,,,,,,,,,,,,,,,,,,,,,,,,,,,,,,,,,,,,,,,,,,,,,,,,,,,,,,,,,,,,,,,,,,,,,,,,,,,,,,,,,,,,,,,,,,,,,,,
,,6139012c76a6707fb629ff55,2024-02-18_20h13.02.898,kallum_motion_pilot,2023.2.2,Win32,60.24096386,6139012c76a6707fb629ff55,65d2b6c8f2eece985d8e374c,65d2b91cc67a654a5c71c27a,0.0519,0.052,1,30,192,53,1,threefour,,,,,,,,,,,,,,,,,,,,,,,,,,,,,,,,,,,,,,,,,,,,,,,,,,,,,,,,,,,,,,,,,,,,,,,,,,,,,,,,,,,,,,,,,,,,,,,,,,,,,,,,,,,,,,,,,,,,,,,,,,,,,,,,,,,,,,,,,
,,6139012c76a6707fb629ff55,2024-02-18_20h13.02.898,kallum_motion_pilot,2023.2.2,Win32,60.24096386,6139012c76a6707fb629ff55,65d2b6c8f2eece985d8e374c,65d2b91cc67a654a5c71c27a,0.052,0.0521,1,31,193,40,1,onetwo,,,,,,,,,,,,,,,,,,,,,,,,,,,,,,,,,,,,,,,,,,,,,,,,,,,,,,,,,,,,,,,,,,,,,,,,,,,,,,,,,,,,,,,,,,,,,,,,,,,,,,,,,,,,,,,,,,,,,,,,,,,,,,,,,,,,,,,,,
,,6139012c76a6707fb629ff55,2024-02-18_20h13.02.898,kallum_motion_pilot,2023.2.2,Win32,60.24096386,6139012c76a6707fb629ff55,65d2b6c8f2eece985d8e374c,65d2b91cc67a654a5c71c27a,0.0522,0.0523,1,32,194,111,1,eightseven,,,,,,,,,,,,,,,,,,,,,,,,,,,,,,,,,,,,,,,,,,,,,,,,,,,,,,,,,,,,,,,,,,,,,,,,,,,,,,,,,,,,,,,,,,,,,,,,,,,,,,,,,,,,,,,,,,,,,,,,,,,,,,,,,,,,,,,,,
,,6139012c76a6707fb629ff55,2024-02-18_20h13.02.898,kallum_motion_pilot,2023.2.2,Win32,60.24096386,6139012c76a6707fb629ff55,65d2b6c8f2eece985d8e374c,65d2b91cc67a654a5c71c27a,0.0523,0.0524,1,33,195,31,1,fourthree,,,,,,,,,,,,,,,,,,,,,,,,,,,,,,,,,,,,,,,,,,,,,,,,,,,,,,,,,,,,,,,,,,,,,,,,,,,,,,,,,,,,,,,,,,,,,,,,,,,,,,,,,,,,,,,,,,,,,,,,,,,,,,,,,,,,,,,,,
,,6139012c76a6707fb629ff55,2024-02-18_20h13.02.898,kallum_motion_pilot,2023.2.2,Win32,60.24096386,6139012c76a6707fb629ff55,65d2b6c8f2eece985d8e374c,65d2b91cc67a654a5c71c27a,0.0524,0.0524,1,34,196,156,1,sevenfive,,,,,,,,,,,,,,,,,,,,,,,,,,,,,,,,,,,,,,,,,,,,,,,,,,,,,,,,,,,,,,,,,,,,,,,,,,,,,,,,,,,,,,,,,,,,,,,,,,,,,,,,,,,,,,,,,,,,,,,,,,,,,,,,,,,,,,,,,
,,6139012c76a6707fb629ff55,2024-02-18_20h13.02.898,kallum_motion_pilot,2023.2.2,Win32,60.24096386,6139012c76a6707fb629ff55,65d2b6c8f2eece985d8e374c,65d2b91cc67a654a5c71c27a,0.0525,0.0525,1,35,197,134,1,eightsix,,,,,,,,,,,,,,,,,,,,,,,,,,,,,,,,,,,,,,,,,,,,,,,,,,,,,,,,,,,,,,,,,,,,,,,,,,,,,,,,,,,,,,,,,,,,,,,,,,,,,,,,,,,,,,,,,,,,,,,,,,,,,,,,,,,,,,,,,
,,6139012c76a6707fb629ff55,2024-02-18_20h13.02.898,kallum_motion_pilot,2023.2.2,Win32,60.24096386,6139012c76a6707fb629ff55,65d2b6c8f2eece985d8e374c,65d2b91cc67a654a5c71c27a,0.0527,0.0527,1,36,198,149,1,seveneight,,,,,,,,,,,,,,,,,,,,,,,,,,,,,,,,,,,,,,,,,,,,,,,,,,,,,,,,,,,,,,,,,,,,,,,,,,,,,,,,,,,,,,,,,,,,,,,,,,,,,,,,,,,,,,,,,,,,,,,,,,,,,,,,,,,,,,,,,
,,6139012c76a6707fb629ff55,2024-02-18_20h13.02.898,kallum_motion_pilot,2023.2.2,Win32,60.24096386,6139012c76a6707fb629ff55,65d2b6c8f2eece985d8e374c,65d2b91cc67a654a5c71c27a,0.0528,0.0528,1,37,199,106,1,sixfive,,,,,,,,,,,,,,,,,,,,,,,,,,,,,,,,,,,,,,,,,,,,,,,,,,,,,,,,,,,,,,,,,,,,,,,,,,,,,,,,,,,,,,,,,,,,,,,,,,,,,,,,,,,,,,,,,,,,,,,,,,,,,,,,,,,,,,,,,
,,6139012c76a6707fb629ff55,2024-02-18_20h13.02.898,kallum_motion_pilot,2023.2.2,Win32,60.24096386,6139012c76a6707fb629ff55,65d2b6c8f2eece985d8e374c,65d2b91cc67a654a5c71c27a,0.0529,0.0529,1,38,200,3,1,twofour,,,,,,,,,,,,,,,,,,,,,,,,,,,,,,,,,,,,,,,,,,,,,,,,,,,,,,,,,,,,,,,,,,,,,,,,,,,,,,,,,,,,,,,,,,,,,,,,,,,,,,,,,,,,,,,,,,,,,,,,,,,,,,,,,,,,,,,,,
,,6139012c76a6707fb629ff55,2024-02-18_20h13.02.898,kallum_motion_pilot,2023.2.2,Win32,60.24096386,6139012c76a6707fb629ff55,65d2b6c8f2eece985d8e374c,65d2b91cc67a654a5c71c27a,0.0531,0.0531,1,39,201,139,1,sixeight,,,,,,,,,,,,,,,,,,,,,,,,,,,,,,,,,,,,,,,,,,,,,,,,,,,,,,,,,,,,,,,,,,,,,,,,,,,,,,,,,,,,,,,,,,,,,,,,,,,,,,,,,,,,,,,,,,,,,,,,,,,,,,,,,,,,,,,,,
,,6139012c76a6707fb629ff55,2024-02-18_20h13.02.898,kallum_motion_pilot,2023.2.2,Win32,60.24096386,6139012c76a6707fb629ff55,65d2b6c8f2eece985d8e374c,65d2b91cc67a654a5c71c27a,0.0531,0.0532,1,40,202,72,1,onetwo,,,,,,,,,,,,,,,,,,,,,,,,,,,,,,,,,,,,,,,,,,,,,,,,,,,,,,,,,,,,,,,,,,,,,,,,,,,,,,,,,,,,,,,,,,,,,,,,,,,,,,,,,,,,,,,,,,,,,,,,,,,,,,,,,,,,,,,,,
,,6139012c76a6707fb629ff55,2024-02-18_20h13.02.898,kallum_motion_pilot,2023.2.2,Win32,60.24096386,6139012c76a6707fb629ff55,65d2b6c8f2eece985d8e374c,65d2b91cc67a654a5c71c27a,0.0532,0.0533,1,41,203,101,1,seveneight,,,,,,,,,,,,,,,,,,,,,,,,,,,,,,,,,,,,,,,,,,,,,,,,,,,,,,,,,,,,,,,,,,,,,,,,,,,,,,,,,,,,,,,,,,,,,,,,,,,,,,,,,,,,,,,,,,,,,,,,,,,,,,,,,,,,,,,,,
,,6139012c76a6707fb629ff55,2024-02-18_20h13.02.898,kallum_motion_pilot,2023.2.2,Win32,60.24096386,6139012c76a6707fb629ff55,65d2b6c8f2eece985d8e374c,65d2b91cc67a654a5c71c27a,0.0534,0.0535,1,42,204,121,1,fiveseven,,,,,,,,,,,,,,,,,,,,,,,,,,,,,,,,,,,,,,,,,,,,,,,,,,,,,,,,,,,,,,,,,,,,,,,,,,,,,,,,,,,,,,,,,,,,,,,,,,,,,,,,,,,,,,,,,,,,,,,,,,,,,,,,,,,,,,,,,
,,6139012c76a6707fb629ff55,2024-02-18_20h13.02.898,kallum_motion_pilot,2023.2.2,Win32,60.24096386,6139012c76a6707fb629ff55,65d2b6c8f2eece985d8e374c,65d2b91cc67a654a5c71c27a,0.0535,0.0536,1,43,205,28,1,threeone,,,,,,,,,,,,,,,,,,,,,,,,,,,,,,,,,,,,,,,,,,,,,,,,,,,,,,,,,,,,,,,,,,,,,,,,,,,,,,,,,,,,,,,,,,,,,,,,,,,,,,,,,,,,,,,,,,,,,,,,,,,,,,,,,,,,,,,,,
,,6139012c76a6707fb629ff55,2024-02-18_20h13.02.898,kallum_motion_pilot,2023.2.2,Win32,60.24096386,6139012c76a6707fb629ff55,65d2b6c8f2eece985d8e374c,65d2b91cc67a654a5c71c27a,0.0536,0.0537,1,44,206,148,1,sevenfive,,,,,,,,,,,,,,,,,,,,,,,,,,,,,,,,,,,,,,,,,,,,,,,,,,,,,,,,,,,,,,,,,,,,,,,,,,,,,,,,,,,,,,,,,,,,,,,,,,,,,,,,,,,,,,,,,,,,,,,,,,,,,,,,,,,,,,,,,
,,6139012c76a6707fb629ff55,2024-02-18_20h13.02.898,kallum_motion_pilot,2023.2.2,Win32,60.24096386,6139012c76a6707fb629ff55,65d2b6c8f2eece985d8e374c,65d2b91cc67a654a5c71c27a,0.0537,0.0537,1,45,207,147,1,sixeight,,,,,,,,,,,,,,,,,,,,,,,,,,,,,,,,,,,,,,,,,,,,,,,,,,,,,,,,,,,,,,,,,,,,,,,,,,,,,,,,,,,,,,,,,,,,,,,,,,,,,,,,,,,,,,,,,,,,,,,,,,,,,,,,,,,,,,,,,
,,6139012c76a6707fb629ff55,2024-02-18_20h13.02.898,kallum_motion_pilot,2023.2.2,Win32,60.24096386,6139012c76a6707fb629ff55,65d2b6c8f2eece985d8e374c,65d2b91cc67a654a5c71c27a,0.0538,0.0539,1,46,208,160,1,fivesix,,,,,,,,,,,,,,,,,,,,,,,,,,,,,,,,,,,,,,,,,,,,,,,,,,,,,,,,,,,,,,,,,,,,,,,,,,,,,,,,,,,,,,,,,,,,,,,,,,,,,,,,,,,,,,,,,,,,,,,,,,,,,,,,,,,,,,,,,
,,6139012c76a6707fb629ff55,2024-02-18_20h13.02.898,kallum_motion_pilot,2023.2.2,Win32,60.24096386,6139012c76a6707fb629ff55,65d2b6c8f2eece985d8e374c,65d2b91cc67a654a5c71c27a,0.054,0.054,1,47,209,131,1,sixeight,,,,,,,,,,,,,,,,,,,,,,,,,,,,,,,,,,,,,,,,,,,,,,,,,,,,,,,,,,,,,,,,,,,,,,,,,,,,,,,,,,,,,,,,,,,,,,,,,,,,,,,,,,,,,,,,,,,,,,,,,,,,,,,,,,,,,,,,,
,,6139012c76a6707fb629ff55,2024-02-18_20h13.02.898,kallum_motion_pilot,2023.2.2,Win32,60.24096386,6139012c76a6707fb629ff55,65d2b6c8f2eece985d8e374c,65d2b91cc67a654a5c71c27a,0.0541,0.0541,1,48,210,117,1,seveneight,,,,,,,,,,,,,,,,,,,,,,,,,,,,,,,,,,,,,,,,,,,,,,,,,,,,,,,,,,,,,,,,,,,,,,,,,,,,,,,,,,,,,,,,,,,,,,,,,,,,,,,,,,,,,,,,,,,,,,,,,,,,,,,,,,,,,,,,,
,,6139012c76a6707fb629ff55,2024-02-18_20h13.02.898,kallum_motion_pilot,2023.2.2,Win32,60.24096386,6139012c76a6707fb629ff55,65d2b6c8f2eece985d8e374c,65d2b91cc67a654a5c71c27a,0.0543,0.0543,1,49,211,50,1,twoone,,,,,,,,,,,,,,,,,,,,,,,,,,,,,,,,,,,,,,,,,,,,,,,,,,,,,,,,,,,,,,,,,,,,,,,,,,,,,,,,,,,,,,,,,,,,,,,,,,,,,,,,,,,,,,,,,,,,,,,,,,,,,,,,,,,,,,,,,
,,6139012c76a6707fb629ff55,2024-02-18_20h13.02.898,kallum_motion_pilot,2023.2.2,Win32,60.24096386,6139012c76a6707fb629ff55,65d2b6c8f2eece985d8e374c,65d2b91cc67a654a5c71c27a,0.0544,0.0544,1,50,212,34,1,twoone,,,,,,,,,,,,,,,,,,,,,,,,,,,,,,,,,,,,,,,,,,,,,,,,,,,,,,,,,,,,,,,,,,,,,,,,,,,,,,,,,,,,,,,,,,,,,,,,,,,,,,,,,,,,,,,,,,,,,,,,,,,,,,,,,,,,,,,,,
,,6139012c76a6707fb629ff55,2024-02-18_20h13.02.898,kallum_motion_pilot,2023.2.2,Win32,60.24096386,6139012c76a6707fb629ff55,65d2b6c8f2eece985d8e374c,65d2b91cc67a654a5c71c27a,0.0545,0.0546,1,51,213,126,1,eightsix,,,,,,,,,,,,,,,,,,,,,,,,,,,,,,,,,,,,,,,,,,,,,,,,,,,,,,,,,,,,,,,,,,,,,,,,,,,,,,,,,,,,,,,,,,,,,,,,,,,,,,,,,,,,,,,,,,,,,,,,,,,,,,,,,,,,,,,,,
,,6139012c76a6707fb629ff55,2024-02-18_20h13.02.898,kallum_motion_pilot,2023.2.2,Win32,60.24096386,6139012c76a6707fb629ff55,65d2b6c8f2eece985d8e374c,65d2b91cc67a654a5c71c27a,0.0546,0.0547,1,52,214,113,1,fiveseven,,,,,,,,,,,,,,,,,,,,,,,,,,,,,,,,,,,,,,,,,,,,,,,,,,,,,,,,,,,,,,,,,,,,,,,,,,,,,,,,,,,,,,,,,,,,,,,,,,,,,,,,,,,,,,,,,,,,,,,,,,,,,,,,,,,,,,,,,
,,6139012c76a6707fb629ff55,2024-02-18_20h13.02.898,kallum_motion_pilot,2023.2.2,Win32,60.24096386,6139012c76a6707fb629ff55,65d2b6c8f2eece985d8e374c,65d2b91cc67a654a5c71c27a,0.0548,0.0548,1,53,215,54,1,fourtwo,,,,,,,,,,,,,,,,,,,,,,,,,,,,,,,,,,,,,,,,,,,,,,,,,,,,,,,,,,,,,,,,,,,,,,,,,,,,,,,,,,,,,,,,,,,,,,,,,,,,,,,,,,,,,,,,,,,,,,,,,,,,,,,,,,,,,,,,,
,,6139012c76a6707fb629ff55,2024-02-18_20h13.02.898,kallum_motion_pilot,2023.2.2,Win32,60.24096386,6139012c76a6707fb629ff55,65d2b6c8f2eece985d8e374c,65d2b91cc67a654a5c71c27a,0.0549,0.055,1,54,216,61,1,threefour,,,,,,,,,,,,,,,,,,,,,,,,,,,,,,,,,,,,,,,,,,,,,,,,,,,,,,,,,,,,,,,,,,,,,,,,,,,,,,,,,,,,,,,,,,,,,,,,,,,,,,,,,,,,,,,,,,,,,,,,,,,,,,,,,,,,,,,,,
,,6139012c76a6707fb629ff55,2024-02-18_20h13.02.898,kallum_motion_pilot,2023.2.2,Win32,60.24096386,6139012c76a6707fb629ff55,65d2b6c8f2eece985d8e374c,65d2b91cc67a654a5c71c27a,0.055,0.0551,1,55,217,118,1,eightsix,,,,,,,,,,,,,,,,,,,,,,,,,,,,,,,,,,,,,,,,,,,,,,,,,,,,,,,,,,,,,,,,,,,,,,,,,,,,,,,,,,,,,,,,,,,,,,,,,,,,,,,,,,,,,,,,,,,,,,,,,,,,,,,,,,,,,,,,,
,,6139012c76a6707fb629ff55,2024-02-18_20h13.02.898,kallum_motion_pilot,2023.2.2,Win32,60.24096386,6139012c76a6707fb629ff55,65d2b6c8f2eece985d8e374c,65d2b91cc67a654a5c71c27a,0.0552,0.0552,1,56,218,88,1,fivesix,,,,,,,,,,,,,,,,,,,,,,,,,,,,,,,,,,,,,,,,,,,,,,,,,,,,,,,,,,,,,,,,,,,,,,,,,,,,,,,,,,,,,,,,,,,,,,,,,,,,,,,,,,,,,,,,,,,,,,,,,,,,,,,,,,,,,,,,,
,,6139012c76a6707fb629ff55,2024-02-18_20h13.02.898,kallum_motion_pilot,2023.2.2,Win32,60.24096386,6139012c76a6707fb629ff55,65d2b6c8f2eece985d8e374c,65d2b91cc67a654a5c71c27a,0.0553,0.0553,1,57,219,130,1,sixfive,,,,,,,,,,,,,,,,,,,,,,,,,,,,,,,,,,,,,,,,,,,,,,,,,,,,,,,,,,,,,,,,,,,,,,,,,,,,,,,,,,,,,,,,,,,,,,,,,,,,,,,,,,,,,,,,,,,,,,,,,,,,,,,,,,,,,,,,,
,,6139012c76a6707fb629ff55,2024-02-18_20h13.02.898,kallum_motion_pilot,2023.2.2,Win32,60.24096386,6139012c76a6707fb629ff55,65d2b6c8f2eece985d8e374c,65d2b91cc67a654a5c71c27a,0.0553,0.0555,1,58,220,154,1,sixfive,,,,,,,,,,,,,,,,,,,,,,,,,,,,,,,,,,,,,,,,,,,,,,,,,,,,,,,,,,,,,,,,,,,,,,,,,,,,,,,,,,,,,,,,,,,,,,,,,,,,,,,,,,,,,,,,,,,,,,,,,,,,,,,,,,,,,,,,,
,,6139012c76a6707fb629ff55,2024-02-18_20h13.02.898,kallum_motion_pilot,2023.2.2,Win32,60.24096386,6139012c76a6707fb629ff55,65d2b6c8f2eece985d8e374c,65d2b91cc67a654a5c71c27a,0.0556,0.0557,1,59,221,70,1,fourtwo,,,,,,,,,,,,,,,,,,,,,,,,,,,,,,,,,,,,,,,,,,,,,,,,,,,,,,,,,,,,,,,,,,,,,,,,,,,,,,,,,,,,,,,,,,,,,,,,,,,,,,,,,,,,,,,,,,,,,,,,,,,,,,,,,,,,,,,,,
,,6139012c76a6707fb629ff55,2024-02-18_20h13.02.898,kallum_motion_pilot,2023.2.2,Win32,60.24096386,6139012c76a6707fb629ff55,65d2b6c8f2eece985d8e374c,65d2b91cc67a654a5c71c27a,0.0559,0.056,1,60,222,89,1,fiveseven,,,,,,,,,,,,,,,,,,,,,,,,,,,,,,,,,,,,,,,,,,,,,,,,,,,,,,,,,,,,,,,,,,,,,,,,,,,,,,,,,,,,,,,,,,,,,,,,,,,,,,,,,,,,,,,,,,,,,,,,,,,,,,,,,,,,,,,,,
,,6139012c76a6707fb629ff55,2024-02-18_20h13.02.898,kallum_motion_pilot,2023.2.2,Win32,60.24096386,6139012c76a6707fb629ff55,65d2b6c8f2eece985d8e374c,65d2b91cc67a654a5c71c27a,0.0562,0.0562,1,61,223,110,1,eightsix,,,,,,,,,,,,,,,,,,,,,,,,,,,,,,,,,,,,,,,,,,,,,,,,,,,,,,,,,,,,,,,,,,,,,,,,,,,,,,,,,,,,,,,,,,,,,,,,,,,,,,,,,,,,,,,,,,,,,,,,,,,,,,,,,,,,,,,,,
,,6139012c76a6707fb629ff55,2024-02-18_20h13.02.898,kallum_motion_pilot,2023.2.2,Win32,60.24096386,6139012c76a6707fb629ff55,65d2b6c8f2eece985d8e374c,65d2b91cc67a654a5c71c27a,0.0564,0.0565,1,62,224,143,1,eightseven,,,,,,,,,,,,,,,,,,,,,,,,,,,,,,,,,,,,,,,,,,,,,,,,,,,,,,,,,,,,,,,,,,,,,,,,,,,,,,,,,,,,,,,,,,,,,,,,,,,,,,,,,,,,,,,,,,,,,,,,,,,,,,,,,,,,,,,,,
,,6139012c76a6707fb629ff55,2024-02-18_20h13.02.898,kallum_motion_pilot,2023.2.2,Win32,60.24096386,6139012c76a6707fb629ff55,65d2b6c8f2eece985d8e374c,65d2b91cc67a654a5c71c27a,0.0567,0.0569,1,63,225,107,1,sixeight,,,,,,,,,,,,,,,,,,,,,,,,,,,,,,,,,,,,,,,,,,,,,,,,,,,,,,,,,,,,,,,,,,,,,,,,,,,,,,,,,,,,,,,,,,,,,,,,,,,,,,,,,,,,,,,,,,,,,,,,,,,,,,,,,,,,,,,,,
,,6139012c76a6707fb629ff55,2024-02-18_20h13.02.898,kallum_motion_pilot,2023.2.2,Win32,60.24096386,6139012c76a6707fb629ff55,65d2b6c8f2eece985d8e374c,65d2b91cc67a654a5c71c27a,0.057,0.0571,1,64,226,123,1,sixeight,,,,,,,,,,,,,,,,,,,,,,,,,,,,,,,,,,,,,,,,,,,,,,,,,,,,,,,,,,,,,,,,,,,,,,,,,,,,,,,,,,,,,,,,,,,,,,,,,,,,,,,,,,,,,,,,,,,,,,,,,,,,,,,,,,,,,,,,,
,,6139012c76a6707fb629ff55,2024-02-18_20h13.02.898,kallum_motion_pilot,2023.2.2,Win32,60.24096386,6139012c76a6707fb629ff55,65d2b6c8f2eece985d8e374c,65d2b91cc67a654a5c71c27a,0.0572,0.0574,1,65,227,58,1,twoone,,,,,,,,,,,,,,,,,,,,,,,,,,,,,,,,,,,,,,,,,,,,,,,,,,,,,,,,,,,,,,,,,,,,,,,,,,,,,,,,,,,,,,,,,,,,,,,,,,,,,,,,,,,,,,,,,,,,,,,,,,,,,,,,,,,,,,,,,
,,6139012c76a6707fb629ff55,2024-02-18_20h13.02.898,kallum_motion_pilot,2023.2.2,Win32,60.24096386,6139012c76a6707fb629ff55,65d2b6c8f2eece985d8e374c,65d2b91cc67a654a5c71c27a,0.0575,0.0577,1,66,228,91,1,sixeight,,,,,,,,,,,,,,,,,,,,,,,,,,,,,,,,,,,,,,,,,,,,,,,,,,,,,,,,,,,,,,,,,,,,,,,,,,,,,,,,,,,,,,,,,,,,,,,,,,,,,,,,,,,,,,,,,,,,,,,,,,,,,,,,,,,,,,,,,
,,6139012c76a6707fb629ff55,2024-02-18_20h13.02.898,kallum_motion_pilot,2023.2.2,Win32,60.24096386,6139012c76a6707fb629ff55,65d2b6c8f2eece985d8e374c,65d2b91cc67a654a5c71c27a,0.0578,0.0579,1,67,229,155,1,sixeight,,,,,,,,,,,,,,,,,,,,,,,,,,,,,,,,,,,,,,,,,,,,,,,,,,,,,,,,,,,,,,,,,,,,,,,,,,,,,,,,,,,,,,,,,,,,,,,,,,,,,,,,,,,,,,,,,,,,,,,,,,,,,,,,,,,,,,,,,
,,6139012c76a6707fb629ff55,2024-02-18_20h13.02.898,kallum_motion_pilot,2023.2.2,Win32,60.24096386,6139012c76a6707fb629ff55,65d2b6c8f2eece985d8e374c,65d2b91cc67a654a5c71c27a,0.0579,0.0579,1,68,230,4,1,threeone,,,,,,,,,,,,,,,,,,,,,,,,,,,,,,,,,,,,,,,,,,,,,,,,,,,,,,,,,,,,,,,,,,,,,,,,,,,,,,,,,,,,,,,,,,,,,,,,,,,,,,,,,,,,,,,,,,,,,,,,,,,,,,,,,,,,,,,,,
,,6139012c76a6707fb629ff55,2024-02-18_20h13.02.898,kallum_motion_pilot,2023.2.2,Win32,60.24096386,6139012c76a6707fb629ff55,65d2b6c8f2eece985d8e374c,65d2b91cc67a654a5c71c27a,0.058,0.0581,1,69,231,37,1,threefour,,,,,,,,,,,,,,,,,,,,,,,,,,,,,,,,,,,,,,,,,,,,,,,,,,,,,,,,,,,,,,,,,,,,,,,,,,,,,,,,,,,,,,,,,,,,,,,,,,,,,,,,,,,,,,,,,,,,,,,,,,,,,,,,,,,,,,,,,
,,6139012c76a6707fb629ff55,2024-02-18_20h13.02.898,kallum_motion_pilot,2023.2.2,Win32,60.24096386,6139012c76a6707fb629ff55,65d2b6c8f2eece985d8e374c,65d2b91cc67a654a5c71c27a,0.0581,0.0582,1,70,232,38,1,fourtwo,,,,,,,,,,,,,,,,,,,,,,,,,,,,,,,,,,,,,,,,,,,,,,,,,,,,,,,,,,,,,,,,,,,,,,,,,,,,,,,,,,,,,,,,,,,,,,,,,,,,,,,,,,,,,,,,,,,,,,,,,,,,,,,,,,,,,,,,,
,,6139012c76a6707fb629ff55,2024-02-18_20h13.02.898,kallum_motion_pilot,2023.2.2,Win32,60.24096386,6139012c76a6707fb629ff55,65d2b6c8f2eece985d8e374c,65d2b91cc67a654a5c71c27a,0.0583,0.0583,1,71,233,20,1,threeone,,,,,,,,,,,,,,,,,,,,,,,,,,,,,,,,,,,,,,,,,,,,,,,,,,,,,,,,,,,,,,,,,,,,,,,,,,,,,,,,,,,,,,,,,,,,,,,,,,,,,,,,,,,,,,,,,,,,,,,,,,,,,,,,,,,,,,,,,
,,6139012c76a6707fb629ff55,2024-02-18_20h13.02.898,kallum_motion_pilot,2023.2.2,Win32,60.24096386,6139012c76a6707fb629ff55,65d2b6c8f2eece985d8e374c,65d2b91cc67a654a5c71c27a,0.0584,0.0585,1,72,234,116,1,sevenfive,,,,,,,,,,,,,,,,,,,,,,,,,,,,,,,,,,,,,,,,,,,,,,,,,,,,,,,,,,,,,,,,,,,,,,,,,,,,,,,,,,,,,,,,,,,,,,,,,,,,,,,,,,,,,,,,,,,,,,,,,,,,,,,,,,,,,,,,,
,,6139012c76a6707fb629ff55,2024-02-18_20h13.02.898,kallum_motion_pilot,2023.2.2,Win32,60.24096386,6139012c76a6707fb629ff55,65d2b6c8f2eece985d8e374c,65d2b91cc67a654a5c71c27a,0.0585,0.0586,1,73,235,57,1,onethree,,,,,,,,,,,,,,,,,,,,,,,,,,,,,,,,,,,,,,,,,,,,,,,,,,,,,,,,,,,,,,,,,,,,,,,,,,,,,,,,,,,,,,,,,,,,,,,,,,,,,,,,,,,,,,,,,,,,,,,,,,,,,,,,,,,,,,,,,
,,6139012c76a6707fb629ff55,2024-02-18_20h13.02.898,kallum_motion_pilot,2023.2.2,Win32,60.24096386,6139012c76a6707fb629ff55,65d2b6c8f2eece985d8e374c,65d2b91cc67a654a5c71c27a,0.0587,0.0587,1,74,236,75,1,twofour,,,,,,,,,,,,,,,,,,,,,,,,,,,,,,,,,,,,,,,,,,,,,,,,,,,,,,,,,,,,,,,,,,,,,,,,,,,,,,,,,,,,,,,,,,,,,,,,,,,,,,,,,,,,,,,,,,,,,,,,,,,,,,,,,,,,,,,,,
,,6139012c76a6707fb629ff55,2024-02-18_20h13.02.898,kallum_motion_pilot,2023.2.2,Win32,60.24096386,6139012c76a6707fb629ff55,65d2b6c8f2eece985d8e374c,65d2b91cc67a654a5c71c27a,0.0588,0.0588,1,75,237,153,1,fiveseven,,,,,,,,,,,,,,,,,,,,,,,,,,,,,,,,,,,,,,,,,,,,,,,,,,,,,,,,,,,,,,,,,,,,,,,,,,,,,,,,,,,,,,,,,,,,,,,,,,,,,,,,,,,,,,,,,,,,,,,,,,,,,,,,,,,,,,,,,
,,6139012c76a6707fb629ff55,2024-02-18_20h13.02.898,kallum_motion_pilot,2023.2.2,Win32,60.24096386,6139012c76a6707fb629ff55,65d2b6c8f2eece985d8e374c,65d2b91cc67a654a5c71c27a,0.0589,0.059,1,76,238,112,1,fivesix,,,,,,,,,,,,,,,,,,,,,,,,,,,,,,,,,,,,,,,,,,,,,,,,,,,,,,,,,,,,,,,,,,,,,,,,,,,,,,,,,,,,,,,,,,,,,,,,,,,,,,,,,,,,,,,,,,,,,,,,,,,,,,,,,,,,,,,,,
,,6139012c76a6707fb629ff55,2024-02-18_20h13.02.898,kallum_motion_pilot,2023.2.2,Win32,60.24096386,6139012c76a6707fb629ff55,65d2b6c8f2eece985d8e374c,65d2b91cc67a654a5c71c27a,0.059,0.0591,1,77,239,43,1,twofour,,,,,,,,,,,,,,,,,,,,,,,,,,,,,,,,,,,,,,,,,,,,,,,,,,,,,,,,,,,,,,,,,,,,,,,,,,,,,,,,,,,,,,,,,,,,,,,,,,,,,,,,,,,,,,,,,,,,,,,,,,,,,,,,,,,,,,,,,
,,6139012c76a6707fb629ff55,2024-02-18_20h13.02.898,kallum_motion_pilot,2023.2.2,Win32,60.24096386,6139012c76a6707fb629ff55,65d2b6c8f2eece985d8e374c,65d2b91cc67a654a5c71c27a,0.0592,0.0592,1,78,240,86,1,eightsix,,,,,,,,,,,,,,,,,,,,,,,,,,,,,,,,,,,,,,,,,,,,,,,,,,,,,,,,,,,,,,,,,,,,,,,,,,,,,,,,,,,,,,,,,,,,,,,,,,,,,,,,,,,,,,,,,,,,,,,,,,,,,,,,,,,,,,,,,
,,6139012c76a6707fb629ff55,2024-02-18_20h13.02.898,kallum_motion_pilot,2023.2.2,Win32,60.24096386,6139012c76a6707fb629ff55,65d2b6c8f2eece985d8e374c,65d2b91cc67a654a5c71c27a,0.0593,0.0594,1,79,241,51,1,twofour,,,,,,,,,,,,,,,,,,,,,,,,,,,,,,,,,,,,,,,,,,,,,,,,,,,,,,,,,,,,,,,,,,,,,,,,,,,,,,,,,,,,,,,,,,,,,,,,,,,,,,,,,,,,,,,,,,,,,,,,,,,,,,,,,,,,,,,,,
,,6139012c76a6707fb629ff55,2024-02-18_20h13.02.898,kallum_motion_pilot,2023.2.2,Win32,60.24096386,6139012c76a6707fb629ff55,65d2b6c8f2eece985d8e374c,65d2b91cc67a654a5c71c27a,0.0595,0.0595,1,80,242,65,1,onethree,,,,,,,,,,,,,,,,,,,,,,,,,,,,,,,,,,,,,,,,,,,,,,,,,,,,,,,,,,,,,,,,,,,,,,,,,,,,,,,,,,,,,,,,,,,,,,,,,,,,,,,,,,,,,,,,,,,,,,,,,,,,,,,,,,,,,,,,,
,,6139012c76a6707fb629ff55,2024-02-18_20h13.02.898,kallum_motion_pilot,2023.2.2,Win32,60.24096386,6139012c76a6707fb629ff55,65d2b6c8f2eece985d8e374c,65d2b91cc67a654a5c71c27a,0.0596,0.0596,1,81,243,33,1,onethree,,,,,,,,,,,,,,,,,,,,,,,,,,,,,,,,,,,,,,,,,,,,,,,,,,,,,,,,,,,,,,,,,,,,,,,,,,,,,,,,,,,,,,,,,,,,,,,,,,,,,,,,,,,,,,,,,,,,,,,,,,,,,,,,,,,,,,,,,
,,6139012c76a6707fb629ff55,2024-02-18_20h13.02.898,kallum_motion_pilot,2023.2.2,Win32,60.24096386,6139012c76a6707fb629ff55,65d2b6c8f2eece985d8e374c,65d2b91cc67a654a5c71c27a,0.0597,0.0597,1,82,244,26,1,twoone,,,,,,,,,,,,,,,,,,,,,,,,,,,,,,,,,,,,,,,,,,,,,,,,,,,,,,,,,,,,,,,,,,,,,,,,,,,,,,,,,,,,,,,,,,,,,,,,,,,,,,,,,,,,,,,,,,,,,,,,,,,,,,,,,,,,,,,,,
,,6139012c76a6707fb629ff55,2024-02-18_20h13.02.898,kallum_motion_pilot,2023.2.2,Win32,60.24096386,6139012c76a6707fb629ff55,65d2b6c8f2eece985d8e374c,65d2b91cc67a654a5c71c27a,0.0598,0.0599,1,83,245,115,1,sixeight,,,,,,,,,,,,,,,,,,,,,,,,,,,,,,,,,,,,,,,,,,,,,,,,,,,,,,,,,,,,,,,,,,,,,,,,,,,,,,,,,,,,,,,,,,,,,,,,,,,,,,,,,,,,,,,,,,,,,,,,,,,,,,,,,,,,,,,,,
,,6139012c76a6707fb629ff55,2024-02-18_20h13.02.898,kallum_motion_pilot,2023.2.2,Win32,60.24096386,6139012c76a6707fb629ff55,65d2b6c8f2eece985d8e374c,65d2b91cc67a654a5c71c27a,0.0599,0.06,1,84,246,52,1,threeone,,,,,,,,,,,,,,,,,,,,,,,,,,,,,,,,,,,,,,,,,,,,,,,,,,,,,,,,,,,,,,,,,,,,,,,,,,,,,,,,,,,,,,,,,,,,,,,,,,,,,,,,,,,,,,,,,,,,,,,,,,,,,,,,,,,,,,,,,
,,6139012c76a6707fb629ff55,2024-02-18_20h13.02.898,kallum_motion_pilot,2023.2.2,Win32,60.24096386,6139012c76a6707fb629ff55,65d2b6c8f2eece985d8e374c,65d2b91cc67a654a5c71c27a,0.06,0.0601,1,85,247,71,1,fourthree,,,,,,,,,,,,,,,,,,,,,,,,,,,,,,,,,,,,,,,,,,,,,,,,,,,,,,,,,,,,,,,,,,,,,,,,,,,,,,,,,,,,,,,,,,,,,,,,,,,,,,,,,,,,,,,,,,,,,,,,,,,,,,,,,,,,,,,,,
,,6139012c76a6707fb629ff55,2024-02-18_20h13.02.898,kallum_motion_pilot,2023.2.2,Win32,60.24096386,6139012c76a6707fb629ff55,65d2b6c8f2eece985d8e374c,65d2b91cc67a654a5c71c27a,0.0601,0.0602,1,86,248,5,1,threefour,,,,,,,,,,,,,,,,,,,,,,,,,,,,,,,,,,,,,,,,,,,,,,,,,,,,,,,,,,,,,,,,,,,,,,,,,,,,,,,,,,,,,,,,,,,,,,,,,,,,,,,,,,,,,,,,,,,,,,,,,,,,,,,,,,,,,,,,,
,,6139012c76a6707fb629ff55,2024-02-18_20h13.02.898,kallum_motion_pilot,2023.2.2,Win32,60.24096386,6139012c76a6707fb629ff55,65d2b6c8f2eece985d8e374c,65d2b91cc67a654a5c71c27a,0.0603,0.0603,1,87,249,158,1,eightsix,,,,,,,,,,,,,,,,,,,,,,,,,,,,,,,,,,,,,,,,,,,,,,,,,,,,,,,,,,,,,,,,,,,,,,,,,,,,,,,,,,,,,,,,,,,,,,,,,,,,,,,,,,,,,,,,,,,,,,,,,,,,,,,,,,,,,,,,,
,,6139012c76a6707fb629ff55,2024-02-18_20h13.02.898,kallum_motion_pilot,2023.2.2,Win32,60.24096386,6139012c76a6707fb629ff55,65d2b6c8f2eece985d8e374c,65d2b91cc67a654a5c71c27a,0.0604,0.0605,1,88,250,64,1,onetwo,,,,,,,,,,,,,,,,,,,,,,,,,,,,,,,,,,,,,,,,,,,,,,,,,,,,,,,,,,,,,,,,,,,,,,,,,,,,,,,,,,,,,,,,,,,,,,,,,,,,,,,,,,,,,,,,,,,,,,,,,,,,,,,,,,,,,,,,,
,,6139012c76a6707fb629ff55,2024-02-18_20h13.02.898,kallum_motion_pilot,2023.2.2,Win32,60.24096386,6139012c76a6707fb629ff55,65d2b6c8f2eece985d8e374c,65d2b91cc67a654a5c71c27a,0.0606,0.0607,1,89,251,17,1,onethree,,,,,,,,,,,,,,,,,,,,,,,,,,,,,,,,,,,,,,,,,,,,,,,,,,,,,,,,,,,,,,,,,,,,,,,,,,,,,,,,,,,,,,,,,,,,,,,,,,,,,,,,,,,,,,,,,,,,,,,,,,,,,,,,,,,,,,,,,
,,6139012c76a6707fb629ff55,2024-02-18_20h13.02.898,kallum_motion_pilot,2023.2.2,Win32,60.24096386,6139012c76a6707fb629ff55,65d2b6c8f2eece985d8e374c,65d2b91cc67a654a5c71c27a,0.0607,0.0608,1,90,252,87,1,eightseven,,,,,,,,,,,,,,,,,,,,,,,,,,,,,,,,,,,,,,,,,,,,,,,,,,,,,,,,,,,,,,,,,,,,,,,,,,,,,,,,,,,,,,,,,,,,,,,,,,,,,,,,,,,,,,,,,,,,,,,,,,,,,,,,,,,,,,,,,
,,6139012c76a6707fb629ff55,2024-02-18_20h13.02.898,kallum_motion_pilot,2023.2.2,Win32,60.24096386,6139012c76a6707fb629ff55,65d2b6c8f2eece985d8e374c,65d2b91cc67a654a5c71c27a,0.0608,0.061,1,91,253,137,1,fiveseven,,,,,,,,,,,,,,,,,,,,,,,,,,,,,,,,,,,,,,,,,,,,,,,,,,,,,,,,,,,,,,,,,,,,,,,,,,,,,,,,,,,,,,,,,,,,,,,,,,,,,,,,,,,,,,,,,,,,,,,,,,,,,,,,,,,,,,,,,
,,6139012c76a6707fb629ff55,2024-02-18_20h13.02.898,kallum_motion_pilot,2023.2.2,Win32,60.24096386,6139012c76a6707fb629ff55,65d2b6c8f2eece985d8e374c,65d2b91cc67a654a5c71c27a,0.061,0.061,1,92,254,74,1,twoone,,,,,,,,,,,,,,,,,,,,,,,,,,,,,,,,,,,,,,,,,,,,,,,,,,,,,,,,,,,,,,,,,,,,,,,,,,,,,,,,,,,,,,,,,,,,,,,,,,,,,,,,,,,,,,,,,,,,,,,,,,,,,,,,,,,,,,,,,
,,6139012c76a6707fb629ff55,2024-02-18_20h13.02.898,kallum_motion_pilot,2023.2.2,Win32,60.24096386,6139012c76a6707fb629ff55,65d2b6c8f2eece985d8e374c,65d2b91cc67a654a5c71c27a,0.0612,0.0613,1,93,255,157,1,seveneight,,,,,,,,,,,,,,,,,,,,,,,,,,,,,,,,,,,,,,,,,,,,,,,,,,,,,,,,,,,,,,,,,,,,,,,,,,,,,,,,,,,,,,,,,,,,,,,,,,,,,,,,,,,,,,,,,,,,,,,,,,,,,,,,,,,,,,,,,
,,6139012c76a6707fb629ff55,2024-02-18_20h13.02.898,kallum_motion_pilot,2023.2.2,Win32,60.24096386,6139012c76a6707fb629ff55,65d2b6c8f2eece985d8e374c,65d2b91cc67a654a5c71c27a,0.0614,0.0615,1,94,256,152,1,fivesix,,,,,,,,,,,,,,,,,,,,,,,,,,,,,,,,,,,,,,,,,,,,,,,,,,,,,,,,,,,,,,,,,,,,,,,,,,,,,,,,,,,,,,,,,,,,,,,,,,,,,,,,,,,,,,,,,,,,,,,,,,,,,,,,,,,,,,,,,
,,6139012c76a6707fb629ff55,2024-02-18_20h13.02.898,kallum_motion_pilot,2023.2.2,Win32,60.24096386,6139012c76a6707fb629ff55,65d2b6c8f2eece985d8e374c,65d2b91cc67a654a5c71c27a,0.0615,0.0616,1,95,257,133,1,seveneight,,,,,,,,,,,,,,,,,,,,,,,,,,,,,,,,,,,,,,,,,,,,,,,,,,,,,,,,,,,,,,,,,,,,,,,,,,,,,,,,,,,,,,,,,,,,,,,,,,,,,,,,,,,,,,,,,,,,,,,,,,,,,,,,,,,,,,,,,
,,6139012c76a6707fb629ff55,2024-02-18_20h13.02.898,kallum_motion_pilot,2023.2.2,Win32,60.24096386,6139012c76a6707fb629ff55,65d2b6c8f2eece985d8e374c,65d2b91cc67a654a5c71c27a,0.0616,0.0617,1,96,258,59,1,twofour,,,,,,,,,,,,,,,,,,,,,,,,,,,,,,,,,,,,,,,,,,,,,,,,,,,,,,,,,,,,,,,,,,,,,,,,,,,,,,,,,,,,,,,,,,,,,,,,,,,,,,,,,,,,,,,,,,,,,,,,,,,,,,,,,,,,,,,,,
,,6139012c76a6707fb629ff55,2024-02-18_20h13.02.898,kallum_motion_pilot,2023.2.2,Win32,60.24096386,6139012c76a6707fb629ff55,65d2b6c8f2eece985d8e374c,65d2b91cc67a654a5c71c27a,0.0617,0.0618,1,97,259,95,1,eightseven,,,,,,,,,,,,,,,,,,,,,,,,,,,,,,,,,,,,,,,,,,,,,,,,,,,,,,,,,,,,,,,,,,,,,,,,,,,,,,,,,,,,,,,,,,,,,,,,,,,,,,,,,,,,,,,,,,,,,,,,,,,,,,,,,,,,,,,,,
,,6139012c76a6707fb629ff55,2024-02-18_20h13.02.898,kallum_motion_pilot,2023.2.2,Win32,60.24096386,6139012c76a6707fb629ff55,65d2b6c8f2eece985d8e374c,65d2b91cc67a654a5c71c27a,0.0618,0.0619,1,98,260,80,1,fivesix,,,,,,,,,,,,,,,,,,,,,,,,,,,,,,,,,,,,,,,,,,,,,,,,,,,,,,,,,,,,,,,,,,,,,,,,,,,,,,,,,,,,,,,,,,,,,,,,,,,,,,,,,,,,,,,,,,,,,,,,,,,,,,,,,,,,,,,,,
,,6139012c76a6707fb629ff55,2024-02-18_20h13.02.898,kallum_motion_pilot,2023.2.2,Win32,60.24096386,6139012c76a6707fb629ff55,65d2b6c8f2eece985d8e374c,65d2b91cc67a654a5c71c27a,0.062,0.0621,1,99,261,122,1,sixfive,,,,,,,,,,,,,,,,,,,,,,,,,,,,,,,,,,,,,,,,,,,,,,,,,,,,,,,,,,,,,,,,,,,,,,,,,,,,,,,,,,,,,,,,,,,,,,,,,,,,,,,,,,,,,,,,,,,,,,,,,,,,,,,,,,,,,,,,,
,,6139012c76a6707fb629ff55,2024-02-18_20h13.02.898,kallum_motion_pilot,2023.2.2,Win32,60.24096386,6139012c76a6707fb629ff55,65d2b6c8f2eece985d8e374c,65d2b91cc67a654a5c71c27a,0.0621,0.0622,1,100,262,102,1,eightsix,,,,,,,,,,,,,,,,,,,,,,,,,,,,,,,,,,,,,,,,,,,,,,,,,,,,,,,,,,,,,,,,,,,,,,,,,,,,,,,,,,,,,,,,,,,,,,,,,,,,,,,,,,,,,,,,,,,,,,,,,,,,,,,,,,,,,,,,,
,,6139012c76a6707fb629ff55,2024-02-18_20h13.02.898,kallum_motion_pilot,2023.2.2,Win32,60.24096386,6139012c76a6707fb629ff55,65d2b6c8f2eece985d8e374c,65d2b91cc67a654a5c71c27a,0.0622,0.0623,1,101,263,99,1,sixeight,,,,,,,,,,,,,,,,,,,,,,,,,,,,,,,,,,,,,,,,,,,,,,,,,,,,,,,,,,,,,,,,,,,,,,,,,,,,,,,,,,,,,,,,,,,,,,,,,,,,,,,,,,,,,,,,,,,,,,,,,,,,,,,,,,,,,,,,,
,,6139012c76a6707fb629ff55,2024-02-18_20h13.02.898,kallum_motion_pilot,2023.2.2,Win32,60.24096386,6139012c76a6707fb629ff55,65d2b6c8f2eece985d8e374c,65d2b91cc67a654a5c71c27a,0.0624,0.0624,1,102,264,78,1,fourtwo,,,,,,,,,,,,,,,,,,,,,,,,,,,,,,,,,,,,,,,,,,,,,,,,,,,,,,,,,,,,,,,,,,,,,,,,,,,,,,,,,,,,,,,,,,,,,,,,,,,,,,,,,,,,,,,,,,,,,,,,,,,,,,,,,,,,,,,,,
,,6139012c76a6707fb629ff55,2024-02-18_20h13.02.898,kallum_motion_pilot,2023.2.2,Win32,60.24096386,6139012c76a6707fb629ff55,65d2b6c8f2eece985d8e374c,65d2b91cc67a654a5c71c27a,0.0625,0.0626,1,103,265,100,1,sevenfive,,,,,,,,,,,,,,,,,,,,,,,,,,,,,,,,,,,,,,,,,,,,,,,,,,,,,,,,,,,,,,,,,,,,,,,,,,,,,,,,,,,,,,,,,,,,,,,,,,,,,,,,,,,,,,,,,,,,,,,,,,,,,,,,,,,,,,,,,
,,6139012c76a6707fb629ff55,2024-02-18_20h13.02.898,kallum_motion_pilot,2023.2.2,Win32,60.24096386,6139012c76a6707fb629ff55,65d2b6c8f2eece985d8e374c,65d2b91cc67a654a5c71c27a,0.0627,0.0627,1,104,266,39,1,fourthree,,,,,,,,,,,,,,,,,,,,,,,,,,,,,,,,,,,,,,,,,,,,,,,,,,,,,,,,,,,,,,,,,,,,,,,,,,,,,,,,,,,,,,,,,,,,,,,,,,,,,,,,,,,,,,,,,,,,,,,,,,,,,,,,,,,,,,,,,
,,6139012c76a6707fb629ff55,2024-02-18_20h13.02.898,kallum_motion_pilot,2023.2.2,Win32,60.24096386,6139012c76a6707fb629ff55,65d2b6c8f2eece985d8e374c,65d2b91cc67a654a5c71c27a,0.0628,0.0629,1,105,267,6,1,fourtwo,,,,,,,,,,,,,,,,,,,,,,,,,,,,,,,,,,,,,,,,,,,,,,,,,,,,,,,,,,,,,,,,,,,,,,,,,,,,,,,,,,,,,,,,,,,,,,,,,,,,,,,,,,,,,,,,,,,,,,,,,,,,,,,,,,,,,,,,,
,,6139012c76a6707fb629ff55,2024-02-18_20h13.02.898,kallum_motion_pilot,2023.2.2,Win32,60.24096386,6139012c76a6707fb629ff55,65d2b6c8f2eece985d8e374c,65d2b91cc67a654a5c71c27a,0.0629,0.0631,1,106,268,46,1,fourtwo,,,,,,,,,,,,,,,,,,,,,,,,,,,,,,,,,,,,,,,,,,,,,,,,,,,,,,,,,,,,,,,,,,,,,,,,,,,,,,,,,,,,,,,,,,,,,,,,,,,,,,,,,,,,,,,,,,,,,,,,,,,,,,,,,,,,,,,,,
,,6139012c76a6707fb629ff55,2024-02-18_20h13.02.898,kallum_motion_pilot,2023.2.2,Win32,60.24096386,6139012c76a6707fb629ff55,65d2b6c8f2eece985d8e374c,65d2b91cc67a654a5c71c27a,0.0631,0.0633,1,107,269,36,1,threeone,,,,,,,,,,,,,,,,,,,,,,,,,,,,,,,,,,,,,,,,,,,,,,,,,,,,,,,,,,,,,,,,,,,,,,,,,,,,,,,,,,,,,,,,,,,,,,,,,,,,,,,,,,,,,,,,,,,,,,,,,,,,,,,,,,,,,,,,,
,,6139012c76a6707fb629ff55,2024-02-18_20h13.02.898,kallum_motion_pilot,2023.2.2,Win32,60.24096386,6139012c76a6707fb629ff55,65d2b6c8f2eece985d8e374c,65d2b91cc67a654a5c71c27a,0.0634,0.0635,1,108,270,67,1,twofour,,,,,,,,,,,,,,,,,,,,,,,,,,,,,,,,,,,,,,,,,,,,,,,,,,,,,,,,,,,,,,,,,,,,,,,,,,,,,,,,,,,,,,,,,,,,,,,,,,,,,,,,,,,,,,,,,,,,,,,,,,,,,,,,,,,,,,,,,
,,6139012c76a6707fb629ff55,2024-02-18_20h13.02.898,kallum_motion_pilot,2023.2.2,Win32,60.24096386,6139012c76a6707fb629ff55,65d2b6c8f2eece985d8e374c,65d2b91cc67a654a5c71c27a,0.0635,0.0635,1,109,271,24,1,onetwo,,,,,,,,,,,,,,,,,,,,,,,,,,,,,,,,,,,,,,,,,,,,,,,,,,,,,,,,,,,,,,,,,,,,,,,,,,,,,,,,,,,,,,,,,,,,,,,,,,,,,,,,,,,,,,,,,,,,,,,,,,,,,,,,,,,,,,,,,
,,6139012c76a6707fb629ff55,2024-02-18_20h13.02.898,kallum_motion_pilot,2023.2.2,Win32,60.24096386,6139012c76a6707fb629ff55,65d2b6c8f2eece985d8e374c,65d2b91cc67a654a5c71c27a,0.0636,0.0637,1,110,272,68,1,threeone,,,,,,,,,,,,,,,,,,,,,,,,,,,,,,,,,,,,,,,,,,,,,,,,,,,,,,,,,,,,,,,,,,,,,,,,,,,,,,,,,,,,,,,,,,,,,,,,,,,,,,,,,,,,,,,,,,,,,,,,,,,,,,,,,,,,,,,,,
,,6139012c76a6707fb629ff55,2024-02-18_20h13.02.898,kallum_motion_pilot,2023.2.2,Win32,60.24096386,6139012c76a6707fb629ff55,65d2b6c8f2eece985d8e374c,65d2b91cc67a654a5c71c27a,0.0638,0.0638,1,111,273,35,1,twofour,,,,,,,,,,,,,,,,,,,,,,,,,,,,,,,,,,,,,,,,,,,,,,,,,,,,,,,,,,,,,,,,,,,,,,,,,,,,,,,,,,,,,,,,,,,,,,,,,,,,,,,,,,,,,,,,,,,,,,,,,,,,,,,,,,,,,,,,,
,,6139012c76a6707fb629ff55,2024-02-18_20h13.02.898,kallum_motion_pilot,2023.2.2,Win32,60.24096386,6139012c76a6707fb629ff55,65d2b6c8f2eece985d8e374c,65d2b91cc67a654a5c71c27a,0.0639,0.064,1,112,274,2,1,twoone,,,,,,,,,,,,,,,,,,,,,,,,,,,,,,,,,,,,,,,,,,,,,,,,,,,,,,,,,,,,,,,,,,,,,,,,,,,,,,,,,,,,,,,,,,,,,,,,,,,,,,,,,,,,,,,,,,,,,,,,,,,,,,,,,,,,,,,,,
,,6139012c76a6707fb629ff55,2024-02-18_20h13.02.898,kallum_motion_pilot,2023.2.2,Win32,60.24096386,6139012c76a6707fb629ff55,65d2b6c8f2eece985d8e374c,65d2b91cc67a654a5c71c27a,0.0641,0.0643,1,113,275,114,1,sixfive,,,,,,,,,,,,,,,,,,,,,,,,,,,,,,,,,,,,,,,,,,,,,,,,,,,,,,,,,,,,,,,,,,,,,,,,,,,,,,,,,,,,,,,,,,,,,,,,,,,,,,,,,,,,,,,,,,,,,,,,,,,,,,,,,,,,,,,,,
,,6139012c76a6707fb629ff55,2024-02-18_20h13.02.898,kallum_motion_pilot,2023.2.2,Win32,60.24096386,6139012c76a6707fb629ff55,65d2b6c8f2eece985d8e374c,65d2b91cc67a654a5c71c27a,0.0645,0.0645,1,114,276,119,1,eightseven,,,,,,,,,,,,,,,,,,,,,,,,,,,,,,,,,,,,,,,,,,,,,,,,,,,,,,,,,,,,,,,,,,,,,,,,,,,,,,,,,,,,,,,,,,,,,,,,,,,,,,,,,,,,,,,,,,,,,,,,,,,,,,,,,,,,,,,,,
,,6139012c76a6707fb629ff55,2024-02-18_20h13.02.898,kallum_motion_pilot,2023.2.2,Win32,60.24096386,6139012c76a6707fb629ff55,65d2b6c8f2eece985d8e374c,65d2b91cc67a654a5c71c27a,0.0646,0.0647,1,115,277,22,1,fourtwo,,,,,,,,,,,,,,,,,,,,,,,,,,,,,,,,,,,,,,,,,,,,,,,,,,,,,,,,,,,,,,,,,,,,,,,,,,,,,,,,,,,,,,,,,,,,,,,,,,,,,,,,,,,,,,,,,,,,,,,,,,,,,,,,,,,,,,,,,
