startup.started,startup.stopped,Prolific ID*,date,expName,psychopyVersion,OS,frameRate,participant,study_id,session,stimpositions.started,stimpositions.stopped,hardcoded_stimulus_positions.thisRepN,hardcoded_stimulus_positions.thisTrialN,hardcoded_stimulus_positions.thisN,hardcoded_stimulus_positions.thisIndex,hardcoded_stimulus_positions.ran,StimulusPos,stimorientation.started,stimorientation.stopped,prac_stimorientation_import_loop.thisRepN,prac_stimorientation_import_loop.thisTrialN,prac_stimorientation_import_loop.thisN,prac_stimorientation_import_loop.thisIndex,prac_stimorientation_import_loop.ran,Stimorientation,welcome_instr.started,welcome_instr.stopped,key_resp.keys,key_resp.rt,key_resp.duration,response_steppedout_1.started,response_steppedout_1.stopped,key_resp_20.keys,key_resp_20.rt,key_resp_20.duration,response_steppedout_2.started,response_steppedout_2.stopped,key_resp_19.keys,key_resp_19.rt,key_resp_19.duration,stim_response_instr.started,stim_response_instr.stopped,key_resp_15.keys,key_resp_15.rt,key_resp_15.duration,direction_instr_2.started,direction_instr_2.stopped,key_resp_9.keys,key_resp_9.rt,key_resp_9.duration,instr_prac.started,instr_prac.stopped,key_resp_10.keys,key_resp_10.rt,key_resp_10.duration,Stim1_display_prac.started,Stim1_display_prac.stopped,Ecc,Circle1_ori,Circle2_ori,response_prac.started,similarity,response_time,response_prac.stopped,mouse_5.x,mouse_5.y,mouse_5.leftButton,mouse_5.midButton,mouse_5.rightButton,mouse_5.clicked_name,responseprac_feedback.started,responseprac_feedback.stopped,summary2_prac.started,summary2_prac.stopped,mouse_6.x,mouse_6.y,mouse_6.leftButton,mouse_6.midButton,mouse_6.rightButton,mouse_6.clicked_name,duringprac.thisRepN,duringprac.thisTrialN,duringprac.thisN,duringprac.thisIndex,duringprac.ran,begin.started,begin.stopped,key_resp_22.keys,key_resp_22.rt,key_resp_22.duration,Stim1_display.started,Stim1_display.stopped,circle1_ori,circle2_ori,circle1_SF,circle2_SF,response.started,response.stopped,mouse.x,mouse.y,mouse.leftButton,mouse.midButton,mouse.rightButton,mouse.clicked_name,trialnumber,double_pass.thisRepN,double_pass.thisTrialN,double_pass.thisN,double_pass.thisIndex,double_pass.ran,double_pass.order,main_trial.thisRepN,main_trial.thisTrialN,main_trial.thisN,main_trial.thisIndex,main_trial.ran,main_trial.order,Trial_Counter,Catch,Frequencies,response_2.started,response_2.stopped,mouse_2.x,mouse_2.y,mouse_2.leftButton,mouse_2.midButton,mouse_2.rightButton,mouse_2.clicked_name,special_trial.started,special_trial.stopped,catch_1.started,catch_1.stopped,mouse_3.x,mouse_3.y,mouse_3.leftButton,mouse_3.midButton,mouse_3.rightButton,catchresponse,catchnumber,response_time_catch,response_sum.started,response_sum.stopped,mouse_11.x,mouse_11.y,mouse_11.leftButton,mouse_11.midButton,mouse_11.rightButton,flip_presentation_sequence_for_double_pass.started,flip_presentation_sequence_for_double_pass.stopped,goodbye.started,goodbye.stopped,key_resp_3.keys,key_resp_3.rt,key_resp_3.duration
0.0019,0.002,613ab0960ff3efd039adf1e0,2024-02-21_21h34.16.113,kallum_motion_pilot,2023.2.2,Win32,59.88023952,613ab0960ff3efd039adf1e0,65d6bb0e977760de756971f7,65d6bd56210973f7d2836d08,,,,,,,,,,,,,,,,,,,,,,,,,,,,,,,,,,,,,,,,,,,,,,,,,,,,,,,,,,,,,,,,,,,,,,,,,,,,,,,,,,,,,,,,,,,,,,,,,,,,,,,,,,,,,,,,,,,,,,,,,,,,,,,,,,,,,,,,,,,,,,,,,
,,613ab0960ff3efd039adf1e0,2024-02-21_21h34.16.113,kallum_motion_pilot,2023.2.2,Win32,59.88023952,613ab0960ff3efd039adf1e0,65d6bb0e977760de756971f7,65d6bd56210973f7d2836d08,0.0436,0.0438,0,0,0,117,1,seveneight,,,,,,,,,,,,,,,,,,,,,,,,,,,,,,,,,,,,,,,,,,,,,,,,,,,,,,,,,,,,,,,,,,,,,,,,,,,,,,,,,,,,,,,,,,,,,,,,,,,,,,,,,,,,,,,,,,,,,,,,,,,,,,,,,,,,,,,,,
,,613ab0960ff3efd039adf1e0,2024-02-21_21h34.16.113,kallum_motion_pilot,2023.2.2,Win32,59.88023952,613ab0960ff3efd039adf1e0,65d6bb0e977760de756971f7,65d6bd56210973f7d2836d08,0.0442,0.0442,0,1,1,85,1,seveneight,,,,,,,,,,,,,,,,,,,,,,,,,,,,,,,,,,,,,,,,,,,,,,,,,,,,,,,,,,,,,,,,,,,,,,,,,,,,,,,,,,,,,,,,,,,,,,,,,,,,,,,,,,,,,,,,,,,,,,,,,,,,,,,,,,,,,,,,,
,,613ab0960ff3efd039adf1e0,2024-02-21_21h34.16.113,kallum_motion_pilot,2023.2.2,Win32,59.88023952,613ab0960ff3efd039adf1e0,65d6bb0e977760de756971f7,65d6bd56210973f7d2836d08,0.0443,0.0443,0,2,2,29,1,threefour,,,,,,,,,,,,,,,,,,,,,,,,,,,,,,,,,,,,,,,,,,,,,,,,,,,,,,,,,,,,,,,,,,,,,,,,,,,,,,,,,,,,,,,,,,,,,,,,,,,,,,,,,,,,,,,,,,,,,,,,,,,,,,,,,,,,,,,,,
,,613ab0960ff3efd039adf1e0,2024-02-21_21h34.16.113,kallum_motion_pilot,2023.2.2,Win32,59.88023952,613ab0960ff3efd039adf1e0,65d6bb0e977760de756971f7,65d6bd56210973f7d2836d08,0.0445,0.0445,0,3,3,20,1,threeone,,,,,,,,,,,,,,,,,,,,,,,,,,,,,,,,,,,,,,,,,,,,,,,,,,,,,,,,,,,,,,,,,,,,,,,,,,,,,,,,,,,,,,,,,,,,,,,,,,,,,,,,,,,,,,,,,,,,,,,,,,,,,,,,,,,,,,,,,
,,613ab0960ff3efd039adf1e0,2024-02-21_21h34.16.113,kallum_motion_pilot,2023.2.2,Win32,59.88023952,613ab0960ff3efd039adf1e0,65d6bb0e977760de756971f7,65d6bd56210973f7d2836d08,0.0447,0.0447,0,4,4,149,1,seveneight,,,,,,,,,,,,,,,,,,,,,,,,,,,,,,,,,,,,,,,,,,,,,,,,,,,,,,,,,,,,,,,,,,,,,,,,,,,,,,,,,,,,,,,,,,,,,,,,,,,,,,,,,,,,,,,,,,,,,,,,,,,,,,,,,,,,,,,,,
,,613ab0960ff3efd039adf1e0,2024-02-21_21h34.16.113,kallum_motion_pilot,2023.2.2,Win32,59.88023952,613ab0960ff3efd039adf1e0,65d6bb0e977760de756971f7,65d6bd56210973f7d2836d08,0.0448,0.0448,0,5,5,86,1,eightsix,,,,,,,,,,,,,,,,,,,,,,,,,,,,,,,,,,,,,,,,,,,,,,,,,,,,,,,,,,,,,,,,,,,,,,,,,,,,,,,,,,,,,,,,,,,,,,,,,,,,,,,,,,,,,,,,,,,,,,,,,,,,,,,,,,,,,,,,,
,,613ab0960ff3efd039adf1e0,2024-02-21_21h34.16.113,kallum_motion_pilot,2023.2.2,Win32,59.88023952,613ab0960ff3efd039adf1e0,65d6bb0e977760de756971f7,65d6bd56210973f7d2836d08,0.0449,0.0449,0,6,6,68,1,threeone,,,,,,,,,,,,,,,,,,,,,,,,,,,,,,,,,,,,,,,,,,,,,,,,,,,,,,,,,,,,,,,,,,,,,,,,,,,,,,,,,,,,,,,,,,,,,,,,,,,,,,,,,,,,,,,,,,,,,,,,,,,,,,,,,,,,,,,,,
,,613ab0960ff3efd039adf1e0,2024-02-21_21h34.16.113,kallum_motion_pilot,2023.2.2,Win32,59.88023952,613ab0960ff3efd039adf1e0,65d6bb0e977760de756971f7,65d6bd56210973f7d2836d08,0.0451,0.0451,0,7,7,65,1,onethree,,,,,,,,,,,,,,,,,,,,,,,,,,,,,,,,,,,,,,,,,,,,,,,,,,,,,,,,,,,,,,,,,,,,,,,,,,,,,,,,,,,,,,,,,,,,,,,,,,,,,,,,,,,,,,,,,,,,,,,,,,,,,,,,,,,,,,,,,
,,613ab0960ff3efd039adf1e0,2024-02-21_21h34.16.113,kallum_motion_pilot,2023.2.2,Win32,59.88023952,613ab0960ff3efd039adf1e0,65d6bb0e977760de756971f7,65d6bd56210973f7d2836d08,0.0452,0.0453,0,8,8,98,1,sixfive,,,,,,,,,,,,,,,,,,,,,,,,,,,,,,,,,,,,,,,,,,,,,,,,,,,,,,,,,,,,,,,,,,,,,,,,,,,,,,,,,,,,,,,,,,,,,,,,,,,,,,,,,,,,,,,,,,,,,,,,,,,,,,,,,,,,,,,,,
,,613ab0960ff3efd039adf1e0,2024-02-21_21h34.16.113,kallum_motion_pilot,2023.2.2,Win32,59.88023952,613ab0960ff3efd039adf1e0,65d6bb0e977760de756971f7,65d6bd56210973f7d2836d08,0.0455,0.0455,0,9,9,103,1,eightseven,,,,,,,,,,,,,,,,,,,,,,,,,,,,,,,,,,,,,,,,,,,,,,,,,,,,,,,,,,,,,,,,,,,,,,,,,,,,,,,,,,,,,,,,,,,,,,,,,,,,,,,,,,,,,,,,,,,,,,,,,,,,,,,,,,,,,,,,,
,,613ab0960ff3efd039adf1e0,2024-02-21_21h34.16.113,kallum_motion_pilot,2023.2.2,Win32,59.88023952,613ab0960ff3efd039adf1e0,65d6bb0e977760de756971f7,65d6bd56210973f7d2836d08,0.0456,0.0457,0,10,10,138,1,sixfive,,,,,,,,,,,,,,,,,,,,,,,,,,,,,,,,,,,,,,,,,,,,,,,,,,,,,,,,,,,,,,,,,,,,,,,,,,,,,,,,,,,,,,,,,,,,,,,,,,,,,,,,,,,,,,,,,,,,,,,,,,,,,,,,,,,,,,,,,
,,613ab0960ff3efd039adf1e0,2024-02-21_21h34.16.113,kallum_motion_pilot,2023.2.2,Win32,59.88023952,613ab0960ff3efd039adf1e0,65d6bb0e977760de756971f7,65d6bd56210973f7d2836d08,0.0458,0.0458,0,11,11,18,1,twoone,,,,,,,,,,,,,,,,,,,,,,,,,,,,,,,,,,,,,,,,,,,,,,,,,,,,,,,,,,,,,,,,,,,,,,,,,,,,,,,,,,,,,,,,,,,,,,,,,,,,,,,,,,,,,,,,,,,,,,,,,,,,,,,,,,,,,,,,,
,,613ab0960ff3efd039adf1e0,2024-02-21_21h34.16.113,kallum_motion_pilot,2023.2.2,Win32,59.88023952,613ab0960ff3efd039adf1e0,65d6bb0e977760de756971f7,65d6bd56210973f7d2836d08,0.046,0.046,0,12,12,91,1,sixeight,,,,,,,,,,,,,,,,,,,,,,,,,,,,,,,,,,,,,,,,,,,,,,,,,,,,,,,,,,,,,,,,,,,,,,,,,,,,,,,,,,,,,,,,,,,,,,,,,,,,,,,,,,,,,,,,,,,,,,,,,,,,,,,,,,,,,,,,,
,,613ab0960ff3efd039adf1e0,2024-02-21_21h34.16.113,kallum_motion_pilot,2023.2.2,Win32,59.88023952,613ab0960ff3efd039adf1e0,65d6bb0e977760de756971f7,65d6bd56210973f7d2836d08,0.0461,0.0461,0,13,13,75,1,twofour,,,,,,,,,,,,,,,,,,,,,,,,,,,,,,,,,,,,,,,,,,,,,,,,,,,,,,,,,,,,,,,,,,,,,,,,,,,,,,,,,,,,,,,,,,,,,,,,,,,,,,,,,,,,,,,,,,,,,,,,,,,,,,,,,,,,,,,,,
,,613ab0960ff3efd039adf1e0,2024-02-21_21h34.16.113,kallum_motion_pilot,2023.2.2,Win32,59.88023952,613ab0960ff3efd039adf1e0,65d6bb0e977760de756971f7,65d6bd56210973f7d2836d08,0.0463,0.0463,0,14,14,71,1,fourthree,,,,,,,,,,,,,,,,,,,,,,,,,,,,,,,,,,,,,,,,,,,,,,,,,,,,,,,,,,,,,,,,,,,,,,,,,,,,,,,,,,,,,,,,,,,,,,,,,,,,,,,,,,,,,,,,,,,,,,,,,,,,,,,,,,,,,,,,,
,,613ab0960ff3efd039adf1e0,2024-02-21_21h34.16.113,kallum_motion_pilot,2023.2.2,Win32,59.88023952,613ab0960ff3efd039adf1e0,65d6bb0e977760de756971f7,65d6bd56210973f7d2836d08,0.0464,0.0464,0,15,15,16,1,onetwo,,,,,,,,,,,,,,,,,,,,,,,,,,,,,,,,,,,,,,,,,,,,,,,,,,,,,,,,,,,,,,,,,,,,,,,,,,,,,,,,,,,,,,,,,,,,,,,,,,,,,,,,,,,,,,,,,,,,,,,,,,,,,,,,,,,,,,,,,
,,613ab0960ff3efd039adf1e0,2024-02-21_21h34.16.113,kallum_motion_pilot,2023.2.2,Win32,59.88023952,613ab0960ff3efd039adf1e0,65d6bb0e977760de756971f7,65d6bd56210973f7d2836d08,0.0465,0.0465,0,16,16,1,1,onethree,,,,,,,,,,,,,,,,,,,,,,,,,,,,,,,,,,,,,,,,,,,,,,,,,,,,,,,,,,,,,,,,,,,,,,,,,,,,,,,,,,,,,,,,,,,,,,,,,,,,,,,,,,,,,,,,,,,,,,,,,,,,,,,,,,,,,,,,,
,,613ab0960ff3efd039adf1e0,2024-02-21_21h34.16.113,kallum_motion_pilot,2023.2.2,Win32,59.88023952,613ab0960ff3efd039adf1e0,65d6bb0e977760de756971f7,65d6bd56210973f7d2836d08,0.0467,0.0467,0,17,17,8,1,onetwo,,,,,,,,,,,,,,,,,,,,,,,,,,,,,,,,,,,,,,,,,,,,,,,,,,,,,,,,,,,,,,,,,,,,,,,,,,,,,,,,,,,,,,,,,,,,,,,,,,,,,,,,,,,,,,,,,,,,,,,,,,,,,,,,,,,,,,,,,
,,613ab0960ff3efd039adf1e0,2024-02-21_21h34.16.113,kallum_motion_pilot,2023.2.2,Win32,59.88023952,613ab0960ff3efd039adf1e0,65d6bb0e977760de756971f7,65d6bd56210973f7d2836d08,0.0468,0.0468,0,18,18,34,1,twoone,,,,,,,,,,,,,,,,,,,,,,,,,,,,,,,,,,,,,,,,,,,,,,,,,,,,,,,,,,,,,,,,,,,,,,,,,,,,,,,,,,,,,,,,,,,,,,,,,,,,,,,,,,,,,,,,,,,,,,,,,,,,,,,,,,,,,,,,,
,,613ab0960ff3efd039adf1e0,2024-02-21_21h34.16.113,kallum_motion_pilot,2023.2.2,Win32,59.88023952,613ab0960ff3efd039adf1e0,65d6bb0e977760de756971f7,65d6bd56210973f7d2836d08,0.0469,0.0469,0,19,19,10,1,twoone,,,,,,,,,,,,,,,,,,,,,,,,,,,,,,,,,,,,,,,,,,,,,,,,,,,,,,,,,,,,,,,,,,,,,,,,,,,,,,,,,,,,,,,,,,,,,,,,,,,,,,,,,,,,,,,,,,,,,,,,,,,,,,,,,,,,,,,,,
,,613ab0960ff3efd039adf1e0,2024-02-21_21h34.16.113,kallum_motion_pilot,2023.2.2,Win32,59.88023952,613ab0960ff3efd039adf1e0,65d6bb0e977760de756971f7,65d6bd56210973f7d2836d08,0.047,0.0471,0,20,20,89,1,fiveseven,,,,,,,,,,,,,,,,,,,,,,,,,,,,,,,,,,,,,,,,,,,,,,,,,,,,,,,,,,,,,,,,,,,,,,,,,,,,,,,,,,,,,,,,,,,,,,,,,,,,,,,,,,,,,,,,,,,,,,,,,,,,,,,,,,,,,,,,,
,,613ab0960ff3efd039adf1e0,2024-02-21_21h34.16.113,kallum_motion_pilot,2023.2.2,Win32,59.88023952,613ab0960ff3efd039adf1e0,65d6bb0e977760de756971f7,65d6bd56210973f7d2836d08,0.0471,0.0471,0,21,21,159,1,eightseven,,,,,,,,,,,,,,,,,,,,,,,,,,,,,,,,,,,,,,,,,,,,,,,,,,,,,,,,,,,,,,,,,,,,,,,,,,,,,,,,,,,,,,,,,,,,,,,,,,,,,,,,,,,,,,,,,,,,,,,,,,,,,,,,,,,,,,,,,
,,613ab0960ff3efd039adf1e0,2024-02-21_21h34.16.113,kallum_motion_pilot,2023.2.2,Win32,59.88023952,613ab0960ff3efd039adf1e0,65d6bb0e977760de756971f7,65d6bd56210973f7d2836d08,0.0473,0.0473,0,22,22,110,1,eightsix,,,,,,,,,,,,,,,,,,,,,,,,,,,,,,,,,,,,,,,,,,,,,,,,,,,,,,,,,,,,,,,,,,,,,,,,,,,,,,,,,,,,,,,,,,,,,,,,,,,,,,,,,,,,,,,,,,,,,,,,,,,,,,,,,,,,,,,,,
,,613ab0960ff3efd039adf1e0,2024-02-21_21h34.16.113,kallum_motion_pilot,2023.2.2,Win32,59.88023952,613ab0960ff3efd039adf1e0,65d6bb0e977760de756971f7,65d6bd56210973f7d2836d08,0.0474,0.0475,0,23,23,83,1,sixeight,,,,,,,,,,,,,,,,,,,,,,,,,,,,,,,,,,,,,,,,,,,,,,,,,,,,,,,,,,,,,,,,,,,,,,,,,,,,,,,,,,,,,,,,,,,,,,,,,,,,,,,,,,,,,,,,,,,,,,,,,,,,,,,,,,,,,,,,,
,,613ab0960ff3efd039adf1e0,2024-02-21_21h34.16.113,kallum_motion_pilot,2023.2.2,Win32,59.88023952,613ab0960ff3efd039adf1e0,65d6bb0e977760de756971f7,65d6bd56210973f7d2836d08,0.0476,0.0476,0,24,24,146,1,sixfive,,,,,,,,,,,,,,,,,,,,,,,,,,,,,,,,,,,,,,,,,,,,,,,,,,,,,,,,,,,,,,,,,,,,,,,,,,,,,,,,,,,,,,,,,,,,,,,,,,,,,,,,,,,,,,,,,,,,,,,,,,,,,,,,,,,,,,,,,
,,613ab0960ff3efd039adf1e0,2024-02-21_21h34.16.113,kallum_motion_pilot,2023.2.2,Win32,59.88023952,613ab0960ff3efd039adf1e0,65d6bb0e977760de756971f7,65d6bd56210973f7d2836d08,0.0478,0.0478,0,25,25,67,1,twofour,,,,,,,,,,,,,,,,,,,,,,,,,,,,,,,,,,,,,,,,,,,,,,,,,,,,,,,,,,,,,,,,,,,,,,,,,,,,,,,,,,,,,,,,,,,,,,,,,,,,,,,,,,,,,,,,,,,,,,,,,,,,,,,,,,,,,,,,,
,,613ab0960ff3efd039adf1e0,2024-02-21_21h34.16.113,kallum_motion_pilot,2023.2.2,Win32,59.88023952,613ab0960ff3efd039adf1e0,65d6bb0e977760de756971f7,65d6bd56210973f7d2836d08,0.0479,0.0479,0,26,26,12,1,threeone,,,,,,,,,,,,,,,,,,,,,,,,,,,,,,,,,,,,,,,,,,,,,,,,,,,,,,,,,,,,,,,,,,,,,,,,,,,,,,,,,,,,,,,,,,,,,,,,,,,,,,,,,,,,,,,,,,,,,,,,,,,,,,,,,,,,,,,,,
,,613ab0960ff3efd039adf1e0,2024-02-21_21h34.16.113,kallum_motion_pilot,2023.2.2,Win32,59.88023952,613ab0960ff3efd039adf1e0,65d6bb0e977760de756971f7,65d6bd56210973f7d2836d08,0.048,0.048,0,27,27,93,1,seveneight,,,,,,,,,,,,,,,,,,,,,,,,,,,,,,,,,,,,,,,,,,,,,,,,,,,,,,,,,,,,,,,,,,,,,,,,,,,,,,,,,,,,,,,,,,,,,,,,,,,,,,,,,,,,,,,,,,,,,,,,,,,,,,,,,,,,,,,,,
,,613ab0960ff3efd039adf1e0,2024-02-21_21h34.16.113,kallum_motion_pilot,2023.2.2,Win32,59.88023952,613ab0960ff3efd039adf1e0,65d6bb0e977760de756971f7,65d6bd56210973f7d2836d08,0.0481,0.0481,0,28,28,66,1,twoone,,,,,,,,,,,,,,,,,,,,,,,,,,,,,,,,,,,,,,,,,,,,,,,,,,,,,,,,,,,,,,,,,,,,,,,,,,,,,,,,,,,,,,,,,,,,,,,,,,,,,,,,,,,,,,,,,,,,,,,,,,,,,,,,,,,,,,,,,
,,613ab0960ff3efd039adf1e0,2024-02-21_21h34.16.113,kallum_motion_pilot,2023.2.2,Win32,59.88023952,613ab0960ff3efd039adf1e0,65d6bb0e977760de756971f7,65d6bd56210973f7d2836d08,0.0483,0.0483,0,29,29,145,1,fiveseven,,,,,,,,,,,,,,,,,,,,,,,,,,,,,,,,,,,,,,,,,,,,,,,,,,,,,,,,,,,,,,,,,,,,,,,,,,,,,,,,,,,,,,,,,,,,,,,,,,,,,,,,,,,,,,,,,,,,,,,,,,,,,,,,,,,,,,,,,
,,613ab0960ff3efd039adf1e0,2024-02-21_21h34.16.113,kallum_motion_pilot,2023.2.2,Win32,59.88023952,613ab0960ff3efd039adf1e0,65d6bb0e977760de756971f7,65d6bd56210973f7d2836d08,0.0484,0.0485,0,30,30,99,1,sixeight,,,,,,,,,,,,,,,,,,,,,,,,,,,,,,,,,,,,,,,,,,,,,,,,,,,,,,,,,,,,,,,,,,,,,,,,,,,,,,,,,,,,,,,,,,,,,,,,,,,,,,,,,,,,,,,,,,,,,,,,,,,,,,,,,,,,,,,,,
,,613ab0960ff3efd039adf1e0,2024-02-21_21h34.16.113,kallum_motion_pilot,2023.2.2,Win32,59.88023952,613ab0960ff3efd039adf1e0,65d6bb0e977760de756971f7,65d6bd56210973f7d2836d08,0.0485,0.0485,0,31,31,22,1,fourtwo,,,,,,,,,,,,,,,,,,,,,,,,,,,,,,,,,,,,,,,,,,,,,,,,,,,,,,,,,,,,,,,,,,,,,,,,,,,,,,,,,,,,,,,,,,,,,,,,,,,,,,,,,,,,,,,,,,,,,,,,,,,,,,,,,,,,,,,,,
,,613ab0960ff3efd039adf1e0,2024-02-21_21h34.16.113,kallum_motion_pilot,2023.2.2,Win32,59.88023952,613ab0960ff3efd039adf1e0,65d6bb0e977760de756971f7,65d6bd56210973f7d2836d08,0.0487,0.0487,0,32,32,130,1,sixfive,,,,,,,,,,,,,,,,,,,,,,,,,,,,,,,,,,,,,,,,,,,,,,,,,,,,,,,,,,,,,,,,,,,,,,,,,,,,,,,,,,,,,,,,,,,,,,,,,,,,,,,,,,,,,,,,,,,,,,,,,,,,,,,,,,,,,,,,,
,,613ab0960ff3efd039adf1e0,2024-02-21_21h34.16.113,kallum_motion_pilot,2023.2.2,Win32,59.88023952,613ab0960ff3efd039adf1e0,65d6bb0e977760de756971f7,65d6bd56210973f7d2836d08,0.0488,0.0488,0,33,33,69,1,threefour,,,,,,,,,,,,,,,,,,,,,,,,,,,,,,,,,,,,,,,,,,,,,,,,,,,,,,,,,,,,,,,,,,,,,,,,,,,,,,,,,,,,,,,,,,,,,,,,,,,,,,,,,,,,,,,,,,,,,,,,,,,,,,,,,,,,,,,,,
,,613ab0960ff3efd039adf1e0,2024-02-21_21h34.16.113,kallum_motion_pilot,2023.2.2,Win32,59.88023952,613ab0960ff3efd039adf1e0,65d6bb0e977760de756971f7,65d6bd56210973f7d2836d08,0.0489,0.0489,0,34,34,119,1,eightseven,,,,,,,,,,,,,,,,,,,,,,,,,,,,,,,,,,,,,,,,,,,,,,,,,,,,,,,,,,,,,,,,,,,,,,,,,,,,,,,,,,,,,,,,,,,,,,,,,,,,,,,,,,,,,,,,,,,,,,,,,,,,,,,,,,,,,,,,,
,,613ab0960ff3efd039adf1e0,2024-02-21_21h34.16.113,kallum_motion_pilot,2023.2.2,Win32,59.88023952,613ab0960ff3efd039adf1e0,65d6bb0e977760de756971f7,65d6bd56210973f7d2836d08,0.049,0.0491,0,35,35,45,1,threefour,,,,,,,,,,,,,,,,,,,,,,,,,,,,,,,,,,,,,,,,,,,,,,,,,,,,,,,,,,,,,,,,,,,,,,,,,,,,,,,,,,,,,,,,,,,,,,,,,,,,,,,,,,,,,,,,,,,,,,,,,,,,,,,,,,,,,,,,,
,,613ab0960ff3efd039adf1e0,2024-02-21_21h34.16.113,kallum_motion_pilot,2023.2.2,Win32,59.88023952,613ab0960ff3efd039adf1e0,65d6bb0e977760de756971f7,65d6bd56210973f7d2836d08,0.0492,0.0492,0,36,36,148,1,sevenfive,,,,,,,,,,,,,,,,,,,,,,,,,,,,,,,,,,,,,,,,,,,,,,,,,,,,,,,,,,,,,,,,,,,,,,,,,,,,,,,,,,,,,,,,,,,,,,,,,,,,,,,,,,,,,,,,,,,,,,,,,,,,,,,,,,,,,,,,,
,,613ab0960ff3efd039adf1e0,2024-02-21_21h34.16.113,kallum_motion_pilot,2023.2.2,Win32,59.88023952,613ab0960ff3efd039adf1e0,65d6bb0e977760de756971f7,65d6bd56210973f7d2836d08,0.0493,0.0493,0,37,37,147,1,sixeight,,,,,,,,,,,,,,,,,,,,,,,,,,,,,,,,,,,,,,,,,,,,,,,,,,,,,,,,,,,,,,,,,,,,,,,,,,,,,,,,,,,,,,,,,,,,,,,,,,,,,,,,,,,,,,,,,,,,,,,,,,,,,,,,,,,,,,,,,
,,613ab0960ff3efd039adf1e0,2024-02-21_21h34.16.113,kallum_motion_pilot,2023.2.2,Win32,59.88023952,613ab0960ff3efd039adf1e0,65d6bb0e977760de756971f7,65d6bd56210973f7d2836d08,0.0494,0.0494,0,38,38,73,1,onethree,,,,,,,,,,,,,,,,,,,,,,,,,,,,,,,,,,,,,,,,,,,,,,,,,,,,,,,,,,,,,,,,,,,,,,,,,,,,,,,,,,,,,,,,,,,,,,,,,,,,,,,,,,,,,,,,,,,,,,,,,,,,,,,,,,,,,,,,,
,,613ab0960ff3efd039adf1e0,2024-02-21_21h34.16.113,kallum_motion_pilot,2023.2.2,Win32,59.88023952,613ab0960ff3efd039adf1e0,65d6bb0e977760de756971f7,65d6bd56210973f7d2836d08,0.0494,0.0496,0,39,39,51,1,twofour,,,,,,,,,,,,,,,,,,,,,,,,,,,,,,,,,,,,,,,,,,,,,,,,,,,,,,,,,,,,,,,,,,,,,,,,,,,,,,,,,,,,,,,,,,,,,,,,,,,,,,,,,,,,,,,,,,,,,,,,,,,,,,,,,,,,,,,,,
,,613ab0960ff3efd039adf1e0,2024-02-21_21h34.16.113,kallum_motion_pilot,2023.2.2,Win32,59.88023952,613ab0960ff3efd039adf1e0,65d6bb0e977760de756971f7,65d6bd56210973f7d2836d08,0.0496,0.0496,0,40,40,124,1,sevenfive,,,,,,,,,,,,,,,,,,,,,,,,,,,,,,,,,,,,,,,,,,,,,,,,,,,,,,,,,,,,,,,,,,,,,,,,,,,,,,,,,,,,,,,,,,,,,,,,,,,,,,,,,,,,,,,,,,,,,,,,,,,,,,,,,,,,,,,,,
,,613ab0960ff3efd039adf1e0,2024-02-21_21h34.16.113,kallum_motion_pilot,2023.2.2,Win32,59.88023952,613ab0960ff3efd039adf1e0,65d6bb0e977760de756971f7,65d6bd56210973f7d2836d08,0.0497,0.0498,0,41,41,123,1,sixeight,,,,,,,,,,,,,,,,,,,,,,,,,,,,,,,,,,,,,,,,,,,,,,,,,,,,,,,,,,,,,,,,,,,,,,,,,,,,,,,,,,,,,,,,,,,,,,,,,,,,,,,,,,,,,,,,,,,,,,,,,,,,,,,,,,,,,,,,,
,,613ab0960ff3efd039adf1e0,2024-02-21_21h34.16.113,kallum_motion_pilot,2023.2.2,Win32,59.88023952,613ab0960ff3efd039adf1e0,65d6bb0e977760de756971f7,65d6bd56210973f7d2836d08,0.0498,0.0499,0,42,42,125,1,seveneight,,,,,,,,,,,,,,,,,,,,,,,,,,,,,,,,,,,,,,,,,,,,,,,,,,,,,,,,,,,,,,,,,,,,,,,,,,,,,,,,,,,,,,,,,,,,,,,,,,,,,,,,,,,,,,,,,,,,,,,,,,,,,,,,,,,,,,,,,
,,613ab0960ff3efd039adf1e0,2024-02-21_21h34.16.113,kallum_motion_pilot,2023.2.2,Win32,59.88023952,613ab0960ff3efd039adf1e0,65d6bb0e977760de756971f7,65d6bd56210973f7d2836d08,0.05,0.0501,0,43,43,27,1,twofour,,,,,,,,,,,,,,,,,,,,,,,,,,,,,,,,,,,,,,,,,,,,,,,,,,,,,,,,,,,,,,,,,,,,,,,,,,,,,,,,,,,,,,,,,,,,,,,,,,,,,,,,,,,,,,,,,,,,,,,,,,,,,,,,,,,,,,,,,
,,613ab0960ff3efd039adf1e0,2024-02-21_21h34.16.113,kallum_motion_pilot,2023.2.2,Win32,59.88023952,613ab0960ff3efd039adf1e0,65d6bb0e977760de756971f7,65d6bd56210973f7d2836d08,0.0502,0.0502,0,44,44,90,1,sixfive,,,,,,,,,,,,,,,,,,,,,,,,,,,,,,,,,,,,,,,,,,,,,,,,,,,,,,,,,,,,,,,,,,,,,,,,,,,,,,,,,,,,,,,,,,,,,,,,,,,,,,,,,,,,,,,,,,,,,,,,,,,,,,,,,,,,,,,,,
,,613ab0960ff3efd039adf1e0,2024-02-21_21h34.16.113,kallum_motion_pilot,2023.2.2,Win32,59.88023952,613ab0960ff3efd039adf1e0,65d6bb0e977760de756971f7,65d6bd56210973f7d2836d08,0.0502,0.0503,0,45,45,96,1,fivesix,,,,,,,,,,,,,,,,,,,,,,,,,,,,,,,,,,,,,,,,,,,,,,,,,,,,,,,,,,,,,,,,,,,,,,,,,,,,,,,,,,,,,,,,,,,,,,,,,,,,,,,,,,,,,,,,,,,,,,,,,,,,,,,,,,,,,,,,,
,,613ab0960ff3efd039adf1e0,2024-02-21_21h34.16.113,kallum_motion_pilot,2023.2.2,Win32,59.88023952,613ab0960ff3efd039adf1e0,65d6bb0e977760de756971f7,65d6bd56210973f7d2836d08,0.0504,0.0505,0,46,46,153,1,fiveseven,,,,,,,,,,,,,,,,,,,,,,,,,,,,,,,,,,,,,,,,,,,,,,,,,,,,,,,,,,,,,,,,,,,,,,,,,,,,,,,,,,,,,,,,,,,,,,,,,,,,,,,,,,,,,,,,,,,,,,,,,,,,,,,,,,,,,,,,,
,,613ab0960ff3efd039adf1e0,2024-02-21_21h34.16.113,kallum_motion_pilot,2023.2.2,Win32,59.88023952,613ab0960ff3efd039adf1e0,65d6bb0e977760de756971f7,65d6bd56210973f7d2836d08,0.0514,0.0516,0,47,47,30,1,fourtwo,,,,,,,,,,,,,,,,,,,,,,,,,,,,,,,,,,,,,,,,,,,,,,,,,,,,,,,,,,,,,,,,,,,,,,,,,,,,,,,,,,,,,,,,,,,,,,,,,,,,,,,,,,,,,,,,,,,,,,,,,,,,,,,,,,,,,,,,,
,,613ab0960ff3efd039adf1e0,2024-02-21_21h34.16.113,kallum_motion_pilot,2023.2.2,Win32,59.88023952,613ab0960ff3efd039adf1e0,65d6bb0e977760de756971f7,65d6bd56210973f7d2836d08,0.0517,0.0517,0,48,48,57,1,onethree,,,,,,,,,,,,,,,,,,,,,,,,,,,,,,,,,,,,,,,,,,,,,,,,,,,,,,,,,,,,,,,,,,,,,,,,,,,,,,,,,,,,,,,,,,,,,,,,,,,,,,,,,,,,,,,,,,,,,,,,,,,,,,,,,,,,,,,,,
,,613ab0960ff3efd039adf1e0,2024-02-21_21h34.16.113,kallum_motion_pilot,2023.2.2,Win32,59.88023952,613ab0960ff3efd039adf1e0,65d6bb0e977760de756971f7,65d6bd56210973f7d2836d08,0.0519,0.0519,0,49,49,15,1,fourthree,,,,,,,,,,,,,,,,,,,,,,,,,,,,,,,,,,,,,,,,,,,,,,,,,,,,,,,,,,,,,,,,,,,,,,,,,,,,,,,,,,,,,,,,,,,,,,,,,,,,,,,,,,,,,,,,,,,,,,,,,,,,,,,,,,,,,,,,,
,,613ab0960ff3efd039adf1e0,2024-02-21_21h34.16.113,kallum_motion_pilot,2023.2.2,Win32,59.88023952,613ab0960ff3efd039adf1e0,65d6bb0e977760de756971f7,65d6bd56210973f7d2836d08,0.052,0.052,0,50,50,101,1,seveneight,,,,,,,,,,,,,,,,,,,,,,,,,,,,,,,,,,,,,,,,,,,,,,,,,,,,,,,,,,,,,,,,,,,,,,,,,,,,,,,,,,,,,,,,,,,,,,,,,,,,,,,,,,,,,,,,,,,,,,,,,,,,,,,,,,,,,,,,,
,,613ab0960ff3efd039adf1e0,2024-02-21_21h34.16.113,kallum_motion_pilot,2023.2.2,Win32,59.88023952,613ab0960ff3efd039adf1e0,65d6bb0e977760de756971f7,65d6bd56210973f7d2836d08,0.0521,0.0521,0,51,51,60,1,threeone,,,,,,,,,,,,,,,,,,,,,,,,,,,,,,,,,,,,,,,,,,,,,,,,,,,,,,,,,,,,,,,,,,,,,,,,,,,,,,,,,,,,,,,,,,,,,,,,,,,,,,,,,,,,,,,,,,,,,,,,,,,,,,,,,,,,,,,,,
,,613ab0960ff3efd039adf1e0,2024-02-21_21h34.16.113,kallum_motion_pilot,2023.2.2,Win32,59.88023952,613ab0960ff3efd039adf1e0,65d6bb0e977760de756971f7,65d6bd56210973f7d2836d08,0.0523,0.0523,0,52,52,79,1,eightseven,,,,,,,,,,,,,,,,,,,,,,,,,,,,,,,,,,,,,,,,,,,,,,,,,,,,,,,,,,,,,,,,,,,,,,,,,,,,,,,,,,,,,,,,,,,,,,,,,,,,,,,,,,,,,,,,,,,,,,,,,,,,,,,,,,,,,,,,,
,,613ab0960ff3efd039adf1e0,2024-02-21_21h34.16.113,kallum_motion_pilot,2023.2.2,Win32,59.88023952,613ab0960ff3efd039adf1e0,65d6bb0e977760de756971f7,65d6bd56210973f7d2836d08,0.0524,0.0524,0,53,53,63,1,fourthree,,,,,,,,,,,,,,,,,,,,,,,,,,,,,,,,,,,,,,,,,,,,,,,,,,,,,,,,,,,,,,,,,,,,,,,,,,,,,,,,,,,,,,,,,,,,,,,,,,,,,,,,,,,,,,,,,,,,,,,,,,,,,,,,,,,,,,,,,
,,613ab0960ff3efd039adf1e0,2024-02-21_21h34.16.113,kallum_motion_pilot,2023.2.2,Win32,59.88023952,613ab0960ff3efd039adf1e0,65d6bb0e977760de756971f7,65d6bd56210973f7d2836d08,0.0525,0.0525,0,54,54,144,1,fivesix,,,,,,,,,,,,,,,,,,,,,,,,,,,,,,,,,,,,,,,,,,,,,,,,,,,,,,,,,,,,,,,,,,,,,,,,,,,,,,,,,,,,,,,,,,,,,,,,,,,,,,,,,,,,,,,,,,,,,,,,,,,,,,,,,,,,,,,,,
,,613ab0960ff3efd039adf1e0,2024-02-21_21h34.16.113,kallum_motion_pilot,2023.2.2,Win32,59.88023952,613ab0960ff3efd039adf1e0,65d6bb0e977760de756971f7,65d6bd56210973f7d2836d08,0.0527,0.0527,0,55,55,47,1,fourthree,,,,,,,,,,,,,,,,,,,,,,,,,,,,,,,,,,,,,,,,,,,,,,,,,,,,,,,,,,,,,,,,,,,,,,,,,,,,,,,,,,,,,,,,,,,,,,,,,,,,,,,,,,,,,,,,,,,,,,,,,,,,,,,,,,,,,,,,,
,,613ab0960ff3efd039adf1e0,2024-02-21_21h34.16.113,kallum_motion_pilot,2023.2.2,Win32,59.88023952,613ab0960ff3efd039adf1e0,65d6bb0e977760de756971f7,65d6bd56210973f7d2836d08,0.0528,0.0528,0,56,56,59,1,twofour,,,,,,,,,,,,,,,,,,,,,,,,,,,,,,,,,,,,,,,,,,,,,,,,,,,,,,,,,,,,,,,,,,,,,,,,,,,,,,,,,,,,,,,,,,,,,,,,,,,,,,,,,,,,,,,,,,,,,,,,,,,,,,,,,,,,,,,,,
,,613ab0960ff3efd039adf1e0,2024-02-21_21h34.16.113,kallum_motion_pilot,2023.2.2,Win32,59.88023952,613ab0960ff3efd039adf1e0,65d6bb0e977760de756971f7,65d6bd56210973f7d2836d08,0.053,0.053,0,57,57,28,1,threeone,,,,,,,,,,,,,,,,,,,,,,,,,,,,,,,,,,,,,,,,,,,,,,,,,,,,,,,,,,,,,,,,,,,,,,,,,,,,,,,,,,,,,,,,,,,,,,,,,,,,,,,,,,,,,,,,,,,,,,,,,,,,,,,,,,,,,,,,,
,,613ab0960ff3efd039adf1e0,2024-02-21_21h34.16.113,kallum_motion_pilot,2023.2.2,Win32,59.88023952,613ab0960ff3efd039adf1e0,65d6bb0e977760de756971f7,65d6bd56210973f7d2836d08,0.0531,0.0531,0,58,58,53,1,threefour,,,,,,,,,,,,,,,,,,,,,,,,,,,,,,,,,,,,,,,,,,,,,,,,,,,,,,,,,,,,,,,,,,,,,,,,,,,,,,,,,,,,,,,,,,,,,,,,,,,,,,,,,,,,,,,,,,,,,,,,,,,,,,,,,,,,,,,,,
,,613ab0960ff3efd039adf1e0,2024-02-21_21h34.16.113,kallum_motion_pilot,2023.2.2,Win32,59.88023952,613ab0960ff3efd039adf1e0,65d6bb0e977760de756971f7,65d6bd56210973f7d2836d08,0.0533,0.0533,0,59,59,118,1,eightsix,,,,,,,,,,,,,,,,,,,,,,,,,,,,,,,,,,,,,,,,,,,,,,,,,,,,,,,,,,,,,,,,,,,,,,,,,,,,,,,,,,,,,,,,,,,,,,,,,,,,,,,,,,,,,,,,,,,,,,,,,,,,,,,,,,,,,,,,,
,,613ab0960ff3efd039adf1e0,2024-02-21_21h34.16.113,kallum_motion_pilot,2023.2.2,Win32,59.88023952,613ab0960ff3efd039adf1e0,65d6bb0e977760de756971f7,65d6bd56210973f7d2836d08,0.0534,0.0534,0,60,60,2,1,twoone,,,,,,,,,,,,,,,,,,,,,,,,,,,,,,,,,,,,,,,,,,,,,,,,,,,,,,,,,,,,,,,,,,,,,,,,,,,,,,,,,,,,,,,,,,,,,,,,,,,,,,,,,,,,,,,,,,,,,,,,,,,,,,,,,,,,,,,,,
,,613ab0960ff3efd039adf1e0,2024-02-21_21h34.16.113,kallum_motion_pilot,2023.2.2,Win32,59.88023952,613ab0960ff3efd039adf1e0,65d6bb0e977760de756971f7,65d6bd56210973f7d2836d08,0.0536,0.0536,0,61,61,95,1,eightseven,,,,,,,,,,,,,,,,,,,,,,,,,,,,,,,,,,,,,,,,,,,,,,,,,,,,,,,,,,,,,,,,,,,,,,,,,,,,,,,,,,,,,,,,,,,,,,,,,,,,,,,,,,,,,,,,,,,,,,,,,,,,,,,,,,,,,,,,,
,,613ab0960ff3efd039adf1e0,2024-02-21_21h34.16.113,kallum_motion_pilot,2023.2.2,Win32,59.88023952,613ab0960ff3efd039adf1e0,65d6bb0e977760de756971f7,65d6bd56210973f7d2836d08,0.0538,0.0538,0,62,62,38,1,fourtwo,,,,,,,,,,,,,,,,,,,,,,,,,,,,,,,,,,,,,,,,,,,,,,,,,,,,,,,,,,,,,,,,,,,,,,,,,,,,,,,,,,,,,,,,,,,,,,,,,,,,,,,,,,,,,,,,,,,,,,,,,,,,,,,,,,,,,,,,,
,,613ab0960ff3efd039adf1e0,2024-02-21_21h34.16.113,kallum_motion_pilot,2023.2.2,Win32,59.88023952,613ab0960ff3efd039adf1e0,65d6bb0e977760de756971f7,65d6bd56210973f7d2836d08,0.0539,0.054,0,63,63,56,1,onetwo,,,,,,,,,,,,,,,,,,,,,,,,,,,,,,,,,,,,,,,,,,,,,,,,,,,,,,,,,,,,,,,,,,,,,,,,,,,,,,,,,,,,,,,,,,,,,,,,,,,,,,,,,,,,,,,,,,,,,,,,,,,,,,,,,,,,,,,,,
,,613ab0960ff3efd039adf1e0,2024-02-21_21h34.16.113,kallum_motion_pilot,2023.2.2,Win32,59.88023952,613ab0960ff3efd039adf1e0,65d6bb0e977760de756971f7,65d6bd56210973f7d2836d08,0.0541,0.0542,0,64,64,61,1,threefour,,,,,,,,,,,,,,,,,,,,,,,,,,,,,,,,,,,,,,,,,,,,,,,,,,,,,,,,,,,,,,,,,,,,,,,,,,,,,,,,,,,,,,,,,,,,,,,,,,,,,,,,,,,,,,,,,,,,,,,,,,,,,,,,,,,,,,,,,
,,613ab0960ff3efd039adf1e0,2024-02-21_21h34.16.113,kallum_motion_pilot,2023.2.2,Win32,59.88023952,613ab0960ff3efd039adf1e0,65d6bb0e977760de756971f7,65d6bd56210973f7d2836d08,0.0544,0.0544,0,65,65,133,1,seveneight,,,,,,,,,,,,,,,,,,,,,,,,,,,,,,,,,,,,,,,,,,,,,,,,,,,,,,,,,,,,,,,,,,,,,,,,,,,,,,,,,,,,,,,,,,,,,,,,,,,,,,,,,,,,,,,,,,,,,,,,,,,,,,,,,,,,,,,,,
,,613ab0960ff3efd039adf1e0,2024-02-21_21h34.16.113,kallum_motion_pilot,2023.2.2,Win32,59.88023952,613ab0960ff3efd039adf1e0,65d6bb0e977760de756971f7,65d6bd56210973f7d2836d08,0.0546,0.0546,0,66,66,105,1,fiveseven,,,,,,,,,,,,,,,,,,,,,,,,,,,,,,,,,,,,,,,,,,,,,,,,,,,,,,,,,,,,,,,,,,,,,,,,,,,,,,,,,,,,,,,,,,,,,,,,,,,,,,,,,,,,,,,,,,,,,,,,,,,,,,,,,,,,,,,,,
,,613ab0960ff3efd039adf1e0,2024-02-21_21h34.16.113,kallum_motion_pilot,2023.2.2,Win32,59.88023952,613ab0960ff3efd039adf1e0,65d6bb0e977760de756971f7,65d6bd56210973f7d2836d08,0.0552,0.0553,0,67,67,143,1,eightseven,,,,,,,,,,,,,,,,,,,,,,,,,,,,,,,,,,,,,,,,,,,,,,,,,,,,,,,,,,,,,,,,,,,,,,,,,,,,,,,,,,,,,,,,,,,,,,,,,,,,,,,,,,,,,,,,,,,,,,,,,,,,,,,,,,,,,,,,,
,,613ab0960ff3efd039adf1e0,2024-02-21_21h34.16.113,kallum_motion_pilot,2023.2.2,Win32,59.88023952,613ab0960ff3efd039adf1e0,65d6bb0e977760de756971f7,65d6bd56210973f7d2836d08,0.0555,0.0556,0,68,68,94,1,eightsix,,,,,,,,,,,,,,,,,,,,,,,,,,,,,,,,,,,,,,,,,,,,,,,,,,,,,,,,,,,,,,,,,,,,,,,,,,,,,,,,,,,,,,,,,,,,,,,,,,,,,,,,,,,,,,,,,,,,,,,,,,,,,,,,,,,,,,,,,
,,613ab0960ff3efd039adf1e0,2024-02-21_21h34.16.113,kallum_motion_pilot,2023.2.2,Win32,59.88023952,613ab0960ff3efd039adf1e0,65d6bb0e977760de756971f7,65d6bd56210973f7d2836d08,0.0559,0.056,0,69,69,141,1,seveneight,,,,,,,,,,,,,,,,,,,,,,,,,,,,,,,,,,,,,,,,,,,,,,,,,,,,,,,,,,,,,,,,,,,,,,,,,,,,,,,,,,,,,,,,,,,,,,,,,,,,,,,,,,,,,,,,,,,,,,,,,,,,,,,,,,,,,,,,,
,,613ab0960ff3efd039adf1e0,2024-02-21_21h34.16.113,kallum_motion_pilot,2023.2.2,Win32,59.88023952,613ab0960ff3efd039adf1e0,65d6bb0e977760de756971f7,65d6bd56210973f7d2836d08,0.0562,0.0562,0,70,70,44,1,threeone,,,,,,,,,,,,,,,,,,,,,,,,,,,,,,,,,,,,,,,,,,,,,,,,,,,,,,,,,,,,,,,,,,,,,,,,,,,,,,,,,,,,,,,,,,,,,,,,,,,,,,,,,,,,,,,,,,,,,,,,,,,,,,,,,,,,,,,,,
,,613ab0960ff3efd039adf1e0,2024-02-21_21h34.16.113,kallum_motion_pilot,2023.2.2,Win32,59.88023952,613ab0960ff3efd039adf1e0,65d6bb0e977760de756971f7,65d6bd56210973f7d2836d08,0.0564,0.0565,0,71,71,6,1,fourtwo,,,,,,,,,,,,,,,,,,,,,,,,,,,,,,,,,,,,,,,,,,,,,,,,,,,,,,,,,,,,,,,,,,,,,,,,,,,,,,,,,,,,,,,,,,,,,,,,,,,,,,,,,,,,,,,,,,,,,,,,,,,,,,,,,,,,,,,,,
,,613ab0960ff3efd039adf1e0,2024-02-21_21h34.16.113,kallum_motion_pilot,2023.2.2,Win32,59.88023952,613ab0960ff3efd039adf1e0,65d6bb0e977760de756971f7,65d6bd56210973f7d2836d08,0.0566,0.0567,0,72,72,115,1,sixeight,,,,,,,,,,,,,,,,,,,,,,,,,,,,,,,,,,,,,,,,,,,,,,,,,,,,,,,,,,,,,,,,,,,,,,,,,,,,,,,,,,,,,,,,,,,,,,,,,,,,,,,,,,,,,,,,,,,,,,,,,,,,,,,,,,,,,,,,,
,,613ab0960ff3efd039adf1e0,2024-02-21_21h34.16.113,kallum_motion_pilot,2023.2.2,Win32,59.88023952,613ab0960ff3efd039adf1e0,65d6bb0e977760de756971f7,65d6bd56210973f7d2836d08,0.0568,0.0568,0,73,73,13,1,threefour,,,,,,,,,,,,,,,,,,,,,,,,,,,,,,,,,,,,,,,,,,,,,,,,,,,,,,,,,,,,,,,,,,,,,,,,,,,,,,,,,,,,,,,,,,,,,,,,,,,,,,,,,,,,,,,,,,,,,,,,,,,,,,,,,,,,,,,,,
,,613ab0960ff3efd039adf1e0,2024-02-21_21h34.16.113,kallum_motion_pilot,2023.2.2,Win32,59.88023952,613ab0960ff3efd039adf1e0,65d6bb0e977760de756971f7,65d6bd56210973f7d2836d08,0.057,0.057,0,74,74,102,1,eightsix,,,,,,,,,,,,,,,,,,,,,,,,,,,,,,,,,,,,,,,,,,,,,,,,,,,,,,,,,,,,,,,,,,,,,,,,,,,,,,,,,,,,,,,,,,,,,,,,,,,,,,,,,,,,,,,,,,,,,,,,,,,,,,,,,,,,,,,,,
,,613ab0960ff3efd039adf1e0,2024-02-21_21h34.16.113,kallum_motion_pilot,2023.2.2,Win32,59.88023952,613ab0960ff3efd039adf1e0,65d6bb0e977760de756971f7,65d6bd56210973f7d2836d08,0.0572,0.0572,0,75,75,5,1,threefour,,,,,,,,,,,,,,,,,,,,,,,,,,,,,,,,,,,,,,,,,,,,,,,,,,,,,,,,,,,,,,,,,,,,,,,,,,,,,,,,,,,,,,,,,,,,,,,,,,,,,,,,,,,,,,,,,,,,,,,,,,,,,,,,,,,,,,,,,
,,613ab0960ff3efd039adf1e0,2024-02-21_21h34.16.113,kallum_motion_pilot,2023.2.2,Win32,59.88023952,613ab0960ff3efd039adf1e0,65d6bb0e977760de756971f7,65d6bd56210973f7d2836d08,0.0572,0.0573,0,76,76,54,1,fourtwo,,,,,,,,,,,,,,,,,,,,,,,,,,,,,,,,,,,,,,,,,,,,,,,,,,,,,,,,,,,,,,,,,,,,,,,,,,,,,,,,,,,,,,,,,,,,,,,,,,,,,,,,,,,,,,,,,,,,,,,,,,,,,,,,,,,,,,,,,
,,613ab0960ff3efd039adf1e0,2024-02-21_21h34.16.113,kallum_motion_pilot,2023.2.2,Win32,59.88023952,613ab0960ff3efd039adf1e0,65d6bb0e977760de756971f7,65d6bd56210973f7d2836d08,0.0574,0.0575,0,77,77,126,1,eightsix,,,,,,,,,,,,,,,,,,,,,,,,,,,,,,,,,,,,,,,,,,,,,,,,,,,,,,,,,,,,,,,,,,,,,,,,,,,,,,,,,,,,,,,,,,,,,,,,,,,,,,,,,,,,,,,,,,,,,,,,,,,,,,,,,,,,,,,,,
,,613ab0960ff3efd039adf1e0,2024-02-21_21h34.16.113,kallum_motion_pilot,2023.2.2,Win32,59.88023952,613ab0960ff3efd039adf1e0,65d6bb0e977760de756971f7,65d6bd56210973f7d2836d08,0.0576,0.0576,0,78,78,158,1,eightsix,,,,,,,,,,,,,,,,,,,,,,,,,,,,,,,,,,,,,,,,,,,,,,,,,,,,,,,,,,,,,,,,,,,,,,,,,,,,,,,,,,,,,,,,,,,,,,,,,,,,,,,,,,,,,,,,,,,,,,,,,,,,,,,,,,,,,,,,,
,,613ab0960ff3efd039adf1e0,2024-02-21_21h34.16.113,kallum_motion_pilot,2023.2.2,Win32,59.88023952,613ab0960ff3efd039adf1e0,65d6bb0e977760de756971f7,65d6bd56210973f7d2836d08,0.0578,0.0578,0,79,79,150,1,eightsix,,,,,,,,,,,,,,,,,,,,,,,,,,,,,,,,,,,,,,,,,,,,,,,,,,,,,,,,,,,,,,,,,,,,,,,,,,,,,,,,,,,,,,,,,,,,,,,,,,,,,,,,,,,,,,,,,,,,,,,,,,,,,,,,,,,,,,,,,
,,613ab0960ff3efd039adf1e0,2024-02-21_21h34.16.113,kallum_motion_pilot,2023.2.2,Win32,59.88023952,613ab0960ff3efd039adf1e0,65d6bb0e977760de756971f7,65d6bd56210973f7d2836d08,0.058,0.058,0,80,80,82,1,sixfive,,,,,,,,,,,,,,,,,,,,,,,,,,,,,,,,,,,,,,,,,,,,,,,,,,,,,,,,,,,,,,,,,,,,,,,,,,,,,,,,,,,,,,,,,,,,,,,,,,,,,,,,,,,,,,,,,,,,,,,,,,,,,,,,,,,,,,,,,
,,613ab0960ff3efd039adf1e0,2024-02-21_21h34.16.113,kallum_motion_pilot,2023.2.2,Win32,59.88023952,613ab0960ff3efd039adf1e0,65d6bb0e977760de756971f7,65d6bd56210973f7d2836d08,0.0581,0.0582,0,81,81,161,1,fiveseven,,,,,,,,,,,,,,,,,,,,,,,,,,,,,,,,,,,,,,,,,,,,,,,,,,,,,,,,,,,,,,,,,,,,,,,,,,,,,,,,,,,,,,,,,,,,,,,,,,,,,,,,,,,,,,,,,,,,,,,,,,,,,,,,,,,,,,,,,
,,613ab0960ff3efd039adf1e0,2024-02-21_21h34.16.113,kallum_motion_pilot,2023.2.2,Win32,59.88023952,613ab0960ff3efd039adf1e0,65d6bb0e977760de756971f7,65d6bd56210973f7d2836d08,0.0583,0.0583,0,82,82,128,1,fivesix,,,,,,,,,,,,,,,,,,,,,,,,,,,,,,,,,,,,,,,,,,,,,,,,,,,,,,,,,,,,,,,,,,,,,,,,,,,,,,,,,,,,,,,,,,,,,,,,,,,,,,,,,,,,,,,,,,,,,,,,,,,,,,,,,,,,,,,,,
,,613ab0960ff3efd039adf1e0,2024-02-21_21h34.16.113,kallum_motion_pilot,2023.2.2,Win32,59.88023952,613ab0960ff3efd039adf1e0,65d6bb0e977760de756971f7,65d6bd56210973f7d2836d08,0.0584,0.0585,0,83,83,92,1,sevenfive,,,,,,,,,,,,,,,,,,,,,,,,,,,,,,,,,,,,,,,,,,,,,,,,,,,,,,,,,,,,,,,,,,,,,,,,,,,,,,,,,,,,,,,,,,,,,,,,,,,,,,,,,,,,,,,,,,,,,,,,,,,,,,,,,,,,,,,,,
,,613ab0960ff3efd039adf1e0,2024-02-21_21h34.16.113,kallum_motion_pilot,2023.2.2,Win32,59.88023952,613ab0960ff3efd039adf1e0,65d6bb0e977760de756971f7,65d6bd56210973f7d2836d08,0.0586,0.0586,0,84,84,157,1,seveneight,,,,,,,,,,,,,,,,,,,,,,,,,,,,,,,,,,,,,,,,,,,,,,,,,,,,,,,,,,,,,,,,,,,,,,,,,,,,,,,,,,,,,,,,,,,,,,,,,,,,,,,,,,,,,,,,,,,,,,,,,,,,,,,,,,,,,,,,,
,,613ab0960ff3efd039adf1e0,2024-02-21_21h34.16.113,kallum_motion_pilot,2023.2.2,Win32,59.88023952,613ab0960ff3efd039adf1e0,65d6bb0e977760de756971f7,65d6bd56210973f7d2836d08,0.0588,0.0588,0,85,85,26,1,twoone,,,,,,,,,,,,,,,,,,,,,,,,,,,,,,,,,,,,,,,,,,,,,,,,,,,,,,,,,,,,,,,,,,,,,,,,,,,,,,,,,,,,,,,,,,,,,,,,,,,,,,,,,,,,,,,,,,,,,,,,,,,,,,,,,,,,,,,,,
,,613ab0960ff3efd039adf1e0,2024-02-21_21h34.16.113,kallum_motion_pilot,2023.2.2,Win32,59.88023952,613ab0960ff3efd039adf1e0,65d6bb0e977760de756971f7,65d6bd56210973f7d2836d08,0.0589,0.059,0,86,86,108,1,sevenfive,,,,,,,,,,,,,,,,,,,,,,,,,,,,,,,,,,,,,,,,,,,,,,,,,,,,,,,,,,,,,,,,,,,,,,,,,,,,,,,,,,,,,,,,,,,,,,,,,,,,,,,,,,,,,,,,,,,,,,,,,,,,,,,,,,,,,,,,,
,,613ab0960ff3efd039adf1e0,2024-02-21_21h34.16.113,kallum_motion_pilot,2023.2.2,Win32,59.88023952,613ab0960ff3efd039adf1e0,65d6bb0e977760de756971f7,65d6bd56210973f7d2836d08,0.059,0.0591,0,87,87,31,1,fourthree,,,,,,,,,,,,,,,,,,,,,,,,,,,,,,,,,,,,,,,,,,,,,,,,,,,,,,,,,,,,,,,,,,,,,,,,,,,,,,,,,,,,,,,,,,,,,,,,,,,,,,,,,,,,,,,,,,,,,,,,,,,,,,,,,,,,,,,,,
,,613ab0960ff3efd039adf1e0,2024-02-21_21h34.16.113,kallum_motion_pilot,2023.2.2,Win32,59.88023952,613ab0960ff3efd039adf1e0,65d6bb0e977760de756971f7,65d6bd56210973f7d2836d08,0.0592,0.0593,0,88,88,84,1,sevenfive,,,,,,,,,,,,,,,,,,,,,,,,,,,,,,,,,,,,,,,,,,,,,,,,,,,,,,,,,,,,,,,,,,,,,,,,,,,,,,,,,,,,,,,,,,,,,,,,,,,,,,,,,,,,,,,,,,,,,,,,,,,,,,,,,,,,,,,,,
,,613ab0960ff3efd039adf1e0,2024-02-21_21h34.16.113,kallum_motion_pilot,2023.2.2,Win32,59.88023952,613ab0960ff3efd039adf1e0,65d6bb0e977760de756971f7,65d6bd56210973f7d2836d08,0.0594,0.0594,0,89,89,37,1,threefour,,,,,,,,,,,,,,,,,,,,,,,,,,,,,,,,,,,,,,,,,,,,,,,,,,,,,,,,,,,,,,,,,,,,,,,,,,,,,,,,,,,,,,,,,,,,,,,,,,,,,,,,,,,,,,,,,,,,,,,,,,,,,,,,,,,,,,,,,
,,613ab0960ff3efd039adf1e0,2024-02-21_21h34.16.113,kallum_motion_pilot,2023.2.2,Win32,59.88023952,613ab0960ff3efd039adf1e0,65d6bb0e977760de756971f7,65d6bd56210973f7d2836d08,0.0595,0.0596,0,90,90,7,1,fourthree,,,,,,,,,,,,,,,,,,,,,,,,,,,,,,,,,,,,,,,,,,,,,,,,,,,,,,,,,,,,,,,,,,,,,,,,,,,,,,,,,,,,,,,,,,,,,,,,,,,,,,,,,,,,,,,,,,,,,,,,,,,,,,,,,,,,,,,,,
,,613ab0960ff3efd039adf1e0,2024-02-21_21h34.16.113,kallum_motion_pilot,2023.2.2,Win32,59.88023952,613ab0960ff3efd039adf1e0,65d6bb0e977760de756971f7,65d6bd56210973f7d2836d08,0.0597,0.0597,0,91,91,114,1,sixfive,,,,,,,,,,,,,,,,,,,,,,,,,,,,,,,,,,,,,,,,,,,,,,,,,,,,,,,,,,,,,,,,,,,,,,,,,,,,,,,,,,,,,,,,,,,,,,,,,,,,,,,,,,,,,,,,,,,,,,,,,,,,,,,,,,,,,,,,,
,,613ab0960ff3efd039adf1e0,2024-02-21_21h34.16.113,kallum_motion_pilot,2023.2.2,Win32,59.88023952,613ab0960ff3efd039adf1e0,65d6bb0e977760de756971f7,65d6bd56210973f7d2836d08,0.0599,0.06,0,92,92,142,1,eightsix,,,,,,,,,,,,,,,,,,,,,,,,,,,,,,,,,,,,,,,,,,,,,,,,,,,,,,,,,,,,,,,,,,,,,,,,,,,,,,,,,,,,,,,,,,,,,,,,,,,,,,,,,,,,,,,,,,,,,,,,,,,,,,,,,,,,,,,,,
,,613ab0960ff3efd039adf1e0,2024-02-21_21h34.16.113,kallum_motion_pilot,2023.2.2,Win32,59.88023952,613ab0960ff3efd039adf1e0,65d6bb0e977760de756971f7,65d6bd56210973f7d2836d08,0.0601,0.0601,0,93,93,137,1,fiveseven,,,,,,,,,,,,,,,,,,,,,,,,,,,,,,,,,,,,,,,,,,,,,,,,,,,,,,,,,,,,,,,,,,,,,,,,,,,,,,,,,,,,,,,,,,,,,,,,,,,,,,,,,,,,,,,,,,,,,,,,,,,,,,,,,,,,,,,,,
,,613ab0960ff3efd039adf1e0,2024-02-21_21h34.16.113,kallum_motion_pilot,2023.2.2,Win32,59.88023952,613ab0960ff3efd039adf1e0,65d6bb0e977760de756971f7,65d6bd56210973f7d2836d08,0.0602,0.0602,0,94,94,70,1,fourtwo,,,,,,,,,,,,,,,,,,,,,,,,,,,,,,,,,,,,,,,,,,,,,,,,,,,,,,,,,,,,,,,,,,,,,,,,,,,,,,,,,,,,,,,,,,,,,,,,,,,,,,,,,,,,,,,,,,,,,,,,,,,,,,,,,,,,,,,,,
,,613ab0960ff3efd039adf1e0,2024-02-21_21h34.16.113,kallum_motion_pilot,2023.2.2,Win32,59.88023952,613ab0960ff3efd039adf1e0,65d6bb0e977760de756971f7,65d6bd56210973f7d2836d08,0.0604,0.0605,0,95,95,77,1,threefour,,,,,,,,,,,,,,,,,,,,,,,,,,,,,,,,,,,,,,,,,,,,,,,,,,,,,,,,,,,,,,,,,,,,,,,,,,,,,,,,,,,,,,,,,,,,,,,,,,,,,,,,,,,,,,,,,,,,,,,,,,,,,,,,,,,,,,,,,
,,613ab0960ff3efd039adf1e0,2024-02-21_21h34.16.113,kallum_motion_pilot,2023.2.2,Win32,59.88023952,613ab0960ff3efd039adf1e0,65d6bb0e977760de756971f7,65d6bd56210973f7d2836d08,0.0606,0.0606,0,96,96,122,1,sixfive,,,,,,,,,,,,,,,,,,,,,,,,,,,,,,,,,,,,,,,,,,,,,,,,,,,,,,,,,,,,,,,,,,,,,,,,,,,,,,,,,,,,,,,,,,,,,,,,,,,,,,,,,,,,,,,,,,,,,,,,,,,,,,,,,,,,,,,,,
,,613ab0960ff3efd039adf1e0,2024-02-21_21h34.16.113,kallum_motion_pilot,2023.2.2,Win32,59.88023952,613ab0960ff3efd039adf1e0,65d6bb0e977760de756971f7,65d6bd56210973f7d2836d08,0.0607,0.0608,0,97,97,140,1,sevenfive,,,,,,,,,,,,,,,,,,,,,,,,,,,,,,,,,,,,,,,,,,,,,,,,,,,,,,,,,,,,,,,,,,,,,,,,,,,,,,,,,,,,,,,,,,,,,,,,,,,,,,,,,,,,,,,,,,,,,,,,,,,,,,,,,,,,,,,,,
,,613ab0960ff3efd039adf1e0,2024-02-21_21h34.16.113,kallum_motion_pilot,2023.2.2,Win32,59.88023952,613ab0960ff3efd039adf1e0,65d6bb0e977760de756971f7,65d6bd56210973f7d2836d08,0.061,0.061,0,98,98,107,1,sixeight,,,,,,,,,,,,,,,,,,,,,,,,,,,,,,,,,,,,,,,,,,,,,,,,,,,,,,,,,,,,,,,,,,,,,,,,,,,,,,,,,,,,,,,,,,,,,,,,,,,,,,,,,,,,,,,,,,,,,,,,,,,,,,,,,,,,,,,,,
,,613ab0960ff3efd039adf1e0,2024-02-21_21h34.16.113,kallum_motion_pilot,2023.2.2,Win32,59.88023952,613ab0960ff3efd039adf1e0,65d6bb0e977760de756971f7,65d6bd56210973f7d2836d08,0.0611,0.0612,0,99,99,33,1,onethree,,,,,,,,,,,,,,,,,,,,,,,,,,,,,,,,,,,,,,,,,,,,,,,,,,,,,,,,,,,,,,,,,,,,,,,,,,,,,,,,,,,,,,,,,,,,,,,,,,,,,,,,,,,,,,,,,,,,,,,,,,,,,,,,,,,,,,,,,
,,613ab0960ff3efd039adf1e0,2024-02-21_21h34.16.113,kallum_motion_pilot,2023.2.2,Win32,59.88023952,613ab0960ff3efd039adf1e0,65d6bb0e977760de756971f7,65d6bd56210973f7d2836d08,0.0614,0.0614,0,100,100,58,1,twoone,,,,,,,,,,,,,,,,,,,,,,,,,,,,,,,,,,,,,,,,,,,,,,,,,,,,,,,,,,,,,,,,,,,,,,,,,,,,,,,,,,,,,,,,,,,,,,,,,,,,,,,,,,,,,,,,,,,,,,,,,,,,,,,,,,,,,,,,,
,,613ab0960ff3efd039adf1e0,2024-02-21_21h34.16.113,kallum_motion_pilot,2023.2.2,Win32,59.88023952,613ab0960ff3efd039adf1e0,65d6bb0e977760de756971f7,65d6bd56210973f7d2836d08,0.0616,0.0616,0,101,101,25,1,onethree,,,,,,,,,,,,,,,,,,,,,,,,,,,,,,,,,,,,,,,,,,,,,,,,,,,,,,,,,,,,,,,,,,,,,,,,,,,,,,,,,,,,,,,,,,,,,,,,,,,,,,,,,,,,,,,,,,,,,,,,,,,,,,,,,,,,,,,,,
,,613ab0960ff3efd039adf1e0,2024-02-21_21h34.16.113,kallum_motion_pilot,2023.2.2,Win32,59.88023952,613ab0960ff3efd039adf1e0,65d6bb0e977760de756971f7,65d6bd56210973f7d2836d08,0.0617,0.0617,0,102,102,50,1,twoone,,,,,,,,,,,,,,,,,,,,,,,,,,,,,,,,,,,,,,,,,,,,,,,,,,,,,,,,,,,,,,,,,,,,,,,,,,,,,,,,,,,,,,,,,,,,,,,,,,,,,,,,,,,,,,,,,,,,,,,,,,,,,,,,,,,,,,,,,
,,613ab0960ff3efd039adf1e0,2024-02-21_21h34.16.113,kallum_motion_pilot,2023.2.2,Win32,59.88023952,613ab0960ff3efd039adf1e0,65d6bb0e977760de756971f7,65d6bd56210973f7d2836d08,0.0619,0.062,0,103,103,112,1,fivesix,,,,,,,,,,,,,,,,,,,,,,,,,,,,,,,,,,,,,,,,,,,,,,,,,,,,,,,,,,,,,,,,,,,,,,,,,,,,,,,,,,,,,,,,,,,,,,,,,,,,,,,,,,,,,,,,,,,,,,,,,,,,,,,,,,,,,,,,,
,,613ab0960ff3efd039adf1e0,2024-02-21_21h34.16.113,kallum_motion_pilot,2023.2.2,Win32,59.88023952,613ab0960ff3efd039adf1e0,65d6bb0e977760de756971f7,65d6bd56210973f7d2836d08,0.0621,0.0621,0,104,104,39,1,fourthree,,,,,,,,,,,,,,,,,,,,,,,,,,,,,,,,,,,,,,,,,,,,,,,,,,,,,,,,,,,,,,,,,,,,,,,,,,,,,,,,,,,,,,,,,,,,,,,,,,,,,,,,,,,,,,,,,,,,,,,,,,,,,,,,,,,,,,,,,
,,613ab0960ff3efd039adf1e0,2024-02-21_21h34.16.113,kallum_motion_pilot,2023.2.2,Win32,59.88023952,613ab0960ff3efd039adf1e0,65d6bb0e977760de756971f7,65d6bd56210973f7d2836d08,0.0622,0.0623,0,105,105,120,1,fivesix,,,,,,,,,,,,,,,,,,,,,,,,,,,,,,,,,,,,,,,,,,,,,,,,,,,,,,,,,,,,,,,,,,,,,,,,,,,,,,,,,,,,,,,,,,,,,,,,,,,,,,,,,,,,,,,,,,,,,,,,,,,,,,,,,,,,,,,,,
,,613ab0960ff3efd039adf1e0,2024-02-21_21h34.16.113,kallum_motion_pilot,2023.2.2,Win32,59.88023952,613ab0960ff3efd039adf1e0,65d6bb0e977760de756971f7,65d6bd56210973f7d2836d08,0.0624,0.0625,0,106,106,72,1,onetwo,,,,,,,,,,,,,,,,,,,,,,,,,,,,,,,,,,,,,,,,,,,,,,,,,,,,,,,,,,,,,,,,,,,,,,,,,,,,,,,,,,,,,,,,,,,,,,,,,,,,,,,,,,,,,,,,,,,,,,,,,,,,,,,,,,,,,,,,,
,,613ab0960ff3efd039adf1e0,2024-02-21_21h34.16.113,kallum_motion_pilot,2023.2.2,Win32,59.88023952,613ab0960ff3efd039adf1e0,65d6bb0e977760de756971f7,65d6bd56210973f7d2836d08,0.0626,0.0626,0,107,107,4,1,threeone,,,,,,,,,,,,,,,,,,,,,,,,,,,,,,,,,,,,,,,,,,,,,,,,,,,,,,,,,,,,,,,,,,,,,,,,,,,,,,,,,,,,,,,,,,,,,,,,,,,,,,,,,,,,,,,,,,,,,,,,,,,,,,,,,,,,,,,,,
,,613ab0960ff3efd039adf1e0,2024-02-21_21h34.16.113,kallum_motion_pilot,2023.2.2,Win32,59.88023952,613ab0960ff3efd039adf1e0,65d6bb0e977760de756971f7,65d6bd56210973f7d2836d08,0.0626,0.0628,0,108,108,87,1,eightseven,,,,,,,,,,,,,,,,,,,,,,,,,,,,,,,,,,,,,,,,,,,,,,,,,,,,,,,,,,,,,,,,,,,,,,,,,,,,,,,,,,,,,,,,,,,,,,,,,,,,,,,,,,,,,,,,,,,,,,,,,,,,,,,,,,,,,,,,,
,,613ab0960ff3efd039adf1e0,2024-02-21_21h34.16.113,kallum_motion_pilot,2023.2.2,Win32,59.88023952,613ab0960ff3efd039adf1e0,65d6bb0e977760de756971f7,65d6bd56210973f7d2836d08,0.0628,0.0629,0,109,109,46,1,fourtwo,,,,,,,,,,,,,,,,,,,,,,,,,,,,,,,,,,,,,,,,,,,,,,,,,,,,,,,,,,,,,,,,,,,,,,,,,,,,,,,,,,,,,,,,,,,,,,,,,,,,,,,,,,,,,,,,,,,,,,,,,,,,,,,,,,,,,,,,,
,,613ab0960ff3efd039adf1e0,2024-02-21_21h34.16.113,kallum_motion_pilot,2023.2.2,Win32,59.88023952,613ab0960ff3efd039adf1e0,65d6bb0e977760de756971f7,65d6bd56210973f7d2836d08,0.063,0.063,0,110,110,48,1,onetwo,,,,,,,,,,,,,,,,,,,,,,,,,,,,,,,,,,,,,,,,,,,,,,,,,,,,,,,,,,,,,,,,,,,,,,,,,,,,,,,,,,,,,,,,,,,,,,,,,,,,,,,,,,,,,,,,,,,,,,,,,,,,,,,,,,,,,,,,,
,,613ab0960ff3efd039adf1e0,2024-02-21_21h34.16.113,kallum_motion_pilot,2023.2.2,Win32,59.88023952,613ab0960ff3efd039adf1e0,65d6bb0e977760de756971f7,65d6bd56210973f7d2836d08,0.0632,0.0632,0,111,111,32,1,onetwo,,,,,,,,,,,,,,,,,,,,,,,,,,,,,,,,,,,,,,,,,,,,,,,,,,,,,,,,,,,,,,,,,,,,,,,,,,,,,,,,,,,,,,,,,,,,,,,,,,,,,,,,,,,,,,,,,,,,,,,,,,,,,,,,,,,,,,,,,
,,613ab0960ff3efd039adf1e0,2024-02-21_21h34.16.113,kallum_motion_pilot,2023.2.2,Win32,59.88023952,613ab0960ff3efd039adf1e0,65d6bb0e977760de756971f7,65d6bd56210973f7d2836d08,0.0634,0.0634,0,112,112,106,1,sixfive,,,,,,,,,,,,,,,,,,,,,,,,,,,,,,,,,,,,,,,,,,,,,,,,,,,,,,,,,,,,,,,,,,,,,,,,,,,,,,,,,,,,,,,,,,,,,,,,,,,,,,,,,,,,,,,,,,,,,,,,,,,,,,,,,,,,,,,,,
,,613ab0960ff3efd039adf1e0,2024-02-21_21h34.16.113,kallum_motion_pilot,2023.2.2,Win32,59.88023952,613ab0960ff3efd039adf1e0,65d6bb0e977760de756971f7,65d6bd56210973f7d2836d08,0.0635,0.0636,0,113,113,111,1,eightseven,,,,,,,,,,,,,,,,,,,,,,,,,,,,,,,,,,,,,,,,,,,,,,,,,,,,,,,,,,,,,,,,,,,,,,,,,,,,,,,,,,,,,,,,,,,,,,,,,,,,,,,,,,,,,,,,,,,,,,,,,,,,,,,,,,,,,,,,,
,,613ab0960ff3efd039adf1e0,2024-02-21_21h34.16.113,kallum_motion_pilot,2023.2.2,Win32,59.88023952,613ab0960ff3efd039adf1e0,65d6bb0e977760de756971f7,65d6bd56210973f7d2836d08,0.0637,0.0638,0,114,114,24,1,onetwo,,,,,,,,,,,,,,,,,,,,,,,,,,,,,,,,,,,,,,,,,,,,,,,,,,,,,,,,,,,,,,,,,,,,,,,,,,,,,,,,,,,,,,,,,,,,,,,,,,,,,,,,,,,,,,,,,,,,,,,,,,,,,,,,,,,,,,,,,
,,613ab0960ff3efd039adf1e0,2024-02-21_21h34.16.113,kallum_motion_pilot,2023.2.2,Win32,59.88023952,613ab0960ff3efd039adf1e0,65d6bb0e977760de756971f7,65d6bd56210973f7d2836d08,0.0638,0.0639,0,115,115,0,1,onetwo,,,,,,,,,,,,,,,,,,,,,,,,,,,,,,,,,,,,,,,,,,,,,,,,,,,,,,,,,,,,,,,,,,,,,,,,,,,,,,,,,,,,,,,,,,,,,,,,,,,,,,,,,,,,,,,,,,,,,,,,,,,,,,,,,,,,,,,,,
,,613ab0960ff3efd039adf1e0,2024-02-21_21h34.16.113,kallum_motion_pilot,2023.2.2,Win32,59.88023952,613ab0960ff3efd039adf1e0,65d6bb0e977760de756971f7,65d6bd56210973f7d2836d08,0.0646,0.0646,0,116,116,160,1,fivesix,,,,,,,,,,,,,,,,,,,,,,,,,,,,,,,,,,,,,,,,,,,,,,,,,,,,,,,,,,,,,,,,,,,,,,,,,,,,,,,,,,,,,,,,,,,,,,,,,,,,,,,,,,,,,,,,,,,,,,,,,,,,,,,,,,,,,,,,,
,,613ab0960ff3efd039adf1e0,2024-02-21_21h34.16.113,kallum_motion_pilot,2023.2.2,Win32,59.88023952,613ab0960ff3efd039adf1e0,65d6bb0e977760de756971f7,65d6bd56210973f7d2836d08,0.0648,0.0649,0,117,117,41,1,onethree,,,,,,,,,,,,,,,,,,,,,,,,,,,,,,,,,,,,,,,,,,,,,,,,,,,,,,,,,,,,,,,,,,,,,,,,,,,,,,,,,,,,,,,,,,,,,,,,,,,,,,,,,,,,,,,,,,,,,,,,,,,,,,,,,,,,,,,,,
,,613ab0960ff3efd039adf1e0,2024-02-21_21h34.16.113,kallum_motion_pilot,2023.2.2,Win32,59.88023952,613ab0960ff3efd039adf1e0,65d6bb0e977760de756971f7,65d6bd56210973f7d2836d08,0.065,0.065,0,118,118,151,1,eightseven,,,,,,,,,,,,,,,,,,,,,,,,,,,,,,,,,,,,,,,,,,,,,,,,,,,,,,,,,,,,,,,,,,,,,,,,,,,,,,,,,,,,,,,,,,,,,,,,,,,,,,,,,,,,,,,,,,,,,,,,,,,,,,,,,,,,,,,,,
,,613ab0960ff3efd039adf1e0,2024-02-21_21h34.16.113,kallum_motion_pilot,2023.2.2,Win32,59.88023952,613ab0960ff3efd039adf1e0,65d6bb0e977760de756971f7,65d6bd56210973f7d2836d08,0.0651,0.0651,0,119,119,55,1,fourthree,,,,,,,,,,,,,,,,,,,,,,,,,,,,,,,,,,,,,,,,,,,,,,,,,,,,,,,,,,,,,,,,,,,,,,,,,,,,,,,,,,,,,,,,,,,,,,,,,,,,,,,,,,,,,,,,,,,,,,,,,,,,,,,,,,,,,,,,,
,,613ab0960ff3efd039adf1e0,2024-02-21_21h34.16.113,kallum_motion_pilot,2023.2.2,Win32,59.88023952,613ab0960ff3efd039adf1e0,65d6bb0e977760de756971f7,65d6bd56210973f7d2836d08,0.0652,0.0652,0,120,120,49,1,onethree,,,,,,,,,,,,,,,,,,,,,,,,,,,,,,,,,,,,,,,,,,,,,,,,,,,,,,,,,,,,,,,,,,,,,,,,,,,,,,,,,,,,,,,,,,,,,,,,,,,,,,,,,,,,,,,,,,,,,,,,,,,,,,,,,,,,,,,,,
,,613ab0960ff3efd039adf1e0,2024-02-21_21h34.16.113,kallum_motion_pilot,2023.2.2,Win32,59.88023952,613ab0960ff3efd039adf1e0,65d6bb0e977760de756971f7,65d6bd56210973f7d2836d08,0.0653,0.0653,0,121,121,76,1,threeone,,,,,,,,,,,,,,,,,,,,,,,,,,,,,,,,,,,,,,,,,,,,,,,,,,,,,,,,,,,,,,,,,,,,,,,,,,,,,,,,,,,,,,,,,,,,,,,,,,,,,,,,,,,,,,,,,,,,,,,,,,,,,,,,,,,,,,,,,
,,613ab0960ff3efd039adf1e0,2024-02-21_21h34.16.113,kallum_motion_pilot,2023.2.2,Win32,59.88023952,613ab0960ff3efd039adf1e0,65d6bb0e977760de756971f7,65d6bd56210973f7d2836d08,0.0655,0.0655,0,122,122,109,1,seveneight,,,,,,,,,,,,,,,,,,,,,,,,,,,,,,,,,,,,,,,,,,,,,,,,,,,,,,,,,,,,,,,,,,,,,,,,,,,,,,,,,,,,,,,,,,,,,,,,,,,,,,,,,,,,,,,,,,,,,,,,,,,,,,,,,,,,,,,,,
,,613ab0960ff3efd039adf1e0,2024-02-21_21h34.16.113,kallum_motion_pilot,2023.2.2,Win32,59.88023952,613ab0960ff3efd039adf1e0,65d6bb0e977760de756971f7,65d6bd56210973f7d2836d08,0.0656,0.0656,0,123,123,64,1,onetwo,,,,,,,,,,,,,,,,,,,,,,,,,,,,,,,,,,,,,,,,,,,,,,,,,,,,,,,,,,,,,,,,,,,,,,,,,,,,,,,,,,,,,,,,,,,,,,,,,,,,,,,,,,,,,,,,,,,,,,,,,,,,,,,,,,,,,,,,,
,,613ab0960ff3efd039adf1e0,2024-02-21_21h34.16.113,kallum_motion_pilot,2023.2.2,Win32,59.88023952,613ab0960ff3efd039adf1e0,65d6bb0e977760de756971f7,65d6bd56210973f7d2836d08,0.0658,0.0658,0,124,124,135,1,eightseven,,,,,,,,,,,,,,,,,,,,,,,,,,,,,,,,,,,,,,,,,,,,,,,,,,,,,,,,,,,,,,,,,,,,,,,,,,,,,,,,,,,,,,,,,,,,,,,,,,,,,,,,,,,,,,,,,,,,,,,,,,,,,,,,,,,,,,,,,
,,613ab0960ff3efd039adf1e0,2024-02-21_21h34.16.113,kallum_motion_pilot,2023.2.2,Win32,59.88023952,613ab0960ff3efd039adf1e0,65d6bb0e977760de756971f7,65d6bd56210973f7d2836d08,0.066,0.066,0,125,125,88,1,fivesix,,,,,,,,,,,,,,,,,,,,,,,,,,,,,,,,,,,,,,,,,,,,,,,,,,,,,,,,,,,,,,,,,,,,,,,,,,,,,,,,,,,,,,,,,,,,,,,,,,,,,,,,,,,,,,,,,,,,,,,,,,,,,,,,,,,,,,,,,
,,613ab0960ff3efd039adf1e0,2024-02-21_21h34.16.113,kallum_motion_pilot,2023.2.2,Win32,59.88023952,613ab0960ff3efd039adf1e0,65d6bb0e977760de756971f7,65d6bd56210973f7d2836d08,0.0661,0.0663,0,126,126,17,1,onethree,,,,,,,,,,,,,,,,,,,,,,,,,,,,,,,,,,,,,,,,,,,,,,,,,,,,,,,,,,,,,,,,,,,,,,,,,,,,,,,,,,,,,,,,,,,,,,,,,,,,,,,,,,,,,,,,,,,,,,,,,,,,,,,,,,,,,,,,,
,,613ab0960ff3efd039adf1e0,2024-02-21_21h34.16.113,kallum_motion_pilot,2023.2.2,Win32,59.88023952,613ab0960ff3efd039adf1e0,65d6bb0e977760de756971f7,65d6bd56210973f7d2836d08,0.0664,0.0665,0,127,127,62,1,fourtwo,,,,,,,,,,,,,,,,,,,,,,,,,,,,,,,,,,,,,,,,,,,,,,,,,,,,,,,,,,,,,,,,,,,,,,,,,,,,,,,,,,,,,,,,,,,,,,,,,,,,,,,,,,,,,,,,,,,,,,,,,,,,,,,,,,,,,,,,,
,,613ab0960ff3efd039adf1e0,2024-02-21_21h34.16.113,kallum_motion_pilot,2023.2.2,Win32,59.88023952,613ab0960ff3efd039adf1e0,65d6bb0e977760de756971f7,65d6bd56210973f7d2836d08,0.0666,0.0666,0,128,128,3,1,twofour,,,,,,,,,,,,,,,,,,,,,,,,,,,,,,,,,,,,,,,,,,,,,,,,,,,,,,,,,,,,,,,,,,,,,,,,,,,,,,,,,,,,,,,,,,,,,,,,,,,,,,,,,,,,,,,,,,,,,,,,,,,,,,,,,,,,,,,,,
,,613ab0960ff3efd039adf1e0,2024-02-21_21h34.16.113,kallum_motion_pilot,2023.2.2,Win32,59.88023952,613ab0960ff3efd039adf1e0,65d6bb0e977760de756971f7,65d6bd56210973f7d2836d08,0.0667,0.0667,0,129,129,78,1,fourtwo,,,,,,,,,,,,,,,,,,,,,,,,,,,,,,,,,,,,,,,,,,,,,,,,,,,,,,,,,,,,,,,,,,,,,,,,,,,,,,,,,,,,,,,,,,,,,,,,,,,,,,,,,,,,,,,,,,,,,,,,,,,,,,,,,,,,,,,,,
,,613ab0960ff3efd039adf1e0,2024-02-21_21h34.16.113,kallum_motion_pilot,2023.2.2,Win32,59.88023952,613ab0960ff3efd039adf1e0,65d6bb0e977760de756971f7,65d6bd56210973f7d2836d08,0.0668,0.0668,0,130,130,52,1,threeone,,,,,,,,,,,,,,,,,,,,,,,,,,,,,,,,,,,,,,,,,,,,,,,,,,,,,,,,,,,,,,,,,,,,,,,,,,,,,,,,,,,,,,,,,,,,,,,,,,,,,,,,,,,,,,,,,,,,,,,,,,,,,,,,,,,,,,,,,
,,613ab0960ff3efd039adf1e0,2024-02-21_21h34.16.113,kallum_motion_pilot,2023.2.2,Win32,59.88023952,613ab0960ff3efd039adf1e0,65d6bb0e977760de756971f7,65d6bd56210973f7d2836d08,0.0669,0.067,0,131,131,97,1,fiveseven,,,,,,,,,,,,,,,,,,,,,,,,,,,,,,,,,,,,,,,,,,,,,,,,,,,,,,,,,,,,,,,,,,,,,,,,,,,,,,,,,,,,,,,,,,,,,,,,,,,,,,,,,,,,,,,,,,,,,,,,,,,,,,,,,,,,,,,,,
,,613ab0960ff3efd039adf1e0,2024-02-21_21h34.16.113,kallum_motion_pilot,2023.2.2,Win32,59.88023952,613ab0960ff3efd039adf1e0,65d6bb0e977760de756971f7,65d6bd56210973f7d2836d08,0.0671,0.0672,0,132,132,104,1,fivesix,,,,,,,,,,,,,,,,,,,,,,,,,,,,,,,,,,,,,,,,,,,,,,,,,,,,,,,,,,,,,,,,,,,,,,,,,,,,,,,,,,,,,,,,,,,,,,,,,,,,,,,,,,,,,,,,,,,,,,,,,,,,,,,,,,,,,,,,,
,,613ab0960ff3efd039adf1e0,2024-02-21_21h34.16.113,kallum_motion_pilot,2023.2.2,Win32,59.88023952,613ab0960ff3efd039adf1e0,65d6bb0e977760de756971f7,65d6bd56210973f7d2836d08,0.0673,0.0673,0,133,133,40,1,onetwo,,,,,,,,,,,,,,,,,,,,,,,,,,,,,,,,,,,,,,,,,,,,,,,,,,,,,,,,,,,,,,,,,,,,,,,,,,,,,,,,,,,,,,,,,,,,,,,,,,,,,,,,,,,,,,,,,,,,,,,,,,,,,,,,,,,,,,,,,
,,613ab0960ff3efd039adf1e0,2024-02-21_21h34.16.113,kallum_motion_pilot,2023.2.2,Win32,59.88023952,613ab0960ff3efd039adf1e0,65d6bb0e977760de756971f7,65d6bd56210973f7d2836d08,0.0674,0.0675,0,134,134,131,1,sixeight,,,,,,,,,,,,,,,,,,,,,,,,,,,,,,,,,,,,,,,,,,,,,,,,,,,,,,,,,,,,,,,,,,,,,,,,,,,,,,,,,,,,,,,,,,,,,,,,,,,,,,,,,,,,,,,,,,,,,,,,,,,,,,,,,,,,,,,,,
,,613ab0960ff3efd039adf1e0,2024-02-21_21h34.16.113,kallum_motion_pilot,2023.2.2,Win32,59.88023952,613ab0960ff3efd039adf1e0,65d6bb0e977760de756971f7,65d6bd56210973f7d2836d08,0.0676,0.0677,0,135,135,23,1,fourthree,,,,,,,,,,,,,,,,,,,,,,,,,,,,,,,,,,,,,,,,,,,,,,,,,,,,,,,,,,,,,,,,,,,,,,,,,,,,,,,,,,,,,,,,,,,,,,,,,,,,,,,,,,,,,,,,,,,,,,,,,,,,,,,,,,,,,,,,,
,,613ab0960ff3efd039adf1e0,2024-02-21_21h34.16.113,kallum_motion_pilot,2023.2.2,Win32,59.88023952,613ab0960ff3efd039adf1e0,65d6bb0e977760de756971f7,65d6bd56210973f7d2836d08,0.0678,0.0678,0,136,136,127,1,eightseven,,,,,,,,,,,,,,,,,,,,,,,,,,,,,,,,,,,,,,,,,,,,,,,,,,,,,,,,,,,,,,,,,,,,,,,,,,,,,,,,,,,,,,,,,,,,,,,,,,,,,,,,,,,,,,,,,,,,,,,,,,,,,,,,,,,,,,,,,
,,613ab0960ff3efd039adf1e0,2024-02-21_21h34.16.113,kallum_motion_pilot,2023.2.2,Win32,59.88023952,613ab0960ff3efd039adf1e0,65d6bb0e977760de756971f7,65d6bd56210973f7d2836d08,0.0679,0.0679,0,137,137,155,1,sixeight,,,,,,,,,,,,,,,,,,,,,,,,,,,,,,,,,,,,,,,,,,,,,,,,,,,,,,,,,,,,,,,,,,,,,,,,,,,,,,,,,,,,,,,,,,,,,,,,,,,,,,,,,,,,,,,,,,,,,,,,,,,,,,,,,,,,,,,,,
,,613ab0960ff3efd039adf1e0,2024-02-21_21h34.16.113,kallum_motion_pilot,2023.2.2,Win32,59.88023952,613ab0960ff3efd039adf1e0,65d6bb0e977760de756971f7,65d6bd56210973f7d2836d08,0.068,0.0681,0,138,138,100,1,sevenfive,,,,,,,,,,,,,,,,,,,,,,,,,,,,,,,,,,,,,,,,,,,,,,,,,,,,,,,,,,,,,,,,,,,,,,,,,,,,,,,,,,,,,,,,,,,,,,,,,,,,,,,,,,,,,,,,,,,,,,,,,,,,,,,,,,,,,,,,,
,,613ab0960ff3efd039adf1e0,2024-02-21_21h34.16.113,kallum_motion_pilot,2023.2.2,Win32,59.88023952,613ab0960ff3efd039adf1e0,65d6bb0e977760de756971f7,65d6bd56210973f7d2836d08,0.0683,0.0683,0,139,139,129,1,fiveseven,,,,,,,,,,,,,,,,,,,,,,,,,,,,,,,,,,,,,,,,,,,,,,,,,,,,,,,,,,,,,,,,,,,,,,,,,,,,,,,,,,,,,,,,,,,,,,,,,,,,,,,,,,,,,,,,,,,,,,,,,,,,,,,,,,,,,,,,,
,,613ab0960ff3efd039adf1e0,2024-02-21_21h34.16.113,kallum_motion_pilot,2023.2.2,Win32,59.88023952,613ab0960ff3efd039adf1e0,65d6bb0e977760de756971f7,65d6bd56210973f7d2836d08,0.0684,0.0685,0,140,140,156,1,sevenfive,,,,,,,,,,,,,,,,,,,,,,,,,,,,,,,,,,,,,,,,,,,,,,,,,,,,,,,,,,,,,,,,,,,,,,,,,,,,,,,,,,,,,,,,,,,,,,,,,,,,,,,,,,,,,,,,,,,,,,,,,,,,,,,,,,,,,,,,,
,,613ab0960ff3efd039adf1e0,2024-02-21_21h34.16.113,kallum_motion_pilot,2023.2.2,Win32,59.88023952,613ab0960ff3efd039adf1e0,65d6bb0e977760de756971f7,65d6bd56210973f7d2836d08,0.0685,0.0686,0,141,141,136,1,fivesix,,,,,,,,,,,,,,,,,,,,,,,,,,,,,,,,,,,,,,,,,,,,,,,,,,,,,,,,,,,,,,,,,,,,,,,,,,,,,,,,,,,,,,,,,,,,,,,,,,,,,,,,,,,,,,,,,,,,,,,,,,,,,,,,,,,,,,,,,
,,613ab0960ff3efd039adf1e0,2024-02-21_21h34.16.113,kallum_motion_pilot,2023.2.2,Win32,59.88023952,613ab0960ff3efd039adf1e0,65d6bb0e977760de756971f7,65d6bd56210973f7d2836d08,0.0687,0.0687,0,142,142,116,1,sevenfive,,,,,,,,,,,,,,,,,,,,,,,,,,,,,,,,,,,,,,,,,,,,,,,,,,,,,,,,,,,,,,,,,,,,,,,,,,,,,,,,,,,,,,,,,,,,,,,,,,,,,,,,,,,,,,,,,,,,,,,,,,,,,,,,,,,,,,,,,
,,613ab0960ff3efd039adf1e0,2024-02-21_21h34.16.113,kallum_motion_pilot,2023.2.2,Win32,59.88023952,613ab0960ff3efd039adf1e0,65d6bb0e977760de756971f7,65d6bd56210973f7d2836d08,0.0688,0.0689,0,143,143,80,1,fivesix,,,,,,,,,,,,,,,,,,,,,,,,,,,,,,,,,,,,,,,,,,,,,,,,,,,,,,,,,,,,,,,,,,,,,,,,,,,,,,,,,,,,,,,,,,,,,,,,,,,,,,,,,,,,,,,,,,,,,,,,,,,,,,,,,,,,,,,,,
,,613ab0960ff3efd039adf1e0,2024-02-21_21h34.16.113,kallum_motion_pilot,2023.2.2,Win32,59.88023952,613ab0960ff3efd039adf1e0,65d6bb0e977760de756971f7,65d6bd56210973f7d2836d08,0.0689,0.069,0,144,144,154,1,sixfive,,,,,,,,,,,,,,,,,,,,,,,,,,,,,,,,,,,,,,,,,,,,,,,,,,,,,,,,,,,,,,,,,,,,,,,,,,,,,,,,,,,,,,,,,,,,,,,,,,,,,,,,,,,,,,,,,,,,,,,,,,,,,,,,,,,,,,,,,
,,613ab0960ff3efd039adf1e0,2024-02-21_21h34.16.113,kallum_motion_pilot,2023.2.2,Win32,59.88023952,613ab0960ff3efd039adf1e0,65d6bb0e977760de756971f7,65d6bd56210973f7d2836d08,0.0691,0.0691,0,145,145,14,1,fourtwo,,,,,,,,,,,,,,,,,,,,,,,,,,,,,,,,,,,,,,,,,,,,,,,,,,,,,,,,,,,,,,,,,,,,,,,,,,,,,,,,,,,,,,,,,,,,,,,,,,,,,,,,,,,,,,,,,,,,,,,,,,,,,,,,,,,,,,,,,
,,613ab0960ff3efd039adf1e0,2024-02-21_21h34.16.113,kallum_motion_pilot,2023.2.2,Win32,59.88023952,613ab0960ff3efd039adf1e0,65d6bb0e977760de756971f7,65d6bd56210973f7d2836d08,0.0692,0.0693,0,146,146,81,1,fiveseven,,,,,,,,,,,,,,,,,,,,,,,,,,,,,,,,,,,,,,,,,,,,,,,,,,,,,,,,,,,,,,,,,,,,,,,,,,,,,,,,,,,,,,,,,,,,,,,,,,,,,,,,,,,,,,,,,,,,,,,,,,,,,,,,,,,,,,,,,
,,613ab0960ff3efd039adf1e0,2024-02-21_21h34.16.113,kallum_motion_pilot,2023.2.2,Win32,59.88023952,613ab0960ff3efd039adf1e0,65d6bb0e977760de756971f7,65d6bd56210973f7d2836d08,0.0694,0.0694,0,147,147,113,1,fiveseven,,,,,,,,,,,,,,,,,,,,,,,,,,,,,,,,,,,,,,,,,,,,,,,,,,,,,,,,,,,,,,,,,,,,,,,,,,,,,,,,,,,,,,,,,,,,,,,,,,,,,,,,,,,,,,,,,,,,,,,,,,,,,,,,,,,,,,,,,
,,613ab0960ff3efd039adf1e0,2024-02-21_21h34.16.113,kallum_motion_pilot,2023.2.2,Win32,59.88023952,613ab0960ff3efd039adf1e0,65d6bb0e977760de756971f7,65d6bd56210973f7d2836d08,0.0696,0.0697,0,148,148,21,1,threefour,,,,,,,,,,,,,,,,,,,,,,,,,,,,,,,,,,,,,,,,,,,,,,,,,,,,,,,,,,,,,,,,,,,,,,,,,,,,,,,,,,,,,,,,,,,,,,,,,,,,,,,,,,,,,,,,,,,,,,,,,,,,,,,,,,,,,,,,,
,,613ab0960ff3efd039adf1e0,2024-02-21_21h34.16.113,kallum_motion_pilot,2023.2.2,Win32,59.88023952,613ab0960ff3efd039adf1e0,65d6bb0e977760de756971f7,65d6bd56210973f7d2836d08,0.0697,0.0697,0,149,149,42,1,twoone,,,,,,,,,,,,,,,,,,,,,,,,,,,,,,,,,,,,,,,,,,,,,,,,,,,,,,,,,,,,,,,,,,,,,,,,,,,,,,,,,,,,,,,,,,,,,,,,,,,,,,,,,,,,,,,,,,,,,,,,,,,,,,,,,,,,,,,,,
,,613ab0960ff3efd039adf1e0,2024-02-21_21h34.16.113,kallum_motion_pilot,2023.2.2,Win32,59.88023952,613ab0960ff3efd039adf1e0,65d6bb0e977760de756971f7,65d6bd56210973f7d2836d08,0.0699,0.0699,0,150,150,121,1,fiveseven,,,,,,,,,,,,,,,,,,,,,,,,,,,,,,,,,,,,,,,,,,,,,,,,,,,,,,,,,,,,,,,,,,,,,,,,,,,,,,,,,,,,,,,,,,,,,,,,,,,,,,,,,,,,,,,,,,,,,,,,,,,,,,,,,,,,,,,,,
,,613ab0960ff3efd039adf1e0,2024-02-21_21h34.16.113,kallum_motion_pilot,2023.2.2,Win32,59.88023952,613ab0960ff3efd039adf1e0,65d6bb0e977760de756971f7,65d6bd56210973f7d2836d08,0.07,0.07,0,151,151,43,1,twofour,,,,,,,,,,,,,,,,,,,,,,,,,,,,,,,,,,,,,,,,,,,,,,,,,,,,,,,,,,,,,,,,,,,,,,,,,,,,,,,,,,,,,,,,,,,,,,,,,,,,,,,,,,,,,,,,,,,,,,,,,,,,,,,,,,,,,,,,,
,,613ab0960ff3efd039adf1e0,2024-02-21_21h34.16.113,kallum_motion_pilot,2023.2.2,Win32,59.88023952,613ab0960ff3efd039adf1e0,65d6bb0e977760de756971f7,65d6bd56210973f7d2836d08,0.0701,0.0701,0,152,152,19,1,twofour,,,,,,,,,,,,,,,,,,,,,,,,,,,,,,,,,,,,,,,,,,,,,,,,,,,,,,,,,,,,,,,,,,,,,,,,,,,,,,,,,,,,,,,,,,,,,,,,,,,,,,,,,,,,,,,,,,,,,,,,,,,,,,,,,,,,,,,,,
,,613ab0960ff3efd039adf1e0,2024-02-21_21h34.16.113,kallum_motion_pilot,2023.2.2,Win32,59.88023952,613ab0960ff3efd039adf1e0,65d6bb0e977760de756971f7,65d6bd56210973f7d2836d08,0.0703,0.0704,0,153,153,134,1,eightsix,,,,,,,,,,,,,,,,,,,,,,,,,,,,,,,,,,,,,,,,,,,,,,,,,,,,,,,,,,,,,,,,,,,,,,,,,,,,,,,,,,,,,,,,,,,,,,,,,,,,,,,,,,,,,,,,,,,,,,,,,,,,,,,,,,,,,,,,,
,,613ab0960ff3efd039adf1e0,2024-02-21_21h34.16.113,kallum_motion_pilot,2023.2.2,Win32,59.88023952,613ab0960ff3efd039adf1e0,65d6bb0e977760de756971f7,65d6bd56210973f7d2836d08,0.0704,0.0705,0,154,154,11,1,twofour,,,,,,,,,,,,,,,,,,,,,,,,,,,,,,,,,,,,,,,,,,,,,,,,,,,,,,,,,,,,,,,,,,,,,,,,,,,,,,,,,,,,,,,,,,,,,,,,,,,,,,,,,,,,,,,,,,,,,,,,,,,,,,,,,,,,,,,,,
,,613ab0960ff3efd039adf1e0,2024-02-21_21h34.16.113,kallum_motion_pilot,2023.2.2,Win32,59.88023952,613ab0960ff3efd039adf1e0,65d6bb0e977760de756971f7,65d6bd56210973f7d2836d08,0.0705,0.0706,0,155,155,36,1,threeone,,,,,,,,,,,,,,,,,,,,,,,,,,,,,,,,,,,,,,,,,,,,,,,,,,,,,,,,,,,,,,,,,,,,,,,,,,,,,,,,,,,,,,,,,,,,,,,,,,,,,,,,,,,,,,,,,,,,,,,,,,,,,,,,,,,,,,,,,
,,613ab0960ff3efd039adf1e0,2024-02-21_21h34.16.113,kallum_motion_pilot,2023.2.2,Win32,59.88023952,613ab0960ff3efd039adf1e0,65d6bb0e977760de756971f7,65d6bd56210973f7d2836d08,0.0707,0.0708,0,156,156,74,1,twoone,,,,,,,,,,,,,,,,,,,,,,,,,,,,,,,,,,,,,,,,,,,,,,,,,,,,,,,,,,,,,,,,,,,,,,,,,,,,,,,,,,,,,,,,,,,,,,,,,,,,,,,,,,,,,,,,,,,,,,,,,,,,,,,,,,,,,,,,,
,,613ab0960ff3efd039adf1e0,2024-02-21_21h34.16.113,kallum_motion_pilot,2023.2.2,Win32,59.88023952,613ab0960ff3efd039adf1e0,65d6bb0e977760de756971f7,65d6bd56210973f7d2836d08,0.0709,0.0709,0,157,157,152,1,fivesix,,,,,,,,,,,,,,,,,,,,,,,,,,,,,,,,,,,,,,,,,,,,,,,,,,,,,,,,,,,,,,,,,,,,,,,,,,,,,,,,,,,,,,,,,,,,,,,,,,,,,,,,,,,,,,,,,,,,,,,,,,,,,,,,,,,,,,,,,
,,613ab0960ff3efd039adf1e0,2024-02-21_21h34.16.113,kallum_motion_pilot,2023.2.2,Win32,59.88023952,613ab0960ff3efd039adf1e0,65d6bb0e977760de756971f7,65d6bd56210973f7d2836d08,0.071,0.071,0,158,158,139,1,sixeight,,,,,,,,,,,,,,,,,,,,,,,,,,,,,,,,,,,,,,,,,,,,,,,,,,,,,,,,,,,,,,,,,,,,,,,,,,,,,,,,,,,,,,,,,,,,,,,,,,,,,,,,,,,,,,,,,,,,,,,,,,,,,,,,,,,,,,,,,
,,613ab0960ff3efd039adf1e0,2024-02-21_21h34.16.113,kallum_motion_pilot,2023.2.2,Win32,59.88023952,613ab0960ff3efd039adf1e0,65d6bb0e977760de756971f7,65d6bd56210973f7d2836d08,0.0712,0.0712,0,159,159,9,1,onethree,,,,,,,,,,,,,,,,,,,,,,,,,,,,,,,,,,,,,,,,,,,,,,,,,,,,,,,,,,,,,,,,,,,,,,,,,,,,,,,,,,,,,,,,,,,,,,,,,,,,,,,,,,,,,,,,,,,,,,,,,,,,,,,,,,,,,,,,,
,,613ab0960ff3efd039adf1e0,2024-02-21_21h34.16.113,kallum_motion_pilot,2023.2.2,Win32,59.88023952,613ab0960ff3efd039adf1e0,65d6bb0e977760de756971f7,65d6bd56210973f7d2836d08,0.0717,0.0719,0,160,160,35,1,twofour,,,,,,,,,,,,,,,,,,,,,,,,,,,,,,,,,,,,,,,,,,,,,,,,,,,,,,,,,,,,,,,,,,,,,,,,,,,,,,,,,,,,,,,,,,,,,,,,,,,,,,,,,,,,,,,,,,,,,,,,,,,,,,,,,,,,,,,,,
,,613ab0960ff3efd039adf1e0,2024-02-21_21h34.16.113,kallum_motion_pilot,2023.2.2,Win32,59.88023952,613ab0960ff3efd039adf1e0,65d6bb0e977760de756971f7,65d6bd56210973f7d2836d08,0.0721,0.0722,0,161,161,132,1,sevenfive,,,,,,,,,,,,,,,,,,,,,,,,,,,,,,,,,,,,,,,,,,,,,,,,,,,,,,,,,,,,,,,,,,,,,,,,,,,,,,,,,,,,,,,,,,,,,,,,,,,,,,,,,,,,,,,,,,,,,,,,,,,,,,,,,,,,,,,,,
,,613ab0960ff3efd039adf1e0,2024-02-21_21h34.16.113,kallum_motion_pilot,2023.2.2,Win32,59.88023952,613ab0960ff3efd039adf1e0,65d6bb0e977760de756971f7,65d6bd56210973f7d2836d08,0.0723,0.0724,1,0,162,0,1,onetwo,,,,,,,,,,,,,,,,,,,,,,,,,,,,,,,,,,,,,,,,,,,,,,,,,,,,,,,,,,,,,,,,,,,,,,,,,,,,,,,,,,,,,,,,,,,,,,,,,,,,,,,,,,,,,,,,,,,,,,,,,,,,,,,,,,,,,,,,,
,,613ab0960ff3efd039adf1e0,2024-02-21_21h34.16.113,kallum_motion_pilot,2023.2.2,Win32,59.88023952,613ab0960ff3efd039adf1e0,65d6bb0e977760de756971f7,65d6bd56210973f7d2836d08,0.0725,0.0726,1,1,163,75,1,twofour,,,,,,,,,,,,,,,,,,,,,,,,,,,,,,,,,,,,,,,,,,,,,,,,,,,,,,,,,,,,,,,,,,,,,,,,,,,,,,,,,,,,,,,,,,,,,,,,,,,,,,,,,,,,,,,,,,,,,,,,,,,,,,,,,,,,,,,,,
,,613ab0960ff3efd039adf1e0,2024-02-21_21h34.16.113,kallum_motion_pilot,2023.2.2,Win32,59.88023952,613ab0960ff3efd039adf1e0,65d6bb0e977760de756971f7,65d6bd56210973f7d2836d08,0.0728,0.0729,1,2,164,2,1,twoone,,,,,,,,,,,,,,,,,,,,,,,,,,,,,,,,,,,,,,,,,,,,,,,,,,,,,,,,,,,,,,,,,,,,,,,,,,,,,,,,,,,,,,,,,,,,,,,,,,,,,,,,,,,,,,,,,,,,,,,,,,,,,,,,,,,,,,,,,
,,613ab0960ff3efd039adf1e0,2024-02-21_21h34.16.113,kallum_motion_pilot,2023.2.2,Win32,59.88023952,613ab0960ff3efd039adf1e0,65d6bb0e977760de756971f7,65d6bd56210973f7d2836d08,0.073,0.0731,1,3,165,72,1,onetwo,,,,,,,,,,,,,,,,,,,,,,,,,,,,,,,,,,,,,,,,,,,,,,,,,,,,,,,,,,,,,,,,,,,,,,,,,,,,,,,,,,,,,,,,,,,,,,,,,,,,,,,,,,,,,,,,,,,,,,,,,,,,,,,,,,,,,,,,,
,,613ab0960ff3efd039adf1e0,2024-02-21_21h34.16.113,kallum_motion_pilot,2023.2.2,Win32,59.88023952,613ab0960ff3efd039adf1e0,65d6bb0e977760de756971f7,65d6bd56210973f7d2836d08,0.0732,0.0732,1,4,166,26,1,twoone,,,,,,,,,,,,,,,,,,,,,,,,,,,,,,,,,,,,,,,,,,,,,,,,,,,,,,,,,,,,,,,,,,,,,,,,,,,,,,,,,,,,,,,,,,,,,,,,,,,,,,,,,,,,,,,,,,,,,,,,,,,,,,,,,,,,,,,,,
,,613ab0960ff3efd039adf1e0,2024-02-21_21h34.16.113,kallum_motion_pilot,2023.2.2,Win32,59.88023952,613ab0960ff3efd039adf1e0,65d6bb0e977760de756971f7,65d6bd56210973f7d2836d08,0.0734,0.0734,1,5,167,160,1,fivesix,,,,,,,,,,,,,,,,,,,,,,,,,,,,,,,,,,,,,,,,,,,,,,,,,,,,,,,,,,,,,,,,,,,,,,,,,,,,,,,,,,,,,,,,,,,,,,,,,,,,,,,,,,,,,,,,,,,,,,,,,,,,,,,,,,,,,,,,,
,,613ab0960ff3efd039adf1e0,2024-02-21_21h34.16.113,kallum_motion_pilot,2023.2.2,Win32,59.88023952,613ab0960ff3efd039adf1e0,65d6bb0e977760de756971f7,65d6bd56210973f7d2836d08,0.0735,0.0735,1,6,168,32,1,onetwo,,,,,,,,,,,,,,,,,,,,,,,,,,,,,,,,,,,,,,,,,,,,,,,,,,,,,,,,,,,,,,,,,,,,,,,,,,,,,,,,,,,,,,,,,,,,,,,,,,,,,,,,,,,,,,,,,,,,,,,,,,,,,,,,,,,,,,,,,
,,613ab0960ff3efd039adf1e0,2024-02-21_21h34.16.113,kallum_motion_pilot,2023.2.2,Win32,59.88023952,613ab0960ff3efd039adf1e0,65d6bb0e977760de756971f7,65d6bd56210973f7d2836d08,0.0736,0.0736,1,7,169,145,1,fiveseven,,,,,,,,,,,,,,,,,,,,,,,,,,,,,,,,,,,,,,,,,,,,,,,,,,,,,,,,,,,,,,,,,,,,,,,,,,,,,,,,,,,,,,,,,,,,,,,,,,,,,,,,,,,,,,,,,,,,,,,,,,,,,,,,,,,,,,,,,
,,613ab0960ff3efd039adf1e0,2024-02-21_21h34.16.113,kallum_motion_pilot,2023.2.2,Win32,59.88023952,613ab0960ff3efd039adf1e0,65d6bb0e977760de756971f7,65d6bd56210973f7d2836d08,0.0737,0.0737,1,8,170,124,1,sevenfive,,,,,,,,,,,,,,,,,,,,,,,,,,,,,,,,,,,,,,,,,,,,,,,,,,,,,,,,,,,,,,,,,,,,,,,,,,,,,,,,,,,,,,,,,,,,,,,,,,,,,,,,,,,,,,,,,,,,,,,,,,,,,,,,,,,,,,,,,
,,613ab0960ff3efd039adf1e0,2024-02-21_21h34.16.113,kallum_motion_pilot,2023.2.2,Win32,59.88023952,613ab0960ff3efd039adf1e0,65d6bb0e977760de756971f7,65d6bd56210973f7d2836d08,0.0738,0.0739,1,9,171,91,1,sixeight,,,,,,,,,,,,,,,,,,,,,,,,,,,,,,,,,,,,,,,,,,,,,,,,,,,,,,,,,,,,,,,,,,,,,,,,,,,,,,,,,,,,,,,,,,,,,,,,,,,,,,,,,,,,,,,,,,,,,,,,,,,,,,,,,,,,,,,,,
,,613ab0960ff3efd039adf1e0,2024-02-21_21h34.16.113,kallum_motion_pilot,2023.2.2,Win32,59.88023952,613ab0960ff3efd039adf1e0,65d6bb0e977760de756971f7,65d6bd56210973f7d2836d08,0.074,0.074,1,10,172,155,1,sixeight,,,,,,,,,,,,,,,,,,,,,,,,,,,,,,,,,,,,,,,,,,,,,,,,,,,,,,,,,,,,,,,,,,,,,,,,,,,,,,,,,,,,,,,,,,,,,,,,,,,,,,,,,,,,,,,,,,,,,,,,,,,,,,,,,,,,,,,,,
,,613ab0960ff3efd039adf1e0,2024-02-21_21h34.16.113,kallum_motion_pilot,2023.2.2,Win32,59.88023952,613ab0960ff3efd039adf1e0,65d6bb0e977760de756971f7,65d6bd56210973f7d2836d08,0.074,0.0741,1,11,173,159,1,eightseven,,,,,,,,,,,,,,,,,,,,,,,,,,,,,,,,,,,,,,,,,,,,,,,,,,,,,,,,,,,,,,,,,,,,,,,,,,,,,,,,,,,,,,,,,,,,,,,,,,,,,,,,,,,,,,,,,,,,,,,,,,,,,,,,,,,,,,,,,
,,613ab0960ff3efd039adf1e0,2024-02-21_21h34.16.113,kallum_motion_pilot,2023.2.2,Win32,59.88023952,613ab0960ff3efd039adf1e0,65d6bb0e977760de756971f7,65d6bd56210973f7d2836d08,0.0742,0.0742,1,12,174,139,1,sixeight,,,,,,,,,,,,,,,,,,,,,,,,,,,,,,,,,,,,,,,,,,,,,,,,,,,,,,,,,,,,,,,,,,,,,,,,,,,,,,,,,,,,,,,,,,,,,,,,,,,,,,,,,,,,,,,,,,,,,,,,,,,,,,,,,,,,,,,,,
,,613ab0960ff3efd039adf1e0,2024-02-21_21h34.16.113,kallum_motion_pilot,2023.2.2,Win32,59.88023952,613ab0960ff3efd039adf1e0,65d6bb0e977760de756971f7,65d6bd56210973f7d2836d08,0.0743,0.0743,1,13,175,50,1,twoone,,,,,,,,,,,,,,,,,,,,,,,,,,,,,,,,,,,,,,,,,,,,,,,,,,,,,,,,,,,,,,,,,,,,,,,,,,,,,,,,,,,,,,,,,,,,,,,,,,,,,,,,,,,,,,,,,,,,,,,,,,,,,,,,,,,,,,,,,
,,613ab0960ff3efd039adf1e0,2024-02-21_21h34.16.113,kallum_motion_pilot,2023.2.2,Win32,59.88023952,613ab0960ff3efd039adf1e0,65d6bb0e977760de756971f7,65d6bd56210973f7d2836d08,0.0744,0.0745,1,14,176,15,1,fourthree,,,,,,,,,,,,,,,,,,,,,,,,,,,,,,,,,,,,,,,,,,,,,,,,,,,,,,,,,,,,,,,,,,,,,,,,,,,,,,,,,,,,,,,,,,,,,,,,,,,,,,,,,,,,,,,,,,,,,,,,,,,,,,,,,,,,,,,,,
,,613ab0960ff3efd039adf1e0,2024-02-21_21h34.16.113,kallum_motion_pilot,2023.2.2,Win32,59.88023952,613ab0960ff3efd039adf1e0,65d6bb0e977760de756971f7,65d6bd56210973f7d2836d08,0.0745,0.0746,1,15,177,86,1,eightsix,,,,,,,,,,,,,,,,,,,,,,,,,,,,,,,,,,,,,,,,,,,,,,,,,,,,,,,,,,,,,,,,,,,,,,,,,,,,,,,,,,,,,,,,,,,,,,,,,,,,,,,,,,,,,,,,,,,,,,,,,,,,,,,,,,,,,,,,,
,,613ab0960ff3efd039adf1e0,2024-02-21_21h34.16.113,kallum_motion_pilot,2023.2.2,Win32,59.88023952,613ab0960ff3efd039adf1e0,65d6bb0e977760de756971f7,65d6bd56210973f7d2836d08,0.0746,0.0747,1,16,178,49,1,onethree,,,,,,,,,,,,,,,,,,,,,,,,,,,,,,,,,,,,,,,,,,,,,,,,,,,,,,,,,,,,,,,,,,,,,,,,,,,,,,,,,,,,,,,,,,,,,,,,,,,,,,,,,,,,,,,,,,,,,,,,,,,,,,,,,,,,,,,,,
,,613ab0960ff3efd039adf1e0,2024-02-21_21h34.16.113,kallum_motion_pilot,2023.2.2,Win32,59.88023952,613ab0960ff3efd039adf1e0,65d6bb0e977760de756971f7,65d6bd56210973f7d2836d08,0.0748,0.0748,1,17,179,42,1,twoone,,,,,,,,,,,,,,,,,,,,,,,,,,,,,,,,,,,,,,,,,,,,,,,,,,,,,,,,,,,,,,,,,,,,,,,,,,,,,,,,,,,,,,,,,,,,,,,,,,,,,,,,,,,,,,,,,,,,,,,,,,,,,,,,,,,,,,,,,
,,613ab0960ff3efd039adf1e0,2024-02-21_21h34.16.113,kallum_motion_pilot,2023.2.2,Win32,59.88023952,613ab0960ff3efd039adf1e0,65d6bb0e977760de756971f7,65d6bd56210973f7d2836d08,0.0748,0.0749,1,18,180,121,1,fiveseven,,,,,,,,,,,,,,,,,,,,,,,,,,,,,,,,,,,,,,,,,,,,,,,,,,,,,,,,,,,,,,,,,,,,,,,,,,,,,,,,,,,,,,,,,,,,,,,,,,,,,,,,,,,,,,,,,,,,,,,,,,,,,,,,,,,,,,,,,
,,613ab0960ff3efd039adf1e0,2024-02-21_21h34.16.113,kallum_motion_pilot,2023.2.2,Win32,59.88023952,613ab0960ff3efd039adf1e0,65d6bb0e977760de756971f7,65d6bd56210973f7d2836d08,0.075,0.075,1,19,181,10,1,twoone,,,,,,,,,,,,,,,,,,,,,,,,,,,,,,,,,,,,,,,,,,,,,,,,,,,,,,,,,,,,,,,,,,,,,,,,,,,,,,,,,,,,,,,,,,,,,,,,,,,,,,,,,,,,,,,,,,,,,,,,,,,,,,,,,,,,,,,,,
,,613ab0960ff3efd039adf1e0,2024-02-21_21h34.16.113,kallum_motion_pilot,2023.2.2,Win32,59.88023952,613ab0960ff3efd039adf1e0,65d6bb0e977760de756971f7,65d6bd56210973f7d2836d08,0.0751,0.0752,1,20,182,48,1,onetwo,,,,,,,,,,,,,,,,,,,,,,,,,,,,,,,,,,,,,,,,,,,,,,,,,,,,,,,,,,,,,,,,,,,,,,,,,,,,,,,,,,,,,,,,,,,,,,,,,,,,,,,,,,,,,,,,,,,,,,,,,,,,,,,,,,,,,,,,,
,,613ab0960ff3efd039adf1e0,2024-02-21_21h34.16.113,kallum_motion_pilot,2023.2.2,Win32,59.88023952,613ab0960ff3efd039adf1e0,65d6bb0e977760de756971f7,65d6bd56210973f7d2836d08,0.0752,0.0753,1,21,183,111,1,eightseven,,,,,,,,,,,,,,,,,,,,,,,,,,,,,,,,,,,,,,,,,,,,,,,,,,,,,,,,,,,,,,,,,,,,,,,,,,,,,,,,,,,,,,,,,,,,,,,,,,,,,,,,,,,,,,,,,,,,,,,,,,,,,,,,,,,,,,,,,
,,613ab0960ff3efd039adf1e0,2024-02-21_21h34.16.113,kallum_motion_pilot,2023.2.2,Win32,59.88023952,613ab0960ff3efd039adf1e0,65d6bb0e977760de756971f7,65d6bd56210973f7d2836d08,0.0754,0.0755,1,22,184,79,1,eightseven,,,,,,,,,,,,,,,,,,,,,,,,,,,,,,,,,,,,,,,,,,,,,,,,,,,,,,,,,,,,,,,,,,,,,,,,,,,,,,,,,,,,,,,,,,,,,,,,,,,,,,,,,,,,,,,,,,,,,,,,,,,,,,,,,,,,,,,,,
,,613ab0960ff3efd039adf1e0,2024-02-21_21h34.16.113,kallum_motion_pilot,2023.2.2,Win32,59.88023952,613ab0960ff3efd039adf1e0,65d6bb0e977760de756971f7,65d6bd56210973f7d2836d08,0.0756,0.0757,1,23,185,14,1,fourtwo,,,,,,,,,,,,,,,,,,,,,,,,,,,,,,,,,,,,,,,,,,,,,,,,,,,,,,,,,,,,,,,,,,,,,,,,,,,,,,,,,,,,,,,,,,,,,,,,,,,,,,,,,,,,,,,,,,,,,,,,,,,,,,,,,,,,,,,,,
,,613ab0960ff3efd039adf1e0,2024-02-21_21h34.16.113,kallum_motion_pilot,2023.2.2,Win32,59.88023952,613ab0960ff3efd039adf1e0,65d6bb0e977760de756971f7,65d6bd56210973f7d2836d08,0.0757,0.0758,1,24,186,1,1,onethree,,,,,,,,,,,,,,,,,,,,,,,,,,,,,,,,,,,,,,,,,,,,,,,,,,,,,,,,,,,,,,,,,,,,,,,,,,,,,,,,,,,,,,,,,,,,,,,,,,,,,,,,,,,,,,,,,,,,,,,,,,,,,,,,,,,,,,,,,
,,613ab0960ff3efd039adf1e0,2024-02-21_21h34.16.113,kallum_motion_pilot,2023.2.2,Win32,59.88023952,613ab0960ff3efd039adf1e0,65d6bb0e977760de756971f7,65d6bd56210973f7d2836d08,0.0759,0.0759,1,25,187,157,1,seveneight,,,,,,,,,,,,,,,,,,,,,,,,,,,,,,,,,,,,,,,,,,,,,,,,,,,,,,,,,,,,,,,,,,,,,,,,,,,,,,,,,,,,,,,,,,,,,,,,,,,,,,,,,,,,,,,,,,,,,,,,,,,,,,,,,,,,,,,,,
,,613ab0960ff3efd039adf1e0,2024-02-21_21h34.16.113,kallum_motion_pilot,2023.2.2,Win32,59.88023952,613ab0960ff3efd039adf1e0,65d6bb0e977760de756971f7,65d6bd56210973f7d2836d08,0.076,0.0761,1,26,188,117,1,seveneight,,,,,,,,,,,,,,,,,,,,,,,,,,,,,,,,,,,,,,,,,,,,,,,,,,,,,,,,,,,,,,,,,,,,,,,,,,,,,,,,,,,,,,,,,,,,,,,,,,,,,,,,,,,,,,,,,,,,,,,,,,,,,,,,,,,,,,,,,
,,613ab0960ff3efd039adf1e0,2024-02-21_21h34.16.113,kallum_motion_pilot,2023.2.2,Win32,59.88023952,613ab0960ff3efd039adf1e0,65d6bb0e977760de756971f7,65d6bd56210973f7d2836d08,0.0761,0.0762,1,27,189,100,1,sevenfive,,,,,,,,,,,,,,,,,,,,,,,,,,,,,,,,,,,,,,,,,,,,,,,,,,,,,,,,,,,,,,,,,,,,,,,,,,,,,,,,,,,,,,,,,,,,,,,,,,,,,,,,,,,,,,,,,,,,,,,,,,,,,,,,,,,,,,,,,
,,613ab0960ff3efd039adf1e0,2024-02-21_21h34.16.113,kallum_motion_pilot,2023.2.2,Win32,59.88023952,613ab0960ff3efd039adf1e0,65d6bb0e977760de756971f7,65d6bd56210973f7d2836d08,0.0763,0.0764,1,28,190,4,1,threeone,,,,,,,,,,,,,,,,,,,,,,,,,,,,,,,,,,,,,,,,,,,,,,,,,,,,,,,,,,,,,,,,,,,,,,,,,,,,,,,,,,,,,,,,,,,,,,,,,,,,,,,,,,,,,,,,,,,,,,,,,,,,,,,,,,,,,,,,,
,,613ab0960ff3efd039adf1e0,2024-02-21_21h34.16.113,kallum_motion_pilot,2023.2.2,Win32,59.88023952,613ab0960ff3efd039adf1e0,65d6bb0e977760de756971f7,65d6bd56210973f7d2836d08,0.0765,0.0765,1,29,191,156,1,sevenfive,,,,,,,,,,,,,,,,,,,,,,,,,,,,,,,,,,,,,,,,,,,,,,,,,,,,,,,,,,,,,,,,,,,,,,,,,,,,,,,,,,,,,,,,,,,,,,,,,,,,,,,,,,,,,,,,,,,,,,,,,,,,,,,,,,,,,,,,,
,,613ab0960ff3efd039adf1e0,2024-02-21_21h34.16.113,kallum_motion_pilot,2023.2.2,Win32,59.88023952,613ab0960ff3efd039adf1e0,65d6bb0e977760de756971f7,65d6bd56210973f7d2836d08,0.0766,0.0766,1,30,192,134,1,eightsix,,,,,,,,,,,,,,,,,,,,,,,,,,,,,,,,,,,,,,,,,,,,,,,,,,,,,,,,,,,,,,,,,,,,,,,,,,,,,,,,,,,,,,,,,,,,,,,,,,,,,,,,,,,,,,,,,,,,,,,,,,,,,,,,,,,,,,,,,
,,613ab0960ff3efd039adf1e0,2024-02-21_21h34.16.113,kallum_motion_pilot,2023.2.2,Win32,59.88023952,613ab0960ff3efd039adf1e0,65d6bb0e977760de756971f7,65d6bd56210973f7d2836d08,0.0767,0.0768,1,31,193,38,1,fourtwo,,,,,,,,,,,,,,,,,,,,,,,,,,,,,,,,,,,,,,,,,,,,,,,,,,,,,,,,,,,,,,,,,,,,,,,,,,,,,,,,,,,,,,,,,,,,,,,,,,,,,,,,,,,,,,,,,,,,,,,,,,,,,,,,,,,,,,,,,
,,613ab0960ff3efd039adf1e0,2024-02-21_21h34.16.113,kallum_motion_pilot,2023.2.2,Win32,59.88023952,613ab0960ff3efd039adf1e0,65d6bb0e977760de756971f7,65d6bd56210973f7d2836d08,0.0769,0.077,1,32,194,20,1,threeone,,,,,,,,,,,,,,,,,,,,,,,,,,,,,,,,,,,,,,,,,,,,,,,,,,,,,,,,,,,,,,,,,,,,,,,,,,,,,,,,,,,,,,,,,,,,,,,,,,,,,,,,,,,,,,,,,,,,,,,,,,,,,,,,,,,,,,,,,
,,613ab0960ff3efd039adf1e0,2024-02-21_21h34.16.113,kallum_motion_pilot,2023.2.2,Win32,59.88023952,613ab0960ff3efd039adf1e0,65d6bb0e977760de756971f7,65d6bd56210973f7d2836d08,0.0771,0.0772,1,33,195,112,1,fivesix,,,,,,,,,,,,,,,,,,,,,,,,,,,,,,,,,,,,,,,,,,,,,,,,,,,,,,,,,,,,,,,,,,,,,,,,,,,,,,,,,,,,,,,,,,,,,,,,,,,,,,,,,,,,,,,,,,,,,,,,,,,,,,,,,,,,,,,,,
,,613ab0960ff3efd039adf1e0,2024-02-21_21h34.16.113,kallum_motion_pilot,2023.2.2,Win32,59.88023952,613ab0960ff3efd039adf1e0,65d6bb0e977760de756971f7,65d6bd56210973f7d2836d08,0.0774,0.0775,1,34,196,135,1,eightseven,,,,,,,,,,,,,,,,,,,,,,,,,,,,,,,,,,,,,,,,,,,,,,,,,,,,,,,,,,,,,,,,,,,,,,,,,,,,,,,,,,,,,,,,,,,,,,,,,,,,,,,,,,,,,,,,,,,,,,,,,,,,,,,,,,,,,,,,,
,,613ab0960ff3efd039adf1e0,2024-02-21_21h34.16.113,kallum_motion_pilot,2023.2.2,Win32,59.88023952,613ab0960ff3efd039adf1e0,65d6bb0e977760de756971f7,65d6bd56210973f7d2836d08,0.0775,0.0777,1,35,197,105,1,fiveseven,,,,,,,,,,,,,,,,,,,,,,,,,,,,,,,,,,,,,,,,,,,,,,,,,,,,,,,,,,,,,,,,,,,,,,,,,,,,,,,,,,,,,,,,,,,,,,,,,,,,,,,,,,,,,,,,,,,,,,,,,,,,,,,,,,,,,,,,,
,,613ab0960ff3efd039adf1e0,2024-02-21_21h34.16.113,kallum_motion_pilot,2023.2.2,Win32,59.88023952,613ab0960ff3efd039adf1e0,65d6bb0e977760de756971f7,65d6bd56210973f7d2836d08,0.0777,0.0778,1,36,198,28,1,threeone,,,,,,,,,,,,,,,,,,,,,,,,,,,,,,,,,,,,,,,,,,,,,,,,,,,,,,,,,,,,,,,,,,,,,,,,,,,,,,,,,,,,,,,,,,,,,,,,,,,,,,,,,,,,,,,,,,,,,,,,,,,,,,,,,,,,,,,,,
,,613ab0960ff3efd039adf1e0,2024-02-21_21h34.16.113,kallum_motion_pilot,2023.2.2,Win32,59.88023952,613ab0960ff3efd039adf1e0,65d6bb0e977760de756971f7,65d6bd56210973f7d2836d08,0.0778,0.0779,1,37,199,130,1,sixfive,,,,,,,,,,,,,,,,,,,,,,,,,,,,,,,,,,,,,,,,,,,,,,,,,,,,,,,,,,,,,,,,,,,,,,,,,,,,,,,,,,,,,,,,,,,,,,,,,,,,,,,,,,,,,,,,,,,,,,,,,,,,,,,,,,,,,,,,,
,,613ab0960ff3efd039adf1e0,2024-02-21_21h34.16.113,kallum_motion_pilot,2023.2.2,Win32,59.88023952,613ab0960ff3efd039adf1e0,65d6bb0e977760de756971f7,65d6bd56210973f7d2836d08,0.0781,0.0781,1,38,200,12,1,threeone,,,,,,,,,,,,,,,,,,,,,,,,,,,,,,,,,,,,,,,,,,,,,,,,,,,,,,,,,,,,,,,,,,,,,,,,,,,,,,,,,,,,,,,,,,,,,,,,,,,,,,,,,,,,,,,,,,,,,,,,,,,,,,,,,,,,,,,,,
,,613ab0960ff3efd039adf1e0,2024-02-21_21h34.16.113,kallum_motion_pilot,2023.2.2,Win32,59.88023952,613ab0960ff3efd039adf1e0,65d6bb0e977760de756971f7,65d6bd56210973f7d2836d08,0.0783,0.0783,1,39,201,116,1,sevenfive,,,,,,,,,,,,,,,,,,,,,,,,,,,,,,,,,,,,,,,,,,,,,,,,,,,,,,,,,,,,,,,,,,,,,,,,,,,,,,,,,,,,,,,,,,,,,,,,,,,,,,,,,,,,,,,,,,,,,,,,,,,,,,,,,,,,,,,,,
,,613ab0960ff3efd039adf1e0,2024-02-21_21h34.16.113,kallum_motion_pilot,2023.2.2,Win32,59.88023952,613ab0960ff3efd039adf1e0,65d6bb0e977760de756971f7,65d6bd56210973f7d2836d08,0.0783,0.0785,1,40,202,127,1,eightseven,,,,,,,,,,,,,,,,,,,,,,,,,,,,,,,,,,,,,,,,,,,,,,,,,,,,,,,,,,,,,,,,,,,,,,,,,,,,,,,,,,,,,,,,,,,,,,,,,,,,,,,,,,,,,,,,,,,,,,,,,,,,,,,,,,,,,,,,,
,,613ab0960ff3efd039adf1e0,2024-02-21_21h34.16.113,kallum_motion_pilot,2023.2.2,Win32,59.88023952,613ab0960ff3efd039adf1e0,65d6bb0e977760de756971f7,65d6bd56210973f7d2836d08,0.0786,0.0787,1,41,203,80,1,fivesix,,,,,,,,,,,,,,,,,,,,,,,,,,,,,,,,,,,,,,,,,,,,,,,,,,,,,,,,,,,,,,,,,,,,,,,,,,,,,,,,,,,,,,,,,,,,,,,,,,,,,,,,,,,,,,,,,,,,,,,,,,,,,,,,,,,,,,,,,
,,613ab0960ff3efd039adf1e0,2024-02-21_21h34.16.113,kallum_motion_pilot,2023.2.2,Win32,59.88023952,613ab0960ff3efd039adf1e0,65d6bb0e977760de756971f7,65d6bd56210973f7d2836d08,0.0787,0.0788,1,42,204,60,1,threeone,,,,,,,,,,,,,,,,,,,,,,,,,,,,,,,,,,,,,,,,,,,,,,,,,,,,,,,,,,,,,,,,,,,,,,,,,,,,,,,,,,,,,,,,,,,,,,,,,,,,,,,,,,,,,,,,,,,,,,,,,,,,,,,,,,,,,,,,,
,,613ab0960ff3efd039adf1e0,2024-02-21_21h34.16.113,kallum_motion_pilot,2023.2.2,Win32,59.88023952,613ab0960ff3efd039adf1e0,65d6bb0e977760de756971f7,65d6bd56210973f7d2836d08,0.079,0.0791,1,43,205,66,1,twoone,,,,,,,,,,,,,,,,,,,,,,,,,,,,,,,,,,,,,,,,,,,,,,,,,,,,,,,,,,,,,,,,,,,,,,,,,,,,,,,,,,,,,,,,,,,,,,,,,,,,,,,,,,,,,,,,,,,,,,,,,,,,,,,,,,,,,,,,,
,,613ab0960ff3efd039adf1e0,2024-02-21_21h34.16.113,kallum_motion_pilot,2023.2.2,Win32,59.88023952,613ab0960ff3efd039adf1e0,65d6bb0e977760de756971f7,65d6bd56210973f7d2836d08,0.0791,0.0791,1,44,206,68,1,threeone,,,,,,,,,,,,,,,,,,,,,,,,,,,,,,,,,,,,,,,,,,,,,,,,,,,,,,,,,,,,,,,,,,,,,,,,,,,,,,,,,,,,,,,,,,,,,,,,,,,,,,,,,,,,,,,,,,,,,,,,,,,,,,,,,,,,,,,,,
,,613ab0960ff3efd039adf1e0,2024-02-21_21h34.16.113,kallum_motion_pilot,2023.2.2,Win32,59.88023952,613ab0960ff3efd039adf1e0,65d6bb0e977760de756971f7,65d6bd56210973f7d2836d08,0.0793,0.0794,1,45,207,51,1,twofour,,,,,,,,,,,,,,,,,,,,,,,,,,,,,,,,,,,,,,,,,,,,,,,,,,,,,,,,,,,,,,,,,,,,,,,,,,,,,,,,,,,,,,,,,,,,,,,,,,,,,,,,,,,,,,,,,,,,,,,,,,,,,,,,,,,,,,,,,
,,613ab0960ff3efd039adf1e0,2024-02-21_21h34.16.113,kallum_motion_pilot,2023.2.2,Win32,59.88023952,613ab0960ff3efd039adf1e0,65d6bb0e977760de756971f7,65d6bd56210973f7d2836d08,0.0795,0.0795,1,46,208,101,1,seveneight,,,,,,,,,,,,,,,,,,,,,,,,,,,,,,,,,,,,,,,,,,,,,,,,,,,,,,,,,,,,,,,,,,,,,,,,,,,,,,,,,,,,,,,,,,,,,,,,,,,,,,,,,,,,,,,,,,,,,,,,,,,,,,,,,,,,,,,,,
,,613ab0960ff3efd039adf1e0,2024-02-21_21h34.16.113,kallum_motion_pilot,2023.2.2,Win32,59.88023952,613ab0960ff3efd039adf1e0,65d6bb0e977760de756971f7,65d6bd56210973f7d2836d08,0.0796,0.0797,1,47,209,143,1,eightseven,,,,,,,,,,,,,,,,,,,,,,,,,,,,,,,,,,,,,,,,,,,,,,,,,,,,,,,,,,,,,,,,,,,,,,,,,,,,,,,,,,,,,,,,,,,,,,,,,,,,,,,,,,,,,,,,,,,,,,,,,,,,,,,,,,,,,,,,,
,,613ab0960ff3efd039adf1e0,2024-02-21_21h34.16.113,kallum_motion_pilot,2023.2.2,Win32,59.88023952,613ab0960ff3efd039adf1e0,65d6bb0e977760de756971f7,65d6bd56210973f7d2836d08,0.0798,0.0799,1,48,210,85,1,seveneight,,,,,,,,,,,,,,,,,,,,,,,,,,,,,,,,,,,,,,,,,,,,,,,,,,,,,,,,,,,,,,,,,,,,,,,,,,,,,,,,,,,,,,,,,,,,,,,,,,,,,,,,,,,,,,,,,,,,,,,,,,,,,,,,,,,,,,,,,
,,613ab0960ff3efd039adf1e0,2024-02-21_21h34.16.113,kallum_motion_pilot,2023.2.2,Win32,59.88023952,613ab0960ff3efd039adf1e0,65d6bb0e977760de756971f7,65d6bd56210973f7d2836d08,0.0799,0.08,1,49,211,87,1,eightseven,,,,,,,,,,,,,,,,,,,,,,,,,,,,,,,,,,,,,,,,,,,,,,,,,,,,,,,,,,,,,,,,,,,,,,,,,,,,,,,,,,,,,,,,,,,,,,,,,,,,,,,,,,,,,,,,,,,,,,,,,,,,,,,,,,,,,,,,,
,,613ab0960ff3efd039adf1e0,2024-02-21_21h34.16.113,kallum_motion_pilot,2023.2.2,Win32,59.88023952,613ab0960ff3efd039adf1e0,65d6bb0e977760de756971f7,65d6bd56210973f7d2836d08,0.0802,0.0802,1,50,212,152,1,fivesix,,,,,,,,,,,,,,,,,,,,,,,,,,,,,,,,,,,,,,,,,,,,,,,,,,,,,,,,,,,,,,,,,,,,,,,,,,,,,,,,,,,,,,,,,,,,,,,,,,,,,,,,,,,,,,,,,,,,,,,,,,,,,,,,,,,,,,,,,
,,613ab0960ff3efd039adf1e0,2024-02-21_21h34.16.113,kallum_motion_pilot,2023.2.2,Win32,59.88023952,613ab0960ff3efd039adf1e0,65d6bb0e977760de756971f7,65d6bd56210973f7d2836d08,0.0802,0.0804,1,51,213,88,1,fivesix,,,,,,,,,,,,,,,,,,,,,,,,,,,,,,,,,,,,,,,,,,,,,,,,,,,,,,,,,,,,,,,,,,,,,,,,,,,,,,,,,,,,,,,,,,,,,,,,,,,,,,,,,,,,,,,,,,,,,,,,,,,,,,,,,,,,,,,,,
,,613ab0960ff3efd039adf1e0,2024-02-21_21h34.16.113,kallum_motion_pilot,2023.2.2,Win32,59.88023952,613ab0960ff3efd039adf1e0,65d6bb0e977760de756971f7,65d6bd56210973f7d2836d08,0.0804,0.0804,1,52,214,36,1,threeone,,,,,,,,,,,,,,,,,,,,,,,,,,,,,,,,,,,,,,,,,,,,,,,,,,,,,,,,,,,,,,,,,,,,,,,,,,,,,,,,,,,,,,,,,,,,,,,,,,,,,,,,,,,,,,,,,,,,,,,,,,,,,,,,,,,,,,,,,
,,613ab0960ff3efd039adf1e0,2024-02-21_21h34.16.113,kallum_motion_pilot,2023.2.2,Win32,59.88023952,613ab0960ff3efd039adf1e0,65d6bb0e977760de756971f7,65d6bd56210973f7d2836d08,0.0806,0.0807,1,53,215,141,1,seveneight,,,,,,,,,,,,,,,,,,,,,,,,,,,,,,,,,,,,,,,,,,,,,,,,,,,,,,,,,,,,,,,,,,,,,,,,,,,,,,,,,,,,,,,,,,,,,,,,,,,,,,,,,,,,,,,,,,,,,,,,,,,,,,,,,,,,,,,,,
,,613ab0960ff3efd039adf1e0,2024-02-21_21h34.16.113,kallum_motion_pilot,2023.2.2,Win32,59.88023952,613ab0960ff3efd039adf1e0,65d6bb0e977760de756971f7,65d6bd56210973f7d2836d08,0.0808,0.0808,1,54,216,95,1,eightseven,,,,,,,,,,,,,,,,,,,,,,,,,,,,,,,,,,,,,,,,,,,,,,,,,,,,,,,,,,,,,,,,,,,,,,,,,,,,,,,,,,,,,,,,,,,,,,,,,,,,,,,,,,,,,,,,,,,,,,,,,,,,,,,,,,,,,,,,,
,,613ab0960ff3efd039adf1e0,2024-02-21_21h34.16.113,kallum_motion_pilot,2023.2.2,Win32,59.88023952,613ab0960ff3efd039adf1e0,65d6bb0e977760de756971f7,65d6bd56210973f7d2836d08,0.081,0.081,1,55,217,81,1,fiveseven,,,,,,,,,,,,,,,,,,,,,,,,,,,,,,,,,,,,,,,,,,,,,,,,,,,,,,,,,,,,,,,,,,,,,,,,,,,,,,,,,,,,,,,,,,,,,,,,,,,,,,,,,,,,,,,,,,,,,,,,,,,,,,,,,,,,,,,,,
,,613ab0960ff3efd039adf1e0,2024-02-21_21h34.16.113,kallum_motion_pilot,2023.2.2,Win32,59.88023952,613ab0960ff3efd039adf1e0,65d6bb0e977760de756971f7,65d6bd56210973f7d2836d08,0.0811,0.0812,1,56,218,133,1,seveneight,,,,,,,,,,,,,,,,,,,,,,,,,,,,,,,,,,,,,,,,,,,,,,,,,,,,,,,,,,,,,,,,,,,,,,,,,,,,,,,,,,,,,,,,,,,,,,,,,,,,,,,,,,,,,,,,,,,,,,,,,,,,,,,,,,,,,,,,,
,,613ab0960ff3efd039adf1e0,2024-02-21_21h34.16.113,kallum_motion_pilot,2023.2.2,Win32,59.88023952,613ab0960ff3efd039adf1e0,65d6bb0e977760de756971f7,65d6bd56210973f7d2836d08,0.0813,0.0814,1,57,219,3,1,twofour,,,,,,,,,,,,,,,,,,,,,,,,,,,,,,,,,,,,,,,,,,,,,,,,,,,,,,,,,,,,,,,,,,,,,,,,,,,,,,,,,,,,,,,,,,,,,,,,,,,,,,,,,,,,,,,,,,,,,,,,,,,,,,,,,,,,,,,,,
,,613ab0960ff3efd039adf1e0,2024-02-21_21h34.16.113,kallum_motion_pilot,2023.2.2,Win32,59.88023952,613ab0960ff3efd039adf1e0,65d6bb0e977760de756971f7,65d6bd56210973f7d2836d08,0.0815,0.0815,1,58,220,150,1,eightsix,,,,,,,,,,,,,,,,,,,,,,,,,,,,,,,,,,,,,,,,,,,,,,,,,,,,,,,,,,,,,,,,,,,,,,,,,,,,,,,,,,,,,,,,,,,,,,,,,,,,,,,,,,,,,,,,,,,,,,,,,,,,,,,,,,,,,,,,,
,,613ab0960ff3efd039adf1e0,2024-02-21_21h34.16.113,kallum_motion_pilot,2023.2.2,Win32,59.88023952,613ab0960ff3efd039adf1e0,65d6bb0e977760de756971f7,65d6bd56210973f7d2836d08,0.0816,0.0817,1,59,221,47,1,fourthree,,,,,,,,,,,,,,,,,,,,,,,,,,,,,,,,,,,,,,,,,,,,,,,,,,,,,,,,,,,,,,,,,,,,,,,,,,,,,,,,,,,,,,,,,,,,,,,,,,,,,,,,,,,,,,,,,,,,,,,,,,,,,,,,,,,,,,,,,
,,613ab0960ff3efd039adf1e0,2024-02-21_21h34.16.113,kallum_motion_pilot,2023.2.2,Win32,59.88023952,613ab0960ff3efd039adf1e0,65d6bb0e977760de756971f7,65d6bd56210973f7d2836d08,0.0818,0.0819,1,60,222,37,1,threefour,,,,,,,,,,,,,,,,,,,,,,,,,,,,,,,,,,,,,,,,,,,,,,,,,,,,,,,,,,,,,,,,,,,,,,,,,,,,,,,,,,,,,,,,,,,,,,,,,,,,,,,,,,,,,,,,,,,,,,,,,,,,,,,,,,,,,,,,,
,,613ab0960ff3efd039adf1e0,2024-02-21_21h34.16.113,kallum_motion_pilot,2023.2.2,Win32,59.88023952,613ab0960ff3efd039adf1e0,65d6bb0e977760de756971f7,65d6bd56210973f7d2836d08,0.082,0.0821,1,61,223,78,1,fourtwo,,,,,,,,,,,,,,,,,,,,,,,,,,,,,,,,,,,,,,,,,,,,,,,,,,,,,,,,,,,,,,,,,,,,,,,,,,,,,,,,,,,,,,,,,,,,,,,,,,,,,,,,,,,,,,,,,,,,,,,,,,,,,,,,,,,,,,,,,
,,613ab0960ff3efd039adf1e0,2024-02-21_21h34.16.113,kallum_motion_pilot,2023.2.2,Win32,59.88023952,613ab0960ff3efd039adf1e0,65d6bb0e977760de756971f7,65d6bd56210973f7d2836d08,0.0822,0.0822,1,62,224,5,1,threefour,,,,,,,,,,,,,,,,,,,,,,,,,,,,,,,,,,,,,,,,,,,,,,,,,,,,,,,,,,,,,,,,,,,,,,,,,,,,,,,,,,,,,,,,,,,,,,,,,,,,,,,,,,,,,,,,,,,,,,,,,,,,,,,,,,,,,,,,,
,,613ab0960ff3efd039adf1e0,2024-02-21_21h34.16.113,kallum_motion_pilot,2023.2.2,Win32,59.88023952,613ab0960ff3efd039adf1e0,65d6bb0e977760de756971f7,65d6bd56210973f7d2836d08,0.0823,0.0824,1,63,225,153,1,fiveseven,,,,,,,,,,,,,,,,,,,,,,,,,,,,,,,,,,,,,,,,,,,,,,,,,,,,,,,,,,,,,,,,,,,,,,,,,,,,,,,,,,,,,,,,,,,,,,,,,,,,,,,,,,,,,,,,,,,,,,,,,,,,,,,,,,,,,,,,,
,,613ab0960ff3efd039adf1e0,2024-02-21_21h34.16.113,kallum_motion_pilot,2023.2.2,Win32,59.88023952,613ab0960ff3efd039adf1e0,65d6bb0e977760de756971f7,65d6bd56210973f7d2836d08,0.0824,0.0825,1,64,226,98,1,sixfive,,,,,,,,,,,,,,,,,,,,,,,,,,,,,,,,,,,,,,,,,,,,,,,,,,,,,,,,,,,,,,,,,,,,,,,,,,,,,,,,,,,,,,,,,,,,,,,,,,,,,,,,,,,,,,,,,,,,,,,,,,,,,,,,,,,,,,,,,
,,613ab0960ff3efd039adf1e0,2024-02-21_21h34.16.113,kallum_motion_pilot,2023.2.2,Win32,59.88023952,613ab0960ff3efd039adf1e0,65d6bb0e977760de756971f7,65d6bd56210973f7d2836d08,0.0826,0.0827,1,65,227,61,1,threefour,,,,,,,,,,,,,,,,,,,,,,,,,,,,,,,,,,,,,,,,,,,,,,,,,,,,,,,,,,,,,,,,,,,,,,,,,,,,,,,,,,,,,,,,,,,,,,,,,,,,,,,,,,,,,,,,,,,,,,,,,,,,,,,,,,,,,,,,,
,,613ab0960ff3efd039adf1e0,2024-02-21_21h34.16.113,kallum_motion_pilot,2023.2.2,Win32,59.88023952,613ab0960ff3efd039adf1e0,65d6bb0e977760de756971f7,65d6bd56210973f7d2836d08,0.0828,0.0829,1,66,228,109,1,seveneight,,,,,,,,,,,,,,,,,,,,,,,,,,,,,,,,,,,,,,,,,,,,,,,,,,,,,,,,,,,,,,,,,,,,,,,,,,,,,,,,,,,,,,,,,,,,,,,,,,,,,,,,,,,,,,,,,,,,,,,,,,,,,,,,,,,,,,,,,
,,613ab0960ff3efd039adf1e0,2024-02-21_21h34.16.113,kallum_motion_pilot,2023.2.2,Win32,59.88023952,613ab0960ff3efd039adf1e0,65d6bb0e977760de756971f7,65d6bd56210973f7d2836d08,0.083,0.0831,1,67,229,146,1,sixfive,,,,,,,,,,,,,,,,,,,,,,,,,,,,,,,,,,,,,,,,,,,,,,,,,,,,,,,,,,,,,,,,,,,,,,,,,,,,,,,,,,,,,,,,,,,,,,,,,,,,,,,,,,,,,,,,,,,,,,,,,,,,,,,,,,,,,,,,,
,,613ab0960ff3efd039adf1e0,2024-02-21_21h34.16.113,kallum_motion_pilot,2023.2.2,Win32,59.88023952,613ab0960ff3efd039adf1e0,65d6bb0e977760de756971f7,65d6bd56210973f7d2836d08,0.0832,0.0833,1,68,230,55,1,fourthree,,,,,,,,,,,,,,,,,,,,,,,,,,,,,,,,,,,,,,,,,,,,,,,,,,,,,,,,,,,,,,,,,,,,,,,,,,,,,,,,,,,,,,,,,,,,,,,,,,,,,,,,,,,,,,,,,,,,,,,,,,,,,,,,,,,,,,,,,
,,613ab0960ff3efd039adf1e0,2024-02-21_21h34.16.113,kallum_motion_pilot,2023.2.2,Win32,59.88023952,613ab0960ff3efd039adf1e0,65d6bb0e977760de756971f7,65d6bd56210973f7d2836d08,0.0834,0.0835,1,69,231,106,1,sixfive,,,,,,,,,,,,,,,,,,,,,,,,,,,,,,,,,,,,,,,,,,,,,,,,,,,,,,,,,,,,,,,,,,,,,,,,,,,,,,,,,,,,,,,,,,,,,,,,,,,,,,,,,,,,,,,,,,,,,,,,,,,,,,,,,,,,,,,,,
,,613ab0960ff3efd039adf1e0,2024-02-21_21h34.16.113,kallum_motion_pilot,2023.2.2,Win32,59.88023952,613ab0960ff3efd039adf1e0,65d6bb0e977760de756971f7,65d6bd56210973f7d2836d08,0.0836,0.0836,1,70,232,108,1,sevenfive,,,,,,,,,,,,,,,,,,,,,,,,,,,,,,,,,,,,,,,,,,,,,,,,,,,,,,,,,,,,,,,,,,,,,,,,,,,,,,,,,,,,,,,,,,,,,,,,,,,,,,,,,,,,,,,,,,,,,,,,,,,,,,,,,,,,,,,,,
,,613ab0960ff3efd039adf1e0,2024-02-21_21h34.16.113,kallum_motion_pilot,2023.2.2,Win32,59.88023952,613ab0960ff3efd039adf1e0,65d6bb0e977760de756971f7,65d6bd56210973f7d2836d08,0.0837,0.0838,1,71,233,65,1,onethree,,,,,,,,,,,,,,,,,,,,,,,,,,,,,,,,,,,,,,,,,,,,,,,,,,,,,,,,,,,,,,,,,,,,,,,,,,,,,,,,,,,,,,,,,,,,,,,,,,,,,,,,,,,,,,,,,,,,,,,,,,,,,,,,,,,,,,,,,
,,613ab0960ff3efd039adf1e0,2024-02-21_21h34.16.113,kallum_motion_pilot,2023.2.2,Win32,59.88023952,613ab0960ff3efd039adf1e0,65d6bb0e977760de756971f7,65d6bd56210973f7d2836d08,0.0839,0.0839,1,72,234,107,1,sixeight,,,,,,,,,,,,,,,,,,,,,,,,,,,,,,,,,,,,,,,,,,,,,,,,,,,,,,,,,,,,,,,,,,,,,,,,,,,,,,,,,,,,,,,,,,,,,,,,,,,,,,,,,,,,,,,,,,,,,,,,,,,,,,,,,,,,,,,,,
,,613ab0960ff3efd039adf1e0,2024-02-21_21h34.16.113,kallum_motion_pilot,2023.2.2,Win32,59.88023952,613ab0960ff3efd039adf1e0,65d6bb0e977760de756971f7,65d6bd56210973f7d2836d08,0.084,0.0841,1,73,235,27,1,twofour,,,,,,,,,,,,,,,,,,,,,,,,,,,,,,,,,,,,,,,,,,,,,,,,,,,,,,,,,,,,,,,,,,,,,,,,,,,,,,,,,,,,,,,,,,,,,,,,,,,,,,,,,,,,,,,,,,,,,,,,,,,,,,,,,,,,,,,,,
,,613ab0960ff3efd039adf1e0,2024-02-21_21h34.16.113,kallum_motion_pilot,2023.2.2,Win32,59.88023952,613ab0960ff3efd039adf1e0,65d6bb0e977760de756971f7,65d6bd56210973f7d2836d08,0.0841,0.0842,1,74,236,128,1,fivesix,,,,,,,,,,,,,,,,,,,,,,,,,,,,,,,,,,,,,,,,,,,,,,,,,,,,,,,,,,,,,,,,,,,,,,,,,,,,,,,,,,,,,,,,,,,,,,,,,,,,,,,,,,,,,,,,,,,,,,,,,,,,,,,,,,,,,,,,,
,,613ab0960ff3efd039adf1e0,2024-02-21_21h34.16.113,kallum_motion_pilot,2023.2.2,Win32,59.88023952,613ab0960ff3efd039adf1e0,65d6bb0e977760de756971f7,65d6bd56210973f7d2836d08,0.0844,0.0845,1,75,237,62,1,fourtwo,,,,,,,,,,,,,,,,,,,,,,,,,,,,,,,,,,,,,,,,,,,,,,,,,,,,,,,,,,,,,,,,,,,,,,,,,,,,,,,,,,,,,,,,,,,,,,,,,,,,,,,,,,,,,,,,,,,,,,,,,,,,,,,,,,,,,,,,,
,,613ab0960ff3efd039adf1e0,2024-02-21_21h34.16.113,kallum_motion_pilot,2023.2.2,Win32,59.88023952,613ab0960ff3efd039adf1e0,65d6bb0e977760de756971f7,65d6bd56210973f7d2836d08,0.0847,0.0847,1,76,238,22,1,fourtwo,,,,,,,,,,,,,,,,,,,,,,,,,,,,,,,,,,,,,,,,,,,,,,,,,,,,,,,,,,,,,,,,,,,,,,,,,,,,,,,,,,,,,,,,,,,,,,,,,,,,,,,,,,,,,,,,,,,,,,,,,,,,,,,,,,,,,,,,,
,,613ab0960ff3efd039adf1e0,2024-02-21_21h34.16.113,kallum_motion_pilot,2023.2.2,Win32,59.88023952,613ab0960ff3efd039adf1e0,65d6bb0e977760de756971f7,65d6bd56210973f7d2836d08,0.0849,0.085,1,77,239,41,1,onethree,,,,,,,,,,,,,,,,,,,,,,,,,,,,,,,,,,,,,,,,,,,,,,,,,,,,,,,,,,,,,,,,,,,,,,,,,,,,,,,,,,,,,,,,,,,,,,,,,,,,,,,,,,,,,,,,,,,,,,,,,,,,,,,,,,,,,,,,,
,,613ab0960ff3efd039adf1e0,2024-02-21_21h34.16.113,kallum_motion_pilot,2023.2.2,Win32,59.88023952,613ab0960ff3efd039adf1e0,65d6bb0e977760de756971f7,65d6bd56210973f7d2836d08,0.0851,0.0854,1,78,240,59,1,twofour,,,,,,,,,,,,,,,,,,,,,,,,,,,,,,,,,,,,,,,,,,,,,,,,,,,,,,,,,,,,,,,,,,,,,,,,,,,,,,,,,,,,,,,,,,,,,,,,,,,,,,,,,,,,,,,,,,,,,,,,,,,,,,,,,,,,,,,,,
,,613ab0960ff3efd039adf1e0,2024-02-21_21h34.16.113,kallum_motion_pilot,2023.2.2,Win32,59.88023952,613ab0960ff3efd039adf1e0,65d6bb0e977760de756971f7,65d6bd56210973f7d2836d08,0.0856,0.0857,1,79,241,94,1,eightsix,,,,,,,,,,,,,,,,,,,,,,,,,,,,,,,,,,,,,,,,,,,,,,,,,,,,,,,,,,,,,,,,,,,,,,,,,,,,,,,,,,,,,,,,,,,,,,,,,,,,,,,,,,,,,,,,,,,,,,,,,,,,,,,,,,,,,,,,,
,,613ab0960ff3efd039adf1e0,2024-02-21_21h34.16.113,kallum_motion_pilot,2023.2.2,Win32,59.88023952,613ab0960ff3efd039adf1e0,65d6bb0e977760de756971f7,65d6bd56210973f7d2836d08,0.0859,0.086,1,80,242,161,1,fiveseven,,,,,,,,,,,,,,,,,,,,,,,,,,,,,,,,,,,,,,,,,,,,,,,,,,,,,,,,,,,,,,,,,,,,,,,,,,,,,,,,,,,,,,,,,,,,,,,,,,,,,,,,,,,,,,,,,,,,,,,,,,,,,,,,,,,,,,,,,
,,613ab0960ff3efd039adf1e0,2024-02-21_21h34.16.113,kallum_motion_pilot,2023.2.2,Win32,59.88023952,613ab0960ff3efd039adf1e0,65d6bb0e977760de756971f7,65d6bd56210973f7d2836d08,0.086,0.0861,1,81,243,110,1,eightsix,,,,,,,,,,,,,,,,,,,,,,,,,,,,,,,,,,,,,,,,,,,,,,,,,,,,,,,,,,,,,,,,,,,,,,,,,,,,,,,,,,,,,,,,,,,,,,,,,,,,,,,,,,,,,,,,,,,,,,,,,,,,,,,,,,,,,,,,,
,,613ab0960ff3efd039adf1e0,2024-02-21_21h34.16.113,kallum_motion_pilot,2023.2.2,Win32,59.88023952,613ab0960ff3efd039adf1e0,65d6bb0e977760de756971f7,65d6bd56210973f7d2836d08,0.0863,0.0863,1,82,244,9,1,onethree,,,,,,,,,,,,,,,,,,,,,,,,,,,,,,,,,,,,,,,,,,,,,,,,,,,,,,,,,,,,,,,,,,,,,,,,,,,,,,,,,,,,,,,,,,,,,,,,,,,,,,,,,,,,,,,,,,,,,,,,,,,,,,,,,,,,,,,,,
,,613ab0960ff3efd039adf1e0,2024-02-21_21h34.16.113,kallum_motion_pilot,2023.2.2,Win32,59.88023952,613ab0960ff3efd039adf1e0,65d6bb0e977760de756971f7,65d6bd56210973f7d2836d08,0.0865,0.0866,1,83,245,122,1,sixfive,,,,,,,,,,,,,,,,,,,,,,,,,,,,,,,,,,,,,,,,,,,,,,,,,,,,,,,,,,,,,,,,,,,,,,,,,,,,,,,,,,,,,,,,,,,,,,,,,,,,,,,,,,,,,,,,,,,,,,,,,,,,,,,,,,,,,,,,,
,,613ab0960ff3efd039adf1e0,2024-02-21_21h34.16.113,kallum_motion_pilot,2023.2.2,Win32,59.88023952,613ab0960ff3efd039adf1e0,65d6bb0e977760de756971f7,65d6bd56210973f7d2836d08,0.0866,0.0868,1,84,246,63,1,fourthree,,,,,,,,,,,,,,,,,,,,,,,,,,,,,,,,,,,,,,,,,,,,,,,,,,,,,,,,,,,,,,,,,,,,,,,,,,,,,,,,,,,,,,,,,,,,,,,,,,,,,,,,,,,,,,,,,,,,,,,,,,,,,,,,,,,,,,,,,
,,613ab0960ff3efd039adf1e0,2024-02-21_21h34.16.113,kallum_motion_pilot,2023.2.2,Win32,59.88023952,613ab0960ff3efd039adf1e0,65d6bb0e977760de756971f7,65d6bd56210973f7d2836d08,0.0869,0.087,1,85,247,33,1,onethree,,,,,,,,,,,,,,,,,,,,,,,,,,,,,,,,,,,,,,,,,,,,,,,,,,,,,,,,,,,,,,,,,,,,,,,,,,,,,,,,,,,,,,,,,,,,,,,,,,,,,,,,,,,,,,,,,,,,,,,,,,,,,,,,,,,,,,,,,
,,613ab0960ff3efd039adf1e0,2024-02-21_21h34.16.113,kallum_motion_pilot,2023.2.2,Win32,59.88023952,613ab0960ff3efd039adf1e0,65d6bb0e977760de756971f7,65d6bd56210973f7d2836d08,0.087,0.0872,1,86,248,97,1,fiveseven,,,,,,,,,,,,,,,,,,,,,,,,,,,,,,,,,,,,,,,,,,,,,,,,,,,,,,,,,,,,,,,,,,,,,,,,,,,,,,,,,,,,,,,,,,,,,,,,,,,,,,,,,,,,,,,,,,,,,,,,,,,,,,,,,,,,,,,,,
,,613ab0960ff3efd039adf1e0,2024-02-21_21h34.16.113,kallum_motion_pilot,2023.2.2,Win32,59.88023952,613ab0960ff3efd039adf1e0,65d6bb0e977760de756971f7,65d6bd56210973f7d2836d08,0.0873,0.0874,1,87,249,151,1,eightseven,,,,,,,,,,,,,,,,,,,,,,,,,,,,,,,,,,,,,,,,,,,,,,,,,,,,,,,,,,,,,,,,,,,,,,,,,,,,,,,,,,,,,,,,,,,,,,,,,,,,,,,,,,,,,,,,,,,,,,,,,,,,,,,,,,,,,,,,,
,,613ab0960ff3efd039adf1e0,2024-02-21_21h34.16.113,kallum_motion_pilot,2023.2.2,Win32,59.88023952,613ab0960ff3efd039adf1e0,65d6bb0e977760de756971f7,65d6bd56210973f7d2836d08,0.0875,0.0876,1,88,250,96,1,fivesix,,,,,,,,,,,,,,,,,,,,,,,,,,,,,,,,,,,,,,,,,,,,,,,,,,,,,,,,,,,,,,,,,,,,,,,,,,,,,,,,,,,,,,,,,,,,,,,,,,,,,,,,,,,,,,,,,,,,,,,,,,,,,,,,,,,,,,,,,
,,613ab0960ff3efd039adf1e0,2024-02-21_21h34.16.113,kallum_motion_pilot,2023.2.2,Win32,59.88023952,613ab0960ff3efd039adf1e0,65d6bb0e977760de756971f7,65d6bd56210973f7d2836d08,0.0877,0.0879,1,89,251,142,1,eightsix,,,,,,,,,,,,,,,,,,,,,,,,,,,,,,,,,,,,,,,,,,,,,,,,,,,,,,,,,,,,,,,,,,,,,,,,,,,,,,,,,,,,,,,,,,,,,,,,,,,,,,,,,,,,,,,,,,,,,,,,,,,,,,,,,,,,,,,,,
,,613ab0960ff3efd039adf1e0,2024-02-21_21h34.16.113,kallum_motion_pilot,2023.2.2,Win32,59.88023952,613ab0960ff3efd039adf1e0,65d6bb0e977760de756971f7,65d6bd56210973f7d2836d08,0.0885,0.0888,1,90,252,70,1,fourtwo,,,,,,,,,,,,,,,,,,,,,,,,,,,,,,,,,,,,,,,,,,,,,,,,,,,,,,,,,,,,,,,,,,,,,,,,,,,,,,,,,,,,,,,,,,,,,,,,,,,,,,,,,,,,,,,,,,,,,,,,,,,,,,,,,,,,,,,,,
,,613ab0960ff3efd039adf1e0,2024-02-21_21h34.16.113,kallum_motion_pilot,2023.2.2,Win32,59.88023952,613ab0960ff3efd039adf1e0,65d6bb0e977760de756971f7,65d6bd56210973f7d2836d08,0.0889,0.0891,1,91,253,74,1,twoone,,,,,,,,,,,,,,,,,,,,,,,,,,,,,,,,,,,,,,,,,,,,,,,,,,,,,,,,,,,,,,,,,,,,,,,,,,,,,,,,,,,,,,,,,,,,,,,,,,,,,,,,,,,,,,,,,,,,,,,,,,,,,,,,,,,,,,,,,
,,613ab0960ff3efd039adf1e0,2024-02-21_21h34.16.113,kallum_motion_pilot,2023.2.2,Win32,59.88023952,613ab0960ff3efd039adf1e0,65d6bb0e977760de756971f7,65d6bd56210973f7d2836d08,0.0893,0.0894,1,92,254,92,1,sevenfive,,,,,,,,,,,,,,,,,,,,,,,,,,,,,,,,,,,,,,,,,,,,,,,,,,,,,,,,,,,,,,,,,,,,,,,,,,,,,,,,,,,,,,,,,,,,,,,,,,,,,,,,,,,,,,,,,,,,,,,,,,,,,,,,,,,,,,,,,
,,613ab0960ff3efd039adf1e0,2024-02-21_21h34.16.113,kallum_motion_pilot,2023.2.2,Win32,59.88023952,613ab0960ff3efd039adf1e0,65d6bb0e977760de756971f7,65d6bd56210973f7d2836d08,0.0898,0.0899,1,93,255,154,1,sixfive,,,,,,,,,,,,,,,,,,,,,,,,,,,,,,,,,,,,,,,,,,,,,,,,,,,,,,,,,,,,,,,,,,,,,,,,,,,,,,,,,,,,,,,,,,,,,,,,,,,,,,,,,,,,,,,,,,,,,,,,,,,,,,,,,,,,,,,,,
,,613ab0960ff3efd039adf1e0,2024-02-21_21h34.16.113,kallum_motion_pilot,2023.2.2,Win32,59.88023952,613ab0960ff3efd039adf1e0,65d6bb0e977760de756971f7,65d6bd56210973f7d2836d08,0.09,0.0902,1,94,256,102,1,eightsix,,,,,,,,,,,,,,,,,,,,,,,,,,,,,,,,,,,,,,,,,,,,,,,,,,,,,,,,,,,,,,,,,,,,,,,,,,,,,,,,,,,,,,,,,,,,,,,,,,,,,,,,,,,,,,,,,,,,,,,,,,,,,,,,,,,,,,,,,
,,613ab0960ff3efd039adf1e0,2024-02-21_21h34.16.113,kallum_motion_pilot,2023.2.2,Win32,59.88023952,613ab0960ff3efd039adf1e0,65d6bb0e977760de756971f7,65d6bd56210973f7d2836d08,0.0902,0.0904,1,95,257,24,1,onetwo,,,,,,,,,,,,,,,,,,,,,,,,,,,,,,,,,,,,,,,,,,,,,,,,,,,,,,,,,,,,,,,,,,,,,,,,,,,,,,,,,,,,,,,,,,,,,,,,,,,,,,,,,,,,,,,,,,,,,,,,,,,,,,,,,,,,,,,,,
,,613ab0960ff3efd039adf1e0,2024-02-21_21h34.16.113,kallum_motion_pilot,2023.2.2,Win32,59.88023952,613ab0960ff3efd039adf1e0,65d6bb0e977760de756971f7,65d6bd56210973f7d2836d08,0.0905,0.0907,1,96,258,120,1,fivesix,,,,,,,,,,,,,,,,,,,,,,,,,,,,,,,,,,,,,,,,,,,,,,,,,,,,,,,,,,,,,,,,,,,,,,,,,,,,,,,,,,,,,,,,,,,,,,,,,,,,,,,,,,,,,,,,,,,,,,,,,,,,,,,,,,,,,,,,,
,,613ab0960ff3efd039adf1e0,2024-02-21_21h34.16.113,kallum_motion_pilot,2023.2.2,Win32,59.88023952,613ab0960ff3efd039adf1e0,65d6bb0e977760de756971f7,65d6bd56210973f7d2836d08,0.0908,0.0909,1,97,259,54,1,fourtwo,,,,,,,,,,,,,,,,,,,,,,,,,,,,,,,,,,,,,,,,,,,,,,,,,,,,,,,,,,,,,,,,,,,,,,,,,,,,,,,,,,,,,,,,,,,,,,,,,,,,,,,,,,,,,,,,,,,,,,,,,,,,,,,,,,,,,,,,,
,,613ab0960ff3efd039adf1e0,2024-02-21_21h34.16.113,kallum_motion_pilot,2023.2.2,Win32,59.88023952,613ab0960ff3efd039adf1e0,65d6bb0e977760de756971f7,65d6bd56210973f7d2836d08,0.091,0.0911,1,98,260,114,1,sixfive,,,,,,,,,,,,,,,,,,,,,,,,,,,,,,,,,,,,,,,,,,,,,,,,,,,,,,,,,,,,,,,,,,,,,,,,,,,,,,,,,,,,,,,,,,,,,,,,,,,,,,,,,,,,,,,,,,,,,,,,,,,,,,,,,,,,,,,,,
,,613ab0960ff3efd039adf1e0,2024-02-21_21h34.16.113,kallum_motion_pilot,2023.2.2,Win32,59.88023952,613ab0960ff3efd039adf1e0,65d6bb0e977760de756971f7,65d6bd56210973f7d2836d08,0.0912,0.0913,1,99,261,118,1,eightsix,,,,,,,,,,,,,,,,,,,,,,,,,,,,,,,,,,,,,,,,,,,,,,,,,,,,,,,,,,,,,,,,,,,,,,,,,,,,,,,,,,,,,,,,,,,,,,,,,,,,,,,,,,,,,,,,,,,,,,,,,,,,,,,,,,,,,,,,,
,,613ab0960ff3efd039adf1e0,2024-02-21_21h34.16.113,kallum_motion_pilot,2023.2.2,Win32,59.88023952,613ab0960ff3efd039adf1e0,65d6bb0e977760de756971f7,65d6bd56210973f7d2836d08,0.0914,0.0915,1,100,262,76,1,threeone,,,,,,,,,,,,,,,,,,,,,,,,,,,,,,,,,,,,,,,,,,,,,,,,,,,,,,,,,,,,,,,,,,,,,,,,,,,,,,,,,,,,,,,,,,,,,,,,,,,,,,,,,,,,,,,,,,,,,,,,,,,,,,,,,,,,,,,,,
,,613ab0960ff3efd039adf1e0,2024-02-21_21h34.16.113,kallum_motion_pilot,2023.2.2,Win32,59.88023952,613ab0960ff3efd039adf1e0,65d6bb0e977760de756971f7,65d6bd56210973f7d2836d08,0.0916,0.0916,1,101,263,131,1,sixeight,,,,,,,,,,,,,,,,,,,,,,,,,,,,,,,,,,,,,,,,,,,,,,,,,,,,,,,,,,,,,,,,,,,,,,,,,,,,,,,,,,,,,,,,,,,,,,,,,,,,,,,,,,,,,,,,,,,,,,,,,,,,,,,,,,,,,,,,,
,,613ab0960ff3efd039adf1e0,2024-02-21_21h34.16.113,kallum_motion_pilot,2023.2.2,Win32,59.88023952,613ab0960ff3efd039adf1e0,65d6bb0e977760de756971f7,65d6bd56210973f7d2836d08,0.0919,0.092,1,102,264,126,1,eightsix,,,,,,,,,,,,,,,,,,,,,,,,,,,,,,,,,,,,,,,,,,,,,,,,,,,,,,,,,,,,,,,,,,,,,,,,,,,,,,,,,,,,,,,,,,,,,,,,,,,,,,,,,,,,,,,,,,,,,,,,,,,,,,,,,,,,,,,,,
,,613ab0960ff3efd039adf1e0,2024-02-21_21h34.16.113,kallum_motion_pilot,2023.2.2,Win32,59.88023952,613ab0960ff3efd039adf1e0,65d6bb0e977760de756971f7,65d6bd56210973f7d2836d08,0.0922,0.0923,1,103,265,113,1,fiveseven,,,,,,,,,,,,,,,,,,,,,,,,,,,,,,,,,,,,,,,,,,,,,,,,,,,,,,,,,,,,,,,,,,,,,,,,,,,,,,,,,,,,,,,,,,,,,,,,,,,,,,,,,,,,,,,,,,,,,,,,,,,,,,,,,,,,,,,,,
,,613ab0960ff3efd039adf1e0,2024-02-21_21h34.16.113,kallum_motion_pilot,2023.2.2,Win32,59.88023952,613ab0960ff3efd039adf1e0,65d6bb0e977760de756971f7,65d6bd56210973f7d2836d08,0.0924,0.0925,1,104,266,82,1,sixfive,,,,,,,,,,,,,,,,,,,,,,,,,,,,,,,,,,,,,,,,,,,,,,,,,,,,,,,,,,,,,,,,,,,,,,,,,,,,,,,,,,,,,,,,,,,,,,,,,,,,,,,,,,,,,,,,,,,,,,,,,,,,,,,,,,,,,,,,,
,,613ab0960ff3efd039adf1e0,2024-02-21_21h34.16.113,kallum_motion_pilot,2023.2.2,Win32,59.88023952,613ab0960ff3efd039adf1e0,65d6bb0e977760de756971f7,65d6bd56210973f7d2836d08,0.0927,0.0929,1,105,267,58,1,twoone,,,,,,,,,,,,,,,,,,,,,,,,,,,,,,,,,,,,,,,,,,,,,,,,,,,,,,,,,,,,,,,,,,,,,,,,,,,,,,,,,,,,,,,,,,,,,,,,,,,,,,,,,,,,,,,,,,,,,,,,,,,,,,,,,,,,,,,,,
,,613ab0960ff3efd039adf1e0,2024-02-21_21h34.16.113,kallum_motion_pilot,2023.2.2,Win32,59.88023952,613ab0960ff3efd039adf1e0,65d6bb0e977760de756971f7,65d6bd56210973f7d2836d08,0.093,0.0931,1,106,268,31,1,fourthree,,,,,,,,,,,,,,,,,,,,,,,,,,,,,,,,,,,,,,,,,,,,,,,,,,,,,,,,,,,,,,,,,,,,,,,,,,,,,,,,,,,,,,,,,,,,,,,,,,,,,,,,,,,,,,,,,,,,,,,,,,,,,,,,,,,,,,,,,
,,613ab0960ff3efd039adf1e0,2024-02-21_21h34.16.113,kallum_motion_pilot,2023.2.2,Win32,59.88023952,613ab0960ff3efd039adf1e0,65d6bb0e977760de756971f7,65d6bd56210973f7d2836d08,0.0931,0.0933,1,107,269,25,1,onethree,,,,,,,,,,,,,,,,,,,,,,,,,,,,,,,,,,,,,,,,,,,,,,,,,,,,,,,,,,,,,,,,,,,,,,,,,,,,,,,,,,,,,,,,,,,,,,,,,,,,,,,,,,,,,,,,,,,,,,,,,,,,,,,,,,,,,,,,,
,,613ab0960ff3efd039adf1e0,2024-02-21_21h34.16.113,kallum_motion_pilot,2023.2.2,Win32,59.88023952,613ab0960ff3efd039adf1e0,65d6bb0e977760de756971f7,65d6bd56210973f7d2836d08,0.0934,0.0935,1,108,270,147,1,sixeight,,,,,,,,,,,,,,,,,,,,,,,,,,,,,,,,,,,,,,,,,,,,,,,,,,,,,,,,,,,,,,,,,,,,,,,,,,,,,,,,,,,,,,,,,,,,,,,,,,,,,,,,,,,,,,,,,,,,,,,,,,,,,,,,,,,,,,,,,
,,613ab0960ff3efd039adf1e0,2024-02-21_21h34.16.113,kallum_motion_pilot,2023.2.2,Win32,59.88023952,613ab0960ff3efd039adf1e0,65d6bb0e977760de756971f7,65d6bd56210973f7d2836d08,0.0936,0.0937,1,109,271,45,1,threefour,,,,,,,,,,,,,,,,,,,,,,,,,,,,,,,,,,,,,,,,,,,,,,,,,,,,,,,,,,,,,,,,,,,,,,,,,,,,,,,,,,,,,,,,,,,,,,,,,,,,,,,,,,,,,,,,,,,,,,,,,,,,,,,,,,,,,,,,,
,,613ab0960ff3efd039adf1e0,2024-02-21_21h34.16.113,kallum_motion_pilot,2023.2.2,Win32,59.88023952,613ab0960ff3efd039adf1e0,65d6bb0e977760de756971f7,65d6bd56210973f7d2836d08,0.0938,0.0939,1,110,272,8,1,onetwo,,,,,,,,,,,,,,,,,,,,,,,,,,,,,,,,,,,,,,,,,,,,,,,,,,,,,,,,,,,,,,,,,,,,,,,,,,,,,,,,,,,,,,,,,,,,,,,,,,,,,,,,,,,,,,,,,,,,,,,,,,,,,,,,,,,,,,,,,
,,613ab0960ff3efd039adf1e0,2024-02-21_21h34.16.113,kallum_motion_pilot,2023.2.2,Win32,59.88023952,613ab0960ff3efd039adf1e0,65d6bb0e977760de756971f7,65d6bd56210973f7d2836d08,0.094,0.094,1,111,273,148,1,sevenfive,,,,,,,,,,,,,,,,,,,,,,,,,,,,,,,,,,,,,,,,,,,,,,,,,,,,,,,,,,,,,,,,,,,,,,,,,,,,,,,,,,,,,,,,,,,,,,,,,,,,,,,,,,,,,,,,,,,,,,,,,,,,,,,,,,,,,,,,,
,,613ab0960ff3efd039adf1e0,2024-02-21_21h34.16.113,kallum_motion_pilot,2023.2.2,Win32,59.88023952,613ab0960ff3efd039adf1e0,65d6bb0e977760de756971f7,65d6bd56210973f7d2836d08,0.0942,0.0943,1,112,274,93,1,seveneight,,,,,,,,,,,,,,,,,,,,,,,,,,,,,,,,,,,,,,,,,,,,,,,,,,,,,,,,,,,,,,,,,,,,,,,,,,,,,,,,,,,,,,,,,,,,,,,,,,,,,,,,,,,,,,,,,,,,,,,,,,,,,,,,,,,,,,,,,
,,613ab0960ff3efd039adf1e0,2024-02-21_21h34.16.113,kallum_motion_pilot,2023.2.2,Win32,59.88023952,613ab0960ff3efd039adf1e0,65d6bb0e977760de756971f7,65d6bd56210973f7d2836d08,0.0943,0.0944,1,113,275,90,1,sixfive,,,,,,,,,,,,,,,,,,,,,,,,,,,,,,,,,,,,,,,,,,,,,,,,,,,,,,,,,,,,,,,,,,,,,,,,,,,,,,,,,,,,,,,,,,,,,,,,,,,,,,,,,,,,,,,,,,,,,,,,,,,,,,,,,,,,,,,,,
,,613ab0960ff3efd039adf1e0,2024-02-21_21h34.16.113,kallum_motion_pilot,2023.2.2,Win32,59.88023952,613ab0960ff3efd039adf1e0,65d6bb0e977760de756971f7,65d6bd56210973f7d2836d08,0.0945,0.0946,1,114,276,83,1,sixeight,,,,,,,,,,,,,,,,,,,,,,,,,,,,,,,,,,,,,,,,,,,,,,,,,,,,,,,,,,,,,,,,,,,,,,,,,,,,,,,,,,,,,,,,,,,,,,,,,,,,,,,,,,,,,,,,,,,,,,,,,,,,,,,,,,,,,,,,,
,,613ab0960ff3efd039adf1e0,2024-02-21_21h34.16.113,kallum_motion_pilot,2023.2.2,Win32,59.88023952,613ab0960ff3efd039adf1e0,65d6bb0e977760de756971f7,65d6bd56210973f7d2836d08,0.0947,0.0948,1,115,277,11,1,twofour,,,,,,,,,,,,,,,,,,,,,,,,,,,,,,,,,,,,,,,,,,,,,,,,,,,,,,,,,,,,,,,,,,,,,,,,,,,,,,,,,,,,,,,,,,,,,,,,,,,,,,,,,,,,,,,,,,,,,,,,,,,,,,,,,,,,,,,,,
