startup.started,startup.stopped,Prolific ID*,date,expName,psychopyVersion,OS,frameRate,participant,study_id,session,stimpositions.started,stimpositions.stopped,hardcoded_stimulus_positions.thisRepN,hardcoded_stimulus_positions.thisTrialN,hardcoded_stimulus_positions.thisN,hardcoded_stimulus_positions.thisIndex,hardcoded_stimulus_positions.ran,StimulusPos,stimorientation.started,stimorientation.stopped,prac_stimorientation_import_loop.thisRepN,prac_stimorientation_import_loop.thisTrialN,prac_stimorientation_import_loop.thisN,prac_stimorientation_import_loop.thisIndex,prac_stimorientation_import_loop.ran,Stimorientation,welcome_instr.started,welcome_instr.stopped,key_resp.keys,key_resp.rt,key_resp.duration,response_steppedout_1.started,response_steppedout_1.stopped,key_resp_20.keys,key_resp_20.rt,key_resp_20.duration,response_steppedout_2.started,response_steppedout_2.stopped,key_resp_19.keys,key_resp_19.rt,key_resp_19.duration,stim_response_instr.started,stim_response_instr.stopped,key_resp_15.keys,key_resp_15.rt,key_resp_15.duration,direction_instr_2.started,direction_instr_2.stopped,key_resp_9.keys,key_resp_9.rt,key_resp_9.duration,instr_prac.started,instr_prac.stopped,key_resp_10.keys,key_resp_10.rt,key_resp_10.duration,Stim1_display_prac.started,Stim1_display_prac.stopped,Ecc,Circle1_ori,Circle2_ori,response_prac.started,similarity,response_time,response_prac.stopped,mouse_5.x,mouse_5.y,mouse_5.leftButton,mouse_5.midButton,mouse_5.rightButton,mouse_5.clicked_name,responseprac_feedback.started,responseprac_feedback.stopped,summary2_prac.started,summary2_prac.stopped,mouse_6.x,mouse_6.y,mouse_6.leftButton,mouse_6.midButton,mouse_6.rightButton,mouse_6.clicked_name,duringprac.thisRepN,duringprac.thisTrialN,duringprac.thisN,duringprac.thisIndex,duringprac.ran,begin.started,begin.stopped,key_resp_22.keys,key_resp_22.rt,key_resp_22.duration,Stim1_display.started,Stim1_display.stopped,circle1_ori,circle2_ori,circle1_SF,circle2_SF,response.started,response.stopped,mouse.x,mouse.y,mouse.leftButton,mouse.midButton,mouse.rightButton,mouse.clicked_name,trialnumber,double_pass.thisRepN,double_pass.thisTrialN,double_pass.thisN,double_pass.thisIndex,double_pass.ran,double_pass.order,main_trial.thisRepN,main_trial.thisTrialN,main_trial.thisN,main_trial.thisIndex,main_trial.ran,main_trial.order,Trial_Counter,Catch,Frequencies,response_2.started,response_2.stopped,mouse_2.x,mouse_2.y,mouse_2.leftButton,mouse_2.midButton,mouse_2.rightButton,mouse_2.clicked_name,special_trial.started,special_trial.stopped,catch_1.started,catch_1.stopped,mouse_3.x,mouse_3.y,mouse_3.leftButton,mouse_3.midButton,mouse_3.rightButton,catchresponse,catchnumber,response_time_catch,response_sum.started,response_sum.stopped,mouse_11.x,mouse_11.y,mouse_11.leftButton,mouse_11.midButton,mouse_11.rightButton,flip_presentation_sequence_for_double_pass.started,flip_presentation_sequence_for_double_pass.stopped,goodbye.started,goodbye.stopped,key_resp_3.keys,key_resp_3.rt,key_resp_3.duration
0.0004,0.0006,613a8495a69273eee63740fe,2024-02-21_21h18.45.007,kallum_motion_pilot,2023.2.2,MacIntel,60.24096386,613a8495a69273eee63740fe,65d6bb0e977760de756971f7,65d6bcf8977760de7569722e,,,,,,,,,,,,,,,,,,,,,,,,,,,,,,,,,,,,,,,,,,,,,,,,,,,,,,,,,,,,,,,,,,,,,,,,,,,,,,,,,,,,,,,,,,,,,,,,,,,,,,,,,,,,,,,,,,,,,,,,,,,,,,,,,,,,,,,,,,,,,,,,,
,,613a8495a69273eee63740fe,2024-02-21_21h18.45.007,kallum_motion_pilot,2023.2.2,MacIntel,60.24096386,613a8495a69273eee63740fe,65d6bb0e977760de756971f7,65d6bcf8977760de7569722e,0.0311,0.0314,0,0,0,77,1,threefour,,,,,,,,,,,,,,,,,,,,,,,,,,,,,,,,,,,,,,,,,,,,,,,,,,,,,,,,,,,,,,,,,,,,,,,,,,,,,,,,,,,,,,,,,,,,,,,,,,,,,,,,,,,,,,,,,,,,,,,,,,,,,,,,,,,,,,,,,
,,613a8495a69273eee63740fe,2024-02-21_21h18.45.007,kallum_motion_pilot,2023.2.2,MacIntel,60.24096386,613a8495a69273eee63740fe,65d6bb0e977760de756971f7,65d6bcf8977760de7569722e,0.0317,0.0317,0,1,1,71,1,fourthree,,,,,,,,,,,,,,,,,,,,,,,,,,,,,,,,,,,,,,,,,,,,,,,,,,,,,,,,,,,,,,,,,,,,,,,,,,,,,,,,,,,,,,,,,,,,,,,,,,,,,,,,,,,,,,,,,,,,,,,,,,,,,,,,,,,,,,,,,
,,613a8495a69273eee63740fe,2024-02-21_21h18.45.007,kallum_motion_pilot,2023.2.2,MacIntel,60.24096386,613a8495a69273eee63740fe,65d6bb0e977760de756971f7,65d6bcf8977760de7569722e,0.0319,0.0321,0,2,2,22,1,fourtwo,,,,,,,,,,,,,,,,,,,,,,,,,,,,,,,,,,,,,,,,,,,,,,,,,,,,,,,,,,,,,,,,,,,,,,,,,,,,,,,,,,,,,,,,,,,,,,,,,,,,,,,,,,,,,,,,,,,,,,,,,,,,,,,,,,,,,,,,,
,,613a8495a69273eee63740fe,2024-02-21_21h18.45.007,kallum_motion_pilot,2023.2.2,MacIntel,60.24096386,613a8495a69273eee63740fe,65d6bb0e977760de756971f7,65d6bcf8977760de7569722e,0.0323,0.0323,0,3,3,58,1,twoone,,,,,,,,,,,,,,,,,,,,,,,,,,,,,,,,,,,,,,,,,,,,,,,,,,,,,,,,,,,,,,,,,,,,,,,,,,,,,,,,,,,,,,,,,,,,,,,,,,,,,,,,,,,,,,,,,,,,,,,,,,,,,,,,,,,,,,,,,
,,613a8495a69273eee63740fe,2024-02-21_21h18.45.007,kallum_motion_pilot,2023.2.2,MacIntel,60.24096386,613a8495a69273eee63740fe,65d6bb0e977760de756971f7,65d6bcf8977760de7569722e,0.0326,0.0326,0,4,4,147,1,sixeight,,,,,,,,,,,,,,,,,,,,,,,,,,,,,,,,,,,,,,,,,,,,,,,,,,,,,,,,,,,,,,,,,,,,,,,,,,,,,,,,,,,,,,,,,,,,,,,,,,,,,,,,,,,,,,,,,,,,,,,,,,,,,,,,,,,,,,,,,
,,613a8495a69273eee63740fe,2024-02-21_21h18.45.007,kallum_motion_pilot,2023.2.2,MacIntel,60.24096386,613a8495a69273eee63740fe,65d6bb0e977760de756971f7,65d6bcf8977760de7569722e,0.0328,0.0328,0,5,5,61,1,threefour,,,,,,,,,,,,,,,,,,,,,,,,,,,,,,,,,,,,,,,,,,,,,,,,,,,,,,,,,,,,,,,,,,,,,,,,,,,,,,,,,,,,,,,,,,,,,,,,,,,,,,,,,,,,,,,,,,,,,,,,,,,,,,,,,,,,,,,,,
,,613a8495a69273eee63740fe,2024-02-21_21h18.45.007,kallum_motion_pilot,2023.2.2,MacIntel,60.24096386,613a8495a69273eee63740fe,65d6bb0e977760de756971f7,65d6bcf8977760de7569722e,0.0329,0.0329,0,6,6,4,1,threeone,,,,,,,,,,,,,,,,,,,,,,,,,,,,,,,,,,,,,,,,,,,,,,,,,,,,,,,,,,,,,,,,,,,,,,,,,,,,,,,,,,,,,,,,,,,,,,,,,,,,,,,,,,,,,,,,,,,,,,,,,,,,,,,,,,,,,,,,,
,,613a8495a69273eee63740fe,2024-02-21_21h18.45.007,kallum_motion_pilot,2023.2.2,MacIntel,60.24096386,613a8495a69273eee63740fe,65d6bb0e977760de756971f7,65d6bcf8977760de7569722e,0.0329,0.0329,0,7,7,14,1,fourtwo,,,,,,,,,,,,,,,,,,,,,,,,,,,,,,,,,,,,,,,,,,,,,,,,,,,,,,,,,,,,,,,,,,,,,,,,,,,,,,,,,,,,,,,,,,,,,,,,,,,,,,,,,,,,,,,,,,,,,,,,,,,,,,,,,,,,,,,,,
,,613a8495a69273eee63740fe,2024-02-21_21h18.45.007,kallum_motion_pilot,2023.2.2,MacIntel,60.24096386,613a8495a69273eee63740fe,65d6bb0e977760de756971f7,65d6bcf8977760de7569722e,0.033,0.0331,0,8,8,123,1,sixeight,,,,,,,,,,,,,,,,,,,,,,,,,,,,,,,,,,,,,,,,,,,,,,,,,,,,,,,,,,,,,,,,,,,,,,,,,,,,,,,,,,,,,,,,,,,,,,,,,,,,,,,,,,,,,,,,,,,,,,,,,,,,,,,,,,,,,,,,,
,,613a8495a69273eee63740fe,2024-02-21_21h18.45.007,kallum_motion_pilot,2023.2.2,MacIntel,60.24096386,613a8495a69273eee63740fe,65d6bb0e977760de756971f7,65d6bcf8977760de7569722e,0.0332,0.0332,0,9,9,57,1,onethree,,,,,,,,,,,,,,,,,,,,,,,,,,,,,,,,,,,,,,,,,,,,,,,,,,,,,,,,,,,,,,,,,,,,,,,,,,,,,,,,,,,,,,,,,,,,,,,,,,,,,,,,,,,,,,,,,,,,,,,,,,,,,,,,,,,,,,,,,
,,613a8495a69273eee63740fe,2024-02-21_21h18.45.007,kallum_motion_pilot,2023.2.2,MacIntel,60.24096386,613a8495a69273eee63740fe,65d6bb0e977760de756971f7,65d6bcf8977760de7569722e,0.0332,0.0332,0,10,10,102,1,eightsix,,,,,,,,,,,,,,,,,,,,,,,,,,,,,,,,,,,,,,,,,,,,,,,,,,,,,,,,,,,,,,,,,,,,,,,,,,,,,,,,,,,,,,,,,,,,,,,,,,,,,,,,,,,,,,,,,,,,,,,,,,,,,,,,,,,,,,,,,
,,613a8495a69273eee63740fe,2024-02-21_21h18.45.007,kallum_motion_pilot,2023.2.2,MacIntel,60.24096386,613a8495a69273eee63740fe,65d6bb0e977760de756971f7,65d6bcf8977760de7569722e,0.0333,0.0333,0,11,11,6,1,fourtwo,,,,,,,,,,,,,,,,,,,,,,,,,,,,,,,,,,,,,,,,,,,,,,,,,,,,,,,,,,,,,,,,,,,,,,,,,,,,,,,,,,,,,,,,,,,,,,,,,,,,,,,,,,,,,,,,,,,,,,,,,,,,,,,,,,,,,,,,,
,,613a8495a69273eee63740fe,2024-02-21_21h18.45.007,kallum_motion_pilot,2023.2.2,MacIntel,60.24096386,613a8495a69273eee63740fe,65d6bb0e977760de756971f7,65d6bcf8977760de7569722e,0.0334,0.0334,0,12,12,67,1,twofour,,,,,,,,,,,,,,,,,,,,,,,,,,,,,,,,,,,,,,,,,,,,,,,,,,,,,,,,,,,,,,,,,,,,,,,,,,,,,,,,,,,,,,,,,,,,,,,,,,,,,,,,,,,,,,,,,,,,,,,,,,,,,,,,,,,,,,,,,
,,613a8495a69273eee63740fe,2024-02-21_21h18.45.007,kallum_motion_pilot,2023.2.2,MacIntel,60.24096386,613a8495a69273eee63740fe,65d6bb0e977760de756971f7,65d6bcf8977760de7569722e,0.0334,0.0334,0,13,13,33,1,onethree,,,,,,,,,,,,,,,,,,,,,,,,,,,,,,,,,,,,,,,,,,,,,,,,,,,,,,,,,,,,,,,,,,,,,,,,,,,,,,,,,,,,,,,,,,,,,,,,,,,,,,,,,,,,,,,,,,,,,,,,,,,,,,,,,,,,,,,,,
,,613a8495a69273eee63740fe,2024-02-21_21h18.45.007,kallum_motion_pilot,2023.2.2,MacIntel,60.24096386,613a8495a69273eee63740fe,65d6bb0e977760de756971f7,65d6bcf8977760de7569722e,0.0335,0.0335,0,14,14,32,1,onetwo,,,,,,,,,,,,,,,,,,,,,,,,,,,,,,,,,,,,,,,,,,,,,,,,,,,,,,,,,,,,,,,,,,,,,,,,,,,,,,,,,,,,,,,,,,,,,,,,,,,,,,,,,,,,,,,,,,,,,,,,,,,,,,,,,,,,,,,,,
,,613a8495a69273eee63740fe,2024-02-21_21h18.45.007,kallum_motion_pilot,2023.2.2,MacIntel,60.24096386,613a8495a69273eee63740fe,65d6bb0e977760de756971f7,65d6bcf8977760de7569722e,0.0337,0.0337,0,15,15,16,1,onetwo,,,,,,,,,,,,,,,,,,,,,,,,,,,,,,,,,,,,,,,,,,,,,,,,,,,,,,,,,,,,,,,,,,,,,,,,,,,,,,,,,,,,,,,,,,,,,,,,,,,,,,,,,,,,,,,,,,,,,,,,,,,,,,,,,,,,,,,,,
,,613a8495a69273eee63740fe,2024-02-21_21h18.45.007,kallum_motion_pilot,2023.2.2,MacIntel,60.24096386,613a8495a69273eee63740fe,65d6bb0e977760de756971f7,65d6bcf8977760de7569722e,0.0337,0.0337,0,16,16,99,1,sixeight,,,,,,,,,,,,,,,,,,,,,,,,,,,,,,,,,,,,,,,,,,,,,,,,,,,,,,,,,,,,,,,,,,,,,,,,,,,,,,,,,,,,,,,,,,,,,,,,,,,,,,,,,,,,,,,,,,,,,,,,,,,,,,,,,,,,,,,,,
,,613a8495a69273eee63740fe,2024-02-21_21h18.45.007,kallum_motion_pilot,2023.2.2,MacIntel,60.24096386,613a8495a69273eee63740fe,65d6bb0e977760de756971f7,65d6bcf8977760de7569722e,0.0338,0.0338,0,17,17,145,1,fiveseven,,,,,,,,,,,,,,,,,,,,,,,,,,,,,,,,,,,,,,,,,,,,,,,,,,,,,,,,,,,,,,,,,,,,,,,,,,,,,,,,,,,,,,,,,,,,,,,,,,,,,,,,,,,,,,,,,,,,,,,,,,,,,,,,,,,,,,,,,
,,613a8495a69273eee63740fe,2024-02-21_21h18.45.007,kallum_motion_pilot,2023.2.2,MacIntel,60.24096386,613a8495a69273eee63740fe,65d6bb0e977760de756971f7,65d6bcf8977760de7569722e,0.0338,0.0338,0,18,18,152,1,fivesix,,,,,,,,,,,,,,,,,,,,,,,,,,,,,,,,,,,,,,,,,,,,,,,,,,,,,,,,,,,,,,,,,,,,,,,,,,,,,,,,,,,,,,,,,,,,,,,,,,,,,,,,,,,,,,,,,,,,,,,,,,,,,,,,,,,,,,,,,
,,613a8495a69273eee63740fe,2024-02-21_21h18.45.007,kallum_motion_pilot,2023.2.2,MacIntel,60.24096386,613a8495a69273eee63740fe,65d6bb0e977760de756971f7,65d6bcf8977760de7569722e,0.0339,0.0339,0,19,19,111,1,eightseven,,,,,,,,,,,,,,,,,,,,,,,,,,,,,,,,,,,,,,,,,,,,,,,,,,,,,,,,,,,,,,,,,,,,,,,,,,,,,,,,,,,,,,,,,,,,,,,,,,,,,,,,,,,,,,,,,,,,,,,,,,,,,,,,,,,,,,,,,
,,613a8495a69273eee63740fe,2024-02-21_21h18.45.007,kallum_motion_pilot,2023.2.2,MacIntel,60.24096386,613a8495a69273eee63740fe,65d6bb0e977760de756971f7,65d6bcf8977760de7569722e,0.034,0.034,0,20,20,28,1,threeone,,,,,,,,,,,,,,,,,,,,,,,,,,,,,,,,,,,,,,,,,,,,,,,,,,,,,,,,,,,,,,,,,,,,,,,,,,,,,,,,,,,,,,,,,,,,,,,,,,,,,,,,,,,,,,,,,,,,,,,,,,,,,,,,,,,,,,,,,
,,613a8495a69273eee63740fe,2024-02-21_21h18.45.007,kallum_motion_pilot,2023.2.2,MacIntel,60.24096386,613a8495a69273eee63740fe,65d6bb0e977760de756971f7,65d6bcf8977760de7569722e,0.0341,0.0341,0,21,21,27,1,twofour,,,,,,,,,,,,,,,,,,,,,,,,,,,,,,,,,,,,,,,,,,,,,,,,,,,,,,,,,,,,,,,,,,,,,,,,,,,,,,,,,,,,,,,,,,,,,,,,,,,,,,,,,,,,,,,,,,,,,,,,,,,,,,,,,,,,,,,,,
,,613a8495a69273eee63740fe,2024-02-21_21h18.45.007,kallum_motion_pilot,2023.2.2,MacIntel,60.24096386,613a8495a69273eee63740fe,65d6bb0e977760de756971f7,65d6bcf8977760de7569722e,0.0341,0.0341,0,22,22,160,1,fivesix,,,,,,,,,,,,,,,,,,,,,,,,,,,,,,,,,,,,,,,,,,,,,,,,,,,,,,,,,,,,,,,,,,,,,,,,,,,,,,,,,,,,,,,,,,,,,,,,,,,,,,,,,,,,,,,,,,,,,,,,,,,,,,,,,,,,,,,,,
,,613a8495a69273eee63740fe,2024-02-21_21h18.45.007,kallum_motion_pilot,2023.2.2,MacIntel,60.24096386,613a8495a69273eee63740fe,65d6bb0e977760de756971f7,65d6bcf8977760de7569722e,0.0342,0.0342,0,23,23,65,1,onethree,,,,,,,,,,,,,,,,,,,,,,,,,,,,,,,,,,,,,,,,,,,,,,,,,,,,,,,,,,,,,,,,,,,,,,,,,,,,,,,,,,,,,,,,,,,,,,,,,,,,,,,,,,,,,,,,,,,,,,,,,,,,,,,,,,,,,,,,,
,,613a8495a69273eee63740fe,2024-02-21_21h18.45.007,kallum_motion_pilot,2023.2.2,MacIntel,60.24096386,613a8495a69273eee63740fe,65d6bb0e977760de756971f7,65d6bcf8977760de7569722e,0.0343,0.0343,0,24,24,76,1,threeone,,,,,,,,,,,,,,,,,,,,,,,,,,,,,,,,,,,,,,,,,,,,,,,,,,,,,,,,,,,,,,,,,,,,,,,,,,,,,,,,,,,,,,,,,,,,,,,,,,,,,,,,,,,,,,,,,,,,,,,,,,,,,,,,,,,,,,,,,
,,613a8495a69273eee63740fe,2024-02-21_21h18.45.007,kallum_motion_pilot,2023.2.2,MacIntel,60.24096386,613a8495a69273eee63740fe,65d6bb0e977760de756971f7,65d6bcf8977760de7569722e,0.0344,0.0344,0,25,25,134,1,eightsix,,,,,,,,,,,,,,,,,,,,,,,,,,,,,,,,,,,,,,,,,,,,,,,,,,,,,,,,,,,,,,,,,,,,,,,,,,,,,,,,,,,,,,,,,,,,,,,,,,,,,,,,,,,,,,,,,,,,,,,,,,,,,,,,,,,,,,,,,
,,613a8495a69273eee63740fe,2024-02-21_21h18.45.007,kallum_motion_pilot,2023.2.2,MacIntel,60.24096386,613a8495a69273eee63740fe,65d6bb0e977760de756971f7,65d6bcf8977760de7569722e,0.0345,0.0345,0,26,26,136,1,fivesix,,,,,,,,,,,,,,,,,,,,,,,,,,,,,,,,,,,,,,,,,,,,,,,,,,,,,,,,,,,,,,,,,,,,,,,,,,,,,,,,,,,,,,,,,,,,,,,,,,,,,,,,,,,,,,,,,,,,,,,,,,,,,,,,,,,,,,,,,
,,613a8495a69273eee63740fe,2024-02-21_21h18.45.007,kallum_motion_pilot,2023.2.2,MacIntel,60.24096386,613a8495a69273eee63740fe,65d6bb0e977760de756971f7,65d6bcf8977760de7569722e,0.0345,0.0346,0,27,27,55,1,fourthree,,,,,,,,,,,,,,,,,,,,,,,,,,,,,,,,,,,,,,,,,,,,,,,,,,,,,,,,,,,,,,,,,,,,,,,,,,,,,,,,,,,,,,,,,,,,,,,,,,,,,,,,,,,,,,,,,,,,,,,,,,,,,,,,,,,,,,,,,
,,613a8495a69273eee63740fe,2024-02-21_21h18.45.007,kallum_motion_pilot,2023.2.2,MacIntel,60.24096386,613a8495a69273eee63740fe,65d6bb0e977760de756971f7,65d6bcf8977760de7569722e,0.0348,0.0348,0,28,28,50,1,twoone,,,,,,,,,,,,,,,,,,,,,,,,,,,,,,,,,,,,,,,,,,,,,,,,,,,,,,,,,,,,,,,,,,,,,,,,,,,,,,,,,,,,,,,,,,,,,,,,,,,,,,,,,,,,,,,,,,,,,,,,,,,,,,,,,,,,,,,,,
,,613a8495a69273eee63740fe,2024-02-21_21h18.45.007,kallum_motion_pilot,2023.2.2,MacIntel,60.24096386,613a8495a69273eee63740fe,65d6bb0e977760de756971f7,65d6bcf8977760de7569722e,0.0349,0.0349,0,29,29,49,1,onethree,,,,,,,,,,,,,,,,,,,,,,,,,,,,,,,,,,,,,,,,,,,,,,,,,,,,,,,,,,,,,,,,,,,,,,,,,,,,,,,,,,,,,,,,,,,,,,,,,,,,,,,,,,,,,,,,,,,,,,,,,,,,,,,,,,,,,,,,,
,,613a8495a69273eee63740fe,2024-02-21_21h18.45.007,kallum_motion_pilot,2023.2.2,MacIntel,60.24096386,613a8495a69273eee63740fe,65d6bb0e977760de756971f7,65d6bcf8977760de7569722e,0.035,0.0351,0,30,30,118,1,eightsix,,,,,,,,,,,,,,,,,,,,,,,,,,,,,,,,,,,,,,,,,,,,,,,,,,,,,,,,,,,,,,,,,,,,,,,,,,,,,,,,,,,,,,,,,,,,,,,,,,,,,,,,,,,,,,,,,,,,,,,,,,,,,,,,,,,,,,,,,
,,613a8495a69273eee63740fe,2024-02-21_21h18.45.007,kallum_motion_pilot,2023.2.2,MacIntel,60.24096386,613a8495a69273eee63740fe,65d6bb0e977760de756971f7,65d6bcf8977760de7569722e,0.0351,0.0351,0,31,31,161,1,fiveseven,,,,,,,,,,,,,,,,,,,,,,,,,,,,,,,,,,,,,,,,,,,,,,,,,,,,,,,,,,,,,,,,,,,,,,,,,,,,,,,,,,,,,,,,,,,,,,,,,,,,,,,,,,,,,,,,,,,,,,,,,,,,,,,,,,,,,,,,,
,,613a8495a69273eee63740fe,2024-02-21_21h18.45.007,kallum_motion_pilot,2023.2.2,MacIntel,60.24096386,613a8495a69273eee63740fe,65d6bb0e977760de756971f7,65d6bcf8977760de7569722e,0.0352,0.0352,0,32,32,17,1,onethree,,,,,,,,,,,,,,,,,,,,,,,,,,,,,,,,,,,,,,,,,,,,,,,,,,,,,,,,,,,,,,,,,,,,,,,,,,,,,,,,,,,,,,,,,,,,,,,,,,,,,,,,,,,,,,,,,,,,,,,,,,,,,,,,,,,,,,,,,
,,613a8495a69273eee63740fe,2024-02-21_21h18.45.007,kallum_motion_pilot,2023.2.2,MacIntel,60.24096386,613a8495a69273eee63740fe,65d6bb0e977760de756971f7,65d6bcf8977760de7569722e,0.0353,0.0354,0,33,33,53,1,threefour,,,,,,,,,,,,,,,,,,,,,,,,,,,,,,,,,,,,,,,,,,,,,,,,,,,,,,,,,,,,,,,,,,,,,,,,,,,,,,,,,,,,,,,,,,,,,,,,,,,,,,,,,,,,,,,,,,,,,,,,,,,,,,,,,,,,,,,,,
,,613a8495a69273eee63740fe,2024-02-21_21h18.45.007,kallum_motion_pilot,2023.2.2,MacIntel,60.24096386,613a8495a69273eee63740fe,65d6bb0e977760de756971f7,65d6bcf8977760de7569722e,0.0354,0.0355,0,34,34,0,1,onetwo,,,,,,,,,,,,,,,,,,,,,,,,,,,,,,,,,,,,,,,,,,,,,,,,,,,,,,,,,,,,,,,,,,,,,,,,,,,,,,,,,,,,,,,,,,,,,,,,,,,,,,,,,,,,,,,,,,,,,,,,,,,,,,,,,,,,,,,,,
,,613a8495a69273eee63740fe,2024-02-21_21h18.45.007,kallum_motion_pilot,2023.2.2,MacIntel,60.24096386,613a8495a69273eee63740fe,65d6bb0e977760de756971f7,65d6bcf8977760de7569722e,0.0355,0.0355,0,35,35,89,1,fiveseven,,,,,,,,,,,,,,,,,,,,,,,,,,,,,,,,,,,,,,,,,,,,,,,,,,,,,,,,,,,,,,,,,,,,,,,,,,,,,,,,,,,,,,,,,,,,,,,,,,,,,,,,,,,,,,,,,,,,,,,,,,,,,,,,,,,,,,,,,
,,613a8495a69273eee63740fe,2024-02-21_21h18.45.007,kallum_motion_pilot,2023.2.2,MacIntel,60.24096386,613a8495a69273eee63740fe,65d6bb0e977760de756971f7,65d6bcf8977760de7569722e,0.0356,0.0356,0,36,36,105,1,fiveseven,,,,,,,,,,,,,,,,,,,,,,,,,,,,,,,,,,,,,,,,,,,,,,,,,,,,,,,,,,,,,,,,,,,,,,,,,,,,,,,,,,,,,,,,,,,,,,,,,,,,,,,,,,,,,,,,,,,,,,,,,,,,,,,,,,,,,,,,,
,,613a8495a69273eee63740fe,2024-02-21_21h18.45.007,kallum_motion_pilot,2023.2.2,MacIntel,60.24096386,613a8495a69273eee63740fe,65d6bb0e977760de756971f7,65d6bcf8977760de7569722e,0.0356,0.0357,0,37,37,143,1,eightseven,,,,,,,,,,,,,,,,,,,,,,,,,,,,,,,,,,,,,,,,,,,,,,,,,,,,,,,,,,,,,,,,,,,,,,,,,,,,,,,,,,,,,,,,,,,,,,,,,,,,,,,,,,,,,,,,,,,,,,,,,,,,,,,,,,,,,,,,,
,,613a8495a69273eee63740fe,2024-02-21_21h18.45.007,kallum_motion_pilot,2023.2.2,MacIntel,60.24096386,613a8495a69273eee63740fe,65d6bb0e977760de756971f7,65d6bcf8977760de7569722e,0.0357,0.0357,0,38,38,3,1,twofour,,,,,,,,,,,,,,,,,,,,,,,,,,,,,,,,,,,,,,,,,,,,,,,,,,,,,,,,,,,,,,,,,,,,,,,,,,,,,,,,,,,,,,,,,,,,,,,,,,,,,,,,,,,,,,,,,,,,,,,,,,,,,,,,,,,,,,,,,
,,613a8495a69273eee63740fe,2024-02-21_21h18.45.007,kallum_motion_pilot,2023.2.2,MacIntel,60.24096386,613a8495a69273eee63740fe,65d6bb0e977760de756971f7,65d6bcf8977760de7569722e,0.0358,0.0358,0,39,39,120,1,fivesix,,,,,,,,,,,,,,,,,,,,,,,,,,,,,,,,,,,,,,,,,,,,,,,,,,,,,,,,,,,,,,,,,,,,,,,,,,,,,,,,,,,,,,,,,,,,,,,,,,,,,,,,,,,,,,,,,,,,,,,,,,,,,,,,,,,,,,,,,
,,613a8495a69273eee63740fe,2024-02-21_21h18.45.007,kallum_motion_pilot,2023.2.2,MacIntel,60.24096386,613a8495a69273eee63740fe,65d6bb0e977760de756971f7,65d6bcf8977760de7569722e,0.036,0.036,0,40,40,59,1,twofour,,,,,,,,,,,,,,,,,,,,,,,,,,,,,,,,,,,,,,,,,,,,,,,,,,,,,,,,,,,,,,,,,,,,,,,,,,,,,,,,,,,,,,,,,,,,,,,,,,,,,,,,,,,,,,,,,,,,,,,,,,,,,,,,,,,,,,,,,
,,613a8495a69273eee63740fe,2024-02-21_21h18.45.007,kallum_motion_pilot,2023.2.2,MacIntel,60.24096386,613a8495a69273eee63740fe,65d6bb0e977760de756971f7,65d6bcf8977760de7569722e,0.036,0.0361,0,41,41,150,1,eightsix,,,,,,,,,,,,,,,,,,,,,,,,,,,,,,,,,,,,,,,,,,,,,,,,,,,,,,,,,,,,,,,,,,,,,,,,,,,,,,,,,,,,,,,,,,,,,,,,,,,,,,,,,,,,,,,,,,,,,,,,,,,,,,,,,,,,,,,,,
,,613a8495a69273eee63740fe,2024-02-21_21h18.45.007,kallum_motion_pilot,2023.2.2,MacIntel,60.24096386,613a8495a69273eee63740fe,65d6bb0e977760de756971f7,65d6bcf8977760de7569722e,0.0362,0.0362,0,42,42,13,1,threefour,,,,,,,,,,,,,,,,,,,,,,,,,,,,,,,,,,,,,,,,,,,,,,,,,,,,,,,,,,,,,,,,,,,,,,,,,,,,,,,,,,,,,,,,,,,,,,,,,,,,,,,,,,,,,,,,,,,,,,,,,,,,,,,,,,,,,,,,,
,,613a8495a69273eee63740fe,2024-02-21_21h18.45.007,kallum_motion_pilot,2023.2.2,MacIntel,60.24096386,613a8495a69273eee63740fe,65d6bb0e977760de756971f7,65d6bcf8977760de7569722e,0.0362,0.0363,0,43,43,83,1,sixeight,,,,,,,,,,,,,,,,,,,,,,,,,,,,,,,,,,,,,,,,,,,,,,,,,,,,,,,,,,,,,,,,,,,,,,,,,,,,,,,,,,,,,,,,,,,,,,,,,,,,,,,,,,,,,,,,,,,,,,,,,,,,,,,,,,,,,,,,,
,,613a8495a69273eee63740fe,2024-02-21_21h18.45.007,kallum_motion_pilot,2023.2.2,MacIntel,60.24096386,613a8495a69273eee63740fe,65d6bb0e977760de756971f7,65d6bcf8977760de7569722e,0.0363,0.0364,0,44,44,48,1,onetwo,,,,,,,,,,,,,,,,,,,,,,,,,,,,,,,,,,,,,,,,,,,,,,,,,,,,,,,,,,,,,,,,,,,,,,,,,,,,,,,,,,,,,,,,,,,,,,,,,,,,,,,,,,,,,,,,,,,,,,,,,,,,,,,,,,,,,,,,,
,,613a8495a69273eee63740fe,2024-02-21_21h18.45.007,kallum_motion_pilot,2023.2.2,MacIntel,60.24096386,613a8495a69273eee63740fe,65d6bb0e977760de756971f7,65d6bcf8977760de7569722e,0.0365,0.0365,0,45,45,82,1,sixfive,,,,,,,,,,,,,,,,,,,,,,,,,,,,,,,,,,,,,,,,,,,,,,,,,,,,,,,,,,,,,,,,,,,,,,,,,,,,,,,,,,,,,,,,,,,,,,,,,,,,,,,,,,,,,,,,,,,,,,,,,,,,,,,,,,,,,,,,,
,,613a8495a69273eee63740fe,2024-02-21_21h18.45.007,kallum_motion_pilot,2023.2.2,MacIntel,60.24096386,613a8495a69273eee63740fe,65d6bb0e977760de756971f7,65d6bcf8977760de7569722e,0.0365,0.0365,0,46,46,26,1,twoone,,,,,,,,,,,,,,,,,,,,,,,,,,,,,,,,,,,,,,,,,,,,,,,,,,,,,,,,,,,,,,,,,,,,,,,,,,,,,,,,,,,,,,,,,,,,,,,,,,,,,,,,,,,,,,,,,,,,,,,,,,,,,,,,,,,,,,,,,
,,613a8495a69273eee63740fe,2024-02-21_21h18.45.007,kallum_motion_pilot,2023.2.2,MacIntel,60.24096386,613a8495a69273eee63740fe,65d6bb0e977760de756971f7,65d6bcf8977760de7569722e,0.0366,0.0366,0,47,47,144,1,fivesix,,,,,,,,,,,,,,,,,,,,,,,,,,,,,,,,,,,,,,,,,,,,,,,,,,,,,,,,,,,,,,,,,,,,,,,,,,,,,,,,,,,,,,,,,,,,,,,,,,,,,,,,,,,,,,,,,,,,,,,,,,,,,,,,,,,,,,,,,
,,613a8495a69273eee63740fe,2024-02-21_21h18.45.007,kallum_motion_pilot,2023.2.2,MacIntel,60.24096386,613a8495a69273eee63740fe,65d6bb0e977760de756971f7,65d6bcf8977760de7569722e,0.0367,0.0367,0,48,48,137,1,fiveseven,,,,,,,,,,,,,,,,,,,,,,,,,,,,,,,,,,,,,,,,,,,,,,,,,,,,,,,,,,,,,,,,,,,,,,,,,,,,,,,,,,,,,,,,,,,,,,,,,,,,,,,,,,,,,,,,,,,,,,,,,,,,,,,,,,,,,,,,,
,,613a8495a69273eee63740fe,2024-02-21_21h18.45.007,kallum_motion_pilot,2023.2.2,MacIntel,60.24096386,613a8495a69273eee63740fe,65d6bb0e977760de756971f7,65d6bcf8977760de7569722e,0.0368,0.0368,0,49,49,21,1,threefour,,,,,,,,,,,,,,,,,,,,,,,,,,,,,,,,,,,,,,,,,,,,,,,,,,,,,,,,,,,,,,,,,,,,,,,,,,,,,,,,,,,,,,,,,,,,,,,,,,,,,,,,,,,,,,,,,,,,,,,,,,,,,,,,,,,,,,,,,
,,613a8495a69273eee63740fe,2024-02-21_21h18.45.007,kallum_motion_pilot,2023.2.2,MacIntel,60.24096386,613a8495a69273eee63740fe,65d6bb0e977760de756971f7,65d6bcf8977760de7569722e,0.0369,0.0369,0,50,50,39,1,fourthree,,,,,,,,,,,,,,,,,,,,,,,,,,,,,,,,,,,,,,,,,,,,,,,,,,,,,,,,,,,,,,,,,,,,,,,,,,,,,,,,,,,,,,,,,,,,,,,,,,,,,,,,,,,,,,,,,,,,,,,,,,,,,,,,,,,,,,,,,
,,613a8495a69273eee63740fe,2024-02-21_21h18.45.007,kallum_motion_pilot,2023.2.2,MacIntel,60.24096386,613a8495a69273eee63740fe,65d6bb0e977760de756971f7,65d6bcf8977760de7569722e,0.037,0.037,0,51,51,72,1,onetwo,,,,,,,,,,,,,,,,,,,,,,,,,,,,,,,,,,,,,,,,,,,,,,,,,,,,,,,,,,,,,,,,,,,,,,,,,,,,,,,,,,,,,,,,,,,,,,,,,,,,,,,,,,,,,,,,,,,,,,,,,,,,,,,,,,,,,,,,,
,,613a8495a69273eee63740fe,2024-02-21_21h18.45.007,kallum_motion_pilot,2023.2.2,MacIntel,60.24096386,613a8495a69273eee63740fe,65d6bb0e977760de756971f7,65d6bcf8977760de7569722e,0.037,0.037,0,52,52,2,1,twoone,,,,,,,,,,,,,,,,,,,,,,,,,,,,,,,,,,,,,,,,,,,,,,,,,,,,,,,,,,,,,,,,,,,,,,,,,,,,,,,,,,,,,,,,,,,,,,,,,,,,,,,,,,,,,,,,,,,,,,,,,,,,,,,,,,,,,,,,,
,,613a8495a69273eee63740fe,2024-02-21_21h18.45.007,kallum_motion_pilot,2023.2.2,MacIntel,60.24096386,613a8495a69273eee63740fe,65d6bb0e977760de756971f7,65d6bcf8977760de7569722e,0.0371,0.0371,0,53,53,157,1,seveneight,,,,,,,,,,,,,,,,,,,,,,,,,,,,,,,,,,,,,,,,,,,,,,,,,,,,,,,,,,,,,,,,,,,,,,,,,,,,,,,,,,,,,,,,,,,,,,,,,,,,,,,,,,,,,,,,,,,,,,,,,,,,,,,,,,,,,,,,,
,,613a8495a69273eee63740fe,2024-02-21_21h18.45.007,kallum_motion_pilot,2023.2.2,MacIntel,60.24096386,613a8495a69273eee63740fe,65d6bb0e977760de756971f7,65d6bcf8977760de7569722e,0.0372,0.0372,0,54,54,142,1,eightsix,,,,,,,,,,,,,,,,,,,,,,,,,,,,,,,,,,,,,,,,,,,,,,,,,,,,,,,,,,,,,,,,,,,,,,,,,,,,,,,,,,,,,,,,,,,,,,,,,,,,,,,,,,,,,,,,,,,,,,,,,,,,,,,,,,,,,,,,,
,,613a8495a69273eee63740fe,2024-02-21_21h18.45.007,kallum_motion_pilot,2023.2.2,MacIntel,60.24096386,613a8495a69273eee63740fe,65d6bb0e977760de756971f7,65d6bcf8977760de7569722e,0.0373,0.0374,0,55,55,69,1,threefour,,,,,,,,,,,,,,,,,,,,,,,,,,,,,,,,,,,,,,,,,,,,,,,,,,,,,,,,,,,,,,,,,,,,,,,,,,,,,,,,,,,,,,,,,,,,,,,,,,,,,,,,,,,,,,,,,,,,,,,,,,,,,,,,,,,,,,,,,
,,613a8495a69273eee63740fe,2024-02-21_21h18.45.007,kallum_motion_pilot,2023.2.2,MacIntel,60.24096386,613a8495a69273eee63740fe,65d6bb0e977760de756971f7,65d6bcf8977760de7569722e,0.0374,0.0374,0,56,56,34,1,twoone,,,,,,,,,,,,,,,,,,,,,,,,,,,,,,,,,,,,,,,,,,,,,,,,,,,,,,,,,,,,,,,,,,,,,,,,,,,,,,,,,,,,,,,,,,,,,,,,,,,,,,,,,,,,,,,,,,,,,,,,,,,,,,,,,,,,,,,,,
,,613a8495a69273eee63740fe,2024-02-21_21h18.45.007,kallum_motion_pilot,2023.2.2,MacIntel,60.24096386,613a8495a69273eee63740fe,65d6bb0e977760de756971f7,65d6bcf8977760de7569722e,0.0374,0.0375,0,57,57,90,1,sixfive,,,,,,,,,,,,,,,,,,,,,,,,,,,,,,,,,,,,,,,,,,,,,,,,,,,,,,,,,,,,,,,,,,,,,,,,,,,,,,,,,,,,,,,,,,,,,,,,,,,,,,,,,,,,,,,,,,,,,,,,,,,,,,,,,,,,,,,,,
,,613a8495a69273eee63740fe,2024-02-21_21h18.45.007,kallum_motion_pilot,2023.2.2,MacIntel,60.24096386,613a8495a69273eee63740fe,65d6bb0e977760de756971f7,65d6bcf8977760de7569722e,0.0376,0.0376,0,58,58,127,1,eightseven,,,,,,,,,,,,,,,,,,,,,,,,,,,,,,,,,,,,,,,,,,,,,,,,,,,,,,,,,,,,,,,,,,,,,,,,,,,,,,,,,,,,,,,,,,,,,,,,,,,,,,,,,,,,,,,,,,,,,,,,,,,,,,,,,,,,,,,,,
,,613a8495a69273eee63740fe,2024-02-21_21h18.45.007,kallum_motion_pilot,2023.2.2,MacIntel,60.24096386,613a8495a69273eee63740fe,65d6bb0e977760de756971f7,65d6bcf8977760de7569722e,0.0377,0.0377,0,59,59,112,1,fivesix,,,,,,,,,,,,,,,,,,,,,,,,,,,,,,,,,,,,,,,,,,,,,,,,,,,,,,,,,,,,,,,,,,,,,,,,,,,,,,,,,,,,,,,,,,,,,,,,,,,,,,,,,,,,,,,,,,,,,,,,,,,,,,,,,,,,,,,,,
,,613a8495a69273eee63740fe,2024-02-21_21h18.45.007,kallum_motion_pilot,2023.2.2,MacIntel,60.24096386,613a8495a69273eee63740fe,65d6bb0e977760de756971f7,65d6bcf8977760de7569722e,0.0377,0.0377,0,60,60,132,1,sevenfive,,,,,,,,,,,,,,,,,,,,,,,,,,,,,,,,,,,,,,,,,,,,,,,,,,,,,,,,,,,,,,,,,,,,,,,,,,,,,,,,,,,,,,,,,,,,,,,,,,,,,,,,,,,,,,,,,,,,,,,,,,,,,,,,,,,,,,,,,
,,613a8495a69273eee63740fe,2024-02-21_21h18.45.007,kallum_motion_pilot,2023.2.2,MacIntel,60.24096386,613a8495a69273eee63740fe,65d6bb0e977760de756971f7,65d6bcf8977760de7569722e,0.0378,0.0379,0,61,61,155,1,sixeight,,,,,,,,,,,,,,,,,,,,,,,,,,,,,,,,,,,,,,,,,,,,,,,,,,,,,,,,,,,,,,,,,,,,,,,,,,,,,,,,,,,,,,,,,,,,,,,,,,,,,,,,,,,,,,,,,,,,,,,,,,,,,,,,,,,,,,,,,
,,613a8495a69273eee63740fe,2024-02-21_21h18.45.007,kallum_motion_pilot,2023.2.2,MacIntel,60.24096386,613a8495a69273eee63740fe,65d6bb0e977760de756971f7,65d6bcf8977760de7569722e,0.0379,0.038,0,62,62,62,1,fourtwo,,,,,,,,,,,,,,,,,,,,,,,,,,,,,,,,,,,,,,,,,,,,,,,,,,,,,,,,,,,,,,,,,,,,,,,,,,,,,,,,,,,,,,,,,,,,,,,,,,,,,,,,,,,,,,,,,,,,,,,,,,,,,,,,,,,,,,,,,
,,613a8495a69273eee63740fe,2024-02-21_21h18.45.007,kallum_motion_pilot,2023.2.2,MacIntel,60.24096386,613a8495a69273eee63740fe,65d6bb0e977760de756971f7,65d6bcf8977760de7569722e,0.038,0.0381,0,63,63,126,1,eightsix,,,,,,,,,,,,,,,,,,,,,,,,,,,,,,,,,,,,,,,,,,,,,,,,,,,,,,,,,,,,,,,,,,,,,,,,,,,,,,,,,,,,,,,,,,,,,,,,,,,,,,,,,,,,,,,,,,,,,,,,,,,,,,,,,,,,,,,,,
,,613a8495a69273eee63740fe,2024-02-21_21h18.45.007,kallum_motion_pilot,2023.2.2,MacIntel,60.24096386,613a8495a69273eee63740fe,65d6bb0e977760de756971f7,65d6bcf8977760de7569722e,0.0381,0.0381,0,64,64,140,1,sevenfive,,,,,,,,,,,,,,,,,,,,,,,,,,,,,,,,,,,,,,,,,,,,,,,,,,,,,,,,,,,,,,,,,,,,,,,,,,,,,,,,,,,,,,,,,,,,,,,,,,,,,,,,,,,,,,,,,,,,,,,,,,,,,,,,,,,,,,,,,
,,613a8495a69273eee63740fe,2024-02-21_21h18.45.007,kallum_motion_pilot,2023.2.2,MacIntel,60.24096386,613a8495a69273eee63740fe,65d6bb0e977760de756971f7,65d6bcf8977760de7569722e,0.0382,0.0382,0,65,65,94,1,eightsix,,,,,,,,,,,,,,,,,,,,,,,,,,,,,,,,,,,,,,,,,,,,,,,,,,,,,,,,,,,,,,,,,,,,,,,,,,,,,,,,,,,,,,,,,,,,,,,,,,,,,,,,,,,,,,,,,,,,,,,,,,,,,,,,,,,,,,,,,
,,613a8495a69273eee63740fe,2024-02-21_21h18.45.007,kallum_motion_pilot,2023.2.2,MacIntel,60.24096386,613a8495a69273eee63740fe,65d6bb0e977760de756971f7,65d6bcf8977760de7569722e,0.0383,0.0383,0,66,66,103,1,eightseven,,,,,,,,,,,,,,,,,,,,,,,,,,,,,,,,,,,,,,,,,,,,,,,,,,,,,,,,,,,,,,,,,,,,,,,,,,,,,,,,,,,,,,,,,,,,,,,,,,,,,,,,,,,,,,,,,,,,,,,,,,,,,,,,,,,,,,,,,
,,613a8495a69273eee63740fe,2024-02-21_21h18.45.007,kallum_motion_pilot,2023.2.2,MacIntel,60.24096386,613a8495a69273eee63740fe,65d6bb0e977760de756971f7,65d6bcf8977760de7569722e,0.0384,0.0384,0,67,67,79,1,eightseven,,,,,,,,,,,,,,,,,,,,,,,,,,,,,,,,,,,,,,,,,,,,,,,,,,,,,,,,,,,,,,,,,,,,,,,,,,,,,,,,,,,,,,,,,,,,,,,,,,,,,,,,,,,,,,,,,,,,,,,,,,,,,,,,,,,,,,,,,
,,613a8495a69273eee63740fe,2024-02-21_21h18.45.007,kallum_motion_pilot,2023.2.2,MacIntel,60.24096386,613a8495a69273eee63740fe,65d6bb0e977760de756971f7,65d6bcf8977760de7569722e,0.0385,0.0385,0,68,68,108,1,sevenfive,,,,,,,,,,,,,,,,,,,,,,,,,,,,,,,,,,,,,,,,,,,,,,,,,,,,,,,,,,,,,,,,,,,,,,,,,,,,,,,,,,,,,,,,,,,,,,,,,,,,,,,,,,,,,,,,,,,,,,,,,,,,,,,,,,,,,,,,,
,,613a8495a69273eee63740fe,2024-02-21_21h18.45.007,kallum_motion_pilot,2023.2.2,MacIntel,60.24096386,613a8495a69273eee63740fe,65d6bb0e977760de756971f7,65d6bcf8977760de7569722e,0.0386,0.0386,0,69,69,158,1,eightsix,,,,,,,,,,,,,,,,,,,,,,,,,,,,,,,,,,,,,,,,,,,,,,,,,,,,,,,,,,,,,,,,,,,,,,,,,,,,,,,,,,,,,,,,,,,,,,,,,,,,,,,,,,,,,,,,,,,,,,,,,,,,,,,,,,,,,,,,,
,,613a8495a69273eee63740fe,2024-02-21_21h18.45.007,kallum_motion_pilot,2023.2.2,MacIntel,60.24096386,613a8495a69273eee63740fe,65d6bb0e977760de756971f7,65d6bcf8977760de7569722e,0.0387,0.0387,0,70,70,110,1,eightsix,,,,,,,,,,,,,,,,,,,,,,,,,,,,,,,,,,,,,,,,,,,,,,,,,,,,,,,,,,,,,,,,,,,,,,,,,,,,,,,,,,,,,,,,,,,,,,,,,,,,,,,,,,,,,,,,,,,,,,,,,,,,,,,,,,,,,,,,,
,,613a8495a69273eee63740fe,2024-02-21_21h18.45.007,kallum_motion_pilot,2023.2.2,MacIntel,60.24096386,613a8495a69273eee63740fe,65d6bb0e977760de756971f7,65d6bcf8977760de7569722e,0.0387,0.0388,0,71,71,151,1,eightseven,,,,,,,,,,,,,,,,,,,,,,,,,,,,,,,,,,,,,,,,,,,,,,,,,,,,,,,,,,,,,,,,,,,,,,,,,,,,,,,,,,,,,,,,,,,,,,,,,,,,,,,,,,,,,,,,,,,,,,,,,,,,,,,,,,,,,,,,,
,,613a8495a69273eee63740fe,2024-02-21_21h18.45.007,kallum_motion_pilot,2023.2.2,MacIntel,60.24096386,613a8495a69273eee63740fe,65d6bb0e977760de756971f7,65d6bcf8977760de7569722e,0.0388,0.0388,0,72,72,11,1,twofour,,,,,,,,,,,,,,,,,,,,,,,,,,,,,,,,,,,,,,,,,,,,,,,,,,,,,,,,,,,,,,,,,,,,,,,,,,,,,,,,,,,,,,,,,,,,,,,,,,,,,,,,,,,,,,,,,,,,,,,,,,,,,,,,,,,,,,,,,
,,613a8495a69273eee63740fe,2024-02-21_21h18.45.007,kallum_motion_pilot,2023.2.2,MacIntel,60.24096386,613a8495a69273eee63740fe,65d6bb0e977760de756971f7,65d6bcf8977760de7569722e,0.0389,0.039,0,73,73,73,1,onethree,,,,,,,,,,,,,,,,,,,,,,,,,,,,,,,,,,,,,,,,,,,,,,,,,,,,,,,,,,,,,,,,,,,,,,,,,,,,,,,,,,,,,,,,,,,,,,,,,,,,,,,,,,,,,,,,,,,,,,,,,,,,,,,,,,,,,,,,,
,,613a8495a69273eee63740fe,2024-02-21_21h18.45.007,kallum_motion_pilot,2023.2.2,MacIntel,60.24096386,613a8495a69273eee63740fe,65d6bb0e977760de756971f7,65d6bcf8977760de7569722e,0.0391,0.0391,0,74,74,153,1,fiveseven,,,,,,,,,,,,,,,,,,,,,,,,,,,,,,,,,,,,,,,,,,,,,,,,,,,,,,,,,,,,,,,,,,,,,,,,,,,,,,,,,,,,,,,,,,,,,,,,,,,,,,,,,,,,,,,,,,,,,,,,,,,,,,,,,,,,,,,,,
,,613a8495a69273eee63740fe,2024-02-21_21h18.45.007,kallum_motion_pilot,2023.2.2,MacIntel,60.24096386,613a8495a69273eee63740fe,65d6bb0e977760de756971f7,65d6bcf8977760de7569722e,0.0391,0.0392,0,75,75,95,1,eightseven,,,,,,,,,,,,,,,,,,,,,,,,,,,,,,,,,,,,,,,,,,,,,,,,,,,,,,,,,,,,,,,,,,,,,,,,,,,,,,,,,,,,,,,,,,,,,,,,,,,,,,,,,,,,,,,,,,,,,,,,,,,,,,,,,,,,,,,,,
,,613a8495a69273eee63740fe,2024-02-21_21h18.45.007,kallum_motion_pilot,2023.2.2,MacIntel,60.24096386,613a8495a69273eee63740fe,65d6bb0e977760de756971f7,65d6bcf8977760de7569722e,0.0392,0.0401,0,76,76,86,1,eightsix,,,,,,,,,,,,,,,,,,,,,,,,,,,,,,,,,,,,,,,,,,,,,,,,,,,,,,,,,,,,,,,,,,,,,,,,,,,,,,,,,,,,,,,,,,,,,,,,,,,,,,,,,,,,,,,,,,,,,,,,,,,,,,,,,,,,,,,,,
,,613a8495a69273eee63740fe,2024-02-21_21h18.45.007,kallum_motion_pilot,2023.2.2,MacIntel,60.24096386,613a8495a69273eee63740fe,65d6bb0e977760de756971f7,65d6bcf8977760de7569722e,0.0403,0.0406,0,77,77,104,1,fivesix,,,,,,,,,,,,,,,,,,,,,,,,,,,,,,,,,,,,,,,,,,,,,,,,,,,,,,,,,,,,,,,,,,,,,,,,,,,,,,,,,,,,,,,,,,,,,,,,,,,,,,,,,,,,,,,,,,,,,,,,,,,,,,,,,,,,,,,,,
,,613a8495a69273eee63740fe,2024-02-21_21h18.45.007,kallum_motion_pilot,2023.2.2,MacIntel,60.24096386,613a8495a69273eee63740fe,65d6bb0e977760de756971f7,65d6bcf8977760de7569722e,0.0407,0.0407,0,78,78,12,1,threeone,,,,,,,,,,,,,,,,,,,,,,,,,,,,,,,,,,,,,,,,,,,,,,,,,,,,,,,,,,,,,,,,,,,,,,,,,,,,,,,,,,,,,,,,,,,,,,,,,,,,,,,,,,,,,,,,,,,,,,,,,,,,,,,,,,,,,,,,,
,,613a8495a69273eee63740fe,2024-02-21_21h18.45.007,kallum_motion_pilot,2023.2.2,MacIntel,60.24096386,613a8495a69273eee63740fe,65d6bb0e977760de756971f7,65d6bcf8977760de7569722e,0.041,0.041,0,79,79,54,1,fourtwo,,,,,,,,,,,,,,,,,,,,,,,,,,,,,,,,,,,,,,,,,,,,,,,,,,,,,,,,,,,,,,,,,,,,,,,,,,,,,,,,,,,,,,,,,,,,,,,,,,,,,,,,,,,,,,,,,,,,,,,,,,,,,,,,,,,,,,,,,
,,613a8495a69273eee63740fe,2024-02-21_21h18.45.007,kallum_motion_pilot,2023.2.2,MacIntel,60.24096386,613a8495a69273eee63740fe,65d6bb0e977760de756971f7,65d6bcf8977760de7569722e,0.0411,0.0412,0,80,80,128,1,fivesix,,,,,,,,,,,,,,,,,,,,,,,,,,,,,,,,,,,,,,,,,,,,,,,,,,,,,,,,,,,,,,,,,,,,,,,,,,,,,,,,,,,,,,,,,,,,,,,,,,,,,,,,,,,,,,,,,,,,,,,,,,,,,,,,,,,,,,,,,
,,613a8495a69273eee63740fe,2024-02-21_21h18.45.007,kallum_motion_pilot,2023.2.2,MacIntel,60.24096386,613a8495a69273eee63740fe,65d6bb0e977760de756971f7,65d6bcf8977760de7569722e,0.0413,0.0413,0,81,81,85,1,seveneight,,,,,,,,,,,,,,,,,,,,,,,,,,,,,,,,,,,,,,,,,,,,,,,,,,,,,,,,,,,,,,,,,,,,,,,,,,,,,,,,,,,,,,,,,,,,,,,,,,,,,,,,,,,,,,,,,,,,,,,,,,,,,,,,,,,,,,,,,
,,613a8495a69273eee63740fe,2024-02-21_21h18.45.007,kallum_motion_pilot,2023.2.2,MacIntel,60.24096386,613a8495a69273eee63740fe,65d6bb0e977760de756971f7,65d6bcf8977760de7569722e,0.0414,0.0415,0,82,82,45,1,threefour,,,,,,,,,,,,,,,,,,,,,,,,,,,,,,,,,,,,,,,,,,,,,,,,,,,,,,,,,,,,,,,,,,,,,,,,,,,,,,,,,,,,,,,,,,,,,,,,,,,,,,,,,,,,,,,,,,,,,,,,,,,,,,,,,,,,,,,,,
,,613a8495a69273eee63740fe,2024-02-21_21h18.45.007,kallum_motion_pilot,2023.2.2,MacIntel,60.24096386,613a8495a69273eee63740fe,65d6bb0e977760de756971f7,65d6bcf8977760de7569722e,0.0416,0.0417,0,83,83,91,1,sixeight,,,,,,,,,,,,,,,,,,,,,,,,,,,,,,,,,,,,,,,,,,,,,,,,,,,,,,,,,,,,,,,,,,,,,,,,,,,,,,,,,,,,,,,,,,,,,,,,,,,,,,,,,,,,,,,,,,,,,,,,,,,,,,,,,,,,,,,,,
,,613a8495a69273eee63740fe,2024-02-21_21h18.45.007,kallum_motion_pilot,2023.2.2,MacIntel,60.24096386,613a8495a69273eee63740fe,65d6bb0e977760de756971f7,65d6bcf8977760de7569722e,0.0418,0.0419,0,84,84,146,1,sixfive,,,,,,,,,,,,,,,,,,,,,,,,,,,,,,,,,,,,,,,,,,,,,,,,,,,,,,,,,,,,,,,,,,,,,,,,,,,,,,,,,,,,,,,,,,,,,,,,,,,,,,,,,,,,,,,,,,,,,,,,,,,,,,,,,,,,,,,,,
,,613a8495a69273eee63740fe,2024-02-21_21h18.45.007,kallum_motion_pilot,2023.2.2,MacIntel,60.24096386,613a8495a69273eee63740fe,65d6bb0e977760de756971f7,65d6bcf8977760de7569722e,0.042,0.0421,0,85,85,141,1,seveneight,,,,,,,,,,,,,,,,,,,,,,,,,,,,,,,,,,,,,,,,,,,,,,,,,,,,,,,,,,,,,,,,,,,,,,,,,,,,,,,,,,,,,,,,,,,,,,,,,,,,,,,,,,,,,,,,,,,,,,,,,,,,,,,,,,,,,,,,,
,,613a8495a69273eee63740fe,2024-02-21_21h18.45.007,kallum_motion_pilot,2023.2.2,MacIntel,60.24096386,613a8495a69273eee63740fe,65d6bb0e977760de756971f7,65d6bcf8977760de7569722e,0.0422,0.0422,0,86,86,8,1,onetwo,,,,,,,,,,,,,,,,,,,,,,,,,,,,,,,,,,,,,,,,,,,,,,,,,,,,,,,,,,,,,,,,,,,,,,,,,,,,,,,,,,,,,,,,,,,,,,,,,,,,,,,,,,,,,,,,,,,,,,,,,,,,,,,,,,,,,,,,,
,,613a8495a69273eee63740fe,2024-02-21_21h18.45.007,kallum_motion_pilot,2023.2.2,MacIntel,60.24096386,613a8495a69273eee63740fe,65d6bb0e977760de756971f7,65d6bcf8977760de7569722e,0.0423,0.0423,0,87,87,7,1,fourthree,,,,,,,,,,,,,,,,,,,,,,,,,,,,,,,,,,,,,,,,,,,,,,,,,,,,,,,,,,,,,,,,,,,,,,,,,,,,,,,,,,,,,,,,,,,,,,,,,,,,,,,,,,,,,,,,,,,,,,,,,,,,,,,,,,,,,,,,,
,,613a8495a69273eee63740fe,2024-02-21_21h18.45.007,kallum_motion_pilot,2023.2.2,MacIntel,60.24096386,613a8495a69273eee63740fe,65d6bb0e977760de756971f7,65d6bcf8977760de7569722e,0.0425,0.0425,0,88,88,115,1,sixeight,,,,,,,,,,,,,,,,,,,,,,,,,,,,,,,,,,,,,,,,,,,,,,,,,,,,,,,,,,,,,,,,,,,,,,,,,,,,,,,,,,,,,,,,,,,,,,,,,,,,,,,,,,,,,,,,,,,,,,,,,,,,,,,,,,,,,,,,,
,,613a8495a69273eee63740fe,2024-02-21_21h18.45.007,kallum_motion_pilot,2023.2.2,MacIntel,60.24096386,613a8495a69273eee63740fe,65d6bb0e977760de756971f7,65d6bcf8977760de7569722e,0.0427,0.0428,0,89,89,18,1,twoone,,,,,,,,,,,,,,,,,,,,,,,,,,,,,,,,,,,,,,,,,,,,,,,,,,,,,,,,,,,,,,,,,,,,,,,,,,,,,,,,,,,,,,,,,,,,,,,,,,,,,,,,,,,,,,,,,,,,,,,,,,,,,,,,,,,,,,,,,
,,613a8495a69273eee63740fe,2024-02-21_21h18.45.007,kallum_motion_pilot,2023.2.2,MacIntel,60.24096386,613a8495a69273eee63740fe,65d6bb0e977760de756971f7,65d6bcf8977760de7569722e,0.0428,0.043,0,90,90,93,1,seveneight,,,,,,,,,,,,,,,,,,,,,,,,,,,,,,,,,,,,,,,,,,,,,,,,,,,,,,,,,,,,,,,,,,,,,,,,,,,,,,,,,,,,,,,,,,,,,,,,,,,,,,,,,,,,,,,,,,,,,,,,,,,,,,,,,,,,,,,,,
,,613a8495a69273eee63740fe,2024-02-21_21h18.45.007,kallum_motion_pilot,2023.2.2,MacIntel,60.24096386,613a8495a69273eee63740fe,65d6bb0e977760de756971f7,65d6bcf8977760de7569722e,0.043,0.0431,0,91,91,60,1,threeone,,,,,,,,,,,,,,,,,,,,,,,,,,,,,,,,,,,,,,,,,,,,,,,,,,,,,,,,,,,,,,,,,,,,,,,,,,,,,,,,,,,,,,,,,,,,,,,,,,,,,,,,,,,,,,,,,,,,,,,,,,,,,,,,,,,,,,,,,
,,613a8495a69273eee63740fe,2024-02-21_21h18.45.007,kallum_motion_pilot,2023.2.2,MacIntel,60.24096386,613a8495a69273eee63740fe,65d6bb0e977760de756971f7,65d6bcf8977760de7569722e,0.0432,0.0433,0,92,92,75,1,twofour,,,,,,,,,,,,,,,,,,,,,,,,,,,,,,,,,,,,,,,,,,,,,,,,,,,,,,,,,,,,,,,,,,,,,,,,,,,,,,,,,,,,,,,,,,,,,,,,,,,,,,,,,,,,,,,,,,,,,,,,,,,,,,,,,,,,,,,,,
,,613a8495a69273eee63740fe,2024-02-21_21h18.45.007,kallum_motion_pilot,2023.2.2,MacIntel,60.24096386,613a8495a69273eee63740fe,65d6bb0e977760de756971f7,65d6bcf8977760de7569722e,0.0434,0.0434,0,93,93,5,1,threefour,,,,,,,,,,,,,,,,,,,,,,,,,,,,,,,,,,,,,,,,,,,,,,,,,,,,,,,,,,,,,,,,,,,,,,,,,,,,,,,,,,,,,,,,,,,,,,,,,,,,,,,,,,,,,,,,,,,,,,,,,,,,,,,,,,,,,,,,,
,,613a8495a69273eee63740fe,2024-02-21_21h18.45.007,kallum_motion_pilot,2023.2.2,MacIntel,60.24096386,613a8495a69273eee63740fe,65d6bb0e977760de756971f7,65d6bcf8977760de7569722e,0.0436,0.0436,0,94,94,78,1,fourtwo,,,,,,,,,,,,,,,,,,,,,,,,,,,,,,,,,,,,,,,,,,,,,,,,,,,,,,,,,,,,,,,,,,,,,,,,,,,,,,,,,,,,,,,,,,,,,,,,,,,,,,,,,,,,,,,,,,,,,,,,,,,,,,,,,,,,,,,,,
,,613a8495a69273eee63740fe,2024-02-21_21h18.45.007,kallum_motion_pilot,2023.2.2,MacIntel,60.24096386,613a8495a69273eee63740fe,65d6bb0e977760de756971f7,65d6bcf8977760de7569722e,0.0438,0.0438,0,95,95,38,1,fourtwo,,,,,,,,,,,,,,,,,,,,,,,,,,,,,,,,,,,,,,,,,,,,,,,,,,,,,,,,,,,,,,,,,,,,,,,,,,,,,,,,,,,,,,,,,,,,,,,,,,,,,,,,,,,,,,,,,,,,,,,,,,,,,,,,,,,,,,,,,
,,613a8495a69273eee63740fe,2024-02-21_21h18.45.007,kallum_motion_pilot,2023.2.2,MacIntel,60.24096386,613a8495a69273eee63740fe,65d6bb0e977760de756971f7,65d6bcf8977760de7569722e,0.0439,0.044,0,96,96,113,1,fiveseven,,,,,,,,,,,,,,,,,,,,,,,,,,,,,,,,,,,,,,,,,,,,,,,,,,,,,,,,,,,,,,,,,,,,,,,,,,,,,,,,,,,,,,,,,,,,,,,,,,,,,,,,,,,,,,,,,,,,,,,,,,,,,,,,,,,,,,,,,
,,613a8495a69273eee63740fe,2024-02-21_21h18.45.007,kallum_motion_pilot,2023.2.2,MacIntel,60.24096386,613a8495a69273eee63740fe,65d6bb0e977760de756971f7,65d6bcf8977760de7569722e,0.0441,0.0442,0,97,97,116,1,sevenfive,,,,,,,,,,,,,,,,,,,,,,,,,,,,,,,,,,,,,,,,,,,,,,,,,,,,,,,,,,,,,,,,,,,,,,,,,,,,,,,,,,,,,,,,,,,,,,,,,,,,,,,,,,,,,,,,,,,,,,,,,,,,,,,,,,,,,,,,,
,,613a8495a69273eee63740fe,2024-02-21_21h18.45.007,kallum_motion_pilot,2023.2.2,MacIntel,60.24096386,613a8495a69273eee63740fe,65d6bb0e977760de756971f7,65d6bcf8977760de7569722e,0.0443,0.0443,0,98,98,64,1,onetwo,,,,,,,,,,,,,,,,,,,,,,,,,,,,,,,,,,,,,,,,,,,,,,,,,,,,,,,,,,,,,,,,,,,,,,,,,,,,,,,,,,,,,,,,,,,,,,,,,,,,,,,,,,,,,,,,,,,,,,,,,,,,,,,,,,,,,,,,,
,,613a8495a69273eee63740fe,2024-02-21_21h18.45.007,kallum_motion_pilot,2023.2.2,MacIntel,60.24096386,613a8495a69273eee63740fe,65d6bb0e977760de756971f7,65d6bcf8977760de7569722e,0.0445,0.0446,0,99,99,43,1,twofour,,,,,,,,,,,,,,,,,,,,,,,,,,,,,,,,,,,,,,,,,,,,,,,,,,,,,,,,,,,,,,,,,,,,,,,,,,,,,,,,,,,,,,,,,,,,,,,,,,,,,,,,,,,,,,,,,,,,,,,,,,,,,,,,,,,,,,,,,
,,613a8495a69273eee63740fe,2024-02-21_21h18.45.007,kallum_motion_pilot,2023.2.2,MacIntel,60.24096386,613a8495a69273eee63740fe,65d6bb0e977760de756971f7,65d6bcf8977760de7569722e,0.0447,0.0447,0,100,100,10,1,twoone,,,,,,,,,,,,,,,,,,,,,,,,,,,,,,,,,,,,,,,,,,,,,,,,,,,,,,,,,,,,,,,,,,,,,,,,,,,,,,,,,,,,,,,,,,,,,,,,,,,,,,,,,,,,,,,,,,,,,,,,,,,,,,,,,,,,,,,,,
,,613a8495a69273eee63740fe,2024-02-21_21h18.45.007,kallum_motion_pilot,2023.2.2,MacIntel,60.24096386,613a8495a69273eee63740fe,65d6bb0e977760de756971f7,65d6bcf8977760de7569722e,0.0449,0.045,0,101,101,68,1,threeone,,,,,,,,,,,,,,,,,,,,,,,,,,,,,,,,,,,,,,,,,,,,,,,,,,,,,,,,,,,,,,,,,,,,,,,,,,,,,,,,,,,,,,,,,,,,,,,,,,,,,,,,,,,,,,,,,,,,,,,,,,,,,,,,,,,,,,,,,
,,613a8495a69273eee63740fe,2024-02-21_21h18.45.007,kallum_motion_pilot,2023.2.2,MacIntel,60.24096386,613a8495a69273eee63740fe,65d6bb0e977760de756971f7,65d6bcf8977760de7569722e,0.045,0.0451,0,102,102,35,1,twofour,,,,,,,,,,,,,,,,,,,,,,,,,,,,,,,,,,,,,,,,,,,,,,,,,,,,,,,,,,,,,,,,,,,,,,,,,,,,,,,,,,,,,,,,,,,,,,,,,,,,,,,,,,,,,,,,,,,,,,,,,,,,,,,,,,,,,,,,,
,,613a8495a69273eee63740fe,2024-02-21_21h18.45.007,kallum_motion_pilot,2023.2.2,MacIntel,60.24096386,613a8495a69273eee63740fe,65d6bb0e977760de756971f7,65d6bcf8977760de7569722e,0.0452,0.0453,0,103,103,25,1,onethree,,,,,,,,,,,,,,,,,,,,,,,,,,,,,,,,,,,,,,,,,,,,,,,,,,,,,,,,,,,,,,,,,,,,,,,,,,,,,,,,,,,,,,,,,,,,,,,,,,,,,,,,,,,,,,,,,,,,,,,,,,,,,,,,,,,,,,,,,
,,613a8495a69273eee63740fe,2024-02-21_21h18.45.007,kallum_motion_pilot,2023.2.2,MacIntel,60.24096386,613a8495a69273eee63740fe,65d6bb0e977760de756971f7,65d6bcf8977760de7569722e,0.0454,0.0454,0,104,104,9,1,onethree,,,,,,,,,,,,,,,,,,,,,,,,,,,,,,,,,,,,,,,,,,,,,,,,,,,,,,,,,,,,,,,,,,,,,,,,,,,,,,,,,,,,,,,,,,,,,,,,,,,,,,,,,,,,,,,,,,,,,,,,,,,,,,,,,,,,,,,,,
,,613a8495a69273eee63740fe,2024-02-21_21h18.45.007,kallum_motion_pilot,2023.2.2,MacIntel,60.24096386,613a8495a69273eee63740fe,65d6bb0e977760de756971f7,65d6bcf8977760de7569722e,0.0456,0.0457,0,105,105,24,1,onetwo,,,,,,,,,,,,,,,,,,,,,,,,,,,,,,,,,,,,,,,,,,,,,,,,,,,,,,,,,,,,,,,,,,,,,,,,,,,,,,,,,,,,,,,,,,,,,,,,,,,,,,,,,,,,,,,,,,,,,,,,,,,,,,,,,,,,,,,,,
,,613a8495a69273eee63740fe,2024-02-21_21h18.45.007,kallum_motion_pilot,2023.2.2,MacIntel,60.24096386,613a8495a69273eee63740fe,65d6bb0e977760de756971f7,65d6bcf8977760de7569722e,0.0458,0.0458,0,106,106,15,1,fourthree,,,,,,,,,,,,,,,,,,,,,,,,,,,,,,,,,,,,,,,,,,,,,,,,,,,,,,,,,,,,,,,,,,,,,,,,,,,,,,,,,,,,,,,,,,,,,,,,,,,,,,,,,,,,,,,,,,,,,,,,,,,,,,,,,,,,,,,,,
,,613a8495a69273eee63740fe,2024-02-21_21h18.45.007,kallum_motion_pilot,2023.2.2,MacIntel,60.24096386,613a8495a69273eee63740fe,65d6bb0e977760de756971f7,65d6bcf8977760de7569722e,0.046,0.0461,0,107,107,130,1,sixfive,,,,,,,,,,,,,,,,,,,,,,,,,,,,,,,,,,,,,,,,,,,,,,,,,,,,,,,,,,,,,,,,,,,,,,,,,,,,,,,,,,,,,,,,,,,,,,,,,,,,,,,,,,,,,,,,,,,,,,,,,,,,,,,,,,,,,,,,,
,,613a8495a69273eee63740fe,2024-02-21_21h18.45.007,kallum_motion_pilot,2023.2.2,MacIntel,60.24096386,613a8495a69273eee63740fe,65d6bb0e977760de756971f7,65d6bcf8977760de7569722e,0.0465,0.0465,0,108,108,129,1,fiveseven,,,,,,,,,,,,,,,,,,,,,,,,,,,,,,,,,,,,,,,,,,,,,,,,,,,,,,,,,,,,,,,,,,,,,,,,,,,,,,,,,,,,,,,,,,,,,,,,,,,,,,,,,,,,,,,,,,,,,,,,,,,,,,,,,,,,,,,,,
,,613a8495a69273eee63740fe,2024-02-21_21h18.45.007,kallum_motion_pilot,2023.2.2,MacIntel,60.24096386,613a8495a69273eee63740fe,65d6bb0e977760de756971f7,65d6bcf8977760de7569722e,0.0466,0.0467,0,109,109,149,1,seveneight,,,,,,,,,,,,,,,,,,,,,,,,,,,,,,,,,,,,,,,,,,,,,,,,,,,,,,,,,,,,,,,,,,,,,,,,,,,,,,,,,,,,,,,,,,,,,,,,,,,,,,,,,,,,,,,,,,,,,,,,,,,,,,,,,,,,,,,,,
,,613a8495a69273eee63740fe,2024-02-21_21h18.45.007,kallum_motion_pilot,2023.2.2,MacIntel,60.24096386,613a8495a69273eee63740fe,65d6bb0e977760de756971f7,65d6bcf8977760de7569722e,0.0468,0.047,0,110,110,121,1,fiveseven,,,,,,,,,,,,,,,,,,,,,,,,,,,,,,,,,,,,,,,,,,,,,,,,,,,,,,,,,,,,,,,,,,,,,,,,,,,,,,,,,,,,,,,,,,,,,,,,,,,,,,,,,,,,,,,,,,,,,,,,,,,,,,,,,,,,,,,,,
,,613a8495a69273eee63740fe,2024-02-21_21h18.45.007,kallum_motion_pilot,2023.2.2,MacIntel,60.24096386,613a8495a69273eee63740fe,65d6bb0e977760de756971f7,65d6bcf8977760de7569722e,0.0472,0.048,0,111,111,30,1,fourtwo,,,,,,,,,,,,,,,,,,,,,,,,,,,,,,,,,,,,,,,,,,,,,,,,,,,,,,,,,,,,,,,,,,,,,,,,,,,,,,,,,,,,,,,,,,,,,,,,,,,,,,,,,,,,,,,,,,,,,,,,,,,,,,,,,,,,,,,,,
,,613a8495a69273eee63740fe,2024-02-21_21h18.45.007,kallum_motion_pilot,2023.2.2,MacIntel,60.24096386,613a8495a69273eee63740fe,65d6bb0e977760de756971f7,65d6bcf8977760de7569722e,0.0485,0.0488,0,112,112,46,1,fourtwo,,,,,,,,,,,,,,,,,,,,,,,,,,,,,,,,,,,,,,,,,,,,,,,,,,,,,,,,,,,,,,,,,,,,,,,,,,,,,,,,,,,,,,,,,,,,,,,,,,,,,,,,,,,,,,,,,,,,,,,,,,,,,,,,,,,,,,,,,
,,613a8495a69273eee63740fe,2024-02-21_21h18.45.007,kallum_motion_pilot,2023.2.2,MacIntel,60.24096386,613a8495a69273eee63740fe,65d6bb0e977760de756971f7,65d6bcf8977760de7569722e,0.0489,0.0491,0,113,113,66,1,twoone,,,,,,,,,,,,,,,,,,,,,,,,,,,,,,,,,,,,,,,,,,,,,,,,,,,,,,,,,,,,,,,,,,,,,,,,,,,,,,,,,,,,,,,,,,,,,,,,,,,,,,,,,,,,,,,,,,,,,,,,,,,,,,,,,,,,,,,,,
,,613a8495a69273eee63740fe,2024-02-21_21h18.45.007,kallum_motion_pilot,2023.2.2,MacIntel,60.24096386,613a8495a69273eee63740fe,65d6bb0e977760de756971f7,65d6bcf8977760de7569722e,0.0493,0.0493,0,114,114,36,1,threeone,,,,,,,,,,,,,,,,,,,,,,,,,,,,,,,,,,,,,,,,,,,,,,,,,,,,,,,,,,,,,,,,,,,,,,,,,,,,,,,,,,,,,,,,,,,,,,,,,,,,,,,,,,,,,,,,,,,,,,,,,,,,,,,,,,,,,,,,,
,,613a8495a69273eee63740fe,2024-02-21_21h18.45.007,kallum_motion_pilot,2023.2.2,MacIntel,60.24096386,613a8495a69273eee63740fe,65d6bb0e977760de756971f7,65d6bcf8977760de7569722e,0.0495,0.0496,0,115,115,100,1,sevenfive,,,,,,,,,,,,,,,,,,,,,,,,,,,,,,,,,,,,,,,,,,,,,,,,,,,,,,,,,,,,,,,,,,,,,,,,,,,,,,,,,,,,,,,,,,,,,,,,,,,,,,,,,,,,,,,,,,,,,,,,,,,,,,,,,,,,,,,,,
,,613a8495a69273eee63740fe,2024-02-21_21h18.45.007,kallum_motion_pilot,2023.2.2,MacIntel,60.24096386,613a8495a69273eee63740fe,65d6bb0e977760de756971f7,65d6bcf8977760de7569722e,0.0497,0.0498,0,116,116,125,1,seveneight,,,,,,,,,,,,,,,,,,,,,,,,,,,,,,,,,,,,,,,,,,,,,,,,,,,,,,,,,,,,,,,,,,,,,,,,,,,,,,,,,,,,,,,,,,,,,,,,,,,,,,,,,,,,,,,,,,,,,,,,,,,,,,,,,,,,,,,,,
,,613a8495a69273eee63740fe,2024-02-21_21h18.45.007,kallum_motion_pilot,2023.2.2,MacIntel,60.24096386,613a8495a69273eee63740fe,65d6bb0e977760de756971f7,65d6bcf8977760de7569722e,0.05,0.0502,0,117,117,63,1,fourthree,,,,,,,,,,,,,,,,,,,,,,,,,,,,,,,,,,,,,,,,,,,,,,,,,,,,,,,,,,,,,,,,,,,,,,,,,,,,,,,,,,,,,,,,,,,,,,,,,,,,,,,,,,,,,,,,,,,,,,,,,,,,,,,,,,,,,,,,,
,,613a8495a69273eee63740fe,2024-02-21_21h18.45.007,kallum_motion_pilot,2023.2.2,MacIntel,60.24096386,613a8495a69273eee63740fe,65d6bb0e977760de756971f7,65d6bcf8977760de7569722e,0.0502,0.0504,0,118,118,87,1,eightseven,,,,,,,,,,,,,,,,,,,,,,,,,,,,,,,,,,,,,,,,,,,,,,,,,,,,,,,,,,,,,,,,,,,,,,,,,,,,,,,,,,,,,,,,,,,,,,,,,,,,,,,,,,,,,,,,,,,,,,,,,,,,,,,,,,,,,,,,,
,,613a8495a69273eee63740fe,2024-02-21_21h18.45.007,kallum_motion_pilot,2023.2.2,MacIntel,60.24096386,613a8495a69273eee63740fe,65d6bb0e977760de756971f7,65d6bcf8977760de7569722e,0.0505,0.0506,0,119,119,41,1,onethree,,,,,,,,,,,,,,,,,,,,,,,,,,,,,,,,,,,,,,,,,,,,,,,,,,,,,,,,,,,,,,,,,,,,,,,,,,,,,,,,,,,,,,,,,,,,,,,,,,,,,,,,,,,,,,,,,,,,,,,,,,,,,,,,,,,,,,,,,
,,613a8495a69273eee63740fe,2024-02-21_21h18.45.007,kallum_motion_pilot,2023.2.2,MacIntel,60.24096386,613a8495a69273eee63740fe,65d6bb0e977760de756971f7,65d6bcf8977760de7569722e,0.0507,0.0509,0,120,120,114,1,sixfive,,,,,,,,,,,,,,,,,,,,,,,,,,,,,,,,,,,,,,,,,,,,,,,,,,,,,,,,,,,,,,,,,,,,,,,,,,,,,,,,,,,,,,,,,,,,,,,,,,,,,,,,,,,,,,,,,,,,,,,,,,,,,,,,,,,,,,,,,
,,613a8495a69273eee63740fe,2024-02-21_21h18.45.007,kallum_motion_pilot,2023.2.2,MacIntel,60.24096386,613a8495a69273eee63740fe,65d6bb0e977760de756971f7,65d6bcf8977760de7569722e,0.051,0.0512,0,121,121,133,1,seveneight,,,,,,,,,,,,,,,,,,,,,,,,,,,,,,,,,,,,,,,,,,,,,,,,,,,,,,,,,,,,,,,,,,,,,,,,,,,,,,,,,,,,,,,,,,,,,,,,,,,,,,,,,,,,,,,,,,,,,,,,,,,,,,,,,,,,,,,,,
,,613a8495a69273eee63740fe,2024-02-21_21h18.45.007,kallum_motion_pilot,2023.2.2,MacIntel,60.24096386,613a8495a69273eee63740fe,65d6bb0e977760de756971f7,65d6bcf8977760de7569722e,0.0513,0.0514,0,122,122,88,1,fivesix,,,,,,,,,,,,,,,,,,,,,,,,,,,,,,,,,,,,,,,,,,,,,,,,,,,,,,,,,,,,,,,,,,,,,,,,,,,,,,,,,,,,,,,,,,,,,,,,,,,,,,,,,,,,,,,,,,,,,,,,,,,,,,,,,,,,,,,,,
,,613a8495a69273eee63740fe,2024-02-21_21h18.45.007,kallum_motion_pilot,2023.2.2,MacIntel,60.24096386,613a8495a69273eee63740fe,65d6bb0e977760de756971f7,65d6bcf8977760de7569722e,0.0515,0.0516,0,123,123,70,1,fourtwo,,,,,,,,,,,,,,,,,,,,,,,,,,,,,,,,,,,,,,,,,,,,,,,,,,,,,,,,,,,,,,,,,,,,,,,,,,,,,,,,,,,,,,,,,,,,,,,,,,,,,,,,,,,,,,,,,,,,,,,,,,,,,,,,,,,,,,,,,
,,613a8495a69273eee63740fe,2024-02-21_21h18.45.007,kallum_motion_pilot,2023.2.2,MacIntel,60.24096386,613a8495a69273eee63740fe,65d6bb0e977760de756971f7,65d6bcf8977760de7569722e,0.0522,0.0522,0,124,124,117,1,seveneight,,,,,,,,,,,,,,,,,,,,,,,,,,,,,,,,,,,,,,,,,,,,,,,,,,,,,,,,,,,,,,,,,,,,,,,,,,,,,,,,,,,,,,,,,,,,,,,,,,,,,,,,,,,,,,,,,,,,,,,,,,,,,,,,,,,,,,,,,
,,613a8495a69273eee63740fe,2024-02-21_21h18.45.007,kallum_motion_pilot,2023.2.2,MacIntel,60.24096386,613a8495a69273eee63740fe,65d6bb0e977760de756971f7,65d6bcf8977760de7569722e,0.0525,0.0526,0,125,125,29,1,threefour,,,,,,,,,,,,,,,,,,,,,,,,,,,,,,,,,,,,,,,,,,,,,,,,,,,,,,,,,,,,,,,,,,,,,,,,,,,,,,,,,,,,,,,,,,,,,,,,,,,,,,,,,,,,,,,,,,,,,,,,,,,,,,,,,,,,,,,,,
,,613a8495a69273eee63740fe,2024-02-21_21h18.45.007,kallum_motion_pilot,2023.2.2,MacIntel,60.24096386,613a8495a69273eee63740fe,65d6bb0e977760de756971f7,65d6bcf8977760de7569722e,0.0527,0.0529,0,126,126,92,1,sevenfive,,,,,,,,,,,,,,,,,,,,,,,,,,,,,,,,,,,,,,,,,,,,,,,,,,,,,,,,,,,,,,,,,,,,,,,,,,,,,,,,,,,,,,,,,,,,,,,,,,,,,,,,,,,,,,,,,,,,,,,,,,,,,,,,,,,,,,,,,
,,613a8495a69273eee63740fe,2024-02-21_21h18.45.007,kallum_motion_pilot,2023.2.2,MacIntel,60.24096386,613a8495a69273eee63740fe,65d6bb0e977760de756971f7,65d6bcf8977760de7569722e,0.0529,0.0531,0,127,127,44,1,threeone,,,,,,,,,,,,,,,,,,,,,,,,,,,,,,,,,,,,,,,,,,,,,,,,,,,,,,,,,,,,,,,,,,,,,,,,,,,,,,,,,,,,,,,,,,,,,,,,,,,,,,,,,,,,,,,,,,,,,,,,,,,,,,,,,,,,,,,,,
,,613a8495a69273eee63740fe,2024-02-21_21h18.45.007,kallum_motion_pilot,2023.2.2,MacIntel,60.24096386,613a8495a69273eee63740fe,65d6bb0e977760de756971f7,65d6bcf8977760de7569722e,0.0531,0.0532,0,128,128,97,1,fiveseven,,,,,,,,,,,,,,,,,,,,,,,,,,,,,,,,,,,,,,,,,,,,,,,,,,,,,,,,,,,,,,,,,,,,,,,,,,,,,,,,,,,,,,,,,,,,,,,,,,,,,,,,,,,,,,,,,,,,,,,,,,,,,,,,,,,,,,,,,
,,613a8495a69273eee63740fe,2024-02-21_21h18.45.007,kallum_motion_pilot,2023.2.2,MacIntel,60.24096386,613a8495a69273eee63740fe,65d6bb0e977760de756971f7,65d6bcf8977760de7569722e,0.0533,0.0535,0,129,129,139,1,sixeight,,,,,,,,,,,,,,,,,,,,,,,,,,,,,,,,,,,,,,,,,,,,,,,,,,,,,,,,,,,,,,,,,,,,,,,,,,,,,,,,,,,,,,,,,,,,,,,,,,,,,,,,,,,,,,,,,,,,,,,,,,,,,,,,,,,,,,,,,
,,613a8495a69273eee63740fe,2024-02-21_21h18.45.007,kallum_motion_pilot,2023.2.2,MacIntel,60.24096386,613a8495a69273eee63740fe,65d6bb0e977760de756971f7,65d6bcf8977760de7569722e,0.0535,0.0536,0,130,130,98,1,sixfive,,,,,,,,,,,,,,,,,,,,,,,,,,,,,,,,,,,,,,,,,,,,,,,,,,,,,,,,,,,,,,,,,,,,,,,,,,,,,,,,,,,,,,,,,,,,,,,,,,,,,,,,,,,,,,,,,,,,,,,,,,,,,,,,,,,,,,,,,
,,613a8495a69273eee63740fe,2024-02-21_21h18.45.007,kallum_motion_pilot,2023.2.2,MacIntel,60.24096386,613a8495a69273eee63740fe,65d6bb0e977760de756971f7,65d6bcf8977760de7569722e,0.0548,0.0554,0,131,131,19,1,twofour,,,,,,,,,,,,,,,,,,,,,,,,,,,,,,,,,,,,,,,,,,,,,,,,,,,,,,,,,,,,,,,,,,,,,,,,,,,,,,,,,,,,,,,,,,,,,,,,,,,,,,,,,,,,,,,,,,,,,,,,,,,,,,,,,,,,,,,,,
,,613a8495a69273eee63740fe,2024-02-21_21h18.45.007,kallum_motion_pilot,2023.2.2,MacIntel,60.24096386,613a8495a69273eee63740fe,65d6bb0e977760de756971f7,65d6bcf8977760de7569722e,0.0557,0.0558,0,132,132,96,1,fivesix,,,,,,,,,,,,,,,,,,,,,,,,,,,,,,,,,,,,,,,,,,,,,,,,,,,,,,,,,,,,,,,,,,,,,,,,,,,,,,,,,,,,,,,,,,,,,,,,,,,,,,,,,,,,,,,,,,,,,,,,,,,,,,,,,,,,,,,,,
,,613a8495a69273eee63740fe,2024-02-21_21h18.45.007,kallum_motion_pilot,2023.2.2,MacIntel,60.24096386,613a8495a69273eee63740fe,65d6bb0e977760de756971f7,65d6bcf8977760de7569722e,0.0559,0.0561,0,133,133,52,1,threeone,,,,,,,,,,,,,,,,,,,,,,,,,,,,,,,,,,,,,,,,,,,,,,,,,,,,,,,,,,,,,,,,,,,,,,,,,,,,,,,,,,,,,,,,,,,,,,,,,,,,,,,,,,,,,,,,,,,,,,,,,,,,,,,,,,,,,,,,,
,,613a8495a69273eee63740fe,2024-02-21_21h18.45.007,kallum_motion_pilot,2023.2.2,MacIntel,60.24096386,613a8495a69273eee63740fe,65d6bb0e977760de756971f7,65d6bcf8977760de7569722e,0.0562,0.0562,0,134,134,51,1,twofour,,,,,,,,,,,,,,,,,,,,,,,,,,,,,,,,,,,,,,,,,,,,,,,,,,,,,,,,,,,,,,,,,,,,,,,,,,,,,,,,,,,,,,,,,,,,,,,,,,,,,,,,,,,,,,,,,,,,,,,,,,,,,,,,,,,,,,,,,
,,613a8495a69273eee63740fe,2024-02-21_21h18.45.007,kallum_motion_pilot,2023.2.2,MacIntel,60.24096386,613a8495a69273eee63740fe,65d6bb0e977760de756971f7,65d6bcf8977760de7569722e,0.0563,0.0564,0,135,135,74,1,twoone,,,,,,,,,,,,,,,,,,,,,,,,,,,,,,,,,,,,,,,,,,,,,,,,,,,,,,,,,,,,,,,,,,,,,,,,,,,,,,,,,,,,,,,,,,,,,,,,,,,,,,,,,,,,,,,,,,,,,,,,,,,,,,,,,,,,,,,,,
,,613a8495a69273eee63740fe,2024-02-21_21h18.45.007,kallum_motion_pilot,2023.2.2,MacIntel,60.24096386,613a8495a69273eee63740fe,65d6bb0e977760de756971f7,65d6bcf8977760de7569722e,0.0565,0.0566,0,136,136,119,1,eightseven,,,,,,,,,,,,,,,,,,,,,,,,,,,,,,,,,,,,,,,,,,,,,,,,,,,,,,,,,,,,,,,,,,,,,,,,,,,,,,,,,,,,,,,,,,,,,,,,,,,,,,,,,,,,,,,,,,,,,,,,,,,,,,,,,,,,,,,,,
,,613a8495a69273eee63740fe,2024-02-21_21h18.45.007,kallum_motion_pilot,2023.2.2,MacIntel,60.24096386,613a8495a69273eee63740fe,65d6bb0e977760de756971f7,65d6bcf8977760de7569722e,0.0567,0.0568,0,137,137,1,1,onethree,,,,,,,,,,,,,,,,,,,,,,,,,,,,,,,,,,,,,,,,,,,,,,,,,,,,,,,,,,,,,,,,,,,,,,,,,,,,,,,,,,,,,,,,,,,,,,,,,,,,,,,,,,,,,,,,,,,,,,,,,,,,,,,,,,,,,,,,,
,,613a8495a69273eee63740fe,2024-02-21_21h18.45.007,kallum_motion_pilot,2023.2.2,MacIntel,60.24096386,613a8495a69273eee63740fe,65d6bb0e977760de756971f7,65d6bcf8977760de7569722e,0.0569,0.057,0,138,138,131,1,sixeight,,,,,,,,,,,,,,,,,,,,,,,,,,,,,,,,,,,,,,,,,,,,,,,,,,,,,,,,,,,,,,,,,,,,,,,,,,,,,,,,,,,,,,,,,,,,,,,,,,,,,,,,,,,,,,,,,,,,,,,,,,,,,,,,,,,,,,,,,
,,613a8495a69273eee63740fe,2024-02-21_21h18.45.007,kallum_motion_pilot,2023.2.2,MacIntel,60.24096386,613a8495a69273eee63740fe,65d6bb0e977760de756971f7,65d6bcf8977760de7569722e,0.0572,0.0572,0,139,139,20,1,threeone,,,,,,,,,,,,,,,,,,,,,,,,,,,,,,,,,,,,,,,,,,,,,,,,,,,,,,,,,,,,,,,,,,,,,,,,,,,,,,,,,,,,,,,,,,,,,,,,,,,,,,,,,,,,,,,,,,,,,,,,,,,,,,,,,,,,,,,,,
,,613a8495a69273eee63740fe,2024-02-21_21h18.45.007,kallum_motion_pilot,2023.2.2,MacIntel,60.24096386,613a8495a69273eee63740fe,65d6bb0e977760de756971f7,65d6bcf8977760de7569722e,0.0574,0.0574,0,140,140,40,1,onetwo,,,,,,,,,,,,,,,,,,,,,,,,,,,,,,,,,,,,,,,,,,,,,,,,,,,,,,,,,,,,,,,,,,,,,,,,,,,,,,,,,,,,,,,,,,,,,,,,,,,,,,,,,,,,,,,,,,,,,,,,,,,,,,,,,,,,,,,,,
,,613a8495a69273eee63740fe,2024-02-21_21h18.45.007,kallum_motion_pilot,2023.2.2,MacIntel,60.24096386,613a8495a69273eee63740fe,65d6bb0e977760de756971f7,65d6bcf8977760de7569722e,0.0575,0.0576,0,141,141,37,1,threefour,,,,,,,,,,,,,,,,,,,,,,,,,,,,,,,,,,,,,,,,,,,,,,,,,,,,,,,,,,,,,,,,,,,,,,,,,,,,,,,,,,,,,,,,,,,,,,,,,,,,,,,,,,,,,,,,,,,,,,,,,,,,,,,,,,,,,,,,,
,,613a8495a69273eee63740fe,2024-02-21_21h18.45.007,kallum_motion_pilot,2023.2.2,MacIntel,60.24096386,613a8495a69273eee63740fe,65d6bb0e977760de756971f7,65d6bcf8977760de7569722e,0.0577,0.058,0,142,142,101,1,seveneight,,,,,,,,,,,,,,,,,,,,,,,,,,,,,,,,,,,,,,,,,,,,,,,,,,,,,,,,,,,,,,,,,,,,,,,,,,,,,,,,,,,,,,,,,,,,,,,,,,,,,,,,,,,,,,,,,,,,,,,,,,,,,,,,,,,,,,,,,
,,613a8495a69273eee63740fe,2024-02-21_21h18.45.007,kallum_motion_pilot,2023.2.2,MacIntel,60.24096386,613a8495a69273eee63740fe,65d6bb0e977760de756971f7,65d6bcf8977760de7569722e,0.0581,0.0581,0,143,143,42,1,twoone,,,,,,,,,,,,,,,,,,,,,,,,,,,,,,,,,,,,,,,,,,,,,,,,,,,,,,,,,,,,,,,,,,,,,,,,,,,,,,,,,,,,,,,,,,,,,,,,,,,,,,,,,,,,,,,,,,,,,,,,,,,,,,,,,,,,,,,,,
,,613a8495a69273eee63740fe,2024-02-21_21h18.45.007,kallum_motion_pilot,2023.2.2,MacIntel,60.24096386,613a8495a69273eee63740fe,65d6bb0e977760de756971f7,65d6bcf8977760de7569722e,0.0582,0.0584,0,144,144,81,1,fiveseven,,,,,,,,,,,,,,,,,,,,,,,,,,,,,,,,,,,,,,,,,,,,,,,,,,,,,,,,,,,,,,,,,,,,,,,,,,,,,,,,,,,,,,,,,,,,,,,,,,,,,,,,,,,,,,,,,,,,,,,,,,,,,,,,,,,,,,,,,
,,613a8495a69273eee63740fe,2024-02-21_21h18.45.007,kallum_motion_pilot,2023.2.2,MacIntel,60.24096386,613a8495a69273eee63740fe,65d6bb0e977760de756971f7,65d6bcf8977760de7569722e,0.0584,0.0585,0,145,145,84,1,sevenfive,,,,,,,,,,,,,,,,,,,,,,,,,,,,,,,,,,,,,,,,,,,,,,,,,,,,,,,,,,,,,,,,,,,,,,,,,,,,,,,,,,,,,,,,,,,,,,,,,,,,,,,,,,,,,,,,,,,,,,,,,,,,,,,,,,,,,,,,,
,,613a8495a69273eee63740fe,2024-02-21_21h18.45.007,kallum_motion_pilot,2023.2.2,MacIntel,60.24096386,613a8495a69273eee63740fe,65d6bb0e977760de756971f7,65d6bcf8977760de7569722e,0.0587,0.0588,0,146,146,159,1,eightseven,,,,,,,,,,,,,,,,,,,,,,,,,,,,,,,,,,,,,,,,,,,,,,,,,,,,,,,,,,,,,,,,,,,,,,,,,,,,,,,,,,,,,,,,,,,,,,,,,,,,,,,,,,,,,,,,,,,,,,,,,,,,,,,,,,,,,,,,,
,,613a8495a69273eee63740fe,2024-02-21_21h18.45.007,kallum_motion_pilot,2023.2.2,MacIntel,60.24096386,613a8495a69273eee63740fe,65d6bb0e977760de756971f7,65d6bcf8977760de7569722e,0.0588,0.059,0,147,147,56,1,onetwo,,,,,,,,,,,,,,,,,,,,,,,,,,,,,,,,,,,,,,,,,,,,,,,,,,,,,,,,,,,,,,,,,,,,,,,,,,,,,,,,,,,,,,,,,,,,,,,,,,,,,,,,,,,,,,,,,,,,,,,,,,,,,,,,,,,,,,,,,
,,613a8495a69273eee63740fe,2024-02-21_21h18.45.007,kallum_motion_pilot,2023.2.2,MacIntel,60.24096386,613a8495a69273eee63740fe,65d6bb0e977760de756971f7,65d6bcf8977760de7569722e,0.0591,0.0591,0,148,148,156,1,sevenfive,,,,,,,,,,,,,,,,,,,,,,,,,,,,,,,,,,,,,,,,,,,,,,,,,,,,,,,,,,,,,,,,,,,,,,,,,,,,,,,,,,,,,,,,,,,,,,,,,,,,,,,,,,,,,,,,,,,,,,,,,,,,,,,,,,,,,,,,,
,,613a8495a69273eee63740fe,2024-02-21_21h18.45.007,kallum_motion_pilot,2023.2.2,MacIntel,60.24096386,613a8495a69273eee63740fe,65d6bb0e977760de756971f7,65d6bcf8977760de7569722e,0.0593,0.0594,0,149,149,31,1,fourthree,,,,,,,,,,,,,,,,,,,,,,,,,,,,,,,,,,,,,,,,,,,,,,,,,,,,,,,,,,,,,,,,,,,,,,,,,,,,,,,,,,,,,,,,,,,,,,,,,,,,,,,,,,,,,,,,,,,,,,,,,,,,,,,,,,,,,,,,,
,,613a8495a69273eee63740fe,2024-02-21_21h18.45.007,kallum_motion_pilot,2023.2.2,MacIntel,60.24096386,613a8495a69273eee63740fe,65d6bb0e977760de756971f7,65d6bcf8977760de7569722e,0.0595,0.0595,0,150,150,106,1,sixfive,,,,,,,,,,,,,,,,,,,,,,,,,,,,,,,,,,,,,,,,,,,,,,,,,,,,,,,,,,,,,,,,,,,,,,,,,,,,,,,,,,,,,,,,,,,,,,,,,,,,,,,,,,,,,,,,,,,,,,,,,,,,,,,,,,,,,,,,,
,,613a8495a69273eee63740fe,2024-02-21_21h18.45.007,kallum_motion_pilot,2023.2.2,MacIntel,60.24096386,613a8495a69273eee63740fe,65d6bb0e977760de756971f7,65d6bcf8977760de7569722e,0.0597,0.0597,0,151,151,122,1,sixfive,,,,,,,,,,,,,,,,,,,,,,,,,,,,,,,,,,,,,,,,,,,,,,,,,,,,,,,,,,,,,,,,,,,,,,,,,,,,,,,,,,,,,,,,,,,,,,,,,,,,,,,,,,,,,,,,,,,,,,,,,,,,,,,,,,,,,,,,,
,,613a8495a69273eee63740fe,2024-02-21_21h18.45.007,kallum_motion_pilot,2023.2.2,MacIntel,60.24096386,613a8495a69273eee63740fe,65d6bb0e977760de756971f7,65d6bcf8977760de7569722e,0.0599,0.0599,0,152,152,107,1,sixeight,,,,,,,,,,,,,,,,,,,,,,,,,,,,,,,,,,,,,,,,,,,,,,,,,,,,,,,,,,,,,,,,,,,,,,,,,,,,,,,,,,,,,,,,,,,,,,,,,,,,,,,,,,,,,,,,,,,,,,,,,,,,,,,,,,,,,,,,,
,,613a8495a69273eee63740fe,2024-02-21_21h18.45.007,kallum_motion_pilot,2023.2.2,MacIntel,60.24096386,613a8495a69273eee63740fe,65d6bb0e977760de756971f7,65d6bcf8977760de7569722e,0.0601,0.0601,0,153,153,23,1,fourthree,,,,,,,,,,,,,,,,,,,,,,,,,,,,,,,,,,,,,,,,,,,,,,,,,,,,,,,,,,,,,,,,,,,,,,,,,,,,,,,,,,,,,,,,,,,,,,,,,,,,,,,,,,,,,,,,,,,,,,,,,,,,,,,,,,,,,,,,,
,,613a8495a69273eee63740fe,2024-02-21_21h18.45.007,kallum_motion_pilot,2023.2.2,MacIntel,60.24096386,613a8495a69273eee63740fe,65d6bb0e977760de756971f7,65d6bcf8977760de7569722e,0.0603,0.0604,0,154,154,80,1,fivesix,,,,,,,,,,,,,,,,,,,,,,,,,,,,,,,,,,,,,,,,,,,,,,,,,,,,,,,,,,,,,,,,,,,,,,,,,,,,,,,,,,,,,,,,,,,,,,,,,,,,,,,,,,,,,,,,,,,,,,,,,,,,,,,,,,,,,,,,,
,,613a8495a69273eee63740fe,2024-02-21_21h18.45.007,kallum_motion_pilot,2023.2.2,MacIntel,60.24096386,613a8495a69273eee63740fe,65d6bb0e977760de756971f7,65d6bcf8977760de7569722e,0.0606,0.0606,0,155,155,124,1,sevenfive,,,,,,,,,,,,,,,,,,,,,,,,,,,,,,,,,,,,,,,,,,,,,,,,,,,,,,,,,,,,,,,,,,,,,,,,,,,,,,,,,,,,,,,,,,,,,,,,,,,,,,,,,,,,,,,,,,,,,,,,,,,,,,,,,,,,,,,,,
,,613a8495a69273eee63740fe,2024-02-21_21h18.45.007,kallum_motion_pilot,2023.2.2,MacIntel,60.24096386,613a8495a69273eee63740fe,65d6bb0e977760de756971f7,65d6bcf8977760de7569722e,0.0607,0.0607,0,156,156,109,1,seveneight,,,,,,,,,,,,,,,,,,,,,,,,,,,,,,,,,,,,,,,,,,,,,,,,,,,,,,,,,,,,,,,,,,,,,,,,,,,,,,,,,,,,,,,,,,,,,,,,,,,,,,,,,,,,,,,,,,,,,,,,,,,,,,,,,,,,,,,,,
,,613a8495a69273eee63740fe,2024-02-21_21h18.45.007,kallum_motion_pilot,2023.2.2,MacIntel,60.24096386,613a8495a69273eee63740fe,65d6bb0e977760de756971f7,65d6bcf8977760de7569722e,0.0609,0.061,0,157,157,47,1,fourthree,,,,,,,,,,,,,,,,,,,,,,,,,,,,,,,,,,,,,,,,,,,,,,,,,,,,,,,,,,,,,,,,,,,,,,,,,,,,,,,,,,,,,,,,,,,,,,,,,,,,,,,,,,,,,,,,,,,,,,,,,,,,,,,,,,,,,,,,,
,,613a8495a69273eee63740fe,2024-02-21_21h18.45.007,kallum_motion_pilot,2023.2.2,MacIntel,60.24096386,613a8495a69273eee63740fe,65d6bb0e977760de756971f7,65d6bcf8977760de7569722e,0.0611,0.0612,0,158,158,138,1,sixfive,,,,,,,,,,,,,,,,,,,,,,,,,,,,,,,,,,,,,,,,,,,,,,,,,,,,,,,,,,,,,,,,,,,,,,,,,,,,,,,,,,,,,,,,,,,,,,,,,,,,,,,,,,,,,,,,,,,,,,,,,,,,,,,,,,,,,,,,,
,,613a8495a69273eee63740fe,2024-02-21_21h18.45.007,kallum_motion_pilot,2023.2.2,MacIntel,60.24096386,613a8495a69273eee63740fe,65d6bb0e977760de756971f7,65d6bcf8977760de7569722e,0.0613,0.0614,0,159,159,148,1,sevenfive,,,,,,,,,,,,,,,,,,,,,,,,,,,,,,,,,,,,,,,,,,,,,,,,,,,,,,,,,,,,,,,,,,,,,,,,,,,,,,,,,,,,,,,,,,,,,,,,,,,,,,,,,,,,,,,,,,,,,,,,,,,,,,,,,,,,,,,,,
,,613a8495a69273eee63740fe,2024-02-21_21h18.45.007,kallum_motion_pilot,2023.2.2,MacIntel,60.24096386,613a8495a69273eee63740fe,65d6bb0e977760de756971f7,65d6bcf8977760de7569722e,0.0615,0.0616,0,160,160,135,1,eightseven,,,,,,,,,,,,,,,,,,,,,,,,,,,,,,,,,,,,,,,,,,,,,,,,,,,,,,,,,,,,,,,,,,,,,,,,,,,,,,,,,,,,,,,,,,,,,,,,,,,,,,,,,,,,,,,,,,,,,,,,,,,,,,,,,,,,,,,,,
,,613a8495a69273eee63740fe,2024-02-21_21h18.45.007,kallum_motion_pilot,2023.2.2,MacIntel,60.24096386,613a8495a69273eee63740fe,65d6bb0e977760de756971f7,65d6bcf8977760de7569722e,0.0617,0.0617,0,161,161,154,1,sixfive,,,,,,,,,,,,,,,,,,,,,,,,,,,,,,,,,,,,,,,,,,,,,,,,,,,,,,,,,,,,,,,,,,,,,,,,,,,,,,,,,,,,,,,,,,,,,,,,,,,,,,,,,,,,,,,,,,,,,,,,,,,,,,,,,,,,,,,,,
,,613a8495a69273eee63740fe,2024-02-21_21h18.45.007,kallum_motion_pilot,2023.2.2,MacIntel,60.24096386,613a8495a69273eee63740fe,65d6bb0e977760de756971f7,65d6bcf8977760de7569722e,0.0619,0.0621,1,0,162,133,1,seveneight,,,,,,,,,,,,,,,,,,,,,,,,,,,,,,,,,,,,,,,,,,,,,,,,,,,,,,,,,,,,,,,,,,,,,,,,,,,,,,,,,,,,,,,,,,,,,,,,,,,,,,,,,,,,,,,,,,,,,,,,,,,,,,,,,,,,,,,,,
,,613a8495a69273eee63740fe,2024-02-21_21h18.45.007,kallum_motion_pilot,2023.2.2,MacIntel,60.24096386,613a8495a69273eee63740fe,65d6bb0e977760de756971f7,65d6bcf8977760de7569722e,0.0622,0.0623,1,1,163,85,1,seveneight,,,,,,,,,,,,,,,,,,,,,,,,,,,,,,,,,,,,,,,,,,,,,,,,,,,,,,,,,,,,,,,,,,,,,,,,,,,,,,,,,,,,,,,,,,,,,,,,,,,,,,,,,,,,,,,,,,,,,,,,,,,,,,,,,,,,,,,,,
,,613a8495a69273eee63740fe,2024-02-21_21h18.45.007,kallum_motion_pilot,2023.2.2,MacIntel,60.24096386,613a8495a69273eee63740fe,65d6bb0e977760de756971f7,65d6bcf8977760de7569722e,0.0624,0.0624,1,2,164,87,1,eightseven,,,,,,,,,,,,,,,,,,,,,,,,,,,,,,,,,,,,,,,,,,,,,,,,,,,,,,,,,,,,,,,,,,,,,,,,,,,,,,,,,,,,,,,,,,,,,,,,,,,,,,,,,,,,,,,,,,,,,,,,,,,,,,,,,,,,,,,,,
,,613a8495a69273eee63740fe,2024-02-21_21h18.45.007,kallum_motion_pilot,2023.2.2,MacIntel,60.24096386,613a8495a69273eee63740fe,65d6bb0e977760de756971f7,65d6bcf8977760de7569722e,0.0626,0.0626,1,3,165,43,1,twofour,,,,,,,,,,,,,,,,,,,,,,,,,,,,,,,,,,,,,,,,,,,,,,,,,,,,,,,,,,,,,,,,,,,,,,,,,,,,,,,,,,,,,,,,,,,,,,,,,,,,,,,,,,,,,,,,,,,,,,,,,,,,,,,,,,,,,,,,,
,,613a8495a69273eee63740fe,2024-02-21_21h18.45.007,kallum_motion_pilot,2023.2.2,MacIntel,60.24096386,613a8495a69273eee63740fe,65d6bb0e977760de756971f7,65d6bcf8977760de7569722e,0.0628,0.0629,1,4,166,75,1,twofour,,,,,,,,,,,,,,,,,,,,,,,,,,,,,,,,,,,,,,,,,,,,,,,,,,,,,,,,,,,,,,,,,,,,,,,,,,,,,,,,,,,,,,,,,,,,,,,,,,,,,,,,,,,,,,,,,,,,,,,,,,,,,,,,,,,,,,,,,
,,613a8495a69273eee63740fe,2024-02-21_21h18.45.007,kallum_motion_pilot,2023.2.2,MacIntel,60.24096386,613a8495a69273eee63740fe,65d6bb0e977760de756971f7,65d6bcf8977760de7569722e,0.063,0.0631,1,5,167,137,1,fiveseven,,,,,,,,,,,,,,,,,,,,,,,,,,,,,,,,,,,,,,,,,,,,,,,,,,,,,,,,,,,,,,,,,,,,,,,,,,,,,,,,,,,,,,,,,,,,,,,,,,,,,,,,,,,,,,,,,,,,,,,,,,,,,,,,,,,,,,,,,
,,613a8495a69273eee63740fe,2024-02-21_21h18.45.007,kallum_motion_pilot,2023.2.2,MacIntel,60.24096386,613a8495a69273eee63740fe,65d6bb0e977760de756971f7,65d6bcf8977760de7569722e,0.0632,0.0633,1,6,168,15,1,fourthree,,,,,,,,,,,,,,,,,,,,,,,,,,,,,,,,,,,,,,,,,,,,,,,,,,,,,,,,,,,,,,,,,,,,,,,,,,,,,,,,,,,,,,,,,,,,,,,,,,,,,,,,,,,,,,,,,,,,,,,,,,,,,,,,,,,,,,,,,
,,613a8495a69273eee63740fe,2024-02-21_21h18.45.007,kallum_motion_pilot,2023.2.2,MacIntel,60.24096386,613a8495a69273eee63740fe,65d6bb0e977760de756971f7,65d6bcf8977760de7569722e,0.0635,0.0638,1,7,169,31,1,fourthree,,,,,,,,,,,,,,,,,,,,,,,,,,,,,,,,,,,,,,,,,,,,,,,,,,,,,,,,,,,,,,,,,,,,,,,,,,,,,,,,,,,,,,,,,,,,,,,,,,,,,,,,,,,,,,,,,,,,,,,,,,,,,,,,,,,,,,,,,
,,613a8495a69273eee63740fe,2024-02-21_21h18.45.007,kallum_motion_pilot,2023.2.2,MacIntel,60.24096386,613a8495a69273eee63740fe,65d6bb0e977760de756971f7,65d6bcf8977760de7569722e,0.0644,0.0645,1,8,170,157,1,seveneight,,,,,,,,,,,,,,,,,,,,,,,,,,,,,,,,,,,,,,,,,,,,,,,,,,,,,,,,,,,,,,,,,,,,,,,,,,,,,,,,,,,,,,,,,,,,,,,,,,,,,,,,,,,,,,,,,,,,,,,,,,,,,,,,,,,,,,,,,
,,613a8495a69273eee63740fe,2024-02-21_21h18.45.007,kallum_motion_pilot,2023.2.2,MacIntel,60.24096386,613a8495a69273eee63740fe,65d6bb0e977760de756971f7,65d6bcf8977760de7569722e,0.0649,0.0652,1,9,171,114,1,sixfive,,,,,,,,,,,,,,,,,,,,,,,,,,,,,,,,,,,,,,,,,,,,,,,,,,,,,,,,,,,,,,,,,,,,,,,,,,,,,,,,,,,,,,,,,,,,,,,,,,,,,,,,,,,,,,,,,,,,,,,,,,,,,,,,,,,,,,,,,
,,613a8495a69273eee63740fe,2024-02-21_21h18.45.007,kallum_motion_pilot,2023.2.2,MacIntel,60.24096386,613a8495a69273eee63740fe,65d6bb0e977760de756971f7,65d6bcf8977760de7569722e,0.0654,0.0656,1,10,172,126,1,eightsix,,,,,,,,,,,,,,,,,,,,,,,,,,,,,,,,,,,,,,,,,,,,,,,,,,,,,,,,,,,,,,,,,,,,,,,,,,,,,,,,,,,,,,,,,,,,,,,,,,,,,,,,,,,,,,,,,,,,,,,,,,,,,,,,,,,,,,,,,
,,613a8495a69273eee63740fe,2024-02-21_21h18.45.007,kallum_motion_pilot,2023.2.2,MacIntel,60.24096386,613a8495a69273eee63740fe,65d6bb0e977760de756971f7,65d6bcf8977760de7569722e,0.0657,0.0659,1,11,173,3,1,twofour,,,,,,,,,,,,,,,,,,,,,,,,,,,,,,,,,,,,,,,,,,,,,,,,,,,,,,,,,,,,,,,,,,,,,,,,,,,,,,,,,,,,,,,,,,,,,,,,,,,,,,,,,,,,,,,,,,,,,,,,,,,,,,,,,,,,,,,,,
,,613a8495a69273eee63740fe,2024-02-21_21h18.45.007,kallum_motion_pilot,2023.2.2,MacIntel,60.24096386,613a8495a69273eee63740fe,65d6bb0e977760de756971f7,65d6bcf8977760de7569722e,0.0659,0.0661,1,12,174,101,1,seveneight,,,,,,,,,,,,,,,,,,,,,,,,,,,,,,,,,,,,,,,,,,,,,,,,,,,,,,,,,,,,,,,,,,,,,,,,,,,,,,,,,,,,,,,,,,,,,,,,,,,,,,,,,,,,,,,,,,,,,,,,,,,,,,,,,,,,,,,,,
,,613a8495a69273eee63740fe,2024-02-21_21h18.45.007,kallum_motion_pilot,2023.2.2,MacIntel,60.24096386,613a8495a69273eee63740fe,65d6bb0e977760de756971f7,65d6bcf8977760de7569722e,0.0663,0.0664,1,13,175,60,1,threeone,,,,,,,,,,,,,,,,,,,,,,,,,,,,,,,,,,,,,,,,,,,,,,,,,,,,,,,,,,,,,,,,,,,,,,,,,,,,,,,,,,,,,,,,,,,,,,,,,,,,,,,,,,,,,,,,,,,,,,,,,,,,,,,,,,,,,,,,,
,,613a8495a69273eee63740fe,2024-02-21_21h18.45.007,kallum_motion_pilot,2023.2.2,MacIntel,60.24096386,613a8495a69273eee63740fe,65d6bb0e977760de756971f7,65d6bcf8977760de7569722e,0.0665,0.0666,1,14,176,108,1,sevenfive,,,,,,,,,,,,,,,,,,,,,,,,,,,,,,,,,,,,,,,,,,,,,,,,,,,,,,,,,,,,,,,,,,,,,,,,,,,,,,,,,,,,,,,,,,,,,,,,,,,,,,,,,,,,,,,,,,,,,,,,,,,,,,,,,,,,,,,,,
,,613a8495a69273eee63740fe,2024-02-21_21h18.45.007,kallum_motion_pilot,2023.2.2,MacIntel,60.24096386,613a8495a69273eee63740fe,65d6bb0e977760de756971f7,65d6bcf8977760de7569722e,0.0667,0.0668,1,15,177,86,1,eightsix,,,,,,,,,,,,,,,,,,,,,,,,,,,,,,,,,,,,,,,,,,,,,,,,,,,,,,,,,,,,,,,,,,,,,,,,,,,,,,,,,,,,,,,,,,,,,,,,,,,,,,,,,,,,,,,,,,,,,,,,,,,,,,,,,,,,,,,,,
,,613a8495a69273eee63740fe,2024-02-21_21h18.45.007,kallum_motion_pilot,2023.2.2,MacIntel,60.24096386,613a8495a69273eee63740fe,65d6bb0e977760de756971f7,65d6bcf8977760de7569722e,0.0669,0.067,1,16,178,34,1,twoone,,,,,,,,,,,,,,,,,,,,,,,,,,,,,,,,,,,,,,,,,,,,,,,,,,,,,,,,,,,,,,,,,,,,,,,,,,,,,,,,,,,,,,,,,,,,,,,,,,,,,,,,,,,,,,,,,,,,,,,,,,,,,,,,,,,,,,,,,
,,613a8495a69273eee63740fe,2024-02-21_21h18.45.007,kallum_motion_pilot,2023.2.2,MacIntel,60.24096386,613a8495a69273eee63740fe,65d6bb0e977760de756971f7,65d6bcf8977760de7569722e,0.0671,0.0672,1,17,179,161,1,fiveseven,,,,,,,,,,,,,,,,,,,,,,,,,,,,,,,,,,,,,,,,,,,,,,,,,,,,,,,,,,,,,,,,,,,,,,,,,,,,,,,,,,,,,,,,,,,,,,,,,,,,,,,,,,,,,,,,,,,,,,,,,,,,,,,,,,,,,,,,,
,,613a8495a69273eee63740fe,2024-02-21_21h18.45.007,kallum_motion_pilot,2023.2.2,MacIntel,60.24096386,613a8495a69273eee63740fe,65d6bb0e977760de756971f7,65d6bcf8977760de7569722e,0.0673,0.0674,1,18,180,100,1,sevenfive,,,,,,,,,,,,,,,,,,,,,,,,,,,,,,,,,,,,,,,,,,,,,,,,,,,,,,,,,,,,,,,,,,,,,,,,,,,,,,,,,,,,,,,,,,,,,,,,,,,,,,,,,,,,,,,,,,,,,,,,,,,,,,,,,,,,,,,,,
,,613a8495a69273eee63740fe,2024-02-21_21h18.45.007,kallum_motion_pilot,2023.2.2,MacIntel,60.24096386,613a8495a69273eee63740fe,65d6bb0e977760de756971f7,65d6bcf8977760de7569722e,0.0675,0.0675,1,19,181,121,1,fiveseven,,,,,,,,,,,,,,,,,,,,,,,,,,,,,,,,,,,,,,,,,,,,,,,,,,,,,,,,,,,,,,,,,,,,,,,,,,,,,,,,,,,,,,,,,,,,,,,,,,,,,,,,,,,,,,,,,,,,,,,,,,,,,,,,,,,,,,,,,
,,613a8495a69273eee63740fe,2024-02-21_21h18.45.007,kallum_motion_pilot,2023.2.2,MacIntel,60.24096386,613a8495a69273eee63740fe,65d6bb0e977760de756971f7,65d6bcf8977760de7569722e,0.0677,0.0678,1,20,182,44,1,threeone,,,,,,,,,,,,,,,,,,,,,,,,,,,,,,,,,,,,,,,,,,,,,,,,,,,,,,,,,,,,,,,,,,,,,,,,,,,,,,,,,,,,,,,,,,,,,,,,,,,,,,,,,,,,,,,,,,,,,,,,,,,,,,,,,,,,,,,,,
,,613a8495a69273eee63740fe,2024-02-21_21h18.45.007,kallum_motion_pilot,2023.2.2,MacIntel,60.24096386,613a8495a69273eee63740fe,65d6bb0e977760de756971f7,65d6bcf8977760de7569722e,0.0679,0.068,1,21,183,84,1,sevenfive,,,,,,,,,,,,,,,,,,,,,,,,,,,,,,,,,,,,,,,,,,,,,,,,,,,,,,,,,,,,,,,,,,,,,,,,,,,,,,,,,,,,,,,,,,,,,,,,,,,,,,,,,,,,,,,,,,,,,,,,,,,,,,,,,,,,,,,,,
,,613a8495a69273eee63740fe,2024-02-21_21h18.45.007,kallum_motion_pilot,2023.2.2,MacIntel,60.24096386,613a8495a69273eee63740fe,65d6bb0e977760de756971f7,65d6bcf8977760de7569722e,0.0683,0.0684,1,22,184,74,1,twoone,,,,,,,,,,,,,,,,,,,,,,,,,,,,,,,,,,,,,,,,,,,,,,,,,,,,,,,,,,,,,,,,,,,,,,,,,,,,,,,,,,,,,,,,,,,,,,,,,,,,,,,,,,,,,,,,,,,,,,,,,,,,,,,,,,,,,,,,,
,,613a8495a69273eee63740fe,2024-02-21_21h18.45.007,kallum_motion_pilot,2023.2.2,MacIntel,60.24096386,613a8495a69273eee63740fe,65d6bb0e977760de756971f7,65d6bcf8977760de7569722e,0.0685,0.0687,1,23,185,53,1,threefour,,,,,,,,,,,,,,,,,,,,,,,,,,,,,,,,,,,,,,,,,,,,,,,,,,,,,,,,,,,,,,,,,,,,,,,,,,,,,,,,,,,,,,,,,,,,,,,,,,,,,,,,,,,,,,,,,,,,,,,,,,,,,,,,,,,,,,,,,
,,613a8495a69273eee63740fe,2024-02-21_21h18.45.007,kallum_motion_pilot,2023.2.2,MacIntel,60.24096386,613a8495a69273eee63740fe,65d6bb0e977760de756971f7,65d6bcf8977760de7569722e,0.0687,0.0688,1,24,186,19,1,twofour,,,,,,,,,,,,,,,,,,,,,,,,,,,,,,,,,,,,,,,,,,,,,,,,,,,,,,,,,,,,,,,,,,,,,,,,,,,,,,,,,,,,,,,,,,,,,,,,,,,,,,,,,,,,,,,,,,,,,,,,,,,,,,,,,,,,,,,,,
,,613a8495a69273eee63740fe,2024-02-21_21h18.45.007,kallum_motion_pilot,2023.2.2,MacIntel,60.24096386,613a8495a69273eee63740fe,65d6bb0e977760de756971f7,65d6bcf8977760de7569722e,0.0689,0.069,1,25,187,42,1,twoone,,,,,,,,,,,,,,,,,,,,,,,,,,,,,,,,,,,,,,,,,,,,,,,,,,,,,,,,,,,,,,,,,,,,,,,,,,,,,,,,,,,,,,,,,,,,,,,,,,,,,,,,,,,,,,,,,,,,,,,,,,,,,,,,,,,,,,,,,
,,613a8495a69273eee63740fe,2024-02-21_21h18.45.007,kallum_motion_pilot,2023.2.2,MacIntel,60.24096386,613a8495a69273eee63740fe,65d6bb0e977760de756971f7,65d6bcf8977760de7569722e,0.0691,0.0692,1,26,188,23,1,fourthree,,,,,,,,,,,,,,,,,,,,,,,,,,,,,,,,,,,,,,,,,,,,,,,,,,,,,,,,,,,,,,,,,,,,,,,,,,,,,,,,,,,,,,,,,,,,,,,,,,,,,,,,,,,,,,,,,,,,,,,,,,,,,,,,,,,,,,,,,
,,613a8495a69273eee63740fe,2024-02-21_21h18.45.007,kallum_motion_pilot,2023.2.2,MacIntel,60.24096386,613a8495a69273eee63740fe,65d6bb0e977760de756971f7,65d6bcf8977760de7569722e,0.0693,0.0696,1,27,189,160,1,fivesix,,,,,,,,,,,,,,,,,,,,,,,,,,,,,,,,,,,,,,,,,,,,,,,,,,,,,,,,,,,,,,,,,,,,,,,,,,,,,,,,,,,,,,,,,,,,,,,,,,,,,,,,,,,,,,,,,,,,,,,,,,,,,,,,,,,,,,,,,
,,613a8495a69273eee63740fe,2024-02-21_21h18.45.007,kallum_motion_pilot,2023.2.2,MacIntel,60.24096386,613a8495a69273eee63740fe,65d6bb0e977760de756971f7,65d6bcf8977760de7569722e,0.0697,0.0698,1,28,190,72,1,onetwo,,,,,,,,,,,,,,,,,,,,,,,,,,,,,,,,,,,,,,,,,,,,,,,,,,,,,,,,,,,,,,,,,,,,,,,,,,,,,,,,,,,,,,,,,,,,,,,,,,,,,,,,,,,,,,,,,,,,,,,,,,,,,,,,,,,,,,,,,
,,613a8495a69273eee63740fe,2024-02-21_21h18.45.007,kallum_motion_pilot,2023.2.2,MacIntel,60.24096386,613a8495a69273eee63740fe,65d6bb0e977760de756971f7,65d6bcf8977760de7569722e,0.0699,0.0701,1,29,191,128,1,fivesix,,,,,,,,,,,,,,,,,,,,,,,,,,,,,,,,,,,,,,,,,,,,,,,,,,,,,,,,,,,,,,,,,,,,,,,,,,,,,,,,,,,,,,,,,,,,,,,,,,,,,,,,,,,,,,,,,,,,,,,,,,,,,,,,,,,,,,,,,
,,613a8495a69273eee63740fe,2024-02-21_21h18.45.007,kallum_motion_pilot,2023.2.2,MacIntel,60.24096386,613a8495a69273eee63740fe,65d6bb0e977760de756971f7,65d6bcf8977760de7569722e,0.0701,0.0702,1,30,192,158,1,eightsix,,,,,,,,,,,,,,,,,,,,,,,,,,,,,,,,,,,,,,,,,,,,,,,,,,,,,,,,,,,,,,,,,,,,,,,,,,,,,,,,,,,,,,,,,,,,,,,,,,,,,,,,,,,,,,,,,,,,,,,,,,,,,,,,,,,,,,,,,
,,613a8495a69273eee63740fe,2024-02-21_21h18.45.007,kallum_motion_pilot,2023.2.2,MacIntel,60.24096386,613a8495a69273eee63740fe,65d6bb0e977760de756971f7,65d6bcf8977760de7569722e,0.0704,0.0704,1,31,193,56,1,onetwo,,,,,,,,,,,,,,,,,,,,,,,,,,,,,,,,,,,,,,,,,,,,,,,,,,,,,,,,,,,,,,,,,,,,,,,,,,,,,,,,,,,,,,,,,,,,,,,,,,,,,,,,,,,,,,,,,,,,,,,,,,,,,,,,,,,,,,,,,
,,613a8495a69273eee63740fe,2024-02-21_21h18.45.007,kallum_motion_pilot,2023.2.2,MacIntel,60.24096386,613a8495a69273eee63740fe,65d6bb0e977760de756971f7,65d6bcf8977760de7569722e,0.0707,0.0708,1,32,194,45,1,threefour,,,,,,,,,,,,,,,,,,,,,,,,,,,,,,,,,,,,,,,,,,,,,,,,,,,,,,,,,,,,,,,,,,,,,,,,,,,,,,,,,,,,,,,,,,,,,,,,,,,,,,,,,,,,,,,,,,,,,,,,,,,,,,,,,,,,,,,,,
,,613a8495a69273eee63740fe,2024-02-21_21h18.45.007,kallum_motion_pilot,2023.2.2,MacIntel,60.24096386,613a8495a69273eee63740fe,65d6bb0e977760de756971f7,65d6bcf8977760de7569722e,0.071,0.071,1,33,195,95,1,eightseven,,,,,,,,,,,,,,,,,,,,,,,,,,,,,,,,,,,,,,,,,,,,,,,,,,,,,,,,,,,,,,,,,,,,,,,,,,,,,,,,,,,,,,,,,,,,,,,,,,,,,,,,,,,,,,,,,,,,,,,,,,,,,,,,,,,,,,,,,
,,613a8495a69273eee63740fe,2024-02-21_21h18.45.007,kallum_motion_pilot,2023.2.2,MacIntel,60.24096386,613a8495a69273eee63740fe,65d6bb0e977760de756971f7,65d6bcf8977760de7569722e,0.0712,0.0713,1,34,196,159,1,eightseven,,,,,,,,,,,,,,,,,,,,,,,,,,,,,,,,,,,,,,,,,,,,,,,,,,,,,,,,,,,,,,,,,,,,,,,,,,,,,,,,,,,,,,,,,,,,,,,,,,,,,,,,,,,,,,,,,,,,,,,,,,,,,,,,,,,,,,,,,
,,613a8495a69273eee63740fe,2024-02-21_21h18.45.007,kallum_motion_pilot,2023.2.2,MacIntel,60.24096386,613a8495a69273eee63740fe,65d6bb0e977760de756971f7,65d6bcf8977760de7569722e,0.0714,0.0715,1,35,197,81,1,fiveseven,,,,,,,,,,,,,,,,,,,,,,,,,,,,,,,,,,,,,,,,,,,,,,,,,,,,,,,,,,,,,,,,,,,,,,,,,,,,,,,,,,,,,,,,,,,,,,,,,,,,,,,,,,,,,,,,,,,,,,,,,,,,,,,,,,,,,,,,,
,,613a8495a69273eee63740fe,2024-02-21_21h18.45.007,kallum_motion_pilot,2023.2.2,MacIntel,60.24096386,613a8495a69273eee63740fe,65d6bb0e977760de756971f7,65d6bcf8977760de7569722e,0.0717,0.0717,1,36,198,25,1,onethree,,,,,,,,,,,,,,,,,,,,,,,,,,,,,,,,,,,,,,,,,,,,,,,,,,,,,,,,,,,,,,,,,,,,,,,,,,,,,,,,,,,,,,,,,,,,,,,,,,,,,,,,,,,,,,,,,,,,,,,,,,,,,,,,,,,,,,,,,
,,613a8495a69273eee63740fe,2024-02-21_21h18.45.007,kallum_motion_pilot,2023.2.2,MacIntel,60.24096386,613a8495a69273eee63740fe,65d6bb0e977760de756971f7,65d6bcf8977760de7569722e,0.0718,0.0719,1,37,199,9,1,onethree,,,,,,,,,,,,,,,,,,,,,,,,,,,,,,,,,,,,,,,,,,,,,,,,,,,,,,,,,,,,,,,,,,,,,,,,,,,,,,,,,,,,,,,,,,,,,,,,,,,,,,,,,,,,,,,,,,,,,,,,,,,,,,,,,,,,,,,,,
,,613a8495a69273eee63740fe,2024-02-21_21h18.45.007,kallum_motion_pilot,2023.2.2,MacIntel,60.24096386,613a8495a69273eee63740fe,65d6bb0e977760de756971f7,65d6bcf8977760de7569722e,0.0721,0.0721,1,38,200,155,1,sixeight,,,,,,,,,,,,,,,,,,,,,,,,,,,,,,,,,,,,,,,,,,,,,,,,,,,,,,,,,,,,,,,,,,,,,,,,,,,,,,,,,,,,,,,,,,,,,,,,,,,,,,,,,,,,,,,,,,,,,,,,,,,,,,,,,,,,,,,,,
,,613a8495a69273eee63740fe,2024-02-21_21h18.45.007,kallum_motion_pilot,2023.2.2,MacIntel,60.24096386,613a8495a69273eee63740fe,65d6bb0e977760de756971f7,65d6bcf8977760de7569722e,0.0723,0.0723,1,39,201,148,1,sevenfive,,,,,,,,,,,,,,,,,,,,,,,,,,,,,,,,,,,,,,,,,,,,,,,,,,,,,,,,,,,,,,,,,,,,,,,,,,,,,,,,,,,,,,,,,,,,,,,,,,,,,,,,,,,,,,,,,,,,,,,,,,,,,,,,,,,,,,,,,
,,613a8495a69273eee63740fe,2024-02-21_21h18.45.007,kallum_motion_pilot,2023.2.2,MacIntel,60.24096386,613a8495a69273eee63740fe,65d6bb0e977760de756971f7,65d6bcf8977760de7569722e,0.0725,0.0725,1,40,202,153,1,fiveseven,,,,,,,,,,,,,,,,,,,,,,,,,,,,,,,,,,,,,,,,,,,,,,,,,,,,,,,,,,,,,,,,,,,,,,,,,,,,,,,,,,,,,,,,,,,,,,,,,,,,,,,,,,,,,,,,,,,,,,,,,,,,,,,,,,,,,,,,,
,,613a8495a69273eee63740fe,2024-02-21_21h18.45.007,kallum_motion_pilot,2023.2.2,MacIntel,60.24096386,613a8495a69273eee63740fe,65d6bb0e977760de756971f7,65d6bcf8977760de7569722e,0.0727,0.0728,1,41,203,123,1,sixeight,,,,,,,,,,,,,,,,,,,,,,,,,,,,,,,,,,,,,,,,,,,,,,,,,,,,,,,,,,,,,,,,,,,,,,,,,,,,,,,,,,,,,,,,,,,,,,,,,,,,,,,,,,,,,,,,,,,,,,,,,,,,,,,,,,,,,,,,,
,,613a8495a69273eee63740fe,2024-02-21_21h18.45.007,kallum_motion_pilot,2023.2.2,MacIntel,60.24096386,613a8495a69273eee63740fe,65d6bb0e977760de756971f7,65d6bcf8977760de7569722e,0.0729,0.0731,1,42,204,138,1,sixfive,,,,,,,,,,,,,,,,,,,,,,,,,,,,,,,,,,,,,,,,,,,,,,,,,,,,,,,,,,,,,,,,,,,,,,,,,,,,,,,,,,,,,,,,,,,,,,,,,,,,,,,,,,,,,,,,,,,,,,,,,,,,,,,,,,,,,,,,,
,,613a8495a69273eee63740fe,2024-02-21_21h18.45.007,kallum_motion_pilot,2023.2.2,MacIntel,60.24096386,613a8495a69273eee63740fe,65d6bb0e977760de756971f7,65d6bcf8977760de7569722e,0.0731,0.0732,1,43,205,67,1,twofour,,,,,,,,,,,,,,,,,,,,,,,,,,,,,,,,,,,,,,,,,,,,,,,,,,,,,,,,,,,,,,,,,,,,,,,,,,,,,,,,,,,,,,,,,,,,,,,,,,,,,,,,,,,,,,,,,,,,,,,,,,,,,,,,,,,,,,,,,
,,613a8495a69273eee63740fe,2024-02-21_21h18.45.007,kallum_motion_pilot,2023.2.2,MacIntel,60.24096386,613a8495a69273eee63740fe,65d6bb0e977760de756971f7,65d6bcf8977760de7569722e,0.0734,0.0734,1,44,206,83,1,sixeight,,,,,,,,,,,,,,,,,,,,,,,,,,,,,,,,,,,,,,,,,,,,,,,,,,,,,,,,,,,,,,,,,,,,,,,,,,,,,,,,,,,,,,,,,,,,,,,,,,,,,,,,,,,,,,,,,,,,,,,,,,,,,,,,,,,,,,,,,
,,613a8495a69273eee63740fe,2024-02-21_21h18.45.007,kallum_motion_pilot,2023.2.2,MacIntel,60.24096386,613a8495a69273eee63740fe,65d6bb0e977760de756971f7,65d6bcf8977760de7569722e,0.0736,0.0736,1,45,207,17,1,onethree,,,,,,,,,,,,,,,,,,,,,,,,,,,,,,,,,,,,,,,,,,,,,,,,,,,,,,,,,,,,,,,,,,,,,,,,,,,,,,,,,,,,,,,,,,,,,,,,,,,,,,,,,,,,,,,,,,,,,,,,,,,,,,,,,,,,,,,,,
,,613a8495a69273eee63740fe,2024-02-21_21h18.45.007,kallum_motion_pilot,2023.2.2,MacIntel,60.24096386,613a8495a69273eee63740fe,65d6bb0e977760de756971f7,65d6bcf8977760de7569722e,0.0737,0.0738,1,46,208,144,1,fivesix,,,,,,,,,,,,,,,,,,,,,,,,,,,,,,,,,,,,,,,,,,,,,,,,,,,,,,,,,,,,,,,,,,,,,,,,,,,,,,,,,,,,,,,,,,,,,,,,,,,,,,,,,,,,,,,,,,,,,,,,,,,,,,,,,,,,,,,,,
,,613a8495a69273eee63740fe,2024-02-21_21h18.45.007,kallum_motion_pilot,2023.2.2,MacIntel,60.24096386,613a8495a69273eee63740fe,65d6bb0e977760de756971f7,65d6bcf8977760de7569722e,0.0739,0.0741,1,47,209,140,1,sevenfive,,,,,,,,,,,,,,,,,,,,,,,,,,,,,,,,,,,,,,,,,,,,,,,,,,,,,,,,,,,,,,,,,,,,,,,,,,,,,,,,,,,,,,,,,,,,,,,,,,,,,,,,,,,,,,,,,,,,,,,,,,,,,,,,,,,,,,,,,
,,613a8495a69273eee63740fe,2024-02-21_21h18.45.007,kallum_motion_pilot,2023.2.2,MacIntel,60.24096386,613a8495a69273eee63740fe,65d6bb0e977760de756971f7,65d6bcf8977760de7569722e,0.0742,0.0743,1,48,210,141,1,seveneight,,,,,,,,,,,,,,,,,,,,,,,,,,,,,,,,,,,,,,,,,,,,,,,,,,,,,,,,,,,,,,,,,,,,,,,,,,,,,,,,,,,,,,,,,,,,,,,,,,,,,,,,,,,,,,,,,,,,,,,,,,,,,,,,,,,,,,,,,
,,613a8495a69273eee63740fe,2024-02-21_21h18.45.007,kallum_motion_pilot,2023.2.2,MacIntel,60.24096386,613a8495a69273eee63740fe,65d6bb0e977760de756971f7,65d6bcf8977760de7569722e,0.0744,0.0746,1,49,211,41,1,onethree,,,,,,,,,,,,,,,,,,,,,,,,,,,,,,,,,,,,,,,,,,,,,,,,,,,,,,,,,,,,,,,,,,,,,,,,,,,,,,,,,,,,,,,,,,,,,,,,,,,,,,,,,,,,,,,,,,,,,,,,,,,,,,,,,,,,,,,,,
,,613a8495a69273eee63740fe,2024-02-21_21h18.45.007,kallum_motion_pilot,2023.2.2,MacIntel,60.24096386,613a8495a69273eee63740fe,65d6bb0e977760de756971f7,65d6bcf8977760de7569722e,0.0748,0.0749,1,50,212,89,1,fiveseven,,,,,,,,,,,,,,,,,,,,,,,,,,,,,,,,,,,,,,,,,,,,,,,,,,,,,,,,,,,,,,,,,,,,,,,,,,,,,,,,,,,,,,,,,,,,,,,,,,,,,,,,,,,,,,,,,,,,,,,,,,,,,,,,,,,,,,,,,
,,613a8495a69273eee63740fe,2024-02-21_21h18.45.007,kallum_motion_pilot,2023.2.2,MacIntel,60.24096386,613a8495a69273eee63740fe,65d6bb0e977760de756971f7,65d6bcf8977760de7569722e,0.075,0.0751,1,51,213,11,1,twofour,,,,,,,,,,,,,,,,,,,,,,,,,,,,,,,,,,,,,,,,,,,,,,,,,,,,,,,,,,,,,,,,,,,,,,,,,,,,,,,,,,,,,,,,,,,,,,,,,,,,,,,,,,,,,,,,,,,,,,,,,,,,,,,,,,,,,,,,,
,,613a8495a69273eee63740fe,2024-02-21_21h18.45.007,kallum_motion_pilot,2023.2.2,MacIntel,60.24096386,613a8495a69273eee63740fe,65d6bb0e977760de756971f7,65d6bcf8977760de7569722e,0.0754,0.0754,1,52,214,65,1,onethree,,,,,,,,,,,,,,,,,,,,,,,,,,,,,,,,,,,,,,,,,,,,,,,,,,,,,,,,,,,,,,,,,,,,,,,,,,,,,,,,,,,,,,,,,,,,,,,,,,,,,,,,,,,,,,,,,,,,,,,,,,,,,,,,,,,,,,,,,
,,613a8495a69273eee63740fe,2024-02-21_21h18.45.007,kallum_motion_pilot,2023.2.2,MacIntel,60.24096386,613a8495a69273eee63740fe,65d6bb0e977760de756971f7,65d6bcf8977760de7569722e,0.0756,0.0757,1,53,215,49,1,onethree,,,,,,,,,,,,,,,,,,,,,,,,,,,,,,,,,,,,,,,,,,,,,,,,,,,,,,,,,,,,,,,,,,,,,,,,,,,,,,,,,,,,,,,,,,,,,,,,,,,,,,,,,,,,,,,,,,,,,,,,,,,,,,,,,,,,,,,,,
,,613a8495a69273eee63740fe,2024-02-21_21h18.45.007,kallum_motion_pilot,2023.2.2,MacIntel,60.24096386,613a8495a69273eee63740fe,65d6bb0e977760de756971f7,65d6bcf8977760de7569722e,0.0758,0.0759,1,54,216,102,1,eightsix,,,,,,,,,,,,,,,,,,,,,,,,,,,,,,,,,,,,,,,,,,,,,,,,,,,,,,,,,,,,,,,,,,,,,,,,,,,,,,,,,,,,,,,,,,,,,,,,,,,,,,,,,,,,,,,,,,,,,,,,,,,,,,,,,,,,,,,,,
,,613a8495a69273eee63740fe,2024-02-21_21h18.45.007,kallum_motion_pilot,2023.2.2,MacIntel,60.24096386,613a8495a69273eee63740fe,65d6bb0e977760de756971f7,65d6bcf8977760de7569722e,0.0761,0.0762,1,55,217,90,1,sixfive,,,,,,,,,,,,,,,,,,,,,,,,,,,,,,,,,,,,,,,,,,,,,,,,,,,,,,,,,,,,,,,,,,,,,,,,,,,,,,,,,,,,,,,,,,,,,,,,,,,,,,,,,,,,,,,,,,,,,,,,,,,,,,,,,,,,,,,,,
,,613a8495a69273eee63740fe,2024-02-21_21h18.45.007,kallum_motion_pilot,2023.2.2,MacIntel,60.24096386,613a8495a69273eee63740fe,65d6bb0e977760de756971f7,65d6bcf8977760de7569722e,0.0763,0.0764,1,56,218,1,1,onethree,,,,,,,,,,,,,,,,,,,,,,,,,,,,,,,,,,,,,,,,,,,,,,,,,,,,,,,,,,,,,,,,,,,,,,,,,,,,,,,,,,,,,,,,,,,,,,,,,,,,,,,,,,,,,,,,,,,,,,,,,,,,,,,,,,,,,,,,,
,,613a8495a69273eee63740fe,2024-02-21_21h18.45.007,kallum_motion_pilot,2023.2.2,MacIntel,60.24096386,613a8495a69273eee63740fe,65d6bb0e977760de756971f7,65d6bcf8977760de7569722e,0.0765,0.0767,1,57,219,132,1,sevenfive,,,,,,,,,,,,,,,,,,,,,,,,,,,,,,,,,,,,,,,,,,,,,,,,,,,,,,,,,,,,,,,,,,,,,,,,,,,,,,,,,,,,,,,,,,,,,,,,,,,,,,,,,,,,,,,,,,,,,,,,,,,,,,,,,,,,,,,,,
,,613a8495a69273eee63740fe,2024-02-21_21h18.45.007,kallum_motion_pilot,2023.2.2,MacIntel,60.24096386,613a8495a69273eee63740fe,65d6bb0e977760de756971f7,65d6bcf8977760de7569722e,0.0768,0.0769,1,58,220,113,1,fiveseven,,,,,,,,,,,,,,,,,,,,,,,,,,,,,,,,,,,,,,,,,,,,,,,,,,,,,,,,,,,,,,,,,,,,,,,,,,,,,,,,,,,,,,,,,,,,,,,,,,,,,,,,,,,,,,,,,,,,,,,,,,,,,,,,,,,,,,,,,
,,613a8495a69273eee63740fe,2024-02-21_21h18.45.007,kallum_motion_pilot,2023.2.2,MacIntel,60.24096386,613a8495a69273eee63740fe,65d6bb0e977760de756971f7,65d6bcf8977760de7569722e,0.077,0.0771,1,59,221,78,1,fourtwo,,,,,,,,,,,,,,,,,,,,,,,,,,,,,,,,,,,,,,,,,,,,,,,,,,,,,,,,,,,,,,,,,,,,,,,,,,,,,,,,,,,,,,,,,,,,,,,,,,,,,,,,,,,,,,,,,,,,,,,,,,,,,,,,,,,,,,,,,
,,613a8495a69273eee63740fe,2024-02-21_21h18.45.007,kallum_motion_pilot,2023.2.2,MacIntel,60.24096386,613a8495a69273eee63740fe,65d6bb0e977760de756971f7,65d6bcf8977760de7569722e,0.0773,0.0774,1,60,222,76,1,threeone,,,,,,,,,,,,,,,,,,,,,,,,,,,,,,,,,,,,,,,,,,,,,,,,,,,,,,,,,,,,,,,,,,,,,,,,,,,,,,,,,,,,,,,,,,,,,,,,,,,,,,,,,,,,,,,,,,,,,,,,,,,,,,,,,,,,,,,,,
,,613a8495a69273eee63740fe,2024-02-21_21h18.45.007,kallum_motion_pilot,2023.2.2,MacIntel,60.24096386,613a8495a69273eee63740fe,65d6bb0e977760de756971f7,65d6bcf8977760de7569722e,0.0775,0.0775,1,61,223,150,1,eightsix,,,,,,,,,,,,,,,,,,,,,,,,,,,,,,,,,,,,,,,,,,,,,,,,,,,,,,,,,,,,,,,,,,,,,,,,,,,,,,,,,,,,,,,,,,,,,,,,,,,,,,,,,,,,,,,,,,,,,,,,,,,,,,,,,,,,,,,,,
,,613a8495a69273eee63740fe,2024-02-21_21h18.45.007,kallum_motion_pilot,2023.2.2,MacIntel,60.24096386,613a8495a69273eee63740fe,65d6bb0e977760de756971f7,65d6bcf8977760de7569722e,0.0777,0.0779,1,62,224,13,1,threefour,,,,,,,,,,,,,,,,,,,,,,,,,,,,,,,,,,,,,,,,,,,,,,,,,,,,,,,,,,,,,,,,,,,,,,,,,,,,,,,,,,,,,,,,,,,,,,,,,,,,,,,,,,,,,,,,,,,,,,,,,,,,,,,,,,,,,,,,,
,,613a8495a69273eee63740fe,2024-02-21_21h18.45.007,kallum_motion_pilot,2023.2.2,MacIntel,60.24096386,613a8495a69273eee63740fe,65d6bb0e977760de756971f7,65d6bcf8977760de7569722e,0.078,0.078,1,63,225,6,1,fourtwo,,,,,,,,,,,,,,,,,,,,,,,,,,,,,,,,,,,,,,,,,,,,,,,,,,,,,,,,,,,,,,,,,,,,,,,,,,,,,,,,,,,,,,,,,,,,,,,,,,,,,,,,,,,,,,,,,,,,,,,,,,,,,,,,,,,,,,,,,
,,613a8495a69273eee63740fe,2024-02-21_21h18.45.007,kallum_motion_pilot,2023.2.2,MacIntel,60.24096386,613a8495a69273eee63740fe,65d6bb0e977760de756971f7,65d6bcf8977760de7569722e,0.0783,0.0783,1,64,226,79,1,eightseven,,,,,,,,,,,,,,,,,,,,,,,,,,,,,,,,,,,,,,,,,,,,,,,,,,,,,,,,,,,,,,,,,,,,,,,,,,,,,,,,,,,,,,,,,,,,,,,,,,,,,,,,,,,,,,,,,,,,,,,,,,,,,,,,,,,,,,,,,
,,613a8495a69273eee63740fe,2024-02-21_21h18.45.007,kallum_motion_pilot,2023.2.2,MacIntel,60.24096386,613a8495a69273eee63740fe,65d6bb0e977760de756971f7,65d6bcf8977760de7569722e,0.0785,0.0785,1,65,227,96,1,fivesix,,,,,,,,,,,,,,,,,,,,,,,,,,,,,,,,,,,,,,,,,,,,,,,,,,,,,,,,,,,,,,,,,,,,,,,,,,,,,,,,,,,,,,,,,,,,,,,,,,,,,,,,,,,,,,,,,,,,,,,,,,,,,,,,,,,,,,,,,
,,613a8495a69273eee63740fe,2024-02-21_21h18.45.007,kallum_motion_pilot,2023.2.2,MacIntel,60.24096386,613a8495a69273eee63740fe,65d6bb0e977760de756971f7,65d6bcf8977760de7569722e,0.0788,0.0788,1,66,228,22,1,fourtwo,,,,,,,,,,,,,,,,,,,,,,,,,,,,,,,,,,,,,,,,,,,,,,,,,,,,,,,,,,,,,,,,,,,,,,,,,,,,,,,,,,,,,,,,,,,,,,,,,,,,,,,,,,,,,,,,,,,,,,,,,,,,,,,,,,,,,,,,,
,,613a8495a69273eee63740fe,2024-02-21_21h18.45.007,kallum_motion_pilot,2023.2.2,MacIntel,60.24096386,613a8495a69273eee63740fe,65d6bb0e977760de756971f7,65d6bcf8977760de7569722e,0.079,0.079,1,67,229,32,1,onetwo,,,,,,,,,,,,,,,,,,,,,,,,,,,,,,,,,,,,,,,,,,,,,,,,,,,,,,,,,,,,,,,,,,,,,,,,,,,,,,,,,,,,,,,,,,,,,,,,,,,,,,,,,,,,,,,,,,,,,,,,,,,,,,,,,,,,,,,,,
,,613a8495a69273eee63740fe,2024-02-21_21h18.45.007,kallum_motion_pilot,2023.2.2,MacIntel,60.24096386,613a8495a69273eee63740fe,65d6bb0e977760de756971f7,65d6bcf8977760de7569722e,0.0792,0.0793,1,68,230,125,1,seveneight,,,,,,,,,,,,,,,,,,,,,,,,,,,,,,,,,,,,,,,,,,,,,,,,,,,,,,,,,,,,,,,,,,,,,,,,,,,,,,,,,,,,,,,,,,,,,,,,,,,,,,,,,,,,,,,,,,,,,,,,,,,,,,,,,,,,,,,,,
,,613a8495a69273eee63740fe,2024-02-21_21h18.45.007,kallum_motion_pilot,2023.2.2,MacIntel,60.24096386,613a8495a69273eee63740fe,65d6bb0e977760de756971f7,65d6bcf8977760de7569722e,0.0794,0.0795,1,69,231,35,1,twofour,,,,,,,,,,,,,,,,,,,,,,,,,,,,,,,,,,,,,,,,,,,,,,,,,,,,,,,,,,,,,,,,,,,,,,,,,,,,,,,,,,,,,,,,,,,,,,,,,,,,,,,,,,,,,,,,,,,,,,,,,,,,,,,,,,,,,,,,,
,,613a8495a69273eee63740fe,2024-02-21_21h18.45.007,kallum_motion_pilot,2023.2.2,MacIntel,60.24096386,613a8495a69273eee63740fe,65d6bb0e977760de756971f7,65d6bcf8977760de7569722e,0.0797,0.0798,1,70,232,24,1,onetwo,,,,,,,,,,,,,,,,,,,,,,,,,,,,,,,,,,,,,,,,,,,,,,,,,,,,,,,,,,,,,,,,,,,,,,,,,,,,,,,,,,,,,,,,,,,,,,,,,,,,,,,,,,,,,,,,,,,,,,,,,,,,,,,,,,,,,,,,,
,,613a8495a69273eee63740fe,2024-02-21_21h18.45.007,kallum_motion_pilot,2023.2.2,MacIntel,60.24096386,613a8495a69273eee63740fe,65d6bb0e977760de756971f7,65d6bcf8977760de7569722e,0.08,0.0802,1,71,233,117,1,seveneight,,,,,,,,,,,,,,,,,,,,,,,,,,,,,,,,,,,,,,,,,,,,,,,,,,,,,,,,,,,,,,,,,,,,,,,,,,,,,,,,,,,,,,,,,,,,,,,,,,,,,,,,,,,,,,,,,,,,,,,,,,,,,,,,,,,,,,,,,
,,613a8495a69273eee63740fe,2024-02-21_21h18.45.007,kallum_motion_pilot,2023.2.2,MacIntel,60.24096386,613a8495a69273eee63740fe,65d6bb0e977760de756971f7,65d6bcf8977760de7569722e,0.0802,0.0805,1,72,234,131,1,sixeight,,,,,,,,,,,,,,,,,,,,,,,,,,,,,,,,,,,,,,,,,,,,,,,,,,,,,,,,,,,,,,,,,,,,,,,,,,,,,,,,,,,,,,,,,,,,,,,,,,,,,,,,,,,,,,,,,,,,,,,,,,,,,,,,,,,,,,,,,
,,613a8495a69273eee63740fe,2024-02-21_21h18.45.007,kallum_motion_pilot,2023.2.2,MacIntel,60.24096386,613a8495a69273eee63740fe,65d6bb0e977760de756971f7,65d6bcf8977760de7569722e,0.0807,0.0813,1,73,235,111,1,eightseven,,,,,,,,,,,,,,,,,,,,,,,,,,,,,,,,,,,,,,,,,,,,,,,,,,,,,,,,,,,,,,,,,,,,,,,,,,,,,,,,,,,,,,,,,,,,,,,,,,,,,,,,,,,,,,,,,,,,,,,,,,,,,,,,,,,,,,,,,
,,613a8495a69273eee63740fe,2024-02-21_21h18.45.007,kallum_motion_pilot,2023.2.2,MacIntel,60.24096386,613a8495a69273eee63740fe,65d6bb0e977760de756971f7,65d6bcf8977760de7569722e,0.0815,0.0816,1,74,236,66,1,twoone,,,,,,,,,,,,,,,,,,,,,,,,,,,,,,,,,,,,,,,,,,,,,,,,,,,,,,,,,,,,,,,,,,,,,,,,,,,,,,,,,,,,,,,,,,,,,,,,,,,,,,,,,,,,,,,,,,,,,,,,,,,,,,,,,,,,,,,,,
,,613a8495a69273eee63740fe,2024-02-21_21h18.45.007,kallum_motion_pilot,2023.2.2,MacIntel,60.24096386,613a8495a69273eee63740fe,65d6bb0e977760de756971f7,65d6bcf8977760de7569722e,0.0818,0.0819,1,75,237,12,1,threeone,,,,,,,,,,,,,,,,,,,,,,,,,,,,,,,,,,,,,,,,,,,,,,,,,,,,,,,,,,,,,,,,,,,,,,,,,,,,,,,,,,,,,,,,,,,,,,,,,,,,,,,,,,,,,,,,,,,,,,,,,,,,,,,,,,,,,,,,,
,,613a8495a69273eee63740fe,2024-02-21_21h18.45.007,kallum_motion_pilot,2023.2.2,MacIntel,60.24096386,613a8495a69273eee63740fe,65d6bb0e977760de756971f7,65d6bcf8977760de7569722e,0.0822,0.0823,1,76,238,152,1,fivesix,,,,,,,,,,,,,,,,,,,,,,,,,,,,,,,,,,,,,,,,,,,,,,,,,,,,,,,,,,,,,,,,,,,,,,,,,,,,,,,,,,,,,,,,,,,,,,,,,,,,,,,,,,,,,,,,,,,,,,,,,,,,,,,,,,,,,,,,,
,,613a8495a69273eee63740fe,2024-02-21_21h18.45.007,kallum_motion_pilot,2023.2.2,MacIntel,60.24096386,613a8495a69273eee63740fe,65d6bb0e977760de756971f7,65d6bcf8977760de7569722e,0.0825,0.0825,1,77,239,18,1,twoone,,,,,,,,,,,,,,,,,,,,,,,,,,,,,,,,,,,,,,,,,,,,,,,,,,,,,,,,,,,,,,,,,,,,,,,,,,,,,,,,,,,,,,,,,,,,,,,,,,,,,,,,,,,,,,,,,,,,,,,,,,,,,,,,,,,,,,,,,
,,613a8495a69273eee63740fe,2024-02-21_21h18.45.007,kallum_motion_pilot,2023.2.2,MacIntel,60.24096386,613a8495a69273eee63740fe,65d6bb0e977760de756971f7,65d6bcf8977760de7569722e,0.0828,0.0828,1,78,240,68,1,threeone,,,,,,,,,,,,,,,,,,,,,,,,,,,,,,,,,,,,,,,,,,,,,,,,,,,,,,,,,,,,,,,,,,,,,,,,,,,,,,,,,,,,,,,,,,,,,,,,,,,,,,,,,,,,,,,,,,,,,,,,,,,,,,,,,,,,,,,,,
,,613a8495a69273eee63740fe,2024-02-21_21h18.45.007,kallum_motion_pilot,2023.2.2,MacIntel,60.24096386,613a8495a69273eee63740fe,65d6bb0e977760de756971f7,65d6bcf8977760de7569722e,0.083,0.083,1,79,241,10,1,twoone,,,,,,,,,,,,,,,,,,,,,,,,,,,,,,,,,,,,,,,,,,,,,,,,,,,,,,,,,,,,,,,,,,,,,,,,,,,,,,,,,,,,,,,,,,,,,,,,,,,,,,,,,,,,,,,,,,,,,,,,,,,,,,,,,,,,,,,,,
,,613a8495a69273eee63740fe,2024-02-21_21h18.45.007,kallum_motion_pilot,2023.2.2,MacIntel,60.24096386,613a8495a69273eee63740fe,65d6bb0e977760de756971f7,65d6bcf8977760de7569722e,0.0832,0.0834,1,80,242,93,1,seveneight,,,,,,,,,,,,,,,,,,,,,,,,,,,,,,,,,,,,,,,,,,,,,,,,,,,,,,,,,,,,,,,,,,,,,,,,,,,,,,,,,,,,,,,,,,,,,,,,,,,,,,,,,,,,,,,,,,,,,,,,,,,,,,,,,,,,,,,,,
,,613a8495a69273eee63740fe,2024-02-21_21h18.45.007,kallum_motion_pilot,2023.2.2,MacIntel,60.24096386,613a8495a69273eee63740fe,65d6bb0e977760de756971f7,65d6bcf8977760de7569722e,0.0835,0.0836,1,81,243,129,1,fiveseven,,,,,,,,,,,,,,,,,,,,,,,,,,,,,,,,,,,,,,,,,,,,,,,,,,,,,,,,,,,,,,,,,,,,,,,,,,,,,,,,,,,,,,,,,,,,,,,,,,,,,,,,,,,,,,,,,,,,,,,,,,,,,,,,,,,,,,,,,
,,613a8495a69273eee63740fe,2024-02-21_21h18.45.007,kallum_motion_pilot,2023.2.2,MacIntel,60.24096386,613a8495a69273eee63740fe,65d6bb0e977760de756971f7,65d6bcf8977760de7569722e,0.0837,0.0838,1,82,244,38,1,fourtwo,,,,,,,,,,,,,,,,,,,,,,,,,,,,,,,,,,,,,,,,,,,,,,,,,,,,,,,,,,,,,,,,,,,,,,,,,,,,,,,,,,,,,,,,,,,,,,,,,,,,,,,,,,,,,,,,,,,,,,,,,,,,,,,,,,,,,,,,,
,,613a8495a69273eee63740fe,2024-02-21_21h18.45.007,kallum_motion_pilot,2023.2.2,MacIntel,60.24096386,613a8495a69273eee63740fe,65d6bb0e977760de756971f7,65d6bcf8977760de7569722e,0.084,0.084,1,83,245,71,1,fourthree,,,,,,,,,,,,,,,,,,,,,,,,,,,,,,,,,,,,,,,,,,,,,,,,,,,,,,,,,,,,,,,,,,,,,,,,,,,,,,,,,,,,,,,,,,,,,,,,,,,,,,,,,,,,,,,,,,,,,,,,,,,,,,,,,,,,,,,,,
,,613a8495a69273eee63740fe,2024-02-21_21h18.45.007,kallum_motion_pilot,2023.2.2,MacIntel,60.24096386,613a8495a69273eee63740fe,65d6bb0e977760de756971f7,65d6bcf8977760de7569722e,0.0841,0.0842,1,84,246,2,1,twoone,,,,,,,,,,,,,,,,,,,,,,,,,,,,,,,,,,,,,,,,,,,,,,,,,,,,,,,,,,,,,,,,,,,,,,,,,,,,,,,,,,,,,,,,,,,,,,,,,,,,,,,,,,,,,,,,,,,,,,,,,,,,,,,,,,,,,,,,,
,,613a8495a69273eee63740fe,2024-02-21_21h18.45.007,kallum_motion_pilot,2023.2.2,MacIntel,60.24096386,613a8495a69273eee63740fe,65d6bb0e977760de756971f7,65d6bcf8977760de7569722e,0.0843,0.0844,1,85,247,135,1,eightseven,,,,,,,,,,,,,,,,,,,,,,,,,,,,,,,,,,,,,,,,,,,,,,,,,,,,,,,,,,,,,,,,,,,,,,,,,,,,,,,,,,,,,,,,,,,,,,,,,,,,,,,,,,,,,,,,,,,,,,,,,,,,,,,,,,,,,,,,,
,,613a8495a69273eee63740fe,2024-02-21_21h18.45.007,kallum_motion_pilot,2023.2.2,MacIntel,60.24096386,613a8495a69273eee63740fe,65d6bb0e977760de756971f7,65d6bcf8977760de7569722e,0.0845,0.0845,1,86,248,58,1,twoone,,,,,,,,,,,,,,,,,,,,,,,,,,,,,,,,,,,,,,,,,,,,,,,,,,,,,,,,,,,,,,,,,,,,,,,,,,,,,,,,,,,,,,,,,,,,,,,,,,,,,,,,,,,,,,,,,,,,,,,,,,,,,,,,,,,,,,,,,
,,613a8495a69273eee63740fe,2024-02-21_21h18.45.007,kallum_motion_pilot,2023.2.2,MacIntel,60.24096386,613a8495a69273eee63740fe,65d6bb0e977760de756971f7,65d6bcf8977760de7569722e,0.0848,0.085,1,87,249,112,1,fivesix,,,,,,,,,,,,,,,,,,,,,,,,,,,,,,,,,,,,,,,,,,,,,,,,,,,,,,,,,,,,,,,,,,,,,,,,,,,,,,,,,,,,,,,,,,,,,,,,,,,,,,,,,,,,,,,,,,,,,,,,,,,,,,,,,,,,,,,,,
,,613a8495a69273eee63740fe,2024-02-21_21h18.45.007,kallum_motion_pilot,2023.2.2,MacIntel,60.24096386,613a8495a69273eee63740fe,65d6bb0e977760de756971f7,65d6bcf8977760de7569722e,0.0851,0.0852,1,88,250,54,1,fourtwo,,,,,,,,,,,,,,,,,,,,,,,,,,,,,,,,,,,,,,,,,,,,,,,,,,,,,,,,,,,,,,,,,,,,,,,,,,,,,,,,,,,,,,,,,,,,,,,,,,,,,,,,,,,,,,,,,,,,,,,,,,,,,,,,,,,,,,,,,
,,613a8495a69273eee63740fe,2024-02-21_21h18.45.007,kallum_motion_pilot,2023.2.2,MacIntel,60.24096386,613a8495a69273eee63740fe,65d6bb0e977760de756971f7,65d6bcf8977760de7569722e,0.0854,0.0854,1,89,251,122,1,sixfive,,,,,,,,,,,,,,,,,,,,,,,,,,,,,,,,,,,,,,,,,,,,,,,,,,,,,,,,,,,,,,,,,,,,,,,,,,,,,,,,,,,,,,,,,,,,,,,,,,,,,,,,,,,,,,,,,,,,,,,,,,,,,,,,,,,,,,,,,
,,613a8495a69273eee63740fe,2024-02-21_21h18.45.007,kallum_motion_pilot,2023.2.2,MacIntel,60.24096386,613a8495a69273eee63740fe,65d6bb0e977760de756971f7,65d6bcf8977760de7569722e,0.0856,0.0857,1,90,252,39,1,fourthree,,,,,,,,,,,,,,,,,,,,,,,,,,,,,,,,,,,,,,,,,,,,,,,,,,,,,,,,,,,,,,,,,,,,,,,,,,,,,,,,,,,,,,,,,,,,,,,,,,,,,,,,,,,,,,,,,,,,,,,,,,,,,,,,,,,,,,,,,
,,613a8495a69273eee63740fe,2024-02-21_21h18.45.007,kallum_motion_pilot,2023.2.2,MacIntel,60.24096386,613a8495a69273eee63740fe,65d6bb0e977760de756971f7,65d6bcf8977760de7569722e,0.0859,0.0859,1,91,253,130,1,sixfive,,,,,,,,,,,,,,,,,,,,,,,,,,,,,,,,,,,,,,,,,,,,,,,,,,,,,,,,,,,,,,,,,,,,,,,,,,,,,,,,,,,,,,,,,,,,,,,,,,,,,,,,,,,,,,,,,,,,,,,,,,,,,,,,,,,,,,,,,
,,613a8495a69273eee63740fe,2024-02-21_21h18.45.007,kallum_motion_pilot,2023.2.2,MacIntel,60.24096386,613a8495a69273eee63740fe,65d6bb0e977760de756971f7,65d6bcf8977760de7569722e,0.086,0.0861,1,92,254,99,1,sixeight,,,,,,,,,,,,,,,,,,,,,,,,,,,,,,,,,,,,,,,,,,,,,,,,,,,,,,,,,,,,,,,,,,,,,,,,,,,,,,,,,,,,,,,,,,,,,,,,,,,,,,,,,,,,,,,,,,,,,,,,,,,,,,,,,,,,,,,,,
,,613a8495a69273eee63740fe,2024-02-21_21h18.45.007,kallum_motion_pilot,2023.2.2,MacIntel,60.24096386,613a8495a69273eee63740fe,65d6bb0e977760de756971f7,65d6bcf8977760de7569722e,0.0865,0.0866,1,93,255,134,1,eightsix,,,,,,,,,,,,,,,,,,,,,,,,,,,,,,,,,,,,,,,,,,,,,,,,,,,,,,,,,,,,,,,,,,,,,,,,,,,,,,,,,,,,,,,,,,,,,,,,,,,,,,,,,,,,,,,,,,,,,,,,,,,,,,,,,,,,,,,,,
,,613a8495a69273eee63740fe,2024-02-21_21h18.45.007,kallum_motion_pilot,2023.2.2,MacIntel,60.24096386,613a8495a69273eee63740fe,65d6bb0e977760de756971f7,65d6bcf8977760de7569722e,0.0867,0.087,1,94,256,50,1,twoone,,,,,,,,,,,,,,,,,,,,,,,,,,,,,,,,,,,,,,,,,,,,,,,,,,,,,,,,,,,,,,,,,,,,,,,,,,,,,,,,,,,,,,,,,,,,,,,,,,,,,,,,,,,,,,,,,,,,,,,,,,,,,,,,,,,,,,,,,
,,613a8495a69273eee63740fe,2024-02-21_21h18.45.007,kallum_motion_pilot,2023.2.2,MacIntel,60.24096386,613a8495a69273eee63740fe,65d6bb0e977760de756971f7,65d6bcf8977760de7569722e,0.0871,0.0873,1,95,257,48,1,onetwo,,,,,,,,,,,,,,,,,,,,,,,,,,,,,,,,,,,,,,,,,,,,,,,,,,,,,,,,,,,,,,,,,,,,,,,,,,,,,,,,,,,,,,,,,,,,,,,,,,,,,,,,,,,,,,,,,,,,,,,,,,,,,,,,,,,,,,,,,
,,613a8495a69273eee63740fe,2024-02-21_21h18.45.007,kallum_motion_pilot,2023.2.2,MacIntel,60.24096386,613a8495a69273eee63740fe,65d6bb0e977760de756971f7,65d6bcf8977760de7569722e,0.0874,0.0875,1,96,258,29,1,threefour,,,,,,,,,,,,,,,,,,,,,,,,,,,,,,,,,,,,,,,,,,,,,,,,,,,,,,,,,,,,,,,,,,,,,,,,,,,,,,,,,,,,,,,,,,,,,,,,,,,,,,,,,,,,,,,,,,,,,,,,,,,,,,,,,,,,,,,,,
,,613a8495a69273eee63740fe,2024-02-21_21h18.45.007,kallum_motion_pilot,2023.2.2,MacIntel,60.24096386,613a8495a69273eee63740fe,65d6bb0e977760de756971f7,65d6bcf8977760de7569722e,0.0876,0.0877,1,97,259,151,1,eightseven,,,,,,,,,,,,,,,,,,,,,,,,,,,,,,,,,,,,,,,,,,,,,,,,,,,,,,,,,,,,,,,,,,,,,,,,,,,,,,,,,,,,,,,,,,,,,,,,,,,,,,,,,,,,,,,,,,,,,,,,,,,,,,,,,,,,,,,,,
,,613a8495a69273eee63740fe,2024-02-21_21h18.45.007,kallum_motion_pilot,2023.2.2,MacIntel,60.24096386,613a8495a69273eee63740fe,65d6bb0e977760de756971f7,65d6bcf8977760de7569722e,0.0878,0.088,1,98,260,116,1,sevenfive,,,,,,,,,,,,,,,,,,,,,,,,,,,,,,,,,,,,,,,,,,,,,,,,,,,,,,,,,,,,,,,,,,,,,,,,,,,,,,,,,,,,,,,,,,,,,,,,,,,,,,,,,,,,,,,,,,,,,,,,,,,,,,,,,,,,,,,,,
,,613a8495a69273eee63740fe,2024-02-21_21h18.45.007,kallum_motion_pilot,2023.2.2,MacIntel,60.24096386,613a8495a69273eee63740fe,65d6bb0e977760de756971f7,65d6bcf8977760de7569722e,0.088,0.0881,1,99,261,139,1,sixeight,,,,,,,,,,,,,,,,,,,,,,,,,,,,,,,,,,,,,,,,,,,,,,,,,,,,,,,,,,,,,,,,,,,,,,,,,,,,,,,,,,,,,,,,,,,,,,,,,,,,,,,,,,,,,,,,,,,,,,,,,,,,,,,,,,,,,,,,,
,,613a8495a69273eee63740fe,2024-02-21_21h18.45.007,kallum_motion_pilot,2023.2.2,MacIntel,60.24096386,613a8495a69273eee63740fe,65d6bb0e977760de756971f7,65d6bcf8977760de7569722e,0.0883,0.0884,1,100,262,97,1,fiveseven,,,,,,,,,,,,,,,,,,,,,,,,,,,,,,,,,,,,,,,,,,,,,,,,,,,,,,,,,,,,,,,,,,,,,,,,,,,,,,,,,,,,,,,,,,,,,,,,,,,,,,,,,,,,,,,,,,,,,,,,,,,,,,,,,,,,,,,,,
,,613a8495a69273eee63740fe,2024-02-21_21h18.45.007,kallum_motion_pilot,2023.2.2,MacIntel,60.24096386,613a8495a69273eee63740fe,65d6bb0e977760de756971f7,65d6bcf8977760de7569722e,0.0885,0.0887,1,101,263,61,1,threefour,,,,,,,,,,,,,,,,,,,,,,,,,,,,,,,,,,,,,,,,,,,,,,,,,,,,,,,,,,,,,,,,,,,,,,,,,,,,,,,,,,,,,,,,,,,,,,,,,,,,,,,,,,,,,,,,,,,,,,,,,,,,,,,,,,,,,,,,,
,,613a8495a69273eee63740fe,2024-02-21_21h18.45.007,kallum_motion_pilot,2023.2.2,MacIntel,60.24096386,613a8495a69273eee63740fe,65d6bb0e977760de756971f7,65d6bcf8977760de7569722e,0.0889,0.089,1,102,264,33,1,onethree,,,,,,,,,,,,,,,,,,,,,,,,,,,,,,,,,,,,,,,,,,,,,,,,,,,,,,,,,,,,,,,,,,,,,,,,,,,,,,,,,,,,,,,,,,,,,,,,,,,,,,,,,,,,,,,,,,,,,,,,,,,,,,,,,,,,,,,,,
,,613a8495a69273eee63740fe,2024-02-21_21h18.45.007,kallum_motion_pilot,2023.2.2,MacIntel,60.24096386,613a8495a69273eee63740fe,65d6bb0e977760de756971f7,65d6bcf8977760de7569722e,0.0892,0.0893,1,103,265,149,1,seveneight,,,,,,,,,,,,,,,,,,,,,,,,,,,,,,,,,,,,,,,,,,,,,,,,,,,,,,,,,,,,,,,,,,,,,,,,,,,,,,,,,,,,,,,,,,,,,,,,,,,,,,,,,,,,,,,,,,,,,,,,,,,,,,,,,,,,,,,,,
,,613a8495a69273eee63740fe,2024-02-21_21h18.45.007,kallum_motion_pilot,2023.2.2,MacIntel,60.24096386,613a8495a69273eee63740fe,65d6bb0e977760de756971f7,65d6bcf8977760de7569722e,0.0895,0.0896,1,104,266,46,1,fourtwo,,,,,,,,,,,,,,,,,,,,,,,,,,,,,,,,,,,,,,,,,,,,,,,,,,,,,,,,,,,,,,,,,,,,,,,,,,,,,,,,,,,,,,,,,,,,,,,,,,,,,,,,,,,,,,,,,,,,,,,,,,,,,,,,,,,,,,,,,
,,613a8495a69273eee63740fe,2024-02-21_21h18.45.007,kallum_motion_pilot,2023.2.2,MacIntel,60.24096386,613a8495a69273eee63740fe,65d6bb0e977760de756971f7,65d6bcf8977760de7569722e,0.0896,0.0897,1,105,267,37,1,threefour,,,,,,,,,,,,,,,,,,,,,,,,,,,,,,,,,,,,,,,,,,,,,,,,,,,,,,,,,,,,,,,,,,,,,,,,,,,,,,,,,,,,,,,,,,,,,,,,,,,,,,,,,,,,,,,,,,,,,,,,,,,,,,,,,,,,,,,,,
,,613a8495a69273eee63740fe,2024-02-21_21h18.45.007,kallum_motion_pilot,2023.2.2,MacIntel,60.24096386,613a8495a69273eee63740fe,65d6bb0e977760de756971f7,65d6bcf8977760de7569722e,0.0899,0.0899,1,106,268,4,1,threeone,,,,,,,,,,,,,,,,,,,,,,,,,,,,,,,,,,,,,,,,,,,,,,,,,,,,,,,,,,,,,,,,,,,,,,,,,,,,,,,,,,,,,,,,,,,,,,,,,,,,,,,,,,,,,,,,,,,,,,,,,,,,,,,,,,,,,,,,,
,,613a8495a69273eee63740fe,2024-02-21_21h18.45.007,kallum_motion_pilot,2023.2.2,MacIntel,60.24096386,613a8495a69273eee63740fe,65d6bb0e977760de756971f7,65d6bcf8977760de7569722e,0.0901,0.0902,1,107,269,105,1,fiveseven,,,,,,,,,,,,,,,,,,,,,,,,,,,,,,,,,,,,,,,,,,,,,,,,,,,,,,,,,,,,,,,,,,,,,,,,,,,,,,,,,,,,,,,,,,,,,,,,,,,,,,,,,,,,,,,,,,,,,,,,,,,,,,,,,,,,,,,,,
,,613a8495a69273eee63740fe,2024-02-21_21h18.45.007,kallum_motion_pilot,2023.2.2,MacIntel,60.24096386,613a8495a69273eee63740fe,65d6bb0e977760de756971f7,65d6bcf8977760de7569722e,0.0903,0.0904,1,108,270,103,1,eightseven,,,,,,,,,,,,,,,,,,,,,,,,,,,,,,,,,,,,,,,,,,,,,,,,,,,,,,,,,,,,,,,,,,,,,,,,,,,,,,,,,,,,,,,,,,,,,,,,,,,,,,,,,,,,,,,,,,,,,,,,,,,,,,,,,,,,,,,,,
,,613a8495a69273eee63740fe,2024-02-21_21h18.45.007,kallum_motion_pilot,2023.2.2,MacIntel,60.24096386,613a8495a69273eee63740fe,65d6bb0e977760de756971f7,65d6bcf8977760de7569722e,0.0905,0.0907,1,109,271,156,1,sevenfive,,,,,,,,,,,,,,,,,,,,,,,,,,,,,,,,,,,,,,,,,,,,,,,,,,,,,,,,,,,,,,,,,,,,,,,,,,,,,,,,,,,,,,,,,,,,,,,,,,,,,,,,,,,,,,,,,,,,,,,,,,,,,,,,,,,,,,,,,
,,613a8495a69273eee63740fe,2024-02-21_21h18.45.007,kallum_motion_pilot,2023.2.2,MacIntel,60.24096386,613a8495a69273eee63740fe,65d6bb0e977760de756971f7,65d6bcf8977760de7569722e,0.0908,0.0909,1,110,272,7,1,fourthree,,,,,,,,,,,,,,,,,,,,,,,,,,,,,,,,,,,,,,,,,,,,,,,,,,,,,,,,,,,,,,,,,,,,,,,,,,,,,,,,,,,,,,,,,,,,,,,,,,,,,,,,,,,,,,,,,,,,,,,,,,,,,,,,,,,,,,,,,
,,613a8495a69273eee63740fe,2024-02-21_21h18.45.007,kallum_motion_pilot,2023.2.2,MacIntel,60.24096386,613a8495a69273eee63740fe,65d6bb0e977760de756971f7,65d6bcf8977760de7569722e,0.091,0.0911,1,111,273,127,1,eightseven,,,,,,,,,,,,,,,,,,,,,,,,,,,,,,,,,,,,,,,,,,,,,,,,,,,,,,,,,,,,,,,,,,,,,,,,,,,,,,,,,,,,,,,,,,,,,,,,,,,,,,,,,,,,,,,,,,,,,,,,,,,,,,,,,,,,,,,,,
,,613a8495a69273eee63740fe,2024-02-21_21h18.45.007,kallum_motion_pilot,2023.2.2,MacIntel,60.24096386,613a8495a69273eee63740fe,65d6bb0e977760de756971f7,65d6bcf8977760de7569722e,0.0912,0.0913,1,112,274,88,1,fivesix,,,,,,,,,,,,,,,,,,,,,,,,,,,,,,,,,,,,,,,,,,,,,,,,,,,,,,,,,,,,,,,,,,,,,,,,,,,,,,,,,,,,,,,,,,,,,,,,,,,,,,,,,,,,,,,,,,,,,,,,,,,,,,,,,,,,,,,,,
,,613a8495a69273eee63740fe,2024-02-21_21h18.45.007,kallum_motion_pilot,2023.2.2,MacIntel,60.24096386,613a8495a69273eee63740fe,65d6bb0e977760de756971f7,65d6bcf8977760de7569722e,0.0915,0.0916,1,113,275,14,1,fourtwo,,,,,,,,,,,,,,,,,,,,,,,,,,,,,,,,,,,,,,,,,,,,,,,,,,,,,,,,,,,,,,,,,,,,,,,,,,,,,,,,,,,,,,,,,,,,,,,,,,,,,,,,,,,,,,,,,,,,,,,,,,,,,,,,,,,,,,,,,
