startup.started,startup.stopped,Prolific ID*,date,expName,psychopyVersion,OS,frameRate,participant,study_id,session,stimpositions.started,stimpositions.stopped,hardcoded_stimulus_positions.thisRepN,hardcoded_stimulus_positions.thisTrialN,hardcoded_stimulus_positions.thisN,hardcoded_stimulus_positions.thisIndex,hardcoded_stimulus_positions.ran,StimulusPos,stimorientation.started,stimorientation.stopped,prac_stimorientation_import_loop.thisRepN,prac_stimorientation_import_loop.thisTrialN,prac_stimorientation_import_loop.thisN,prac_stimorientation_import_loop.thisIndex,prac_stimorientation_import_loop.ran,Stimorientation,welcome_instr.started,welcome_instr.stopped,key_resp.keys,key_resp.rt,key_resp.duration,response_steppedout_1.started,response_steppedout_1.stopped,key_resp_20.keys,key_resp_20.rt,key_resp_20.duration,response_steppedout_2.started,response_steppedout_2.stopped,key_resp_19.keys,key_resp_19.rt,key_resp_19.duration,stim_response_instr.started,stim_response_instr.stopped,key_resp_15.keys,key_resp_15.rt,key_resp_15.duration,direction_instr_2.started,direction_instr_2.stopped,key_resp_9.keys,key_resp_9.rt,key_resp_9.duration,instr_prac.started,instr_prac.stopped,key_resp_10.keys,key_resp_10.rt,key_resp_10.duration,Stim1_display_prac.started,Stim1_display_prac.stopped,Ecc,Circle1_ori,Circle2_ori,response_prac.started,similarity,response_time,response_prac.stopped,mouse_5.x,mouse_5.y,mouse_5.leftButton,mouse_5.midButton,mouse_5.rightButton,mouse_5.clicked_name,responseprac_feedback.started,responseprac_feedback.stopped,summary2_prac.started,summary2_prac.stopped,mouse_6.x,mouse_6.y,mouse_6.leftButton,mouse_6.midButton,mouse_6.rightButton,mouse_6.clicked_name,duringprac.thisRepN,duringprac.thisTrialN,duringprac.thisN,duringprac.thisIndex,duringprac.ran,begin.started,begin.stopped,key_resp_22.keys,key_resp_22.rt,key_resp_22.duration,Stim1_display.started,Stim1_display.stopped,circle1_ori,circle2_ori,circle1_SF,circle2_SF,response.started,response.stopped,mouse.x,mouse.y,mouse.leftButton,mouse.midButton,mouse.rightButton,mouse.clicked_name,trialnumber,double_pass.thisRepN,double_pass.thisTrialN,double_pass.thisN,double_pass.thisIndex,double_pass.ran,double_pass.order,main_trial.thisRepN,main_trial.thisTrialN,main_trial.thisN,main_trial.thisIndex,main_trial.ran,main_trial.order,Trial_Counter,Catch,Frequencies,response_2.started,response_2.stopped,mouse_2.x,mouse_2.y,mouse_2.leftButton,mouse_2.midButton,mouse_2.rightButton,mouse_2.clicked_name,special_trial.started,special_trial.stopped,catch_1.started,catch_1.stopped,mouse_3.x,mouse_3.y,mouse_3.leftButton,mouse_3.midButton,mouse_3.rightButton,catchresponse,catchnumber,response_time_catch,response_sum.started,response_sum.stopped,mouse_11.x,mouse_11.y,mouse_11.leftButton,mouse_11.midButton,mouse_11.rightButton,flip_presentation_sequence_for_double_pass.started,flip_presentation_sequence_for_double_pass.stopped,goodbye.started,goodbye.stopped,key_resp_3.keys,key_resp_3.rt,key_resp_3.duration
0.0004,0.0005,613a541cf948d295c1df8752,2024-02-21_21h28.32.971,kallum_motion_pilot,2023.2.2,Win32,39.84063745,613a541cf948d295c1df8752,65d6bb0e977760de756971f7,65d6bf287e0756d9bca0652c,,,,,,,,,,,,,,,,,,,,,,,,,,,,,,,,,,,,,,,,,,,,,,,,,,,,,,,,,,,,,,,,,,,,,,,,,,,,,,,,,,,,,,,,,,,,,,,,,,,,,,,,,,,,,,,,,,,,,,,,,,,,,,,,,,,,,,,,,,,,,,,,,
,,613a541cf948d295c1df8752,2024-02-21_21h28.32.971,kallum_motion_pilot,2023.2.2,Win32,39.84063745,613a541cf948d295c1df8752,65d6bb0e977760de756971f7,65d6bf287e0756d9bca0652c,0.0301,0.0302,0,0,0,26,1,twoone,,,,,,,,,,,,,,,,,,,,,,,,,,,,,,,,,,,,,,,,,,,,,,,,,,,,,,,,,,,,,,,,,,,,,,,,,,,,,,,,,,,,,,,,,,,,,,,,,,,,,,,,,,,,,,,,,,,,,,,,,,,,,,,,,,,,,,,,,
,,613a541cf948d295c1df8752,2024-02-21_21h28.32.971,kallum_motion_pilot,2023.2.2,Win32,39.84063745,613a541cf948d295c1df8752,65d6bb0e977760de756971f7,65d6bf287e0756d9bca0652c,0.0306,0.0306,0,1,1,57,1,onethree,,,,,,,,,,,,,,,,,,,,,,,,,,,,,,,,,,,,,,,,,,,,,,,,,,,,,,,,,,,,,,,,,,,,,,,,,,,,,,,,,,,,,,,,,,,,,,,,,,,,,,,,,,,,,,,,,,,,,,,,,,,,,,,,,,,,,,,,,
,,613a541cf948d295c1df8752,2024-02-21_21h28.32.971,kallum_motion_pilot,2023.2.2,Win32,39.84063745,613a541cf948d295c1df8752,65d6bb0e977760de756971f7,65d6bf287e0756d9bca0652c,0.0307,0.0307,0,2,2,125,1,seveneight,,,,,,,,,,,,,,,,,,,,,,,,,,,,,,,,,,,,,,,,,,,,,,,,,,,,,,,,,,,,,,,,,,,,,,,,,,,,,,,,,,,,,,,,,,,,,,,,,,,,,,,,,,,,,,,,,,,,,,,,,,,,,,,,,,,,,,,,,
,,613a541cf948d295c1df8752,2024-02-21_21h28.32.971,kallum_motion_pilot,2023.2.2,Win32,39.84063745,613a541cf948d295c1df8752,65d6bb0e977760de756971f7,65d6bf287e0756d9bca0652c,0.0309,0.031,0,3,3,53,1,threefour,,,,,,,,,,,,,,,,,,,,,,,,,,,,,,,,,,,,,,,,,,,,,,,,,,,,,,,,,,,,,,,,,,,,,,,,,,,,,,,,,,,,,,,,,,,,,,,,,,,,,,,,,,,,,,,,,,,,,,,,,,,,,,,,,,,,,,,,,
,,613a541cf948d295c1df8752,2024-02-21_21h28.32.971,kallum_motion_pilot,2023.2.2,Win32,39.84063745,613a541cf948d295c1df8752,65d6bb0e977760de756971f7,65d6bf287e0756d9bca0652c,0.0311,0.0311,0,4,4,64,1,onetwo,,,,,,,,,,,,,,,,,,,,,,,,,,,,,,,,,,,,,,,,,,,,,,,,,,,,,,,,,,,,,,,,,,,,,,,,,,,,,,,,,,,,,,,,,,,,,,,,,,,,,,,,,,,,,,,,,,,,,,,,,,,,,,,,,,,,,,,,,
,,613a541cf948d295c1df8752,2024-02-21_21h28.32.971,kallum_motion_pilot,2023.2.2,Win32,39.84063745,613a541cf948d295c1df8752,65d6bb0e977760de756971f7,65d6bf287e0756d9bca0652c,0.0312,0.0312,0,5,5,133,1,seveneight,,,,,,,,,,,,,,,,,,,,,,,,,,,,,,,,,,,,,,,,,,,,,,,,,,,,,,,,,,,,,,,,,,,,,,,,,,,,,,,,,,,,,,,,,,,,,,,,,,,,,,,,,,,,,,,,,,,,,,,,,,,,,,,,,,,,,,,,,
,,613a541cf948d295c1df8752,2024-02-21_21h28.32.971,kallum_motion_pilot,2023.2.2,Win32,39.84063745,613a541cf948d295c1df8752,65d6bb0e977760de756971f7,65d6bf287e0756d9bca0652c,0.0314,0.0314,0,6,6,86,1,eightsix,,,,,,,,,,,,,,,,,,,,,,,,,,,,,,,,,,,,,,,,,,,,,,,,,,,,,,,,,,,,,,,,,,,,,,,,,,,,,,,,,,,,,,,,,,,,,,,,,,,,,,,,,,,,,,,,,,,,,,,,,,,,,,,,,,,,,,,,,
,,613a541cf948d295c1df8752,2024-02-21_21h28.32.971,kallum_motion_pilot,2023.2.2,Win32,39.84063745,613a541cf948d295c1df8752,65d6bb0e977760de756971f7,65d6bf287e0756d9bca0652c,0.0315,0.0315,0,7,7,78,1,fourtwo,,,,,,,,,,,,,,,,,,,,,,,,,,,,,,,,,,,,,,,,,,,,,,,,,,,,,,,,,,,,,,,,,,,,,,,,,,,,,,,,,,,,,,,,,,,,,,,,,,,,,,,,,,,,,,,,,,,,,,,,,,,,,,,,,,,,,,,,,
,,613a541cf948d295c1df8752,2024-02-21_21h28.32.971,kallum_motion_pilot,2023.2.2,Win32,39.84063745,613a541cf948d295c1df8752,65d6bb0e977760de756971f7,65d6bf287e0756d9bca0652c,0.0317,0.0318,0,8,8,141,1,seveneight,,,,,,,,,,,,,,,,,,,,,,,,,,,,,,,,,,,,,,,,,,,,,,,,,,,,,,,,,,,,,,,,,,,,,,,,,,,,,,,,,,,,,,,,,,,,,,,,,,,,,,,,,,,,,,,,,,,,,,,,,,,,,,,,,,,,,,,,,
,,613a541cf948d295c1df8752,2024-02-21_21h28.32.971,kallum_motion_pilot,2023.2.2,Win32,39.84063745,613a541cf948d295c1df8752,65d6bb0e977760de756971f7,65d6bf287e0756d9bca0652c,0.0318,0.0319,0,9,9,27,1,twofour,,,,,,,,,,,,,,,,,,,,,,,,,,,,,,,,,,,,,,,,,,,,,,,,,,,,,,,,,,,,,,,,,,,,,,,,,,,,,,,,,,,,,,,,,,,,,,,,,,,,,,,,,,,,,,,,,,,,,,,,,,,,,,,,,,,,,,,,,
,,613a541cf948d295c1df8752,2024-02-21_21h28.32.971,kallum_motion_pilot,2023.2.2,Win32,39.84063745,613a541cf948d295c1df8752,65d6bb0e977760de756971f7,65d6bf287e0756d9bca0652c,0.032,0.0321,0,10,10,56,1,onetwo,,,,,,,,,,,,,,,,,,,,,,,,,,,,,,,,,,,,,,,,,,,,,,,,,,,,,,,,,,,,,,,,,,,,,,,,,,,,,,,,,,,,,,,,,,,,,,,,,,,,,,,,,,,,,,,,,,,,,,,,,,,,,,,,,,,,,,,,,
,,613a541cf948d295c1df8752,2024-02-21_21h28.32.971,kallum_motion_pilot,2023.2.2,Win32,39.84063745,613a541cf948d295c1df8752,65d6bb0e977760de756971f7,65d6bf287e0756d9bca0652c,0.0322,0.0322,0,11,11,21,1,threefour,,,,,,,,,,,,,,,,,,,,,,,,,,,,,,,,,,,,,,,,,,,,,,,,,,,,,,,,,,,,,,,,,,,,,,,,,,,,,,,,,,,,,,,,,,,,,,,,,,,,,,,,,,,,,,,,,,,,,,,,,,,,,,,,,,,,,,,,,
,,613a541cf948d295c1df8752,2024-02-21_21h28.32.971,kallum_motion_pilot,2023.2.2,Win32,39.84063745,613a541cf948d295c1df8752,65d6bb0e977760de756971f7,65d6bf287e0756d9bca0652c,0.0323,0.0323,0,12,12,79,1,eightseven,,,,,,,,,,,,,,,,,,,,,,,,,,,,,,,,,,,,,,,,,,,,,,,,,,,,,,,,,,,,,,,,,,,,,,,,,,,,,,,,,,,,,,,,,,,,,,,,,,,,,,,,,,,,,,,,,,,,,,,,,,,,,,,,,,,,,,,,,
,,613a541cf948d295c1df8752,2024-02-21_21h28.32.971,kallum_motion_pilot,2023.2.2,Win32,39.84063745,613a541cf948d295c1df8752,65d6bb0e977760de756971f7,65d6bf287e0756d9bca0652c,0.0324,0.0324,0,13,13,75,1,twofour,,,,,,,,,,,,,,,,,,,,,,,,,,,,,,,,,,,,,,,,,,,,,,,,,,,,,,,,,,,,,,,,,,,,,,,,,,,,,,,,,,,,,,,,,,,,,,,,,,,,,,,,,,,,,,,,,,,,,,,,,,,,,,,,,,,,,,,,,
,,613a541cf948d295c1df8752,2024-02-21_21h28.32.971,kallum_motion_pilot,2023.2.2,Win32,39.84063745,613a541cf948d295c1df8752,65d6bb0e977760de756971f7,65d6bf287e0756d9bca0652c,0.0325,0.0325,0,14,14,91,1,sixeight,,,,,,,,,,,,,,,,,,,,,,,,,,,,,,,,,,,,,,,,,,,,,,,,,,,,,,,,,,,,,,,,,,,,,,,,,,,,,,,,,,,,,,,,,,,,,,,,,,,,,,,,,,,,,,,,,,,,,,,,,,,,,,,,,,,,,,,,,
,,613a541cf948d295c1df8752,2024-02-21_21h28.32.971,kallum_motion_pilot,2023.2.2,Win32,39.84063745,613a541cf948d295c1df8752,65d6bb0e977760de756971f7,65d6bf287e0756d9bca0652c,0.0326,0.0326,0,15,15,47,1,fourthree,,,,,,,,,,,,,,,,,,,,,,,,,,,,,,,,,,,,,,,,,,,,,,,,,,,,,,,,,,,,,,,,,,,,,,,,,,,,,,,,,,,,,,,,,,,,,,,,,,,,,,,,,,,,,,,,,,,,,,,,,,,,,,,,,,,,,,,,,
,,613a541cf948d295c1df8752,2024-02-21_21h28.32.971,kallum_motion_pilot,2023.2.2,Win32,39.84063745,613a541cf948d295c1df8752,65d6bb0e977760de756971f7,65d6bf287e0756d9bca0652c,0.0328,0.0328,0,16,16,160,1,fivesix,,,,,,,,,,,,,,,,,,,,,,,,,,,,,,,,,,,,,,,,,,,,,,,,,,,,,,,,,,,,,,,,,,,,,,,,,,,,,,,,,,,,,,,,,,,,,,,,,,,,,,,,,,,,,,,,,,,,,,,,,,,,,,,,,,,,,,,,,
,,613a541cf948d295c1df8752,2024-02-21_21h28.32.971,kallum_motion_pilot,2023.2.2,Win32,39.84063745,613a541cf948d295c1df8752,65d6bb0e977760de756971f7,65d6bf287e0756d9bca0652c,0.0329,0.0329,0,17,17,28,1,threeone,,,,,,,,,,,,,,,,,,,,,,,,,,,,,,,,,,,,,,,,,,,,,,,,,,,,,,,,,,,,,,,,,,,,,,,,,,,,,,,,,,,,,,,,,,,,,,,,,,,,,,,,,,,,,,,,,,,,,,,,,,,,,,,,,,,,,,,,,
,,613a541cf948d295c1df8752,2024-02-21_21h28.32.971,kallum_motion_pilot,2023.2.2,Win32,39.84063745,613a541cf948d295c1df8752,65d6bb0e977760de756971f7,65d6bf287e0756d9bca0652c,0.033,0.033,0,18,18,95,1,eightseven,,,,,,,,,,,,,,,,,,,,,,,,,,,,,,,,,,,,,,,,,,,,,,,,,,,,,,,,,,,,,,,,,,,,,,,,,,,,,,,,,,,,,,,,,,,,,,,,,,,,,,,,,,,,,,,,,,,,,,,,,,,,,,,,,,,,,,,,,
,,613a541cf948d295c1df8752,2024-02-21_21h28.32.971,kallum_motion_pilot,2023.2.2,Win32,39.84063745,613a541cf948d295c1df8752,65d6bb0e977760de756971f7,65d6bf287e0756d9bca0652c,0.0331,0.0331,0,19,19,37,1,threefour,,,,,,,,,,,,,,,,,,,,,,,,,,,,,,,,,,,,,,,,,,,,,,,,,,,,,,,,,,,,,,,,,,,,,,,,,,,,,,,,,,,,,,,,,,,,,,,,,,,,,,,,,,,,,,,,,,,,,,,,,,,,,,,,,,,,,,,,,
,,613a541cf948d295c1df8752,2024-02-21_21h28.32.971,kallum_motion_pilot,2023.2.2,Win32,39.84063745,613a541cf948d295c1df8752,65d6bb0e977760de756971f7,65d6bf287e0756d9bca0652c,0.0333,0.0333,0,20,20,103,1,eightseven,,,,,,,,,,,,,,,,,,,,,,,,,,,,,,,,,,,,,,,,,,,,,,,,,,,,,,,,,,,,,,,,,,,,,,,,,,,,,,,,,,,,,,,,,,,,,,,,,,,,,,,,,,,,,,,,,,,,,,,,,,,,,,,,,,,,,,,,,
,,613a541cf948d295c1df8752,2024-02-21_21h28.32.971,kallum_motion_pilot,2023.2.2,Win32,39.84063745,613a541cf948d295c1df8752,65d6bb0e977760de756971f7,65d6bf287e0756d9bca0652c,0.0334,0.0334,0,21,21,40,1,onetwo,,,,,,,,,,,,,,,,,,,,,,,,,,,,,,,,,,,,,,,,,,,,,,,,,,,,,,,,,,,,,,,,,,,,,,,,,,,,,,,,,,,,,,,,,,,,,,,,,,,,,,,,,,,,,,,,,,,,,,,,,,,,,,,,,,,,,,,,,
,,613a541cf948d295c1df8752,2024-02-21_21h28.32.971,kallum_motion_pilot,2023.2.2,Win32,39.84063745,613a541cf948d295c1df8752,65d6bb0e977760de756971f7,65d6bf287e0756d9bca0652c,0.0334,0.0335,0,22,22,0,1,onetwo,,,,,,,,,,,,,,,,,,,,,,,,,,,,,,,,,,,,,,,,,,,,,,,,,,,,,,,,,,,,,,,,,,,,,,,,,,,,,,,,,,,,,,,,,,,,,,,,,,,,,,,,,,,,,,,,,,,,,,,,,,,,,,,,,,,,,,,,,
,,613a541cf948d295c1df8752,2024-02-21_21h28.32.971,kallum_motion_pilot,2023.2.2,Win32,39.84063745,613a541cf948d295c1df8752,65d6bb0e977760de756971f7,65d6bf287e0756d9bca0652c,0.0336,0.0336,0,23,23,46,1,fourtwo,,,,,,,,,,,,,,,,,,,,,,,,,,,,,,,,,,,,,,,,,,,,,,,,,,,,,,,,,,,,,,,,,,,,,,,,,,,,,,,,,,,,,,,,,,,,,,,,,,,,,,,,,,,,,,,,,,,,,,,,,,,,,,,,,,,,,,,,,
,,613a541cf948d295c1df8752,2024-02-21_21h28.32.971,kallum_motion_pilot,2023.2.2,Win32,39.84063745,613a541cf948d295c1df8752,65d6bb0e977760de756971f7,65d6bf287e0756d9bca0652c,0.0337,0.0338,0,24,24,12,1,threeone,,,,,,,,,,,,,,,,,,,,,,,,,,,,,,,,,,,,,,,,,,,,,,,,,,,,,,,,,,,,,,,,,,,,,,,,,,,,,,,,,,,,,,,,,,,,,,,,,,,,,,,,,,,,,,,,,,,,,,,,,,,,,,,,,,,,,,,,,
,,613a541cf948d295c1df8752,2024-02-21_21h28.32.971,kallum_motion_pilot,2023.2.2,Win32,39.84063745,613a541cf948d295c1df8752,65d6bb0e977760de756971f7,65d6bf287e0756d9bca0652c,0.0339,0.034,0,25,25,153,1,fiveseven,,,,,,,,,,,,,,,,,,,,,,,,,,,,,,,,,,,,,,,,,,,,,,,,,,,,,,,,,,,,,,,,,,,,,,,,,,,,,,,,,,,,,,,,,,,,,,,,,,,,,,,,,,,,,,,,,,,,,,,,,,,,,,,,,,,,,,,,,
,,613a541cf948d295c1df8752,2024-02-21_21h28.32.971,kallum_motion_pilot,2023.2.2,Win32,39.84063745,613a541cf948d295c1df8752,65d6bb0e977760de756971f7,65d6bf287e0756d9bca0652c,0.034,0.034,0,26,26,138,1,sixfive,,,,,,,,,,,,,,,,,,,,,,,,,,,,,,,,,,,,,,,,,,,,,,,,,,,,,,,,,,,,,,,,,,,,,,,,,,,,,,,,,,,,,,,,,,,,,,,,,,,,,,,,,,,,,,,,,,,,,,,,,,,,,,,,,,,,,,,,,
,,613a541cf948d295c1df8752,2024-02-21_21h28.32.971,kallum_motion_pilot,2023.2.2,Win32,39.84063745,613a541cf948d295c1df8752,65d6bb0e977760de756971f7,65d6bf287e0756d9bca0652c,0.0341,0.0342,0,27,27,62,1,fourtwo,,,,,,,,,,,,,,,,,,,,,,,,,,,,,,,,,,,,,,,,,,,,,,,,,,,,,,,,,,,,,,,,,,,,,,,,,,,,,,,,,,,,,,,,,,,,,,,,,,,,,,,,,,,,,,,,,,,,,,,,,,,,,,,,,,,,,,,,,
,,613a541cf948d295c1df8752,2024-02-21_21h28.32.971,kallum_motion_pilot,2023.2.2,Win32,39.84063745,613a541cf948d295c1df8752,65d6bb0e977760de756971f7,65d6bf287e0756d9bca0652c,0.0343,0.0344,0,28,28,18,1,twoone,,,,,,,,,,,,,,,,,,,,,,,,,,,,,,,,,,,,,,,,,,,,,,,,,,,,,,,,,,,,,,,,,,,,,,,,,,,,,,,,,,,,,,,,,,,,,,,,,,,,,,,,,,,,,,,,,,,,,,,,,,,,,,,,,,,,,,,,,
,,613a541cf948d295c1df8752,2024-02-21_21h28.32.971,kallum_motion_pilot,2023.2.2,Win32,39.84063745,613a541cf948d295c1df8752,65d6bb0e977760de756971f7,65d6bf287e0756d9bca0652c,0.0344,0.0344,0,29,29,104,1,fivesix,,,,,,,,,,,,,,,,,,,,,,,,,,,,,,,,,,,,,,,,,,,,,,,,,,,,,,,,,,,,,,,,,,,,,,,,,,,,,,,,,,,,,,,,,,,,,,,,,,,,,,,,,,,,,,,,,,,,,,,,,,,,,,,,,,,,,,,,,
,,613a541cf948d295c1df8752,2024-02-21_21h28.32.971,kallum_motion_pilot,2023.2.2,Win32,39.84063745,613a541cf948d295c1df8752,65d6bb0e977760de756971f7,65d6bf287e0756d9bca0652c,0.0346,0.0346,0,30,30,29,1,threefour,,,,,,,,,,,,,,,,,,,,,,,,,,,,,,,,,,,,,,,,,,,,,,,,,,,,,,,,,,,,,,,,,,,,,,,,,,,,,,,,,,,,,,,,,,,,,,,,,,,,,,,,,,,,,,,,,,,,,,,,,,,,,,,,,,,,,,,,,
,,613a541cf948d295c1df8752,2024-02-21_21h28.32.971,kallum_motion_pilot,2023.2.2,Win32,39.84063745,613a541cf948d295c1df8752,65d6bb0e977760de756971f7,65d6bf287e0756d9bca0652c,0.0347,0.0347,0,31,31,110,1,eightsix,,,,,,,,,,,,,,,,,,,,,,,,,,,,,,,,,,,,,,,,,,,,,,,,,,,,,,,,,,,,,,,,,,,,,,,,,,,,,,,,,,,,,,,,,,,,,,,,,,,,,,,,,,,,,,,,,,,,,,,,,,,,,,,,,,,,,,,,,
,,613a541cf948d295c1df8752,2024-02-21_21h28.32.971,kallum_motion_pilot,2023.2.2,Win32,39.84063745,613a541cf948d295c1df8752,65d6bb0e977760de756971f7,65d6bf287e0756d9bca0652c,0.0348,0.0349,0,32,32,23,1,fourthree,,,,,,,,,,,,,,,,,,,,,,,,,,,,,,,,,,,,,,,,,,,,,,,,,,,,,,,,,,,,,,,,,,,,,,,,,,,,,,,,,,,,,,,,,,,,,,,,,,,,,,,,,,,,,,,,,,,,,,,,,,,,,,,,,,,,,,,,,
,,613a541cf948d295c1df8752,2024-02-21_21h28.32.971,kallum_motion_pilot,2023.2.2,Win32,39.84063745,613a541cf948d295c1df8752,65d6bb0e977760de756971f7,65d6bf287e0756d9bca0652c,0.0349,0.035,0,33,33,89,1,fiveseven,,,,,,,,,,,,,,,,,,,,,,,,,,,,,,,,,,,,,,,,,,,,,,,,,,,,,,,,,,,,,,,,,,,,,,,,,,,,,,,,,,,,,,,,,,,,,,,,,,,,,,,,,,,,,,,,,,,,,,,,,,,,,,,,,,,,,,,,,
,,613a541cf948d295c1df8752,2024-02-21_21h28.32.971,kallum_motion_pilot,2023.2.2,Win32,39.84063745,613a541cf948d295c1df8752,65d6bb0e977760de756971f7,65d6bf287e0756d9bca0652c,0.0351,0.0351,0,34,34,115,1,sixeight,,,,,,,,,,,,,,,,,,,,,,,,,,,,,,,,,,,,,,,,,,,,,,,,,,,,,,,,,,,,,,,,,,,,,,,,,,,,,,,,,,,,,,,,,,,,,,,,,,,,,,,,,,,,,,,,,,,,,,,,,,,,,,,,,,,,,,,,,
,,613a541cf948d295c1df8752,2024-02-21_21h28.32.971,kallum_motion_pilot,2023.2.2,Win32,39.84063745,613a541cf948d295c1df8752,65d6bb0e977760de756971f7,65d6bf287e0756d9bca0652c,0.0352,0.0353,0,35,35,6,1,fourtwo,,,,,,,,,,,,,,,,,,,,,,,,,,,,,,,,,,,,,,,,,,,,,,,,,,,,,,,,,,,,,,,,,,,,,,,,,,,,,,,,,,,,,,,,,,,,,,,,,,,,,,,,,,,,,,,,,,,,,,,,,,,,,,,,,,,,,,,,,
,,613a541cf948d295c1df8752,2024-02-21_21h28.32.971,kallum_motion_pilot,2023.2.2,Win32,39.84063745,613a541cf948d295c1df8752,65d6bb0e977760de756971f7,65d6bf287e0756d9bca0652c,0.0353,0.0353,0,36,36,106,1,sixfive,,,,,,,,,,,,,,,,,,,,,,,,,,,,,,,,,,,,,,,,,,,,,,,,,,,,,,,,,,,,,,,,,,,,,,,,,,,,,,,,,,,,,,,,,,,,,,,,,,,,,,,,,,,,,,,,,,,,,,,,,,,,,,,,,,,,,,,,,
,,613a541cf948d295c1df8752,2024-02-21_21h28.32.971,kallum_motion_pilot,2023.2.2,Win32,39.84063745,613a541cf948d295c1df8752,65d6bb0e977760de756971f7,65d6bf287e0756d9bca0652c,0.0354,0.0355,0,37,37,63,1,fourthree,,,,,,,,,,,,,,,,,,,,,,,,,,,,,,,,,,,,,,,,,,,,,,,,,,,,,,,,,,,,,,,,,,,,,,,,,,,,,,,,,,,,,,,,,,,,,,,,,,,,,,,,,,,,,,,,,,,,,,,,,,,,,,,,,,,,,,,,,
,,613a541cf948d295c1df8752,2024-02-21_21h28.32.971,kallum_motion_pilot,2023.2.2,Win32,39.84063745,613a541cf948d295c1df8752,65d6bb0e977760de756971f7,65d6bf287e0756d9bca0652c,0.0356,0.0356,0,38,38,77,1,threefour,,,,,,,,,,,,,,,,,,,,,,,,,,,,,,,,,,,,,,,,,,,,,,,,,,,,,,,,,,,,,,,,,,,,,,,,,,,,,,,,,,,,,,,,,,,,,,,,,,,,,,,,,,,,,,,,,,,,,,,,,,,,,,,,,,,,,,,,,
,,613a541cf948d295c1df8752,2024-02-21_21h28.32.971,kallum_motion_pilot,2023.2.2,Win32,39.84063745,613a541cf948d295c1df8752,65d6bb0e977760de756971f7,65d6bf287e0756d9bca0652c,0.0357,0.0357,0,39,39,94,1,eightsix,,,,,,,,,,,,,,,,,,,,,,,,,,,,,,,,,,,,,,,,,,,,,,,,,,,,,,,,,,,,,,,,,,,,,,,,,,,,,,,,,,,,,,,,,,,,,,,,,,,,,,,,,,,,,,,,,,,,,,,,,,,,,,,,,,,,,,,,,
,,613a541cf948d295c1df8752,2024-02-21_21h28.32.971,kallum_motion_pilot,2023.2.2,Win32,39.84063745,613a541cf948d295c1df8752,65d6bb0e977760de756971f7,65d6bf287e0756d9bca0652c,0.0358,0.0358,0,40,40,127,1,eightseven,,,,,,,,,,,,,,,,,,,,,,,,,,,,,,,,,,,,,,,,,,,,,,,,,,,,,,,,,,,,,,,,,,,,,,,,,,,,,,,,,,,,,,,,,,,,,,,,,,,,,,,,,,,,,,,,,,,,,,,,,,,,,,,,,,,,,,,,,
,,613a541cf948d295c1df8752,2024-02-21_21h28.32.971,kallum_motion_pilot,2023.2.2,Win32,39.84063745,613a541cf948d295c1df8752,65d6bb0e977760de756971f7,65d6bf287e0756d9bca0652c,0.0359,0.036,0,41,41,58,1,twoone,,,,,,,,,,,,,,,,,,,,,,,,,,,,,,,,,,,,,,,,,,,,,,,,,,,,,,,,,,,,,,,,,,,,,,,,,,,,,,,,,,,,,,,,,,,,,,,,,,,,,,,,,,,,,,,,,,,,,,,,,,,,,,,,,,,,,,,,,
,,613a541cf948d295c1df8752,2024-02-21_21h28.32.971,kallum_motion_pilot,2023.2.2,Win32,39.84063745,613a541cf948d295c1df8752,65d6bb0e977760de756971f7,65d6bf287e0756d9bca0652c,0.0361,0.0361,0,42,42,143,1,eightseven,,,,,,,,,,,,,,,,,,,,,,,,,,,,,,,,,,,,,,,,,,,,,,,,,,,,,,,,,,,,,,,,,,,,,,,,,,,,,,,,,,,,,,,,,,,,,,,,,,,,,,,,,,,,,,,,,,,,,,,,,,,,,,,,,,,,,,,,,
,,613a541cf948d295c1df8752,2024-02-21_21h28.32.971,kallum_motion_pilot,2023.2.2,Win32,39.84063745,613a541cf948d295c1df8752,65d6bb0e977760de756971f7,65d6bf287e0756d9bca0652c,0.0362,0.0363,0,43,43,123,1,sixeight,,,,,,,,,,,,,,,,,,,,,,,,,,,,,,,,,,,,,,,,,,,,,,,,,,,,,,,,,,,,,,,,,,,,,,,,,,,,,,,,,,,,,,,,,,,,,,,,,,,,,,,,,,,,,,,,,,,,,,,,,,,,,,,,,,,,,,,,,
,,613a541cf948d295c1df8752,2024-02-21_21h28.32.971,kallum_motion_pilot,2023.2.2,Win32,39.84063745,613a541cf948d295c1df8752,65d6bb0e977760de756971f7,65d6bf287e0756d9bca0652c,0.0364,0.0364,0,44,44,126,1,eightsix,,,,,,,,,,,,,,,,,,,,,,,,,,,,,,,,,,,,,,,,,,,,,,,,,,,,,,,,,,,,,,,,,,,,,,,,,,,,,,,,,,,,,,,,,,,,,,,,,,,,,,,,,,,,,,,,,,,,,,,,,,,,,,,,,,,,,,,,,
,,613a541cf948d295c1df8752,2024-02-21_21h28.32.971,kallum_motion_pilot,2023.2.2,Win32,39.84063745,613a541cf948d295c1df8752,65d6bb0e977760de756971f7,65d6bf287e0756d9bca0652c,0.0365,0.0365,0,45,45,25,1,onethree,,,,,,,,,,,,,,,,,,,,,,,,,,,,,,,,,,,,,,,,,,,,,,,,,,,,,,,,,,,,,,,,,,,,,,,,,,,,,,,,,,,,,,,,,,,,,,,,,,,,,,,,,,,,,,,,,,,,,,,,,,,,,,,,,,,,,,,,,
,,613a541cf948d295c1df8752,2024-02-21_21h28.32.971,kallum_motion_pilot,2023.2.2,Win32,39.84063745,613a541cf948d295c1df8752,65d6bb0e977760de756971f7,65d6bf287e0756d9bca0652c,0.0367,0.0367,0,46,46,108,1,sevenfive,,,,,,,,,,,,,,,,,,,,,,,,,,,,,,,,,,,,,,,,,,,,,,,,,,,,,,,,,,,,,,,,,,,,,,,,,,,,,,,,,,,,,,,,,,,,,,,,,,,,,,,,,,,,,,,,,,,,,,,,,,,,,,,,,,,,,,,,,
,,613a541cf948d295c1df8752,2024-02-21_21h28.32.971,kallum_motion_pilot,2023.2.2,Win32,39.84063745,613a541cf948d295c1df8752,65d6bb0e977760de756971f7,65d6bf287e0756d9bca0652c,0.0368,0.0368,0,47,47,22,1,fourtwo,,,,,,,,,,,,,,,,,,,,,,,,,,,,,,,,,,,,,,,,,,,,,,,,,,,,,,,,,,,,,,,,,,,,,,,,,,,,,,,,,,,,,,,,,,,,,,,,,,,,,,,,,,,,,,,,,,,,,,,,,,,,,,,,,,,,,,,,,
,,613a541cf948d295c1df8752,2024-02-21_21h28.32.971,kallum_motion_pilot,2023.2.2,Win32,39.84063745,613a541cf948d295c1df8752,65d6bb0e977760de756971f7,65d6bf287e0756d9bca0652c,0.0369,0.0369,0,48,48,14,1,fourtwo,,,,,,,,,,,,,,,,,,,,,,,,,,,,,,,,,,,,,,,,,,,,,,,,,,,,,,,,,,,,,,,,,,,,,,,,,,,,,,,,,,,,,,,,,,,,,,,,,,,,,,,,,,,,,,,,,,,,,,,,,,,,,,,,,,,,,,,,,
,,613a541cf948d295c1df8752,2024-02-21_21h28.32.971,kallum_motion_pilot,2023.2.2,Win32,39.84063745,613a541cf948d295c1df8752,65d6bb0e977760de756971f7,65d6bf287e0756d9bca0652c,0.0371,0.0371,0,49,49,72,1,onetwo,,,,,,,,,,,,,,,,,,,,,,,,,,,,,,,,,,,,,,,,,,,,,,,,,,,,,,,,,,,,,,,,,,,,,,,,,,,,,,,,,,,,,,,,,,,,,,,,,,,,,,,,,,,,,,,,,,,,,,,,,,,,,,,,,,,,,,,,,
,,613a541cf948d295c1df8752,2024-02-21_21h28.32.971,kallum_motion_pilot,2023.2.2,Win32,39.84063745,613a541cf948d295c1df8752,65d6bb0e977760de756971f7,65d6bf287e0756d9bca0652c,0.0371,0.0372,0,50,50,135,1,eightseven,,,,,,,,,,,,,,,,,,,,,,,,,,,,,,,,,,,,,,,,,,,,,,,,,,,,,,,,,,,,,,,,,,,,,,,,,,,,,,,,,,,,,,,,,,,,,,,,,,,,,,,,,,,,,,,,,,,,,,,,,,,,,,,,,,,,,,,,,
,,613a541cf948d295c1df8752,2024-02-21_21h28.32.971,kallum_motion_pilot,2023.2.2,Win32,39.84063745,613a541cf948d295c1df8752,65d6bb0e977760de756971f7,65d6bf287e0756d9bca0652c,0.0373,0.0373,0,51,51,124,1,sevenfive,,,,,,,,,,,,,,,,,,,,,,,,,,,,,,,,,,,,,,,,,,,,,,,,,,,,,,,,,,,,,,,,,,,,,,,,,,,,,,,,,,,,,,,,,,,,,,,,,,,,,,,,,,,,,,,,,,,,,,,,,,,,,,,,,,,,,,,,,
,,613a541cf948d295c1df8752,2024-02-21_21h28.32.971,kallum_motion_pilot,2023.2.2,Win32,39.84063745,613a541cf948d295c1df8752,65d6bb0e977760de756971f7,65d6bf287e0756d9bca0652c,0.0375,0.0375,0,52,52,129,1,fiveseven,,,,,,,,,,,,,,,,,,,,,,,,,,,,,,,,,,,,,,,,,,,,,,,,,,,,,,,,,,,,,,,,,,,,,,,,,,,,,,,,,,,,,,,,,,,,,,,,,,,,,,,,,,,,,,,,,,,,,,,,,,,,,,,,,,,,,,,,,
,,613a541cf948d295c1df8752,2024-02-21_21h28.32.971,kallum_motion_pilot,2023.2.2,Win32,39.84063745,613a541cf948d295c1df8752,65d6bb0e977760de756971f7,65d6bf287e0756d9bca0652c,0.0376,0.0376,0,53,53,67,1,twofour,,,,,,,,,,,,,,,,,,,,,,,,,,,,,,,,,,,,,,,,,,,,,,,,,,,,,,,,,,,,,,,,,,,,,,,,,,,,,,,,,,,,,,,,,,,,,,,,,,,,,,,,,,,,,,,,,,,,,,,,,,,,,,,,,,,,,,,,,
,,613a541cf948d295c1df8752,2024-02-21_21h28.32.971,kallum_motion_pilot,2023.2.2,Win32,39.84063745,613a541cf948d295c1df8752,65d6bb0e977760de756971f7,65d6bf287e0756d9bca0652c,0.0377,0.0377,0,54,54,117,1,seveneight,,,,,,,,,,,,,,,,,,,,,,,,,,,,,,,,,,,,,,,,,,,,,,,,,,,,,,,,,,,,,,,,,,,,,,,,,,,,,,,,,,,,,,,,,,,,,,,,,,,,,,,,,,,,,,,,,,,,,,,,,,,,,,,,,,,,,,,,,
,,613a541cf948d295c1df8752,2024-02-21_21h28.32.971,kallum_motion_pilot,2023.2.2,Win32,39.84063745,613a541cf948d295c1df8752,65d6bb0e977760de756971f7,65d6bf287e0756d9bca0652c,0.0378,0.0378,0,55,55,118,1,eightsix,,,,,,,,,,,,,,,,,,,,,,,,,,,,,,,,,,,,,,,,,,,,,,,,,,,,,,,,,,,,,,,,,,,,,,,,,,,,,,,,,,,,,,,,,,,,,,,,,,,,,,,,,,,,,,,,,,,,,,,,,,,,,,,,,,,,,,,,,
,,613a541cf948d295c1df8752,2024-02-21_21h28.32.971,kallum_motion_pilot,2023.2.2,Win32,39.84063745,613a541cf948d295c1df8752,65d6bb0e977760de756971f7,65d6bf287e0756d9bca0652c,0.0379,0.038,0,56,56,38,1,fourtwo,,,,,,,,,,,,,,,,,,,,,,,,,,,,,,,,,,,,,,,,,,,,,,,,,,,,,,,,,,,,,,,,,,,,,,,,,,,,,,,,,,,,,,,,,,,,,,,,,,,,,,,,,,,,,,,,,,,,,,,,,,,,,,,,,,,,,,,,,
,,613a541cf948d295c1df8752,2024-02-21_21h28.32.971,kallum_motion_pilot,2023.2.2,Win32,39.84063745,613a541cf948d295c1df8752,65d6bb0e977760de756971f7,65d6bf287e0756d9bca0652c,0.0381,0.0381,0,57,57,13,1,threefour,,,,,,,,,,,,,,,,,,,,,,,,,,,,,,,,,,,,,,,,,,,,,,,,,,,,,,,,,,,,,,,,,,,,,,,,,,,,,,,,,,,,,,,,,,,,,,,,,,,,,,,,,,,,,,,,,,,,,,,,,,,,,,,,,,,,,,,,,
,,613a541cf948d295c1df8752,2024-02-21_21h28.32.971,kallum_motion_pilot,2023.2.2,Win32,39.84063745,613a541cf948d295c1df8752,65d6bb0e977760de756971f7,65d6bf287e0756d9bca0652c,0.0382,0.0383,0,58,58,82,1,sixfive,,,,,,,,,,,,,,,,,,,,,,,,,,,,,,,,,,,,,,,,,,,,,,,,,,,,,,,,,,,,,,,,,,,,,,,,,,,,,,,,,,,,,,,,,,,,,,,,,,,,,,,,,,,,,,,,,,,,,,,,,,,,,,,,,,,,,,,,,
,,613a541cf948d295c1df8752,2024-02-21_21h28.32.971,kallum_motion_pilot,2023.2.2,Win32,39.84063745,613a541cf948d295c1df8752,65d6bb0e977760de756971f7,65d6bf287e0756d9bca0652c,0.0383,0.0384,0,59,59,68,1,threeone,,,,,,,,,,,,,,,,,,,,,,,,,,,,,,,,,,,,,,,,,,,,,,,,,,,,,,,,,,,,,,,,,,,,,,,,,,,,,,,,,,,,,,,,,,,,,,,,,,,,,,,,,,,,,,,,,,,,,,,,,,,,,,,,,,,,,,,,,
,,613a541cf948d295c1df8752,2024-02-21_21h28.32.971,kallum_motion_pilot,2023.2.2,Win32,39.84063745,613a541cf948d295c1df8752,65d6bb0e977760de756971f7,65d6bf287e0756d9bca0652c,0.0385,0.0386,0,60,60,146,1,sixfive,,,,,,,,,,,,,,,,,,,,,,,,,,,,,,,,,,,,,,,,,,,,,,,,,,,,,,,,,,,,,,,,,,,,,,,,,,,,,,,,,,,,,,,,,,,,,,,,,,,,,,,,,,,,,,,,,,,,,,,,,,,,,,,,,,,,,,,,,
,,613a541cf948d295c1df8752,2024-02-21_21h28.32.971,kallum_motion_pilot,2023.2.2,Win32,39.84063745,613a541cf948d295c1df8752,65d6bb0e977760de756971f7,65d6bf287e0756d9bca0652c,0.0387,0.0387,0,61,61,43,1,twofour,,,,,,,,,,,,,,,,,,,,,,,,,,,,,,,,,,,,,,,,,,,,,,,,,,,,,,,,,,,,,,,,,,,,,,,,,,,,,,,,,,,,,,,,,,,,,,,,,,,,,,,,,,,,,,,,,,,,,,,,,,,,,,,,,,,,,,,,,
,,613a541cf948d295c1df8752,2024-02-21_21h28.32.971,kallum_motion_pilot,2023.2.2,Win32,39.84063745,613a541cf948d295c1df8752,65d6bb0e977760de756971f7,65d6bf287e0756d9bca0652c,0.0388,0.0388,0,62,62,4,1,threeone,,,,,,,,,,,,,,,,,,,,,,,,,,,,,,,,,,,,,,,,,,,,,,,,,,,,,,,,,,,,,,,,,,,,,,,,,,,,,,,,,,,,,,,,,,,,,,,,,,,,,,,,,,,,,,,,,,,,,,,,,,,,,,,,,,,,,,,,,
,,613a541cf948d295c1df8752,2024-02-21_21h28.32.971,kallum_motion_pilot,2023.2.2,Win32,39.84063745,613a541cf948d295c1df8752,65d6bb0e977760de756971f7,65d6bf287e0756d9bca0652c,0.0389,0.039,0,63,63,96,1,fivesix,,,,,,,,,,,,,,,,,,,,,,,,,,,,,,,,,,,,,,,,,,,,,,,,,,,,,,,,,,,,,,,,,,,,,,,,,,,,,,,,,,,,,,,,,,,,,,,,,,,,,,,,,,,,,,,,,,,,,,,,,,,,,,,,,,,,,,,,,
,,613a541cf948d295c1df8752,2024-02-21_21h28.32.971,kallum_motion_pilot,2023.2.2,Win32,39.84063745,613a541cf948d295c1df8752,65d6bb0e977760de756971f7,65d6bf287e0756d9bca0652c,0.0391,0.0391,0,64,64,93,1,seveneight,,,,,,,,,,,,,,,,,,,,,,,,,,,,,,,,,,,,,,,,,,,,,,,,,,,,,,,,,,,,,,,,,,,,,,,,,,,,,,,,,,,,,,,,,,,,,,,,,,,,,,,,,,,,,,,,,,,,,,,,,,,,,,,,,,,,,,,,,
,,613a541cf948d295c1df8752,2024-02-21_21h28.32.971,kallum_motion_pilot,2023.2.2,Win32,39.84063745,613a541cf948d295c1df8752,65d6bb0e977760de756971f7,65d6bf287e0756d9bca0652c,0.0393,0.0393,0,65,65,76,1,threeone,,,,,,,,,,,,,,,,,,,,,,,,,,,,,,,,,,,,,,,,,,,,,,,,,,,,,,,,,,,,,,,,,,,,,,,,,,,,,,,,,,,,,,,,,,,,,,,,,,,,,,,,,,,,,,,,,,,,,,,,,,,,,,,,,,,,,,,,,
,,613a541cf948d295c1df8752,2024-02-21_21h28.32.971,kallum_motion_pilot,2023.2.2,Win32,39.84063745,613a541cf948d295c1df8752,65d6bb0e977760de756971f7,65d6bf287e0756d9bca0652c,0.0393,0.0394,0,66,66,147,1,sixeight,,,,,,,,,,,,,,,,,,,,,,,,,,,,,,,,,,,,,,,,,,,,,,,,,,,,,,,,,,,,,,,,,,,,,,,,,,,,,,,,,,,,,,,,,,,,,,,,,,,,,,,,,,,,,,,,,,,,,,,,,,,,,,,,,,,,,,,,,
,,613a541cf948d295c1df8752,2024-02-21_21h28.32.971,kallum_motion_pilot,2023.2.2,Win32,39.84063745,613a541cf948d295c1df8752,65d6bb0e977760de756971f7,65d6bf287e0756d9bca0652c,0.0396,0.0396,0,67,67,50,1,twoone,,,,,,,,,,,,,,,,,,,,,,,,,,,,,,,,,,,,,,,,,,,,,,,,,,,,,,,,,,,,,,,,,,,,,,,,,,,,,,,,,,,,,,,,,,,,,,,,,,,,,,,,,,,,,,,,,,,,,,,,,,,,,,,,,,,,,,,,,
,,613a541cf948d295c1df8752,2024-02-21_21h28.32.971,kallum_motion_pilot,2023.2.2,Win32,39.84063745,613a541cf948d295c1df8752,65d6bb0e977760de756971f7,65d6bf287e0756d9bca0652c,0.0397,0.0398,0,68,68,11,1,twofour,,,,,,,,,,,,,,,,,,,,,,,,,,,,,,,,,,,,,,,,,,,,,,,,,,,,,,,,,,,,,,,,,,,,,,,,,,,,,,,,,,,,,,,,,,,,,,,,,,,,,,,,,,,,,,,,,,,,,,,,,,,,,,,,,,,,,,,,,
,,613a541cf948d295c1df8752,2024-02-21_21h28.32.971,kallum_motion_pilot,2023.2.2,Win32,39.84063745,613a541cf948d295c1df8752,65d6bb0e977760de756971f7,65d6bf287e0756d9bca0652c,0.0398,0.0399,0,69,69,150,1,eightsix,,,,,,,,,,,,,,,,,,,,,,,,,,,,,,,,,,,,,,,,,,,,,,,,,,,,,,,,,,,,,,,,,,,,,,,,,,,,,,,,,,,,,,,,,,,,,,,,,,,,,,,,,,,,,,,,,,,,,,,,,,,,,,,,,,,,,,,,,
,,613a541cf948d295c1df8752,2024-02-21_21h28.32.971,kallum_motion_pilot,2023.2.2,Win32,39.84063745,613a541cf948d295c1df8752,65d6bb0e977760de756971f7,65d6bf287e0756d9bca0652c,0.04,0.0401,0,70,70,44,1,threeone,,,,,,,,,,,,,,,,,,,,,,,,,,,,,,,,,,,,,,,,,,,,,,,,,,,,,,,,,,,,,,,,,,,,,,,,,,,,,,,,,,,,,,,,,,,,,,,,,,,,,,,,,,,,,,,,,,,,,,,,,,,,,,,,,,,,,,,,,
,,613a541cf948d295c1df8752,2024-02-21_21h28.32.971,kallum_motion_pilot,2023.2.2,Win32,39.84063745,613a541cf948d295c1df8752,65d6bb0e977760de756971f7,65d6bf287e0756d9bca0652c,0.0401,0.0402,0,71,71,155,1,sixeight,,,,,,,,,,,,,,,,,,,,,,,,,,,,,,,,,,,,,,,,,,,,,,,,,,,,,,,,,,,,,,,,,,,,,,,,,,,,,,,,,,,,,,,,,,,,,,,,,,,,,,,,,,,,,,,,,,,,,,,,,,,,,,,,,,,,,,,,,
,,613a541cf948d295c1df8752,2024-02-21_21h28.32.971,kallum_motion_pilot,2023.2.2,Win32,39.84063745,613a541cf948d295c1df8752,65d6bb0e977760de756971f7,65d6bf287e0756d9bca0652c,0.0403,0.0404,0,72,72,17,1,onethree,,,,,,,,,,,,,,,,,,,,,,,,,,,,,,,,,,,,,,,,,,,,,,,,,,,,,,,,,,,,,,,,,,,,,,,,,,,,,,,,,,,,,,,,,,,,,,,,,,,,,,,,,,,,,,,,,,,,,,,,,,,,,,,,,,,,,,,,,
,,613a541cf948d295c1df8752,2024-02-21_21h28.32.971,kallum_motion_pilot,2023.2.2,Win32,39.84063745,613a541cf948d295c1df8752,65d6bb0e977760de756971f7,65d6bf287e0756d9bca0652c,0.0405,0.0406,0,73,73,69,1,threefour,,,,,,,,,,,,,,,,,,,,,,,,,,,,,,,,,,,,,,,,,,,,,,,,,,,,,,,,,,,,,,,,,,,,,,,,,,,,,,,,,,,,,,,,,,,,,,,,,,,,,,,,,,,,,,,,,,,,,,,,,,,,,,,,,,,,,,,,,
,,613a541cf948d295c1df8752,2024-02-21_21h28.32.971,kallum_motion_pilot,2023.2.2,Win32,39.84063745,613a541cf948d295c1df8752,65d6bb0e977760de756971f7,65d6bf287e0756d9bca0652c,0.0406,0.0407,0,74,74,71,1,fourthree,,,,,,,,,,,,,,,,,,,,,,,,,,,,,,,,,,,,,,,,,,,,,,,,,,,,,,,,,,,,,,,,,,,,,,,,,,,,,,,,,,,,,,,,,,,,,,,,,,,,,,,,,,,,,,,,,,,,,,,,,,,,,,,,,,,,,,,,,
,,613a541cf948d295c1df8752,2024-02-21_21h28.32.971,kallum_motion_pilot,2023.2.2,Win32,39.84063745,613a541cf948d295c1df8752,65d6bb0e977760de756971f7,65d6bf287e0756d9bca0652c,0.0408,0.0409,0,75,75,84,1,sevenfive,,,,,,,,,,,,,,,,,,,,,,,,,,,,,,,,,,,,,,,,,,,,,,,,,,,,,,,,,,,,,,,,,,,,,,,,,,,,,,,,,,,,,,,,,,,,,,,,,,,,,,,,,,,,,,,,,,,,,,,,,,,,,,,,,,,,,,,,,
,,613a541cf948d295c1df8752,2024-02-21_21h28.32.971,kallum_motion_pilot,2023.2.2,Win32,39.84063745,613a541cf948d295c1df8752,65d6bb0e977760de756971f7,65d6bf287e0756d9bca0652c,0.041,0.041,0,76,76,52,1,threeone,,,,,,,,,,,,,,,,,,,,,,,,,,,,,,,,,,,,,,,,,,,,,,,,,,,,,,,,,,,,,,,,,,,,,,,,,,,,,,,,,,,,,,,,,,,,,,,,,,,,,,,,,,,,,,,,,,,,,,,,,,,,,,,,,,,,,,,,,
,,613a541cf948d295c1df8752,2024-02-21_21h28.32.971,kallum_motion_pilot,2023.2.2,Win32,39.84063745,613a541cf948d295c1df8752,65d6bb0e977760de756971f7,65d6bf287e0756d9bca0652c,0.0411,0.0412,0,77,77,132,1,sevenfive,,,,,,,,,,,,,,,,,,,,,,,,,,,,,,,,,,,,,,,,,,,,,,,,,,,,,,,,,,,,,,,,,,,,,,,,,,,,,,,,,,,,,,,,,,,,,,,,,,,,,,,,,,,,,,,,,,,,,,,,,,,,,,,,,,,,,,,,,
,,613a541cf948d295c1df8752,2024-02-21_21h28.32.971,kallum_motion_pilot,2023.2.2,Win32,39.84063745,613a541cf948d295c1df8752,65d6bb0e977760de756971f7,65d6bf287e0756d9bca0652c,0.0413,0.0413,0,78,78,97,1,fiveseven,,,,,,,,,,,,,,,,,,,,,,,,,,,,,,,,,,,,,,,,,,,,,,,,,,,,,,,,,,,,,,,,,,,,,,,,,,,,,,,,,,,,,,,,,,,,,,,,,,,,,,,,,,,,,,,,,,,,,,,,,,,,,,,,,,,,,,,,,
,,613a541cf948d295c1df8752,2024-02-21_21h28.32.971,kallum_motion_pilot,2023.2.2,Win32,39.84063745,613a541cf948d295c1df8752,65d6bb0e977760de756971f7,65d6bf287e0756d9bca0652c,0.0414,0.0415,0,79,79,157,1,seveneight,,,,,,,,,,,,,,,,,,,,,,,,,,,,,,,,,,,,,,,,,,,,,,,,,,,,,,,,,,,,,,,,,,,,,,,,,,,,,,,,,,,,,,,,,,,,,,,,,,,,,,,,,,,,,,,,,,,,,,,,,,,,,,,,,,,,,,,,,
,,613a541cf948d295c1df8752,2024-02-21_21h28.32.971,kallum_motion_pilot,2023.2.2,Win32,39.84063745,613a541cf948d295c1df8752,65d6bb0e977760de756971f7,65d6bf287e0756d9bca0652c,0.0415,0.0416,0,80,80,111,1,eightseven,,,,,,,,,,,,,,,,,,,,,,,,,,,,,,,,,,,,,,,,,,,,,,,,,,,,,,,,,,,,,,,,,,,,,,,,,,,,,,,,,,,,,,,,,,,,,,,,,,,,,,,,,,,,,,,,,,,,,,,,,,,,,,,,,,,,,,,,,
,,613a541cf948d295c1df8752,2024-02-21_21h28.32.971,kallum_motion_pilot,2023.2.2,Win32,39.84063745,613a541cf948d295c1df8752,65d6bb0e977760de756971f7,65d6bf287e0756d9bca0652c,0.0417,0.0417,0,81,81,41,1,onethree,,,,,,,,,,,,,,,,,,,,,,,,,,,,,,,,,,,,,,,,,,,,,,,,,,,,,,,,,,,,,,,,,,,,,,,,,,,,,,,,,,,,,,,,,,,,,,,,,,,,,,,,,,,,,,,,,,,,,,,,,,,,,,,,,,,,,,,,,
,,613a541cf948d295c1df8752,2024-02-21_21h28.32.971,kallum_motion_pilot,2023.2.2,Win32,39.84063745,613a541cf948d295c1df8752,65d6bb0e977760de756971f7,65d6bf287e0756d9bca0652c,0.0419,0.042,0,82,82,101,1,seveneight,,,,,,,,,,,,,,,,,,,,,,,,,,,,,,,,,,,,,,,,,,,,,,,,,,,,,,,,,,,,,,,,,,,,,,,,,,,,,,,,,,,,,,,,,,,,,,,,,,,,,,,,,,,,,,,,,,,,,,,,,,,,,,,,,,,,,,,,,
,,613a541cf948d295c1df8752,2024-02-21_21h28.32.971,kallum_motion_pilot,2023.2.2,Win32,39.84063745,613a541cf948d295c1df8752,65d6bb0e977760de756971f7,65d6bf287e0756d9bca0652c,0.0421,0.0421,0,83,83,128,1,fivesix,,,,,,,,,,,,,,,,,,,,,,,,,,,,,,,,,,,,,,,,,,,,,,,,,,,,,,,,,,,,,,,,,,,,,,,,,,,,,,,,,,,,,,,,,,,,,,,,,,,,,,,,,,,,,,,,,,,,,,,,,,,,,,,,,,,,,,,,,
,,613a541cf948d295c1df8752,2024-02-21_21h28.32.971,kallum_motion_pilot,2023.2.2,Win32,39.84063745,613a541cf948d295c1df8752,65d6bb0e977760de756971f7,65d6bf287e0756d9bca0652c,0.0422,0.0423,0,84,84,32,1,onetwo,,,,,,,,,,,,,,,,,,,,,,,,,,,,,,,,,,,,,,,,,,,,,,,,,,,,,,,,,,,,,,,,,,,,,,,,,,,,,,,,,,,,,,,,,,,,,,,,,,,,,,,,,,,,,,,,,,,,,,,,,,,,,,,,,,,,,,,,,
,,613a541cf948d295c1df8752,2024-02-21_21h28.32.971,kallum_motion_pilot,2023.2.2,Win32,39.84063745,613a541cf948d295c1df8752,65d6bb0e977760de756971f7,65d6bf287e0756d9bca0652c,0.0424,0.0424,0,85,85,85,1,seveneight,,,,,,,,,,,,,,,,,,,,,,,,,,,,,,,,,,,,,,,,,,,,,,,,,,,,,,,,,,,,,,,,,,,,,,,,,,,,,,,,,,,,,,,,,,,,,,,,,,,,,,,,,,,,,,,,,,,,,,,,,,,,,,,,,,,,,,,,,
,,613a541cf948d295c1df8752,2024-02-21_21h28.32.971,kallum_motion_pilot,2023.2.2,Win32,39.84063745,613a541cf948d295c1df8752,65d6bb0e977760de756971f7,65d6bf287e0756d9bca0652c,0.0425,0.0426,0,86,86,134,1,eightsix,,,,,,,,,,,,,,,,,,,,,,,,,,,,,,,,,,,,,,,,,,,,,,,,,,,,,,,,,,,,,,,,,,,,,,,,,,,,,,,,,,,,,,,,,,,,,,,,,,,,,,,,,,,,,,,,,,,,,,,,,,,,,,,,,,,,,,,,,
,,613a541cf948d295c1df8752,2024-02-21_21h28.32.971,kallum_motion_pilot,2023.2.2,Win32,39.84063745,613a541cf948d295c1df8752,65d6bb0e977760de756971f7,65d6bf287e0756d9bca0652c,0.0426,0.0427,0,87,87,83,1,sixeight,,,,,,,,,,,,,,,,,,,,,,,,,,,,,,,,,,,,,,,,,,,,,,,,,,,,,,,,,,,,,,,,,,,,,,,,,,,,,,,,,,,,,,,,,,,,,,,,,,,,,,,,,,,,,,,,,,,,,,,,,,,,,,,,,,,,,,,,,
,,613a541cf948d295c1df8752,2024-02-21_21h28.32.971,kallum_motion_pilot,2023.2.2,Win32,39.84063745,613a541cf948d295c1df8752,65d6bb0e977760de756971f7,65d6bf287e0756d9bca0652c,0.0428,0.0429,0,88,88,90,1,sixfive,,,,,,,,,,,,,,,,,,,,,,,,,,,,,,,,,,,,,,,,,,,,,,,,,,,,,,,,,,,,,,,,,,,,,,,,,,,,,,,,,,,,,,,,,,,,,,,,,,,,,,,,,,,,,,,,,,,,,,,,,,,,,,,,,,,,,,,,,
,,613a541cf948d295c1df8752,2024-02-21_21h28.32.971,kallum_motion_pilot,2023.2.2,Win32,39.84063745,613a541cf948d295c1df8752,65d6bb0e977760de756971f7,65d6bf287e0756d9bca0652c,0.043,0.043,0,89,89,154,1,sixfive,,,,,,,,,,,,,,,,,,,,,,,,,,,,,,,,,,,,,,,,,,,,,,,,,,,,,,,,,,,,,,,,,,,,,,,,,,,,,,,,,,,,,,,,,,,,,,,,,,,,,,,,,,,,,,,,,,,,,,,,,,,,,,,,,,,,,,,,,
,,613a541cf948d295c1df8752,2024-02-21_21h28.32.971,kallum_motion_pilot,2023.2.2,Win32,39.84063745,613a541cf948d295c1df8752,65d6bb0e977760de756971f7,65d6bf287e0756d9bca0652c,0.0432,0.0432,0,90,90,102,1,eightsix,,,,,,,,,,,,,,,,,,,,,,,,,,,,,,,,,,,,,,,,,,,,,,,,,,,,,,,,,,,,,,,,,,,,,,,,,,,,,,,,,,,,,,,,,,,,,,,,,,,,,,,,,,,,,,,,,,,,,,,,,,,,,,,,,,,,,,,,,
,,613a541cf948d295c1df8752,2024-02-21_21h28.32.971,kallum_motion_pilot,2023.2.2,Win32,39.84063745,613a541cf948d295c1df8752,65d6bb0e977760de756971f7,65d6bf287e0756d9bca0652c,0.0432,0.0433,0,91,91,107,1,sixeight,,,,,,,,,,,,,,,,,,,,,,,,,,,,,,,,,,,,,,,,,,,,,,,,,,,,,,,,,,,,,,,,,,,,,,,,,,,,,,,,,,,,,,,,,,,,,,,,,,,,,,,,,,,,,,,,,,,,,,,,,,,,,,,,,,,,,,,,,
,,613a541cf948d295c1df8752,2024-02-21_21h28.32.971,kallum_motion_pilot,2023.2.2,Win32,39.84063745,613a541cf948d295c1df8752,65d6bb0e977760de756971f7,65d6bf287e0756d9bca0652c,0.0434,0.0435,0,92,92,148,1,sevenfive,,,,,,,,,,,,,,,,,,,,,,,,,,,,,,,,,,,,,,,,,,,,,,,,,,,,,,,,,,,,,,,,,,,,,,,,,,,,,,,,,,,,,,,,,,,,,,,,,,,,,,,,,,,,,,,,,,,,,,,,,,,,,,,,,,,,,,,,,
,,613a541cf948d295c1df8752,2024-02-21_21h28.32.971,kallum_motion_pilot,2023.2.2,Win32,39.84063745,613a541cf948d295c1df8752,65d6bb0e977760de756971f7,65d6bf287e0756d9bca0652c,0.0437,0.0437,0,93,93,49,1,onethree,,,,,,,,,,,,,,,,,,,,,,,,,,,,,,,,,,,,,,,,,,,,,,,,,,,,,,,,,,,,,,,,,,,,,,,,,,,,,,,,,,,,,,,,,,,,,,,,,,,,,,,,,,,,,,,,,,,,,,,,,,,,,,,,,,,,,,,,,
,,613a541cf948d295c1df8752,2024-02-21_21h28.32.971,kallum_motion_pilot,2023.2.2,Win32,39.84063745,613a541cf948d295c1df8752,65d6bb0e977760de756971f7,65d6bf287e0756d9bca0652c,0.0437,0.0438,0,94,94,137,1,fiveseven,,,,,,,,,,,,,,,,,,,,,,,,,,,,,,,,,,,,,,,,,,,,,,,,,,,,,,,,,,,,,,,,,,,,,,,,,,,,,,,,,,,,,,,,,,,,,,,,,,,,,,,,,,,,,,,,,,,,,,,,,,,,,,,,,,,,,,,,,
,,613a541cf948d295c1df8752,2024-02-21_21h28.32.971,kallum_motion_pilot,2023.2.2,Win32,39.84063745,613a541cf948d295c1df8752,65d6bb0e977760de756971f7,65d6bf287e0756d9bca0652c,0.0439,0.044,0,95,95,19,1,twofour,,,,,,,,,,,,,,,,,,,,,,,,,,,,,,,,,,,,,,,,,,,,,,,,,,,,,,,,,,,,,,,,,,,,,,,,,,,,,,,,,,,,,,,,,,,,,,,,,,,,,,,,,,,,,,,,,,,,,,,,,,,,,,,,,,,,,,,,,
,,613a541cf948d295c1df8752,2024-02-21_21h28.32.971,kallum_motion_pilot,2023.2.2,Win32,39.84063745,613a541cf948d295c1df8752,65d6bb0e977760de756971f7,65d6bf287e0756d9bca0652c,0.0441,0.0441,0,96,96,45,1,threefour,,,,,,,,,,,,,,,,,,,,,,,,,,,,,,,,,,,,,,,,,,,,,,,,,,,,,,,,,,,,,,,,,,,,,,,,,,,,,,,,,,,,,,,,,,,,,,,,,,,,,,,,,,,,,,,,,,,,,,,,,,,,,,,,,,,,,,,,,
,,613a541cf948d295c1df8752,2024-02-21_21h28.32.971,kallum_motion_pilot,2023.2.2,Win32,39.84063745,613a541cf948d295c1df8752,65d6bb0e977760de756971f7,65d6bf287e0756d9bca0652c,0.0443,0.0443,0,97,97,2,1,twoone,,,,,,,,,,,,,,,,,,,,,,,,,,,,,,,,,,,,,,,,,,,,,,,,,,,,,,,,,,,,,,,,,,,,,,,,,,,,,,,,,,,,,,,,,,,,,,,,,,,,,,,,,,,,,,,,,,,,,,,,,,,,,,,,,,,,,,,,,
,,613a541cf948d295c1df8752,2024-02-21_21h28.32.971,kallum_motion_pilot,2023.2.2,Win32,39.84063745,613a541cf948d295c1df8752,65d6bb0e977760de756971f7,65d6bf287e0756d9bca0652c,0.0445,0.0447,0,98,98,92,1,sevenfive,,,,,,,,,,,,,,,,,,,,,,,,,,,,,,,,,,,,,,,,,,,,,,,,,,,,,,,,,,,,,,,,,,,,,,,,,,,,,,,,,,,,,,,,,,,,,,,,,,,,,,,,,,,,,,,,,,,,,,,,,,,,,,,,,,,,,,,,,
,,613a541cf948d295c1df8752,2024-02-21_21h28.32.971,kallum_motion_pilot,2023.2.2,Win32,39.84063745,613a541cf948d295c1df8752,65d6bb0e977760de756971f7,65d6bf287e0756d9bca0652c,0.0448,0.0449,0,99,99,51,1,twofour,,,,,,,,,,,,,,,,,,,,,,,,,,,,,,,,,,,,,,,,,,,,,,,,,,,,,,,,,,,,,,,,,,,,,,,,,,,,,,,,,,,,,,,,,,,,,,,,,,,,,,,,,,,,,,,,,,,,,,,,,,,,,,,,,,,,,,,,,
,,613a541cf948d295c1df8752,2024-02-21_21h28.32.971,kallum_motion_pilot,2023.2.2,Win32,39.84063745,613a541cf948d295c1df8752,65d6bb0e977760de756971f7,65d6bf287e0756d9bca0652c,0.045,0.0451,0,100,100,122,1,sixfive,,,,,,,,,,,,,,,,,,,,,,,,,,,,,,,,,,,,,,,,,,,,,,,,,,,,,,,,,,,,,,,,,,,,,,,,,,,,,,,,,,,,,,,,,,,,,,,,,,,,,,,,,,,,,,,,,,,,,,,,,,,,,,,,,,,,,,,,,
,,613a541cf948d295c1df8752,2024-02-21_21h28.32.971,kallum_motion_pilot,2023.2.2,Win32,39.84063745,613a541cf948d295c1df8752,65d6bb0e977760de756971f7,65d6bf287e0756d9bca0652c,0.0451,0.0452,0,101,101,48,1,onetwo,,,,,,,,,,,,,,,,,,,,,,,,,,,,,,,,,,,,,,,,,,,,,,,,,,,,,,,,,,,,,,,,,,,,,,,,,,,,,,,,,,,,,,,,,,,,,,,,,,,,,,,,,,,,,,,,,,,,,,,,,,,,,,,,,,,,,,,,,
,,613a541cf948d295c1df8752,2024-02-21_21h28.32.971,kallum_motion_pilot,2023.2.2,Win32,39.84063745,613a541cf948d295c1df8752,65d6bb0e977760de756971f7,65d6bf287e0756d9bca0652c,0.0454,0.0454,0,102,102,9,1,onethree,,,,,,,,,,,,,,,,,,,,,,,,,,,,,,,,,,,,,,,,,,,,,,,,,,,,,,,,,,,,,,,,,,,,,,,,,,,,,,,,,,,,,,,,,,,,,,,,,,,,,,,,,,,,,,,,,,,,,,,,,,,,,,,,,,,,,,,,,
,,613a541cf948d295c1df8752,2024-02-21_21h28.32.971,kallum_motion_pilot,2023.2.2,Win32,39.84063745,613a541cf948d295c1df8752,65d6bb0e977760de756971f7,65d6bf287e0756d9bca0652c,0.0455,0.0455,0,103,103,109,1,seveneight,,,,,,,,,,,,,,,,,,,,,,,,,,,,,,,,,,,,,,,,,,,,,,,,,,,,,,,,,,,,,,,,,,,,,,,,,,,,,,,,,,,,,,,,,,,,,,,,,,,,,,,,,,,,,,,,,,,,,,,,,,,,,,,,,,,,,,,,,
,,613a541cf948d295c1df8752,2024-02-21_21h28.32.971,kallum_motion_pilot,2023.2.2,Win32,39.84063745,613a541cf948d295c1df8752,65d6bb0e977760de756971f7,65d6bf287e0756d9bca0652c,0.0457,0.0457,0,104,104,152,1,fivesix,,,,,,,,,,,,,,,,,,,,,,,,,,,,,,,,,,,,,,,,,,,,,,,,,,,,,,,,,,,,,,,,,,,,,,,,,,,,,,,,,,,,,,,,,,,,,,,,,,,,,,,,,,,,,,,,,,,,,,,,,,,,,,,,,,,,,,,,,
,,613a541cf948d295c1df8752,2024-02-21_21h28.32.971,kallum_motion_pilot,2023.2.2,Win32,39.84063745,613a541cf948d295c1df8752,65d6bb0e977760de756971f7,65d6bf287e0756d9bca0652c,0.0458,0.0459,0,105,105,139,1,sixeight,,,,,,,,,,,,,,,,,,,,,,,,,,,,,,,,,,,,,,,,,,,,,,,,,,,,,,,,,,,,,,,,,,,,,,,,,,,,,,,,,,,,,,,,,,,,,,,,,,,,,,,,,,,,,,,,,,,,,,,,,,,,,,,,,,,,,,,,,
,,613a541cf948d295c1df8752,2024-02-21_21h28.32.971,kallum_motion_pilot,2023.2.2,Win32,39.84063745,613a541cf948d295c1df8752,65d6bb0e977760de756971f7,65d6bf287e0756d9bca0652c,0.0461,0.0461,0,106,106,61,1,threefour,,,,,,,,,,,,,,,,,,,,,,,,,,,,,,,,,,,,,,,,,,,,,,,,,,,,,,,,,,,,,,,,,,,,,,,,,,,,,,,,,,,,,,,,,,,,,,,,,,,,,,,,,,,,,,,,,,,,,,,,,,,,,,,,,,,,,,,,,
,,613a541cf948d295c1df8752,2024-02-21_21h28.32.971,kallum_motion_pilot,2023.2.2,Win32,39.84063745,613a541cf948d295c1df8752,65d6bb0e977760de756971f7,65d6bf287e0756d9bca0652c,0.0462,0.0463,0,107,107,5,1,threefour,,,,,,,,,,,,,,,,,,,,,,,,,,,,,,,,,,,,,,,,,,,,,,,,,,,,,,,,,,,,,,,,,,,,,,,,,,,,,,,,,,,,,,,,,,,,,,,,,,,,,,,,,,,,,,,,,,,,,,,,,,,,,,,,,,,,,,,,,
,,613a541cf948d295c1df8752,2024-02-21_21h28.32.971,kallum_motion_pilot,2023.2.2,Win32,39.84063745,613a541cf948d295c1df8752,65d6bb0e977760de756971f7,65d6bf287e0756d9bca0652c,0.0464,0.0464,0,108,108,98,1,sixfive,,,,,,,,,,,,,,,,,,,,,,,,,,,,,,,,,,,,,,,,,,,,,,,,,,,,,,,,,,,,,,,,,,,,,,,,,,,,,,,,,,,,,,,,,,,,,,,,,,,,,,,,,,,,,,,,,,,,,,,,,,,,,,,,,,,,,,,,,
,,613a541cf948d295c1df8752,2024-02-21_21h28.32.971,kallum_motion_pilot,2023.2.2,Win32,39.84063745,613a541cf948d295c1df8752,65d6bb0e977760de756971f7,65d6bf287e0756d9bca0652c,0.0466,0.0466,0,109,109,42,1,twoone,,,,,,,,,,,,,,,,,,,,,,,,,,,,,,,,,,,,,,,,,,,,,,,,,,,,,,,,,,,,,,,,,,,,,,,,,,,,,,,,,,,,,,,,,,,,,,,,,,,,,,,,,,,,,,,,,,,,,,,,,,,,,,,,,,,,,,,,,
,,613a541cf948d295c1df8752,2024-02-21_21h28.32.971,kallum_motion_pilot,2023.2.2,Win32,39.84063745,613a541cf948d295c1df8752,65d6bb0e977760de756971f7,65d6bf287e0756d9bca0652c,0.0467,0.0467,0,110,110,34,1,twoone,,,,,,,,,,,,,,,,,,,,,,,,,,,,,,,,,,,,,,,,,,,,,,,,,,,,,,,,,,,,,,,,,,,,,,,,,,,,,,,,,,,,,,,,,,,,,,,,,,,,,,,,,,,,,,,,,,,,,,,,,,,,,,,,,,,,,,,,,
,,613a541cf948d295c1df8752,2024-02-21_21h28.32.971,kallum_motion_pilot,2023.2.2,Win32,39.84063745,613a541cf948d295c1df8752,65d6bb0e977760de756971f7,65d6bf287e0756d9bca0652c,0.0469,0.0469,0,111,111,130,1,sixfive,,,,,,,,,,,,,,,,,,,,,,,,,,,,,,,,,,,,,,,,,,,,,,,,,,,,,,,,,,,,,,,,,,,,,,,,,,,,,,,,,,,,,,,,,,,,,,,,,,,,,,,,,,,,,,,,,,,,,,,,,,,,,,,,,,,,,,,,,
,,613a541cf948d295c1df8752,2024-02-21_21h28.32.971,kallum_motion_pilot,2023.2.2,Win32,39.84063745,613a541cf948d295c1df8752,65d6bb0e977760de756971f7,65d6bf287e0756d9bca0652c,0.0471,0.0471,0,112,112,66,1,twoone,,,,,,,,,,,,,,,,,,,,,,,,,,,,,,,,,,,,,,,,,,,,,,,,,,,,,,,,,,,,,,,,,,,,,,,,,,,,,,,,,,,,,,,,,,,,,,,,,,,,,,,,,,,,,,,,,,,,,,,,,,,,,,,,,,,,,,,,,
,,613a541cf948d295c1df8752,2024-02-21_21h28.32.971,kallum_motion_pilot,2023.2.2,Win32,39.84063745,613a541cf948d295c1df8752,65d6bb0e977760de756971f7,65d6bf287e0756d9bca0652c,0.0473,0.0473,0,113,113,88,1,fivesix,,,,,,,,,,,,,,,,,,,,,,,,,,,,,,,,,,,,,,,,,,,,,,,,,,,,,,,,,,,,,,,,,,,,,,,,,,,,,,,,,,,,,,,,,,,,,,,,,,,,,,,,,,,,,,,,,,,,,,,,,,,,,,,,,,,,,,,,,
,,613a541cf948d295c1df8752,2024-02-21_21h28.32.971,kallum_motion_pilot,2023.2.2,Win32,39.84063745,613a541cf948d295c1df8752,65d6bb0e977760de756971f7,65d6bf287e0756d9bca0652c,0.0474,0.0474,0,114,114,121,1,fiveseven,,,,,,,,,,,,,,,,,,,,,,,,,,,,,,,,,,,,,,,,,,,,,,,,,,,,,,,,,,,,,,,,,,,,,,,,,,,,,,,,,,,,,,,,,,,,,,,,,,,,,,,,,,,,,,,,,,,,,,,,,,,,,,,,,,,,,,,,,
,,613a541cf948d295c1df8752,2024-02-21_21h28.32.971,kallum_motion_pilot,2023.2.2,Win32,39.84063745,613a541cf948d295c1df8752,65d6bb0e977760de756971f7,65d6bf287e0756d9bca0652c,0.0476,0.0476,0,115,115,7,1,fourthree,,,,,,,,,,,,,,,,,,,,,,,,,,,,,,,,,,,,,,,,,,,,,,,,,,,,,,,,,,,,,,,,,,,,,,,,,,,,,,,,,,,,,,,,,,,,,,,,,,,,,,,,,,,,,,,,,,,,,,,,,,,,,,,,,,,,,,,,,
,,613a541cf948d295c1df8752,2024-02-21_21h28.32.971,kallum_motion_pilot,2023.2.2,Win32,39.84063745,613a541cf948d295c1df8752,65d6bb0e977760de756971f7,65d6bf287e0756d9bca0652c,0.0477,0.0478,0,116,116,60,1,threeone,,,,,,,,,,,,,,,,,,,,,,,,,,,,,,,,,,,,,,,,,,,,,,,,,,,,,,,,,,,,,,,,,,,,,,,,,,,,,,,,,,,,,,,,,,,,,,,,,,,,,,,,,,,,,,,,,,,,,,,,,,,,,,,,,,,,,,,,,
,,613a541cf948d295c1df8752,2024-02-21_21h28.32.971,kallum_motion_pilot,2023.2.2,Win32,39.84063745,613a541cf948d295c1df8752,65d6bb0e977760de756971f7,65d6bf287e0756d9bca0652c,0.0479,0.0479,0,117,117,10,1,twoone,,,,,,,,,,,,,,,,,,,,,,,,,,,,,,,,,,,,,,,,,,,,,,,,,,,,,,,,,,,,,,,,,,,,,,,,,,,,,,,,,,,,,,,,,,,,,,,,,,,,,,,,,,,,,,,,,,,,,,,,,,,,,,,,,,,,,,,,,
,,613a541cf948d295c1df8752,2024-02-21_21h28.32.971,kallum_motion_pilot,2023.2.2,Win32,39.84063745,613a541cf948d295c1df8752,65d6bb0e977760de756971f7,65d6bf287e0756d9bca0652c,0.048,0.0481,0,118,118,142,1,eightsix,,,,,,,,,,,,,,,,,,,,,,,,,,,,,,,,,,,,,,,,,,,,,,,,,,,,,,,,,,,,,,,,,,,,,,,,,,,,,,,,,,,,,,,,,,,,,,,,,,,,,,,,,,,,,,,,,,,,,,,,,,,,,,,,,,,,,,,,,
,,613a541cf948d295c1df8752,2024-02-21_21h28.32.971,kallum_motion_pilot,2023.2.2,Win32,39.84063745,613a541cf948d295c1df8752,65d6bb0e977760de756971f7,65d6bf287e0756d9bca0652c,0.0482,0.0483,0,119,119,15,1,fourthree,,,,,,,,,,,,,,,,,,,,,,,,,,,,,,,,,,,,,,,,,,,,,,,,,,,,,,,,,,,,,,,,,,,,,,,,,,,,,,,,,,,,,,,,,,,,,,,,,,,,,,,,,,,,,,,,,,,,,,,,,,,,,,,,,,,,,,,,,
,,613a541cf948d295c1df8752,2024-02-21_21h28.32.971,kallum_motion_pilot,2023.2.2,Win32,39.84063745,613a541cf948d295c1df8752,65d6bb0e977760de756971f7,65d6bf287e0756d9bca0652c,0.0484,0.0485,0,120,120,24,1,onetwo,,,,,,,,,,,,,,,,,,,,,,,,,,,,,,,,,,,,,,,,,,,,,,,,,,,,,,,,,,,,,,,,,,,,,,,,,,,,,,,,,,,,,,,,,,,,,,,,,,,,,,,,,,,,,,,,,,,,,,,,,,,,,,,,,,,,,,,,,
,,613a541cf948d295c1df8752,2024-02-21_21h28.32.971,kallum_motion_pilot,2023.2.2,Win32,39.84063745,613a541cf948d295c1df8752,65d6bb0e977760de756971f7,65d6bf287e0756d9bca0652c,0.0486,0.0486,0,121,121,131,1,sixeight,,,,,,,,,,,,,,,,,,,,,,,,,,,,,,,,,,,,,,,,,,,,,,,,,,,,,,,,,,,,,,,,,,,,,,,,,,,,,,,,,,,,,,,,,,,,,,,,,,,,,,,,,,,,,,,,,,,,,,,,,,,,,,,,,,,,,,,,,
,,613a541cf948d295c1df8752,2024-02-21_21h28.32.971,kallum_motion_pilot,2023.2.2,Win32,39.84063745,613a541cf948d295c1df8752,65d6bb0e977760de756971f7,65d6bf287e0756d9bca0652c,0.0488,0.0488,0,122,122,39,1,fourthree,,,,,,,,,,,,,,,,,,,,,,,,,,,,,,,,,,,,,,,,,,,,,,,,,,,,,,,,,,,,,,,,,,,,,,,,,,,,,,,,,,,,,,,,,,,,,,,,,,,,,,,,,,,,,,,,,,,,,,,,,,,,,,,,,,,,,,,,,
,,613a541cf948d295c1df8752,2024-02-21_21h28.32.971,kallum_motion_pilot,2023.2.2,Win32,39.84063745,613a541cf948d295c1df8752,65d6bb0e977760de756971f7,65d6bf287e0756d9bca0652c,0.049,0.049,0,123,123,105,1,fiveseven,,,,,,,,,,,,,,,,,,,,,,,,,,,,,,,,,,,,,,,,,,,,,,,,,,,,,,,,,,,,,,,,,,,,,,,,,,,,,,,,,,,,,,,,,,,,,,,,,,,,,,,,,,,,,,,,,,,,,,,,,,,,,,,,,,,,,,,,,
,,613a541cf948d295c1df8752,2024-02-21_21h28.32.971,kallum_motion_pilot,2023.2.2,Win32,39.84063745,613a541cf948d295c1df8752,65d6bb0e977760de756971f7,65d6bf287e0756d9bca0652c,0.0491,0.0492,0,124,124,100,1,sevenfive,,,,,,,,,,,,,,,,,,,,,,,,,,,,,,,,,,,,,,,,,,,,,,,,,,,,,,,,,,,,,,,,,,,,,,,,,,,,,,,,,,,,,,,,,,,,,,,,,,,,,,,,,,,,,,,,,,,,,,,,,,,,,,,,,,,,,,,,,
,,613a541cf948d295c1df8752,2024-02-21_21h28.32.971,kallum_motion_pilot,2023.2.2,Win32,39.84063745,613a541cf948d295c1df8752,65d6bb0e977760de756971f7,65d6bf287e0756d9bca0652c,0.0493,0.0494,0,125,125,80,1,fivesix,,,,,,,,,,,,,,,,,,,,,,,,,,,,,,,,,,,,,,,,,,,,,,,,,,,,,,,,,,,,,,,,,,,,,,,,,,,,,,,,,,,,,,,,,,,,,,,,,,,,,,,,,,,,,,,,,,,,,,,,,,,,,,,,,,,,,,,,,
,,613a541cf948d295c1df8752,2024-02-21_21h28.32.971,kallum_motion_pilot,2023.2.2,Win32,39.84063745,613a541cf948d295c1df8752,65d6bb0e977760de756971f7,65d6bf287e0756d9bca0652c,0.0495,0.0496,0,126,126,116,1,sevenfive,,,,,,,,,,,,,,,,,,,,,,,,,,,,,,,,,,,,,,,,,,,,,,,,,,,,,,,,,,,,,,,,,,,,,,,,,,,,,,,,,,,,,,,,,,,,,,,,,,,,,,,,,,,,,,,,,,,,,,,,,,,,,,,,,,,,,,,,,
,,613a541cf948d295c1df8752,2024-02-21_21h28.32.971,kallum_motion_pilot,2023.2.2,Win32,39.84063745,613a541cf948d295c1df8752,65d6bb0e977760de756971f7,65d6bf287e0756d9bca0652c,0.0497,0.0497,0,127,127,144,1,fivesix,,,,,,,,,,,,,,,,,,,,,,,,,,,,,,,,,,,,,,,,,,,,,,,,,,,,,,,,,,,,,,,,,,,,,,,,,,,,,,,,,,,,,,,,,,,,,,,,,,,,,,,,,,,,,,,,,,,,,,,,,,,,,,,,,,,,,,,,,
,,613a541cf948d295c1df8752,2024-02-21_21h28.32.971,kallum_motion_pilot,2023.2.2,Win32,39.84063745,613a541cf948d295c1df8752,65d6bb0e977760de756971f7,65d6bf287e0756d9bca0652c,0.0498,0.0499,0,128,128,145,1,fiveseven,,,,,,,,,,,,,,,,,,,,,,,,,,,,,,,,,,,,,,,,,,,,,,,,,,,,,,,,,,,,,,,,,,,,,,,,,,,,,,,,,,,,,,,,,,,,,,,,,,,,,,,,,,,,,,,,,,,,,,,,,,,,,,,,,,,,,,,,,
,,613a541cf948d295c1df8752,2024-02-21_21h28.32.971,kallum_motion_pilot,2023.2.2,Win32,39.84063745,613a541cf948d295c1df8752,65d6bb0e977760de756971f7,65d6bf287e0756d9bca0652c,0.0501,0.0501,0,129,129,33,1,onethree,,,,,,,,,,,,,,,,,,,,,,,,,,,,,,,,,,,,,,,,,,,,,,,,,,,,,,,,,,,,,,,,,,,,,,,,,,,,,,,,,,,,,,,,,,,,,,,,,,,,,,,,,,,,,,,,,,,,,,,,,,,,,,,,,,,,,,,,,
,,613a541cf948d295c1df8752,2024-02-21_21h28.32.971,kallum_motion_pilot,2023.2.2,Win32,39.84063745,613a541cf948d295c1df8752,65d6bb0e977760de756971f7,65d6bf287e0756d9bca0652c,0.0503,0.0503,0,130,130,65,1,onethree,,,,,,,,,,,,,,,,,,,,,,,,,,,,,,,,,,,,,,,,,,,,,,,,,,,,,,,,,,,,,,,,,,,,,,,,,,,,,,,,,,,,,,,,,,,,,,,,,,,,,,,,,,,,,,,,,,,,,,,,,,,,,,,,,,,,,,,,,
,,613a541cf948d295c1df8752,2024-02-21_21h28.32.971,kallum_motion_pilot,2023.2.2,Win32,39.84063745,613a541cf948d295c1df8752,65d6bb0e977760de756971f7,65d6bf287e0756d9bca0652c,0.0505,0.0506,0,131,131,73,1,onethree,,,,,,,,,,,,,,,,,,,,,,,,,,,,,,,,,,,,,,,,,,,,,,,,,,,,,,,,,,,,,,,,,,,,,,,,,,,,,,,,,,,,,,,,,,,,,,,,,,,,,,,,,,,,,,,,,,,,,,,,,,,,,,,,,,,,,,,,,
,,613a541cf948d295c1df8752,2024-02-21_21h28.32.971,kallum_motion_pilot,2023.2.2,Win32,39.84063745,613a541cf948d295c1df8752,65d6bb0e977760de756971f7,65d6bf287e0756d9bca0652c,0.0507,0.0508,0,132,132,30,1,fourtwo,,,,,,,,,,,,,,,,,,,,,,,,,,,,,,,,,,,,,,,,,,,,,,,,,,,,,,,,,,,,,,,,,,,,,,,,,,,,,,,,,,,,,,,,,,,,,,,,,,,,,,,,,,,,,,,,,,,,,,,,,,,,,,,,,,,,,,,,,
,,613a541cf948d295c1df8752,2024-02-21_21h28.32.971,kallum_motion_pilot,2023.2.2,Win32,39.84063745,613a541cf948d295c1df8752,65d6bb0e977760de756971f7,65d6bf287e0756d9bca0652c,0.0509,0.051,0,133,133,140,1,sevenfive,,,,,,,,,,,,,,,,,,,,,,,,,,,,,,,,,,,,,,,,,,,,,,,,,,,,,,,,,,,,,,,,,,,,,,,,,,,,,,,,,,,,,,,,,,,,,,,,,,,,,,,,,,,,,,,,,,,,,,,,,,,,,,,,,,,,,,,,,
,,613a541cf948d295c1df8752,2024-02-21_21h28.32.971,kallum_motion_pilot,2023.2.2,Win32,39.84063745,613a541cf948d295c1df8752,65d6bb0e977760de756971f7,65d6bf287e0756d9bca0652c,0.0511,0.0511,0,134,134,16,1,onetwo,,,,,,,,,,,,,,,,,,,,,,,,,,,,,,,,,,,,,,,,,,,,,,,,,,,,,,,,,,,,,,,,,,,,,,,,,,,,,,,,,,,,,,,,,,,,,,,,,,,,,,,,,,,,,,,,,,,,,,,,,,,,,,,,,,,,,,,,,
,,613a541cf948d295c1df8752,2024-02-21_21h28.32.971,kallum_motion_pilot,2023.2.2,Win32,39.84063745,613a541cf948d295c1df8752,65d6bb0e977760de756971f7,65d6bf287e0756d9bca0652c,0.0513,0.0514,0,135,135,159,1,eightseven,,,,,,,,,,,,,,,,,,,,,,,,,,,,,,,,,,,,,,,,,,,,,,,,,,,,,,,,,,,,,,,,,,,,,,,,,,,,,,,,,,,,,,,,,,,,,,,,,,,,,,,,,,,,,,,,,,,,,,,,,,,,,,,,,,,,,,,,,
,,613a541cf948d295c1df8752,2024-02-21_21h28.32.971,kallum_motion_pilot,2023.2.2,Win32,39.84063745,613a541cf948d295c1df8752,65d6bb0e977760de756971f7,65d6bf287e0756d9bca0652c,0.0514,0.0514,0,136,136,54,1,fourtwo,,,,,,,,,,,,,,,,,,,,,,,,,,,,,,,,,,,,,,,,,,,,,,,,,,,,,,,,,,,,,,,,,,,,,,,,,,,,,,,,,,,,,,,,,,,,,,,,,,,,,,,,,,,,,,,,,,,,,,,,,,,,,,,,,,,,,,,,,
,,613a541cf948d295c1df8752,2024-02-21_21h28.32.971,kallum_motion_pilot,2023.2.2,Win32,39.84063745,613a541cf948d295c1df8752,65d6bb0e977760de756971f7,65d6bf287e0756d9bca0652c,0.0515,0.0517,0,137,137,119,1,eightseven,,,,,,,,,,,,,,,,,,,,,,,,,,,,,,,,,,,,,,,,,,,,,,,,,,,,,,,,,,,,,,,,,,,,,,,,,,,,,,,,,,,,,,,,,,,,,,,,,,,,,,,,,,,,,,,,,,,,,,,,,,,,,,,,,,,,,,,,,
,,613a541cf948d295c1df8752,2024-02-21_21h28.32.971,kallum_motion_pilot,2023.2.2,Win32,39.84063745,613a541cf948d295c1df8752,65d6bb0e977760de756971f7,65d6bf287e0756d9bca0652c,0.0517,0.0519,0,138,138,112,1,fivesix,,,,,,,,,,,,,,,,,,,,,,,,,,,,,,,,,,,,,,,,,,,,,,,,,,,,,,,,,,,,,,,,,,,,,,,,,,,,,,,,,,,,,,,,,,,,,,,,,,,,,,,,,,,,,,,,,,,,,,,,,,,,,,,,,,,,,,,,,
,,613a541cf948d295c1df8752,2024-02-21_21h28.32.971,kallum_motion_pilot,2023.2.2,Win32,39.84063745,613a541cf948d295c1df8752,65d6bb0e977760de756971f7,65d6bf287e0756d9bca0652c,0.0519,0.052,0,139,139,8,1,onetwo,,,,,,,,,,,,,,,,,,,,,,,,,,,,,,,,,,,,,,,,,,,,,,,,,,,,,,,,,,,,,,,,,,,,,,,,,,,,,,,,,,,,,,,,,,,,,,,,,,,,,,,,,,,,,,,,,,,,,,,,,,,,,,,,,,,,,,,,,
,,613a541cf948d295c1df8752,2024-02-21_21h28.32.971,kallum_motion_pilot,2023.2.2,Win32,39.84063745,613a541cf948d295c1df8752,65d6bb0e977760de756971f7,65d6bf287e0756d9bca0652c,0.0521,0.0522,0,140,140,74,1,twoone,,,,,,,,,,,,,,,,,,,,,,,,,,,,,,,,,,,,,,,,,,,,,,,,,,,,,,,,,,,,,,,,,,,,,,,,,,,,,,,,,,,,,,,,,,,,,,,,,,,,,,,,,,,,,,,,,,,,,,,,,,,,,,,,,,,,,,,,,
,,613a541cf948d295c1df8752,2024-02-21_21h28.32.971,kallum_motion_pilot,2023.2.2,Win32,39.84063745,613a541cf948d295c1df8752,65d6bb0e977760de756971f7,65d6bf287e0756d9bca0652c,0.0523,0.0523,0,141,141,99,1,sixeight,,,,,,,,,,,,,,,,,,,,,,,,,,,,,,,,,,,,,,,,,,,,,,,,,,,,,,,,,,,,,,,,,,,,,,,,,,,,,,,,,,,,,,,,,,,,,,,,,,,,,,,,,,,,,,,,,,,,,,,,,,,,,,,,,,,,,,,,,
,,613a541cf948d295c1df8752,2024-02-21_21h28.32.971,kallum_motion_pilot,2023.2.2,Win32,39.84063745,613a541cf948d295c1df8752,65d6bb0e977760de756971f7,65d6bf287e0756d9bca0652c,0.0524,0.0526,0,142,142,36,1,threeone,,,,,,,,,,,,,,,,,,,,,,,,,,,,,,,,,,,,,,,,,,,,,,,,,,,,,,,,,,,,,,,,,,,,,,,,,,,,,,,,,,,,,,,,,,,,,,,,,,,,,,,,,,,,,,,,,,,,,,,,,,,,,,,,,,,,,,,,,
,,613a541cf948d295c1df8752,2024-02-21_21h28.32.971,kallum_motion_pilot,2023.2.2,Win32,39.84063745,613a541cf948d295c1df8752,65d6bb0e977760de756971f7,65d6bf287e0756d9bca0652c,0.0527,0.0527,0,143,143,20,1,threeone,,,,,,,,,,,,,,,,,,,,,,,,,,,,,,,,,,,,,,,,,,,,,,,,,,,,,,,,,,,,,,,,,,,,,,,,,,,,,,,,,,,,,,,,,,,,,,,,,,,,,,,,,,,,,,,,,,,,,,,,,,,,,,,,,,,,,,,,,
,,613a541cf948d295c1df8752,2024-02-21_21h28.32.971,kallum_motion_pilot,2023.2.2,Win32,39.84063745,613a541cf948d295c1df8752,65d6bb0e977760de756971f7,65d6bf287e0756d9bca0652c,0.0529,0.0529,0,144,144,158,1,eightsix,,,,,,,,,,,,,,,,,,,,,,,,,,,,,,,,,,,,,,,,,,,,,,,,,,,,,,,,,,,,,,,,,,,,,,,,,,,,,,,,,,,,,,,,,,,,,,,,,,,,,,,,,,,,,,,,,,,,,,,,,,,,,,,,,,,,,,,,,
,,613a541cf948d295c1df8752,2024-02-21_21h28.32.971,kallum_motion_pilot,2023.2.2,Win32,39.84063745,613a541cf948d295c1df8752,65d6bb0e977760de756971f7,65d6bf287e0756d9bca0652c,0.053,0.0531,0,145,145,59,1,twofour,,,,,,,,,,,,,,,,,,,,,,,,,,,,,,,,,,,,,,,,,,,,,,,,,,,,,,,,,,,,,,,,,,,,,,,,,,,,,,,,,,,,,,,,,,,,,,,,,,,,,,,,,,,,,,,,,,,,,,,,,,,,,,,,,,,,,,,,,
,,613a541cf948d295c1df8752,2024-02-21_21h28.32.971,kallum_motion_pilot,2023.2.2,Win32,39.84063745,613a541cf948d295c1df8752,65d6bb0e977760de756971f7,65d6bf287e0756d9bca0652c,0.0531,0.0533,0,146,146,35,1,twofour,,,,,,,,,,,,,,,,,,,,,,,,,,,,,,,,,,,,,,,,,,,,,,,,,,,,,,,,,,,,,,,,,,,,,,,,,,,,,,,,,,,,,,,,,,,,,,,,,,,,,,,,,,,,,,,,,,,,,,,,,,,,,,,,,,,,,,,,,
,,613a541cf948d295c1df8752,2024-02-21_21h28.32.971,kallum_motion_pilot,2023.2.2,Win32,39.84063745,613a541cf948d295c1df8752,65d6bb0e977760de756971f7,65d6bf287e0756d9bca0652c,0.0533,0.0535,0,147,147,70,1,fourtwo,,,,,,,,,,,,,,,,,,,,,,,,,,,,,,,,,,,,,,,,,,,,,,,,,,,,,,,,,,,,,,,,,,,,,,,,,,,,,,,,,,,,,,,,,,,,,,,,,,,,,,,,,,,,,,,,,,,,,,,,,,,,,,,,,,,,,,,,,
,,613a541cf948d295c1df8752,2024-02-21_21h28.32.971,kallum_motion_pilot,2023.2.2,Win32,39.84063745,613a541cf948d295c1df8752,65d6bb0e977760de756971f7,65d6bf287e0756d9bca0652c,0.0536,0.0536,0,148,148,81,1,fiveseven,,,,,,,,,,,,,,,,,,,,,,,,,,,,,,,,,,,,,,,,,,,,,,,,,,,,,,,,,,,,,,,,,,,,,,,,,,,,,,,,,,,,,,,,,,,,,,,,,,,,,,,,,,,,,,,,,,,,,,,,,,,,,,,,,,,,,,,,,
,,613a541cf948d295c1df8752,2024-02-21_21h28.32.971,kallum_motion_pilot,2023.2.2,Win32,39.84063745,613a541cf948d295c1df8752,65d6bb0e977760de756971f7,65d6bf287e0756d9bca0652c,0.0537,0.0538,0,149,149,31,1,fourthree,,,,,,,,,,,,,,,,,,,,,,,,,,,,,,,,,,,,,,,,,,,,,,,,,,,,,,,,,,,,,,,,,,,,,,,,,,,,,,,,,,,,,,,,,,,,,,,,,,,,,,,,,,,,,,,,,,,,,,,,,,,,,,,,,,,,,,,,,
,,613a541cf948d295c1df8752,2024-02-21_21h28.32.971,kallum_motion_pilot,2023.2.2,Win32,39.84063745,613a541cf948d295c1df8752,65d6bb0e977760de756971f7,65d6bf287e0756d9bca0652c,0.054,0.054,0,150,150,3,1,twofour,,,,,,,,,,,,,,,,,,,,,,,,,,,,,,,,,,,,,,,,,,,,,,,,,,,,,,,,,,,,,,,,,,,,,,,,,,,,,,,,,,,,,,,,,,,,,,,,,,,,,,,,,,,,,,,,,,,,,,,,,,,,,,,,,,,,,,,,,
,,613a541cf948d295c1df8752,2024-02-21_21h28.32.971,kallum_motion_pilot,2023.2.2,Win32,39.84063745,613a541cf948d295c1df8752,65d6bb0e977760de756971f7,65d6bf287e0756d9bca0652c,0.0541,0.0542,0,151,151,114,1,sixfive,,,,,,,,,,,,,,,,,,,,,,,,,,,,,,,,,,,,,,,,,,,,,,,,,,,,,,,,,,,,,,,,,,,,,,,,,,,,,,,,,,,,,,,,,,,,,,,,,,,,,,,,,,,,,,,,,,,,,,,,,,,,,,,,,,,,,,,,,
,,613a541cf948d295c1df8752,2024-02-21_21h28.32.971,kallum_motion_pilot,2023.2.2,Win32,39.84063745,613a541cf948d295c1df8752,65d6bb0e977760de756971f7,65d6bf287e0756d9bca0652c,0.0543,0.0544,0,152,152,55,1,fourthree,,,,,,,,,,,,,,,,,,,,,,,,,,,,,,,,,,,,,,,,,,,,,,,,,,,,,,,,,,,,,,,,,,,,,,,,,,,,,,,,,,,,,,,,,,,,,,,,,,,,,,,,,,,,,,,,,,,,,,,,,,,,,,,,,,,,,,,,,
,,613a541cf948d295c1df8752,2024-02-21_21h28.32.971,kallum_motion_pilot,2023.2.2,Win32,39.84063745,613a541cf948d295c1df8752,65d6bb0e977760de756971f7,65d6bf287e0756d9bca0652c,0.0545,0.0546,0,153,153,151,1,eightseven,,,,,,,,,,,,,,,,,,,,,,,,,,,,,,,,,,,,,,,,,,,,,,,,,,,,,,,,,,,,,,,,,,,,,,,,,,,,,,,,,,,,,,,,,,,,,,,,,,,,,,,,,,,,,,,,,,,,,,,,,,,,,,,,,,,,,,,,,
,,613a541cf948d295c1df8752,2024-02-21_21h28.32.971,kallum_motion_pilot,2023.2.2,Win32,39.84063745,613a541cf948d295c1df8752,65d6bb0e977760de756971f7,65d6bf287e0756d9bca0652c,0.0547,0.0548,0,154,154,120,1,fivesix,,,,,,,,,,,,,,,,,,,,,,,,,,,,,,,,,,,,,,,,,,,,,,,,,,,,,,,,,,,,,,,,,,,,,,,,,,,,,,,,,,,,,,,,,,,,,,,,,,,,,,,,,,,,,,,,,,,,,,,,,,,,,,,,,,,,,,,,,
,,613a541cf948d295c1df8752,2024-02-21_21h28.32.971,kallum_motion_pilot,2023.2.2,Win32,39.84063745,613a541cf948d295c1df8752,65d6bb0e977760de756971f7,65d6bf287e0756d9bca0652c,0.0549,0.0549,0,155,155,149,1,seveneight,,,,,,,,,,,,,,,,,,,,,,,,,,,,,,,,,,,,,,,,,,,,,,,,,,,,,,,,,,,,,,,,,,,,,,,,,,,,,,,,,,,,,,,,,,,,,,,,,,,,,,,,,,,,,,,,,,,,,,,,,,,,,,,,,,,,,,,,,
,,613a541cf948d295c1df8752,2024-02-21_21h28.32.971,kallum_motion_pilot,2023.2.2,Win32,39.84063745,613a541cf948d295c1df8752,65d6bb0e977760de756971f7,65d6bf287e0756d9bca0652c,0.0551,0.0551,0,156,156,113,1,fiveseven,,,,,,,,,,,,,,,,,,,,,,,,,,,,,,,,,,,,,,,,,,,,,,,,,,,,,,,,,,,,,,,,,,,,,,,,,,,,,,,,,,,,,,,,,,,,,,,,,,,,,,,,,,,,,,,,,,,,,,,,,,,,,,,,,,,,,,,,,
,,613a541cf948d295c1df8752,2024-02-21_21h28.32.971,kallum_motion_pilot,2023.2.2,Win32,39.84063745,613a541cf948d295c1df8752,65d6bb0e977760de756971f7,65d6bf287e0756d9bca0652c,0.0552,0.0553,0,157,157,1,1,onethree,,,,,,,,,,,,,,,,,,,,,,,,,,,,,,,,,,,,,,,,,,,,,,,,,,,,,,,,,,,,,,,,,,,,,,,,,,,,,,,,,,,,,,,,,,,,,,,,,,,,,,,,,,,,,,,,,,,,,,,,,,,,,,,,,,,,,,,,,
,,613a541cf948d295c1df8752,2024-02-21_21h28.32.971,kallum_motion_pilot,2023.2.2,Win32,39.84063745,613a541cf948d295c1df8752,65d6bb0e977760de756971f7,65d6bf287e0756d9bca0652c,0.0553,0.0554,0,158,158,161,1,fiveseven,,,,,,,,,,,,,,,,,,,,,,,,,,,,,,,,,,,,,,,,,,,,,,,,,,,,,,,,,,,,,,,,,,,,,,,,,,,,,,,,,,,,,,,,,,,,,,,,,,,,,,,,,,,,,,,,,,,,,,,,,,,,,,,,,,,,,,,,,
,,613a541cf948d295c1df8752,2024-02-21_21h28.32.971,kallum_motion_pilot,2023.2.2,Win32,39.84063745,613a541cf948d295c1df8752,65d6bb0e977760de756971f7,65d6bf287e0756d9bca0652c,0.0555,0.0557,0,159,159,156,1,sevenfive,,,,,,,,,,,,,,,,,,,,,,,,,,,,,,,,,,,,,,,,,,,,,,,,,,,,,,,,,,,,,,,,,,,,,,,,,,,,,,,,,,,,,,,,,,,,,,,,,,,,,,,,,,,,,,,,,,,,,,,,,,,,,,,,,,,,,,,,,
,,613a541cf948d295c1df8752,2024-02-21_21h28.32.971,kallum_motion_pilot,2023.2.2,Win32,39.84063745,613a541cf948d295c1df8752,65d6bb0e977760de756971f7,65d6bf287e0756d9bca0652c,0.0558,0.0558,0,160,160,136,1,fivesix,,,,,,,,,,,,,,,,,,,,,,,,,,,,,,,,,,,,,,,,,,,,,,,,,,,,,,,,,,,,,,,,,,,,,,,,,,,,,,,,,,,,,,,,,,,,,,,,,,,,,,,,,,,,,,,,,,,,,,,,,,,,,,,,,,,,,,,,,
,,613a541cf948d295c1df8752,2024-02-21_21h28.32.971,kallum_motion_pilot,2023.2.2,Win32,39.84063745,613a541cf948d295c1df8752,65d6bb0e977760de756971f7,65d6bf287e0756d9bca0652c,0.0559,0.056,0,161,161,87,1,eightseven,,,,,,,,,,,,,,,,,,,,,,,,,,,,,,,,,,,,,,,,,,,,,,,,,,,,,,,,,,,,,,,,,,,,,,,,,,,,,,,,,,,,,,,,,,,,,,,,,,,,,,,,,,,,,,,,,,,,,,,,,,,,,,,,,,,,,,,,,
,,613a541cf948d295c1df8752,2024-02-21_21h28.32.971,kallum_motion_pilot,2023.2.2,Win32,39.84063745,613a541cf948d295c1df8752,65d6bb0e977760de756971f7,65d6bf287e0756d9bca0652c,0.0561,0.0562,1,0,162,56,1,onetwo,,,,,,,,,,,,,,,,,,,,,,,,,,,,,,,,,,,,,,,,,,,,,,,,,,,,,,,,,,,,,,,,,,,,,,,,,,,,,,,,,,,,,,,,,,,,,,,,,,,,,,,,,,,,,,,,,,,,,,,,,,,,,,,,,,,,,,,,,
,,613a541cf948d295c1df8752,2024-02-21_21h28.32.971,kallum_motion_pilot,2023.2.2,Win32,39.84063745,613a541cf948d295c1df8752,65d6bb0e977760de756971f7,65d6bf287e0756d9bca0652c,0.0563,0.0564,1,1,163,79,1,eightseven,,,,,,,,,,,,,,,,,,,,,,,,,,,,,,,,,,,,,,,,,,,,,,,,,,,,,,,,,,,,,,,,,,,,,,,,,,,,,,,,,,,,,,,,,,,,,,,,,,,,,,,,,,,,,,,,,,,,,,,,,,,,,,,,,,,,,,,,,
,,613a541cf948d295c1df8752,2024-02-21_21h28.32.971,kallum_motion_pilot,2023.2.2,Win32,39.84063745,613a541cf948d295c1df8752,65d6bb0e977760de756971f7,65d6bf287e0756d9bca0652c,0.0565,0.0566,1,2,164,27,1,twofour,,,,,,,,,,,,,,,,,,,,,,,,,,,,,,,,,,,,,,,,,,,,,,,,,,,,,,,,,,,,,,,,,,,,,,,,,,,,,,,,,,,,,,,,,,,,,,,,,,,,,,,,,,,,,,,,,,,,,,,,,,,,,,,,,,,,,,,,,
,,613a541cf948d295c1df8752,2024-02-21_21h28.32.971,kallum_motion_pilot,2023.2.2,Win32,39.84063745,613a541cf948d295c1df8752,65d6bb0e977760de756971f7,65d6bf287e0756d9bca0652c,0.0567,0.0567,1,3,165,16,1,onetwo,,,,,,,,,,,,,,,,,,,,,,,,,,,,,,,,,,,,,,,,,,,,,,,,,,,,,,,,,,,,,,,,,,,,,,,,,,,,,,,,,,,,,,,,,,,,,,,,,,,,,,,,,,,,,,,,,,,,,,,,,,,,,,,,,,,,,,,,,
,,613a541cf948d295c1df8752,2024-02-21_21h28.32.971,kallum_motion_pilot,2023.2.2,Win32,39.84063745,613a541cf948d295c1df8752,65d6bb0e977760de756971f7,65d6bf287e0756d9bca0652c,0.0569,0.057,1,4,166,124,1,sevenfive,,,,,,,,,,,,,,,,,,,,,,,,,,,,,,,,,,,,,,,,,,,,,,,,,,,,,,,,,,,,,,,,,,,,,,,,,,,,,,,,,,,,,,,,,,,,,,,,,,,,,,,,,,,,,,,,,,,,,,,,,,,,,,,,,,,,,,,,,
,,613a541cf948d295c1df8752,2024-02-21_21h28.32.971,kallum_motion_pilot,2023.2.2,Win32,39.84063745,613a541cf948d295c1df8752,65d6bb0e977760de756971f7,65d6bf287e0756d9bca0652c,0.057,0.0571,1,5,167,46,1,fourtwo,,,,,,,,,,,,,,,,,,,,,,,,,,,,,,,,,,,,,,,,,,,,,,,,,,,,,,,,,,,,,,,,,,,,,,,,,,,,,,,,,,,,,,,,,,,,,,,,,,,,,,,,,,,,,,,,,,,,,,,,,,,,,,,,,,,,,,,,,
,,613a541cf948d295c1df8752,2024-02-21_21h28.32.971,kallum_motion_pilot,2023.2.2,Win32,39.84063745,613a541cf948d295c1df8752,65d6bb0e977760de756971f7,65d6bf287e0756d9bca0652c,0.0572,0.0574,1,6,168,68,1,threeone,,,,,,,,,,,,,,,,,,,,,,,,,,,,,,,,,,,,,,,,,,,,,,,,,,,,,,,,,,,,,,,,,,,,,,,,,,,,,,,,,,,,,,,,,,,,,,,,,,,,,,,,,,,,,,,,,,,,,,,,,,,,,,,,,,,,,,,,,
,,613a541cf948d295c1df8752,2024-02-21_21h28.32.971,kallum_motion_pilot,2023.2.2,Win32,39.84063745,613a541cf948d295c1df8752,65d6bb0e977760de756971f7,65d6bf287e0756d9bca0652c,0.0574,0.0575,1,7,169,34,1,twoone,,,,,,,,,,,,,,,,,,,,,,,,,,,,,,,,,,,,,,,,,,,,,,,,,,,,,,,,,,,,,,,,,,,,,,,,,,,,,,,,,,,,,,,,,,,,,,,,,,,,,,,,,,,,,,,,,,,,,,,,,,,,,,,,,,,,,,,,,
,,613a541cf948d295c1df8752,2024-02-21_21h28.32.971,kallum_motion_pilot,2023.2.2,Win32,39.84063745,613a541cf948d295c1df8752,65d6bb0e977760de756971f7,65d6bf287e0756d9bca0652c,0.0577,0.0577,1,8,170,58,1,twoone,,,,,,,,,,,,,,,,,,,,,,,,,,,,,,,,,,,,,,,,,,,,,,,,,,,,,,,,,,,,,,,,,,,,,,,,,,,,,,,,,,,,,,,,,,,,,,,,,,,,,,,,,,,,,,,,,,,,,,,,,,,,,,,,,,,,,,,,,
,,613a541cf948d295c1df8752,2024-02-21_21h28.32.971,kallum_motion_pilot,2023.2.2,Win32,39.84063745,613a541cf948d295c1df8752,65d6bb0e977760de756971f7,65d6bf287e0756d9bca0652c,0.0578,0.0579,1,9,171,83,1,sixeight,,,,,,,,,,,,,,,,,,,,,,,,,,,,,,,,,,,,,,,,,,,,,,,,,,,,,,,,,,,,,,,,,,,,,,,,,,,,,,,,,,,,,,,,,,,,,,,,,,,,,,,,,,,,,,,,,,,,,,,,,,,,,,,,,,,,,,,,,
,,613a541cf948d295c1df8752,2024-02-21_21h28.32.971,kallum_motion_pilot,2023.2.2,Win32,39.84063745,613a541cf948d295c1df8752,65d6bb0e977760de756971f7,65d6bf287e0756d9bca0652c,0.058,0.0581,1,10,172,84,1,sevenfive,,,,,,,,,,,,,,,,,,,,,,,,,,,,,,,,,,,,,,,,,,,,,,,,,,,,,,,,,,,,,,,,,,,,,,,,,,,,,,,,,,,,,,,,,,,,,,,,,,,,,,,,,,,,,,,,,,,,,,,,,,,,,,,,,,,,,,,,,
,,613a541cf948d295c1df8752,2024-02-21_21h28.32.971,kallum_motion_pilot,2023.2.2,Win32,39.84063745,613a541cf948d295c1df8752,65d6bb0e977760de756971f7,65d6bf287e0756d9bca0652c,0.0583,0.0583,1,11,173,107,1,sixeight,,,,,,,,,,,,,,,,,,,,,,,,,,,,,,,,,,,,,,,,,,,,,,,,,,,,,,,,,,,,,,,,,,,,,,,,,,,,,,,,,,,,,,,,,,,,,,,,,,,,,,,,,,,,,,,,,,,,,,,,,,,,,,,,,,,,,,,,,
,,613a541cf948d295c1df8752,2024-02-21_21h28.32.971,kallum_motion_pilot,2023.2.2,Win32,39.84063745,613a541cf948d295c1df8752,65d6bb0e977760de756971f7,65d6bf287e0756d9bca0652c,0.0584,0.0585,1,12,174,67,1,twofour,,,,,,,,,,,,,,,,,,,,,,,,,,,,,,,,,,,,,,,,,,,,,,,,,,,,,,,,,,,,,,,,,,,,,,,,,,,,,,,,,,,,,,,,,,,,,,,,,,,,,,,,,,,,,,,,,,,,,,,,,,,,,,,,,,,,,,,,,
,,613a541cf948d295c1df8752,2024-02-21_21h28.32.971,kallum_motion_pilot,2023.2.2,Win32,39.84063745,613a541cf948d295c1df8752,65d6bb0e977760de756971f7,65d6bf287e0756d9bca0652c,0.0593,0.0593,1,13,175,7,1,fourthree,,,,,,,,,,,,,,,,,,,,,,,,,,,,,,,,,,,,,,,,,,,,,,,,,,,,,,,,,,,,,,,,,,,,,,,,,,,,,,,,,,,,,,,,,,,,,,,,,,,,,,,,,,,,,,,,,,,,,,,,,,,,,,,,,,,,,,,,,
,,613a541cf948d295c1df8752,2024-02-21_21h28.32.971,kallum_motion_pilot,2023.2.2,Win32,39.84063745,613a541cf948d295c1df8752,65d6bb0e977760de756971f7,65d6bf287e0756d9bca0652c,0.0595,0.0595,1,14,176,21,1,threefour,,,,,,,,,,,,,,,,,,,,,,,,,,,,,,,,,,,,,,,,,,,,,,,,,,,,,,,,,,,,,,,,,,,,,,,,,,,,,,,,,,,,,,,,,,,,,,,,,,,,,,,,,,,,,,,,,,,,,,,,,,,,,,,,,,,,,,,,,
,,613a541cf948d295c1df8752,2024-02-21_21h28.32.971,kallum_motion_pilot,2023.2.2,Win32,39.84063745,613a541cf948d295c1df8752,65d6bb0e977760de756971f7,65d6bf287e0756d9bca0652c,0.0596,0.0597,1,15,177,97,1,fiveseven,,,,,,,,,,,,,,,,,,,,,,,,,,,,,,,,,,,,,,,,,,,,,,,,,,,,,,,,,,,,,,,,,,,,,,,,,,,,,,,,,,,,,,,,,,,,,,,,,,,,,,,,,,,,,,,,,,,,,,,,,,,,,,,,,,,,,,,,,
,,613a541cf948d295c1df8752,2024-02-21_21h28.32.971,kallum_motion_pilot,2023.2.2,Win32,39.84063745,613a541cf948d295c1df8752,65d6bb0e977760de756971f7,65d6bf287e0756d9bca0652c,0.0598,0.0599,1,16,178,4,1,threeone,,,,,,,,,,,,,,,,,,,,,,,,,,,,,,,,,,,,,,,,,,,,,,,,,,,,,,,,,,,,,,,,,,,,,,,,,,,,,,,,,,,,,,,,,,,,,,,,,,,,,,,,,,,,,,,,,,,,,,,,,,,,,,,,,,,,,,,,,
,,613a541cf948d295c1df8752,2024-02-21_21h28.32.971,kallum_motion_pilot,2023.2.2,Win32,39.84063745,613a541cf948d295c1df8752,65d6bb0e977760de756971f7,65d6bf287e0756d9bca0652c,0.0601,0.0603,1,17,179,103,1,eightseven,,,,,,,,,,,,,,,,,,,,,,,,,,,,,,,,,,,,,,,,,,,,,,,,,,,,,,,,,,,,,,,,,,,,,,,,,,,,,,,,,,,,,,,,,,,,,,,,,,,,,,,,,,,,,,,,,,,,,,,,,,,,,,,,,,,,,,,,,
,,613a541cf948d295c1df8752,2024-02-21_21h28.32.971,kallum_motion_pilot,2023.2.2,Win32,39.84063745,613a541cf948d295c1df8752,65d6bb0e977760de756971f7,65d6bf287e0756d9bca0652c,0.0604,0.0604,1,18,180,137,1,fiveseven,,,,,,,,,,,,,,,,,,,,,,,,,,,,,,,,,,,,,,,,,,,,,,,,,,,,,,,,,,,,,,,,,,,,,,,,,,,,,,,,,,,,,,,,,,,,,,,,,,,,,,,,,,,,,,,,,,,,,,,,,,,,,,,,,,,,,,,,,
,,613a541cf948d295c1df8752,2024-02-21_21h28.32.971,kallum_motion_pilot,2023.2.2,Win32,39.84063745,613a541cf948d295c1df8752,65d6bb0e977760de756971f7,65d6bf287e0756d9bca0652c,0.0605,0.0606,1,19,181,94,1,eightsix,,,,,,,,,,,,,,,,,,,,,,,,,,,,,,,,,,,,,,,,,,,,,,,,,,,,,,,,,,,,,,,,,,,,,,,,,,,,,,,,,,,,,,,,,,,,,,,,,,,,,,,,,,,,,,,,,,,,,,,,,,,,,,,,,,,,,,,,,
,,613a541cf948d295c1df8752,2024-02-21_21h28.32.971,kallum_motion_pilot,2023.2.2,Win32,39.84063745,613a541cf948d295c1df8752,65d6bb0e977760de756971f7,65d6bf287e0756d9bca0652c,0.0607,0.0609,1,20,182,5,1,threefour,,,,,,,,,,,,,,,,,,,,,,,,,,,,,,,,,,,,,,,,,,,,,,,,,,,,,,,,,,,,,,,,,,,,,,,,,,,,,,,,,,,,,,,,,,,,,,,,,,,,,,,,,,,,,,,,,,,,,,,,,,,,,,,,,,,,,,,,,
,,613a541cf948d295c1df8752,2024-02-21_21h28.32.971,kallum_motion_pilot,2023.2.2,Win32,39.84063745,613a541cf948d295c1df8752,65d6bb0e977760de756971f7,65d6bf287e0756d9bca0652c,0.0609,0.0611,1,21,183,149,1,seveneight,,,,,,,,,,,,,,,,,,,,,,,,,,,,,,,,,,,,,,,,,,,,,,,,,,,,,,,,,,,,,,,,,,,,,,,,,,,,,,,,,,,,,,,,,,,,,,,,,,,,,,,,,,,,,,,,,,,,,,,,,,,,,,,,,,,,,,,,,
,,613a541cf948d295c1df8752,2024-02-21_21h28.32.971,kallum_motion_pilot,2023.2.2,Win32,39.84063745,613a541cf948d295c1df8752,65d6bb0e977760de756971f7,65d6bf287e0756d9bca0652c,0.0611,0.0612,1,22,184,139,1,sixeight,,,,,,,,,,,,,,,,,,,,,,,,,,,,,,,,,,,,,,,,,,,,,,,,,,,,,,,,,,,,,,,,,,,,,,,,,,,,,,,,,,,,,,,,,,,,,,,,,,,,,,,,,,,,,,,,,,,,,,,,,,,,,,,,,,,,,,,,,
,,613a541cf948d295c1df8752,2024-02-21_21h28.32.971,kallum_motion_pilot,2023.2.2,Win32,39.84063745,613a541cf948d295c1df8752,65d6bb0e977760de756971f7,65d6bf287e0756d9bca0652c,0.0614,0.0614,1,23,185,80,1,fivesix,,,,,,,,,,,,,,,,,,,,,,,,,,,,,,,,,,,,,,,,,,,,,,,,,,,,,,,,,,,,,,,,,,,,,,,,,,,,,,,,,,,,,,,,,,,,,,,,,,,,,,,,,,,,,,,,,,,,,,,,,,,,,,,,,,,,,,,,,
,,613a541cf948d295c1df8752,2024-02-21_21h28.32.971,kallum_motion_pilot,2023.2.2,Win32,39.84063745,613a541cf948d295c1df8752,65d6bb0e977760de756971f7,65d6bf287e0756d9bca0652c,0.0615,0.0616,1,24,186,98,1,sixfive,,,,,,,,,,,,,,,,,,,,,,,,,,,,,,,,,,,,,,,,,,,,,,,,,,,,,,,,,,,,,,,,,,,,,,,,,,,,,,,,,,,,,,,,,,,,,,,,,,,,,,,,,,,,,,,,,,,,,,,,,,,,,,,,,,,,,,,,,
,,613a541cf948d295c1df8752,2024-02-21_21h28.32.971,kallum_motion_pilot,2023.2.2,Win32,39.84063745,613a541cf948d295c1df8752,65d6bb0e977760de756971f7,65d6bf287e0756d9bca0652c,0.0618,0.0618,1,25,187,130,1,sixfive,,,,,,,,,,,,,,,,,,,,,,,,,,,,,,,,,,,,,,,,,,,,,,,,,,,,,,,,,,,,,,,,,,,,,,,,,,,,,,,,,,,,,,,,,,,,,,,,,,,,,,,,,,,,,,,,,,,,,,,,,,,,,,,,,,,,,,,,,
,,613a541cf948d295c1df8752,2024-02-21_21h28.32.971,kallum_motion_pilot,2023.2.2,Win32,39.84063745,613a541cf948d295c1df8752,65d6bb0e977760de756971f7,65d6bf287e0756d9bca0652c,0.0619,0.062,1,26,188,86,1,eightsix,,,,,,,,,,,,,,,,,,,,,,,,,,,,,,,,,,,,,,,,,,,,,,,,,,,,,,,,,,,,,,,,,,,,,,,,,,,,,,,,,,,,,,,,,,,,,,,,,,,,,,,,,,,,,,,,,,,,,,,,,,,,,,,,,,,,,,,,,
,,613a541cf948d295c1df8752,2024-02-21_21h28.32.971,kallum_motion_pilot,2023.2.2,Win32,39.84063745,613a541cf948d295c1df8752,65d6bb0e977760de756971f7,65d6bf287e0756d9bca0652c,0.0621,0.0622,1,27,189,85,1,seveneight,,,,,,,,,,,,,,,,,,,,,,,,,,,,,,,,,,,,,,,,,,,,,,,,,,,,,,,,,,,,,,,,,,,,,,,,,,,,,,,,,,,,,,,,,,,,,,,,,,,,,,,,,,,,,,,,,,,,,,,,,,,,,,,,,,,,,,,,,
,,613a541cf948d295c1df8752,2024-02-21_21h28.32.971,kallum_motion_pilot,2023.2.2,Win32,39.84063745,613a541cf948d295c1df8752,65d6bb0e977760de756971f7,65d6bf287e0756d9bca0652c,0.0623,0.0624,1,28,190,140,1,sevenfive,,,,,,,,,,,,,,,,,,,,,,,,,,,,,,,,,,,,,,,,,,,,,,,,,,,,,,,,,,,,,,,,,,,,,,,,,,,,,,,,,,,,,,,,,,,,,,,,,,,,,,,,,,,,,,,,,,,,,,,,,,,,,,,,,,,,,,,,,
,,613a541cf948d295c1df8752,2024-02-21_21h28.32.971,kallum_motion_pilot,2023.2.2,Win32,39.84063745,613a541cf948d295c1df8752,65d6bb0e977760de756971f7,65d6bf287e0756d9bca0652c,0.0625,0.0626,1,29,191,153,1,fiveseven,,,,,,,,,,,,,,,,,,,,,,,,,,,,,,,,,,,,,,,,,,,,,,,,,,,,,,,,,,,,,,,,,,,,,,,,,,,,,,,,,,,,,,,,,,,,,,,,,,,,,,,,,,,,,,,,,,,,,,,,,,,,,,,,,,,,,,,,,
,,613a541cf948d295c1df8752,2024-02-21_21h28.32.971,kallum_motion_pilot,2023.2.2,Win32,39.84063745,613a541cf948d295c1df8752,65d6bb0e977760de756971f7,65d6bf287e0756d9bca0652c,0.0626,0.0627,1,30,192,42,1,twoone,,,,,,,,,,,,,,,,,,,,,,,,,,,,,,,,,,,,,,,,,,,,,,,,,,,,,,,,,,,,,,,,,,,,,,,,,,,,,,,,,,,,,,,,,,,,,,,,,,,,,,,,,,,,,,,,,,,,,,,,,,,,,,,,,,,,,,,,,
,,613a541cf948d295c1df8752,2024-02-21_21h28.32.971,kallum_motion_pilot,2023.2.2,Win32,39.84063745,613a541cf948d295c1df8752,65d6bb0e977760de756971f7,65d6bf287e0756d9bca0652c,0.0628,0.0629,1,31,193,119,1,eightseven,,,,,,,,,,,,,,,,,,,,,,,,,,,,,,,,,,,,,,,,,,,,,,,,,,,,,,,,,,,,,,,,,,,,,,,,,,,,,,,,,,,,,,,,,,,,,,,,,,,,,,,,,,,,,,,,,,,,,,,,,,,,,,,,,,,,,,,,,
,,613a541cf948d295c1df8752,2024-02-21_21h28.32.971,kallum_motion_pilot,2023.2.2,Win32,39.84063745,613a541cf948d295c1df8752,65d6bb0e977760de756971f7,65d6bf287e0756d9bca0652c,0.0631,0.0631,1,32,194,62,1,fourtwo,,,,,,,,,,,,,,,,,,,,,,,,,,,,,,,,,,,,,,,,,,,,,,,,,,,,,,,,,,,,,,,,,,,,,,,,,,,,,,,,,,,,,,,,,,,,,,,,,,,,,,,,,,,,,,,,,,,,,,,,,,,,,,,,,,,,,,,,,
,,613a541cf948d295c1df8752,2024-02-21_21h28.32.971,kallum_motion_pilot,2023.2.2,Win32,39.84063745,613a541cf948d295c1df8752,65d6bb0e977760de756971f7,65d6bf287e0756d9bca0652c,0.0632,0.0633,1,33,195,133,1,seveneight,,,,,,,,,,,,,,,,,,,,,,,,,,,,,,,,,,,,,,,,,,,,,,,,,,,,,,,,,,,,,,,,,,,,,,,,,,,,,,,,,,,,,,,,,,,,,,,,,,,,,,,,,,,,,,,,,,,,,,,,,,,,,,,,,,,,,,,,,
,,613a541cf948d295c1df8752,2024-02-21_21h28.32.971,kallum_motion_pilot,2023.2.2,Win32,39.84063745,613a541cf948d295c1df8752,65d6bb0e977760de756971f7,65d6bf287e0756d9bca0652c,0.0634,0.0635,1,34,196,3,1,twofour,,,,,,,,,,,,,,,,,,,,,,,,,,,,,,,,,,,,,,,,,,,,,,,,,,,,,,,,,,,,,,,,,,,,,,,,,,,,,,,,,,,,,,,,,,,,,,,,,,,,,,,,,,,,,,,,,,,,,,,,,,,,,,,,,,,,,,,,,
,,613a541cf948d295c1df8752,2024-02-21_21h28.32.971,kallum_motion_pilot,2023.2.2,Win32,39.84063745,613a541cf948d295c1df8752,65d6bb0e977760de756971f7,65d6bf287e0756d9bca0652c,0.0637,0.0637,1,35,197,106,1,sixfive,,,,,,,,,,,,,,,,,,,,,,,,,,,,,,,,,,,,,,,,,,,,,,,,,,,,,,,,,,,,,,,,,,,,,,,,,,,,,,,,,,,,,,,,,,,,,,,,,,,,,,,,,,,,,,,,,,,,,,,,,,,,,,,,,,,,,,,,,
,,613a541cf948d295c1df8752,2024-02-21_21h28.32.971,kallum_motion_pilot,2023.2.2,Win32,39.84063745,613a541cf948d295c1df8752,65d6bb0e977760de756971f7,65d6bf287e0756d9bca0652c,0.0639,0.0639,1,36,198,29,1,threefour,,,,,,,,,,,,,,,,,,,,,,,,,,,,,,,,,,,,,,,,,,,,,,,,,,,,,,,,,,,,,,,,,,,,,,,,,,,,,,,,,,,,,,,,,,,,,,,,,,,,,,,,,,,,,,,,,,,,,,,,,,,,,,,,,,,,,,,,,
,,613a541cf948d295c1df8752,2024-02-21_21h28.32.971,kallum_motion_pilot,2023.2.2,Win32,39.84063745,613a541cf948d295c1df8752,65d6bb0e977760de756971f7,65d6bf287e0756d9bca0652c,0.064,0.0642,1,37,199,64,1,onetwo,,,,,,,,,,,,,,,,,,,,,,,,,,,,,,,,,,,,,,,,,,,,,,,,,,,,,,,,,,,,,,,,,,,,,,,,,,,,,,,,,,,,,,,,,,,,,,,,,,,,,,,,,,,,,,,,,,,,,,,,,,,,,,,,,,,,,,,,,
,,613a541cf948d295c1df8752,2024-02-21_21h28.32.971,kallum_motion_pilot,2023.2.2,Win32,39.84063745,613a541cf948d295c1df8752,65d6bb0e977760de756971f7,65d6bf287e0756d9bca0652c,0.0643,0.0644,1,38,200,112,1,fivesix,,,,,,,,,,,,,,,,,,,,,,,,,,,,,,,,,,,,,,,,,,,,,,,,,,,,,,,,,,,,,,,,,,,,,,,,,,,,,,,,,,,,,,,,,,,,,,,,,,,,,,,,,,,,,,,,,,,,,,,,,,,,,,,,,,,,,,,,,
,,613a541cf948d295c1df8752,2024-02-21_21h28.32.971,kallum_motion_pilot,2023.2.2,Win32,39.84063745,613a541cf948d295c1df8752,65d6bb0e977760de756971f7,65d6bf287e0756d9bca0652c,0.0645,0.0645,1,39,201,121,1,fiveseven,,,,,,,,,,,,,,,,,,,,,,,,,,,,,,,,,,,,,,,,,,,,,,,,,,,,,,,,,,,,,,,,,,,,,,,,,,,,,,,,,,,,,,,,,,,,,,,,,,,,,,,,,,,,,,,,,,,,,,,,,,,,,,,,,,,,,,,,,
,,613a541cf948d295c1df8752,2024-02-21_21h28.32.971,kallum_motion_pilot,2023.2.2,Win32,39.84063745,613a541cf948d295c1df8752,65d6bb0e977760de756971f7,65d6bf287e0756d9bca0652c,0.0647,0.0648,1,40,202,44,1,threeone,,,,,,,,,,,,,,,,,,,,,,,,,,,,,,,,,,,,,,,,,,,,,,,,,,,,,,,,,,,,,,,,,,,,,,,,,,,,,,,,,,,,,,,,,,,,,,,,,,,,,,,,,,,,,,,,,,,,,,,,,,,,,,,,,,,,,,,,,
,,613a541cf948d295c1df8752,2024-02-21_21h28.32.971,kallum_motion_pilot,2023.2.2,Win32,39.84063745,613a541cf948d295c1df8752,65d6bb0e977760de756971f7,65d6bf287e0756d9bca0652c,0.0648,0.065,1,41,203,66,1,twoone,,,,,,,,,,,,,,,,,,,,,,,,,,,,,,,,,,,,,,,,,,,,,,,,,,,,,,,,,,,,,,,,,,,,,,,,,,,,,,,,,,,,,,,,,,,,,,,,,,,,,,,,,,,,,,,,,,,,,,,,,,,,,,,,,,,,,,,,,
,,613a541cf948d295c1df8752,2024-02-21_21h28.32.971,kallum_motion_pilot,2023.2.2,Win32,39.84063745,613a541cf948d295c1df8752,65d6bb0e977760de756971f7,65d6bf287e0756d9bca0652c,0.0651,0.0651,1,42,204,88,1,fivesix,,,,,,,,,,,,,,,,,,,,,,,,,,,,,,,,,,,,,,,,,,,,,,,,,,,,,,,,,,,,,,,,,,,,,,,,,,,,,,,,,,,,,,,,,,,,,,,,,,,,,,,,,,,,,,,,,,,,,,,,,,,,,,,,,,,,,,,,,
,,613a541cf948d295c1df8752,2024-02-21_21h28.32.971,kallum_motion_pilot,2023.2.2,Win32,39.84063745,613a541cf948d295c1df8752,65d6bb0e977760de756971f7,65d6bf287e0756d9bca0652c,0.0653,0.0653,1,43,205,14,1,fourtwo,,,,,,,,,,,,,,,,,,,,,,,,,,,,,,,,,,,,,,,,,,,,,,,,,,,,,,,,,,,,,,,,,,,,,,,,,,,,,,,,,,,,,,,,,,,,,,,,,,,,,,,,,,,,,,,,,,,,,,,,,,,,,,,,,,,,,,,,,
,,613a541cf948d295c1df8752,2024-02-21_21h28.32.971,kallum_motion_pilot,2023.2.2,Win32,39.84063745,613a541cf948d295c1df8752,65d6bb0e977760de756971f7,65d6bf287e0756d9bca0652c,0.0655,0.0655,1,44,206,20,1,threeone,,,,,,,,,,,,,,,,,,,,,,,,,,,,,,,,,,,,,,,,,,,,,,,,,,,,,,,,,,,,,,,,,,,,,,,,,,,,,,,,,,,,,,,,,,,,,,,,,,,,,,,,,,,,,,,,,,,,,,,,,,,,,,,,,,,,,,,,,
,,613a541cf948d295c1df8752,2024-02-21_21h28.32.971,kallum_motion_pilot,2023.2.2,Win32,39.84063745,613a541cf948d295c1df8752,65d6bb0e977760de756971f7,65d6bf287e0756d9bca0652c,0.0656,0.0657,1,45,207,91,1,sixeight,,,,,,,,,,,,,,,,,,,,,,,,,,,,,,,,,,,,,,,,,,,,,,,,,,,,,,,,,,,,,,,,,,,,,,,,,,,,,,,,,,,,,,,,,,,,,,,,,,,,,,,,,,,,,,,,,,,,,,,,,,,,,,,,,,,,,,,,,
,,613a541cf948d295c1df8752,2024-02-21_21h28.32.971,kallum_motion_pilot,2023.2.2,Win32,39.84063745,613a541cf948d295c1df8752,65d6bb0e977760de756971f7,65d6bf287e0756d9bca0652c,0.0658,0.0659,1,46,208,104,1,fivesix,,,,,,,,,,,,,,,,,,,,,,,,,,,,,,,,,,,,,,,,,,,,,,,,,,,,,,,,,,,,,,,,,,,,,,,,,,,,,,,,,,,,,,,,,,,,,,,,,,,,,,,,,,,,,,,,,,,,,,,,,,,,,,,,,,,,,,,,,
,,613a541cf948d295c1df8752,2024-02-21_21h28.32.971,kallum_motion_pilot,2023.2.2,Win32,39.84063745,613a541cf948d295c1df8752,65d6bb0e977760de756971f7,65d6bf287e0756d9bca0652c,0.066,0.0661,1,47,209,73,1,onethree,,,,,,,,,,,,,,,,,,,,,,,,,,,,,,,,,,,,,,,,,,,,,,,,,,,,,,,,,,,,,,,,,,,,,,,,,,,,,,,,,,,,,,,,,,,,,,,,,,,,,,,,,,,,,,,,,,,,,,,,,,,,,,,,,,,,,,,,,
,,613a541cf948d295c1df8752,2024-02-21_21h28.32.971,kallum_motion_pilot,2023.2.2,Win32,39.84063745,613a541cf948d295c1df8752,65d6bb0e977760de756971f7,65d6bf287e0756d9bca0652c,0.0662,0.0663,1,48,210,77,1,threefour,,,,,,,,,,,,,,,,,,,,,,,,,,,,,,,,,,,,,,,,,,,,,,,,,,,,,,,,,,,,,,,,,,,,,,,,,,,,,,,,,,,,,,,,,,,,,,,,,,,,,,,,,,,,,,,,,,,,,,,,,,,,,,,,,,,,,,,,,
,,613a541cf948d295c1df8752,2024-02-21_21h28.32.971,kallum_motion_pilot,2023.2.2,Win32,39.84063745,613a541cf948d295c1df8752,65d6bb0e977760de756971f7,65d6bf287e0756d9bca0652c,0.0664,0.0665,1,49,211,99,1,sixeight,,,,,,,,,,,,,,,,,,,,,,,,,,,,,,,,,,,,,,,,,,,,,,,,,,,,,,,,,,,,,,,,,,,,,,,,,,,,,,,,,,,,,,,,,,,,,,,,,,,,,,,,,,,,,,,,,,,,,,,,,,,,,,,,,,,,,,,,,
,,613a541cf948d295c1df8752,2024-02-21_21h28.32.971,kallum_motion_pilot,2023.2.2,Win32,39.84063745,613a541cf948d295c1df8752,65d6bb0e977760de756971f7,65d6bf287e0756d9bca0652c,0.0666,0.0667,1,50,212,0,1,onetwo,,,,,,,,,,,,,,,,,,,,,,,,,,,,,,,,,,,,,,,,,,,,,,,,,,,,,,,,,,,,,,,,,,,,,,,,,,,,,,,,,,,,,,,,,,,,,,,,,,,,,,,,,,,,,,,,,,,,,,,,,,,,,,,,,,,,,,,,,
,,613a541cf948d295c1df8752,2024-02-21_21h28.32.971,kallum_motion_pilot,2023.2.2,Win32,39.84063745,613a541cf948d295c1df8752,65d6bb0e977760de756971f7,65d6bf287e0756d9bca0652c,0.0668,0.0669,1,51,213,147,1,sixeight,,,,,,,,,,,,,,,,,,,,,,,,,,,,,,,,,,,,,,,,,,,,,,,,,,,,,,,,,,,,,,,,,,,,,,,,,,,,,,,,,,,,,,,,,,,,,,,,,,,,,,,,,,,,,,,,,,,,,,,,,,,,,,,,,,,,,,,,,
,,613a541cf948d295c1df8752,2024-02-21_21h28.32.971,kallum_motion_pilot,2023.2.2,Win32,39.84063745,613a541cf948d295c1df8752,65d6bb0e977760de756971f7,65d6bf287e0756d9bca0652c,0.067,0.0671,1,52,214,8,1,onetwo,,,,,,,,,,,,,,,,,,,,,,,,,,,,,,,,,,,,,,,,,,,,,,,,,,,,,,,,,,,,,,,,,,,,,,,,,,,,,,,,,,,,,,,,,,,,,,,,,,,,,,,,,,,,,,,,,,,,,,,,,,,,,,,,,,,,,,,,,
,,613a541cf948d295c1df8752,2024-02-21_21h28.32.971,kallum_motion_pilot,2023.2.2,Win32,39.84063745,613a541cf948d295c1df8752,65d6bb0e977760de756971f7,65d6bf287e0756d9bca0652c,0.0672,0.0673,1,53,215,131,1,sixeight,,,,,,,,,,,,,,,,,,,,,,,,,,,,,,,,,,,,,,,,,,,,,,,,,,,,,,,,,,,,,,,,,,,,,,,,,,,,,,,,,,,,,,,,,,,,,,,,,,,,,,,,,,,,,,,,,,,,,,,,,,,,,,,,,,,,,,,,,
,,613a541cf948d295c1df8752,2024-02-21_21h28.32.971,kallum_motion_pilot,2023.2.2,Win32,39.84063745,613a541cf948d295c1df8752,65d6bb0e977760de756971f7,65d6bf287e0756d9bca0652c,0.0674,0.0675,1,54,216,157,1,seveneight,,,,,,,,,,,,,,,,,,,,,,,,,,,,,,,,,,,,,,,,,,,,,,,,,,,,,,,,,,,,,,,,,,,,,,,,,,,,,,,,,,,,,,,,,,,,,,,,,,,,,,,,,,,,,,,,,,,,,,,,,,,,,,,,,,,,,,,,,
,,613a541cf948d295c1df8752,2024-02-21_21h28.32.971,kallum_motion_pilot,2023.2.2,Win32,39.84063745,613a541cf948d295c1df8752,65d6bb0e977760de756971f7,65d6bf287e0756d9bca0652c,0.0675,0.0677,1,55,217,116,1,sevenfive,,,,,,,,,,,,,,,,,,,,,,,,,,,,,,,,,,,,,,,,,,,,,,,,,,,,,,,,,,,,,,,,,,,,,,,,,,,,,,,,,,,,,,,,,,,,,,,,,,,,,,,,,,,,,,,,,,,,,,,,,,,,,,,,,,,,,,,,,
,,613a541cf948d295c1df8752,2024-02-21_21h28.32.971,kallum_motion_pilot,2023.2.2,Win32,39.84063745,613a541cf948d295c1df8752,65d6bb0e977760de756971f7,65d6bf287e0756d9bca0652c,0.0677,0.0679,1,56,218,17,1,onethree,,,,,,,,,,,,,,,,,,,,,,,,,,,,,,,,,,,,,,,,,,,,,,,,,,,,,,,,,,,,,,,,,,,,,,,,,,,,,,,,,,,,,,,,,,,,,,,,,,,,,,,,,,,,,,,,,,,,,,,,,,,,,,,,,,,,,,,,,
,,613a541cf948d295c1df8752,2024-02-21_21h28.32.971,kallum_motion_pilot,2023.2.2,Win32,39.84063745,613a541cf948d295c1df8752,65d6bb0e977760de756971f7,65d6bf287e0756d9bca0652c,0.0679,0.0681,1,57,219,156,1,sevenfive,,,,,,,,,,,,,,,,,,,,,,,,,,,,,,,,,,,,,,,,,,,,,,,,,,,,,,,,,,,,,,,,,,,,,,,,,,,,,,,,,,,,,,,,,,,,,,,,,,,,,,,,,,,,,,,,,,,,,,,,,,,,,,,,,,,,,,,,,
,,613a541cf948d295c1df8752,2024-02-21_21h28.32.971,kallum_motion_pilot,2023.2.2,Win32,39.84063745,613a541cf948d295c1df8752,65d6bb0e977760de756971f7,65d6bf287e0756d9bca0652c,0.0682,0.0682,1,58,220,76,1,threeone,,,,,,,,,,,,,,,,,,,,,,,,,,,,,,,,,,,,,,,,,,,,,,,,,,,,,,,,,,,,,,,,,,,,,,,,,,,,,,,,,,,,,,,,,,,,,,,,,,,,,,,,,,,,,,,,,,,,,,,,,,,,,,,,,,,,,,,,,
,,613a541cf948d295c1df8752,2024-02-21_21h28.32.971,kallum_motion_pilot,2023.2.2,Win32,39.84063745,613a541cf948d295c1df8752,65d6bb0e977760de756971f7,65d6bf287e0756d9bca0652c,0.0683,0.0684,1,59,221,159,1,eightseven,,,,,,,,,,,,,,,,,,,,,,,,,,,,,,,,,,,,,,,,,,,,,,,,,,,,,,,,,,,,,,,,,,,,,,,,,,,,,,,,,,,,,,,,,,,,,,,,,,,,,,,,,,,,,,,,,,,,,,,,,,,,,,,,,,,,,,,,,
,,613a541cf948d295c1df8752,2024-02-21_21h28.32.971,kallum_motion_pilot,2023.2.2,Win32,39.84063745,613a541cf948d295c1df8752,65d6bb0e977760de756971f7,65d6bf287e0756d9bca0652c,0.0685,0.0687,1,60,222,32,1,onetwo,,,,,,,,,,,,,,,,,,,,,,,,,,,,,,,,,,,,,,,,,,,,,,,,,,,,,,,,,,,,,,,,,,,,,,,,,,,,,,,,,,,,,,,,,,,,,,,,,,,,,,,,,,,,,,,,,,,,,,,,,,,,,,,,,,,,,,,,,
,,613a541cf948d295c1df8752,2024-02-21_21h28.32.971,kallum_motion_pilot,2023.2.2,Win32,39.84063745,613a541cf948d295c1df8752,65d6bb0e977760de756971f7,65d6bf287e0756d9bca0652c,0.0688,0.0689,1,61,223,19,1,twofour,,,,,,,,,,,,,,,,,,,,,,,,,,,,,,,,,,,,,,,,,,,,,,,,,,,,,,,,,,,,,,,,,,,,,,,,,,,,,,,,,,,,,,,,,,,,,,,,,,,,,,,,,,,,,,,,,,,,,,,,,,,,,,,,,,,,,,,,,
,,613a541cf948d295c1df8752,2024-02-21_21h28.32.971,kallum_motion_pilot,2023.2.2,Win32,39.84063745,613a541cf948d295c1df8752,65d6bb0e977760de756971f7,65d6bf287e0756d9bca0652c,0.0689,0.069,1,62,224,118,1,eightsix,,,,,,,,,,,,,,,,,,,,,,,,,,,,,,,,,,,,,,,,,,,,,,,,,,,,,,,,,,,,,,,,,,,,,,,,,,,,,,,,,,,,,,,,,,,,,,,,,,,,,,,,,,,,,,,,,,,,,,,,,,,,,,,,,,,,,,,,,
,,613a541cf948d295c1df8752,2024-02-21_21h28.32.971,kallum_motion_pilot,2023.2.2,Win32,39.84063745,613a541cf948d295c1df8752,65d6bb0e977760de756971f7,65d6bf287e0756d9bca0652c,0.0691,0.0693,1,63,225,45,1,threefour,,,,,,,,,,,,,,,,,,,,,,,,,,,,,,,,,,,,,,,,,,,,,,,,,,,,,,,,,,,,,,,,,,,,,,,,,,,,,,,,,,,,,,,,,,,,,,,,,,,,,,,,,,,,,,,,,,,,,,,,,,,,,,,,,,,,,,,,,
,,613a541cf948d295c1df8752,2024-02-21_21h28.32.971,kallum_motion_pilot,2023.2.2,Win32,39.84063745,613a541cf948d295c1df8752,65d6bb0e977760de756971f7,65d6bf287e0756d9bca0652c,0.0694,0.0694,1,64,226,111,1,eightseven,,,,,,,,,,,,,,,,,,,,,,,,,,,,,,,,,,,,,,,,,,,,,,,,,,,,,,,,,,,,,,,,,,,,,,,,,,,,,,,,,,,,,,,,,,,,,,,,,,,,,,,,,,,,,,,,,,,,,,,,,,,,,,,,,,,,,,,,,
,,613a541cf948d295c1df8752,2024-02-21_21h28.32.971,kallum_motion_pilot,2023.2.2,Win32,39.84063745,613a541cf948d295c1df8752,65d6bb0e977760de756971f7,65d6bf287e0756d9bca0652c,0.0696,0.0697,1,65,227,138,1,sixfive,,,,,,,,,,,,,,,,,,,,,,,,,,,,,,,,,,,,,,,,,,,,,,,,,,,,,,,,,,,,,,,,,,,,,,,,,,,,,,,,,,,,,,,,,,,,,,,,,,,,,,,,,,,,,,,,,,,,,,,,,,,,,,,,,,,,,,,,,
,,613a541cf948d295c1df8752,2024-02-21_21h28.32.971,kallum_motion_pilot,2023.2.2,Win32,39.84063745,613a541cf948d295c1df8752,65d6bb0e977760de756971f7,65d6bf287e0756d9bca0652c,0.0697,0.0698,1,66,228,136,1,fivesix,,,,,,,,,,,,,,,,,,,,,,,,,,,,,,,,,,,,,,,,,,,,,,,,,,,,,,,,,,,,,,,,,,,,,,,,,,,,,,,,,,,,,,,,,,,,,,,,,,,,,,,,,,,,,,,,,,,,,,,,,,,,,,,,,,,,,,,,,
,,613a541cf948d295c1df8752,2024-02-21_21h28.32.971,kallum_motion_pilot,2023.2.2,Win32,39.84063745,613a541cf948d295c1df8752,65d6bb0e977760de756971f7,65d6bf287e0756d9bca0652c,0.0699,0.0701,1,67,229,135,1,eightseven,,,,,,,,,,,,,,,,,,,,,,,,,,,,,,,,,,,,,,,,,,,,,,,,,,,,,,,,,,,,,,,,,,,,,,,,,,,,,,,,,,,,,,,,,,,,,,,,,,,,,,,,,,,,,,,,,,,,,,,,,,,,,,,,,,,,,,,,,
,,613a541cf948d295c1df8752,2024-02-21_21h28.32.971,kallum_motion_pilot,2023.2.2,Win32,39.84063745,613a541cf948d295c1df8752,65d6bb0e977760de756971f7,65d6bf287e0756d9bca0652c,0.0701,0.0702,1,68,230,6,1,fourtwo,,,,,,,,,,,,,,,,,,,,,,,,,,,,,,,,,,,,,,,,,,,,,,,,,,,,,,,,,,,,,,,,,,,,,,,,,,,,,,,,,,,,,,,,,,,,,,,,,,,,,,,,,,,,,,,,,,,,,,,,,,,,,,,,,,,,,,,,,
,,613a541cf948d295c1df8752,2024-02-21_21h28.32.971,kallum_motion_pilot,2023.2.2,Win32,39.84063745,613a541cf948d295c1df8752,65d6bb0e977760de756971f7,65d6bf287e0756d9bca0652c,0.0704,0.0704,1,69,231,47,1,fourthree,,,,,,,,,,,,,,,,,,,,,,,,,,,,,,,,,,,,,,,,,,,,,,,,,,,,,,,,,,,,,,,,,,,,,,,,,,,,,,,,,,,,,,,,,,,,,,,,,,,,,,,,,,,,,,,,,,,,,,,,,,,,,,,,,,,,,,,,,
,,613a541cf948d295c1df8752,2024-02-21_21h28.32.971,kallum_motion_pilot,2023.2.2,Win32,39.84063745,613a541cf948d295c1df8752,65d6bb0e977760de756971f7,65d6bf287e0756d9bca0652c,0.0705,0.0706,1,70,232,113,1,fiveseven,,,,,,,,,,,,,,,,,,,,,,,,,,,,,,,,,,,,,,,,,,,,,,,,,,,,,,,,,,,,,,,,,,,,,,,,,,,,,,,,,,,,,,,,,,,,,,,,,,,,,,,,,,,,,,,,,,,,,,,,,,,,,,,,,,,,,,,,,
,,613a541cf948d295c1df8752,2024-02-21_21h28.32.971,kallum_motion_pilot,2023.2.2,Win32,39.84063745,613a541cf948d295c1df8752,65d6bb0e977760de756971f7,65d6bf287e0756d9bca0652c,0.0707,0.0708,1,71,233,38,1,fourtwo,,,,,,,,,,,,,,,,,,,,,,,,,,,,,,,,,,,,,,,,,,,,,,,,,,,,,,,,,,,,,,,,,,,,,,,,,,,,,,,,,,,,,,,,,,,,,,,,,,,,,,,,,,,,,,,,,,,,,,,,,,,,,,,,,,,,,,,,,
,,613a541cf948d295c1df8752,2024-02-21_21h28.32.971,kallum_motion_pilot,2023.2.2,Win32,39.84063745,613a541cf948d295c1df8752,65d6bb0e977760de756971f7,65d6bf287e0756d9bca0652c,0.0709,0.071,1,72,234,115,1,sixeight,,,,,,,,,,,,,,,,,,,,,,,,,,,,,,,,,,,,,,,,,,,,,,,,,,,,,,,,,,,,,,,,,,,,,,,,,,,,,,,,,,,,,,,,,,,,,,,,,,,,,,,,,,,,,,,,,,,,,,,,,,,,,,,,,,,,,,,,,
,,613a541cf948d295c1df8752,2024-02-21_21h28.32.971,kallum_motion_pilot,2023.2.2,Win32,39.84063745,613a541cf948d295c1df8752,65d6bb0e977760de756971f7,65d6bf287e0756d9bca0652c,0.0711,0.0712,1,73,235,108,1,sevenfive,,,,,,,,,,,,,,,,,,,,,,,,,,,,,,,,,,,,,,,,,,,,,,,,,,,,,,,,,,,,,,,,,,,,,,,,,,,,,,,,,,,,,,,,,,,,,,,,,,,,,,,,,,,,,,,,,,,,,,,,,,,,,,,,,,,,,,,,,
,,613a541cf948d295c1df8752,2024-02-21_21h28.32.971,kallum_motion_pilot,2023.2.2,Win32,39.84063745,613a541cf948d295c1df8752,65d6bb0e977760de756971f7,65d6bf287e0756d9bca0652c,0.0713,0.0715,1,74,236,15,1,fourthree,,,,,,,,,,,,,,,,,,,,,,,,,,,,,,,,,,,,,,,,,,,,,,,,,,,,,,,,,,,,,,,,,,,,,,,,,,,,,,,,,,,,,,,,,,,,,,,,,,,,,,,,,,,,,,,,,,,,,,,,,,,,,,,,,,,,,,,,,
,,613a541cf948d295c1df8752,2024-02-21_21h28.32.971,kallum_motion_pilot,2023.2.2,Win32,39.84063745,613a541cf948d295c1df8752,65d6bb0e977760de756971f7,65d6bf287e0756d9bca0652c,0.0715,0.0716,1,75,237,78,1,fourtwo,,,,,,,,,,,,,,,,,,,,,,,,,,,,,,,,,,,,,,,,,,,,,,,,,,,,,,,,,,,,,,,,,,,,,,,,,,,,,,,,,,,,,,,,,,,,,,,,,,,,,,,,,,,,,,,,,,,,,,,,,,,,,,,,,,,,,,,,,
,,613a541cf948d295c1df8752,2024-02-21_21h28.32.971,kallum_motion_pilot,2023.2.2,Win32,39.84063745,613a541cf948d295c1df8752,65d6bb0e977760de756971f7,65d6bf287e0756d9bca0652c,0.0717,0.0718,1,76,238,89,1,fiveseven,,,,,,,,,,,,,,,,,,,,,,,,,,,,,,,,,,,,,,,,,,,,,,,,,,,,,,,,,,,,,,,,,,,,,,,,,,,,,,,,,,,,,,,,,,,,,,,,,,,,,,,,,,,,,,,,,,,,,,,,,,,,,,,,,,,,,,,,,
,,613a541cf948d295c1df8752,2024-02-21_21h28.32.971,kallum_motion_pilot,2023.2.2,Win32,39.84063745,613a541cf948d295c1df8752,65d6bb0e977760de756971f7,65d6bf287e0756d9bca0652c,0.0719,0.072,1,77,239,28,1,threeone,,,,,,,,,,,,,,,,,,,,,,,,,,,,,,,,,,,,,,,,,,,,,,,,,,,,,,,,,,,,,,,,,,,,,,,,,,,,,,,,,,,,,,,,,,,,,,,,,,,,,,,,,,,,,,,,,,,,,,,,,,,,,,,,,,,,,,,,,
,,613a541cf948d295c1df8752,2024-02-21_21h28.32.971,kallum_motion_pilot,2023.2.2,Win32,39.84063745,613a541cf948d295c1df8752,65d6bb0e977760de756971f7,65d6bf287e0756d9bca0652c,0.0721,0.0722,1,78,240,125,1,seveneight,,,,,,,,,,,,,,,,,,,,,,,,,,,,,,,,,,,,,,,,,,,,,,,,,,,,,,,,,,,,,,,,,,,,,,,,,,,,,,,,,,,,,,,,,,,,,,,,,,,,,,,,,,,,,,,,,,,,,,,,,,,,,,,,,,,,,,,,,
,,613a541cf948d295c1df8752,2024-02-21_21h28.32.971,kallum_motion_pilot,2023.2.2,Win32,39.84063745,613a541cf948d295c1df8752,65d6bb0e977760de756971f7,65d6bf287e0756d9bca0652c,0.0723,0.0724,1,79,241,24,1,onetwo,,,,,,,,,,,,,,,,,,,,,,,,,,,,,,,,,,,,,,,,,,,,,,,,,,,,,,,,,,,,,,,,,,,,,,,,,,,,,,,,,,,,,,,,,,,,,,,,,,,,,,,,,,,,,,,,,,,,,,,,,,,,,,,,,,,,,,,,,
,,613a541cf948d295c1df8752,2024-02-21_21h28.32.971,kallum_motion_pilot,2023.2.2,Win32,39.84063745,613a541cf948d295c1df8752,65d6bb0e977760de756971f7,65d6bf287e0756d9bca0652c,0.0725,0.0726,1,80,242,100,1,sevenfive,,,,,,,,,,,,,,,,,,,,,,,,,,,,,,,,,,,,,,,,,,,,,,,,,,,,,,,,,,,,,,,,,,,,,,,,,,,,,,,,,,,,,,,,,,,,,,,,,,,,,,,,,,,,,,,,,,,,,,,,,,,,,,,,,,,,,,,,,
,,613a541cf948d295c1df8752,2024-02-21_21h28.32.971,kallum_motion_pilot,2023.2.2,Win32,39.84063745,613a541cf948d295c1df8752,65d6bb0e977760de756971f7,65d6bf287e0756d9bca0652c,0.0727,0.0728,1,81,243,39,1,fourthree,,,,,,,,,,,,,,,,,,,,,,,,,,,,,,,,,,,,,,,,,,,,,,,,,,,,,,,,,,,,,,,,,,,,,,,,,,,,,,,,,,,,,,,,,,,,,,,,,,,,,,,,,,,,,,,,,,,,,,,,,,,,,,,,,,,,,,,,,
,,613a541cf948d295c1df8752,2024-02-21_21h28.32.971,kallum_motion_pilot,2023.2.2,Win32,39.84063745,613a541cf948d295c1df8752,65d6bb0e977760de756971f7,65d6bf287e0756d9bca0652c,0.0728,0.073,1,82,244,109,1,seveneight,,,,,,,,,,,,,,,,,,,,,,,,,,,,,,,,,,,,,,,,,,,,,,,,,,,,,,,,,,,,,,,,,,,,,,,,,,,,,,,,,,,,,,,,,,,,,,,,,,,,,,,,,,,,,,,,,,,,,,,,,,,,,,,,,,,,,,,,,
,,613a541cf948d295c1df8752,2024-02-21_21h28.32.971,kallum_motion_pilot,2023.2.2,Win32,39.84063745,613a541cf948d295c1df8752,65d6bb0e977760de756971f7,65d6bf287e0756d9bca0652c,0.0731,0.0732,1,83,245,57,1,onethree,,,,,,,,,,,,,,,,,,,,,,,,,,,,,,,,,,,,,,,,,,,,,,,,,,,,,,,,,,,,,,,,,,,,,,,,,,,,,,,,,,,,,,,,,,,,,,,,,,,,,,,,,,,,,,,,,,,,,,,,,,,,,,,,,,,,,,,,,
,,613a541cf948d295c1df8752,2024-02-21_21h28.32.971,kallum_motion_pilot,2023.2.2,Win32,39.84063745,613a541cf948d295c1df8752,65d6bb0e977760de756971f7,65d6bf287e0756d9bca0652c,0.0733,0.0734,1,84,246,10,1,twoone,,,,,,,,,,,,,,,,,,,,,,,,,,,,,,,,,,,,,,,,,,,,,,,,,,,,,,,,,,,,,,,,,,,,,,,,,,,,,,,,,,,,,,,,,,,,,,,,,,,,,,,,,,,,,,,,,,,,,,,,,,,,,,,,,,,,,,,,,
,,613a541cf948d295c1df8752,2024-02-21_21h28.32.971,kallum_motion_pilot,2023.2.2,Win32,39.84063745,613a541cf948d295c1df8752,65d6bb0e977760de756971f7,65d6bf287e0756d9bca0652c,0.0735,0.0736,1,85,247,30,1,fourtwo,,,,,,,,,,,,,,,,,,,,,,,,,,,,,,,,,,,,,,,,,,,,,,,,,,,,,,,,,,,,,,,,,,,,,,,,,,,,,,,,,,,,,,,,,,,,,,,,,,,,,,,,,,,,,,,,,,,,,,,,,,,,,,,,,,,,,,,,,
,,613a541cf948d295c1df8752,2024-02-21_21h28.32.971,kallum_motion_pilot,2023.2.2,Win32,39.84063745,613a541cf948d295c1df8752,65d6bb0e977760de756971f7,65d6bf287e0756d9bca0652c,0.0737,0.0738,1,86,248,117,1,seveneight,,,,,,,,,,,,,,,,,,,,,,,,,,,,,,,,,,,,,,,,,,,,,,,,,,,,,,,,,,,,,,,,,,,,,,,,,,,,,,,,,,,,,,,,,,,,,,,,,,,,,,,,,,,,,,,,,,,,,,,,,,,,,,,,,,,,,,,,,
,,613a541cf948d295c1df8752,2024-02-21_21h28.32.971,kallum_motion_pilot,2023.2.2,Win32,39.84063745,613a541cf948d295c1df8752,65d6bb0e977760de756971f7,65d6bf287e0756d9bca0652c,0.0739,0.074,1,87,249,123,1,sixeight,,,,,,,,,,,,,,,,,,,,,,,,,,,,,,,,,,,,,,,,,,,,,,,,,,,,,,,,,,,,,,,,,,,,,,,,,,,,,,,,,,,,,,,,,,,,,,,,,,,,,,,,,,,,,,,,,,,,,,,,,,,,,,,,,,,,,,,,,
,,613a541cf948d295c1df8752,2024-02-21_21h28.32.971,kallum_motion_pilot,2023.2.2,Win32,39.84063745,613a541cf948d295c1df8752,65d6bb0e977760de756971f7,65d6bf287e0756d9bca0652c,0.0741,0.0743,1,88,250,92,1,sevenfive,,,,,,,,,,,,,,,,,,,,,,,,,,,,,,,,,,,,,,,,,,,,,,,,,,,,,,,,,,,,,,,,,,,,,,,,,,,,,,,,,,,,,,,,,,,,,,,,,,,,,,,,,,,,,,,,,,,,,,,,,,,,,,,,,,,,,,,,,
,,613a541cf948d295c1df8752,2024-02-21_21h28.32.971,kallum_motion_pilot,2023.2.2,Win32,39.84063745,613a541cf948d295c1df8752,65d6bb0e977760de756971f7,65d6bf287e0756d9bca0652c,0.0744,0.0744,1,89,251,26,1,twoone,,,,,,,,,,,,,,,,,,,,,,,,,,,,,,,,,,,,,,,,,,,,,,,,,,,,,,,,,,,,,,,,,,,,,,,,,,,,,,,,,,,,,,,,,,,,,,,,,,,,,,,,,,,,,,,,,,,,,,,,,,,,,,,,,,,,,,,,,
,,613a541cf948d295c1df8752,2024-02-21_21h28.32.971,kallum_motion_pilot,2023.2.2,Win32,39.84063745,613a541cf948d295c1df8752,65d6bb0e977760de756971f7,65d6bf287e0756d9bca0652c,0.0746,0.0746,1,90,252,148,1,sevenfive,,,,,,,,,,,,,,,,,,,,,,,,,,,,,,,,,,,,,,,,,,,,,,,,,,,,,,,,,,,,,,,,,,,,,,,,,,,,,,,,,,,,,,,,,,,,,,,,,,,,,,,,,,,,,,,,,,,,,,,,,,,,,,,,,,,,,,,,,
,,613a541cf948d295c1df8752,2024-02-21_21h28.32.971,kallum_motion_pilot,2023.2.2,Win32,39.84063745,613a541cf948d295c1df8752,65d6bb0e977760de756971f7,65d6bf287e0756d9bca0652c,0.0748,0.0749,1,91,253,129,1,fiveseven,,,,,,,,,,,,,,,,,,,,,,,,,,,,,,,,,,,,,,,,,,,,,,,,,,,,,,,,,,,,,,,,,,,,,,,,,,,,,,,,,,,,,,,,,,,,,,,,,,,,,,,,,,,,,,,,,,,,,,,,,,,,,,,,,,,,,,,,,
,,613a541cf948d295c1df8752,2024-02-21_21h28.32.971,kallum_motion_pilot,2023.2.2,Win32,39.84063745,613a541cf948d295c1df8752,65d6bb0e977760de756971f7,65d6bf287e0756d9bca0652c,0.0749,0.0751,1,92,254,69,1,threefour,,,,,,,,,,,,,,,,,,,,,,,,,,,,,,,,,,,,,,,,,,,,,,,,,,,,,,,,,,,,,,,,,,,,,,,,,,,,,,,,,,,,,,,,,,,,,,,,,,,,,,,,,,,,,,,,,,,,,,,,,,,,,,,,,,,,,,,,,
,,613a541cf948d295c1df8752,2024-02-21_21h28.32.971,kallum_motion_pilot,2023.2.2,Win32,39.84063745,613a541cf948d295c1df8752,65d6bb0e977760de756971f7,65d6bf287e0756d9bca0652c,0.0752,0.0753,1,93,255,122,1,sixfive,,,,,,,,,,,,,,,,,,,,,,,,,,,,,,,,,,,,,,,,,,,,,,,,,,,,,,,,,,,,,,,,,,,,,,,,,,,,,,,,,,,,,,,,,,,,,,,,,,,,,,,,,,,,,,,,,,,,,,,,,,,,,,,,,,,,,,,,,
,,613a541cf948d295c1df8752,2024-02-21_21h28.32.971,kallum_motion_pilot,2023.2.2,Win32,39.84063745,613a541cf948d295c1df8752,65d6bb0e977760de756971f7,65d6bf287e0756d9bca0652c,0.0754,0.0756,1,94,256,82,1,sixfive,,,,,,,,,,,,,,,,,,,,,,,,,,,,,,,,,,,,,,,,,,,,,,,,,,,,,,,,,,,,,,,,,,,,,,,,,,,,,,,,,,,,,,,,,,,,,,,,,,,,,,,,,,,,,,,,,,,,,,,,,,,,,,,,,,,,,,,,,
,,613a541cf948d295c1df8752,2024-02-21_21h28.32.971,kallum_motion_pilot,2023.2.2,Win32,39.84063745,613a541cf948d295c1df8752,65d6bb0e977760de756971f7,65d6bf287e0756d9bca0652c,0.0756,0.0757,1,95,257,128,1,fivesix,,,,,,,,,,,,,,,,,,,,,,,,,,,,,,,,,,,,,,,,,,,,,,,,,,,,,,,,,,,,,,,,,,,,,,,,,,,,,,,,,,,,,,,,,,,,,,,,,,,,,,,,,,,,,,,,,,,,,,,,,,,,,,,,,,,,,,,,,
,,613a541cf948d295c1df8752,2024-02-21_21h28.32.971,kallum_motion_pilot,2023.2.2,Win32,39.84063745,613a541cf948d295c1df8752,65d6bb0e977760de756971f7,65d6bf287e0756d9bca0652c,0.0758,0.076,1,96,258,60,1,threeone,,,,,,,,,,,,,,,,,,,,,,,,,,,,,,,,,,,,,,,,,,,,,,,,,,,,,,,,,,,,,,,,,,,,,,,,,,,,,,,,,,,,,,,,,,,,,,,,,,,,,,,,,,,,,,,,,,,,,,,,,,,,,,,,,,,,,,,,,
,,613a541cf948d295c1df8752,2024-02-21_21h28.32.971,kallum_motion_pilot,2023.2.2,Win32,39.84063745,613a541cf948d295c1df8752,65d6bb0e977760de756971f7,65d6bf287e0756d9bca0652c,0.076,0.0763,1,97,259,54,1,fourtwo,,,,,,,,,,,,,,,,,,,,,,,,,,,,,,,,,,,,,,,,,,,,,,,,,,,,,,,,,,,,,,,,,,,,,,,,,,,,,,,,,,,,,,,,,,,,,,,,,,,,,,,,,,,,,,,,,,,,,,,,,,,,,,,,,,,,,,,,,
,,613a541cf948d295c1df8752,2024-02-21_21h28.32.971,kallum_motion_pilot,2023.2.2,Win32,39.84063745,613a541cf948d295c1df8752,65d6bb0e977760de756971f7,65d6bf287e0756d9bca0652c,0.0763,0.0764,1,98,260,120,1,fivesix,,,,,,,,,,,,,,,,,,,,,,,,,,,,,,,,,,,,,,,,,,,,,,,,,,,,,,,,,,,,,,,,,,,,,,,,,,,,,,,,,,,,,,,,,,,,,,,,,,,,,,,,,,,,,,,,,,,,,,,,,,,,,,,,,,,,,,,,,
,,613a541cf948d295c1df8752,2024-02-21_21h28.32.971,kallum_motion_pilot,2023.2.2,Win32,39.84063745,613a541cf948d295c1df8752,65d6bb0e977760de756971f7,65d6bf287e0756d9bca0652c,0.0766,0.0767,1,99,261,146,1,sixfive,,,,,,,,,,,,,,,,,,,,,,,,,,,,,,,,,,,,,,,,,,,,,,,,,,,,,,,,,,,,,,,,,,,,,,,,,,,,,,,,,,,,,,,,,,,,,,,,,,,,,,,,,,,,,,,,,,,,,,,,,,,,,,,,,,,,,,,,,
,,613a541cf948d295c1df8752,2024-02-21_21h28.32.971,kallum_motion_pilot,2023.2.2,Win32,39.84063745,613a541cf948d295c1df8752,65d6bb0e977760de756971f7,65d6bf287e0756d9bca0652c,0.0768,0.0769,1,100,262,59,1,twofour,,,,,,,,,,,,,,,,,,,,,,,,,,,,,,,,,,,,,,,,,,,,,,,,,,,,,,,,,,,,,,,,,,,,,,,,,,,,,,,,,,,,,,,,,,,,,,,,,,,,,,,,,,,,,,,,,,,,,,,,,,,,,,,,,,,,,,,,,
,,613a541cf948d295c1df8752,2024-02-21_21h28.32.971,kallum_motion_pilot,2023.2.2,Win32,39.84063745,613a541cf948d295c1df8752,65d6bb0e977760de756971f7,65d6bf287e0756d9bca0652c,0.077,0.0771,1,101,263,161,1,fiveseven,,,,,,,,,,,,,,,,,,,,,,,,,,,,,,,,,,,,,,,,,,,,,,,,,,,,,,,,,,,,,,,,,,,,,,,,,,,,,,,,,,,,,,,,,,,,,,,,,,,,,,,,,,,,,,,,,,,,,,,,,,,,,,,,,,,,,,,,,
,,613a541cf948d295c1df8752,2024-02-21_21h28.32.971,kallum_motion_pilot,2023.2.2,Win32,39.84063745,613a541cf948d295c1df8752,65d6bb0e977760de756971f7,65d6bf287e0756d9bca0652c,0.0773,0.0774,1,102,264,158,1,eightsix,,,,,,,,,,,,,,,,,,,,,,,,,,,,,,,,,,,,,,,,,,,,,,,,,,,,,,,,,,,,,,,,,,,,,,,,,,,,,,,,,,,,,,,,,,,,,,,,,,,,,,,,,,,,,,,,,,,,,,,,,,,,,,,,,,,,,,,,,
,,613a541cf948d295c1df8752,2024-02-21_21h28.32.971,kallum_motion_pilot,2023.2.2,Win32,39.84063745,613a541cf948d295c1df8752,65d6bb0e977760de756971f7,65d6bf287e0756d9bca0652c,0.0775,0.0776,1,103,265,101,1,seveneight,,,,,,,,,,,,,,,,,,,,,,,,,,,,,,,,,,,,,,,,,,,,,,,,,,,,,,,,,,,,,,,,,,,,,,,,,,,,,,,,,,,,,,,,,,,,,,,,,,,,,,,,,,,,,,,,,,,,,,,,,,,,,,,,,,,,,,,,,
,,613a541cf948d295c1df8752,2024-02-21_21h28.32.971,kallum_motion_pilot,2023.2.2,Win32,39.84063745,613a541cf948d295c1df8752,65d6bb0e977760de756971f7,65d6bf287e0756d9bca0652c,0.0777,0.0779,1,104,266,33,1,onethree,,,,,,,,,,,,,,,,,,,,,,,,,,,,,,,,,,,,,,,,,,,,,,,,,,,,,,,,,,,,,,,,,,,,,,,,,,,,,,,,,,,,,,,,,,,,,,,,,,,,,,,,,,,,,,,,,,,,,,,,,,,,,,,,,,,,,,,,,
,,613a541cf948d295c1df8752,2024-02-21_21h28.32.971,kallum_motion_pilot,2023.2.2,Win32,39.84063745,613a541cf948d295c1df8752,65d6bb0e977760de756971f7,65d6bf287e0756d9bca0652c,0.0779,0.0781,1,105,267,49,1,onethree,,,,,,,,,,,,,,,,,,,,,,,,,,,,,,,,,,,,,,,,,,,,,,,,,,,,,,,,,,,,,,,,,,,,,,,,,,,,,,,,,,,,,,,,,,,,,,,,,,,,,,,,,,,,,,,,,,,,,,,,,,,,,,,,,,,,,,,,,
,,613a541cf948d295c1df8752,2024-02-21_21h28.32.971,kallum_motion_pilot,2023.2.2,Win32,39.84063745,613a541cf948d295c1df8752,65d6bb0e977760de756971f7,65d6bf287e0756d9bca0652c,0.0782,0.0783,1,106,268,141,1,seveneight,,,,,,,,,,,,,,,,,,,,,,,,,,,,,,,,,,,,,,,,,,,,,,,,,,,,,,,,,,,,,,,,,,,,,,,,,,,,,,,,,,,,,,,,,,,,,,,,,,,,,,,,,,,,,,,,,,,,,,,,,,,,,,,,,,,,,,,,,
,,613a541cf948d295c1df8752,2024-02-21_21h28.32.971,kallum_motion_pilot,2023.2.2,Win32,39.84063745,613a541cf948d295c1df8752,65d6bb0e977760de756971f7,65d6bf287e0756d9bca0652c,0.0783,0.0784,1,107,269,22,1,fourtwo,,,,,,,,,,,,,,,,,,,,,,,,,,,,,,,,,,,,,,,,,,,,,,,,,,,,,,,,,,,,,,,,,,,,,,,,,,,,,,,,,,,,,,,,,,,,,,,,,,,,,,,,,,,,,,,,,,,,,,,,,,,,,,,,,,,,,,,,,
,,613a541cf948d295c1df8752,2024-02-21_21h28.32.971,kallum_motion_pilot,2023.2.2,Win32,39.84063745,613a541cf948d295c1df8752,65d6bb0e977760de756971f7,65d6bf287e0756d9bca0652c,0.0786,0.0787,1,108,270,70,1,fourtwo,,,,,,,,,,,,,,,,,,,,,,,,,,,,,,,,,,,,,,,,,,,,,,,,,,,,,,,,,,,,,,,,,,,,,,,,,,,,,,,,,,,,,,,,,,,,,,,,,,,,,,,,,,,,,,,,,,,,,,,,,,,,,,,,,,,,,,,,,
,,613a541cf948d295c1df8752,2024-02-21_21h28.32.971,kallum_motion_pilot,2023.2.2,Win32,39.84063745,613a541cf948d295c1df8752,65d6bb0e977760de756971f7,65d6bf287e0756d9bca0652c,0.0788,0.0789,1,109,271,95,1,eightseven,,,,,,,,,,,,,,,,,,,,,,,,,,,,,,,,,,,,,,,,,,,,,,,,,,,,,,,,,,,,,,,,,,,,,,,,,,,,,,,,,,,,,,,,,,,,,,,,,,,,,,,,,,,,,,,,,,,,,,,,,,,,,,,,,,,,,,,,,
,,613a541cf948d295c1df8752,2024-02-21_21h28.32.971,kallum_motion_pilot,2023.2.2,Win32,39.84063745,613a541cf948d295c1df8752,65d6bb0e977760de756971f7,65d6bf287e0756d9bca0652c,0.079,0.0791,1,110,272,71,1,fourthree,,,,,,,,,,,,,,,,,,,,,,,,,,,,,,,,,,,,,,,,,,,,,,,,,,,,,,,,,,,,,,,,,,,,,,,,,,,,,,,,,,,,,,,,,,,,,,,,,,,,,,,,,,,,,,,,,,,,,,,,,,,,,,,,,,,,,,,,,
,,613a541cf948d295c1df8752,2024-02-21_21h28.32.971,kallum_motion_pilot,2023.2.2,Win32,39.84063745,613a541cf948d295c1df8752,65d6bb0e977760de756971f7,65d6bf287e0756d9bca0652c,0.0792,0.0793,1,111,273,36,1,threeone,,,,,,,,,,,,,,,,,,,,,,,,,,,,,,,,,,,,,,,,,,,,,,,,,,,,,,,,,,,,,,,,,,,,,,,,,,,,,,,,,,,,,,,,,,,,,,,,,,,,,,,,,,,,,,,,,,,,,,,,,,,,,,,,,,,,,,,,,
,,613a541cf948d295c1df8752,2024-02-21_21h28.32.971,kallum_motion_pilot,2023.2.2,Win32,39.84063745,613a541cf948d295c1df8752,65d6bb0e977760de756971f7,65d6bf287e0756d9bca0652c,0.0794,0.0795,1,112,274,41,1,onethree,,,,,,,,,,,,,,,,,,,,,,,,,,,,,,,,,,,,,,,,,,,,,,,,,,,,,,,,,,,,,,,,,,,,,,,,,,,,,,,,,,,,,,,,,,,,,,,,,,,,,,,,,,,,,,,,,,,,,,,,,,,,,,,,,,,,,,,,,
,,613a541cf948d295c1df8752,2024-02-21_21h28.32.971,kallum_motion_pilot,2023.2.2,Win32,39.84063745,613a541cf948d295c1df8752,65d6bb0e977760de756971f7,65d6bf287e0756d9bca0652c,0.0796,0.0798,1,113,275,87,1,eightseven,,,,,,,,,,,,,,,,,,,,,,,,,,,,,,,,,,,,,,,,,,,,,,,,,,,,,,,,,,,,,,,,,,,,,,,,,,,,,,,,,,,,,,,,,,,,,,,,,,,,,,,,,,,,,,,,,,,,,,,,,,,,,,,,,,,,,,,,,
,,613a541cf948d295c1df8752,2024-02-21_21h28.32.971,kallum_motion_pilot,2023.2.2,Win32,39.84063745,613a541cf948d295c1df8752,65d6bb0e977760de756971f7,65d6bf287e0756d9bca0652c,0.0798,0.08,1,114,276,50,1,twoone,,,,,,,,,,,,,,,,,,,,,,,,,,,,,,,,,,,,,,,,,,,,,,,,,,,,,,,,,,,,,,,,,,,,,,,,,,,,,,,,,,,,,,,,,,,,,,,,,,,,,,,,,,,,,,,,,,,,,,,,,,,,,,,,,,,,,,,,,
,,613a541cf948d295c1df8752,2024-02-21_21h28.32.971,kallum_motion_pilot,2023.2.2,Win32,39.84063745,613a541cf948d295c1df8752,65d6bb0e977760de756971f7,65d6bf287e0756d9bca0652c,0.0801,0.0802,1,115,277,127,1,eightseven,,,,,,,,,,,,,,,,,,,,,,,,,,,,,,,,,,,,,,,,,,,,,,,,,,,,,,,,,,,,,,,,,,,,,,,,,,,,,,,,,,,,,,,,,,,,,,,,,,,,,,,,,,,,,,,,,,,,,,,,,,,,,,,,,,,,,,,,,
