startup.started,startup.stopped,Prolific ID*,date,expName,psychopyVersion,OS,frameRate,participant,study_id,session,stimpositions.started,stimpositions.stopped,hardcoded_stimulus_positions.thisRepN,hardcoded_stimulus_positions.thisTrialN,hardcoded_stimulus_positions.thisN,hardcoded_stimulus_positions.thisIndex,hardcoded_stimulus_positions.ran,StimulusPos,stimorientation.started,stimorientation.stopped,prac_stimorientation_import_loop.thisRepN,prac_stimorientation_import_loop.thisTrialN,prac_stimorientation_import_loop.thisN,prac_stimorientation_import_loop.thisIndex,prac_stimorientation_import_loop.ran,Stimorientation,welcome_instr.started,welcome_instr.stopped,key_resp.keys,key_resp.rt,key_resp.duration,response_steppedout_1.started,response_steppedout_1.stopped,key_resp_20.keys,key_resp_20.rt,key_resp_20.duration,response_steppedout_2.started,response_steppedout_2.stopped,key_resp_19.keys,key_resp_19.rt,key_resp_19.duration,stim_response_instr.started,stim_response_instr.stopped,key_resp_15.keys,key_resp_15.rt,key_resp_15.duration,direction_instr_2.started,direction_instr_2.stopped,key_resp_9.keys,key_resp_9.rt,key_resp_9.duration,instr_prac.started,instr_prac.stopped,key_resp_10.keys,key_resp_10.rt,key_resp_10.duration,Stim1_display_prac.started,Stim1_display_prac.stopped,Ecc,Circle1_ori,Circle2_ori,response_prac.started,similarity,response_time,response_prac.stopped,mouse_5.x,mouse_5.y,mouse_5.leftButton,mouse_5.midButton,mouse_5.rightButton,mouse_5.clicked_name,responseprac_feedback.started,responseprac_feedback.stopped,summary2_prac.started,summary2_prac.stopped,mouse_6.x,mouse_6.y,mouse_6.leftButton,mouse_6.midButton,mouse_6.rightButton,mouse_6.clicked_name,duringprac.thisRepN,duringprac.thisTrialN,duringprac.thisN,duringprac.thisIndex,duringprac.ran,begin.started,begin.stopped,key_resp_22.keys,key_resp_22.rt,key_resp_22.duration,Stim1_display.started,Stim1_display.stopped,circle1_ori,circle2_ori,circle1_SF,circle2_SF,response.started,response.stopped,mouse.x,mouse.y,mouse.leftButton,mouse.midButton,mouse.rightButton,mouse.clicked_name,trialnumber,double_pass.thisRepN,double_pass.thisTrialN,double_pass.thisN,double_pass.thisIndex,double_pass.ran,double_pass.order,main_trial.thisRepN,main_trial.thisTrialN,main_trial.thisN,main_trial.thisIndex,main_trial.ran,main_trial.order,Trial_Counter,Catch,Frequencies,response_2.started,response_2.stopped,mouse_2.x,mouse_2.y,mouse_2.leftButton,mouse_2.midButton,mouse_2.rightButton,mouse_2.clicked_name,special_trial.started,special_trial.stopped,catch_1.started,catch_1.stopped,mouse_3.x,mouse_3.y,mouse_3.leftButton,mouse_3.midButton,mouse_3.rightButton,catchresponse,catchnumber,response_time_catch,response_sum.started,response_sum.stopped,mouse_11.x,mouse_11.y,mouse_11.leftButton,mouse_11.midButton,mouse_11.rightButton,flip_presentation_sequence_for_double_pass.started,flip_presentation_sequence_for_double_pass.stopped,goodbye.started,goodbye.stopped,key_resp_3.keys,key_resp_3.rt,key_resp_3.duration
0.0004,0.0005,613ad089983f33fc8194d601,2024-02-18_20h16.40.635,kallum_motion_pilot,2023.2.2,Win32,59.88023952,613ad089983f33fc8194d601,65d2b6c8f2eece985d8e374c,65d2b7c396fa611396bffafc,,,,,,,,,,,,,,,,,,,,,,,,,,,,,,,,,,,,,,,,,,,,,,,,,,,,,,,,,,,,,,,,,,,,,,,,,,,,,,,,,,,,,,,,,,,,,,,,,,,,,,,,,,,,,,,,,,,,,,,,,,,,,,,,,,,,,,,,,,,,,,,,,
,,613ad089983f33fc8194d601,2024-02-18_20h16.40.635,kallum_motion_pilot,2023.2.2,Win32,59.88023952,613ad089983f33fc8194d601,65d2b6c8f2eece985d8e374c,65d2b7c396fa611396bffafc,0.0263,0.0265,0,0,0,161,1,fiveseven,,,,,,,,,,,,,,,,,,,,,,,,,,,,,,,,,,,,,,,,,,,,,,,,,,,,,,,,,,,,,,,,,,,,,,,,,,,,,,,,,,,,,,,,,,,,,,,,,,,,,,,,,,,,,,,,,,,,,,,,,,,,,,,,,,,,,,,,,
,,613ad089983f33fc8194d601,2024-02-18_20h16.40.635,kallum_motion_pilot,2023.2.2,Win32,59.88023952,613ad089983f33fc8194d601,65d2b6c8f2eece985d8e374c,65d2b7c396fa611396bffafc,0.0269,0.0269,0,1,1,67,1,twofour,,,,,,,,,,,,,,,,,,,,,,,,,,,,,,,,,,,,,,,,,,,,,,,,,,,,,,,,,,,,,,,,,,,,,,,,,,,,,,,,,,,,,,,,,,,,,,,,,,,,,,,,,,,,,,,,,,,,,,,,,,,,,,,,,,,,,,,,,
,,613ad089983f33fc8194d601,2024-02-18_20h16.40.635,kallum_motion_pilot,2023.2.2,Win32,59.88023952,613ad089983f33fc8194d601,65d2b6c8f2eece985d8e374c,65d2b7c396fa611396bffafc,0.027,0.027,0,2,2,160,1,fivesix,,,,,,,,,,,,,,,,,,,,,,,,,,,,,,,,,,,,,,,,,,,,,,,,,,,,,,,,,,,,,,,,,,,,,,,,,,,,,,,,,,,,,,,,,,,,,,,,,,,,,,,,,,,,,,,,,,,,,,,,,,,,,,,,,,,,,,,,,
,,613ad089983f33fc8194d601,2024-02-18_20h16.40.635,kallum_motion_pilot,2023.2.2,Win32,59.88023952,613ad089983f33fc8194d601,65d2b6c8f2eece985d8e374c,65d2b7c396fa611396bffafc,0.0271,0.0272,0,3,3,135,1,eightseven,,,,,,,,,,,,,,,,,,,,,,,,,,,,,,,,,,,,,,,,,,,,,,,,,,,,,,,,,,,,,,,,,,,,,,,,,,,,,,,,,,,,,,,,,,,,,,,,,,,,,,,,,,,,,,,,,,,,,,,,,,,,,,,,,,,,,,,,,
,,613ad089983f33fc8194d601,2024-02-18_20h16.40.635,kallum_motion_pilot,2023.2.2,Win32,59.88023952,613ad089983f33fc8194d601,65d2b6c8f2eece985d8e374c,65d2b7c396fa611396bffafc,0.0273,0.0273,0,4,4,79,1,eightseven,,,,,,,,,,,,,,,,,,,,,,,,,,,,,,,,,,,,,,,,,,,,,,,,,,,,,,,,,,,,,,,,,,,,,,,,,,,,,,,,,,,,,,,,,,,,,,,,,,,,,,,,,,,,,,,,,,,,,,,,,,,,,,,,,,,,,,,,,
,,613ad089983f33fc8194d601,2024-02-18_20h16.40.635,kallum_motion_pilot,2023.2.2,Win32,59.88023952,613ad089983f33fc8194d601,65d2b6c8f2eece985d8e374c,65d2b7c396fa611396bffafc,0.0274,0.0274,0,5,5,20,1,threeone,,,,,,,,,,,,,,,,,,,,,,,,,,,,,,,,,,,,,,,,,,,,,,,,,,,,,,,,,,,,,,,,,,,,,,,,,,,,,,,,,,,,,,,,,,,,,,,,,,,,,,,,,,,,,,,,,,,,,,,,,,,,,,,,,,,,,,,,,
,,613ad089983f33fc8194d601,2024-02-18_20h16.40.635,kallum_motion_pilot,2023.2.2,Win32,59.88023952,613ad089983f33fc8194d601,65d2b6c8f2eece985d8e374c,65d2b7c396fa611396bffafc,0.0275,0.0275,0,6,6,127,1,eightseven,,,,,,,,,,,,,,,,,,,,,,,,,,,,,,,,,,,,,,,,,,,,,,,,,,,,,,,,,,,,,,,,,,,,,,,,,,,,,,,,,,,,,,,,,,,,,,,,,,,,,,,,,,,,,,,,,,,,,,,,,,,,,,,,,,,,,,,,,
,,613ad089983f33fc8194d601,2024-02-18_20h16.40.635,kallum_motion_pilot,2023.2.2,Win32,59.88023952,613ad089983f33fc8194d601,65d2b6c8f2eece985d8e374c,65d2b7c396fa611396bffafc,0.0277,0.0277,0,7,7,130,1,sixfive,,,,,,,,,,,,,,,,,,,,,,,,,,,,,,,,,,,,,,,,,,,,,,,,,,,,,,,,,,,,,,,,,,,,,,,,,,,,,,,,,,,,,,,,,,,,,,,,,,,,,,,,,,,,,,,,,,,,,,,,,,,,,,,,,,,,,,,,,
,,613ad089983f33fc8194d601,2024-02-18_20h16.40.635,kallum_motion_pilot,2023.2.2,Win32,59.88023952,613ad089983f33fc8194d601,65d2b6c8f2eece985d8e374c,65d2b7c396fa611396bffafc,0.0278,0.0278,0,8,8,69,1,threefour,,,,,,,,,,,,,,,,,,,,,,,,,,,,,,,,,,,,,,,,,,,,,,,,,,,,,,,,,,,,,,,,,,,,,,,,,,,,,,,,,,,,,,,,,,,,,,,,,,,,,,,,,,,,,,,,,,,,,,,,,,,,,,,,,,,,,,,,,
,,613ad089983f33fc8194d601,2024-02-18_20h16.40.635,kallum_motion_pilot,2023.2.2,Win32,59.88023952,613ad089983f33fc8194d601,65d2b6c8f2eece985d8e374c,65d2b7c396fa611396bffafc,0.0279,0.028,0,9,9,158,1,eightsix,,,,,,,,,,,,,,,,,,,,,,,,,,,,,,,,,,,,,,,,,,,,,,,,,,,,,,,,,,,,,,,,,,,,,,,,,,,,,,,,,,,,,,,,,,,,,,,,,,,,,,,,,,,,,,,,,,,,,,,,,,,,,,,,,,,,,,,,,
,,613ad089983f33fc8194d601,2024-02-18_20h16.40.635,kallum_motion_pilot,2023.2.2,Win32,59.88023952,613ad089983f33fc8194d601,65d2b6c8f2eece985d8e374c,65d2b7c396fa611396bffafc,0.0281,0.0281,0,10,10,5,1,threefour,,,,,,,,,,,,,,,,,,,,,,,,,,,,,,,,,,,,,,,,,,,,,,,,,,,,,,,,,,,,,,,,,,,,,,,,,,,,,,,,,,,,,,,,,,,,,,,,,,,,,,,,,,,,,,,,,,,,,,,,,,,,,,,,,,,,,,,,,
,,613ad089983f33fc8194d601,2024-02-18_20h16.40.635,kallum_motion_pilot,2023.2.2,Win32,59.88023952,613ad089983f33fc8194d601,65d2b6c8f2eece985d8e374c,65d2b7c396fa611396bffafc,0.0282,0.0282,0,11,11,63,1,fourthree,,,,,,,,,,,,,,,,,,,,,,,,,,,,,,,,,,,,,,,,,,,,,,,,,,,,,,,,,,,,,,,,,,,,,,,,,,,,,,,,,,,,,,,,,,,,,,,,,,,,,,,,,,,,,,,,,,,,,,,,,,,,,,,,,,,,,,,,,
,,613ad089983f33fc8194d601,2024-02-18_20h16.40.635,kallum_motion_pilot,2023.2.2,Win32,59.88023952,613ad089983f33fc8194d601,65d2b6c8f2eece985d8e374c,65d2b7c396fa611396bffafc,0.0284,0.0285,0,12,12,117,1,seveneight,,,,,,,,,,,,,,,,,,,,,,,,,,,,,,,,,,,,,,,,,,,,,,,,,,,,,,,,,,,,,,,,,,,,,,,,,,,,,,,,,,,,,,,,,,,,,,,,,,,,,,,,,,,,,,,,,,,,,,,,,,,,,,,,,,,,,,,,,
,,613ad089983f33fc8194d601,2024-02-18_20h16.40.635,kallum_motion_pilot,2023.2.2,Win32,59.88023952,613ad089983f33fc8194d601,65d2b6c8f2eece985d8e374c,65d2b7c396fa611396bffafc,0.0286,0.0286,0,13,13,16,1,onetwo,,,,,,,,,,,,,,,,,,,,,,,,,,,,,,,,,,,,,,,,,,,,,,,,,,,,,,,,,,,,,,,,,,,,,,,,,,,,,,,,,,,,,,,,,,,,,,,,,,,,,,,,,,,,,,,,,,,,,,,,,,,,,,,,,,,,,,,,,
,,613ad089983f33fc8194d601,2024-02-18_20h16.40.635,kallum_motion_pilot,2023.2.2,Win32,59.88023952,613ad089983f33fc8194d601,65d2b6c8f2eece985d8e374c,65d2b7c396fa611396bffafc,0.0288,0.0288,0,14,14,146,1,sixfive,,,,,,,,,,,,,,,,,,,,,,,,,,,,,,,,,,,,,,,,,,,,,,,,,,,,,,,,,,,,,,,,,,,,,,,,,,,,,,,,,,,,,,,,,,,,,,,,,,,,,,,,,,,,,,,,,,,,,,,,,,,,,,,,,,,,,,,,,
,,613ad089983f33fc8194d601,2024-02-18_20h16.40.635,kallum_motion_pilot,2023.2.2,Win32,59.88023952,613ad089983f33fc8194d601,65d2b6c8f2eece985d8e374c,65d2b7c396fa611396bffafc,0.0289,0.0289,0,15,15,29,1,threefour,,,,,,,,,,,,,,,,,,,,,,,,,,,,,,,,,,,,,,,,,,,,,,,,,,,,,,,,,,,,,,,,,,,,,,,,,,,,,,,,,,,,,,,,,,,,,,,,,,,,,,,,,,,,,,,,,,,,,,,,,,,,,,,,,,,,,,,,,
,,613ad089983f33fc8194d601,2024-02-18_20h16.40.635,kallum_motion_pilot,2023.2.2,Win32,59.88023952,613ad089983f33fc8194d601,65d2b6c8f2eece985d8e374c,65d2b7c396fa611396bffafc,0.029,0.029,0,16,16,100,1,sevenfive,,,,,,,,,,,,,,,,,,,,,,,,,,,,,,,,,,,,,,,,,,,,,,,,,,,,,,,,,,,,,,,,,,,,,,,,,,,,,,,,,,,,,,,,,,,,,,,,,,,,,,,,,,,,,,,,,,,,,,,,,,,,,,,,,,,,,,,,,
,,613ad089983f33fc8194d601,2024-02-18_20h16.40.635,kallum_motion_pilot,2023.2.2,Win32,59.88023952,613ad089983f33fc8194d601,65d2b6c8f2eece985d8e374c,65d2b7c396fa611396bffafc,0.0292,0.0292,0,17,17,125,1,seveneight,,,,,,,,,,,,,,,,,,,,,,,,,,,,,,,,,,,,,,,,,,,,,,,,,,,,,,,,,,,,,,,,,,,,,,,,,,,,,,,,,,,,,,,,,,,,,,,,,,,,,,,,,,,,,,,,,,,,,,,,,,,,,,,,,,,,,,,,,
,,613ad089983f33fc8194d601,2024-02-18_20h16.40.635,kallum_motion_pilot,2023.2.2,Win32,59.88023952,613ad089983f33fc8194d601,65d2b6c8f2eece985d8e374c,65d2b7c396fa611396bffafc,0.0293,0.0293,0,18,18,156,1,sevenfive,,,,,,,,,,,,,,,,,,,,,,,,,,,,,,,,,,,,,,,,,,,,,,,,,,,,,,,,,,,,,,,,,,,,,,,,,,,,,,,,,,,,,,,,,,,,,,,,,,,,,,,,,,,,,,,,,,,,,,,,,,,,,,,,,,,,,,,,,
,,613ad089983f33fc8194d601,2024-02-18_20h16.40.635,kallum_motion_pilot,2023.2.2,Win32,59.88023952,613ad089983f33fc8194d601,65d2b6c8f2eece985d8e374c,65d2b7c396fa611396bffafc,0.0293,0.0294,0,19,19,55,1,fourthree,,,,,,,,,,,,,,,,,,,,,,,,,,,,,,,,,,,,,,,,,,,,,,,,,,,,,,,,,,,,,,,,,,,,,,,,,,,,,,,,,,,,,,,,,,,,,,,,,,,,,,,,,,,,,,,,,,,,,,,,,,,,,,,,,,,,,,,,,
,,613ad089983f33fc8194d601,2024-02-18_20h16.40.635,kallum_motion_pilot,2023.2.2,Win32,59.88023952,613ad089983f33fc8194d601,65d2b6c8f2eece985d8e374c,65d2b7c396fa611396bffafc,0.0295,0.0295,0,20,20,136,1,fivesix,,,,,,,,,,,,,,,,,,,,,,,,,,,,,,,,,,,,,,,,,,,,,,,,,,,,,,,,,,,,,,,,,,,,,,,,,,,,,,,,,,,,,,,,,,,,,,,,,,,,,,,,,,,,,,,,,,,,,,,,,,,,,,,,,,,,,,,,,
,,613ad089983f33fc8194d601,2024-02-18_20h16.40.635,kallum_motion_pilot,2023.2.2,Win32,59.88023952,613ad089983f33fc8194d601,65d2b6c8f2eece985d8e374c,65d2b7c396fa611396bffafc,0.0296,0.0296,0,21,21,76,1,threeone,,,,,,,,,,,,,,,,,,,,,,,,,,,,,,,,,,,,,,,,,,,,,,,,,,,,,,,,,,,,,,,,,,,,,,,,,,,,,,,,,,,,,,,,,,,,,,,,,,,,,,,,,,,,,,,,,,,,,,,,,,,,,,,,,,,,,,,,,
,,613ad089983f33fc8194d601,2024-02-18_20h16.40.635,kallum_motion_pilot,2023.2.2,Win32,59.88023952,613ad089983f33fc8194d601,65d2b6c8f2eece985d8e374c,65d2b7c396fa611396bffafc,0.0297,0.0297,0,22,22,105,1,fiveseven,,,,,,,,,,,,,,,,,,,,,,,,,,,,,,,,,,,,,,,,,,,,,,,,,,,,,,,,,,,,,,,,,,,,,,,,,,,,,,,,,,,,,,,,,,,,,,,,,,,,,,,,,,,,,,,,,,,,,,,,,,,,,,,,,,,,,,,,,
,,613ad089983f33fc8194d601,2024-02-18_20h16.40.635,kallum_motion_pilot,2023.2.2,Win32,59.88023952,613ad089983f33fc8194d601,65d2b6c8f2eece985d8e374c,65d2b7c396fa611396bffafc,0.0298,0.0298,0,23,23,70,1,fourtwo,,,,,,,,,,,,,,,,,,,,,,,,,,,,,,,,,,,,,,,,,,,,,,,,,,,,,,,,,,,,,,,,,,,,,,,,,,,,,,,,,,,,,,,,,,,,,,,,,,,,,,,,,,,,,,,,,,,,,,,,,,,,,,,,,,,,,,,,,
,,613ad089983f33fc8194d601,2024-02-18_20h16.40.635,kallum_motion_pilot,2023.2.2,Win32,59.88023952,613ad089983f33fc8194d601,65d2b6c8f2eece985d8e374c,65d2b7c396fa611396bffafc,0.0299,0.0299,0,24,24,19,1,twofour,,,,,,,,,,,,,,,,,,,,,,,,,,,,,,,,,,,,,,,,,,,,,,,,,,,,,,,,,,,,,,,,,,,,,,,,,,,,,,,,,,,,,,,,,,,,,,,,,,,,,,,,,,,,,,,,,,,,,,,,,,,,,,,,,,,,,,,,,
,,613ad089983f33fc8194d601,2024-02-18_20h16.40.635,kallum_motion_pilot,2023.2.2,Win32,59.88023952,613ad089983f33fc8194d601,65d2b6c8f2eece985d8e374c,65d2b7c396fa611396bffafc,0.03,0.03,0,25,25,73,1,onethree,,,,,,,,,,,,,,,,,,,,,,,,,,,,,,,,,,,,,,,,,,,,,,,,,,,,,,,,,,,,,,,,,,,,,,,,,,,,,,,,,,,,,,,,,,,,,,,,,,,,,,,,,,,,,,,,,,,,,,,,,,,,,,,,,,,,,,,,,
,,613ad089983f33fc8194d601,2024-02-18_20h16.40.635,kallum_motion_pilot,2023.2.2,Win32,59.88023952,613ad089983f33fc8194d601,65d2b6c8f2eece985d8e374c,65d2b7c396fa611396bffafc,0.0302,0.0302,0,26,26,51,1,twofour,,,,,,,,,,,,,,,,,,,,,,,,,,,,,,,,,,,,,,,,,,,,,,,,,,,,,,,,,,,,,,,,,,,,,,,,,,,,,,,,,,,,,,,,,,,,,,,,,,,,,,,,,,,,,,,,,,,,,,,,,,,,,,,,,,,,,,,,,
,,613ad089983f33fc8194d601,2024-02-18_20h16.40.635,kallum_motion_pilot,2023.2.2,Win32,59.88023952,613ad089983f33fc8194d601,65d2b6c8f2eece985d8e374c,65d2b7c396fa611396bffafc,0.0303,0.0303,0,27,27,82,1,sixfive,,,,,,,,,,,,,,,,,,,,,,,,,,,,,,,,,,,,,,,,,,,,,,,,,,,,,,,,,,,,,,,,,,,,,,,,,,,,,,,,,,,,,,,,,,,,,,,,,,,,,,,,,,,,,,,,,,,,,,,,,,,,,,,,,,,,,,,,,
,,613ad089983f33fc8194d601,2024-02-18_20h16.40.635,kallum_motion_pilot,2023.2.2,Win32,59.88023952,613ad089983f33fc8194d601,65d2b6c8f2eece985d8e374c,65d2b7c396fa611396bffafc,0.0303,0.0303,0,28,28,14,1,fourtwo,,,,,,,,,,,,,,,,,,,,,,,,,,,,,,,,,,,,,,,,,,,,,,,,,,,,,,,,,,,,,,,,,,,,,,,,,,,,,,,,,,,,,,,,,,,,,,,,,,,,,,,,,,,,,,,,,,,,,,,,,,,,,,,,,,,,,,,,,
,,613ad089983f33fc8194d601,2024-02-18_20h16.40.635,kallum_motion_pilot,2023.2.2,Win32,59.88023952,613ad089983f33fc8194d601,65d2b6c8f2eece985d8e374c,65d2b7c396fa611396bffafc,0.0305,0.0305,0,29,29,56,1,onetwo,,,,,,,,,,,,,,,,,,,,,,,,,,,,,,,,,,,,,,,,,,,,,,,,,,,,,,,,,,,,,,,,,,,,,,,,,,,,,,,,,,,,,,,,,,,,,,,,,,,,,,,,,,,,,,,,,,,,,,,,,,,,,,,,,,,,,,,,,
,,613ad089983f33fc8194d601,2024-02-18_20h16.40.635,kallum_motion_pilot,2023.2.2,Win32,59.88023952,613ad089983f33fc8194d601,65d2b6c8f2eece985d8e374c,65d2b7c396fa611396bffafc,0.0307,0.0307,0,30,30,17,1,onethree,,,,,,,,,,,,,,,,,,,,,,,,,,,,,,,,,,,,,,,,,,,,,,,,,,,,,,,,,,,,,,,,,,,,,,,,,,,,,,,,,,,,,,,,,,,,,,,,,,,,,,,,,,,,,,,,,,,,,,,,,,,,,,,,,,,,,,,,,
,,613ad089983f33fc8194d601,2024-02-18_20h16.40.635,kallum_motion_pilot,2023.2.2,Win32,59.88023952,613ad089983f33fc8194d601,65d2b6c8f2eece985d8e374c,65d2b7c396fa611396bffafc,0.0308,0.0308,0,31,31,1,1,onethree,,,,,,,,,,,,,,,,,,,,,,,,,,,,,,,,,,,,,,,,,,,,,,,,,,,,,,,,,,,,,,,,,,,,,,,,,,,,,,,,,,,,,,,,,,,,,,,,,,,,,,,,,,,,,,,,,,,,,,,,,,,,,,,,,,,,,,,,,
,,613ad089983f33fc8194d601,2024-02-18_20h16.40.635,kallum_motion_pilot,2023.2.2,Win32,59.88023952,613ad089983f33fc8194d601,65d2b6c8f2eece985d8e374c,65d2b7c396fa611396bffafc,0.0308,0.0309,0,32,32,93,1,seveneight,,,,,,,,,,,,,,,,,,,,,,,,,,,,,,,,,,,,,,,,,,,,,,,,,,,,,,,,,,,,,,,,,,,,,,,,,,,,,,,,,,,,,,,,,,,,,,,,,,,,,,,,,,,,,,,,,,,,,,,,,,,,,,,,,,,,,,,,,
,,613ad089983f33fc8194d601,2024-02-18_20h16.40.635,kallum_motion_pilot,2023.2.2,Win32,59.88023952,613ad089983f33fc8194d601,65d2b6c8f2eece985d8e374c,65d2b7c396fa611396bffafc,0.0309,0.031,0,33,33,77,1,threefour,,,,,,,,,,,,,,,,,,,,,,,,,,,,,,,,,,,,,,,,,,,,,,,,,,,,,,,,,,,,,,,,,,,,,,,,,,,,,,,,,,,,,,,,,,,,,,,,,,,,,,,,,,,,,,,,,,,,,,,,,,,,,,,,,,,,,,,,,
,,613ad089983f33fc8194d601,2024-02-18_20h16.40.635,kallum_motion_pilot,2023.2.2,Win32,59.88023952,613ad089983f33fc8194d601,65d2b6c8f2eece985d8e374c,65d2b7c396fa611396bffafc,0.0311,0.0311,0,34,34,33,1,onethree,,,,,,,,,,,,,,,,,,,,,,,,,,,,,,,,,,,,,,,,,,,,,,,,,,,,,,,,,,,,,,,,,,,,,,,,,,,,,,,,,,,,,,,,,,,,,,,,,,,,,,,,,,,,,,,,,,,,,,,,,,,,,,,,,,,,,,,,,
,,613ad089983f33fc8194d601,2024-02-18_20h16.40.635,kallum_motion_pilot,2023.2.2,Win32,59.88023952,613ad089983f33fc8194d601,65d2b6c8f2eece985d8e374c,65d2b7c396fa611396bffafc,0.0312,0.0312,0,35,35,25,1,onethree,,,,,,,,,,,,,,,,,,,,,,,,,,,,,,,,,,,,,,,,,,,,,,,,,,,,,,,,,,,,,,,,,,,,,,,,,,,,,,,,,,,,,,,,,,,,,,,,,,,,,,,,,,,,,,,,,,,,,,,,,,,,,,,,,,,,,,,,,
,,613ad089983f33fc8194d601,2024-02-18_20h16.40.635,kallum_motion_pilot,2023.2.2,Win32,59.88023952,613ad089983f33fc8194d601,65d2b6c8f2eece985d8e374c,65d2b7c396fa611396bffafc,0.0313,0.0313,0,36,36,59,1,twofour,,,,,,,,,,,,,,,,,,,,,,,,,,,,,,,,,,,,,,,,,,,,,,,,,,,,,,,,,,,,,,,,,,,,,,,,,,,,,,,,,,,,,,,,,,,,,,,,,,,,,,,,,,,,,,,,,,,,,,,,,,,,,,,,,,,,,,,,,
,,613ad089983f33fc8194d601,2024-02-18_20h16.40.635,kallum_motion_pilot,2023.2.2,Win32,59.88023952,613ad089983f33fc8194d601,65d2b6c8f2eece985d8e374c,65d2b7c396fa611396bffafc,0.0314,0.0314,0,37,37,53,1,threefour,,,,,,,,,,,,,,,,,,,,,,,,,,,,,,,,,,,,,,,,,,,,,,,,,,,,,,,,,,,,,,,,,,,,,,,,,,,,,,,,,,,,,,,,,,,,,,,,,,,,,,,,,,,,,,,,,,,,,,,,,,,,,,,,,,,,,,,,,
,,613ad089983f33fc8194d601,2024-02-18_20h16.40.635,kallum_motion_pilot,2023.2.2,Win32,59.88023952,613ad089983f33fc8194d601,65d2b6c8f2eece985d8e374c,65d2b7c396fa611396bffafc,0.0316,0.0316,0,38,38,153,1,fiveseven,,,,,,,,,,,,,,,,,,,,,,,,,,,,,,,,,,,,,,,,,,,,,,,,,,,,,,,,,,,,,,,,,,,,,,,,,,,,,,,,,,,,,,,,,,,,,,,,,,,,,,,,,,,,,,,,,,,,,,,,,,,,,,,,,,,,,,,,,
,,613ad089983f33fc8194d601,2024-02-18_20h16.40.635,kallum_motion_pilot,2023.2.2,Win32,59.88023952,613ad089983f33fc8194d601,65d2b6c8f2eece985d8e374c,65d2b7c396fa611396bffafc,0.0316,0.0317,0,39,39,120,1,fivesix,,,,,,,,,,,,,,,,,,,,,,,,,,,,,,,,,,,,,,,,,,,,,,,,,,,,,,,,,,,,,,,,,,,,,,,,,,,,,,,,,,,,,,,,,,,,,,,,,,,,,,,,,,,,,,,,,,,,,,,,,,,,,,,,,,,,,,,,,
,,613ad089983f33fc8194d601,2024-02-18_20h16.40.635,kallum_motion_pilot,2023.2.2,Win32,59.88023952,613ad089983f33fc8194d601,65d2b6c8f2eece985d8e374c,65d2b7c396fa611396bffafc,0.0318,0.0318,0,40,40,27,1,twofour,,,,,,,,,,,,,,,,,,,,,,,,,,,,,,,,,,,,,,,,,,,,,,,,,,,,,,,,,,,,,,,,,,,,,,,,,,,,,,,,,,,,,,,,,,,,,,,,,,,,,,,,,,,,,,,,,,,,,,,,,,,,,,,,,,,,,,,,,
,,613ad089983f33fc8194d601,2024-02-18_20h16.40.635,kallum_motion_pilot,2023.2.2,Win32,59.88023952,613ad089983f33fc8194d601,65d2b6c8f2eece985d8e374c,65d2b7c396fa611396bffafc,0.0319,0.0319,0,41,41,113,1,fiveseven,,,,,,,,,,,,,,,,,,,,,,,,,,,,,,,,,,,,,,,,,,,,,,,,,,,,,,,,,,,,,,,,,,,,,,,,,,,,,,,,,,,,,,,,,,,,,,,,,,,,,,,,,,,,,,,,,,,,,,,,,,,,,,,,,,,,,,,,,
,,613ad089983f33fc8194d601,2024-02-18_20h16.40.635,kallum_motion_pilot,2023.2.2,Win32,59.88023952,613ad089983f33fc8194d601,65d2b6c8f2eece985d8e374c,65d2b7c396fa611396bffafc,0.0321,0.0321,0,42,42,58,1,twoone,,,,,,,,,,,,,,,,,,,,,,,,,,,,,,,,,,,,,,,,,,,,,,,,,,,,,,,,,,,,,,,,,,,,,,,,,,,,,,,,,,,,,,,,,,,,,,,,,,,,,,,,,,,,,,,,,,,,,,,,,,,,,,,,,,,,,,,,,
,,613ad089983f33fc8194d601,2024-02-18_20h16.40.635,kallum_motion_pilot,2023.2.2,Win32,59.88023952,613ad089983f33fc8194d601,65d2b6c8f2eece985d8e374c,65d2b7c396fa611396bffafc,0.0322,0.0322,0,43,43,38,1,fourtwo,,,,,,,,,,,,,,,,,,,,,,,,,,,,,,,,,,,,,,,,,,,,,,,,,,,,,,,,,,,,,,,,,,,,,,,,,,,,,,,,,,,,,,,,,,,,,,,,,,,,,,,,,,,,,,,,,,,,,,,,,,,,,,,,,,,,,,,,,
,,613ad089983f33fc8194d601,2024-02-18_20h16.40.635,kallum_motion_pilot,2023.2.2,Win32,59.88023952,613ad089983f33fc8194d601,65d2b6c8f2eece985d8e374c,65d2b7c396fa611396bffafc,0.0323,0.0323,0,44,44,71,1,fourthree,,,,,,,,,,,,,,,,,,,,,,,,,,,,,,,,,,,,,,,,,,,,,,,,,,,,,,,,,,,,,,,,,,,,,,,,,,,,,,,,,,,,,,,,,,,,,,,,,,,,,,,,,,,,,,,,,,,,,,,,,,,,,,,,,,,,,,,,,
,,613ad089983f33fc8194d601,2024-02-18_20h16.40.635,kallum_motion_pilot,2023.2.2,Win32,59.88023952,613ad089983f33fc8194d601,65d2b6c8f2eece985d8e374c,65d2b7c396fa611396bffafc,0.0324,0.0324,0,45,45,129,1,fiveseven,,,,,,,,,,,,,,,,,,,,,,,,,,,,,,,,,,,,,,,,,,,,,,,,,,,,,,,,,,,,,,,,,,,,,,,,,,,,,,,,,,,,,,,,,,,,,,,,,,,,,,,,,,,,,,,,,,,,,,,,,,,,,,,,,,,,,,,,,
,,613ad089983f33fc8194d601,2024-02-18_20h16.40.635,kallum_motion_pilot,2023.2.2,Win32,59.88023952,613ad089983f33fc8194d601,65d2b6c8f2eece985d8e374c,65d2b7c396fa611396bffafc,0.0325,0.0326,0,46,46,36,1,threeone,,,,,,,,,,,,,,,,,,,,,,,,,,,,,,,,,,,,,,,,,,,,,,,,,,,,,,,,,,,,,,,,,,,,,,,,,,,,,,,,,,,,,,,,,,,,,,,,,,,,,,,,,,,,,,,,,,,,,,,,,,,,,,,,,,,,,,,,,
,,613ad089983f33fc8194d601,2024-02-18_20h16.40.635,kallum_motion_pilot,2023.2.2,Win32,59.88023952,613ad089983f33fc8194d601,65d2b6c8f2eece985d8e374c,65d2b7c396fa611396bffafc,0.0326,0.0327,0,47,47,151,1,eightseven,,,,,,,,,,,,,,,,,,,,,,,,,,,,,,,,,,,,,,,,,,,,,,,,,,,,,,,,,,,,,,,,,,,,,,,,,,,,,,,,,,,,,,,,,,,,,,,,,,,,,,,,,,,,,,,,,,,,,,,,,,,,,,,,,,,,,,,,,
,,613ad089983f33fc8194d601,2024-02-18_20h16.40.635,kallum_motion_pilot,2023.2.2,Win32,59.88023952,613ad089983f33fc8194d601,65d2b6c8f2eece985d8e374c,65d2b7c396fa611396bffafc,0.0327,0.0328,0,48,48,144,1,fivesix,,,,,,,,,,,,,,,,,,,,,,,,,,,,,,,,,,,,,,,,,,,,,,,,,,,,,,,,,,,,,,,,,,,,,,,,,,,,,,,,,,,,,,,,,,,,,,,,,,,,,,,,,,,,,,,,,,,,,,,,,,,,,,,,,,,,,,,,,
,,613ad089983f33fc8194d601,2024-02-18_20h16.40.635,kallum_motion_pilot,2023.2.2,Win32,59.88023952,613ad089983f33fc8194d601,65d2b6c8f2eece985d8e374c,65d2b7c396fa611396bffafc,0.0328,0.0329,0,49,49,45,1,threefour,,,,,,,,,,,,,,,,,,,,,,,,,,,,,,,,,,,,,,,,,,,,,,,,,,,,,,,,,,,,,,,,,,,,,,,,,,,,,,,,,,,,,,,,,,,,,,,,,,,,,,,,,,,,,,,,,,,,,,,,,,,,,,,,,,,,,,,,,
,,613ad089983f33fc8194d601,2024-02-18_20h16.40.635,kallum_motion_pilot,2023.2.2,Win32,59.88023952,613ad089983f33fc8194d601,65d2b6c8f2eece985d8e374c,65d2b7c396fa611396bffafc,0.033,0.033,0,50,50,2,1,twoone,,,,,,,,,,,,,,,,,,,,,,,,,,,,,,,,,,,,,,,,,,,,,,,,,,,,,,,,,,,,,,,,,,,,,,,,,,,,,,,,,,,,,,,,,,,,,,,,,,,,,,,,,,,,,,,,,,,,,,,,,,,,,,,,,,,,,,,,,
,,613ad089983f33fc8194d601,2024-02-18_20h16.40.635,kallum_motion_pilot,2023.2.2,Win32,59.88023952,613ad089983f33fc8194d601,65d2b6c8f2eece985d8e374c,65d2b7c396fa611396bffafc,0.0331,0.0331,0,51,51,47,1,fourthree,,,,,,,,,,,,,,,,,,,,,,,,,,,,,,,,,,,,,,,,,,,,,,,,,,,,,,,,,,,,,,,,,,,,,,,,,,,,,,,,,,,,,,,,,,,,,,,,,,,,,,,,,,,,,,,,,,,,,,,,,,,,,,,,,,,,,,,,,
,,613ad089983f33fc8194d601,2024-02-18_20h16.40.635,kallum_motion_pilot,2023.2.2,Win32,59.88023952,613ad089983f33fc8194d601,65d2b6c8f2eece985d8e374c,65d2b7c396fa611396bffafc,0.0331,0.0332,0,52,52,115,1,sixeight,,,,,,,,,,,,,,,,,,,,,,,,,,,,,,,,,,,,,,,,,,,,,,,,,,,,,,,,,,,,,,,,,,,,,,,,,,,,,,,,,,,,,,,,,,,,,,,,,,,,,,,,,,,,,,,,,,,,,,,,,,,,,,,,,,,,,,,,,
,,613ad089983f33fc8194d601,2024-02-18_20h16.40.635,kallum_motion_pilot,2023.2.2,Win32,59.88023952,613ad089983f33fc8194d601,65d2b6c8f2eece985d8e374c,65d2b7c396fa611396bffafc,0.0333,0.0333,0,53,53,147,1,sixeight,,,,,,,,,,,,,,,,,,,,,,,,,,,,,,,,,,,,,,,,,,,,,,,,,,,,,,,,,,,,,,,,,,,,,,,,,,,,,,,,,,,,,,,,,,,,,,,,,,,,,,,,,,,,,,,,,,,,,,,,,,,,,,,,,,,,,,,,,
,,613ad089983f33fc8194d601,2024-02-18_20h16.40.635,kallum_motion_pilot,2023.2.2,Win32,59.88023952,613ad089983f33fc8194d601,65d2b6c8f2eece985d8e374c,65d2b7c396fa611396bffafc,0.0333,0.0334,0,54,54,18,1,twoone,,,,,,,,,,,,,,,,,,,,,,,,,,,,,,,,,,,,,,,,,,,,,,,,,,,,,,,,,,,,,,,,,,,,,,,,,,,,,,,,,,,,,,,,,,,,,,,,,,,,,,,,,,,,,,,,,,,,,,,,,,,,,,,,,,,,,,,,,
,,613ad089983f33fc8194d601,2024-02-18_20h16.40.635,kallum_motion_pilot,2023.2.2,Win32,59.88023952,613ad089983f33fc8194d601,65d2b6c8f2eece985d8e374c,65d2b7c396fa611396bffafc,0.0344,0.0345,0,55,55,91,1,sixeight,,,,,,,,,,,,,,,,,,,,,,,,,,,,,,,,,,,,,,,,,,,,,,,,,,,,,,,,,,,,,,,,,,,,,,,,,,,,,,,,,,,,,,,,,,,,,,,,,,,,,,,,,,,,,,,,,,,,,,,,,,,,,,,,,,,,,,,,,
,,613ad089983f33fc8194d601,2024-02-18_20h16.40.635,kallum_motion_pilot,2023.2.2,Win32,59.88023952,613ad089983f33fc8194d601,65d2b6c8f2eece985d8e374c,65d2b7c396fa611396bffafc,0.0348,0.0348,0,56,56,40,1,onetwo,,,,,,,,,,,,,,,,,,,,,,,,,,,,,,,,,,,,,,,,,,,,,,,,,,,,,,,,,,,,,,,,,,,,,,,,,,,,,,,,,,,,,,,,,,,,,,,,,,,,,,,,,,,,,,,,,,,,,,,,,,,,,,,,,,,,,,,,,
,,613ad089983f33fc8194d601,2024-02-18_20h16.40.635,kallum_motion_pilot,2023.2.2,Win32,59.88023952,613ad089983f33fc8194d601,65d2b6c8f2eece985d8e374c,65d2b7c396fa611396bffafc,0.035,0.0351,0,57,57,54,1,fourtwo,,,,,,,,,,,,,,,,,,,,,,,,,,,,,,,,,,,,,,,,,,,,,,,,,,,,,,,,,,,,,,,,,,,,,,,,,,,,,,,,,,,,,,,,,,,,,,,,,,,,,,,,,,,,,,,,,,,,,,,,,,,,,,,,,,,,,,,,,
,,613ad089983f33fc8194d601,2024-02-18_20h16.40.635,kallum_motion_pilot,2023.2.2,Win32,59.88023952,613ad089983f33fc8194d601,65d2b6c8f2eece985d8e374c,65d2b7c396fa611396bffafc,0.0351,0.0352,0,58,58,0,1,onetwo,,,,,,,,,,,,,,,,,,,,,,,,,,,,,,,,,,,,,,,,,,,,,,,,,,,,,,,,,,,,,,,,,,,,,,,,,,,,,,,,,,,,,,,,,,,,,,,,,,,,,,,,,,,,,,,,,,,,,,,,,,,,,,,,,,,,,,,,,
,,613ad089983f33fc8194d601,2024-02-18_20h16.40.635,kallum_motion_pilot,2023.2.2,Win32,59.88023952,613ad089983f33fc8194d601,65d2b6c8f2eece985d8e374c,65d2b7c396fa611396bffafc,0.0353,0.0354,0,59,59,43,1,twofour,,,,,,,,,,,,,,,,,,,,,,,,,,,,,,,,,,,,,,,,,,,,,,,,,,,,,,,,,,,,,,,,,,,,,,,,,,,,,,,,,,,,,,,,,,,,,,,,,,,,,,,,,,,,,,,,,,,,,,,,,,,,,,,,,,,,,,,,,
,,613ad089983f33fc8194d601,2024-02-18_20h16.40.635,kallum_motion_pilot,2023.2.2,Win32,59.88023952,613ad089983f33fc8194d601,65d2b6c8f2eece985d8e374c,65d2b7c396fa611396bffafc,0.0355,0.0355,0,60,60,152,1,fivesix,,,,,,,,,,,,,,,,,,,,,,,,,,,,,,,,,,,,,,,,,,,,,,,,,,,,,,,,,,,,,,,,,,,,,,,,,,,,,,,,,,,,,,,,,,,,,,,,,,,,,,,,,,,,,,,,,,,,,,,,,,,,,,,,,,,,,,,,,
,,613ad089983f33fc8194d601,2024-02-18_20h16.40.635,kallum_motion_pilot,2023.2.2,Win32,59.88023952,613ad089983f33fc8194d601,65d2b6c8f2eece985d8e374c,65d2b7c396fa611396bffafc,0.0356,0.0357,0,61,61,7,1,fourthree,,,,,,,,,,,,,,,,,,,,,,,,,,,,,,,,,,,,,,,,,,,,,,,,,,,,,,,,,,,,,,,,,,,,,,,,,,,,,,,,,,,,,,,,,,,,,,,,,,,,,,,,,,,,,,,,,,,,,,,,,,,,,,,,,,,,,,,,,
,,613ad089983f33fc8194d601,2024-02-18_20h16.40.635,kallum_motion_pilot,2023.2.2,Win32,59.88023952,613ad089983f33fc8194d601,65d2b6c8f2eece985d8e374c,65d2b7c396fa611396bffafc,0.0357,0.0357,0,62,62,78,1,fourtwo,,,,,,,,,,,,,,,,,,,,,,,,,,,,,,,,,,,,,,,,,,,,,,,,,,,,,,,,,,,,,,,,,,,,,,,,,,,,,,,,,,,,,,,,,,,,,,,,,,,,,,,,,,,,,,,,,,,,,,,,,,,,,,,,,,,,,,,,,
,,613ad089983f33fc8194d601,2024-02-18_20h16.40.635,kallum_motion_pilot,2023.2.2,Win32,59.88023952,613ad089983f33fc8194d601,65d2b6c8f2eece985d8e374c,65d2b7c396fa611396bffafc,0.0359,0.0359,0,63,63,9,1,onethree,,,,,,,,,,,,,,,,,,,,,,,,,,,,,,,,,,,,,,,,,,,,,,,,,,,,,,,,,,,,,,,,,,,,,,,,,,,,,,,,,,,,,,,,,,,,,,,,,,,,,,,,,,,,,,,,,,,,,,,,,,,,,,,,,,,,,,,,,
,,613ad089983f33fc8194d601,2024-02-18_20h16.40.635,kallum_motion_pilot,2023.2.2,Win32,59.88023952,613ad089983f33fc8194d601,65d2b6c8f2eece985d8e374c,65d2b7c396fa611396bffafc,0.036,0.036,0,64,64,21,1,threefour,,,,,,,,,,,,,,,,,,,,,,,,,,,,,,,,,,,,,,,,,,,,,,,,,,,,,,,,,,,,,,,,,,,,,,,,,,,,,,,,,,,,,,,,,,,,,,,,,,,,,,,,,,,,,,,,,,,,,,,,,,,,,,,,,,,,,,,,,
,,613ad089983f33fc8194d601,2024-02-18_20h16.40.635,kallum_motion_pilot,2023.2.2,Win32,59.88023952,613ad089983f33fc8194d601,65d2b6c8f2eece985d8e374c,65d2b7c396fa611396bffafc,0.0362,0.0362,0,65,65,157,1,seveneight,,,,,,,,,,,,,,,,,,,,,,,,,,,,,,,,,,,,,,,,,,,,,,,,,,,,,,,,,,,,,,,,,,,,,,,,,,,,,,,,,,,,,,,,,,,,,,,,,,,,,,,,,,,,,,,,,,,,,,,,,,,,,,,,,,,,,,,,,
,,613ad089983f33fc8194d601,2024-02-18_20h16.40.635,kallum_motion_pilot,2023.2.2,Win32,59.88023952,613ad089983f33fc8194d601,65d2b6c8f2eece985d8e374c,65d2b7c396fa611396bffafc,0.0366,0.0366,0,66,66,80,1,fivesix,,,,,,,,,,,,,,,,,,,,,,,,,,,,,,,,,,,,,,,,,,,,,,,,,,,,,,,,,,,,,,,,,,,,,,,,,,,,,,,,,,,,,,,,,,,,,,,,,,,,,,,,,,,,,,,,,,,,,,,,,,,,,,,,,,,,,,,,,
,,613ad089983f33fc8194d601,2024-02-18_20h16.40.635,kallum_motion_pilot,2023.2.2,Win32,59.88023952,613ad089983f33fc8194d601,65d2b6c8f2eece985d8e374c,65d2b7c396fa611396bffafc,0.0367,0.0369,0,67,67,118,1,eightsix,,,,,,,,,,,,,,,,,,,,,,,,,,,,,,,,,,,,,,,,,,,,,,,,,,,,,,,,,,,,,,,,,,,,,,,,,,,,,,,,,,,,,,,,,,,,,,,,,,,,,,,,,,,,,,,,,,,,,,,,,,,,,,,,,,,,,,,,,
,,613ad089983f33fc8194d601,2024-02-18_20h16.40.635,kallum_motion_pilot,2023.2.2,Win32,59.88023952,613ad089983f33fc8194d601,65d2b6c8f2eece985d8e374c,65d2b7c396fa611396bffafc,0.037,0.037,0,68,68,142,1,eightsix,,,,,,,,,,,,,,,,,,,,,,,,,,,,,,,,,,,,,,,,,,,,,,,,,,,,,,,,,,,,,,,,,,,,,,,,,,,,,,,,,,,,,,,,,,,,,,,,,,,,,,,,,,,,,,,,,,,,,,,,,,,,,,,,,,,,,,,,,
,,613ad089983f33fc8194d601,2024-02-18_20h16.40.635,kallum_motion_pilot,2023.2.2,Win32,59.88023952,613ad089983f33fc8194d601,65d2b6c8f2eece985d8e374c,65d2b7c396fa611396bffafc,0.0371,0.0372,0,69,69,6,1,fourtwo,,,,,,,,,,,,,,,,,,,,,,,,,,,,,,,,,,,,,,,,,,,,,,,,,,,,,,,,,,,,,,,,,,,,,,,,,,,,,,,,,,,,,,,,,,,,,,,,,,,,,,,,,,,,,,,,,,,,,,,,,,,,,,,,,,,,,,,,,
,,613ad089983f33fc8194d601,2024-02-18_20h16.40.635,kallum_motion_pilot,2023.2.2,Win32,59.88023952,613ad089983f33fc8194d601,65d2b6c8f2eece985d8e374c,65d2b7c396fa611396bffafc,0.0373,0.0373,0,70,70,98,1,sixfive,,,,,,,,,,,,,,,,,,,,,,,,,,,,,,,,,,,,,,,,,,,,,,,,,,,,,,,,,,,,,,,,,,,,,,,,,,,,,,,,,,,,,,,,,,,,,,,,,,,,,,,,,,,,,,,,,,,,,,,,,,,,,,,,,,,,,,,,,
,,613ad089983f33fc8194d601,2024-02-18_20h16.40.635,kallum_motion_pilot,2023.2.2,Win32,59.88023952,613ad089983f33fc8194d601,65d2b6c8f2eece985d8e374c,65d2b7c396fa611396bffafc,0.0374,0.0375,0,71,71,132,1,sevenfive,,,,,,,,,,,,,,,,,,,,,,,,,,,,,,,,,,,,,,,,,,,,,,,,,,,,,,,,,,,,,,,,,,,,,,,,,,,,,,,,,,,,,,,,,,,,,,,,,,,,,,,,,,,,,,,,,,,,,,,,,,,,,,,,,,,,,,,,,
,,613ad089983f33fc8194d601,2024-02-18_20h16.40.635,kallum_motion_pilot,2023.2.2,Win32,59.88023952,613ad089983f33fc8194d601,65d2b6c8f2eece985d8e374c,65d2b7c396fa611396bffafc,0.0375,0.0376,0,72,72,111,1,eightseven,,,,,,,,,,,,,,,,,,,,,,,,,,,,,,,,,,,,,,,,,,,,,,,,,,,,,,,,,,,,,,,,,,,,,,,,,,,,,,,,,,,,,,,,,,,,,,,,,,,,,,,,,,,,,,,,,,,,,,,,,,,,,,,,,,,,,,,,,
,,613ad089983f33fc8194d601,2024-02-18_20h16.40.635,kallum_motion_pilot,2023.2.2,Win32,59.88023952,613ad089983f33fc8194d601,65d2b6c8f2eece985d8e374c,65d2b7c396fa611396bffafc,0.0377,0.0377,0,73,73,106,1,sixfive,,,,,,,,,,,,,,,,,,,,,,,,,,,,,,,,,,,,,,,,,,,,,,,,,,,,,,,,,,,,,,,,,,,,,,,,,,,,,,,,,,,,,,,,,,,,,,,,,,,,,,,,,,,,,,,,,,,,,,,,,,,,,,,,,,,,,,,,,
,,613ad089983f33fc8194d601,2024-02-18_20h16.40.635,kallum_motion_pilot,2023.2.2,Win32,59.88023952,613ad089983f33fc8194d601,65d2b6c8f2eece985d8e374c,65d2b7c396fa611396bffafc,0.0379,0.0379,0,74,74,44,1,threeone,,,,,,,,,,,,,,,,,,,,,,,,,,,,,,,,,,,,,,,,,,,,,,,,,,,,,,,,,,,,,,,,,,,,,,,,,,,,,,,,,,,,,,,,,,,,,,,,,,,,,,,,,,,,,,,,,,,,,,,,,,,,,,,,,,,,,,,,,
,,613ad089983f33fc8194d601,2024-02-18_20h16.40.635,kallum_motion_pilot,2023.2.2,Win32,59.88023952,613ad089983f33fc8194d601,65d2b6c8f2eece985d8e374c,65d2b7c396fa611396bffafc,0.038,0.038,0,75,75,28,1,threeone,,,,,,,,,,,,,,,,,,,,,,,,,,,,,,,,,,,,,,,,,,,,,,,,,,,,,,,,,,,,,,,,,,,,,,,,,,,,,,,,,,,,,,,,,,,,,,,,,,,,,,,,,,,,,,,,,,,,,,,,,,,,,,,,,,,,,,,,,
,,613ad089983f33fc8194d601,2024-02-18_20h16.40.635,kallum_motion_pilot,2023.2.2,Win32,59.88023952,613ad089983f33fc8194d601,65d2b6c8f2eece985d8e374c,65d2b7c396fa611396bffafc,0.038,0.0381,0,76,76,154,1,sixfive,,,,,,,,,,,,,,,,,,,,,,,,,,,,,,,,,,,,,,,,,,,,,,,,,,,,,,,,,,,,,,,,,,,,,,,,,,,,,,,,,,,,,,,,,,,,,,,,,,,,,,,,,,,,,,,,,,,,,,,,,,,,,,,,,,,,,,,,,
,,613ad089983f33fc8194d601,2024-02-18_20h16.40.635,kallum_motion_pilot,2023.2.2,Win32,59.88023952,613ad089983f33fc8194d601,65d2b6c8f2eece985d8e374c,65d2b7c396fa611396bffafc,0.0382,0.0382,0,77,77,68,1,threeone,,,,,,,,,,,,,,,,,,,,,,,,,,,,,,,,,,,,,,,,,,,,,,,,,,,,,,,,,,,,,,,,,,,,,,,,,,,,,,,,,,,,,,,,,,,,,,,,,,,,,,,,,,,,,,,,,,,,,,,,,,,,,,,,,,,,,,,,,
,,613ad089983f33fc8194d601,2024-02-18_20h16.40.635,kallum_motion_pilot,2023.2.2,Win32,59.88023952,613ad089983f33fc8194d601,65d2b6c8f2eece985d8e374c,65d2b7c396fa611396bffafc,0.0384,0.0384,0,78,78,143,1,eightseven,,,,,,,,,,,,,,,,,,,,,,,,,,,,,,,,,,,,,,,,,,,,,,,,,,,,,,,,,,,,,,,,,,,,,,,,,,,,,,,,,,,,,,,,,,,,,,,,,,,,,,,,,,,,,,,,,,,,,,,,,,,,,,,,,,,,,,,,,
,,613ad089983f33fc8194d601,2024-02-18_20h16.40.635,kallum_motion_pilot,2023.2.2,Win32,59.88023952,613ad089983f33fc8194d601,65d2b6c8f2eece985d8e374c,65d2b7c396fa611396bffafc,0.0384,0.0385,0,79,79,112,1,fivesix,,,,,,,,,,,,,,,,,,,,,,,,,,,,,,,,,,,,,,,,,,,,,,,,,,,,,,,,,,,,,,,,,,,,,,,,,,,,,,,,,,,,,,,,,,,,,,,,,,,,,,,,,,,,,,,,,,,,,,,,,,,,,,,,,,,,,,,,,
,,613ad089983f33fc8194d601,2024-02-18_20h16.40.635,kallum_motion_pilot,2023.2.2,Win32,59.88023952,613ad089983f33fc8194d601,65d2b6c8f2eece985d8e374c,65d2b7c396fa611396bffafc,0.0387,0.0387,0,80,80,30,1,fourtwo,,,,,,,,,,,,,,,,,,,,,,,,,,,,,,,,,,,,,,,,,,,,,,,,,,,,,,,,,,,,,,,,,,,,,,,,,,,,,,,,,,,,,,,,,,,,,,,,,,,,,,,,,,,,,,,,,,,,,,,,,,,,,,,,,,,,,,,,,
,,613ad089983f33fc8194d601,2024-02-18_20h16.40.635,kallum_motion_pilot,2023.2.2,Win32,59.88023952,613ad089983f33fc8194d601,65d2b6c8f2eece985d8e374c,65d2b7c396fa611396bffafc,0.0388,0.0388,0,81,81,141,1,seveneight,,,,,,,,,,,,,,,,,,,,,,,,,,,,,,,,,,,,,,,,,,,,,,,,,,,,,,,,,,,,,,,,,,,,,,,,,,,,,,,,,,,,,,,,,,,,,,,,,,,,,,,,,,,,,,,,,,,,,,,,,,,,,,,,,,,,,,,,,
,,613ad089983f33fc8194d601,2024-02-18_20h16.40.635,kallum_motion_pilot,2023.2.2,Win32,59.88023952,613ad089983f33fc8194d601,65d2b6c8f2eece985d8e374c,65d2b7c396fa611396bffafc,0.0389,0.039,0,82,82,11,1,twofour,,,,,,,,,,,,,,,,,,,,,,,,,,,,,,,,,,,,,,,,,,,,,,,,,,,,,,,,,,,,,,,,,,,,,,,,,,,,,,,,,,,,,,,,,,,,,,,,,,,,,,,,,,,,,,,,,,,,,,,,,,,,,,,,,,,,,,,,,
,,613ad089983f33fc8194d601,2024-02-18_20h16.40.635,kallum_motion_pilot,2023.2.2,Win32,59.88023952,613ad089983f33fc8194d601,65d2b6c8f2eece985d8e374c,65d2b7c396fa611396bffafc,0.0391,0.0391,0,83,83,3,1,twofour,,,,,,,,,,,,,,,,,,,,,,,,,,,,,,,,,,,,,,,,,,,,,,,,,,,,,,,,,,,,,,,,,,,,,,,,,,,,,,,,,,,,,,,,,,,,,,,,,,,,,,,,,,,,,,,,,,,,,,,,,,,,,,,,,,,,,,,,,
,,613ad089983f33fc8194d601,2024-02-18_20h16.40.635,kallum_motion_pilot,2023.2.2,Win32,59.88023952,613ad089983f33fc8194d601,65d2b6c8f2eece985d8e374c,65d2b7c396fa611396bffafc,0.0392,0.0392,0,84,84,138,1,sixfive,,,,,,,,,,,,,,,,,,,,,,,,,,,,,,,,,,,,,,,,,,,,,,,,,,,,,,,,,,,,,,,,,,,,,,,,,,,,,,,,,,,,,,,,,,,,,,,,,,,,,,,,,,,,,,,,,,,,,,,,,,,,,,,,,,,,,,,,,
,,613ad089983f33fc8194d601,2024-02-18_20h16.40.635,kallum_motion_pilot,2023.2.2,Win32,59.88023952,613ad089983f33fc8194d601,65d2b6c8f2eece985d8e374c,65d2b7c396fa611396bffafc,0.0393,0.0394,0,85,85,114,1,sixfive,,,,,,,,,,,,,,,,,,,,,,,,,,,,,,,,,,,,,,,,,,,,,,,,,,,,,,,,,,,,,,,,,,,,,,,,,,,,,,,,,,,,,,,,,,,,,,,,,,,,,,,,,,,,,,,,,,,,,,,,,,,,,,,,,,,,,,,,,
,,613ad089983f33fc8194d601,2024-02-18_20h16.40.635,kallum_motion_pilot,2023.2.2,Win32,59.88023952,613ad089983f33fc8194d601,65d2b6c8f2eece985d8e374c,65d2b7c396fa611396bffafc,0.0395,0.0395,0,86,86,10,1,twoone,,,,,,,,,,,,,,,,,,,,,,,,,,,,,,,,,,,,,,,,,,,,,,,,,,,,,,,,,,,,,,,,,,,,,,,,,,,,,,,,,,,,,,,,,,,,,,,,,,,,,,,,,,,,,,,,,,,,,,,,,,,,,,,,,,,,,,,,,
,,613ad089983f33fc8194d601,2024-02-18_20h16.40.635,kallum_motion_pilot,2023.2.2,Win32,59.88023952,613ad089983f33fc8194d601,65d2b6c8f2eece985d8e374c,65d2b7c396fa611396bffafc,0.0396,0.0397,0,87,87,95,1,eightseven,,,,,,,,,,,,,,,,,,,,,,,,,,,,,,,,,,,,,,,,,,,,,,,,,,,,,,,,,,,,,,,,,,,,,,,,,,,,,,,,,,,,,,,,,,,,,,,,,,,,,,,,,,,,,,,,,,,,,,,,,,,,,,,,,,,,,,,,,
,,613ad089983f33fc8194d601,2024-02-18_20h16.40.635,kallum_motion_pilot,2023.2.2,Win32,59.88023952,613ad089983f33fc8194d601,65d2b6c8f2eece985d8e374c,65d2b7c396fa611396bffafc,0.0398,0.0398,0,88,88,131,1,sixeight,,,,,,,,,,,,,,,,,,,,,,,,,,,,,,,,,,,,,,,,,,,,,,,,,,,,,,,,,,,,,,,,,,,,,,,,,,,,,,,,,,,,,,,,,,,,,,,,,,,,,,,,,,,,,,,,,,,,,,,,,,,,,,,,,,,,,,,,,
,,613ad089983f33fc8194d601,2024-02-18_20h16.40.635,kallum_motion_pilot,2023.2.2,Win32,59.88023952,613ad089983f33fc8194d601,65d2b6c8f2eece985d8e374c,65d2b7c396fa611396bffafc,0.0399,0.0399,0,89,89,102,1,eightsix,,,,,,,,,,,,,,,,,,,,,,,,,,,,,,,,,,,,,,,,,,,,,,,,,,,,,,,,,,,,,,,,,,,,,,,,,,,,,,,,,,,,,,,,,,,,,,,,,,,,,,,,,,,,,,,,,,,,,,,,,,,,,,,,,,,,,,,,,
,,613ad089983f33fc8194d601,2024-02-18_20h16.40.635,kallum_motion_pilot,2023.2.2,Win32,59.88023952,613ad089983f33fc8194d601,65d2b6c8f2eece985d8e374c,65d2b7c396fa611396bffafc,0.0401,0.0405,0,90,90,46,1,fourtwo,,,,,,,,,,,,,,,,,,,,,,,,,,,,,,,,,,,,,,,,,,,,,,,,,,,,,,,,,,,,,,,,,,,,,,,,,,,,,,,,,,,,,,,,,,,,,,,,,,,,,,,,,,,,,,,,,,,,,,,,,,,,,,,,,,,,,,,,,
,,613ad089983f33fc8194d601,2024-02-18_20h16.40.635,kallum_motion_pilot,2023.2.2,Win32,59.88023952,613ad089983f33fc8194d601,65d2b6c8f2eece985d8e374c,65d2b7c396fa611396bffafc,0.0409,0.041,0,91,91,87,1,eightseven,,,,,,,,,,,,,,,,,,,,,,,,,,,,,,,,,,,,,,,,,,,,,,,,,,,,,,,,,,,,,,,,,,,,,,,,,,,,,,,,,,,,,,,,,,,,,,,,,,,,,,,,,,,,,,,,,,,,,,,,,,,,,,,,,,,,,,,,,
,,613ad089983f33fc8194d601,2024-02-18_20h16.40.635,kallum_motion_pilot,2023.2.2,Win32,59.88023952,613ad089983f33fc8194d601,65d2b6c8f2eece985d8e374c,65d2b7c396fa611396bffafc,0.0411,0.0411,0,92,92,35,1,twofour,,,,,,,,,,,,,,,,,,,,,,,,,,,,,,,,,,,,,,,,,,,,,,,,,,,,,,,,,,,,,,,,,,,,,,,,,,,,,,,,,,,,,,,,,,,,,,,,,,,,,,,,,,,,,,,,,,,,,,,,,,,,,,,,,,,,,,,,,
,,613ad089983f33fc8194d601,2024-02-18_20h16.40.635,kallum_motion_pilot,2023.2.2,Win32,59.88023952,613ad089983f33fc8194d601,65d2b6c8f2eece985d8e374c,65d2b7c396fa611396bffafc,0.0412,0.0413,0,93,93,61,1,threefour,,,,,,,,,,,,,,,,,,,,,,,,,,,,,,,,,,,,,,,,,,,,,,,,,,,,,,,,,,,,,,,,,,,,,,,,,,,,,,,,,,,,,,,,,,,,,,,,,,,,,,,,,,,,,,,,,,,,,,,,,,,,,,,,,,,,,,,,,
,,613ad089983f33fc8194d601,2024-02-18_20h16.40.635,kallum_motion_pilot,2023.2.2,Win32,59.88023952,613ad089983f33fc8194d601,65d2b6c8f2eece985d8e374c,65d2b7c396fa611396bffafc,0.0414,0.0414,0,94,94,97,1,fiveseven,,,,,,,,,,,,,,,,,,,,,,,,,,,,,,,,,,,,,,,,,,,,,,,,,,,,,,,,,,,,,,,,,,,,,,,,,,,,,,,,,,,,,,,,,,,,,,,,,,,,,,,,,,,,,,,,,,,,,,,,,,,,,,,,,,,,,,,,,
,,613ad089983f33fc8194d601,2024-02-18_20h16.40.635,kallum_motion_pilot,2023.2.2,Win32,59.88023952,613ad089983f33fc8194d601,65d2b6c8f2eece985d8e374c,65d2b7c396fa611396bffafc,0.0416,0.0416,0,95,95,52,1,threeone,,,,,,,,,,,,,,,,,,,,,,,,,,,,,,,,,,,,,,,,,,,,,,,,,,,,,,,,,,,,,,,,,,,,,,,,,,,,,,,,,,,,,,,,,,,,,,,,,,,,,,,,,,,,,,,,,,,,,,,,,,,,,,,,,,,,,,,,,
,,613ad089983f33fc8194d601,2024-02-18_20h16.40.635,kallum_motion_pilot,2023.2.2,Win32,59.88023952,613ad089983f33fc8194d601,65d2b6c8f2eece985d8e374c,65d2b7c396fa611396bffafc,0.0417,0.0418,0,96,96,60,1,threeone,,,,,,,,,,,,,,,,,,,,,,,,,,,,,,,,,,,,,,,,,,,,,,,,,,,,,,,,,,,,,,,,,,,,,,,,,,,,,,,,,,,,,,,,,,,,,,,,,,,,,,,,,,,,,,,,,,,,,,,,,,,,,,,,,,,,,,,,,
,,613ad089983f33fc8194d601,2024-02-18_20h16.40.635,kallum_motion_pilot,2023.2.2,Win32,59.88023952,613ad089983f33fc8194d601,65d2b6c8f2eece985d8e374c,65d2b7c396fa611396bffafc,0.0418,0.0419,0,97,97,39,1,fourthree,,,,,,,,,,,,,,,,,,,,,,,,,,,,,,,,,,,,,,,,,,,,,,,,,,,,,,,,,,,,,,,,,,,,,,,,,,,,,,,,,,,,,,,,,,,,,,,,,,,,,,,,,,,,,,,,,,,,,,,,,,,,,,,,,,,,,,,,,
,,613ad089983f33fc8194d601,2024-02-18_20h16.40.635,kallum_motion_pilot,2023.2.2,Win32,59.88023952,613ad089983f33fc8194d601,65d2b6c8f2eece985d8e374c,65d2b7c396fa611396bffafc,0.042,0.0421,0,98,98,65,1,onethree,,,,,,,,,,,,,,,,,,,,,,,,,,,,,,,,,,,,,,,,,,,,,,,,,,,,,,,,,,,,,,,,,,,,,,,,,,,,,,,,,,,,,,,,,,,,,,,,,,,,,,,,,,,,,,,,,,,,,,,,,,,,,,,,,,,,,,,,,
,,613ad089983f33fc8194d601,2024-02-18_20h16.40.635,kallum_motion_pilot,2023.2.2,Win32,59.88023952,613ad089983f33fc8194d601,65d2b6c8f2eece985d8e374c,65d2b7c396fa611396bffafc,0.0421,0.0421,0,99,99,26,1,twoone,,,,,,,,,,,,,,,,,,,,,,,,,,,,,,,,,,,,,,,,,,,,,,,,,,,,,,,,,,,,,,,,,,,,,,,,,,,,,,,,,,,,,,,,,,,,,,,,,,,,,,,,,,,,,,,,,,,,,,,,,,,,,,,,,,,,,,,,,
,,613ad089983f33fc8194d601,2024-02-18_20h16.40.635,kallum_motion_pilot,2023.2.2,Win32,59.88023952,613ad089983f33fc8194d601,65d2b6c8f2eece985d8e374c,65d2b7c396fa611396bffafc,0.0422,0.0422,0,100,100,122,1,sixfive,,,,,,,,,,,,,,,,,,,,,,,,,,,,,,,,,,,,,,,,,,,,,,,,,,,,,,,,,,,,,,,,,,,,,,,,,,,,,,,,,,,,,,,,,,,,,,,,,,,,,,,,,,,,,,,,,,,,,,,,,,,,,,,,,,,,,,,,,
,,613ad089983f33fc8194d601,2024-02-18_20h16.40.635,kallum_motion_pilot,2023.2.2,Win32,59.88023952,613ad089983f33fc8194d601,65d2b6c8f2eece985d8e374c,65d2b7c396fa611396bffafc,0.0424,0.0424,0,101,101,99,1,sixeight,,,,,,,,,,,,,,,,,,,,,,,,,,,,,,,,,,,,,,,,,,,,,,,,,,,,,,,,,,,,,,,,,,,,,,,,,,,,,,,,,,,,,,,,,,,,,,,,,,,,,,,,,,,,,,,,,,,,,,,,,,,,,,,,,,,,,,,,,
,,613ad089983f33fc8194d601,2024-02-18_20h16.40.635,kallum_motion_pilot,2023.2.2,Win32,59.88023952,613ad089983f33fc8194d601,65d2b6c8f2eece985d8e374c,65d2b7c396fa611396bffafc,0.0425,0.0425,0,102,102,90,1,sixfive,,,,,,,,,,,,,,,,,,,,,,,,,,,,,,,,,,,,,,,,,,,,,,,,,,,,,,,,,,,,,,,,,,,,,,,,,,,,,,,,,,,,,,,,,,,,,,,,,,,,,,,,,,,,,,,,,,,,,,,,,,,,,,,,,,,,,,,,,
,,613ad089983f33fc8194d601,2024-02-18_20h16.40.635,kallum_motion_pilot,2023.2.2,Win32,59.88023952,613ad089983f33fc8194d601,65d2b6c8f2eece985d8e374c,65d2b7c396fa611396bffafc,0.0426,0.0426,0,103,103,85,1,seveneight,,,,,,,,,,,,,,,,,,,,,,,,,,,,,,,,,,,,,,,,,,,,,,,,,,,,,,,,,,,,,,,,,,,,,,,,,,,,,,,,,,,,,,,,,,,,,,,,,,,,,,,,,,,,,,,,,,,,,,,,,,,,,,,,,,,,,,,,,
,,613ad089983f33fc8194d601,2024-02-18_20h16.40.635,kallum_motion_pilot,2023.2.2,Win32,59.88023952,613ad089983f33fc8194d601,65d2b6c8f2eece985d8e374c,65d2b7c396fa611396bffafc,0.0427,0.0427,0,104,104,145,1,fiveseven,,,,,,,,,,,,,,,,,,,,,,,,,,,,,,,,,,,,,,,,,,,,,,,,,,,,,,,,,,,,,,,,,,,,,,,,,,,,,,,,,,,,,,,,,,,,,,,,,,,,,,,,,,,,,,,,,,,,,,,,,,,,,,,,,,,,,,,,,
,,613ad089983f33fc8194d601,2024-02-18_20h16.40.635,kallum_motion_pilot,2023.2.2,Win32,59.88023952,613ad089983f33fc8194d601,65d2b6c8f2eece985d8e374c,65d2b7c396fa611396bffafc,0.0428,0.0428,0,105,105,74,1,twoone,,,,,,,,,,,,,,,,,,,,,,,,,,,,,,,,,,,,,,,,,,,,,,,,,,,,,,,,,,,,,,,,,,,,,,,,,,,,,,,,,,,,,,,,,,,,,,,,,,,,,,,,,,,,,,,,,,,,,,,,,,,,,,,,,,,,,,,,,
,,613ad089983f33fc8194d601,2024-02-18_20h16.40.635,kallum_motion_pilot,2023.2.2,Win32,59.88023952,613ad089983f33fc8194d601,65d2b6c8f2eece985d8e374c,65d2b7c396fa611396bffafc,0.0429,0.043,0,106,106,12,1,threeone,,,,,,,,,,,,,,,,,,,,,,,,,,,,,,,,,,,,,,,,,,,,,,,,,,,,,,,,,,,,,,,,,,,,,,,,,,,,,,,,,,,,,,,,,,,,,,,,,,,,,,,,,,,,,,,,,,,,,,,,,,,,,,,,,,,,,,,,,
,,613ad089983f33fc8194d601,2024-02-18_20h16.40.635,kallum_motion_pilot,2023.2.2,Win32,59.88023952,613ad089983f33fc8194d601,65d2b6c8f2eece985d8e374c,65d2b7c396fa611396bffafc,0.0431,0.0431,0,107,107,123,1,sixeight,,,,,,,,,,,,,,,,,,,,,,,,,,,,,,,,,,,,,,,,,,,,,,,,,,,,,,,,,,,,,,,,,,,,,,,,,,,,,,,,,,,,,,,,,,,,,,,,,,,,,,,,,,,,,,,,,,,,,,,,,,,,,,,,,,,,,,,,,
,,613ad089983f33fc8194d601,2024-02-18_20h16.40.635,kallum_motion_pilot,2023.2.2,Win32,59.88023952,613ad089983f33fc8194d601,65d2b6c8f2eece985d8e374c,65d2b7c396fa611396bffafc,0.0432,0.0433,0,108,108,8,1,onetwo,,,,,,,,,,,,,,,,,,,,,,,,,,,,,,,,,,,,,,,,,,,,,,,,,,,,,,,,,,,,,,,,,,,,,,,,,,,,,,,,,,,,,,,,,,,,,,,,,,,,,,,,,,,,,,,,,,,,,,,,,,,,,,,,,,,,,,,,,
,,613ad089983f33fc8194d601,2024-02-18_20h16.40.635,kallum_motion_pilot,2023.2.2,Win32,59.88023952,613ad089983f33fc8194d601,65d2b6c8f2eece985d8e374c,65d2b7c396fa611396bffafc,0.0433,0.0434,0,109,109,92,1,sevenfive,,,,,,,,,,,,,,,,,,,,,,,,,,,,,,,,,,,,,,,,,,,,,,,,,,,,,,,,,,,,,,,,,,,,,,,,,,,,,,,,,,,,,,,,,,,,,,,,,,,,,,,,,,,,,,,,,,,,,,,,,,,,,,,,,,,,,,,,,
,,613ad089983f33fc8194d601,2024-02-18_20h16.40.635,kallum_motion_pilot,2023.2.2,Win32,59.88023952,613ad089983f33fc8194d601,65d2b6c8f2eece985d8e374c,65d2b7c396fa611396bffafc,0.0434,0.0435,0,110,110,57,1,onethree,,,,,,,,,,,,,,,,,,,,,,,,,,,,,,,,,,,,,,,,,,,,,,,,,,,,,,,,,,,,,,,,,,,,,,,,,,,,,,,,,,,,,,,,,,,,,,,,,,,,,,,,,,,,,,,,,,,,,,,,,,,,,,,,,,,,,,,,,
,,613ad089983f33fc8194d601,2024-02-18_20h16.40.635,kallum_motion_pilot,2023.2.2,Win32,59.88023952,613ad089983f33fc8194d601,65d2b6c8f2eece985d8e374c,65d2b7c396fa611396bffafc,0.0436,0.0436,0,111,111,88,1,fivesix,,,,,,,,,,,,,,,,,,,,,,,,,,,,,,,,,,,,,,,,,,,,,,,,,,,,,,,,,,,,,,,,,,,,,,,,,,,,,,,,,,,,,,,,,,,,,,,,,,,,,,,,,,,,,,,,,,,,,,,,,,,,,,,,,,,,,,,,,
,,613ad089983f33fc8194d601,2024-02-18_20h16.40.635,kallum_motion_pilot,2023.2.2,Win32,59.88023952,613ad089983f33fc8194d601,65d2b6c8f2eece985d8e374c,65d2b7c396fa611396bffafc,0.0437,0.0438,0,112,112,94,1,eightsix,,,,,,,,,,,,,,,,,,,,,,,,,,,,,,,,,,,,,,,,,,,,,,,,,,,,,,,,,,,,,,,,,,,,,,,,,,,,,,,,,,,,,,,,,,,,,,,,,,,,,,,,,,,,,,,,,,,,,,,,,,,,,,,,,,,,,,,,,
,,613ad089983f33fc8194d601,2024-02-18_20h16.40.635,kallum_motion_pilot,2023.2.2,Win32,59.88023952,613ad089983f33fc8194d601,65d2b6c8f2eece985d8e374c,65d2b7c396fa611396bffafc,0.0439,0.0439,0,113,113,23,1,fourthree,,,,,,,,,,,,,,,,,,,,,,,,,,,,,,,,,,,,,,,,,,,,,,,,,,,,,,,,,,,,,,,,,,,,,,,,,,,,,,,,,,,,,,,,,,,,,,,,,,,,,,,,,,,,,,,,,,,,,,,,,,,,,,,,,,,,,,,,,
,,613ad089983f33fc8194d601,2024-02-18_20h16.40.635,kallum_motion_pilot,2023.2.2,Win32,59.88023952,613ad089983f33fc8194d601,65d2b6c8f2eece985d8e374c,65d2b7c396fa611396bffafc,0.044,0.044,0,114,114,104,1,fivesix,,,,,,,,,,,,,,,,,,,,,,,,,,,,,,,,,,,,,,,,,,,,,,,,,,,,,,,,,,,,,,,,,,,,,,,,,,,,,,,,,,,,,,,,,,,,,,,,,,,,,,,,,,,,,,,,,,,,,,,,,,,,,,,,,,,,,,,,,
,,613ad089983f33fc8194d601,2024-02-18_20h16.40.635,kallum_motion_pilot,2023.2.2,Win32,59.88023952,613ad089983f33fc8194d601,65d2b6c8f2eece985d8e374c,65d2b7c396fa611396bffafc,0.0442,0.0442,0,115,115,83,1,sixeight,,,,,,,,,,,,,,,,,,,,,,,,,,,,,,,,,,,,,,,,,,,,,,,,,,,,,,,,,,,,,,,,,,,,,,,,,,,,,,,,,,,,,,,,,,,,,,,,,,,,,,,,,,,,,,,,,,,,,,,,,,,,,,,,,,,,,,,,,
,,613ad089983f33fc8194d601,2024-02-18_20h16.40.635,kallum_motion_pilot,2023.2.2,Win32,59.88023952,613ad089983f33fc8194d601,65d2b6c8f2eece985d8e374c,65d2b7c396fa611396bffafc,0.0444,0.0444,0,116,116,75,1,twofour,,,,,,,,,,,,,,,,,,,,,,,,,,,,,,,,,,,,,,,,,,,,,,,,,,,,,,,,,,,,,,,,,,,,,,,,,,,,,,,,,,,,,,,,,,,,,,,,,,,,,,,,,,,,,,,,,,,,,,,,,,,,,,,,,,,,,,,,,
,,613ad089983f33fc8194d601,2024-02-18_20h16.40.635,kallum_motion_pilot,2023.2.2,Win32,59.88023952,613ad089983f33fc8194d601,65d2b6c8f2eece985d8e374c,65d2b7c396fa611396bffafc,0.0445,0.0445,0,117,117,4,1,threeone,,,,,,,,,,,,,,,,,,,,,,,,,,,,,,,,,,,,,,,,,,,,,,,,,,,,,,,,,,,,,,,,,,,,,,,,,,,,,,,,,,,,,,,,,,,,,,,,,,,,,,,,,,,,,,,,,,,,,,,,,,,,,,,,,,,,,,,,,
,,613ad089983f33fc8194d601,2024-02-18_20h16.40.635,kallum_motion_pilot,2023.2.2,Win32,59.88023952,613ad089983f33fc8194d601,65d2b6c8f2eece985d8e374c,65d2b7c396fa611396bffafc,0.0446,0.0447,0,118,118,48,1,onetwo,,,,,,,,,,,,,,,,,,,,,,,,,,,,,,,,,,,,,,,,,,,,,,,,,,,,,,,,,,,,,,,,,,,,,,,,,,,,,,,,,,,,,,,,,,,,,,,,,,,,,,,,,,,,,,,,,,,,,,,,,,,,,,,,,,,,,,,,,
,,613ad089983f33fc8194d601,2024-02-18_20h16.40.635,kallum_motion_pilot,2023.2.2,Win32,59.88023952,613ad089983f33fc8194d601,65d2b6c8f2eece985d8e374c,65d2b7c396fa611396bffafc,0.0449,0.0449,0,119,119,49,1,onethree,,,,,,,,,,,,,,,,,,,,,,,,,,,,,,,,,,,,,,,,,,,,,,,,,,,,,,,,,,,,,,,,,,,,,,,,,,,,,,,,,,,,,,,,,,,,,,,,,,,,,,,,,,,,,,,,,,,,,,,,,,,,,,,,,,,,,,,,,
,,613ad089983f33fc8194d601,2024-02-18_20h16.40.635,kallum_motion_pilot,2023.2.2,Win32,59.88023952,613ad089983f33fc8194d601,65d2b6c8f2eece985d8e374c,65d2b7c396fa611396bffafc,0.045,0.045,0,120,120,116,1,sevenfive,,,,,,,,,,,,,,,,,,,,,,,,,,,,,,,,,,,,,,,,,,,,,,,,,,,,,,,,,,,,,,,,,,,,,,,,,,,,,,,,,,,,,,,,,,,,,,,,,,,,,,,,,,,,,,,,,,,,,,,,,,,,,,,,,,,,,,,,,
,,613ad089983f33fc8194d601,2024-02-18_20h16.40.635,kallum_motion_pilot,2023.2.2,Win32,59.88023952,613ad089983f33fc8194d601,65d2b6c8f2eece985d8e374c,65d2b7c396fa611396bffafc,0.0451,0.0451,0,121,121,64,1,onetwo,,,,,,,,,,,,,,,,,,,,,,,,,,,,,,,,,,,,,,,,,,,,,,,,,,,,,,,,,,,,,,,,,,,,,,,,,,,,,,,,,,,,,,,,,,,,,,,,,,,,,,,,,,,,,,,,,,,,,,,,,,,,,,,,,,,,,,,,,
,,613ad089983f33fc8194d601,2024-02-18_20h16.40.635,kallum_motion_pilot,2023.2.2,Win32,59.88023952,613ad089983f33fc8194d601,65d2b6c8f2eece985d8e374c,65d2b7c396fa611396bffafc,0.0452,0.0452,0,122,122,121,1,fiveseven,,,,,,,,,,,,,,,,,,,,,,,,,,,,,,,,,,,,,,,,,,,,,,,,,,,,,,,,,,,,,,,,,,,,,,,,,,,,,,,,,,,,,,,,,,,,,,,,,,,,,,,,,,,,,,,,,,,,,,,,,,,,,,,,,,,,,,,,,
,,613ad089983f33fc8194d601,2024-02-18_20h16.40.635,kallum_motion_pilot,2023.2.2,Win32,59.88023952,613ad089983f33fc8194d601,65d2b6c8f2eece985d8e374c,65d2b7c396fa611396bffafc,0.0453,0.0453,0,123,123,62,1,fourtwo,,,,,,,,,,,,,,,,,,,,,,,,,,,,,,,,,,,,,,,,,,,,,,,,,,,,,,,,,,,,,,,,,,,,,,,,,,,,,,,,,,,,,,,,,,,,,,,,,,,,,,,,,,,,,,,,,,,,,,,,,,,,,,,,,,,,,,,,,
,,613ad089983f33fc8194d601,2024-02-18_20h16.40.635,kallum_motion_pilot,2023.2.2,Win32,59.88023952,613ad089983f33fc8194d601,65d2b6c8f2eece985d8e374c,65d2b7c396fa611396bffafc,0.0454,0.0454,0,124,124,149,1,seveneight,,,,,,,,,,,,,,,,,,,,,,,,,,,,,,,,,,,,,,,,,,,,,,,,,,,,,,,,,,,,,,,,,,,,,,,,,,,,,,,,,,,,,,,,,,,,,,,,,,,,,,,,,,,,,,,,,,,,,,,,,,,,,,,,,,,,,,,,,
,,613ad089983f33fc8194d601,2024-02-18_20h16.40.635,kallum_motion_pilot,2023.2.2,Win32,59.88023952,613ad089983f33fc8194d601,65d2b6c8f2eece985d8e374c,65d2b7c396fa611396bffafc,0.0456,0.0456,0,125,125,41,1,onethree,,,,,,,,,,,,,,,,,,,,,,,,,,,,,,,,,,,,,,,,,,,,,,,,,,,,,,,,,,,,,,,,,,,,,,,,,,,,,,,,,,,,,,,,,,,,,,,,,,,,,,,,,,,,,,,,,,,,,,,,,,,,,,,,,,,,,,,,,
,,613ad089983f33fc8194d601,2024-02-18_20h16.40.635,kallum_motion_pilot,2023.2.2,Win32,59.88023952,613ad089983f33fc8194d601,65d2b6c8f2eece985d8e374c,65d2b7c396fa611396bffafc,0.0457,0.0457,0,126,126,50,1,twoone,,,,,,,,,,,,,,,,,,,,,,,,,,,,,,,,,,,,,,,,,,,,,,,,,,,,,,,,,,,,,,,,,,,,,,,,,,,,,,,,,,,,,,,,,,,,,,,,,,,,,,,,,,,,,,,,,,,,,,,,,,,,,,,,,,,,,,,,,
,,613ad089983f33fc8194d601,2024-02-18_20h16.40.635,kallum_motion_pilot,2023.2.2,Win32,59.88023952,613ad089983f33fc8194d601,65d2b6c8f2eece985d8e374c,65d2b7c396fa611396bffafc,0.0458,0.0458,0,127,127,128,1,fivesix,,,,,,,,,,,,,,,,,,,,,,,,,,,,,,,,,,,,,,,,,,,,,,,,,,,,,,,,,,,,,,,,,,,,,,,,,,,,,,,,,,,,,,,,,,,,,,,,,,,,,,,,,,,,,,,,,,,,,,,,,,,,,,,,,,,,,,,,,
,,613ad089983f33fc8194d601,2024-02-18_20h16.40.635,kallum_motion_pilot,2023.2.2,Win32,59.88023952,613ad089983f33fc8194d601,65d2b6c8f2eece985d8e374c,65d2b7c396fa611396bffafc,0.0459,0.046,0,128,128,22,1,fourtwo,,,,,,,,,,,,,,,,,,,,,,,,,,,,,,,,,,,,,,,,,,,,,,,,,,,,,,,,,,,,,,,,,,,,,,,,,,,,,,,,,,,,,,,,,,,,,,,,,,,,,,,,,,,,,,,,,,,,,,,,,,,,,,,,,,,,,,,,,
,,613ad089983f33fc8194d601,2024-02-18_20h16.40.635,kallum_motion_pilot,2023.2.2,Win32,59.88023952,613ad089983f33fc8194d601,65d2b6c8f2eece985d8e374c,65d2b7c396fa611396bffafc,0.0461,0.0461,0,129,129,31,1,fourthree,,,,,,,,,,,,,,,,,,,,,,,,,,,,,,,,,,,,,,,,,,,,,,,,,,,,,,,,,,,,,,,,,,,,,,,,,,,,,,,,,,,,,,,,,,,,,,,,,,,,,,,,,,,,,,,,,,,,,,,,,,,,,,,,,,,,,,,,,
,,613ad089983f33fc8194d601,2024-02-18_20h16.40.635,kallum_motion_pilot,2023.2.2,Win32,59.88023952,613ad089983f33fc8194d601,65d2b6c8f2eece985d8e374c,65d2b7c396fa611396bffafc,0.0461,0.0462,0,130,130,134,1,eightsix,,,,,,,,,,,,,,,,,,,,,,,,,,,,,,,,,,,,,,,,,,,,,,,,,,,,,,,,,,,,,,,,,,,,,,,,,,,,,,,,,,,,,,,,,,,,,,,,,,,,,,,,,,,,,,,,,,,,,,,,,,,,,,,,,,,,,,,,,
,,613ad089983f33fc8194d601,2024-02-18_20h16.40.635,kallum_motion_pilot,2023.2.2,Win32,59.88023952,613ad089983f33fc8194d601,65d2b6c8f2eece985d8e374c,65d2b7c396fa611396bffafc,0.0463,0.0464,0,131,131,15,1,fourthree,,,,,,,,,,,,,,,,,,,,,,,,,,,,,,,,,,,,,,,,,,,,,,,,,,,,,,,,,,,,,,,,,,,,,,,,,,,,,,,,,,,,,,,,,,,,,,,,,,,,,,,,,,,,,,,,,,,,,,,,,,,,,,,,,,,,,,,,,
,,613ad089983f33fc8194d601,2024-02-18_20h16.40.635,kallum_motion_pilot,2023.2.2,Win32,59.88023952,613ad089983f33fc8194d601,65d2b6c8f2eece985d8e374c,65d2b7c396fa611396bffafc,0.0464,0.0465,0,132,132,109,1,seveneight,,,,,,,,,,,,,,,,,,,,,,,,,,,,,,,,,,,,,,,,,,,,,,,,,,,,,,,,,,,,,,,,,,,,,,,,,,,,,,,,,,,,,,,,,,,,,,,,,,,,,,,,,,,,,,,,,,,,,,,,,,,,,,,,,,,,,,,,,
,,613ad089983f33fc8194d601,2024-02-18_20h16.40.635,kallum_motion_pilot,2023.2.2,Win32,59.88023952,613ad089983f33fc8194d601,65d2b6c8f2eece985d8e374c,65d2b7c396fa611396bffafc,0.0466,0.0466,0,133,133,42,1,twoone,,,,,,,,,,,,,,,,,,,,,,,,,,,,,,,,,,,,,,,,,,,,,,,,,,,,,,,,,,,,,,,,,,,,,,,,,,,,,,,,,,,,,,,,,,,,,,,,,,,,,,,,,,,,,,,,,,,,,,,,,,,,,,,,,,,,,,,,,
,,613ad089983f33fc8194d601,2024-02-18_20h16.40.635,kallum_motion_pilot,2023.2.2,Win32,59.88023952,613ad089983f33fc8194d601,65d2b6c8f2eece985d8e374c,65d2b7c396fa611396bffafc,0.0466,0.0467,0,134,134,124,1,sevenfive,,,,,,,,,,,,,,,,,,,,,,,,,,,,,,,,,,,,,,,,,,,,,,,,,,,,,,,,,,,,,,,,,,,,,,,,,,,,,,,,,,,,,,,,,,,,,,,,,,,,,,,,,,,,,,,,,,,,,,,,,,,,,,,,,,,,,,,,,
,,613ad089983f33fc8194d601,2024-02-18_20h16.40.635,kallum_motion_pilot,2023.2.2,Win32,59.88023952,613ad089983f33fc8194d601,65d2b6c8f2eece985d8e374c,65d2b7c396fa611396bffafc,0.0467,0.0468,0,135,135,84,1,sevenfive,,,,,,,,,,,,,,,,,,,,,,,,,,,,,,,,,,,,,,,,,,,,,,,,,,,,,,,,,,,,,,,,,,,,,,,,,,,,,,,,,,,,,,,,,,,,,,,,,,,,,,,,,,,,,,,,,,,,,,,,,,,,,,,,,,,,,,,,,
,,613ad089983f33fc8194d601,2024-02-18_20h16.40.635,kallum_motion_pilot,2023.2.2,Win32,59.88023952,613ad089983f33fc8194d601,65d2b6c8f2eece985d8e374c,65d2b7c396fa611396bffafc,0.0483,0.0484,0,136,136,159,1,eightseven,,,,,,,,,,,,,,,,,,,,,,,,,,,,,,,,,,,,,,,,,,,,,,,,,,,,,,,,,,,,,,,,,,,,,,,,,,,,,,,,,,,,,,,,,,,,,,,,,,,,,,,,,,,,,,,,,,,,,,,,,,,,,,,,,,,,,,,,,
,,613ad089983f33fc8194d601,2024-02-18_20h16.40.635,kallum_motion_pilot,2023.2.2,Win32,59.88023952,613ad089983f33fc8194d601,65d2b6c8f2eece985d8e374c,65d2b7c396fa611396bffafc,0.0485,0.0485,0,137,137,24,1,onetwo,,,,,,,,,,,,,,,,,,,,,,,,,,,,,,,,,,,,,,,,,,,,,,,,,,,,,,,,,,,,,,,,,,,,,,,,,,,,,,,,,,,,,,,,,,,,,,,,,,,,,,,,,,,,,,,,,,,,,,,,,,,,,,,,,,,,,,,,,
,,613ad089983f33fc8194d601,2024-02-18_20h16.40.635,kallum_motion_pilot,2023.2.2,Win32,59.88023952,613ad089983f33fc8194d601,65d2b6c8f2eece985d8e374c,65d2b7c396fa611396bffafc,0.0486,0.0486,0,138,138,119,1,eightseven,,,,,,,,,,,,,,,,,,,,,,,,,,,,,,,,,,,,,,,,,,,,,,,,,,,,,,,,,,,,,,,,,,,,,,,,,,,,,,,,,,,,,,,,,,,,,,,,,,,,,,,,,,,,,,,,,,,,,,,,,,,,,,,,,,,,,,,,,
,,613ad089983f33fc8194d601,2024-02-18_20h16.40.635,kallum_motion_pilot,2023.2.2,Win32,59.88023952,613ad089983f33fc8194d601,65d2b6c8f2eece985d8e374c,65d2b7c396fa611396bffafc,0.0489,0.0489,0,139,139,96,1,fivesix,,,,,,,,,,,,,,,,,,,,,,,,,,,,,,,,,,,,,,,,,,,,,,,,,,,,,,,,,,,,,,,,,,,,,,,,,,,,,,,,,,,,,,,,,,,,,,,,,,,,,,,,,,,,,,,,,,,,,,,,,,,,,,,,,,,,,,,,,
,,613ad089983f33fc8194d601,2024-02-18_20h16.40.635,kallum_motion_pilot,2023.2.2,Win32,59.88023952,613ad089983f33fc8194d601,65d2b6c8f2eece985d8e374c,65d2b7c396fa611396bffafc,0.049,0.0491,0,140,140,37,1,threefour,,,,,,,,,,,,,,,,,,,,,,,,,,,,,,,,,,,,,,,,,,,,,,,,,,,,,,,,,,,,,,,,,,,,,,,,,,,,,,,,,,,,,,,,,,,,,,,,,,,,,,,,,,,,,,,,,,,,,,,,,,,,,,,,,,,,,,,,,
,,613ad089983f33fc8194d601,2024-02-18_20h16.40.635,kallum_motion_pilot,2023.2.2,Win32,59.88023952,613ad089983f33fc8194d601,65d2b6c8f2eece985d8e374c,65d2b7c396fa611396bffafc,0.0491,0.0491,0,141,141,66,1,twoone,,,,,,,,,,,,,,,,,,,,,,,,,,,,,,,,,,,,,,,,,,,,,,,,,,,,,,,,,,,,,,,,,,,,,,,,,,,,,,,,,,,,,,,,,,,,,,,,,,,,,,,,,,,,,,,,,,,,,,,,,,,,,,,,,,,,,,,,,
,,613ad089983f33fc8194d601,2024-02-18_20h16.40.635,kallum_motion_pilot,2023.2.2,Win32,59.88023952,613ad089983f33fc8194d601,65d2b6c8f2eece985d8e374c,65d2b7c396fa611396bffafc,0.0493,0.0493,0,142,142,81,1,fiveseven,,,,,,,,,,,,,,,,,,,,,,,,,,,,,,,,,,,,,,,,,,,,,,,,,,,,,,,,,,,,,,,,,,,,,,,,,,,,,,,,,,,,,,,,,,,,,,,,,,,,,,,,,,,,,,,,,,,,,,,,,,,,,,,,,,,,,,,,,
,,613ad089983f33fc8194d601,2024-02-18_20h16.40.635,kallum_motion_pilot,2023.2.2,Win32,59.88023952,613ad089983f33fc8194d601,65d2b6c8f2eece985d8e374c,65d2b7c396fa611396bffafc,0.0494,0.0495,0,143,143,126,1,eightsix,,,,,,,,,,,,,,,,,,,,,,,,,,,,,,,,,,,,,,,,,,,,,,,,,,,,,,,,,,,,,,,,,,,,,,,,,,,,,,,,,,,,,,,,,,,,,,,,,,,,,,,,,,,,,,,,,,,,,,,,,,,,,,,,,,,,,,,,,
,,613ad089983f33fc8194d601,2024-02-18_20h16.40.635,kallum_motion_pilot,2023.2.2,Win32,59.88023952,613ad089983f33fc8194d601,65d2b6c8f2eece985d8e374c,65d2b7c396fa611396bffafc,0.0496,0.0496,0,144,144,101,1,seveneight,,,,,,,,,,,,,,,,,,,,,,,,,,,,,,,,,,,,,,,,,,,,,,,,,,,,,,,,,,,,,,,,,,,,,,,,,,,,,,,,,,,,,,,,,,,,,,,,,,,,,,,,,,,,,,,,,,,,,,,,,,,,,,,,,,,,,,,,,
,,613ad089983f33fc8194d601,2024-02-18_20h16.40.635,kallum_motion_pilot,2023.2.2,Win32,59.88023952,613ad089983f33fc8194d601,65d2b6c8f2eece985d8e374c,65d2b7c396fa611396bffafc,0.0497,0.0498,0,145,145,150,1,eightsix,,,,,,,,,,,,,,,,,,,,,,,,,,,,,,,,,,,,,,,,,,,,,,,,,,,,,,,,,,,,,,,,,,,,,,,,,,,,,,,,,,,,,,,,,,,,,,,,,,,,,,,,,,,,,,,,,,,,,,,,,,,,,,,,,,,,,,,,,
,,613ad089983f33fc8194d601,2024-02-18_20h16.40.635,kallum_motion_pilot,2023.2.2,Win32,59.88023952,613ad089983f33fc8194d601,65d2b6c8f2eece985d8e374c,65d2b7c396fa611396bffafc,0.0499,0.05,0,146,146,103,1,eightseven,,,,,,,,,,,,,,,,,,,,,,,,,,,,,,,,,,,,,,,,,,,,,,,,,,,,,,,,,,,,,,,,,,,,,,,,,,,,,,,,,,,,,,,,,,,,,,,,,,,,,,,,,,,,,,,,,,,,,,,,,,,,,,,,,,,,,,,,,
,,613ad089983f33fc8194d601,2024-02-18_20h16.40.635,kallum_motion_pilot,2023.2.2,Win32,59.88023952,613ad089983f33fc8194d601,65d2b6c8f2eece985d8e374c,65d2b7c396fa611396bffafc,0.0501,0.0501,0,147,147,133,1,seveneight,,,,,,,,,,,,,,,,,,,,,,,,,,,,,,,,,,,,,,,,,,,,,,,,,,,,,,,,,,,,,,,,,,,,,,,,,,,,,,,,,,,,,,,,,,,,,,,,,,,,,,,,,,,,,,,,,,,,,,,,,,,,,,,,,,,,,,,,,
,,613ad089983f33fc8194d601,2024-02-18_20h16.40.635,kallum_motion_pilot,2023.2.2,Win32,59.88023952,613ad089983f33fc8194d601,65d2b6c8f2eece985d8e374c,65d2b7c396fa611396bffafc,0.0502,0.0503,0,148,148,107,1,sixeight,,,,,,,,,,,,,,,,,,,,,,,,,,,,,,,,,,,,,,,,,,,,,,,,,,,,,,,,,,,,,,,,,,,,,,,,,,,,,,,,,,,,,,,,,,,,,,,,,,,,,,,,,,,,,,,,,,,,,,,,,,,,,,,,,,,,,,,,,
,,613ad089983f33fc8194d601,2024-02-18_20h16.40.635,kallum_motion_pilot,2023.2.2,Win32,59.88023952,613ad089983f33fc8194d601,65d2b6c8f2eece985d8e374c,65d2b7c396fa611396bffafc,0.0503,0.0504,0,149,149,137,1,fiveseven,,,,,,,,,,,,,,,,,,,,,,,,,,,,,,,,,,,,,,,,,,,,,,,,,,,,,,,,,,,,,,,,,,,,,,,,,,,,,,,,,,,,,,,,,,,,,,,,,,,,,,,,,,,,,,,,,,,,,,,,,,,,,,,,,,,,,,,,,
,,613ad089983f33fc8194d601,2024-02-18_20h16.40.635,kallum_motion_pilot,2023.2.2,Win32,59.88023952,613ad089983f33fc8194d601,65d2b6c8f2eece985d8e374c,65d2b7c396fa611396bffafc,0.0505,0.0506,0,150,150,148,1,sevenfive,,,,,,,,,,,,,,,,,,,,,,,,,,,,,,,,,,,,,,,,,,,,,,,,,,,,,,,,,,,,,,,,,,,,,,,,,,,,,,,,,,,,,,,,,,,,,,,,,,,,,,,,,,,,,,,,,,,,,,,,,,,,,,,,,,,,,,,,,
,,613ad089983f33fc8194d601,2024-02-18_20h16.40.635,kallum_motion_pilot,2023.2.2,Win32,59.88023952,613ad089983f33fc8194d601,65d2b6c8f2eece985d8e374c,65d2b7c396fa611396bffafc,0.0507,0.0507,0,151,151,34,1,twoone,,,,,,,,,,,,,,,,,,,,,,,,,,,,,,,,,,,,,,,,,,,,,,,,,,,,,,,,,,,,,,,,,,,,,,,,,,,,,,,,,,,,,,,,,,,,,,,,,,,,,,,,,,,,,,,,,,,,,,,,,,,,,,,,,,,,,,,,,
,,613ad089983f33fc8194d601,2024-02-18_20h16.40.635,kallum_motion_pilot,2023.2.2,Win32,59.88023952,613ad089983f33fc8194d601,65d2b6c8f2eece985d8e374c,65d2b7c396fa611396bffafc,0.0508,0.0508,0,152,152,140,1,sevenfive,,,,,,,,,,,,,,,,,,,,,,,,,,,,,,,,,,,,,,,,,,,,,,,,,,,,,,,,,,,,,,,,,,,,,,,,,,,,,,,,,,,,,,,,,,,,,,,,,,,,,,,,,,,,,,,,,,,,,,,,,,,,,,,,,,,,,,,,,
,,613ad089983f33fc8194d601,2024-02-18_20h16.40.635,kallum_motion_pilot,2023.2.2,Win32,59.88023952,613ad089983f33fc8194d601,65d2b6c8f2eece985d8e374c,65d2b7c396fa611396bffafc,0.0509,0.051,0,153,153,108,1,sevenfive,,,,,,,,,,,,,,,,,,,,,,,,,,,,,,,,,,,,,,,,,,,,,,,,,,,,,,,,,,,,,,,,,,,,,,,,,,,,,,,,,,,,,,,,,,,,,,,,,,,,,,,,,,,,,,,,,,,,,,,,,,,,,,,,,,,,,,,,,
,,613ad089983f33fc8194d601,2024-02-18_20h16.40.635,kallum_motion_pilot,2023.2.2,Win32,59.88023952,613ad089983f33fc8194d601,65d2b6c8f2eece985d8e374c,65d2b7c396fa611396bffafc,0.0511,0.0512,0,154,154,139,1,sixeight,,,,,,,,,,,,,,,,,,,,,,,,,,,,,,,,,,,,,,,,,,,,,,,,,,,,,,,,,,,,,,,,,,,,,,,,,,,,,,,,,,,,,,,,,,,,,,,,,,,,,,,,,,,,,,,,,,,,,,,,,,,,,,,,,,,,,,,,,
,,613ad089983f33fc8194d601,2024-02-18_20h16.40.635,kallum_motion_pilot,2023.2.2,Win32,59.88023952,613ad089983f33fc8194d601,65d2b6c8f2eece985d8e374c,65d2b7c396fa611396bffafc,0.0513,0.0514,0,155,155,155,1,sixeight,,,,,,,,,,,,,,,,,,,,,,,,,,,,,,,,,,,,,,,,,,,,,,,,,,,,,,,,,,,,,,,,,,,,,,,,,,,,,,,,,,,,,,,,,,,,,,,,,,,,,,,,,,,,,,,,,,,,,,,,,,,,,,,,,,,,,,,,,
,,613ad089983f33fc8194d601,2024-02-18_20h16.40.635,kallum_motion_pilot,2023.2.2,Win32,59.88023952,613ad089983f33fc8194d601,65d2b6c8f2eece985d8e374c,65d2b7c396fa611396bffafc,0.0515,0.0516,0,156,156,32,1,onetwo,,,,,,,,,,,,,,,,,,,,,,,,,,,,,,,,,,,,,,,,,,,,,,,,,,,,,,,,,,,,,,,,,,,,,,,,,,,,,,,,,,,,,,,,,,,,,,,,,,,,,,,,,,,,,,,,,,,,,,,,,,,,,,,,,,,,,,,,,
,,613ad089983f33fc8194d601,2024-02-18_20h16.40.635,kallum_motion_pilot,2023.2.2,Win32,59.88023952,613ad089983f33fc8194d601,65d2b6c8f2eece985d8e374c,65d2b7c396fa611396bffafc,0.0516,0.0516,0,157,157,72,1,onetwo,,,,,,,,,,,,,,,,,,,,,,,,,,,,,,,,,,,,,,,,,,,,,,,,,,,,,,,,,,,,,,,,,,,,,,,,,,,,,,,,,,,,,,,,,,,,,,,,,,,,,,,,,,,,,,,,,,,,,,,,,,,,,,,,,,,,,,,,,
,,613ad089983f33fc8194d601,2024-02-18_20h16.40.635,kallum_motion_pilot,2023.2.2,Win32,59.88023952,613ad089983f33fc8194d601,65d2b6c8f2eece985d8e374c,65d2b7c396fa611396bffafc,0.0518,0.0519,0,158,158,86,1,eightsix,,,,,,,,,,,,,,,,,,,,,,,,,,,,,,,,,,,,,,,,,,,,,,,,,,,,,,,,,,,,,,,,,,,,,,,,,,,,,,,,,,,,,,,,,,,,,,,,,,,,,,,,,,,,,,,,,,,,,,,,,,,,,,,,,,,,,,,,,
,,613ad089983f33fc8194d601,2024-02-18_20h16.40.635,kallum_motion_pilot,2023.2.2,Win32,59.88023952,613ad089983f33fc8194d601,65d2b6c8f2eece985d8e374c,65d2b7c396fa611396bffafc,0.052,0.0521,0,159,159,13,1,threefour,,,,,,,,,,,,,,,,,,,,,,,,,,,,,,,,,,,,,,,,,,,,,,,,,,,,,,,,,,,,,,,,,,,,,,,,,,,,,,,,,,,,,,,,,,,,,,,,,,,,,,,,,,,,,,,,,,,,,,,,,,,,,,,,,,,,,,,,,
,,613ad089983f33fc8194d601,2024-02-18_20h16.40.635,kallum_motion_pilot,2023.2.2,Win32,59.88023952,613ad089983f33fc8194d601,65d2b6c8f2eece985d8e374c,65d2b7c396fa611396bffafc,0.0522,0.0524,0,160,160,89,1,fiveseven,,,,,,,,,,,,,,,,,,,,,,,,,,,,,,,,,,,,,,,,,,,,,,,,,,,,,,,,,,,,,,,,,,,,,,,,,,,,,,,,,,,,,,,,,,,,,,,,,,,,,,,,,,,,,,,,,,,,,,,,,,,,,,,,,,,,,,,,,
,,613ad089983f33fc8194d601,2024-02-18_20h16.40.635,kallum_motion_pilot,2023.2.2,Win32,59.88023952,613ad089983f33fc8194d601,65d2b6c8f2eece985d8e374c,65d2b7c396fa611396bffafc,0.0526,0.0527,0,161,161,110,1,eightsix,,,,,,,,,,,,,,,,,,,,,,,,,,,,,,,,,,,,,,,,,,,,,,,,,,,,,,,,,,,,,,,,,,,,,,,,,,,,,,,,,,,,,,,,,,,,,,,,,,,,,,,,,,,,,,,,,,,,,,,,,,,,,,,,,,,,,,,,,
,,613ad089983f33fc8194d601,2024-02-18_20h16.40.635,kallum_motion_pilot,2023.2.2,Win32,59.88023952,613ad089983f33fc8194d601,65d2b6c8f2eece985d8e374c,65d2b7c396fa611396bffafc,0.0528,0.0529,1,0,162,101,1,seveneight,,,,,,,,,,,,,,,,,,,,,,,,,,,,,,,,,,,,,,,,,,,,,,,,,,,,,,,,,,,,,,,,,,,,,,,,,,,,,,,,,,,,,,,,,,,,,,,,,,,,,,,,,,,,,,,,,,,,,,,,,,,,,,,,,,,,,,,,,
,,613ad089983f33fc8194d601,2024-02-18_20h16.40.635,kallum_motion_pilot,2023.2.2,Win32,59.88023952,613ad089983f33fc8194d601,65d2b6c8f2eece985d8e374c,65d2b7c396fa611396bffafc,0.0531,0.0531,1,1,163,60,1,threeone,,,,,,,,,,,,,,,,,,,,,,,,,,,,,,,,,,,,,,,,,,,,,,,,,,,,,,,,,,,,,,,,,,,,,,,,,,,,,,,,,,,,,,,,,,,,,,,,,,,,,,,,,,,,,,,,,,,,,,,,,,,,,,,,,,,,,,,,,
,,613ad089983f33fc8194d601,2024-02-18_20h16.40.635,kallum_motion_pilot,2023.2.2,Win32,59.88023952,613ad089983f33fc8194d601,65d2b6c8f2eece985d8e374c,65d2b7c396fa611396bffafc,0.0531,0.0533,1,2,164,82,1,sixfive,,,,,,,,,,,,,,,,,,,,,,,,,,,,,,,,,,,,,,,,,,,,,,,,,,,,,,,,,,,,,,,,,,,,,,,,,,,,,,,,,,,,,,,,,,,,,,,,,,,,,,,,,,,,,,,,,,,,,,,,,,,,,,,,,,,,,,,,,
,,613ad089983f33fc8194d601,2024-02-18_20h16.40.635,kallum_motion_pilot,2023.2.2,Win32,59.88023952,613ad089983f33fc8194d601,65d2b6c8f2eece985d8e374c,65d2b7c396fa611396bffafc,0.0533,0.0533,1,3,165,7,1,fourthree,,,,,,,,,,,,,,,,,,,,,,,,,,,,,,,,,,,,,,,,,,,,,,,,,,,,,,,,,,,,,,,,,,,,,,,,,,,,,,,,,,,,,,,,,,,,,,,,,,,,,,,,,,,,,,,,,,,,,,,,,,,,,,,,,,,,,,,,,
,,613ad089983f33fc8194d601,2024-02-18_20h16.40.635,kallum_motion_pilot,2023.2.2,Win32,59.88023952,613ad089983f33fc8194d601,65d2b6c8f2eece985d8e374c,65d2b7c396fa611396bffafc,0.0535,0.0535,1,4,166,52,1,threeone,,,,,,,,,,,,,,,,,,,,,,,,,,,,,,,,,,,,,,,,,,,,,,,,,,,,,,,,,,,,,,,,,,,,,,,,,,,,,,,,,,,,,,,,,,,,,,,,,,,,,,,,,,,,,,,,,,,,,,,,,,,,,,,,,,,,,,,,,
,,613ad089983f33fc8194d601,2024-02-18_20h16.40.635,kallum_motion_pilot,2023.2.2,Win32,59.88023952,613ad089983f33fc8194d601,65d2b6c8f2eece985d8e374c,65d2b7c396fa611396bffafc,0.0536,0.0537,1,5,167,90,1,sixfive,,,,,,,,,,,,,,,,,,,,,,,,,,,,,,,,,,,,,,,,,,,,,,,,,,,,,,,,,,,,,,,,,,,,,,,,,,,,,,,,,,,,,,,,,,,,,,,,,,,,,,,,,,,,,,,,,,,,,,,,,,,,,,,,,,,,,,,,,
,,613ad089983f33fc8194d601,2024-02-18_20h16.40.635,kallum_motion_pilot,2023.2.2,Win32,59.88023952,613ad089983f33fc8194d601,65d2b6c8f2eece985d8e374c,65d2b7c396fa611396bffafc,0.0538,0.0538,1,6,168,38,1,fourtwo,,,,,,,,,,,,,,,,,,,,,,,,,,,,,,,,,,,,,,,,,,,,,,,,,,,,,,,,,,,,,,,,,,,,,,,,,,,,,,,,,,,,,,,,,,,,,,,,,,,,,,,,,,,,,,,,,,,,,,,,,,,,,,,,,,,,,,,,,
,,613ad089983f33fc8194d601,2024-02-18_20h16.40.635,kallum_motion_pilot,2023.2.2,Win32,59.88023952,613ad089983f33fc8194d601,65d2b6c8f2eece985d8e374c,65d2b7c396fa611396bffafc,0.0539,0.0539,1,7,169,19,1,twofour,,,,,,,,,,,,,,,,,,,,,,,,,,,,,,,,,,,,,,,,,,,,,,,,,,,,,,,,,,,,,,,,,,,,,,,,,,,,,,,,,,,,,,,,,,,,,,,,,,,,,,,,,,,,,,,,,,,,,,,,,,,,,,,,,,,,,,,,,
,,613ad089983f33fc8194d601,2024-02-18_20h16.40.635,kallum_motion_pilot,2023.2.2,Win32,59.88023952,613ad089983f33fc8194d601,65d2b6c8f2eece985d8e374c,65d2b7c396fa611396bffafc,0.054,0.0541,1,8,170,119,1,eightseven,,,,,,,,,,,,,,,,,,,,,,,,,,,,,,,,,,,,,,,,,,,,,,,,,,,,,,,,,,,,,,,,,,,,,,,,,,,,,,,,,,,,,,,,,,,,,,,,,,,,,,,,,,,,,,,,,,,,,,,,,,,,,,,,,,,,,,,,,
,,613ad089983f33fc8194d601,2024-02-18_20h16.40.635,kallum_motion_pilot,2023.2.2,Win32,59.88023952,613ad089983f33fc8194d601,65d2b6c8f2eece985d8e374c,65d2b7c396fa611396bffafc,0.0542,0.0543,1,9,171,91,1,sixeight,,,,,,,,,,,,,,,,,,,,,,,,,,,,,,,,,,,,,,,,,,,,,,,,,,,,,,,,,,,,,,,,,,,,,,,,,,,,,,,,,,,,,,,,,,,,,,,,,,,,,,,,,,,,,,,,,,,,,,,,,,,,,,,,,,,,,,,,,
,,613ad089983f33fc8194d601,2024-02-18_20h16.40.635,kallum_motion_pilot,2023.2.2,Win32,59.88023952,613ad089983f33fc8194d601,65d2b6c8f2eece985d8e374c,65d2b7c396fa611396bffafc,0.0543,0.0544,1,10,172,151,1,eightseven,,,,,,,,,,,,,,,,,,,,,,,,,,,,,,,,,,,,,,,,,,,,,,,,,,,,,,,,,,,,,,,,,,,,,,,,,,,,,,,,,,,,,,,,,,,,,,,,,,,,,,,,,,,,,,,,,,,,,,,,,,,,,,,,,,,,,,,,,
,,613ad089983f33fc8194d601,2024-02-18_20h16.40.635,kallum_motion_pilot,2023.2.2,Win32,59.88023952,613ad089983f33fc8194d601,65d2b6c8f2eece985d8e374c,65d2b7c396fa611396bffafc,0.0545,0.0546,1,11,173,85,1,seveneight,,,,,,,,,,,,,,,,,,,,,,,,,,,,,,,,,,,,,,,,,,,,,,,,,,,,,,,,,,,,,,,,,,,,,,,,,,,,,,,,,,,,,,,,,,,,,,,,,,,,,,,,,,,,,,,,,,,,,,,,,,,,,,,,,,,,,,,,,
,,613ad089983f33fc8194d601,2024-02-18_20h16.40.635,kallum_motion_pilot,2023.2.2,Win32,59.88023952,613ad089983f33fc8194d601,65d2b6c8f2eece985d8e374c,65d2b7c396fa611396bffafc,0.0546,0.0547,1,12,174,80,1,fivesix,,,,,,,,,,,,,,,,,,,,,,,,,,,,,,,,,,,,,,,,,,,,,,,,,,,,,,,,,,,,,,,,,,,,,,,,,,,,,,,,,,,,,,,,,,,,,,,,,,,,,,,,,,,,,,,,,,,,,,,,,,,,,,,,,,,,,,,,,
,,613ad089983f33fc8194d601,2024-02-18_20h16.40.635,kallum_motion_pilot,2023.2.2,Win32,59.88023952,613ad089983f33fc8194d601,65d2b6c8f2eece985d8e374c,65d2b7c396fa611396bffafc,0.0548,0.0549,1,13,175,11,1,twofour,,,,,,,,,,,,,,,,,,,,,,,,,,,,,,,,,,,,,,,,,,,,,,,,,,,,,,,,,,,,,,,,,,,,,,,,,,,,,,,,,,,,,,,,,,,,,,,,,,,,,,,,,,,,,,,,,,,,,,,,,,,,,,,,,,,,,,,,,
,,613ad089983f33fc8194d601,2024-02-18_20h16.40.635,kallum_motion_pilot,2023.2.2,Win32,59.88023952,613ad089983f33fc8194d601,65d2b6c8f2eece985d8e374c,65d2b7c396fa611396bffafc,0.055,0.0551,1,14,176,40,1,onetwo,,,,,,,,,,,,,,,,,,,,,,,,,,,,,,,,,,,,,,,,,,,,,,,,,,,,,,,,,,,,,,,,,,,,,,,,,,,,,,,,,,,,,,,,,,,,,,,,,,,,,,,,,,,,,,,,,,,,,,,,,,,,,,,,,,,,,,,,,
,,613ad089983f33fc8194d601,2024-02-18_20h16.40.635,kallum_motion_pilot,2023.2.2,Win32,59.88023952,613ad089983f33fc8194d601,65d2b6c8f2eece985d8e374c,65d2b7c396fa611396bffafc,0.0551,0.0551,1,15,177,157,1,seveneight,,,,,,,,,,,,,,,,,,,,,,,,,,,,,,,,,,,,,,,,,,,,,,,,,,,,,,,,,,,,,,,,,,,,,,,,,,,,,,,,,,,,,,,,,,,,,,,,,,,,,,,,,,,,,,,,,,,,,,,,,,,,,,,,,,,,,,,,,
,,613ad089983f33fc8194d601,2024-02-18_20h16.40.635,kallum_motion_pilot,2023.2.2,Win32,59.88023952,613ad089983f33fc8194d601,65d2b6c8f2eece985d8e374c,65d2b7c396fa611396bffafc,0.0552,0.0553,1,16,178,36,1,threeone,,,,,,,,,,,,,,,,,,,,,,,,,,,,,,,,,,,,,,,,,,,,,,,,,,,,,,,,,,,,,,,,,,,,,,,,,,,,,,,,,,,,,,,,,,,,,,,,,,,,,,,,,,,,,,,,,,,,,,,,,,,,,,,,,,,,,,,,,
,,613ad089983f33fc8194d601,2024-02-18_20h16.40.635,kallum_motion_pilot,2023.2.2,Win32,59.88023952,613ad089983f33fc8194d601,65d2b6c8f2eece985d8e374c,65d2b7c396fa611396bffafc,0.0554,0.0555,1,17,179,109,1,seveneight,,,,,,,,,,,,,,,,,,,,,,,,,,,,,,,,,,,,,,,,,,,,,,,,,,,,,,,,,,,,,,,,,,,,,,,,,,,,,,,,,,,,,,,,,,,,,,,,,,,,,,,,,,,,,,,,,,,,,,,,,,,,,,,,,,,,,,,,,
,,613ad089983f33fc8194d601,2024-02-18_20h16.40.635,kallum_motion_pilot,2023.2.2,Win32,59.88023952,613ad089983f33fc8194d601,65d2b6c8f2eece985d8e374c,65d2b7c396fa611396bffafc,0.0556,0.0556,1,18,180,102,1,eightsix,,,,,,,,,,,,,,,,,,,,,,,,,,,,,,,,,,,,,,,,,,,,,,,,,,,,,,,,,,,,,,,,,,,,,,,,,,,,,,,,,,,,,,,,,,,,,,,,,,,,,,,,,,,,,,,,,,,,,,,,,,,,,,,,,,,,,,,,,
,,613ad089983f33fc8194d601,2024-02-18_20h16.40.635,kallum_motion_pilot,2023.2.2,Win32,59.88023952,613ad089983f33fc8194d601,65d2b6c8f2eece985d8e374c,65d2b7c396fa611396bffafc,0.0557,0.0558,1,19,181,2,1,twoone,,,,,,,,,,,,,,,,,,,,,,,,,,,,,,,,,,,,,,,,,,,,,,,,,,,,,,,,,,,,,,,,,,,,,,,,,,,,,,,,,,,,,,,,,,,,,,,,,,,,,,,,,,,,,,,,,,,,,,,,,,,,,,,,,,,,,,,,,
,,613ad089983f33fc8194d601,2024-02-18_20h16.40.635,kallum_motion_pilot,2023.2.2,Win32,59.88023952,613ad089983f33fc8194d601,65d2b6c8f2eece985d8e374c,65d2b7c396fa611396bffafc,0.0559,0.0559,1,20,182,103,1,eightseven,,,,,,,,,,,,,,,,,,,,,,,,,,,,,,,,,,,,,,,,,,,,,,,,,,,,,,,,,,,,,,,,,,,,,,,,,,,,,,,,,,,,,,,,,,,,,,,,,,,,,,,,,,,,,,,,,,,,,,,,,,,,,,,,,,,,,,,,,
,,613ad089983f33fc8194d601,2024-02-18_20h16.40.635,kallum_motion_pilot,2023.2.2,Win32,59.88023952,613ad089983f33fc8194d601,65d2b6c8f2eece985d8e374c,65d2b7c396fa611396bffafc,0.056,0.0561,1,21,183,20,1,threeone,,,,,,,,,,,,,,,,,,,,,,,,,,,,,,,,,,,,,,,,,,,,,,,,,,,,,,,,,,,,,,,,,,,,,,,,,,,,,,,,,,,,,,,,,,,,,,,,,,,,,,,,,,,,,,,,,,,,,,,,,,,,,,,,,,,,,,,,,
,,613ad089983f33fc8194d601,2024-02-18_20h16.40.635,kallum_motion_pilot,2023.2.2,Win32,59.88023952,613ad089983f33fc8194d601,65d2b6c8f2eece985d8e374c,65d2b7c396fa611396bffafc,0.0563,0.0563,1,22,184,33,1,onethree,,,,,,,,,,,,,,,,,,,,,,,,,,,,,,,,,,,,,,,,,,,,,,,,,,,,,,,,,,,,,,,,,,,,,,,,,,,,,,,,,,,,,,,,,,,,,,,,,,,,,,,,,,,,,,,,,,,,,,,,,,,,,,,,,,,,,,,,,
,,613ad089983f33fc8194d601,2024-02-18_20h16.40.635,kallum_motion_pilot,2023.2.2,Win32,59.88023952,613ad089983f33fc8194d601,65d2b6c8f2eece985d8e374c,65d2b7c396fa611396bffafc,0.0563,0.0564,1,23,185,125,1,seveneight,,,,,,,,,,,,,,,,,,,,,,,,,,,,,,,,,,,,,,,,,,,,,,,,,,,,,,,,,,,,,,,,,,,,,,,,,,,,,,,,,,,,,,,,,,,,,,,,,,,,,,,,,,,,,,,,,,,,,,,,,,,,,,,,,,,,,,,,,
,,613ad089983f33fc8194d601,2024-02-18_20h16.40.635,kallum_motion_pilot,2023.2.2,Win32,59.88023952,613ad089983f33fc8194d601,65d2b6c8f2eece985d8e374c,65d2b7c396fa611396bffafc,0.0565,0.0566,1,24,186,8,1,onetwo,,,,,,,,,,,,,,,,,,,,,,,,,,,,,,,,,,,,,,,,,,,,,,,,,,,,,,,,,,,,,,,,,,,,,,,,,,,,,,,,,,,,,,,,,,,,,,,,,,,,,,,,,,,,,,,,,,,,,,,,,,,,,,,,,,,,,,,,,
,,613ad089983f33fc8194d601,2024-02-18_20h16.40.635,kallum_motion_pilot,2023.2.2,Win32,59.88023952,613ad089983f33fc8194d601,65d2b6c8f2eece985d8e374c,65d2b7c396fa611396bffafc,0.0567,0.0569,1,25,187,32,1,onetwo,,,,,,,,,,,,,,,,,,,,,,,,,,,,,,,,,,,,,,,,,,,,,,,,,,,,,,,,,,,,,,,,,,,,,,,,,,,,,,,,,,,,,,,,,,,,,,,,,,,,,,,,,,,,,,,,,,,,,,,,,,,,,,,,,,,,,,,,,
,,613ad089983f33fc8194d601,2024-02-18_20h16.40.635,kallum_motion_pilot,2023.2.2,Win32,59.88023952,613ad089983f33fc8194d601,65d2b6c8f2eece985d8e374c,65d2b7c396fa611396bffafc,0.0571,0.0571,1,26,188,24,1,onetwo,,,,,,,,,,,,,,,,,,,,,,,,,,,,,,,,,,,,,,,,,,,,,,,,,,,,,,,,,,,,,,,,,,,,,,,,,,,,,,,,,,,,,,,,,,,,,,,,,,,,,,,,,,,,,,,,,,,,,,,,,,,,,,,,,,,,,,,,,
,,613ad089983f33fc8194d601,2024-02-18_20h16.40.635,kallum_motion_pilot,2023.2.2,Win32,59.88023952,613ad089983f33fc8194d601,65d2b6c8f2eece985d8e374c,65d2b7c396fa611396bffafc,0.0573,0.0577,1,27,189,155,1,sixeight,,,,,,,,,,,,,,,,,,,,,,,,,,,,,,,,,,,,,,,,,,,,,,,,,,,,,,,,,,,,,,,,,,,,,,,,,,,,,,,,,,,,,,,,,,,,,,,,,,,,,,,,,,,,,,,,,,,,,,,,,,,,,,,,,,,,,,,,,
,,613ad089983f33fc8194d601,2024-02-18_20h16.40.635,kallum_motion_pilot,2023.2.2,Win32,59.88023952,613ad089983f33fc8194d601,65d2b6c8f2eece985d8e374c,65d2b7c396fa611396bffafc,0.058,0.0581,1,28,190,132,1,sevenfive,,,,,,,,,,,,,,,,,,,,,,,,,,,,,,,,,,,,,,,,,,,,,,,,,,,,,,,,,,,,,,,,,,,,,,,,,,,,,,,,,,,,,,,,,,,,,,,,,,,,,,,,,,,,,,,,,,,,,,,,,,,,,,,,,,,,,,,,,
,,613ad089983f33fc8194d601,2024-02-18_20h16.40.635,kallum_motion_pilot,2023.2.2,Win32,59.88023952,613ad089983f33fc8194d601,65d2b6c8f2eece985d8e374c,65d2b7c396fa611396bffafc,0.0582,0.0583,1,29,191,96,1,fivesix,,,,,,,,,,,,,,,,,,,,,,,,,,,,,,,,,,,,,,,,,,,,,,,,,,,,,,,,,,,,,,,,,,,,,,,,,,,,,,,,,,,,,,,,,,,,,,,,,,,,,,,,,,,,,,,,,,,,,,,,,,,,,,,,,,,,,,,,,
,,613ad089983f33fc8194d601,2024-02-18_20h16.40.635,kallum_motion_pilot,2023.2.2,Win32,59.88023952,613ad089983f33fc8194d601,65d2b6c8f2eece985d8e374c,65d2b7c396fa611396bffafc,0.0583,0.0584,1,30,192,27,1,twofour,,,,,,,,,,,,,,,,,,,,,,,,,,,,,,,,,,,,,,,,,,,,,,,,,,,,,,,,,,,,,,,,,,,,,,,,,,,,,,,,,,,,,,,,,,,,,,,,,,,,,,,,,,,,,,,,,,,,,,,,,,,,,,,,,,,,,,,,,
,,613ad089983f33fc8194d601,2024-02-18_20h16.40.635,kallum_motion_pilot,2023.2.2,Win32,59.88023952,613ad089983f33fc8194d601,65d2b6c8f2eece985d8e374c,65d2b7c396fa611396bffafc,0.0585,0.0586,1,31,193,83,1,sixeight,,,,,,,,,,,,,,,,,,,,,,,,,,,,,,,,,,,,,,,,,,,,,,,,,,,,,,,,,,,,,,,,,,,,,,,,,,,,,,,,,,,,,,,,,,,,,,,,,,,,,,,,,,,,,,,,,,,,,,,,,,,,,,,,,,,,,,,,,
,,613ad089983f33fc8194d601,2024-02-18_20h16.40.635,kallum_motion_pilot,2023.2.2,Win32,59.88023952,613ad089983f33fc8194d601,65d2b6c8f2eece985d8e374c,65d2b7c396fa611396bffafc,0.0588,0.0588,1,32,194,116,1,sevenfive,,,,,,,,,,,,,,,,,,,,,,,,,,,,,,,,,,,,,,,,,,,,,,,,,,,,,,,,,,,,,,,,,,,,,,,,,,,,,,,,,,,,,,,,,,,,,,,,,,,,,,,,,,,,,,,,,,,,,,,,,,,,,,,,,,,,,,,,,
,,613ad089983f33fc8194d601,2024-02-18_20h16.40.635,kallum_motion_pilot,2023.2.2,Win32,59.88023952,613ad089983f33fc8194d601,65d2b6c8f2eece985d8e374c,65d2b7c396fa611396bffafc,0.0589,0.0589,1,33,195,105,1,fiveseven,,,,,,,,,,,,,,,,,,,,,,,,,,,,,,,,,,,,,,,,,,,,,,,,,,,,,,,,,,,,,,,,,,,,,,,,,,,,,,,,,,,,,,,,,,,,,,,,,,,,,,,,,,,,,,,,,,,,,,,,,,,,,,,,,,,,,,,,,
,,613ad089983f33fc8194d601,2024-02-18_20h16.40.635,kallum_motion_pilot,2023.2.2,Win32,59.88023952,613ad089983f33fc8194d601,65d2b6c8f2eece985d8e374c,65d2b7c396fa611396bffafc,0.059,0.0591,1,34,196,126,1,eightsix,,,,,,,,,,,,,,,,,,,,,,,,,,,,,,,,,,,,,,,,,,,,,,,,,,,,,,,,,,,,,,,,,,,,,,,,,,,,,,,,,,,,,,,,,,,,,,,,,,,,,,,,,,,,,,,,,,,,,,,,,,,,,,,,,,,,,,,,,
,,613ad089983f33fc8194d601,2024-02-18_20h16.40.635,kallum_motion_pilot,2023.2.2,Win32,59.88023952,613ad089983f33fc8194d601,65d2b6c8f2eece985d8e374c,65d2b7c396fa611396bffafc,0.0592,0.0593,1,35,197,144,1,fivesix,,,,,,,,,,,,,,,,,,,,,,,,,,,,,,,,,,,,,,,,,,,,,,,,,,,,,,,,,,,,,,,,,,,,,,,,,,,,,,,,,,,,,,,,,,,,,,,,,,,,,,,,,,,,,,,,,,,,,,,,,,,,,,,,,,,,,,,,,
,,613ad089983f33fc8194d601,2024-02-18_20h16.40.635,kallum_motion_pilot,2023.2.2,Win32,59.88023952,613ad089983f33fc8194d601,65d2b6c8f2eece985d8e374c,65d2b7c396fa611396bffafc,0.0594,0.0594,1,36,198,48,1,onetwo,,,,,,,,,,,,,,,,,,,,,,,,,,,,,,,,,,,,,,,,,,,,,,,,,,,,,,,,,,,,,,,,,,,,,,,,,,,,,,,,,,,,,,,,,,,,,,,,,,,,,,,,,,,,,,,,,,,,,,,,,,,,,,,,,,,,,,,,,
,,613ad089983f33fc8194d601,2024-02-18_20h16.40.635,kallum_motion_pilot,2023.2.2,Win32,59.88023952,613ad089983f33fc8194d601,65d2b6c8f2eece985d8e374c,65d2b7c396fa611396bffafc,0.0598,0.0599,1,37,199,87,1,eightseven,,,,,,,,,,,,,,,,,,,,,,,,,,,,,,,,,,,,,,,,,,,,,,,,,,,,,,,,,,,,,,,,,,,,,,,,,,,,,,,,,,,,,,,,,,,,,,,,,,,,,,,,,,,,,,,,,,,,,,,,,,,,,,,,,,,,,,,,,
,,613ad089983f33fc8194d601,2024-02-18_20h16.40.635,kallum_motion_pilot,2023.2.2,Win32,59.88023952,613ad089983f33fc8194d601,65d2b6c8f2eece985d8e374c,65d2b7c396fa611396bffafc,0.0599,0.06,1,38,200,21,1,threefour,,,,,,,,,,,,,,,,,,,,,,,,,,,,,,,,,,,,,,,,,,,,,,,,,,,,,,,,,,,,,,,,,,,,,,,,,,,,,,,,,,,,,,,,,,,,,,,,,,,,,,,,,,,,,,,,,,,,,,,,,,,,,,,,,,,,,,,,,
,,613ad089983f33fc8194d601,2024-02-18_20h16.40.635,kallum_motion_pilot,2023.2.2,Win32,59.88023952,613ad089983f33fc8194d601,65d2b6c8f2eece985d8e374c,65d2b7c396fa611396bffafc,0.0601,0.0601,1,39,201,121,1,fiveseven,,,,,,,,,,,,,,,,,,,,,,,,,,,,,,,,,,,,,,,,,,,,,,,,,,,,,,,,,,,,,,,,,,,,,,,,,,,,,,,,,,,,,,,,,,,,,,,,,,,,,,,,,,,,,,,,,,,,,,,,,,,,,,,,,,,,,,,,,
,,613ad089983f33fc8194d601,2024-02-18_20h16.40.635,kallum_motion_pilot,2023.2.2,Win32,59.88023952,613ad089983f33fc8194d601,65d2b6c8f2eece985d8e374c,65d2b7c396fa611396bffafc,0.0603,0.0604,1,40,202,142,1,eightsix,,,,,,,,,,,,,,,,,,,,,,,,,,,,,,,,,,,,,,,,,,,,,,,,,,,,,,,,,,,,,,,,,,,,,,,,,,,,,,,,,,,,,,,,,,,,,,,,,,,,,,,,,,,,,,,,,,,,,,,,,,,,,,,,,,,,,,,,,
,,613ad089983f33fc8194d601,2024-02-18_20h16.40.635,kallum_motion_pilot,2023.2.2,Win32,59.88023952,613ad089983f33fc8194d601,65d2b6c8f2eece985d8e374c,65d2b7c396fa611396bffafc,0.0604,0.0604,1,41,203,143,1,eightseven,,,,,,,,,,,,,,,,,,,,,,,,,,,,,,,,,,,,,,,,,,,,,,,,,,,,,,,,,,,,,,,,,,,,,,,,,,,,,,,,,,,,,,,,,,,,,,,,,,,,,,,,,,,,,,,,,,,,,,,,,,,,,,,,,,,,,,,,,
,,613ad089983f33fc8194d601,2024-02-18_20h16.40.635,kallum_motion_pilot,2023.2.2,Win32,59.88023952,613ad089983f33fc8194d601,65d2b6c8f2eece985d8e374c,65d2b7c396fa611396bffafc,0.0606,0.0607,1,42,204,77,1,threefour,,,,,,,,,,,,,,,,,,,,,,,,,,,,,,,,,,,,,,,,,,,,,,,,,,,,,,,,,,,,,,,,,,,,,,,,,,,,,,,,,,,,,,,,,,,,,,,,,,,,,,,,,,,,,,,,,,,,,,,,,,,,,,,,,,,,,,,,,
,,613ad089983f33fc8194d601,2024-02-18_20h16.40.635,kallum_motion_pilot,2023.2.2,Win32,59.88023952,613ad089983f33fc8194d601,65d2b6c8f2eece985d8e374c,65d2b7c396fa611396bffafc,0.0607,0.0608,1,43,205,14,1,fourtwo,,,,,,,,,,,,,,,,,,,,,,,,,,,,,,,,,,,,,,,,,,,,,,,,,,,,,,,,,,,,,,,,,,,,,,,,,,,,,,,,,,,,,,,,,,,,,,,,,,,,,,,,,,,,,,,,,,,,,,,,,,,,,,,,,,,,,,,,,
,,613ad089983f33fc8194d601,2024-02-18_20h16.40.635,kallum_motion_pilot,2023.2.2,Win32,59.88023952,613ad089983f33fc8194d601,65d2b6c8f2eece985d8e374c,65d2b7c396fa611396bffafc,0.0608,0.0609,1,44,206,50,1,twoone,,,,,,,,,,,,,,,,,,,,,,,,,,,,,,,,,,,,,,,,,,,,,,,,,,,,,,,,,,,,,,,,,,,,,,,,,,,,,,,,,,,,,,,,,,,,,,,,,,,,,,,,,,,,,,,,,,,,,,,,,,,,,,,,,,,,,,,,,
,,613ad089983f33fc8194d601,2024-02-18_20h16.40.635,kallum_motion_pilot,2023.2.2,Win32,59.88023952,613ad089983f33fc8194d601,65d2b6c8f2eece985d8e374c,65d2b7c396fa611396bffafc,0.061,0.061,1,45,207,122,1,sixfive,,,,,,,,,,,,,,,,,,,,,,,,,,,,,,,,,,,,,,,,,,,,,,,,,,,,,,,,,,,,,,,,,,,,,,,,,,,,,,,,,,,,,,,,,,,,,,,,,,,,,,,,,,,,,,,,,,,,,,,,,,,,,,,,,,,,,,,,,
,,613ad089983f33fc8194d601,2024-02-18_20h16.40.635,kallum_motion_pilot,2023.2.2,Win32,59.88023952,613ad089983f33fc8194d601,65d2b6c8f2eece985d8e374c,65d2b7c396fa611396bffafc,0.0611,0.0612,1,46,208,65,1,onethree,,,,,,,,,,,,,,,,,,,,,,,,,,,,,,,,,,,,,,,,,,,,,,,,,,,,,,,,,,,,,,,,,,,,,,,,,,,,,,,,,,,,,,,,,,,,,,,,,,,,,,,,,,,,,,,,,,,,,,,,,,,,,,,,,,,,,,,,,
,,613ad089983f33fc8194d601,2024-02-18_20h16.40.635,kallum_motion_pilot,2023.2.2,Win32,59.88023952,613ad089983f33fc8194d601,65d2b6c8f2eece985d8e374c,65d2b7c396fa611396bffafc,0.0613,0.0613,1,47,209,66,1,twoone,,,,,,,,,,,,,,,,,,,,,,,,,,,,,,,,,,,,,,,,,,,,,,,,,,,,,,,,,,,,,,,,,,,,,,,,,,,,,,,,,,,,,,,,,,,,,,,,,,,,,,,,,,,,,,,,,,,,,,,,,,,,,,,,,,,,,,,,,
,,613ad089983f33fc8194d601,2024-02-18_20h16.40.635,kallum_motion_pilot,2023.2.2,Win32,59.88023952,613ad089983f33fc8194d601,65d2b6c8f2eece985d8e374c,65d2b7c396fa611396bffafc,0.0614,0.0614,1,48,210,111,1,eightseven,,,,,,,,,,,,,,,,,,,,,,,,,,,,,,,,,,,,,,,,,,,,,,,,,,,,,,,,,,,,,,,,,,,,,,,,,,,,,,,,,,,,,,,,,,,,,,,,,,,,,,,,,,,,,,,,,,,,,,,,,,,,,,,,,,,,,,,,,
,,613ad089983f33fc8194d601,2024-02-18_20h16.40.635,kallum_motion_pilot,2023.2.2,Win32,59.88023952,613ad089983f33fc8194d601,65d2b6c8f2eece985d8e374c,65d2b7c396fa611396bffafc,0.0615,0.0616,1,49,211,72,1,onetwo,,,,,,,,,,,,,,,,,,,,,,,,,,,,,,,,,,,,,,,,,,,,,,,,,,,,,,,,,,,,,,,,,,,,,,,,,,,,,,,,,,,,,,,,,,,,,,,,,,,,,,,,,,,,,,,,,,,,,,,,,,,,,,,,,,,,,,,,,
,,613ad089983f33fc8194d601,2024-02-18_20h16.40.635,kallum_motion_pilot,2023.2.2,Win32,59.88023952,613ad089983f33fc8194d601,65d2b6c8f2eece985d8e374c,65d2b7c396fa611396bffafc,0.0617,0.0617,1,50,212,123,1,sixeight,,,,,,,,,,,,,,,,,,,,,,,,,,,,,,,,,,,,,,,,,,,,,,,,,,,,,,,,,,,,,,,,,,,,,,,,,,,,,,,,,,,,,,,,,,,,,,,,,,,,,,,,,,,,,,,,,,,,,,,,,,,,,,,,,,,,,,,,,
,,613ad089983f33fc8194d601,2024-02-18_20h16.40.635,kallum_motion_pilot,2023.2.2,Win32,59.88023952,613ad089983f33fc8194d601,65d2b6c8f2eece985d8e374c,65d2b7c396fa611396bffafc,0.0618,0.0619,1,51,213,150,1,eightsix,,,,,,,,,,,,,,,,,,,,,,,,,,,,,,,,,,,,,,,,,,,,,,,,,,,,,,,,,,,,,,,,,,,,,,,,,,,,,,,,,,,,,,,,,,,,,,,,,,,,,,,,,,,,,,,,,,,,,,,,,,,,,,,,,,,,,,,,,
,,613ad089983f33fc8194d601,2024-02-18_20h16.40.635,kallum_motion_pilot,2023.2.2,Win32,59.88023952,613ad089983f33fc8194d601,65d2b6c8f2eece985d8e374c,65d2b7c396fa611396bffafc,0.0619,0.062,1,52,214,76,1,threeone,,,,,,,,,,,,,,,,,,,,,,,,,,,,,,,,,,,,,,,,,,,,,,,,,,,,,,,,,,,,,,,,,,,,,,,,,,,,,,,,,,,,,,,,,,,,,,,,,,,,,,,,,,,,,,,,,,,,,,,,,,,,,,,,,,,,,,,,,
,,613ad089983f33fc8194d601,2024-02-18_20h16.40.635,kallum_motion_pilot,2023.2.2,Win32,59.88023952,613ad089983f33fc8194d601,65d2b6c8f2eece985d8e374c,65d2b7c396fa611396bffafc,0.0621,0.0621,1,53,215,31,1,fourthree,,,,,,,,,,,,,,,,,,,,,,,,,,,,,,,,,,,,,,,,,,,,,,,,,,,,,,,,,,,,,,,,,,,,,,,,,,,,,,,,,,,,,,,,,,,,,,,,,,,,,,,,,,,,,,,,,,,,,,,,,,,,,,,,,,,,,,,,,
,,613ad089983f33fc8194d601,2024-02-18_20h16.40.635,kallum_motion_pilot,2023.2.2,Win32,59.88023952,613ad089983f33fc8194d601,65d2b6c8f2eece985d8e374c,65d2b7c396fa611396bffafc,0.0622,0.0623,1,54,216,140,1,sevenfive,,,,,,,,,,,,,,,,,,,,,,,,,,,,,,,,,,,,,,,,,,,,,,,,,,,,,,,,,,,,,,,,,,,,,,,,,,,,,,,,,,,,,,,,,,,,,,,,,,,,,,,,,,,,,,,,,,,,,,,,,,,,,,,,,,,,,,,,,
,,613ad089983f33fc8194d601,2024-02-18_20h16.40.635,kallum_motion_pilot,2023.2.2,Win32,59.88023952,613ad089983f33fc8194d601,65d2b6c8f2eece985d8e374c,65d2b7c396fa611396bffafc,0.0623,0.0624,1,55,217,26,1,twoone,,,,,,,,,,,,,,,,,,,,,,,,,,,,,,,,,,,,,,,,,,,,,,,,,,,,,,,,,,,,,,,,,,,,,,,,,,,,,,,,,,,,,,,,,,,,,,,,,,,,,,,,,,,,,,,,,,,,,,,,,,,,,,,,,,,,,,,,,
,,613ad089983f33fc8194d601,2024-02-18_20h16.40.635,kallum_motion_pilot,2023.2.2,Win32,59.88023952,613ad089983f33fc8194d601,65d2b6c8f2eece985d8e374c,65d2b7c396fa611396bffafc,0.0625,0.0626,1,56,218,62,1,fourtwo,,,,,,,,,,,,,,,,,,,,,,,,,,,,,,,,,,,,,,,,,,,,,,,,,,,,,,,,,,,,,,,,,,,,,,,,,,,,,,,,,,,,,,,,,,,,,,,,,,,,,,,,,,,,,,,,,,,,,,,,,,,,,,,,,,,,,,,,,
,,613ad089983f33fc8194d601,2024-02-18_20h16.40.635,kallum_motion_pilot,2023.2.2,Win32,59.88023952,613ad089983f33fc8194d601,65d2b6c8f2eece985d8e374c,65d2b7c396fa611396bffafc,0.0626,0.0627,1,57,219,75,1,twofour,,,,,,,,,,,,,,,,,,,,,,,,,,,,,,,,,,,,,,,,,,,,,,,,,,,,,,,,,,,,,,,,,,,,,,,,,,,,,,,,,,,,,,,,,,,,,,,,,,,,,,,,,,,,,,,,,,,,,,,,,,,,,,,,,,,,,,,,,
,,613ad089983f33fc8194d601,2024-02-18_20h16.40.635,kallum_motion_pilot,2023.2.2,Win32,59.88023952,613ad089983f33fc8194d601,65d2b6c8f2eece985d8e374c,65d2b7c396fa611396bffafc,0.0628,0.0628,1,58,220,88,1,fivesix,,,,,,,,,,,,,,,,,,,,,,,,,,,,,,,,,,,,,,,,,,,,,,,,,,,,,,,,,,,,,,,,,,,,,,,,,,,,,,,,,,,,,,,,,,,,,,,,,,,,,,,,,,,,,,,,,,,,,,,,,,,,,,,,,,,,,,,,,
,,613ad089983f33fc8194d601,2024-02-18_20h16.40.635,kallum_motion_pilot,2023.2.2,Win32,59.88023952,613ad089983f33fc8194d601,65d2b6c8f2eece985d8e374c,65d2b7c396fa611396bffafc,0.0629,0.063,1,59,221,70,1,fourtwo,,,,,,,,,,,,,,,,,,,,,,,,,,,,,,,,,,,,,,,,,,,,,,,,,,,,,,,,,,,,,,,,,,,,,,,,,,,,,,,,,,,,,,,,,,,,,,,,,,,,,,,,,,,,,,,,,,,,,,,,,,,,,,,,,,,,,,,,,
,,613ad089983f33fc8194d601,2024-02-18_20h16.40.635,kallum_motion_pilot,2023.2.2,Win32,59.88023952,613ad089983f33fc8194d601,65d2b6c8f2eece985d8e374c,65d2b7c396fa611396bffafc,0.063,0.0632,1,60,222,112,1,fivesix,,,,,,,,,,,,,,,,,,,,,,,,,,,,,,,,,,,,,,,,,,,,,,,,,,,,,,,,,,,,,,,,,,,,,,,,,,,,,,,,,,,,,,,,,,,,,,,,,,,,,,,,,,,,,,,,,,,,,,,,,,,,,,,,,,,,,,,,,
,,613ad089983f33fc8194d601,2024-02-18_20h16.40.635,kallum_motion_pilot,2023.2.2,Win32,59.88023952,613ad089983f33fc8194d601,65d2b6c8f2eece985d8e374c,65d2b7c396fa611396bffafc,0.0633,0.0633,1,61,223,104,1,fivesix,,,,,,,,,,,,,,,,,,,,,,,,,,,,,,,,,,,,,,,,,,,,,,,,,,,,,,,,,,,,,,,,,,,,,,,,,,,,,,,,,,,,,,,,,,,,,,,,,,,,,,,,,,,,,,,,,,,,,,,,,,,,,,,,,,,,,,,,,
,,613ad089983f33fc8194d601,2024-02-18_20h16.40.635,kallum_motion_pilot,2023.2.2,Win32,59.88023952,613ad089983f33fc8194d601,65d2b6c8f2eece985d8e374c,65d2b7c396fa611396bffafc,0.0633,0.0634,1,62,224,57,1,onethree,,,,,,,,,,,,,,,,,,,,,,,,,,,,,,,,,,,,,,,,,,,,,,,,,,,,,,,,,,,,,,,,,,,,,,,,,,,,,,,,,,,,,,,,,,,,,,,,,,,,,,,,,,,,,,,,,,,,,,,,,,,,,,,,,,,,,,,,,
,,613ad089983f33fc8194d601,2024-02-18_20h16.40.635,kallum_motion_pilot,2023.2.2,Win32,59.88023952,613ad089983f33fc8194d601,65d2b6c8f2eece985d8e374c,65d2b7c396fa611396bffafc,0.0635,0.0636,1,63,225,148,1,sevenfive,,,,,,,,,,,,,,,,,,,,,,,,,,,,,,,,,,,,,,,,,,,,,,,,,,,,,,,,,,,,,,,,,,,,,,,,,,,,,,,,,,,,,,,,,,,,,,,,,,,,,,,,,,,,,,,,,,,,,,,,,,,,,,,,,,,,,,,,,
,,613ad089983f33fc8194d601,2024-02-18_20h16.40.635,kallum_motion_pilot,2023.2.2,Win32,59.88023952,613ad089983f33fc8194d601,65d2b6c8f2eece985d8e374c,65d2b7c396fa611396bffafc,0.0636,0.0637,1,64,226,146,1,sixfive,,,,,,,,,,,,,,,,,,,,,,,,,,,,,,,,,,,,,,,,,,,,,,,,,,,,,,,,,,,,,,,,,,,,,,,,,,,,,,,,,,,,,,,,,,,,,,,,,,,,,,,,,,,,,,,,,,,,,,,,,,,,,,,,,,,,,,,,,
,,613ad089983f33fc8194d601,2024-02-18_20h16.40.635,kallum_motion_pilot,2023.2.2,Win32,59.88023952,613ad089983f33fc8194d601,65d2b6c8f2eece985d8e374c,65d2b7c396fa611396bffafc,0.0638,0.0639,1,65,227,54,1,fourtwo,,,,,,,,,,,,,,,,,,,,,,,,,,,,,,,,,,,,,,,,,,,,,,,,,,,,,,,,,,,,,,,,,,,,,,,,,,,,,,,,,,,,,,,,,,,,,,,,,,,,,,,,,,,,,,,,,,,,,,,,,,,,,,,,,,,,,,,,,
,,613ad089983f33fc8194d601,2024-02-18_20h16.40.635,kallum_motion_pilot,2023.2.2,Win32,59.88023952,613ad089983f33fc8194d601,65d2b6c8f2eece985d8e374c,65d2b7c396fa611396bffafc,0.064,0.064,1,66,228,53,1,threefour,,,,,,,,,,,,,,,,,,,,,,,,,,,,,,,,,,,,,,,,,,,,,,,,,,,,,,,,,,,,,,,,,,,,,,,,,,,,,,,,,,,,,,,,,,,,,,,,,,,,,,,,,,,,,,,,,,,,,,,,,,,,,,,,,,,,,,,,,
,,613ad089983f33fc8194d601,2024-02-18_20h16.40.635,kallum_motion_pilot,2023.2.2,Win32,59.88023952,613ad089983f33fc8194d601,65d2b6c8f2eece985d8e374c,65d2b7c396fa611396bffafc,0.0641,0.0641,1,67,229,133,1,seveneight,,,,,,,,,,,,,,,,,,,,,,,,,,,,,,,,,,,,,,,,,,,,,,,,,,,,,,,,,,,,,,,,,,,,,,,,,,,,,,,,,,,,,,,,,,,,,,,,,,,,,,,,,,,,,,,,,,,,,,,,,,,,,,,,,,,,,,,,,
,,613ad089983f33fc8194d601,2024-02-18_20h16.40.635,kallum_motion_pilot,2023.2.2,Win32,59.88023952,613ad089983f33fc8194d601,65d2b6c8f2eece985d8e374c,65d2b7c396fa611396bffafc,0.0642,0.0643,1,68,230,43,1,twofour,,,,,,,,,,,,,,,,,,,,,,,,,,,,,,,,,,,,,,,,,,,,,,,,,,,,,,,,,,,,,,,,,,,,,,,,,,,,,,,,,,,,,,,,,,,,,,,,,,,,,,,,,,,,,,,,,,,,,,,,,,,,,,,,,,,,,,,,,
,,613ad089983f33fc8194d601,2024-02-18_20h16.40.635,kallum_motion_pilot,2023.2.2,Win32,59.88023952,613ad089983f33fc8194d601,65d2b6c8f2eece985d8e374c,65d2b7c396fa611396bffafc,0.0644,0.0645,1,69,231,37,1,threefour,,,,,,,,,,,,,,,,,,,,,,,,,,,,,,,,,,,,,,,,,,,,,,,,,,,,,,,,,,,,,,,,,,,,,,,,,,,,,,,,,,,,,,,,,,,,,,,,,,,,,,,,,,,,,,,,,,,,,,,,,,,,,,,,,,,,,,,,,
,,613ad089983f33fc8194d601,2024-02-18_20h16.40.635,kallum_motion_pilot,2023.2.2,Win32,59.88023952,613ad089983f33fc8194d601,65d2b6c8f2eece985d8e374c,65d2b7c396fa611396bffafc,0.0646,0.0647,1,70,232,128,1,fivesix,,,,,,,,,,,,,,,,,,,,,,,,,,,,,,,,,,,,,,,,,,,,,,,,,,,,,,,,,,,,,,,,,,,,,,,,,,,,,,,,,,,,,,,,,,,,,,,,,,,,,,,,,,,,,,,,,,,,,,,,,,,,,,,,,,,,,,,,,
,,613ad089983f33fc8194d601,2024-02-18_20h16.40.635,kallum_motion_pilot,2023.2.2,Win32,59.88023952,613ad089983f33fc8194d601,65d2b6c8f2eece985d8e374c,65d2b7c396fa611396bffafc,0.0648,0.0648,1,71,233,44,1,threeone,,,,,,,,,,,,,,,,,,,,,,,,,,,,,,,,,,,,,,,,,,,,,,,,,,,,,,,,,,,,,,,,,,,,,,,,,,,,,,,,,,,,,,,,,,,,,,,,,,,,,,,,,,,,,,,,,,,,,,,,,,,,,,,,,,,,,,,,,
,,613ad089983f33fc8194d601,2024-02-18_20h16.40.635,kallum_motion_pilot,2023.2.2,Win32,59.88023952,613ad089983f33fc8194d601,65d2b6c8f2eece985d8e374c,65d2b7c396fa611396bffafc,0.065,0.065,1,72,234,84,1,sevenfive,,,,,,,,,,,,,,,,,,,,,,,,,,,,,,,,,,,,,,,,,,,,,,,,,,,,,,,,,,,,,,,,,,,,,,,,,,,,,,,,,,,,,,,,,,,,,,,,,,,,,,,,,,,,,,,,,,,,,,,,,,,,,,,,,,,,,,,,,
,,613ad089983f33fc8194d601,2024-02-18_20h16.40.635,kallum_motion_pilot,2023.2.2,Win32,59.88023952,613ad089983f33fc8194d601,65d2b6c8f2eece985d8e374c,65d2b7c396fa611396bffafc,0.0651,0.0651,1,73,235,117,1,seveneight,,,,,,,,,,,,,,,,,,,,,,,,,,,,,,,,,,,,,,,,,,,,,,,,,,,,,,,,,,,,,,,,,,,,,,,,,,,,,,,,,,,,,,,,,,,,,,,,,,,,,,,,,,,,,,,,,,,,,,,,,,,,,,,,,,,,,,,,,
,,613ad089983f33fc8194d601,2024-02-18_20h16.40.635,kallum_motion_pilot,2023.2.2,Win32,59.88023952,613ad089983f33fc8194d601,65d2b6c8f2eece985d8e374c,65d2b7c396fa611396bffafc,0.0652,0.0652,1,74,236,118,1,eightsix,,,,,,,,,,,,,,,,,,,,,,,,,,,,,,,,,,,,,,,,,,,,,,,,,,,,,,,,,,,,,,,,,,,,,,,,,,,,,,,,,,,,,,,,,,,,,,,,,,,,,,,,,,,,,,,,,,,,,,,,,,,,,,,,,,,,,,,,,
,,613ad089983f33fc8194d601,2024-02-18_20h16.40.635,kallum_motion_pilot,2023.2.2,Win32,59.88023952,613ad089983f33fc8194d601,65d2b6c8f2eece985d8e374c,65d2b7c396fa611396bffafc,0.0653,0.0654,1,75,237,158,1,eightsix,,,,,,,,,,,,,,,,,,,,,,,,,,,,,,,,,,,,,,,,,,,,,,,,,,,,,,,,,,,,,,,,,,,,,,,,,,,,,,,,,,,,,,,,,,,,,,,,,,,,,,,,,,,,,,,,,,,,,,,,,,,,,,,,,,,,,,,,,
,,613ad089983f33fc8194d601,2024-02-18_20h16.40.635,kallum_motion_pilot,2023.2.2,Win32,59.88023952,613ad089983f33fc8194d601,65d2b6c8f2eece985d8e374c,65d2b7c396fa611396bffafc,0.0659,0.066,1,76,238,55,1,fourthree,,,,,,,,,,,,,,,,,,,,,,,,,,,,,,,,,,,,,,,,,,,,,,,,,,,,,,,,,,,,,,,,,,,,,,,,,,,,,,,,,,,,,,,,,,,,,,,,,,,,,,,,,,,,,,,,,,,,,,,,,,,,,,,,,,,,,,,,,
,,613ad089983f33fc8194d601,2024-02-18_20h16.40.635,kallum_motion_pilot,2023.2.2,Win32,59.88023952,613ad089983f33fc8194d601,65d2b6c8f2eece985d8e374c,65d2b7c396fa611396bffafc,0.0662,0.0662,1,77,239,159,1,eightseven,,,,,,,,,,,,,,,,,,,,,,,,,,,,,,,,,,,,,,,,,,,,,,,,,,,,,,,,,,,,,,,,,,,,,,,,,,,,,,,,,,,,,,,,,,,,,,,,,,,,,,,,,,,,,,,,,,,,,,,,,,,,,,,,,,,,,,,,,
,,613ad089983f33fc8194d601,2024-02-18_20h16.40.635,kallum_motion_pilot,2023.2.2,Win32,59.88023952,613ad089983f33fc8194d601,65d2b6c8f2eece985d8e374c,65d2b7c396fa611396bffafc,0.0663,0.0664,1,78,240,99,1,sixeight,,,,,,,,,,,,,,,,,,,,,,,,,,,,,,,,,,,,,,,,,,,,,,,,,,,,,,,,,,,,,,,,,,,,,,,,,,,,,,,,,,,,,,,,,,,,,,,,,,,,,,,,,,,,,,,,,,,,,,,,,,,,,,,,,,,,,,,,,
,,613ad089983f33fc8194d601,2024-02-18_20h16.40.635,kallum_motion_pilot,2023.2.2,Win32,59.88023952,613ad089983f33fc8194d601,65d2b6c8f2eece985d8e374c,65d2b7c396fa611396bffafc,0.0665,0.0666,1,79,241,63,1,fourthree,,,,,,,,,,,,,,,,,,,,,,,,,,,,,,,,,,,,,,,,,,,,,,,,,,,,,,,,,,,,,,,,,,,,,,,,,,,,,,,,,,,,,,,,,,,,,,,,,,,,,,,,,,,,,,,,,,,,,,,,,,,,,,,,,,,,,,,,,
,,613ad089983f33fc8194d601,2024-02-18_20h16.40.635,kallum_motion_pilot,2023.2.2,Win32,59.88023952,613ad089983f33fc8194d601,65d2b6c8f2eece985d8e374c,65d2b7c396fa611396bffafc,0.0667,0.0668,1,80,242,23,1,fourthree,,,,,,,,,,,,,,,,,,,,,,,,,,,,,,,,,,,,,,,,,,,,,,,,,,,,,,,,,,,,,,,,,,,,,,,,,,,,,,,,,,,,,,,,,,,,,,,,,,,,,,,,,,,,,,,,,,,,,,,,,,,,,,,,,,,,,,,,,
,,613ad089983f33fc8194d601,2024-02-18_20h16.40.635,kallum_motion_pilot,2023.2.2,Win32,59.88023952,613ad089983f33fc8194d601,65d2b6c8f2eece985d8e374c,65d2b7c396fa611396bffafc,0.0669,0.0669,1,81,243,136,1,fivesix,,,,,,,,,,,,,,,,,,,,,,,,,,,,,,,,,,,,,,,,,,,,,,,,,,,,,,,,,,,,,,,,,,,,,,,,,,,,,,,,,,,,,,,,,,,,,,,,,,,,,,,,,,,,,,,,,,,,,,,,,,,,,,,,,,,,,,,,,
,,613ad089983f33fc8194d601,2024-02-18_20h16.40.635,kallum_motion_pilot,2023.2.2,Win32,59.88023952,613ad089983f33fc8194d601,65d2b6c8f2eece985d8e374c,65d2b7c396fa611396bffafc,0.067,0.0671,1,82,244,156,1,sevenfive,,,,,,,,,,,,,,,,,,,,,,,,,,,,,,,,,,,,,,,,,,,,,,,,,,,,,,,,,,,,,,,,,,,,,,,,,,,,,,,,,,,,,,,,,,,,,,,,,,,,,,,,,,,,,,,,,,,,,,,,,,,,,,,,,,,,,,,,,
,,613ad089983f33fc8194d601,2024-02-18_20h16.40.635,kallum_motion_pilot,2023.2.2,Win32,59.88023952,613ad089983f33fc8194d601,65d2b6c8f2eece985d8e374c,65d2b7c396fa611396bffafc,0.0672,0.0672,1,83,245,69,1,threefour,,,,,,,,,,,,,,,,,,,,,,,,,,,,,,,,,,,,,,,,,,,,,,,,,,,,,,,,,,,,,,,,,,,,,,,,,,,,,,,,,,,,,,,,,,,,,,,,,,,,,,,,,,,,,,,,,,,,,,,,,,,,,,,,,,,,,,,,,
,,613ad089983f33fc8194d601,2024-02-18_20h16.40.635,kallum_motion_pilot,2023.2.2,Win32,59.88023952,613ad089983f33fc8194d601,65d2b6c8f2eece985d8e374c,65d2b7c396fa611396bffafc,0.0673,0.0674,1,84,246,86,1,eightsix,,,,,,,,,,,,,,,,,,,,,,,,,,,,,,,,,,,,,,,,,,,,,,,,,,,,,,,,,,,,,,,,,,,,,,,,,,,,,,,,,,,,,,,,,,,,,,,,,,,,,,,,,,,,,,,,,,,,,,,,,,,,,,,,,,,,,,,,,
,,613ad089983f33fc8194d601,2024-02-18_20h16.40.635,kallum_motion_pilot,2023.2.2,Win32,59.88023952,613ad089983f33fc8194d601,65d2b6c8f2eece985d8e374c,65d2b7c396fa611396bffafc,0.0675,0.0676,1,85,247,153,1,fiveseven,,,,,,,,,,,,,,,,,,,,,,,,,,,,,,,,,,,,,,,,,,,,,,,,,,,,,,,,,,,,,,,,,,,,,,,,,,,,,,,,,,,,,,,,,,,,,,,,,,,,,,,,,,,,,,,,,,,,,,,,,,,,,,,,,,,,,,,,,
,,613ad089983f33fc8194d601,2024-02-18_20h16.40.635,kallum_motion_pilot,2023.2.2,Win32,59.88023952,613ad089983f33fc8194d601,65d2b6c8f2eece985d8e374c,65d2b7c396fa611396bffafc,0.0676,0.0678,1,86,248,15,1,fourthree,,,,,,,,,,,,,,,,,,,,,,,,,,,,,,,,,,,,,,,,,,,,,,,,,,,,,,,,,,,,,,,,,,,,,,,,,,,,,,,,,,,,,,,,,,,,,,,,,,,,,,,,,,,,,,,,,,,,,,,,,,,,,,,,,,,,,,,,,
,,613ad089983f33fc8194d601,2024-02-18_20h16.40.635,kallum_motion_pilot,2023.2.2,Win32,59.88023952,613ad089983f33fc8194d601,65d2b6c8f2eece985d8e374c,65d2b7c396fa611396bffafc,0.0678,0.0679,1,87,249,120,1,fivesix,,,,,,,,,,,,,,,,,,,,,,,,,,,,,,,,,,,,,,,,,,,,,,,,,,,,,,,,,,,,,,,,,,,,,,,,,,,,,,,,,,,,,,,,,,,,,,,,,,,,,,,,,,,,,,,,,,,,,,,,,,,,,,,,,,,,,,,,,
,,613ad089983f33fc8194d601,2024-02-18_20h16.40.635,kallum_motion_pilot,2023.2.2,Win32,59.88023952,613ad089983f33fc8194d601,65d2b6c8f2eece985d8e374c,65d2b7c396fa611396bffafc,0.068,0.068,1,88,250,56,1,onetwo,,,,,,,,,,,,,,,,,,,,,,,,,,,,,,,,,,,,,,,,,,,,,,,,,,,,,,,,,,,,,,,,,,,,,,,,,,,,,,,,,,,,,,,,,,,,,,,,,,,,,,,,,,,,,,,,,,,,,,,,,,,,,,,,,,,,,,,,,
,,613ad089983f33fc8194d601,2024-02-18_20h16.40.635,kallum_motion_pilot,2023.2.2,Win32,59.88023952,613ad089983f33fc8194d601,65d2b6c8f2eece985d8e374c,65d2b7c396fa611396bffafc,0.0681,0.0682,1,89,251,106,1,sixfive,,,,,,,,,,,,,,,,,,,,,,,,,,,,,,,,,,,,,,,,,,,,,,,,,,,,,,,,,,,,,,,,,,,,,,,,,,,,,,,,,,,,,,,,,,,,,,,,,,,,,,,,,,,,,,,,,,,,,,,,,,,,,,,,,,,,,,,,,
,,613ad089983f33fc8194d601,2024-02-18_20h16.40.635,kallum_motion_pilot,2023.2.2,Win32,59.88023952,613ad089983f33fc8194d601,65d2b6c8f2eece985d8e374c,65d2b7c396fa611396bffafc,0.0683,0.0684,1,90,252,94,1,eightsix,,,,,,,,,,,,,,,,,,,,,,,,,,,,,,,,,,,,,,,,,,,,,,,,,,,,,,,,,,,,,,,,,,,,,,,,,,,,,,,,,,,,,,,,,,,,,,,,,,,,,,,,,,,,,,,,,,,,,,,,,,,,,,,,,,,,,,,,,
,,613ad089983f33fc8194d601,2024-02-18_20h16.40.635,kallum_motion_pilot,2023.2.2,Win32,59.88023952,613ad089983f33fc8194d601,65d2b6c8f2eece985d8e374c,65d2b7c396fa611396bffafc,0.0685,0.0685,1,91,253,46,1,fourtwo,,,,,,,,,,,,,,,,,,,,,,,,,,,,,,,,,,,,,,,,,,,,,,,,,,,,,,,,,,,,,,,,,,,,,,,,,,,,,,,,,,,,,,,,,,,,,,,,,,,,,,,,,,,,,,,,,,,,,,,,,,,,,,,,,,,,,,,,,
,,613ad089983f33fc8194d601,2024-02-18_20h16.40.635,kallum_motion_pilot,2023.2.2,Win32,59.88023952,613ad089983f33fc8194d601,65d2b6c8f2eece985d8e374c,65d2b7c396fa611396bffafc,0.0686,0.0688,1,92,254,137,1,fiveseven,,,,,,,,,,,,,,,,,,,,,,,,,,,,,,,,,,,,,,,,,,,,,,,,,,,,,,,,,,,,,,,,,,,,,,,,,,,,,,,,,,,,,,,,,,,,,,,,,,,,,,,,,,,,,,,,,,,,,,,,,,,,,,,,,,,,,,,,,
,,613ad089983f33fc8194d601,2024-02-18_20h16.40.635,kallum_motion_pilot,2023.2.2,Win32,59.88023952,613ad089983f33fc8194d601,65d2b6c8f2eece985d8e374c,65d2b7c396fa611396bffafc,0.0688,0.069,1,93,255,1,1,onethree,,,,,,,,,,,,,,,,,,,,,,,,,,,,,,,,,,,,,,,,,,,,,,,,,,,,,,,,,,,,,,,,,,,,,,,,,,,,,,,,,,,,,,,,,,,,,,,,,,,,,,,,,,,,,,,,,,,,,,,,,,,,,,,,,,,,,,,,,
,,613ad089983f33fc8194d601,2024-02-18_20h16.40.635,kallum_motion_pilot,2023.2.2,Win32,59.88023952,613ad089983f33fc8194d601,65d2b6c8f2eece985d8e374c,65d2b7c396fa611396bffafc,0.069,0.0691,1,94,256,49,1,onethree,,,,,,,,,,,,,,,,,,,,,,,,,,,,,,,,,,,,,,,,,,,,,,,,,,,,,,,,,,,,,,,,,,,,,,,,,,,,,,,,,,,,,,,,,,,,,,,,,,,,,,,,,,,,,,,,,,,,,,,,,,,,,,,,,,,,,,,,,
,,613ad089983f33fc8194d601,2024-02-18_20h16.40.635,kallum_motion_pilot,2023.2.2,Win32,59.88023952,613ad089983f33fc8194d601,65d2b6c8f2eece985d8e374c,65d2b7c396fa611396bffafc,0.0692,0.0693,1,95,257,95,1,eightseven,,,,,,,,,,,,,,,,,,,,,,,,,,,,,,,,,,,,,,,,,,,,,,,,,,,,,,,,,,,,,,,,,,,,,,,,,,,,,,,,,,,,,,,,,,,,,,,,,,,,,,,,,,,,,,,,,,,,,,,,,,,,,,,,,,,,,,,,,
,,613ad089983f33fc8194d601,2024-02-18_20h16.40.635,kallum_motion_pilot,2023.2.2,Win32,59.88023952,613ad089983f33fc8194d601,65d2b6c8f2eece985d8e374c,65d2b7c396fa611396bffafc,0.0693,0.0695,1,96,258,51,1,twofour,,,,,,,,,,,,,,,,,,,,,,,,,,,,,,,,,,,,,,,,,,,,,,,,,,,,,,,,,,,,,,,,,,,,,,,,,,,,,,,,,,,,,,,,,,,,,,,,,,,,,,,,,,,,,,,,,,,,,,,,,,,,,,,,,,,,,,,,,
,,613ad089983f33fc8194d601,2024-02-18_20h16.40.635,kallum_motion_pilot,2023.2.2,Win32,59.88023952,613ad089983f33fc8194d601,65d2b6c8f2eece985d8e374c,65d2b7c396fa611396bffafc,0.0696,0.0697,1,97,259,89,1,fiveseven,,,,,,,,,,,,,,,,,,,,,,,,,,,,,,,,,,,,,,,,,,,,,,,,,,,,,,,,,,,,,,,,,,,,,,,,,,,,,,,,,,,,,,,,,,,,,,,,,,,,,,,,,,,,,,,,,,,,,,,,,,,,,,,,,,,,,,,,,
,,613ad089983f33fc8194d601,2024-02-18_20h16.40.635,kallum_motion_pilot,2023.2.2,Win32,59.88023952,613ad089983f33fc8194d601,65d2b6c8f2eece985d8e374c,65d2b7c396fa611396bffafc,0.0697,0.0698,1,98,260,154,1,sixfive,,,,,,,,,,,,,,,,,,,,,,,,,,,,,,,,,,,,,,,,,,,,,,,,,,,,,,,,,,,,,,,,,,,,,,,,,,,,,,,,,,,,,,,,,,,,,,,,,,,,,,,,,,,,,,,,,,,,,,,,,,,,,,,,,,,,,,,,,
,,613ad089983f33fc8194d601,2024-02-18_20h16.40.635,kallum_motion_pilot,2023.2.2,Win32,59.88023952,613ad089983f33fc8194d601,65d2b6c8f2eece985d8e374c,65d2b7c396fa611396bffafc,0.0699,0.0699,1,99,261,115,1,sixeight,,,,,,,,,,,,,,,,,,,,,,,,,,,,,,,,,,,,,,,,,,,,,,,,,,,,,,,,,,,,,,,,,,,,,,,,,,,,,,,,,,,,,,,,,,,,,,,,,,,,,,,,,,,,,,,,,,,,,,,,,,,,,,,,,,,,,,,,,
,,613ad089983f33fc8194d601,2024-02-18_20h16.40.635,kallum_motion_pilot,2023.2.2,Win32,59.88023952,613ad089983f33fc8194d601,65d2b6c8f2eece985d8e374c,65d2b7c396fa611396bffafc,0.07,0.0701,1,100,262,92,1,sevenfive,,,,,,,,,,,,,,,,,,,,,,,,,,,,,,,,,,,,,,,,,,,,,,,,,,,,,,,,,,,,,,,,,,,,,,,,,,,,,,,,,,,,,,,,,,,,,,,,,,,,,,,,,,,,,,,,,,,,,,,,,,,,,,,,,,,,,,,,,
,,613ad089983f33fc8194d601,2024-02-18_20h16.40.635,kallum_motion_pilot,2023.2.2,Win32,59.88023952,613ad089983f33fc8194d601,65d2b6c8f2eece985d8e374c,65d2b7c396fa611396bffafc,0.0702,0.0702,1,101,263,139,1,sixeight,,,,,,,,,,,,,,,,,,,,,,,,,,,,,,,,,,,,,,,,,,,,,,,,,,,,,,,,,,,,,,,,,,,,,,,,,,,,,,,,,,,,,,,,,,,,,,,,,,,,,,,,,,,,,,,,,,,,,,,,,,,,,,,,,,,,,,,,,
,,613ad089983f33fc8194d601,2024-02-18_20h16.40.635,kallum_motion_pilot,2023.2.2,Win32,59.88023952,613ad089983f33fc8194d601,65d2b6c8f2eece985d8e374c,65d2b7c396fa611396bffafc,0.0704,0.0705,1,102,264,28,1,threeone,,,,,,,,,,,,,,,,,,,,,,,,,,,,,,,,,,,,,,,,,,,,,,,,,,,,,,,,,,,,,,,,,,,,,,,,,,,,,,,,,,,,,,,,,,,,,,,,,,,,,,,,,,,,,,,,,,,,,,,,,,,,,,,,,,,,,,,,,
,,613ad089983f33fc8194d601,2024-02-18_20h16.40.635,kallum_motion_pilot,2023.2.2,Win32,59.88023952,613ad089983f33fc8194d601,65d2b6c8f2eece985d8e374c,65d2b7c396fa611396bffafc,0.0706,0.0707,1,103,265,29,1,threefour,,,,,,,,,,,,,,,,,,,,,,,,,,,,,,,,,,,,,,,,,,,,,,,,,,,,,,,,,,,,,,,,,,,,,,,,,,,,,,,,,,,,,,,,,,,,,,,,,,,,,,,,,,,,,,,,,,,,,,,,,,,,,,,,,,,,,,,,,
,,613ad089983f33fc8194d601,2024-02-18_20h16.40.635,kallum_motion_pilot,2023.2.2,Win32,59.88023952,613ad089983f33fc8194d601,65d2b6c8f2eece985d8e374c,65d2b7c396fa611396bffafc,0.0708,0.0708,1,104,266,30,1,fourtwo,,,,,,,,,,,,,,,,,,,,,,,,,,,,,,,,,,,,,,,,,,,,,,,,,,,,,,,,,,,,,,,,,,,,,,,,,,,,,,,,,,,,,,,,,,,,,,,,,,,,,,,,,,,,,,,,,,,,,,,,,,,,,,,,,,,,,,,,,
,,613ad089983f33fc8194d601,2024-02-18_20h16.40.635,kallum_motion_pilot,2023.2.2,Win32,59.88023952,613ad089983f33fc8194d601,65d2b6c8f2eece985d8e374c,65d2b7c396fa611396bffafc,0.071,0.0711,1,105,267,45,1,threefour,,,,,,,,,,,,,,,,,,,,,,,,,,,,,,,,,,,,,,,,,,,,,,,,,,,,,,,,,,,,,,,,,,,,,,,,,,,,,,,,,,,,,,,,,,,,,,,,,,,,,,,,,,,,,,,,,,,,,,,,,,,,,,,,,,,,,,,,,
,,613ad089983f33fc8194d601,2024-02-18_20h16.40.635,kallum_motion_pilot,2023.2.2,Win32,59.88023952,613ad089983f33fc8194d601,65d2b6c8f2eece985d8e374c,65d2b7c396fa611396bffafc,0.0711,0.0712,1,106,268,64,1,onetwo,,,,,,,,,,,,,,,,,,,,,,,,,,,,,,,,,,,,,,,,,,,,,,,,,,,,,,,,,,,,,,,,,,,,,,,,,,,,,,,,,,,,,,,,,,,,,,,,,,,,,,,,,,,,,,,,,,,,,,,,,,,,,,,,,,,,,,,,,
,,613ad089983f33fc8194d601,2024-02-18_20h16.40.635,kallum_motion_pilot,2023.2.2,Win32,59.88023952,613ad089983f33fc8194d601,65d2b6c8f2eece985d8e374c,65d2b7c396fa611396bffafc,0.0713,0.0714,1,107,269,97,1,fiveseven,,,,,,,,,,,,,,,,,,,,,,,,,,,,,,,,,,,,,,,,,,,,,,,,,,,,,,,,,,,,,,,,,,,,,,,,,,,,,,,,,,,,,,,,,,,,,,,,,,,,,,,,,,,,,,,,,,,,,,,,,,,,,,,,,,,,,,,,,
,,613ad089983f33fc8194d601,2024-02-18_20h16.40.635,kallum_motion_pilot,2023.2.2,Win32,59.88023952,613ad089983f33fc8194d601,65d2b6c8f2eece985d8e374c,65d2b7c396fa611396bffafc,0.0714,0.0716,1,108,270,9,1,onethree,,,,,,,,,,,,,,,,,,,,,,,,,,,,,,,,,,,,,,,,,,,,,,,,,,,,,,,,,,,,,,,,,,,,,,,,,,,,,,,,,,,,,,,,,,,,,,,,,,,,,,,,,,,,,,,,,,,,,,,,,,,,,,,,,,,,,,,,,
,,613ad089983f33fc8194d601,2024-02-18_20h16.40.635,kallum_motion_pilot,2023.2.2,Win32,59.88023952,613ad089983f33fc8194d601,65d2b6c8f2eece985d8e374c,65d2b7c396fa611396bffafc,0.0716,0.0717,1,109,271,73,1,onethree,,,,,,,,,,,,,,,,,,,,,,,,,,,,,,,,,,,,,,,,,,,,,,,,,,,,,,,,,,,,,,,,,,,,,,,,,,,,,,,,,,,,,,,,,,,,,,,,,,,,,,,,,,,,,,,,,,,,,,,,,,,,,,,,,,,,,,,,,
,,613ad089983f33fc8194d601,2024-02-18_20h16.40.635,kallum_motion_pilot,2023.2.2,Win32,59.88023952,613ad089983f33fc8194d601,65d2b6c8f2eece985d8e374c,65d2b7c396fa611396bffafc,0.0718,0.0719,1,110,272,34,1,twoone,,,,,,,,,,,,,,,,,,,,,,,,,,,,,,,,,,,,,,,,,,,,,,,,,,,,,,,,,,,,,,,,,,,,,,,,,,,,,,,,,,,,,,,,,,,,,,,,,,,,,,,,,,,,,,,,,,,,,,,,,,,,,,,,,,,,,,,,,
,,613ad089983f33fc8194d601,2024-02-18_20h16.40.635,kallum_motion_pilot,2023.2.2,Win32,59.88023952,613ad089983f33fc8194d601,65d2b6c8f2eece985d8e374c,65d2b7c396fa611396bffafc,0.072,0.0721,1,111,273,74,1,twoone,,,,,,,,,,,,,,,,,,,,,,,,,,,,,,,,,,,,,,,,,,,,,,,,,,,,,,,,,,,,,,,,,,,,,,,,,,,,,,,,,,,,,,,,,,,,,,,,,,,,,,,,,,,,,,,,,,,,,,,,,,,,,,,,,,,,,,,,,
,,613ad089983f33fc8194d601,2024-02-18_20h16.40.635,kallum_motion_pilot,2023.2.2,Win32,59.88023952,613ad089983f33fc8194d601,65d2b6c8f2eece985d8e374c,65d2b7c396fa611396bffafc,0.0722,0.0723,1,112,274,22,1,fourtwo,,,,,,,,,,,,,,,,,,,,,,,,,,,,,,,,,,,,,,,,,,,,,,,,,,,,,,,,,,,,,,,,,,,,,,,,,,,,,,,,,,,,,,,,,,,,,,,,,,,,,,,,,,,,,,,,,,,,,,,,,,,,,,,,,,,,,,,,,
,,613ad089983f33fc8194d601,2024-02-18_20h16.40.635,kallum_motion_pilot,2023.2.2,Win32,59.88023952,613ad089983f33fc8194d601,65d2b6c8f2eece985d8e374c,65d2b7c396fa611396bffafc,0.0723,0.0724,1,113,275,79,1,eightseven,,,,,,,,,,,,,,,,,,,,,,,,,,,,,,,,,,,,,,,,,,,,,,,,,,,,,,,,,,,,,,,,,,,,,,,,,,,,,,,,,,,,,,,,,,,,,,,,,,,,,,,,,,,,,,,,,,,,,,,,,,,,,,,,,,,,,,,,,
,,613ad089983f33fc8194d601,2024-02-18_20h16.40.635,kallum_motion_pilot,2023.2.2,Win32,59.88023952,613ad089983f33fc8194d601,65d2b6c8f2eece985d8e374c,65d2b7c396fa611396bffafc,0.0725,0.0726,1,114,276,113,1,fiveseven,,,,,,,,,,,,,,,,,,,,,,,,,,,,,,,,,,,,,,,,,,,,,,,,,,,,,,,,,,,,,,,,,,,,,,,,,,,,,,,,,,,,,,,,,,,,,,,,,,,,,,,,,,,,,,,,,,,,,,,,,,,,,,,,,,,,,,,,,
,,613ad089983f33fc8194d601,2024-02-18_20h16.40.635,kallum_motion_pilot,2023.2.2,Win32,59.88023952,613ad089983f33fc8194d601,65d2b6c8f2eece985d8e374c,65d2b7c396fa611396bffafc,0.0726,0.0728,1,115,277,131,1,sixeight,,,,,,,,,,,,,,,,,,,,,,,,,,,,,,,,,,,,,,,,,,,,,,,,,,,,,,,,,,,,,,,,,,,,,,,,,,,,,,,,,,,,,,,,,,,,,,,,,,,,,,,,,,,,,,,,,,,,,,,,,,,,,,,,,,,,,,,,,
