startup.started,startup.stopped,Prolific ID*,date,expName,psychopyVersion,OS,frameRate,participant,study_id,session,stimpositions.started,stimpositions.stopped,hardcoded_stimulus_positions.thisRepN,hardcoded_stimulus_positions.thisTrialN,hardcoded_stimulus_positions.thisN,hardcoded_stimulus_positions.thisIndex,hardcoded_stimulus_positions.ran,StimulusPos,stimorientation.started,stimorientation.stopped,prac_stimorientation_import_loop.thisRepN,prac_stimorientation_import_loop.thisTrialN,prac_stimorientation_import_loop.thisN,prac_stimorientation_import_loop.thisIndex,prac_stimorientation_import_loop.ran,Stimorientation,welcome_instr.started,welcome_instr.stopped,key_resp.keys,key_resp.rt,key_resp.duration,response_steppedout_1.started,response_steppedout_1.stopped,key_resp_20.keys,key_resp_20.rt,key_resp_20.duration,response_steppedout_2.started,response_steppedout_2.stopped,key_resp_19.keys,key_resp_19.rt,key_resp_19.duration,stim_response_instr.started,stim_response_instr.stopped,key_resp_15.keys,key_resp_15.rt,key_resp_15.duration,direction_instr_2.started,direction_instr_2.stopped,key_resp_9.keys,key_resp_9.rt,key_resp_9.duration,instr_prac.started,instr_prac.stopped,key_resp_10.keys,key_resp_10.rt,key_resp_10.duration,Stim1_display_prac.started,Stim1_display_prac.stopped,Ecc,Circle1_ori,Circle2_ori,response_prac.started,similarity,response_time,response_prac.stopped,mouse_5.x,mouse_5.y,mouse_5.leftButton,mouse_5.midButton,mouse_5.rightButton,mouse_5.clicked_name,responseprac_feedback.started,responseprac_feedback.stopped,summary2_prac.started,summary2_prac.stopped,mouse_6.x,mouse_6.y,mouse_6.leftButton,mouse_6.midButton,mouse_6.rightButton,mouse_6.clicked_name,duringprac.thisRepN,duringprac.thisTrialN,duringprac.thisN,duringprac.thisIndex,duringprac.ran,begin.started,begin.stopped,key_resp_22.keys,key_resp_22.rt,key_resp_22.duration,Stim1_display.started,Stim1_display.stopped,circle1_ori,circle2_ori,circle1_SF,circle2_SF,response.started,response.stopped,mouse.x,mouse.y,mouse.leftButton,mouse.midButton,mouse.rightButton,mouse.clicked_name,trialnumber,double_pass.thisRepN,double_pass.thisTrialN,double_pass.thisN,double_pass.thisIndex,double_pass.ran,double_pass.order,main_trial.thisRepN,main_trial.thisTrialN,main_trial.thisN,main_trial.thisIndex,main_trial.ran,main_trial.order,Trial_Counter,Catch,Frequencies,response_2.started,response_2.stopped,mouse_2.x,mouse_2.y,mouse_2.leftButton,mouse_2.midButton,mouse_2.rightButton,mouse_2.clicked_name,special_trial.started,special_trial.stopped,catch_1.started,catch_1.stopped,mouse_3.x,mouse_3.y,mouse_3.leftButton,mouse_3.midButton,mouse_3.rightButton,catchresponse,catchnumber,response_time_catch,response_sum.started,response_sum.stopped,mouse_11.x,mouse_11.y,mouse_11.leftButton,mouse_11.midButton,mouse_11.rightButton,flip_presentation_sequence_for_double_pass.started,flip_presentation_sequence_for_double_pass.stopped,goodbye.started,goodbye.stopped,key_resp_3.keys,key_resp_3.rt,key_resp_3.duration
0.0018,0.0019,613be225b62729f678a7e0ea,2024-02-18_20h31.28.068,kallum_motion_pilot,2023.2.2,Win32,58.47953217,613be225b62729f678a7e0ea,65d2b6c8f2eece985d8e374c,65d2b83ef2cdb579bb1760b3,,,,,,,,,,,,,,,,,,,,,,,,,,,,,,,,,,,,,,,,,,,,,,,,,,,,,,,,,,,,,,,,,,,,,,,,,,,,,,,,,,,,,,,,,,,,,,,,,,,,,,,,,,,,,,,,,,,,,,,,,,,,,,,,,,,,,,,,,,,,,,,,,
,,613be225b62729f678a7e0ea,2024-02-18_20h31.28.068,kallum_motion_pilot,2023.2.2,Win32,58.47953217,613be225b62729f678a7e0ea,65d2b6c8f2eece985d8e374c,65d2b83ef2cdb579bb1760b3,0.038,0.0383,0,0,0,51,1,twofour,,,,,,,,,,,,,,,,,,,,,,,,,,,,,,,,,,,,,,,,,,,,,,,,,,,,,,,,,,,,,,,,,,,,,,,,,,,,,,,,,,,,,,,,,,,,,,,,,,,,,,,,,,,,,,,,,,,,,,,,,,,,,,,,,,,,,,,,,
,,613be225b62729f678a7e0ea,2024-02-18_20h31.28.068,kallum_motion_pilot,2023.2.2,Win32,58.47953217,613be225b62729f678a7e0ea,65d2b6c8f2eece985d8e374c,65d2b83ef2cdb579bb1760b3,0.0387,0.0387,0,1,1,63,1,fourthree,,,,,,,,,,,,,,,,,,,,,,,,,,,,,,,,,,,,,,,,,,,,,,,,,,,,,,,,,,,,,,,,,,,,,,,,,,,,,,,,,,,,,,,,,,,,,,,,,,,,,,,,,,,,,,,,,,,,,,,,,,,,,,,,,,,,,,,,,
,,613be225b62729f678a7e0ea,2024-02-18_20h31.28.068,kallum_motion_pilot,2023.2.2,Win32,58.47953217,613be225b62729f678a7e0ea,65d2b6c8f2eece985d8e374c,65d2b83ef2cdb579bb1760b3,0.0389,0.039,0,2,2,56,1,onetwo,,,,,,,,,,,,,,,,,,,,,,,,,,,,,,,,,,,,,,,,,,,,,,,,,,,,,,,,,,,,,,,,,,,,,,,,,,,,,,,,,,,,,,,,,,,,,,,,,,,,,,,,,,,,,,,,,,,,,,,,,,,,,,,,,,,,,,,,,
,,613be225b62729f678a7e0ea,2024-02-18_20h31.28.068,kallum_motion_pilot,2023.2.2,Win32,58.47953217,613be225b62729f678a7e0ea,65d2b6c8f2eece985d8e374c,65d2b83ef2cdb579bb1760b3,0.0392,0.0393,0,3,3,141,1,seveneight,,,,,,,,,,,,,,,,,,,,,,,,,,,,,,,,,,,,,,,,,,,,,,,,,,,,,,,,,,,,,,,,,,,,,,,,,,,,,,,,,,,,,,,,,,,,,,,,,,,,,,,,,,,,,,,,,,,,,,,,,,,,,,,,,,,,,,,,,
,,613be225b62729f678a7e0ea,2024-02-18_20h31.28.068,kallum_motion_pilot,2023.2.2,Win32,58.47953217,613be225b62729f678a7e0ea,65d2b6c8f2eece985d8e374c,65d2b83ef2cdb579bb1760b3,0.0397,0.0398,0,4,4,35,1,twofour,,,,,,,,,,,,,,,,,,,,,,,,,,,,,,,,,,,,,,,,,,,,,,,,,,,,,,,,,,,,,,,,,,,,,,,,,,,,,,,,,,,,,,,,,,,,,,,,,,,,,,,,,,,,,,,,,,,,,,,,,,,,,,,,,,,,,,,,,
,,613be225b62729f678a7e0ea,2024-02-18_20h31.28.068,kallum_motion_pilot,2023.2.2,Win32,58.47953217,613be225b62729f678a7e0ea,65d2b6c8f2eece985d8e374c,65d2b83ef2cdb579bb1760b3,0.0399,0.04,0,5,5,114,1,sixfive,,,,,,,,,,,,,,,,,,,,,,,,,,,,,,,,,,,,,,,,,,,,,,,,,,,,,,,,,,,,,,,,,,,,,,,,,,,,,,,,,,,,,,,,,,,,,,,,,,,,,,,,,,,,,,,,,,,,,,,,,,,,,,,,,,,,,,,,,
,,613be225b62729f678a7e0ea,2024-02-18_20h31.28.068,kallum_motion_pilot,2023.2.2,Win32,58.47953217,613be225b62729f678a7e0ea,65d2b6c8f2eece985d8e374c,65d2b83ef2cdb579bb1760b3,0.0402,0.0403,0,6,6,111,1,eightseven,,,,,,,,,,,,,,,,,,,,,,,,,,,,,,,,,,,,,,,,,,,,,,,,,,,,,,,,,,,,,,,,,,,,,,,,,,,,,,,,,,,,,,,,,,,,,,,,,,,,,,,,,,,,,,,,,,,,,,,,,,,,,,,,,,,,,,,,,
,,613be225b62729f678a7e0ea,2024-02-18_20h31.28.068,kallum_motion_pilot,2023.2.2,Win32,58.47953217,613be225b62729f678a7e0ea,65d2b6c8f2eece985d8e374c,65d2b83ef2cdb579bb1760b3,0.0404,0.0405,0,7,7,150,1,eightsix,,,,,,,,,,,,,,,,,,,,,,,,,,,,,,,,,,,,,,,,,,,,,,,,,,,,,,,,,,,,,,,,,,,,,,,,,,,,,,,,,,,,,,,,,,,,,,,,,,,,,,,,,,,,,,,,,,,,,,,,,,,,,,,,,,,,,,,,,
,,613be225b62729f678a7e0ea,2024-02-18_20h31.28.068,kallum_motion_pilot,2023.2.2,Win32,58.47953217,613be225b62729f678a7e0ea,65d2b6c8f2eece985d8e374c,65d2b83ef2cdb579bb1760b3,0.041,0.0411,0,8,8,127,1,eightseven,,,,,,,,,,,,,,,,,,,,,,,,,,,,,,,,,,,,,,,,,,,,,,,,,,,,,,,,,,,,,,,,,,,,,,,,,,,,,,,,,,,,,,,,,,,,,,,,,,,,,,,,,,,,,,,,,,,,,,,,,,,,,,,,,,,,,,,,,
,,613be225b62729f678a7e0ea,2024-02-18_20h31.28.068,kallum_motion_pilot,2023.2.2,Win32,58.47953217,613be225b62729f678a7e0ea,65d2b6c8f2eece985d8e374c,65d2b83ef2cdb579bb1760b3,0.0413,0.0414,0,9,9,138,1,sixfive,,,,,,,,,,,,,,,,,,,,,,,,,,,,,,,,,,,,,,,,,,,,,,,,,,,,,,,,,,,,,,,,,,,,,,,,,,,,,,,,,,,,,,,,,,,,,,,,,,,,,,,,,,,,,,,,,,,,,,,,,,,,,,,,,,,,,,,,,
,,613be225b62729f678a7e0ea,2024-02-18_20h31.28.068,kallum_motion_pilot,2023.2.2,Win32,58.47953217,613be225b62729f678a7e0ea,65d2b6c8f2eece985d8e374c,65d2b83ef2cdb579bb1760b3,0.0416,0.0417,0,10,10,156,1,sevenfive,,,,,,,,,,,,,,,,,,,,,,,,,,,,,,,,,,,,,,,,,,,,,,,,,,,,,,,,,,,,,,,,,,,,,,,,,,,,,,,,,,,,,,,,,,,,,,,,,,,,,,,,,,,,,,,,,,,,,,,,,,,,,,,,,,,,,,,,,
,,613be225b62729f678a7e0ea,2024-02-18_20h31.28.068,kallum_motion_pilot,2023.2.2,Win32,58.47953217,613be225b62729f678a7e0ea,65d2b6c8f2eece985d8e374c,65d2b83ef2cdb579bb1760b3,0.0421,0.0422,0,11,11,119,1,eightseven,,,,,,,,,,,,,,,,,,,,,,,,,,,,,,,,,,,,,,,,,,,,,,,,,,,,,,,,,,,,,,,,,,,,,,,,,,,,,,,,,,,,,,,,,,,,,,,,,,,,,,,,,,,,,,,,,,,,,,,,,,,,,,,,,,,,,,,,,
,,613be225b62729f678a7e0ea,2024-02-18_20h31.28.068,kallum_motion_pilot,2023.2.2,Win32,58.47953217,613be225b62729f678a7e0ea,65d2b6c8f2eece985d8e374c,65d2b83ef2cdb579bb1760b3,0.0424,0.0425,0,12,12,49,1,onethree,,,,,,,,,,,,,,,,,,,,,,,,,,,,,,,,,,,,,,,,,,,,,,,,,,,,,,,,,,,,,,,,,,,,,,,,,,,,,,,,,,,,,,,,,,,,,,,,,,,,,,,,,,,,,,,,,,,,,,,,,,,,,,,,,,,,,,,,,
,,613be225b62729f678a7e0ea,2024-02-18_20h31.28.068,kallum_motion_pilot,2023.2.2,Win32,58.47953217,613be225b62729f678a7e0ea,65d2b6c8f2eece985d8e374c,65d2b83ef2cdb579bb1760b3,0.0426,0.0427,0,13,13,125,1,seveneight,,,,,,,,,,,,,,,,,,,,,,,,,,,,,,,,,,,,,,,,,,,,,,,,,,,,,,,,,,,,,,,,,,,,,,,,,,,,,,,,,,,,,,,,,,,,,,,,,,,,,,,,,,,,,,,,,,,,,,,,,,,,,,,,,,,,,,,,,
,,613be225b62729f678a7e0ea,2024-02-18_20h31.28.068,kallum_motion_pilot,2023.2.2,Win32,58.47953217,613be225b62729f678a7e0ea,65d2b6c8f2eece985d8e374c,65d2b83ef2cdb579bb1760b3,0.043,0.0431,0,14,14,16,1,onetwo,,,,,,,,,,,,,,,,,,,,,,,,,,,,,,,,,,,,,,,,,,,,,,,,,,,,,,,,,,,,,,,,,,,,,,,,,,,,,,,,,,,,,,,,,,,,,,,,,,,,,,,,,,,,,,,,,,,,,,,,,,,,,,,,,,,,,,,,,
,,613be225b62729f678a7e0ea,2024-02-18_20h31.28.068,kallum_motion_pilot,2023.2.2,Win32,58.47953217,613be225b62729f678a7e0ea,65d2b6c8f2eece985d8e374c,65d2b83ef2cdb579bb1760b3,0.0434,0.0435,0,15,15,48,1,onetwo,,,,,,,,,,,,,,,,,,,,,,,,,,,,,,,,,,,,,,,,,,,,,,,,,,,,,,,,,,,,,,,,,,,,,,,,,,,,,,,,,,,,,,,,,,,,,,,,,,,,,,,,,,,,,,,,,,,,,,,,,,,,,,,,,,,,,,,,,
,,613be225b62729f678a7e0ea,2024-02-18_20h31.28.068,kallum_motion_pilot,2023.2.2,Win32,58.47953217,613be225b62729f678a7e0ea,65d2b6c8f2eece985d8e374c,65d2b83ef2cdb579bb1760b3,0.0437,0.0437,0,16,16,157,1,seveneight,,,,,,,,,,,,,,,,,,,,,,,,,,,,,,,,,,,,,,,,,,,,,,,,,,,,,,,,,,,,,,,,,,,,,,,,,,,,,,,,,,,,,,,,,,,,,,,,,,,,,,,,,,,,,,,,,,,,,,,,,,,,,,,,,,,,,,,,,
,,613be225b62729f678a7e0ea,2024-02-18_20h31.28.068,kallum_motion_pilot,2023.2.2,Win32,58.47953217,613be225b62729f678a7e0ea,65d2b6c8f2eece985d8e374c,65d2b83ef2cdb579bb1760b3,0.0439,0.044,0,17,17,65,1,onethree,,,,,,,,,,,,,,,,,,,,,,,,,,,,,,,,,,,,,,,,,,,,,,,,,,,,,,,,,,,,,,,,,,,,,,,,,,,,,,,,,,,,,,,,,,,,,,,,,,,,,,,,,,,,,,,,,,,,,,,,,,,,,,,,,,,,,,,,,
,,613be225b62729f678a7e0ea,2024-02-18_20h31.28.068,kallum_motion_pilot,2023.2.2,Win32,58.47953217,613be225b62729f678a7e0ea,65d2b6c8f2eece985d8e374c,65d2b83ef2cdb579bb1760b3,0.0443,0.0444,0,18,18,160,1,fivesix,,,,,,,,,,,,,,,,,,,,,,,,,,,,,,,,,,,,,,,,,,,,,,,,,,,,,,,,,,,,,,,,,,,,,,,,,,,,,,,,,,,,,,,,,,,,,,,,,,,,,,,,,,,,,,,,,,,,,,,,,,,,,,,,,,,,,,,,,
,,613be225b62729f678a7e0ea,2024-02-18_20h31.28.068,kallum_motion_pilot,2023.2.2,Win32,58.47953217,613be225b62729f678a7e0ea,65d2b6c8f2eece985d8e374c,65d2b83ef2cdb579bb1760b3,0.0445,0.0446,0,19,19,105,1,fiveseven,,,,,,,,,,,,,,,,,,,,,,,,,,,,,,,,,,,,,,,,,,,,,,,,,,,,,,,,,,,,,,,,,,,,,,,,,,,,,,,,,,,,,,,,,,,,,,,,,,,,,,,,,,,,,,,,,,,,,,,,,,,,,,,,,,,,,,,,,
,,613be225b62729f678a7e0ea,2024-02-18_20h31.28.068,kallum_motion_pilot,2023.2.2,Win32,58.47953217,613be225b62729f678a7e0ea,65d2b6c8f2eece985d8e374c,65d2b83ef2cdb579bb1760b3,0.0448,0.0449,0,20,20,140,1,sevenfive,,,,,,,,,,,,,,,,,,,,,,,,,,,,,,,,,,,,,,,,,,,,,,,,,,,,,,,,,,,,,,,,,,,,,,,,,,,,,,,,,,,,,,,,,,,,,,,,,,,,,,,,,,,,,,,,,,,,,,,,,,,,,,,,,,,,,,,,,
,,613be225b62729f678a7e0ea,2024-02-18_20h31.28.068,kallum_motion_pilot,2023.2.2,Win32,58.47953217,613be225b62729f678a7e0ea,65d2b6c8f2eece985d8e374c,65d2b83ef2cdb579bb1760b3,0.045,0.045,0,21,21,37,1,threefour,,,,,,,,,,,,,,,,,,,,,,,,,,,,,,,,,,,,,,,,,,,,,,,,,,,,,,,,,,,,,,,,,,,,,,,,,,,,,,,,,,,,,,,,,,,,,,,,,,,,,,,,,,,,,,,,,,,,,,,,,,,,,,,,,,,,,,,,,
,,613be225b62729f678a7e0ea,2024-02-18_20h31.28.068,kallum_motion_pilot,2023.2.2,Win32,58.47953217,613be225b62729f678a7e0ea,65d2b6c8f2eece985d8e374c,65d2b83ef2cdb579bb1760b3,0.0452,0.0453,0,22,22,33,1,onethree,,,,,,,,,,,,,,,,,,,,,,,,,,,,,,,,,,,,,,,,,,,,,,,,,,,,,,,,,,,,,,,,,,,,,,,,,,,,,,,,,,,,,,,,,,,,,,,,,,,,,,,,,,,,,,,,,,,,,,,,,,,,,,,,,,,,,,,,,
,,613be225b62729f678a7e0ea,2024-02-18_20h31.28.068,kallum_motion_pilot,2023.2.2,Win32,58.47953217,613be225b62729f678a7e0ea,65d2b6c8f2eece985d8e374c,65d2b83ef2cdb579bb1760b3,0.0455,0.0455,0,23,23,54,1,fourtwo,,,,,,,,,,,,,,,,,,,,,,,,,,,,,,,,,,,,,,,,,,,,,,,,,,,,,,,,,,,,,,,,,,,,,,,,,,,,,,,,,,,,,,,,,,,,,,,,,,,,,,,,,,,,,,,,,,,,,,,,,,,,,,,,,,,,,,,,,
,,613be225b62729f678a7e0ea,2024-02-18_20h31.28.068,kallum_motion_pilot,2023.2.2,Win32,58.47953217,613be225b62729f678a7e0ea,65d2b6c8f2eece985d8e374c,65d2b83ef2cdb579bb1760b3,0.0457,0.0458,0,24,24,45,1,threefour,,,,,,,,,,,,,,,,,,,,,,,,,,,,,,,,,,,,,,,,,,,,,,,,,,,,,,,,,,,,,,,,,,,,,,,,,,,,,,,,,,,,,,,,,,,,,,,,,,,,,,,,,,,,,,,,,,,,,,,,,,,,,,,,,,,,,,,,,
,,613be225b62729f678a7e0ea,2024-02-18_20h31.28.068,kallum_motion_pilot,2023.2.2,Win32,58.47953217,613be225b62729f678a7e0ea,65d2b6c8f2eece985d8e374c,65d2b83ef2cdb579bb1760b3,0.046,0.046,0,25,25,7,1,fourthree,,,,,,,,,,,,,,,,,,,,,,,,,,,,,,,,,,,,,,,,,,,,,,,,,,,,,,,,,,,,,,,,,,,,,,,,,,,,,,,,,,,,,,,,,,,,,,,,,,,,,,,,,,,,,,,,,,,,,,,,,,,,,,,,,,,,,,,,,
,,613be225b62729f678a7e0ea,2024-02-18_20h31.28.068,kallum_motion_pilot,2023.2.2,Win32,58.47953217,613be225b62729f678a7e0ea,65d2b6c8f2eece985d8e374c,65d2b83ef2cdb579bb1760b3,0.0462,0.0463,0,26,26,80,1,fivesix,,,,,,,,,,,,,,,,,,,,,,,,,,,,,,,,,,,,,,,,,,,,,,,,,,,,,,,,,,,,,,,,,,,,,,,,,,,,,,,,,,,,,,,,,,,,,,,,,,,,,,,,,,,,,,,,,,,,,,,,,,,,,,,,,,,,,,,,,
,,613be225b62729f678a7e0ea,2024-02-18_20h31.28.068,kallum_motion_pilot,2023.2.2,Win32,58.47953217,613be225b62729f678a7e0ea,65d2b6c8f2eece985d8e374c,65d2b83ef2cdb579bb1760b3,0.0464,0.0466,0,27,27,120,1,fivesix,,,,,,,,,,,,,,,,,,,,,,,,,,,,,,,,,,,,,,,,,,,,,,,,,,,,,,,,,,,,,,,,,,,,,,,,,,,,,,,,,,,,,,,,,,,,,,,,,,,,,,,,,,,,,,,,,,,,,,,,,,,,,,,,,,,,,,,,,
,,613be225b62729f678a7e0ea,2024-02-18_20h31.28.068,kallum_motion_pilot,2023.2.2,Win32,58.47953217,613be225b62729f678a7e0ea,65d2b6c8f2eece985d8e374c,65d2b83ef2cdb579bb1760b3,0.0467,0.0468,0,28,28,139,1,sixeight,,,,,,,,,,,,,,,,,,,,,,,,,,,,,,,,,,,,,,,,,,,,,,,,,,,,,,,,,,,,,,,,,,,,,,,,,,,,,,,,,,,,,,,,,,,,,,,,,,,,,,,,,,,,,,,,,,,,,,,,,,,,,,,,,,,,,,,,,
,,613be225b62729f678a7e0ea,2024-02-18_20h31.28.068,kallum_motion_pilot,2023.2.2,Win32,58.47953217,613be225b62729f678a7e0ea,65d2b6c8f2eece985d8e374c,65d2b83ef2cdb579bb1760b3,0.047,0.047,0,29,29,118,1,eightsix,,,,,,,,,,,,,,,,,,,,,,,,,,,,,,,,,,,,,,,,,,,,,,,,,,,,,,,,,,,,,,,,,,,,,,,,,,,,,,,,,,,,,,,,,,,,,,,,,,,,,,,,,,,,,,,,,,,,,,,,,,,,,,,,,,,,,,,,,
,,613be225b62729f678a7e0ea,2024-02-18_20h31.28.068,kallum_motion_pilot,2023.2.2,Win32,58.47953217,613be225b62729f678a7e0ea,65d2b6c8f2eece985d8e374c,65d2b83ef2cdb579bb1760b3,0.0472,0.0472,0,30,30,116,1,sevenfive,,,,,,,,,,,,,,,,,,,,,,,,,,,,,,,,,,,,,,,,,,,,,,,,,,,,,,,,,,,,,,,,,,,,,,,,,,,,,,,,,,,,,,,,,,,,,,,,,,,,,,,,,,,,,,,,,,,,,,,,,,,,,,,,,,,,,,,,,
,,613be225b62729f678a7e0ea,2024-02-18_20h31.28.068,kallum_motion_pilot,2023.2.2,Win32,58.47953217,613be225b62729f678a7e0ea,65d2b6c8f2eece985d8e374c,65d2b83ef2cdb579bb1760b3,0.0475,0.0475,0,31,31,142,1,eightsix,,,,,,,,,,,,,,,,,,,,,,,,,,,,,,,,,,,,,,,,,,,,,,,,,,,,,,,,,,,,,,,,,,,,,,,,,,,,,,,,,,,,,,,,,,,,,,,,,,,,,,,,,,,,,,,,,,,,,,,,,,,,,,,,,,,,,,,,,
,,613be225b62729f678a7e0ea,2024-02-18_20h31.28.068,kallum_motion_pilot,2023.2.2,Win32,58.47953217,613be225b62729f678a7e0ea,65d2b6c8f2eece985d8e374c,65d2b83ef2cdb579bb1760b3,0.0477,0.0478,0,32,32,129,1,fiveseven,,,,,,,,,,,,,,,,,,,,,,,,,,,,,,,,,,,,,,,,,,,,,,,,,,,,,,,,,,,,,,,,,,,,,,,,,,,,,,,,,,,,,,,,,,,,,,,,,,,,,,,,,,,,,,,,,,,,,,,,,,,,,,,,,,,,,,,,,
,,613be225b62729f678a7e0ea,2024-02-18_20h31.28.068,kallum_motion_pilot,2023.2.2,Win32,58.47953217,613be225b62729f678a7e0ea,65d2b6c8f2eece985d8e374c,65d2b83ef2cdb579bb1760b3,0.048,0.048,0,33,33,148,1,sevenfive,,,,,,,,,,,,,,,,,,,,,,,,,,,,,,,,,,,,,,,,,,,,,,,,,,,,,,,,,,,,,,,,,,,,,,,,,,,,,,,,,,,,,,,,,,,,,,,,,,,,,,,,,,,,,,,,,,,,,,,,,,,,,,,,,,,,,,,,,
,,613be225b62729f678a7e0ea,2024-02-18_20h31.28.068,kallum_motion_pilot,2023.2.2,Win32,58.47953217,613be225b62729f678a7e0ea,65d2b6c8f2eece985d8e374c,65d2b83ef2cdb579bb1760b3,0.0482,0.0483,0,34,34,20,1,threeone,,,,,,,,,,,,,,,,,,,,,,,,,,,,,,,,,,,,,,,,,,,,,,,,,,,,,,,,,,,,,,,,,,,,,,,,,,,,,,,,,,,,,,,,,,,,,,,,,,,,,,,,,,,,,,,,,,,,,,,,,,,,,,,,,,,,,,,,,
,,613be225b62729f678a7e0ea,2024-02-18_20h31.28.068,kallum_motion_pilot,2023.2.2,Win32,58.47953217,613be225b62729f678a7e0ea,65d2b6c8f2eece985d8e374c,65d2b83ef2cdb579bb1760b3,0.0485,0.0485,0,35,35,98,1,sixfive,,,,,,,,,,,,,,,,,,,,,,,,,,,,,,,,,,,,,,,,,,,,,,,,,,,,,,,,,,,,,,,,,,,,,,,,,,,,,,,,,,,,,,,,,,,,,,,,,,,,,,,,,,,,,,,,,,,,,,,,,,,,,,,,,,,,,,,,,
,,613be225b62729f678a7e0ea,2024-02-18_20h31.28.068,kallum_motion_pilot,2023.2.2,Win32,58.47953217,613be225b62729f678a7e0ea,65d2b6c8f2eece985d8e374c,65d2b83ef2cdb579bb1760b3,0.0487,0.0488,0,36,36,97,1,fiveseven,,,,,,,,,,,,,,,,,,,,,,,,,,,,,,,,,,,,,,,,,,,,,,,,,,,,,,,,,,,,,,,,,,,,,,,,,,,,,,,,,,,,,,,,,,,,,,,,,,,,,,,,,,,,,,,,,,,,,,,,,,,,,,,,,,,,,,,,,
,,613be225b62729f678a7e0ea,2024-02-18_20h31.28.068,kallum_motion_pilot,2023.2.2,Win32,58.47953217,613be225b62729f678a7e0ea,65d2b6c8f2eece985d8e374c,65d2b83ef2cdb579bb1760b3,0.049,0.049,0,37,37,109,1,seveneight,,,,,,,,,,,,,,,,,,,,,,,,,,,,,,,,,,,,,,,,,,,,,,,,,,,,,,,,,,,,,,,,,,,,,,,,,,,,,,,,,,,,,,,,,,,,,,,,,,,,,,,,,,,,,,,,,,,,,,,,,,,,,,,,,,,,,,,,,
,,613be225b62729f678a7e0ea,2024-02-18_20h31.28.068,kallum_motion_pilot,2023.2.2,Win32,58.47953217,613be225b62729f678a7e0ea,65d2b6c8f2eece985d8e374c,65d2b83ef2cdb579bb1760b3,0.0492,0.0492,0,38,38,158,1,eightsix,,,,,,,,,,,,,,,,,,,,,,,,,,,,,,,,,,,,,,,,,,,,,,,,,,,,,,,,,,,,,,,,,,,,,,,,,,,,,,,,,,,,,,,,,,,,,,,,,,,,,,,,,,,,,,,,,,,,,,,,,,,,,,,,,,,,,,,,,
,,613be225b62729f678a7e0ea,2024-02-18_20h31.28.068,kallum_motion_pilot,2023.2.2,Win32,58.47953217,613be225b62729f678a7e0ea,65d2b6c8f2eece985d8e374c,65d2b83ef2cdb579bb1760b3,0.0494,0.0496,0,39,39,46,1,fourtwo,,,,,,,,,,,,,,,,,,,,,,,,,,,,,,,,,,,,,,,,,,,,,,,,,,,,,,,,,,,,,,,,,,,,,,,,,,,,,,,,,,,,,,,,,,,,,,,,,,,,,,,,,,,,,,,,,,,,,,,,,,,,,,,,,,,,,,,,,
,,613be225b62729f678a7e0ea,2024-02-18_20h31.28.068,kallum_motion_pilot,2023.2.2,Win32,58.47953217,613be225b62729f678a7e0ea,65d2b6c8f2eece985d8e374c,65d2b83ef2cdb579bb1760b3,0.0497,0.0498,0,40,40,36,1,threeone,,,,,,,,,,,,,,,,,,,,,,,,,,,,,,,,,,,,,,,,,,,,,,,,,,,,,,,,,,,,,,,,,,,,,,,,,,,,,,,,,,,,,,,,,,,,,,,,,,,,,,,,,,,,,,,,,,,,,,,,,,,,,,,,,,,,,,,,,
,,613be225b62729f678a7e0ea,2024-02-18_20h31.28.068,kallum_motion_pilot,2023.2.2,Win32,58.47953217,613be225b62729f678a7e0ea,65d2b6c8f2eece985d8e374c,65d2b83ef2cdb579bb1760b3,0.05,0.0501,0,41,41,19,1,twofour,,,,,,,,,,,,,,,,,,,,,,,,,,,,,,,,,,,,,,,,,,,,,,,,,,,,,,,,,,,,,,,,,,,,,,,,,,,,,,,,,,,,,,,,,,,,,,,,,,,,,,,,,,,,,,,,,,,,,,,,,,,,,,,,,,,,,,,,,
,,613be225b62729f678a7e0ea,2024-02-18_20h31.28.068,kallum_motion_pilot,2023.2.2,Win32,58.47953217,613be225b62729f678a7e0ea,65d2b6c8f2eece985d8e374c,65d2b83ef2cdb579bb1760b3,0.0502,0.0503,0,42,42,132,1,sevenfive,,,,,,,,,,,,,,,,,,,,,,,,,,,,,,,,,,,,,,,,,,,,,,,,,,,,,,,,,,,,,,,,,,,,,,,,,,,,,,,,,,,,,,,,,,,,,,,,,,,,,,,,,,,,,,,,,,,,,,,,,,,,,,,,,,,,,,,,,
,,613be225b62729f678a7e0ea,2024-02-18_20h31.28.068,kallum_motion_pilot,2023.2.2,Win32,58.47953217,613be225b62729f678a7e0ea,65d2b6c8f2eece985d8e374c,65d2b83ef2cdb579bb1760b3,0.0505,0.0505,0,43,43,29,1,threefour,,,,,,,,,,,,,,,,,,,,,,,,,,,,,,,,,,,,,,,,,,,,,,,,,,,,,,,,,,,,,,,,,,,,,,,,,,,,,,,,,,,,,,,,,,,,,,,,,,,,,,,,,,,,,,,,,,,,,,,,,,,,,,,,,,,,,,,,,
,,613be225b62729f678a7e0ea,2024-02-18_20h31.28.068,kallum_motion_pilot,2023.2.2,Win32,58.47953217,613be225b62729f678a7e0ea,65d2b6c8f2eece985d8e374c,65d2b83ef2cdb579bb1760b3,0.0507,0.0507,0,44,44,99,1,sixeight,,,,,,,,,,,,,,,,,,,,,,,,,,,,,,,,,,,,,,,,,,,,,,,,,,,,,,,,,,,,,,,,,,,,,,,,,,,,,,,,,,,,,,,,,,,,,,,,,,,,,,,,,,,,,,,,,,,,,,,,,,,,,,,,,,,,,,,,,
,,613be225b62729f678a7e0ea,2024-02-18_20h31.28.068,kallum_motion_pilot,2023.2.2,Win32,58.47953217,613be225b62729f678a7e0ea,65d2b6c8f2eece985d8e374c,65d2b83ef2cdb579bb1760b3,0.0509,0.051,0,45,45,122,1,sixfive,,,,,,,,,,,,,,,,,,,,,,,,,,,,,,,,,,,,,,,,,,,,,,,,,,,,,,,,,,,,,,,,,,,,,,,,,,,,,,,,,,,,,,,,,,,,,,,,,,,,,,,,,,,,,,,,,,,,,,,,,,,,,,,,,,,,,,,,,
,,613be225b62729f678a7e0ea,2024-02-18_20h31.28.068,kallum_motion_pilot,2023.2.2,Win32,58.47953217,613be225b62729f678a7e0ea,65d2b6c8f2eece985d8e374c,65d2b83ef2cdb579bb1760b3,0.0512,0.0513,0,46,46,3,1,twofour,,,,,,,,,,,,,,,,,,,,,,,,,,,,,,,,,,,,,,,,,,,,,,,,,,,,,,,,,,,,,,,,,,,,,,,,,,,,,,,,,,,,,,,,,,,,,,,,,,,,,,,,,,,,,,,,,,,,,,,,,,,,,,,,,,,,,,,,,
,,613be225b62729f678a7e0ea,2024-02-18_20h31.28.068,kallum_motion_pilot,2023.2.2,Win32,58.47953217,613be225b62729f678a7e0ea,65d2b6c8f2eece985d8e374c,65d2b83ef2cdb579bb1760b3,0.0515,0.0515,0,47,47,73,1,onethree,,,,,,,,,,,,,,,,,,,,,,,,,,,,,,,,,,,,,,,,,,,,,,,,,,,,,,,,,,,,,,,,,,,,,,,,,,,,,,,,,,,,,,,,,,,,,,,,,,,,,,,,,,,,,,,,,,,,,,,,,,,,,,,,,,,,,,,,,
,,613be225b62729f678a7e0ea,2024-02-18_20h31.28.068,kallum_motion_pilot,2023.2.2,Win32,58.47953217,613be225b62729f678a7e0ea,65d2b6c8f2eece985d8e374c,65d2b83ef2cdb579bb1760b3,0.0517,0.0518,0,48,48,151,1,eightseven,,,,,,,,,,,,,,,,,,,,,,,,,,,,,,,,,,,,,,,,,,,,,,,,,,,,,,,,,,,,,,,,,,,,,,,,,,,,,,,,,,,,,,,,,,,,,,,,,,,,,,,,,,,,,,,,,,,,,,,,,,,,,,,,,,,,,,,,,
,,613be225b62729f678a7e0ea,2024-02-18_20h31.28.068,kallum_motion_pilot,2023.2.2,Win32,58.47953217,613be225b62729f678a7e0ea,65d2b6c8f2eece985d8e374c,65d2b83ef2cdb579bb1760b3,0.0532,0.0532,0,49,49,1,1,onethree,,,,,,,,,,,,,,,,,,,,,,,,,,,,,,,,,,,,,,,,,,,,,,,,,,,,,,,,,,,,,,,,,,,,,,,,,,,,,,,,,,,,,,,,,,,,,,,,,,,,,,,,,,,,,,,,,,,,,,,,,,,,,,,,,,,,,,,,,
,,613be225b62729f678a7e0ea,2024-02-18_20h31.28.068,kallum_motion_pilot,2023.2.2,Win32,58.47953217,613be225b62729f678a7e0ea,65d2b6c8f2eece985d8e374c,65d2b83ef2cdb579bb1760b3,0.0534,0.0534,0,50,50,159,1,eightseven,,,,,,,,,,,,,,,,,,,,,,,,,,,,,,,,,,,,,,,,,,,,,,,,,,,,,,,,,,,,,,,,,,,,,,,,,,,,,,,,,,,,,,,,,,,,,,,,,,,,,,,,,,,,,,,,,,,,,,,,,,,,,,,,,,,,,,,,,
,,613be225b62729f678a7e0ea,2024-02-18_20h31.28.068,kallum_motion_pilot,2023.2.2,Win32,58.47953217,613be225b62729f678a7e0ea,65d2b6c8f2eece985d8e374c,65d2b83ef2cdb579bb1760b3,0.0536,0.0536,0,51,51,115,1,sixeight,,,,,,,,,,,,,,,,,,,,,,,,,,,,,,,,,,,,,,,,,,,,,,,,,,,,,,,,,,,,,,,,,,,,,,,,,,,,,,,,,,,,,,,,,,,,,,,,,,,,,,,,,,,,,,,,,,,,,,,,,,,,,,,,,,,,,,,,,
,,613be225b62729f678a7e0ea,2024-02-18_20h31.28.068,kallum_motion_pilot,2023.2.2,Win32,58.47953217,613be225b62729f678a7e0ea,65d2b6c8f2eece985d8e374c,65d2b83ef2cdb579bb1760b3,0.0571,0.058,0,52,52,43,1,twofour,,,,,,,,,,,,,,,,,,,,,,,,,,,,,,,,,,,,,,,,,,,,,,,,,,,,,,,,,,,,,,,,,,,,,,,,,,,,,,,,,,,,,,,,,,,,,,,,,,,,,,,,,,,,,,,,,,,,,,,,,,,,,,,,,,,,,,,,,
,,613be225b62729f678a7e0ea,2024-02-18_20h31.28.068,kallum_motion_pilot,2023.2.2,Win32,58.47953217,613be225b62729f678a7e0ea,65d2b6c8f2eece985d8e374c,65d2b83ef2cdb579bb1760b3,0.0588,0.059,0,53,53,85,1,seveneight,,,,,,,,,,,,,,,,,,,,,,,,,,,,,,,,,,,,,,,,,,,,,,,,,,,,,,,,,,,,,,,,,,,,,,,,,,,,,,,,,,,,,,,,,,,,,,,,,,,,,,,,,,,,,,,,,,,,,,,,,,,,,,,,,,,,,,,,,
,,613be225b62729f678a7e0ea,2024-02-18_20h31.28.068,kallum_motion_pilot,2023.2.2,Win32,58.47953217,613be225b62729f678a7e0ea,65d2b6c8f2eece985d8e374c,65d2b83ef2cdb579bb1760b3,0.0593,0.0593,0,54,54,136,1,fivesix,,,,,,,,,,,,,,,,,,,,,,,,,,,,,,,,,,,,,,,,,,,,,,,,,,,,,,,,,,,,,,,,,,,,,,,,,,,,,,,,,,,,,,,,,,,,,,,,,,,,,,,,,,,,,,,,,,,,,,,,,,,,,,,,,,,,,,,,,
,,613be225b62729f678a7e0ea,2024-02-18_20h31.28.068,kallum_motion_pilot,2023.2.2,Win32,58.47953217,613be225b62729f678a7e0ea,65d2b6c8f2eece985d8e374c,65d2b83ef2cdb579bb1760b3,0.0594,0.0595,0,55,55,61,1,threefour,,,,,,,,,,,,,,,,,,,,,,,,,,,,,,,,,,,,,,,,,,,,,,,,,,,,,,,,,,,,,,,,,,,,,,,,,,,,,,,,,,,,,,,,,,,,,,,,,,,,,,,,,,,,,,,,,,,,,,,,,,,,,,,,,,,,,,,,,
,,613be225b62729f678a7e0ea,2024-02-18_20h31.28.068,kallum_motion_pilot,2023.2.2,Win32,58.47953217,613be225b62729f678a7e0ea,65d2b6c8f2eece985d8e374c,65d2b83ef2cdb579bb1760b3,0.0596,0.0597,0,56,56,103,1,eightseven,,,,,,,,,,,,,,,,,,,,,,,,,,,,,,,,,,,,,,,,,,,,,,,,,,,,,,,,,,,,,,,,,,,,,,,,,,,,,,,,,,,,,,,,,,,,,,,,,,,,,,,,,,,,,,,,,,,,,,,,,,,,,,,,,,,,,,,,,
,,613be225b62729f678a7e0ea,2024-02-18_20h31.28.068,kallum_motion_pilot,2023.2.2,Win32,58.47953217,613be225b62729f678a7e0ea,65d2b6c8f2eece985d8e374c,65d2b83ef2cdb579bb1760b3,0.0598,0.0599,0,57,57,52,1,threeone,,,,,,,,,,,,,,,,,,,,,,,,,,,,,,,,,,,,,,,,,,,,,,,,,,,,,,,,,,,,,,,,,,,,,,,,,,,,,,,,,,,,,,,,,,,,,,,,,,,,,,,,,,,,,,,,,,,,,,,,,,,,,,,,,,,,,,,,,
,,613be225b62729f678a7e0ea,2024-02-18_20h31.28.068,kallum_motion_pilot,2023.2.2,Win32,58.47953217,613be225b62729f678a7e0ea,65d2b6c8f2eece985d8e374c,65d2b83ef2cdb579bb1760b3,0.0601,0.0601,0,58,58,0,1,onetwo,,,,,,,,,,,,,,,,,,,,,,,,,,,,,,,,,,,,,,,,,,,,,,,,,,,,,,,,,,,,,,,,,,,,,,,,,,,,,,,,,,,,,,,,,,,,,,,,,,,,,,,,,,,,,,,,,,,,,,,,,,,,,,,,,,,,,,,,,
,,613be225b62729f678a7e0ea,2024-02-18_20h31.28.068,kallum_motion_pilot,2023.2.2,Win32,58.47953217,613be225b62729f678a7e0ea,65d2b6c8f2eece985d8e374c,65d2b83ef2cdb579bb1760b3,0.0602,0.0602,0,59,59,5,1,threefour,,,,,,,,,,,,,,,,,,,,,,,,,,,,,,,,,,,,,,,,,,,,,,,,,,,,,,,,,,,,,,,,,,,,,,,,,,,,,,,,,,,,,,,,,,,,,,,,,,,,,,,,,,,,,,,,,,,,,,,,,,,,,,,,,,,,,,,,,
,,613be225b62729f678a7e0ea,2024-02-18_20h31.28.068,kallum_motion_pilot,2023.2.2,Win32,58.47953217,613be225b62729f678a7e0ea,65d2b6c8f2eece985d8e374c,65d2b83ef2cdb579bb1760b3,0.0604,0.0605,0,60,60,101,1,seveneight,,,,,,,,,,,,,,,,,,,,,,,,,,,,,,,,,,,,,,,,,,,,,,,,,,,,,,,,,,,,,,,,,,,,,,,,,,,,,,,,,,,,,,,,,,,,,,,,,,,,,,,,,,,,,,,,,,,,,,,,,,,,,,,,,,,,,,,,,
,,613be225b62729f678a7e0ea,2024-02-18_20h31.28.068,kallum_motion_pilot,2023.2.2,Win32,58.47953217,613be225b62729f678a7e0ea,65d2b6c8f2eece985d8e374c,65d2b83ef2cdb579bb1760b3,0.0607,0.0607,0,61,61,94,1,eightsix,,,,,,,,,,,,,,,,,,,,,,,,,,,,,,,,,,,,,,,,,,,,,,,,,,,,,,,,,,,,,,,,,,,,,,,,,,,,,,,,,,,,,,,,,,,,,,,,,,,,,,,,,,,,,,,,,,,,,,,,,,,,,,,,,,,,,,,,,
,,613be225b62729f678a7e0ea,2024-02-18_20h31.28.068,kallum_motion_pilot,2023.2.2,Win32,58.47953217,613be225b62729f678a7e0ea,65d2b6c8f2eece985d8e374c,65d2b83ef2cdb579bb1760b3,0.0609,0.061,0,62,62,83,1,sixeight,,,,,,,,,,,,,,,,,,,,,,,,,,,,,,,,,,,,,,,,,,,,,,,,,,,,,,,,,,,,,,,,,,,,,,,,,,,,,,,,,,,,,,,,,,,,,,,,,,,,,,,,,,,,,,,,,,,,,,,,,,,,,,,,,,,,,,,,,
,,613be225b62729f678a7e0ea,2024-02-18_20h31.28.068,kallum_motion_pilot,2023.2.2,Win32,58.47953217,613be225b62729f678a7e0ea,65d2b6c8f2eece985d8e374c,65d2b83ef2cdb579bb1760b3,0.0611,0.0612,0,63,63,92,1,sevenfive,,,,,,,,,,,,,,,,,,,,,,,,,,,,,,,,,,,,,,,,,,,,,,,,,,,,,,,,,,,,,,,,,,,,,,,,,,,,,,,,,,,,,,,,,,,,,,,,,,,,,,,,,,,,,,,,,,,,,,,,,,,,,,,,,,,,,,,,,
,,613be225b62729f678a7e0ea,2024-02-18_20h31.28.068,kallum_motion_pilot,2023.2.2,Win32,58.47953217,613be225b62729f678a7e0ea,65d2b6c8f2eece985d8e374c,65d2b83ef2cdb579bb1760b3,0.0614,0.0615,0,64,64,69,1,threefour,,,,,,,,,,,,,,,,,,,,,,,,,,,,,,,,,,,,,,,,,,,,,,,,,,,,,,,,,,,,,,,,,,,,,,,,,,,,,,,,,,,,,,,,,,,,,,,,,,,,,,,,,,,,,,,,,,,,,,,,,,,,,,,,,,,,,,,,,
,,613be225b62729f678a7e0ea,2024-02-18_20h31.28.068,kallum_motion_pilot,2023.2.2,Win32,58.47953217,613be225b62729f678a7e0ea,65d2b6c8f2eece985d8e374c,65d2b83ef2cdb579bb1760b3,0.0616,0.0616,0,65,65,84,1,sevenfive,,,,,,,,,,,,,,,,,,,,,,,,,,,,,,,,,,,,,,,,,,,,,,,,,,,,,,,,,,,,,,,,,,,,,,,,,,,,,,,,,,,,,,,,,,,,,,,,,,,,,,,,,,,,,,,,,,,,,,,,,,,,,,,,,,,,,,,,,
,,613be225b62729f678a7e0ea,2024-02-18_20h31.28.068,kallum_motion_pilot,2023.2.2,Win32,58.47953217,613be225b62729f678a7e0ea,65d2b6c8f2eece985d8e374c,65d2b83ef2cdb579bb1760b3,0.0617,0.0618,0,66,66,30,1,fourtwo,,,,,,,,,,,,,,,,,,,,,,,,,,,,,,,,,,,,,,,,,,,,,,,,,,,,,,,,,,,,,,,,,,,,,,,,,,,,,,,,,,,,,,,,,,,,,,,,,,,,,,,,,,,,,,,,,,,,,,,,,,,,,,,,,,,,,,,,,
,,613be225b62729f678a7e0ea,2024-02-18_20h31.28.068,kallum_motion_pilot,2023.2.2,Win32,58.47953217,613be225b62729f678a7e0ea,65d2b6c8f2eece985d8e374c,65d2b83ef2cdb579bb1760b3,0.0619,0.0621,0,67,67,10,1,twoone,,,,,,,,,,,,,,,,,,,,,,,,,,,,,,,,,,,,,,,,,,,,,,,,,,,,,,,,,,,,,,,,,,,,,,,,,,,,,,,,,,,,,,,,,,,,,,,,,,,,,,,,,,,,,,,,,,,,,,,,,,,,,,,,,,,,,,,,,
,,613be225b62729f678a7e0ea,2024-02-18_20h31.28.068,kallum_motion_pilot,2023.2.2,Win32,58.47953217,613be225b62729f678a7e0ea,65d2b6c8f2eece985d8e374c,65d2b83ef2cdb579bb1760b3,0.0622,0.0622,0,68,68,128,1,fivesix,,,,,,,,,,,,,,,,,,,,,,,,,,,,,,,,,,,,,,,,,,,,,,,,,,,,,,,,,,,,,,,,,,,,,,,,,,,,,,,,,,,,,,,,,,,,,,,,,,,,,,,,,,,,,,,,,,,,,,,,,,,,,,,,,,,,,,,,,
,,613be225b62729f678a7e0ea,2024-02-18_20h31.28.068,kallum_motion_pilot,2023.2.2,Win32,58.47953217,613be225b62729f678a7e0ea,65d2b6c8f2eece985d8e374c,65d2b83ef2cdb579bb1760b3,0.0624,0.0624,0,69,69,67,1,twofour,,,,,,,,,,,,,,,,,,,,,,,,,,,,,,,,,,,,,,,,,,,,,,,,,,,,,,,,,,,,,,,,,,,,,,,,,,,,,,,,,,,,,,,,,,,,,,,,,,,,,,,,,,,,,,,,,,,,,,,,,,,,,,,,,,,,,,,,,
,,613be225b62729f678a7e0ea,2024-02-18_20h31.28.068,kallum_motion_pilot,2023.2.2,Win32,58.47953217,613be225b62729f678a7e0ea,65d2b6c8f2eece985d8e374c,65d2b83ef2cdb579bb1760b3,0.0625,0.0626,0,70,70,47,1,fourthree,,,,,,,,,,,,,,,,,,,,,,,,,,,,,,,,,,,,,,,,,,,,,,,,,,,,,,,,,,,,,,,,,,,,,,,,,,,,,,,,,,,,,,,,,,,,,,,,,,,,,,,,,,,,,,,,,,,,,,,,,,,,,,,,,,,,,,,,,
,,613be225b62729f678a7e0ea,2024-02-18_20h31.28.068,kallum_motion_pilot,2023.2.2,Win32,58.47953217,613be225b62729f678a7e0ea,65d2b6c8f2eece985d8e374c,65d2b83ef2cdb579bb1760b3,0.0627,0.0627,0,71,71,24,1,onetwo,,,,,,,,,,,,,,,,,,,,,,,,,,,,,,,,,,,,,,,,,,,,,,,,,,,,,,,,,,,,,,,,,,,,,,,,,,,,,,,,,,,,,,,,,,,,,,,,,,,,,,,,,,,,,,,,,,,,,,,,,,,,,,,,,,,,,,,,,
,,613be225b62729f678a7e0ea,2024-02-18_20h31.28.068,kallum_motion_pilot,2023.2.2,Win32,58.47953217,613be225b62729f678a7e0ea,65d2b6c8f2eece985d8e374c,65d2b83ef2cdb579bb1760b3,0.0629,0.0629,0,72,72,144,1,fivesix,,,,,,,,,,,,,,,,,,,,,,,,,,,,,,,,,,,,,,,,,,,,,,,,,,,,,,,,,,,,,,,,,,,,,,,,,,,,,,,,,,,,,,,,,,,,,,,,,,,,,,,,,,,,,,,,,,,,,,,,,,,,,,,,,,,,,,,,,
,,613be225b62729f678a7e0ea,2024-02-18_20h31.28.068,kallum_motion_pilot,2023.2.2,Win32,58.47953217,613be225b62729f678a7e0ea,65d2b6c8f2eece985d8e374c,65d2b83ef2cdb579bb1760b3,0.063,0.0631,0,73,73,86,1,eightsix,,,,,,,,,,,,,,,,,,,,,,,,,,,,,,,,,,,,,,,,,,,,,,,,,,,,,,,,,,,,,,,,,,,,,,,,,,,,,,,,,,,,,,,,,,,,,,,,,,,,,,,,,,,,,,,,,,,,,,,,,,,,,,,,,,,,,,,,,
,,613be225b62729f678a7e0ea,2024-02-18_20h31.28.068,kallum_motion_pilot,2023.2.2,Win32,58.47953217,613be225b62729f678a7e0ea,65d2b6c8f2eece985d8e374c,65d2b83ef2cdb579bb1760b3,0.0631,0.0632,0,74,74,155,1,sixeight,,,,,,,,,,,,,,,,,,,,,,,,,,,,,,,,,,,,,,,,,,,,,,,,,,,,,,,,,,,,,,,,,,,,,,,,,,,,,,,,,,,,,,,,,,,,,,,,,,,,,,,,,,,,,,,,,,,,,,,,,,,,,,,,,,,,,,,,,
,,613be225b62729f678a7e0ea,2024-02-18_20h31.28.068,kallum_motion_pilot,2023.2.2,Win32,58.47953217,613be225b62729f678a7e0ea,65d2b6c8f2eece985d8e374c,65d2b83ef2cdb579bb1760b3,0.0634,0.0634,0,75,75,34,1,twoone,,,,,,,,,,,,,,,,,,,,,,,,,,,,,,,,,,,,,,,,,,,,,,,,,,,,,,,,,,,,,,,,,,,,,,,,,,,,,,,,,,,,,,,,,,,,,,,,,,,,,,,,,,,,,,,,,,,,,,,,,,,,,,,,,,,,,,,,,
,,613be225b62729f678a7e0ea,2024-02-18_20h31.28.068,kallum_motion_pilot,2023.2.2,Win32,58.47953217,613be225b62729f678a7e0ea,65d2b6c8f2eece985d8e374c,65d2b83ef2cdb579bb1760b3,0.0635,0.0636,0,76,76,88,1,fivesix,,,,,,,,,,,,,,,,,,,,,,,,,,,,,,,,,,,,,,,,,,,,,,,,,,,,,,,,,,,,,,,,,,,,,,,,,,,,,,,,,,,,,,,,,,,,,,,,,,,,,,,,,,,,,,,,,,,,,,,,,,,,,,,,,,,,,,,,,
,,613be225b62729f678a7e0ea,2024-02-18_20h31.28.068,kallum_motion_pilot,2023.2.2,Win32,58.47953217,613be225b62729f678a7e0ea,65d2b6c8f2eece985d8e374c,65d2b83ef2cdb579bb1760b3,0.0637,0.0637,0,77,77,38,1,fourtwo,,,,,,,,,,,,,,,,,,,,,,,,,,,,,,,,,,,,,,,,,,,,,,,,,,,,,,,,,,,,,,,,,,,,,,,,,,,,,,,,,,,,,,,,,,,,,,,,,,,,,,,,,,,,,,,,,,,,,,,,,,,,,,,,,,,,,,,,,
,,613be225b62729f678a7e0ea,2024-02-18_20h31.28.068,kallum_motion_pilot,2023.2.2,Win32,58.47953217,613be225b62729f678a7e0ea,65d2b6c8f2eece985d8e374c,65d2b83ef2cdb579bb1760b3,0.0638,0.0638,0,78,78,28,1,threeone,,,,,,,,,,,,,,,,,,,,,,,,,,,,,,,,,,,,,,,,,,,,,,,,,,,,,,,,,,,,,,,,,,,,,,,,,,,,,,,,,,,,,,,,,,,,,,,,,,,,,,,,,,,,,,,,,,,,,,,,,,,,,,,,,,,,,,,,,
,,613be225b62729f678a7e0ea,2024-02-18_20h31.28.068,kallum_motion_pilot,2023.2.2,Win32,58.47953217,613be225b62729f678a7e0ea,65d2b6c8f2eece985d8e374c,65d2b83ef2cdb579bb1760b3,0.064,0.064,0,79,79,154,1,sixfive,,,,,,,,,,,,,,,,,,,,,,,,,,,,,,,,,,,,,,,,,,,,,,,,,,,,,,,,,,,,,,,,,,,,,,,,,,,,,,,,,,,,,,,,,,,,,,,,,,,,,,,,,,,,,,,,,,,,,,,,,,,,,,,,,,,,,,,,,
,,613be225b62729f678a7e0ea,2024-02-18_20h31.28.068,kallum_motion_pilot,2023.2.2,Win32,58.47953217,613be225b62729f678a7e0ea,65d2b6c8f2eece985d8e374c,65d2b83ef2cdb579bb1760b3,0.0642,0.0642,0,80,80,161,1,fiveseven,,,,,,,,,,,,,,,,,,,,,,,,,,,,,,,,,,,,,,,,,,,,,,,,,,,,,,,,,,,,,,,,,,,,,,,,,,,,,,,,,,,,,,,,,,,,,,,,,,,,,,,,,,,,,,,,,,,,,,,,,,,,,,,,,,,,,,,,,
,,613be225b62729f678a7e0ea,2024-02-18_20h31.28.068,kallum_motion_pilot,2023.2.2,Win32,58.47953217,613be225b62729f678a7e0ea,65d2b6c8f2eece985d8e374c,65d2b83ef2cdb579bb1760b3,0.0644,0.0644,0,81,81,133,1,seveneight,,,,,,,,,,,,,,,,,,,,,,,,,,,,,,,,,,,,,,,,,,,,,,,,,,,,,,,,,,,,,,,,,,,,,,,,,,,,,,,,,,,,,,,,,,,,,,,,,,,,,,,,,,,,,,,,,,,,,,,,,,,,,,,,,,,,,,,,,
,,613be225b62729f678a7e0ea,2024-02-18_20h31.28.068,kallum_motion_pilot,2023.2.2,Win32,58.47953217,613be225b62729f678a7e0ea,65d2b6c8f2eece985d8e374c,65d2b83ef2cdb579bb1760b3,0.0644,0.0645,0,82,82,79,1,eightseven,,,,,,,,,,,,,,,,,,,,,,,,,,,,,,,,,,,,,,,,,,,,,,,,,,,,,,,,,,,,,,,,,,,,,,,,,,,,,,,,,,,,,,,,,,,,,,,,,,,,,,,,,,,,,,,,,,,,,,,,,,,,,,,,,,,,,,,,,
,,613be225b62729f678a7e0ea,2024-02-18_20h31.28.068,kallum_motion_pilot,2023.2.2,Win32,58.47953217,613be225b62729f678a7e0ea,65d2b6c8f2eece985d8e374c,65d2b83ef2cdb579bb1760b3,0.0647,0.0647,0,83,83,134,1,eightsix,,,,,,,,,,,,,,,,,,,,,,,,,,,,,,,,,,,,,,,,,,,,,,,,,,,,,,,,,,,,,,,,,,,,,,,,,,,,,,,,,,,,,,,,,,,,,,,,,,,,,,,,,,,,,,,,,,,,,,,,,,,,,,,,,,,,,,,,,
,,613be225b62729f678a7e0ea,2024-02-18_20h31.28.068,kallum_motion_pilot,2023.2.2,Win32,58.47953217,613be225b62729f678a7e0ea,65d2b6c8f2eece985d8e374c,65d2b83ef2cdb579bb1760b3,0.0649,0.0649,0,84,84,75,1,twofour,,,,,,,,,,,,,,,,,,,,,,,,,,,,,,,,,,,,,,,,,,,,,,,,,,,,,,,,,,,,,,,,,,,,,,,,,,,,,,,,,,,,,,,,,,,,,,,,,,,,,,,,,,,,,,,,,,,,,,,,,,,,,,,,,,,,,,,,,
,,613be225b62729f678a7e0ea,2024-02-18_20h31.28.068,kallum_motion_pilot,2023.2.2,Win32,58.47953217,613be225b62729f678a7e0ea,65d2b6c8f2eece985d8e374c,65d2b83ef2cdb579bb1760b3,0.0651,0.0651,0,85,85,15,1,fourthree,,,,,,,,,,,,,,,,,,,,,,,,,,,,,,,,,,,,,,,,,,,,,,,,,,,,,,,,,,,,,,,,,,,,,,,,,,,,,,,,,,,,,,,,,,,,,,,,,,,,,,,,,,,,,,,,,,,,,,,,,,,,,,,,,,,,,,,,,
,,613be225b62729f678a7e0ea,2024-02-18_20h31.28.068,kallum_motion_pilot,2023.2.2,Win32,58.47953217,613be225b62729f678a7e0ea,65d2b6c8f2eece985d8e374c,65d2b83ef2cdb579bb1760b3,0.0652,0.0652,0,86,86,90,1,sixfive,,,,,,,,,,,,,,,,,,,,,,,,,,,,,,,,,,,,,,,,,,,,,,,,,,,,,,,,,,,,,,,,,,,,,,,,,,,,,,,,,,,,,,,,,,,,,,,,,,,,,,,,,,,,,,,,,,,,,,,,,,,,,,,,,,,,,,,,,
,,613be225b62729f678a7e0ea,2024-02-18_20h31.28.068,kallum_motion_pilot,2023.2.2,Win32,58.47953217,613be225b62729f678a7e0ea,65d2b6c8f2eece985d8e374c,65d2b83ef2cdb579bb1760b3,0.0654,0.0654,0,87,87,72,1,onetwo,,,,,,,,,,,,,,,,,,,,,,,,,,,,,,,,,,,,,,,,,,,,,,,,,,,,,,,,,,,,,,,,,,,,,,,,,,,,,,,,,,,,,,,,,,,,,,,,,,,,,,,,,,,,,,,,,,,,,,,,,,,,,,,,,,,,,,,,,
,,613be225b62729f678a7e0ea,2024-02-18_20h31.28.068,kallum_motion_pilot,2023.2.2,Win32,58.47953217,613be225b62729f678a7e0ea,65d2b6c8f2eece985d8e374c,65d2b83ef2cdb579bb1760b3,0.0655,0.0656,0,88,88,31,1,fourthree,,,,,,,,,,,,,,,,,,,,,,,,,,,,,,,,,,,,,,,,,,,,,,,,,,,,,,,,,,,,,,,,,,,,,,,,,,,,,,,,,,,,,,,,,,,,,,,,,,,,,,,,,,,,,,,,,,,,,,,,,,,,,,,,,,,,,,,,,
,,613be225b62729f678a7e0ea,2024-02-18_20h31.28.068,kallum_motion_pilot,2023.2.2,Win32,58.47953217,613be225b62729f678a7e0ea,65d2b6c8f2eece985d8e374c,65d2b83ef2cdb579bb1760b3,0.0657,0.0658,0,89,89,40,1,onetwo,,,,,,,,,,,,,,,,,,,,,,,,,,,,,,,,,,,,,,,,,,,,,,,,,,,,,,,,,,,,,,,,,,,,,,,,,,,,,,,,,,,,,,,,,,,,,,,,,,,,,,,,,,,,,,,,,,,,,,,,,,,,,,,,,,,,,,,,,
,,613be225b62729f678a7e0ea,2024-02-18_20h31.28.068,kallum_motion_pilot,2023.2.2,Win32,58.47953217,613be225b62729f678a7e0ea,65d2b6c8f2eece985d8e374c,65d2b83ef2cdb579bb1760b3,0.0658,0.0659,0,90,90,26,1,twoone,,,,,,,,,,,,,,,,,,,,,,,,,,,,,,,,,,,,,,,,,,,,,,,,,,,,,,,,,,,,,,,,,,,,,,,,,,,,,,,,,,,,,,,,,,,,,,,,,,,,,,,,,,,,,,,,,,,,,,,,,,,,,,,,,,,,,,,,,
,,613be225b62729f678a7e0ea,2024-02-18_20h31.28.068,kallum_motion_pilot,2023.2.2,Win32,58.47953217,613be225b62729f678a7e0ea,65d2b6c8f2eece985d8e374c,65d2b83ef2cdb579bb1760b3,0.0661,0.0661,0,91,91,107,1,sixeight,,,,,,,,,,,,,,,,,,,,,,,,,,,,,,,,,,,,,,,,,,,,,,,,,,,,,,,,,,,,,,,,,,,,,,,,,,,,,,,,,,,,,,,,,,,,,,,,,,,,,,,,,,,,,,,,,,,,,,,,,,,,,,,,,,,,,,,,,
,,613be225b62729f678a7e0ea,2024-02-18_20h31.28.068,kallum_motion_pilot,2023.2.2,Win32,58.47953217,613be225b62729f678a7e0ea,65d2b6c8f2eece985d8e374c,65d2b83ef2cdb579bb1760b3,0.0662,0.0663,0,92,92,89,1,fiveseven,,,,,,,,,,,,,,,,,,,,,,,,,,,,,,,,,,,,,,,,,,,,,,,,,,,,,,,,,,,,,,,,,,,,,,,,,,,,,,,,,,,,,,,,,,,,,,,,,,,,,,,,,,,,,,,,,,,,,,,,,,,,,,,,,,,,,,,,,
,,613be225b62729f678a7e0ea,2024-02-18_20h31.28.068,kallum_motion_pilot,2023.2.2,Win32,58.47953217,613be225b62729f678a7e0ea,65d2b6c8f2eece985d8e374c,65d2b83ef2cdb579bb1760b3,0.0663,0.0664,0,93,93,21,1,threefour,,,,,,,,,,,,,,,,,,,,,,,,,,,,,,,,,,,,,,,,,,,,,,,,,,,,,,,,,,,,,,,,,,,,,,,,,,,,,,,,,,,,,,,,,,,,,,,,,,,,,,,,,,,,,,,,,,,,,,,,,,,,,,,,,,,,,,,,,
,,613be225b62729f678a7e0ea,2024-02-18_20h31.28.068,kallum_motion_pilot,2023.2.2,Win32,58.47953217,613be225b62729f678a7e0ea,65d2b6c8f2eece985d8e374c,65d2b83ef2cdb579bb1760b3,0.0665,0.0665,0,94,94,87,1,eightseven,,,,,,,,,,,,,,,,,,,,,,,,,,,,,,,,,,,,,,,,,,,,,,,,,,,,,,,,,,,,,,,,,,,,,,,,,,,,,,,,,,,,,,,,,,,,,,,,,,,,,,,,,,,,,,,,,,,,,,,,,,,,,,,,,,,,,,,,,
,,613be225b62729f678a7e0ea,2024-02-18_20h31.28.068,kallum_motion_pilot,2023.2.2,Win32,58.47953217,613be225b62729f678a7e0ea,65d2b6c8f2eece985d8e374c,65d2b83ef2cdb579bb1760b3,0.0667,0.0668,0,95,95,135,1,eightseven,,,,,,,,,,,,,,,,,,,,,,,,,,,,,,,,,,,,,,,,,,,,,,,,,,,,,,,,,,,,,,,,,,,,,,,,,,,,,,,,,,,,,,,,,,,,,,,,,,,,,,,,,,,,,,,,,,,,,,,,,,,,,,,,,,,,,,,,,
,,613be225b62729f678a7e0ea,2024-02-18_20h31.28.068,kallum_motion_pilot,2023.2.2,Win32,58.47953217,613be225b62729f678a7e0ea,65d2b6c8f2eece985d8e374c,65d2b83ef2cdb579bb1760b3,0.0669,0.0669,0,96,96,91,1,sixeight,,,,,,,,,,,,,,,,,,,,,,,,,,,,,,,,,,,,,,,,,,,,,,,,,,,,,,,,,,,,,,,,,,,,,,,,,,,,,,,,,,,,,,,,,,,,,,,,,,,,,,,,,,,,,,,,,,,,,,,,,,,,,,,,,,,,,,,,,
,,613be225b62729f678a7e0ea,2024-02-18_20h31.28.068,kallum_motion_pilot,2023.2.2,Win32,58.47953217,613be225b62729f678a7e0ea,65d2b6c8f2eece985d8e374c,65d2b83ef2cdb579bb1760b3,0.067,0.067,0,97,97,100,1,sevenfive,,,,,,,,,,,,,,,,,,,,,,,,,,,,,,,,,,,,,,,,,,,,,,,,,,,,,,,,,,,,,,,,,,,,,,,,,,,,,,,,,,,,,,,,,,,,,,,,,,,,,,,,,,,,,,,,,,,,,,,,,,,,,,,,,,,,,,,,,
,,613be225b62729f678a7e0ea,2024-02-18_20h31.28.068,kallum_motion_pilot,2023.2.2,Win32,58.47953217,613be225b62729f678a7e0ea,65d2b6c8f2eece985d8e374c,65d2b83ef2cdb579bb1760b3,0.0672,0.0673,0,98,98,95,1,eightseven,,,,,,,,,,,,,,,,,,,,,,,,,,,,,,,,,,,,,,,,,,,,,,,,,,,,,,,,,,,,,,,,,,,,,,,,,,,,,,,,,,,,,,,,,,,,,,,,,,,,,,,,,,,,,,,,,,,,,,,,,,,,,,,,,,,,,,,,,
,,613be225b62729f678a7e0ea,2024-02-18_20h31.28.068,kallum_motion_pilot,2023.2.2,Win32,58.47953217,613be225b62729f678a7e0ea,65d2b6c8f2eece985d8e374c,65d2b83ef2cdb579bb1760b3,0.0673,0.0674,0,99,99,23,1,fourthree,,,,,,,,,,,,,,,,,,,,,,,,,,,,,,,,,,,,,,,,,,,,,,,,,,,,,,,,,,,,,,,,,,,,,,,,,,,,,,,,,,,,,,,,,,,,,,,,,,,,,,,,,,,,,,,,,,,,,,,,,,,,,,,,,,,,,,,,,
,,613be225b62729f678a7e0ea,2024-02-18_20h31.28.068,kallum_motion_pilot,2023.2.2,Win32,58.47953217,613be225b62729f678a7e0ea,65d2b6c8f2eece985d8e374c,65d2b83ef2cdb579bb1760b3,0.0676,0.0676,0,100,100,71,1,fourthree,,,,,,,,,,,,,,,,,,,,,,,,,,,,,,,,,,,,,,,,,,,,,,,,,,,,,,,,,,,,,,,,,,,,,,,,,,,,,,,,,,,,,,,,,,,,,,,,,,,,,,,,,,,,,,,,,,,,,,,,,,,,,,,,,,,,,,,,,
,,613be225b62729f678a7e0ea,2024-02-18_20h31.28.068,kallum_motion_pilot,2023.2.2,Win32,58.47953217,613be225b62729f678a7e0ea,65d2b6c8f2eece985d8e374c,65d2b83ef2cdb579bb1760b3,0.0678,0.0678,0,101,101,147,1,sixeight,,,,,,,,,,,,,,,,,,,,,,,,,,,,,,,,,,,,,,,,,,,,,,,,,,,,,,,,,,,,,,,,,,,,,,,,,,,,,,,,,,,,,,,,,,,,,,,,,,,,,,,,,,,,,,,,,,,,,,,,,,,,,,,,,,,,,,,,,
,,613be225b62729f678a7e0ea,2024-02-18_20h31.28.068,kallum_motion_pilot,2023.2.2,Win32,58.47953217,613be225b62729f678a7e0ea,65d2b6c8f2eece985d8e374c,65d2b83ef2cdb579bb1760b3,0.0679,0.068,0,102,102,68,1,threeone,,,,,,,,,,,,,,,,,,,,,,,,,,,,,,,,,,,,,,,,,,,,,,,,,,,,,,,,,,,,,,,,,,,,,,,,,,,,,,,,,,,,,,,,,,,,,,,,,,,,,,,,,,,,,,,,,,,,,,,,,,,,,,,,,,,,,,,,,
,,613be225b62729f678a7e0ea,2024-02-18_20h31.28.068,kallum_motion_pilot,2023.2.2,Win32,58.47953217,613be225b62729f678a7e0ea,65d2b6c8f2eece985d8e374c,65d2b83ef2cdb579bb1760b3,0.068,0.0681,0,103,103,8,1,onetwo,,,,,,,,,,,,,,,,,,,,,,,,,,,,,,,,,,,,,,,,,,,,,,,,,,,,,,,,,,,,,,,,,,,,,,,,,,,,,,,,,,,,,,,,,,,,,,,,,,,,,,,,,,,,,,,,,,,,,,,,,,,,,,,,,,,,,,,,,
,,613be225b62729f678a7e0ea,2024-02-18_20h31.28.068,kallum_motion_pilot,2023.2.2,Win32,58.47953217,613be225b62729f678a7e0ea,65d2b6c8f2eece985d8e374c,65d2b83ef2cdb579bb1760b3,0.0682,0.0683,0,104,104,117,1,seveneight,,,,,,,,,,,,,,,,,,,,,,,,,,,,,,,,,,,,,,,,,,,,,,,,,,,,,,,,,,,,,,,,,,,,,,,,,,,,,,,,,,,,,,,,,,,,,,,,,,,,,,,,,,,,,,,,,,,,,,,,,,,,,,,,,,,,,,,,,
,,613be225b62729f678a7e0ea,2024-02-18_20h31.28.068,kallum_motion_pilot,2023.2.2,Win32,58.47953217,613be225b62729f678a7e0ea,65d2b6c8f2eece985d8e374c,65d2b83ef2cdb579bb1760b3,0.0684,0.0685,0,105,105,143,1,eightseven,,,,,,,,,,,,,,,,,,,,,,,,,,,,,,,,,,,,,,,,,,,,,,,,,,,,,,,,,,,,,,,,,,,,,,,,,,,,,,,,,,,,,,,,,,,,,,,,,,,,,,,,,,,,,,,,,,,,,,,,,,,,,,,,,,,,,,,,,
,,613be225b62729f678a7e0ea,2024-02-18_20h31.28.068,kallum_motion_pilot,2023.2.2,Win32,58.47953217,613be225b62729f678a7e0ea,65d2b6c8f2eece985d8e374c,65d2b83ef2cdb579bb1760b3,0.0685,0.0687,0,106,106,64,1,onetwo,,,,,,,,,,,,,,,,,,,,,,,,,,,,,,,,,,,,,,,,,,,,,,,,,,,,,,,,,,,,,,,,,,,,,,,,,,,,,,,,,,,,,,,,,,,,,,,,,,,,,,,,,,,,,,,,,,,,,,,,,,,,,,,,,,,,,,,,,
,,613be225b62729f678a7e0ea,2024-02-18_20h31.28.068,kallum_motion_pilot,2023.2.2,Win32,58.47953217,613be225b62729f678a7e0ea,65d2b6c8f2eece985d8e374c,65d2b83ef2cdb579bb1760b3,0.0687,0.0689,0,107,107,57,1,onethree,,,,,,,,,,,,,,,,,,,,,,,,,,,,,,,,,,,,,,,,,,,,,,,,,,,,,,,,,,,,,,,,,,,,,,,,,,,,,,,,,,,,,,,,,,,,,,,,,,,,,,,,,,,,,,,,,,,,,,,,,,,,,,,,,,,,,,,,,
,,613be225b62729f678a7e0ea,2024-02-18_20h31.28.068,kallum_motion_pilot,2023.2.2,Win32,58.47953217,613be225b62729f678a7e0ea,65d2b6c8f2eece985d8e374c,65d2b83ef2cdb579bb1760b3,0.069,0.069,0,108,108,41,1,onethree,,,,,,,,,,,,,,,,,,,,,,,,,,,,,,,,,,,,,,,,,,,,,,,,,,,,,,,,,,,,,,,,,,,,,,,,,,,,,,,,,,,,,,,,,,,,,,,,,,,,,,,,,,,,,,,,,,,,,,,,,,,,,,,,,,,,,,,,,
,,613be225b62729f678a7e0ea,2024-02-18_20h31.28.068,kallum_motion_pilot,2023.2.2,Win32,58.47953217,613be225b62729f678a7e0ea,65d2b6c8f2eece985d8e374c,65d2b83ef2cdb579bb1760b3,0.0691,0.0692,0,109,109,39,1,fourthree,,,,,,,,,,,,,,,,,,,,,,,,,,,,,,,,,,,,,,,,,,,,,,,,,,,,,,,,,,,,,,,,,,,,,,,,,,,,,,,,,,,,,,,,,,,,,,,,,,,,,,,,,,,,,,,,,,,,,,,,,,,,,,,,,,,,,,,,,
,,613be225b62729f678a7e0ea,2024-02-18_20h31.28.068,kallum_motion_pilot,2023.2.2,Win32,58.47953217,613be225b62729f678a7e0ea,65d2b6c8f2eece985d8e374c,65d2b83ef2cdb579bb1760b3,0.0693,0.0693,0,110,110,152,1,fivesix,,,,,,,,,,,,,,,,,,,,,,,,,,,,,,,,,,,,,,,,,,,,,,,,,,,,,,,,,,,,,,,,,,,,,,,,,,,,,,,,,,,,,,,,,,,,,,,,,,,,,,,,,,,,,,,,,,,,,,,,,,,,,,,,,,,,,,,,,
,,613be225b62729f678a7e0ea,2024-02-18_20h31.28.068,kallum_motion_pilot,2023.2.2,Win32,58.47953217,613be225b62729f678a7e0ea,65d2b6c8f2eece985d8e374c,65d2b83ef2cdb579bb1760b3,0.0694,0.0695,0,111,111,4,1,threeone,,,,,,,,,,,,,,,,,,,,,,,,,,,,,,,,,,,,,,,,,,,,,,,,,,,,,,,,,,,,,,,,,,,,,,,,,,,,,,,,,,,,,,,,,,,,,,,,,,,,,,,,,,,,,,,,,,,,,,,,,,,,,,,,,,,,,,,,,
,,613be225b62729f678a7e0ea,2024-02-18_20h31.28.068,kallum_motion_pilot,2023.2.2,Win32,58.47953217,613be225b62729f678a7e0ea,65d2b6c8f2eece985d8e374c,65d2b83ef2cdb579bb1760b3,0.0696,0.0696,0,112,112,77,1,threefour,,,,,,,,,,,,,,,,,,,,,,,,,,,,,,,,,,,,,,,,,,,,,,,,,,,,,,,,,,,,,,,,,,,,,,,,,,,,,,,,,,,,,,,,,,,,,,,,,,,,,,,,,,,,,,,,,,,,,,,,,,,,,,,,,,,,,,,,,
,,613be225b62729f678a7e0ea,2024-02-18_20h31.28.068,kallum_motion_pilot,2023.2.2,Win32,58.47953217,613be225b62729f678a7e0ea,65d2b6c8f2eece985d8e374c,65d2b83ef2cdb579bb1760b3,0.0698,0.0698,0,113,113,124,1,sevenfive,,,,,,,,,,,,,,,,,,,,,,,,,,,,,,,,,,,,,,,,,,,,,,,,,,,,,,,,,,,,,,,,,,,,,,,,,,,,,,,,,,,,,,,,,,,,,,,,,,,,,,,,,,,,,,,,,,,,,,,,,,,,,,,,,,,,,,,,,
,,613be225b62729f678a7e0ea,2024-02-18_20h31.28.068,kallum_motion_pilot,2023.2.2,Win32,58.47953217,613be225b62729f678a7e0ea,65d2b6c8f2eece985d8e374c,65d2b83ef2cdb579bb1760b3,0.0699,0.07,0,114,114,126,1,eightsix,,,,,,,,,,,,,,,,,,,,,,,,,,,,,,,,,,,,,,,,,,,,,,,,,,,,,,,,,,,,,,,,,,,,,,,,,,,,,,,,,,,,,,,,,,,,,,,,,,,,,,,,,,,,,,,,,,,,,,,,,,,,,,,,,,,,,,,,,
,,613be225b62729f678a7e0ea,2024-02-18_20h31.28.068,kallum_motion_pilot,2023.2.2,Win32,58.47953217,613be225b62729f678a7e0ea,65d2b6c8f2eece985d8e374c,65d2b83ef2cdb579bb1760b3,0.0701,0.0701,0,115,115,9,1,onethree,,,,,,,,,,,,,,,,,,,,,,,,,,,,,,,,,,,,,,,,,,,,,,,,,,,,,,,,,,,,,,,,,,,,,,,,,,,,,,,,,,,,,,,,,,,,,,,,,,,,,,,,,,,,,,,,,,,,,,,,,,,,,,,,,,,,,,,,,
,,613be225b62729f678a7e0ea,2024-02-18_20h31.28.068,kallum_motion_pilot,2023.2.2,Win32,58.47953217,613be225b62729f678a7e0ea,65d2b6c8f2eece985d8e374c,65d2b83ef2cdb579bb1760b3,0.0703,0.0703,0,116,116,82,1,sixfive,,,,,,,,,,,,,,,,,,,,,,,,,,,,,,,,,,,,,,,,,,,,,,,,,,,,,,,,,,,,,,,,,,,,,,,,,,,,,,,,,,,,,,,,,,,,,,,,,,,,,,,,,,,,,,,,,,,,,,,,,,,,,,,,,,,,,,,,,
,,613be225b62729f678a7e0ea,2024-02-18_20h31.28.068,kallum_motion_pilot,2023.2.2,Win32,58.47953217,613be225b62729f678a7e0ea,65d2b6c8f2eece985d8e374c,65d2b83ef2cdb579bb1760b3,0.0705,0.0705,0,117,117,146,1,sixfive,,,,,,,,,,,,,,,,,,,,,,,,,,,,,,,,,,,,,,,,,,,,,,,,,,,,,,,,,,,,,,,,,,,,,,,,,,,,,,,,,,,,,,,,,,,,,,,,,,,,,,,,,,,,,,,,,,,,,,,,,,,,,,,,,,,,,,,,,
,,613be225b62729f678a7e0ea,2024-02-18_20h31.28.068,kallum_motion_pilot,2023.2.2,Win32,58.47953217,613be225b62729f678a7e0ea,65d2b6c8f2eece985d8e374c,65d2b83ef2cdb579bb1760b3,0.0706,0.0707,0,118,118,153,1,fiveseven,,,,,,,,,,,,,,,,,,,,,,,,,,,,,,,,,,,,,,,,,,,,,,,,,,,,,,,,,,,,,,,,,,,,,,,,,,,,,,,,,,,,,,,,,,,,,,,,,,,,,,,,,,,,,,,,,,,,,,,,,,,,,,,,,,,,,,,,,
,,613be225b62729f678a7e0ea,2024-02-18_20h31.28.068,kallum_motion_pilot,2023.2.2,Win32,58.47953217,613be225b62729f678a7e0ea,65d2b6c8f2eece985d8e374c,65d2b83ef2cdb579bb1760b3,0.0708,0.0709,0,119,119,149,1,seveneight,,,,,,,,,,,,,,,,,,,,,,,,,,,,,,,,,,,,,,,,,,,,,,,,,,,,,,,,,,,,,,,,,,,,,,,,,,,,,,,,,,,,,,,,,,,,,,,,,,,,,,,,,,,,,,,,,,,,,,,,,,,,,,,,,,,,,,,,,
,,613be225b62729f678a7e0ea,2024-02-18_20h31.28.068,kallum_motion_pilot,2023.2.2,Win32,58.47953217,613be225b62729f678a7e0ea,65d2b6c8f2eece985d8e374c,65d2b83ef2cdb579bb1760b3,0.0709,0.0711,0,120,120,55,1,fourthree,,,,,,,,,,,,,,,,,,,,,,,,,,,,,,,,,,,,,,,,,,,,,,,,,,,,,,,,,,,,,,,,,,,,,,,,,,,,,,,,,,,,,,,,,,,,,,,,,,,,,,,,,,,,,,,,,,,,,,,,,,,,,,,,,,,,,,,,,
,,613be225b62729f678a7e0ea,2024-02-18_20h31.28.068,kallum_motion_pilot,2023.2.2,Win32,58.47953217,613be225b62729f678a7e0ea,65d2b6c8f2eece985d8e374c,65d2b83ef2cdb579bb1760b3,0.0711,0.0712,0,121,121,58,1,twoone,,,,,,,,,,,,,,,,,,,,,,,,,,,,,,,,,,,,,,,,,,,,,,,,,,,,,,,,,,,,,,,,,,,,,,,,,,,,,,,,,,,,,,,,,,,,,,,,,,,,,,,,,,,,,,,,,,,,,,,,,,,,,,,,,,,,,,,,,
,,613be225b62729f678a7e0ea,2024-02-18_20h31.28.068,kallum_motion_pilot,2023.2.2,Win32,58.47953217,613be225b62729f678a7e0ea,65d2b6c8f2eece985d8e374c,65d2b83ef2cdb579bb1760b3,0.0712,0.0713,0,122,122,42,1,twoone,,,,,,,,,,,,,,,,,,,,,,,,,,,,,,,,,,,,,,,,,,,,,,,,,,,,,,,,,,,,,,,,,,,,,,,,,,,,,,,,,,,,,,,,,,,,,,,,,,,,,,,,,,,,,,,,,,,,,,,,,,,,,,,,,,,,,,,,,
,,613be225b62729f678a7e0ea,2024-02-18_20h31.28.068,kallum_motion_pilot,2023.2.2,Win32,58.47953217,613be225b62729f678a7e0ea,65d2b6c8f2eece985d8e374c,65d2b83ef2cdb579bb1760b3,0.0715,0.0715,0,123,123,70,1,fourtwo,,,,,,,,,,,,,,,,,,,,,,,,,,,,,,,,,,,,,,,,,,,,,,,,,,,,,,,,,,,,,,,,,,,,,,,,,,,,,,,,,,,,,,,,,,,,,,,,,,,,,,,,,,,,,,,,,,,,,,,,,,,,,,,,,,,,,,,,,
,,613be225b62729f678a7e0ea,2024-02-18_20h31.28.068,kallum_motion_pilot,2023.2.2,Win32,58.47953217,613be225b62729f678a7e0ea,65d2b6c8f2eece985d8e374c,65d2b83ef2cdb579bb1760b3,0.0717,0.0718,0,124,124,108,1,sevenfive,,,,,,,,,,,,,,,,,,,,,,,,,,,,,,,,,,,,,,,,,,,,,,,,,,,,,,,,,,,,,,,,,,,,,,,,,,,,,,,,,,,,,,,,,,,,,,,,,,,,,,,,,,,,,,,,,,,,,,,,,,,,,,,,,,,,,,,,,
,,613be225b62729f678a7e0ea,2024-02-18_20h31.28.068,kallum_motion_pilot,2023.2.2,Win32,58.47953217,613be225b62729f678a7e0ea,65d2b6c8f2eece985d8e374c,65d2b83ef2cdb579bb1760b3,0.0719,0.0719,0,125,125,102,1,eightsix,,,,,,,,,,,,,,,,,,,,,,,,,,,,,,,,,,,,,,,,,,,,,,,,,,,,,,,,,,,,,,,,,,,,,,,,,,,,,,,,,,,,,,,,,,,,,,,,,,,,,,,,,,,,,,,,,,,,,,,,,,,,,,,,,,,,,,,,,
,,613be225b62729f678a7e0ea,2024-02-18_20h31.28.068,kallum_motion_pilot,2023.2.2,Win32,58.47953217,613be225b62729f678a7e0ea,65d2b6c8f2eece985d8e374c,65d2b83ef2cdb579bb1760b3,0.072,0.0721,0,126,126,96,1,fivesix,,,,,,,,,,,,,,,,,,,,,,,,,,,,,,,,,,,,,,,,,,,,,,,,,,,,,,,,,,,,,,,,,,,,,,,,,,,,,,,,,,,,,,,,,,,,,,,,,,,,,,,,,,,,,,,,,,,,,,,,,,,,,,,,,,,,,,,,,
,,613be225b62729f678a7e0ea,2024-02-18_20h31.28.068,kallum_motion_pilot,2023.2.2,Win32,58.47953217,613be225b62729f678a7e0ea,65d2b6c8f2eece985d8e374c,65d2b83ef2cdb579bb1760b3,0.0723,0.0723,0,127,127,130,1,sixfive,,,,,,,,,,,,,,,,,,,,,,,,,,,,,,,,,,,,,,,,,,,,,,,,,,,,,,,,,,,,,,,,,,,,,,,,,,,,,,,,,,,,,,,,,,,,,,,,,,,,,,,,,,,,,,,,,,,,,,,,,,,,,,,,,,,,,,,,,
,,613be225b62729f678a7e0ea,2024-02-18_20h31.28.068,kallum_motion_pilot,2023.2.2,Win32,58.47953217,613be225b62729f678a7e0ea,65d2b6c8f2eece985d8e374c,65d2b83ef2cdb579bb1760b3,0.0724,0.0725,0,128,128,93,1,seveneight,,,,,,,,,,,,,,,,,,,,,,,,,,,,,,,,,,,,,,,,,,,,,,,,,,,,,,,,,,,,,,,,,,,,,,,,,,,,,,,,,,,,,,,,,,,,,,,,,,,,,,,,,,,,,,,,,,,,,,,,,,,,,,,,,,,,,,,,,
,,613be225b62729f678a7e0ea,2024-02-18_20h31.28.068,kallum_motion_pilot,2023.2.2,Win32,58.47953217,613be225b62729f678a7e0ea,65d2b6c8f2eece985d8e374c,65d2b83ef2cdb579bb1760b3,0.0726,0.0726,0,129,129,110,1,eightsix,,,,,,,,,,,,,,,,,,,,,,,,,,,,,,,,,,,,,,,,,,,,,,,,,,,,,,,,,,,,,,,,,,,,,,,,,,,,,,,,,,,,,,,,,,,,,,,,,,,,,,,,,,,,,,,,,,,,,,,,,,,,,,,,,,,,,,,,,
,,613be225b62729f678a7e0ea,2024-02-18_20h31.28.068,kallum_motion_pilot,2023.2.2,Win32,58.47953217,613be225b62729f678a7e0ea,65d2b6c8f2eece985d8e374c,65d2b83ef2cdb579bb1760b3,0.0728,0.0729,0,130,130,17,1,onethree,,,,,,,,,,,,,,,,,,,,,,,,,,,,,,,,,,,,,,,,,,,,,,,,,,,,,,,,,,,,,,,,,,,,,,,,,,,,,,,,,,,,,,,,,,,,,,,,,,,,,,,,,,,,,,,,,,,,,,,,,,,,,,,,,,,,,,,,,
,,613be225b62729f678a7e0ea,2024-02-18_20h31.28.068,kallum_motion_pilot,2023.2.2,Win32,58.47953217,613be225b62729f678a7e0ea,65d2b6c8f2eece985d8e374c,65d2b83ef2cdb579bb1760b3,0.0729,0.073,0,131,131,53,1,threefour,,,,,,,,,,,,,,,,,,,,,,,,,,,,,,,,,,,,,,,,,,,,,,,,,,,,,,,,,,,,,,,,,,,,,,,,,,,,,,,,,,,,,,,,,,,,,,,,,,,,,,,,,,,,,,,,,,,,,,,,,,,,,,,,,,,,,,,,,
,,613be225b62729f678a7e0ea,2024-02-18_20h31.28.068,kallum_motion_pilot,2023.2.2,Win32,58.47953217,613be225b62729f678a7e0ea,65d2b6c8f2eece985d8e374c,65d2b83ef2cdb579bb1760b3,0.0731,0.0731,0,132,132,44,1,threeone,,,,,,,,,,,,,,,,,,,,,,,,,,,,,,,,,,,,,,,,,,,,,,,,,,,,,,,,,,,,,,,,,,,,,,,,,,,,,,,,,,,,,,,,,,,,,,,,,,,,,,,,,,,,,,,,,,,,,,,,,,,,,,,,,,,,,,,,,
,,613be225b62729f678a7e0ea,2024-02-18_20h31.28.068,kallum_motion_pilot,2023.2.2,Win32,58.47953217,613be225b62729f678a7e0ea,65d2b6c8f2eece985d8e374c,65d2b83ef2cdb579bb1760b3,0.0733,0.0734,0,133,133,137,1,fiveseven,,,,,,,,,,,,,,,,,,,,,,,,,,,,,,,,,,,,,,,,,,,,,,,,,,,,,,,,,,,,,,,,,,,,,,,,,,,,,,,,,,,,,,,,,,,,,,,,,,,,,,,,,,,,,,,,,,,,,,,,,,,,,,,,,,,,,,,,,
,,613be225b62729f678a7e0ea,2024-02-18_20h31.28.068,kallum_motion_pilot,2023.2.2,Win32,58.47953217,613be225b62729f678a7e0ea,65d2b6c8f2eece985d8e374c,65d2b83ef2cdb579bb1760b3,0.0734,0.0735,0,134,134,123,1,sixeight,,,,,,,,,,,,,,,,,,,,,,,,,,,,,,,,,,,,,,,,,,,,,,,,,,,,,,,,,,,,,,,,,,,,,,,,,,,,,,,,,,,,,,,,,,,,,,,,,,,,,,,,,,,,,,,,,,,,,,,,,,,,,,,,,,,,,,,,,
,,613be225b62729f678a7e0ea,2024-02-18_20h31.28.068,kallum_motion_pilot,2023.2.2,Win32,58.47953217,613be225b62729f678a7e0ea,65d2b6c8f2eece985d8e374c,65d2b83ef2cdb579bb1760b3,0.0737,0.0737,0,135,135,106,1,sixfive,,,,,,,,,,,,,,,,,,,,,,,,,,,,,,,,,,,,,,,,,,,,,,,,,,,,,,,,,,,,,,,,,,,,,,,,,,,,,,,,,,,,,,,,,,,,,,,,,,,,,,,,,,,,,,,,,,,,,,,,,,,,,,,,,,,,,,,,,
,,613be225b62729f678a7e0ea,2024-02-18_20h31.28.068,kallum_motion_pilot,2023.2.2,Win32,58.47953217,613be225b62729f678a7e0ea,65d2b6c8f2eece985d8e374c,65d2b83ef2cdb579bb1760b3,0.0738,0.0739,0,136,136,131,1,sixeight,,,,,,,,,,,,,,,,,,,,,,,,,,,,,,,,,,,,,,,,,,,,,,,,,,,,,,,,,,,,,,,,,,,,,,,,,,,,,,,,,,,,,,,,,,,,,,,,,,,,,,,,,,,,,,,,,,,,,,,,,,,,,,,,,,,,,,,,,
,,613be225b62729f678a7e0ea,2024-02-18_20h31.28.068,kallum_motion_pilot,2023.2.2,Win32,58.47953217,613be225b62729f678a7e0ea,65d2b6c8f2eece985d8e374c,65d2b83ef2cdb579bb1760b3,0.074,0.0741,0,137,137,66,1,twoone,,,,,,,,,,,,,,,,,,,,,,,,,,,,,,,,,,,,,,,,,,,,,,,,,,,,,,,,,,,,,,,,,,,,,,,,,,,,,,,,,,,,,,,,,,,,,,,,,,,,,,,,,,,,,,,,,,,,,,,,,,,,,,,,,,,,,,,,,
,,613be225b62729f678a7e0ea,2024-02-18_20h31.28.068,kallum_motion_pilot,2023.2.2,Win32,58.47953217,613be225b62729f678a7e0ea,65d2b6c8f2eece985d8e374c,65d2b83ef2cdb579bb1760b3,0.0742,0.0743,0,138,138,78,1,fourtwo,,,,,,,,,,,,,,,,,,,,,,,,,,,,,,,,,,,,,,,,,,,,,,,,,,,,,,,,,,,,,,,,,,,,,,,,,,,,,,,,,,,,,,,,,,,,,,,,,,,,,,,,,,,,,,,,,,,,,,,,,,,,,,,,,,,,,,,,,
,,613be225b62729f678a7e0ea,2024-02-18_20h31.28.068,kallum_motion_pilot,2023.2.2,Win32,58.47953217,613be225b62729f678a7e0ea,65d2b6c8f2eece985d8e374c,65d2b83ef2cdb579bb1760b3,0.0744,0.0744,0,139,139,76,1,threeone,,,,,,,,,,,,,,,,,,,,,,,,,,,,,,,,,,,,,,,,,,,,,,,,,,,,,,,,,,,,,,,,,,,,,,,,,,,,,,,,,,,,,,,,,,,,,,,,,,,,,,,,,,,,,,,,,,,,,,,,,,,,,,,,,,,,,,,,,
,,613be225b62729f678a7e0ea,2024-02-18_20h31.28.068,kallum_motion_pilot,2023.2.2,Win32,58.47953217,613be225b62729f678a7e0ea,65d2b6c8f2eece985d8e374c,65d2b83ef2cdb579bb1760b3,0.0745,0.0747,0,140,140,121,1,fiveseven,,,,,,,,,,,,,,,,,,,,,,,,,,,,,,,,,,,,,,,,,,,,,,,,,,,,,,,,,,,,,,,,,,,,,,,,,,,,,,,,,,,,,,,,,,,,,,,,,,,,,,,,,,,,,,,,,,,,,,,,,,,,,,,,,,,,,,,,,
,,613be225b62729f678a7e0ea,2024-02-18_20h31.28.068,kallum_motion_pilot,2023.2.2,Win32,58.47953217,613be225b62729f678a7e0ea,65d2b6c8f2eece985d8e374c,65d2b83ef2cdb579bb1760b3,0.0747,0.0749,0,141,141,59,1,twofour,,,,,,,,,,,,,,,,,,,,,,,,,,,,,,,,,,,,,,,,,,,,,,,,,,,,,,,,,,,,,,,,,,,,,,,,,,,,,,,,,,,,,,,,,,,,,,,,,,,,,,,,,,,,,,,,,,,,,,,,,,,,,,,,,,,,,,,,,
,,613be225b62729f678a7e0ea,2024-02-18_20h31.28.068,kallum_motion_pilot,2023.2.2,Win32,58.47953217,613be225b62729f678a7e0ea,65d2b6c8f2eece985d8e374c,65d2b83ef2cdb579bb1760b3,0.075,0.075,0,142,142,62,1,fourtwo,,,,,,,,,,,,,,,,,,,,,,,,,,,,,,,,,,,,,,,,,,,,,,,,,,,,,,,,,,,,,,,,,,,,,,,,,,,,,,,,,,,,,,,,,,,,,,,,,,,,,,,,,,,,,,,,,,,,,,,,,,,,,,,,,,,,,,,,,
,,613be225b62729f678a7e0ea,2024-02-18_20h31.28.068,kallum_motion_pilot,2023.2.2,Win32,58.47953217,613be225b62729f678a7e0ea,65d2b6c8f2eece985d8e374c,65d2b83ef2cdb579bb1760b3,0.0751,0.0752,0,143,143,27,1,twofour,,,,,,,,,,,,,,,,,,,,,,,,,,,,,,,,,,,,,,,,,,,,,,,,,,,,,,,,,,,,,,,,,,,,,,,,,,,,,,,,,,,,,,,,,,,,,,,,,,,,,,,,,,,,,,,,,,,,,,,,,,,,,,,,,,,,,,,,,
,,613be225b62729f678a7e0ea,2024-02-18_20h31.28.068,kallum_motion_pilot,2023.2.2,Win32,58.47953217,613be225b62729f678a7e0ea,65d2b6c8f2eece985d8e374c,65d2b83ef2cdb579bb1760b3,0.0753,0.0753,0,144,144,74,1,twoone,,,,,,,,,,,,,,,,,,,,,,,,,,,,,,,,,,,,,,,,,,,,,,,,,,,,,,,,,,,,,,,,,,,,,,,,,,,,,,,,,,,,,,,,,,,,,,,,,,,,,,,,,,,,,,,,,,,,,,,,,,,,,,,,,,,,,,,,,
,,613be225b62729f678a7e0ea,2024-02-18_20h31.28.068,kallum_motion_pilot,2023.2.2,Win32,58.47953217,613be225b62729f678a7e0ea,65d2b6c8f2eece985d8e374c,65d2b83ef2cdb579bb1760b3,0.0755,0.0755,0,145,145,112,1,fivesix,,,,,,,,,,,,,,,,,,,,,,,,,,,,,,,,,,,,,,,,,,,,,,,,,,,,,,,,,,,,,,,,,,,,,,,,,,,,,,,,,,,,,,,,,,,,,,,,,,,,,,,,,,,,,,,,,,,,,,,,,,,,,,,,,,,,,,,,,
,,613be225b62729f678a7e0ea,2024-02-18_20h31.28.068,kallum_motion_pilot,2023.2.2,Win32,58.47953217,613be225b62729f678a7e0ea,65d2b6c8f2eece985d8e374c,65d2b83ef2cdb579bb1760b3,0.0757,0.0757,0,146,146,12,1,threeone,,,,,,,,,,,,,,,,,,,,,,,,,,,,,,,,,,,,,,,,,,,,,,,,,,,,,,,,,,,,,,,,,,,,,,,,,,,,,,,,,,,,,,,,,,,,,,,,,,,,,,,,,,,,,,,,,,,,,,,,,,,,,,,,,,,,,,,,,
,,613be225b62729f678a7e0ea,2024-02-18_20h31.28.068,kallum_motion_pilot,2023.2.2,Win32,58.47953217,613be225b62729f678a7e0ea,65d2b6c8f2eece985d8e374c,65d2b83ef2cdb579bb1760b3,0.0759,0.0759,0,147,147,104,1,fivesix,,,,,,,,,,,,,,,,,,,,,,,,,,,,,,,,,,,,,,,,,,,,,,,,,,,,,,,,,,,,,,,,,,,,,,,,,,,,,,,,,,,,,,,,,,,,,,,,,,,,,,,,,,,,,,,,,,,,,,,,,,,,,,,,,,,,,,,,,
,,613be225b62729f678a7e0ea,2024-02-18_20h31.28.068,kallum_motion_pilot,2023.2.2,Win32,58.47953217,613be225b62729f678a7e0ea,65d2b6c8f2eece985d8e374c,65d2b83ef2cdb579bb1760b3,0.076,0.076,0,148,148,25,1,onethree,,,,,,,,,,,,,,,,,,,,,,,,,,,,,,,,,,,,,,,,,,,,,,,,,,,,,,,,,,,,,,,,,,,,,,,,,,,,,,,,,,,,,,,,,,,,,,,,,,,,,,,,,,,,,,,,,,,,,,,,,,,,,,,,,,,,,,,,,
,,613be225b62729f678a7e0ea,2024-02-18_20h31.28.068,kallum_motion_pilot,2023.2.2,Win32,58.47953217,613be225b62729f678a7e0ea,65d2b6c8f2eece985d8e374c,65d2b83ef2cdb579bb1760b3,0.0762,0.0763,0,149,149,18,1,twoone,,,,,,,,,,,,,,,,,,,,,,,,,,,,,,,,,,,,,,,,,,,,,,,,,,,,,,,,,,,,,,,,,,,,,,,,,,,,,,,,,,,,,,,,,,,,,,,,,,,,,,,,,,,,,,,,,,,,,,,,,,,,,,,,,,,,,,,,,
,,613be225b62729f678a7e0ea,2024-02-18_20h31.28.068,kallum_motion_pilot,2023.2.2,Win32,58.47953217,613be225b62729f678a7e0ea,65d2b6c8f2eece985d8e374c,65d2b83ef2cdb579bb1760b3,0.0764,0.0765,0,150,150,11,1,twofour,,,,,,,,,,,,,,,,,,,,,,,,,,,,,,,,,,,,,,,,,,,,,,,,,,,,,,,,,,,,,,,,,,,,,,,,,,,,,,,,,,,,,,,,,,,,,,,,,,,,,,,,,,,,,,,,,,,,,,,,,,,,,,,,,,,,,,,,,
,,613be225b62729f678a7e0ea,2024-02-18_20h31.28.068,kallum_motion_pilot,2023.2.2,Win32,58.47953217,613be225b62729f678a7e0ea,65d2b6c8f2eece985d8e374c,65d2b83ef2cdb579bb1760b3,0.0766,0.0766,0,151,151,113,1,fiveseven,,,,,,,,,,,,,,,,,,,,,,,,,,,,,,,,,,,,,,,,,,,,,,,,,,,,,,,,,,,,,,,,,,,,,,,,,,,,,,,,,,,,,,,,,,,,,,,,,,,,,,,,,,,,,,,,,,,,,,,,,,,,,,,,,,,,,,,,,
,,613be225b62729f678a7e0ea,2024-02-18_20h31.28.068,kallum_motion_pilot,2023.2.2,Win32,58.47953217,613be225b62729f678a7e0ea,65d2b6c8f2eece985d8e374c,65d2b83ef2cdb579bb1760b3,0.0767,0.0767,0,152,152,50,1,twoone,,,,,,,,,,,,,,,,,,,,,,,,,,,,,,,,,,,,,,,,,,,,,,,,,,,,,,,,,,,,,,,,,,,,,,,,,,,,,,,,,,,,,,,,,,,,,,,,,,,,,,,,,,,,,,,,,,,,,,,,,,,,,,,,,,,,,,,,,
,,613be225b62729f678a7e0ea,2024-02-18_20h31.28.068,kallum_motion_pilot,2023.2.2,Win32,58.47953217,613be225b62729f678a7e0ea,65d2b6c8f2eece985d8e374c,65d2b83ef2cdb579bb1760b3,0.0768,0.077,0,153,153,2,1,twoone,,,,,,,,,,,,,,,,,,,,,,,,,,,,,,,,,,,,,,,,,,,,,,,,,,,,,,,,,,,,,,,,,,,,,,,,,,,,,,,,,,,,,,,,,,,,,,,,,,,,,,,,,,,,,,,,,,,,,,,,,,,,,,,,,,,,,,,,,
,,613be225b62729f678a7e0ea,2024-02-18_20h31.28.068,kallum_motion_pilot,2023.2.2,Win32,58.47953217,613be225b62729f678a7e0ea,65d2b6c8f2eece985d8e374c,65d2b83ef2cdb579bb1760b3,0.077,0.0771,0,154,154,13,1,threefour,,,,,,,,,,,,,,,,,,,,,,,,,,,,,,,,,,,,,,,,,,,,,,,,,,,,,,,,,,,,,,,,,,,,,,,,,,,,,,,,,,,,,,,,,,,,,,,,,,,,,,,,,,,,,,,,,,,,,,,,,,,,,,,,,,,,,,,,,
,,613be225b62729f678a7e0ea,2024-02-18_20h31.28.068,kallum_motion_pilot,2023.2.2,Win32,58.47953217,613be225b62729f678a7e0ea,65d2b6c8f2eece985d8e374c,65d2b83ef2cdb579bb1760b3,0.0773,0.0773,0,155,155,22,1,fourtwo,,,,,,,,,,,,,,,,,,,,,,,,,,,,,,,,,,,,,,,,,,,,,,,,,,,,,,,,,,,,,,,,,,,,,,,,,,,,,,,,,,,,,,,,,,,,,,,,,,,,,,,,,,,,,,,,,,,,,,,,,,,,,,,,,,,,,,,,,
,,613be225b62729f678a7e0ea,2024-02-18_20h31.28.068,kallum_motion_pilot,2023.2.2,Win32,58.47953217,613be225b62729f678a7e0ea,65d2b6c8f2eece985d8e374c,65d2b83ef2cdb579bb1760b3,0.0774,0.0775,0,156,156,14,1,fourtwo,,,,,,,,,,,,,,,,,,,,,,,,,,,,,,,,,,,,,,,,,,,,,,,,,,,,,,,,,,,,,,,,,,,,,,,,,,,,,,,,,,,,,,,,,,,,,,,,,,,,,,,,,,,,,,,,,,,,,,,,,,,,,,,,,,,,,,,,,
,,613be225b62729f678a7e0ea,2024-02-18_20h31.28.068,kallum_motion_pilot,2023.2.2,Win32,58.47953217,613be225b62729f678a7e0ea,65d2b6c8f2eece985d8e374c,65d2b83ef2cdb579bb1760b3,0.0776,0.0776,0,157,157,60,1,threeone,,,,,,,,,,,,,,,,,,,,,,,,,,,,,,,,,,,,,,,,,,,,,,,,,,,,,,,,,,,,,,,,,,,,,,,,,,,,,,,,,,,,,,,,,,,,,,,,,,,,,,,,,,,,,,,,,,,,,,,,,,,,,,,,,,,,,,,,,
,,613be225b62729f678a7e0ea,2024-02-18_20h31.28.068,kallum_motion_pilot,2023.2.2,Win32,58.47953217,613be225b62729f678a7e0ea,65d2b6c8f2eece985d8e374c,65d2b83ef2cdb579bb1760b3,0.0778,0.0779,0,158,158,145,1,fiveseven,,,,,,,,,,,,,,,,,,,,,,,,,,,,,,,,,,,,,,,,,,,,,,,,,,,,,,,,,,,,,,,,,,,,,,,,,,,,,,,,,,,,,,,,,,,,,,,,,,,,,,,,,,,,,,,,,,,,,,,,,,,,,,,,,,,,,,,,,
,,613be225b62729f678a7e0ea,2024-02-18_20h31.28.068,kallum_motion_pilot,2023.2.2,Win32,58.47953217,613be225b62729f678a7e0ea,65d2b6c8f2eece985d8e374c,65d2b83ef2cdb579bb1760b3,0.0779,0.078,0,159,159,32,1,onetwo,,,,,,,,,,,,,,,,,,,,,,,,,,,,,,,,,,,,,,,,,,,,,,,,,,,,,,,,,,,,,,,,,,,,,,,,,,,,,,,,,,,,,,,,,,,,,,,,,,,,,,,,,,,,,,,,,,,,,,,,,,,,,,,,,,,,,,,,,
,,613be225b62729f678a7e0ea,2024-02-18_20h31.28.068,kallum_motion_pilot,2023.2.2,Win32,58.47953217,613be225b62729f678a7e0ea,65d2b6c8f2eece985d8e374c,65d2b83ef2cdb579bb1760b3,0.0782,0.0783,0,160,160,81,1,fiveseven,,,,,,,,,,,,,,,,,,,,,,,,,,,,,,,,,,,,,,,,,,,,,,,,,,,,,,,,,,,,,,,,,,,,,,,,,,,,,,,,,,,,,,,,,,,,,,,,,,,,,,,,,,,,,,,,,,,,,,,,,,,,,,,,,,,,,,,,,
,,613be225b62729f678a7e0ea,2024-02-18_20h31.28.068,kallum_motion_pilot,2023.2.2,Win32,58.47953217,613be225b62729f678a7e0ea,65d2b6c8f2eece985d8e374c,65d2b83ef2cdb579bb1760b3,0.0784,0.0785,0,161,161,6,1,fourtwo,,,,,,,,,,,,,,,,,,,,,,,,,,,,,,,,,,,,,,,,,,,,,,,,,,,,,,,,,,,,,,,,,,,,,,,,,,,,,,,,,,,,,,,,,,,,,,,,,,,,,,,,,,,,,,,,,,,,,,,,,,,,,,,,,,,,,,,,,
,,613be225b62729f678a7e0ea,2024-02-18_20h31.28.068,kallum_motion_pilot,2023.2.2,Win32,58.47953217,613be225b62729f678a7e0ea,65d2b6c8f2eece985d8e374c,65d2b83ef2cdb579bb1760b3,0.0786,0.0787,1,0,162,3,1,twofour,,,,,,,,,,,,,,,,,,,,,,,,,,,,,,,,,,,,,,,,,,,,,,,,,,,,,,,,,,,,,,,,,,,,,,,,,,,,,,,,,,,,,,,,,,,,,,,,,,,,,,,,,,,,,,,,,,,,,,,,,,,,,,,,,,,,,,,,,
,,613be225b62729f678a7e0ea,2024-02-18_20h31.28.068,kallum_motion_pilot,2023.2.2,Win32,58.47953217,613be225b62729f678a7e0ea,65d2b6c8f2eece985d8e374c,65d2b83ef2cdb579bb1760b3,0.0788,0.0788,1,1,163,56,1,onetwo,,,,,,,,,,,,,,,,,,,,,,,,,,,,,,,,,,,,,,,,,,,,,,,,,,,,,,,,,,,,,,,,,,,,,,,,,,,,,,,,,,,,,,,,,,,,,,,,,,,,,,,,,,,,,,,,,,,,,,,,,,,,,,,,,,,,,,,,,
,,613be225b62729f678a7e0ea,2024-02-18_20h31.28.068,kallum_motion_pilot,2023.2.2,Win32,58.47953217,613be225b62729f678a7e0ea,65d2b6c8f2eece985d8e374c,65d2b83ef2cdb579bb1760b3,0.0789,0.079,1,2,164,158,1,eightsix,,,,,,,,,,,,,,,,,,,,,,,,,,,,,,,,,,,,,,,,,,,,,,,,,,,,,,,,,,,,,,,,,,,,,,,,,,,,,,,,,,,,,,,,,,,,,,,,,,,,,,,,,,,,,,,,,,,,,,,,,,,,,,,,,,,,,,,,,
,,613be225b62729f678a7e0ea,2024-02-18_20h31.28.068,kallum_motion_pilot,2023.2.2,Win32,58.47953217,613be225b62729f678a7e0ea,65d2b6c8f2eece985d8e374c,65d2b83ef2cdb579bb1760b3,0.0792,0.0792,1,3,165,92,1,sevenfive,,,,,,,,,,,,,,,,,,,,,,,,,,,,,,,,,,,,,,,,,,,,,,,,,,,,,,,,,,,,,,,,,,,,,,,,,,,,,,,,,,,,,,,,,,,,,,,,,,,,,,,,,,,,,,,,,,,,,,,,,,,,,,,,,,,,,,,,,
,,613be225b62729f678a7e0ea,2024-02-18_20h31.28.068,kallum_motion_pilot,2023.2.2,Win32,58.47953217,613be225b62729f678a7e0ea,65d2b6c8f2eece985d8e374c,65d2b83ef2cdb579bb1760b3,0.0793,0.0793,1,4,166,10,1,twoone,,,,,,,,,,,,,,,,,,,,,,,,,,,,,,,,,,,,,,,,,,,,,,,,,,,,,,,,,,,,,,,,,,,,,,,,,,,,,,,,,,,,,,,,,,,,,,,,,,,,,,,,,,,,,,,,,,,,,,,,,,,,,,,,,,,,,,,,,
,,613be225b62729f678a7e0ea,2024-02-18_20h31.28.068,kallum_motion_pilot,2023.2.2,Win32,58.47953217,613be225b62729f678a7e0ea,65d2b6c8f2eece985d8e374c,65d2b83ef2cdb579bb1760b3,0.0795,0.0796,1,5,167,12,1,threeone,,,,,,,,,,,,,,,,,,,,,,,,,,,,,,,,,,,,,,,,,,,,,,,,,,,,,,,,,,,,,,,,,,,,,,,,,,,,,,,,,,,,,,,,,,,,,,,,,,,,,,,,,,,,,,,,,,,,,,,,,,,,,,,,,,,,,,,,,
,,613be225b62729f678a7e0ea,2024-02-18_20h31.28.068,kallum_motion_pilot,2023.2.2,Win32,58.47953217,613be225b62729f678a7e0ea,65d2b6c8f2eece985d8e374c,65d2b83ef2cdb579bb1760b3,0.0797,0.0797,1,6,168,57,1,onethree,,,,,,,,,,,,,,,,,,,,,,,,,,,,,,,,,,,,,,,,,,,,,,,,,,,,,,,,,,,,,,,,,,,,,,,,,,,,,,,,,,,,,,,,,,,,,,,,,,,,,,,,,,,,,,,,,,,,,,,,,,,,,,,,,,,,,,,,,
,,613be225b62729f678a7e0ea,2024-02-18_20h31.28.068,kallum_motion_pilot,2023.2.2,Win32,58.47953217,613be225b62729f678a7e0ea,65d2b6c8f2eece985d8e374c,65d2b83ef2cdb579bb1760b3,0.0799,0.0799,1,7,169,109,1,seveneight,,,,,,,,,,,,,,,,,,,,,,,,,,,,,,,,,,,,,,,,,,,,,,,,,,,,,,,,,,,,,,,,,,,,,,,,,,,,,,,,,,,,,,,,,,,,,,,,,,,,,,,,,,,,,,,,,,,,,,,,,,,,,,,,,,,,,,,,,
,,613be225b62729f678a7e0ea,2024-02-18_20h31.28.068,kallum_motion_pilot,2023.2.2,Win32,58.47953217,613be225b62729f678a7e0ea,65d2b6c8f2eece985d8e374c,65d2b83ef2cdb579bb1760b3,0.0801,0.0802,1,8,170,148,1,sevenfive,,,,,,,,,,,,,,,,,,,,,,,,,,,,,,,,,,,,,,,,,,,,,,,,,,,,,,,,,,,,,,,,,,,,,,,,,,,,,,,,,,,,,,,,,,,,,,,,,,,,,,,,,,,,,,,,,,,,,,,,,,,,,,,,,,,,,,,,,
,,613be225b62729f678a7e0ea,2024-02-18_20h31.28.068,kallum_motion_pilot,2023.2.2,Win32,58.47953217,613be225b62729f678a7e0ea,65d2b6c8f2eece985d8e374c,65d2b83ef2cdb579bb1760b3,0.0802,0.0803,1,9,171,150,1,eightsix,,,,,,,,,,,,,,,,,,,,,,,,,,,,,,,,,,,,,,,,,,,,,,,,,,,,,,,,,,,,,,,,,,,,,,,,,,,,,,,,,,,,,,,,,,,,,,,,,,,,,,,,,,,,,,,,,,,,,,,,,,,,,,,,,,,,,,,,,
,,613be225b62729f678a7e0ea,2024-02-18_20h31.28.068,kallum_motion_pilot,2023.2.2,Win32,58.47953217,613be225b62729f678a7e0ea,65d2b6c8f2eece985d8e374c,65d2b83ef2cdb579bb1760b3,0.0805,0.0805,1,10,172,142,1,eightsix,,,,,,,,,,,,,,,,,,,,,,,,,,,,,,,,,,,,,,,,,,,,,,,,,,,,,,,,,,,,,,,,,,,,,,,,,,,,,,,,,,,,,,,,,,,,,,,,,,,,,,,,,,,,,,,,,,,,,,,,,,,,,,,,,,,,,,,,,
,,613be225b62729f678a7e0ea,2024-02-18_20h31.28.068,kallum_motion_pilot,2023.2.2,Win32,58.47953217,613be225b62729f678a7e0ea,65d2b6c8f2eece985d8e374c,65d2b83ef2cdb579bb1760b3,0.0807,0.0807,1,11,173,98,1,sixfive,,,,,,,,,,,,,,,,,,,,,,,,,,,,,,,,,,,,,,,,,,,,,,,,,,,,,,,,,,,,,,,,,,,,,,,,,,,,,,,,,,,,,,,,,,,,,,,,,,,,,,,,,,,,,,,,,,,,,,,,,,,,,,,,,,,,,,,,,
,,613be225b62729f678a7e0ea,2024-02-18_20h31.28.068,kallum_motion_pilot,2023.2.2,Win32,58.47953217,613be225b62729f678a7e0ea,65d2b6c8f2eece985d8e374c,65d2b83ef2cdb579bb1760b3,0.0808,0.0809,1,12,174,160,1,fivesix,,,,,,,,,,,,,,,,,,,,,,,,,,,,,,,,,,,,,,,,,,,,,,,,,,,,,,,,,,,,,,,,,,,,,,,,,,,,,,,,,,,,,,,,,,,,,,,,,,,,,,,,,,,,,,,,,,,,,,,,,,,,,,,,,,,,,,,,,
,,613be225b62729f678a7e0ea,2024-02-18_20h31.28.068,kallum_motion_pilot,2023.2.2,Win32,58.47953217,613be225b62729f678a7e0ea,65d2b6c8f2eece985d8e374c,65d2b83ef2cdb579bb1760b3,0.081,0.0811,1,13,175,16,1,onetwo,,,,,,,,,,,,,,,,,,,,,,,,,,,,,,,,,,,,,,,,,,,,,,,,,,,,,,,,,,,,,,,,,,,,,,,,,,,,,,,,,,,,,,,,,,,,,,,,,,,,,,,,,,,,,,,,,,,,,,,,,,,,,,,,,,,,,,,,,
,,613be225b62729f678a7e0ea,2024-02-18_20h31.28.068,kallum_motion_pilot,2023.2.2,Win32,58.47953217,613be225b62729f678a7e0ea,65d2b6c8f2eece985d8e374c,65d2b83ef2cdb579bb1760b3,0.0812,0.0813,1,14,176,0,1,onetwo,,,,,,,,,,,,,,,,,,,,,,,,,,,,,,,,,,,,,,,,,,,,,,,,,,,,,,,,,,,,,,,,,,,,,,,,,,,,,,,,,,,,,,,,,,,,,,,,,,,,,,,,,,,,,,,,,,,,,,,,,,,,,,,,,,,,,,,,,
,,613be225b62729f678a7e0ea,2024-02-18_20h31.28.068,kallum_motion_pilot,2023.2.2,Win32,58.47953217,613be225b62729f678a7e0ea,65d2b6c8f2eece985d8e374c,65d2b83ef2cdb579bb1760b3,0.0814,0.0814,1,15,177,7,1,fourthree,,,,,,,,,,,,,,,,,,,,,,,,,,,,,,,,,,,,,,,,,,,,,,,,,,,,,,,,,,,,,,,,,,,,,,,,,,,,,,,,,,,,,,,,,,,,,,,,,,,,,,,,,,,,,,,,,,,,,,,,,,,,,,,,,,,,,,,,,
,,613be225b62729f678a7e0ea,2024-02-18_20h31.28.068,kallum_motion_pilot,2023.2.2,Win32,58.47953217,613be225b62729f678a7e0ea,65d2b6c8f2eece985d8e374c,65d2b83ef2cdb579bb1760b3,0.0816,0.0816,1,16,178,74,1,twoone,,,,,,,,,,,,,,,,,,,,,,,,,,,,,,,,,,,,,,,,,,,,,,,,,,,,,,,,,,,,,,,,,,,,,,,,,,,,,,,,,,,,,,,,,,,,,,,,,,,,,,,,,,,,,,,,,,,,,,,,,,,,,,,,,,,,,,,,,
,,613be225b62729f678a7e0ea,2024-02-18_20h31.28.068,kallum_motion_pilot,2023.2.2,Win32,58.47953217,613be225b62729f678a7e0ea,65d2b6c8f2eece985d8e374c,65d2b83ef2cdb579bb1760b3,0.0817,0.0819,1,17,179,118,1,eightsix,,,,,,,,,,,,,,,,,,,,,,,,,,,,,,,,,,,,,,,,,,,,,,,,,,,,,,,,,,,,,,,,,,,,,,,,,,,,,,,,,,,,,,,,,,,,,,,,,,,,,,,,,,,,,,,,,,,,,,,,,,,,,,,,,,,,,,,,,
,,613be225b62729f678a7e0ea,2024-02-18_20h31.28.068,kallum_motion_pilot,2023.2.2,Win32,58.47953217,613be225b62729f678a7e0ea,65d2b6c8f2eece985d8e374c,65d2b83ef2cdb579bb1760b3,0.0819,0.0821,1,18,180,159,1,eightseven,,,,,,,,,,,,,,,,,,,,,,,,,,,,,,,,,,,,,,,,,,,,,,,,,,,,,,,,,,,,,,,,,,,,,,,,,,,,,,,,,,,,,,,,,,,,,,,,,,,,,,,,,,,,,,,,,,,,,,,,,,,,,,,,,,,,,,,,,
,,613be225b62729f678a7e0ea,2024-02-18_20h31.28.068,kallum_motion_pilot,2023.2.2,Win32,58.47953217,613be225b62729f678a7e0ea,65d2b6c8f2eece985d8e374c,65d2b83ef2cdb579bb1760b3,0.0821,0.0822,1,19,181,102,1,eightsix,,,,,,,,,,,,,,,,,,,,,,,,,,,,,,,,,,,,,,,,,,,,,,,,,,,,,,,,,,,,,,,,,,,,,,,,,,,,,,,,,,,,,,,,,,,,,,,,,,,,,,,,,,,,,,,,,,,,,,,,,,,,,,,,,,,,,,,,,
,,613be225b62729f678a7e0ea,2024-02-18_20h31.28.068,kallum_motion_pilot,2023.2.2,Win32,58.47953217,613be225b62729f678a7e0ea,65d2b6c8f2eece985d8e374c,65d2b83ef2cdb579bb1760b3,0.0823,0.0824,1,20,182,96,1,fivesix,,,,,,,,,,,,,,,,,,,,,,,,,,,,,,,,,,,,,,,,,,,,,,,,,,,,,,,,,,,,,,,,,,,,,,,,,,,,,,,,,,,,,,,,,,,,,,,,,,,,,,,,,,,,,,,,,,,,,,,,,,,,,,,,,,,,,,,,,
,,613be225b62729f678a7e0ea,2024-02-18_20h31.28.068,kallum_motion_pilot,2023.2.2,Win32,58.47953217,613be225b62729f678a7e0ea,65d2b6c8f2eece985d8e374c,65d2b83ef2cdb579bb1760b3,0.0825,0.0826,1,21,183,107,1,sixeight,,,,,,,,,,,,,,,,,,,,,,,,,,,,,,,,,,,,,,,,,,,,,,,,,,,,,,,,,,,,,,,,,,,,,,,,,,,,,,,,,,,,,,,,,,,,,,,,,,,,,,,,,,,,,,,,,,,,,,,,,,,,,,,,,,,,,,,,,
,,613be225b62729f678a7e0ea,2024-02-18_20h31.28.068,kallum_motion_pilot,2023.2.2,Win32,58.47953217,613be225b62729f678a7e0ea,65d2b6c8f2eece985d8e374c,65d2b83ef2cdb579bb1760b3,0.0827,0.0828,1,22,184,84,1,sevenfive,,,,,,,,,,,,,,,,,,,,,,,,,,,,,,,,,,,,,,,,,,,,,,,,,,,,,,,,,,,,,,,,,,,,,,,,,,,,,,,,,,,,,,,,,,,,,,,,,,,,,,,,,,,,,,,,,,,,,,,,,,,,,,,,,,,,,,,,,
,,613be225b62729f678a7e0ea,2024-02-18_20h31.28.068,kallum_motion_pilot,2023.2.2,Win32,58.47953217,613be225b62729f678a7e0ea,65d2b6c8f2eece985d8e374c,65d2b83ef2cdb579bb1760b3,0.0829,0.083,1,23,185,21,1,threefour,,,,,,,,,,,,,,,,,,,,,,,,,,,,,,,,,,,,,,,,,,,,,,,,,,,,,,,,,,,,,,,,,,,,,,,,,,,,,,,,,,,,,,,,,,,,,,,,,,,,,,,,,,,,,,,,,,,,,,,,,,,,,,,,,,,,,,,,,
,,613be225b62729f678a7e0ea,2024-02-18_20h31.28.068,kallum_motion_pilot,2023.2.2,Win32,58.47953217,613be225b62729f678a7e0ea,65d2b6c8f2eece985d8e374c,65d2b83ef2cdb579bb1760b3,0.0831,0.0832,1,24,186,11,1,twofour,,,,,,,,,,,,,,,,,,,,,,,,,,,,,,,,,,,,,,,,,,,,,,,,,,,,,,,,,,,,,,,,,,,,,,,,,,,,,,,,,,,,,,,,,,,,,,,,,,,,,,,,,,,,,,,,,,,,,,,,,,,,,,,,,,,,,,,,,
,,613be225b62729f678a7e0ea,2024-02-18_20h31.28.068,kallum_motion_pilot,2023.2.2,Win32,58.47953217,613be225b62729f678a7e0ea,65d2b6c8f2eece985d8e374c,65d2b83ef2cdb579bb1760b3,0.0834,0.0834,1,25,187,33,1,onethree,,,,,,,,,,,,,,,,,,,,,,,,,,,,,,,,,,,,,,,,,,,,,,,,,,,,,,,,,,,,,,,,,,,,,,,,,,,,,,,,,,,,,,,,,,,,,,,,,,,,,,,,,,,,,,,,,,,,,,,,,,,,,,,,,,,,,,,,,
,,613be225b62729f678a7e0ea,2024-02-18_20h31.28.068,kallum_motion_pilot,2023.2.2,Win32,58.47953217,613be225b62729f678a7e0ea,65d2b6c8f2eece985d8e374c,65d2b83ef2cdb579bb1760b3,0.0835,0.0836,1,26,188,119,1,eightseven,,,,,,,,,,,,,,,,,,,,,,,,,,,,,,,,,,,,,,,,,,,,,,,,,,,,,,,,,,,,,,,,,,,,,,,,,,,,,,,,,,,,,,,,,,,,,,,,,,,,,,,,,,,,,,,,,,,,,,,,,,,,,,,,,,,,,,,,,
,,613be225b62729f678a7e0ea,2024-02-18_20h31.28.068,kallum_motion_pilot,2023.2.2,Win32,58.47953217,613be225b62729f678a7e0ea,65d2b6c8f2eece985d8e374c,65d2b83ef2cdb579bb1760b3,0.0837,0.0837,1,27,189,50,1,twoone,,,,,,,,,,,,,,,,,,,,,,,,,,,,,,,,,,,,,,,,,,,,,,,,,,,,,,,,,,,,,,,,,,,,,,,,,,,,,,,,,,,,,,,,,,,,,,,,,,,,,,,,,,,,,,,,,,,,,,,,,,,,,,,,,,,,,,,,,
,,613be225b62729f678a7e0ea,2024-02-18_20h31.28.068,kallum_motion_pilot,2023.2.2,Win32,58.47953217,613be225b62729f678a7e0ea,65d2b6c8f2eece985d8e374c,65d2b83ef2cdb579bb1760b3,0.0839,0.084,1,28,190,91,1,sixeight,,,,,,,,,,,,,,,,,,,,,,,,,,,,,,,,,,,,,,,,,,,,,,,,,,,,,,,,,,,,,,,,,,,,,,,,,,,,,,,,,,,,,,,,,,,,,,,,,,,,,,,,,,,,,,,,,,,,,,,,,,,,,,,,,,,,,,,,,
,,613be225b62729f678a7e0ea,2024-02-18_20h31.28.068,kallum_motion_pilot,2023.2.2,Win32,58.47953217,613be225b62729f678a7e0ea,65d2b6c8f2eece985d8e374c,65d2b83ef2cdb579bb1760b3,0.0841,0.0842,1,29,191,135,1,eightseven,,,,,,,,,,,,,,,,,,,,,,,,,,,,,,,,,,,,,,,,,,,,,,,,,,,,,,,,,,,,,,,,,,,,,,,,,,,,,,,,,,,,,,,,,,,,,,,,,,,,,,,,,,,,,,,,,,,,,,,,,,,,,,,,,,,,,,,,,
,,613be225b62729f678a7e0ea,2024-02-18_20h31.28.068,kallum_motion_pilot,2023.2.2,Win32,58.47953217,613be225b62729f678a7e0ea,65d2b6c8f2eece985d8e374c,65d2b83ef2cdb579bb1760b3,0.0843,0.0844,1,30,192,34,1,twoone,,,,,,,,,,,,,,,,,,,,,,,,,,,,,,,,,,,,,,,,,,,,,,,,,,,,,,,,,,,,,,,,,,,,,,,,,,,,,,,,,,,,,,,,,,,,,,,,,,,,,,,,,,,,,,,,,,,,,,,,,,,,,,,,,,,,,,,,,
,,613be225b62729f678a7e0ea,2024-02-18_20h31.28.068,kallum_motion_pilot,2023.2.2,Win32,58.47953217,613be225b62729f678a7e0ea,65d2b6c8f2eece985d8e374c,65d2b83ef2cdb579bb1760b3,0.0845,0.0845,1,31,193,31,1,fourthree,,,,,,,,,,,,,,,,,,,,,,,,,,,,,,,,,,,,,,,,,,,,,,,,,,,,,,,,,,,,,,,,,,,,,,,,,,,,,,,,,,,,,,,,,,,,,,,,,,,,,,,,,,,,,,,,,,,,,,,,,,,,,,,,,,,,,,,,,
,,613be225b62729f678a7e0ea,2024-02-18_20h31.28.068,kallum_motion_pilot,2023.2.2,Win32,58.47953217,613be225b62729f678a7e0ea,65d2b6c8f2eece985d8e374c,65d2b83ef2cdb579bb1760b3,0.0846,0.0847,1,32,194,132,1,sevenfive,,,,,,,,,,,,,,,,,,,,,,,,,,,,,,,,,,,,,,,,,,,,,,,,,,,,,,,,,,,,,,,,,,,,,,,,,,,,,,,,,,,,,,,,,,,,,,,,,,,,,,,,,,,,,,,,,,,,,,,,,,,,,,,,,,,,,,,,,
,,613be225b62729f678a7e0ea,2024-02-18_20h31.28.068,kallum_motion_pilot,2023.2.2,Win32,58.47953217,613be225b62729f678a7e0ea,65d2b6c8f2eece985d8e374c,65d2b83ef2cdb579bb1760b3,0.0849,0.0849,1,33,195,6,1,fourtwo,,,,,,,,,,,,,,,,,,,,,,,,,,,,,,,,,,,,,,,,,,,,,,,,,,,,,,,,,,,,,,,,,,,,,,,,,,,,,,,,,,,,,,,,,,,,,,,,,,,,,,,,,,,,,,,,,,,,,,,,,,,,,,,,,,,,,,,,,
,,613be225b62729f678a7e0ea,2024-02-18_20h31.28.068,kallum_motion_pilot,2023.2.2,Win32,58.47953217,613be225b62729f678a7e0ea,65d2b6c8f2eece985d8e374c,65d2b83ef2cdb579bb1760b3,0.085,0.0851,1,34,196,151,1,eightseven,,,,,,,,,,,,,,,,,,,,,,,,,,,,,,,,,,,,,,,,,,,,,,,,,,,,,,,,,,,,,,,,,,,,,,,,,,,,,,,,,,,,,,,,,,,,,,,,,,,,,,,,,,,,,,,,,,,,,,,,,,,,,,,,,,,,,,,,,
,,613be225b62729f678a7e0ea,2024-02-18_20h31.28.068,kallum_motion_pilot,2023.2.2,Win32,58.47953217,613be225b62729f678a7e0ea,65d2b6c8f2eece985d8e374c,65d2b83ef2cdb579bb1760b3,0.0853,0.0853,1,35,197,85,1,seveneight,,,,,,,,,,,,,,,,,,,,,,,,,,,,,,,,,,,,,,,,,,,,,,,,,,,,,,,,,,,,,,,,,,,,,,,,,,,,,,,,,,,,,,,,,,,,,,,,,,,,,,,,,,,,,,,,,,,,,,,,,,,,,,,,,,,,,,,,,
,,613be225b62729f678a7e0ea,2024-02-18_20h31.28.068,kallum_motion_pilot,2023.2.2,Win32,58.47953217,613be225b62729f678a7e0ea,65d2b6c8f2eece985d8e374c,65d2b83ef2cdb579bb1760b3,0.0854,0.0856,1,36,198,62,1,fourtwo,,,,,,,,,,,,,,,,,,,,,,,,,,,,,,,,,,,,,,,,,,,,,,,,,,,,,,,,,,,,,,,,,,,,,,,,,,,,,,,,,,,,,,,,,,,,,,,,,,,,,,,,,,,,,,,,,,,,,,,,,,,,,,,,,,,,,,,,,
,,613be225b62729f678a7e0ea,2024-02-18_20h31.28.068,kallum_motion_pilot,2023.2.2,Win32,58.47953217,613be225b62729f678a7e0ea,65d2b6c8f2eece985d8e374c,65d2b83ef2cdb579bb1760b3,0.0856,0.0857,1,37,199,59,1,twofour,,,,,,,,,,,,,,,,,,,,,,,,,,,,,,,,,,,,,,,,,,,,,,,,,,,,,,,,,,,,,,,,,,,,,,,,,,,,,,,,,,,,,,,,,,,,,,,,,,,,,,,,,,,,,,,,,,,,,,,,,,,,,,,,,,,,,,,,,
,,613be225b62729f678a7e0ea,2024-02-18_20h31.28.068,kallum_motion_pilot,2023.2.2,Win32,58.47953217,613be225b62729f678a7e0ea,65d2b6c8f2eece985d8e374c,65d2b83ef2cdb579bb1760b3,0.0858,0.0859,1,38,200,15,1,fourthree,,,,,,,,,,,,,,,,,,,,,,,,,,,,,,,,,,,,,,,,,,,,,,,,,,,,,,,,,,,,,,,,,,,,,,,,,,,,,,,,,,,,,,,,,,,,,,,,,,,,,,,,,,,,,,,,,,,,,,,,,,,,,,,,,,,,,,,,,
,,613be225b62729f678a7e0ea,2024-02-18_20h31.28.068,kallum_motion_pilot,2023.2.2,Win32,58.47953217,613be225b62729f678a7e0ea,65d2b6c8f2eece985d8e374c,65d2b83ef2cdb579bb1760b3,0.0861,0.0862,1,39,201,60,1,threeone,,,,,,,,,,,,,,,,,,,,,,,,,,,,,,,,,,,,,,,,,,,,,,,,,,,,,,,,,,,,,,,,,,,,,,,,,,,,,,,,,,,,,,,,,,,,,,,,,,,,,,,,,,,,,,,,,,,,,,,,,,,,,,,,,,,,,,,,,
,,613be225b62729f678a7e0ea,2024-02-18_20h31.28.068,kallum_motion_pilot,2023.2.2,Win32,58.47953217,613be225b62729f678a7e0ea,65d2b6c8f2eece985d8e374c,65d2b83ef2cdb579bb1760b3,0.0863,0.0863,1,40,202,5,1,threefour,,,,,,,,,,,,,,,,,,,,,,,,,,,,,,,,,,,,,,,,,,,,,,,,,,,,,,,,,,,,,,,,,,,,,,,,,,,,,,,,,,,,,,,,,,,,,,,,,,,,,,,,,,,,,,,,,,,,,,,,,,,,,,,,,,,,,,,,,
,,613be225b62729f678a7e0ea,2024-02-18_20h31.28.068,kallum_motion_pilot,2023.2.2,Win32,58.47953217,613be225b62729f678a7e0ea,65d2b6c8f2eece985d8e374c,65d2b83ef2cdb579bb1760b3,0.0864,0.0866,1,41,203,19,1,twofour,,,,,,,,,,,,,,,,,,,,,,,,,,,,,,,,,,,,,,,,,,,,,,,,,,,,,,,,,,,,,,,,,,,,,,,,,,,,,,,,,,,,,,,,,,,,,,,,,,,,,,,,,,,,,,,,,,,,,,,,,,,,,,,,,,,,,,,,,
,,613be225b62729f678a7e0ea,2024-02-18_20h31.28.068,kallum_motion_pilot,2023.2.2,Win32,58.47953217,613be225b62729f678a7e0ea,65d2b6c8f2eece985d8e374c,65d2b83ef2cdb579bb1760b3,0.0866,0.0868,1,42,204,94,1,eightsix,,,,,,,,,,,,,,,,,,,,,,,,,,,,,,,,,,,,,,,,,,,,,,,,,,,,,,,,,,,,,,,,,,,,,,,,,,,,,,,,,,,,,,,,,,,,,,,,,,,,,,,,,,,,,,,,,,,,,,,,,,,,,,,,,,,,,,,,,
,,613be225b62729f678a7e0ea,2024-02-18_20h31.28.068,kallum_motion_pilot,2023.2.2,Win32,58.47953217,613be225b62729f678a7e0ea,65d2b6c8f2eece985d8e374c,65d2b83ef2cdb579bb1760b3,0.0868,0.0869,1,43,205,30,1,fourtwo,,,,,,,,,,,,,,,,,,,,,,,,,,,,,,,,,,,,,,,,,,,,,,,,,,,,,,,,,,,,,,,,,,,,,,,,,,,,,,,,,,,,,,,,,,,,,,,,,,,,,,,,,,,,,,,,,,,,,,,,,,,,,,,,,,,,,,,,,
,,613be225b62729f678a7e0ea,2024-02-18_20h31.28.068,kallum_motion_pilot,2023.2.2,Win32,58.47953217,613be225b62729f678a7e0ea,65d2b6c8f2eece985d8e374c,65d2b83ef2cdb579bb1760b3,0.0871,0.0872,1,44,206,43,1,twofour,,,,,,,,,,,,,,,,,,,,,,,,,,,,,,,,,,,,,,,,,,,,,,,,,,,,,,,,,,,,,,,,,,,,,,,,,,,,,,,,,,,,,,,,,,,,,,,,,,,,,,,,,,,,,,,,,,,,,,,,,,,,,,,,,,,,,,,,,
,,613be225b62729f678a7e0ea,2024-02-18_20h31.28.068,kallum_motion_pilot,2023.2.2,Win32,58.47953217,613be225b62729f678a7e0ea,65d2b6c8f2eece985d8e374c,65d2b83ef2cdb579bb1760b3,0.0872,0.0874,1,45,207,4,1,threeone,,,,,,,,,,,,,,,,,,,,,,,,,,,,,,,,,,,,,,,,,,,,,,,,,,,,,,,,,,,,,,,,,,,,,,,,,,,,,,,,,,,,,,,,,,,,,,,,,,,,,,,,,,,,,,,,,,,,,,,,,,,,,,,,,,,,,,,,,
,,613be225b62729f678a7e0ea,2024-02-18_20h31.28.068,kallum_motion_pilot,2023.2.2,Win32,58.47953217,613be225b62729f678a7e0ea,65d2b6c8f2eece985d8e374c,65d2b83ef2cdb579bb1760b3,0.0875,0.0876,1,46,208,116,1,sevenfive,,,,,,,,,,,,,,,,,,,,,,,,,,,,,,,,,,,,,,,,,,,,,,,,,,,,,,,,,,,,,,,,,,,,,,,,,,,,,,,,,,,,,,,,,,,,,,,,,,,,,,,,,,,,,,,,,,,,,,,,,,,,,,,,,,,,,,,,,
,,613be225b62729f678a7e0ea,2024-02-18_20h31.28.068,kallum_motion_pilot,2023.2.2,Win32,58.47953217,613be225b62729f678a7e0ea,65d2b6c8f2eece985d8e374c,65d2b83ef2cdb579bb1760b3,0.0876,0.0877,1,47,209,157,1,seveneight,,,,,,,,,,,,,,,,,,,,,,,,,,,,,,,,,,,,,,,,,,,,,,,,,,,,,,,,,,,,,,,,,,,,,,,,,,,,,,,,,,,,,,,,,,,,,,,,,,,,,,,,,,,,,,,,,,,,,,,,,,,,,,,,,,,,,,,,,
,,613be225b62729f678a7e0ea,2024-02-18_20h31.28.068,kallum_motion_pilot,2023.2.2,Win32,58.47953217,613be225b62729f678a7e0ea,65d2b6c8f2eece985d8e374c,65d2b83ef2cdb579bb1760b3,0.0878,0.0879,1,48,210,70,1,fourtwo,,,,,,,,,,,,,,,,,,,,,,,,,,,,,,,,,,,,,,,,,,,,,,,,,,,,,,,,,,,,,,,,,,,,,,,,,,,,,,,,,,,,,,,,,,,,,,,,,,,,,,,,,,,,,,,,,,,,,,,,,,,,,,,,,,,,,,,,,
,,613be225b62729f678a7e0ea,2024-02-18_20h31.28.068,kallum_motion_pilot,2023.2.2,Win32,58.47953217,613be225b62729f678a7e0ea,65d2b6c8f2eece985d8e374c,65d2b83ef2cdb579bb1760b3,0.088,0.0881,1,49,211,22,1,fourtwo,,,,,,,,,,,,,,,,,,,,,,,,,,,,,,,,,,,,,,,,,,,,,,,,,,,,,,,,,,,,,,,,,,,,,,,,,,,,,,,,,,,,,,,,,,,,,,,,,,,,,,,,,,,,,,,,,,,,,,,,,,,,,,,,,,,,,,,,,
,,613be225b62729f678a7e0ea,2024-02-18_20h31.28.068,kallum_motion_pilot,2023.2.2,Win32,58.47953217,613be225b62729f678a7e0ea,65d2b6c8f2eece985d8e374c,65d2b83ef2cdb579bb1760b3,0.0882,0.0883,1,50,212,115,1,sixeight,,,,,,,,,,,,,,,,,,,,,,,,,,,,,,,,,,,,,,,,,,,,,,,,,,,,,,,,,,,,,,,,,,,,,,,,,,,,,,,,,,,,,,,,,,,,,,,,,,,,,,,,,,,,,,,,,,,,,,,,,,,,,,,,,,,,,,,,,
,,613be225b62729f678a7e0ea,2024-02-18_20h31.28.068,kallum_motion_pilot,2023.2.2,Win32,58.47953217,613be225b62729f678a7e0ea,65d2b6c8f2eece985d8e374c,65d2b83ef2cdb579bb1760b3,0.0884,0.0885,1,51,213,2,1,twoone,,,,,,,,,,,,,,,,,,,,,,,,,,,,,,,,,,,,,,,,,,,,,,,,,,,,,,,,,,,,,,,,,,,,,,,,,,,,,,,,,,,,,,,,,,,,,,,,,,,,,,,,,,,,,,,,,,,,,,,,,,,,,,,,,,,,,,,,,
,,613be225b62729f678a7e0ea,2024-02-18_20h31.28.068,kallum_motion_pilot,2023.2.2,Win32,58.47953217,613be225b62729f678a7e0ea,65d2b6c8f2eece985d8e374c,65d2b83ef2cdb579bb1760b3,0.0886,0.0887,1,52,214,44,1,threeone,,,,,,,,,,,,,,,,,,,,,,,,,,,,,,,,,,,,,,,,,,,,,,,,,,,,,,,,,,,,,,,,,,,,,,,,,,,,,,,,,,,,,,,,,,,,,,,,,,,,,,,,,,,,,,,,,,,,,,,,,,,,,,,,,,,,,,,,,
,,613be225b62729f678a7e0ea,2024-02-18_20h31.28.068,kallum_motion_pilot,2023.2.2,Win32,58.47953217,613be225b62729f678a7e0ea,65d2b6c8f2eece985d8e374c,65d2b83ef2cdb579bb1760b3,0.0889,0.089,1,53,215,40,1,onetwo,,,,,,,,,,,,,,,,,,,,,,,,,,,,,,,,,,,,,,,,,,,,,,,,,,,,,,,,,,,,,,,,,,,,,,,,,,,,,,,,,,,,,,,,,,,,,,,,,,,,,,,,,,,,,,,,,,,,,,,,,,,,,,,,,,,,,,,,,
,,613be225b62729f678a7e0ea,2024-02-18_20h31.28.068,kallum_motion_pilot,2023.2.2,Win32,58.47953217,613be225b62729f678a7e0ea,65d2b6c8f2eece985d8e374c,65d2b83ef2cdb579bb1760b3,0.089,0.0891,1,54,216,127,1,eightseven,,,,,,,,,,,,,,,,,,,,,,,,,,,,,,,,,,,,,,,,,,,,,,,,,,,,,,,,,,,,,,,,,,,,,,,,,,,,,,,,,,,,,,,,,,,,,,,,,,,,,,,,,,,,,,,,,,,,,,,,,,,,,,,,,,,,,,,,,
,,613be225b62729f678a7e0ea,2024-02-18_20h31.28.068,kallum_motion_pilot,2023.2.2,Win32,58.47953217,613be225b62729f678a7e0ea,65d2b6c8f2eece985d8e374c,65d2b83ef2cdb579bb1760b3,0.0892,0.0894,1,55,217,8,1,onetwo,,,,,,,,,,,,,,,,,,,,,,,,,,,,,,,,,,,,,,,,,,,,,,,,,,,,,,,,,,,,,,,,,,,,,,,,,,,,,,,,,,,,,,,,,,,,,,,,,,,,,,,,,,,,,,,,,,,,,,,,,,,,,,,,,,,,,,,,,
,,613be225b62729f678a7e0ea,2024-02-18_20h31.28.068,kallum_motion_pilot,2023.2.2,Win32,58.47953217,613be225b62729f678a7e0ea,65d2b6c8f2eece985d8e374c,65d2b83ef2cdb579bb1760b3,0.0895,0.0895,1,56,218,73,1,onethree,,,,,,,,,,,,,,,,,,,,,,,,,,,,,,,,,,,,,,,,,,,,,,,,,,,,,,,,,,,,,,,,,,,,,,,,,,,,,,,,,,,,,,,,,,,,,,,,,,,,,,,,,,,,,,,,,,,,,,,,,,,,,,,,,,,,,,,,,
,,613be225b62729f678a7e0ea,2024-02-18_20h31.28.068,kallum_motion_pilot,2023.2.2,Win32,58.47953217,613be225b62729f678a7e0ea,65d2b6c8f2eece985d8e374c,65d2b83ef2cdb579bb1760b3,0.0897,0.0897,1,57,219,99,1,sixeight,,,,,,,,,,,,,,,,,,,,,,,,,,,,,,,,,,,,,,,,,,,,,,,,,,,,,,,,,,,,,,,,,,,,,,,,,,,,,,,,,,,,,,,,,,,,,,,,,,,,,,,,,,,,,,,,,,,,,,,,,,,,,,,,,,,,,,,,,
,,613be225b62729f678a7e0ea,2024-02-18_20h31.28.068,kallum_motion_pilot,2023.2.2,Win32,58.47953217,613be225b62729f678a7e0ea,65d2b6c8f2eece985d8e374c,65d2b83ef2cdb579bb1760b3,0.0898,0.0899,1,58,220,27,1,twofour,,,,,,,,,,,,,,,,,,,,,,,,,,,,,,,,,,,,,,,,,,,,,,,,,,,,,,,,,,,,,,,,,,,,,,,,,,,,,,,,,,,,,,,,,,,,,,,,,,,,,,,,,,,,,,,,,,,,,,,,,,,,,,,,,,,,,,,,,
,,613be225b62729f678a7e0ea,2024-02-18_20h31.28.068,kallum_motion_pilot,2023.2.2,Win32,58.47953217,613be225b62729f678a7e0ea,65d2b6c8f2eece985d8e374c,65d2b83ef2cdb579bb1760b3,0.09,0.0901,1,59,221,133,1,seveneight,,,,,,,,,,,,,,,,,,,,,,,,,,,,,,,,,,,,,,,,,,,,,,,,,,,,,,,,,,,,,,,,,,,,,,,,,,,,,,,,,,,,,,,,,,,,,,,,,,,,,,,,,,,,,,,,,,,,,,,,,,,,,,,,,,,,,,,,,
,,613be225b62729f678a7e0ea,2024-02-18_20h31.28.068,kallum_motion_pilot,2023.2.2,Win32,58.47953217,613be225b62729f678a7e0ea,65d2b6c8f2eece985d8e374c,65d2b83ef2cdb579bb1760b3,0.0902,0.0904,1,60,222,154,1,sixfive,,,,,,,,,,,,,,,,,,,,,,,,,,,,,,,,,,,,,,,,,,,,,,,,,,,,,,,,,,,,,,,,,,,,,,,,,,,,,,,,,,,,,,,,,,,,,,,,,,,,,,,,,,,,,,,,,,,,,,,,,,,,,,,,,,,,,,,,,
,,613be225b62729f678a7e0ea,2024-02-18_20h31.28.068,kallum_motion_pilot,2023.2.2,Win32,58.47953217,613be225b62729f678a7e0ea,65d2b6c8f2eece985d8e374c,65d2b83ef2cdb579bb1760b3,0.0905,0.0906,1,61,223,18,1,twoone,,,,,,,,,,,,,,,,,,,,,,,,,,,,,,,,,,,,,,,,,,,,,,,,,,,,,,,,,,,,,,,,,,,,,,,,,,,,,,,,,,,,,,,,,,,,,,,,,,,,,,,,,,,,,,,,,,,,,,,,,,,,,,,,,,,,,,,,,
,,613be225b62729f678a7e0ea,2024-02-18_20h31.28.068,kallum_motion_pilot,2023.2.2,Win32,58.47953217,613be225b62729f678a7e0ea,65d2b6c8f2eece985d8e374c,65d2b83ef2cdb579bb1760b3,0.0906,0.0907,1,62,224,32,1,onetwo,,,,,,,,,,,,,,,,,,,,,,,,,,,,,,,,,,,,,,,,,,,,,,,,,,,,,,,,,,,,,,,,,,,,,,,,,,,,,,,,,,,,,,,,,,,,,,,,,,,,,,,,,,,,,,,,,,,,,,,,,,,,,,,,,,,,,,,,,
,,613be225b62729f678a7e0ea,2024-02-18_20h31.28.068,kallum_motion_pilot,2023.2.2,Win32,58.47953217,613be225b62729f678a7e0ea,65d2b6c8f2eece985d8e374c,65d2b83ef2cdb579bb1760b3,0.091,0.091,1,63,225,14,1,fourtwo,,,,,,,,,,,,,,,,,,,,,,,,,,,,,,,,,,,,,,,,,,,,,,,,,,,,,,,,,,,,,,,,,,,,,,,,,,,,,,,,,,,,,,,,,,,,,,,,,,,,,,,,,,,,,,,,,,,,,,,,,,,,,,,,,,,,,,,,,
,,613be225b62729f678a7e0ea,2024-02-18_20h31.28.068,kallum_motion_pilot,2023.2.2,Win32,58.47953217,613be225b62729f678a7e0ea,65d2b6c8f2eece985d8e374c,65d2b83ef2cdb579bb1760b3,0.0911,0.0913,1,64,226,130,1,sixfive,,,,,,,,,,,,,,,,,,,,,,,,,,,,,,,,,,,,,,,,,,,,,,,,,,,,,,,,,,,,,,,,,,,,,,,,,,,,,,,,,,,,,,,,,,,,,,,,,,,,,,,,,,,,,,,,,,,,,,,,,,,,,,,,,,,,,,,,,
,,613be225b62729f678a7e0ea,2024-02-18_20h31.28.068,kallum_motion_pilot,2023.2.2,Win32,58.47953217,613be225b62729f678a7e0ea,65d2b6c8f2eece985d8e374c,65d2b83ef2cdb579bb1760b3,0.0914,0.0915,1,65,227,124,1,sevenfive,,,,,,,,,,,,,,,,,,,,,,,,,,,,,,,,,,,,,,,,,,,,,,,,,,,,,,,,,,,,,,,,,,,,,,,,,,,,,,,,,,,,,,,,,,,,,,,,,,,,,,,,,,,,,,,,,,,,,,,,,,,,,,,,,,,,,,,,,
,,613be225b62729f678a7e0ea,2024-02-18_20h31.28.068,kallum_motion_pilot,2023.2.2,Win32,58.47953217,613be225b62729f678a7e0ea,65d2b6c8f2eece985d8e374c,65d2b83ef2cdb579bb1760b3,0.0915,0.0917,1,66,228,156,1,sevenfive,,,,,,,,,,,,,,,,,,,,,,,,,,,,,,,,,,,,,,,,,,,,,,,,,,,,,,,,,,,,,,,,,,,,,,,,,,,,,,,,,,,,,,,,,,,,,,,,,,,,,,,,,,,,,,,,,,,,,,,,,,,,,,,,,,,,,,,,,
,,613be225b62729f678a7e0ea,2024-02-18_20h31.28.068,kallum_motion_pilot,2023.2.2,Win32,58.47953217,613be225b62729f678a7e0ea,65d2b6c8f2eece985d8e374c,65d2b83ef2cdb579bb1760b3,0.0918,0.092,1,67,229,1,1,onethree,,,,,,,,,,,,,,,,,,,,,,,,,,,,,,,,,,,,,,,,,,,,,,,,,,,,,,,,,,,,,,,,,,,,,,,,,,,,,,,,,,,,,,,,,,,,,,,,,,,,,,,,,,,,,,,,,,,,,,,,,,,,,,,,,,,,,,,,,
,,613be225b62729f678a7e0ea,2024-02-18_20h31.28.068,kallum_motion_pilot,2023.2.2,Win32,58.47953217,613be225b62729f678a7e0ea,65d2b6c8f2eece985d8e374c,65d2b83ef2cdb579bb1760b3,0.0922,0.0923,1,68,230,134,1,eightsix,,,,,,,,,,,,,,,,,,,,,,,,,,,,,,,,,,,,,,,,,,,,,,,,,,,,,,,,,,,,,,,,,,,,,,,,,,,,,,,,,,,,,,,,,,,,,,,,,,,,,,,,,,,,,,,,,,,,,,,,,,,,,,,,,,,,,,,,,
,,613be225b62729f678a7e0ea,2024-02-18_20h31.28.068,kallum_motion_pilot,2023.2.2,Win32,58.47953217,613be225b62729f678a7e0ea,65d2b6c8f2eece985d8e374c,65d2b83ef2cdb579bb1760b3,0.0923,0.0925,1,69,231,153,1,fiveseven,,,,,,,,,,,,,,,,,,,,,,,,,,,,,,,,,,,,,,,,,,,,,,,,,,,,,,,,,,,,,,,,,,,,,,,,,,,,,,,,,,,,,,,,,,,,,,,,,,,,,,,,,,,,,,,,,,,,,,,,,,,,,,,,,,,,,,,,,
,,613be225b62729f678a7e0ea,2024-02-18_20h31.28.068,kallum_motion_pilot,2023.2.2,Win32,58.47953217,613be225b62729f678a7e0ea,65d2b6c8f2eece985d8e374c,65d2b83ef2cdb579bb1760b3,0.0926,0.0927,1,70,232,111,1,eightseven,,,,,,,,,,,,,,,,,,,,,,,,,,,,,,,,,,,,,,,,,,,,,,,,,,,,,,,,,,,,,,,,,,,,,,,,,,,,,,,,,,,,,,,,,,,,,,,,,,,,,,,,,,,,,,,,,,,,,,,,,,,,,,,,,,,,,,,,,
,,613be225b62729f678a7e0ea,2024-02-18_20h31.28.068,kallum_motion_pilot,2023.2.2,Win32,58.47953217,613be225b62729f678a7e0ea,65d2b6c8f2eece985d8e374c,65d2b83ef2cdb579bb1760b3,0.0928,0.0929,1,71,233,69,1,threefour,,,,,,,,,,,,,,,,,,,,,,,,,,,,,,,,,,,,,,,,,,,,,,,,,,,,,,,,,,,,,,,,,,,,,,,,,,,,,,,,,,,,,,,,,,,,,,,,,,,,,,,,,,,,,,,,,,,,,,,,,,,,,,,,,,,,,,,,,
,,613be225b62729f678a7e0ea,2024-02-18_20h31.28.068,kallum_motion_pilot,2023.2.2,Win32,58.47953217,613be225b62729f678a7e0ea,65d2b6c8f2eece985d8e374c,65d2b83ef2cdb579bb1760b3,0.093,0.0931,1,72,234,48,1,onetwo,,,,,,,,,,,,,,,,,,,,,,,,,,,,,,,,,,,,,,,,,,,,,,,,,,,,,,,,,,,,,,,,,,,,,,,,,,,,,,,,,,,,,,,,,,,,,,,,,,,,,,,,,,,,,,,,,,,,,,,,,,,,,,,,,,,,,,,,,
,,613be225b62729f678a7e0ea,2024-02-18_20h31.28.068,kallum_motion_pilot,2023.2.2,Win32,58.47953217,613be225b62729f678a7e0ea,65d2b6c8f2eece985d8e374c,65d2b83ef2cdb579bb1760b3,0.0932,0.0934,1,73,235,49,1,onethree,,,,,,,,,,,,,,,,,,,,,,,,,,,,,,,,,,,,,,,,,,,,,,,,,,,,,,,,,,,,,,,,,,,,,,,,,,,,,,,,,,,,,,,,,,,,,,,,,,,,,,,,,,,,,,,,,,,,,,,,,,,,,,,,,,,,,,,,,
,,613be225b62729f678a7e0ea,2024-02-18_20h31.28.068,kallum_motion_pilot,2023.2.2,Win32,58.47953217,613be225b62729f678a7e0ea,65d2b6c8f2eece985d8e374c,65d2b83ef2cdb579bb1760b3,0.0935,0.0937,1,74,236,129,1,fiveseven,,,,,,,,,,,,,,,,,,,,,,,,,,,,,,,,,,,,,,,,,,,,,,,,,,,,,,,,,,,,,,,,,,,,,,,,,,,,,,,,,,,,,,,,,,,,,,,,,,,,,,,,,,,,,,,,,,,,,,,,,,,,,,,,,,,,,,,,,
,,613be225b62729f678a7e0ea,2024-02-18_20h31.28.068,kallum_motion_pilot,2023.2.2,Win32,58.47953217,613be225b62729f678a7e0ea,65d2b6c8f2eece985d8e374c,65d2b83ef2cdb579bb1760b3,0.0937,0.0939,1,75,237,155,1,sixeight,,,,,,,,,,,,,,,,,,,,,,,,,,,,,,,,,,,,,,,,,,,,,,,,,,,,,,,,,,,,,,,,,,,,,,,,,,,,,,,,,,,,,,,,,,,,,,,,,,,,,,,,,,,,,,,,,,,,,,,,,,,,,,,,,,,,,,,,,
,,613be225b62729f678a7e0ea,2024-02-18_20h31.28.068,kallum_motion_pilot,2023.2.2,Win32,58.47953217,613be225b62729f678a7e0ea,65d2b6c8f2eece985d8e374c,65d2b83ef2cdb579bb1760b3,0.094,0.0941,1,76,238,105,1,fiveseven,,,,,,,,,,,,,,,,,,,,,,,,,,,,,,,,,,,,,,,,,,,,,,,,,,,,,,,,,,,,,,,,,,,,,,,,,,,,,,,,,,,,,,,,,,,,,,,,,,,,,,,,,,,,,,,,,,,,,,,,,,,,,,,,,,,,,,,,,
,,613be225b62729f678a7e0ea,2024-02-18_20h31.28.068,kallum_motion_pilot,2023.2.2,Win32,58.47953217,613be225b62729f678a7e0ea,65d2b6c8f2eece985d8e374c,65d2b83ef2cdb579bb1760b3,0.0942,0.0943,1,77,239,25,1,onethree,,,,,,,,,,,,,,,,,,,,,,,,,,,,,,,,,,,,,,,,,,,,,,,,,,,,,,,,,,,,,,,,,,,,,,,,,,,,,,,,,,,,,,,,,,,,,,,,,,,,,,,,,,,,,,,,,,,,,,,,,,,,,,,,,,,,,,,,,
,,613be225b62729f678a7e0ea,2024-02-18_20h31.28.068,kallum_motion_pilot,2023.2.2,Win32,58.47953217,613be225b62729f678a7e0ea,65d2b6c8f2eece985d8e374c,65d2b83ef2cdb579bb1760b3,0.0945,0.0946,1,78,240,20,1,threeone,,,,,,,,,,,,,,,,,,,,,,,,,,,,,,,,,,,,,,,,,,,,,,,,,,,,,,,,,,,,,,,,,,,,,,,,,,,,,,,,,,,,,,,,,,,,,,,,,,,,,,,,,,,,,,,,,,,,,,,,,,,,,,,,,,,,,,,,,
,,613be225b62729f678a7e0ea,2024-02-18_20h31.28.068,kallum_motion_pilot,2023.2.2,Win32,58.47953217,613be225b62729f678a7e0ea,65d2b6c8f2eece985d8e374c,65d2b83ef2cdb579bb1760b3,0.0947,0.0948,1,79,241,79,1,eightseven,,,,,,,,,,,,,,,,,,,,,,,,,,,,,,,,,,,,,,,,,,,,,,,,,,,,,,,,,,,,,,,,,,,,,,,,,,,,,,,,,,,,,,,,,,,,,,,,,,,,,,,,,,,,,,,,,,,,,,,,,,,,,,,,,,,,,,,,,
,,613be225b62729f678a7e0ea,2024-02-18_20h31.28.068,kallum_motion_pilot,2023.2.2,Win32,58.47953217,613be225b62729f678a7e0ea,65d2b6c8f2eece985d8e374c,65d2b83ef2cdb579bb1760b3,0.095,0.095,1,80,242,35,1,twofour,,,,,,,,,,,,,,,,,,,,,,,,,,,,,,,,,,,,,,,,,,,,,,,,,,,,,,,,,,,,,,,,,,,,,,,,,,,,,,,,,,,,,,,,,,,,,,,,,,,,,,,,,,,,,,,,,,,,,,,,,,,,,,,,,,,,,,,,,
,,613be225b62729f678a7e0ea,2024-02-18_20h31.28.068,kallum_motion_pilot,2023.2.2,Win32,58.47953217,613be225b62729f678a7e0ea,65d2b6c8f2eece985d8e374c,65d2b83ef2cdb579bb1760b3,0.0952,0.0953,1,81,243,88,1,fivesix,,,,,,,,,,,,,,,,,,,,,,,,,,,,,,,,,,,,,,,,,,,,,,,,,,,,,,,,,,,,,,,,,,,,,,,,,,,,,,,,,,,,,,,,,,,,,,,,,,,,,,,,,,,,,,,,,,,,,,,,,,,,,,,,,,,,,,,,,
,,613be225b62729f678a7e0ea,2024-02-18_20h31.28.068,kallum_motion_pilot,2023.2.2,Win32,58.47953217,613be225b62729f678a7e0ea,65d2b6c8f2eece985d8e374c,65d2b83ef2cdb579bb1760b3,0.0954,0.0955,1,82,244,67,1,twofour,,,,,,,,,,,,,,,,,,,,,,,,,,,,,,,,,,,,,,,,,,,,,,,,,,,,,,,,,,,,,,,,,,,,,,,,,,,,,,,,,,,,,,,,,,,,,,,,,,,,,,,,,,,,,,,,,,,,,,,,,,,,,,,,,,,,,,,,,
,,613be225b62729f678a7e0ea,2024-02-18_20h31.28.068,kallum_motion_pilot,2023.2.2,Win32,58.47953217,613be225b62729f678a7e0ea,65d2b6c8f2eece985d8e374c,65d2b83ef2cdb579bb1760b3,0.0956,0.0957,1,83,245,139,1,sixeight,,,,,,,,,,,,,,,,,,,,,,,,,,,,,,,,,,,,,,,,,,,,,,,,,,,,,,,,,,,,,,,,,,,,,,,,,,,,,,,,,,,,,,,,,,,,,,,,,,,,,,,,,,,,,,,,,,,,,,,,,,,,,,,,,,,,,,,,,
,,613be225b62729f678a7e0ea,2024-02-18_20h31.28.068,kallum_motion_pilot,2023.2.2,Win32,58.47953217,613be225b62729f678a7e0ea,65d2b6c8f2eece985d8e374c,65d2b83ef2cdb579bb1760b3,0.0958,0.0959,1,84,246,112,1,fivesix,,,,,,,,,,,,,,,,,,,,,,,,,,,,,,,,,,,,,,,,,,,,,,,,,,,,,,,,,,,,,,,,,,,,,,,,,,,,,,,,,,,,,,,,,,,,,,,,,,,,,,,,,,,,,,,,,,,,,,,,,,,,,,,,,,,,,,,,,
,,613be225b62729f678a7e0ea,2024-02-18_20h31.28.068,kallum_motion_pilot,2023.2.2,Win32,58.47953217,613be225b62729f678a7e0ea,65d2b6c8f2eece985d8e374c,65d2b83ef2cdb579bb1760b3,0.096,0.0961,1,85,247,36,1,threeone,,,,,,,,,,,,,,,,,,,,,,,,,,,,,,,,,,,,,,,,,,,,,,,,,,,,,,,,,,,,,,,,,,,,,,,,,,,,,,,,,,,,,,,,,,,,,,,,,,,,,,,,,,,,,,,,,,,,,,,,,,,,,,,,,,,,,,,,,
,,613be225b62729f678a7e0ea,2024-02-18_20h31.28.068,kallum_motion_pilot,2023.2.2,Win32,58.47953217,613be225b62729f678a7e0ea,65d2b6c8f2eece985d8e374c,65d2b83ef2cdb579bb1760b3,0.0962,0.0963,1,86,248,101,1,seveneight,,,,,,,,,,,,,,,,,,,,,,,,,,,,,,,,,,,,,,,,,,,,,,,,,,,,,,,,,,,,,,,,,,,,,,,,,,,,,,,,,,,,,,,,,,,,,,,,,,,,,,,,,,,,,,,,,,,,,,,,,,,,,,,,,,,,,,,,,
,,613be225b62729f678a7e0ea,2024-02-18_20h31.28.068,kallum_motion_pilot,2023.2.2,Win32,58.47953217,613be225b62729f678a7e0ea,65d2b6c8f2eece985d8e374c,65d2b83ef2cdb579bb1760b3,0.0964,0.0965,1,87,249,82,1,sixfive,,,,,,,,,,,,,,,,,,,,,,,,,,,,,,,,,,,,,,,,,,,,,,,,,,,,,,,,,,,,,,,,,,,,,,,,,,,,,,,,,,,,,,,,,,,,,,,,,,,,,,,,,,,,,,,,,,,,,,,,,,,,,,,,,,,,,,,,,
,,613be225b62729f678a7e0ea,2024-02-18_20h31.28.068,kallum_motion_pilot,2023.2.2,Win32,58.47953217,613be225b62729f678a7e0ea,65d2b6c8f2eece985d8e374c,65d2b83ef2cdb579bb1760b3,0.0966,0.0967,1,88,250,89,1,fiveseven,,,,,,,,,,,,,,,,,,,,,,,,,,,,,,,,,,,,,,,,,,,,,,,,,,,,,,,,,,,,,,,,,,,,,,,,,,,,,,,,,,,,,,,,,,,,,,,,,,,,,,,,,,,,,,,,,,,,,,,,,,,,,,,,,,,,,,,,,
,,613be225b62729f678a7e0ea,2024-02-18_20h31.28.068,kallum_motion_pilot,2023.2.2,Win32,58.47953217,613be225b62729f678a7e0ea,65d2b6c8f2eece985d8e374c,65d2b83ef2cdb579bb1760b3,0.0968,0.0969,1,89,251,136,1,fivesix,,,,,,,,,,,,,,,,,,,,,,,,,,,,,,,,,,,,,,,,,,,,,,,,,,,,,,,,,,,,,,,,,,,,,,,,,,,,,,,,,,,,,,,,,,,,,,,,,,,,,,,,,,,,,,,,,,,,,,,,,,,,,,,,,,,,,,,,,
,,613be225b62729f678a7e0ea,2024-02-18_20h31.28.068,kallum_motion_pilot,2023.2.2,Win32,58.47953217,613be225b62729f678a7e0ea,65d2b6c8f2eece985d8e374c,65d2b83ef2cdb579bb1760b3,0.097,0.0971,1,90,252,104,1,fivesix,,,,,,,,,,,,,,,,,,,,,,,,,,,,,,,,,,,,,,,,,,,,,,,,,,,,,,,,,,,,,,,,,,,,,,,,,,,,,,,,,,,,,,,,,,,,,,,,,,,,,,,,,,,,,,,,,,,,,,,,,,,,,,,,,,,,,,,,,
,,613be225b62729f678a7e0ea,2024-02-18_20h31.28.068,kallum_motion_pilot,2023.2.2,Win32,58.47953217,613be225b62729f678a7e0ea,65d2b6c8f2eece985d8e374c,65d2b83ef2cdb579bb1760b3,0.0972,0.0973,1,91,253,65,1,onethree,,,,,,,,,,,,,,,,,,,,,,,,,,,,,,,,,,,,,,,,,,,,,,,,,,,,,,,,,,,,,,,,,,,,,,,,,,,,,,,,,,,,,,,,,,,,,,,,,,,,,,,,,,,,,,,,,,,,,,,,,,,,,,,,,,,,,,,,,
,,613be225b62729f678a7e0ea,2024-02-18_20h31.28.068,kallum_motion_pilot,2023.2.2,Win32,58.47953217,613be225b62729f678a7e0ea,65d2b6c8f2eece985d8e374c,65d2b83ef2cdb579bb1760b3,0.0974,0.0975,1,92,254,97,1,fiveseven,,,,,,,,,,,,,,,,,,,,,,,,,,,,,,,,,,,,,,,,,,,,,,,,,,,,,,,,,,,,,,,,,,,,,,,,,,,,,,,,,,,,,,,,,,,,,,,,,,,,,,,,,,,,,,,,,,,,,,,,,,,,,,,,,,,,,,,,,
,,613be225b62729f678a7e0ea,2024-02-18_20h31.28.068,kallum_motion_pilot,2023.2.2,Win32,58.47953217,613be225b62729f678a7e0ea,65d2b6c8f2eece985d8e374c,65d2b83ef2cdb579bb1760b3,0.0977,0.0978,1,93,255,55,1,fourthree,,,,,,,,,,,,,,,,,,,,,,,,,,,,,,,,,,,,,,,,,,,,,,,,,,,,,,,,,,,,,,,,,,,,,,,,,,,,,,,,,,,,,,,,,,,,,,,,,,,,,,,,,,,,,,,,,,,,,,,,,,,,,,,,,,,,,,,,,
,,613be225b62729f678a7e0ea,2024-02-18_20h31.28.068,kallum_motion_pilot,2023.2.2,Win32,58.47953217,613be225b62729f678a7e0ea,65d2b6c8f2eece985d8e374c,65d2b83ef2cdb579bb1760b3,0.0979,0.098,1,94,256,106,1,sixfive,,,,,,,,,,,,,,,,,,,,,,,,,,,,,,,,,,,,,,,,,,,,,,,,,,,,,,,,,,,,,,,,,,,,,,,,,,,,,,,,,,,,,,,,,,,,,,,,,,,,,,,,,,,,,,,,,,,,,,,,,,,,,,,,,,,,,,,,,
,,613be225b62729f678a7e0ea,2024-02-18_20h31.28.068,kallum_motion_pilot,2023.2.2,Win32,58.47953217,613be225b62729f678a7e0ea,65d2b6c8f2eece985d8e374c,65d2b83ef2cdb579bb1760b3,0.0981,0.0982,1,95,257,64,1,onetwo,,,,,,,,,,,,,,,,,,,,,,,,,,,,,,,,,,,,,,,,,,,,,,,,,,,,,,,,,,,,,,,,,,,,,,,,,,,,,,,,,,,,,,,,,,,,,,,,,,,,,,,,,,,,,,,,,,,,,,,,,,,,,,,,,,,,,,,,,
,,613be225b62729f678a7e0ea,2024-02-18_20h31.28.068,kallum_motion_pilot,2023.2.2,Win32,58.47953217,613be225b62729f678a7e0ea,65d2b6c8f2eece985d8e374c,65d2b83ef2cdb579bb1760b3,0.0983,0.0984,1,96,258,95,1,eightseven,,,,,,,,,,,,,,,,,,,,,,,,,,,,,,,,,,,,,,,,,,,,,,,,,,,,,,,,,,,,,,,,,,,,,,,,,,,,,,,,,,,,,,,,,,,,,,,,,,,,,,,,,,,,,,,,,,,,,,,,,,,,,,,,,,,,,,,,,
,,613be225b62729f678a7e0ea,2024-02-18_20h31.28.068,kallum_motion_pilot,2023.2.2,Win32,58.47953217,613be225b62729f678a7e0ea,65d2b6c8f2eece985d8e374c,65d2b83ef2cdb579bb1760b3,0.0985,0.0986,1,97,259,41,1,onethree,,,,,,,,,,,,,,,,,,,,,,,,,,,,,,,,,,,,,,,,,,,,,,,,,,,,,,,,,,,,,,,,,,,,,,,,,,,,,,,,,,,,,,,,,,,,,,,,,,,,,,,,,,,,,,,,,,,,,,,,,,,,,,,,,,,,,,,,,
,,613be225b62729f678a7e0ea,2024-02-18_20h31.28.068,kallum_motion_pilot,2023.2.2,Win32,58.47953217,613be225b62729f678a7e0ea,65d2b6c8f2eece985d8e374c,65d2b83ef2cdb579bb1760b3,0.0987,0.0988,1,98,260,143,1,eightseven,,,,,,,,,,,,,,,,,,,,,,,,,,,,,,,,,,,,,,,,,,,,,,,,,,,,,,,,,,,,,,,,,,,,,,,,,,,,,,,,,,,,,,,,,,,,,,,,,,,,,,,,,,,,,,,,,,,,,,,,,,,,,,,,,,,,,,,,,
,,613be225b62729f678a7e0ea,2024-02-18_20h31.28.068,kallum_motion_pilot,2023.2.2,Win32,58.47953217,613be225b62729f678a7e0ea,65d2b6c8f2eece985d8e374c,65d2b83ef2cdb579bb1760b3,0.0989,0.099,1,99,261,26,1,twoone,,,,,,,,,,,,,,,,,,,,,,,,,,,,,,,,,,,,,,,,,,,,,,,,,,,,,,,,,,,,,,,,,,,,,,,,,,,,,,,,,,,,,,,,,,,,,,,,,,,,,,,,,,,,,,,,,,,,,,,,,,,,,,,,,,,,,,,,,
,,613be225b62729f678a7e0ea,2024-02-18_20h31.28.068,kallum_motion_pilot,2023.2.2,Win32,58.47953217,613be225b62729f678a7e0ea,65d2b6c8f2eece985d8e374c,65d2b83ef2cdb579bb1760b3,0.0991,0.0993,1,100,262,114,1,sixfive,,,,,,,,,,,,,,,,,,,,,,,,,,,,,,,,,,,,,,,,,,,,,,,,,,,,,,,,,,,,,,,,,,,,,,,,,,,,,,,,,,,,,,,,,,,,,,,,,,,,,,,,,,,,,,,,,,,,,,,,,,,,,,,,,,,,,,,,,
,,613be225b62729f678a7e0ea,2024-02-18_20h31.28.068,kallum_motion_pilot,2023.2.2,Win32,58.47953217,613be225b62729f678a7e0ea,65d2b6c8f2eece985d8e374c,65d2b83ef2cdb579bb1760b3,0.0995,0.0997,1,101,263,76,1,threeone,,,,,,,,,,,,,,,,,,,,,,,,,,,,,,,,,,,,,,,,,,,,,,,,,,,,,,,,,,,,,,,,,,,,,,,,,,,,,,,,,,,,,,,,,,,,,,,,,,,,,,,,,,,,,,,,,,,,,,,,,,,,,,,,,,,,,,,,,
,,613be225b62729f678a7e0ea,2024-02-18_20h31.28.068,kallum_motion_pilot,2023.2.2,Win32,58.47953217,613be225b62729f678a7e0ea,65d2b6c8f2eece985d8e374c,65d2b83ef2cdb579bb1760b3,0.0998,0.1,1,102,264,113,1,fiveseven,,,,,,,,,,,,,,,,,,,,,,,,,,,,,,,,,,,,,,,,,,,,,,,,,,,,,,,,,,,,,,,,,,,,,,,,,,,,,,,,,,,,,,,,,,,,,,,,,,,,,,,,,,,,,,,,,,,,,,,,,,,,,,,,,,,,,,,,,
,,613be225b62729f678a7e0ea,2024-02-18_20h31.28.068,kallum_motion_pilot,2023.2.2,Win32,58.47953217,613be225b62729f678a7e0ea,65d2b6c8f2eece985d8e374c,65d2b83ef2cdb579bb1760b3,0.1,0.1002,1,103,265,93,1,seveneight,,,,,,,,,,,,,,,,,,,,,,,,,,,,,,,,,,,,,,,,,,,,,,,,,,,,,,,,,,,,,,,,,,,,,,,,,,,,,,,,,,,,,,,,,,,,,,,,,,,,,,,,,,,,,,,,,,,,,,,,,,,,,,,,,,,,,,,,,
,,613be225b62729f678a7e0ea,2024-02-18_20h31.28.068,kallum_motion_pilot,2023.2.2,Win32,58.47953217,613be225b62729f678a7e0ea,65d2b6c8f2eece985d8e374c,65d2b83ef2cdb579bb1760b3,0.1044,0.1046,1,104,266,140,1,sevenfive,,,,,,,,,,,,,,,,,,,,,,,,,,,,,,,,,,,,,,,,,,,,,,,,,,,,,,,,,,,,,,,,,,,,,,,,,,,,,,,,,,,,,,,,,,,,,,,,,,,,,,,,,,,,,,,,,,,,,,,,,,,,,,,,,,,,,,,,,
,,613be225b62729f678a7e0ea,2024-02-18_20h31.28.068,kallum_motion_pilot,2023.2.2,Win32,58.47953217,613be225b62729f678a7e0ea,65d2b6c8f2eece985d8e374c,65d2b83ef2cdb579bb1760b3,0.1048,0.1049,1,105,267,47,1,fourthree,,,,,,,,,,,,,,,,,,,,,,,,,,,,,,,,,,,,,,,,,,,,,,,,,,,,,,,,,,,,,,,,,,,,,,,,,,,,,,,,,,,,,,,,,,,,,,,,,,,,,,,,,,,,,,,,,,,,,,,,,,,,,,,,,,,,,,,,,
,,613be225b62729f678a7e0ea,2024-02-18_20h31.28.068,kallum_motion_pilot,2023.2.2,Win32,58.47953217,613be225b62729f678a7e0ea,65d2b6c8f2eece985d8e374c,65d2b83ef2cdb579bb1760b3,0.105,0.1051,1,106,268,83,1,sixeight,,,,,,,,,,,,,,,,,,,,,,,,,,,,,,,,,,,,,,,,,,,,,,,,,,,,,,,,,,,,,,,,,,,,,,,,,,,,,,,,,,,,,,,,,,,,,,,,,,,,,,,,,,,,,,,,,,,,,,,,,,,,,,,,,,,,,,,,,
,,613be225b62729f678a7e0ea,2024-02-18_20h31.28.068,kallum_motion_pilot,2023.2.2,Win32,58.47953217,613be225b62729f678a7e0ea,65d2b6c8f2eece985d8e374c,65d2b83ef2cdb579bb1760b3,0.1052,0.1053,1,107,269,71,1,fourthree,,,,,,,,,,,,,,,,,,,,,,,,,,,,,,,,,,,,,,,,,,,,,,,,,,,,,,,,,,,,,,,,,,,,,,,,,,,,,,,,,,,,,,,,,,,,,,,,,,,,,,,,,,,,,,,,,,,,,,,,,,,,,,,,,,,,,,,,,
,,613be225b62729f678a7e0ea,2024-02-18_20h31.28.068,kallum_motion_pilot,2023.2.2,Win32,58.47953217,613be225b62729f678a7e0ea,65d2b6c8f2eece985d8e374c,65d2b83ef2cdb579bb1760b3,0.1054,0.1055,1,108,270,66,1,twoone,,,,,,,,,,,,,,,,,,,,,,,,,,,,,,,,,,,,,,,,,,,,,,,,,,,,,,,,,,,,,,,,,,,,,,,,,,,,,,,,,,,,,,,,,,,,,,,,,,,,,,,,,,,,,,,,,,,,,,,,,,,,,,,,,,,,,,,,,
,,613be225b62729f678a7e0ea,2024-02-18_20h31.28.068,kallum_motion_pilot,2023.2.2,Win32,58.47953217,613be225b62729f678a7e0ea,65d2b6c8f2eece985d8e374c,65d2b83ef2cdb579bb1760b3,0.1056,0.1057,1,109,271,145,1,fiveseven,,,,,,,,,,,,,,,,,,,,,,,,,,,,,,,,,,,,,,,,,,,,,,,,,,,,,,,,,,,,,,,,,,,,,,,,,,,,,,,,,,,,,,,,,,,,,,,,,,,,,,,,,,,,,,,,,,,,,,,,,,,,,,,,,,,,,,,,,
,,613be225b62729f678a7e0ea,2024-02-18_20h31.28.068,kallum_motion_pilot,2023.2.2,Win32,58.47953217,613be225b62729f678a7e0ea,65d2b6c8f2eece985d8e374c,65d2b83ef2cdb579bb1760b3,0.1058,0.1059,1,110,272,152,1,fivesix,,,,,,,,,,,,,,,,,,,,,,,,,,,,,,,,,,,,,,,,,,,,,,,,,,,,,,,,,,,,,,,,,,,,,,,,,,,,,,,,,,,,,,,,,,,,,,,,,,,,,,,,,,,,,,,,,,,,,,,,,,,,,,,,,,,,,,,,,
,,613be225b62729f678a7e0ea,2024-02-18_20h31.28.068,kallum_motion_pilot,2023.2.2,Win32,58.47953217,613be225b62729f678a7e0ea,65d2b6c8f2eece985d8e374c,65d2b83ef2cdb579bb1760b3,0.106,0.1062,1,111,273,78,1,fourtwo,,,,,,,,,,,,,,,,,,,,,,,,,,,,,,,,,,,,,,,,,,,,,,,,,,,,,,,,,,,,,,,,,,,,,,,,,,,,,,,,,,,,,,,,,,,,,,,,,,,,,,,,,,,,,,,,,,,,,,,,,,,,,,,,,,,,,,,,,
,,613be225b62729f678a7e0ea,2024-02-18_20h31.28.068,kallum_motion_pilot,2023.2.2,Win32,58.47953217,613be225b62729f678a7e0ea,65d2b6c8f2eece985d8e374c,65d2b83ef2cdb579bb1760b3,0.1062,0.1064,1,112,274,161,1,fiveseven,,,,,,,,,,,,,,,,,,,,,,,,,,,,,,,,,,,,,,,,,,,,,,,,,,,,,,,,,,,,,,,,,,,,,,,,,,,,,,,,,,,,,,,,,,,,,,,,,,,,,,,,,,,,,,,,,,,,,,,,,,,,,,,,,,,,,,,,,
,,613be225b62729f678a7e0ea,2024-02-18_20h31.28.068,kallum_motion_pilot,2023.2.2,Win32,58.47953217,613be225b62729f678a7e0ea,65d2b6c8f2eece985d8e374c,65d2b83ef2cdb579bb1760b3,0.1064,0.1066,1,113,275,38,1,fourtwo,,,,,,,,,,,,,,,,,,,,,,,,,,,,,,,,,,,,,,,,,,,,,,,,,,,,,,,,,,,,,,,,,,,,,,,,,,,,,,,,,,,,,,,,,,,,,,,,,,,,,,,,,,,,,,,,,,,,,,,,,,,,,,,,,,,,,,,,,
,,613be225b62729f678a7e0ea,2024-02-18_20h31.28.068,kallum_motion_pilot,2023.2.2,Win32,58.47953217,613be225b62729f678a7e0ea,65d2b6c8f2eece985d8e374c,65d2b83ef2cdb579bb1760b3,0.1067,0.1068,1,114,276,131,1,sixeight,,,,,,,,,,,,,,,,,,,,,,,,,,,,,,,,,,,,,,,,,,,,,,,,,,,,,,,,,,,,,,,,,,,,,,,,,,,,,,,,,,,,,,,,,,,,,,,,,,,,,,,,,,,,,,,,,,,,,,,,,,,,,,,,,,,,,,,,,
,,613be225b62729f678a7e0ea,2024-02-18_20h31.28.068,kallum_motion_pilot,2023.2.2,Win32,58.47953217,613be225b62729f678a7e0ea,65d2b6c8f2eece985d8e374c,65d2b83ef2cdb579bb1760b3,0.1068,0.107,1,115,277,61,1,threefour,,,,,,,,,,,,,,,,,,,,,,,,,,,,,,,,,,,,,,,,,,,,,,,,,,,,,,,,,,,,,,,,,,,,,,,,,,,,,,,,,,,,,,,,,,,,,,,,,,,,,,,,,,,,,,,,,,,,,,,,,,,,,,,,,,,,,,,,,
