startup.started,startup.stopped,Prolific ID*,date,expName,psychopyVersion,OS,frameRate,participant,study_id,session,stimpositions.started,stimpositions.stopped,hardcoded_stimulus_positions.thisRepN,hardcoded_stimulus_positions.thisTrialN,hardcoded_stimulus_positions.thisN,hardcoded_stimulus_positions.thisIndex,hardcoded_stimulus_positions.ran,StimulusPos,stimorientation.started,stimorientation.stopped,prac_stimorientation_import_loop.thisRepN,prac_stimorientation_import_loop.thisTrialN,prac_stimorientation_import_loop.thisN,prac_stimorientation_import_loop.thisIndex,prac_stimorientation_import_loop.ran,Stimorientation,welcome_instr.started,welcome_instr.stopped,key_resp.keys,key_resp.rt,key_resp.duration,response_steppedout_1.started,response_steppedout_1.stopped,key_resp_20.keys,key_resp_20.rt,key_resp_20.duration,response_steppedout_2.started,response_steppedout_2.stopped,key_resp_19.keys,key_resp_19.rt,key_resp_19.duration,stim_response_instr.started,stim_response_instr.stopped,key_resp_15.keys,key_resp_15.rt,key_resp_15.duration,direction_instr_2.started,direction_instr_2.stopped,key_resp_9.keys,key_resp_9.rt,key_resp_9.duration,instr_prac.started,instr_prac.stopped,key_resp_10.keys,key_resp_10.rt,key_resp_10.duration,Stim1_display_prac.started,Stim1_display_prac.stopped,Ecc,Circle1_ori,Circle2_ori,response_prac.started,similarity,response_time,response_prac.stopped,mouse_5.x,mouse_5.y,mouse_5.leftButton,mouse_5.midButton,mouse_5.rightButton,mouse_5.clicked_name,responseprac_feedback.started,responseprac_feedback.stopped,summary2_prac.started,summary2_prac.stopped,mouse_6.x,mouse_6.y,mouse_6.leftButton,mouse_6.midButton,mouse_6.rightButton,mouse_6.clicked_name,duringprac.thisRepN,duringprac.thisTrialN,duringprac.thisN,duringprac.thisIndex,duringprac.ran,begin.started,begin.stopped,key_resp_22.keys,key_resp_22.rt,key_resp_22.duration,Stim1_display.started,Stim1_display.stopped,circle1_ori,circle2_ori,circle1_SF,circle2_SF,response.started,response.stopped,mouse.x,mouse.y,mouse.leftButton,mouse.midButton,mouse.rightButton,mouse.clicked_name,trialnumber,double_pass.thisRepN,double_pass.thisTrialN,double_pass.thisN,double_pass.thisIndex,double_pass.ran,double_pass.order,main_trial.thisRepN,main_trial.thisTrialN,main_trial.thisN,main_trial.thisIndex,main_trial.ran,main_trial.order,Trial_Counter,Catch,Frequencies,response_2.started,response_2.stopped,mouse_2.x,mouse_2.y,mouse_2.leftButton,mouse_2.midButton,mouse_2.rightButton,mouse_2.clicked_name,special_trial.started,special_trial.stopped,catch_1.started,catch_1.stopped,mouse_3.x,mouse_3.y,mouse_3.leftButton,mouse_3.midButton,mouse_3.rightButton,catchresponse,catchnumber,response_time_catch,response_sum.started,response_sum.stopped,mouse_11.x,mouse_11.y,mouse_11.leftButton,mouse_11.midButton,mouse_11.rightButton,flip_presentation_sequence_for_double_pass.started,flip_presentation_sequence_for_double_pass.stopped,goodbye.started,goodbye.stopped,key_resp_3.keys,key_resp_3.rt,key_resp_3.duration
0.0019,0.002,613b7bdaa7318ef4e18e41f4,2024-02-21_20h15.41.758,kallum_motion_pilot,2023.2.2,Win32,59.88023952,613b7bdaa7318ef4e18e41f4,65d6bb0e977760de756971f7,65d6bc0e058bccc373aa7921,,,,,,,,,,,,,,,,,,,,,,,,,,,,,,,,,,,,,,,,,,,,,,,,,,,,,,,,,,,,,,,,,,,,,,,,,,,,,,,,,,,,,,,,,,,,,,,,,,,,,,,,,,,,,,,,,,,,,,,,,,,,,,,,,,,,,,,,,,,,,,,,,
,,613b7bdaa7318ef4e18e41f4,2024-02-21_20h15.41.758,kallum_motion_pilot,2023.2.2,Win32,59.88023952,613b7bdaa7318ef4e18e41f4,65d6bb0e977760de756971f7,65d6bc0e058bccc373aa7921,0.0799,0.0802,0,0,0,45,1,threefour,,,,,,,,,,,,,,,,,,,,,,,,,,,,,,,,,,,,,,,,,,,,,,,,,,,,,,,,,,,,,,,,,,,,,,,,,,,,,,,,,,,,,,,,,,,,,,,,,,,,,,,,,,,,,,,,,,,,,,,,,,,,,,,,,,,,,,,,,
,,613b7bdaa7318ef4e18e41f4,2024-02-21_20h15.41.758,kallum_motion_pilot,2023.2.2,Win32,59.88023952,613b7bdaa7318ef4e18e41f4,65d6bb0e977760de756971f7,65d6bc0e058bccc373aa7921,0.0808,0.0809,0,1,1,24,1,onetwo,,,,,,,,,,,,,,,,,,,,,,,,,,,,,,,,,,,,,,,,,,,,,,,,,,,,,,,,,,,,,,,,,,,,,,,,,,,,,,,,,,,,,,,,,,,,,,,,,,,,,,,,,,,,,,,,,,,,,,,,,,,,,,,,,,,,,,,,,
,,613b7bdaa7318ef4e18e41f4,2024-02-21_20h15.41.758,kallum_motion_pilot,2023.2.2,Win32,59.88023952,613b7bdaa7318ef4e18e41f4,65d6bb0e977760de756971f7,65d6bc0e058bccc373aa7921,0.0812,0.0813,0,2,2,73,1,onethree,,,,,,,,,,,,,,,,,,,,,,,,,,,,,,,,,,,,,,,,,,,,,,,,,,,,,,,,,,,,,,,,,,,,,,,,,,,,,,,,,,,,,,,,,,,,,,,,,,,,,,,,,,,,,,,,,,,,,,,,,,,,,,,,,,,,,,,,,
,,613b7bdaa7318ef4e18e41f4,2024-02-21_20h15.41.758,kallum_motion_pilot,2023.2.2,Win32,59.88023952,613b7bdaa7318ef4e18e41f4,65d6bb0e977760de756971f7,65d6bc0e058bccc373aa7921,0.0815,0.0816,0,3,3,55,1,fourthree,,,,,,,,,,,,,,,,,,,,,,,,,,,,,,,,,,,,,,,,,,,,,,,,,,,,,,,,,,,,,,,,,,,,,,,,,,,,,,,,,,,,,,,,,,,,,,,,,,,,,,,,,,,,,,,,,,,,,,,,,,,,,,,,,,,,,,,,,
,,613b7bdaa7318ef4e18e41f4,2024-02-21_20h15.41.758,kallum_motion_pilot,2023.2.2,Win32,59.88023952,613b7bdaa7318ef4e18e41f4,65d6bb0e977760de756971f7,65d6bc0e058bccc373aa7921,0.0819,0.0819,0,4,4,159,1,eightseven,,,,,,,,,,,,,,,,,,,,,,,,,,,,,,,,,,,,,,,,,,,,,,,,,,,,,,,,,,,,,,,,,,,,,,,,,,,,,,,,,,,,,,,,,,,,,,,,,,,,,,,,,,,,,,,,,,,,,,,,,,,,,,,,,,,,,,,,,
,,613b7bdaa7318ef4e18e41f4,2024-02-21_20h15.41.758,kallum_motion_pilot,2023.2.2,Win32,59.88023952,613b7bdaa7318ef4e18e41f4,65d6bb0e977760de756971f7,65d6bc0e058bccc373aa7921,0.0822,0.0823,0,5,5,22,1,fourtwo,,,,,,,,,,,,,,,,,,,,,,,,,,,,,,,,,,,,,,,,,,,,,,,,,,,,,,,,,,,,,,,,,,,,,,,,,,,,,,,,,,,,,,,,,,,,,,,,,,,,,,,,,,,,,,,,,,,,,,,,,,,,,,,,,,,,,,,,,
,,613b7bdaa7318ef4e18e41f4,2024-02-21_20h15.41.758,kallum_motion_pilot,2023.2.2,Win32,59.88023952,613b7bdaa7318ef4e18e41f4,65d6bb0e977760de756971f7,65d6bc0e058bccc373aa7921,0.0824,0.0825,0,6,6,107,1,sixeight,,,,,,,,,,,,,,,,,,,,,,,,,,,,,,,,,,,,,,,,,,,,,,,,,,,,,,,,,,,,,,,,,,,,,,,,,,,,,,,,,,,,,,,,,,,,,,,,,,,,,,,,,,,,,,,,,,,,,,,,,,,,,,,,,,,,,,,,,
,,613b7bdaa7318ef4e18e41f4,2024-02-21_20h15.41.758,kallum_motion_pilot,2023.2.2,Win32,59.88023952,613b7bdaa7318ef4e18e41f4,65d6bb0e977760de756971f7,65d6bc0e058bccc373aa7921,0.0828,0.083,0,7,7,120,1,fivesix,,,,,,,,,,,,,,,,,,,,,,,,,,,,,,,,,,,,,,,,,,,,,,,,,,,,,,,,,,,,,,,,,,,,,,,,,,,,,,,,,,,,,,,,,,,,,,,,,,,,,,,,,,,,,,,,,,,,,,,,,,,,,,,,,,,,,,,,,
,,613b7bdaa7318ef4e18e41f4,2024-02-21_20h15.41.758,kallum_motion_pilot,2023.2.2,Win32,59.88023952,613b7bdaa7318ef4e18e41f4,65d6bb0e977760de756971f7,65d6bc0e058bccc373aa7921,0.0831,0.0833,0,8,8,135,1,eightseven,,,,,,,,,,,,,,,,,,,,,,,,,,,,,,,,,,,,,,,,,,,,,,,,,,,,,,,,,,,,,,,,,,,,,,,,,,,,,,,,,,,,,,,,,,,,,,,,,,,,,,,,,,,,,,,,,,,,,,,,,,,,,,,,,,,,,,,,,
,,613b7bdaa7318ef4e18e41f4,2024-02-21_20h15.41.758,kallum_motion_pilot,2023.2.2,Win32,59.88023952,613b7bdaa7318ef4e18e41f4,65d6bb0e977760de756971f7,65d6bc0e058bccc373aa7921,0.0835,0.0836,0,9,9,60,1,threeone,,,,,,,,,,,,,,,,,,,,,,,,,,,,,,,,,,,,,,,,,,,,,,,,,,,,,,,,,,,,,,,,,,,,,,,,,,,,,,,,,,,,,,,,,,,,,,,,,,,,,,,,,,,,,,,,,,,,,,,,,,,,,,,,,,,,,,,,,
,,613b7bdaa7318ef4e18e41f4,2024-02-21_20h15.41.758,kallum_motion_pilot,2023.2.2,Win32,59.88023952,613b7bdaa7318ef4e18e41f4,65d6bb0e977760de756971f7,65d6bc0e058bccc373aa7921,0.0838,0.0838,0,10,10,14,1,fourtwo,,,,,,,,,,,,,,,,,,,,,,,,,,,,,,,,,,,,,,,,,,,,,,,,,,,,,,,,,,,,,,,,,,,,,,,,,,,,,,,,,,,,,,,,,,,,,,,,,,,,,,,,,,,,,,,,,,,,,,,,,,,,,,,,,,,,,,,,,
,,613b7bdaa7318ef4e18e41f4,2024-02-21_20h15.41.758,kallum_motion_pilot,2023.2.2,Win32,59.88023952,613b7bdaa7318ef4e18e41f4,65d6bb0e977760de756971f7,65d6bc0e058bccc373aa7921,0.0841,0.0841,0,11,11,78,1,fourtwo,,,,,,,,,,,,,,,,,,,,,,,,,,,,,,,,,,,,,,,,,,,,,,,,,,,,,,,,,,,,,,,,,,,,,,,,,,,,,,,,,,,,,,,,,,,,,,,,,,,,,,,,,,,,,,,,,,,,,,,,,,,,,,,,,,,,,,,,,
,,613b7bdaa7318ef4e18e41f4,2024-02-21_20h15.41.758,kallum_motion_pilot,2023.2.2,Win32,59.88023952,613b7bdaa7318ef4e18e41f4,65d6bb0e977760de756971f7,65d6bc0e058bccc373aa7921,0.0843,0.0843,0,12,12,38,1,fourtwo,,,,,,,,,,,,,,,,,,,,,,,,,,,,,,,,,,,,,,,,,,,,,,,,,,,,,,,,,,,,,,,,,,,,,,,,,,,,,,,,,,,,,,,,,,,,,,,,,,,,,,,,,,,,,,,,,,,,,,,,,,,,,,,,,,,,,,,,,
,,613b7bdaa7318ef4e18e41f4,2024-02-21_20h15.41.758,kallum_motion_pilot,2023.2.2,Win32,59.88023952,613b7bdaa7318ef4e18e41f4,65d6bb0e977760de756971f7,65d6bc0e058bccc373aa7921,0.0845,0.0847,0,13,13,48,1,onetwo,,,,,,,,,,,,,,,,,,,,,,,,,,,,,,,,,,,,,,,,,,,,,,,,,,,,,,,,,,,,,,,,,,,,,,,,,,,,,,,,,,,,,,,,,,,,,,,,,,,,,,,,,,,,,,,,,,,,,,,,,,,,,,,,,,,,,,,,,
,,613b7bdaa7318ef4e18e41f4,2024-02-21_20h15.41.758,kallum_motion_pilot,2023.2.2,Win32,59.88023952,613b7bdaa7318ef4e18e41f4,65d6bb0e977760de756971f7,65d6bc0e058bccc373aa7921,0.0848,0.0849,0,14,14,70,1,fourtwo,,,,,,,,,,,,,,,,,,,,,,,,,,,,,,,,,,,,,,,,,,,,,,,,,,,,,,,,,,,,,,,,,,,,,,,,,,,,,,,,,,,,,,,,,,,,,,,,,,,,,,,,,,,,,,,,,,,,,,,,,,,,,,,,,,,,,,,,,
,,613b7bdaa7318ef4e18e41f4,2024-02-21_20h15.41.758,kallum_motion_pilot,2023.2.2,Win32,59.88023952,613b7bdaa7318ef4e18e41f4,65d6bb0e977760de756971f7,65d6bc0e058bccc373aa7921,0.085,0.0852,0,15,15,119,1,eightseven,,,,,,,,,,,,,,,,,,,,,,,,,,,,,,,,,,,,,,,,,,,,,,,,,,,,,,,,,,,,,,,,,,,,,,,,,,,,,,,,,,,,,,,,,,,,,,,,,,,,,,,,,,,,,,,,,,,,,,,,,,,,,,,,,,,,,,,,,
,,613b7bdaa7318ef4e18e41f4,2024-02-21_20h15.41.758,kallum_motion_pilot,2023.2.2,Win32,59.88023952,613b7bdaa7318ef4e18e41f4,65d6bb0e977760de756971f7,65d6bc0e058bccc373aa7921,0.0854,0.0854,0,16,16,49,1,onethree,,,,,,,,,,,,,,,,,,,,,,,,,,,,,,,,,,,,,,,,,,,,,,,,,,,,,,,,,,,,,,,,,,,,,,,,,,,,,,,,,,,,,,,,,,,,,,,,,,,,,,,,,,,,,,,,,,,,,,,,,,,,,,,,,,,,,,,,,
,,613b7bdaa7318ef4e18e41f4,2024-02-21_20h15.41.758,kallum_motion_pilot,2023.2.2,Win32,59.88023952,613b7bdaa7318ef4e18e41f4,65d6bb0e977760de756971f7,65d6bc0e058bccc373aa7921,0.0857,0.0857,0,17,17,54,1,fourtwo,,,,,,,,,,,,,,,,,,,,,,,,,,,,,,,,,,,,,,,,,,,,,,,,,,,,,,,,,,,,,,,,,,,,,,,,,,,,,,,,,,,,,,,,,,,,,,,,,,,,,,,,,,,,,,,,,,,,,,,,,,,,,,,,,,,,,,,,,
,,613b7bdaa7318ef4e18e41f4,2024-02-21_20h15.41.758,kallum_motion_pilot,2023.2.2,Win32,59.88023952,613b7bdaa7318ef4e18e41f4,65d6bb0e977760de756971f7,65d6bc0e058bccc373aa7921,0.086,0.086,0,18,18,133,1,seveneight,,,,,,,,,,,,,,,,,,,,,,,,,,,,,,,,,,,,,,,,,,,,,,,,,,,,,,,,,,,,,,,,,,,,,,,,,,,,,,,,,,,,,,,,,,,,,,,,,,,,,,,,,,,,,,,,,,,,,,,,,,,,,,,,,,,,,,,,,
,,613b7bdaa7318ef4e18e41f4,2024-02-21_20h15.41.758,kallum_motion_pilot,2023.2.2,Win32,59.88023952,613b7bdaa7318ef4e18e41f4,65d6bb0e977760de756971f7,65d6bc0e058bccc373aa7921,0.0863,0.0864,0,19,19,153,1,fiveseven,,,,,,,,,,,,,,,,,,,,,,,,,,,,,,,,,,,,,,,,,,,,,,,,,,,,,,,,,,,,,,,,,,,,,,,,,,,,,,,,,,,,,,,,,,,,,,,,,,,,,,,,,,,,,,,,,,,,,,,,,,,,,,,,,,,,,,,,,
,,613b7bdaa7318ef4e18e41f4,2024-02-21_20h15.41.758,kallum_motion_pilot,2023.2.2,Win32,59.88023952,613b7bdaa7318ef4e18e41f4,65d6bb0e977760de756971f7,65d6bc0e058bccc373aa7921,0.0868,0.0869,0,20,20,2,1,twoone,,,,,,,,,,,,,,,,,,,,,,,,,,,,,,,,,,,,,,,,,,,,,,,,,,,,,,,,,,,,,,,,,,,,,,,,,,,,,,,,,,,,,,,,,,,,,,,,,,,,,,,,,,,,,,,,,,,,,,,,,,,,,,,,,,,,,,,,,
,,613b7bdaa7318ef4e18e41f4,2024-02-21_20h15.41.758,kallum_motion_pilot,2023.2.2,Win32,59.88023952,613b7bdaa7318ef4e18e41f4,65d6bb0e977760de756971f7,65d6bc0e058bccc373aa7921,0.0889,0.0892,0,21,21,11,1,twofour,,,,,,,,,,,,,,,,,,,,,,,,,,,,,,,,,,,,,,,,,,,,,,,,,,,,,,,,,,,,,,,,,,,,,,,,,,,,,,,,,,,,,,,,,,,,,,,,,,,,,,,,,,,,,,,,,,,,,,,,,,,,,,,,,,,,,,,,,
,,613b7bdaa7318ef4e18e41f4,2024-02-21_20h15.41.758,kallum_motion_pilot,2023.2.2,Win32,59.88023952,613b7bdaa7318ef4e18e41f4,65d6bb0e977760de756971f7,65d6bc0e058bccc373aa7921,0.0895,0.0897,0,22,22,50,1,twoone,,,,,,,,,,,,,,,,,,,,,,,,,,,,,,,,,,,,,,,,,,,,,,,,,,,,,,,,,,,,,,,,,,,,,,,,,,,,,,,,,,,,,,,,,,,,,,,,,,,,,,,,,,,,,,,,,,,,,,,,,,,,,,,,,,,,,,,,,
,,613b7bdaa7318ef4e18e41f4,2024-02-21_20h15.41.758,kallum_motion_pilot,2023.2.2,Win32,59.88023952,613b7bdaa7318ef4e18e41f4,65d6bb0e977760de756971f7,65d6bc0e058bccc373aa7921,0.0903,0.0903,0,23,23,99,1,sixeight,,,,,,,,,,,,,,,,,,,,,,,,,,,,,,,,,,,,,,,,,,,,,,,,,,,,,,,,,,,,,,,,,,,,,,,,,,,,,,,,,,,,,,,,,,,,,,,,,,,,,,,,,,,,,,,,,,,,,,,,,,,,,,,,,,,,,,,,,
,,613b7bdaa7318ef4e18e41f4,2024-02-21_20h15.41.758,kallum_motion_pilot,2023.2.2,Win32,59.88023952,613b7bdaa7318ef4e18e41f4,65d6bb0e977760de756971f7,65d6bc0e058bccc373aa7921,0.0936,0.0938,0,24,24,42,1,twoone,,,,,,,,,,,,,,,,,,,,,,,,,,,,,,,,,,,,,,,,,,,,,,,,,,,,,,,,,,,,,,,,,,,,,,,,,,,,,,,,,,,,,,,,,,,,,,,,,,,,,,,,,,,,,,,,,,,,,,,,,,,,,,,,,,,,,,,,,
,,613b7bdaa7318ef4e18e41f4,2024-02-21_20h15.41.758,kallum_motion_pilot,2023.2.2,Win32,59.88023952,613b7bdaa7318ef4e18e41f4,65d6bb0e977760de756971f7,65d6bc0e058bccc373aa7921,0.094,0.0953,0,25,25,112,1,fivesix,,,,,,,,,,,,,,,,,,,,,,,,,,,,,,,,,,,,,,,,,,,,,,,,,,,,,,,,,,,,,,,,,,,,,,,,,,,,,,,,,,,,,,,,,,,,,,,,,,,,,,,,,,,,,,,,,,,,,,,,,,,,,,,,,,,,,,,,,
,,613b7bdaa7318ef4e18e41f4,2024-02-21_20h15.41.758,kallum_motion_pilot,2023.2.2,Win32,59.88023952,613b7bdaa7318ef4e18e41f4,65d6bb0e977760de756971f7,65d6bc0e058bccc373aa7921,0.0957,0.0958,0,26,26,81,1,fiveseven,,,,,,,,,,,,,,,,,,,,,,,,,,,,,,,,,,,,,,,,,,,,,,,,,,,,,,,,,,,,,,,,,,,,,,,,,,,,,,,,,,,,,,,,,,,,,,,,,,,,,,,,,,,,,,,,,,,,,,,,,,,,,,,,,,,,,,,,,
,,613b7bdaa7318ef4e18e41f4,2024-02-21_20h15.41.758,kallum_motion_pilot,2023.2.2,Win32,59.88023952,613b7bdaa7318ef4e18e41f4,65d6bb0e977760de756971f7,65d6bc0e058bccc373aa7921,0.0961,0.0963,0,27,27,15,1,fourthree,,,,,,,,,,,,,,,,,,,,,,,,,,,,,,,,,,,,,,,,,,,,,,,,,,,,,,,,,,,,,,,,,,,,,,,,,,,,,,,,,,,,,,,,,,,,,,,,,,,,,,,,,,,,,,,,,,,,,,,,,,,,,,,,,,,,,,,,,
,,613b7bdaa7318ef4e18e41f4,2024-02-21_20h15.41.758,kallum_motion_pilot,2023.2.2,Win32,59.88023952,613b7bdaa7318ef4e18e41f4,65d6bb0e977760de756971f7,65d6bc0e058bccc373aa7921,0.0967,0.0968,0,28,28,56,1,onetwo,,,,,,,,,,,,,,,,,,,,,,,,,,,,,,,,,,,,,,,,,,,,,,,,,,,,,,,,,,,,,,,,,,,,,,,,,,,,,,,,,,,,,,,,,,,,,,,,,,,,,,,,,,,,,,,,,,,,,,,,,,,,,,,,,,,,,,,,,
,,613b7bdaa7318ef4e18e41f4,2024-02-21_20h15.41.758,kallum_motion_pilot,2023.2.2,Win32,59.88023952,613b7bdaa7318ef4e18e41f4,65d6bb0e977760de756971f7,65d6bc0e058bccc373aa7921,0.097,0.0972,0,29,29,108,1,sevenfive,,,,,,,,,,,,,,,,,,,,,,,,,,,,,,,,,,,,,,,,,,,,,,,,,,,,,,,,,,,,,,,,,,,,,,,,,,,,,,,,,,,,,,,,,,,,,,,,,,,,,,,,,,,,,,,,,,,,,,,,,,,,,,,,,,,,,,,,,
,,613b7bdaa7318ef4e18e41f4,2024-02-21_20h15.41.758,kallum_motion_pilot,2023.2.2,Win32,59.88023952,613b7bdaa7318ef4e18e41f4,65d6bb0e977760de756971f7,65d6bc0e058bccc373aa7921,0.0974,0.0975,0,30,30,88,1,fivesix,,,,,,,,,,,,,,,,,,,,,,,,,,,,,,,,,,,,,,,,,,,,,,,,,,,,,,,,,,,,,,,,,,,,,,,,,,,,,,,,,,,,,,,,,,,,,,,,,,,,,,,,,,,,,,,,,,,,,,,,,,,,,,,,,,,,,,,,,
,,613b7bdaa7318ef4e18e41f4,2024-02-21_20h15.41.758,kallum_motion_pilot,2023.2.2,Win32,59.88023952,613b7bdaa7318ef4e18e41f4,65d6bb0e977760de756971f7,65d6bc0e058bccc373aa7921,0.0978,0.0979,0,31,31,137,1,fiveseven,,,,,,,,,,,,,,,,,,,,,,,,,,,,,,,,,,,,,,,,,,,,,,,,,,,,,,,,,,,,,,,,,,,,,,,,,,,,,,,,,,,,,,,,,,,,,,,,,,,,,,,,,,,,,,,,,,,,,,,,,,,,,,,,,,,,,,,,,
,,613b7bdaa7318ef4e18e41f4,2024-02-21_20h15.41.758,kallum_motion_pilot,2023.2.2,Win32,59.88023952,613b7bdaa7318ef4e18e41f4,65d6bb0e977760de756971f7,65d6bc0e058bccc373aa7921,0.0991,0.0992,0,32,32,109,1,seveneight,,,,,,,,,,,,,,,,,,,,,,,,,,,,,,,,,,,,,,,,,,,,,,,,,,,,,,,,,,,,,,,,,,,,,,,,,,,,,,,,,,,,,,,,,,,,,,,,,,,,,,,,,,,,,,,,,,,,,,,,,,,,,,,,,,,,,,,,,
,,613b7bdaa7318ef4e18e41f4,2024-02-21_20h15.41.758,kallum_motion_pilot,2023.2.2,Win32,59.88023952,613b7bdaa7318ef4e18e41f4,65d6bb0e977760de756971f7,65d6bc0e058bccc373aa7921,0.0994,0.0996,0,33,33,21,1,threefour,,,,,,,,,,,,,,,,,,,,,,,,,,,,,,,,,,,,,,,,,,,,,,,,,,,,,,,,,,,,,,,,,,,,,,,,,,,,,,,,,,,,,,,,,,,,,,,,,,,,,,,,,,,,,,,,,,,,,,,,,,,,,,,,,,,,,,,,,
,,613b7bdaa7318ef4e18e41f4,2024-02-21_20h15.41.758,kallum_motion_pilot,2023.2.2,Win32,59.88023952,613b7bdaa7318ef4e18e41f4,65d6bb0e977760de756971f7,65d6bc0e058bccc373aa7921,0.0998,0.0998,0,34,34,58,1,twoone,,,,,,,,,,,,,,,,,,,,,,,,,,,,,,,,,,,,,,,,,,,,,,,,,,,,,,,,,,,,,,,,,,,,,,,,,,,,,,,,,,,,,,,,,,,,,,,,,,,,,,,,,,,,,,,,,,,,,,,,,,,,,,,,,,,,,,,,,
,,613b7bdaa7318ef4e18e41f4,2024-02-21_20h15.41.758,kallum_motion_pilot,2023.2.2,Win32,59.88023952,613b7bdaa7318ef4e18e41f4,65d6bb0e977760de756971f7,65d6bc0e058bccc373aa7921,0.1001,0.1003,0,35,35,125,1,seveneight,,,,,,,,,,,,,,,,,,,,,,,,,,,,,,,,,,,,,,,,,,,,,,,,,,,,,,,,,,,,,,,,,,,,,,,,,,,,,,,,,,,,,,,,,,,,,,,,,,,,,,,,,,,,,,,,,,,,,,,,,,,,,,,,,,,,,,,,,
,,613b7bdaa7318ef4e18e41f4,2024-02-21_20h15.41.758,kallum_motion_pilot,2023.2.2,Win32,59.88023952,613b7bdaa7318ef4e18e41f4,65d6bb0e977760de756971f7,65d6bc0e058bccc373aa7921,0.1004,0.1006,0,36,36,69,1,threefour,,,,,,,,,,,,,,,,,,,,,,,,,,,,,,,,,,,,,,,,,,,,,,,,,,,,,,,,,,,,,,,,,,,,,,,,,,,,,,,,,,,,,,,,,,,,,,,,,,,,,,,,,,,,,,,,,,,,,,,,,,,,,,,,,,,,,,,,,
,,613b7bdaa7318ef4e18e41f4,2024-02-21_20h15.41.758,kallum_motion_pilot,2023.2.2,Win32,59.88023952,613b7bdaa7318ef4e18e41f4,65d6bb0e977760de756971f7,65d6bc0e058bccc373aa7921,0.1008,0.1009,0,37,37,46,1,fourtwo,,,,,,,,,,,,,,,,,,,,,,,,,,,,,,,,,,,,,,,,,,,,,,,,,,,,,,,,,,,,,,,,,,,,,,,,,,,,,,,,,,,,,,,,,,,,,,,,,,,,,,,,,,,,,,,,,,,,,,,,,,,,,,,,,,,,,,,,,
,,613b7bdaa7318ef4e18e41f4,2024-02-21_20h15.41.758,kallum_motion_pilot,2023.2.2,Win32,59.88023952,613b7bdaa7318ef4e18e41f4,65d6bb0e977760de756971f7,65d6bc0e058bccc373aa7921,0.1015,0.1018,0,38,38,155,1,sixeight,,,,,,,,,,,,,,,,,,,,,,,,,,,,,,,,,,,,,,,,,,,,,,,,,,,,,,,,,,,,,,,,,,,,,,,,,,,,,,,,,,,,,,,,,,,,,,,,,,,,,,,,,,,,,,,,,,,,,,,,,,,,,,,,,,,,,,,,,
,,613b7bdaa7318ef4e18e41f4,2024-02-21_20h15.41.758,kallum_motion_pilot,2023.2.2,Win32,59.88023952,613b7bdaa7318ef4e18e41f4,65d6bb0e977760de756971f7,65d6bc0e058bccc373aa7921,0.1022,0.1024,0,39,39,63,1,fourthree,,,,,,,,,,,,,,,,,,,,,,,,,,,,,,,,,,,,,,,,,,,,,,,,,,,,,,,,,,,,,,,,,,,,,,,,,,,,,,,,,,,,,,,,,,,,,,,,,,,,,,,,,,,,,,,,,,,,,,,,,,,,,,,,,,,,,,,,,
,,613b7bdaa7318ef4e18e41f4,2024-02-21_20h15.41.758,kallum_motion_pilot,2023.2.2,Win32,59.88023952,613b7bdaa7318ef4e18e41f4,65d6bb0e977760de756971f7,65d6bc0e058bccc373aa7921,0.1039,0.1045,0,40,40,57,1,onethree,,,,,,,,,,,,,,,,,,,,,,,,,,,,,,,,,,,,,,,,,,,,,,,,,,,,,,,,,,,,,,,,,,,,,,,,,,,,,,,,,,,,,,,,,,,,,,,,,,,,,,,,,,,,,,,,,,,,,,,,,,,,,,,,,,,,,,,,,
,,613b7bdaa7318ef4e18e41f4,2024-02-21_20h15.41.758,kallum_motion_pilot,2023.2.2,Win32,59.88023952,613b7bdaa7318ef4e18e41f4,65d6bb0e977760de756971f7,65d6bc0e058bccc373aa7921,0.1051,0.1061,0,41,41,111,1,eightseven,,,,,,,,,,,,,,,,,,,,,,,,,,,,,,,,,,,,,,,,,,,,,,,,,,,,,,,,,,,,,,,,,,,,,,,,,,,,,,,,,,,,,,,,,,,,,,,,,,,,,,,,,,,,,,,,,,,,,,,,,,,,,,,,,,,,,,,,,
,,613b7bdaa7318ef4e18e41f4,2024-02-21_20h15.41.758,kallum_motion_pilot,2023.2.2,Win32,59.88023952,613b7bdaa7318ef4e18e41f4,65d6bb0e977760de756971f7,65d6bc0e058bccc373aa7921,0.1065,0.1068,0,42,42,67,1,twofour,,,,,,,,,,,,,,,,,,,,,,,,,,,,,,,,,,,,,,,,,,,,,,,,,,,,,,,,,,,,,,,,,,,,,,,,,,,,,,,,,,,,,,,,,,,,,,,,,,,,,,,,,,,,,,,,,,,,,,,,,,,,,,,,,,,,,,,,,
,,613b7bdaa7318ef4e18e41f4,2024-02-21_20h15.41.758,kallum_motion_pilot,2023.2.2,Win32,59.88023952,613b7bdaa7318ef4e18e41f4,65d6bb0e977760de756971f7,65d6bc0e058bccc373aa7921,0.1123,0.1125,0,43,43,104,1,fivesix,,,,,,,,,,,,,,,,,,,,,,,,,,,,,,,,,,,,,,,,,,,,,,,,,,,,,,,,,,,,,,,,,,,,,,,,,,,,,,,,,,,,,,,,,,,,,,,,,,,,,,,,,,,,,,,,,,,,,,,,,,,,,,,,,,,,,,,,,
,,613b7bdaa7318ef4e18e41f4,2024-02-21_20h15.41.758,kallum_motion_pilot,2023.2.2,Win32,59.88023952,613b7bdaa7318ef4e18e41f4,65d6bb0e977760de756971f7,65d6bc0e058bccc373aa7921,0.1129,0.113,0,44,44,26,1,twoone,,,,,,,,,,,,,,,,,,,,,,,,,,,,,,,,,,,,,,,,,,,,,,,,,,,,,,,,,,,,,,,,,,,,,,,,,,,,,,,,,,,,,,,,,,,,,,,,,,,,,,,,,,,,,,,,,,,,,,,,,,,,,,,,,,,,,,,,,
,,613b7bdaa7318ef4e18e41f4,2024-02-21_20h15.41.758,kallum_motion_pilot,2023.2.2,Win32,59.88023952,613b7bdaa7318ef4e18e41f4,65d6bb0e977760de756971f7,65d6bc0e058bccc373aa7921,0.1134,0.1137,0,45,45,30,1,fourtwo,,,,,,,,,,,,,,,,,,,,,,,,,,,,,,,,,,,,,,,,,,,,,,,,,,,,,,,,,,,,,,,,,,,,,,,,,,,,,,,,,,,,,,,,,,,,,,,,,,,,,,,,,,,,,,,,,,,,,,,,,,,,,,,,,,,,,,,,,
,,613b7bdaa7318ef4e18e41f4,2024-02-21_20h15.41.758,kallum_motion_pilot,2023.2.2,Win32,59.88023952,613b7bdaa7318ef4e18e41f4,65d6bb0e977760de756971f7,65d6bc0e058bccc373aa7921,0.1139,0.1144,0,46,46,156,1,sevenfive,,,,,,,,,,,,,,,,,,,,,,,,,,,,,,,,,,,,,,,,,,,,,,,,,,,,,,,,,,,,,,,,,,,,,,,,,,,,,,,,,,,,,,,,,,,,,,,,,,,,,,,,,,,,,,,,,,,,,,,,,,,,,,,,,,,,,,,,,
,,613b7bdaa7318ef4e18e41f4,2024-02-21_20h15.41.758,kallum_motion_pilot,2023.2.2,Win32,59.88023952,613b7bdaa7318ef4e18e41f4,65d6bb0e977760de756971f7,65d6bc0e058bccc373aa7921,0.1148,0.115,0,47,47,91,1,sixeight,,,,,,,,,,,,,,,,,,,,,,,,,,,,,,,,,,,,,,,,,,,,,,,,,,,,,,,,,,,,,,,,,,,,,,,,,,,,,,,,,,,,,,,,,,,,,,,,,,,,,,,,,,,,,,,,,,,,,,,,,,,,,,,,,,,,,,,,,
,,613b7bdaa7318ef4e18e41f4,2024-02-21_20h15.41.758,kallum_motion_pilot,2023.2.2,Win32,59.88023952,613b7bdaa7318ef4e18e41f4,65d6bb0e977760de756971f7,65d6bc0e058bccc373aa7921,0.1152,0.1156,0,48,48,140,1,sevenfive,,,,,,,,,,,,,,,,,,,,,,,,,,,,,,,,,,,,,,,,,,,,,,,,,,,,,,,,,,,,,,,,,,,,,,,,,,,,,,,,,,,,,,,,,,,,,,,,,,,,,,,,,,,,,,,,,,,,,,,,,,,,,,,,,,,,,,,,,
,,613b7bdaa7318ef4e18e41f4,2024-02-21_20h15.41.758,kallum_motion_pilot,2023.2.2,Win32,59.88023952,613b7bdaa7318ef4e18e41f4,65d6bb0e977760de756971f7,65d6bc0e058bccc373aa7921,0.1157,0.1159,0,49,49,0,1,onetwo,,,,,,,,,,,,,,,,,,,,,,,,,,,,,,,,,,,,,,,,,,,,,,,,,,,,,,,,,,,,,,,,,,,,,,,,,,,,,,,,,,,,,,,,,,,,,,,,,,,,,,,,,,,,,,,,,,,,,,,,,,,,,,,,,,,,,,,,,
,,613b7bdaa7318ef4e18e41f4,2024-02-21_20h15.41.758,kallum_motion_pilot,2023.2.2,Win32,59.88023952,613b7bdaa7318ef4e18e41f4,65d6bb0e977760de756971f7,65d6bc0e058bccc373aa7921,0.1162,0.1164,0,50,50,36,1,threeone,,,,,,,,,,,,,,,,,,,,,,,,,,,,,,,,,,,,,,,,,,,,,,,,,,,,,,,,,,,,,,,,,,,,,,,,,,,,,,,,,,,,,,,,,,,,,,,,,,,,,,,,,,,,,,,,,,,,,,,,,,,,,,,,,,,,,,,,,
,,613b7bdaa7318ef4e18e41f4,2024-02-21_20h15.41.758,kallum_motion_pilot,2023.2.2,Win32,59.88023952,613b7bdaa7318ef4e18e41f4,65d6bb0e977760de756971f7,65d6bc0e058bccc373aa7921,0.1166,0.1168,0,51,51,35,1,twofour,,,,,,,,,,,,,,,,,,,,,,,,,,,,,,,,,,,,,,,,,,,,,,,,,,,,,,,,,,,,,,,,,,,,,,,,,,,,,,,,,,,,,,,,,,,,,,,,,,,,,,,,,,,,,,,,,,,,,,,,,,,,,,,,,,,,,,,,,
,,613b7bdaa7318ef4e18e41f4,2024-02-21_20h15.41.758,kallum_motion_pilot,2023.2.2,Win32,59.88023952,613b7bdaa7318ef4e18e41f4,65d6bb0e977760de756971f7,65d6bc0e058bccc373aa7921,0.117,0.1172,0,52,52,118,1,eightsix,,,,,,,,,,,,,,,,,,,,,,,,,,,,,,,,,,,,,,,,,,,,,,,,,,,,,,,,,,,,,,,,,,,,,,,,,,,,,,,,,,,,,,,,,,,,,,,,,,,,,,,,,,,,,,,,,,,,,,,,,,,,,,,,,,,,,,,,,
,,613b7bdaa7318ef4e18e41f4,2024-02-21_20h15.41.758,kallum_motion_pilot,2023.2.2,Win32,59.88023952,613b7bdaa7318ef4e18e41f4,65d6bb0e977760de756971f7,65d6bc0e058bccc373aa7921,0.1175,0.1177,0,53,53,123,1,sixeight,,,,,,,,,,,,,,,,,,,,,,,,,,,,,,,,,,,,,,,,,,,,,,,,,,,,,,,,,,,,,,,,,,,,,,,,,,,,,,,,,,,,,,,,,,,,,,,,,,,,,,,,,,,,,,,,,,,,,,,,,,,,,,,,,,,,,,,,,
,,613b7bdaa7318ef4e18e41f4,2024-02-21_20h15.41.758,kallum_motion_pilot,2023.2.2,Win32,59.88023952,613b7bdaa7318ef4e18e41f4,65d6bb0e977760de756971f7,65d6bc0e058bccc373aa7921,0.1195,0.1198,0,54,54,79,1,eightseven,,,,,,,,,,,,,,,,,,,,,,,,,,,,,,,,,,,,,,,,,,,,,,,,,,,,,,,,,,,,,,,,,,,,,,,,,,,,,,,,,,,,,,,,,,,,,,,,,,,,,,,,,,,,,,,,,,,,,,,,,,,,,,,,,,,,,,,,,
,,613b7bdaa7318ef4e18e41f4,2024-02-21_20h15.41.758,kallum_motion_pilot,2023.2.2,Win32,59.88023952,613b7bdaa7318ef4e18e41f4,65d6bb0e977760de756971f7,65d6bc0e058bccc373aa7921,0.1201,0.1209,0,55,55,142,1,eightsix,,,,,,,,,,,,,,,,,,,,,,,,,,,,,,,,,,,,,,,,,,,,,,,,,,,,,,,,,,,,,,,,,,,,,,,,,,,,,,,,,,,,,,,,,,,,,,,,,,,,,,,,,,,,,,,,,,,,,,,,,,,,,,,,,,,,,,,,,
,,613b7bdaa7318ef4e18e41f4,2024-02-21_20h15.41.758,kallum_motion_pilot,2023.2.2,Win32,59.88023952,613b7bdaa7318ef4e18e41f4,65d6bb0e977760de756971f7,65d6bc0e058bccc373aa7921,0.1212,0.1214,0,56,56,34,1,twoone,,,,,,,,,,,,,,,,,,,,,,,,,,,,,,,,,,,,,,,,,,,,,,,,,,,,,,,,,,,,,,,,,,,,,,,,,,,,,,,,,,,,,,,,,,,,,,,,,,,,,,,,,,,,,,,,,,,,,,,,,,,,,,,,,,,,,,,,,
,,613b7bdaa7318ef4e18e41f4,2024-02-21_20h15.41.758,kallum_motion_pilot,2023.2.2,Win32,59.88023952,613b7bdaa7318ef4e18e41f4,65d6bb0e977760de756971f7,65d6bc0e058bccc373aa7921,0.1216,0.1218,0,57,57,101,1,seveneight,,,,,,,,,,,,,,,,,,,,,,,,,,,,,,,,,,,,,,,,,,,,,,,,,,,,,,,,,,,,,,,,,,,,,,,,,,,,,,,,,,,,,,,,,,,,,,,,,,,,,,,,,,,,,,,,,,,,,,,,,,,,,,,,,,,,,,,,,
,,613b7bdaa7318ef4e18e41f4,2024-02-21_20h15.41.758,kallum_motion_pilot,2023.2.2,Win32,59.88023952,613b7bdaa7318ef4e18e41f4,65d6bb0e977760de756971f7,65d6bc0e058bccc373aa7921,0.122,0.1222,0,58,58,25,1,onethree,,,,,,,,,,,,,,,,,,,,,,,,,,,,,,,,,,,,,,,,,,,,,,,,,,,,,,,,,,,,,,,,,,,,,,,,,,,,,,,,,,,,,,,,,,,,,,,,,,,,,,,,,,,,,,,,,,,,,,,,,,,,,,,,,,,,,,,,,
,,613b7bdaa7318ef4e18e41f4,2024-02-21_20h15.41.758,kallum_motion_pilot,2023.2.2,Win32,59.88023952,613b7bdaa7318ef4e18e41f4,65d6bb0e977760de756971f7,65d6bc0e058bccc373aa7921,0.1223,0.1226,0,59,59,90,1,sixfive,,,,,,,,,,,,,,,,,,,,,,,,,,,,,,,,,,,,,,,,,,,,,,,,,,,,,,,,,,,,,,,,,,,,,,,,,,,,,,,,,,,,,,,,,,,,,,,,,,,,,,,,,,,,,,,,,,,,,,,,,,,,,,,,,,,,,,,,,
,,613b7bdaa7318ef4e18e41f4,2024-02-21_20h15.41.758,kallum_motion_pilot,2023.2.2,Win32,59.88023952,613b7bdaa7318ef4e18e41f4,65d6bb0e977760de756971f7,65d6bc0e058bccc373aa7921,0.1227,0.1229,0,60,60,76,1,threeone,,,,,,,,,,,,,,,,,,,,,,,,,,,,,,,,,,,,,,,,,,,,,,,,,,,,,,,,,,,,,,,,,,,,,,,,,,,,,,,,,,,,,,,,,,,,,,,,,,,,,,,,,,,,,,,,,,,,,,,,,,,,,,,,,,,,,,,,,
,,613b7bdaa7318ef4e18e41f4,2024-02-21_20h15.41.758,kallum_motion_pilot,2023.2.2,Win32,59.88023952,613b7bdaa7318ef4e18e41f4,65d6bb0e977760de756971f7,65d6bc0e058bccc373aa7921,0.1231,0.1233,0,61,61,80,1,fivesix,,,,,,,,,,,,,,,,,,,,,,,,,,,,,,,,,,,,,,,,,,,,,,,,,,,,,,,,,,,,,,,,,,,,,,,,,,,,,,,,,,,,,,,,,,,,,,,,,,,,,,,,,,,,,,,,,,,,,,,,,,,,,,,,,,,,,,,,,
,,613b7bdaa7318ef4e18e41f4,2024-02-21_20h15.41.758,kallum_motion_pilot,2023.2.2,Win32,59.88023952,613b7bdaa7318ef4e18e41f4,65d6bb0e977760de756971f7,65d6bc0e058bccc373aa7921,0.1248,0.1252,0,62,62,149,1,seveneight,,,,,,,,,,,,,,,,,,,,,,,,,,,,,,,,,,,,,,,,,,,,,,,,,,,,,,,,,,,,,,,,,,,,,,,,,,,,,,,,,,,,,,,,,,,,,,,,,,,,,,,,,,,,,,,,,,,,,,,,,,,,,,,,,,,,,,,,,
,,613b7bdaa7318ef4e18e41f4,2024-02-21_20h15.41.758,kallum_motion_pilot,2023.2.2,Win32,59.88023952,613b7bdaa7318ef4e18e41f4,65d6bb0e977760de756971f7,65d6bc0e058bccc373aa7921,0.1258,0.1261,0,63,63,129,1,fiveseven,,,,,,,,,,,,,,,,,,,,,,,,,,,,,,,,,,,,,,,,,,,,,,,,,,,,,,,,,,,,,,,,,,,,,,,,,,,,,,,,,,,,,,,,,,,,,,,,,,,,,,,,,,,,,,,,,,,,,,,,,,,,,,,,,,,,,,,,,
,,613b7bdaa7318ef4e18e41f4,2024-02-21_20h15.41.758,kallum_motion_pilot,2023.2.2,Win32,59.88023952,613b7bdaa7318ef4e18e41f4,65d6bb0e977760de756971f7,65d6bc0e058bccc373aa7921,0.1264,0.1266,0,64,64,151,1,eightseven,,,,,,,,,,,,,,,,,,,,,,,,,,,,,,,,,,,,,,,,,,,,,,,,,,,,,,,,,,,,,,,,,,,,,,,,,,,,,,,,,,,,,,,,,,,,,,,,,,,,,,,,,,,,,,,,,,,,,,,,,,,,,,,,,,,,,,,,,
,,613b7bdaa7318ef4e18e41f4,2024-02-21_20h15.41.758,kallum_motion_pilot,2023.2.2,Win32,59.88023952,613b7bdaa7318ef4e18e41f4,65d6bb0e977760de756971f7,65d6bc0e058bccc373aa7921,0.127,0.1271,0,65,65,98,1,sixfive,,,,,,,,,,,,,,,,,,,,,,,,,,,,,,,,,,,,,,,,,,,,,,,,,,,,,,,,,,,,,,,,,,,,,,,,,,,,,,,,,,,,,,,,,,,,,,,,,,,,,,,,,,,,,,,,,,,,,,,,,,,,,,,,,,,,,,,,,
,,613b7bdaa7318ef4e18e41f4,2024-02-21_20h15.41.758,kallum_motion_pilot,2023.2.2,Win32,59.88023952,613b7bdaa7318ef4e18e41f4,65d6bb0e977760de756971f7,65d6bc0e058bccc373aa7921,0.1274,0.1277,0,66,66,1,1,onethree,,,,,,,,,,,,,,,,,,,,,,,,,,,,,,,,,,,,,,,,,,,,,,,,,,,,,,,,,,,,,,,,,,,,,,,,,,,,,,,,,,,,,,,,,,,,,,,,,,,,,,,,,,,,,,,,,,,,,,,,,,,,,,,,,,,,,,,,,
,,613b7bdaa7318ef4e18e41f4,2024-02-21_20h15.41.758,kallum_motion_pilot,2023.2.2,Win32,59.88023952,613b7bdaa7318ef4e18e41f4,65d6bb0e977760de756971f7,65d6bc0e058bccc373aa7921,0.1281,0.1282,0,67,67,64,1,onetwo,,,,,,,,,,,,,,,,,,,,,,,,,,,,,,,,,,,,,,,,,,,,,,,,,,,,,,,,,,,,,,,,,,,,,,,,,,,,,,,,,,,,,,,,,,,,,,,,,,,,,,,,,,,,,,,,,,,,,,,,,,,,,,,,,,,,,,,,,
,,613b7bdaa7318ef4e18e41f4,2024-02-21_20h15.41.758,kallum_motion_pilot,2023.2.2,Win32,59.88023952,613b7bdaa7318ef4e18e41f4,65d6bb0e977760de756971f7,65d6bc0e058bccc373aa7921,0.1286,0.1287,0,68,68,65,1,onethree,,,,,,,,,,,,,,,,,,,,,,,,,,,,,,,,,,,,,,,,,,,,,,,,,,,,,,,,,,,,,,,,,,,,,,,,,,,,,,,,,,,,,,,,,,,,,,,,,,,,,,,,,,,,,,,,,,,,,,,,,,,,,,,,,,,,,,,,,
,,613b7bdaa7318ef4e18e41f4,2024-02-21_20h15.41.758,kallum_motion_pilot,2023.2.2,Win32,59.88023952,613b7bdaa7318ef4e18e41f4,65d6bb0e977760de756971f7,65d6bc0e058bccc373aa7921,0.1289,0.1291,0,69,69,33,1,onethree,,,,,,,,,,,,,,,,,,,,,,,,,,,,,,,,,,,,,,,,,,,,,,,,,,,,,,,,,,,,,,,,,,,,,,,,,,,,,,,,,,,,,,,,,,,,,,,,,,,,,,,,,,,,,,,,,,,,,,,,,,,,,,,,,,,,,,,,,
,,613b7bdaa7318ef4e18e41f4,2024-02-21_20h15.41.758,kallum_motion_pilot,2023.2.2,Win32,59.88023952,613b7bdaa7318ef4e18e41f4,65d6bb0e977760de756971f7,65d6bc0e058bccc373aa7921,0.1293,0.1295,0,70,70,28,1,threeone,,,,,,,,,,,,,,,,,,,,,,,,,,,,,,,,,,,,,,,,,,,,,,,,,,,,,,,,,,,,,,,,,,,,,,,,,,,,,,,,,,,,,,,,,,,,,,,,,,,,,,,,,,,,,,,,,,,,,,,,,,,,,,,,,,,,,,,,,
,,613b7bdaa7318ef4e18e41f4,2024-02-21_20h15.41.758,kallum_motion_pilot,2023.2.2,Win32,59.88023952,613b7bdaa7318ef4e18e41f4,65d6bb0e977760de756971f7,65d6bc0e058bccc373aa7921,0.1297,0.1298,0,71,71,10,1,twoone,,,,,,,,,,,,,,,,,,,,,,,,,,,,,,,,,,,,,,,,,,,,,,,,,,,,,,,,,,,,,,,,,,,,,,,,,,,,,,,,,,,,,,,,,,,,,,,,,,,,,,,,,,,,,,,,,,,,,,,,,,,,,,,,,,,,,,,,,
,,613b7bdaa7318ef4e18e41f4,2024-02-21_20h15.41.758,kallum_motion_pilot,2023.2.2,Win32,59.88023952,613b7bdaa7318ef4e18e41f4,65d6bb0e977760de756971f7,65d6bc0e058bccc373aa7921,0.1301,0.1301,0,72,72,147,1,sixeight,,,,,,,,,,,,,,,,,,,,,,,,,,,,,,,,,,,,,,,,,,,,,,,,,,,,,,,,,,,,,,,,,,,,,,,,,,,,,,,,,,,,,,,,,,,,,,,,,,,,,,,,,,,,,,,,,,,,,,,,,,,,,,,,,,,,,,,,,
,,613b7bdaa7318ef4e18e41f4,2024-02-21_20h15.41.758,kallum_motion_pilot,2023.2.2,Win32,59.88023952,613b7bdaa7318ef4e18e41f4,65d6bb0e977760de756971f7,65d6bc0e058bccc373aa7921,0.1303,0.1305,0,73,73,62,1,fourtwo,,,,,,,,,,,,,,,,,,,,,,,,,,,,,,,,,,,,,,,,,,,,,,,,,,,,,,,,,,,,,,,,,,,,,,,,,,,,,,,,,,,,,,,,,,,,,,,,,,,,,,,,,,,,,,,,,,,,,,,,,,,,,,,,,,,,,,,,,
,,613b7bdaa7318ef4e18e41f4,2024-02-21_20h15.41.758,kallum_motion_pilot,2023.2.2,Win32,59.88023952,613b7bdaa7318ef4e18e41f4,65d6bb0e977760de756971f7,65d6bc0e058bccc373aa7921,0.1307,0.1308,0,74,74,136,1,fivesix,,,,,,,,,,,,,,,,,,,,,,,,,,,,,,,,,,,,,,,,,,,,,,,,,,,,,,,,,,,,,,,,,,,,,,,,,,,,,,,,,,,,,,,,,,,,,,,,,,,,,,,,,,,,,,,,,,,,,,,,,,,,,,,,,,,,,,,,,
,,613b7bdaa7318ef4e18e41f4,2024-02-21_20h15.41.758,kallum_motion_pilot,2023.2.2,Win32,59.88023952,613b7bdaa7318ef4e18e41f4,65d6bb0e977760de756971f7,65d6bc0e058bccc373aa7921,0.131,0.1313,0,75,75,97,1,fiveseven,,,,,,,,,,,,,,,,,,,,,,,,,,,,,,,,,,,,,,,,,,,,,,,,,,,,,,,,,,,,,,,,,,,,,,,,,,,,,,,,,,,,,,,,,,,,,,,,,,,,,,,,,,,,,,,,,,,,,,,,,,,,,,,,,,,,,,,,,
,,613b7bdaa7318ef4e18e41f4,2024-02-21_20h15.41.758,kallum_motion_pilot,2023.2.2,Win32,59.88023952,613b7bdaa7318ef4e18e41f4,65d6bb0e977760de756971f7,65d6bc0e058bccc373aa7921,0.1314,0.1316,0,76,76,41,1,onethree,,,,,,,,,,,,,,,,,,,,,,,,,,,,,,,,,,,,,,,,,,,,,,,,,,,,,,,,,,,,,,,,,,,,,,,,,,,,,,,,,,,,,,,,,,,,,,,,,,,,,,,,,,,,,,,,,,,,,,,,,,,,,,,,,,,,,,,,,
,,613b7bdaa7318ef4e18e41f4,2024-02-21_20h15.41.758,kallum_motion_pilot,2023.2.2,Win32,59.88023952,613b7bdaa7318ef4e18e41f4,65d6bb0e977760de756971f7,65d6bc0e058bccc373aa7921,0.1318,0.1319,0,77,77,82,1,sixfive,,,,,,,,,,,,,,,,,,,,,,,,,,,,,,,,,,,,,,,,,,,,,,,,,,,,,,,,,,,,,,,,,,,,,,,,,,,,,,,,,,,,,,,,,,,,,,,,,,,,,,,,,,,,,,,,,,,,,,,,,,,,,,,,,,,,,,,,,
,,613b7bdaa7318ef4e18e41f4,2024-02-21_20h15.41.758,kallum_motion_pilot,2023.2.2,Win32,59.88023952,613b7bdaa7318ef4e18e41f4,65d6bb0e977760de756971f7,65d6bc0e058bccc373aa7921,0.1323,0.1324,0,78,78,95,1,eightseven,,,,,,,,,,,,,,,,,,,,,,,,,,,,,,,,,,,,,,,,,,,,,,,,,,,,,,,,,,,,,,,,,,,,,,,,,,,,,,,,,,,,,,,,,,,,,,,,,,,,,,,,,,,,,,,,,,,,,,,,,,,,,,,,,,,,,,,,,
,,613b7bdaa7318ef4e18e41f4,2024-02-21_20h15.41.758,kallum_motion_pilot,2023.2.2,Win32,59.88023952,613b7bdaa7318ef4e18e41f4,65d6bb0e977760de756971f7,65d6bc0e058bccc373aa7921,0.1326,0.1328,0,79,79,37,1,threefour,,,,,,,,,,,,,,,,,,,,,,,,,,,,,,,,,,,,,,,,,,,,,,,,,,,,,,,,,,,,,,,,,,,,,,,,,,,,,,,,,,,,,,,,,,,,,,,,,,,,,,,,,,,,,,,,,,,,,,,,,,,,,,,,,,,,,,,,,
,,613b7bdaa7318ef4e18e41f4,2024-02-21_20h15.41.758,kallum_motion_pilot,2023.2.2,Win32,59.88023952,613b7bdaa7318ef4e18e41f4,65d6bb0e977760de756971f7,65d6bc0e058bccc373aa7921,0.133,0.1331,0,80,80,52,1,threeone,,,,,,,,,,,,,,,,,,,,,,,,,,,,,,,,,,,,,,,,,,,,,,,,,,,,,,,,,,,,,,,,,,,,,,,,,,,,,,,,,,,,,,,,,,,,,,,,,,,,,,,,,,,,,,,,,,,,,,,,,,,,,,,,,,,,,,,,,
,,613b7bdaa7318ef4e18e41f4,2024-02-21_20h15.41.758,kallum_motion_pilot,2023.2.2,Win32,59.88023952,613b7bdaa7318ef4e18e41f4,65d6bb0e977760de756971f7,65d6bc0e058bccc373aa7921,0.1333,0.1334,0,81,81,27,1,twofour,,,,,,,,,,,,,,,,,,,,,,,,,,,,,,,,,,,,,,,,,,,,,,,,,,,,,,,,,,,,,,,,,,,,,,,,,,,,,,,,,,,,,,,,,,,,,,,,,,,,,,,,,,,,,,,,,,,,,,,,,,,,,,,,,,,,,,,,,
,,613b7bdaa7318ef4e18e41f4,2024-02-21_20h15.41.758,kallum_motion_pilot,2023.2.2,Win32,59.88023952,613b7bdaa7318ef4e18e41f4,65d6bb0e977760de756971f7,65d6bc0e058bccc373aa7921,0.1337,0.1338,0,82,82,114,1,sixfive,,,,,,,,,,,,,,,,,,,,,,,,,,,,,,,,,,,,,,,,,,,,,,,,,,,,,,,,,,,,,,,,,,,,,,,,,,,,,,,,,,,,,,,,,,,,,,,,,,,,,,,,,,,,,,,,,,,,,,,,,,,,,,,,,,,,,,,,,
,,613b7bdaa7318ef4e18e41f4,2024-02-21_20h15.41.758,kallum_motion_pilot,2023.2.2,Win32,59.88023952,613b7bdaa7318ef4e18e41f4,65d6bb0e977760de756971f7,65d6bc0e058bccc373aa7921,0.134,0.1341,0,83,83,92,1,sevenfive,,,,,,,,,,,,,,,,,,,,,,,,,,,,,,,,,,,,,,,,,,,,,,,,,,,,,,,,,,,,,,,,,,,,,,,,,,,,,,,,,,,,,,,,,,,,,,,,,,,,,,,,,,,,,,,,,,,,,,,,,,,,,,,,,,,,,,,,,
,,613b7bdaa7318ef4e18e41f4,2024-02-21_20h15.41.758,kallum_motion_pilot,2023.2.2,Win32,59.88023952,613b7bdaa7318ef4e18e41f4,65d6bb0e977760de756971f7,65d6bc0e058bccc373aa7921,0.1343,0.1344,0,84,84,121,1,fiveseven,,,,,,,,,,,,,,,,,,,,,,,,,,,,,,,,,,,,,,,,,,,,,,,,,,,,,,,,,,,,,,,,,,,,,,,,,,,,,,,,,,,,,,,,,,,,,,,,,,,,,,,,,,,,,,,,,,,,,,,,,,,,,,,,,,,,,,,,,
,,613b7bdaa7318ef4e18e41f4,2024-02-21_20h15.41.758,kallum_motion_pilot,2023.2.2,Win32,59.88023952,613b7bdaa7318ef4e18e41f4,65d6bb0e977760de756971f7,65d6bc0e058bccc373aa7921,0.1347,0.1348,0,85,85,74,1,twoone,,,,,,,,,,,,,,,,,,,,,,,,,,,,,,,,,,,,,,,,,,,,,,,,,,,,,,,,,,,,,,,,,,,,,,,,,,,,,,,,,,,,,,,,,,,,,,,,,,,,,,,,,,,,,,,,,,,,,,,,,,,,,,,,,,,,,,,,,
,,613b7bdaa7318ef4e18e41f4,2024-02-21_20h15.41.758,kallum_motion_pilot,2023.2.2,Win32,59.88023952,613b7bdaa7318ef4e18e41f4,65d6bb0e977760de756971f7,65d6bc0e058bccc373aa7921,0.135,0.1351,0,86,86,110,1,eightsix,,,,,,,,,,,,,,,,,,,,,,,,,,,,,,,,,,,,,,,,,,,,,,,,,,,,,,,,,,,,,,,,,,,,,,,,,,,,,,,,,,,,,,,,,,,,,,,,,,,,,,,,,,,,,,,,,,,,,,,,,,,,,,,,,,,,,,,,,
,,613b7bdaa7318ef4e18e41f4,2024-02-21_20h15.41.758,kallum_motion_pilot,2023.2.2,Win32,59.88023952,613b7bdaa7318ef4e18e41f4,65d6bb0e977760de756971f7,65d6bc0e058bccc373aa7921,0.1354,0.1355,0,87,87,6,1,fourtwo,,,,,,,,,,,,,,,,,,,,,,,,,,,,,,,,,,,,,,,,,,,,,,,,,,,,,,,,,,,,,,,,,,,,,,,,,,,,,,,,,,,,,,,,,,,,,,,,,,,,,,,,,,,,,,,,,,,,,,,,,,,,,,,,,,,,,,,,,
,,613b7bdaa7318ef4e18e41f4,2024-02-21_20h15.41.758,kallum_motion_pilot,2023.2.2,Win32,59.88023952,613b7bdaa7318ef4e18e41f4,65d6bb0e977760de756971f7,65d6bc0e058bccc373aa7921,0.1357,0.1358,0,88,88,71,1,fourthree,,,,,,,,,,,,,,,,,,,,,,,,,,,,,,,,,,,,,,,,,,,,,,,,,,,,,,,,,,,,,,,,,,,,,,,,,,,,,,,,,,,,,,,,,,,,,,,,,,,,,,,,,,,,,,,,,,,,,,,,,,,,,,,,,,,,,,,,,
,,613b7bdaa7318ef4e18e41f4,2024-02-21_20h15.41.758,kallum_motion_pilot,2023.2.2,Win32,59.88023952,613b7bdaa7318ef4e18e41f4,65d6bb0e977760de756971f7,65d6bc0e058bccc373aa7921,0.136,0.1362,0,89,89,9,1,onethree,,,,,,,,,,,,,,,,,,,,,,,,,,,,,,,,,,,,,,,,,,,,,,,,,,,,,,,,,,,,,,,,,,,,,,,,,,,,,,,,,,,,,,,,,,,,,,,,,,,,,,,,,,,,,,,,,,,,,,,,,,,,,,,,,,,,,,,,,
,,613b7bdaa7318ef4e18e41f4,2024-02-21_20h15.41.758,kallum_motion_pilot,2023.2.2,Win32,59.88023952,613b7bdaa7318ef4e18e41f4,65d6bb0e977760de756971f7,65d6bc0e058bccc373aa7921,0.1364,0.1366,0,90,90,13,1,threefour,,,,,,,,,,,,,,,,,,,,,,,,,,,,,,,,,,,,,,,,,,,,,,,,,,,,,,,,,,,,,,,,,,,,,,,,,,,,,,,,,,,,,,,,,,,,,,,,,,,,,,,,,,,,,,,,,,,,,,,,,,,,,,,,,,,,,,,,,
,,613b7bdaa7318ef4e18e41f4,2024-02-21_20h15.41.758,kallum_motion_pilot,2023.2.2,Win32,59.88023952,613b7bdaa7318ef4e18e41f4,65d6bb0e977760de756971f7,65d6bc0e058bccc373aa7921,0.1368,0.1369,0,91,91,138,1,sixfive,,,,,,,,,,,,,,,,,,,,,,,,,,,,,,,,,,,,,,,,,,,,,,,,,,,,,,,,,,,,,,,,,,,,,,,,,,,,,,,,,,,,,,,,,,,,,,,,,,,,,,,,,,,,,,,,,,,,,,,,,,,,,,,,,,,,,,,,,
,,613b7bdaa7318ef4e18e41f4,2024-02-21_20h15.41.758,kallum_motion_pilot,2023.2.2,Win32,59.88023952,613b7bdaa7318ef4e18e41f4,65d6bb0e977760de756971f7,65d6bc0e058bccc373aa7921,0.1371,0.1372,0,92,92,144,1,fivesix,,,,,,,,,,,,,,,,,,,,,,,,,,,,,,,,,,,,,,,,,,,,,,,,,,,,,,,,,,,,,,,,,,,,,,,,,,,,,,,,,,,,,,,,,,,,,,,,,,,,,,,,,,,,,,,,,,,,,,,,,,,,,,,,,,,,,,,,,
,,613b7bdaa7318ef4e18e41f4,2024-02-21_20h15.41.758,kallum_motion_pilot,2023.2.2,Win32,59.88023952,613b7bdaa7318ef4e18e41f4,65d6bb0e977760de756971f7,65d6bc0e058bccc373aa7921,0.1374,0.1376,0,93,93,72,1,onetwo,,,,,,,,,,,,,,,,,,,,,,,,,,,,,,,,,,,,,,,,,,,,,,,,,,,,,,,,,,,,,,,,,,,,,,,,,,,,,,,,,,,,,,,,,,,,,,,,,,,,,,,,,,,,,,,,,,,,,,,,,,,,,,,,,,,,,,,,,
,,613b7bdaa7318ef4e18e41f4,2024-02-21_20h15.41.758,kallum_motion_pilot,2023.2.2,Win32,59.88023952,613b7bdaa7318ef4e18e41f4,65d6bb0e977760de756971f7,65d6bc0e058bccc373aa7921,0.1378,0.138,0,94,94,131,1,sixeight,,,,,,,,,,,,,,,,,,,,,,,,,,,,,,,,,,,,,,,,,,,,,,,,,,,,,,,,,,,,,,,,,,,,,,,,,,,,,,,,,,,,,,,,,,,,,,,,,,,,,,,,,,,,,,,,,,,,,,,,,,,,,,,,,,,,,,,,,
,,613b7bdaa7318ef4e18e41f4,2024-02-21_20h15.41.758,kallum_motion_pilot,2023.2.2,Win32,59.88023952,613b7bdaa7318ef4e18e41f4,65d6bb0e977760de756971f7,65d6bc0e058bccc373aa7921,0.1381,0.1383,0,95,95,157,1,seveneight,,,,,,,,,,,,,,,,,,,,,,,,,,,,,,,,,,,,,,,,,,,,,,,,,,,,,,,,,,,,,,,,,,,,,,,,,,,,,,,,,,,,,,,,,,,,,,,,,,,,,,,,,,,,,,,,,,,,,,,,,,,,,,,,,,,,,,,,,
,,613b7bdaa7318ef4e18e41f4,2024-02-21_20h15.41.758,kallum_motion_pilot,2023.2.2,Win32,59.88023952,613b7bdaa7318ef4e18e41f4,65d6bb0e977760de756971f7,65d6bc0e058bccc373aa7921,0.1386,0.1387,0,96,96,93,1,seveneight,,,,,,,,,,,,,,,,,,,,,,,,,,,,,,,,,,,,,,,,,,,,,,,,,,,,,,,,,,,,,,,,,,,,,,,,,,,,,,,,,,,,,,,,,,,,,,,,,,,,,,,,,,,,,,,,,,,,,,,,,,,,,,,,,,,,,,,,,
,,613b7bdaa7318ef4e18e41f4,2024-02-21_20h15.41.758,kallum_motion_pilot,2023.2.2,Win32,59.88023952,613b7bdaa7318ef4e18e41f4,65d6bb0e977760de756971f7,65d6bc0e058bccc373aa7921,0.1388,0.139,0,97,97,19,1,twofour,,,,,,,,,,,,,,,,,,,,,,,,,,,,,,,,,,,,,,,,,,,,,,,,,,,,,,,,,,,,,,,,,,,,,,,,,,,,,,,,,,,,,,,,,,,,,,,,,,,,,,,,,,,,,,,,,,,,,,,,,,,,,,,,,,,,,,,,,
,,613b7bdaa7318ef4e18e41f4,2024-02-21_20h15.41.758,kallum_motion_pilot,2023.2.2,Win32,59.88023952,613b7bdaa7318ef4e18e41f4,65d6bb0e977760de756971f7,65d6bc0e058bccc373aa7921,0.1392,0.1394,0,98,98,102,1,eightsix,,,,,,,,,,,,,,,,,,,,,,,,,,,,,,,,,,,,,,,,,,,,,,,,,,,,,,,,,,,,,,,,,,,,,,,,,,,,,,,,,,,,,,,,,,,,,,,,,,,,,,,,,,,,,,,,,,,,,,,,,,,,,,,,,,,,,,,,,
,,613b7bdaa7318ef4e18e41f4,2024-02-21_20h15.41.758,kallum_motion_pilot,2023.2.2,Win32,59.88023952,613b7bdaa7318ef4e18e41f4,65d6bb0e977760de756971f7,65d6bc0e058bccc373aa7921,0.1396,0.1398,0,99,99,7,1,fourthree,,,,,,,,,,,,,,,,,,,,,,,,,,,,,,,,,,,,,,,,,,,,,,,,,,,,,,,,,,,,,,,,,,,,,,,,,,,,,,,,,,,,,,,,,,,,,,,,,,,,,,,,,,,,,,,,,,,,,,,,,,,,,,,,,,,,,,,,,
,,613b7bdaa7318ef4e18e41f4,2024-02-21_20h15.41.758,kallum_motion_pilot,2023.2.2,Win32,59.88023952,613b7bdaa7318ef4e18e41f4,65d6bb0e977760de756971f7,65d6bc0e058bccc373aa7921,0.14,0.1402,0,100,100,134,1,eightsix,,,,,,,,,,,,,,,,,,,,,,,,,,,,,,,,,,,,,,,,,,,,,,,,,,,,,,,,,,,,,,,,,,,,,,,,,,,,,,,,,,,,,,,,,,,,,,,,,,,,,,,,,,,,,,,,,,,,,,,,,,,,,,,,,,,,,,,,,
,,613b7bdaa7318ef4e18e41f4,2024-02-21_20h15.41.758,kallum_motion_pilot,2023.2.2,Win32,59.88023952,613b7bdaa7318ef4e18e41f4,65d6bb0e977760de756971f7,65d6bc0e058bccc373aa7921,0.141,0.1411,0,101,101,44,1,threeone,,,,,,,,,,,,,,,,,,,,,,,,,,,,,,,,,,,,,,,,,,,,,,,,,,,,,,,,,,,,,,,,,,,,,,,,,,,,,,,,,,,,,,,,,,,,,,,,,,,,,,,,,,,,,,,,,,,,,,,,,,,,,,,,,,,,,,,,,
,,613b7bdaa7318ef4e18e41f4,2024-02-21_20h15.41.758,kallum_motion_pilot,2023.2.2,Win32,59.88023952,613b7bdaa7318ef4e18e41f4,65d6bb0e977760de756971f7,65d6bc0e058bccc373aa7921,0.1414,0.1415,0,102,102,53,1,threefour,,,,,,,,,,,,,,,,,,,,,,,,,,,,,,,,,,,,,,,,,,,,,,,,,,,,,,,,,,,,,,,,,,,,,,,,,,,,,,,,,,,,,,,,,,,,,,,,,,,,,,,,,,,,,,,,,,,,,,,,,,,,,,,,,,,,,,,,,
,,613b7bdaa7318ef4e18e41f4,2024-02-21_20h15.41.758,kallum_motion_pilot,2023.2.2,Win32,59.88023952,613b7bdaa7318ef4e18e41f4,65d6bb0e977760de756971f7,65d6bc0e058bccc373aa7921,0.1417,0.1419,0,103,103,75,1,twofour,,,,,,,,,,,,,,,,,,,,,,,,,,,,,,,,,,,,,,,,,,,,,,,,,,,,,,,,,,,,,,,,,,,,,,,,,,,,,,,,,,,,,,,,,,,,,,,,,,,,,,,,,,,,,,,,,,,,,,,,,,,,,,,,,,,,,,,,,
,,613b7bdaa7318ef4e18e41f4,2024-02-21_20h15.41.758,kallum_motion_pilot,2023.2.2,Win32,59.88023952,613b7bdaa7318ef4e18e41f4,65d6bb0e977760de756971f7,65d6bc0e058bccc373aa7921,0.1421,0.1422,0,104,104,66,1,twoone,,,,,,,,,,,,,,,,,,,,,,,,,,,,,,,,,,,,,,,,,,,,,,,,,,,,,,,,,,,,,,,,,,,,,,,,,,,,,,,,,,,,,,,,,,,,,,,,,,,,,,,,,,,,,,,,,,,,,,,,,,,,,,,,,,,,,,,,,
,,613b7bdaa7318ef4e18e41f4,2024-02-21_20h15.41.758,kallum_motion_pilot,2023.2.2,Win32,59.88023952,613b7bdaa7318ef4e18e41f4,65d6bb0e977760de756971f7,65d6bc0e058bccc373aa7921,0.1424,0.1426,0,105,105,124,1,sevenfive,,,,,,,,,,,,,,,,,,,,,,,,,,,,,,,,,,,,,,,,,,,,,,,,,,,,,,,,,,,,,,,,,,,,,,,,,,,,,,,,,,,,,,,,,,,,,,,,,,,,,,,,,,,,,,,,,,,,,,,,,,,,,,,,,,,,,,,,,
,,613b7bdaa7318ef4e18e41f4,2024-02-21_20h15.41.758,kallum_motion_pilot,2023.2.2,Win32,59.88023952,613b7bdaa7318ef4e18e41f4,65d6bb0e977760de756971f7,65d6bc0e058bccc373aa7921,0.1428,0.143,0,106,106,87,1,eightseven,,,,,,,,,,,,,,,,,,,,,,,,,,,,,,,,,,,,,,,,,,,,,,,,,,,,,,,,,,,,,,,,,,,,,,,,,,,,,,,,,,,,,,,,,,,,,,,,,,,,,,,,,,,,,,,,,,,,,,,,,,,,,,,,,,,,,,,,,
,,613b7bdaa7318ef4e18e41f4,2024-02-21_20h15.41.758,kallum_motion_pilot,2023.2.2,Win32,59.88023952,613b7bdaa7318ef4e18e41f4,65d6bb0e977760de756971f7,65d6bc0e058bccc373aa7921,0.1432,0.1433,0,107,107,83,1,sixeight,,,,,,,,,,,,,,,,,,,,,,,,,,,,,,,,,,,,,,,,,,,,,,,,,,,,,,,,,,,,,,,,,,,,,,,,,,,,,,,,,,,,,,,,,,,,,,,,,,,,,,,,,,,,,,,,,,,,,,,,,,,,,,,,,,,,,,,,,
,,613b7bdaa7318ef4e18e41f4,2024-02-21_20h15.41.758,kallum_motion_pilot,2023.2.2,Win32,59.88023952,613b7bdaa7318ef4e18e41f4,65d6bb0e977760de756971f7,65d6bc0e058bccc373aa7921,0.1435,0.1437,0,108,108,143,1,eightseven,,,,,,,,,,,,,,,,,,,,,,,,,,,,,,,,,,,,,,,,,,,,,,,,,,,,,,,,,,,,,,,,,,,,,,,,,,,,,,,,,,,,,,,,,,,,,,,,,,,,,,,,,,,,,,,,,,,,,,,,,,,,,,,,,,,,,,,,,
,,613b7bdaa7318ef4e18e41f4,2024-02-21_20h15.41.758,kallum_motion_pilot,2023.2.2,Win32,59.88023952,613b7bdaa7318ef4e18e41f4,65d6bb0e977760de756971f7,65d6bc0e058bccc373aa7921,0.1439,0.144,0,109,109,16,1,onetwo,,,,,,,,,,,,,,,,,,,,,,,,,,,,,,,,,,,,,,,,,,,,,,,,,,,,,,,,,,,,,,,,,,,,,,,,,,,,,,,,,,,,,,,,,,,,,,,,,,,,,,,,,,,,,,,,,,,,,,,,,,,,,,,,,,,,,,,,,
,,613b7bdaa7318ef4e18e41f4,2024-02-21_20h15.41.758,kallum_motion_pilot,2023.2.2,Win32,59.88023952,613b7bdaa7318ef4e18e41f4,65d6bb0e977760de756971f7,65d6bc0e058bccc373aa7921,0.1442,0.1444,0,110,110,61,1,threefour,,,,,,,,,,,,,,,,,,,,,,,,,,,,,,,,,,,,,,,,,,,,,,,,,,,,,,,,,,,,,,,,,,,,,,,,,,,,,,,,,,,,,,,,,,,,,,,,,,,,,,,,,,,,,,,,,,,,,,,,,,,,,,,,,,,,,,,,,
,,613b7bdaa7318ef4e18e41f4,2024-02-21_20h15.41.758,kallum_motion_pilot,2023.2.2,Win32,59.88023952,613b7bdaa7318ef4e18e41f4,65d6bb0e977760de756971f7,65d6bc0e058bccc373aa7921,0.1446,0.1447,0,111,111,89,1,fiveseven,,,,,,,,,,,,,,,,,,,,,,,,,,,,,,,,,,,,,,,,,,,,,,,,,,,,,,,,,,,,,,,,,,,,,,,,,,,,,,,,,,,,,,,,,,,,,,,,,,,,,,,,,,,,,,,,,,,,,,,,,,,,,,,,,,,,,,,,,
,,613b7bdaa7318ef4e18e41f4,2024-02-21_20h15.41.758,kallum_motion_pilot,2023.2.2,Win32,59.88023952,613b7bdaa7318ef4e18e41f4,65d6bb0e977760de756971f7,65d6bc0e058bccc373aa7921,0.1449,0.145,0,112,112,132,1,sevenfive,,,,,,,,,,,,,,,,,,,,,,,,,,,,,,,,,,,,,,,,,,,,,,,,,,,,,,,,,,,,,,,,,,,,,,,,,,,,,,,,,,,,,,,,,,,,,,,,,,,,,,,,,,,,,,,,,,,,,,,,,,,,,,,,,,,,,,,,,
,,613b7bdaa7318ef4e18e41f4,2024-02-21_20h15.41.758,kallum_motion_pilot,2023.2.2,Win32,59.88023952,613b7bdaa7318ef4e18e41f4,65d6bb0e977760de756971f7,65d6bc0e058bccc373aa7921,0.1453,0.1454,0,113,113,148,1,sevenfive,,,,,,,,,,,,,,,,,,,,,,,,,,,,,,,,,,,,,,,,,,,,,,,,,,,,,,,,,,,,,,,,,,,,,,,,,,,,,,,,,,,,,,,,,,,,,,,,,,,,,,,,,,,,,,,,,,,,,,,,,,,,,,,,,,,,,,,,,
,,613b7bdaa7318ef4e18e41f4,2024-02-21_20h15.41.758,kallum_motion_pilot,2023.2.2,Win32,59.88023952,613b7bdaa7318ef4e18e41f4,65d6bb0e977760de756971f7,65d6bc0e058bccc373aa7921,0.1457,0.1457,0,114,114,94,1,eightsix,,,,,,,,,,,,,,,,,,,,,,,,,,,,,,,,,,,,,,,,,,,,,,,,,,,,,,,,,,,,,,,,,,,,,,,,,,,,,,,,,,,,,,,,,,,,,,,,,,,,,,,,,,,,,,,,,,,,,,,,,,,,,,,,,,,,,,,,,
,,613b7bdaa7318ef4e18e41f4,2024-02-21_20h15.41.758,kallum_motion_pilot,2023.2.2,Win32,59.88023952,613b7bdaa7318ef4e18e41f4,65d6bb0e977760de756971f7,65d6bc0e058bccc373aa7921,0.146,0.1461,0,115,115,117,1,seveneight,,,,,,,,,,,,,,,,,,,,,,,,,,,,,,,,,,,,,,,,,,,,,,,,,,,,,,,,,,,,,,,,,,,,,,,,,,,,,,,,,,,,,,,,,,,,,,,,,,,,,,,,,,,,,,,,,,,,,,,,,,,,,,,,,,,,,,,,,
,,613b7bdaa7318ef4e18e41f4,2024-02-21_20h15.41.758,kallum_motion_pilot,2023.2.2,Win32,59.88023952,613b7bdaa7318ef4e18e41f4,65d6bb0e977760de756971f7,65d6bc0e058bccc373aa7921,0.1463,0.1464,0,116,116,106,1,sixfive,,,,,,,,,,,,,,,,,,,,,,,,,,,,,,,,,,,,,,,,,,,,,,,,,,,,,,,,,,,,,,,,,,,,,,,,,,,,,,,,,,,,,,,,,,,,,,,,,,,,,,,,,,,,,,,,,,,,,,,,,,,,,,,,,,,,,,,,,
,,613b7bdaa7318ef4e18e41f4,2024-02-21_20h15.41.758,kallum_motion_pilot,2023.2.2,Win32,59.88023952,613b7bdaa7318ef4e18e41f4,65d6bb0e977760de756971f7,65d6bc0e058bccc373aa7921,0.1466,0.1468,0,117,117,12,1,threeone,,,,,,,,,,,,,,,,,,,,,,,,,,,,,,,,,,,,,,,,,,,,,,,,,,,,,,,,,,,,,,,,,,,,,,,,,,,,,,,,,,,,,,,,,,,,,,,,,,,,,,,,,,,,,,,,,,,,,,,,,,,,,,,,,,,,,,,,,
,,613b7bdaa7318ef4e18e41f4,2024-02-21_20h15.41.758,kallum_motion_pilot,2023.2.2,Win32,59.88023952,613b7bdaa7318ef4e18e41f4,65d6bb0e977760de756971f7,65d6bc0e058bccc373aa7921,0.1471,0.1472,0,118,118,115,1,sixeight,,,,,,,,,,,,,,,,,,,,,,,,,,,,,,,,,,,,,,,,,,,,,,,,,,,,,,,,,,,,,,,,,,,,,,,,,,,,,,,,,,,,,,,,,,,,,,,,,,,,,,,,,,,,,,,,,,,,,,,,,,,,,,,,,,,,,,,,,
,,613b7bdaa7318ef4e18e41f4,2024-02-21_20h15.41.758,kallum_motion_pilot,2023.2.2,Win32,59.88023952,613b7bdaa7318ef4e18e41f4,65d6bb0e977760de756971f7,65d6bc0e058bccc373aa7921,0.1474,0.1475,0,119,119,31,1,fourthree,,,,,,,,,,,,,,,,,,,,,,,,,,,,,,,,,,,,,,,,,,,,,,,,,,,,,,,,,,,,,,,,,,,,,,,,,,,,,,,,,,,,,,,,,,,,,,,,,,,,,,,,,,,,,,,,,,,,,,,,,,,,,,,,,,,,,,,,,
,,613b7bdaa7318ef4e18e41f4,2024-02-21_20h15.41.758,kallum_motion_pilot,2023.2.2,Win32,59.88023952,613b7bdaa7318ef4e18e41f4,65d6bb0e977760de756971f7,65d6bc0e058bccc373aa7921,0.1478,0.148,0,120,120,40,1,onetwo,,,,,,,,,,,,,,,,,,,,,,,,,,,,,,,,,,,,,,,,,,,,,,,,,,,,,,,,,,,,,,,,,,,,,,,,,,,,,,,,,,,,,,,,,,,,,,,,,,,,,,,,,,,,,,,,,,,,,,,,,,,,,,,,,,,,,,,,,
,,613b7bdaa7318ef4e18e41f4,2024-02-21_20h15.41.758,kallum_motion_pilot,2023.2.2,Win32,59.88023952,613b7bdaa7318ef4e18e41f4,65d6bb0e977760de756971f7,65d6bc0e058bccc373aa7921,0.1481,0.1483,0,121,121,145,1,fiveseven,,,,,,,,,,,,,,,,,,,,,,,,,,,,,,,,,,,,,,,,,,,,,,,,,,,,,,,,,,,,,,,,,,,,,,,,,,,,,,,,,,,,,,,,,,,,,,,,,,,,,,,,,,,,,,,,,,,,,,,,,,,,,,,,,,,,,,,,,
,,613b7bdaa7318ef4e18e41f4,2024-02-21_20h15.41.758,kallum_motion_pilot,2023.2.2,Win32,59.88023952,613b7bdaa7318ef4e18e41f4,65d6bb0e977760de756971f7,65d6bc0e058bccc373aa7921,0.1485,0.1487,0,122,122,17,1,onethree,,,,,,,,,,,,,,,,,,,,,,,,,,,,,,,,,,,,,,,,,,,,,,,,,,,,,,,,,,,,,,,,,,,,,,,,,,,,,,,,,,,,,,,,,,,,,,,,,,,,,,,,,,,,,,,,,,,,,,,,,,,,,,,,,,,,,,,,,
,,613b7bdaa7318ef4e18e41f4,2024-02-21_20h15.41.758,kallum_motion_pilot,2023.2.2,Win32,59.88023952,613b7bdaa7318ef4e18e41f4,65d6bb0e977760de756971f7,65d6bc0e058bccc373aa7921,0.1488,0.149,0,123,123,146,1,sixfive,,,,,,,,,,,,,,,,,,,,,,,,,,,,,,,,,,,,,,,,,,,,,,,,,,,,,,,,,,,,,,,,,,,,,,,,,,,,,,,,,,,,,,,,,,,,,,,,,,,,,,,,,,,,,,,,,,,,,,,,,,,,,,,,,,,,,,,,,
,,613b7bdaa7318ef4e18e41f4,2024-02-21_20h15.41.758,kallum_motion_pilot,2023.2.2,Win32,59.88023952,613b7bdaa7318ef4e18e41f4,65d6bb0e977760de756971f7,65d6bc0e058bccc373aa7921,0.1493,0.1495,0,124,124,158,1,eightsix,,,,,,,,,,,,,,,,,,,,,,,,,,,,,,,,,,,,,,,,,,,,,,,,,,,,,,,,,,,,,,,,,,,,,,,,,,,,,,,,,,,,,,,,,,,,,,,,,,,,,,,,,,,,,,,,,,,,,,,,,,,,,,,,,,,,,,,,,
,,613b7bdaa7318ef4e18e41f4,2024-02-21_20h15.41.758,kallum_motion_pilot,2023.2.2,Win32,59.88023952,613b7bdaa7318ef4e18e41f4,65d6bb0e977760de756971f7,65d6bc0e058bccc373aa7921,0.1498,0.1501,0,125,125,77,1,threefour,,,,,,,,,,,,,,,,,,,,,,,,,,,,,,,,,,,,,,,,,,,,,,,,,,,,,,,,,,,,,,,,,,,,,,,,,,,,,,,,,,,,,,,,,,,,,,,,,,,,,,,,,,,,,,,,,,,,,,,,,,,,,,,,,,,,,,,,,
,,613b7bdaa7318ef4e18e41f4,2024-02-21_20h15.41.758,kallum_motion_pilot,2023.2.2,Win32,59.88023952,613b7bdaa7318ef4e18e41f4,65d6bb0e977760de756971f7,65d6bc0e058bccc373aa7921,0.1504,0.1505,0,126,126,4,1,threeone,,,,,,,,,,,,,,,,,,,,,,,,,,,,,,,,,,,,,,,,,,,,,,,,,,,,,,,,,,,,,,,,,,,,,,,,,,,,,,,,,,,,,,,,,,,,,,,,,,,,,,,,,,,,,,,,,,,,,,,,,,,,,,,,,,,,,,,,,
,,613b7bdaa7318ef4e18e41f4,2024-02-21_20h15.41.758,kallum_motion_pilot,2023.2.2,Win32,59.88023952,613b7bdaa7318ef4e18e41f4,65d6bb0e977760de756971f7,65d6bc0e058bccc373aa7921,0.1507,0.1509,0,127,127,100,1,sevenfive,,,,,,,,,,,,,,,,,,,,,,,,,,,,,,,,,,,,,,,,,,,,,,,,,,,,,,,,,,,,,,,,,,,,,,,,,,,,,,,,,,,,,,,,,,,,,,,,,,,,,,,,,,,,,,,,,,,,,,,,,,,,,,,,,,,,,,,,,
,,613b7bdaa7318ef4e18e41f4,2024-02-21_20h15.41.758,kallum_motion_pilot,2023.2.2,Win32,59.88023952,613b7bdaa7318ef4e18e41f4,65d6bb0e977760de756971f7,65d6bc0e058bccc373aa7921,0.1511,0.1512,0,128,128,85,1,seveneight,,,,,,,,,,,,,,,,,,,,,,,,,,,,,,,,,,,,,,,,,,,,,,,,,,,,,,,,,,,,,,,,,,,,,,,,,,,,,,,,,,,,,,,,,,,,,,,,,,,,,,,,,,,,,,,,,,,,,,,,,,,,,,,,,,,,,,,,,
,,613b7bdaa7318ef4e18e41f4,2024-02-21_20h15.41.758,kallum_motion_pilot,2023.2.2,Win32,59.88023952,613b7bdaa7318ef4e18e41f4,65d6bb0e977760de756971f7,65d6bc0e058bccc373aa7921,0.1515,0.1516,0,129,129,29,1,threefour,,,,,,,,,,,,,,,,,,,,,,,,,,,,,,,,,,,,,,,,,,,,,,,,,,,,,,,,,,,,,,,,,,,,,,,,,,,,,,,,,,,,,,,,,,,,,,,,,,,,,,,,,,,,,,,,,,,,,,,,,,,,,,,,,,,,,,,,,
,,613b7bdaa7318ef4e18e41f4,2024-02-21_20h15.41.758,kallum_motion_pilot,2023.2.2,Win32,59.88023952,613b7bdaa7318ef4e18e41f4,65d6bb0e977760de756971f7,65d6bc0e058bccc373aa7921,0.1518,0.1519,0,130,130,116,1,sevenfive,,,,,,,,,,,,,,,,,,,,,,,,,,,,,,,,,,,,,,,,,,,,,,,,,,,,,,,,,,,,,,,,,,,,,,,,,,,,,,,,,,,,,,,,,,,,,,,,,,,,,,,,,,,,,,,,,,,,,,,,,,,,,,,,,,,,,,,,,
,,613b7bdaa7318ef4e18e41f4,2024-02-21_20h15.41.758,kallum_motion_pilot,2023.2.2,Win32,59.88023952,613b7bdaa7318ef4e18e41f4,65d6bb0e977760de756971f7,65d6bc0e058bccc373aa7921,0.1534,0.1536,0,131,131,84,1,sevenfive,,,,,,,,,,,,,,,,,,,,,,,,,,,,,,,,,,,,,,,,,,,,,,,,,,,,,,,,,,,,,,,,,,,,,,,,,,,,,,,,,,,,,,,,,,,,,,,,,,,,,,,,,,,,,,,,,,,,,,,,,,,,,,,,,,,,,,,,,
,,613b7bdaa7318ef4e18e41f4,2024-02-21_20h15.41.758,kallum_motion_pilot,2023.2.2,Win32,59.88023952,613b7bdaa7318ef4e18e41f4,65d6bb0e977760de756971f7,65d6bc0e058bccc373aa7921,0.1538,0.154,0,132,132,20,1,threeone,,,,,,,,,,,,,,,,,,,,,,,,,,,,,,,,,,,,,,,,,,,,,,,,,,,,,,,,,,,,,,,,,,,,,,,,,,,,,,,,,,,,,,,,,,,,,,,,,,,,,,,,,,,,,,,,,,,,,,,,,,,,,,,,,,,,,,,,,
,,613b7bdaa7318ef4e18e41f4,2024-02-21_20h15.41.758,kallum_motion_pilot,2023.2.2,Win32,59.88023952,613b7bdaa7318ef4e18e41f4,65d6bb0e977760de756971f7,65d6bc0e058bccc373aa7921,0.1541,0.1543,0,133,133,43,1,twofour,,,,,,,,,,,,,,,,,,,,,,,,,,,,,,,,,,,,,,,,,,,,,,,,,,,,,,,,,,,,,,,,,,,,,,,,,,,,,,,,,,,,,,,,,,,,,,,,,,,,,,,,,,,,,,,,,,,,,,,,,,,,,,,,,,,,,,,,,
,,613b7bdaa7318ef4e18e41f4,2024-02-21_20h15.41.758,kallum_motion_pilot,2023.2.2,Win32,59.88023952,613b7bdaa7318ef4e18e41f4,65d6bb0e977760de756971f7,65d6bc0e058bccc373aa7921,0.1545,0.1546,0,134,134,113,1,fiveseven,,,,,,,,,,,,,,,,,,,,,,,,,,,,,,,,,,,,,,,,,,,,,,,,,,,,,,,,,,,,,,,,,,,,,,,,,,,,,,,,,,,,,,,,,,,,,,,,,,,,,,,,,,,,,,,,,,,,,,,,,,,,,,,,,,,,,,,,,
,,613b7bdaa7318ef4e18e41f4,2024-02-21_20h15.41.758,kallum_motion_pilot,2023.2.2,Win32,59.88023952,613b7bdaa7318ef4e18e41f4,65d6bb0e977760de756971f7,65d6bc0e058bccc373aa7921,0.1549,0.155,0,135,135,5,1,threefour,,,,,,,,,,,,,,,,,,,,,,,,,,,,,,,,,,,,,,,,,,,,,,,,,,,,,,,,,,,,,,,,,,,,,,,,,,,,,,,,,,,,,,,,,,,,,,,,,,,,,,,,,,,,,,,,,,,,,,,,,,,,,,,,,,,,,,,,,
,,613b7bdaa7318ef4e18e41f4,2024-02-21_20h15.41.758,kallum_motion_pilot,2023.2.2,Win32,59.88023952,613b7bdaa7318ef4e18e41f4,65d6bb0e977760de756971f7,65d6bc0e058bccc373aa7921,0.1552,0.1554,0,136,136,96,1,fivesix,,,,,,,,,,,,,,,,,,,,,,,,,,,,,,,,,,,,,,,,,,,,,,,,,,,,,,,,,,,,,,,,,,,,,,,,,,,,,,,,,,,,,,,,,,,,,,,,,,,,,,,,,,,,,,,,,,,,,,,,,,,,,,,,,,,,,,,,,
,,613b7bdaa7318ef4e18e41f4,2024-02-21_20h15.41.758,kallum_motion_pilot,2023.2.2,Win32,59.88023952,613b7bdaa7318ef4e18e41f4,65d6bb0e977760de756971f7,65d6bc0e058bccc373aa7921,0.1558,0.1559,0,137,137,154,1,sixfive,,,,,,,,,,,,,,,,,,,,,,,,,,,,,,,,,,,,,,,,,,,,,,,,,,,,,,,,,,,,,,,,,,,,,,,,,,,,,,,,,,,,,,,,,,,,,,,,,,,,,,,,,,,,,,,,,,,,,,,,,,,,,,,,,,,,,,,,,
,,613b7bdaa7318ef4e18e41f4,2024-02-21_20h15.41.758,kallum_motion_pilot,2023.2.2,Win32,59.88023952,613b7bdaa7318ef4e18e41f4,65d6bb0e977760de756971f7,65d6bc0e058bccc373aa7921,0.1561,0.1563,0,138,138,59,1,twofour,,,,,,,,,,,,,,,,,,,,,,,,,,,,,,,,,,,,,,,,,,,,,,,,,,,,,,,,,,,,,,,,,,,,,,,,,,,,,,,,,,,,,,,,,,,,,,,,,,,,,,,,,,,,,,,,,,,,,,,,,,,,,,,,,,,,,,,,,
,,613b7bdaa7318ef4e18e41f4,2024-02-21_20h15.41.758,kallum_motion_pilot,2023.2.2,Win32,59.88023952,613b7bdaa7318ef4e18e41f4,65d6bb0e977760de756971f7,65d6bc0e058bccc373aa7921,0.1565,0.1567,0,139,139,126,1,eightsix,,,,,,,,,,,,,,,,,,,,,,,,,,,,,,,,,,,,,,,,,,,,,,,,,,,,,,,,,,,,,,,,,,,,,,,,,,,,,,,,,,,,,,,,,,,,,,,,,,,,,,,,,,,,,,,,,,,,,,,,,,,,,,,,,,,,,,,,,
,,613b7bdaa7318ef4e18e41f4,2024-02-21_20h15.41.758,kallum_motion_pilot,2023.2.2,Win32,59.88023952,613b7bdaa7318ef4e18e41f4,65d6bb0e977760de756971f7,65d6bc0e058bccc373aa7921,0.1569,0.1575,0,140,140,160,1,fivesix,,,,,,,,,,,,,,,,,,,,,,,,,,,,,,,,,,,,,,,,,,,,,,,,,,,,,,,,,,,,,,,,,,,,,,,,,,,,,,,,,,,,,,,,,,,,,,,,,,,,,,,,,,,,,,,,,,,,,,,,,,,,,,,,,,,,,,,,,
,,613b7bdaa7318ef4e18e41f4,2024-02-21_20h15.41.758,kallum_motion_pilot,2023.2.2,Win32,59.88023952,613b7bdaa7318ef4e18e41f4,65d6bb0e977760de756971f7,65d6bc0e058bccc373aa7921,0.1577,0.1579,0,141,141,122,1,sixfive,,,,,,,,,,,,,,,,,,,,,,,,,,,,,,,,,,,,,,,,,,,,,,,,,,,,,,,,,,,,,,,,,,,,,,,,,,,,,,,,,,,,,,,,,,,,,,,,,,,,,,,,,,,,,,,,,,,,,,,,,,,,,,,,,,,,,,,,,
,,613b7bdaa7318ef4e18e41f4,2024-02-21_20h15.41.758,kallum_motion_pilot,2023.2.2,Win32,59.88023952,613b7bdaa7318ef4e18e41f4,65d6bb0e977760de756971f7,65d6bc0e058bccc373aa7921,0.1581,0.1582,0,142,142,141,1,seveneight,,,,,,,,,,,,,,,,,,,,,,,,,,,,,,,,,,,,,,,,,,,,,,,,,,,,,,,,,,,,,,,,,,,,,,,,,,,,,,,,,,,,,,,,,,,,,,,,,,,,,,,,,,,,,,,,,,,,,,,,,,,,,,,,,,,,,,,,,
,,613b7bdaa7318ef4e18e41f4,2024-02-21_20h15.41.758,kallum_motion_pilot,2023.2.2,Win32,59.88023952,613b7bdaa7318ef4e18e41f4,65d6bb0e977760de756971f7,65d6bc0e058bccc373aa7921,0.1584,0.1586,0,143,143,139,1,sixeight,,,,,,,,,,,,,,,,,,,,,,,,,,,,,,,,,,,,,,,,,,,,,,,,,,,,,,,,,,,,,,,,,,,,,,,,,,,,,,,,,,,,,,,,,,,,,,,,,,,,,,,,,,,,,,,,,,,,,,,,,,,,,,,,,,,,,,,,,
,,613b7bdaa7318ef4e18e41f4,2024-02-21_20h15.41.758,kallum_motion_pilot,2023.2.2,Win32,59.88023952,613b7bdaa7318ef4e18e41f4,65d6bb0e977760de756971f7,65d6bc0e058bccc373aa7921,0.1588,0.1589,0,144,144,68,1,threeone,,,,,,,,,,,,,,,,,,,,,,,,,,,,,,,,,,,,,,,,,,,,,,,,,,,,,,,,,,,,,,,,,,,,,,,,,,,,,,,,,,,,,,,,,,,,,,,,,,,,,,,,,,,,,,,,,,,,,,,,,,,,,,,,,,,,,,,,,
,,613b7bdaa7318ef4e18e41f4,2024-02-21_20h15.41.758,kallum_motion_pilot,2023.2.2,Win32,59.88023952,613b7bdaa7318ef4e18e41f4,65d6bb0e977760de756971f7,65d6bc0e058bccc373aa7921,0.1591,0.1593,0,145,145,130,1,sixfive,,,,,,,,,,,,,,,,,,,,,,,,,,,,,,,,,,,,,,,,,,,,,,,,,,,,,,,,,,,,,,,,,,,,,,,,,,,,,,,,,,,,,,,,,,,,,,,,,,,,,,,,,,,,,,,,,,,,,,,,,,,,,,,,,,,,,,,,,
,,613b7bdaa7318ef4e18e41f4,2024-02-21_20h15.41.758,kallum_motion_pilot,2023.2.2,Win32,59.88023952,613b7bdaa7318ef4e18e41f4,65d6bb0e977760de756971f7,65d6bc0e058bccc373aa7921,0.1595,0.1597,0,146,146,152,1,fivesix,,,,,,,,,,,,,,,,,,,,,,,,,,,,,,,,,,,,,,,,,,,,,,,,,,,,,,,,,,,,,,,,,,,,,,,,,,,,,,,,,,,,,,,,,,,,,,,,,,,,,,,,,,,,,,,,,,,,,,,,,,,,,,,,,,,,,,,,,
,,613b7bdaa7318ef4e18e41f4,2024-02-21_20h15.41.758,kallum_motion_pilot,2023.2.2,Win32,59.88023952,613b7bdaa7318ef4e18e41f4,65d6bb0e977760de756971f7,65d6bc0e058bccc373aa7921,0.1598,0.16,0,147,147,51,1,twofour,,,,,,,,,,,,,,,,,,,,,,,,,,,,,,,,,,,,,,,,,,,,,,,,,,,,,,,,,,,,,,,,,,,,,,,,,,,,,,,,,,,,,,,,,,,,,,,,,,,,,,,,,,,,,,,,,,,,,,,,,,,,,,,,,,,,,,,,,
,,613b7bdaa7318ef4e18e41f4,2024-02-21_20h15.41.758,kallum_motion_pilot,2023.2.2,Win32,59.88023952,613b7bdaa7318ef4e18e41f4,65d6bb0e977760de756971f7,65d6bc0e058bccc373aa7921,0.1602,0.1603,0,148,148,105,1,fiveseven,,,,,,,,,,,,,,,,,,,,,,,,,,,,,,,,,,,,,,,,,,,,,,,,,,,,,,,,,,,,,,,,,,,,,,,,,,,,,,,,,,,,,,,,,,,,,,,,,,,,,,,,,,,,,,,,,,,,,,,,,,,,,,,,,,,,,,,,,
,,613b7bdaa7318ef4e18e41f4,2024-02-21_20h15.41.758,kallum_motion_pilot,2023.2.2,Win32,59.88023952,613b7bdaa7318ef4e18e41f4,65d6bb0e977760de756971f7,65d6bc0e058bccc373aa7921,0.1606,0.1607,0,149,149,127,1,eightseven,,,,,,,,,,,,,,,,,,,,,,,,,,,,,,,,,,,,,,,,,,,,,,,,,,,,,,,,,,,,,,,,,,,,,,,,,,,,,,,,,,,,,,,,,,,,,,,,,,,,,,,,,,,,,,,,,,,,,,,,,,,,,,,,,,,,,,,,,
,,613b7bdaa7318ef4e18e41f4,2024-02-21_20h15.41.758,kallum_motion_pilot,2023.2.2,Win32,59.88023952,613b7bdaa7318ef4e18e41f4,65d6bb0e977760de756971f7,65d6bc0e058bccc373aa7921,0.1609,0.161,0,150,150,150,1,eightsix,,,,,,,,,,,,,,,,,,,,,,,,,,,,,,,,,,,,,,,,,,,,,,,,,,,,,,,,,,,,,,,,,,,,,,,,,,,,,,,,,,,,,,,,,,,,,,,,,,,,,,,,,,,,,,,,,,,,,,,,,,,,,,,,,,,,,,,,,
,,613b7bdaa7318ef4e18e41f4,2024-02-21_20h15.41.758,kallum_motion_pilot,2023.2.2,Win32,59.88023952,613b7bdaa7318ef4e18e41f4,65d6bb0e977760de756971f7,65d6bc0e058bccc373aa7921,0.1613,0.1614,0,151,151,39,1,fourthree,,,,,,,,,,,,,,,,,,,,,,,,,,,,,,,,,,,,,,,,,,,,,,,,,,,,,,,,,,,,,,,,,,,,,,,,,,,,,,,,,,,,,,,,,,,,,,,,,,,,,,,,,,,,,,,,,,,,,,,,,,,,,,,,,,,,,,,,,
,,613b7bdaa7318ef4e18e41f4,2024-02-21_20h15.41.758,kallum_motion_pilot,2023.2.2,Win32,59.88023952,613b7bdaa7318ef4e18e41f4,65d6bb0e977760de756971f7,65d6bc0e058bccc373aa7921,0.1616,0.1617,0,152,152,32,1,onetwo,,,,,,,,,,,,,,,,,,,,,,,,,,,,,,,,,,,,,,,,,,,,,,,,,,,,,,,,,,,,,,,,,,,,,,,,,,,,,,,,,,,,,,,,,,,,,,,,,,,,,,,,,,,,,,,,,,,,,,,,,,,,,,,,,,,,,,,,,
,,613b7bdaa7318ef4e18e41f4,2024-02-21_20h15.41.758,kallum_motion_pilot,2023.2.2,Win32,59.88023952,613b7bdaa7318ef4e18e41f4,65d6bb0e977760de756971f7,65d6bc0e058bccc373aa7921,0.1619,0.1621,0,153,153,161,1,fiveseven,,,,,,,,,,,,,,,,,,,,,,,,,,,,,,,,,,,,,,,,,,,,,,,,,,,,,,,,,,,,,,,,,,,,,,,,,,,,,,,,,,,,,,,,,,,,,,,,,,,,,,,,,,,,,,,,,,,,,,,,,,,,,,,,,,,,,,,,,
,,613b7bdaa7318ef4e18e41f4,2024-02-21_20h15.41.758,kallum_motion_pilot,2023.2.2,Win32,59.88023952,613b7bdaa7318ef4e18e41f4,65d6bb0e977760de756971f7,65d6bc0e058bccc373aa7921,0.1623,0.1625,0,154,154,23,1,fourthree,,,,,,,,,,,,,,,,,,,,,,,,,,,,,,,,,,,,,,,,,,,,,,,,,,,,,,,,,,,,,,,,,,,,,,,,,,,,,,,,,,,,,,,,,,,,,,,,,,,,,,,,,,,,,,,,,,,,,,,,,,,,,,,,,,,,,,,,,
,,613b7bdaa7318ef4e18e41f4,2024-02-21_20h15.41.758,kallum_motion_pilot,2023.2.2,Win32,59.88023952,613b7bdaa7318ef4e18e41f4,65d6bb0e977760de756971f7,65d6bc0e058bccc373aa7921,0.1626,0.1628,0,155,155,47,1,fourthree,,,,,,,,,,,,,,,,,,,,,,,,,,,,,,,,,,,,,,,,,,,,,,,,,,,,,,,,,,,,,,,,,,,,,,,,,,,,,,,,,,,,,,,,,,,,,,,,,,,,,,,,,,,,,,,,,,,,,,,,,,,,,,,,,,,,,,,,,
,,613b7bdaa7318ef4e18e41f4,2024-02-21_20h15.41.758,kallum_motion_pilot,2023.2.2,Win32,59.88023952,613b7bdaa7318ef4e18e41f4,65d6bb0e977760de756971f7,65d6bc0e058bccc373aa7921,0.163,0.1632,0,156,156,8,1,onetwo,,,,,,,,,,,,,,,,,,,,,,,,,,,,,,,,,,,,,,,,,,,,,,,,,,,,,,,,,,,,,,,,,,,,,,,,,,,,,,,,,,,,,,,,,,,,,,,,,,,,,,,,,,,,,,,,,,,,,,,,,,,,,,,,,,,,,,,,,
,,613b7bdaa7318ef4e18e41f4,2024-02-21_20h15.41.758,kallum_motion_pilot,2023.2.2,Win32,59.88023952,613b7bdaa7318ef4e18e41f4,65d6bb0e977760de756971f7,65d6bc0e058bccc373aa7921,0.1633,0.1635,0,157,157,128,1,fivesix,,,,,,,,,,,,,,,,,,,,,,,,,,,,,,,,,,,,,,,,,,,,,,,,,,,,,,,,,,,,,,,,,,,,,,,,,,,,,,,,,,,,,,,,,,,,,,,,,,,,,,,,,,,,,,,,,,,,,,,,,,,,,,,,,,,,,,,,,
,,613b7bdaa7318ef4e18e41f4,2024-02-21_20h15.41.758,kallum_motion_pilot,2023.2.2,Win32,59.88023952,613b7bdaa7318ef4e18e41f4,65d6bb0e977760de756971f7,65d6bc0e058bccc373aa7921,0.1639,0.164,0,158,158,86,1,eightsix,,,,,,,,,,,,,,,,,,,,,,,,,,,,,,,,,,,,,,,,,,,,,,,,,,,,,,,,,,,,,,,,,,,,,,,,,,,,,,,,,,,,,,,,,,,,,,,,,,,,,,,,,,,,,,,,,,,,,,,,,,,,,,,,,,,,,,,,,
,,613b7bdaa7318ef4e18e41f4,2024-02-21_20h15.41.758,kallum_motion_pilot,2023.2.2,Win32,59.88023952,613b7bdaa7318ef4e18e41f4,65d6bb0e977760de756971f7,65d6bc0e058bccc373aa7921,0.1642,0.1644,0,159,159,3,1,twofour,,,,,,,,,,,,,,,,,,,,,,,,,,,,,,,,,,,,,,,,,,,,,,,,,,,,,,,,,,,,,,,,,,,,,,,,,,,,,,,,,,,,,,,,,,,,,,,,,,,,,,,,,,,,,,,,,,,,,,,,,,,,,,,,,,,,,,,,,
,,613b7bdaa7318ef4e18e41f4,2024-02-21_20h15.41.758,kallum_motion_pilot,2023.2.2,Win32,59.88023952,613b7bdaa7318ef4e18e41f4,65d6bb0e977760de756971f7,65d6bc0e058bccc373aa7921,0.1646,0.1648,0,160,160,18,1,twoone,,,,,,,,,,,,,,,,,,,,,,,,,,,,,,,,,,,,,,,,,,,,,,,,,,,,,,,,,,,,,,,,,,,,,,,,,,,,,,,,,,,,,,,,,,,,,,,,,,,,,,,,,,,,,,,,,,,,,,,,,,,,,,,,,,,,,,,,,
,,613b7bdaa7318ef4e18e41f4,2024-02-21_20h15.41.758,kallum_motion_pilot,2023.2.2,Win32,59.88023952,613b7bdaa7318ef4e18e41f4,65d6bb0e977760de756971f7,65d6bc0e058bccc373aa7921,0.1651,0.1652,0,161,161,103,1,eightseven,,,,,,,,,,,,,,,,,,,,,,,,,,,,,,,,,,,,,,,,,,,,,,,,,,,,,,,,,,,,,,,,,,,,,,,,,,,,,,,,,,,,,,,,,,,,,,,,,,,,,,,,,,,,,,,,,,,,,,,,,,,,,,,,,,,,,,,,,
,,613b7bdaa7318ef4e18e41f4,2024-02-21_20h15.41.758,kallum_motion_pilot,2023.2.2,Win32,59.88023952,613b7bdaa7318ef4e18e41f4,65d6bb0e977760de756971f7,65d6bc0e058bccc373aa7921,0.1654,0.1655,1,0,162,43,1,twofour,,,,,,,,,,,,,,,,,,,,,,,,,,,,,,,,,,,,,,,,,,,,,,,,,,,,,,,,,,,,,,,,,,,,,,,,,,,,,,,,,,,,,,,,,,,,,,,,,,,,,,,,,,,,,,,,,,,,,,,,,,,,,,,,,,,,,,,,,
,,613b7bdaa7318ef4e18e41f4,2024-02-21_20h15.41.758,kallum_motion_pilot,2023.2.2,Win32,59.88023952,613b7bdaa7318ef4e18e41f4,65d6bb0e977760de756971f7,65d6bc0e058bccc373aa7921,0.1658,0.1659,1,1,163,56,1,onetwo,,,,,,,,,,,,,,,,,,,,,,,,,,,,,,,,,,,,,,,,,,,,,,,,,,,,,,,,,,,,,,,,,,,,,,,,,,,,,,,,,,,,,,,,,,,,,,,,,,,,,,,,,,,,,,,,,,,,,,,,,,,,,,,,,,,,,,,,,
,,613b7bdaa7318ef4e18e41f4,2024-02-21_20h15.41.758,kallum_motion_pilot,2023.2.2,Win32,59.88023952,613b7bdaa7318ef4e18e41f4,65d6bb0e977760de756971f7,65d6bc0e058bccc373aa7921,0.1662,0.1663,1,2,164,48,1,onetwo,,,,,,,,,,,,,,,,,,,,,,,,,,,,,,,,,,,,,,,,,,,,,,,,,,,,,,,,,,,,,,,,,,,,,,,,,,,,,,,,,,,,,,,,,,,,,,,,,,,,,,,,,,,,,,,,,,,,,,,,,,,,,,,,,,,,,,,,,
,,613b7bdaa7318ef4e18e41f4,2024-02-21_20h15.41.758,kallum_motion_pilot,2023.2.2,Win32,59.88023952,613b7bdaa7318ef4e18e41f4,65d6bb0e977760de756971f7,65d6bc0e058bccc373aa7921,0.1664,0.1666,1,3,165,157,1,seveneight,,,,,,,,,,,,,,,,,,,,,,,,,,,,,,,,,,,,,,,,,,,,,,,,,,,,,,,,,,,,,,,,,,,,,,,,,,,,,,,,,,,,,,,,,,,,,,,,,,,,,,,,,,,,,,,,,,,,,,,,,,,,,,,,,,,,,,,,,
,,613b7bdaa7318ef4e18e41f4,2024-02-21_20h15.41.758,kallum_motion_pilot,2023.2.2,Win32,59.88023952,613b7bdaa7318ef4e18e41f4,65d6bb0e977760de756971f7,65d6bc0e058bccc373aa7921,0.1668,0.167,1,4,166,77,1,threefour,,,,,,,,,,,,,,,,,,,,,,,,,,,,,,,,,,,,,,,,,,,,,,,,,,,,,,,,,,,,,,,,,,,,,,,,,,,,,,,,,,,,,,,,,,,,,,,,,,,,,,,,,,,,,,,,,,,,,,,,,,,,,,,,,,,,,,,,,
,,613b7bdaa7318ef4e18e41f4,2024-02-21_20h15.41.758,kallum_motion_pilot,2023.2.2,Win32,59.88023952,613b7bdaa7318ef4e18e41f4,65d6bb0e977760de756971f7,65d6bc0e058bccc373aa7921,0.1672,0.1674,1,5,167,158,1,eightsix,,,,,,,,,,,,,,,,,,,,,,,,,,,,,,,,,,,,,,,,,,,,,,,,,,,,,,,,,,,,,,,,,,,,,,,,,,,,,,,,,,,,,,,,,,,,,,,,,,,,,,,,,,,,,,,,,,,,,,,,,,,,,,,,,,,,,,,,,
,,613b7bdaa7318ef4e18e41f4,2024-02-21_20h15.41.758,kallum_motion_pilot,2023.2.2,Win32,59.88023952,613b7bdaa7318ef4e18e41f4,65d6bb0e977760de756971f7,65d6bc0e058bccc373aa7921,0.1676,0.1677,1,6,168,91,1,sixeight,,,,,,,,,,,,,,,,,,,,,,,,,,,,,,,,,,,,,,,,,,,,,,,,,,,,,,,,,,,,,,,,,,,,,,,,,,,,,,,,,,,,,,,,,,,,,,,,,,,,,,,,,,,,,,,,,,,,,,,,,,,,,,,,,,,,,,,,,
,,613b7bdaa7318ef4e18e41f4,2024-02-21_20h15.41.758,kallum_motion_pilot,2023.2.2,Win32,59.88023952,613b7bdaa7318ef4e18e41f4,65d6bb0e977760de756971f7,65d6bc0e058bccc373aa7921,0.1679,0.1681,1,7,169,19,1,twofour,,,,,,,,,,,,,,,,,,,,,,,,,,,,,,,,,,,,,,,,,,,,,,,,,,,,,,,,,,,,,,,,,,,,,,,,,,,,,,,,,,,,,,,,,,,,,,,,,,,,,,,,,,,,,,,,,,,,,,,,,,,,,,,,,,,,,,,,,
,,613b7bdaa7318ef4e18e41f4,2024-02-21_20h15.41.758,kallum_motion_pilot,2023.2.2,Win32,59.88023952,613b7bdaa7318ef4e18e41f4,65d6bb0e977760de756971f7,65d6bc0e058bccc373aa7921,0.1683,0.1685,1,8,170,140,1,sevenfive,,,,,,,,,,,,,,,,,,,,,,,,,,,,,,,,,,,,,,,,,,,,,,,,,,,,,,,,,,,,,,,,,,,,,,,,,,,,,,,,,,,,,,,,,,,,,,,,,,,,,,,,,,,,,,,,,,,,,,,,,,,,,,,,,,,,,,,,,
,,613b7bdaa7318ef4e18e41f4,2024-02-21_20h15.41.758,kallum_motion_pilot,2023.2.2,Win32,59.88023952,613b7bdaa7318ef4e18e41f4,65d6bb0e977760de756971f7,65d6bc0e058bccc373aa7921,0.1687,0.1689,1,9,171,68,1,threeone,,,,,,,,,,,,,,,,,,,,,,,,,,,,,,,,,,,,,,,,,,,,,,,,,,,,,,,,,,,,,,,,,,,,,,,,,,,,,,,,,,,,,,,,,,,,,,,,,,,,,,,,,,,,,,,,,,,,,,,,,,,,,,,,,,,,,,,,,
,,613b7bdaa7318ef4e18e41f4,2024-02-21_20h15.41.758,kallum_motion_pilot,2023.2.2,Win32,59.88023952,613b7bdaa7318ef4e18e41f4,65d6bb0e977760de756971f7,65d6bc0e058bccc373aa7921,0.169,0.1694,1,10,172,87,1,eightseven,,,,,,,,,,,,,,,,,,,,,,,,,,,,,,,,,,,,,,,,,,,,,,,,,,,,,,,,,,,,,,,,,,,,,,,,,,,,,,,,,,,,,,,,,,,,,,,,,,,,,,,,,,,,,,,,,,,,,,,,,,,,,,,,,,,,,,,,,
,,613b7bdaa7318ef4e18e41f4,2024-02-21_20h15.41.758,kallum_motion_pilot,2023.2.2,Win32,59.88023952,613b7bdaa7318ef4e18e41f4,65d6bb0e977760de756971f7,65d6bc0e058bccc373aa7921,0.1696,0.1698,1,11,173,39,1,fourthree,,,,,,,,,,,,,,,,,,,,,,,,,,,,,,,,,,,,,,,,,,,,,,,,,,,,,,,,,,,,,,,,,,,,,,,,,,,,,,,,,,,,,,,,,,,,,,,,,,,,,,,,,,,,,,,,,,,,,,,,,,,,,,,,,,,,,,,,,
,,613b7bdaa7318ef4e18e41f4,2024-02-21_20h15.41.758,kallum_motion_pilot,2023.2.2,Win32,59.88023952,613b7bdaa7318ef4e18e41f4,65d6bb0e977760de756971f7,65d6bc0e058bccc373aa7921,0.1699,0.1702,1,12,174,36,1,threeone,,,,,,,,,,,,,,,,,,,,,,,,,,,,,,,,,,,,,,,,,,,,,,,,,,,,,,,,,,,,,,,,,,,,,,,,,,,,,,,,,,,,,,,,,,,,,,,,,,,,,,,,,,,,,,,,,,,,,,,,,,,,,,,,,,,,,,,,,
,,613b7bdaa7318ef4e18e41f4,2024-02-21_20h15.41.758,kallum_motion_pilot,2023.2.2,Win32,59.88023952,613b7bdaa7318ef4e18e41f4,65d6bb0e977760de756971f7,65d6bc0e058bccc373aa7921,0.1704,0.1705,1,13,175,30,1,fourtwo,,,,,,,,,,,,,,,,,,,,,,,,,,,,,,,,,,,,,,,,,,,,,,,,,,,,,,,,,,,,,,,,,,,,,,,,,,,,,,,,,,,,,,,,,,,,,,,,,,,,,,,,,,,,,,,,,,,,,,,,,,,,,,,,,,,,,,,,,
,,613b7bdaa7318ef4e18e41f4,2024-02-21_20h15.41.758,kallum_motion_pilot,2023.2.2,Win32,59.88023952,613b7bdaa7318ef4e18e41f4,65d6bb0e977760de756971f7,65d6bc0e058bccc373aa7921,0.1707,0.1709,1,14,176,73,1,onethree,,,,,,,,,,,,,,,,,,,,,,,,,,,,,,,,,,,,,,,,,,,,,,,,,,,,,,,,,,,,,,,,,,,,,,,,,,,,,,,,,,,,,,,,,,,,,,,,,,,,,,,,,,,,,,,,,,,,,,,,,,,,,,,,,,,,,,,,,
,,613b7bdaa7318ef4e18e41f4,2024-02-21_20h15.41.758,kallum_motion_pilot,2023.2.2,Win32,59.88023952,613b7bdaa7318ef4e18e41f4,65d6bb0e977760de756971f7,65d6bc0e058bccc373aa7921,0.171,0.1713,1,15,177,60,1,threeone,,,,,,,,,,,,,,,,,,,,,,,,,,,,,,,,,,,,,,,,,,,,,,,,,,,,,,,,,,,,,,,,,,,,,,,,,,,,,,,,,,,,,,,,,,,,,,,,,,,,,,,,,,,,,,,,,,,,,,,,,,,,,,,,,,,,,,,,,
,,613b7bdaa7318ef4e18e41f4,2024-02-21_20h15.41.758,kallum_motion_pilot,2023.2.2,Win32,59.88023952,613b7bdaa7318ef4e18e41f4,65d6bb0e977760de756971f7,65d6bc0e058bccc373aa7921,0.1715,0.1717,1,16,178,41,1,onethree,,,,,,,,,,,,,,,,,,,,,,,,,,,,,,,,,,,,,,,,,,,,,,,,,,,,,,,,,,,,,,,,,,,,,,,,,,,,,,,,,,,,,,,,,,,,,,,,,,,,,,,,,,,,,,,,,,,,,,,,,,,,,,,,,,,,,,,,,
,,613b7bdaa7318ef4e18e41f4,2024-02-21_20h15.41.758,kallum_motion_pilot,2023.2.2,Win32,59.88023952,613b7bdaa7318ef4e18e41f4,65d6bb0e977760de756971f7,65d6bc0e058bccc373aa7921,0.172,0.1721,1,17,179,25,1,onethree,,,,,,,,,,,,,,,,,,,,,,,,,,,,,,,,,,,,,,,,,,,,,,,,,,,,,,,,,,,,,,,,,,,,,,,,,,,,,,,,,,,,,,,,,,,,,,,,,,,,,,,,,,,,,,,,,,,,,,,,,,,,,,,,,,,,,,,,,
,,613b7bdaa7318ef4e18e41f4,2024-02-21_20h15.41.758,kallum_motion_pilot,2023.2.2,Win32,59.88023952,613b7bdaa7318ef4e18e41f4,65d6bb0e977760de756971f7,65d6bc0e058bccc373aa7921,0.1724,0.1726,1,18,180,20,1,threeone,,,,,,,,,,,,,,,,,,,,,,,,,,,,,,,,,,,,,,,,,,,,,,,,,,,,,,,,,,,,,,,,,,,,,,,,,,,,,,,,,,,,,,,,,,,,,,,,,,,,,,,,,,,,,,,,,,,,,,,,,,,,,,,,,,,,,,,,,
,,613b7bdaa7318ef4e18e41f4,2024-02-21_20h15.41.758,kallum_motion_pilot,2023.2.2,Win32,59.88023952,613b7bdaa7318ef4e18e41f4,65d6bb0e977760de756971f7,65d6bc0e058bccc373aa7921,0.1727,0.1729,1,19,181,124,1,sevenfive,,,,,,,,,,,,,,,,,,,,,,,,,,,,,,,,,,,,,,,,,,,,,,,,,,,,,,,,,,,,,,,,,,,,,,,,,,,,,,,,,,,,,,,,,,,,,,,,,,,,,,,,,,,,,,,,,,,,,,,,,,,,,,,,,,,,,,,,,
,,613b7bdaa7318ef4e18e41f4,2024-02-21_20h15.41.758,kallum_motion_pilot,2023.2.2,Win32,59.88023952,613b7bdaa7318ef4e18e41f4,65d6bb0e977760de756971f7,65d6bc0e058bccc373aa7921,0.1731,0.1732,1,20,182,22,1,fourtwo,,,,,,,,,,,,,,,,,,,,,,,,,,,,,,,,,,,,,,,,,,,,,,,,,,,,,,,,,,,,,,,,,,,,,,,,,,,,,,,,,,,,,,,,,,,,,,,,,,,,,,,,,,,,,,,,,,,,,,,,,,,,,,,,,,,,,,,,,
,,613b7bdaa7318ef4e18e41f4,2024-02-21_20h15.41.758,kallum_motion_pilot,2023.2.2,Win32,59.88023952,613b7bdaa7318ef4e18e41f4,65d6bb0e977760de756971f7,65d6bc0e058bccc373aa7921,0.1734,0.174,1,21,183,84,1,sevenfive,,,,,,,,,,,,,,,,,,,,,,,,,,,,,,,,,,,,,,,,,,,,,,,,,,,,,,,,,,,,,,,,,,,,,,,,,,,,,,,,,,,,,,,,,,,,,,,,,,,,,,,,,,,,,,,,,,,,,,,,,,,,,,,,,,,,,,,,,
,,613b7bdaa7318ef4e18e41f4,2024-02-21_20h15.41.758,kallum_motion_pilot,2023.2.2,Win32,59.88023952,613b7bdaa7318ef4e18e41f4,65d6bb0e977760de756971f7,65d6bc0e058bccc373aa7921,0.1745,0.1747,1,22,184,139,1,sixeight,,,,,,,,,,,,,,,,,,,,,,,,,,,,,,,,,,,,,,,,,,,,,,,,,,,,,,,,,,,,,,,,,,,,,,,,,,,,,,,,,,,,,,,,,,,,,,,,,,,,,,,,,,,,,,,,,,,,,,,,,,,,,,,,,,,,,,,,,
,,613b7bdaa7318ef4e18e41f4,2024-02-21_20h15.41.758,kallum_motion_pilot,2023.2.2,Win32,59.88023952,613b7bdaa7318ef4e18e41f4,65d6bb0e977760de756971f7,65d6bc0e058bccc373aa7921,0.175,0.1751,1,23,185,112,1,fivesix,,,,,,,,,,,,,,,,,,,,,,,,,,,,,,,,,,,,,,,,,,,,,,,,,,,,,,,,,,,,,,,,,,,,,,,,,,,,,,,,,,,,,,,,,,,,,,,,,,,,,,,,,,,,,,,,,,,,,,,,,,,,,,,,,,,,,,,,,
,,613b7bdaa7318ef4e18e41f4,2024-02-21_20h15.41.758,kallum_motion_pilot,2023.2.2,Win32,59.88023952,613b7bdaa7318ef4e18e41f4,65d6bb0e977760de756971f7,65d6bc0e058bccc373aa7921,0.1754,0.1755,1,24,186,122,1,sixfive,,,,,,,,,,,,,,,,,,,,,,,,,,,,,,,,,,,,,,,,,,,,,,,,,,,,,,,,,,,,,,,,,,,,,,,,,,,,,,,,,,,,,,,,,,,,,,,,,,,,,,,,,,,,,,,,,,,,,,,,,,,,,,,,,,,,,,,,,
,,613b7bdaa7318ef4e18e41f4,2024-02-21_20h15.41.758,kallum_motion_pilot,2023.2.2,Win32,59.88023952,613b7bdaa7318ef4e18e41f4,65d6bb0e977760de756971f7,65d6bc0e058bccc373aa7921,0.176,0.1764,1,25,187,149,1,seveneight,,,,,,,,,,,,,,,,,,,,,,,,,,,,,,,,,,,,,,,,,,,,,,,,,,,,,,,,,,,,,,,,,,,,,,,,,,,,,,,,,,,,,,,,,,,,,,,,,,,,,,,,,,,,,,,,,,,,,,,,,,,,,,,,,,,,,,,,,
,,613b7bdaa7318ef4e18e41f4,2024-02-21_20h15.41.758,kallum_motion_pilot,2023.2.2,Win32,59.88023952,613b7bdaa7318ef4e18e41f4,65d6bb0e977760de756971f7,65d6bc0e058bccc373aa7921,0.1785,0.1787,1,26,188,66,1,twoone,,,,,,,,,,,,,,,,,,,,,,,,,,,,,,,,,,,,,,,,,,,,,,,,,,,,,,,,,,,,,,,,,,,,,,,,,,,,,,,,,,,,,,,,,,,,,,,,,,,,,,,,,,,,,,,,,,,,,,,,,,,,,,,,,,,,,,,,,
,,613b7bdaa7318ef4e18e41f4,2024-02-21_20h15.41.758,kallum_motion_pilot,2023.2.2,Win32,59.88023952,613b7bdaa7318ef4e18e41f4,65d6bb0e977760de756971f7,65d6bc0e058bccc373aa7921,0.1798,0.1801,1,27,189,17,1,onethree,,,,,,,,,,,,,,,,,,,,,,,,,,,,,,,,,,,,,,,,,,,,,,,,,,,,,,,,,,,,,,,,,,,,,,,,,,,,,,,,,,,,,,,,,,,,,,,,,,,,,,,,,,,,,,,,,,,,,,,,,,,,,,,,,,,,,,,,,
,,613b7bdaa7318ef4e18e41f4,2024-02-21_20h15.41.758,kallum_motion_pilot,2023.2.2,Win32,59.88023952,613b7bdaa7318ef4e18e41f4,65d6bb0e977760de756971f7,65d6bc0e058bccc373aa7921,0.1803,0.1805,1,28,190,102,1,eightsix,,,,,,,,,,,,,,,,,,,,,,,,,,,,,,,,,,,,,,,,,,,,,,,,,,,,,,,,,,,,,,,,,,,,,,,,,,,,,,,,,,,,,,,,,,,,,,,,,,,,,,,,,,,,,,,,,,,,,,,,,,,,,,,,,,,,,,,,,
,,613b7bdaa7318ef4e18e41f4,2024-02-21_20h15.41.758,kallum_motion_pilot,2023.2.2,Win32,59.88023952,613b7bdaa7318ef4e18e41f4,65d6bb0e977760de756971f7,65d6bc0e058bccc373aa7921,0.1807,0.1808,1,29,191,69,1,threefour,,,,,,,,,,,,,,,,,,,,,,,,,,,,,,,,,,,,,,,,,,,,,,,,,,,,,,,,,,,,,,,,,,,,,,,,,,,,,,,,,,,,,,,,,,,,,,,,,,,,,,,,,,,,,,,,,,,,,,,,,,,,,,,,,,,,,,,,,
,,613b7bdaa7318ef4e18e41f4,2024-02-21_20h15.41.758,kallum_motion_pilot,2023.2.2,Win32,59.88023952,613b7bdaa7318ef4e18e41f4,65d6bb0e977760de756971f7,65d6bc0e058bccc373aa7921,0.1811,0.1812,1,30,192,89,1,fiveseven,,,,,,,,,,,,,,,,,,,,,,,,,,,,,,,,,,,,,,,,,,,,,,,,,,,,,,,,,,,,,,,,,,,,,,,,,,,,,,,,,,,,,,,,,,,,,,,,,,,,,,,,,,,,,,,,,,,,,,,,,,,,,,,,,,,,,,,,,
,,613b7bdaa7318ef4e18e41f4,2024-02-21_20h15.41.758,kallum_motion_pilot,2023.2.2,Win32,59.88023952,613b7bdaa7318ef4e18e41f4,65d6bb0e977760de756971f7,65d6bc0e058bccc373aa7921,0.1814,0.1817,1,31,193,119,1,eightseven,,,,,,,,,,,,,,,,,,,,,,,,,,,,,,,,,,,,,,,,,,,,,,,,,,,,,,,,,,,,,,,,,,,,,,,,,,,,,,,,,,,,,,,,,,,,,,,,,,,,,,,,,,,,,,,,,,,,,,,,,,,,,,,,,,,,,,,,,
,,613b7bdaa7318ef4e18e41f4,2024-02-21_20h15.41.758,kallum_motion_pilot,2023.2.2,Win32,59.88023952,613b7bdaa7318ef4e18e41f4,65d6bb0e977760de756971f7,65d6bc0e058bccc373aa7921,0.182,0.1823,1,32,194,11,1,twofour,,,,,,,,,,,,,,,,,,,,,,,,,,,,,,,,,,,,,,,,,,,,,,,,,,,,,,,,,,,,,,,,,,,,,,,,,,,,,,,,,,,,,,,,,,,,,,,,,,,,,,,,,,,,,,,,,,,,,,,,,,,,,,,,,,,,,,,,,
,,613b7bdaa7318ef4e18e41f4,2024-02-21_20h15.41.758,kallum_motion_pilot,2023.2.2,Win32,59.88023952,613b7bdaa7318ef4e18e41f4,65d6bb0e977760de756971f7,65d6bc0e058bccc373aa7921,0.1826,0.1829,1,33,195,62,1,fourtwo,,,,,,,,,,,,,,,,,,,,,,,,,,,,,,,,,,,,,,,,,,,,,,,,,,,,,,,,,,,,,,,,,,,,,,,,,,,,,,,,,,,,,,,,,,,,,,,,,,,,,,,,,,,,,,,,,,,,,,,,,,,,,,,,,,,,,,,,,
,,613b7bdaa7318ef4e18e41f4,2024-02-21_20h15.41.758,kallum_motion_pilot,2023.2.2,Win32,59.88023952,613b7bdaa7318ef4e18e41f4,65d6bb0e977760de756971f7,65d6bc0e058bccc373aa7921,0.1832,0.1833,1,34,196,12,1,threeone,,,,,,,,,,,,,,,,,,,,,,,,,,,,,,,,,,,,,,,,,,,,,,,,,,,,,,,,,,,,,,,,,,,,,,,,,,,,,,,,,,,,,,,,,,,,,,,,,,,,,,,,,,,,,,,,,,,,,,,,,,,,,,,,,,,,,,,,,
,,613b7bdaa7318ef4e18e41f4,2024-02-21_20h15.41.758,kallum_motion_pilot,2023.2.2,Win32,59.88023952,613b7bdaa7318ef4e18e41f4,65d6bb0e977760de756971f7,65d6bc0e058bccc373aa7921,0.1835,0.1837,1,35,197,153,1,fiveseven,,,,,,,,,,,,,,,,,,,,,,,,,,,,,,,,,,,,,,,,,,,,,,,,,,,,,,,,,,,,,,,,,,,,,,,,,,,,,,,,,,,,,,,,,,,,,,,,,,,,,,,,,,,,,,,,,,,,,,,,,,,,,,,,,,,,,,,,,
,,613b7bdaa7318ef4e18e41f4,2024-02-21_20h15.41.758,kallum_motion_pilot,2023.2.2,Win32,59.88023952,613b7bdaa7318ef4e18e41f4,65d6bb0e977760de756971f7,65d6bc0e058bccc373aa7921,0.1839,0.1841,1,36,198,49,1,onethree,,,,,,,,,,,,,,,,,,,,,,,,,,,,,,,,,,,,,,,,,,,,,,,,,,,,,,,,,,,,,,,,,,,,,,,,,,,,,,,,,,,,,,,,,,,,,,,,,,,,,,,,,,,,,,,,,,,,,,,,,,,,,,,,,,,,,,,,,
,,613b7bdaa7318ef4e18e41f4,2024-02-21_20h15.41.758,kallum_motion_pilot,2023.2.2,Win32,59.88023952,613b7bdaa7318ef4e18e41f4,65d6bb0e977760de756971f7,65d6bc0e058bccc373aa7921,0.1843,0.1845,1,37,199,54,1,fourtwo,,,,,,,,,,,,,,,,,,,,,,,,,,,,,,,,,,,,,,,,,,,,,,,,,,,,,,,,,,,,,,,,,,,,,,,,,,,,,,,,,,,,,,,,,,,,,,,,,,,,,,,,,,,,,,,,,,,,,,,,,,,,,,,,,,,,,,,,,
,,613b7bdaa7318ef4e18e41f4,2024-02-21_20h15.41.758,kallum_motion_pilot,2023.2.2,Win32,59.88023952,613b7bdaa7318ef4e18e41f4,65d6bb0e977760de756971f7,65d6bc0e058bccc373aa7921,0.1847,0.1848,1,38,200,113,1,fiveseven,,,,,,,,,,,,,,,,,,,,,,,,,,,,,,,,,,,,,,,,,,,,,,,,,,,,,,,,,,,,,,,,,,,,,,,,,,,,,,,,,,,,,,,,,,,,,,,,,,,,,,,,,,,,,,,,,,,,,,,,,,,,,,,,,,,,,,,,,
,,613b7bdaa7318ef4e18e41f4,2024-02-21_20h15.41.758,kallum_motion_pilot,2023.2.2,Win32,59.88023952,613b7bdaa7318ef4e18e41f4,65d6bb0e977760de756971f7,65d6bc0e058bccc373aa7921,0.185,0.1853,1,39,201,26,1,twoone,,,,,,,,,,,,,,,,,,,,,,,,,,,,,,,,,,,,,,,,,,,,,,,,,,,,,,,,,,,,,,,,,,,,,,,,,,,,,,,,,,,,,,,,,,,,,,,,,,,,,,,,,,,,,,,,,,,,,,,,,,,,,,,,,,,,,,,,,
,,613b7bdaa7318ef4e18e41f4,2024-02-21_20h15.41.758,kallum_motion_pilot,2023.2.2,Win32,59.88023952,613b7bdaa7318ef4e18e41f4,65d6bb0e977760de756971f7,65d6bc0e058bccc373aa7921,0.1854,0.1855,1,40,202,144,1,fivesix,,,,,,,,,,,,,,,,,,,,,,,,,,,,,,,,,,,,,,,,,,,,,,,,,,,,,,,,,,,,,,,,,,,,,,,,,,,,,,,,,,,,,,,,,,,,,,,,,,,,,,,,,,,,,,,,,,,,,,,,,,,,,,,,,,,,,,,,,
,,613b7bdaa7318ef4e18e41f4,2024-02-21_20h15.41.758,kallum_motion_pilot,2023.2.2,Win32,59.88023952,613b7bdaa7318ef4e18e41f4,65d6bb0e977760de756971f7,65d6bc0e058bccc373aa7921,0.1858,0.1859,1,41,203,76,1,threeone,,,,,,,,,,,,,,,,,,,,,,,,,,,,,,,,,,,,,,,,,,,,,,,,,,,,,,,,,,,,,,,,,,,,,,,,,,,,,,,,,,,,,,,,,,,,,,,,,,,,,,,,,,,,,,,,,,,,,,,,,,,,,,,,,,,,,,,,,
,,613b7bdaa7318ef4e18e41f4,2024-02-21_20h15.41.758,kallum_motion_pilot,2023.2.2,Win32,59.88023952,613b7bdaa7318ef4e18e41f4,65d6bb0e977760de756971f7,65d6bc0e058bccc373aa7921,0.1862,0.1863,1,42,204,63,1,fourthree,,,,,,,,,,,,,,,,,,,,,,,,,,,,,,,,,,,,,,,,,,,,,,,,,,,,,,,,,,,,,,,,,,,,,,,,,,,,,,,,,,,,,,,,,,,,,,,,,,,,,,,,,,,,,,,,,,,,,,,,,,,,,,,,,,,,,,,,,
,,613b7bdaa7318ef4e18e41f4,2024-02-21_20h15.41.758,kallum_motion_pilot,2023.2.2,Win32,59.88023952,613b7bdaa7318ef4e18e41f4,65d6bb0e977760de756971f7,65d6bc0e058bccc373aa7921,0.1865,0.1867,1,43,205,3,1,twofour,,,,,,,,,,,,,,,,,,,,,,,,,,,,,,,,,,,,,,,,,,,,,,,,,,,,,,,,,,,,,,,,,,,,,,,,,,,,,,,,,,,,,,,,,,,,,,,,,,,,,,,,,,,,,,,,,,,,,,,,,,,,,,,,,,,,,,,,,
,,613b7bdaa7318ef4e18e41f4,2024-02-21_20h15.41.758,kallum_motion_pilot,2023.2.2,Win32,59.88023952,613b7bdaa7318ef4e18e41f4,65d6bb0e977760de756971f7,65d6bc0e058bccc373aa7921,0.187,0.1871,1,44,206,2,1,twoone,,,,,,,,,,,,,,,,,,,,,,,,,,,,,,,,,,,,,,,,,,,,,,,,,,,,,,,,,,,,,,,,,,,,,,,,,,,,,,,,,,,,,,,,,,,,,,,,,,,,,,,,,,,,,,,,,,,,,,,,,,,,,,,,,,,,,,,,,
,,613b7bdaa7318ef4e18e41f4,2024-02-21_20h15.41.758,kallum_motion_pilot,2023.2.2,Win32,59.88023952,613b7bdaa7318ef4e18e41f4,65d6bb0e977760de756971f7,65d6bc0e058bccc373aa7921,0.1873,0.1878,1,45,207,79,1,eightseven,,,,,,,,,,,,,,,,,,,,,,,,,,,,,,,,,,,,,,,,,,,,,,,,,,,,,,,,,,,,,,,,,,,,,,,,,,,,,,,,,,,,,,,,,,,,,,,,,,,,,,,,,,,,,,,,,,,,,,,,,,,,,,,,,,,,,,,,,
,,613b7bdaa7318ef4e18e41f4,2024-02-21_20h15.41.758,kallum_motion_pilot,2023.2.2,Win32,59.88023952,613b7bdaa7318ef4e18e41f4,65d6bb0e977760de756971f7,65d6bc0e058bccc373aa7921,0.188,0.1883,1,46,208,142,1,eightsix,,,,,,,,,,,,,,,,,,,,,,,,,,,,,,,,,,,,,,,,,,,,,,,,,,,,,,,,,,,,,,,,,,,,,,,,,,,,,,,,,,,,,,,,,,,,,,,,,,,,,,,,,,,,,,,,,,,,,,,,,,,,,,,,,,,,,,,,,
,,613b7bdaa7318ef4e18e41f4,2024-02-21_20h15.41.758,kallum_motion_pilot,2023.2.2,Win32,59.88023952,613b7bdaa7318ef4e18e41f4,65d6bb0e977760de756971f7,65d6bc0e058bccc373aa7921,0.1887,0.1899,1,47,209,120,1,fivesix,,,,,,,,,,,,,,,,,,,,,,,,,,,,,,,,,,,,,,,,,,,,,,,,,,,,,,,,,,,,,,,,,,,,,,,,,,,,,,,,,,,,,,,,,,,,,,,,,,,,,,,,,,,,,,,,,,,,,,,,,,,,,,,,,,,,,,,,,
,,613b7bdaa7318ef4e18e41f4,2024-02-21_20h15.41.758,kallum_motion_pilot,2023.2.2,Win32,59.88023952,613b7bdaa7318ef4e18e41f4,65d6bb0e977760de756971f7,65d6bc0e058bccc373aa7921,0.1931,0.1937,1,48,210,104,1,fivesix,,,,,,,,,,,,,,,,,,,,,,,,,,,,,,,,,,,,,,,,,,,,,,,,,,,,,,,,,,,,,,,,,,,,,,,,,,,,,,,,,,,,,,,,,,,,,,,,,,,,,,,,,,,,,,,,,,,,,,,,,,,,,,,,,,,,,,,,,
,,613b7bdaa7318ef4e18e41f4,2024-02-21_20h15.41.758,kallum_motion_pilot,2023.2.2,Win32,59.88023952,613b7bdaa7318ef4e18e41f4,65d6bb0e977760de756971f7,65d6bc0e058bccc373aa7921,0.194,0.1942,1,49,211,81,1,fiveseven,,,,,,,,,,,,,,,,,,,,,,,,,,,,,,,,,,,,,,,,,,,,,,,,,,,,,,,,,,,,,,,,,,,,,,,,,,,,,,,,,,,,,,,,,,,,,,,,,,,,,,,,,,,,,,,,,,,,,,,,,,,,,,,,,,,,,,,,,
,,613b7bdaa7318ef4e18e41f4,2024-02-21_20h15.41.758,kallum_motion_pilot,2023.2.2,Win32,59.88023952,613b7bdaa7318ef4e18e41f4,65d6bb0e977760de756971f7,65d6bc0e058bccc373aa7921,0.1945,0.1946,1,50,212,67,1,twofour,,,,,,,,,,,,,,,,,,,,,,,,,,,,,,,,,,,,,,,,,,,,,,,,,,,,,,,,,,,,,,,,,,,,,,,,,,,,,,,,,,,,,,,,,,,,,,,,,,,,,,,,,,,,,,,,,,,,,,,,,,,,,,,,,,,,,,,,,
,,613b7bdaa7318ef4e18e41f4,2024-02-21_20h15.41.758,kallum_motion_pilot,2023.2.2,Win32,59.88023952,613b7bdaa7318ef4e18e41f4,65d6bb0e977760de756971f7,65d6bc0e058bccc373aa7921,0.1949,0.195,1,51,213,21,1,threefour,,,,,,,,,,,,,,,,,,,,,,,,,,,,,,,,,,,,,,,,,,,,,,,,,,,,,,,,,,,,,,,,,,,,,,,,,,,,,,,,,,,,,,,,,,,,,,,,,,,,,,,,,,,,,,,,,,,,,,,,,,,,,,,,,,,,,,,,,
,,613b7bdaa7318ef4e18e41f4,2024-02-21_20h15.41.758,kallum_motion_pilot,2023.2.2,Win32,59.88023952,613b7bdaa7318ef4e18e41f4,65d6bb0e977760de756971f7,65d6bc0e058bccc373aa7921,0.1952,0.1954,1,52,214,143,1,eightseven,,,,,,,,,,,,,,,,,,,,,,,,,,,,,,,,,,,,,,,,,,,,,,,,,,,,,,,,,,,,,,,,,,,,,,,,,,,,,,,,,,,,,,,,,,,,,,,,,,,,,,,,,,,,,,,,,,,,,,,,,,,,,,,,,,,,,,,,,
,,613b7bdaa7318ef4e18e41f4,2024-02-21_20h15.41.758,kallum_motion_pilot,2023.2.2,Win32,59.88023952,613b7bdaa7318ef4e18e41f4,65d6bb0e977760de756971f7,65d6bc0e058bccc373aa7921,0.1957,0.1959,1,53,215,114,1,sixfive,,,,,,,,,,,,,,,,,,,,,,,,,,,,,,,,,,,,,,,,,,,,,,,,,,,,,,,,,,,,,,,,,,,,,,,,,,,,,,,,,,,,,,,,,,,,,,,,,,,,,,,,,,,,,,,,,,,,,,,,,,,,,,,,,,,,,,,,,
,,613b7bdaa7318ef4e18e41f4,2024-02-21_20h15.41.758,kallum_motion_pilot,2023.2.2,Win32,59.88023952,613b7bdaa7318ef4e18e41f4,65d6bb0e977760de756971f7,65d6bc0e058bccc373aa7921,0.1961,0.1963,1,54,216,80,1,fivesix,,,,,,,,,,,,,,,,,,,,,,,,,,,,,,,,,,,,,,,,,,,,,,,,,,,,,,,,,,,,,,,,,,,,,,,,,,,,,,,,,,,,,,,,,,,,,,,,,,,,,,,,,,,,,,,,,,,,,,,,,,,,,,,,,,,,,,,,,
,,613b7bdaa7318ef4e18e41f4,2024-02-21_20h15.41.758,kallum_motion_pilot,2023.2.2,Win32,59.88023952,613b7bdaa7318ef4e18e41f4,65d6bb0e977760de756971f7,65d6bc0e058bccc373aa7921,0.1965,0.1967,1,55,217,147,1,sixeight,,,,,,,,,,,,,,,,,,,,,,,,,,,,,,,,,,,,,,,,,,,,,,,,,,,,,,,,,,,,,,,,,,,,,,,,,,,,,,,,,,,,,,,,,,,,,,,,,,,,,,,,,,,,,,,,,,,,,,,,,,,,,,,,,,,,,,,,,
,,613b7bdaa7318ef4e18e41f4,2024-02-21_20h15.41.758,kallum_motion_pilot,2023.2.2,Win32,59.88023952,613b7bdaa7318ef4e18e41f4,65d6bb0e977760de756971f7,65d6bc0e058bccc373aa7921,0.1969,0.197,1,56,218,75,1,twofour,,,,,,,,,,,,,,,,,,,,,,,,,,,,,,,,,,,,,,,,,,,,,,,,,,,,,,,,,,,,,,,,,,,,,,,,,,,,,,,,,,,,,,,,,,,,,,,,,,,,,,,,,,,,,,,,,,,,,,,,,,,,,,,,,,,,,,,,,
,,613b7bdaa7318ef4e18e41f4,2024-02-21_20h15.41.758,kallum_motion_pilot,2023.2.2,Win32,59.88023952,613b7bdaa7318ef4e18e41f4,65d6bb0e977760de756971f7,65d6bc0e058bccc373aa7921,0.1973,0.1975,1,57,219,16,1,onetwo,,,,,,,,,,,,,,,,,,,,,,,,,,,,,,,,,,,,,,,,,,,,,,,,,,,,,,,,,,,,,,,,,,,,,,,,,,,,,,,,,,,,,,,,,,,,,,,,,,,,,,,,,,,,,,,,,,,,,,,,,,,,,,,,,,,,,,,,,
,,613b7bdaa7318ef4e18e41f4,2024-02-21_20h15.41.758,kallum_motion_pilot,2023.2.2,Win32,59.88023952,613b7bdaa7318ef4e18e41f4,65d6bb0e977760de756971f7,65d6bc0e058bccc373aa7921,0.1977,0.1978,1,58,220,46,1,fourtwo,,,,,,,,,,,,,,,,,,,,,,,,,,,,,,,,,,,,,,,,,,,,,,,,,,,,,,,,,,,,,,,,,,,,,,,,,,,,,,,,,,,,,,,,,,,,,,,,,,,,,,,,,,,,,,,,,,,,,,,,,,,,,,,,,,,,,,,,,
,,613b7bdaa7318ef4e18e41f4,2024-02-21_20h15.41.758,kallum_motion_pilot,2023.2.2,Win32,59.88023952,613b7bdaa7318ef4e18e41f4,65d6bb0e977760de756971f7,65d6bc0e058bccc373aa7921,0.1981,0.1983,1,59,221,23,1,fourthree,,,,,,,,,,,,,,,,,,,,,,,,,,,,,,,,,,,,,,,,,,,,,,,,,,,,,,,,,,,,,,,,,,,,,,,,,,,,,,,,,,,,,,,,,,,,,,,,,,,,,,,,,,,,,,,,,,,,,,,,,,,,,,,,,,,,,,,,,
,,613b7bdaa7318ef4e18e41f4,2024-02-21_20h15.41.758,kallum_motion_pilot,2023.2.2,Win32,59.88023952,613b7bdaa7318ef4e18e41f4,65d6bb0e977760de756971f7,65d6bc0e058bccc373aa7921,0.1985,0.1987,1,60,222,7,1,fourthree,,,,,,,,,,,,,,,,,,,,,,,,,,,,,,,,,,,,,,,,,,,,,,,,,,,,,,,,,,,,,,,,,,,,,,,,,,,,,,,,,,,,,,,,,,,,,,,,,,,,,,,,,,,,,,,,,,,,,,,,,,,,,,,,,,,,,,,,,
,,613b7bdaa7318ef4e18e41f4,2024-02-21_20h15.41.758,kallum_motion_pilot,2023.2.2,Win32,59.88023952,613b7bdaa7318ef4e18e41f4,65d6bb0e977760de756971f7,65d6bc0e058bccc373aa7921,0.1989,0.1991,1,61,223,72,1,onetwo,,,,,,,,,,,,,,,,,,,,,,,,,,,,,,,,,,,,,,,,,,,,,,,,,,,,,,,,,,,,,,,,,,,,,,,,,,,,,,,,,,,,,,,,,,,,,,,,,,,,,,,,,,,,,,,,,,,,,,,,,,,,,,,,,,,,,,,,,
,,613b7bdaa7318ef4e18e41f4,2024-02-21_20h15.41.758,kallum_motion_pilot,2023.2.2,Win32,59.88023952,613b7bdaa7318ef4e18e41f4,65d6bb0e977760de756971f7,65d6bc0e058bccc373aa7921,0.1993,0.1997,1,62,224,27,1,twofour,,,,,,,,,,,,,,,,,,,,,,,,,,,,,,,,,,,,,,,,,,,,,,,,,,,,,,,,,,,,,,,,,,,,,,,,,,,,,,,,,,,,,,,,,,,,,,,,,,,,,,,,,,,,,,,,,,,,,,,,,,,,,,,,,,,,,,,,,
,,613b7bdaa7318ef4e18e41f4,2024-02-21_20h15.41.758,kallum_motion_pilot,2023.2.2,Win32,59.88023952,613b7bdaa7318ef4e18e41f4,65d6bb0e977760de756971f7,65d6bc0e058bccc373aa7921,0.2001,0.2004,1,63,225,152,1,fivesix,,,,,,,,,,,,,,,,,,,,,,,,,,,,,,,,,,,,,,,,,,,,,,,,,,,,,,,,,,,,,,,,,,,,,,,,,,,,,,,,,,,,,,,,,,,,,,,,,,,,,,,,,,,,,,,,,,,,,,,,,,,,,,,,,,,,,,,,,
,,613b7bdaa7318ef4e18e41f4,2024-02-21_20h15.41.758,kallum_motion_pilot,2023.2.2,Win32,59.88023952,613b7bdaa7318ef4e18e41f4,65d6bb0e977760de756971f7,65d6bc0e058bccc373aa7921,0.2005,0.2008,1,64,226,53,1,threefour,,,,,,,,,,,,,,,,,,,,,,,,,,,,,,,,,,,,,,,,,,,,,,,,,,,,,,,,,,,,,,,,,,,,,,,,,,,,,,,,,,,,,,,,,,,,,,,,,,,,,,,,,,,,,,,,,,,,,,,,,,,,,,,,,,,,,,,,,
,,613b7bdaa7318ef4e18e41f4,2024-02-21_20h15.41.758,kallum_motion_pilot,2023.2.2,Win32,59.88023952,613b7bdaa7318ef4e18e41f4,65d6bb0e977760de756971f7,65d6bc0e058bccc373aa7921,0.201,0.2012,1,65,227,121,1,fiveseven,,,,,,,,,,,,,,,,,,,,,,,,,,,,,,,,,,,,,,,,,,,,,,,,,,,,,,,,,,,,,,,,,,,,,,,,,,,,,,,,,,,,,,,,,,,,,,,,,,,,,,,,,,,,,,,,,,,,,,,,,,,,,,,,,,,,,,,,,
,,613b7bdaa7318ef4e18e41f4,2024-02-21_20h15.41.758,kallum_motion_pilot,2023.2.2,Win32,59.88023952,613b7bdaa7318ef4e18e41f4,65d6bb0e977760de756971f7,65d6bc0e058bccc373aa7921,0.2014,0.2016,1,66,228,133,1,seveneight,,,,,,,,,,,,,,,,,,,,,,,,,,,,,,,,,,,,,,,,,,,,,,,,,,,,,,,,,,,,,,,,,,,,,,,,,,,,,,,,,,,,,,,,,,,,,,,,,,,,,,,,,,,,,,,,,,,,,,,,,,,,,,,,,,,,,,,,,
,,613b7bdaa7318ef4e18e41f4,2024-02-21_20h15.41.758,kallum_motion_pilot,2023.2.2,Win32,59.88023952,613b7bdaa7318ef4e18e41f4,65d6bb0e977760de756971f7,65d6bc0e058bccc373aa7921,0.2018,0.202,1,67,229,37,1,threefour,,,,,,,,,,,,,,,,,,,,,,,,,,,,,,,,,,,,,,,,,,,,,,,,,,,,,,,,,,,,,,,,,,,,,,,,,,,,,,,,,,,,,,,,,,,,,,,,,,,,,,,,,,,,,,,,,,,,,,,,,,,,,,,,,,,,,,,,,
,,613b7bdaa7318ef4e18e41f4,2024-02-21_20h15.41.758,kallum_motion_pilot,2023.2.2,Win32,59.88023952,613b7bdaa7318ef4e18e41f4,65d6bb0e977760de756971f7,65d6bc0e058bccc373aa7921,0.2022,0.2024,1,68,230,0,1,onetwo,,,,,,,,,,,,,,,,,,,,,,,,,,,,,,,,,,,,,,,,,,,,,,,,,,,,,,,,,,,,,,,,,,,,,,,,,,,,,,,,,,,,,,,,,,,,,,,,,,,,,,,,,,,,,,,,,,,,,,,,,,,,,,,,,,,,,,,,,
,,613b7bdaa7318ef4e18e41f4,2024-02-21_20h15.41.758,kallum_motion_pilot,2023.2.2,Win32,59.88023952,613b7bdaa7318ef4e18e41f4,65d6bb0e977760de756971f7,65d6bc0e058bccc373aa7921,0.2025,0.2031,1,69,231,74,1,twoone,,,,,,,,,,,,,,,,,,,,,,,,,,,,,,,,,,,,,,,,,,,,,,,,,,,,,,,,,,,,,,,,,,,,,,,,,,,,,,,,,,,,,,,,,,,,,,,,,,,,,,,,,,,,,,,,,,,,,,,,,,,,,,,,,,,,,,,,,
,,613b7bdaa7318ef4e18e41f4,2024-02-21_20h15.41.758,kallum_motion_pilot,2023.2.2,Win32,59.88023952,613b7bdaa7318ef4e18e41f4,65d6bb0e977760de756971f7,65d6bc0e058bccc373aa7921,0.2035,0.2054,1,70,232,154,1,sixfive,,,,,,,,,,,,,,,,,,,,,,,,,,,,,,,,,,,,,,,,,,,,,,,,,,,,,,,,,,,,,,,,,,,,,,,,,,,,,,,,,,,,,,,,,,,,,,,,,,,,,,,,,,,,,,,,,,,,,,,,,,,,,,,,,,,,,,,,,
,,613b7bdaa7318ef4e18e41f4,2024-02-21_20h15.41.758,kallum_motion_pilot,2023.2.2,Win32,59.88023952,613b7bdaa7318ef4e18e41f4,65d6bb0e977760de756971f7,65d6bc0e058bccc373aa7921,0.2059,0.2065,1,71,233,138,1,sixfive,,,,,,,,,,,,,,,,,,,,,,,,,,,,,,,,,,,,,,,,,,,,,,,,,,,,,,,,,,,,,,,,,,,,,,,,,,,,,,,,,,,,,,,,,,,,,,,,,,,,,,,,,,,,,,,,,,,,,,,,,,,,,,,,,,,,,,,,,
,,613b7bdaa7318ef4e18e41f4,2024-02-21_20h15.41.758,kallum_motion_pilot,2023.2.2,Win32,59.88023952,613b7bdaa7318ef4e18e41f4,65d6bb0e977760de756971f7,65d6bc0e058bccc373aa7921,0.2074,0.208,1,72,234,50,1,twoone,,,,,,,,,,,,,,,,,,,,,,,,,,,,,,,,,,,,,,,,,,,,,,,,,,,,,,,,,,,,,,,,,,,,,,,,,,,,,,,,,,,,,,,,,,,,,,,,,,,,,,,,,,,,,,,,,,,,,,,,,,,,,,,,,,,,,,,,,
,,613b7bdaa7318ef4e18e41f4,2024-02-21_20h15.41.758,kallum_motion_pilot,2023.2.2,Win32,59.88023952,613b7bdaa7318ef4e18e41f4,65d6bb0e977760de756971f7,65d6bc0e058bccc373aa7921,0.2085,0.2088,1,73,235,116,1,sevenfive,,,,,,,,,,,,,,,,,,,,,,,,,,,,,,,,,,,,,,,,,,,,,,,,,,,,,,,,,,,,,,,,,,,,,,,,,,,,,,,,,,,,,,,,,,,,,,,,,,,,,,,,,,,,,,,,,,,,,,,,,,,,,,,,,,,,,,,,,
,,613b7bdaa7318ef4e18e41f4,2024-02-21_20h15.41.758,kallum_motion_pilot,2023.2.2,Win32,59.88023952,613b7bdaa7318ef4e18e41f4,65d6bb0e977760de756971f7,65d6bc0e058bccc373aa7921,0.209,0.2092,1,74,236,97,1,fiveseven,,,,,,,,,,,,,,,,,,,,,,,,,,,,,,,,,,,,,,,,,,,,,,,,,,,,,,,,,,,,,,,,,,,,,,,,,,,,,,,,,,,,,,,,,,,,,,,,,,,,,,,,,,,,,,,,,,,,,,,,,,,,,,,,,,,,,,,,,
,,613b7bdaa7318ef4e18e41f4,2024-02-21_20h15.41.758,kallum_motion_pilot,2023.2.2,Win32,59.88023952,613b7bdaa7318ef4e18e41f4,65d6bb0e977760de756971f7,65d6bc0e058bccc373aa7921,0.2093,0.2096,1,75,237,33,1,onethree,,,,,,,,,,,,,,,,,,,,,,,,,,,,,,,,,,,,,,,,,,,,,,,,,,,,,,,,,,,,,,,,,,,,,,,,,,,,,,,,,,,,,,,,,,,,,,,,,,,,,,,,,,,,,,,,,,,,,,,,,,,,,,,,,,,,,,,,,
,,613b7bdaa7318ef4e18e41f4,2024-02-21_20h15.41.758,kallum_motion_pilot,2023.2.2,Win32,59.88023952,613b7bdaa7318ef4e18e41f4,65d6bb0e977760de756971f7,65d6bc0e058bccc373aa7921,0.2098,0.2101,1,76,238,145,1,fiveseven,,,,,,,,,,,,,,,,,,,,,,,,,,,,,,,,,,,,,,,,,,,,,,,,,,,,,,,,,,,,,,,,,,,,,,,,,,,,,,,,,,,,,,,,,,,,,,,,,,,,,,,,,,,,,,,,,,,,,,,,,,,,,,,,,,,,,,,,,
,,613b7bdaa7318ef4e18e41f4,2024-02-21_20h15.41.758,kallum_motion_pilot,2023.2.2,Win32,59.88023952,613b7bdaa7318ef4e18e41f4,65d6bb0e977760de756971f7,65d6bc0e058bccc373aa7921,0.2102,0.2106,1,77,239,51,1,twofour,,,,,,,,,,,,,,,,,,,,,,,,,,,,,,,,,,,,,,,,,,,,,,,,,,,,,,,,,,,,,,,,,,,,,,,,,,,,,,,,,,,,,,,,,,,,,,,,,,,,,,,,,,,,,,,,,,,,,,,,,,,,,,,,,,,,,,,,,
,,613b7bdaa7318ef4e18e41f4,2024-02-21_20h15.41.758,kallum_motion_pilot,2023.2.2,Win32,59.88023952,613b7bdaa7318ef4e18e41f4,65d6bb0e977760de756971f7,65d6bc0e058bccc373aa7921,0.2107,0.2108,1,78,240,14,1,fourtwo,,,,,,,,,,,,,,,,,,,,,,,,,,,,,,,,,,,,,,,,,,,,,,,,,,,,,,,,,,,,,,,,,,,,,,,,,,,,,,,,,,,,,,,,,,,,,,,,,,,,,,,,,,,,,,,,,,,,,,,,,,,,,,,,,,,,,,,,,
,,613b7bdaa7318ef4e18e41f4,2024-02-21_20h15.41.758,kallum_motion_pilot,2023.2.2,Win32,59.88023952,613b7bdaa7318ef4e18e41f4,65d6bb0e977760de756971f7,65d6bc0e058bccc373aa7921,0.2113,0.2116,1,79,241,136,1,fivesix,,,,,,,,,,,,,,,,,,,,,,,,,,,,,,,,,,,,,,,,,,,,,,,,,,,,,,,,,,,,,,,,,,,,,,,,,,,,,,,,,,,,,,,,,,,,,,,,,,,,,,,,,,,,,,,,,,,,,,,,,,,,,,,,,,,,,,,,,
,,613b7bdaa7318ef4e18e41f4,2024-02-21_20h15.41.758,kallum_motion_pilot,2023.2.2,Win32,59.88023952,613b7bdaa7318ef4e18e41f4,65d6bb0e977760de756971f7,65d6bc0e058bccc373aa7921,0.2132,0.2139,1,80,242,78,1,fourtwo,,,,,,,,,,,,,,,,,,,,,,,,,,,,,,,,,,,,,,,,,,,,,,,,,,,,,,,,,,,,,,,,,,,,,,,,,,,,,,,,,,,,,,,,,,,,,,,,,,,,,,,,,,,,,,,,,,,,,,,,,,,,,,,,,,,,,,,,,
,,613b7bdaa7318ef4e18e41f4,2024-02-21_20h15.41.758,kallum_motion_pilot,2023.2.2,Win32,59.88023952,613b7bdaa7318ef4e18e41f4,65d6bb0e977760de756971f7,65d6bc0e058bccc373aa7921,0.2143,0.2147,1,81,243,127,1,eightseven,,,,,,,,,,,,,,,,,,,,,,,,,,,,,,,,,,,,,,,,,,,,,,,,,,,,,,,,,,,,,,,,,,,,,,,,,,,,,,,,,,,,,,,,,,,,,,,,,,,,,,,,,,,,,,,,,,,,,,,,,,,,,,,,,,,,,,,,,
,,613b7bdaa7318ef4e18e41f4,2024-02-21_20h15.41.758,kallum_motion_pilot,2023.2.2,Win32,59.88023952,613b7bdaa7318ef4e18e41f4,65d6bb0e977760de756971f7,65d6bc0e058bccc373aa7921,0.2191,0.2193,1,82,244,93,1,seveneight,,,,,,,,,,,,,,,,,,,,,,,,,,,,,,,,,,,,,,,,,,,,,,,,,,,,,,,,,,,,,,,,,,,,,,,,,,,,,,,,,,,,,,,,,,,,,,,,,,,,,,,,,,,,,,,,,,,,,,,,,,,,,,,,,,,,,,,,,
,,613b7bdaa7318ef4e18e41f4,2024-02-21_20h15.41.758,kallum_motion_pilot,2023.2.2,Win32,59.88023952,613b7bdaa7318ef4e18e41f4,65d6bb0e977760de756971f7,65d6bc0e058bccc373aa7921,0.2199,0.2202,1,83,245,105,1,fiveseven,,,,,,,,,,,,,,,,,,,,,,,,,,,,,,,,,,,,,,,,,,,,,,,,,,,,,,,,,,,,,,,,,,,,,,,,,,,,,,,,,,,,,,,,,,,,,,,,,,,,,,,,,,,,,,,,,,,,,,,,,,,,,,,,,,,,,,,,,
,,613b7bdaa7318ef4e18e41f4,2024-02-21_20h15.41.758,kallum_motion_pilot,2023.2.2,Win32,59.88023952,613b7bdaa7318ef4e18e41f4,65d6bb0e977760de756971f7,65d6bc0e058bccc373aa7921,0.2207,0.2208,1,84,246,160,1,fivesix,,,,,,,,,,,,,,,,,,,,,,,,,,,,,,,,,,,,,,,,,,,,,,,,,,,,,,,,,,,,,,,,,,,,,,,,,,,,,,,,,,,,,,,,,,,,,,,,,,,,,,,,,,,,,,,,,,,,,,,,,,,,,,,,,,,,,,,,,
,,613b7bdaa7318ef4e18e41f4,2024-02-21_20h15.41.758,kallum_motion_pilot,2023.2.2,Win32,59.88023952,613b7bdaa7318ef4e18e41f4,65d6bb0e977760de756971f7,65d6bc0e058bccc373aa7921,0.221,0.2212,1,85,247,94,1,eightsix,,,,,,,,,,,,,,,,,,,,,,,,,,,,,,,,,,,,,,,,,,,,,,,,,,,,,,,,,,,,,,,,,,,,,,,,,,,,,,,,,,,,,,,,,,,,,,,,,,,,,,,,,,,,,,,,,,,,,,,,,,,,,,,,,,,,,,,,,
,,613b7bdaa7318ef4e18e41f4,2024-02-21_20h15.41.758,kallum_motion_pilot,2023.2.2,Win32,59.88023952,613b7bdaa7318ef4e18e41f4,65d6bb0e977760de756971f7,65d6bc0e058bccc373aa7921,0.2214,0.2216,1,86,248,90,1,sixfive,,,,,,,,,,,,,,,,,,,,,,,,,,,,,,,,,,,,,,,,,,,,,,,,,,,,,,,,,,,,,,,,,,,,,,,,,,,,,,,,,,,,,,,,,,,,,,,,,,,,,,,,,,,,,,,,,,,,,,,,,,,,,,,,,,,,,,,,,
,,613b7bdaa7318ef4e18e41f4,2024-02-21_20h15.41.758,kallum_motion_pilot,2023.2.2,Win32,59.88023952,613b7bdaa7318ef4e18e41f4,65d6bb0e977760de756971f7,65d6bc0e058bccc373aa7921,0.2218,0.222,1,87,249,86,1,eightsix,,,,,,,,,,,,,,,,,,,,,,,,,,,,,,,,,,,,,,,,,,,,,,,,,,,,,,,,,,,,,,,,,,,,,,,,,,,,,,,,,,,,,,,,,,,,,,,,,,,,,,,,,,,,,,,,,,,,,,,,,,,,,,,,,,,,,,,,,
,,613b7bdaa7318ef4e18e41f4,2024-02-21_20h15.41.758,kallum_motion_pilot,2023.2.2,Win32,59.88023952,613b7bdaa7318ef4e18e41f4,65d6bb0e977760de756971f7,65d6bc0e058bccc373aa7921,0.2222,0.2224,1,88,250,5,1,threefour,,,,,,,,,,,,,,,,,,,,,,,,,,,,,,,,,,,,,,,,,,,,,,,,,,,,,,,,,,,,,,,,,,,,,,,,,,,,,,,,,,,,,,,,,,,,,,,,,,,,,,,,,,,,,,,,,,,,,,,,,,,,,,,,,,,,,,,,,
,,613b7bdaa7318ef4e18e41f4,2024-02-21_20h15.41.758,kallum_motion_pilot,2023.2.2,Win32,59.88023952,613b7bdaa7318ef4e18e41f4,65d6bb0e977760de756971f7,65d6bc0e058bccc373aa7921,0.2225,0.2227,1,89,251,151,1,eightseven,,,,,,,,,,,,,,,,,,,,,,,,,,,,,,,,,,,,,,,,,,,,,,,,,,,,,,,,,,,,,,,,,,,,,,,,,,,,,,,,,,,,,,,,,,,,,,,,,,,,,,,,,,,,,,,,,,,,,,,,,,,,,,,,,,,,,,,,,
,,613b7bdaa7318ef4e18e41f4,2024-02-21_20h15.41.758,kallum_motion_pilot,2023.2.2,Win32,59.88023952,613b7bdaa7318ef4e18e41f4,65d6bb0e977760de756971f7,65d6bc0e058bccc373aa7921,0.223,0.2232,1,90,252,65,1,onethree,,,,,,,,,,,,,,,,,,,,,,,,,,,,,,,,,,,,,,,,,,,,,,,,,,,,,,,,,,,,,,,,,,,,,,,,,,,,,,,,,,,,,,,,,,,,,,,,,,,,,,,,,,,,,,,,,,,,,,,,,,,,,,,,,,,,,,,,,
,,613b7bdaa7318ef4e18e41f4,2024-02-21_20h15.41.758,kallum_motion_pilot,2023.2.2,Win32,59.88023952,613b7bdaa7318ef4e18e41f4,65d6bb0e977760de756971f7,65d6bc0e058bccc373aa7921,0.2233,0.2254,1,91,253,64,1,onetwo,,,,,,,,,,,,,,,,,,,,,,,,,,,,,,,,,,,,,,,,,,,,,,,,,,,,,,,,,,,,,,,,,,,,,,,,,,,,,,,,,,,,,,,,,,,,,,,,,,,,,,,,,,,,,,,,,,,,,,,,,,,,,,,,,,,,,,,,,
,,613b7bdaa7318ef4e18e41f4,2024-02-21_20h15.41.758,kallum_motion_pilot,2023.2.2,Win32,59.88023952,613b7bdaa7318ef4e18e41f4,65d6bb0e977760de756971f7,65d6bc0e058bccc373aa7921,0.2258,0.2259,1,92,254,44,1,threeone,,,,,,,,,,,,,,,,,,,,,,,,,,,,,,,,,,,,,,,,,,,,,,,,,,,,,,,,,,,,,,,,,,,,,,,,,,,,,,,,,,,,,,,,,,,,,,,,,,,,,,,,,,,,,,,,,,,,,,,,,,,,,,,,,,,,,,,,,
,,613b7bdaa7318ef4e18e41f4,2024-02-21_20h15.41.758,kallum_motion_pilot,2023.2.2,Win32,59.88023952,613b7bdaa7318ef4e18e41f4,65d6bb0e977760de756971f7,65d6bc0e058bccc373aa7921,0.2267,0.2268,1,93,255,28,1,threeone,,,,,,,,,,,,,,,,,,,,,,,,,,,,,,,,,,,,,,,,,,,,,,,,,,,,,,,,,,,,,,,,,,,,,,,,,,,,,,,,,,,,,,,,,,,,,,,,,,,,,,,,,,,,,,,,,,,,,,,,,,,,,,,,,,,,,,,,,
,,613b7bdaa7318ef4e18e41f4,2024-02-21_20h15.41.758,kallum_motion_pilot,2023.2.2,Win32,59.88023952,613b7bdaa7318ef4e18e41f4,65d6bb0e977760de756971f7,65d6bc0e058bccc373aa7921,0.2271,0.2273,1,94,256,31,1,fourthree,,,,,,,,,,,,,,,,,,,,,,,,,,,,,,,,,,,,,,,,,,,,,,,,,,,,,,,,,,,,,,,,,,,,,,,,,,,,,,,,,,,,,,,,,,,,,,,,,,,,,,,,,,,,,,,,,,,,,,,,,,,,,,,,,,,,,,,,,
,,613b7bdaa7318ef4e18e41f4,2024-02-21_20h15.41.758,kallum_motion_pilot,2023.2.2,Win32,59.88023952,613b7bdaa7318ef4e18e41f4,65d6bb0e977760de756971f7,65d6bc0e058bccc373aa7921,0.2275,0.2278,1,95,257,128,1,fivesix,,,,,,,,,,,,,,,,,,,,,,,,,,,,,,,,,,,,,,,,,,,,,,,,,,,,,,,,,,,,,,,,,,,,,,,,,,,,,,,,,,,,,,,,,,,,,,,,,,,,,,,,,,,,,,,,,,,,,,,,,,,,,,,,,,,,,,,,,
,,613b7bdaa7318ef4e18e41f4,2024-02-21_20h15.41.758,kallum_motion_pilot,2023.2.2,Win32,59.88023952,613b7bdaa7318ef4e18e41f4,65d6bb0e977760de756971f7,65d6bc0e058bccc373aa7921,0.228,0.2282,1,96,258,117,1,seveneight,,,,,,,,,,,,,,,,,,,,,,,,,,,,,,,,,,,,,,,,,,,,,,,,,,,,,,,,,,,,,,,,,,,,,,,,,,,,,,,,,,,,,,,,,,,,,,,,,,,,,,,,,,,,,,,,,,,,,,,,,,,,,,,,,,,,,,,,,
,,613b7bdaa7318ef4e18e41f4,2024-02-21_20h15.41.758,kallum_motion_pilot,2023.2.2,Win32,59.88023952,613b7bdaa7318ef4e18e41f4,65d6bb0e977760de756971f7,65d6bc0e058bccc373aa7921,0.2284,0.2286,1,97,259,100,1,sevenfive,,,,,,,,,,,,,,,,,,,,,,,,,,,,,,,,,,,,,,,,,,,,,,,,,,,,,,,,,,,,,,,,,,,,,,,,,,,,,,,,,,,,,,,,,,,,,,,,,,,,,,,,,,,,,,,,,,,,,,,,,,,,,,,,,,,,,,,,,
,,613b7bdaa7318ef4e18e41f4,2024-02-21_20h15.41.758,kallum_motion_pilot,2023.2.2,Win32,59.88023952,613b7bdaa7318ef4e18e41f4,65d6bb0e977760de756971f7,65d6bc0e058bccc373aa7921,0.2289,0.229,1,98,260,108,1,sevenfive,,,,,,,,,,,,,,,,,,,,,,,,,,,,,,,,,,,,,,,,,,,,,,,,,,,,,,,,,,,,,,,,,,,,,,,,,,,,,,,,,,,,,,,,,,,,,,,,,,,,,,,,,,,,,,,,,,,,,,,,,,,,,,,,,,,,,,,,,
,,613b7bdaa7318ef4e18e41f4,2024-02-21_20h15.41.758,kallum_motion_pilot,2023.2.2,Win32,59.88023952,613b7bdaa7318ef4e18e41f4,65d6bb0e977760de756971f7,65d6bc0e058bccc373aa7921,0.2293,0.2294,1,99,261,98,1,sixfive,,,,,,,,,,,,,,,,,,,,,,,,,,,,,,,,,,,,,,,,,,,,,,,,,,,,,,,,,,,,,,,,,,,,,,,,,,,,,,,,,,,,,,,,,,,,,,,,,,,,,,,,,,,,,,,,,,,,,,,,,,,,,,,,,,,,,,,,,
,,613b7bdaa7318ef4e18e41f4,2024-02-21_20h15.41.758,kallum_motion_pilot,2023.2.2,Win32,59.88023952,613b7bdaa7318ef4e18e41f4,65d6bb0e977760de756971f7,65d6bc0e058bccc373aa7921,0.2297,0.2298,1,100,262,156,1,sevenfive,,,,,,,,,,,,,,,,,,,,,,,,,,,,,,,,,,,,,,,,,,,,,,,,,,,,,,,,,,,,,,,,,,,,,,,,,,,,,,,,,,,,,,,,,,,,,,,,,,,,,,,,,,,,,,,,,,,,,,,,,,,,,,,,,,,,,,,,,
,,613b7bdaa7318ef4e18e41f4,2024-02-21_20h15.41.758,kallum_motion_pilot,2023.2.2,Win32,59.88023952,613b7bdaa7318ef4e18e41f4,65d6bb0e977760de756971f7,65d6bc0e058bccc373aa7921,0.2302,0.2304,1,101,263,135,1,eightseven,,,,,,,,,,,,,,,,,,,,,,,,,,,,,,,,,,,,,,,,,,,,,,,,,,,,,,,,,,,,,,,,,,,,,,,,,,,,,,,,,,,,,,,,,,,,,,,,,,,,,,,,,,,,,,,,,,,,,,,,,,,,,,,,,,,,,,,,,
,,613b7bdaa7318ef4e18e41f4,2024-02-21_20h15.41.758,kallum_motion_pilot,2023.2.2,Win32,59.88023952,613b7bdaa7318ef4e18e41f4,65d6bb0e977760de756971f7,65d6bc0e058bccc373aa7921,0.2309,0.2311,1,102,264,32,1,onetwo,,,,,,,,,,,,,,,,,,,,,,,,,,,,,,,,,,,,,,,,,,,,,,,,,,,,,,,,,,,,,,,,,,,,,,,,,,,,,,,,,,,,,,,,,,,,,,,,,,,,,,,,,,,,,,,,,,,,,,,,,,,,,,,,,,,,,,,,,
,,613b7bdaa7318ef4e18e41f4,2024-02-21_20h15.41.758,kallum_motion_pilot,2023.2.2,Win32,59.88023952,613b7bdaa7318ef4e18e41f4,65d6bb0e977760de756971f7,65d6bc0e058bccc373aa7921,0.2313,0.2315,1,103,265,131,1,sixeight,,,,,,,,,,,,,,,,,,,,,,,,,,,,,,,,,,,,,,,,,,,,,,,,,,,,,,,,,,,,,,,,,,,,,,,,,,,,,,,,,,,,,,,,,,,,,,,,,,,,,,,,,,,,,,,,,,,,,,,,,,,,,,,,,,,,,,,,,
,,613b7bdaa7318ef4e18e41f4,2024-02-21_20h15.41.758,kallum_motion_pilot,2023.2.2,Win32,59.88023952,613b7bdaa7318ef4e18e41f4,65d6bb0e977760de756971f7,65d6bc0e058bccc373aa7921,0.2316,0.2318,1,104,266,161,1,fiveseven,,,,,,,,,,,,,,,,,,,,,,,,,,,,,,,,,,,,,,,,,,,,,,,,,,,,,,,,,,,,,,,,,,,,,,,,,,,,,,,,,,,,,,,,,,,,,,,,,,,,,,,,,,,,,,,,,,,,,,,,,,,,,,,,,,,,,,,,,
,,613b7bdaa7318ef4e18e41f4,2024-02-21_20h15.41.758,kallum_motion_pilot,2023.2.2,Win32,59.88023952,613b7bdaa7318ef4e18e41f4,65d6bb0e977760de756971f7,65d6bc0e058bccc373aa7921,0.2321,0.2323,1,105,267,83,1,sixeight,,,,,,,,,,,,,,,,,,,,,,,,,,,,,,,,,,,,,,,,,,,,,,,,,,,,,,,,,,,,,,,,,,,,,,,,,,,,,,,,,,,,,,,,,,,,,,,,,,,,,,,,,,,,,,,,,,,,,,,,,,,,,,,,,,,,,,,,,
,,613b7bdaa7318ef4e18e41f4,2024-02-21_20h15.41.758,kallum_motion_pilot,2023.2.2,Win32,59.88023952,613b7bdaa7318ef4e18e41f4,65d6bb0e977760de756971f7,65d6bc0e058bccc373aa7921,0.2325,0.2327,1,106,268,58,1,twoone,,,,,,,,,,,,,,,,,,,,,,,,,,,,,,,,,,,,,,,,,,,,,,,,,,,,,,,,,,,,,,,,,,,,,,,,,,,,,,,,,,,,,,,,,,,,,,,,,,,,,,,,,,,,,,,,,,,,,,,,,,,,,,,,,,,,,,,,,
,,613b7bdaa7318ef4e18e41f4,2024-02-21_20h15.41.758,kallum_motion_pilot,2023.2.2,Win32,59.88023952,613b7bdaa7318ef4e18e41f4,65d6bb0e977760de756971f7,65d6bc0e058bccc373aa7921,0.2329,0.2331,1,107,269,106,1,sixfive,,,,,,,,,,,,,,,,,,,,,,,,,,,,,,,,,,,,,,,,,,,,,,,,,,,,,,,,,,,,,,,,,,,,,,,,,,,,,,,,,,,,,,,,,,,,,,,,,,,,,,,,,,,,,,,,,,,,,,,,,,,,,,,,,,,,,,,,,
,,613b7bdaa7318ef4e18e41f4,2024-02-21_20h15.41.758,kallum_motion_pilot,2023.2.2,Win32,59.88023952,613b7bdaa7318ef4e18e41f4,65d6bb0e977760de756971f7,65d6bc0e058bccc373aa7921,0.2334,0.2335,1,108,270,9,1,onethree,,,,,,,,,,,,,,,,,,,,,,,,,,,,,,,,,,,,,,,,,,,,,,,,,,,,,,,,,,,,,,,,,,,,,,,,,,,,,,,,,,,,,,,,,,,,,,,,,,,,,,,,,,,,,,,,,,,,,,,,,,,,,,,,,,,,,,,,,
,,613b7bdaa7318ef4e18e41f4,2024-02-21_20h15.41.758,kallum_motion_pilot,2023.2.2,Win32,59.88023952,613b7bdaa7318ef4e18e41f4,65d6bb0e977760de756971f7,65d6bc0e058bccc373aa7921,0.2337,0.2339,1,109,271,38,1,fourtwo,,,,,,,,,,,,,,,,,,,,,,,,,,,,,,,,,,,,,,,,,,,,,,,,,,,,,,,,,,,,,,,,,,,,,,,,,,,,,,,,,,,,,,,,,,,,,,,,,,,,,,,,,,,,,,,,,,,,,,,,,,,,,,,,,,,,,,,,,
,,613b7bdaa7318ef4e18e41f4,2024-02-21_20h15.41.758,kallum_motion_pilot,2023.2.2,Win32,59.88023952,613b7bdaa7318ef4e18e41f4,65d6bb0e977760de756971f7,65d6bc0e058bccc373aa7921,0.2341,0.2343,1,110,272,109,1,seveneight,,,,,,,,,,,,,,,,,,,,,,,,,,,,,,,,,,,,,,,,,,,,,,,,,,,,,,,,,,,,,,,,,,,,,,,,,,,,,,,,,,,,,,,,,,,,,,,,,,,,,,,,,,,,,,,,,,,,,,,,,,,,,,,,,,,,,,,,,
,,613b7bdaa7318ef4e18e41f4,2024-02-21_20h15.41.758,kallum_motion_pilot,2023.2.2,Win32,59.88023952,613b7bdaa7318ef4e18e41f4,65d6bb0e977760de756971f7,65d6bc0e058bccc373aa7921,0.2345,0.2347,1,111,273,45,1,threefour,,,,,,,,,,,,,,,,,,,,,,,,,,,,,,,,,,,,,,,,,,,,,,,,,,,,,,,,,,,,,,,,,,,,,,,,,,,,,,,,,,,,,,,,,,,,,,,,,,,,,,,,,,,,,,,,,,,,,,,,,,,,,,,,,,,,,,,,,
,,613b7bdaa7318ef4e18e41f4,2024-02-21_20h15.41.758,kallum_motion_pilot,2023.2.2,Win32,59.88023952,613b7bdaa7318ef4e18e41f4,65d6bb0e977760de756971f7,65d6bc0e058bccc373aa7921,0.2349,0.2351,1,112,274,59,1,twofour,,,,,,,,,,,,,,,,,,,,,,,,,,,,,,,,,,,,,,,,,,,,,,,,,,,,,,,,,,,,,,,,,,,,,,,,,,,,,,,,,,,,,,,,,,,,,,,,,,,,,,,,,,,,,,,,,,,,,,,,,,,,,,,,,,,,,,,,,
,,613b7bdaa7318ef4e18e41f4,2024-02-21_20h15.41.758,kallum_motion_pilot,2023.2.2,Win32,59.88023952,613b7bdaa7318ef4e18e41f4,65d6bb0e977760de756971f7,65d6bc0e058bccc373aa7921,0.2354,0.2355,1,113,275,8,1,onetwo,,,,,,,,,,,,,,,,,,,,,,,,,,,,,,,,,,,,,,,,,,,,,,,,,,,,,,,,,,,,,,,,,,,,,,,,,,,,,,,,,,,,,,,,,,,,,,,,,,,,,,,,,,,,,,,,,,,,,,,,,,,,,,,,,,,,,,,,,
,,613b7bdaa7318ef4e18e41f4,2024-02-21_20h15.41.758,kallum_motion_pilot,2023.2.2,Win32,59.88023952,613b7bdaa7318ef4e18e41f4,65d6bb0e977760de756971f7,65d6bc0e058bccc373aa7921,0.2358,0.236,1,114,276,141,1,seveneight,,,,,,,,,,,,,,,,,,,,,,,,,,,,,,,,,,,,,,,,,,,,,,,,,,,,,,,,,,,,,,,,,,,,,,,,,,,,,,,,,,,,,,,,,,,,,,,,,,,,,,,,,,,,,,,,,,,,,,,,,,,,,,,,,,,,,,,,,
,,613b7bdaa7318ef4e18e41f4,2024-02-21_20h15.41.758,kallum_motion_pilot,2023.2.2,Win32,59.88023952,613b7bdaa7318ef4e18e41f4,65d6bb0e977760de756971f7,65d6bc0e058bccc373aa7921,0.2362,0.2364,1,115,277,29,1,threefour,,,,,,,,,,,,,,,,,,,,,,,,,,,,,,,,,,,,,,,,,,,,,,,,,,,,,,,,,,,,,,,,,,,,,,,,,,,,,,,,,,,,,,,,,,,,,,,,,,,,,,,,,,,,,,,,,,,,,,,,,,,,,,,,,,,,,,,,,
