startup.started,startup.stopped,Prolific ID*,date,expName,psychopyVersion,OS,frameRate,participant,study_id,session,stimpositions.started,stimpositions.stopped,hardcoded_stimulus_positions.thisRepN,hardcoded_stimulus_positions.thisTrialN,hardcoded_stimulus_positions.thisN,hardcoded_stimulus_positions.thisIndex,hardcoded_stimulus_positions.ran,StimulusPos,stimorientation.started,stimorientation.stopped,prac_stimorientation_import_loop.thisRepN,prac_stimorientation_import_loop.thisTrialN,prac_stimorientation_import_loop.thisN,prac_stimorientation_import_loop.thisIndex,prac_stimorientation_import_loop.ran,Stimorientation,welcome_instr.started,welcome_instr.stopped,key_resp.keys,key_resp.rt,key_resp.duration,response_steppedout_1.started,response_steppedout_1.stopped,key_resp_20.keys,key_resp_20.rt,key_resp_20.duration,response_steppedout_2.started,response_steppedout_2.stopped,key_resp_19.keys,key_resp_19.rt,key_resp_19.duration,stim_response_instr.started,stim_response_instr.stopped,key_resp_15.keys,key_resp_15.rt,key_resp_15.duration,direction_instr_2.started,direction_instr_2.stopped,key_resp_9.keys,key_resp_9.rt,key_resp_9.duration,instr_prac.started,instr_prac.stopped,key_resp_10.keys,key_resp_10.rt,key_resp_10.duration,Stim1_display_prac.started,Stim1_display_prac.stopped,Ecc,Circle1_ori,Circle2_ori,response_prac.started,similarity,response_time,response_prac.stopped,mouse_5.x,mouse_5.y,mouse_5.leftButton,mouse_5.midButton,mouse_5.rightButton,mouse_5.clicked_name,responseprac_feedback.started,responseprac_feedback.stopped,summary2_prac.started,summary2_prac.stopped,mouse_6.x,mouse_6.y,mouse_6.leftButton,mouse_6.midButton,mouse_6.rightButton,mouse_6.clicked_name,duringprac.thisRepN,duringprac.thisTrialN,duringprac.thisN,duringprac.thisIndex,duringprac.ran,begin.started,begin.stopped,key_resp_22.keys,key_resp_22.rt,key_resp_22.duration,Stim1_display.started,Stim1_display.stopped,circle1_ori,circle2_ori,circle1_SF,circle2_SF,response.started,response.stopped,mouse.x,mouse.y,mouse.leftButton,mouse.midButton,mouse.rightButton,mouse.clicked_name,trialnumber,double_pass.thisRepN,double_pass.thisTrialN,double_pass.thisN,double_pass.thisIndex,double_pass.ran,double_pass.order,main_trial.thisRepN,main_trial.thisTrialN,main_trial.thisN,main_trial.thisIndex,main_trial.ran,main_trial.order,Trial_Counter,Catch,Frequencies,response_2.started,response_2.stopped,mouse_2.x,mouse_2.y,mouse_2.leftButton,mouse_2.midButton,mouse_2.rightButton,mouse_2.clicked_name,special_trial.started,special_trial.stopped,catch_1.started,catch_1.stopped,mouse_3.x,mouse_3.y,mouse_3.leftButton,mouse_3.midButton,mouse_3.rightButton,catchresponse,catchnumber,response_time_catch,response_sum.started,response_sum.stopped,mouse_11.x,mouse_11.y,mouse_11.leftButton,mouse_11.midButton,mouse_11.rightButton,flip_presentation_sequence_for_double_pass.started,flip_presentation_sequence_for_double_pass.stopped,goodbye.started,goodbye.stopped,key_resp_3.keys,key_resp_3.rt,key_resp_3.duration
0.0012,0.0015,613bd3a683a2ac56a4119aa6,2024-02-21_22h01.42.912,kallum_motion_pilot,2023.2.2,Win32,60.97560976,613bd3a683a2ac56a4119aa6,65d6bb0e977760de756971f7,65d6c4d58923259cf31ecf89,,,,,,,,,,,,,,,,,,,,,,,,,,,,,,,,,,,,,,,,,,,,,,,,,,,,,,,,,,,,,,,,,,,,,,,,,,,,,,,,,,,,,,,,,,,,,,,,,,,,,,,,,,,,,,,,,,,,,,,,,,,,,,,,,,,,,,,,,,,,,,,,,
,,613bd3a683a2ac56a4119aa6,2024-02-21_22h01.42.912,kallum_motion_pilot,2023.2.2,Win32,60.97560976,613bd3a683a2ac56a4119aa6,65d6bb0e977760de756971f7,65d6c4d58923259cf31ecf89,0.0807,0.0811,0,0,0,69,1,threefour,,,,,,,,,,,,,,,,,,,,,,,,,,,,,,,,,,,,,,,,,,,,,,,,,,,,,,,,,,,,,,,,,,,,,,,,,,,,,,,,,,,,,,,,,,,,,,,,,,,,,,,,,,,,,,,,,,,,,,,,,,,,,,,,,,,,,,,,,
,,613bd3a683a2ac56a4119aa6,2024-02-21_22h01.42.912,kallum_motion_pilot,2023.2.2,Win32,60.97560976,613bd3a683a2ac56a4119aa6,65d6bb0e977760de756971f7,65d6c4d58923259cf31ecf89,0.0818,0.0818,0,1,1,53,1,threefour,,,,,,,,,,,,,,,,,,,,,,,,,,,,,,,,,,,,,,,,,,,,,,,,,,,,,,,,,,,,,,,,,,,,,,,,,,,,,,,,,,,,,,,,,,,,,,,,,,,,,,,,,,,,,,,,,,,,,,,,,,,,,,,,,,,,,,,,,
,,613bd3a683a2ac56a4119aa6,2024-02-21_22h01.42.912,kallum_motion_pilot,2023.2.2,Win32,60.97560976,613bd3a683a2ac56a4119aa6,65d6bb0e977760de756971f7,65d6c4d58923259cf31ecf89,0.0822,0.0823,0,2,2,24,1,onetwo,,,,,,,,,,,,,,,,,,,,,,,,,,,,,,,,,,,,,,,,,,,,,,,,,,,,,,,,,,,,,,,,,,,,,,,,,,,,,,,,,,,,,,,,,,,,,,,,,,,,,,,,,,,,,,,,,,,,,,,,,,,,,,,,,,,,,,,,,
,,613bd3a683a2ac56a4119aa6,2024-02-21_22h01.42.912,kallum_motion_pilot,2023.2.2,Win32,60.97560976,613bd3a683a2ac56a4119aa6,65d6bb0e977760de756971f7,65d6c4d58923259cf31ecf89,0.0827,0.0827,0,3,3,129,1,fiveseven,,,,,,,,,,,,,,,,,,,,,,,,,,,,,,,,,,,,,,,,,,,,,,,,,,,,,,,,,,,,,,,,,,,,,,,,,,,,,,,,,,,,,,,,,,,,,,,,,,,,,,,,,,,,,,,,,,,,,,,,,,,,,,,,,,,,,,,,,
,,613bd3a683a2ac56a4119aa6,2024-02-21_22h01.42.912,kallum_motion_pilot,2023.2.2,Win32,60.97560976,613bd3a683a2ac56a4119aa6,65d6bb0e977760de756971f7,65d6c4d58923259cf31ecf89,0.083,0.0831,0,4,4,86,1,eightsix,,,,,,,,,,,,,,,,,,,,,,,,,,,,,,,,,,,,,,,,,,,,,,,,,,,,,,,,,,,,,,,,,,,,,,,,,,,,,,,,,,,,,,,,,,,,,,,,,,,,,,,,,,,,,,,,,,,,,,,,,,,,,,,,,,,,,,,,,
,,613bd3a683a2ac56a4119aa6,2024-02-21_22h01.42.912,kallum_motion_pilot,2023.2.2,Win32,60.97560976,613bd3a683a2ac56a4119aa6,65d6bb0e977760de756971f7,65d6c4d58923259cf31ecf89,0.0834,0.0835,0,5,5,156,1,sevenfive,,,,,,,,,,,,,,,,,,,,,,,,,,,,,,,,,,,,,,,,,,,,,,,,,,,,,,,,,,,,,,,,,,,,,,,,,,,,,,,,,,,,,,,,,,,,,,,,,,,,,,,,,,,,,,,,,,,,,,,,,,,,,,,,,,,,,,,,,
,,613bd3a683a2ac56a4119aa6,2024-02-21_22h01.42.912,kallum_motion_pilot,2023.2.2,Win32,60.97560976,613bd3a683a2ac56a4119aa6,65d6bb0e977760de756971f7,65d6c4d58923259cf31ecf89,0.0838,0.0839,0,6,6,130,1,sixfive,,,,,,,,,,,,,,,,,,,,,,,,,,,,,,,,,,,,,,,,,,,,,,,,,,,,,,,,,,,,,,,,,,,,,,,,,,,,,,,,,,,,,,,,,,,,,,,,,,,,,,,,,,,,,,,,,,,,,,,,,,,,,,,,,,,,,,,,,
,,613bd3a683a2ac56a4119aa6,2024-02-21_22h01.42.912,kallum_motion_pilot,2023.2.2,Win32,60.97560976,613bd3a683a2ac56a4119aa6,65d6bb0e977760de756971f7,65d6c4d58923259cf31ecf89,0.0841,0.0842,0,7,7,93,1,seveneight,,,,,,,,,,,,,,,,,,,,,,,,,,,,,,,,,,,,,,,,,,,,,,,,,,,,,,,,,,,,,,,,,,,,,,,,,,,,,,,,,,,,,,,,,,,,,,,,,,,,,,,,,,,,,,,,,,,,,,,,,,,,,,,,,,,,,,,,,
,,613bd3a683a2ac56a4119aa6,2024-02-21_22h01.42.912,kallum_motion_pilot,2023.2.2,Win32,60.97560976,613bd3a683a2ac56a4119aa6,65d6bb0e977760de756971f7,65d6c4d58923259cf31ecf89,0.0846,0.0847,0,8,8,110,1,eightsix,,,,,,,,,,,,,,,,,,,,,,,,,,,,,,,,,,,,,,,,,,,,,,,,,,,,,,,,,,,,,,,,,,,,,,,,,,,,,,,,,,,,,,,,,,,,,,,,,,,,,,,,,,,,,,,,,,,,,,,,,,,,,,,,,,,,,,,,,
,,613bd3a683a2ac56a4119aa6,2024-02-21_22h01.42.912,kallum_motion_pilot,2023.2.2,Win32,60.97560976,613bd3a683a2ac56a4119aa6,65d6bb0e977760de756971f7,65d6c4d58923259cf31ecf89,0.085,0.085,0,9,9,62,1,fourtwo,,,,,,,,,,,,,,,,,,,,,,,,,,,,,,,,,,,,,,,,,,,,,,,,,,,,,,,,,,,,,,,,,,,,,,,,,,,,,,,,,,,,,,,,,,,,,,,,,,,,,,,,,,,,,,,,,,,,,,,,,,,,,,,,,,,,,,,,,
,,613bd3a683a2ac56a4119aa6,2024-02-21_22h01.42.912,kallum_motion_pilot,2023.2.2,Win32,60.97560976,613bd3a683a2ac56a4119aa6,65d6bb0e977760de756971f7,65d6c4d58923259cf31ecf89,0.0854,0.0854,0,10,10,51,1,twofour,,,,,,,,,,,,,,,,,,,,,,,,,,,,,,,,,,,,,,,,,,,,,,,,,,,,,,,,,,,,,,,,,,,,,,,,,,,,,,,,,,,,,,,,,,,,,,,,,,,,,,,,,,,,,,,,,,,,,,,,,,,,,,,,,,,,,,,,,
,,613bd3a683a2ac56a4119aa6,2024-02-21_22h01.42.912,kallum_motion_pilot,2023.2.2,Win32,60.97560976,613bd3a683a2ac56a4119aa6,65d6bb0e977760de756971f7,65d6c4d58923259cf31ecf89,0.0904,0.0905,0,11,11,56,1,onetwo,,,,,,,,,,,,,,,,,,,,,,,,,,,,,,,,,,,,,,,,,,,,,,,,,,,,,,,,,,,,,,,,,,,,,,,,,,,,,,,,,,,,,,,,,,,,,,,,,,,,,,,,,,,,,,,,,,,,,,,,,,,,,,,,,,,,,,,,,
,,613bd3a683a2ac56a4119aa6,2024-02-21_22h01.42.912,kallum_motion_pilot,2023.2.2,Win32,60.97560976,613bd3a683a2ac56a4119aa6,65d6bb0e977760de756971f7,65d6c4d58923259cf31ecf89,0.0907,0.0909,0,12,12,116,1,sevenfive,,,,,,,,,,,,,,,,,,,,,,,,,,,,,,,,,,,,,,,,,,,,,,,,,,,,,,,,,,,,,,,,,,,,,,,,,,,,,,,,,,,,,,,,,,,,,,,,,,,,,,,,,,,,,,,,,,,,,,,,,,,,,,,,,,,,,,,,,
,,613bd3a683a2ac56a4119aa6,2024-02-21_22h01.42.912,kallum_motion_pilot,2023.2.2,Win32,60.97560976,613bd3a683a2ac56a4119aa6,65d6bb0e977760de756971f7,65d6c4d58923259cf31ecf89,0.0911,0.0911,0,13,13,8,1,onetwo,,,,,,,,,,,,,,,,,,,,,,,,,,,,,,,,,,,,,,,,,,,,,,,,,,,,,,,,,,,,,,,,,,,,,,,,,,,,,,,,,,,,,,,,,,,,,,,,,,,,,,,,,,,,,,,,,,,,,,,,,,,,,,,,,,,,,,,,,
,,613bd3a683a2ac56a4119aa6,2024-02-21_22h01.42.912,kallum_motion_pilot,2023.2.2,Win32,60.97560976,613bd3a683a2ac56a4119aa6,65d6bb0e977760de756971f7,65d6c4d58923259cf31ecf89,0.0914,0.0914,0,14,14,42,1,twoone,,,,,,,,,,,,,,,,,,,,,,,,,,,,,,,,,,,,,,,,,,,,,,,,,,,,,,,,,,,,,,,,,,,,,,,,,,,,,,,,,,,,,,,,,,,,,,,,,,,,,,,,,,,,,,,,,,,,,,,,,,,,,,,,,,,,,,,,,
,,613bd3a683a2ac56a4119aa6,2024-02-21_22h01.42.912,kallum_motion_pilot,2023.2.2,Win32,60.97560976,613bd3a683a2ac56a4119aa6,65d6bb0e977760de756971f7,65d6c4d58923259cf31ecf89,0.0916,0.0917,0,15,15,43,1,twofour,,,,,,,,,,,,,,,,,,,,,,,,,,,,,,,,,,,,,,,,,,,,,,,,,,,,,,,,,,,,,,,,,,,,,,,,,,,,,,,,,,,,,,,,,,,,,,,,,,,,,,,,,,,,,,,,,,,,,,,,,,,,,,,,,,,,,,,,,
,,613bd3a683a2ac56a4119aa6,2024-02-21_22h01.42.912,kallum_motion_pilot,2023.2.2,Win32,60.97560976,613bd3a683a2ac56a4119aa6,65d6bb0e977760de756971f7,65d6c4d58923259cf31ecf89,0.0919,0.0919,0,16,16,75,1,twofour,,,,,,,,,,,,,,,,,,,,,,,,,,,,,,,,,,,,,,,,,,,,,,,,,,,,,,,,,,,,,,,,,,,,,,,,,,,,,,,,,,,,,,,,,,,,,,,,,,,,,,,,,,,,,,,,,,,,,,,,,,,,,,,,,,,,,,,,,
,,613bd3a683a2ac56a4119aa6,2024-02-21_22h01.42.912,kallum_motion_pilot,2023.2.2,Win32,60.97560976,613bd3a683a2ac56a4119aa6,65d6bb0e977760de756971f7,65d6c4d58923259cf31ecf89,0.0922,0.0923,0,17,17,2,1,twoone,,,,,,,,,,,,,,,,,,,,,,,,,,,,,,,,,,,,,,,,,,,,,,,,,,,,,,,,,,,,,,,,,,,,,,,,,,,,,,,,,,,,,,,,,,,,,,,,,,,,,,,,,,,,,,,,,,,,,,,,,,,,,,,,,,,,,,,,,
,,613bd3a683a2ac56a4119aa6,2024-02-21_22h01.42.912,kallum_motion_pilot,2023.2.2,Win32,60.97560976,613bd3a683a2ac56a4119aa6,65d6bb0e977760de756971f7,65d6c4d58923259cf31ecf89,0.0925,0.0927,0,18,18,131,1,sixeight,,,,,,,,,,,,,,,,,,,,,,,,,,,,,,,,,,,,,,,,,,,,,,,,,,,,,,,,,,,,,,,,,,,,,,,,,,,,,,,,,,,,,,,,,,,,,,,,,,,,,,,,,,,,,,,,,,,,,,,,,,,,,,,,,,,,,,,,,
,,613bd3a683a2ac56a4119aa6,2024-02-21_22h01.42.912,kallum_motion_pilot,2023.2.2,Win32,60.97560976,613bd3a683a2ac56a4119aa6,65d6bb0e977760de756971f7,65d6c4d58923259cf31ecf89,0.093,0.0932,0,19,19,76,1,threeone,,,,,,,,,,,,,,,,,,,,,,,,,,,,,,,,,,,,,,,,,,,,,,,,,,,,,,,,,,,,,,,,,,,,,,,,,,,,,,,,,,,,,,,,,,,,,,,,,,,,,,,,,,,,,,,,,,,,,,,,,,,,,,,,,,,,,,,,,
,,613bd3a683a2ac56a4119aa6,2024-02-21_22h01.42.912,kallum_motion_pilot,2023.2.2,Win32,60.97560976,613bd3a683a2ac56a4119aa6,65d6bb0e977760de756971f7,65d6c4d58923259cf31ecf89,0.0933,0.0935,0,20,20,66,1,twoone,,,,,,,,,,,,,,,,,,,,,,,,,,,,,,,,,,,,,,,,,,,,,,,,,,,,,,,,,,,,,,,,,,,,,,,,,,,,,,,,,,,,,,,,,,,,,,,,,,,,,,,,,,,,,,,,,,,,,,,,,,,,,,,,,,,,,,,,,
,,613bd3a683a2ac56a4119aa6,2024-02-21_22h01.42.912,kallum_motion_pilot,2023.2.2,Win32,60.97560976,613bd3a683a2ac56a4119aa6,65d6bb0e977760de756971f7,65d6c4d58923259cf31ecf89,0.0937,0.0938,0,21,21,91,1,sixeight,,,,,,,,,,,,,,,,,,,,,,,,,,,,,,,,,,,,,,,,,,,,,,,,,,,,,,,,,,,,,,,,,,,,,,,,,,,,,,,,,,,,,,,,,,,,,,,,,,,,,,,,,,,,,,,,,,,,,,,,,,,,,,,,,,,,,,,,,
,,613bd3a683a2ac56a4119aa6,2024-02-21_22h01.42.912,kallum_motion_pilot,2023.2.2,Win32,60.97560976,613bd3a683a2ac56a4119aa6,65d6bb0e977760de756971f7,65d6c4d58923259cf31ecf89,0.094,0.094,0,22,22,73,1,onethree,,,,,,,,,,,,,,,,,,,,,,,,,,,,,,,,,,,,,,,,,,,,,,,,,,,,,,,,,,,,,,,,,,,,,,,,,,,,,,,,,,,,,,,,,,,,,,,,,,,,,,,,,,,,,,,,,,,,,,,,,,,,,,,,,,,,,,,,,
,,613bd3a683a2ac56a4119aa6,2024-02-21_22h01.42.912,kallum_motion_pilot,2023.2.2,Win32,60.97560976,613bd3a683a2ac56a4119aa6,65d6bb0e977760de756971f7,65d6c4d58923259cf31ecf89,0.0943,0.0943,0,23,23,159,1,eightseven,,,,,,,,,,,,,,,,,,,,,,,,,,,,,,,,,,,,,,,,,,,,,,,,,,,,,,,,,,,,,,,,,,,,,,,,,,,,,,,,,,,,,,,,,,,,,,,,,,,,,,,,,,,,,,,,,,,,,,,,,,,,,,,,,,,,,,,,,
,,613bd3a683a2ac56a4119aa6,2024-02-21_22h01.42.912,kallum_motion_pilot,2023.2.2,Win32,60.97560976,613bd3a683a2ac56a4119aa6,65d6bb0e977760de756971f7,65d6c4d58923259cf31ecf89,0.0946,0.0947,0,24,24,0,1,onetwo,,,,,,,,,,,,,,,,,,,,,,,,,,,,,,,,,,,,,,,,,,,,,,,,,,,,,,,,,,,,,,,,,,,,,,,,,,,,,,,,,,,,,,,,,,,,,,,,,,,,,,,,,,,,,,,,,,,,,,,,,,,,,,,,,,,,,,,,,
,,613bd3a683a2ac56a4119aa6,2024-02-21_22h01.42.912,kallum_motion_pilot,2023.2.2,Win32,60.97560976,613bd3a683a2ac56a4119aa6,65d6bb0e977760de756971f7,65d6c4d58923259cf31ecf89,0.0951,0.0951,0,25,25,126,1,eightsix,,,,,,,,,,,,,,,,,,,,,,,,,,,,,,,,,,,,,,,,,,,,,,,,,,,,,,,,,,,,,,,,,,,,,,,,,,,,,,,,,,,,,,,,,,,,,,,,,,,,,,,,,,,,,,,,,,,,,,,,,,,,,,,,,,,,,,,,,
,,613bd3a683a2ac56a4119aa6,2024-02-21_22h01.42.912,kallum_motion_pilot,2023.2.2,Win32,60.97560976,613bd3a683a2ac56a4119aa6,65d6bb0e977760de756971f7,65d6c4d58923259cf31ecf89,0.0954,0.0955,0,26,26,118,1,eightsix,,,,,,,,,,,,,,,,,,,,,,,,,,,,,,,,,,,,,,,,,,,,,,,,,,,,,,,,,,,,,,,,,,,,,,,,,,,,,,,,,,,,,,,,,,,,,,,,,,,,,,,,,,,,,,,,,,,,,,,,,,,,,,,,,,,,,,,,,
,,613bd3a683a2ac56a4119aa6,2024-02-21_22h01.42.912,kallum_motion_pilot,2023.2.2,Win32,60.97560976,613bd3a683a2ac56a4119aa6,65d6bb0e977760de756971f7,65d6c4d58923259cf31ecf89,0.0957,0.0957,0,27,27,127,1,eightseven,,,,,,,,,,,,,,,,,,,,,,,,,,,,,,,,,,,,,,,,,,,,,,,,,,,,,,,,,,,,,,,,,,,,,,,,,,,,,,,,,,,,,,,,,,,,,,,,,,,,,,,,,,,,,,,,,,,,,,,,,,,,,,,,,,,,,,,,,
,,613bd3a683a2ac56a4119aa6,2024-02-21_22h01.42.912,kallum_motion_pilot,2023.2.2,Win32,60.97560976,613bd3a683a2ac56a4119aa6,65d6bb0e977760de756971f7,65d6c4d58923259cf31ecf89,0.096,0.0961,0,28,28,154,1,sixfive,,,,,,,,,,,,,,,,,,,,,,,,,,,,,,,,,,,,,,,,,,,,,,,,,,,,,,,,,,,,,,,,,,,,,,,,,,,,,,,,,,,,,,,,,,,,,,,,,,,,,,,,,,,,,,,,,,,,,,,,,,,,,,,,,,,,,,,,,
,,613bd3a683a2ac56a4119aa6,2024-02-21_22h01.42.912,kallum_motion_pilot,2023.2.2,Win32,60.97560976,613bd3a683a2ac56a4119aa6,65d6bb0e977760de756971f7,65d6c4d58923259cf31ecf89,0.0963,0.0964,0,29,29,41,1,onethree,,,,,,,,,,,,,,,,,,,,,,,,,,,,,,,,,,,,,,,,,,,,,,,,,,,,,,,,,,,,,,,,,,,,,,,,,,,,,,,,,,,,,,,,,,,,,,,,,,,,,,,,,,,,,,,,,,,,,,,,,,,,,,,,,,,,,,,,,
,,613bd3a683a2ac56a4119aa6,2024-02-21_22h01.42.912,kallum_motion_pilot,2023.2.2,Win32,60.97560976,613bd3a683a2ac56a4119aa6,65d6bb0e977760de756971f7,65d6c4d58923259cf31ecf89,0.0966,0.0967,0,30,30,58,1,twoone,,,,,,,,,,,,,,,,,,,,,,,,,,,,,,,,,,,,,,,,,,,,,,,,,,,,,,,,,,,,,,,,,,,,,,,,,,,,,,,,,,,,,,,,,,,,,,,,,,,,,,,,,,,,,,,,,,,,,,,,,,,,,,,,,,,,,,,,,
,,613bd3a683a2ac56a4119aa6,2024-02-21_22h01.42.912,kallum_motion_pilot,2023.2.2,Win32,60.97560976,613bd3a683a2ac56a4119aa6,65d6bb0e977760de756971f7,65d6c4d58923259cf31ecf89,0.097,0.097,0,31,31,124,1,sevenfive,,,,,,,,,,,,,,,,,,,,,,,,,,,,,,,,,,,,,,,,,,,,,,,,,,,,,,,,,,,,,,,,,,,,,,,,,,,,,,,,,,,,,,,,,,,,,,,,,,,,,,,,,,,,,,,,,,,,,,,,,,,,,,,,,,,,,,,,,
,,613bd3a683a2ac56a4119aa6,2024-02-21_22h01.42.912,kallum_motion_pilot,2023.2.2,Win32,60.97560976,613bd3a683a2ac56a4119aa6,65d6bb0e977760de756971f7,65d6c4d58923259cf31ecf89,0.0972,0.0972,0,32,32,112,1,fivesix,,,,,,,,,,,,,,,,,,,,,,,,,,,,,,,,,,,,,,,,,,,,,,,,,,,,,,,,,,,,,,,,,,,,,,,,,,,,,,,,,,,,,,,,,,,,,,,,,,,,,,,,,,,,,,,,,,,,,,,,,,,,,,,,,,,,,,,,,
,,613bd3a683a2ac56a4119aa6,2024-02-21_22h01.42.912,kallum_motion_pilot,2023.2.2,Win32,60.97560976,613bd3a683a2ac56a4119aa6,65d6bb0e977760de756971f7,65d6c4d58923259cf31ecf89,0.0975,0.0976,0,33,33,61,1,threefour,,,,,,,,,,,,,,,,,,,,,,,,,,,,,,,,,,,,,,,,,,,,,,,,,,,,,,,,,,,,,,,,,,,,,,,,,,,,,,,,,,,,,,,,,,,,,,,,,,,,,,,,,,,,,,,,,,,,,,,,,,,,,,,,,,,,,,,,,
,,613bd3a683a2ac56a4119aa6,2024-02-21_22h01.42.912,kallum_motion_pilot,2023.2.2,Win32,60.97560976,613bd3a683a2ac56a4119aa6,65d6bb0e977760de756971f7,65d6c4d58923259cf31ecf89,0.0978,0.0979,0,34,34,103,1,eightseven,,,,,,,,,,,,,,,,,,,,,,,,,,,,,,,,,,,,,,,,,,,,,,,,,,,,,,,,,,,,,,,,,,,,,,,,,,,,,,,,,,,,,,,,,,,,,,,,,,,,,,,,,,,,,,,,,,,,,,,,,,,,,,,,,,,,,,,,,
,,613bd3a683a2ac56a4119aa6,2024-02-21_22h01.42.912,kallum_motion_pilot,2023.2.2,Win32,60.97560976,613bd3a683a2ac56a4119aa6,65d6bb0e977760de756971f7,65d6c4d58923259cf31ecf89,0.0981,0.0982,0,35,35,60,1,threeone,,,,,,,,,,,,,,,,,,,,,,,,,,,,,,,,,,,,,,,,,,,,,,,,,,,,,,,,,,,,,,,,,,,,,,,,,,,,,,,,,,,,,,,,,,,,,,,,,,,,,,,,,,,,,,,,,,,,,,,,,,,,,,,,,,,,,,,,,
,,613bd3a683a2ac56a4119aa6,2024-02-21_22h01.42.912,kallum_motion_pilot,2023.2.2,Win32,60.97560976,613bd3a683a2ac56a4119aa6,65d6bb0e977760de756971f7,65d6c4d58923259cf31ecf89,0.0984,0.0985,0,36,36,44,1,threeone,,,,,,,,,,,,,,,,,,,,,,,,,,,,,,,,,,,,,,,,,,,,,,,,,,,,,,,,,,,,,,,,,,,,,,,,,,,,,,,,,,,,,,,,,,,,,,,,,,,,,,,,,,,,,,,,,,,,,,,,,,,,,,,,,,,,,,,,,
,,613bd3a683a2ac56a4119aa6,2024-02-21_22h01.42.912,kallum_motion_pilot,2023.2.2,Win32,60.97560976,613bd3a683a2ac56a4119aa6,65d6bb0e977760de756971f7,65d6c4d58923259cf31ecf89,0.0987,0.0988,0,37,37,48,1,onetwo,,,,,,,,,,,,,,,,,,,,,,,,,,,,,,,,,,,,,,,,,,,,,,,,,,,,,,,,,,,,,,,,,,,,,,,,,,,,,,,,,,,,,,,,,,,,,,,,,,,,,,,,,,,,,,,,,,,,,,,,,,,,,,,,,,,,,,,,,
,,613bd3a683a2ac56a4119aa6,2024-02-21_22h01.42.912,kallum_motion_pilot,2023.2.2,Win32,60.97560976,613bd3a683a2ac56a4119aa6,65d6bb0e977760de756971f7,65d6c4d58923259cf31ecf89,0.099,0.0991,0,38,38,5,1,threefour,,,,,,,,,,,,,,,,,,,,,,,,,,,,,,,,,,,,,,,,,,,,,,,,,,,,,,,,,,,,,,,,,,,,,,,,,,,,,,,,,,,,,,,,,,,,,,,,,,,,,,,,,,,,,,,,,,,,,,,,,,,,,,,,,,,,,,,,,
,,613bd3a683a2ac56a4119aa6,2024-02-21_22h01.42.912,kallum_motion_pilot,2023.2.2,Win32,60.97560976,613bd3a683a2ac56a4119aa6,65d6bb0e977760de756971f7,65d6c4d58923259cf31ecf89,0.0993,0.0993,0,39,39,106,1,sixfive,,,,,,,,,,,,,,,,,,,,,,,,,,,,,,,,,,,,,,,,,,,,,,,,,,,,,,,,,,,,,,,,,,,,,,,,,,,,,,,,,,,,,,,,,,,,,,,,,,,,,,,,,,,,,,,,,,,,,,,,,,,,,,,,,,,,,,,,,
,,613bd3a683a2ac56a4119aa6,2024-02-21_22h01.42.912,kallum_motion_pilot,2023.2.2,Win32,60.97560976,613bd3a683a2ac56a4119aa6,65d6bb0e977760de756971f7,65d6c4d58923259cf31ecf89,0.0996,0.0997,0,40,40,45,1,threefour,,,,,,,,,,,,,,,,,,,,,,,,,,,,,,,,,,,,,,,,,,,,,,,,,,,,,,,,,,,,,,,,,,,,,,,,,,,,,,,,,,,,,,,,,,,,,,,,,,,,,,,,,,,,,,,,,,,,,,,,,,,,,,,,,,,,,,,,,
,,613bd3a683a2ac56a4119aa6,2024-02-21_22h01.42.912,kallum_motion_pilot,2023.2.2,Win32,60.97560976,613bd3a683a2ac56a4119aa6,65d6bb0e977760de756971f7,65d6c4d58923259cf31ecf89,0.0999,0.1,0,41,41,47,1,fourthree,,,,,,,,,,,,,,,,,,,,,,,,,,,,,,,,,,,,,,,,,,,,,,,,,,,,,,,,,,,,,,,,,,,,,,,,,,,,,,,,,,,,,,,,,,,,,,,,,,,,,,,,,,,,,,,,,,,,,,,,,,,,,,,,,,,,,,,,,
,,613bd3a683a2ac56a4119aa6,2024-02-21_22h01.42.912,kallum_motion_pilot,2023.2.2,Win32,60.97560976,613bd3a683a2ac56a4119aa6,65d6bb0e977760de756971f7,65d6c4d58923259cf31ecf89,0.1002,0.1004,0,42,42,31,1,fourthree,,,,,,,,,,,,,,,,,,,,,,,,,,,,,,,,,,,,,,,,,,,,,,,,,,,,,,,,,,,,,,,,,,,,,,,,,,,,,,,,,,,,,,,,,,,,,,,,,,,,,,,,,,,,,,,,,,,,,,,,,,,,,,,,,,,,,,,,,
,,613bd3a683a2ac56a4119aa6,2024-02-21_22h01.42.912,kallum_motion_pilot,2023.2.2,Win32,60.97560976,613bd3a683a2ac56a4119aa6,65d6bb0e977760de756971f7,65d6c4d58923259cf31ecf89,0.1007,0.1007,0,43,43,117,1,seveneight,,,,,,,,,,,,,,,,,,,,,,,,,,,,,,,,,,,,,,,,,,,,,,,,,,,,,,,,,,,,,,,,,,,,,,,,,,,,,,,,,,,,,,,,,,,,,,,,,,,,,,,,,,,,,,,,,,,,,,,,,,,,,,,,,,,,,,,,,
,,613bd3a683a2ac56a4119aa6,2024-02-21_22h01.42.912,kallum_motion_pilot,2023.2.2,Win32,60.97560976,613bd3a683a2ac56a4119aa6,65d6bb0e977760de756971f7,65d6c4d58923259cf31ecf89,0.101,0.1011,0,44,44,57,1,onethree,,,,,,,,,,,,,,,,,,,,,,,,,,,,,,,,,,,,,,,,,,,,,,,,,,,,,,,,,,,,,,,,,,,,,,,,,,,,,,,,,,,,,,,,,,,,,,,,,,,,,,,,,,,,,,,,,,,,,,,,,,,,,,,,,,,,,,,,,
,,613bd3a683a2ac56a4119aa6,2024-02-21_22h01.42.912,kallum_motion_pilot,2023.2.2,Win32,60.97560976,613bd3a683a2ac56a4119aa6,65d6bb0e977760de756971f7,65d6c4d58923259cf31ecf89,0.1014,0.1014,0,45,45,15,1,fourthree,,,,,,,,,,,,,,,,,,,,,,,,,,,,,,,,,,,,,,,,,,,,,,,,,,,,,,,,,,,,,,,,,,,,,,,,,,,,,,,,,,,,,,,,,,,,,,,,,,,,,,,,,,,,,,,,,,,,,,,,,,,,,,,,,,,,,,,,,
,,613bd3a683a2ac56a4119aa6,2024-02-21_22h01.42.912,kallum_motion_pilot,2023.2.2,Win32,60.97560976,613bd3a683a2ac56a4119aa6,65d6bb0e977760de756971f7,65d6c4d58923259cf31ecf89,0.1017,0.1018,0,46,46,157,1,seveneight,,,,,,,,,,,,,,,,,,,,,,,,,,,,,,,,,,,,,,,,,,,,,,,,,,,,,,,,,,,,,,,,,,,,,,,,,,,,,,,,,,,,,,,,,,,,,,,,,,,,,,,,,,,,,,,,,,,,,,,,,,,,,,,,,,,,,,,,,
,,613bd3a683a2ac56a4119aa6,2024-02-21_22h01.42.912,kallum_motion_pilot,2023.2.2,Win32,60.97560976,613bd3a683a2ac56a4119aa6,65d6bb0e977760de756971f7,65d6c4d58923259cf31ecf89,0.102,0.102,0,47,47,11,1,twofour,,,,,,,,,,,,,,,,,,,,,,,,,,,,,,,,,,,,,,,,,,,,,,,,,,,,,,,,,,,,,,,,,,,,,,,,,,,,,,,,,,,,,,,,,,,,,,,,,,,,,,,,,,,,,,,,,,,,,,,,,,,,,,,,,,,,,,,,,
,,613bd3a683a2ac56a4119aa6,2024-02-21_22h01.42.912,kallum_motion_pilot,2023.2.2,Win32,60.97560976,613bd3a683a2ac56a4119aa6,65d6bb0e977760de756971f7,65d6c4d58923259cf31ecf89,0.1023,0.1024,0,48,48,39,1,fourthree,,,,,,,,,,,,,,,,,,,,,,,,,,,,,,,,,,,,,,,,,,,,,,,,,,,,,,,,,,,,,,,,,,,,,,,,,,,,,,,,,,,,,,,,,,,,,,,,,,,,,,,,,,,,,,,,,,,,,,,,,,,,,,,,,,,,,,,,,
,,613bd3a683a2ac56a4119aa6,2024-02-21_22h01.42.912,kallum_motion_pilot,2023.2.2,Win32,60.97560976,613bd3a683a2ac56a4119aa6,65d6bb0e977760de756971f7,65d6c4d58923259cf31ecf89,0.1025,0.1027,0,49,49,55,1,fourthree,,,,,,,,,,,,,,,,,,,,,,,,,,,,,,,,,,,,,,,,,,,,,,,,,,,,,,,,,,,,,,,,,,,,,,,,,,,,,,,,,,,,,,,,,,,,,,,,,,,,,,,,,,,,,,,,,,,,,,,,,,,,,,,,,,,,,,,,,
,,613bd3a683a2ac56a4119aa6,2024-02-21_22h01.42.912,kallum_motion_pilot,2023.2.2,Win32,60.97560976,613bd3a683a2ac56a4119aa6,65d6bb0e977760de756971f7,65d6c4d58923259cf31ecf89,0.1029,0.1029,0,50,50,153,1,fiveseven,,,,,,,,,,,,,,,,,,,,,,,,,,,,,,,,,,,,,,,,,,,,,,,,,,,,,,,,,,,,,,,,,,,,,,,,,,,,,,,,,,,,,,,,,,,,,,,,,,,,,,,,,,,,,,,,,,,,,,,,,,,,,,,,,,,,,,,,,
,,613bd3a683a2ac56a4119aa6,2024-02-21_22h01.42.912,kallum_motion_pilot,2023.2.2,Win32,60.97560976,613bd3a683a2ac56a4119aa6,65d6bb0e977760de756971f7,65d6c4d58923259cf31ecf89,0.1032,0.1033,0,51,51,6,1,fourtwo,,,,,,,,,,,,,,,,,,,,,,,,,,,,,,,,,,,,,,,,,,,,,,,,,,,,,,,,,,,,,,,,,,,,,,,,,,,,,,,,,,,,,,,,,,,,,,,,,,,,,,,,,,,,,,,,,,,,,,,,,,,,,,,,,,,,,,,,,
,,613bd3a683a2ac56a4119aa6,2024-02-21_22h01.42.912,kallum_motion_pilot,2023.2.2,Win32,60.97560976,613bd3a683a2ac56a4119aa6,65d6bb0e977760de756971f7,65d6c4d58923259cf31ecf89,0.1036,0.1037,0,52,52,147,1,sixeight,,,,,,,,,,,,,,,,,,,,,,,,,,,,,,,,,,,,,,,,,,,,,,,,,,,,,,,,,,,,,,,,,,,,,,,,,,,,,,,,,,,,,,,,,,,,,,,,,,,,,,,,,,,,,,,,,,,,,,,,,,,,,,,,,,,,,,,,,
,,613bd3a683a2ac56a4119aa6,2024-02-21_22h01.42.912,kallum_motion_pilot,2023.2.2,Win32,60.97560976,613bd3a683a2ac56a4119aa6,65d6bb0e977760de756971f7,65d6c4d58923259cf31ecf89,0.1038,0.1039,0,53,53,111,1,eightseven,,,,,,,,,,,,,,,,,,,,,,,,,,,,,,,,,,,,,,,,,,,,,,,,,,,,,,,,,,,,,,,,,,,,,,,,,,,,,,,,,,,,,,,,,,,,,,,,,,,,,,,,,,,,,,,,,,,,,,,,,,,,,,,,,,,,,,,,,
,,613bd3a683a2ac56a4119aa6,2024-02-21_22h01.42.912,kallum_motion_pilot,2023.2.2,Win32,60.97560976,613bd3a683a2ac56a4119aa6,65d6bb0e977760de756971f7,65d6c4d58923259cf31ecf89,0.1041,0.1043,0,54,54,161,1,fiveseven,,,,,,,,,,,,,,,,,,,,,,,,,,,,,,,,,,,,,,,,,,,,,,,,,,,,,,,,,,,,,,,,,,,,,,,,,,,,,,,,,,,,,,,,,,,,,,,,,,,,,,,,,,,,,,,,,,,,,,,,,,,,,,,,,,,,,,,,,
,,613bd3a683a2ac56a4119aa6,2024-02-21_22h01.42.912,kallum_motion_pilot,2023.2.2,Win32,60.97560976,613bd3a683a2ac56a4119aa6,65d6bb0e977760de756971f7,65d6c4d58923259cf31ecf89,0.1045,0.1046,0,55,55,144,1,fivesix,,,,,,,,,,,,,,,,,,,,,,,,,,,,,,,,,,,,,,,,,,,,,,,,,,,,,,,,,,,,,,,,,,,,,,,,,,,,,,,,,,,,,,,,,,,,,,,,,,,,,,,,,,,,,,,,,,,,,,,,,,,,,,,,,,,,,,,,,
,,613bd3a683a2ac56a4119aa6,2024-02-21_22h01.42.912,kallum_motion_pilot,2023.2.2,Win32,60.97560976,613bd3a683a2ac56a4119aa6,65d6bb0e977760de756971f7,65d6c4d58923259cf31ecf89,0.1048,0.105,0,56,56,104,1,fivesix,,,,,,,,,,,,,,,,,,,,,,,,,,,,,,,,,,,,,,,,,,,,,,,,,,,,,,,,,,,,,,,,,,,,,,,,,,,,,,,,,,,,,,,,,,,,,,,,,,,,,,,,,,,,,,,,,,,,,,,,,,,,,,,,,,,,,,,,,
,,613bd3a683a2ac56a4119aa6,2024-02-21_22h01.42.912,kallum_motion_pilot,2023.2.2,Win32,60.97560976,613bd3a683a2ac56a4119aa6,65d6bb0e977760de756971f7,65d6c4d58923259cf31ecf89,0.1051,0.1052,0,57,57,72,1,onetwo,,,,,,,,,,,,,,,,,,,,,,,,,,,,,,,,,,,,,,,,,,,,,,,,,,,,,,,,,,,,,,,,,,,,,,,,,,,,,,,,,,,,,,,,,,,,,,,,,,,,,,,,,,,,,,,,,,,,,,,,,,,,,,,,,,,,,,,,,
,,613bd3a683a2ac56a4119aa6,2024-02-21_22h01.42.912,kallum_motion_pilot,2023.2.2,Win32,60.97560976,613bd3a683a2ac56a4119aa6,65d6bb0e977760de756971f7,65d6c4d58923259cf31ecf89,0.1054,0.1055,0,58,58,52,1,threeone,,,,,,,,,,,,,,,,,,,,,,,,,,,,,,,,,,,,,,,,,,,,,,,,,,,,,,,,,,,,,,,,,,,,,,,,,,,,,,,,,,,,,,,,,,,,,,,,,,,,,,,,,,,,,,,,,,,,,,,,,,,,,,,,,,,,,,,,,
,,613bd3a683a2ac56a4119aa6,2024-02-21_22h01.42.912,kallum_motion_pilot,2023.2.2,Win32,60.97560976,613bd3a683a2ac56a4119aa6,65d6bb0e977760de756971f7,65d6c4d58923259cf31ecf89,0.1058,0.1059,0,59,59,160,1,fivesix,,,,,,,,,,,,,,,,,,,,,,,,,,,,,,,,,,,,,,,,,,,,,,,,,,,,,,,,,,,,,,,,,,,,,,,,,,,,,,,,,,,,,,,,,,,,,,,,,,,,,,,,,,,,,,,,,,,,,,,,,,,,,,,,,,,,,,,,,
,,613bd3a683a2ac56a4119aa6,2024-02-21_22h01.42.912,kallum_motion_pilot,2023.2.2,Win32,60.97560976,613bd3a683a2ac56a4119aa6,65d6bb0e977760de756971f7,65d6c4d58923259cf31ecf89,0.1061,0.1062,0,60,60,139,1,sixeight,,,,,,,,,,,,,,,,,,,,,,,,,,,,,,,,,,,,,,,,,,,,,,,,,,,,,,,,,,,,,,,,,,,,,,,,,,,,,,,,,,,,,,,,,,,,,,,,,,,,,,,,,,,,,,,,,,,,,,,,,,,,,,,,,,,,,,,,,
,,613bd3a683a2ac56a4119aa6,2024-02-21_22h01.42.912,kallum_motion_pilot,2023.2.2,Win32,60.97560976,613bd3a683a2ac56a4119aa6,65d6bb0e977760de756971f7,65d6c4d58923259cf31ecf89,0.1065,0.1066,0,61,61,143,1,eightseven,,,,,,,,,,,,,,,,,,,,,,,,,,,,,,,,,,,,,,,,,,,,,,,,,,,,,,,,,,,,,,,,,,,,,,,,,,,,,,,,,,,,,,,,,,,,,,,,,,,,,,,,,,,,,,,,,,,,,,,,,,,,,,,,,,,,,,,,,
,,613bd3a683a2ac56a4119aa6,2024-02-21_22h01.42.912,kallum_motion_pilot,2023.2.2,Win32,60.97560976,613bd3a683a2ac56a4119aa6,65d6bb0e977760de756971f7,65d6c4d58923259cf31ecf89,0.1068,0.1069,0,62,62,83,1,sixeight,,,,,,,,,,,,,,,,,,,,,,,,,,,,,,,,,,,,,,,,,,,,,,,,,,,,,,,,,,,,,,,,,,,,,,,,,,,,,,,,,,,,,,,,,,,,,,,,,,,,,,,,,,,,,,,,,,,,,,,,,,,,,,,,,,,,,,,,,
,,613bd3a683a2ac56a4119aa6,2024-02-21_22h01.42.912,kallum_motion_pilot,2023.2.2,Win32,60.97560976,613bd3a683a2ac56a4119aa6,65d6bb0e977760de756971f7,65d6c4d58923259cf31ecf89,0.1071,0.1073,0,63,63,101,1,seveneight,,,,,,,,,,,,,,,,,,,,,,,,,,,,,,,,,,,,,,,,,,,,,,,,,,,,,,,,,,,,,,,,,,,,,,,,,,,,,,,,,,,,,,,,,,,,,,,,,,,,,,,,,,,,,,,,,,,,,,,,,,,,,,,,,,,,,,,,,
,,613bd3a683a2ac56a4119aa6,2024-02-21_22h01.42.912,kallum_motion_pilot,2023.2.2,Win32,60.97560976,613bd3a683a2ac56a4119aa6,65d6bb0e977760de756971f7,65d6c4d58923259cf31ecf89,0.1076,0.1078,0,64,64,14,1,fourtwo,,,,,,,,,,,,,,,,,,,,,,,,,,,,,,,,,,,,,,,,,,,,,,,,,,,,,,,,,,,,,,,,,,,,,,,,,,,,,,,,,,,,,,,,,,,,,,,,,,,,,,,,,,,,,,,,,,,,,,,,,,,,,,,,,,,,,,,,,
,,613bd3a683a2ac56a4119aa6,2024-02-21_22h01.42.912,kallum_motion_pilot,2023.2.2,Win32,60.97560976,613bd3a683a2ac56a4119aa6,65d6bb0e977760de756971f7,65d6c4d58923259cf31ecf89,0.108,0.1082,0,65,65,136,1,fivesix,,,,,,,,,,,,,,,,,,,,,,,,,,,,,,,,,,,,,,,,,,,,,,,,,,,,,,,,,,,,,,,,,,,,,,,,,,,,,,,,,,,,,,,,,,,,,,,,,,,,,,,,,,,,,,,,,,,,,,,,,,,,,,,,,,,,,,,,,
,,613bd3a683a2ac56a4119aa6,2024-02-21_22h01.42.912,kallum_motion_pilot,2023.2.2,Win32,60.97560976,613bd3a683a2ac56a4119aa6,65d6bb0e977760de756971f7,65d6c4d58923259cf31ecf89,0.1084,0.1085,0,66,66,70,1,fourtwo,,,,,,,,,,,,,,,,,,,,,,,,,,,,,,,,,,,,,,,,,,,,,,,,,,,,,,,,,,,,,,,,,,,,,,,,,,,,,,,,,,,,,,,,,,,,,,,,,,,,,,,,,,,,,,,,,,,,,,,,,,,,,,,,,,,,,,,,,
,,613bd3a683a2ac56a4119aa6,2024-02-21_22h01.42.912,kallum_motion_pilot,2023.2.2,Win32,60.97560976,613bd3a683a2ac56a4119aa6,65d6bb0e977760de756971f7,65d6c4d58923259cf31ecf89,0.1088,0.1089,0,67,67,34,1,twoone,,,,,,,,,,,,,,,,,,,,,,,,,,,,,,,,,,,,,,,,,,,,,,,,,,,,,,,,,,,,,,,,,,,,,,,,,,,,,,,,,,,,,,,,,,,,,,,,,,,,,,,,,,,,,,,,,,,,,,,,,,,,,,,,,,,,,,,,,
,,613bd3a683a2ac56a4119aa6,2024-02-21_22h01.42.912,kallum_motion_pilot,2023.2.2,Win32,60.97560976,613bd3a683a2ac56a4119aa6,65d6bb0e977760de756971f7,65d6c4d58923259cf31ecf89,0.1096,0.1096,0,68,68,68,1,threeone,,,,,,,,,,,,,,,,,,,,,,,,,,,,,,,,,,,,,,,,,,,,,,,,,,,,,,,,,,,,,,,,,,,,,,,,,,,,,,,,,,,,,,,,,,,,,,,,,,,,,,,,,,,,,,,,,,,,,,,,,,,,,,,,,,,,,,,,,
,,613bd3a683a2ac56a4119aa6,2024-02-21_22h01.42.912,kallum_motion_pilot,2023.2.2,Win32,60.97560976,613bd3a683a2ac56a4119aa6,65d6bb0e977760de756971f7,65d6c4d58923259cf31ecf89,0.11,0.1102,0,69,69,82,1,sixfive,,,,,,,,,,,,,,,,,,,,,,,,,,,,,,,,,,,,,,,,,,,,,,,,,,,,,,,,,,,,,,,,,,,,,,,,,,,,,,,,,,,,,,,,,,,,,,,,,,,,,,,,,,,,,,,,,,,,,,,,,,,,,,,,,,,,,,,,,
,,613bd3a683a2ac56a4119aa6,2024-02-21_22h01.42.912,kallum_motion_pilot,2023.2.2,Win32,60.97560976,613bd3a683a2ac56a4119aa6,65d6bb0e977760de756971f7,65d6c4d58923259cf31ecf89,0.1103,0.1105,0,70,70,128,1,fivesix,,,,,,,,,,,,,,,,,,,,,,,,,,,,,,,,,,,,,,,,,,,,,,,,,,,,,,,,,,,,,,,,,,,,,,,,,,,,,,,,,,,,,,,,,,,,,,,,,,,,,,,,,,,,,,,,,,,,,,,,,,,,,,,,,,,,,,,,,
,,613bd3a683a2ac56a4119aa6,2024-02-21_22h01.42.912,kallum_motion_pilot,2023.2.2,Win32,60.97560976,613bd3a683a2ac56a4119aa6,65d6bb0e977760de756971f7,65d6c4d58923259cf31ecf89,0.1108,0.1109,0,71,71,9,1,onethree,,,,,,,,,,,,,,,,,,,,,,,,,,,,,,,,,,,,,,,,,,,,,,,,,,,,,,,,,,,,,,,,,,,,,,,,,,,,,,,,,,,,,,,,,,,,,,,,,,,,,,,,,,,,,,,,,,,,,,,,,,,,,,,,,,,,,,,,,
,,613bd3a683a2ac56a4119aa6,2024-02-21_22h01.42.912,kallum_motion_pilot,2023.2.2,Win32,60.97560976,613bd3a683a2ac56a4119aa6,65d6bb0e977760de756971f7,65d6c4d58923259cf31ecf89,0.1111,0.1112,0,72,72,80,1,fivesix,,,,,,,,,,,,,,,,,,,,,,,,,,,,,,,,,,,,,,,,,,,,,,,,,,,,,,,,,,,,,,,,,,,,,,,,,,,,,,,,,,,,,,,,,,,,,,,,,,,,,,,,,,,,,,,,,,,,,,,,,,,,,,,,,,,,,,,,,
,,613bd3a683a2ac56a4119aa6,2024-02-21_22h01.42.912,kallum_motion_pilot,2023.2.2,Win32,60.97560976,613bd3a683a2ac56a4119aa6,65d6bb0e977760de756971f7,65d6c4d58923259cf31ecf89,0.1114,0.1115,0,73,73,87,1,eightseven,,,,,,,,,,,,,,,,,,,,,,,,,,,,,,,,,,,,,,,,,,,,,,,,,,,,,,,,,,,,,,,,,,,,,,,,,,,,,,,,,,,,,,,,,,,,,,,,,,,,,,,,,,,,,,,,,,,,,,,,,,,,,,,,,,,,,,,,,
,,613bd3a683a2ac56a4119aa6,2024-02-21_22h01.42.912,kallum_motion_pilot,2023.2.2,Win32,60.97560976,613bd3a683a2ac56a4119aa6,65d6bb0e977760de756971f7,65d6c4d58923259cf31ecf89,0.1118,0.1119,0,74,74,151,1,eightseven,,,,,,,,,,,,,,,,,,,,,,,,,,,,,,,,,,,,,,,,,,,,,,,,,,,,,,,,,,,,,,,,,,,,,,,,,,,,,,,,,,,,,,,,,,,,,,,,,,,,,,,,,,,,,,,,,,,,,,,,,,,,,,,,,,,,,,,,,
,,613bd3a683a2ac56a4119aa6,2024-02-21_22h01.42.912,kallum_motion_pilot,2023.2.2,Win32,60.97560976,613bd3a683a2ac56a4119aa6,65d6bb0e977760de756971f7,65d6c4d58923259cf31ecf89,0.1122,0.1123,0,75,75,64,1,onetwo,,,,,,,,,,,,,,,,,,,,,,,,,,,,,,,,,,,,,,,,,,,,,,,,,,,,,,,,,,,,,,,,,,,,,,,,,,,,,,,,,,,,,,,,,,,,,,,,,,,,,,,,,,,,,,,,,,,,,,,,,,,,,,,,,,,,,,,,,
,,613bd3a683a2ac56a4119aa6,2024-02-21_22h01.42.912,kallum_motion_pilot,2023.2.2,Win32,60.97560976,613bd3a683a2ac56a4119aa6,65d6bb0e977760de756971f7,65d6c4d58923259cf31ecf89,0.1177,0.1178,0,76,76,135,1,eightseven,,,,,,,,,,,,,,,,,,,,,,,,,,,,,,,,,,,,,,,,,,,,,,,,,,,,,,,,,,,,,,,,,,,,,,,,,,,,,,,,,,,,,,,,,,,,,,,,,,,,,,,,,,,,,,,,,,,,,,,,,,,,,,,,,,,,,,,,,
,,613bd3a683a2ac56a4119aa6,2024-02-21_22h01.42.912,kallum_motion_pilot,2023.2.2,Win32,60.97560976,613bd3a683a2ac56a4119aa6,65d6bb0e977760de756971f7,65d6c4d58923259cf31ecf89,0.1181,0.1182,0,77,77,108,1,sevenfive,,,,,,,,,,,,,,,,,,,,,,,,,,,,,,,,,,,,,,,,,,,,,,,,,,,,,,,,,,,,,,,,,,,,,,,,,,,,,,,,,,,,,,,,,,,,,,,,,,,,,,,,,,,,,,,,,,,,,,,,,,,,,,,,,,,,,,,,,
,,613bd3a683a2ac56a4119aa6,2024-02-21_22h01.42.912,kallum_motion_pilot,2023.2.2,Win32,60.97560976,613bd3a683a2ac56a4119aa6,65d6bb0e977760de756971f7,65d6c4d58923259cf31ecf89,0.1184,0.1185,0,78,78,7,1,fourthree,,,,,,,,,,,,,,,,,,,,,,,,,,,,,,,,,,,,,,,,,,,,,,,,,,,,,,,,,,,,,,,,,,,,,,,,,,,,,,,,,,,,,,,,,,,,,,,,,,,,,,,,,,,,,,,,,,,,,,,,,,,,,,,,,,,,,,,,,
,,613bd3a683a2ac56a4119aa6,2024-02-21_22h01.42.912,kallum_motion_pilot,2023.2.2,Win32,60.97560976,613bd3a683a2ac56a4119aa6,65d6bb0e977760de756971f7,65d6c4d58923259cf31ecf89,0.1188,0.1189,0,79,79,13,1,threefour,,,,,,,,,,,,,,,,,,,,,,,,,,,,,,,,,,,,,,,,,,,,,,,,,,,,,,,,,,,,,,,,,,,,,,,,,,,,,,,,,,,,,,,,,,,,,,,,,,,,,,,,,,,,,,,,,,,,,,,,,,,,,,,,,,,,,,,,,
,,613bd3a683a2ac56a4119aa6,2024-02-21_22h01.42.912,kallum_motion_pilot,2023.2.2,Win32,60.97560976,613bd3a683a2ac56a4119aa6,65d6bb0e977760de756971f7,65d6c4d58923259cf31ecf89,0.1191,0.1192,0,80,80,114,1,sixfive,,,,,,,,,,,,,,,,,,,,,,,,,,,,,,,,,,,,,,,,,,,,,,,,,,,,,,,,,,,,,,,,,,,,,,,,,,,,,,,,,,,,,,,,,,,,,,,,,,,,,,,,,,,,,,,,,,,,,,,,,,,,,,,,,,,,,,,,,
,,613bd3a683a2ac56a4119aa6,2024-02-21_22h01.42.912,kallum_motion_pilot,2023.2.2,Win32,60.97560976,613bd3a683a2ac56a4119aa6,65d6bb0e977760de756971f7,65d6c4d58923259cf31ecf89,0.1194,0.1195,0,81,81,92,1,sevenfive,,,,,,,,,,,,,,,,,,,,,,,,,,,,,,,,,,,,,,,,,,,,,,,,,,,,,,,,,,,,,,,,,,,,,,,,,,,,,,,,,,,,,,,,,,,,,,,,,,,,,,,,,,,,,,,,,,,,,,,,,,,,,,,,,,,,,,,,,
,,613bd3a683a2ac56a4119aa6,2024-02-21_22h01.42.912,kallum_motion_pilot,2023.2.2,Win32,60.97560976,613bd3a683a2ac56a4119aa6,65d6bb0e977760de756971f7,65d6c4d58923259cf31ecf89,0.1198,0.1199,0,82,82,120,1,fivesix,,,,,,,,,,,,,,,,,,,,,,,,,,,,,,,,,,,,,,,,,,,,,,,,,,,,,,,,,,,,,,,,,,,,,,,,,,,,,,,,,,,,,,,,,,,,,,,,,,,,,,,,,,,,,,,,,,,,,,,,,,,,,,,,,,,,,,,,,
,,613bd3a683a2ac56a4119aa6,2024-02-21_22h01.42.912,kallum_motion_pilot,2023.2.2,Win32,60.97560976,613bd3a683a2ac56a4119aa6,65d6bb0e977760de756971f7,65d6c4d58923259cf31ecf89,0.1201,0.1202,0,83,83,123,1,sixeight,,,,,,,,,,,,,,,,,,,,,,,,,,,,,,,,,,,,,,,,,,,,,,,,,,,,,,,,,,,,,,,,,,,,,,,,,,,,,,,,,,,,,,,,,,,,,,,,,,,,,,,,,,,,,,,,,,,,,,,,,,,,,,,,,,,,,,,,,
,,613bd3a683a2ac56a4119aa6,2024-02-21_22h01.42.912,kallum_motion_pilot,2023.2.2,Win32,60.97560976,613bd3a683a2ac56a4119aa6,65d6bb0e977760de756971f7,65d6c4d58923259cf31ecf89,0.1206,0.1207,0,84,84,12,1,threeone,,,,,,,,,,,,,,,,,,,,,,,,,,,,,,,,,,,,,,,,,,,,,,,,,,,,,,,,,,,,,,,,,,,,,,,,,,,,,,,,,,,,,,,,,,,,,,,,,,,,,,,,,,,,,,,,,,,,,,,,,,,,,,,,,,,,,,,,,
,,613bd3a683a2ac56a4119aa6,2024-02-21_22h01.42.912,kallum_motion_pilot,2023.2.2,Win32,60.97560976,613bd3a683a2ac56a4119aa6,65d6bb0e977760de756971f7,65d6c4d58923259cf31ecf89,0.1209,0.1211,0,85,85,122,1,sixfive,,,,,,,,,,,,,,,,,,,,,,,,,,,,,,,,,,,,,,,,,,,,,,,,,,,,,,,,,,,,,,,,,,,,,,,,,,,,,,,,,,,,,,,,,,,,,,,,,,,,,,,,,,,,,,,,,,,,,,,,,,,,,,,,,,,,,,,,,
,,613bd3a683a2ac56a4119aa6,2024-02-21_22h01.42.912,kallum_motion_pilot,2023.2.2,Win32,60.97560976,613bd3a683a2ac56a4119aa6,65d6bb0e977760de756971f7,65d6c4d58923259cf31ecf89,0.1213,0.1214,0,86,86,74,1,twoone,,,,,,,,,,,,,,,,,,,,,,,,,,,,,,,,,,,,,,,,,,,,,,,,,,,,,,,,,,,,,,,,,,,,,,,,,,,,,,,,,,,,,,,,,,,,,,,,,,,,,,,,,,,,,,,,,,,,,,,,,,,,,,,,,,,,,,,,,
,,613bd3a683a2ac56a4119aa6,2024-02-21_22h01.42.912,kallum_motion_pilot,2023.2.2,Win32,60.97560976,613bd3a683a2ac56a4119aa6,65d6bb0e977760de756971f7,65d6c4d58923259cf31ecf89,0.1217,0.1217,0,87,87,148,1,sevenfive,,,,,,,,,,,,,,,,,,,,,,,,,,,,,,,,,,,,,,,,,,,,,,,,,,,,,,,,,,,,,,,,,,,,,,,,,,,,,,,,,,,,,,,,,,,,,,,,,,,,,,,,,,,,,,,,,,,,,,,,,,,,,,,,,,,,,,,,,
,,613bd3a683a2ac56a4119aa6,2024-02-21_22h01.42.912,kallum_motion_pilot,2023.2.2,Win32,60.97560976,613bd3a683a2ac56a4119aa6,65d6bb0e977760de756971f7,65d6c4d58923259cf31ecf89,0.122,0.1221,0,88,88,4,1,threeone,,,,,,,,,,,,,,,,,,,,,,,,,,,,,,,,,,,,,,,,,,,,,,,,,,,,,,,,,,,,,,,,,,,,,,,,,,,,,,,,,,,,,,,,,,,,,,,,,,,,,,,,,,,,,,,,,,,,,,,,,,,,,,,,,,,,,,,,,
,,613bd3a683a2ac56a4119aa6,2024-02-21_22h01.42.912,kallum_motion_pilot,2023.2.2,Win32,60.97560976,613bd3a683a2ac56a4119aa6,65d6bb0e977760de756971f7,65d6c4d58923259cf31ecf89,0.1223,0.1224,0,89,89,27,1,twofour,,,,,,,,,,,,,,,,,,,,,,,,,,,,,,,,,,,,,,,,,,,,,,,,,,,,,,,,,,,,,,,,,,,,,,,,,,,,,,,,,,,,,,,,,,,,,,,,,,,,,,,,,,,,,,,,,,,,,,,,,,,,,,,,,,,,,,,,,
,,613bd3a683a2ac56a4119aa6,2024-02-21_22h01.42.912,kallum_motion_pilot,2023.2.2,Win32,60.97560976,613bd3a683a2ac56a4119aa6,65d6bb0e977760de756971f7,65d6c4d58923259cf31ecf89,0.1227,0.1228,0,90,90,32,1,onetwo,,,,,,,,,,,,,,,,,,,,,,,,,,,,,,,,,,,,,,,,,,,,,,,,,,,,,,,,,,,,,,,,,,,,,,,,,,,,,,,,,,,,,,,,,,,,,,,,,,,,,,,,,,,,,,,,,,,,,,,,,,,,,,,,,,,,,,,,,
,,613bd3a683a2ac56a4119aa6,2024-02-21_22h01.42.912,kallum_motion_pilot,2023.2.2,Win32,60.97560976,613bd3a683a2ac56a4119aa6,65d6bb0e977760de756971f7,65d6c4d58923259cf31ecf89,0.123,0.1231,0,91,91,46,1,fourtwo,,,,,,,,,,,,,,,,,,,,,,,,,,,,,,,,,,,,,,,,,,,,,,,,,,,,,,,,,,,,,,,,,,,,,,,,,,,,,,,,,,,,,,,,,,,,,,,,,,,,,,,,,,,,,,,,,,,,,,,,,,,,,,,,,,,,,,,,,
,,613bd3a683a2ac56a4119aa6,2024-02-21_22h01.42.912,kallum_motion_pilot,2023.2.2,Win32,60.97560976,613bd3a683a2ac56a4119aa6,65d6bb0e977760de756971f7,65d6c4d58923259cf31ecf89,0.1233,0.1235,0,92,92,94,1,eightsix,,,,,,,,,,,,,,,,,,,,,,,,,,,,,,,,,,,,,,,,,,,,,,,,,,,,,,,,,,,,,,,,,,,,,,,,,,,,,,,,,,,,,,,,,,,,,,,,,,,,,,,,,,,,,,,,,,,,,,,,,,,,,,,,,,,,,,,,,
,,613bd3a683a2ac56a4119aa6,2024-02-21_22h01.42.912,kallum_motion_pilot,2023.2.2,Win32,60.97560976,613bd3a683a2ac56a4119aa6,65d6bb0e977760de756971f7,65d6c4d58923259cf31ecf89,0.1237,0.1238,0,93,93,119,1,eightseven,,,,,,,,,,,,,,,,,,,,,,,,,,,,,,,,,,,,,,,,,,,,,,,,,,,,,,,,,,,,,,,,,,,,,,,,,,,,,,,,,,,,,,,,,,,,,,,,,,,,,,,,,,,,,,,,,,,,,,,,,,,,,,,,,,,,,,,,,
,,613bd3a683a2ac56a4119aa6,2024-02-21_22h01.42.912,kallum_motion_pilot,2023.2.2,Win32,60.97560976,613bd3a683a2ac56a4119aa6,65d6bb0e977760de756971f7,65d6c4d58923259cf31ecf89,0.124,0.1242,0,94,94,26,1,twoone,,,,,,,,,,,,,,,,,,,,,,,,,,,,,,,,,,,,,,,,,,,,,,,,,,,,,,,,,,,,,,,,,,,,,,,,,,,,,,,,,,,,,,,,,,,,,,,,,,,,,,,,,,,,,,,,,,,,,,,,,,,,,,,,,,,,,,,,,
,,613bd3a683a2ac56a4119aa6,2024-02-21_22h01.42.912,kallum_motion_pilot,2023.2.2,Win32,60.97560976,613bd3a683a2ac56a4119aa6,65d6bb0e977760de756971f7,65d6c4d58923259cf31ecf89,0.1244,0.1245,0,95,95,89,1,fiveseven,,,,,,,,,,,,,,,,,,,,,,,,,,,,,,,,,,,,,,,,,,,,,,,,,,,,,,,,,,,,,,,,,,,,,,,,,,,,,,,,,,,,,,,,,,,,,,,,,,,,,,,,,,,,,,,,,,,,,,,,,,,,,,,,,,,,,,,,,
,,613bd3a683a2ac56a4119aa6,2024-02-21_22h01.42.912,kallum_motion_pilot,2023.2.2,Win32,60.97560976,613bd3a683a2ac56a4119aa6,65d6bb0e977760de756971f7,65d6c4d58923259cf31ecf89,0.1247,0.1247,0,96,96,109,1,seveneight,,,,,,,,,,,,,,,,,,,,,,,,,,,,,,,,,,,,,,,,,,,,,,,,,,,,,,,,,,,,,,,,,,,,,,,,,,,,,,,,,,,,,,,,,,,,,,,,,,,,,,,,,,,,,,,,,,,,,,,,,,,,,,,,,,,,,,,,,
,,613bd3a683a2ac56a4119aa6,2024-02-21_22h01.42.912,kallum_motion_pilot,2023.2.2,Win32,60.97560976,613bd3a683a2ac56a4119aa6,65d6bb0e977760de756971f7,65d6c4d58923259cf31ecf89,0.125,0.1251,0,97,97,97,1,fiveseven,,,,,,,,,,,,,,,,,,,,,,,,,,,,,,,,,,,,,,,,,,,,,,,,,,,,,,,,,,,,,,,,,,,,,,,,,,,,,,,,,,,,,,,,,,,,,,,,,,,,,,,,,,,,,,,,,,,,,,,,,,,,,,,,,,,,,,,,,
,,613bd3a683a2ac56a4119aa6,2024-02-21_22h01.42.912,kallum_motion_pilot,2023.2.2,Win32,60.97560976,613bd3a683a2ac56a4119aa6,65d6bb0e977760de756971f7,65d6c4d58923259cf31ecf89,0.1253,0.1255,0,98,98,121,1,fiveseven,,,,,,,,,,,,,,,,,,,,,,,,,,,,,,,,,,,,,,,,,,,,,,,,,,,,,,,,,,,,,,,,,,,,,,,,,,,,,,,,,,,,,,,,,,,,,,,,,,,,,,,,,,,,,,,,,,,,,,,,,,,,,,,,,,,,,,,,,
,,613bd3a683a2ac56a4119aa6,2024-02-21_22h01.42.912,kallum_motion_pilot,2023.2.2,Win32,60.97560976,613bd3a683a2ac56a4119aa6,65d6bb0e977760de756971f7,65d6c4d58923259cf31ecf89,0.1258,0.1259,0,99,99,134,1,eightsix,,,,,,,,,,,,,,,,,,,,,,,,,,,,,,,,,,,,,,,,,,,,,,,,,,,,,,,,,,,,,,,,,,,,,,,,,,,,,,,,,,,,,,,,,,,,,,,,,,,,,,,,,,,,,,,,,,,,,,,,,,,,,,,,,,,,,,,,,
,,613bd3a683a2ac56a4119aa6,2024-02-21_22h01.42.912,kallum_motion_pilot,2023.2.2,Win32,60.97560976,613bd3a683a2ac56a4119aa6,65d6bb0e977760de756971f7,65d6c4d58923259cf31ecf89,0.1261,0.1263,0,100,100,113,1,fiveseven,,,,,,,,,,,,,,,,,,,,,,,,,,,,,,,,,,,,,,,,,,,,,,,,,,,,,,,,,,,,,,,,,,,,,,,,,,,,,,,,,,,,,,,,,,,,,,,,,,,,,,,,,,,,,,,,,,,,,,,,,,,,,,,,,,,,,,,,,
,,613bd3a683a2ac56a4119aa6,2024-02-21_22h01.42.912,kallum_motion_pilot,2023.2.2,Win32,60.97560976,613bd3a683a2ac56a4119aa6,65d6bb0e977760de756971f7,65d6c4d58923259cf31ecf89,0.1266,0.1268,0,101,101,140,1,sevenfive,,,,,,,,,,,,,,,,,,,,,,,,,,,,,,,,,,,,,,,,,,,,,,,,,,,,,,,,,,,,,,,,,,,,,,,,,,,,,,,,,,,,,,,,,,,,,,,,,,,,,,,,,,,,,,,,,,,,,,,,,,,,,,,,,,,,,,,,,
,,613bd3a683a2ac56a4119aa6,2024-02-21_22h01.42.912,kallum_motion_pilot,2023.2.2,Win32,60.97560976,613bd3a683a2ac56a4119aa6,65d6bb0e977760de756971f7,65d6c4d58923259cf31ecf89,0.127,0.1271,0,102,102,125,1,seveneight,,,,,,,,,,,,,,,,,,,,,,,,,,,,,,,,,,,,,,,,,,,,,,,,,,,,,,,,,,,,,,,,,,,,,,,,,,,,,,,,,,,,,,,,,,,,,,,,,,,,,,,,,,,,,,,,,,,,,,,,,,,,,,,,,,,,,,,,,
,,613bd3a683a2ac56a4119aa6,2024-02-21_22h01.42.912,kallum_motion_pilot,2023.2.2,Win32,60.97560976,613bd3a683a2ac56a4119aa6,65d6bb0e977760de756971f7,65d6c4d58923259cf31ecf89,0.1273,0.1275,0,103,103,59,1,twofour,,,,,,,,,,,,,,,,,,,,,,,,,,,,,,,,,,,,,,,,,,,,,,,,,,,,,,,,,,,,,,,,,,,,,,,,,,,,,,,,,,,,,,,,,,,,,,,,,,,,,,,,,,,,,,,,,,,,,,,,,,,,,,,,,,,,,,,,,
,,613bd3a683a2ac56a4119aa6,2024-02-21_22h01.42.912,kallum_motion_pilot,2023.2.2,Win32,60.97560976,613bd3a683a2ac56a4119aa6,65d6bb0e977760de756971f7,65d6c4d58923259cf31ecf89,0.1276,0.1278,0,104,104,137,1,fiveseven,,,,,,,,,,,,,,,,,,,,,,,,,,,,,,,,,,,,,,,,,,,,,,,,,,,,,,,,,,,,,,,,,,,,,,,,,,,,,,,,,,,,,,,,,,,,,,,,,,,,,,,,,,,,,,,,,,,,,,,,,,,,,,,,,,,,,,,,,
,,613bd3a683a2ac56a4119aa6,2024-02-21_22h01.42.912,kallum_motion_pilot,2023.2.2,Win32,60.97560976,613bd3a683a2ac56a4119aa6,65d6bb0e977760de756971f7,65d6c4d58923259cf31ecf89,0.128,0.1282,0,105,105,49,1,onethree,,,,,,,,,,,,,,,,,,,,,,,,,,,,,,,,,,,,,,,,,,,,,,,,,,,,,,,,,,,,,,,,,,,,,,,,,,,,,,,,,,,,,,,,,,,,,,,,,,,,,,,,,,,,,,,,,,,,,,,,,,,,,,,,,,,,,,,,,
,,613bd3a683a2ac56a4119aa6,2024-02-21_22h01.42.912,kallum_motion_pilot,2023.2.2,Win32,60.97560976,613bd3a683a2ac56a4119aa6,65d6bb0e977760de756971f7,65d6c4d58923259cf31ecf89,0.1283,0.1285,0,106,106,88,1,fivesix,,,,,,,,,,,,,,,,,,,,,,,,,,,,,,,,,,,,,,,,,,,,,,,,,,,,,,,,,,,,,,,,,,,,,,,,,,,,,,,,,,,,,,,,,,,,,,,,,,,,,,,,,,,,,,,,,,,,,,,,,,,,,,,,,,,,,,,,,
,,613bd3a683a2ac56a4119aa6,2024-02-21_22h01.42.912,kallum_motion_pilot,2023.2.2,Win32,60.97560976,613bd3a683a2ac56a4119aa6,65d6bb0e977760de756971f7,65d6c4d58923259cf31ecf89,0.1287,0.1288,0,107,107,138,1,sixfive,,,,,,,,,,,,,,,,,,,,,,,,,,,,,,,,,,,,,,,,,,,,,,,,,,,,,,,,,,,,,,,,,,,,,,,,,,,,,,,,,,,,,,,,,,,,,,,,,,,,,,,,,,,,,,,,,,,,,,,,,,,,,,,,,,,,,,,,,
,,613bd3a683a2ac56a4119aa6,2024-02-21_22h01.42.912,kallum_motion_pilot,2023.2.2,Win32,60.97560976,613bd3a683a2ac56a4119aa6,65d6bb0e977760de756971f7,65d6c4d58923259cf31ecf89,0.1291,0.1293,0,108,108,28,1,threeone,,,,,,,,,,,,,,,,,,,,,,,,,,,,,,,,,,,,,,,,,,,,,,,,,,,,,,,,,,,,,,,,,,,,,,,,,,,,,,,,,,,,,,,,,,,,,,,,,,,,,,,,,,,,,,,,,,,,,,,,,,,,,,,,,,,,,,,,,
,,613bd3a683a2ac56a4119aa6,2024-02-21_22h01.42.912,kallum_motion_pilot,2023.2.2,Win32,60.97560976,613bd3a683a2ac56a4119aa6,65d6bb0e977760de756971f7,65d6c4d58923259cf31ecf89,0.1295,0.1296,0,109,109,146,1,sixfive,,,,,,,,,,,,,,,,,,,,,,,,,,,,,,,,,,,,,,,,,,,,,,,,,,,,,,,,,,,,,,,,,,,,,,,,,,,,,,,,,,,,,,,,,,,,,,,,,,,,,,,,,,,,,,,,,,,,,,,,,,,,,,,,,,,,,,,,,
,,613bd3a683a2ac56a4119aa6,2024-02-21_22h01.42.912,kallum_motion_pilot,2023.2.2,Win32,60.97560976,613bd3a683a2ac56a4119aa6,65d6bb0e977760de756971f7,65d6c4d58923259cf31ecf89,0.1298,0.1299,0,110,110,96,1,fivesix,,,,,,,,,,,,,,,,,,,,,,,,,,,,,,,,,,,,,,,,,,,,,,,,,,,,,,,,,,,,,,,,,,,,,,,,,,,,,,,,,,,,,,,,,,,,,,,,,,,,,,,,,,,,,,,,,,,,,,,,,,,,,,,,,,,,,,,,,
,,613bd3a683a2ac56a4119aa6,2024-02-21_22h01.42.912,kallum_motion_pilot,2023.2.2,Win32,60.97560976,613bd3a683a2ac56a4119aa6,65d6bb0e977760de756971f7,65d6c4d58923259cf31ecf89,0.1301,0.1304,0,111,111,100,1,sevenfive,,,,,,,,,,,,,,,,,,,,,,,,,,,,,,,,,,,,,,,,,,,,,,,,,,,,,,,,,,,,,,,,,,,,,,,,,,,,,,,,,,,,,,,,,,,,,,,,,,,,,,,,,,,,,,,,,,,,,,,,,,,,,,,,,,,,,,,,,
,,613bd3a683a2ac56a4119aa6,2024-02-21_22h01.42.912,kallum_motion_pilot,2023.2.2,Win32,60.97560976,613bd3a683a2ac56a4119aa6,65d6bb0e977760de756971f7,65d6c4d58923259cf31ecf89,0.1308,0.131,0,112,112,33,1,onethree,,,,,,,,,,,,,,,,,,,,,,,,,,,,,,,,,,,,,,,,,,,,,,,,,,,,,,,,,,,,,,,,,,,,,,,,,,,,,,,,,,,,,,,,,,,,,,,,,,,,,,,,,,,,,,,,,,,,,,,,,,,,,,,,,,,,,,,,,
,,613bd3a683a2ac56a4119aa6,2024-02-21_22h01.42.912,kallum_motion_pilot,2023.2.2,Win32,60.97560976,613bd3a683a2ac56a4119aa6,65d6bb0e977760de756971f7,65d6c4d58923259cf31ecf89,0.1312,0.1314,0,113,113,29,1,threefour,,,,,,,,,,,,,,,,,,,,,,,,,,,,,,,,,,,,,,,,,,,,,,,,,,,,,,,,,,,,,,,,,,,,,,,,,,,,,,,,,,,,,,,,,,,,,,,,,,,,,,,,,,,,,,,,,,,,,,,,,,,,,,,,,,,,,,,,,
,,613bd3a683a2ac56a4119aa6,2024-02-21_22h01.42.912,kallum_motion_pilot,2023.2.2,Win32,60.97560976,613bd3a683a2ac56a4119aa6,65d6bb0e977760de756971f7,65d6c4d58923259cf31ecf89,0.1316,0.1317,0,114,114,133,1,seveneight,,,,,,,,,,,,,,,,,,,,,,,,,,,,,,,,,,,,,,,,,,,,,,,,,,,,,,,,,,,,,,,,,,,,,,,,,,,,,,,,,,,,,,,,,,,,,,,,,,,,,,,,,,,,,,,,,,,,,,,,,,,,,,,,,,,,,,,,,
,,613bd3a683a2ac56a4119aa6,2024-02-21_22h01.42.912,kallum_motion_pilot,2023.2.2,Win32,60.97560976,613bd3a683a2ac56a4119aa6,65d6bb0e977760de756971f7,65d6c4d58923259cf31ecf89,0.132,0.132,0,115,115,23,1,fourthree,,,,,,,,,,,,,,,,,,,,,,,,,,,,,,,,,,,,,,,,,,,,,,,,,,,,,,,,,,,,,,,,,,,,,,,,,,,,,,,,,,,,,,,,,,,,,,,,,,,,,,,,,,,,,,,,,,,,,,,,,,,,,,,,,,,,,,,,,
,,613bd3a683a2ac56a4119aa6,2024-02-21_22h01.42.912,kallum_motion_pilot,2023.2.2,Win32,60.97560976,613bd3a683a2ac56a4119aa6,65d6bb0e977760de756971f7,65d6c4d58923259cf31ecf89,0.1322,0.1324,0,116,116,78,1,fourtwo,,,,,,,,,,,,,,,,,,,,,,,,,,,,,,,,,,,,,,,,,,,,,,,,,,,,,,,,,,,,,,,,,,,,,,,,,,,,,,,,,,,,,,,,,,,,,,,,,,,,,,,,,,,,,,,,,,,,,,,,,,,,,,,,,,,,,,,,,
,,613bd3a683a2ac56a4119aa6,2024-02-21_22h01.42.912,kallum_motion_pilot,2023.2.2,Win32,60.97560976,613bd3a683a2ac56a4119aa6,65d6bb0e977760de756971f7,65d6c4d58923259cf31ecf89,0.1326,0.1328,0,117,117,19,1,twofour,,,,,,,,,,,,,,,,,,,,,,,,,,,,,,,,,,,,,,,,,,,,,,,,,,,,,,,,,,,,,,,,,,,,,,,,,,,,,,,,,,,,,,,,,,,,,,,,,,,,,,,,,,,,,,,,,,,,,,,,,,,,,,,,,,,,,,,,,
,,613bd3a683a2ac56a4119aa6,2024-02-21_22h01.42.912,kallum_motion_pilot,2023.2.2,Win32,60.97560976,613bd3a683a2ac56a4119aa6,65d6bb0e977760de756971f7,65d6c4d58923259cf31ecf89,0.1329,0.133,0,118,118,25,1,onethree,,,,,,,,,,,,,,,,,,,,,,,,,,,,,,,,,,,,,,,,,,,,,,,,,,,,,,,,,,,,,,,,,,,,,,,,,,,,,,,,,,,,,,,,,,,,,,,,,,,,,,,,,,,,,,,,,,,,,,,,,,,,,,,,,,,,,,,,,
,,613bd3a683a2ac56a4119aa6,2024-02-21_22h01.42.912,kallum_motion_pilot,2023.2.2,Win32,60.97560976,613bd3a683a2ac56a4119aa6,65d6bb0e977760de756971f7,65d6c4d58923259cf31ecf89,0.1333,0.1335,0,119,119,158,1,eightsix,,,,,,,,,,,,,,,,,,,,,,,,,,,,,,,,,,,,,,,,,,,,,,,,,,,,,,,,,,,,,,,,,,,,,,,,,,,,,,,,,,,,,,,,,,,,,,,,,,,,,,,,,,,,,,,,,,,,,,,,,,,,,,,,,,,,,,,,,
,,613bd3a683a2ac56a4119aa6,2024-02-21_22h01.42.912,kallum_motion_pilot,2023.2.2,Win32,60.97560976,613bd3a683a2ac56a4119aa6,65d6bb0e977760de756971f7,65d6c4d58923259cf31ecf89,0.1337,0.1338,0,120,120,84,1,sevenfive,,,,,,,,,,,,,,,,,,,,,,,,,,,,,,,,,,,,,,,,,,,,,,,,,,,,,,,,,,,,,,,,,,,,,,,,,,,,,,,,,,,,,,,,,,,,,,,,,,,,,,,,,,,,,,,,,,,,,,,,,,,,,,,,,,,,,,,,,
,,613bd3a683a2ac56a4119aa6,2024-02-21_22h01.42.912,kallum_motion_pilot,2023.2.2,Win32,60.97560976,613bd3a683a2ac56a4119aa6,65d6bb0e977760de756971f7,65d6c4d58923259cf31ecf89,0.1341,0.1342,0,121,121,18,1,twoone,,,,,,,,,,,,,,,,,,,,,,,,,,,,,,,,,,,,,,,,,,,,,,,,,,,,,,,,,,,,,,,,,,,,,,,,,,,,,,,,,,,,,,,,,,,,,,,,,,,,,,,,,,,,,,,,,,,,,,,,,,,,,,,,,,,,,,,,,
,,613bd3a683a2ac56a4119aa6,2024-02-21_22h01.42.912,kallum_motion_pilot,2023.2.2,Win32,60.97560976,613bd3a683a2ac56a4119aa6,65d6bb0e977760de756971f7,65d6c4d58923259cf31ecf89,0.1344,0.1345,0,122,122,115,1,sixeight,,,,,,,,,,,,,,,,,,,,,,,,,,,,,,,,,,,,,,,,,,,,,,,,,,,,,,,,,,,,,,,,,,,,,,,,,,,,,,,,,,,,,,,,,,,,,,,,,,,,,,,,,,,,,,,,,,,,,,,,,,,,,,,,,,,,,,,,,
,,613bd3a683a2ac56a4119aa6,2024-02-21_22h01.42.912,kallum_motion_pilot,2023.2.2,Win32,60.97560976,613bd3a683a2ac56a4119aa6,65d6bb0e977760de756971f7,65d6c4d58923259cf31ecf89,0.1348,0.1349,0,123,123,37,1,threefour,,,,,,,,,,,,,,,,,,,,,,,,,,,,,,,,,,,,,,,,,,,,,,,,,,,,,,,,,,,,,,,,,,,,,,,,,,,,,,,,,,,,,,,,,,,,,,,,,,,,,,,,,,,,,,,,,,,,,,,,,,,,,,,,,,,,,,,,,
,,613bd3a683a2ac56a4119aa6,2024-02-21_22h01.42.912,kallum_motion_pilot,2023.2.2,Win32,60.97560976,613bd3a683a2ac56a4119aa6,65d6bb0e977760de756971f7,65d6c4d58923259cf31ecf89,0.1352,0.1354,0,124,124,85,1,seveneight,,,,,,,,,,,,,,,,,,,,,,,,,,,,,,,,,,,,,,,,,,,,,,,,,,,,,,,,,,,,,,,,,,,,,,,,,,,,,,,,,,,,,,,,,,,,,,,,,,,,,,,,,,,,,,,,,,,,,,,,,,,,,,,,,,,,,,,,,
,,613bd3a683a2ac56a4119aa6,2024-02-21_22h01.42.912,kallum_motion_pilot,2023.2.2,Win32,60.97560976,613bd3a683a2ac56a4119aa6,65d6bb0e977760de756971f7,65d6c4d58923259cf31ecf89,0.1357,0.1359,0,125,125,65,1,onethree,,,,,,,,,,,,,,,,,,,,,,,,,,,,,,,,,,,,,,,,,,,,,,,,,,,,,,,,,,,,,,,,,,,,,,,,,,,,,,,,,,,,,,,,,,,,,,,,,,,,,,,,,,,,,,,,,,,,,,,,,,,,,,,,,,,,,,,,,
,,613bd3a683a2ac56a4119aa6,2024-02-21_22h01.42.912,kallum_motion_pilot,2023.2.2,Win32,60.97560976,613bd3a683a2ac56a4119aa6,65d6bb0e977760de756971f7,65d6c4d58923259cf31ecf89,0.1362,0.1364,0,126,126,81,1,fiveseven,,,,,,,,,,,,,,,,,,,,,,,,,,,,,,,,,,,,,,,,,,,,,,,,,,,,,,,,,,,,,,,,,,,,,,,,,,,,,,,,,,,,,,,,,,,,,,,,,,,,,,,,,,,,,,,,,,,,,,,,,,,,,,,,,,,,,,,,,
,,613bd3a683a2ac56a4119aa6,2024-02-21_22h01.42.912,kallum_motion_pilot,2023.2.2,Win32,60.97560976,613bd3a683a2ac56a4119aa6,65d6bb0e977760de756971f7,65d6c4d58923259cf31ecf89,0.1367,0.1369,0,127,127,38,1,fourtwo,,,,,,,,,,,,,,,,,,,,,,,,,,,,,,,,,,,,,,,,,,,,,,,,,,,,,,,,,,,,,,,,,,,,,,,,,,,,,,,,,,,,,,,,,,,,,,,,,,,,,,,,,,,,,,,,,,,,,,,,,,,,,,,,,,,,,,,,,
,,613bd3a683a2ac56a4119aa6,2024-02-21_22h01.42.912,kallum_motion_pilot,2023.2.2,Win32,60.97560976,613bd3a683a2ac56a4119aa6,65d6bb0e977760de756971f7,65d6c4d58923259cf31ecf89,0.1371,0.1372,0,128,128,99,1,sixeight,,,,,,,,,,,,,,,,,,,,,,,,,,,,,,,,,,,,,,,,,,,,,,,,,,,,,,,,,,,,,,,,,,,,,,,,,,,,,,,,,,,,,,,,,,,,,,,,,,,,,,,,,,,,,,,,,,,,,,,,,,,,,,,,,,,,,,,,,
,,613bd3a683a2ac56a4119aa6,2024-02-21_22h01.42.912,kallum_motion_pilot,2023.2.2,Win32,60.97560976,613bd3a683a2ac56a4119aa6,65d6bb0e977760de756971f7,65d6c4d58923259cf31ecf89,0.1375,0.1376,0,129,129,67,1,twofour,,,,,,,,,,,,,,,,,,,,,,,,,,,,,,,,,,,,,,,,,,,,,,,,,,,,,,,,,,,,,,,,,,,,,,,,,,,,,,,,,,,,,,,,,,,,,,,,,,,,,,,,,,,,,,,,,,,,,,,,,,,,,,,,,,,,,,,,,
,,613bd3a683a2ac56a4119aa6,2024-02-21_22h01.42.912,kallum_motion_pilot,2023.2.2,Win32,60.97560976,613bd3a683a2ac56a4119aa6,65d6bb0e977760de756971f7,65d6c4d58923259cf31ecf89,0.1379,0.138,0,130,130,17,1,onethree,,,,,,,,,,,,,,,,,,,,,,,,,,,,,,,,,,,,,,,,,,,,,,,,,,,,,,,,,,,,,,,,,,,,,,,,,,,,,,,,,,,,,,,,,,,,,,,,,,,,,,,,,,,,,,,,,,,,,,,,,,,,,,,,,,,,,,,,,
,,613bd3a683a2ac56a4119aa6,2024-02-21_22h01.42.912,kallum_motion_pilot,2023.2.2,Win32,60.97560976,613bd3a683a2ac56a4119aa6,65d6bb0e977760de756971f7,65d6c4d58923259cf31ecf89,0.1382,0.1383,0,131,131,149,1,seveneight,,,,,,,,,,,,,,,,,,,,,,,,,,,,,,,,,,,,,,,,,,,,,,,,,,,,,,,,,,,,,,,,,,,,,,,,,,,,,,,,,,,,,,,,,,,,,,,,,,,,,,,,,,,,,,,,,,,,,,,,,,,,,,,,,,,,,,,,,
,,613bd3a683a2ac56a4119aa6,2024-02-21_22h01.42.912,kallum_motion_pilot,2023.2.2,Win32,60.97560976,613bd3a683a2ac56a4119aa6,65d6bb0e977760de756971f7,65d6c4d58923259cf31ecf89,0.1385,0.1387,0,132,132,35,1,twofour,,,,,,,,,,,,,,,,,,,,,,,,,,,,,,,,,,,,,,,,,,,,,,,,,,,,,,,,,,,,,,,,,,,,,,,,,,,,,,,,,,,,,,,,,,,,,,,,,,,,,,,,,,,,,,,,,,,,,,,,,,,,,,,,,,,,,,,,,
,,613bd3a683a2ac56a4119aa6,2024-02-21_22h01.42.912,kallum_motion_pilot,2023.2.2,Win32,60.97560976,613bd3a683a2ac56a4119aa6,65d6bb0e977760de756971f7,65d6c4d58923259cf31ecf89,0.1389,0.139,0,133,133,63,1,fourthree,,,,,,,,,,,,,,,,,,,,,,,,,,,,,,,,,,,,,,,,,,,,,,,,,,,,,,,,,,,,,,,,,,,,,,,,,,,,,,,,,,,,,,,,,,,,,,,,,,,,,,,,,,,,,,,,,,,,,,,,,,,,,,,,,,,,,,,,,
,,613bd3a683a2ac56a4119aa6,2024-02-21_22h01.42.912,kallum_motion_pilot,2023.2.2,Win32,60.97560976,613bd3a683a2ac56a4119aa6,65d6bb0e977760de756971f7,65d6c4d58923259cf31ecf89,0.1392,0.1394,0,134,134,16,1,onetwo,,,,,,,,,,,,,,,,,,,,,,,,,,,,,,,,,,,,,,,,,,,,,,,,,,,,,,,,,,,,,,,,,,,,,,,,,,,,,,,,,,,,,,,,,,,,,,,,,,,,,,,,,,,,,,,,,,,,,,,,,,,,,,,,,,,,,,,,,
,,613bd3a683a2ac56a4119aa6,2024-02-21_22h01.42.912,kallum_motion_pilot,2023.2.2,Win32,60.97560976,613bd3a683a2ac56a4119aa6,65d6bb0e977760de756971f7,65d6c4d58923259cf31ecf89,0.1396,0.1398,0,135,135,40,1,onetwo,,,,,,,,,,,,,,,,,,,,,,,,,,,,,,,,,,,,,,,,,,,,,,,,,,,,,,,,,,,,,,,,,,,,,,,,,,,,,,,,,,,,,,,,,,,,,,,,,,,,,,,,,,,,,,,,,,,,,,,,,,,,,,,,,,,,,,,,,
,,613bd3a683a2ac56a4119aa6,2024-02-21_22h01.42.912,kallum_motion_pilot,2023.2.2,Win32,60.97560976,613bd3a683a2ac56a4119aa6,65d6bb0e977760de756971f7,65d6c4d58923259cf31ecf89,0.14,0.1402,0,136,136,155,1,sixeight,,,,,,,,,,,,,,,,,,,,,,,,,,,,,,,,,,,,,,,,,,,,,,,,,,,,,,,,,,,,,,,,,,,,,,,,,,,,,,,,,,,,,,,,,,,,,,,,,,,,,,,,,,,,,,,,,,,,,,,,,,,,,,,,,,,,,,,,,
,,613bd3a683a2ac56a4119aa6,2024-02-21_22h01.42.912,kallum_motion_pilot,2023.2.2,Win32,60.97560976,613bd3a683a2ac56a4119aa6,65d6bb0e977760de756971f7,65d6c4d58923259cf31ecf89,0.1404,0.1406,0,137,137,77,1,threefour,,,,,,,,,,,,,,,,,,,,,,,,,,,,,,,,,,,,,,,,,,,,,,,,,,,,,,,,,,,,,,,,,,,,,,,,,,,,,,,,,,,,,,,,,,,,,,,,,,,,,,,,,,,,,,,,,,,,,,,,,,,,,,,,,,,,,,,,,
,,613bd3a683a2ac56a4119aa6,2024-02-21_22h01.42.912,kallum_motion_pilot,2023.2.2,Win32,60.97560976,613bd3a683a2ac56a4119aa6,65d6bb0e977760de756971f7,65d6c4d58923259cf31ecf89,0.1407,0.141,0,138,138,21,1,threefour,,,,,,,,,,,,,,,,,,,,,,,,,,,,,,,,,,,,,,,,,,,,,,,,,,,,,,,,,,,,,,,,,,,,,,,,,,,,,,,,,,,,,,,,,,,,,,,,,,,,,,,,,,,,,,,,,,,,,,,,,,,,,,,,,,,,,,,,,
,,613bd3a683a2ac56a4119aa6,2024-02-21_22h01.42.912,kallum_motion_pilot,2023.2.2,Win32,60.97560976,613bd3a683a2ac56a4119aa6,65d6bb0e977760de756971f7,65d6c4d58923259cf31ecf89,0.1411,0.1413,0,139,139,20,1,threeone,,,,,,,,,,,,,,,,,,,,,,,,,,,,,,,,,,,,,,,,,,,,,,,,,,,,,,,,,,,,,,,,,,,,,,,,,,,,,,,,,,,,,,,,,,,,,,,,,,,,,,,,,,,,,,,,,,,,,,,,,,,,,,,,,,,,,,,,,
,,613bd3a683a2ac56a4119aa6,2024-02-21_22h01.42.912,kallum_motion_pilot,2023.2.2,Win32,60.97560976,613bd3a683a2ac56a4119aa6,65d6bb0e977760de756971f7,65d6c4d58923259cf31ecf89,0.1414,0.1417,0,140,140,54,1,fourtwo,,,,,,,,,,,,,,,,,,,,,,,,,,,,,,,,,,,,,,,,,,,,,,,,,,,,,,,,,,,,,,,,,,,,,,,,,,,,,,,,,,,,,,,,,,,,,,,,,,,,,,,,,,,,,,,,,,,,,,,,,,,,,,,,,,,,,,,,,
,,613bd3a683a2ac56a4119aa6,2024-02-21_22h01.42.912,kallum_motion_pilot,2023.2.2,Win32,60.97560976,613bd3a683a2ac56a4119aa6,65d6bb0e977760de756971f7,65d6c4d58923259cf31ecf89,0.1419,0.142,0,141,141,79,1,eightseven,,,,,,,,,,,,,,,,,,,,,,,,,,,,,,,,,,,,,,,,,,,,,,,,,,,,,,,,,,,,,,,,,,,,,,,,,,,,,,,,,,,,,,,,,,,,,,,,,,,,,,,,,,,,,,,,,,,,,,,,,,,,,,,,,,,,,,,,,
,,613bd3a683a2ac56a4119aa6,2024-02-21_22h01.42.912,kallum_motion_pilot,2023.2.2,Win32,60.97560976,613bd3a683a2ac56a4119aa6,65d6bb0e977760de756971f7,65d6c4d58923259cf31ecf89,0.1422,0.1424,0,142,142,98,1,sixfive,,,,,,,,,,,,,,,,,,,,,,,,,,,,,,,,,,,,,,,,,,,,,,,,,,,,,,,,,,,,,,,,,,,,,,,,,,,,,,,,,,,,,,,,,,,,,,,,,,,,,,,,,,,,,,,,,,,,,,,,,,,,,,,,,,,,,,,,,
,,613bd3a683a2ac56a4119aa6,2024-02-21_22h01.42.912,kallum_motion_pilot,2023.2.2,Win32,60.97560976,613bd3a683a2ac56a4119aa6,65d6bb0e977760de756971f7,65d6c4d58923259cf31ecf89,0.1427,0.1429,0,143,143,142,1,eightsix,,,,,,,,,,,,,,,,,,,,,,,,,,,,,,,,,,,,,,,,,,,,,,,,,,,,,,,,,,,,,,,,,,,,,,,,,,,,,,,,,,,,,,,,,,,,,,,,,,,,,,,,,,,,,,,,,,,,,,,,,,,,,,,,,,,,,,,,,
,,613bd3a683a2ac56a4119aa6,2024-02-21_22h01.42.912,kallum_motion_pilot,2023.2.2,Win32,60.97560976,613bd3a683a2ac56a4119aa6,65d6bb0e977760de756971f7,65d6c4d58923259cf31ecf89,0.1432,0.1434,0,144,144,71,1,fourthree,,,,,,,,,,,,,,,,,,,,,,,,,,,,,,,,,,,,,,,,,,,,,,,,,,,,,,,,,,,,,,,,,,,,,,,,,,,,,,,,,,,,,,,,,,,,,,,,,,,,,,,,,,,,,,,,,,,,,,,,,,,,,,,,,,,,,,,,,
,,613bd3a683a2ac56a4119aa6,2024-02-21_22h01.42.912,kallum_motion_pilot,2023.2.2,Win32,60.97560976,613bd3a683a2ac56a4119aa6,65d6bb0e977760de756971f7,65d6c4d58923259cf31ecf89,0.1437,0.1438,0,145,145,105,1,fiveseven,,,,,,,,,,,,,,,,,,,,,,,,,,,,,,,,,,,,,,,,,,,,,,,,,,,,,,,,,,,,,,,,,,,,,,,,,,,,,,,,,,,,,,,,,,,,,,,,,,,,,,,,,,,,,,,,,,,,,,,,,,,,,,,,,,,,,,,,,
,,613bd3a683a2ac56a4119aa6,2024-02-21_22h01.42.912,kallum_motion_pilot,2023.2.2,Win32,60.97560976,613bd3a683a2ac56a4119aa6,65d6bb0e977760de756971f7,65d6c4d58923259cf31ecf89,0.144,0.1442,0,146,146,50,1,twoone,,,,,,,,,,,,,,,,,,,,,,,,,,,,,,,,,,,,,,,,,,,,,,,,,,,,,,,,,,,,,,,,,,,,,,,,,,,,,,,,,,,,,,,,,,,,,,,,,,,,,,,,,,,,,,,,,,,,,,,,,,,,,,,,,,,,,,,,,
,,613bd3a683a2ac56a4119aa6,2024-02-21_22h01.42.912,kallum_motion_pilot,2023.2.2,Win32,60.97560976,613bd3a683a2ac56a4119aa6,65d6bb0e977760de756971f7,65d6c4d58923259cf31ecf89,0.1444,0.1446,0,147,147,30,1,fourtwo,,,,,,,,,,,,,,,,,,,,,,,,,,,,,,,,,,,,,,,,,,,,,,,,,,,,,,,,,,,,,,,,,,,,,,,,,,,,,,,,,,,,,,,,,,,,,,,,,,,,,,,,,,,,,,,,,,,,,,,,,,,,,,,,,,,,,,,,,
,,613bd3a683a2ac56a4119aa6,2024-02-21_22h01.42.912,kallum_motion_pilot,2023.2.2,Win32,60.97560976,613bd3a683a2ac56a4119aa6,65d6bb0e977760de756971f7,65d6c4d58923259cf31ecf89,0.1448,0.1449,0,148,148,22,1,fourtwo,,,,,,,,,,,,,,,,,,,,,,,,,,,,,,,,,,,,,,,,,,,,,,,,,,,,,,,,,,,,,,,,,,,,,,,,,,,,,,,,,,,,,,,,,,,,,,,,,,,,,,,,,,,,,,,,,,,,,,,,,,,,,,,,,,,,,,,,,
,,613bd3a683a2ac56a4119aa6,2024-02-21_22h01.42.912,kallum_motion_pilot,2023.2.2,Win32,60.97560976,613bd3a683a2ac56a4119aa6,65d6bb0e977760de756971f7,65d6c4d58923259cf31ecf89,0.1451,0.1453,0,149,149,95,1,eightseven,,,,,,,,,,,,,,,,,,,,,,,,,,,,,,,,,,,,,,,,,,,,,,,,,,,,,,,,,,,,,,,,,,,,,,,,,,,,,,,,,,,,,,,,,,,,,,,,,,,,,,,,,,,,,,,,,,,,,,,,,,,,,,,,,,,,,,,,,
,,613bd3a683a2ac56a4119aa6,2024-02-21_22h01.42.912,kallum_motion_pilot,2023.2.2,Win32,60.97560976,613bd3a683a2ac56a4119aa6,65d6bb0e977760de756971f7,65d6c4d58923259cf31ecf89,0.1455,0.1457,0,150,150,132,1,sevenfive,,,,,,,,,,,,,,,,,,,,,,,,,,,,,,,,,,,,,,,,,,,,,,,,,,,,,,,,,,,,,,,,,,,,,,,,,,,,,,,,,,,,,,,,,,,,,,,,,,,,,,,,,,,,,,,,,,,,,,,,,,,,,,,,,,,,,,,,,
,,613bd3a683a2ac56a4119aa6,2024-02-21_22h01.42.912,kallum_motion_pilot,2023.2.2,Win32,60.97560976,613bd3a683a2ac56a4119aa6,65d6bb0e977760de756971f7,65d6c4d58923259cf31ecf89,0.1459,0.146,0,151,151,36,1,threeone,,,,,,,,,,,,,,,,,,,,,,,,,,,,,,,,,,,,,,,,,,,,,,,,,,,,,,,,,,,,,,,,,,,,,,,,,,,,,,,,,,,,,,,,,,,,,,,,,,,,,,,,,,,,,,,,,,,,,,,,,,,,,,,,,,,,,,,,,
,,613bd3a683a2ac56a4119aa6,2024-02-21_22h01.42.912,kallum_motion_pilot,2023.2.2,Win32,60.97560976,613bd3a683a2ac56a4119aa6,65d6bb0e977760de756971f7,65d6c4d58923259cf31ecf89,0.1462,0.1465,0,152,152,150,1,eightsix,,,,,,,,,,,,,,,,,,,,,,,,,,,,,,,,,,,,,,,,,,,,,,,,,,,,,,,,,,,,,,,,,,,,,,,,,,,,,,,,,,,,,,,,,,,,,,,,,,,,,,,,,,,,,,,,,,,,,,,,,,,,,,,,,,,,,,,,,
,,613bd3a683a2ac56a4119aa6,2024-02-21_22h01.42.912,kallum_motion_pilot,2023.2.2,Win32,60.97560976,613bd3a683a2ac56a4119aa6,65d6bb0e977760de756971f7,65d6c4d58923259cf31ecf89,0.1467,0.1468,0,153,153,10,1,twoone,,,,,,,,,,,,,,,,,,,,,,,,,,,,,,,,,,,,,,,,,,,,,,,,,,,,,,,,,,,,,,,,,,,,,,,,,,,,,,,,,,,,,,,,,,,,,,,,,,,,,,,,,,,,,,,,,,,,,,,,,,,,,,,,,,,,,,,,,
,,613bd3a683a2ac56a4119aa6,2024-02-21_22h01.42.912,kallum_motion_pilot,2023.2.2,Win32,60.97560976,613bd3a683a2ac56a4119aa6,65d6bb0e977760de756971f7,65d6c4d58923259cf31ecf89,0.147,0.1472,0,154,154,107,1,sixeight,,,,,,,,,,,,,,,,,,,,,,,,,,,,,,,,,,,,,,,,,,,,,,,,,,,,,,,,,,,,,,,,,,,,,,,,,,,,,,,,,,,,,,,,,,,,,,,,,,,,,,,,,,,,,,,,,,,,,,,,,,,,,,,,,,,,,,,,,
,,613bd3a683a2ac56a4119aa6,2024-02-21_22h01.42.912,kallum_motion_pilot,2023.2.2,Win32,60.97560976,613bd3a683a2ac56a4119aa6,65d6bb0e977760de756971f7,65d6c4d58923259cf31ecf89,0.1474,0.1475,0,155,155,3,1,twofour,,,,,,,,,,,,,,,,,,,,,,,,,,,,,,,,,,,,,,,,,,,,,,,,,,,,,,,,,,,,,,,,,,,,,,,,,,,,,,,,,,,,,,,,,,,,,,,,,,,,,,,,,,,,,,,,,,,,,,,,,,,,,,,,,,,,,,,,,
,,613bd3a683a2ac56a4119aa6,2024-02-21_22h01.42.912,kallum_motion_pilot,2023.2.2,Win32,60.97560976,613bd3a683a2ac56a4119aa6,65d6bb0e977760de756971f7,65d6c4d58923259cf31ecf89,0.1477,0.1478,0,156,156,145,1,fiveseven,,,,,,,,,,,,,,,,,,,,,,,,,,,,,,,,,,,,,,,,,,,,,,,,,,,,,,,,,,,,,,,,,,,,,,,,,,,,,,,,,,,,,,,,,,,,,,,,,,,,,,,,,,,,,,,,,,,,,,,,,,,,,,,,,,,,,,,,,
,,613bd3a683a2ac56a4119aa6,2024-02-21_22h01.42.912,kallum_motion_pilot,2023.2.2,Win32,60.97560976,613bd3a683a2ac56a4119aa6,65d6bb0e977760de756971f7,65d6c4d58923259cf31ecf89,0.1481,0.1483,0,157,157,152,1,fivesix,,,,,,,,,,,,,,,,,,,,,,,,,,,,,,,,,,,,,,,,,,,,,,,,,,,,,,,,,,,,,,,,,,,,,,,,,,,,,,,,,,,,,,,,,,,,,,,,,,,,,,,,,,,,,,,,,,,,,,,,,,,,,,,,,,,,,,,,,
,,613bd3a683a2ac56a4119aa6,2024-02-21_22h01.42.912,kallum_motion_pilot,2023.2.2,Win32,60.97560976,613bd3a683a2ac56a4119aa6,65d6bb0e977760de756971f7,65d6c4d58923259cf31ecf89,0.1484,0.1487,0,158,158,1,1,onethree,,,,,,,,,,,,,,,,,,,,,,,,,,,,,,,,,,,,,,,,,,,,,,,,,,,,,,,,,,,,,,,,,,,,,,,,,,,,,,,,,,,,,,,,,,,,,,,,,,,,,,,,,,,,,,,,,,,,,,,,,,,,,,,,,,,,,,,,,
,,613bd3a683a2ac56a4119aa6,2024-02-21_22h01.42.912,kallum_motion_pilot,2023.2.2,Win32,60.97560976,613bd3a683a2ac56a4119aa6,65d6bb0e977760de756971f7,65d6c4d58923259cf31ecf89,0.1489,0.149,0,159,159,141,1,seveneight,,,,,,,,,,,,,,,,,,,,,,,,,,,,,,,,,,,,,,,,,,,,,,,,,,,,,,,,,,,,,,,,,,,,,,,,,,,,,,,,,,,,,,,,,,,,,,,,,,,,,,,,,,,,,,,,,,,,,,,,,,,,,,,,,,,,,,,,,
,,613bd3a683a2ac56a4119aa6,2024-02-21_22h01.42.912,kallum_motion_pilot,2023.2.2,Win32,60.97560976,613bd3a683a2ac56a4119aa6,65d6bb0e977760de756971f7,65d6c4d58923259cf31ecf89,0.1493,0.1494,0,160,160,102,1,eightsix,,,,,,,,,,,,,,,,,,,,,,,,,,,,,,,,,,,,,,,,,,,,,,,,,,,,,,,,,,,,,,,,,,,,,,,,,,,,,,,,,,,,,,,,,,,,,,,,,,,,,,,,,,,,,,,,,,,,,,,,,,,,,,,,,,,,,,,,,
,,613bd3a683a2ac56a4119aa6,2024-02-21_22h01.42.912,kallum_motion_pilot,2023.2.2,Win32,60.97560976,613bd3a683a2ac56a4119aa6,65d6bb0e977760de756971f7,65d6c4d58923259cf31ecf89,0.1496,0.1498,0,161,161,90,1,sixfive,,,,,,,,,,,,,,,,,,,,,,,,,,,,,,,,,,,,,,,,,,,,,,,,,,,,,,,,,,,,,,,,,,,,,,,,,,,,,,,,,,,,,,,,,,,,,,,,,,,,,,,,,,,,,,,,,,,,,,,,,,,,,,,,,,,,,,,,,
,,613bd3a683a2ac56a4119aa6,2024-02-21_22h01.42.912,kallum_motion_pilot,2023.2.2,Win32,60.97560976,613bd3a683a2ac56a4119aa6,65d6bb0e977760de756971f7,65d6c4d58923259cf31ecf89,0.1501,0.1503,1,0,162,92,1,sevenfive,,,,,,,,,,,,,,,,,,,,,,,,,,,,,,,,,,,,,,,,,,,,,,,,,,,,,,,,,,,,,,,,,,,,,,,,,,,,,,,,,,,,,,,,,,,,,,,,,,,,,,,,,,,,,,,,,,,,,,,,,,,,,,,,,,,,,,,,,
,,613bd3a683a2ac56a4119aa6,2024-02-21_22h01.42.912,kallum_motion_pilot,2023.2.2,Win32,60.97560976,613bd3a683a2ac56a4119aa6,65d6bb0e977760de756971f7,65d6c4d58923259cf31ecf89,0.1505,0.1507,1,1,163,133,1,seveneight,,,,,,,,,,,,,,,,,,,,,,,,,,,,,,,,,,,,,,,,,,,,,,,,,,,,,,,,,,,,,,,,,,,,,,,,,,,,,,,,,,,,,,,,,,,,,,,,,,,,,,,,,,,,,,,,,,,,,,,,,,,,,,,,,,,,,,,,,
,,613bd3a683a2ac56a4119aa6,2024-02-21_22h01.42.912,kallum_motion_pilot,2023.2.2,Win32,60.97560976,613bd3a683a2ac56a4119aa6,65d6bb0e977760de756971f7,65d6c4d58923259cf31ecf89,0.1509,0.1511,1,2,164,32,1,onetwo,,,,,,,,,,,,,,,,,,,,,,,,,,,,,,,,,,,,,,,,,,,,,,,,,,,,,,,,,,,,,,,,,,,,,,,,,,,,,,,,,,,,,,,,,,,,,,,,,,,,,,,,,,,,,,,,,,,,,,,,,,,,,,,,,,,,,,,,,
,,613bd3a683a2ac56a4119aa6,2024-02-21_22h01.42.912,kallum_motion_pilot,2023.2.2,Win32,60.97560976,613bd3a683a2ac56a4119aa6,65d6bb0e977760de756971f7,65d6c4d58923259cf31ecf89,0.1514,0.1515,1,3,165,127,1,eightseven,,,,,,,,,,,,,,,,,,,,,,,,,,,,,,,,,,,,,,,,,,,,,,,,,,,,,,,,,,,,,,,,,,,,,,,,,,,,,,,,,,,,,,,,,,,,,,,,,,,,,,,,,,,,,,,,,,,,,,,,,,,,,,,,,,,,,,,,,
,,613bd3a683a2ac56a4119aa6,2024-02-21_22h01.42.912,kallum_motion_pilot,2023.2.2,Win32,60.97560976,613bd3a683a2ac56a4119aa6,65d6bb0e977760de756971f7,65d6c4d58923259cf31ecf89,0.1517,0.1519,1,4,166,81,1,fiveseven,,,,,,,,,,,,,,,,,,,,,,,,,,,,,,,,,,,,,,,,,,,,,,,,,,,,,,,,,,,,,,,,,,,,,,,,,,,,,,,,,,,,,,,,,,,,,,,,,,,,,,,,,,,,,,,,,,,,,,,,,,,,,,,,,,,,,,,,,
,,613bd3a683a2ac56a4119aa6,2024-02-21_22h01.42.912,kallum_motion_pilot,2023.2.2,Win32,60.97560976,613bd3a683a2ac56a4119aa6,65d6bb0e977760de756971f7,65d6c4d58923259cf31ecf89,0.1521,0.1523,1,5,167,52,1,threeone,,,,,,,,,,,,,,,,,,,,,,,,,,,,,,,,,,,,,,,,,,,,,,,,,,,,,,,,,,,,,,,,,,,,,,,,,,,,,,,,,,,,,,,,,,,,,,,,,,,,,,,,,,,,,,,,,,,,,,,,,,,,,,,,,,,,,,,,,
,,613bd3a683a2ac56a4119aa6,2024-02-21_22h01.42.912,kallum_motion_pilot,2023.2.2,Win32,60.97560976,613bd3a683a2ac56a4119aa6,65d6bb0e977760de756971f7,65d6c4d58923259cf31ecf89,0.1525,0.1526,1,6,168,93,1,seveneight,,,,,,,,,,,,,,,,,,,,,,,,,,,,,,,,,,,,,,,,,,,,,,,,,,,,,,,,,,,,,,,,,,,,,,,,,,,,,,,,,,,,,,,,,,,,,,,,,,,,,,,,,,,,,,,,,,,,,,,,,,,,,,,,,,,,,,,,,
,,613bd3a683a2ac56a4119aa6,2024-02-21_22h01.42.912,kallum_motion_pilot,2023.2.2,Win32,60.97560976,613bd3a683a2ac56a4119aa6,65d6bb0e977760de756971f7,65d6c4d58923259cf31ecf89,0.1528,0.153,1,7,169,89,1,fiveseven,,,,,,,,,,,,,,,,,,,,,,,,,,,,,,,,,,,,,,,,,,,,,,,,,,,,,,,,,,,,,,,,,,,,,,,,,,,,,,,,,,,,,,,,,,,,,,,,,,,,,,,,,,,,,,,,,,,,,,,,,,,,,,,,,,,,,,,,,
,,613bd3a683a2ac56a4119aa6,2024-02-21_22h01.42.912,kallum_motion_pilot,2023.2.2,Win32,60.97560976,613bd3a683a2ac56a4119aa6,65d6bb0e977760de756971f7,65d6c4d58923259cf31ecf89,0.1532,0.1534,1,8,170,90,1,sixfive,,,,,,,,,,,,,,,,,,,,,,,,,,,,,,,,,,,,,,,,,,,,,,,,,,,,,,,,,,,,,,,,,,,,,,,,,,,,,,,,,,,,,,,,,,,,,,,,,,,,,,,,,,,,,,,,,,,,,,,,,,,,,,,,,,,,,,,,,
,,613bd3a683a2ac56a4119aa6,2024-02-21_22h01.42.912,kallum_motion_pilot,2023.2.2,Win32,60.97560976,613bd3a683a2ac56a4119aa6,65d6bb0e977760de756971f7,65d6c4d58923259cf31ecf89,0.1536,0.1538,1,9,171,16,1,onetwo,,,,,,,,,,,,,,,,,,,,,,,,,,,,,,,,,,,,,,,,,,,,,,,,,,,,,,,,,,,,,,,,,,,,,,,,,,,,,,,,,,,,,,,,,,,,,,,,,,,,,,,,,,,,,,,,,,,,,,,,,,,,,,,,,,,,,,,,,
,,613bd3a683a2ac56a4119aa6,2024-02-21_22h01.42.912,kallum_motion_pilot,2023.2.2,Win32,60.97560976,613bd3a683a2ac56a4119aa6,65d6bb0e977760de756971f7,65d6c4d58923259cf31ecf89,0.154,0.1542,1,10,172,122,1,sixfive,,,,,,,,,,,,,,,,,,,,,,,,,,,,,,,,,,,,,,,,,,,,,,,,,,,,,,,,,,,,,,,,,,,,,,,,,,,,,,,,,,,,,,,,,,,,,,,,,,,,,,,,,,,,,,,,,,,,,,,,,,,,,,,,,,,,,,,,,
,,613bd3a683a2ac56a4119aa6,2024-02-21_22h01.42.912,kallum_motion_pilot,2023.2.2,Win32,60.97560976,613bd3a683a2ac56a4119aa6,65d6bb0e977760de756971f7,65d6c4d58923259cf31ecf89,0.1544,0.1545,1,11,173,121,1,fiveseven,,,,,,,,,,,,,,,,,,,,,,,,,,,,,,,,,,,,,,,,,,,,,,,,,,,,,,,,,,,,,,,,,,,,,,,,,,,,,,,,,,,,,,,,,,,,,,,,,,,,,,,,,,,,,,,,,,,,,,,,,,,,,,,,,,,,,,,,,
,,613bd3a683a2ac56a4119aa6,2024-02-21_22h01.42.912,kallum_motion_pilot,2023.2.2,Win32,60.97560976,613bd3a683a2ac56a4119aa6,65d6bb0e977760de756971f7,65d6c4d58923259cf31ecf89,0.1548,0.1549,1,12,174,66,1,twoone,,,,,,,,,,,,,,,,,,,,,,,,,,,,,,,,,,,,,,,,,,,,,,,,,,,,,,,,,,,,,,,,,,,,,,,,,,,,,,,,,,,,,,,,,,,,,,,,,,,,,,,,,,,,,,,,,,,,,,,,,,,,,,,,,,,,,,,,,
,,613bd3a683a2ac56a4119aa6,2024-02-21_22h01.42.912,kallum_motion_pilot,2023.2.2,Win32,60.97560976,613bd3a683a2ac56a4119aa6,65d6bb0e977760de756971f7,65d6c4d58923259cf31ecf89,0.1551,0.1553,1,13,175,62,1,fourtwo,,,,,,,,,,,,,,,,,,,,,,,,,,,,,,,,,,,,,,,,,,,,,,,,,,,,,,,,,,,,,,,,,,,,,,,,,,,,,,,,,,,,,,,,,,,,,,,,,,,,,,,,,,,,,,,,,,,,,,,,,,,,,,,,,,,,,,,,,
,,613bd3a683a2ac56a4119aa6,2024-02-21_22h01.42.912,kallum_motion_pilot,2023.2.2,Win32,60.97560976,613bd3a683a2ac56a4119aa6,65d6bb0e977760de756971f7,65d6c4d58923259cf31ecf89,0.1555,0.1557,1,14,176,131,1,sixeight,,,,,,,,,,,,,,,,,,,,,,,,,,,,,,,,,,,,,,,,,,,,,,,,,,,,,,,,,,,,,,,,,,,,,,,,,,,,,,,,,,,,,,,,,,,,,,,,,,,,,,,,,,,,,,,,,,,,,,,,,,,,,,,,,,,,,,,,,
,,613bd3a683a2ac56a4119aa6,2024-02-21_22h01.42.912,kallum_motion_pilot,2023.2.2,Win32,60.97560976,613bd3a683a2ac56a4119aa6,65d6bb0e977760de756971f7,65d6c4d58923259cf31ecf89,0.1559,0.1562,1,15,177,1,1,onethree,,,,,,,,,,,,,,,,,,,,,,,,,,,,,,,,,,,,,,,,,,,,,,,,,,,,,,,,,,,,,,,,,,,,,,,,,,,,,,,,,,,,,,,,,,,,,,,,,,,,,,,,,,,,,,,,,,,,,,,,,,,,,,,,,,,,,,,,,
,,613bd3a683a2ac56a4119aa6,2024-02-21_22h01.42.912,kallum_motion_pilot,2023.2.2,Win32,60.97560976,613bd3a683a2ac56a4119aa6,65d6bb0e977760de756971f7,65d6c4d58923259cf31ecf89,0.1572,0.1574,1,16,178,139,1,sixeight,,,,,,,,,,,,,,,,,,,,,,,,,,,,,,,,,,,,,,,,,,,,,,,,,,,,,,,,,,,,,,,,,,,,,,,,,,,,,,,,,,,,,,,,,,,,,,,,,,,,,,,,,,,,,,,,,,,,,,,,,,,,,,,,,,,,,,,,,
,,613bd3a683a2ac56a4119aa6,2024-02-21_22h01.42.912,kallum_motion_pilot,2023.2.2,Win32,60.97560976,613bd3a683a2ac56a4119aa6,65d6bb0e977760de756971f7,65d6c4d58923259cf31ecf89,0.1576,0.1579,1,17,179,113,1,fiveseven,,,,,,,,,,,,,,,,,,,,,,,,,,,,,,,,,,,,,,,,,,,,,,,,,,,,,,,,,,,,,,,,,,,,,,,,,,,,,,,,,,,,,,,,,,,,,,,,,,,,,,,,,,,,,,,,,,,,,,,,,,,,,,,,,,,,,,,,,
,,613bd3a683a2ac56a4119aa6,2024-02-21_22h01.42.912,kallum_motion_pilot,2023.2.2,Win32,60.97560976,613bd3a683a2ac56a4119aa6,65d6bb0e977760de756971f7,65d6c4d58923259cf31ecf89,0.1581,0.1583,1,18,180,97,1,fiveseven,,,,,,,,,,,,,,,,,,,,,,,,,,,,,,,,,,,,,,,,,,,,,,,,,,,,,,,,,,,,,,,,,,,,,,,,,,,,,,,,,,,,,,,,,,,,,,,,,,,,,,,,,,,,,,,,,,,,,,,,,,,,,,,,,,,,,,,,,
,,613bd3a683a2ac56a4119aa6,2024-02-21_22h01.42.912,kallum_motion_pilot,2023.2.2,Win32,60.97560976,613bd3a683a2ac56a4119aa6,65d6bb0e977760de756971f7,65d6c4d58923259cf31ecf89,0.1585,0.1586,1,19,181,2,1,twoone,,,,,,,,,,,,,,,,,,,,,,,,,,,,,,,,,,,,,,,,,,,,,,,,,,,,,,,,,,,,,,,,,,,,,,,,,,,,,,,,,,,,,,,,,,,,,,,,,,,,,,,,,,,,,,,,,,,,,,,,,,,,,,,,,,,,,,,,,
,,613bd3a683a2ac56a4119aa6,2024-02-21_22h01.42.912,kallum_motion_pilot,2023.2.2,Win32,60.97560976,613bd3a683a2ac56a4119aa6,65d6bb0e977760de756971f7,65d6c4d58923259cf31ecf89,0.1589,0.1591,1,20,182,14,1,fourtwo,,,,,,,,,,,,,,,,,,,,,,,,,,,,,,,,,,,,,,,,,,,,,,,,,,,,,,,,,,,,,,,,,,,,,,,,,,,,,,,,,,,,,,,,,,,,,,,,,,,,,,,,,,,,,,,,,,,,,,,,,,,,,,,,,,,,,,,,,
,,613bd3a683a2ac56a4119aa6,2024-02-21_22h01.42.912,kallum_motion_pilot,2023.2.2,Win32,60.97560976,613bd3a683a2ac56a4119aa6,65d6bb0e977760de756971f7,65d6c4d58923259cf31ecf89,0.1593,0.1596,1,21,183,105,1,fiveseven,,,,,,,,,,,,,,,,,,,,,,,,,,,,,,,,,,,,,,,,,,,,,,,,,,,,,,,,,,,,,,,,,,,,,,,,,,,,,,,,,,,,,,,,,,,,,,,,,,,,,,,,,,,,,,,,,,,,,,,,,,,,,,,,,,,,,,,,,
,,613bd3a683a2ac56a4119aa6,2024-02-21_22h01.42.912,kallum_motion_pilot,2023.2.2,Win32,60.97560976,613bd3a683a2ac56a4119aa6,65d6bb0e977760de756971f7,65d6c4d58923259cf31ecf89,0.1602,0.1604,1,22,184,160,1,fivesix,,,,,,,,,,,,,,,,,,,,,,,,,,,,,,,,,,,,,,,,,,,,,,,,,,,,,,,,,,,,,,,,,,,,,,,,,,,,,,,,,,,,,,,,,,,,,,,,,,,,,,,,,,,,,,,,,,,,,,,,,,,,,,,,,,,,,,,,,
,,613bd3a683a2ac56a4119aa6,2024-02-21_22h01.42.912,kallum_motion_pilot,2023.2.2,Win32,60.97560976,613bd3a683a2ac56a4119aa6,65d6bb0e977760de756971f7,65d6c4d58923259cf31ecf89,0.1608,0.161,1,23,185,8,1,onetwo,,,,,,,,,,,,,,,,,,,,,,,,,,,,,,,,,,,,,,,,,,,,,,,,,,,,,,,,,,,,,,,,,,,,,,,,,,,,,,,,,,,,,,,,,,,,,,,,,,,,,,,,,,,,,,,,,,,,,,,,,,,,,,,,,,,,,,,,,
,,613bd3a683a2ac56a4119aa6,2024-02-21_22h01.42.912,kallum_motion_pilot,2023.2.2,Win32,60.97560976,613bd3a683a2ac56a4119aa6,65d6bb0e977760de756971f7,65d6c4d58923259cf31ecf89,0.1613,0.1615,1,24,186,43,1,twofour,,,,,,,,,,,,,,,,,,,,,,,,,,,,,,,,,,,,,,,,,,,,,,,,,,,,,,,,,,,,,,,,,,,,,,,,,,,,,,,,,,,,,,,,,,,,,,,,,,,,,,,,,,,,,,,,,,,,,,,,,,,,,,,,,,,,,,,,,
,,613bd3a683a2ac56a4119aa6,2024-02-21_22h01.42.912,kallum_motion_pilot,2023.2.2,Win32,60.97560976,613bd3a683a2ac56a4119aa6,65d6bb0e977760de756971f7,65d6c4d58923259cf31ecf89,0.1617,0.1619,1,25,187,71,1,fourthree,,,,,,,,,,,,,,,,,,,,,,,,,,,,,,,,,,,,,,,,,,,,,,,,,,,,,,,,,,,,,,,,,,,,,,,,,,,,,,,,,,,,,,,,,,,,,,,,,,,,,,,,,,,,,,,,,,,,,,,,,,,,,,,,,,,,,,,,,
,,613bd3a683a2ac56a4119aa6,2024-02-21_22h01.42.912,kallum_motion_pilot,2023.2.2,Win32,60.97560976,613bd3a683a2ac56a4119aa6,65d6bb0e977760de756971f7,65d6c4d58923259cf31ecf89,0.1622,0.1623,1,26,188,68,1,threeone,,,,,,,,,,,,,,,,,,,,,,,,,,,,,,,,,,,,,,,,,,,,,,,,,,,,,,,,,,,,,,,,,,,,,,,,,,,,,,,,,,,,,,,,,,,,,,,,,,,,,,,,,,,,,,,,,,,,,,,,,,,,,,,,,,,,,,,,,
,,613bd3a683a2ac56a4119aa6,2024-02-21_22h01.42.912,kallum_motion_pilot,2023.2.2,Win32,60.97560976,613bd3a683a2ac56a4119aa6,65d6bb0e977760de756971f7,65d6c4d58923259cf31ecf89,0.1625,0.1628,1,27,189,83,1,sixeight,,,,,,,,,,,,,,,,,,,,,,,,,,,,,,,,,,,,,,,,,,,,,,,,,,,,,,,,,,,,,,,,,,,,,,,,,,,,,,,,,,,,,,,,,,,,,,,,,,,,,,,,,,,,,,,,,,,,,,,,,,,,,,,,,,,,,,,,,
,,613bd3a683a2ac56a4119aa6,2024-02-21_22h01.42.912,kallum_motion_pilot,2023.2.2,Win32,60.97560976,613bd3a683a2ac56a4119aa6,65d6bb0e977760de756971f7,65d6c4d58923259cf31ecf89,0.1629,0.1632,1,28,190,33,1,onethree,,,,,,,,,,,,,,,,,,,,,,,,,,,,,,,,,,,,,,,,,,,,,,,,,,,,,,,,,,,,,,,,,,,,,,,,,,,,,,,,,,,,,,,,,,,,,,,,,,,,,,,,,,,,,,,,,,,,,,,,,,,,,,,,,,,,,,,,,
,,613bd3a683a2ac56a4119aa6,2024-02-21_22h01.42.912,kallum_motion_pilot,2023.2.2,Win32,60.97560976,613bd3a683a2ac56a4119aa6,65d6bb0e977760de756971f7,65d6c4d58923259cf31ecf89,0.1634,0.1636,1,29,191,69,1,threefour,,,,,,,,,,,,,,,,,,,,,,,,,,,,,,,,,,,,,,,,,,,,,,,,,,,,,,,,,,,,,,,,,,,,,,,,,,,,,,,,,,,,,,,,,,,,,,,,,,,,,,,,,,,,,,,,,,,,,,,,,,,,,,,,,,,,,,,,,
,,613bd3a683a2ac56a4119aa6,2024-02-21_22h01.42.912,kallum_motion_pilot,2023.2.2,Win32,60.97560976,613bd3a683a2ac56a4119aa6,65d6bb0e977760de756971f7,65d6c4d58923259cf31ecf89,0.1638,0.164,1,30,192,143,1,eightseven,,,,,,,,,,,,,,,,,,,,,,,,,,,,,,,,,,,,,,,,,,,,,,,,,,,,,,,,,,,,,,,,,,,,,,,,,,,,,,,,,,,,,,,,,,,,,,,,,,,,,,,,,,,,,,,,,,,,,,,,,,,,,,,,,,,,,,,,,
,,613bd3a683a2ac56a4119aa6,2024-02-21_22h01.42.912,kallum_motion_pilot,2023.2.2,Win32,60.97560976,613bd3a683a2ac56a4119aa6,65d6bb0e977760de756971f7,65d6c4d58923259cf31ecf89,0.1642,0.1644,1,31,193,150,1,eightsix,,,,,,,,,,,,,,,,,,,,,,,,,,,,,,,,,,,,,,,,,,,,,,,,,,,,,,,,,,,,,,,,,,,,,,,,,,,,,,,,,,,,,,,,,,,,,,,,,,,,,,,,,,,,,,,,,,,,,,,,,,,,,,,,,,,,,,,,,
,,613bd3a683a2ac56a4119aa6,2024-02-21_22h01.42.912,kallum_motion_pilot,2023.2.2,Win32,60.97560976,613bd3a683a2ac56a4119aa6,65d6bb0e977760de756971f7,65d6c4d58923259cf31ecf89,0.1647,0.1649,1,32,194,45,1,threefour,,,,,,,,,,,,,,,,,,,,,,,,,,,,,,,,,,,,,,,,,,,,,,,,,,,,,,,,,,,,,,,,,,,,,,,,,,,,,,,,,,,,,,,,,,,,,,,,,,,,,,,,,,,,,,,,,,,,,,,,,,,,,,,,,,,,,,,,,
,,613bd3a683a2ac56a4119aa6,2024-02-21_22h01.42.912,kallum_motion_pilot,2023.2.2,Win32,60.97560976,613bd3a683a2ac56a4119aa6,65d6bb0e977760de756971f7,65d6c4d58923259cf31ecf89,0.1654,0.1655,1,33,195,41,1,onethree,,,,,,,,,,,,,,,,,,,,,,,,,,,,,,,,,,,,,,,,,,,,,,,,,,,,,,,,,,,,,,,,,,,,,,,,,,,,,,,,,,,,,,,,,,,,,,,,,,,,,,,,,,,,,,,,,,,,,,,,,,,,,,,,,,,,,,,,,
,,613bd3a683a2ac56a4119aa6,2024-02-21_22h01.42.912,kallum_motion_pilot,2023.2.2,Win32,60.97560976,613bd3a683a2ac56a4119aa6,65d6bb0e977760de756971f7,65d6c4d58923259cf31ecf89,0.1659,0.1662,1,34,196,115,1,sixeight,,,,,,,,,,,,,,,,,,,,,,,,,,,,,,,,,,,,,,,,,,,,,,,,,,,,,,,,,,,,,,,,,,,,,,,,,,,,,,,,,,,,,,,,,,,,,,,,,,,,,,,,,,,,,,,,,,,,,,,,,,,,,,,,,,,,,,,,,
,,613bd3a683a2ac56a4119aa6,2024-02-21_22h01.42.912,kallum_motion_pilot,2023.2.2,Win32,60.97560976,613bd3a683a2ac56a4119aa6,65d6bb0e977760de756971f7,65d6c4d58923259cf31ecf89,0.1664,0.1666,1,35,197,24,1,onetwo,,,,,,,,,,,,,,,,,,,,,,,,,,,,,,,,,,,,,,,,,,,,,,,,,,,,,,,,,,,,,,,,,,,,,,,,,,,,,,,,,,,,,,,,,,,,,,,,,,,,,,,,,,,,,,,,,,,,,,,,,,,,,,,,,,,,,,,,,
,,613bd3a683a2ac56a4119aa6,2024-02-21_22h01.42.912,kallum_motion_pilot,2023.2.2,Win32,60.97560976,613bd3a683a2ac56a4119aa6,65d6bb0e977760de756971f7,65d6c4d58923259cf31ecf89,0.1668,0.167,1,36,198,60,1,threeone,,,,,,,,,,,,,,,,,,,,,,,,,,,,,,,,,,,,,,,,,,,,,,,,,,,,,,,,,,,,,,,,,,,,,,,,,,,,,,,,,,,,,,,,,,,,,,,,,,,,,,,,,,,,,,,,,,,,,,,,,,,,,,,,,,,,,,,,,
,,613bd3a683a2ac56a4119aa6,2024-02-21_22h01.42.912,kallum_motion_pilot,2023.2.2,Win32,60.97560976,613bd3a683a2ac56a4119aa6,65d6bb0e977760de756971f7,65d6c4d58923259cf31ecf89,0.1672,0.1674,1,37,199,99,1,sixeight,,,,,,,,,,,,,,,,,,,,,,,,,,,,,,,,,,,,,,,,,,,,,,,,,,,,,,,,,,,,,,,,,,,,,,,,,,,,,,,,,,,,,,,,,,,,,,,,,,,,,,,,,,,,,,,,,,,,,,,,,,,,,,,,,,,,,,,,,
,,613bd3a683a2ac56a4119aa6,2024-02-21_22h01.42.912,kallum_motion_pilot,2023.2.2,Win32,60.97560976,613bd3a683a2ac56a4119aa6,65d6bb0e977760de756971f7,65d6c4d58923259cf31ecf89,0.1677,0.1679,1,38,200,31,1,fourthree,,,,,,,,,,,,,,,,,,,,,,,,,,,,,,,,,,,,,,,,,,,,,,,,,,,,,,,,,,,,,,,,,,,,,,,,,,,,,,,,,,,,,,,,,,,,,,,,,,,,,,,,,,,,,,,,,,,,,,,,,,,,,,,,,,,,,,,,,
,,613bd3a683a2ac56a4119aa6,2024-02-21_22h01.42.912,kallum_motion_pilot,2023.2.2,Win32,60.97560976,613bd3a683a2ac56a4119aa6,65d6bb0e977760de756971f7,65d6c4d58923259cf31ecf89,0.168,0.1683,1,39,201,142,1,eightsix,,,,,,,,,,,,,,,,,,,,,,,,,,,,,,,,,,,,,,,,,,,,,,,,,,,,,,,,,,,,,,,,,,,,,,,,,,,,,,,,,,,,,,,,,,,,,,,,,,,,,,,,,,,,,,,,,,,,,,,,,,,,,,,,,,,,,,,,,
,,613bd3a683a2ac56a4119aa6,2024-02-21_22h01.42.912,kallum_motion_pilot,2023.2.2,Win32,60.97560976,613bd3a683a2ac56a4119aa6,65d6bb0e977760de756971f7,65d6c4d58923259cf31ecf89,0.1685,0.1687,1,40,202,136,1,fivesix,,,,,,,,,,,,,,,,,,,,,,,,,,,,,,,,,,,,,,,,,,,,,,,,,,,,,,,,,,,,,,,,,,,,,,,,,,,,,,,,,,,,,,,,,,,,,,,,,,,,,,,,,,,,,,,,,,,,,,,,,,,,,,,,,,,,,,,,,
,,613bd3a683a2ac56a4119aa6,2024-02-21_22h01.42.912,kallum_motion_pilot,2023.2.2,Win32,60.97560976,613bd3a683a2ac56a4119aa6,65d6bb0e977760de756971f7,65d6c4d58923259cf31ecf89,0.1689,0.1691,1,41,203,156,1,sevenfive,,,,,,,,,,,,,,,,,,,,,,,,,,,,,,,,,,,,,,,,,,,,,,,,,,,,,,,,,,,,,,,,,,,,,,,,,,,,,,,,,,,,,,,,,,,,,,,,,,,,,,,,,,,,,,,,,,,,,,,,,,,,,,,,,,,,,,,,,
,,613bd3a683a2ac56a4119aa6,2024-02-21_22h01.42.912,kallum_motion_pilot,2023.2.2,Win32,60.97560976,613bd3a683a2ac56a4119aa6,65d6bb0e977760de756971f7,65d6c4d58923259cf31ecf89,0.1694,0.1696,1,42,204,86,1,eightsix,,,,,,,,,,,,,,,,,,,,,,,,,,,,,,,,,,,,,,,,,,,,,,,,,,,,,,,,,,,,,,,,,,,,,,,,,,,,,,,,,,,,,,,,,,,,,,,,,,,,,,,,,,,,,,,,,,,,,,,,,,,,,,,,,,,,,,,,,
,,613bd3a683a2ac56a4119aa6,2024-02-21_22h01.42.912,kallum_motion_pilot,2023.2.2,Win32,60.97560976,613bd3a683a2ac56a4119aa6,65d6bb0e977760de756971f7,65d6c4d58923259cf31ecf89,0.1698,0.17,1,43,205,108,1,sevenfive,,,,,,,,,,,,,,,,,,,,,,,,,,,,,,,,,,,,,,,,,,,,,,,,,,,,,,,,,,,,,,,,,,,,,,,,,,,,,,,,,,,,,,,,,,,,,,,,,,,,,,,,,,,,,,,,,,,,,,,,,,,,,,,,,,,,,,,,,
,,613bd3a683a2ac56a4119aa6,2024-02-21_22h01.42.912,kallum_motion_pilot,2023.2.2,Win32,60.97560976,613bd3a683a2ac56a4119aa6,65d6bb0e977760de756971f7,65d6c4d58923259cf31ecf89,0.1702,0.1704,1,44,206,144,1,fivesix,,,,,,,,,,,,,,,,,,,,,,,,,,,,,,,,,,,,,,,,,,,,,,,,,,,,,,,,,,,,,,,,,,,,,,,,,,,,,,,,,,,,,,,,,,,,,,,,,,,,,,,,,,,,,,,,,,,,,,,,,,,,,,,,,,,,,,,,,
,,613bd3a683a2ac56a4119aa6,2024-02-21_22h01.42.912,kallum_motion_pilot,2023.2.2,Win32,60.97560976,613bd3a683a2ac56a4119aa6,65d6bb0e977760de756971f7,65d6c4d58923259cf31ecf89,0.1706,0.1709,1,45,207,155,1,sixeight,,,,,,,,,,,,,,,,,,,,,,,,,,,,,,,,,,,,,,,,,,,,,,,,,,,,,,,,,,,,,,,,,,,,,,,,,,,,,,,,,,,,,,,,,,,,,,,,,,,,,,,,,,,,,,,,,,,,,,,,,,,,,,,,,,,,,,,,,
,,613bd3a683a2ac56a4119aa6,2024-02-21_22h01.42.912,kallum_motion_pilot,2023.2.2,Win32,60.97560976,613bd3a683a2ac56a4119aa6,65d6bb0e977760de756971f7,65d6c4d58923259cf31ecf89,0.1711,0.1713,1,46,208,35,1,twofour,,,,,,,,,,,,,,,,,,,,,,,,,,,,,,,,,,,,,,,,,,,,,,,,,,,,,,,,,,,,,,,,,,,,,,,,,,,,,,,,,,,,,,,,,,,,,,,,,,,,,,,,,,,,,,,,,,,,,,,,,,,,,,,,,,,,,,,,,
,,613bd3a683a2ac56a4119aa6,2024-02-21_22h01.42.912,kallum_motion_pilot,2023.2.2,Win32,60.97560976,613bd3a683a2ac56a4119aa6,65d6bb0e977760de756971f7,65d6c4d58923259cf31ecf89,0.1716,0.1717,1,47,209,19,1,twofour,,,,,,,,,,,,,,,,,,,,,,,,,,,,,,,,,,,,,,,,,,,,,,,,,,,,,,,,,,,,,,,,,,,,,,,,,,,,,,,,,,,,,,,,,,,,,,,,,,,,,,,,,,,,,,,,,,,,,,,,,,,,,,,,,,,,,,,,,
,,613bd3a683a2ac56a4119aa6,2024-02-21_22h01.42.912,kallum_motion_pilot,2023.2.2,Win32,60.97560976,613bd3a683a2ac56a4119aa6,65d6bb0e977760de756971f7,65d6c4d58923259cf31ecf89,0.172,0.1722,1,48,210,153,1,fiveseven,,,,,,,,,,,,,,,,,,,,,,,,,,,,,,,,,,,,,,,,,,,,,,,,,,,,,,,,,,,,,,,,,,,,,,,,,,,,,,,,,,,,,,,,,,,,,,,,,,,,,,,,,,,,,,,,,,,,,,,,,,,,,,,,,,,,,,,,,
,,613bd3a683a2ac56a4119aa6,2024-02-21_22h01.42.912,kallum_motion_pilot,2023.2.2,Win32,60.97560976,613bd3a683a2ac56a4119aa6,65d6bb0e977760de756971f7,65d6c4d58923259cf31ecf89,0.1724,0.1725,1,49,211,119,1,eightseven,,,,,,,,,,,,,,,,,,,,,,,,,,,,,,,,,,,,,,,,,,,,,,,,,,,,,,,,,,,,,,,,,,,,,,,,,,,,,,,,,,,,,,,,,,,,,,,,,,,,,,,,,,,,,,,,,,,,,,,,,,,,,,,,,,,,,,,,,
,,613bd3a683a2ac56a4119aa6,2024-02-21_22h01.42.912,kallum_motion_pilot,2023.2.2,Win32,60.97560976,613bd3a683a2ac56a4119aa6,65d6bb0e977760de756971f7,65d6c4d58923259cf31ecf89,0.1727,0.1729,1,50,212,30,1,fourtwo,,,,,,,,,,,,,,,,,,,,,,,,,,,,,,,,,,,,,,,,,,,,,,,,,,,,,,,,,,,,,,,,,,,,,,,,,,,,,,,,,,,,,,,,,,,,,,,,,,,,,,,,,,,,,,,,,,,,,,,,,,,,,,,,,,,,,,,,,
,,613bd3a683a2ac56a4119aa6,2024-02-21_22h01.42.912,kallum_motion_pilot,2023.2.2,Win32,60.97560976,613bd3a683a2ac56a4119aa6,65d6bb0e977760de756971f7,65d6c4d58923259cf31ecf89,0.1731,0.1733,1,51,213,77,1,threefour,,,,,,,,,,,,,,,,,,,,,,,,,,,,,,,,,,,,,,,,,,,,,,,,,,,,,,,,,,,,,,,,,,,,,,,,,,,,,,,,,,,,,,,,,,,,,,,,,,,,,,,,,,,,,,,,,,,,,,,,,,,,,,,,,,,,,,,,,
,,613bd3a683a2ac56a4119aa6,2024-02-21_22h01.42.912,kallum_motion_pilot,2023.2.2,Win32,60.97560976,613bd3a683a2ac56a4119aa6,65d6bb0e977760de756971f7,65d6c4d58923259cf31ecf89,0.1735,0.1737,1,52,214,80,1,fivesix,,,,,,,,,,,,,,,,,,,,,,,,,,,,,,,,,,,,,,,,,,,,,,,,,,,,,,,,,,,,,,,,,,,,,,,,,,,,,,,,,,,,,,,,,,,,,,,,,,,,,,,,,,,,,,,,,,,,,,,,,,,,,,,,,,,,,,,,,
,,613bd3a683a2ac56a4119aa6,2024-02-21_22h01.42.912,kallum_motion_pilot,2023.2.2,Win32,60.97560976,613bd3a683a2ac56a4119aa6,65d6bb0e977760de756971f7,65d6c4d58923259cf31ecf89,0.1739,0.1741,1,53,215,15,1,fourthree,,,,,,,,,,,,,,,,,,,,,,,,,,,,,,,,,,,,,,,,,,,,,,,,,,,,,,,,,,,,,,,,,,,,,,,,,,,,,,,,,,,,,,,,,,,,,,,,,,,,,,,,,,,,,,,,,,,,,,,,,,,,,,,,,,,,,,,,,
,,613bd3a683a2ac56a4119aa6,2024-02-21_22h01.42.912,kallum_motion_pilot,2023.2.2,Win32,60.97560976,613bd3a683a2ac56a4119aa6,65d6bb0e977760de756971f7,65d6c4d58923259cf31ecf89,0.1744,0.1744,1,54,216,85,1,seveneight,,,,,,,,,,,,,,,,,,,,,,,,,,,,,,,,,,,,,,,,,,,,,,,,,,,,,,,,,,,,,,,,,,,,,,,,,,,,,,,,,,,,,,,,,,,,,,,,,,,,,,,,,,,,,,,,,,,,,,,,,,,,,,,,,,,,,,,,,
,,613bd3a683a2ac56a4119aa6,2024-02-21_22h01.42.912,kallum_motion_pilot,2023.2.2,Win32,60.97560976,613bd3a683a2ac56a4119aa6,65d6bb0e977760de756971f7,65d6c4d58923259cf31ecf89,0.1747,0.1748,1,55,217,75,1,twofour,,,,,,,,,,,,,,,,,,,,,,,,,,,,,,,,,,,,,,,,,,,,,,,,,,,,,,,,,,,,,,,,,,,,,,,,,,,,,,,,,,,,,,,,,,,,,,,,,,,,,,,,,,,,,,,,,,,,,,,,,,,,,,,,,,,,,,,,,
,,613bd3a683a2ac56a4119aa6,2024-02-21_22h01.42.912,kallum_motion_pilot,2023.2.2,Win32,60.97560976,613bd3a683a2ac56a4119aa6,65d6bb0e977760de756971f7,65d6c4d58923259cf31ecf89,0.1751,0.1753,1,56,218,79,1,eightseven,,,,,,,,,,,,,,,,,,,,,,,,,,,,,,,,,,,,,,,,,,,,,,,,,,,,,,,,,,,,,,,,,,,,,,,,,,,,,,,,,,,,,,,,,,,,,,,,,,,,,,,,,,,,,,,,,,,,,,,,,,,,,,,,,,,,,,,,,
,,613bd3a683a2ac56a4119aa6,2024-02-21_22h01.42.912,kallum_motion_pilot,2023.2.2,Win32,60.97560976,613bd3a683a2ac56a4119aa6,65d6bb0e977760de756971f7,65d6c4d58923259cf31ecf89,0.1755,0.1757,1,57,219,76,1,threeone,,,,,,,,,,,,,,,,,,,,,,,,,,,,,,,,,,,,,,,,,,,,,,,,,,,,,,,,,,,,,,,,,,,,,,,,,,,,,,,,,,,,,,,,,,,,,,,,,,,,,,,,,,,,,,,,,,,,,,,,,,,,,,,,,,,,,,,,,
,,613bd3a683a2ac56a4119aa6,2024-02-21_22h01.42.912,kallum_motion_pilot,2023.2.2,Win32,60.97560976,613bd3a683a2ac56a4119aa6,65d6bb0e977760de756971f7,65d6c4d58923259cf31ecf89,0.1759,0.1761,1,58,220,137,1,fiveseven,,,,,,,,,,,,,,,,,,,,,,,,,,,,,,,,,,,,,,,,,,,,,,,,,,,,,,,,,,,,,,,,,,,,,,,,,,,,,,,,,,,,,,,,,,,,,,,,,,,,,,,,,,,,,,,,,,,,,,,,,,,,,,,,,,,,,,,,,
,,613bd3a683a2ac56a4119aa6,2024-02-21_22h01.42.912,kallum_motion_pilot,2023.2.2,Win32,60.97560976,613bd3a683a2ac56a4119aa6,65d6bb0e977760de756971f7,65d6c4d58923259cf31ecf89,0.1766,0.1767,1,59,221,36,1,threeone,,,,,,,,,,,,,,,,,,,,,,,,,,,,,,,,,,,,,,,,,,,,,,,,,,,,,,,,,,,,,,,,,,,,,,,,,,,,,,,,,,,,,,,,,,,,,,,,,,,,,,,,,,,,,,,,,,,,,,,,,,,,,,,,,,,,,,,,,
,,613bd3a683a2ac56a4119aa6,2024-02-21_22h01.42.912,kallum_motion_pilot,2023.2.2,Win32,60.97560976,613bd3a683a2ac56a4119aa6,65d6bb0e977760de756971f7,65d6c4d58923259cf31ecf89,0.177,0.1773,1,60,222,159,1,eightseven,,,,,,,,,,,,,,,,,,,,,,,,,,,,,,,,,,,,,,,,,,,,,,,,,,,,,,,,,,,,,,,,,,,,,,,,,,,,,,,,,,,,,,,,,,,,,,,,,,,,,,,,,,,,,,,,,,,,,,,,,,,,,,,,,,,,,,,,,
,,613bd3a683a2ac56a4119aa6,2024-02-21_22h01.42.912,kallum_motion_pilot,2023.2.2,Win32,60.97560976,613bd3a683a2ac56a4119aa6,65d6bb0e977760de756971f7,65d6c4d58923259cf31ecf89,0.1775,0.1777,1,61,223,135,1,eightseven,,,,,,,,,,,,,,,,,,,,,,,,,,,,,,,,,,,,,,,,,,,,,,,,,,,,,,,,,,,,,,,,,,,,,,,,,,,,,,,,,,,,,,,,,,,,,,,,,,,,,,,,,,,,,,,,,,,,,,,,,,,,,,,,,,,,,,,,,
,,613bd3a683a2ac56a4119aa6,2024-02-21_22h01.42.912,kallum_motion_pilot,2023.2.2,Win32,60.97560976,613bd3a683a2ac56a4119aa6,65d6bb0e977760de756971f7,65d6c4d58923259cf31ecf89,0.178,0.1781,1,62,224,9,1,onethree,,,,,,,,,,,,,,,,,,,,,,,,,,,,,,,,,,,,,,,,,,,,,,,,,,,,,,,,,,,,,,,,,,,,,,,,,,,,,,,,,,,,,,,,,,,,,,,,,,,,,,,,,,,,,,,,,,,,,,,,,,,,,,,,,,,,,,,,,
,,613bd3a683a2ac56a4119aa6,2024-02-21_22h01.42.912,kallum_motion_pilot,2023.2.2,Win32,60.97560976,613bd3a683a2ac56a4119aa6,65d6bb0e977760de756971f7,65d6c4d58923259cf31ecf89,0.1785,0.1787,1,63,225,128,1,fivesix,,,,,,,,,,,,,,,,,,,,,,,,,,,,,,,,,,,,,,,,,,,,,,,,,,,,,,,,,,,,,,,,,,,,,,,,,,,,,,,,,,,,,,,,,,,,,,,,,,,,,,,,,,,,,,,,,,,,,,,,,,,,,,,,,,,,,,,,,
,,613bd3a683a2ac56a4119aa6,2024-02-21_22h01.42.912,kallum_motion_pilot,2023.2.2,Win32,60.97560976,613bd3a683a2ac56a4119aa6,65d6bb0e977760de756971f7,65d6c4d58923259cf31ecf89,0.179,0.1792,1,64,226,157,1,seveneight,,,,,,,,,,,,,,,,,,,,,,,,,,,,,,,,,,,,,,,,,,,,,,,,,,,,,,,,,,,,,,,,,,,,,,,,,,,,,,,,,,,,,,,,,,,,,,,,,,,,,,,,,,,,,,,,,,,,,,,,,,,,,,,,,,,,,,,,,
,,613bd3a683a2ac56a4119aa6,2024-02-21_22h01.42.912,kallum_motion_pilot,2023.2.2,Win32,60.97560976,613bd3a683a2ac56a4119aa6,65d6bb0e977760de756971f7,65d6c4d58923259cf31ecf89,0.1794,0.1796,1,65,227,40,1,onetwo,,,,,,,,,,,,,,,,,,,,,,,,,,,,,,,,,,,,,,,,,,,,,,,,,,,,,,,,,,,,,,,,,,,,,,,,,,,,,,,,,,,,,,,,,,,,,,,,,,,,,,,,,,,,,,,,,,,,,,,,,,,,,,,,,,,,,,,,,
,,613bd3a683a2ac56a4119aa6,2024-02-21_22h01.42.912,kallum_motion_pilot,2023.2.2,Win32,60.97560976,613bd3a683a2ac56a4119aa6,65d6bb0e977760de756971f7,65d6c4d58923259cf31ecf89,0.1798,0.18,1,66,228,56,1,onetwo,,,,,,,,,,,,,,,,,,,,,,,,,,,,,,,,,,,,,,,,,,,,,,,,,,,,,,,,,,,,,,,,,,,,,,,,,,,,,,,,,,,,,,,,,,,,,,,,,,,,,,,,,,,,,,,,,,,,,,,,,,,,,,,,,,,,,,,,,
,,613bd3a683a2ac56a4119aa6,2024-02-21_22h01.42.912,kallum_motion_pilot,2023.2.2,Win32,60.97560976,613bd3a683a2ac56a4119aa6,65d6bb0e977760de756971f7,65d6c4d58923259cf31ecf89,0.1803,0.1805,1,67,229,102,1,eightsix,,,,,,,,,,,,,,,,,,,,,,,,,,,,,,,,,,,,,,,,,,,,,,,,,,,,,,,,,,,,,,,,,,,,,,,,,,,,,,,,,,,,,,,,,,,,,,,,,,,,,,,,,,,,,,,,,,,,,,,,,,,,,,,,,,,,,,,,,
,,613bd3a683a2ac56a4119aa6,2024-02-21_22h01.42.912,kallum_motion_pilot,2023.2.2,Win32,60.97560976,613bd3a683a2ac56a4119aa6,65d6bb0e977760de756971f7,65d6c4d58923259cf31ecf89,0.1807,0.181,1,68,230,124,1,sevenfive,,,,,,,,,,,,,,,,,,,,,,,,,,,,,,,,,,,,,,,,,,,,,,,,,,,,,,,,,,,,,,,,,,,,,,,,,,,,,,,,,,,,,,,,,,,,,,,,,,,,,,,,,,,,,,,,,,,,,,,,,,,,,,,,,,,,,,,,,
,,613bd3a683a2ac56a4119aa6,2024-02-21_22h01.42.912,kallum_motion_pilot,2023.2.2,Win32,60.97560976,613bd3a683a2ac56a4119aa6,65d6bb0e977760de756971f7,65d6c4d58923259cf31ecf89,0.1812,0.1814,1,69,231,125,1,seveneight,,,,,,,,,,,,,,,,,,,,,,,,,,,,,,,,,,,,,,,,,,,,,,,,,,,,,,,,,,,,,,,,,,,,,,,,,,,,,,,,,,,,,,,,,,,,,,,,,,,,,,,,,,,,,,,,,,,,,,,,,,,,,,,,,,,,,,,,,
,,613bd3a683a2ac56a4119aa6,2024-02-21_22h01.42.912,kallum_motion_pilot,2023.2.2,Win32,60.97560976,613bd3a683a2ac56a4119aa6,65d6bb0e977760de756971f7,65d6c4d58923259cf31ecf89,0.1816,0.1819,1,70,232,58,1,twoone,,,,,,,,,,,,,,,,,,,,,,,,,,,,,,,,,,,,,,,,,,,,,,,,,,,,,,,,,,,,,,,,,,,,,,,,,,,,,,,,,,,,,,,,,,,,,,,,,,,,,,,,,,,,,,,,,,,,,,,,,,,,,,,,,,,,,,,,,
,,613bd3a683a2ac56a4119aa6,2024-02-21_22h01.42.912,kallum_motion_pilot,2023.2.2,Win32,60.97560976,613bd3a683a2ac56a4119aa6,65d6bb0e977760de756971f7,65d6c4d58923259cf31ecf89,0.1821,0.1823,1,71,233,114,1,sixfive,,,,,,,,,,,,,,,,,,,,,,,,,,,,,,,,,,,,,,,,,,,,,,,,,,,,,,,,,,,,,,,,,,,,,,,,,,,,,,,,,,,,,,,,,,,,,,,,,,,,,,,,,,,,,,,,,,,,,,,,,,,,,,,,,,,,,,,,,
,,613bd3a683a2ac56a4119aa6,2024-02-21_22h01.42.912,kallum_motion_pilot,2023.2.2,Win32,60.97560976,613bd3a683a2ac56a4119aa6,65d6bb0e977760de756971f7,65d6c4d58923259cf31ecf89,0.1825,0.1827,1,72,234,88,1,fivesix,,,,,,,,,,,,,,,,,,,,,,,,,,,,,,,,,,,,,,,,,,,,,,,,,,,,,,,,,,,,,,,,,,,,,,,,,,,,,,,,,,,,,,,,,,,,,,,,,,,,,,,,,,,,,,,,,,,,,,,,,,,,,,,,,,,,,,,,,
,,613bd3a683a2ac56a4119aa6,2024-02-21_22h01.42.912,kallum_motion_pilot,2023.2.2,Win32,60.97560976,613bd3a683a2ac56a4119aa6,65d6bb0e977760de756971f7,65d6c4d58923259cf31ecf89,0.183,0.1832,1,73,235,65,1,onethree,,,,,,,,,,,,,,,,,,,,,,,,,,,,,,,,,,,,,,,,,,,,,,,,,,,,,,,,,,,,,,,,,,,,,,,,,,,,,,,,,,,,,,,,,,,,,,,,,,,,,,,,,,,,,,,,,,,,,,,,,,,,,,,,,,,,,,,,,
,,613bd3a683a2ac56a4119aa6,2024-02-21_22h01.42.912,kallum_motion_pilot,2023.2.2,Win32,60.97560976,613bd3a683a2ac56a4119aa6,65d6bb0e977760de756971f7,65d6c4d58923259cf31ecf89,0.1834,0.1836,1,74,236,13,1,threefour,,,,,,,,,,,,,,,,,,,,,,,,,,,,,,,,,,,,,,,,,,,,,,,,,,,,,,,,,,,,,,,,,,,,,,,,,,,,,,,,,,,,,,,,,,,,,,,,,,,,,,,,,,,,,,,,,,,,,,,,,,,,,,,,,,,,,,,,,
,,613bd3a683a2ac56a4119aa6,2024-02-21_22h01.42.912,kallum_motion_pilot,2023.2.2,Win32,60.97560976,613bd3a683a2ac56a4119aa6,65d6bb0e977760de756971f7,65d6c4d58923259cf31ecf89,0.1839,0.184,1,75,237,4,1,threeone,,,,,,,,,,,,,,,,,,,,,,,,,,,,,,,,,,,,,,,,,,,,,,,,,,,,,,,,,,,,,,,,,,,,,,,,,,,,,,,,,,,,,,,,,,,,,,,,,,,,,,,,,,,,,,,,,,,,,,,,,,,,,,,,,,,,,,,,,
,,613bd3a683a2ac56a4119aa6,2024-02-21_22h01.42.912,kallum_motion_pilot,2023.2.2,Win32,60.97560976,613bd3a683a2ac56a4119aa6,65d6bb0e977760de756971f7,65d6c4d58923259cf31ecf89,0.1843,0.1846,1,76,238,6,1,fourtwo,,,,,,,,,,,,,,,,,,,,,,,,,,,,,,,,,,,,,,,,,,,,,,,,,,,,,,,,,,,,,,,,,,,,,,,,,,,,,,,,,,,,,,,,,,,,,,,,,,,,,,,,,,,,,,,,,,,,,,,,,,,,,,,,,,,,,,,,,
,,613bd3a683a2ac56a4119aa6,2024-02-21_22h01.42.912,kallum_motion_pilot,2023.2.2,Win32,60.97560976,613bd3a683a2ac56a4119aa6,65d6bb0e977760de756971f7,65d6c4d58923259cf31ecf89,0.1848,0.185,1,77,239,154,1,sixfive,,,,,,,,,,,,,,,,,,,,,,,,,,,,,,,,,,,,,,,,,,,,,,,,,,,,,,,,,,,,,,,,,,,,,,,,,,,,,,,,,,,,,,,,,,,,,,,,,,,,,,,,,,,,,,,,,,,,,,,,,,,,,,,,,,,,,,,,,
,,613bd3a683a2ac56a4119aa6,2024-02-21_22h01.42.912,kallum_motion_pilot,2023.2.2,Win32,60.97560976,613bd3a683a2ac56a4119aa6,65d6bb0e977760de756971f7,65d6c4d58923259cf31ecf89,0.1852,0.1855,1,78,240,112,1,fivesix,,,,,,,,,,,,,,,,,,,,,,,,,,,,,,,,,,,,,,,,,,,,,,,,,,,,,,,,,,,,,,,,,,,,,,,,,,,,,,,,,,,,,,,,,,,,,,,,,,,,,,,,,,,,,,,,,,,,,,,,,,,,,,,,,,,,,,,,,
,,613bd3a683a2ac56a4119aa6,2024-02-21_22h01.42.912,kallum_motion_pilot,2023.2.2,Win32,60.97560976,613bd3a683a2ac56a4119aa6,65d6bb0e977760de756971f7,65d6c4d58923259cf31ecf89,0.1857,0.1859,1,79,241,73,1,onethree,,,,,,,,,,,,,,,,,,,,,,,,,,,,,,,,,,,,,,,,,,,,,,,,,,,,,,,,,,,,,,,,,,,,,,,,,,,,,,,,,,,,,,,,,,,,,,,,,,,,,,,,,,,,,,,,,,,,,,,,,,,,,,,,,,,,,,,,,
,,613bd3a683a2ac56a4119aa6,2024-02-21_22h01.42.912,kallum_motion_pilot,2023.2.2,Win32,60.97560976,613bd3a683a2ac56a4119aa6,65d6bb0e977760de756971f7,65d6c4d58923259cf31ecf89,0.1861,0.1864,1,80,242,59,1,twofour,,,,,,,,,,,,,,,,,,,,,,,,,,,,,,,,,,,,,,,,,,,,,,,,,,,,,,,,,,,,,,,,,,,,,,,,,,,,,,,,,,,,,,,,,,,,,,,,,,,,,,,,,,,,,,,,,,,,,,,,,,,,,,,,,,,,,,,,,
,,613bd3a683a2ac56a4119aa6,2024-02-21_22h01.42.912,kallum_motion_pilot,2023.2.2,Win32,60.97560976,613bd3a683a2ac56a4119aa6,65d6bb0e977760de756971f7,65d6c4d58923259cf31ecf89,0.1865,0.1868,1,81,243,149,1,seveneight,,,,,,,,,,,,,,,,,,,,,,,,,,,,,,,,,,,,,,,,,,,,,,,,,,,,,,,,,,,,,,,,,,,,,,,,,,,,,,,,,,,,,,,,,,,,,,,,,,,,,,,,,,,,,,,,,,,,,,,,,,,,,,,,,,,,,,,,,
,,613bd3a683a2ac56a4119aa6,2024-02-21_22h01.42.912,kallum_motion_pilot,2023.2.2,Win32,60.97560976,613bd3a683a2ac56a4119aa6,65d6bb0e977760de756971f7,65d6c4d58923259cf31ecf89,0.187,0.1872,1,82,244,3,1,twofour,,,,,,,,,,,,,,,,,,,,,,,,,,,,,,,,,,,,,,,,,,,,,,,,,,,,,,,,,,,,,,,,,,,,,,,,,,,,,,,,,,,,,,,,,,,,,,,,,,,,,,,,,,,,,,,,,,,,,,,,,,,,,,,,,,,,,,,,,
,,613bd3a683a2ac56a4119aa6,2024-02-21_22h01.42.912,kallum_motion_pilot,2023.2.2,Win32,60.97560976,613bd3a683a2ac56a4119aa6,65d6bb0e977760de756971f7,65d6c4d58923259cf31ecf89,0.1875,0.1877,1,83,245,18,1,twoone,,,,,,,,,,,,,,,,,,,,,,,,,,,,,,,,,,,,,,,,,,,,,,,,,,,,,,,,,,,,,,,,,,,,,,,,,,,,,,,,,,,,,,,,,,,,,,,,,,,,,,,,,,,,,,,,,,,,,,,,,,,,,,,,,,,,,,,,,
,,613bd3a683a2ac56a4119aa6,2024-02-21_22h01.42.912,kallum_motion_pilot,2023.2.2,Win32,60.97560976,613bd3a683a2ac56a4119aa6,65d6bb0e977760de756971f7,65d6c4d58923259cf31ecf89,0.1879,0.1881,1,84,246,63,1,fourthree,,,,,,,,,,,,,,,,,,,,,,,,,,,,,,,,,,,,,,,,,,,,,,,,,,,,,,,,,,,,,,,,,,,,,,,,,,,,,,,,,,,,,,,,,,,,,,,,,,,,,,,,,,,,,,,,,,,,,,,,,,,,,,,,,,,,,,,,,
,,613bd3a683a2ac56a4119aa6,2024-02-21_22h01.42.912,kallum_motion_pilot,2023.2.2,Win32,60.97560976,613bd3a683a2ac56a4119aa6,65d6bb0e977760de756971f7,65d6c4d58923259cf31ecf89,0.1884,0.1886,1,85,247,117,1,seveneight,,,,,,,,,,,,,,,,,,,,,,,,,,,,,,,,,,,,,,,,,,,,,,,,,,,,,,,,,,,,,,,,,,,,,,,,,,,,,,,,,,,,,,,,,,,,,,,,,,,,,,,,,,,,,,,,,,,,,,,,,,,,,,,,,,,,,,,,,
,,613bd3a683a2ac56a4119aa6,2024-02-21_22h01.42.912,kallum_motion_pilot,2023.2.2,Win32,60.97560976,613bd3a683a2ac56a4119aa6,65d6bb0e977760de756971f7,65d6c4d58923259cf31ecf89,0.1888,0.189,1,86,248,12,1,threeone,,,,,,,,,,,,,,,,,,,,,,,,,,,,,,,,,,,,,,,,,,,,,,,,,,,,,,,,,,,,,,,,,,,,,,,,,,,,,,,,,,,,,,,,,,,,,,,,,,,,,,,,,,,,,,,,,,,,,,,,,,,,,,,,,,,,,,,,,
,,613bd3a683a2ac56a4119aa6,2024-02-21_22h01.42.912,kallum_motion_pilot,2023.2.2,Win32,60.97560976,613bd3a683a2ac56a4119aa6,65d6bb0e977760de756971f7,65d6c4d58923259cf31ecf89,0.1892,0.1895,1,87,249,46,1,fourtwo,,,,,,,,,,,,,,,,,,,,,,,,,,,,,,,,,,,,,,,,,,,,,,,,,,,,,,,,,,,,,,,,,,,,,,,,,,,,,,,,,,,,,,,,,,,,,,,,,,,,,,,,,,,,,,,,,,,,,,,,,,,,,,,,,,,,,,,,,
,,613bd3a683a2ac56a4119aa6,2024-02-21_22h01.42.912,kallum_motion_pilot,2023.2.2,Win32,60.97560976,613bd3a683a2ac56a4119aa6,65d6bb0e977760de756971f7,65d6c4d58923259cf31ecf89,0.1897,0.19,1,88,250,53,1,threefour,,,,,,,,,,,,,,,,,,,,,,,,,,,,,,,,,,,,,,,,,,,,,,,,,,,,,,,,,,,,,,,,,,,,,,,,,,,,,,,,,,,,,,,,,,,,,,,,,,,,,,,,,,,,,,,,,,,,,,,,,,,,,,,,,,,,,,,,,
,,613bd3a683a2ac56a4119aa6,2024-02-21_22h01.42.912,kallum_motion_pilot,2023.2.2,Win32,60.97560976,613bd3a683a2ac56a4119aa6,65d6bb0e977760de756971f7,65d6c4d58923259cf31ecf89,0.1902,0.1904,1,89,251,25,1,onethree,,,,,,,,,,,,,,,,,,,,,,,,,,,,,,,,,,,,,,,,,,,,,,,,,,,,,,,,,,,,,,,,,,,,,,,,,,,,,,,,,,,,,,,,,,,,,,,,,,,,,,,,,,,,,,,,,,,,,,,,,,,,,,,,,,,,,,,,,
,,613bd3a683a2ac56a4119aa6,2024-02-21_22h01.42.912,kallum_motion_pilot,2023.2.2,Win32,60.97560976,613bd3a683a2ac56a4119aa6,65d6bb0e977760de756971f7,65d6c4d58923259cf31ecf89,0.1906,0.1908,1,90,252,134,1,eightsix,,,,,,,,,,,,,,,,,,,,,,,,,,,,,,,,,,,,,,,,,,,,,,,,,,,,,,,,,,,,,,,,,,,,,,,,,,,,,,,,,,,,,,,,,,,,,,,,,,,,,,,,,,,,,,,,,,,,,,,,,,,,,,,,,,,,,,,,,
,,613bd3a683a2ac56a4119aa6,2024-02-21_22h01.42.912,kallum_motion_pilot,2023.2.2,Win32,60.97560976,613bd3a683a2ac56a4119aa6,65d6bb0e977760de756971f7,65d6c4d58923259cf31ecf89,0.1911,0.1913,1,91,253,111,1,eightseven,,,,,,,,,,,,,,,,,,,,,,,,,,,,,,,,,,,,,,,,,,,,,,,,,,,,,,,,,,,,,,,,,,,,,,,,,,,,,,,,,,,,,,,,,,,,,,,,,,,,,,,,,,,,,,,,,,,,,,,,,,,,,,,,,,,,,,,,,
,,613bd3a683a2ac56a4119aa6,2024-02-21_22h01.42.912,kallum_motion_pilot,2023.2.2,Win32,60.97560976,613bd3a683a2ac56a4119aa6,65d6bb0e977760de756971f7,65d6c4d58923259cf31ecf89,0.1915,0.1918,1,92,254,27,1,twofour,,,,,,,,,,,,,,,,,,,,,,,,,,,,,,,,,,,,,,,,,,,,,,,,,,,,,,,,,,,,,,,,,,,,,,,,,,,,,,,,,,,,,,,,,,,,,,,,,,,,,,,,,,,,,,,,,,,,,,,,,,,,,,,,,,,,,,,,,
,,613bd3a683a2ac56a4119aa6,2024-02-21_22h01.42.912,kallum_motion_pilot,2023.2.2,Win32,60.97560976,613bd3a683a2ac56a4119aa6,65d6bb0e977760de756971f7,65d6c4d58923259cf31ecf89,0.1921,0.1924,1,93,255,28,1,threeone,,,,,,,,,,,,,,,,,,,,,,,,,,,,,,,,,,,,,,,,,,,,,,,,,,,,,,,,,,,,,,,,,,,,,,,,,,,,,,,,,,,,,,,,,,,,,,,,,,,,,,,,,,,,,,,,,,,,,,,,,,,,,,,,,,,,,,,,,
,,613bd3a683a2ac56a4119aa6,2024-02-21_22h01.42.912,kallum_motion_pilot,2023.2.2,Win32,60.97560976,613bd3a683a2ac56a4119aa6,65d6bb0e977760de756971f7,65d6c4d58923259cf31ecf89,0.1927,0.1931,1,94,256,94,1,eightsix,,,,,,,,,,,,,,,,,,,,,,,,,,,,,,,,,,,,,,,,,,,,,,,,,,,,,,,,,,,,,,,,,,,,,,,,,,,,,,,,,,,,,,,,,,,,,,,,,,,,,,,,,,,,,,,,,,,,,,,,,,,,,,,,,,,,,,,,,
,,613bd3a683a2ac56a4119aa6,2024-02-21_22h01.42.912,kallum_motion_pilot,2023.2.2,Win32,60.97560976,613bd3a683a2ac56a4119aa6,65d6bb0e977760de756971f7,65d6c4d58923259cf31ecf89,0.1935,0.1937,1,95,257,42,1,twoone,,,,,,,,,,,,,,,,,,,,,,,,,,,,,,,,,,,,,,,,,,,,,,,,,,,,,,,,,,,,,,,,,,,,,,,,,,,,,,,,,,,,,,,,,,,,,,,,,,,,,,,,,,,,,,,,,,,,,,,,,,,,,,,,,,,,,,,,,
,,613bd3a683a2ac56a4119aa6,2024-02-21_22h01.42.912,kallum_motion_pilot,2023.2.2,Win32,60.97560976,613bd3a683a2ac56a4119aa6,65d6bb0e977760de756971f7,65d6c4d58923259cf31ecf89,0.1939,0.1942,1,96,258,110,1,eightsix,,,,,,,,,,,,,,,,,,,,,,,,,,,,,,,,,,,,,,,,,,,,,,,,,,,,,,,,,,,,,,,,,,,,,,,,,,,,,,,,,,,,,,,,,,,,,,,,,,,,,,,,,,,,,,,,,,,,,,,,,,,,,,,,,,,,,,,,,
,,613bd3a683a2ac56a4119aa6,2024-02-21_22h01.42.912,kallum_motion_pilot,2023.2.2,Win32,60.97560976,613bd3a683a2ac56a4119aa6,65d6bb0e977760de756971f7,65d6c4d58923259cf31ecf89,0.1944,0.1946,1,97,259,95,1,eightseven,,,,,,,,,,,,,,,,,,,,,,,,,,,,,,,,,,,,,,,,,,,,,,,,,,,,,,,,,,,,,,,,,,,,,,,,,,,,,,,,,,,,,,,,,,,,,,,,,,,,,,,,,,,,,,,,,,,,,,,,,,,,,,,,,,,,,,,,,
,,613bd3a683a2ac56a4119aa6,2024-02-21_22h01.42.912,kallum_motion_pilot,2023.2.2,Win32,60.97560976,613bd3a683a2ac56a4119aa6,65d6bb0e977760de756971f7,65d6c4d58923259cf31ecf89,0.1949,0.1952,1,98,260,98,1,sixfive,,,,,,,,,,,,,,,,,,,,,,,,,,,,,,,,,,,,,,,,,,,,,,,,,,,,,,,,,,,,,,,,,,,,,,,,,,,,,,,,,,,,,,,,,,,,,,,,,,,,,,,,,,,,,,,,,,,,,,,,,,,,,,,,,,,,,,,,,
,,613bd3a683a2ac56a4119aa6,2024-02-21_22h01.42.912,kallum_motion_pilot,2023.2.2,Win32,60.97560976,613bd3a683a2ac56a4119aa6,65d6bb0e977760de756971f7,65d6c4d58923259cf31ecf89,0.1954,0.1957,1,99,261,120,1,fivesix,,,,,,,,,,,,,,,,,,,,,,,,,,,,,,,,,,,,,,,,,,,,,,,,,,,,,,,,,,,,,,,,,,,,,,,,,,,,,,,,,,,,,,,,,,,,,,,,,,,,,,,,,,,,,,,,,,,,,,,,,,,,,,,,,,,,,,,,,
,,613bd3a683a2ac56a4119aa6,2024-02-21_22h01.42.912,kallum_motion_pilot,2023.2.2,Win32,60.97560976,613bd3a683a2ac56a4119aa6,65d6bb0e977760de756971f7,65d6c4d58923259cf31ecf89,0.1959,0.1961,1,100,262,20,1,threeone,,,,,,,,,,,,,,,,,,,,,,,,,,,,,,,,,,,,,,,,,,,,,,,,,,,,,,,,,,,,,,,,,,,,,,,,,,,,,,,,,,,,,,,,,,,,,,,,,,,,,,,,,,,,,,,,,,,,,,,,,,,,,,,,,,,,,,,,,
,,613bd3a683a2ac56a4119aa6,2024-02-21_22h01.42.912,kallum_motion_pilot,2023.2.2,Win32,60.97560976,613bd3a683a2ac56a4119aa6,65d6bb0e977760de756971f7,65d6c4d58923259cf31ecf89,0.1963,0.1966,1,101,263,74,1,twoone,,,,,,,,,,,,,,,,,,,,,,,,,,,,,,,,,,,,,,,,,,,,,,,,,,,,,,,,,,,,,,,,,,,,,,,,,,,,,,,,,,,,,,,,,,,,,,,,,,,,,,,,,,,,,,,,,,,,,,,,,,,,,,,,,,,,,,,,,
,,613bd3a683a2ac56a4119aa6,2024-02-21_22h01.42.912,kallum_motion_pilot,2023.2.2,Win32,60.97560976,613bd3a683a2ac56a4119aa6,65d6bb0e977760de756971f7,65d6c4d58923259cf31ecf89,0.197,0.1973,1,102,264,146,1,sixfive,,,,,,,,,,,,,,,,,,,,,,,,,,,,,,,,,,,,,,,,,,,,,,,,,,,,,,,,,,,,,,,,,,,,,,,,,,,,,,,,,,,,,,,,,,,,,,,,,,,,,,,,,,,,,,,,,,,,,,,,,,,,,,,,,,,,,,,,,
,,613bd3a683a2ac56a4119aa6,2024-02-21_22h01.42.912,kallum_motion_pilot,2023.2.2,Win32,60.97560976,613bd3a683a2ac56a4119aa6,65d6bb0e977760de756971f7,65d6c4d58923259cf31ecf89,0.1977,0.198,1,103,265,151,1,eightseven,,,,,,,,,,,,,,,,,,,,,,,,,,,,,,,,,,,,,,,,,,,,,,,,,,,,,,,,,,,,,,,,,,,,,,,,,,,,,,,,,,,,,,,,,,,,,,,,,,,,,,,,,,,,,,,,,,,,,,,,,,,,,,,,,,,,,,,,,
,,613bd3a683a2ac56a4119aa6,2024-02-21_22h01.42.912,kallum_motion_pilot,2023.2.2,Win32,60.97560976,613bd3a683a2ac56a4119aa6,65d6bb0e977760de756971f7,65d6c4d58923259cf31ecf89,0.1982,0.1985,1,104,266,34,1,twoone,,,,,,,,,,,,,,,,,,,,,,,,,,,,,,,,,,,,,,,,,,,,,,,,,,,,,,,,,,,,,,,,,,,,,,,,,,,,,,,,,,,,,,,,,,,,,,,,,,,,,,,,,,,,,,,,,,,,,,,,,,,,,,,,,,,,,,,,,
,,613bd3a683a2ac56a4119aa6,2024-02-21_22h01.42.912,kallum_motion_pilot,2023.2.2,Win32,60.97560976,613bd3a683a2ac56a4119aa6,65d6bb0e977760de756971f7,65d6c4d58923259cf31ecf89,0.1987,0.1989,1,105,267,17,1,onethree,,,,,,,,,,,,,,,,,,,,,,,,,,,,,,,,,,,,,,,,,,,,,,,,,,,,,,,,,,,,,,,,,,,,,,,,,,,,,,,,,,,,,,,,,,,,,,,,,,,,,,,,,,,,,,,,,,,,,,,,,,,,,,,,,,,,,,,,,
,,613bd3a683a2ac56a4119aa6,2024-02-21_22h01.42.912,kallum_motion_pilot,2023.2.2,Win32,60.97560976,613bd3a683a2ac56a4119aa6,65d6bb0e977760de756971f7,65d6c4d58923259cf31ecf89,0.1992,0.1994,1,106,268,158,1,eightsix,,,,,,,,,,,,,,,,,,,,,,,,,,,,,,,,,,,,,,,,,,,,,,,,,,,,,,,,,,,,,,,,,,,,,,,,,,,,,,,,,,,,,,,,,,,,,,,,,,,,,,,,,,,,,,,,,,,,,,,,,,,,,,,,,,,,,,,,,
,,613bd3a683a2ac56a4119aa6,2024-02-21_22h01.42.912,kallum_motion_pilot,2023.2.2,Win32,60.97560976,613bd3a683a2ac56a4119aa6,65d6bb0e977760de756971f7,65d6c4d58923259cf31ecf89,0.1997,0.1999,1,107,269,29,1,threefour,,,,,,,,,,,,,,,,,,,,,,,,,,,,,,,,,,,,,,,,,,,,,,,,,,,,,,,,,,,,,,,,,,,,,,,,,,,,,,,,,,,,,,,,,,,,,,,,,,,,,,,,,,,,,,,,,,,,,,,,,,,,,,,,,,,,,,,,,
,,613bd3a683a2ac56a4119aa6,2024-02-21_22h01.42.912,kallum_motion_pilot,2023.2.2,Win32,60.97560976,613bd3a683a2ac56a4119aa6,65d6bb0e977760de756971f7,65d6c4d58923259cf31ecf89,0.2001,0.2004,1,108,270,96,1,fivesix,,,,,,,,,,,,,,,,,,,,,,,,,,,,,,,,,,,,,,,,,,,,,,,,,,,,,,,,,,,,,,,,,,,,,,,,,,,,,,,,,,,,,,,,,,,,,,,,,,,,,,,,,,,,,,,,,,,,,,,,,,,,,,,,,,,,,,,,,
,,613bd3a683a2ac56a4119aa6,2024-02-21_22h01.42.912,kallum_motion_pilot,2023.2.2,Win32,60.97560976,613bd3a683a2ac56a4119aa6,65d6bb0e977760de756971f7,65d6c4d58923259cf31ecf89,0.2006,0.2007,1,109,271,82,1,sixfive,,,,,,,,,,,,,,,,,,,,,,,,,,,,,,,,,,,,,,,,,,,,,,,,,,,,,,,,,,,,,,,,,,,,,,,,,,,,,,,,,,,,,,,,,,,,,,,,,,,,,,,,,,,,,,,,,,,,,,,,,,,,,,,,,,,,,,,,,
,,613bd3a683a2ac56a4119aa6,2024-02-21_22h01.42.912,kallum_motion_pilot,2023.2.2,Win32,60.97560976,613bd3a683a2ac56a4119aa6,65d6bb0e977760de756971f7,65d6c4d58923259cf31ecf89,0.201,0.2013,1,110,272,44,1,threeone,,,,,,,,,,,,,,,,,,,,,,,,,,,,,,,,,,,,,,,,,,,,,,,,,,,,,,,,,,,,,,,,,,,,,,,,,,,,,,,,,,,,,,,,,,,,,,,,,,,,,,,,,,,,,,,,,,,,,,,,,,,,,,,,,,,,,,,,,
,,613bd3a683a2ac56a4119aa6,2024-02-21_22h01.42.912,kallum_motion_pilot,2023.2.2,Win32,60.97560976,613bd3a683a2ac56a4119aa6,65d6bb0e977760de756971f7,65d6c4d58923259cf31ecf89,0.2015,0.2017,1,111,273,22,1,fourtwo,,,,,,,,,,,,,,,,,,,,,,,,,,,,,,,,,,,,,,,,,,,,,,,,,,,,,,,,,,,,,,,,,,,,,,,,,,,,,,,,,,,,,,,,,,,,,,,,,,,,,,,,,,,,,,,,,,,,,,,,,,,,,,,,,,,,,,,,,
,,613bd3a683a2ac56a4119aa6,2024-02-21_22h01.42.912,kallum_motion_pilot,2023.2.2,Win32,60.97560976,613bd3a683a2ac56a4119aa6,65d6bb0e977760de756971f7,65d6c4d58923259cf31ecf89,0.2019,0.2021,1,112,274,138,1,sixfive,,,,,,,,,,,,,,,,,,,,,,,,,,,,,,,,,,,,,,,,,,,,,,,,,,,,,,,,,,,,,,,,,,,,,,,,,,,,,,,,,,,,,,,,,,,,,,,,,,,,,,,,,,,,,,,,,,,,,,,,,,,,,,,,,,,,,,,,,
,,613bd3a683a2ac56a4119aa6,2024-02-21_22h01.42.912,kallum_motion_pilot,2023.2.2,Win32,60.97560976,613bd3a683a2ac56a4119aa6,65d6bb0e977760de756971f7,65d6c4d58923259cf31ecf89,0.2024,0.2026,1,113,275,130,1,sixfive,,,,,,,,,,,,,,,,,,,,,,,,,,,,,,,,,,,,,,,,,,,,,,,,,,,,,,,,,,,,,,,,,,,,,,,,,,,,,,,,,,,,,,,,,,,,,,,,,,,,,,,,,,,,,,,,,,,,,,,,,,,,,,,,,,,,,,,,,
,,613bd3a683a2ac56a4119aa6,2024-02-21_22h01.42.912,kallum_motion_pilot,2023.2.2,Win32,60.97560976,613bd3a683a2ac56a4119aa6,65d6bb0e977760de756971f7,65d6c4d58923259cf31ecf89,0.2028,0.203,1,114,276,64,1,onetwo,,,,,,,,,,,,,,,,,,,,,,,,,,,,,,,,,,,,,,,,,,,,,,,,,,,,,,,,,,,,,,,,,,,,,,,,,,,,,,,,,,,,,,,,,,,,,,,,,,,,,,,,,,,,,,,,,,,,,,,,,,,,,,,,,,,,,,,,,
,,613bd3a683a2ac56a4119aa6,2024-02-21_22h01.42.912,kallum_motion_pilot,2023.2.2,Win32,60.97560976,613bd3a683a2ac56a4119aa6,65d6bb0e977760de756971f7,65d6c4d58923259cf31ecf89,0.2033,0.2035,1,115,277,50,1,twoone,,,,,,,,,,,,,,,,,,,,,,,,,,,,,,,,,,,,,,,,,,,,,,,,,,,,,,,,,,,,,,,,,,,,,,,,,,,,,,,,,,,,,,,,,,,,,,,,,,,,,,,,,,,,,,,,,,,,,,,,,,,,,,,,,,,,,,,,,
