startup.started,startup.stopped,Prolific ID*,date,expName,psychopyVersion,OS,frameRate,participant,study_id,session,stimpositions.started,stimpositions.stopped,hardcoded_stimulus_positions.thisRepN,hardcoded_stimulus_positions.thisTrialN,hardcoded_stimulus_positions.thisN,hardcoded_stimulus_positions.thisIndex,hardcoded_stimulus_positions.ran,StimulusPos,stimorientation.started,stimorientation.stopped,prac_stimorientation_import_loop.thisRepN,prac_stimorientation_import_loop.thisTrialN,prac_stimorientation_import_loop.thisN,prac_stimorientation_import_loop.thisIndex,prac_stimorientation_import_loop.ran,Stimorientation,welcome_instr.started,welcome_instr.stopped,key_resp.keys,key_resp.rt,key_resp.duration,response_steppedout_1.started,response_steppedout_1.stopped,key_resp_20.keys,key_resp_20.rt,key_resp_20.duration,response_steppedout_2.started,response_steppedout_2.stopped,key_resp_19.keys,key_resp_19.rt,key_resp_19.duration,stim_response_instr.started,stim_response_instr.stopped,key_resp_15.keys,key_resp_15.rt,key_resp_15.duration,direction_instr_2.started,direction_instr_2.stopped,key_resp_9.keys,key_resp_9.rt,key_resp_9.duration,instr_prac.started,instr_prac.stopped,key_resp_10.keys,key_resp_10.rt,key_resp_10.duration,Stim1_display_prac.started,Stim1_display_prac.stopped,Ecc,Circle1_ori,Circle2_ori,response_prac.started,similarity,response_time,response_prac.stopped,mouse_5.x,mouse_5.y,mouse_5.leftButton,mouse_5.midButton,mouse_5.rightButton,mouse_5.clicked_name,responseprac_feedback.started,responseprac_feedback.stopped,summary2_prac.started,summary2_prac.stopped,mouse_6.x,mouse_6.y,mouse_6.leftButton,mouse_6.midButton,mouse_6.rightButton,mouse_6.clicked_name,duringprac.thisRepN,duringprac.thisTrialN,duringprac.thisN,duringprac.thisIndex,duringprac.ran,begin.started,begin.stopped,key_resp_22.keys,key_resp_22.rt,key_resp_22.duration,Stim1_display.started,Stim1_display.stopped,circle1_ori,circle2_ori,circle1_SF,circle2_SF,response.started,response.stopped,mouse.x,mouse.y,mouse.leftButton,mouse.midButton,mouse.rightButton,mouse.clicked_name,trialnumber,double_pass.thisRepN,double_pass.thisTrialN,double_pass.thisN,double_pass.thisIndex,double_pass.ran,double_pass.order,main_trial.thisRepN,main_trial.thisTrialN,main_trial.thisN,main_trial.thisIndex,main_trial.ran,main_trial.order,Trial_Counter,Catch,Frequencies,response_2.started,response_2.stopped,mouse_2.x,mouse_2.y,mouse_2.leftButton,mouse_2.midButton,mouse_2.rightButton,mouse_2.clicked_name,special_trial.started,special_trial.stopped,catch_1.started,catch_1.stopped,mouse_3.x,mouse_3.y,mouse_3.leftButton,mouse_3.midButton,mouse_3.rightButton,catchresponse,catchnumber,response_time_catch,response_sum.started,response_sum.stopped,mouse_11.x,mouse_11.y,mouse_11.leftButton,mouse_11.midButton,mouse_11.rightButton,flip_presentation_sequence_for_double_pass.started,flip_presentation_sequence_for_double_pass.stopped,goodbye.started,goodbye.stopped,key_resp_3.keys,key_resp_3.rt,key_resp_3.duration
0.0003,0.0005,613e79bab4ffe7389bb2a20c,2024-02-18_20h12.09.960,kallum_motion_pilot,2023.2.2,Win32,59.88023952,613e79bab4ffe7389bb2a20c,65d2b6c8f2eece985d8e374c,65d2b8d4c91a54bf0c27c893,,,,,,,,,,,,,,,,,,,,,,,,,,,,,,,,,,,,,,,,,,,,,,,,,,,,,,,,,,,,,,,,,,,,,,,,,,,,,,,,,,,,,,,,,,,,,,,,,,,,,,,,,,,,,,,,,,,,,,,,,,,,,,,,,,,,,,,,,,,,,,,,,
,,613e79bab4ffe7389bb2a20c,2024-02-18_20h12.09.960,kallum_motion_pilot,2023.2.2,Win32,59.88023952,613e79bab4ffe7389bb2a20c,65d2b6c8f2eece985d8e374c,65d2b8d4c91a54bf0c27c893,0.0187,0.019,0,0,0,147,1,sixeight,,,,,,,,,,,,,,,,,,,,,,,,,,,,,,,,,,,,,,,,,,,,,,,,,,,,,,,,,,,,,,,,,,,,,,,,,,,,,,,,,,,,,,,,,,,,,,,,,,,,,,,,,,,,,,,,,,,,,,,,,,,,,,,,,,,,,,,,,
,,613e79bab4ffe7389bb2a20c,2024-02-18_20h12.09.960,kallum_motion_pilot,2023.2.2,Win32,59.88023952,613e79bab4ffe7389bb2a20c,65d2b6c8f2eece985d8e374c,65d2b8d4c91a54bf0c27c893,0.0199,0.0199,0,1,1,98,1,sixfive,,,,,,,,,,,,,,,,,,,,,,,,,,,,,,,,,,,,,,,,,,,,,,,,,,,,,,,,,,,,,,,,,,,,,,,,,,,,,,,,,,,,,,,,,,,,,,,,,,,,,,,,,,,,,,,,,,,,,,,,,,,,,,,,,,,,,,,,,
,,613e79bab4ffe7389bb2a20c,2024-02-18_20h12.09.960,kallum_motion_pilot,2023.2.2,Win32,59.88023952,613e79bab4ffe7389bb2a20c,65d2b6c8f2eece985d8e374c,65d2b8d4c91a54bf0c27c893,0.0201,0.0201,0,2,2,124,1,sevenfive,,,,,,,,,,,,,,,,,,,,,,,,,,,,,,,,,,,,,,,,,,,,,,,,,,,,,,,,,,,,,,,,,,,,,,,,,,,,,,,,,,,,,,,,,,,,,,,,,,,,,,,,,,,,,,,,,,,,,,,,,,,,,,,,,,,,,,,,,
,,613e79bab4ffe7389bb2a20c,2024-02-18_20h12.09.960,kallum_motion_pilot,2023.2.2,Win32,59.88023952,613e79bab4ffe7389bb2a20c,65d2b6c8f2eece985d8e374c,65d2b8d4c91a54bf0c27c893,0.0202,0.0203,0,3,3,70,1,fourtwo,,,,,,,,,,,,,,,,,,,,,,,,,,,,,,,,,,,,,,,,,,,,,,,,,,,,,,,,,,,,,,,,,,,,,,,,,,,,,,,,,,,,,,,,,,,,,,,,,,,,,,,,,,,,,,,,,,,,,,,,,,,,,,,,,,,,,,,,,
,,613e79bab4ffe7389bb2a20c,2024-02-18_20h12.09.960,kallum_motion_pilot,2023.2.2,Win32,59.88023952,613e79bab4ffe7389bb2a20c,65d2b6c8f2eece985d8e374c,65d2b8d4c91a54bf0c27c893,0.0203,0.0203,0,4,4,73,1,onethree,,,,,,,,,,,,,,,,,,,,,,,,,,,,,,,,,,,,,,,,,,,,,,,,,,,,,,,,,,,,,,,,,,,,,,,,,,,,,,,,,,,,,,,,,,,,,,,,,,,,,,,,,,,,,,,,,,,,,,,,,,,,,,,,,,,,,,,,,
,,613e79bab4ffe7389bb2a20c,2024-02-18_20h12.09.960,kallum_motion_pilot,2023.2.2,Win32,59.88023952,613e79bab4ffe7389bb2a20c,65d2b6c8f2eece985d8e374c,65d2b8d4c91a54bf0c27c893,0.0204,0.0204,0,5,5,103,1,eightseven,,,,,,,,,,,,,,,,,,,,,,,,,,,,,,,,,,,,,,,,,,,,,,,,,,,,,,,,,,,,,,,,,,,,,,,,,,,,,,,,,,,,,,,,,,,,,,,,,,,,,,,,,,,,,,,,,,,,,,,,,,,,,,,,,,,,,,,,,
,,613e79bab4ffe7389bb2a20c,2024-02-18_20h12.09.960,kallum_motion_pilot,2023.2.2,Win32,59.88023952,613e79bab4ffe7389bb2a20c,65d2b6c8f2eece985d8e374c,65d2b8d4c91a54bf0c27c893,0.0206,0.0206,0,6,6,111,1,eightseven,,,,,,,,,,,,,,,,,,,,,,,,,,,,,,,,,,,,,,,,,,,,,,,,,,,,,,,,,,,,,,,,,,,,,,,,,,,,,,,,,,,,,,,,,,,,,,,,,,,,,,,,,,,,,,,,,,,,,,,,,,,,,,,,,,,,,,,,,
,,613e79bab4ffe7389bb2a20c,2024-02-18_20h12.09.960,kallum_motion_pilot,2023.2.2,Win32,59.88023952,613e79bab4ffe7389bb2a20c,65d2b6c8f2eece985d8e374c,65d2b8d4c91a54bf0c27c893,0.0206,0.0207,0,7,7,97,1,fiveseven,,,,,,,,,,,,,,,,,,,,,,,,,,,,,,,,,,,,,,,,,,,,,,,,,,,,,,,,,,,,,,,,,,,,,,,,,,,,,,,,,,,,,,,,,,,,,,,,,,,,,,,,,,,,,,,,,,,,,,,,,,,,,,,,,,,,,,,,,
,,613e79bab4ffe7389bb2a20c,2024-02-18_20h12.09.960,kallum_motion_pilot,2023.2.2,Win32,59.88023952,613e79bab4ffe7389bb2a20c,65d2b6c8f2eece985d8e374c,65d2b8d4c91a54bf0c27c893,0.0208,0.0208,0,8,8,119,1,eightseven,,,,,,,,,,,,,,,,,,,,,,,,,,,,,,,,,,,,,,,,,,,,,,,,,,,,,,,,,,,,,,,,,,,,,,,,,,,,,,,,,,,,,,,,,,,,,,,,,,,,,,,,,,,,,,,,,,,,,,,,,,,,,,,,,,,,,,,,,
,,613e79bab4ffe7389bb2a20c,2024-02-18_20h12.09.960,kallum_motion_pilot,2023.2.2,Win32,59.88023952,613e79bab4ffe7389bb2a20c,65d2b6c8f2eece985d8e374c,65d2b8d4c91a54bf0c27c893,0.0209,0.0209,0,9,9,131,1,sixeight,,,,,,,,,,,,,,,,,,,,,,,,,,,,,,,,,,,,,,,,,,,,,,,,,,,,,,,,,,,,,,,,,,,,,,,,,,,,,,,,,,,,,,,,,,,,,,,,,,,,,,,,,,,,,,,,,,,,,,,,,,,,,,,,,,,,,,,,,
,,613e79bab4ffe7389bb2a20c,2024-02-18_20h12.09.960,kallum_motion_pilot,2023.2.2,Win32,59.88023952,613e79bab4ffe7389bb2a20c,65d2b6c8f2eece985d8e374c,65d2b8d4c91a54bf0c27c893,0.021,0.021,0,10,10,40,1,onetwo,,,,,,,,,,,,,,,,,,,,,,,,,,,,,,,,,,,,,,,,,,,,,,,,,,,,,,,,,,,,,,,,,,,,,,,,,,,,,,,,,,,,,,,,,,,,,,,,,,,,,,,,,,,,,,,,,,,,,,,,,,,,,,,,,,,,,,,,,
,,613e79bab4ffe7389bb2a20c,2024-02-18_20h12.09.960,kallum_motion_pilot,2023.2.2,Win32,59.88023952,613e79bab4ffe7389bb2a20c,65d2b6c8f2eece985d8e374c,65d2b8d4c91a54bf0c27c893,0.0211,0.0212,0,11,11,39,1,fourthree,,,,,,,,,,,,,,,,,,,,,,,,,,,,,,,,,,,,,,,,,,,,,,,,,,,,,,,,,,,,,,,,,,,,,,,,,,,,,,,,,,,,,,,,,,,,,,,,,,,,,,,,,,,,,,,,,,,,,,,,,,,,,,,,,,,,,,,,,
,,613e79bab4ffe7389bb2a20c,2024-02-18_20h12.09.960,kallum_motion_pilot,2023.2.2,Win32,59.88023952,613e79bab4ffe7389bb2a20c,65d2b6c8f2eece985d8e374c,65d2b8d4c91a54bf0c27c893,0.0212,0.0212,0,12,12,56,1,onetwo,,,,,,,,,,,,,,,,,,,,,,,,,,,,,,,,,,,,,,,,,,,,,,,,,,,,,,,,,,,,,,,,,,,,,,,,,,,,,,,,,,,,,,,,,,,,,,,,,,,,,,,,,,,,,,,,,,,,,,,,,,,,,,,,,,,,,,,,,
,,613e79bab4ffe7389bb2a20c,2024-02-18_20h12.09.960,kallum_motion_pilot,2023.2.2,Win32,59.88023952,613e79bab4ffe7389bb2a20c,65d2b6c8f2eece985d8e374c,65d2b8d4c91a54bf0c27c893,0.0213,0.0213,0,13,13,68,1,threeone,,,,,,,,,,,,,,,,,,,,,,,,,,,,,,,,,,,,,,,,,,,,,,,,,,,,,,,,,,,,,,,,,,,,,,,,,,,,,,,,,,,,,,,,,,,,,,,,,,,,,,,,,,,,,,,,,,,,,,,,,,,,,,,,,,,,,,,,,
,,613e79bab4ffe7389bb2a20c,2024-02-18_20h12.09.960,kallum_motion_pilot,2023.2.2,Win32,59.88023952,613e79bab4ffe7389bb2a20c,65d2b6c8f2eece985d8e374c,65d2b8d4c91a54bf0c27c893,0.0214,0.0214,0,14,14,30,1,fourtwo,,,,,,,,,,,,,,,,,,,,,,,,,,,,,,,,,,,,,,,,,,,,,,,,,,,,,,,,,,,,,,,,,,,,,,,,,,,,,,,,,,,,,,,,,,,,,,,,,,,,,,,,,,,,,,,,,,,,,,,,,,,,,,,,,,,,,,,,,
,,613e79bab4ffe7389bb2a20c,2024-02-18_20h12.09.960,kallum_motion_pilot,2023.2.2,Win32,59.88023952,613e79bab4ffe7389bb2a20c,65d2b6c8f2eece985d8e374c,65d2b8d4c91a54bf0c27c893,0.0214,0.0214,0,15,15,140,1,sevenfive,,,,,,,,,,,,,,,,,,,,,,,,,,,,,,,,,,,,,,,,,,,,,,,,,,,,,,,,,,,,,,,,,,,,,,,,,,,,,,,,,,,,,,,,,,,,,,,,,,,,,,,,,,,,,,,,,,,,,,,,,,,,,,,,,,,,,,,,,
,,613e79bab4ffe7389bb2a20c,2024-02-18_20h12.09.960,kallum_motion_pilot,2023.2.2,Win32,59.88023952,613e79bab4ffe7389bb2a20c,65d2b6c8f2eece985d8e374c,65d2b8d4c91a54bf0c27c893,0.0215,0.0215,0,16,16,94,1,eightsix,,,,,,,,,,,,,,,,,,,,,,,,,,,,,,,,,,,,,,,,,,,,,,,,,,,,,,,,,,,,,,,,,,,,,,,,,,,,,,,,,,,,,,,,,,,,,,,,,,,,,,,,,,,,,,,,,,,,,,,,,,,,,,,,,,,,,,,,,
,,613e79bab4ffe7389bb2a20c,2024-02-18_20h12.09.960,kallum_motion_pilot,2023.2.2,Win32,59.88023952,613e79bab4ffe7389bb2a20c,65d2b6c8f2eece985d8e374c,65d2b8d4c91a54bf0c27c893,0.0216,0.0216,0,17,17,69,1,threefour,,,,,,,,,,,,,,,,,,,,,,,,,,,,,,,,,,,,,,,,,,,,,,,,,,,,,,,,,,,,,,,,,,,,,,,,,,,,,,,,,,,,,,,,,,,,,,,,,,,,,,,,,,,,,,,,,,,,,,,,,,,,,,,,,,,,,,,,,
,,613e79bab4ffe7389bb2a20c,2024-02-18_20h12.09.960,kallum_motion_pilot,2023.2.2,Win32,59.88023952,613e79bab4ffe7389bb2a20c,65d2b6c8f2eece985d8e374c,65d2b8d4c91a54bf0c27c893,0.0217,0.0217,0,18,18,50,1,twoone,,,,,,,,,,,,,,,,,,,,,,,,,,,,,,,,,,,,,,,,,,,,,,,,,,,,,,,,,,,,,,,,,,,,,,,,,,,,,,,,,,,,,,,,,,,,,,,,,,,,,,,,,,,,,,,,,,,,,,,,,,,,,,,,,,,,,,,,,
,,613e79bab4ffe7389bb2a20c,2024-02-18_20h12.09.960,kallum_motion_pilot,2023.2.2,Win32,59.88023952,613e79bab4ffe7389bb2a20c,65d2b6c8f2eece985d8e374c,65d2b8d4c91a54bf0c27c893,0.0218,0.0218,0,19,19,125,1,seveneight,,,,,,,,,,,,,,,,,,,,,,,,,,,,,,,,,,,,,,,,,,,,,,,,,,,,,,,,,,,,,,,,,,,,,,,,,,,,,,,,,,,,,,,,,,,,,,,,,,,,,,,,,,,,,,,,,,,,,,,,,,,,,,,,,,,,,,,,,
,,613e79bab4ffe7389bb2a20c,2024-02-18_20h12.09.960,kallum_motion_pilot,2023.2.2,Win32,59.88023952,613e79bab4ffe7389bb2a20c,65d2b6c8f2eece985d8e374c,65d2b8d4c91a54bf0c27c893,0.0219,0.0219,0,20,20,101,1,seveneight,,,,,,,,,,,,,,,,,,,,,,,,,,,,,,,,,,,,,,,,,,,,,,,,,,,,,,,,,,,,,,,,,,,,,,,,,,,,,,,,,,,,,,,,,,,,,,,,,,,,,,,,,,,,,,,,,,,,,,,,,,,,,,,,,,,,,,,,,
,,613e79bab4ffe7389bb2a20c,2024-02-18_20h12.09.960,kallum_motion_pilot,2023.2.2,Win32,59.88023952,613e79bab4ffe7389bb2a20c,65d2b6c8f2eece985d8e374c,65d2b8d4c91a54bf0c27c893,0.022,0.022,0,21,21,120,1,fivesix,,,,,,,,,,,,,,,,,,,,,,,,,,,,,,,,,,,,,,,,,,,,,,,,,,,,,,,,,,,,,,,,,,,,,,,,,,,,,,,,,,,,,,,,,,,,,,,,,,,,,,,,,,,,,,,,,,,,,,,,,,,,,,,,,,,,,,,,,
,,613e79bab4ffe7389bb2a20c,2024-02-18_20h12.09.960,kallum_motion_pilot,2023.2.2,Win32,59.88023952,613e79bab4ffe7389bb2a20c,65d2b6c8f2eece985d8e374c,65d2b8d4c91a54bf0c27c893,0.022,0.0221,0,22,22,46,1,fourtwo,,,,,,,,,,,,,,,,,,,,,,,,,,,,,,,,,,,,,,,,,,,,,,,,,,,,,,,,,,,,,,,,,,,,,,,,,,,,,,,,,,,,,,,,,,,,,,,,,,,,,,,,,,,,,,,,,,,,,,,,,,,,,,,,,,,,,,,,,
,,613e79bab4ffe7389bb2a20c,2024-02-18_20h12.09.960,kallum_motion_pilot,2023.2.2,Win32,59.88023952,613e79bab4ffe7389bb2a20c,65d2b6c8f2eece985d8e374c,65d2b8d4c91a54bf0c27c893,0.0222,0.0222,0,23,23,153,1,fiveseven,,,,,,,,,,,,,,,,,,,,,,,,,,,,,,,,,,,,,,,,,,,,,,,,,,,,,,,,,,,,,,,,,,,,,,,,,,,,,,,,,,,,,,,,,,,,,,,,,,,,,,,,,,,,,,,,,,,,,,,,,,,,,,,,,,,,,,,,,
,,613e79bab4ffe7389bb2a20c,2024-02-18_20h12.09.960,kallum_motion_pilot,2023.2.2,Win32,59.88023952,613e79bab4ffe7389bb2a20c,65d2b6c8f2eece985d8e374c,65d2b8d4c91a54bf0c27c893,0.0223,0.0223,0,24,24,60,1,threeone,,,,,,,,,,,,,,,,,,,,,,,,,,,,,,,,,,,,,,,,,,,,,,,,,,,,,,,,,,,,,,,,,,,,,,,,,,,,,,,,,,,,,,,,,,,,,,,,,,,,,,,,,,,,,,,,,,,,,,,,,,,,,,,,,,,,,,,,,
,,613e79bab4ffe7389bb2a20c,2024-02-18_20h12.09.960,kallum_motion_pilot,2023.2.2,Win32,59.88023952,613e79bab4ffe7389bb2a20c,65d2b6c8f2eece985d8e374c,65d2b8d4c91a54bf0c27c893,0.0223,0.0224,0,25,25,0,1,onetwo,,,,,,,,,,,,,,,,,,,,,,,,,,,,,,,,,,,,,,,,,,,,,,,,,,,,,,,,,,,,,,,,,,,,,,,,,,,,,,,,,,,,,,,,,,,,,,,,,,,,,,,,,,,,,,,,,,,,,,,,,,,,,,,,,,,,,,,,,
,,613e79bab4ffe7389bb2a20c,2024-02-18_20h12.09.960,kallum_motion_pilot,2023.2.2,Win32,59.88023952,613e79bab4ffe7389bb2a20c,65d2b6c8f2eece985d8e374c,65d2b8d4c91a54bf0c27c893,0.0224,0.0224,0,26,26,47,1,fourthree,,,,,,,,,,,,,,,,,,,,,,,,,,,,,,,,,,,,,,,,,,,,,,,,,,,,,,,,,,,,,,,,,,,,,,,,,,,,,,,,,,,,,,,,,,,,,,,,,,,,,,,,,,,,,,,,,,,,,,,,,,,,,,,,,,,,,,,,,
,,613e79bab4ffe7389bb2a20c,2024-02-18_20h12.09.960,kallum_motion_pilot,2023.2.2,Win32,59.88023952,613e79bab4ffe7389bb2a20c,65d2b6c8f2eece985d8e374c,65d2b8d4c91a54bf0c27c893,0.0225,0.0226,0,27,27,118,1,eightsix,,,,,,,,,,,,,,,,,,,,,,,,,,,,,,,,,,,,,,,,,,,,,,,,,,,,,,,,,,,,,,,,,,,,,,,,,,,,,,,,,,,,,,,,,,,,,,,,,,,,,,,,,,,,,,,,,,,,,,,,,,,,,,,,,,,,,,,,,
,,613e79bab4ffe7389bb2a20c,2024-02-18_20h12.09.960,kallum_motion_pilot,2023.2.2,Win32,59.88023952,613e79bab4ffe7389bb2a20c,65d2b6c8f2eece985d8e374c,65d2b8d4c91a54bf0c27c893,0.0226,0.0227,0,28,28,85,1,seveneight,,,,,,,,,,,,,,,,,,,,,,,,,,,,,,,,,,,,,,,,,,,,,,,,,,,,,,,,,,,,,,,,,,,,,,,,,,,,,,,,,,,,,,,,,,,,,,,,,,,,,,,,,,,,,,,,,,,,,,,,,,,,,,,,,,,,,,,,,
,,613e79bab4ffe7389bb2a20c,2024-02-18_20h12.09.960,kallum_motion_pilot,2023.2.2,Win32,59.88023952,613e79bab4ffe7389bb2a20c,65d2b6c8f2eece985d8e374c,65d2b8d4c91a54bf0c27c893,0.0227,0.0227,0,29,29,52,1,threeone,,,,,,,,,,,,,,,,,,,,,,,,,,,,,,,,,,,,,,,,,,,,,,,,,,,,,,,,,,,,,,,,,,,,,,,,,,,,,,,,,,,,,,,,,,,,,,,,,,,,,,,,,,,,,,,,,,,,,,,,,,,,,,,,,,,,,,,,,
,,613e79bab4ffe7389bb2a20c,2024-02-18_20h12.09.960,kallum_motion_pilot,2023.2.2,Win32,59.88023952,613e79bab4ffe7389bb2a20c,65d2b6c8f2eece985d8e374c,65d2b8d4c91a54bf0c27c893,0.0227,0.0228,0,30,30,134,1,eightsix,,,,,,,,,,,,,,,,,,,,,,,,,,,,,,,,,,,,,,,,,,,,,,,,,,,,,,,,,,,,,,,,,,,,,,,,,,,,,,,,,,,,,,,,,,,,,,,,,,,,,,,,,,,,,,,,,,,,,,,,,,,,,,,,,,,,,,,,,
,,613e79bab4ffe7389bb2a20c,2024-02-18_20h12.09.960,kallum_motion_pilot,2023.2.2,Win32,59.88023952,613e79bab4ffe7389bb2a20c,65d2b6c8f2eece985d8e374c,65d2b8d4c91a54bf0c27c893,0.0228,0.0228,0,31,31,86,1,eightsix,,,,,,,,,,,,,,,,,,,,,,,,,,,,,,,,,,,,,,,,,,,,,,,,,,,,,,,,,,,,,,,,,,,,,,,,,,,,,,,,,,,,,,,,,,,,,,,,,,,,,,,,,,,,,,,,,,,,,,,,,,,,,,,,,,,,,,,,,
,,613e79bab4ffe7389bb2a20c,2024-02-18_20h12.09.960,kallum_motion_pilot,2023.2.2,Win32,59.88023952,613e79bab4ffe7389bb2a20c,65d2b6c8f2eece985d8e374c,65d2b8d4c91a54bf0c27c893,0.0229,0.0229,0,32,32,158,1,eightsix,,,,,,,,,,,,,,,,,,,,,,,,,,,,,,,,,,,,,,,,,,,,,,,,,,,,,,,,,,,,,,,,,,,,,,,,,,,,,,,,,,,,,,,,,,,,,,,,,,,,,,,,,,,,,,,,,,,,,,,,,,,,,,,,,,,,,,,,,
,,613e79bab4ffe7389bb2a20c,2024-02-18_20h12.09.960,kallum_motion_pilot,2023.2.2,Win32,59.88023952,613e79bab4ffe7389bb2a20c,65d2b6c8f2eece985d8e374c,65d2b8d4c91a54bf0c27c893,0.023,0.023,0,33,33,3,1,twofour,,,,,,,,,,,,,,,,,,,,,,,,,,,,,,,,,,,,,,,,,,,,,,,,,,,,,,,,,,,,,,,,,,,,,,,,,,,,,,,,,,,,,,,,,,,,,,,,,,,,,,,,,,,,,,,,,,,,,,,,,,,,,,,,,,,,,,,,,
,,613e79bab4ffe7389bb2a20c,2024-02-18_20h12.09.960,kallum_motion_pilot,2023.2.2,Win32,59.88023952,613e79bab4ffe7389bb2a20c,65d2b6c8f2eece985d8e374c,65d2b8d4c91a54bf0c27c893,0.023,0.0231,0,34,34,13,1,threefour,,,,,,,,,,,,,,,,,,,,,,,,,,,,,,,,,,,,,,,,,,,,,,,,,,,,,,,,,,,,,,,,,,,,,,,,,,,,,,,,,,,,,,,,,,,,,,,,,,,,,,,,,,,,,,,,,,,,,,,,,,,,,,,,,,,,,,,,,
,,613e79bab4ffe7389bb2a20c,2024-02-18_20h12.09.960,kallum_motion_pilot,2023.2.2,Win32,59.88023952,613e79bab4ffe7389bb2a20c,65d2b6c8f2eece985d8e374c,65d2b8d4c91a54bf0c27c893,0.0231,0.0231,0,35,35,37,1,threefour,,,,,,,,,,,,,,,,,,,,,,,,,,,,,,,,,,,,,,,,,,,,,,,,,,,,,,,,,,,,,,,,,,,,,,,,,,,,,,,,,,,,,,,,,,,,,,,,,,,,,,,,,,,,,,,,,,,,,,,,,,,,,,,,,,,,,,,,,
,,613e79bab4ffe7389bb2a20c,2024-02-18_20h12.09.960,kallum_motion_pilot,2023.2.2,Win32,59.88023952,613e79bab4ffe7389bb2a20c,65d2b6c8f2eece985d8e374c,65d2b8d4c91a54bf0c27c893,0.0232,0.0232,0,36,36,16,1,onetwo,,,,,,,,,,,,,,,,,,,,,,,,,,,,,,,,,,,,,,,,,,,,,,,,,,,,,,,,,,,,,,,,,,,,,,,,,,,,,,,,,,,,,,,,,,,,,,,,,,,,,,,,,,,,,,,,,,,,,,,,,,,,,,,,,,,,,,,,,
,,613e79bab4ffe7389bb2a20c,2024-02-18_20h12.09.960,kallum_motion_pilot,2023.2.2,Win32,59.88023952,613e79bab4ffe7389bb2a20c,65d2b6c8f2eece985d8e374c,65d2b8d4c91a54bf0c27c893,0.0232,0.0233,0,37,37,92,1,sevenfive,,,,,,,,,,,,,,,,,,,,,,,,,,,,,,,,,,,,,,,,,,,,,,,,,,,,,,,,,,,,,,,,,,,,,,,,,,,,,,,,,,,,,,,,,,,,,,,,,,,,,,,,,,,,,,,,,,,,,,,,,,,,,,,,,,,,,,,,,
,,613e79bab4ffe7389bb2a20c,2024-02-18_20h12.09.960,kallum_motion_pilot,2023.2.2,Win32,59.88023952,613e79bab4ffe7389bb2a20c,65d2b6c8f2eece985d8e374c,65d2b8d4c91a54bf0c27c893,0.0233,0.0233,0,38,38,67,1,twofour,,,,,,,,,,,,,,,,,,,,,,,,,,,,,,,,,,,,,,,,,,,,,,,,,,,,,,,,,,,,,,,,,,,,,,,,,,,,,,,,,,,,,,,,,,,,,,,,,,,,,,,,,,,,,,,,,,,,,,,,,,,,,,,,,,,,,,,,,
,,613e79bab4ffe7389bb2a20c,2024-02-18_20h12.09.960,kallum_motion_pilot,2023.2.2,Win32,59.88023952,613e79bab4ffe7389bb2a20c,65d2b6c8f2eece985d8e374c,65d2b8d4c91a54bf0c27c893,0.0235,0.0235,0,39,39,91,1,sixeight,,,,,,,,,,,,,,,,,,,,,,,,,,,,,,,,,,,,,,,,,,,,,,,,,,,,,,,,,,,,,,,,,,,,,,,,,,,,,,,,,,,,,,,,,,,,,,,,,,,,,,,,,,,,,,,,,,,,,,,,,,,,,,,,,,,,,,,,,
,,613e79bab4ffe7389bb2a20c,2024-02-18_20h12.09.960,kallum_motion_pilot,2023.2.2,Win32,59.88023952,613e79bab4ffe7389bb2a20c,65d2b6c8f2eece985d8e374c,65d2b8d4c91a54bf0c27c893,0.0235,0.0235,0,40,40,132,1,sevenfive,,,,,,,,,,,,,,,,,,,,,,,,,,,,,,,,,,,,,,,,,,,,,,,,,,,,,,,,,,,,,,,,,,,,,,,,,,,,,,,,,,,,,,,,,,,,,,,,,,,,,,,,,,,,,,,,,,,,,,,,,,,,,,,,,,,,,,,,,
,,613e79bab4ffe7389bb2a20c,2024-02-18_20h12.09.960,kallum_motion_pilot,2023.2.2,Win32,59.88023952,613e79bab4ffe7389bb2a20c,65d2b6c8f2eece985d8e374c,65d2b8d4c91a54bf0c27c893,0.0236,0.0236,0,41,41,113,1,fiveseven,,,,,,,,,,,,,,,,,,,,,,,,,,,,,,,,,,,,,,,,,,,,,,,,,,,,,,,,,,,,,,,,,,,,,,,,,,,,,,,,,,,,,,,,,,,,,,,,,,,,,,,,,,,,,,,,,,,,,,,,,,,,,,,,,,,,,,,,,
,,613e79bab4ffe7389bb2a20c,2024-02-18_20h12.09.960,kallum_motion_pilot,2023.2.2,Win32,59.88023952,613e79bab4ffe7389bb2a20c,65d2b6c8f2eece985d8e374c,65d2b8d4c91a54bf0c27c893,0.0236,0.0237,0,42,42,84,1,sevenfive,,,,,,,,,,,,,,,,,,,,,,,,,,,,,,,,,,,,,,,,,,,,,,,,,,,,,,,,,,,,,,,,,,,,,,,,,,,,,,,,,,,,,,,,,,,,,,,,,,,,,,,,,,,,,,,,,,,,,,,,,,,,,,,,,,,,,,,,,
,,613e79bab4ffe7389bb2a20c,2024-02-18_20h12.09.960,kallum_motion_pilot,2023.2.2,Win32,59.88023952,613e79bab4ffe7389bb2a20c,65d2b6c8f2eece985d8e374c,65d2b8d4c91a54bf0c27c893,0.0237,0.0237,0,43,43,137,1,fiveseven,,,,,,,,,,,,,,,,,,,,,,,,,,,,,,,,,,,,,,,,,,,,,,,,,,,,,,,,,,,,,,,,,,,,,,,,,,,,,,,,,,,,,,,,,,,,,,,,,,,,,,,,,,,,,,,,,,,,,,,,,,,,,,,,,,,,,,,,,
,,613e79bab4ffe7389bb2a20c,2024-02-18_20h12.09.960,kallum_motion_pilot,2023.2.2,Win32,59.88023952,613e79bab4ffe7389bb2a20c,65d2b6c8f2eece985d8e374c,65d2b8d4c91a54bf0c27c893,0.0238,0.0238,0,44,44,89,1,fiveseven,,,,,,,,,,,,,,,,,,,,,,,,,,,,,,,,,,,,,,,,,,,,,,,,,,,,,,,,,,,,,,,,,,,,,,,,,,,,,,,,,,,,,,,,,,,,,,,,,,,,,,,,,,,,,,,,,,,,,,,,,,,,,,,,,,,,,,,,,
,,613e79bab4ffe7389bb2a20c,2024-02-18_20h12.09.960,kallum_motion_pilot,2023.2.2,Win32,59.88023952,613e79bab4ffe7389bb2a20c,65d2b6c8f2eece985d8e374c,65d2b8d4c91a54bf0c27c893,0.0239,0.024,0,45,45,17,1,onethree,,,,,,,,,,,,,,,,,,,,,,,,,,,,,,,,,,,,,,,,,,,,,,,,,,,,,,,,,,,,,,,,,,,,,,,,,,,,,,,,,,,,,,,,,,,,,,,,,,,,,,,,,,,,,,,,,,,,,,,,,,,,,,,,,,,,,,,,,
,,613e79bab4ffe7389bb2a20c,2024-02-18_20h12.09.960,kallum_motion_pilot,2023.2.2,Win32,59.88023952,613e79bab4ffe7389bb2a20c,65d2b6c8f2eece985d8e374c,65d2b8d4c91a54bf0c27c893,0.024,0.024,0,46,46,106,1,sixfive,,,,,,,,,,,,,,,,,,,,,,,,,,,,,,,,,,,,,,,,,,,,,,,,,,,,,,,,,,,,,,,,,,,,,,,,,,,,,,,,,,,,,,,,,,,,,,,,,,,,,,,,,,,,,,,,,,,,,,,,,,,,,,,,,,,,,,,,,
,,613e79bab4ffe7389bb2a20c,2024-02-18_20h12.09.960,kallum_motion_pilot,2023.2.2,Win32,59.88023952,613e79bab4ffe7389bb2a20c,65d2b6c8f2eece985d8e374c,65d2b8d4c91a54bf0c27c893,0.0241,0.0241,0,47,47,62,1,fourtwo,,,,,,,,,,,,,,,,,,,,,,,,,,,,,,,,,,,,,,,,,,,,,,,,,,,,,,,,,,,,,,,,,,,,,,,,,,,,,,,,,,,,,,,,,,,,,,,,,,,,,,,,,,,,,,,,,,,,,,,,,,,,,,,,,,,,,,,,,
,,613e79bab4ffe7389bb2a20c,2024-02-18_20h12.09.960,kallum_motion_pilot,2023.2.2,Win32,59.88023952,613e79bab4ffe7389bb2a20c,65d2b6c8f2eece985d8e374c,65d2b8d4c91a54bf0c27c893,0.0241,0.0241,0,48,48,22,1,fourtwo,,,,,,,,,,,,,,,,,,,,,,,,,,,,,,,,,,,,,,,,,,,,,,,,,,,,,,,,,,,,,,,,,,,,,,,,,,,,,,,,,,,,,,,,,,,,,,,,,,,,,,,,,,,,,,,,,,,,,,,,,,,,,,,,,,,,,,,,,
,,613e79bab4ffe7389bb2a20c,2024-02-18_20h12.09.960,kallum_motion_pilot,2023.2.2,Win32,59.88023952,613e79bab4ffe7389bb2a20c,65d2b6c8f2eece985d8e374c,65d2b8d4c91a54bf0c27c893,0.0242,0.0242,0,49,49,54,1,fourtwo,,,,,,,,,,,,,,,,,,,,,,,,,,,,,,,,,,,,,,,,,,,,,,,,,,,,,,,,,,,,,,,,,,,,,,,,,,,,,,,,,,,,,,,,,,,,,,,,,,,,,,,,,,,,,,,,,,,,,,,,,,,,,,,,,,,,,,,,,
,,613e79bab4ffe7389bb2a20c,2024-02-18_20h12.09.960,kallum_motion_pilot,2023.2.2,Win32,59.88023952,613e79bab4ffe7389bb2a20c,65d2b6c8f2eece985d8e374c,65d2b8d4c91a54bf0c27c893,0.0243,0.0243,0,50,50,90,1,sixfive,,,,,,,,,,,,,,,,,,,,,,,,,,,,,,,,,,,,,,,,,,,,,,,,,,,,,,,,,,,,,,,,,,,,,,,,,,,,,,,,,,,,,,,,,,,,,,,,,,,,,,,,,,,,,,,,,,,,,,,,,,,,,,,,,,,,,,,,,
,,613e79bab4ffe7389bb2a20c,2024-02-18_20h12.09.960,kallum_motion_pilot,2023.2.2,Win32,59.88023952,613e79bab4ffe7389bb2a20c,65d2b6c8f2eece985d8e374c,65d2b8d4c91a54bf0c27c893,0.0244,0.0244,0,51,51,8,1,onetwo,,,,,,,,,,,,,,,,,,,,,,,,,,,,,,,,,,,,,,,,,,,,,,,,,,,,,,,,,,,,,,,,,,,,,,,,,,,,,,,,,,,,,,,,,,,,,,,,,,,,,,,,,,,,,,,,,,,,,,,,,,,,,,,,,,,,,,,,,
,,613e79bab4ffe7389bb2a20c,2024-02-18_20h12.09.960,kallum_motion_pilot,2023.2.2,Win32,59.88023952,613e79bab4ffe7389bb2a20c,65d2b6c8f2eece985d8e374c,65d2b8d4c91a54bf0c27c893,0.0245,0.0245,0,52,52,66,1,twoone,,,,,,,,,,,,,,,,,,,,,,,,,,,,,,,,,,,,,,,,,,,,,,,,,,,,,,,,,,,,,,,,,,,,,,,,,,,,,,,,,,,,,,,,,,,,,,,,,,,,,,,,,,,,,,,,,,,,,,,,,,,,,,,,,,,,,,,,,
,,613e79bab4ffe7389bb2a20c,2024-02-18_20h12.09.960,kallum_motion_pilot,2023.2.2,Win32,59.88023952,613e79bab4ffe7389bb2a20c,65d2b6c8f2eece985d8e374c,65d2b8d4c91a54bf0c27c893,0.0246,0.0246,0,53,53,79,1,eightseven,,,,,,,,,,,,,,,,,,,,,,,,,,,,,,,,,,,,,,,,,,,,,,,,,,,,,,,,,,,,,,,,,,,,,,,,,,,,,,,,,,,,,,,,,,,,,,,,,,,,,,,,,,,,,,,,,,,,,,,,,,,,,,,,,,,,,,,,,
,,613e79bab4ffe7389bb2a20c,2024-02-18_20h12.09.960,kallum_motion_pilot,2023.2.2,Win32,59.88023952,613e79bab4ffe7389bb2a20c,65d2b6c8f2eece985d8e374c,65d2b8d4c91a54bf0c27c893,0.0246,0.0246,0,54,54,53,1,threefour,,,,,,,,,,,,,,,,,,,,,,,,,,,,,,,,,,,,,,,,,,,,,,,,,,,,,,,,,,,,,,,,,,,,,,,,,,,,,,,,,,,,,,,,,,,,,,,,,,,,,,,,,,,,,,,,,,,,,,,,,,,,,,,,,,,,,,,,,
,,613e79bab4ffe7389bb2a20c,2024-02-18_20h12.09.960,kallum_motion_pilot,2023.2.2,Win32,59.88023952,613e79bab4ffe7389bb2a20c,65d2b6c8f2eece985d8e374c,65d2b8d4c91a54bf0c27c893,0.0246,0.0247,0,55,55,155,1,sixeight,,,,,,,,,,,,,,,,,,,,,,,,,,,,,,,,,,,,,,,,,,,,,,,,,,,,,,,,,,,,,,,,,,,,,,,,,,,,,,,,,,,,,,,,,,,,,,,,,,,,,,,,,,,,,,,,,,,,,,,,,,,,,,,,,,,,,,,,,
,,613e79bab4ffe7389bb2a20c,2024-02-18_20h12.09.960,kallum_motion_pilot,2023.2.2,Win32,59.88023952,613e79bab4ffe7389bb2a20c,65d2b6c8f2eece985d8e374c,65d2b8d4c91a54bf0c27c893,0.0247,0.0247,0,56,56,77,1,threefour,,,,,,,,,,,,,,,,,,,,,,,,,,,,,,,,,,,,,,,,,,,,,,,,,,,,,,,,,,,,,,,,,,,,,,,,,,,,,,,,,,,,,,,,,,,,,,,,,,,,,,,,,,,,,,,,,,,,,,,,,,,,,,,,,,,,,,,,,
,,613e79bab4ffe7389bb2a20c,2024-02-18_20h12.09.960,kallum_motion_pilot,2023.2.2,Win32,59.88023952,613e79bab4ffe7389bb2a20c,65d2b6c8f2eece985d8e374c,65d2b8d4c91a54bf0c27c893,0.0249,0.0249,0,57,57,146,1,sixfive,,,,,,,,,,,,,,,,,,,,,,,,,,,,,,,,,,,,,,,,,,,,,,,,,,,,,,,,,,,,,,,,,,,,,,,,,,,,,,,,,,,,,,,,,,,,,,,,,,,,,,,,,,,,,,,,,,,,,,,,,,,,,,,,,,,,,,,,,
,,613e79bab4ffe7389bb2a20c,2024-02-18_20h12.09.960,kallum_motion_pilot,2023.2.2,Win32,59.88023952,613e79bab4ffe7389bb2a20c,65d2b6c8f2eece985d8e374c,65d2b8d4c91a54bf0c27c893,0.0249,0.0249,0,58,58,141,1,seveneight,,,,,,,,,,,,,,,,,,,,,,,,,,,,,,,,,,,,,,,,,,,,,,,,,,,,,,,,,,,,,,,,,,,,,,,,,,,,,,,,,,,,,,,,,,,,,,,,,,,,,,,,,,,,,,,,,,,,,,,,,,,,,,,,,,,,,,,,,
,,613e79bab4ffe7389bb2a20c,2024-02-18_20h12.09.960,kallum_motion_pilot,2023.2.2,Win32,59.88023952,613e79bab4ffe7389bb2a20c,65d2b6c8f2eece985d8e374c,65d2b8d4c91a54bf0c27c893,0.025,0.025,0,59,59,28,1,threeone,,,,,,,,,,,,,,,,,,,,,,,,,,,,,,,,,,,,,,,,,,,,,,,,,,,,,,,,,,,,,,,,,,,,,,,,,,,,,,,,,,,,,,,,,,,,,,,,,,,,,,,,,,,,,,,,,,,,,,,,,,,,,,,,,,,,,,,,,
,,613e79bab4ffe7389bb2a20c,2024-02-18_20h12.09.960,kallum_motion_pilot,2023.2.2,Win32,59.88023952,613e79bab4ffe7389bb2a20c,65d2b6c8f2eece985d8e374c,65d2b8d4c91a54bf0c27c893,0.025,0.0251,0,60,60,14,1,fourtwo,,,,,,,,,,,,,,,,,,,,,,,,,,,,,,,,,,,,,,,,,,,,,,,,,,,,,,,,,,,,,,,,,,,,,,,,,,,,,,,,,,,,,,,,,,,,,,,,,,,,,,,,,,,,,,,,,,,,,,,,,,,,,,,,,,,,,,,,,
,,613e79bab4ffe7389bb2a20c,2024-02-18_20h12.09.960,kallum_motion_pilot,2023.2.2,Win32,59.88023952,613e79bab4ffe7389bb2a20c,65d2b6c8f2eece985d8e374c,65d2b8d4c91a54bf0c27c893,0.0251,0.0251,0,61,61,81,1,fiveseven,,,,,,,,,,,,,,,,,,,,,,,,,,,,,,,,,,,,,,,,,,,,,,,,,,,,,,,,,,,,,,,,,,,,,,,,,,,,,,,,,,,,,,,,,,,,,,,,,,,,,,,,,,,,,,,,,,,,,,,,,,,,,,,,,,,,,,,,,
,,613e79bab4ffe7389bb2a20c,2024-02-18_20h12.09.960,kallum_motion_pilot,2023.2.2,Win32,59.88023952,613e79bab4ffe7389bb2a20c,65d2b6c8f2eece985d8e374c,65d2b8d4c91a54bf0c27c893,0.0252,0.0252,0,62,62,42,1,twoone,,,,,,,,,,,,,,,,,,,,,,,,,,,,,,,,,,,,,,,,,,,,,,,,,,,,,,,,,,,,,,,,,,,,,,,,,,,,,,,,,,,,,,,,,,,,,,,,,,,,,,,,,,,,,,,,,,,,,,,,,,,,,,,,,,,,,,,,,
,,613e79bab4ffe7389bb2a20c,2024-02-18_20h12.09.960,kallum_motion_pilot,2023.2.2,Win32,59.88023952,613e79bab4ffe7389bb2a20c,65d2b6c8f2eece985d8e374c,65d2b8d4c91a54bf0c27c893,0.0253,0.0253,0,63,63,5,1,threefour,,,,,,,,,,,,,,,,,,,,,,,,,,,,,,,,,,,,,,,,,,,,,,,,,,,,,,,,,,,,,,,,,,,,,,,,,,,,,,,,,,,,,,,,,,,,,,,,,,,,,,,,,,,,,,,,,,,,,,,,,,,,,,,,,,,,,,,,,
,,613e79bab4ffe7389bb2a20c,2024-02-18_20h12.09.960,kallum_motion_pilot,2023.2.2,Win32,59.88023952,613e79bab4ffe7389bb2a20c,65d2b6c8f2eece985d8e374c,65d2b8d4c91a54bf0c27c893,0.0254,0.0254,0,64,64,18,1,twoone,,,,,,,,,,,,,,,,,,,,,,,,,,,,,,,,,,,,,,,,,,,,,,,,,,,,,,,,,,,,,,,,,,,,,,,,,,,,,,,,,,,,,,,,,,,,,,,,,,,,,,,,,,,,,,,,,,,,,,,,,,,,,,,,,,,,,,,,,
,,613e79bab4ffe7389bb2a20c,2024-02-18_20h12.09.960,kallum_motion_pilot,2023.2.2,Win32,59.88023952,613e79bab4ffe7389bb2a20c,65d2b6c8f2eece985d8e374c,65d2b8d4c91a54bf0c27c893,0.0255,0.0255,0,65,65,115,1,sixeight,,,,,,,,,,,,,,,,,,,,,,,,,,,,,,,,,,,,,,,,,,,,,,,,,,,,,,,,,,,,,,,,,,,,,,,,,,,,,,,,,,,,,,,,,,,,,,,,,,,,,,,,,,,,,,,,,,,,,,,,,,,,,,,,,,,,,,,,,
,,613e79bab4ffe7389bb2a20c,2024-02-18_20h12.09.960,kallum_motion_pilot,2023.2.2,Win32,59.88023952,613e79bab4ffe7389bb2a20c,65d2b6c8f2eece985d8e374c,65d2b8d4c91a54bf0c27c893,0.0256,0.0257,0,66,66,58,1,twoone,,,,,,,,,,,,,,,,,,,,,,,,,,,,,,,,,,,,,,,,,,,,,,,,,,,,,,,,,,,,,,,,,,,,,,,,,,,,,,,,,,,,,,,,,,,,,,,,,,,,,,,,,,,,,,,,,,,,,,,,,,,,,,,,,,,,,,,,,
,,613e79bab4ffe7389bb2a20c,2024-02-18_20h12.09.960,kallum_motion_pilot,2023.2.2,Win32,59.88023952,613e79bab4ffe7389bb2a20c,65d2b6c8f2eece985d8e374c,65d2b8d4c91a54bf0c27c893,0.0257,0.0257,0,67,67,29,1,threefour,,,,,,,,,,,,,,,,,,,,,,,,,,,,,,,,,,,,,,,,,,,,,,,,,,,,,,,,,,,,,,,,,,,,,,,,,,,,,,,,,,,,,,,,,,,,,,,,,,,,,,,,,,,,,,,,,,,,,,,,,,,,,,,,,,,,,,,,,
,,613e79bab4ffe7389bb2a20c,2024-02-18_20h12.09.960,kallum_motion_pilot,2023.2.2,Win32,59.88023952,613e79bab4ffe7389bb2a20c,65d2b6c8f2eece985d8e374c,65d2b8d4c91a54bf0c27c893,0.0258,0.0258,0,68,68,10,1,twoone,,,,,,,,,,,,,,,,,,,,,,,,,,,,,,,,,,,,,,,,,,,,,,,,,,,,,,,,,,,,,,,,,,,,,,,,,,,,,,,,,,,,,,,,,,,,,,,,,,,,,,,,,,,,,,,,,,,,,,,,,,,,,,,,,,,,,,,,,
,,613e79bab4ffe7389bb2a20c,2024-02-18_20h12.09.960,kallum_motion_pilot,2023.2.2,Win32,59.88023952,613e79bab4ffe7389bb2a20c,65d2b6c8f2eece985d8e374c,65d2b8d4c91a54bf0c27c893,0.0259,0.0259,0,69,69,36,1,threeone,,,,,,,,,,,,,,,,,,,,,,,,,,,,,,,,,,,,,,,,,,,,,,,,,,,,,,,,,,,,,,,,,,,,,,,,,,,,,,,,,,,,,,,,,,,,,,,,,,,,,,,,,,,,,,,,,,,,,,,,,,,,,,,,,,,,,,,,,
,,613e79bab4ffe7389bb2a20c,2024-02-18_20h12.09.960,kallum_motion_pilot,2023.2.2,Win32,59.88023952,613e79bab4ffe7389bb2a20c,65d2b6c8f2eece985d8e374c,65d2b8d4c91a54bf0c27c893,0.0268,0.0268,0,70,70,25,1,onethree,,,,,,,,,,,,,,,,,,,,,,,,,,,,,,,,,,,,,,,,,,,,,,,,,,,,,,,,,,,,,,,,,,,,,,,,,,,,,,,,,,,,,,,,,,,,,,,,,,,,,,,,,,,,,,,,,,,,,,,,,,,,,,,,,,,,,,,,,
,,613e79bab4ffe7389bb2a20c,2024-02-18_20h12.09.960,kallum_motion_pilot,2023.2.2,Win32,59.88023952,613e79bab4ffe7389bb2a20c,65d2b6c8f2eece985d8e374c,65d2b8d4c91a54bf0c27c893,0.027,0.027,0,71,71,152,1,fivesix,,,,,,,,,,,,,,,,,,,,,,,,,,,,,,,,,,,,,,,,,,,,,,,,,,,,,,,,,,,,,,,,,,,,,,,,,,,,,,,,,,,,,,,,,,,,,,,,,,,,,,,,,,,,,,,,,,,,,,,,,,,,,,,,,,,,,,,,,
,,613e79bab4ffe7389bb2a20c,2024-02-18_20h12.09.960,kallum_motion_pilot,2023.2.2,Win32,59.88023952,613e79bab4ffe7389bb2a20c,65d2b6c8f2eece985d8e374c,65d2b8d4c91a54bf0c27c893,0.0271,0.0272,0,72,72,23,1,fourthree,,,,,,,,,,,,,,,,,,,,,,,,,,,,,,,,,,,,,,,,,,,,,,,,,,,,,,,,,,,,,,,,,,,,,,,,,,,,,,,,,,,,,,,,,,,,,,,,,,,,,,,,,,,,,,,,,,,,,,,,,,,,,,,,,,,,,,,,,
,,613e79bab4ffe7389bb2a20c,2024-02-18_20h12.09.960,kallum_motion_pilot,2023.2.2,Win32,59.88023952,613e79bab4ffe7389bb2a20c,65d2b6c8f2eece985d8e374c,65d2b8d4c91a54bf0c27c893,0.0272,0.0273,0,73,73,130,1,sixfive,,,,,,,,,,,,,,,,,,,,,,,,,,,,,,,,,,,,,,,,,,,,,,,,,,,,,,,,,,,,,,,,,,,,,,,,,,,,,,,,,,,,,,,,,,,,,,,,,,,,,,,,,,,,,,,,,,,,,,,,,,,,,,,,,,,,,,,,,
,,613e79bab4ffe7389bb2a20c,2024-02-18_20h12.09.960,kallum_motion_pilot,2023.2.2,Win32,59.88023952,613e79bab4ffe7389bb2a20c,65d2b6c8f2eece985d8e374c,65d2b8d4c91a54bf0c27c893,0.0273,0.0273,0,74,74,15,1,fourthree,,,,,,,,,,,,,,,,,,,,,,,,,,,,,,,,,,,,,,,,,,,,,,,,,,,,,,,,,,,,,,,,,,,,,,,,,,,,,,,,,,,,,,,,,,,,,,,,,,,,,,,,,,,,,,,,,,,,,,,,,,,,,,,,,,,,,,,,,
,,613e79bab4ffe7389bb2a20c,2024-02-18_20h12.09.960,kallum_motion_pilot,2023.2.2,Win32,59.88023952,613e79bab4ffe7389bb2a20c,65d2b6c8f2eece985d8e374c,65d2b8d4c91a54bf0c27c893,0.0274,0.0275,0,75,75,99,1,sixeight,,,,,,,,,,,,,,,,,,,,,,,,,,,,,,,,,,,,,,,,,,,,,,,,,,,,,,,,,,,,,,,,,,,,,,,,,,,,,,,,,,,,,,,,,,,,,,,,,,,,,,,,,,,,,,,,,,,,,,,,,,,,,,,,,,,,,,,,,
,,613e79bab4ffe7389bb2a20c,2024-02-18_20h12.09.960,kallum_motion_pilot,2023.2.2,Win32,59.88023952,613e79bab4ffe7389bb2a20c,65d2b6c8f2eece985d8e374c,65d2b8d4c91a54bf0c27c893,0.0277,0.0278,0,76,76,126,1,eightsix,,,,,,,,,,,,,,,,,,,,,,,,,,,,,,,,,,,,,,,,,,,,,,,,,,,,,,,,,,,,,,,,,,,,,,,,,,,,,,,,,,,,,,,,,,,,,,,,,,,,,,,,,,,,,,,,,,,,,,,,,,,,,,,,,,,,,,,,,
,,613e79bab4ffe7389bb2a20c,2024-02-18_20h12.09.960,kallum_motion_pilot,2023.2.2,Win32,59.88023952,613e79bab4ffe7389bb2a20c,65d2b6c8f2eece985d8e374c,65d2b8d4c91a54bf0c27c893,0.028,0.028,0,77,77,151,1,eightseven,,,,,,,,,,,,,,,,,,,,,,,,,,,,,,,,,,,,,,,,,,,,,,,,,,,,,,,,,,,,,,,,,,,,,,,,,,,,,,,,,,,,,,,,,,,,,,,,,,,,,,,,,,,,,,,,,,,,,,,,,,,,,,,,,,,,,,,,,
,,613e79bab4ffe7389bb2a20c,2024-02-18_20h12.09.960,kallum_motion_pilot,2023.2.2,Win32,59.88023952,613e79bab4ffe7389bb2a20c,65d2b6c8f2eece985d8e374c,65d2b8d4c91a54bf0c27c893,0.0282,0.0283,0,78,78,95,1,eightseven,,,,,,,,,,,,,,,,,,,,,,,,,,,,,,,,,,,,,,,,,,,,,,,,,,,,,,,,,,,,,,,,,,,,,,,,,,,,,,,,,,,,,,,,,,,,,,,,,,,,,,,,,,,,,,,,,,,,,,,,,,,,,,,,,,,,,,,,,
,,613e79bab4ffe7389bb2a20c,2024-02-18_20h12.09.960,kallum_motion_pilot,2023.2.2,Win32,59.88023952,613e79bab4ffe7389bb2a20c,65d2b6c8f2eece985d8e374c,65d2b8d4c91a54bf0c27c893,0.0285,0.0285,0,79,79,133,1,seveneight,,,,,,,,,,,,,,,,,,,,,,,,,,,,,,,,,,,,,,,,,,,,,,,,,,,,,,,,,,,,,,,,,,,,,,,,,,,,,,,,,,,,,,,,,,,,,,,,,,,,,,,,,,,,,,,,,,,,,,,,,,,,,,,,,,,,,,,,,
,,613e79bab4ffe7389bb2a20c,2024-02-18_20h12.09.960,kallum_motion_pilot,2023.2.2,Win32,59.88023952,613e79bab4ffe7389bb2a20c,65d2b6c8f2eece985d8e374c,65d2b8d4c91a54bf0c27c893,0.0287,0.0288,0,80,80,159,1,eightseven,,,,,,,,,,,,,,,,,,,,,,,,,,,,,,,,,,,,,,,,,,,,,,,,,,,,,,,,,,,,,,,,,,,,,,,,,,,,,,,,,,,,,,,,,,,,,,,,,,,,,,,,,,,,,,,,,,,,,,,,,,,,,,,,,,,,,,,,,
,,613e79bab4ffe7389bb2a20c,2024-02-18_20h12.09.960,kallum_motion_pilot,2023.2.2,Win32,59.88023952,613e79bab4ffe7389bb2a20c,65d2b6c8f2eece985d8e374c,65d2b8d4c91a54bf0c27c893,0.029,0.029,0,81,81,82,1,sixfive,,,,,,,,,,,,,,,,,,,,,,,,,,,,,,,,,,,,,,,,,,,,,,,,,,,,,,,,,,,,,,,,,,,,,,,,,,,,,,,,,,,,,,,,,,,,,,,,,,,,,,,,,,,,,,,,,,,,,,,,,,,,,,,,,,,,,,,,,
,,613e79bab4ffe7389bb2a20c,2024-02-18_20h12.09.960,kallum_motion_pilot,2023.2.2,Win32,59.88023952,613e79bab4ffe7389bb2a20c,65d2b6c8f2eece985d8e374c,65d2b8d4c91a54bf0c27c893,0.0292,0.0292,0,82,82,121,1,fiveseven,,,,,,,,,,,,,,,,,,,,,,,,,,,,,,,,,,,,,,,,,,,,,,,,,,,,,,,,,,,,,,,,,,,,,,,,,,,,,,,,,,,,,,,,,,,,,,,,,,,,,,,,,,,,,,,,,,,,,,,,,,,,,,,,,,,,,,,,,
,,613e79bab4ffe7389bb2a20c,2024-02-18_20h12.09.960,kallum_motion_pilot,2023.2.2,Win32,59.88023952,613e79bab4ffe7389bb2a20c,65d2b6c8f2eece985d8e374c,65d2b8d4c91a54bf0c27c893,0.0293,0.0294,0,83,83,150,1,eightsix,,,,,,,,,,,,,,,,,,,,,,,,,,,,,,,,,,,,,,,,,,,,,,,,,,,,,,,,,,,,,,,,,,,,,,,,,,,,,,,,,,,,,,,,,,,,,,,,,,,,,,,,,,,,,,,,,,,,,,,,,,,,,,,,,,,,,,,,,
,,613e79bab4ffe7389bb2a20c,2024-02-18_20h12.09.960,kallum_motion_pilot,2023.2.2,Win32,59.88023952,613e79bab4ffe7389bb2a20c,65d2b6c8f2eece985d8e374c,65d2b8d4c91a54bf0c27c893,0.0294,0.0295,0,84,84,117,1,seveneight,,,,,,,,,,,,,,,,,,,,,,,,,,,,,,,,,,,,,,,,,,,,,,,,,,,,,,,,,,,,,,,,,,,,,,,,,,,,,,,,,,,,,,,,,,,,,,,,,,,,,,,,,,,,,,,,,,,,,,,,,,,,,,,,,,,,,,,,,
,,613e79bab4ffe7389bb2a20c,2024-02-18_20h12.09.960,kallum_motion_pilot,2023.2.2,Win32,59.88023952,613e79bab4ffe7389bb2a20c,65d2b6c8f2eece985d8e374c,65d2b8d4c91a54bf0c27c893,0.0297,0.0297,0,85,85,71,1,fourthree,,,,,,,,,,,,,,,,,,,,,,,,,,,,,,,,,,,,,,,,,,,,,,,,,,,,,,,,,,,,,,,,,,,,,,,,,,,,,,,,,,,,,,,,,,,,,,,,,,,,,,,,,,,,,,,,,,,,,,,,,,,,,,,,,,,,,,,,,
,,613e79bab4ffe7389bb2a20c,2024-02-18_20h12.09.960,kallum_motion_pilot,2023.2.2,Win32,59.88023952,613e79bab4ffe7389bb2a20c,65d2b6c8f2eece985d8e374c,65d2b8d4c91a54bf0c27c893,0.0298,0.0298,0,86,86,160,1,fivesix,,,,,,,,,,,,,,,,,,,,,,,,,,,,,,,,,,,,,,,,,,,,,,,,,,,,,,,,,,,,,,,,,,,,,,,,,,,,,,,,,,,,,,,,,,,,,,,,,,,,,,,,,,,,,,,,,,,,,,,,,,,,,,,,,,,,,,,,,
,,613e79bab4ffe7389bb2a20c,2024-02-18_20h12.09.960,kallum_motion_pilot,2023.2.2,Win32,59.88023952,613e79bab4ffe7389bb2a20c,65d2b6c8f2eece985d8e374c,65d2b8d4c91a54bf0c27c893,0.03,0.03,0,87,87,57,1,onethree,,,,,,,,,,,,,,,,,,,,,,,,,,,,,,,,,,,,,,,,,,,,,,,,,,,,,,,,,,,,,,,,,,,,,,,,,,,,,,,,,,,,,,,,,,,,,,,,,,,,,,,,,,,,,,,,,,,,,,,,,,,,,,,,,,,,,,,,,
,,613e79bab4ffe7389bb2a20c,2024-02-18_20h12.09.960,kallum_motion_pilot,2023.2.2,Win32,59.88023952,613e79bab4ffe7389bb2a20c,65d2b6c8f2eece985d8e374c,65d2b8d4c91a54bf0c27c893,0.03,0.0301,0,88,88,143,1,eightseven,,,,,,,,,,,,,,,,,,,,,,,,,,,,,,,,,,,,,,,,,,,,,,,,,,,,,,,,,,,,,,,,,,,,,,,,,,,,,,,,,,,,,,,,,,,,,,,,,,,,,,,,,,,,,,,,,,,,,,,,,,,,,,,,,,,,,,,,,
,,613e79bab4ffe7389bb2a20c,2024-02-18_20h12.09.960,kallum_motion_pilot,2023.2.2,Win32,59.88023952,613e79bab4ffe7389bb2a20c,65d2b6c8f2eece985d8e374c,65d2b8d4c91a54bf0c27c893,0.0301,0.0301,0,89,89,96,1,fivesix,,,,,,,,,,,,,,,,,,,,,,,,,,,,,,,,,,,,,,,,,,,,,,,,,,,,,,,,,,,,,,,,,,,,,,,,,,,,,,,,,,,,,,,,,,,,,,,,,,,,,,,,,,,,,,,,,,,,,,,,,,,,,,,,,,,,,,,,,
,,613e79bab4ffe7389bb2a20c,2024-02-18_20h12.09.960,kallum_motion_pilot,2023.2.2,Win32,59.88023952,613e79bab4ffe7389bb2a20c,65d2b6c8f2eece985d8e374c,65d2b8d4c91a54bf0c27c893,0.0302,0.0302,0,90,90,87,1,eightseven,,,,,,,,,,,,,,,,,,,,,,,,,,,,,,,,,,,,,,,,,,,,,,,,,,,,,,,,,,,,,,,,,,,,,,,,,,,,,,,,,,,,,,,,,,,,,,,,,,,,,,,,,,,,,,,,,,,,,,,,,,,,,,,,,,,,,,,,,
,,613e79bab4ffe7389bb2a20c,2024-02-18_20h12.09.960,kallum_motion_pilot,2023.2.2,Win32,59.88023952,613e79bab4ffe7389bb2a20c,65d2b6c8f2eece985d8e374c,65d2b8d4c91a54bf0c27c893,0.0303,0.0303,0,91,91,51,1,twofour,,,,,,,,,,,,,,,,,,,,,,,,,,,,,,,,,,,,,,,,,,,,,,,,,,,,,,,,,,,,,,,,,,,,,,,,,,,,,,,,,,,,,,,,,,,,,,,,,,,,,,,,,,,,,,,,,,,,,,,,,,,,,,,,,,,,,,,,,
,,613e79bab4ffe7389bb2a20c,2024-02-18_20h12.09.960,kallum_motion_pilot,2023.2.2,Win32,59.88023952,613e79bab4ffe7389bb2a20c,65d2b6c8f2eece985d8e374c,65d2b8d4c91a54bf0c27c893,0.0304,0.0304,0,92,92,24,1,onetwo,,,,,,,,,,,,,,,,,,,,,,,,,,,,,,,,,,,,,,,,,,,,,,,,,,,,,,,,,,,,,,,,,,,,,,,,,,,,,,,,,,,,,,,,,,,,,,,,,,,,,,,,,,,,,,,,,,,,,,,,,,,,,,,,,,,,,,,,,
,,613e79bab4ffe7389bb2a20c,2024-02-18_20h12.09.960,kallum_motion_pilot,2023.2.2,Win32,59.88023952,613e79bab4ffe7389bb2a20c,65d2b6c8f2eece985d8e374c,65d2b8d4c91a54bf0c27c893,0.0304,0.0306,0,93,93,78,1,fourtwo,,,,,,,,,,,,,,,,,,,,,,,,,,,,,,,,,,,,,,,,,,,,,,,,,,,,,,,,,,,,,,,,,,,,,,,,,,,,,,,,,,,,,,,,,,,,,,,,,,,,,,,,,,,,,,,,,,,,,,,,,,,,,,,,,,,,,,,,,
,,613e79bab4ffe7389bb2a20c,2024-02-18_20h12.09.960,kallum_motion_pilot,2023.2.2,Win32,59.88023952,613e79bab4ffe7389bb2a20c,65d2b6c8f2eece985d8e374c,65d2b8d4c91a54bf0c27c893,0.0306,0.0306,0,94,94,112,1,fivesix,,,,,,,,,,,,,,,,,,,,,,,,,,,,,,,,,,,,,,,,,,,,,,,,,,,,,,,,,,,,,,,,,,,,,,,,,,,,,,,,,,,,,,,,,,,,,,,,,,,,,,,,,,,,,,,,,,,,,,,,,,,,,,,,,,,,,,,,,
,,613e79bab4ffe7389bb2a20c,2024-02-18_20h12.09.960,kallum_motion_pilot,2023.2.2,Win32,59.88023952,613e79bab4ffe7389bb2a20c,65d2b6c8f2eece985d8e374c,65d2b8d4c91a54bf0c27c893,0.0307,0.0307,0,95,95,64,1,onetwo,,,,,,,,,,,,,,,,,,,,,,,,,,,,,,,,,,,,,,,,,,,,,,,,,,,,,,,,,,,,,,,,,,,,,,,,,,,,,,,,,,,,,,,,,,,,,,,,,,,,,,,,,,,,,,,,,,,,,,,,,,,,,,,,,,,,,,,,,
,,613e79bab4ffe7389bb2a20c,2024-02-18_20h12.09.960,kallum_motion_pilot,2023.2.2,Win32,59.88023952,613e79bab4ffe7389bb2a20c,65d2b6c8f2eece985d8e374c,65d2b8d4c91a54bf0c27c893,0.0308,0.0308,0,96,96,83,1,sixeight,,,,,,,,,,,,,,,,,,,,,,,,,,,,,,,,,,,,,,,,,,,,,,,,,,,,,,,,,,,,,,,,,,,,,,,,,,,,,,,,,,,,,,,,,,,,,,,,,,,,,,,,,,,,,,,,,,,,,,,,,,,,,,,,,,,,,,,,,
,,613e79bab4ffe7389bb2a20c,2024-02-18_20h12.09.960,kallum_motion_pilot,2023.2.2,Win32,59.88023952,613e79bab4ffe7389bb2a20c,65d2b6c8f2eece985d8e374c,65d2b8d4c91a54bf0c27c893,0.0309,0.0309,0,97,97,45,1,threefour,,,,,,,,,,,,,,,,,,,,,,,,,,,,,,,,,,,,,,,,,,,,,,,,,,,,,,,,,,,,,,,,,,,,,,,,,,,,,,,,,,,,,,,,,,,,,,,,,,,,,,,,,,,,,,,,,,,,,,,,,,,,,,,,,,,,,,,,,
,,613e79bab4ffe7389bb2a20c,2024-02-18_20h12.09.960,kallum_motion_pilot,2023.2.2,Win32,59.88023952,613e79bab4ffe7389bb2a20c,65d2b6c8f2eece985d8e374c,65d2b8d4c91a54bf0c27c893,0.0309,0.031,0,98,98,72,1,onetwo,,,,,,,,,,,,,,,,,,,,,,,,,,,,,,,,,,,,,,,,,,,,,,,,,,,,,,,,,,,,,,,,,,,,,,,,,,,,,,,,,,,,,,,,,,,,,,,,,,,,,,,,,,,,,,,,,,,,,,,,,,,,,,,,,,,,,,,,,
,,613e79bab4ffe7389bb2a20c,2024-02-18_20h12.09.960,kallum_motion_pilot,2023.2.2,Win32,59.88023952,613e79bab4ffe7389bb2a20c,65d2b6c8f2eece985d8e374c,65d2b8d4c91a54bf0c27c893,0.031,0.031,0,99,99,27,1,twofour,,,,,,,,,,,,,,,,,,,,,,,,,,,,,,,,,,,,,,,,,,,,,,,,,,,,,,,,,,,,,,,,,,,,,,,,,,,,,,,,,,,,,,,,,,,,,,,,,,,,,,,,,,,,,,,,,,,,,,,,,,,,,,,,,,,,,,,,,
,,613e79bab4ffe7389bb2a20c,2024-02-18_20h12.09.960,kallum_motion_pilot,2023.2.2,Win32,59.88023952,613e79bab4ffe7389bb2a20c,65d2b6c8f2eece985d8e374c,65d2b8d4c91a54bf0c27c893,0.0311,0.0312,0,100,100,104,1,fivesix,,,,,,,,,,,,,,,,,,,,,,,,,,,,,,,,,,,,,,,,,,,,,,,,,,,,,,,,,,,,,,,,,,,,,,,,,,,,,,,,,,,,,,,,,,,,,,,,,,,,,,,,,,,,,,,,,,,,,,,,,,,,,,,,,,,,,,,,,
,,613e79bab4ffe7389bb2a20c,2024-02-18_20h12.09.960,kallum_motion_pilot,2023.2.2,Win32,59.88023952,613e79bab4ffe7389bb2a20c,65d2b6c8f2eece985d8e374c,65d2b8d4c91a54bf0c27c893,0.0312,0.0313,0,101,101,122,1,sixfive,,,,,,,,,,,,,,,,,,,,,,,,,,,,,,,,,,,,,,,,,,,,,,,,,,,,,,,,,,,,,,,,,,,,,,,,,,,,,,,,,,,,,,,,,,,,,,,,,,,,,,,,,,,,,,,,,,,,,,,,,,,,,,,,,,,,,,,,,
,,613e79bab4ffe7389bb2a20c,2024-02-18_20h12.09.960,kallum_motion_pilot,2023.2.2,Win32,59.88023952,613e79bab4ffe7389bb2a20c,65d2b6c8f2eece985d8e374c,65d2b8d4c91a54bf0c27c893,0.0313,0.0313,0,102,102,26,1,twoone,,,,,,,,,,,,,,,,,,,,,,,,,,,,,,,,,,,,,,,,,,,,,,,,,,,,,,,,,,,,,,,,,,,,,,,,,,,,,,,,,,,,,,,,,,,,,,,,,,,,,,,,,,,,,,,,,,,,,,,,,,,,,,,,,,,,,,,,,
,,613e79bab4ffe7389bb2a20c,2024-02-18_20h12.09.960,kallum_motion_pilot,2023.2.2,Win32,59.88023952,613e79bab4ffe7389bb2a20c,65d2b6c8f2eece985d8e374c,65d2b8d4c91a54bf0c27c893,0.0314,0.0314,0,103,103,139,1,sixeight,,,,,,,,,,,,,,,,,,,,,,,,,,,,,,,,,,,,,,,,,,,,,,,,,,,,,,,,,,,,,,,,,,,,,,,,,,,,,,,,,,,,,,,,,,,,,,,,,,,,,,,,,,,,,,,,,,,,,,,,,,,,,,,,,,,,,,,,,
,,613e79bab4ffe7389bb2a20c,2024-02-18_20h12.09.960,kallum_motion_pilot,2023.2.2,Win32,59.88023952,613e79bab4ffe7389bb2a20c,65d2b6c8f2eece985d8e374c,65d2b8d4c91a54bf0c27c893,0.0315,0.0316,0,104,104,12,1,threeone,,,,,,,,,,,,,,,,,,,,,,,,,,,,,,,,,,,,,,,,,,,,,,,,,,,,,,,,,,,,,,,,,,,,,,,,,,,,,,,,,,,,,,,,,,,,,,,,,,,,,,,,,,,,,,,,,,,,,,,,,,,,,,,,,,,,,,,,,
,,613e79bab4ffe7389bb2a20c,2024-02-18_20h12.09.960,kallum_motion_pilot,2023.2.2,Win32,59.88023952,613e79bab4ffe7389bb2a20c,65d2b6c8f2eece985d8e374c,65d2b8d4c91a54bf0c27c893,0.0316,0.0316,0,105,105,108,1,sevenfive,,,,,,,,,,,,,,,,,,,,,,,,,,,,,,,,,,,,,,,,,,,,,,,,,,,,,,,,,,,,,,,,,,,,,,,,,,,,,,,,,,,,,,,,,,,,,,,,,,,,,,,,,,,,,,,,,,,,,,,,,,,,,,,,,,,,,,,,,
,,613e79bab4ffe7389bb2a20c,2024-02-18_20h12.09.960,kallum_motion_pilot,2023.2.2,Win32,59.88023952,613e79bab4ffe7389bb2a20c,65d2b6c8f2eece985d8e374c,65d2b8d4c91a54bf0c27c893,0.0317,0.0317,0,106,106,144,1,fivesix,,,,,,,,,,,,,,,,,,,,,,,,,,,,,,,,,,,,,,,,,,,,,,,,,,,,,,,,,,,,,,,,,,,,,,,,,,,,,,,,,,,,,,,,,,,,,,,,,,,,,,,,,,,,,,,,,,,,,,,,,,,,,,,,,,,,,,,,,
,,613e79bab4ffe7389bb2a20c,2024-02-18_20h12.09.960,kallum_motion_pilot,2023.2.2,Win32,59.88023952,613e79bab4ffe7389bb2a20c,65d2b6c8f2eece985d8e374c,65d2b8d4c91a54bf0c27c893,0.0318,0.0318,0,107,107,156,1,sevenfive,,,,,,,,,,,,,,,,,,,,,,,,,,,,,,,,,,,,,,,,,,,,,,,,,,,,,,,,,,,,,,,,,,,,,,,,,,,,,,,,,,,,,,,,,,,,,,,,,,,,,,,,,,,,,,,,,,,,,,,,,,,,,,,,,,,,,,,,,
,,613e79bab4ffe7389bb2a20c,2024-02-18_20h12.09.960,kallum_motion_pilot,2023.2.2,Win32,59.88023952,613e79bab4ffe7389bb2a20c,65d2b6c8f2eece985d8e374c,65d2b8d4c91a54bf0c27c893,0.0319,0.0319,0,108,108,38,1,fourtwo,,,,,,,,,,,,,,,,,,,,,,,,,,,,,,,,,,,,,,,,,,,,,,,,,,,,,,,,,,,,,,,,,,,,,,,,,,,,,,,,,,,,,,,,,,,,,,,,,,,,,,,,,,,,,,,,,,,,,,,,,,,,,,,,,,,,,,,,,
,,613e79bab4ffe7389bb2a20c,2024-02-18_20h12.09.960,kallum_motion_pilot,2023.2.2,Win32,59.88023952,613e79bab4ffe7389bb2a20c,65d2b6c8f2eece985d8e374c,65d2b8d4c91a54bf0c27c893,0.0319,0.032,0,109,109,31,1,fourthree,,,,,,,,,,,,,,,,,,,,,,,,,,,,,,,,,,,,,,,,,,,,,,,,,,,,,,,,,,,,,,,,,,,,,,,,,,,,,,,,,,,,,,,,,,,,,,,,,,,,,,,,,,,,,,,,,,,,,,,,,,,,,,,,,,,,,,,,,
,,613e79bab4ffe7389bb2a20c,2024-02-18_20h12.09.960,kallum_motion_pilot,2023.2.2,Win32,59.88023952,613e79bab4ffe7389bb2a20c,65d2b6c8f2eece985d8e374c,65d2b8d4c91a54bf0c27c893,0.0321,0.0321,0,110,110,75,1,twofour,,,,,,,,,,,,,,,,,,,,,,,,,,,,,,,,,,,,,,,,,,,,,,,,,,,,,,,,,,,,,,,,,,,,,,,,,,,,,,,,,,,,,,,,,,,,,,,,,,,,,,,,,,,,,,,,,,,,,,,,,,,,,,,,,,,,,,,,,
,,613e79bab4ffe7389bb2a20c,2024-02-18_20h12.09.960,kallum_motion_pilot,2023.2.2,Win32,59.88023952,613e79bab4ffe7389bb2a20c,65d2b6c8f2eece985d8e374c,65d2b8d4c91a54bf0c27c893,0.0322,0.0323,0,111,111,6,1,fourtwo,,,,,,,,,,,,,,,,,,,,,,,,,,,,,,,,,,,,,,,,,,,,,,,,,,,,,,,,,,,,,,,,,,,,,,,,,,,,,,,,,,,,,,,,,,,,,,,,,,,,,,,,,,,,,,,,,,,,,,,,,,,,,,,,,,,,,,,,,
,,613e79bab4ffe7389bb2a20c,2024-02-18_20h12.09.960,kallum_motion_pilot,2023.2.2,Win32,59.88023952,613e79bab4ffe7389bb2a20c,65d2b6c8f2eece985d8e374c,65d2b8d4c91a54bf0c27c893,0.0323,0.0323,0,112,112,55,1,fourthree,,,,,,,,,,,,,,,,,,,,,,,,,,,,,,,,,,,,,,,,,,,,,,,,,,,,,,,,,,,,,,,,,,,,,,,,,,,,,,,,,,,,,,,,,,,,,,,,,,,,,,,,,,,,,,,,,,,,,,,,,,,,,,,,,,,,,,,,,
,,613e79bab4ffe7389bb2a20c,2024-02-18_20h12.09.960,kallum_motion_pilot,2023.2.2,Win32,59.88023952,613e79bab4ffe7389bb2a20c,65d2b6c8f2eece985d8e374c,65d2b8d4c91a54bf0c27c893,0.0324,0.0324,0,113,113,21,1,threefour,,,,,,,,,,,,,,,,,,,,,,,,,,,,,,,,,,,,,,,,,,,,,,,,,,,,,,,,,,,,,,,,,,,,,,,,,,,,,,,,,,,,,,,,,,,,,,,,,,,,,,,,,,,,,,,,,,,,,,,,,,,,,,,,,,,,,,,,,
,,613e79bab4ffe7389bb2a20c,2024-02-18_20h12.09.960,kallum_motion_pilot,2023.2.2,Win32,59.88023952,613e79bab4ffe7389bb2a20c,65d2b6c8f2eece985d8e374c,65d2b8d4c91a54bf0c27c893,0.0324,0.0324,0,114,114,129,1,fiveseven,,,,,,,,,,,,,,,,,,,,,,,,,,,,,,,,,,,,,,,,,,,,,,,,,,,,,,,,,,,,,,,,,,,,,,,,,,,,,,,,,,,,,,,,,,,,,,,,,,,,,,,,,,,,,,,,,,,,,,,,,,,,,,,,,,,,,,,,,
,,613e79bab4ffe7389bb2a20c,2024-02-18_20h12.09.960,kallum_motion_pilot,2023.2.2,Win32,59.88023952,613e79bab4ffe7389bb2a20c,65d2b6c8f2eece985d8e374c,65d2b8d4c91a54bf0c27c893,0.0325,0.0326,0,115,115,88,1,fivesix,,,,,,,,,,,,,,,,,,,,,,,,,,,,,,,,,,,,,,,,,,,,,,,,,,,,,,,,,,,,,,,,,,,,,,,,,,,,,,,,,,,,,,,,,,,,,,,,,,,,,,,,,,,,,,,,,,,,,,,,,,,,,,,,,,,,,,,,,
,,613e79bab4ffe7389bb2a20c,2024-02-18_20h12.09.960,kallum_motion_pilot,2023.2.2,Win32,59.88023952,613e79bab4ffe7389bb2a20c,65d2b6c8f2eece985d8e374c,65d2b8d4c91a54bf0c27c893,0.0327,0.0327,0,116,116,35,1,twofour,,,,,,,,,,,,,,,,,,,,,,,,,,,,,,,,,,,,,,,,,,,,,,,,,,,,,,,,,,,,,,,,,,,,,,,,,,,,,,,,,,,,,,,,,,,,,,,,,,,,,,,,,,,,,,,,,,,,,,,,,,,,,,,,,,,,,,,,,
,,613e79bab4ffe7389bb2a20c,2024-02-18_20h12.09.960,kallum_motion_pilot,2023.2.2,Win32,59.88023952,613e79bab4ffe7389bb2a20c,65d2b6c8f2eece985d8e374c,65d2b8d4c91a54bf0c27c893,0.0327,0.0327,0,117,117,43,1,twofour,,,,,,,,,,,,,,,,,,,,,,,,,,,,,,,,,,,,,,,,,,,,,,,,,,,,,,,,,,,,,,,,,,,,,,,,,,,,,,,,,,,,,,,,,,,,,,,,,,,,,,,,,,,,,,,,,,,,,,,,,,,,,,,,,,,,,,,,,
,,613e79bab4ffe7389bb2a20c,2024-02-18_20h12.09.960,kallum_motion_pilot,2023.2.2,Win32,59.88023952,613e79bab4ffe7389bb2a20c,65d2b6c8f2eece985d8e374c,65d2b8d4c91a54bf0c27c893,0.0329,0.0329,0,118,118,19,1,twofour,,,,,,,,,,,,,,,,,,,,,,,,,,,,,,,,,,,,,,,,,,,,,,,,,,,,,,,,,,,,,,,,,,,,,,,,,,,,,,,,,,,,,,,,,,,,,,,,,,,,,,,,,,,,,,,,,,,,,,,,,,,,,,,,,,,,,,,,,
,,613e79bab4ffe7389bb2a20c,2024-02-18_20h12.09.960,kallum_motion_pilot,2023.2.2,Win32,59.88023952,613e79bab4ffe7389bb2a20c,65d2b6c8f2eece985d8e374c,65d2b8d4c91a54bf0c27c893,0.033,0.033,0,119,119,80,1,fivesix,,,,,,,,,,,,,,,,,,,,,,,,,,,,,,,,,,,,,,,,,,,,,,,,,,,,,,,,,,,,,,,,,,,,,,,,,,,,,,,,,,,,,,,,,,,,,,,,,,,,,,,,,,,,,,,,,,,,,,,,,,,,,,,,,,,,,,,,,
,,613e79bab4ffe7389bb2a20c,2024-02-18_20h12.09.960,kallum_motion_pilot,2023.2.2,Win32,59.88023952,613e79bab4ffe7389bb2a20c,65d2b6c8f2eece985d8e374c,65d2b8d4c91a54bf0c27c893,0.033,0.0331,0,120,120,127,1,eightseven,,,,,,,,,,,,,,,,,,,,,,,,,,,,,,,,,,,,,,,,,,,,,,,,,,,,,,,,,,,,,,,,,,,,,,,,,,,,,,,,,,,,,,,,,,,,,,,,,,,,,,,,,,,,,,,,,,,,,,,,,,,,,,,,,,,,,,,,,
,,613e79bab4ffe7389bb2a20c,2024-02-18_20h12.09.960,kallum_motion_pilot,2023.2.2,Win32,59.88023952,613e79bab4ffe7389bb2a20c,65d2b6c8f2eece985d8e374c,65d2b8d4c91a54bf0c27c893,0.0331,0.0331,0,121,121,157,1,seveneight,,,,,,,,,,,,,,,,,,,,,,,,,,,,,,,,,,,,,,,,,,,,,,,,,,,,,,,,,,,,,,,,,,,,,,,,,,,,,,,,,,,,,,,,,,,,,,,,,,,,,,,,,,,,,,,,,,,,,,,,,,,,,,,,,,,,,,,,,
,,613e79bab4ffe7389bb2a20c,2024-02-18_20h12.09.960,kallum_motion_pilot,2023.2.2,Win32,59.88023952,613e79bab4ffe7389bb2a20c,65d2b6c8f2eece985d8e374c,65d2b8d4c91a54bf0c27c893,0.0333,0.0333,0,122,122,1,1,onethree,,,,,,,,,,,,,,,,,,,,,,,,,,,,,,,,,,,,,,,,,,,,,,,,,,,,,,,,,,,,,,,,,,,,,,,,,,,,,,,,,,,,,,,,,,,,,,,,,,,,,,,,,,,,,,,,,,,,,,,,,,,,,,,,,,,,,,,,,
,,613e79bab4ffe7389bb2a20c,2024-02-18_20h12.09.960,kallum_motion_pilot,2023.2.2,Win32,59.88023952,613e79bab4ffe7389bb2a20c,65d2b6c8f2eece985d8e374c,65d2b8d4c91a54bf0c27c893,0.0333,0.0334,0,123,123,20,1,threeone,,,,,,,,,,,,,,,,,,,,,,,,,,,,,,,,,,,,,,,,,,,,,,,,,,,,,,,,,,,,,,,,,,,,,,,,,,,,,,,,,,,,,,,,,,,,,,,,,,,,,,,,,,,,,,,,,,,,,,,,,,,,,,,,,,,,,,,,,
,,613e79bab4ffe7389bb2a20c,2024-02-18_20h12.09.960,kallum_motion_pilot,2023.2.2,Win32,59.88023952,613e79bab4ffe7389bb2a20c,65d2b6c8f2eece985d8e374c,65d2b8d4c91a54bf0c27c893,0.0334,0.0335,0,124,124,116,1,sevenfive,,,,,,,,,,,,,,,,,,,,,,,,,,,,,,,,,,,,,,,,,,,,,,,,,,,,,,,,,,,,,,,,,,,,,,,,,,,,,,,,,,,,,,,,,,,,,,,,,,,,,,,,,,,,,,,,,,,,,,,,,,,,,,,,,,,,,,,,,
,,613e79bab4ffe7389bb2a20c,2024-02-18_20h12.09.960,kallum_motion_pilot,2023.2.2,Win32,59.88023952,613e79bab4ffe7389bb2a20c,65d2b6c8f2eece985d8e374c,65d2b8d4c91a54bf0c27c893,0.0335,0.0336,0,125,125,138,1,sixfive,,,,,,,,,,,,,,,,,,,,,,,,,,,,,,,,,,,,,,,,,,,,,,,,,,,,,,,,,,,,,,,,,,,,,,,,,,,,,,,,,,,,,,,,,,,,,,,,,,,,,,,,,,,,,,,,,,,,,,,,,,,,,,,,,,,,,,,,,
,,613e79bab4ffe7389bb2a20c,2024-02-18_20h12.09.960,kallum_motion_pilot,2023.2.2,Win32,59.88023952,613e79bab4ffe7389bb2a20c,65d2b6c8f2eece985d8e374c,65d2b8d4c91a54bf0c27c893,0.0337,0.0337,0,126,126,2,1,twoone,,,,,,,,,,,,,,,,,,,,,,,,,,,,,,,,,,,,,,,,,,,,,,,,,,,,,,,,,,,,,,,,,,,,,,,,,,,,,,,,,,,,,,,,,,,,,,,,,,,,,,,,,,,,,,,,,,,,,,,,,,,,,,,,,,,,,,,,,
,,613e79bab4ffe7389bb2a20c,2024-02-18_20h12.09.960,kallum_motion_pilot,2023.2.2,Win32,59.88023952,613e79bab4ffe7389bb2a20c,65d2b6c8f2eece985d8e374c,65d2b8d4c91a54bf0c27c893,0.0338,0.0339,0,127,127,48,1,onetwo,,,,,,,,,,,,,,,,,,,,,,,,,,,,,,,,,,,,,,,,,,,,,,,,,,,,,,,,,,,,,,,,,,,,,,,,,,,,,,,,,,,,,,,,,,,,,,,,,,,,,,,,,,,,,,,,,,,,,,,,,,,,,,,,,,,,,,,,,
,,613e79bab4ffe7389bb2a20c,2024-02-18_20h12.09.960,kallum_motion_pilot,2023.2.2,Win32,59.88023952,613e79bab4ffe7389bb2a20c,65d2b6c8f2eece985d8e374c,65d2b8d4c91a54bf0c27c893,0.0339,0.0339,0,128,128,136,1,fivesix,,,,,,,,,,,,,,,,,,,,,,,,,,,,,,,,,,,,,,,,,,,,,,,,,,,,,,,,,,,,,,,,,,,,,,,,,,,,,,,,,,,,,,,,,,,,,,,,,,,,,,,,,,,,,,,,,,,,,,,,,,,,,,,,,,,,,,,,,
,,613e79bab4ffe7389bb2a20c,2024-02-18_20h12.09.960,kallum_motion_pilot,2023.2.2,Win32,59.88023952,613e79bab4ffe7389bb2a20c,65d2b6c8f2eece985d8e374c,65d2b8d4c91a54bf0c27c893,0.034,0.034,0,129,129,135,1,eightseven,,,,,,,,,,,,,,,,,,,,,,,,,,,,,,,,,,,,,,,,,,,,,,,,,,,,,,,,,,,,,,,,,,,,,,,,,,,,,,,,,,,,,,,,,,,,,,,,,,,,,,,,,,,,,,,,,,,,,,,,,,,,,,,,,,,,,,,,,
,,613e79bab4ffe7389bb2a20c,2024-02-18_20h12.09.960,kallum_motion_pilot,2023.2.2,Win32,59.88023952,613e79bab4ffe7389bb2a20c,65d2b6c8f2eece985d8e374c,65d2b8d4c91a54bf0c27c893,0.0341,0.0342,0,130,130,93,1,seveneight,,,,,,,,,,,,,,,,,,,,,,,,,,,,,,,,,,,,,,,,,,,,,,,,,,,,,,,,,,,,,,,,,,,,,,,,,,,,,,,,,,,,,,,,,,,,,,,,,,,,,,,,,,,,,,,,,,,,,,,,,,,,,,,,,,,,,,,,,
,,613e79bab4ffe7389bb2a20c,2024-02-18_20h12.09.960,kallum_motion_pilot,2023.2.2,Win32,59.88023952,613e79bab4ffe7389bb2a20c,65d2b6c8f2eece985d8e374c,65d2b8d4c91a54bf0c27c893,0.0342,0.0343,0,131,131,161,1,fiveseven,,,,,,,,,,,,,,,,,,,,,,,,,,,,,,,,,,,,,,,,,,,,,,,,,,,,,,,,,,,,,,,,,,,,,,,,,,,,,,,,,,,,,,,,,,,,,,,,,,,,,,,,,,,,,,,,,,,,,,,,,,,,,,,,,,,,,,,,,
,,613e79bab4ffe7389bb2a20c,2024-02-18_20h12.09.960,kallum_motion_pilot,2023.2.2,Win32,59.88023952,613e79bab4ffe7389bb2a20c,65d2b6c8f2eece985d8e374c,65d2b8d4c91a54bf0c27c893,0.0343,0.0343,0,132,132,61,1,threefour,,,,,,,,,,,,,,,,,,,,,,,,,,,,,,,,,,,,,,,,,,,,,,,,,,,,,,,,,,,,,,,,,,,,,,,,,,,,,,,,,,,,,,,,,,,,,,,,,,,,,,,,,,,,,,,,,,,,,,,,,,,,,,,,,,,,,,,,,
,,613e79bab4ffe7389bb2a20c,2024-02-18_20h12.09.960,kallum_motion_pilot,2023.2.2,Win32,59.88023952,613e79bab4ffe7389bb2a20c,65d2b6c8f2eece985d8e374c,65d2b8d4c91a54bf0c27c893,0.0344,0.0345,0,133,133,7,1,fourthree,,,,,,,,,,,,,,,,,,,,,,,,,,,,,,,,,,,,,,,,,,,,,,,,,,,,,,,,,,,,,,,,,,,,,,,,,,,,,,,,,,,,,,,,,,,,,,,,,,,,,,,,,,,,,,,,,,,,,,,,,,,,,,,,,,,,,,,,,
,,613e79bab4ffe7389bb2a20c,2024-02-18_20h12.09.960,kallum_motion_pilot,2023.2.2,Win32,59.88023952,613e79bab4ffe7389bb2a20c,65d2b6c8f2eece985d8e374c,65d2b8d4c91a54bf0c27c893,0.0345,0.0345,0,134,134,74,1,twoone,,,,,,,,,,,,,,,,,,,,,,,,,,,,,,,,,,,,,,,,,,,,,,,,,,,,,,,,,,,,,,,,,,,,,,,,,,,,,,,,,,,,,,,,,,,,,,,,,,,,,,,,,,,,,,,,,,,,,,,,,,,,,,,,,,,,,,,,,
,,613e79bab4ffe7389bb2a20c,2024-02-18_20h12.09.960,kallum_motion_pilot,2023.2.2,Win32,59.88023952,613e79bab4ffe7389bb2a20c,65d2b6c8f2eece985d8e374c,65d2b8d4c91a54bf0c27c893,0.0346,0.0346,0,135,135,9,1,onethree,,,,,,,,,,,,,,,,,,,,,,,,,,,,,,,,,,,,,,,,,,,,,,,,,,,,,,,,,,,,,,,,,,,,,,,,,,,,,,,,,,,,,,,,,,,,,,,,,,,,,,,,,,,,,,,,,,,,,,,,,,,,,,,,,,,,,,,,,
,,613e79bab4ffe7389bb2a20c,2024-02-18_20h12.09.960,kallum_motion_pilot,2023.2.2,Win32,59.88023952,613e79bab4ffe7389bb2a20c,65d2b6c8f2eece985d8e374c,65d2b8d4c91a54bf0c27c893,0.0346,0.0347,0,136,136,33,1,onethree,,,,,,,,,,,,,,,,,,,,,,,,,,,,,,,,,,,,,,,,,,,,,,,,,,,,,,,,,,,,,,,,,,,,,,,,,,,,,,,,,,,,,,,,,,,,,,,,,,,,,,,,,,,,,,,,,,,,,,,,,,,,,,,,,,,,,,,,,
,,613e79bab4ffe7389bb2a20c,2024-02-18_20h12.09.960,kallum_motion_pilot,2023.2.2,Win32,59.88023952,613e79bab4ffe7389bb2a20c,65d2b6c8f2eece985d8e374c,65d2b8d4c91a54bf0c27c893,0.0348,0.0348,0,137,137,142,1,eightsix,,,,,,,,,,,,,,,,,,,,,,,,,,,,,,,,,,,,,,,,,,,,,,,,,,,,,,,,,,,,,,,,,,,,,,,,,,,,,,,,,,,,,,,,,,,,,,,,,,,,,,,,,,,,,,,,,,,,,,,,,,,,,,,,,,,,,,,,,
,,613e79bab4ffe7389bb2a20c,2024-02-18_20h12.09.960,kallum_motion_pilot,2023.2.2,Win32,59.88023952,613e79bab4ffe7389bb2a20c,65d2b6c8f2eece985d8e374c,65d2b8d4c91a54bf0c27c893,0.0349,0.0349,0,138,138,65,1,onethree,,,,,,,,,,,,,,,,,,,,,,,,,,,,,,,,,,,,,,,,,,,,,,,,,,,,,,,,,,,,,,,,,,,,,,,,,,,,,,,,,,,,,,,,,,,,,,,,,,,,,,,,,,,,,,,,,,,,,,,,,,,,,,,,,,,,,,,,,
,,613e79bab4ffe7389bb2a20c,2024-02-18_20h12.09.960,kallum_motion_pilot,2023.2.2,Win32,59.88023952,613e79bab4ffe7389bb2a20c,65d2b6c8f2eece985d8e374c,65d2b8d4c91a54bf0c27c893,0.035,0.0351,0,139,139,100,1,sevenfive,,,,,,,,,,,,,,,,,,,,,,,,,,,,,,,,,,,,,,,,,,,,,,,,,,,,,,,,,,,,,,,,,,,,,,,,,,,,,,,,,,,,,,,,,,,,,,,,,,,,,,,,,,,,,,,,,,,,,,,,,,,,,,,,,,,,,,,,,
,,613e79bab4ffe7389bb2a20c,2024-02-18_20h12.09.960,kallum_motion_pilot,2023.2.2,Win32,59.88023952,613e79bab4ffe7389bb2a20c,65d2b6c8f2eece985d8e374c,65d2b8d4c91a54bf0c27c893,0.0351,0.0351,0,140,140,105,1,fiveseven,,,,,,,,,,,,,,,,,,,,,,,,,,,,,,,,,,,,,,,,,,,,,,,,,,,,,,,,,,,,,,,,,,,,,,,,,,,,,,,,,,,,,,,,,,,,,,,,,,,,,,,,,,,,,,,,,,,,,,,,,,,,,,,,,,,,,,,,,
,,613e79bab4ffe7389bb2a20c,2024-02-18_20h12.09.960,kallum_motion_pilot,2023.2.2,Win32,59.88023952,613e79bab4ffe7389bb2a20c,65d2b6c8f2eece985d8e374c,65d2b8d4c91a54bf0c27c893,0.0352,0.0352,0,141,141,4,1,threeone,,,,,,,,,,,,,,,,,,,,,,,,,,,,,,,,,,,,,,,,,,,,,,,,,,,,,,,,,,,,,,,,,,,,,,,,,,,,,,,,,,,,,,,,,,,,,,,,,,,,,,,,,,,,,,,,,,,,,,,,,,,,,,,,,,,,,,,,,
,,613e79bab4ffe7389bb2a20c,2024-02-18_20h12.09.960,kallum_motion_pilot,2023.2.2,Win32,59.88023952,613e79bab4ffe7389bb2a20c,65d2b6c8f2eece985d8e374c,65d2b8d4c91a54bf0c27c893,0.0353,0.0353,0,142,142,123,1,sixeight,,,,,,,,,,,,,,,,,,,,,,,,,,,,,,,,,,,,,,,,,,,,,,,,,,,,,,,,,,,,,,,,,,,,,,,,,,,,,,,,,,,,,,,,,,,,,,,,,,,,,,,,,,,,,,,,,,,,,,,,,,,,,,,,,,,,,,,,,
,,613e79bab4ffe7389bb2a20c,2024-02-18_20h12.09.960,kallum_motion_pilot,2023.2.2,Win32,59.88023952,613e79bab4ffe7389bb2a20c,65d2b6c8f2eece985d8e374c,65d2b8d4c91a54bf0c27c893,0.0354,0.0354,0,143,143,109,1,seveneight,,,,,,,,,,,,,,,,,,,,,,,,,,,,,,,,,,,,,,,,,,,,,,,,,,,,,,,,,,,,,,,,,,,,,,,,,,,,,,,,,,,,,,,,,,,,,,,,,,,,,,,,,,,,,,,,,,,,,,,,,,,,,,,,,,,,,,,,,
,,613e79bab4ffe7389bb2a20c,2024-02-18_20h12.09.960,kallum_motion_pilot,2023.2.2,Win32,59.88023952,613e79bab4ffe7389bb2a20c,65d2b6c8f2eece985d8e374c,65d2b8d4c91a54bf0c27c893,0.0355,0.0355,0,144,144,59,1,twofour,,,,,,,,,,,,,,,,,,,,,,,,,,,,,,,,,,,,,,,,,,,,,,,,,,,,,,,,,,,,,,,,,,,,,,,,,,,,,,,,,,,,,,,,,,,,,,,,,,,,,,,,,,,,,,,,,,,,,,,,,,,,,,,,,,,,,,,,,
,,613e79bab4ffe7389bb2a20c,2024-02-18_20h12.09.960,kallum_motion_pilot,2023.2.2,Win32,59.88023952,613e79bab4ffe7389bb2a20c,65d2b6c8f2eece985d8e374c,65d2b8d4c91a54bf0c27c893,0.0355,0.0356,0,145,145,107,1,sixeight,,,,,,,,,,,,,,,,,,,,,,,,,,,,,,,,,,,,,,,,,,,,,,,,,,,,,,,,,,,,,,,,,,,,,,,,,,,,,,,,,,,,,,,,,,,,,,,,,,,,,,,,,,,,,,,,,,,,,,,,,,,,,,,,,,,,,,,,,
,,613e79bab4ffe7389bb2a20c,2024-02-18_20h12.09.960,kallum_motion_pilot,2023.2.2,Win32,59.88023952,613e79bab4ffe7389bb2a20c,65d2b6c8f2eece985d8e374c,65d2b8d4c91a54bf0c27c893,0.0357,0.0358,0,146,146,145,1,fiveseven,,,,,,,,,,,,,,,,,,,,,,,,,,,,,,,,,,,,,,,,,,,,,,,,,,,,,,,,,,,,,,,,,,,,,,,,,,,,,,,,,,,,,,,,,,,,,,,,,,,,,,,,,,,,,,,,,,,,,,,,,,,,,,,,,,,,,,,,,
,,613e79bab4ffe7389bb2a20c,2024-02-18_20h12.09.960,kallum_motion_pilot,2023.2.2,Win32,59.88023952,613e79bab4ffe7389bb2a20c,65d2b6c8f2eece985d8e374c,65d2b8d4c91a54bf0c27c893,0.0358,0.0359,0,147,147,154,1,sixfive,,,,,,,,,,,,,,,,,,,,,,,,,,,,,,,,,,,,,,,,,,,,,,,,,,,,,,,,,,,,,,,,,,,,,,,,,,,,,,,,,,,,,,,,,,,,,,,,,,,,,,,,,,,,,,,,,,,,,,,,,,,,,,,,,,,,,,,,,
,,613e79bab4ffe7389bb2a20c,2024-02-18_20h12.09.960,kallum_motion_pilot,2023.2.2,Win32,59.88023952,613e79bab4ffe7389bb2a20c,65d2b6c8f2eece985d8e374c,65d2b8d4c91a54bf0c27c893,0.0359,0.0359,0,148,148,128,1,fivesix,,,,,,,,,,,,,,,,,,,,,,,,,,,,,,,,,,,,,,,,,,,,,,,,,,,,,,,,,,,,,,,,,,,,,,,,,,,,,,,,,,,,,,,,,,,,,,,,,,,,,,,,,,,,,,,,,,,,,,,,,,,,,,,,,,,,,,,,,
,,613e79bab4ffe7389bb2a20c,2024-02-18_20h12.09.960,kallum_motion_pilot,2023.2.2,Win32,59.88023952,613e79bab4ffe7389bb2a20c,65d2b6c8f2eece985d8e374c,65d2b8d4c91a54bf0c27c893,0.036,0.036,0,149,149,114,1,sixfive,,,,,,,,,,,,,,,,,,,,,,,,,,,,,,,,,,,,,,,,,,,,,,,,,,,,,,,,,,,,,,,,,,,,,,,,,,,,,,,,,,,,,,,,,,,,,,,,,,,,,,,,,,,,,,,,,,,,,,,,,,,,,,,,,,,,,,,,,
,,613e79bab4ffe7389bb2a20c,2024-02-18_20h12.09.960,kallum_motion_pilot,2023.2.2,Win32,59.88023952,613e79bab4ffe7389bb2a20c,65d2b6c8f2eece985d8e374c,65d2b8d4c91a54bf0c27c893,0.0361,0.0362,0,150,150,102,1,eightsix,,,,,,,,,,,,,,,,,,,,,,,,,,,,,,,,,,,,,,,,,,,,,,,,,,,,,,,,,,,,,,,,,,,,,,,,,,,,,,,,,,,,,,,,,,,,,,,,,,,,,,,,,,,,,,,,,,,,,,,,,,,,,,,,,,,,,,,,,
,,613e79bab4ffe7389bb2a20c,2024-02-18_20h12.09.960,kallum_motion_pilot,2023.2.2,Win32,59.88023952,613e79bab4ffe7389bb2a20c,65d2b6c8f2eece985d8e374c,65d2b8d4c91a54bf0c27c893,0.0362,0.0362,0,151,151,44,1,threeone,,,,,,,,,,,,,,,,,,,,,,,,,,,,,,,,,,,,,,,,,,,,,,,,,,,,,,,,,,,,,,,,,,,,,,,,,,,,,,,,,,,,,,,,,,,,,,,,,,,,,,,,,,,,,,,,,,,,,,,,,,,,,,,,,,,,,,,,,
,,613e79bab4ffe7389bb2a20c,2024-02-18_20h12.09.960,kallum_motion_pilot,2023.2.2,Win32,59.88023952,613e79bab4ffe7389bb2a20c,65d2b6c8f2eece985d8e374c,65d2b8d4c91a54bf0c27c893,0.0363,0.0363,0,152,152,148,1,sevenfive,,,,,,,,,,,,,,,,,,,,,,,,,,,,,,,,,,,,,,,,,,,,,,,,,,,,,,,,,,,,,,,,,,,,,,,,,,,,,,,,,,,,,,,,,,,,,,,,,,,,,,,,,,,,,,,,,,,,,,,,,,,,,,,,,,,,,,,,,
,,613e79bab4ffe7389bb2a20c,2024-02-18_20h12.09.960,kallum_motion_pilot,2023.2.2,Win32,59.88023952,613e79bab4ffe7389bb2a20c,65d2b6c8f2eece985d8e374c,65d2b8d4c91a54bf0c27c893,0.0364,0.0364,0,153,153,63,1,fourthree,,,,,,,,,,,,,,,,,,,,,,,,,,,,,,,,,,,,,,,,,,,,,,,,,,,,,,,,,,,,,,,,,,,,,,,,,,,,,,,,,,,,,,,,,,,,,,,,,,,,,,,,,,,,,,,,,,,,,,,,,,,,,,,,,,,,,,,,,
,,613e79bab4ffe7389bb2a20c,2024-02-18_20h12.09.960,kallum_motion_pilot,2023.2.2,Win32,59.88023952,613e79bab4ffe7389bb2a20c,65d2b6c8f2eece985d8e374c,65d2b8d4c91a54bf0c27c893,0.0365,0.0365,0,154,154,76,1,threeone,,,,,,,,,,,,,,,,,,,,,,,,,,,,,,,,,,,,,,,,,,,,,,,,,,,,,,,,,,,,,,,,,,,,,,,,,,,,,,,,,,,,,,,,,,,,,,,,,,,,,,,,,,,,,,,,,,,,,,,,,,,,,,,,,,,,,,,,,
,,613e79bab4ffe7389bb2a20c,2024-02-18_20h12.09.960,kallum_motion_pilot,2023.2.2,Win32,59.88023952,613e79bab4ffe7389bb2a20c,65d2b6c8f2eece985d8e374c,65d2b8d4c91a54bf0c27c893,0.0366,0.0367,0,155,155,32,1,onetwo,,,,,,,,,,,,,,,,,,,,,,,,,,,,,,,,,,,,,,,,,,,,,,,,,,,,,,,,,,,,,,,,,,,,,,,,,,,,,,,,,,,,,,,,,,,,,,,,,,,,,,,,,,,,,,,,,,,,,,,,,,,,,,,,,,,,,,,,,
,,613e79bab4ffe7389bb2a20c,2024-02-18_20h12.09.960,kallum_motion_pilot,2023.2.2,Win32,59.88023952,613e79bab4ffe7389bb2a20c,65d2b6c8f2eece985d8e374c,65d2b8d4c91a54bf0c27c893,0.0367,0.0367,0,156,156,49,1,onethree,,,,,,,,,,,,,,,,,,,,,,,,,,,,,,,,,,,,,,,,,,,,,,,,,,,,,,,,,,,,,,,,,,,,,,,,,,,,,,,,,,,,,,,,,,,,,,,,,,,,,,,,,,,,,,,,,,,,,,,,,,,,,,,,,,,,,,,,,
,,613e79bab4ffe7389bb2a20c,2024-02-18_20h12.09.960,kallum_motion_pilot,2023.2.2,Win32,59.88023952,613e79bab4ffe7389bb2a20c,65d2b6c8f2eece985d8e374c,65d2b8d4c91a54bf0c27c893,0.0369,0.0369,0,157,157,110,1,eightsix,,,,,,,,,,,,,,,,,,,,,,,,,,,,,,,,,,,,,,,,,,,,,,,,,,,,,,,,,,,,,,,,,,,,,,,,,,,,,,,,,,,,,,,,,,,,,,,,,,,,,,,,,,,,,,,,,,,,,,,,,,,,,,,,,,,,,,,,,
,,613e79bab4ffe7389bb2a20c,2024-02-18_20h12.09.960,kallum_motion_pilot,2023.2.2,Win32,59.88023952,613e79bab4ffe7389bb2a20c,65d2b6c8f2eece985d8e374c,65d2b8d4c91a54bf0c27c893,0.0369,0.037,0,158,158,41,1,onethree,,,,,,,,,,,,,,,,,,,,,,,,,,,,,,,,,,,,,,,,,,,,,,,,,,,,,,,,,,,,,,,,,,,,,,,,,,,,,,,,,,,,,,,,,,,,,,,,,,,,,,,,,,,,,,,,,,,,,,,,,,,,,,,,,,,,,,,,,
,,613e79bab4ffe7389bb2a20c,2024-02-18_20h12.09.960,kallum_motion_pilot,2023.2.2,Win32,59.88023952,613e79bab4ffe7389bb2a20c,65d2b6c8f2eece985d8e374c,65d2b8d4c91a54bf0c27c893,0.037,0.0371,0,159,159,149,1,seveneight,,,,,,,,,,,,,,,,,,,,,,,,,,,,,,,,,,,,,,,,,,,,,,,,,,,,,,,,,,,,,,,,,,,,,,,,,,,,,,,,,,,,,,,,,,,,,,,,,,,,,,,,,,,,,,,,,,,,,,,,,,,,,,,,,,,,,,,,,
,,613e79bab4ffe7389bb2a20c,2024-02-18_20h12.09.960,kallum_motion_pilot,2023.2.2,Win32,59.88023952,613e79bab4ffe7389bb2a20c,65d2b6c8f2eece985d8e374c,65d2b8d4c91a54bf0c27c893,0.0371,0.0372,0,160,160,11,1,twofour,,,,,,,,,,,,,,,,,,,,,,,,,,,,,,,,,,,,,,,,,,,,,,,,,,,,,,,,,,,,,,,,,,,,,,,,,,,,,,,,,,,,,,,,,,,,,,,,,,,,,,,,,,,,,,,,,,,,,,,,,,,,,,,,,,,,,,,,,
,,613e79bab4ffe7389bb2a20c,2024-02-18_20h12.09.960,kallum_motion_pilot,2023.2.2,Win32,59.88023952,613e79bab4ffe7389bb2a20c,65d2b6c8f2eece985d8e374c,65d2b8d4c91a54bf0c27c893,0.0372,0.0372,0,161,161,34,1,twoone,,,,,,,,,,,,,,,,,,,,,,,,,,,,,,,,,,,,,,,,,,,,,,,,,,,,,,,,,,,,,,,,,,,,,,,,,,,,,,,,,,,,,,,,,,,,,,,,,,,,,,,,,,,,,,,,,,,,,,,,,,,,,,,,,,,,,,,,,
,,613e79bab4ffe7389bb2a20c,2024-02-18_20h12.09.960,kallum_motion_pilot,2023.2.2,Win32,59.88023952,613e79bab4ffe7389bb2a20c,65d2b6c8f2eece985d8e374c,65d2b8d4c91a54bf0c27c893,0.0374,0.0374,1,0,162,48,1,onetwo,,,,,,,,,,,,,,,,,,,,,,,,,,,,,,,,,,,,,,,,,,,,,,,,,,,,,,,,,,,,,,,,,,,,,,,,,,,,,,,,,,,,,,,,,,,,,,,,,,,,,,,,,,,,,,,,,,,,,,,,,,,,,,,,,,,,,,,,,
,,613e79bab4ffe7389bb2a20c,2024-02-18_20h12.09.960,kallum_motion_pilot,2023.2.2,Win32,59.88023952,613e79bab4ffe7389bb2a20c,65d2b6c8f2eece985d8e374c,65d2b8d4c91a54bf0c27c893,0.0375,0.0375,1,1,163,34,1,twoone,,,,,,,,,,,,,,,,,,,,,,,,,,,,,,,,,,,,,,,,,,,,,,,,,,,,,,,,,,,,,,,,,,,,,,,,,,,,,,,,,,,,,,,,,,,,,,,,,,,,,,,,,,,,,,,,,,,,,,,,,,,,,,,,,,,,,,,,,
,,613e79bab4ffe7389bb2a20c,2024-02-18_20h12.09.960,kallum_motion_pilot,2023.2.2,Win32,59.88023952,613e79bab4ffe7389bb2a20c,65d2b6c8f2eece985d8e374c,65d2b8d4c91a54bf0c27c893,0.0375,0.0376,1,2,164,80,1,fivesix,,,,,,,,,,,,,,,,,,,,,,,,,,,,,,,,,,,,,,,,,,,,,,,,,,,,,,,,,,,,,,,,,,,,,,,,,,,,,,,,,,,,,,,,,,,,,,,,,,,,,,,,,,,,,,,,,,,,,,,,,,,,,,,,,,,,,,,,,
,,613e79bab4ffe7389bb2a20c,2024-02-18_20h12.09.960,kallum_motion_pilot,2023.2.2,Win32,59.88023952,613e79bab4ffe7389bb2a20c,65d2b6c8f2eece985d8e374c,65d2b8d4c91a54bf0c27c893,0.0376,0.0377,1,3,165,31,1,fourthree,,,,,,,,,,,,,,,,,,,,,,,,,,,,,,,,,,,,,,,,,,,,,,,,,,,,,,,,,,,,,,,,,,,,,,,,,,,,,,,,,,,,,,,,,,,,,,,,,,,,,,,,,,,,,,,,,,,,,,,,,,,,,,,,,,,,,,,,,
,,613e79bab4ffe7389bb2a20c,2024-02-18_20h12.09.960,kallum_motion_pilot,2023.2.2,Win32,59.88023952,613e79bab4ffe7389bb2a20c,65d2b6c8f2eece985d8e374c,65d2b8d4c91a54bf0c27c893,0.0378,0.0379,1,4,166,72,1,onetwo,,,,,,,,,,,,,,,,,,,,,,,,,,,,,,,,,,,,,,,,,,,,,,,,,,,,,,,,,,,,,,,,,,,,,,,,,,,,,,,,,,,,,,,,,,,,,,,,,,,,,,,,,,,,,,,,,,,,,,,,,,,,,,,,,,,,,,,,,
,,613e79bab4ffe7389bb2a20c,2024-02-18_20h12.09.960,kallum_motion_pilot,2023.2.2,Win32,59.88023952,613e79bab4ffe7389bb2a20c,65d2b6c8f2eece985d8e374c,65d2b8d4c91a54bf0c27c893,0.0379,0.038,1,5,167,32,1,onetwo,,,,,,,,,,,,,,,,,,,,,,,,,,,,,,,,,,,,,,,,,,,,,,,,,,,,,,,,,,,,,,,,,,,,,,,,,,,,,,,,,,,,,,,,,,,,,,,,,,,,,,,,,,,,,,,,,,,,,,,,,,,,,,,,,,,,,,,,,
,,613e79bab4ffe7389bb2a20c,2024-02-18_20h12.09.960,kallum_motion_pilot,2023.2.2,Win32,59.88023952,613e79bab4ffe7389bb2a20c,65d2b6c8f2eece985d8e374c,65d2b8d4c91a54bf0c27c893,0.038,0.038,1,6,168,29,1,threefour,,,,,,,,,,,,,,,,,,,,,,,,,,,,,,,,,,,,,,,,,,,,,,,,,,,,,,,,,,,,,,,,,,,,,,,,,,,,,,,,,,,,,,,,,,,,,,,,,,,,,,,,,,,,,,,,,,,,,,,,,,,,,,,,,,,,,,,,,
,,613e79bab4ffe7389bb2a20c,2024-02-18_20h12.09.960,kallum_motion_pilot,2023.2.2,Win32,59.88023952,613e79bab4ffe7389bb2a20c,65d2b6c8f2eece985d8e374c,65d2b8d4c91a54bf0c27c893,0.0381,0.0381,1,7,169,65,1,onethree,,,,,,,,,,,,,,,,,,,,,,,,,,,,,,,,,,,,,,,,,,,,,,,,,,,,,,,,,,,,,,,,,,,,,,,,,,,,,,,,,,,,,,,,,,,,,,,,,,,,,,,,,,,,,,,,,,,,,,,,,,,,,,,,,,,,,,,,,
,,613e79bab4ffe7389bb2a20c,2024-02-18_20h12.09.960,kallum_motion_pilot,2023.2.2,Win32,59.88023952,613e79bab4ffe7389bb2a20c,65d2b6c8f2eece985d8e374c,65d2b8d4c91a54bf0c27c893,0.0381,0.0382,1,8,170,17,1,onethree,,,,,,,,,,,,,,,,,,,,,,,,,,,,,,,,,,,,,,,,,,,,,,,,,,,,,,,,,,,,,,,,,,,,,,,,,,,,,,,,,,,,,,,,,,,,,,,,,,,,,,,,,,,,,,,,,,,,,,,,,,,,,,,,,,,,,,,,,
,,613e79bab4ffe7389bb2a20c,2024-02-18_20h12.09.960,kallum_motion_pilot,2023.2.2,Win32,59.88023952,613e79bab4ffe7389bb2a20c,65d2b6c8f2eece985d8e374c,65d2b8d4c91a54bf0c27c893,0.0386,0.0386,1,9,171,125,1,seveneight,,,,,,,,,,,,,,,,,,,,,,,,,,,,,,,,,,,,,,,,,,,,,,,,,,,,,,,,,,,,,,,,,,,,,,,,,,,,,,,,,,,,,,,,,,,,,,,,,,,,,,,,,,,,,,,,,,,,,,,,,,,,,,,,,,,,,,,,,
,,613e79bab4ffe7389bb2a20c,2024-02-18_20h12.09.960,kallum_motion_pilot,2023.2.2,Win32,59.88023952,613e79bab4ffe7389bb2a20c,65d2b6c8f2eece985d8e374c,65d2b8d4c91a54bf0c27c893,0.0387,0.0388,1,10,172,82,1,sixfive,,,,,,,,,,,,,,,,,,,,,,,,,,,,,,,,,,,,,,,,,,,,,,,,,,,,,,,,,,,,,,,,,,,,,,,,,,,,,,,,,,,,,,,,,,,,,,,,,,,,,,,,,,,,,,,,,,,,,,,,,,,,,,,,,,,,,,,,,
,,613e79bab4ffe7389bb2a20c,2024-02-18_20h12.09.960,kallum_motion_pilot,2023.2.2,Win32,59.88023952,613e79bab4ffe7389bb2a20c,65d2b6c8f2eece985d8e374c,65d2b8d4c91a54bf0c27c893,0.0388,0.0388,1,11,173,149,1,seveneight,,,,,,,,,,,,,,,,,,,,,,,,,,,,,,,,,,,,,,,,,,,,,,,,,,,,,,,,,,,,,,,,,,,,,,,,,,,,,,,,,,,,,,,,,,,,,,,,,,,,,,,,,,,,,,,,,,,,,,,,,,,,,,,,,,,,,,,,,
,,613e79bab4ffe7389bb2a20c,2024-02-18_20h12.09.960,kallum_motion_pilot,2023.2.2,Win32,59.88023952,613e79bab4ffe7389bb2a20c,65d2b6c8f2eece985d8e374c,65d2b8d4c91a54bf0c27c893,0.0388,0.0389,1,12,174,68,1,threeone,,,,,,,,,,,,,,,,,,,,,,,,,,,,,,,,,,,,,,,,,,,,,,,,,,,,,,,,,,,,,,,,,,,,,,,,,,,,,,,,,,,,,,,,,,,,,,,,,,,,,,,,,,,,,,,,,,,,,,,,,,,,,,,,,,,,,,,,,
,,613e79bab4ffe7389bb2a20c,2024-02-18_20h12.09.960,kallum_motion_pilot,2023.2.2,Win32,59.88023952,613e79bab4ffe7389bb2a20c,65d2b6c8f2eece985d8e374c,65d2b8d4c91a54bf0c27c893,0.039,0.039,1,13,175,110,1,eightsix,,,,,,,,,,,,,,,,,,,,,,,,,,,,,,,,,,,,,,,,,,,,,,,,,,,,,,,,,,,,,,,,,,,,,,,,,,,,,,,,,,,,,,,,,,,,,,,,,,,,,,,,,,,,,,,,,,,,,,,,,,,,,,,,,,,,,,,,,
,,613e79bab4ffe7389bb2a20c,2024-02-18_20h12.09.960,kallum_motion_pilot,2023.2.2,Win32,59.88023952,613e79bab4ffe7389bb2a20c,65d2b6c8f2eece985d8e374c,65d2b8d4c91a54bf0c27c893,0.0391,0.0392,1,14,176,147,1,sixeight,,,,,,,,,,,,,,,,,,,,,,,,,,,,,,,,,,,,,,,,,,,,,,,,,,,,,,,,,,,,,,,,,,,,,,,,,,,,,,,,,,,,,,,,,,,,,,,,,,,,,,,,,,,,,,,,,,,,,,,,,,,,,,,,,,,,,,,,,
,,613e79bab4ffe7389bb2a20c,2024-02-18_20h12.09.960,kallum_motion_pilot,2023.2.2,Win32,59.88023952,613e79bab4ffe7389bb2a20c,65d2b6c8f2eece985d8e374c,65d2b8d4c91a54bf0c27c893,0.0392,0.0392,1,15,177,155,1,sixeight,,,,,,,,,,,,,,,,,,,,,,,,,,,,,,,,,,,,,,,,,,,,,,,,,,,,,,,,,,,,,,,,,,,,,,,,,,,,,,,,,,,,,,,,,,,,,,,,,,,,,,,,,,,,,,,,,,,,,,,,,,,,,,,,,,,,,,,,,
,,613e79bab4ffe7389bb2a20c,2024-02-18_20h12.09.960,kallum_motion_pilot,2023.2.2,Win32,59.88023952,613e79bab4ffe7389bb2a20c,65d2b6c8f2eece985d8e374c,65d2b8d4c91a54bf0c27c893,0.0393,0.0394,1,16,178,101,1,seveneight,,,,,,,,,,,,,,,,,,,,,,,,,,,,,,,,,,,,,,,,,,,,,,,,,,,,,,,,,,,,,,,,,,,,,,,,,,,,,,,,,,,,,,,,,,,,,,,,,,,,,,,,,,,,,,,,,,,,,,,,,,,,,,,,,,,,,,,,,
,,613e79bab4ffe7389bb2a20c,2024-02-18_20h12.09.960,kallum_motion_pilot,2023.2.2,Win32,59.88023952,613e79bab4ffe7389bb2a20c,65d2b6c8f2eece985d8e374c,65d2b8d4c91a54bf0c27c893,0.0394,0.0395,1,17,179,24,1,onetwo,,,,,,,,,,,,,,,,,,,,,,,,,,,,,,,,,,,,,,,,,,,,,,,,,,,,,,,,,,,,,,,,,,,,,,,,,,,,,,,,,,,,,,,,,,,,,,,,,,,,,,,,,,,,,,,,,,,,,,,,,,,,,,,,,,,,,,,,,
,,613e79bab4ffe7389bb2a20c,2024-02-18_20h12.09.960,kallum_motion_pilot,2023.2.2,Win32,59.88023952,613e79bab4ffe7389bb2a20c,65d2b6c8f2eece985d8e374c,65d2b8d4c91a54bf0c27c893,0.0395,0.0396,1,18,180,102,1,eightsix,,,,,,,,,,,,,,,,,,,,,,,,,,,,,,,,,,,,,,,,,,,,,,,,,,,,,,,,,,,,,,,,,,,,,,,,,,,,,,,,,,,,,,,,,,,,,,,,,,,,,,,,,,,,,,,,,,,,,,,,,,,,,,,,,,,,,,,,,
,,613e79bab4ffe7389bb2a20c,2024-02-18_20h12.09.960,kallum_motion_pilot,2023.2.2,Win32,59.88023952,613e79bab4ffe7389bb2a20c,65d2b6c8f2eece985d8e374c,65d2b8d4c91a54bf0c27c893,0.0397,0.0397,1,19,181,54,1,fourtwo,,,,,,,,,,,,,,,,,,,,,,,,,,,,,,,,,,,,,,,,,,,,,,,,,,,,,,,,,,,,,,,,,,,,,,,,,,,,,,,,,,,,,,,,,,,,,,,,,,,,,,,,,,,,,,,,,,,,,,,,,,,,,,,,,,,,,,,,,
,,613e79bab4ffe7389bb2a20c,2024-02-18_20h12.09.960,kallum_motion_pilot,2023.2.2,Win32,59.88023952,613e79bab4ffe7389bb2a20c,65d2b6c8f2eece985d8e374c,65d2b8d4c91a54bf0c27c893,0.0397,0.0397,1,20,182,146,1,sixfive,,,,,,,,,,,,,,,,,,,,,,,,,,,,,,,,,,,,,,,,,,,,,,,,,,,,,,,,,,,,,,,,,,,,,,,,,,,,,,,,,,,,,,,,,,,,,,,,,,,,,,,,,,,,,,,,,,,,,,,,,,,,,,,,,,,,,,,,,
,,613e79bab4ffe7389bb2a20c,2024-02-18_20h12.09.960,kallum_motion_pilot,2023.2.2,Win32,59.88023952,613e79bab4ffe7389bb2a20c,65d2b6c8f2eece985d8e374c,65d2b8d4c91a54bf0c27c893,0.0399,0.0399,1,21,183,106,1,sixfive,,,,,,,,,,,,,,,,,,,,,,,,,,,,,,,,,,,,,,,,,,,,,,,,,,,,,,,,,,,,,,,,,,,,,,,,,,,,,,,,,,,,,,,,,,,,,,,,,,,,,,,,,,,,,,,,,,,,,,,,,,,,,,,,,,,,,,,,,
,,613e79bab4ffe7389bb2a20c,2024-02-18_20h12.09.960,kallum_motion_pilot,2023.2.2,Win32,59.88023952,613e79bab4ffe7389bb2a20c,65d2b6c8f2eece985d8e374c,65d2b8d4c91a54bf0c27c893,0.04,0.0401,1,22,184,100,1,sevenfive,,,,,,,,,,,,,,,,,,,,,,,,,,,,,,,,,,,,,,,,,,,,,,,,,,,,,,,,,,,,,,,,,,,,,,,,,,,,,,,,,,,,,,,,,,,,,,,,,,,,,,,,,,,,,,,,,,,,,,,,,,,,,,,,,,,,,,,,,
,,613e79bab4ffe7389bb2a20c,2024-02-18_20h12.09.960,kallum_motion_pilot,2023.2.2,Win32,59.88023952,613e79bab4ffe7389bb2a20c,65d2b6c8f2eece985d8e374c,65d2b8d4c91a54bf0c27c893,0.0401,0.0401,1,23,185,138,1,sixfive,,,,,,,,,,,,,,,,,,,,,,,,,,,,,,,,,,,,,,,,,,,,,,,,,,,,,,,,,,,,,,,,,,,,,,,,,,,,,,,,,,,,,,,,,,,,,,,,,,,,,,,,,,,,,,,,,,,,,,,,,,,,,,,,,,,,,,,,,
,,613e79bab4ffe7389bb2a20c,2024-02-18_20h12.09.960,kallum_motion_pilot,2023.2.2,Win32,59.88023952,613e79bab4ffe7389bb2a20c,65d2b6c8f2eece985d8e374c,65d2b8d4c91a54bf0c27c893,0.0402,0.0402,1,24,186,49,1,onethree,,,,,,,,,,,,,,,,,,,,,,,,,,,,,,,,,,,,,,,,,,,,,,,,,,,,,,,,,,,,,,,,,,,,,,,,,,,,,,,,,,,,,,,,,,,,,,,,,,,,,,,,,,,,,,,,,,,,,,,,,,,,,,,,,,,,,,,,,
,,613e79bab4ffe7389bb2a20c,2024-02-18_20h12.09.960,kallum_motion_pilot,2023.2.2,Win32,59.88023952,613e79bab4ffe7389bb2a20c,65d2b6c8f2eece985d8e374c,65d2b8d4c91a54bf0c27c893,0.0404,0.0404,1,25,187,63,1,fourthree,,,,,,,,,,,,,,,,,,,,,,,,,,,,,,,,,,,,,,,,,,,,,,,,,,,,,,,,,,,,,,,,,,,,,,,,,,,,,,,,,,,,,,,,,,,,,,,,,,,,,,,,,,,,,,,,,,,,,,,,,,,,,,,,,,,,,,,,,
,,613e79bab4ffe7389bb2a20c,2024-02-18_20h12.09.960,kallum_motion_pilot,2023.2.2,Win32,59.88023952,613e79bab4ffe7389bb2a20c,65d2b6c8f2eece985d8e374c,65d2b8d4c91a54bf0c27c893,0.0405,0.0405,1,26,188,160,1,fivesix,,,,,,,,,,,,,,,,,,,,,,,,,,,,,,,,,,,,,,,,,,,,,,,,,,,,,,,,,,,,,,,,,,,,,,,,,,,,,,,,,,,,,,,,,,,,,,,,,,,,,,,,,,,,,,,,,,,,,,,,,,,,,,,,,,,,,,,,,
,,613e79bab4ffe7389bb2a20c,2024-02-18_20h12.09.960,kallum_motion_pilot,2023.2.2,Win32,59.88023952,613e79bab4ffe7389bb2a20c,65d2b6c8f2eece985d8e374c,65d2b8d4c91a54bf0c27c893,0.0406,0.0406,1,27,189,9,1,onethree,,,,,,,,,,,,,,,,,,,,,,,,,,,,,,,,,,,,,,,,,,,,,,,,,,,,,,,,,,,,,,,,,,,,,,,,,,,,,,,,,,,,,,,,,,,,,,,,,,,,,,,,,,,,,,,,,,,,,,,,,,,,,,,,,,,,,,,,,
,,613e79bab4ffe7389bb2a20c,2024-02-18_20h12.09.960,kallum_motion_pilot,2023.2.2,Win32,59.88023952,613e79bab4ffe7389bb2a20c,65d2b6c8f2eece985d8e374c,65d2b8d4c91a54bf0c27c893,0.0406,0.0407,1,28,190,116,1,sevenfive,,,,,,,,,,,,,,,,,,,,,,,,,,,,,,,,,,,,,,,,,,,,,,,,,,,,,,,,,,,,,,,,,,,,,,,,,,,,,,,,,,,,,,,,,,,,,,,,,,,,,,,,,,,,,,,,,,,,,,,,,,,,,,,,,,,,,,,,,
,,613e79bab4ffe7389bb2a20c,2024-02-18_20h12.09.960,kallum_motion_pilot,2023.2.2,Win32,59.88023952,613e79bab4ffe7389bb2a20c,65d2b6c8f2eece985d8e374c,65d2b8d4c91a54bf0c27c893,0.0408,0.0409,1,29,191,105,1,fiveseven,,,,,,,,,,,,,,,,,,,,,,,,,,,,,,,,,,,,,,,,,,,,,,,,,,,,,,,,,,,,,,,,,,,,,,,,,,,,,,,,,,,,,,,,,,,,,,,,,,,,,,,,,,,,,,,,,,,,,,,,,,,,,,,,,,,,,,,,,
,,613e79bab4ffe7389bb2a20c,2024-02-18_20h12.09.960,kallum_motion_pilot,2023.2.2,Win32,59.88023952,613e79bab4ffe7389bb2a20c,65d2b6c8f2eece985d8e374c,65d2b8d4c91a54bf0c27c893,0.0409,0.0409,1,30,192,37,1,threefour,,,,,,,,,,,,,,,,,,,,,,,,,,,,,,,,,,,,,,,,,,,,,,,,,,,,,,,,,,,,,,,,,,,,,,,,,,,,,,,,,,,,,,,,,,,,,,,,,,,,,,,,,,,,,,,,,,,,,,,,,,,,,,,,,,,,,,,,,
,,613e79bab4ffe7389bb2a20c,2024-02-18_20h12.09.960,kallum_motion_pilot,2023.2.2,Win32,59.88023952,613e79bab4ffe7389bb2a20c,65d2b6c8f2eece985d8e374c,65d2b8d4c91a54bf0c27c893,0.041,0.041,1,31,193,27,1,twofour,,,,,,,,,,,,,,,,,,,,,,,,,,,,,,,,,,,,,,,,,,,,,,,,,,,,,,,,,,,,,,,,,,,,,,,,,,,,,,,,,,,,,,,,,,,,,,,,,,,,,,,,,,,,,,,,,,,,,,,,,,,,,,,,,,,,,,,,,
,,613e79bab4ffe7389bb2a20c,2024-02-18_20h12.09.960,kallum_motion_pilot,2023.2.2,Win32,59.88023952,613e79bab4ffe7389bb2a20c,65d2b6c8f2eece985d8e374c,65d2b8d4c91a54bf0c27c893,0.0411,0.0411,1,32,194,41,1,onethree,,,,,,,,,,,,,,,,,,,,,,,,,,,,,,,,,,,,,,,,,,,,,,,,,,,,,,,,,,,,,,,,,,,,,,,,,,,,,,,,,,,,,,,,,,,,,,,,,,,,,,,,,,,,,,,,,,,,,,,,,,,,,,,,,,,,,,,,,
,,613e79bab4ffe7389bb2a20c,2024-02-18_20h12.09.960,kallum_motion_pilot,2023.2.2,Win32,59.88023952,613e79bab4ffe7389bb2a20c,65d2b6c8f2eece985d8e374c,65d2b8d4c91a54bf0c27c893,0.0412,0.0413,1,33,195,154,1,sixfive,,,,,,,,,,,,,,,,,,,,,,,,,,,,,,,,,,,,,,,,,,,,,,,,,,,,,,,,,,,,,,,,,,,,,,,,,,,,,,,,,,,,,,,,,,,,,,,,,,,,,,,,,,,,,,,,,,,,,,,,,,,,,,,,,,,,,,,,,
,,613e79bab4ffe7389bb2a20c,2024-02-18_20h12.09.960,kallum_motion_pilot,2023.2.2,Win32,59.88023952,613e79bab4ffe7389bb2a20c,65d2b6c8f2eece985d8e374c,65d2b8d4c91a54bf0c27c893,0.0413,0.0413,1,34,196,10,1,twoone,,,,,,,,,,,,,,,,,,,,,,,,,,,,,,,,,,,,,,,,,,,,,,,,,,,,,,,,,,,,,,,,,,,,,,,,,,,,,,,,,,,,,,,,,,,,,,,,,,,,,,,,,,,,,,,,,,,,,,,,,,,,,,,,,,,,,,,,,
,,613e79bab4ffe7389bb2a20c,2024-02-18_20h12.09.960,kallum_motion_pilot,2023.2.2,Win32,59.88023952,613e79bab4ffe7389bb2a20c,65d2b6c8f2eece985d8e374c,65d2b8d4c91a54bf0c27c893,0.0415,0.0415,1,35,197,15,1,fourthree,,,,,,,,,,,,,,,,,,,,,,,,,,,,,,,,,,,,,,,,,,,,,,,,,,,,,,,,,,,,,,,,,,,,,,,,,,,,,,,,,,,,,,,,,,,,,,,,,,,,,,,,,,,,,,,,,,,,,,,,,,,,,,,,,,,,,,,,,
,,613e79bab4ffe7389bb2a20c,2024-02-18_20h12.09.960,kallum_motion_pilot,2023.2.2,Win32,59.88023952,613e79bab4ffe7389bb2a20c,65d2b6c8f2eece985d8e374c,65d2b8d4c91a54bf0c27c893,0.0415,0.0416,1,36,198,83,1,sixeight,,,,,,,,,,,,,,,,,,,,,,,,,,,,,,,,,,,,,,,,,,,,,,,,,,,,,,,,,,,,,,,,,,,,,,,,,,,,,,,,,,,,,,,,,,,,,,,,,,,,,,,,,,,,,,,,,,,,,,,,,,,,,,,,,,,,,,,,,
,,613e79bab4ffe7389bb2a20c,2024-02-18_20h12.09.960,kallum_motion_pilot,2023.2.2,Win32,59.88023952,613e79bab4ffe7389bb2a20c,65d2b6c8f2eece985d8e374c,65d2b8d4c91a54bf0c27c893,0.0416,0.0417,1,37,199,62,1,fourtwo,,,,,,,,,,,,,,,,,,,,,,,,,,,,,,,,,,,,,,,,,,,,,,,,,,,,,,,,,,,,,,,,,,,,,,,,,,,,,,,,,,,,,,,,,,,,,,,,,,,,,,,,,,,,,,,,,,,,,,,,,,,,,,,,,,,,,,,,,
,,613e79bab4ffe7389bb2a20c,2024-02-18_20h12.09.960,kallum_motion_pilot,2023.2.2,Win32,59.88023952,613e79bab4ffe7389bb2a20c,65d2b6c8f2eece985d8e374c,65d2b8d4c91a54bf0c27c893,0.0418,0.0418,1,38,200,114,1,sixfive,,,,,,,,,,,,,,,,,,,,,,,,,,,,,,,,,,,,,,,,,,,,,,,,,,,,,,,,,,,,,,,,,,,,,,,,,,,,,,,,,,,,,,,,,,,,,,,,,,,,,,,,,,,,,,,,,,,,,,,,,,,,,,,,,,,,,,,,,
,,613e79bab4ffe7389bb2a20c,2024-02-18_20h12.09.960,kallum_motion_pilot,2023.2.2,Win32,59.88023952,613e79bab4ffe7389bb2a20c,65d2b6c8f2eece985d8e374c,65d2b8d4c91a54bf0c27c893,0.0419,0.042,1,39,201,21,1,threefour,,,,,,,,,,,,,,,,,,,,,,,,,,,,,,,,,,,,,,,,,,,,,,,,,,,,,,,,,,,,,,,,,,,,,,,,,,,,,,,,,,,,,,,,,,,,,,,,,,,,,,,,,,,,,,,,,,,,,,,,,,,,,,,,,,,,,,,,,
,,613e79bab4ffe7389bb2a20c,2024-02-18_20h12.09.960,kallum_motion_pilot,2023.2.2,Win32,59.88023952,613e79bab4ffe7389bb2a20c,65d2b6c8f2eece985d8e374c,65d2b8d4c91a54bf0c27c893,0.042,0.042,1,40,202,18,1,twoone,,,,,,,,,,,,,,,,,,,,,,,,,,,,,,,,,,,,,,,,,,,,,,,,,,,,,,,,,,,,,,,,,,,,,,,,,,,,,,,,,,,,,,,,,,,,,,,,,,,,,,,,,,,,,,,,,,,,,,,,,,,,,,,,,,,,,,,,,
,,613e79bab4ffe7389bb2a20c,2024-02-18_20h12.09.960,kallum_motion_pilot,2023.2.2,Win32,59.88023952,613e79bab4ffe7389bb2a20c,65d2b6c8f2eece985d8e374c,65d2b8d4c91a54bf0c27c893,0.0421,0.0421,1,41,203,40,1,onetwo,,,,,,,,,,,,,,,,,,,,,,,,,,,,,,,,,,,,,,,,,,,,,,,,,,,,,,,,,,,,,,,,,,,,,,,,,,,,,,,,,,,,,,,,,,,,,,,,,,,,,,,,,,,,,,,,,,,,,,,,,,,,,,,,,,,,,,,,,
,,613e79bab4ffe7389bb2a20c,2024-02-18_20h12.09.960,kallum_motion_pilot,2023.2.2,Win32,59.88023952,613e79bab4ffe7389bb2a20c,65d2b6c8f2eece985d8e374c,65d2b8d4c91a54bf0c27c893,0.0422,0.0423,1,42,204,91,1,sixeight,,,,,,,,,,,,,,,,,,,,,,,,,,,,,,,,,,,,,,,,,,,,,,,,,,,,,,,,,,,,,,,,,,,,,,,,,,,,,,,,,,,,,,,,,,,,,,,,,,,,,,,,,,,,,,,,,,,,,,,,,,,,,,,,,,,,,,,,,
,,613e79bab4ffe7389bb2a20c,2024-02-18_20h12.09.960,kallum_motion_pilot,2023.2.2,Win32,59.88023952,613e79bab4ffe7389bb2a20c,65d2b6c8f2eece985d8e374c,65d2b8d4c91a54bf0c27c893,0.0423,0.0423,1,43,205,127,1,eightseven,,,,,,,,,,,,,,,,,,,,,,,,,,,,,,,,,,,,,,,,,,,,,,,,,,,,,,,,,,,,,,,,,,,,,,,,,,,,,,,,,,,,,,,,,,,,,,,,,,,,,,,,,,,,,,,,,,,,,,,,,,,,,,,,,,,,,,,,,
,,613e79bab4ffe7389bb2a20c,2024-02-18_20h12.09.960,kallum_motion_pilot,2023.2.2,Win32,59.88023952,613e79bab4ffe7389bb2a20c,65d2b6c8f2eece985d8e374c,65d2b8d4c91a54bf0c27c893,0.0424,0.0424,1,44,206,90,1,sixfive,,,,,,,,,,,,,,,,,,,,,,,,,,,,,,,,,,,,,,,,,,,,,,,,,,,,,,,,,,,,,,,,,,,,,,,,,,,,,,,,,,,,,,,,,,,,,,,,,,,,,,,,,,,,,,,,,,,,,,,,,,,,,,,,,,,,,,,,,
,,613e79bab4ffe7389bb2a20c,2024-02-18_20h12.09.960,kallum_motion_pilot,2023.2.2,Win32,59.88023952,613e79bab4ffe7389bb2a20c,65d2b6c8f2eece985d8e374c,65d2b8d4c91a54bf0c27c893,0.0425,0.0426,1,45,207,0,1,onetwo,,,,,,,,,,,,,,,,,,,,,,,,,,,,,,,,,,,,,,,,,,,,,,,,,,,,,,,,,,,,,,,,,,,,,,,,,,,,,,,,,,,,,,,,,,,,,,,,,,,,,,,,,,,,,,,,,,,,,,,,,,,,,,,,,,,,,,,,,
,,613e79bab4ffe7389bb2a20c,2024-02-18_20h12.09.960,kallum_motion_pilot,2023.2.2,Win32,59.88023952,613e79bab4ffe7389bb2a20c,65d2b6c8f2eece985d8e374c,65d2b8d4c91a54bf0c27c893,0.0426,0.0427,1,46,208,132,1,sevenfive,,,,,,,,,,,,,,,,,,,,,,,,,,,,,,,,,,,,,,,,,,,,,,,,,,,,,,,,,,,,,,,,,,,,,,,,,,,,,,,,,,,,,,,,,,,,,,,,,,,,,,,,,,,,,,,,,,,,,,,,,,,,,,,,,,,,,,,,,
,,613e79bab4ffe7389bb2a20c,2024-02-18_20h12.09.960,kallum_motion_pilot,2023.2.2,Win32,59.88023952,613e79bab4ffe7389bb2a20c,65d2b6c8f2eece985d8e374c,65d2b8d4c91a54bf0c27c893,0.0427,0.0427,1,47,209,61,1,threefour,,,,,,,,,,,,,,,,,,,,,,,,,,,,,,,,,,,,,,,,,,,,,,,,,,,,,,,,,,,,,,,,,,,,,,,,,,,,,,,,,,,,,,,,,,,,,,,,,,,,,,,,,,,,,,,,,,,,,,,,,,,,,,,,,,,,,,,,,
,,613e79bab4ffe7389bb2a20c,2024-02-18_20h12.09.960,kallum_motion_pilot,2023.2.2,Win32,59.88023952,613e79bab4ffe7389bb2a20c,65d2b6c8f2eece985d8e374c,65d2b8d4c91a54bf0c27c893,0.0428,0.0429,1,48,210,26,1,twoone,,,,,,,,,,,,,,,,,,,,,,,,,,,,,,,,,,,,,,,,,,,,,,,,,,,,,,,,,,,,,,,,,,,,,,,,,,,,,,,,,,,,,,,,,,,,,,,,,,,,,,,,,,,,,,,,,,,,,,,,,,,,,,,,,,,,,,,,,
,,613e79bab4ffe7389bb2a20c,2024-02-18_20h12.09.960,kallum_motion_pilot,2023.2.2,Win32,59.88023952,613e79bab4ffe7389bb2a20c,65d2b6c8f2eece985d8e374c,65d2b8d4c91a54bf0c27c893,0.0429,0.043,1,49,211,94,1,eightsix,,,,,,,,,,,,,,,,,,,,,,,,,,,,,,,,,,,,,,,,,,,,,,,,,,,,,,,,,,,,,,,,,,,,,,,,,,,,,,,,,,,,,,,,,,,,,,,,,,,,,,,,,,,,,,,,,,,,,,,,,,,,,,,,,,,,,,,,,
,,613e79bab4ffe7389bb2a20c,2024-02-18_20h12.09.960,kallum_motion_pilot,2023.2.2,Win32,59.88023952,613e79bab4ffe7389bb2a20c,65d2b6c8f2eece985d8e374c,65d2b8d4c91a54bf0c27c893,0.0431,0.0431,1,50,212,96,1,fivesix,,,,,,,,,,,,,,,,,,,,,,,,,,,,,,,,,,,,,,,,,,,,,,,,,,,,,,,,,,,,,,,,,,,,,,,,,,,,,,,,,,,,,,,,,,,,,,,,,,,,,,,,,,,,,,,,,,,,,,,,,,,,,,,,,,,,,,,,,
,,613e79bab4ffe7389bb2a20c,2024-02-18_20h12.09.960,kallum_motion_pilot,2023.2.2,Win32,59.88023952,613e79bab4ffe7389bb2a20c,65d2b6c8f2eece985d8e374c,65d2b8d4c91a54bf0c27c893,0.0432,0.0432,1,51,213,88,1,fivesix,,,,,,,,,,,,,,,,,,,,,,,,,,,,,,,,,,,,,,,,,,,,,,,,,,,,,,,,,,,,,,,,,,,,,,,,,,,,,,,,,,,,,,,,,,,,,,,,,,,,,,,,,,,,,,,,,,,,,,,,,,,,,,,,,,,,,,,,,
,,613e79bab4ffe7389bb2a20c,2024-02-18_20h12.09.960,kallum_motion_pilot,2023.2.2,Win32,59.88023952,613e79bab4ffe7389bb2a20c,65d2b6c8f2eece985d8e374c,65d2b8d4c91a54bf0c27c893,0.0433,0.0434,1,52,214,104,1,fivesix,,,,,,,,,,,,,,,,,,,,,,,,,,,,,,,,,,,,,,,,,,,,,,,,,,,,,,,,,,,,,,,,,,,,,,,,,,,,,,,,,,,,,,,,,,,,,,,,,,,,,,,,,,,,,,,,,,,,,,,,,,,,,,,,,,,,,,,,,
,,613e79bab4ffe7389bb2a20c,2024-02-18_20h12.09.960,kallum_motion_pilot,2023.2.2,Win32,59.88023952,613e79bab4ffe7389bb2a20c,65d2b6c8f2eece985d8e374c,65d2b8d4c91a54bf0c27c893,0.0435,0.0435,1,53,215,71,1,fourthree,,,,,,,,,,,,,,,,,,,,,,,,,,,,,,,,,,,,,,,,,,,,,,,,,,,,,,,,,,,,,,,,,,,,,,,,,,,,,,,,,,,,,,,,,,,,,,,,,,,,,,,,,,,,,,,,,,,,,,,,,,,,,,,,,,,,,,,,,
,,613e79bab4ffe7389bb2a20c,2024-02-18_20h12.09.960,kallum_motion_pilot,2023.2.2,Win32,59.88023952,613e79bab4ffe7389bb2a20c,65d2b6c8f2eece985d8e374c,65d2b8d4c91a54bf0c27c893,0.0437,0.0438,1,54,216,97,1,fiveseven,,,,,,,,,,,,,,,,,,,,,,,,,,,,,,,,,,,,,,,,,,,,,,,,,,,,,,,,,,,,,,,,,,,,,,,,,,,,,,,,,,,,,,,,,,,,,,,,,,,,,,,,,,,,,,,,,,,,,,,,,,,,,,,,,,,,,,,,,
,,613e79bab4ffe7389bb2a20c,2024-02-18_20h12.09.960,kallum_motion_pilot,2023.2.2,Win32,59.88023952,613e79bab4ffe7389bb2a20c,65d2b6c8f2eece985d8e374c,65d2b8d4c91a54bf0c27c893,0.0439,0.044,1,55,217,126,1,eightsix,,,,,,,,,,,,,,,,,,,,,,,,,,,,,,,,,,,,,,,,,,,,,,,,,,,,,,,,,,,,,,,,,,,,,,,,,,,,,,,,,,,,,,,,,,,,,,,,,,,,,,,,,,,,,,,,,,,,,,,,,,,,,,,,,,,,,,,,,
,,613e79bab4ffe7389bb2a20c,2024-02-18_20h12.09.960,kallum_motion_pilot,2023.2.2,Win32,59.88023952,613e79bab4ffe7389bb2a20c,65d2b6c8f2eece985d8e374c,65d2b8d4c91a54bf0c27c893,0.0441,0.0442,1,56,218,1,1,onethree,,,,,,,,,,,,,,,,,,,,,,,,,,,,,,,,,,,,,,,,,,,,,,,,,,,,,,,,,,,,,,,,,,,,,,,,,,,,,,,,,,,,,,,,,,,,,,,,,,,,,,,,,,,,,,,,,,,,,,,,,,,,,,,,,,,,,,,,,
,,613e79bab4ffe7389bb2a20c,2024-02-18_20h12.09.960,kallum_motion_pilot,2023.2.2,Win32,59.88023952,613e79bab4ffe7389bb2a20c,65d2b6c8f2eece985d8e374c,65d2b8d4c91a54bf0c27c893,0.0444,0.0444,1,57,219,139,1,sixeight,,,,,,,,,,,,,,,,,,,,,,,,,,,,,,,,,,,,,,,,,,,,,,,,,,,,,,,,,,,,,,,,,,,,,,,,,,,,,,,,,,,,,,,,,,,,,,,,,,,,,,,,,,,,,,,,,,,,,,,,,,,,,,,,,,,,,,,,,
,,613e79bab4ffe7389bb2a20c,2024-02-18_20h12.09.960,kallum_motion_pilot,2023.2.2,Win32,59.88023952,613e79bab4ffe7389bb2a20c,65d2b6c8f2eece985d8e374c,65d2b8d4c91a54bf0c27c893,0.0446,0.0446,1,58,220,51,1,twofour,,,,,,,,,,,,,,,,,,,,,,,,,,,,,,,,,,,,,,,,,,,,,,,,,,,,,,,,,,,,,,,,,,,,,,,,,,,,,,,,,,,,,,,,,,,,,,,,,,,,,,,,,,,,,,,,,,,,,,,,,,,,,,,,,,,,,,,,,
,,613e79bab4ffe7389bb2a20c,2024-02-18_20h12.09.960,kallum_motion_pilot,2023.2.2,Win32,59.88023952,613e79bab4ffe7389bb2a20c,65d2b6c8f2eece985d8e374c,65d2b8d4c91a54bf0c27c893,0.0447,0.0448,1,59,221,73,1,onethree,,,,,,,,,,,,,,,,,,,,,,,,,,,,,,,,,,,,,,,,,,,,,,,,,,,,,,,,,,,,,,,,,,,,,,,,,,,,,,,,,,,,,,,,,,,,,,,,,,,,,,,,,,,,,,,,,,,,,,,,,,,,,,,,,,,,,,,,,
,,613e79bab4ffe7389bb2a20c,2024-02-18_20h12.09.960,kallum_motion_pilot,2023.2.2,Win32,59.88023952,613e79bab4ffe7389bb2a20c,65d2b6c8f2eece985d8e374c,65d2b8d4c91a54bf0c27c893,0.0448,0.0449,1,60,222,95,1,eightseven,,,,,,,,,,,,,,,,,,,,,,,,,,,,,,,,,,,,,,,,,,,,,,,,,,,,,,,,,,,,,,,,,,,,,,,,,,,,,,,,,,,,,,,,,,,,,,,,,,,,,,,,,,,,,,,,,,,,,,,,,,,,,,,,,,,,,,,,,
,,613e79bab4ffe7389bb2a20c,2024-02-18_20h12.09.960,kallum_motion_pilot,2023.2.2,Win32,59.88023952,613e79bab4ffe7389bb2a20c,65d2b6c8f2eece985d8e374c,65d2b8d4c91a54bf0c27c893,0.045,0.045,1,61,223,43,1,twofour,,,,,,,,,,,,,,,,,,,,,,,,,,,,,,,,,,,,,,,,,,,,,,,,,,,,,,,,,,,,,,,,,,,,,,,,,,,,,,,,,,,,,,,,,,,,,,,,,,,,,,,,,,,,,,,,,,,,,,,,,,,,,,,,,,,,,,,,,
,,613e79bab4ffe7389bb2a20c,2024-02-18_20h12.09.960,kallum_motion_pilot,2023.2.2,Win32,59.88023952,613e79bab4ffe7389bb2a20c,65d2b6c8f2eece985d8e374c,65d2b8d4c91a54bf0c27c893,0.0451,0.0453,1,62,224,111,1,eightseven,,,,,,,,,,,,,,,,,,,,,,,,,,,,,,,,,,,,,,,,,,,,,,,,,,,,,,,,,,,,,,,,,,,,,,,,,,,,,,,,,,,,,,,,,,,,,,,,,,,,,,,,,,,,,,,,,,,,,,,,,,,,,,,,,,,,,,,,,
,,613e79bab4ffe7389bb2a20c,2024-02-18_20h12.09.960,kallum_motion_pilot,2023.2.2,Win32,59.88023952,613e79bab4ffe7389bb2a20c,65d2b6c8f2eece985d8e374c,65d2b8d4c91a54bf0c27c893,0.0453,0.0453,1,63,225,85,1,seveneight,,,,,,,,,,,,,,,,,,,,,,,,,,,,,,,,,,,,,,,,,,,,,,,,,,,,,,,,,,,,,,,,,,,,,,,,,,,,,,,,,,,,,,,,,,,,,,,,,,,,,,,,,,,,,,,,,,,,,,,,,,,,,,,,,,,,,,,,,
,,613e79bab4ffe7389bb2a20c,2024-02-18_20h12.09.960,kallum_motion_pilot,2023.2.2,Win32,59.88023952,613e79bab4ffe7389bb2a20c,65d2b6c8f2eece985d8e374c,65d2b8d4c91a54bf0c27c893,0.0454,0.0455,1,64,226,142,1,eightsix,,,,,,,,,,,,,,,,,,,,,,,,,,,,,,,,,,,,,,,,,,,,,,,,,,,,,,,,,,,,,,,,,,,,,,,,,,,,,,,,,,,,,,,,,,,,,,,,,,,,,,,,,,,,,,,,,,,,,,,,,,,,,,,,,,,,,,,,,
,,613e79bab4ffe7389bb2a20c,2024-02-18_20h12.09.960,kallum_motion_pilot,2023.2.2,Win32,59.88023952,613e79bab4ffe7389bb2a20c,65d2b6c8f2eece985d8e374c,65d2b8d4c91a54bf0c27c893,0.0455,0.0456,1,65,227,86,1,eightsix,,,,,,,,,,,,,,,,,,,,,,,,,,,,,,,,,,,,,,,,,,,,,,,,,,,,,,,,,,,,,,,,,,,,,,,,,,,,,,,,,,,,,,,,,,,,,,,,,,,,,,,,,,,,,,,,,,,,,,,,,,,,,,,,,,,,,,,,,
,,613e79bab4ffe7389bb2a20c,2024-02-18_20h12.09.960,kallum_motion_pilot,2023.2.2,Win32,59.88023952,613e79bab4ffe7389bb2a20c,65d2b6c8f2eece985d8e374c,65d2b8d4c91a54bf0c27c893,0.0457,0.0458,1,66,228,2,1,twoone,,,,,,,,,,,,,,,,,,,,,,,,,,,,,,,,,,,,,,,,,,,,,,,,,,,,,,,,,,,,,,,,,,,,,,,,,,,,,,,,,,,,,,,,,,,,,,,,,,,,,,,,,,,,,,,,,,,,,,,,,,,,,,,,,,,,,,,,,
,,613e79bab4ffe7389bb2a20c,2024-02-18_20h12.09.960,kallum_motion_pilot,2023.2.2,Win32,59.88023952,613e79bab4ffe7389bb2a20c,65d2b6c8f2eece985d8e374c,65d2b8d4c91a54bf0c27c893,0.0459,0.0459,1,67,229,33,1,onethree,,,,,,,,,,,,,,,,,,,,,,,,,,,,,,,,,,,,,,,,,,,,,,,,,,,,,,,,,,,,,,,,,,,,,,,,,,,,,,,,,,,,,,,,,,,,,,,,,,,,,,,,,,,,,,,,,,,,,,,,,,,,,,,,,,,,,,,,,
,,613e79bab4ffe7389bb2a20c,2024-02-18_20h12.09.960,kallum_motion_pilot,2023.2.2,Win32,59.88023952,613e79bab4ffe7389bb2a20c,65d2b6c8f2eece985d8e374c,65d2b8d4c91a54bf0c27c893,0.0459,0.046,1,68,230,93,1,seveneight,,,,,,,,,,,,,,,,,,,,,,,,,,,,,,,,,,,,,,,,,,,,,,,,,,,,,,,,,,,,,,,,,,,,,,,,,,,,,,,,,,,,,,,,,,,,,,,,,,,,,,,,,,,,,,,,,,,,,,,,,,,,,,,,,,,,,,,,,
,,613e79bab4ffe7389bb2a20c,2024-02-18_20h12.09.960,kallum_motion_pilot,2023.2.2,Win32,59.88023952,613e79bab4ffe7389bb2a20c,65d2b6c8f2eece985d8e374c,65d2b8d4c91a54bf0c27c893,0.046,0.0461,1,69,231,124,1,sevenfive,,,,,,,,,,,,,,,,,,,,,,,,,,,,,,,,,,,,,,,,,,,,,,,,,,,,,,,,,,,,,,,,,,,,,,,,,,,,,,,,,,,,,,,,,,,,,,,,,,,,,,,,,,,,,,,,,,,,,,,,,,,,,,,,,,,,,,,,,
,,613e79bab4ffe7389bb2a20c,2024-02-18_20h12.09.960,kallum_motion_pilot,2023.2.2,Win32,59.88023952,613e79bab4ffe7389bb2a20c,65d2b6c8f2eece985d8e374c,65d2b8d4c91a54bf0c27c893,0.0462,0.0462,1,70,232,60,1,threeone,,,,,,,,,,,,,,,,,,,,,,,,,,,,,,,,,,,,,,,,,,,,,,,,,,,,,,,,,,,,,,,,,,,,,,,,,,,,,,,,,,,,,,,,,,,,,,,,,,,,,,,,,,,,,,,,,,,,,,,,,,,,,,,,,,,,,,,,,
,,613e79bab4ffe7389bb2a20c,2024-02-18_20h12.09.960,kallum_motion_pilot,2023.2.2,Win32,59.88023952,613e79bab4ffe7389bb2a20c,65d2b6c8f2eece985d8e374c,65d2b8d4c91a54bf0c27c893,0.0462,0.0463,1,71,233,3,1,twofour,,,,,,,,,,,,,,,,,,,,,,,,,,,,,,,,,,,,,,,,,,,,,,,,,,,,,,,,,,,,,,,,,,,,,,,,,,,,,,,,,,,,,,,,,,,,,,,,,,,,,,,,,,,,,,,,,,,,,,,,,,,,,,,,,,,,,,,,,
,,613e79bab4ffe7389bb2a20c,2024-02-18_20h12.09.960,kallum_motion_pilot,2023.2.2,Win32,59.88023952,613e79bab4ffe7389bb2a20c,65d2b6c8f2eece985d8e374c,65d2b8d4c91a54bf0c27c893,0.0464,0.0465,1,72,234,28,1,threeone,,,,,,,,,,,,,,,,,,,,,,,,,,,,,,,,,,,,,,,,,,,,,,,,,,,,,,,,,,,,,,,,,,,,,,,,,,,,,,,,,,,,,,,,,,,,,,,,,,,,,,,,,,,,,,,,,,,,,,,,,,,,,,,,,,,,,,,,,
,,613e79bab4ffe7389bb2a20c,2024-02-18_20h12.09.960,kallum_motion_pilot,2023.2.2,Win32,59.88023952,613e79bab4ffe7389bb2a20c,65d2b6c8f2eece985d8e374c,65d2b8d4c91a54bf0c27c893,0.0465,0.0465,1,73,235,12,1,threeone,,,,,,,,,,,,,,,,,,,,,,,,,,,,,,,,,,,,,,,,,,,,,,,,,,,,,,,,,,,,,,,,,,,,,,,,,,,,,,,,,,,,,,,,,,,,,,,,,,,,,,,,,,,,,,,,,,,,,,,,,,,,,,,,,,,,,,,,,
,,613e79bab4ffe7389bb2a20c,2024-02-18_20h12.09.960,kallum_motion_pilot,2023.2.2,Win32,59.88023952,613e79bab4ffe7389bb2a20c,65d2b6c8f2eece985d8e374c,65d2b8d4c91a54bf0c27c893,0.0466,0.0467,1,74,236,130,1,sixfive,,,,,,,,,,,,,,,,,,,,,,,,,,,,,,,,,,,,,,,,,,,,,,,,,,,,,,,,,,,,,,,,,,,,,,,,,,,,,,,,,,,,,,,,,,,,,,,,,,,,,,,,,,,,,,,,,,,,,,,,,,,,,,,,,,,,,,,,,
,,613e79bab4ffe7389bb2a20c,2024-02-18_20h12.09.960,kallum_motion_pilot,2023.2.2,Win32,59.88023952,613e79bab4ffe7389bb2a20c,65d2b6c8f2eece985d8e374c,65d2b8d4c91a54bf0c27c893,0.0468,0.0468,1,75,237,76,1,threeone,,,,,,,,,,,,,,,,,,,,,,,,,,,,,,,,,,,,,,,,,,,,,,,,,,,,,,,,,,,,,,,,,,,,,,,,,,,,,,,,,,,,,,,,,,,,,,,,,,,,,,,,,,,,,,,,,,,,,,,,,,,,,,,,,,,,,,,,,
,,613e79bab4ffe7389bb2a20c,2024-02-18_20h12.09.960,kallum_motion_pilot,2023.2.2,Win32,59.88023952,613e79bab4ffe7389bb2a20c,65d2b6c8f2eece985d8e374c,65d2b8d4c91a54bf0c27c893,0.0468,0.0469,1,76,238,107,1,sixeight,,,,,,,,,,,,,,,,,,,,,,,,,,,,,,,,,,,,,,,,,,,,,,,,,,,,,,,,,,,,,,,,,,,,,,,,,,,,,,,,,,,,,,,,,,,,,,,,,,,,,,,,,,,,,,,,,,,,,,,,,,,,,,,,,,,,,,,,,
,,613e79bab4ffe7389bb2a20c,2024-02-18_20h12.09.960,kallum_motion_pilot,2023.2.2,Win32,59.88023952,613e79bab4ffe7389bb2a20c,65d2b6c8f2eece985d8e374c,65d2b8d4c91a54bf0c27c893,0.0469,0.0471,1,77,239,153,1,fiveseven,,,,,,,,,,,,,,,,,,,,,,,,,,,,,,,,,,,,,,,,,,,,,,,,,,,,,,,,,,,,,,,,,,,,,,,,,,,,,,,,,,,,,,,,,,,,,,,,,,,,,,,,,,,,,,,,,,,,,,,,,,,,,,,,,,,,,,,,,
,,613e79bab4ffe7389bb2a20c,2024-02-18_20h12.09.960,kallum_motion_pilot,2023.2.2,Win32,59.88023952,613e79bab4ffe7389bb2a20c,65d2b6c8f2eece985d8e374c,65d2b8d4c91a54bf0c27c893,0.0471,0.0472,1,78,240,143,1,eightseven,,,,,,,,,,,,,,,,,,,,,,,,,,,,,,,,,,,,,,,,,,,,,,,,,,,,,,,,,,,,,,,,,,,,,,,,,,,,,,,,,,,,,,,,,,,,,,,,,,,,,,,,,,,,,,,,,,,,,,,,,,,,,,,,,,,,,,,,,
,,613e79bab4ffe7389bb2a20c,2024-02-18_20h12.09.960,kallum_motion_pilot,2023.2.2,Win32,59.88023952,613e79bab4ffe7389bb2a20c,65d2b6c8f2eece985d8e374c,65d2b8d4c91a54bf0c27c893,0.0472,0.0473,1,79,241,7,1,fourthree,,,,,,,,,,,,,,,,,,,,,,,,,,,,,,,,,,,,,,,,,,,,,,,,,,,,,,,,,,,,,,,,,,,,,,,,,,,,,,,,,,,,,,,,,,,,,,,,,,,,,,,,,,,,,,,,,,,,,,,,,,,,,,,,,,,,,,,,,
,,613e79bab4ffe7389bb2a20c,2024-02-18_20h12.09.960,kallum_motion_pilot,2023.2.2,Win32,59.88023952,613e79bab4ffe7389bb2a20c,65d2b6c8f2eece985d8e374c,65d2b8d4c91a54bf0c27c893,0.0473,0.0474,1,80,242,115,1,sixeight,,,,,,,,,,,,,,,,,,,,,,,,,,,,,,,,,,,,,,,,,,,,,,,,,,,,,,,,,,,,,,,,,,,,,,,,,,,,,,,,,,,,,,,,,,,,,,,,,,,,,,,,,,,,,,,,,,,,,,,,,,,,,,,,,,,,,,,,,
,,613e79bab4ffe7389bb2a20c,2024-02-18_20h12.09.960,kallum_motion_pilot,2023.2.2,Win32,59.88023952,613e79bab4ffe7389bb2a20c,65d2b6c8f2eece985d8e374c,65d2b8d4c91a54bf0c27c893,0.0475,0.0475,1,81,243,84,1,sevenfive,,,,,,,,,,,,,,,,,,,,,,,,,,,,,,,,,,,,,,,,,,,,,,,,,,,,,,,,,,,,,,,,,,,,,,,,,,,,,,,,,,,,,,,,,,,,,,,,,,,,,,,,,,,,,,,,,,,,,,,,,,,,,,,,,,,,,,,,,
,,613e79bab4ffe7389bb2a20c,2024-02-18_20h12.09.960,kallum_motion_pilot,2023.2.2,Win32,59.88023952,613e79bab4ffe7389bb2a20c,65d2b6c8f2eece985d8e374c,65d2b8d4c91a54bf0c27c893,0.0476,0.0476,1,82,244,42,1,twoone,,,,,,,,,,,,,,,,,,,,,,,,,,,,,,,,,,,,,,,,,,,,,,,,,,,,,,,,,,,,,,,,,,,,,,,,,,,,,,,,,,,,,,,,,,,,,,,,,,,,,,,,,,,,,,,,,,,,,,,,,,,,,,,,,,,,,,,,,
,,613e79bab4ffe7389bb2a20c,2024-02-18_20h12.09.960,kallum_motion_pilot,2023.2.2,Win32,59.88023952,613e79bab4ffe7389bb2a20c,65d2b6c8f2eece985d8e374c,65d2b8d4c91a54bf0c27c893,0.0477,0.0478,1,83,245,131,1,sixeight,,,,,,,,,,,,,,,,,,,,,,,,,,,,,,,,,,,,,,,,,,,,,,,,,,,,,,,,,,,,,,,,,,,,,,,,,,,,,,,,,,,,,,,,,,,,,,,,,,,,,,,,,,,,,,,,,,,,,,,,,,,,,,,,,,,,,,,,,
,,613e79bab4ffe7389bb2a20c,2024-02-18_20h12.09.960,kallum_motion_pilot,2023.2.2,Win32,59.88023952,613e79bab4ffe7389bb2a20c,65d2b6c8f2eece985d8e374c,65d2b8d4c91a54bf0c27c893,0.0478,0.0479,1,84,246,20,1,threeone,,,,,,,,,,,,,,,,,,,,,,,,,,,,,,,,,,,,,,,,,,,,,,,,,,,,,,,,,,,,,,,,,,,,,,,,,,,,,,,,,,,,,,,,,,,,,,,,,,,,,,,,,,,,,,,,,,,,,,,,,,,,,,,,,,,,,,,,,
,,613e79bab4ffe7389bb2a20c,2024-02-18_20h12.09.960,kallum_motion_pilot,2023.2.2,Win32,59.88023952,613e79bab4ffe7389bb2a20c,65d2b6c8f2eece985d8e374c,65d2b8d4c91a54bf0c27c893,0.0479,0.0479,1,85,247,23,1,fourthree,,,,,,,,,,,,,,,,,,,,,,,,,,,,,,,,,,,,,,,,,,,,,,,,,,,,,,,,,,,,,,,,,,,,,,,,,,,,,,,,,,,,,,,,,,,,,,,,,,,,,,,,,,,,,,,,,,,,,,,,,,,,,,,,,,,,,,,,,
,,613e79bab4ffe7389bb2a20c,2024-02-18_20h12.09.960,kallum_motion_pilot,2023.2.2,Win32,59.88023952,613e79bab4ffe7389bb2a20c,65d2b6c8f2eece985d8e374c,65d2b8d4c91a54bf0c27c893,0.048,0.0481,1,86,248,16,1,onetwo,,,,,,,,,,,,,,,,,,,,,,,,,,,,,,,,,,,,,,,,,,,,,,,,,,,,,,,,,,,,,,,,,,,,,,,,,,,,,,,,,,,,,,,,,,,,,,,,,,,,,,,,,,,,,,,,,,,,,,,,,,,,,,,,,,,,,,,,,
,,613e79bab4ffe7389bb2a20c,2024-02-18_20h12.09.960,kallum_motion_pilot,2023.2.2,Win32,59.88023952,613e79bab4ffe7389bb2a20c,65d2b6c8f2eece985d8e374c,65d2b8d4c91a54bf0c27c893,0.0481,0.0482,1,87,249,123,1,sixeight,,,,,,,,,,,,,,,,,,,,,,,,,,,,,,,,,,,,,,,,,,,,,,,,,,,,,,,,,,,,,,,,,,,,,,,,,,,,,,,,,,,,,,,,,,,,,,,,,,,,,,,,,,,,,,,,,,,,,,,,,,,,,,,,,,,,,,,,,
,,613e79bab4ffe7389bb2a20c,2024-02-18_20h12.09.960,kallum_motion_pilot,2023.2.2,Win32,59.88023952,613e79bab4ffe7389bb2a20c,65d2b6c8f2eece985d8e374c,65d2b8d4c91a54bf0c27c893,0.0482,0.0483,1,88,250,89,1,fiveseven,,,,,,,,,,,,,,,,,,,,,,,,,,,,,,,,,,,,,,,,,,,,,,,,,,,,,,,,,,,,,,,,,,,,,,,,,,,,,,,,,,,,,,,,,,,,,,,,,,,,,,,,,,,,,,,,,,,,,,,,,,,,,,,,,,,,,,,,,
,,613e79bab4ffe7389bb2a20c,2024-02-18_20h12.09.960,kallum_motion_pilot,2023.2.2,Win32,59.88023952,613e79bab4ffe7389bb2a20c,65d2b6c8f2eece985d8e374c,65d2b8d4c91a54bf0c27c893,0.0483,0.0484,1,89,251,158,1,eightsix,,,,,,,,,,,,,,,,,,,,,,,,,,,,,,,,,,,,,,,,,,,,,,,,,,,,,,,,,,,,,,,,,,,,,,,,,,,,,,,,,,,,,,,,,,,,,,,,,,,,,,,,,,,,,,,,,,,,,,,,,,,,,,,,,,,,,,,,,
,,613e79bab4ffe7389bb2a20c,2024-02-18_20h12.09.960,kallum_motion_pilot,2023.2.2,Win32,59.88023952,613e79bab4ffe7389bb2a20c,65d2b6c8f2eece985d8e374c,65d2b8d4c91a54bf0c27c893,0.0485,0.0485,1,90,252,151,1,eightseven,,,,,,,,,,,,,,,,,,,,,,,,,,,,,,,,,,,,,,,,,,,,,,,,,,,,,,,,,,,,,,,,,,,,,,,,,,,,,,,,,,,,,,,,,,,,,,,,,,,,,,,,,,,,,,,,,,,,,,,,,,,,,,,,,,,,,,,,,
,,613e79bab4ffe7389bb2a20c,2024-02-18_20h12.09.960,kallum_motion_pilot,2023.2.2,Win32,59.88023952,613e79bab4ffe7389bb2a20c,65d2b6c8f2eece985d8e374c,65d2b8d4c91a54bf0c27c893,0.0485,0.0486,1,91,253,78,1,fourtwo,,,,,,,,,,,,,,,,,,,,,,,,,,,,,,,,,,,,,,,,,,,,,,,,,,,,,,,,,,,,,,,,,,,,,,,,,,,,,,,,,,,,,,,,,,,,,,,,,,,,,,,,,,,,,,,,,,,,,,,,,,,,,,,,,,,,,,,,,
,,613e79bab4ffe7389bb2a20c,2024-02-18_20h12.09.960,kallum_motion_pilot,2023.2.2,Win32,59.88023952,613e79bab4ffe7389bb2a20c,65d2b6c8f2eece985d8e374c,65d2b8d4c91a54bf0c27c893,0.0487,0.0488,1,92,254,74,1,twoone,,,,,,,,,,,,,,,,,,,,,,,,,,,,,,,,,,,,,,,,,,,,,,,,,,,,,,,,,,,,,,,,,,,,,,,,,,,,,,,,,,,,,,,,,,,,,,,,,,,,,,,,,,,,,,,,,,,,,,,,,,,,,,,,,,,,,,,,,
,,613e79bab4ffe7389bb2a20c,2024-02-18_20h12.09.960,kallum_motion_pilot,2023.2.2,Win32,59.88023952,613e79bab4ffe7389bb2a20c,65d2b6c8f2eece985d8e374c,65d2b8d4c91a54bf0c27c893,0.0488,0.0489,1,93,255,19,1,twofour,,,,,,,,,,,,,,,,,,,,,,,,,,,,,,,,,,,,,,,,,,,,,,,,,,,,,,,,,,,,,,,,,,,,,,,,,,,,,,,,,,,,,,,,,,,,,,,,,,,,,,,,,,,,,,,,,,,,,,,,,,,,,,,,,,,,,,,,,
,,613e79bab4ffe7389bb2a20c,2024-02-18_20h12.09.960,kallum_motion_pilot,2023.2.2,Win32,59.88023952,613e79bab4ffe7389bb2a20c,65d2b6c8f2eece985d8e374c,65d2b8d4c91a54bf0c27c893,0.049,0.0491,1,94,256,133,1,seveneight,,,,,,,,,,,,,,,,,,,,,,,,,,,,,,,,,,,,,,,,,,,,,,,,,,,,,,,,,,,,,,,,,,,,,,,,,,,,,,,,,,,,,,,,,,,,,,,,,,,,,,,,,,,,,,,,,,,,,,,,,,,,,,,,,,,,,,,,,
,,613e79bab4ffe7389bb2a20c,2024-02-18_20h12.09.960,kallum_motion_pilot,2023.2.2,Win32,59.88023952,613e79bab4ffe7389bb2a20c,65d2b6c8f2eece985d8e374c,65d2b8d4c91a54bf0c27c893,0.0491,0.0491,1,95,257,103,1,eightseven,,,,,,,,,,,,,,,,,,,,,,,,,,,,,,,,,,,,,,,,,,,,,,,,,,,,,,,,,,,,,,,,,,,,,,,,,,,,,,,,,,,,,,,,,,,,,,,,,,,,,,,,,,,,,,,,,,,,,,,,,,,,,,,,,,,,,,,,,
,,613e79bab4ffe7389bb2a20c,2024-02-18_20h12.09.960,kallum_motion_pilot,2023.2.2,Win32,59.88023952,613e79bab4ffe7389bb2a20c,65d2b6c8f2eece985d8e374c,65d2b8d4c91a54bf0c27c893,0.0493,0.0493,1,96,258,64,1,onetwo,,,,,,,,,,,,,,,,,,,,,,,,,,,,,,,,,,,,,,,,,,,,,,,,,,,,,,,,,,,,,,,,,,,,,,,,,,,,,,,,,,,,,,,,,,,,,,,,,,,,,,,,,,,,,,,,,,,,,,,,,,,,,,,,,,,,,,,,,
,,613e79bab4ffe7389bb2a20c,2024-02-18_20h12.09.960,kallum_motion_pilot,2023.2.2,Win32,59.88023952,613e79bab4ffe7389bb2a20c,65d2b6c8f2eece985d8e374c,65d2b8d4c91a54bf0c27c893,0.0494,0.0494,1,97,259,39,1,fourthree,,,,,,,,,,,,,,,,,,,,,,,,,,,,,,,,,,,,,,,,,,,,,,,,,,,,,,,,,,,,,,,,,,,,,,,,,,,,,,,,,,,,,,,,,,,,,,,,,,,,,,,,,,,,,,,,,,,,,,,,,,,,,,,,,,,,,,,,,
,,613e79bab4ffe7389bb2a20c,2024-02-18_20h12.09.960,kallum_motion_pilot,2023.2.2,Win32,59.88023952,613e79bab4ffe7389bb2a20c,65d2b6c8f2eece985d8e374c,65d2b8d4c91a54bf0c27c893,0.0495,0.0495,1,98,260,118,1,eightsix,,,,,,,,,,,,,,,,,,,,,,,,,,,,,,,,,,,,,,,,,,,,,,,,,,,,,,,,,,,,,,,,,,,,,,,,,,,,,,,,,,,,,,,,,,,,,,,,,,,,,,,,,,,,,,,,,,,,,,,,,,,,,,,,,,,,,,,,,
,,613e79bab4ffe7389bb2a20c,2024-02-18_20h12.09.960,kallum_motion_pilot,2023.2.2,Win32,59.88023952,613e79bab4ffe7389bb2a20c,65d2b6c8f2eece985d8e374c,65d2b8d4c91a54bf0c27c893,0.0495,0.0496,1,99,261,121,1,fiveseven,,,,,,,,,,,,,,,,,,,,,,,,,,,,,,,,,,,,,,,,,,,,,,,,,,,,,,,,,,,,,,,,,,,,,,,,,,,,,,,,,,,,,,,,,,,,,,,,,,,,,,,,,,,,,,,,,,,,,,,,,,,,,,,,,,,,,,,,,
,,613e79bab4ffe7389bb2a20c,2024-02-18_20h12.09.960,kallum_motion_pilot,2023.2.2,Win32,59.88023952,613e79bab4ffe7389bb2a20c,65d2b6c8f2eece985d8e374c,65d2b8d4c91a54bf0c27c893,0.0497,0.0497,1,100,262,87,1,eightseven,,,,,,,,,,,,,,,,,,,,,,,,,,,,,,,,,,,,,,,,,,,,,,,,,,,,,,,,,,,,,,,,,,,,,,,,,,,,,,,,,,,,,,,,,,,,,,,,,,,,,,,,,,,,,,,,,,,,,,,,,,,,,,,,,,,,,,,,,
,,613e79bab4ffe7389bb2a20c,2024-02-18_20h12.09.960,kallum_motion_pilot,2023.2.2,Win32,59.88023952,613e79bab4ffe7389bb2a20c,65d2b6c8f2eece985d8e374c,65d2b8d4c91a54bf0c27c893,0.0498,0.0499,1,101,263,59,1,twofour,,,,,,,,,,,,,,,,,,,,,,,,,,,,,,,,,,,,,,,,,,,,,,,,,,,,,,,,,,,,,,,,,,,,,,,,,,,,,,,,,,,,,,,,,,,,,,,,,,,,,,,,,,,,,,,,,,,,,,,,,,,,,,,,,,,,,,,,,
,,613e79bab4ffe7389bb2a20c,2024-02-18_20h12.09.960,kallum_motion_pilot,2023.2.2,Win32,59.88023952,613e79bab4ffe7389bb2a20c,65d2b6c8f2eece985d8e374c,65d2b8d4c91a54bf0c27c893,0.05,0.0501,1,102,264,53,1,threefour,,,,,,,,,,,,,,,,,,,,,,,,,,,,,,,,,,,,,,,,,,,,,,,,,,,,,,,,,,,,,,,,,,,,,,,,,,,,,,,,,,,,,,,,,,,,,,,,,,,,,,,,,,,,,,,,,,,,,,,,,,,,,,,,,,,,,,,,,
,,613e79bab4ffe7389bb2a20c,2024-02-18_20h12.09.960,kallum_motion_pilot,2023.2.2,Win32,59.88023952,613e79bab4ffe7389bb2a20c,65d2b6c8f2eece985d8e374c,65d2b8d4c91a54bf0c27c893,0.0501,0.0502,1,103,265,113,1,fiveseven,,,,,,,,,,,,,,,,,,,,,,,,,,,,,,,,,,,,,,,,,,,,,,,,,,,,,,,,,,,,,,,,,,,,,,,,,,,,,,,,,,,,,,,,,,,,,,,,,,,,,,,,,,,,,,,,,,,,,,,,,,,,,,,,,,,,,,,,,
,,613e79bab4ffe7389bb2a20c,2024-02-18_20h12.09.960,kallum_motion_pilot,2023.2.2,Win32,59.88023952,613e79bab4ffe7389bb2a20c,65d2b6c8f2eece985d8e374c,65d2b8d4c91a54bf0c27c893,0.0503,0.0503,1,104,266,152,1,fivesix,,,,,,,,,,,,,,,,,,,,,,,,,,,,,,,,,,,,,,,,,,,,,,,,,,,,,,,,,,,,,,,,,,,,,,,,,,,,,,,,,,,,,,,,,,,,,,,,,,,,,,,,,,,,,,,,,,,,,,,,,,,,,,,,,,,,,,,,,
,,613e79bab4ffe7389bb2a20c,2024-02-18_20h12.09.960,kallum_motion_pilot,2023.2.2,Win32,59.88023952,613e79bab4ffe7389bb2a20c,65d2b6c8f2eece985d8e374c,65d2b8d4c91a54bf0c27c893,0.0503,0.0504,1,105,267,141,1,seveneight,,,,,,,,,,,,,,,,,,,,,,,,,,,,,,,,,,,,,,,,,,,,,,,,,,,,,,,,,,,,,,,,,,,,,,,,,,,,,,,,,,,,,,,,,,,,,,,,,,,,,,,,,,,,,,,,,,,,,,,,,,,,,,,,,,,,,,,,,
,,613e79bab4ffe7389bb2a20c,2024-02-18_20h12.09.960,kallum_motion_pilot,2023.2.2,Win32,59.88023952,613e79bab4ffe7389bb2a20c,65d2b6c8f2eece985d8e374c,65d2b8d4c91a54bf0c27c893,0.0505,0.0506,1,106,268,122,1,sixfive,,,,,,,,,,,,,,,,,,,,,,,,,,,,,,,,,,,,,,,,,,,,,,,,,,,,,,,,,,,,,,,,,,,,,,,,,,,,,,,,,,,,,,,,,,,,,,,,,,,,,,,,,,,,,,,,,,,,,,,,,,,,,,,,,,,,,,,,,
,,613e79bab4ffe7389bb2a20c,2024-02-18_20h12.09.960,kallum_motion_pilot,2023.2.2,Win32,59.88023952,613e79bab4ffe7389bb2a20c,65d2b6c8f2eece985d8e374c,65d2b8d4c91a54bf0c27c893,0.0506,0.0506,1,107,269,56,1,onetwo,,,,,,,,,,,,,,,,,,,,,,,,,,,,,,,,,,,,,,,,,,,,,,,,,,,,,,,,,,,,,,,,,,,,,,,,,,,,,,,,,,,,,,,,,,,,,,,,,,,,,,,,,,,,,,,,,,,,,,,,,,,,,,,,,,,,,,,,,
,,613e79bab4ffe7389bb2a20c,2024-02-18_20h12.09.960,kallum_motion_pilot,2023.2.2,Win32,59.88023952,613e79bab4ffe7389bb2a20c,65d2b6c8f2eece985d8e374c,65d2b8d4c91a54bf0c27c893,0.0507,0.0508,1,108,270,98,1,sixfive,,,,,,,,,,,,,,,,,,,,,,,,,,,,,,,,,,,,,,,,,,,,,,,,,,,,,,,,,,,,,,,,,,,,,,,,,,,,,,,,,,,,,,,,,,,,,,,,,,,,,,,,,,,,,,,,,,,,,,,,,,,,,,,,,,,,,,,,,
,,613e79bab4ffe7389bb2a20c,2024-02-18_20h12.09.960,kallum_motion_pilot,2023.2.2,Win32,59.88023952,613e79bab4ffe7389bb2a20c,65d2b6c8f2eece985d8e374c,65d2b8d4c91a54bf0c27c893,0.0509,0.0509,1,109,271,81,1,fiveseven,,,,,,,,,,,,,,,,,,,,,,,,,,,,,,,,,,,,,,,,,,,,,,,,,,,,,,,,,,,,,,,,,,,,,,,,,,,,,,,,,,,,,,,,,,,,,,,,,,,,,,,,,,,,,,,,,,,,,,,,,,,,,,,,,,,,,,,,,
,,613e79bab4ffe7389bb2a20c,2024-02-18_20h12.09.960,kallum_motion_pilot,2023.2.2,Win32,59.88023952,613e79bab4ffe7389bb2a20c,65d2b6c8f2eece985d8e374c,65d2b8d4c91a54bf0c27c893,0.051,0.051,1,110,272,77,1,threefour,,,,,,,,,,,,,,,,,,,,,,,,,,,,,,,,,,,,,,,,,,,,,,,,,,,,,,,,,,,,,,,,,,,,,,,,,,,,,,,,,,,,,,,,,,,,,,,,,,,,,,,,,,,,,,,,,,,,,,,,,,,,,,,,,,,,,,,,,
,,613e79bab4ffe7389bb2a20c,2024-02-18_20h12.09.960,kallum_motion_pilot,2023.2.2,Win32,59.88023952,613e79bab4ffe7389bb2a20c,65d2b6c8f2eece985d8e374c,65d2b8d4c91a54bf0c27c893,0.0511,0.0512,1,111,273,47,1,fourthree,,,,,,,,,,,,,,,,,,,,,,,,,,,,,,,,,,,,,,,,,,,,,,,,,,,,,,,,,,,,,,,,,,,,,,,,,,,,,,,,,,,,,,,,,,,,,,,,,,,,,,,,,,,,,,,,,,,,,,,,,,,,,,,,,,,,,,,,,
,,613e79bab4ffe7389bb2a20c,2024-02-18_20h12.09.960,kallum_motion_pilot,2023.2.2,Win32,59.88023952,613e79bab4ffe7389bb2a20c,65d2b6c8f2eece985d8e374c,65d2b8d4c91a54bf0c27c893,0.0512,0.0513,1,112,274,136,1,fivesix,,,,,,,,,,,,,,,,,,,,,,,,,,,,,,,,,,,,,,,,,,,,,,,,,,,,,,,,,,,,,,,,,,,,,,,,,,,,,,,,,,,,,,,,,,,,,,,,,,,,,,,,,,,,,,,,,,,,,,,,,,,,,,,,,,,,,,,,,
,,613e79bab4ffe7389bb2a20c,2024-02-18_20h12.09.960,kallum_motion_pilot,2023.2.2,Win32,59.88023952,613e79bab4ffe7389bb2a20c,65d2b6c8f2eece985d8e374c,65d2b8d4c91a54bf0c27c893,0.0513,0.0514,1,113,275,75,1,twofour,,,,,,,,,,,,,,,,,,,,,,,,,,,,,,,,,,,,,,,,,,,,,,,,,,,,,,,,,,,,,,,,,,,,,,,,,,,,,,,,,,,,,,,,,,,,,,,,,,,,,,,,,,,,,,,,,,,,,,,,,,,,,,,,,,,,,,,,,
,,613e79bab4ffe7389bb2a20c,2024-02-18_20h12.09.960,kallum_motion_pilot,2023.2.2,Win32,59.88023952,613e79bab4ffe7389bb2a20c,65d2b6c8f2eece985d8e374c,65d2b8d4c91a54bf0c27c893,0.0514,0.0515,1,114,276,44,1,threeone,,,,,,,,,,,,,,,,,,,,,,,,,,,,,,,,,,,,,,,,,,,,,,,,,,,,,,,,,,,,,,,,,,,,,,,,,,,,,,,,,,,,,,,,,,,,,,,,,,,,,,,,,,,,,,,,,,,,,,,,,,,,,,,,,,,,,,,,,
,,613e79bab4ffe7389bb2a20c,2024-02-18_20h12.09.960,kallum_motion_pilot,2023.2.2,Win32,59.88023952,613e79bab4ffe7389bb2a20c,65d2b6c8f2eece985d8e374c,65d2b8d4c91a54bf0c27c893,0.0516,0.0517,1,115,277,57,1,onethree,,,,,,,,,,,,,,,,,,,,,,,,,,,,,,,,,,,,,,,,,,,,,,,,,,,,,,,,,,,,,,,,,,,,,,,,,,,,,,,,,,,,,,,,,,,,,,,,,,,,,,,,,,,,,,,,,,,,,,,,,,,,,,,,,,,,,,,,,
