startup.started,startup.stopped,Prolific ID*,date,expName,psychopyVersion,OS,frameRate,participant,study_id,session,stimpositions.started,stimpositions.stopped,hardcoded_stimulus_positions.thisRepN,hardcoded_stimulus_positions.thisTrialN,hardcoded_stimulus_positions.thisN,hardcoded_stimulus_positions.thisIndex,hardcoded_stimulus_positions.ran,StimulusPos,stimorientation.started,stimorientation.stopped,prac_stimorientation_import_loop.thisRepN,prac_stimorientation_import_loop.thisTrialN,prac_stimorientation_import_loop.thisN,prac_stimorientation_import_loop.thisIndex,prac_stimorientation_import_loop.ran,Stimorientation,welcome_instr.started,welcome_instr.stopped,key_resp.keys,key_resp.rt,key_resp.duration,response_steppedout_1.started,response_steppedout_1.stopped,key_resp_20.keys,key_resp_20.rt,key_resp_20.duration,response_steppedout_2.started,response_steppedout_2.stopped,key_resp_19.keys,key_resp_19.rt,key_resp_19.duration,stim_response_instr.started,stim_response_instr.stopped,key_resp_15.keys,key_resp_15.rt,key_resp_15.duration,direction_instr_2.started,direction_instr_2.stopped,key_resp_9.keys,key_resp_9.rt,key_resp_9.duration,instr_prac.started,instr_prac.stopped,key_resp_10.keys,key_resp_10.rt,key_resp_10.duration,Stim1_display_prac.started,Stim1_display_prac.stopped,Ecc,Circle1_ori,Circle2_ori,response_prac.started,similarity,response_time,response_prac.stopped,mouse_5.x,mouse_5.y,mouse_5.leftButton,mouse_5.midButton,mouse_5.rightButton,mouse_5.clicked_name,responseprac_feedback.started,responseprac_feedback.stopped,summary2_prac.started,summary2_prac.stopped,mouse_6.x,mouse_6.y,mouse_6.leftButton,mouse_6.midButton,mouse_6.rightButton,mouse_6.clicked_name,duringprac.thisRepN,duringprac.thisTrialN,duringprac.thisN,duringprac.thisIndex,duringprac.ran,begin.started,begin.stopped,key_resp_22.keys,key_resp_22.rt,key_resp_22.duration,Stim1_display.started,Stim1_display.stopped,circle1_ori,circle2_ori,circle1_SF,circle2_SF,response.started,response.stopped,mouse.x,mouse.y,mouse.leftButton,mouse.midButton,mouse.rightButton,mouse.clicked_name,trialnumber,double_pass.thisRepN,double_pass.thisTrialN,double_pass.thisN,double_pass.thisIndex,double_pass.ran,double_pass.order,main_trial.thisRepN,main_trial.thisTrialN,main_trial.thisN,main_trial.thisIndex,main_trial.ran,main_trial.order,Trial_Counter,Catch,Frequencies,response_2.started,response_2.stopped,mouse_2.x,mouse_2.y,mouse_2.leftButton,mouse_2.midButton,mouse_2.rightButton,mouse_2.clicked_name,special_trial.started,special_trial.stopped,catch_1.started,catch_1.stopped,mouse_3.x,mouse_3.y,mouse_3.leftButton,mouse_3.midButton,mouse_3.rightButton,catchresponse,catchnumber,response_time_catch,response_sum.started,response_sum.stopped,mouse_11.x,mouse_11.y,mouse_11.leftButton,mouse_11.midButton,mouse_11.rightButton,flip_presentation_sequence_for_double_pass.started,flip_presentation_sequence_for_double_pass.stopped,goodbye.started,goodbye.stopped,key_resp_3.keys,key_resp_3.rt,key_resp_3.duration
0.0004,0.0006,613e868f4d6c157238b8fd87*,2024-02-18_20h10.02.646,kallum_motion_pilot,2023.2.2,Win32,59.17159763,613e868f4d6c157238b8fd87,65d2b6c8f2eece985d8e374c,65d2b83fe3f907e4ffc059f1,,,,,,,,,,,,,,,,,,,,,,,,,,,,,,,,,,,,,,,,,,,,,,,,,,,,,,,,,,,,,,,,,,,,,,,,,,,,,,,,,,,,,,,,,,,,,,,,,,,,,,,,,,,,,,,,,,,,,,,,,,,,,,,,,,,,,,,,,,,,,,,,,
,,613e868f4d6c157238b8fd87*,2024-02-18_20h10.02.646,kallum_motion_pilot,2023.2.2,Win32,59.17159763,613e868f4d6c157238b8fd87,65d2b6c8f2eece985d8e374c,65d2b83fe3f907e4ffc059f1,0.026,0.0262,0,0,0,41,1,onethree,,,,,,,,,,,,,,,,,,,,,,,,,,,,,,,,,,,,,,,,,,,,,,,,,,,,,,,,,,,,,,,,,,,,,,,,,,,,,,,,,,,,,,,,,,,,,,,,,,,,,,,,,,,,,,,,,,,,,,,,,,,,,,,,,,,,,,,,,
,,613e868f4d6c157238b8fd87*,2024-02-18_20h10.02.646,kallum_motion_pilot,2023.2.2,Win32,59.17159763,613e868f4d6c157238b8fd87,65d2b6c8f2eece985d8e374c,65d2b83fe3f907e4ffc059f1,0.0265,0.0265,0,1,1,116,1,sevenfive,,,,,,,,,,,,,,,,,,,,,,,,,,,,,,,,,,,,,,,,,,,,,,,,,,,,,,,,,,,,,,,,,,,,,,,,,,,,,,,,,,,,,,,,,,,,,,,,,,,,,,,,,,,,,,,,,,,,,,,,,,,,,,,,,,,,,,,,,
,,613e868f4d6c157238b8fd87*,2024-02-18_20h10.02.646,kallum_motion_pilot,2023.2.2,Win32,59.17159763,613e868f4d6c157238b8fd87,65d2b6c8f2eece985d8e374c,65d2b83fe3f907e4ffc059f1,0.0266,0.0266,0,2,2,94,1,eightsix,,,,,,,,,,,,,,,,,,,,,,,,,,,,,,,,,,,,,,,,,,,,,,,,,,,,,,,,,,,,,,,,,,,,,,,,,,,,,,,,,,,,,,,,,,,,,,,,,,,,,,,,,,,,,,,,,,,,,,,,,,,,,,,,,,,,,,,,,
,,613e868f4d6c157238b8fd87*,2024-02-18_20h10.02.646,kallum_motion_pilot,2023.2.2,Win32,59.17159763,613e868f4d6c157238b8fd87,65d2b6c8f2eece985d8e374c,65d2b83fe3f907e4ffc059f1,0.0268,0.0268,0,3,3,100,1,sevenfive,,,,,,,,,,,,,,,,,,,,,,,,,,,,,,,,,,,,,,,,,,,,,,,,,,,,,,,,,,,,,,,,,,,,,,,,,,,,,,,,,,,,,,,,,,,,,,,,,,,,,,,,,,,,,,,,,,,,,,,,,,,,,,,,,,,,,,,,,
,,613e868f4d6c157238b8fd87*,2024-02-18_20h10.02.646,kallum_motion_pilot,2023.2.2,Win32,59.17159763,613e868f4d6c157238b8fd87,65d2b6c8f2eece985d8e374c,65d2b83fe3f907e4ffc059f1,0.0271,0.0271,0,4,4,75,1,twofour,,,,,,,,,,,,,,,,,,,,,,,,,,,,,,,,,,,,,,,,,,,,,,,,,,,,,,,,,,,,,,,,,,,,,,,,,,,,,,,,,,,,,,,,,,,,,,,,,,,,,,,,,,,,,,,,,,,,,,,,,,,,,,,,,,,,,,,,,
,,613e868f4d6c157238b8fd87*,2024-02-18_20h10.02.646,kallum_motion_pilot,2023.2.2,Win32,59.17159763,613e868f4d6c157238b8fd87,65d2b6c8f2eece985d8e374c,65d2b83fe3f907e4ffc059f1,0.0272,0.0273,0,5,5,82,1,sixfive,,,,,,,,,,,,,,,,,,,,,,,,,,,,,,,,,,,,,,,,,,,,,,,,,,,,,,,,,,,,,,,,,,,,,,,,,,,,,,,,,,,,,,,,,,,,,,,,,,,,,,,,,,,,,,,,,,,,,,,,,,,,,,,,,,,,,,,,,
,,613e868f4d6c157238b8fd87*,2024-02-18_20h10.02.646,kallum_motion_pilot,2023.2.2,Win32,59.17159763,613e868f4d6c157238b8fd87,65d2b6c8f2eece985d8e374c,65d2b83fe3f907e4ffc059f1,0.0274,0.0274,0,6,6,145,1,fiveseven,,,,,,,,,,,,,,,,,,,,,,,,,,,,,,,,,,,,,,,,,,,,,,,,,,,,,,,,,,,,,,,,,,,,,,,,,,,,,,,,,,,,,,,,,,,,,,,,,,,,,,,,,,,,,,,,,,,,,,,,,,,,,,,,,,,,,,,,,
,,613e868f4d6c157238b8fd87*,2024-02-18_20h10.02.646,kallum_motion_pilot,2023.2.2,Win32,59.17159763,613e868f4d6c157238b8fd87,65d2b6c8f2eece985d8e374c,65d2b83fe3f907e4ffc059f1,0.0275,0.0276,0,7,7,52,1,threeone,,,,,,,,,,,,,,,,,,,,,,,,,,,,,,,,,,,,,,,,,,,,,,,,,,,,,,,,,,,,,,,,,,,,,,,,,,,,,,,,,,,,,,,,,,,,,,,,,,,,,,,,,,,,,,,,,,,,,,,,,,,,,,,,,,,,,,,,,
,,613e868f4d6c157238b8fd87*,2024-02-18_20h10.02.646,kallum_motion_pilot,2023.2.2,Win32,59.17159763,613e868f4d6c157238b8fd87,65d2b6c8f2eece985d8e374c,65d2b83fe3f907e4ffc059f1,0.0276,0.0276,0,8,8,73,1,onethree,,,,,,,,,,,,,,,,,,,,,,,,,,,,,,,,,,,,,,,,,,,,,,,,,,,,,,,,,,,,,,,,,,,,,,,,,,,,,,,,,,,,,,,,,,,,,,,,,,,,,,,,,,,,,,,,,,,,,,,,,,,,,,,,,,,,,,,,,
,,613e868f4d6c157238b8fd87*,2024-02-18_20h10.02.646,kallum_motion_pilot,2023.2.2,Win32,59.17159763,613e868f4d6c157238b8fd87,65d2b6c8f2eece985d8e374c,65d2b83fe3f907e4ffc059f1,0.0277,0.0278,0,9,9,130,1,sixfive,,,,,,,,,,,,,,,,,,,,,,,,,,,,,,,,,,,,,,,,,,,,,,,,,,,,,,,,,,,,,,,,,,,,,,,,,,,,,,,,,,,,,,,,,,,,,,,,,,,,,,,,,,,,,,,,,,,,,,,,,,,,,,,,,,,,,,,,,
,,613e868f4d6c157238b8fd87*,2024-02-18_20h10.02.646,kallum_motion_pilot,2023.2.2,Win32,59.17159763,613e868f4d6c157238b8fd87,65d2b6c8f2eece985d8e374c,65d2b83fe3f907e4ffc059f1,0.0279,0.0279,0,10,10,22,1,fourtwo,,,,,,,,,,,,,,,,,,,,,,,,,,,,,,,,,,,,,,,,,,,,,,,,,,,,,,,,,,,,,,,,,,,,,,,,,,,,,,,,,,,,,,,,,,,,,,,,,,,,,,,,,,,,,,,,,,,,,,,,,,,,,,,,,,,,,,,,,
,,613e868f4d6c157238b8fd87*,2024-02-18_20h10.02.646,kallum_motion_pilot,2023.2.2,Win32,59.17159763,613e868f4d6c157238b8fd87,65d2b6c8f2eece985d8e374c,65d2b83fe3f907e4ffc059f1,0.028,0.028,0,11,11,30,1,fourtwo,,,,,,,,,,,,,,,,,,,,,,,,,,,,,,,,,,,,,,,,,,,,,,,,,,,,,,,,,,,,,,,,,,,,,,,,,,,,,,,,,,,,,,,,,,,,,,,,,,,,,,,,,,,,,,,,,,,,,,,,,,,,,,,,,,,,,,,,,
,,613e868f4d6c157238b8fd87*,2024-02-18_20h10.02.646,kallum_motion_pilot,2023.2.2,Win32,59.17159763,613e868f4d6c157238b8fd87,65d2b6c8f2eece985d8e374c,65d2b83fe3f907e4ffc059f1,0.0282,0.0282,0,12,12,156,1,sevenfive,,,,,,,,,,,,,,,,,,,,,,,,,,,,,,,,,,,,,,,,,,,,,,,,,,,,,,,,,,,,,,,,,,,,,,,,,,,,,,,,,,,,,,,,,,,,,,,,,,,,,,,,,,,,,,,,,,,,,,,,,,,,,,,,,,,,,,,,,
,,613e868f4d6c157238b8fd87*,2024-02-18_20h10.02.646,kallum_motion_pilot,2023.2.2,Win32,59.17159763,613e868f4d6c157238b8fd87,65d2b6c8f2eece985d8e374c,65d2b83fe3f907e4ffc059f1,0.0283,0.0283,0,13,13,133,1,seveneight,,,,,,,,,,,,,,,,,,,,,,,,,,,,,,,,,,,,,,,,,,,,,,,,,,,,,,,,,,,,,,,,,,,,,,,,,,,,,,,,,,,,,,,,,,,,,,,,,,,,,,,,,,,,,,,,,,,,,,,,,,,,,,,,,,,,,,,,,
,,613e868f4d6c157238b8fd87*,2024-02-18_20h10.02.646,kallum_motion_pilot,2023.2.2,Win32,59.17159763,613e868f4d6c157238b8fd87,65d2b6c8f2eece985d8e374c,65d2b83fe3f907e4ffc059f1,0.0284,0.0284,0,14,14,55,1,fourthree,,,,,,,,,,,,,,,,,,,,,,,,,,,,,,,,,,,,,,,,,,,,,,,,,,,,,,,,,,,,,,,,,,,,,,,,,,,,,,,,,,,,,,,,,,,,,,,,,,,,,,,,,,,,,,,,,,,,,,,,,,,,,,,,,,,,,,,,,
,,613e868f4d6c157238b8fd87*,2024-02-18_20h10.02.646,kallum_motion_pilot,2023.2.2,Win32,59.17159763,613e868f4d6c157238b8fd87,65d2b6c8f2eece985d8e374c,65d2b83fe3f907e4ffc059f1,0.0284,0.0285,0,15,15,16,1,onetwo,,,,,,,,,,,,,,,,,,,,,,,,,,,,,,,,,,,,,,,,,,,,,,,,,,,,,,,,,,,,,,,,,,,,,,,,,,,,,,,,,,,,,,,,,,,,,,,,,,,,,,,,,,,,,,,,,,,,,,,,,,,,,,,,,,,,,,,,,
,,613e868f4d6c157238b8fd87*,2024-02-18_20h10.02.646,kallum_motion_pilot,2023.2.2,Win32,59.17159763,613e868f4d6c157238b8fd87,65d2b6c8f2eece985d8e374c,65d2b83fe3f907e4ffc059f1,0.0286,0.0287,0,16,16,9,1,onethree,,,,,,,,,,,,,,,,,,,,,,,,,,,,,,,,,,,,,,,,,,,,,,,,,,,,,,,,,,,,,,,,,,,,,,,,,,,,,,,,,,,,,,,,,,,,,,,,,,,,,,,,,,,,,,,,,,,,,,,,,,,,,,,,,,,,,,,,,
,,613e868f4d6c157238b8fd87*,2024-02-18_20h10.02.646,kallum_motion_pilot,2023.2.2,Win32,59.17159763,613e868f4d6c157238b8fd87,65d2b6c8f2eece985d8e374c,65d2b83fe3f907e4ffc059f1,0.0288,0.0288,0,17,17,147,1,sixeight,,,,,,,,,,,,,,,,,,,,,,,,,,,,,,,,,,,,,,,,,,,,,,,,,,,,,,,,,,,,,,,,,,,,,,,,,,,,,,,,,,,,,,,,,,,,,,,,,,,,,,,,,,,,,,,,,,,,,,,,,,,,,,,,,,,,,,,,,
,,613e868f4d6c157238b8fd87*,2024-02-18_20h10.02.646,kallum_motion_pilot,2023.2.2,Win32,59.17159763,613e868f4d6c157238b8fd87,65d2b6c8f2eece985d8e374c,65d2b83fe3f907e4ffc059f1,0.0289,0.0289,0,18,18,61,1,threefour,,,,,,,,,,,,,,,,,,,,,,,,,,,,,,,,,,,,,,,,,,,,,,,,,,,,,,,,,,,,,,,,,,,,,,,,,,,,,,,,,,,,,,,,,,,,,,,,,,,,,,,,,,,,,,,,,,,,,,,,,,,,,,,,,,,,,,,,,
,,613e868f4d6c157238b8fd87*,2024-02-18_20h10.02.646,kallum_motion_pilot,2023.2.2,Win32,59.17159763,613e868f4d6c157238b8fd87,65d2b6c8f2eece985d8e374c,65d2b83fe3f907e4ffc059f1,0.029,0.0291,0,19,19,59,1,twofour,,,,,,,,,,,,,,,,,,,,,,,,,,,,,,,,,,,,,,,,,,,,,,,,,,,,,,,,,,,,,,,,,,,,,,,,,,,,,,,,,,,,,,,,,,,,,,,,,,,,,,,,,,,,,,,,,,,,,,,,,,,,,,,,,,,,,,,,,
,,613e868f4d6c157238b8fd87*,2024-02-18_20h10.02.646,kallum_motion_pilot,2023.2.2,Win32,59.17159763,613e868f4d6c157238b8fd87,65d2b6c8f2eece985d8e374c,65d2b83fe3f907e4ffc059f1,0.0291,0.0292,0,20,20,119,1,eightseven,,,,,,,,,,,,,,,,,,,,,,,,,,,,,,,,,,,,,,,,,,,,,,,,,,,,,,,,,,,,,,,,,,,,,,,,,,,,,,,,,,,,,,,,,,,,,,,,,,,,,,,,,,,,,,,,,,,,,,,,,,,,,,,,,,,,,,,,,
,,613e868f4d6c157238b8fd87*,2024-02-18_20h10.02.646,kallum_motion_pilot,2023.2.2,Win32,59.17159763,613e868f4d6c157238b8fd87,65d2b6c8f2eece985d8e374c,65d2b83fe3f907e4ffc059f1,0.0292,0.0292,0,21,21,70,1,fourtwo,,,,,,,,,,,,,,,,,,,,,,,,,,,,,,,,,,,,,,,,,,,,,,,,,,,,,,,,,,,,,,,,,,,,,,,,,,,,,,,,,,,,,,,,,,,,,,,,,,,,,,,,,,,,,,,,,,,,,,,,,,,,,,,,,,,,,,,,,
,,613e868f4d6c157238b8fd87*,2024-02-18_20h10.02.646,kallum_motion_pilot,2023.2.2,Win32,59.17159763,613e868f4d6c157238b8fd87,65d2b6c8f2eece985d8e374c,65d2b83fe3f907e4ffc059f1,0.0293,0.0294,0,22,22,87,1,eightseven,,,,,,,,,,,,,,,,,,,,,,,,,,,,,,,,,,,,,,,,,,,,,,,,,,,,,,,,,,,,,,,,,,,,,,,,,,,,,,,,,,,,,,,,,,,,,,,,,,,,,,,,,,,,,,,,,,,,,,,,,,,,,,,,,,,,,,,,,
,,613e868f4d6c157238b8fd87*,2024-02-18_20h10.02.646,kallum_motion_pilot,2023.2.2,Win32,59.17159763,613e868f4d6c157238b8fd87,65d2b6c8f2eece985d8e374c,65d2b83fe3f907e4ffc059f1,0.0294,0.0295,0,23,23,124,1,sevenfive,,,,,,,,,,,,,,,,,,,,,,,,,,,,,,,,,,,,,,,,,,,,,,,,,,,,,,,,,,,,,,,,,,,,,,,,,,,,,,,,,,,,,,,,,,,,,,,,,,,,,,,,,,,,,,,,,,,,,,,,,,,,,,,,,,,,,,,,,
,,613e868f4d6c157238b8fd87*,2024-02-18_20h10.02.646,kallum_motion_pilot,2023.2.2,Win32,59.17159763,613e868f4d6c157238b8fd87,65d2b6c8f2eece985d8e374c,65d2b83fe3f907e4ffc059f1,0.0296,0.0296,0,24,24,129,1,fiveseven,,,,,,,,,,,,,,,,,,,,,,,,,,,,,,,,,,,,,,,,,,,,,,,,,,,,,,,,,,,,,,,,,,,,,,,,,,,,,,,,,,,,,,,,,,,,,,,,,,,,,,,,,,,,,,,,,,,,,,,,,,,,,,,,,,,,,,,,,
,,613e868f4d6c157238b8fd87*,2024-02-18_20h10.02.646,kallum_motion_pilot,2023.2.2,Win32,59.17159763,613e868f4d6c157238b8fd87,65d2b6c8f2eece985d8e374c,65d2b83fe3f907e4ffc059f1,0.0296,0.0296,0,25,25,48,1,onetwo,,,,,,,,,,,,,,,,,,,,,,,,,,,,,,,,,,,,,,,,,,,,,,,,,,,,,,,,,,,,,,,,,,,,,,,,,,,,,,,,,,,,,,,,,,,,,,,,,,,,,,,,,,,,,,,,,,,,,,,,,,,,,,,,,,,,,,,,,
,,613e868f4d6c157238b8fd87*,2024-02-18_20h10.02.646,kallum_motion_pilot,2023.2.2,Win32,59.17159763,613e868f4d6c157238b8fd87,65d2b6c8f2eece985d8e374c,65d2b83fe3f907e4ffc059f1,0.0298,0.0298,0,26,26,136,1,fivesix,,,,,,,,,,,,,,,,,,,,,,,,,,,,,,,,,,,,,,,,,,,,,,,,,,,,,,,,,,,,,,,,,,,,,,,,,,,,,,,,,,,,,,,,,,,,,,,,,,,,,,,,,,,,,,,,,,,,,,,,,,,,,,,,,,,,,,,,,
,,613e868f4d6c157238b8fd87*,2024-02-18_20h10.02.646,kallum_motion_pilot,2023.2.2,Win32,59.17159763,613e868f4d6c157238b8fd87,65d2b6c8f2eece985d8e374c,65d2b83fe3f907e4ffc059f1,0.0299,0.03,0,27,27,146,1,sixfive,,,,,,,,,,,,,,,,,,,,,,,,,,,,,,,,,,,,,,,,,,,,,,,,,,,,,,,,,,,,,,,,,,,,,,,,,,,,,,,,,,,,,,,,,,,,,,,,,,,,,,,,,,,,,,,,,,,,,,,,,,,,,,,,,,,,,,,,,
,,613e868f4d6c157238b8fd87*,2024-02-18_20h10.02.646,kallum_motion_pilot,2023.2.2,Win32,59.17159763,613e868f4d6c157238b8fd87,65d2b6c8f2eece985d8e374c,65d2b83fe3f907e4ffc059f1,0.03,0.0301,0,28,28,38,1,fourtwo,,,,,,,,,,,,,,,,,,,,,,,,,,,,,,,,,,,,,,,,,,,,,,,,,,,,,,,,,,,,,,,,,,,,,,,,,,,,,,,,,,,,,,,,,,,,,,,,,,,,,,,,,,,,,,,,,,,,,,,,,,,,,,,,,,,,,,,,,
,,613e868f4d6c157238b8fd87*,2024-02-18_20h10.02.646,kallum_motion_pilot,2023.2.2,Win32,59.17159763,613e868f4d6c157238b8fd87,65d2b6c8f2eece985d8e374c,65d2b83fe3f907e4ffc059f1,0.0301,0.0302,0,29,29,6,1,fourtwo,,,,,,,,,,,,,,,,,,,,,,,,,,,,,,,,,,,,,,,,,,,,,,,,,,,,,,,,,,,,,,,,,,,,,,,,,,,,,,,,,,,,,,,,,,,,,,,,,,,,,,,,,,,,,,,,,,,,,,,,,,,,,,,,,,,,,,,,,
,,613e868f4d6c157238b8fd87*,2024-02-18_20h10.02.646,kallum_motion_pilot,2023.2.2,Win32,59.17159763,613e868f4d6c157238b8fd87,65d2b6c8f2eece985d8e374c,65d2b83fe3f907e4ffc059f1,0.0303,0.0303,0,30,30,69,1,threefour,,,,,,,,,,,,,,,,,,,,,,,,,,,,,,,,,,,,,,,,,,,,,,,,,,,,,,,,,,,,,,,,,,,,,,,,,,,,,,,,,,,,,,,,,,,,,,,,,,,,,,,,,,,,,,,,,,,,,,,,,,,,,,,,,,,,,,,,,
,,613e868f4d6c157238b8fd87*,2024-02-18_20h10.02.646,kallum_motion_pilot,2023.2.2,Win32,59.17159763,613e868f4d6c157238b8fd87,65d2b6c8f2eece985d8e374c,65d2b83fe3f907e4ffc059f1,0.0304,0.0304,0,31,31,149,1,seveneight,,,,,,,,,,,,,,,,,,,,,,,,,,,,,,,,,,,,,,,,,,,,,,,,,,,,,,,,,,,,,,,,,,,,,,,,,,,,,,,,,,,,,,,,,,,,,,,,,,,,,,,,,,,,,,,,,,,,,,,,,,,,,,,,,,,,,,,,,
,,613e868f4d6c157238b8fd87*,2024-02-18_20h10.02.646,kallum_motion_pilot,2023.2.2,Win32,59.17159763,613e868f4d6c157238b8fd87,65d2b6c8f2eece985d8e374c,65d2b83fe3f907e4ffc059f1,0.0305,0.0305,0,32,32,71,1,fourthree,,,,,,,,,,,,,,,,,,,,,,,,,,,,,,,,,,,,,,,,,,,,,,,,,,,,,,,,,,,,,,,,,,,,,,,,,,,,,,,,,,,,,,,,,,,,,,,,,,,,,,,,,,,,,,,,,,,,,,,,,,,,,,,,,,,,,,,,,
,,613e868f4d6c157238b8fd87*,2024-02-18_20h10.02.646,kallum_motion_pilot,2023.2.2,Win32,59.17159763,613e868f4d6c157238b8fd87,65d2b6c8f2eece985d8e374c,65d2b83fe3f907e4ffc059f1,0.0305,0.0305,0,33,33,85,1,seveneight,,,,,,,,,,,,,,,,,,,,,,,,,,,,,,,,,,,,,,,,,,,,,,,,,,,,,,,,,,,,,,,,,,,,,,,,,,,,,,,,,,,,,,,,,,,,,,,,,,,,,,,,,,,,,,,,,,,,,,,,,,,,,,,,,,,,,,,,,
,,613e868f4d6c157238b8fd87*,2024-02-18_20h10.02.646,kallum_motion_pilot,2023.2.2,Win32,59.17159763,613e868f4d6c157238b8fd87,65d2b6c8f2eece985d8e374c,65d2b83fe3f907e4ffc059f1,0.0306,0.0306,0,34,34,90,1,sixfive,,,,,,,,,,,,,,,,,,,,,,,,,,,,,,,,,,,,,,,,,,,,,,,,,,,,,,,,,,,,,,,,,,,,,,,,,,,,,,,,,,,,,,,,,,,,,,,,,,,,,,,,,,,,,,,,,,,,,,,,,,,,,,,,,,,,,,,,,
,,613e868f4d6c157238b8fd87*,2024-02-18_20h10.02.646,kallum_motion_pilot,2023.2.2,Win32,59.17159763,613e868f4d6c157238b8fd87,65d2b6c8f2eece985d8e374c,65d2b83fe3f907e4ffc059f1,0.0308,0.0309,0,35,35,12,1,threeone,,,,,,,,,,,,,,,,,,,,,,,,,,,,,,,,,,,,,,,,,,,,,,,,,,,,,,,,,,,,,,,,,,,,,,,,,,,,,,,,,,,,,,,,,,,,,,,,,,,,,,,,,,,,,,,,,,,,,,,,,,,,,,,,,,,,,,,,,
,,613e868f4d6c157238b8fd87*,2024-02-18_20h10.02.646,kallum_motion_pilot,2023.2.2,Win32,59.17159763,613e868f4d6c157238b8fd87,65d2b6c8f2eece985d8e374c,65d2b83fe3f907e4ffc059f1,0.0311,0.0311,0,36,36,105,1,fiveseven,,,,,,,,,,,,,,,,,,,,,,,,,,,,,,,,,,,,,,,,,,,,,,,,,,,,,,,,,,,,,,,,,,,,,,,,,,,,,,,,,,,,,,,,,,,,,,,,,,,,,,,,,,,,,,,,,,,,,,,,,,,,,,,,,,,,,,,,,
,,613e868f4d6c157238b8fd87*,2024-02-18_20h10.02.646,kallum_motion_pilot,2023.2.2,Win32,59.17159763,613e868f4d6c157238b8fd87,65d2b6c8f2eece985d8e374c,65d2b83fe3f907e4ffc059f1,0.0313,0.0314,0,37,37,44,1,threeone,,,,,,,,,,,,,,,,,,,,,,,,,,,,,,,,,,,,,,,,,,,,,,,,,,,,,,,,,,,,,,,,,,,,,,,,,,,,,,,,,,,,,,,,,,,,,,,,,,,,,,,,,,,,,,,,,,,,,,,,,,,,,,,,,,,,,,,,,
,,613e868f4d6c157238b8fd87*,2024-02-18_20h10.02.646,kallum_motion_pilot,2023.2.2,Win32,59.17159763,613e868f4d6c157238b8fd87,65d2b6c8f2eece985d8e374c,65d2b83fe3f907e4ffc059f1,0.0316,0.0317,0,38,38,160,1,fivesix,,,,,,,,,,,,,,,,,,,,,,,,,,,,,,,,,,,,,,,,,,,,,,,,,,,,,,,,,,,,,,,,,,,,,,,,,,,,,,,,,,,,,,,,,,,,,,,,,,,,,,,,,,,,,,,,,,,,,,,,,,,,,,,,,,,,,,,,,
,,613e868f4d6c157238b8fd87*,2024-02-18_20h10.02.646,kallum_motion_pilot,2023.2.2,Win32,59.17159763,613e868f4d6c157238b8fd87,65d2b6c8f2eece985d8e374c,65d2b83fe3f907e4ffc059f1,0.0317,0.0318,0,39,39,39,1,fourthree,,,,,,,,,,,,,,,,,,,,,,,,,,,,,,,,,,,,,,,,,,,,,,,,,,,,,,,,,,,,,,,,,,,,,,,,,,,,,,,,,,,,,,,,,,,,,,,,,,,,,,,,,,,,,,,,,,,,,,,,,,,,,,,,,,,,,,,,,
,,613e868f4d6c157238b8fd87*,2024-02-18_20h10.02.646,kallum_motion_pilot,2023.2.2,Win32,59.17159763,613e868f4d6c157238b8fd87,65d2b6c8f2eece985d8e374c,65d2b83fe3f907e4ffc059f1,0.032,0.032,0,40,40,45,1,threefour,,,,,,,,,,,,,,,,,,,,,,,,,,,,,,,,,,,,,,,,,,,,,,,,,,,,,,,,,,,,,,,,,,,,,,,,,,,,,,,,,,,,,,,,,,,,,,,,,,,,,,,,,,,,,,,,,,,,,,,,,,,,,,,,,,,,,,,,,
,,613e868f4d6c157238b8fd87*,2024-02-18_20h10.02.646,kallum_motion_pilot,2023.2.2,Win32,59.17159763,613e868f4d6c157238b8fd87,65d2b6c8f2eece985d8e374c,65d2b83fe3f907e4ffc059f1,0.0322,0.0322,0,41,41,13,1,threefour,,,,,,,,,,,,,,,,,,,,,,,,,,,,,,,,,,,,,,,,,,,,,,,,,,,,,,,,,,,,,,,,,,,,,,,,,,,,,,,,,,,,,,,,,,,,,,,,,,,,,,,,,,,,,,,,,,,,,,,,,,,,,,,,,,,,,,,,,
,,613e868f4d6c157238b8fd87*,2024-02-18_20h10.02.646,kallum_motion_pilot,2023.2.2,Win32,59.17159763,613e868f4d6c157238b8fd87,65d2b6c8f2eece985d8e374c,65d2b83fe3f907e4ffc059f1,0.0324,0.0324,0,42,42,54,1,fourtwo,,,,,,,,,,,,,,,,,,,,,,,,,,,,,,,,,,,,,,,,,,,,,,,,,,,,,,,,,,,,,,,,,,,,,,,,,,,,,,,,,,,,,,,,,,,,,,,,,,,,,,,,,,,,,,,,,,,,,,,,,,,,,,,,,,,,,,,,,
,,613e868f4d6c157238b8fd87*,2024-02-18_20h10.02.646,kallum_motion_pilot,2023.2.2,Win32,59.17159763,613e868f4d6c157238b8fd87,65d2b6c8f2eece985d8e374c,65d2b83fe3f907e4ffc059f1,0.0325,0.0325,0,43,43,0,1,onetwo,,,,,,,,,,,,,,,,,,,,,,,,,,,,,,,,,,,,,,,,,,,,,,,,,,,,,,,,,,,,,,,,,,,,,,,,,,,,,,,,,,,,,,,,,,,,,,,,,,,,,,,,,,,,,,,,,,,,,,,,,,,,,,,,,,,,,,,,,
,,613e868f4d6c157238b8fd87*,2024-02-18_20h10.02.646,kallum_motion_pilot,2023.2.2,Win32,59.17159763,613e868f4d6c157238b8fd87,65d2b6c8f2eece985d8e374c,65d2b83fe3f907e4ffc059f1,0.0326,0.0327,0,44,44,57,1,onethree,,,,,,,,,,,,,,,,,,,,,,,,,,,,,,,,,,,,,,,,,,,,,,,,,,,,,,,,,,,,,,,,,,,,,,,,,,,,,,,,,,,,,,,,,,,,,,,,,,,,,,,,,,,,,,,,,,,,,,,,,,,,,,,,,,,,,,,,,
,,613e868f4d6c157238b8fd87*,2024-02-18_20h10.02.646,kallum_motion_pilot,2023.2.2,Win32,59.17159763,613e868f4d6c157238b8fd87,65d2b6c8f2eece985d8e374c,65d2b83fe3f907e4ffc059f1,0.0327,0.0327,0,45,45,97,1,fiveseven,,,,,,,,,,,,,,,,,,,,,,,,,,,,,,,,,,,,,,,,,,,,,,,,,,,,,,,,,,,,,,,,,,,,,,,,,,,,,,,,,,,,,,,,,,,,,,,,,,,,,,,,,,,,,,,,,,,,,,,,,,,,,,,,,,,,,,,,,
,,613e868f4d6c157238b8fd87*,2024-02-18_20h10.02.646,kallum_motion_pilot,2023.2.2,Win32,59.17159763,613e868f4d6c157238b8fd87,65d2b6c8f2eece985d8e374c,65d2b83fe3f907e4ffc059f1,0.0328,0.0328,0,46,46,7,1,fourthree,,,,,,,,,,,,,,,,,,,,,,,,,,,,,,,,,,,,,,,,,,,,,,,,,,,,,,,,,,,,,,,,,,,,,,,,,,,,,,,,,,,,,,,,,,,,,,,,,,,,,,,,,,,,,,,,,,,,,,,,,,,,,,,,,,,,,,,,,
,,613e868f4d6c157238b8fd87*,2024-02-18_20h10.02.646,kallum_motion_pilot,2023.2.2,Win32,59.17159763,613e868f4d6c157238b8fd87,65d2b6c8f2eece985d8e374c,65d2b83fe3f907e4ffc059f1,0.0329,0.033,0,47,47,2,1,twoone,,,,,,,,,,,,,,,,,,,,,,,,,,,,,,,,,,,,,,,,,,,,,,,,,,,,,,,,,,,,,,,,,,,,,,,,,,,,,,,,,,,,,,,,,,,,,,,,,,,,,,,,,,,,,,,,,,,,,,,,,,,,,,,,,,,,,,,,,
,,613e868f4d6c157238b8fd87*,2024-02-18_20h10.02.646,kallum_motion_pilot,2023.2.2,Win32,59.17159763,613e868f4d6c157238b8fd87,65d2b6c8f2eece985d8e374c,65d2b83fe3f907e4ffc059f1,0.0331,0.0331,0,48,48,161,1,fiveseven,,,,,,,,,,,,,,,,,,,,,,,,,,,,,,,,,,,,,,,,,,,,,,,,,,,,,,,,,,,,,,,,,,,,,,,,,,,,,,,,,,,,,,,,,,,,,,,,,,,,,,,,,,,,,,,,,,,,,,,,,,,,,,,,,,,,,,,,,
,,613e868f4d6c157238b8fd87*,2024-02-18_20h10.02.646,kallum_motion_pilot,2023.2.2,Win32,59.17159763,613e868f4d6c157238b8fd87,65d2b6c8f2eece985d8e374c,65d2b83fe3f907e4ffc059f1,0.0331,0.0332,0,49,49,33,1,onethree,,,,,,,,,,,,,,,,,,,,,,,,,,,,,,,,,,,,,,,,,,,,,,,,,,,,,,,,,,,,,,,,,,,,,,,,,,,,,,,,,,,,,,,,,,,,,,,,,,,,,,,,,,,,,,,,,,,,,,,,,,,,,,,,,,,,,,,,,
,,613e868f4d6c157238b8fd87*,2024-02-18_20h10.02.646,kallum_motion_pilot,2023.2.2,Win32,59.17159763,613e868f4d6c157238b8fd87,65d2b6c8f2eece985d8e374c,65d2b83fe3f907e4ffc059f1,0.0333,0.0333,0,50,50,134,1,eightsix,,,,,,,,,,,,,,,,,,,,,,,,,,,,,,,,,,,,,,,,,,,,,,,,,,,,,,,,,,,,,,,,,,,,,,,,,,,,,,,,,,,,,,,,,,,,,,,,,,,,,,,,,,,,,,,,,,,,,,,,,,,,,,,,,,,,,,,,,
,,613e868f4d6c157238b8fd87*,2024-02-18_20h10.02.646,kallum_motion_pilot,2023.2.2,Win32,59.17159763,613e868f4d6c157238b8fd87,65d2b6c8f2eece985d8e374c,65d2b83fe3f907e4ffc059f1,0.0333,0.0333,0,51,51,152,1,fivesix,,,,,,,,,,,,,,,,,,,,,,,,,,,,,,,,,,,,,,,,,,,,,,,,,,,,,,,,,,,,,,,,,,,,,,,,,,,,,,,,,,,,,,,,,,,,,,,,,,,,,,,,,,,,,,,,,,,,,,,,,,,,,,,,,,,,,,,,,
,,613e868f4d6c157238b8fd87*,2024-02-18_20h10.02.646,kallum_motion_pilot,2023.2.2,Win32,59.17159763,613e868f4d6c157238b8fd87,65d2b6c8f2eece985d8e374c,65d2b83fe3f907e4ffc059f1,0.0335,0.0335,0,52,52,25,1,onethree,,,,,,,,,,,,,,,,,,,,,,,,,,,,,,,,,,,,,,,,,,,,,,,,,,,,,,,,,,,,,,,,,,,,,,,,,,,,,,,,,,,,,,,,,,,,,,,,,,,,,,,,,,,,,,,,,,,,,,,,,,,,,,,,,,,,,,,,,
,,613e868f4d6c157238b8fd87*,2024-02-18_20h10.02.646,kallum_motion_pilot,2023.2.2,Win32,59.17159763,613e868f4d6c157238b8fd87,65d2b6c8f2eece985d8e374c,65d2b83fe3f907e4ffc059f1,0.0336,0.0336,0,53,53,27,1,twofour,,,,,,,,,,,,,,,,,,,,,,,,,,,,,,,,,,,,,,,,,,,,,,,,,,,,,,,,,,,,,,,,,,,,,,,,,,,,,,,,,,,,,,,,,,,,,,,,,,,,,,,,,,,,,,,,,,,,,,,,,,,,,,,,,,,,,,,,,
,,613e868f4d6c157238b8fd87*,2024-02-18_20h10.02.646,kallum_motion_pilot,2023.2.2,Win32,59.17159763,613e868f4d6c157238b8fd87,65d2b6c8f2eece985d8e374c,65d2b83fe3f907e4ffc059f1,0.0336,0.0336,0,54,54,115,1,sixeight,,,,,,,,,,,,,,,,,,,,,,,,,,,,,,,,,,,,,,,,,,,,,,,,,,,,,,,,,,,,,,,,,,,,,,,,,,,,,,,,,,,,,,,,,,,,,,,,,,,,,,,,,,,,,,,,,,,,,,,,,,,,,,,,,,,,,,,,,
,,613e868f4d6c157238b8fd87*,2024-02-18_20h10.02.646,kallum_motion_pilot,2023.2.2,Win32,59.17159763,613e868f4d6c157238b8fd87,65d2b6c8f2eece985d8e374c,65d2b83fe3f907e4ffc059f1,0.0338,0.0338,0,55,55,117,1,seveneight,,,,,,,,,,,,,,,,,,,,,,,,,,,,,,,,,,,,,,,,,,,,,,,,,,,,,,,,,,,,,,,,,,,,,,,,,,,,,,,,,,,,,,,,,,,,,,,,,,,,,,,,,,,,,,,,,,,,,,,,,,,,,,,,,,,,,,,,,
,,613e868f4d6c157238b8fd87*,2024-02-18_20h10.02.646,kallum_motion_pilot,2023.2.2,Win32,59.17159763,613e868f4d6c157238b8fd87,65d2b6c8f2eece985d8e374c,65d2b83fe3f907e4ffc059f1,0.0338,0.0338,0,56,56,8,1,onetwo,,,,,,,,,,,,,,,,,,,,,,,,,,,,,,,,,,,,,,,,,,,,,,,,,,,,,,,,,,,,,,,,,,,,,,,,,,,,,,,,,,,,,,,,,,,,,,,,,,,,,,,,,,,,,,,,,,,,,,,,,,,,,,,,,,,,,,,,,
,,613e868f4d6c157238b8fd87*,2024-02-18_20h10.02.646,kallum_motion_pilot,2023.2.2,Win32,59.17159763,613e868f4d6c157238b8fd87,65d2b6c8f2eece985d8e374c,65d2b83fe3f907e4ffc059f1,0.0339,0.0339,0,57,57,93,1,seveneight,,,,,,,,,,,,,,,,,,,,,,,,,,,,,,,,,,,,,,,,,,,,,,,,,,,,,,,,,,,,,,,,,,,,,,,,,,,,,,,,,,,,,,,,,,,,,,,,,,,,,,,,,,,,,,,,,,,,,,,,,,,,,,,,,,,,,,,,,
,,613e868f4d6c157238b8fd87*,2024-02-18_20h10.02.646,kallum_motion_pilot,2023.2.2,Win32,59.17159763,613e868f4d6c157238b8fd87,65d2b6c8f2eece985d8e374c,65d2b83fe3f907e4ffc059f1,0.034,0.034,0,58,58,58,1,twoone,,,,,,,,,,,,,,,,,,,,,,,,,,,,,,,,,,,,,,,,,,,,,,,,,,,,,,,,,,,,,,,,,,,,,,,,,,,,,,,,,,,,,,,,,,,,,,,,,,,,,,,,,,,,,,,,,,,,,,,,,,,,,,,,,,,,,,,,,
,,613e868f4d6c157238b8fd87*,2024-02-18_20h10.02.646,kallum_motion_pilot,2023.2.2,Win32,59.17159763,613e868f4d6c157238b8fd87,65d2b6c8f2eece985d8e374c,65d2b83fe3f907e4ffc059f1,0.0341,0.0343,0,59,59,112,1,fivesix,,,,,,,,,,,,,,,,,,,,,,,,,,,,,,,,,,,,,,,,,,,,,,,,,,,,,,,,,,,,,,,,,,,,,,,,,,,,,,,,,,,,,,,,,,,,,,,,,,,,,,,,,,,,,,,,,,,,,,,,,,,,,,,,,,,,,,,,,
,,613e868f4d6c157238b8fd87*,2024-02-18_20h10.02.646,kallum_motion_pilot,2023.2.2,Win32,59.17159763,613e868f4d6c157238b8fd87,65d2b6c8f2eece985d8e374c,65d2b83fe3f907e4ffc059f1,0.0343,0.0343,0,60,60,76,1,threeone,,,,,,,,,,,,,,,,,,,,,,,,,,,,,,,,,,,,,,,,,,,,,,,,,,,,,,,,,,,,,,,,,,,,,,,,,,,,,,,,,,,,,,,,,,,,,,,,,,,,,,,,,,,,,,,,,,,,,,,,,,,,,,,,,,,,,,,,,
,,613e868f4d6c157238b8fd87*,2024-02-18_20h10.02.646,kallum_motion_pilot,2023.2.2,Win32,59.17159763,613e868f4d6c157238b8fd87,65d2b6c8f2eece985d8e374c,65d2b83fe3f907e4ffc059f1,0.0345,0.0345,0,61,61,114,1,sixfive,,,,,,,,,,,,,,,,,,,,,,,,,,,,,,,,,,,,,,,,,,,,,,,,,,,,,,,,,,,,,,,,,,,,,,,,,,,,,,,,,,,,,,,,,,,,,,,,,,,,,,,,,,,,,,,,,,,,,,,,,,,,,,,,,,,,,,,,,
,,613e868f4d6c157238b8fd87*,2024-02-18_20h10.02.646,kallum_motion_pilot,2023.2.2,Win32,59.17159763,613e868f4d6c157238b8fd87,65d2b6c8f2eece985d8e374c,65d2b83fe3f907e4ffc059f1,0.0346,0.0346,0,62,62,29,1,threefour,,,,,,,,,,,,,,,,,,,,,,,,,,,,,,,,,,,,,,,,,,,,,,,,,,,,,,,,,,,,,,,,,,,,,,,,,,,,,,,,,,,,,,,,,,,,,,,,,,,,,,,,,,,,,,,,,,,,,,,,,,,,,,,,,,,,,,,,,
,,613e868f4d6c157238b8fd87*,2024-02-18_20h10.02.646,kallum_motion_pilot,2023.2.2,Win32,59.17159763,613e868f4d6c157238b8fd87,65d2b6c8f2eece985d8e374c,65d2b83fe3f907e4ffc059f1,0.0348,0.0348,0,63,63,127,1,eightseven,,,,,,,,,,,,,,,,,,,,,,,,,,,,,,,,,,,,,,,,,,,,,,,,,,,,,,,,,,,,,,,,,,,,,,,,,,,,,,,,,,,,,,,,,,,,,,,,,,,,,,,,,,,,,,,,,,,,,,,,,,,,,,,,,,,,,,,,,
,,613e868f4d6c157238b8fd87*,2024-02-18_20h10.02.646,kallum_motion_pilot,2023.2.2,Win32,59.17159763,613e868f4d6c157238b8fd87,65d2b6c8f2eece985d8e374c,65d2b83fe3f907e4ffc059f1,0.0348,0.0348,0,64,64,139,1,sixeight,,,,,,,,,,,,,,,,,,,,,,,,,,,,,,,,,,,,,,,,,,,,,,,,,,,,,,,,,,,,,,,,,,,,,,,,,,,,,,,,,,,,,,,,,,,,,,,,,,,,,,,,,,,,,,,,,,,,,,,,,,,,,,,,,,,,,,,,,
,,613e868f4d6c157238b8fd87*,2024-02-18_20h10.02.646,kallum_motion_pilot,2023.2.2,Win32,59.17159763,613e868f4d6c157238b8fd87,65d2b6c8f2eece985d8e374c,65d2b83fe3f907e4ffc059f1,0.0349,0.0349,0,65,65,80,1,fivesix,,,,,,,,,,,,,,,,,,,,,,,,,,,,,,,,,,,,,,,,,,,,,,,,,,,,,,,,,,,,,,,,,,,,,,,,,,,,,,,,,,,,,,,,,,,,,,,,,,,,,,,,,,,,,,,,,,,,,,,,,,,,,,,,,,,,,,,,,
,,613e868f4d6c157238b8fd87*,2024-02-18_20h10.02.646,kallum_motion_pilot,2023.2.2,Win32,59.17159763,613e868f4d6c157238b8fd87,65d2b6c8f2eece985d8e374c,65d2b83fe3f907e4ffc059f1,0.035,0.0351,0,66,66,118,1,eightsix,,,,,,,,,,,,,,,,,,,,,,,,,,,,,,,,,,,,,,,,,,,,,,,,,,,,,,,,,,,,,,,,,,,,,,,,,,,,,,,,,,,,,,,,,,,,,,,,,,,,,,,,,,,,,,,,,,,,,,,,,,,,,,,,,,,,,,,,,
,,613e868f4d6c157238b8fd87*,2024-02-18_20h10.02.646,kallum_motion_pilot,2023.2.2,Win32,59.17159763,613e868f4d6c157238b8fd87,65d2b6c8f2eece985d8e374c,65d2b83fe3f907e4ffc059f1,0.0352,0.0353,0,67,67,15,1,fourthree,,,,,,,,,,,,,,,,,,,,,,,,,,,,,,,,,,,,,,,,,,,,,,,,,,,,,,,,,,,,,,,,,,,,,,,,,,,,,,,,,,,,,,,,,,,,,,,,,,,,,,,,,,,,,,,,,,,,,,,,,,,,,,,,,,,,,,,,,
,,613e868f4d6c157238b8fd87*,2024-02-18_20h10.02.646,kallum_motion_pilot,2023.2.2,Win32,59.17159763,613e868f4d6c157238b8fd87,65d2b6c8f2eece985d8e374c,65d2b83fe3f907e4ffc059f1,0.0353,0.0353,0,68,68,121,1,fiveseven,,,,,,,,,,,,,,,,,,,,,,,,,,,,,,,,,,,,,,,,,,,,,,,,,,,,,,,,,,,,,,,,,,,,,,,,,,,,,,,,,,,,,,,,,,,,,,,,,,,,,,,,,,,,,,,,,,,,,,,,,,,,,,,,,,,,,,,,,
,,613e868f4d6c157238b8fd87*,2024-02-18_20h10.02.646,kallum_motion_pilot,2023.2.2,Win32,59.17159763,613e868f4d6c157238b8fd87,65d2b6c8f2eece985d8e374c,65d2b83fe3f907e4ffc059f1,0.0354,0.0355,0,69,69,101,1,seveneight,,,,,,,,,,,,,,,,,,,,,,,,,,,,,,,,,,,,,,,,,,,,,,,,,,,,,,,,,,,,,,,,,,,,,,,,,,,,,,,,,,,,,,,,,,,,,,,,,,,,,,,,,,,,,,,,,,,,,,,,,,,,,,,,,,,,,,,,,
,,613e868f4d6c157238b8fd87*,2024-02-18_20h10.02.646,kallum_motion_pilot,2023.2.2,Win32,59.17159763,613e868f4d6c157238b8fd87,65d2b6c8f2eece985d8e374c,65d2b83fe3f907e4ffc059f1,0.0356,0.0357,0,70,70,46,1,fourtwo,,,,,,,,,,,,,,,,,,,,,,,,,,,,,,,,,,,,,,,,,,,,,,,,,,,,,,,,,,,,,,,,,,,,,,,,,,,,,,,,,,,,,,,,,,,,,,,,,,,,,,,,,,,,,,,,,,,,,,,,,,,,,,,,,,,,,,,,,
,,613e868f4d6c157238b8fd87*,2024-02-18_20h10.02.646,kallum_motion_pilot,2023.2.2,Win32,59.17159763,613e868f4d6c157238b8fd87,65d2b6c8f2eece985d8e374c,65d2b83fe3f907e4ffc059f1,0.0357,0.0357,0,71,71,23,1,fourthree,,,,,,,,,,,,,,,,,,,,,,,,,,,,,,,,,,,,,,,,,,,,,,,,,,,,,,,,,,,,,,,,,,,,,,,,,,,,,,,,,,,,,,,,,,,,,,,,,,,,,,,,,,,,,,,,,,,,,,,,,,,,,,,,,,,,,,,,,
,,613e868f4d6c157238b8fd87*,2024-02-18_20h10.02.646,kallum_motion_pilot,2023.2.2,Win32,59.17159763,613e868f4d6c157238b8fd87,65d2b6c8f2eece985d8e374c,65d2b83fe3f907e4ffc059f1,0.0358,0.0358,0,72,72,47,1,fourthree,,,,,,,,,,,,,,,,,,,,,,,,,,,,,,,,,,,,,,,,,,,,,,,,,,,,,,,,,,,,,,,,,,,,,,,,,,,,,,,,,,,,,,,,,,,,,,,,,,,,,,,,,,,,,,,,,,,,,,,,,,,,,,,,,,,,,,,,,
,,613e868f4d6c157238b8fd87*,2024-02-18_20h10.02.646,kallum_motion_pilot,2023.2.2,Win32,59.17159763,613e868f4d6c157238b8fd87,65d2b6c8f2eece985d8e374c,65d2b83fe3f907e4ffc059f1,0.0359,0.036,0,73,73,104,1,fivesix,,,,,,,,,,,,,,,,,,,,,,,,,,,,,,,,,,,,,,,,,,,,,,,,,,,,,,,,,,,,,,,,,,,,,,,,,,,,,,,,,,,,,,,,,,,,,,,,,,,,,,,,,,,,,,,,,,,,,,,,,,,,,,,,,,,,,,,,,
,,613e868f4d6c157238b8fd87*,2024-02-18_20h10.02.646,kallum_motion_pilot,2023.2.2,Win32,59.17159763,613e868f4d6c157238b8fd87,65d2b6c8f2eece985d8e374c,65d2b83fe3f907e4ffc059f1,0.036,0.0361,0,74,74,74,1,twoone,,,,,,,,,,,,,,,,,,,,,,,,,,,,,,,,,,,,,,,,,,,,,,,,,,,,,,,,,,,,,,,,,,,,,,,,,,,,,,,,,,,,,,,,,,,,,,,,,,,,,,,,,,,,,,,,,,,,,,,,,,,,,,,,,,,,,,,,,
,,613e868f4d6c157238b8fd87*,2024-02-18_20h10.02.646,kallum_motion_pilot,2023.2.2,Win32,59.17159763,613e868f4d6c157238b8fd87,65d2b6c8f2eece985d8e374c,65d2b83fe3f907e4ffc059f1,0.0362,0.0363,0,75,75,34,1,twoone,,,,,,,,,,,,,,,,,,,,,,,,,,,,,,,,,,,,,,,,,,,,,,,,,,,,,,,,,,,,,,,,,,,,,,,,,,,,,,,,,,,,,,,,,,,,,,,,,,,,,,,,,,,,,,,,,,,,,,,,,,,,,,,,,,,,,,,,,
,,613e868f4d6c157238b8fd87*,2024-02-18_20h10.02.646,kallum_motion_pilot,2023.2.2,Win32,59.17159763,613e868f4d6c157238b8fd87,65d2b6c8f2eece985d8e374c,65d2b83fe3f907e4ffc059f1,0.0366,0.0368,0,76,76,131,1,sixeight,,,,,,,,,,,,,,,,,,,,,,,,,,,,,,,,,,,,,,,,,,,,,,,,,,,,,,,,,,,,,,,,,,,,,,,,,,,,,,,,,,,,,,,,,,,,,,,,,,,,,,,,,,,,,,,,,,,,,,,,,,,,,,,,,,,,,,,,,
,,613e868f4d6c157238b8fd87*,2024-02-18_20h10.02.646,kallum_motion_pilot,2023.2.2,Win32,59.17159763,613e868f4d6c157238b8fd87,65d2b6c8f2eece985d8e374c,65d2b83fe3f907e4ffc059f1,0.0369,0.0384,0,77,77,83,1,sixeight,,,,,,,,,,,,,,,,,,,,,,,,,,,,,,,,,,,,,,,,,,,,,,,,,,,,,,,,,,,,,,,,,,,,,,,,,,,,,,,,,,,,,,,,,,,,,,,,,,,,,,,,,,,,,,,,,,,,,,,,,,,,,,,,,,,,,,,,,
,,613e868f4d6c157238b8fd87*,2024-02-18_20h10.02.646,kallum_motion_pilot,2023.2.2,Win32,59.17159763,613e868f4d6c157238b8fd87,65d2b6c8f2eece985d8e374c,65d2b83fe3f907e4ffc059f1,0.0386,0.0388,0,78,78,157,1,seveneight,,,,,,,,,,,,,,,,,,,,,,,,,,,,,,,,,,,,,,,,,,,,,,,,,,,,,,,,,,,,,,,,,,,,,,,,,,,,,,,,,,,,,,,,,,,,,,,,,,,,,,,,,,,,,,,,,,,,,,,,,,,,,,,,,,,,,,,,,
,,613e868f4d6c157238b8fd87*,2024-02-18_20h10.02.646,kallum_motion_pilot,2023.2.2,Win32,59.17159763,613e868f4d6c157238b8fd87,65d2b6c8f2eece985d8e374c,65d2b83fe3f907e4ffc059f1,0.0388,0.0388,0,79,79,53,1,threefour,,,,,,,,,,,,,,,,,,,,,,,,,,,,,,,,,,,,,,,,,,,,,,,,,,,,,,,,,,,,,,,,,,,,,,,,,,,,,,,,,,,,,,,,,,,,,,,,,,,,,,,,,,,,,,,,,,,,,,,,,,,,,,,,,,,,,,,,,
,,613e868f4d6c157238b8fd87*,2024-02-18_20h10.02.646,kallum_motion_pilot,2023.2.2,Win32,59.17159763,613e868f4d6c157238b8fd87,65d2b6c8f2eece985d8e374c,65d2b83fe3f907e4ffc059f1,0.039,0.039,0,80,80,153,1,fiveseven,,,,,,,,,,,,,,,,,,,,,,,,,,,,,,,,,,,,,,,,,,,,,,,,,,,,,,,,,,,,,,,,,,,,,,,,,,,,,,,,,,,,,,,,,,,,,,,,,,,,,,,,,,,,,,,,,,,,,,,,,,,,,,,,,,,,,,,,,
,,613e868f4d6c157238b8fd87*,2024-02-18_20h10.02.646,kallum_motion_pilot,2023.2.2,Win32,59.17159763,613e868f4d6c157238b8fd87,65d2b6c8f2eece985d8e374c,65d2b83fe3f907e4ffc059f1,0.0391,0.0391,0,81,81,108,1,sevenfive,,,,,,,,,,,,,,,,,,,,,,,,,,,,,,,,,,,,,,,,,,,,,,,,,,,,,,,,,,,,,,,,,,,,,,,,,,,,,,,,,,,,,,,,,,,,,,,,,,,,,,,,,,,,,,,,,,,,,,,,,,,,,,,,,,,,,,,,,
,,613e868f4d6c157238b8fd87*,2024-02-18_20h10.02.646,kallum_motion_pilot,2023.2.2,Win32,59.17159763,613e868f4d6c157238b8fd87,65d2b6c8f2eece985d8e374c,65d2b83fe3f907e4ffc059f1,0.0392,0.0393,0,82,82,110,1,eightsix,,,,,,,,,,,,,,,,,,,,,,,,,,,,,,,,,,,,,,,,,,,,,,,,,,,,,,,,,,,,,,,,,,,,,,,,,,,,,,,,,,,,,,,,,,,,,,,,,,,,,,,,,,,,,,,,,,,,,,,,,,,,,,,,,,,,,,,,,
,,613e868f4d6c157238b8fd87*,2024-02-18_20h10.02.646,kallum_motion_pilot,2023.2.2,Win32,59.17159763,613e868f4d6c157238b8fd87,65d2b6c8f2eece985d8e374c,65d2b83fe3f907e4ffc059f1,0.0394,0.0395,0,83,83,99,1,sixeight,,,,,,,,,,,,,,,,,,,,,,,,,,,,,,,,,,,,,,,,,,,,,,,,,,,,,,,,,,,,,,,,,,,,,,,,,,,,,,,,,,,,,,,,,,,,,,,,,,,,,,,,,,,,,,,,,,,,,,,,,,,,,,,,,,,,,,,,,
,,613e868f4d6c157238b8fd87*,2024-02-18_20h10.02.646,kallum_motion_pilot,2023.2.2,Win32,59.17159763,613e868f4d6c157238b8fd87,65d2b6c8f2eece985d8e374c,65d2b83fe3f907e4ffc059f1,0.0396,0.0398,0,84,84,72,1,onetwo,,,,,,,,,,,,,,,,,,,,,,,,,,,,,,,,,,,,,,,,,,,,,,,,,,,,,,,,,,,,,,,,,,,,,,,,,,,,,,,,,,,,,,,,,,,,,,,,,,,,,,,,,,,,,,,,,,,,,,,,,,,,,,,,,,,,,,,,,
,,613e868f4d6c157238b8fd87*,2024-02-18_20h10.02.646,kallum_motion_pilot,2023.2.2,Win32,59.17159763,613e868f4d6c157238b8fd87,65d2b6c8f2eece985d8e374c,65d2b83fe3f907e4ffc059f1,0.0399,0.0399,0,85,85,137,1,fiveseven,,,,,,,,,,,,,,,,,,,,,,,,,,,,,,,,,,,,,,,,,,,,,,,,,,,,,,,,,,,,,,,,,,,,,,,,,,,,,,,,,,,,,,,,,,,,,,,,,,,,,,,,,,,,,,,,,,,,,,,,,,,,,,,,,,,,,,,,,
,,613e868f4d6c157238b8fd87*,2024-02-18_20h10.02.646,kallum_motion_pilot,2023.2.2,Win32,59.17159763,613e868f4d6c157238b8fd87,65d2b6c8f2eece985d8e374c,65d2b83fe3f907e4ffc059f1,0.04,0.04,0,86,86,86,1,eightsix,,,,,,,,,,,,,,,,,,,,,,,,,,,,,,,,,,,,,,,,,,,,,,,,,,,,,,,,,,,,,,,,,,,,,,,,,,,,,,,,,,,,,,,,,,,,,,,,,,,,,,,,,,,,,,,,,,,,,,,,,,,,,,,,,,,,,,,,,
,,613e868f4d6c157238b8fd87*,2024-02-18_20h10.02.646,kallum_motion_pilot,2023.2.2,Win32,59.17159763,613e868f4d6c157238b8fd87,65d2b6c8f2eece985d8e374c,65d2b83fe3f907e4ffc059f1,0.0401,0.0402,0,87,87,51,1,twofour,,,,,,,,,,,,,,,,,,,,,,,,,,,,,,,,,,,,,,,,,,,,,,,,,,,,,,,,,,,,,,,,,,,,,,,,,,,,,,,,,,,,,,,,,,,,,,,,,,,,,,,,,,,,,,,,,,,,,,,,,,,,,,,,,,,,,,,,,
,,613e868f4d6c157238b8fd87*,2024-02-18_20h10.02.646,kallum_motion_pilot,2023.2.2,Win32,59.17159763,613e868f4d6c157238b8fd87,65d2b6c8f2eece985d8e374c,65d2b83fe3f907e4ffc059f1,0.0402,0.0404,0,88,88,128,1,fivesix,,,,,,,,,,,,,,,,,,,,,,,,,,,,,,,,,,,,,,,,,,,,,,,,,,,,,,,,,,,,,,,,,,,,,,,,,,,,,,,,,,,,,,,,,,,,,,,,,,,,,,,,,,,,,,,,,,,,,,,,,,,,,,,,,,,,,,,,,
,,613e868f4d6c157238b8fd87*,2024-02-18_20h10.02.646,kallum_motion_pilot,2023.2.2,Win32,59.17159763,613e868f4d6c157238b8fd87,65d2b6c8f2eece985d8e374c,65d2b83fe3f907e4ffc059f1,0.0405,0.0405,0,89,89,107,1,sixeight,,,,,,,,,,,,,,,,,,,,,,,,,,,,,,,,,,,,,,,,,,,,,,,,,,,,,,,,,,,,,,,,,,,,,,,,,,,,,,,,,,,,,,,,,,,,,,,,,,,,,,,,,,,,,,,,,,,,,,,,,,,,,,,,,,,,,,,,,
,,613e868f4d6c157238b8fd87*,2024-02-18_20h10.02.646,kallum_motion_pilot,2023.2.2,Win32,59.17159763,613e868f4d6c157238b8fd87,65d2b6c8f2eece985d8e374c,65d2b83fe3f907e4ffc059f1,0.0406,0.0407,0,90,90,135,1,eightseven,,,,,,,,,,,,,,,,,,,,,,,,,,,,,,,,,,,,,,,,,,,,,,,,,,,,,,,,,,,,,,,,,,,,,,,,,,,,,,,,,,,,,,,,,,,,,,,,,,,,,,,,,,,,,,,,,,,,,,,,,,,,,,,,,,,,,,,,,
,,613e868f4d6c157238b8fd87*,2024-02-18_20h10.02.646,kallum_motion_pilot,2023.2.2,Win32,59.17159763,613e868f4d6c157238b8fd87,65d2b6c8f2eece985d8e374c,65d2b83fe3f907e4ffc059f1,0.0407,0.0407,0,91,91,125,1,seveneight,,,,,,,,,,,,,,,,,,,,,,,,,,,,,,,,,,,,,,,,,,,,,,,,,,,,,,,,,,,,,,,,,,,,,,,,,,,,,,,,,,,,,,,,,,,,,,,,,,,,,,,,,,,,,,,,,,,,,,,,,,,,,,,,,,,,,,,,,
,,613e868f4d6c157238b8fd87*,2024-02-18_20h10.02.646,kallum_motion_pilot,2023.2.2,Win32,59.17159763,613e868f4d6c157238b8fd87,65d2b6c8f2eece985d8e374c,65d2b83fe3f907e4ffc059f1,0.0408,0.0409,0,92,92,78,1,fourtwo,,,,,,,,,,,,,,,,,,,,,,,,,,,,,,,,,,,,,,,,,,,,,,,,,,,,,,,,,,,,,,,,,,,,,,,,,,,,,,,,,,,,,,,,,,,,,,,,,,,,,,,,,,,,,,,,,,,,,,,,,,,,,,,,,,,,,,,,,
,,613e868f4d6c157238b8fd87*,2024-02-18_20h10.02.646,kallum_motion_pilot,2023.2.2,Win32,59.17159763,613e868f4d6c157238b8fd87,65d2b6c8f2eece985d8e374c,65d2b83fe3f907e4ffc059f1,0.041,0.0411,0,93,93,88,1,fivesix,,,,,,,,,,,,,,,,,,,,,,,,,,,,,,,,,,,,,,,,,,,,,,,,,,,,,,,,,,,,,,,,,,,,,,,,,,,,,,,,,,,,,,,,,,,,,,,,,,,,,,,,,,,,,,,,,,,,,,,,,,,,,,,,,,,,,,,,,
,,613e868f4d6c157238b8fd87*,2024-02-18_20h10.02.646,kallum_motion_pilot,2023.2.2,Win32,59.17159763,613e868f4d6c157238b8fd87,65d2b6c8f2eece985d8e374c,65d2b83fe3f907e4ffc059f1,0.0411,0.0412,0,94,94,143,1,eightseven,,,,,,,,,,,,,,,,,,,,,,,,,,,,,,,,,,,,,,,,,,,,,,,,,,,,,,,,,,,,,,,,,,,,,,,,,,,,,,,,,,,,,,,,,,,,,,,,,,,,,,,,,,,,,,,,,,,,,,,,,,,,,,,,,,,,,,,,,
,,613e868f4d6c157238b8fd87*,2024-02-18_20h10.02.646,kallum_motion_pilot,2023.2.2,Win32,59.17159763,613e868f4d6c157238b8fd87,65d2b6c8f2eece985d8e374c,65d2b83fe3f907e4ffc059f1,0.0413,0.0413,0,95,95,106,1,sixfive,,,,,,,,,,,,,,,,,,,,,,,,,,,,,,,,,,,,,,,,,,,,,,,,,,,,,,,,,,,,,,,,,,,,,,,,,,,,,,,,,,,,,,,,,,,,,,,,,,,,,,,,,,,,,,,,,,,,,,,,,,,,,,,,,,,,,,,,,
,,613e868f4d6c157238b8fd87*,2024-02-18_20h10.02.646,kallum_motion_pilot,2023.2.2,Win32,59.17159763,613e868f4d6c157238b8fd87,65d2b6c8f2eece985d8e374c,65d2b83fe3f907e4ffc059f1,0.0414,0.0415,0,96,96,20,1,threeone,,,,,,,,,,,,,,,,,,,,,,,,,,,,,,,,,,,,,,,,,,,,,,,,,,,,,,,,,,,,,,,,,,,,,,,,,,,,,,,,,,,,,,,,,,,,,,,,,,,,,,,,,,,,,,,,,,,,,,,,,,,,,,,,,,,,,,,,,
,,613e868f4d6c157238b8fd87*,2024-02-18_20h10.02.646,kallum_motion_pilot,2023.2.2,Win32,59.17159763,613e868f4d6c157238b8fd87,65d2b6c8f2eece985d8e374c,65d2b83fe3f907e4ffc059f1,0.0415,0.0416,0,97,97,91,1,sixeight,,,,,,,,,,,,,,,,,,,,,,,,,,,,,,,,,,,,,,,,,,,,,,,,,,,,,,,,,,,,,,,,,,,,,,,,,,,,,,,,,,,,,,,,,,,,,,,,,,,,,,,,,,,,,,,,,,,,,,,,,,,,,,,,,,,,,,,,,
,,613e868f4d6c157238b8fd87*,2024-02-18_20h10.02.646,kallum_motion_pilot,2023.2.2,Win32,59.17159763,613e868f4d6c157238b8fd87,65d2b6c8f2eece985d8e374c,65d2b83fe3f907e4ffc059f1,0.0416,0.0417,0,98,98,17,1,onethree,,,,,,,,,,,,,,,,,,,,,,,,,,,,,,,,,,,,,,,,,,,,,,,,,,,,,,,,,,,,,,,,,,,,,,,,,,,,,,,,,,,,,,,,,,,,,,,,,,,,,,,,,,,,,,,,,,,,,,,,,,,,,,,,,,,,,,,,,
,,613e868f4d6c157238b8fd87*,2024-02-18_20h10.02.646,kallum_motion_pilot,2023.2.2,Win32,59.17159763,613e868f4d6c157238b8fd87,65d2b6c8f2eece985d8e374c,65d2b83fe3f907e4ffc059f1,0.0418,0.0419,0,99,99,32,1,onetwo,,,,,,,,,,,,,,,,,,,,,,,,,,,,,,,,,,,,,,,,,,,,,,,,,,,,,,,,,,,,,,,,,,,,,,,,,,,,,,,,,,,,,,,,,,,,,,,,,,,,,,,,,,,,,,,,,,,,,,,,,,,,,,,,,,,,,,,,,
,,613e868f4d6c157238b8fd87*,2024-02-18_20h10.02.646,kallum_motion_pilot,2023.2.2,Win32,59.17159763,613e868f4d6c157238b8fd87,65d2b6c8f2eece985d8e374c,65d2b83fe3f907e4ffc059f1,0.042,0.042,0,100,100,151,1,eightseven,,,,,,,,,,,,,,,,,,,,,,,,,,,,,,,,,,,,,,,,,,,,,,,,,,,,,,,,,,,,,,,,,,,,,,,,,,,,,,,,,,,,,,,,,,,,,,,,,,,,,,,,,,,,,,,,,,,,,,,,,,,,,,,,,,,,,,,,,
,,613e868f4d6c157238b8fd87*,2024-02-18_20h10.02.646,kallum_motion_pilot,2023.2.2,Win32,59.17159763,613e868f4d6c157238b8fd87,65d2b6c8f2eece985d8e374c,65d2b83fe3f907e4ffc059f1,0.0422,0.0422,0,101,101,132,1,sevenfive,,,,,,,,,,,,,,,,,,,,,,,,,,,,,,,,,,,,,,,,,,,,,,,,,,,,,,,,,,,,,,,,,,,,,,,,,,,,,,,,,,,,,,,,,,,,,,,,,,,,,,,,,,,,,,,,,,,,,,,,,,,,,,,,,,,,,,,,,
,,613e868f4d6c157238b8fd87*,2024-02-18_20h10.02.646,kallum_motion_pilot,2023.2.2,Win32,59.17159763,613e868f4d6c157238b8fd87,65d2b6c8f2eece985d8e374c,65d2b83fe3f907e4ffc059f1,0.0423,0.0423,0,102,102,77,1,threefour,,,,,,,,,,,,,,,,,,,,,,,,,,,,,,,,,,,,,,,,,,,,,,,,,,,,,,,,,,,,,,,,,,,,,,,,,,,,,,,,,,,,,,,,,,,,,,,,,,,,,,,,,,,,,,,,,,,,,,,,,,,,,,,,,,,,,,,,,
,,613e868f4d6c157238b8fd87*,2024-02-18_20h10.02.646,kallum_motion_pilot,2023.2.2,Win32,59.17159763,613e868f4d6c157238b8fd87,65d2b6c8f2eece985d8e374c,65d2b83fe3f907e4ffc059f1,0.0424,0.0424,0,103,103,26,1,twoone,,,,,,,,,,,,,,,,,,,,,,,,,,,,,,,,,,,,,,,,,,,,,,,,,,,,,,,,,,,,,,,,,,,,,,,,,,,,,,,,,,,,,,,,,,,,,,,,,,,,,,,,,,,,,,,,,,,,,,,,,,,,,,,,,,,,,,,,,
,,613e868f4d6c157238b8fd87*,2024-02-18_20h10.02.646,kallum_motion_pilot,2023.2.2,Win32,59.17159763,613e868f4d6c157238b8fd87,65d2b6c8f2eece985d8e374c,65d2b83fe3f907e4ffc059f1,0.0426,0.0426,0,104,104,155,1,sixeight,,,,,,,,,,,,,,,,,,,,,,,,,,,,,,,,,,,,,,,,,,,,,,,,,,,,,,,,,,,,,,,,,,,,,,,,,,,,,,,,,,,,,,,,,,,,,,,,,,,,,,,,,,,,,,,,,,,,,,,,,,,,,,,,,,,,,,,,,
,,613e868f4d6c157238b8fd87*,2024-02-18_20h10.02.646,kallum_motion_pilot,2023.2.2,Win32,59.17159763,613e868f4d6c157238b8fd87,65d2b6c8f2eece985d8e374c,65d2b83fe3f907e4ffc059f1,0.0427,0.0427,0,105,105,31,1,fourthree,,,,,,,,,,,,,,,,,,,,,,,,,,,,,,,,,,,,,,,,,,,,,,,,,,,,,,,,,,,,,,,,,,,,,,,,,,,,,,,,,,,,,,,,,,,,,,,,,,,,,,,,,,,,,,,,,,,,,,,,,,,,,,,,,,,,,,,,,
,,613e868f4d6c157238b8fd87*,2024-02-18_20h10.02.646,kallum_motion_pilot,2023.2.2,Win32,59.17159763,613e868f4d6c157238b8fd87,65d2b6c8f2eece985d8e374c,65d2b83fe3f907e4ffc059f1,0.0428,0.0429,0,106,106,159,1,eightseven,,,,,,,,,,,,,,,,,,,,,,,,,,,,,,,,,,,,,,,,,,,,,,,,,,,,,,,,,,,,,,,,,,,,,,,,,,,,,,,,,,,,,,,,,,,,,,,,,,,,,,,,,,,,,,,,,,,,,,,,,,,,,,,,,,,,,,,,,
,,613e868f4d6c157238b8fd87*,2024-02-18_20h10.02.646,kallum_motion_pilot,2023.2.2,Win32,59.17159763,613e868f4d6c157238b8fd87,65d2b6c8f2eece985d8e374c,65d2b83fe3f907e4ffc059f1,0.043,0.043,0,107,107,89,1,fiveseven,,,,,,,,,,,,,,,,,,,,,,,,,,,,,,,,,,,,,,,,,,,,,,,,,,,,,,,,,,,,,,,,,,,,,,,,,,,,,,,,,,,,,,,,,,,,,,,,,,,,,,,,,,,,,,,,,,,,,,,,,,,,,,,,,,,,,,,,,
,,613e868f4d6c157238b8fd87*,2024-02-18_20h10.02.646,kallum_motion_pilot,2023.2.2,Win32,59.17159763,613e868f4d6c157238b8fd87,65d2b6c8f2eece985d8e374c,65d2b83fe3f907e4ffc059f1,0.0431,0.0431,0,108,108,103,1,eightseven,,,,,,,,,,,,,,,,,,,,,,,,,,,,,,,,,,,,,,,,,,,,,,,,,,,,,,,,,,,,,,,,,,,,,,,,,,,,,,,,,,,,,,,,,,,,,,,,,,,,,,,,,,,,,,,,,,,,,,,,,,,,,,,,,,,,,,,,,
,,613e868f4d6c157238b8fd87*,2024-02-18_20h10.02.646,kallum_motion_pilot,2023.2.2,Win32,59.17159763,613e868f4d6c157238b8fd87,65d2b6c8f2eece985d8e374c,65d2b83fe3f907e4ffc059f1,0.0433,0.0434,0,109,109,67,1,twofour,,,,,,,,,,,,,,,,,,,,,,,,,,,,,,,,,,,,,,,,,,,,,,,,,,,,,,,,,,,,,,,,,,,,,,,,,,,,,,,,,,,,,,,,,,,,,,,,,,,,,,,,,,,,,,,,,,,,,,,,,,,,,,,,,,,,,,,,,
,,613e868f4d6c157238b8fd87*,2024-02-18_20h10.02.646,kallum_motion_pilot,2023.2.2,Win32,59.17159763,613e868f4d6c157238b8fd87,65d2b6c8f2eece985d8e374c,65d2b83fe3f907e4ffc059f1,0.0435,0.0435,0,110,110,60,1,threeone,,,,,,,,,,,,,,,,,,,,,,,,,,,,,,,,,,,,,,,,,,,,,,,,,,,,,,,,,,,,,,,,,,,,,,,,,,,,,,,,,,,,,,,,,,,,,,,,,,,,,,,,,,,,,,,,,,,,,,,,,,,,,,,,,,,,,,,,,
,,613e868f4d6c157238b8fd87*,2024-02-18_20h10.02.646,kallum_motion_pilot,2023.2.2,Win32,59.17159763,613e868f4d6c157238b8fd87,65d2b6c8f2eece985d8e374c,65d2b83fe3f907e4ffc059f1,0.0435,0.0436,0,111,111,50,1,twoone,,,,,,,,,,,,,,,,,,,,,,,,,,,,,,,,,,,,,,,,,,,,,,,,,,,,,,,,,,,,,,,,,,,,,,,,,,,,,,,,,,,,,,,,,,,,,,,,,,,,,,,,,,,,,,,,,,,,,,,,,,,,,,,,,,,,,,,,,
,,613e868f4d6c157238b8fd87*,2024-02-18_20h10.02.646,kallum_motion_pilot,2023.2.2,Win32,59.17159763,613e868f4d6c157238b8fd87,65d2b6c8f2eece985d8e374c,65d2b83fe3f907e4ffc059f1,0.0438,0.0439,0,112,112,79,1,eightseven,,,,,,,,,,,,,,,,,,,,,,,,,,,,,,,,,,,,,,,,,,,,,,,,,,,,,,,,,,,,,,,,,,,,,,,,,,,,,,,,,,,,,,,,,,,,,,,,,,,,,,,,,,,,,,,,,,,,,,,,,,,,,,,,,,,,,,,,,
,,613e868f4d6c157238b8fd87*,2024-02-18_20h10.02.646,kallum_motion_pilot,2023.2.2,Win32,59.17159763,613e868f4d6c157238b8fd87,65d2b6c8f2eece985d8e374c,65d2b83fe3f907e4ffc059f1,0.044,0.0441,0,113,113,96,1,fivesix,,,,,,,,,,,,,,,,,,,,,,,,,,,,,,,,,,,,,,,,,,,,,,,,,,,,,,,,,,,,,,,,,,,,,,,,,,,,,,,,,,,,,,,,,,,,,,,,,,,,,,,,,,,,,,,,,,,,,,,,,,,,,,,,,,,,,,,,,
,,613e868f4d6c157238b8fd87*,2024-02-18_20h10.02.646,kallum_motion_pilot,2023.2.2,Win32,59.17159763,613e868f4d6c157238b8fd87,65d2b6c8f2eece985d8e374c,65d2b83fe3f907e4ffc059f1,0.0442,0.0442,0,114,114,141,1,seveneight,,,,,,,,,,,,,,,,,,,,,,,,,,,,,,,,,,,,,,,,,,,,,,,,,,,,,,,,,,,,,,,,,,,,,,,,,,,,,,,,,,,,,,,,,,,,,,,,,,,,,,,,,,,,,,,,,,,,,,,,,,,,,,,,,,,,,,,,,
,,613e868f4d6c157238b8fd87*,2024-02-18_20h10.02.646,kallum_motion_pilot,2023.2.2,Win32,59.17159763,613e868f4d6c157238b8fd87,65d2b6c8f2eece985d8e374c,65d2b83fe3f907e4ffc059f1,0.0443,0.0444,0,115,115,64,1,onetwo,,,,,,,,,,,,,,,,,,,,,,,,,,,,,,,,,,,,,,,,,,,,,,,,,,,,,,,,,,,,,,,,,,,,,,,,,,,,,,,,,,,,,,,,,,,,,,,,,,,,,,,,,,,,,,,,,,,,,,,,,,,,,,,,,,,,,,,,,
,,613e868f4d6c157238b8fd87*,2024-02-18_20h10.02.646,kallum_motion_pilot,2023.2.2,Win32,59.17159763,613e868f4d6c157238b8fd87,65d2b6c8f2eece985d8e374c,65d2b83fe3f907e4ffc059f1,0.0444,0.0445,0,116,116,158,1,eightsix,,,,,,,,,,,,,,,,,,,,,,,,,,,,,,,,,,,,,,,,,,,,,,,,,,,,,,,,,,,,,,,,,,,,,,,,,,,,,,,,,,,,,,,,,,,,,,,,,,,,,,,,,,,,,,,,,,,,,,,,,,,,,,,,,,,,,,,,,
,,613e868f4d6c157238b8fd87*,2024-02-18_20h10.02.646,kallum_motion_pilot,2023.2.2,Win32,59.17159763,613e868f4d6c157238b8fd87,65d2b6c8f2eece985d8e374c,65d2b83fe3f907e4ffc059f1,0.0445,0.0446,0,117,117,3,1,twofour,,,,,,,,,,,,,,,,,,,,,,,,,,,,,,,,,,,,,,,,,,,,,,,,,,,,,,,,,,,,,,,,,,,,,,,,,,,,,,,,,,,,,,,,,,,,,,,,,,,,,,,,,,,,,,,,,,,,,,,,,,,,,,,,,,,,,,,,,
,,613e868f4d6c157238b8fd87*,2024-02-18_20h10.02.646,kallum_motion_pilot,2023.2.2,Win32,59.17159763,613e868f4d6c157238b8fd87,65d2b6c8f2eece985d8e374c,65d2b83fe3f907e4ffc059f1,0.0446,0.0447,0,118,118,138,1,sixfive,,,,,,,,,,,,,,,,,,,,,,,,,,,,,,,,,,,,,,,,,,,,,,,,,,,,,,,,,,,,,,,,,,,,,,,,,,,,,,,,,,,,,,,,,,,,,,,,,,,,,,,,,,,,,,,,,,,,,,,,,,,,,,,,,,,,,,,,,
,,613e868f4d6c157238b8fd87*,2024-02-18_20h10.02.646,kallum_motion_pilot,2023.2.2,Win32,59.17159763,613e868f4d6c157238b8fd87,65d2b6c8f2eece985d8e374c,65d2b83fe3f907e4ffc059f1,0.0447,0.0447,0,119,119,144,1,fivesix,,,,,,,,,,,,,,,,,,,,,,,,,,,,,,,,,,,,,,,,,,,,,,,,,,,,,,,,,,,,,,,,,,,,,,,,,,,,,,,,,,,,,,,,,,,,,,,,,,,,,,,,,,,,,,,,,,,,,,,,,,,,,,,,,,,,,,,,,
,,613e868f4d6c157238b8fd87*,2024-02-18_20h10.02.646,kallum_motion_pilot,2023.2.2,Win32,59.17159763,613e868f4d6c157238b8fd87,65d2b6c8f2eece985d8e374c,65d2b83fe3f907e4ffc059f1,0.0448,0.0449,0,120,120,68,1,threeone,,,,,,,,,,,,,,,,,,,,,,,,,,,,,,,,,,,,,,,,,,,,,,,,,,,,,,,,,,,,,,,,,,,,,,,,,,,,,,,,,,,,,,,,,,,,,,,,,,,,,,,,,,,,,,,,,,,,,,,,,,,,,,,,,,,,,,,,,
,,613e868f4d6c157238b8fd87*,2024-02-18_20h10.02.646,kallum_motion_pilot,2023.2.2,Win32,59.17159763,613e868f4d6c157238b8fd87,65d2b6c8f2eece985d8e374c,65d2b83fe3f907e4ffc059f1,0.0449,0.045,0,121,121,40,1,onetwo,,,,,,,,,,,,,,,,,,,,,,,,,,,,,,,,,,,,,,,,,,,,,,,,,,,,,,,,,,,,,,,,,,,,,,,,,,,,,,,,,,,,,,,,,,,,,,,,,,,,,,,,,,,,,,,,,,,,,,,,,,,,,,,,,,,,,,,,,
,,613e868f4d6c157238b8fd87*,2024-02-18_20h10.02.646,kallum_motion_pilot,2023.2.2,Win32,59.17159763,613e868f4d6c157238b8fd87,65d2b6c8f2eece985d8e374c,65d2b83fe3f907e4ffc059f1,0.0451,0.0451,0,122,122,10,1,twoone,,,,,,,,,,,,,,,,,,,,,,,,,,,,,,,,,,,,,,,,,,,,,,,,,,,,,,,,,,,,,,,,,,,,,,,,,,,,,,,,,,,,,,,,,,,,,,,,,,,,,,,,,,,,,,,,,,,,,,,,,,,,,,,,,,,,,,,,,
,,613e868f4d6c157238b8fd87*,2024-02-18_20h10.02.646,kallum_motion_pilot,2023.2.2,Win32,59.17159763,613e868f4d6c157238b8fd87,65d2b6c8f2eece985d8e374c,65d2b83fe3f907e4ffc059f1,0.0451,0.0452,0,123,123,28,1,threeone,,,,,,,,,,,,,,,,,,,,,,,,,,,,,,,,,,,,,,,,,,,,,,,,,,,,,,,,,,,,,,,,,,,,,,,,,,,,,,,,,,,,,,,,,,,,,,,,,,,,,,,,,,,,,,,,,,,,,,,,,,,,,,,,,,,,,,,,,
,,613e868f4d6c157238b8fd87*,2024-02-18_20h10.02.646,kallum_motion_pilot,2023.2.2,Win32,59.17159763,613e868f4d6c157238b8fd87,65d2b6c8f2eece985d8e374c,65d2b83fe3f907e4ffc059f1,0.0452,0.0453,0,124,124,92,1,sevenfive,,,,,,,,,,,,,,,,,,,,,,,,,,,,,,,,,,,,,,,,,,,,,,,,,,,,,,,,,,,,,,,,,,,,,,,,,,,,,,,,,,,,,,,,,,,,,,,,,,,,,,,,,,,,,,,,,,,,,,,,,,,,,,,,,,,,,,,,,
,,613e868f4d6c157238b8fd87*,2024-02-18_20h10.02.646,kallum_motion_pilot,2023.2.2,Win32,59.17159763,613e868f4d6c157238b8fd87,65d2b6c8f2eece985d8e374c,65d2b83fe3f907e4ffc059f1,0.0454,0.0454,0,125,125,98,1,sixfive,,,,,,,,,,,,,,,,,,,,,,,,,,,,,,,,,,,,,,,,,,,,,,,,,,,,,,,,,,,,,,,,,,,,,,,,,,,,,,,,,,,,,,,,,,,,,,,,,,,,,,,,,,,,,,,,,,,,,,,,,,,,,,,,,,,,,,,,,
,,613e868f4d6c157238b8fd87*,2024-02-18_20h10.02.646,kallum_motion_pilot,2023.2.2,Win32,59.17159763,613e868f4d6c157238b8fd87,65d2b6c8f2eece985d8e374c,65d2b83fe3f907e4ffc059f1,0.0455,0.0455,0,126,126,111,1,eightseven,,,,,,,,,,,,,,,,,,,,,,,,,,,,,,,,,,,,,,,,,,,,,,,,,,,,,,,,,,,,,,,,,,,,,,,,,,,,,,,,,,,,,,,,,,,,,,,,,,,,,,,,,,,,,,,,,,,,,,,,,,,,,,,,,,,,,,,,,
,,613e868f4d6c157238b8fd87*,2024-02-18_20h10.02.646,kallum_motion_pilot,2023.2.2,Win32,59.17159763,613e868f4d6c157238b8fd87,65d2b6c8f2eece985d8e374c,65d2b83fe3f907e4ffc059f1,0.0457,0.0458,0,127,127,65,1,onethree,,,,,,,,,,,,,,,,,,,,,,,,,,,,,,,,,,,,,,,,,,,,,,,,,,,,,,,,,,,,,,,,,,,,,,,,,,,,,,,,,,,,,,,,,,,,,,,,,,,,,,,,,,,,,,,,,,,,,,,,,,,,,,,,,,,,,,,,,
,,613e868f4d6c157238b8fd87*,2024-02-18_20h10.02.646,kallum_motion_pilot,2023.2.2,Win32,59.17159763,613e868f4d6c157238b8fd87,65d2b6c8f2eece985d8e374c,65d2b83fe3f907e4ffc059f1,0.0459,0.0459,0,128,128,95,1,eightseven,,,,,,,,,,,,,,,,,,,,,,,,,,,,,,,,,,,,,,,,,,,,,,,,,,,,,,,,,,,,,,,,,,,,,,,,,,,,,,,,,,,,,,,,,,,,,,,,,,,,,,,,,,,,,,,,,,,,,,,,,,,,,,,,,,,,,,,,,
,,613e868f4d6c157238b8fd87*,2024-02-18_20h10.02.646,kallum_motion_pilot,2023.2.2,Win32,59.17159763,613e868f4d6c157238b8fd87,65d2b6c8f2eece985d8e374c,65d2b83fe3f907e4ffc059f1,0.046,0.046,0,129,129,113,1,fiveseven,,,,,,,,,,,,,,,,,,,,,,,,,,,,,,,,,,,,,,,,,,,,,,,,,,,,,,,,,,,,,,,,,,,,,,,,,,,,,,,,,,,,,,,,,,,,,,,,,,,,,,,,,,,,,,,,,,,,,,,,,,,,,,,,,,,,,,,,,
,,613e868f4d6c157238b8fd87*,2024-02-18_20h10.02.646,kallum_motion_pilot,2023.2.2,Win32,59.17159763,613e868f4d6c157238b8fd87,65d2b6c8f2eece985d8e374c,65d2b83fe3f907e4ffc059f1,0.0461,0.0462,0,130,130,14,1,fourtwo,,,,,,,,,,,,,,,,,,,,,,,,,,,,,,,,,,,,,,,,,,,,,,,,,,,,,,,,,,,,,,,,,,,,,,,,,,,,,,,,,,,,,,,,,,,,,,,,,,,,,,,,,,,,,,,,,,,,,,,,,,,,,,,,,,,,,,,,,
,,613e868f4d6c157238b8fd87*,2024-02-18_20h10.02.646,kallum_motion_pilot,2023.2.2,Win32,59.17159763,613e868f4d6c157238b8fd87,65d2b6c8f2eece985d8e374c,65d2b83fe3f907e4ffc059f1,0.0462,0.0463,0,131,131,43,1,twofour,,,,,,,,,,,,,,,,,,,,,,,,,,,,,,,,,,,,,,,,,,,,,,,,,,,,,,,,,,,,,,,,,,,,,,,,,,,,,,,,,,,,,,,,,,,,,,,,,,,,,,,,,,,,,,,,,,,,,,,,,,,,,,,,,,,,,,,,,
,,613e868f4d6c157238b8fd87*,2024-02-18_20h10.02.646,kallum_motion_pilot,2023.2.2,Win32,59.17159763,613e868f4d6c157238b8fd87,65d2b6c8f2eece985d8e374c,65d2b83fe3f907e4ffc059f1,0.0464,0.0466,0,132,132,102,1,eightsix,,,,,,,,,,,,,,,,,,,,,,,,,,,,,,,,,,,,,,,,,,,,,,,,,,,,,,,,,,,,,,,,,,,,,,,,,,,,,,,,,,,,,,,,,,,,,,,,,,,,,,,,,,,,,,,,,,,,,,,,,,,,,,,,,,,,,,,,,
,,613e868f4d6c157238b8fd87*,2024-02-18_20h10.02.646,kallum_motion_pilot,2023.2.2,Win32,59.17159763,613e868f4d6c157238b8fd87,65d2b6c8f2eece985d8e374c,65d2b83fe3f907e4ffc059f1,0.0468,0.0469,0,133,133,35,1,twofour,,,,,,,,,,,,,,,,,,,,,,,,,,,,,,,,,,,,,,,,,,,,,,,,,,,,,,,,,,,,,,,,,,,,,,,,,,,,,,,,,,,,,,,,,,,,,,,,,,,,,,,,,,,,,,,,,,,,,,,,,,,,,,,,,,,,,,,,,
,,613e868f4d6c157238b8fd87*,2024-02-18_20h10.02.646,kallum_motion_pilot,2023.2.2,Win32,59.17159763,613e868f4d6c157238b8fd87,65d2b6c8f2eece985d8e374c,65d2b83fe3f907e4ffc059f1,0.047,0.0471,0,134,134,42,1,twoone,,,,,,,,,,,,,,,,,,,,,,,,,,,,,,,,,,,,,,,,,,,,,,,,,,,,,,,,,,,,,,,,,,,,,,,,,,,,,,,,,,,,,,,,,,,,,,,,,,,,,,,,,,,,,,,,,,,,,,,,,,,,,,,,,,,,,,,,,
,,613e868f4d6c157238b8fd87*,2024-02-18_20h10.02.646,kallum_motion_pilot,2023.2.2,Win32,59.17159763,613e868f4d6c157238b8fd87,65d2b6c8f2eece985d8e374c,65d2b83fe3f907e4ffc059f1,0.0473,0.0474,0,135,135,49,1,onethree,,,,,,,,,,,,,,,,,,,,,,,,,,,,,,,,,,,,,,,,,,,,,,,,,,,,,,,,,,,,,,,,,,,,,,,,,,,,,,,,,,,,,,,,,,,,,,,,,,,,,,,,,,,,,,,,,,,,,,,,,,,,,,,,,,,,,,,,,
,,613e868f4d6c157238b8fd87*,2024-02-18_20h10.02.646,kallum_motion_pilot,2023.2.2,Win32,59.17159763,613e868f4d6c157238b8fd87,65d2b6c8f2eece985d8e374c,65d2b83fe3f907e4ffc059f1,0.0476,0.0476,0,136,136,142,1,eightsix,,,,,,,,,,,,,,,,,,,,,,,,,,,,,,,,,,,,,,,,,,,,,,,,,,,,,,,,,,,,,,,,,,,,,,,,,,,,,,,,,,,,,,,,,,,,,,,,,,,,,,,,,,,,,,,,,,,,,,,,,,,,,,,,,,,,,,,,,
,,613e868f4d6c157238b8fd87*,2024-02-18_20h10.02.646,kallum_motion_pilot,2023.2.2,Win32,59.17159763,613e868f4d6c157238b8fd87,65d2b6c8f2eece985d8e374c,65d2b83fe3f907e4ffc059f1,0.0477,0.0478,0,137,137,150,1,eightsix,,,,,,,,,,,,,,,,,,,,,,,,,,,,,,,,,,,,,,,,,,,,,,,,,,,,,,,,,,,,,,,,,,,,,,,,,,,,,,,,,,,,,,,,,,,,,,,,,,,,,,,,,,,,,,,,,,,,,,,,,,,,,,,,,,,,,,,,,
,,613e868f4d6c157238b8fd87*,2024-02-18_20h10.02.646,kallum_motion_pilot,2023.2.2,Win32,59.17159763,613e868f4d6c157238b8fd87,65d2b6c8f2eece985d8e374c,65d2b83fe3f907e4ffc059f1,0.048,0.0481,0,138,138,148,1,sevenfive,,,,,,,,,,,,,,,,,,,,,,,,,,,,,,,,,,,,,,,,,,,,,,,,,,,,,,,,,,,,,,,,,,,,,,,,,,,,,,,,,,,,,,,,,,,,,,,,,,,,,,,,,,,,,,,,,,,,,,,,,,,,,,,,,,,,,,,,,
,,613e868f4d6c157238b8fd87*,2024-02-18_20h10.02.646,kallum_motion_pilot,2023.2.2,Win32,59.17159763,613e868f4d6c157238b8fd87,65d2b6c8f2eece985d8e374c,65d2b83fe3f907e4ffc059f1,0.0484,0.0484,0,139,139,109,1,seveneight,,,,,,,,,,,,,,,,,,,,,,,,,,,,,,,,,,,,,,,,,,,,,,,,,,,,,,,,,,,,,,,,,,,,,,,,,,,,,,,,,,,,,,,,,,,,,,,,,,,,,,,,,,,,,,,,,,,,,,,,,,,,,,,,,,,,,,,,,
,,613e868f4d6c157238b8fd87*,2024-02-18_20h10.02.646,kallum_motion_pilot,2023.2.2,Win32,59.17159763,613e868f4d6c157238b8fd87,65d2b6c8f2eece985d8e374c,65d2b83fe3f907e4ffc059f1,0.0485,0.0486,0,140,140,126,1,eightsix,,,,,,,,,,,,,,,,,,,,,,,,,,,,,,,,,,,,,,,,,,,,,,,,,,,,,,,,,,,,,,,,,,,,,,,,,,,,,,,,,,,,,,,,,,,,,,,,,,,,,,,,,,,,,,,,,,,,,,,,,,,,,,,,,,,,,,,,,
,,613e868f4d6c157238b8fd87*,2024-02-18_20h10.02.646,kallum_motion_pilot,2023.2.2,Win32,59.17159763,613e868f4d6c157238b8fd87,65d2b6c8f2eece985d8e374c,65d2b83fe3f907e4ffc059f1,0.0489,0.049,0,141,141,154,1,sixfive,,,,,,,,,,,,,,,,,,,,,,,,,,,,,,,,,,,,,,,,,,,,,,,,,,,,,,,,,,,,,,,,,,,,,,,,,,,,,,,,,,,,,,,,,,,,,,,,,,,,,,,,,,,,,,,,,,,,,,,,,,,,,,,,,,,,,,,,,
,,613e868f4d6c157238b8fd87*,2024-02-18_20h10.02.646,kallum_motion_pilot,2023.2.2,Win32,59.17159763,613e868f4d6c157238b8fd87,65d2b6c8f2eece985d8e374c,65d2b83fe3f907e4ffc059f1,0.0492,0.0493,0,142,142,123,1,sixeight,,,,,,,,,,,,,,,,,,,,,,,,,,,,,,,,,,,,,,,,,,,,,,,,,,,,,,,,,,,,,,,,,,,,,,,,,,,,,,,,,,,,,,,,,,,,,,,,,,,,,,,,,,,,,,,,,,,,,,,,,,,,,,,,,,,,,,,,,
,,613e868f4d6c157238b8fd87*,2024-02-18_20h10.02.646,kallum_motion_pilot,2023.2.2,Win32,59.17159763,613e868f4d6c157238b8fd87,65d2b6c8f2eece985d8e374c,65d2b83fe3f907e4ffc059f1,0.0493,0.0494,0,143,143,19,1,twofour,,,,,,,,,,,,,,,,,,,,,,,,,,,,,,,,,,,,,,,,,,,,,,,,,,,,,,,,,,,,,,,,,,,,,,,,,,,,,,,,,,,,,,,,,,,,,,,,,,,,,,,,,,,,,,,,,,,,,,,,,,,,,,,,,,,,,,,,,
,,613e868f4d6c157238b8fd87*,2024-02-18_20h10.02.646,kallum_motion_pilot,2023.2.2,Win32,59.17159763,613e868f4d6c157238b8fd87,65d2b6c8f2eece985d8e374c,65d2b83fe3f907e4ffc059f1,0.0496,0.0496,0,144,144,21,1,threefour,,,,,,,,,,,,,,,,,,,,,,,,,,,,,,,,,,,,,,,,,,,,,,,,,,,,,,,,,,,,,,,,,,,,,,,,,,,,,,,,,,,,,,,,,,,,,,,,,,,,,,,,,,,,,,,,,,,,,,,,,,,,,,,,,,,,,,,,,
,,613e868f4d6c157238b8fd87*,2024-02-18_20h10.02.646,kallum_motion_pilot,2023.2.2,Win32,59.17159763,613e868f4d6c157238b8fd87,65d2b6c8f2eece985d8e374c,65d2b83fe3f907e4ffc059f1,0.0497,0.0499,0,145,145,140,1,sevenfive,,,,,,,,,,,,,,,,,,,,,,,,,,,,,,,,,,,,,,,,,,,,,,,,,,,,,,,,,,,,,,,,,,,,,,,,,,,,,,,,,,,,,,,,,,,,,,,,,,,,,,,,,,,,,,,,,,,,,,,,,,,,,,,,,,,,,,,,,
,,613e868f4d6c157238b8fd87*,2024-02-18_20h10.02.646,kallum_motion_pilot,2023.2.2,Win32,59.17159763,613e868f4d6c157238b8fd87,65d2b6c8f2eece985d8e374c,65d2b83fe3f907e4ffc059f1,0.0499,0.05,0,146,146,84,1,sevenfive,,,,,,,,,,,,,,,,,,,,,,,,,,,,,,,,,,,,,,,,,,,,,,,,,,,,,,,,,,,,,,,,,,,,,,,,,,,,,,,,,,,,,,,,,,,,,,,,,,,,,,,,,,,,,,,,,,,,,,,,,,,,,,,,,,,,,,,,,
,,613e868f4d6c157238b8fd87*,2024-02-18_20h10.02.646,kallum_motion_pilot,2023.2.2,Win32,59.17159763,613e868f4d6c157238b8fd87,65d2b6c8f2eece985d8e374c,65d2b83fe3f907e4ffc059f1,0.0501,0.0502,0,147,147,66,1,twoone,,,,,,,,,,,,,,,,,,,,,,,,,,,,,,,,,,,,,,,,,,,,,,,,,,,,,,,,,,,,,,,,,,,,,,,,,,,,,,,,,,,,,,,,,,,,,,,,,,,,,,,,,,,,,,,,,,,,,,,,,,,,,,,,,,,,,,,,,
,,613e868f4d6c157238b8fd87*,2024-02-18_20h10.02.646,kallum_motion_pilot,2023.2.2,Win32,59.17159763,613e868f4d6c157238b8fd87,65d2b6c8f2eece985d8e374c,65d2b83fe3f907e4ffc059f1,0.0503,0.0503,0,148,148,1,1,onethree,,,,,,,,,,,,,,,,,,,,,,,,,,,,,,,,,,,,,,,,,,,,,,,,,,,,,,,,,,,,,,,,,,,,,,,,,,,,,,,,,,,,,,,,,,,,,,,,,,,,,,,,,,,,,,,,,,,,,,,,,,,,,,,,,,,,,,,,,
,,613e868f4d6c157238b8fd87*,2024-02-18_20h10.02.646,kallum_motion_pilot,2023.2.2,Win32,59.17159763,613e868f4d6c157238b8fd87,65d2b6c8f2eece985d8e374c,65d2b83fe3f907e4ffc059f1,0.0504,0.0504,0,149,149,81,1,fiveseven,,,,,,,,,,,,,,,,,,,,,,,,,,,,,,,,,,,,,,,,,,,,,,,,,,,,,,,,,,,,,,,,,,,,,,,,,,,,,,,,,,,,,,,,,,,,,,,,,,,,,,,,,,,,,,,,,,,,,,,,,,,,,,,,,,,,,,,,,
,,613e868f4d6c157238b8fd87*,2024-02-18_20h10.02.646,kallum_motion_pilot,2023.2.2,Win32,59.17159763,613e868f4d6c157238b8fd87,65d2b6c8f2eece985d8e374c,65d2b83fe3f907e4ffc059f1,0.0505,0.0506,0,150,150,18,1,twoone,,,,,,,,,,,,,,,,,,,,,,,,,,,,,,,,,,,,,,,,,,,,,,,,,,,,,,,,,,,,,,,,,,,,,,,,,,,,,,,,,,,,,,,,,,,,,,,,,,,,,,,,,,,,,,,,,,,,,,,,,,,,,,,,,,,,,,,,,
,,613e868f4d6c157238b8fd87*,2024-02-18_20h10.02.646,kallum_motion_pilot,2023.2.2,Win32,59.17159763,613e868f4d6c157238b8fd87,65d2b6c8f2eece985d8e374c,65d2b83fe3f907e4ffc059f1,0.0506,0.0506,0,151,151,62,1,fourtwo,,,,,,,,,,,,,,,,,,,,,,,,,,,,,,,,,,,,,,,,,,,,,,,,,,,,,,,,,,,,,,,,,,,,,,,,,,,,,,,,,,,,,,,,,,,,,,,,,,,,,,,,,,,,,,,,,,,,,,,,,,,,,,,,,,,,,,,,,
,,613e868f4d6c157238b8fd87*,2024-02-18_20h10.02.646,kallum_motion_pilot,2023.2.2,Win32,59.17159763,613e868f4d6c157238b8fd87,65d2b6c8f2eece985d8e374c,65d2b83fe3f907e4ffc059f1,0.0507,0.0507,0,152,152,122,1,sixfive,,,,,,,,,,,,,,,,,,,,,,,,,,,,,,,,,,,,,,,,,,,,,,,,,,,,,,,,,,,,,,,,,,,,,,,,,,,,,,,,,,,,,,,,,,,,,,,,,,,,,,,,,,,,,,,,,,,,,,,,,,,,,,,,,,,,,,,,,
,,613e868f4d6c157238b8fd87*,2024-02-18_20h10.02.646,kallum_motion_pilot,2023.2.2,Win32,59.17159763,613e868f4d6c157238b8fd87,65d2b6c8f2eece985d8e374c,65d2b83fe3f907e4ffc059f1,0.0508,0.0508,0,153,153,11,1,twofour,,,,,,,,,,,,,,,,,,,,,,,,,,,,,,,,,,,,,,,,,,,,,,,,,,,,,,,,,,,,,,,,,,,,,,,,,,,,,,,,,,,,,,,,,,,,,,,,,,,,,,,,,,,,,,,,,,,,,,,,,,,,,,,,,,,,,,,,,
,,613e868f4d6c157238b8fd87*,2024-02-18_20h10.02.646,kallum_motion_pilot,2023.2.2,Win32,59.17159763,613e868f4d6c157238b8fd87,65d2b6c8f2eece985d8e374c,65d2b83fe3f907e4ffc059f1,0.0509,0.0509,0,154,154,36,1,threeone,,,,,,,,,,,,,,,,,,,,,,,,,,,,,,,,,,,,,,,,,,,,,,,,,,,,,,,,,,,,,,,,,,,,,,,,,,,,,,,,,,,,,,,,,,,,,,,,,,,,,,,,,,,,,,,,,,,,,,,,,,,,,,,,,,,,,,,,,
,,613e868f4d6c157238b8fd87*,2024-02-18_20h10.02.646,kallum_motion_pilot,2023.2.2,Win32,59.17159763,613e868f4d6c157238b8fd87,65d2b6c8f2eece985d8e374c,65d2b83fe3f907e4ffc059f1,0.051,0.051,0,155,155,4,1,threeone,,,,,,,,,,,,,,,,,,,,,,,,,,,,,,,,,,,,,,,,,,,,,,,,,,,,,,,,,,,,,,,,,,,,,,,,,,,,,,,,,,,,,,,,,,,,,,,,,,,,,,,,,,,,,,,,,,,,,,,,,,,,,,,,,,,,,,,,,
,,613e868f4d6c157238b8fd87*,2024-02-18_20h10.02.646,kallum_motion_pilot,2023.2.2,Win32,59.17159763,613e868f4d6c157238b8fd87,65d2b6c8f2eece985d8e374c,65d2b83fe3f907e4ffc059f1,0.0511,0.0512,0,156,156,120,1,fivesix,,,,,,,,,,,,,,,,,,,,,,,,,,,,,,,,,,,,,,,,,,,,,,,,,,,,,,,,,,,,,,,,,,,,,,,,,,,,,,,,,,,,,,,,,,,,,,,,,,,,,,,,,,,,,,,,,,,,,,,,,,,,,,,,,,,,,,,,,
,,613e868f4d6c157238b8fd87*,2024-02-18_20h10.02.646,kallum_motion_pilot,2023.2.2,Win32,59.17159763,613e868f4d6c157238b8fd87,65d2b6c8f2eece985d8e374c,65d2b83fe3f907e4ffc059f1,0.0512,0.0513,0,157,157,5,1,threefour,,,,,,,,,,,,,,,,,,,,,,,,,,,,,,,,,,,,,,,,,,,,,,,,,,,,,,,,,,,,,,,,,,,,,,,,,,,,,,,,,,,,,,,,,,,,,,,,,,,,,,,,,,,,,,,,,,,,,,,,,,,,,,,,,,,,,,,,,
,,613e868f4d6c157238b8fd87*,2024-02-18_20h10.02.646,kallum_motion_pilot,2023.2.2,Win32,59.17159763,613e868f4d6c157238b8fd87,65d2b6c8f2eece985d8e374c,65d2b83fe3f907e4ffc059f1,0.0514,0.0514,0,158,158,37,1,threefour,,,,,,,,,,,,,,,,,,,,,,,,,,,,,,,,,,,,,,,,,,,,,,,,,,,,,,,,,,,,,,,,,,,,,,,,,,,,,,,,,,,,,,,,,,,,,,,,,,,,,,,,,,,,,,,,,,,,,,,,,,,,,,,,,,,,,,,,,
,,613e868f4d6c157238b8fd87*,2024-02-18_20h10.02.646,kallum_motion_pilot,2023.2.2,Win32,59.17159763,613e868f4d6c157238b8fd87,65d2b6c8f2eece985d8e374c,65d2b83fe3f907e4ffc059f1,0.0515,0.0515,0,159,159,56,1,onetwo,,,,,,,,,,,,,,,,,,,,,,,,,,,,,,,,,,,,,,,,,,,,,,,,,,,,,,,,,,,,,,,,,,,,,,,,,,,,,,,,,,,,,,,,,,,,,,,,,,,,,,,,,,,,,,,,,,,,,,,,,,,,,,,,,,,,,,,,,
,,613e868f4d6c157238b8fd87*,2024-02-18_20h10.02.646,kallum_motion_pilot,2023.2.2,Win32,59.17159763,613e868f4d6c157238b8fd87,65d2b6c8f2eece985d8e374c,65d2b83fe3f907e4ffc059f1,0.0515,0.0516,0,160,160,24,1,onetwo,,,,,,,,,,,,,,,,,,,,,,,,,,,,,,,,,,,,,,,,,,,,,,,,,,,,,,,,,,,,,,,,,,,,,,,,,,,,,,,,,,,,,,,,,,,,,,,,,,,,,,,,,,,,,,,,,,,,,,,,,,,,,,,,,,,,,,,,,
,,613e868f4d6c157238b8fd87*,2024-02-18_20h10.02.646,kallum_motion_pilot,2023.2.2,Win32,59.17159763,613e868f4d6c157238b8fd87,65d2b6c8f2eece985d8e374c,65d2b83fe3f907e4ffc059f1,0.0517,0.0517,0,161,161,63,1,fourthree,,,,,,,,,,,,,,,,,,,,,,,,,,,,,,,,,,,,,,,,,,,,,,,,,,,,,,,,,,,,,,,,,,,,,,,,,,,,,,,,,,,,,,,,,,,,,,,,,,,,,,,,,,,,,,,,,,,,,,,,,,,,,,,,,,,,,,,,,
,,613e868f4d6c157238b8fd87*,2024-02-18_20h10.02.646,kallum_motion_pilot,2023.2.2,Win32,59.17159763,613e868f4d6c157238b8fd87,65d2b6c8f2eece985d8e374c,65d2b83fe3f907e4ffc059f1,0.0517,0.0518,1,0,162,20,1,threeone,,,,,,,,,,,,,,,,,,,,,,,,,,,,,,,,,,,,,,,,,,,,,,,,,,,,,,,,,,,,,,,,,,,,,,,,,,,,,,,,,,,,,,,,,,,,,,,,,,,,,,,,,,,,,,,,,,,,,,,,,,,,,,,,,,,,,,,,,
,,613e868f4d6c157238b8fd87*,2024-02-18_20h10.02.646,kallum_motion_pilot,2023.2.2,Win32,59.17159763,613e868f4d6c157238b8fd87,65d2b6c8f2eece985d8e374c,65d2b83fe3f907e4ffc059f1,0.0519,0.0519,1,1,163,128,1,fivesix,,,,,,,,,,,,,,,,,,,,,,,,,,,,,,,,,,,,,,,,,,,,,,,,,,,,,,,,,,,,,,,,,,,,,,,,,,,,,,,,,,,,,,,,,,,,,,,,,,,,,,,,,,,,,,,,,,,,,,,,,,,,,,,,,,,,,,,,,
,,613e868f4d6c157238b8fd87*,2024-02-18_20h10.02.646,kallum_motion_pilot,2023.2.2,Win32,59.17159763,613e868f4d6c157238b8fd87,65d2b6c8f2eece985d8e374c,65d2b83fe3f907e4ffc059f1,0.0519,0.052,1,2,164,119,1,eightseven,,,,,,,,,,,,,,,,,,,,,,,,,,,,,,,,,,,,,,,,,,,,,,,,,,,,,,,,,,,,,,,,,,,,,,,,,,,,,,,,,,,,,,,,,,,,,,,,,,,,,,,,,,,,,,,,,,,,,,,,,,,,,,,,,,,,,,,,,
,,613e868f4d6c157238b8fd87*,2024-02-18_20h10.02.646,kallum_motion_pilot,2023.2.2,Win32,59.17159763,613e868f4d6c157238b8fd87,65d2b6c8f2eece985d8e374c,65d2b83fe3f907e4ffc059f1,0.0521,0.0522,1,3,165,50,1,twoone,,,,,,,,,,,,,,,,,,,,,,,,,,,,,,,,,,,,,,,,,,,,,,,,,,,,,,,,,,,,,,,,,,,,,,,,,,,,,,,,,,,,,,,,,,,,,,,,,,,,,,,,,,,,,,,,,,,,,,,,,,,,,,,,,,,,,,,,,
,,613e868f4d6c157238b8fd87*,2024-02-18_20h10.02.646,kallum_motion_pilot,2023.2.2,Win32,59.17159763,613e868f4d6c157238b8fd87,65d2b6c8f2eece985d8e374c,65d2b83fe3f907e4ffc059f1,0.0522,0.0523,1,4,166,24,1,onetwo,,,,,,,,,,,,,,,,,,,,,,,,,,,,,,,,,,,,,,,,,,,,,,,,,,,,,,,,,,,,,,,,,,,,,,,,,,,,,,,,,,,,,,,,,,,,,,,,,,,,,,,,,,,,,,,,,,,,,,,,,,,,,,,,,,,,,,,,,
,,613e868f4d6c157238b8fd87*,2024-02-18_20h10.02.646,kallum_motion_pilot,2023.2.2,Win32,59.17159763,613e868f4d6c157238b8fd87,65d2b6c8f2eece985d8e374c,65d2b83fe3f907e4ffc059f1,0.0523,0.0523,1,5,167,23,1,fourthree,,,,,,,,,,,,,,,,,,,,,,,,,,,,,,,,,,,,,,,,,,,,,,,,,,,,,,,,,,,,,,,,,,,,,,,,,,,,,,,,,,,,,,,,,,,,,,,,,,,,,,,,,,,,,,,,,,,,,,,,,,,,,,,,,,,,,,,,,
,,613e868f4d6c157238b8fd87*,2024-02-18_20h10.02.646,kallum_motion_pilot,2023.2.2,Win32,59.17159763,613e868f4d6c157238b8fd87,65d2b6c8f2eece985d8e374c,65d2b83fe3f907e4ffc059f1,0.0524,0.0525,1,6,168,92,1,sevenfive,,,,,,,,,,,,,,,,,,,,,,,,,,,,,,,,,,,,,,,,,,,,,,,,,,,,,,,,,,,,,,,,,,,,,,,,,,,,,,,,,,,,,,,,,,,,,,,,,,,,,,,,,,,,,,,,,,,,,,,,,,,,,,,,,,,,,,,,,
,,613e868f4d6c157238b8fd87*,2024-02-18_20h10.02.646,kallum_motion_pilot,2023.2.2,Win32,59.17159763,613e868f4d6c157238b8fd87,65d2b6c8f2eece985d8e374c,65d2b83fe3f907e4ffc059f1,0.0525,0.0526,1,7,169,81,1,fiveseven,,,,,,,,,,,,,,,,,,,,,,,,,,,,,,,,,,,,,,,,,,,,,,,,,,,,,,,,,,,,,,,,,,,,,,,,,,,,,,,,,,,,,,,,,,,,,,,,,,,,,,,,,,,,,,,,,,,,,,,,,,,,,,,,,,,,,,,,,
,,613e868f4d6c157238b8fd87*,2024-02-18_20h10.02.646,kallum_motion_pilot,2023.2.2,Win32,59.17159763,613e868f4d6c157238b8fd87,65d2b6c8f2eece985d8e374c,65d2b83fe3f907e4ffc059f1,0.0526,0.0527,1,8,170,85,1,seveneight,,,,,,,,,,,,,,,,,,,,,,,,,,,,,,,,,,,,,,,,,,,,,,,,,,,,,,,,,,,,,,,,,,,,,,,,,,,,,,,,,,,,,,,,,,,,,,,,,,,,,,,,,,,,,,,,,,,,,,,,,,,,,,,,,,,,,,,,,
,,613e868f4d6c157238b8fd87*,2024-02-18_20h10.02.646,kallum_motion_pilot,2023.2.2,Win32,59.17159763,613e868f4d6c157238b8fd87,65d2b6c8f2eece985d8e374c,65d2b83fe3f907e4ffc059f1,0.0527,0.0527,1,9,171,21,1,threefour,,,,,,,,,,,,,,,,,,,,,,,,,,,,,,,,,,,,,,,,,,,,,,,,,,,,,,,,,,,,,,,,,,,,,,,,,,,,,,,,,,,,,,,,,,,,,,,,,,,,,,,,,,,,,,,,,,,,,,,,,,,,,,,,,,,,,,,,,
,,613e868f4d6c157238b8fd87*,2024-02-18_20h10.02.646,kallum_motion_pilot,2023.2.2,Win32,59.17159763,613e868f4d6c157238b8fd87,65d2b6c8f2eece985d8e374c,65d2b83fe3f907e4ffc059f1,0.0527,0.0528,1,10,172,156,1,sevenfive,,,,,,,,,,,,,,,,,,,,,,,,,,,,,,,,,,,,,,,,,,,,,,,,,,,,,,,,,,,,,,,,,,,,,,,,,,,,,,,,,,,,,,,,,,,,,,,,,,,,,,,,,,,,,,,,,,,,,,,,,,,,,,,,,,,,,,,,,
,,613e868f4d6c157238b8fd87*,2024-02-18_20h10.02.646,kallum_motion_pilot,2023.2.2,Win32,59.17159763,613e868f4d6c157238b8fd87,65d2b6c8f2eece985d8e374c,65d2b83fe3f907e4ffc059f1,0.0529,0.0529,1,11,173,36,1,threeone,,,,,,,,,,,,,,,,,,,,,,,,,,,,,,,,,,,,,,,,,,,,,,,,,,,,,,,,,,,,,,,,,,,,,,,,,,,,,,,,,,,,,,,,,,,,,,,,,,,,,,,,,,,,,,,,,,,,,,,,,,,,,,,,,,,,,,,,,
,,613e868f4d6c157238b8fd87*,2024-02-18_20h10.02.646,kallum_motion_pilot,2023.2.2,Win32,59.17159763,613e868f4d6c157238b8fd87,65d2b6c8f2eece985d8e374c,65d2b83fe3f907e4ffc059f1,0.053,0.053,1,12,174,58,1,twoone,,,,,,,,,,,,,,,,,,,,,,,,,,,,,,,,,,,,,,,,,,,,,,,,,,,,,,,,,,,,,,,,,,,,,,,,,,,,,,,,,,,,,,,,,,,,,,,,,,,,,,,,,,,,,,,,,,,,,,,,,,,,,,,,,,,,,,,,,
,,613e868f4d6c157238b8fd87*,2024-02-18_20h10.02.646,kallum_motion_pilot,2023.2.2,Win32,59.17159763,613e868f4d6c157238b8fd87,65d2b6c8f2eece985d8e374c,65d2b83fe3f907e4ffc059f1,0.0531,0.0531,1,13,175,91,1,sixeight,,,,,,,,,,,,,,,,,,,,,,,,,,,,,,,,,,,,,,,,,,,,,,,,,,,,,,,,,,,,,,,,,,,,,,,,,,,,,,,,,,,,,,,,,,,,,,,,,,,,,,,,,,,,,,,,,,,,,,,,,,,,,,,,,,,,,,,,,
,,613e868f4d6c157238b8fd87*,2024-02-18_20h10.02.646,kallum_motion_pilot,2023.2.2,Win32,59.17159763,613e868f4d6c157238b8fd87,65d2b6c8f2eece985d8e374c,65d2b83fe3f907e4ffc059f1,0.0532,0.0532,1,14,176,56,1,onetwo,,,,,,,,,,,,,,,,,,,,,,,,,,,,,,,,,,,,,,,,,,,,,,,,,,,,,,,,,,,,,,,,,,,,,,,,,,,,,,,,,,,,,,,,,,,,,,,,,,,,,,,,,,,,,,,,,,,,,,,,,,,,,,,,,,,,,,,,,
,,613e868f4d6c157238b8fd87*,2024-02-18_20h10.02.646,kallum_motion_pilot,2023.2.2,Win32,59.17159763,613e868f4d6c157238b8fd87,65d2b6c8f2eece985d8e374c,65d2b83fe3f907e4ffc059f1,0.0533,0.0534,1,15,177,42,1,twoone,,,,,,,,,,,,,,,,,,,,,,,,,,,,,,,,,,,,,,,,,,,,,,,,,,,,,,,,,,,,,,,,,,,,,,,,,,,,,,,,,,,,,,,,,,,,,,,,,,,,,,,,,,,,,,,,,,,,,,,,,,,,,,,,,,,,,,,,,
,,613e868f4d6c157238b8fd87*,2024-02-18_20h10.02.646,kallum_motion_pilot,2023.2.2,Win32,59.17159763,613e868f4d6c157238b8fd87,65d2b6c8f2eece985d8e374c,65d2b83fe3f907e4ffc059f1,0.0534,0.0534,1,16,178,99,1,sixeight,,,,,,,,,,,,,,,,,,,,,,,,,,,,,,,,,,,,,,,,,,,,,,,,,,,,,,,,,,,,,,,,,,,,,,,,,,,,,,,,,,,,,,,,,,,,,,,,,,,,,,,,,,,,,,,,,,,,,,,,,,,,,,,,,,,,,,,,,
,,613e868f4d6c157238b8fd87*,2024-02-18_20h10.02.646,kallum_motion_pilot,2023.2.2,Win32,59.17159763,613e868f4d6c157238b8fd87,65d2b6c8f2eece985d8e374c,65d2b83fe3f907e4ffc059f1,0.0535,0.0535,1,17,179,14,1,fourtwo,,,,,,,,,,,,,,,,,,,,,,,,,,,,,,,,,,,,,,,,,,,,,,,,,,,,,,,,,,,,,,,,,,,,,,,,,,,,,,,,,,,,,,,,,,,,,,,,,,,,,,,,,,,,,,,,,,,,,,,,,,,,,,,,,,,,,,,,,
,,613e868f4d6c157238b8fd87*,2024-02-18_20h10.02.646,kallum_motion_pilot,2023.2.2,Win32,59.17159763,613e868f4d6c157238b8fd87,65d2b6c8f2eece985d8e374c,65d2b83fe3f907e4ffc059f1,0.0536,0.0536,1,18,180,105,1,fiveseven,,,,,,,,,,,,,,,,,,,,,,,,,,,,,,,,,,,,,,,,,,,,,,,,,,,,,,,,,,,,,,,,,,,,,,,,,,,,,,,,,,,,,,,,,,,,,,,,,,,,,,,,,,,,,,,,,,,,,,,,,,,,,,,,,,,,,,,,,
,,613e868f4d6c157238b8fd87*,2024-02-18_20h10.02.646,kallum_motion_pilot,2023.2.2,Win32,59.17159763,613e868f4d6c157238b8fd87,65d2b6c8f2eece985d8e374c,65d2b83fe3f907e4ffc059f1,0.0537,0.0538,1,19,181,126,1,eightsix,,,,,,,,,,,,,,,,,,,,,,,,,,,,,,,,,,,,,,,,,,,,,,,,,,,,,,,,,,,,,,,,,,,,,,,,,,,,,,,,,,,,,,,,,,,,,,,,,,,,,,,,,,,,,,,,,,,,,,,,,,,,,,,,,,,,,,,,,
,,613e868f4d6c157238b8fd87*,2024-02-18_20h10.02.646,kallum_motion_pilot,2023.2.2,Win32,59.17159763,613e868f4d6c157238b8fd87,65d2b6c8f2eece985d8e374c,65d2b83fe3f907e4ffc059f1,0.0538,0.0538,1,20,182,155,1,sixeight,,,,,,,,,,,,,,,,,,,,,,,,,,,,,,,,,,,,,,,,,,,,,,,,,,,,,,,,,,,,,,,,,,,,,,,,,,,,,,,,,,,,,,,,,,,,,,,,,,,,,,,,,,,,,,,,,,,,,,,,,,,,,,,,,,,,,,,,,
,,613e868f4d6c157238b8fd87*,2024-02-18_20h10.02.646,kallum_motion_pilot,2023.2.2,Win32,59.17159763,613e868f4d6c157238b8fd87,65d2b6c8f2eece985d8e374c,65d2b83fe3f907e4ffc059f1,0.0538,0.0539,1,21,183,138,1,sixfive,,,,,,,,,,,,,,,,,,,,,,,,,,,,,,,,,,,,,,,,,,,,,,,,,,,,,,,,,,,,,,,,,,,,,,,,,,,,,,,,,,,,,,,,,,,,,,,,,,,,,,,,,,,,,,,,,,,,,,,,,,,,,,,,,,,,,,,,,
,,613e868f4d6c157238b8fd87*,2024-02-18_20h10.02.646,kallum_motion_pilot,2023.2.2,Win32,59.17159763,613e868f4d6c157238b8fd87,65d2b6c8f2eece985d8e374c,65d2b83fe3f907e4ffc059f1,0.054,0.054,1,22,184,117,1,seveneight,,,,,,,,,,,,,,,,,,,,,,,,,,,,,,,,,,,,,,,,,,,,,,,,,,,,,,,,,,,,,,,,,,,,,,,,,,,,,,,,,,,,,,,,,,,,,,,,,,,,,,,,,,,,,,,,,,,,,,,,,,,,,,,,,,,,,,,,,
,,613e868f4d6c157238b8fd87*,2024-02-18_20h10.02.646,kallum_motion_pilot,2023.2.2,Win32,59.17159763,613e868f4d6c157238b8fd87,65d2b6c8f2eece985d8e374c,65d2b83fe3f907e4ffc059f1,0.0541,0.0542,1,23,185,123,1,sixeight,,,,,,,,,,,,,,,,,,,,,,,,,,,,,,,,,,,,,,,,,,,,,,,,,,,,,,,,,,,,,,,,,,,,,,,,,,,,,,,,,,,,,,,,,,,,,,,,,,,,,,,,,,,,,,,,,,,,,,,,,,,,,,,,,,,,,,,,,
,,613e868f4d6c157238b8fd87*,2024-02-18_20h10.02.646,kallum_motion_pilot,2023.2.2,Win32,59.17159763,613e868f4d6c157238b8fd87,65d2b6c8f2eece985d8e374c,65d2b83fe3f907e4ffc059f1,0.0542,0.0542,1,24,186,127,1,eightseven,,,,,,,,,,,,,,,,,,,,,,,,,,,,,,,,,,,,,,,,,,,,,,,,,,,,,,,,,,,,,,,,,,,,,,,,,,,,,,,,,,,,,,,,,,,,,,,,,,,,,,,,,,,,,,,,,,,,,,,,,,,,,,,,,,,,,,,,,
,,613e868f4d6c157238b8fd87*,2024-02-18_20h10.02.646,kallum_motion_pilot,2023.2.2,Win32,59.17159763,613e868f4d6c157238b8fd87,65d2b6c8f2eece985d8e374c,65d2b83fe3f907e4ffc059f1,0.0544,0.0544,1,25,187,94,1,eightsix,,,,,,,,,,,,,,,,,,,,,,,,,,,,,,,,,,,,,,,,,,,,,,,,,,,,,,,,,,,,,,,,,,,,,,,,,,,,,,,,,,,,,,,,,,,,,,,,,,,,,,,,,,,,,,,,,,,,,,,,,,,,,,,,,,,,,,,,,
,,613e868f4d6c157238b8fd87*,2024-02-18_20h10.02.646,kallum_motion_pilot,2023.2.2,Win32,59.17159763,613e868f4d6c157238b8fd87,65d2b6c8f2eece985d8e374c,65d2b83fe3f907e4ffc059f1,0.0545,0.0545,1,26,188,132,1,sevenfive,,,,,,,,,,,,,,,,,,,,,,,,,,,,,,,,,,,,,,,,,,,,,,,,,,,,,,,,,,,,,,,,,,,,,,,,,,,,,,,,,,,,,,,,,,,,,,,,,,,,,,,,,,,,,,,,,,,,,,,,,,,,,,,,,,,,,,,,,
,,613e868f4d6c157238b8fd87*,2024-02-18_20h10.02.646,kallum_motion_pilot,2023.2.2,Win32,59.17159763,613e868f4d6c157238b8fd87,65d2b6c8f2eece985d8e374c,65d2b83fe3f907e4ffc059f1,0.0546,0.0546,1,27,189,29,1,threefour,,,,,,,,,,,,,,,,,,,,,,,,,,,,,,,,,,,,,,,,,,,,,,,,,,,,,,,,,,,,,,,,,,,,,,,,,,,,,,,,,,,,,,,,,,,,,,,,,,,,,,,,,,,,,,,,,,,,,,,,,,,,,,,,,,,,,,,,,
,,613e868f4d6c157238b8fd87*,2024-02-18_20h10.02.646,kallum_motion_pilot,2023.2.2,Win32,59.17159763,613e868f4d6c157238b8fd87,65d2b6c8f2eece985d8e374c,65d2b83fe3f907e4ffc059f1,0.0548,0.0548,1,28,190,27,1,twofour,,,,,,,,,,,,,,,,,,,,,,,,,,,,,,,,,,,,,,,,,,,,,,,,,,,,,,,,,,,,,,,,,,,,,,,,,,,,,,,,,,,,,,,,,,,,,,,,,,,,,,,,,,,,,,,,,,,,,,,,,,,,,,,,,,,,,,,,,
,,613e868f4d6c157238b8fd87*,2024-02-18_20h10.02.646,kallum_motion_pilot,2023.2.2,Win32,59.17159763,613e868f4d6c157238b8fd87,65d2b6c8f2eece985d8e374c,65d2b83fe3f907e4ffc059f1,0.0548,0.0549,1,29,191,6,1,fourtwo,,,,,,,,,,,,,,,,,,,,,,,,,,,,,,,,,,,,,,,,,,,,,,,,,,,,,,,,,,,,,,,,,,,,,,,,,,,,,,,,,,,,,,,,,,,,,,,,,,,,,,,,,,,,,,,,,,,,,,,,,,,,,,,,,,,,,,,,,
,,613e868f4d6c157238b8fd87*,2024-02-18_20h10.02.646,kallum_motion_pilot,2023.2.2,Win32,59.17159763,613e868f4d6c157238b8fd87,65d2b6c8f2eece985d8e374c,65d2b83fe3f907e4ffc059f1,0.055,0.055,1,30,192,11,1,twofour,,,,,,,,,,,,,,,,,,,,,,,,,,,,,,,,,,,,,,,,,,,,,,,,,,,,,,,,,,,,,,,,,,,,,,,,,,,,,,,,,,,,,,,,,,,,,,,,,,,,,,,,,,,,,,,,,,,,,,,,,,,,,,,,,,,,,,,,,
,,613e868f4d6c157238b8fd87*,2024-02-18_20h10.02.646,kallum_motion_pilot,2023.2.2,Win32,59.17159763,613e868f4d6c157238b8fd87,65d2b6c8f2eece985d8e374c,65d2b83fe3f907e4ffc059f1,0.0551,0.0551,1,31,193,129,1,fiveseven,,,,,,,,,,,,,,,,,,,,,,,,,,,,,,,,,,,,,,,,,,,,,,,,,,,,,,,,,,,,,,,,,,,,,,,,,,,,,,,,,,,,,,,,,,,,,,,,,,,,,,,,,,,,,,,,,,,,,,,,,,,,,,,,,,,,,,,,,
,,613e868f4d6c157238b8fd87*,2024-02-18_20h10.02.646,kallum_motion_pilot,2023.2.2,Win32,59.17159763,613e868f4d6c157238b8fd87,65d2b6c8f2eece985d8e374c,65d2b83fe3f907e4ffc059f1,0.0552,0.0553,1,32,194,148,1,sevenfive,,,,,,,,,,,,,,,,,,,,,,,,,,,,,,,,,,,,,,,,,,,,,,,,,,,,,,,,,,,,,,,,,,,,,,,,,,,,,,,,,,,,,,,,,,,,,,,,,,,,,,,,,,,,,,,,,,,,,,,,,,,,,,,,,,,,,,,,,
,,613e868f4d6c157238b8fd87*,2024-02-18_20h10.02.646,kallum_motion_pilot,2023.2.2,Win32,59.17159763,613e868f4d6c157238b8fd87,65d2b6c8f2eece985d8e374c,65d2b83fe3f907e4ffc059f1,0.0553,0.0554,1,33,195,68,1,threeone,,,,,,,,,,,,,,,,,,,,,,,,,,,,,,,,,,,,,,,,,,,,,,,,,,,,,,,,,,,,,,,,,,,,,,,,,,,,,,,,,,,,,,,,,,,,,,,,,,,,,,,,,,,,,,,,,,,,,,,,,,,,,,,,,,,,,,,,,
,,613e868f4d6c157238b8fd87*,2024-02-18_20h10.02.646,kallum_motion_pilot,2023.2.2,Win32,59.17159763,613e868f4d6c157238b8fd87,65d2b6c8f2eece985d8e374c,65d2b83fe3f907e4ffc059f1,0.0555,0.0555,1,34,196,5,1,threefour,,,,,,,,,,,,,,,,,,,,,,,,,,,,,,,,,,,,,,,,,,,,,,,,,,,,,,,,,,,,,,,,,,,,,,,,,,,,,,,,,,,,,,,,,,,,,,,,,,,,,,,,,,,,,,,,,,,,,,,,,,,,,,,,,,,,,,,,,
,,613e868f4d6c157238b8fd87*,2024-02-18_20h10.02.646,kallum_motion_pilot,2023.2.2,Win32,59.17159763,613e868f4d6c157238b8fd87,65d2b6c8f2eece985d8e374c,65d2b83fe3f907e4ffc059f1,0.0556,0.0557,1,35,197,102,1,eightsix,,,,,,,,,,,,,,,,,,,,,,,,,,,,,,,,,,,,,,,,,,,,,,,,,,,,,,,,,,,,,,,,,,,,,,,,,,,,,,,,,,,,,,,,,,,,,,,,,,,,,,,,,,,,,,,,,,,,,,,,,,,,,,,,,,,,,,,,,
,,613e868f4d6c157238b8fd87*,2024-02-18_20h10.02.646,kallum_motion_pilot,2023.2.2,Win32,59.17159763,613e868f4d6c157238b8fd87,65d2b6c8f2eece985d8e374c,65d2b83fe3f907e4ffc059f1,0.0558,0.0559,1,36,198,62,1,fourtwo,,,,,,,,,,,,,,,,,,,,,,,,,,,,,,,,,,,,,,,,,,,,,,,,,,,,,,,,,,,,,,,,,,,,,,,,,,,,,,,,,,,,,,,,,,,,,,,,,,,,,,,,,,,,,,,,,,,,,,,,,,,,,,,,,,,,,,,,,
,,613e868f4d6c157238b8fd87*,2024-02-18_20h10.02.646,kallum_motion_pilot,2023.2.2,Win32,59.17159763,613e868f4d6c157238b8fd87,65d2b6c8f2eece985d8e374c,65d2b83fe3f907e4ffc059f1,0.056,0.056,1,37,199,18,1,twoone,,,,,,,,,,,,,,,,,,,,,,,,,,,,,,,,,,,,,,,,,,,,,,,,,,,,,,,,,,,,,,,,,,,,,,,,,,,,,,,,,,,,,,,,,,,,,,,,,,,,,,,,,,,,,,,,,,,,,,,,,,,,,,,,,,,,,,,,,
,,613e868f4d6c157238b8fd87*,2024-02-18_20h10.02.646,kallum_motion_pilot,2023.2.2,Win32,59.17159763,613e868f4d6c157238b8fd87,65d2b6c8f2eece985d8e374c,65d2b83fe3f907e4ffc059f1,0.0561,0.0561,1,38,200,141,1,seveneight,,,,,,,,,,,,,,,,,,,,,,,,,,,,,,,,,,,,,,,,,,,,,,,,,,,,,,,,,,,,,,,,,,,,,,,,,,,,,,,,,,,,,,,,,,,,,,,,,,,,,,,,,,,,,,,,,,,,,,,,,,,,,,,,,,,,,,,,,
,,613e868f4d6c157238b8fd87*,2024-02-18_20h10.02.646,kallum_motion_pilot,2023.2.2,Win32,59.17159763,613e868f4d6c157238b8fd87,65d2b6c8f2eece985d8e374c,65d2b83fe3f907e4ffc059f1,0.0561,0.0562,1,39,201,144,1,fivesix,,,,,,,,,,,,,,,,,,,,,,,,,,,,,,,,,,,,,,,,,,,,,,,,,,,,,,,,,,,,,,,,,,,,,,,,,,,,,,,,,,,,,,,,,,,,,,,,,,,,,,,,,,,,,,,,,,,,,,,,,,,,,,,,,,,,,,,,,
,,613e868f4d6c157238b8fd87*,2024-02-18_20h10.02.646,kallum_motion_pilot,2023.2.2,Win32,59.17159763,613e868f4d6c157238b8fd87,65d2b6c8f2eece985d8e374c,65d2b83fe3f907e4ffc059f1,0.0563,0.0563,1,40,202,136,1,fivesix,,,,,,,,,,,,,,,,,,,,,,,,,,,,,,,,,,,,,,,,,,,,,,,,,,,,,,,,,,,,,,,,,,,,,,,,,,,,,,,,,,,,,,,,,,,,,,,,,,,,,,,,,,,,,,,,,,,,,,,,,,,,,,,,,,,,,,,,,
,,613e868f4d6c157238b8fd87*,2024-02-18_20h10.02.646,kallum_motion_pilot,2023.2.2,Win32,59.17159763,613e868f4d6c157238b8fd87,65d2b6c8f2eece985d8e374c,65d2b83fe3f907e4ffc059f1,0.0563,0.0564,1,41,203,115,1,sixeight,,,,,,,,,,,,,,,,,,,,,,,,,,,,,,,,,,,,,,,,,,,,,,,,,,,,,,,,,,,,,,,,,,,,,,,,,,,,,,,,,,,,,,,,,,,,,,,,,,,,,,,,,,,,,,,,,,,,,,,,,,,,,,,,,,,,,,,,,
,,613e868f4d6c157238b8fd87*,2024-02-18_20h10.02.646,kallum_motion_pilot,2023.2.2,Win32,59.17159763,613e868f4d6c157238b8fd87,65d2b6c8f2eece985d8e374c,65d2b83fe3f907e4ffc059f1,0.0564,0.0564,1,42,204,89,1,fiveseven,,,,,,,,,,,,,,,,,,,,,,,,,,,,,,,,,,,,,,,,,,,,,,,,,,,,,,,,,,,,,,,,,,,,,,,,,,,,,,,,,,,,,,,,,,,,,,,,,,,,,,,,,,,,,,,,,,,,,,,,,,,,,,,,,,,,,,,,,
,,613e868f4d6c157238b8fd87*,2024-02-18_20h10.02.646,kallum_motion_pilot,2023.2.2,Win32,59.17159763,613e868f4d6c157238b8fd87,65d2b6c8f2eece985d8e374c,65d2b83fe3f907e4ffc059f1,0.0565,0.0566,1,43,205,107,1,sixeight,,,,,,,,,,,,,,,,,,,,,,,,,,,,,,,,,,,,,,,,,,,,,,,,,,,,,,,,,,,,,,,,,,,,,,,,,,,,,,,,,,,,,,,,,,,,,,,,,,,,,,,,,,,,,,,,,,,,,,,,,,,,,,,,,,,,,,,,,
,,613e868f4d6c157238b8fd87*,2024-02-18_20h10.02.646,kallum_motion_pilot,2023.2.2,Win32,59.17159763,613e868f4d6c157238b8fd87,65d2b6c8f2eece985d8e374c,65d2b83fe3f907e4ffc059f1,0.0566,0.0567,1,44,206,66,1,twoone,,,,,,,,,,,,,,,,,,,,,,,,,,,,,,,,,,,,,,,,,,,,,,,,,,,,,,,,,,,,,,,,,,,,,,,,,,,,,,,,,,,,,,,,,,,,,,,,,,,,,,,,,,,,,,,,,,,,,,,,,,,,,,,,,,,,,,,,,
,,613e868f4d6c157238b8fd87*,2024-02-18_20h10.02.646,kallum_motion_pilot,2023.2.2,Win32,59.17159763,613e868f4d6c157238b8fd87,65d2b6c8f2eece985d8e374c,65d2b83fe3f907e4ffc059f1,0.0567,0.0568,1,45,207,98,1,sixfive,,,,,,,,,,,,,,,,,,,,,,,,,,,,,,,,,,,,,,,,,,,,,,,,,,,,,,,,,,,,,,,,,,,,,,,,,,,,,,,,,,,,,,,,,,,,,,,,,,,,,,,,,,,,,,,,,,,,,,,,,,,,,,,,,,,,,,,,,
,,613e868f4d6c157238b8fd87*,2024-02-18_20h10.02.646,kallum_motion_pilot,2023.2.2,Win32,59.17159763,613e868f4d6c157238b8fd87,65d2b6c8f2eece985d8e374c,65d2b83fe3f907e4ffc059f1,0.0568,0.0569,1,46,208,0,1,onetwo,,,,,,,,,,,,,,,,,,,,,,,,,,,,,,,,,,,,,,,,,,,,,,,,,,,,,,,,,,,,,,,,,,,,,,,,,,,,,,,,,,,,,,,,,,,,,,,,,,,,,,,,,,,,,,,,,,,,,,,,,,,,,,,,,,,,,,,,,
,,613e868f4d6c157238b8fd87*,2024-02-18_20h10.02.646,kallum_motion_pilot,2023.2.2,Win32,59.17159763,613e868f4d6c157238b8fd87,65d2b6c8f2eece985d8e374c,65d2b83fe3f907e4ffc059f1,0.0571,0.0571,1,47,209,120,1,fivesix,,,,,,,,,,,,,,,,,,,,,,,,,,,,,,,,,,,,,,,,,,,,,,,,,,,,,,,,,,,,,,,,,,,,,,,,,,,,,,,,,,,,,,,,,,,,,,,,,,,,,,,,,,,,,,,,,,,,,,,,,,,,,,,,,,,,,,,,,
,,613e868f4d6c157238b8fd87*,2024-02-18_20h10.02.646,kallum_motion_pilot,2023.2.2,Win32,59.17159763,613e868f4d6c157238b8fd87,65d2b6c8f2eece985d8e374c,65d2b83fe3f907e4ffc059f1,0.0571,0.0572,1,48,210,55,1,fourthree,,,,,,,,,,,,,,,,,,,,,,,,,,,,,,,,,,,,,,,,,,,,,,,,,,,,,,,,,,,,,,,,,,,,,,,,,,,,,,,,,,,,,,,,,,,,,,,,,,,,,,,,,,,,,,,,,,,,,,,,,,,,,,,,,,,,,,,,,
,,613e868f4d6c157238b8fd87*,2024-02-18_20h10.02.646,kallum_motion_pilot,2023.2.2,Win32,59.17159763,613e868f4d6c157238b8fd87,65d2b6c8f2eece985d8e374c,65d2b83fe3f907e4ffc059f1,0.0573,0.0573,1,49,211,64,1,onetwo,,,,,,,,,,,,,,,,,,,,,,,,,,,,,,,,,,,,,,,,,,,,,,,,,,,,,,,,,,,,,,,,,,,,,,,,,,,,,,,,,,,,,,,,,,,,,,,,,,,,,,,,,,,,,,,,,,,,,,,,,,,,,,,,,,,,,,,,,
,,613e868f4d6c157238b8fd87*,2024-02-18_20h10.02.646,kallum_motion_pilot,2023.2.2,Win32,59.17159763,613e868f4d6c157238b8fd87,65d2b6c8f2eece985d8e374c,65d2b83fe3f907e4ffc059f1,0.0573,0.0573,1,50,212,57,1,onethree,,,,,,,,,,,,,,,,,,,,,,,,,,,,,,,,,,,,,,,,,,,,,,,,,,,,,,,,,,,,,,,,,,,,,,,,,,,,,,,,,,,,,,,,,,,,,,,,,,,,,,,,,,,,,,,,,,,,,,,,,,,,,,,,,,,,,,,,,
,,613e868f4d6c157238b8fd87*,2024-02-18_20h10.02.646,kallum_motion_pilot,2023.2.2,Win32,59.17159763,613e868f4d6c157238b8fd87,65d2b6c8f2eece985d8e374c,65d2b83fe3f907e4ffc059f1,0.0574,0.0575,1,51,213,77,1,threefour,,,,,,,,,,,,,,,,,,,,,,,,,,,,,,,,,,,,,,,,,,,,,,,,,,,,,,,,,,,,,,,,,,,,,,,,,,,,,,,,,,,,,,,,,,,,,,,,,,,,,,,,,,,,,,,,,,,,,,,,,,,,,,,,,,,,,,,,,
,,613e868f4d6c157238b8fd87*,2024-02-18_20h10.02.646,kallum_motion_pilot,2023.2.2,Win32,59.17159763,613e868f4d6c157238b8fd87,65d2b6c8f2eece985d8e374c,65d2b83fe3f907e4ffc059f1,0.0575,0.0576,1,52,214,110,1,eightsix,,,,,,,,,,,,,,,,,,,,,,,,,,,,,,,,,,,,,,,,,,,,,,,,,,,,,,,,,,,,,,,,,,,,,,,,,,,,,,,,,,,,,,,,,,,,,,,,,,,,,,,,,,,,,,,,,,,,,,,,,,,,,,,,,,,,,,,,,
,,613e868f4d6c157238b8fd87*,2024-02-18_20h10.02.646,kallum_motion_pilot,2023.2.2,Win32,59.17159763,613e868f4d6c157238b8fd87,65d2b6c8f2eece985d8e374c,65d2b83fe3f907e4ffc059f1,0.0578,0.0578,1,53,215,143,1,eightseven,,,,,,,,,,,,,,,,,,,,,,,,,,,,,,,,,,,,,,,,,,,,,,,,,,,,,,,,,,,,,,,,,,,,,,,,,,,,,,,,,,,,,,,,,,,,,,,,,,,,,,,,,,,,,,,,,,,,,,,,,,,,,,,,,,,,,,,,,
,,613e868f4d6c157238b8fd87*,2024-02-18_20h10.02.646,kallum_motion_pilot,2023.2.2,Win32,59.17159763,613e868f4d6c157238b8fd87,65d2b6c8f2eece985d8e374c,65d2b83fe3f907e4ffc059f1,0.0579,0.058,1,54,216,19,1,twofour,,,,,,,,,,,,,,,,,,,,,,,,,,,,,,,,,,,,,,,,,,,,,,,,,,,,,,,,,,,,,,,,,,,,,,,,,,,,,,,,,,,,,,,,,,,,,,,,,,,,,,,,,,,,,,,,,,,,,,,,,,,,,,,,,,,,,,,,,
,,613e868f4d6c157238b8fd87*,2024-02-18_20h10.02.646,kallum_motion_pilot,2023.2.2,Win32,59.17159763,613e868f4d6c157238b8fd87,65d2b6c8f2eece985d8e374c,65d2b83fe3f907e4ffc059f1,0.0581,0.0582,1,55,217,157,1,seveneight,,,,,,,,,,,,,,,,,,,,,,,,,,,,,,,,,,,,,,,,,,,,,,,,,,,,,,,,,,,,,,,,,,,,,,,,,,,,,,,,,,,,,,,,,,,,,,,,,,,,,,,,,,,,,,,,,,,,,,,,,,,,,,,,,,,,,,,,,
,,613e868f4d6c157238b8fd87*,2024-02-18_20h10.02.646,kallum_motion_pilot,2023.2.2,Win32,59.17159763,613e868f4d6c157238b8fd87,65d2b6c8f2eece985d8e374c,65d2b83fe3f907e4ffc059f1,0.0583,0.0584,1,56,218,161,1,fiveseven,,,,,,,,,,,,,,,,,,,,,,,,,,,,,,,,,,,,,,,,,,,,,,,,,,,,,,,,,,,,,,,,,,,,,,,,,,,,,,,,,,,,,,,,,,,,,,,,,,,,,,,,,,,,,,,,,,,,,,,,,,,,,,,,,,,,,,,,,
,,613e868f4d6c157238b8fd87*,2024-02-18_20h10.02.646,kallum_motion_pilot,2023.2.2,Win32,59.17159763,613e868f4d6c157238b8fd87,65d2b6c8f2eece985d8e374c,65d2b83fe3f907e4ffc059f1,0.0585,0.0586,1,57,219,104,1,fivesix,,,,,,,,,,,,,,,,,,,,,,,,,,,,,,,,,,,,,,,,,,,,,,,,,,,,,,,,,,,,,,,,,,,,,,,,,,,,,,,,,,,,,,,,,,,,,,,,,,,,,,,,,,,,,,,,,,,,,,,,,,,,,,,,,,,,,,,,,
,,613e868f4d6c157238b8fd87*,2024-02-18_20h10.02.646,kallum_motion_pilot,2023.2.2,Win32,59.17159763,613e868f4d6c157238b8fd87,65d2b6c8f2eece985d8e374c,65d2b83fe3f907e4ffc059f1,0.0587,0.0588,1,58,220,2,1,twoone,,,,,,,,,,,,,,,,,,,,,,,,,,,,,,,,,,,,,,,,,,,,,,,,,,,,,,,,,,,,,,,,,,,,,,,,,,,,,,,,,,,,,,,,,,,,,,,,,,,,,,,,,,,,,,,,,,,,,,,,,,,,,,,,,,,,,,,,,
,,613e868f4d6c157238b8fd87*,2024-02-18_20h10.02.646,kallum_motion_pilot,2023.2.2,Win32,59.17159763,613e868f4d6c157238b8fd87,65d2b6c8f2eece985d8e374c,65d2b83fe3f907e4ffc059f1,0.0589,0.059,1,59,221,88,1,fivesix,,,,,,,,,,,,,,,,,,,,,,,,,,,,,,,,,,,,,,,,,,,,,,,,,,,,,,,,,,,,,,,,,,,,,,,,,,,,,,,,,,,,,,,,,,,,,,,,,,,,,,,,,,,,,,,,,,,,,,,,,,,,,,,,,,,,,,,,,
,,613e868f4d6c157238b8fd87*,2024-02-18_20h10.02.646,kallum_motion_pilot,2023.2.2,Win32,59.17159763,613e868f4d6c157238b8fd87,65d2b6c8f2eece985d8e374c,65d2b83fe3f907e4ffc059f1,0.0591,0.0592,1,60,222,16,1,onetwo,,,,,,,,,,,,,,,,,,,,,,,,,,,,,,,,,,,,,,,,,,,,,,,,,,,,,,,,,,,,,,,,,,,,,,,,,,,,,,,,,,,,,,,,,,,,,,,,,,,,,,,,,,,,,,,,,,,,,,,,,,,,,,,,,,,,,,,,,
,,613e868f4d6c157238b8fd87*,2024-02-18_20h10.02.646,kallum_motion_pilot,2023.2.2,Win32,59.17159763,613e868f4d6c157238b8fd87,65d2b6c8f2eece985d8e374c,65d2b83fe3f907e4ffc059f1,0.0593,0.0594,1,61,223,35,1,twofour,,,,,,,,,,,,,,,,,,,,,,,,,,,,,,,,,,,,,,,,,,,,,,,,,,,,,,,,,,,,,,,,,,,,,,,,,,,,,,,,,,,,,,,,,,,,,,,,,,,,,,,,,,,,,,,,,,,,,,,,,,,,,,,,,,,,,,,,,
,,613e868f4d6c157238b8fd87*,2024-02-18_20h10.02.646,kallum_motion_pilot,2023.2.2,Win32,59.17159763,613e868f4d6c157238b8fd87,65d2b6c8f2eece985d8e374c,65d2b83fe3f907e4ffc059f1,0.0595,0.0596,1,62,224,25,1,onethree,,,,,,,,,,,,,,,,,,,,,,,,,,,,,,,,,,,,,,,,,,,,,,,,,,,,,,,,,,,,,,,,,,,,,,,,,,,,,,,,,,,,,,,,,,,,,,,,,,,,,,,,,,,,,,,,,,,,,,,,,,,,,,,,,,,,,,,,,
,,613e868f4d6c157238b8fd87*,2024-02-18_20h10.02.646,kallum_motion_pilot,2023.2.2,Win32,59.17159763,613e868f4d6c157238b8fd87,65d2b6c8f2eece985d8e374c,65d2b83fe3f907e4ffc059f1,0.0596,0.0598,1,63,225,3,1,twofour,,,,,,,,,,,,,,,,,,,,,,,,,,,,,,,,,,,,,,,,,,,,,,,,,,,,,,,,,,,,,,,,,,,,,,,,,,,,,,,,,,,,,,,,,,,,,,,,,,,,,,,,,,,,,,,,,,,,,,,,,,,,,,,,,,,,,,,,,
,,613e868f4d6c157238b8fd87*,2024-02-18_20h10.02.646,kallum_motion_pilot,2023.2.2,Win32,59.17159763,613e868f4d6c157238b8fd87,65d2b6c8f2eece985d8e374c,65d2b83fe3f907e4ffc059f1,0.0599,0.06,1,64,226,137,1,fiveseven,,,,,,,,,,,,,,,,,,,,,,,,,,,,,,,,,,,,,,,,,,,,,,,,,,,,,,,,,,,,,,,,,,,,,,,,,,,,,,,,,,,,,,,,,,,,,,,,,,,,,,,,,,,,,,,,,,,,,,,,,,,,,,,,,,,,,,,,,
,,613e868f4d6c157238b8fd87*,2024-02-18_20h10.02.646,kallum_motion_pilot,2023.2.2,Win32,59.17159763,613e868f4d6c157238b8fd87,65d2b6c8f2eece985d8e374c,65d2b83fe3f907e4ffc059f1,0.0601,0.0602,1,65,227,149,1,seveneight,,,,,,,,,,,,,,,,,,,,,,,,,,,,,,,,,,,,,,,,,,,,,,,,,,,,,,,,,,,,,,,,,,,,,,,,,,,,,,,,,,,,,,,,,,,,,,,,,,,,,,,,,,,,,,,,,,,,,,,,,,,,,,,,,,,,,,,,,
,,613e868f4d6c157238b8fd87*,2024-02-18_20h10.02.646,kallum_motion_pilot,2023.2.2,Win32,59.17159763,613e868f4d6c157238b8fd87,65d2b6c8f2eece985d8e374c,65d2b83fe3f907e4ffc059f1,0.0602,0.0603,1,66,228,100,1,sevenfive,,,,,,,,,,,,,,,,,,,,,,,,,,,,,,,,,,,,,,,,,,,,,,,,,,,,,,,,,,,,,,,,,,,,,,,,,,,,,,,,,,,,,,,,,,,,,,,,,,,,,,,,,,,,,,,,,,,,,,,,,,,,,,,,,,,,,,,,,
,,613e868f4d6c157238b8fd87*,2024-02-18_20h10.02.646,kallum_motion_pilot,2023.2.2,Win32,59.17159763,613e868f4d6c157238b8fd87,65d2b6c8f2eece985d8e374c,65d2b83fe3f907e4ffc059f1,0.0604,0.0605,1,67,229,83,1,sixeight,,,,,,,,,,,,,,,,,,,,,,,,,,,,,,,,,,,,,,,,,,,,,,,,,,,,,,,,,,,,,,,,,,,,,,,,,,,,,,,,,,,,,,,,,,,,,,,,,,,,,,,,,,,,,,,,,,,,,,,,,,,,,,,,,,,,,,,,,
,,613e868f4d6c157238b8fd87*,2024-02-18_20h10.02.646,kallum_motion_pilot,2023.2.2,Win32,59.17159763,613e868f4d6c157238b8fd87,65d2b6c8f2eece985d8e374c,65d2b83fe3f907e4ffc059f1,0.0606,0.0607,1,68,230,33,1,onethree,,,,,,,,,,,,,,,,,,,,,,,,,,,,,,,,,,,,,,,,,,,,,,,,,,,,,,,,,,,,,,,,,,,,,,,,,,,,,,,,,,,,,,,,,,,,,,,,,,,,,,,,,,,,,,,,,,,,,,,,,,,,,,,,,,,,,,,,,
,,613e868f4d6c157238b8fd87*,2024-02-18_20h10.02.646,kallum_motion_pilot,2023.2.2,Win32,59.17159763,613e868f4d6c157238b8fd87,65d2b6c8f2eece985d8e374c,65d2b83fe3f907e4ffc059f1,0.0607,0.0607,1,69,231,28,1,threeone,,,,,,,,,,,,,,,,,,,,,,,,,,,,,,,,,,,,,,,,,,,,,,,,,,,,,,,,,,,,,,,,,,,,,,,,,,,,,,,,,,,,,,,,,,,,,,,,,,,,,,,,,,,,,,,,,,,,,,,,,,,,,,,,,,,,,,,,,
,,613e868f4d6c157238b8fd87*,2024-02-18_20h10.02.646,kallum_motion_pilot,2023.2.2,Win32,59.17159763,613e868f4d6c157238b8fd87,65d2b6c8f2eece985d8e374c,65d2b83fe3f907e4ffc059f1,0.0608,0.0608,1,70,232,82,1,sixfive,,,,,,,,,,,,,,,,,,,,,,,,,,,,,,,,,,,,,,,,,,,,,,,,,,,,,,,,,,,,,,,,,,,,,,,,,,,,,,,,,,,,,,,,,,,,,,,,,,,,,,,,,,,,,,,,,,,,,,,,,,,,,,,,,,,,,,,,,
,,613e868f4d6c157238b8fd87*,2024-02-18_20h10.02.646,kallum_motion_pilot,2023.2.2,Win32,59.17159763,613e868f4d6c157238b8fd87,65d2b6c8f2eece985d8e374c,65d2b83fe3f907e4ffc059f1,0.061,0.061,1,71,233,1,1,onethree,,,,,,,,,,,,,,,,,,,,,,,,,,,,,,,,,,,,,,,,,,,,,,,,,,,,,,,,,,,,,,,,,,,,,,,,,,,,,,,,,,,,,,,,,,,,,,,,,,,,,,,,,,,,,,,,,,,,,,,,,,,,,,,,,,,,,,,,,
,,613e868f4d6c157238b8fd87*,2024-02-18_20h10.02.646,kallum_motion_pilot,2023.2.2,Win32,59.17159763,613e868f4d6c157238b8fd87,65d2b6c8f2eece985d8e374c,65d2b83fe3f907e4ffc059f1,0.0611,0.0611,1,72,234,52,1,threeone,,,,,,,,,,,,,,,,,,,,,,,,,,,,,,,,,,,,,,,,,,,,,,,,,,,,,,,,,,,,,,,,,,,,,,,,,,,,,,,,,,,,,,,,,,,,,,,,,,,,,,,,,,,,,,,,,,,,,,,,,,,,,,,,,,,,,,,,,
,,613e868f4d6c157238b8fd87*,2024-02-18_20h10.02.646,kallum_motion_pilot,2023.2.2,Win32,59.17159763,613e868f4d6c157238b8fd87,65d2b6c8f2eece985d8e374c,65d2b83fe3f907e4ffc059f1,0.0611,0.0612,1,73,235,114,1,sixfive,,,,,,,,,,,,,,,,,,,,,,,,,,,,,,,,,,,,,,,,,,,,,,,,,,,,,,,,,,,,,,,,,,,,,,,,,,,,,,,,,,,,,,,,,,,,,,,,,,,,,,,,,,,,,,,,,,,,,,,,,,,,,,,,,,,,,,,,,
,,613e868f4d6c157238b8fd87*,2024-02-18_20h10.02.646,kallum_motion_pilot,2023.2.2,Win32,59.17159763,613e868f4d6c157238b8fd87,65d2b6c8f2eece985d8e374c,65d2b83fe3f907e4ffc059f1,0.0613,0.0614,1,74,236,135,1,eightseven,,,,,,,,,,,,,,,,,,,,,,,,,,,,,,,,,,,,,,,,,,,,,,,,,,,,,,,,,,,,,,,,,,,,,,,,,,,,,,,,,,,,,,,,,,,,,,,,,,,,,,,,,,,,,,,,,,,,,,,,,,,,,,,,,,,,,,,,,
,,613e868f4d6c157238b8fd87*,2024-02-18_20h10.02.646,kallum_motion_pilot,2023.2.2,Win32,59.17159763,613e868f4d6c157238b8fd87,65d2b6c8f2eece985d8e374c,65d2b83fe3f907e4ffc059f1,0.0614,0.0614,1,75,237,103,1,eightseven,,,,,,,,,,,,,,,,,,,,,,,,,,,,,,,,,,,,,,,,,,,,,,,,,,,,,,,,,,,,,,,,,,,,,,,,,,,,,,,,,,,,,,,,,,,,,,,,,,,,,,,,,,,,,,,,,,,,,,,,,,,,,,,,,,,,,,,,,
,,613e868f4d6c157238b8fd87*,2024-02-18_20h10.02.646,kallum_motion_pilot,2023.2.2,Win32,59.17159763,613e868f4d6c157238b8fd87,65d2b6c8f2eece985d8e374c,65d2b83fe3f907e4ffc059f1,0.0615,0.0616,1,76,238,153,1,fiveseven,,,,,,,,,,,,,,,,,,,,,,,,,,,,,,,,,,,,,,,,,,,,,,,,,,,,,,,,,,,,,,,,,,,,,,,,,,,,,,,,,,,,,,,,,,,,,,,,,,,,,,,,,,,,,,,,,,,,,,,,,,,,,,,,,,,,,,,,,
,,613e868f4d6c157238b8fd87*,2024-02-18_20h10.02.646,kallum_motion_pilot,2023.2.2,Win32,59.17159763,613e868f4d6c157238b8fd87,65d2b6c8f2eece985d8e374c,65d2b83fe3f907e4ffc059f1,0.0617,0.0617,1,77,239,131,1,sixeight,,,,,,,,,,,,,,,,,,,,,,,,,,,,,,,,,,,,,,,,,,,,,,,,,,,,,,,,,,,,,,,,,,,,,,,,,,,,,,,,,,,,,,,,,,,,,,,,,,,,,,,,,,,,,,,,,,,,,,,,,,,,,,,,,,,,,,,,,
,,613e868f4d6c157238b8fd87*,2024-02-18_20h10.02.646,kallum_motion_pilot,2023.2.2,Win32,59.17159763,613e868f4d6c157238b8fd87,65d2b6c8f2eece985d8e374c,65d2b83fe3f907e4ffc059f1,0.0618,0.0619,1,78,240,90,1,sixfive,,,,,,,,,,,,,,,,,,,,,,,,,,,,,,,,,,,,,,,,,,,,,,,,,,,,,,,,,,,,,,,,,,,,,,,,,,,,,,,,,,,,,,,,,,,,,,,,,,,,,,,,,,,,,,,,,,,,,,,,,,,,,,,,,,,,,,,,,
,,613e868f4d6c157238b8fd87*,2024-02-18_20h10.02.646,kallum_motion_pilot,2023.2.2,Win32,59.17159763,613e868f4d6c157238b8fd87,65d2b6c8f2eece985d8e374c,65d2b83fe3f907e4ffc059f1,0.0619,0.062,1,79,241,53,1,threefour,,,,,,,,,,,,,,,,,,,,,,,,,,,,,,,,,,,,,,,,,,,,,,,,,,,,,,,,,,,,,,,,,,,,,,,,,,,,,,,,,,,,,,,,,,,,,,,,,,,,,,,,,,,,,,,,,,,,,,,,,,,,,,,,,,,,,,,,,
,,613e868f4d6c157238b8fd87*,2024-02-18_20h10.02.646,kallum_motion_pilot,2023.2.2,Win32,59.17159763,613e868f4d6c157238b8fd87,65d2b6c8f2eece985d8e374c,65d2b83fe3f907e4ffc059f1,0.062,0.0621,1,80,242,31,1,fourthree,,,,,,,,,,,,,,,,,,,,,,,,,,,,,,,,,,,,,,,,,,,,,,,,,,,,,,,,,,,,,,,,,,,,,,,,,,,,,,,,,,,,,,,,,,,,,,,,,,,,,,,,,,,,,,,,,,,,,,,,,,,,,,,,,,,,,,,,,
,,613e868f4d6c157238b8fd87*,2024-02-18_20h10.02.646,kallum_motion_pilot,2023.2.2,Win32,59.17159763,613e868f4d6c157238b8fd87,65d2b6c8f2eece985d8e374c,65d2b83fe3f907e4ffc059f1,0.0621,0.0621,1,81,243,41,1,onethree,,,,,,,,,,,,,,,,,,,,,,,,,,,,,,,,,,,,,,,,,,,,,,,,,,,,,,,,,,,,,,,,,,,,,,,,,,,,,,,,,,,,,,,,,,,,,,,,,,,,,,,,,,,,,,,,,,,,,,,,,,,,,,,,,,,,,,,,,
,,613e868f4d6c157238b8fd87*,2024-02-18_20h10.02.646,kallum_motion_pilot,2023.2.2,Win32,59.17159763,613e868f4d6c157238b8fd87,65d2b6c8f2eece985d8e374c,65d2b83fe3f907e4ffc059f1,0.0622,0.0623,1,82,244,116,1,sevenfive,,,,,,,,,,,,,,,,,,,,,,,,,,,,,,,,,,,,,,,,,,,,,,,,,,,,,,,,,,,,,,,,,,,,,,,,,,,,,,,,,,,,,,,,,,,,,,,,,,,,,,,,,,,,,,,,,,,,,,,,,,,,,,,,,,,,,,,,,
,,613e868f4d6c157238b8fd87*,2024-02-18_20h10.02.646,kallum_motion_pilot,2023.2.2,Win32,59.17159763,613e868f4d6c157238b8fd87,65d2b6c8f2eece985d8e374c,65d2b83fe3f907e4ffc059f1,0.0631,0.0633,1,83,245,151,1,eightseven,,,,,,,,,,,,,,,,,,,,,,,,,,,,,,,,,,,,,,,,,,,,,,,,,,,,,,,,,,,,,,,,,,,,,,,,,,,,,,,,,,,,,,,,,,,,,,,,,,,,,,,,,,,,,,,,,,,,,,,,,,,,,,,,,,,,,,,,,
,,613e868f4d6c157238b8fd87*,2024-02-18_20h10.02.646,kallum_motion_pilot,2023.2.2,Win32,59.17159763,613e868f4d6c157238b8fd87,65d2b6c8f2eece985d8e374c,65d2b83fe3f907e4ffc059f1,0.0635,0.0635,1,84,246,43,1,twofour,,,,,,,,,,,,,,,,,,,,,,,,,,,,,,,,,,,,,,,,,,,,,,,,,,,,,,,,,,,,,,,,,,,,,,,,,,,,,,,,,,,,,,,,,,,,,,,,,,,,,,,,,,,,,,,,,,,,,,,,,,,,,,,,,,,,,,,,,
,,613e868f4d6c157238b8fd87*,2024-02-18_20h10.02.646,kallum_motion_pilot,2023.2.2,Win32,59.17159763,613e868f4d6c157238b8fd87,65d2b6c8f2eece985d8e374c,65d2b83fe3f907e4ffc059f1,0.0636,0.0637,1,85,247,142,1,eightsix,,,,,,,,,,,,,,,,,,,,,,,,,,,,,,,,,,,,,,,,,,,,,,,,,,,,,,,,,,,,,,,,,,,,,,,,,,,,,,,,,,,,,,,,,,,,,,,,,,,,,,,,,,,,,,,,,,,,,,,,,,,,,,,,,,,,,,,,,
,,613e868f4d6c157238b8fd87*,2024-02-18_20h10.02.646,kallum_motion_pilot,2023.2.2,Win32,59.17159763,613e868f4d6c157238b8fd87,65d2b6c8f2eece985d8e374c,65d2b83fe3f907e4ffc059f1,0.0638,0.0638,1,86,248,15,1,fourthree,,,,,,,,,,,,,,,,,,,,,,,,,,,,,,,,,,,,,,,,,,,,,,,,,,,,,,,,,,,,,,,,,,,,,,,,,,,,,,,,,,,,,,,,,,,,,,,,,,,,,,,,,,,,,,,,,,,,,,,,,,,,,,,,,,,,,,,,,
,,613e868f4d6c157238b8fd87*,2024-02-18_20h10.02.646,kallum_motion_pilot,2023.2.2,Win32,59.17159763,613e868f4d6c157238b8fd87,65d2b6c8f2eece985d8e374c,65d2b83fe3f907e4ffc059f1,0.064,0.0641,1,87,249,44,1,threeone,,,,,,,,,,,,,,,,,,,,,,,,,,,,,,,,,,,,,,,,,,,,,,,,,,,,,,,,,,,,,,,,,,,,,,,,,,,,,,,,,,,,,,,,,,,,,,,,,,,,,,,,,,,,,,,,,,,,,,,,,,,,,,,,,,,,,,,,,
,,613e868f4d6c157238b8fd87*,2024-02-18_20h10.02.646,kallum_motion_pilot,2023.2.2,Win32,59.17159763,613e868f4d6c157238b8fd87,65d2b6c8f2eece985d8e374c,65d2b83fe3f907e4ffc059f1,0.0643,0.0644,1,88,250,72,1,onetwo,,,,,,,,,,,,,,,,,,,,,,,,,,,,,,,,,,,,,,,,,,,,,,,,,,,,,,,,,,,,,,,,,,,,,,,,,,,,,,,,,,,,,,,,,,,,,,,,,,,,,,,,,,,,,,,,,,,,,,,,,,,,,,,,,,,,,,,,,
,,613e868f4d6c157238b8fd87*,2024-02-18_20h10.02.646,kallum_motion_pilot,2023.2.2,Win32,59.17159763,613e868f4d6c157238b8fd87,65d2b6c8f2eece985d8e374c,65d2b83fe3f907e4ffc059f1,0.0645,0.0647,1,89,251,71,1,fourthree,,,,,,,,,,,,,,,,,,,,,,,,,,,,,,,,,,,,,,,,,,,,,,,,,,,,,,,,,,,,,,,,,,,,,,,,,,,,,,,,,,,,,,,,,,,,,,,,,,,,,,,,,,,,,,,,,,,,,,,,,,,,,,,,,,,,,,,,,
,,613e868f4d6c157238b8fd87*,2024-02-18_20h10.02.646,kallum_motion_pilot,2023.2.2,Win32,59.17159763,613e868f4d6c157238b8fd87,65d2b6c8f2eece985d8e374c,65d2b83fe3f907e4ffc059f1,0.0649,0.065,1,90,252,59,1,twofour,,,,,,,,,,,,,,,,,,,,,,,,,,,,,,,,,,,,,,,,,,,,,,,,,,,,,,,,,,,,,,,,,,,,,,,,,,,,,,,,,,,,,,,,,,,,,,,,,,,,,,,,,,,,,,,,,,,,,,,,,,,,,,,,,,,,,,,,,
,,613e868f4d6c157238b8fd87*,2024-02-18_20h10.02.646,kallum_motion_pilot,2023.2.2,Win32,59.17159763,613e868f4d6c157238b8fd87,65d2b6c8f2eece985d8e374c,65d2b83fe3f907e4ffc059f1,0.0652,0.0653,1,91,253,67,1,twofour,,,,,,,,,,,,,,,,,,,,,,,,,,,,,,,,,,,,,,,,,,,,,,,,,,,,,,,,,,,,,,,,,,,,,,,,,,,,,,,,,,,,,,,,,,,,,,,,,,,,,,,,,,,,,,,,,,,,,,,,,,,,,,,,,,,,,,,,,
,,613e868f4d6c157238b8fd87*,2024-02-18_20h10.02.646,kallum_motion_pilot,2023.2.2,Win32,59.17159763,613e868f4d6c157238b8fd87,65d2b6c8f2eece985d8e374c,65d2b83fe3f907e4ffc059f1,0.0655,0.0656,1,92,254,4,1,threeone,,,,,,,,,,,,,,,,,,,,,,,,,,,,,,,,,,,,,,,,,,,,,,,,,,,,,,,,,,,,,,,,,,,,,,,,,,,,,,,,,,,,,,,,,,,,,,,,,,,,,,,,,,,,,,,,,,,,,,,,,,,,,,,,,,,,,,,,,
,,613e868f4d6c157238b8fd87*,2024-02-18_20h10.02.646,kallum_motion_pilot,2023.2.2,Win32,59.17159763,613e868f4d6c157238b8fd87,65d2b6c8f2eece985d8e374c,65d2b83fe3f907e4ffc059f1,0.0659,0.066,1,93,255,133,1,seveneight,,,,,,,,,,,,,,,,,,,,,,,,,,,,,,,,,,,,,,,,,,,,,,,,,,,,,,,,,,,,,,,,,,,,,,,,,,,,,,,,,,,,,,,,,,,,,,,,,,,,,,,,,,,,,,,,,,,,,,,,,,,,,,,,,,,,,,,,,
,,613e868f4d6c157238b8fd87*,2024-02-18_20h10.02.646,kallum_motion_pilot,2023.2.2,Win32,59.17159763,613e868f4d6c157238b8fd87,65d2b6c8f2eece985d8e374c,65d2b83fe3f907e4ffc059f1,0.0661,0.0663,1,94,256,65,1,onethree,,,,,,,,,,,,,,,,,,,,,,,,,,,,,,,,,,,,,,,,,,,,,,,,,,,,,,,,,,,,,,,,,,,,,,,,,,,,,,,,,,,,,,,,,,,,,,,,,,,,,,,,,,,,,,,,,,,,,,,,,,,,,,,,,,,,,,,,,
,,613e868f4d6c157238b8fd87*,2024-02-18_20h10.02.646,kallum_motion_pilot,2023.2.2,Win32,59.17159763,613e868f4d6c157238b8fd87,65d2b6c8f2eece985d8e374c,65d2b83fe3f907e4ffc059f1,0.0664,0.0665,1,95,257,34,1,twoone,,,,,,,,,,,,,,,,,,,,,,,,,,,,,,,,,,,,,,,,,,,,,,,,,,,,,,,,,,,,,,,,,,,,,,,,,,,,,,,,,,,,,,,,,,,,,,,,,,,,,,,,,,,,,,,,,,,,,,,,,,,,,,,,,,,,,,,,,
,,613e868f4d6c157238b8fd87*,2024-02-18_20h10.02.646,kallum_motion_pilot,2023.2.2,Win32,59.17159763,613e868f4d6c157238b8fd87,65d2b6c8f2eece985d8e374c,65d2b83fe3f907e4ffc059f1,0.0666,0.0667,1,96,258,26,1,twoone,,,,,,,,,,,,,,,,,,,,,,,,,,,,,,,,,,,,,,,,,,,,,,,,,,,,,,,,,,,,,,,,,,,,,,,,,,,,,,,,,,,,,,,,,,,,,,,,,,,,,,,,,,,,,,,,,,,,,,,,,,,,,,,,,,,,,,,,,
,,613e868f4d6c157238b8fd87*,2024-02-18_20h10.02.646,kallum_motion_pilot,2023.2.2,Win32,59.17159763,613e868f4d6c157238b8fd87,65d2b6c8f2eece985d8e374c,65d2b83fe3f907e4ffc059f1,0.0668,0.0669,1,97,259,10,1,twoone,,,,,,,,,,,,,,,,,,,,,,,,,,,,,,,,,,,,,,,,,,,,,,,,,,,,,,,,,,,,,,,,,,,,,,,,,,,,,,,,,,,,,,,,,,,,,,,,,,,,,,,,,,,,,,,,,,,,,,,,,,,,,,,,,,,,,,,,,
,,613e868f4d6c157238b8fd87*,2024-02-18_20h10.02.646,kallum_motion_pilot,2023.2.2,Win32,59.17159763,613e868f4d6c157238b8fd87,65d2b6c8f2eece985d8e374c,65d2b83fe3f907e4ffc059f1,0.067,0.0671,1,98,260,140,1,sevenfive,,,,,,,,,,,,,,,,,,,,,,,,,,,,,,,,,,,,,,,,,,,,,,,,,,,,,,,,,,,,,,,,,,,,,,,,,,,,,,,,,,,,,,,,,,,,,,,,,,,,,,,,,,,,,,,,,,,,,,,,,,,,,,,,,,,,,,,,,
,,613e868f4d6c157238b8fd87*,2024-02-18_20h10.02.646,kallum_motion_pilot,2023.2.2,Win32,59.17159763,613e868f4d6c157238b8fd87,65d2b6c8f2eece985d8e374c,65d2b83fe3f907e4ffc059f1,0.0672,0.0673,1,99,261,38,1,fourtwo,,,,,,,,,,,,,,,,,,,,,,,,,,,,,,,,,,,,,,,,,,,,,,,,,,,,,,,,,,,,,,,,,,,,,,,,,,,,,,,,,,,,,,,,,,,,,,,,,,,,,,,,,,,,,,,,,,,,,,,,,,,,,,,,,,,,,,,,,
,,613e868f4d6c157238b8fd87*,2024-02-18_20h10.02.646,kallum_motion_pilot,2023.2.2,Win32,59.17159763,613e868f4d6c157238b8fd87,65d2b6c8f2eece985d8e374c,65d2b83fe3f907e4ffc059f1,0.0674,0.0674,1,100,262,39,1,fourthree,,,,,,,,,,,,,,,,,,,,,,,,,,,,,,,,,,,,,,,,,,,,,,,,,,,,,,,,,,,,,,,,,,,,,,,,,,,,,,,,,,,,,,,,,,,,,,,,,,,,,,,,,,,,,,,,,,,,,,,,,,,,,,,,,,,,,,,,,
,,613e868f4d6c157238b8fd87*,2024-02-18_20h10.02.646,kallum_motion_pilot,2023.2.2,Win32,59.17159763,613e868f4d6c157238b8fd87,65d2b6c8f2eece985d8e374c,65d2b83fe3f907e4ffc059f1,0.0676,0.0676,1,101,263,69,1,threefour,,,,,,,,,,,,,,,,,,,,,,,,,,,,,,,,,,,,,,,,,,,,,,,,,,,,,,,,,,,,,,,,,,,,,,,,,,,,,,,,,,,,,,,,,,,,,,,,,,,,,,,,,,,,,,,,,,,,,,,,,,,,,,,,,,,,,,,,,
,,613e868f4d6c157238b8fd87*,2024-02-18_20h10.02.646,kallum_motion_pilot,2023.2.2,Win32,59.17159763,613e868f4d6c157238b8fd87,65d2b6c8f2eece985d8e374c,65d2b83fe3f907e4ffc059f1,0.0679,0.0679,1,102,264,130,1,sixfive,,,,,,,,,,,,,,,,,,,,,,,,,,,,,,,,,,,,,,,,,,,,,,,,,,,,,,,,,,,,,,,,,,,,,,,,,,,,,,,,,,,,,,,,,,,,,,,,,,,,,,,,,,,,,,,,,,,,,,,,,,,,,,,,,,,,,,,,,
,,613e868f4d6c157238b8fd87*,2024-02-18_20h10.02.646,kallum_motion_pilot,2023.2.2,Win32,59.17159763,613e868f4d6c157238b8fd87,65d2b6c8f2eece985d8e374c,65d2b83fe3f907e4ffc059f1,0.068,0.0682,1,103,265,108,1,sevenfive,,,,,,,,,,,,,,,,,,,,,,,,,,,,,,,,,,,,,,,,,,,,,,,,,,,,,,,,,,,,,,,,,,,,,,,,,,,,,,,,,,,,,,,,,,,,,,,,,,,,,,,,,,,,,,,,,,,,,,,,,,,,,,,,,,,,,,,,,
,,613e868f4d6c157238b8fd87*,2024-02-18_20h10.02.646,kallum_motion_pilot,2023.2.2,Win32,59.17159763,613e868f4d6c157238b8fd87,65d2b6c8f2eece985d8e374c,65d2b83fe3f907e4ffc059f1,0.0682,0.0683,1,104,266,101,1,seveneight,,,,,,,,,,,,,,,,,,,,,,,,,,,,,,,,,,,,,,,,,,,,,,,,,,,,,,,,,,,,,,,,,,,,,,,,,,,,,,,,,,,,,,,,,,,,,,,,,,,,,,,,,,,,,,,,,,,,,,,,,,,,,,,,,,,,,,,,,
,,613e868f4d6c157238b8fd87*,2024-02-18_20h10.02.646,kallum_motion_pilot,2023.2.2,Win32,59.17159763,613e868f4d6c157238b8fd87,65d2b6c8f2eece985d8e374c,65d2b83fe3f907e4ffc059f1,0.0684,0.0685,1,105,267,150,1,eightsix,,,,,,,,,,,,,,,,,,,,,,,,,,,,,,,,,,,,,,,,,,,,,,,,,,,,,,,,,,,,,,,,,,,,,,,,,,,,,,,,,,,,,,,,,,,,,,,,,,,,,,,,,,,,,,,,,,,,,,,,,,,,,,,,,,,,,,,,,
,,613e868f4d6c157238b8fd87*,2024-02-18_20h10.02.646,kallum_motion_pilot,2023.2.2,Win32,59.17159763,613e868f4d6c157238b8fd87,65d2b6c8f2eece985d8e374c,65d2b83fe3f907e4ffc059f1,0.0686,0.0687,1,106,268,86,1,eightsix,,,,,,,,,,,,,,,,,,,,,,,,,,,,,,,,,,,,,,,,,,,,,,,,,,,,,,,,,,,,,,,,,,,,,,,,,,,,,,,,,,,,,,,,,,,,,,,,,,,,,,,,,,,,,,,,,,,,,,,,,,,,,,,,,,,,,,,,,
,,613e868f4d6c157238b8fd87*,2024-02-18_20h10.02.646,kallum_motion_pilot,2023.2.2,Win32,59.17159763,613e868f4d6c157238b8fd87,65d2b6c8f2eece985d8e374c,65d2b83fe3f907e4ffc059f1,0.0687,0.0688,1,107,269,76,1,threeone,,,,,,,,,,,,,,,,,,,,,,,,,,,,,,,,,,,,,,,,,,,,,,,,,,,,,,,,,,,,,,,,,,,,,,,,,,,,,,,,,,,,,,,,,,,,,,,,,,,,,,,,,,,,,,,,,,,,,,,,,,,,,,,,,,,,,,,,,
,,613e868f4d6c157238b8fd87*,2024-02-18_20h10.02.646,kallum_motion_pilot,2023.2.2,Win32,59.17159763,613e868f4d6c157238b8fd87,65d2b6c8f2eece985d8e374c,65d2b83fe3f907e4ffc059f1,0.0689,0.0691,1,108,270,75,1,twofour,,,,,,,,,,,,,,,,,,,,,,,,,,,,,,,,,,,,,,,,,,,,,,,,,,,,,,,,,,,,,,,,,,,,,,,,,,,,,,,,,,,,,,,,,,,,,,,,,,,,,,,,,,,,,,,,,,,,,,,,,,,,,,,,,,,,,,,,,
,,613e868f4d6c157238b8fd87*,2024-02-18_20h10.02.646,kallum_motion_pilot,2023.2.2,Win32,59.17159763,613e868f4d6c157238b8fd87,65d2b6c8f2eece985d8e374c,65d2b83fe3f907e4ffc059f1,0.0692,0.0692,1,109,271,22,1,fourtwo,,,,,,,,,,,,,,,,,,,,,,,,,,,,,,,,,,,,,,,,,,,,,,,,,,,,,,,,,,,,,,,,,,,,,,,,,,,,,,,,,,,,,,,,,,,,,,,,,,,,,,,,,,,,,,,,,,,,,,,,,,,,,,,,,,,,,,,,,
,,613e868f4d6c157238b8fd87*,2024-02-18_20h10.02.646,kallum_motion_pilot,2023.2.2,Win32,59.17159763,613e868f4d6c157238b8fd87,65d2b6c8f2eece985d8e374c,65d2b83fe3f907e4ffc059f1,0.0693,0.0694,1,110,272,97,1,fiveseven,,,,,,,,,,,,,,,,,,,,,,,,,,,,,,,,,,,,,,,,,,,,,,,,,,,,,,,,,,,,,,,,,,,,,,,,,,,,,,,,,,,,,,,,,,,,,,,,,,,,,,,,,,,,,,,,,,,,,,,,,,,,,,,,,,,,,,,,,
,,613e868f4d6c157238b8fd87*,2024-02-18_20h10.02.646,kallum_motion_pilot,2023.2.2,Win32,59.17159763,613e868f4d6c157238b8fd87,65d2b6c8f2eece985d8e374c,65d2b83fe3f907e4ffc059f1,0.0695,0.0695,1,111,273,48,1,onetwo,,,,,,,,,,,,,,,,,,,,,,,,,,,,,,,,,,,,,,,,,,,,,,,,,,,,,,,,,,,,,,,,,,,,,,,,,,,,,,,,,,,,,,,,,,,,,,,,,,,,,,,,,,,,,,,,,,,,,,,,,,,,,,,,,,,,,,,,,
,,613e868f4d6c157238b8fd87*,2024-02-18_20h10.02.646,kallum_motion_pilot,2023.2.2,Win32,59.17159763,613e868f4d6c157238b8fd87,65d2b6c8f2eece985d8e374c,65d2b83fe3f907e4ffc059f1,0.0697,0.0697,1,112,274,96,1,fivesix,,,,,,,,,,,,,,,,,,,,,,,,,,,,,,,,,,,,,,,,,,,,,,,,,,,,,,,,,,,,,,,,,,,,,,,,,,,,,,,,,,,,,,,,,,,,,,,,,,,,,,,,,,,,,,,,,,,,,,,,,,,,,,,,,,,,,,,,,
,,613e868f4d6c157238b8fd87*,2024-02-18_20h10.02.646,kallum_motion_pilot,2023.2.2,Win32,59.17159763,613e868f4d6c157238b8fd87,65d2b6c8f2eece985d8e374c,65d2b83fe3f907e4ffc059f1,0.0698,0.0699,1,113,275,109,1,seveneight,,,,,,,,,,,,,,,,,,,,,,,,,,,,,,,,,,,,,,,,,,,,,,,,,,,,,,,,,,,,,,,,,,,,,,,,,,,,,,,,,,,,,,,,,,,,,,,,,,,,,,,,,,,,,,,,,,,,,,,,,,,,,,,,,,,,,,,,,
,,613e868f4d6c157238b8fd87*,2024-02-18_20h10.02.646,kallum_motion_pilot,2023.2.2,Win32,59.17159763,613e868f4d6c157238b8fd87,65d2b6c8f2eece985d8e374c,65d2b83fe3f907e4ffc059f1,0.0699,0.07,1,114,276,146,1,sixfive,,,,,,,,,,,,,,,,,,,,,,,,,,,,,,,,,,,,,,,,,,,,,,,,,,,,,,,,,,,,,,,,,,,,,,,,,,,,,,,,,,,,,,,,,,,,,,,,,,,,,,,,,,,,,,,,,,,,,,,,,,,,,,,,,,,,,,,,,
