startup.started,startup.stopped,Prolific ID*,date,expName,psychopyVersion,OS,frameRate,participant,study_id,session,stimpositions.started,stimpositions.stopped,hardcoded_stimulus_positions.thisRepN,hardcoded_stimulus_positions.thisTrialN,hardcoded_stimulus_positions.thisN,hardcoded_stimulus_positions.thisIndex,hardcoded_stimulus_positions.ran,StimulusPos,stimorientation.started,stimorientation.stopped,prac_stimorientation_import_loop.thisRepN,prac_stimorientation_import_loop.thisTrialN,prac_stimorientation_import_loop.thisN,prac_stimorientation_import_loop.thisIndex,prac_stimorientation_import_loop.ran,Stimorientation,welcome_instr.started,welcome_instr.stopped,key_resp.keys,key_resp.rt,key_resp.duration,response_steppedout_1.started,response_steppedout_1.stopped,key_resp_20.keys,key_resp_20.rt,key_resp_20.duration,response_steppedout_2.started,response_steppedout_2.stopped,key_resp_19.keys,key_resp_19.rt,key_resp_19.duration,stim_response_instr.started,stim_response_instr.stopped,key_resp_15.keys,key_resp_15.rt,key_resp_15.duration,direction_instr_2.started,direction_instr_2.stopped,key_resp_9.keys,key_resp_9.rt,key_resp_9.duration,instr_prac.started,instr_prac.stopped,key_resp_10.keys,key_resp_10.rt,key_resp_10.duration,Stim1_display_prac.started,Stim1_display_prac.stopped,Ecc,Circle1_ori,Circle2_ori,response_prac.started,similarity,response_time,response_prac.stopped,mouse_5.x,mouse_5.y,mouse_5.leftButton,mouse_5.midButton,mouse_5.rightButton,mouse_5.clicked_name,responseprac_feedback.started,responseprac_feedback.stopped,summary2_prac.started,summary2_prac.stopped,mouse_6.x,mouse_6.y,mouse_6.leftButton,mouse_6.midButton,mouse_6.rightButton,mouse_6.clicked_name,duringprac.thisRepN,duringprac.thisTrialN,duringprac.thisN,duringprac.thisIndex,duringprac.ran,begin.started,begin.stopped,key_resp_22.keys,key_resp_22.rt,key_resp_22.duration,Stim1_display.started,Stim1_display.stopped,circle1_ori,circle2_ori,circle1_SF,circle2_SF,response.started,response.stopped,mouse.x,mouse.y,mouse.leftButton,mouse.midButton,mouse.rightButton,mouse.clicked_name,trialnumber,double_pass.thisRepN,double_pass.thisTrialN,double_pass.thisN,double_pass.thisIndex,double_pass.ran,double_pass.order,main_trial.thisRepN,main_trial.thisTrialN,main_trial.thisN,main_trial.thisIndex,main_trial.ran,main_trial.order,Trial_Counter,Catch,Frequencies,response_2.started,response_2.stopped,mouse_2.x,mouse_2.y,mouse_2.leftButton,mouse_2.midButton,mouse_2.rightButton,mouse_2.clicked_name,special_trial.started,special_trial.stopped,catch_1.started,catch_1.stopped,mouse_3.x,mouse_3.y,mouse_3.leftButton,mouse_3.midButton,mouse_3.rightButton,catchresponse,catchnumber,response_time_catch,response_sum.started,response_sum.stopped,mouse_11.x,mouse_11.y,mouse_11.leftButton,mouse_11.midButton,mouse_11.rightButton,flip_presentation_sequence_for_double_pass.started,flip_presentation_sequence_for_double_pass.stopped,goodbye.started,goodbye.stopped,key_resp_3.keys,key_resp_3.rt,key_resp_3.duration
0.0018,0.0023,613f9ef9ebef8fb30930aa02,2024-02-21_21h29.04.832,kallum_motion_pilot,2023.2.2,Win32,59.88023952,613f9ef9ebef8fb30930aa02,65d6bb0e977760de756971f7,65d6be61958801b618b98425,,,,,,,,,,,,,,,,,,,,,,,,,,,,,,,,,,,,,,,,,,,,,,,,,,,,,,,,,,,,,,,,,,,,,,,,,,,,,,,,,,,,,,,,,,,,,,,,,,,,,,,,,,,,,,,,,,,,,,,,,,,,,,,,,,,,,,,,,,,,,,,,,
,,613f9ef9ebef8fb30930aa02,2024-02-21_21h29.04.832,kallum_motion_pilot,2023.2.2,Win32,59.88023952,613f9ef9ebef8fb30930aa02,65d6bb0e977760de756971f7,65d6be61958801b618b98425,0.0425,0.0427,0,0,0,92,1,sevenfive,,,,,,,,,,,,,,,,,,,,,,,,,,,,,,,,,,,,,,,,,,,,,,,,,,,,,,,,,,,,,,,,,,,,,,,,,,,,,,,,,,,,,,,,,,,,,,,,,,,,,,,,,,,,,,,,,,,,,,,,,,,,,,,,,,,,,,,,,
,,613f9ef9ebef8fb30930aa02,2024-02-21_21h29.04.832,kallum_motion_pilot,2023.2.2,Win32,59.88023952,613f9ef9ebef8fb30930aa02,65d6bb0e977760de756971f7,65d6be61958801b618b98425,0.0431,0.0431,0,1,1,119,1,eightseven,,,,,,,,,,,,,,,,,,,,,,,,,,,,,,,,,,,,,,,,,,,,,,,,,,,,,,,,,,,,,,,,,,,,,,,,,,,,,,,,,,,,,,,,,,,,,,,,,,,,,,,,,,,,,,,,,,,,,,,,,,,,,,,,,,,,,,,,,
,,613f9ef9ebef8fb30930aa02,2024-02-21_21h29.04.832,kallum_motion_pilot,2023.2.2,Win32,59.88023952,613f9ef9ebef8fb30930aa02,65d6bb0e977760de756971f7,65d6be61958801b618b98425,0.0433,0.0433,0,2,2,61,1,threefour,,,,,,,,,,,,,,,,,,,,,,,,,,,,,,,,,,,,,,,,,,,,,,,,,,,,,,,,,,,,,,,,,,,,,,,,,,,,,,,,,,,,,,,,,,,,,,,,,,,,,,,,,,,,,,,,,,,,,,,,,,,,,,,,,,,,,,,,,
,,613f9ef9ebef8fb30930aa02,2024-02-21_21h29.04.832,kallum_motion_pilot,2023.2.2,Win32,59.88023952,613f9ef9ebef8fb30930aa02,65d6bb0e977760de756971f7,65d6be61958801b618b98425,0.0435,0.0436,0,3,3,129,1,fiveseven,,,,,,,,,,,,,,,,,,,,,,,,,,,,,,,,,,,,,,,,,,,,,,,,,,,,,,,,,,,,,,,,,,,,,,,,,,,,,,,,,,,,,,,,,,,,,,,,,,,,,,,,,,,,,,,,,,,,,,,,,,,,,,,,,,,,,,,,,
,,613f9ef9ebef8fb30930aa02,2024-02-21_21h29.04.832,kallum_motion_pilot,2023.2.2,Win32,59.88023952,613f9ef9ebef8fb30930aa02,65d6bb0e977760de756971f7,65d6be61958801b618b98425,0.0437,0.0437,0,4,4,9,1,onethree,,,,,,,,,,,,,,,,,,,,,,,,,,,,,,,,,,,,,,,,,,,,,,,,,,,,,,,,,,,,,,,,,,,,,,,,,,,,,,,,,,,,,,,,,,,,,,,,,,,,,,,,,,,,,,,,,,,,,,,,,,,,,,,,,,,,,,,,,
,,613f9ef9ebef8fb30930aa02,2024-02-21_21h29.04.832,kallum_motion_pilot,2023.2.2,Win32,59.88023952,613f9ef9ebef8fb30930aa02,65d6bb0e977760de756971f7,65d6be61958801b618b98425,0.0439,0.044,0,5,5,27,1,twofour,,,,,,,,,,,,,,,,,,,,,,,,,,,,,,,,,,,,,,,,,,,,,,,,,,,,,,,,,,,,,,,,,,,,,,,,,,,,,,,,,,,,,,,,,,,,,,,,,,,,,,,,,,,,,,,,,,,,,,,,,,,,,,,,,,,,,,,,,
,,613f9ef9ebef8fb30930aa02,2024-02-21_21h29.04.832,kallum_motion_pilot,2023.2.2,Win32,59.88023952,613f9ef9ebef8fb30930aa02,65d6bb0e977760de756971f7,65d6be61958801b618b98425,0.0441,0.0442,0,6,6,132,1,sevenfive,,,,,,,,,,,,,,,,,,,,,,,,,,,,,,,,,,,,,,,,,,,,,,,,,,,,,,,,,,,,,,,,,,,,,,,,,,,,,,,,,,,,,,,,,,,,,,,,,,,,,,,,,,,,,,,,,,,,,,,,,,,,,,,,,,,,,,,,,
,,613f9ef9ebef8fb30930aa02,2024-02-21_21h29.04.832,kallum_motion_pilot,2023.2.2,Win32,59.88023952,613f9ef9ebef8fb30930aa02,65d6bb0e977760de756971f7,65d6be61958801b618b98425,0.0443,0.0443,0,7,7,156,1,sevenfive,,,,,,,,,,,,,,,,,,,,,,,,,,,,,,,,,,,,,,,,,,,,,,,,,,,,,,,,,,,,,,,,,,,,,,,,,,,,,,,,,,,,,,,,,,,,,,,,,,,,,,,,,,,,,,,,,,,,,,,,,,,,,,,,,,,,,,,,,
,,613f9ef9ebef8fb30930aa02,2024-02-21_21h29.04.832,kallum_motion_pilot,2023.2.2,Win32,59.88023952,613f9ef9ebef8fb30930aa02,65d6bb0e977760de756971f7,65d6be61958801b618b98425,0.0445,0.0446,0,8,8,141,1,seveneight,,,,,,,,,,,,,,,,,,,,,,,,,,,,,,,,,,,,,,,,,,,,,,,,,,,,,,,,,,,,,,,,,,,,,,,,,,,,,,,,,,,,,,,,,,,,,,,,,,,,,,,,,,,,,,,,,,,,,,,,,,,,,,,,,,,,,,,,,
,,613f9ef9ebef8fb30930aa02,2024-02-21_21h29.04.832,kallum_motion_pilot,2023.2.2,Win32,59.88023952,613f9ef9ebef8fb30930aa02,65d6bb0e977760de756971f7,65d6be61958801b618b98425,0.045,0.045,0,9,9,101,1,seveneight,,,,,,,,,,,,,,,,,,,,,,,,,,,,,,,,,,,,,,,,,,,,,,,,,,,,,,,,,,,,,,,,,,,,,,,,,,,,,,,,,,,,,,,,,,,,,,,,,,,,,,,,,,,,,,,,,,,,,,,,,,,,,,,,,,,,,,,,,
,,613f9ef9ebef8fb30930aa02,2024-02-21_21h29.04.832,kallum_motion_pilot,2023.2.2,Win32,59.88023952,613f9ef9ebef8fb30930aa02,65d6bb0e977760de756971f7,65d6be61958801b618b98425,0.0452,0.0453,0,10,10,81,1,fiveseven,,,,,,,,,,,,,,,,,,,,,,,,,,,,,,,,,,,,,,,,,,,,,,,,,,,,,,,,,,,,,,,,,,,,,,,,,,,,,,,,,,,,,,,,,,,,,,,,,,,,,,,,,,,,,,,,,,,,,,,,,,,,,,,,,,,,,,,,,
,,613f9ef9ebef8fb30930aa02,2024-02-21_21h29.04.832,kallum_motion_pilot,2023.2.2,Win32,59.88023952,613f9ef9ebef8fb30930aa02,65d6bb0e977760de756971f7,65d6be61958801b618b98425,0.0454,0.0454,0,11,11,68,1,threeone,,,,,,,,,,,,,,,,,,,,,,,,,,,,,,,,,,,,,,,,,,,,,,,,,,,,,,,,,,,,,,,,,,,,,,,,,,,,,,,,,,,,,,,,,,,,,,,,,,,,,,,,,,,,,,,,,,,,,,,,,,,,,,,,,,,,,,,,,
,,613f9ef9ebef8fb30930aa02,2024-02-21_21h29.04.832,kallum_motion_pilot,2023.2.2,Win32,59.88023952,613f9ef9ebef8fb30930aa02,65d6bb0e977760de756971f7,65d6be61958801b618b98425,0.0456,0.0456,0,12,12,47,1,fourthree,,,,,,,,,,,,,,,,,,,,,,,,,,,,,,,,,,,,,,,,,,,,,,,,,,,,,,,,,,,,,,,,,,,,,,,,,,,,,,,,,,,,,,,,,,,,,,,,,,,,,,,,,,,,,,,,,,,,,,,,,,,,,,,,,,,,,,,,,
,,613f9ef9ebef8fb30930aa02,2024-02-21_21h29.04.832,kallum_motion_pilot,2023.2.2,Win32,59.88023952,613f9ef9ebef8fb30930aa02,65d6bb0e977760de756971f7,65d6be61958801b618b98425,0.0457,0.0457,0,13,13,154,1,sixfive,,,,,,,,,,,,,,,,,,,,,,,,,,,,,,,,,,,,,,,,,,,,,,,,,,,,,,,,,,,,,,,,,,,,,,,,,,,,,,,,,,,,,,,,,,,,,,,,,,,,,,,,,,,,,,,,,,,,,,,,,,,,,,,,,,,,,,,,,
,,613f9ef9ebef8fb30930aa02,2024-02-21_21h29.04.832,kallum_motion_pilot,2023.2.2,Win32,59.88023952,613f9ef9ebef8fb30930aa02,65d6bb0e977760de756971f7,65d6be61958801b618b98425,0.0459,0.0459,0,14,14,83,1,sixeight,,,,,,,,,,,,,,,,,,,,,,,,,,,,,,,,,,,,,,,,,,,,,,,,,,,,,,,,,,,,,,,,,,,,,,,,,,,,,,,,,,,,,,,,,,,,,,,,,,,,,,,,,,,,,,,,,,,,,,,,,,,,,,,,,,,,,,,,,
,,613f9ef9ebef8fb30930aa02,2024-02-21_21h29.04.832,kallum_motion_pilot,2023.2.2,Win32,59.88023952,613f9ef9ebef8fb30930aa02,65d6bb0e977760de756971f7,65d6be61958801b618b98425,0.046,0.046,0,15,15,120,1,fivesix,,,,,,,,,,,,,,,,,,,,,,,,,,,,,,,,,,,,,,,,,,,,,,,,,,,,,,,,,,,,,,,,,,,,,,,,,,,,,,,,,,,,,,,,,,,,,,,,,,,,,,,,,,,,,,,,,,,,,,,,,,,,,,,,,,,,,,,,,
,,613f9ef9ebef8fb30930aa02,2024-02-21_21h29.04.832,kallum_motion_pilot,2023.2.2,Win32,59.88023952,613f9ef9ebef8fb30930aa02,65d6bb0e977760de756971f7,65d6be61958801b618b98425,0.0462,0.0462,0,16,16,117,1,seveneight,,,,,,,,,,,,,,,,,,,,,,,,,,,,,,,,,,,,,,,,,,,,,,,,,,,,,,,,,,,,,,,,,,,,,,,,,,,,,,,,,,,,,,,,,,,,,,,,,,,,,,,,,,,,,,,,,,,,,,,,,,,,,,,,,,,,,,,,,
,,613f9ef9ebef8fb30930aa02,2024-02-21_21h29.04.832,kallum_motion_pilot,2023.2.2,Win32,59.88023952,613f9ef9ebef8fb30930aa02,65d6bb0e977760de756971f7,65d6be61958801b618b98425,0.0463,0.0463,0,17,17,136,1,fivesix,,,,,,,,,,,,,,,,,,,,,,,,,,,,,,,,,,,,,,,,,,,,,,,,,,,,,,,,,,,,,,,,,,,,,,,,,,,,,,,,,,,,,,,,,,,,,,,,,,,,,,,,,,,,,,,,,,,,,,,,,,,,,,,,,,,,,,,,,
,,613f9ef9ebef8fb30930aa02,2024-02-21_21h29.04.832,kallum_motion_pilot,2023.2.2,Win32,59.88023952,613f9ef9ebef8fb30930aa02,65d6bb0e977760de756971f7,65d6be61958801b618b98425,0.0464,0.0465,0,18,18,31,1,fourthree,,,,,,,,,,,,,,,,,,,,,,,,,,,,,,,,,,,,,,,,,,,,,,,,,,,,,,,,,,,,,,,,,,,,,,,,,,,,,,,,,,,,,,,,,,,,,,,,,,,,,,,,,,,,,,,,,,,,,,,,,,,,,,,,,,,,,,,,,
,,613f9ef9ebef8fb30930aa02,2024-02-21_21h29.04.832,kallum_motion_pilot,2023.2.2,Win32,59.88023952,613f9ef9ebef8fb30930aa02,65d6bb0e977760de756971f7,65d6be61958801b618b98425,0.0466,0.0467,0,19,19,16,1,onetwo,,,,,,,,,,,,,,,,,,,,,,,,,,,,,,,,,,,,,,,,,,,,,,,,,,,,,,,,,,,,,,,,,,,,,,,,,,,,,,,,,,,,,,,,,,,,,,,,,,,,,,,,,,,,,,,,,,,,,,,,,,,,,,,,,,,,,,,,,
,,613f9ef9ebef8fb30930aa02,2024-02-21_21h29.04.832,kallum_motion_pilot,2023.2.2,Win32,59.88023952,613f9ef9ebef8fb30930aa02,65d6bb0e977760de756971f7,65d6be61958801b618b98425,0.0468,0.0468,0,20,20,37,1,threefour,,,,,,,,,,,,,,,,,,,,,,,,,,,,,,,,,,,,,,,,,,,,,,,,,,,,,,,,,,,,,,,,,,,,,,,,,,,,,,,,,,,,,,,,,,,,,,,,,,,,,,,,,,,,,,,,,,,,,,,,,,,,,,,,,,,,,,,,,
,,613f9ef9ebef8fb30930aa02,2024-02-21_21h29.04.832,kallum_motion_pilot,2023.2.2,Win32,59.88023952,613f9ef9ebef8fb30930aa02,65d6bb0e977760de756971f7,65d6be61958801b618b98425,0.0469,0.047,0,21,21,54,1,fourtwo,,,,,,,,,,,,,,,,,,,,,,,,,,,,,,,,,,,,,,,,,,,,,,,,,,,,,,,,,,,,,,,,,,,,,,,,,,,,,,,,,,,,,,,,,,,,,,,,,,,,,,,,,,,,,,,,,,,,,,,,,,,,,,,,,,,,,,,,,
,,613f9ef9ebef8fb30930aa02,2024-02-21_21h29.04.832,kallum_motion_pilot,2023.2.2,Win32,59.88023952,613f9ef9ebef8fb30930aa02,65d6bb0e977760de756971f7,65d6be61958801b618b98425,0.0471,0.0471,0,22,22,8,1,onetwo,,,,,,,,,,,,,,,,,,,,,,,,,,,,,,,,,,,,,,,,,,,,,,,,,,,,,,,,,,,,,,,,,,,,,,,,,,,,,,,,,,,,,,,,,,,,,,,,,,,,,,,,,,,,,,,,,,,,,,,,,,,,,,,,,,,,,,,,,
,,613f9ef9ebef8fb30930aa02,2024-02-21_21h29.04.832,kallum_motion_pilot,2023.2.2,Win32,59.88023952,613f9ef9ebef8fb30930aa02,65d6bb0e977760de756971f7,65d6be61958801b618b98425,0.0473,0.0473,0,23,23,43,1,twofour,,,,,,,,,,,,,,,,,,,,,,,,,,,,,,,,,,,,,,,,,,,,,,,,,,,,,,,,,,,,,,,,,,,,,,,,,,,,,,,,,,,,,,,,,,,,,,,,,,,,,,,,,,,,,,,,,,,,,,,,,,,,,,,,,,,,,,,,,
,,613f9ef9ebef8fb30930aa02,2024-02-21_21h29.04.832,kallum_motion_pilot,2023.2.2,Win32,59.88023952,613f9ef9ebef8fb30930aa02,65d6bb0e977760de756971f7,65d6be61958801b618b98425,0.0475,0.0476,0,24,24,116,1,sevenfive,,,,,,,,,,,,,,,,,,,,,,,,,,,,,,,,,,,,,,,,,,,,,,,,,,,,,,,,,,,,,,,,,,,,,,,,,,,,,,,,,,,,,,,,,,,,,,,,,,,,,,,,,,,,,,,,,,,,,,,,,,,,,,,,,,,,,,,,,
,,613f9ef9ebef8fb30930aa02,2024-02-21_21h29.04.832,kallum_motion_pilot,2023.2.2,Win32,59.88023952,613f9ef9ebef8fb30930aa02,65d6bb0e977760de756971f7,65d6be61958801b618b98425,0.0477,0.0477,0,25,25,94,1,eightsix,,,,,,,,,,,,,,,,,,,,,,,,,,,,,,,,,,,,,,,,,,,,,,,,,,,,,,,,,,,,,,,,,,,,,,,,,,,,,,,,,,,,,,,,,,,,,,,,,,,,,,,,,,,,,,,,,,,,,,,,,,,,,,,,,,,,,,,,,
,,613f9ef9ebef8fb30930aa02,2024-02-21_21h29.04.832,kallum_motion_pilot,2023.2.2,Win32,59.88023952,613f9ef9ebef8fb30930aa02,65d6bb0e977760de756971f7,65d6be61958801b618b98425,0.0479,0.0479,0,26,26,89,1,fiveseven,,,,,,,,,,,,,,,,,,,,,,,,,,,,,,,,,,,,,,,,,,,,,,,,,,,,,,,,,,,,,,,,,,,,,,,,,,,,,,,,,,,,,,,,,,,,,,,,,,,,,,,,,,,,,,,,,,,,,,,,,,,,,,,,,,,,,,,,,
,,613f9ef9ebef8fb30930aa02,2024-02-21_21h29.04.832,kallum_motion_pilot,2023.2.2,Win32,59.88023952,613f9ef9ebef8fb30930aa02,65d6bb0e977760de756971f7,65d6be61958801b618b98425,0.0482,0.0483,0,27,27,111,1,eightseven,,,,,,,,,,,,,,,,,,,,,,,,,,,,,,,,,,,,,,,,,,,,,,,,,,,,,,,,,,,,,,,,,,,,,,,,,,,,,,,,,,,,,,,,,,,,,,,,,,,,,,,,,,,,,,,,,,,,,,,,,,,,,,,,,,,,,,,,,
,,613f9ef9ebef8fb30930aa02,2024-02-21_21h29.04.832,kallum_motion_pilot,2023.2.2,Win32,59.88023952,613f9ef9ebef8fb30930aa02,65d6bb0e977760de756971f7,65d6be61958801b618b98425,0.0485,0.0486,0,28,28,121,1,fiveseven,,,,,,,,,,,,,,,,,,,,,,,,,,,,,,,,,,,,,,,,,,,,,,,,,,,,,,,,,,,,,,,,,,,,,,,,,,,,,,,,,,,,,,,,,,,,,,,,,,,,,,,,,,,,,,,,,,,,,,,,,,,,,,,,,,,,,,,,,
,,613f9ef9ebef8fb30930aa02,2024-02-21_21h29.04.832,kallum_motion_pilot,2023.2.2,Win32,59.88023952,613f9ef9ebef8fb30930aa02,65d6bb0e977760de756971f7,65d6be61958801b618b98425,0.0487,0.0488,0,29,29,137,1,fiveseven,,,,,,,,,,,,,,,,,,,,,,,,,,,,,,,,,,,,,,,,,,,,,,,,,,,,,,,,,,,,,,,,,,,,,,,,,,,,,,,,,,,,,,,,,,,,,,,,,,,,,,,,,,,,,,,,,,,,,,,,,,,,,,,,,,,,,,,,,
,,613f9ef9ebef8fb30930aa02,2024-02-21_21h29.04.832,kallum_motion_pilot,2023.2.2,Win32,59.88023952,613f9ef9ebef8fb30930aa02,65d6bb0e977760de756971f7,65d6be61958801b618b98425,0.0489,0.0489,0,30,30,159,1,eightseven,,,,,,,,,,,,,,,,,,,,,,,,,,,,,,,,,,,,,,,,,,,,,,,,,,,,,,,,,,,,,,,,,,,,,,,,,,,,,,,,,,,,,,,,,,,,,,,,,,,,,,,,,,,,,,,,,,,,,,,,,,,,,,,,,,,,,,,,,
,,613f9ef9ebef8fb30930aa02,2024-02-21_21h29.04.832,kallum_motion_pilot,2023.2.2,Win32,59.88023952,613f9ef9ebef8fb30930aa02,65d6bb0e977760de756971f7,65d6be61958801b618b98425,0.049,0.0491,0,31,31,60,1,threeone,,,,,,,,,,,,,,,,,,,,,,,,,,,,,,,,,,,,,,,,,,,,,,,,,,,,,,,,,,,,,,,,,,,,,,,,,,,,,,,,,,,,,,,,,,,,,,,,,,,,,,,,,,,,,,,,,,,,,,,,,,,,,,,,,,,,,,,,,
,,613f9ef9ebef8fb30930aa02,2024-02-21_21h29.04.832,kallum_motion_pilot,2023.2.2,Win32,59.88023952,613f9ef9ebef8fb30930aa02,65d6bb0e977760de756971f7,65d6be61958801b618b98425,0.0492,0.0493,0,32,32,150,1,eightsix,,,,,,,,,,,,,,,,,,,,,,,,,,,,,,,,,,,,,,,,,,,,,,,,,,,,,,,,,,,,,,,,,,,,,,,,,,,,,,,,,,,,,,,,,,,,,,,,,,,,,,,,,,,,,,,,,,,,,,,,,,,,,,,,,,,,,,,,,
,,613f9ef9ebef8fb30930aa02,2024-02-21_21h29.04.832,kallum_motion_pilot,2023.2.2,Win32,59.88023952,613f9ef9ebef8fb30930aa02,65d6bb0e977760de756971f7,65d6be61958801b618b98425,0.0494,0.0494,0,33,33,109,1,seveneight,,,,,,,,,,,,,,,,,,,,,,,,,,,,,,,,,,,,,,,,,,,,,,,,,,,,,,,,,,,,,,,,,,,,,,,,,,,,,,,,,,,,,,,,,,,,,,,,,,,,,,,,,,,,,,,,,,,,,,,,,,,,,,,,,,,,,,,,,
,,613f9ef9ebef8fb30930aa02,2024-02-21_21h29.04.832,kallum_motion_pilot,2023.2.2,Win32,59.88023952,613f9ef9ebef8fb30930aa02,65d6bb0e977760de756971f7,65d6be61958801b618b98425,0.0495,0.0496,0,34,34,70,1,fourtwo,,,,,,,,,,,,,,,,,,,,,,,,,,,,,,,,,,,,,,,,,,,,,,,,,,,,,,,,,,,,,,,,,,,,,,,,,,,,,,,,,,,,,,,,,,,,,,,,,,,,,,,,,,,,,,,,,,,,,,,,,,,,,,,,,,,,,,,,,
,,613f9ef9ebef8fb30930aa02,2024-02-21_21h29.04.832,kallum_motion_pilot,2023.2.2,Win32,59.88023952,613f9ef9ebef8fb30930aa02,65d6bb0e977760de756971f7,65d6be61958801b618b98425,0.0497,0.0498,0,35,35,19,1,twofour,,,,,,,,,,,,,,,,,,,,,,,,,,,,,,,,,,,,,,,,,,,,,,,,,,,,,,,,,,,,,,,,,,,,,,,,,,,,,,,,,,,,,,,,,,,,,,,,,,,,,,,,,,,,,,,,,,,,,,,,,,,,,,,,,,,,,,,,,
,,613f9ef9ebef8fb30930aa02,2024-02-21_21h29.04.832,kallum_motion_pilot,2023.2.2,Win32,59.88023952,613f9ef9ebef8fb30930aa02,65d6bb0e977760de756971f7,65d6be61958801b618b98425,0.0499,0.0499,0,36,36,11,1,twofour,,,,,,,,,,,,,,,,,,,,,,,,,,,,,,,,,,,,,,,,,,,,,,,,,,,,,,,,,,,,,,,,,,,,,,,,,,,,,,,,,,,,,,,,,,,,,,,,,,,,,,,,,,,,,,,,,,,,,,,,,,,,,,,,,,,,,,,,,
,,613f9ef9ebef8fb30930aa02,2024-02-21_21h29.04.832,kallum_motion_pilot,2023.2.2,Win32,59.88023952,613f9ef9ebef8fb30930aa02,65d6bb0e977760de756971f7,65d6be61958801b618b98425,0.05,0.05,0,37,37,58,1,twoone,,,,,,,,,,,,,,,,,,,,,,,,,,,,,,,,,,,,,,,,,,,,,,,,,,,,,,,,,,,,,,,,,,,,,,,,,,,,,,,,,,,,,,,,,,,,,,,,,,,,,,,,,,,,,,,,,,,,,,,,,,,,,,,,,,,,,,,,,
,,613f9ef9ebef8fb30930aa02,2024-02-21_21h29.04.832,kallum_motion_pilot,2023.2.2,Win32,59.88023952,613f9ef9ebef8fb30930aa02,65d6bb0e977760de756971f7,65d6be61958801b618b98425,0.0502,0.0502,0,38,38,130,1,sixfive,,,,,,,,,,,,,,,,,,,,,,,,,,,,,,,,,,,,,,,,,,,,,,,,,,,,,,,,,,,,,,,,,,,,,,,,,,,,,,,,,,,,,,,,,,,,,,,,,,,,,,,,,,,,,,,,,,,,,,,,,,,,,,,,,,,,,,,,,
,,613f9ef9ebef8fb30930aa02,2024-02-21_21h29.04.832,kallum_motion_pilot,2023.2.2,Win32,59.88023952,613f9ef9ebef8fb30930aa02,65d6bb0e977760de756971f7,65d6be61958801b618b98425,0.0504,0.0504,0,39,39,44,1,threeone,,,,,,,,,,,,,,,,,,,,,,,,,,,,,,,,,,,,,,,,,,,,,,,,,,,,,,,,,,,,,,,,,,,,,,,,,,,,,,,,,,,,,,,,,,,,,,,,,,,,,,,,,,,,,,,,,,,,,,,,,,,,,,,,,,,,,,,,,
,,613f9ef9ebef8fb30930aa02,2024-02-21_21h29.04.832,kallum_motion_pilot,2023.2.2,Win32,59.88023952,613f9ef9ebef8fb30930aa02,65d6bb0e977760de756971f7,65d6be61958801b618b98425,0.0505,0.0506,0,40,40,53,1,threefour,,,,,,,,,,,,,,,,,,,,,,,,,,,,,,,,,,,,,,,,,,,,,,,,,,,,,,,,,,,,,,,,,,,,,,,,,,,,,,,,,,,,,,,,,,,,,,,,,,,,,,,,,,,,,,,,,,,,,,,,,,,,,,,,,,,,,,,,,
,,613f9ef9ebef8fb30930aa02,2024-02-21_21h29.04.832,kallum_motion_pilot,2023.2.2,Win32,59.88023952,613f9ef9ebef8fb30930aa02,65d6bb0e977760de756971f7,65d6be61958801b618b98425,0.0507,0.0507,0,41,41,32,1,onetwo,,,,,,,,,,,,,,,,,,,,,,,,,,,,,,,,,,,,,,,,,,,,,,,,,,,,,,,,,,,,,,,,,,,,,,,,,,,,,,,,,,,,,,,,,,,,,,,,,,,,,,,,,,,,,,,,,,,,,,,,,,,,,,,,,,,,,,,,,
,,613f9ef9ebef8fb30930aa02,2024-02-21_21h29.04.832,kallum_motion_pilot,2023.2.2,Win32,59.88023952,613f9ef9ebef8fb30930aa02,65d6bb0e977760de756971f7,65d6be61958801b618b98425,0.0509,0.0509,0,42,42,151,1,eightseven,,,,,,,,,,,,,,,,,,,,,,,,,,,,,,,,,,,,,,,,,,,,,,,,,,,,,,,,,,,,,,,,,,,,,,,,,,,,,,,,,,,,,,,,,,,,,,,,,,,,,,,,,,,,,,,,,,,,,,,,,,,,,,,,,,,,,,,,,
,,613f9ef9ebef8fb30930aa02,2024-02-21_21h29.04.832,kallum_motion_pilot,2023.2.2,Win32,59.88023952,613f9ef9ebef8fb30930aa02,65d6bb0e977760de756971f7,65d6be61958801b618b98425,0.051,0.051,0,43,43,46,1,fourtwo,,,,,,,,,,,,,,,,,,,,,,,,,,,,,,,,,,,,,,,,,,,,,,,,,,,,,,,,,,,,,,,,,,,,,,,,,,,,,,,,,,,,,,,,,,,,,,,,,,,,,,,,,,,,,,,,,,,,,,,,,,,,,,,,,,,,,,,,,
,,613f9ef9ebef8fb30930aa02,2024-02-21_21h29.04.832,kallum_motion_pilot,2023.2.2,Win32,59.88023952,613f9ef9ebef8fb30930aa02,65d6bb0e977760de756971f7,65d6be61958801b618b98425,0.0512,0.0512,0,44,44,124,1,sevenfive,,,,,,,,,,,,,,,,,,,,,,,,,,,,,,,,,,,,,,,,,,,,,,,,,,,,,,,,,,,,,,,,,,,,,,,,,,,,,,,,,,,,,,,,,,,,,,,,,,,,,,,,,,,,,,,,,,,,,,,,,,,,,,,,,,,,,,,,,
,,613f9ef9ebef8fb30930aa02,2024-02-21_21h29.04.832,kallum_motion_pilot,2023.2.2,Win32,59.88023952,613f9ef9ebef8fb30930aa02,65d6bb0e977760de756971f7,65d6be61958801b618b98425,0.0513,0.0513,0,45,45,135,1,eightseven,,,,,,,,,,,,,,,,,,,,,,,,,,,,,,,,,,,,,,,,,,,,,,,,,,,,,,,,,,,,,,,,,,,,,,,,,,,,,,,,,,,,,,,,,,,,,,,,,,,,,,,,,,,,,,,,,,,,,,,,,,,,,,,,,,,,,,,,,
,,613f9ef9ebef8fb30930aa02,2024-02-21_21h29.04.832,kallum_motion_pilot,2023.2.2,Win32,59.88023952,613f9ef9ebef8fb30930aa02,65d6bb0e977760de756971f7,65d6be61958801b618b98425,0.0514,0.0515,0,46,46,3,1,twofour,,,,,,,,,,,,,,,,,,,,,,,,,,,,,,,,,,,,,,,,,,,,,,,,,,,,,,,,,,,,,,,,,,,,,,,,,,,,,,,,,,,,,,,,,,,,,,,,,,,,,,,,,,,,,,,,,,,,,,,,,,,,,,,,,,,,,,,,,
,,613f9ef9ebef8fb30930aa02,2024-02-21_21h29.04.832,kallum_motion_pilot,2023.2.2,Win32,59.88023952,613f9ef9ebef8fb30930aa02,65d6bb0e977760de756971f7,65d6be61958801b618b98425,0.0516,0.0517,0,47,47,35,1,twofour,,,,,,,,,,,,,,,,,,,,,,,,,,,,,,,,,,,,,,,,,,,,,,,,,,,,,,,,,,,,,,,,,,,,,,,,,,,,,,,,,,,,,,,,,,,,,,,,,,,,,,,,,,,,,,,,,,,,,,,,,,,,,,,,,,,,,,,,,
,,613f9ef9ebef8fb30930aa02,2024-02-21_21h29.04.832,kallum_motion_pilot,2023.2.2,Win32,59.88023952,613f9ef9ebef8fb30930aa02,65d6bb0e977760de756971f7,65d6be61958801b618b98425,0.0518,0.0518,0,48,48,1,1,onethree,,,,,,,,,,,,,,,,,,,,,,,,,,,,,,,,,,,,,,,,,,,,,,,,,,,,,,,,,,,,,,,,,,,,,,,,,,,,,,,,,,,,,,,,,,,,,,,,,,,,,,,,,,,,,,,,,,,,,,,,,,,,,,,,,,,,,,,,,
,,613f9ef9ebef8fb30930aa02,2024-02-21_21h29.04.832,kallum_motion_pilot,2023.2.2,Win32,59.88023952,613f9ef9ebef8fb30930aa02,65d6bb0e977760de756971f7,65d6be61958801b618b98425,0.0519,0.052,0,49,49,15,1,fourthree,,,,,,,,,,,,,,,,,,,,,,,,,,,,,,,,,,,,,,,,,,,,,,,,,,,,,,,,,,,,,,,,,,,,,,,,,,,,,,,,,,,,,,,,,,,,,,,,,,,,,,,,,,,,,,,,,,,,,,,,,,,,,,,,,,,,,,,,,
,,613f9ef9ebef8fb30930aa02,2024-02-21_21h29.04.832,kallum_motion_pilot,2023.2.2,Win32,59.88023952,613f9ef9ebef8fb30930aa02,65d6bb0e977760de756971f7,65d6be61958801b618b98425,0.0521,0.0521,0,50,50,122,1,sixfive,,,,,,,,,,,,,,,,,,,,,,,,,,,,,,,,,,,,,,,,,,,,,,,,,,,,,,,,,,,,,,,,,,,,,,,,,,,,,,,,,,,,,,,,,,,,,,,,,,,,,,,,,,,,,,,,,,,,,,,,,,,,,,,,,,,,,,,,,
,,613f9ef9ebef8fb30930aa02,2024-02-21_21h29.04.832,kallum_motion_pilot,2023.2.2,Win32,59.88023952,613f9ef9ebef8fb30930aa02,65d6bb0e977760de756971f7,65d6be61958801b618b98425,0.0522,0.0523,0,51,51,153,1,fiveseven,,,,,,,,,,,,,,,,,,,,,,,,,,,,,,,,,,,,,,,,,,,,,,,,,,,,,,,,,,,,,,,,,,,,,,,,,,,,,,,,,,,,,,,,,,,,,,,,,,,,,,,,,,,,,,,,,,,,,,,,,,,,,,,,,,,,,,,,,
,,613f9ef9ebef8fb30930aa02,2024-02-21_21h29.04.832,kallum_motion_pilot,2023.2.2,Win32,59.88023952,613f9ef9ebef8fb30930aa02,65d6bb0e977760de756971f7,65d6be61958801b618b98425,0.0525,0.0525,0,52,52,131,1,sixeight,,,,,,,,,,,,,,,,,,,,,,,,,,,,,,,,,,,,,,,,,,,,,,,,,,,,,,,,,,,,,,,,,,,,,,,,,,,,,,,,,,,,,,,,,,,,,,,,,,,,,,,,,,,,,,,,,,,,,,,,,,,,,,,,,,,,,,,,,
,,613f9ef9ebef8fb30930aa02,2024-02-21_21h29.04.832,kallum_motion_pilot,2023.2.2,Win32,59.88023952,613f9ef9ebef8fb30930aa02,65d6bb0e977760de756971f7,65d6be61958801b618b98425,0.0546,0.0549,0,53,53,59,1,twofour,,,,,,,,,,,,,,,,,,,,,,,,,,,,,,,,,,,,,,,,,,,,,,,,,,,,,,,,,,,,,,,,,,,,,,,,,,,,,,,,,,,,,,,,,,,,,,,,,,,,,,,,,,,,,,,,,,,,,,,,,,,,,,,,,,,,,,,,,
,,613f9ef9ebef8fb30930aa02,2024-02-21_21h29.04.832,kallum_motion_pilot,2023.2.2,Win32,59.88023952,613f9ef9ebef8fb30930aa02,65d6bb0e977760de756971f7,65d6be61958801b618b98425,0.0552,0.0553,0,54,54,88,1,fivesix,,,,,,,,,,,,,,,,,,,,,,,,,,,,,,,,,,,,,,,,,,,,,,,,,,,,,,,,,,,,,,,,,,,,,,,,,,,,,,,,,,,,,,,,,,,,,,,,,,,,,,,,,,,,,,,,,,,,,,,,,,,,,,,,,,,,,,,,,
,,613f9ef9ebef8fb30930aa02,2024-02-21_21h29.04.832,kallum_motion_pilot,2023.2.2,Win32,59.88023952,613f9ef9ebef8fb30930aa02,65d6bb0e977760de756971f7,65d6be61958801b618b98425,0.0556,0.0557,0,55,55,30,1,fourtwo,,,,,,,,,,,,,,,,,,,,,,,,,,,,,,,,,,,,,,,,,,,,,,,,,,,,,,,,,,,,,,,,,,,,,,,,,,,,,,,,,,,,,,,,,,,,,,,,,,,,,,,,,,,,,,,,,,,,,,,,,,,,,,,,,,,,,,,,,
,,613f9ef9ebef8fb30930aa02,2024-02-21_21h29.04.832,kallum_motion_pilot,2023.2.2,Win32,59.88023952,613f9ef9ebef8fb30930aa02,65d6bb0e977760de756971f7,65d6be61958801b618b98425,0.056,0.0561,0,56,56,77,1,threefour,,,,,,,,,,,,,,,,,,,,,,,,,,,,,,,,,,,,,,,,,,,,,,,,,,,,,,,,,,,,,,,,,,,,,,,,,,,,,,,,,,,,,,,,,,,,,,,,,,,,,,,,,,,,,,,,,,,,,,,,,,,,,,,,,,,,,,,,,
,,613f9ef9ebef8fb30930aa02,2024-02-21_21h29.04.832,kallum_motion_pilot,2023.2.2,Win32,59.88023952,613f9ef9ebef8fb30930aa02,65d6bb0e977760de756971f7,65d6be61958801b618b98425,0.0564,0.0564,0,57,57,145,1,fiveseven,,,,,,,,,,,,,,,,,,,,,,,,,,,,,,,,,,,,,,,,,,,,,,,,,,,,,,,,,,,,,,,,,,,,,,,,,,,,,,,,,,,,,,,,,,,,,,,,,,,,,,,,,,,,,,,,,,,,,,,,,,,,,,,,,,,,,,,,,
,,613f9ef9ebef8fb30930aa02,2024-02-21_21h29.04.832,kallum_motion_pilot,2023.2.2,Win32,59.88023952,613f9ef9ebef8fb30930aa02,65d6bb0e977760de756971f7,65d6be61958801b618b98425,0.0566,0.0566,0,58,58,57,1,onethree,,,,,,,,,,,,,,,,,,,,,,,,,,,,,,,,,,,,,,,,,,,,,,,,,,,,,,,,,,,,,,,,,,,,,,,,,,,,,,,,,,,,,,,,,,,,,,,,,,,,,,,,,,,,,,,,,,,,,,,,,,,,,,,,,,,,,,,,,
,,613f9ef9ebef8fb30930aa02,2024-02-21_21h29.04.832,kallum_motion_pilot,2023.2.2,Win32,59.88023952,613f9ef9ebef8fb30930aa02,65d6bb0e977760de756971f7,65d6be61958801b618b98425,0.0568,0.0569,0,59,59,127,1,eightseven,,,,,,,,,,,,,,,,,,,,,,,,,,,,,,,,,,,,,,,,,,,,,,,,,,,,,,,,,,,,,,,,,,,,,,,,,,,,,,,,,,,,,,,,,,,,,,,,,,,,,,,,,,,,,,,,,,,,,,,,,,,,,,,,,,,,,,,,,
,,613f9ef9ebef8fb30930aa02,2024-02-21_21h29.04.832,kallum_motion_pilot,2023.2.2,Win32,59.88023952,613f9ef9ebef8fb30930aa02,65d6bb0e977760de756971f7,65d6be61958801b618b98425,0.0571,0.0571,0,60,60,143,1,eightseven,,,,,,,,,,,,,,,,,,,,,,,,,,,,,,,,,,,,,,,,,,,,,,,,,,,,,,,,,,,,,,,,,,,,,,,,,,,,,,,,,,,,,,,,,,,,,,,,,,,,,,,,,,,,,,,,,,,,,,,,,,,,,,,,,,,,,,,,,
,,613f9ef9ebef8fb30930aa02,2024-02-21_21h29.04.832,kallum_motion_pilot,2023.2.2,Win32,59.88023952,613f9ef9ebef8fb30930aa02,65d6bb0e977760de756971f7,65d6be61958801b618b98425,0.0573,0.0574,0,61,61,39,1,fourthree,,,,,,,,,,,,,,,,,,,,,,,,,,,,,,,,,,,,,,,,,,,,,,,,,,,,,,,,,,,,,,,,,,,,,,,,,,,,,,,,,,,,,,,,,,,,,,,,,,,,,,,,,,,,,,,,,,,,,,,,,,,,,,,,,,,,,,,,,
,,613f9ef9ebef8fb30930aa02,2024-02-21_21h29.04.832,kallum_motion_pilot,2023.2.2,Win32,59.88023952,613f9ef9ebef8fb30930aa02,65d6bb0e977760de756971f7,65d6be61958801b618b98425,0.0575,0.0576,0,62,62,105,1,fiveseven,,,,,,,,,,,,,,,,,,,,,,,,,,,,,,,,,,,,,,,,,,,,,,,,,,,,,,,,,,,,,,,,,,,,,,,,,,,,,,,,,,,,,,,,,,,,,,,,,,,,,,,,,,,,,,,,,,,,,,,,,,,,,,,,,,,,,,,,,
,,613f9ef9ebef8fb30930aa02,2024-02-21_21h29.04.832,kallum_motion_pilot,2023.2.2,Win32,59.88023952,613f9ef9ebef8fb30930aa02,65d6bb0e977760de756971f7,65d6be61958801b618b98425,0.0579,0.0579,0,63,63,26,1,twoone,,,,,,,,,,,,,,,,,,,,,,,,,,,,,,,,,,,,,,,,,,,,,,,,,,,,,,,,,,,,,,,,,,,,,,,,,,,,,,,,,,,,,,,,,,,,,,,,,,,,,,,,,,,,,,,,,,,,,,,,,,,,,,,,,,,,,,,,,
,,613f9ef9ebef8fb30930aa02,2024-02-21_21h29.04.832,kallum_motion_pilot,2023.2.2,Win32,59.88023952,613f9ef9ebef8fb30930aa02,65d6bb0e977760de756971f7,65d6be61958801b618b98425,0.058,0.0581,0,64,64,87,1,eightseven,,,,,,,,,,,,,,,,,,,,,,,,,,,,,,,,,,,,,,,,,,,,,,,,,,,,,,,,,,,,,,,,,,,,,,,,,,,,,,,,,,,,,,,,,,,,,,,,,,,,,,,,,,,,,,,,,,,,,,,,,,,,,,,,,,,,,,,,,
,,613f9ef9ebef8fb30930aa02,2024-02-21_21h29.04.832,kallum_motion_pilot,2023.2.2,Win32,59.88023952,613f9ef9ebef8fb30930aa02,65d6bb0e977760de756971f7,65d6be61958801b618b98425,0.0583,0.0584,0,65,65,84,1,sevenfive,,,,,,,,,,,,,,,,,,,,,,,,,,,,,,,,,,,,,,,,,,,,,,,,,,,,,,,,,,,,,,,,,,,,,,,,,,,,,,,,,,,,,,,,,,,,,,,,,,,,,,,,,,,,,,,,,,,,,,,,,,,,,,,,,,,,,,,,,
,,613f9ef9ebef8fb30930aa02,2024-02-21_21h29.04.832,kallum_motion_pilot,2023.2.2,Win32,59.88023952,613f9ef9ebef8fb30930aa02,65d6bb0e977760de756971f7,65d6be61958801b618b98425,0.0585,0.0586,0,66,66,96,1,fivesix,,,,,,,,,,,,,,,,,,,,,,,,,,,,,,,,,,,,,,,,,,,,,,,,,,,,,,,,,,,,,,,,,,,,,,,,,,,,,,,,,,,,,,,,,,,,,,,,,,,,,,,,,,,,,,,,,,,,,,,,,,,,,,,,,,,,,,,,,
,,613f9ef9ebef8fb30930aa02,2024-02-21_21h29.04.832,kallum_motion_pilot,2023.2.2,Win32,59.88023952,613f9ef9ebef8fb30930aa02,65d6bb0e977760de756971f7,65d6be61958801b618b98425,0.0587,0.0587,0,67,67,71,1,fourthree,,,,,,,,,,,,,,,,,,,,,,,,,,,,,,,,,,,,,,,,,,,,,,,,,,,,,,,,,,,,,,,,,,,,,,,,,,,,,,,,,,,,,,,,,,,,,,,,,,,,,,,,,,,,,,,,,,,,,,,,,,,,,,,,,,,,,,,,,
,,613f9ef9ebef8fb30930aa02,2024-02-21_21h29.04.832,kallum_motion_pilot,2023.2.2,Win32,59.88023952,613f9ef9ebef8fb30930aa02,65d6bb0e977760de756971f7,65d6be61958801b618b98425,0.059,0.059,0,68,68,55,1,fourthree,,,,,,,,,,,,,,,,,,,,,,,,,,,,,,,,,,,,,,,,,,,,,,,,,,,,,,,,,,,,,,,,,,,,,,,,,,,,,,,,,,,,,,,,,,,,,,,,,,,,,,,,,,,,,,,,,,,,,,,,,,,,,,,,,,,,,,,,,
,,613f9ef9ebef8fb30930aa02,2024-02-21_21h29.04.832,kallum_motion_pilot,2023.2.2,Win32,59.88023952,613f9ef9ebef8fb30930aa02,65d6bb0e977760de756971f7,65d6be61958801b618b98425,0.0591,0.0592,0,69,69,5,1,threefour,,,,,,,,,,,,,,,,,,,,,,,,,,,,,,,,,,,,,,,,,,,,,,,,,,,,,,,,,,,,,,,,,,,,,,,,,,,,,,,,,,,,,,,,,,,,,,,,,,,,,,,,,,,,,,,,,,,,,,,,,,,,,,,,,,,,,,,,,
,,613f9ef9ebef8fb30930aa02,2024-02-21_21h29.04.832,kallum_motion_pilot,2023.2.2,Win32,59.88023952,613f9ef9ebef8fb30930aa02,65d6bb0e977760de756971f7,65d6be61958801b618b98425,0.0594,0.0594,0,70,70,113,1,fiveseven,,,,,,,,,,,,,,,,,,,,,,,,,,,,,,,,,,,,,,,,,,,,,,,,,,,,,,,,,,,,,,,,,,,,,,,,,,,,,,,,,,,,,,,,,,,,,,,,,,,,,,,,,,,,,,,,,,,,,,,,,,,,,,,,,,,,,,,,,
,,613f9ef9ebef8fb30930aa02,2024-02-21_21h29.04.832,kallum_motion_pilot,2023.2.2,Win32,59.88023952,613f9ef9ebef8fb30930aa02,65d6bb0e977760de756971f7,65d6be61958801b618b98425,0.0596,0.0597,0,71,71,133,1,seveneight,,,,,,,,,,,,,,,,,,,,,,,,,,,,,,,,,,,,,,,,,,,,,,,,,,,,,,,,,,,,,,,,,,,,,,,,,,,,,,,,,,,,,,,,,,,,,,,,,,,,,,,,,,,,,,,,,,,,,,,,,,,,,,,,,,,,,,,,,
,,613f9ef9ebef8fb30930aa02,2024-02-21_21h29.04.832,kallum_motion_pilot,2023.2.2,Win32,59.88023952,613f9ef9ebef8fb30930aa02,65d6bb0e977760de756971f7,65d6be61958801b618b98425,0.0598,0.0599,0,72,72,123,1,sixeight,,,,,,,,,,,,,,,,,,,,,,,,,,,,,,,,,,,,,,,,,,,,,,,,,,,,,,,,,,,,,,,,,,,,,,,,,,,,,,,,,,,,,,,,,,,,,,,,,,,,,,,,,,,,,,,,,,,,,,,,,,,,,,,,,,,,,,,,,
,,613f9ef9ebef8fb30930aa02,2024-02-21_21h29.04.832,kallum_motion_pilot,2023.2.2,Win32,59.88023952,613f9ef9ebef8fb30930aa02,65d6bb0e977760de756971f7,65d6be61958801b618b98425,0.0601,0.0601,0,73,73,4,1,threeone,,,,,,,,,,,,,,,,,,,,,,,,,,,,,,,,,,,,,,,,,,,,,,,,,,,,,,,,,,,,,,,,,,,,,,,,,,,,,,,,,,,,,,,,,,,,,,,,,,,,,,,,,,,,,,,,,,,,,,,,,,,,,,,,,,,,,,,,,
,,613f9ef9ebef8fb30930aa02,2024-02-21_21h29.04.832,kallum_motion_pilot,2023.2.2,Win32,59.88023952,613f9ef9ebef8fb30930aa02,65d6bb0e977760de756971f7,65d6be61958801b618b98425,0.0603,0.0604,0,74,74,52,1,threeone,,,,,,,,,,,,,,,,,,,,,,,,,,,,,,,,,,,,,,,,,,,,,,,,,,,,,,,,,,,,,,,,,,,,,,,,,,,,,,,,,,,,,,,,,,,,,,,,,,,,,,,,,,,,,,,,,,,,,,,,,,,,,,,,,,,,,,,,,
,,613f9ef9ebef8fb30930aa02,2024-02-21_21h29.04.832,kallum_motion_pilot,2023.2.2,Win32,59.88023952,613f9ef9ebef8fb30930aa02,65d6bb0e977760de756971f7,65d6be61958801b618b98425,0.0605,0.0606,0,75,75,100,1,sevenfive,,,,,,,,,,,,,,,,,,,,,,,,,,,,,,,,,,,,,,,,,,,,,,,,,,,,,,,,,,,,,,,,,,,,,,,,,,,,,,,,,,,,,,,,,,,,,,,,,,,,,,,,,,,,,,,,,,,,,,,,,,,,,,,,,,,,,,,,,
,,613f9ef9ebef8fb30930aa02,2024-02-21_21h29.04.832,kallum_motion_pilot,2023.2.2,Win32,59.88023952,613f9ef9ebef8fb30930aa02,65d6bb0e977760de756971f7,65d6be61958801b618b98425,0.0607,0.0608,0,76,76,6,1,fourtwo,,,,,,,,,,,,,,,,,,,,,,,,,,,,,,,,,,,,,,,,,,,,,,,,,,,,,,,,,,,,,,,,,,,,,,,,,,,,,,,,,,,,,,,,,,,,,,,,,,,,,,,,,,,,,,,,,,,,,,,,,,,,,,,,,,,,,,,,,
,,613f9ef9ebef8fb30930aa02,2024-02-21_21h29.04.832,kallum_motion_pilot,2023.2.2,Win32,59.88023952,613f9ef9ebef8fb30930aa02,65d6bb0e977760de756971f7,65d6be61958801b618b98425,0.0609,0.061,0,77,77,45,1,threefour,,,,,,,,,,,,,,,,,,,,,,,,,,,,,,,,,,,,,,,,,,,,,,,,,,,,,,,,,,,,,,,,,,,,,,,,,,,,,,,,,,,,,,,,,,,,,,,,,,,,,,,,,,,,,,,,,,,,,,,,,,,,,,,,,,,,,,,,,
,,613f9ef9ebef8fb30930aa02,2024-02-21_21h29.04.832,kallum_motion_pilot,2023.2.2,Win32,59.88023952,613f9ef9ebef8fb30930aa02,65d6bb0e977760de756971f7,65d6be61958801b618b98425,0.0611,0.0611,0,78,78,139,1,sixeight,,,,,,,,,,,,,,,,,,,,,,,,,,,,,,,,,,,,,,,,,,,,,,,,,,,,,,,,,,,,,,,,,,,,,,,,,,,,,,,,,,,,,,,,,,,,,,,,,,,,,,,,,,,,,,,,,,,,,,,,,,,,,,,,,,,,,,,,,
,,613f9ef9ebef8fb30930aa02,2024-02-21_21h29.04.832,kallum_motion_pilot,2023.2.2,Win32,59.88023952,613f9ef9ebef8fb30930aa02,65d6bb0e977760de756971f7,65d6be61958801b618b98425,0.0613,0.0613,0,79,79,160,1,fivesix,,,,,,,,,,,,,,,,,,,,,,,,,,,,,,,,,,,,,,,,,,,,,,,,,,,,,,,,,,,,,,,,,,,,,,,,,,,,,,,,,,,,,,,,,,,,,,,,,,,,,,,,,,,,,,,,,,,,,,,,,,,,,,,,,,,,,,,,,
,,613f9ef9ebef8fb30930aa02,2024-02-21_21h29.04.832,kallum_motion_pilot,2023.2.2,Win32,59.88023952,613f9ef9ebef8fb30930aa02,65d6bb0e977760de756971f7,65d6be61958801b618b98425,0.0615,0.0616,0,80,80,79,1,eightseven,,,,,,,,,,,,,,,,,,,,,,,,,,,,,,,,,,,,,,,,,,,,,,,,,,,,,,,,,,,,,,,,,,,,,,,,,,,,,,,,,,,,,,,,,,,,,,,,,,,,,,,,,,,,,,,,,,,,,,,,,,,,,,,,,,,,,,,,,
,,613f9ef9ebef8fb30930aa02,2024-02-21_21h29.04.832,kallum_motion_pilot,2023.2.2,Win32,59.88023952,613f9ef9ebef8fb30930aa02,65d6bb0e977760de756971f7,65d6be61958801b618b98425,0.0617,0.0617,0,81,81,99,1,sixeight,,,,,,,,,,,,,,,,,,,,,,,,,,,,,,,,,,,,,,,,,,,,,,,,,,,,,,,,,,,,,,,,,,,,,,,,,,,,,,,,,,,,,,,,,,,,,,,,,,,,,,,,,,,,,,,,,,,,,,,,,,,,,,,,,,,,,,,,,
,,613f9ef9ebef8fb30930aa02,2024-02-21_21h29.04.832,kallum_motion_pilot,2023.2.2,Win32,59.88023952,613f9ef9ebef8fb30930aa02,65d6bb0e977760de756971f7,65d6be61958801b618b98425,0.0619,0.062,0,82,82,155,1,sixeight,,,,,,,,,,,,,,,,,,,,,,,,,,,,,,,,,,,,,,,,,,,,,,,,,,,,,,,,,,,,,,,,,,,,,,,,,,,,,,,,,,,,,,,,,,,,,,,,,,,,,,,,,,,,,,,,,,,,,,,,,,,,,,,,,,,,,,,,,
,,613f9ef9ebef8fb30930aa02,2024-02-21_21h29.04.832,kallum_motion_pilot,2023.2.2,Win32,59.88023952,613f9ef9ebef8fb30930aa02,65d6bb0e977760de756971f7,65d6be61958801b618b98425,0.0622,0.0622,0,83,83,93,1,seveneight,,,,,,,,,,,,,,,,,,,,,,,,,,,,,,,,,,,,,,,,,,,,,,,,,,,,,,,,,,,,,,,,,,,,,,,,,,,,,,,,,,,,,,,,,,,,,,,,,,,,,,,,,,,,,,,,,,,,,,,,,,,,,,,,,,,,,,,,,
,,613f9ef9ebef8fb30930aa02,2024-02-21_21h29.04.832,kallum_motion_pilot,2023.2.2,Win32,59.88023952,613f9ef9ebef8fb30930aa02,65d6bb0e977760de756971f7,65d6be61958801b618b98425,0.0623,0.0625,0,84,84,114,1,sixfive,,,,,,,,,,,,,,,,,,,,,,,,,,,,,,,,,,,,,,,,,,,,,,,,,,,,,,,,,,,,,,,,,,,,,,,,,,,,,,,,,,,,,,,,,,,,,,,,,,,,,,,,,,,,,,,,,,,,,,,,,,,,,,,,,,,,,,,,,
,,613f9ef9ebef8fb30930aa02,2024-02-21_21h29.04.832,kallum_motion_pilot,2023.2.2,Win32,59.88023952,613f9ef9ebef8fb30930aa02,65d6bb0e977760de756971f7,65d6be61958801b618b98425,0.0626,0.0626,0,85,85,65,1,onethree,,,,,,,,,,,,,,,,,,,,,,,,,,,,,,,,,,,,,,,,,,,,,,,,,,,,,,,,,,,,,,,,,,,,,,,,,,,,,,,,,,,,,,,,,,,,,,,,,,,,,,,,,,,,,,,,,,,,,,,,,,,,,,,,,,,,,,,,,
,,613f9ef9ebef8fb30930aa02,2024-02-21_21h29.04.832,kallum_motion_pilot,2023.2.2,Win32,59.88023952,613f9ef9ebef8fb30930aa02,65d6bb0e977760de756971f7,65d6be61958801b618b98425,0.0628,0.0629,0,86,86,112,1,fivesix,,,,,,,,,,,,,,,,,,,,,,,,,,,,,,,,,,,,,,,,,,,,,,,,,,,,,,,,,,,,,,,,,,,,,,,,,,,,,,,,,,,,,,,,,,,,,,,,,,,,,,,,,,,,,,,,,,,,,,,,,,,,,,,,,,,,,,,,,
,,613f9ef9ebef8fb30930aa02,2024-02-21_21h29.04.832,kallum_motion_pilot,2023.2.2,Win32,59.88023952,613f9ef9ebef8fb30930aa02,65d6bb0e977760de756971f7,65d6be61958801b618b98425,0.0631,0.0631,0,87,87,86,1,eightsix,,,,,,,,,,,,,,,,,,,,,,,,,,,,,,,,,,,,,,,,,,,,,,,,,,,,,,,,,,,,,,,,,,,,,,,,,,,,,,,,,,,,,,,,,,,,,,,,,,,,,,,,,,,,,,,,,,,,,,,,,,,,,,,,,,,,,,,,,
,,613f9ef9ebef8fb30930aa02,2024-02-21_21h29.04.832,kallum_motion_pilot,2023.2.2,Win32,59.88023952,613f9ef9ebef8fb30930aa02,65d6bb0e977760de756971f7,65d6be61958801b618b98425,0.0633,0.0634,0,88,88,85,1,seveneight,,,,,,,,,,,,,,,,,,,,,,,,,,,,,,,,,,,,,,,,,,,,,,,,,,,,,,,,,,,,,,,,,,,,,,,,,,,,,,,,,,,,,,,,,,,,,,,,,,,,,,,,,,,,,,,,,,,,,,,,,,,,,,,,,,,,,,,,,
,,613f9ef9ebef8fb30930aa02,2024-02-21_21h29.04.832,kallum_motion_pilot,2023.2.2,Win32,59.88023952,613f9ef9ebef8fb30930aa02,65d6bb0e977760de756971f7,65d6be61958801b618b98425,0.0636,0.0636,0,89,89,76,1,threeone,,,,,,,,,,,,,,,,,,,,,,,,,,,,,,,,,,,,,,,,,,,,,,,,,,,,,,,,,,,,,,,,,,,,,,,,,,,,,,,,,,,,,,,,,,,,,,,,,,,,,,,,,,,,,,,,,,,,,,,,,,,,,,,,,,,,,,,,,
,,613f9ef9ebef8fb30930aa02,2024-02-21_21h29.04.832,kallum_motion_pilot,2023.2.2,Win32,59.88023952,613f9ef9ebef8fb30930aa02,65d6bb0e977760de756971f7,65d6be61958801b618b98425,0.0637,0.0638,0,90,90,128,1,fivesix,,,,,,,,,,,,,,,,,,,,,,,,,,,,,,,,,,,,,,,,,,,,,,,,,,,,,,,,,,,,,,,,,,,,,,,,,,,,,,,,,,,,,,,,,,,,,,,,,,,,,,,,,,,,,,,,,,,,,,,,,,,,,,,,,,,,,,,,,
,,613f9ef9ebef8fb30930aa02,2024-02-21_21h29.04.832,kallum_motion_pilot,2023.2.2,Win32,59.88023952,613f9ef9ebef8fb30930aa02,65d6bb0e977760de756971f7,65d6be61958801b618b98425,0.0639,0.0639,0,91,91,97,1,fiveseven,,,,,,,,,,,,,,,,,,,,,,,,,,,,,,,,,,,,,,,,,,,,,,,,,,,,,,,,,,,,,,,,,,,,,,,,,,,,,,,,,,,,,,,,,,,,,,,,,,,,,,,,,,,,,,,,,,,,,,,,,,,,,,,,,,,,,,,,,
,,613f9ef9ebef8fb30930aa02,2024-02-21_21h29.04.832,kallum_motion_pilot,2023.2.2,Win32,59.88023952,613f9ef9ebef8fb30930aa02,65d6bb0e977760de756971f7,65d6be61958801b618b98425,0.0641,0.0641,0,92,92,90,1,sixfive,,,,,,,,,,,,,,,,,,,,,,,,,,,,,,,,,,,,,,,,,,,,,,,,,,,,,,,,,,,,,,,,,,,,,,,,,,,,,,,,,,,,,,,,,,,,,,,,,,,,,,,,,,,,,,,,,,,,,,,,,,,,,,,,,,,,,,,,,
,,613f9ef9ebef8fb30930aa02,2024-02-21_21h29.04.832,kallum_motion_pilot,2023.2.2,Win32,59.88023952,613f9ef9ebef8fb30930aa02,65d6bb0e977760de756971f7,65d6be61958801b618b98425,0.0644,0.0644,0,93,93,10,1,twoone,,,,,,,,,,,,,,,,,,,,,,,,,,,,,,,,,,,,,,,,,,,,,,,,,,,,,,,,,,,,,,,,,,,,,,,,,,,,,,,,,,,,,,,,,,,,,,,,,,,,,,,,,,,,,,,,,,,,,,,,,,,,,,,,,,,,,,,,,
,,613f9ef9ebef8fb30930aa02,2024-02-21_21h29.04.832,kallum_motion_pilot,2023.2.2,Win32,59.88023952,613f9ef9ebef8fb30930aa02,65d6bb0e977760de756971f7,65d6be61958801b618b98425,0.0646,0.0647,0,94,94,0,1,onetwo,,,,,,,,,,,,,,,,,,,,,,,,,,,,,,,,,,,,,,,,,,,,,,,,,,,,,,,,,,,,,,,,,,,,,,,,,,,,,,,,,,,,,,,,,,,,,,,,,,,,,,,,,,,,,,,,,,,,,,,,,,,,,,,,,,,,,,,,,
,,613f9ef9ebef8fb30930aa02,2024-02-21_21h29.04.832,kallum_motion_pilot,2023.2.2,Win32,59.88023952,613f9ef9ebef8fb30930aa02,65d6bb0e977760de756971f7,65d6be61958801b618b98425,0.0648,0.0649,0,95,95,48,1,onetwo,,,,,,,,,,,,,,,,,,,,,,,,,,,,,,,,,,,,,,,,,,,,,,,,,,,,,,,,,,,,,,,,,,,,,,,,,,,,,,,,,,,,,,,,,,,,,,,,,,,,,,,,,,,,,,,,,,,,,,,,,,,,,,,,,,,,,,,,,
,,613f9ef9ebef8fb30930aa02,2024-02-21_21h29.04.832,kallum_motion_pilot,2023.2.2,Win32,59.88023952,613f9ef9ebef8fb30930aa02,65d6bb0e977760de756971f7,65d6be61958801b618b98425,0.065,0.0651,0,96,96,107,1,sixeight,,,,,,,,,,,,,,,,,,,,,,,,,,,,,,,,,,,,,,,,,,,,,,,,,,,,,,,,,,,,,,,,,,,,,,,,,,,,,,,,,,,,,,,,,,,,,,,,,,,,,,,,,,,,,,,,,,,,,,,,,,,,,,,,,,,,,,,,,
,,613f9ef9ebef8fb30930aa02,2024-02-21_21h29.04.832,kallum_motion_pilot,2023.2.2,Win32,59.88023952,613f9ef9ebef8fb30930aa02,65d6bb0e977760de756971f7,65d6be61958801b618b98425,0.0652,0.0653,0,97,97,51,1,twofour,,,,,,,,,,,,,,,,,,,,,,,,,,,,,,,,,,,,,,,,,,,,,,,,,,,,,,,,,,,,,,,,,,,,,,,,,,,,,,,,,,,,,,,,,,,,,,,,,,,,,,,,,,,,,,,,,,,,,,,,,,,,,,,,,,,,,,,,,
,,613f9ef9ebef8fb30930aa02,2024-02-21_21h29.04.832,kallum_motion_pilot,2023.2.2,Win32,59.88023952,613f9ef9ebef8fb30930aa02,65d6bb0e977760de756971f7,65d6be61958801b618b98425,0.0655,0.0655,0,98,98,23,1,fourthree,,,,,,,,,,,,,,,,,,,,,,,,,,,,,,,,,,,,,,,,,,,,,,,,,,,,,,,,,,,,,,,,,,,,,,,,,,,,,,,,,,,,,,,,,,,,,,,,,,,,,,,,,,,,,,,,,,,,,,,,,,,,,,,,,,,,,,,,,
,,613f9ef9ebef8fb30930aa02,2024-02-21_21h29.04.832,kallum_motion_pilot,2023.2.2,Win32,59.88023952,613f9ef9ebef8fb30930aa02,65d6bb0e977760de756971f7,65d6be61958801b618b98425,0.0657,0.0657,0,99,99,17,1,onethree,,,,,,,,,,,,,,,,,,,,,,,,,,,,,,,,,,,,,,,,,,,,,,,,,,,,,,,,,,,,,,,,,,,,,,,,,,,,,,,,,,,,,,,,,,,,,,,,,,,,,,,,,,,,,,,,,,,,,,,,,,,,,,,,,,,,,,,,,
,,613f9ef9ebef8fb30930aa02,2024-02-21_21h29.04.832,kallum_motion_pilot,2023.2.2,Win32,59.88023952,613f9ef9ebef8fb30930aa02,65d6bb0e977760de756971f7,65d6be61958801b618b98425,0.066,0.0661,0,100,100,72,1,onetwo,,,,,,,,,,,,,,,,,,,,,,,,,,,,,,,,,,,,,,,,,,,,,,,,,,,,,,,,,,,,,,,,,,,,,,,,,,,,,,,,,,,,,,,,,,,,,,,,,,,,,,,,,,,,,,,,,,,,,,,,,,,,,,,,,,,,,,,,,
,,613f9ef9ebef8fb30930aa02,2024-02-21_21h29.04.832,kallum_motion_pilot,2023.2.2,Win32,59.88023952,613f9ef9ebef8fb30930aa02,65d6bb0e977760de756971f7,65d6be61958801b618b98425,0.0663,0.0664,0,101,101,25,1,onethree,,,,,,,,,,,,,,,,,,,,,,,,,,,,,,,,,,,,,,,,,,,,,,,,,,,,,,,,,,,,,,,,,,,,,,,,,,,,,,,,,,,,,,,,,,,,,,,,,,,,,,,,,,,,,,,,,,,,,,,,,,,,,,,,,,,,,,,,,
,,613f9ef9ebef8fb30930aa02,2024-02-21_21h29.04.832,kallum_motion_pilot,2023.2.2,Win32,59.88023952,613f9ef9ebef8fb30930aa02,65d6bb0e977760de756971f7,65d6be61958801b618b98425,0.0666,0.0666,0,102,102,66,1,twoone,,,,,,,,,,,,,,,,,,,,,,,,,,,,,,,,,,,,,,,,,,,,,,,,,,,,,,,,,,,,,,,,,,,,,,,,,,,,,,,,,,,,,,,,,,,,,,,,,,,,,,,,,,,,,,,,,,,,,,,,,,,,,,,,,,,,,,,,,
,,613f9ef9ebef8fb30930aa02,2024-02-21_21h29.04.832,kallum_motion_pilot,2023.2.2,Win32,59.88023952,613f9ef9ebef8fb30930aa02,65d6bb0e977760de756971f7,65d6be61958801b618b98425,0.0668,0.0669,0,103,103,126,1,eightsix,,,,,,,,,,,,,,,,,,,,,,,,,,,,,,,,,,,,,,,,,,,,,,,,,,,,,,,,,,,,,,,,,,,,,,,,,,,,,,,,,,,,,,,,,,,,,,,,,,,,,,,,,,,,,,,,,,,,,,,,,,,,,,,,,,,,,,,,,
,,613f9ef9ebef8fb30930aa02,2024-02-21_21h29.04.832,kallum_motion_pilot,2023.2.2,Win32,59.88023952,613f9ef9ebef8fb30930aa02,65d6bb0e977760de756971f7,65d6be61958801b618b98425,0.0671,0.0672,0,104,104,63,1,fourthree,,,,,,,,,,,,,,,,,,,,,,,,,,,,,,,,,,,,,,,,,,,,,,,,,,,,,,,,,,,,,,,,,,,,,,,,,,,,,,,,,,,,,,,,,,,,,,,,,,,,,,,,,,,,,,,,,,,,,,,,,,,,,,,,,,,,,,,,,
,,613f9ef9ebef8fb30930aa02,2024-02-21_21h29.04.832,kallum_motion_pilot,2023.2.2,Win32,59.88023952,613f9ef9ebef8fb30930aa02,65d6bb0e977760de756971f7,65d6be61958801b618b98425,0.0673,0.0674,0,105,105,14,1,fourtwo,,,,,,,,,,,,,,,,,,,,,,,,,,,,,,,,,,,,,,,,,,,,,,,,,,,,,,,,,,,,,,,,,,,,,,,,,,,,,,,,,,,,,,,,,,,,,,,,,,,,,,,,,,,,,,,,,,,,,,,,,,,,,,,,,,,,,,,,,
,,613f9ef9ebef8fb30930aa02,2024-02-21_21h29.04.832,kallum_motion_pilot,2023.2.2,Win32,59.88023952,613f9ef9ebef8fb30930aa02,65d6bb0e977760de756971f7,65d6be61958801b618b98425,0.0675,0.0676,0,106,106,34,1,twoone,,,,,,,,,,,,,,,,,,,,,,,,,,,,,,,,,,,,,,,,,,,,,,,,,,,,,,,,,,,,,,,,,,,,,,,,,,,,,,,,,,,,,,,,,,,,,,,,,,,,,,,,,,,,,,,,,,,,,,,,,,,,,,,,,,,,,,,,,
,,613f9ef9ebef8fb30930aa02,2024-02-21_21h29.04.832,kallum_motion_pilot,2023.2.2,Win32,59.88023952,613f9ef9ebef8fb30930aa02,65d6bb0e977760de756971f7,65d6be61958801b618b98425,0.0677,0.0678,0,107,107,28,1,threeone,,,,,,,,,,,,,,,,,,,,,,,,,,,,,,,,,,,,,,,,,,,,,,,,,,,,,,,,,,,,,,,,,,,,,,,,,,,,,,,,,,,,,,,,,,,,,,,,,,,,,,,,,,,,,,,,,,,,,,,,,,,,,,,,,,,,,,,,,
,,613f9ef9ebef8fb30930aa02,2024-02-21_21h29.04.832,kallum_motion_pilot,2023.2.2,Win32,59.88023952,613f9ef9ebef8fb30930aa02,65d6bb0e977760de756971f7,65d6be61958801b618b98425,0.0679,0.0681,0,108,108,98,1,sixfive,,,,,,,,,,,,,,,,,,,,,,,,,,,,,,,,,,,,,,,,,,,,,,,,,,,,,,,,,,,,,,,,,,,,,,,,,,,,,,,,,,,,,,,,,,,,,,,,,,,,,,,,,,,,,,,,,,,,,,,,,,,,,,,,,,,,,,,,,
,,613f9ef9ebef8fb30930aa02,2024-02-21_21h29.04.832,kallum_motion_pilot,2023.2.2,Win32,59.88023952,613f9ef9ebef8fb30930aa02,65d6bb0e977760de756971f7,65d6be61958801b618b98425,0.0682,0.0682,0,109,109,95,1,eightseven,,,,,,,,,,,,,,,,,,,,,,,,,,,,,,,,,,,,,,,,,,,,,,,,,,,,,,,,,,,,,,,,,,,,,,,,,,,,,,,,,,,,,,,,,,,,,,,,,,,,,,,,,,,,,,,,,,,,,,,,,,,,,,,,,,,,,,,,,
,,613f9ef9ebef8fb30930aa02,2024-02-21_21h29.04.832,kallum_motion_pilot,2023.2.2,Win32,59.88023952,613f9ef9ebef8fb30930aa02,65d6bb0e977760de756971f7,65d6be61958801b618b98425,0.0684,0.0684,0,110,110,157,1,seveneight,,,,,,,,,,,,,,,,,,,,,,,,,,,,,,,,,,,,,,,,,,,,,,,,,,,,,,,,,,,,,,,,,,,,,,,,,,,,,,,,,,,,,,,,,,,,,,,,,,,,,,,,,,,,,,,,,,,,,,,,,,,,,,,,,,,,,,,,,
,,613f9ef9ebef8fb30930aa02,2024-02-21_21h29.04.832,kallum_motion_pilot,2023.2.2,Win32,59.88023952,613f9ef9ebef8fb30930aa02,65d6bb0e977760de756971f7,65d6be61958801b618b98425,0.0686,0.0687,0,111,111,144,1,fivesix,,,,,,,,,,,,,,,,,,,,,,,,,,,,,,,,,,,,,,,,,,,,,,,,,,,,,,,,,,,,,,,,,,,,,,,,,,,,,,,,,,,,,,,,,,,,,,,,,,,,,,,,,,,,,,,,,,,,,,,,,,,,,,,,,,,,,,,,,
,,613f9ef9ebef8fb30930aa02,2024-02-21_21h29.04.832,kallum_motion_pilot,2023.2.2,Win32,59.88023952,613f9ef9ebef8fb30930aa02,65d6bb0e977760de756971f7,65d6be61958801b618b98425,0.0688,0.0689,0,112,112,103,1,eightseven,,,,,,,,,,,,,,,,,,,,,,,,,,,,,,,,,,,,,,,,,,,,,,,,,,,,,,,,,,,,,,,,,,,,,,,,,,,,,,,,,,,,,,,,,,,,,,,,,,,,,,,,,,,,,,,,,,,,,,,,,,,,,,,,,,,,,,,,,
,,613f9ef9ebef8fb30930aa02,2024-02-21_21h29.04.832,kallum_motion_pilot,2023.2.2,Win32,59.88023952,613f9ef9ebef8fb30930aa02,65d6bb0e977760de756971f7,65d6be61958801b618b98425,0.069,0.0691,0,113,113,74,1,twoone,,,,,,,,,,,,,,,,,,,,,,,,,,,,,,,,,,,,,,,,,,,,,,,,,,,,,,,,,,,,,,,,,,,,,,,,,,,,,,,,,,,,,,,,,,,,,,,,,,,,,,,,,,,,,,,,,,,,,,,,,,,,,,,,,,,,,,,,,
,,613f9ef9ebef8fb30930aa02,2024-02-21_21h29.04.832,kallum_motion_pilot,2023.2.2,Win32,59.88023952,613f9ef9ebef8fb30930aa02,65d6bb0e977760de756971f7,65d6be61958801b618b98425,0.0692,0.0693,0,114,114,38,1,fourtwo,,,,,,,,,,,,,,,,,,,,,,,,,,,,,,,,,,,,,,,,,,,,,,,,,,,,,,,,,,,,,,,,,,,,,,,,,,,,,,,,,,,,,,,,,,,,,,,,,,,,,,,,,,,,,,,,,,,,,,,,,,,,,,,,,,,,,,,,,
,,613f9ef9ebef8fb30930aa02,2024-02-21_21h29.04.832,kallum_motion_pilot,2023.2.2,Win32,59.88023952,613f9ef9ebef8fb30930aa02,65d6bb0e977760de756971f7,65d6be61958801b618b98425,0.0696,0.0699,0,115,115,50,1,twoone,,,,,,,,,,,,,,,,,,,,,,,,,,,,,,,,,,,,,,,,,,,,,,,,,,,,,,,,,,,,,,,,,,,,,,,,,,,,,,,,,,,,,,,,,,,,,,,,,,,,,,,,,,,,,,,,,,,,,,,,,,,,,,,,,,,,,,,,,
,,613f9ef9ebef8fb30930aa02,2024-02-21_21h29.04.832,kallum_motion_pilot,2023.2.2,Win32,59.88023952,613f9ef9ebef8fb30930aa02,65d6bb0e977760de756971f7,65d6be61958801b618b98425,0.0703,0.0705,0,116,116,62,1,fourtwo,,,,,,,,,,,,,,,,,,,,,,,,,,,,,,,,,,,,,,,,,,,,,,,,,,,,,,,,,,,,,,,,,,,,,,,,,,,,,,,,,,,,,,,,,,,,,,,,,,,,,,,,,,,,,,,,,,,,,,,,,,,,,,,,,,,,,,,,,
,,613f9ef9ebef8fb30930aa02,2024-02-21_21h29.04.832,kallum_motion_pilot,2023.2.2,Win32,59.88023952,613f9ef9ebef8fb30930aa02,65d6bb0e977760de756971f7,65d6be61958801b618b98425,0.0708,0.071,0,117,117,82,1,sixfive,,,,,,,,,,,,,,,,,,,,,,,,,,,,,,,,,,,,,,,,,,,,,,,,,,,,,,,,,,,,,,,,,,,,,,,,,,,,,,,,,,,,,,,,,,,,,,,,,,,,,,,,,,,,,,,,,,,,,,,,,,,,,,,,,,,,,,,,,
,,613f9ef9ebef8fb30930aa02,2024-02-21_21h29.04.832,kallum_motion_pilot,2023.2.2,Win32,59.88023952,613f9ef9ebef8fb30930aa02,65d6bb0e977760de756971f7,65d6be61958801b618b98425,0.0714,0.0716,0,118,118,29,1,threefour,,,,,,,,,,,,,,,,,,,,,,,,,,,,,,,,,,,,,,,,,,,,,,,,,,,,,,,,,,,,,,,,,,,,,,,,,,,,,,,,,,,,,,,,,,,,,,,,,,,,,,,,,,,,,,,,,,,,,,,,,,,,,,,,,,,,,,,,,
,,613f9ef9ebef8fb30930aa02,2024-02-21_21h29.04.832,kallum_motion_pilot,2023.2.2,Win32,59.88023952,613f9ef9ebef8fb30930aa02,65d6bb0e977760de756971f7,65d6be61958801b618b98425,0.0718,0.0719,0,119,119,24,1,onetwo,,,,,,,,,,,,,,,,,,,,,,,,,,,,,,,,,,,,,,,,,,,,,,,,,,,,,,,,,,,,,,,,,,,,,,,,,,,,,,,,,,,,,,,,,,,,,,,,,,,,,,,,,,,,,,,,,,,,,,,,,,,,,,,,,,,,,,,,,
,,613f9ef9ebef8fb30930aa02,2024-02-21_21h29.04.832,kallum_motion_pilot,2023.2.2,Win32,59.88023952,613f9ef9ebef8fb30930aa02,65d6bb0e977760de756971f7,65d6be61958801b618b98425,0.0721,0.0721,0,120,120,41,1,onethree,,,,,,,,,,,,,,,,,,,,,,,,,,,,,,,,,,,,,,,,,,,,,,,,,,,,,,,,,,,,,,,,,,,,,,,,,,,,,,,,,,,,,,,,,,,,,,,,,,,,,,,,,,,,,,,,,,,,,,,,,,,,,,,,,,,,,,,,,
,,613f9ef9ebef8fb30930aa02,2024-02-21_21h29.04.832,kallum_motion_pilot,2023.2.2,Win32,59.88023952,613f9ef9ebef8fb30930aa02,65d6bb0e977760de756971f7,65d6be61958801b618b98425,0.0722,0.0724,0,121,121,75,1,twofour,,,,,,,,,,,,,,,,,,,,,,,,,,,,,,,,,,,,,,,,,,,,,,,,,,,,,,,,,,,,,,,,,,,,,,,,,,,,,,,,,,,,,,,,,,,,,,,,,,,,,,,,,,,,,,,,,,,,,,,,,,,,,,,,,,,,,,,,,
,,613f9ef9ebef8fb30930aa02,2024-02-21_21h29.04.832,kallum_motion_pilot,2023.2.2,Win32,59.88023952,613f9ef9ebef8fb30930aa02,65d6bb0e977760de756971f7,65d6be61958801b618b98425,0.0725,0.0726,0,122,122,118,1,eightsix,,,,,,,,,,,,,,,,,,,,,,,,,,,,,,,,,,,,,,,,,,,,,,,,,,,,,,,,,,,,,,,,,,,,,,,,,,,,,,,,,,,,,,,,,,,,,,,,,,,,,,,,,,,,,,,,,,,,,,,,,,,,,,,,,,,,,,,,,
,,613f9ef9ebef8fb30930aa02,2024-02-21_21h29.04.832,kallum_motion_pilot,2023.2.2,Win32,59.88023952,613f9ef9ebef8fb30930aa02,65d6bb0e977760de756971f7,65d6be61958801b618b98425,0.0726,0.0728,0,123,123,161,1,fiveseven,,,,,,,,,,,,,,,,,,,,,,,,,,,,,,,,,,,,,,,,,,,,,,,,,,,,,,,,,,,,,,,,,,,,,,,,,,,,,,,,,,,,,,,,,,,,,,,,,,,,,,,,,,,,,,,,,,,,,,,,,,,,,,,,,,,,,,,,,
,,613f9ef9ebef8fb30930aa02,2024-02-21_21h29.04.832,kallum_motion_pilot,2023.2.2,Win32,59.88023952,613f9ef9ebef8fb30930aa02,65d6bb0e977760de756971f7,65d6be61958801b618b98425,0.0729,0.073,0,124,124,106,1,sixfive,,,,,,,,,,,,,,,,,,,,,,,,,,,,,,,,,,,,,,,,,,,,,,,,,,,,,,,,,,,,,,,,,,,,,,,,,,,,,,,,,,,,,,,,,,,,,,,,,,,,,,,,,,,,,,,,,,,,,,,,,,,,,,,,,,,,,,,,,
,,613f9ef9ebef8fb30930aa02,2024-02-21_21h29.04.832,kallum_motion_pilot,2023.2.2,Win32,59.88023952,613f9ef9ebef8fb30930aa02,65d6bb0e977760de756971f7,65d6be61958801b618b98425,0.0731,0.0732,0,125,125,149,1,seveneight,,,,,,,,,,,,,,,,,,,,,,,,,,,,,,,,,,,,,,,,,,,,,,,,,,,,,,,,,,,,,,,,,,,,,,,,,,,,,,,,,,,,,,,,,,,,,,,,,,,,,,,,,,,,,,,,,,,,,,,,,,,,,,,,,,,,,,,,,
,,613f9ef9ebef8fb30930aa02,2024-02-21_21h29.04.832,kallum_motion_pilot,2023.2.2,Win32,59.88023952,613f9ef9ebef8fb30930aa02,65d6bb0e977760de756971f7,65d6be61958801b618b98425,0.0733,0.0734,0,126,126,12,1,threeone,,,,,,,,,,,,,,,,,,,,,,,,,,,,,,,,,,,,,,,,,,,,,,,,,,,,,,,,,,,,,,,,,,,,,,,,,,,,,,,,,,,,,,,,,,,,,,,,,,,,,,,,,,,,,,,,,,,,,,,,,,,,,,,,,,,,,,,,,
,,613f9ef9ebef8fb30930aa02,2024-02-21_21h29.04.832,kallum_motion_pilot,2023.2.2,Win32,59.88023952,613f9ef9ebef8fb30930aa02,65d6bb0e977760de756971f7,65d6be61958801b618b98425,0.0735,0.0736,0,127,127,7,1,fourthree,,,,,,,,,,,,,,,,,,,,,,,,,,,,,,,,,,,,,,,,,,,,,,,,,,,,,,,,,,,,,,,,,,,,,,,,,,,,,,,,,,,,,,,,,,,,,,,,,,,,,,,,,,,,,,,,,,,,,,,,,,,,,,,,,,,,,,,,,
,,613f9ef9ebef8fb30930aa02,2024-02-21_21h29.04.832,kallum_motion_pilot,2023.2.2,Win32,59.88023952,613f9ef9ebef8fb30930aa02,65d6bb0e977760de756971f7,65d6be61958801b618b98425,0.0738,0.0738,0,128,128,91,1,sixeight,,,,,,,,,,,,,,,,,,,,,,,,,,,,,,,,,,,,,,,,,,,,,,,,,,,,,,,,,,,,,,,,,,,,,,,,,,,,,,,,,,,,,,,,,,,,,,,,,,,,,,,,,,,,,,,,,,,,,,,,,,,,,,,,,,,,,,,,,
,,613f9ef9ebef8fb30930aa02,2024-02-21_21h29.04.832,kallum_motion_pilot,2023.2.2,Win32,59.88023952,613f9ef9ebef8fb30930aa02,65d6bb0e977760de756971f7,65d6be61958801b618b98425,0.074,0.0741,0,129,129,33,1,onethree,,,,,,,,,,,,,,,,,,,,,,,,,,,,,,,,,,,,,,,,,,,,,,,,,,,,,,,,,,,,,,,,,,,,,,,,,,,,,,,,,,,,,,,,,,,,,,,,,,,,,,,,,,,,,,,,,,,,,,,,,,,,,,,,,,,,,,,,,
,,613f9ef9ebef8fb30930aa02,2024-02-21_21h29.04.832,kallum_motion_pilot,2023.2.2,Win32,59.88023952,613f9ef9ebef8fb30930aa02,65d6bb0e977760de756971f7,65d6be61958801b618b98425,0.0742,0.0743,0,130,130,138,1,sixfive,,,,,,,,,,,,,,,,,,,,,,,,,,,,,,,,,,,,,,,,,,,,,,,,,,,,,,,,,,,,,,,,,,,,,,,,,,,,,,,,,,,,,,,,,,,,,,,,,,,,,,,,,,,,,,,,,,,,,,,,,,,,,,,,,,,,,,,,,
,,613f9ef9ebef8fb30930aa02,2024-02-21_21h29.04.832,kallum_motion_pilot,2023.2.2,Win32,59.88023952,613f9ef9ebef8fb30930aa02,65d6bb0e977760de756971f7,65d6be61958801b618b98425,0.0744,0.0745,0,131,131,73,1,onethree,,,,,,,,,,,,,,,,,,,,,,,,,,,,,,,,,,,,,,,,,,,,,,,,,,,,,,,,,,,,,,,,,,,,,,,,,,,,,,,,,,,,,,,,,,,,,,,,,,,,,,,,,,,,,,,,,,,,,,,,,,,,,,,,,,,,,,,,,
,,613f9ef9ebef8fb30930aa02,2024-02-21_21h29.04.832,kallum_motion_pilot,2023.2.2,Win32,59.88023952,613f9ef9ebef8fb30930aa02,65d6bb0e977760de756971f7,65d6be61958801b618b98425,0.0746,0.0746,0,132,132,22,1,fourtwo,,,,,,,,,,,,,,,,,,,,,,,,,,,,,,,,,,,,,,,,,,,,,,,,,,,,,,,,,,,,,,,,,,,,,,,,,,,,,,,,,,,,,,,,,,,,,,,,,,,,,,,,,,,,,,,,,,,,,,,,,,,,,,,,,,,,,,,,,
,,613f9ef9ebef8fb30930aa02,2024-02-21_21h29.04.832,kallum_motion_pilot,2023.2.2,Win32,59.88023952,613f9ef9ebef8fb30930aa02,65d6bb0e977760de756971f7,65d6be61958801b618b98425,0.0748,0.0748,0,133,133,110,1,eightsix,,,,,,,,,,,,,,,,,,,,,,,,,,,,,,,,,,,,,,,,,,,,,,,,,,,,,,,,,,,,,,,,,,,,,,,,,,,,,,,,,,,,,,,,,,,,,,,,,,,,,,,,,,,,,,,,,,,,,,,,,,,,,,,,,,,,,,,,,
,,613f9ef9ebef8fb30930aa02,2024-02-21_21h29.04.832,kallum_motion_pilot,2023.2.2,Win32,59.88023952,613f9ef9ebef8fb30930aa02,65d6bb0e977760de756971f7,65d6be61958801b618b98425,0.075,0.075,0,134,134,56,1,onetwo,,,,,,,,,,,,,,,,,,,,,,,,,,,,,,,,,,,,,,,,,,,,,,,,,,,,,,,,,,,,,,,,,,,,,,,,,,,,,,,,,,,,,,,,,,,,,,,,,,,,,,,,,,,,,,,,,,,,,,,,,,,,,,,,,,,,,,,,,
,,613f9ef9ebef8fb30930aa02,2024-02-21_21h29.04.832,kallum_motion_pilot,2023.2.2,Win32,59.88023952,613f9ef9ebef8fb30930aa02,65d6bb0e977760de756971f7,65d6be61958801b618b98425,0.0752,0.0753,0,135,135,21,1,threefour,,,,,,,,,,,,,,,,,,,,,,,,,,,,,,,,,,,,,,,,,,,,,,,,,,,,,,,,,,,,,,,,,,,,,,,,,,,,,,,,,,,,,,,,,,,,,,,,,,,,,,,,,,,,,,,,,,,,,,,,,,,,,,,,,,,,,,,,,
,,613f9ef9ebef8fb30930aa02,2024-02-21_21h29.04.832,kallum_motion_pilot,2023.2.2,Win32,59.88023952,613f9ef9ebef8fb30930aa02,65d6bb0e977760de756971f7,65d6be61958801b618b98425,0.0754,0.0755,0,136,136,148,1,sevenfive,,,,,,,,,,,,,,,,,,,,,,,,,,,,,,,,,,,,,,,,,,,,,,,,,,,,,,,,,,,,,,,,,,,,,,,,,,,,,,,,,,,,,,,,,,,,,,,,,,,,,,,,,,,,,,,,,,,,,,,,,,,,,,,,,,,,,,,,,
,,613f9ef9ebef8fb30930aa02,2024-02-21_21h29.04.832,kallum_motion_pilot,2023.2.2,Win32,59.88023952,613f9ef9ebef8fb30930aa02,65d6bb0e977760de756971f7,65d6be61958801b618b98425,0.0756,0.0757,0,137,137,49,1,onethree,,,,,,,,,,,,,,,,,,,,,,,,,,,,,,,,,,,,,,,,,,,,,,,,,,,,,,,,,,,,,,,,,,,,,,,,,,,,,,,,,,,,,,,,,,,,,,,,,,,,,,,,,,,,,,,,,,,,,,,,,,,,,,,,,,,,,,,,,
,,613f9ef9ebef8fb30930aa02,2024-02-21_21h29.04.832,kallum_motion_pilot,2023.2.2,Win32,59.88023952,613f9ef9ebef8fb30930aa02,65d6bb0e977760de756971f7,65d6be61958801b618b98425,0.0758,0.0759,0,138,138,152,1,fivesix,,,,,,,,,,,,,,,,,,,,,,,,,,,,,,,,,,,,,,,,,,,,,,,,,,,,,,,,,,,,,,,,,,,,,,,,,,,,,,,,,,,,,,,,,,,,,,,,,,,,,,,,,,,,,,,,,,,,,,,,,,,,,,,,,,,,,,,,,
,,613f9ef9ebef8fb30930aa02,2024-02-21_21h29.04.832,kallum_motion_pilot,2023.2.2,Win32,59.88023952,613f9ef9ebef8fb30930aa02,65d6bb0e977760de756971f7,65d6be61958801b618b98425,0.0761,0.0761,0,139,139,104,1,fivesix,,,,,,,,,,,,,,,,,,,,,,,,,,,,,,,,,,,,,,,,,,,,,,,,,,,,,,,,,,,,,,,,,,,,,,,,,,,,,,,,,,,,,,,,,,,,,,,,,,,,,,,,,,,,,,,,,,,,,,,,,,,,,,,,,,,,,,,,,
,,613f9ef9ebef8fb30930aa02,2024-02-21_21h29.04.832,kallum_motion_pilot,2023.2.2,Win32,59.88023952,613f9ef9ebef8fb30930aa02,65d6bb0e977760de756971f7,65d6be61958801b618b98425,0.0762,0.0764,0,140,140,40,1,onetwo,,,,,,,,,,,,,,,,,,,,,,,,,,,,,,,,,,,,,,,,,,,,,,,,,,,,,,,,,,,,,,,,,,,,,,,,,,,,,,,,,,,,,,,,,,,,,,,,,,,,,,,,,,,,,,,,,,,,,,,,,,,,,,,,,,,,,,,,,
,,613f9ef9ebef8fb30930aa02,2024-02-21_21h29.04.832,kallum_motion_pilot,2023.2.2,Win32,59.88023952,613f9ef9ebef8fb30930aa02,65d6bb0e977760de756971f7,65d6be61958801b618b98425,0.0765,0.0766,0,141,141,18,1,twoone,,,,,,,,,,,,,,,,,,,,,,,,,,,,,,,,,,,,,,,,,,,,,,,,,,,,,,,,,,,,,,,,,,,,,,,,,,,,,,,,,,,,,,,,,,,,,,,,,,,,,,,,,,,,,,,,,,,,,,,,,,,,,,,,,,,,,,,,,
,,613f9ef9ebef8fb30930aa02,2024-02-21_21h29.04.832,kallum_motion_pilot,2023.2.2,Win32,59.88023952,613f9ef9ebef8fb30930aa02,65d6bb0e977760de756971f7,65d6be61958801b618b98425,0.0767,0.077,0,142,142,67,1,twofour,,,,,,,,,,,,,,,,,,,,,,,,,,,,,,,,,,,,,,,,,,,,,,,,,,,,,,,,,,,,,,,,,,,,,,,,,,,,,,,,,,,,,,,,,,,,,,,,,,,,,,,,,,,,,,,,,,,,,,,,,,,,,,,,,,,,,,,,,
,,613f9ef9ebef8fb30930aa02,2024-02-21_21h29.04.832,kallum_motion_pilot,2023.2.2,Win32,59.88023952,613f9ef9ebef8fb30930aa02,65d6bb0e977760de756971f7,65d6be61958801b618b98425,0.0772,0.0773,0,143,143,142,1,eightsix,,,,,,,,,,,,,,,,,,,,,,,,,,,,,,,,,,,,,,,,,,,,,,,,,,,,,,,,,,,,,,,,,,,,,,,,,,,,,,,,,,,,,,,,,,,,,,,,,,,,,,,,,,,,,,,,,,,,,,,,,,,,,,,,,,,,,,,,,
,,613f9ef9ebef8fb30930aa02,2024-02-21_21h29.04.832,kallum_motion_pilot,2023.2.2,Win32,59.88023952,613f9ef9ebef8fb30930aa02,65d6bb0e977760de756971f7,65d6be61958801b618b98425,0.0775,0.0776,0,144,144,80,1,fivesix,,,,,,,,,,,,,,,,,,,,,,,,,,,,,,,,,,,,,,,,,,,,,,,,,,,,,,,,,,,,,,,,,,,,,,,,,,,,,,,,,,,,,,,,,,,,,,,,,,,,,,,,,,,,,,,,,,,,,,,,,,,,,,,,,,,,,,,,,
,,613f9ef9ebef8fb30930aa02,2024-02-21_21h29.04.832,kallum_motion_pilot,2023.2.2,Win32,59.88023952,613f9ef9ebef8fb30930aa02,65d6bb0e977760de756971f7,65d6be61958801b618b98425,0.0778,0.0779,0,145,145,2,1,twoone,,,,,,,,,,,,,,,,,,,,,,,,,,,,,,,,,,,,,,,,,,,,,,,,,,,,,,,,,,,,,,,,,,,,,,,,,,,,,,,,,,,,,,,,,,,,,,,,,,,,,,,,,,,,,,,,,,,,,,,,,,,,,,,,,,,,,,,,,
,,613f9ef9ebef8fb30930aa02,2024-02-21_21h29.04.832,kallum_motion_pilot,2023.2.2,Win32,59.88023952,613f9ef9ebef8fb30930aa02,65d6bb0e977760de756971f7,65d6be61958801b618b98425,0.0781,0.0782,0,146,146,69,1,threefour,,,,,,,,,,,,,,,,,,,,,,,,,,,,,,,,,,,,,,,,,,,,,,,,,,,,,,,,,,,,,,,,,,,,,,,,,,,,,,,,,,,,,,,,,,,,,,,,,,,,,,,,,,,,,,,,,,,,,,,,,,,,,,,,,,,,,,,,,
,,613f9ef9ebef8fb30930aa02,2024-02-21_21h29.04.832,kallum_motion_pilot,2023.2.2,Win32,59.88023952,613f9ef9ebef8fb30930aa02,65d6bb0e977760de756971f7,65d6be61958801b618b98425,0.0783,0.0784,0,147,147,115,1,sixeight,,,,,,,,,,,,,,,,,,,,,,,,,,,,,,,,,,,,,,,,,,,,,,,,,,,,,,,,,,,,,,,,,,,,,,,,,,,,,,,,,,,,,,,,,,,,,,,,,,,,,,,,,,,,,,,,,,,,,,,,,,,,,,,,,,,,,,,,,
,,613f9ef9ebef8fb30930aa02,2024-02-21_21h29.04.832,kallum_motion_pilot,2023.2.2,Win32,59.88023952,613f9ef9ebef8fb30930aa02,65d6bb0e977760de756971f7,65d6be61958801b618b98425,0.0786,0.0786,0,148,148,20,1,threeone,,,,,,,,,,,,,,,,,,,,,,,,,,,,,,,,,,,,,,,,,,,,,,,,,,,,,,,,,,,,,,,,,,,,,,,,,,,,,,,,,,,,,,,,,,,,,,,,,,,,,,,,,,,,,,,,,,,,,,,,,,,,,,,,,,,,,,,,,
,,613f9ef9ebef8fb30930aa02,2024-02-21_21h29.04.832,kallum_motion_pilot,2023.2.2,Win32,59.88023952,613f9ef9ebef8fb30930aa02,65d6bb0e977760de756971f7,65d6be61958801b618b98425,0.0788,0.079,0,149,149,146,1,sixfive,,,,,,,,,,,,,,,,,,,,,,,,,,,,,,,,,,,,,,,,,,,,,,,,,,,,,,,,,,,,,,,,,,,,,,,,,,,,,,,,,,,,,,,,,,,,,,,,,,,,,,,,,,,,,,,,,,,,,,,,,,,,,,,,,,,,,,,,,
,,613f9ef9ebef8fb30930aa02,2024-02-21_21h29.04.832,kallum_motion_pilot,2023.2.2,Win32,59.88023952,613f9ef9ebef8fb30930aa02,65d6bb0e977760de756971f7,65d6be61958801b618b98425,0.0791,0.0792,0,150,150,108,1,sevenfive,,,,,,,,,,,,,,,,,,,,,,,,,,,,,,,,,,,,,,,,,,,,,,,,,,,,,,,,,,,,,,,,,,,,,,,,,,,,,,,,,,,,,,,,,,,,,,,,,,,,,,,,,,,,,,,,,,,,,,,,,,,,,,,,,,,,,,,,,
,,613f9ef9ebef8fb30930aa02,2024-02-21_21h29.04.832,kallum_motion_pilot,2023.2.2,Win32,59.88023952,613f9ef9ebef8fb30930aa02,65d6bb0e977760de756971f7,65d6be61958801b618b98425,0.0793,0.0793,0,151,151,13,1,threefour,,,,,,,,,,,,,,,,,,,,,,,,,,,,,,,,,,,,,,,,,,,,,,,,,,,,,,,,,,,,,,,,,,,,,,,,,,,,,,,,,,,,,,,,,,,,,,,,,,,,,,,,,,,,,,,,,,,,,,,,,,,,,,,,,,,,,,,,,
,,613f9ef9ebef8fb30930aa02,2024-02-21_21h29.04.832,kallum_motion_pilot,2023.2.2,Win32,59.88023952,613f9ef9ebef8fb30930aa02,65d6bb0e977760de756971f7,65d6be61958801b618b98425,0.0795,0.0797,0,152,152,36,1,threeone,,,,,,,,,,,,,,,,,,,,,,,,,,,,,,,,,,,,,,,,,,,,,,,,,,,,,,,,,,,,,,,,,,,,,,,,,,,,,,,,,,,,,,,,,,,,,,,,,,,,,,,,,,,,,,,,,,,,,,,,,,,,,,,,,,,,,,,,,
,,613f9ef9ebef8fb30930aa02,2024-02-21_21h29.04.832,kallum_motion_pilot,2023.2.2,Win32,59.88023952,613f9ef9ebef8fb30930aa02,65d6bb0e977760de756971f7,65d6be61958801b618b98425,0.0799,0.08,0,153,153,78,1,fourtwo,,,,,,,,,,,,,,,,,,,,,,,,,,,,,,,,,,,,,,,,,,,,,,,,,,,,,,,,,,,,,,,,,,,,,,,,,,,,,,,,,,,,,,,,,,,,,,,,,,,,,,,,,,,,,,,,,,,,,,,,,,,,,,,,,,,,,,,,,
,,613f9ef9ebef8fb30930aa02,2024-02-21_21h29.04.832,kallum_motion_pilot,2023.2.2,Win32,59.88023952,613f9ef9ebef8fb30930aa02,65d6bb0e977760de756971f7,65d6be61958801b618b98425,0.0801,0.0802,0,154,154,42,1,twoone,,,,,,,,,,,,,,,,,,,,,,,,,,,,,,,,,,,,,,,,,,,,,,,,,,,,,,,,,,,,,,,,,,,,,,,,,,,,,,,,,,,,,,,,,,,,,,,,,,,,,,,,,,,,,,,,,,,,,,,,,,,,,,,,,,,,,,,,,
,,613f9ef9ebef8fb30930aa02,2024-02-21_21h29.04.832,kallum_motion_pilot,2023.2.2,Win32,59.88023952,613f9ef9ebef8fb30930aa02,65d6bb0e977760de756971f7,65d6be61958801b618b98425,0.0805,0.0806,0,155,155,125,1,seveneight,,,,,,,,,,,,,,,,,,,,,,,,,,,,,,,,,,,,,,,,,,,,,,,,,,,,,,,,,,,,,,,,,,,,,,,,,,,,,,,,,,,,,,,,,,,,,,,,,,,,,,,,,,,,,,,,,,,,,,,,,,,,,,,,,,,,,,,,,
,,613f9ef9ebef8fb30930aa02,2024-02-21_21h29.04.832,kallum_motion_pilot,2023.2.2,Win32,59.88023952,613f9ef9ebef8fb30930aa02,65d6bb0e977760de756971f7,65d6be61958801b618b98425,0.0807,0.0808,0,156,156,147,1,sixeight,,,,,,,,,,,,,,,,,,,,,,,,,,,,,,,,,,,,,,,,,,,,,,,,,,,,,,,,,,,,,,,,,,,,,,,,,,,,,,,,,,,,,,,,,,,,,,,,,,,,,,,,,,,,,,,,,,,,,,,,,,,,,,,,,,,,,,,,,
,,613f9ef9ebef8fb30930aa02,2024-02-21_21h29.04.832,kallum_motion_pilot,2023.2.2,Win32,59.88023952,613f9ef9ebef8fb30930aa02,65d6bb0e977760de756971f7,65d6be61958801b618b98425,0.0809,0.081,0,157,157,102,1,eightsix,,,,,,,,,,,,,,,,,,,,,,,,,,,,,,,,,,,,,,,,,,,,,,,,,,,,,,,,,,,,,,,,,,,,,,,,,,,,,,,,,,,,,,,,,,,,,,,,,,,,,,,,,,,,,,,,,,,,,,,,,,,,,,,,,,,,,,,,,
,,613f9ef9ebef8fb30930aa02,2024-02-21_21h29.04.832,kallum_motion_pilot,2023.2.2,Win32,59.88023952,613f9ef9ebef8fb30930aa02,65d6bb0e977760de756971f7,65d6be61958801b618b98425,0.0811,0.0812,0,158,158,158,1,eightsix,,,,,,,,,,,,,,,,,,,,,,,,,,,,,,,,,,,,,,,,,,,,,,,,,,,,,,,,,,,,,,,,,,,,,,,,,,,,,,,,,,,,,,,,,,,,,,,,,,,,,,,,,,,,,,,,,,,,,,,,,,,,,,,,,,,,,,,,,
,,613f9ef9ebef8fb30930aa02,2024-02-21_21h29.04.832,kallum_motion_pilot,2023.2.2,Win32,59.88023952,613f9ef9ebef8fb30930aa02,65d6bb0e977760de756971f7,65d6be61958801b618b98425,0.0813,0.0815,0,159,159,134,1,eightsix,,,,,,,,,,,,,,,,,,,,,,,,,,,,,,,,,,,,,,,,,,,,,,,,,,,,,,,,,,,,,,,,,,,,,,,,,,,,,,,,,,,,,,,,,,,,,,,,,,,,,,,,,,,,,,,,,,,,,,,,,,,,,,,,,,,,,,,,,
,,613f9ef9ebef8fb30930aa02,2024-02-21_21h29.04.832,kallum_motion_pilot,2023.2.2,Win32,59.88023952,613f9ef9ebef8fb30930aa02,65d6bb0e977760de756971f7,65d6be61958801b618b98425,0.0815,0.0816,0,160,160,64,1,onetwo,,,,,,,,,,,,,,,,,,,,,,,,,,,,,,,,,,,,,,,,,,,,,,,,,,,,,,,,,,,,,,,,,,,,,,,,,,,,,,,,,,,,,,,,,,,,,,,,,,,,,,,,,,,,,,,,,,,,,,,,,,,,,,,,,,,,,,,,,
,,613f9ef9ebef8fb30930aa02,2024-02-21_21h29.04.832,kallum_motion_pilot,2023.2.2,Win32,59.88023952,613f9ef9ebef8fb30930aa02,65d6bb0e977760de756971f7,65d6be61958801b618b98425,0.0818,0.0818,0,161,161,140,1,sevenfive,,,,,,,,,,,,,,,,,,,,,,,,,,,,,,,,,,,,,,,,,,,,,,,,,,,,,,,,,,,,,,,,,,,,,,,,,,,,,,,,,,,,,,,,,,,,,,,,,,,,,,,,,,,,,,,,,,,,,,,,,,,,,,,,,,,,,,,,,
,,613f9ef9ebef8fb30930aa02,2024-02-21_21h29.04.832,kallum_motion_pilot,2023.2.2,Win32,59.88023952,613f9ef9ebef8fb30930aa02,65d6bb0e977760de756971f7,65d6be61958801b618b98425,0.082,0.0821,1,0,162,7,1,fourthree,,,,,,,,,,,,,,,,,,,,,,,,,,,,,,,,,,,,,,,,,,,,,,,,,,,,,,,,,,,,,,,,,,,,,,,,,,,,,,,,,,,,,,,,,,,,,,,,,,,,,,,,,,,,,,,,,,,,,,,,,,,,,,,,,,,,,,,,,
,,613f9ef9ebef8fb30930aa02,2024-02-21_21h29.04.832,kallum_motion_pilot,2023.2.2,Win32,59.88023952,613f9ef9ebef8fb30930aa02,65d6bb0e977760de756971f7,65d6be61958801b618b98425,0.0822,0.0823,1,1,163,117,1,seveneight,,,,,,,,,,,,,,,,,,,,,,,,,,,,,,,,,,,,,,,,,,,,,,,,,,,,,,,,,,,,,,,,,,,,,,,,,,,,,,,,,,,,,,,,,,,,,,,,,,,,,,,,,,,,,,,,,,,,,,,,,,,,,,,,,,,,,,,,,
,,613f9ef9ebef8fb30930aa02,2024-02-21_21h29.04.832,kallum_motion_pilot,2023.2.2,Win32,59.88023952,613f9ef9ebef8fb30930aa02,65d6bb0e977760de756971f7,65d6be61958801b618b98425,0.0824,0.0826,1,2,164,143,1,eightseven,,,,,,,,,,,,,,,,,,,,,,,,,,,,,,,,,,,,,,,,,,,,,,,,,,,,,,,,,,,,,,,,,,,,,,,,,,,,,,,,,,,,,,,,,,,,,,,,,,,,,,,,,,,,,,,,,,,,,,,,,,,,,,,,,,,,,,,,,
,,613f9ef9ebef8fb30930aa02,2024-02-21_21h29.04.832,kallum_motion_pilot,2023.2.2,Win32,59.88023952,613f9ef9ebef8fb30930aa02,65d6bb0e977760de756971f7,65d6be61958801b618b98425,0.0827,0.0828,1,3,165,8,1,onetwo,,,,,,,,,,,,,,,,,,,,,,,,,,,,,,,,,,,,,,,,,,,,,,,,,,,,,,,,,,,,,,,,,,,,,,,,,,,,,,,,,,,,,,,,,,,,,,,,,,,,,,,,,,,,,,,,,,,,,,,,,,,,,,,,,,,,,,,,,
,,613f9ef9ebef8fb30930aa02,2024-02-21_21h29.04.832,kallum_motion_pilot,2023.2.2,Win32,59.88023952,613f9ef9ebef8fb30930aa02,65d6bb0e977760de756971f7,65d6be61958801b618b98425,0.0829,0.083,1,4,166,30,1,fourtwo,,,,,,,,,,,,,,,,,,,,,,,,,,,,,,,,,,,,,,,,,,,,,,,,,,,,,,,,,,,,,,,,,,,,,,,,,,,,,,,,,,,,,,,,,,,,,,,,,,,,,,,,,,,,,,,,,,,,,,,,,,,,,,,,,,,,,,,,,
,,613f9ef9ebef8fb30930aa02,2024-02-21_21h29.04.832,kallum_motion_pilot,2023.2.2,Win32,59.88023952,613f9ef9ebef8fb30930aa02,65d6bb0e977760de756971f7,65d6be61958801b618b98425,0.0832,0.0832,1,5,167,141,1,seveneight,,,,,,,,,,,,,,,,,,,,,,,,,,,,,,,,,,,,,,,,,,,,,,,,,,,,,,,,,,,,,,,,,,,,,,,,,,,,,,,,,,,,,,,,,,,,,,,,,,,,,,,,,,,,,,,,,,,,,,,,,,,,,,,,,,,,,,,,,
,,613f9ef9ebef8fb30930aa02,2024-02-21_21h29.04.832,kallum_motion_pilot,2023.2.2,Win32,59.88023952,613f9ef9ebef8fb30930aa02,65d6bb0e977760de756971f7,65d6be61958801b618b98425,0.0834,0.0834,1,6,168,27,1,twofour,,,,,,,,,,,,,,,,,,,,,,,,,,,,,,,,,,,,,,,,,,,,,,,,,,,,,,,,,,,,,,,,,,,,,,,,,,,,,,,,,,,,,,,,,,,,,,,,,,,,,,,,,,,,,,,,,,,,,,,,,,,,,,,,,,,,,,,,,
,,613f9ef9ebef8fb30930aa02,2024-02-21_21h29.04.832,kallum_motion_pilot,2023.2.2,Win32,59.88023952,613f9ef9ebef8fb30930aa02,65d6bb0e977760de756971f7,65d6be61958801b618b98425,0.0836,0.0836,1,7,169,89,1,fiveseven,,,,,,,,,,,,,,,,,,,,,,,,,,,,,,,,,,,,,,,,,,,,,,,,,,,,,,,,,,,,,,,,,,,,,,,,,,,,,,,,,,,,,,,,,,,,,,,,,,,,,,,,,,,,,,,,,,,,,,,,,,,,,,,,,,,,,,,,,
,,613f9ef9ebef8fb30930aa02,2024-02-21_21h29.04.832,kallum_motion_pilot,2023.2.2,Win32,59.88023952,613f9ef9ebef8fb30930aa02,65d6bb0e977760de756971f7,65d6be61958801b618b98425,0.0838,0.0839,1,8,170,109,1,seveneight,,,,,,,,,,,,,,,,,,,,,,,,,,,,,,,,,,,,,,,,,,,,,,,,,,,,,,,,,,,,,,,,,,,,,,,,,,,,,,,,,,,,,,,,,,,,,,,,,,,,,,,,,,,,,,,,,,,,,,,,,,,,,,,,,,,,,,,,,
,,613f9ef9ebef8fb30930aa02,2024-02-21_21h29.04.832,kallum_motion_pilot,2023.2.2,Win32,59.88023952,613f9ef9ebef8fb30930aa02,65d6bb0e977760de756971f7,65d6be61958801b618b98425,0.0841,0.0841,1,9,171,127,1,eightseven,,,,,,,,,,,,,,,,,,,,,,,,,,,,,,,,,,,,,,,,,,,,,,,,,,,,,,,,,,,,,,,,,,,,,,,,,,,,,,,,,,,,,,,,,,,,,,,,,,,,,,,,,,,,,,,,,,,,,,,,,,,,,,,,,,,,,,,,,
,,613f9ef9ebef8fb30930aa02,2024-02-21_21h29.04.832,kallum_motion_pilot,2023.2.2,Win32,59.88023952,613f9ef9ebef8fb30930aa02,65d6bb0e977760de756971f7,65d6be61958801b618b98425,0.0842,0.0843,1,10,172,126,1,eightsix,,,,,,,,,,,,,,,,,,,,,,,,,,,,,,,,,,,,,,,,,,,,,,,,,,,,,,,,,,,,,,,,,,,,,,,,,,,,,,,,,,,,,,,,,,,,,,,,,,,,,,,,,,,,,,,,,,,,,,,,,,,,,,,,,,,,,,,,,
,,613f9ef9ebef8fb30930aa02,2024-02-21_21h29.04.832,kallum_motion_pilot,2023.2.2,Win32,59.88023952,613f9ef9ebef8fb30930aa02,65d6bb0e977760de756971f7,65d6be61958801b618b98425,0.0844,0.0845,1,11,173,81,1,fiveseven,,,,,,,,,,,,,,,,,,,,,,,,,,,,,,,,,,,,,,,,,,,,,,,,,,,,,,,,,,,,,,,,,,,,,,,,,,,,,,,,,,,,,,,,,,,,,,,,,,,,,,,,,,,,,,,,,,,,,,,,,,,,,,,,,,,,,,,,,
,,613f9ef9ebef8fb30930aa02,2024-02-21_21h29.04.832,kallum_motion_pilot,2023.2.2,Win32,59.88023952,613f9ef9ebef8fb30930aa02,65d6bb0e977760de756971f7,65d6be61958801b618b98425,0.0846,0.0847,1,12,174,83,1,sixeight,,,,,,,,,,,,,,,,,,,,,,,,,,,,,,,,,,,,,,,,,,,,,,,,,,,,,,,,,,,,,,,,,,,,,,,,,,,,,,,,,,,,,,,,,,,,,,,,,,,,,,,,,,,,,,,,,,,,,,,,,,,,,,,,,,,,,,,,,
,,613f9ef9ebef8fb30930aa02,2024-02-21_21h29.04.832,kallum_motion_pilot,2023.2.2,Win32,59.88023952,613f9ef9ebef8fb30930aa02,65d6bb0e977760de756971f7,65d6be61958801b618b98425,0.0848,0.0849,1,13,175,5,1,threefour,,,,,,,,,,,,,,,,,,,,,,,,,,,,,,,,,,,,,,,,,,,,,,,,,,,,,,,,,,,,,,,,,,,,,,,,,,,,,,,,,,,,,,,,,,,,,,,,,,,,,,,,,,,,,,,,,,,,,,,,,,,,,,,,,,,,,,,,,
,,613f9ef9ebef8fb30930aa02,2024-02-21_21h29.04.832,kallum_motion_pilot,2023.2.2,Win32,59.88023952,613f9ef9ebef8fb30930aa02,65d6bb0e977760de756971f7,65d6be61958801b618b98425,0.0851,0.0852,1,14,176,87,1,eightseven,,,,,,,,,,,,,,,,,,,,,,,,,,,,,,,,,,,,,,,,,,,,,,,,,,,,,,,,,,,,,,,,,,,,,,,,,,,,,,,,,,,,,,,,,,,,,,,,,,,,,,,,,,,,,,,,,,,,,,,,,,,,,,,,,,,,,,,,,
,,613f9ef9ebef8fb30930aa02,2024-02-21_21h29.04.832,kallum_motion_pilot,2023.2.2,Win32,59.88023952,613f9ef9ebef8fb30930aa02,65d6bb0e977760de756971f7,65d6be61958801b618b98425,0.0853,0.0853,1,15,177,159,1,eightseven,,,,,,,,,,,,,,,,,,,,,,,,,,,,,,,,,,,,,,,,,,,,,,,,,,,,,,,,,,,,,,,,,,,,,,,,,,,,,,,,,,,,,,,,,,,,,,,,,,,,,,,,,,,,,,,,,,,,,,,,,,,,,,,,,,,,,,,,,
,,613f9ef9ebef8fb30930aa02,2024-02-21_21h29.04.832,kallum_motion_pilot,2023.2.2,Win32,59.88023952,613f9ef9ebef8fb30930aa02,65d6bb0e977760de756971f7,65d6be61958801b618b98425,0.0855,0.0856,1,16,178,48,1,onetwo,,,,,,,,,,,,,,,,,,,,,,,,,,,,,,,,,,,,,,,,,,,,,,,,,,,,,,,,,,,,,,,,,,,,,,,,,,,,,,,,,,,,,,,,,,,,,,,,,,,,,,,,,,,,,,,,,,,,,,,,,,,,,,,,,,,,,,,,,
,,613f9ef9ebef8fb30930aa02,2024-02-21_21h29.04.832,kallum_motion_pilot,2023.2.2,Win32,59.88023952,613f9ef9ebef8fb30930aa02,65d6bb0e977760de756971f7,65d6be61958801b618b98425,0.0857,0.0858,1,17,179,88,1,fivesix,,,,,,,,,,,,,,,,,,,,,,,,,,,,,,,,,,,,,,,,,,,,,,,,,,,,,,,,,,,,,,,,,,,,,,,,,,,,,,,,,,,,,,,,,,,,,,,,,,,,,,,,,,,,,,,,,,,,,,,,,,,,,,,,,,,,,,,,,
,,613f9ef9ebef8fb30930aa02,2024-02-21_21h29.04.832,kallum_motion_pilot,2023.2.2,Win32,59.88023952,613f9ef9ebef8fb30930aa02,65d6bb0e977760de756971f7,65d6be61958801b618b98425,0.086,0.086,1,18,180,149,1,seveneight,,,,,,,,,,,,,,,,,,,,,,,,,,,,,,,,,,,,,,,,,,,,,,,,,,,,,,,,,,,,,,,,,,,,,,,,,,,,,,,,,,,,,,,,,,,,,,,,,,,,,,,,,,,,,,,,,,,,,,,,,,,,,,,,,,,,,,,,,
,,613f9ef9ebef8fb30930aa02,2024-02-21_21h29.04.832,kallum_motion_pilot,2023.2.2,Win32,59.88023952,613f9ef9ebef8fb30930aa02,65d6bb0e977760de756971f7,65d6be61958801b618b98425,0.0861,0.0862,1,19,181,76,1,threeone,,,,,,,,,,,,,,,,,,,,,,,,,,,,,,,,,,,,,,,,,,,,,,,,,,,,,,,,,,,,,,,,,,,,,,,,,,,,,,,,,,,,,,,,,,,,,,,,,,,,,,,,,,,,,,,,,,,,,,,,,,,,,,,,,,,,,,,,,
,,613f9ef9ebef8fb30930aa02,2024-02-21_21h29.04.832,kallum_motion_pilot,2023.2.2,Win32,59.88023952,613f9ef9ebef8fb30930aa02,65d6bb0e977760de756971f7,65d6be61958801b618b98425,0.0864,0.0866,1,20,182,54,1,fourtwo,,,,,,,,,,,,,,,,,,,,,,,,,,,,,,,,,,,,,,,,,,,,,,,,,,,,,,,,,,,,,,,,,,,,,,,,,,,,,,,,,,,,,,,,,,,,,,,,,,,,,,,,,,,,,,,,,,,,,,,,,,,,,,,,,,,,,,,,,
,,613f9ef9ebef8fb30930aa02,2024-02-21_21h29.04.832,kallum_motion_pilot,2023.2.2,Win32,59.88023952,613f9ef9ebef8fb30930aa02,65d6bb0e977760de756971f7,65d6be61958801b618b98425,0.087,0.0873,1,21,183,4,1,threeone,,,,,,,,,,,,,,,,,,,,,,,,,,,,,,,,,,,,,,,,,,,,,,,,,,,,,,,,,,,,,,,,,,,,,,,,,,,,,,,,,,,,,,,,,,,,,,,,,,,,,,,,,,,,,,,,,,,,,,,,,,,,,,,,,,,,,,,,,
,,613f9ef9ebef8fb30930aa02,2024-02-21_21h29.04.832,kallum_motion_pilot,2023.2.2,Win32,59.88023952,613f9ef9ebef8fb30930aa02,65d6bb0e977760de756971f7,65d6be61958801b618b98425,0.088,0.0883,1,22,184,148,1,sevenfive,,,,,,,,,,,,,,,,,,,,,,,,,,,,,,,,,,,,,,,,,,,,,,,,,,,,,,,,,,,,,,,,,,,,,,,,,,,,,,,,,,,,,,,,,,,,,,,,,,,,,,,,,,,,,,,,,,,,,,,,,,,,,,,,,,,,,,,,,
,,613f9ef9ebef8fb30930aa02,2024-02-21_21h29.04.832,kallum_motion_pilot,2023.2.2,Win32,59.88023952,613f9ef9ebef8fb30930aa02,65d6bb0e977760de756971f7,65d6be61958801b618b98425,0.0888,0.089,1,23,185,96,1,fivesix,,,,,,,,,,,,,,,,,,,,,,,,,,,,,,,,,,,,,,,,,,,,,,,,,,,,,,,,,,,,,,,,,,,,,,,,,,,,,,,,,,,,,,,,,,,,,,,,,,,,,,,,,,,,,,,,,,,,,,,,,,,,,,,,,,,,,,,,,
,,613f9ef9ebef8fb30930aa02,2024-02-21_21h29.04.832,kallum_motion_pilot,2023.2.2,Win32,59.88023952,613f9ef9ebef8fb30930aa02,65d6bb0e977760de756971f7,65d6be61958801b618b98425,0.0892,0.0894,1,24,186,35,1,twofour,,,,,,,,,,,,,,,,,,,,,,,,,,,,,,,,,,,,,,,,,,,,,,,,,,,,,,,,,,,,,,,,,,,,,,,,,,,,,,,,,,,,,,,,,,,,,,,,,,,,,,,,,,,,,,,,,,,,,,,,,,,,,,,,,,,,,,,,,
,,613f9ef9ebef8fb30930aa02,2024-02-21_21h29.04.832,kallum_motion_pilot,2023.2.2,Win32,59.88023952,613f9ef9ebef8fb30930aa02,65d6bb0e977760de756971f7,65d6be61958801b618b98425,0.0897,0.0897,1,25,187,155,1,sixeight,,,,,,,,,,,,,,,,,,,,,,,,,,,,,,,,,,,,,,,,,,,,,,,,,,,,,,,,,,,,,,,,,,,,,,,,,,,,,,,,,,,,,,,,,,,,,,,,,,,,,,,,,,,,,,,,,,,,,,,,,,,,,,,,,,,,,,,,,
,,613f9ef9ebef8fb30930aa02,2024-02-21_21h29.04.832,kallum_motion_pilot,2023.2.2,Win32,59.88023952,613f9ef9ebef8fb30930aa02,65d6bb0e977760de756971f7,65d6be61958801b618b98425,0.0898,0.0899,1,26,188,40,1,onetwo,,,,,,,,,,,,,,,,,,,,,,,,,,,,,,,,,,,,,,,,,,,,,,,,,,,,,,,,,,,,,,,,,,,,,,,,,,,,,,,,,,,,,,,,,,,,,,,,,,,,,,,,,,,,,,,,,,,,,,,,,,,,,,,,,,,,,,,,,
,,613f9ef9ebef8fb30930aa02,2024-02-21_21h29.04.832,kallum_motion_pilot,2023.2.2,Win32,59.88023952,613f9ef9ebef8fb30930aa02,65d6bb0e977760de756971f7,65d6be61958801b618b98425,0.09,0.0901,1,27,189,37,1,threefour,,,,,,,,,,,,,,,,,,,,,,,,,,,,,,,,,,,,,,,,,,,,,,,,,,,,,,,,,,,,,,,,,,,,,,,,,,,,,,,,,,,,,,,,,,,,,,,,,,,,,,,,,,,,,,,,,,,,,,,,,,,,,,,,,,,,,,,,,
,,613f9ef9ebef8fb30930aa02,2024-02-21_21h29.04.832,kallum_motion_pilot,2023.2.2,Win32,59.88023952,613f9ef9ebef8fb30930aa02,65d6bb0e977760de756971f7,65d6be61958801b618b98425,0.0903,0.0903,1,28,190,147,1,sixeight,,,,,,,,,,,,,,,,,,,,,,,,,,,,,,,,,,,,,,,,,,,,,,,,,,,,,,,,,,,,,,,,,,,,,,,,,,,,,,,,,,,,,,,,,,,,,,,,,,,,,,,,,,,,,,,,,,,,,,,,,,,,,,,,,,,,,,,,,
,,613f9ef9ebef8fb30930aa02,2024-02-21_21h29.04.832,kallum_motion_pilot,2023.2.2,Win32,59.88023952,613f9ef9ebef8fb30930aa02,65d6bb0e977760de756971f7,65d6be61958801b618b98425,0.0905,0.0906,1,29,191,97,1,fiveseven,,,,,,,,,,,,,,,,,,,,,,,,,,,,,,,,,,,,,,,,,,,,,,,,,,,,,,,,,,,,,,,,,,,,,,,,,,,,,,,,,,,,,,,,,,,,,,,,,,,,,,,,,,,,,,,,,,,,,,,,,,,,,,,,,,,,,,,,,
,,613f9ef9ebef8fb30930aa02,2024-02-21_21h29.04.832,kallum_motion_pilot,2023.2.2,Win32,59.88023952,613f9ef9ebef8fb30930aa02,65d6bb0e977760de756971f7,65d6be61958801b618b98425,0.0907,0.0908,1,30,192,61,1,threefour,,,,,,,,,,,,,,,,,,,,,,,,,,,,,,,,,,,,,,,,,,,,,,,,,,,,,,,,,,,,,,,,,,,,,,,,,,,,,,,,,,,,,,,,,,,,,,,,,,,,,,,,,,,,,,,,,,,,,,,,,,,,,,,,,,,,,,,,,
,,613f9ef9ebef8fb30930aa02,2024-02-21_21h29.04.832,kallum_motion_pilot,2023.2.2,Win32,59.88023952,613f9ef9ebef8fb30930aa02,65d6bb0e977760de756971f7,65d6be61958801b618b98425,0.0909,0.0909,1,31,193,47,1,fourthree,,,,,,,,,,,,,,,,,,,,,,,,,,,,,,,,,,,,,,,,,,,,,,,,,,,,,,,,,,,,,,,,,,,,,,,,,,,,,,,,,,,,,,,,,,,,,,,,,,,,,,,,,,,,,,,,,,,,,,,,,,,,,,,,,,,,,,,,,
,,613f9ef9ebef8fb30930aa02,2024-02-21_21h29.04.832,kallum_motion_pilot,2023.2.2,Win32,59.88023952,613f9ef9ebef8fb30930aa02,65d6bb0e977760de756971f7,65d6be61958801b618b98425,0.0911,0.0913,1,32,194,16,1,onetwo,,,,,,,,,,,,,,,,,,,,,,,,,,,,,,,,,,,,,,,,,,,,,,,,,,,,,,,,,,,,,,,,,,,,,,,,,,,,,,,,,,,,,,,,,,,,,,,,,,,,,,,,,,,,,,,,,,,,,,,,,,,,,,,,,,,,,,,,,
,,613f9ef9ebef8fb30930aa02,2024-02-21_21h29.04.832,kallum_motion_pilot,2023.2.2,Win32,59.88023952,613f9ef9ebef8fb30930aa02,65d6bb0e977760de756971f7,65d6be61958801b618b98425,0.0914,0.0914,1,33,195,110,1,eightsix,,,,,,,,,,,,,,,,,,,,,,,,,,,,,,,,,,,,,,,,,,,,,,,,,,,,,,,,,,,,,,,,,,,,,,,,,,,,,,,,,,,,,,,,,,,,,,,,,,,,,,,,,,,,,,,,,,,,,,,,,,,,,,,,,,,,,,,,,
,,613f9ef9ebef8fb30930aa02,2024-02-21_21h29.04.832,kallum_motion_pilot,2023.2.2,Win32,59.88023952,613f9ef9ebef8fb30930aa02,65d6bb0e977760de756971f7,65d6be61958801b618b98425,0.0916,0.0917,1,34,196,77,1,threefour,,,,,,,,,,,,,,,,,,,,,,,,,,,,,,,,,,,,,,,,,,,,,,,,,,,,,,,,,,,,,,,,,,,,,,,,,,,,,,,,,,,,,,,,,,,,,,,,,,,,,,,,,,,,,,,,,,,,,,,,,,,,,,,,,,,,,,,,,
,,613f9ef9ebef8fb30930aa02,2024-02-21_21h29.04.832,kallum_motion_pilot,2023.2.2,Win32,59.88023952,613f9ef9ebef8fb30930aa02,65d6bb0e977760de756971f7,65d6be61958801b618b98425,0.0918,0.0919,1,35,197,55,1,fourthree,,,,,,,,,,,,,,,,,,,,,,,,,,,,,,,,,,,,,,,,,,,,,,,,,,,,,,,,,,,,,,,,,,,,,,,,,,,,,,,,,,,,,,,,,,,,,,,,,,,,,,,,,,,,,,,,,,,,,,,,,,,,,,,,,,,,,,,,,
,,613f9ef9ebef8fb30930aa02,2024-02-21_21h29.04.832,kallum_motion_pilot,2023.2.2,Win32,59.88023952,613f9ef9ebef8fb30930aa02,65d6bb0e977760de756971f7,65d6be61958801b618b98425,0.092,0.0922,1,36,198,41,1,onethree,,,,,,,,,,,,,,,,,,,,,,,,,,,,,,,,,,,,,,,,,,,,,,,,,,,,,,,,,,,,,,,,,,,,,,,,,,,,,,,,,,,,,,,,,,,,,,,,,,,,,,,,,,,,,,,,,,,,,,,,,,,,,,,,,,,,,,,,,
,,613f9ef9ebef8fb30930aa02,2024-02-21_21h29.04.832,kallum_motion_pilot,2023.2.2,Win32,59.88023952,613f9ef9ebef8fb30930aa02,65d6bb0e977760de756971f7,65d6be61958801b618b98425,0.0923,0.0924,1,37,199,161,1,fiveseven,,,,,,,,,,,,,,,,,,,,,,,,,,,,,,,,,,,,,,,,,,,,,,,,,,,,,,,,,,,,,,,,,,,,,,,,,,,,,,,,,,,,,,,,,,,,,,,,,,,,,,,,,,,,,,,,,,,,,,,,,,,,,,,,,,,,,,,,,
,,613f9ef9ebef8fb30930aa02,2024-02-21_21h29.04.832,kallum_motion_pilot,2023.2.2,Win32,59.88023952,613f9ef9ebef8fb30930aa02,65d6bb0e977760de756971f7,65d6be61958801b618b98425,0.0925,0.0926,1,38,200,36,1,threeone,,,,,,,,,,,,,,,,,,,,,,,,,,,,,,,,,,,,,,,,,,,,,,,,,,,,,,,,,,,,,,,,,,,,,,,,,,,,,,,,,,,,,,,,,,,,,,,,,,,,,,,,,,,,,,,,,,,,,,,,,,,,,,,,,,,,,,,,,
,,613f9ef9ebef8fb30930aa02,2024-02-21_21h29.04.832,kallum_motion_pilot,2023.2.2,Win32,59.88023952,613f9ef9ebef8fb30930aa02,65d6bb0e977760de756971f7,65d6be61958801b618b98425,0.0928,0.0928,1,39,201,139,1,sixeight,,,,,,,,,,,,,,,,,,,,,,,,,,,,,,,,,,,,,,,,,,,,,,,,,,,,,,,,,,,,,,,,,,,,,,,,,,,,,,,,,,,,,,,,,,,,,,,,,,,,,,,,,,,,,,,,,,,,,,,,,,,,,,,,,,,,,,,,,
,,613f9ef9ebef8fb30930aa02,2024-02-21_21h29.04.832,kallum_motion_pilot,2023.2.2,Win32,59.88023952,613f9ef9ebef8fb30930aa02,65d6bb0e977760de756971f7,65d6be61958801b618b98425,0.093,0.0931,1,40,202,92,1,sevenfive,,,,,,,,,,,,,,,,,,,,,,,,,,,,,,,,,,,,,,,,,,,,,,,,,,,,,,,,,,,,,,,,,,,,,,,,,,,,,,,,,,,,,,,,,,,,,,,,,,,,,,,,,,,,,,,,,,,,,,,,,,,,,,,,,,,,,,,,,
,,613f9ef9ebef8fb30930aa02,2024-02-21_21h29.04.832,kallum_motion_pilot,2023.2.2,Win32,59.88023952,613f9ef9ebef8fb30930aa02,65d6bb0e977760de756971f7,65d6be61958801b618b98425,0.0931,0.0933,1,41,203,67,1,twofour,,,,,,,,,,,,,,,,,,,,,,,,,,,,,,,,,,,,,,,,,,,,,,,,,,,,,,,,,,,,,,,,,,,,,,,,,,,,,,,,,,,,,,,,,,,,,,,,,,,,,,,,,,,,,,,,,,,,,,,,,,,,,,,,,,,,,,,,,
,,613f9ef9ebef8fb30930aa02,2024-02-21_21h29.04.832,kallum_motion_pilot,2023.2.2,Win32,59.88023952,613f9ef9ebef8fb30930aa02,65d6bb0e977760de756971f7,65d6be61958801b618b98425,0.0934,0.0935,1,42,204,39,1,fourthree,,,,,,,,,,,,,,,,,,,,,,,,,,,,,,,,,,,,,,,,,,,,,,,,,,,,,,,,,,,,,,,,,,,,,,,,,,,,,,,,,,,,,,,,,,,,,,,,,,,,,,,,,,,,,,,,,,,,,,,,,,,,,,,,,,,,,,,,,
,,613f9ef9ebef8fb30930aa02,2024-02-21_21h29.04.832,kallum_motion_pilot,2023.2.2,Win32,59.88023952,613f9ef9ebef8fb30930aa02,65d6bb0e977760de756971f7,65d6be61958801b618b98425,0.0936,0.0937,1,43,205,13,1,threefour,,,,,,,,,,,,,,,,,,,,,,,,,,,,,,,,,,,,,,,,,,,,,,,,,,,,,,,,,,,,,,,,,,,,,,,,,,,,,,,,,,,,,,,,,,,,,,,,,,,,,,,,,,,,,,,,,,,,,,,,,,,,,,,,,,,,,,,,,
,,613f9ef9ebef8fb30930aa02,2024-02-21_21h29.04.832,kallum_motion_pilot,2023.2.2,Win32,59.88023952,613f9ef9ebef8fb30930aa02,65d6bb0e977760de756971f7,65d6be61958801b618b98425,0.0939,0.0939,1,44,206,33,1,onethree,,,,,,,,,,,,,,,,,,,,,,,,,,,,,,,,,,,,,,,,,,,,,,,,,,,,,,,,,,,,,,,,,,,,,,,,,,,,,,,,,,,,,,,,,,,,,,,,,,,,,,,,,,,,,,,,,,,,,,,,,,,,,,,,,,,,,,,,,
,,613f9ef9ebef8fb30930aa02,2024-02-21_21h29.04.832,kallum_motion_pilot,2023.2.2,Win32,59.88023952,613f9ef9ebef8fb30930aa02,65d6bb0e977760de756971f7,65d6be61958801b618b98425,0.0941,0.0942,1,45,207,108,1,sevenfive,,,,,,,,,,,,,,,,,,,,,,,,,,,,,,,,,,,,,,,,,,,,,,,,,,,,,,,,,,,,,,,,,,,,,,,,,,,,,,,,,,,,,,,,,,,,,,,,,,,,,,,,,,,,,,,,,,,,,,,,,,,,,,,,,,,,,,,,,
,,613f9ef9ebef8fb30930aa02,2024-02-21_21h29.04.832,kallum_motion_pilot,2023.2.2,Win32,59.88023952,613f9ef9ebef8fb30930aa02,65d6bb0e977760de756971f7,65d6be61958801b618b98425,0.0944,0.0945,1,46,208,115,1,sixeight,,,,,,,,,,,,,,,,,,,,,,,,,,,,,,,,,,,,,,,,,,,,,,,,,,,,,,,,,,,,,,,,,,,,,,,,,,,,,,,,,,,,,,,,,,,,,,,,,,,,,,,,,,,,,,,,,,,,,,,,,,,,,,,,,,,,,,,,,
,,613f9ef9ebef8fb30930aa02,2024-02-21_21h29.04.832,kallum_motion_pilot,2023.2.2,Win32,59.88023952,613f9ef9ebef8fb30930aa02,65d6bb0e977760de756971f7,65d6be61958801b618b98425,0.0947,0.0947,1,47,209,124,1,sevenfive,,,,,,,,,,,,,,,,,,,,,,,,,,,,,,,,,,,,,,,,,,,,,,,,,,,,,,,,,,,,,,,,,,,,,,,,,,,,,,,,,,,,,,,,,,,,,,,,,,,,,,,,,,,,,,,,,,,,,,,,,,,,,,,,,,,,,,,,,
,,613f9ef9ebef8fb30930aa02,2024-02-21_21h29.04.832,kallum_motion_pilot,2023.2.2,Win32,59.88023952,613f9ef9ebef8fb30930aa02,65d6bb0e977760de756971f7,65d6be61958801b618b98425,0.0949,0.095,1,48,210,85,1,seveneight,,,,,,,,,,,,,,,,,,,,,,,,,,,,,,,,,,,,,,,,,,,,,,,,,,,,,,,,,,,,,,,,,,,,,,,,,,,,,,,,,,,,,,,,,,,,,,,,,,,,,,,,,,,,,,,,,,,,,,,,,,,,,,,,,,,,,,,,,
,,613f9ef9ebef8fb30930aa02,2024-02-21_21h29.04.832,kallum_motion_pilot,2023.2.2,Win32,59.88023952,613f9ef9ebef8fb30930aa02,65d6bb0e977760de756971f7,65d6be61958801b618b98425,0.0951,0.0952,1,49,211,68,1,threeone,,,,,,,,,,,,,,,,,,,,,,,,,,,,,,,,,,,,,,,,,,,,,,,,,,,,,,,,,,,,,,,,,,,,,,,,,,,,,,,,,,,,,,,,,,,,,,,,,,,,,,,,,,,,,,,,,,,,,,,,,,,,,,,,,,,,,,,,,
,,613f9ef9ebef8fb30930aa02,2024-02-21_21h29.04.832,kallum_motion_pilot,2023.2.2,Win32,59.88023952,613f9ef9ebef8fb30930aa02,65d6bb0e977760de756971f7,65d6be61958801b618b98425,0.0953,0.0954,1,50,212,103,1,eightseven,,,,,,,,,,,,,,,,,,,,,,,,,,,,,,,,,,,,,,,,,,,,,,,,,,,,,,,,,,,,,,,,,,,,,,,,,,,,,,,,,,,,,,,,,,,,,,,,,,,,,,,,,,,,,,,,,,,,,,,,,,,,,,,,,,,,,,,,,
,,613f9ef9ebef8fb30930aa02,2024-02-21_21h29.04.832,kallum_motion_pilot,2023.2.2,Win32,59.88023952,613f9ef9ebef8fb30930aa02,65d6bb0e977760de756971f7,65d6be61958801b618b98425,0.0955,0.0957,1,51,213,140,1,sevenfive,,,,,,,,,,,,,,,,,,,,,,,,,,,,,,,,,,,,,,,,,,,,,,,,,,,,,,,,,,,,,,,,,,,,,,,,,,,,,,,,,,,,,,,,,,,,,,,,,,,,,,,,,,,,,,,,,,,,,,,,,,,,,,,,,,,,,,,,,
,,613f9ef9ebef8fb30930aa02,2024-02-21_21h29.04.832,kallum_motion_pilot,2023.2.2,Win32,59.88023952,613f9ef9ebef8fb30930aa02,65d6bb0e977760de756971f7,65d6be61958801b618b98425,0.0958,0.0959,1,52,214,105,1,fiveseven,,,,,,,,,,,,,,,,,,,,,,,,,,,,,,,,,,,,,,,,,,,,,,,,,,,,,,,,,,,,,,,,,,,,,,,,,,,,,,,,,,,,,,,,,,,,,,,,,,,,,,,,,,,,,,,,,,,,,,,,,,,,,,,,,,,,,,,,,
,,613f9ef9ebef8fb30930aa02,2024-02-21_21h29.04.832,kallum_motion_pilot,2023.2.2,Win32,59.88023952,613f9ef9ebef8fb30930aa02,65d6bb0e977760de756971f7,65d6be61958801b618b98425,0.096,0.0961,1,53,215,131,1,sixeight,,,,,,,,,,,,,,,,,,,,,,,,,,,,,,,,,,,,,,,,,,,,,,,,,,,,,,,,,,,,,,,,,,,,,,,,,,,,,,,,,,,,,,,,,,,,,,,,,,,,,,,,,,,,,,,,,,,,,,,,,,,,,,,,,,,,,,,,,
,,613f9ef9ebef8fb30930aa02,2024-02-21_21h29.04.832,kallum_motion_pilot,2023.2.2,Win32,59.88023952,613f9ef9ebef8fb30930aa02,65d6bb0e977760de756971f7,65d6be61958801b618b98425,0.0962,0.0963,1,54,216,158,1,eightsix,,,,,,,,,,,,,,,,,,,,,,,,,,,,,,,,,,,,,,,,,,,,,,,,,,,,,,,,,,,,,,,,,,,,,,,,,,,,,,,,,,,,,,,,,,,,,,,,,,,,,,,,,,,,,,,,,,,,,,,,,,,,,,,,,,,,,,,,,
,,613f9ef9ebef8fb30930aa02,2024-02-21_21h29.04.832,kallum_motion_pilot,2023.2.2,Win32,59.88023952,613f9ef9ebef8fb30930aa02,65d6bb0e977760de756971f7,65d6be61958801b618b98425,0.0965,0.0966,1,55,217,3,1,twofour,,,,,,,,,,,,,,,,,,,,,,,,,,,,,,,,,,,,,,,,,,,,,,,,,,,,,,,,,,,,,,,,,,,,,,,,,,,,,,,,,,,,,,,,,,,,,,,,,,,,,,,,,,,,,,,,,,,,,,,,,,,,,,,,,,,,,,,,,
,,613f9ef9ebef8fb30930aa02,2024-02-21_21h29.04.832,kallum_motion_pilot,2023.2.2,Win32,59.88023952,613f9ef9ebef8fb30930aa02,65d6bb0e977760de756971f7,65d6be61958801b618b98425,0.0967,0.0968,1,56,218,129,1,fiveseven,,,,,,,,,,,,,,,,,,,,,,,,,,,,,,,,,,,,,,,,,,,,,,,,,,,,,,,,,,,,,,,,,,,,,,,,,,,,,,,,,,,,,,,,,,,,,,,,,,,,,,,,,,,,,,,,,,,,,,,,,,,,,,,,,,,,,,,,,
,,613f9ef9ebef8fb30930aa02,2024-02-21_21h29.04.832,kallum_motion_pilot,2023.2.2,Win32,59.88023952,613f9ef9ebef8fb30930aa02,65d6bb0e977760de756971f7,65d6be61958801b618b98425,0.0969,0.097,1,57,219,65,1,onethree,,,,,,,,,,,,,,,,,,,,,,,,,,,,,,,,,,,,,,,,,,,,,,,,,,,,,,,,,,,,,,,,,,,,,,,,,,,,,,,,,,,,,,,,,,,,,,,,,,,,,,,,,,,,,,,,,,,,,,,,,,,,,,,,,,,,,,,,,
,,613f9ef9ebef8fb30930aa02,2024-02-21_21h29.04.832,kallum_motion_pilot,2023.2.2,Win32,59.88023952,613f9ef9ebef8fb30930aa02,65d6bb0e977760de756971f7,65d6be61958801b618b98425,0.0972,0.0972,1,58,220,122,1,sixfive,,,,,,,,,,,,,,,,,,,,,,,,,,,,,,,,,,,,,,,,,,,,,,,,,,,,,,,,,,,,,,,,,,,,,,,,,,,,,,,,,,,,,,,,,,,,,,,,,,,,,,,,,,,,,,,,,,,,,,,,,,,,,,,,,,,,,,,,,
,,613f9ef9ebef8fb30930aa02,2024-02-21_21h29.04.832,kallum_motion_pilot,2023.2.2,Win32,59.88023952,613f9ef9ebef8fb30930aa02,65d6bb0e977760de756971f7,65d6be61958801b618b98425,0.0974,0.0975,1,59,221,78,1,fourtwo,,,,,,,,,,,,,,,,,,,,,,,,,,,,,,,,,,,,,,,,,,,,,,,,,,,,,,,,,,,,,,,,,,,,,,,,,,,,,,,,,,,,,,,,,,,,,,,,,,,,,,,,,,,,,,,,,,,,,,,,,,,,,,,,,,,,,,,,,
,,613f9ef9ebef8fb30930aa02,2024-02-21_21h29.04.832,kallum_motion_pilot,2023.2.2,Win32,59.88023952,613f9ef9ebef8fb30930aa02,65d6bb0e977760de756971f7,65d6be61958801b618b98425,0.0975,0.0977,1,60,222,22,1,fourtwo,,,,,,,,,,,,,,,,,,,,,,,,,,,,,,,,,,,,,,,,,,,,,,,,,,,,,,,,,,,,,,,,,,,,,,,,,,,,,,,,,,,,,,,,,,,,,,,,,,,,,,,,,,,,,,,,,,,,,,,,,,,,,,,,,,,,,,,,,
,,613f9ef9ebef8fb30930aa02,2024-02-21_21h29.04.832,kallum_motion_pilot,2023.2.2,Win32,59.88023952,613f9ef9ebef8fb30930aa02,65d6bb0e977760de756971f7,65d6be61958801b618b98425,0.0979,0.0979,1,61,223,50,1,twoone,,,,,,,,,,,,,,,,,,,,,,,,,,,,,,,,,,,,,,,,,,,,,,,,,,,,,,,,,,,,,,,,,,,,,,,,,,,,,,,,,,,,,,,,,,,,,,,,,,,,,,,,,,,,,,,,,,,,,,,,,,,,,,,,,,,,,,,,,
,,613f9ef9ebef8fb30930aa02,2024-02-21_21h29.04.832,kallum_motion_pilot,2023.2.2,Win32,59.88023952,613f9ef9ebef8fb30930aa02,65d6bb0e977760de756971f7,65d6be61958801b618b98425,0.0981,0.0982,1,62,224,1,1,onethree,,,,,,,,,,,,,,,,,,,,,,,,,,,,,,,,,,,,,,,,,,,,,,,,,,,,,,,,,,,,,,,,,,,,,,,,,,,,,,,,,,,,,,,,,,,,,,,,,,,,,,,,,,,,,,,,,,,,,,,,,,,,,,,,,,,,,,,,,
,,613f9ef9ebef8fb30930aa02,2024-02-21_21h29.04.832,kallum_motion_pilot,2023.2.2,Win32,59.88023952,613f9ef9ebef8fb30930aa02,65d6bb0e977760de756971f7,65d6be61958801b618b98425,0.0984,0.0985,1,63,225,73,1,onethree,,,,,,,,,,,,,,,,,,,,,,,,,,,,,,,,,,,,,,,,,,,,,,,,,,,,,,,,,,,,,,,,,,,,,,,,,,,,,,,,,,,,,,,,,,,,,,,,,,,,,,,,,,,,,,,,,,,,,,,,,,,,,,,,,,,,,,,,,
,,613f9ef9ebef8fb30930aa02,2024-02-21_21h29.04.832,kallum_motion_pilot,2023.2.2,Win32,59.88023952,613f9ef9ebef8fb30930aa02,65d6bb0e977760de756971f7,65d6be61958801b618b98425,0.0987,0.0988,1,64,226,130,1,sixfive,,,,,,,,,,,,,,,,,,,,,,,,,,,,,,,,,,,,,,,,,,,,,,,,,,,,,,,,,,,,,,,,,,,,,,,,,,,,,,,,,,,,,,,,,,,,,,,,,,,,,,,,,,,,,,,,,,,,,,,,,,,,,,,,,,,,,,,,,
,,613f9ef9ebef8fb30930aa02,2024-02-21_21h29.04.832,kallum_motion_pilot,2023.2.2,Win32,59.88023952,613f9ef9ebef8fb30930aa02,65d6bb0e977760de756971f7,65d6be61958801b618b98425,0.0989,0.099,1,65,227,2,1,twoone,,,,,,,,,,,,,,,,,,,,,,,,,,,,,,,,,,,,,,,,,,,,,,,,,,,,,,,,,,,,,,,,,,,,,,,,,,,,,,,,,,,,,,,,,,,,,,,,,,,,,,,,,,,,,,,,,,,,,,,,,,,,,,,,,,,,,,,,,
,,613f9ef9ebef8fb30930aa02,2024-02-21_21h29.04.832,kallum_motion_pilot,2023.2.2,Win32,59.88023952,613f9ef9ebef8fb30930aa02,65d6bb0e977760de756971f7,65d6be61958801b618b98425,0.0992,0.0992,1,66,228,125,1,seveneight,,,,,,,,,,,,,,,,,,,,,,,,,,,,,,,,,,,,,,,,,,,,,,,,,,,,,,,,,,,,,,,,,,,,,,,,,,,,,,,,,,,,,,,,,,,,,,,,,,,,,,,,,,,,,,,,,,,,,,,,,,,,,,,,,,,,,,,,,
,,613f9ef9ebef8fb30930aa02,2024-02-21_21h29.04.832,kallum_motion_pilot,2023.2.2,Win32,59.88023952,613f9ef9ebef8fb30930aa02,65d6bb0e977760de756971f7,65d6be61958801b618b98425,0.0994,0.0995,1,67,229,59,1,twofour,,,,,,,,,,,,,,,,,,,,,,,,,,,,,,,,,,,,,,,,,,,,,,,,,,,,,,,,,,,,,,,,,,,,,,,,,,,,,,,,,,,,,,,,,,,,,,,,,,,,,,,,,,,,,,,,,,,,,,,,,,,,,,,,,,,,,,,,,
,,613f9ef9ebef8fb30930aa02,2024-02-21_21h29.04.832,kallum_motion_pilot,2023.2.2,Win32,59.88023952,613f9ef9ebef8fb30930aa02,65d6bb0e977760de756971f7,65d6be61958801b618b98425,0.0996,0.0997,1,68,230,49,1,onethree,,,,,,,,,,,,,,,,,,,,,,,,,,,,,,,,,,,,,,,,,,,,,,,,,,,,,,,,,,,,,,,,,,,,,,,,,,,,,,,,,,,,,,,,,,,,,,,,,,,,,,,,,,,,,,,,,,,,,,,,,,,,,,,,,,,,,,,,,
,,613f9ef9ebef8fb30930aa02,2024-02-21_21h29.04.832,kallum_motion_pilot,2023.2.2,Win32,59.88023952,613f9ef9ebef8fb30930aa02,65d6bb0e977760de756971f7,65d6be61958801b618b98425,0.0999,0.1,1,69,231,135,1,eightseven,,,,,,,,,,,,,,,,,,,,,,,,,,,,,,,,,,,,,,,,,,,,,,,,,,,,,,,,,,,,,,,,,,,,,,,,,,,,,,,,,,,,,,,,,,,,,,,,,,,,,,,,,,,,,,,,,,,,,,,,,,,,,,,,,,,,,,,,,
,,613f9ef9ebef8fb30930aa02,2024-02-21_21h29.04.832,kallum_motion_pilot,2023.2.2,Win32,59.88023952,613f9ef9ebef8fb30930aa02,65d6bb0e977760de756971f7,65d6be61958801b618b98425,0.1001,0.1002,1,70,232,0,1,onetwo,,,,,,,,,,,,,,,,,,,,,,,,,,,,,,,,,,,,,,,,,,,,,,,,,,,,,,,,,,,,,,,,,,,,,,,,,,,,,,,,,,,,,,,,,,,,,,,,,,,,,,,,,,,,,,,,,,,,,,,,,,,,,,,,,,,,,,,,,
,,613f9ef9ebef8fb30930aa02,2024-02-21_21h29.04.832,kallum_motion_pilot,2023.2.2,Win32,59.88023952,613f9ef9ebef8fb30930aa02,65d6bb0e977760de756971f7,65d6be61958801b618b98425,0.1003,0.1005,1,71,233,57,1,onethree,,,,,,,,,,,,,,,,,,,,,,,,,,,,,,,,,,,,,,,,,,,,,,,,,,,,,,,,,,,,,,,,,,,,,,,,,,,,,,,,,,,,,,,,,,,,,,,,,,,,,,,,,,,,,,,,,,,,,,,,,,,,,,,,,,,,,,,,,
,,613f9ef9ebef8fb30930aa02,2024-02-21_21h29.04.832,kallum_motion_pilot,2023.2.2,Win32,59.88023952,613f9ef9ebef8fb30930aa02,65d6bb0e977760de756971f7,65d6be61958801b618b98425,0.1005,0.1007,1,72,234,112,1,fivesix,,,,,,,,,,,,,,,,,,,,,,,,,,,,,,,,,,,,,,,,,,,,,,,,,,,,,,,,,,,,,,,,,,,,,,,,,,,,,,,,,,,,,,,,,,,,,,,,,,,,,,,,,,,,,,,,,,,,,,,,,,,,,,,,,,,,,,,,,
,,613f9ef9ebef8fb30930aa02,2024-02-21_21h29.04.832,kallum_motion_pilot,2023.2.2,Win32,59.88023952,613f9ef9ebef8fb30930aa02,65d6bb0e977760de756971f7,65d6be61958801b618b98425,0.1008,0.1008,1,73,235,111,1,eightseven,,,,,,,,,,,,,,,,,,,,,,,,,,,,,,,,,,,,,,,,,,,,,,,,,,,,,,,,,,,,,,,,,,,,,,,,,,,,,,,,,,,,,,,,,,,,,,,,,,,,,,,,,,,,,,,,,,,,,,,,,,,,,,,,,,,,,,,,,
,,613f9ef9ebef8fb30930aa02,2024-02-21_21h29.04.832,kallum_motion_pilot,2023.2.2,Win32,59.88023952,613f9ef9ebef8fb30930aa02,65d6bb0e977760de756971f7,65d6be61958801b618b98425,0.101,0.1011,1,74,236,84,1,sevenfive,,,,,,,,,,,,,,,,,,,,,,,,,,,,,,,,,,,,,,,,,,,,,,,,,,,,,,,,,,,,,,,,,,,,,,,,,,,,,,,,,,,,,,,,,,,,,,,,,,,,,,,,,,,,,,,,,,,,,,,,,,,,,,,,,,,,,,,,,
,,613f9ef9ebef8fb30930aa02,2024-02-21_21h29.04.832,kallum_motion_pilot,2023.2.2,Win32,59.88023952,613f9ef9ebef8fb30930aa02,65d6bb0e977760de756971f7,65d6be61958801b618b98425,0.1012,0.1014,1,75,237,102,1,eightsix,,,,,,,,,,,,,,,,,,,,,,,,,,,,,,,,,,,,,,,,,,,,,,,,,,,,,,,,,,,,,,,,,,,,,,,,,,,,,,,,,,,,,,,,,,,,,,,,,,,,,,,,,,,,,,,,,,,,,,,,,,,,,,,,,,,,,,,,,
,,613f9ef9ebef8fb30930aa02,2024-02-21_21h29.04.832,kallum_motion_pilot,2023.2.2,Win32,59.88023952,613f9ef9ebef8fb30930aa02,65d6bb0e977760de756971f7,65d6be61958801b618b98425,0.1014,0.1016,1,76,238,113,1,fiveseven,,,,,,,,,,,,,,,,,,,,,,,,,,,,,,,,,,,,,,,,,,,,,,,,,,,,,,,,,,,,,,,,,,,,,,,,,,,,,,,,,,,,,,,,,,,,,,,,,,,,,,,,,,,,,,,,,,,,,,,,,,,,,,,,,,,,,,,,,
,,613f9ef9ebef8fb30930aa02,2024-02-21_21h29.04.832,kallum_motion_pilot,2023.2.2,Win32,59.88023952,613f9ef9ebef8fb30930aa02,65d6bb0e977760de756971f7,65d6be61958801b618b98425,0.1017,0.1018,1,77,239,24,1,onetwo,,,,,,,,,,,,,,,,,,,,,,,,,,,,,,,,,,,,,,,,,,,,,,,,,,,,,,,,,,,,,,,,,,,,,,,,,,,,,,,,,,,,,,,,,,,,,,,,,,,,,,,,,,,,,,,,,,,,,,,,,,,,,,,,,,,,,,,,,
,,613f9ef9ebef8fb30930aa02,2024-02-21_21h29.04.832,kallum_motion_pilot,2023.2.2,Win32,59.88023952,613f9ef9ebef8fb30930aa02,65d6bb0e977760de756971f7,65d6be61958801b618b98425,0.1036,0.1039,1,78,240,90,1,sixfive,,,,,,,,,,,,,,,,,,,,,,,,,,,,,,,,,,,,,,,,,,,,,,,,,,,,,,,,,,,,,,,,,,,,,,,,,,,,,,,,,,,,,,,,,,,,,,,,,,,,,,,,,,,,,,,,,,,,,,,,,,,,,,,,,,,,,,,,,
,,613f9ef9ebef8fb30930aa02,2024-02-21_21h29.04.832,kallum_motion_pilot,2023.2.2,Win32,59.88023952,613f9ef9ebef8fb30930aa02,65d6bb0e977760de756971f7,65d6be61958801b618b98425,0.1044,0.1047,1,79,241,134,1,eightsix,,,,,,,,,,,,,,,,,,,,,,,,,,,,,,,,,,,,,,,,,,,,,,,,,,,,,,,,,,,,,,,,,,,,,,,,,,,,,,,,,,,,,,,,,,,,,,,,,,,,,,,,,,,,,,,,,,,,,,,,,,,,,,,,,,,,,,,,,
,,613f9ef9ebef8fb30930aa02,2024-02-21_21h29.04.832,kallum_motion_pilot,2023.2.2,Win32,59.88023952,613f9ef9ebef8fb30930aa02,65d6bb0e977760de756971f7,65d6be61958801b618b98425,0.1051,0.1053,1,80,242,123,1,sixeight,,,,,,,,,,,,,,,,,,,,,,,,,,,,,,,,,,,,,,,,,,,,,,,,,,,,,,,,,,,,,,,,,,,,,,,,,,,,,,,,,,,,,,,,,,,,,,,,,,,,,,,,,,,,,,,,,,,,,,,,,,,,,,,,,,,,,,,,,
,,613f9ef9ebef8fb30930aa02,2024-02-21_21h29.04.832,kallum_motion_pilot,2023.2.2,Win32,59.88023952,613f9ef9ebef8fb30930aa02,65d6bb0e977760de756971f7,65d6be61958801b618b98425,0.1054,0.1055,1,81,243,31,1,fourthree,,,,,,,,,,,,,,,,,,,,,,,,,,,,,,,,,,,,,,,,,,,,,,,,,,,,,,,,,,,,,,,,,,,,,,,,,,,,,,,,,,,,,,,,,,,,,,,,,,,,,,,,,,,,,,,,,,,,,,,,,,,,,,,,,,,,,,,,,
,,613f9ef9ebef8fb30930aa02,2024-02-21_21h29.04.832,kallum_motion_pilot,2023.2.2,Win32,59.88023952,613f9ef9ebef8fb30930aa02,65d6bb0e977760de756971f7,65d6be61958801b618b98425,0.1056,0.1057,1,82,244,100,1,sevenfive,,,,,,,,,,,,,,,,,,,,,,,,,,,,,,,,,,,,,,,,,,,,,,,,,,,,,,,,,,,,,,,,,,,,,,,,,,,,,,,,,,,,,,,,,,,,,,,,,,,,,,,,,,,,,,,,,,,,,,,,,,,,,,,,,,,,,,,,,
,,613f9ef9ebef8fb30930aa02,2024-02-21_21h29.04.832,kallum_motion_pilot,2023.2.2,Win32,59.88023952,613f9ef9ebef8fb30930aa02,65d6bb0e977760de756971f7,65d6be61958801b618b98425,0.1058,0.106,1,83,245,150,1,eightsix,,,,,,,,,,,,,,,,,,,,,,,,,,,,,,,,,,,,,,,,,,,,,,,,,,,,,,,,,,,,,,,,,,,,,,,,,,,,,,,,,,,,,,,,,,,,,,,,,,,,,,,,,,,,,,,,,,,,,,,,,,,,,,,,,,,,,,,,,
,,613f9ef9ebef8fb30930aa02,2024-02-21_21h29.04.832,kallum_motion_pilot,2023.2.2,Win32,59.88023952,613f9ef9ebef8fb30930aa02,65d6bb0e977760de756971f7,65d6be61958801b618b98425,0.1061,0.1061,1,84,246,28,1,threeone,,,,,,,,,,,,,,,,,,,,,,,,,,,,,,,,,,,,,,,,,,,,,,,,,,,,,,,,,,,,,,,,,,,,,,,,,,,,,,,,,,,,,,,,,,,,,,,,,,,,,,,,,,,,,,,,,,,,,,,,,,,,,,,,,,,,,,,,,
,,613f9ef9ebef8fb30930aa02,2024-02-21_21h29.04.832,kallum_motion_pilot,2023.2.2,Win32,59.88023952,613f9ef9ebef8fb30930aa02,65d6bb0e977760de756971f7,65d6be61958801b618b98425,0.1063,0.1063,1,85,247,20,1,threeone,,,,,,,,,,,,,,,,,,,,,,,,,,,,,,,,,,,,,,,,,,,,,,,,,,,,,,,,,,,,,,,,,,,,,,,,,,,,,,,,,,,,,,,,,,,,,,,,,,,,,,,,,,,,,,,,,,,,,,,,,,,,,,,,,,,,,,,,,
,,613f9ef9ebef8fb30930aa02,2024-02-21_21h29.04.832,kallum_motion_pilot,2023.2.2,Win32,59.88023952,613f9ef9ebef8fb30930aa02,65d6bb0e977760de756971f7,65d6be61958801b618b98425,0.1065,0.1066,1,86,248,132,1,sevenfive,,,,,,,,,,,,,,,,,,,,,,,,,,,,,,,,,,,,,,,,,,,,,,,,,,,,,,,,,,,,,,,,,,,,,,,,,,,,,,,,,,,,,,,,,,,,,,,,,,,,,,,,,,,,,,,,,,,,,,,,,,,,,,,,,,,,,,,,,
,,613f9ef9ebef8fb30930aa02,2024-02-21_21h29.04.832,kallum_motion_pilot,2023.2.2,Win32,59.88023952,613f9ef9ebef8fb30930aa02,65d6bb0e977760de756971f7,65d6be61958801b618b98425,0.1068,0.1068,1,87,249,11,1,twofour,,,,,,,,,,,,,,,,,,,,,,,,,,,,,,,,,,,,,,,,,,,,,,,,,,,,,,,,,,,,,,,,,,,,,,,,,,,,,,,,,,,,,,,,,,,,,,,,,,,,,,,,,,,,,,,,,,,,,,,,,,,,,,,,,,,,,,,,,
,,613f9ef9ebef8fb30930aa02,2024-02-21_21h29.04.832,kallum_motion_pilot,2023.2.2,Win32,59.88023952,613f9ef9ebef8fb30930aa02,65d6bb0e977760de756971f7,65d6be61958801b618b98425,0.1069,0.1071,1,88,250,154,1,sixfive,,,,,,,,,,,,,,,,,,,,,,,,,,,,,,,,,,,,,,,,,,,,,,,,,,,,,,,,,,,,,,,,,,,,,,,,,,,,,,,,,,,,,,,,,,,,,,,,,,,,,,,,,,,,,,,,,,,,,,,,,,,,,,,,,,,,,,,,,
,,613f9ef9ebef8fb30930aa02,2024-02-21_21h29.04.832,kallum_motion_pilot,2023.2.2,Win32,59.88023952,613f9ef9ebef8fb30930aa02,65d6bb0e977760de756971f7,65d6be61958801b618b98425,0.1071,0.1073,1,89,251,51,1,twofour,,,,,,,,,,,,,,,,,,,,,,,,,,,,,,,,,,,,,,,,,,,,,,,,,,,,,,,,,,,,,,,,,,,,,,,,,,,,,,,,,,,,,,,,,,,,,,,,,,,,,,,,,,,,,,,,,,,,,,,,,,,,,,,,,,,,,,,,,
,,613f9ef9ebef8fb30930aa02,2024-02-21_21h29.04.832,kallum_motion_pilot,2023.2.2,Win32,59.88023952,613f9ef9ebef8fb30930aa02,65d6bb0e977760de756971f7,65d6be61958801b618b98425,0.1074,0.1075,1,90,252,116,1,sevenfive,,,,,,,,,,,,,,,,,,,,,,,,,,,,,,,,,,,,,,,,,,,,,,,,,,,,,,,,,,,,,,,,,,,,,,,,,,,,,,,,,,,,,,,,,,,,,,,,,,,,,,,,,,,,,,,,,,,,,,,,,,,,,,,,,,,,,,,,,
,,613f9ef9ebef8fb30930aa02,2024-02-21_21h29.04.832,kallum_motion_pilot,2023.2.2,Win32,59.88023952,613f9ef9ebef8fb30930aa02,65d6bb0e977760de756971f7,65d6be61958801b618b98425,0.1076,0.1077,1,91,253,23,1,fourthree,,,,,,,,,,,,,,,,,,,,,,,,,,,,,,,,,,,,,,,,,,,,,,,,,,,,,,,,,,,,,,,,,,,,,,,,,,,,,,,,,,,,,,,,,,,,,,,,,,,,,,,,,,,,,,,,,,,,,,,,,,,,,,,,,,,,,,,,,
,,613f9ef9ebef8fb30930aa02,2024-02-21_21h29.04.832,kallum_motion_pilot,2023.2.2,Win32,59.88023952,613f9ef9ebef8fb30930aa02,65d6bb0e977760de756971f7,65d6be61958801b618b98425,0.1078,0.1079,1,92,254,12,1,threeone,,,,,,,,,,,,,,,,,,,,,,,,,,,,,,,,,,,,,,,,,,,,,,,,,,,,,,,,,,,,,,,,,,,,,,,,,,,,,,,,,,,,,,,,,,,,,,,,,,,,,,,,,,,,,,,,,,,,,,,,,,,,,,,,,,,,,,,,,
,,613f9ef9ebef8fb30930aa02,2024-02-21_21h29.04.832,kallum_motion_pilot,2023.2.2,Win32,59.88023952,613f9ef9ebef8fb30930aa02,65d6bb0e977760de756971f7,65d6be61958801b618b98425,0.1082,0.1084,1,93,255,106,1,sixfive,,,,,,,,,,,,,,,,,,,,,,,,,,,,,,,,,,,,,,,,,,,,,,,,,,,,,,,,,,,,,,,,,,,,,,,,,,,,,,,,,,,,,,,,,,,,,,,,,,,,,,,,,,,,,,,,,,,,,,,,,,,,,,,,,,,,,,,,,
,,613f9ef9ebef8fb30930aa02,2024-02-21_21h29.04.832,kallum_motion_pilot,2023.2.2,Win32,59.88023952,613f9ef9ebef8fb30930aa02,65d6bb0e977760de756971f7,65d6be61958801b618b98425,0.1085,0.1088,1,94,256,153,1,fiveseven,,,,,,,,,,,,,,,,,,,,,,,,,,,,,,,,,,,,,,,,,,,,,,,,,,,,,,,,,,,,,,,,,,,,,,,,,,,,,,,,,,,,,,,,,,,,,,,,,,,,,,,,,,,,,,,,,,,,,,,,,,,,,,,,,,,,,,,,,
,,613f9ef9ebef8fb30930aa02,2024-02-21_21h29.04.832,kallum_motion_pilot,2023.2.2,Win32,59.88023952,613f9ef9ebef8fb30930aa02,65d6bb0e977760de756971f7,65d6be61958801b618b98425,0.1089,0.1091,1,95,257,137,1,fiveseven,,,,,,,,,,,,,,,,,,,,,,,,,,,,,,,,,,,,,,,,,,,,,,,,,,,,,,,,,,,,,,,,,,,,,,,,,,,,,,,,,,,,,,,,,,,,,,,,,,,,,,,,,,,,,,,,,,,,,,,,,,,,,,,,,,,,,,,,,
,,613f9ef9ebef8fb30930aa02,2024-02-21_21h29.04.832,kallum_motion_pilot,2023.2.2,Win32,59.88023952,613f9ef9ebef8fb30930aa02,65d6bb0e977760de756971f7,65d6be61958801b618b98425,0.1092,0.1093,1,96,258,91,1,sixeight,,,,,,,,,,,,,,,,,,,,,,,,,,,,,,,,,,,,,,,,,,,,,,,,,,,,,,,,,,,,,,,,,,,,,,,,,,,,,,,,,,,,,,,,,,,,,,,,,,,,,,,,,,,,,,,,,,,,,,,,,,,,,,,,,,,,,,,,,
,,613f9ef9ebef8fb30930aa02,2024-02-21_21h29.04.832,kallum_motion_pilot,2023.2.2,Win32,59.88023952,613f9ef9ebef8fb30930aa02,65d6bb0e977760de756971f7,65d6be61958801b618b98425,0.1094,0.1096,1,97,259,25,1,onethree,,,,,,,,,,,,,,,,,,,,,,,,,,,,,,,,,,,,,,,,,,,,,,,,,,,,,,,,,,,,,,,,,,,,,,,,,,,,,,,,,,,,,,,,,,,,,,,,,,,,,,,,,,,,,,,,,,,,,,,,,,,,,,,,,,,,,,,,,
,,613f9ef9ebef8fb30930aa02,2024-02-21_21h29.04.832,kallum_motion_pilot,2023.2.2,Win32,59.88023952,613f9ef9ebef8fb30930aa02,65d6bb0e977760de756971f7,65d6be61958801b618b98425,0.1096,0.1098,1,98,260,69,1,threefour,,,,,,,,,,,,,,,,,,,,,,,,,,,,,,,,,,,,,,,,,,,,,,,,,,,,,,,,,,,,,,,,,,,,,,,,,,,,,,,,,,,,,,,,,,,,,,,,,,,,,,,,,,,,,,,,,,,,,,,,,,,,,,,,,,,,,,,,,
,,613f9ef9ebef8fb30930aa02,2024-02-21_21h29.04.832,kallum_motion_pilot,2023.2.2,Win32,59.88023952,613f9ef9ebef8fb30930aa02,65d6bb0e977760de756971f7,65d6be61958801b618b98425,0.1099,0.11,1,99,261,93,1,seveneight,,,,,,,,,,,,,,,,,,,,,,,,,,,,,,,,,,,,,,,,,,,,,,,,,,,,,,,,,,,,,,,,,,,,,,,,,,,,,,,,,,,,,,,,,,,,,,,,,,,,,,,,,,,,,,,,,,,,,,,,,,,,,,,,,,,,,,,,,
,,613f9ef9ebef8fb30930aa02,2024-02-21_21h29.04.832,kallum_motion_pilot,2023.2.2,Win32,59.88023952,613f9ef9ebef8fb30930aa02,65d6bb0e977760de756971f7,65d6be61958801b618b98425,0.1101,0.1102,1,100,262,46,1,fourtwo,,,,,,,,,,,,,,,,,,,,,,,,,,,,,,,,,,,,,,,,,,,,,,,,,,,,,,,,,,,,,,,,,,,,,,,,,,,,,,,,,,,,,,,,,,,,,,,,,,,,,,,,,,,,,,,,,,,,,,,,,,,,,,,,,,,,,,,,,
,,613f9ef9ebef8fb30930aa02,2024-02-21_21h29.04.832,kallum_motion_pilot,2023.2.2,Win32,59.88023952,613f9ef9ebef8fb30930aa02,65d6bb0e977760de756971f7,65d6be61958801b618b98425,0.1104,0.1105,1,101,263,62,1,fourtwo,,,,,,,,,,,,,,,,,,,,,,,,,,,,,,,,,,,,,,,,,,,,,,,,,,,,,,,,,,,,,,,,,,,,,,,,,,,,,,,,,,,,,,,,,,,,,,,,,,,,,,,,,,,,,,,,,,,,,,,,,,,,,,,,,,,,,,,,,
,,613f9ef9ebef8fb30930aa02,2024-02-21_21h29.04.832,kallum_motion_pilot,2023.2.2,Win32,59.88023952,613f9ef9ebef8fb30930aa02,65d6bb0e977760de756971f7,65d6be61958801b618b98425,0.1107,0.1108,1,102,264,10,1,twoone,,,,,,,,,,,,,,,,,,,,,,,,,,,,,,,,,,,,,,,,,,,,,,,,,,,,,,,,,,,,,,,,,,,,,,,,,,,,,,,,,,,,,,,,,,,,,,,,,,,,,,,,,,,,,,,,,,,,,,,,,,,,,,,,,,,,,,,,,
,,613f9ef9ebef8fb30930aa02,2024-02-21_21h29.04.832,kallum_motion_pilot,2023.2.2,Win32,59.88023952,613f9ef9ebef8fb30930aa02,65d6bb0e977760de756971f7,65d6be61958801b618b98425,0.1109,0.1111,1,103,265,98,1,sixfive,,,,,,,,,,,,,,,,,,,,,,,,,,,,,,,,,,,,,,,,,,,,,,,,,,,,,,,,,,,,,,,,,,,,,,,,,,,,,,,,,,,,,,,,,,,,,,,,,,,,,,,,,,,,,,,,,,,,,,,,,,,,,,,,,,,,,,,,,
,,613f9ef9ebef8fb30930aa02,2024-02-21_21h29.04.832,kallum_motion_pilot,2023.2.2,Win32,59.88023952,613f9ef9ebef8fb30930aa02,65d6bb0e977760de756971f7,65d6be61958801b618b98425,0.1112,0.1114,1,104,266,38,1,fourtwo,,,,,,,,,,,,,,,,,,,,,,,,,,,,,,,,,,,,,,,,,,,,,,,,,,,,,,,,,,,,,,,,,,,,,,,,,,,,,,,,,,,,,,,,,,,,,,,,,,,,,,,,,,,,,,,,,,,,,,,,,,,,,,,,,,,,,,,,,
,,613f9ef9ebef8fb30930aa02,2024-02-21_21h29.04.832,kallum_motion_pilot,2023.2.2,Win32,59.88023952,613f9ef9ebef8fb30930aa02,65d6bb0e977760de756971f7,65d6be61958801b618b98425,0.1117,0.1119,1,105,267,107,1,sixeight,,,,,,,,,,,,,,,,,,,,,,,,,,,,,,,,,,,,,,,,,,,,,,,,,,,,,,,,,,,,,,,,,,,,,,,,,,,,,,,,,,,,,,,,,,,,,,,,,,,,,,,,,,,,,,,,,,,,,,,,,,,,,,,,,,,,,,,,,
,,613f9ef9ebef8fb30930aa02,2024-02-21_21h29.04.832,kallum_motion_pilot,2023.2.2,Win32,59.88023952,613f9ef9ebef8fb30930aa02,65d6bb0e977760de756971f7,65d6be61958801b618b98425,0.112,0.1121,1,106,268,52,1,threeone,,,,,,,,,,,,,,,,,,,,,,,,,,,,,,,,,,,,,,,,,,,,,,,,,,,,,,,,,,,,,,,,,,,,,,,,,,,,,,,,,,,,,,,,,,,,,,,,,,,,,,,,,,,,,,,,,,,,,,,,,,,,,,,,,,,,,,,,,
,,613f9ef9ebef8fb30930aa02,2024-02-21_21h29.04.832,kallum_motion_pilot,2023.2.2,Win32,59.88023952,613f9ef9ebef8fb30930aa02,65d6bb0e977760de756971f7,65d6be61958801b618b98425,0.1122,0.1123,1,107,269,18,1,twoone,,,,,,,,,,,,,,,,,,,,,,,,,,,,,,,,,,,,,,,,,,,,,,,,,,,,,,,,,,,,,,,,,,,,,,,,,,,,,,,,,,,,,,,,,,,,,,,,,,,,,,,,,,,,,,,,,,,,,,,,,,,,,,,,,,,,,,,,,
,,613f9ef9ebef8fb30930aa02,2024-02-21_21h29.04.832,kallum_motion_pilot,2023.2.2,Win32,59.88023952,613f9ef9ebef8fb30930aa02,65d6bb0e977760de756971f7,65d6be61958801b618b98425,0.1125,0.1126,1,108,270,32,1,onetwo,,,,,,,,,,,,,,,,,,,,,,,,,,,,,,,,,,,,,,,,,,,,,,,,,,,,,,,,,,,,,,,,,,,,,,,,,,,,,,,,,,,,,,,,,,,,,,,,,,,,,,,,,,,,,,,,,,,,,,,,,,,,,,,,,,,,,,,,,
,,613f9ef9ebef8fb30930aa02,2024-02-21_21h29.04.832,kallum_motion_pilot,2023.2.2,Win32,59.88023952,613f9ef9ebef8fb30930aa02,65d6bb0e977760de756971f7,65d6be61958801b618b98425,0.1127,0.1128,1,109,271,157,1,seveneight,,,,,,,,,,,,,,,,,,,,,,,,,,,,,,,,,,,,,,,,,,,,,,,,,,,,,,,,,,,,,,,,,,,,,,,,,,,,,,,,,,,,,,,,,,,,,,,,,,,,,,,,,,,,,,,,,,,,,,,,,,,,,,,,,,,,,,,,,
,,613f9ef9ebef8fb30930aa02,2024-02-21_21h29.04.832,kallum_motion_pilot,2023.2.2,Win32,59.88023952,613f9ef9ebef8fb30930aa02,65d6bb0e977760de756971f7,65d6be61958801b618b98425,0.1129,0.113,1,110,272,99,1,sixeight,,,,,,,,,,,,,,,,,,,,,,,,,,,,,,,,,,,,,,,,,,,,,,,,,,,,,,,,,,,,,,,,,,,,,,,,,,,,,,,,,,,,,,,,,,,,,,,,,,,,,,,,,,,,,,,,,,,,,,,,,,,,,,,,,,,,,,,,,
,,613f9ef9ebef8fb30930aa02,2024-02-21_21h29.04.832,kallum_motion_pilot,2023.2.2,Win32,59.88023952,613f9ef9ebef8fb30930aa02,65d6bb0e977760de756971f7,65d6be61958801b618b98425,0.1132,0.1133,1,111,273,79,1,eightseven,,,,,,,,,,,,,,,,,,,,,,,,,,,,,,,,,,,,,,,,,,,,,,,,,,,,,,,,,,,,,,,,,,,,,,,,,,,,,,,,,,,,,,,,,,,,,,,,,,,,,,,,,,,,,,,,,,,,,,,,,,,,,,,,,,,,,,,,,
,,613f9ef9ebef8fb30930aa02,2024-02-21_21h29.04.832,kallum_motion_pilot,2023.2.2,Win32,59.88023952,613f9ef9ebef8fb30930aa02,65d6bb0e977760de756971f7,65d6be61958801b618b98425,0.1134,0.1135,1,112,274,66,1,twoone,,,,,,,,,,,,,,,,,,,,,,,,,,,,,,,,,,,,,,,,,,,,,,,,,,,,,,,,,,,,,,,,,,,,,,,,,,,,,,,,,,,,,,,,,,,,,,,,,,,,,,,,,,,,,,,,,,,,,,,,,,,,,,,,,,,,,,,,,
,,613f9ef9ebef8fb30930aa02,2024-02-21_21h29.04.832,kallum_motion_pilot,2023.2.2,Win32,59.88023952,613f9ef9ebef8fb30930aa02,65d6bb0e977760de756971f7,65d6be61958801b618b98425,0.1136,0.1138,1,113,275,26,1,twoone,,,,,,,,,,,,,,,,,,,,,,,,,,,,,,,,,,,,,,,,,,,,,,,,,,,,,,,,,,,,,,,,,,,,,,,,,,,,,,,,,,,,,,,,,,,,,,,,,,,,,,,,,,,,,,,,,,,,,,,,,,,,,,,,,,,,,,,,,
,,613f9ef9ebef8fb30930aa02,2024-02-21_21h29.04.832,kallum_motion_pilot,2023.2.2,Win32,59.88023952,613f9ef9ebef8fb30930aa02,65d6bb0e977760de756971f7,65d6be61958801b618b98425,0.1139,0.1139,1,114,276,160,1,fivesix,,,,,,,,,,,,,,,,,,,,,,,,,,,,,,,,,,,,,,,,,,,,,,,,,,,,,,,,,,,,,,,,,,,,,,,,,,,,,,,,,,,,,,,,,,,,,,,,,,,,,,,,,,,,,,,,,,,,,,,,,,,,,,,,,,,,,,,,,
,,613f9ef9ebef8fb30930aa02,2024-02-21_21h29.04.832,kallum_motion_pilot,2023.2.2,Win32,59.88023952,613f9ef9ebef8fb30930aa02,65d6bb0e977760de756971f7,65d6be61958801b618b98425,0.1141,0.1142,1,115,277,142,1,eightsix,,,,,,,,,,,,,,,,,,,,,,,,,,,,,,,,,,,,,,,,,,,,,,,,,,,,,,,,,,,,,,,,,,,,,,,,,,,,,,,,,,,,,,,,,,,,,,,,,,,,,,,,,,,,,,,,,,,,,,,,,,,,,,,,,,,,,,,,,
