startup.started,startup.stopped,Prolific ID*,date,expName,psychopyVersion,OS,frameRate,participant,study_id,session,stimpositions.started,stimpositions.stopped,hardcoded_stimulus_positions.thisRepN,hardcoded_stimulus_positions.thisTrialN,hardcoded_stimulus_positions.thisN,hardcoded_stimulus_positions.thisIndex,hardcoded_stimulus_positions.ran,StimulusPos,stimorientation.started,stimorientation.stopped,prac_stimorientation_import_loop.thisRepN,prac_stimorientation_import_loop.thisTrialN,prac_stimorientation_import_loop.thisN,prac_stimorientation_import_loop.thisIndex,prac_stimorientation_import_loop.ran,Stimorientation,welcome_instr.started,welcome_instr.stopped,key_resp.keys,key_resp.rt,key_resp.duration,response_steppedout_1.started,response_steppedout_1.stopped,key_resp_20.keys,key_resp_20.rt,key_resp_20.duration,response_steppedout_2.started,response_steppedout_2.stopped,key_resp_19.keys,key_resp_19.rt,key_resp_19.duration,stim_response_instr.started,stim_response_instr.stopped,key_resp_15.keys,key_resp_15.rt,key_resp_15.duration,direction_instr_2.started,direction_instr_2.stopped,key_resp_9.keys,key_resp_9.rt,key_resp_9.duration,instr_prac.started,instr_prac.stopped,key_resp_10.keys,key_resp_10.rt,key_resp_10.duration,Stim1_display_prac.started,Stim1_display_prac.stopped,Ecc,Circle1_ori,Circle2_ori,response_prac.started,similarity,response_time,response_prac.stopped,mouse_5.x,mouse_5.y,mouse_5.leftButton,mouse_5.midButton,mouse_5.rightButton,mouse_5.clicked_name,responseprac_feedback.started,responseprac_feedback.stopped,summary2_prac.started,summary2_prac.stopped,mouse_6.x,mouse_6.y,mouse_6.leftButton,mouse_6.midButton,mouse_6.rightButton,mouse_6.clicked_name,duringprac.thisRepN,duringprac.thisTrialN,duringprac.thisN,duringprac.thisIndex,duringprac.ran,begin.started,begin.stopped,key_resp_22.keys,key_resp_22.rt,key_resp_22.duration,Stim1_display.started,Stim1_display.stopped,circle1_ori,circle2_ori,circle1_SF,circle2_SF,response.started,response.stopped,mouse.x,mouse.y,mouse.leftButton,mouse.midButton,mouse.rightButton,mouse.clicked_name,trialnumber,double_pass.thisRepN,double_pass.thisTrialN,double_pass.thisN,double_pass.thisIndex,double_pass.ran,double_pass.order,main_trial.thisRepN,main_trial.thisTrialN,main_trial.thisN,main_trial.thisIndex,main_trial.ran,main_trial.order,Trial_Counter,Catch,Frequencies,response_2.started,response_2.stopped,mouse_2.x,mouse_2.y,mouse_2.leftButton,mouse_2.midButton,mouse_2.rightButton,mouse_2.clicked_name,special_trial.started,special_trial.stopped,catch_1.started,catch_1.stopped,mouse_3.x,mouse_3.y,mouse_3.leftButton,mouse_3.midButton,mouse_3.rightButton,catchresponse,catchnumber,response_time_catch,response_sum.started,response_sum.stopped,mouse_11.x,mouse_11.y,mouse_11.leftButton,mouse_11.midButton,mouse_11.rightButton,flip_presentation_sequence_for_double_pass.started,flip_presentation_sequence_for_double_pass.stopped,goodbye.started,goodbye.stopped,key_resp_3.keys,key_resp_3.rt,key_resp_3.duration
0.0006,0.0007,6140ef8d27499e70e8740918,2024-02-22_03h25.30.142,kallum_motion_pilot,2023.2.2,Win32,12.69035533,6140ef8d27499e70e8740918,65d6bb0e977760de756971f7,65d6be9256de2f00fa72f92c,,,,,,,,,,,,,,,,,,,,,,,,,,,,,,,,,,,,,,,,,,,,,,,,,,,,,,,,,,,,,,,,,,,,,,,,,,,,,,,,,,,,,,,,,,,,,,,,,,,,,,,,,,,,,,,,,,,,,,,,,,,,,,,,,,,,,,,,,,,,,,,,,
,,6140ef8d27499e70e8740918,2024-02-22_03h25.30.142,kallum_motion_pilot,2023.2.2,Win32,12.69035533,6140ef8d27499e70e8740918,65d6bb0e977760de756971f7,65d6be9256de2f00fa72f92c,0.0233,0.0234,0,0,0,8,1,onetwo,,,,,,,,,,,,,,,,,,,,,,,,,,,,,,,,,,,,,,,,,,,,,,,,,,,,,,,,,,,,,,,,,,,,,,,,,,,,,,,,,,,,,,,,,,,,,,,,,,,,,,,,,,,,,,,,,,,,,,,,,,,,,,,,,,,,,,,,,
,,6140ef8d27499e70e8740918,2024-02-22_03h25.30.142,kallum_motion_pilot,2023.2.2,Win32,12.69035533,6140ef8d27499e70e8740918,65d6bb0e977760de756971f7,65d6be9256de2f00fa72f92c,0.0237,0.0237,0,1,1,140,1,sevenfive,,,,,,,,,,,,,,,,,,,,,,,,,,,,,,,,,,,,,,,,,,,,,,,,,,,,,,,,,,,,,,,,,,,,,,,,,,,,,,,,,,,,,,,,,,,,,,,,,,,,,,,,,,,,,,,,,,,,,,,,,,,,,,,,,,,,,,,,,
,,6140ef8d27499e70e8740918,2024-02-22_03h25.30.142,kallum_motion_pilot,2023.2.2,Win32,12.69035533,6140ef8d27499e70e8740918,65d6bb0e977760de756971f7,65d6be9256de2f00fa72f92c,0.0238,0.0238,0,2,2,123,1,sixeight,,,,,,,,,,,,,,,,,,,,,,,,,,,,,,,,,,,,,,,,,,,,,,,,,,,,,,,,,,,,,,,,,,,,,,,,,,,,,,,,,,,,,,,,,,,,,,,,,,,,,,,,,,,,,,,,,,,,,,,,,,,,,,,,,,,,,,,,,
,,6140ef8d27499e70e8740918,2024-02-22_03h25.30.142,kallum_motion_pilot,2023.2.2,Win32,12.69035533,6140ef8d27499e70e8740918,65d6bb0e977760de756971f7,65d6be9256de2f00fa72f92c,0.0239,0.0239,0,3,3,74,1,twoone,,,,,,,,,,,,,,,,,,,,,,,,,,,,,,,,,,,,,,,,,,,,,,,,,,,,,,,,,,,,,,,,,,,,,,,,,,,,,,,,,,,,,,,,,,,,,,,,,,,,,,,,,,,,,,,,,,,,,,,,,,,,,,,,,,,,,,,,,
,,6140ef8d27499e70e8740918,2024-02-22_03h25.30.142,kallum_motion_pilot,2023.2.2,Win32,12.69035533,6140ef8d27499e70e8740918,65d6bb0e977760de756971f7,65d6be9256de2f00fa72f92c,0.0241,0.0241,0,4,4,152,1,fivesix,,,,,,,,,,,,,,,,,,,,,,,,,,,,,,,,,,,,,,,,,,,,,,,,,,,,,,,,,,,,,,,,,,,,,,,,,,,,,,,,,,,,,,,,,,,,,,,,,,,,,,,,,,,,,,,,,,,,,,,,,,,,,,,,,,,,,,,,,
,,6140ef8d27499e70e8740918,2024-02-22_03h25.30.142,kallum_motion_pilot,2023.2.2,Win32,12.69035533,6140ef8d27499e70e8740918,65d6bb0e977760de756971f7,65d6be9256de2f00fa72f92c,0.0243,0.0244,0,5,5,39,1,fourthree,,,,,,,,,,,,,,,,,,,,,,,,,,,,,,,,,,,,,,,,,,,,,,,,,,,,,,,,,,,,,,,,,,,,,,,,,,,,,,,,,,,,,,,,,,,,,,,,,,,,,,,,,,,,,,,,,,,,,,,,,,,,,,,,,,,,,,,,,
,,6140ef8d27499e70e8740918,2024-02-22_03h25.30.142,kallum_motion_pilot,2023.2.2,Win32,12.69035533,6140ef8d27499e70e8740918,65d6bb0e977760de756971f7,65d6be9256de2f00fa72f92c,0.0245,0.0245,0,6,6,94,1,eightsix,,,,,,,,,,,,,,,,,,,,,,,,,,,,,,,,,,,,,,,,,,,,,,,,,,,,,,,,,,,,,,,,,,,,,,,,,,,,,,,,,,,,,,,,,,,,,,,,,,,,,,,,,,,,,,,,,,,,,,,,,,,,,,,,,,,,,,,,,
,,6140ef8d27499e70e8740918,2024-02-22_03h25.30.142,kallum_motion_pilot,2023.2.2,Win32,12.69035533,6140ef8d27499e70e8740918,65d6bb0e977760de756971f7,65d6be9256de2f00fa72f92c,0.0246,0.0247,0,7,7,57,1,onethree,,,,,,,,,,,,,,,,,,,,,,,,,,,,,,,,,,,,,,,,,,,,,,,,,,,,,,,,,,,,,,,,,,,,,,,,,,,,,,,,,,,,,,,,,,,,,,,,,,,,,,,,,,,,,,,,,,,,,,,,,,,,,,,,,,,,,,,,,
,,6140ef8d27499e70e8740918,2024-02-22_03h25.30.142,kallum_motion_pilot,2023.2.2,Win32,12.69035533,6140ef8d27499e70e8740918,65d6bb0e977760de756971f7,65d6be9256de2f00fa72f92c,0.0248,0.0248,0,8,8,22,1,fourtwo,,,,,,,,,,,,,,,,,,,,,,,,,,,,,,,,,,,,,,,,,,,,,,,,,,,,,,,,,,,,,,,,,,,,,,,,,,,,,,,,,,,,,,,,,,,,,,,,,,,,,,,,,,,,,,,,,,,,,,,,,,,,,,,,,,,,,,,,,
,,6140ef8d27499e70e8740918,2024-02-22_03h25.30.142,kallum_motion_pilot,2023.2.2,Win32,12.69035533,6140ef8d27499e70e8740918,65d6bb0e977760de756971f7,65d6be9256de2f00fa72f92c,0.0249,0.0249,0,9,9,155,1,sixeight,,,,,,,,,,,,,,,,,,,,,,,,,,,,,,,,,,,,,,,,,,,,,,,,,,,,,,,,,,,,,,,,,,,,,,,,,,,,,,,,,,,,,,,,,,,,,,,,,,,,,,,,,,,,,,,,,,,,,,,,,,,,,,,,,,,,,,,,,
,,6140ef8d27499e70e8740918,2024-02-22_03h25.30.142,kallum_motion_pilot,2023.2.2,Win32,12.69035533,6140ef8d27499e70e8740918,65d6bb0e977760de756971f7,65d6be9256de2f00fa72f92c,0.0249,0.0249,0,10,10,77,1,threefour,,,,,,,,,,,,,,,,,,,,,,,,,,,,,,,,,,,,,,,,,,,,,,,,,,,,,,,,,,,,,,,,,,,,,,,,,,,,,,,,,,,,,,,,,,,,,,,,,,,,,,,,,,,,,,,,,,,,,,,,,,,,,,,,,,,,,,,,,
,,6140ef8d27499e70e8740918,2024-02-22_03h25.30.142,kallum_motion_pilot,2023.2.2,Win32,12.69035533,6140ef8d27499e70e8740918,65d6bb0e977760de756971f7,65d6be9256de2f00fa72f92c,0.025,0.0251,0,11,11,43,1,twofour,,,,,,,,,,,,,,,,,,,,,,,,,,,,,,,,,,,,,,,,,,,,,,,,,,,,,,,,,,,,,,,,,,,,,,,,,,,,,,,,,,,,,,,,,,,,,,,,,,,,,,,,,,,,,,,,,,,,,,,,,,,,,,,,,,,,,,,,,
,,6140ef8d27499e70e8740918,2024-02-22_03h25.30.142,kallum_motion_pilot,2023.2.2,Win32,12.69035533,6140ef8d27499e70e8740918,65d6bb0e977760de756971f7,65d6be9256de2f00fa72f92c,0.0251,0.0251,0,12,12,14,1,fourtwo,,,,,,,,,,,,,,,,,,,,,,,,,,,,,,,,,,,,,,,,,,,,,,,,,,,,,,,,,,,,,,,,,,,,,,,,,,,,,,,,,,,,,,,,,,,,,,,,,,,,,,,,,,,,,,,,,,,,,,,,,,,,,,,,,,,,,,,,,
,,6140ef8d27499e70e8740918,2024-02-22_03h25.30.142,kallum_motion_pilot,2023.2.2,Win32,12.69035533,6140ef8d27499e70e8740918,65d6bb0e977760de756971f7,65d6be9256de2f00fa72f92c,0.0252,0.0252,0,13,13,13,1,threefour,,,,,,,,,,,,,,,,,,,,,,,,,,,,,,,,,,,,,,,,,,,,,,,,,,,,,,,,,,,,,,,,,,,,,,,,,,,,,,,,,,,,,,,,,,,,,,,,,,,,,,,,,,,,,,,,,,,,,,,,,,,,,,,,,,,,,,,,,
,,6140ef8d27499e70e8740918,2024-02-22_03h25.30.142,kallum_motion_pilot,2023.2.2,Win32,12.69035533,6140ef8d27499e70e8740918,65d6bb0e977760de756971f7,65d6be9256de2f00fa72f92c,0.0253,0.0253,0,14,14,124,1,sevenfive,,,,,,,,,,,,,,,,,,,,,,,,,,,,,,,,,,,,,,,,,,,,,,,,,,,,,,,,,,,,,,,,,,,,,,,,,,,,,,,,,,,,,,,,,,,,,,,,,,,,,,,,,,,,,,,,,,,,,,,,,,,,,,,,,,,,,,,,,
,,6140ef8d27499e70e8740918,2024-02-22_03h25.30.142,kallum_motion_pilot,2023.2.2,Win32,12.69035533,6140ef8d27499e70e8740918,65d6bb0e977760de756971f7,65d6be9256de2f00fa72f92c,0.0254,0.0254,0,15,15,81,1,fiveseven,,,,,,,,,,,,,,,,,,,,,,,,,,,,,,,,,,,,,,,,,,,,,,,,,,,,,,,,,,,,,,,,,,,,,,,,,,,,,,,,,,,,,,,,,,,,,,,,,,,,,,,,,,,,,,,,,,,,,,,,,,,,,,,,,,,,,,,,,
,,6140ef8d27499e70e8740918,2024-02-22_03h25.30.142,kallum_motion_pilot,2023.2.2,Win32,12.69035533,6140ef8d27499e70e8740918,65d6bb0e977760de756971f7,65d6be9256de2f00fa72f92c,0.0255,0.0255,0,16,16,113,1,fiveseven,,,,,,,,,,,,,,,,,,,,,,,,,,,,,,,,,,,,,,,,,,,,,,,,,,,,,,,,,,,,,,,,,,,,,,,,,,,,,,,,,,,,,,,,,,,,,,,,,,,,,,,,,,,,,,,,,,,,,,,,,,,,,,,,,,,,,,,,,
,,6140ef8d27499e70e8740918,2024-02-22_03h25.30.142,kallum_motion_pilot,2023.2.2,Win32,12.69035533,6140ef8d27499e70e8740918,65d6bb0e977760de756971f7,65d6be9256de2f00fa72f92c,0.0256,0.0257,0,17,17,116,1,sevenfive,,,,,,,,,,,,,,,,,,,,,,,,,,,,,,,,,,,,,,,,,,,,,,,,,,,,,,,,,,,,,,,,,,,,,,,,,,,,,,,,,,,,,,,,,,,,,,,,,,,,,,,,,,,,,,,,,,,,,,,,,,,,,,,,,,,,,,,,,
,,6140ef8d27499e70e8740918,2024-02-22_03h25.30.142,kallum_motion_pilot,2023.2.2,Win32,12.69035533,6140ef8d27499e70e8740918,65d6bb0e977760de756971f7,65d6be9256de2f00fa72f92c,0.0257,0.0257,0,18,18,58,1,twoone,,,,,,,,,,,,,,,,,,,,,,,,,,,,,,,,,,,,,,,,,,,,,,,,,,,,,,,,,,,,,,,,,,,,,,,,,,,,,,,,,,,,,,,,,,,,,,,,,,,,,,,,,,,,,,,,,,,,,,,,,,,,,,,,,,,,,,,,,
,,6140ef8d27499e70e8740918,2024-02-22_03h25.30.142,kallum_motion_pilot,2023.2.2,Win32,12.69035533,6140ef8d27499e70e8740918,65d6bb0e977760de756971f7,65d6be9256de2f00fa72f92c,0.0257,0.0258,0,19,19,133,1,seveneight,,,,,,,,,,,,,,,,,,,,,,,,,,,,,,,,,,,,,,,,,,,,,,,,,,,,,,,,,,,,,,,,,,,,,,,,,,,,,,,,,,,,,,,,,,,,,,,,,,,,,,,,,,,,,,,,,,,,,,,,,,,,,,,,,,,,,,,,,
,,6140ef8d27499e70e8740918,2024-02-22_03h25.30.142,kallum_motion_pilot,2023.2.2,Win32,12.69035533,6140ef8d27499e70e8740918,65d6bb0e977760de756971f7,65d6be9256de2f00fa72f92c,0.0259,0.0259,0,20,20,30,1,fourtwo,,,,,,,,,,,,,,,,,,,,,,,,,,,,,,,,,,,,,,,,,,,,,,,,,,,,,,,,,,,,,,,,,,,,,,,,,,,,,,,,,,,,,,,,,,,,,,,,,,,,,,,,,,,,,,,,,,,,,,,,,,,,,,,,,,,,,,,,,
,,6140ef8d27499e70e8740918,2024-02-22_03h25.30.142,kallum_motion_pilot,2023.2.2,Win32,12.69035533,6140ef8d27499e70e8740918,65d6bb0e977760de756971f7,65d6be9256de2f00fa72f92c,0.0259,0.026,0,21,21,143,1,eightseven,,,,,,,,,,,,,,,,,,,,,,,,,,,,,,,,,,,,,,,,,,,,,,,,,,,,,,,,,,,,,,,,,,,,,,,,,,,,,,,,,,,,,,,,,,,,,,,,,,,,,,,,,,,,,,,,,,,,,,,,,,,,,,,,,,,,,,,,,
,,6140ef8d27499e70e8740918,2024-02-22_03h25.30.142,kallum_motion_pilot,2023.2.2,Win32,12.69035533,6140ef8d27499e70e8740918,65d6bb0e977760de756971f7,65d6be9256de2f00fa72f92c,0.026,0.026,0,22,22,141,1,seveneight,,,,,,,,,,,,,,,,,,,,,,,,,,,,,,,,,,,,,,,,,,,,,,,,,,,,,,,,,,,,,,,,,,,,,,,,,,,,,,,,,,,,,,,,,,,,,,,,,,,,,,,,,,,,,,,,,,,,,,,,,,,,,,,,,,,,,,,,,
,,6140ef8d27499e70e8740918,2024-02-22_03h25.30.142,kallum_motion_pilot,2023.2.2,Win32,12.69035533,6140ef8d27499e70e8740918,65d6bb0e977760de756971f7,65d6be9256de2f00fa72f92c,0.0261,0.0261,0,23,23,100,1,sevenfive,,,,,,,,,,,,,,,,,,,,,,,,,,,,,,,,,,,,,,,,,,,,,,,,,,,,,,,,,,,,,,,,,,,,,,,,,,,,,,,,,,,,,,,,,,,,,,,,,,,,,,,,,,,,,,,,,,,,,,,,,,,,,,,,,,,,,,,,,
,,6140ef8d27499e70e8740918,2024-02-22_03h25.30.142,kallum_motion_pilot,2023.2.2,Win32,12.69035533,6140ef8d27499e70e8740918,65d6bb0e977760de756971f7,65d6be9256de2f00fa72f92c,0.0261,0.0262,0,24,24,59,1,twofour,,,,,,,,,,,,,,,,,,,,,,,,,,,,,,,,,,,,,,,,,,,,,,,,,,,,,,,,,,,,,,,,,,,,,,,,,,,,,,,,,,,,,,,,,,,,,,,,,,,,,,,,,,,,,,,,,,,,,,,,,,,,,,,,,,,,,,,,,
,,6140ef8d27499e70e8740918,2024-02-22_03h25.30.142,kallum_motion_pilot,2023.2.2,Win32,12.69035533,6140ef8d27499e70e8740918,65d6bb0e977760de756971f7,65d6be9256de2f00fa72f92c,0.0263,0.0263,0,25,25,7,1,fourthree,,,,,,,,,,,,,,,,,,,,,,,,,,,,,,,,,,,,,,,,,,,,,,,,,,,,,,,,,,,,,,,,,,,,,,,,,,,,,,,,,,,,,,,,,,,,,,,,,,,,,,,,,,,,,,,,,,,,,,,,,,,,,,,,,,,,,,,,,
,,6140ef8d27499e70e8740918,2024-02-22_03h25.30.142,kallum_motion_pilot,2023.2.2,Win32,12.69035533,6140ef8d27499e70e8740918,65d6bb0e977760de756971f7,65d6be9256de2f00fa72f92c,0.0264,0.0264,0,26,26,44,1,threeone,,,,,,,,,,,,,,,,,,,,,,,,,,,,,,,,,,,,,,,,,,,,,,,,,,,,,,,,,,,,,,,,,,,,,,,,,,,,,,,,,,,,,,,,,,,,,,,,,,,,,,,,,,,,,,,,,,,,,,,,,,,,,,,,,,,,,,,,,
,,6140ef8d27499e70e8740918,2024-02-22_03h25.30.142,kallum_motion_pilot,2023.2.2,Win32,12.69035533,6140ef8d27499e70e8740918,65d6bb0e977760de756971f7,65d6be9256de2f00fa72f92c,0.0265,0.0265,0,27,27,42,1,twoone,,,,,,,,,,,,,,,,,,,,,,,,,,,,,,,,,,,,,,,,,,,,,,,,,,,,,,,,,,,,,,,,,,,,,,,,,,,,,,,,,,,,,,,,,,,,,,,,,,,,,,,,,,,,,,,,,,,,,,,,,,,,,,,,,,,,,,,,,
,,6140ef8d27499e70e8740918,2024-02-22_03h25.30.142,kallum_motion_pilot,2023.2.2,Win32,12.69035533,6140ef8d27499e70e8740918,65d6bb0e977760de756971f7,65d6be9256de2f00fa72f92c,0.0265,0.0265,0,28,28,103,1,eightseven,,,,,,,,,,,,,,,,,,,,,,,,,,,,,,,,,,,,,,,,,,,,,,,,,,,,,,,,,,,,,,,,,,,,,,,,,,,,,,,,,,,,,,,,,,,,,,,,,,,,,,,,,,,,,,,,,,,,,,,,,,,,,,,,,,,,,,,,,
,,6140ef8d27499e70e8740918,2024-02-22_03h25.30.142,kallum_motion_pilot,2023.2.2,Win32,12.69035533,6140ef8d27499e70e8740918,65d6bb0e977760de756971f7,65d6be9256de2f00fa72f92c,0.0266,0.0267,0,29,29,78,1,fourtwo,,,,,,,,,,,,,,,,,,,,,,,,,,,,,,,,,,,,,,,,,,,,,,,,,,,,,,,,,,,,,,,,,,,,,,,,,,,,,,,,,,,,,,,,,,,,,,,,,,,,,,,,,,,,,,,,,,,,,,,,,,,,,,,,,,,,,,,,,
,,6140ef8d27499e70e8740918,2024-02-22_03h25.30.142,kallum_motion_pilot,2023.2.2,Win32,12.69035533,6140ef8d27499e70e8740918,65d6bb0e977760de756971f7,65d6be9256de2f00fa72f92c,0.0267,0.0268,0,30,30,126,1,eightsix,,,,,,,,,,,,,,,,,,,,,,,,,,,,,,,,,,,,,,,,,,,,,,,,,,,,,,,,,,,,,,,,,,,,,,,,,,,,,,,,,,,,,,,,,,,,,,,,,,,,,,,,,,,,,,,,,,,,,,,,,,,,,,,,,,,,,,,,,
,,6140ef8d27499e70e8740918,2024-02-22_03h25.30.142,kallum_motion_pilot,2023.2.2,Win32,12.69035533,6140ef8d27499e70e8740918,65d6bb0e977760de756971f7,65d6be9256de2f00fa72f92c,0.0268,0.0268,0,31,31,55,1,fourthree,,,,,,,,,,,,,,,,,,,,,,,,,,,,,,,,,,,,,,,,,,,,,,,,,,,,,,,,,,,,,,,,,,,,,,,,,,,,,,,,,,,,,,,,,,,,,,,,,,,,,,,,,,,,,,,,,,,,,,,,,,,,,,,,,,,,,,,,,
,,6140ef8d27499e70e8740918,2024-02-22_03h25.30.142,kallum_motion_pilot,2023.2.2,Win32,12.69035533,6140ef8d27499e70e8740918,65d6bb0e977760de756971f7,65d6be9256de2f00fa72f92c,0.0268,0.0269,0,32,32,91,1,sixeight,,,,,,,,,,,,,,,,,,,,,,,,,,,,,,,,,,,,,,,,,,,,,,,,,,,,,,,,,,,,,,,,,,,,,,,,,,,,,,,,,,,,,,,,,,,,,,,,,,,,,,,,,,,,,,,,,,,,,,,,,,,,,,,,,,,,,,,,,
,,6140ef8d27499e70e8740918,2024-02-22_03h25.30.142,kallum_motion_pilot,2023.2.2,Win32,12.69035533,6140ef8d27499e70e8740918,65d6bb0e977760de756971f7,65d6be9256de2f00fa72f92c,0.0269,0.0269,0,33,33,90,1,sixfive,,,,,,,,,,,,,,,,,,,,,,,,,,,,,,,,,,,,,,,,,,,,,,,,,,,,,,,,,,,,,,,,,,,,,,,,,,,,,,,,,,,,,,,,,,,,,,,,,,,,,,,,,,,,,,,,,,,,,,,,,,,,,,,,,,,,,,,,,
,,6140ef8d27499e70e8740918,2024-02-22_03h25.30.142,kallum_motion_pilot,2023.2.2,Win32,12.69035533,6140ef8d27499e70e8740918,65d6bb0e977760de756971f7,65d6be9256de2f00fa72f92c,0.027,0.027,0,34,34,5,1,threefour,,,,,,,,,,,,,,,,,,,,,,,,,,,,,,,,,,,,,,,,,,,,,,,,,,,,,,,,,,,,,,,,,,,,,,,,,,,,,,,,,,,,,,,,,,,,,,,,,,,,,,,,,,,,,,,,,,,,,,,,,,,,,,,,,,,,,,,,,
,,6140ef8d27499e70e8740918,2024-02-22_03h25.30.142,kallum_motion_pilot,2023.2.2,Win32,12.69035533,6140ef8d27499e70e8740918,65d6bb0e977760de756971f7,65d6be9256de2f00fa72f92c,0.0271,0.0271,0,35,35,156,1,sevenfive,,,,,,,,,,,,,,,,,,,,,,,,,,,,,,,,,,,,,,,,,,,,,,,,,,,,,,,,,,,,,,,,,,,,,,,,,,,,,,,,,,,,,,,,,,,,,,,,,,,,,,,,,,,,,,,,,,,,,,,,,,,,,,,,,,,,,,,,,
,,6140ef8d27499e70e8740918,2024-02-22_03h25.30.142,kallum_motion_pilot,2023.2.2,Win32,12.69035533,6140ef8d27499e70e8740918,65d6bb0e977760de756971f7,65d6be9256de2f00fa72f92c,0.0272,0.0272,0,36,36,144,1,fivesix,,,,,,,,,,,,,,,,,,,,,,,,,,,,,,,,,,,,,,,,,,,,,,,,,,,,,,,,,,,,,,,,,,,,,,,,,,,,,,,,,,,,,,,,,,,,,,,,,,,,,,,,,,,,,,,,,,,,,,,,,,,,,,,,,,,,,,,,,
,,6140ef8d27499e70e8740918,2024-02-22_03h25.30.142,kallum_motion_pilot,2023.2.2,Win32,12.69035533,6140ef8d27499e70e8740918,65d6bb0e977760de756971f7,65d6be9256de2f00fa72f92c,0.0272,0.0272,0,37,37,136,1,fivesix,,,,,,,,,,,,,,,,,,,,,,,,,,,,,,,,,,,,,,,,,,,,,,,,,,,,,,,,,,,,,,,,,,,,,,,,,,,,,,,,,,,,,,,,,,,,,,,,,,,,,,,,,,,,,,,,,,,,,,,,,,,,,,,,,,,,,,,,,
,,6140ef8d27499e70e8740918,2024-02-22_03h25.30.142,kallum_motion_pilot,2023.2.2,Win32,12.69035533,6140ef8d27499e70e8740918,65d6bb0e977760de756971f7,65d6be9256de2f00fa72f92c,0.0273,0.0274,0,38,38,51,1,twofour,,,,,,,,,,,,,,,,,,,,,,,,,,,,,,,,,,,,,,,,,,,,,,,,,,,,,,,,,,,,,,,,,,,,,,,,,,,,,,,,,,,,,,,,,,,,,,,,,,,,,,,,,,,,,,,,,,,,,,,,,,,,,,,,,,,,,,,,,
,,6140ef8d27499e70e8740918,2024-02-22_03h25.30.142,kallum_motion_pilot,2023.2.2,Win32,12.69035533,6140ef8d27499e70e8740918,65d6bb0e977760de756971f7,65d6be9256de2f00fa72f92c,0.0274,0.0274,0,39,39,12,1,threeone,,,,,,,,,,,,,,,,,,,,,,,,,,,,,,,,,,,,,,,,,,,,,,,,,,,,,,,,,,,,,,,,,,,,,,,,,,,,,,,,,,,,,,,,,,,,,,,,,,,,,,,,,,,,,,,,,,,,,,,,,,,,,,,,,,,,,,,,,
,,6140ef8d27499e70e8740918,2024-02-22_03h25.30.142,kallum_motion_pilot,2023.2.2,Win32,12.69035533,6140ef8d27499e70e8740918,65d6bb0e977760de756971f7,65d6be9256de2f00fa72f92c,0.0274,0.0275,0,40,40,135,1,eightseven,,,,,,,,,,,,,,,,,,,,,,,,,,,,,,,,,,,,,,,,,,,,,,,,,,,,,,,,,,,,,,,,,,,,,,,,,,,,,,,,,,,,,,,,,,,,,,,,,,,,,,,,,,,,,,,,,,,,,,,,,,,,,,,,,,,,,,,,,
,,6140ef8d27499e70e8740918,2024-02-22_03h25.30.142,kallum_motion_pilot,2023.2.2,Win32,12.69035533,6140ef8d27499e70e8740918,65d6bb0e977760de756971f7,65d6be9256de2f00fa72f92c,0.0275,0.0276,0,41,41,92,1,sevenfive,,,,,,,,,,,,,,,,,,,,,,,,,,,,,,,,,,,,,,,,,,,,,,,,,,,,,,,,,,,,,,,,,,,,,,,,,,,,,,,,,,,,,,,,,,,,,,,,,,,,,,,,,,,,,,,,,,,,,,,,,,,,,,,,,,,,,,,,,
,,6140ef8d27499e70e8740918,2024-02-22_03h25.30.142,kallum_motion_pilot,2023.2.2,Win32,12.69035533,6140ef8d27499e70e8740918,65d6bb0e977760de756971f7,65d6be9256de2f00fa72f92c,0.0276,0.0276,0,42,42,46,1,fourtwo,,,,,,,,,,,,,,,,,,,,,,,,,,,,,,,,,,,,,,,,,,,,,,,,,,,,,,,,,,,,,,,,,,,,,,,,,,,,,,,,,,,,,,,,,,,,,,,,,,,,,,,,,,,,,,,,,,,,,,,,,,,,,,,,,,,,,,,,,
,,6140ef8d27499e70e8740918,2024-02-22_03h25.30.142,kallum_motion_pilot,2023.2.2,Win32,12.69035533,6140ef8d27499e70e8740918,65d6bb0e977760de756971f7,65d6be9256de2f00fa72f92c,0.0278,0.0278,0,43,43,95,1,eightseven,,,,,,,,,,,,,,,,,,,,,,,,,,,,,,,,,,,,,,,,,,,,,,,,,,,,,,,,,,,,,,,,,,,,,,,,,,,,,,,,,,,,,,,,,,,,,,,,,,,,,,,,,,,,,,,,,,,,,,,,,,,,,,,,,,,,,,,,,
,,6140ef8d27499e70e8740918,2024-02-22_03h25.30.142,kallum_motion_pilot,2023.2.2,Win32,12.69035533,6140ef8d27499e70e8740918,65d6bb0e977760de756971f7,65d6be9256de2f00fa72f92c,0.0278,0.0279,0,44,44,75,1,twofour,,,,,,,,,,,,,,,,,,,,,,,,,,,,,,,,,,,,,,,,,,,,,,,,,,,,,,,,,,,,,,,,,,,,,,,,,,,,,,,,,,,,,,,,,,,,,,,,,,,,,,,,,,,,,,,,,,,,,,,,,,,,,,,,,,,,,,,,,
,,6140ef8d27499e70e8740918,2024-02-22_03h25.30.142,kallum_motion_pilot,2023.2.2,Win32,12.69035533,6140ef8d27499e70e8740918,65d6bb0e977760de756971f7,65d6be9256de2f00fa72f92c,0.0279,0.0279,0,45,45,16,1,onetwo,,,,,,,,,,,,,,,,,,,,,,,,,,,,,,,,,,,,,,,,,,,,,,,,,,,,,,,,,,,,,,,,,,,,,,,,,,,,,,,,,,,,,,,,,,,,,,,,,,,,,,,,,,,,,,,,,,,,,,,,,,,,,,,,,,,,,,,,,
,,6140ef8d27499e70e8740918,2024-02-22_03h25.30.142,kallum_motion_pilot,2023.2.2,Win32,12.69035533,6140ef8d27499e70e8740918,65d6bb0e977760de756971f7,65d6be9256de2f00fa72f92c,0.0279,0.0279,0,46,46,127,1,eightseven,,,,,,,,,,,,,,,,,,,,,,,,,,,,,,,,,,,,,,,,,,,,,,,,,,,,,,,,,,,,,,,,,,,,,,,,,,,,,,,,,,,,,,,,,,,,,,,,,,,,,,,,,,,,,,,,,,,,,,,,,,,,,,,,,,,,,,,,,
,,6140ef8d27499e70e8740918,2024-02-22_03h25.30.142,kallum_motion_pilot,2023.2.2,Win32,12.69035533,6140ef8d27499e70e8740918,65d6bb0e977760de756971f7,65d6be9256de2f00fa72f92c,0.028,0.0281,0,47,47,118,1,eightsix,,,,,,,,,,,,,,,,,,,,,,,,,,,,,,,,,,,,,,,,,,,,,,,,,,,,,,,,,,,,,,,,,,,,,,,,,,,,,,,,,,,,,,,,,,,,,,,,,,,,,,,,,,,,,,,,,,,,,,,,,,,,,,,,,,,,,,,,,
,,6140ef8d27499e70e8740918,2024-02-22_03h25.30.142,kallum_motion_pilot,2023.2.2,Win32,12.69035533,6140ef8d27499e70e8740918,65d6bb0e977760de756971f7,65d6be9256de2f00fa72f92c,0.0282,0.0282,0,48,48,2,1,twoone,,,,,,,,,,,,,,,,,,,,,,,,,,,,,,,,,,,,,,,,,,,,,,,,,,,,,,,,,,,,,,,,,,,,,,,,,,,,,,,,,,,,,,,,,,,,,,,,,,,,,,,,,,,,,,,,,,,,,,,,,,,,,,,,,,,,,,,,,
,,6140ef8d27499e70e8740918,2024-02-22_03h25.30.142,kallum_motion_pilot,2023.2.2,Win32,12.69035533,6140ef8d27499e70e8740918,65d6bb0e977760de756971f7,65d6be9256de2f00fa72f92c,0.0282,0.0282,0,49,49,23,1,fourthree,,,,,,,,,,,,,,,,,,,,,,,,,,,,,,,,,,,,,,,,,,,,,,,,,,,,,,,,,,,,,,,,,,,,,,,,,,,,,,,,,,,,,,,,,,,,,,,,,,,,,,,,,,,,,,,,,,,,,,,,,,,,,,,,,,,,,,,,,
,,6140ef8d27499e70e8740918,2024-02-22_03h25.30.142,kallum_motion_pilot,2023.2.2,Win32,12.69035533,6140ef8d27499e70e8740918,65d6bb0e977760de756971f7,65d6be9256de2f00fa72f92c,0.0283,0.0283,0,50,50,19,1,twofour,,,,,,,,,,,,,,,,,,,,,,,,,,,,,,,,,,,,,,,,,,,,,,,,,,,,,,,,,,,,,,,,,,,,,,,,,,,,,,,,,,,,,,,,,,,,,,,,,,,,,,,,,,,,,,,,,,,,,,,,,,,,,,,,,,,,,,,,,
,,6140ef8d27499e70e8740918,2024-02-22_03h25.30.142,kallum_motion_pilot,2023.2.2,Win32,12.69035533,6140ef8d27499e70e8740918,65d6bb0e977760de756971f7,65d6be9256de2f00fa72f92c,0.0283,0.0284,0,51,51,6,1,fourtwo,,,,,,,,,,,,,,,,,,,,,,,,,,,,,,,,,,,,,,,,,,,,,,,,,,,,,,,,,,,,,,,,,,,,,,,,,,,,,,,,,,,,,,,,,,,,,,,,,,,,,,,,,,,,,,,,,,,,,,,,,,,,,,,,,,,,,,,,,
,,6140ef8d27499e70e8740918,2024-02-22_03h25.30.142,kallum_motion_pilot,2023.2.2,Win32,12.69035533,6140ef8d27499e70e8740918,65d6bb0e977760de756971f7,65d6be9256de2f00fa72f92c,0.0285,0.0285,0,52,52,120,1,fivesix,,,,,,,,,,,,,,,,,,,,,,,,,,,,,,,,,,,,,,,,,,,,,,,,,,,,,,,,,,,,,,,,,,,,,,,,,,,,,,,,,,,,,,,,,,,,,,,,,,,,,,,,,,,,,,,,,,,,,,,,,,,,,,,,,,,,,,,,,
,,6140ef8d27499e70e8740918,2024-02-22_03h25.30.142,kallum_motion_pilot,2023.2.2,Win32,12.69035533,6140ef8d27499e70e8740918,65d6bb0e977760de756971f7,65d6be9256de2f00fa72f92c,0.0285,0.0286,0,53,53,65,1,onethree,,,,,,,,,,,,,,,,,,,,,,,,,,,,,,,,,,,,,,,,,,,,,,,,,,,,,,,,,,,,,,,,,,,,,,,,,,,,,,,,,,,,,,,,,,,,,,,,,,,,,,,,,,,,,,,,,,,,,,,,,,,,,,,,,,,,,,,,,
,,6140ef8d27499e70e8740918,2024-02-22_03h25.30.142,kallum_motion_pilot,2023.2.2,Win32,12.69035533,6140ef8d27499e70e8740918,65d6bb0e977760de756971f7,65d6be9256de2f00fa72f92c,0.0286,0.0286,0,54,54,35,1,twofour,,,,,,,,,,,,,,,,,,,,,,,,,,,,,,,,,,,,,,,,,,,,,,,,,,,,,,,,,,,,,,,,,,,,,,,,,,,,,,,,,,,,,,,,,,,,,,,,,,,,,,,,,,,,,,,,,,,,,,,,,,,,,,,,,,,,,,,,,
,,6140ef8d27499e70e8740918,2024-02-22_03h25.30.142,kallum_motion_pilot,2023.2.2,Win32,12.69035533,6140ef8d27499e70e8740918,65d6bb0e977760de756971f7,65d6be9256de2f00fa72f92c,0.0287,0.0287,0,55,55,122,1,sixfive,,,,,,,,,,,,,,,,,,,,,,,,,,,,,,,,,,,,,,,,,,,,,,,,,,,,,,,,,,,,,,,,,,,,,,,,,,,,,,,,,,,,,,,,,,,,,,,,,,,,,,,,,,,,,,,,,,,,,,,,,,,,,,,,,,,,,,,,,
,,6140ef8d27499e70e8740918,2024-02-22_03h25.30.142,kallum_motion_pilot,2023.2.2,Win32,12.69035533,6140ef8d27499e70e8740918,65d6bb0e977760de756971f7,65d6be9256de2f00fa72f92c,0.0288,0.0288,0,56,56,153,1,fiveseven,,,,,,,,,,,,,,,,,,,,,,,,,,,,,,,,,,,,,,,,,,,,,,,,,,,,,,,,,,,,,,,,,,,,,,,,,,,,,,,,,,,,,,,,,,,,,,,,,,,,,,,,,,,,,,,,,,,,,,,,,,,,,,,,,,,,,,,,,
,,6140ef8d27499e70e8740918,2024-02-22_03h25.30.142,kallum_motion_pilot,2023.2.2,Win32,12.69035533,6140ef8d27499e70e8740918,65d6bb0e977760de756971f7,65d6be9256de2f00fa72f92c,0.0288,0.0288,0,57,57,9,1,onethree,,,,,,,,,,,,,,,,,,,,,,,,,,,,,,,,,,,,,,,,,,,,,,,,,,,,,,,,,,,,,,,,,,,,,,,,,,,,,,,,,,,,,,,,,,,,,,,,,,,,,,,,,,,,,,,,,,,,,,,,,,,,,,,,,,,,,,,,,
,,6140ef8d27499e70e8740918,2024-02-22_03h25.30.142,kallum_motion_pilot,2023.2.2,Win32,12.69035533,6140ef8d27499e70e8740918,65d6bb0e977760de756971f7,65d6be9256de2f00fa72f92c,0.0289,0.0289,0,58,58,108,1,sevenfive,,,,,,,,,,,,,,,,,,,,,,,,,,,,,,,,,,,,,,,,,,,,,,,,,,,,,,,,,,,,,,,,,,,,,,,,,,,,,,,,,,,,,,,,,,,,,,,,,,,,,,,,,,,,,,,,,,,,,,,,,,,,,,,,,,,,,,,,,
,,6140ef8d27499e70e8740918,2024-02-22_03h25.30.142,kallum_motion_pilot,2023.2.2,Win32,12.69035533,6140ef8d27499e70e8740918,65d6bb0e977760de756971f7,65d6be9256de2f00fa72f92c,0.029,0.029,0,59,59,109,1,seveneight,,,,,,,,,,,,,,,,,,,,,,,,,,,,,,,,,,,,,,,,,,,,,,,,,,,,,,,,,,,,,,,,,,,,,,,,,,,,,,,,,,,,,,,,,,,,,,,,,,,,,,,,,,,,,,,,,,,,,,,,,,,,,,,,,,,,,,,,,
,,6140ef8d27499e70e8740918,2024-02-22_03h25.30.142,kallum_motion_pilot,2023.2.2,Win32,12.69035533,6140ef8d27499e70e8740918,65d6bb0e977760de756971f7,65d6be9256de2f00fa72f92c,0.0306,0.0307,0,60,60,128,1,fivesix,,,,,,,,,,,,,,,,,,,,,,,,,,,,,,,,,,,,,,,,,,,,,,,,,,,,,,,,,,,,,,,,,,,,,,,,,,,,,,,,,,,,,,,,,,,,,,,,,,,,,,,,,,,,,,,,,,,,,,,,,,,,,,,,,,,,,,,,,
,,6140ef8d27499e70e8740918,2024-02-22_03h25.30.142,kallum_motion_pilot,2023.2.2,Win32,12.69035533,6140ef8d27499e70e8740918,65d6bb0e977760de756971f7,65d6be9256de2f00fa72f92c,0.0308,0.0309,0,61,61,125,1,seveneight,,,,,,,,,,,,,,,,,,,,,,,,,,,,,,,,,,,,,,,,,,,,,,,,,,,,,,,,,,,,,,,,,,,,,,,,,,,,,,,,,,,,,,,,,,,,,,,,,,,,,,,,,,,,,,,,,,,,,,,,,,,,,,,,,,,,,,,,,
,,6140ef8d27499e70e8740918,2024-02-22_03h25.30.142,kallum_motion_pilot,2023.2.2,Win32,12.69035533,6140ef8d27499e70e8740918,65d6bb0e977760de756971f7,65d6be9256de2f00fa72f92c,0.0309,0.0309,0,62,62,151,1,eightseven,,,,,,,,,,,,,,,,,,,,,,,,,,,,,,,,,,,,,,,,,,,,,,,,,,,,,,,,,,,,,,,,,,,,,,,,,,,,,,,,,,,,,,,,,,,,,,,,,,,,,,,,,,,,,,,,,,,,,,,,,,,,,,,,,,,,,,,,,
,,6140ef8d27499e70e8740918,2024-02-22_03h25.30.142,kallum_motion_pilot,2023.2.2,Win32,12.69035533,6140ef8d27499e70e8740918,65d6bb0e977760de756971f7,65d6be9256de2f00fa72f92c,0.0311,0.0311,0,63,63,60,1,threeone,,,,,,,,,,,,,,,,,,,,,,,,,,,,,,,,,,,,,,,,,,,,,,,,,,,,,,,,,,,,,,,,,,,,,,,,,,,,,,,,,,,,,,,,,,,,,,,,,,,,,,,,,,,,,,,,,,,,,,,,,,,,,,,,,,,,,,,,,
,,6140ef8d27499e70e8740918,2024-02-22_03h25.30.142,kallum_motion_pilot,2023.2.2,Win32,12.69035533,6140ef8d27499e70e8740918,65d6bb0e977760de756971f7,65d6be9256de2f00fa72f92c,0.0312,0.0312,0,64,64,110,1,eightsix,,,,,,,,,,,,,,,,,,,,,,,,,,,,,,,,,,,,,,,,,,,,,,,,,,,,,,,,,,,,,,,,,,,,,,,,,,,,,,,,,,,,,,,,,,,,,,,,,,,,,,,,,,,,,,,,,,,,,,,,,,,,,,,,,,,,,,,,,
,,6140ef8d27499e70e8740918,2024-02-22_03h25.30.142,kallum_motion_pilot,2023.2.2,Win32,12.69035533,6140ef8d27499e70e8740918,65d6bb0e977760de756971f7,65d6be9256de2f00fa72f92c,0.0312,0.0312,0,65,65,157,1,seveneight,,,,,,,,,,,,,,,,,,,,,,,,,,,,,,,,,,,,,,,,,,,,,,,,,,,,,,,,,,,,,,,,,,,,,,,,,,,,,,,,,,,,,,,,,,,,,,,,,,,,,,,,,,,,,,,,,,,,,,,,,,,,,,,,,,,,,,,,,
,,6140ef8d27499e70e8740918,2024-02-22_03h25.30.142,kallum_motion_pilot,2023.2.2,Win32,12.69035533,6140ef8d27499e70e8740918,65d6bb0e977760de756971f7,65d6be9256de2f00fa72f92c,0.0313,0.0314,0,66,66,31,1,fourthree,,,,,,,,,,,,,,,,,,,,,,,,,,,,,,,,,,,,,,,,,,,,,,,,,,,,,,,,,,,,,,,,,,,,,,,,,,,,,,,,,,,,,,,,,,,,,,,,,,,,,,,,,,,,,,,,,,,,,,,,,,,,,,,,,,,,,,,,,
,,6140ef8d27499e70e8740918,2024-02-22_03h25.30.142,kallum_motion_pilot,2023.2.2,Win32,12.69035533,6140ef8d27499e70e8740918,65d6bb0e977760de756971f7,65d6be9256de2f00fa72f92c,0.0315,0.0315,0,67,67,150,1,eightsix,,,,,,,,,,,,,,,,,,,,,,,,,,,,,,,,,,,,,,,,,,,,,,,,,,,,,,,,,,,,,,,,,,,,,,,,,,,,,,,,,,,,,,,,,,,,,,,,,,,,,,,,,,,,,,,,,,,,,,,,,,,,,,,,,,,,,,,,,
,,6140ef8d27499e70e8740918,2024-02-22_03h25.30.142,kallum_motion_pilot,2023.2.2,Win32,12.69035533,6140ef8d27499e70e8740918,65d6bb0e977760de756971f7,65d6be9256de2f00fa72f92c,0.0316,0.0317,0,68,68,3,1,twofour,,,,,,,,,,,,,,,,,,,,,,,,,,,,,,,,,,,,,,,,,,,,,,,,,,,,,,,,,,,,,,,,,,,,,,,,,,,,,,,,,,,,,,,,,,,,,,,,,,,,,,,,,,,,,,,,,,,,,,,,,,,,,,,,,,,,,,,,,
,,6140ef8d27499e70e8740918,2024-02-22_03h25.30.142,kallum_motion_pilot,2023.2.2,Win32,12.69035533,6140ef8d27499e70e8740918,65d6bb0e977760de756971f7,65d6be9256de2f00fa72f92c,0.0317,0.0317,0,69,69,106,1,sixfive,,,,,,,,,,,,,,,,,,,,,,,,,,,,,,,,,,,,,,,,,,,,,,,,,,,,,,,,,,,,,,,,,,,,,,,,,,,,,,,,,,,,,,,,,,,,,,,,,,,,,,,,,,,,,,,,,,,,,,,,,,,,,,,,,,,,,,,,,
,,6140ef8d27499e70e8740918,2024-02-22_03h25.30.142,kallum_motion_pilot,2023.2.2,Win32,12.69035533,6140ef8d27499e70e8740918,65d6bb0e977760de756971f7,65d6be9256de2f00fa72f92c,0.0318,0.0318,0,70,70,62,1,fourtwo,,,,,,,,,,,,,,,,,,,,,,,,,,,,,,,,,,,,,,,,,,,,,,,,,,,,,,,,,,,,,,,,,,,,,,,,,,,,,,,,,,,,,,,,,,,,,,,,,,,,,,,,,,,,,,,,,,,,,,,,,,,,,,,,,,,,,,,,,
,,6140ef8d27499e70e8740918,2024-02-22_03h25.30.142,kallum_motion_pilot,2023.2.2,Win32,12.69035533,6140ef8d27499e70e8740918,65d6bb0e977760de756971f7,65d6be9256de2f00fa72f92c,0.0318,0.0318,0,71,71,114,1,sixfive,,,,,,,,,,,,,,,,,,,,,,,,,,,,,,,,,,,,,,,,,,,,,,,,,,,,,,,,,,,,,,,,,,,,,,,,,,,,,,,,,,,,,,,,,,,,,,,,,,,,,,,,,,,,,,,,,,,,,,,,,,,,,,,,,,,,,,,,,
,,6140ef8d27499e70e8740918,2024-02-22_03h25.30.142,kallum_motion_pilot,2023.2.2,Win32,12.69035533,6140ef8d27499e70e8740918,65d6bb0e977760de756971f7,65d6be9256de2f00fa72f92c,0.0319,0.0319,0,72,72,40,1,onetwo,,,,,,,,,,,,,,,,,,,,,,,,,,,,,,,,,,,,,,,,,,,,,,,,,,,,,,,,,,,,,,,,,,,,,,,,,,,,,,,,,,,,,,,,,,,,,,,,,,,,,,,,,,,,,,,,,,,,,,,,,,,,,,,,,,,,,,,,,
,,6140ef8d27499e70e8740918,2024-02-22_03h25.30.142,kallum_motion_pilot,2023.2.2,Win32,12.69035533,6140ef8d27499e70e8740918,65d6bb0e977760de756971f7,65d6be9256de2f00fa72f92c,0.032,0.032,0,73,73,145,1,fiveseven,,,,,,,,,,,,,,,,,,,,,,,,,,,,,,,,,,,,,,,,,,,,,,,,,,,,,,,,,,,,,,,,,,,,,,,,,,,,,,,,,,,,,,,,,,,,,,,,,,,,,,,,,,,,,,,,,,,,,,,,,,,,,,,,,,,,,,,,,
,,6140ef8d27499e70e8740918,2024-02-22_03h25.30.142,kallum_motion_pilot,2023.2.2,Win32,12.69035533,6140ef8d27499e70e8740918,65d6bb0e977760de756971f7,65d6be9256de2f00fa72f92c,0.0321,0.0321,0,74,74,70,1,fourtwo,,,,,,,,,,,,,,,,,,,,,,,,,,,,,,,,,,,,,,,,,,,,,,,,,,,,,,,,,,,,,,,,,,,,,,,,,,,,,,,,,,,,,,,,,,,,,,,,,,,,,,,,,,,,,,,,,,,,,,,,,,,,,,,,,,,,,,,,,
,,6140ef8d27499e70e8740918,2024-02-22_03h25.30.142,kallum_motion_pilot,2023.2.2,Win32,12.69035533,6140ef8d27499e70e8740918,65d6bb0e977760de756971f7,65d6be9256de2f00fa72f92c,0.0322,0.0322,0,75,75,67,1,twofour,,,,,,,,,,,,,,,,,,,,,,,,,,,,,,,,,,,,,,,,,,,,,,,,,,,,,,,,,,,,,,,,,,,,,,,,,,,,,,,,,,,,,,,,,,,,,,,,,,,,,,,,,,,,,,,,,,,,,,,,,,,,,,,,,,,,,,,,,
,,6140ef8d27499e70e8740918,2024-02-22_03h25.30.142,kallum_motion_pilot,2023.2.2,Win32,12.69035533,6140ef8d27499e70e8740918,65d6bb0e977760de756971f7,65d6be9256de2f00fa72f92c,0.0323,0.0323,0,76,76,119,1,eightseven,,,,,,,,,,,,,,,,,,,,,,,,,,,,,,,,,,,,,,,,,,,,,,,,,,,,,,,,,,,,,,,,,,,,,,,,,,,,,,,,,,,,,,,,,,,,,,,,,,,,,,,,,,,,,,,,,,,,,,,,,,,,,,,,,,,,,,,,,
,,6140ef8d27499e70e8740918,2024-02-22_03h25.30.142,kallum_motion_pilot,2023.2.2,Win32,12.69035533,6140ef8d27499e70e8740918,65d6bb0e977760de756971f7,65d6be9256de2f00fa72f92c,0.0324,0.0325,0,77,77,97,1,fiveseven,,,,,,,,,,,,,,,,,,,,,,,,,,,,,,,,,,,,,,,,,,,,,,,,,,,,,,,,,,,,,,,,,,,,,,,,,,,,,,,,,,,,,,,,,,,,,,,,,,,,,,,,,,,,,,,,,,,,,,,,,,,,,,,,,,,,,,,,,
,,6140ef8d27499e70e8740918,2024-02-22_03h25.30.142,kallum_motion_pilot,2023.2.2,Win32,12.69035533,6140ef8d27499e70e8740918,65d6bb0e977760de756971f7,65d6be9256de2f00fa72f92c,0.0325,0.0325,0,78,78,73,1,onethree,,,,,,,,,,,,,,,,,,,,,,,,,,,,,,,,,,,,,,,,,,,,,,,,,,,,,,,,,,,,,,,,,,,,,,,,,,,,,,,,,,,,,,,,,,,,,,,,,,,,,,,,,,,,,,,,,,,,,,,,,,,,,,,,,,,,,,,,,
,,6140ef8d27499e70e8740918,2024-02-22_03h25.30.142,kallum_motion_pilot,2023.2.2,Win32,12.69035533,6140ef8d27499e70e8740918,65d6bb0e977760de756971f7,65d6be9256de2f00fa72f92c,0.0326,0.0327,0,79,79,121,1,fiveseven,,,,,,,,,,,,,,,,,,,,,,,,,,,,,,,,,,,,,,,,,,,,,,,,,,,,,,,,,,,,,,,,,,,,,,,,,,,,,,,,,,,,,,,,,,,,,,,,,,,,,,,,,,,,,,,,,,,,,,,,,,,,,,,,,,,,,,,,,
,,6140ef8d27499e70e8740918,2024-02-22_03h25.30.142,kallum_motion_pilot,2023.2.2,Win32,12.69035533,6140ef8d27499e70e8740918,65d6bb0e977760de756971f7,65d6be9256de2f00fa72f92c,0.0327,0.0327,0,80,80,79,1,eightseven,,,,,,,,,,,,,,,,,,,,,,,,,,,,,,,,,,,,,,,,,,,,,,,,,,,,,,,,,,,,,,,,,,,,,,,,,,,,,,,,,,,,,,,,,,,,,,,,,,,,,,,,,,,,,,,,,,,,,,,,,,,,,,,,,,,,,,,,,
,,6140ef8d27499e70e8740918,2024-02-22_03h25.30.142,kallum_motion_pilot,2023.2.2,Win32,12.69035533,6140ef8d27499e70e8740918,65d6bb0e977760de756971f7,65d6be9256de2f00fa72f92c,0.0328,0.0328,0,81,81,0,1,onetwo,,,,,,,,,,,,,,,,,,,,,,,,,,,,,,,,,,,,,,,,,,,,,,,,,,,,,,,,,,,,,,,,,,,,,,,,,,,,,,,,,,,,,,,,,,,,,,,,,,,,,,,,,,,,,,,,,,,,,,,,,,,,,,,,,,,,,,,,,
,,6140ef8d27499e70e8740918,2024-02-22_03h25.30.142,kallum_motion_pilot,2023.2.2,Win32,12.69035533,6140ef8d27499e70e8740918,65d6bb0e977760de756971f7,65d6be9256de2f00fa72f92c,0.0328,0.0328,0,82,82,86,1,eightsix,,,,,,,,,,,,,,,,,,,,,,,,,,,,,,,,,,,,,,,,,,,,,,,,,,,,,,,,,,,,,,,,,,,,,,,,,,,,,,,,,,,,,,,,,,,,,,,,,,,,,,,,,,,,,,,,,,,,,,,,,,,,,,,,,,,,,,,,,
,,6140ef8d27499e70e8740918,2024-02-22_03h25.30.142,kallum_motion_pilot,2023.2.2,Win32,12.69035533,6140ef8d27499e70e8740918,65d6bb0e977760de756971f7,65d6be9256de2f00fa72f92c,0.0329,0.0329,0,83,83,61,1,threefour,,,,,,,,,,,,,,,,,,,,,,,,,,,,,,,,,,,,,,,,,,,,,,,,,,,,,,,,,,,,,,,,,,,,,,,,,,,,,,,,,,,,,,,,,,,,,,,,,,,,,,,,,,,,,,,,,,,,,,,,,,,,,,,,,,,,,,,,,
,,6140ef8d27499e70e8740918,2024-02-22_03h25.30.142,kallum_motion_pilot,2023.2.2,Win32,12.69035533,6140ef8d27499e70e8740918,65d6bb0e977760de756971f7,65d6be9256de2f00fa72f92c,0.033,0.0331,0,84,84,138,1,sixfive,,,,,,,,,,,,,,,,,,,,,,,,,,,,,,,,,,,,,,,,,,,,,,,,,,,,,,,,,,,,,,,,,,,,,,,,,,,,,,,,,,,,,,,,,,,,,,,,,,,,,,,,,,,,,,,,,,,,,,,,,,,,,,,,,,,,,,,,,
,,6140ef8d27499e70e8740918,2024-02-22_03h25.30.142,kallum_motion_pilot,2023.2.2,Win32,12.69035533,6140ef8d27499e70e8740918,65d6bb0e977760de756971f7,65d6be9256de2f00fa72f92c,0.0331,0.0331,0,85,85,34,1,twoone,,,,,,,,,,,,,,,,,,,,,,,,,,,,,,,,,,,,,,,,,,,,,,,,,,,,,,,,,,,,,,,,,,,,,,,,,,,,,,,,,,,,,,,,,,,,,,,,,,,,,,,,,,,,,,,,,,,,,,,,,,,,,,,,,,,,,,,,,
,,6140ef8d27499e70e8740918,2024-02-22_03h25.30.142,kallum_motion_pilot,2023.2.2,Win32,12.69035533,6140ef8d27499e70e8740918,65d6bb0e977760de756971f7,65d6be9256de2f00fa72f92c,0.0331,0.0331,0,86,86,132,1,sevenfive,,,,,,,,,,,,,,,,,,,,,,,,,,,,,,,,,,,,,,,,,,,,,,,,,,,,,,,,,,,,,,,,,,,,,,,,,,,,,,,,,,,,,,,,,,,,,,,,,,,,,,,,,,,,,,,,,,,,,,,,,,,,,,,,,,,,,,,,,
,,6140ef8d27499e70e8740918,2024-02-22_03h25.30.142,kallum_motion_pilot,2023.2.2,Win32,12.69035533,6140ef8d27499e70e8740918,65d6bb0e977760de756971f7,65d6be9256de2f00fa72f92c,0.0332,0.0332,0,87,87,98,1,sixfive,,,,,,,,,,,,,,,,,,,,,,,,,,,,,,,,,,,,,,,,,,,,,,,,,,,,,,,,,,,,,,,,,,,,,,,,,,,,,,,,,,,,,,,,,,,,,,,,,,,,,,,,,,,,,,,,,,,,,,,,,,,,,,,,,,,,,,,,,
,,6140ef8d27499e70e8740918,2024-02-22_03h25.30.142,kallum_motion_pilot,2023.2.2,Win32,12.69035533,6140ef8d27499e70e8740918,65d6bb0e977760de756971f7,65d6be9256de2f00fa72f92c,0.0333,0.0333,0,88,88,54,1,fourtwo,,,,,,,,,,,,,,,,,,,,,,,,,,,,,,,,,,,,,,,,,,,,,,,,,,,,,,,,,,,,,,,,,,,,,,,,,,,,,,,,,,,,,,,,,,,,,,,,,,,,,,,,,,,,,,,,,,,,,,,,,,,,,,,,,,,,,,,,,
,,6140ef8d27499e70e8740918,2024-02-22_03h25.30.142,kallum_motion_pilot,2023.2.2,Win32,12.69035533,6140ef8d27499e70e8740918,65d6bb0e977760de756971f7,65d6be9256de2f00fa72f92c,0.0334,0.0334,0,89,89,139,1,sixeight,,,,,,,,,,,,,,,,,,,,,,,,,,,,,,,,,,,,,,,,,,,,,,,,,,,,,,,,,,,,,,,,,,,,,,,,,,,,,,,,,,,,,,,,,,,,,,,,,,,,,,,,,,,,,,,,,,,,,,,,,,,,,,,,,,,,,,,,,
,,6140ef8d27499e70e8740918,2024-02-22_03h25.30.142,kallum_motion_pilot,2023.2.2,Win32,12.69035533,6140ef8d27499e70e8740918,65d6bb0e977760de756971f7,65d6be9256de2f00fa72f92c,0.0334,0.0334,0,90,90,25,1,onethree,,,,,,,,,,,,,,,,,,,,,,,,,,,,,,,,,,,,,,,,,,,,,,,,,,,,,,,,,,,,,,,,,,,,,,,,,,,,,,,,,,,,,,,,,,,,,,,,,,,,,,,,,,,,,,,,,,,,,,,,,,,,,,,,,,,,,,,,,
,,6140ef8d27499e70e8740918,2024-02-22_03h25.30.142,kallum_motion_pilot,2023.2.2,Win32,12.69035533,6140ef8d27499e70e8740918,65d6bb0e977760de756971f7,65d6be9256de2f00fa72f92c,0.0336,0.0336,0,91,91,45,1,threefour,,,,,,,,,,,,,,,,,,,,,,,,,,,,,,,,,,,,,,,,,,,,,,,,,,,,,,,,,,,,,,,,,,,,,,,,,,,,,,,,,,,,,,,,,,,,,,,,,,,,,,,,,,,,,,,,,,,,,,,,,,,,,,,,,,,,,,,,,
,,6140ef8d27499e70e8740918,2024-02-22_03h25.30.142,kallum_motion_pilot,2023.2.2,Win32,12.69035533,6140ef8d27499e70e8740918,65d6bb0e977760de756971f7,65d6be9256de2f00fa72f92c,0.0336,0.0336,0,92,92,26,1,twoone,,,,,,,,,,,,,,,,,,,,,,,,,,,,,,,,,,,,,,,,,,,,,,,,,,,,,,,,,,,,,,,,,,,,,,,,,,,,,,,,,,,,,,,,,,,,,,,,,,,,,,,,,,,,,,,,,,,,,,,,,,,,,,,,,,,,,,,,,
,,6140ef8d27499e70e8740918,2024-02-22_03h25.30.142,kallum_motion_pilot,2023.2.2,Win32,12.69035533,6140ef8d27499e70e8740918,65d6bb0e977760de756971f7,65d6be9256de2f00fa72f92c,0.0337,0.0337,0,93,93,21,1,threefour,,,,,,,,,,,,,,,,,,,,,,,,,,,,,,,,,,,,,,,,,,,,,,,,,,,,,,,,,,,,,,,,,,,,,,,,,,,,,,,,,,,,,,,,,,,,,,,,,,,,,,,,,,,,,,,,,,,,,,,,,,,,,,,,,,,,,,,,,
,,6140ef8d27499e70e8740918,2024-02-22_03h25.30.142,kallum_motion_pilot,2023.2.2,Win32,12.69035533,6140ef8d27499e70e8740918,65d6bb0e977760de756971f7,65d6be9256de2f00fa72f92c,0.0338,0.0338,0,94,94,53,1,threefour,,,,,,,,,,,,,,,,,,,,,,,,,,,,,,,,,,,,,,,,,,,,,,,,,,,,,,,,,,,,,,,,,,,,,,,,,,,,,,,,,,,,,,,,,,,,,,,,,,,,,,,,,,,,,,,,,,,,,,,,,,,,,,,,,,,,,,,,,
,,6140ef8d27499e70e8740918,2024-02-22_03h25.30.142,kallum_motion_pilot,2023.2.2,Win32,12.69035533,6140ef8d27499e70e8740918,65d6bb0e977760de756971f7,65d6be9256de2f00fa72f92c,0.0338,0.0338,0,95,95,33,1,onethree,,,,,,,,,,,,,,,,,,,,,,,,,,,,,,,,,,,,,,,,,,,,,,,,,,,,,,,,,,,,,,,,,,,,,,,,,,,,,,,,,,,,,,,,,,,,,,,,,,,,,,,,,,,,,,,,,,,,,,,,,,,,,,,,,,,,,,,,,
,,6140ef8d27499e70e8740918,2024-02-22_03h25.30.142,kallum_motion_pilot,2023.2.2,Win32,12.69035533,6140ef8d27499e70e8740918,65d6bb0e977760de756971f7,65d6be9256de2f00fa72f92c,0.0339,0.034,0,96,96,111,1,eightseven,,,,,,,,,,,,,,,,,,,,,,,,,,,,,,,,,,,,,,,,,,,,,,,,,,,,,,,,,,,,,,,,,,,,,,,,,,,,,,,,,,,,,,,,,,,,,,,,,,,,,,,,,,,,,,,,,,,,,,,,,,,,,,,,,,,,,,,,,
,,6140ef8d27499e70e8740918,2024-02-22_03h25.30.142,kallum_motion_pilot,2023.2.2,Win32,12.69035533,6140ef8d27499e70e8740918,65d6bb0e977760de756971f7,65d6be9256de2f00fa72f92c,0.034,0.034,0,97,97,10,1,twoone,,,,,,,,,,,,,,,,,,,,,,,,,,,,,,,,,,,,,,,,,,,,,,,,,,,,,,,,,,,,,,,,,,,,,,,,,,,,,,,,,,,,,,,,,,,,,,,,,,,,,,,,,,,,,,,,,,,,,,,,,,,,,,,,,,,,,,,,,
,,6140ef8d27499e70e8740918,2024-02-22_03h25.30.142,kallum_motion_pilot,2023.2.2,Win32,12.69035533,6140ef8d27499e70e8740918,65d6bb0e977760de756971f7,65d6be9256de2f00fa72f92c,0.034,0.0341,0,98,98,38,1,fourtwo,,,,,,,,,,,,,,,,,,,,,,,,,,,,,,,,,,,,,,,,,,,,,,,,,,,,,,,,,,,,,,,,,,,,,,,,,,,,,,,,,,,,,,,,,,,,,,,,,,,,,,,,,,,,,,,,,,,,,,,,,,,,,,,,,,,,,,,,,
,,6140ef8d27499e70e8740918,2024-02-22_03h25.30.142,kallum_motion_pilot,2023.2.2,Win32,12.69035533,6140ef8d27499e70e8740918,65d6bb0e977760de756971f7,65d6be9256de2f00fa72f92c,0.0341,0.0342,0,99,99,69,1,threefour,,,,,,,,,,,,,,,,,,,,,,,,,,,,,,,,,,,,,,,,,,,,,,,,,,,,,,,,,,,,,,,,,,,,,,,,,,,,,,,,,,,,,,,,,,,,,,,,,,,,,,,,,,,,,,,,,,,,,,,,,,,,,,,,,,,,,,,,,
,,6140ef8d27499e70e8740918,2024-02-22_03h25.30.142,kallum_motion_pilot,2023.2.2,Win32,12.69035533,6140ef8d27499e70e8740918,65d6bb0e977760de756971f7,65d6be9256de2f00fa72f92c,0.0342,0.0342,0,100,100,18,1,twoone,,,,,,,,,,,,,,,,,,,,,,,,,,,,,,,,,,,,,,,,,,,,,,,,,,,,,,,,,,,,,,,,,,,,,,,,,,,,,,,,,,,,,,,,,,,,,,,,,,,,,,,,,,,,,,,,,,,,,,,,,,,,,,,,,,,,,,,,,
,,6140ef8d27499e70e8740918,2024-02-22_03h25.30.142,kallum_motion_pilot,2023.2.2,Win32,12.69035533,6140ef8d27499e70e8740918,65d6bb0e977760de756971f7,65d6be9256de2f00fa72f92c,0.0343,0.0343,0,101,101,20,1,threeone,,,,,,,,,,,,,,,,,,,,,,,,,,,,,,,,,,,,,,,,,,,,,,,,,,,,,,,,,,,,,,,,,,,,,,,,,,,,,,,,,,,,,,,,,,,,,,,,,,,,,,,,,,,,,,,,,,,,,,,,,,,,,,,,,,,,,,,,,
,,6140ef8d27499e70e8740918,2024-02-22_03h25.30.142,kallum_motion_pilot,2023.2.2,Win32,12.69035533,6140ef8d27499e70e8740918,65d6bb0e977760de756971f7,65d6be9256de2f00fa72f92c,0.0344,0.0344,0,102,102,130,1,sixfive,,,,,,,,,,,,,,,,,,,,,,,,,,,,,,,,,,,,,,,,,,,,,,,,,,,,,,,,,,,,,,,,,,,,,,,,,,,,,,,,,,,,,,,,,,,,,,,,,,,,,,,,,,,,,,,,,,,,,,,,,,,,,,,,,,,,,,,,,
,,6140ef8d27499e70e8740918,2024-02-22_03h25.30.142,kallum_motion_pilot,2023.2.2,Win32,12.69035533,6140ef8d27499e70e8740918,65d6bb0e977760de756971f7,65d6be9256de2f00fa72f92c,0.0344,0.0344,0,103,103,89,1,fiveseven,,,,,,,,,,,,,,,,,,,,,,,,,,,,,,,,,,,,,,,,,,,,,,,,,,,,,,,,,,,,,,,,,,,,,,,,,,,,,,,,,,,,,,,,,,,,,,,,,,,,,,,,,,,,,,,,,,,,,,,,,,,,,,,,,,,,,,,,,
,,6140ef8d27499e70e8740918,2024-02-22_03h25.30.142,kallum_motion_pilot,2023.2.2,Win32,12.69035533,6140ef8d27499e70e8740918,65d6bb0e977760de756971f7,65d6be9256de2f00fa72f92c,0.0345,0.0346,0,104,104,161,1,fiveseven,,,,,,,,,,,,,,,,,,,,,,,,,,,,,,,,,,,,,,,,,,,,,,,,,,,,,,,,,,,,,,,,,,,,,,,,,,,,,,,,,,,,,,,,,,,,,,,,,,,,,,,,,,,,,,,,,,,,,,,,,,,,,,,,,,,,,,,,,
,,6140ef8d27499e70e8740918,2024-02-22_03h25.30.142,kallum_motion_pilot,2023.2.2,Win32,12.69035533,6140ef8d27499e70e8740918,65d6bb0e977760de756971f7,65d6be9256de2f00fa72f92c,0.0346,0.0347,0,105,105,83,1,sixeight,,,,,,,,,,,,,,,,,,,,,,,,,,,,,,,,,,,,,,,,,,,,,,,,,,,,,,,,,,,,,,,,,,,,,,,,,,,,,,,,,,,,,,,,,,,,,,,,,,,,,,,,,,,,,,,,,,,,,,,,,,,,,,,,,,,,,,,,,
,,6140ef8d27499e70e8740918,2024-02-22_03h25.30.142,kallum_motion_pilot,2023.2.2,Win32,12.69035533,6140ef8d27499e70e8740918,65d6bb0e977760de756971f7,65d6be9256de2f00fa72f92c,0.0347,0.0347,0,106,106,56,1,onetwo,,,,,,,,,,,,,,,,,,,,,,,,,,,,,,,,,,,,,,,,,,,,,,,,,,,,,,,,,,,,,,,,,,,,,,,,,,,,,,,,,,,,,,,,,,,,,,,,,,,,,,,,,,,,,,,,,,,,,,,,,,,,,,,,,,,,,,,,,
,,6140ef8d27499e70e8740918,2024-02-22_03h25.30.142,kallum_motion_pilot,2023.2.2,Win32,12.69035533,6140ef8d27499e70e8740918,65d6bb0e977760de756971f7,65d6be9256de2f00fa72f92c,0.0348,0.0348,0,107,107,1,1,onethree,,,,,,,,,,,,,,,,,,,,,,,,,,,,,,,,,,,,,,,,,,,,,,,,,,,,,,,,,,,,,,,,,,,,,,,,,,,,,,,,,,,,,,,,,,,,,,,,,,,,,,,,,,,,,,,,,,,,,,,,,,,,,,,,,,,,,,,,,
,,6140ef8d27499e70e8740918,2024-02-22_03h25.30.142,kallum_motion_pilot,2023.2.2,Win32,12.69035533,6140ef8d27499e70e8740918,65d6bb0e977760de756971f7,65d6be9256de2f00fa72f92c,0.0349,0.0349,0,108,108,11,1,twofour,,,,,,,,,,,,,,,,,,,,,,,,,,,,,,,,,,,,,,,,,,,,,,,,,,,,,,,,,,,,,,,,,,,,,,,,,,,,,,,,,,,,,,,,,,,,,,,,,,,,,,,,,,,,,,,,,,,,,,,,,,,,,,,,,,,,,,,,,
,,6140ef8d27499e70e8740918,2024-02-22_03h25.30.142,kallum_motion_pilot,2023.2.2,Win32,12.69035533,6140ef8d27499e70e8740918,65d6bb0e977760de756971f7,65d6be9256de2f00fa72f92c,0.035,0.035,0,109,109,131,1,sixeight,,,,,,,,,,,,,,,,,,,,,,,,,,,,,,,,,,,,,,,,,,,,,,,,,,,,,,,,,,,,,,,,,,,,,,,,,,,,,,,,,,,,,,,,,,,,,,,,,,,,,,,,,,,,,,,,,,,,,,,,,,,,,,,,,,,,,,,,,
,,6140ef8d27499e70e8740918,2024-02-22_03h25.30.142,kallum_motion_pilot,2023.2.2,Win32,12.69035533,6140ef8d27499e70e8740918,65d6bb0e977760de756971f7,65d6be9256de2f00fa72f92c,0.035,0.0351,0,110,110,52,1,threeone,,,,,,,,,,,,,,,,,,,,,,,,,,,,,,,,,,,,,,,,,,,,,,,,,,,,,,,,,,,,,,,,,,,,,,,,,,,,,,,,,,,,,,,,,,,,,,,,,,,,,,,,,,,,,,,,,,,,,,,,,,,,,,,,,,,,,,,,,
,,6140ef8d27499e70e8740918,2024-02-22_03h25.30.142,kallum_motion_pilot,2023.2.2,Win32,12.69035533,6140ef8d27499e70e8740918,65d6bb0e977760de756971f7,65d6be9256de2f00fa72f92c,0.0351,0.0351,0,111,111,159,1,eightseven,,,,,,,,,,,,,,,,,,,,,,,,,,,,,,,,,,,,,,,,,,,,,,,,,,,,,,,,,,,,,,,,,,,,,,,,,,,,,,,,,,,,,,,,,,,,,,,,,,,,,,,,,,,,,,,,,,,,,,,,,,,,,,,,,,,,,,,,,
,,6140ef8d27499e70e8740918,2024-02-22_03h25.30.142,kallum_motion_pilot,2023.2.2,Win32,12.69035533,6140ef8d27499e70e8740918,65d6bb0e977760de756971f7,65d6be9256de2f00fa72f92c,0.0352,0.0352,0,112,112,84,1,sevenfive,,,,,,,,,,,,,,,,,,,,,,,,,,,,,,,,,,,,,,,,,,,,,,,,,,,,,,,,,,,,,,,,,,,,,,,,,,,,,,,,,,,,,,,,,,,,,,,,,,,,,,,,,,,,,,,,,,,,,,,,,,,,,,,,,,,,,,,,,
,,6140ef8d27499e70e8740918,2024-02-22_03h25.30.142,kallum_motion_pilot,2023.2.2,Win32,12.69035533,6140ef8d27499e70e8740918,65d6bb0e977760de756971f7,65d6be9256de2f00fa72f92c,0.0353,0.0353,0,113,113,17,1,onethree,,,,,,,,,,,,,,,,,,,,,,,,,,,,,,,,,,,,,,,,,,,,,,,,,,,,,,,,,,,,,,,,,,,,,,,,,,,,,,,,,,,,,,,,,,,,,,,,,,,,,,,,,,,,,,,,,,,,,,,,,,,,,,,,,,,,,,,,,
,,6140ef8d27499e70e8740918,2024-02-22_03h25.30.142,kallum_motion_pilot,2023.2.2,Win32,12.69035533,6140ef8d27499e70e8740918,65d6bb0e977760de756971f7,65d6be9256de2f00fa72f92c,0.0353,0.0353,0,114,114,15,1,fourthree,,,,,,,,,,,,,,,,,,,,,,,,,,,,,,,,,,,,,,,,,,,,,,,,,,,,,,,,,,,,,,,,,,,,,,,,,,,,,,,,,,,,,,,,,,,,,,,,,,,,,,,,,,,,,,,,,,,,,,,,,,,,,,,,,,,,,,,,,
,,6140ef8d27499e70e8740918,2024-02-22_03h25.30.142,kallum_motion_pilot,2023.2.2,Win32,12.69035533,6140ef8d27499e70e8740918,65d6bb0e977760de756971f7,65d6be9256de2f00fa72f92c,0.0354,0.0354,0,115,115,88,1,fivesix,,,,,,,,,,,,,,,,,,,,,,,,,,,,,,,,,,,,,,,,,,,,,,,,,,,,,,,,,,,,,,,,,,,,,,,,,,,,,,,,,,,,,,,,,,,,,,,,,,,,,,,,,,,,,,,,,,,,,,,,,,,,,,,,,,,,,,,,,
,,6140ef8d27499e70e8740918,2024-02-22_03h25.30.142,kallum_motion_pilot,2023.2.2,Win32,12.69035533,6140ef8d27499e70e8740918,65d6bb0e977760de756971f7,65d6be9256de2f00fa72f92c,0.0355,0.0355,0,116,116,146,1,sixfive,,,,,,,,,,,,,,,,,,,,,,,,,,,,,,,,,,,,,,,,,,,,,,,,,,,,,,,,,,,,,,,,,,,,,,,,,,,,,,,,,,,,,,,,,,,,,,,,,,,,,,,,,,,,,,,,,,,,,,,,,,,,,,,,,,,,,,,,,
,,6140ef8d27499e70e8740918,2024-02-22_03h25.30.142,kallum_motion_pilot,2023.2.2,Win32,12.69035533,6140ef8d27499e70e8740918,65d6bb0e977760de756971f7,65d6be9256de2f00fa72f92c,0.0355,0.0356,0,117,117,41,1,onethree,,,,,,,,,,,,,,,,,,,,,,,,,,,,,,,,,,,,,,,,,,,,,,,,,,,,,,,,,,,,,,,,,,,,,,,,,,,,,,,,,,,,,,,,,,,,,,,,,,,,,,,,,,,,,,,,,,,,,,,,,,,,,,,,,,,,,,,,,
,,6140ef8d27499e70e8740918,2024-02-22_03h25.30.142,kallum_motion_pilot,2023.2.2,Win32,12.69035533,6140ef8d27499e70e8740918,65d6bb0e977760de756971f7,65d6be9256de2f00fa72f92c,0.0356,0.0357,0,118,118,96,1,fivesix,,,,,,,,,,,,,,,,,,,,,,,,,,,,,,,,,,,,,,,,,,,,,,,,,,,,,,,,,,,,,,,,,,,,,,,,,,,,,,,,,,,,,,,,,,,,,,,,,,,,,,,,,,,,,,,,,,,,,,,,,,,,,,,,,,,,,,,,,
,,6140ef8d27499e70e8740918,2024-02-22_03h25.30.142,kallum_motion_pilot,2023.2.2,Win32,12.69035533,6140ef8d27499e70e8740918,65d6bb0e977760de756971f7,65d6be9256de2f00fa72f92c,0.0357,0.0357,0,119,119,24,1,onetwo,,,,,,,,,,,,,,,,,,,,,,,,,,,,,,,,,,,,,,,,,,,,,,,,,,,,,,,,,,,,,,,,,,,,,,,,,,,,,,,,,,,,,,,,,,,,,,,,,,,,,,,,,,,,,,,,,,,,,,,,,,,,,,,,,,,,,,,,,
,,6140ef8d27499e70e8740918,2024-02-22_03h25.30.142,kallum_motion_pilot,2023.2.2,Win32,12.69035533,6140ef8d27499e70e8740918,65d6bb0e977760de756971f7,65d6be9256de2f00fa72f92c,0.0357,0.0358,0,120,120,102,1,eightsix,,,,,,,,,,,,,,,,,,,,,,,,,,,,,,,,,,,,,,,,,,,,,,,,,,,,,,,,,,,,,,,,,,,,,,,,,,,,,,,,,,,,,,,,,,,,,,,,,,,,,,,,,,,,,,,,,,,,,,,,,,,,,,,,,,,,,,,,,
,,6140ef8d27499e70e8740918,2024-02-22_03h25.30.142,kallum_motion_pilot,2023.2.2,Win32,12.69035533,6140ef8d27499e70e8740918,65d6bb0e977760de756971f7,65d6be9256de2f00fa72f92c,0.0359,0.0359,0,121,121,142,1,eightsix,,,,,,,,,,,,,,,,,,,,,,,,,,,,,,,,,,,,,,,,,,,,,,,,,,,,,,,,,,,,,,,,,,,,,,,,,,,,,,,,,,,,,,,,,,,,,,,,,,,,,,,,,,,,,,,,,,,,,,,,,,,,,,,,,,,,,,,,,
,,6140ef8d27499e70e8740918,2024-02-22_03h25.30.142,kallum_motion_pilot,2023.2.2,Win32,12.69035533,6140ef8d27499e70e8740918,65d6bb0e977760de756971f7,65d6be9256de2f00fa72f92c,0.0359,0.0359,0,122,122,68,1,threeone,,,,,,,,,,,,,,,,,,,,,,,,,,,,,,,,,,,,,,,,,,,,,,,,,,,,,,,,,,,,,,,,,,,,,,,,,,,,,,,,,,,,,,,,,,,,,,,,,,,,,,,,,,,,,,,,,,,,,,,,,,,,,,,,,,,,,,,,,
,,6140ef8d27499e70e8740918,2024-02-22_03h25.30.142,kallum_motion_pilot,2023.2.2,Win32,12.69035533,6140ef8d27499e70e8740918,65d6bb0e977760de756971f7,65d6be9256de2f00fa72f92c,0.036,0.0361,0,123,123,105,1,fiveseven,,,,,,,,,,,,,,,,,,,,,,,,,,,,,,,,,,,,,,,,,,,,,,,,,,,,,,,,,,,,,,,,,,,,,,,,,,,,,,,,,,,,,,,,,,,,,,,,,,,,,,,,,,,,,,,,,,,,,,,,,,,,,,,,,,,,,,,,,
,,6140ef8d27499e70e8740918,2024-02-22_03h25.30.142,kallum_motion_pilot,2023.2.2,Win32,12.69035533,6140ef8d27499e70e8740918,65d6bb0e977760de756971f7,65d6be9256de2f00fa72f92c,0.0361,0.0361,0,124,124,154,1,sixfive,,,,,,,,,,,,,,,,,,,,,,,,,,,,,,,,,,,,,,,,,,,,,,,,,,,,,,,,,,,,,,,,,,,,,,,,,,,,,,,,,,,,,,,,,,,,,,,,,,,,,,,,,,,,,,,,,,,,,,,,,,,,,,,,,,,,,,,,,
,,6140ef8d27499e70e8740918,2024-02-22_03h25.30.142,kallum_motion_pilot,2023.2.2,Win32,12.69035533,6140ef8d27499e70e8740918,65d6bb0e977760de756971f7,65d6be9256de2f00fa72f92c,0.0362,0.0363,0,125,125,147,1,sixeight,,,,,,,,,,,,,,,,,,,,,,,,,,,,,,,,,,,,,,,,,,,,,,,,,,,,,,,,,,,,,,,,,,,,,,,,,,,,,,,,,,,,,,,,,,,,,,,,,,,,,,,,,,,,,,,,,,,,,,,,,,,,,,,,,,,,,,,,,
,,6140ef8d27499e70e8740918,2024-02-22_03h25.30.142,kallum_motion_pilot,2023.2.2,Win32,12.69035533,6140ef8d27499e70e8740918,65d6bb0e977760de756971f7,65d6be9256de2f00fa72f92c,0.0363,0.0363,0,126,126,104,1,fivesix,,,,,,,,,,,,,,,,,,,,,,,,,,,,,,,,,,,,,,,,,,,,,,,,,,,,,,,,,,,,,,,,,,,,,,,,,,,,,,,,,,,,,,,,,,,,,,,,,,,,,,,,,,,,,,,,,,,,,,,,,,,,,,,,,,,,,,,,,
,,6140ef8d27499e70e8740918,2024-02-22_03h25.30.142,kallum_motion_pilot,2023.2.2,Win32,12.69035533,6140ef8d27499e70e8740918,65d6bb0e977760de756971f7,65d6be9256de2f00fa72f92c,0.0364,0.0364,0,127,127,36,1,threeone,,,,,,,,,,,,,,,,,,,,,,,,,,,,,,,,,,,,,,,,,,,,,,,,,,,,,,,,,,,,,,,,,,,,,,,,,,,,,,,,,,,,,,,,,,,,,,,,,,,,,,,,,,,,,,,,,,,,,,,,,,,,,,,,,,,,,,,,,
,,6140ef8d27499e70e8740918,2024-02-22_03h25.30.142,kallum_motion_pilot,2023.2.2,Win32,12.69035533,6140ef8d27499e70e8740918,65d6bb0e977760de756971f7,65d6be9256de2f00fa72f92c,0.0365,0.0365,0,128,128,66,1,twoone,,,,,,,,,,,,,,,,,,,,,,,,,,,,,,,,,,,,,,,,,,,,,,,,,,,,,,,,,,,,,,,,,,,,,,,,,,,,,,,,,,,,,,,,,,,,,,,,,,,,,,,,,,,,,,,,,,,,,,,,,,,,,,,,,,,,,,,,,
,,6140ef8d27499e70e8740918,2024-02-22_03h25.30.142,kallum_motion_pilot,2023.2.2,Win32,12.69035533,6140ef8d27499e70e8740918,65d6bb0e977760de756971f7,65d6be9256de2f00fa72f92c,0.0365,0.0367,0,129,129,28,1,threeone,,,,,,,,,,,,,,,,,,,,,,,,,,,,,,,,,,,,,,,,,,,,,,,,,,,,,,,,,,,,,,,,,,,,,,,,,,,,,,,,,,,,,,,,,,,,,,,,,,,,,,,,,,,,,,,,,,,,,,,,,,,,,,,,,,,,,,,,,
,,6140ef8d27499e70e8740918,2024-02-22_03h25.30.142,kallum_motion_pilot,2023.2.2,Win32,12.69035533,6140ef8d27499e70e8740918,65d6bb0e977760de756971f7,65d6be9256de2f00fa72f92c,0.0367,0.0368,0,130,130,117,1,seveneight,,,,,,,,,,,,,,,,,,,,,,,,,,,,,,,,,,,,,,,,,,,,,,,,,,,,,,,,,,,,,,,,,,,,,,,,,,,,,,,,,,,,,,,,,,,,,,,,,,,,,,,,,,,,,,,,,,,,,,,,,,,,,,,,,,,,,,,,,
,,6140ef8d27499e70e8740918,2024-02-22_03h25.30.142,kallum_motion_pilot,2023.2.2,Win32,12.69035533,6140ef8d27499e70e8740918,65d6bb0e977760de756971f7,65d6be9256de2f00fa72f92c,0.0369,0.037,0,131,131,99,1,sixeight,,,,,,,,,,,,,,,,,,,,,,,,,,,,,,,,,,,,,,,,,,,,,,,,,,,,,,,,,,,,,,,,,,,,,,,,,,,,,,,,,,,,,,,,,,,,,,,,,,,,,,,,,,,,,,,,,,,,,,,,,,,,,,,,,,,,,,,,,
,,6140ef8d27499e70e8740918,2024-02-22_03h25.30.142,kallum_motion_pilot,2023.2.2,Win32,12.69035533,6140ef8d27499e70e8740918,65d6bb0e977760de756971f7,65d6be9256de2f00fa72f92c,0.037,0.0371,0,132,132,158,1,eightsix,,,,,,,,,,,,,,,,,,,,,,,,,,,,,,,,,,,,,,,,,,,,,,,,,,,,,,,,,,,,,,,,,,,,,,,,,,,,,,,,,,,,,,,,,,,,,,,,,,,,,,,,,,,,,,,,,,,,,,,,,,,,,,,,,,,,,,,,,
,,6140ef8d27499e70e8740918,2024-02-22_03h25.30.142,kallum_motion_pilot,2023.2.2,Win32,12.69035533,6140ef8d27499e70e8740918,65d6bb0e977760de756971f7,65d6be9256de2f00fa72f92c,0.0371,0.0371,0,133,133,32,1,onetwo,,,,,,,,,,,,,,,,,,,,,,,,,,,,,,,,,,,,,,,,,,,,,,,,,,,,,,,,,,,,,,,,,,,,,,,,,,,,,,,,,,,,,,,,,,,,,,,,,,,,,,,,,,,,,,,,,,,,,,,,,,,,,,,,,,,,,,,,,
,,6140ef8d27499e70e8740918,2024-02-22_03h25.30.142,kallum_motion_pilot,2023.2.2,Win32,12.69035533,6140ef8d27499e70e8740918,65d6bb0e977760de756971f7,65d6be9256de2f00fa72f92c,0.0371,0.0372,0,134,134,101,1,seveneight,,,,,,,,,,,,,,,,,,,,,,,,,,,,,,,,,,,,,,,,,,,,,,,,,,,,,,,,,,,,,,,,,,,,,,,,,,,,,,,,,,,,,,,,,,,,,,,,,,,,,,,,,,,,,,,,,,,,,,,,,,,,,,,,,,,,,,,,,
,,6140ef8d27499e70e8740918,2024-02-22_03h25.30.142,kallum_motion_pilot,2023.2.2,Win32,12.69035533,6140ef8d27499e70e8740918,65d6bb0e977760de756971f7,65d6be9256de2f00fa72f92c,0.0373,0.0373,0,135,135,137,1,fiveseven,,,,,,,,,,,,,,,,,,,,,,,,,,,,,,,,,,,,,,,,,,,,,,,,,,,,,,,,,,,,,,,,,,,,,,,,,,,,,,,,,,,,,,,,,,,,,,,,,,,,,,,,,,,,,,,,,,,,,,,,,,,,,,,,,,,,,,,,,
,,6140ef8d27499e70e8740918,2024-02-22_03h25.30.142,kallum_motion_pilot,2023.2.2,Win32,12.69035533,6140ef8d27499e70e8740918,65d6bb0e977760de756971f7,65d6be9256de2f00fa72f92c,0.0373,0.0375,0,136,136,107,1,sixeight,,,,,,,,,,,,,,,,,,,,,,,,,,,,,,,,,,,,,,,,,,,,,,,,,,,,,,,,,,,,,,,,,,,,,,,,,,,,,,,,,,,,,,,,,,,,,,,,,,,,,,,,,,,,,,,,,,,,,,,,,,,,,,,,,,,,,,,,,
,,6140ef8d27499e70e8740918,2024-02-22_03h25.30.142,kallum_motion_pilot,2023.2.2,Win32,12.69035533,6140ef8d27499e70e8740918,65d6bb0e977760de756971f7,65d6be9256de2f00fa72f92c,0.0375,0.0375,0,137,137,37,1,threefour,,,,,,,,,,,,,,,,,,,,,,,,,,,,,,,,,,,,,,,,,,,,,,,,,,,,,,,,,,,,,,,,,,,,,,,,,,,,,,,,,,,,,,,,,,,,,,,,,,,,,,,,,,,,,,,,,,,,,,,,,,,,,,,,,,,,,,,,,
,,6140ef8d27499e70e8740918,2024-02-22_03h25.30.142,kallum_motion_pilot,2023.2.2,Win32,12.69035533,6140ef8d27499e70e8740918,65d6bb0e977760de756971f7,65d6be9256de2f00fa72f92c,0.0376,0.0376,0,138,138,64,1,onetwo,,,,,,,,,,,,,,,,,,,,,,,,,,,,,,,,,,,,,,,,,,,,,,,,,,,,,,,,,,,,,,,,,,,,,,,,,,,,,,,,,,,,,,,,,,,,,,,,,,,,,,,,,,,,,,,,,,,,,,,,,,,,,,,,,,,,,,,,,
,,6140ef8d27499e70e8740918,2024-02-22_03h25.30.142,kallum_motion_pilot,2023.2.2,Win32,12.69035533,6140ef8d27499e70e8740918,65d6bb0e977760de756971f7,65d6be9256de2f00fa72f92c,0.0377,0.0377,0,139,139,80,1,fivesix,,,,,,,,,,,,,,,,,,,,,,,,,,,,,,,,,,,,,,,,,,,,,,,,,,,,,,,,,,,,,,,,,,,,,,,,,,,,,,,,,,,,,,,,,,,,,,,,,,,,,,,,,,,,,,,,,,,,,,,,,,,,,,,,,,,,,,,,,
,,6140ef8d27499e70e8740918,2024-02-22_03h25.30.142,kallum_motion_pilot,2023.2.2,Win32,12.69035533,6140ef8d27499e70e8740918,65d6bb0e977760de756971f7,65d6be9256de2f00fa72f92c,0.0377,0.0378,0,140,140,115,1,sixeight,,,,,,,,,,,,,,,,,,,,,,,,,,,,,,,,,,,,,,,,,,,,,,,,,,,,,,,,,,,,,,,,,,,,,,,,,,,,,,,,,,,,,,,,,,,,,,,,,,,,,,,,,,,,,,,,,,,,,,,,,,,,,,,,,,,,,,,,,
,,6140ef8d27499e70e8740918,2024-02-22_03h25.30.142,kallum_motion_pilot,2023.2.2,Win32,12.69035533,6140ef8d27499e70e8740918,65d6bb0e977760de756971f7,65d6be9256de2f00fa72f92c,0.0378,0.0379,0,141,141,76,1,threeone,,,,,,,,,,,,,,,,,,,,,,,,,,,,,,,,,,,,,,,,,,,,,,,,,,,,,,,,,,,,,,,,,,,,,,,,,,,,,,,,,,,,,,,,,,,,,,,,,,,,,,,,,,,,,,,,,,,,,,,,,,,,,,,,,,,,,,,,,
,,6140ef8d27499e70e8740918,2024-02-22_03h25.30.142,kallum_motion_pilot,2023.2.2,Win32,12.69035533,6140ef8d27499e70e8740918,65d6bb0e977760de756971f7,65d6be9256de2f00fa72f92c,0.0379,0.0379,0,142,142,160,1,fivesix,,,,,,,,,,,,,,,,,,,,,,,,,,,,,,,,,,,,,,,,,,,,,,,,,,,,,,,,,,,,,,,,,,,,,,,,,,,,,,,,,,,,,,,,,,,,,,,,,,,,,,,,,,,,,,,,,,,,,,,,,,,,,,,,,,,,,,,,,
,,6140ef8d27499e70e8740918,2024-02-22_03h25.30.142,kallum_motion_pilot,2023.2.2,Win32,12.69035533,6140ef8d27499e70e8740918,65d6bb0e977760de756971f7,65d6be9256de2f00fa72f92c,0.038,0.038,0,143,143,149,1,seveneight,,,,,,,,,,,,,,,,,,,,,,,,,,,,,,,,,,,,,,,,,,,,,,,,,,,,,,,,,,,,,,,,,,,,,,,,,,,,,,,,,,,,,,,,,,,,,,,,,,,,,,,,,,,,,,,,,,,,,,,,,,,,,,,,,,,,,,,,,
,,6140ef8d27499e70e8740918,2024-02-22_03h25.30.142,kallum_motion_pilot,2023.2.2,Win32,12.69035533,6140ef8d27499e70e8740918,65d6bb0e977760de756971f7,65d6be9256de2f00fa72f92c,0.0381,0.0381,0,144,144,29,1,threefour,,,,,,,,,,,,,,,,,,,,,,,,,,,,,,,,,,,,,,,,,,,,,,,,,,,,,,,,,,,,,,,,,,,,,,,,,,,,,,,,,,,,,,,,,,,,,,,,,,,,,,,,,,,,,,,,,,,,,,,,,,,,,,,,,,,,,,,,,
,,6140ef8d27499e70e8740918,2024-02-22_03h25.30.142,kallum_motion_pilot,2023.2.2,Win32,12.69035533,6140ef8d27499e70e8740918,65d6bb0e977760de756971f7,65d6be9256de2f00fa72f92c,0.0382,0.0382,0,145,145,112,1,fivesix,,,,,,,,,,,,,,,,,,,,,,,,,,,,,,,,,,,,,,,,,,,,,,,,,,,,,,,,,,,,,,,,,,,,,,,,,,,,,,,,,,,,,,,,,,,,,,,,,,,,,,,,,,,,,,,,,,,,,,,,,,,,,,,,,,,,,,,,,
,,6140ef8d27499e70e8740918,2024-02-22_03h25.30.142,kallum_motion_pilot,2023.2.2,Win32,12.69035533,6140ef8d27499e70e8740918,65d6bb0e977760de756971f7,65d6be9256de2f00fa72f92c,0.0382,0.0382,0,146,146,48,1,onetwo,,,,,,,,,,,,,,,,,,,,,,,,,,,,,,,,,,,,,,,,,,,,,,,,,,,,,,,,,,,,,,,,,,,,,,,,,,,,,,,,,,,,,,,,,,,,,,,,,,,,,,,,,,,,,,,,,,,,,,,,,,,,,,,,,,,,,,,,,
,,6140ef8d27499e70e8740918,2024-02-22_03h25.30.142,kallum_motion_pilot,2023.2.2,Win32,12.69035533,6140ef8d27499e70e8740918,65d6bb0e977760de756971f7,65d6be9256de2f00fa72f92c,0.0388,0.0388,0,147,147,129,1,fiveseven,,,,,,,,,,,,,,,,,,,,,,,,,,,,,,,,,,,,,,,,,,,,,,,,,,,,,,,,,,,,,,,,,,,,,,,,,,,,,,,,,,,,,,,,,,,,,,,,,,,,,,,,,,,,,,,,,,,,,,,,,,,,,,,,,,,,,,,,,
,,6140ef8d27499e70e8740918,2024-02-22_03h25.30.142,kallum_motion_pilot,2023.2.2,Win32,12.69035533,6140ef8d27499e70e8740918,65d6bb0e977760de756971f7,65d6be9256de2f00fa72f92c,0.0389,0.039,0,148,148,47,1,fourthree,,,,,,,,,,,,,,,,,,,,,,,,,,,,,,,,,,,,,,,,,,,,,,,,,,,,,,,,,,,,,,,,,,,,,,,,,,,,,,,,,,,,,,,,,,,,,,,,,,,,,,,,,,,,,,,,,,,,,,,,,,,,,,,,,,,,,,,,,
,,6140ef8d27499e70e8740918,2024-02-22_03h25.30.142,kallum_motion_pilot,2023.2.2,Win32,12.69035533,6140ef8d27499e70e8740918,65d6bb0e977760de756971f7,65d6be9256de2f00fa72f92c,0.039,0.0391,0,149,149,148,1,sevenfive,,,,,,,,,,,,,,,,,,,,,,,,,,,,,,,,,,,,,,,,,,,,,,,,,,,,,,,,,,,,,,,,,,,,,,,,,,,,,,,,,,,,,,,,,,,,,,,,,,,,,,,,,,,,,,,,,,,,,,,,,,,,,,,,,,,,,,,,,
,,6140ef8d27499e70e8740918,2024-02-22_03h25.30.142,kallum_motion_pilot,2023.2.2,Win32,12.69035533,6140ef8d27499e70e8740918,65d6bb0e977760de756971f7,65d6be9256de2f00fa72f92c,0.0391,0.0391,0,150,150,50,1,twoone,,,,,,,,,,,,,,,,,,,,,,,,,,,,,,,,,,,,,,,,,,,,,,,,,,,,,,,,,,,,,,,,,,,,,,,,,,,,,,,,,,,,,,,,,,,,,,,,,,,,,,,,,,,,,,,,,,,,,,,,,,,,,,,,,,,,,,,,,
,,6140ef8d27499e70e8740918,2024-02-22_03h25.30.142,kallum_motion_pilot,2023.2.2,Win32,12.69035533,6140ef8d27499e70e8740918,65d6bb0e977760de756971f7,65d6be9256de2f00fa72f92c,0.0392,0.0392,0,151,151,63,1,fourthree,,,,,,,,,,,,,,,,,,,,,,,,,,,,,,,,,,,,,,,,,,,,,,,,,,,,,,,,,,,,,,,,,,,,,,,,,,,,,,,,,,,,,,,,,,,,,,,,,,,,,,,,,,,,,,,,,,,,,,,,,,,,,,,,,,,,,,,,,
,,6140ef8d27499e70e8740918,2024-02-22_03h25.30.142,kallum_motion_pilot,2023.2.2,Win32,12.69035533,6140ef8d27499e70e8740918,65d6bb0e977760de756971f7,65d6be9256de2f00fa72f92c,0.0393,0.0394,0,152,152,134,1,eightsix,,,,,,,,,,,,,,,,,,,,,,,,,,,,,,,,,,,,,,,,,,,,,,,,,,,,,,,,,,,,,,,,,,,,,,,,,,,,,,,,,,,,,,,,,,,,,,,,,,,,,,,,,,,,,,,,,,,,,,,,,,,,,,,,,,,,,,,,,
,,6140ef8d27499e70e8740918,2024-02-22_03h25.30.142,kallum_motion_pilot,2023.2.2,Win32,12.69035533,6140ef8d27499e70e8740918,65d6bb0e977760de756971f7,65d6be9256de2f00fa72f92c,0.0395,0.0395,0,153,153,87,1,eightseven,,,,,,,,,,,,,,,,,,,,,,,,,,,,,,,,,,,,,,,,,,,,,,,,,,,,,,,,,,,,,,,,,,,,,,,,,,,,,,,,,,,,,,,,,,,,,,,,,,,,,,,,,,,,,,,,,,,,,,,,,,,,,,,,,,,,,,,,,
,,6140ef8d27499e70e8740918,2024-02-22_03h25.30.142,kallum_motion_pilot,2023.2.2,Win32,12.69035533,6140ef8d27499e70e8740918,65d6bb0e977760de756971f7,65d6be9256de2f00fa72f92c,0.0396,0.0397,0,154,154,72,1,onetwo,,,,,,,,,,,,,,,,,,,,,,,,,,,,,,,,,,,,,,,,,,,,,,,,,,,,,,,,,,,,,,,,,,,,,,,,,,,,,,,,,,,,,,,,,,,,,,,,,,,,,,,,,,,,,,,,,,,,,,,,,,,,,,,,,,,,,,,,,
,,6140ef8d27499e70e8740918,2024-02-22_03h25.30.142,kallum_motion_pilot,2023.2.2,Win32,12.69035533,6140ef8d27499e70e8740918,65d6bb0e977760de756971f7,65d6be9256de2f00fa72f92c,0.0397,0.0398,0,155,155,27,1,twofour,,,,,,,,,,,,,,,,,,,,,,,,,,,,,,,,,,,,,,,,,,,,,,,,,,,,,,,,,,,,,,,,,,,,,,,,,,,,,,,,,,,,,,,,,,,,,,,,,,,,,,,,,,,,,,,,,,,,,,,,,,,,,,,,,,,,,,,,,
,,6140ef8d27499e70e8740918,2024-02-22_03h25.30.142,kallum_motion_pilot,2023.2.2,Win32,12.69035533,6140ef8d27499e70e8740918,65d6bb0e977760de756971f7,65d6be9256de2f00fa72f92c,0.0399,0.04,0,156,156,71,1,fourthree,,,,,,,,,,,,,,,,,,,,,,,,,,,,,,,,,,,,,,,,,,,,,,,,,,,,,,,,,,,,,,,,,,,,,,,,,,,,,,,,,,,,,,,,,,,,,,,,,,,,,,,,,,,,,,,,,,,,,,,,,,,,,,,,,,,,,,,,,
,,6140ef8d27499e70e8740918,2024-02-22_03h25.30.142,kallum_motion_pilot,2023.2.2,Win32,12.69035533,6140ef8d27499e70e8740918,65d6bb0e977760de756971f7,65d6be9256de2f00fa72f92c,0.0401,0.0401,0,157,157,49,1,onethree,,,,,,,,,,,,,,,,,,,,,,,,,,,,,,,,,,,,,,,,,,,,,,,,,,,,,,,,,,,,,,,,,,,,,,,,,,,,,,,,,,,,,,,,,,,,,,,,,,,,,,,,,,,,,,,,,,,,,,,,,,,,,,,,,,,,,,,,,
,,6140ef8d27499e70e8740918,2024-02-22_03h25.30.142,kallum_motion_pilot,2023.2.2,Win32,12.69035533,6140ef8d27499e70e8740918,65d6bb0e977760de756971f7,65d6be9256de2f00fa72f92c,0.0402,0.0402,0,158,158,82,1,sixfive,,,,,,,,,,,,,,,,,,,,,,,,,,,,,,,,,,,,,,,,,,,,,,,,,,,,,,,,,,,,,,,,,,,,,,,,,,,,,,,,,,,,,,,,,,,,,,,,,,,,,,,,,,,,,,,,,,,,,,,,,,,,,,,,,,,,,,,,,
,,6140ef8d27499e70e8740918,2024-02-22_03h25.30.142,kallum_motion_pilot,2023.2.2,Win32,12.69035533,6140ef8d27499e70e8740918,65d6bb0e977760de756971f7,65d6be9256de2f00fa72f92c,0.0404,0.0404,0,159,159,85,1,seveneight,,,,,,,,,,,,,,,,,,,,,,,,,,,,,,,,,,,,,,,,,,,,,,,,,,,,,,,,,,,,,,,,,,,,,,,,,,,,,,,,,,,,,,,,,,,,,,,,,,,,,,,,,,,,,,,,,,,,,,,,,,,,,,,,,,,,,,,,,
,,6140ef8d27499e70e8740918,2024-02-22_03h25.30.142,kallum_motion_pilot,2023.2.2,Win32,12.69035533,6140ef8d27499e70e8740918,65d6bb0e977760de756971f7,65d6be9256de2f00fa72f92c,0.0404,0.0406,0,160,160,93,1,seveneight,,,,,,,,,,,,,,,,,,,,,,,,,,,,,,,,,,,,,,,,,,,,,,,,,,,,,,,,,,,,,,,,,,,,,,,,,,,,,,,,,,,,,,,,,,,,,,,,,,,,,,,,,,,,,,,,,,,,,,,,,,,,,,,,,,,,,,,,,
,,6140ef8d27499e70e8740918,2024-02-22_03h25.30.142,kallum_motion_pilot,2023.2.2,Win32,12.69035533,6140ef8d27499e70e8740918,65d6bb0e977760de756971f7,65d6be9256de2f00fa72f92c,0.0406,0.0406,0,161,161,4,1,threeone,,,,,,,,,,,,,,,,,,,,,,,,,,,,,,,,,,,,,,,,,,,,,,,,,,,,,,,,,,,,,,,,,,,,,,,,,,,,,,,,,,,,,,,,,,,,,,,,,,,,,,,,,,,,,,,,,,,,,,,,,,,,,,,,,,,,,,,,,
,,6140ef8d27499e70e8740918,2024-02-22_03h25.30.142,kallum_motion_pilot,2023.2.2,Win32,12.69035533,6140ef8d27499e70e8740918,65d6bb0e977760de756971f7,65d6be9256de2f00fa72f92c,0.0407,0.0407,1,0,162,143,1,eightseven,,,,,,,,,,,,,,,,,,,,,,,,,,,,,,,,,,,,,,,,,,,,,,,,,,,,,,,,,,,,,,,,,,,,,,,,,,,,,,,,,,,,,,,,,,,,,,,,,,,,,,,,,,,,,,,,,,,,,,,,,,,,,,,,,,,,,,,,,
,,6140ef8d27499e70e8740918,2024-02-22_03h25.30.142,kallum_motion_pilot,2023.2.2,Win32,12.69035533,6140ef8d27499e70e8740918,65d6bb0e977760de756971f7,65d6be9256de2f00fa72f92c,0.0408,0.0408,1,1,163,44,1,threeone,,,,,,,,,,,,,,,,,,,,,,,,,,,,,,,,,,,,,,,,,,,,,,,,,,,,,,,,,,,,,,,,,,,,,,,,,,,,,,,,,,,,,,,,,,,,,,,,,,,,,,,,,,,,,,,,,,,,,,,,,,,,,,,,,,,,,,,,,
,,6140ef8d27499e70e8740918,2024-02-22_03h25.30.142,kallum_motion_pilot,2023.2.2,Win32,12.69035533,6140ef8d27499e70e8740918,65d6bb0e977760de756971f7,65d6be9256de2f00fa72f92c,0.0408,0.0409,1,2,164,31,1,fourthree,,,,,,,,,,,,,,,,,,,,,,,,,,,,,,,,,,,,,,,,,,,,,,,,,,,,,,,,,,,,,,,,,,,,,,,,,,,,,,,,,,,,,,,,,,,,,,,,,,,,,,,,,,,,,,,,,,,,,,,,,,,,,,,,,,,,,,,,,
,,6140ef8d27499e70e8740918,2024-02-22_03h25.30.142,kallum_motion_pilot,2023.2.2,Win32,12.69035533,6140ef8d27499e70e8740918,65d6bb0e977760de756971f7,65d6be9256de2f00fa72f92c,0.041,0.041,1,3,165,1,1,onethree,,,,,,,,,,,,,,,,,,,,,,,,,,,,,,,,,,,,,,,,,,,,,,,,,,,,,,,,,,,,,,,,,,,,,,,,,,,,,,,,,,,,,,,,,,,,,,,,,,,,,,,,,,,,,,,,,,,,,,,,,,,,,,,,,,,,,,,,,
,,6140ef8d27499e70e8740918,2024-02-22_03h25.30.142,kallum_motion_pilot,2023.2.2,Win32,12.69035533,6140ef8d27499e70e8740918,65d6bb0e977760de756971f7,65d6be9256de2f00fa72f92c,0.0411,0.0411,1,4,166,41,1,onethree,,,,,,,,,,,,,,,,,,,,,,,,,,,,,,,,,,,,,,,,,,,,,,,,,,,,,,,,,,,,,,,,,,,,,,,,,,,,,,,,,,,,,,,,,,,,,,,,,,,,,,,,,,,,,,,,,,,,,,,,,,,,,,,,,,,,,,,,,
,,6140ef8d27499e70e8740918,2024-02-22_03h25.30.142,kallum_motion_pilot,2023.2.2,Win32,12.69035533,6140ef8d27499e70e8740918,65d6bb0e977760de756971f7,65d6be9256de2f00fa72f92c,0.0412,0.0412,1,5,167,72,1,onetwo,,,,,,,,,,,,,,,,,,,,,,,,,,,,,,,,,,,,,,,,,,,,,,,,,,,,,,,,,,,,,,,,,,,,,,,,,,,,,,,,,,,,,,,,,,,,,,,,,,,,,,,,,,,,,,,,,,,,,,,,,,,,,,,,,,,,,,,,,
,,6140ef8d27499e70e8740918,2024-02-22_03h25.30.142,kallum_motion_pilot,2023.2.2,Win32,12.69035533,6140ef8d27499e70e8740918,65d6bb0e977760de756971f7,65d6be9256de2f00fa72f92c,0.0413,0.0413,1,6,168,11,1,twofour,,,,,,,,,,,,,,,,,,,,,,,,,,,,,,,,,,,,,,,,,,,,,,,,,,,,,,,,,,,,,,,,,,,,,,,,,,,,,,,,,,,,,,,,,,,,,,,,,,,,,,,,,,,,,,,,,,,,,,,,,,,,,,,,,,,,,,,,,
,,6140ef8d27499e70e8740918,2024-02-22_03h25.30.142,kallum_motion_pilot,2023.2.2,Win32,12.69035533,6140ef8d27499e70e8740918,65d6bb0e977760de756971f7,65d6be9256de2f00fa72f92c,0.0413,0.0413,1,7,169,40,1,onetwo,,,,,,,,,,,,,,,,,,,,,,,,,,,,,,,,,,,,,,,,,,,,,,,,,,,,,,,,,,,,,,,,,,,,,,,,,,,,,,,,,,,,,,,,,,,,,,,,,,,,,,,,,,,,,,,,,,,,,,,,,,,,,,,,,,,,,,,,,
,,6140ef8d27499e70e8740918,2024-02-22_03h25.30.142,kallum_motion_pilot,2023.2.2,Win32,12.69035533,6140ef8d27499e70e8740918,65d6bb0e977760de756971f7,65d6be9256de2f00fa72f92c,0.0415,0.0415,1,8,170,104,1,fivesix,,,,,,,,,,,,,,,,,,,,,,,,,,,,,,,,,,,,,,,,,,,,,,,,,,,,,,,,,,,,,,,,,,,,,,,,,,,,,,,,,,,,,,,,,,,,,,,,,,,,,,,,,,,,,,,,,,,,,,,,,,,,,,,,,,,,,,,,,
,,6140ef8d27499e70e8740918,2024-02-22_03h25.30.142,kallum_motion_pilot,2023.2.2,Win32,12.69035533,6140ef8d27499e70e8740918,65d6bb0e977760de756971f7,65d6be9256de2f00fa72f92c,0.0415,0.0416,1,9,171,64,1,onetwo,,,,,,,,,,,,,,,,,,,,,,,,,,,,,,,,,,,,,,,,,,,,,,,,,,,,,,,,,,,,,,,,,,,,,,,,,,,,,,,,,,,,,,,,,,,,,,,,,,,,,,,,,,,,,,,,,,,,,,,,,,,,,,,,,,,,,,,,,
,,6140ef8d27499e70e8740918,2024-02-22_03h25.30.142,kallum_motion_pilot,2023.2.2,Win32,12.69035533,6140ef8d27499e70e8740918,65d6bb0e977760de756971f7,65d6be9256de2f00fa72f92c,0.0416,0.0416,1,10,172,51,1,twofour,,,,,,,,,,,,,,,,,,,,,,,,,,,,,,,,,,,,,,,,,,,,,,,,,,,,,,,,,,,,,,,,,,,,,,,,,,,,,,,,,,,,,,,,,,,,,,,,,,,,,,,,,,,,,,,,,,,,,,,,,,,,,,,,,,,,,,,,,
,,6140ef8d27499e70e8740918,2024-02-22_03h25.30.142,kallum_motion_pilot,2023.2.2,Win32,12.69035533,6140ef8d27499e70e8740918,65d6bb0e977760de756971f7,65d6be9256de2f00fa72f92c,0.0417,0.0417,1,11,173,0,1,onetwo,,,,,,,,,,,,,,,,,,,,,,,,,,,,,,,,,,,,,,,,,,,,,,,,,,,,,,,,,,,,,,,,,,,,,,,,,,,,,,,,,,,,,,,,,,,,,,,,,,,,,,,,,,,,,,,,,,,,,,,,,,,,,,,,,,,,,,,,,
,,6140ef8d27499e70e8740918,2024-02-22_03h25.30.142,kallum_motion_pilot,2023.2.2,Win32,12.69035533,6140ef8d27499e70e8740918,65d6bb0e977760de756971f7,65d6be9256de2f00fa72f92c,0.0418,0.0418,1,12,174,123,1,sixeight,,,,,,,,,,,,,,,,,,,,,,,,,,,,,,,,,,,,,,,,,,,,,,,,,,,,,,,,,,,,,,,,,,,,,,,,,,,,,,,,,,,,,,,,,,,,,,,,,,,,,,,,,,,,,,,,,,,,,,,,,,,,,,,,,,,,,,,,,
,,6140ef8d27499e70e8740918,2024-02-22_03h25.30.142,kallum_motion_pilot,2023.2.2,Win32,12.69035533,6140ef8d27499e70e8740918,65d6bb0e977760de756971f7,65d6be9256de2f00fa72f92c,0.0419,0.0419,1,13,175,22,1,fourtwo,,,,,,,,,,,,,,,,,,,,,,,,,,,,,,,,,,,,,,,,,,,,,,,,,,,,,,,,,,,,,,,,,,,,,,,,,,,,,,,,,,,,,,,,,,,,,,,,,,,,,,,,,,,,,,,,,,,,,,,,,,,,,,,,,,,,,,,,,
,,6140ef8d27499e70e8740918,2024-02-22_03h25.30.142,kallum_motion_pilot,2023.2.2,Win32,12.69035533,6140ef8d27499e70e8740918,65d6bb0e977760de756971f7,65d6be9256de2f00fa72f92c,0.0419,0.042,1,14,176,90,1,sixfive,,,,,,,,,,,,,,,,,,,,,,,,,,,,,,,,,,,,,,,,,,,,,,,,,,,,,,,,,,,,,,,,,,,,,,,,,,,,,,,,,,,,,,,,,,,,,,,,,,,,,,,,,,,,,,,,,,,,,,,,,,,,,,,,,,,,,,,,,
,,6140ef8d27499e70e8740918,2024-02-22_03h25.30.142,kallum_motion_pilot,2023.2.2,Win32,12.69035533,6140ef8d27499e70e8740918,65d6bb0e977760de756971f7,65d6be9256de2f00fa72f92c,0.042,0.0421,1,15,177,35,1,twofour,,,,,,,,,,,,,,,,,,,,,,,,,,,,,,,,,,,,,,,,,,,,,,,,,,,,,,,,,,,,,,,,,,,,,,,,,,,,,,,,,,,,,,,,,,,,,,,,,,,,,,,,,,,,,,,,,,,,,,,,,,,,,,,,,,,,,,,,,
,,6140ef8d27499e70e8740918,2024-02-22_03h25.30.142,kallum_motion_pilot,2023.2.2,Win32,12.69035533,6140ef8d27499e70e8740918,65d6bb0e977760de756971f7,65d6be9256de2f00fa72f92c,0.0422,0.0422,1,16,178,94,1,eightsix,,,,,,,,,,,,,,,,,,,,,,,,,,,,,,,,,,,,,,,,,,,,,,,,,,,,,,,,,,,,,,,,,,,,,,,,,,,,,,,,,,,,,,,,,,,,,,,,,,,,,,,,,,,,,,,,,,,,,,,,,,,,,,,,,,,,,,,,,
,,6140ef8d27499e70e8740918,2024-02-22_03h25.30.142,kallum_motion_pilot,2023.2.2,Win32,12.69035533,6140ef8d27499e70e8740918,65d6bb0e977760de756971f7,65d6be9256de2f00fa72f92c,0.0422,0.0422,1,17,179,125,1,seveneight,,,,,,,,,,,,,,,,,,,,,,,,,,,,,,,,,,,,,,,,,,,,,,,,,,,,,,,,,,,,,,,,,,,,,,,,,,,,,,,,,,,,,,,,,,,,,,,,,,,,,,,,,,,,,,,,,,,,,,,,,,,,,,,,,,,,,,,,,
,,6140ef8d27499e70e8740918,2024-02-22_03h25.30.142,kallum_motion_pilot,2023.2.2,Win32,12.69035533,6140ef8d27499e70e8740918,65d6bb0e977760de756971f7,65d6be9256de2f00fa72f92c,0.0424,0.0424,1,18,180,70,1,fourtwo,,,,,,,,,,,,,,,,,,,,,,,,,,,,,,,,,,,,,,,,,,,,,,,,,,,,,,,,,,,,,,,,,,,,,,,,,,,,,,,,,,,,,,,,,,,,,,,,,,,,,,,,,,,,,,,,,,,,,,,,,,,,,,,,,,,,,,,,,
,,6140ef8d27499e70e8740918,2024-02-22_03h25.30.142,kallum_motion_pilot,2023.2.2,Win32,12.69035533,6140ef8d27499e70e8740918,65d6bb0e977760de756971f7,65d6be9256de2f00fa72f92c,0.0424,0.0424,1,19,181,110,1,eightsix,,,,,,,,,,,,,,,,,,,,,,,,,,,,,,,,,,,,,,,,,,,,,,,,,,,,,,,,,,,,,,,,,,,,,,,,,,,,,,,,,,,,,,,,,,,,,,,,,,,,,,,,,,,,,,,,,,,,,,,,,,,,,,,,,,,,,,,,,
,,6140ef8d27499e70e8740918,2024-02-22_03h25.30.142,kallum_motion_pilot,2023.2.2,Win32,12.69035533,6140ef8d27499e70e8740918,65d6bb0e977760de756971f7,65d6be9256de2f00fa72f92c,0.0426,0.0426,1,20,182,101,1,seveneight,,,,,,,,,,,,,,,,,,,,,,,,,,,,,,,,,,,,,,,,,,,,,,,,,,,,,,,,,,,,,,,,,,,,,,,,,,,,,,,,,,,,,,,,,,,,,,,,,,,,,,,,,,,,,,,,,,,,,,,,,,,,,,,,,,,,,,,,,
,,6140ef8d27499e70e8740918,2024-02-22_03h25.30.142,kallum_motion_pilot,2023.2.2,Win32,12.69035533,6140ef8d27499e70e8740918,65d6bb0e977760de756971f7,65d6be9256de2f00fa72f92c,0.0426,0.0426,1,21,183,98,1,sixfive,,,,,,,,,,,,,,,,,,,,,,,,,,,,,,,,,,,,,,,,,,,,,,,,,,,,,,,,,,,,,,,,,,,,,,,,,,,,,,,,,,,,,,,,,,,,,,,,,,,,,,,,,,,,,,,,,,,,,,,,,,,,,,,,,,,,,,,,,
,,6140ef8d27499e70e8740918,2024-02-22_03h25.30.142,kallum_motion_pilot,2023.2.2,Win32,12.69035533,6140ef8d27499e70e8740918,65d6bb0e977760de756971f7,65d6be9256de2f00fa72f92c,0.0427,0.0427,1,22,184,151,1,eightseven,,,,,,,,,,,,,,,,,,,,,,,,,,,,,,,,,,,,,,,,,,,,,,,,,,,,,,,,,,,,,,,,,,,,,,,,,,,,,,,,,,,,,,,,,,,,,,,,,,,,,,,,,,,,,,,,,,,,,,,,,,,,,,,,,,,,,,,,,
,,6140ef8d27499e70e8740918,2024-02-22_03h25.30.142,kallum_motion_pilot,2023.2.2,Win32,12.69035533,6140ef8d27499e70e8740918,65d6bb0e977760de756971f7,65d6be9256de2f00fa72f92c,0.0428,0.0429,1,23,185,157,1,seveneight,,,,,,,,,,,,,,,,,,,,,,,,,,,,,,,,,,,,,,,,,,,,,,,,,,,,,,,,,,,,,,,,,,,,,,,,,,,,,,,,,,,,,,,,,,,,,,,,,,,,,,,,,,,,,,,,,,,,,,,,,,,,,,,,,,,,,,,,,
,,6140ef8d27499e70e8740918,2024-02-22_03h25.30.142,kallum_motion_pilot,2023.2.2,Win32,12.69035533,6140ef8d27499e70e8740918,65d6bb0e977760de756971f7,65d6be9256de2f00fa72f92c,0.0429,0.043,1,24,186,6,1,fourtwo,,,,,,,,,,,,,,,,,,,,,,,,,,,,,,,,,,,,,,,,,,,,,,,,,,,,,,,,,,,,,,,,,,,,,,,,,,,,,,,,,,,,,,,,,,,,,,,,,,,,,,,,,,,,,,,,,,,,,,,,,,,,,,,,,,,,,,,,,
,,6140ef8d27499e70e8740918,2024-02-22_03h25.30.142,kallum_motion_pilot,2023.2.2,Win32,12.69035533,6140ef8d27499e70e8740918,65d6bb0e977760de756971f7,65d6be9256de2f00fa72f92c,0.0431,0.0431,1,25,187,135,1,eightseven,,,,,,,,,,,,,,,,,,,,,,,,,,,,,,,,,,,,,,,,,,,,,,,,,,,,,,,,,,,,,,,,,,,,,,,,,,,,,,,,,,,,,,,,,,,,,,,,,,,,,,,,,,,,,,,,,,,,,,,,,,,,,,,,,,,,,,,,,
,,6140ef8d27499e70e8740918,2024-02-22_03h25.30.142,kallum_motion_pilot,2023.2.2,Win32,12.69035533,6140ef8d27499e70e8740918,65d6bb0e977760de756971f7,65d6be9256de2f00fa72f92c,0.0432,0.0432,1,26,188,111,1,eightseven,,,,,,,,,,,,,,,,,,,,,,,,,,,,,,,,,,,,,,,,,,,,,,,,,,,,,,,,,,,,,,,,,,,,,,,,,,,,,,,,,,,,,,,,,,,,,,,,,,,,,,,,,,,,,,,,,,,,,,,,,,,,,,,,,,,,,,,,,
,,6140ef8d27499e70e8740918,2024-02-22_03h25.30.142,kallum_motion_pilot,2023.2.2,Win32,12.69035533,6140ef8d27499e70e8740918,65d6bb0e977760de756971f7,65d6be9256de2f00fa72f92c,0.0432,0.0433,1,27,189,132,1,sevenfive,,,,,,,,,,,,,,,,,,,,,,,,,,,,,,,,,,,,,,,,,,,,,,,,,,,,,,,,,,,,,,,,,,,,,,,,,,,,,,,,,,,,,,,,,,,,,,,,,,,,,,,,,,,,,,,,,,,,,,,,,,,,,,,,,,,,,,,,,
,,6140ef8d27499e70e8740918,2024-02-22_03h25.30.142,kallum_motion_pilot,2023.2.2,Win32,12.69035533,6140ef8d27499e70e8740918,65d6bb0e977760de756971f7,65d6be9256de2f00fa72f92c,0.0434,0.0434,1,28,190,45,1,threefour,,,,,,,,,,,,,,,,,,,,,,,,,,,,,,,,,,,,,,,,,,,,,,,,,,,,,,,,,,,,,,,,,,,,,,,,,,,,,,,,,,,,,,,,,,,,,,,,,,,,,,,,,,,,,,,,,,,,,,,,,,,,,,,,,,,,,,,,,
,,6140ef8d27499e70e8740918,2024-02-22_03h25.30.142,kallum_motion_pilot,2023.2.2,Win32,12.69035533,6140ef8d27499e70e8740918,65d6bb0e977760de756971f7,65d6be9256de2f00fa72f92c,0.0435,0.0435,1,29,191,15,1,fourthree,,,,,,,,,,,,,,,,,,,,,,,,,,,,,,,,,,,,,,,,,,,,,,,,,,,,,,,,,,,,,,,,,,,,,,,,,,,,,,,,,,,,,,,,,,,,,,,,,,,,,,,,,,,,,,,,,,,,,,,,,,,,,,,,,,,,,,,,,
,,6140ef8d27499e70e8740918,2024-02-22_03h25.30.142,kallum_motion_pilot,2023.2.2,Win32,12.69035533,6140ef8d27499e70e8740918,65d6bb0e977760de756971f7,65d6be9256de2f00fa72f92c,0.0435,0.0436,1,30,192,13,1,threefour,,,,,,,,,,,,,,,,,,,,,,,,,,,,,,,,,,,,,,,,,,,,,,,,,,,,,,,,,,,,,,,,,,,,,,,,,,,,,,,,,,,,,,,,,,,,,,,,,,,,,,,,,,,,,,,,,,,,,,,,,,,,,,,,,,,,,,,,,
,,6140ef8d27499e70e8740918,2024-02-22_03h25.30.142,kallum_motion_pilot,2023.2.2,Win32,12.69035533,6140ef8d27499e70e8740918,65d6bb0e977760de756971f7,65d6be9256de2f00fa72f92c,0.0437,0.0437,1,31,193,20,1,threeone,,,,,,,,,,,,,,,,,,,,,,,,,,,,,,,,,,,,,,,,,,,,,,,,,,,,,,,,,,,,,,,,,,,,,,,,,,,,,,,,,,,,,,,,,,,,,,,,,,,,,,,,,,,,,,,,,,,,,,,,,,,,,,,,,,,,,,,,,
,,6140ef8d27499e70e8740918,2024-02-22_03h25.30.142,kallum_motion_pilot,2023.2.2,Win32,12.69035533,6140ef8d27499e70e8740918,65d6bb0e977760de756971f7,65d6be9256de2f00fa72f92c,0.0438,0.0438,1,32,194,117,1,seveneight,,,,,,,,,,,,,,,,,,,,,,,,,,,,,,,,,,,,,,,,,,,,,,,,,,,,,,,,,,,,,,,,,,,,,,,,,,,,,,,,,,,,,,,,,,,,,,,,,,,,,,,,,,,,,,,,,,,,,,,,,,,,,,,,,,,,,,,,,
,,6140ef8d27499e70e8740918,2024-02-22_03h25.30.142,kallum_motion_pilot,2023.2.2,Win32,12.69035533,6140ef8d27499e70e8740918,65d6bb0e977760de756971f7,65d6be9256de2f00fa72f92c,0.0438,0.0439,1,33,195,79,1,eightseven,,,,,,,,,,,,,,,,,,,,,,,,,,,,,,,,,,,,,,,,,,,,,,,,,,,,,,,,,,,,,,,,,,,,,,,,,,,,,,,,,,,,,,,,,,,,,,,,,,,,,,,,,,,,,,,,,,,,,,,,,,,,,,,,,,,,,,,,,
,,6140ef8d27499e70e8740918,2024-02-22_03h25.30.142,kallum_motion_pilot,2023.2.2,Win32,12.69035533,6140ef8d27499e70e8740918,65d6bb0e977760de756971f7,65d6be9256de2f00fa72f92c,0.0439,0.0439,1,34,196,21,1,threefour,,,,,,,,,,,,,,,,,,,,,,,,,,,,,,,,,,,,,,,,,,,,,,,,,,,,,,,,,,,,,,,,,,,,,,,,,,,,,,,,,,,,,,,,,,,,,,,,,,,,,,,,,,,,,,,,,,,,,,,,,,,,,,,,,,,,,,,,,
,,6140ef8d27499e70e8740918,2024-02-22_03h25.30.142,kallum_motion_pilot,2023.2.2,Win32,12.69035533,6140ef8d27499e70e8740918,65d6bb0e977760de756971f7,65d6be9256de2f00fa72f92c,0.0439,0.044,1,35,197,112,1,fivesix,,,,,,,,,,,,,,,,,,,,,,,,,,,,,,,,,,,,,,,,,,,,,,,,,,,,,,,,,,,,,,,,,,,,,,,,,,,,,,,,,,,,,,,,,,,,,,,,,,,,,,,,,,,,,,,,,,,,,,,,,,,,,,,,,,,,,,,,,
,,6140ef8d27499e70e8740918,2024-02-22_03h25.30.142,kallum_motion_pilot,2023.2.2,Win32,12.69035533,6140ef8d27499e70e8740918,65d6bb0e977760de756971f7,65d6be9256de2f00fa72f92c,0.0441,0.0441,1,36,198,129,1,fiveseven,,,,,,,,,,,,,,,,,,,,,,,,,,,,,,,,,,,,,,,,,,,,,,,,,,,,,,,,,,,,,,,,,,,,,,,,,,,,,,,,,,,,,,,,,,,,,,,,,,,,,,,,,,,,,,,,,,,,,,,,,,,,,,,,,,,,,,,,,
,,6140ef8d27499e70e8740918,2024-02-22_03h25.30.142,kallum_motion_pilot,2023.2.2,Win32,12.69035533,6140ef8d27499e70e8740918,65d6bb0e977760de756971f7,65d6be9256de2f00fa72f92c,0.0442,0.0442,1,37,199,149,1,seveneight,,,,,,,,,,,,,,,,,,,,,,,,,,,,,,,,,,,,,,,,,,,,,,,,,,,,,,,,,,,,,,,,,,,,,,,,,,,,,,,,,,,,,,,,,,,,,,,,,,,,,,,,,,,,,,,,,,,,,,,,,,,,,,,,,,,,,,,,,
,,6140ef8d27499e70e8740918,2024-02-22_03h25.30.142,kallum_motion_pilot,2023.2.2,Win32,12.69035533,6140ef8d27499e70e8740918,65d6bb0e977760de756971f7,65d6be9256de2f00fa72f92c,0.0443,0.0444,1,38,200,47,1,fourthree,,,,,,,,,,,,,,,,,,,,,,,,,,,,,,,,,,,,,,,,,,,,,,,,,,,,,,,,,,,,,,,,,,,,,,,,,,,,,,,,,,,,,,,,,,,,,,,,,,,,,,,,,,,,,,,,,,,,,,,,,,,,,,,,,,,,,,,,,
,,6140ef8d27499e70e8740918,2024-02-22_03h25.30.142,kallum_motion_pilot,2023.2.2,Win32,12.69035533,6140ef8d27499e70e8740918,65d6bb0e977760de756971f7,65d6be9256de2f00fa72f92c,0.0444,0.0444,1,39,201,142,1,eightsix,,,,,,,,,,,,,,,,,,,,,,,,,,,,,,,,,,,,,,,,,,,,,,,,,,,,,,,,,,,,,,,,,,,,,,,,,,,,,,,,,,,,,,,,,,,,,,,,,,,,,,,,,,,,,,,,,,,,,,,,,,,,,,,,,,,,,,,,,
,,6140ef8d27499e70e8740918,2024-02-22_03h25.30.142,kallum_motion_pilot,2023.2.2,Win32,12.69035533,6140ef8d27499e70e8740918,65d6bb0e977760de756971f7,65d6be9256de2f00fa72f92c,0.0445,0.0446,1,40,202,14,1,fourtwo,,,,,,,,,,,,,,,,,,,,,,,,,,,,,,,,,,,,,,,,,,,,,,,,,,,,,,,,,,,,,,,,,,,,,,,,,,,,,,,,,,,,,,,,,,,,,,,,,,,,,,,,,,,,,,,,,,,,,,,,,,,,,,,,,,,,,,,,,
,,6140ef8d27499e70e8740918,2024-02-22_03h25.30.142,kallum_motion_pilot,2023.2.2,Win32,12.69035533,6140ef8d27499e70e8740918,65d6bb0e977760de756971f7,65d6be9256de2f00fa72f92c,0.0446,0.0446,1,41,203,91,1,sixeight,,,,,,,,,,,,,,,,,,,,,,,,,,,,,,,,,,,,,,,,,,,,,,,,,,,,,,,,,,,,,,,,,,,,,,,,,,,,,,,,,,,,,,,,,,,,,,,,,,,,,,,,,,,,,,,,,,,,,,,,,,,,,,,,,,,,,,,,,
,,6140ef8d27499e70e8740918,2024-02-22_03h25.30.142,kallum_motion_pilot,2023.2.2,Win32,12.69035533,6140ef8d27499e70e8740918,65d6bb0e977760de756971f7,65d6be9256de2f00fa72f92c,0.0446,0.0447,1,42,204,3,1,twofour,,,,,,,,,,,,,,,,,,,,,,,,,,,,,,,,,,,,,,,,,,,,,,,,,,,,,,,,,,,,,,,,,,,,,,,,,,,,,,,,,,,,,,,,,,,,,,,,,,,,,,,,,,,,,,,,,,,,,,,,,,,,,,,,,,,,,,,,,
,,6140ef8d27499e70e8740918,2024-02-22_03h25.30.142,kallum_motion_pilot,2023.2.2,Win32,12.69035533,6140ef8d27499e70e8740918,65d6bb0e977760de756971f7,65d6be9256de2f00fa72f92c,0.0447,0.0448,1,43,205,32,1,onetwo,,,,,,,,,,,,,,,,,,,,,,,,,,,,,,,,,,,,,,,,,,,,,,,,,,,,,,,,,,,,,,,,,,,,,,,,,,,,,,,,,,,,,,,,,,,,,,,,,,,,,,,,,,,,,,,,,,,,,,,,,,,,,,,,,,,,,,,,,
,,6140ef8d27499e70e8740918,2024-02-22_03h25.30.142,kallum_motion_pilot,2023.2.2,Win32,12.69035533,6140ef8d27499e70e8740918,65d6bb0e977760de756971f7,65d6be9256de2f00fa72f92c,0.0448,0.0449,1,44,206,30,1,fourtwo,,,,,,,,,,,,,,,,,,,,,,,,,,,,,,,,,,,,,,,,,,,,,,,,,,,,,,,,,,,,,,,,,,,,,,,,,,,,,,,,,,,,,,,,,,,,,,,,,,,,,,,,,,,,,,,,,,,,,,,,,,,,,,,,,,,,,,,,,
,,6140ef8d27499e70e8740918,2024-02-22_03h25.30.142,kallum_motion_pilot,2023.2.2,Win32,12.69035533,6140ef8d27499e70e8740918,65d6bb0e977760de756971f7,65d6be9256de2f00fa72f92c,0.045,0.045,1,45,207,150,1,eightsix,,,,,,,,,,,,,,,,,,,,,,,,,,,,,,,,,,,,,,,,,,,,,,,,,,,,,,,,,,,,,,,,,,,,,,,,,,,,,,,,,,,,,,,,,,,,,,,,,,,,,,,,,,,,,,,,,,,,,,,,,,,,,,,,,,,,,,,,,
,,6140ef8d27499e70e8740918,2024-02-22_03h25.30.142,kallum_motion_pilot,2023.2.2,Win32,12.69035533,6140ef8d27499e70e8740918,65d6bb0e977760de756971f7,65d6be9256de2f00fa72f92c,0.0451,0.0451,1,46,208,46,1,fourtwo,,,,,,,,,,,,,,,,,,,,,,,,,,,,,,,,,,,,,,,,,,,,,,,,,,,,,,,,,,,,,,,,,,,,,,,,,,,,,,,,,,,,,,,,,,,,,,,,,,,,,,,,,,,,,,,,,,,,,,,,,,,,,,,,,,,,,,,,,
,,6140ef8d27499e70e8740918,2024-02-22_03h25.30.142,kallum_motion_pilot,2023.2.2,Win32,12.69035533,6140ef8d27499e70e8740918,65d6bb0e977760de756971f7,65d6be9256de2f00fa72f92c,0.0452,0.0452,1,47,209,48,1,onetwo,,,,,,,,,,,,,,,,,,,,,,,,,,,,,,,,,,,,,,,,,,,,,,,,,,,,,,,,,,,,,,,,,,,,,,,,,,,,,,,,,,,,,,,,,,,,,,,,,,,,,,,,,,,,,,,,,,,,,,,,,,,,,,,,,,,,,,,,,
,,6140ef8d27499e70e8740918,2024-02-22_03h25.30.142,kallum_motion_pilot,2023.2.2,Win32,12.69035533,6140ef8d27499e70e8740918,65d6bb0e977760de756971f7,65d6be9256de2f00fa72f92c,0.0453,0.0453,1,48,210,127,1,eightseven,,,,,,,,,,,,,,,,,,,,,,,,,,,,,,,,,,,,,,,,,,,,,,,,,,,,,,,,,,,,,,,,,,,,,,,,,,,,,,,,,,,,,,,,,,,,,,,,,,,,,,,,,,,,,,,,,,,,,,,,,,,,,,,,,,,,,,,,,
,,6140ef8d27499e70e8740918,2024-02-22_03h25.30.142,kallum_motion_pilot,2023.2.2,Win32,12.69035533,6140ef8d27499e70e8740918,65d6bb0e977760de756971f7,65d6be9256de2f00fa72f92c,0.0454,0.0454,1,49,211,136,1,fivesix,,,,,,,,,,,,,,,,,,,,,,,,,,,,,,,,,,,,,,,,,,,,,,,,,,,,,,,,,,,,,,,,,,,,,,,,,,,,,,,,,,,,,,,,,,,,,,,,,,,,,,,,,,,,,,,,,,,,,,,,,,,,,,,,,,,,,,,,,
,,6140ef8d27499e70e8740918,2024-02-22_03h25.30.142,kallum_motion_pilot,2023.2.2,Win32,12.69035533,6140ef8d27499e70e8740918,65d6bb0e977760de756971f7,65d6be9256de2f00fa72f92c,0.0454,0.0454,1,50,212,54,1,fourtwo,,,,,,,,,,,,,,,,,,,,,,,,,,,,,,,,,,,,,,,,,,,,,,,,,,,,,,,,,,,,,,,,,,,,,,,,,,,,,,,,,,,,,,,,,,,,,,,,,,,,,,,,,,,,,,,,,,,,,,,,,,,,,,,,,,,,,,,,,
,,6140ef8d27499e70e8740918,2024-02-22_03h25.30.142,kallum_motion_pilot,2023.2.2,Win32,12.69035533,6140ef8d27499e70e8740918,65d6bb0e977760de756971f7,65d6be9256de2f00fa72f92c,0.0455,0.0455,1,51,213,53,1,threefour,,,,,,,,,,,,,,,,,,,,,,,,,,,,,,,,,,,,,,,,,,,,,,,,,,,,,,,,,,,,,,,,,,,,,,,,,,,,,,,,,,,,,,,,,,,,,,,,,,,,,,,,,,,,,,,,,,,,,,,,,,,,,,,,,,,,,,,,,
,,6140ef8d27499e70e8740918,2024-02-22_03h25.30.142,kallum_motion_pilot,2023.2.2,Win32,12.69035533,6140ef8d27499e70e8740918,65d6bb0e977760de756971f7,65d6be9256de2f00fa72f92c,0.0456,0.0456,1,52,214,37,1,threefour,,,,,,,,,,,,,,,,,,,,,,,,,,,,,,,,,,,,,,,,,,,,,,,,,,,,,,,,,,,,,,,,,,,,,,,,,,,,,,,,,,,,,,,,,,,,,,,,,,,,,,,,,,,,,,,,,,,,,,,,,,,,,,,,,,,,,,,,,
,,6140ef8d27499e70e8740918,2024-02-22_03h25.30.142,kallum_motion_pilot,2023.2.2,Win32,12.69035533,6140ef8d27499e70e8740918,65d6bb0e977760de756971f7,65d6be9256de2f00fa72f92c,0.0457,0.0458,1,53,215,102,1,eightsix,,,,,,,,,,,,,,,,,,,,,,,,,,,,,,,,,,,,,,,,,,,,,,,,,,,,,,,,,,,,,,,,,,,,,,,,,,,,,,,,,,,,,,,,,,,,,,,,,,,,,,,,,,,,,,,,,,,,,,,,,,,,,,,,,,,,,,,,,
,,6140ef8d27499e70e8740918,2024-02-22_03h25.30.142,kallum_motion_pilot,2023.2.2,Win32,12.69035533,6140ef8d27499e70e8740918,65d6bb0e977760de756971f7,65d6be9256de2f00fa72f92c,0.0458,0.0458,1,54,216,76,1,threeone,,,,,,,,,,,,,,,,,,,,,,,,,,,,,,,,,,,,,,,,,,,,,,,,,,,,,,,,,,,,,,,,,,,,,,,,,,,,,,,,,,,,,,,,,,,,,,,,,,,,,,,,,,,,,,,,,,,,,,,,,,,,,,,,,,,,,,,,,
,,6140ef8d27499e70e8740918,2024-02-22_03h25.30.142,kallum_motion_pilot,2023.2.2,Win32,12.69035533,6140ef8d27499e70e8740918,65d6bb0e977760de756971f7,65d6be9256de2f00fa72f92c,0.0459,0.046,1,55,217,124,1,sevenfive,,,,,,,,,,,,,,,,,,,,,,,,,,,,,,,,,,,,,,,,,,,,,,,,,,,,,,,,,,,,,,,,,,,,,,,,,,,,,,,,,,,,,,,,,,,,,,,,,,,,,,,,,,,,,,,,,,,,,,,,,,,,,,,,,,,,,,,,,
,,6140ef8d27499e70e8740918,2024-02-22_03h25.30.142,kallum_motion_pilot,2023.2.2,Win32,12.69035533,6140ef8d27499e70e8740918,65d6bb0e977760de756971f7,65d6be9256de2f00fa72f92c,0.046,0.046,1,56,218,158,1,eightsix,,,,,,,,,,,,,,,,,,,,,,,,,,,,,,,,,,,,,,,,,,,,,,,,,,,,,,,,,,,,,,,,,,,,,,,,,,,,,,,,,,,,,,,,,,,,,,,,,,,,,,,,,,,,,,,,,,,,,,,,,,,,,,,,,,,,,,,,,
,,6140ef8d27499e70e8740918,2024-02-22_03h25.30.142,kallum_motion_pilot,2023.2.2,Win32,12.69035533,6140ef8d27499e70e8740918,65d6bb0e977760de756971f7,65d6be9256de2f00fa72f92c,0.0462,0.0462,1,57,219,10,1,twoone,,,,,,,,,,,,,,,,,,,,,,,,,,,,,,,,,,,,,,,,,,,,,,,,,,,,,,,,,,,,,,,,,,,,,,,,,,,,,,,,,,,,,,,,,,,,,,,,,,,,,,,,,,,,,,,,,,,,,,,,,,,,,,,,,,,,,,,,,
,,6140ef8d27499e70e8740918,2024-02-22_03h25.30.142,kallum_motion_pilot,2023.2.2,Win32,12.69035533,6140ef8d27499e70e8740918,65d6bb0e977760de756971f7,65d6be9256de2f00fa72f92c,0.0463,0.0463,1,58,220,60,1,threeone,,,,,,,,,,,,,,,,,,,,,,,,,,,,,,,,,,,,,,,,,,,,,,,,,,,,,,,,,,,,,,,,,,,,,,,,,,,,,,,,,,,,,,,,,,,,,,,,,,,,,,,,,,,,,,,,,,,,,,,,,,,,,,,,,,,,,,,,,
,,6140ef8d27499e70e8740918,2024-02-22_03h25.30.142,kallum_motion_pilot,2023.2.2,Win32,12.69035533,6140ef8d27499e70e8740918,65d6bb0e977760de756971f7,65d6be9256de2f00fa72f92c,0.0464,0.0464,1,59,221,146,1,sixfive,,,,,,,,,,,,,,,,,,,,,,,,,,,,,,,,,,,,,,,,,,,,,,,,,,,,,,,,,,,,,,,,,,,,,,,,,,,,,,,,,,,,,,,,,,,,,,,,,,,,,,,,,,,,,,,,,,,,,,,,,,,,,,,,,,,,,,,,,
,,6140ef8d27499e70e8740918,2024-02-22_03h25.30.142,kallum_motion_pilot,2023.2.2,Win32,12.69035533,6140ef8d27499e70e8740918,65d6bb0e977760de756971f7,65d6be9256de2f00fa72f92c,0.0464,0.0465,1,60,222,144,1,fivesix,,,,,,,,,,,,,,,,,,,,,,,,,,,,,,,,,,,,,,,,,,,,,,,,,,,,,,,,,,,,,,,,,,,,,,,,,,,,,,,,,,,,,,,,,,,,,,,,,,,,,,,,,,,,,,,,,,,,,,,,,,,,,,,,,,,,,,,,,
,,6140ef8d27499e70e8740918,2024-02-22_03h25.30.142,kallum_motion_pilot,2023.2.2,Win32,12.69035533,6140ef8d27499e70e8740918,65d6bb0e977760de756971f7,65d6be9256de2f00fa72f92c,0.0465,0.0466,1,61,223,148,1,sevenfive,,,,,,,,,,,,,,,,,,,,,,,,,,,,,,,,,,,,,,,,,,,,,,,,,,,,,,,,,,,,,,,,,,,,,,,,,,,,,,,,,,,,,,,,,,,,,,,,,,,,,,,,,,,,,,,,,,,,,,,,,,,,,,,,,,,,,,,,,
,,6140ef8d27499e70e8740918,2024-02-22_03h25.30.142,kallum_motion_pilot,2023.2.2,Win32,12.69035533,6140ef8d27499e70e8740918,65d6bb0e977760de756971f7,65d6be9256de2f00fa72f92c,0.0466,0.0467,1,62,224,114,1,sixfive,,,,,,,,,,,,,,,,,,,,,,,,,,,,,,,,,,,,,,,,,,,,,,,,,,,,,,,,,,,,,,,,,,,,,,,,,,,,,,,,,,,,,,,,,,,,,,,,,,,,,,,,,,,,,,,,,,,,,,,,,,,,,,,,,,,,,,,,,
,,6140ef8d27499e70e8740918,2024-02-22_03h25.30.142,kallum_motion_pilot,2023.2.2,Win32,12.69035533,6140ef8d27499e70e8740918,65d6bb0e977760de756971f7,65d6be9256de2f00fa72f92c,0.0468,0.0469,1,63,225,133,1,seveneight,,,,,,,,,,,,,,,,,,,,,,,,,,,,,,,,,,,,,,,,,,,,,,,,,,,,,,,,,,,,,,,,,,,,,,,,,,,,,,,,,,,,,,,,,,,,,,,,,,,,,,,,,,,,,,,,,,,,,,,,,,,,,,,,,,,,,,,,,
,,6140ef8d27499e70e8740918,2024-02-22_03h25.30.142,kallum_motion_pilot,2023.2.2,Win32,12.69035533,6140ef8d27499e70e8740918,65d6bb0e977760de756971f7,65d6be9256de2f00fa72f92c,0.0469,0.0469,1,64,226,73,1,onethree,,,,,,,,,,,,,,,,,,,,,,,,,,,,,,,,,,,,,,,,,,,,,,,,,,,,,,,,,,,,,,,,,,,,,,,,,,,,,,,,,,,,,,,,,,,,,,,,,,,,,,,,,,,,,,,,,,,,,,,,,,,,,,,,,,,,,,,,,
,,6140ef8d27499e70e8740918,2024-02-22_03h25.30.142,kallum_motion_pilot,2023.2.2,Win32,12.69035533,6140ef8d27499e70e8740918,65d6bb0e977760de756971f7,65d6be9256de2f00fa72f92c,0.047,0.047,1,65,227,145,1,fiveseven,,,,,,,,,,,,,,,,,,,,,,,,,,,,,,,,,,,,,,,,,,,,,,,,,,,,,,,,,,,,,,,,,,,,,,,,,,,,,,,,,,,,,,,,,,,,,,,,,,,,,,,,,,,,,,,,,,,,,,,,,,,,,,,,,,,,,,,,,
,,6140ef8d27499e70e8740918,2024-02-22_03h25.30.142,kallum_motion_pilot,2023.2.2,Win32,12.69035533,6140ef8d27499e70e8740918,65d6bb0e977760de756971f7,65d6be9256de2f00fa72f92c,0.0471,0.0472,1,66,228,92,1,sevenfive,,,,,,,,,,,,,,,,,,,,,,,,,,,,,,,,,,,,,,,,,,,,,,,,,,,,,,,,,,,,,,,,,,,,,,,,,,,,,,,,,,,,,,,,,,,,,,,,,,,,,,,,,,,,,,,,,,,,,,,,,,,,,,,,,,,,,,,,,
,,6140ef8d27499e70e8740918,2024-02-22_03h25.30.142,kallum_motion_pilot,2023.2.2,Win32,12.69035533,6140ef8d27499e70e8740918,65d6bb0e977760de756971f7,65d6be9256de2f00fa72f92c,0.0472,0.0473,1,67,229,116,1,sevenfive,,,,,,,,,,,,,,,,,,,,,,,,,,,,,,,,,,,,,,,,,,,,,,,,,,,,,,,,,,,,,,,,,,,,,,,,,,,,,,,,,,,,,,,,,,,,,,,,,,,,,,,,,,,,,,,,,,,,,,,,,,,,,,,,,,,,,,,,,
,,6140ef8d27499e70e8740918,2024-02-22_03h25.30.142,kallum_motion_pilot,2023.2.2,Win32,12.69035533,6140ef8d27499e70e8740918,65d6bb0e977760de756971f7,65d6be9256de2f00fa72f92c,0.0473,0.0474,1,68,230,55,1,fourthree,,,,,,,,,,,,,,,,,,,,,,,,,,,,,,,,,,,,,,,,,,,,,,,,,,,,,,,,,,,,,,,,,,,,,,,,,,,,,,,,,,,,,,,,,,,,,,,,,,,,,,,,,,,,,,,,,,,,,,,,,,,,,,,,,,,,,,,,,
,,6140ef8d27499e70e8740918,2024-02-22_03h25.30.142,kallum_motion_pilot,2023.2.2,Win32,12.69035533,6140ef8d27499e70e8740918,65d6bb0e977760de756971f7,65d6be9256de2f00fa72f92c,0.0474,0.0475,1,69,231,78,1,fourtwo,,,,,,,,,,,,,,,,,,,,,,,,,,,,,,,,,,,,,,,,,,,,,,,,,,,,,,,,,,,,,,,,,,,,,,,,,,,,,,,,,,,,,,,,,,,,,,,,,,,,,,,,,,,,,,,,,,,,,,,,,,,,,,,,,,,,,,,,,
,,6140ef8d27499e70e8740918,2024-02-22_03h25.30.142,kallum_motion_pilot,2023.2.2,Win32,12.69035533,6140ef8d27499e70e8740918,65d6bb0e977760de756971f7,65d6be9256de2f00fa72f92c,0.0475,0.0475,1,70,232,82,1,sixfive,,,,,,,,,,,,,,,,,,,,,,,,,,,,,,,,,,,,,,,,,,,,,,,,,,,,,,,,,,,,,,,,,,,,,,,,,,,,,,,,,,,,,,,,,,,,,,,,,,,,,,,,,,,,,,,,,,,,,,,,,,,,,,,,,,,,,,,,,
,,6140ef8d27499e70e8740918,2024-02-22_03h25.30.142,kallum_motion_pilot,2023.2.2,Win32,12.69035533,6140ef8d27499e70e8740918,65d6bb0e977760de756971f7,65d6be9256de2f00fa72f92c,0.0476,0.0476,1,71,233,84,1,sevenfive,,,,,,,,,,,,,,,,,,,,,,,,,,,,,,,,,,,,,,,,,,,,,,,,,,,,,,,,,,,,,,,,,,,,,,,,,,,,,,,,,,,,,,,,,,,,,,,,,,,,,,,,,,,,,,,,,,,,,,,,,,,,,,,,,,,,,,,,,
,,6140ef8d27499e70e8740918,2024-02-22_03h25.30.142,kallum_motion_pilot,2023.2.2,Win32,12.69035533,6140ef8d27499e70e8740918,65d6bb0e977760de756971f7,65d6be9256de2f00fa72f92c,0.0476,0.0477,1,72,234,59,1,twofour,,,,,,,,,,,,,,,,,,,,,,,,,,,,,,,,,,,,,,,,,,,,,,,,,,,,,,,,,,,,,,,,,,,,,,,,,,,,,,,,,,,,,,,,,,,,,,,,,,,,,,,,,,,,,,,,,,,,,,,,,,,,,,,,,,,,,,,,,
,,6140ef8d27499e70e8740918,2024-02-22_03h25.30.142,kallum_motion_pilot,2023.2.2,Win32,12.69035533,6140ef8d27499e70e8740918,65d6bb0e977760de756971f7,65d6be9256de2f00fa72f92c,0.0477,0.0478,1,73,235,19,1,twofour,,,,,,,,,,,,,,,,,,,,,,,,,,,,,,,,,,,,,,,,,,,,,,,,,,,,,,,,,,,,,,,,,,,,,,,,,,,,,,,,,,,,,,,,,,,,,,,,,,,,,,,,,,,,,,,,,,,,,,,,,,,,,,,,,,,,,,,,,
,,6140ef8d27499e70e8740918,2024-02-22_03h25.30.142,kallum_motion_pilot,2023.2.2,Win32,12.69035533,6140ef8d27499e70e8740918,65d6bb0e977760de756971f7,65d6be9256de2f00fa72f92c,0.0479,0.0479,1,74,236,126,1,eightsix,,,,,,,,,,,,,,,,,,,,,,,,,,,,,,,,,,,,,,,,,,,,,,,,,,,,,,,,,,,,,,,,,,,,,,,,,,,,,,,,,,,,,,,,,,,,,,,,,,,,,,,,,,,,,,,,,,,,,,,,,,,,,,,,,,,,,,,,,
,,6140ef8d27499e70e8740918,2024-02-22_03h25.30.142,kallum_motion_pilot,2023.2.2,Win32,12.69035533,6140ef8d27499e70e8740918,65d6bb0e977760de756971f7,65d6be9256de2f00fa72f92c,0.0479,0.0481,1,75,237,68,1,threeone,,,,,,,,,,,,,,,,,,,,,,,,,,,,,,,,,,,,,,,,,,,,,,,,,,,,,,,,,,,,,,,,,,,,,,,,,,,,,,,,,,,,,,,,,,,,,,,,,,,,,,,,,,,,,,,,,,,,,,,,,,,,,,,,,,,,,,,,,
,,6140ef8d27499e70e8740918,2024-02-22_03h25.30.142,kallum_motion_pilot,2023.2.2,Win32,12.69035533,6140ef8d27499e70e8740918,65d6bb0e977760de756971f7,65d6be9256de2f00fa72f92c,0.0481,0.0481,1,76,238,75,1,twofour,,,,,,,,,,,,,,,,,,,,,,,,,,,,,,,,,,,,,,,,,,,,,,,,,,,,,,,,,,,,,,,,,,,,,,,,,,,,,,,,,,,,,,,,,,,,,,,,,,,,,,,,,,,,,,,,,,,,,,,,,,,,,,,,,,,,,,,,,
,,6140ef8d27499e70e8740918,2024-02-22_03h25.30.142,kallum_motion_pilot,2023.2.2,Win32,12.69035533,6140ef8d27499e70e8740918,65d6bb0e977760de756971f7,65d6be9256de2f00fa72f92c,0.0481,0.0482,1,77,239,74,1,twoone,,,,,,,,,,,,,,,,,,,,,,,,,,,,,,,,,,,,,,,,,,,,,,,,,,,,,,,,,,,,,,,,,,,,,,,,,,,,,,,,,,,,,,,,,,,,,,,,,,,,,,,,,,,,,,,,,,,,,,,,,,,,,,,,,,,,,,,,,
,,6140ef8d27499e70e8740918,2024-02-22_03h25.30.142,kallum_motion_pilot,2023.2.2,Win32,12.69035533,6140ef8d27499e70e8740918,65d6bb0e977760de756971f7,65d6be9256de2f00fa72f92c,0.0482,0.0483,1,78,240,12,1,threeone,,,,,,,,,,,,,,,,,,,,,,,,,,,,,,,,,,,,,,,,,,,,,,,,,,,,,,,,,,,,,,,,,,,,,,,,,,,,,,,,,,,,,,,,,,,,,,,,,,,,,,,,,,,,,,,,,,,,,,,,,,,,,,,,,,,,,,,,,
,,6140ef8d27499e70e8740918,2024-02-22_03h25.30.142,kallum_motion_pilot,2023.2.2,Win32,12.69035533,6140ef8d27499e70e8740918,65d6bb0e977760de756971f7,65d6be9256de2f00fa72f92c,0.0484,0.0485,1,79,241,42,1,twoone,,,,,,,,,,,,,,,,,,,,,,,,,,,,,,,,,,,,,,,,,,,,,,,,,,,,,,,,,,,,,,,,,,,,,,,,,,,,,,,,,,,,,,,,,,,,,,,,,,,,,,,,,,,,,,,,,,,,,,,,,,,,,,,,,,,,,,,,,
,,6140ef8d27499e70e8740918,2024-02-22_03h25.30.142,kallum_motion_pilot,2023.2.2,Win32,12.69035533,6140ef8d27499e70e8740918,65d6bb0e977760de756971f7,65d6be9256de2f00fa72f92c,0.0485,0.0486,1,80,242,118,1,eightsix,,,,,,,,,,,,,,,,,,,,,,,,,,,,,,,,,,,,,,,,,,,,,,,,,,,,,,,,,,,,,,,,,,,,,,,,,,,,,,,,,,,,,,,,,,,,,,,,,,,,,,,,,,,,,,,,,,,,,,,,,,,,,,,,,,,,,,,,,
,,6140ef8d27499e70e8740918,2024-02-22_03h25.30.142,kallum_motion_pilot,2023.2.2,Win32,12.69035533,6140ef8d27499e70e8740918,65d6bb0e977760de756971f7,65d6be9256de2f00fa72f92c,0.0486,0.0487,1,81,243,140,1,sevenfive,,,,,,,,,,,,,,,,,,,,,,,,,,,,,,,,,,,,,,,,,,,,,,,,,,,,,,,,,,,,,,,,,,,,,,,,,,,,,,,,,,,,,,,,,,,,,,,,,,,,,,,,,,,,,,,,,,,,,,,,,,,,,,,,,,,,,,,,,
,,6140ef8d27499e70e8740918,2024-02-22_03h25.30.142,kallum_motion_pilot,2023.2.2,Win32,12.69035533,6140ef8d27499e70e8740918,65d6bb0e977760de756971f7,65d6be9256de2f00fa72f92c,0.0487,0.0488,1,82,244,63,1,fourthree,,,,,,,,,,,,,,,,,,,,,,,,,,,,,,,,,,,,,,,,,,,,,,,,,,,,,,,,,,,,,,,,,,,,,,,,,,,,,,,,,,,,,,,,,,,,,,,,,,,,,,,,,,,,,,,,,,,,,,,,,,,,,,,,,,,,,,,,,
,,6140ef8d27499e70e8740918,2024-02-22_03h25.30.142,kallum_motion_pilot,2023.2.2,Win32,12.69035533,6140ef8d27499e70e8740918,65d6bb0e977760de756971f7,65d6be9256de2f00fa72f92c,0.0488,0.0489,1,83,245,109,1,seveneight,,,,,,,,,,,,,,,,,,,,,,,,,,,,,,,,,,,,,,,,,,,,,,,,,,,,,,,,,,,,,,,,,,,,,,,,,,,,,,,,,,,,,,,,,,,,,,,,,,,,,,,,,,,,,,,,,,,,,,,,,,,,,,,,,,,,,,,,,
,,6140ef8d27499e70e8740918,2024-02-22_03h25.30.142,kallum_motion_pilot,2023.2.2,Win32,12.69035533,6140ef8d27499e70e8740918,65d6bb0e977760de756971f7,65d6be9256de2f00fa72f92c,0.049,0.0491,1,84,246,130,1,sixfive,,,,,,,,,,,,,,,,,,,,,,,,,,,,,,,,,,,,,,,,,,,,,,,,,,,,,,,,,,,,,,,,,,,,,,,,,,,,,,,,,,,,,,,,,,,,,,,,,,,,,,,,,,,,,,,,,,,,,,,,,,,,,,,,,,,,,,,,,
,,6140ef8d27499e70e8740918,2024-02-22_03h25.30.142,kallum_motion_pilot,2023.2.2,Win32,12.69035533,6140ef8d27499e70e8740918,65d6bb0e977760de756971f7,65d6be9256de2f00fa72f92c,0.0491,0.0492,1,85,247,4,1,threeone,,,,,,,,,,,,,,,,,,,,,,,,,,,,,,,,,,,,,,,,,,,,,,,,,,,,,,,,,,,,,,,,,,,,,,,,,,,,,,,,,,,,,,,,,,,,,,,,,,,,,,,,,,,,,,,,,,,,,,,,,,,,,,,,,,,,,,,,,
,,6140ef8d27499e70e8740918,2024-02-22_03h25.30.142,kallum_motion_pilot,2023.2.2,Win32,12.69035533,6140ef8d27499e70e8740918,65d6bb0e977760de756971f7,65d6be9256de2f00fa72f92c,0.0493,0.0493,1,86,248,2,1,twoone,,,,,,,,,,,,,,,,,,,,,,,,,,,,,,,,,,,,,,,,,,,,,,,,,,,,,,,,,,,,,,,,,,,,,,,,,,,,,,,,,,,,,,,,,,,,,,,,,,,,,,,,,,,,,,,,,,,,,,,,,,,,,,,,,,,,,,,,,
,,6140ef8d27499e70e8740918,2024-02-22_03h25.30.142,kallum_motion_pilot,2023.2.2,Win32,12.69035533,6140ef8d27499e70e8740918,65d6bb0e977760de756971f7,65d6be9256de2f00fa72f92c,0.0493,0.0493,1,87,249,67,1,twofour,,,,,,,,,,,,,,,,,,,,,,,,,,,,,,,,,,,,,,,,,,,,,,,,,,,,,,,,,,,,,,,,,,,,,,,,,,,,,,,,,,,,,,,,,,,,,,,,,,,,,,,,,,,,,,,,,,,,,,,,,,,,,,,,,,,,,,,,,
,,6140ef8d27499e70e8740918,2024-02-22_03h25.30.142,kallum_motion_pilot,2023.2.2,Win32,12.69035533,6140ef8d27499e70e8740918,65d6bb0e977760de756971f7,65d6be9256de2f00fa72f92c,0.0495,0.0495,1,88,250,27,1,twofour,,,,,,,,,,,,,,,,,,,,,,,,,,,,,,,,,,,,,,,,,,,,,,,,,,,,,,,,,,,,,,,,,,,,,,,,,,,,,,,,,,,,,,,,,,,,,,,,,,,,,,,,,,,,,,,,,,,,,,,,,,,,,,,,,,,,,,,,,
,,6140ef8d27499e70e8740918,2024-02-22_03h25.30.142,kallum_motion_pilot,2023.2.2,Win32,12.69035533,6140ef8d27499e70e8740918,65d6bb0e977760de756971f7,65d6be9256de2f00fa72f92c,0.0495,0.0495,1,89,251,128,1,fivesix,,,,,,,,,,,,,,,,,,,,,,,,,,,,,,,,,,,,,,,,,,,,,,,,,,,,,,,,,,,,,,,,,,,,,,,,,,,,,,,,,,,,,,,,,,,,,,,,,,,,,,,,,,,,,,,,,,,,,,,,,,,,,,,,,,,,,,,,,
,,6140ef8d27499e70e8740918,2024-02-22_03h25.30.142,kallum_motion_pilot,2023.2.2,Win32,12.69035533,6140ef8d27499e70e8740918,65d6bb0e977760de756971f7,65d6be9256de2f00fa72f92c,0.0495,0.0497,1,90,252,36,1,threeone,,,,,,,,,,,,,,,,,,,,,,,,,,,,,,,,,,,,,,,,,,,,,,,,,,,,,,,,,,,,,,,,,,,,,,,,,,,,,,,,,,,,,,,,,,,,,,,,,,,,,,,,,,,,,,,,,,,,,,,,,,,,,,,,,,,,,,,,,
,,6140ef8d27499e70e8740918,2024-02-22_03h25.30.142,kallum_motion_pilot,2023.2.2,Win32,12.69035533,6140ef8d27499e70e8740918,65d6bb0e977760de756971f7,65d6be9256de2f00fa72f92c,0.0497,0.0498,1,91,253,155,1,sixeight,,,,,,,,,,,,,,,,,,,,,,,,,,,,,,,,,,,,,,,,,,,,,,,,,,,,,,,,,,,,,,,,,,,,,,,,,,,,,,,,,,,,,,,,,,,,,,,,,,,,,,,,,,,,,,,,,,,,,,,,,,,,,,,,,,,,,,,,,
,,6140ef8d27499e70e8740918,2024-02-22_03h25.30.142,kallum_motion_pilot,2023.2.2,Win32,12.69035533,6140ef8d27499e70e8740918,65d6bb0e977760de756971f7,65d6be9256de2f00fa72f92c,0.0498,0.0498,1,92,254,120,1,fivesix,,,,,,,,,,,,,,,,,,,,,,,,,,,,,,,,,,,,,,,,,,,,,,,,,,,,,,,,,,,,,,,,,,,,,,,,,,,,,,,,,,,,,,,,,,,,,,,,,,,,,,,,,,,,,,,,,,,,,,,,,,,,,,,,,,,,,,,,,
,,6140ef8d27499e70e8740918,2024-02-22_03h25.30.142,kallum_motion_pilot,2023.2.2,Win32,12.69035533,6140ef8d27499e70e8740918,65d6bb0e977760de756971f7,65d6be9256de2f00fa72f92c,0.05,0.0501,1,93,255,81,1,fiveseven,,,,,,,,,,,,,,,,,,,,,,,,,,,,,,,,,,,,,,,,,,,,,,,,,,,,,,,,,,,,,,,,,,,,,,,,,,,,,,,,,,,,,,,,,,,,,,,,,,,,,,,,,,,,,,,,,,,,,,,,,,,,,,,,,,,,,,,,,
,,6140ef8d27499e70e8740918,2024-02-22_03h25.30.142,kallum_motion_pilot,2023.2.2,Win32,12.69035533,6140ef8d27499e70e8740918,65d6bb0e977760de756971f7,65d6be9256de2f00fa72f92c,0.0509,0.0511,1,94,256,25,1,onethree,,,,,,,,,,,,,,,,,,,,,,,,,,,,,,,,,,,,,,,,,,,,,,,,,,,,,,,,,,,,,,,,,,,,,,,,,,,,,,,,,,,,,,,,,,,,,,,,,,,,,,,,,,,,,,,,,,,,,,,,,,,,,,,,,,,,,,,,,
,,6140ef8d27499e70e8740918,2024-02-22_03h25.30.142,kallum_motion_pilot,2023.2.2,Win32,12.69035533,6140ef8d27499e70e8740918,65d6bb0e977760de756971f7,65d6be9256de2f00fa72f92c,0.0511,0.0512,1,95,257,69,1,threefour,,,,,,,,,,,,,,,,,,,,,,,,,,,,,,,,,,,,,,,,,,,,,,,,,,,,,,,,,,,,,,,,,,,,,,,,,,,,,,,,,,,,,,,,,,,,,,,,,,,,,,,,,,,,,,,,,,,,,,,,,,,,,,,,,,,,,,,,,
,,6140ef8d27499e70e8740918,2024-02-22_03h25.30.142,kallum_motion_pilot,2023.2.2,Win32,12.69035533,6140ef8d27499e70e8740918,65d6bb0e977760de756971f7,65d6be9256de2f00fa72f92c,0.0512,0.0513,1,96,258,106,1,sixfive,,,,,,,,,,,,,,,,,,,,,,,,,,,,,,,,,,,,,,,,,,,,,,,,,,,,,,,,,,,,,,,,,,,,,,,,,,,,,,,,,,,,,,,,,,,,,,,,,,,,,,,,,,,,,,,,,,,,,,,,,,,,,,,,,,,,,,,,,
,,6140ef8d27499e70e8740918,2024-02-22_03h25.30.142,kallum_motion_pilot,2023.2.2,Win32,12.69035533,6140ef8d27499e70e8740918,65d6bb0e977760de756971f7,65d6be9256de2f00fa72f92c,0.0513,0.0513,1,97,259,153,1,fiveseven,,,,,,,,,,,,,,,,,,,,,,,,,,,,,,,,,,,,,,,,,,,,,,,,,,,,,,,,,,,,,,,,,,,,,,,,,,,,,,,,,,,,,,,,,,,,,,,,,,,,,,,,,,,,,,,,,,,,,,,,,,,,,,,,,,,,,,,,,
,,6140ef8d27499e70e8740918,2024-02-22_03h25.30.142,kallum_motion_pilot,2023.2.2,Win32,12.69035533,6140ef8d27499e70e8740918,65d6bb0e977760de756971f7,65d6be9256de2f00fa72f92c,0.0514,0.0515,1,98,260,65,1,onethree,,,,,,,,,,,,,,,,,,,,,,,,,,,,,,,,,,,,,,,,,,,,,,,,,,,,,,,,,,,,,,,,,,,,,,,,,,,,,,,,,,,,,,,,,,,,,,,,,,,,,,,,,,,,,,,,,,,,,,,,,,,,,,,,,,,,,,,,,
,,6140ef8d27499e70e8740918,2024-02-22_03h25.30.142,kallum_motion_pilot,2023.2.2,Win32,12.69035533,6140ef8d27499e70e8740918,65d6bb0e977760de756971f7,65d6be9256de2f00fa72f92c,0.0515,0.0515,1,99,261,83,1,sixeight,,,,,,,,,,,,,,,,,,,,,,,,,,,,,,,,,,,,,,,,,,,,,,,,,,,,,,,,,,,,,,,,,,,,,,,,,,,,,,,,,,,,,,,,,,,,,,,,,,,,,,,,,,,,,,,,,,,,,,,,,,,,,,,,,,,,,,,,,
,,6140ef8d27499e70e8740918,2024-02-22_03h25.30.142,kallum_motion_pilot,2023.2.2,Win32,12.69035533,6140ef8d27499e70e8740918,65d6bb0e977760de756971f7,65d6be9256de2f00fa72f92c,0.0516,0.0517,1,100,262,141,1,seveneight,,,,,,,,,,,,,,,,,,,,,,,,,,,,,,,,,,,,,,,,,,,,,,,,,,,,,,,,,,,,,,,,,,,,,,,,,,,,,,,,,,,,,,,,,,,,,,,,,,,,,,,,,,,,,,,,,,,,,,,,,,,,,,,,,,,,,,,,,
,,6140ef8d27499e70e8740918,2024-02-22_03h25.30.142,kallum_motion_pilot,2023.2.2,Win32,12.69035533,6140ef8d27499e70e8740918,65d6bb0e977760de756971f7,65d6be9256de2f00fa72f92c,0.0518,0.0518,1,101,263,80,1,fivesix,,,,,,,,,,,,,,,,,,,,,,,,,,,,,,,,,,,,,,,,,,,,,,,,,,,,,,,,,,,,,,,,,,,,,,,,,,,,,,,,,,,,,,,,,,,,,,,,,,,,,,,,,,,,,,,,,,,,,,,,,,,,,,,,,,,,,,,,,
,,6140ef8d27499e70e8740918,2024-02-22_03h25.30.142,kallum_motion_pilot,2023.2.2,Win32,12.69035533,6140ef8d27499e70e8740918,65d6bb0e977760de756971f7,65d6be9256de2f00fa72f92c,0.0519,0.0521,1,102,264,62,1,fourtwo,,,,,,,,,,,,,,,,,,,,,,,,,,,,,,,,,,,,,,,,,,,,,,,,,,,,,,,,,,,,,,,,,,,,,,,,,,,,,,,,,,,,,,,,,,,,,,,,,,,,,,,,,,,,,,,,,,,,,,,,,,,,,,,,,,,,,,,,,
,,6140ef8d27499e70e8740918,2024-02-22_03h25.30.142,kallum_motion_pilot,2023.2.2,Win32,12.69035533,6140ef8d27499e70e8740918,65d6bb0e977760de756971f7,65d6be9256de2f00fa72f92c,0.0521,0.0522,1,103,265,26,1,twoone,,,,,,,,,,,,,,,,,,,,,,,,,,,,,,,,,,,,,,,,,,,,,,,,,,,,,,,,,,,,,,,,,,,,,,,,,,,,,,,,,,,,,,,,,,,,,,,,,,,,,,,,,,,,,,,,,,,,,,,,,,,,,,,,,,,,,,,,,
,,6140ef8d27499e70e8740918,2024-02-22_03h25.30.142,kallum_motion_pilot,2023.2.2,Win32,12.69035533,6140ef8d27499e70e8740918,65d6bb0e977760de756971f7,65d6be9256de2f00fa72f92c,0.0522,0.0522,1,104,266,103,1,eightseven,,,,,,,,,,,,,,,,,,,,,,,,,,,,,,,,,,,,,,,,,,,,,,,,,,,,,,,,,,,,,,,,,,,,,,,,,,,,,,,,,,,,,,,,,,,,,,,,,,,,,,,,,,,,,,,,,,,,,,,,,,,,,,,,,,,,,,,,,
,,6140ef8d27499e70e8740918,2024-02-22_03h25.30.142,kallum_motion_pilot,2023.2.2,Win32,12.69035533,6140ef8d27499e70e8740918,65d6bb0e977760de756971f7,65d6be9256de2f00fa72f92c,0.0522,0.0523,1,105,267,29,1,threefour,,,,,,,,,,,,,,,,,,,,,,,,,,,,,,,,,,,,,,,,,,,,,,,,,,,,,,,,,,,,,,,,,,,,,,,,,,,,,,,,,,,,,,,,,,,,,,,,,,,,,,,,,,,,,,,,,,,,,,,,,,,,,,,,,,,,,,,,,
,,6140ef8d27499e70e8740918,2024-02-22_03h25.30.142,kallum_motion_pilot,2023.2.2,Win32,12.69035533,6140ef8d27499e70e8740918,65d6bb0e977760de756971f7,65d6be9256de2f00fa72f92c,0.0524,0.0524,1,106,268,107,1,sixeight,,,,,,,,,,,,,,,,,,,,,,,,,,,,,,,,,,,,,,,,,,,,,,,,,,,,,,,,,,,,,,,,,,,,,,,,,,,,,,,,,,,,,,,,,,,,,,,,,,,,,,,,,,,,,,,,,,,,,,,,,,,,,,,,,,,,,,,,,
,,6140ef8d27499e70e8740918,2024-02-22_03h25.30.142,kallum_motion_pilot,2023.2.2,Win32,12.69035533,6140ef8d27499e70e8740918,65d6bb0e977760de756971f7,65d6be9256de2f00fa72f92c,0.0524,0.0525,1,107,269,87,1,eightseven,,,,,,,,,,,,,,,,,,,,,,,,,,,,,,,,,,,,,,,,,,,,,,,,,,,,,,,,,,,,,,,,,,,,,,,,,,,,,,,,,,,,,,,,,,,,,,,,,,,,,,,,,,,,,,,,,,,,,,,,,,,,,,,,,,,,,,,,,
,,6140ef8d27499e70e8740918,2024-02-22_03h25.30.142,kallum_motion_pilot,2023.2.2,Win32,12.69035533,6140ef8d27499e70e8740918,65d6bb0e977760de756971f7,65d6be9256de2f00fa72f92c,0.0526,0.0527,1,108,270,43,1,twofour,,,,,,,,,,,,,,,,,,,,,,,,,,,,,,,,,,,,,,,,,,,,,,,,,,,,,,,,,,,,,,,,,,,,,,,,,,,,,,,,,,,,,,,,,,,,,,,,,,,,,,,,,,,,,,,,,,,,,,,,,,,,,,,,,,,,,,,,,
,,6140ef8d27499e70e8740918,2024-02-22_03h25.30.142,kallum_motion_pilot,2023.2.2,Win32,12.69035533,6140ef8d27499e70e8740918,65d6bb0e977760de756971f7,65d6be9256de2f00fa72f92c,0.0527,0.0527,1,109,271,50,1,twoone,,,,,,,,,,,,,,,,,,,,,,,,,,,,,,,,,,,,,,,,,,,,,,,,,,,,,,,,,,,,,,,,,,,,,,,,,,,,,,,,,,,,,,,,,,,,,,,,,,,,,,,,,,,,,,,,,,,,,,,,,,,,,,,,,,,,,,,,,
,,6140ef8d27499e70e8740918,2024-02-22_03h25.30.142,kallum_motion_pilot,2023.2.2,Win32,12.69035533,6140ef8d27499e70e8740918,65d6bb0e977760de756971f7,65d6be9256de2f00fa72f92c,0.0527,0.0528,1,110,272,160,1,fivesix,,,,,,,,,,,,,,,,,,,,,,,,,,,,,,,,,,,,,,,,,,,,,,,,,,,,,,,,,,,,,,,,,,,,,,,,,,,,,,,,,,,,,,,,,,,,,,,,,,,,,,,,,,,,,,,,,,,,,,,,,,,,,,,,,,,,,,,,,
,,6140ef8d27499e70e8740918,2024-02-22_03h25.30.142,kallum_motion_pilot,2023.2.2,Win32,12.69035533,6140ef8d27499e70e8740918,65d6bb0e977760de756971f7,65d6be9256de2f00fa72f92c,0.0529,0.0529,1,111,273,138,1,sixfive,,,,,,,,,,,,,,,,,,,,,,,,,,,,,,,,,,,,,,,,,,,,,,,,,,,,,,,,,,,,,,,,,,,,,,,,,,,,,,,,,,,,,,,,,,,,,,,,,,,,,,,,,,,,,,,,,,,,,,,,,,,,,,,,,,,,,,,,,
,,6140ef8d27499e70e8740918,2024-02-22_03h25.30.142,kallum_motion_pilot,2023.2.2,Win32,12.69035533,6140ef8d27499e70e8740918,65d6bb0e977760de756971f7,65d6be9256de2f00fa72f92c,0.0529,0.053,1,112,274,49,1,onethree,,,,,,,,,,,,,,,,,,,,,,,,,,,,,,,,,,,,,,,,,,,,,,,,,,,,,,,,,,,,,,,,,,,,,,,,,,,,,,,,,,,,,,,,,,,,,,,,,,,,,,,,,,,,,,,,,,,,,,,,,,,,,,,,,,,,,,,,,
,,6140ef8d27499e70e8740918,2024-02-22_03h25.30.142,kallum_motion_pilot,2023.2.2,Win32,12.69035533,6140ef8d27499e70e8740918,65d6bb0e977760de756971f7,65d6be9256de2f00fa72f92c,0.0531,0.0531,1,113,275,113,1,fiveseven,,,,,,,,,,,,,,,,,,,,,,,,,,,,,,,,,,,,,,,,,,,,,,,,,,,,,,,,,,,,,,,,,,,,,,,,,,,,,,,,,,,,,,,,,,,,,,,,,,,,,,,,,,,,,,,,,,,,,,,,,,,,,,,,,,,,,,,,,
,,6140ef8d27499e70e8740918,2024-02-22_03h25.30.142,kallum_motion_pilot,2023.2.2,Win32,12.69035533,6140ef8d27499e70e8740918,65d6bb0e977760de756971f7,65d6be9256de2f00fa72f92c,0.0531,0.0532,1,114,276,122,1,sixfive,,,,,,,,,,,,,,,,,,,,,,,,,,,,,,,,,,,,,,,,,,,,,,,,,,,,,,,,,,,,,,,,,,,,,,,,,,,,,,,,,,,,,,,,,,,,,,,,,,,,,,,,,,,,,,,,,,,,,,,,,,,,,,,,,,,,,,,,,
,,6140ef8d27499e70e8740918,2024-02-22_03h25.30.142,kallum_motion_pilot,2023.2.2,Win32,12.69035533,6140ef8d27499e70e8740918,65d6bb0e977760de756971f7,65d6be9256de2f00fa72f92c,0.0532,0.0533,1,115,277,97,1,fiveseven,,,,,,,,,,,,,,,,,,,,,,,,,,,,,,,,,,,,,,,,,,,,,,,,,,,,,,,,,,,,,,,,,,,,,,,,,,,,,,,,,,,,,,,,,,,,,,,,,,,,,,,,,,,,,,,,,,,,,,,,,,,,,,,,,,,,,,,,,
