startup.started,startup.stopped,Prolific ID*,date,expName,psychopyVersion,OS,frameRate,participant,study_id,session,stimpositions.started,stimpositions.stopped,hardcoded_stimulus_positions.thisRepN,hardcoded_stimulus_positions.thisTrialN,hardcoded_stimulus_positions.thisN,hardcoded_stimulus_positions.thisIndex,hardcoded_stimulus_positions.ran,StimulusPos,stimorientation.started,stimorientation.stopped,prac_stimorientation_import_loop.thisRepN,prac_stimorientation_import_loop.thisTrialN,prac_stimorientation_import_loop.thisN,prac_stimorientation_import_loop.thisIndex,prac_stimorientation_import_loop.ran,Stimorientation,welcome_instr.started,welcome_instr.stopped,key_resp.keys,key_resp.rt,key_resp.duration,response_steppedout_1.started,response_steppedout_1.stopped,key_resp_20.keys,key_resp_20.rt,key_resp_20.duration,response_steppedout_2.started,response_steppedout_2.stopped,key_resp_19.keys,key_resp_19.rt,key_resp_19.duration,stim_response_instr.started,stim_response_instr.stopped,key_resp_15.keys,key_resp_15.rt,key_resp_15.duration,direction_instr_2.started,direction_instr_2.stopped,key_resp_9.keys,key_resp_9.rt,key_resp_9.duration,instr_prac.started,instr_prac.stopped,key_resp_10.keys,key_resp_10.rt,key_resp_10.duration,Stim1_display_prac.started,Stim1_display_prac.stopped,Ecc,Circle1_ori,Circle2_ori,response_prac.started,similarity,response_time,response_prac.stopped,mouse_5.x,mouse_5.y,mouse_5.leftButton,mouse_5.midButton,mouse_5.rightButton,mouse_5.clicked_name,responseprac_feedback.started,responseprac_feedback.stopped,summary2_prac.started,summary2_prac.stopped,mouse_6.x,mouse_6.y,mouse_6.leftButton,mouse_6.midButton,mouse_6.rightButton,mouse_6.clicked_name,duringprac.thisRepN,duringprac.thisTrialN,duringprac.thisN,duringprac.thisIndex,duringprac.ran,begin.started,begin.stopped,key_resp_22.keys,key_resp_22.rt,key_resp_22.duration,Stim1_display.started,Stim1_display.stopped,circle1_ori,circle2_ori,circle1_SF,circle2_SF,response.started,response.stopped,mouse.x,mouse.y,mouse.leftButton,mouse.midButton,mouse.rightButton,mouse.clicked_name,trialnumber,double_pass.thisRepN,double_pass.thisTrialN,double_pass.thisN,double_pass.thisIndex,double_pass.ran,double_pass.order,main_trial.thisRepN,main_trial.thisTrialN,main_trial.thisN,main_trial.thisIndex,main_trial.ran,main_trial.order,Trial_Counter,Catch,Frequencies,response_2.started,response_2.stopped,mouse_2.x,mouse_2.y,mouse_2.leftButton,mouse_2.midButton,mouse_2.rightButton,mouse_2.clicked_name,special_trial.started,special_trial.stopped,catch_1.started,catch_1.stopped,mouse_3.x,mouse_3.y,mouse_3.leftButton,mouse_3.midButton,mouse_3.rightButton,catchresponse,catchnumber,response_time_catch,response_sum.started,response_sum.stopped,mouse_11.x,mouse_11.y,mouse_11.leftButton,mouse_11.midButton,mouse_11.rightButton,flip_presentation_sequence_for_double_pass.started,flip_presentation_sequence_for_double_pass.stopped,goodbye.started,goodbye.stopped,key_resp_3.keys,key_resp_3.rt,key_resp_3.duration
0.0006,0.0007,614775c6f329a9e5ab190e04,2024-02-19_02h16.25.824,kallum_motion_pilot,2023.2.2,Win32,144.9275362,614775c6f329a9e5ab190e04,65d2b6c8f2eece985d8e374c,65d2b9eb4c64ef8f4bd15960,,,,,,,,,,,,,,,,,,,,,,,,,,,,,,,,,,,,,,,,,,,,,,,,,,,,,,,,,,,,,,,,,,,,,,,,,,,,,,,,,,,,,,,,,,,,,,,,,,,,,,,,,,,,,,,,,,,,,,,,,,,,,,,,,,,,,,,,,,,,,,,,,
,,614775c6f329a9e5ab190e04,2024-02-19_02h16.25.824,kallum_motion_pilot,2023.2.2,Win32,144.9275362,614775c6f329a9e5ab190e04,65d2b6c8f2eece985d8e374c,65d2b9eb4c64ef8f4bd15960,0.0309,0.031,0,0,0,36,1,threeone,,,,,,,,,,,,,,,,,,,,,,,,,,,,,,,,,,,,,,,,,,,,,,,,,,,,,,,,,,,,,,,,,,,,,,,,,,,,,,,,,,,,,,,,,,,,,,,,,,,,,,,,,,,,,,,,,,,,,,,,,,,,,,,,,,,,,,,,,
,,614775c6f329a9e5ab190e04,2024-02-19_02h16.25.824,kallum_motion_pilot,2023.2.2,Win32,144.9275362,614775c6f329a9e5ab190e04,65d2b6c8f2eece985d8e374c,65d2b9eb4c64ef8f4bd15960,0.0312,0.0313,0,1,1,4,1,threeone,,,,,,,,,,,,,,,,,,,,,,,,,,,,,,,,,,,,,,,,,,,,,,,,,,,,,,,,,,,,,,,,,,,,,,,,,,,,,,,,,,,,,,,,,,,,,,,,,,,,,,,,,,,,,,,,,,,,,,,,,,,,,,,,,,,,,,,,,
,,614775c6f329a9e5ab190e04,2024-02-19_02h16.25.824,kallum_motion_pilot,2023.2.2,Win32,144.9275362,614775c6f329a9e5ab190e04,65d2b6c8f2eece985d8e374c,65d2b9eb4c64ef8f4bd15960,0.0314,0.0314,0,2,2,143,1,eightseven,,,,,,,,,,,,,,,,,,,,,,,,,,,,,,,,,,,,,,,,,,,,,,,,,,,,,,,,,,,,,,,,,,,,,,,,,,,,,,,,,,,,,,,,,,,,,,,,,,,,,,,,,,,,,,,,,,,,,,,,,,,,,,,,,,,,,,,,,
,,614775c6f329a9e5ab190e04,2024-02-19_02h16.25.824,kallum_motion_pilot,2023.2.2,Win32,144.9275362,614775c6f329a9e5ab190e04,65d2b6c8f2eece985d8e374c,65d2b9eb4c64ef8f4bd15960,0.0315,0.0315,0,3,3,113,1,fiveseven,,,,,,,,,,,,,,,,,,,,,,,,,,,,,,,,,,,,,,,,,,,,,,,,,,,,,,,,,,,,,,,,,,,,,,,,,,,,,,,,,,,,,,,,,,,,,,,,,,,,,,,,,,,,,,,,,,,,,,,,,,,,,,,,,,,,,,,,,
,,614775c6f329a9e5ab190e04,2024-02-19_02h16.25.824,kallum_motion_pilot,2023.2.2,Win32,144.9275362,614775c6f329a9e5ab190e04,65d2b6c8f2eece985d8e374c,65d2b9eb4c64ef8f4bd15960,0.0316,0.0316,0,4,4,19,1,twofour,,,,,,,,,,,,,,,,,,,,,,,,,,,,,,,,,,,,,,,,,,,,,,,,,,,,,,,,,,,,,,,,,,,,,,,,,,,,,,,,,,,,,,,,,,,,,,,,,,,,,,,,,,,,,,,,,,,,,,,,,,,,,,,,,,,,,,,,,
,,614775c6f329a9e5ab190e04,2024-02-19_02h16.25.824,kallum_motion_pilot,2023.2.2,Win32,144.9275362,614775c6f329a9e5ab190e04,65d2b6c8f2eece985d8e374c,65d2b9eb4c64ef8f4bd15960,0.0317,0.0317,0,5,5,62,1,fourtwo,,,,,,,,,,,,,,,,,,,,,,,,,,,,,,,,,,,,,,,,,,,,,,,,,,,,,,,,,,,,,,,,,,,,,,,,,,,,,,,,,,,,,,,,,,,,,,,,,,,,,,,,,,,,,,,,,,,,,,,,,,,,,,,,,,,,,,,,,
,,614775c6f329a9e5ab190e04,2024-02-19_02h16.25.824,kallum_motion_pilot,2023.2.2,Win32,144.9275362,614775c6f329a9e5ab190e04,65d2b6c8f2eece985d8e374c,65d2b9eb4c64ef8f4bd15960,0.0319,0.0319,0,6,6,107,1,sixeight,,,,,,,,,,,,,,,,,,,,,,,,,,,,,,,,,,,,,,,,,,,,,,,,,,,,,,,,,,,,,,,,,,,,,,,,,,,,,,,,,,,,,,,,,,,,,,,,,,,,,,,,,,,,,,,,,,,,,,,,,,,,,,,,,,,,,,,,,
,,614775c6f329a9e5ab190e04,2024-02-19_02h16.25.824,kallum_motion_pilot,2023.2.2,Win32,144.9275362,614775c6f329a9e5ab190e04,65d2b6c8f2eece985d8e374c,65d2b9eb4c64ef8f4bd15960,0.032,0.032,0,7,7,134,1,eightsix,,,,,,,,,,,,,,,,,,,,,,,,,,,,,,,,,,,,,,,,,,,,,,,,,,,,,,,,,,,,,,,,,,,,,,,,,,,,,,,,,,,,,,,,,,,,,,,,,,,,,,,,,,,,,,,,,,,,,,,,,,,,,,,,,,,,,,,,,
,,614775c6f329a9e5ab190e04,2024-02-19_02h16.25.824,kallum_motion_pilot,2023.2.2,Win32,144.9275362,614775c6f329a9e5ab190e04,65d2b6c8f2eece985d8e374c,65d2b9eb4c64ef8f4bd15960,0.0321,0.0321,0,8,8,132,1,sevenfive,,,,,,,,,,,,,,,,,,,,,,,,,,,,,,,,,,,,,,,,,,,,,,,,,,,,,,,,,,,,,,,,,,,,,,,,,,,,,,,,,,,,,,,,,,,,,,,,,,,,,,,,,,,,,,,,,,,,,,,,,,,,,,,,,,,,,,,,,
,,614775c6f329a9e5ab190e04,2024-02-19_02h16.25.824,kallum_motion_pilot,2023.2.2,Win32,144.9275362,614775c6f329a9e5ab190e04,65d2b6c8f2eece985d8e374c,65d2b9eb4c64ef8f4bd15960,0.0323,0.0323,0,9,9,121,1,fiveseven,,,,,,,,,,,,,,,,,,,,,,,,,,,,,,,,,,,,,,,,,,,,,,,,,,,,,,,,,,,,,,,,,,,,,,,,,,,,,,,,,,,,,,,,,,,,,,,,,,,,,,,,,,,,,,,,,,,,,,,,,,,,,,,,,,,,,,,,,
,,614775c6f329a9e5ab190e04,2024-02-19_02h16.25.824,kallum_motion_pilot,2023.2.2,Win32,144.9275362,614775c6f329a9e5ab190e04,65d2b6c8f2eece985d8e374c,65d2b9eb4c64ef8f4bd15960,0.0323,0.0324,0,10,10,96,1,fivesix,,,,,,,,,,,,,,,,,,,,,,,,,,,,,,,,,,,,,,,,,,,,,,,,,,,,,,,,,,,,,,,,,,,,,,,,,,,,,,,,,,,,,,,,,,,,,,,,,,,,,,,,,,,,,,,,,,,,,,,,,,,,,,,,,,,,,,,,,
,,614775c6f329a9e5ab190e04,2024-02-19_02h16.25.824,kallum_motion_pilot,2023.2.2,Win32,144.9275362,614775c6f329a9e5ab190e04,65d2b6c8f2eece985d8e374c,65d2b9eb4c64ef8f4bd15960,0.0325,0.0325,0,11,11,70,1,fourtwo,,,,,,,,,,,,,,,,,,,,,,,,,,,,,,,,,,,,,,,,,,,,,,,,,,,,,,,,,,,,,,,,,,,,,,,,,,,,,,,,,,,,,,,,,,,,,,,,,,,,,,,,,,,,,,,,,,,,,,,,,,,,,,,,,,,,,,,,,
,,614775c6f329a9e5ab190e04,2024-02-19_02h16.25.824,kallum_motion_pilot,2023.2.2,Win32,144.9275362,614775c6f329a9e5ab190e04,65d2b6c8f2eece985d8e374c,65d2b9eb4c64ef8f4bd15960,0.0326,0.0326,0,12,12,34,1,twoone,,,,,,,,,,,,,,,,,,,,,,,,,,,,,,,,,,,,,,,,,,,,,,,,,,,,,,,,,,,,,,,,,,,,,,,,,,,,,,,,,,,,,,,,,,,,,,,,,,,,,,,,,,,,,,,,,,,,,,,,,,,,,,,,,,,,,,,,,
,,614775c6f329a9e5ab190e04,2024-02-19_02h16.25.824,kallum_motion_pilot,2023.2.2,Win32,144.9275362,614775c6f329a9e5ab190e04,65d2b6c8f2eece985d8e374c,65d2b9eb4c64ef8f4bd15960,0.0326,0.0327,0,13,13,115,1,sixeight,,,,,,,,,,,,,,,,,,,,,,,,,,,,,,,,,,,,,,,,,,,,,,,,,,,,,,,,,,,,,,,,,,,,,,,,,,,,,,,,,,,,,,,,,,,,,,,,,,,,,,,,,,,,,,,,,,,,,,,,,,,,,,,,,,,,,,,,,
,,614775c6f329a9e5ab190e04,2024-02-19_02h16.25.824,kallum_motion_pilot,2023.2.2,Win32,144.9275362,614775c6f329a9e5ab190e04,65d2b6c8f2eece985d8e374c,65d2b9eb4c64ef8f4bd15960,0.0328,0.0328,0,14,14,137,1,fiveseven,,,,,,,,,,,,,,,,,,,,,,,,,,,,,,,,,,,,,,,,,,,,,,,,,,,,,,,,,,,,,,,,,,,,,,,,,,,,,,,,,,,,,,,,,,,,,,,,,,,,,,,,,,,,,,,,,,,,,,,,,,,,,,,,,,,,,,,,,
,,614775c6f329a9e5ab190e04,2024-02-19_02h16.25.824,kallum_motion_pilot,2023.2.2,Win32,144.9275362,614775c6f329a9e5ab190e04,65d2b6c8f2eece985d8e374c,65d2b9eb4c64ef8f4bd15960,0.0329,0.0329,0,15,15,38,1,fourtwo,,,,,,,,,,,,,,,,,,,,,,,,,,,,,,,,,,,,,,,,,,,,,,,,,,,,,,,,,,,,,,,,,,,,,,,,,,,,,,,,,,,,,,,,,,,,,,,,,,,,,,,,,,,,,,,,,,,,,,,,,,,,,,,,,,,,,,,,,
,,614775c6f329a9e5ab190e04,2024-02-19_02h16.25.824,kallum_motion_pilot,2023.2.2,Win32,144.9275362,614775c6f329a9e5ab190e04,65d2b6c8f2eece985d8e374c,65d2b9eb4c64ef8f4bd15960,0.033,0.033,0,16,16,87,1,eightseven,,,,,,,,,,,,,,,,,,,,,,,,,,,,,,,,,,,,,,,,,,,,,,,,,,,,,,,,,,,,,,,,,,,,,,,,,,,,,,,,,,,,,,,,,,,,,,,,,,,,,,,,,,,,,,,,,,,,,,,,,,,,,,,,,,,,,,,,,
,,614775c6f329a9e5ab190e04,2024-02-19_02h16.25.824,kallum_motion_pilot,2023.2.2,Win32,144.9275362,614775c6f329a9e5ab190e04,65d2b6c8f2eece985d8e374c,65d2b9eb4c64ef8f4bd15960,0.033,0.0331,0,17,17,141,1,seveneight,,,,,,,,,,,,,,,,,,,,,,,,,,,,,,,,,,,,,,,,,,,,,,,,,,,,,,,,,,,,,,,,,,,,,,,,,,,,,,,,,,,,,,,,,,,,,,,,,,,,,,,,,,,,,,,,,,,,,,,,,,,,,,,,,,,,,,,,,
,,614775c6f329a9e5ab190e04,2024-02-19_02h16.25.824,kallum_motion_pilot,2023.2.2,Win32,144.9275362,614775c6f329a9e5ab190e04,65d2b6c8f2eece985d8e374c,65d2b9eb4c64ef8f4bd15960,0.0332,0.0332,0,18,18,15,1,fourthree,,,,,,,,,,,,,,,,,,,,,,,,,,,,,,,,,,,,,,,,,,,,,,,,,,,,,,,,,,,,,,,,,,,,,,,,,,,,,,,,,,,,,,,,,,,,,,,,,,,,,,,,,,,,,,,,,,,,,,,,,,,,,,,,,,,,,,,,,
,,614775c6f329a9e5ab190e04,2024-02-19_02h16.25.824,kallum_motion_pilot,2023.2.2,Win32,144.9275362,614775c6f329a9e5ab190e04,65d2b6c8f2eece985d8e374c,65d2b9eb4c64ef8f4bd15960,0.0332,0.0333,0,19,19,150,1,eightsix,,,,,,,,,,,,,,,,,,,,,,,,,,,,,,,,,,,,,,,,,,,,,,,,,,,,,,,,,,,,,,,,,,,,,,,,,,,,,,,,,,,,,,,,,,,,,,,,,,,,,,,,,,,,,,,,,,,,,,,,,,,,,,,,,,,,,,,,,
,,614775c6f329a9e5ab190e04,2024-02-19_02h16.25.824,kallum_motion_pilot,2023.2.2,Win32,144.9275362,614775c6f329a9e5ab190e04,65d2b6c8f2eece985d8e374c,65d2b9eb4c64ef8f4bd15960,0.0334,0.0334,0,20,20,91,1,sixeight,,,,,,,,,,,,,,,,,,,,,,,,,,,,,,,,,,,,,,,,,,,,,,,,,,,,,,,,,,,,,,,,,,,,,,,,,,,,,,,,,,,,,,,,,,,,,,,,,,,,,,,,,,,,,,,,,,,,,,,,,,,,,,,,,,,,,,,,,
,,614775c6f329a9e5ab190e04,2024-02-19_02h16.25.824,kallum_motion_pilot,2023.2.2,Win32,144.9275362,614775c6f329a9e5ab190e04,65d2b6c8f2eece985d8e374c,65d2b9eb4c64ef8f4bd15960,0.0335,0.0335,0,21,21,31,1,fourthree,,,,,,,,,,,,,,,,,,,,,,,,,,,,,,,,,,,,,,,,,,,,,,,,,,,,,,,,,,,,,,,,,,,,,,,,,,,,,,,,,,,,,,,,,,,,,,,,,,,,,,,,,,,,,,,,,,,,,,,,,,,,,,,,,,,,,,,,,
,,614775c6f329a9e5ab190e04,2024-02-19_02h16.25.824,kallum_motion_pilot,2023.2.2,Win32,144.9275362,614775c6f329a9e5ab190e04,65d2b6c8f2eece985d8e374c,65d2b9eb4c64ef8f4bd15960,0.0336,0.0337,0,22,22,89,1,fiveseven,,,,,,,,,,,,,,,,,,,,,,,,,,,,,,,,,,,,,,,,,,,,,,,,,,,,,,,,,,,,,,,,,,,,,,,,,,,,,,,,,,,,,,,,,,,,,,,,,,,,,,,,,,,,,,,,,,,,,,,,,,,,,,,,,,,,,,,,,
,,614775c6f329a9e5ab190e04,2024-02-19_02h16.25.824,kallum_motion_pilot,2023.2.2,Win32,144.9275362,614775c6f329a9e5ab190e04,65d2b6c8f2eece985d8e374c,65d2b9eb4c64ef8f4bd15960,0.0337,0.0337,0,23,23,50,1,twoone,,,,,,,,,,,,,,,,,,,,,,,,,,,,,,,,,,,,,,,,,,,,,,,,,,,,,,,,,,,,,,,,,,,,,,,,,,,,,,,,,,,,,,,,,,,,,,,,,,,,,,,,,,,,,,,,,,,,,,,,,,,,,,,,,,,,,,,,,
,,614775c6f329a9e5ab190e04,2024-02-19_02h16.25.824,kallum_motion_pilot,2023.2.2,Win32,144.9275362,614775c6f329a9e5ab190e04,65d2b6c8f2eece985d8e374c,65d2b9eb4c64ef8f4bd15960,0.0338,0.0338,0,24,24,11,1,twofour,,,,,,,,,,,,,,,,,,,,,,,,,,,,,,,,,,,,,,,,,,,,,,,,,,,,,,,,,,,,,,,,,,,,,,,,,,,,,,,,,,,,,,,,,,,,,,,,,,,,,,,,,,,,,,,,,,,,,,,,,,,,,,,,,,,,,,,,,
,,614775c6f329a9e5ab190e04,2024-02-19_02h16.25.824,kallum_motion_pilot,2023.2.2,Win32,144.9275362,614775c6f329a9e5ab190e04,65d2b6c8f2eece985d8e374c,65d2b9eb4c64ef8f4bd15960,0.0339,0.0339,0,25,25,146,1,sixfive,,,,,,,,,,,,,,,,,,,,,,,,,,,,,,,,,,,,,,,,,,,,,,,,,,,,,,,,,,,,,,,,,,,,,,,,,,,,,,,,,,,,,,,,,,,,,,,,,,,,,,,,,,,,,,,,,,,,,,,,,,,,,,,,,,,,,,,,,
,,614775c6f329a9e5ab190e04,2024-02-19_02h16.25.824,kallum_motion_pilot,2023.2.2,Win32,144.9275362,614775c6f329a9e5ab190e04,65d2b6c8f2eece985d8e374c,65d2b9eb4c64ef8f4bd15960,0.034,0.0341,0,26,26,18,1,twoone,,,,,,,,,,,,,,,,,,,,,,,,,,,,,,,,,,,,,,,,,,,,,,,,,,,,,,,,,,,,,,,,,,,,,,,,,,,,,,,,,,,,,,,,,,,,,,,,,,,,,,,,,,,,,,,,,,,,,,,,,,,,,,,,,,,,,,,,,
,,614775c6f329a9e5ab190e04,2024-02-19_02h16.25.824,kallum_motion_pilot,2023.2.2,Win32,144.9275362,614775c6f329a9e5ab190e04,65d2b6c8f2eece985d8e374c,65d2b9eb4c64ef8f4bd15960,0.0341,0.0342,0,27,27,74,1,twoone,,,,,,,,,,,,,,,,,,,,,,,,,,,,,,,,,,,,,,,,,,,,,,,,,,,,,,,,,,,,,,,,,,,,,,,,,,,,,,,,,,,,,,,,,,,,,,,,,,,,,,,,,,,,,,,,,,,,,,,,,,,,,,,,,,,,,,,,,
,,614775c6f329a9e5ab190e04,2024-02-19_02h16.25.824,kallum_motion_pilot,2023.2.2,Win32,144.9275362,614775c6f329a9e5ab190e04,65d2b6c8f2eece985d8e374c,65d2b9eb4c64ef8f4bd15960,0.0342,0.0342,0,28,28,24,1,onetwo,,,,,,,,,,,,,,,,,,,,,,,,,,,,,,,,,,,,,,,,,,,,,,,,,,,,,,,,,,,,,,,,,,,,,,,,,,,,,,,,,,,,,,,,,,,,,,,,,,,,,,,,,,,,,,,,,,,,,,,,,,,,,,,,,,,,,,,,,
,,614775c6f329a9e5ab190e04,2024-02-19_02h16.25.824,kallum_motion_pilot,2023.2.2,Win32,144.9275362,614775c6f329a9e5ab190e04,65d2b6c8f2eece985d8e374c,65d2b9eb4c64ef8f4bd15960,0.0344,0.0344,0,29,29,156,1,sevenfive,,,,,,,,,,,,,,,,,,,,,,,,,,,,,,,,,,,,,,,,,,,,,,,,,,,,,,,,,,,,,,,,,,,,,,,,,,,,,,,,,,,,,,,,,,,,,,,,,,,,,,,,,,,,,,,,,,,,,,,,,,,,,,,,,,,,,,,,,
,,614775c6f329a9e5ab190e04,2024-02-19_02h16.25.824,kallum_motion_pilot,2023.2.2,Win32,144.9275362,614775c6f329a9e5ab190e04,65d2b6c8f2eece985d8e374c,65d2b9eb4c64ef8f4bd15960,0.0344,0.0345,0,30,30,98,1,sixfive,,,,,,,,,,,,,,,,,,,,,,,,,,,,,,,,,,,,,,,,,,,,,,,,,,,,,,,,,,,,,,,,,,,,,,,,,,,,,,,,,,,,,,,,,,,,,,,,,,,,,,,,,,,,,,,,,,,,,,,,,,,,,,,,,,,,,,,,,
,,614775c6f329a9e5ab190e04,2024-02-19_02h16.25.824,kallum_motion_pilot,2023.2.2,Win32,144.9275362,614775c6f329a9e5ab190e04,65d2b6c8f2eece985d8e374c,65d2b9eb4c64ef8f4bd15960,0.0345,0.0346,0,31,31,26,1,twoone,,,,,,,,,,,,,,,,,,,,,,,,,,,,,,,,,,,,,,,,,,,,,,,,,,,,,,,,,,,,,,,,,,,,,,,,,,,,,,,,,,,,,,,,,,,,,,,,,,,,,,,,,,,,,,,,,,,,,,,,,,,,,,,,,,,,,,,,,
,,614775c6f329a9e5ab190e04,2024-02-19_02h16.25.824,kallum_motion_pilot,2023.2.2,Win32,144.9275362,614775c6f329a9e5ab190e04,65d2b6c8f2eece985d8e374c,65d2b9eb4c64ef8f4bd15960,0.0347,0.0347,0,32,32,85,1,seveneight,,,,,,,,,,,,,,,,,,,,,,,,,,,,,,,,,,,,,,,,,,,,,,,,,,,,,,,,,,,,,,,,,,,,,,,,,,,,,,,,,,,,,,,,,,,,,,,,,,,,,,,,,,,,,,,,,,,,,,,,,,,,,,,,,,,,,,,,,
,,614775c6f329a9e5ab190e04,2024-02-19_02h16.25.824,kallum_motion_pilot,2023.2.2,Win32,144.9275362,614775c6f329a9e5ab190e04,65d2b6c8f2eece985d8e374c,65d2b9eb4c64ef8f4bd15960,0.0348,0.0348,0,33,33,126,1,eightsix,,,,,,,,,,,,,,,,,,,,,,,,,,,,,,,,,,,,,,,,,,,,,,,,,,,,,,,,,,,,,,,,,,,,,,,,,,,,,,,,,,,,,,,,,,,,,,,,,,,,,,,,,,,,,,,,,,,,,,,,,,,,,,,,,,,,,,,,,
,,614775c6f329a9e5ab190e04,2024-02-19_02h16.25.824,kallum_motion_pilot,2023.2.2,Win32,144.9275362,614775c6f329a9e5ab190e04,65d2b6c8f2eece985d8e374c,65d2b9eb4c64ef8f4bd15960,0.0349,0.0349,0,34,34,95,1,eightseven,,,,,,,,,,,,,,,,,,,,,,,,,,,,,,,,,,,,,,,,,,,,,,,,,,,,,,,,,,,,,,,,,,,,,,,,,,,,,,,,,,,,,,,,,,,,,,,,,,,,,,,,,,,,,,,,,,,,,,,,,,,,,,,,,,,,,,,,,
,,614775c6f329a9e5ab190e04,2024-02-19_02h16.25.824,kallum_motion_pilot,2023.2.2,Win32,144.9275362,614775c6f329a9e5ab190e04,65d2b6c8f2eece985d8e374c,65d2b9eb4c64ef8f4bd15960,0.035,0.035,0,35,35,124,1,sevenfive,,,,,,,,,,,,,,,,,,,,,,,,,,,,,,,,,,,,,,,,,,,,,,,,,,,,,,,,,,,,,,,,,,,,,,,,,,,,,,,,,,,,,,,,,,,,,,,,,,,,,,,,,,,,,,,,,,,,,,,,,,,,,,,,,,,,,,,,,
,,614775c6f329a9e5ab190e04,2024-02-19_02h16.25.824,kallum_motion_pilot,2023.2.2,Win32,144.9275362,614775c6f329a9e5ab190e04,65d2b6c8f2eece985d8e374c,65d2b9eb4c64ef8f4bd15960,0.0351,0.0352,0,36,36,109,1,seveneight,,,,,,,,,,,,,,,,,,,,,,,,,,,,,,,,,,,,,,,,,,,,,,,,,,,,,,,,,,,,,,,,,,,,,,,,,,,,,,,,,,,,,,,,,,,,,,,,,,,,,,,,,,,,,,,,,,,,,,,,,,,,,,,,,,,,,,,,,
,,614775c6f329a9e5ab190e04,2024-02-19_02h16.25.824,kallum_motion_pilot,2023.2.2,Win32,144.9275362,614775c6f329a9e5ab190e04,65d2b6c8f2eece985d8e374c,65d2b9eb4c64ef8f4bd15960,0.0353,0.0353,0,37,37,27,1,twofour,,,,,,,,,,,,,,,,,,,,,,,,,,,,,,,,,,,,,,,,,,,,,,,,,,,,,,,,,,,,,,,,,,,,,,,,,,,,,,,,,,,,,,,,,,,,,,,,,,,,,,,,,,,,,,,,,,,,,,,,,,,,,,,,,,,,,,,,,
,,614775c6f329a9e5ab190e04,2024-02-19_02h16.25.824,kallum_motion_pilot,2023.2.2,Win32,144.9275362,614775c6f329a9e5ab190e04,65d2b6c8f2eece985d8e374c,65d2b9eb4c64ef8f4bd15960,0.0353,0.0354,0,38,38,92,1,sevenfive,,,,,,,,,,,,,,,,,,,,,,,,,,,,,,,,,,,,,,,,,,,,,,,,,,,,,,,,,,,,,,,,,,,,,,,,,,,,,,,,,,,,,,,,,,,,,,,,,,,,,,,,,,,,,,,,,,,,,,,,,,,,,,,,,,,,,,,,,
,,614775c6f329a9e5ab190e04,2024-02-19_02h16.25.824,kallum_motion_pilot,2023.2.2,Win32,144.9275362,614775c6f329a9e5ab190e04,65d2b6c8f2eece985d8e374c,65d2b9eb4c64ef8f4bd15960,0.0354,0.0354,0,39,39,9,1,onethree,,,,,,,,,,,,,,,,,,,,,,,,,,,,,,,,,,,,,,,,,,,,,,,,,,,,,,,,,,,,,,,,,,,,,,,,,,,,,,,,,,,,,,,,,,,,,,,,,,,,,,,,,,,,,,,,,,,,,,,,,,,,,,,,,,,,,,,,,
,,614775c6f329a9e5ab190e04,2024-02-19_02h16.25.824,kallum_motion_pilot,2023.2.2,Win32,144.9275362,614775c6f329a9e5ab190e04,65d2b6c8f2eece985d8e374c,65d2b9eb4c64ef8f4bd15960,0.0356,0.0356,0,40,40,43,1,twofour,,,,,,,,,,,,,,,,,,,,,,,,,,,,,,,,,,,,,,,,,,,,,,,,,,,,,,,,,,,,,,,,,,,,,,,,,,,,,,,,,,,,,,,,,,,,,,,,,,,,,,,,,,,,,,,,,,,,,,,,,,,,,,,,,,,,,,,,,
,,614775c6f329a9e5ab190e04,2024-02-19_02h16.25.824,kallum_motion_pilot,2023.2.2,Win32,144.9275362,614775c6f329a9e5ab190e04,65d2b6c8f2eece985d8e374c,65d2b9eb4c64ef8f4bd15960,0.0357,0.0357,0,41,41,122,1,sixfive,,,,,,,,,,,,,,,,,,,,,,,,,,,,,,,,,,,,,,,,,,,,,,,,,,,,,,,,,,,,,,,,,,,,,,,,,,,,,,,,,,,,,,,,,,,,,,,,,,,,,,,,,,,,,,,,,,,,,,,,,,,,,,,,,,,,,,,,,
,,614775c6f329a9e5ab190e04,2024-02-19_02h16.25.824,kallum_motion_pilot,2023.2.2,Win32,144.9275362,614775c6f329a9e5ab190e04,65d2b6c8f2eece985d8e374c,65d2b9eb4c64ef8f4bd15960,0.0357,0.0358,0,42,42,79,1,eightseven,,,,,,,,,,,,,,,,,,,,,,,,,,,,,,,,,,,,,,,,,,,,,,,,,,,,,,,,,,,,,,,,,,,,,,,,,,,,,,,,,,,,,,,,,,,,,,,,,,,,,,,,,,,,,,,,,,,,,,,,,,,,,,,,,,,,,,,,,
,,614775c6f329a9e5ab190e04,2024-02-19_02h16.25.824,kallum_motion_pilot,2023.2.2,Win32,144.9275362,614775c6f329a9e5ab190e04,65d2b6c8f2eece985d8e374c,65d2b9eb4c64ef8f4bd15960,0.0359,0.0359,0,43,43,2,1,twoone,,,,,,,,,,,,,,,,,,,,,,,,,,,,,,,,,,,,,,,,,,,,,,,,,,,,,,,,,,,,,,,,,,,,,,,,,,,,,,,,,,,,,,,,,,,,,,,,,,,,,,,,,,,,,,,,,,,,,,,,,,,,,,,,,,,,,,,,,
,,614775c6f329a9e5ab190e04,2024-02-19_02h16.25.824,kallum_motion_pilot,2023.2.2,Win32,144.9275362,614775c6f329a9e5ab190e04,65d2b6c8f2eece985d8e374c,65d2b9eb4c64ef8f4bd15960,0.036,0.036,0,44,44,10,1,twoone,,,,,,,,,,,,,,,,,,,,,,,,,,,,,,,,,,,,,,,,,,,,,,,,,,,,,,,,,,,,,,,,,,,,,,,,,,,,,,,,,,,,,,,,,,,,,,,,,,,,,,,,,,,,,,,,,,,,,,,,,,,,,,,,,,,,,,,,,
,,614775c6f329a9e5ab190e04,2024-02-19_02h16.25.824,kallum_motion_pilot,2023.2.2,Win32,144.9275362,614775c6f329a9e5ab190e04,65d2b6c8f2eece985d8e374c,65d2b9eb4c64ef8f4bd15960,0.036,0.0361,0,45,45,159,1,eightseven,,,,,,,,,,,,,,,,,,,,,,,,,,,,,,,,,,,,,,,,,,,,,,,,,,,,,,,,,,,,,,,,,,,,,,,,,,,,,,,,,,,,,,,,,,,,,,,,,,,,,,,,,,,,,,,,,,,,,,,,,,,,,,,,,,,,,,,,,
,,614775c6f329a9e5ab190e04,2024-02-19_02h16.25.824,kallum_motion_pilot,2023.2.2,Win32,144.9275362,614775c6f329a9e5ab190e04,65d2b6c8f2eece985d8e374c,65d2b9eb4c64ef8f4bd15960,0.0362,0.0362,0,46,46,94,1,eightsix,,,,,,,,,,,,,,,,,,,,,,,,,,,,,,,,,,,,,,,,,,,,,,,,,,,,,,,,,,,,,,,,,,,,,,,,,,,,,,,,,,,,,,,,,,,,,,,,,,,,,,,,,,,,,,,,,,,,,,,,,,,,,,,,,,,,,,,,,
,,614775c6f329a9e5ab190e04,2024-02-19_02h16.25.824,kallum_motion_pilot,2023.2.2,Win32,144.9275362,614775c6f329a9e5ab190e04,65d2b6c8f2eece985d8e374c,65d2b9eb4c64ef8f4bd15960,0.0363,0.0363,0,47,47,3,1,twofour,,,,,,,,,,,,,,,,,,,,,,,,,,,,,,,,,,,,,,,,,,,,,,,,,,,,,,,,,,,,,,,,,,,,,,,,,,,,,,,,,,,,,,,,,,,,,,,,,,,,,,,,,,,,,,,,,,,,,,,,,,,,,,,,,,,,,,,,,
,,614775c6f329a9e5ab190e04,2024-02-19_02h16.25.824,kallum_motion_pilot,2023.2.2,Win32,144.9275362,614775c6f329a9e5ab190e04,65d2b6c8f2eece985d8e374c,65d2b9eb4c64ef8f4bd15960,0.0364,0.0364,0,48,48,118,1,eightsix,,,,,,,,,,,,,,,,,,,,,,,,,,,,,,,,,,,,,,,,,,,,,,,,,,,,,,,,,,,,,,,,,,,,,,,,,,,,,,,,,,,,,,,,,,,,,,,,,,,,,,,,,,,,,,,,,,,,,,,,,,,,,,,,,,,,,,,,,
,,614775c6f329a9e5ab190e04,2024-02-19_02h16.25.824,kallum_motion_pilot,2023.2.2,Win32,144.9275362,614775c6f329a9e5ab190e04,65d2b6c8f2eece985d8e374c,65d2b9eb4c64ef8f4bd15960,0.0365,0.0365,0,49,49,7,1,fourthree,,,,,,,,,,,,,,,,,,,,,,,,,,,,,,,,,,,,,,,,,,,,,,,,,,,,,,,,,,,,,,,,,,,,,,,,,,,,,,,,,,,,,,,,,,,,,,,,,,,,,,,,,,,,,,,,,,,,,,,,,,,,,,,,,,,,,,,,,
,,614775c6f329a9e5ab190e04,2024-02-19_02h16.25.824,kallum_motion_pilot,2023.2.2,Win32,144.9275362,614775c6f329a9e5ab190e04,65d2b6c8f2eece985d8e374c,65d2b9eb4c64ef8f4bd15960,0.0367,0.0367,0,50,50,133,1,seveneight,,,,,,,,,,,,,,,,,,,,,,,,,,,,,,,,,,,,,,,,,,,,,,,,,,,,,,,,,,,,,,,,,,,,,,,,,,,,,,,,,,,,,,,,,,,,,,,,,,,,,,,,,,,,,,,,,,,,,,,,,,,,,,,,,,,,,,,,,
,,614775c6f329a9e5ab190e04,2024-02-19_02h16.25.824,kallum_motion_pilot,2023.2.2,Win32,144.9275362,614775c6f329a9e5ab190e04,65d2b6c8f2eece985d8e374c,65d2b9eb4c64ef8f4bd15960,0.0367,0.0368,0,51,51,136,1,fivesix,,,,,,,,,,,,,,,,,,,,,,,,,,,,,,,,,,,,,,,,,,,,,,,,,,,,,,,,,,,,,,,,,,,,,,,,,,,,,,,,,,,,,,,,,,,,,,,,,,,,,,,,,,,,,,,,,,,,,,,,,,,,,,,,,,,,,,,,,
,,614775c6f329a9e5ab190e04,2024-02-19_02h16.25.824,kallum_motion_pilot,2023.2.2,Win32,144.9275362,614775c6f329a9e5ab190e04,65d2b6c8f2eece985d8e374c,65d2b9eb4c64ef8f4bd15960,0.0368,0.0368,0,52,52,127,1,eightseven,,,,,,,,,,,,,,,,,,,,,,,,,,,,,,,,,,,,,,,,,,,,,,,,,,,,,,,,,,,,,,,,,,,,,,,,,,,,,,,,,,,,,,,,,,,,,,,,,,,,,,,,,,,,,,,,,,,,,,,,,,,,,,,,,,,,,,,,,
,,614775c6f329a9e5ab190e04,2024-02-19_02h16.25.824,kallum_motion_pilot,2023.2.2,Win32,144.9275362,614775c6f329a9e5ab190e04,65d2b6c8f2eece985d8e374c,65d2b9eb4c64ef8f4bd15960,0.0369,0.037,0,53,53,151,1,eightseven,,,,,,,,,,,,,,,,,,,,,,,,,,,,,,,,,,,,,,,,,,,,,,,,,,,,,,,,,,,,,,,,,,,,,,,,,,,,,,,,,,,,,,,,,,,,,,,,,,,,,,,,,,,,,,,,,,,,,,,,,,,,,,,,,,,,,,,,,
,,614775c6f329a9e5ab190e04,2024-02-19_02h16.25.824,kallum_motion_pilot,2023.2.2,Win32,144.9275362,614775c6f329a9e5ab190e04,65d2b6c8f2eece985d8e374c,65d2b9eb4c64ef8f4bd15960,0.0371,0.0371,0,54,54,52,1,threeone,,,,,,,,,,,,,,,,,,,,,,,,,,,,,,,,,,,,,,,,,,,,,,,,,,,,,,,,,,,,,,,,,,,,,,,,,,,,,,,,,,,,,,,,,,,,,,,,,,,,,,,,,,,,,,,,,,,,,,,,,,,,,,,,,,,,,,,,,
,,614775c6f329a9e5ab190e04,2024-02-19_02h16.25.824,kallum_motion_pilot,2023.2.2,Win32,144.9275362,614775c6f329a9e5ab190e04,65d2b6c8f2eece985d8e374c,65d2b9eb4c64ef8f4bd15960,0.0372,0.0372,0,55,55,147,1,sixeight,,,,,,,,,,,,,,,,,,,,,,,,,,,,,,,,,,,,,,,,,,,,,,,,,,,,,,,,,,,,,,,,,,,,,,,,,,,,,,,,,,,,,,,,,,,,,,,,,,,,,,,,,,,,,,,,,,,,,,,,,,,,,,,,,,,,,,,,,
,,614775c6f329a9e5ab190e04,2024-02-19_02h16.25.824,kallum_motion_pilot,2023.2.2,Win32,144.9275362,614775c6f329a9e5ab190e04,65d2b6c8f2eece985d8e374c,65d2b9eb4c64ef8f4bd15960,0.0372,0.0373,0,56,56,117,1,seveneight,,,,,,,,,,,,,,,,,,,,,,,,,,,,,,,,,,,,,,,,,,,,,,,,,,,,,,,,,,,,,,,,,,,,,,,,,,,,,,,,,,,,,,,,,,,,,,,,,,,,,,,,,,,,,,,,,,,,,,,,,,,,,,,,,,,,,,,,,
,,614775c6f329a9e5ab190e04,2024-02-19_02h16.25.824,kallum_motion_pilot,2023.2.2,Win32,144.9275362,614775c6f329a9e5ab190e04,65d2b6c8f2eece985d8e374c,65d2b9eb4c64ef8f4bd15960,0.0374,0.0374,0,57,57,125,1,seveneight,,,,,,,,,,,,,,,,,,,,,,,,,,,,,,,,,,,,,,,,,,,,,,,,,,,,,,,,,,,,,,,,,,,,,,,,,,,,,,,,,,,,,,,,,,,,,,,,,,,,,,,,,,,,,,,,,,,,,,,,,,,,,,,,,,,,,,,,,
,,614775c6f329a9e5ab190e04,2024-02-19_02h16.25.824,kallum_motion_pilot,2023.2.2,Win32,144.9275362,614775c6f329a9e5ab190e04,65d2b6c8f2eece985d8e374c,65d2b9eb4c64ef8f4bd15960,0.0375,0.0375,0,58,58,161,1,fiveseven,,,,,,,,,,,,,,,,,,,,,,,,,,,,,,,,,,,,,,,,,,,,,,,,,,,,,,,,,,,,,,,,,,,,,,,,,,,,,,,,,,,,,,,,,,,,,,,,,,,,,,,,,,,,,,,,,,,,,,,,,,,,,,,,,,,,,,,,,
,,614775c6f329a9e5ab190e04,2024-02-19_02h16.25.824,kallum_motion_pilot,2023.2.2,Win32,144.9275362,614775c6f329a9e5ab190e04,65d2b6c8f2eece985d8e374c,65d2b9eb4c64ef8f4bd15960,0.0376,0.0376,0,59,59,35,1,twofour,,,,,,,,,,,,,,,,,,,,,,,,,,,,,,,,,,,,,,,,,,,,,,,,,,,,,,,,,,,,,,,,,,,,,,,,,,,,,,,,,,,,,,,,,,,,,,,,,,,,,,,,,,,,,,,,,,,,,,,,,,,,,,,,,,,,,,,,,
,,614775c6f329a9e5ab190e04,2024-02-19_02h16.25.824,kallum_motion_pilot,2023.2.2,Win32,144.9275362,614775c6f329a9e5ab190e04,65d2b6c8f2eece985d8e374c,65d2b9eb4c64ef8f4bd15960,0.0378,0.0378,0,60,60,77,1,threefour,,,,,,,,,,,,,,,,,,,,,,,,,,,,,,,,,,,,,,,,,,,,,,,,,,,,,,,,,,,,,,,,,,,,,,,,,,,,,,,,,,,,,,,,,,,,,,,,,,,,,,,,,,,,,,,,,,,,,,,,,,,,,,,,,,,,,,,,,
,,614775c6f329a9e5ab190e04,2024-02-19_02h16.25.824,kallum_motion_pilot,2023.2.2,Win32,144.9275362,614775c6f329a9e5ab190e04,65d2b6c8f2eece985d8e374c,65d2b9eb4c64ef8f4bd15960,0.0379,0.0379,0,61,61,83,1,sixeight,,,,,,,,,,,,,,,,,,,,,,,,,,,,,,,,,,,,,,,,,,,,,,,,,,,,,,,,,,,,,,,,,,,,,,,,,,,,,,,,,,,,,,,,,,,,,,,,,,,,,,,,,,,,,,,,,,,,,,,,,,,,,,,,,,,,,,,,,
,,614775c6f329a9e5ab190e04,2024-02-19_02h16.25.824,kallum_motion_pilot,2023.2.2,Win32,144.9275362,614775c6f329a9e5ab190e04,65d2b6c8f2eece985d8e374c,65d2b9eb4c64ef8f4bd15960,0.038,0.038,0,62,62,81,1,fiveseven,,,,,,,,,,,,,,,,,,,,,,,,,,,,,,,,,,,,,,,,,,,,,,,,,,,,,,,,,,,,,,,,,,,,,,,,,,,,,,,,,,,,,,,,,,,,,,,,,,,,,,,,,,,,,,,,,,,,,,,,,,,,,,,,,,,,,,,,,
,,614775c6f329a9e5ab190e04,2024-02-19_02h16.25.824,kallum_motion_pilot,2023.2.2,Win32,144.9275362,614775c6f329a9e5ab190e04,65d2b6c8f2eece985d8e374c,65d2b9eb4c64ef8f4bd15960,0.0381,0.0382,0,63,63,23,1,fourthree,,,,,,,,,,,,,,,,,,,,,,,,,,,,,,,,,,,,,,,,,,,,,,,,,,,,,,,,,,,,,,,,,,,,,,,,,,,,,,,,,,,,,,,,,,,,,,,,,,,,,,,,,,,,,,,,,,,,,,,,,,,,,,,,,,,,,,,,,
,,614775c6f329a9e5ab190e04,2024-02-19_02h16.25.824,kallum_motion_pilot,2023.2.2,Win32,144.9275362,614775c6f329a9e5ab190e04,65d2b6c8f2eece985d8e374c,65d2b9eb4c64ef8f4bd15960,0.0382,0.0383,0,64,64,39,1,fourthree,,,,,,,,,,,,,,,,,,,,,,,,,,,,,,,,,,,,,,,,,,,,,,,,,,,,,,,,,,,,,,,,,,,,,,,,,,,,,,,,,,,,,,,,,,,,,,,,,,,,,,,,,,,,,,,,,,,,,,,,,,,,,,,,,,,,,,,,,
,,614775c6f329a9e5ab190e04,2024-02-19_02h16.25.824,kallum_motion_pilot,2023.2.2,Win32,144.9275362,614775c6f329a9e5ab190e04,65d2b6c8f2eece985d8e374c,65d2b9eb4c64ef8f4bd15960,0.0383,0.0383,0,65,65,71,1,fourthree,,,,,,,,,,,,,,,,,,,,,,,,,,,,,,,,,,,,,,,,,,,,,,,,,,,,,,,,,,,,,,,,,,,,,,,,,,,,,,,,,,,,,,,,,,,,,,,,,,,,,,,,,,,,,,,,,,,,,,,,,,,,,,,,,,,,,,,,,
,,614775c6f329a9e5ab190e04,2024-02-19_02h16.25.824,kallum_motion_pilot,2023.2.2,Win32,144.9275362,614775c6f329a9e5ab190e04,65d2b6c8f2eece985d8e374c,65d2b9eb4c64ef8f4bd15960,0.0385,0.0385,0,66,66,155,1,sixeight,,,,,,,,,,,,,,,,,,,,,,,,,,,,,,,,,,,,,,,,,,,,,,,,,,,,,,,,,,,,,,,,,,,,,,,,,,,,,,,,,,,,,,,,,,,,,,,,,,,,,,,,,,,,,,,,,,,,,,,,,,,,,,,,,,,,,,,,,
,,614775c6f329a9e5ab190e04,2024-02-19_02h16.25.824,kallum_motion_pilot,2023.2.2,Win32,144.9275362,614775c6f329a9e5ab190e04,65d2b6c8f2eece985d8e374c,65d2b9eb4c64ef8f4bd15960,0.0386,0.0386,0,67,67,114,1,sixfive,,,,,,,,,,,,,,,,,,,,,,,,,,,,,,,,,,,,,,,,,,,,,,,,,,,,,,,,,,,,,,,,,,,,,,,,,,,,,,,,,,,,,,,,,,,,,,,,,,,,,,,,,,,,,,,,,,,,,,,,,,,,,,,,,,,,,,,,,
,,614775c6f329a9e5ab190e04,2024-02-19_02h16.25.824,kallum_motion_pilot,2023.2.2,Win32,144.9275362,614775c6f329a9e5ab190e04,65d2b6c8f2eece985d8e374c,65d2b9eb4c64ef8f4bd15960,0.0387,0.0387,0,68,68,112,1,fivesix,,,,,,,,,,,,,,,,,,,,,,,,,,,,,,,,,,,,,,,,,,,,,,,,,,,,,,,,,,,,,,,,,,,,,,,,,,,,,,,,,,,,,,,,,,,,,,,,,,,,,,,,,,,,,,,,,,,,,,,,,,,,,,,,,,,,,,,,,
,,614775c6f329a9e5ab190e04,2024-02-19_02h16.25.824,kallum_motion_pilot,2023.2.2,Win32,144.9275362,614775c6f329a9e5ab190e04,65d2b6c8f2eece985d8e374c,65d2b9eb4c64ef8f4bd15960,0.0389,0.0389,0,69,69,53,1,threefour,,,,,,,,,,,,,,,,,,,,,,,,,,,,,,,,,,,,,,,,,,,,,,,,,,,,,,,,,,,,,,,,,,,,,,,,,,,,,,,,,,,,,,,,,,,,,,,,,,,,,,,,,,,,,,,,,,,,,,,,,,,,,,,,,,,,,,,,,
,,614775c6f329a9e5ab190e04,2024-02-19_02h16.25.824,kallum_motion_pilot,2023.2.2,Win32,144.9275362,614775c6f329a9e5ab190e04,65d2b6c8f2eece985d8e374c,65d2b9eb4c64ef8f4bd15960,0.039,0.039,0,70,70,25,1,onethree,,,,,,,,,,,,,,,,,,,,,,,,,,,,,,,,,,,,,,,,,,,,,,,,,,,,,,,,,,,,,,,,,,,,,,,,,,,,,,,,,,,,,,,,,,,,,,,,,,,,,,,,,,,,,,,,,,,,,,,,,,,,,,,,,,,,,,,,,
,,614775c6f329a9e5ab190e04,2024-02-19_02h16.25.824,kallum_motion_pilot,2023.2.2,Win32,144.9275362,614775c6f329a9e5ab190e04,65d2b6c8f2eece985d8e374c,65d2b9eb4c64ef8f4bd15960,0.039,0.0391,0,71,71,33,1,onethree,,,,,,,,,,,,,,,,,,,,,,,,,,,,,,,,,,,,,,,,,,,,,,,,,,,,,,,,,,,,,,,,,,,,,,,,,,,,,,,,,,,,,,,,,,,,,,,,,,,,,,,,,,,,,,,,,,,,,,,,,,,,,,,,,,,,,,,,,
,,614775c6f329a9e5ab190e04,2024-02-19_02h16.25.824,kallum_motion_pilot,2023.2.2,Win32,144.9275362,614775c6f329a9e5ab190e04,65d2b6c8f2eece985d8e374c,65d2b9eb4c64ef8f4bd15960,0.0392,0.0392,0,72,72,68,1,threeone,,,,,,,,,,,,,,,,,,,,,,,,,,,,,,,,,,,,,,,,,,,,,,,,,,,,,,,,,,,,,,,,,,,,,,,,,,,,,,,,,,,,,,,,,,,,,,,,,,,,,,,,,,,,,,,,,,,,,,,,,,,,,,,,,,,,,,,,,
,,614775c6f329a9e5ab190e04,2024-02-19_02h16.25.824,kallum_motion_pilot,2023.2.2,Win32,144.9275362,614775c6f329a9e5ab190e04,65d2b6c8f2eece985d8e374c,65d2b9eb4c64ef8f4bd15960,0.0393,0.0394,0,73,73,129,1,fiveseven,,,,,,,,,,,,,,,,,,,,,,,,,,,,,,,,,,,,,,,,,,,,,,,,,,,,,,,,,,,,,,,,,,,,,,,,,,,,,,,,,,,,,,,,,,,,,,,,,,,,,,,,,,,,,,,,,,,,,,,,,,,,,,,,,,,,,,,,,
,,614775c6f329a9e5ab190e04,2024-02-19_02h16.25.824,kallum_motion_pilot,2023.2.2,Win32,144.9275362,614775c6f329a9e5ab190e04,65d2b6c8f2eece985d8e374c,65d2b9eb4c64ef8f4bd15960,0.0395,0.0395,0,74,74,46,1,fourtwo,,,,,,,,,,,,,,,,,,,,,,,,,,,,,,,,,,,,,,,,,,,,,,,,,,,,,,,,,,,,,,,,,,,,,,,,,,,,,,,,,,,,,,,,,,,,,,,,,,,,,,,,,,,,,,,,,,,,,,,,,,,,,,,,,,,,,,,,,
,,614775c6f329a9e5ab190e04,2024-02-19_02h16.25.824,kallum_motion_pilot,2023.2.2,Win32,144.9275362,614775c6f329a9e5ab190e04,65d2b6c8f2eece985d8e374c,65d2b9eb4c64ef8f4bd15960,0.0395,0.0396,0,75,75,131,1,sixeight,,,,,,,,,,,,,,,,,,,,,,,,,,,,,,,,,,,,,,,,,,,,,,,,,,,,,,,,,,,,,,,,,,,,,,,,,,,,,,,,,,,,,,,,,,,,,,,,,,,,,,,,,,,,,,,,,,,,,,,,,,,,,,,,,,,,,,,,,
,,614775c6f329a9e5ab190e04,2024-02-19_02h16.25.824,kallum_motion_pilot,2023.2.2,Win32,144.9275362,614775c6f329a9e5ab190e04,65d2b6c8f2eece985d8e374c,65d2b9eb4c64ef8f4bd15960,0.0397,0.0397,0,76,76,0,1,onetwo,,,,,,,,,,,,,,,,,,,,,,,,,,,,,,,,,,,,,,,,,,,,,,,,,,,,,,,,,,,,,,,,,,,,,,,,,,,,,,,,,,,,,,,,,,,,,,,,,,,,,,,,,,,,,,,,,,,,,,,,,,,,,,,,,,,,,,,,,
,,614775c6f329a9e5ab190e04,2024-02-19_02h16.25.824,kallum_motion_pilot,2023.2.2,Win32,144.9275362,614775c6f329a9e5ab190e04,65d2b6c8f2eece985d8e374c,65d2b9eb4c64ef8f4bd15960,0.0398,0.0399,0,77,77,116,1,sevenfive,,,,,,,,,,,,,,,,,,,,,,,,,,,,,,,,,,,,,,,,,,,,,,,,,,,,,,,,,,,,,,,,,,,,,,,,,,,,,,,,,,,,,,,,,,,,,,,,,,,,,,,,,,,,,,,,,,,,,,,,,,,,,,,,,,,,,,,,,
,,614775c6f329a9e5ab190e04,2024-02-19_02h16.25.824,kallum_motion_pilot,2023.2.2,Win32,144.9275362,614775c6f329a9e5ab190e04,65d2b6c8f2eece985d8e374c,65d2b9eb4c64ef8f4bd15960,0.0399,0.04,0,78,78,17,1,onethree,,,,,,,,,,,,,,,,,,,,,,,,,,,,,,,,,,,,,,,,,,,,,,,,,,,,,,,,,,,,,,,,,,,,,,,,,,,,,,,,,,,,,,,,,,,,,,,,,,,,,,,,,,,,,,,,,,,,,,,,,,,,,,,,,,,,,,,,,
,,614775c6f329a9e5ab190e04,2024-02-19_02h16.25.824,kallum_motion_pilot,2023.2.2,Win32,144.9275362,614775c6f329a9e5ab190e04,65d2b6c8f2eece985d8e374c,65d2b9eb4c64ef8f4bd15960,0.0401,0.0401,0,79,79,20,1,threeone,,,,,,,,,,,,,,,,,,,,,,,,,,,,,,,,,,,,,,,,,,,,,,,,,,,,,,,,,,,,,,,,,,,,,,,,,,,,,,,,,,,,,,,,,,,,,,,,,,,,,,,,,,,,,,,,,,,,,,,,,,,,,,,,,,,,,,,,,
,,614775c6f329a9e5ab190e04,2024-02-19_02h16.25.824,kallum_motion_pilot,2023.2.2,Win32,144.9275362,614775c6f329a9e5ab190e04,65d2b6c8f2eece985d8e374c,65d2b9eb4c64ef8f4bd15960,0.0402,0.0402,0,80,80,61,1,threefour,,,,,,,,,,,,,,,,,,,,,,,,,,,,,,,,,,,,,,,,,,,,,,,,,,,,,,,,,,,,,,,,,,,,,,,,,,,,,,,,,,,,,,,,,,,,,,,,,,,,,,,,,,,,,,,,,,,,,,,,,,,,,,,,,,,,,,,,,
,,614775c6f329a9e5ab190e04,2024-02-19_02h16.25.824,kallum_motion_pilot,2023.2.2,Win32,144.9275362,614775c6f329a9e5ab190e04,65d2b6c8f2eece985d8e374c,65d2b9eb4c64ef8f4bd15960,0.0404,0.0404,0,81,81,59,1,twofour,,,,,,,,,,,,,,,,,,,,,,,,,,,,,,,,,,,,,,,,,,,,,,,,,,,,,,,,,,,,,,,,,,,,,,,,,,,,,,,,,,,,,,,,,,,,,,,,,,,,,,,,,,,,,,,,,,,,,,,,,,,,,,,,,,,,,,,,,
,,614775c6f329a9e5ab190e04,2024-02-19_02h16.25.824,kallum_motion_pilot,2023.2.2,Win32,144.9275362,614775c6f329a9e5ab190e04,65d2b6c8f2eece985d8e374c,65d2b9eb4c64ef8f4bd15960,0.0404,0.0405,0,82,82,139,1,sixeight,,,,,,,,,,,,,,,,,,,,,,,,,,,,,,,,,,,,,,,,,,,,,,,,,,,,,,,,,,,,,,,,,,,,,,,,,,,,,,,,,,,,,,,,,,,,,,,,,,,,,,,,,,,,,,,,,,,,,,,,,,,,,,,,,,,,,,,,,
,,614775c6f329a9e5ab190e04,2024-02-19_02h16.25.824,kallum_motion_pilot,2023.2.2,Win32,144.9275362,614775c6f329a9e5ab190e04,65d2b6c8f2eece985d8e374c,65d2b9eb4c64ef8f4bd15960,0.0405,0.0405,0,83,83,73,1,onethree,,,,,,,,,,,,,,,,,,,,,,,,,,,,,,,,,,,,,,,,,,,,,,,,,,,,,,,,,,,,,,,,,,,,,,,,,,,,,,,,,,,,,,,,,,,,,,,,,,,,,,,,,,,,,,,,,,,,,,,,,,,,,,,,,,,,,,,,,
,,614775c6f329a9e5ab190e04,2024-02-19_02h16.25.824,kallum_motion_pilot,2023.2.2,Win32,144.9275362,614775c6f329a9e5ab190e04,65d2b6c8f2eece985d8e374c,65d2b9eb4c64ef8f4bd15960,0.0406,0.0407,0,84,84,106,1,sixfive,,,,,,,,,,,,,,,,,,,,,,,,,,,,,,,,,,,,,,,,,,,,,,,,,,,,,,,,,,,,,,,,,,,,,,,,,,,,,,,,,,,,,,,,,,,,,,,,,,,,,,,,,,,,,,,,,,,,,,,,,,,,,,,,,,,,,,,,,
,,614775c6f329a9e5ab190e04,2024-02-19_02h16.25.824,kallum_motion_pilot,2023.2.2,Win32,144.9275362,614775c6f329a9e5ab190e04,65d2b6c8f2eece985d8e374c,65d2b9eb4c64ef8f4bd15960,0.0408,0.0408,0,85,85,47,1,fourthree,,,,,,,,,,,,,,,,,,,,,,,,,,,,,,,,,,,,,,,,,,,,,,,,,,,,,,,,,,,,,,,,,,,,,,,,,,,,,,,,,,,,,,,,,,,,,,,,,,,,,,,,,,,,,,,,,,,,,,,,,,,,,,,,,,,,,,,,,
,,614775c6f329a9e5ab190e04,2024-02-19_02h16.25.824,kallum_motion_pilot,2023.2.2,Win32,144.9275362,614775c6f329a9e5ab190e04,65d2b6c8f2eece985d8e374c,65d2b9eb4c64ef8f4bd15960,0.0408,0.0409,0,86,86,104,1,fivesix,,,,,,,,,,,,,,,,,,,,,,,,,,,,,,,,,,,,,,,,,,,,,,,,,,,,,,,,,,,,,,,,,,,,,,,,,,,,,,,,,,,,,,,,,,,,,,,,,,,,,,,,,,,,,,,,,,,,,,,,,,,,,,,,,,,,,,,,,
,,614775c6f329a9e5ab190e04,2024-02-19_02h16.25.824,kallum_motion_pilot,2023.2.2,Win32,144.9275362,614775c6f329a9e5ab190e04,65d2b6c8f2eece985d8e374c,65d2b9eb4c64ef8f4bd15960,0.041,0.041,0,87,87,93,1,seveneight,,,,,,,,,,,,,,,,,,,,,,,,,,,,,,,,,,,,,,,,,,,,,,,,,,,,,,,,,,,,,,,,,,,,,,,,,,,,,,,,,,,,,,,,,,,,,,,,,,,,,,,,,,,,,,,,,,,,,,,,,,,,,,,,,,,,,,,,,
,,614775c6f329a9e5ab190e04,2024-02-19_02h16.25.824,kallum_motion_pilot,2023.2.2,Win32,144.9275362,614775c6f329a9e5ab190e04,65d2b6c8f2eece985d8e374c,65d2b9eb4c64ef8f4bd15960,0.0411,0.0411,0,88,88,88,1,fivesix,,,,,,,,,,,,,,,,,,,,,,,,,,,,,,,,,,,,,,,,,,,,,,,,,,,,,,,,,,,,,,,,,,,,,,,,,,,,,,,,,,,,,,,,,,,,,,,,,,,,,,,,,,,,,,,,,,,,,,,,,,,,,,,,,,,,,,,,,
,,614775c6f329a9e5ab190e04,2024-02-19_02h16.25.824,kallum_motion_pilot,2023.2.2,Win32,144.9275362,614775c6f329a9e5ab190e04,65d2b6c8f2eece985d8e374c,65d2b9eb4c64ef8f4bd15960,0.0412,0.0412,0,89,89,16,1,onetwo,,,,,,,,,,,,,,,,,,,,,,,,,,,,,,,,,,,,,,,,,,,,,,,,,,,,,,,,,,,,,,,,,,,,,,,,,,,,,,,,,,,,,,,,,,,,,,,,,,,,,,,,,,,,,,,,,,,,,,,,,,,,,,,,,,,,,,,,,
,,614775c6f329a9e5ab190e04,2024-02-19_02h16.25.824,kallum_motion_pilot,2023.2.2,Win32,144.9275362,614775c6f329a9e5ab190e04,65d2b6c8f2eece985d8e374c,65d2b9eb4c64ef8f4bd15960,0.0414,0.0414,0,90,90,108,1,sevenfive,,,,,,,,,,,,,,,,,,,,,,,,,,,,,,,,,,,,,,,,,,,,,,,,,,,,,,,,,,,,,,,,,,,,,,,,,,,,,,,,,,,,,,,,,,,,,,,,,,,,,,,,,,,,,,,,,,,,,,,,,,,,,,,,,,,,,,,,,
,,614775c6f329a9e5ab190e04,2024-02-19_02h16.25.824,kallum_motion_pilot,2023.2.2,Win32,144.9275362,614775c6f329a9e5ab190e04,65d2b6c8f2eece985d8e374c,65d2b9eb4c64ef8f4bd15960,0.0415,0.0415,0,91,91,45,1,threefour,,,,,,,,,,,,,,,,,,,,,,,,,,,,,,,,,,,,,,,,,,,,,,,,,,,,,,,,,,,,,,,,,,,,,,,,,,,,,,,,,,,,,,,,,,,,,,,,,,,,,,,,,,,,,,,,,,,,,,,,,,,,,,,,,,,,,,,,,
,,614775c6f329a9e5ab190e04,2024-02-19_02h16.25.824,kallum_motion_pilot,2023.2.2,Win32,144.9275362,614775c6f329a9e5ab190e04,65d2b6c8f2eece985d8e374c,65d2b9eb4c64ef8f4bd15960,0.0416,0.0416,0,92,92,76,1,threeone,,,,,,,,,,,,,,,,,,,,,,,,,,,,,,,,,,,,,,,,,,,,,,,,,,,,,,,,,,,,,,,,,,,,,,,,,,,,,,,,,,,,,,,,,,,,,,,,,,,,,,,,,,,,,,,,,,,,,,,,,,,,,,,,,,,,,,,,,
,,614775c6f329a9e5ab190e04,2024-02-19_02h16.25.824,kallum_motion_pilot,2023.2.2,Win32,144.9275362,614775c6f329a9e5ab190e04,65d2b6c8f2eece985d8e374c,65d2b9eb4c64ef8f4bd15960,0.0417,0.0417,0,93,93,86,1,eightsix,,,,,,,,,,,,,,,,,,,,,,,,,,,,,,,,,,,,,,,,,,,,,,,,,,,,,,,,,,,,,,,,,,,,,,,,,,,,,,,,,,,,,,,,,,,,,,,,,,,,,,,,,,,,,,,,,,,,,,,,,,,,,,,,,,,,,,,,,
,,614775c6f329a9e5ab190e04,2024-02-19_02h16.25.824,kallum_motion_pilot,2023.2.2,Win32,144.9275362,614775c6f329a9e5ab190e04,65d2b6c8f2eece985d8e374c,65d2b9eb4c64ef8f4bd15960,0.0418,0.0418,0,94,94,6,1,fourtwo,,,,,,,,,,,,,,,,,,,,,,,,,,,,,,,,,,,,,,,,,,,,,,,,,,,,,,,,,,,,,,,,,,,,,,,,,,,,,,,,,,,,,,,,,,,,,,,,,,,,,,,,,,,,,,,,,,,,,,,,,,,,,,,,,,,,,,,,,
,,614775c6f329a9e5ab190e04,2024-02-19_02h16.25.824,kallum_motion_pilot,2023.2.2,Win32,144.9275362,614775c6f329a9e5ab190e04,65d2b6c8f2eece985d8e374c,65d2b9eb4c64ef8f4bd15960,0.0419,0.0419,0,95,95,66,1,twoone,,,,,,,,,,,,,,,,,,,,,,,,,,,,,,,,,,,,,,,,,,,,,,,,,,,,,,,,,,,,,,,,,,,,,,,,,,,,,,,,,,,,,,,,,,,,,,,,,,,,,,,,,,,,,,,,,,,,,,,,,,,,,,,,,,,,,,,,,
,,614775c6f329a9e5ab190e04,2024-02-19_02h16.25.824,kallum_motion_pilot,2023.2.2,Win32,144.9275362,614775c6f329a9e5ab190e04,65d2b6c8f2eece985d8e374c,65d2b9eb4c64ef8f4bd15960,0.0419,0.0421,0,96,96,80,1,fivesix,,,,,,,,,,,,,,,,,,,,,,,,,,,,,,,,,,,,,,,,,,,,,,,,,,,,,,,,,,,,,,,,,,,,,,,,,,,,,,,,,,,,,,,,,,,,,,,,,,,,,,,,,,,,,,,,,,,,,,,,,,,,,,,,,,,,,,,,,
,,614775c6f329a9e5ab190e04,2024-02-19_02h16.25.824,kallum_motion_pilot,2023.2.2,Win32,144.9275362,614775c6f329a9e5ab190e04,65d2b6c8f2eece985d8e374c,65d2b9eb4c64ef8f4bd15960,0.0421,0.0421,0,97,97,82,1,sixfive,,,,,,,,,,,,,,,,,,,,,,,,,,,,,,,,,,,,,,,,,,,,,,,,,,,,,,,,,,,,,,,,,,,,,,,,,,,,,,,,,,,,,,,,,,,,,,,,,,,,,,,,,,,,,,,,,,,,,,,,,,,,,,,,,,,,,,,,,
,,614775c6f329a9e5ab190e04,2024-02-19_02h16.25.824,kallum_motion_pilot,2023.2.2,Win32,144.9275362,614775c6f329a9e5ab190e04,65d2b6c8f2eece985d8e374c,65d2b9eb4c64ef8f4bd15960,0.0422,0.0423,0,98,98,5,1,threefour,,,,,,,,,,,,,,,,,,,,,,,,,,,,,,,,,,,,,,,,,,,,,,,,,,,,,,,,,,,,,,,,,,,,,,,,,,,,,,,,,,,,,,,,,,,,,,,,,,,,,,,,,,,,,,,,,,,,,,,,,,,,,,,,,,,,,,,,,
,,614775c6f329a9e5ab190e04,2024-02-19_02h16.25.824,kallum_motion_pilot,2023.2.2,Win32,144.9275362,614775c6f329a9e5ab190e04,65d2b6c8f2eece985d8e374c,65d2b9eb4c64ef8f4bd15960,0.0423,0.0424,0,99,99,154,1,sixfive,,,,,,,,,,,,,,,,,,,,,,,,,,,,,,,,,,,,,,,,,,,,,,,,,,,,,,,,,,,,,,,,,,,,,,,,,,,,,,,,,,,,,,,,,,,,,,,,,,,,,,,,,,,,,,,,,,,,,,,,,,,,,,,,,,,,,,,,,
,,614775c6f329a9e5ab190e04,2024-02-19_02h16.25.824,kallum_motion_pilot,2023.2.2,Win32,144.9275362,614775c6f329a9e5ab190e04,65d2b6c8f2eece985d8e374c,65d2b9eb4c64ef8f4bd15960,0.0425,0.0425,0,100,100,13,1,threefour,,,,,,,,,,,,,,,,,,,,,,,,,,,,,,,,,,,,,,,,,,,,,,,,,,,,,,,,,,,,,,,,,,,,,,,,,,,,,,,,,,,,,,,,,,,,,,,,,,,,,,,,,,,,,,,,,,,,,,,,,,,,,,,,,,,,,,,,,
,,614775c6f329a9e5ab190e04,2024-02-19_02h16.25.824,kallum_motion_pilot,2023.2.2,Win32,144.9275362,614775c6f329a9e5ab190e04,65d2b6c8f2eece985d8e374c,65d2b9eb4c64ef8f4bd15960,0.0425,0.0426,0,101,101,58,1,twoone,,,,,,,,,,,,,,,,,,,,,,,,,,,,,,,,,,,,,,,,,,,,,,,,,,,,,,,,,,,,,,,,,,,,,,,,,,,,,,,,,,,,,,,,,,,,,,,,,,,,,,,,,,,,,,,,,,,,,,,,,,,,,,,,,,,,,,,,,
,,614775c6f329a9e5ab190e04,2024-02-19_02h16.25.824,kallum_motion_pilot,2023.2.2,Win32,144.9275362,614775c6f329a9e5ab190e04,65d2b6c8f2eece985d8e374c,65d2b9eb4c64ef8f4bd15960,0.0427,0.0427,0,102,102,90,1,sixfive,,,,,,,,,,,,,,,,,,,,,,,,,,,,,,,,,,,,,,,,,,,,,,,,,,,,,,,,,,,,,,,,,,,,,,,,,,,,,,,,,,,,,,,,,,,,,,,,,,,,,,,,,,,,,,,,,,,,,,,,,,,,,,,,,,,,,,,,,
,,614775c6f329a9e5ab190e04,2024-02-19_02h16.25.824,kallum_motion_pilot,2023.2.2,Win32,144.9275362,614775c6f329a9e5ab190e04,65d2b6c8f2eece985d8e374c,65d2b9eb4c64ef8f4bd15960,0.0428,0.0428,0,103,103,119,1,eightseven,,,,,,,,,,,,,,,,,,,,,,,,,,,,,,,,,,,,,,,,,,,,,,,,,,,,,,,,,,,,,,,,,,,,,,,,,,,,,,,,,,,,,,,,,,,,,,,,,,,,,,,,,,,,,,,,,,,,,,,,,,,,,,,,,,,,,,,,,
,,614775c6f329a9e5ab190e04,2024-02-19_02h16.25.824,kallum_motion_pilot,2023.2.2,Win32,144.9275362,614775c6f329a9e5ab190e04,65d2b6c8f2eece985d8e374c,65d2b9eb4c64ef8f4bd15960,0.0429,0.0429,0,104,104,28,1,threeone,,,,,,,,,,,,,,,,,,,,,,,,,,,,,,,,,,,,,,,,,,,,,,,,,,,,,,,,,,,,,,,,,,,,,,,,,,,,,,,,,,,,,,,,,,,,,,,,,,,,,,,,,,,,,,,,,,,,,,,,,,,,,,,,,,,,,,,,,
,,614775c6f329a9e5ab190e04,2024-02-19_02h16.25.824,kallum_motion_pilot,2023.2.2,Win32,144.9275362,614775c6f329a9e5ab190e04,65d2b6c8f2eece985d8e374c,65d2b9eb4c64ef8f4bd15960,0.0431,0.0431,0,105,105,101,1,seveneight,,,,,,,,,,,,,,,,,,,,,,,,,,,,,,,,,,,,,,,,,,,,,,,,,,,,,,,,,,,,,,,,,,,,,,,,,,,,,,,,,,,,,,,,,,,,,,,,,,,,,,,,,,,,,,,,,,,,,,,,,,,,,,,,,,,,,,,,,
,,614775c6f329a9e5ab190e04,2024-02-19_02h16.25.824,kallum_motion_pilot,2023.2.2,Win32,144.9275362,614775c6f329a9e5ab190e04,65d2b6c8f2eece985d8e374c,65d2b9eb4c64ef8f4bd15960,0.0432,0.0432,0,106,106,30,1,fourtwo,,,,,,,,,,,,,,,,,,,,,,,,,,,,,,,,,,,,,,,,,,,,,,,,,,,,,,,,,,,,,,,,,,,,,,,,,,,,,,,,,,,,,,,,,,,,,,,,,,,,,,,,,,,,,,,,,,,,,,,,,,,,,,,,,,,,,,,,,
,,614775c6f329a9e5ab190e04,2024-02-19_02h16.25.824,kallum_motion_pilot,2023.2.2,Win32,144.9275362,614775c6f329a9e5ab190e04,65d2b6c8f2eece985d8e374c,65d2b9eb4c64ef8f4bd15960,0.0433,0.0434,0,107,107,135,1,eightseven,,,,,,,,,,,,,,,,,,,,,,,,,,,,,,,,,,,,,,,,,,,,,,,,,,,,,,,,,,,,,,,,,,,,,,,,,,,,,,,,,,,,,,,,,,,,,,,,,,,,,,,,,,,,,,,,,,,,,,,,,,,,,,,,,,,,,,,,,
,,614775c6f329a9e5ab190e04,2024-02-19_02h16.25.824,kallum_motion_pilot,2023.2.2,Win32,144.9275362,614775c6f329a9e5ab190e04,65d2b6c8f2eece985d8e374c,65d2b9eb4c64ef8f4bd15960,0.0435,0.0435,0,108,108,69,1,threefour,,,,,,,,,,,,,,,,,,,,,,,,,,,,,,,,,,,,,,,,,,,,,,,,,,,,,,,,,,,,,,,,,,,,,,,,,,,,,,,,,,,,,,,,,,,,,,,,,,,,,,,,,,,,,,,,,,,,,,,,,,,,,,,,,,,,,,,,,
,,614775c6f329a9e5ab190e04,2024-02-19_02h16.25.824,kallum_motion_pilot,2023.2.2,Win32,144.9275362,614775c6f329a9e5ab190e04,65d2b6c8f2eece985d8e374c,65d2b9eb4c64ef8f4bd15960,0.0436,0.0436,0,109,109,67,1,twofour,,,,,,,,,,,,,,,,,,,,,,,,,,,,,,,,,,,,,,,,,,,,,,,,,,,,,,,,,,,,,,,,,,,,,,,,,,,,,,,,,,,,,,,,,,,,,,,,,,,,,,,,,,,,,,,,,,,,,,,,,,,,,,,,,,,,,,,,,
,,614775c6f329a9e5ab190e04,2024-02-19_02h16.25.824,kallum_motion_pilot,2023.2.2,Win32,144.9275362,614775c6f329a9e5ab190e04,65d2b6c8f2eece985d8e374c,65d2b9eb4c64ef8f4bd15960,0.0436,0.0438,0,110,110,140,1,sevenfive,,,,,,,,,,,,,,,,,,,,,,,,,,,,,,,,,,,,,,,,,,,,,,,,,,,,,,,,,,,,,,,,,,,,,,,,,,,,,,,,,,,,,,,,,,,,,,,,,,,,,,,,,,,,,,,,,,,,,,,,,,,,,,,,,,,,,,,,,
,,614775c6f329a9e5ab190e04,2024-02-19_02h16.25.824,kallum_motion_pilot,2023.2.2,Win32,144.9275362,614775c6f329a9e5ab190e04,65d2b6c8f2eece985d8e374c,65d2b9eb4c64ef8f4bd15960,0.0438,0.0438,0,111,111,110,1,eightsix,,,,,,,,,,,,,,,,,,,,,,,,,,,,,,,,,,,,,,,,,,,,,,,,,,,,,,,,,,,,,,,,,,,,,,,,,,,,,,,,,,,,,,,,,,,,,,,,,,,,,,,,,,,,,,,,,,,,,,,,,,,,,,,,,,,,,,,,,
,,614775c6f329a9e5ab190e04,2024-02-19_02h16.25.824,kallum_motion_pilot,2023.2.2,Win32,144.9275362,614775c6f329a9e5ab190e04,65d2b6c8f2eece985d8e374c,65d2b9eb4c64ef8f4bd15960,0.0439,0.044,0,112,112,75,1,twofour,,,,,,,,,,,,,,,,,,,,,,,,,,,,,,,,,,,,,,,,,,,,,,,,,,,,,,,,,,,,,,,,,,,,,,,,,,,,,,,,,,,,,,,,,,,,,,,,,,,,,,,,,,,,,,,,,,,,,,,,,,,,,,,,,,,,,,,,,
,,614775c6f329a9e5ab190e04,2024-02-19_02h16.25.824,kallum_motion_pilot,2023.2.2,Win32,144.9275362,614775c6f329a9e5ab190e04,65d2b6c8f2eece985d8e374c,65d2b9eb4c64ef8f4bd15960,0.044,0.044,0,113,113,42,1,twoone,,,,,,,,,,,,,,,,,,,,,,,,,,,,,,,,,,,,,,,,,,,,,,,,,,,,,,,,,,,,,,,,,,,,,,,,,,,,,,,,,,,,,,,,,,,,,,,,,,,,,,,,,,,,,,,,,,,,,,,,,,,,,,,,,,,,,,,,,
,,614775c6f329a9e5ab190e04,2024-02-19_02h16.25.824,kallum_motion_pilot,2023.2.2,Win32,144.9275362,614775c6f329a9e5ab190e04,65d2b6c8f2eece985d8e374c,65d2b9eb4c64ef8f4bd15960,0.0441,0.0441,0,114,114,103,1,eightseven,,,,,,,,,,,,,,,,,,,,,,,,,,,,,,,,,,,,,,,,,,,,,,,,,,,,,,,,,,,,,,,,,,,,,,,,,,,,,,,,,,,,,,,,,,,,,,,,,,,,,,,,,,,,,,,,,,,,,,,,,,,,,,,,,,,,,,,,,
,,614775c6f329a9e5ab190e04,2024-02-19_02h16.25.824,kallum_motion_pilot,2023.2.2,Win32,144.9275362,614775c6f329a9e5ab190e04,65d2b6c8f2eece985d8e374c,65d2b9eb4c64ef8f4bd15960,0.0443,0.0443,0,115,115,40,1,onetwo,,,,,,,,,,,,,,,,,,,,,,,,,,,,,,,,,,,,,,,,,,,,,,,,,,,,,,,,,,,,,,,,,,,,,,,,,,,,,,,,,,,,,,,,,,,,,,,,,,,,,,,,,,,,,,,,,,,,,,,,,,,,,,,,,,,,,,,,,
,,614775c6f329a9e5ab190e04,2024-02-19_02h16.25.824,kallum_motion_pilot,2023.2.2,Win32,144.9275362,614775c6f329a9e5ab190e04,65d2b6c8f2eece985d8e374c,65d2b9eb4c64ef8f4bd15960,0.0443,0.0444,0,116,116,1,1,onethree,,,,,,,,,,,,,,,,,,,,,,,,,,,,,,,,,,,,,,,,,,,,,,,,,,,,,,,,,,,,,,,,,,,,,,,,,,,,,,,,,,,,,,,,,,,,,,,,,,,,,,,,,,,,,,,,,,,,,,,,,,,,,,,,,,,,,,,,,
,,614775c6f329a9e5ab190e04,2024-02-19_02h16.25.824,kallum_motion_pilot,2023.2.2,Win32,144.9275362,614775c6f329a9e5ab190e04,65d2b6c8f2eece985d8e374c,65d2b9eb4c64ef8f4bd15960,0.0445,0.0445,0,117,117,29,1,threefour,,,,,,,,,,,,,,,,,,,,,,,,,,,,,,,,,,,,,,,,,,,,,,,,,,,,,,,,,,,,,,,,,,,,,,,,,,,,,,,,,,,,,,,,,,,,,,,,,,,,,,,,,,,,,,,,,,,,,,,,,,,,,,,,,,,,,,,,,
,,614775c6f329a9e5ab190e04,2024-02-19_02h16.25.824,kallum_motion_pilot,2023.2.2,Win32,144.9275362,614775c6f329a9e5ab190e04,65d2b6c8f2eece985d8e374c,65d2b9eb4c64ef8f4bd15960,0.0446,0.0446,0,118,118,158,1,eightsix,,,,,,,,,,,,,,,,,,,,,,,,,,,,,,,,,,,,,,,,,,,,,,,,,,,,,,,,,,,,,,,,,,,,,,,,,,,,,,,,,,,,,,,,,,,,,,,,,,,,,,,,,,,,,,,,,,,,,,,,,,,,,,,,,,,,,,,,,
,,614775c6f329a9e5ab190e04,2024-02-19_02h16.25.824,kallum_motion_pilot,2023.2.2,Win32,144.9275362,614775c6f329a9e5ab190e04,65d2b6c8f2eece985d8e374c,65d2b9eb4c64ef8f4bd15960,0.0447,0.0447,0,119,119,149,1,seveneight,,,,,,,,,,,,,,,,,,,,,,,,,,,,,,,,,,,,,,,,,,,,,,,,,,,,,,,,,,,,,,,,,,,,,,,,,,,,,,,,,,,,,,,,,,,,,,,,,,,,,,,,,,,,,,,,,,,,,,,,,,,,,,,,,,,,,,,,,
,,614775c6f329a9e5ab190e04,2024-02-19_02h16.25.824,kallum_motion_pilot,2023.2.2,Win32,144.9275362,614775c6f329a9e5ab190e04,65d2b6c8f2eece985d8e374c,65d2b9eb4c64ef8f4bd15960,0.0449,0.0449,0,120,120,12,1,threeone,,,,,,,,,,,,,,,,,,,,,,,,,,,,,,,,,,,,,,,,,,,,,,,,,,,,,,,,,,,,,,,,,,,,,,,,,,,,,,,,,,,,,,,,,,,,,,,,,,,,,,,,,,,,,,,,,,,,,,,,,,,,,,,,,,,,,,,,,
,,614775c6f329a9e5ab190e04,2024-02-19_02h16.25.824,kallum_motion_pilot,2023.2.2,Win32,144.9275362,614775c6f329a9e5ab190e04,65d2b6c8f2eece985d8e374c,65d2b9eb4c64ef8f4bd15960,0.0449,0.045,0,121,121,54,1,fourtwo,,,,,,,,,,,,,,,,,,,,,,,,,,,,,,,,,,,,,,,,,,,,,,,,,,,,,,,,,,,,,,,,,,,,,,,,,,,,,,,,,,,,,,,,,,,,,,,,,,,,,,,,,,,,,,,,,,,,,,,,,,,,,,,,,,,,,,,,,
,,614775c6f329a9e5ab190e04,2024-02-19_02h16.25.824,kallum_motion_pilot,2023.2.2,Win32,144.9275362,614775c6f329a9e5ab190e04,65d2b6c8f2eece985d8e374c,65d2b9eb4c64ef8f4bd15960,0.045,0.0451,0,122,122,8,1,onetwo,,,,,,,,,,,,,,,,,,,,,,,,,,,,,,,,,,,,,,,,,,,,,,,,,,,,,,,,,,,,,,,,,,,,,,,,,,,,,,,,,,,,,,,,,,,,,,,,,,,,,,,,,,,,,,,,,,,,,,,,,,,,,,,,,,,,,,,,,
,,614775c6f329a9e5ab190e04,2024-02-19_02h16.25.824,kallum_motion_pilot,2023.2.2,Win32,144.9275362,614775c6f329a9e5ab190e04,65d2b6c8f2eece985d8e374c,65d2b9eb4c64ef8f4bd15960,0.0451,0.0452,0,123,123,60,1,threeone,,,,,,,,,,,,,,,,,,,,,,,,,,,,,,,,,,,,,,,,,,,,,,,,,,,,,,,,,,,,,,,,,,,,,,,,,,,,,,,,,,,,,,,,,,,,,,,,,,,,,,,,,,,,,,,,,,,,,,,,,,,,,,,,,,,,,,,,,
,,614775c6f329a9e5ab190e04,2024-02-19_02h16.25.824,kallum_motion_pilot,2023.2.2,Win32,144.9275362,614775c6f329a9e5ab190e04,65d2b6c8f2eece985d8e374c,65d2b9eb4c64ef8f4bd15960,0.0453,0.0453,0,124,124,100,1,sevenfive,,,,,,,,,,,,,,,,,,,,,,,,,,,,,,,,,,,,,,,,,,,,,,,,,,,,,,,,,,,,,,,,,,,,,,,,,,,,,,,,,,,,,,,,,,,,,,,,,,,,,,,,,,,,,,,,,,,,,,,,,,,,,,,,,,,,,,,,,
,,614775c6f329a9e5ab190e04,2024-02-19_02h16.25.824,kallum_motion_pilot,2023.2.2,Win32,144.9275362,614775c6f329a9e5ab190e04,65d2b6c8f2eece985d8e374c,65d2b9eb4c64ef8f4bd15960,0.0454,0.0455,0,125,125,148,1,sevenfive,,,,,,,,,,,,,,,,,,,,,,,,,,,,,,,,,,,,,,,,,,,,,,,,,,,,,,,,,,,,,,,,,,,,,,,,,,,,,,,,,,,,,,,,,,,,,,,,,,,,,,,,,,,,,,,,,,,,,,,,,,,,,,,,,,,,,,,,,
,,614775c6f329a9e5ab190e04,2024-02-19_02h16.25.824,kallum_motion_pilot,2023.2.2,Win32,144.9275362,614775c6f329a9e5ab190e04,65d2b6c8f2eece985d8e374c,65d2b9eb4c64ef8f4bd15960,0.0455,0.0456,0,126,126,49,1,onethree,,,,,,,,,,,,,,,,,,,,,,,,,,,,,,,,,,,,,,,,,,,,,,,,,,,,,,,,,,,,,,,,,,,,,,,,,,,,,,,,,,,,,,,,,,,,,,,,,,,,,,,,,,,,,,,,,,,,,,,,,,,,,,,,,,,,,,,,,
,,614775c6f329a9e5ab190e04,2024-02-19_02h16.25.824,kallum_motion_pilot,2023.2.2,Win32,144.9275362,614775c6f329a9e5ab190e04,65d2b6c8f2eece985d8e374c,65d2b9eb4c64ef8f4bd15960,0.0457,0.0457,0,127,127,99,1,sixeight,,,,,,,,,,,,,,,,,,,,,,,,,,,,,,,,,,,,,,,,,,,,,,,,,,,,,,,,,,,,,,,,,,,,,,,,,,,,,,,,,,,,,,,,,,,,,,,,,,,,,,,,,,,,,,,,,,,,,,,,,,,,,,,,,,,,,,,,,
,,614775c6f329a9e5ab190e04,2024-02-19_02h16.25.824,kallum_motion_pilot,2023.2.2,Win32,144.9275362,614775c6f329a9e5ab190e04,65d2b6c8f2eece985d8e374c,65d2b9eb4c64ef8f4bd15960,0.0459,0.0459,0,128,128,65,1,onethree,,,,,,,,,,,,,,,,,,,,,,,,,,,,,,,,,,,,,,,,,,,,,,,,,,,,,,,,,,,,,,,,,,,,,,,,,,,,,,,,,,,,,,,,,,,,,,,,,,,,,,,,,,,,,,,,,,,,,,,,,,,,,,,,,,,,,,,,,
,,614775c6f329a9e5ab190e04,2024-02-19_02h16.25.824,kallum_motion_pilot,2023.2.2,Win32,144.9275362,614775c6f329a9e5ab190e04,65d2b6c8f2eece985d8e374c,65d2b9eb4c64ef8f4bd15960,0.0459,0.046,0,129,129,72,1,onetwo,,,,,,,,,,,,,,,,,,,,,,,,,,,,,,,,,,,,,,,,,,,,,,,,,,,,,,,,,,,,,,,,,,,,,,,,,,,,,,,,,,,,,,,,,,,,,,,,,,,,,,,,,,,,,,,,,,,,,,,,,,,,,,,,,,,,,,,,,
,,614775c6f329a9e5ab190e04,2024-02-19_02h16.25.824,kallum_motion_pilot,2023.2.2,Win32,144.9275362,614775c6f329a9e5ab190e04,65d2b6c8f2eece985d8e374c,65d2b9eb4c64ef8f4bd15960,0.046,0.0461,0,130,130,64,1,onetwo,,,,,,,,,,,,,,,,,,,,,,,,,,,,,,,,,,,,,,,,,,,,,,,,,,,,,,,,,,,,,,,,,,,,,,,,,,,,,,,,,,,,,,,,,,,,,,,,,,,,,,,,,,,,,,,,,,,,,,,,,,,,,,,,,,,,,,,,,
,,614775c6f329a9e5ab190e04,2024-02-19_02h16.25.824,kallum_motion_pilot,2023.2.2,Win32,144.9275362,614775c6f329a9e5ab190e04,65d2b6c8f2eece985d8e374c,65d2b9eb4c64ef8f4bd15960,0.0462,0.0462,0,131,131,138,1,sixfive,,,,,,,,,,,,,,,,,,,,,,,,,,,,,,,,,,,,,,,,,,,,,,,,,,,,,,,,,,,,,,,,,,,,,,,,,,,,,,,,,,,,,,,,,,,,,,,,,,,,,,,,,,,,,,,,,,,,,,,,,,,,,,,,,,,,,,,,,
,,614775c6f329a9e5ab190e04,2024-02-19_02h16.25.824,kallum_motion_pilot,2023.2.2,Win32,144.9275362,614775c6f329a9e5ab190e04,65d2b6c8f2eece985d8e374c,65d2b9eb4c64ef8f4bd15960,0.0463,0.0463,0,132,132,55,1,fourthree,,,,,,,,,,,,,,,,,,,,,,,,,,,,,,,,,,,,,,,,,,,,,,,,,,,,,,,,,,,,,,,,,,,,,,,,,,,,,,,,,,,,,,,,,,,,,,,,,,,,,,,,,,,,,,,,,,,,,,,,,,,,,,,,,,,,,,,,,
,,614775c6f329a9e5ab190e04,2024-02-19_02h16.25.824,kallum_motion_pilot,2023.2.2,Win32,144.9275362,614775c6f329a9e5ab190e04,65d2b6c8f2eece985d8e374c,65d2b9eb4c64ef8f4bd15960,0.0464,0.0465,0,133,133,160,1,fivesix,,,,,,,,,,,,,,,,,,,,,,,,,,,,,,,,,,,,,,,,,,,,,,,,,,,,,,,,,,,,,,,,,,,,,,,,,,,,,,,,,,,,,,,,,,,,,,,,,,,,,,,,,,,,,,,,,,,,,,,,,,,,,,,,,,,,,,,,,
,,614775c6f329a9e5ab190e04,2024-02-19_02h16.25.824,kallum_motion_pilot,2023.2.2,Win32,144.9275362,614775c6f329a9e5ab190e04,65d2b6c8f2eece985d8e374c,65d2b9eb4c64ef8f4bd15960,0.0466,0.0466,0,134,134,84,1,sevenfive,,,,,,,,,,,,,,,,,,,,,,,,,,,,,,,,,,,,,,,,,,,,,,,,,,,,,,,,,,,,,,,,,,,,,,,,,,,,,,,,,,,,,,,,,,,,,,,,,,,,,,,,,,,,,,,,,,,,,,,,,,,,,,,,,,,,,,,,,
,,614775c6f329a9e5ab190e04,2024-02-19_02h16.25.824,kallum_motion_pilot,2023.2.2,Win32,144.9275362,614775c6f329a9e5ab190e04,65d2b6c8f2eece985d8e374c,65d2b9eb4c64ef8f4bd15960,0.0466,0.0467,0,135,135,105,1,fiveseven,,,,,,,,,,,,,,,,,,,,,,,,,,,,,,,,,,,,,,,,,,,,,,,,,,,,,,,,,,,,,,,,,,,,,,,,,,,,,,,,,,,,,,,,,,,,,,,,,,,,,,,,,,,,,,,,,,,,,,,,,,,,,,,,,,,,,,,,,
,,614775c6f329a9e5ab190e04,2024-02-19_02h16.25.824,kallum_motion_pilot,2023.2.2,Win32,144.9275362,614775c6f329a9e5ab190e04,65d2b6c8f2eece985d8e374c,65d2b9eb4c64ef8f4bd15960,0.0468,0.0469,0,136,136,44,1,threeone,,,,,,,,,,,,,,,,,,,,,,,,,,,,,,,,,,,,,,,,,,,,,,,,,,,,,,,,,,,,,,,,,,,,,,,,,,,,,,,,,,,,,,,,,,,,,,,,,,,,,,,,,,,,,,,,,,,,,,,,,,,,,,,,,,,,,,,,,
,,614775c6f329a9e5ab190e04,2024-02-19_02h16.25.824,kallum_motion_pilot,2023.2.2,Win32,144.9275362,614775c6f329a9e5ab190e04,65d2b6c8f2eece985d8e374c,65d2b9eb4c64ef8f4bd15960,0.0469,0.047,0,137,137,128,1,fivesix,,,,,,,,,,,,,,,,,,,,,,,,,,,,,,,,,,,,,,,,,,,,,,,,,,,,,,,,,,,,,,,,,,,,,,,,,,,,,,,,,,,,,,,,,,,,,,,,,,,,,,,,,,,,,,,,,,,,,,,,,,,,,,,,,,,,,,,,,
,,614775c6f329a9e5ab190e04,2024-02-19_02h16.25.824,kallum_motion_pilot,2023.2.2,Win32,144.9275362,614775c6f329a9e5ab190e04,65d2b6c8f2eece985d8e374c,65d2b9eb4c64ef8f4bd15960,0.0471,0.0471,0,138,138,111,1,eightseven,,,,,,,,,,,,,,,,,,,,,,,,,,,,,,,,,,,,,,,,,,,,,,,,,,,,,,,,,,,,,,,,,,,,,,,,,,,,,,,,,,,,,,,,,,,,,,,,,,,,,,,,,,,,,,,,,,,,,,,,,,,,,,,,,,,,,,,,,
,,614775c6f329a9e5ab190e04,2024-02-19_02h16.25.824,kallum_motion_pilot,2023.2.2,Win32,144.9275362,614775c6f329a9e5ab190e04,65d2b6c8f2eece985d8e374c,65d2b9eb4c64ef8f4bd15960,0.0471,0.0472,0,139,139,120,1,fivesix,,,,,,,,,,,,,,,,,,,,,,,,,,,,,,,,,,,,,,,,,,,,,,,,,,,,,,,,,,,,,,,,,,,,,,,,,,,,,,,,,,,,,,,,,,,,,,,,,,,,,,,,,,,,,,,,,,,,,,,,,,,,,,,,,,,,,,,,,
,,614775c6f329a9e5ab190e04,2024-02-19_02h16.25.824,kallum_motion_pilot,2023.2.2,Win32,144.9275362,614775c6f329a9e5ab190e04,65d2b6c8f2eece985d8e374c,65d2b9eb4c64ef8f4bd15960,0.0473,0.0473,0,140,140,144,1,fivesix,,,,,,,,,,,,,,,,,,,,,,,,,,,,,,,,,,,,,,,,,,,,,,,,,,,,,,,,,,,,,,,,,,,,,,,,,,,,,,,,,,,,,,,,,,,,,,,,,,,,,,,,,,,,,,,,,,,,,,,,,,,,,,,,,,,,,,,,,
,,614775c6f329a9e5ab190e04,2024-02-19_02h16.25.824,kallum_motion_pilot,2023.2.2,Win32,144.9275362,614775c6f329a9e5ab190e04,65d2b6c8f2eece985d8e374c,65d2b9eb4c64ef8f4bd15960,0.0473,0.0474,0,141,141,102,1,eightsix,,,,,,,,,,,,,,,,,,,,,,,,,,,,,,,,,,,,,,,,,,,,,,,,,,,,,,,,,,,,,,,,,,,,,,,,,,,,,,,,,,,,,,,,,,,,,,,,,,,,,,,,,,,,,,,,,,,,,,,,,,,,,,,,,,,,,,,,,
,,614775c6f329a9e5ab190e04,2024-02-19_02h16.25.824,kallum_motion_pilot,2023.2.2,Win32,144.9275362,614775c6f329a9e5ab190e04,65d2b6c8f2eece985d8e374c,65d2b9eb4c64ef8f4bd15960,0.0475,0.0476,0,142,142,48,1,onetwo,,,,,,,,,,,,,,,,,,,,,,,,,,,,,,,,,,,,,,,,,,,,,,,,,,,,,,,,,,,,,,,,,,,,,,,,,,,,,,,,,,,,,,,,,,,,,,,,,,,,,,,,,,,,,,,,,,,,,,,,,,,,,,,,,,,,,,,,,
,,614775c6f329a9e5ab190e04,2024-02-19_02h16.25.824,kallum_motion_pilot,2023.2.2,Win32,144.9275362,614775c6f329a9e5ab190e04,65d2b6c8f2eece985d8e374c,65d2b9eb4c64ef8f4bd15960,0.0476,0.0476,0,143,143,142,1,eightsix,,,,,,,,,,,,,,,,,,,,,,,,,,,,,,,,,,,,,,,,,,,,,,,,,,,,,,,,,,,,,,,,,,,,,,,,,,,,,,,,,,,,,,,,,,,,,,,,,,,,,,,,,,,,,,,,,,,,,,,,,,,,,,,,,,,,,,,,,
,,614775c6f329a9e5ab190e04,2024-02-19_02h16.25.824,kallum_motion_pilot,2023.2.2,Win32,144.9275362,614775c6f329a9e5ab190e04,65d2b6c8f2eece985d8e374c,65d2b9eb4c64ef8f4bd15960,0.0477,0.0478,0,144,144,145,1,fiveseven,,,,,,,,,,,,,,,,,,,,,,,,,,,,,,,,,,,,,,,,,,,,,,,,,,,,,,,,,,,,,,,,,,,,,,,,,,,,,,,,,,,,,,,,,,,,,,,,,,,,,,,,,,,,,,,,,,,,,,,,,,,,,,,,,,,,,,,,,
,,614775c6f329a9e5ab190e04,2024-02-19_02h16.25.824,kallum_motion_pilot,2023.2.2,Win32,144.9275362,614775c6f329a9e5ab190e04,65d2b6c8f2eece985d8e374c,65d2b9eb4c64ef8f4bd15960,0.0478,0.0479,0,145,145,32,1,onetwo,,,,,,,,,,,,,,,,,,,,,,,,,,,,,,,,,,,,,,,,,,,,,,,,,,,,,,,,,,,,,,,,,,,,,,,,,,,,,,,,,,,,,,,,,,,,,,,,,,,,,,,,,,,,,,,,,,,,,,,,,,,,,,,,,,,,,,,,,
,,614775c6f329a9e5ab190e04,2024-02-19_02h16.25.824,kallum_motion_pilot,2023.2.2,Win32,144.9275362,614775c6f329a9e5ab190e04,65d2b6c8f2eece985d8e374c,65d2b9eb4c64ef8f4bd15960,0.0479,0.048,0,146,146,157,1,seveneight,,,,,,,,,,,,,,,,,,,,,,,,,,,,,,,,,,,,,,,,,,,,,,,,,,,,,,,,,,,,,,,,,,,,,,,,,,,,,,,,,,,,,,,,,,,,,,,,,,,,,,,,,,,,,,,,,,,,,,,,,,,,,,,,,,,,,,,,,
,,614775c6f329a9e5ab190e04,2024-02-19_02h16.25.824,kallum_motion_pilot,2023.2.2,Win32,144.9275362,614775c6f329a9e5ab190e04,65d2b6c8f2eece985d8e374c,65d2b9eb4c64ef8f4bd15960,0.0481,0.0481,0,147,147,78,1,fourtwo,,,,,,,,,,,,,,,,,,,,,,,,,,,,,,,,,,,,,,,,,,,,,,,,,,,,,,,,,,,,,,,,,,,,,,,,,,,,,,,,,,,,,,,,,,,,,,,,,,,,,,,,,,,,,,,,,,,,,,,,,,,,,,,,,,,,,,,,,
,,614775c6f329a9e5ab190e04,2024-02-19_02h16.25.824,kallum_motion_pilot,2023.2.2,Win32,144.9275362,614775c6f329a9e5ab190e04,65d2b6c8f2eece985d8e374c,65d2b9eb4c64ef8f4bd15960,0.0482,0.0482,0,148,148,56,1,onetwo,,,,,,,,,,,,,,,,,,,,,,,,,,,,,,,,,,,,,,,,,,,,,,,,,,,,,,,,,,,,,,,,,,,,,,,,,,,,,,,,,,,,,,,,,,,,,,,,,,,,,,,,,,,,,,,,,,,,,,,,,,,,,,,,,,,,,,,,,
,,614775c6f329a9e5ab190e04,2024-02-19_02h16.25.824,kallum_motion_pilot,2023.2.2,Win32,144.9275362,614775c6f329a9e5ab190e04,65d2b6c8f2eece985d8e374c,65d2b9eb4c64ef8f4bd15960,0.0483,0.0483,0,149,149,57,1,onethree,,,,,,,,,,,,,,,,,,,,,,,,,,,,,,,,,,,,,,,,,,,,,,,,,,,,,,,,,,,,,,,,,,,,,,,,,,,,,,,,,,,,,,,,,,,,,,,,,,,,,,,,,,,,,,,,,,,,,,,,,,,,,,,,,,,,,,,,,
,,614775c6f329a9e5ab190e04,2024-02-19_02h16.25.824,kallum_motion_pilot,2023.2.2,Win32,144.9275362,614775c6f329a9e5ab190e04,65d2b6c8f2eece985d8e374c,65d2b9eb4c64ef8f4bd15960,0.0484,0.0485,0,150,150,14,1,fourtwo,,,,,,,,,,,,,,,,,,,,,,,,,,,,,,,,,,,,,,,,,,,,,,,,,,,,,,,,,,,,,,,,,,,,,,,,,,,,,,,,,,,,,,,,,,,,,,,,,,,,,,,,,,,,,,,,,,,,,,,,,,,,,,,,,,,,,,,,,
,,614775c6f329a9e5ab190e04,2024-02-19_02h16.25.824,kallum_motion_pilot,2023.2.2,Win32,144.9275362,614775c6f329a9e5ab190e04,65d2b6c8f2eece985d8e374c,65d2b9eb4c64ef8f4bd15960,0.0485,0.0486,0,151,151,130,1,sixfive,,,,,,,,,,,,,,,,,,,,,,,,,,,,,,,,,,,,,,,,,,,,,,,,,,,,,,,,,,,,,,,,,,,,,,,,,,,,,,,,,,,,,,,,,,,,,,,,,,,,,,,,,,,,,,,,,,,,,,,,,,,,,,,,,,,,,,,,,
,,614775c6f329a9e5ab190e04,2024-02-19_02h16.25.824,kallum_motion_pilot,2023.2.2,Win32,144.9275362,614775c6f329a9e5ab190e04,65d2b6c8f2eece985d8e374c,65d2b9eb4c64ef8f4bd15960,0.0486,0.0488,0,152,152,152,1,fivesix,,,,,,,,,,,,,,,,,,,,,,,,,,,,,,,,,,,,,,,,,,,,,,,,,,,,,,,,,,,,,,,,,,,,,,,,,,,,,,,,,,,,,,,,,,,,,,,,,,,,,,,,,,,,,,,,,,,,,,,,,,,,,,,,,,,,,,,,,
,,614775c6f329a9e5ab190e04,2024-02-19_02h16.25.824,kallum_motion_pilot,2023.2.2,Win32,144.9275362,614775c6f329a9e5ab190e04,65d2b6c8f2eece985d8e374c,65d2b9eb4c64ef8f4bd15960,0.0488,0.0489,0,153,153,22,1,fourtwo,,,,,,,,,,,,,,,,,,,,,,,,,,,,,,,,,,,,,,,,,,,,,,,,,,,,,,,,,,,,,,,,,,,,,,,,,,,,,,,,,,,,,,,,,,,,,,,,,,,,,,,,,,,,,,,,,,,,,,,,,,,,,,,,,,,,,,,,,
,,614775c6f329a9e5ab190e04,2024-02-19_02h16.25.824,kallum_motion_pilot,2023.2.2,Win32,144.9275362,614775c6f329a9e5ab190e04,65d2b6c8f2eece985d8e374c,65d2b9eb4c64ef8f4bd15960,0.0489,0.0489,0,154,154,153,1,fiveseven,,,,,,,,,,,,,,,,,,,,,,,,,,,,,,,,,,,,,,,,,,,,,,,,,,,,,,,,,,,,,,,,,,,,,,,,,,,,,,,,,,,,,,,,,,,,,,,,,,,,,,,,,,,,,,,,,,,,,,,,,,,,,,,,,,,,,,,,,
,,614775c6f329a9e5ab190e04,2024-02-19_02h16.25.824,kallum_motion_pilot,2023.2.2,Win32,144.9275362,614775c6f329a9e5ab190e04,65d2b6c8f2eece985d8e374c,65d2b9eb4c64ef8f4bd15960,0.049,0.0491,0,155,155,123,1,sixeight,,,,,,,,,,,,,,,,,,,,,,,,,,,,,,,,,,,,,,,,,,,,,,,,,,,,,,,,,,,,,,,,,,,,,,,,,,,,,,,,,,,,,,,,,,,,,,,,,,,,,,,,,,,,,,,,,,,,,,,,,,,,,,,,,,,,,,,,,
,,614775c6f329a9e5ab190e04,2024-02-19_02h16.25.824,kallum_motion_pilot,2023.2.2,Win32,144.9275362,614775c6f329a9e5ab190e04,65d2b6c8f2eece985d8e374c,65d2b9eb4c64ef8f4bd15960,0.0491,0.0493,0,156,156,41,1,onethree,,,,,,,,,,,,,,,,,,,,,,,,,,,,,,,,,,,,,,,,,,,,,,,,,,,,,,,,,,,,,,,,,,,,,,,,,,,,,,,,,,,,,,,,,,,,,,,,,,,,,,,,,,,,,,,,,,,,,,,,,,,,,,,,,,,,,,,,,
,,614775c6f329a9e5ab190e04,2024-02-19_02h16.25.824,kallum_motion_pilot,2023.2.2,Win32,144.9275362,614775c6f329a9e5ab190e04,65d2b6c8f2eece985d8e374c,65d2b9eb4c64ef8f4bd15960,0.0494,0.0494,0,157,157,97,1,fiveseven,,,,,,,,,,,,,,,,,,,,,,,,,,,,,,,,,,,,,,,,,,,,,,,,,,,,,,,,,,,,,,,,,,,,,,,,,,,,,,,,,,,,,,,,,,,,,,,,,,,,,,,,,,,,,,,,,,,,,,,,,,,,,,,,,,,,,,,,,
,,614775c6f329a9e5ab190e04,2024-02-19_02h16.25.824,kallum_motion_pilot,2023.2.2,Win32,144.9275362,614775c6f329a9e5ab190e04,65d2b6c8f2eece985d8e374c,65d2b9eb4c64ef8f4bd15960,0.0495,0.0495,0,158,158,63,1,fourthree,,,,,,,,,,,,,,,,,,,,,,,,,,,,,,,,,,,,,,,,,,,,,,,,,,,,,,,,,,,,,,,,,,,,,,,,,,,,,,,,,,,,,,,,,,,,,,,,,,,,,,,,,,,,,,,,,,,,,,,,,,,,,,,,,,,,,,,,,
,,614775c6f329a9e5ab190e04,2024-02-19_02h16.25.824,kallum_motion_pilot,2023.2.2,Win32,144.9275362,614775c6f329a9e5ab190e04,65d2b6c8f2eece985d8e374c,65d2b9eb4c64ef8f4bd15960,0.0496,0.0497,0,159,159,21,1,threefour,,,,,,,,,,,,,,,,,,,,,,,,,,,,,,,,,,,,,,,,,,,,,,,,,,,,,,,,,,,,,,,,,,,,,,,,,,,,,,,,,,,,,,,,,,,,,,,,,,,,,,,,,,,,,,,,,,,,,,,,,,,,,,,,,,,,,,,,,
,,614775c6f329a9e5ab190e04,2024-02-19_02h16.25.824,kallum_motion_pilot,2023.2.2,Win32,144.9275362,614775c6f329a9e5ab190e04,65d2b6c8f2eece985d8e374c,65d2b9eb4c64ef8f4bd15960,0.0497,0.0498,0,160,160,51,1,twofour,,,,,,,,,,,,,,,,,,,,,,,,,,,,,,,,,,,,,,,,,,,,,,,,,,,,,,,,,,,,,,,,,,,,,,,,,,,,,,,,,,,,,,,,,,,,,,,,,,,,,,,,,,,,,,,,,,,,,,,,,,,,,,,,,,,,,,,,,
,,614775c6f329a9e5ab190e04,2024-02-19_02h16.25.824,kallum_motion_pilot,2023.2.2,Win32,144.9275362,614775c6f329a9e5ab190e04,65d2b6c8f2eece985d8e374c,65d2b9eb4c64ef8f4bd15960,0.0498,0.0498,0,161,161,37,1,threefour,,,,,,,,,,,,,,,,,,,,,,,,,,,,,,,,,,,,,,,,,,,,,,,,,,,,,,,,,,,,,,,,,,,,,,,,,,,,,,,,,,,,,,,,,,,,,,,,,,,,,,,,,,,,,,,,,,,,,,,,,,,,,,,,,,,,,,,,,
,,614775c6f329a9e5ab190e04,2024-02-19_02h16.25.824,kallum_motion_pilot,2023.2.2,Win32,144.9275362,614775c6f329a9e5ab190e04,65d2b6c8f2eece985d8e374c,65d2b9eb4c64ef8f4bd15960,0.0499,0.0501,1,0,162,138,1,sixfive,,,,,,,,,,,,,,,,,,,,,,,,,,,,,,,,,,,,,,,,,,,,,,,,,,,,,,,,,,,,,,,,,,,,,,,,,,,,,,,,,,,,,,,,,,,,,,,,,,,,,,,,,,,,,,,,,,,,,,,,,,,,,,,,,,,,,,,,,
,,614775c6f329a9e5ab190e04,2024-02-19_02h16.25.824,kallum_motion_pilot,2023.2.2,Win32,144.9275362,614775c6f329a9e5ab190e04,65d2b6c8f2eece985d8e374c,65d2b9eb4c64ef8f4bd15960,0.0501,0.0501,1,1,163,160,1,fivesix,,,,,,,,,,,,,,,,,,,,,,,,,,,,,,,,,,,,,,,,,,,,,,,,,,,,,,,,,,,,,,,,,,,,,,,,,,,,,,,,,,,,,,,,,,,,,,,,,,,,,,,,,,,,,,,,,,,,,,,,,,,,,,,,,,,,,,,,,
,,614775c6f329a9e5ab190e04,2024-02-19_02h16.25.824,kallum_motion_pilot,2023.2.2,Win32,144.9275362,614775c6f329a9e5ab190e04,65d2b6c8f2eece985d8e374c,65d2b9eb4c64ef8f4bd15960,0.0502,0.0503,1,2,164,103,1,eightseven,,,,,,,,,,,,,,,,,,,,,,,,,,,,,,,,,,,,,,,,,,,,,,,,,,,,,,,,,,,,,,,,,,,,,,,,,,,,,,,,,,,,,,,,,,,,,,,,,,,,,,,,,,,,,,,,,,,,,,,,,,,,,,,,,,,,,,,,,
,,614775c6f329a9e5ab190e04,2024-02-19_02h16.25.824,kallum_motion_pilot,2023.2.2,Win32,144.9275362,614775c6f329a9e5ab190e04,65d2b6c8f2eece985d8e374c,65d2b9eb4c64ef8f4bd15960,0.0503,0.0504,1,3,165,48,1,onetwo,,,,,,,,,,,,,,,,,,,,,,,,,,,,,,,,,,,,,,,,,,,,,,,,,,,,,,,,,,,,,,,,,,,,,,,,,,,,,,,,,,,,,,,,,,,,,,,,,,,,,,,,,,,,,,,,,,,,,,,,,,,,,,,,,,,,,,,,,
,,614775c6f329a9e5ab190e04,2024-02-19_02h16.25.824,kallum_motion_pilot,2023.2.2,Win32,144.9275362,614775c6f329a9e5ab190e04,65d2b6c8f2eece985d8e374c,65d2b9eb4c64ef8f4bd15960,0.0505,0.0505,1,4,166,100,1,sevenfive,,,,,,,,,,,,,,,,,,,,,,,,,,,,,,,,,,,,,,,,,,,,,,,,,,,,,,,,,,,,,,,,,,,,,,,,,,,,,,,,,,,,,,,,,,,,,,,,,,,,,,,,,,,,,,,,,,,,,,,,,,,,,,,,,,,,,,,,,
,,614775c6f329a9e5ab190e04,2024-02-19_02h16.25.824,kallum_motion_pilot,2023.2.2,Win32,144.9275362,614775c6f329a9e5ab190e04,65d2b6c8f2eece985d8e374c,65d2b9eb4c64ef8f4bd15960,0.0506,0.0507,1,5,167,66,1,twoone,,,,,,,,,,,,,,,,,,,,,,,,,,,,,,,,,,,,,,,,,,,,,,,,,,,,,,,,,,,,,,,,,,,,,,,,,,,,,,,,,,,,,,,,,,,,,,,,,,,,,,,,,,,,,,,,,,,,,,,,,,,,,,,,,,,,,,,,,
,,614775c6f329a9e5ab190e04,2024-02-19_02h16.25.824,kallum_motion_pilot,2023.2.2,Win32,144.9275362,614775c6f329a9e5ab190e04,65d2b6c8f2eece985d8e374c,65d2b9eb4c64ef8f4bd15960,0.0508,0.0508,1,6,168,104,1,fivesix,,,,,,,,,,,,,,,,,,,,,,,,,,,,,,,,,,,,,,,,,,,,,,,,,,,,,,,,,,,,,,,,,,,,,,,,,,,,,,,,,,,,,,,,,,,,,,,,,,,,,,,,,,,,,,,,,,,,,,,,,,,,,,,,,,,,,,,,,
,,614775c6f329a9e5ab190e04,2024-02-19_02h16.25.824,kallum_motion_pilot,2023.2.2,Win32,144.9275362,614775c6f329a9e5ab190e04,65d2b6c8f2eece985d8e374c,65d2b9eb4c64ef8f4bd15960,0.0508,0.051,1,7,169,80,1,fivesix,,,,,,,,,,,,,,,,,,,,,,,,,,,,,,,,,,,,,,,,,,,,,,,,,,,,,,,,,,,,,,,,,,,,,,,,,,,,,,,,,,,,,,,,,,,,,,,,,,,,,,,,,,,,,,,,,,,,,,,,,,,,,,,,,,,,,,,,,
,,614775c6f329a9e5ab190e04,2024-02-19_02h16.25.824,kallum_motion_pilot,2023.2.2,Win32,144.9275362,614775c6f329a9e5ab190e04,65d2b6c8f2eece985d8e374c,65d2b9eb4c64ef8f4bd15960,0.051,0.0511,1,8,170,114,1,sixfive,,,,,,,,,,,,,,,,,,,,,,,,,,,,,,,,,,,,,,,,,,,,,,,,,,,,,,,,,,,,,,,,,,,,,,,,,,,,,,,,,,,,,,,,,,,,,,,,,,,,,,,,,,,,,,,,,,,,,,,,,,,,,,,,,,,,,,,,,
,,614775c6f329a9e5ab190e04,2024-02-19_02h16.25.824,kallum_motion_pilot,2023.2.2,Win32,144.9275362,614775c6f329a9e5ab190e04,65d2b6c8f2eece985d8e374c,65d2b9eb4c64ef8f4bd15960,0.0511,0.0512,1,9,171,126,1,eightsix,,,,,,,,,,,,,,,,,,,,,,,,,,,,,,,,,,,,,,,,,,,,,,,,,,,,,,,,,,,,,,,,,,,,,,,,,,,,,,,,,,,,,,,,,,,,,,,,,,,,,,,,,,,,,,,,,,,,,,,,,,,,,,,,,,,,,,,,,
,,614775c6f329a9e5ab190e04,2024-02-19_02h16.25.824,kallum_motion_pilot,2023.2.2,Win32,144.9275362,614775c6f329a9e5ab190e04,65d2b6c8f2eece985d8e374c,65d2b9eb4c64ef8f4bd15960,0.0513,0.0513,1,10,172,24,1,onetwo,,,,,,,,,,,,,,,,,,,,,,,,,,,,,,,,,,,,,,,,,,,,,,,,,,,,,,,,,,,,,,,,,,,,,,,,,,,,,,,,,,,,,,,,,,,,,,,,,,,,,,,,,,,,,,,,,,,,,,,,,,,,,,,,,,,,,,,,,
,,614775c6f329a9e5ab190e04,2024-02-19_02h16.25.824,kallum_motion_pilot,2023.2.2,Win32,144.9275362,614775c6f329a9e5ab190e04,65d2b6c8f2eece985d8e374c,65d2b9eb4c64ef8f4bd15960,0.0514,0.0515,1,11,173,57,1,onethree,,,,,,,,,,,,,,,,,,,,,,,,,,,,,,,,,,,,,,,,,,,,,,,,,,,,,,,,,,,,,,,,,,,,,,,,,,,,,,,,,,,,,,,,,,,,,,,,,,,,,,,,,,,,,,,,,,,,,,,,,,,,,,,,,,,,,,,,,
,,614775c6f329a9e5ab190e04,2024-02-19_02h16.25.824,kallum_motion_pilot,2023.2.2,Win32,144.9275362,614775c6f329a9e5ab190e04,65d2b6c8f2eece985d8e374c,65d2b9eb4c64ef8f4bd15960,0.0515,0.0516,1,12,174,28,1,threeone,,,,,,,,,,,,,,,,,,,,,,,,,,,,,,,,,,,,,,,,,,,,,,,,,,,,,,,,,,,,,,,,,,,,,,,,,,,,,,,,,,,,,,,,,,,,,,,,,,,,,,,,,,,,,,,,,,,,,,,,,,,,,,,,,,,,,,,,,
,,614775c6f329a9e5ab190e04,2024-02-19_02h16.25.824,kallum_motion_pilot,2023.2.2,Win32,144.9275362,614775c6f329a9e5ab190e04,65d2b6c8f2eece985d8e374c,65d2b9eb4c64ef8f4bd15960,0.0516,0.0517,1,13,175,3,1,twofour,,,,,,,,,,,,,,,,,,,,,,,,,,,,,,,,,,,,,,,,,,,,,,,,,,,,,,,,,,,,,,,,,,,,,,,,,,,,,,,,,,,,,,,,,,,,,,,,,,,,,,,,,,,,,,,,,,,,,,,,,,,,,,,,,,,,,,,,,
,,614775c6f329a9e5ab190e04,2024-02-19_02h16.25.824,kallum_motion_pilot,2023.2.2,Win32,144.9275362,614775c6f329a9e5ab190e04,65d2b6c8f2eece985d8e374c,65d2b9eb4c64ef8f4bd15960,0.0518,0.0518,1,14,176,127,1,eightseven,,,,,,,,,,,,,,,,,,,,,,,,,,,,,,,,,,,,,,,,,,,,,,,,,,,,,,,,,,,,,,,,,,,,,,,,,,,,,,,,,,,,,,,,,,,,,,,,,,,,,,,,,,,,,,,,,,,,,,,,,,,,,,,,,,,,,,,,,
,,614775c6f329a9e5ab190e04,2024-02-19_02h16.25.824,kallum_motion_pilot,2023.2.2,Win32,144.9275362,614775c6f329a9e5ab190e04,65d2b6c8f2eece985d8e374c,65d2b9eb4c64ef8f4bd15960,0.0519,0.0519,1,15,177,92,1,sevenfive,,,,,,,,,,,,,,,,,,,,,,,,,,,,,,,,,,,,,,,,,,,,,,,,,,,,,,,,,,,,,,,,,,,,,,,,,,,,,,,,,,,,,,,,,,,,,,,,,,,,,,,,,,,,,,,,,,,,,,,,,,,,,,,,,,,,,,,,,
,,614775c6f329a9e5ab190e04,2024-02-19_02h16.25.824,kallum_motion_pilot,2023.2.2,Win32,144.9275362,614775c6f329a9e5ab190e04,65d2b6c8f2eece985d8e374c,65d2b9eb4c64ef8f4bd15960,0.052,0.052,1,16,178,54,1,fourtwo,,,,,,,,,,,,,,,,,,,,,,,,,,,,,,,,,,,,,,,,,,,,,,,,,,,,,,,,,,,,,,,,,,,,,,,,,,,,,,,,,,,,,,,,,,,,,,,,,,,,,,,,,,,,,,,,,,,,,,,,,,,,,,,,,,,,,,,,,
,,614775c6f329a9e5ab190e04,2024-02-19_02h16.25.824,kallum_motion_pilot,2023.2.2,Win32,144.9275362,614775c6f329a9e5ab190e04,65d2b6c8f2eece985d8e374c,65d2b9eb4c64ef8f4bd15960,0.0522,0.0522,1,17,179,131,1,sixeight,,,,,,,,,,,,,,,,,,,,,,,,,,,,,,,,,,,,,,,,,,,,,,,,,,,,,,,,,,,,,,,,,,,,,,,,,,,,,,,,,,,,,,,,,,,,,,,,,,,,,,,,,,,,,,,,,,,,,,,,,,,,,,,,,,,,,,,,,
,,614775c6f329a9e5ab190e04,2024-02-19_02h16.25.824,kallum_motion_pilot,2023.2.2,Win32,144.9275362,614775c6f329a9e5ab190e04,65d2b6c8f2eece985d8e374c,65d2b9eb4c64ef8f4bd15960,0.0523,0.0523,1,18,180,14,1,fourtwo,,,,,,,,,,,,,,,,,,,,,,,,,,,,,,,,,,,,,,,,,,,,,,,,,,,,,,,,,,,,,,,,,,,,,,,,,,,,,,,,,,,,,,,,,,,,,,,,,,,,,,,,,,,,,,,,,,,,,,,,,,,,,,,,,,,,,,,,,
,,614775c6f329a9e5ab190e04,2024-02-19_02h16.25.824,kallum_motion_pilot,2023.2.2,Win32,144.9275362,614775c6f329a9e5ab190e04,65d2b6c8f2eece985d8e374c,65d2b9eb4c64ef8f4bd15960,0.0524,0.0525,1,19,181,36,1,threeone,,,,,,,,,,,,,,,,,,,,,,,,,,,,,,,,,,,,,,,,,,,,,,,,,,,,,,,,,,,,,,,,,,,,,,,,,,,,,,,,,,,,,,,,,,,,,,,,,,,,,,,,,,,,,,,,,,,,,,,,,,,,,,,,,,,,,,,,,
,,614775c6f329a9e5ab190e04,2024-02-19_02h16.25.824,kallum_motion_pilot,2023.2.2,Win32,144.9275362,614775c6f329a9e5ab190e04,65d2b6c8f2eece985d8e374c,65d2b9eb4c64ef8f4bd15960,0.0525,0.0525,1,20,182,102,1,eightsix,,,,,,,,,,,,,,,,,,,,,,,,,,,,,,,,,,,,,,,,,,,,,,,,,,,,,,,,,,,,,,,,,,,,,,,,,,,,,,,,,,,,,,,,,,,,,,,,,,,,,,,,,,,,,,,,,,,,,,,,,,,,,,,,,,,,,,,,,
,,614775c6f329a9e5ab190e04,2024-02-19_02h16.25.824,kallum_motion_pilot,2023.2.2,Win32,144.9275362,614775c6f329a9e5ab190e04,65d2b6c8f2eece985d8e374c,65d2b9eb4c64ef8f4bd15960,0.0526,0.0543,1,21,183,109,1,seveneight,,,,,,,,,,,,,,,,,,,,,,,,,,,,,,,,,,,,,,,,,,,,,,,,,,,,,,,,,,,,,,,,,,,,,,,,,,,,,,,,,,,,,,,,,,,,,,,,,,,,,,,,,,,,,,,,,,,,,,,,,,,,,,,,,,,,,,,,,
,,614775c6f329a9e5ab190e04,2024-02-19_02h16.25.824,kallum_motion_pilot,2023.2.2,Win32,144.9275362,614775c6f329a9e5ab190e04,65d2b6c8f2eece985d8e374c,65d2b9eb4c64ef8f4bd15960,0.0545,0.0546,1,22,184,81,1,fiveseven,,,,,,,,,,,,,,,,,,,,,,,,,,,,,,,,,,,,,,,,,,,,,,,,,,,,,,,,,,,,,,,,,,,,,,,,,,,,,,,,,,,,,,,,,,,,,,,,,,,,,,,,,,,,,,,,,,,,,,,,,,,,,,,,,,,,,,,,,
,,614775c6f329a9e5ab190e04,2024-02-19_02h16.25.824,kallum_motion_pilot,2023.2.2,Win32,144.9275362,614775c6f329a9e5ab190e04,65d2b6c8f2eece985d8e374c,65d2b9eb4c64ef8f4bd15960,0.0547,0.0548,1,23,185,47,1,fourthree,,,,,,,,,,,,,,,,,,,,,,,,,,,,,,,,,,,,,,,,,,,,,,,,,,,,,,,,,,,,,,,,,,,,,,,,,,,,,,,,,,,,,,,,,,,,,,,,,,,,,,,,,,,,,,,,,,,,,,,,,,,,,,,,,,,,,,,,,
,,614775c6f329a9e5ab190e04,2024-02-19_02h16.25.824,kallum_motion_pilot,2023.2.2,Win32,144.9275362,614775c6f329a9e5ab190e04,65d2b6c8f2eece985d8e374c,65d2b9eb4c64ef8f4bd15960,0.0548,0.0549,1,24,186,76,1,threeone,,,,,,,,,,,,,,,,,,,,,,,,,,,,,,,,,,,,,,,,,,,,,,,,,,,,,,,,,,,,,,,,,,,,,,,,,,,,,,,,,,,,,,,,,,,,,,,,,,,,,,,,,,,,,,,,,,,,,,,,,,,,,,,,,,,,,,,,,
,,614775c6f329a9e5ab190e04,2024-02-19_02h16.25.824,kallum_motion_pilot,2023.2.2,Win32,144.9275362,614775c6f329a9e5ab190e04,65d2b6c8f2eece985d8e374c,65d2b9eb4c64ef8f4bd15960,0.0551,0.0551,1,25,187,83,1,sixeight,,,,,,,,,,,,,,,,,,,,,,,,,,,,,,,,,,,,,,,,,,,,,,,,,,,,,,,,,,,,,,,,,,,,,,,,,,,,,,,,,,,,,,,,,,,,,,,,,,,,,,,,,,,,,,,,,,,,,,,,,,,,,,,,,,,,,,,,,
,,614775c6f329a9e5ab190e04,2024-02-19_02h16.25.824,kallum_motion_pilot,2023.2.2,Win32,144.9275362,614775c6f329a9e5ab190e04,65d2b6c8f2eece985d8e374c,65d2b9eb4c64ef8f4bd15960,0.0551,0.0552,1,26,188,122,1,sixfive,,,,,,,,,,,,,,,,,,,,,,,,,,,,,,,,,,,,,,,,,,,,,,,,,,,,,,,,,,,,,,,,,,,,,,,,,,,,,,,,,,,,,,,,,,,,,,,,,,,,,,,,,,,,,,,,,,,,,,,,,,,,,,,,,,,,,,,,,
,,614775c6f329a9e5ab190e04,2024-02-19_02h16.25.824,kallum_motion_pilot,2023.2.2,Win32,144.9275362,614775c6f329a9e5ab190e04,65d2b6c8f2eece985d8e374c,65d2b9eb4c64ef8f4bd15960,0.0553,0.0554,1,27,189,154,1,sixfive,,,,,,,,,,,,,,,,,,,,,,,,,,,,,,,,,,,,,,,,,,,,,,,,,,,,,,,,,,,,,,,,,,,,,,,,,,,,,,,,,,,,,,,,,,,,,,,,,,,,,,,,,,,,,,,,,,,,,,,,,,,,,,,,,,,,,,,,,
,,614775c6f329a9e5ab190e04,2024-02-19_02h16.25.824,kallum_motion_pilot,2023.2.2,Win32,144.9275362,614775c6f329a9e5ab190e04,65d2b6c8f2eece985d8e374c,65d2b9eb4c64ef8f4bd15960,0.0555,0.0555,1,28,190,98,1,sixfive,,,,,,,,,,,,,,,,,,,,,,,,,,,,,,,,,,,,,,,,,,,,,,,,,,,,,,,,,,,,,,,,,,,,,,,,,,,,,,,,,,,,,,,,,,,,,,,,,,,,,,,,,,,,,,,,,,,,,,,,,,,,,,,,,,,,,,,,,
,,614775c6f329a9e5ab190e04,2024-02-19_02h16.25.824,kallum_motion_pilot,2023.2.2,Win32,144.9275362,614775c6f329a9e5ab190e04,65d2b6c8f2eece985d8e374c,65d2b9eb4c64ef8f4bd15960,0.0556,0.0556,1,29,191,151,1,eightseven,,,,,,,,,,,,,,,,,,,,,,,,,,,,,,,,,,,,,,,,,,,,,,,,,,,,,,,,,,,,,,,,,,,,,,,,,,,,,,,,,,,,,,,,,,,,,,,,,,,,,,,,,,,,,,,,,,,,,,,,,,,,,,,,,,,,,,,,,
,,614775c6f329a9e5ab190e04,2024-02-19_02h16.25.824,kallum_motion_pilot,2023.2.2,Win32,144.9275362,614775c6f329a9e5ab190e04,65d2b6c8f2eece985d8e374c,65d2b9eb4c64ef8f4bd15960,0.0556,0.0557,1,30,192,29,1,threefour,,,,,,,,,,,,,,,,,,,,,,,,,,,,,,,,,,,,,,,,,,,,,,,,,,,,,,,,,,,,,,,,,,,,,,,,,,,,,,,,,,,,,,,,,,,,,,,,,,,,,,,,,,,,,,,,,,,,,,,,,,,,,,,,,,,,,,,,,
,,614775c6f329a9e5ab190e04,2024-02-19_02h16.25.824,kallum_motion_pilot,2023.2.2,Win32,144.9275362,614775c6f329a9e5ab190e04,65d2b6c8f2eece985d8e374c,65d2b9eb4c64ef8f4bd15960,0.0558,0.0559,1,31,193,148,1,sevenfive,,,,,,,,,,,,,,,,,,,,,,,,,,,,,,,,,,,,,,,,,,,,,,,,,,,,,,,,,,,,,,,,,,,,,,,,,,,,,,,,,,,,,,,,,,,,,,,,,,,,,,,,,,,,,,,,,,,,,,,,,,,,,,,,,,,,,,,,,
,,614775c6f329a9e5ab190e04,2024-02-19_02h16.25.824,kallum_motion_pilot,2023.2.2,Win32,144.9275362,614775c6f329a9e5ab190e04,65d2b6c8f2eece985d8e374c,65d2b9eb4c64ef8f4bd15960,0.0559,0.056,1,32,194,13,1,threefour,,,,,,,,,,,,,,,,,,,,,,,,,,,,,,,,,,,,,,,,,,,,,,,,,,,,,,,,,,,,,,,,,,,,,,,,,,,,,,,,,,,,,,,,,,,,,,,,,,,,,,,,,,,,,,,,,,,,,,,,,,,,,,,,,,,,,,,,,
,,614775c6f329a9e5ab190e04,2024-02-19_02h16.25.824,kallum_motion_pilot,2023.2.2,Win32,144.9275362,614775c6f329a9e5ab190e04,65d2b6c8f2eece985d8e374c,65d2b9eb4c64ef8f4bd15960,0.0561,0.0561,1,33,195,144,1,fivesix,,,,,,,,,,,,,,,,,,,,,,,,,,,,,,,,,,,,,,,,,,,,,,,,,,,,,,,,,,,,,,,,,,,,,,,,,,,,,,,,,,,,,,,,,,,,,,,,,,,,,,,,,,,,,,,,,,,,,,,,,,,,,,,,,,,,,,,,,
,,614775c6f329a9e5ab190e04,2024-02-19_02h16.25.824,kallum_motion_pilot,2023.2.2,Win32,144.9275362,614775c6f329a9e5ab190e04,65d2b6c8f2eece985d8e374c,65d2b9eb4c64ef8f4bd15960,0.0562,0.0563,1,34,196,116,1,sevenfive,,,,,,,,,,,,,,,,,,,,,,,,,,,,,,,,,,,,,,,,,,,,,,,,,,,,,,,,,,,,,,,,,,,,,,,,,,,,,,,,,,,,,,,,,,,,,,,,,,,,,,,,,,,,,,,,,,,,,,,,,,,,,,,,,,,,,,,,,
,,614775c6f329a9e5ab190e04,2024-02-19_02h16.25.824,kallum_motion_pilot,2023.2.2,Win32,144.9275362,614775c6f329a9e5ab190e04,65d2b6c8f2eece985d8e374c,65d2b9eb4c64ef8f4bd15960,0.0564,0.0565,1,35,197,45,1,threefour,,,,,,,,,,,,,,,,,,,,,,,,,,,,,,,,,,,,,,,,,,,,,,,,,,,,,,,,,,,,,,,,,,,,,,,,,,,,,,,,,,,,,,,,,,,,,,,,,,,,,,,,,,,,,,,,,,,,,,,,,,,,,,,,,,,,,,,,,
,,614775c6f329a9e5ab190e04,2024-02-19_02h16.25.824,kallum_motion_pilot,2023.2.2,Win32,144.9275362,614775c6f329a9e5ab190e04,65d2b6c8f2eece985d8e374c,65d2b9eb4c64ef8f4bd15960,0.0565,0.0566,1,36,198,67,1,twofour,,,,,,,,,,,,,,,,,,,,,,,,,,,,,,,,,,,,,,,,,,,,,,,,,,,,,,,,,,,,,,,,,,,,,,,,,,,,,,,,,,,,,,,,,,,,,,,,,,,,,,,,,,,,,,,,,,,,,,,,,,,,,,,,,,,,,,,,,
,,614775c6f329a9e5ab190e04,2024-02-19_02h16.25.824,kallum_motion_pilot,2023.2.2,Win32,144.9275362,614775c6f329a9e5ab190e04,65d2b6c8f2eece985d8e374c,65d2b9eb4c64ef8f4bd15960,0.0567,0.0568,1,37,199,27,1,twofour,,,,,,,,,,,,,,,,,,,,,,,,,,,,,,,,,,,,,,,,,,,,,,,,,,,,,,,,,,,,,,,,,,,,,,,,,,,,,,,,,,,,,,,,,,,,,,,,,,,,,,,,,,,,,,,,,,,,,,,,,,,,,,,,,,,,,,,,,
,,614775c6f329a9e5ab190e04,2024-02-19_02h16.25.824,kallum_motion_pilot,2023.2.2,Win32,144.9275362,614775c6f329a9e5ab190e04,65d2b6c8f2eece985d8e374c,65d2b9eb4c64ef8f4bd15960,0.0569,0.0569,1,38,200,10,1,twoone,,,,,,,,,,,,,,,,,,,,,,,,,,,,,,,,,,,,,,,,,,,,,,,,,,,,,,,,,,,,,,,,,,,,,,,,,,,,,,,,,,,,,,,,,,,,,,,,,,,,,,,,,,,,,,,,,,,,,,,,,,,,,,,,,,,,,,,,,
,,614775c6f329a9e5ab190e04,2024-02-19_02h16.25.824,kallum_motion_pilot,2023.2.2,Win32,144.9275362,614775c6f329a9e5ab190e04,65d2b6c8f2eece985d8e374c,65d2b9eb4c64ef8f4bd15960,0.0569,0.057,1,39,201,142,1,eightsix,,,,,,,,,,,,,,,,,,,,,,,,,,,,,,,,,,,,,,,,,,,,,,,,,,,,,,,,,,,,,,,,,,,,,,,,,,,,,,,,,,,,,,,,,,,,,,,,,,,,,,,,,,,,,,,,,,,,,,,,,,,,,,,,,,,,,,,,,
,,614775c6f329a9e5ab190e04,2024-02-19_02h16.25.824,kallum_motion_pilot,2023.2.2,Win32,144.9275362,614775c6f329a9e5ab190e04,65d2b6c8f2eece985d8e374c,65d2b9eb4c64ef8f4bd15960,0.0571,0.0572,1,40,202,25,1,onethree,,,,,,,,,,,,,,,,,,,,,,,,,,,,,,,,,,,,,,,,,,,,,,,,,,,,,,,,,,,,,,,,,,,,,,,,,,,,,,,,,,,,,,,,,,,,,,,,,,,,,,,,,,,,,,,,,,,,,,,,,,,,,,,,,,,,,,,,,
,,614775c6f329a9e5ab190e04,2024-02-19_02h16.25.824,kallum_motion_pilot,2023.2.2,Win32,144.9275362,614775c6f329a9e5ab190e04,65d2b6c8f2eece985d8e374c,65d2b9eb4c64ef8f4bd15960,0.0573,0.0573,1,41,203,16,1,onetwo,,,,,,,,,,,,,,,,,,,,,,,,,,,,,,,,,,,,,,,,,,,,,,,,,,,,,,,,,,,,,,,,,,,,,,,,,,,,,,,,,,,,,,,,,,,,,,,,,,,,,,,,,,,,,,,,,,,,,,,,,,,,,,,,,,,,,,,,,
,,614775c6f329a9e5ab190e04,2024-02-19_02h16.25.824,kallum_motion_pilot,2023.2.2,Win32,144.9275362,614775c6f329a9e5ab190e04,65d2b6c8f2eece985d8e374c,65d2b9eb4c64ef8f4bd15960,0.0574,0.0574,1,42,204,35,1,twofour,,,,,,,,,,,,,,,,,,,,,,,,,,,,,,,,,,,,,,,,,,,,,,,,,,,,,,,,,,,,,,,,,,,,,,,,,,,,,,,,,,,,,,,,,,,,,,,,,,,,,,,,,,,,,,,,,,,,,,,,,,,,,,,,,,,,,,,,,
,,614775c6f329a9e5ab190e04,2024-02-19_02h16.25.824,kallum_motion_pilot,2023.2.2,Win32,144.9275362,614775c6f329a9e5ab190e04,65d2b6c8f2eece985d8e374c,65d2b9eb4c64ef8f4bd15960,0.0576,0.0576,1,43,205,145,1,fiveseven,,,,,,,,,,,,,,,,,,,,,,,,,,,,,,,,,,,,,,,,,,,,,,,,,,,,,,,,,,,,,,,,,,,,,,,,,,,,,,,,,,,,,,,,,,,,,,,,,,,,,,,,,,,,,,,,,,,,,,,,,,,,,,,,,,,,,,,,,
,,614775c6f329a9e5ab190e04,2024-02-19_02h16.25.824,kallum_motion_pilot,2023.2.2,Win32,144.9275362,614775c6f329a9e5ab190e04,65d2b6c8f2eece985d8e374c,65d2b9eb4c64ef8f4bd15960,0.0576,0.0577,1,44,206,19,1,twofour,,,,,,,,,,,,,,,,,,,,,,,,,,,,,,,,,,,,,,,,,,,,,,,,,,,,,,,,,,,,,,,,,,,,,,,,,,,,,,,,,,,,,,,,,,,,,,,,,,,,,,,,,,,,,,,,,,,,,,,,,,,,,,,,,,,,,,,,,
,,614775c6f329a9e5ab190e04,2024-02-19_02h16.25.824,kallum_motion_pilot,2023.2.2,Win32,144.9275362,614775c6f329a9e5ab190e04,65d2b6c8f2eece985d8e374c,65d2b9eb4c64ef8f4bd15960,0.0578,0.0579,1,45,207,23,1,fourthree,,,,,,,,,,,,,,,,,,,,,,,,,,,,,,,,,,,,,,,,,,,,,,,,,,,,,,,,,,,,,,,,,,,,,,,,,,,,,,,,,,,,,,,,,,,,,,,,,,,,,,,,,,,,,,,,,,,,,,,,,,,,,,,,,,,,,,,,,
,,614775c6f329a9e5ab190e04,2024-02-19_02h16.25.824,kallum_motion_pilot,2023.2.2,Win32,144.9275362,614775c6f329a9e5ab190e04,65d2b6c8f2eece985d8e374c,65d2b9eb4c64ef8f4bd15960,0.0579,0.0579,1,46,208,52,1,threeone,,,,,,,,,,,,,,,,,,,,,,,,,,,,,,,,,,,,,,,,,,,,,,,,,,,,,,,,,,,,,,,,,,,,,,,,,,,,,,,,,,,,,,,,,,,,,,,,,,,,,,,,,,,,,,,,,,,,,,,,,,,,,,,,,,,,,,,,,
,,614775c6f329a9e5ab190e04,2024-02-19_02h16.25.824,kallum_motion_pilot,2023.2.2,Win32,144.9275362,614775c6f329a9e5ab190e04,65d2b6c8f2eece985d8e374c,65d2b9eb4c64ef8f4bd15960,0.0581,0.0581,1,47,209,68,1,threeone,,,,,,,,,,,,,,,,,,,,,,,,,,,,,,,,,,,,,,,,,,,,,,,,,,,,,,,,,,,,,,,,,,,,,,,,,,,,,,,,,,,,,,,,,,,,,,,,,,,,,,,,,,,,,,,,,,,,,,,,,,,,,,,,,,,,,,,,,
,,614775c6f329a9e5ab190e04,2024-02-19_02h16.25.824,kallum_motion_pilot,2023.2.2,Win32,144.9275362,614775c6f329a9e5ab190e04,65d2b6c8f2eece985d8e374c,65d2b9eb4c64ef8f4bd15960,0.0582,0.0582,1,48,210,96,1,fivesix,,,,,,,,,,,,,,,,,,,,,,,,,,,,,,,,,,,,,,,,,,,,,,,,,,,,,,,,,,,,,,,,,,,,,,,,,,,,,,,,,,,,,,,,,,,,,,,,,,,,,,,,,,,,,,,,,,,,,,,,,,,,,,,,,,,,,,,,,
,,614775c6f329a9e5ab190e04,2024-02-19_02h16.25.824,kallum_motion_pilot,2023.2.2,Win32,144.9275362,614775c6f329a9e5ab190e04,65d2b6c8f2eece985d8e374c,65d2b9eb4c64ef8f4bd15960,0.0583,0.0584,1,49,211,56,1,onetwo,,,,,,,,,,,,,,,,,,,,,,,,,,,,,,,,,,,,,,,,,,,,,,,,,,,,,,,,,,,,,,,,,,,,,,,,,,,,,,,,,,,,,,,,,,,,,,,,,,,,,,,,,,,,,,,,,,,,,,,,,,,,,,,,,,,,,,,,,
,,614775c6f329a9e5ab190e04,2024-02-19_02h16.25.824,kallum_motion_pilot,2023.2.2,Win32,144.9275362,614775c6f329a9e5ab190e04,65d2b6c8f2eece985d8e374c,65d2b9eb4c64ef8f4bd15960,0.0585,0.0586,1,50,212,8,1,onetwo,,,,,,,,,,,,,,,,,,,,,,,,,,,,,,,,,,,,,,,,,,,,,,,,,,,,,,,,,,,,,,,,,,,,,,,,,,,,,,,,,,,,,,,,,,,,,,,,,,,,,,,,,,,,,,,,,,,,,,,,,,,,,,,,,,,,,,,,,
,,614775c6f329a9e5ab190e04,2024-02-19_02h16.25.824,kallum_motion_pilot,2023.2.2,Win32,144.9275362,614775c6f329a9e5ab190e04,65d2b6c8f2eece985d8e374c,65d2b9eb4c64ef8f4bd15960,0.0587,0.0587,1,51,213,87,1,eightseven,,,,,,,,,,,,,,,,,,,,,,,,,,,,,,,,,,,,,,,,,,,,,,,,,,,,,,,,,,,,,,,,,,,,,,,,,,,,,,,,,,,,,,,,,,,,,,,,,,,,,,,,,,,,,,,,,,,,,,,,,,,,,,,,,,,,,,,,,
,,614775c6f329a9e5ab190e04,2024-02-19_02h16.25.824,kallum_motion_pilot,2023.2.2,Win32,144.9275362,614775c6f329a9e5ab190e04,65d2b6c8f2eece985d8e374c,65d2b9eb4c64ef8f4bd15960,0.0588,0.0588,1,52,214,32,1,onetwo,,,,,,,,,,,,,,,,,,,,,,,,,,,,,,,,,,,,,,,,,,,,,,,,,,,,,,,,,,,,,,,,,,,,,,,,,,,,,,,,,,,,,,,,,,,,,,,,,,,,,,,,,,,,,,,,,,,,,,,,,,,,,,,,,,,,,,,,,
,,614775c6f329a9e5ab190e04,2024-02-19_02h16.25.824,kallum_motion_pilot,2023.2.2,Win32,144.9275362,614775c6f329a9e5ab190e04,65d2b6c8f2eece985d8e374c,65d2b9eb4c64ef8f4bd15960,0.0589,0.059,1,53,215,74,1,twoone,,,,,,,,,,,,,,,,,,,,,,,,,,,,,,,,,,,,,,,,,,,,,,,,,,,,,,,,,,,,,,,,,,,,,,,,,,,,,,,,,,,,,,,,,,,,,,,,,,,,,,,,,,,,,,,,,,,,,,,,,,,,,,,,,,,,,,,,,
,,614775c6f329a9e5ab190e04,2024-02-19_02h16.25.824,kallum_motion_pilot,2023.2.2,Win32,144.9275362,614775c6f329a9e5ab190e04,65d2b6c8f2eece985d8e374c,65d2b9eb4c64ef8f4bd15960,0.0591,0.0591,1,54,216,7,1,fourthree,,,,,,,,,,,,,,,,,,,,,,,,,,,,,,,,,,,,,,,,,,,,,,,,,,,,,,,,,,,,,,,,,,,,,,,,,,,,,,,,,,,,,,,,,,,,,,,,,,,,,,,,,,,,,,,,,,,,,,,,,,,,,,,,,,,,,,,,,
,,614775c6f329a9e5ab190e04,2024-02-19_02h16.25.824,kallum_motion_pilot,2023.2.2,Win32,144.9275362,614775c6f329a9e5ab190e04,65d2b6c8f2eece985d8e374c,65d2b9eb4c64ef8f4bd15960,0.0593,0.0593,1,55,217,135,1,eightseven,,,,,,,,,,,,,,,,,,,,,,,,,,,,,,,,,,,,,,,,,,,,,,,,,,,,,,,,,,,,,,,,,,,,,,,,,,,,,,,,,,,,,,,,,,,,,,,,,,,,,,,,,,,,,,,,,,,,,,,,,,,,,,,,,,,,,,,,,
,,614775c6f329a9e5ab190e04,2024-02-19_02h16.25.824,kallum_motion_pilot,2023.2.2,Win32,144.9275362,614775c6f329a9e5ab190e04,65d2b6c8f2eece985d8e374c,65d2b9eb4c64ef8f4bd15960,0.0595,0.0595,1,56,218,84,1,sevenfive,,,,,,,,,,,,,,,,,,,,,,,,,,,,,,,,,,,,,,,,,,,,,,,,,,,,,,,,,,,,,,,,,,,,,,,,,,,,,,,,,,,,,,,,,,,,,,,,,,,,,,,,,,,,,,,,,,,,,,,,,,,,,,,,,,,,,,,,,
,,614775c6f329a9e5ab190e04,2024-02-19_02h16.25.824,kallum_motion_pilot,2023.2.2,Win32,144.9275362,614775c6f329a9e5ab190e04,65d2b6c8f2eece985d8e374c,65d2b9eb4c64ef8f4bd15960,0.0596,0.0597,1,57,219,26,1,twoone,,,,,,,,,,,,,,,,,,,,,,,,,,,,,,,,,,,,,,,,,,,,,,,,,,,,,,,,,,,,,,,,,,,,,,,,,,,,,,,,,,,,,,,,,,,,,,,,,,,,,,,,,,,,,,,,,,,,,,,,,,,,,,,,,,,,,,,,,
,,614775c6f329a9e5ab190e04,2024-02-19_02h16.25.824,kallum_motion_pilot,2023.2.2,Win32,144.9275362,614775c6f329a9e5ab190e04,65d2b6c8f2eece985d8e374c,65d2b9eb4c64ef8f4bd15960,0.0598,0.0598,1,58,220,129,1,fiveseven,,,,,,,,,,,,,,,,,,,,,,,,,,,,,,,,,,,,,,,,,,,,,,,,,,,,,,,,,,,,,,,,,,,,,,,,,,,,,,,,,,,,,,,,,,,,,,,,,,,,,,,,,,,,,,,,,,,,,,,,,,,,,,,,,,,,,,,,,
,,614775c6f329a9e5ab190e04,2024-02-19_02h16.25.824,kallum_motion_pilot,2023.2.2,Win32,144.9275362,614775c6f329a9e5ab190e04,65d2b6c8f2eece985d8e374c,65d2b9eb4c64ef8f4bd15960,0.0599,0.0599,1,59,221,20,1,threeone,,,,,,,,,,,,,,,,,,,,,,,,,,,,,,,,,,,,,,,,,,,,,,,,,,,,,,,,,,,,,,,,,,,,,,,,,,,,,,,,,,,,,,,,,,,,,,,,,,,,,,,,,,,,,,,,,,,,,,,,,,,,,,,,,,,,,,,,,
,,614775c6f329a9e5ab190e04,2024-02-19_02h16.25.824,kallum_motion_pilot,2023.2.2,Win32,144.9275362,614775c6f329a9e5ab190e04,65d2b6c8f2eece985d8e374c,65d2b9eb4c64ef8f4bd15960,0.06,0.0601,1,60,222,79,1,eightseven,,,,,,,,,,,,,,,,,,,,,,,,,,,,,,,,,,,,,,,,,,,,,,,,,,,,,,,,,,,,,,,,,,,,,,,,,,,,,,,,,,,,,,,,,,,,,,,,,,,,,,,,,,,,,,,,,,,,,,,,,,,,,,,,,,,,,,,,,
,,614775c6f329a9e5ab190e04,2024-02-19_02h16.25.824,kallum_motion_pilot,2023.2.2,Win32,144.9275362,614775c6f329a9e5ab190e04,65d2b6c8f2eece985d8e374c,65d2b9eb4c64ef8f4bd15960,0.0601,0.0602,1,61,223,108,1,sevenfive,,,,,,,,,,,,,,,,,,,,,,,,,,,,,,,,,,,,,,,,,,,,,,,,,,,,,,,,,,,,,,,,,,,,,,,,,,,,,,,,,,,,,,,,,,,,,,,,,,,,,,,,,,,,,,,,,,,,,,,,,,,,,,,,,,,,,,,,,
,,614775c6f329a9e5ab190e04,2024-02-19_02h16.25.824,kallum_motion_pilot,2023.2.2,Win32,144.9275362,614775c6f329a9e5ab190e04,65d2b6c8f2eece985d8e374c,65d2b9eb4c64ef8f4bd15960,0.0604,0.0604,1,62,224,86,1,eightsix,,,,,,,,,,,,,,,,,,,,,,,,,,,,,,,,,,,,,,,,,,,,,,,,,,,,,,,,,,,,,,,,,,,,,,,,,,,,,,,,,,,,,,,,,,,,,,,,,,,,,,,,,,,,,,,,,,,,,,,,,,,,,,,,,,,,,,,,,
,,614775c6f329a9e5ab190e04,2024-02-19_02h16.25.824,kallum_motion_pilot,2023.2.2,Win32,144.9275362,614775c6f329a9e5ab190e04,65d2b6c8f2eece985d8e374c,65d2b9eb4c64ef8f4bd15960,0.0605,0.0606,1,63,225,120,1,fivesix,,,,,,,,,,,,,,,,,,,,,,,,,,,,,,,,,,,,,,,,,,,,,,,,,,,,,,,,,,,,,,,,,,,,,,,,,,,,,,,,,,,,,,,,,,,,,,,,,,,,,,,,,,,,,,,,,,,,,,,,,,,,,,,,,,,,,,,,,
,,614775c6f329a9e5ab190e04,2024-02-19_02h16.25.824,kallum_motion_pilot,2023.2.2,Win32,144.9275362,614775c6f329a9e5ab190e04,65d2b6c8f2eece985d8e374c,65d2b9eb4c64ef8f4bd15960,0.0607,0.0608,1,64,226,18,1,twoone,,,,,,,,,,,,,,,,,,,,,,,,,,,,,,,,,,,,,,,,,,,,,,,,,,,,,,,,,,,,,,,,,,,,,,,,,,,,,,,,,,,,,,,,,,,,,,,,,,,,,,,,,,,,,,,,,,,,,,,,,,,,,,,,,,,,,,,,,
,,614775c6f329a9e5ab190e04,2024-02-19_02h16.25.824,kallum_motion_pilot,2023.2.2,Win32,144.9275362,614775c6f329a9e5ab190e04,65d2b6c8f2eece985d8e374c,65d2b9eb4c64ef8f4bd15960,0.0608,0.0609,1,65,227,17,1,onethree,,,,,,,,,,,,,,,,,,,,,,,,,,,,,,,,,,,,,,,,,,,,,,,,,,,,,,,,,,,,,,,,,,,,,,,,,,,,,,,,,,,,,,,,,,,,,,,,,,,,,,,,,,,,,,,,,,,,,,,,,,,,,,,,,,,,,,,,,
,,614775c6f329a9e5ab190e04,2024-02-19_02h16.25.824,kallum_motion_pilot,2023.2.2,Win32,144.9275362,614775c6f329a9e5ab190e04,65d2b6c8f2eece985d8e374c,65d2b9eb4c64ef8f4bd15960,0.061,0.0611,1,66,228,44,1,threeone,,,,,,,,,,,,,,,,,,,,,,,,,,,,,,,,,,,,,,,,,,,,,,,,,,,,,,,,,,,,,,,,,,,,,,,,,,,,,,,,,,,,,,,,,,,,,,,,,,,,,,,,,,,,,,,,,,,,,,,,,,,,,,,,,,,,,,,,,
,,614775c6f329a9e5ab190e04,2024-02-19_02h16.25.824,kallum_motion_pilot,2023.2.2,Win32,144.9275362,614775c6f329a9e5ab190e04,65d2b6c8f2eece985d8e374c,65d2b9eb4c64ef8f4bd15960,0.0612,0.0613,1,67,229,132,1,sevenfive,,,,,,,,,,,,,,,,,,,,,,,,,,,,,,,,,,,,,,,,,,,,,,,,,,,,,,,,,,,,,,,,,,,,,,,,,,,,,,,,,,,,,,,,,,,,,,,,,,,,,,,,,,,,,,,,,,,,,,,,,,,,,,,,,,,,,,,,,
,,614775c6f329a9e5ab190e04,2024-02-19_02h16.25.824,kallum_motion_pilot,2023.2.2,Win32,144.9275362,614775c6f329a9e5ab190e04,65d2b6c8f2eece985d8e374c,65d2b9eb4c64ef8f4bd15960,0.0613,0.0614,1,68,230,62,1,fourtwo,,,,,,,,,,,,,,,,,,,,,,,,,,,,,,,,,,,,,,,,,,,,,,,,,,,,,,,,,,,,,,,,,,,,,,,,,,,,,,,,,,,,,,,,,,,,,,,,,,,,,,,,,,,,,,,,,,,,,,,,,,,,,,,,,,,,,,,,,
,,614775c6f329a9e5ab190e04,2024-02-19_02h16.25.824,kallum_motion_pilot,2023.2.2,Win32,144.9275362,614775c6f329a9e5ab190e04,65d2b6c8f2eece985d8e374c,65d2b9eb4c64ef8f4bd15960,0.0614,0.0616,1,69,231,12,1,threeone,,,,,,,,,,,,,,,,,,,,,,,,,,,,,,,,,,,,,,,,,,,,,,,,,,,,,,,,,,,,,,,,,,,,,,,,,,,,,,,,,,,,,,,,,,,,,,,,,,,,,,,,,,,,,,,,,,,,,,,,,,,,,,,,,,,,,,,,,
,,614775c6f329a9e5ab190e04,2024-02-19_02h16.25.824,kallum_motion_pilot,2023.2.2,Win32,144.9275362,614775c6f329a9e5ab190e04,65d2b6c8f2eece985d8e374c,65d2b9eb4c64ef8f4bd15960,0.0616,0.0617,1,70,232,72,1,onetwo,,,,,,,,,,,,,,,,,,,,,,,,,,,,,,,,,,,,,,,,,,,,,,,,,,,,,,,,,,,,,,,,,,,,,,,,,,,,,,,,,,,,,,,,,,,,,,,,,,,,,,,,,,,,,,,,,,,,,,,,,,,,,,,,,,,,,,,,,
,,614775c6f329a9e5ab190e04,2024-02-19_02h16.25.824,kallum_motion_pilot,2023.2.2,Win32,144.9275362,614775c6f329a9e5ab190e04,65d2b6c8f2eece985d8e374c,65d2b9eb4c64ef8f4bd15960,0.0618,0.0619,1,71,233,106,1,sixfive,,,,,,,,,,,,,,,,,,,,,,,,,,,,,,,,,,,,,,,,,,,,,,,,,,,,,,,,,,,,,,,,,,,,,,,,,,,,,,,,,,,,,,,,,,,,,,,,,,,,,,,,,,,,,,,,,,,,,,,,,,,,,,,,,,,,,,,,,
,,614775c6f329a9e5ab190e04,2024-02-19_02h16.25.824,kallum_motion_pilot,2023.2.2,Win32,144.9275362,614775c6f329a9e5ab190e04,65d2b6c8f2eece985d8e374c,65d2b9eb4c64ef8f4bd15960,0.062,0.062,1,72,234,159,1,eightseven,,,,,,,,,,,,,,,,,,,,,,,,,,,,,,,,,,,,,,,,,,,,,,,,,,,,,,,,,,,,,,,,,,,,,,,,,,,,,,,,,,,,,,,,,,,,,,,,,,,,,,,,,,,,,,,,,,,,,,,,,,,,,,,,,,,,,,,,,
,,614775c6f329a9e5ab190e04,2024-02-19_02h16.25.824,kallum_motion_pilot,2023.2.2,Win32,144.9275362,614775c6f329a9e5ab190e04,65d2b6c8f2eece985d8e374c,65d2b9eb4c64ef8f4bd15960,0.0622,0.0622,1,73,235,2,1,twoone,,,,,,,,,,,,,,,,,,,,,,,,,,,,,,,,,,,,,,,,,,,,,,,,,,,,,,,,,,,,,,,,,,,,,,,,,,,,,,,,,,,,,,,,,,,,,,,,,,,,,,,,,,,,,,,,,,,,,,,,,,,,,,,,,,,,,,,,,
,,614775c6f329a9e5ab190e04,2024-02-19_02h16.25.824,kallum_motion_pilot,2023.2.2,Win32,144.9275362,614775c6f329a9e5ab190e04,65d2b6c8f2eece985d8e374c,65d2b9eb4c64ef8f4bd15960,0.0623,0.0624,1,74,236,133,1,seveneight,,,,,,,,,,,,,,,,,,,,,,,,,,,,,,,,,,,,,,,,,,,,,,,,,,,,,,,,,,,,,,,,,,,,,,,,,,,,,,,,,,,,,,,,,,,,,,,,,,,,,,,,,,,,,,,,,,,,,,,,,,,,,,,,,,,,,,,,,
,,614775c6f329a9e5ab190e04,2024-02-19_02h16.25.824,kallum_motion_pilot,2023.2.2,Win32,144.9275362,614775c6f329a9e5ab190e04,65d2b6c8f2eece985d8e374c,65d2b9eb4c64ef8f4bd15960,0.0625,0.0626,1,75,237,89,1,fiveseven,,,,,,,,,,,,,,,,,,,,,,,,,,,,,,,,,,,,,,,,,,,,,,,,,,,,,,,,,,,,,,,,,,,,,,,,,,,,,,,,,,,,,,,,,,,,,,,,,,,,,,,,,,,,,,,,,,,,,,,,,,,,,,,,,,,,,,,,,
,,614775c6f329a9e5ab190e04,2024-02-19_02h16.25.824,kallum_motion_pilot,2023.2.2,Win32,144.9275362,614775c6f329a9e5ab190e04,65d2b6c8f2eece985d8e374c,65d2b9eb4c64ef8f4bd15960,0.0626,0.0628,1,76,238,119,1,eightseven,,,,,,,,,,,,,,,,,,,,,,,,,,,,,,,,,,,,,,,,,,,,,,,,,,,,,,,,,,,,,,,,,,,,,,,,,,,,,,,,,,,,,,,,,,,,,,,,,,,,,,,,,,,,,,,,,,,,,,,,,,,,,,,,,,,,,,,,,
,,614775c6f329a9e5ab190e04,2024-02-19_02h16.25.824,kallum_motion_pilot,2023.2.2,Win32,144.9275362,614775c6f329a9e5ab190e04,65d2b6c8f2eece985d8e374c,65d2b9eb4c64ef8f4bd15960,0.0628,0.0629,1,77,239,50,1,twoone,,,,,,,,,,,,,,,,,,,,,,,,,,,,,,,,,,,,,,,,,,,,,,,,,,,,,,,,,,,,,,,,,,,,,,,,,,,,,,,,,,,,,,,,,,,,,,,,,,,,,,,,,,,,,,,,,,,,,,,,,,,,,,,,,,,,,,,,,
,,614775c6f329a9e5ab190e04,2024-02-19_02h16.25.824,kallum_motion_pilot,2023.2.2,Win32,144.9275362,614775c6f329a9e5ab190e04,65d2b6c8f2eece985d8e374c,65d2b9eb4c64ef8f4bd15960,0.063,0.0631,1,78,240,161,1,fiveseven,,,,,,,,,,,,,,,,,,,,,,,,,,,,,,,,,,,,,,,,,,,,,,,,,,,,,,,,,,,,,,,,,,,,,,,,,,,,,,,,,,,,,,,,,,,,,,,,,,,,,,,,,,,,,,,,,,,,,,,,,,,,,,,,,,,,,,,,,
,,614775c6f329a9e5ab190e04,2024-02-19_02h16.25.824,kallum_motion_pilot,2023.2.2,Win32,144.9275362,614775c6f329a9e5ab190e04,65d2b6c8f2eece985d8e374c,65d2b9eb4c64ef8f4bd15960,0.0632,0.0633,1,79,241,137,1,fiveseven,,,,,,,,,,,,,,,,,,,,,,,,,,,,,,,,,,,,,,,,,,,,,,,,,,,,,,,,,,,,,,,,,,,,,,,,,,,,,,,,,,,,,,,,,,,,,,,,,,,,,,,,,,,,,,,,,,,,,,,,,,,,,,,,,,,,,,,,,
,,614775c6f329a9e5ab190e04,2024-02-19_02h16.25.824,kallum_motion_pilot,2023.2.2,Win32,144.9275362,614775c6f329a9e5ab190e04,65d2b6c8f2eece985d8e374c,65d2b9eb4c64ef8f4bd15960,0.0634,0.0636,1,80,242,61,1,threefour,,,,,,,,,,,,,,,,,,,,,,,,,,,,,,,,,,,,,,,,,,,,,,,,,,,,,,,,,,,,,,,,,,,,,,,,,,,,,,,,,,,,,,,,,,,,,,,,,,,,,,,,,,,,,,,,,,,,,,,,,,,,,,,,,,,,,,,,,
,,614775c6f329a9e5ab190e04,2024-02-19_02h16.25.824,kallum_motion_pilot,2023.2.2,Win32,144.9275362,614775c6f329a9e5ab190e04,65d2b6c8f2eece985d8e374c,65d2b9eb4c64ef8f4bd15960,0.0636,0.0637,1,81,243,149,1,seveneight,,,,,,,,,,,,,,,,,,,,,,,,,,,,,,,,,,,,,,,,,,,,,,,,,,,,,,,,,,,,,,,,,,,,,,,,,,,,,,,,,,,,,,,,,,,,,,,,,,,,,,,,,,,,,,,,,,,,,,,,,,,,,,,,,,,,,,,,,
,,614775c6f329a9e5ab190e04,2024-02-19_02h16.25.824,kallum_motion_pilot,2023.2.2,Win32,144.9275362,614775c6f329a9e5ab190e04,65d2b6c8f2eece985d8e374c,65d2b9eb4c64ef8f4bd15960,0.0639,0.0639,1,82,244,95,1,eightseven,,,,,,,,,,,,,,,,,,,,,,,,,,,,,,,,,,,,,,,,,,,,,,,,,,,,,,,,,,,,,,,,,,,,,,,,,,,,,,,,,,,,,,,,,,,,,,,,,,,,,,,,,,,,,,,,,,,,,,,,,,,,,,,,,,,,,,,,,
,,614775c6f329a9e5ab190e04,2024-02-19_02h16.25.824,kallum_motion_pilot,2023.2.2,Win32,144.9275362,614775c6f329a9e5ab190e04,65d2b6c8f2eece985d8e374c,65d2b9eb4c64ef8f4bd15960,0.064,0.0642,1,83,245,107,1,sixeight,,,,,,,,,,,,,,,,,,,,,,,,,,,,,,,,,,,,,,,,,,,,,,,,,,,,,,,,,,,,,,,,,,,,,,,,,,,,,,,,,,,,,,,,,,,,,,,,,,,,,,,,,,,,,,,,,,,,,,,,,,,,,,,,,,,,,,,,,
,,614775c6f329a9e5ab190e04,2024-02-19_02h16.25.824,kallum_motion_pilot,2023.2.2,Win32,144.9275362,614775c6f329a9e5ab190e04,65d2b6c8f2eece985d8e374c,65d2b9eb4c64ef8f4bd15960,0.0644,0.0645,1,84,246,11,1,twofour,,,,,,,,,,,,,,,,,,,,,,,,,,,,,,,,,,,,,,,,,,,,,,,,,,,,,,,,,,,,,,,,,,,,,,,,,,,,,,,,,,,,,,,,,,,,,,,,,,,,,,,,,,,,,,,,,,,,,,,,,,,,,,,,,,,,,,,,,
,,614775c6f329a9e5ab190e04,2024-02-19_02h16.25.824,kallum_motion_pilot,2023.2.2,Win32,144.9275362,614775c6f329a9e5ab190e04,65d2b6c8f2eece985d8e374c,65d2b9eb4c64ef8f4bd15960,0.0646,0.0647,1,85,247,21,1,threefour,,,,,,,,,,,,,,,,,,,,,,,,,,,,,,,,,,,,,,,,,,,,,,,,,,,,,,,,,,,,,,,,,,,,,,,,,,,,,,,,,,,,,,,,,,,,,,,,,,,,,,,,,,,,,,,,,,,,,,,,,,,,,,,,,,,,,,,,,
,,614775c6f329a9e5ab190e04,2024-02-19_02h16.25.824,kallum_motion_pilot,2023.2.2,Win32,144.9275362,614775c6f329a9e5ab190e04,65d2b6c8f2eece985d8e374c,65d2b9eb4c64ef8f4bd15960,0.0648,0.065,1,86,248,59,1,twofour,,,,,,,,,,,,,,,,,,,,,,,,,,,,,,,,,,,,,,,,,,,,,,,,,,,,,,,,,,,,,,,,,,,,,,,,,,,,,,,,,,,,,,,,,,,,,,,,,,,,,,,,,,,,,,,,,,,,,,,,,,,,,,,,,,,,,,,,,
,,614775c6f329a9e5ab190e04,2024-02-19_02h16.25.824,kallum_motion_pilot,2023.2.2,Win32,144.9275362,614775c6f329a9e5ab190e04,65d2b6c8f2eece985d8e374c,65d2b9eb4c64ef8f4bd15960,0.0651,0.0652,1,87,249,71,1,fourthree,,,,,,,,,,,,,,,,,,,,,,,,,,,,,,,,,,,,,,,,,,,,,,,,,,,,,,,,,,,,,,,,,,,,,,,,,,,,,,,,,,,,,,,,,,,,,,,,,,,,,,,,,,,,,,,,,,,,,,,,,,,,,,,,,,,,,,,,,
,,614775c6f329a9e5ab190e04,2024-02-19_02h16.25.824,kallum_motion_pilot,2023.2.2,Win32,144.9275362,614775c6f329a9e5ab190e04,65d2b6c8f2eece985d8e374c,65d2b9eb4c64ef8f4bd15960,0.0653,0.0653,1,88,250,49,1,onethree,,,,,,,,,,,,,,,,,,,,,,,,,,,,,,,,,,,,,,,,,,,,,,,,,,,,,,,,,,,,,,,,,,,,,,,,,,,,,,,,,,,,,,,,,,,,,,,,,,,,,,,,,,,,,,,,,,,,,,,,,,,,,,,,,,,,,,,,,
,,614775c6f329a9e5ab190e04,2024-02-19_02h16.25.824,kallum_motion_pilot,2023.2.2,Win32,144.9275362,614775c6f329a9e5ab190e04,65d2b6c8f2eece985d8e374c,65d2b9eb4c64ef8f4bd15960,0.0654,0.0655,1,89,251,51,1,twofour,,,,,,,,,,,,,,,,,,,,,,,,,,,,,,,,,,,,,,,,,,,,,,,,,,,,,,,,,,,,,,,,,,,,,,,,,,,,,,,,,,,,,,,,,,,,,,,,,,,,,,,,,,,,,,,,,,,,,,,,,,,,,,,,,,,,,,,,,
,,614775c6f329a9e5ab190e04,2024-02-19_02h16.25.824,kallum_motion_pilot,2023.2.2,Win32,144.9275362,614775c6f329a9e5ab190e04,65d2b6c8f2eece985d8e374c,65d2b9eb4c64ef8f4bd15960,0.0656,0.0657,1,90,252,130,1,sixfive,,,,,,,,,,,,,,,,,,,,,,,,,,,,,,,,,,,,,,,,,,,,,,,,,,,,,,,,,,,,,,,,,,,,,,,,,,,,,,,,,,,,,,,,,,,,,,,,,,,,,,,,,,,,,,,,,,,,,,,,,,,,,,,,,,,,,,,,,
,,614775c6f329a9e5ab190e04,2024-02-19_02h16.25.824,kallum_motion_pilot,2023.2.2,Win32,144.9275362,614775c6f329a9e5ab190e04,65d2b6c8f2eece985d8e374c,65d2b9eb4c64ef8f4bd15960,0.0658,0.0659,1,91,253,73,1,onethree,,,,,,,,,,,,,,,,,,,,,,,,,,,,,,,,,,,,,,,,,,,,,,,,,,,,,,,,,,,,,,,,,,,,,,,,,,,,,,,,,,,,,,,,,,,,,,,,,,,,,,,,,,,,,,,,,,,,,,,,,,,,,,,,,,,,,,,,,
,,614775c6f329a9e5ab190e04,2024-02-19_02h16.25.824,kallum_motion_pilot,2023.2.2,Win32,144.9275362,614775c6f329a9e5ab190e04,65d2b6c8f2eece985d8e374c,65d2b9eb4c64ef8f4bd15960,0.0659,0.066,1,92,254,91,1,sixeight,,,,,,,,,,,,,,,,,,,,,,,,,,,,,,,,,,,,,,,,,,,,,,,,,,,,,,,,,,,,,,,,,,,,,,,,,,,,,,,,,,,,,,,,,,,,,,,,,,,,,,,,,,,,,,,,,,,,,,,,,,,,,,,,,,,,,,,,,
,,614775c6f329a9e5ab190e04,2024-02-19_02h16.25.824,kallum_motion_pilot,2023.2.2,Win32,144.9275362,614775c6f329a9e5ab190e04,65d2b6c8f2eece985d8e374c,65d2b9eb4c64ef8f4bd15960,0.0663,0.0664,1,93,255,153,1,fiveseven,,,,,,,,,,,,,,,,,,,,,,,,,,,,,,,,,,,,,,,,,,,,,,,,,,,,,,,,,,,,,,,,,,,,,,,,,,,,,,,,,,,,,,,,,,,,,,,,,,,,,,,,,,,,,,,,,,,,,,,,,,,,,,,,,,,,,,,,,
,,614775c6f329a9e5ab190e04,2024-02-19_02h16.25.824,kallum_motion_pilot,2023.2.2,Win32,144.9275362,614775c6f329a9e5ab190e04,65d2b6c8f2eece985d8e374c,65d2b9eb4c64ef8f4bd15960,0.0666,0.0666,1,94,256,6,1,fourtwo,,,,,,,,,,,,,,,,,,,,,,,,,,,,,,,,,,,,,,,,,,,,,,,,,,,,,,,,,,,,,,,,,,,,,,,,,,,,,,,,,,,,,,,,,,,,,,,,,,,,,,,,,,,,,,,,,,,,,,,,,,,,,,,,,,,,,,,,,
,,614775c6f329a9e5ab190e04,2024-02-19_02h16.25.824,kallum_motion_pilot,2023.2.2,Win32,144.9275362,614775c6f329a9e5ab190e04,65d2b6c8f2eece985d8e374c,65d2b9eb4c64ef8f4bd15960,0.0667,0.0668,1,95,257,33,1,onethree,,,,,,,,,,,,,,,,,,,,,,,,,,,,,,,,,,,,,,,,,,,,,,,,,,,,,,,,,,,,,,,,,,,,,,,,,,,,,,,,,,,,,,,,,,,,,,,,,,,,,,,,,,,,,,,,,,,,,,,,,,,,,,,,,,,,,,,,,
,,614775c6f329a9e5ab190e04,2024-02-19_02h16.25.824,kallum_motion_pilot,2023.2.2,Win32,144.9275362,614775c6f329a9e5ab190e04,65d2b6c8f2eece985d8e374c,65d2b9eb4c64ef8f4bd15960,0.0668,0.067,1,96,258,42,1,twoone,,,,,,,,,,,,,,,,,,,,,,,,,,,,,,,,,,,,,,,,,,,,,,,,,,,,,,,,,,,,,,,,,,,,,,,,,,,,,,,,,,,,,,,,,,,,,,,,,,,,,,,,,,,,,,,,,,,,,,,,,,,,,,,,,,,,,,,,,
,,614775c6f329a9e5ab190e04,2024-02-19_02h16.25.824,kallum_motion_pilot,2023.2.2,Win32,144.9275362,614775c6f329a9e5ab190e04,65d2b6c8f2eece985d8e374c,65d2b9eb4c64ef8f4bd15960,0.0671,0.0673,1,97,259,39,1,fourthree,,,,,,,,,,,,,,,,,,,,,,,,,,,,,,,,,,,,,,,,,,,,,,,,,,,,,,,,,,,,,,,,,,,,,,,,,,,,,,,,,,,,,,,,,,,,,,,,,,,,,,,,,,,,,,,,,,,,,,,,,,,,,,,,,,,,,,,,,
,,614775c6f329a9e5ab190e04,2024-02-19_02h16.25.824,kallum_motion_pilot,2023.2.2,Win32,144.9275362,614775c6f329a9e5ab190e04,65d2b6c8f2eece985d8e374c,65d2b9eb4c64ef8f4bd15960,0.0674,0.0674,1,98,260,65,1,onethree,,,,,,,,,,,,,,,,,,,,,,,,,,,,,,,,,,,,,,,,,,,,,,,,,,,,,,,,,,,,,,,,,,,,,,,,,,,,,,,,,,,,,,,,,,,,,,,,,,,,,,,,,,,,,,,,,,,,,,,,,,,,,,,,,,,,,,,,,
,,614775c6f329a9e5ab190e04,2024-02-19_02h16.25.824,kallum_motion_pilot,2023.2.2,Win32,144.9275362,614775c6f329a9e5ab190e04,65d2b6c8f2eece985d8e374c,65d2b9eb4c64ef8f4bd15960,0.0675,0.0677,1,99,261,64,1,onetwo,,,,,,,,,,,,,,,,,,,,,,,,,,,,,,,,,,,,,,,,,,,,,,,,,,,,,,,,,,,,,,,,,,,,,,,,,,,,,,,,,,,,,,,,,,,,,,,,,,,,,,,,,,,,,,,,,,,,,,,,,,,,,,,,,,,,,,,,,
,,614775c6f329a9e5ab190e04,2024-02-19_02h16.25.824,kallum_motion_pilot,2023.2.2,Win32,144.9275362,614775c6f329a9e5ab190e04,65d2b6c8f2eece985d8e374c,65d2b9eb4c64ef8f4bd15960,0.0677,0.0678,1,100,262,58,1,twoone,,,,,,,,,,,,,,,,,,,,,,,,,,,,,,,,,,,,,,,,,,,,,,,,,,,,,,,,,,,,,,,,,,,,,,,,,,,,,,,,,,,,,,,,,,,,,,,,,,,,,,,,,,,,,,,,,,,,,,,,,,,,,,,,,,,,,,,,,
,,614775c6f329a9e5ab190e04,2024-02-19_02h16.25.824,kallum_motion_pilot,2023.2.2,Win32,144.9275362,614775c6f329a9e5ab190e04,65d2b6c8f2eece985d8e374c,65d2b9eb4c64ef8f4bd15960,0.0679,0.068,1,101,263,136,1,fivesix,,,,,,,,,,,,,,,,,,,,,,,,,,,,,,,,,,,,,,,,,,,,,,,,,,,,,,,,,,,,,,,,,,,,,,,,,,,,,,,,,,,,,,,,,,,,,,,,,,,,,,,,,,,,,,,,,,,,,,,,,,,,,,,,,,,,,,,,,
,,614775c6f329a9e5ab190e04,2024-02-19_02h16.25.824,kallum_motion_pilot,2023.2.2,Win32,144.9275362,614775c6f329a9e5ab190e04,65d2b6c8f2eece985d8e374c,65d2b9eb4c64ef8f4bd15960,0.0681,0.0682,1,102,264,0,1,onetwo,,,,,,,,,,,,,,,,,,,,,,,,,,,,,,,,,,,,,,,,,,,,,,,,,,,,,,,,,,,,,,,,,,,,,,,,,,,,,,,,,,,,,,,,,,,,,,,,,,,,,,,,,,,,,,,,,,,,,,,,,,,,,,,,,,,,,,,,,
,,614775c6f329a9e5ab190e04,2024-02-19_02h16.25.824,kallum_motion_pilot,2023.2.2,Win32,144.9275362,614775c6f329a9e5ab190e04,65d2b6c8f2eece985d8e374c,65d2b9eb4c64ef8f4bd15960,0.0683,0.0685,1,103,265,22,1,fourtwo,,,,,,,,,,,,,,,,,,,,,,,,,,,,,,,,,,,,,,,,,,,,,,,,,,,,,,,,,,,,,,,,,,,,,,,,,,,,,,,,,,,,,,,,,,,,,,,,,,,,,,,,,,,,,,,,,,,,,,,,,,,,,,,,,,,,,,,,,
,,614775c6f329a9e5ab190e04,2024-02-19_02h16.25.824,kallum_motion_pilot,2023.2.2,Win32,144.9275362,614775c6f329a9e5ab190e04,65d2b6c8f2eece985d8e374c,65d2b9eb4c64ef8f4bd15960,0.0686,0.0687,1,104,266,139,1,sixeight,,,,,,,,,,,,,,,,,,,,,,,,,,,,,,,,,,,,,,,,,,,,,,,,,,,,,,,,,,,,,,,,,,,,,,,,,,,,,,,,,,,,,,,,,,,,,,,,,,,,,,,,,,,,,,,,,,,,,,,,,,,,,,,,,,,,,,,,,
,,614775c6f329a9e5ab190e04,2024-02-19_02h16.25.824,kallum_motion_pilot,2023.2.2,Win32,144.9275362,614775c6f329a9e5ab190e04,65d2b6c8f2eece985d8e374c,65d2b9eb4c64ef8f4bd15960,0.0687,0.0688,1,105,267,38,1,fourtwo,,,,,,,,,,,,,,,,,,,,,,,,,,,,,,,,,,,,,,,,,,,,,,,,,,,,,,,,,,,,,,,,,,,,,,,,,,,,,,,,,,,,,,,,,,,,,,,,,,,,,,,,,,,,,,,,,,,,,,,,,,,,,,,,,,,,,,,,,
,,614775c6f329a9e5ab190e04,2024-02-19_02h16.25.824,kallum_motion_pilot,2023.2.2,Win32,144.9275362,614775c6f329a9e5ab190e04,65d2b6c8f2eece985d8e374c,65d2b9eb4c64ef8f4bd15960,0.0689,0.069,1,106,268,121,1,fiveseven,,,,,,,,,,,,,,,,,,,,,,,,,,,,,,,,,,,,,,,,,,,,,,,,,,,,,,,,,,,,,,,,,,,,,,,,,,,,,,,,,,,,,,,,,,,,,,,,,,,,,,,,,,,,,,,,,,,,,,,,,,,,,,,,,,,,,,,,,
,,614775c6f329a9e5ab190e04,2024-02-19_02h16.25.824,kallum_motion_pilot,2023.2.2,Win32,144.9275362,614775c6f329a9e5ab190e04,65d2b6c8f2eece985d8e374c,65d2b9eb4c64ef8f4bd15960,0.0691,0.0691,1,107,269,1,1,onethree,,,,,,,,,,,,,,,,,,,,,,,,,,,,,,,,,,,,,,,,,,,,,,,,,,,,,,,,,,,,,,,,,,,,,,,,,,,,,,,,,,,,,,,,,,,,,,,,,,,,,,,,,,,,,,,,,,,,,,,,,,,,,,,,,,,,,,,,,
,,614775c6f329a9e5ab190e04,2024-02-19_02h16.25.824,kallum_motion_pilot,2023.2.2,Win32,144.9275362,614775c6f329a9e5ab190e04,65d2b6c8f2eece985d8e374c,65d2b9eb4c64ef8f4bd15960,0.0692,0.0693,1,108,270,150,1,eightsix,,,,,,,,,,,,,,,,,,,,,,,,,,,,,,,,,,,,,,,,,,,,,,,,,,,,,,,,,,,,,,,,,,,,,,,,,,,,,,,,,,,,,,,,,,,,,,,,,,,,,,,,,,,,,,,,,,,,,,,,,,,,,,,,,,,,,,,,,
,,614775c6f329a9e5ab190e04,2024-02-19_02h16.25.824,kallum_motion_pilot,2023.2.2,Win32,144.9275362,614775c6f329a9e5ab190e04,65d2b6c8f2eece985d8e374c,65d2b9eb4c64ef8f4bd15960,0.0693,0.0694,1,109,271,40,1,onetwo,,,,,,,,,,,,,,,,,,,,,,,,,,,,,,,,,,,,,,,,,,,,,,,,,,,,,,,,,,,,,,,,,,,,,,,,,,,,,,,,,,,,,,,,,,,,,,,,,,,,,,,,,,,,,,,,,,,,,,,,,,,,,,,,,,,,,,,,,
,,614775c6f329a9e5ab190e04,2024-02-19_02h16.25.824,kallum_motion_pilot,2023.2.2,Win32,144.9275362,614775c6f329a9e5ab190e04,65d2b6c8f2eece985d8e374c,65d2b9eb4c64ef8f4bd15960,0.0695,0.0696,1,110,272,90,1,sixfive,,,,,,,,,,,,,,,,,,,,,,,,,,,,,,,,,,,,,,,,,,,,,,,,,,,,,,,,,,,,,,,,,,,,,,,,,,,,,,,,,,,,,,,,,,,,,,,,,,,,,,,,,,,,,,,,,,,,,,,,,,,,,,,,,,,,,,,,,
,,614775c6f329a9e5ab190e04,2024-02-19_02h16.25.824,kallum_motion_pilot,2023.2.2,Win32,144.9275362,614775c6f329a9e5ab190e04,65d2b6c8f2eece985d8e374c,65d2b9eb4c64ef8f4bd15960,0.0696,0.0697,1,111,273,41,1,onethree,,,,,,,,,,,,,,,,,,,,,,,,,,,,,,,,,,,,,,,,,,,,,,,,,,,,,,,,,,,,,,,,,,,,,,,,,,,,,,,,,,,,,,,,,,,,,,,,,,,,,,,,,,,,,,,,,,,,,,,,,,,,,,,,,,,,,,,,,
,,614775c6f329a9e5ab190e04,2024-02-19_02h16.25.824,kallum_motion_pilot,2023.2.2,Win32,144.9275362,614775c6f329a9e5ab190e04,65d2b6c8f2eece985d8e374c,65d2b9eb4c64ef8f4bd15960,0.0697,0.0699,1,112,274,9,1,onethree,,,,,,,,,,,,,,,,,,,,,,,,,,,,,,,,,,,,,,,,,,,,,,,,,,,,,,,,,,,,,,,,,,,,,,,,,,,,,,,,,,,,,,,,,,,,,,,,,,,,,,,,,,,,,,,,,,,,,,,,,,,,,,,,,,,,,,,,,
,,614775c6f329a9e5ab190e04,2024-02-19_02h16.25.824,kallum_motion_pilot,2023.2.2,Win32,144.9275362,614775c6f329a9e5ab190e04,65d2b6c8f2eece985d8e374c,65d2b9eb4c64ef8f4bd15960,0.0699,0.0701,1,113,275,97,1,fiveseven,,,,,,,,,,,,,,,,,,,,,,,,,,,,,,,,,,,,,,,,,,,,,,,,,,,,,,,,,,,,,,,,,,,,,,,,,,,,,,,,,,,,,,,,,,,,,,,,,,,,,,,,,,,,,,,,,,,,,,,,,,,,,,,,,,,,,,,,,
,,614775c6f329a9e5ab190e04,2024-02-19_02h16.25.824,kallum_motion_pilot,2023.2.2,Win32,144.9275362,614775c6f329a9e5ab190e04,65d2b6c8f2eece985d8e374c,65d2b9eb4c64ef8f4bd15960,0.0704,0.0707,1,114,276,93,1,seveneight,,,,,,,,,,,,,,,,,,,,,,,,,,,,,,,,,,,,,,,,,,,,,,,,,,,,,,,,,,,,,,,,,,,,,,,,,,,,,,,,,,,,,,,,,,,,,,,,,,,,,,,,,,,,,,,,,,,,,,,,,,,,,,,,,,,,,,,,,
,,614775c6f329a9e5ab190e04,2024-02-19_02h16.25.824,kallum_motion_pilot,2023.2.2,Win32,144.9275362,614775c6f329a9e5ab190e04,65d2b6c8f2eece985d8e374c,65d2b9eb4c64ef8f4bd15960,0.0708,0.071,1,115,277,77,1,threefour,,,,,,,,,,,,,,,,,,,,,,,,,,,,,,,,,,,,,,,,,,,,,,,,,,,,,,,,,,,,,,,,,,,,,,,,,,,,,,,,,,,,,,,,,,,,,,,,,,,,,,,,,,,,,,,,,,,,,,,,,,,,,,,,,,,,,,,,,
