startup.started,startup.stopped,Prolific ID*,date,expName,psychopyVersion,OS,frameRate,participant,study_id,session,stimpositions.started,stimpositions.stopped,hardcoded_stimulus_positions.thisRepN,hardcoded_stimulus_positions.thisTrialN,hardcoded_stimulus_positions.thisN,hardcoded_stimulus_positions.thisIndex,hardcoded_stimulus_positions.ran,StimulusPos,stimorientation.started,stimorientation.stopped,prac_stimorientation_import_loop.thisRepN,prac_stimorientation_import_loop.thisTrialN,prac_stimorientation_import_loop.thisN,prac_stimorientation_import_loop.thisIndex,prac_stimorientation_import_loop.ran,Stimorientation,welcome_instr.started,welcome_instr.stopped,key_resp.keys,key_resp.rt,key_resp.duration,response_steppedout_1.started,response_steppedout_1.stopped,key_resp_20.keys,key_resp_20.rt,key_resp_20.duration,response_steppedout_2.started,response_steppedout_2.stopped,key_resp_19.keys,key_resp_19.rt,key_resp_19.duration,stim_response_instr.started,stim_response_instr.stopped,key_resp_15.keys,key_resp_15.rt,key_resp_15.duration,direction_instr_2.started,direction_instr_2.stopped,key_resp_9.keys,key_resp_9.rt,key_resp_9.duration,instr_prac.started,instr_prac.stopped,key_resp_10.keys,key_resp_10.rt,key_resp_10.duration,Stim1_display_prac.started,Stim1_display_prac.stopped,Ecc,Circle1_ori,Circle2_ori,response_prac.started,similarity,response_time,response_prac.stopped,mouse_5.x,mouse_5.y,mouse_5.leftButton,mouse_5.midButton,mouse_5.rightButton,mouse_5.clicked_name,responseprac_feedback.started,responseprac_feedback.stopped,summary2_prac.started,summary2_prac.stopped,mouse_6.x,mouse_6.y,mouse_6.leftButton,mouse_6.midButton,mouse_6.rightButton,mouse_6.clicked_name,duringprac.thisRepN,duringprac.thisTrialN,duringprac.thisN,duringprac.thisIndex,duringprac.ran,begin.started,begin.stopped,key_resp_22.keys,key_resp_22.rt,key_resp_22.duration,Stim1_display.started,Stim1_display.stopped,circle1_ori,circle2_ori,circle1_SF,circle2_SF,response.started,response.stopped,mouse.x,mouse.y,mouse.leftButton,mouse.midButton,mouse.rightButton,mouse.clicked_name,trialnumber,double_pass.thisRepN,double_pass.thisTrialN,double_pass.thisN,double_pass.thisIndex,double_pass.ran,double_pass.order,main_trial.thisRepN,main_trial.thisTrialN,main_trial.thisN,main_trial.thisIndex,main_trial.ran,main_trial.order,Trial_Counter,Catch,Frequencies,response_2.started,response_2.stopped,mouse_2.x,mouse_2.y,mouse_2.leftButton,mouse_2.midButton,mouse_2.rightButton,mouse_2.clicked_name,special_trial.started,special_trial.stopped,catch_1.started,catch_1.stopped,mouse_3.x,mouse_3.y,mouse_3.leftButton,mouse_3.midButton,mouse_3.rightButton,catchresponse,catchnumber,response_time_catch,response_sum.started,response_sum.stopped,mouse_11.x,mouse_11.y,mouse_11.leftButton,mouse_11.midButton,mouse_11.rightButton,flip_presentation_sequence_for_double_pass.started,flip_presentation_sequence_for_double_pass.stopped,goodbye.started,goodbye.stopped,key_resp_3.keys,key_resp_3.rt,key_resp_3.duration
0.004,0.0045,614729995b2ed1d007babcc7,2024-02-22_05h20.39.520,kallum_motion_pilot,2023.2.2,Win32,30.03003003,614729995b2ed1d007babcc7,65d6bb0e977760de756971f7,65d6bd618923259cf31ece59,,,,,,,,,,,,,,,,,,,,,,,,,,,,,,,,,,,,,,,,,,,,,,,,,,,,,,,,,,,,,,,,,,,,,,,,,,,,,,,,,,,,,,,,,,,,,,,,,,,,,,,,,,,,,,,,,,,,,,,,,,,,,,,,,,,,,,,,,,,,,,,,,
,,614729995b2ed1d007babcc7,2024-02-22_05h20.39.520,kallum_motion_pilot,2023.2.2,Win32,30.03003003,614729995b2ed1d007babcc7,65d6bb0e977760de756971f7,65d6bd618923259cf31ece59,0.0893,0.0899,0,0,0,115,1,sixeight,,,,,,,,,,,,,,,,,,,,,,,,,,,,,,,,,,,,,,,,,,,,,,,,,,,,,,,,,,,,,,,,,,,,,,,,,,,,,,,,,,,,,,,,,,,,,,,,,,,,,,,,,,,,,,,,,,,,,,,,,,,,,,,,,,,,,,,,,
,,614729995b2ed1d007babcc7,2024-02-22_05h20.39.520,kallum_motion_pilot,2023.2.2,Win32,30.03003003,614729995b2ed1d007babcc7,65d6bb0e977760de756971f7,65d6bd618923259cf31ece59,0.0906,0.0908,0,1,1,134,1,eightsix,,,,,,,,,,,,,,,,,,,,,,,,,,,,,,,,,,,,,,,,,,,,,,,,,,,,,,,,,,,,,,,,,,,,,,,,,,,,,,,,,,,,,,,,,,,,,,,,,,,,,,,,,,,,,,,,,,,,,,,,,,,,,,,,,,,,,,,,,
,,614729995b2ed1d007babcc7,2024-02-22_05h20.39.520,kallum_motion_pilot,2023.2.2,Win32,30.03003003,614729995b2ed1d007babcc7,65d6bb0e977760de756971f7,65d6bd618923259cf31ece59,0.0915,0.0916,0,2,2,124,1,sevenfive,,,,,,,,,,,,,,,,,,,,,,,,,,,,,,,,,,,,,,,,,,,,,,,,,,,,,,,,,,,,,,,,,,,,,,,,,,,,,,,,,,,,,,,,,,,,,,,,,,,,,,,,,,,,,,,,,,,,,,,,,,,,,,,,,,,,,,,,,
,,614729995b2ed1d007babcc7,2024-02-22_05h20.39.520,kallum_motion_pilot,2023.2.2,Win32,30.03003003,614729995b2ed1d007babcc7,65d6bb0e977760de756971f7,65d6bd618923259cf31ece59,0.0924,0.0925,0,3,3,129,1,fiveseven,,,,,,,,,,,,,,,,,,,,,,,,,,,,,,,,,,,,,,,,,,,,,,,,,,,,,,,,,,,,,,,,,,,,,,,,,,,,,,,,,,,,,,,,,,,,,,,,,,,,,,,,,,,,,,,,,,,,,,,,,,,,,,,,,,,,,,,,,
,,614729995b2ed1d007babcc7,2024-02-22_05h20.39.520,kallum_motion_pilot,2023.2.2,Win32,30.03003003,614729995b2ed1d007babcc7,65d6bb0e977760de756971f7,65d6bd618923259cf31ece59,0.0931,0.0932,0,4,4,148,1,sevenfive,,,,,,,,,,,,,,,,,,,,,,,,,,,,,,,,,,,,,,,,,,,,,,,,,,,,,,,,,,,,,,,,,,,,,,,,,,,,,,,,,,,,,,,,,,,,,,,,,,,,,,,,,,,,,,,,,,,,,,,,,,,,,,,,,,,,,,,,,
,,614729995b2ed1d007babcc7,2024-02-22_05h20.39.520,kallum_motion_pilot,2023.2.2,Win32,30.03003003,614729995b2ed1d007babcc7,65d6bb0e977760de756971f7,65d6bd618923259cf31ece59,0.0937,0.0941,0,5,5,33,1,onethree,,,,,,,,,,,,,,,,,,,,,,,,,,,,,,,,,,,,,,,,,,,,,,,,,,,,,,,,,,,,,,,,,,,,,,,,,,,,,,,,,,,,,,,,,,,,,,,,,,,,,,,,,,,,,,,,,,,,,,,,,,,,,,,,,,,,,,,,,
,,614729995b2ed1d007babcc7,2024-02-22_05h20.39.520,kallum_motion_pilot,2023.2.2,Win32,30.03003003,614729995b2ed1d007babcc7,65d6bb0e977760de756971f7,65d6bd618923259cf31ece59,0.0947,0.0948,0,6,6,123,1,sixeight,,,,,,,,,,,,,,,,,,,,,,,,,,,,,,,,,,,,,,,,,,,,,,,,,,,,,,,,,,,,,,,,,,,,,,,,,,,,,,,,,,,,,,,,,,,,,,,,,,,,,,,,,,,,,,,,,,,,,,,,,,,,,,,,,,,,,,,,,
,,614729995b2ed1d007babcc7,2024-02-22_05h20.39.520,kallum_motion_pilot,2023.2.2,Win32,30.03003003,614729995b2ed1d007babcc7,65d6bb0e977760de756971f7,65d6bd618923259cf31ece59,0.0954,0.0956,0,7,7,15,1,fourthree,,,,,,,,,,,,,,,,,,,,,,,,,,,,,,,,,,,,,,,,,,,,,,,,,,,,,,,,,,,,,,,,,,,,,,,,,,,,,,,,,,,,,,,,,,,,,,,,,,,,,,,,,,,,,,,,,,,,,,,,,,,,,,,,,,,,,,,,,
,,614729995b2ed1d007babcc7,2024-02-22_05h20.39.520,kallum_motion_pilot,2023.2.2,Win32,30.03003003,614729995b2ed1d007babcc7,65d6bb0e977760de756971f7,65d6bd618923259cf31ece59,0.0962,0.0964,0,8,8,11,1,twofour,,,,,,,,,,,,,,,,,,,,,,,,,,,,,,,,,,,,,,,,,,,,,,,,,,,,,,,,,,,,,,,,,,,,,,,,,,,,,,,,,,,,,,,,,,,,,,,,,,,,,,,,,,,,,,,,,,,,,,,,,,,,,,,,,,,,,,,,,
,,614729995b2ed1d007babcc7,2024-02-22_05h20.39.520,kallum_motion_pilot,2023.2.2,Win32,30.03003003,614729995b2ed1d007babcc7,65d6bb0e977760de756971f7,65d6bd618923259cf31ece59,0.0976,0.0978,0,9,9,136,1,fivesix,,,,,,,,,,,,,,,,,,,,,,,,,,,,,,,,,,,,,,,,,,,,,,,,,,,,,,,,,,,,,,,,,,,,,,,,,,,,,,,,,,,,,,,,,,,,,,,,,,,,,,,,,,,,,,,,,,,,,,,,,,,,,,,,,,,,,,,,,
,,614729995b2ed1d007babcc7,2024-02-22_05h20.39.520,kallum_motion_pilot,2023.2.2,Win32,30.03003003,614729995b2ed1d007babcc7,65d6bb0e977760de756971f7,65d6bd618923259cf31ece59,0.0983,0.0983,0,10,10,150,1,eightsix,,,,,,,,,,,,,,,,,,,,,,,,,,,,,,,,,,,,,,,,,,,,,,,,,,,,,,,,,,,,,,,,,,,,,,,,,,,,,,,,,,,,,,,,,,,,,,,,,,,,,,,,,,,,,,,,,,,,,,,,,,,,,,,,,,,,,,,,,
,,614729995b2ed1d007babcc7,2024-02-22_05h20.39.520,kallum_motion_pilot,2023.2.2,Win32,30.03003003,614729995b2ed1d007babcc7,65d6bb0e977760de756971f7,65d6bd618923259cf31ece59,0.0988,0.0988,0,11,11,9,1,onethree,,,,,,,,,,,,,,,,,,,,,,,,,,,,,,,,,,,,,,,,,,,,,,,,,,,,,,,,,,,,,,,,,,,,,,,,,,,,,,,,,,,,,,,,,,,,,,,,,,,,,,,,,,,,,,,,,,,,,,,,,,,,,,,,,,,,,,,,,
,,614729995b2ed1d007babcc7,2024-02-22_05h20.39.520,kallum_motion_pilot,2023.2.2,Win32,30.03003003,614729995b2ed1d007babcc7,65d6bb0e977760de756971f7,65d6bd618923259cf31ece59,0.0992,0.0994,0,12,12,142,1,eightsix,,,,,,,,,,,,,,,,,,,,,,,,,,,,,,,,,,,,,,,,,,,,,,,,,,,,,,,,,,,,,,,,,,,,,,,,,,,,,,,,,,,,,,,,,,,,,,,,,,,,,,,,,,,,,,,,,,,,,,,,,,,,,,,,,,,,,,,,,
,,614729995b2ed1d007babcc7,2024-02-22_05h20.39.520,kallum_motion_pilot,2023.2.2,Win32,30.03003003,614729995b2ed1d007babcc7,65d6bb0e977760de756971f7,65d6bd618923259cf31ece59,0.0997,0.0999,0,13,13,42,1,twoone,,,,,,,,,,,,,,,,,,,,,,,,,,,,,,,,,,,,,,,,,,,,,,,,,,,,,,,,,,,,,,,,,,,,,,,,,,,,,,,,,,,,,,,,,,,,,,,,,,,,,,,,,,,,,,,,,,,,,,,,,,,,,,,,,,,,,,,,,
,,614729995b2ed1d007babcc7,2024-02-22_05h20.39.520,kallum_motion_pilot,2023.2.2,Win32,30.03003003,614729995b2ed1d007babcc7,65d6bb0e977760de756971f7,65d6bd618923259cf31ece59,0.1005,0.1005,0,14,14,48,1,onetwo,,,,,,,,,,,,,,,,,,,,,,,,,,,,,,,,,,,,,,,,,,,,,,,,,,,,,,,,,,,,,,,,,,,,,,,,,,,,,,,,,,,,,,,,,,,,,,,,,,,,,,,,,,,,,,,,,,,,,,,,,,,,,,,,,,,,,,,,,
,,614729995b2ed1d007babcc7,2024-02-22_05h20.39.520,kallum_motion_pilot,2023.2.2,Win32,30.03003003,614729995b2ed1d007babcc7,65d6bb0e977760de756971f7,65d6bd618923259cf31ece59,0.1009,0.101,0,15,15,72,1,onetwo,,,,,,,,,,,,,,,,,,,,,,,,,,,,,,,,,,,,,,,,,,,,,,,,,,,,,,,,,,,,,,,,,,,,,,,,,,,,,,,,,,,,,,,,,,,,,,,,,,,,,,,,,,,,,,,,,,,,,,,,,,,,,,,,,,,,,,,,,
,,614729995b2ed1d007babcc7,2024-02-22_05h20.39.520,kallum_motion_pilot,2023.2.2,Win32,30.03003003,614729995b2ed1d007babcc7,65d6bb0e977760de756971f7,65d6bd618923259cf31ece59,0.1014,0.1016,0,16,16,141,1,seveneight,,,,,,,,,,,,,,,,,,,,,,,,,,,,,,,,,,,,,,,,,,,,,,,,,,,,,,,,,,,,,,,,,,,,,,,,,,,,,,,,,,,,,,,,,,,,,,,,,,,,,,,,,,,,,,,,,,,,,,,,,,,,,,,,,,,,,,,,,
,,614729995b2ed1d007babcc7,2024-02-22_05h20.39.520,kallum_motion_pilot,2023.2.2,Win32,30.03003003,614729995b2ed1d007babcc7,65d6bb0e977760de756971f7,65d6bd618923259cf31ece59,0.1048,0.105,0,17,17,1,1,onethree,,,,,,,,,,,,,,,,,,,,,,,,,,,,,,,,,,,,,,,,,,,,,,,,,,,,,,,,,,,,,,,,,,,,,,,,,,,,,,,,,,,,,,,,,,,,,,,,,,,,,,,,,,,,,,,,,,,,,,,,,,,,,,,,,,,,,,,,,
,,614729995b2ed1d007babcc7,2024-02-22_05h20.39.520,kallum_motion_pilot,2023.2.2,Win32,30.03003003,614729995b2ed1d007babcc7,65d6bb0e977760de756971f7,65d6bd618923259cf31ece59,0.1055,0.1057,0,18,18,122,1,sixfive,,,,,,,,,,,,,,,,,,,,,,,,,,,,,,,,,,,,,,,,,,,,,,,,,,,,,,,,,,,,,,,,,,,,,,,,,,,,,,,,,,,,,,,,,,,,,,,,,,,,,,,,,,,,,,,,,,,,,,,,,,,,,,,,,,,,,,,,,
,,614729995b2ed1d007babcc7,2024-02-22_05h20.39.520,kallum_motion_pilot,2023.2.2,Win32,30.03003003,614729995b2ed1d007babcc7,65d6bb0e977760de756971f7,65d6bd618923259cf31ece59,0.106,0.1061,0,19,19,55,1,fourthree,,,,,,,,,,,,,,,,,,,,,,,,,,,,,,,,,,,,,,,,,,,,,,,,,,,,,,,,,,,,,,,,,,,,,,,,,,,,,,,,,,,,,,,,,,,,,,,,,,,,,,,,,,,,,,,,,,,,,,,,,,,,,,,,,,,,,,,,,
,,614729995b2ed1d007babcc7,2024-02-22_05h20.39.520,kallum_motion_pilot,2023.2.2,Win32,30.03003003,614729995b2ed1d007babcc7,65d6bb0e977760de756971f7,65d6bd618923259cf31ece59,0.1065,0.1065,0,20,20,116,1,sevenfive,,,,,,,,,,,,,,,,,,,,,,,,,,,,,,,,,,,,,,,,,,,,,,,,,,,,,,,,,,,,,,,,,,,,,,,,,,,,,,,,,,,,,,,,,,,,,,,,,,,,,,,,,,,,,,,,,,,,,,,,,,,,,,,,,,,,,,,,,
,,614729995b2ed1d007babcc7,2024-02-22_05h20.39.520,kallum_motion_pilot,2023.2.2,Win32,30.03003003,614729995b2ed1d007babcc7,65d6bb0e977760de756971f7,65d6bd618923259cf31ece59,0.1069,0.107,0,21,21,64,1,onetwo,,,,,,,,,,,,,,,,,,,,,,,,,,,,,,,,,,,,,,,,,,,,,,,,,,,,,,,,,,,,,,,,,,,,,,,,,,,,,,,,,,,,,,,,,,,,,,,,,,,,,,,,,,,,,,,,,,,,,,,,,,,,,,,,,,,,,,,,,
,,614729995b2ed1d007babcc7,2024-02-22_05h20.39.520,kallum_motion_pilot,2023.2.2,Win32,30.03003003,614729995b2ed1d007babcc7,65d6bb0e977760de756971f7,65d6bd618923259cf31ece59,0.1074,0.1076,0,22,22,0,1,onetwo,,,,,,,,,,,,,,,,,,,,,,,,,,,,,,,,,,,,,,,,,,,,,,,,,,,,,,,,,,,,,,,,,,,,,,,,,,,,,,,,,,,,,,,,,,,,,,,,,,,,,,,,,,,,,,,,,,,,,,,,,,,,,,,,,,,,,,,,,
,,614729995b2ed1d007babcc7,2024-02-22_05h20.39.520,kallum_motion_pilot,2023.2.2,Win32,30.03003003,614729995b2ed1d007babcc7,65d6bb0e977760de756971f7,65d6bd618923259cf31ece59,0.1081,0.1082,0,23,23,13,1,threefour,,,,,,,,,,,,,,,,,,,,,,,,,,,,,,,,,,,,,,,,,,,,,,,,,,,,,,,,,,,,,,,,,,,,,,,,,,,,,,,,,,,,,,,,,,,,,,,,,,,,,,,,,,,,,,,,,,,,,,,,,,,,,,,,,,,,,,,,,
,,614729995b2ed1d007babcc7,2024-02-22_05h20.39.520,kallum_motion_pilot,2023.2.2,Win32,30.03003003,614729995b2ed1d007babcc7,65d6bb0e977760de756971f7,65d6bd618923259cf31ece59,0.109,0.1092,0,24,24,146,1,sixfive,,,,,,,,,,,,,,,,,,,,,,,,,,,,,,,,,,,,,,,,,,,,,,,,,,,,,,,,,,,,,,,,,,,,,,,,,,,,,,,,,,,,,,,,,,,,,,,,,,,,,,,,,,,,,,,,,,,,,,,,,,,,,,,,,,,,,,,,,
,,614729995b2ed1d007babcc7,2024-02-22_05h20.39.520,kallum_motion_pilot,2023.2.2,Win32,30.03003003,614729995b2ed1d007babcc7,65d6bb0e977760de756971f7,65d6bd618923259cf31ece59,0.1096,0.1098,0,25,25,34,1,twoone,,,,,,,,,,,,,,,,,,,,,,,,,,,,,,,,,,,,,,,,,,,,,,,,,,,,,,,,,,,,,,,,,,,,,,,,,,,,,,,,,,,,,,,,,,,,,,,,,,,,,,,,,,,,,,,,,,,,,,,,,,,,,,,,,,,,,,,,,
,,614729995b2ed1d007babcc7,2024-02-22_05h20.39.520,kallum_motion_pilot,2023.2.2,Win32,30.03003003,614729995b2ed1d007babcc7,65d6bb0e977760de756971f7,65d6bd618923259cf31ece59,0.1102,0.1102,0,26,26,102,1,eightsix,,,,,,,,,,,,,,,,,,,,,,,,,,,,,,,,,,,,,,,,,,,,,,,,,,,,,,,,,,,,,,,,,,,,,,,,,,,,,,,,,,,,,,,,,,,,,,,,,,,,,,,,,,,,,,,,,,,,,,,,,,,,,,,,,,,,,,,,,
,,614729995b2ed1d007babcc7,2024-02-22_05h20.39.520,kallum_motion_pilot,2023.2.2,Win32,30.03003003,614729995b2ed1d007babcc7,65d6bb0e977760de756971f7,65d6bd618923259cf31ece59,0.1113,0.1115,0,27,27,51,1,twofour,,,,,,,,,,,,,,,,,,,,,,,,,,,,,,,,,,,,,,,,,,,,,,,,,,,,,,,,,,,,,,,,,,,,,,,,,,,,,,,,,,,,,,,,,,,,,,,,,,,,,,,,,,,,,,,,,,,,,,,,,,,,,,,,,,,,,,,,,
,,614729995b2ed1d007babcc7,2024-02-22_05h20.39.520,kallum_motion_pilot,2023.2.2,Win32,30.03003003,614729995b2ed1d007babcc7,65d6bb0e977760de756971f7,65d6bd618923259cf31ece59,0.1119,0.1123,0,28,28,81,1,fiveseven,,,,,,,,,,,,,,,,,,,,,,,,,,,,,,,,,,,,,,,,,,,,,,,,,,,,,,,,,,,,,,,,,,,,,,,,,,,,,,,,,,,,,,,,,,,,,,,,,,,,,,,,,,,,,,,,,,,,,,,,,,,,,,,,,,,,,,,,,
,,614729995b2ed1d007babcc7,2024-02-22_05h20.39.520,kallum_motion_pilot,2023.2.2,Win32,30.03003003,614729995b2ed1d007babcc7,65d6bb0e977760de756971f7,65d6bd618923259cf31ece59,0.1129,0.113,0,29,29,49,1,onethree,,,,,,,,,,,,,,,,,,,,,,,,,,,,,,,,,,,,,,,,,,,,,,,,,,,,,,,,,,,,,,,,,,,,,,,,,,,,,,,,,,,,,,,,,,,,,,,,,,,,,,,,,,,,,,,,,,,,,,,,,,,,,,,,,,,,,,,,,
,,614729995b2ed1d007babcc7,2024-02-22_05h20.39.520,kallum_motion_pilot,2023.2.2,Win32,30.03003003,614729995b2ed1d007babcc7,65d6bb0e977760de756971f7,65d6bd618923259cf31ece59,0.1134,0.1136,0,30,30,79,1,eightseven,,,,,,,,,,,,,,,,,,,,,,,,,,,,,,,,,,,,,,,,,,,,,,,,,,,,,,,,,,,,,,,,,,,,,,,,,,,,,,,,,,,,,,,,,,,,,,,,,,,,,,,,,,,,,,,,,,,,,,,,,,,,,,,,,,,,,,,,,
,,614729995b2ed1d007babcc7,2024-02-22_05h20.39.520,kallum_motion_pilot,2023.2.2,Win32,30.03003003,614729995b2ed1d007babcc7,65d6bb0e977760de756971f7,65d6bd618923259cf31ece59,0.1143,0.1145,0,31,31,118,1,eightsix,,,,,,,,,,,,,,,,,,,,,,,,,,,,,,,,,,,,,,,,,,,,,,,,,,,,,,,,,,,,,,,,,,,,,,,,,,,,,,,,,,,,,,,,,,,,,,,,,,,,,,,,,,,,,,,,,,,,,,,,,,,,,,,,,,,,,,,,,
,,614729995b2ed1d007babcc7,2024-02-22_05h20.39.520,kallum_motion_pilot,2023.2.2,Win32,30.03003003,614729995b2ed1d007babcc7,65d6bb0e977760de756971f7,65d6bd618923259cf31ece59,0.115,0.1151,0,32,32,98,1,sixfive,,,,,,,,,,,,,,,,,,,,,,,,,,,,,,,,,,,,,,,,,,,,,,,,,,,,,,,,,,,,,,,,,,,,,,,,,,,,,,,,,,,,,,,,,,,,,,,,,,,,,,,,,,,,,,,,,,,,,,,,,,,,,,,,,,,,,,,,,
,,614729995b2ed1d007babcc7,2024-02-22_05h20.39.520,kallum_motion_pilot,2023.2.2,Win32,30.03003003,614729995b2ed1d007babcc7,65d6bb0e977760de756971f7,65d6bd618923259cf31ece59,0.1155,0.1157,0,33,33,75,1,twofour,,,,,,,,,,,,,,,,,,,,,,,,,,,,,,,,,,,,,,,,,,,,,,,,,,,,,,,,,,,,,,,,,,,,,,,,,,,,,,,,,,,,,,,,,,,,,,,,,,,,,,,,,,,,,,,,,,,,,,,,,,,,,,,,,,,,,,,,,
,,614729995b2ed1d007babcc7,2024-02-22_05h20.39.520,kallum_motion_pilot,2023.2.2,Win32,30.03003003,614729995b2ed1d007babcc7,65d6bb0e977760de756971f7,65d6bd618923259cf31ece59,0.1162,0.1164,0,34,34,127,1,eightseven,,,,,,,,,,,,,,,,,,,,,,,,,,,,,,,,,,,,,,,,,,,,,,,,,,,,,,,,,,,,,,,,,,,,,,,,,,,,,,,,,,,,,,,,,,,,,,,,,,,,,,,,,,,,,,,,,,,,,,,,,,,,,,,,,,,,,,,,,
,,614729995b2ed1d007babcc7,2024-02-22_05h20.39.520,kallum_motion_pilot,2023.2.2,Win32,30.03003003,614729995b2ed1d007babcc7,65d6bb0e977760de756971f7,65d6bd618923259cf31ece59,0.1169,0.117,0,35,35,144,1,fivesix,,,,,,,,,,,,,,,,,,,,,,,,,,,,,,,,,,,,,,,,,,,,,,,,,,,,,,,,,,,,,,,,,,,,,,,,,,,,,,,,,,,,,,,,,,,,,,,,,,,,,,,,,,,,,,,,,,,,,,,,,,,,,,,,,,,,,,,,,
,,614729995b2ed1d007babcc7,2024-02-22_05h20.39.520,kallum_motion_pilot,2023.2.2,Win32,30.03003003,614729995b2ed1d007babcc7,65d6bb0e977760de756971f7,65d6bd618923259cf31ece59,0.1175,0.1176,0,36,36,131,1,sixeight,,,,,,,,,,,,,,,,,,,,,,,,,,,,,,,,,,,,,,,,,,,,,,,,,,,,,,,,,,,,,,,,,,,,,,,,,,,,,,,,,,,,,,,,,,,,,,,,,,,,,,,,,,,,,,,,,,,,,,,,,,,,,,,,,,,,,,,,,
,,614729995b2ed1d007babcc7,2024-02-22_05h20.39.520,kallum_motion_pilot,2023.2.2,Win32,30.03003003,614729995b2ed1d007babcc7,65d6bb0e977760de756971f7,65d6bd618923259cf31ece59,0.1183,0.1186,0,37,37,25,1,onethree,,,,,,,,,,,,,,,,,,,,,,,,,,,,,,,,,,,,,,,,,,,,,,,,,,,,,,,,,,,,,,,,,,,,,,,,,,,,,,,,,,,,,,,,,,,,,,,,,,,,,,,,,,,,,,,,,,,,,,,,,,,,,,,,,,,,,,,,,
,,614729995b2ed1d007babcc7,2024-02-22_05h20.39.520,kallum_motion_pilot,2023.2.2,Win32,30.03003003,614729995b2ed1d007babcc7,65d6bb0e977760de756971f7,65d6bd618923259cf31ece59,0.119,0.1191,0,38,38,84,1,sevenfive,,,,,,,,,,,,,,,,,,,,,,,,,,,,,,,,,,,,,,,,,,,,,,,,,,,,,,,,,,,,,,,,,,,,,,,,,,,,,,,,,,,,,,,,,,,,,,,,,,,,,,,,,,,,,,,,,,,,,,,,,,,,,,,,,,,,,,,,,
,,614729995b2ed1d007babcc7,2024-02-22_05h20.39.520,kallum_motion_pilot,2023.2.2,Win32,30.03003003,614729995b2ed1d007babcc7,65d6bb0e977760de756971f7,65d6bd618923259cf31ece59,0.1195,0.1199,0,39,39,111,1,eightseven,,,,,,,,,,,,,,,,,,,,,,,,,,,,,,,,,,,,,,,,,,,,,,,,,,,,,,,,,,,,,,,,,,,,,,,,,,,,,,,,,,,,,,,,,,,,,,,,,,,,,,,,,,,,,,,,,,,,,,,,,,,,,,,,,,,,,,,,,
,,614729995b2ed1d007babcc7,2024-02-22_05h20.39.520,kallum_motion_pilot,2023.2.2,Win32,30.03003003,614729995b2ed1d007babcc7,65d6bb0e977760de756971f7,65d6bd618923259cf31ece59,0.1202,0.1204,0,40,40,23,1,fourthree,,,,,,,,,,,,,,,,,,,,,,,,,,,,,,,,,,,,,,,,,,,,,,,,,,,,,,,,,,,,,,,,,,,,,,,,,,,,,,,,,,,,,,,,,,,,,,,,,,,,,,,,,,,,,,,,,,,,,,,,,,,,,,,,,,,,,,,,,
,,614729995b2ed1d007babcc7,2024-02-22_05h20.39.520,kallum_motion_pilot,2023.2.2,Win32,30.03003003,614729995b2ed1d007babcc7,65d6bb0e977760de756971f7,65d6bd618923259cf31ece59,0.1208,0.1211,0,41,41,19,1,twofour,,,,,,,,,,,,,,,,,,,,,,,,,,,,,,,,,,,,,,,,,,,,,,,,,,,,,,,,,,,,,,,,,,,,,,,,,,,,,,,,,,,,,,,,,,,,,,,,,,,,,,,,,,,,,,,,,,,,,,,,,,,,,,,,,,,,,,,,,
,,614729995b2ed1d007babcc7,2024-02-22_05h20.39.520,kallum_motion_pilot,2023.2.2,Win32,30.03003003,614729995b2ed1d007babcc7,65d6bb0e977760de756971f7,65d6bd618923259cf31ece59,0.1214,0.1215,0,42,42,147,1,sixeight,,,,,,,,,,,,,,,,,,,,,,,,,,,,,,,,,,,,,,,,,,,,,,,,,,,,,,,,,,,,,,,,,,,,,,,,,,,,,,,,,,,,,,,,,,,,,,,,,,,,,,,,,,,,,,,,,,,,,,,,,,,,,,,,,,,,,,,,,
,,614729995b2ed1d007babcc7,2024-02-22_05h20.39.520,kallum_motion_pilot,2023.2.2,Win32,30.03003003,614729995b2ed1d007babcc7,65d6bb0e977760de756971f7,65d6bd618923259cf31ece59,0.1221,0.1222,0,43,43,133,1,seveneight,,,,,,,,,,,,,,,,,,,,,,,,,,,,,,,,,,,,,,,,,,,,,,,,,,,,,,,,,,,,,,,,,,,,,,,,,,,,,,,,,,,,,,,,,,,,,,,,,,,,,,,,,,,,,,,,,,,,,,,,,,,,,,,,,,,,,,,,,
,,614729995b2ed1d007babcc7,2024-02-22_05h20.39.520,kallum_motion_pilot,2023.2.2,Win32,30.03003003,614729995b2ed1d007babcc7,65d6bb0e977760de756971f7,65d6bd618923259cf31ece59,0.1226,0.1227,0,44,44,54,1,fourtwo,,,,,,,,,,,,,,,,,,,,,,,,,,,,,,,,,,,,,,,,,,,,,,,,,,,,,,,,,,,,,,,,,,,,,,,,,,,,,,,,,,,,,,,,,,,,,,,,,,,,,,,,,,,,,,,,,,,,,,,,,,,,,,,,,,,,,,,,,
,,614729995b2ed1d007babcc7,2024-02-22_05h20.39.520,kallum_motion_pilot,2023.2.2,Win32,30.03003003,614729995b2ed1d007babcc7,65d6bb0e977760de756971f7,65d6bd618923259cf31ece59,0.1231,0.1232,0,45,45,61,1,threefour,,,,,,,,,,,,,,,,,,,,,,,,,,,,,,,,,,,,,,,,,,,,,,,,,,,,,,,,,,,,,,,,,,,,,,,,,,,,,,,,,,,,,,,,,,,,,,,,,,,,,,,,,,,,,,,,,,,,,,,,,,,,,,,,,,,,,,,,,
,,614729995b2ed1d007babcc7,2024-02-22_05h20.39.520,kallum_motion_pilot,2023.2.2,Win32,30.03003003,614729995b2ed1d007babcc7,65d6bb0e977760de756971f7,65d6bd618923259cf31ece59,0.1236,0.1237,0,46,46,20,1,threeone,,,,,,,,,,,,,,,,,,,,,,,,,,,,,,,,,,,,,,,,,,,,,,,,,,,,,,,,,,,,,,,,,,,,,,,,,,,,,,,,,,,,,,,,,,,,,,,,,,,,,,,,,,,,,,,,,,,,,,,,,,,,,,,,,,,,,,,,,
,,614729995b2ed1d007babcc7,2024-02-22_05h20.39.520,kallum_motion_pilot,2023.2.2,Win32,30.03003003,614729995b2ed1d007babcc7,65d6bb0e977760de756971f7,65d6bd618923259cf31ece59,0.124,0.1242,0,47,47,97,1,fiveseven,,,,,,,,,,,,,,,,,,,,,,,,,,,,,,,,,,,,,,,,,,,,,,,,,,,,,,,,,,,,,,,,,,,,,,,,,,,,,,,,,,,,,,,,,,,,,,,,,,,,,,,,,,,,,,,,,,,,,,,,,,,,,,,,,,,,,,,,,
,,614729995b2ed1d007babcc7,2024-02-22_05h20.39.520,kallum_motion_pilot,2023.2.2,Win32,30.03003003,614729995b2ed1d007babcc7,65d6bb0e977760de756971f7,65d6bd618923259cf31ece59,0.1245,0.1248,0,48,48,126,1,eightsix,,,,,,,,,,,,,,,,,,,,,,,,,,,,,,,,,,,,,,,,,,,,,,,,,,,,,,,,,,,,,,,,,,,,,,,,,,,,,,,,,,,,,,,,,,,,,,,,,,,,,,,,,,,,,,,,,,,,,,,,,,,,,,,,,,,,,,,,,
,,614729995b2ed1d007babcc7,2024-02-22_05h20.39.520,kallum_motion_pilot,2023.2.2,Win32,30.03003003,614729995b2ed1d007babcc7,65d6bb0e977760de756971f7,65d6bd618923259cf31ece59,0.1252,0.1254,0,49,49,80,1,fivesix,,,,,,,,,,,,,,,,,,,,,,,,,,,,,,,,,,,,,,,,,,,,,,,,,,,,,,,,,,,,,,,,,,,,,,,,,,,,,,,,,,,,,,,,,,,,,,,,,,,,,,,,,,,,,,,,,,,,,,,,,,,,,,,,,,,,,,,,,
,,614729995b2ed1d007babcc7,2024-02-22_05h20.39.520,kallum_motion_pilot,2023.2.2,Win32,30.03003003,614729995b2ed1d007babcc7,65d6bb0e977760de756971f7,65d6bd618923259cf31ece59,0.1261,0.1263,0,50,50,120,1,fivesix,,,,,,,,,,,,,,,,,,,,,,,,,,,,,,,,,,,,,,,,,,,,,,,,,,,,,,,,,,,,,,,,,,,,,,,,,,,,,,,,,,,,,,,,,,,,,,,,,,,,,,,,,,,,,,,,,,,,,,,,,,,,,,,,,,,,,,,,,
,,614729995b2ed1d007babcc7,2024-02-22_05h20.39.520,kallum_motion_pilot,2023.2.2,Win32,30.03003003,614729995b2ed1d007babcc7,65d6bb0e977760de756971f7,65d6bd618923259cf31ece59,0.1268,0.1269,0,51,51,70,1,fourtwo,,,,,,,,,,,,,,,,,,,,,,,,,,,,,,,,,,,,,,,,,,,,,,,,,,,,,,,,,,,,,,,,,,,,,,,,,,,,,,,,,,,,,,,,,,,,,,,,,,,,,,,,,,,,,,,,,,,,,,,,,,,,,,,,,,,,,,,,,
,,614729995b2ed1d007babcc7,2024-02-22_05h20.39.520,kallum_motion_pilot,2023.2.2,Win32,30.03003003,614729995b2ed1d007babcc7,65d6bb0e977760de756971f7,65d6bd618923259cf31ece59,0.1278,0.128,0,52,52,43,1,twofour,,,,,,,,,,,,,,,,,,,,,,,,,,,,,,,,,,,,,,,,,,,,,,,,,,,,,,,,,,,,,,,,,,,,,,,,,,,,,,,,,,,,,,,,,,,,,,,,,,,,,,,,,,,,,,,,,,,,,,,,,,,,,,,,,,,,,,,,,
,,614729995b2ed1d007babcc7,2024-02-22_05h20.39.520,kallum_motion_pilot,2023.2.2,Win32,30.03003003,614729995b2ed1d007babcc7,65d6bb0e977760de756971f7,65d6bd618923259cf31ece59,0.1285,0.1287,0,53,53,22,1,fourtwo,,,,,,,,,,,,,,,,,,,,,,,,,,,,,,,,,,,,,,,,,,,,,,,,,,,,,,,,,,,,,,,,,,,,,,,,,,,,,,,,,,,,,,,,,,,,,,,,,,,,,,,,,,,,,,,,,,,,,,,,,,,,,,,,,,,,,,,,,
,,614729995b2ed1d007babcc7,2024-02-22_05h20.39.520,kallum_motion_pilot,2023.2.2,Win32,30.03003003,614729995b2ed1d007babcc7,65d6bb0e977760de756971f7,65d6bd618923259cf31ece59,0.1292,0.1295,0,54,54,135,1,eightseven,,,,,,,,,,,,,,,,,,,,,,,,,,,,,,,,,,,,,,,,,,,,,,,,,,,,,,,,,,,,,,,,,,,,,,,,,,,,,,,,,,,,,,,,,,,,,,,,,,,,,,,,,,,,,,,,,,,,,,,,,,,,,,,,,,,,,,,,,
,,614729995b2ed1d007babcc7,2024-02-22_05h20.39.520,kallum_motion_pilot,2023.2.2,Win32,30.03003003,614729995b2ed1d007babcc7,65d6bb0e977760de756971f7,65d6bd618923259cf31ece59,0.1298,0.1301,0,55,55,41,1,onethree,,,,,,,,,,,,,,,,,,,,,,,,,,,,,,,,,,,,,,,,,,,,,,,,,,,,,,,,,,,,,,,,,,,,,,,,,,,,,,,,,,,,,,,,,,,,,,,,,,,,,,,,,,,,,,,,,,,,,,,,,,,,,,,,,,,,,,,,,
,,614729995b2ed1d007babcc7,2024-02-22_05h20.39.520,kallum_motion_pilot,2023.2.2,Win32,30.03003003,614729995b2ed1d007babcc7,65d6bb0e977760de756971f7,65d6bd618923259cf31ece59,0.1307,0.1308,0,56,56,82,1,sixfive,,,,,,,,,,,,,,,,,,,,,,,,,,,,,,,,,,,,,,,,,,,,,,,,,,,,,,,,,,,,,,,,,,,,,,,,,,,,,,,,,,,,,,,,,,,,,,,,,,,,,,,,,,,,,,,,,,,,,,,,,,,,,,,,,,,,,,,,,
,,614729995b2ed1d007babcc7,2024-02-22_05h20.39.520,kallum_motion_pilot,2023.2.2,Win32,30.03003003,614729995b2ed1d007babcc7,65d6bb0e977760de756971f7,65d6bd618923259cf31ece59,0.1312,0.1313,0,57,57,113,1,fiveseven,,,,,,,,,,,,,,,,,,,,,,,,,,,,,,,,,,,,,,,,,,,,,,,,,,,,,,,,,,,,,,,,,,,,,,,,,,,,,,,,,,,,,,,,,,,,,,,,,,,,,,,,,,,,,,,,,,,,,,,,,,,,,,,,,,,,,,,,,
,,614729995b2ed1d007babcc7,2024-02-22_05h20.39.520,kallum_motion_pilot,2023.2.2,Win32,30.03003003,614729995b2ed1d007babcc7,65d6bb0e977760de756971f7,65d6bd618923259cf31ece59,0.1317,0.1319,0,58,58,100,1,sevenfive,,,,,,,,,,,,,,,,,,,,,,,,,,,,,,,,,,,,,,,,,,,,,,,,,,,,,,,,,,,,,,,,,,,,,,,,,,,,,,,,,,,,,,,,,,,,,,,,,,,,,,,,,,,,,,,,,,,,,,,,,,,,,,,,,,,,,,,,,
,,614729995b2ed1d007babcc7,2024-02-22_05h20.39.520,kallum_motion_pilot,2023.2.2,Win32,30.03003003,614729995b2ed1d007babcc7,65d6bb0e977760de756971f7,65d6bd618923259cf31ece59,0.1324,0.1325,0,59,59,145,1,fiveseven,,,,,,,,,,,,,,,,,,,,,,,,,,,,,,,,,,,,,,,,,,,,,,,,,,,,,,,,,,,,,,,,,,,,,,,,,,,,,,,,,,,,,,,,,,,,,,,,,,,,,,,,,,,,,,,,,,,,,,,,,,,,,,,,,,,,,,,,,
,,614729995b2ed1d007babcc7,2024-02-22_05h20.39.520,kallum_motion_pilot,2023.2.2,Win32,30.03003003,614729995b2ed1d007babcc7,65d6bb0e977760de756971f7,65d6bd618923259cf31ece59,0.1328,0.1331,0,60,60,69,1,threefour,,,,,,,,,,,,,,,,,,,,,,,,,,,,,,,,,,,,,,,,,,,,,,,,,,,,,,,,,,,,,,,,,,,,,,,,,,,,,,,,,,,,,,,,,,,,,,,,,,,,,,,,,,,,,,,,,,,,,,,,,,,,,,,,,,,,,,,,,
,,614729995b2ed1d007babcc7,2024-02-22_05h20.39.520,kallum_motion_pilot,2023.2.2,Win32,30.03003003,614729995b2ed1d007babcc7,65d6bb0e977760de756971f7,65d6bd618923259cf31ece59,0.1342,0.1345,0,61,61,139,1,sixeight,,,,,,,,,,,,,,,,,,,,,,,,,,,,,,,,,,,,,,,,,,,,,,,,,,,,,,,,,,,,,,,,,,,,,,,,,,,,,,,,,,,,,,,,,,,,,,,,,,,,,,,,,,,,,,,,,,,,,,,,,,,,,,,,,,,,,,,,,
,,614729995b2ed1d007babcc7,2024-02-22_05h20.39.520,kallum_motion_pilot,2023.2.2,Win32,30.03003003,614729995b2ed1d007babcc7,65d6bb0e977760de756971f7,65d6bd618923259cf31ece59,0.1351,0.1352,0,62,62,73,1,onethree,,,,,,,,,,,,,,,,,,,,,,,,,,,,,,,,,,,,,,,,,,,,,,,,,,,,,,,,,,,,,,,,,,,,,,,,,,,,,,,,,,,,,,,,,,,,,,,,,,,,,,,,,,,,,,,,,,,,,,,,,,,,,,,,,,,,,,,,,
,,614729995b2ed1d007babcc7,2024-02-22_05h20.39.520,kallum_motion_pilot,2023.2.2,Win32,30.03003003,614729995b2ed1d007babcc7,65d6bb0e977760de756971f7,65d6bd618923259cf31ece59,0.136,0.1362,0,63,63,149,1,seveneight,,,,,,,,,,,,,,,,,,,,,,,,,,,,,,,,,,,,,,,,,,,,,,,,,,,,,,,,,,,,,,,,,,,,,,,,,,,,,,,,,,,,,,,,,,,,,,,,,,,,,,,,,,,,,,,,,,,,,,,,,,,,,,,,,,,,,,,,,
,,614729995b2ed1d007babcc7,2024-02-22_05h20.39.520,kallum_motion_pilot,2023.2.2,Win32,30.03003003,614729995b2ed1d007babcc7,65d6bb0e977760de756971f7,65d6bd618923259cf31ece59,0.1367,0.1368,0,64,64,26,1,twoone,,,,,,,,,,,,,,,,,,,,,,,,,,,,,,,,,,,,,,,,,,,,,,,,,,,,,,,,,,,,,,,,,,,,,,,,,,,,,,,,,,,,,,,,,,,,,,,,,,,,,,,,,,,,,,,,,,,,,,,,,,,,,,,,,,,,,,,,,
,,614729995b2ed1d007babcc7,2024-02-22_05h20.39.520,kallum_motion_pilot,2023.2.2,Win32,30.03003003,614729995b2ed1d007babcc7,65d6bb0e977760de756971f7,65d6bd618923259cf31ece59,0.1372,0.1373,0,65,65,161,1,fiveseven,,,,,,,,,,,,,,,,,,,,,,,,,,,,,,,,,,,,,,,,,,,,,,,,,,,,,,,,,,,,,,,,,,,,,,,,,,,,,,,,,,,,,,,,,,,,,,,,,,,,,,,,,,,,,,,,,,,,,,,,,,,,,,,,,,,,,,,,,
,,614729995b2ed1d007babcc7,2024-02-22_05h20.39.520,kallum_motion_pilot,2023.2.2,Win32,30.03003003,614729995b2ed1d007babcc7,65d6bb0e977760de756971f7,65d6bd618923259cf31ece59,0.1381,0.1383,0,66,66,8,1,onetwo,,,,,,,,,,,,,,,,,,,,,,,,,,,,,,,,,,,,,,,,,,,,,,,,,,,,,,,,,,,,,,,,,,,,,,,,,,,,,,,,,,,,,,,,,,,,,,,,,,,,,,,,,,,,,,,,,,,,,,,,,,,,,,,,,,,,,,,,,
,,614729995b2ed1d007babcc7,2024-02-22_05h20.39.520,kallum_motion_pilot,2023.2.2,Win32,30.03003003,614729995b2ed1d007babcc7,65d6bb0e977760de756971f7,65d6bd618923259cf31ece59,0.139,0.1393,0,67,67,103,1,eightseven,,,,,,,,,,,,,,,,,,,,,,,,,,,,,,,,,,,,,,,,,,,,,,,,,,,,,,,,,,,,,,,,,,,,,,,,,,,,,,,,,,,,,,,,,,,,,,,,,,,,,,,,,,,,,,,,,,,,,,,,,,,,,,,,,,,,,,,,,
,,614729995b2ed1d007babcc7,2024-02-22_05h20.39.520,kallum_motion_pilot,2023.2.2,Win32,30.03003003,614729995b2ed1d007babcc7,65d6bb0e977760de756971f7,65d6bd618923259cf31ece59,0.14,0.1402,0,68,68,7,1,fourthree,,,,,,,,,,,,,,,,,,,,,,,,,,,,,,,,,,,,,,,,,,,,,,,,,,,,,,,,,,,,,,,,,,,,,,,,,,,,,,,,,,,,,,,,,,,,,,,,,,,,,,,,,,,,,,,,,,,,,,,,,,,,,,,,,,,,,,,,,
,,614729995b2ed1d007babcc7,2024-02-22_05h20.39.520,kallum_motion_pilot,2023.2.2,Win32,30.03003003,614729995b2ed1d007babcc7,65d6bb0e977760de756971f7,65d6bd618923259cf31ece59,0.1406,0.1409,0,69,69,106,1,sixfive,,,,,,,,,,,,,,,,,,,,,,,,,,,,,,,,,,,,,,,,,,,,,,,,,,,,,,,,,,,,,,,,,,,,,,,,,,,,,,,,,,,,,,,,,,,,,,,,,,,,,,,,,,,,,,,,,,,,,,,,,,,,,,,,,,,,,,,,,
,,614729995b2ed1d007babcc7,2024-02-22_05h20.39.520,kallum_motion_pilot,2023.2.2,Win32,30.03003003,614729995b2ed1d007babcc7,65d6bb0e977760de756971f7,65d6bd618923259cf31ece59,0.1412,0.1415,0,70,70,143,1,eightseven,,,,,,,,,,,,,,,,,,,,,,,,,,,,,,,,,,,,,,,,,,,,,,,,,,,,,,,,,,,,,,,,,,,,,,,,,,,,,,,,,,,,,,,,,,,,,,,,,,,,,,,,,,,,,,,,,,,,,,,,,,,,,,,,,,,,,,,,,
,,614729995b2ed1d007babcc7,2024-02-22_05h20.39.520,kallum_motion_pilot,2023.2.2,Win32,30.03003003,614729995b2ed1d007babcc7,65d6bb0e977760de756971f7,65d6bd618923259cf31ece59,0.1418,0.142,0,71,71,90,1,sixfive,,,,,,,,,,,,,,,,,,,,,,,,,,,,,,,,,,,,,,,,,,,,,,,,,,,,,,,,,,,,,,,,,,,,,,,,,,,,,,,,,,,,,,,,,,,,,,,,,,,,,,,,,,,,,,,,,,,,,,,,,,,,,,,,,,,,,,,,,
,,614729995b2ed1d007babcc7,2024-02-22_05h20.39.520,kallum_motion_pilot,2023.2.2,Win32,30.03003003,614729995b2ed1d007babcc7,65d6bb0e977760de756971f7,65d6bd618923259cf31ece59,0.1423,0.1426,0,72,72,91,1,sixeight,,,,,,,,,,,,,,,,,,,,,,,,,,,,,,,,,,,,,,,,,,,,,,,,,,,,,,,,,,,,,,,,,,,,,,,,,,,,,,,,,,,,,,,,,,,,,,,,,,,,,,,,,,,,,,,,,,,,,,,,,,,,,,,,,,,,,,,,,
,,614729995b2ed1d007babcc7,2024-02-22_05h20.39.520,kallum_motion_pilot,2023.2.2,Win32,30.03003003,614729995b2ed1d007babcc7,65d6bb0e977760de756971f7,65d6bd618923259cf31ece59,0.1431,0.1432,0,73,73,2,1,twoone,,,,,,,,,,,,,,,,,,,,,,,,,,,,,,,,,,,,,,,,,,,,,,,,,,,,,,,,,,,,,,,,,,,,,,,,,,,,,,,,,,,,,,,,,,,,,,,,,,,,,,,,,,,,,,,,,,,,,,,,,,,,,,,,,,,,,,,,,
,,614729995b2ed1d007babcc7,2024-02-22_05h20.39.520,kallum_motion_pilot,2023.2.2,Win32,30.03003003,614729995b2ed1d007babcc7,65d6bb0e977760de756971f7,65d6bd618923259cf31ece59,0.1441,0.1443,0,74,74,105,1,fiveseven,,,,,,,,,,,,,,,,,,,,,,,,,,,,,,,,,,,,,,,,,,,,,,,,,,,,,,,,,,,,,,,,,,,,,,,,,,,,,,,,,,,,,,,,,,,,,,,,,,,,,,,,,,,,,,,,,,,,,,,,,,,,,,,,,,,,,,,,,
,,614729995b2ed1d007babcc7,2024-02-22_05h20.39.520,kallum_motion_pilot,2023.2.2,Win32,30.03003003,614729995b2ed1d007babcc7,65d6bb0e977760de756971f7,65d6bd618923259cf31ece59,0.1447,0.1449,0,75,75,92,1,sevenfive,,,,,,,,,,,,,,,,,,,,,,,,,,,,,,,,,,,,,,,,,,,,,,,,,,,,,,,,,,,,,,,,,,,,,,,,,,,,,,,,,,,,,,,,,,,,,,,,,,,,,,,,,,,,,,,,,,,,,,,,,,,,,,,,,,,,,,,,,
,,614729995b2ed1d007babcc7,2024-02-22_05h20.39.520,kallum_motion_pilot,2023.2.2,Win32,30.03003003,614729995b2ed1d007babcc7,65d6bb0e977760de756971f7,65d6bd618923259cf31ece59,0.1454,0.1455,0,76,76,5,1,threefour,,,,,,,,,,,,,,,,,,,,,,,,,,,,,,,,,,,,,,,,,,,,,,,,,,,,,,,,,,,,,,,,,,,,,,,,,,,,,,,,,,,,,,,,,,,,,,,,,,,,,,,,,,,,,,,,,,,,,,,,,,,,,,,,,,,,,,,,,
,,614729995b2ed1d007babcc7,2024-02-22_05h20.39.520,kallum_motion_pilot,2023.2.2,Win32,30.03003003,614729995b2ed1d007babcc7,65d6bb0e977760de756971f7,65d6bd618923259cf31ece59,0.1463,0.1466,0,77,77,68,1,threeone,,,,,,,,,,,,,,,,,,,,,,,,,,,,,,,,,,,,,,,,,,,,,,,,,,,,,,,,,,,,,,,,,,,,,,,,,,,,,,,,,,,,,,,,,,,,,,,,,,,,,,,,,,,,,,,,,,,,,,,,,,,,,,,,,,,,,,,,,
,,614729995b2ed1d007babcc7,2024-02-22_05h20.39.520,kallum_motion_pilot,2023.2.2,Win32,30.03003003,614729995b2ed1d007babcc7,65d6bb0e977760de756971f7,65d6bd618923259cf31ece59,0.147,0.1472,0,78,78,76,1,threeone,,,,,,,,,,,,,,,,,,,,,,,,,,,,,,,,,,,,,,,,,,,,,,,,,,,,,,,,,,,,,,,,,,,,,,,,,,,,,,,,,,,,,,,,,,,,,,,,,,,,,,,,,,,,,,,,,,,,,,,,,,,,,,,,,,,,,,,,,
,,614729995b2ed1d007babcc7,2024-02-22_05h20.39.520,kallum_motion_pilot,2023.2.2,Win32,30.03003003,614729995b2ed1d007babcc7,65d6bb0e977760de756971f7,65d6bd618923259cf31ece59,0.1477,0.1478,0,79,79,65,1,onethree,,,,,,,,,,,,,,,,,,,,,,,,,,,,,,,,,,,,,,,,,,,,,,,,,,,,,,,,,,,,,,,,,,,,,,,,,,,,,,,,,,,,,,,,,,,,,,,,,,,,,,,,,,,,,,,,,,,,,,,,,,,,,,,,,,,,,,,,,
,,614729995b2ed1d007babcc7,2024-02-22_05h20.39.520,kallum_motion_pilot,2023.2.2,Win32,30.03003003,614729995b2ed1d007babcc7,65d6bb0e977760de756971f7,65d6bd618923259cf31ece59,0.1484,0.1486,0,80,80,88,1,fivesix,,,,,,,,,,,,,,,,,,,,,,,,,,,,,,,,,,,,,,,,,,,,,,,,,,,,,,,,,,,,,,,,,,,,,,,,,,,,,,,,,,,,,,,,,,,,,,,,,,,,,,,,,,,,,,,,,,,,,,,,,,,,,,,,,,,,,,,,,
,,614729995b2ed1d007babcc7,2024-02-22_05h20.39.520,kallum_motion_pilot,2023.2.2,Win32,30.03003003,614729995b2ed1d007babcc7,65d6bb0e977760de756971f7,65d6bd618923259cf31ece59,0.1493,0.1495,0,81,81,28,1,threeone,,,,,,,,,,,,,,,,,,,,,,,,,,,,,,,,,,,,,,,,,,,,,,,,,,,,,,,,,,,,,,,,,,,,,,,,,,,,,,,,,,,,,,,,,,,,,,,,,,,,,,,,,,,,,,,,,,,,,,,,,,,,,,,,,,,,,,,,,
,,614729995b2ed1d007babcc7,2024-02-22_05h20.39.520,kallum_motion_pilot,2023.2.2,Win32,30.03003003,614729995b2ed1d007babcc7,65d6bb0e977760de756971f7,65d6bd618923259cf31ece59,0.1499,0.1502,0,82,82,138,1,sixfive,,,,,,,,,,,,,,,,,,,,,,,,,,,,,,,,,,,,,,,,,,,,,,,,,,,,,,,,,,,,,,,,,,,,,,,,,,,,,,,,,,,,,,,,,,,,,,,,,,,,,,,,,,,,,,,,,,,,,,,,,,,,,,,,,,,,,,,,,
,,614729995b2ed1d007babcc7,2024-02-22_05h20.39.520,kallum_motion_pilot,2023.2.2,Win32,30.03003003,614729995b2ed1d007babcc7,65d6bb0e977760de756971f7,65d6bd618923259cf31ece59,0.1514,0.1517,0,83,83,83,1,sixeight,,,,,,,,,,,,,,,,,,,,,,,,,,,,,,,,,,,,,,,,,,,,,,,,,,,,,,,,,,,,,,,,,,,,,,,,,,,,,,,,,,,,,,,,,,,,,,,,,,,,,,,,,,,,,,,,,,,,,,,,,,,,,,,,,,,,,,,,,
,,614729995b2ed1d007babcc7,2024-02-22_05h20.39.520,kallum_motion_pilot,2023.2.2,Win32,30.03003003,614729995b2ed1d007babcc7,65d6bb0e977760de756971f7,65d6bd618923259cf31ece59,0.1521,0.1523,0,84,84,62,1,fourtwo,,,,,,,,,,,,,,,,,,,,,,,,,,,,,,,,,,,,,,,,,,,,,,,,,,,,,,,,,,,,,,,,,,,,,,,,,,,,,,,,,,,,,,,,,,,,,,,,,,,,,,,,,,,,,,,,,,,,,,,,,,,,,,,,,,,,,,,,,
,,614729995b2ed1d007babcc7,2024-02-22_05h20.39.520,kallum_motion_pilot,2023.2.2,Win32,30.03003003,614729995b2ed1d007babcc7,65d6bb0e977760de756971f7,65d6bd618923259cf31ece59,0.1528,0.153,0,85,85,38,1,fourtwo,,,,,,,,,,,,,,,,,,,,,,,,,,,,,,,,,,,,,,,,,,,,,,,,,,,,,,,,,,,,,,,,,,,,,,,,,,,,,,,,,,,,,,,,,,,,,,,,,,,,,,,,,,,,,,,,,,,,,,,,,,,,,,,,,,,,,,,,,
,,614729995b2ed1d007babcc7,2024-02-22_05h20.39.520,kallum_motion_pilot,2023.2.2,Win32,30.03003003,614729995b2ed1d007babcc7,65d6bb0e977760de756971f7,65d6bd618923259cf31ece59,0.1536,0.1538,0,86,86,66,1,twoone,,,,,,,,,,,,,,,,,,,,,,,,,,,,,,,,,,,,,,,,,,,,,,,,,,,,,,,,,,,,,,,,,,,,,,,,,,,,,,,,,,,,,,,,,,,,,,,,,,,,,,,,,,,,,,,,,,,,,,,,,,,,,,,,,,,,,,,,,
,,614729995b2ed1d007babcc7,2024-02-22_05h20.39.520,kallum_motion_pilot,2023.2.2,Win32,30.03003003,614729995b2ed1d007babcc7,65d6bb0e977760de756971f7,65d6bd618923259cf31ece59,0.1543,0.1544,0,87,87,128,1,fivesix,,,,,,,,,,,,,,,,,,,,,,,,,,,,,,,,,,,,,,,,,,,,,,,,,,,,,,,,,,,,,,,,,,,,,,,,,,,,,,,,,,,,,,,,,,,,,,,,,,,,,,,,,,,,,,,,,,,,,,,,,,,,,,,,,,,,,,,,,
,,614729995b2ed1d007babcc7,2024-02-22_05h20.39.520,kallum_motion_pilot,2023.2.2,Win32,30.03003003,614729995b2ed1d007babcc7,65d6bb0e977760de756971f7,65d6bd618923259cf31ece59,0.155,0.1553,0,88,88,52,1,threeone,,,,,,,,,,,,,,,,,,,,,,,,,,,,,,,,,,,,,,,,,,,,,,,,,,,,,,,,,,,,,,,,,,,,,,,,,,,,,,,,,,,,,,,,,,,,,,,,,,,,,,,,,,,,,,,,,,,,,,,,,,,,,,,,,,,,,,,,,
,,614729995b2ed1d007babcc7,2024-02-22_05h20.39.520,kallum_motion_pilot,2023.2.2,Win32,30.03003003,614729995b2ed1d007babcc7,65d6bb0e977760de756971f7,65d6bd618923259cf31ece59,0.1558,0.1559,0,89,89,60,1,threeone,,,,,,,,,,,,,,,,,,,,,,,,,,,,,,,,,,,,,,,,,,,,,,,,,,,,,,,,,,,,,,,,,,,,,,,,,,,,,,,,,,,,,,,,,,,,,,,,,,,,,,,,,,,,,,,,,,,,,,,,,,,,,,,,,,,,,,,,,
,,614729995b2ed1d007babcc7,2024-02-22_05h20.39.520,kallum_motion_pilot,2023.2.2,Win32,30.03003003,614729995b2ed1d007babcc7,65d6bb0e977760de756971f7,65d6bd618923259cf31ece59,0.1564,0.1565,0,90,90,10,1,twoone,,,,,,,,,,,,,,,,,,,,,,,,,,,,,,,,,,,,,,,,,,,,,,,,,,,,,,,,,,,,,,,,,,,,,,,,,,,,,,,,,,,,,,,,,,,,,,,,,,,,,,,,,,,,,,,,,,,,,,,,,,,,,,,,,,,,,,,,,
,,614729995b2ed1d007babcc7,2024-02-22_05h20.39.520,kallum_motion_pilot,2023.2.2,Win32,30.03003003,614729995b2ed1d007babcc7,65d6bb0e977760de756971f7,65d6bd618923259cf31ece59,0.1571,0.1594,0,91,91,3,1,twofour,,,,,,,,,,,,,,,,,,,,,,,,,,,,,,,,,,,,,,,,,,,,,,,,,,,,,,,,,,,,,,,,,,,,,,,,,,,,,,,,,,,,,,,,,,,,,,,,,,,,,,,,,,,,,,,,,,,,,,,,,,,,,,,,,,,,,,,,,
,,614729995b2ed1d007babcc7,2024-02-22_05h20.39.520,kallum_motion_pilot,2023.2.2,Win32,30.03003003,614729995b2ed1d007babcc7,65d6bb0e977760de756971f7,65d6bd618923259cf31ece59,0.1602,0.1608,0,92,92,4,1,threeone,,,,,,,,,,,,,,,,,,,,,,,,,,,,,,,,,,,,,,,,,,,,,,,,,,,,,,,,,,,,,,,,,,,,,,,,,,,,,,,,,,,,,,,,,,,,,,,,,,,,,,,,,,,,,,,,,,,,,,,,,,,,,,,,,,,,,,,,,
,,614729995b2ed1d007babcc7,2024-02-22_05h20.39.520,kallum_motion_pilot,2023.2.2,Win32,30.03003003,614729995b2ed1d007babcc7,65d6bb0e977760de756971f7,65d6bd618923259cf31ece59,0.1614,0.1616,0,93,93,40,1,onetwo,,,,,,,,,,,,,,,,,,,,,,,,,,,,,,,,,,,,,,,,,,,,,,,,,,,,,,,,,,,,,,,,,,,,,,,,,,,,,,,,,,,,,,,,,,,,,,,,,,,,,,,,,,,,,,,,,,,,,,,,,,,,,,,,,,,,,,,,,
,,614729995b2ed1d007babcc7,2024-02-22_05h20.39.520,kallum_motion_pilot,2023.2.2,Win32,30.03003003,614729995b2ed1d007babcc7,65d6bb0e977760de756971f7,65d6bd618923259cf31ece59,0.1621,0.1623,0,94,94,132,1,sevenfive,,,,,,,,,,,,,,,,,,,,,,,,,,,,,,,,,,,,,,,,,,,,,,,,,,,,,,,,,,,,,,,,,,,,,,,,,,,,,,,,,,,,,,,,,,,,,,,,,,,,,,,,,,,,,,,,,,,,,,,,,,,,,,,,,,,,,,,,,
,,614729995b2ed1d007babcc7,2024-02-22_05h20.39.520,kallum_motion_pilot,2023.2.2,Win32,30.03003003,614729995b2ed1d007babcc7,65d6bb0e977760de756971f7,65d6bd618923259cf31ece59,0.163,0.1632,0,95,95,46,1,fourtwo,,,,,,,,,,,,,,,,,,,,,,,,,,,,,,,,,,,,,,,,,,,,,,,,,,,,,,,,,,,,,,,,,,,,,,,,,,,,,,,,,,,,,,,,,,,,,,,,,,,,,,,,,,,,,,,,,,,,,,,,,,,,,,,,,,,,,,,,,
,,614729995b2ed1d007babcc7,2024-02-22_05h20.39.520,kallum_motion_pilot,2023.2.2,Win32,30.03003003,614729995b2ed1d007babcc7,65d6bb0e977760de756971f7,65d6bd618923259cf31ece59,0.1639,0.1642,0,96,96,57,1,onethree,,,,,,,,,,,,,,,,,,,,,,,,,,,,,,,,,,,,,,,,,,,,,,,,,,,,,,,,,,,,,,,,,,,,,,,,,,,,,,,,,,,,,,,,,,,,,,,,,,,,,,,,,,,,,,,,,,,,,,,,,,,,,,,,,,,,,,,,,
,,614729995b2ed1d007babcc7,2024-02-22_05h20.39.520,kallum_motion_pilot,2023.2.2,Win32,30.03003003,614729995b2ed1d007babcc7,65d6bb0e977760de756971f7,65d6bd618923259cf31ece59,0.1646,0.1648,0,97,97,159,1,eightseven,,,,,,,,,,,,,,,,,,,,,,,,,,,,,,,,,,,,,,,,,,,,,,,,,,,,,,,,,,,,,,,,,,,,,,,,,,,,,,,,,,,,,,,,,,,,,,,,,,,,,,,,,,,,,,,,,,,,,,,,,,,,,,,,,,,,,,,,,
,,614729995b2ed1d007babcc7,2024-02-22_05h20.39.520,kallum_motion_pilot,2023.2.2,Win32,30.03003003,614729995b2ed1d007babcc7,65d6bb0e977760de756971f7,65d6bd618923259cf31ece59,0.1652,0.1655,0,98,98,21,1,threefour,,,,,,,,,,,,,,,,,,,,,,,,,,,,,,,,,,,,,,,,,,,,,,,,,,,,,,,,,,,,,,,,,,,,,,,,,,,,,,,,,,,,,,,,,,,,,,,,,,,,,,,,,,,,,,,,,,,,,,,,,,,,,,,,,,,,,,,,,
,,614729995b2ed1d007babcc7,2024-02-22_05h20.39.520,kallum_motion_pilot,2023.2.2,Win32,30.03003003,614729995b2ed1d007babcc7,65d6bb0e977760de756971f7,65d6bd618923259cf31ece59,0.1658,0.1662,0,99,99,99,1,sixeight,,,,,,,,,,,,,,,,,,,,,,,,,,,,,,,,,,,,,,,,,,,,,,,,,,,,,,,,,,,,,,,,,,,,,,,,,,,,,,,,,,,,,,,,,,,,,,,,,,,,,,,,,,,,,,,,,,,,,,,,,,,,,,,,,,,,,,,,,
,,614729995b2ed1d007babcc7,2024-02-22_05h20.39.520,kallum_motion_pilot,2023.2.2,Win32,30.03003003,614729995b2ed1d007babcc7,65d6bb0e977760de756971f7,65d6bd618923259cf31ece59,0.167,0.1674,0,100,100,121,1,fiveseven,,,,,,,,,,,,,,,,,,,,,,,,,,,,,,,,,,,,,,,,,,,,,,,,,,,,,,,,,,,,,,,,,,,,,,,,,,,,,,,,,,,,,,,,,,,,,,,,,,,,,,,,,,,,,,,,,,,,,,,,,,,,,,,,,,,,,,,,,
,,614729995b2ed1d007babcc7,2024-02-22_05h20.39.520,kallum_motion_pilot,2023.2.2,Win32,30.03003003,614729995b2ed1d007babcc7,65d6bb0e977760de756971f7,65d6bd618923259cf31ece59,0.168,0.1683,0,101,101,137,1,fiveseven,,,,,,,,,,,,,,,,,,,,,,,,,,,,,,,,,,,,,,,,,,,,,,,,,,,,,,,,,,,,,,,,,,,,,,,,,,,,,,,,,,,,,,,,,,,,,,,,,,,,,,,,,,,,,,,,,,,,,,,,,,,,,,,,,,,,,,,,,
,,614729995b2ed1d007babcc7,2024-02-22_05h20.39.520,kallum_motion_pilot,2023.2.2,Win32,30.03003003,614729995b2ed1d007babcc7,65d6bb0e977760de756971f7,65d6bd618923259cf31ece59,0.169,0.1692,0,102,102,151,1,eightseven,,,,,,,,,,,,,,,,,,,,,,,,,,,,,,,,,,,,,,,,,,,,,,,,,,,,,,,,,,,,,,,,,,,,,,,,,,,,,,,,,,,,,,,,,,,,,,,,,,,,,,,,,,,,,,,,,,,,,,,,,,,,,,,,,,,,,,,,,
,,614729995b2ed1d007babcc7,2024-02-22_05h20.39.520,kallum_motion_pilot,2023.2.2,Win32,30.03003003,614729995b2ed1d007babcc7,65d6bb0e977760de756971f7,65d6bd618923259cf31ece59,0.1696,0.1699,0,103,103,89,1,fiveseven,,,,,,,,,,,,,,,,,,,,,,,,,,,,,,,,,,,,,,,,,,,,,,,,,,,,,,,,,,,,,,,,,,,,,,,,,,,,,,,,,,,,,,,,,,,,,,,,,,,,,,,,,,,,,,,,,,,,,,,,,,,,,,,,,,,,,,,,,
,,614729995b2ed1d007babcc7,2024-02-22_05h20.39.520,kallum_motion_pilot,2023.2.2,Win32,30.03003003,614729995b2ed1d007babcc7,65d6bb0e977760de756971f7,65d6bd618923259cf31ece59,0.1704,0.1706,0,104,104,104,1,fivesix,,,,,,,,,,,,,,,,,,,,,,,,,,,,,,,,,,,,,,,,,,,,,,,,,,,,,,,,,,,,,,,,,,,,,,,,,,,,,,,,,,,,,,,,,,,,,,,,,,,,,,,,,,,,,,,,,,,,,,,,,,,,,,,,,,,,,,,,,
,,614729995b2ed1d007babcc7,2024-02-22_05h20.39.520,kallum_motion_pilot,2023.2.2,Win32,30.03003003,614729995b2ed1d007babcc7,65d6bb0e977760de756971f7,65d6bd618923259cf31ece59,0.1714,0.1717,0,105,105,119,1,eightseven,,,,,,,,,,,,,,,,,,,,,,,,,,,,,,,,,,,,,,,,,,,,,,,,,,,,,,,,,,,,,,,,,,,,,,,,,,,,,,,,,,,,,,,,,,,,,,,,,,,,,,,,,,,,,,,,,,,,,,,,,,,,,,,,,,,,,,,,,
,,614729995b2ed1d007babcc7,2024-02-22_05h20.39.520,kallum_motion_pilot,2023.2.2,Win32,30.03003003,614729995b2ed1d007babcc7,65d6bb0e977760de756971f7,65d6bd618923259cf31ece59,0.1726,0.1729,0,106,106,58,1,twoone,,,,,,,,,,,,,,,,,,,,,,,,,,,,,,,,,,,,,,,,,,,,,,,,,,,,,,,,,,,,,,,,,,,,,,,,,,,,,,,,,,,,,,,,,,,,,,,,,,,,,,,,,,,,,,,,,,,,,,,,,,,,,,,,,,,,,,,,,
,,614729995b2ed1d007babcc7,2024-02-22_05h20.39.520,kallum_motion_pilot,2023.2.2,Win32,30.03003003,614729995b2ed1d007babcc7,65d6bb0e977760de756971f7,65d6bd618923259cf31ece59,0.1735,0.1745,0,107,107,45,1,threefour,,,,,,,,,,,,,,,,,,,,,,,,,,,,,,,,,,,,,,,,,,,,,,,,,,,,,,,,,,,,,,,,,,,,,,,,,,,,,,,,,,,,,,,,,,,,,,,,,,,,,,,,,,,,,,,,,,,,,,,,,,,,,,,,,,,,,,,,,
,,614729995b2ed1d007babcc7,2024-02-22_05h20.39.520,kallum_motion_pilot,2023.2.2,Win32,30.03003003,614729995b2ed1d007babcc7,65d6bb0e977760de756971f7,65d6bd618923259cf31ece59,0.1752,0.1756,0,108,108,39,1,fourthree,,,,,,,,,,,,,,,,,,,,,,,,,,,,,,,,,,,,,,,,,,,,,,,,,,,,,,,,,,,,,,,,,,,,,,,,,,,,,,,,,,,,,,,,,,,,,,,,,,,,,,,,,,,,,,,,,,,,,,,,,,,,,,,,,,,,,,,,,
,,614729995b2ed1d007babcc7,2024-02-22_05h20.39.520,kallum_motion_pilot,2023.2.2,Win32,30.03003003,614729995b2ed1d007babcc7,65d6bb0e977760de756971f7,65d6bd618923259cf31ece59,0.1763,0.1766,0,109,109,87,1,eightseven,,,,,,,,,,,,,,,,,,,,,,,,,,,,,,,,,,,,,,,,,,,,,,,,,,,,,,,,,,,,,,,,,,,,,,,,,,,,,,,,,,,,,,,,,,,,,,,,,,,,,,,,,,,,,,,,,,,,,,,,,,,,,,,,,,,,,,,,,
,,614729995b2ed1d007babcc7,2024-02-22_05h20.39.520,kallum_motion_pilot,2023.2.2,Win32,30.03003003,614729995b2ed1d007babcc7,65d6bb0e977760de756971f7,65d6bd618923259cf31ece59,0.1775,0.1778,0,110,110,77,1,threefour,,,,,,,,,,,,,,,,,,,,,,,,,,,,,,,,,,,,,,,,,,,,,,,,,,,,,,,,,,,,,,,,,,,,,,,,,,,,,,,,,,,,,,,,,,,,,,,,,,,,,,,,,,,,,,,,,,,,,,,,,,,,,,,,,,,,,,,,,
,,614729995b2ed1d007babcc7,2024-02-22_05h20.39.520,kallum_motion_pilot,2023.2.2,Win32,30.03003003,614729995b2ed1d007babcc7,65d6bb0e977760de756971f7,65d6bd618923259cf31ece59,0.1787,0.179,0,111,111,74,1,twoone,,,,,,,,,,,,,,,,,,,,,,,,,,,,,,,,,,,,,,,,,,,,,,,,,,,,,,,,,,,,,,,,,,,,,,,,,,,,,,,,,,,,,,,,,,,,,,,,,,,,,,,,,,,,,,,,,,,,,,,,,,,,,,,,,,,,,,,,,
,,614729995b2ed1d007babcc7,2024-02-22_05h20.39.520,kallum_motion_pilot,2023.2.2,Win32,30.03003003,614729995b2ed1d007babcc7,65d6bb0e977760de756971f7,65d6bd618923259cf31ece59,0.1794,0.1796,0,112,112,37,1,threefour,,,,,,,,,,,,,,,,,,,,,,,,,,,,,,,,,,,,,,,,,,,,,,,,,,,,,,,,,,,,,,,,,,,,,,,,,,,,,,,,,,,,,,,,,,,,,,,,,,,,,,,,,,,,,,,,,,,,,,,,,,,,,,,,,,,,,,,,,
,,614729995b2ed1d007babcc7,2024-02-22_05h20.39.520,kallum_motion_pilot,2023.2.2,Win32,30.03003003,614729995b2ed1d007babcc7,65d6bb0e977760de756971f7,65d6bd618923259cf31ece59,0.18,0.1802,0,113,113,53,1,threefour,,,,,,,,,,,,,,,,,,,,,,,,,,,,,,,,,,,,,,,,,,,,,,,,,,,,,,,,,,,,,,,,,,,,,,,,,,,,,,,,,,,,,,,,,,,,,,,,,,,,,,,,,,,,,,,,,,,,,,,,,,,,,,,,,,,,,,,,,
,,614729995b2ed1d007babcc7,2024-02-22_05h20.39.520,kallum_motion_pilot,2023.2.2,Win32,30.03003003,614729995b2ed1d007babcc7,65d6bb0e977760de756971f7,65d6bd618923259cf31ece59,0.1807,0.181,0,114,114,117,1,seveneight,,,,,,,,,,,,,,,,,,,,,,,,,,,,,,,,,,,,,,,,,,,,,,,,,,,,,,,,,,,,,,,,,,,,,,,,,,,,,,,,,,,,,,,,,,,,,,,,,,,,,,,,,,,,,,,,,,,,,,,,,,,,,,,,,,,,,,,,,
,,614729995b2ed1d007babcc7,2024-02-22_05h20.39.520,kallum_motion_pilot,2023.2.2,Win32,30.03003003,614729995b2ed1d007babcc7,65d6bb0e977760de756971f7,65d6bd618923259cf31ece59,0.1821,0.1824,0,115,115,14,1,fourtwo,,,,,,,,,,,,,,,,,,,,,,,,,,,,,,,,,,,,,,,,,,,,,,,,,,,,,,,,,,,,,,,,,,,,,,,,,,,,,,,,,,,,,,,,,,,,,,,,,,,,,,,,,,,,,,,,,,,,,,,,,,,,,,,,,,,,,,,,,
,,614729995b2ed1d007babcc7,2024-02-22_05h20.39.520,kallum_motion_pilot,2023.2.2,Win32,30.03003003,614729995b2ed1d007babcc7,65d6bb0e977760de756971f7,65d6bd618923259cf31ece59,0.1828,0.183,0,116,116,78,1,fourtwo,,,,,,,,,,,,,,,,,,,,,,,,,,,,,,,,,,,,,,,,,,,,,,,,,,,,,,,,,,,,,,,,,,,,,,,,,,,,,,,,,,,,,,,,,,,,,,,,,,,,,,,,,,,,,,,,,,,,,,,,,,,,,,,,,,,,,,,,,
,,614729995b2ed1d007babcc7,2024-02-22_05h20.39.520,kallum_motion_pilot,2023.2.2,Win32,30.03003003,614729995b2ed1d007babcc7,65d6bb0e977760de756971f7,65d6bd618923259cf31ece59,0.1837,0.184,0,117,117,114,1,sixfive,,,,,,,,,,,,,,,,,,,,,,,,,,,,,,,,,,,,,,,,,,,,,,,,,,,,,,,,,,,,,,,,,,,,,,,,,,,,,,,,,,,,,,,,,,,,,,,,,,,,,,,,,,,,,,,,,,,,,,,,,,,,,,,,,,,,,,,,,
,,614729995b2ed1d007babcc7,2024-02-22_05h20.39.520,kallum_motion_pilot,2023.2.2,Win32,30.03003003,614729995b2ed1d007babcc7,65d6bb0e977760de756971f7,65d6bd618923259cf31ece59,0.1844,0.1849,0,118,118,95,1,eightseven,,,,,,,,,,,,,,,,,,,,,,,,,,,,,,,,,,,,,,,,,,,,,,,,,,,,,,,,,,,,,,,,,,,,,,,,,,,,,,,,,,,,,,,,,,,,,,,,,,,,,,,,,,,,,,,,,,,,,,,,,,,,,,,,,,,,,,,,,
,,614729995b2ed1d007babcc7,2024-02-22_05h20.39.520,kallum_motion_pilot,2023.2.2,Win32,30.03003003,614729995b2ed1d007babcc7,65d6bb0e977760de756971f7,65d6bd618923259cf31ece59,0.1853,0.1855,0,119,119,17,1,onethree,,,,,,,,,,,,,,,,,,,,,,,,,,,,,,,,,,,,,,,,,,,,,,,,,,,,,,,,,,,,,,,,,,,,,,,,,,,,,,,,,,,,,,,,,,,,,,,,,,,,,,,,,,,,,,,,,,,,,,,,,,,,,,,,,,,,,,,,,
,,614729995b2ed1d007babcc7,2024-02-22_05h20.39.520,kallum_motion_pilot,2023.2.2,Win32,30.03003003,614729995b2ed1d007babcc7,65d6bb0e977760de756971f7,65d6bd618923259cf31ece59,0.186,0.1862,0,120,120,96,1,fivesix,,,,,,,,,,,,,,,,,,,,,,,,,,,,,,,,,,,,,,,,,,,,,,,,,,,,,,,,,,,,,,,,,,,,,,,,,,,,,,,,,,,,,,,,,,,,,,,,,,,,,,,,,,,,,,,,,,,,,,,,,,,,,,,,,,,,,,,,,
,,614729995b2ed1d007babcc7,2024-02-22_05h20.39.520,kallum_motion_pilot,2023.2.2,Win32,30.03003003,614729995b2ed1d007babcc7,65d6bb0e977760de756971f7,65d6bd618923259cf31ece59,0.1866,0.1869,0,121,121,63,1,fourthree,,,,,,,,,,,,,,,,,,,,,,,,,,,,,,,,,,,,,,,,,,,,,,,,,,,,,,,,,,,,,,,,,,,,,,,,,,,,,,,,,,,,,,,,,,,,,,,,,,,,,,,,,,,,,,,,,,,,,,,,,,,,,,,,,,,,,,,,,
,,614729995b2ed1d007babcc7,2024-02-22_05h20.39.520,kallum_motion_pilot,2023.2.2,Win32,30.03003003,614729995b2ed1d007babcc7,65d6bb0e977760de756971f7,65d6bd618923259cf31ece59,0.1873,0.1875,0,122,122,24,1,onetwo,,,,,,,,,,,,,,,,,,,,,,,,,,,,,,,,,,,,,,,,,,,,,,,,,,,,,,,,,,,,,,,,,,,,,,,,,,,,,,,,,,,,,,,,,,,,,,,,,,,,,,,,,,,,,,,,,,,,,,,,,,,,,,,,,,,,,,,,,
,,614729995b2ed1d007babcc7,2024-02-22_05h20.39.520,kallum_motion_pilot,2023.2.2,Win32,30.03003003,614729995b2ed1d007babcc7,65d6bb0e977760de756971f7,65d6bd618923259cf31ece59,0.1879,0.1882,0,123,123,110,1,eightsix,,,,,,,,,,,,,,,,,,,,,,,,,,,,,,,,,,,,,,,,,,,,,,,,,,,,,,,,,,,,,,,,,,,,,,,,,,,,,,,,,,,,,,,,,,,,,,,,,,,,,,,,,,,,,,,,,,,,,,,,,,,,,,,,,,,,,,,,,
,,614729995b2ed1d007babcc7,2024-02-22_05h20.39.520,kallum_motion_pilot,2023.2.2,Win32,30.03003003,614729995b2ed1d007babcc7,65d6bb0e977760de756971f7,65d6bd618923259cf31ece59,0.1885,0.1888,0,124,124,85,1,seveneight,,,,,,,,,,,,,,,,,,,,,,,,,,,,,,,,,,,,,,,,,,,,,,,,,,,,,,,,,,,,,,,,,,,,,,,,,,,,,,,,,,,,,,,,,,,,,,,,,,,,,,,,,,,,,,,,,,,,,,,,,,,,,,,,,,,,,,,,,
,,614729995b2ed1d007babcc7,2024-02-22_05h20.39.520,kallum_motion_pilot,2023.2.2,Win32,30.03003003,614729995b2ed1d007babcc7,65d6bb0e977760de756971f7,65d6bd618923259cf31ece59,0.1904,0.1915,0,125,125,152,1,fivesix,,,,,,,,,,,,,,,,,,,,,,,,,,,,,,,,,,,,,,,,,,,,,,,,,,,,,,,,,,,,,,,,,,,,,,,,,,,,,,,,,,,,,,,,,,,,,,,,,,,,,,,,,,,,,,,,,,,,,,,,,,,,,,,,,,,,,,,,,
,,614729995b2ed1d007babcc7,2024-02-22_05h20.39.520,kallum_motion_pilot,2023.2.2,Win32,30.03003003,614729995b2ed1d007babcc7,65d6bb0e977760de756971f7,65d6bd618923259cf31ece59,0.1922,0.1924,0,126,126,59,1,twofour,,,,,,,,,,,,,,,,,,,,,,,,,,,,,,,,,,,,,,,,,,,,,,,,,,,,,,,,,,,,,,,,,,,,,,,,,,,,,,,,,,,,,,,,,,,,,,,,,,,,,,,,,,,,,,,,,,,,,,,,,,,,,,,,,,,,,,,,,
,,614729995b2ed1d007babcc7,2024-02-22_05h20.39.520,kallum_motion_pilot,2023.2.2,Win32,30.03003003,614729995b2ed1d007babcc7,65d6bb0e977760de756971f7,65d6bd618923259cf31ece59,0.1929,0.1931,0,127,127,153,1,fiveseven,,,,,,,,,,,,,,,,,,,,,,,,,,,,,,,,,,,,,,,,,,,,,,,,,,,,,,,,,,,,,,,,,,,,,,,,,,,,,,,,,,,,,,,,,,,,,,,,,,,,,,,,,,,,,,,,,,,,,,,,,,,,,,,,,,,,,,,,,
,,614729995b2ed1d007babcc7,2024-02-22_05h20.39.520,kallum_motion_pilot,2023.2.2,Win32,30.03003003,614729995b2ed1d007babcc7,65d6bb0e977760de756971f7,65d6bd618923259cf31ece59,0.1935,0.1952,0,128,128,56,1,onetwo,,,,,,,,,,,,,,,,,,,,,,,,,,,,,,,,,,,,,,,,,,,,,,,,,,,,,,,,,,,,,,,,,,,,,,,,,,,,,,,,,,,,,,,,,,,,,,,,,,,,,,,,,,,,,,,,,,,,,,,,,,,,,,,,,,,,,,,,,
,,614729995b2ed1d007babcc7,2024-02-22_05h20.39.520,kallum_motion_pilot,2023.2.2,Win32,30.03003003,614729995b2ed1d007babcc7,65d6bb0e977760de756971f7,65d6bd618923259cf31ece59,0.1961,0.1963,0,129,129,32,1,onetwo,,,,,,,,,,,,,,,,,,,,,,,,,,,,,,,,,,,,,,,,,,,,,,,,,,,,,,,,,,,,,,,,,,,,,,,,,,,,,,,,,,,,,,,,,,,,,,,,,,,,,,,,,,,,,,,,,,,,,,,,,,,,,,,,,,,,,,,,,
,,614729995b2ed1d007babcc7,2024-02-22_05h20.39.520,kallum_motion_pilot,2023.2.2,Win32,30.03003003,614729995b2ed1d007babcc7,65d6bb0e977760de756971f7,65d6bd618923259cf31ece59,0.1967,0.1976,0,130,130,27,1,twofour,,,,,,,,,,,,,,,,,,,,,,,,,,,,,,,,,,,,,,,,,,,,,,,,,,,,,,,,,,,,,,,,,,,,,,,,,,,,,,,,,,,,,,,,,,,,,,,,,,,,,,,,,,,,,,,,,,,,,,,,,,,,,,,,,,,,,,,,,
,,614729995b2ed1d007babcc7,2024-02-22_05h20.39.520,kallum_motion_pilot,2023.2.2,Win32,30.03003003,614729995b2ed1d007babcc7,65d6bb0e977760de756971f7,65d6bd618923259cf31ece59,0.1981,0.1983,0,131,131,158,1,eightsix,,,,,,,,,,,,,,,,,,,,,,,,,,,,,,,,,,,,,,,,,,,,,,,,,,,,,,,,,,,,,,,,,,,,,,,,,,,,,,,,,,,,,,,,,,,,,,,,,,,,,,,,,,,,,,,,,,,,,,,,,,,,,,,,,,,,,,,,,
,,614729995b2ed1d007babcc7,2024-02-22_05h20.39.520,kallum_motion_pilot,2023.2.2,Win32,30.03003003,614729995b2ed1d007babcc7,65d6bb0e977760de756971f7,65d6bd618923259cf31ece59,0.1988,0.199,0,132,132,156,1,sevenfive,,,,,,,,,,,,,,,,,,,,,,,,,,,,,,,,,,,,,,,,,,,,,,,,,,,,,,,,,,,,,,,,,,,,,,,,,,,,,,,,,,,,,,,,,,,,,,,,,,,,,,,,,,,,,,,,,,,,,,,,,,,,,,,,,,,,,,,,,
,,614729995b2ed1d007babcc7,2024-02-22_05h20.39.520,kallum_motion_pilot,2023.2.2,Win32,30.03003003,614729995b2ed1d007babcc7,65d6bb0e977760de756971f7,65d6bd618923259cf31ece59,0.1994,0.1997,0,133,133,44,1,threeone,,,,,,,,,,,,,,,,,,,,,,,,,,,,,,,,,,,,,,,,,,,,,,,,,,,,,,,,,,,,,,,,,,,,,,,,,,,,,,,,,,,,,,,,,,,,,,,,,,,,,,,,,,,,,,,,,,,,,,,,,,,,,,,,,,,,,,,,,
,,614729995b2ed1d007babcc7,2024-02-22_05h20.39.520,kallum_motion_pilot,2023.2.2,Win32,30.03003003,614729995b2ed1d007babcc7,65d6bb0e977760de756971f7,65d6bd618923259cf31ece59,0.2001,0.2003,0,134,134,155,1,sixeight,,,,,,,,,,,,,,,,,,,,,,,,,,,,,,,,,,,,,,,,,,,,,,,,,,,,,,,,,,,,,,,,,,,,,,,,,,,,,,,,,,,,,,,,,,,,,,,,,,,,,,,,,,,,,,,,,,,,,,,,,,,,,,,,,,,,,,,,,
,,614729995b2ed1d007babcc7,2024-02-22_05h20.39.520,kallum_motion_pilot,2023.2.2,Win32,30.03003003,614729995b2ed1d007babcc7,65d6bb0e977760de756971f7,65d6bd618923259cf31ece59,0.2007,0.2009,0,135,135,47,1,fourthree,,,,,,,,,,,,,,,,,,,,,,,,,,,,,,,,,,,,,,,,,,,,,,,,,,,,,,,,,,,,,,,,,,,,,,,,,,,,,,,,,,,,,,,,,,,,,,,,,,,,,,,,,,,,,,,,,,,,,,,,,,,,,,,,,,,,,,,,,
,,614729995b2ed1d007babcc7,2024-02-22_05h20.39.520,kallum_motion_pilot,2023.2.2,Win32,30.03003003,614729995b2ed1d007babcc7,65d6bb0e977760de756971f7,65d6bd618923259cf31ece59,0.2013,0.2015,0,136,136,31,1,fourthree,,,,,,,,,,,,,,,,,,,,,,,,,,,,,,,,,,,,,,,,,,,,,,,,,,,,,,,,,,,,,,,,,,,,,,,,,,,,,,,,,,,,,,,,,,,,,,,,,,,,,,,,,,,,,,,,,,,,,,,,,,,,,,,,,,,,,,,,,
,,614729995b2ed1d007babcc7,2024-02-22_05h20.39.520,kallum_motion_pilot,2023.2.2,Win32,30.03003003,614729995b2ed1d007babcc7,65d6bb0e977760de756971f7,65d6bd618923259cf31ece59,0.2019,0.2022,0,137,137,94,1,eightsix,,,,,,,,,,,,,,,,,,,,,,,,,,,,,,,,,,,,,,,,,,,,,,,,,,,,,,,,,,,,,,,,,,,,,,,,,,,,,,,,,,,,,,,,,,,,,,,,,,,,,,,,,,,,,,,,,,,,,,,,,,,,,,,,,,,,,,,,,
,,614729995b2ed1d007babcc7,2024-02-22_05h20.39.520,kallum_motion_pilot,2023.2.2,Win32,30.03003003,614729995b2ed1d007babcc7,65d6bb0e977760de756971f7,65d6bd618923259cf31ece59,0.2026,0.2029,0,138,138,112,1,fivesix,,,,,,,,,,,,,,,,,,,,,,,,,,,,,,,,,,,,,,,,,,,,,,,,,,,,,,,,,,,,,,,,,,,,,,,,,,,,,,,,,,,,,,,,,,,,,,,,,,,,,,,,,,,,,,,,,,,,,,,,,,,,,,,,,,,,,,,,,
,,614729995b2ed1d007babcc7,2024-02-22_05h20.39.520,kallum_motion_pilot,2023.2.2,Win32,30.03003003,614729995b2ed1d007babcc7,65d6bb0e977760de756971f7,65d6bd618923259cf31ece59,0.2032,0.2034,0,139,139,35,1,twofour,,,,,,,,,,,,,,,,,,,,,,,,,,,,,,,,,,,,,,,,,,,,,,,,,,,,,,,,,,,,,,,,,,,,,,,,,,,,,,,,,,,,,,,,,,,,,,,,,,,,,,,,,,,,,,,,,,,,,,,,,,,,,,,,,,,,,,,,,
,,614729995b2ed1d007babcc7,2024-02-22_05h20.39.520,kallum_motion_pilot,2023.2.2,Win32,30.03003003,614729995b2ed1d007babcc7,65d6bb0e977760de756971f7,65d6bd618923259cf31ece59,0.2038,0.2044,0,140,140,160,1,fivesix,,,,,,,,,,,,,,,,,,,,,,,,,,,,,,,,,,,,,,,,,,,,,,,,,,,,,,,,,,,,,,,,,,,,,,,,,,,,,,,,,,,,,,,,,,,,,,,,,,,,,,,,,,,,,,,,,,,,,,,,,,,,,,,,,,,,,,,,,
,,614729995b2ed1d007babcc7,2024-02-22_05h20.39.520,kallum_motion_pilot,2023.2.2,Win32,30.03003003,614729995b2ed1d007babcc7,65d6bb0e977760de756971f7,65d6bd618923259cf31ece59,0.205,0.2053,0,141,141,157,1,seveneight,,,,,,,,,,,,,,,,,,,,,,,,,,,,,,,,,,,,,,,,,,,,,,,,,,,,,,,,,,,,,,,,,,,,,,,,,,,,,,,,,,,,,,,,,,,,,,,,,,,,,,,,,,,,,,,,,,,,,,,,,,,,,,,,,,,,,,,,,
,,614729995b2ed1d007babcc7,2024-02-22_05h20.39.520,kallum_motion_pilot,2023.2.2,Win32,30.03003003,614729995b2ed1d007babcc7,65d6bb0e977760de756971f7,65d6bd618923259cf31ece59,0.2058,0.2061,0,142,142,93,1,seveneight,,,,,,,,,,,,,,,,,,,,,,,,,,,,,,,,,,,,,,,,,,,,,,,,,,,,,,,,,,,,,,,,,,,,,,,,,,,,,,,,,,,,,,,,,,,,,,,,,,,,,,,,,,,,,,,,,,,,,,,,,,,,,,,,,,,,,,,,,
,,614729995b2ed1d007babcc7,2024-02-22_05h20.39.520,kallum_motion_pilot,2023.2.2,Win32,30.03003003,614729995b2ed1d007babcc7,65d6bb0e977760de756971f7,65d6bd618923259cf31ece59,0.2065,0.2067,0,143,143,6,1,fourtwo,,,,,,,,,,,,,,,,,,,,,,,,,,,,,,,,,,,,,,,,,,,,,,,,,,,,,,,,,,,,,,,,,,,,,,,,,,,,,,,,,,,,,,,,,,,,,,,,,,,,,,,,,,,,,,,,,,,,,,,,,,,,,,,,,,,,,,,,,
,,614729995b2ed1d007babcc7,2024-02-22_05h20.39.520,kallum_motion_pilot,2023.2.2,Win32,30.03003003,614729995b2ed1d007babcc7,65d6bb0e977760de756971f7,65d6bd618923259cf31ece59,0.2071,0.2075,0,144,144,36,1,threeone,,,,,,,,,,,,,,,,,,,,,,,,,,,,,,,,,,,,,,,,,,,,,,,,,,,,,,,,,,,,,,,,,,,,,,,,,,,,,,,,,,,,,,,,,,,,,,,,,,,,,,,,,,,,,,,,,,,,,,,,,,,,,,,,,,,,,,,,,
,,614729995b2ed1d007babcc7,2024-02-22_05h20.39.520,kallum_motion_pilot,2023.2.2,Win32,30.03003003,614729995b2ed1d007babcc7,65d6bb0e977760de756971f7,65d6bd618923259cf31ece59,0.2082,0.2085,0,145,145,86,1,eightsix,,,,,,,,,,,,,,,,,,,,,,,,,,,,,,,,,,,,,,,,,,,,,,,,,,,,,,,,,,,,,,,,,,,,,,,,,,,,,,,,,,,,,,,,,,,,,,,,,,,,,,,,,,,,,,,,,,,,,,,,,,,,,,,,,,,,,,,,,
,,614729995b2ed1d007babcc7,2024-02-22_05h20.39.520,kallum_motion_pilot,2023.2.2,Win32,30.03003003,614729995b2ed1d007babcc7,65d6bb0e977760de756971f7,65d6bd618923259cf31ece59,0.2088,0.2091,0,146,146,16,1,onetwo,,,,,,,,,,,,,,,,,,,,,,,,,,,,,,,,,,,,,,,,,,,,,,,,,,,,,,,,,,,,,,,,,,,,,,,,,,,,,,,,,,,,,,,,,,,,,,,,,,,,,,,,,,,,,,,,,,,,,,,,,,,,,,,,,,,,,,,,,
,,614729995b2ed1d007babcc7,2024-02-22_05h20.39.520,kallum_motion_pilot,2023.2.2,Win32,30.03003003,614729995b2ed1d007babcc7,65d6bb0e977760de756971f7,65d6bd618923259cf31ece59,0.2096,0.2099,0,147,147,71,1,fourthree,,,,,,,,,,,,,,,,,,,,,,,,,,,,,,,,,,,,,,,,,,,,,,,,,,,,,,,,,,,,,,,,,,,,,,,,,,,,,,,,,,,,,,,,,,,,,,,,,,,,,,,,,,,,,,,,,,,,,,,,,,,,,,,,,,,,,,,,,
,,614729995b2ed1d007babcc7,2024-02-22_05h20.39.520,kallum_motion_pilot,2023.2.2,Win32,30.03003003,614729995b2ed1d007babcc7,65d6bb0e977760de756971f7,65d6bd618923259cf31ece59,0.2108,0.2112,0,148,148,107,1,sixeight,,,,,,,,,,,,,,,,,,,,,,,,,,,,,,,,,,,,,,,,,,,,,,,,,,,,,,,,,,,,,,,,,,,,,,,,,,,,,,,,,,,,,,,,,,,,,,,,,,,,,,,,,,,,,,,,,,,,,,,,,,,,,,,,,,,,,,,,,
,,614729995b2ed1d007babcc7,2024-02-22_05h20.39.520,kallum_motion_pilot,2023.2.2,Win32,30.03003003,614729995b2ed1d007babcc7,65d6bb0e977760de756971f7,65d6bd618923259cf31ece59,0.2118,0.2126,0,149,149,29,1,threefour,,,,,,,,,,,,,,,,,,,,,,,,,,,,,,,,,,,,,,,,,,,,,,,,,,,,,,,,,,,,,,,,,,,,,,,,,,,,,,,,,,,,,,,,,,,,,,,,,,,,,,,,,,,,,,,,,,,,,,,,,,,,,,,,,,,,,,,,,
,,614729995b2ed1d007babcc7,2024-02-22_05h20.39.520,kallum_motion_pilot,2023.2.2,Win32,30.03003003,614729995b2ed1d007babcc7,65d6bb0e977760de756971f7,65d6bd618923259cf31ece59,0.2131,0.2136,0,150,150,108,1,sevenfive,,,,,,,,,,,,,,,,,,,,,,,,,,,,,,,,,,,,,,,,,,,,,,,,,,,,,,,,,,,,,,,,,,,,,,,,,,,,,,,,,,,,,,,,,,,,,,,,,,,,,,,,,,,,,,,,,,,,,,,,,,,,,,,,,,,,,,,,,
,,614729995b2ed1d007babcc7,2024-02-22_05h20.39.520,kallum_motion_pilot,2023.2.2,Win32,30.03003003,614729995b2ed1d007babcc7,65d6bb0e977760de756971f7,65d6bd618923259cf31ece59,0.2142,0.2148,0,151,151,154,1,sixfive,,,,,,,,,,,,,,,,,,,,,,,,,,,,,,,,,,,,,,,,,,,,,,,,,,,,,,,,,,,,,,,,,,,,,,,,,,,,,,,,,,,,,,,,,,,,,,,,,,,,,,,,,,,,,,,,,,,,,,,,,,,,,,,,,,,,,,,,,
,,614729995b2ed1d007babcc7,2024-02-22_05h20.39.520,kallum_motion_pilot,2023.2.2,Win32,30.03003003,614729995b2ed1d007babcc7,65d6bb0e977760de756971f7,65d6bd618923259cf31ece59,0.2159,0.2161,0,152,152,130,1,sixfive,,,,,,,,,,,,,,,,,,,,,,,,,,,,,,,,,,,,,,,,,,,,,,,,,,,,,,,,,,,,,,,,,,,,,,,,,,,,,,,,,,,,,,,,,,,,,,,,,,,,,,,,,,,,,,,,,,,,,,,,,,,,,,,,,,,,,,,,,
,,614729995b2ed1d007babcc7,2024-02-22_05h20.39.520,kallum_motion_pilot,2023.2.2,Win32,30.03003003,614729995b2ed1d007babcc7,65d6bb0e977760de756971f7,65d6bd618923259cf31ece59,0.2164,0.2171,0,153,153,101,1,seveneight,,,,,,,,,,,,,,,,,,,,,,,,,,,,,,,,,,,,,,,,,,,,,,,,,,,,,,,,,,,,,,,,,,,,,,,,,,,,,,,,,,,,,,,,,,,,,,,,,,,,,,,,,,,,,,,,,,,,,,,,,,,,,,,,,,,,,,,,,
,,614729995b2ed1d007babcc7,2024-02-22_05h20.39.520,kallum_motion_pilot,2023.2.2,Win32,30.03003003,614729995b2ed1d007babcc7,65d6bb0e977760de756971f7,65d6bd618923259cf31ece59,0.2183,0.2185,0,154,154,30,1,fourtwo,,,,,,,,,,,,,,,,,,,,,,,,,,,,,,,,,,,,,,,,,,,,,,,,,,,,,,,,,,,,,,,,,,,,,,,,,,,,,,,,,,,,,,,,,,,,,,,,,,,,,,,,,,,,,,,,,,,,,,,,,,,,,,,,,,,,,,,,,
,,614729995b2ed1d007babcc7,2024-02-22_05h20.39.520,kallum_motion_pilot,2023.2.2,Win32,30.03003003,614729995b2ed1d007babcc7,65d6bb0e977760de756971f7,65d6bd618923259cf31ece59,0.219,0.2192,0,155,155,140,1,sevenfive,,,,,,,,,,,,,,,,,,,,,,,,,,,,,,,,,,,,,,,,,,,,,,,,,,,,,,,,,,,,,,,,,,,,,,,,,,,,,,,,,,,,,,,,,,,,,,,,,,,,,,,,,,,,,,,,,,,,,,,,,,,,,,,,,,,,,,,,,
,,614729995b2ed1d007babcc7,2024-02-22_05h20.39.520,kallum_motion_pilot,2023.2.2,Win32,30.03003003,614729995b2ed1d007babcc7,65d6bb0e977760de756971f7,65d6bd618923259cf31ece59,0.2197,0.2203,0,156,156,125,1,seveneight,,,,,,,,,,,,,,,,,,,,,,,,,,,,,,,,,,,,,,,,,,,,,,,,,,,,,,,,,,,,,,,,,,,,,,,,,,,,,,,,,,,,,,,,,,,,,,,,,,,,,,,,,,,,,,,,,,,,,,,,,,,,,,,,,,,,,,,,,
,,614729995b2ed1d007babcc7,2024-02-22_05h20.39.520,kallum_motion_pilot,2023.2.2,Win32,30.03003003,614729995b2ed1d007babcc7,65d6bb0e977760de756971f7,65d6bd618923259cf31ece59,0.2209,0.2212,0,157,157,50,1,twoone,,,,,,,,,,,,,,,,,,,,,,,,,,,,,,,,,,,,,,,,,,,,,,,,,,,,,,,,,,,,,,,,,,,,,,,,,,,,,,,,,,,,,,,,,,,,,,,,,,,,,,,,,,,,,,,,,,,,,,,,,,,,,,,,,,,,,,,,,
,,614729995b2ed1d007babcc7,2024-02-22_05h20.39.520,kallum_motion_pilot,2023.2.2,Win32,30.03003003,614729995b2ed1d007babcc7,65d6bb0e977760de756971f7,65d6bd618923259cf31ece59,0.2217,0.2225,0,158,158,109,1,seveneight,,,,,,,,,,,,,,,,,,,,,,,,,,,,,,,,,,,,,,,,,,,,,,,,,,,,,,,,,,,,,,,,,,,,,,,,,,,,,,,,,,,,,,,,,,,,,,,,,,,,,,,,,,,,,,,,,,,,,,,,,,,,,,,,,,,,,,,,,
,,614729995b2ed1d007babcc7,2024-02-22_05h20.39.520,kallum_motion_pilot,2023.2.2,Win32,30.03003003,614729995b2ed1d007babcc7,65d6bb0e977760de756971f7,65d6bd618923259cf31ece59,0.2231,0.2233,0,159,159,12,1,threeone,,,,,,,,,,,,,,,,,,,,,,,,,,,,,,,,,,,,,,,,,,,,,,,,,,,,,,,,,,,,,,,,,,,,,,,,,,,,,,,,,,,,,,,,,,,,,,,,,,,,,,,,,,,,,,,,,,,,,,,,,,,,,,,,,,,,,,,,,
,,614729995b2ed1d007babcc7,2024-02-22_05h20.39.520,kallum_motion_pilot,2023.2.2,Win32,30.03003003,614729995b2ed1d007babcc7,65d6bb0e977760de756971f7,65d6bd618923259cf31ece59,0.2237,0.2239,0,160,160,18,1,twoone,,,,,,,,,,,,,,,,,,,,,,,,,,,,,,,,,,,,,,,,,,,,,,,,,,,,,,,,,,,,,,,,,,,,,,,,,,,,,,,,,,,,,,,,,,,,,,,,,,,,,,,,,,,,,,,,,,,,,,,,,,,,,,,,,,,,,,,,,
,,614729995b2ed1d007babcc7,2024-02-22_05h20.39.520,kallum_motion_pilot,2023.2.2,Win32,30.03003003,614729995b2ed1d007babcc7,65d6bb0e977760de756971f7,65d6bd618923259cf31ece59,0.2243,0.2245,0,161,161,67,1,twofour,,,,,,,,,,,,,,,,,,,,,,,,,,,,,,,,,,,,,,,,,,,,,,,,,,,,,,,,,,,,,,,,,,,,,,,,,,,,,,,,,,,,,,,,,,,,,,,,,,,,,,,,,,,,,,,,,,,,,,,,,,,,,,,,,,,,,,,,,
,,614729995b2ed1d007babcc7,2024-02-22_05h20.39.520,kallum_motion_pilot,2023.2.2,Win32,30.03003003,614729995b2ed1d007babcc7,65d6bb0e977760de756971f7,65d6bd618923259cf31ece59,0.2249,0.2252,1,0,162,100,1,sevenfive,,,,,,,,,,,,,,,,,,,,,,,,,,,,,,,,,,,,,,,,,,,,,,,,,,,,,,,,,,,,,,,,,,,,,,,,,,,,,,,,,,,,,,,,,,,,,,,,,,,,,,,,,,,,,,,,,,,,,,,,,,,,,,,,,,,,,,,,,
,,614729995b2ed1d007babcc7,2024-02-22_05h20.39.520,kallum_motion_pilot,2023.2.2,Win32,30.03003003,614729995b2ed1d007babcc7,65d6bb0e977760de756971f7,65d6bd618923259cf31ece59,0.2256,0.2258,1,1,163,56,1,onetwo,,,,,,,,,,,,,,,,,,,,,,,,,,,,,,,,,,,,,,,,,,,,,,,,,,,,,,,,,,,,,,,,,,,,,,,,,,,,,,,,,,,,,,,,,,,,,,,,,,,,,,,,,,,,,,,,,,,,,,,,,,,,,,,,,,,,,,,,,
,,614729995b2ed1d007babcc7,2024-02-22_05h20.39.520,kallum_motion_pilot,2023.2.2,Win32,30.03003003,614729995b2ed1d007babcc7,65d6bb0e977760de756971f7,65d6bd618923259cf31ece59,0.2266,0.2268,1,2,164,146,1,sixfive,,,,,,,,,,,,,,,,,,,,,,,,,,,,,,,,,,,,,,,,,,,,,,,,,,,,,,,,,,,,,,,,,,,,,,,,,,,,,,,,,,,,,,,,,,,,,,,,,,,,,,,,,,,,,,,,,,,,,,,,,,,,,,,,,,,,,,,,,
,,614729995b2ed1d007babcc7,2024-02-22_05h20.39.520,kallum_motion_pilot,2023.2.2,Win32,30.03003003,614729995b2ed1d007babcc7,65d6bb0e977760de756971f7,65d6bd618923259cf31ece59,0.2287,0.2291,1,3,165,143,1,eightseven,,,,,,,,,,,,,,,,,,,,,,,,,,,,,,,,,,,,,,,,,,,,,,,,,,,,,,,,,,,,,,,,,,,,,,,,,,,,,,,,,,,,,,,,,,,,,,,,,,,,,,,,,,,,,,,,,,,,,,,,,,,,,,,,,,,,,,,,,
,,614729995b2ed1d007babcc7,2024-02-22_05h20.39.520,kallum_motion_pilot,2023.2.2,Win32,30.03003003,614729995b2ed1d007babcc7,65d6bb0e977760de756971f7,65d6bd618923259cf31ece59,0.2297,0.23,1,4,166,142,1,eightsix,,,,,,,,,,,,,,,,,,,,,,,,,,,,,,,,,,,,,,,,,,,,,,,,,,,,,,,,,,,,,,,,,,,,,,,,,,,,,,,,,,,,,,,,,,,,,,,,,,,,,,,,,,,,,,,,,,,,,,,,,,,,,,,,,,,,,,,,,
,,614729995b2ed1d007babcc7,2024-02-22_05h20.39.520,kallum_motion_pilot,2023.2.2,Win32,30.03003003,614729995b2ed1d007babcc7,65d6bb0e977760de756971f7,65d6bd618923259cf31ece59,0.2311,0.2313,1,5,167,138,1,sixfive,,,,,,,,,,,,,,,,,,,,,,,,,,,,,,,,,,,,,,,,,,,,,,,,,,,,,,,,,,,,,,,,,,,,,,,,,,,,,,,,,,,,,,,,,,,,,,,,,,,,,,,,,,,,,,,,,,,,,,,,,,,,,,,,,,,,,,,,,
,,614729995b2ed1d007babcc7,2024-02-22_05h20.39.520,kallum_motion_pilot,2023.2.2,Win32,30.03003003,614729995b2ed1d007babcc7,65d6bb0e977760de756971f7,65d6bd618923259cf31ece59,0.2319,0.2323,1,6,168,106,1,sixfive,,,,,,,,,,,,,,,,,,,,,,,,,,,,,,,,,,,,,,,,,,,,,,,,,,,,,,,,,,,,,,,,,,,,,,,,,,,,,,,,,,,,,,,,,,,,,,,,,,,,,,,,,,,,,,,,,,,,,,,,,,,,,,,,,,,,,,,,,
,,614729995b2ed1d007babcc7,2024-02-22_05h20.39.520,kallum_motion_pilot,2023.2.2,Win32,30.03003003,614729995b2ed1d007babcc7,65d6bb0e977760de756971f7,65d6bd618923259cf31ece59,0.2332,0.2337,1,7,169,99,1,sixeight,,,,,,,,,,,,,,,,,,,,,,,,,,,,,,,,,,,,,,,,,,,,,,,,,,,,,,,,,,,,,,,,,,,,,,,,,,,,,,,,,,,,,,,,,,,,,,,,,,,,,,,,,,,,,,,,,,,,,,,,,,,,,,,,,,,,,,,,,
,,614729995b2ed1d007babcc7,2024-02-22_05h20.39.520,kallum_motion_pilot,2023.2.2,Win32,30.03003003,614729995b2ed1d007babcc7,65d6bb0e977760de756971f7,65d6bd618923259cf31ece59,0.2341,0.2343,1,8,170,127,1,eightseven,,,,,,,,,,,,,,,,,,,,,,,,,,,,,,,,,,,,,,,,,,,,,,,,,,,,,,,,,,,,,,,,,,,,,,,,,,,,,,,,,,,,,,,,,,,,,,,,,,,,,,,,,,,,,,,,,,,,,,,,,,,,,,,,,,,,,,,,,
,,614729995b2ed1d007babcc7,2024-02-22_05h20.39.520,kallum_motion_pilot,2023.2.2,Win32,30.03003003,614729995b2ed1d007babcc7,65d6bb0e977760de756971f7,65d6bd618923259cf31ece59,0.2348,0.2351,1,9,171,22,1,fourtwo,,,,,,,,,,,,,,,,,,,,,,,,,,,,,,,,,,,,,,,,,,,,,,,,,,,,,,,,,,,,,,,,,,,,,,,,,,,,,,,,,,,,,,,,,,,,,,,,,,,,,,,,,,,,,,,,,,,,,,,,,,,,,,,,,,,,,,,,,
,,614729995b2ed1d007babcc7,2024-02-22_05h20.39.520,kallum_motion_pilot,2023.2.2,Win32,30.03003003,614729995b2ed1d007babcc7,65d6bb0e977760de756971f7,65d6bd618923259cf31ece59,0.2363,0.2366,1,10,172,112,1,fivesix,,,,,,,,,,,,,,,,,,,,,,,,,,,,,,,,,,,,,,,,,,,,,,,,,,,,,,,,,,,,,,,,,,,,,,,,,,,,,,,,,,,,,,,,,,,,,,,,,,,,,,,,,,,,,,,,,,,,,,,,,,,,,,,,,,,,,,,,,
,,614729995b2ed1d007babcc7,2024-02-22_05h20.39.520,kallum_motion_pilot,2023.2.2,Win32,30.03003003,614729995b2ed1d007babcc7,65d6bb0e977760de756971f7,65d6bd618923259cf31ece59,0.237,0.2372,1,11,173,48,1,onetwo,,,,,,,,,,,,,,,,,,,,,,,,,,,,,,,,,,,,,,,,,,,,,,,,,,,,,,,,,,,,,,,,,,,,,,,,,,,,,,,,,,,,,,,,,,,,,,,,,,,,,,,,,,,,,,,,,,,,,,,,,,,,,,,,,,,,,,,,,
,,614729995b2ed1d007babcc7,2024-02-22_05h20.39.520,kallum_motion_pilot,2023.2.2,Win32,30.03003003,614729995b2ed1d007babcc7,65d6bb0e977760de756971f7,65d6bd618923259cf31ece59,0.2376,0.2378,1,12,174,50,1,twoone,,,,,,,,,,,,,,,,,,,,,,,,,,,,,,,,,,,,,,,,,,,,,,,,,,,,,,,,,,,,,,,,,,,,,,,,,,,,,,,,,,,,,,,,,,,,,,,,,,,,,,,,,,,,,,,,,,,,,,,,,,,,,,,,,,,,,,,,,
,,614729995b2ed1d007babcc7,2024-02-22_05h20.39.520,kallum_motion_pilot,2023.2.2,Win32,30.03003003,614729995b2ed1d007babcc7,65d6bb0e977760de756971f7,65d6bd618923259cf31ece59,0.2382,0.2384,1,13,175,59,1,twofour,,,,,,,,,,,,,,,,,,,,,,,,,,,,,,,,,,,,,,,,,,,,,,,,,,,,,,,,,,,,,,,,,,,,,,,,,,,,,,,,,,,,,,,,,,,,,,,,,,,,,,,,,,,,,,,,,,,,,,,,,,,,,,,,,,,,,,,,,
,,614729995b2ed1d007babcc7,2024-02-22_05h20.39.520,kallum_motion_pilot,2023.2.2,Win32,30.03003003,614729995b2ed1d007babcc7,65d6bb0e977760de756971f7,65d6bd618923259cf31ece59,0.2388,0.239,1,14,176,118,1,eightsix,,,,,,,,,,,,,,,,,,,,,,,,,,,,,,,,,,,,,,,,,,,,,,,,,,,,,,,,,,,,,,,,,,,,,,,,,,,,,,,,,,,,,,,,,,,,,,,,,,,,,,,,,,,,,,,,,,,,,,,,,,,,,,,,,,,,,,,,,
,,614729995b2ed1d007babcc7,2024-02-22_05h20.39.520,kallum_motion_pilot,2023.2.2,Win32,30.03003003,614729995b2ed1d007babcc7,65d6bb0e977760de756971f7,65d6bd618923259cf31ece59,0.2394,0.2397,1,15,177,109,1,seveneight,,,,,,,,,,,,,,,,,,,,,,,,,,,,,,,,,,,,,,,,,,,,,,,,,,,,,,,,,,,,,,,,,,,,,,,,,,,,,,,,,,,,,,,,,,,,,,,,,,,,,,,,,,,,,,,,,,,,,,,,,,,,,,,,,,,,,,,,,
,,614729995b2ed1d007babcc7,2024-02-22_05h20.39.520,kallum_motion_pilot,2023.2.2,Win32,30.03003003,614729995b2ed1d007babcc7,65d6bb0e977760de756971f7,65d6bd618923259cf31ece59,0.2403,0.2405,1,16,178,108,1,sevenfive,,,,,,,,,,,,,,,,,,,,,,,,,,,,,,,,,,,,,,,,,,,,,,,,,,,,,,,,,,,,,,,,,,,,,,,,,,,,,,,,,,,,,,,,,,,,,,,,,,,,,,,,,,,,,,,,,,,,,,,,,,,,,,,,,,,,,,,,,
,,614729995b2ed1d007babcc7,2024-02-22_05h20.39.520,kallum_motion_pilot,2023.2.2,Win32,30.03003003,614729995b2ed1d007babcc7,65d6bb0e977760de756971f7,65d6bd618923259cf31ece59,0.2408,0.2411,1,17,179,131,1,sixeight,,,,,,,,,,,,,,,,,,,,,,,,,,,,,,,,,,,,,,,,,,,,,,,,,,,,,,,,,,,,,,,,,,,,,,,,,,,,,,,,,,,,,,,,,,,,,,,,,,,,,,,,,,,,,,,,,,,,,,,,,,,,,,,,,,,,,,,,,
,,614729995b2ed1d007babcc7,2024-02-22_05h20.39.520,kallum_motion_pilot,2023.2.2,Win32,30.03003003,614729995b2ed1d007babcc7,65d6bb0e977760de756971f7,65d6bd618923259cf31ece59,0.2415,0.2417,1,18,180,86,1,eightsix,,,,,,,,,,,,,,,,,,,,,,,,,,,,,,,,,,,,,,,,,,,,,,,,,,,,,,,,,,,,,,,,,,,,,,,,,,,,,,,,,,,,,,,,,,,,,,,,,,,,,,,,,,,,,,,,,,,,,,,,,,,,,,,,,,,,,,,,,
,,614729995b2ed1d007babcc7,2024-02-22_05h20.39.520,kallum_motion_pilot,2023.2.2,Win32,30.03003003,614729995b2ed1d007babcc7,65d6bb0e977760de756971f7,65d6bd618923259cf31ece59,0.2421,0.2424,1,19,181,8,1,onetwo,,,,,,,,,,,,,,,,,,,,,,,,,,,,,,,,,,,,,,,,,,,,,,,,,,,,,,,,,,,,,,,,,,,,,,,,,,,,,,,,,,,,,,,,,,,,,,,,,,,,,,,,,,,,,,,,,,,,,,,,,,,,,,,,,,,,,,,,,
,,614729995b2ed1d007babcc7,2024-02-22_05h20.39.520,kallum_motion_pilot,2023.2.2,Win32,30.03003003,614729995b2ed1d007babcc7,65d6bb0e977760de756971f7,65d6bd618923259cf31ece59,0.2427,0.2431,1,20,182,126,1,eightsix,,,,,,,,,,,,,,,,,,,,,,,,,,,,,,,,,,,,,,,,,,,,,,,,,,,,,,,,,,,,,,,,,,,,,,,,,,,,,,,,,,,,,,,,,,,,,,,,,,,,,,,,,,,,,,,,,,,,,,,,,,,,,,,,,,,,,,,,,
,,614729995b2ed1d007babcc7,2024-02-22_05h20.39.520,kallum_motion_pilot,2023.2.2,Win32,30.03003003,614729995b2ed1d007babcc7,65d6bb0e977760de756971f7,65d6bd618923259cf31ece59,0.2443,0.2445,1,21,183,45,1,threefour,,,,,,,,,,,,,,,,,,,,,,,,,,,,,,,,,,,,,,,,,,,,,,,,,,,,,,,,,,,,,,,,,,,,,,,,,,,,,,,,,,,,,,,,,,,,,,,,,,,,,,,,,,,,,,,,,,,,,,,,,,,,,,,,,,,,,,,,,
,,614729995b2ed1d007babcc7,2024-02-22_05h20.39.520,kallum_motion_pilot,2023.2.2,Win32,30.03003003,614729995b2ed1d007babcc7,65d6bb0e977760de756971f7,65d6bd618923259cf31ece59,0.2453,0.2456,1,22,184,95,1,eightseven,,,,,,,,,,,,,,,,,,,,,,,,,,,,,,,,,,,,,,,,,,,,,,,,,,,,,,,,,,,,,,,,,,,,,,,,,,,,,,,,,,,,,,,,,,,,,,,,,,,,,,,,,,,,,,,,,,,,,,,,,,,,,,,,,,,,,,,,,
,,614729995b2ed1d007babcc7,2024-02-22_05h20.39.520,kallum_motion_pilot,2023.2.2,Win32,30.03003003,614729995b2ed1d007babcc7,65d6bb0e977760de756971f7,65d6bd618923259cf31ece59,0.2462,0.2464,1,23,185,153,1,fiveseven,,,,,,,,,,,,,,,,,,,,,,,,,,,,,,,,,,,,,,,,,,,,,,,,,,,,,,,,,,,,,,,,,,,,,,,,,,,,,,,,,,,,,,,,,,,,,,,,,,,,,,,,,,,,,,,,,,,,,,,,,,,,,,,,,,,,,,,,,
,,614729995b2ed1d007babcc7,2024-02-22_05h20.39.520,kallum_motion_pilot,2023.2.2,Win32,30.03003003,614729995b2ed1d007babcc7,65d6bb0e977760de756971f7,65d6bd618923259cf31ece59,0.2471,0.2473,1,24,186,0,1,onetwo,,,,,,,,,,,,,,,,,,,,,,,,,,,,,,,,,,,,,,,,,,,,,,,,,,,,,,,,,,,,,,,,,,,,,,,,,,,,,,,,,,,,,,,,,,,,,,,,,,,,,,,,,,,,,,,,,,,,,,,,,,,,,,,,,,,,,,,,,
,,614729995b2ed1d007babcc7,2024-02-22_05h20.39.520,kallum_motion_pilot,2023.2.2,Win32,30.03003003,614729995b2ed1d007babcc7,65d6bb0e977760de756971f7,65d6bd618923259cf31ece59,0.2477,0.2479,1,25,187,46,1,fourtwo,,,,,,,,,,,,,,,,,,,,,,,,,,,,,,,,,,,,,,,,,,,,,,,,,,,,,,,,,,,,,,,,,,,,,,,,,,,,,,,,,,,,,,,,,,,,,,,,,,,,,,,,,,,,,,,,,,,,,,,,,,,,,,,,,,,,,,,,,
,,614729995b2ed1d007babcc7,2024-02-22_05h20.39.520,kallum_motion_pilot,2023.2.2,Win32,30.03003003,614729995b2ed1d007babcc7,65d6bb0e977760de756971f7,65d6bd618923259cf31ece59,0.2483,0.2485,1,26,188,80,1,fivesix,,,,,,,,,,,,,,,,,,,,,,,,,,,,,,,,,,,,,,,,,,,,,,,,,,,,,,,,,,,,,,,,,,,,,,,,,,,,,,,,,,,,,,,,,,,,,,,,,,,,,,,,,,,,,,,,,,,,,,,,,,,,,,,,,,,,,,,,,
,,614729995b2ed1d007babcc7,2024-02-22_05h20.39.520,kallum_motion_pilot,2023.2.2,Win32,30.03003003,614729995b2ed1d007babcc7,65d6bb0e977760de756971f7,65d6bd618923259cf31ece59,0.2489,0.2492,1,27,189,35,1,twofour,,,,,,,,,,,,,,,,,,,,,,,,,,,,,,,,,,,,,,,,,,,,,,,,,,,,,,,,,,,,,,,,,,,,,,,,,,,,,,,,,,,,,,,,,,,,,,,,,,,,,,,,,,,,,,,,,,,,,,,,,,,,,,,,,,,,,,,,,
,,614729995b2ed1d007babcc7,2024-02-22_05h20.39.520,kallum_motion_pilot,2023.2.2,Win32,30.03003003,614729995b2ed1d007babcc7,65d6bb0e977760de756971f7,65d6bd618923259cf31ece59,0.2497,0.25,1,28,190,150,1,eightsix,,,,,,,,,,,,,,,,,,,,,,,,,,,,,,,,,,,,,,,,,,,,,,,,,,,,,,,,,,,,,,,,,,,,,,,,,,,,,,,,,,,,,,,,,,,,,,,,,,,,,,,,,,,,,,,,,,,,,,,,,,,,,,,,,,,,,,,,,
,,614729995b2ed1d007babcc7,2024-02-22_05h20.39.520,kallum_motion_pilot,2023.2.2,Win32,30.03003003,614729995b2ed1d007babcc7,65d6bb0e977760de756971f7,65d6bd618923259cf31ece59,0.2504,0.2507,1,29,191,68,1,threeone,,,,,,,,,,,,,,,,,,,,,,,,,,,,,,,,,,,,,,,,,,,,,,,,,,,,,,,,,,,,,,,,,,,,,,,,,,,,,,,,,,,,,,,,,,,,,,,,,,,,,,,,,,,,,,,,,,,,,,,,,,,,,,,,,,,,,,,,,
,,614729995b2ed1d007babcc7,2024-02-22_05h20.39.520,kallum_motion_pilot,2023.2.2,Win32,30.03003003,614729995b2ed1d007babcc7,65d6bb0e977760de756971f7,65d6bd618923259cf31ece59,0.2512,0.2516,1,30,192,139,1,sixeight,,,,,,,,,,,,,,,,,,,,,,,,,,,,,,,,,,,,,,,,,,,,,,,,,,,,,,,,,,,,,,,,,,,,,,,,,,,,,,,,,,,,,,,,,,,,,,,,,,,,,,,,,,,,,,,,,,,,,,,,,,,,,,,,,,,,,,,,,
,,614729995b2ed1d007babcc7,2024-02-22_05h20.39.520,kallum_motion_pilot,2023.2.2,Win32,30.03003003,614729995b2ed1d007babcc7,65d6bb0e977760de756971f7,65d6bd618923259cf31ece59,0.2522,0.2525,1,31,193,121,1,fiveseven,,,,,,,,,,,,,,,,,,,,,,,,,,,,,,,,,,,,,,,,,,,,,,,,,,,,,,,,,,,,,,,,,,,,,,,,,,,,,,,,,,,,,,,,,,,,,,,,,,,,,,,,,,,,,,,,,,,,,,,,,,,,,,,,,,,,,,,,,
,,614729995b2ed1d007babcc7,2024-02-22_05h20.39.520,kallum_motion_pilot,2023.2.2,Win32,30.03003003,614729995b2ed1d007babcc7,65d6bb0e977760de756971f7,65d6bd618923259cf31ece59,0.254,0.2544,1,32,194,34,1,twoone,,,,,,,,,,,,,,,,,,,,,,,,,,,,,,,,,,,,,,,,,,,,,,,,,,,,,,,,,,,,,,,,,,,,,,,,,,,,,,,,,,,,,,,,,,,,,,,,,,,,,,,,,,,,,,,,,,,,,,,,,,,,,,,,,,,,,,,,,
,,614729995b2ed1d007babcc7,2024-02-22_05h20.39.520,kallum_motion_pilot,2023.2.2,Win32,30.03003003,614729995b2ed1d007babcc7,65d6bb0e977760de756971f7,65d6bd618923259cf31ece59,0.2548,0.2551,1,33,195,55,1,fourthree,,,,,,,,,,,,,,,,,,,,,,,,,,,,,,,,,,,,,,,,,,,,,,,,,,,,,,,,,,,,,,,,,,,,,,,,,,,,,,,,,,,,,,,,,,,,,,,,,,,,,,,,,,,,,,,,,,,,,,,,,,,,,,,,,,,,,,,,,
,,614729995b2ed1d007babcc7,2024-02-22_05h20.39.520,kallum_motion_pilot,2023.2.2,Win32,30.03003003,614729995b2ed1d007babcc7,65d6bb0e977760de756971f7,65d6bd618923259cf31ece59,0.2555,0.2559,1,34,196,51,1,twofour,,,,,,,,,,,,,,,,,,,,,,,,,,,,,,,,,,,,,,,,,,,,,,,,,,,,,,,,,,,,,,,,,,,,,,,,,,,,,,,,,,,,,,,,,,,,,,,,,,,,,,,,,,,,,,,,,,,,,,,,,,,,,,,,,,,,,,,,,
,,614729995b2ed1d007babcc7,2024-02-22_05h20.39.520,kallum_motion_pilot,2023.2.2,Win32,30.03003003,614729995b2ed1d007babcc7,65d6bb0e977760de756971f7,65d6bd618923259cf31ece59,0.2563,0.2569,1,35,197,19,1,twofour,,,,,,,,,,,,,,,,,,,,,,,,,,,,,,,,,,,,,,,,,,,,,,,,,,,,,,,,,,,,,,,,,,,,,,,,,,,,,,,,,,,,,,,,,,,,,,,,,,,,,,,,,,,,,,,,,,,,,,,,,,,,,,,,,,,,,,,,,
,,614729995b2ed1d007babcc7,2024-02-22_05h20.39.520,kallum_motion_pilot,2023.2.2,Win32,30.03003003,614729995b2ed1d007babcc7,65d6bb0e977760de756971f7,65d6bd618923259cf31ece59,0.2574,0.2576,1,36,198,2,1,twoone,,,,,,,,,,,,,,,,,,,,,,,,,,,,,,,,,,,,,,,,,,,,,,,,,,,,,,,,,,,,,,,,,,,,,,,,,,,,,,,,,,,,,,,,,,,,,,,,,,,,,,,,,,,,,,,,,,,,,,,,,,,,,,,,,,,,,,,,,
,,614729995b2ed1d007babcc7,2024-02-22_05h20.39.520,kallum_motion_pilot,2023.2.2,Win32,30.03003003,614729995b2ed1d007babcc7,65d6bb0e977760de756971f7,65d6bd618923259cf31ece59,0.258,0.2584,1,37,199,147,1,sixeight,,,,,,,,,,,,,,,,,,,,,,,,,,,,,,,,,,,,,,,,,,,,,,,,,,,,,,,,,,,,,,,,,,,,,,,,,,,,,,,,,,,,,,,,,,,,,,,,,,,,,,,,,,,,,,,,,,,,,,,,,,,,,,,,,,,,,,,,,
,,614729995b2ed1d007babcc7,2024-02-22_05h20.39.520,kallum_motion_pilot,2023.2.2,Win32,30.03003003,614729995b2ed1d007babcc7,65d6bb0e977760de756971f7,65d6bd618923259cf31ece59,0.2599,0.2609,1,38,200,122,1,sixfive,,,,,,,,,,,,,,,,,,,,,,,,,,,,,,,,,,,,,,,,,,,,,,,,,,,,,,,,,,,,,,,,,,,,,,,,,,,,,,,,,,,,,,,,,,,,,,,,,,,,,,,,,,,,,,,,,,,,,,,,,,,,,,,,,,,,,,,,,
,,614729995b2ed1d007babcc7,2024-02-22_05h20.39.520,kallum_motion_pilot,2023.2.2,Win32,30.03003003,614729995b2ed1d007babcc7,65d6bb0e977760de756971f7,65d6bd618923259cf31ece59,0.2614,0.2617,1,39,201,141,1,seveneight,,,,,,,,,,,,,,,,,,,,,,,,,,,,,,,,,,,,,,,,,,,,,,,,,,,,,,,,,,,,,,,,,,,,,,,,,,,,,,,,,,,,,,,,,,,,,,,,,,,,,,,,,,,,,,,,,,,,,,,,,,,,,,,,,,,,,,,,,
,,614729995b2ed1d007babcc7,2024-02-22_05h20.39.520,kallum_motion_pilot,2023.2.2,Win32,30.03003003,614729995b2ed1d007babcc7,65d6bb0e977760de756971f7,65d6bd618923259cf31ece59,0.2622,0.2624,1,40,202,88,1,fivesix,,,,,,,,,,,,,,,,,,,,,,,,,,,,,,,,,,,,,,,,,,,,,,,,,,,,,,,,,,,,,,,,,,,,,,,,,,,,,,,,,,,,,,,,,,,,,,,,,,,,,,,,,,,,,,,,,,,,,,,,,,,,,,,,,,,,,,,,,
,,614729995b2ed1d007babcc7,2024-02-22_05h20.39.520,kallum_motion_pilot,2023.2.2,Win32,30.03003003,614729995b2ed1d007babcc7,65d6bb0e977760de756971f7,65d6bd618923259cf31ece59,0.2629,0.2632,1,41,203,52,1,threeone,,,,,,,,,,,,,,,,,,,,,,,,,,,,,,,,,,,,,,,,,,,,,,,,,,,,,,,,,,,,,,,,,,,,,,,,,,,,,,,,,,,,,,,,,,,,,,,,,,,,,,,,,,,,,,,,,,,,,,,,,,,,,,,,,,,,,,,,,
,,614729995b2ed1d007babcc7,2024-02-22_05h20.39.520,kallum_motion_pilot,2023.2.2,Win32,30.03003003,614729995b2ed1d007babcc7,65d6bb0e977760de756971f7,65d6bd618923259cf31ece59,0.2637,0.264,1,42,204,102,1,eightsix,,,,,,,,,,,,,,,,,,,,,,,,,,,,,,,,,,,,,,,,,,,,,,,,,,,,,,,,,,,,,,,,,,,,,,,,,,,,,,,,,,,,,,,,,,,,,,,,,,,,,,,,,,,,,,,,,,,,,,,,,,,,,,,,,,,,,,,,,
,,614729995b2ed1d007babcc7,2024-02-22_05h20.39.520,kallum_motion_pilot,2023.2.2,Win32,30.03003003,614729995b2ed1d007babcc7,65d6bb0e977760de756971f7,65d6bd618923259cf31ece59,0.2649,0.2652,1,43,205,136,1,fivesix,,,,,,,,,,,,,,,,,,,,,,,,,,,,,,,,,,,,,,,,,,,,,,,,,,,,,,,,,,,,,,,,,,,,,,,,,,,,,,,,,,,,,,,,,,,,,,,,,,,,,,,,,,,,,,,,,,,,,,,,,,,,,,,,,,,,,,,,,
,,614729995b2ed1d007babcc7,2024-02-22_05h20.39.520,kallum_motion_pilot,2023.2.2,Win32,30.03003003,614729995b2ed1d007babcc7,65d6bb0e977760de756971f7,65d6bd618923259cf31ece59,0.2657,0.2659,1,44,206,64,1,onetwo,,,,,,,,,,,,,,,,,,,,,,,,,,,,,,,,,,,,,,,,,,,,,,,,,,,,,,,,,,,,,,,,,,,,,,,,,,,,,,,,,,,,,,,,,,,,,,,,,,,,,,,,,,,,,,,,,,,,,,,,,,,,,,,,,,,,,,,,,
,,614729995b2ed1d007babcc7,2024-02-22_05h20.39.520,kallum_motion_pilot,2023.2.2,Win32,30.03003003,614729995b2ed1d007babcc7,65d6bb0e977760de756971f7,65d6bd618923259cf31ece59,0.2667,0.2671,1,45,207,25,1,onethree,,,,,,,,,,,,,,,,,,,,,,,,,,,,,,,,,,,,,,,,,,,,,,,,,,,,,,,,,,,,,,,,,,,,,,,,,,,,,,,,,,,,,,,,,,,,,,,,,,,,,,,,,,,,,,,,,,,,,,,,,,,,,,,,,,,,,,,,,
,,614729995b2ed1d007babcc7,2024-02-22_05h20.39.520,kallum_motion_pilot,2023.2.2,Win32,30.03003003,614729995b2ed1d007babcc7,65d6bb0e977760de756971f7,65d6bd618923259cf31ece59,0.2676,0.2679,1,46,208,57,1,onethree,,,,,,,,,,,,,,,,,,,,,,,,,,,,,,,,,,,,,,,,,,,,,,,,,,,,,,,,,,,,,,,,,,,,,,,,,,,,,,,,,,,,,,,,,,,,,,,,,,,,,,,,,,,,,,,,,,,,,,,,,,,,,,,,,,,,,,,,,
,,614729995b2ed1d007babcc7,2024-02-22_05h20.39.520,kallum_motion_pilot,2023.2.2,Win32,30.03003003,614729995b2ed1d007babcc7,65d6bb0e977760de756971f7,65d6bd618923259cf31ece59,0.2684,0.2686,1,47,209,119,1,eightseven,,,,,,,,,,,,,,,,,,,,,,,,,,,,,,,,,,,,,,,,,,,,,,,,,,,,,,,,,,,,,,,,,,,,,,,,,,,,,,,,,,,,,,,,,,,,,,,,,,,,,,,,,,,,,,,,,,,,,,,,,,,,,,,,,,,,,,,,,
,,614729995b2ed1d007babcc7,2024-02-22_05h20.39.520,kallum_motion_pilot,2023.2.2,Win32,30.03003003,614729995b2ed1d007babcc7,65d6bb0e977760de756971f7,65d6bd618923259cf31ece59,0.2691,0.2693,1,48,210,156,1,sevenfive,,,,,,,,,,,,,,,,,,,,,,,,,,,,,,,,,,,,,,,,,,,,,,,,,,,,,,,,,,,,,,,,,,,,,,,,,,,,,,,,,,,,,,,,,,,,,,,,,,,,,,,,,,,,,,,,,,,,,,,,,,,,,,,,,,,,,,,,,
,,614729995b2ed1d007babcc7,2024-02-22_05h20.39.520,kallum_motion_pilot,2023.2.2,Win32,30.03003003,614729995b2ed1d007babcc7,65d6bb0e977760de756971f7,65d6bd618923259cf31ece59,0.2698,0.2702,1,49,211,6,1,fourtwo,,,,,,,,,,,,,,,,,,,,,,,,,,,,,,,,,,,,,,,,,,,,,,,,,,,,,,,,,,,,,,,,,,,,,,,,,,,,,,,,,,,,,,,,,,,,,,,,,,,,,,,,,,,,,,,,,,,,,,,,,,,,,,,,,,,,,,,,,
,,614729995b2ed1d007babcc7,2024-02-22_05h20.39.520,kallum_motion_pilot,2023.2.2,Win32,30.03003003,614729995b2ed1d007babcc7,65d6bb0e977760de756971f7,65d6bd618923259cf31ece59,0.2707,0.2709,1,50,212,161,1,fiveseven,,,,,,,,,,,,,,,,,,,,,,,,,,,,,,,,,,,,,,,,,,,,,,,,,,,,,,,,,,,,,,,,,,,,,,,,,,,,,,,,,,,,,,,,,,,,,,,,,,,,,,,,,,,,,,,,,,,,,,,,,,,,,,,,,,,,,,,,,
,,614729995b2ed1d007babcc7,2024-02-22_05h20.39.520,kallum_motion_pilot,2023.2.2,Win32,30.03003003,614729995b2ed1d007babcc7,65d6bb0e977760de756971f7,65d6bd618923259cf31ece59,0.2714,0.2716,1,51,213,101,1,seveneight,,,,,,,,,,,,,,,,,,,,,,,,,,,,,,,,,,,,,,,,,,,,,,,,,,,,,,,,,,,,,,,,,,,,,,,,,,,,,,,,,,,,,,,,,,,,,,,,,,,,,,,,,,,,,,,,,,,,,,,,,,,,,,,,,,,,,,,,,
,,614729995b2ed1d007babcc7,2024-02-22_05h20.39.520,kallum_motion_pilot,2023.2.2,Win32,30.03003003,614729995b2ed1d007babcc7,65d6bb0e977760de756971f7,65d6bd618923259cf31ece59,0.2722,0.2726,1,52,214,110,1,eightsix,,,,,,,,,,,,,,,,,,,,,,,,,,,,,,,,,,,,,,,,,,,,,,,,,,,,,,,,,,,,,,,,,,,,,,,,,,,,,,,,,,,,,,,,,,,,,,,,,,,,,,,,,,,,,,,,,,,,,,,,,,,,,,,,,,,,,,,,,
,,614729995b2ed1d007babcc7,2024-02-22_05h20.39.520,kallum_motion_pilot,2023.2.2,Win32,30.03003003,614729995b2ed1d007babcc7,65d6bb0e977760de756971f7,65d6bd618923259cf31ece59,0.2729,0.2732,1,53,215,69,1,threefour,,,,,,,,,,,,,,,,,,,,,,,,,,,,,,,,,,,,,,,,,,,,,,,,,,,,,,,,,,,,,,,,,,,,,,,,,,,,,,,,,,,,,,,,,,,,,,,,,,,,,,,,,,,,,,,,,,,,,,,,,,,,,,,,,,,,,,,,,
,,614729995b2ed1d007babcc7,2024-02-22_05h20.39.520,kallum_motion_pilot,2023.2.2,Win32,30.03003003,614729995b2ed1d007babcc7,65d6bb0e977760de756971f7,65d6bd618923259cf31ece59,0.2739,0.2742,1,54,216,70,1,fourtwo,,,,,,,,,,,,,,,,,,,,,,,,,,,,,,,,,,,,,,,,,,,,,,,,,,,,,,,,,,,,,,,,,,,,,,,,,,,,,,,,,,,,,,,,,,,,,,,,,,,,,,,,,,,,,,,,,,,,,,,,,,,,,,,,,,,,,,,,,
,,614729995b2ed1d007babcc7,2024-02-22_05h20.39.520,kallum_motion_pilot,2023.2.2,Win32,30.03003003,614729995b2ed1d007babcc7,65d6bb0e977760de756971f7,65d6bd618923259cf31ece59,0.2747,0.275,1,55,217,85,1,seveneight,,,,,,,,,,,,,,,,,,,,,,,,,,,,,,,,,,,,,,,,,,,,,,,,,,,,,,,,,,,,,,,,,,,,,,,,,,,,,,,,,,,,,,,,,,,,,,,,,,,,,,,,,,,,,,,,,,,,,,,,,,,,,,,,,,,,,,,,,
,,614729995b2ed1d007babcc7,2024-02-22_05h20.39.520,kallum_motion_pilot,2023.2.2,Win32,30.03003003,614729995b2ed1d007babcc7,65d6bb0e977760de756971f7,65d6bd618923259cf31ece59,0.2754,0.2757,1,56,218,124,1,sevenfive,,,,,,,,,,,,,,,,,,,,,,,,,,,,,,,,,,,,,,,,,,,,,,,,,,,,,,,,,,,,,,,,,,,,,,,,,,,,,,,,,,,,,,,,,,,,,,,,,,,,,,,,,,,,,,,,,,,,,,,,,,,,,,,,,,,,,,,,,
,,614729995b2ed1d007babcc7,2024-02-22_05h20.39.520,kallum_motion_pilot,2023.2.2,Win32,30.03003003,614729995b2ed1d007babcc7,65d6bb0e977760de756971f7,65d6bd618923259cf31ece59,0.276,0.2763,1,57,219,47,1,fourthree,,,,,,,,,,,,,,,,,,,,,,,,,,,,,,,,,,,,,,,,,,,,,,,,,,,,,,,,,,,,,,,,,,,,,,,,,,,,,,,,,,,,,,,,,,,,,,,,,,,,,,,,,,,,,,,,,,,,,,,,,,,,,,,,,,,,,,,,,
,,614729995b2ed1d007babcc7,2024-02-22_05h20.39.520,kallum_motion_pilot,2023.2.2,Win32,30.03003003,614729995b2ed1d007babcc7,65d6bb0e977760de756971f7,65d6bd618923259cf31ece59,0.2775,0.2778,1,58,220,1,1,onethree,,,,,,,,,,,,,,,,,,,,,,,,,,,,,,,,,,,,,,,,,,,,,,,,,,,,,,,,,,,,,,,,,,,,,,,,,,,,,,,,,,,,,,,,,,,,,,,,,,,,,,,,,,,,,,,,,,,,,,,,,,,,,,,,,,,,,,,,,
,,614729995b2ed1d007babcc7,2024-02-22_05h20.39.520,kallum_motion_pilot,2023.2.2,Win32,30.03003003,614729995b2ed1d007babcc7,65d6bb0e977760de756971f7,65d6bd618923259cf31ece59,0.2786,0.2788,1,59,221,144,1,fivesix,,,,,,,,,,,,,,,,,,,,,,,,,,,,,,,,,,,,,,,,,,,,,,,,,,,,,,,,,,,,,,,,,,,,,,,,,,,,,,,,,,,,,,,,,,,,,,,,,,,,,,,,,,,,,,,,,,,,,,,,,,,,,,,,,,,,,,,,,
,,614729995b2ed1d007babcc7,2024-02-22_05h20.39.520,kallum_motion_pilot,2023.2.2,Win32,30.03003003,614729995b2ed1d007babcc7,65d6bb0e977760de756971f7,65d6bd618923259cf31ece59,0.2797,0.2801,1,60,222,145,1,fiveseven,,,,,,,,,,,,,,,,,,,,,,,,,,,,,,,,,,,,,,,,,,,,,,,,,,,,,,,,,,,,,,,,,,,,,,,,,,,,,,,,,,,,,,,,,,,,,,,,,,,,,,,,,,,,,,,,,,,,,,,,,,,,,,,,,,,,,,,,,
,,614729995b2ed1d007babcc7,2024-02-22_05h20.39.520,kallum_motion_pilot,2023.2.2,Win32,30.03003003,614729995b2ed1d007babcc7,65d6bb0e977760de756971f7,65d6bd618923259cf31ece59,0.2806,0.2809,1,61,223,65,1,onethree,,,,,,,,,,,,,,,,,,,,,,,,,,,,,,,,,,,,,,,,,,,,,,,,,,,,,,,,,,,,,,,,,,,,,,,,,,,,,,,,,,,,,,,,,,,,,,,,,,,,,,,,,,,,,,,,,,,,,,,,,,,,,,,,,,,,,,,,,
,,614729995b2ed1d007babcc7,2024-02-22_05h20.39.520,kallum_motion_pilot,2023.2.2,Win32,30.03003003,614729995b2ed1d007babcc7,65d6bb0e977760de756971f7,65d6bd618923259cf31ece59,0.2818,0.282,1,62,224,53,1,threefour,,,,,,,,,,,,,,,,,,,,,,,,,,,,,,,,,,,,,,,,,,,,,,,,,,,,,,,,,,,,,,,,,,,,,,,,,,,,,,,,,,,,,,,,,,,,,,,,,,,,,,,,,,,,,,,,,,,,,,,,,,,,,,,,,,,,,,,,,
,,614729995b2ed1d007babcc7,2024-02-22_05h20.39.520,kallum_motion_pilot,2023.2.2,Win32,30.03003003,614729995b2ed1d007babcc7,65d6bb0e977760de756971f7,65d6bd618923259cf31ece59,0.2826,0.2828,1,63,225,115,1,sixeight,,,,,,,,,,,,,,,,,,,,,,,,,,,,,,,,,,,,,,,,,,,,,,,,,,,,,,,,,,,,,,,,,,,,,,,,,,,,,,,,,,,,,,,,,,,,,,,,,,,,,,,,,,,,,,,,,,,,,,,,,,,,,,,,,,,,,,,,,
,,614729995b2ed1d007babcc7,2024-02-22_05h20.39.520,kallum_motion_pilot,2023.2.2,Win32,30.03003003,614729995b2ed1d007babcc7,65d6bb0e977760de756971f7,65d6bd618923259cf31ece59,0.2833,0.2837,1,64,226,151,1,eightseven,,,,,,,,,,,,,,,,,,,,,,,,,,,,,,,,,,,,,,,,,,,,,,,,,,,,,,,,,,,,,,,,,,,,,,,,,,,,,,,,,,,,,,,,,,,,,,,,,,,,,,,,,,,,,,,,,,,,,,,,,,,,,,,,,,,,,,,,,
,,614729995b2ed1d007babcc7,2024-02-22_05h20.39.520,kallum_motion_pilot,2023.2.2,Win32,30.03003003,614729995b2ed1d007babcc7,65d6bb0e977760de756971f7,65d6bd618923259cf31ece59,0.2841,0.2843,1,65,227,39,1,fourthree,,,,,,,,,,,,,,,,,,,,,,,,,,,,,,,,,,,,,,,,,,,,,,,,,,,,,,,,,,,,,,,,,,,,,,,,,,,,,,,,,,,,,,,,,,,,,,,,,,,,,,,,,,,,,,,,,,,,,,,,,,,,,,,,,,,,,,,,,
,,614729995b2ed1d007babcc7,2024-02-22_05h20.39.520,kallum_motion_pilot,2023.2.2,Win32,30.03003003,614729995b2ed1d007babcc7,65d6bb0e977760de756971f7,65d6bd618923259cf31ece59,0.2847,0.285,1,66,228,43,1,twofour,,,,,,,,,,,,,,,,,,,,,,,,,,,,,,,,,,,,,,,,,,,,,,,,,,,,,,,,,,,,,,,,,,,,,,,,,,,,,,,,,,,,,,,,,,,,,,,,,,,,,,,,,,,,,,,,,,,,,,,,,,,,,,,,,,,,,,,,,
,,614729995b2ed1d007babcc7,2024-02-22_05h20.39.520,kallum_motion_pilot,2023.2.2,Win32,30.03003003,614729995b2ed1d007babcc7,65d6bb0e977760de756971f7,65d6bd618923259cf31ece59,0.2853,0.2856,1,67,229,42,1,twoone,,,,,,,,,,,,,,,,,,,,,,,,,,,,,,,,,,,,,,,,,,,,,,,,,,,,,,,,,,,,,,,,,,,,,,,,,,,,,,,,,,,,,,,,,,,,,,,,,,,,,,,,,,,,,,,,,,,,,,,,,,,,,,,,,,,,,,,,,
,,614729995b2ed1d007babcc7,2024-02-22_05h20.39.520,kallum_motion_pilot,2023.2.2,Win32,30.03003003,614729995b2ed1d007babcc7,65d6bb0e977760de756971f7,65d6bd618923259cf31ece59,0.2859,0.2862,1,68,230,5,1,threefour,,,,,,,,,,,,,,,,,,,,,,,,,,,,,,,,,,,,,,,,,,,,,,,,,,,,,,,,,,,,,,,,,,,,,,,,,,,,,,,,,,,,,,,,,,,,,,,,,,,,,,,,,,,,,,,,,,,,,,,,,,,,,,,,,,,,,,,,,
,,614729995b2ed1d007babcc7,2024-02-22_05h20.39.520,kallum_motion_pilot,2023.2.2,Win32,30.03003003,614729995b2ed1d007babcc7,65d6bb0e977760de756971f7,65d6bd618923259cf31ece59,0.2866,0.2869,1,69,231,92,1,sevenfive,,,,,,,,,,,,,,,,,,,,,,,,,,,,,,,,,,,,,,,,,,,,,,,,,,,,,,,,,,,,,,,,,,,,,,,,,,,,,,,,,,,,,,,,,,,,,,,,,,,,,,,,,,,,,,,,,,,,,,,,,,,,,,,,,,,,,,,,,
,,614729995b2ed1d007babcc7,2024-02-22_05h20.39.520,kallum_motion_pilot,2023.2.2,Win32,30.03003003,614729995b2ed1d007babcc7,65d6bb0e977760de756971f7,65d6bd618923259cf31ece59,0.2872,0.2875,1,70,232,91,1,sixeight,,,,,,,,,,,,,,,,,,,,,,,,,,,,,,,,,,,,,,,,,,,,,,,,,,,,,,,,,,,,,,,,,,,,,,,,,,,,,,,,,,,,,,,,,,,,,,,,,,,,,,,,,,,,,,,,,,,,,,,,,,,,,,,,,,,,,,,,,
,,614729995b2ed1d007babcc7,2024-02-22_05h20.39.520,kallum_motion_pilot,2023.2.2,Win32,30.03003003,614729995b2ed1d007babcc7,65d6bb0e977760de756971f7,65d6bd618923259cf31ece59,0.2878,0.2882,1,71,233,116,1,sevenfive,,,,,,,,,,,,,,,,,,,,,,,,,,,,,,,,,,,,,,,,,,,,,,,,,,,,,,,,,,,,,,,,,,,,,,,,,,,,,,,,,,,,,,,,,,,,,,,,,,,,,,,,,,,,,,,,,,,,,,,,,,,,,,,,,,,,,,,,,
,,614729995b2ed1d007babcc7,2024-02-22_05h20.39.520,kallum_motion_pilot,2023.2.2,Win32,30.03003003,614729995b2ed1d007babcc7,65d6bb0e977760de756971f7,65d6bd618923259cf31ece59,0.2885,0.2887,1,72,234,140,1,sevenfive,,,,,,,,,,,,,,,,,,,,,,,,,,,,,,,,,,,,,,,,,,,,,,,,,,,,,,,,,,,,,,,,,,,,,,,,,,,,,,,,,,,,,,,,,,,,,,,,,,,,,,,,,,,,,,,,,,,,,,,,,,,,,,,,,,,,,,,,,
,,614729995b2ed1d007babcc7,2024-02-22_05h20.39.520,kallum_motion_pilot,2023.2.2,Win32,30.03003003,614729995b2ed1d007babcc7,65d6bb0e977760de756971f7,65d6bd618923259cf31ece59,0.2897,0.2901,1,73,235,10,1,twoone,,,,,,,,,,,,,,,,,,,,,,,,,,,,,,,,,,,,,,,,,,,,,,,,,,,,,,,,,,,,,,,,,,,,,,,,,,,,,,,,,,,,,,,,,,,,,,,,,,,,,,,,,,,,,,,,,,,,,,,,,,,,,,,,,,,,,,,,,
,,614729995b2ed1d007babcc7,2024-02-22_05h20.39.520,kallum_motion_pilot,2023.2.2,Win32,30.03003003,614729995b2ed1d007babcc7,65d6bb0e977760de756971f7,65d6bd618923259cf31ece59,0.2906,0.2909,1,74,236,120,1,fivesix,,,,,,,,,,,,,,,,,,,,,,,,,,,,,,,,,,,,,,,,,,,,,,,,,,,,,,,,,,,,,,,,,,,,,,,,,,,,,,,,,,,,,,,,,,,,,,,,,,,,,,,,,,,,,,,,,,,,,,,,,,,,,,,,,,,,,,,,,
,,614729995b2ed1d007babcc7,2024-02-22_05h20.39.520,kallum_motion_pilot,2023.2.2,Win32,30.03003003,614729995b2ed1d007babcc7,65d6bb0e977760de756971f7,65d6bd618923259cf31ece59,0.2912,0.2914,1,75,237,155,1,sixeight,,,,,,,,,,,,,,,,,,,,,,,,,,,,,,,,,,,,,,,,,,,,,,,,,,,,,,,,,,,,,,,,,,,,,,,,,,,,,,,,,,,,,,,,,,,,,,,,,,,,,,,,,,,,,,,,,,,,,,,,,,,,,,,,,,,,,,,,,
,,614729995b2ed1d007babcc7,2024-02-22_05h20.39.520,kallum_motion_pilot,2023.2.2,Win32,30.03003003,614729995b2ed1d007babcc7,65d6bb0e977760de756971f7,65d6bd618923259cf31ece59,0.2917,0.2918,1,76,238,87,1,eightseven,,,,,,,,,,,,,,,,,,,,,,,,,,,,,,,,,,,,,,,,,,,,,,,,,,,,,,,,,,,,,,,,,,,,,,,,,,,,,,,,,,,,,,,,,,,,,,,,,,,,,,,,,,,,,,,,,,,,,,,,,,,,,,,,,,,,,,,,,
,,614729995b2ed1d007babcc7,2024-02-22_05h20.39.520,kallum_motion_pilot,2023.2.2,Win32,30.03003003,614729995b2ed1d007babcc7,65d6bb0e977760de756971f7,65d6bd618923259cf31ece59,0.2921,0.2922,1,77,239,113,1,fiveseven,,,,,,,,,,,,,,,,,,,,,,,,,,,,,,,,,,,,,,,,,,,,,,,,,,,,,,,,,,,,,,,,,,,,,,,,,,,,,,,,,,,,,,,,,,,,,,,,,,,,,,,,,,,,,,,,,,,,,,,,,,,,,,,,,,,,,,,,,
,,614729995b2ed1d007babcc7,2024-02-22_05h20.39.520,kallum_motion_pilot,2023.2.2,Win32,30.03003003,614729995b2ed1d007babcc7,65d6bb0e977760de756971f7,65d6bd618923259cf31ece59,0.2924,0.2927,1,78,240,13,1,threefour,,,,,,,,,,,,,,,,,,,,,,,,,,,,,,,,,,,,,,,,,,,,,,,,,,,,,,,,,,,,,,,,,,,,,,,,,,,,,,,,,,,,,,,,,,,,,,,,,,,,,,,,,,,,,,,,,,,,,,,,,,,,,,,,,,,,,,,,,
,,614729995b2ed1d007babcc7,2024-02-22_05h20.39.520,kallum_motion_pilot,2023.2.2,Win32,30.03003003,614729995b2ed1d007babcc7,65d6bb0e977760de756971f7,65d6bd618923259cf31ece59,0.2929,0.2931,1,79,241,41,1,onethree,,,,,,,,,,,,,,,,,,,,,,,,,,,,,,,,,,,,,,,,,,,,,,,,,,,,,,,,,,,,,,,,,,,,,,,,,,,,,,,,,,,,,,,,,,,,,,,,,,,,,,,,,,,,,,,,,,,,,,,,,,,,,,,,,,,,,,,,,
,,614729995b2ed1d007babcc7,2024-02-22_05h20.39.520,kallum_motion_pilot,2023.2.2,Win32,30.03003003,614729995b2ed1d007babcc7,65d6bb0e977760de756971f7,65d6bd618923259cf31ece59,0.2934,0.294,1,80,242,11,1,twofour,,,,,,,,,,,,,,,,,,,,,,,,,,,,,,,,,,,,,,,,,,,,,,,,,,,,,,,,,,,,,,,,,,,,,,,,,,,,,,,,,,,,,,,,,,,,,,,,,,,,,,,,,,,,,,,,,,,,,,,,,,,,,,,,,,,,,,,,,
,,614729995b2ed1d007babcc7,2024-02-22_05h20.39.520,kallum_motion_pilot,2023.2.2,Win32,30.03003003,614729995b2ed1d007babcc7,65d6bb0e977760de756971f7,65d6bd618923259cf31ece59,0.2944,0.2946,1,81,243,72,1,onetwo,,,,,,,,,,,,,,,,,,,,,,,,,,,,,,,,,,,,,,,,,,,,,,,,,,,,,,,,,,,,,,,,,,,,,,,,,,,,,,,,,,,,,,,,,,,,,,,,,,,,,,,,,,,,,,,,,,,,,,,,,,,,,,,,,,,,,,,,,
,,614729995b2ed1d007babcc7,2024-02-22_05h20.39.520,kallum_motion_pilot,2023.2.2,Win32,30.03003003,614729995b2ed1d007babcc7,65d6bb0e977760de756971f7,65d6bd618923259cf31ece59,0.2949,0.2952,1,82,244,32,1,onetwo,,,,,,,,,,,,,,,,,,,,,,,,,,,,,,,,,,,,,,,,,,,,,,,,,,,,,,,,,,,,,,,,,,,,,,,,,,,,,,,,,,,,,,,,,,,,,,,,,,,,,,,,,,,,,,,,,,,,,,,,,,,,,,,,,,,,,,,,,
,,614729995b2ed1d007babcc7,2024-02-22_05h20.39.520,kallum_motion_pilot,2023.2.2,Win32,30.03003003,614729995b2ed1d007babcc7,65d6bb0e977760de756971f7,65d6bd618923259cf31ece59,0.2956,0.2959,1,83,245,152,1,fivesix,,,,,,,,,,,,,,,,,,,,,,,,,,,,,,,,,,,,,,,,,,,,,,,,,,,,,,,,,,,,,,,,,,,,,,,,,,,,,,,,,,,,,,,,,,,,,,,,,,,,,,,,,,,,,,,,,,,,,,,,,,,,,,,,,,,,,,,,,
,,614729995b2ed1d007babcc7,2024-02-22_05h20.39.520,kallum_motion_pilot,2023.2.2,Win32,30.03003003,614729995b2ed1d007babcc7,65d6bb0e977760de756971f7,65d6bd618923259cf31ece59,0.2963,0.2966,1,84,246,54,1,fourtwo,,,,,,,,,,,,,,,,,,,,,,,,,,,,,,,,,,,,,,,,,,,,,,,,,,,,,,,,,,,,,,,,,,,,,,,,,,,,,,,,,,,,,,,,,,,,,,,,,,,,,,,,,,,,,,,,,,,,,,,,,,,,,,,,,,,,,,,,,
,,614729995b2ed1d007babcc7,2024-02-22_05h20.39.520,kallum_motion_pilot,2023.2.2,Win32,30.03003003,614729995b2ed1d007babcc7,65d6bb0e977760de756971f7,65d6bd618923259cf31ece59,0.2972,0.2974,1,85,247,114,1,sixfive,,,,,,,,,,,,,,,,,,,,,,,,,,,,,,,,,,,,,,,,,,,,,,,,,,,,,,,,,,,,,,,,,,,,,,,,,,,,,,,,,,,,,,,,,,,,,,,,,,,,,,,,,,,,,,,,,,,,,,,,,,,,,,,,,,,,,,,,,
,,614729995b2ed1d007babcc7,2024-02-22_05h20.39.520,kallum_motion_pilot,2023.2.2,Win32,30.03003003,614729995b2ed1d007babcc7,65d6bb0e977760de756971f7,65d6bd618923259cf31ece59,0.2979,0.2983,1,86,248,17,1,onethree,,,,,,,,,,,,,,,,,,,,,,,,,,,,,,,,,,,,,,,,,,,,,,,,,,,,,,,,,,,,,,,,,,,,,,,,,,,,,,,,,,,,,,,,,,,,,,,,,,,,,,,,,,,,,,,,,,,,,,,,,,,,,,,,,,,,,,,,,
,,614729995b2ed1d007babcc7,2024-02-22_05h20.39.520,kallum_motion_pilot,2023.2.2,Win32,30.03003003,614729995b2ed1d007babcc7,65d6bb0e977760de756971f7,65d6bd618923259cf31ece59,0.2985,0.2989,1,87,249,149,1,seveneight,,,,,,,,,,,,,,,,,,,,,,,,,,,,,,,,,,,,,,,,,,,,,,,,,,,,,,,,,,,,,,,,,,,,,,,,,,,,,,,,,,,,,,,,,,,,,,,,,,,,,,,,,,,,,,,,,,,,,,,,,,,,,,,,,,,,,,,,,
,,614729995b2ed1d007babcc7,2024-02-22_05h20.39.520,kallum_motion_pilot,2023.2.2,Win32,30.03003003,614729995b2ed1d007babcc7,65d6bb0e977760de756971f7,65d6bd618923259cf31ece59,0.2991,0.2994,1,88,250,60,1,threeone,,,,,,,,,,,,,,,,,,,,,,,,,,,,,,,,,,,,,,,,,,,,,,,,,,,,,,,,,,,,,,,,,,,,,,,,,,,,,,,,,,,,,,,,,,,,,,,,,,,,,,,,,,,,,,,,,,,,,,,,,,,,,,,,,,,,,,,,,
,,614729995b2ed1d007babcc7,2024-02-22_05h20.39.520,kallum_motion_pilot,2023.2.2,Win32,30.03003003,614729995b2ed1d007babcc7,65d6bb0e977760de756971f7,65d6bd618923259cf31ece59,0.2999,0.3002,1,89,251,40,1,onetwo,,,,,,,,,,,,,,,,,,,,,,,,,,,,,,,,,,,,,,,,,,,,,,,,,,,,,,,,,,,,,,,,,,,,,,,,,,,,,,,,,,,,,,,,,,,,,,,,,,,,,,,,,,,,,,,,,,,,,,,,,,,,,,,,,,,,,,,,,
,,614729995b2ed1d007babcc7,2024-02-22_05h20.39.520,kallum_motion_pilot,2023.2.2,Win32,30.03003003,614729995b2ed1d007babcc7,65d6bb0e977760de756971f7,65d6bd618923259cf31ece59,0.3004,0.3007,1,90,252,89,1,fiveseven,,,,,,,,,,,,,,,,,,,,,,,,,,,,,,,,,,,,,,,,,,,,,,,,,,,,,,,,,,,,,,,,,,,,,,,,,,,,,,,,,,,,,,,,,,,,,,,,,,,,,,,,,,,,,,,,,,,,,,,,,,,,,,,,,,,,,,,,,
,,614729995b2ed1d007babcc7,2024-02-22_05h20.39.520,kallum_motion_pilot,2023.2.2,Win32,30.03003003,614729995b2ed1d007babcc7,65d6bb0e977760de756971f7,65d6bd618923259cf31ece59,0.3011,0.3014,1,91,253,134,1,eightsix,,,,,,,,,,,,,,,,,,,,,,,,,,,,,,,,,,,,,,,,,,,,,,,,,,,,,,,,,,,,,,,,,,,,,,,,,,,,,,,,,,,,,,,,,,,,,,,,,,,,,,,,,,,,,,,,,,,,,,,,,,,,,,,,,,,,,,,,,
,,614729995b2ed1d007babcc7,2024-02-22_05h20.39.520,kallum_motion_pilot,2023.2.2,Win32,30.03003003,614729995b2ed1d007babcc7,65d6bb0e977760de756971f7,65d6bd618923259cf31ece59,0.3017,0.302,1,92,254,104,1,fivesix,,,,,,,,,,,,,,,,,,,,,,,,,,,,,,,,,,,,,,,,,,,,,,,,,,,,,,,,,,,,,,,,,,,,,,,,,,,,,,,,,,,,,,,,,,,,,,,,,,,,,,,,,,,,,,,,,,,,,,,,,,,,,,,,,,,,,,,,,
,,614729995b2ed1d007babcc7,2024-02-22_05h20.39.520,kallum_motion_pilot,2023.2.2,Win32,30.03003003,614729995b2ed1d007babcc7,65d6bb0e977760de756971f7,65d6bd618923259cf31ece59,0.3026,0.3031,1,93,255,98,1,sixfive,,,,,,,,,,,,,,,,,,,,,,,,,,,,,,,,,,,,,,,,,,,,,,,,,,,,,,,,,,,,,,,,,,,,,,,,,,,,,,,,,,,,,,,,,,,,,,,,,,,,,,,,,,,,,,,,,,,,,,,,,,,,,,,,,,,,,,,,,
,,614729995b2ed1d007babcc7,2024-02-22_05h20.39.520,kallum_motion_pilot,2023.2.2,Win32,30.03003003,614729995b2ed1d007babcc7,65d6bb0e977760de756971f7,65d6bd618923259cf31ece59,0.3034,0.3036,1,94,256,94,1,eightsix,,,,,,,,,,,,,,,,,,,,,,,,,,,,,,,,,,,,,,,,,,,,,,,,,,,,,,,,,,,,,,,,,,,,,,,,,,,,,,,,,,,,,,,,,,,,,,,,,,,,,,,,,,,,,,,,,,,,,,,,,,,,,,,,,,,,,,,,,
,,614729995b2ed1d007babcc7,2024-02-22_05h20.39.520,kallum_motion_pilot,2023.2.2,Win32,30.03003003,614729995b2ed1d007babcc7,65d6bb0e977760de756971f7,65d6bd618923259cf31ece59,0.3039,0.3042,1,95,257,157,1,seveneight,,,,,,,,,,,,,,,,,,,,,,,,,,,,,,,,,,,,,,,,,,,,,,,,,,,,,,,,,,,,,,,,,,,,,,,,,,,,,,,,,,,,,,,,,,,,,,,,,,,,,,,,,,,,,,,,,,,,,,,,,,,,,,,,,,,,,,,,,
,,614729995b2ed1d007babcc7,2024-02-22_05h20.39.520,kallum_motion_pilot,2023.2.2,Win32,30.03003003,614729995b2ed1d007babcc7,65d6bb0e977760de756971f7,65d6bd618923259cf31ece59,0.3049,0.3052,1,96,258,9,1,onethree,,,,,,,,,,,,,,,,,,,,,,,,,,,,,,,,,,,,,,,,,,,,,,,,,,,,,,,,,,,,,,,,,,,,,,,,,,,,,,,,,,,,,,,,,,,,,,,,,,,,,,,,,,,,,,,,,,,,,,,,,,,,,,,,,,,,,,,,,
,,614729995b2ed1d007babcc7,2024-02-22_05h20.39.520,kallum_motion_pilot,2023.2.2,Win32,30.03003003,614729995b2ed1d007babcc7,65d6bb0e977760de756971f7,65d6bd618923259cf31ece59,0.3056,0.3058,1,97,259,3,1,twofour,,,,,,,,,,,,,,,,,,,,,,,,,,,,,,,,,,,,,,,,,,,,,,,,,,,,,,,,,,,,,,,,,,,,,,,,,,,,,,,,,,,,,,,,,,,,,,,,,,,,,,,,,,,,,,,,,,,,,,,,,,,,,,,,,,,,,,,,,
,,614729995b2ed1d007babcc7,2024-02-22_05h20.39.520,kallum_motion_pilot,2023.2.2,Win32,30.03003003,614729995b2ed1d007babcc7,65d6bb0e977760de756971f7,65d6bd618923259cf31ece59,0.3061,0.3064,1,98,260,49,1,onethree,,,,,,,,,,,,,,,,,,,,,,,,,,,,,,,,,,,,,,,,,,,,,,,,,,,,,,,,,,,,,,,,,,,,,,,,,,,,,,,,,,,,,,,,,,,,,,,,,,,,,,,,,,,,,,,,,,,,,,,,,,,,,,,,,,,,,,,,,
,,614729995b2ed1d007babcc7,2024-02-22_05h20.39.520,kallum_motion_pilot,2023.2.2,Win32,30.03003003,614729995b2ed1d007babcc7,65d6bb0e977760de756971f7,65d6bd618923259cf31ece59,0.3066,0.3069,1,99,261,28,1,threeone,,,,,,,,,,,,,,,,,,,,,,,,,,,,,,,,,,,,,,,,,,,,,,,,,,,,,,,,,,,,,,,,,,,,,,,,,,,,,,,,,,,,,,,,,,,,,,,,,,,,,,,,,,,,,,,,,,,,,,,,,,,,,,,,,,,,,,,,,
,,614729995b2ed1d007babcc7,2024-02-22_05h20.39.520,kallum_motion_pilot,2023.2.2,Win32,30.03003003,614729995b2ed1d007babcc7,65d6bb0e977760de756971f7,65d6bd618923259cf31ece59,0.3072,0.3074,1,100,262,79,1,eightseven,,,,,,,,,,,,,,,,,,,,,,,,,,,,,,,,,,,,,,,,,,,,,,,,,,,,,,,,,,,,,,,,,,,,,,,,,,,,,,,,,,,,,,,,,,,,,,,,,,,,,,,,,,,,,,,,,,,,,,,,,,,,,,,,,,,,,,,,,
,,614729995b2ed1d007babcc7,2024-02-22_05h20.39.520,kallum_motion_pilot,2023.2.2,Win32,30.03003003,614729995b2ed1d007babcc7,65d6bb0e977760de756971f7,65d6bd618923259cf31ece59,0.3079,0.3081,1,101,263,12,1,threeone,,,,,,,,,,,,,,,,,,,,,,,,,,,,,,,,,,,,,,,,,,,,,,,,,,,,,,,,,,,,,,,,,,,,,,,,,,,,,,,,,,,,,,,,,,,,,,,,,,,,,,,,,,,,,,,,,,,,,,,,,,,,,,,,,,,,,,,,,
,,614729995b2ed1d007babcc7,2024-02-22_05h20.39.520,kallum_motion_pilot,2023.2.2,Win32,30.03003003,614729995b2ed1d007babcc7,65d6bb0e977760de756971f7,65d6bd618923259cf31ece59,0.3084,0.3087,1,102,264,37,1,threefour,,,,,,,,,,,,,,,,,,,,,,,,,,,,,,,,,,,,,,,,,,,,,,,,,,,,,,,,,,,,,,,,,,,,,,,,,,,,,,,,,,,,,,,,,,,,,,,,,,,,,,,,,,,,,,,,,,,,,,,,,,,,,,,,,,,,,,,,,
,,614729995b2ed1d007babcc7,2024-02-22_05h20.39.520,kallum_motion_pilot,2023.2.2,Win32,30.03003003,614729995b2ed1d007babcc7,65d6bb0e977760de756971f7,65d6bd618923259cf31ece59,0.3091,0.3092,1,103,265,15,1,fourthree,,,,,,,,,,,,,,,,,,,,,,,,,,,,,,,,,,,,,,,,,,,,,,,,,,,,,,,,,,,,,,,,,,,,,,,,,,,,,,,,,,,,,,,,,,,,,,,,,,,,,,,,,,,,,,,,,,,,,,,,,,,,,,,,,,,,,,,,,
,,614729995b2ed1d007babcc7,2024-02-22_05h20.39.520,kallum_motion_pilot,2023.2.2,Win32,30.03003003,614729995b2ed1d007babcc7,65d6bb0e977760de756971f7,65d6bd618923259cf31ece59,0.3095,0.3096,1,104,266,105,1,fiveseven,,,,,,,,,,,,,,,,,,,,,,,,,,,,,,,,,,,,,,,,,,,,,,,,,,,,,,,,,,,,,,,,,,,,,,,,,,,,,,,,,,,,,,,,,,,,,,,,,,,,,,,,,,,,,,,,,,,,,,,,,,,,,,,,,,,,,,,,,
,,614729995b2ed1d007babcc7,2024-02-22_05h20.39.520,kallum_motion_pilot,2023.2.2,Win32,30.03003003,614729995b2ed1d007babcc7,65d6bb0e977760de756971f7,65d6bd618923259cf31ece59,0.3104,0.3108,1,105,267,160,1,fivesix,,,,,,,,,,,,,,,,,,,,,,,,,,,,,,,,,,,,,,,,,,,,,,,,,,,,,,,,,,,,,,,,,,,,,,,,,,,,,,,,,,,,,,,,,,,,,,,,,,,,,,,,,,,,,,,,,,,,,,,,,,,,,,,,,,,,,,,,,
,,614729995b2ed1d007babcc7,2024-02-22_05h20.39.520,kallum_motion_pilot,2023.2.2,Win32,30.03003003,614729995b2ed1d007babcc7,65d6bb0e977760de756971f7,65d6bd618923259cf31ece59,0.3112,0.3114,1,106,268,90,1,sixfive,,,,,,,,,,,,,,,,,,,,,,,,,,,,,,,,,,,,,,,,,,,,,,,,,,,,,,,,,,,,,,,,,,,,,,,,,,,,,,,,,,,,,,,,,,,,,,,,,,,,,,,,,,,,,,,,,,,,,,,,,,,,,,,,,,,,,,,,,
,,614729995b2ed1d007babcc7,2024-02-22_05h20.39.520,kallum_motion_pilot,2023.2.2,Win32,30.03003003,614729995b2ed1d007babcc7,65d6bb0e977760de756971f7,65d6bd618923259cf31ece59,0.3118,0.312,1,107,269,77,1,threefour,,,,,,,,,,,,,,,,,,,,,,,,,,,,,,,,,,,,,,,,,,,,,,,,,,,,,,,,,,,,,,,,,,,,,,,,,,,,,,,,,,,,,,,,,,,,,,,,,,,,,,,,,,,,,,,,,,,,,,,,,,,,,,,,,,,,,,,,,
,,614729995b2ed1d007babcc7,2024-02-22_05h20.39.520,kallum_motion_pilot,2023.2.2,Win32,30.03003003,614729995b2ed1d007babcc7,65d6bb0e977760de756971f7,65d6bd618923259cf31ece59,0.3126,0.3131,1,108,270,76,1,threeone,,,,,,,,,,,,,,,,,,,,,,,,,,,,,,,,,,,,,,,,,,,,,,,,,,,,,,,,,,,,,,,,,,,,,,,,,,,,,,,,,,,,,,,,,,,,,,,,,,,,,,,,,,,,,,,,,,,,,,,,,,,,,,,,,,,,,,,,,
,,614729995b2ed1d007babcc7,2024-02-22_05h20.39.520,kallum_motion_pilot,2023.2.2,Win32,30.03003003,614729995b2ed1d007babcc7,65d6bb0e977760de756971f7,65d6bd618923259cf31ece59,0.3136,0.3139,1,109,271,36,1,threeone,,,,,,,,,,,,,,,,,,,,,,,,,,,,,,,,,,,,,,,,,,,,,,,,,,,,,,,,,,,,,,,,,,,,,,,,,,,,,,,,,,,,,,,,,,,,,,,,,,,,,,,,,,,,,,,,,,,,,,,,,,,,,,,,,,,,,,,,,
,,614729995b2ed1d007babcc7,2024-02-22_05h20.39.520,kallum_motion_pilot,2023.2.2,Win32,30.03003003,614729995b2ed1d007babcc7,65d6bb0e977760de756971f7,65d6bd618923259cf31ece59,0.3142,0.3146,1,110,272,67,1,twofour,,,,,,,,,,,,,,,,,,,,,,,,,,,,,,,,,,,,,,,,,,,,,,,,,,,,,,,,,,,,,,,,,,,,,,,,,,,,,,,,,,,,,,,,,,,,,,,,,,,,,,,,,,,,,,,,,,,,,,,,,,,,,,,,,,,,,,,,,
,,614729995b2ed1d007babcc7,2024-02-22_05h20.39.520,kallum_motion_pilot,2023.2.2,Win32,30.03003003,614729995b2ed1d007babcc7,65d6bb0e977760de756971f7,65d6bd618923259cf31ece59,0.315,0.3152,1,111,273,148,1,sevenfive,,,,,,,,,,,,,,,,,,,,,,,,,,,,,,,,,,,,,,,,,,,,,,,,,,,,,,,,,,,,,,,,,,,,,,,,,,,,,,,,,,,,,,,,,,,,,,,,,,,,,,,,,,,,,,,,,,,,,,,,,,,,,,,,,,,,,,,,,
,,614729995b2ed1d007babcc7,2024-02-22_05h20.39.520,kallum_motion_pilot,2023.2.2,Win32,30.03003003,614729995b2ed1d007babcc7,65d6bb0e977760de756971f7,65d6bd618923259cf31ece59,0.3158,0.3161,1,112,274,111,1,eightseven,,,,,,,,,,,,,,,,,,,,,,,,,,,,,,,,,,,,,,,,,,,,,,,,,,,,,,,,,,,,,,,,,,,,,,,,,,,,,,,,,,,,,,,,,,,,,,,,,,,,,,,,,,,,,,,,,,,,,,,,,,,,,,,,,,,,,,,,,
,,614729995b2ed1d007babcc7,2024-02-22_05h20.39.520,kallum_motion_pilot,2023.2.2,Win32,30.03003003,614729995b2ed1d007babcc7,65d6bb0e977760de756971f7,65d6bd618923259cf31ece59,0.3164,0.3168,1,113,275,97,1,fiveseven,,,,,,,,,,,,,,,,,,,,,,,,,,,,,,,,,,,,,,,,,,,,,,,,,,,,,,,,,,,,,,,,,,,,,,,,,,,,,,,,,,,,,,,,,,,,,,,,,,,,,,,,,,,,,,,,,,,,,,,,,,,,,,,,,,,,,,,,,
,,614729995b2ed1d007babcc7,2024-02-22_05h20.39.520,kallum_motion_pilot,2023.2.2,Win32,30.03003003,614729995b2ed1d007babcc7,65d6bb0e977760de756971f7,65d6bd618923259cf31ece59,0.3171,0.3174,1,114,276,159,1,eightseven,,,,,,,,,,,,,,,,,,,,,,,,,,,,,,,,,,,,,,,,,,,,,,,,,,,,,,,,,,,,,,,,,,,,,,,,,,,,,,,,,,,,,,,,,,,,,,,,,,,,,,,,,,,,,,,,,,,,,,,,,,,,,,,,,,,,,,,,,
,,614729995b2ed1d007babcc7,2024-02-22_05h20.39.520,kallum_motion_pilot,2023.2.2,Win32,30.03003003,614729995b2ed1d007babcc7,65d6bb0e977760de756971f7,65d6bd618923259cf31ece59,0.3177,0.3179,1,115,277,103,1,eightseven,,,,,,,,,,,,,,,,,,,,,,,,,,,,,,,,,,,,,,,,,,,,,,,,,,,,,,,,,,,,,,,,,,,,,,,,,,,,,,,,,,,,,,,,,,,,,,,,,,,,,,,,,,,,,,,,,,,,,,,,,,,,,,,,,,,,,,,,,
