startup.started,startup.stopped,Prolific ID*,date,expName,psychopyVersion,OS,frameRate,participant,study_id,session,stimpositions.started,stimpositions.stopped,hardcoded_stimulus_positions.thisRepN,hardcoded_stimulus_positions.thisTrialN,hardcoded_stimulus_positions.thisN,hardcoded_stimulus_positions.thisIndex,hardcoded_stimulus_positions.ran,StimulusPos,stimorientation.started,stimorientation.stopped,prac_stimorientation_import_loop.thisRepN,prac_stimorientation_import_loop.thisTrialN,prac_stimorientation_import_loop.thisN,prac_stimorientation_import_loop.thisIndex,prac_stimorientation_import_loop.ran,Stimorientation,welcome_instr.started,welcome_instr.stopped,key_resp.keys,key_resp.rt,key_resp.duration,response_steppedout_1.started,response_steppedout_1.stopped,key_resp_20.keys,key_resp_20.rt,key_resp_20.duration,response_steppedout_2.started,response_steppedout_2.stopped,key_resp_19.keys,key_resp_19.rt,key_resp_19.duration,stim_response_instr.started,stim_response_instr.stopped,key_resp_15.keys,key_resp_15.rt,key_resp_15.duration,direction_instr_2.started,direction_instr_2.stopped,key_resp_9.keys,key_resp_9.rt,key_resp_9.duration,instr_prac.started,instr_prac.stopped,key_resp_10.keys,key_resp_10.rt,key_resp_10.duration,Stim1_display_prac.started,Stim1_display_prac.stopped,Ecc,Circle1_ori,Circle2_ori,response_prac.started,similarity,response_time,response_prac.stopped,mouse_5.x,mouse_5.y,mouse_5.leftButton,mouse_5.midButton,mouse_5.rightButton,mouse_5.clicked_name,responseprac_feedback.started,responseprac_feedback.stopped,summary2_prac.started,summary2_prac.stopped,mouse_6.x,mouse_6.y,mouse_6.leftButton,mouse_6.midButton,mouse_6.rightButton,mouse_6.clicked_name,duringprac.thisRepN,duringprac.thisTrialN,duringprac.thisN,duringprac.thisIndex,duringprac.ran,begin.started,begin.stopped,key_resp_22.keys,key_resp_22.rt,key_resp_22.duration,Stim1_display.started,Stim1_display.stopped,circle1_ori,circle2_ori,circle1_SF,circle2_SF,response.started,response.stopped,mouse.x,mouse.y,mouse.leftButton,mouse.midButton,mouse.rightButton,mouse.clicked_name,trialnumber,double_pass.thisRepN,double_pass.thisTrialN,double_pass.thisN,double_pass.thisIndex,double_pass.ran,double_pass.order,main_trial.thisRepN,main_trial.thisTrialN,main_trial.thisN,main_trial.thisIndex,main_trial.ran,main_trial.order,Trial_Counter,Catch,Frequencies,response_2.started,response_2.stopped,mouse_2.x,mouse_2.y,mouse_2.leftButton,mouse_2.midButton,mouse_2.rightButton,mouse_2.clicked_name,special_trial.started,special_trial.stopped,catch_1.started,catch_1.stopped,mouse_3.x,mouse_3.y,mouse_3.leftButton,mouse_3.midButton,mouse_3.rightButton,catchresponse,catchnumber,response_time_catch,response_sum.started,response_sum.stopped,mouse_11.x,mouse_11.y,mouse_11.leftButton,mouse_11.midButton,mouse_11.rightButton,flip_presentation_sequence_for_double_pass.started,flip_presentation_sequence_for_double_pass.stopped,goodbye.started,goodbye.stopped,key_resp_3.keys,key_resp_3.rt,key_resp_3.duration
0.0004,0.0006,614cce1a0dcaa6b078d3d5a7,2024-02-21_21h28.13.930,kallum_motion_pilot,2023.2.2,Win32,60.24096386,614cce1a0dcaa6b078d3d5a7,65d6bb0e977760de756971f7,65d6bf19511dc1d6cbca539e,,,,,,,,,,,,,,,,,,,,,,,,,,,,,,,,,,,,,,,,,,,,,,,,,,,,,,,,,,,,,,,,,,,,,,,,,,,,,,,,,,,,,,,,,,,,,,,,,,,,,,,,,,,,,,,,,,,,,,,,,,,,,,,,,,,,,,,,,,,,,,,,,
,,614cce1a0dcaa6b078d3d5a7,2024-02-21_21h28.13.930,kallum_motion_pilot,2023.2.2,Win32,60.24096386,614cce1a0dcaa6b078d3d5a7,65d6bb0e977760de756971f7,65d6bf19511dc1d6cbca539e,0.0325,0.0326,0,0,0,156,1,sevenfive,,,,,,,,,,,,,,,,,,,,,,,,,,,,,,,,,,,,,,,,,,,,,,,,,,,,,,,,,,,,,,,,,,,,,,,,,,,,,,,,,,,,,,,,,,,,,,,,,,,,,,,,,,,,,,,,,,,,,,,,,,,,,,,,,,,,,,,,,
,,614cce1a0dcaa6b078d3d5a7,2024-02-21_21h28.13.930,kallum_motion_pilot,2023.2.2,Win32,60.24096386,614cce1a0dcaa6b078d3d5a7,65d6bb0e977760de756971f7,65d6bf19511dc1d6cbca539e,0.033,0.0331,0,1,1,12,1,threeone,,,,,,,,,,,,,,,,,,,,,,,,,,,,,,,,,,,,,,,,,,,,,,,,,,,,,,,,,,,,,,,,,,,,,,,,,,,,,,,,,,,,,,,,,,,,,,,,,,,,,,,,,,,,,,,,,,,,,,,,,,,,,,,,,,,,,,,,,
,,614cce1a0dcaa6b078d3d5a7,2024-02-21_21h28.13.930,kallum_motion_pilot,2023.2.2,Win32,60.24096386,614cce1a0dcaa6b078d3d5a7,65d6bb0e977760de756971f7,65d6bf19511dc1d6cbca539e,0.0332,0.0332,0,2,2,73,1,onethree,,,,,,,,,,,,,,,,,,,,,,,,,,,,,,,,,,,,,,,,,,,,,,,,,,,,,,,,,,,,,,,,,,,,,,,,,,,,,,,,,,,,,,,,,,,,,,,,,,,,,,,,,,,,,,,,,,,,,,,,,,,,,,,,,,,,,,,,,
,,614cce1a0dcaa6b078d3d5a7,2024-02-21_21h28.13.930,kallum_motion_pilot,2023.2.2,Win32,60.24096386,614cce1a0dcaa6b078d3d5a7,65d6bb0e977760de756971f7,65d6bf19511dc1d6cbca539e,0.0334,0.0334,0,3,3,45,1,threefour,,,,,,,,,,,,,,,,,,,,,,,,,,,,,,,,,,,,,,,,,,,,,,,,,,,,,,,,,,,,,,,,,,,,,,,,,,,,,,,,,,,,,,,,,,,,,,,,,,,,,,,,,,,,,,,,,,,,,,,,,,,,,,,,,,,,,,,,,
,,614cce1a0dcaa6b078d3d5a7,2024-02-21_21h28.13.930,kallum_motion_pilot,2023.2.2,Win32,60.24096386,614cce1a0dcaa6b078d3d5a7,65d6bb0e977760de756971f7,65d6bf19511dc1d6cbca539e,0.0335,0.0336,0,4,4,11,1,twofour,,,,,,,,,,,,,,,,,,,,,,,,,,,,,,,,,,,,,,,,,,,,,,,,,,,,,,,,,,,,,,,,,,,,,,,,,,,,,,,,,,,,,,,,,,,,,,,,,,,,,,,,,,,,,,,,,,,,,,,,,,,,,,,,,,,,,,,,,
,,614cce1a0dcaa6b078d3d5a7,2024-02-21_21h28.13.930,kallum_motion_pilot,2023.2.2,Win32,60.24096386,614cce1a0dcaa6b078d3d5a7,65d6bb0e977760de756971f7,65d6bf19511dc1d6cbca539e,0.0337,0.0337,0,5,5,26,1,twoone,,,,,,,,,,,,,,,,,,,,,,,,,,,,,,,,,,,,,,,,,,,,,,,,,,,,,,,,,,,,,,,,,,,,,,,,,,,,,,,,,,,,,,,,,,,,,,,,,,,,,,,,,,,,,,,,,,,,,,,,,,,,,,,,,,,,,,,,,
,,614cce1a0dcaa6b078d3d5a7,2024-02-21_21h28.13.930,kallum_motion_pilot,2023.2.2,Win32,60.24096386,614cce1a0dcaa6b078d3d5a7,65d6bb0e977760de756971f7,65d6bf19511dc1d6cbca539e,0.0338,0.0338,0,6,6,79,1,eightseven,,,,,,,,,,,,,,,,,,,,,,,,,,,,,,,,,,,,,,,,,,,,,,,,,,,,,,,,,,,,,,,,,,,,,,,,,,,,,,,,,,,,,,,,,,,,,,,,,,,,,,,,,,,,,,,,,,,,,,,,,,,,,,,,,,,,,,,,,
,,614cce1a0dcaa6b078d3d5a7,2024-02-21_21h28.13.930,kallum_motion_pilot,2023.2.2,Win32,60.24096386,614cce1a0dcaa6b078d3d5a7,65d6bb0e977760de756971f7,65d6bf19511dc1d6cbca539e,0.0339,0.034,0,7,7,30,1,fourtwo,,,,,,,,,,,,,,,,,,,,,,,,,,,,,,,,,,,,,,,,,,,,,,,,,,,,,,,,,,,,,,,,,,,,,,,,,,,,,,,,,,,,,,,,,,,,,,,,,,,,,,,,,,,,,,,,,,,,,,,,,,,,,,,,,,,,,,,,,
,,614cce1a0dcaa6b078d3d5a7,2024-02-21_21h28.13.930,kallum_motion_pilot,2023.2.2,Win32,60.24096386,614cce1a0dcaa6b078d3d5a7,65d6bb0e977760de756971f7,65d6bf19511dc1d6cbca539e,0.0342,0.0342,0,8,8,41,1,onethree,,,,,,,,,,,,,,,,,,,,,,,,,,,,,,,,,,,,,,,,,,,,,,,,,,,,,,,,,,,,,,,,,,,,,,,,,,,,,,,,,,,,,,,,,,,,,,,,,,,,,,,,,,,,,,,,,,,,,,,,,,,,,,,,,,,,,,,,,
,,614cce1a0dcaa6b078d3d5a7,2024-02-21_21h28.13.930,kallum_motion_pilot,2023.2.2,Win32,60.24096386,614cce1a0dcaa6b078d3d5a7,65d6bb0e977760de756971f7,65d6bf19511dc1d6cbca539e,0.0344,0.0344,0,9,9,63,1,fourthree,,,,,,,,,,,,,,,,,,,,,,,,,,,,,,,,,,,,,,,,,,,,,,,,,,,,,,,,,,,,,,,,,,,,,,,,,,,,,,,,,,,,,,,,,,,,,,,,,,,,,,,,,,,,,,,,,,,,,,,,,,,,,,,,,,,,,,,,,
,,614cce1a0dcaa6b078d3d5a7,2024-02-21_21h28.13.930,kallum_motion_pilot,2023.2.2,Win32,60.24096386,614cce1a0dcaa6b078d3d5a7,65d6bb0e977760de756971f7,65d6bf19511dc1d6cbca539e,0.0354,0.0354,0,10,10,115,1,sixeight,,,,,,,,,,,,,,,,,,,,,,,,,,,,,,,,,,,,,,,,,,,,,,,,,,,,,,,,,,,,,,,,,,,,,,,,,,,,,,,,,,,,,,,,,,,,,,,,,,,,,,,,,,,,,,,,,,,,,,,,,,,,,,,,,,,,,,,,,
,,614cce1a0dcaa6b078d3d5a7,2024-02-21_21h28.13.930,kallum_motion_pilot,2023.2.2,Win32,60.24096386,614cce1a0dcaa6b078d3d5a7,65d6bb0e977760de756971f7,65d6bf19511dc1d6cbca539e,0.0356,0.0356,0,11,11,49,1,onethree,,,,,,,,,,,,,,,,,,,,,,,,,,,,,,,,,,,,,,,,,,,,,,,,,,,,,,,,,,,,,,,,,,,,,,,,,,,,,,,,,,,,,,,,,,,,,,,,,,,,,,,,,,,,,,,,,,,,,,,,,,,,,,,,,,,,,,,,,
,,614cce1a0dcaa6b078d3d5a7,2024-02-21_21h28.13.930,kallum_motion_pilot,2023.2.2,Win32,60.24096386,614cce1a0dcaa6b078d3d5a7,65d6bb0e977760de756971f7,65d6bf19511dc1d6cbca539e,0.0358,0.0358,0,12,12,31,1,fourthree,,,,,,,,,,,,,,,,,,,,,,,,,,,,,,,,,,,,,,,,,,,,,,,,,,,,,,,,,,,,,,,,,,,,,,,,,,,,,,,,,,,,,,,,,,,,,,,,,,,,,,,,,,,,,,,,,,,,,,,,,,,,,,,,,,,,,,,,,
,,614cce1a0dcaa6b078d3d5a7,2024-02-21_21h28.13.930,kallum_motion_pilot,2023.2.2,Win32,60.24096386,614cce1a0dcaa6b078d3d5a7,65d6bb0e977760de756971f7,65d6bf19511dc1d6cbca539e,0.0359,0.0359,0,13,13,135,1,eightseven,,,,,,,,,,,,,,,,,,,,,,,,,,,,,,,,,,,,,,,,,,,,,,,,,,,,,,,,,,,,,,,,,,,,,,,,,,,,,,,,,,,,,,,,,,,,,,,,,,,,,,,,,,,,,,,,,,,,,,,,,,,,,,,,,,,,,,,,,
,,614cce1a0dcaa6b078d3d5a7,2024-02-21_21h28.13.930,kallum_motion_pilot,2023.2.2,Win32,60.24096386,614cce1a0dcaa6b078d3d5a7,65d6bb0e977760de756971f7,65d6bf19511dc1d6cbca539e,0.036,0.0361,0,14,14,1,1,onethree,,,,,,,,,,,,,,,,,,,,,,,,,,,,,,,,,,,,,,,,,,,,,,,,,,,,,,,,,,,,,,,,,,,,,,,,,,,,,,,,,,,,,,,,,,,,,,,,,,,,,,,,,,,,,,,,,,,,,,,,,,,,,,,,,,,,,,,,,
,,614cce1a0dcaa6b078d3d5a7,2024-02-21_21h28.13.930,kallum_motion_pilot,2023.2.2,Win32,60.24096386,614cce1a0dcaa6b078d3d5a7,65d6bb0e977760de756971f7,65d6bf19511dc1d6cbca539e,0.0361,0.0361,0,15,15,161,1,fiveseven,,,,,,,,,,,,,,,,,,,,,,,,,,,,,,,,,,,,,,,,,,,,,,,,,,,,,,,,,,,,,,,,,,,,,,,,,,,,,,,,,,,,,,,,,,,,,,,,,,,,,,,,,,,,,,,,,,,,,,,,,,,,,,,,,,,,,,,,,
,,614cce1a0dcaa6b078d3d5a7,2024-02-21_21h28.13.930,kallum_motion_pilot,2023.2.2,Win32,60.24096386,614cce1a0dcaa6b078d3d5a7,65d6bb0e977760de756971f7,65d6bf19511dc1d6cbca539e,0.0365,0.0366,0,16,16,103,1,eightseven,,,,,,,,,,,,,,,,,,,,,,,,,,,,,,,,,,,,,,,,,,,,,,,,,,,,,,,,,,,,,,,,,,,,,,,,,,,,,,,,,,,,,,,,,,,,,,,,,,,,,,,,,,,,,,,,,,,,,,,,,,,,,,,,,,,,,,,,,
,,614cce1a0dcaa6b078d3d5a7,2024-02-21_21h28.13.930,kallum_motion_pilot,2023.2.2,Win32,60.24096386,614cce1a0dcaa6b078d3d5a7,65d6bb0e977760de756971f7,65d6bf19511dc1d6cbca539e,0.0369,0.0369,0,17,17,22,1,fourtwo,,,,,,,,,,,,,,,,,,,,,,,,,,,,,,,,,,,,,,,,,,,,,,,,,,,,,,,,,,,,,,,,,,,,,,,,,,,,,,,,,,,,,,,,,,,,,,,,,,,,,,,,,,,,,,,,,,,,,,,,,,,,,,,,,,,,,,,,,
,,614cce1a0dcaa6b078d3d5a7,2024-02-21_21h28.13.930,kallum_motion_pilot,2023.2.2,Win32,60.24096386,614cce1a0dcaa6b078d3d5a7,65d6bb0e977760de756971f7,65d6bf19511dc1d6cbca539e,0.0371,0.0373,0,18,18,75,1,twofour,,,,,,,,,,,,,,,,,,,,,,,,,,,,,,,,,,,,,,,,,,,,,,,,,,,,,,,,,,,,,,,,,,,,,,,,,,,,,,,,,,,,,,,,,,,,,,,,,,,,,,,,,,,,,,,,,,,,,,,,,,,,,,,,,,,,,,,,,
,,614cce1a0dcaa6b078d3d5a7,2024-02-21_21h28.13.930,kallum_motion_pilot,2023.2.2,Win32,60.24096386,614cce1a0dcaa6b078d3d5a7,65d6bb0e977760de756971f7,65d6bf19511dc1d6cbca539e,0.0377,0.0377,0,19,19,106,1,sixfive,,,,,,,,,,,,,,,,,,,,,,,,,,,,,,,,,,,,,,,,,,,,,,,,,,,,,,,,,,,,,,,,,,,,,,,,,,,,,,,,,,,,,,,,,,,,,,,,,,,,,,,,,,,,,,,,,,,,,,,,,,,,,,,,,,,,,,,,,
,,614cce1a0dcaa6b078d3d5a7,2024-02-21_21h28.13.930,kallum_motion_pilot,2023.2.2,Win32,60.24096386,614cce1a0dcaa6b078d3d5a7,65d6bb0e977760de756971f7,65d6bf19511dc1d6cbca539e,0.0382,0.0383,0,20,20,37,1,threefour,,,,,,,,,,,,,,,,,,,,,,,,,,,,,,,,,,,,,,,,,,,,,,,,,,,,,,,,,,,,,,,,,,,,,,,,,,,,,,,,,,,,,,,,,,,,,,,,,,,,,,,,,,,,,,,,,,,,,,,,,,,,,,,,,,,,,,,,,
,,614cce1a0dcaa6b078d3d5a7,2024-02-21_21h28.13.930,kallum_motion_pilot,2023.2.2,Win32,60.24096386,614cce1a0dcaa6b078d3d5a7,65d6bb0e977760de756971f7,65d6bf19511dc1d6cbca539e,0.0386,0.0387,0,21,21,94,1,eightsix,,,,,,,,,,,,,,,,,,,,,,,,,,,,,,,,,,,,,,,,,,,,,,,,,,,,,,,,,,,,,,,,,,,,,,,,,,,,,,,,,,,,,,,,,,,,,,,,,,,,,,,,,,,,,,,,,,,,,,,,,,,,,,,,,,,,,,,,,
,,614cce1a0dcaa6b078d3d5a7,2024-02-21_21h28.13.930,kallum_motion_pilot,2023.2.2,Win32,60.24096386,614cce1a0dcaa6b078d3d5a7,65d6bb0e977760de756971f7,65d6bf19511dc1d6cbca539e,0.0389,0.039,0,22,22,125,1,seveneight,,,,,,,,,,,,,,,,,,,,,,,,,,,,,,,,,,,,,,,,,,,,,,,,,,,,,,,,,,,,,,,,,,,,,,,,,,,,,,,,,,,,,,,,,,,,,,,,,,,,,,,,,,,,,,,,,,,,,,,,,,,,,,,,,,,,,,,,,
,,614cce1a0dcaa6b078d3d5a7,2024-02-21_21h28.13.930,kallum_motion_pilot,2023.2.2,Win32,60.24096386,614cce1a0dcaa6b078d3d5a7,65d6bb0e977760de756971f7,65d6bf19511dc1d6cbca539e,0.0391,0.0393,0,23,23,159,1,eightseven,,,,,,,,,,,,,,,,,,,,,,,,,,,,,,,,,,,,,,,,,,,,,,,,,,,,,,,,,,,,,,,,,,,,,,,,,,,,,,,,,,,,,,,,,,,,,,,,,,,,,,,,,,,,,,,,,,,,,,,,,,,,,,,,,,,,,,,,,
,,614cce1a0dcaa6b078d3d5a7,2024-02-21_21h28.13.930,kallum_motion_pilot,2023.2.2,Win32,60.24096386,614cce1a0dcaa6b078d3d5a7,65d6bb0e977760de756971f7,65d6bf19511dc1d6cbca539e,0.0394,0.0394,0,24,24,132,1,sevenfive,,,,,,,,,,,,,,,,,,,,,,,,,,,,,,,,,,,,,,,,,,,,,,,,,,,,,,,,,,,,,,,,,,,,,,,,,,,,,,,,,,,,,,,,,,,,,,,,,,,,,,,,,,,,,,,,,,,,,,,,,,,,,,,,,,,,,,,,,
,,614cce1a0dcaa6b078d3d5a7,2024-02-21_21h28.13.930,kallum_motion_pilot,2023.2.2,Win32,60.24096386,614cce1a0dcaa6b078d3d5a7,65d6bb0e977760de756971f7,65d6bf19511dc1d6cbca539e,0.0397,0.0397,0,25,25,57,1,onethree,,,,,,,,,,,,,,,,,,,,,,,,,,,,,,,,,,,,,,,,,,,,,,,,,,,,,,,,,,,,,,,,,,,,,,,,,,,,,,,,,,,,,,,,,,,,,,,,,,,,,,,,,,,,,,,,,,,,,,,,,,,,,,,,,,,,,,,,,
,,614cce1a0dcaa6b078d3d5a7,2024-02-21_21h28.13.930,kallum_motion_pilot,2023.2.2,Win32,60.24096386,614cce1a0dcaa6b078d3d5a7,65d6bb0e977760de756971f7,65d6bf19511dc1d6cbca539e,0.0397,0.0397,0,26,26,67,1,twofour,,,,,,,,,,,,,,,,,,,,,,,,,,,,,,,,,,,,,,,,,,,,,,,,,,,,,,,,,,,,,,,,,,,,,,,,,,,,,,,,,,,,,,,,,,,,,,,,,,,,,,,,,,,,,,,,,,,,,,,,,,,,,,,,,,,,,,,,,
,,614cce1a0dcaa6b078d3d5a7,2024-02-21_21h28.13.930,kallum_motion_pilot,2023.2.2,Win32,60.24096386,614cce1a0dcaa6b078d3d5a7,65d6bb0e977760de756971f7,65d6bf19511dc1d6cbca539e,0.0399,0.0399,0,27,27,19,1,twofour,,,,,,,,,,,,,,,,,,,,,,,,,,,,,,,,,,,,,,,,,,,,,,,,,,,,,,,,,,,,,,,,,,,,,,,,,,,,,,,,,,,,,,,,,,,,,,,,,,,,,,,,,,,,,,,,,,,,,,,,,,,,,,,,,,,,,,,,,
,,614cce1a0dcaa6b078d3d5a7,2024-02-21_21h28.13.930,kallum_motion_pilot,2023.2.2,Win32,60.24096386,614cce1a0dcaa6b078d3d5a7,65d6bb0e977760de756971f7,65d6bf19511dc1d6cbca539e,0.04,0.04,0,28,28,152,1,fivesix,,,,,,,,,,,,,,,,,,,,,,,,,,,,,,,,,,,,,,,,,,,,,,,,,,,,,,,,,,,,,,,,,,,,,,,,,,,,,,,,,,,,,,,,,,,,,,,,,,,,,,,,,,,,,,,,,,,,,,,,,,,,,,,,,,,,,,,,,
,,614cce1a0dcaa6b078d3d5a7,2024-02-21_21h28.13.930,kallum_motion_pilot,2023.2.2,Win32,60.24096386,614cce1a0dcaa6b078d3d5a7,65d6bb0e977760de756971f7,65d6bf19511dc1d6cbca539e,0.0402,0.0402,0,29,29,130,1,sixfive,,,,,,,,,,,,,,,,,,,,,,,,,,,,,,,,,,,,,,,,,,,,,,,,,,,,,,,,,,,,,,,,,,,,,,,,,,,,,,,,,,,,,,,,,,,,,,,,,,,,,,,,,,,,,,,,,,,,,,,,,,,,,,,,,,,,,,,,,
,,614cce1a0dcaa6b078d3d5a7,2024-02-21_21h28.13.930,kallum_motion_pilot,2023.2.2,Win32,60.24096386,614cce1a0dcaa6b078d3d5a7,65d6bb0e977760de756971f7,65d6bf19511dc1d6cbca539e,0.0403,0.0404,0,30,30,124,1,sevenfive,,,,,,,,,,,,,,,,,,,,,,,,,,,,,,,,,,,,,,,,,,,,,,,,,,,,,,,,,,,,,,,,,,,,,,,,,,,,,,,,,,,,,,,,,,,,,,,,,,,,,,,,,,,,,,,,,,,,,,,,,,,,,,,,,,,,,,,,,
,,614cce1a0dcaa6b078d3d5a7,2024-02-21_21h28.13.930,kallum_motion_pilot,2023.2.2,Win32,60.24096386,614cce1a0dcaa6b078d3d5a7,65d6bb0e977760de756971f7,65d6bf19511dc1d6cbca539e,0.0404,0.0404,0,31,31,36,1,threeone,,,,,,,,,,,,,,,,,,,,,,,,,,,,,,,,,,,,,,,,,,,,,,,,,,,,,,,,,,,,,,,,,,,,,,,,,,,,,,,,,,,,,,,,,,,,,,,,,,,,,,,,,,,,,,,,,,,,,,,,,,,,,,,,,,,,,,,,,
,,614cce1a0dcaa6b078d3d5a7,2024-02-21_21h28.13.930,kallum_motion_pilot,2023.2.2,Win32,60.24096386,614cce1a0dcaa6b078d3d5a7,65d6bb0e977760de756971f7,65d6bf19511dc1d6cbca539e,0.0405,0.0405,0,32,32,150,1,eightsix,,,,,,,,,,,,,,,,,,,,,,,,,,,,,,,,,,,,,,,,,,,,,,,,,,,,,,,,,,,,,,,,,,,,,,,,,,,,,,,,,,,,,,,,,,,,,,,,,,,,,,,,,,,,,,,,,,,,,,,,,,,,,,,,,,,,,,,,,
,,614cce1a0dcaa6b078d3d5a7,2024-02-21_21h28.13.930,kallum_motion_pilot,2023.2.2,Win32,60.24096386,614cce1a0dcaa6b078d3d5a7,65d6bb0e977760de756971f7,65d6bf19511dc1d6cbca539e,0.0406,0.0407,0,33,33,14,1,fourtwo,,,,,,,,,,,,,,,,,,,,,,,,,,,,,,,,,,,,,,,,,,,,,,,,,,,,,,,,,,,,,,,,,,,,,,,,,,,,,,,,,,,,,,,,,,,,,,,,,,,,,,,,,,,,,,,,,,,,,,,,,,,,,,,,,,,,,,,,,
,,614cce1a0dcaa6b078d3d5a7,2024-02-21_21h28.13.930,kallum_motion_pilot,2023.2.2,Win32,60.24096386,614cce1a0dcaa6b078d3d5a7,65d6bb0e977760de756971f7,65d6bf19511dc1d6cbca539e,0.0407,0.0409,0,34,34,119,1,eightseven,,,,,,,,,,,,,,,,,,,,,,,,,,,,,,,,,,,,,,,,,,,,,,,,,,,,,,,,,,,,,,,,,,,,,,,,,,,,,,,,,,,,,,,,,,,,,,,,,,,,,,,,,,,,,,,,,,,,,,,,,,,,,,,,,,,,,,,,,
,,614cce1a0dcaa6b078d3d5a7,2024-02-21_21h28.13.930,kallum_motion_pilot,2023.2.2,Win32,60.24096386,614cce1a0dcaa6b078d3d5a7,65d6bb0e977760de756971f7,65d6bf19511dc1d6cbca539e,0.041,0.041,0,35,35,64,1,onetwo,,,,,,,,,,,,,,,,,,,,,,,,,,,,,,,,,,,,,,,,,,,,,,,,,,,,,,,,,,,,,,,,,,,,,,,,,,,,,,,,,,,,,,,,,,,,,,,,,,,,,,,,,,,,,,,,,,,,,,,,,,,,,,,,,,,,,,,,,
,,614cce1a0dcaa6b078d3d5a7,2024-02-21_21h28.13.930,kallum_motion_pilot,2023.2.2,Win32,60.24096386,614cce1a0dcaa6b078d3d5a7,65d6bb0e977760de756971f7,65d6bf19511dc1d6cbca539e,0.0411,0.0411,0,36,36,85,1,seveneight,,,,,,,,,,,,,,,,,,,,,,,,,,,,,,,,,,,,,,,,,,,,,,,,,,,,,,,,,,,,,,,,,,,,,,,,,,,,,,,,,,,,,,,,,,,,,,,,,,,,,,,,,,,,,,,,,,,,,,,,,,,,,,,,,,,,,,,,,
,,614cce1a0dcaa6b078d3d5a7,2024-02-21_21h28.13.930,kallum_motion_pilot,2023.2.2,Win32,60.24096386,614cce1a0dcaa6b078d3d5a7,65d6bb0e977760de756971f7,65d6bf19511dc1d6cbca539e,0.0413,0.0413,0,37,37,80,1,fivesix,,,,,,,,,,,,,,,,,,,,,,,,,,,,,,,,,,,,,,,,,,,,,,,,,,,,,,,,,,,,,,,,,,,,,,,,,,,,,,,,,,,,,,,,,,,,,,,,,,,,,,,,,,,,,,,,,,,,,,,,,,,,,,,,,,,,,,,,,
,,614cce1a0dcaa6b078d3d5a7,2024-02-21_21h28.13.930,kallum_motion_pilot,2023.2.2,Win32,60.24096386,614cce1a0dcaa6b078d3d5a7,65d6bb0e977760de756971f7,65d6bf19511dc1d6cbca539e,0.0414,0.0415,0,38,38,111,1,eightseven,,,,,,,,,,,,,,,,,,,,,,,,,,,,,,,,,,,,,,,,,,,,,,,,,,,,,,,,,,,,,,,,,,,,,,,,,,,,,,,,,,,,,,,,,,,,,,,,,,,,,,,,,,,,,,,,,,,,,,,,,,,,,,,,,,,,,,,,,
,,614cce1a0dcaa6b078d3d5a7,2024-02-21_21h28.13.930,kallum_motion_pilot,2023.2.2,Win32,60.24096386,614cce1a0dcaa6b078d3d5a7,65d6bb0e977760de756971f7,65d6bf19511dc1d6cbca539e,0.0415,0.0415,0,39,39,40,1,onetwo,,,,,,,,,,,,,,,,,,,,,,,,,,,,,,,,,,,,,,,,,,,,,,,,,,,,,,,,,,,,,,,,,,,,,,,,,,,,,,,,,,,,,,,,,,,,,,,,,,,,,,,,,,,,,,,,,,,,,,,,,,,,,,,,,,,,,,,,,
,,614cce1a0dcaa6b078d3d5a7,2024-02-21_21h28.13.930,kallum_motion_pilot,2023.2.2,Win32,60.24096386,614cce1a0dcaa6b078d3d5a7,65d6bb0e977760de756971f7,65d6bf19511dc1d6cbca539e,0.0417,0.0418,0,40,40,113,1,fiveseven,,,,,,,,,,,,,,,,,,,,,,,,,,,,,,,,,,,,,,,,,,,,,,,,,,,,,,,,,,,,,,,,,,,,,,,,,,,,,,,,,,,,,,,,,,,,,,,,,,,,,,,,,,,,,,,,,,,,,,,,,,,,,,,,,,,,,,,,,
,,614cce1a0dcaa6b078d3d5a7,2024-02-21_21h28.13.930,kallum_motion_pilot,2023.2.2,Win32,60.24096386,614cce1a0dcaa6b078d3d5a7,65d6bb0e977760de756971f7,65d6bf19511dc1d6cbca539e,0.0419,0.0419,0,41,41,154,1,sixfive,,,,,,,,,,,,,,,,,,,,,,,,,,,,,,,,,,,,,,,,,,,,,,,,,,,,,,,,,,,,,,,,,,,,,,,,,,,,,,,,,,,,,,,,,,,,,,,,,,,,,,,,,,,,,,,,,,,,,,,,,,,,,,,,,,,,,,,,,
,,614cce1a0dcaa6b078d3d5a7,2024-02-21_21h28.13.930,kallum_motion_pilot,2023.2.2,Win32,60.24096386,614cce1a0dcaa6b078d3d5a7,65d6bb0e977760de756971f7,65d6bf19511dc1d6cbca539e,0.042,0.042,0,42,42,51,1,twofour,,,,,,,,,,,,,,,,,,,,,,,,,,,,,,,,,,,,,,,,,,,,,,,,,,,,,,,,,,,,,,,,,,,,,,,,,,,,,,,,,,,,,,,,,,,,,,,,,,,,,,,,,,,,,,,,,,,,,,,,,,,,,,,,,,,,,,,,,
,,614cce1a0dcaa6b078d3d5a7,2024-02-21_21h28.13.930,kallum_motion_pilot,2023.2.2,Win32,60.24096386,614cce1a0dcaa6b078d3d5a7,65d6bb0e977760de756971f7,65d6bf19511dc1d6cbca539e,0.042,0.0421,0,43,43,48,1,onetwo,,,,,,,,,,,,,,,,,,,,,,,,,,,,,,,,,,,,,,,,,,,,,,,,,,,,,,,,,,,,,,,,,,,,,,,,,,,,,,,,,,,,,,,,,,,,,,,,,,,,,,,,,,,,,,,,,,,,,,,,,,,,,,,,,,,,,,,,,
,,614cce1a0dcaa6b078d3d5a7,2024-02-21_21h28.13.930,kallum_motion_pilot,2023.2.2,Win32,60.24096386,614cce1a0dcaa6b078d3d5a7,65d6bb0e977760de756971f7,65d6bf19511dc1d6cbca539e,0.0422,0.0422,0,44,44,27,1,twofour,,,,,,,,,,,,,,,,,,,,,,,,,,,,,,,,,,,,,,,,,,,,,,,,,,,,,,,,,,,,,,,,,,,,,,,,,,,,,,,,,,,,,,,,,,,,,,,,,,,,,,,,,,,,,,,,,,,,,,,,,,,,,,,,,,,,,,,,,
,,614cce1a0dcaa6b078d3d5a7,2024-02-21_21h28.13.930,kallum_motion_pilot,2023.2.2,Win32,60.24096386,614cce1a0dcaa6b078d3d5a7,65d6bb0e977760de756971f7,65d6bf19511dc1d6cbca539e,0.0423,0.0424,0,45,45,65,1,onethree,,,,,,,,,,,,,,,,,,,,,,,,,,,,,,,,,,,,,,,,,,,,,,,,,,,,,,,,,,,,,,,,,,,,,,,,,,,,,,,,,,,,,,,,,,,,,,,,,,,,,,,,,,,,,,,,,,,,,,,,,,,,,,,,,,,,,,,,,
,,614cce1a0dcaa6b078d3d5a7,2024-02-21_21h28.13.930,kallum_motion_pilot,2023.2.2,Win32,60.24096386,614cce1a0dcaa6b078d3d5a7,65d6bb0e977760de756971f7,65d6bf19511dc1d6cbca539e,0.0424,0.0424,0,46,46,131,1,sixeight,,,,,,,,,,,,,,,,,,,,,,,,,,,,,,,,,,,,,,,,,,,,,,,,,,,,,,,,,,,,,,,,,,,,,,,,,,,,,,,,,,,,,,,,,,,,,,,,,,,,,,,,,,,,,,,,,,,,,,,,,,,,,,,,,,,,,,,,,
,,614cce1a0dcaa6b078d3d5a7,2024-02-21_21h28.13.930,kallum_motion_pilot,2023.2.2,Win32,60.24096386,614cce1a0dcaa6b078d3d5a7,65d6bb0e977760de756971f7,65d6bf19511dc1d6cbca539e,0.0426,0.0426,0,47,47,50,1,twoone,,,,,,,,,,,,,,,,,,,,,,,,,,,,,,,,,,,,,,,,,,,,,,,,,,,,,,,,,,,,,,,,,,,,,,,,,,,,,,,,,,,,,,,,,,,,,,,,,,,,,,,,,,,,,,,,,,,,,,,,,,,,,,,,,,,,,,,,,
,,614cce1a0dcaa6b078d3d5a7,2024-02-21_21h28.13.930,kallum_motion_pilot,2023.2.2,Win32,60.24096386,614cce1a0dcaa6b078d3d5a7,65d6bb0e977760de756971f7,65d6bf19511dc1d6cbca539e,0.0428,0.0428,0,48,48,160,1,fivesix,,,,,,,,,,,,,,,,,,,,,,,,,,,,,,,,,,,,,,,,,,,,,,,,,,,,,,,,,,,,,,,,,,,,,,,,,,,,,,,,,,,,,,,,,,,,,,,,,,,,,,,,,,,,,,,,,,,,,,,,,,,,,,,,,,,,,,,,,
,,614cce1a0dcaa6b078d3d5a7,2024-02-21_21h28.13.930,kallum_motion_pilot,2023.2.2,Win32,60.24096386,614cce1a0dcaa6b078d3d5a7,65d6bb0e977760de756971f7,65d6bf19511dc1d6cbca539e,0.0429,0.0429,0,49,49,15,1,fourthree,,,,,,,,,,,,,,,,,,,,,,,,,,,,,,,,,,,,,,,,,,,,,,,,,,,,,,,,,,,,,,,,,,,,,,,,,,,,,,,,,,,,,,,,,,,,,,,,,,,,,,,,,,,,,,,,,,,,,,,,,,,,,,,,,,,,,,,,,
,,614cce1a0dcaa6b078d3d5a7,2024-02-21_21h28.13.930,kallum_motion_pilot,2023.2.2,Win32,60.24096386,614cce1a0dcaa6b078d3d5a7,65d6bb0e977760de756971f7,65d6bf19511dc1d6cbca539e,0.0432,0.0432,0,50,50,101,1,seveneight,,,,,,,,,,,,,,,,,,,,,,,,,,,,,,,,,,,,,,,,,,,,,,,,,,,,,,,,,,,,,,,,,,,,,,,,,,,,,,,,,,,,,,,,,,,,,,,,,,,,,,,,,,,,,,,,,,,,,,,,,,,,,,,,,,,,,,,,,
,,614cce1a0dcaa6b078d3d5a7,2024-02-21_21h28.13.930,kallum_motion_pilot,2023.2.2,Win32,60.24096386,614cce1a0dcaa6b078d3d5a7,65d6bb0e977760de756971f7,65d6bf19511dc1d6cbca539e,0.0434,0.0435,0,51,51,33,1,onethree,,,,,,,,,,,,,,,,,,,,,,,,,,,,,,,,,,,,,,,,,,,,,,,,,,,,,,,,,,,,,,,,,,,,,,,,,,,,,,,,,,,,,,,,,,,,,,,,,,,,,,,,,,,,,,,,,,,,,,,,,,,,,,,,,,,,,,,,,
,,614cce1a0dcaa6b078d3d5a7,2024-02-21_21h28.13.930,kallum_motion_pilot,2023.2.2,Win32,60.24096386,614cce1a0dcaa6b078d3d5a7,65d6bb0e977760de756971f7,65d6bf19511dc1d6cbca539e,0.0435,0.0436,0,52,52,28,1,threeone,,,,,,,,,,,,,,,,,,,,,,,,,,,,,,,,,,,,,,,,,,,,,,,,,,,,,,,,,,,,,,,,,,,,,,,,,,,,,,,,,,,,,,,,,,,,,,,,,,,,,,,,,,,,,,,,,,,,,,,,,,,,,,,,,,,,,,,,,
,,614cce1a0dcaa6b078d3d5a7,2024-02-21_21h28.13.930,kallum_motion_pilot,2023.2.2,Win32,60.24096386,614cce1a0dcaa6b078d3d5a7,65d6bb0e977760de756971f7,65d6bf19511dc1d6cbca539e,0.0437,0.0437,0,53,53,46,1,fourtwo,,,,,,,,,,,,,,,,,,,,,,,,,,,,,,,,,,,,,,,,,,,,,,,,,,,,,,,,,,,,,,,,,,,,,,,,,,,,,,,,,,,,,,,,,,,,,,,,,,,,,,,,,,,,,,,,,,,,,,,,,,,,,,,,,,,,,,,,,
,,614cce1a0dcaa6b078d3d5a7,2024-02-21_21h28.13.930,kallum_motion_pilot,2023.2.2,Win32,60.24096386,614cce1a0dcaa6b078d3d5a7,65d6bb0e977760de756971f7,65d6bf19511dc1d6cbca539e,0.0438,0.0438,0,54,54,153,1,fiveseven,,,,,,,,,,,,,,,,,,,,,,,,,,,,,,,,,,,,,,,,,,,,,,,,,,,,,,,,,,,,,,,,,,,,,,,,,,,,,,,,,,,,,,,,,,,,,,,,,,,,,,,,,,,,,,,,,,,,,,,,,,,,,,,,,,,,,,,,,
,,614cce1a0dcaa6b078d3d5a7,2024-02-21_21h28.13.930,kallum_motion_pilot,2023.2.2,Win32,60.24096386,614cce1a0dcaa6b078d3d5a7,65d6bb0e977760de756971f7,65d6bf19511dc1d6cbca539e,0.044,0.044,0,55,55,20,1,threeone,,,,,,,,,,,,,,,,,,,,,,,,,,,,,,,,,,,,,,,,,,,,,,,,,,,,,,,,,,,,,,,,,,,,,,,,,,,,,,,,,,,,,,,,,,,,,,,,,,,,,,,,,,,,,,,,,,,,,,,,,,,,,,,,,,,,,,,,,
,,614cce1a0dcaa6b078d3d5a7,2024-02-21_21h28.13.930,kallum_motion_pilot,2023.2.2,Win32,60.24096386,614cce1a0dcaa6b078d3d5a7,65d6bb0e977760de756971f7,65d6bf19511dc1d6cbca539e,0.0441,0.0442,0,56,56,88,1,fivesix,,,,,,,,,,,,,,,,,,,,,,,,,,,,,,,,,,,,,,,,,,,,,,,,,,,,,,,,,,,,,,,,,,,,,,,,,,,,,,,,,,,,,,,,,,,,,,,,,,,,,,,,,,,,,,,,,,,,,,,,,,,,,,,,,,,,,,,,,
,,614cce1a0dcaa6b078d3d5a7,2024-02-21_21h28.13.930,kallum_motion_pilot,2023.2.2,Win32,60.24096386,614cce1a0dcaa6b078d3d5a7,65d6bb0e977760de756971f7,65d6bf19511dc1d6cbca539e,0.0442,0.0443,0,57,57,155,1,sixeight,,,,,,,,,,,,,,,,,,,,,,,,,,,,,,,,,,,,,,,,,,,,,,,,,,,,,,,,,,,,,,,,,,,,,,,,,,,,,,,,,,,,,,,,,,,,,,,,,,,,,,,,,,,,,,,,,,,,,,,,,,,,,,,,,,,,,,,,,
,,614cce1a0dcaa6b078d3d5a7,2024-02-21_21h28.13.930,kallum_motion_pilot,2023.2.2,Win32,60.24096386,614cce1a0dcaa6b078d3d5a7,65d6bb0e977760de756971f7,65d6bf19511dc1d6cbca539e,0.0444,0.0444,0,58,58,138,1,sixfive,,,,,,,,,,,,,,,,,,,,,,,,,,,,,,,,,,,,,,,,,,,,,,,,,,,,,,,,,,,,,,,,,,,,,,,,,,,,,,,,,,,,,,,,,,,,,,,,,,,,,,,,,,,,,,,,,,,,,,,,,,,,,,,,,,,,,,,,,
,,614cce1a0dcaa6b078d3d5a7,2024-02-21_21h28.13.930,kallum_motion_pilot,2023.2.2,Win32,60.24096386,614cce1a0dcaa6b078d3d5a7,65d6bb0e977760de756971f7,65d6bf19511dc1d6cbca539e,0.0445,0.0445,0,59,59,43,1,twofour,,,,,,,,,,,,,,,,,,,,,,,,,,,,,,,,,,,,,,,,,,,,,,,,,,,,,,,,,,,,,,,,,,,,,,,,,,,,,,,,,,,,,,,,,,,,,,,,,,,,,,,,,,,,,,,,,,,,,,,,,,,,,,,,,,,,,,,,,
,,614cce1a0dcaa6b078d3d5a7,2024-02-21_21h28.13.930,kallum_motion_pilot,2023.2.2,Win32,60.24096386,614cce1a0dcaa6b078d3d5a7,65d6bb0e977760de756971f7,65d6bf19511dc1d6cbca539e,0.0447,0.0447,0,60,60,140,1,sevenfive,,,,,,,,,,,,,,,,,,,,,,,,,,,,,,,,,,,,,,,,,,,,,,,,,,,,,,,,,,,,,,,,,,,,,,,,,,,,,,,,,,,,,,,,,,,,,,,,,,,,,,,,,,,,,,,,,,,,,,,,,,,,,,,,,,,,,,,,,
,,614cce1a0dcaa6b078d3d5a7,2024-02-21_21h28.13.930,kallum_motion_pilot,2023.2.2,Win32,60.24096386,614cce1a0dcaa6b078d3d5a7,65d6bb0e977760de756971f7,65d6bf19511dc1d6cbca539e,0.0448,0.0448,0,61,61,21,1,threefour,,,,,,,,,,,,,,,,,,,,,,,,,,,,,,,,,,,,,,,,,,,,,,,,,,,,,,,,,,,,,,,,,,,,,,,,,,,,,,,,,,,,,,,,,,,,,,,,,,,,,,,,,,,,,,,,,,,,,,,,,,,,,,,,,,,,,,,,,
,,614cce1a0dcaa6b078d3d5a7,2024-02-21_21h28.13.930,kallum_motion_pilot,2023.2.2,Win32,60.24096386,614cce1a0dcaa6b078d3d5a7,65d6bb0e977760de756971f7,65d6bf19511dc1d6cbca539e,0.045,0.045,0,62,62,147,1,sixeight,,,,,,,,,,,,,,,,,,,,,,,,,,,,,,,,,,,,,,,,,,,,,,,,,,,,,,,,,,,,,,,,,,,,,,,,,,,,,,,,,,,,,,,,,,,,,,,,,,,,,,,,,,,,,,,,,,,,,,,,,,,,,,,,,,,,,,,,,
,,614cce1a0dcaa6b078d3d5a7,2024-02-21_21h28.13.930,kallum_motion_pilot,2023.2.2,Win32,60.24096386,614cce1a0dcaa6b078d3d5a7,65d6bb0e977760de756971f7,65d6bf19511dc1d6cbca539e,0.0451,0.0451,0,63,63,98,1,sixfive,,,,,,,,,,,,,,,,,,,,,,,,,,,,,,,,,,,,,,,,,,,,,,,,,,,,,,,,,,,,,,,,,,,,,,,,,,,,,,,,,,,,,,,,,,,,,,,,,,,,,,,,,,,,,,,,,,,,,,,,,,,,,,,,,,,,,,,,,
,,614cce1a0dcaa6b078d3d5a7,2024-02-21_21h28.13.930,kallum_motion_pilot,2023.2.2,Win32,60.24096386,614cce1a0dcaa6b078d3d5a7,65d6bb0e977760de756971f7,65d6bf19511dc1d6cbca539e,0.0453,0.0453,0,64,64,139,1,sixeight,,,,,,,,,,,,,,,,,,,,,,,,,,,,,,,,,,,,,,,,,,,,,,,,,,,,,,,,,,,,,,,,,,,,,,,,,,,,,,,,,,,,,,,,,,,,,,,,,,,,,,,,,,,,,,,,,,,,,,,,,,,,,,,,,,,,,,,,,
,,614cce1a0dcaa6b078d3d5a7,2024-02-21_21h28.13.930,kallum_motion_pilot,2023.2.2,Win32,60.24096386,614cce1a0dcaa6b078d3d5a7,65d6bb0e977760de756971f7,65d6bf19511dc1d6cbca539e,0.0454,0.0455,0,65,65,68,1,threeone,,,,,,,,,,,,,,,,,,,,,,,,,,,,,,,,,,,,,,,,,,,,,,,,,,,,,,,,,,,,,,,,,,,,,,,,,,,,,,,,,,,,,,,,,,,,,,,,,,,,,,,,,,,,,,,,,,,,,,,,,,,,,,,,,,,,,,,,,
,,614cce1a0dcaa6b078d3d5a7,2024-02-21_21h28.13.930,kallum_motion_pilot,2023.2.2,Win32,60.24096386,614cce1a0dcaa6b078d3d5a7,65d6bb0e977760de756971f7,65d6bf19511dc1d6cbca539e,0.0457,0.0457,0,66,66,100,1,sevenfive,,,,,,,,,,,,,,,,,,,,,,,,,,,,,,,,,,,,,,,,,,,,,,,,,,,,,,,,,,,,,,,,,,,,,,,,,,,,,,,,,,,,,,,,,,,,,,,,,,,,,,,,,,,,,,,,,,,,,,,,,,,,,,,,,,,,,,,,,
,,614cce1a0dcaa6b078d3d5a7,2024-02-21_21h28.13.930,kallum_motion_pilot,2023.2.2,Win32,60.24096386,614cce1a0dcaa6b078d3d5a7,65d6bb0e977760de756971f7,65d6bf19511dc1d6cbca539e,0.0458,0.0459,0,67,67,5,1,threefour,,,,,,,,,,,,,,,,,,,,,,,,,,,,,,,,,,,,,,,,,,,,,,,,,,,,,,,,,,,,,,,,,,,,,,,,,,,,,,,,,,,,,,,,,,,,,,,,,,,,,,,,,,,,,,,,,,,,,,,,,,,,,,,,,,,,,,,,,
,,614cce1a0dcaa6b078d3d5a7,2024-02-21_21h28.13.930,kallum_motion_pilot,2023.2.2,Win32,60.24096386,614cce1a0dcaa6b078d3d5a7,65d6bb0e977760de756971f7,65d6bf19511dc1d6cbca539e,0.0459,0.0461,0,68,68,71,1,fourthree,,,,,,,,,,,,,,,,,,,,,,,,,,,,,,,,,,,,,,,,,,,,,,,,,,,,,,,,,,,,,,,,,,,,,,,,,,,,,,,,,,,,,,,,,,,,,,,,,,,,,,,,,,,,,,,,,,,,,,,,,,,,,,,,,,,,,,,,,
,,614cce1a0dcaa6b078d3d5a7,2024-02-21_21h28.13.930,kallum_motion_pilot,2023.2.2,Win32,60.24096386,614cce1a0dcaa6b078d3d5a7,65d6bb0e977760de756971f7,65d6bf19511dc1d6cbca539e,0.0462,0.0462,0,69,69,90,1,sixfive,,,,,,,,,,,,,,,,,,,,,,,,,,,,,,,,,,,,,,,,,,,,,,,,,,,,,,,,,,,,,,,,,,,,,,,,,,,,,,,,,,,,,,,,,,,,,,,,,,,,,,,,,,,,,,,,,,,,,,,,,,,,,,,,,,,,,,,,,
,,614cce1a0dcaa6b078d3d5a7,2024-02-21_21h28.13.930,kallum_motion_pilot,2023.2.2,Win32,60.24096386,614cce1a0dcaa6b078d3d5a7,65d6bb0e977760de756971f7,65d6bf19511dc1d6cbca539e,0.0463,0.0463,0,70,70,13,1,threefour,,,,,,,,,,,,,,,,,,,,,,,,,,,,,,,,,,,,,,,,,,,,,,,,,,,,,,,,,,,,,,,,,,,,,,,,,,,,,,,,,,,,,,,,,,,,,,,,,,,,,,,,,,,,,,,,,,,,,,,,,,,,,,,,,,,,,,,,,
,,614cce1a0dcaa6b078d3d5a7,2024-02-21_21h28.13.930,kallum_motion_pilot,2023.2.2,Win32,60.24096386,614cce1a0dcaa6b078d3d5a7,65d6bb0e977760de756971f7,65d6bf19511dc1d6cbca539e,0.0465,0.0465,0,71,71,74,1,twoone,,,,,,,,,,,,,,,,,,,,,,,,,,,,,,,,,,,,,,,,,,,,,,,,,,,,,,,,,,,,,,,,,,,,,,,,,,,,,,,,,,,,,,,,,,,,,,,,,,,,,,,,,,,,,,,,,,,,,,,,,,,,,,,,,,,,,,,,,
,,614cce1a0dcaa6b078d3d5a7,2024-02-21_21h28.13.930,kallum_motion_pilot,2023.2.2,Win32,60.24096386,614cce1a0dcaa6b078d3d5a7,65d6bb0e977760de756971f7,65d6bf19511dc1d6cbca539e,0.0466,0.0466,0,72,72,58,1,twoone,,,,,,,,,,,,,,,,,,,,,,,,,,,,,,,,,,,,,,,,,,,,,,,,,,,,,,,,,,,,,,,,,,,,,,,,,,,,,,,,,,,,,,,,,,,,,,,,,,,,,,,,,,,,,,,,,,,,,,,,,,,,,,,,,,,,,,,,,
,,614cce1a0dcaa6b078d3d5a7,2024-02-21_21h28.13.930,kallum_motion_pilot,2023.2.2,Win32,60.24096386,614cce1a0dcaa6b078d3d5a7,65d6bb0e977760de756971f7,65d6bf19511dc1d6cbca539e,0.0468,0.047,0,73,73,59,1,twofour,,,,,,,,,,,,,,,,,,,,,,,,,,,,,,,,,,,,,,,,,,,,,,,,,,,,,,,,,,,,,,,,,,,,,,,,,,,,,,,,,,,,,,,,,,,,,,,,,,,,,,,,,,,,,,,,,,,,,,,,,,,,,,,,,,,,,,,,,
,,614cce1a0dcaa6b078d3d5a7,2024-02-21_21h28.13.930,kallum_motion_pilot,2023.2.2,Win32,60.24096386,614cce1a0dcaa6b078d3d5a7,65d6bb0e977760de756971f7,65d6bf19511dc1d6cbca539e,0.0473,0.0473,0,74,74,126,1,eightsix,,,,,,,,,,,,,,,,,,,,,,,,,,,,,,,,,,,,,,,,,,,,,,,,,,,,,,,,,,,,,,,,,,,,,,,,,,,,,,,,,,,,,,,,,,,,,,,,,,,,,,,,,,,,,,,,,,,,,,,,,,,,,,,,,,,,,,,,,
,,614cce1a0dcaa6b078d3d5a7,2024-02-21_21h28.13.930,kallum_motion_pilot,2023.2.2,Win32,60.24096386,614cce1a0dcaa6b078d3d5a7,65d6bb0e977760de756971f7,65d6bf19511dc1d6cbca539e,0.0475,0.0475,0,75,75,105,1,fiveseven,,,,,,,,,,,,,,,,,,,,,,,,,,,,,,,,,,,,,,,,,,,,,,,,,,,,,,,,,,,,,,,,,,,,,,,,,,,,,,,,,,,,,,,,,,,,,,,,,,,,,,,,,,,,,,,,,,,,,,,,,,,,,,,,,,,,,,,,,
,,614cce1a0dcaa6b078d3d5a7,2024-02-21_21h28.13.930,kallum_motion_pilot,2023.2.2,Win32,60.24096386,614cce1a0dcaa6b078d3d5a7,65d6bb0e977760de756971f7,65d6bf19511dc1d6cbca539e,0.0478,0.0479,0,76,76,0,1,onetwo,,,,,,,,,,,,,,,,,,,,,,,,,,,,,,,,,,,,,,,,,,,,,,,,,,,,,,,,,,,,,,,,,,,,,,,,,,,,,,,,,,,,,,,,,,,,,,,,,,,,,,,,,,,,,,,,,,,,,,,,,,,,,,,,,,,,,,,,,
,,614cce1a0dcaa6b078d3d5a7,2024-02-21_21h28.13.930,kallum_motion_pilot,2023.2.2,Win32,60.24096386,614cce1a0dcaa6b078d3d5a7,65d6bb0e977760de756971f7,65d6bf19511dc1d6cbca539e,0.0481,0.0482,0,77,77,56,1,onetwo,,,,,,,,,,,,,,,,,,,,,,,,,,,,,,,,,,,,,,,,,,,,,,,,,,,,,,,,,,,,,,,,,,,,,,,,,,,,,,,,,,,,,,,,,,,,,,,,,,,,,,,,,,,,,,,,,,,,,,,,,,,,,,,,,,,,,,,,,
,,614cce1a0dcaa6b078d3d5a7,2024-02-21_21h28.13.930,kallum_motion_pilot,2023.2.2,Win32,60.24096386,614cce1a0dcaa6b078d3d5a7,65d6bb0e977760de756971f7,65d6bf19511dc1d6cbca539e,0.0483,0.0484,0,78,78,35,1,twofour,,,,,,,,,,,,,,,,,,,,,,,,,,,,,,,,,,,,,,,,,,,,,,,,,,,,,,,,,,,,,,,,,,,,,,,,,,,,,,,,,,,,,,,,,,,,,,,,,,,,,,,,,,,,,,,,,,,,,,,,,,,,,,,,,,,,,,,,,
,,614cce1a0dcaa6b078d3d5a7,2024-02-21_21h28.13.930,kallum_motion_pilot,2023.2.2,Win32,60.24096386,614cce1a0dcaa6b078d3d5a7,65d6bb0e977760de756971f7,65d6bf19511dc1d6cbca539e,0.0495,0.0496,0,79,79,121,1,fiveseven,,,,,,,,,,,,,,,,,,,,,,,,,,,,,,,,,,,,,,,,,,,,,,,,,,,,,,,,,,,,,,,,,,,,,,,,,,,,,,,,,,,,,,,,,,,,,,,,,,,,,,,,,,,,,,,,,,,,,,,,,,,,,,,,,,,,,,,,,
,,614cce1a0dcaa6b078d3d5a7,2024-02-21_21h28.13.930,kallum_motion_pilot,2023.2.2,Win32,60.24096386,614cce1a0dcaa6b078d3d5a7,65d6bb0e977760de756971f7,65d6bf19511dc1d6cbca539e,0.0497,0.0498,0,80,80,97,1,fiveseven,,,,,,,,,,,,,,,,,,,,,,,,,,,,,,,,,,,,,,,,,,,,,,,,,,,,,,,,,,,,,,,,,,,,,,,,,,,,,,,,,,,,,,,,,,,,,,,,,,,,,,,,,,,,,,,,,,,,,,,,,,,,,,,,,,,,,,,,,
,,614cce1a0dcaa6b078d3d5a7,2024-02-21_21h28.13.930,kallum_motion_pilot,2023.2.2,Win32,60.24096386,614cce1a0dcaa6b078d3d5a7,65d6bb0e977760de756971f7,65d6bf19511dc1d6cbca539e,0.0499,0.05,0,81,81,133,1,seveneight,,,,,,,,,,,,,,,,,,,,,,,,,,,,,,,,,,,,,,,,,,,,,,,,,,,,,,,,,,,,,,,,,,,,,,,,,,,,,,,,,,,,,,,,,,,,,,,,,,,,,,,,,,,,,,,,,,,,,,,,,,,,,,,,,,,,,,,,,
,,614cce1a0dcaa6b078d3d5a7,2024-02-21_21h28.13.930,kallum_motion_pilot,2023.2.2,Win32,60.24096386,614cce1a0dcaa6b078d3d5a7,65d6bb0e977760de756971f7,65d6bf19511dc1d6cbca539e,0.0502,0.0503,0,82,82,127,1,eightseven,,,,,,,,,,,,,,,,,,,,,,,,,,,,,,,,,,,,,,,,,,,,,,,,,,,,,,,,,,,,,,,,,,,,,,,,,,,,,,,,,,,,,,,,,,,,,,,,,,,,,,,,,,,,,,,,,,,,,,,,,,,,,,,,,,,,,,,,,
,,614cce1a0dcaa6b078d3d5a7,2024-02-21_21h28.13.930,kallum_motion_pilot,2023.2.2,Win32,60.24096386,614cce1a0dcaa6b078d3d5a7,65d6bb0e977760de756971f7,65d6bf19511dc1d6cbca539e,0.0504,0.0505,0,83,83,93,1,seveneight,,,,,,,,,,,,,,,,,,,,,,,,,,,,,,,,,,,,,,,,,,,,,,,,,,,,,,,,,,,,,,,,,,,,,,,,,,,,,,,,,,,,,,,,,,,,,,,,,,,,,,,,,,,,,,,,,,,,,,,,,,,,,,,,,,,,,,,,,
,,614cce1a0dcaa6b078d3d5a7,2024-02-21_21h28.13.930,kallum_motion_pilot,2023.2.2,Win32,60.24096386,614cce1a0dcaa6b078d3d5a7,65d6bb0e977760de756971f7,65d6bf19511dc1d6cbca539e,0.0506,0.0507,0,84,84,108,1,sevenfive,,,,,,,,,,,,,,,,,,,,,,,,,,,,,,,,,,,,,,,,,,,,,,,,,,,,,,,,,,,,,,,,,,,,,,,,,,,,,,,,,,,,,,,,,,,,,,,,,,,,,,,,,,,,,,,,,,,,,,,,,,,,,,,,,,,,,,,,,
,,614cce1a0dcaa6b078d3d5a7,2024-02-21_21h28.13.930,kallum_motion_pilot,2023.2.2,Win32,60.24096386,614cce1a0dcaa6b078d3d5a7,65d6bb0e977760de756971f7,65d6bf19511dc1d6cbca539e,0.0507,0.0508,0,85,85,69,1,threefour,,,,,,,,,,,,,,,,,,,,,,,,,,,,,,,,,,,,,,,,,,,,,,,,,,,,,,,,,,,,,,,,,,,,,,,,,,,,,,,,,,,,,,,,,,,,,,,,,,,,,,,,,,,,,,,,,,,,,,,,,,,,,,,,,,,,,,,,,
,,614cce1a0dcaa6b078d3d5a7,2024-02-21_21h28.13.930,kallum_motion_pilot,2023.2.2,Win32,60.24096386,614cce1a0dcaa6b078d3d5a7,65d6bb0e977760de756971f7,65d6bf19511dc1d6cbca539e,0.051,0.051,0,86,86,89,1,fiveseven,,,,,,,,,,,,,,,,,,,,,,,,,,,,,,,,,,,,,,,,,,,,,,,,,,,,,,,,,,,,,,,,,,,,,,,,,,,,,,,,,,,,,,,,,,,,,,,,,,,,,,,,,,,,,,,,,,,,,,,,,,,,,,,,,,,,,,,,,
,,614cce1a0dcaa6b078d3d5a7,2024-02-21_21h28.13.930,kallum_motion_pilot,2023.2.2,Win32,60.24096386,614cce1a0dcaa6b078d3d5a7,65d6bb0e977760de756971f7,65d6bf19511dc1d6cbca539e,0.0511,0.0512,0,87,87,52,1,threeone,,,,,,,,,,,,,,,,,,,,,,,,,,,,,,,,,,,,,,,,,,,,,,,,,,,,,,,,,,,,,,,,,,,,,,,,,,,,,,,,,,,,,,,,,,,,,,,,,,,,,,,,,,,,,,,,,,,,,,,,,,,,,,,,,,,,,,,,,
,,614cce1a0dcaa6b078d3d5a7,2024-02-21_21h28.13.930,kallum_motion_pilot,2023.2.2,Win32,60.24096386,614cce1a0dcaa6b078d3d5a7,65d6bb0e977760de756971f7,65d6bf19511dc1d6cbca539e,0.0513,0.0513,0,88,88,54,1,fourtwo,,,,,,,,,,,,,,,,,,,,,,,,,,,,,,,,,,,,,,,,,,,,,,,,,,,,,,,,,,,,,,,,,,,,,,,,,,,,,,,,,,,,,,,,,,,,,,,,,,,,,,,,,,,,,,,,,,,,,,,,,,,,,,,,,,,,,,,,,
,,614cce1a0dcaa6b078d3d5a7,2024-02-21_21h28.13.930,kallum_motion_pilot,2023.2.2,Win32,60.24096386,614cce1a0dcaa6b078d3d5a7,65d6bb0e977760de756971f7,65d6bf19511dc1d6cbca539e,0.0515,0.0516,0,89,89,8,1,onetwo,,,,,,,,,,,,,,,,,,,,,,,,,,,,,,,,,,,,,,,,,,,,,,,,,,,,,,,,,,,,,,,,,,,,,,,,,,,,,,,,,,,,,,,,,,,,,,,,,,,,,,,,,,,,,,,,,,,,,,,,,,,,,,,,,,,,,,,,,
,,614cce1a0dcaa6b078d3d5a7,2024-02-21_21h28.13.930,kallum_motion_pilot,2023.2.2,Win32,60.24096386,614cce1a0dcaa6b078d3d5a7,65d6bb0e977760de756971f7,65d6bf19511dc1d6cbca539e,0.0516,0.0517,0,90,90,96,1,fivesix,,,,,,,,,,,,,,,,,,,,,,,,,,,,,,,,,,,,,,,,,,,,,,,,,,,,,,,,,,,,,,,,,,,,,,,,,,,,,,,,,,,,,,,,,,,,,,,,,,,,,,,,,,,,,,,,,,,,,,,,,,,,,,,,,,,,,,,,,
,,614cce1a0dcaa6b078d3d5a7,2024-02-21_21h28.13.930,kallum_motion_pilot,2023.2.2,Win32,60.24096386,614cce1a0dcaa6b078d3d5a7,65d6bb0e977760de756971f7,65d6bf19511dc1d6cbca539e,0.0518,0.0518,0,91,91,44,1,threeone,,,,,,,,,,,,,,,,,,,,,,,,,,,,,,,,,,,,,,,,,,,,,,,,,,,,,,,,,,,,,,,,,,,,,,,,,,,,,,,,,,,,,,,,,,,,,,,,,,,,,,,,,,,,,,,,,,,,,,,,,,,,,,,,,,,,,,,,,
,,614cce1a0dcaa6b078d3d5a7,2024-02-21_21h28.13.930,kallum_motion_pilot,2023.2.2,Win32,60.24096386,614cce1a0dcaa6b078d3d5a7,65d6bb0e977760de756971f7,65d6bf19511dc1d6cbca539e,0.0519,0.052,0,92,92,123,1,sixeight,,,,,,,,,,,,,,,,,,,,,,,,,,,,,,,,,,,,,,,,,,,,,,,,,,,,,,,,,,,,,,,,,,,,,,,,,,,,,,,,,,,,,,,,,,,,,,,,,,,,,,,,,,,,,,,,,,,,,,,,,,,,,,,,,,,,,,,,,
,,614cce1a0dcaa6b078d3d5a7,2024-02-21_21h28.13.930,kallum_motion_pilot,2023.2.2,Win32,60.24096386,614cce1a0dcaa6b078d3d5a7,65d6bb0e977760de756971f7,65d6bf19511dc1d6cbca539e,0.0521,0.0522,0,93,93,102,1,eightsix,,,,,,,,,,,,,,,,,,,,,,,,,,,,,,,,,,,,,,,,,,,,,,,,,,,,,,,,,,,,,,,,,,,,,,,,,,,,,,,,,,,,,,,,,,,,,,,,,,,,,,,,,,,,,,,,,,,,,,,,,,,,,,,,,,,,,,,,,
,,614cce1a0dcaa6b078d3d5a7,2024-02-21_21h28.13.930,kallum_motion_pilot,2023.2.2,Win32,60.24096386,614cce1a0dcaa6b078d3d5a7,65d6bb0e977760de756971f7,65d6bf19511dc1d6cbca539e,0.0523,0.0524,0,94,94,99,1,sixeight,,,,,,,,,,,,,,,,,,,,,,,,,,,,,,,,,,,,,,,,,,,,,,,,,,,,,,,,,,,,,,,,,,,,,,,,,,,,,,,,,,,,,,,,,,,,,,,,,,,,,,,,,,,,,,,,,,,,,,,,,,,,,,,,,,,,,,,,,
,,614cce1a0dcaa6b078d3d5a7,2024-02-21_21h28.13.930,kallum_motion_pilot,2023.2.2,Win32,60.24096386,614cce1a0dcaa6b078d3d5a7,65d6bb0e977760de756971f7,65d6bf19511dc1d6cbca539e,0.0525,0.0526,0,95,95,7,1,fourthree,,,,,,,,,,,,,,,,,,,,,,,,,,,,,,,,,,,,,,,,,,,,,,,,,,,,,,,,,,,,,,,,,,,,,,,,,,,,,,,,,,,,,,,,,,,,,,,,,,,,,,,,,,,,,,,,,,,,,,,,,,,,,,,,,,,,,,,,,
,,614cce1a0dcaa6b078d3d5a7,2024-02-21_21h28.13.930,kallum_motion_pilot,2023.2.2,Win32,60.24096386,614cce1a0dcaa6b078d3d5a7,65d6bb0e977760de756971f7,65d6bf19511dc1d6cbca539e,0.0526,0.0527,0,96,96,78,1,fourtwo,,,,,,,,,,,,,,,,,,,,,,,,,,,,,,,,,,,,,,,,,,,,,,,,,,,,,,,,,,,,,,,,,,,,,,,,,,,,,,,,,,,,,,,,,,,,,,,,,,,,,,,,,,,,,,,,,,,,,,,,,,,,,,,,,,,,,,,,,
,,614cce1a0dcaa6b078d3d5a7,2024-02-21_21h28.13.930,kallum_motion_pilot,2023.2.2,Win32,60.24096386,614cce1a0dcaa6b078d3d5a7,65d6bb0e977760de756971f7,65d6bf19511dc1d6cbca539e,0.0528,0.053,0,97,97,128,1,fivesix,,,,,,,,,,,,,,,,,,,,,,,,,,,,,,,,,,,,,,,,,,,,,,,,,,,,,,,,,,,,,,,,,,,,,,,,,,,,,,,,,,,,,,,,,,,,,,,,,,,,,,,,,,,,,,,,,,,,,,,,,,,,,,,,,,,,,,,,,
,,614cce1a0dcaa6b078d3d5a7,2024-02-21_21h28.13.930,kallum_motion_pilot,2023.2.2,Win32,60.24096386,614cce1a0dcaa6b078d3d5a7,65d6bb0e977760de756971f7,65d6bf19511dc1d6cbca539e,0.0534,0.0536,0,98,98,60,1,threeone,,,,,,,,,,,,,,,,,,,,,,,,,,,,,,,,,,,,,,,,,,,,,,,,,,,,,,,,,,,,,,,,,,,,,,,,,,,,,,,,,,,,,,,,,,,,,,,,,,,,,,,,,,,,,,,,,,,,,,,,,,,,,,,,,,,,,,,,,
,,614cce1a0dcaa6b078d3d5a7,2024-02-21_21h28.13.930,kallum_motion_pilot,2023.2.2,Win32,60.24096386,614cce1a0dcaa6b078d3d5a7,65d6bb0e977760de756971f7,65d6bf19511dc1d6cbca539e,0.0542,0.0543,0,99,99,86,1,eightsix,,,,,,,,,,,,,,,,,,,,,,,,,,,,,,,,,,,,,,,,,,,,,,,,,,,,,,,,,,,,,,,,,,,,,,,,,,,,,,,,,,,,,,,,,,,,,,,,,,,,,,,,,,,,,,,,,,,,,,,,,,,,,,,,,,,,,,,,,
,,614cce1a0dcaa6b078d3d5a7,2024-02-21_21h28.13.930,kallum_motion_pilot,2023.2.2,Win32,60.24096386,614cce1a0dcaa6b078d3d5a7,65d6bb0e977760de756971f7,65d6bf19511dc1d6cbca539e,0.0547,0.0549,0,100,100,141,1,seveneight,,,,,,,,,,,,,,,,,,,,,,,,,,,,,,,,,,,,,,,,,,,,,,,,,,,,,,,,,,,,,,,,,,,,,,,,,,,,,,,,,,,,,,,,,,,,,,,,,,,,,,,,,,,,,,,,,,,,,,,,,,,,,,,,,,,,,,,,,
,,614cce1a0dcaa6b078d3d5a7,2024-02-21_21h28.13.930,kallum_motion_pilot,2023.2.2,Win32,60.24096386,614cce1a0dcaa6b078d3d5a7,65d6bb0e977760de756971f7,65d6bf19511dc1d6cbca539e,0.0554,0.0554,0,101,101,55,1,fourthree,,,,,,,,,,,,,,,,,,,,,,,,,,,,,,,,,,,,,,,,,,,,,,,,,,,,,,,,,,,,,,,,,,,,,,,,,,,,,,,,,,,,,,,,,,,,,,,,,,,,,,,,,,,,,,,,,,,,,,,,,,,,,,,,,,,,,,,,,
,,614cce1a0dcaa6b078d3d5a7,2024-02-21_21h28.13.930,kallum_motion_pilot,2023.2.2,Win32,60.24096386,614cce1a0dcaa6b078d3d5a7,65d6bb0e977760de756971f7,65d6bf19511dc1d6cbca539e,0.0555,0.0556,0,102,102,134,1,eightsix,,,,,,,,,,,,,,,,,,,,,,,,,,,,,,,,,,,,,,,,,,,,,,,,,,,,,,,,,,,,,,,,,,,,,,,,,,,,,,,,,,,,,,,,,,,,,,,,,,,,,,,,,,,,,,,,,,,,,,,,,,,,,,,,,,,,,,,,,
,,614cce1a0dcaa6b078d3d5a7,2024-02-21_21h28.13.930,kallum_motion_pilot,2023.2.2,Win32,60.24096386,614cce1a0dcaa6b078d3d5a7,65d6bb0e977760de756971f7,65d6bf19511dc1d6cbca539e,0.0557,0.0558,0,103,103,70,1,fourtwo,,,,,,,,,,,,,,,,,,,,,,,,,,,,,,,,,,,,,,,,,,,,,,,,,,,,,,,,,,,,,,,,,,,,,,,,,,,,,,,,,,,,,,,,,,,,,,,,,,,,,,,,,,,,,,,,,,,,,,,,,,,,,,,,,,,,,,,,,
,,614cce1a0dcaa6b078d3d5a7,2024-02-21_21h28.13.930,kallum_motion_pilot,2023.2.2,Win32,60.24096386,614cce1a0dcaa6b078d3d5a7,65d6bb0e977760de756971f7,65d6bf19511dc1d6cbca539e,0.0559,0.056,0,104,104,29,1,threefour,,,,,,,,,,,,,,,,,,,,,,,,,,,,,,,,,,,,,,,,,,,,,,,,,,,,,,,,,,,,,,,,,,,,,,,,,,,,,,,,,,,,,,,,,,,,,,,,,,,,,,,,,,,,,,,,,,,,,,,,,,,,,,,,,,,,,,,,,
,,614cce1a0dcaa6b078d3d5a7,2024-02-21_21h28.13.930,kallum_motion_pilot,2023.2.2,Win32,60.24096386,614cce1a0dcaa6b078d3d5a7,65d6bb0e977760de756971f7,65d6bf19511dc1d6cbca539e,0.0561,0.0562,0,105,105,120,1,fivesix,,,,,,,,,,,,,,,,,,,,,,,,,,,,,,,,,,,,,,,,,,,,,,,,,,,,,,,,,,,,,,,,,,,,,,,,,,,,,,,,,,,,,,,,,,,,,,,,,,,,,,,,,,,,,,,,,,,,,,,,,,,,,,,,,,,,,,,,,
,,614cce1a0dcaa6b078d3d5a7,2024-02-21_21h28.13.930,kallum_motion_pilot,2023.2.2,Win32,60.24096386,614cce1a0dcaa6b078d3d5a7,65d6bb0e977760de756971f7,65d6bf19511dc1d6cbca539e,0.0563,0.0564,0,106,106,129,1,fiveseven,,,,,,,,,,,,,,,,,,,,,,,,,,,,,,,,,,,,,,,,,,,,,,,,,,,,,,,,,,,,,,,,,,,,,,,,,,,,,,,,,,,,,,,,,,,,,,,,,,,,,,,,,,,,,,,,,,,,,,,,,,,,,,,,,,,,,,,,,
,,614cce1a0dcaa6b078d3d5a7,2024-02-21_21h28.13.930,kallum_motion_pilot,2023.2.2,Win32,60.24096386,614cce1a0dcaa6b078d3d5a7,65d6bb0e977760de756971f7,65d6bf19511dc1d6cbca539e,0.0565,0.0565,0,107,107,66,1,twoone,,,,,,,,,,,,,,,,,,,,,,,,,,,,,,,,,,,,,,,,,,,,,,,,,,,,,,,,,,,,,,,,,,,,,,,,,,,,,,,,,,,,,,,,,,,,,,,,,,,,,,,,,,,,,,,,,,,,,,,,,,,,,,,,,,,,,,,,,
,,614cce1a0dcaa6b078d3d5a7,2024-02-21_21h28.13.930,kallum_motion_pilot,2023.2.2,Win32,60.24096386,614cce1a0dcaa6b078d3d5a7,65d6bb0e977760de756971f7,65d6bf19511dc1d6cbca539e,0.0566,0.0567,0,108,108,6,1,fourtwo,,,,,,,,,,,,,,,,,,,,,,,,,,,,,,,,,,,,,,,,,,,,,,,,,,,,,,,,,,,,,,,,,,,,,,,,,,,,,,,,,,,,,,,,,,,,,,,,,,,,,,,,,,,,,,,,,,,,,,,,,,,,,,,,,,,,,,,,,
,,614cce1a0dcaa6b078d3d5a7,2024-02-21_21h28.13.930,kallum_motion_pilot,2023.2.2,Win32,60.24096386,614cce1a0dcaa6b078d3d5a7,65d6bb0e977760de756971f7,65d6bf19511dc1d6cbca539e,0.0568,0.0569,0,109,109,158,1,eightsix,,,,,,,,,,,,,,,,,,,,,,,,,,,,,,,,,,,,,,,,,,,,,,,,,,,,,,,,,,,,,,,,,,,,,,,,,,,,,,,,,,,,,,,,,,,,,,,,,,,,,,,,,,,,,,,,,,,,,,,,,,,,,,,,,,,,,,,,,
,,614cce1a0dcaa6b078d3d5a7,2024-02-21_21h28.13.930,kallum_motion_pilot,2023.2.2,Win32,60.24096386,614cce1a0dcaa6b078d3d5a7,65d6bb0e977760de756971f7,65d6bf19511dc1d6cbca539e,0.057,0.057,0,110,110,104,1,fivesix,,,,,,,,,,,,,,,,,,,,,,,,,,,,,,,,,,,,,,,,,,,,,,,,,,,,,,,,,,,,,,,,,,,,,,,,,,,,,,,,,,,,,,,,,,,,,,,,,,,,,,,,,,,,,,,,,,,,,,,,,,,,,,,,,,,,,,,,,
,,614cce1a0dcaa6b078d3d5a7,2024-02-21_21h28.13.930,kallum_motion_pilot,2023.2.2,Win32,60.24096386,614cce1a0dcaa6b078d3d5a7,65d6bb0e977760de756971f7,65d6bf19511dc1d6cbca539e,0.0572,0.0572,0,111,111,148,1,sevenfive,,,,,,,,,,,,,,,,,,,,,,,,,,,,,,,,,,,,,,,,,,,,,,,,,,,,,,,,,,,,,,,,,,,,,,,,,,,,,,,,,,,,,,,,,,,,,,,,,,,,,,,,,,,,,,,,,,,,,,,,,,,,,,,,,,,,,,,,,
,,614cce1a0dcaa6b078d3d5a7,2024-02-21_21h28.13.930,kallum_motion_pilot,2023.2.2,Win32,60.24096386,614cce1a0dcaa6b078d3d5a7,65d6bb0e977760de756971f7,65d6bf19511dc1d6cbca539e,0.0573,0.0574,0,112,112,9,1,onethree,,,,,,,,,,,,,,,,,,,,,,,,,,,,,,,,,,,,,,,,,,,,,,,,,,,,,,,,,,,,,,,,,,,,,,,,,,,,,,,,,,,,,,,,,,,,,,,,,,,,,,,,,,,,,,,,,,,,,,,,,,,,,,,,,,,,,,,,,
,,614cce1a0dcaa6b078d3d5a7,2024-02-21_21h28.13.930,kallum_motion_pilot,2023.2.2,Win32,60.24096386,614cce1a0dcaa6b078d3d5a7,65d6bb0e977760de756971f7,65d6bf19511dc1d6cbca539e,0.0575,0.0576,0,113,113,118,1,eightsix,,,,,,,,,,,,,,,,,,,,,,,,,,,,,,,,,,,,,,,,,,,,,,,,,,,,,,,,,,,,,,,,,,,,,,,,,,,,,,,,,,,,,,,,,,,,,,,,,,,,,,,,,,,,,,,,,,,,,,,,,,,,,,,,,,,,,,,,,
,,614cce1a0dcaa6b078d3d5a7,2024-02-21_21h28.13.930,kallum_motion_pilot,2023.2.2,Win32,60.24096386,614cce1a0dcaa6b078d3d5a7,65d6bb0e977760de756971f7,65d6bf19511dc1d6cbca539e,0.0576,0.0578,0,114,114,81,1,fiveseven,,,,,,,,,,,,,,,,,,,,,,,,,,,,,,,,,,,,,,,,,,,,,,,,,,,,,,,,,,,,,,,,,,,,,,,,,,,,,,,,,,,,,,,,,,,,,,,,,,,,,,,,,,,,,,,,,,,,,,,,,,,,,,,,,,,,,,,,,
,,614cce1a0dcaa6b078d3d5a7,2024-02-21_21h28.13.930,kallum_motion_pilot,2023.2.2,Win32,60.24096386,614cce1a0dcaa6b078d3d5a7,65d6bb0e977760de756971f7,65d6bf19511dc1d6cbca539e,0.0579,0.0579,0,115,115,3,1,twofour,,,,,,,,,,,,,,,,,,,,,,,,,,,,,,,,,,,,,,,,,,,,,,,,,,,,,,,,,,,,,,,,,,,,,,,,,,,,,,,,,,,,,,,,,,,,,,,,,,,,,,,,,,,,,,,,,,,,,,,,,,,,,,,,,,,,,,,,,
,,614cce1a0dcaa6b078d3d5a7,2024-02-21_21h28.13.930,kallum_motion_pilot,2023.2.2,Win32,60.24096386,614cce1a0dcaa6b078d3d5a7,65d6bb0e977760de756971f7,65d6bf19511dc1d6cbca539e,0.058,0.0581,0,116,116,62,1,fourtwo,,,,,,,,,,,,,,,,,,,,,,,,,,,,,,,,,,,,,,,,,,,,,,,,,,,,,,,,,,,,,,,,,,,,,,,,,,,,,,,,,,,,,,,,,,,,,,,,,,,,,,,,,,,,,,,,,,,,,,,,,,,,,,,,,,,,,,,,,
,,614cce1a0dcaa6b078d3d5a7,2024-02-21_21h28.13.930,kallum_motion_pilot,2023.2.2,Win32,60.24096386,614cce1a0dcaa6b078d3d5a7,65d6bb0e977760de756971f7,65d6bf19511dc1d6cbca539e,0.0582,0.0582,0,117,117,84,1,sevenfive,,,,,,,,,,,,,,,,,,,,,,,,,,,,,,,,,,,,,,,,,,,,,,,,,,,,,,,,,,,,,,,,,,,,,,,,,,,,,,,,,,,,,,,,,,,,,,,,,,,,,,,,,,,,,,,,,,,,,,,,,,,,,,,,,,,,,,,,,
,,614cce1a0dcaa6b078d3d5a7,2024-02-21_21h28.13.930,kallum_motion_pilot,2023.2.2,Win32,60.24096386,614cce1a0dcaa6b078d3d5a7,65d6bb0e977760de756971f7,65d6bf19511dc1d6cbca539e,0.0583,0.0585,0,118,118,38,1,fourtwo,,,,,,,,,,,,,,,,,,,,,,,,,,,,,,,,,,,,,,,,,,,,,,,,,,,,,,,,,,,,,,,,,,,,,,,,,,,,,,,,,,,,,,,,,,,,,,,,,,,,,,,,,,,,,,,,,,,,,,,,,,,,,,,,,,,,,,,,,
,,614cce1a0dcaa6b078d3d5a7,2024-02-21_21h28.13.930,kallum_motion_pilot,2023.2.2,Win32,60.24096386,614cce1a0dcaa6b078d3d5a7,65d6bb0e977760de756971f7,65d6bf19511dc1d6cbca539e,0.0586,0.0586,0,119,119,137,1,fiveseven,,,,,,,,,,,,,,,,,,,,,,,,,,,,,,,,,,,,,,,,,,,,,,,,,,,,,,,,,,,,,,,,,,,,,,,,,,,,,,,,,,,,,,,,,,,,,,,,,,,,,,,,,,,,,,,,,,,,,,,,,,,,,,,,,,,,,,,,,
,,614cce1a0dcaa6b078d3d5a7,2024-02-21_21h28.13.930,kallum_motion_pilot,2023.2.2,Win32,60.24096386,614cce1a0dcaa6b078d3d5a7,65d6bb0e977760de756971f7,65d6bf19511dc1d6cbca539e,0.0587,0.0588,0,120,120,145,1,fiveseven,,,,,,,,,,,,,,,,,,,,,,,,,,,,,,,,,,,,,,,,,,,,,,,,,,,,,,,,,,,,,,,,,,,,,,,,,,,,,,,,,,,,,,,,,,,,,,,,,,,,,,,,,,,,,,,,,,,,,,,,,,,,,,,,,,,,,,,,,
,,614cce1a0dcaa6b078d3d5a7,2024-02-21_21h28.13.930,kallum_motion_pilot,2023.2.2,Win32,60.24096386,614cce1a0dcaa6b078d3d5a7,65d6bb0e977760de756971f7,65d6bf19511dc1d6cbca539e,0.0589,0.059,0,121,121,143,1,eightseven,,,,,,,,,,,,,,,,,,,,,,,,,,,,,,,,,,,,,,,,,,,,,,,,,,,,,,,,,,,,,,,,,,,,,,,,,,,,,,,,,,,,,,,,,,,,,,,,,,,,,,,,,,,,,,,,,,,,,,,,,,,,,,,,,,,,,,,,,
,,614cce1a0dcaa6b078d3d5a7,2024-02-21_21h28.13.930,kallum_motion_pilot,2023.2.2,Win32,60.24096386,614cce1a0dcaa6b078d3d5a7,65d6bb0e977760de756971f7,65d6bf19511dc1d6cbca539e,0.059,0.0591,0,122,122,10,1,twoone,,,,,,,,,,,,,,,,,,,,,,,,,,,,,,,,,,,,,,,,,,,,,,,,,,,,,,,,,,,,,,,,,,,,,,,,,,,,,,,,,,,,,,,,,,,,,,,,,,,,,,,,,,,,,,,,,,,,,,,,,,,,,,,,,,,,,,,,,
,,614cce1a0dcaa6b078d3d5a7,2024-02-21_21h28.13.930,kallum_motion_pilot,2023.2.2,Win32,60.24096386,614cce1a0dcaa6b078d3d5a7,65d6bb0e977760de756971f7,65d6bf19511dc1d6cbca539e,0.0592,0.0593,0,123,123,76,1,threeone,,,,,,,,,,,,,,,,,,,,,,,,,,,,,,,,,,,,,,,,,,,,,,,,,,,,,,,,,,,,,,,,,,,,,,,,,,,,,,,,,,,,,,,,,,,,,,,,,,,,,,,,,,,,,,,,,,,,,,,,,,,,,,,,,,,,,,,,,
,,614cce1a0dcaa6b078d3d5a7,2024-02-21_21h28.13.930,kallum_motion_pilot,2023.2.2,Win32,60.24096386,614cce1a0dcaa6b078d3d5a7,65d6bb0e977760de756971f7,65d6bf19511dc1d6cbca539e,0.0594,0.0595,0,124,124,114,1,sixfive,,,,,,,,,,,,,,,,,,,,,,,,,,,,,,,,,,,,,,,,,,,,,,,,,,,,,,,,,,,,,,,,,,,,,,,,,,,,,,,,,,,,,,,,,,,,,,,,,,,,,,,,,,,,,,,,,,,,,,,,,,,,,,,,,,,,,,,,,
,,614cce1a0dcaa6b078d3d5a7,2024-02-21_21h28.13.930,kallum_motion_pilot,2023.2.2,Win32,60.24096386,614cce1a0dcaa6b078d3d5a7,65d6bb0e977760de756971f7,65d6bf19511dc1d6cbca539e,0.0596,0.0597,0,125,125,91,1,sixeight,,,,,,,,,,,,,,,,,,,,,,,,,,,,,,,,,,,,,,,,,,,,,,,,,,,,,,,,,,,,,,,,,,,,,,,,,,,,,,,,,,,,,,,,,,,,,,,,,,,,,,,,,,,,,,,,,,,,,,,,,,,,,,,,,,,,,,,,,
,,614cce1a0dcaa6b078d3d5a7,2024-02-21_21h28.13.930,kallum_motion_pilot,2023.2.2,Win32,60.24096386,614cce1a0dcaa6b078d3d5a7,65d6bb0e977760de756971f7,65d6bf19511dc1d6cbca539e,0.0598,0.0601,0,126,126,144,1,fivesix,,,,,,,,,,,,,,,,,,,,,,,,,,,,,,,,,,,,,,,,,,,,,,,,,,,,,,,,,,,,,,,,,,,,,,,,,,,,,,,,,,,,,,,,,,,,,,,,,,,,,,,,,,,,,,,,,,,,,,,,,,,,,,,,,,,,,,,,,
,,614cce1a0dcaa6b078d3d5a7,2024-02-21_21h28.13.930,kallum_motion_pilot,2023.2.2,Win32,60.24096386,614cce1a0dcaa6b078d3d5a7,65d6bb0e977760de756971f7,65d6bf19511dc1d6cbca539e,0.0602,0.0604,0,127,127,146,1,sixfive,,,,,,,,,,,,,,,,,,,,,,,,,,,,,,,,,,,,,,,,,,,,,,,,,,,,,,,,,,,,,,,,,,,,,,,,,,,,,,,,,,,,,,,,,,,,,,,,,,,,,,,,,,,,,,,,,,,,,,,,,,,,,,,,,,,,,,,,,
,,614cce1a0dcaa6b078d3d5a7,2024-02-21_21h28.13.930,kallum_motion_pilot,2023.2.2,Win32,60.24096386,614cce1a0dcaa6b078d3d5a7,65d6bb0e977760de756971f7,65d6bf19511dc1d6cbca539e,0.0604,0.0605,0,128,128,47,1,fourthree,,,,,,,,,,,,,,,,,,,,,,,,,,,,,,,,,,,,,,,,,,,,,,,,,,,,,,,,,,,,,,,,,,,,,,,,,,,,,,,,,,,,,,,,,,,,,,,,,,,,,,,,,,,,,,,,,,,,,,,,,,,,,,,,,,,,,,,,,
,,614cce1a0dcaa6b078d3d5a7,2024-02-21_21h28.13.930,kallum_motion_pilot,2023.2.2,Win32,60.24096386,614cce1a0dcaa6b078d3d5a7,65d6bb0e977760de756971f7,65d6bf19511dc1d6cbca539e,0.0606,0.0607,0,129,129,24,1,onetwo,,,,,,,,,,,,,,,,,,,,,,,,,,,,,,,,,,,,,,,,,,,,,,,,,,,,,,,,,,,,,,,,,,,,,,,,,,,,,,,,,,,,,,,,,,,,,,,,,,,,,,,,,,,,,,,,,,,,,,,,,,,,,,,,,,,,,,,,,
,,614cce1a0dcaa6b078d3d5a7,2024-02-21_21h28.13.930,kallum_motion_pilot,2023.2.2,Win32,60.24096386,614cce1a0dcaa6b078d3d5a7,65d6bb0e977760de756971f7,65d6bf19511dc1d6cbca539e,0.0608,0.0609,0,130,130,122,1,sixfive,,,,,,,,,,,,,,,,,,,,,,,,,,,,,,,,,,,,,,,,,,,,,,,,,,,,,,,,,,,,,,,,,,,,,,,,,,,,,,,,,,,,,,,,,,,,,,,,,,,,,,,,,,,,,,,,,,,,,,,,,,,,,,,,,,,,,,,,,
,,614cce1a0dcaa6b078d3d5a7,2024-02-21_21h28.13.930,kallum_motion_pilot,2023.2.2,Win32,60.24096386,614cce1a0dcaa6b078d3d5a7,65d6bb0e977760de756971f7,65d6bf19511dc1d6cbca539e,0.0609,0.061,0,131,131,2,1,twoone,,,,,,,,,,,,,,,,,,,,,,,,,,,,,,,,,,,,,,,,,,,,,,,,,,,,,,,,,,,,,,,,,,,,,,,,,,,,,,,,,,,,,,,,,,,,,,,,,,,,,,,,,,,,,,,,,,,,,,,,,,,,,,,,,,,,,,,,,
,,614cce1a0dcaa6b078d3d5a7,2024-02-21_21h28.13.930,kallum_motion_pilot,2023.2.2,Win32,60.24096386,614cce1a0dcaa6b078d3d5a7,65d6bb0e977760de756971f7,65d6bf19511dc1d6cbca539e,0.0611,0.0612,0,132,132,82,1,sixfive,,,,,,,,,,,,,,,,,,,,,,,,,,,,,,,,,,,,,,,,,,,,,,,,,,,,,,,,,,,,,,,,,,,,,,,,,,,,,,,,,,,,,,,,,,,,,,,,,,,,,,,,,,,,,,,,,,,,,,,,,,,,,,,,,,,,,,,,,
,,614cce1a0dcaa6b078d3d5a7,2024-02-21_21h28.13.930,kallum_motion_pilot,2023.2.2,Win32,60.24096386,614cce1a0dcaa6b078d3d5a7,65d6bb0e977760de756971f7,65d6bf19511dc1d6cbca539e,0.0613,0.0613,0,133,133,18,1,twoone,,,,,,,,,,,,,,,,,,,,,,,,,,,,,,,,,,,,,,,,,,,,,,,,,,,,,,,,,,,,,,,,,,,,,,,,,,,,,,,,,,,,,,,,,,,,,,,,,,,,,,,,,,,,,,,,,,,,,,,,,,,,,,,,,,,,,,,,,
,,614cce1a0dcaa6b078d3d5a7,2024-02-21_21h28.13.930,kallum_motion_pilot,2023.2.2,Win32,60.24096386,614cce1a0dcaa6b078d3d5a7,65d6bb0e977760de756971f7,65d6bf19511dc1d6cbca539e,0.0614,0.0615,0,134,134,151,1,eightseven,,,,,,,,,,,,,,,,,,,,,,,,,,,,,,,,,,,,,,,,,,,,,,,,,,,,,,,,,,,,,,,,,,,,,,,,,,,,,,,,,,,,,,,,,,,,,,,,,,,,,,,,,,,,,,,,,,,,,,,,,,,,,,,,,,,,,,,,,
,,614cce1a0dcaa6b078d3d5a7,2024-02-21_21h28.13.930,kallum_motion_pilot,2023.2.2,Win32,60.24096386,614cce1a0dcaa6b078d3d5a7,65d6bb0e977760de756971f7,65d6bf19511dc1d6cbca539e,0.0616,0.0617,0,135,135,23,1,fourthree,,,,,,,,,,,,,,,,,,,,,,,,,,,,,,,,,,,,,,,,,,,,,,,,,,,,,,,,,,,,,,,,,,,,,,,,,,,,,,,,,,,,,,,,,,,,,,,,,,,,,,,,,,,,,,,,,,,,,,,,,,,,,,,,,,,,,,,,,
,,614cce1a0dcaa6b078d3d5a7,2024-02-21_21h28.13.930,kallum_motion_pilot,2023.2.2,Win32,60.24096386,614cce1a0dcaa6b078d3d5a7,65d6bb0e977760de756971f7,65d6bf19511dc1d6cbca539e,0.0618,0.0619,0,136,136,109,1,seveneight,,,,,,,,,,,,,,,,,,,,,,,,,,,,,,,,,,,,,,,,,,,,,,,,,,,,,,,,,,,,,,,,,,,,,,,,,,,,,,,,,,,,,,,,,,,,,,,,,,,,,,,,,,,,,,,,,,,,,,,,,,,,,,,,,,,,,,,,,
,,614cce1a0dcaa6b078d3d5a7,2024-02-21_21h28.13.930,kallum_motion_pilot,2023.2.2,Win32,60.24096386,614cce1a0dcaa6b078d3d5a7,65d6bb0e977760de756971f7,65d6bf19511dc1d6cbca539e,0.0619,0.062,0,137,137,110,1,eightsix,,,,,,,,,,,,,,,,,,,,,,,,,,,,,,,,,,,,,,,,,,,,,,,,,,,,,,,,,,,,,,,,,,,,,,,,,,,,,,,,,,,,,,,,,,,,,,,,,,,,,,,,,,,,,,,,,,,,,,,,,,,,,,,,,,,,,,,,,
,,614cce1a0dcaa6b078d3d5a7,2024-02-21_21h28.13.930,kallum_motion_pilot,2023.2.2,Win32,60.24096386,614cce1a0dcaa6b078d3d5a7,65d6bb0e977760de756971f7,65d6bf19511dc1d6cbca539e,0.0621,0.0622,0,138,138,4,1,threeone,,,,,,,,,,,,,,,,,,,,,,,,,,,,,,,,,,,,,,,,,,,,,,,,,,,,,,,,,,,,,,,,,,,,,,,,,,,,,,,,,,,,,,,,,,,,,,,,,,,,,,,,,,,,,,,,,,,,,,,,,,,,,,,,,,,,,,,,,
,,614cce1a0dcaa6b078d3d5a7,2024-02-21_21h28.13.930,kallum_motion_pilot,2023.2.2,Win32,60.24096386,614cce1a0dcaa6b078d3d5a7,65d6bb0e977760de756971f7,65d6bf19511dc1d6cbca539e,0.0623,0.0623,0,139,139,136,1,fivesix,,,,,,,,,,,,,,,,,,,,,,,,,,,,,,,,,,,,,,,,,,,,,,,,,,,,,,,,,,,,,,,,,,,,,,,,,,,,,,,,,,,,,,,,,,,,,,,,,,,,,,,,,,,,,,,,,,,,,,,,,,,,,,,,,,,,,,,,,
,,614cce1a0dcaa6b078d3d5a7,2024-02-21_21h28.13.930,kallum_motion_pilot,2023.2.2,Win32,60.24096386,614cce1a0dcaa6b078d3d5a7,65d6bb0e977760de756971f7,65d6bf19511dc1d6cbca539e,0.0625,0.0625,0,140,140,87,1,eightseven,,,,,,,,,,,,,,,,,,,,,,,,,,,,,,,,,,,,,,,,,,,,,,,,,,,,,,,,,,,,,,,,,,,,,,,,,,,,,,,,,,,,,,,,,,,,,,,,,,,,,,,,,,,,,,,,,,,,,,,,,,,,,,,,,,,,,,,,,
,,614cce1a0dcaa6b078d3d5a7,2024-02-21_21h28.13.930,kallum_motion_pilot,2023.2.2,Win32,60.24096386,614cce1a0dcaa6b078d3d5a7,65d6bb0e977760de756971f7,65d6bf19511dc1d6cbca539e,0.0627,0.0627,0,141,141,92,1,sevenfive,,,,,,,,,,,,,,,,,,,,,,,,,,,,,,,,,,,,,,,,,,,,,,,,,,,,,,,,,,,,,,,,,,,,,,,,,,,,,,,,,,,,,,,,,,,,,,,,,,,,,,,,,,,,,,,,,,,,,,,,,,,,,,,,,,,,,,,,,
,,614cce1a0dcaa6b078d3d5a7,2024-02-21_21h28.13.930,kallum_motion_pilot,2023.2.2,Win32,60.24096386,614cce1a0dcaa6b078d3d5a7,65d6bb0e977760de756971f7,65d6bf19511dc1d6cbca539e,0.0628,0.0629,0,142,142,77,1,threefour,,,,,,,,,,,,,,,,,,,,,,,,,,,,,,,,,,,,,,,,,,,,,,,,,,,,,,,,,,,,,,,,,,,,,,,,,,,,,,,,,,,,,,,,,,,,,,,,,,,,,,,,,,,,,,,,,,,,,,,,,,,,,,,,,,,,,,,,,
,,614cce1a0dcaa6b078d3d5a7,2024-02-21_21h28.13.930,kallum_motion_pilot,2023.2.2,Win32,60.24096386,614cce1a0dcaa6b078d3d5a7,65d6bb0e977760de756971f7,65d6bf19511dc1d6cbca539e,0.063,0.0631,0,143,143,16,1,onetwo,,,,,,,,,,,,,,,,,,,,,,,,,,,,,,,,,,,,,,,,,,,,,,,,,,,,,,,,,,,,,,,,,,,,,,,,,,,,,,,,,,,,,,,,,,,,,,,,,,,,,,,,,,,,,,,,,,,,,,,,,,,,,,,,,,,,,,,,,
,,614cce1a0dcaa6b078d3d5a7,2024-02-21_21h28.13.930,kallum_motion_pilot,2023.2.2,Win32,60.24096386,614cce1a0dcaa6b078d3d5a7,65d6bb0e977760de756971f7,65d6bf19511dc1d6cbca539e,0.0632,0.0632,0,144,144,157,1,seveneight,,,,,,,,,,,,,,,,,,,,,,,,,,,,,,,,,,,,,,,,,,,,,,,,,,,,,,,,,,,,,,,,,,,,,,,,,,,,,,,,,,,,,,,,,,,,,,,,,,,,,,,,,,,,,,,,,,,,,,,,,,,,,,,,,,,,,,,,,
,,614cce1a0dcaa6b078d3d5a7,2024-02-21_21h28.13.930,kallum_motion_pilot,2023.2.2,Win32,60.24096386,614cce1a0dcaa6b078d3d5a7,65d6bb0e977760de756971f7,65d6bf19511dc1d6cbca539e,0.0633,0.0634,0,145,145,61,1,threefour,,,,,,,,,,,,,,,,,,,,,,,,,,,,,,,,,,,,,,,,,,,,,,,,,,,,,,,,,,,,,,,,,,,,,,,,,,,,,,,,,,,,,,,,,,,,,,,,,,,,,,,,,,,,,,,,,,,,,,,,,,,,,,,,,,,,,,,,,
,,614cce1a0dcaa6b078d3d5a7,2024-02-21_21h28.13.930,kallum_motion_pilot,2023.2.2,Win32,60.24096386,614cce1a0dcaa6b078d3d5a7,65d6bb0e977760de756971f7,65d6bf19511dc1d6cbca539e,0.0635,0.0636,0,146,146,95,1,eightseven,,,,,,,,,,,,,,,,,,,,,,,,,,,,,,,,,,,,,,,,,,,,,,,,,,,,,,,,,,,,,,,,,,,,,,,,,,,,,,,,,,,,,,,,,,,,,,,,,,,,,,,,,,,,,,,,,,,,,,,,,,,,,,,,,,,,,,,,,
,,614cce1a0dcaa6b078d3d5a7,2024-02-21_21h28.13.930,kallum_motion_pilot,2023.2.2,Win32,60.24096386,614cce1a0dcaa6b078d3d5a7,65d6bb0e977760de756971f7,65d6bf19511dc1d6cbca539e,0.0637,0.0638,0,147,147,17,1,onethree,,,,,,,,,,,,,,,,,,,,,,,,,,,,,,,,,,,,,,,,,,,,,,,,,,,,,,,,,,,,,,,,,,,,,,,,,,,,,,,,,,,,,,,,,,,,,,,,,,,,,,,,,,,,,,,,,,,,,,,,,,,,,,,,,,,,,,,,,
,,614cce1a0dcaa6b078d3d5a7,2024-02-21_21h28.13.930,kallum_motion_pilot,2023.2.2,Win32,60.24096386,614cce1a0dcaa6b078d3d5a7,65d6bb0e977760de756971f7,65d6bf19511dc1d6cbca539e,0.0638,0.064,0,148,148,116,1,sevenfive,,,,,,,,,,,,,,,,,,,,,,,,,,,,,,,,,,,,,,,,,,,,,,,,,,,,,,,,,,,,,,,,,,,,,,,,,,,,,,,,,,,,,,,,,,,,,,,,,,,,,,,,,,,,,,,,,,,,,,,,,,,,,,,,,,,,,,,,,
,,614cce1a0dcaa6b078d3d5a7,2024-02-21_21h28.13.930,kallum_motion_pilot,2023.2.2,Win32,60.24096386,614cce1a0dcaa6b078d3d5a7,65d6bb0e977760de756971f7,65d6bf19511dc1d6cbca539e,0.064,0.0641,0,149,149,112,1,fivesix,,,,,,,,,,,,,,,,,,,,,,,,,,,,,,,,,,,,,,,,,,,,,,,,,,,,,,,,,,,,,,,,,,,,,,,,,,,,,,,,,,,,,,,,,,,,,,,,,,,,,,,,,,,,,,,,,,,,,,,,,,,,,,,,,,,,,,,,,
,,614cce1a0dcaa6b078d3d5a7,2024-02-21_21h28.13.930,kallum_motion_pilot,2023.2.2,Win32,60.24096386,614cce1a0dcaa6b078d3d5a7,65d6bb0e977760de756971f7,65d6bf19511dc1d6cbca539e,0.0642,0.0642,0,150,150,39,1,fourthree,,,,,,,,,,,,,,,,,,,,,,,,,,,,,,,,,,,,,,,,,,,,,,,,,,,,,,,,,,,,,,,,,,,,,,,,,,,,,,,,,,,,,,,,,,,,,,,,,,,,,,,,,,,,,,,,,,,,,,,,,,,,,,,,,,,,,,,,,
,,614cce1a0dcaa6b078d3d5a7,2024-02-21_21h28.13.930,kallum_motion_pilot,2023.2.2,Win32,60.24096386,614cce1a0dcaa6b078d3d5a7,65d6bb0e977760de756971f7,65d6bf19511dc1d6cbca539e,0.0644,0.0646,0,151,151,149,1,seveneight,,,,,,,,,,,,,,,,,,,,,,,,,,,,,,,,,,,,,,,,,,,,,,,,,,,,,,,,,,,,,,,,,,,,,,,,,,,,,,,,,,,,,,,,,,,,,,,,,,,,,,,,,,,,,,,,,,,,,,,,,,,,,,,,,,,,,,,,,
,,614cce1a0dcaa6b078d3d5a7,2024-02-21_21h28.13.930,kallum_motion_pilot,2023.2.2,Win32,60.24096386,614cce1a0dcaa6b078d3d5a7,65d6bb0e977760de756971f7,65d6bf19511dc1d6cbca539e,0.0647,0.0648,0,152,152,107,1,sixeight,,,,,,,,,,,,,,,,,,,,,,,,,,,,,,,,,,,,,,,,,,,,,,,,,,,,,,,,,,,,,,,,,,,,,,,,,,,,,,,,,,,,,,,,,,,,,,,,,,,,,,,,,,,,,,,,,,,,,,,,,,,,,,,,,,,,,,,,,
,,614cce1a0dcaa6b078d3d5a7,2024-02-21_21h28.13.930,kallum_motion_pilot,2023.2.2,Win32,60.24096386,614cce1a0dcaa6b078d3d5a7,65d6bb0e977760de756971f7,65d6bf19511dc1d6cbca539e,0.0648,0.0649,0,153,153,34,1,twoone,,,,,,,,,,,,,,,,,,,,,,,,,,,,,,,,,,,,,,,,,,,,,,,,,,,,,,,,,,,,,,,,,,,,,,,,,,,,,,,,,,,,,,,,,,,,,,,,,,,,,,,,,,,,,,,,,,,,,,,,,,,,,,,,,,,,,,,,,
,,614cce1a0dcaa6b078d3d5a7,2024-02-21_21h28.13.930,kallum_motion_pilot,2023.2.2,Win32,60.24096386,614cce1a0dcaa6b078d3d5a7,65d6bb0e977760de756971f7,65d6bf19511dc1d6cbca539e,0.0651,0.0651,0,154,154,72,1,onetwo,,,,,,,,,,,,,,,,,,,,,,,,,,,,,,,,,,,,,,,,,,,,,,,,,,,,,,,,,,,,,,,,,,,,,,,,,,,,,,,,,,,,,,,,,,,,,,,,,,,,,,,,,,,,,,,,,,,,,,,,,,,,,,,,,,,,,,,,,
,,614cce1a0dcaa6b078d3d5a7,2024-02-21_21h28.13.930,kallum_motion_pilot,2023.2.2,Win32,60.24096386,614cce1a0dcaa6b078d3d5a7,65d6bb0e977760de756971f7,65d6bf19511dc1d6cbca539e,0.0652,0.0653,0,155,155,42,1,twoone,,,,,,,,,,,,,,,,,,,,,,,,,,,,,,,,,,,,,,,,,,,,,,,,,,,,,,,,,,,,,,,,,,,,,,,,,,,,,,,,,,,,,,,,,,,,,,,,,,,,,,,,,,,,,,,,,,,,,,,,,,,,,,,,,,,,,,,,,
,,614cce1a0dcaa6b078d3d5a7,2024-02-21_21h28.13.930,kallum_motion_pilot,2023.2.2,Win32,60.24096386,614cce1a0dcaa6b078d3d5a7,65d6bb0e977760de756971f7,65d6bf19511dc1d6cbca539e,0.0654,0.0654,0,156,156,142,1,eightsix,,,,,,,,,,,,,,,,,,,,,,,,,,,,,,,,,,,,,,,,,,,,,,,,,,,,,,,,,,,,,,,,,,,,,,,,,,,,,,,,,,,,,,,,,,,,,,,,,,,,,,,,,,,,,,,,,,,,,,,,,,,,,,,,,,,,,,,,,
,,614cce1a0dcaa6b078d3d5a7,2024-02-21_21h28.13.930,kallum_motion_pilot,2023.2.2,Win32,60.24096386,614cce1a0dcaa6b078d3d5a7,65d6bb0e977760de756971f7,65d6bf19511dc1d6cbca539e,0.0656,0.0657,0,157,157,32,1,onetwo,,,,,,,,,,,,,,,,,,,,,,,,,,,,,,,,,,,,,,,,,,,,,,,,,,,,,,,,,,,,,,,,,,,,,,,,,,,,,,,,,,,,,,,,,,,,,,,,,,,,,,,,,,,,,,,,,,,,,,,,,,,,,,,,,,,,,,,,,
,,614cce1a0dcaa6b078d3d5a7,2024-02-21_21h28.13.930,kallum_motion_pilot,2023.2.2,Win32,60.24096386,614cce1a0dcaa6b078d3d5a7,65d6bb0e977760de756971f7,65d6bf19511dc1d6cbca539e,0.0657,0.0658,0,158,158,117,1,seveneight,,,,,,,,,,,,,,,,,,,,,,,,,,,,,,,,,,,,,,,,,,,,,,,,,,,,,,,,,,,,,,,,,,,,,,,,,,,,,,,,,,,,,,,,,,,,,,,,,,,,,,,,,,,,,,,,,,,,,,,,,,,,,,,,,,,,,,,,,
,,614cce1a0dcaa6b078d3d5a7,2024-02-21_21h28.13.930,kallum_motion_pilot,2023.2.2,Win32,60.24096386,614cce1a0dcaa6b078d3d5a7,65d6bb0e977760de756971f7,65d6bf19511dc1d6cbca539e,0.0659,0.066,0,159,159,53,1,threefour,,,,,,,,,,,,,,,,,,,,,,,,,,,,,,,,,,,,,,,,,,,,,,,,,,,,,,,,,,,,,,,,,,,,,,,,,,,,,,,,,,,,,,,,,,,,,,,,,,,,,,,,,,,,,,,,,,,,,,,,,,,,,,,,,,,,,,,,,
,,614cce1a0dcaa6b078d3d5a7,2024-02-21_21h28.13.930,kallum_motion_pilot,2023.2.2,Win32,60.24096386,614cce1a0dcaa6b078d3d5a7,65d6bb0e977760de756971f7,65d6bf19511dc1d6cbca539e,0.0661,0.0662,0,160,160,25,1,onethree,,,,,,,,,,,,,,,,,,,,,,,,,,,,,,,,,,,,,,,,,,,,,,,,,,,,,,,,,,,,,,,,,,,,,,,,,,,,,,,,,,,,,,,,,,,,,,,,,,,,,,,,,,,,,,,,,,,,,,,,,,,,,,,,,,,,,,,,,
,,614cce1a0dcaa6b078d3d5a7,2024-02-21_21h28.13.930,kallum_motion_pilot,2023.2.2,Win32,60.24096386,614cce1a0dcaa6b078d3d5a7,65d6bb0e977760de756971f7,65d6bf19511dc1d6cbca539e,0.0663,0.0664,0,161,161,83,1,sixeight,,,,,,,,,,,,,,,,,,,,,,,,,,,,,,,,,,,,,,,,,,,,,,,,,,,,,,,,,,,,,,,,,,,,,,,,,,,,,,,,,,,,,,,,,,,,,,,,,,,,,,,,,,,,,,,,,,,,,,,,,,,,,,,,,,,,,,,,,
,,614cce1a0dcaa6b078d3d5a7,2024-02-21_21h28.13.930,kallum_motion_pilot,2023.2.2,Win32,60.24096386,614cce1a0dcaa6b078d3d5a7,65d6bb0e977760de756971f7,65d6bf19511dc1d6cbca539e,0.0665,0.0666,1,0,162,2,1,twoone,,,,,,,,,,,,,,,,,,,,,,,,,,,,,,,,,,,,,,,,,,,,,,,,,,,,,,,,,,,,,,,,,,,,,,,,,,,,,,,,,,,,,,,,,,,,,,,,,,,,,,,,,,,,,,,,,,,,,,,,,,,,,,,,,,,,,,,,,
,,614cce1a0dcaa6b078d3d5a7,2024-02-21_21h28.13.930,kallum_motion_pilot,2023.2.2,Win32,60.24096386,614cce1a0dcaa6b078d3d5a7,65d6bb0e977760de756971f7,65d6bf19511dc1d6cbca539e,0.0668,0.0669,1,1,163,26,1,twoone,,,,,,,,,,,,,,,,,,,,,,,,,,,,,,,,,,,,,,,,,,,,,,,,,,,,,,,,,,,,,,,,,,,,,,,,,,,,,,,,,,,,,,,,,,,,,,,,,,,,,,,,,,,,,,,,,,,,,,,,,,,,,,,,,,,,,,,,,
,,614cce1a0dcaa6b078d3d5a7,2024-02-21_21h28.13.930,kallum_motion_pilot,2023.2.2,Win32,60.24096386,614cce1a0dcaa6b078d3d5a7,65d6bb0e977760de756971f7,65d6bf19511dc1d6cbca539e,0.0669,0.067,1,2,164,100,1,sevenfive,,,,,,,,,,,,,,,,,,,,,,,,,,,,,,,,,,,,,,,,,,,,,,,,,,,,,,,,,,,,,,,,,,,,,,,,,,,,,,,,,,,,,,,,,,,,,,,,,,,,,,,,,,,,,,,,,,,,,,,,,,,,,,,,,,,,,,,,,
,,614cce1a0dcaa6b078d3d5a7,2024-02-21_21h28.13.930,kallum_motion_pilot,2023.2.2,Win32,60.24096386,614cce1a0dcaa6b078d3d5a7,65d6bb0e977760de756971f7,65d6bf19511dc1d6cbca539e,0.0671,0.0672,1,3,165,62,1,fourtwo,,,,,,,,,,,,,,,,,,,,,,,,,,,,,,,,,,,,,,,,,,,,,,,,,,,,,,,,,,,,,,,,,,,,,,,,,,,,,,,,,,,,,,,,,,,,,,,,,,,,,,,,,,,,,,,,,,,,,,,,,,,,,,,,,,,,,,,,,
,,614cce1a0dcaa6b078d3d5a7,2024-02-21_21h28.13.930,kallum_motion_pilot,2023.2.2,Win32,60.24096386,614cce1a0dcaa6b078d3d5a7,65d6bb0e977760de756971f7,65d6bf19511dc1d6cbca539e,0.0673,0.0674,1,4,166,161,1,fiveseven,,,,,,,,,,,,,,,,,,,,,,,,,,,,,,,,,,,,,,,,,,,,,,,,,,,,,,,,,,,,,,,,,,,,,,,,,,,,,,,,,,,,,,,,,,,,,,,,,,,,,,,,,,,,,,,,,,,,,,,,,,,,,,,,,,,,,,,,,
,,614cce1a0dcaa6b078d3d5a7,2024-02-21_21h28.13.930,kallum_motion_pilot,2023.2.2,Win32,60.24096386,614cce1a0dcaa6b078d3d5a7,65d6bb0e977760de756971f7,65d6bf19511dc1d6cbca539e,0.0675,0.0676,1,5,167,24,1,onetwo,,,,,,,,,,,,,,,,,,,,,,,,,,,,,,,,,,,,,,,,,,,,,,,,,,,,,,,,,,,,,,,,,,,,,,,,,,,,,,,,,,,,,,,,,,,,,,,,,,,,,,,,,,,,,,,,,,,,,,,,,,,,,,,,,,,,,,,,,
,,614cce1a0dcaa6b078d3d5a7,2024-02-21_21h28.13.930,kallum_motion_pilot,2023.2.2,Win32,60.24096386,614cce1a0dcaa6b078d3d5a7,65d6bb0e977760de756971f7,65d6bf19511dc1d6cbca539e,0.0677,0.0677,1,6,168,93,1,seveneight,,,,,,,,,,,,,,,,,,,,,,,,,,,,,,,,,,,,,,,,,,,,,,,,,,,,,,,,,,,,,,,,,,,,,,,,,,,,,,,,,,,,,,,,,,,,,,,,,,,,,,,,,,,,,,,,,,,,,,,,,,,,,,,,,,,,,,,,,
,,614cce1a0dcaa6b078d3d5a7,2024-02-21_21h28.13.930,kallum_motion_pilot,2023.2.2,Win32,60.24096386,614cce1a0dcaa6b078d3d5a7,65d6bb0e977760de756971f7,65d6bf19511dc1d6cbca539e,0.0679,0.068,1,7,169,142,1,eightsix,,,,,,,,,,,,,,,,,,,,,,,,,,,,,,,,,,,,,,,,,,,,,,,,,,,,,,,,,,,,,,,,,,,,,,,,,,,,,,,,,,,,,,,,,,,,,,,,,,,,,,,,,,,,,,,,,,,,,,,,,,,,,,,,,,,,,,,,,
,,614cce1a0dcaa6b078d3d5a7,2024-02-21_21h28.13.930,kallum_motion_pilot,2023.2.2,Win32,60.24096386,614cce1a0dcaa6b078d3d5a7,65d6bb0e977760de756971f7,65d6bf19511dc1d6cbca539e,0.068,0.0681,1,8,170,144,1,fivesix,,,,,,,,,,,,,,,,,,,,,,,,,,,,,,,,,,,,,,,,,,,,,,,,,,,,,,,,,,,,,,,,,,,,,,,,,,,,,,,,,,,,,,,,,,,,,,,,,,,,,,,,,,,,,,,,,,,,,,,,,,,,,,,,,,,,,,,,,
,,614cce1a0dcaa6b078d3d5a7,2024-02-21_21h28.13.930,kallum_motion_pilot,2023.2.2,Win32,60.24096386,614cce1a0dcaa6b078d3d5a7,65d6bb0e977760de756971f7,65d6bf19511dc1d6cbca539e,0.0682,0.0683,1,9,171,101,1,seveneight,,,,,,,,,,,,,,,,,,,,,,,,,,,,,,,,,,,,,,,,,,,,,,,,,,,,,,,,,,,,,,,,,,,,,,,,,,,,,,,,,,,,,,,,,,,,,,,,,,,,,,,,,,,,,,,,,,,,,,,,,,,,,,,,,,,,,,,,,
,,614cce1a0dcaa6b078d3d5a7,2024-02-21_21h28.13.930,kallum_motion_pilot,2023.2.2,Win32,60.24096386,614cce1a0dcaa6b078d3d5a7,65d6bb0e977760de756971f7,65d6bf19511dc1d6cbca539e,0.0684,0.0685,1,10,172,44,1,threeone,,,,,,,,,,,,,,,,,,,,,,,,,,,,,,,,,,,,,,,,,,,,,,,,,,,,,,,,,,,,,,,,,,,,,,,,,,,,,,,,,,,,,,,,,,,,,,,,,,,,,,,,,,,,,,,,,,,,,,,,,,,,,,,,,,,,,,,,,
,,614cce1a0dcaa6b078d3d5a7,2024-02-21_21h28.13.930,kallum_motion_pilot,2023.2.2,Win32,60.24096386,614cce1a0dcaa6b078d3d5a7,65d6bb0e977760de756971f7,65d6bf19511dc1d6cbca539e,0.0686,0.0687,1,11,173,47,1,fourthree,,,,,,,,,,,,,,,,,,,,,,,,,,,,,,,,,,,,,,,,,,,,,,,,,,,,,,,,,,,,,,,,,,,,,,,,,,,,,,,,,,,,,,,,,,,,,,,,,,,,,,,,,,,,,,,,,,,,,,,,,,,,,,,,,,,,,,,,,
,,614cce1a0dcaa6b078d3d5a7,2024-02-21_21h28.13.930,kallum_motion_pilot,2023.2.2,Win32,60.24096386,614cce1a0dcaa6b078d3d5a7,65d6bb0e977760de756971f7,65d6bf19511dc1d6cbca539e,0.0688,0.0688,1,12,174,126,1,eightsix,,,,,,,,,,,,,,,,,,,,,,,,,,,,,,,,,,,,,,,,,,,,,,,,,,,,,,,,,,,,,,,,,,,,,,,,,,,,,,,,,,,,,,,,,,,,,,,,,,,,,,,,,,,,,,,,,,,,,,,,,,,,,,,,,,,,,,,,,
,,614cce1a0dcaa6b078d3d5a7,2024-02-21_21h28.13.930,kallum_motion_pilot,2023.2.2,Win32,60.24096386,614cce1a0dcaa6b078d3d5a7,65d6bb0e977760de756971f7,65d6bf19511dc1d6cbca539e,0.069,0.0691,1,13,175,157,1,seveneight,,,,,,,,,,,,,,,,,,,,,,,,,,,,,,,,,,,,,,,,,,,,,,,,,,,,,,,,,,,,,,,,,,,,,,,,,,,,,,,,,,,,,,,,,,,,,,,,,,,,,,,,,,,,,,,,,,,,,,,,,,,,,,,,,,,,,,,,,
,,614cce1a0dcaa6b078d3d5a7,2024-02-21_21h28.13.930,kallum_motion_pilot,2023.2.2,Win32,60.24096386,614cce1a0dcaa6b078d3d5a7,65d6bb0e977760de756971f7,65d6bf19511dc1d6cbca539e,0.0691,0.0693,1,14,176,34,1,twoone,,,,,,,,,,,,,,,,,,,,,,,,,,,,,,,,,,,,,,,,,,,,,,,,,,,,,,,,,,,,,,,,,,,,,,,,,,,,,,,,,,,,,,,,,,,,,,,,,,,,,,,,,,,,,,,,,,,,,,,,,,,,,,,,,,,,,,,,,
,,614cce1a0dcaa6b078d3d5a7,2024-02-21_21h28.13.930,kallum_motion_pilot,2023.2.2,Win32,60.24096386,614cce1a0dcaa6b078d3d5a7,65d6bb0e977760de756971f7,65d6bf19511dc1d6cbca539e,0.0694,0.0695,1,15,177,13,1,threefour,,,,,,,,,,,,,,,,,,,,,,,,,,,,,,,,,,,,,,,,,,,,,,,,,,,,,,,,,,,,,,,,,,,,,,,,,,,,,,,,,,,,,,,,,,,,,,,,,,,,,,,,,,,,,,,,,,,,,,,,,,,,,,,,,,,,,,,,,
,,614cce1a0dcaa6b078d3d5a7,2024-02-21_21h28.13.930,kallum_motion_pilot,2023.2.2,Win32,60.24096386,614cce1a0dcaa6b078d3d5a7,65d6bb0e977760de756971f7,65d6bf19511dc1d6cbca539e,0.0699,0.0702,1,16,178,90,1,sixfive,,,,,,,,,,,,,,,,,,,,,,,,,,,,,,,,,,,,,,,,,,,,,,,,,,,,,,,,,,,,,,,,,,,,,,,,,,,,,,,,,,,,,,,,,,,,,,,,,,,,,,,,,,,,,,,,,,,,,,,,,,,,,,,,,,,,,,,,,
,,614cce1a0dcaa6b078d3d5a7,2024-02-21_21h28.13.930,kallum_motion_pilot,2023.2.2,Win32,60.24096386,614cce1a0dcaa6b078d3d5a7,65d6bb0e977760de756971f7,65d6bf19511dc1d6cbca539e,0.0708,0.0712,1,17,179,17,1,onethree,,,,,,,,,,,,,,,,,,,,,,,,,,,,,,,,,,,,,,,,,,,,,,,,,,,,,,,,,,,,,,,,,,,,,,,,,,,,,,,,,,,,,,,,,,,,,,,,,,,,,,,,,,,,,,,,,,,,,,,,,,,,,,,,,,,,,,,,,
,,614cce1a0dcaa6b078d3d5a7,2024-02-21_21h28.13.930,kallum_motion_pilot,2023.2.2,Win32,60.24096386,614cce1a0dcaa6b078d3d5a7,65d6bb0e977760de756971f7,65d6bf19511dc1d6cbca539e,0.0717,0.0719,1,18,180,52,1,threeone,,,,,,,,,,,,,,,,,,,,,,,,,,,,,,,,,,,,,,,,,,,,,,,,,,,,,,,,,,,,,,,,,,,,,,,,,,,,,,,,,,,,,,,,,,,,,,,,,,,,,,,,,,,,,,,,,,,,,,,,,,,,,,,,,,,,,,,,,
,,614cce1a0dcaa6b078d3d5a7,2024-02-21_21h28.13.930,kallum_motion_pilot,2023.2.2,Win32,60.24096386,614cce1a0dcaa6b078d3d5a7,65d6bb0e977760de756971f7,65d6bf19511dc1d6cbca539e,0.0726,0.0727,1,19,181,76,1,threeone,,,,,,,,,,,,,,,,,,,,,,,,,,,,,,,,,,,,,,,,,,,,,,,,,,,,,,,,,,,,,,,,,,,,,,,,,,,,,,,,,,,,,,,,,,,,,,,,,,,,,,,,,,,,,,,,,,,,,,,,,,,,,,,,,,,,,,,,,
,,614cce1a0dcaa6b078d3d5a7,2024-02-21_21h28.13.930,kallum_motion_pilot,2023.2.2,Win32,60.24096386,614cce1a0dcaa6b078d3d5a7,65d6bb0e977760de756971f7,65d6bf19511dc1d6cbca539e,0.0728,0.0729,1,20,182,123,1,sixeight,,,,,,,,,,,,,,,,,,,,,,,,,,,,,,,,,,,,,,,,,,,,,,,,,,,,,,,,,,,,,,,,,,,,,,,,,,,,,,,,,,,,,,,,,,,,,,,,,,,,,,,,,,,,,,,,,,,,,,,,,,,,,,,,,,,,,,,,,
,,614cce1a0dcaa6b078d3d5a7,2024-02-21_21h28.13.930,kallum_motion_pilot,2023.2.2,Win32,60.24096386,614cce1a0dcaa6b078d3d5a7,65d6bb0e977760de756971f7,65d6bf19511dc1d6cbca539e,0.073,0.0731,1,21,183,45,1,threefour,,,,,,,,,,,,,,,,,,,,,,,,,,,,,,,,,,,,,,,,,,,,,,,,,,,,,,,,,,,,,,,,,,,,,,,,,,,,,,,,,,,,,,,,,,,,,,,,,,,,,,,,,,,,,,,,,,,,,,,,,,,,,,,,,,,,,,,,,
,,614cce1a0dcaa6b078d3d5a7,2024-02-21_21h28.13.930,kallum_motion_pilot,2023.2.2,Win32,60.24096386,614cce1a0dcaa6b078d3d5a7,65d6bb0e977760de756971f7,65d6bf19511dc1d6cbca539e,0.0733,0.0734,1,22,184,125,1,seveneight,,,,,,,,,,,,,,,,,,,,,,,,,,,,,,,,,,,,,,,,,,,,,,,,,,,,,,,,,,,,,,,,,,,,,,,,,,,,,,,,,,,,,,,,,,,,,,,,,,,,,,,,,,,,,,,,,,,,,,,,,,,,,,,,,,,,,,,,,
,,614cce1a0dcaa6b078d3d5a7,2024-02-21_21h28.13.930,kallum_motion_pilot,2023.2.2,Win32,60.24096386,614cce1a0dcaa6b078d3d5a7,65d6bb0e977760de756971f7,65d6bf19511dc1d6cbca539e,0.0735,0.0736,1,23,185,146,1,sixfive,,,,,,,,,,,,,,,,,,,,,,,,,,,,,,,,,,,,,,,,,,,,,,,,,,,,,,,,,,,,,,,,,,,,,,,,,,,,,,,,,,,,,,,,,,,,,,,,,,,,,,,,,,,,,,,,,,,,,,,,,,,,,,,,,,,,,,,,,
,,614cce1a0dcaa6b078d3d5a7,2024-02-21_21h28.13.930,kallum_motion_pilot,2023.2.2,Win32,60.24096386,614cce1a0dcaa6b078d3d5a7,65d6bb0e977760de756971f7,65d6bf19511dc1d6cbca539e,0.0738,0.0738,1,24,186,27,1,twofour,,,,,,,,,,,,,,,,,,,,,,,,,,,,,,,,,,,,,,,,,,,,,,,,,,,,,,,,,,,,,,,,,,,,,,,,,,,,,,,,,,,,,,,,,,,,,,,,,,,,,,,,,,,,,,,,,,,,,,,,,,,,,,,,,,,,,,,,,
,,614cce1a0dcaa6b078d3d5a7,2024-02-21_21h28.13.930,kallum_motion_pilot,2023.2.2,Win32,60.24096386,614cce1a0dcaa6b078d3d5a7,65d6bb0e977760de756971f7,65d6bf19511dc1d6cbca539e,0.074,0.0741,1,25,187,69,1,threefour,,,,,,,,,,,,,,,,,,,,,,,,,,,,,,,,,,,,,,,,,,,,,,,,,,,,,,,,,,,,,,,,,,,,,,,,,,,,,,,,,,,,,,,,,,,,,,,,,,,,,,,,,,,,,,,,,,,,,,,,,,,,,,,,,,,,,,,,,
,,614cce1a0dcaa6b078d3d5a7,2024-02-21_21h28.13.930,kallum_motion_pilot,2023.2.2,Win32,60.24096386,614cce1a0dcaa6b078d3d5a7,65d6bb0e977760de756971f7,65d6bf19511dc1d6cbca539e,0.0742,0.0743,1,26,188,78,1,fourtwo,,,,,,,,,,,,,,,,,,,,,,,,,,,,,,,,,,,,,,,,,,,,,,,,,,,,,,,,,,,,,,,,,,,,,,,,,,,,,,,,,,,,,,,,,,,,,,,,,,,,,,,,,,,,,,,,,,,,,,,,,,,,,,,,,,,,,,,,,
,,614cce1a0dcaa6b078d3d5a7,2024-02-21_21h28.13.930,kallum_motion_pilot,2023.2.2,Win32,60.24096386,614cce1a0dcaa6b078d3d5a7,65d6bb0e977760de756971f7,65d6bf19511dc1d6cbca539e,0.0744,0.0745,1,27,189,29,1,threefour,,,,,,,,,,,,,,,,,,,,,,,,,,,,,,,,,,,,,,,,,,,,,,,,,,,,,,,,,,,,,,,,,,,,,,,,,,,,,,,,,,,,,,,,,,,,,,,,,,,,,,,,,,,,,,,,,,,,,,,,,,,,,,,,,,,,,,,,,
,,614cce1a0dcaa6b078d3d5a7,2024-02-21_21h28.13.930,kallum_motion_pilot,2023.2.2,Win32,60.24096386,614cce1a0dcaa6b078d3d5a7,65d6bb0e977760de756971f7,65d6bf19511dc1d6cbca539e,0.0746,0.0747,1,28,190,107,1,sixeight,,,,,,,,,,,,,,,,,,,,,,,,,,,,,,,,,,,,,,,,,,,,,,,,,,,,,,,,,,,,,,,,,,,,,,,,,,,,,,,,,,,,,,,,,,,,,,,,,,,,,,,,,,,,,,,,,,,,,,,,,,,,,,,,,,,,,,,,,
,,614cce1a0dcaa6b078d3d5a7,2024-02-21_21h28.13.930,kallum_motion_pilot,2023.2.2,Win32,60.24096386,614cce1a0dcaa6b078d3d5a7,65d6bb0e977760de756971f7,65d6bf19511dc1d6cbca539e,0.0748,0.0749,1,29,191,46,1,fourtwo,,,,,,,,,,,,,,,,,,,,,,,,,,,,,,,,,,,,,,,,,,,,,,,,,,,,,,,,,,,,,,,,,,,,,,,,,,,,,,,,,,,,,,,,,,,,,,,,,,,,,,,,,,,,,,,,,,,,,,,,,,,,,,,,,,,,,,,,,
,,614cce1a0dcaa6b078d3d5a7,2024-02-21_21h28.13.930,kallum_motion_pilot,2023.2.2,Win32,60.24096386,614cce1a0dcaa6b078d3d5a7,65d6bb0e977760de756971f7,65d6bf19511dc1d6cbca539e,0.075,0.0751,1,30,192,7,1,fourthree,,,,,,,,,,,,,,,,,,,,,,,,,,,,,,,,,,,,,,,,,,,,,,,,,,,,,,,,,,,,,,,,,,,,,,,,,,,,,,,,,,,,,,,,,,,,,,,,,,,,,,,,,,,,,,,,,,,,,,,,,,,,,,,,,,,,,,,,,
,,614cce1a0dcaa6b078d3d5a7,2024-02-21_21h28.13.930,kallum_motion_pilot,2023.2.2,Win32,60.24096386,614cce1a0dcaa6b078d3d5a7,65d6bb0e977760de756971f7,65d6bf19511dc1d6cbca539e,0.0752,0.0753,1,31,193,61,1,threefour,,,,,,,,,,,,,,,,,,,,,,,,,,,,,,,,,,,,,,,,,,,,,,,,,,,,,,,,,,,,,,,,,,,,,,,,,,,,,,,,,,,,,,,,,,,,,,,,,,,,,,,,,,,,,,,,,,,,,,,,,,,,,,,,,,,,,,,,,
,,614cce1a0dcaa6b078d3d5a7,2024-02-21_21h28.13.930,kallum_motion_pilot,2023.2.2,Win32,60.24096386,614cce1a0dcaa6b078d3d5a7,65d6bb0e977760de756971f7,65d6bf19511dc1d6cbca539e,0.0754,0.0755,1,32,194,150,1,eightsix,,,,,,,,,,,,,,,,,,,,,,,,,,,,,,,,,,,,,,,,,,,,,,,,,,,,,,,,,,,,,,,,,,,,,,,,,,,,,,,,,,,,,,,,,,,,,,,,,,,,,,,,,,,,,,,,,,,,,,,,,,,,,,,,,,,,,,,,,
,,614cce1a0dcaa6b078d3d5a7,2024-02-21_21h28.13.930,kallum_motion_pilot,2023.2.2,Win32,60.24096386,614cce1a0dcaa6b078d3d5a7,65d6bb0e977760de756971f7,65d6bf19511dc1d6cbca539e,0.0756,0.0757,1,33,195,159,1,eightseven,,,,,,,,,,,,,,,,,,,,,,,,,,,,,,,,,,,,,,,,,,,,,,,,,,,,,,,,,,,,,,,,,,,,,,,,,,,,,,,,,,,,,,,,,,,,,,,,,,,,,,,,,,,,,,,,,,,,,,,,,,,,,,,,,,,,,,,,,
,,614cce1a0dcaa6b078d3d5a7,2024-02-21_21h28.13.930,kallum_motion_pilot,2023.2.2,Win32,60.24096386,614cce1a0dcaa6b078d3d5a7,65d6bb0e977760de756971f7,65d6bf19511dc1d6cbca539e,0.0759,0.076,1,34,196,112,1,fivesix,,,,,,,,,,,,,,,,,,,,,,,,,,,,,,,,,,,,,,,,,,,,,,,,,,,,,,,,,,,,,,,,,,,,,,,,,,,,,,,,,,,,,,,,,,,,,,,,,,,,,,,,,,,,,,,,,,,,,,,,,,,,,,,,,,,,,,,,,
,,614cce1a0dcaa6b078d3d5a7,2024-02-21_21h28.13.930,kallum_motion_pilot,2023.2.2,Win32,60.24096386,614cce1a0dcaa6b078d3d5a7,65d6bb0e977760de756971f7,65d6bf19511dc1d6cbca539e,0.0761,0.0762,1,35,197,37,1,threefour,,,,,,,,,,,,,,,,,,,,,,,,,,,,,,,,,,,,,,,,,,,,,,,,,,,,,,,,,,,,,,,,,,,,,,,,,,,,,,,,,,,,,,,,,,,,,,,,,,,,,,,,,,,,,,,,,,,,,,,,,,,,,,,,,,,,,,,,,
,,614cce1a0dcaa6b078d3d5a7,2024-02-21_21h28.13.930,kallum_motion_pilot,2023.2.2,Win32,60.24096386,614cce1a0dcaa6b078d3d5a7,65d6bb0e977760de756971f7,65d6bf19511dc1d6cbca539e,0.0763,0.0764,1,36,198,132,1,sevenfive,,,,,,,,,,,,,,,,,,,,,,,,,,,,,,,,,,,,,,,,,,,,,,,,,,,,,,,,,,,,,,,,,,,,,,,,,,,,,,,,,,,,,,,,,,,,,,,,,,,,,,,,,,,,,,,,,,,,,,,,,,,,,,,,,,,,,,,,,
,,614cce1a0dcaa6b078d3d5a7,2024-02-21_21h28.13.930,kallum_motion_pilot,2023.2.2,Win32,60.24096386,614cce1a0dcaa6b078d3d5a7,65d6bb0e977760de756971f7,65d6bf19511dc1d6cbca539e,0.0765,0.0766,1,37,199,14,1,fourtwo,,,,,,,,,,,,,,,,,,,,,,,,,,,,,,,,,,,,,,,,,,,,,,,,,,,,,,,,,,,,,,,,,,,,,,,,,,,,,,,,,,,,,,,,,,,,,,,,,,,,,,,,,,,,,,,,,,,,,,,,,,,,,,,,,,,,,,,,,
,,614cce1a0dcaa6b078d3d5a7,2024-02-21_21h28.13.930,kallum_motion_pilot,2023.2.2,Win32,60.24096386,614cce1a0dcaa6b078d3d5a7,65d6bb0e977760de756971f7,65d6bf19511dc1d6cbca539e,0.0767,0.0769,1,38,200,54,1,fourtwo,,,,,,,,,,,,,,,,,,,,,,,,,,,,,,,,,,,,,,,,,,,,,,,,,,,,,,,,,,,,,,,,,,,,,,,,,,,,,,,,,,,,,,,,,,,,,,,,,,,,,,,,,,,,,,,,,,,,,,,,,,,,,,,,,,,,,,,,,
,,614cce1a0dcaa6b078d3d5a7,2024-02-21_21h28.13.930,kallum_motion_pilot,2023.2.2,Win32,60.24096386,614cce1a0dcaa6b078d3d5a7,65d6bb0e977760de756971f7,65d6bf19511dc1d6cbca539e,0.0769,0.077,1,39,201,86,1,eightsix,,,,,,,,,,,,,,,,,,,,,,,,,,,,,,,,,,,,,,,,,,,,,,,,,,,,,,,,,,,,,,,,,,,,,,,,,,,,,,,,,,,,,,,,,,,,,,,,,,,,,,,,,,,,,,,,,,,,,,,,,,,,,,,,,,,,,,,,,
,,614cce1a0dcaa6b078d3d5a7,2024-02-21_21h28.13.930,kallum_motion_pilot,2023.2.2,Win32,60.24096386,614cce1a0dcaa6b078d3d5a7,65d6bb0e977760de756971f7,65d6bf19511dc1d6cbca539e,0.0772,0.0772,1,40,202,130,1,sixfive,,,,,,,,,,,,,,,,,,,,,,,,,,,,,,,,,,,,,,,,,,,,,,,,,,,,,,,,,,,,,,,,,,,,,,,,,,,,,,,,,,,,,,,,,,,,,,,,,,,,,,,,,,,,,,,,,,,,,,,,,,,,,,,,,,,,,,,,,
,,614cce1a0dcaa6b078d3d5a7,2024-02-21_21h28.13.930,kallum_motion_pilot,2023.2.2,Win32,60.24096386,614cce1a0dcaa6b078d3d5a7,65d6bb0e977760de756971f7,65d6bf19511dc1d6cbca539e,0.0773,0.0774,1,41,203,16,1,onetwo,,,,,,,,,,,,,,,,,,,,,,,,,,,,,,,,,,,,,,,,,,,,,,,,,,,,,,,,,,,,,,,,,,,,,,,,,,,,,,,,,,,,,,,,,,,,,,,,,,,,,,,,,,,,,,,,,,,,,,,,,,,,,,,,,,,,,,,,,
,,614cce1a0dcaa6b078d3d5a7,2024-02-21_21h28.13.930,kallum_motion_pilot,2023.2.2,Win32,60.24096386,614cce1a0dcaa6b078d3d5a7,65d6bb0e977760de756971f7,65d6bf19511dc1d6cbca539e,0.0775,0.0776,1,42,204,73,1,onethree,,,,,,,,,,,,,,,,,,,,,,,,,,,,,,,,,,,,,,,,,,,,,,,,,,,,,,,,,,,,,,,,,,,,,,,,,,,,,,,,,,,,,,,,,,,,,,,,,,,,,,,,,,,,,,,,,,,,,,,,,,,,,,,,,,,,,,,,,
,,614cce1a0dcaa6b078d3d5a7,2024-02-21_21h28.13.930,kallum_motion_pilot,2023.2.2,Win32,60.24096386,614cce1a0dcaa6b078d3d5a7,65d6bb0e977760de756971f7,65d6bf19511dc1d6cbca539e,0.0778,0.0779,1,43,205,43,1,twofour,,,,,,,,,,,,,,,,,,,,,,,,,,,,,,,,,,,,,,,,,,,,,,,,,,,,,,,,,,,,,,,,,,,,,,,,,,,,,,,,,,,,,,,,,,,,,,,,,,,,,,,,,,,,,,,,,,,,,,,,,,,,,,,,,,,,,,,,,
,,614cce1a0dcaa6b078d3d5a7,2024-02-21_21h28.13.930,kallum_motion_pilot,2023.2.2,Win32,60.24096386,614cce1a0dcaa6b078d3d5a7,65d6bb0e977760de756971f7,65d6bf19511dc1d6cbca539e,0.078,0.0782,1,44,206,128,1,fivesix,,,,,,,,,,,,,,,,,,,,,,,,,,,,,,,,,,,,,,,,,,,,,,,,,,,,,,,,,,,,,,,,,,,,,,,,,,,,,,,,,,,,,,,,,,,,,,,,,,,,,,,,,,,,,,,,,,,,,,,,,,,,,,,,,,,,,,,,,
,,614cce1a0dcaa6b078d3d5a7,2024-02-21_21h28.13.930,kallum_motion_pilot,2023.2.2,Win32,60.24096386,614cce1a0dcaa6b078d3d5a7,65d6bb0e977760de756971f7,65d6bf19511dc1d6cbca539e,0.0783,0.0785,1,45,207,8,1,onetwo,,,,,,,,,,,,,,,,,,,,,,,,,,,,,,,,,,,,,,,,,,,,,,,,,,,,,,,,,,,,,,,,,,,,,,,,,,,,,,,,,,,,,,,,,,,,,,,,,,,,,,,,,,,,,,,,,,,,,,,,,,,,,,,,,,,,,,,,,
,,614cce1a0dcaa6b078d3d5a7,2024-02-21_21h28.13.930,kallum_motion_pilot,2023.2.2,Win32,60.24096386,614cce1a0dcaa6b078d3d5a7,65d6bb0e977760de756971f7,65d6bf19511dc1d6cbca539e,0.0786,0.0787,1,46,208,153,1,fiveseven,,,,,,,,,,,,,,,,,,,,,,,,,,,,,,,,,,,,,,,,,,,,,,,,,,,,,,,,,,,,,,,,,,,,,,,,,,,,,,,,,,,,,,,,,,,,,,,,,,,,,,,,,,,,,,,,,,,,,,,,,,,,,,,,,,,,,,,,,
,,614cce1a0dcaa6b078d3d5a7,2024-02-21_21h28.13.930,kallum_motion_pilot,2023.2.2,Win32,60.24096386,614cce1a0dcaa6b078d3d5a7,65d6bb0e977760de756971f7,65d6bf19511dc1d6cbca539e,0.0787,0.0789,1,47,209,6,1,fourtwo,,,,,,,,,,,,,,,,,,,,,,,,,,,,,,,,,,,,,,,,,,,,,,,,,,,,,,,,,,,,,,,,,,,,,,,,,,,,,,,,,,,,,,,,,,,,,,,,,,,,,,,,,,,,,,,,,,,,,,,,,,,,,,,,,,,,,,,,,
,,614cce1a0dcaa6b078d3d5a7,2024-02-21_21h28.13.930,kallum_motion_pilot,2023.2.2,Win32,60.24096386,614cce1a0dcaa6b078d3d5a7,65d6bb0e977760de756971f7,65d6bf19511dc1d6cbca539e,0.079,0.0791,1,48,210,155,1,sixeight,,,,,,,,,,,,,,,,,,,,,,,,,,,,,,,,,,,,,,,,,,,,,,,,,,,,,,,,,,,,,,,,,,,,,,,,,,,,,,,,,,,,,,,,,,,,,,,,,,,,,,,,,,,,,,,,,,,,,,,,,,,,,,,,,,,,,,,,,
,,614cce1a0dcaa6b078d3d5a7,2024-02-21_21h28.13.930,kallum_motion_pilot,2023.2.2,Win32,60.24096386,614cce1a0dcaa6b078d3d5a7,65d6bb0e977760de756971f7,65d6bf19511dc1d6cbca539e,0.0792,0.0793,1,49,211,59,1,twofour,,,,,,,,,,,,,,,,,,,,,,,,,,,,,,,,,,,,,,,,,,,,,,,,,,,,,,,,,,,,,,,,,,,,,,,,,,,,,,,,,,,,,,,,,,,,,,,,,,,,,,,,,,,,,,,,,,,,,,,,,,,,,,,,,,,,,,,,,
,,614cce1a0dcaa6b078d3d5a7,2024-02-21_21h28.13.930,kallum_motion_pilot,2023.2.2,Win32,60.24096386,614cce1a0dcaa6b078d3d5a7,65d6bb0e977760de756971f7,65d6bf19511dc1d6cbca539e,0.0794,0.0795,1,50,212,149,1,seveneight,,,,,,,,,,,,,,,,,,,,,,,,,,,,,,,,,,,,,,,,,,,,,,,,,,,,,,,,,,,,,,,,,,,,,,,,,,,,,,,,,,,,,,,,,,,,,,,,,,,,,,,,,,,,,,,,,,,,,,,,,,,,,,,,,,,,,,,,,
,,614cce1a0dcaa6b078d3d5a7,2024-02-21_21h28.13.930,kallum_motion_pilot,2023.2.2,Win32,60.24096386,614cce1a0dcaa6b078d3d5a7,65d6bb0e977760de756971f7,65d6bf19511dc1d6cbca539e,0.0796,0.0797,1,51,213,96,1,fivesix,,,,,,,,,,,,,,,,,,,,,,,,,,,,,,,,,,,,,,,,,,,,,,,,,,,,,,,,,,,,,,,,,,,,,,,,,,,,,,,,,,,,,,,,,,,,,,,,,,,,,,,,,,,,,,,,,,,,,,,,,,,,,,,,,,,,,,,,,
,,614cce1a0dcaa6b078d3d5a7,2024-02-21_21h28.13.930,kallum_motion_pilot,2023.2.2,Win32,60.24096386,614cce1a0dcaa6b078d3d5a7,65d6bb0e977760de756971f7,65d6bf19511dc1d6cbca539e,0.0798,0.0798,1,52,214,135,1,eightseven,,,,,,,,,,,,,,,,,,,,,,,,,,,,,,,,,,,,,,,,,,,,,,,,,,,,,,,,,,,,,,,,,,,,,,,,,,,,,,,,,,,,,,,,,,,,,,,,,,,,,,,,,,,,,,,,,,,,,,,,,,,,,,,,,,,,,,,,,
,,614cce1a0dcaa6b078d3d5a7,2024-02-21_21h28.13.930,kallum_motion_pilot,2023.2.2,Win32,60.24096386,614cce1a0dcaa6b078d3d5a7,65d6bb0e977760de756971f7,65d6bf19511dc1d6cbca539e,0.0799,0.08,1,53,215,80,1,fivesix,,,,,,,,,,,,,,,,,,,,,,,,,,,,,,,,,,,,,,,,,,,,,,,,,,,,,,,,,,,,,,,,,,,,,,,,,,,,,,,,,,,,,,,,,,,,,,,,,,,,,,,,,,,,,,,,,,,,,,,,,,,,,,,,,,,,,,,,,
,,614cce1a0dcaa6b078d3d5a7,2024-02-21_21h28.13.930,kallum_motion_pilot,2023.2.2,Win32,60.24096386,614cce1a0dcaa6b078d3d5a7,65d6bb0e977760de756971f7,65d6bf19511dc1d6cbca539e,0.0801,0.0802,1,54,216,82,1,sixfive,,,,,,,,,,,,,,,,,,,,,,,,,,,,,,,,,,,,,,,,,,,,,,,,,,,,,,,,,,,,,,,,,,,,,,,,,,,,,,,,,,,,,,,,,,,,,,,,,,,,,,,,,,,,,,,,,,,,,,,,,,,,,,,,,,,,,,,,,
,,614cce1a0dcaa6b078d3d5a7,2024-02-21_21h28.13.930,kallum_motion_pilot,2023.2.2,Win32,60.24096386,614cce1a0dcaa6b078d3d5a7,65d6bb0e977760de756971f7,65d6bf19511dc1d6cbca539e,0.0804,0.0804,1,55,217,141,1,seveneight,,,,,,,,,,,,,,,,,,,,,,,,,,,,,,,,,,,,,,,,,,,,,,,,,,,,,,,,,,,,,,,,,,,,,,,,,,,,,,,,,,,,,,,,,,,,,,,,,,,,,,,,,,,,,,,,,,,,,,,,,,,,,,,,,,,,,,,,,
,,614cce1a0dcaa6b078d3d5a7,2024-02-21_21h28.13.930,kallum_motion_pilot,2023.2.2,Win32,60.24096386,614cce1a0dcaa6b078d3d5a7,65d6bb0e977760de756971f7,65d6bf19511dc1d6cbca539e,0.0806,0.0806,1,56,218,66,1,twoone,,,,,,,,,,,,,,,,,,,,,,,,,,,,,,,,,,,,,,,,,,,,,,,,,,,,,,,,,,,,,,,,,,,,,,,,,,,,,,,,,,,,,,,,,,,,,,,,,,,,,,,,,,,,,,,,,,,,,,,,,,,,,,,,,,,,,,,,,
,,614cce1a0dcaa6b078d3d5a7,2024-02-21_21h28.13.930,kallum_motion_pilot,2023.2.2,Win32,60.24096386,614cce1a0dcaa6b078d3d5a7,65d6bb0e977760de756971f7,65d6bf19511dc1d6cbca539e,0.0808,0.0809,1,57,219,148,1,sevenfive,,,,,,,,,,,,,,,,,,,,,,,,,,,,,,,,,,,,,,,,,,,,,,,,,,,,,,,,,,,,,,,,,,,,,,,,,,,,,,,,,,,,,,,,,,,,,,,,,,,,,,,,,,,,,,,,,,,,,,,,,,,,,,,,,,,,,,,,,
,,614cce1a0dcaa6b078d3d5a7,2024-02-21_21h28.13.930,kallum_motion_pilot,2023.2.2,Win32,60.24096386,614cce1a0dcaa6b078d3d5a7,65d6bb0e977760de756971f7,65d6bf19511dc1d6cbca539e,0.081,0.081,1,58,220,145,1,fiveseven,,,,,,,,,,,,,,,,,,,,,,,,,,,,,,,,,,,,,,,,,,,,,,,,,,,,,,,,,,,,,,,,,,,,,,,,,,,,,,,,,,,,,,,,,,,,,,,,,,,,,,,,,,,,,,,,,,,,,,,,,,,,,,,,,,,,,,,,,
,,614cce1a0dcaa6b078d3d5a7,2024-02-21_21h28.13.930,kallum_motion_pilot,2023.2.2,Win32,60.24096386,614cce1a0dcaa6b078d3d5a7,65d6bb0e977760de756971f7,65d6bf19511dc1d6cbca539e,0.0811,0.0812,1,59,221,55,1,fourthree,,,,,,,,,,,,,,,,,,,,,,,,,,,,,,,,,,,,,,,,,,,,,,,,,,,,,,,,,,,,,,,,,,,,,,,,,,,,,,,,,,,,,,,,,,,,,,,,,,,,,,,,,,,,,,,,,,,,,,,,,,,,,,,,,,,,,,,,,
,,614cce1a0dcaa6b078d3d5a7,2024-02-21_21h28.13.930,kallum_motion_pilot,2023.2.2,Win32,60.24096386,614cce1a0dcaa6b078d3d5a7,65d6bb0e977760de756971f7,65d6bf19511dc1d6cbca539e,0.0814,0.0815,1,60,222,49,1,onethree,,,,,,,,,,,,,,,,,,,,,,,,,,,,,,,,,,,,,,,,,,,,,,,,,,,,,,,,,,,,,,,,,,,,,,,,,,,,,,,,,,,,,,,,,,,,,,,,,,,,,,,,,,,,,,,,,,,,,,,,,,,,,,,,,,,,,,,,,
,,614cce1a0dcaa6b078d3d5a7,2024-02-21_21h28.13.930,kallum_motion_pilot,2023.2.2,Win32,60.24096386,614cce1a0dcaa6b078d3d5a7,65d6bb0e977760de756971f7,65d6bf19511dc1d6cbca539e,0.0815,0.0817,1,61,223,89,1,fiveseven,,,,,,,,,,,,,,,,,,,,,,,,,,,,,,,,,,,,,,,,,,,,,,,,,,,,,,,,,,,,,,,,,,,,,,,,,,,,,,,,,,,,,,,,,,,,,,,,,,,,,,,,,,,,,,,,,,,,,,,,,,,,,,,,,,,,,,,,,
,,614cce1a0dcaa6b078d3d5a7,2024-02-21_21h28.13.930,kallum_motion_pilot,2023.2.2,Win32,60.24096386,614cce1a0dcaa6b078d3d5a7,65d6bb0e977760de756971f7,65d6bf19511dc1d6cbca539e,0.0817,0.0819,1,62,224,20,1,threeone,,,,,,,,,,,,,,,,,,,,,,,,,,,,,,,,,,,,,,,,,,,,,,,,,,,,,,,,,,,,,,,,,,,,,,,,,,,,,,,,,,,,,,,,,,,,,,,,,,,,,,,,,,,,,,,,,,,,,,,,,,,,,,,,,,,,,,,,,
,,614cce1a0dcaa6b078d3d5a7,2024-02-21_21h28.13.930,kallum_motion_pilot,2023.2.2,Win32,60.24096386,614cce1a0dcaa6b078d3d5a7,65d6bb0e977760de756971f7,65d6bf19511dc1d6cbca539e,0.082,0.0821,1,63,225,18,1,twoone,,,,,,,,,,,,,,,,,,,,,,,,,,,,,,,,,,,,,,,,,,,,,,,,,,,,,,,,,,,,,,,,,,,,,,,,,,,,,,,,,,,,,,,,,,,,,,,,,,,,,,,,,,,,,,,,,,,,,,,,,,,,,,,,,,,,,,,,,
,,614cce1a0dcaa6b078d3d5a7,2024-02-21_21h28.13.930,kallum_motion_pilot,2023.2.2,Win32,60.24096386,614cce1a0dcaa6b078d3d5a7,65d6bb0e977760de756971f7,65d6bf19511dc1d6cbca539e,0.0822,0.0823,1,64,226,0,1,onetwo,,,,,,,,,,,,,,,,,,,,,,,,,,,,,,,,,,,,,,,,,,,,,,,,,,,,,,,,,,,,,,,,,,,,,,,,,,,,,,,,,,,,,,,,,,,,,,,,,,,,,,,,,,,,,,,,,,,,,,,,,,,,,,,,,,,,,,,,,
,,614cce1a0dcaa6b078d3d5a7,2024-02-21_21h28.13.930,kallum_motion_pilot,2023.2.2,Win32,60.24096386,614cce1a0dcaa6b078d3d5a7,65d6bb0e977760de756971f7,65d6bf19511dc1d6cbca539e,0.0825,0.0825,1,65,227,97,1,fiveseven,,,,,,,,,,,,,,,,,,,,,,,,,,,,,,,,,,,,,,,,,,,,,,,,,,,,,,,,,,,,,,,,,,,,,,,,,,,,,,,,,,,,,,,,,,,,,,,,,,,,,,,,,,,,,,,,,,,,,,,,,,,,,,,,,,,,,,,,,
,,614cce1a0dcaa6b078d3d5a7,2024-02-21_21h28.13.930,kallum_motion_pilot,2023.2.2,Win32,60.24096386,614cce1a0dcaa6b078d3d5a7,65d6bb0e977760de756971f7,65d6bf19511dc1d6cbca539e,0.0826,0.0827,1,66,228,10,1,twoone,,,,,,,,,,,,,,,,,,,,,,,,,,,,,,,,,,,,,,,,,,,,,,,,,,,,,,,,,,,,,,,,,,,,,,,,,,,,,,,,,,,,,,,,,,,,,,,,,,,,,,,,,,,,,,,,,,,,,,,,,,,,,,,,,,,,,,,,,
,,614cce1a0dcaa6b078d3d5a7,2024-02-21_21h28.13.930,kallum_motion_pilot,2023.2.2,Win32,60.24096386,614cce1a0dcaa6b078d3d5a7,65d6bb0e977760de756971f7,65d6bf19511dc1d6cbca539e,0.0829,0.0829,1,67,229,21,1,threefour,,,,,,,,,,,,,,,,,,,,,,,,,,,,,,,,,,,,,,,,,,,,,,,,,,,,,,,,,,,,,,,,,,,,,,,,,,,,,,,,,,,,,,,,,,,,,,,,,,,,,,,,,,,,,,,,,,,,,,,,,,,,,,,,,,,,,,,,,
,,614cce1a0dcaa6b078d3d5a7,2024-02-21_21h28.13.930,kallum_motion_pilot,2023.2.2,Win32,60.24096386,614cce1a0dcaa6b078d3d5a7,65d6bb0e977760de756971f7,65d6bf19511dc1d6cbca539e,0.083,0.0831,1,68,230,129,1,fiveseven,,,,,,,,,,,,,,,,,,,,,,,,,,,,,,,,,,,,,,,,,,,,,,,,,,,,,,,,,,,,,,,,,,,,,,,,,,,,,,,,,,,,,,,,,,,,,,,,,,,,,,,,,,,,,,,,,,,,,,,,,,,,,,,,,,,,,,,,,
,,614cce1a0dcaa6b078d3d5a7,2024-02-21_21h28.13.930,kallum_motion_pilot,2023.2.2,Win32,60.24096386,614cce1a0dcaa6b078d3d5a7,65d6bb0e977760de756971f7,65d6bf19511dc1d6cbca539e,0.0832,0.0833,1,69,231,99,1,sixeight,,,,,,,,,,,,,,,,,,,,,,,,,,,,,,,,,,,,,,,,,,,,,,,,,,,,,,,,,,,,,,,,,,,,,,,,,,,,,,,,,,,,,,,,,,,,,,,,,,,,,,,,,,,,,,,,,,,,,,,,,,,,,,,,,,,,,,,,,
,,614cce1a0dcaa6b078d3d5a7,2024-02-21_21h28.13.930,kallum_motion_pilot,2023.2.2,Win32,60.24096386,614cce1a0dcaa6b078d3d5a7,65d6bb0e977760de756971f7,65d6bf19511dc1d6cbca539e,0.0834,0.0835,1,70,232,83,1,sixeight,,,,,,,,,,,,,,,,,,,,,,,,,,,,,,,,,,,,,,,,,,,,,,,,,,,,,,,,,,,,,,,,,,,,,,,,,,,,,,,,,,,,,,,,,,,,,,,,,,,,,,,,,,,,,,,,,,,,,,,,,,,,,,,,,,,,,,,,,
,,614cce1a0dcaa6b078d3d5a7,2024-02-21_21h28.13.930,kallum_motion_pilot,2023.2.2,Win32,60.24096386,614cce1a0dcaa6b078d3d5a7,65d6bb0e977760de756971f7,65d6bf19511dc1d6cbca539e,0.0836,0.0837,1,71,233,11,1,twofour,,,,,,,,,,,,,,,,,,,,,,,,,,,,,,,,,,,,,,,,,,,,,,,,,,,,,,,,,,,,,,,,,,,,,,,,,,,,,,,,,,,,,,,,,,,,,,,,,,,,,,,,,,,,,,,,,,,,,,,,,,,,,,,,,,,,,,,,,
,,614cce1a0dcaa6b078d3d5a7,2024-02-21_21h28.13.930,kallum_motion_pilot,2023.2.2,Win32,60.24096386,614cce1a0dcaa6b078d3d5a7,65d6bb0e977760de756971f7,65d6bf19511dc1d6cbca539e,0.0839,0.084,1,72,234,139,1,sixeight,,,,,,,,,,,,,,,,,,,,,,,,,,,,,,,,,,,,,,,,,,,,,,,,,,,,,,,,,,,,,,,,,,,,,,,,,,,,,,,,,,,,,,,,,,,,,,,,,,,,,,,,,,,,,,,,,,,,,,,,,,,,,,,,,,,,,,,,,
,,614cce1a0dcaa6b078d3d5a7,2024-02-21_21h28.13.930,kallum_motion_pilot,2023.2.2,Win32,60.24096386,614cce1a0dcaa6b078d3d5a7,65d6bb0e977760de756971f7,65d6bf19511dc1d6cbca539e,0.0841,0.0841,1,73,235,87,1,eightseven,,,,,,,,,,,,,,,,,,,,,,,,,,,,,,,,,,,,,,,,,,,,,,,,,,,,,,,,,,,,,,,,,,,,,,,,,,,,,,,,,,,,,,,,,,,,,,,,,,,,,,,,,,,,,,,,,,,,,,,,,,,,,,,,,,,,,,,,,
,,614cce1a0dcaa6b078d3d5a7,2024-02-21_21h28.13.930,kallum_motion_pilot,2023.2.2,Win32,60.24096386,614cce1a0dcaa6b078d3d5a7,65d6bb0e977760de756971f7,65d6bf19511dc1d6cbca539e,0.0843,0.0843,1,74,236,113,1,fiveseven,,,,,,,,,,,,,,,,,,,,,,,,,,,,,,,,,,,,,,,,,,,,,,,,,,,,,,,,,,,,,,,,,,,,,,,,,,,,,,,,,,,,,,,,,,,,,,,,,,,,,,,,,,,,,,,,,,,,,,,,,,,,,,,,,,,,,,,,,
,,614cce1a0dcaa6b078d3d5a7,2024-02-21_21h28.13.930,kallum_motion_pilot,2023.2.2,Win32,60.24096386,614cce1a0dcaa6b078d3d5a7,65d6bb0e977760de756971f7,65d6bf19511dc1d6cbca539e,0.0847,0.0848,1,75,237,137,1,fiveseven,,,,,,,,,,,,,,,,,,,,,,,,,,,,,,,,,,,,,,,,,,,,,,,,,,,,,,,,,,,,,,,,,,,,,,,,,,,,,,,,,,,,,,,,,,,,,,,,,,,,,,,,,,,,,,,,,,,,,,,,,,,,,,,,,,,,,,,,,
,,614cce1a0dcaa6b078d3d5a7,2024-02-21_21h28.13.930,kallum_motion_pilot,2023.2.2,Win32,60.24096386,614cce1a0dcaa6b078d3d5a7,65d6bb0e977760de756971f7,65d6bf19511dc1d6cbca539e,0.0848,0.0849,1,76,238,134,1,eightsix,,,,,,,,,,,,,,,,,,,,,,,,,,,,,,,,,,,,,,,,,,,,,,,,,,,,,,,,,,,,,,,,,,,,,,,,,,,,,,,,,,,,,,,,,,,,,,,,,,,,,,,,,,,,,,,,,,,,,,,,,,,,,,,,,,,,,,,,,
,,614cce1a0dcaa6b078d3d5a7,2024-02-21_21h28.13.930,kallum_motion_pilot,2023.2.2,Win32,60.24096386,614cce1a0dcaa6b078d3d5a7,65d6bb0e977760de756971f7,65d6bf19511dc1d6cbca539e,0.0851,0.0852,1,77,239,85,1,seveneight,,,,,,,,,,,,,,,,,,,,,,,,,,,,,,,,,,,,,,,,,,,,,,,,,,,,,,,,,,,,,,,,,,,,,,,,,,,,,,,,,,,,,,,,,,,,,,,,,,,,,,,,,,,,,,,,,,,,,,,,,,,,,,,,,,,,,,,,,
,,614cce1a0dcaa6b078d3d5a7,2024-02-21_21h28.13.930,kallum_motion_pilot,2023.2.2,Win32,60.24096386,614cce1a0dcaa6b078d3d5a7,65d6bb0e977760de756971f7,65d6bf19511dc1d6cbca539e,0.0853,0.0854,1,78,240,15,1,fourthree,,,,,,,,,,,,,,,,,,,,,,,,,,,,,,,,,,,,,,,,,,,,,,,,,,,,,,,,,,,,,,,,,,,,,,,,,,,,,,,,,,,,,,,,,,,,,,,,,,,,,,,,,,,,,,,,,,,,,,,,,,,,,,,,,,,,,,,,,
,,614cce1a0dcaa6b078d3d5a7,2024-02-21_21h28.13.930,kallum_motion_pilot,2023.2.2,Win32,60.24096386,614cce1a0dcaa6b078d3d5a7,65d6bb0e977760de756971f7,65d6bf19511dc1d6cbca539e,0.0855,0.0856,1,79,241,84,1,sevenfive,,,,,,,,,,,,,,,,,,,,,,,,,,,,,,,,,,,,,,,,,,,,,,,,,,,,,,,,,,,,,,,,,,,,,,,,,,,,,,,,,,,,,,,,,,,,,,,,,,,,,,,,,,,,,,,,,,,,,,,,,,,,,,,,,,,,,,,,,
,,614cce1a0dcaa6b078d3d5a7,2024-02-21_21h28.13.930,kallum_motion_pilot,2023.2.2,Win32,60.24096386,614cce1a0dcaa6b078d3d5a7,65d6bb0e977760de756971f7,65d6bf19511dc1d6cbca539e,0.0859,0.086,1,80,242,156,1,sevenfive,,,,,,,,,,,,,,,,,,,,,,,,,,,,,,,,,,,,,,,,,,,,,,,,,,,,,,,,,,,,,,,,,,,,,,,,,,,,,,,,,,,,,,,,,,,,,,,,,,,,,,,,,,,,,,,,,,,,,,,,,,,,,,,,,,,,,,,,,
,,614cce1a0dcaa6b078d3d5a7,2024-02-21_21h28.13.930,kallum_motion_pilot,2023.2.2,Win32,60.24096386,614cce1a0dcaa6b078d3d5a7,65d6bb0e977760de756971f7,65d6bf19511dc1d6cbca539e,0.0861,0.0866,1,81,243,138,1,sixfive,,,,,,,,,,,,,,,,,,,,,,,,,,,,,,,,,,,,,,,,,,,,,,,,,,,,,,,,,,,,,,,,,,,,,,,,,,,,,,,,,,,,,,,,,,,,,,,,,,,,,,,,,,,,,,,,,,,,,,,,,,,,,,,,,,,,,,,,,
,,614cce1a0dcaa6b078d3d5a7,2024-02-21_21h28.13.930,kallum_motion_pilot,2023.2.2,Win32,60.24096386,614cce1a0dcaa6b078d3d5a7,65d6bb0e977760de756971f7,65d6bf19511dc1d6cbca539e,0.0868,0.0876,1,82,244,94,1,eightsix,,,,,,,,,,,,,,,,,,,,,,,,,,,,,,,,,,,,,,,,,,,,,,,,,,,,,,,,,,,,,,,,,,,,,,,,,,,,,,,,,,,,,,,,,,,,,,,,,,,,,,,,,,,,,,,,,,,,,,,,,,,,,,,,,,,,,,,,,
,,614cce1a0dcaa6b078d3d5a7,2024-02-21_21h28.13.930,kallum_motion_pilot,2023.2.2,Win32,60.24096386,614cce1a0dcaa6b078d3d5a7,65d6bb0e977760de756971f7,65d6bf19511dc1d6cbca539e,0.0886,0.0887,1,83,245,67,1,twofour,,,,,,,,,,,,,,,,,,,,,,,,,,,,,,,,,,,,,,,,,,,,,,,,,,,,,,,,,,,,,,,,,,,,,,,,,,,,,,,,,,,,,,,,,,,,,,,,,,,,,,,,,,,,,,,,,,,,,,,,,,,,,,,,,,,,,,,,,
,,614cce1a0dcaa6b078d3d5a7,2024-02-21_21h28.13.930,kallum_motion_pilot,2023.2.2,Win32,60.24096386,614cce1a0dcaa6b078d3d5a7,65d6bb0e977760de756971f7,65d6bf19511dc1d6cbca539e,0.0896,0.0898,1,84,246,105,1,fiveseven,,,,,,,,,,,,,,,,,,,,,,,,,,,,,,,,,,,,,,,,,,,,,,,,,,,,,,,,,,,,,,,,,,,,,,,,,,,,,,,,,,,,,,,,,,,,,,,,,,,,,,,,,,,,,,,,,,,,,,,,,,,,,,,,,,,,,,,,,
,,614cce1a0dcaa6b078d3d5a7,2024-02-21_21h28.13.930,kallum_motion_pilot,2023.2.2,Win32,60.24096386,614cce1a0dcaa6b078d3d5a7,65d6bb0e977760de756971f7,65d6bf19511dc1d6cbca539e,0.0903,0.0904,1,85,247,25,1,onethree,,,,,,,,,,,,,,,,,,,,,,,,,,,,,,,,,,,,,,,,,,,,,,,,,,,,,,,,,,,,,,,,,,,,,,,,,,,,,,,,,,,,,,,,,,,,,,,,,,,,,,,,,,,,,,,,,,,,,,,,,,,,,,,,,,,,,,,,,
,,614cce1a0dcaa6b078d3d5a7,2024-02-21_21h28.13.930,kallum_motion_pilot,2023.2.2,Win32,60.24096386,614cce1a0dcaa6b078d3d5a7,65d6bb0e977760de756971f7,65d6bf19511dc1d6cbca539e,0.0905,0.0908,1,86,248,53,1,threefour,,,,,,,,,,,,,,,,,,,,,,,,,,,,,,,,,,,,,,,,,,,,,,,,,,,,,,,,,,,,,,,,,,,,,,,,,,,,,,,,,,,,,,,,,,,,,,,,,,,,,,,,,,,,,,,,,,,,,,,,,,,,,,,,,,,,,,,,,
,,614cce1a0dcaa6b078d3d5a7,2024-02-21_21h28.13.930,kallum_motion_pilot,2023.2.2,Win32,60.24096386,614cce1a0dcaa6b078d3d5a7,65d6bb0e977760de756971f7,65d6bf19511dc1d6cbca539e,0.091,0.0911,1,87,249,111,1,eightseven,,,,,,,,,,,,,,,,,,,,,,,,,,,,,,,,,,,,,,,,,,,,,,,,,,,,,,,,,,,,,,,,,,,,,,,,,,,,,,,,,,,,,,,,,,,,,,,,,,,,,,,,,,,,,,,,,,,,,,,,,,,,,,,,,,,,,,,,,
,,614cce1a0dcaa6b078d3d5a7,2024-02-21_21h28.13.930,kallum_motion_pilot,2023.2.2,Win32,60.24096386,614cce1a0dcaa6b078d3d5a7,65d6bb0e977760de756971f7,65d6bf19511dc1d6cbca539e,0.0912,0.0914,1,88,250,109,1,seveneight,,,,,,,,,,,,,,,,,,,,,,,,,,,,,,,,,,,,,,,,,,,,,,,,,,,,,,,,,,,,,,,,,,,,,,,,,,,,,,,,,,,,,,,,,,,,,,,,,,,,,,,,,,,,,,,,,,,,,,,,,,,,,,,,,,,,,,,,,
,,614cce1a0dcaa6b078d3d5a7,2024-02-21_21h28.13.930,kallum_motion_pilot,2023.2.2,Win32,60.24096386,614cce1a0dcaa6b078d3d5a7,65d6bb0e977760de756971f7,65d6bf19511dc1d6cbca539e,0.0915,0.0916,1,89,251,154,1,sixfive,,,,,,,,,,,,,,,,,,,,,,,,,,,,,,,,,,,,,,,,,,,,,,,,,,,,,,,,,,,,,,,,,,,,,,,,,,,,,,,,,,,,,,,,,,,,,,,,,,,,,,,,,,,,,,,,,,,,,,,,,,,,,,,,,,,,,,,,,
,,614cce1a0dcaa6b078d3d5a7,2024-02-21_21h28.13.930,kallum_motion_pilot,2023.2.2,Win32,60.24096386,614cce1a0dcaa6b078d3d5a7,65d6bb0e977760de756971f7,65d6bf19511dc1d6cbca539e,0.0917,0.0918,1,90,252,36,1,threeone,,,,,,,,,,,,,,,,,,,,,,,,,,,,,,,,,,,,,,,,,,,,,,,,,,,,,,,,,,,,,,,,,,,,,,,,,,,,,,,,,,,,,,,,,,,,,,,,,,,,,,,,,,,,,,,,,,,,,,,,,,,,,,,,,,,,,,,,,
,,614cce1a0dcaa6b078d3d5a7,2024-02-21_21h28.13.930,kallum_motion_pilot,2023.2.2,Win32,60.24096386,614cce1a0dcaa6b078d3d5a7,65d6bb0e977760de756971f7,65d6bf19511dc1d6cbca539e,0.092,0.092,1,91,253,68,1,threeone,,,,,,,,,,,,,,,,,,,,,,,,,,,,,,,,,,,,,,,,,,,,,,,,,,,,,,,,,,,,,,,,,,,,,,,,,,,,,,,,,,,,,,,,,,,,,,,,,,,,,,,,,,,,,,,,,,,,,,,,,,,,,,,,,,,,,,,,,
,,614cce1a0dcaa6b078d3d5a7,2024-02-21_21h28.13.930,kallum_motion_pilot,2023.2.2,Win32,60.24096386,614cce1a0dcaa6b078d3d5a7,65d6bb0e977760de756971f7,65d6bf19511dc1d6cbca539e,0.0921,0.0922,1,92,254,136,1,fivesix,,,,,,,,,,,,,,,,,,,,,,,,,,,,,,,,,,,,,,,,,,,,,,,,,,,,,,,,,,,,,,,,,,,,,,,,,,,,,,,,,,,,,,,,,,,,,,,,,,,,,,,,,,,,,,,,,,,,,,,,,,,,,,,,,,,,,,,,,
,,614cce1a0dcaa6b078d3d5a7,2024-02-21_21h28.13.930,kallum_motion_pilot,2023.2.2,Win32,60.24096386,614cce1a0dcaa6b078d3d5a7,65d6bb0e977760de756971f7,65d6bf19511dc1d6cbca539e,0.0924,0.0925,1,93,255,102,1,eightsix,,,,,,,,,,,,,,,,,,,,,,,,,,,,,,,,,,,,,,,,,,,,,,,,,,,,,,,,,,,,,,,,,,,,,,,,,,,,,,,,,,,,,,,,,,,,,,,,,,,,,,,,,,,,,,,,,,,,,,,,,,,,,,,,,,,,,,,,,
,,614cce1a0dcaa6b078d3d5a7,2024-02-21_21h28.13.930,kallum_motion_pilot,2023.2.2,Win32,60.24096386,614cce1a0dcaa6b078d3d5a7,65d6bb0e977760de756971f7,65d6bf19511dc1d6cbca539e,0.0926,0.0927,1,94,256,51,1,twofour,,,,,,,,,,,,,,,,,,,,,,,,,,,,,,,,,,,,,,,,,,,,,,,,,,,,,,,,,,,,,,,,,,,,,,,,,,,,,,,,,,,,,,,,,,,,,,,,,,,,,,,,,,,,,,,,,,,,,,,,,,,,,,,,,,,,,,,,,
,,614cce1a0dcaa6b078d3d5a7,2024-02-21_21h28.13.930,kallum_motion_pilot,2023.2.2,Win32,60.24096386,614cce1a0dcaa6b078d3d5a7,65d6bb0e977760de756971f7,65d6bf19511dc1d6cbca539e,0.0929,0.093,1,95,257,40,1,onetwo,,,,,,,,,,,,,,,,,,,,,,,,,,,,,,,,,,,,,,,,,,,,,,,,,,,,,,,,,,,,,,,,,,,,,,,,,,,,,,,,,,,,,,,,,,,,,,,,,,,,,,,,,,,,,,,,,,,,,,,,,,,,,,,,,,,,,,,,,
,,614cce1a0dcaa6b078d3d5a7,2024-02-21_21h28.13.930,kallum_motion_pilot,2023.2.2,Win32,60.24096386,614cce1a0dcaa6b078d3d5a7,65d6bb0e977760de756971f7,65d6bf19511dc1d6cbca539e,0.0931,0.0932,1,96,258,115,1,sixeight,,,,,,,,,,,,,,,,,,,,,,,,,,,,,,,,,,,,,,,,,,,,,,,,,,,,,,,,,,,,,,,,,,,,,,,,,,,,,,,,,,,,,,,,,,,,,,,,,,,,,,,,,,,,,,,,,,,,,,,,,,,,,,,,,,,,,,,,,
,,614cce1a0dcaa6b078d3d5a7,2024-02-21_21h28.13.930,kallum_motion_pilot,2023.2.2,Win32,60.24096386,614cce1a0dcaa6b078d3d5a7,65d6bb0e977760de756971f7,65d6bf19511dc1d6cbca539e,0.0933,0.0934,1,97,259,140,1,sevenfive,,,,,,,,,,,,,,,,,,,,,,,,,,,,,,,,,,,,,,,,,,,,,,,,,,,,,,,,,,,,,,,,,,,,,,,,,,,,,,,,,,,,,,,,,,,,,,,,,,,,,,,,,,,,,,,,,,,,,,,,,,,,,,,,,,,,,,,,,
,,614cce1a0dcaa6b078d3d5a7,2024-02-21_21h28.13.930,kallum_motion_pilot,2023.2.2,Win32,60.24096386,614cce1a0dcaa6b078d3d5a7,65d6bb0e977760de756971f7,65d6bf19511dc1d6cbca539e,0.0936,0.0936,1,98,260,65,1,onethree,,,,,,,,,,,,,,,,,,,,,,,,,,,,,,,,,,,,,,,,,,,,,,,,,,,,,,,,,,,,,,,,,,,,,,,,,,,,,,,,,,,,,,,,,,,,,,,,,,,,,,,,,,,,,,,,,,,,,,,,,,,,,,,,,,,,,,,,,
,,614cce1a0dcaa6b078d3d5a7,2024-02-21_21h28.13.930,kallum_motion_pilot,2023.2.2,Win32,60.24096386,614cce1a0dcaa6b078d3d5a7,65d6bb0e977760de756971f7,65d6bf19511dc1d6cbca539e,0.0937,0.0939,1,99,261,63,1,fourthree,,,,,,,,,,,,,,,,,,,,,,,,,,,,,,,,,,,,,,,,,,,,,,,,,,,,,,,,,,,,,,,,,,,,,,,,,,,,,,,,,,,,,,,,,,,,,,,,,,,,,,,,,,,,,,,,,,,,,,,,,,,,,,,,,,,,,,,,,
,,614cce1a0dcaa6b078d3d5a7,2024-02-21_21h28.13.930,kallum_motion_pilot,2023.2.2,Win32,60.24096386,614cce1a0dcaa6b078d3d5a7,65d6bb0e977760de756971f7,65d6bf19511dc1d6cbca539e,0.094,0.094,1,100,262,160,1,fivesix,,,,,,,,,,,,,,,,,,,,,,,,,,,,,,,,,,,,,,,,,,,,,,,,,,,,,,,,,,,,,,,,,,,,,,,,,,,,,,,,,,,,,,,,,,,,,,,,,,,,,,,,,,,,,,,,,,,,,,,,,,,,,,,,,,,,,,,,,
,,614cce1a0dcaa6b078d3d5a7,2024-02-21_21h28.13.930,kallum_motion_pilot,2023.2.2,Win32,60.24096386,614cce1a0dcaa6b078d3d5a7,65d6bb0e977760de756971f7,65d6bf19511dc1d6cbca539e,0.0941,0.0943,1,101,263,106,1,sixfive,,,,,,,,,,,,,,,,,,,,,,,,,,,,,,,,,,,,,,,,,,,,,,,,,,,,,,,,,,,,,,,,,,,,,,,,,,,,,,,,,,,,,,,,,,,,,,,,,,,,,,,,,,,,,,,,,,,,,,,,,,,,,,,,,,,,,,,,,
,,614cce1a0dcaa6b078d3d5a7,2024-02-21_21h28.13.930,kallum_motion_pilot,2023.2.2,Win32,60.24096386,614cce1a0dcaa6b078d3d5a7,65d6bb0e977760de756971f7,65d6bf19511dc1d6cbca539e,0.0944,0.0945,1,102,264,39,1,fourthree,,,,,,,,,,,,,,,,,,,,,,,,,,,,,,,,,,,,,,,,,,,,,,,,,,,,,,,,,,,,,,,,,,,,,,,,,,,,,,,,,,,,,,,,,,,,,,,,,,,,,,,,,,,,,,,,,,,,,,,,,,,,,,,,,,,,,,,,,
,,614cce1a0dcaa6b078d3d5a7,2024-02-21_21h28.13.930,kallum_motion_pilot,2023.2.2,Win32,60.24096386,614cce1a0dcaa6b078d3d5a7,65d6bb0e977760de756971f7,65d6bf19511dc1d6cbca539e,0.0947,0.0948,1,103,265,35,1,twofour,,,,,,,,,,,,,,,,,,,,,,,,,,,,,,,,,,,,,,,,,,,,,,,,,,,,,,,,,,,,,,,,,,,,,,,,,,,,,,,,,,,,,,,,,,,,,,,,,,,,,,,,,,,,,,,,,,,,,,,,,,,,,,,,,,,,,,,,,
,,614cce1a0dcaa6b078d3d5a7,2024-02-21_21h28.13.930,kallum_motion_pilot,2023.2.2,Win32,60.24096386,614cce1a0dcaa6b078d3d5a7,65d6bb0e977760de756971f7,65d6bf19511dc1d6cbca539e,0.0949,0.0951,1,104,266,127,1,eightseven,,,,,,,,,,,,,,,,,,,,,,,,,,,,,,,,,,,,,,,,,,,,,,,,,,,,,,,,,,,,,,,,,,,,,,,,,,,,,,,,,,,,,,,,,,,,,,,,,,,,,,,,,,,,,,,,,,,,,,,,,,,,,,,,,,,,,,,,,
,,614cce1a0dcaa6b078d3d5a7,2024-02-21_21h28.13.930,kallum_motion_pilot,2023.2.2,Win32,60.24096386,614cce1a0dcaa6b078d3d5a7,65d6bb0e977760de756971f7,65d6bf19511dc1d6cbca539e,0.0952,0.0953,1,105,267,70,1,fourtwo,,,,,,,,,,,,,,,,,,,,,,,,,,,,,,,,,,,,,,,,,,,,,,,,,,,,,,,,,,,,,,,,,,,,,,,,,,,,,,,,,,,,,,,,,,,,,,,,,,,,,,,,,,,,,,,,,,,,,,,,,,,,,,,,,,,,,,,,,
,,614cce1a0dcaa6b078d3d5a7,2024-02-21_21h28.13.930,kallum_motion_pilot,2023.2.2,Win32,60.24096386,614cce1a0dcaa6b078d3d5a7,65d6bb0e977760de756971f7,65d6bf19511dc1d6cbca539e,0.0954,0.0955,1,106,268,22,1,fourtwo,,,,,,,,,,,,,,,,,,,,,,,,,,,,,,,,,,,,,,,,,,,,,,,,,,,,,,,,,,,,,,,,,,,,,,,,,,,,,,,,,,,,,,,,,,,,,,,,,,,,,,,,,,,,,,,,,,,,,,,,,,,,,,,,,,,,,,,,,
,,614cce1a0dcaa6b078d3d5a7,2024-02-21_21h28.13.930,kallum_motion_pilot,2023.2.2,Win32,60.24096386,614cce1a0dcaa6b078d3d5a7,65d6bb0e977760de756971f7,65d6bf19511dc1d6cbca539e,0.0956,0.0957,1,107,269,1,1,onethree,,,,,,,,,,,,,,,,,,,,,,,,,,,,,,,,,,,,,,,,,,,,,,,,,,,,,,,,,,,,,,,,,,,,,,,,,,,,,,,,,,,,,,,,,,,,,,,,,,,,,,,,,,,,,,,,,,,,,,,,,,,,,,,,,,,,,,,,,
,,614cce1a0dcaa6b078d3d5a7,2024-02-21_21h28.13.930,kallum_motion_pilot,2023.2.2,Win32,60.24096386,614cce1a0dcaa6b078d3d5a7,65d6bb0e977760de756971f7,65d6bf19511dc1d6cbca539e,0.0958,0.0959,1,108,270,91,1,sixeight,,,,,,,,,,,,,,,,,,,,,,,,,,,,,,,,,,,,,,,,,,,,,,,,,,,,,,,,,,,,,,,,,,,,,,,,,,,,,,,,,,,,,,,,,,,,,,,,,,,,,,,,,,,,,,,,,,,,,,,,,,,,,,,,,,,,,,,,,
,,614cce1a0dcaa6b078d3d5a7,2024-02-21_21h28.13.930,kallum_motion_pilot,2023.2.2,Win32,60.24096386,614cce1a0dcaa6b078d3d5a7,65d6bb0e977760de756971f7,65d6bf19511dc1d6cbca539e,0.0961,0.0963,1,109,271,147,1,sixeight,,,,,,,,,,,,,,,,,,,,,,,,,,,,,,,,,,,,,,,,,,,,,,,,,,,,,,,,,,,,,,,,,,,,,,,,,,,,,,,,,,,,,,,,,,,,,,,,,,,,,,,,,,,,,,,,,,,,,,,,,,,,,,,,,,,,,,,,,
,,614cce1a0dcaa6b078d3d5a7,2024-02-21_21h28.13.930,kallum_motion_pilot,2023.2.2,Win32,60.24096386,614cce1a0dcaa6b078d3d5a7,65d6bb0e977760de756971f7,65d6bf19511dc1d6cbca539e,0.0964,0.0965,1,110,272,3,1,twofour,,,,,,,,,,,,,,,,,,,,,,,,,,,,,,,,,,,,,,,,,,,,,,,,,,,,,,,,,,,,,,,,,,,,,,,,,,,,,,,,,,,,,,,,,,,,,,,,,,,,,,,,,,,,,,,,,,,,,,,,,,,,,,,,,,,,,,,,,
,,614cce1a0dcaa6b078d3d5a7,2024-02-21_21h28.13.930,kallum_motion_pilot,2023.2.2,Win32,60.24096386,614cce1a0dcaa6b078d3d5a7,65d6bb0e977760de756971f7,65d6bf19511dc1d6cbca539e,0.0967,0.0967,1,111,273,79,1,eightseven,,,,,,,,,,,,,,,,,,,,,,,,,,,,,,,,,,,,,,,,,,,,,,,,,,,,,,,,,,,,,,,,,,,,,,,,,,,,,,,,,,,,,,,,,,,,,,,,,,,,,,,,,,,,,,,,,,,,,,,,,,,,,,,,,,,,,,,,,
,,614cce1a0dcaa6b078d3d5a7,2024-02-21_21h28.13.930,kallum_motion_pilot,2023.2.2,Win32,60.24096386,614cce1a0dcaa6b078d3d5a7,65d6bb0e977760de756971f7,65d6bf19511dc1d6cbca539e,0.0968,0.097,1,112,274,74,1,twoone,,,,,,,,,,,,,,,,,,,,,,,,,,,,,,,,,,,,,,,,,,,,,,,,,,,,,,,,,,,,,,,,,,,,,,,,,,,,,,,,,,,,,,,,,,,,,,,,,,,,,,,,,,,,,,,,,,,,,,,,,,,,,,,,,,,,,,,,,
,,614cce1a0dcaa6b078d3d5a7,2024-02-21_21h28.13.930,kallum_motion_pilot,2023.2.2,Win32,60.24096386,614cce1a0dcaa6b078d3d5a7,65d6bb0e977760de756971f7,65d6bf19511dc1d6cbca539e,0.0971,0.0973,1,113,275,131,1,sixeight,,,,,,,,,,,,,,,,,,,,,,,,,,,,,,,,,,,,,,,,,,,,,,,,,,,,,,,,,,,,,,,,,,,,,,,,,,,,,,,,,,,,,,,,,,,,,,,,,,,,,,,,,,,,,,,,,,,,,,,,,,,,,,,,,,,,,,,,,
,,614cce1a0dcaa6b078d3d5a7,2024-02-21_21h28.13.930,kallum_motion_pilot,2023.2.2,Win32,60.24096386,614cce1a0dcaa6b078d3d5a7,65d6bb0e977760de756971f7,65d6bf19511dc1d6cbca539e,0.0973,0.0974,1,114,276,9,1,onethree,,,,,,,,,,,,,,,,,,,,,,,,,,,,,,,,,,,,,,,,,,,,,,,,,,,,,,,,,,,,,,,,,,,,,,,,,,,,,,,,,,,,,,,,,,,,,,,,,,,,,,,,,,,,,,,,,,,,,,,,,,,,,,,,,,,,,,,,,
,,614cce1a0dcaa6b078d3d5a7,2024-02-21_21h28.13.930,kallum_motion_pilot,2023.2.2,Win32,60.24096386,614cce1a0dcaa6b078d3d5a7,65d6bb0e977760de756971f7,65d6bf19511dc1d6cbca539e,0.0976,0.0977,1,115,277,31,1,fourthree,,,,,,,,,,,,,,,,,,,,,,,,,,,,,,,,,,,,,,,,,,,,,,,,,,,,,,,,,,,,,,,,,,,,,,,,,,,,,,,,,,,,,,,,,,,,,,,,,,,,,,,,,,,,,,,,,,,,,,,,,,,,,,,,,,,,,,,,,
