startup.started,startup.stopped,Prolific ID*,date,expName,psychopyVersion,OS,frameRate,participant,study_id,session,stimpositions.started,stimpositions.stopped,hardcoded_stimulus_positions.thisRepN,hardcoded_stimulus_positions.thisTrialN,hardcoded_stimulus_positions.thisN,hardcoded_stimulus_positions.thisIndex,hardcoded_stimulus_positions.ran,StimulusPos,stimorientation.started,stimorientation.stopped,prac_stimorientation_import_loop.thisRepN,prac_stimorientation_import_loop.thisTrialN,prac_stimorientation_import_loop.thisN,prac_stimorientation_import_loop.thisIndex,prac_stimorientation_import_loop.ran,Stimorientation,welcome_instr.started,welcome_instr.stopped,key_resp.keys,key_resp.rt,key_resp.duration,response_steppedout_1.started,response_steppedout_1.stopped,key_resp_20.keys,key_resp_20.rt,key_resp_20.duration,response_steppedout_2.started,response_steppedout_2.stopped,key_resp_19.keys,key_resp_19.rt,key_resp_19.duration,stim_response_instr.started,stim_response_instr.stopped,key_resp_15.keys,key_resp_15.rt,key_resp_15.duration,direction_instr_2.started,direction_instr_2.stopped,key_resp_9.keys,key_resp_9.rt,key_resp_9.duration,instr_prac.started,instr_prac.stopped,key_resp_10.keys,key_resp_10.rt,key_resp_10.duration,Stim1_display_prac.started,Stim1_display_prac.stopped,Ecc,Circle1_ori,Circle2_ori,response_prac.started,similarity,response_time,response_prac.stopped,mouse_5.x,mouse_5.y,mouse_5.leftButton,mouse_5.midButton,mouse_5.rightButton,mouse_5.clicked_name,responseprac_feedback.started,responseprac_feedback.stopped,summary2_prac.started,summary2_prac.stopped,mouse_6.x,mouse_6.y,mouse_6.leftButton,mouse_6.midButton,mouse_6.rightButton,mouse_6.clicked_name,duringprac.thisRepN,duringprac.thisTrialN,duringprac.thisN,duringprac.thisIndex,duringprac.ran,begin.started,begin.stopped,key_resp_22.keys,key_resp_22.rt,key_resp_22.duration,Stim1_display.started,Stim1_display.stopped,circle1_ori,circle2_ori,circle1_SF,circle2_SF,response.started,response.stopped,mouse.x,mouse.y,mouse.leftButton,mouse.midButton,mouse.rightButton,mouse.clicked_name,trialnumber,double_pass.thisRepN,double_pass.thisTrialN,double_pass.thisN,double_pass.thisIndex,double_pass.ran,double_pass.order,main_trial.thisRepN,main_trial.thisTrialN,main_trial.thisN,main_trial.thisIndex,main_trial.ran,main_trial.order,Trial_Counter,Catch,Frequencies,response_2.started,response_2.stopped,mouse_2.x,mouse_2.y,mouse_2.leftButton,mouse_2.midButton,mouse_2.rightButton,mouse_2.clicked_name,special_trial.started,special_trial.stopped,catch_1.started,catch_1.stopped,mouse_3.x,mouse_3.y,mouse_3.leftButton,mouse_3.midButton,mouse_3.rightButton,catchresponse,catchnumber,response_time_catch,response_sum.started,response_sum.stopped,mouse_11.x,mouse_11.y,mouse_11.leftButton,mouse_11.midButton,mouse_11.rightButton,flip_presentation_sequence_for_double_pass.started,flip_presentation_sequence_for_double_pass.stopped,goodbye.started,goodbye.stopped,key_resp_3.keys,key_resp_3.rt,key_resp_3.duration
0.0009,0.001,614e848825ae648282115670,2024-02-22_04h30.20.349,kallum_motion_pilot,2023.2.2,Win32,59.88023952,614e848825ae648282115670,65d6bb0e977760de756971f7,65d6bfaa210973f7d2836d75,,,,,,,,,,,,,,,,,,,,,,,,,,,,,,,,,,,,,,,,,,,,,,,,,,,,,,,,,,,,,,,,,,,,,,,,,,,,,,,,,,,,,,,,,,,,,,,,,,,,,,,,,,,,,,,,,,,,,,,,,,,,,,,,,,,,,,,,,,,,,,,,,
,,614e848825ae648282115670,2024-02-22_04h30.20.349,kallum_motion_pilot,2023.2.2,Win32,59.88023952,614e848825ae648282115670,65d6bb0e977760de756971f7,65d6bfaa210973f7d2836d75,0.0451,0.0453,0,0,0,0,1,onetwo,,,,,,,,,,,,,,,,,,,,,,,,,,,,,,,,,,,,,,,,,,,,,,,,,,,,,,,,,,,,,,,,,,,,,,,,,,,,,,,,,,,,,,,,,,,,,,,,,,,,,,,,,,,,,,,,,,,,,,,,,,,,,,,,,,,,,,,,,
,,614e848825ae648282115670,2024-02-22_04h30.20.349,kallum_motion_pilot,2023.2.2,Win32,59.88023952,614e848825ae648282115670,65d6bb0e977760de756971f7,65d6bfaa210973f7d2836d75,0.0458,0.0458,0,1,1,120,1,fivesix,,,,,,,,,,,,,,,,,,,,,,,,,,,,,,,,,,,,,,,,,,,,,,,,,,,,,,,,,,,,,,,,,,,,,,,,,,,,,,,,,,,,,,,,,,,,,,,,,,,,,,,,,,,,,,,,,,,,,,,,,,,,,,,,,,,,,,,,,
,,614e848825ae648282115670,2024-02-22_04h30.20.349,kallum_motion_pilot,2023.2.2,Win32,59.88023952,614e848825ae648282115670,65d6bb0e977760de756971f7,65d6bfaa210973f7d2836d75,0.0462,0.0462,0,2,2,132,1,sevenfive,,,,,,,,,,,,,,,,,,,,,,,,,,,,,,,,,,,,,,,,,,,,,,,,,,,,,,,,,,,,,,,,,,,,,,,,,,,,,,,,,,,,,,,,,,,,,,,,,,,,,,,,,,,,,,,,,,,,,,,,,,,,,,,,,,,,,,,,,
,,614e848825ae648282115670,2024-02-22_04h30.20.349,kallum_motion_pilot,2023.2.2,Win32,59.88023952,614e848825ae648282115670,65d6bb0e977760de756971f7,65d6bfaa210973f7d2836d75,0.0465,0.0466,0,3,3,130,1,sixfive,,,,,,,,,,,,,,,,,,,,,,,,,,,,,,,,,,,,,,,,,,,,,,,,,,,,,,,,,,,,,,,,,,,,,,,,,,,,,,,,,,,,,,,,,,,,,,,,,,,,,,,,,,,,,,,,,,,,,,,,,,,,,,,,,,,,,,,,,
,,614e848825ae648282115670,2024-02-22_04h30.20.349,kallum_motion_pilot,2023.2.2,Win32,59.88023952,614e848825ae648282115670,65d6bb0e977760de756971f7,65d6bfaa210973f7d2836d75,0.0468,0.0468,0,4,4,77,1,threefour,,,,,,,,,,,,,,,,,,,,,,,,,,,,,,,,,,,,,,,,,,,,,,,,,,,,,,,,,,,,,,,,,,,,,,,,,,,,,,,,,,,,,,,,,,,,,,,,,,,,,,,,,,,,,,,,,,,,,,,,,,,,,,,,,,,,,,,,,
,,614e848825ae648282115670,2024-02-22_04h30.20.349,kallum_motion_pilot,2023.2.2,Win32,59.88023952,614e848825ae648282115670,65d6bb0e977760de756971f7,65d6bfaa210973f7d2836d75,0.0471,0.0471,0,5,5,102,1,eightsix,,,,,,,,,,,,,,,,,,,,,,,,,,,,,,,,,,,,,,,,,,,,,,,,,,,,,,,,,,,,,,,,,,,,,,,,,,,,,,,,,,,,,,,,,,,,,,,,,,,,,,,,,,,,,,,,,,,,,,,,,,,,,,,,,,,,,,,,,
,,614e848825ae648282115670,2024-02-22_04h30.20.349,kallum_motion_pilot,2023.2.2,Win32,59.88023952,614e848825ae648282115670,65d6bb0e977760de756971f7,65d6bfaa210973f7d2836d75,0.0473,0.0475,0,6,6,26,1,twoone,,,,,,,,,,,,,,,,,,,,,,,,,,,,,,,,,,,,,,,,,,,,,,,,,,,,,,,,,,,,,,,,,,,,,,,,,,,,,,,,,,,,,,,,,,,,,,,,,,,,,,,,,,,,,,,,,,,,,,,,,,,,,,,,,,,,,,,,,
,,614e848825ae648282115670,2024-02-22_04h30.20.349,kallum_motion_pilot,2023.2.2,Win32,59.88023952,614e848825ae648282115670,65d6bb0e977760de756971f7,65d6bfaa210973f7d2836d75,0.0477,0.0478,0,7,7,16,1,onetwo,,,,,,,,,,,,,,,,,,,,,,,,,,,,,,,,,,,,,,,,,,,,,,,,,,,,,,,,,,,,,,,,,,,,,,,,,,,,,,,,,,,,,,,,,,,,,,,,,,,,,,,,,,,,,,,,,,,,,,,,,,,,,,,,,,,,,,,,,
,,614e848825ae648282115670,2024-02-22_04h30.20.349,kallum_motion_pilot,2023.2.2,Win32,59.88023952,614e848825ae648282115670,65d6bb0e977760de756971f7,65d6bfaa210973f7d2836d75,0.0481,0.0481,0,8,8,121,1,fiveseven,,,,,,,,,,,,,,,,,,,,,,,,,,,,,,,,,,,,,,,,,,,,,,,,,,,,,,,,,,,,,,,,,,,,,,,,,,,,,,,,,,,,,,,,,,,,,,,,,,,,,,,,,,,,,,,,,,,,,,,,,,,,,,,,,,,,,,,,,
,,614e848825ae648282115670,2024-02-22_04h30.20.349,kallum_motion_pilot,2023.2.2,Win32,59.88023952,614e848825ae648282115670,65d6bb0e977760de756971f7,65d6bfaa210973f7d2836d75,0.0484,0.0484,0,9,9,100,1,sevenfive,,,,,,,,,,,,,,,,,,,,,,,,,,,,,,,,,,,,,,,,,,,,,,,,,,,,,,,,,,,,,,,,,,,,,,,,,,,,,,,,,,,,,,,,,,,,,,,,,,,,,,,,,,,,,,,,,,,,,,,,,,,,,,,,,,,,,,,,,
,,614e848825ae648282115670,2024-02-22_04h30.20.349,kallum_motion_pilot,2023.2.2,Win32,59.88023952,614e848825ae648282115670,65d6bb0e977760de756971f7,65d6bfaa210973f7d2836d75,0.0487,0.0487,0,10,10,122,1,sixfive,,,,,,,,,,,,,,,,,,,,,,,,,,,,,,,,,,,,,,,,,,,,,,,,,,,,,,,,,,,,,,,,,,,,,,,,,,,,,,,,,,,,,,,,,,,,,,,,,,,,,,,,,,,,,,,,,,,,,,,,,,,,,,,,,,,,,,,,,
,,614e848825ae648282115670,2024-02-22_04h30.20.349,kallum_motion_pilot,2023.2.2,Win32,59.88023952,614e848825ae648282115670,65d6bb0e977760de756971f7,65d6bfaa210973f7d2836d75,0.0494,0.0495,0,11,11,151,1,eightseven,,,,,,,,,,,,,,,,,,,,,,,,,,,,,,,,,,,,,,,,,,,,,,,,,,,,,,,,,,,,,,,,,,,,,,,,,,,,,,,,,,,,,,,,,,,,,,,,,,,,,,,,,,,,,,,,,,,,,,,,,,,,,,,,,,,,,,,,,
,,614e848825ae648282115670,2024-02-22_04h30.20.349,kallum_motion_pilot,2023.2.2,Win32,59.88023952,614e848825ae648282115670,65d6bb0e977760de756971f7,65d6bfaa210973f7d2836d75,0.0498,0.0498,0,12,12,141,1,seveneight,,,,,,,,,,,,,,,,,,,,,,,,,,,,,,,,,,,,,,,,,,,,,,,,,,,,,,,,,,,,,,,,,,,,,,,,,,,,,,,,,,,,,,,,,,,,,,,,,,,,,,,,,,,,,,,,,,,,,,,,,,,,,,,,,,,,,,,,,
,,614e848825ae648282115670,2024-02-22_04h30.20.349,kallum_motion_pilot,2023.2.2,Win32,59.88023952,614e848825ae648282115670,65d6bb0e977760de756971f7,65d6bfaa210973f7d2836d75,0.05,0.0501,0,13,13,80,1,fivesix,,,,,,,,,,,,,,,,,,,,,,,,,,,,,,,,,,,,,,,,,,,,,,,,,,,,,,,,,,,,,,,,,,,,,,,,,,,,,,,,,,,,,,,,,,,,,,,,,,,,,,,,,,,,,,,,,,,,,,,,,,,,,,,,,,,,,,,,,
,,614e848825ae648282115670,2024-02-22_04h30.20.349,kallum_motion_pilot,2023.2.2,Win32,59.88023952,614e848825ae648282115670,65d6bb0e977760de756971f7,65d6bfaa210973f7d2836d75,0.0503,0.0504,0,14,14,114,1,sixfive,,,,,,,,,,,,,,,,,,,,,,,,,,,,,,,,,,,,,,,,,,,,,,,,,,,,,,,,,,,,,,,,,,,,,,,,,,,,,,,,,,,,,,,,,,,,,,,,,,,,,,,,,,,,,,,,,,,,,,,,,,,,,,,,,,,,,,,,,
,,614e848825ae648282115670,2024-02-22_04h30.20.349,kallum_motion_pilot,2023.2.2,Win32,59.88023952,614e848825ae648282115670,65d6bb0e977760de756971f7,65d6bfaa210973f7d2836d75,0.0507,0.0507,0,15,15,158,1,eightsix,,,,,,,,,,,,,,,,,,,,,,,,,,,,,,,,,,,,,,,,,,,,,,,,,,,,,,,,,,,,,,,,,,,,,,,,,,,,,,,,,,,,,,,,,,,,,,,,,,,,,,,,,,,,,,,,,,,,,,,,,,,,,,,,,,,,,,,,,
,,614e848825ae648282115670,2024-02-22_04h30.20.349,kallum_motion_pilot,2023.2.2,Win32,59.88023952,614e848825ae648282115670,65d6bb0e977760de756971f7,65d6bfaa210973f7d2836d75,0.051,0.0514,0,16,16,45,1,threefour,,,,,,,,,,,,,,,,,,,,,,,,,,,,,,,,,,,,,,,,,,,,,,,,,,,,,,,,,,,,,,,,,,,,,,,,,,,,,,,,,,,,,,,,,,,,,,,,,,,,,,,,,,,,,,,,,,,,,,,,,,,,,,,,,,,,,,,,,
,,614e848825ae648282115670,2024-02-22_04h30.20.349,kallum_motion_pilot,2023.2.2,Win32,59.88023952,614e848825ae648282115670,65d6bb0e977760de756971f7,65d6bfaa210973f7d2836d75,0.0515,0.0517,0,17,17,40,1,onetwo,,,,,,,,,,,,,,,,,,,,,,,,,,,,,,,,,,,,,,,,,,,,,,,,,,,,,,,,,,,,,,,,,,,,,,,,,,,,,,,,,,,,,,,,,,,,,,,,,,,,,,,,,,,,,,,,,,,,,,,,,,,,,,,,,,,,,,,,,
,,614e848825ae648282115670,2024-02-22_04h30.20.349,kallum_motion_pilot,2023.2.2,Win32,59.88023952,614e848825ae648282115670,65d6bb0e977760de756971f7,65d6bfaa210973f7d2836d75,0.052,0.0521,0,18,18,75,1,twofour,,,,,,,,,,,,,,,,,,,,,,,,,,,,,,,,,,,,,,,,,,,,,,,,,,,,,,,,,,,,,,,,,,,,,,,,,,,,,,,,,,,,,,,,,,,,,,,,,,,,,,,,,,,,,,,,,,,,,,,,,,,,,,,,,,,,,,,,,
,,614e848825ae648282115670,2024-02-22_04h30.20.349,kallum_motion_pilot,2023.2.2,Win32,59.88023952,614e848825ae648282115670,65d6bb0e977760de756971f7,65d6bfaa210973f7d2836d75,0.0523,0.0523,0,19,19,160,1,fivesix,,,,,,,,,,,,,,,,,,,,,,,,,,,,,,,,,,,,,,,,,,,,,,,,,,,,,,,,,,,,,,,,,,,,,,,,,,,,,,,,,,,,,,,,,,,,,,,,,,,,,,,,,,,,,,,,,,,,,,,,,,,,,,,,,,,,,,,,,
,,614e848825ae648282115670,2024-02-22_04h30.20.349,kallum_motion_pilot,2023.2.2,Win32,59.88023952,614e848825ae648282115670,65d6bb0e977760de756971f7,65d6bfaa210973f7d2836d75,0.0526,0.0526,0,20,20,133,1,seveneight,,,,,,,,,,,,,,,,,,,,,,,,,,,,,,,,,,,,,,,,,,,,,,,,,,,,,,,,,,,,,,,,,,,,,,,,,,,,,,,,,,,,,,,,,,,,,,,,,,,,,,,,,,,,,,,,,,,,,,,,,,,,,,,,,,,,,,,,,
,,614e848825ae648282115670,2024-02-22_04h30.20.349,kallum_motion_pilot,2023.2.2,Win32,59.88023952,614e848825ae648282115670,65d6bb0e977760de756971f7,65d6bfaa210973f7d2836d75,0.0528,0.0528,0,21,21,32,1,onetwo,,,,,,,,,,,,,,,,,,,,,,,,,,,,,,,,,,,,,,,,,,,,,,,,,,,,,,,,,,,,,,,,,,,,,,,,,,,,,,,,,,,,,,,,,,,,,,,,,,,,,,,,,,,,,,,,,,,,,,,,,,,,,,,,,,,,,,,,,
,,614e848825ae648282115670,2024-02-22_04h30.20.349,kallum_motion_pilot,2023.2.2,Win32,59.88023952,614e848825ae648282115670,65d6bb0e977760de756971f7,65d6bfaa210973f7d2836d75,0.053,0.0531,0,22,22,96,1,fivesix,,,,,,,,,,,,,,,,,,,,,,,,,,,,,,,,,,,,,,,,,,,,,,,,,,,,,,,,,,,,,,,,,,,,,,,,,,,,,,,,,,,,,,,,,,,,,,,,,,,,,,,,,,,,,,,,,,,,,,,,,,,,,,,,,,,,,,,,,
,,614e848825ae648282115670,2024-02-22_04h30.20.349,kallum_motion_pilot,2023.2.2,Win32,59.88023952,614e848825ae648282115670,65d6bb0e977760de756971f7,65d6bfaa210973f7d2836d75,0.0533,0.0534,0,23,23,129,1,fiveseven,,,,,,,,,,,,,,,,,,,,,,,,,,,,,,,,,,,,,,,,,,,,,,,,,,,,,,,,,,,,,,,,,,,,,,,,,,,,,,,,,,,,,,,,,,,,,,,,,,,,,,,,,,,,,,,,,,,,,,,,,,,,,,,,,,,,,,,,,
,,614e848825ae648282115670,2024-02-22_04h30.20.349,kallum_motion_pilot,2023.2.2,Win32,59.88023952,614e848825ae648282115670,65d6bb0e977760de756971f7,65d6bfaa210973f7d2836d75,0.0536,0.0537,0,24,24,69,1,threefour,,,,,,,,,,,,,,,,,,,,,,,,,,,,,,,,,,,,,,,,,,,,,,,,,,,,,,,,,,,,,,,,,,,,,,,,,,,,,,,,,,,,,,,,,,,,,,,,,,,,,,,,,,,,,,,,,,,,,,,,,,,,,,,,,,,,,,,,,
,,614e848825ae648282115670,2024-02-22_04h30.20.349,kallum_motion_pilot,2023.2.2,Win32,59.88023952,614e848825ae648282115670,65d6bb0e977760de756971f7,65d6bfaa210973f7d2836d75,0.0539,0.054,0,25,25,143,1,eightseven,,,,,,,,,,,,,,,,,,,,,,,,,,,,,,,,,,,,,,,,,,,,,,,,,,,,,,,,,,,,,,,,,,,,,,,,,,,,,,,,,,,,,,,,,,,,,,,,,,,,,,,,,,,,,,,,,,,,,,,,,,,,,,,,,,,,,,,,,
,,614e848825ae648282115670,2024-02-22_04h30.20.349,kallum_motion_pilot,2023.2.2,Win32,59.88023952,614e848825ae648282115670,65d6bb0e977760de756971f7,65d6bfaa210973f7d2836d75,0.0542,0.0543,0,26,26,29,1,threefour,,,,,,,,,,,,,,,,,,,,,,,,,,,,,,,,,,,,,,,,,,,,,,,,,,,,,,,,,,,,,,,,,,,,,,,,,,,,,,,,,,,,,,,,,,,,,,,,,,,,,,,,,,,,,,,,,,,,,,,,,,,,,,,,,,,,,,,,,
,,614e848825ae648282115670,2024-02-22_04h30.20.349,kallum_motion_pilot,2023.2.2,Win32,59.88023952,614e848825ae648282115670,65d6bb0e977760de756971f7,65d6bfaa210973f7d2836d75,0.0544,0.0546,0,27,27,149,1,seveneight,,,,,,,,,,,,,,,,,,,,,,,,,,,,,,,,,,,,,,,,,,,,,,,,,,,,,,,,,,,,,,,,,,,,,,,,,,,,,,,,,,,,,,,,,,,,,,,,,,,,,,,,,,,,,,,,,,,,,,,,,,,,,,,,,,,,,,,,,
,,614e848825ae648282115670,2024-02-22_04h30.20.349,kallum_motion_pilot,2023.2.2,Win32,59.88023952,614e848825ae648282115670,65d6bb0e977760de756971f7,65d6bfaa210973f7d2836d75,0.0547,0.0548,0,28,28,107,1,sixeight,,,,,,,,,,,,,,,,,,,,,,,,,,,,,,,,,,,,,,,,,,,,,,,,,,,,,,,,,,,,,,,,,,,,,,,,,,,,,,,,,,,,,,,,,,,,,,,,,,,,,,,,,,,,,,,,,,,,,,,,,,,,,,,,,,,,,,,,,
,,614e848825ae648282115670,2024-02-22_04h30.20.349,kallum_motion_pilot,2023.2.2,Win32,59.88023952,614e848825ae648282115670,65d6bb0e977760de756971f7,65d6bfaa210973f7d2836d75,0.055,0.0551,0,29,29,55,1,fourthree,,,,,,,,,,,,,,,,,,,,,,,,,,,,,,,,,,,,,,,,,,,,,,,,,,,,,,,,,,,,,,,,,,,,,,,,,,,,,,,,,,,,,,,,,,,,,,,,,,,,,,,,,,,,,,,,,,,,,,,,,,,,,,,,,,,,,,,,,
,,614e848825ae648282115670,2024-02-22_04h30.20.349,kallum_motion_pilot,2023.2.2,Win32,59.88023952,614e848825ae648282115670,65d6bb0e977760de756971f7,65d6bfaa210973f7d2836d75,0.0552,0.0553,0,30,30,103,1,eightseven,,,,,,,,,,,,,,,,,,,,,,,,,,,,,,,,,,,,,,,,,,,,,,,,,,,,,,,,,,,,,,,,,,,,,,,,,,,,,,,,,,,,,,,,,,,,,,,,,,,,,,,,,,,,,,,,,,,,,,,,,,,,,,,,,,,,,,,,,
,,614e848825ae648282115670,2024-02-22_04h30.20.349,kallum_motion_pilot,2023.2.2,Win32,59.88023952,614e848825ae648282115670,65d6bb0e977760de756971f7,65d6bfaa210973f7d2836d75,0.0555,0.0556,0,31,31,28,1,threeone,,,,,,,,,,,,,,,,,,,,,,,,,,,,,,,,,,,,,,,,,,,,,,,,,,,,,,,,,,,,,,,,,,,,,,,,,,,,,,,,,,,,,,,,,,,,,,,,,,,,,,,,,,,,,,,,,,,,,,,,,,,,,,,,,,,,,,,,,
,,614e848825ae648282115670,2024-02-22_04h30.20.349,kallum_motion_pilot,2023.2.2,Win32,59.88023952,614e848825ae648282115670,65d6bb0e977760de756971f7,65d6bfaa210973f7d2836d75,0.0558,0.0558,0,32,32,51,1,twofour,,,,,,,,,,,,,,,,,,,,,,,,,,,,,,,,,,,,,,,,,,,,,,,,,,,,,,,,,,,,,,,,,,,,,,,,,,,,,,,,,,,,,,,,,,,,,,,,,,,,,,,,,,,,,,,,,,,,,,,,,,,,,,,,,,,,,,,,,
,,614e848825ae648282115670,2024-02-22_04h30.20.349,kallum_motion_pilot,2023.2.2,Win32,59.88023952,614e848825ae648282115670,65d6bb0e977760de756971f7,65d6bfaa210973f7d2836d75,0.056,0.0561,0,33,33,34,1,twoone,,,,,,,,,,,,,,,,,,,,,,,,,,,,,,,,,,,,,,,,,,,,,,,,,,,,,,,,,,,,,,,,,,,,,,,,,,,,,,,,,,,,,,,,,,,,,,,,,,,,,,,,,,,,,,,,,,,,,,,,,,,,,,,,,,,,,,,,,
,,614e848825ae648282115670,2024-02-22_04h30.20.349,kallum_motion_pilot,2023.2.2,Win32,59.88023952,614e848825ae648282115670,65d6bb0e977760de756971f7,65d6bfaa210973f7d2836d75,0.0563,0.0564,0,34,34,112,1,fivesix,,,,,,,,,,,,,,,,,,,,,,,,,,,,,,,,,,,,,,,,,,,,,,,,,,,,,,,,,,,,,,,,,,,,,,,,,,,,,,,,,,,,,,,,,,,,,,,,,,,,,,,,,,,,,,,,,,,,,,,,,,,,,,,,,,,,,,,,,
,,614e848825ae648282115670,2024-02-22_04h30.20.349,kallum_motion_pilot,2023.2.2,Win32,59.88023952,614e848825ae648282115670,65d6bb0e977760de756971f7,65d6bfaa210973f7d2836d75,0.0566,0.0567,0,35,35,105,1,fiveseven,,,,,,,,,,,,,,,,,,,,,,,,,,,,,,,,,,,,,,,,,,,,,,,,,,,,,,,,,,,,,,,,,,,,,,,,,,,,,,,,,,,,,,,,,,,,,,,,,,,,,,,,,,,,,,,,,,,,,,,,,,,,,,,,,,,,,,,,,
,,614e848825ae648282115670,2024-02-22_04h30.20.349,kallum_motion_pilot,2023.2.2,Win32,59.88023952,614e848825ae648282115670,65d6bb0e977760de756971f7,65d6bfaa210973f7d2836d75,0.0568,0.0569,0,36,36,7,1,fourthree,,,,,,,,,,,,,,,,,,,,,,,,,,,,,,,,,,,,,,,,,,,,,,,,,,,,,,,,,,,,,,,,,,,,,,,,,,,,,,,,,,,,,,,,,,,,,,,,,,,,,,,,,,,,,,,,,,,,,,,,,,,,,,,,,,,,,,,,,
,,614e848825ae648282115670,2024-02-22_04h30.20.349,kallum_motion_pilot,2023.2.2,Win32,59.88023952,614e848825ae648282115670,65d6bb0e977760de756971f7,65d6bfaa210973f7d2836d75,0.057,0.0572,0,37,37,38,1,fourtwo,,,,,,,,,,,,,,,,,,,,,,,,,,,,,,,,,,,,,,,,,,,,,,,,,,,,,,,,,,,,,,,,,,,,,,,,,,,,,,,,,,,,,,,,,,,,,,,,,,,,,,,,,,,,,,,,,,,,,,,,,,,,,,,,,,,,,,,,,
,,614e848825ae648282115670,2024-02-22_04h30.20.349,kallum_motion_pilot,2023.2.2,Win32,59.88023952,614e848825ae648282115670,65d6bb0e977760de756971f7,65d6bfaa210973f7d2836d75,0.0573,0.0574,0,38,38,4,1,threeone,,,,,,,,,,,,,,,,,,,,,,,,,,,,,,,,,,,,,,,,,,,,,,,,,,,,,,,,,,,,,,,,,,,,,,,,,,,,,,,,,,,,,,,,,,,,,,,,,,,,,,,,,,,,,,,,,,,,,,,,,,,,,,,,,,,,,,,,,
,,614e848825ae648282115670,2024-02-22_04h30.20.349,kallum_motion_pilot,2023.2.2,Win32,59.88023952,614e848825ae648282115670,65d6bb0e977760de756971f7,65d6bfaa210973f7d2836d75,0.0576,0.0577,0,39,39,154,1,sixfive,,,,,,,,,,,,,,,,,,,,,,,,,,,,,,,,,,,,,,,,,,,,,,,,,,,,,,,,,,,,,,,,,,,,,,,,,,,,,,,,,,,,,,,,,,,,,,,,,,,,,,,,,,,,,,,,,,,,,,,,,,,,,,,,,,,,,,,,,
,,614e848825ae648282115670,2024-02-22_04h30.20.349,kallum_motion_pilot,2023.2.2,Win32,59.88023952,614e848825ae648282115670,65d6bb0e977760de756971f7,65d6bfaa210973f7d2836d75,0.0579,0.058,0,40,40,134,1,eightsix,,,,,,,,,,,,,,,,,,,,,,,,,,,,,,,,,,,,,,,,,,,,,,,,,,,,,,,,,,,,,,,,,,,,,,,,,,,,,,,,,,,,,,,,,,,,,,,,,,,,,,,,,,,,,,,,,,,,,,,,,,,,,,,,,,,,,,,,,
,,614e848825ae648282115670,2024-02-22_04h30.20.349,kallum_motion_pilot,2023.2.2,Win32,59.88023952,614e848825ae648282115670,65d6bb0e977760de756971f7,65d6bfaa210973f7d2836d75,0.0582,0.0582,0,41,41,144,1,fivesix,,,,,,,,,,,,,,,,,,,,,,,,,,,,,,,,,,,,,,,,,,,,,,,,,,,,,,,,,,,,,,,,,,,,,,,,,,,,,,,,,,,,,,,,,,,,,,,,,,,,,,,,,,,,,,,,,,,,,,,,,,,,,,,,,,,,,,,,,
,,614e848825ae648282115670,2024-02-22_04h30.20.349,kallum_motion_pilot,2023.2.2,Win32,59.88023952,614e848825ae648282115670,65d6bb0e977760de756971f7,65d6bfaa210973f7d2836d75,0.0584,0.0585,0,42,42,8,1,onetwo,,,,,,,,,,,,,,,,,,,,,,,,,,,,,,,,,,,,,,,,,,,,,,,,,,,,,,,,,,,,,,,,,,,,,,,,,,,,,,,,,,,,,,,,,,,,,,,,,,,,,,,,,,,,,,,,,,,,,,,,,,,,,,,,,,,,,,,,,
,,614e848825ae648282115670,2024-02-22_04h30.20.349,kallum_motion_pilot,2023.2.2,Win32,59.88023952,614e848825ae648282115670,65d6bb0e977760de756971f7,65d6bfaa210973f7d2836d75,0.0587,0.0588,0,43,43,56,1,onetwo,,,,,,,,,,,,,,,,,,,,,,,,,,,,,,,,,,,,,,,,,,,,,,,,,,,,,,,,,,,,,,,,,,,,,,,,,,,,,,,,,,,,,,,,,,,,,,,,,,,,,,,,,,,,,,,,,,,,,,,,,,,,,,,,,,,,,,,,,
,,614e848825ae648282115670,2024-02-22_04h30.20.349,kallum_motion_pilot,2023.2.2,Win32,59.88023952,614e848825ae648282115670,65d6bb0e977760de756971f7,65d6bfaa210973f7d2836d75,0.0589,0.059,0,44,44,123,1,sixeight,,,,,,,,,,,,,,,,,,,,,,,,,,,,,,,,,,,,,,,,,,,,,,,,,,,,,,,,,,,,,,,,,,,,,,,,,,,,,,,,,,,,,,,,,,,,,,,,,,,,,,,,,,,,,,,,,,,,,,,,,,,,,,,,,,,,,,,,,
,,614e848825ae648282115670,2024-02-22_04h30.20.349,kallum_motion_pilot,2023.2.2,Win32,59.88023952,614e848825ae648282115670,65d6bb0e977760de756971f7,65d6bfaa210973f7d2836d75,0.0592,0.0594,0,45,45,64,1,onetwo,,,,,,,,,,,,,,,,,,,,,,,,,,,,,,,,,,,,,,,,,,,,,,,,,,,,,,,,,,,,,,,,,,,,,,,,,,,,,,,,,,,,,,,,,,,,,,,,,,,,,,,,,,,,,,,,,,,,,,,,,,,,,,,,,,,,,,,,,
,,614e848825ae648282115670,2024-02-22_04h30.20.349,kallum_motion_pilot,2023.2.2,Win32,59.88023952,614e848825ae648282115670,65d6bb0e977760de756971f7,65d6bfaa210973f7d2836d75,0.0595,0.0596,0,46,46,50,1,twoone,,,,,,,,,,,,,,,,,,,,,,,,,,,,,,,,,,,,,,,,,,,,,,,,,,,,,,,,,,,,,,,,,,,,,,,,,,,,,,,,,,,,,,,,,,,,,,,,,,,,,,,,,,,,,,,,,,,,,,,,,,,,,,,,,,,,,,,,,
,,614e848825ae648282115670,2024-02-22_04h30.20.349,kallum_motion_pilot,2023.2.2,Win32,59.88023952,614e848825ae648282115670,65d6bb0e977760de756971f7,65d6bfaa210973f7d2836d75,0.0598,0.0598,0,47,47,110,1,eightsix,,,,,,,,,,,,,,,,,,,,,,,,,,,,,,,,,,,,,,,,,,,,,,,,,,,,,,,,,,,,,,,,,,,,,,,,,,,,,,,,,,,,,,,,,,,,,,,,,,,,,,,,,,,,,,,,,,,,,,,,,,,,,,,,,,,,,,,,,
,,614e848825ae648282115670,2024-02-22_04h30.20.349,kallum_motion_pilot,2023.2.2,Win32,59.88023952,614e848825ae648282115670,65d6bb0e977760de756971f7,65d6bfaa210973f7d2836d75,0.06,0.0602,0,48,48,76,1,threeone,,,,,,,,,,,,,,,,,,,,,,,,,,,,,,,,,,,,,,,,,,,,,,,,,,,,,,,,,,,,,,,,,,,,,,,,,,,,,,,,,,,,,,,,,,,,,,,,,,,,,,,,,,,,,,,,,,,,,,,,,,,,,,,,,,,,,,,,,
,,614e848825ae648282115670,2024-02-22_04h30.20.349,kallum_motion_pilot,2023.2.2,Win32,59.88023952,614e848825ae648282115670,65d6bb0e977760de756971f7,65d6bfaa210973f7d2836d75,0.0604,0.0604,0,49,49,78,1,fourtwo,,,,,,,,,,,,,,,,,,,,,,,,,,,,,,,,,,,,,,,,,,,,,,,,,,,,,,,,,,,,,,,,,,,,,,,,,,,,,,,,,,,,,,,,,,,,,,,,,,,,,,,,,,,,,,,,,,,,,,,,,,,,,,,,,,,,,,,,,
,,614e848825ae648282115670,2024-02-22_04h30.20.349,kallum_motion_pilot,2023.2.2,Win32,59.88023952,614e848825ae648282115670,65d6bb0e977760de756971f7,65d6bfaa210973f7d2836d75,0.0606,0.0607,0,50,50,31,1,fourthree,,,,,,,,,,,,,,,,,,,,,,,,,,,,,,,,,,,,,,,,,,,,,,,,,,,,,,,,,,,,,,,,,,,,,,,,,,,,,,,,,,,,,,,,,,,,,,,,,,,,,,,,,,,,,,,,,,,,,,,,,,,,,,,,,,,,,,,,,
,,614e848825ae648282115670,2024-02-22_04h30.20.349,kallum_motion_pilot,2023.2.2,Win32,59.88023952,614e848825ae648282115670,65d6bb0e977760de756971f7,65d6bfaa210973f7d2836d75,0.0609,0.061,0,51,51,92,1,sevenfive,,,,,,,,,,,,,,,,,,,,,,,,,,,,,,,,,,,,,,,,,,,,,,,,,,,,,,,,,,,,,,,,,,,,,,,,,,,,,,,,,,,,,,,,,,,,,,,,,,,,,,,,,,,,,,,,,,,,,,,,,,,,,,,,,,,,,,,,,
,,614e848825ae648282115670,2024-02-22_04h30.20.349,kallum_motion_pilot,2023.2.2,Win32,59.88023952,614e848825ae648282115670,65d6bb0e977760de756971f7,65d6bfaa210973f7d2836d75,0.0612,0.0614,0,52,52,147,1,sixeight,,,,,,,,,,,,,,,,,,,,,,,,,,,,,,,,,,,,,,,,,,,,,,,,,,,,,,,,,,,,,,,,,,,,,,,,,,,,,,,,,,,,,,,,,,,,,,,,,,,,,,,,,,,,,,,,,,,,,,,,,,,,,,,,,,,,,,,,,
,,614e848825ae648282115670,2024-02-22_04h30.20.349,kallum_motion_pilot,2023.2.2,Win32,59.88023952,614e848825ae648282115670,65d6bb0e977760de756971f7,65d6bfaa210973f7d2836d75,0.0616,0.0619,0,53,53,93,1,seveneight,,,,,,,,,,,,,,,,,,,,,,,,,,,,,,,,,,,,,,,,,,,,,,,,,,,,,,,,,,,,,,,,,,,,,,,,,,,,,,,,,,,,,,,,,,,,,,,,,,,,,,,,,,,,,,,,,,,,,,,,,,,,,,,,,,,,,,,,,
,,614e848825ae648282115670,2024-02-22_04h30.20.349,kallum_motion_pilot,2023.2.2,Win32,59.88023952,614e848825ae648282115670,65d6bb0e977760de756971f7,65d6bfaa210973f7d2836d75,0.0623,0.0624,0,54,54,49,1,onethree,,,,,,,,,,,,,,,,,,,,,,,,,,,,,,,,,,,,,,,,,,,,,,,,,,,,,,,,,,,,,,,,,,,,,,,,,,,,,,,,,,,,,,,,,,,,,,,,,,,,,,,,,,,,,,,,,,,,,,,,,,,,,,,,,,,,,,,,,
,,614e848825ae648282115670,2024-02-22_04h30.20.349,kallum_motion_pilot,2023.2.2,Win32,59.88023952,614e848825ae648282115670,65d6bb0e977760de756971f7,65d6bfaa210973f7d2836d75,0.0627,0.0627,0,55,55,20,1,threeone,,,,,,,,,,,,,,,,,,,,,,,,,,,,,,,,,,,,,,,,,,,,,,,,,,,,,,,,,,,,,,,,,,,,,,,,,,,,,,,,,,,,,,,,,,,,,,,,,,,,,,,,,,,,,,,,,,,,,,,,,,,,,,,,,,,,,,,,,
,,614e848825ae648282115670,2024-02-22_04h30.20.349,kallum_motion_pilot,2023.2.2,Win32,59.88023952,614e848825ae648282115670,65d6bb0e977760de756971f7,65d6bfaa210973f7d2836d75,0.0629,0.0631,0,56,56,85,1,seveneight,,,,,,,,,,,,,,,,,,,,,,,,,,,,,,,,,,,,,,,,,,,,,,,,,,,,,,,,,,,,,,,,,,,,,,,,,,,,,,,,,,,,,,,,,,,,,,,,,,,,,,,,,,,,,,,,,,,,,,,,,,,,,,,,,,,,,,,,,
,,614e848825ae648282115670,2024-02-22_04h30.20.349,kallum_motion_pilot,2023.2.2,Win32,59.88023952,614e848825ae648282115670,65d6bb0e977760de756971f7,65d6bfaa210973f7d2836d75,0.0634,0.0635,0,57,57,52,1,threeone,,,,,,,,,,,,,,,,,,,,,,,,,,,,,,,,,,,,,,,,,,,,,,,,,,,,,,,,,,,,,,,,,,,,,,,,,,,,,,,,,,,,,,,,,,,,,,,,,,,,,,,,,,,,,,,,,,,,,,,,,,,,,,,,,,,,,,,,,
,,614e848825ae648282115670,2024-02-22_04h30.20.349,kallum_motion_pilot,2023.2.2,Win32,59.88023952,614e848825ae648282115670,65d6bb0e977760de756971f7,65d6bfaa210973f7d2836d75,0.0637,0.0638,0,58,58,138,1,sixfive,,,,,,,,,,,,,,,,,,,,,,,,,,,,,,,,,,,,,,,,,,,,,,,,,,,,,,,,,,,,,,,,,,,,,,,,,,,,,,,,,,,,,,,,,,,,,,,,,,,,,,,,,,,,,,,,,,,,,,,,,,,,,,,,,,,,,,,,,
,,614e848825ae648282115670,2024-02-22_04h30.20.349,kallum_motion_pilot,2023.2.2,Win32,59.88023952,614e848825ae648282115670,65d6bb0e977760de756971f7,65d6bfaa210973f7d2836d75,0.064,0.0641,0,59,59,54,1,fourtwo,,,,,,,,,,,,,,,,,,,,,,,,,,,,,,,,,,,,,,,,,,,,,,,,,,,,,,,,,,,,,,,,,,,,,,,,,,,,,,,,,,,,,,,,,,,,,,,,,,,,,,,,,,,,,,,,,,,,,,,,,,,,,,,,,,,,,,,,,
,,614e848825ae648282115670,2024-02-22_04h30.20.349,kallum_motion_pilot,2023.2.2,Win32,59.88023952,614e848825ae648282115670,65d6bb0e977760de756971f7,65d6bfaa210973f7d2836d75,0.0643,0.0646,0,60,60,15,1,fourthree,,,,,,,,,,,,,,,,,,,,,,,,,,,,,,,,,,,,,,,,,,,,,,,,,,,,,,,,,,,,,,,,,,,,,,,,,,,,,,,,,,,,,,,,,,,,,,,,,,,,,,,,,,,,,,,,,,,,,,,,,,,,,,,,,,,,,,,,,
,,614e848825ae648282115670,2024-02-22_04h30.20.349,kallum_motion_pilot,2023.2.2,Win32,59.88023952,614e848825ae648282115670,65d6bb0e977760de756971f7,65d6bfaa210973f7d2836d75,0.0647,0.0649,0,61,61,17,1,onethree,,,,,,,,,,,,,,,,,,,,,,,,,,,,,,,,,,,,,,,,,,,,,,,,,,,,,,,,,,,,,,,,,,,,,,,,,,,,,,,,,,,,,,,,,,,,,,,,,,,,,,,,,,,,,,,,,,,,,,,,,,,,,,,,,,,,,,,,,
,,614e848825ae648282115670,2024-02-22_04h30.20.349,kallum_motion_pilot,2023.2.2,Win32,59.88023952,614e848825ae648282115670,65d6bb0e977760de756971f7,65d6bfaa210973f7d2836d75,0.0652,0.0661,0,62,62,157,1,seveneight,,,,,,,,,,,,,,,,,,,,,,,,,,,,,,,,,,,,,,,,,,,,,,,,,,,,,,,,,,,,,,,,,,,,,,,,,,,,,,,,,,,,,,,,,,,,,,,,,,,,,,,,,,,,,,,,,,,,,,,,,,,,,,,,,,,,,,,,,
,,614e848825ae648282115670,2024-02-22_04h30.20.349,kallum_motion_pilot,2023.2.2,Win32,59.88023952,614e848825ae648282115670,65d6bb0e977760de756971f7,65d6bfaa210973f7d2836d75,0.067,0.0672,0,63,63,44,1,threeone,,,,,,,,,,,,,,,,,,,,,,,,,,,,,,,,,,,,,,,,,,,,,,,,,,,,,,,,,,,,,,,,,,,,,,,,,,,,,,,,,,,,,,,,,,,,,,,,,,,,,,,,,,,,,,,,,,,,,,,,,,,,,,,,,,,,,,,,,
,,614e848825ae648282115670,2024-02-22_04h30.20.349,kallum_motion_pilot,2023.2.2,Win32,59.88023952,614e848825ae648282115670,65d6bb0e977760de756971f7,65d6bfaa210973f7d2836d75,0.0674,0.0675,0,64,64,3,1,twofour,,,,,,,,,,,,,,,,,,,,,,,,,,,,,,,,,,,,,,,,,,,,,,,,,,,,,,,,,,,,,,,,,,,,,,,,,,,,,,,,,,,,,,,,,,,,,,,,,,,,,,,,,,,,,,,,,,,,,,,,,,,,,,,,,,,,,,,,,
,,614e848825ae648282115670,2024-02-22_04h30.20.349,kallum_motion_pilot,2023.2.2,Win32,59.88023952,614e848825ae648282115670,65d6bb0e977760de756971f7,65d6bfaa210973f7d2836d75,0.0677,0.0679,0,65,65,116,1,sevenfive,,,,,,,,,,,,,,,,,,,,,,,,,,,,,,,,,,,,,,,,,,,,,,,,,,,,,,,,,,,,,,,,,,,,,,,,,,,,,,,,,,,,,,,,,,,,,,,,,,,,,,,,,,,,,,,,,,,,,,,,,,,,,,,,,,,,,,,,,
,,614e848825ae648282115670,2024-02-22_04h30.20.349,kallum_motion_pilot,2023.2.2,Win32,59.88023952,614e848825ae648282115670,65d6bb0e977760de756971f7,65d6bfaa210973f7d2836d75,0.0681,0.0683,0,66,66,19,1,twofour,,,,,,,,,,,,,,,,,,,,,,,,,,,,,,,,,,,,,,,,,,,,,,,,,,,,,,,,,,,,,,,,,,,,,,,,,,,,,,,,,,,,,,,,,,,,,,,,,,,,,,,,,,,,,,,,,,,,,,,,,,,,,,,,,,,,,,,,,
,,614e848825ae648282115670,2024-02-22_04h30.20.349,kallum_motion_pilot,2023.2.2,Win32,59.88023952,614e848825ae648282115670,65d6bb0e977760de756971f7,65d6bfaa210973f7d2836d75,0.0685,0.0688,0,67,67,90,1,sixfive,,,,,,,,,,,,,,,,,,,,,,,,,,,,,,,,,,,,,,,,,,,,,,,,,,,,,,,,,,,,,,,,,,,,,,,,,,,,,,,,,,,,,,,,,,,,,,,,,,,,,,,,,,,,,,,,,,,,,,,,,,,,,,,,,,,,,,,,,
,,614e848825ae648282115670,2024-02-22_04h30.20.349,kallum_motion_pilot,2023.2.2,Win32,59.88023952,614e848825ae648282115670,65d6bb0e977760de756971f7,65d6bfaa210973f7d2836d75,0.0693,0.0698,0,68,68,39,1,fourthree,,,,,,,,,,,,,,,,,,,,,,,,,,,,,,,,,,,,,,,,,,,,,,,,,,,,,,,,,,,,,,,,,,,,,,,,,,,,,,,,,,,,,,,,,,,,,,,,,,,,,,,,,,,,,,,,,,,,,,,,,,,,,,,,,,,,,,,,,
,,614e848825ae648282115670,2024-02-22_04h30.20.349,kallum_motion_pilot,2023.2.2,Win32,59.88023952,614e848825ae648282115670,65d6bb0e977760de756971f7,65d6bfaa210973f7d2836d75,0.0705,0.0707,0,69,69,14,1,fourtwo,,,,,,,,,,,,,,,,,,,,,,,,,,,,,,,,,,,,,,,,,,,,,,,,,,,,,,,,,,,,,,,,,,,,,,,,,,,,,,,,,,,,,,,,,,,,,,,,,,,,,,,,,,,,,,,,,,,,,,,,,,,,,,,,,,,,,,,,,
,,614e848825ae648282115670,2024-02-22_04h30.20.349,kallum_motion_pilot,2023.2.2,Win32,59.88023952,614e848825ae648282115670,65d6bb0e977760de756971f7,65d6bfaa210973f7d2836d75,0.0709,0.0711,0,70,70,6,1,fourtwo,,,,,,,,,,,,,,,,,,,,,,,,,,,,,,,,,,,,,,,,,,,,,,,,,,,,,,,,,,,,,,,,,,,,,,,,,,,,,,,,,,,,,,,,,,,,,,,,,,,,,,,,,,,,,,,,,,,,,,,,,,,,,,,,,,,,,,,,,
,,614e848825ae648282115670,2024-02-22_04h30.20.349,kallum_motion_pilot,2023.2.2,Win32,59.88023952,614e848825ae648282115670,65d6bb0e977760de756971f7,65d6bfaa210973f7d2836d75,0.0713,0.0714,0,71,71,118,1,eightsix,,,,,,,,,,,,,,,,,,,,,,,,,,,,,,,,,,,,,,,,,,,,,,,,,,,,,,,,,,,,,,,,,,,,,,,,,,,,,,,,,,,,,,,,,,,,,,,,,,,,,,,,,,,,,,,,,,,,,,,,,,,,,,,,,,,,,,,,,
,,614e848825ae648282115670,2024-02-22_04h30.20.349,kallum_motion_pilot,2023.2.2,Win32,59.88023952,614e848825ae648282115670,65d6bb0e977760de756971f7,65d6bfaa210973f7d2836d75,0.0716,0.0718,0,72,72,109,1,seveneight,,,,,,,,,,,,,,,,,,,,,,,,,,,,,,,,,,,,,,,,,,,,,,,,,,,,,,,,,,,,,,,,,,,,,,,,,,,,,,,,,,,,,,,,,,,,,,,,,,,,,,,,,,,,,,,,,,,,,,,,,,,,,,,,,,,,,,,,,
,,614e848825ae648282115670,2024-02-22_04h30.20.349,kallum_motion_pilot,2023.2.2,Win32,59.88023952,614e848825ae648282115670,65d6bb0e977760de756971f7,65d6bfaa210973f7d2836d75,0.072,0.0722,0,73,73,48,1,onetwo,,,,,,,,,,,,,,,,,,,,,,,,,,,,,,,,,,,,,,,,,,,,,,,,,,,,,,,,,,,,,,,,,,,,,,,,,,,,,,,,,,,,,,,,,,,,,,,,,,,,,,,,,,,,,,,,,,,,,,,,,,,,,,,,,,,,,,,,,
,,614e848825ae648282115670,2024-02-22_04h30.20.349,kallum_motion_pilot,2023.2.2,Win32,59.88023952,614e848825ae648282115670,65d6bb0e977760de756971f7,65d6bfaa210973f7d2836d75,0.0723,0.0725,0,74,74,73,1,onethree,,,,,,,,,,,,,,,,,,,,,,,,,,,,,,,,,,,,,,,,,,,,,,,,,,,,,,,,,,,,,,,,,,,,,,,,,,,,,,,,,,,,,,,,,,,,,,,,,,,,,,,,,,,,,,,,,,,,,,,,,,,,,,,,,,,,,,,,,
,,614e848825ae648282115670,2024-02-22_04h30.20.349,kallum_motion_pilot,2023.2.2,Win32,59.88023952,614e848825ae648282115670,65d6bb0e977760de756971f7,65d6bfaa210973f7d2836d75,0.0727,0.0729,0,75,75,33,1,onethree,,,,,,,,,,,,,,,,,,,,,,,,,,,,,,,,,,,,,,,,,,,,,,,,,,,,,,,,,,,,,,,,,,,,,,,,,,,,,,,,,,,,,,,,,,,,,,,,,,,,,,,,,,,,,,,,,,,,,,,,,,,,,,,,,,,,,,,,,
,,614e848825ae648282115670,2024-02-22_04h30.20.349,kallum_motion_pilot,2023.2.2,Win32,59.88023952,614e848825ae648282115670,65d6bb0e977760de756971f7,65d6bfaa210973f7d2836d75,0.0731,0.0731,0,76,76,139,1,sixeight,,,,,,,,,,,,,,,,,,,,,,,,,,,,,,,,,,,,,,,,,,,,,,,,,,,,,,,,,,,,,,,,,,,,,,,,,,,,,,,,,,,,,,,,,,,,,,,,,,,,,,,,,,,,,,,,,,,,,,,,,,,,,,,,,,,,,,,,,
,,614e848825ae648282115670,2024-02-22_04h30.20.349,kallum_motion_pilot,2023.2.2,Win32,59.88023952,614e848825ae648282115670,65d6bb0e977760de756971f7,65d6bfaa210973f7d2836d75,0.0734,0.0735,0,77,77,108,1,sevenfive,,,,,,,,,,,,,,,,,,,,,,,,,,,,,,,,,,,,,,,,,,,,,,,,,,,,,,,,,,,,,,,,,,,,,,,,,,,,,,,,,,,,,,,,,,,,,,,,,,,,,,,,,,,,,,,,,,,,,,,,,,,,,,,,,,,,,,,,,
,,614e848825ae648282115670,2024-02-22_04h30.20.349,kallum_motion_pilot,2023.2.2,Win32,59.88023952,614e848825ae648282115670,65d6bb0e977760de756971f7,65d6bfaa210973f7d2836d75,0.0737,0.0738,0,78,78,43,1,twofour,,,,,,,,,,,,,,,,,,,,,,,,,,,,,,,,,,,,,,,,,,,,,,,,,,,,,,,,,,,,,,,,,,,,,,,,,,,,,,,,,,,,,,,,,,,,,,,,,,,,,,,,,,,,,,,,,,,,,,,,,,,,,,,,,,,,,,,,,
,,614e848825ae648282115670,2024-02-22_04h30.20.349,kallum_motion_pilot,2023.2.2,Win32,59.88023952,614e848825ae648282115670,65d6bb0e977760de756971f7,65d6bfaa210973f7d2836d75,0.074,0.0742,0,79,79,22,1,fourtwo,,,,,,,,,,,,,,,,,,,,,,,,,,,,,,,,,,,,,,,,,,,,,,,,,,,,,,,,,,,,,,,,,,,,,,,,,,,,,,,,,,,,,,,,,,,,,,,,,,,,,,,,,,,,,,,,,,,,,,,,,,,,,,,,,,,,,,,,,
,,614e848825ae648282115670,2024-02-22_04h30.20.349,kallum_motion_pilot,2023.2.2,Win32,59.88023952,614e848825ae648282115670,65d6bb0e977760de756971f7,65d6bfaa210973f7d2836d75,0.0743,0.0745,0,80,80,13,1,threefour,,,,,,,,,,,,,,,,,,,,,,,,,,,,,,,,,,,,,,,,,,,,,,,,,,,,,,,,,,,,,,,,,,,,,,,,,,,,,,,,,,,,,,,,,,,,,,,,,,,,,,,,,,,,,,,,,,,,,,,,,,,,,,,,,,,,,,,,,
,,614e848825ae648282115670,2024-02-22_04h30.20.349,kallum_motion_pilot,2023.2.2,Win32,59.88023952,614e848825ae648282115670,65d6bb0e977760de756971f7,65d6bfaa210973f7d2836d75,0.0748,0.0749,0,81,81,62,1,fourtwo,,,,,,,,,,,,,,,,,,,,,,,,,,,,,,,,,,,,,,,,,,,,,,,,,,,,,,,,,,,,,,,,,,,,,,,,,,,,,,,,,,,,,,,,,,,,,,,,,,,,,,,,,,,,,,,,,,,,,,,,,,,,,,,,,,,,,,,,,
,,614e848825ae648282115670,2024-02-22_04h30.20.349,kallum_motion_pilot,2023.2.2,Win32,59.88023952,614e848825ae648282115670,65d6bb0e977760de756971f7,65d6bfaa210973f7d2836d75,0.0751,0.0752,0,82,82,79,1,eightseven,,,,,,,,,,,,,,,,,,,,,,,,,,,,,,,,,,,,,,,,,,,,,,,,,,,,,,,,,,,,,,,,,,,,,,,,,,,,,,,,,,,,,,,,,,,,,,,,,,,,,,,,,,,,,,,,,,,,,,,,,,,,,,,,,,,,,,,,,
,,614e848825ae648282115670,2024-02-22_04h30.20.349,kallum_motion_pilot,2023.2.2,Win32,59.88023952,614e848825ae648282115670,65d6bb0e977760de756971f7,65d6bfaa210973f7d2836d75,0.0755,0.0755,0,83,83,131,1,sixeight,,,,,,,,,,,,,,,,,,,,,,,,,,,,,,,,,,,,,,,,,,,,,,,,,,,,,,,,,,,,,,,,,,,,,,,,,,,,,,,,,,,,,,,,,,,,,,,,,,,,,,,,,,,,,,,,,,,,,,,,,,,,,,,,,,,,,,,,,
,,614e848825ae648282115670,2024-02-22_04h30.20.349,kallum_motion_pilot,2023.2.2,Win32,59.88023952,614e848825ae648282115670,65d6bb0e977760de756971f7,65d6bfaa210973f7d2836d75,0.0758,0.0759,0,84,84,127,1,eightseven,,,,,,,,,,,,,,,,,,,,,,,,,,,,,,,,,,,,,,,,,,,,,,,,,,,,,,,,,,,,,,,,,,,,,,,,,,,,,,,,,,,,,,,,,,,,,,,,,,,,,,,,,,,,,,,,,,,,,,,,,,,,,,,,,,,,,,,,,
,,614e848825ae648282115670,2024-02-22_04h30.20.349,kallum_motion_pilot,2023.2.2,Win32,59.88023952,614e848825ae648282115670,65d6bb0e977760de756971f7,65d6bfaa210973f7d2836d75,0.0761,0.0762,0,85,85,124,1,sevenfive,,,,,,,,,,,,,,,,,,,,,,,,,,,,,,,,,,,,,,,,,,,,,,,,,,,,,,,,,,,,,,,,,,,,,,,,,,,,,,,,,,,,,,,,,,,,,,,,,,,,,,,,,,,,,,,,,,,,,,,,,,,,,,,,,,,,,,,,,
,,614e848825ae648282115670,2024-02-22_04h30.20.349,kallum_motion_pilot,2023.2.2,Win32,59.88023952,614e848825ae648282115670,65d6bb0e977760de756971f7,65d6bfaa210973f7d2836d75,0.0765,0.0767,0,86,86,71,1,fourthree,,,,,,,,,,,,,,,,,,,,,,,,,,,,,,,,,,,,,,,,,,,,,,,,,,,,,,,,,,,,,,,,,,,,,,,,,,,,,,,,,,,,,,,,,,,,,,,,,,,,,,,,,,,,,,,,,,,,,,,,,,,,,,,,,,,,,,,,,
,,614e848825ae648282115670,2024-02-22_04h30.20.349,kallum_motion_pilot,2023.2.2,Win32,59.88023952,614e848825ae648282115670,65d6bb0e977760de756971f7,65d6bfaa210973f7d2836d75,0.0768,0.0769,0,87,87,81,1,fiveseven,,,,,,,,,,,,,,,,,,,,,,,,,,,,,,,,,,,,,,,,,,,,,,,,,,,,,,,,,,,,,,,,,,,,,,,,,,,,,,,,,,,,,,,,,,,,,,,,,,,,,,,,,,,,,,,,,,,,,,,,,,,,,,,,,,,,,,,,,
,,614e848825ae648282115670,2024-02-22_04h30.20.349,kallum_motion_pilot,2023.2.2,Win32,59.88023952,614e848825ae648282115670,65d6bb0e977760de756971f7,65d6bfaa210973f7d2836d75,0.0771,0.0773,0,88,88,98,1,sixfive,,,,,,,,,,,,,,,,,,,,,,,,,,,,,,,,,,,,,,,,,,,,,,,,,,,,,,,,,,,,,,,,,,,,,,,,,,,,,,,,,,,,,,,,,,,,,,,,,,,,,,,,,,,,,,,,,,,,,,,,,,,,,,,,,,,,,,,,,
,,614e848825ae648282115670,2024-02-22_04h30.20.349,kallum_motion_pilot,2023.2.2,Win32,59.88023952,614e848825ae648282115670,65d6bb0e977760de756971f7,65d6bfaa210973f7d2836d75,0.0788,0.079,0,89,89,30,1,fourtwo,,,,,,,,,,,,,,,,,,,,,,,,,,,,,,,,,,,,,,,,,,,,,,,,,,,,,,,,,,,,,,,,,,,,,,,,,,,,,,,,,,,,,,,,,,,,,,,,,,,,,,,,,,,,,,,,,,,,,,,,,,,,,,,,,,,,,,,,,
,,614e848825ae648282115670,2024-02-22_04h30.20.349,kallum_motion_pilot,2023.2.2,Win32,59.88023952,614e848825ae648282115670,65d6bb0e977760de756971f7,65d6bfaa210973f7d2836d75,0.0792,0.0794,0,90,90,68,1,threeone,,,,,,,,,,,,,,,,,,,,,,,,,,,,,,,,,,,,,,,,,,,,,,,,,,,,,,,,,,,,,,,,,,,,,,,,,,,,,,,,,,,,,,,,,,,,,,,,,,,,,,,,,,,,,,,,,,,,,,,,,,,,,,,,,,,,,,,,,
,,614e848825ae648282115670,2024-02-22_04h30.20.349,kallum_motion_pilot,2023.2.2,Win32,59.88023952,614e848825ae648282115670,65d6bb0e977760de756971f7,65d6bfaa210973f7d2836d75,0.0796,0.0797,0,91,91,101,1,seveneight,,,,,,,,,,,,,,,,,,,,,,,,,,,,,,,,,,,,,,,,,,,,,,,,,,,,,,,,,,,,,,,,,,,,,,,,,,,,,,,,,,,,,,,,,,,,,,,,,,,,,,,,,,,,,,,,,,,,,,,,,,,,,,,,,,,,,,,,,
,,614e848825ae648282115670,2024-02-22_04h30.20.349,kallum_motion_pilot,2023.2.2,Win32,59.88023952,614e848825ae648282115670,65d6bb0e977760de756971f7,65d6bfaa210973f7d2836d75,0.0799,0.08,0,92,92,21,1,threefour,,,,,,,,,,,,,,,,,,,,,,,,,,,,,,,,,,,,,,,,,,,,,,,,,,,,,,,,,,,,,,,,,,,,,,,,,,,,,,,,,,,,,,,,,,,,,,,,,,,,,,,,,,,,,,,,,,,,,,,,,,,,,,,,,,,,,,,,,
,,614e848825ae648282115670,2024-02-22_04h30.20.349,kallum_motion_pilot,2023.2.2,Win32,59.88023952,614e848825ae648282115670,65d6bb0e977760de756971f7,65d6bfaa210973f7d2836d75,0.0802,0.0803,0,93,93,83,1,sixeight,,,,,,,,,,,,,,,,,,,,,,,,,,,,,,,,,,,,,,,,,,,,,,,,,,,,,,,,,,,,,,,,,,,,,,,,,,,,,,,,,,,,,,,,,,,,,,,,,,,,,,,,,,,,,,,,,,,,,,,,,,,,,,,,,,,,,,,,,
,,614e848825ae648282115670,2024-02-22_04h30.20.349,kallum_motion_pilot,2023.2.2,Win32,59.88023952,614e848825ae648282115670,65d6bb0e977760de756971f7,65d6bfaa210973f7d2836d75,0.0805,0.0807,0,94,94,161,1,fiveseven,,,,,,,,,,,,,,,,,,,,,,,,,,,,,,,,,,,,,,,,,,,,,,,,,,,,,,,,,,,,,,,,,,,,,,,,,,,,,,,,,,,,,,,,,,,,,,,,,,,,,,,,,,,,,,,,,,,,,,,,,,,,,,,,,,,,,,,,,
,,614e848825ae648282115670,2024-02-22_04h30.20.349,kallum_motion_pilot,2023.2.2,Win32,59.88023952,614e848825ae648282115670,65d6bb0e977760de756971f7,65d6bfaa210973f7d2836d75,0.0808,0.081,0,95,95,82,1,sixfive,,,,,,,,,,,,,,,,,,,,,,,,,,,,,,,,,,,,,,,,,,,,,,,,,,,,,,,,,,,,,,,,,,,,,,,,,,,,,,,,,,,,,,,,,,,,,,,,,,,,,,,,,,,,,,,,,,,,,,,,,,,,,,,,,,,,,,,,,
,,614e848825ae648282115670,2024-02-22_04h30.20.349,kallum_motion_pilot,2023.2.2,Win32,59.88023952,614e848825ae648282115670,65d6bb0e977760de756971f7,65d6bfaa210973f7d2836d75,0.0812,0.0813,0,96,96,58,1,twoone,,,,,,,,,,,,,,,,,,,,,,,,,,,,,,,,,,,,,,,,,,,,,,,,,,,,,,,,,,,,,,,,,,,,,,,,,,,,,,,,,,,,,,,,,,,,,,,,,,,,,,,,,,,,,,,,,,,,,,,,,,,,,,,,,,,,,,,,,
,,614e848825ae648282115670,2024-02-22_04h30.20.349,kallum_motion_pilot,2023.2.2,Win32,59.88023952,614e848825ae648282115670,65d6bb0e977760de756971f7,65d6bfaa210973f7d2836d75,0.0815,0.0816,0,97,97,91,1,sixeight,,,,,,,,,,,,,,,,,,,,,,,,,,,,,,,,,,,,,,,,,,,,,,,,,,,,,,,,,,,,,,,,,,,,,,,,,,,,,,,,,,,,,,,,,,,,,,,,,,,,,,,,,,,,,,,,,,,,,,,,,,,,,,,,,,,,,,,,,
,,614e848825ae648282115670,2024-02-22_04h30.20.349,kallum_motion_pilot,2023.2.2,Win32,59.88023952,614e848825ae648282115670,65d6bb0e977760de756971f7,65d6bfaa210973f7d2836d75,0.0819,0.082,0,98,98,60,1,threeone,,,,,,,,,,,,,,,,,,,,,,,,,,,,,,,,,,,,,,,,,,,,,,,,,,,,,,,,,,,,,,,,,,,,,,,,,,,,,,,,,,,,,,,,,,,,,,,,,,,,,,,,,,,,,,,,,,,,,,,,,,,,,,,,,,,,,,,,,
,,614e848825ae648282115670,2024-02-22_04h30.20.349,kallum_motion_pilot,2023.2.2,Win32,59.88023952,614e848825ae648282115670,65d6bb0e977760de756971f7,65d6bfaa210973f7d2836d75,0.0828,0.083,0,99,99,126,1,eightsix,,,,,,,,,,,,,,,,,,,,,,,,,,,,,,,,,,,,,,,,,,,,,,,,,,,,,,,,,,,,,,,,,,,,,,,,,,,,,,,,,,,,,,,,,,,,,,,,,,,,,,,,,,,,,,,,,,,,,,,,,,,,,,,,,,,,,,,,,
,,614e848825ae648282115670,2024-02-22_04h30.20.349,kallum_motion_pilot,2023.2.2,Win32,59.88023952,614e848825ae648282115670,65d6bb0e977760de756971f7,65d6bfaa210973f7d2836d75,0.0834,0.0838,0,100,100,53,1,threefour,,,,,,,,,,,,,,,,,,,,,,,,,,,,,,,,,,,,,,,,,,,,,,,,,,,,,,,,,,,,,,,,,,,,,,,,,,,,,,,,,,,,,,,,,,,,,,,,,,,,,,,,,,,,,,,,,,,,,,,,,,,,,,,,,,,,,,,,,
,,614e848825ae648282115670,2024-02-22_04h30.20.349,kallum_motion_pilot,2023.2.2,Win32,59.88023952,614e848825ae648282115670,65d6bb0e977760de756971f7,65d6bfaa210973f7d2836d75,0.0842,0.0844,0,101,101,61,1,threefour,,,,,,,,,,,,,,,,,,,,,,,,,,,,,,,,,,,,,,,,,,,,,,,,,,,,,,,,,,,,,,,,,,,,,,,,,,,,,,,,,,,,,,,,,,,,,,,,,,,,,,,,,,,,,,,,,,,,,,,,,,,,,,,,,,,,,,,,,
,,614e848825ae648282115670,2024-02-22_04h30.20.349,kallum_motion_pilot,2023.2.2,Win32,59.88023952,614e848825ae648282115670,65d6bb0e977760de756971f7,65d6bfaa210973f7d2836d75,0.0847,0.085,0,102,102,150,1,eightsix,,,,,,,,,,,,,,,,,,,,,,,,,,,,,,,,,,,,,,,,,,,,,,,,,,,,,,,,,,,,,,,,,,,,,,,,,,,,,,,,,,,,,,,,,,,,,,,,,,,,,,,,,,,,,,,,,,,,,,,,,,,,,,,,,,,,,,,,,
,,614e848825ae648282115670,2024-02-22_04h30.20.349,kallum_motion_pilot,2023.2.2,Win32,59.88023952,614e848825ae648282115670,65d6bb0e977760de756971f7,65d6bfaa210973f7d2836d75,0.0854,0.0856,0,103,103,24,1,onetwo,,,,,,,,,,,,,,,,,,,,,,,,,,,,,,,,,,,,,,,,,,,,,,,,,,,,,,,,,,,,,,,,,,,,,,,,,,,,,,,,,,,,,,,,,,,,,,,,,,,,,,,,,,,,,,,,,,,,,,,,,,,,,,,,,,,,,,,,,
,,614e848825ae648282115670,2024-02-22_04h30.20.349,kallum_motion_pilot,2023.2.2,Win32,59.88023952,614e848825ae648282115670,65d6bb0e977760de756971f7,65d6bfaa210973f7d2836d75,0.0861,0.0861,0,104,104,23,1,fourthree,,,,,,,,,,,,,,,,,,,,,,,,,,,,,,,,,,,,,,,,,,,,,,,,,,,,,,,,,,,,,,,,,,,,,,,,,,,,,,,,,,,,,,,,,,,,,,,,,,,,,,,,,,,,,,,,,,,,,,,,,,,,,,,,,,,,,,,,,
,,614e848825ae648282115670,2024-02-22_04h30.20.349,kallum_motion_pilot,2023.2.2,Win32,59.88023952,614e848825ae648282115670,65d6bb0e977760de756971f7,65d6bfaa210973f7d2836d75,0.0864,0.0865,0,105,105,142,1,eightsix,,,,,,,,,,,,,,,,,,,,,,,,,,,,,,,,,,,,,,,,,,,,,,,,,,,,,,,,,,,,,,,,,,,,,,,,,,,,,,,,,,,,,,,,,,,,,,,,,,,,,,,,,,,,,,,,,,,,,,,,,,,,,,,,,,,,,,,,,
,,614e848825ae648282115670,2024-02-22_04h30.20.349,kallum_motion_pilot,2023.2.2,Win32,59.88023952,614e848825ae648282115670,65d6bb0e977760de756971f7,65d6bfaa210973f7d2836d75,0.0868,0.0868,0,106,106,95,1,eightseven,,,,,,,,,,,,,,,,,,,,,,,,,,,,,,,,,,,,,,,,,,,,,,,,,,,,,,,,,,,,,,,,,,,,,,,,,,,,,,,,,,,,,,,,,,,,,,,,,,,,,,,,,,,,,,,,,,,,,,,,,,,,,,,,,,,,,,,,,
,,614e848825ae648282115670,2024-02-22_04h30.20.349,kallum_motion_pilot,2023.2.2,Win32,59.88023952,614e848825ae648282115670,65d6bb0e977760de756971f7,65d6bfaa210973f7d2836d75,0.0871,0.0872,0,107,107,113,1,fiveseven,,,,,,,,,,,,,,,,,,,,,,,,,,,,,,,,,,,,,,,,,,,,,,,,,,,,,,,,,,,,,,,,,,,,,,,,,,,,,,,,,,,,,,,,,,,,,,,,,,,,,,,,,,,,,,,,,,,,,,,,,,,,,,,,,,,,,,,,,
,,614e848825ae648282115670,2024-02-22_04h30.20.349,kallum_motion_pilot,2023.2.2,Win32,59.88023952,614e848825ae648282115670,65d6bb0e977760de756971f7,65d6bfaa210973f7d2836d75,0.0874,0.0875,0,108,108,148,1,sevenfive,,,,,,,,,,,,,,,,,,,,,,,,,,,,,,,,,,,,,,,,,,,,,,,,,,,,,,,,,,,,,,,,,,,,,,,,,,,,,,,,,,,,,,,,,,,,,,,,,,,,,,,,,,,,,,,,,,,,,,,,,,,,,,,,,,,,,,,,,
,,614e848825ae648282115670,2024-02-22_04h30.20.349,kallum_motion_pilot,2023.2.2,Win32,59.88023952,614e848825ae648282115670,65d6bb0e977760de756971f7,65d6bfaa210973f7d2836d75,0.0877,0.0879,0,109,109,87,1,eightseven,,,,,,,,,,,,,,,,,,,,,,,,,,,,,,,,,,,,,,,,,,,,,,,,,,,,,,,,,,,,,,,,,,,,,,,,,,,,,,,,,,,,,,,,,,,,,,,,,,,,,,,,,,,,,,,,,,,,,,,,,,,,,,,,,,,,,,,,,
,,614e848825ae648282115670,2024-02-22_04h30.20.349,kallum_motion_pilot,2023.2.2,Win32,59.88023952,614e848825ae648282115670,65d6bb0e977760de756971f7,65d6bfaa210973f7d2836d75,0.0881,0.0882,0,110,110,136,1,fivesix,,,,,,,,,,,,,,,,,,,,,,,,,,,,,,,,,,,,,,,,,,,,,,,,,,,,,,,,,,,,,,,,,,,,,,,,,,,,,,,,,,,,,,,,,,,,,,,,,,,,,,,,,,,,,,,,,,,,,,,,,,,,,,,,,,,,,,,,,
,,614e848825ae648282115670,2024-02-22_04h30.20.349,kallum_motion_pilot,2023.2.2,Win32,59.88023952,614e848825ae648282115670,65d6bb0e977760de756971f7,65d6bfaa210973f7d2836d75,0.0884,0.0886,0,111,111,117,1,seveneight,,,,,,,,,,,,,,,,,,,,,,,,,,,,,,,,,,,,,,,,,,,,,,,,,,,,,,,,,,,,,,,,,,,,,,,,,,,,,,,,,,,,,,,,,,,,,,,,,,,,,,,,,,,,,,,,,,,,,,,,,,,,,,,,,,,,,,,,,
,,614e848825ae648282115670,2024-02-22_04h30.20.349,kallum_motion_pilot,2023.2.2,Win32,59.88023952,614e848825ae648282115670,65d6bb0e977760de756971f7,65d6bfaa210973f7d2836d75,0.0887,0.0889,0,112,112,135,1,eightseven,,,,,,,,,,,,,,,,,,,,,,,,,,,,,,,,,,,,,,,,,,,,,,,,,,,,,,,,,,,,,,,,,,,,,,,,,,,,,,,,,,,,,,,,,,,,,,,,,,,,,,,,,,,,,,,,,,,,,,,,,,,,,,,,,,,,,,,,,
,,614e848825ae648282115670,2024-02-22_04h30.20.349,kallum_motion_pilot,2023.2.2,Win32,59.88023952,614e848825ae648282115670,65d6bb0e977760de756971f7,65d6bfaa210973f7d2836d75,0.0891,0.0893,0,113,113,63,1,fourthree,,,,,,,,,,,,,,,,,,,,,,,,,,,,,,,,,,,,,,,,,,,,,,,,,,,,,,,,,,,,,,,,,,,,,,,,,,,,,,,,,,,,,,,,,,,,,,,,,,,,,,,,,,,,,,,,,,,,,,,,,,,,,,,,,,,,,,,,,
,,614e848825ae648282115670,2024-02-22_04h30.20.349,kallum_motion_pilot,2023.2.2,Win32,59.88023952,614e848825ae648282115670,65d6bb0e977760de756971f7,65d6bfaa210973f7d2836d75,0.0894,0.0896,0,114,114,27,1,twofour,,,,,,,,,,,,,,,,,,,,,,,,,,,,,,,,,,,,,,,,,,,,,,,,,,,,,,,,,,,,,,,,,,,,,,,,,,,,,,,,,,,,,,,,,,,,,,,,,,,,,,,,,,,,,,,,,,,,,,,,,,,,,,,,,,,,,,,,,
,,614e848825ae648282115670,2024-02-22_04h30.20.349,kallum_motion_pilot,2023.2.2,Win32,59.88023952,614e848825ae648282115670,65d6bb0e977760de756971f7,65d6bfaa210973f7d2836d75,0.0898,0.0899,0,115,115,156,1,sevenfive,,,,,,,,,,,,,,,,,,,,,,,,,,,,,,,,,,,,,,,,,,,,,,,,,,,,,,,,,,,,,,,,,,,,,,,,,,,,,,,,,,,,,,,,,,,,,,,,,,,,,,,,,,,,,,,,,,,,,,,,,,,,,,,,,,,,,,,,,
,,614e848825ae648282115670,2024-02-22_04h30.20.349,kallum_motion_pilot,2023.2.2,Win32,59.88023952,614e848825ae648282115670,65d6bb0e977760de756971f7,65d6bfaa210973f7d2836d75,0.09,0.0902,0,116,116,106,1,sixfive,,,,,,,,,,,,,,,,,,,,,,,,,,,,,,,,,,,,,,,,,,,,,,,,,,,,,,,,,,,,,,,,,,,,,,,,,,,,,,,,,,,,,,,,,,,,,,,,,,,,,,,,,,,,,,,,,,,,,,,,,,,,,,,,,,,,,,,,,
,,614e848825ae648282115670,2024-02-22_04h30.20.349,kallum_motion_pilot,2023.2.2,Win32,59.88023952,614e848825ae648282115670,65d6bb0e977760de756971f7,65d6bfaa210973f7d2836d75,0.0904,0.0906,0,117,117,59,1,twofour,,,,,,,,,,,,,,,,,,,,,,,,,,,,,,,,,,,,,,,,,,,,,,,,,,,,,,,,,,,,,,,,,,,,,,,,,,,,,,,,,,,,,,,,,,,,,,,,,,,,,,,,,,,,,,,,,,,,,,,,,,,,,,,,,,,,,,,,,
,,614e848825ae648282115670,2024-02-22_04h30.20.349,kallum_motion_pilot,2023.2.2,Win32,59.88023952,614e848825ae648282115670,65d6bb0e977760de756971f7,65d6bfaa210973f7d2836d75,0.0908,0.0909,0,118,118,137,1,fiveseven,,,,,,,,,,,,,,,,,,,,,,,,,,,,,,,,,,,,,,,,,,,,,,,,,,,,,,,,,,,,,,,,,,,,,,,,,,,,,,,,,,,,,,,,,,,,,,,,,,,,,,,,,,,,,,,,,,,,,,,,,,,,,,,,,,,,,,,,,
,,614e848825ae648282115670,2024-02-22_04h30.20.349,kallum_motion_pilot,2023.2.2,Win32,59.88023952,614e848825ae648282115670,65d6bb0e977760de756971f7,65d6bfaa210973f7d2836d75,0.0911,0.0913,0,119,119,57,1,onethree,,,,,,,,,,,,,,,,,,,,,,,,,,,,,,,,,,,,,,,,,,,,,,,,,,,,,,,,,,,,,,,,,,,,,,,,,,,,,,,,,,,,,,,,,,,,,,,,,,,,,,,,,,,,,,,,,,,,,,,,,,,,,,,,,,,,,,,,,
,,614e848825ae648282115670,2024-02-22_04h30.20.349,kallum_motion_pilot,2023.2.2,Win32,59.88023952,614e848825ae648282115670,65d6bb0e977760de756971f7,65d6bfaa210973f7d2836d75,0.0915,0.0916,0,120,120,125,1,seveneight,,,,,,,,,,,,,,,,,,,,,,,,,,,,,,,,,,,,,,,,,,,,,,,,,,,,,,,,,,,,,,,,,,,,,,,,,,,,,,,,,,,,,,,,,,,,,,,,,,,,,,,,,,,,,,,,,,,,,,,,,,,,,,,,,,,,,,,,,
,,614e848825ae648282115670,2024-02-22_04h30.20.349,kallum_motion_pilot,2023.2.2,Win32,59.88023952,614e848825ae648282115670,65d6bb0e977760de756971f7,65d6bfaa210973f7d2836d75,0.0919,0.092,0,121,121,5,1,threefour,,,,,,,,,,,,,,,,,,,,,,,,,,,,,,,,,,,,,,,,,,,,,,,,,,,,,,,,,,,,,,,,,,,,,,,,,,,,,,,,,,,,,,,,,,,,,,,,,,,,,,,,,,,,,,,,,,,,,,,,,,,,,,,,,,,,,,,,,
,,614e848825ae648282115670,2024-02-22_04h30.20.349,kallum_motion_pilot,2023.2.2,Win32,59.88023952,614e848825ae648282115670,65d6bb0e977760de756971f7,65d6bfaa210973f7d2836d75,0.0921,0.0923,0,122,122,99,1,sixeight,,,,,,,,,,,,,,,,,,,,,,,,,,,,,,,,,,,,,,,,,,,,,,,,,,,,,,,,,,,,,,,,,,,,,,,,,,,,,,,,,,,,,,,,,,,,,,,,,,,,,,,,,,,,,,,,,,,,,,,,,,,,,,,,,,,,,,,,,
,,614e848825ae648282115670,2024-02-22_04h30.20.349,kallum_motion_pilot,2023.2.2,Win32,59.88023952,614e848825ae648282115670,65d6bb0e977760de756971f7,65d6bfaa210973f7d2836d75,0.0925,0.0927,0,123,123,88,1,fivesix,,,,,,,,,,,,,,,,,,,,,,,,,,,,,,,,,,,,,,,,,,,,,,,,,,,,,,,,,,,,,,,,,,,,,,,,,,,,,,,,,,,,,,,,,,,,,,,,,,,,,,,,,,,,,,,,,,,,,,,,,,,,,,,,,,,,,,,,,
,,614e848825ae648282115670,2024-02-22_04h30.20.349,kallum_motion_pilot,2023.2.2,Win32,59.88023952,614e848825ae648282115670,65d6bb0e977760de756971f7,65d6bfaa210973f7d2836d75,0.0928,0.0931,0,124,124,65,1,onethree,,,,,,,,,,,,,,,,,,,,,,,,,,,,,,,,,,,,,,,,,,,,,,,,,,,,,,,,,,,,,,,,,,,,,,,,,,,,,,,,,,,,,,,,,,,,,,,,,,,,,,,,,,,,,,,,,,,,,,,,,,,,,,,,,,,,,,,,,
,,614e848825ae648282115670,2024-02-22_04h30.20.349,kallum_motion_pilot,2023.2.2,Win32,59.88023952,614e848825ae648282115670,65d6bb0e977760de756971f7,65d6bfaa210973f7d2836d75,0.0933,0.0934,0,125,125,146,1,sixfive,,,,,,,,,,,,,,,,,,,,,,,,,,,,,,,,,,,,,,,,,,,,,,,,,,,,,,,,,,,,,,,,,,,,,,,,,,,,,,,,,,,,,,,,,,,,,,,,,,,,,,,,,,,,,,,,,,,,,,,,,,,,,,,,,,,,,,,,,
,,614e848825ae648282115670,2024-02-22_04h30.20.349,kallum_motion_pilot,2023.2.2,Win32,59.88023952,614e848825ae648282115670,65d6bb0e977760de756971f7,65d6bfaa210973f7d2836d75,0.0937,0.0939,0,126,126,145,1,fiveseven,,,,,,,,,,,,,,,,,,,,,,,,,,,,,,,,,,,,,,,,,,,,,,,,,,,,,,,,,,,,,,,,,,,,,,,,,,,,,,,,,,,,,,,,,,,,,,,,,,,,,,,,,,,,,,,,,,,,,,,,,,,,,,,,,,,,,,,,,
,,614e848825ae648282115670,2024-02-22_04h30.20.349,kallum_motion_pilot,2023.2.2,Win32,59.88023952,614e848825ae648282115670,65d6bb0e977760de756971f7,65d6bfaa210973f7d2836d75,0.0941,0.0943,0,127,127,115,1,sixeight,,,,,,,,,,,,,,,,,,,,,,,,,,,,,,,,,,,,,,,,,,,,,,,,,,,,,,,,,,,,,,,,,,,,,,,,,,,,,,,,,,,,,,,,,,,,,,,,,,,,,,,,,,,,,,,,,,,,,,,,,,,,,,,,,,,,,,,,,
,,614e848825ae648282115670,2024-02-22_04h30.20.349,kallum_motion_pilot,2023.2.2,Win32,59.88023952,614e848825ae648282115670,65d6bb0e977760de756971f7,65d6bfaa210973f7d2836d75,0.0944,0.0946,0,128,128,153,1,fiveseven,,,,,,,,,,,,,,,,,,,,,,,,,,,,,,,,,,,,,,,,,,,,,,,,,,,,,,,,,,,,,,,,,,,,,,,,,,,,,,,,,,,,,,,,,,,,,,,,,,,,,,,,,,,,,,,,,,,,,,,,,,,,,,,,,,,,,,,,,
,,614e848825ae648282115670,2024-02-22_04h30.20.349,kallum_motion_pilot,2023.2.2,Win32,59.88023952,614e848825ae648282115670,65d6bb0e977760de756971f7,65d6bfaa210973f7d2836d75,0.0948,0.095,0,129,129,12,1,threeone,,,,,,,,,,,,,,,,,,,,,,,,,,,,,,,,,,,,,,,,,,,,,,,,,,,,,,,,,,,,,,,,,,,,,,,,,,,,,,,,,,,,,,,,,,,,,,,,,,,,,,,,,,,,,,,,,,,,,,,,,,,,,,,,,,,,,,,,,
,,614e848825ae648282115670,2024-02-22_04h30.20.349,kallum_motion_pilot,2023.2.2,Win32,59.88023952,614e848825ae648282115670,65d6bb0e977760de756971f7,65d6bfaa210973f7d2836d75,0.0952,0.0953,0,130,130,66,1,twoone,,,,,,,,,,,,,,,,,,,,,,,,,,,,,,,,,,,,,,,,,,,,,,,,,,,,,,,,,,,,,,,,,,,,,,,,,,,,,,,,,,,,,,,,,,,,,,,,,,,,,,,,,,,,,,,,,,,,,,,,,,,,,,,,,,,,,,,,,
,,614e848825ae648282115670,2024-02-22_04h30.20.349,kallum_motion_pilot,2023.2.2,Win32,59.88023952,614e848825ae648282115670,65d6bb0e977760de756971f7,65d6bfaa210973f7d2836d75,0.0956,0.0957,0,131,131,104,1,fivesix,,,,,,,,,,,,,,,,,,,,,,,,,,,,,,,,,,,,,,,,,,,,,,,,,,,,,,,,,,,,,,,,,,,,,,,,,,,,,,,,,,,,,,,,,,,,,,,,,,,,,,,,,,,,,,,,,,,,,,,,,,,,,,,,,,,,,,,,,
,,614e848825ae648282115670,2024-02-22_04h30.20.349,kallum_motion_pilot,2023.2.2,Win32,59.88023952,614e848825ae648282115670,65d6bb0e977760de756971f7,65d6bfaa210973f7d2836d75,0.0959,0.096,0,132,132,9,1,onethree,,,,,,,,,,,,,,,,,,,,,,,,,,,,,,,,,,,,,,,,,,,,,,,,,,,,,,,,,,,,,,,,,,,,,,,,,,,,,,,,,,,,,,,,,,,,,,,,,,,,,,,,,,,,,,,,,,,,,,,,,,,,,,,,,,,,,,,,,
,,614e848825ae648282115670,2024-02-22_04h30.20.349,kallum_motion_pilot,2023.2.2,Win32,59.88023952,614e848825ae648282115670,65d6bb0e977760de756971f7,65d6bfaa210973f7d2836d75,0.0962,0.0963,0,133,133,67,1,twofour,,,,,,,,,,,,,,,,,,,,,,,,,,,,,,,,,,,,,,,,,,,,,,,,,,,,,,,,,,,,,,,,,,,,,,,,,,,,,,,,,,,,,,,,,,,,,,,,,,,,,,,,,,,,,,,,,,,,,,,,,,,,,,,,,,,,,,,,,
,,614e848825ae648282115670,2024-02-22_04h30.20.349,kallum_motion_pilot,2023.2.2,Win32,59.88023952,614e848825ae648282115670,65d6bb0e977760de756971f7,65d6bfaa210973f7d2836d75,0.0966,0.0967,0,134,134,84,1,sevenfive,,,,,,,,,,,,,,,,,,,,,,,,,,,,,,,,,,,,,,,,,,,,,,,,,,,,,,,,,,,,,,,,,,,,,,,,,,,,,,,,,,,,,,,,,,,,,,,,,,,,,,,,,,,,,,,,,,,,,,,,,,,,,,,,,,,,,,,,,
,,614e848825ae648282115670,2024-02-22_04h30.20.349,kallum_motion_pilot,2023.2.2,Win32,59.88023952,614e848825ae648282115670,65d6bb0e977760de756971f7,65d6bfaa210973f7d2836d75,0.0969,0.0971,0,135,135,25,1,onethree,,,,,,,,,,,,,,,,,,,,,,,,,,,,,,,,,,,,,,,,,,,,,,,,,,,,,,,,,,,,,,,,,,,,,,,,,,,,,,,,,,,,,,,,,,,,,,,,,,,,,,,,,,,,,,,,,,,,,,,,,,,,,,,,,,,,,,,,,
,,614e848825ae648282115670,2024-02-22_04h30.20.349,kallum_motion_pilot,2023.2.2,Win32,59.88023952,614e848825ae648282115670,65d6bb0e977760de756971f7,65d6bfaa210973f7d2836d75,0.0972,0.0974,0,136,136,41,1,onethree,,,,,,,,,,,,,,,,,,,,,,,,,,,,,,,,,,,,,,,,,,,,,,,,,,,,,,,,,,,,,,,,,,,,,,,,,,,,,,,,,,,,,,,,,,,,,,,,,,,,,,,,,,,,,,,,,,,,,,,,,,,,,,,,,,,,,,,,,
,,614e848825ae648282115670,2024-02-22_04h30.20.349,kallum_motion_pilot,2023.2.2,Win32,59.88023952,614e848825ae648282115670,65d6bb0e977760de756971f7,65d6bfaa210973f7d2836d75,0.0975,0.0977,0,137,137,74,1,twoone,,,,,,,,,,,,,,,,,,,,,,,,,,,,,,,,,,,,,,,,,,,,,,,,,,,,,,,,,,,,,,,,,,,,,,,,,,,,,,,,,,,,,,,,,,,,,,,,,,,,,,,,,,,,,,,,,,,,,,,,,,,,,,,,,,,,,,,,,
,,614e848825ae648282115670,2024-02-22_04h30.20.349,kallum_motion_pilot,2023.2.2,Win32,59.88023952,614e848825ae648282115670,65d6bb0e977760de756971f7,65d6bfaa210973f7d2836d75,0.0979,0.0981,0,138,138,140,1,sevenfive,,,,,,,,,,,,,,,,,,,,,,,,,,,,,,,,,,,,,,,,,,,,,,,,,,,,,,,,,,,,,,,,,,,,,,,,,,,,,,,,,,,,,,,,,,,,,,,,,,,,,,,,,,,,,,,,,,,,,,,,,,,,,,,,,,,,,,,,,
,,614e848825ae648282115670,2024-02-22_04h30.20.349,kallum_motion_pilot,2023.2.2,Win32,59.88023952,614e848825ae648282115670,65d6bb0e977760de756971f7,65d6bfaa210973f7d2836d75,0.0982,0.0984,0,139,139,97,1,fiveseven,,,,,,,,,,,,,,,,,,,,,,,,,,,,,,,,,,,,,,,,,,,,,,,,,,,,,,,,,,,,,,,,,,,,,,,,,,,,,,,,,,,,,,,,,,,,,,,,,,,,,,,,,,,,,,,,,,,,,,,,,,,,,,,,,,,,,,,,,
,,614e848825ae648282115670,2024-02-22_04h30.20.349,kallum_motion_pilot,2023.2.2,Win32,59.88023952,614e848825ae648282115670,65d6bb0e977760de756971f7,65d6bfaa210973f7d2836d75,0.0987,0.0992,0,140,140,119,1,eightseven,,,,,,,,,,,,,,,,,,,,,,,,,,,,,,,,,,,,,,,,,,,,,,,,,,,,,,,,,,,,,,,,,,,,,,,,,,,,,,,,,,,,,,,,,,,,,,,,,,,,,,,,,,,,,,,,,,,,,,,,,,,,,,,,,,,,,,,,,
,,614e848825ae648282115670,2024-02-22_04h30.20.349,kallum_motion_pilot,2023.2.2,Win32,59.88023952,614e848825ae648282115670,65d6bb0e977760de756971f7,65d6bfaa210973f7d2836d75,0.0995,0.0997,0,141,141,155,1,sixeight,,,,,,,,,,,,,,,,,,,,,,,,,,,,,,,,,,,,,,,,,,,,,,,,,,,,,,,,,,,,,,,,,,,,,,,,,,,,,,,,,,,,,,,,,,,,,,,,,,,,,,,,,,,,,,,,,,,,,,,,,,,,,,,,,,,,,,,,,
,,614e848825ae648282115670,2024-02-22_04h30.20.349,kallum_motion_pilot,2023.2.2,Win32,59.88023952,614e848825ae648282115670,65d6bb0e977760de756971f7,65d6bfaa210973f7d2836d75,0.1,0.1001,0,142,142,152,1,fivesix,,,,,,,,,,,,,,,,,,,,,,,,,,,,,,,,,,,,,,,,,,,,,,,,,,,,,,,,,,,,,,,,,,,,,,,,,,,,,,,,,,,,,,,,,,,,,,,,,,,,,,,,,,,,,,,,,,,,,,,,,,,,,,,,,,,,,,,,,
,,614e848825ae648282115670,2024-02-22_04h30.20.349,kallum_motion_pilot,2023.2.2,Win32,59.88023952,614e848825ae648282115670,65d6bb0e977760de756971f7,65d6bfaa210973f7d2836d75,0.1003,0.1005,0,143,143,2,1,twoone,,,,,,,,,,,,,,,,,,,,,,,,,,,,,,,,,,,,,,,,,,,,,,,,,,,,,,,,,,,,,,,,,,,,,,,,,,,,,,,,,,,,,,,,,,,,,,,,,,,,,,,,,,,,,,,,,,,,,,,,,,,,,,,,,,,,,,,,,
,,614e848825ae648282115670,2024-02-22_04h30.20.349,kallum_motion_pilot,2023.2.2,Win32,59.88023952,614e848825ae648282115670,65d6bb0e977760de756971f7,65d6bfaa210973f7d2836d75,0.1008,0.1009,0,144,144,94,1,eightsix,,,,,,,,,,,,,,,,,,,,,,,,,,,,,,,,,,,,,,,,,,,,,,,,,,,,,,,,,,,,,,,,,,,,,,,,,,,,,,,,,,,,,,,,,,,,,,,,,,,,,,,,,,,,,,,,,,,,,,,,,,,,,,,,,,,,,,,,,
,,614e848825ae648282115670,2024-02-22_04h30.20.349,kallum_motion_pilot,2023.2.2,Win32,59.88023952,614e848825ae648282115670,65d6bb0e977760de756971f7,65d6bfaa210973f7d2836d75,0.1013,0.1016,0,145,145,11,1,twofour,,,,,,,,,,,,,,,,,,,,,,,,,,,,,,,,,,,,,,,,,,,,,,,,,,,,,,,,,,,,,,,,,,,,,,,,,,,,,,,,,,,,,,,,,,,,,,,,,,,,,,,,,,,,,,,,,,,,,,,,,,,,,,,,,,,,,,,,,
,,614e848825ae648282115670,2024-02-22_04h30.20.349,kallum_motion_pilot,2023.2.2,Win32,59.88023952,614e848825ae648282115670,65d6bb0e977760de756971f7,65d6bfaa210973f7d2836d75,0.1019,0.1021,0,146,146,1,1,onethree,,,,,,,,,,,,,,,,,,,,,,,,,,,,,,,,,,,,,,,,,,,,,,,,,,,,,,,,,,,,,,,,,,,,,,,,,,,,,,,,,,,,,,,,,,,,,,,,,,,,,,,,,,,,,,,,,,,,,,,,,,,,,,,,,,,,,,,,,
,,614e848825ae648282115670,2024-02-22_04h30.20.349,kallum_motion_pilot,2023.2.2,Win32,59.88023952,614e848825ae648282115670,65d6bb0e977760de756971f7,65d6bfaa210973f7d2836d75,0.1024,0.1026,0,147,147,42,1,twoone,,,,,,,,,,,,,,,,,,,,,,,,,,,,,,,,,,,,,,,,,,,,,,,,,,,,,,,,,,,,,,,,,,,,,,,,,,,,,,,,,,,,,,,,,,,,,,,,,,,,,,,,,,,,,,,,,,,,,,,,,,,,,,,,,,,,,,,,,
,,614e848825ae648282115670,2024-02-22_04h30.20.349,kallum_motion_pilot,2023.2.2,Win32,59.88023952,614e848825ae648282115670,65d6bb0e977760de756971f7,65d6bfaa210973f7d2836d75,0.1028,0.1031,0,148,148,128,1,fivesix,,,,,,,,,,,,,,,,,,,,,,,,,,,,,,,,,,,,,,,,,,,,,,,,,,,,,,,,,,,,,,,,,,,,,,,,,,,,,,,,,,,,,,,,,,,,,,,,,,,,,,,,,,,,,,,,,,,,,,,,,,,,,,,,,,,,,,,,,
,,614e848825ae648282115670,2024-02-22_04h30.20.349,kallum_motion_pilot,2023.2.2,Win32,59.88023952,614e848825ae648282115670,65d6bb0e977760de756971f7,65d6bfaa210973f7d2836d75,0.1033,0.1034,0,149,149,46,1,fourtwo,,,,,,,,,,,,,,,,,,,,,,,,,,,,,,,,,,,,,,,,,,,,,,,,,,,,,,,,,,,,,,,,,,,,,,,,,,,,,,,,,,,,,,,,,,,,,,,,,,,,,,,,,,,,,,,,,,,,,,,,,,,,,,,,,,,,,,,,,
,,614e848825ae648282115670,2024-02-22_04h30.20.349,kallum_motion_pilot,2023.2.2,Win32,59.88023952,614e848825ae648282115670,65d6bb0e977760de756971f7,65d6bfaa210973f7d2836d75,0.1036,0.1038,0,150,150,35,1,twofour,,,,,,,,,,,,,,,,,,,,,,,,,,,,,,,,,,,,,,,,,,,,,,,,,,,,,,,,,,,,,,,,,,,,,,,,,,,,,,,,,,,,,,,,,,,,,,,,,,,,,,,,,,,,,,,,,,,,,,,,,,,,,,,,,,,,,,,,,
,,614e848825ae648282115670,2024-02-22_04h30.20.349,kallum_motion_pilot,2023.2.2,Win32,59.88023952,614e848825ae648282115670,65d6bb0e977760de756971f7,65d6bfaa210973f7d2836d75,0.104,0.1041,0,151,151,159,1,eightseven,,,,,,,,,,,,,,,,,,,,,,,,,,,,,,,,,,,,,,,,,,,,,,,,,,,,,,,,,,,,,,,,,,,,,,,,,,,,,,,,,,,,,,,,,,,,,,,,,,,,,,,,,,,,,,,,,,,,,,,,,,,,,,,,,,,,,,,,,
,,614e848825ae648282115670,2024-02-22_04h30.20.349,kallum_motion_pilot,2023.2.2,Win32,59.88023952,614e848825ae648282115670,65d6bb0e977760de756971f7,65d6bfaa210973f7d2836d75,0.1043,0.1046,0,152,152,36,1,threeone,,,,,,,,,,,,,,,,,,,,,,,,,,,,,,,,,,,,,,,,,,,,,,,,,,,,,,,,,,,,,,,,,,,,,,,,,,,,,,,,,,,,,,,,,,,,,,,,,,,,,,,,,,,,,,,,,,,,,,,,,,,,,,,,,,,,,,,,,
,,614e848825ae648282115670,2024-02-22_04h30.20.349,kallum_motion_pilot,2023.2.2,Win32,59.88023952,614e848825ae648282115670,65d6bb0e977760de756971f7,65d6bfaa210973f7d2836d75,0.1047,0.1049,0,153,153,18,1,twoone,,,,,,,,,,,,,,,,,,,,,,,,,,,,,,,,,,,,,,,,,,,,,,,,,,,,,,,,,,,,,,,,,,,,,,,,,,,,,,,,,,,,,,,,,,,,,,,,,,,,,,,,,,,,,,,,,,,,,,,,,,,,,,,,,,,,,,,,,
,,614e848825ae648282115670,2024-02-22_04h30.20.349,kallum_motion_pilot,2023.2.2,Win32,59.88023952,614e848825ae648282115670,65d6bb0e977760de756971f7,65d6bfaa210973f7d2836d75,0.105,0.1052,0,154,154,72,1,onetwo,,,,,,,,,,,,,,,,,,,,,,,,,,,,,,,,,,,,,,,,,,,,,,,,,,,,,,,,,,,,,,,,,,,,,,,,,,,,,,,,,,,,,,,,,,,,,,,,,,,,,,,,,,,,,,,,,,,,,,,,,,,,,,,,,,,,,,,,,
,,614e848825ae648282115670,2024-02-22_04h30.20.349,kallum_motion_pilot,2023.2.2,Win32,59.88023952,614e848825ae648282115670,65d6bb0e977760de756971f7,65d6bfaa210973f7d2836d75,0.1054,0.1056,0,155,155,70,1,fourtwo,,,,,,,,,,,,,,,,,,,,,,,,,,,,,,,,,,,,,,,,,,,,,,,,,,,,,,,,,,,,,,,,,,,,,,,,,,,,,,,,,,,,,,,,,,,,,,,,,,,,,,,,,,,,,,,,,,,,,,,,,,,,,,,,,,,,,,,,,
,,614e848825ae648282115670,2024-02-22_04h30.20.349,kallum_motion_pilot,2023.2.2,Win32,59.88023952,614e848825ae648282115670,65d6bb0e977760de756971f7,65d6bfaa210973f7d2836d75,0.1058,0.1059,0,156,156,89,1,fiveseven,,,,,,,,,,,,,,,,,,,,,,,,,,,,,,,,,,,,,,,,,,,,,,,,,,,,,,,,,,,,,,,,,,,,,,,,,,,,,,,,,,,,,,,,,,,,,,,,,,,,,,,,,,,,,,,,,,,,,,,,,,,,,,,,,,,,,,,,,
,,614e848825ae648282115670,2024-02-22_04h30.20.349,kallum_motion_pilot,2023.2.2,Win32,59.88023952,614e848825ae648282115670,65d6bb0e977760de756971f7,65d6bfaa210973f7d2836d75,0.1062,0.1063,0,157,157,86,1,eightsix,,,,,,,,,,,,,,,,,,,,,,,,,,,,,,,,,,,,,,,,,,,,,,,,,,,,,,,,,,,,,,,,,,,,,,,,,,,,,,,,,,,,,,,,,,,,,,,,,,,,,,,,,,,,,,,,,,,,,,,,,,,,,,,,,,,,,,,,,
,,614e848825ae648282115670,2024-02-22_04h30.20.349,kallum_motion_pilot,2023.2.2,Win32,59.88023952,614e848825ae648282115670,65d6bb0e977760de756971f7,65d6bfaa210973f7d2836d75,0.1065,0.1067,0,158,158,47,1,fourthree,,,,,,,,,,,,,,,,,,,,,,,,,,,,,,,,,,,,,,,,,,,,,,,,,,,,,,,,,,,,,,,,,,,,,,,,,,,,,,,,,,,,,,,,,,,,,,,,,,,,,,,,,,,,,,,,,,,,,,,,,,,,,,,,,,,,,,,,,
,,614e848825ae648282115670,2024-02-22_04h30.20.349,kallum_motion_pilot,2023.2.2,Win32,59.88023952,614e848825ae648282115670,65d6bb0e977760de756971f7,65d6bfaa210973f7d2836d75,0.1069,0.1071,0,159,159,10,1,twoone,,,,,,,,,,,,,,,,,,,,,,,,,,,,,,,,,,,,,,,,,,,,,,,,,,,,,,,,,,,,,,,,,,,,,,,,,,,,,,,,,,,,,,,,,,,,,,,,,,,,,,,,,,,,,,,,,,,,,,,,,,,,,,,,,,,,,,,,,
,,614e848825ae648282115670,2024-02-22_04h30.20.349,kallum_motion_pilot,2023.2.2,Win32,59.88023952,614e848825ae648282115670,65d6bb0e977760de756971f7,65d6bfaa210973f7d2836d75,0.1072,0.1075,0,160,160,37,1,threefour,,,,,,,,,,,,,,,,,,,,,,,,,,,,,,,,,,,,,,,,,,,,,,,,,,,,,,,,,,,,,,,,,,,,,,,,,,,,,,,,,,,,,,,,,,,,,,,,,,,,,,,,,,,,,,,,,,,,,,,,,,,,,,,,,,,,,,,,,
,,614e848825ae648282115670,2024-02-22_04h30.20.349,kallum_motion_pilot,2023.2.2,Win32,59.88023952,614e848825ae648282115670,65d6bb0e977760de756971f7,65d6bfaa210973f7d2836d75,0.1077,0.1078,0,161,161,111,1,eightseven,,,,,,,,,,,,,,,,,,,,,,,,,,,,,,,,,,,,,,,,,,,,,,,,,,,,,,,,,,,,,,,,,,,,,,,,,,,,,,,,,,,,,,,,,,,,,,,,,,,,,,,,,,,,,,,,,,,,,,,,,,,,,,,,,,,,,,,,,
,,614e848825ae648282115670,2024-02-22_04h30.20.349,kallum_motion_pilot,2023.2.2,Win32,59.88023952,614e848825ae648282115670,65d6bb0e977760de756971f7,65d6bfaa210973f7d2836d75,0.108,0.1082,1,0,162,110,1,eightsix,,,,,,,,,,,,,,,,,,,,,,,,,,,,,,,,,,,,,,,,,,,,,,,,,,,,,,,,,,,,,,,,,,,,,,,,,,,,,,,,,,,,,,,,,,,,,,,,,,,,,,,,,,,,,,,,,,,,,,,,,,,,,,,,,,,,,,,,,
,,614e848825ae648282115670,2024-02-22_04h30.20.349,kallum_motion_pilot,2023.2.2,Win32,59.88023952,614e848825ae648282115670,65d6bb0e977760de756971f7,65d6bfaa210973f7d2836d75,0.1084,0.1086,1,1,163,3,1,twofour,,,,,,,,,,,,,,,,,,,,,,,,,,,,,,,,,,,,,,,,,,,,,,,,,,,,,,,,,,,,,,,,,,,,,,,,,,,,,,,,,,,,,,,,,,,,,,,,,,,,,,,,,,,,,,,,,,,,,,,,,,,,,,,,,,,,,,,,,
,,614e848825ae648282115670,2024-02-22_04h30.20.349,kallum_motion_pilot,2023.2.2,Win32,59.88023952,614e848825ae648282115670,65d6bb0e977760de756971f7,65d6bfaa210973f7d2836d75,0.1089,0.109,1,2,164,81,1,fiveseven,,,,,,,,,,,,,,,,,,,,,,,,,,,,,,,,,,,,,,,,,,,,,,,,,,,,,,,,,,,,,,,,,,,,,,,,,,,,,,,,,,,,,,,,,,,,,,,,,,,,,,,,,,,,,,,,,,,,,,,,,,,,,,,,,,,,,,,,,
,,614e848825ae648282115670,2024-02-22_04h30.20.349,kallum_motion_pilot,2023.2.2,Win32,59.88023952,614e848825ae648282115670,65d6bb0e977760de756971f7,65d6bfaa210973f7d2836d75,0.1093,0.1095,1,3,165,88,1,fivesix,,,,,,,,,,,,,,,,,,,,,,,,,,,,,,,,,,,,,,,,,,,,,,,,,,,,,,,,,,,,,,,,,,,,,,,,,,,,,,,,,,,,,,,,,,,,,,,,,,,,,,,,,,,,,,,,,,,,,,,,,,,,,,,,,,,,,,,,,
,,614e848825ae648282115670,2024-02-22_04h30.20.349,kallum_motion_pilot,2023.2.2,Win32,59.88023952,614e848825ae648282115670,65d6bb0e977760de756971f7,65d6bfaa210973f7d2836d75,0.1097,0.1098,1,4,166,0,1,onetwo,,,,,,,,,,,,,,,,,,,,,,,,,,,,,,,,,,,,,,,,,,,,,,,,,,,,,,,,,,,,,,,,,,,,,,,,,,,,,,,,,,,,,,,,,,,,,,,,,,,,,,,,,,,,,,,,,,,,,,,,,,,,,,,,,,,,,,,,,
,,614e848825ae648282115670,2024-02-22_04h30.20.349,kallum_motion_pilot,2023.2.2,Win32,59.88023952,614e848825ae648282115670,65d6bb0e977760de756971f7,65d6bfaa210973f7d2836d75,0.1101,0.1102,1,5,167,121,1,fiveseven,,,,,,,,,,,,,,,,,,,,,,,,,,,,,,,,,,,,,,,,,,,,,,,,,,,,,,,,,,,,,,,,,,,,,,,,,,,,,,,,,,,,,,,,,,,,,,,,,,,,,,,,,,,,,,,,,,,,,,,,,,,,,,,,,,,,,,,,,
,,614e848825ae648282115670,2024-02-22_04h30.20.349,kallum_motion_pilot,2023.2.2,Win32,59.88023952,614e848825ae648282115670,65d6bb0e977760de756971f7,65d6bfaa210973f7d2836d75,0.1104,0.1106,1,6,168,27,1,twofour,,,,,,,,,,,,,,,,,,,,,,,,,,,,,,,,,,,,,,,,,,,,,,,,,,,,,,,,,,,,,,,,,,,,,,,,,,,,,,,,,,,,,,,,,,,,,,,,,,,,,,,,,,,,,,,,,,,,,,,,,,,,,,,,,,,,,,,,,
,,614e848825ae648282115670,2024-02-22_04h30.20.349,kallum_motion_pilot,2023.2.2,Win32,59.88023952,614e848825ae648282115670,65d6bb0e977760de756971f7,65d6bfaa210973f7d2836d75,0.1108,0.111,1,7,169,90,1,sixfive,,,,,,,,,,,,,,,,,,,,,,,,,,,,,,,,,,,,,,,,,,,,,,,,,,,,,,,,,,,,,,,,,,,,,,,,,,,,,,,,,,,,,,,,,,,,,,,,,,,,,,,,,,,,,,,,,,,,,,,,,,,,,,,,,,,,,,,,,
,,614e848825ae648282115670,2024-02-22_04h30.20.349,kallum_motion_pilot,2023.2.2,Win32,59.88023952,614e848825ae648282115670,65d6bb0e977760de756971f7,65d6bfaa210973f7d2836d75,0.1112,0.1113,1,8,170,89,1,fiveseven,,,,,,,,,,,,,,,,,,,,,,,,,,,,,,,,,,,,,,,,,,,,,,,,,,,,,,,,,,,,,,,,,,,,,,,,,,,,,,,,,,,,,,,,,,,,,,,,,,,,,,,,,,,,,,,,,,,,,,,,,,,,,,,,,,,,,,,,,
,,614e848825ae648282115670,2024-02-22_04h30.20.349,kallum_motion_pilot,2023.2.2,Win32,59.88023952,614e848825ae648282115670,65d6bb0e977760de756971f7,65d6bfaa210973f7d2836d75,0.1116,0.1118,1,9,171,83,1,sixeight,,,,,,,,,,,,,,,,,,,,,,,,,,,,,,,,,,,,,,,,,,,,,,,,,,,,,,,,,,,,,,,,,,,,,,,,,,,,,,,,,,,,,,,,,,,,,,,,,,,,,,,,,,,,,,,,,,,,,,,,,,,,,,,,,,,,,,,,,
,,614e848825ae648282115670,2024-02-22_04h30.20.349,kallum_motion_pilot,2023.2.2,Win32,59.88023952,614e848825ae648282115670,65d6bb0e977760de756971f7,65d6bfaa210973f7d2836d75,0.112,0.1122,1,10,172,78,1,fourtwo,,,,,,,,,,,,,,,,,,,,,,,,,,,,,,,,,,,,,,,,,,,,,,,,,,,,,,,,,,,,,,,,,,,,,,,,,,,,,,,,,,,,,,,,,,,,,,,,,,,,,,,,,,,,,,,,,,,,,,,,,,,,,,,,,,,,,,,,,
,,614e848825ae648282115670,2024-02-22_04h30.20.349,kallum_motion_pilot,2023.2.2,Win32,59.88023952,614e848825ae648282115670,65d6bb0e977760de756971f7,65d6bfaa210973f7d2836d75,0.1123,0.1126,1,11,173,133,1,seveneight,,,,,,,,,,,,,,,,,,,,,,,,,,,,,,,,,,,,,,,,,,,,,,,,,,,,,,,,,,,,,,,,,,,,,,,,,,,,,,,,,,,,,,,,,,,,,,,,,,,,,,,,,,,,,,,,,,,,,,,,,,,,,,,,,,,,,,,,,
,,614e848825ae648282115670,2024-02-22_04h30.20.349,kallum_motion_pilot,2023.2.2,Win32,59.88023952,614e848825ae648282115670,65d6bb0e977760de756971f7,65d6bfaa210973f7d2836d75,0.1128,0.113,1,12,174,24,1,onetwo,,,,,,,,,,,,,,,,,,,,,,,,,,,,,,,,,,,,,,,,,,,,,,,,,,,,,,,,,,,,,,,,,,,,,,,,,,,,,,,,,,,,,,,,,,,,,,,,,,,,,,,,,,,,,,,,,,,,,,,,,,,,,,,,,,,,,,,,,
,,614e848825ae648282115670,2024-02-22_04h30.20.349,kallum_motion_pilot,2023.2.2,Win32,59.88023952,614e848825ae648282115670,65d6bb0e977760de756971f7,65d6bfaa210973f7d2836d75,0.1131,0.1133,1,13,175,70,1,fourtwo,,,,,,,,,,,,,,,,,,,,,,,,,,,,,,,,,,,,,,,,,,,,,,,,,,,,,,,,,,,,,,,,,,,,,,,,,,,,,,,,,,,,,,,,,,,,,,,,,,,,,,,,,,,,,,,,,,,,,,,,,,,,,,,,,,,,,,,,,
,,614e848825ae648282115670,2024-02-22_04h30.20.349,kallum_motion_pilot,2023.2.2,Win32,59.88023952,614e848825ae648282115670,65d6bb0e977760de756971f7,65d6bfaa210973f7d2836d75,0.1135,0.1138,1,14,176,144,1,fivesix,,,,,,,,,,,,,,,,,,,,,,,,,,,,,,,,,,,,,,,,,,,,,,,,,,,,,,,,,,,,,,,,,,,,,,,,,,,,,,,,,,,,,,,,,,,,,,,,,,,,,,,,,,,,,,,,,,,,,,,,,,,,,,,,,,,,,,,,,
,,614e848825ae648282115670,2024-02-22_04h30.20.349,kallum_motion_pilot,2023.2.2,Win32,59.88023952,614e848825ae648282115670,65d6bb0e977760de756971f7,65d6bfaa210973f7d2836d75,0.114,0.1142,1,15,177,49,1,onethree,,,,,,,,,,,,,,,,,,,,,,,,,,,,,,,,,,,,,,,,,,,,,,,,,,,,,,,,,,,,,,,,,,,,,,,,,,,,,,,,,,,,,,,,,,,,,,,,,,,,,,,,,,,,,,,,,,,,,,,,,,,,,,,,,,,,,,,,,
,,614e848825ae648282115670,2024-02-22_04h30.20.349,kallum_motion_pilot,2023.2.2,Win32,59.88023952,614e848825ae648282115670,65d6bb0e977760de756971f7,65d6bfaa210973f7d2836d75,0.1144,0.1146,1,16,178,46,1,fourtwo,,,,,,,,,,,,,,,,,,,,,,,,,,,,,,,,,,,,,,,,,,,,,,,,,,,,,,,,,,,,,,,,,,,,,,,,,,,,,,,,,,,,,,,,,,,,,,,,,,,,,,,,,,,,,,,,,,,,,,,,,,,,,,,,,,,,,,,,,
,,614e848825ae648282115670,2024-02-22_04h30.20.349,kallum_motion_pilot,2023.2.2,Win32,59.88023952,614e848825ae648282115670,65d6bb0e977760de756971f7,65d6bfaa210973f7d2836d75,0.1148,0.115,1,17,179,55,1,fourthree,,,,,,,,,,,,,,,,,,,,,,,,,,,,,,,,,,,,,,,,,,,,,,,,,,,,,,,,,,,,,,,,,,,,,,,,,,,,,,,,,,,,,,,,,,,,,,,,,,,,,,,,,,,,,,,,,,,,,,,,,,,,,,,,,,,,,,,,,
,,614e848825ae648282115670,2024-02-22_04h30.20.349,kallum_motion_pilot,2023.2.2,Win32,59.88023952,614e848825ae648282115670,65d6bb0e977760de756971f7,65d6bfaa210973f7d2836d75,0.1152,0.1157,1,18,180,111,1,eightseven,,,,,,,,,,,,,,,,,,,,,,,,,,,,,,,,,,,,,,,,,,,,,,,,,,,,,,,,,,,,,,,,,,,,,,,,,,,,,,,,,,,,,,,,,,,,,,,,,,,,,,,,,,,,,,,,,,,,,,,,,,,,,,,,,,,,,,,,,
,,614e848825ae648282115670,2024-02-22_04h30.20.349,kallum_motion_pilot,2023.2.2,Win32,59.88023952,614e848825ae648282115670,65d6bb0e977760de756971f7,65d6bfaa210973f7d2836d75,0.1161,0.1163,1,19,181,59,1,twofour,,,,,,,,,,,,,,,,,,,,,,,,,,,,,,,,,,,,,,,,,,,,,,,,,,,,,,,,,,,,,,,,,,,,,,,,,,,,,,,,,,,,,,,,,,,,,,,,,,,,,,,,,,,,,,,,,,,,,,,,,,,,,,,,,,,,,,,,,
,,614e848825ae648282115670,2024-02-22_04h30.20.349,kallum_motion_pilot,2023.2.2,Win32,59.88023952,614e848825ae648282115670,65d6bb0e977760de756971f7,65d6bfaa210973f7d2836d75,0.1165,0.1167,1,20,182,99,1,sixeight,,,,,,,,,,,,,,,,,,,,,,,,,,,,,,,,,,,,,,,,,,,,,,,,,,,,,,,,,,,,,,,,,,,,,,,,,,,,,,,,,,,,,,,,,,,,,,,,,,,,,,,,,,,,,,,,,,,,,,,,,,,,,,,,,,,,,,,,,
,,614e848825ae648282115670,2024-02-22_04h30.20.349,kallum_motion_pilot,2023.2.2,Win32,59.88023952,614e848825ae648282115670,65d6bb0e977760de756971f7,65d6bfaa210973f7d2836d75,0.1169,0.1172,1,21,183,157,1,seveneight,,,,,,,,,,,,,,,,,,,,,,,,,,,,,,,,,,,,,,,,,,,,,,,,,,,,,,,,,,,,,,,,,,,,,,,,,,,,,,,,,,,,,,,,,,,,,,,,,,,,,,,,,,,,,,,,,,,,,,,,,,,,,,,,,,,,,,,,,
,,614e848825ae648282115670,2024-02-22_04h30.20.349,kallum_motion_pilot,2023.2.2,Win32,59.88023952,614e848825ae648282115670,65d6bb0e977760de756971f7,65d6bfaa210973f7d2836d75,0.1176,0.1179,1,22,184,114,1,sixfive,,,,,,,,,,,,,,,,,,,,,,,,,,,,,,,,,,,,,,,,,,,,,,,,,,,,,,,,,,,,,,,,,,,,,,,,,,,,,,,,,,,,,,,,,,,,,,,,,,,,,,,,,,,,,,,,,,,,,,,,,,,,,,,,,,,,,,,,,
,,614e848825ae648282115670,2024-02-22_04h30.20.349,kallum_motion_pilot,2023.2.2,Win32,59.88023952,614e848825ae648282115670,65d6bb0e977760de756971f7,65d6bfaa210973f7d2836d75,0.1186,0.1189,1,23,185,26,1,twoone,,,,,,,,,,,,,,,,,,,,,,,,,,,,,,,,,,,,,,,,,,,,,,,,,,,,,,,,,,,,,,,,,,,,,,,,,,,,,,,,,,,,,,,,,,,,,,,,,,,,,,,,,,,,,,,,,,,,,,,,,,,,,,,,,,,,,,,,,
,,614e848825ae648282115670,2024-02-22_04h30.20.349,kallum_motion_pilot,2023.2.2,Win32,59.88023952,614e848825ae648282115670,65d6bb0e977760de756971f7,65d6bfaa210973f7d2836d75,0.1192,0.1194,1,24,186,51,1,twofour,,,,,,,,,,,,,,,,,,,,,,,,,,,,,,,,,,,,,,,,,,,,,,,,,,,,,,,,,,,,,,,,,,,,,,,,,,,,,,,,,,,,,,,,,,,,,,,,,,,,,,,,,,,,,,,,,,,,,,,,,,,,,,,,,,,,,,,,,
,,614e848825ae648282115670,2024-02-22_04h30.20.349,kallum_motion_pilot,2023.2.2,Win32,59.88023952,614e848825ae648282115670,65d6bb0e977760de756971f7,65d6bfaa210973f7d2836d75,0.1196,0.1198,1,25,187,153,1,fiveseven,,,,,,,,,,,,,,,,,,,,,,,,,,,,,,,,,,,,,,,,,,,,,,,,,,,,,,,,,,,,,,,,,,,,,,,,,,,,,,,,,,,,,,,,,,,,,,,,,,,,,,,,,,,,,,,,,,,,,,,,,,,,,,,,,,,,,,,,,
,,614e848825ae648282115670,2024-02-22_04h30.20.349,kallum_motion_pilot,2023.2.2,Win32,59.88023952,614e848825ae648282115670,65d6bb0e977760de756971f7,65d6bfaa210973f7d2836d75,0.12,0.1202,1,26,188,40,1,onetwo,,,,,,,,,,,,,,,,,,,,,,,,,,,,,,,,,,,,,,,,,,,,,,,,,,,,,,,,,,,,,,,,,,,,,,,,,,,,,,,,,,,,,,,,,,,,,,,,,,,,,,,,,,,,,,,,,,,,,,,,,,,,,,,,,,,,,,,,,
,,614e848825ae648282115670,2024-02-22_04h30.20.349,kallum_motion_pilot,2023.2.2,Win32,59.88023952,614e848825ae648282115670,65d6bb0e977760de756971f7,65d6bfaa210973f7d2836d75,0.1204,0.1206,1,27,189,9,1,onethree,,,,,,,,,,,,,,,,,,,,,,,,,,,,,,,,,,,,,,,,,,,,,,,,,,,,,,,,,,,,,,,,,,,,,,,,,,,,,,,,,,,,,,,,,,,,,,,,,,,,,,,,,,,,,,,,,,,,,,,,,,,,,,,,,,,,,,,,,
,,614e848825ae648282115670,2024-02-22_04h30.20.349,kallum_motion_pilot,2023.2.2,Win32,59.88023952,614e848825ae648282115670,65d6bb0e977760de756971f7,65d6bfaa210973f7d2836d75,0.1208,0.121,1,28,190,15,1,fourthree,,,,,,,,,,,,,,,,,,,,,,,,,,,,,,,,,,,,,,,,,,,,,,,,,,,,,,,,,,,,,,,,,,,,,,,,,,,,,,,,,,,,,,,,,,,,,,,,,,,,,,,,,,,,,,,,,,,,,,,,,,,,,,,,,,,,,,,,,
,,614e848825ae648282115670,2024-02-22_04h30.20.349,kallum_motion_pilot,2023.2.2,Win32,59.88023952,614e848825ae648282115670,65d6bb0e977760de756971f7,65d6bfaa210973f7d2836d75,0.1213,0.1214,1,29,191,84,1,sevenfive,,,,,,,,,,,,,,,,,,,,,,,,,,,,,,,,,,,,,,,,,,,,,,,,,,,,,,,,,,,,,,,,,,,,,,,,,,,,,,,,,,,,,,,,,,,,,,,,,,,,,,,,,,,,,,,,,,,,,,,,,,,,,,,,,,,,,,,,,
,,614e848825ae648282115670,2024-02-22_04h30.20.349,kallum_motion_pilot,2023.2.2,Win32,59.88023952,614e848825ae648282115670,65d6bb0e977760de756971f7,65d6bfaa210973f7d2836d75,0.1216,0.1218,1,30,192,1,1,onethree,,,,,,,,,,,,,,,,,,,,,,,,,,,,,,,,,,,,,,,,,,,,,,,,,,,,,,,,,,,,,,,,,,,,,,,,,,,,,,,,,,,,,,,,,,,,,,,,,,,,,,,,,,,,,,,,,,,,,,,,,,,,,,,,,,,,,,,,,
,,614e848825ae648282115670,2024-02-22_04h30.20.349,kallum_motion_pilot,2023.2.2,Win32,59.88023952,614e848825ae648282115670,65d6bb0e977760de756971f7,65d6bfaa210973f7d2836d75,0.122,0.1222,1,31,193,150,1,eightsix,,,,,,,,,,,,,,,,,,,,,,,,,,,,,,,,,,,,,,,,,,,,,,,,,,,,,,,,,,,,,,,,,,,,,,,,,,,,,,,,,,,,,,,,,,,,,,,,,,,,,,,,,,,,,,,,,,,,,,,,,,,,,,,,,,,,,,,,,
,,614e848825ae648282115670,2024-02-22_04h30.20.349,kallum_motion_pilot,2023.2.2,Win32,59.88023952,614e848825ae648282115670,65d6bb0e977760de756971f7,65d6bfaa210973f7d2836d75,0.1224,0.1226,1,32,194,25,1,onethree,,,,,,,,,,,,,,,,,,,,,,,,,,,,,,,,,,,,,,,,,,,,,,,,,,,,,,,,,,,,,,,,,,,,,,,,,,,,,,,,,,,,,,,,,,,,,,,,,,,,,,,,,,,,,,,,,,,,,,,,,,,,,,,,,,,,,,,,,
,,614e848825ae648282115670,2024-02-22_04h30.20.349,kallum_motion_pilot,2023.2.2,Win32,59.88023952,614e848825ae648282115670,65d6bb0e977760de756971f7,65d6bfaa210973f7d2836d75,0.1229,0.123,1,33,195,136,1,fivesix,,,,,,,,,,,,,,,,,,,,,,,,,,,,,,,,,,,,,,,,,,,,,,,,,,,,,,,,,,,,,,,,,,,,,,,,,,,,,,,,,,,,,,,,,,,,,,,,,,,,,,,,,,,,,,,,,,,,,,,,,,,,,,,,,,,,,,,,,
,,614e848825ae648282115670,2024-02-22_04h30.20.349,kallum_motion_pilot,2023.2.2,Win32,59.88023952,614e848825ae648282115670,65d6bb0e977760de756971f7,65d6bfaa210973f7d2836d75,0.1234,0.1235,1,34,196,106,1,sixfive,,,,,,,,,,,,,,,,,,,,,,,,,,,,,,,,,,,,,,,,,,,,,,,,,,,,,,,,,,,,,,,,,,,,,,,,,,,,,,,,,,,,,,,,,,,,,,,,,,,,,,,,,,,,,,,,,,,,,,,,,,,,,,,,,,,,,,,,,
,,614e848825ae648282115670,2024-02-22_04h30.20.349,kallum_motion_pilot,2023.2.2,Win32,59.88023952,614e848825ae648282115670,65d6bb0e977760de756971f7,65d6bfaa210973f7d2836d75,0.1237,0.1238,1,35,197,134,1,eightsix,,,,,,,,,,,,,,,,,,,,,,,,,,,,,,,,,,,,,,,,,,,,,,,,,,,,,,,,,,,,,,,,,,,,,,,,,,,,,,,,,,,,,,,,,,,,,,,,,,,,,,,,,,,,,,,,,,,,,,,,,,,,,,,,,,,,,,,,,
,,614e848825ae648282115670,2024-02-22_04h30.20.349,kallum_motion_pilot,2023.2.2,Win32,59.88023952,614e848825ae648282115670,65d6bb0e977760de756971f7,65d6bfaa210973f7d2836d75,0.1241,0.1243,1,36,198,42,1,twoone,,,,,,,,,,,,,,,,,,,,,,,,,,,,,,,,,,,,,,,,,,,,,,,,,,,,,,,,,,,,,,,,,,,,,,,,,,,,,,,,,,,,,,,,,,,,,,,,,,,,,,,,,,,,,,,,,,,,,,,,,,,,,,,,,,,,,,,,,
,,614e848825ae648282115670,2024-02-22_04h30.20.349,kallum_motion_pilot,2023.2.2,Win32,59.88023952,614e848825ae648282115670,65d6bb0e977760de756971f7,65d6bfaa210973f7d2836d75,0.1245,0.1247,1,37,199,21,1,threefour,,,,,,,,,,,,,,,,,,,,,,,,,,,,,,,,,,,,,,,,,,,,,,,,,,,,,,,,,,,,,,,,,,,,,,,,,,,,,,,,,,,,,,,,,,,,,,,,,,,,,,,,,,,,,,,,,,,,,,,,,,,,,,,,,,,,,,,,,
,,614e848825ae648282115670,2024-02-22_04h30.20.349,kallum_motion_pilot,2023.2.2,Win32,59.88023952,614e848825ae648282115670,65d6bb0e977760de756971f7,65d6bfaa210973f7d2836d75,0.1248,0.1251,1,38,200,11,1,twofour,,,,,,,,,,,,,,,,,,,,,,,,,,,,,,,,,,,,,,,,,,,,,,,,,,,,,,,,,,,,,,,,,,,,,,,,,,,,,,,,,,,,,,,,,,,,,,,,,,,,,,,,,,,,,,,,,,,,,,,,,,,,,,,,,,,,,,,,,
,,614e848825ae648282115670,2024-02-22_04h30.20.349,kallum_motion_pilot,2023.2.2,Win32,59.88023952,614e848825ae648282115670,65d6bb0e977760de756971f7,65d6bfaa210973f7d2836d75,0.1253,0.1254,1,39,201,6,1,fourtwo,,,,,,,,,,,,,,,,,,,,,,,,,,,,,,,,,,,,,,,,,,,,,,,,,,,,,,,,,,,,,,,,,,,,,,,,,,,,,,,,,,,,,,,,,,,,,,,,,,,,,,,,,,,,,,,,,,,,,,,,,,,,,,,,,,,,,,,,,
,,614e848825ae648282115670,2024-02-22_04h30.20.349,kallum_motion_pilot,2023.2.2,Win32,59.88023952,614e848825ae648282115670,65d6bb0e977760de756971f7,65d6bfaa210973f7d2836d75,0.1257,0.1259,1,40,202,145,1,fiveseven,,,,,,,,,,,,,,,,,,,,,,,,,,,,,,,,,,,,,,,,,,,,,,,,,,,,,,,,,,,,,,,,,,,,,,,,,,,,,,,,,,,,,,,,,,,,,,,,,,,,,,,,,,,,,,,,,,,,,,,,,,,,,,,,,,,,,,,,,
,,614e848825ae648282115670,2024-02-22_04h30.20.349,kallum_motion_pilot,2023.2.2,Win32,59.88023952,614e848825ae648282115670,65d6bb0e977760de756971f7,65d6bfaa210973f7d2836d75,0.1261,0.1263,1,41,203,117,1,seveneight,,,,,,,,,,,,,,,,,,,,,,,,,,,,,,,,,,,,,,,,,,,,,,,,,,,,,,,,,,,,,,,,,,,,,,,,,,,,,,,,,,,,,,,,,,,,,,,,,,,,,,,,,,,,,,,,,,,,,,,,,,,,,,,,,,,,,,,,,
,,614e848825ae648282115670,2024-02-22_04h30.20.349,kallum_motion_pilot,2023.2.2,Win32,59.88023952,614e848825ae648282115670,65d6bb0e977760de756971f7,65d6bfaa210973f7d2836d75,0.1265,0.1267,1,42,204,130,1,sixfive,,,,,,,,,,,,,,,,,,,,,,,,,,,,,,,,,,,,,,,,,,,,,,,,,,,,,,,,,,,,,,,,,,,,,,,,,,,,,,,,,,,,,,,,,,,,,,,,,,,,,,,,,,,,,,,,,,,,,,,,,,,,,,,,,,,,,,,,,
,,614e848825ae648282115670,2024-02-22_04h30.20.349,kallum_motion_pilot,2023.2.2,Win32,59.88023952,614e848825ae648282115670,65d6bb0e977760de756971f7,65d6bfaa210973f7d2836d75,0.1269,0.1271,1,43,205,108,1,sevenfive,,,,,,,,,,,,,,,,,,,,,,,,,,,,,,,,,,,,,,,,,,,,,,,,,,,,,,,,,,,,,,,,,,,,,,,,,,,,,,,,,,,,,,,,,,,,,,,,,,,,,,,,,,,,,,,,,,,,,,,,,,,,,,,,,,,,,,,,,
,,614e848825ae648282115670,2024-02-22_04h30.20.349,kallum_motion_pilot,2023.2.2,Win32,59.88023952,614e848825ae648282115670,65d6bb0e977760de756971f7,65d6bfaa210973f7d2836d75,0.1273,0.1275,1,44,206,50,1,twoone,,,,,,,,,,,,,,,,,,,,,,,,,,,,,,,,,,,,,,,,,,,,,,,,,,,,,,,,,,,,,,,,,,,,,,,,,,,,,,,,,,,,,,,,,,,,,,,,,,,,,,,,,,,,,,,,,,,,,,,,,,,,,,,,,,,,,,,,,
,,614e848825ae648282115670,2024-02-22_04h30.20.349,kallum_motion_pilot,2023.2.2,Win32,59.88023952,614e848825ae648282115670,65d6bb0e977760de756971f7,65d6bfaa210973f7d2836d75,0.1277,0.1279,1,45,207,52,1,threeone,,,,,,,,,,,,,,,,,,,,,,,,,,,,,,,,,,,,,,,,,,,,,,,,,,,,,,,,,,,,,,,,,,,,,,,,,,,,,,,,,,,,,,,,,,,,,,,,,,,,,,,,,,,,,,,,,,,,,,,,,,,,,,,,,,,,,,,,,
,,614e848825ae648282115670,2024-02-22_04h30.20.349,kallum_motion_pilot,2023.2.2,Win32,59.88023952,614e848825ae648282115670,65d6bb0e977760de756971f7,65d6bfaa210973f7d2836d75,0.1282,0.1283,1,46,208,20,1,threeone,,,,,,,,,,,,,,,,,,,,,,,,,,,,,,,,,,,,,,,,,,,,,,,,,,,,,,,,,,,,,,,,,,,,,,,,,,,,,,,,,,,,,,,,,,,,,,,,,,,,,,,,,,,,,,,,,,,,,,,,,,,,,,,,,,,,,,,,,
,,614e848825ae648282115670,2024-02-22_04h30.20.349,kallum_motion_pilot,2023.2.2,Win32,59.88023952,614e848825ae648282115670,65d6bb0e977760de756971f7,65d6bfaa210973f7d2836d75,0.1286,0.1287,1,47,209,161,1,fiveseven,,,,,,,,,,,,,,,,,,,,,,,,,,,,,,,,,,,,,,,,,,,,,,,,,,,,,,,,,,,,,,,,,,,,,,,,,,,,,,,,,,,,,,,,,,,,,,,,,,,,,,,,,,,,,,,,,,,,,,,,,,,,,,,,,,,,,,,,,
,,614e848825ae648282115670,2024-02-22_04h30.20.349,kallum_motion_pilot,2023.2.2,Win32,59.88023952,614e848825ae648282115670,65d6bb0e977760de756971f7,65d6bfaa210973f7d2836d75,0.1289,0.1291,1,48,210,160,1,fivesix,,,,,,,,,,,,,,,,,,,,,,,,,,,,,,,,,,,,,,,,,,,,,,,,,,,,,,,,,,,,,,,,,,,,,,,,,,,,,,,,,,,,,,,,,,,,,,,,,,,,,,,,,,,,,,,,,,,,,,,,,,,,,,,,,,,,,,,,,
,,614e848825ae648282115670,2024-02-22_04h30.20.349,kallum_motion_pilot,2023.2.2,Win32,59.88023952,614e848825ae648282115670,65d6bb0e977760de756971f7,65d6bfaa210973f7d2836d75,0.1293,0.1295,1,49,211,2,1,twoone,,,,,,,,,,,,,,,,,,,,,,,,,,,,,,,,,,,,,,,,,,,,,,,,,,,,,,,,,,,,,,,,,,,,,,,,,,,,,,,,,,,,,,,,,,,,,,,,,,,,,,,,,,,,,,,,,,,,,,,,,,,,,,,,,,,,,,,,,
,,614e848825ae648282115670,2024-02-22_04h30.20.349,kallum_motion_pilot,2023.2.2,Win32,59.88023952,614e848825ae648282115670,65d6bb0e977760de756971f7,65d6bfaa210973f7d2836d75,0.1297,0.13,1,50,212,148,1,sevenfive,,,,,,,,,,,,,,,,,,,,,,,,,,,,,,,,,,,,,,,,,,,,,,,,,,,,,,,,,,,,,,,,,,,,,,,,,,,,,,,,,,,,,,,,,,,,,,,,,,,,,,,,,,,,,,,,,,,,,,,,,,,,,,,,,,,,,,,,,
,,614e848825ae648282115670,2024-02-22_04h30.20.349,kallum_motion_pilot,2023.2.2,Win32,59.88023952,614e848825ae648282115670,65d6bb0e977760de756971f7,65d6bfaa210973f7d2836d75,0.1302,0.1304,1,51,213,128,1,fivesix,,,,,,,,,,,,,,,,,,,,,,,,,,,,,,,,,,,,,,,,,,,,,,,,,,,,,,,,,,,,,,,,,,,,,,,,,,,,,,,,,,,,,,,,,,,,,,,,,,,,,,,,,,,,,,,,,,,,,,,,,,,,,,,,,,,,,,,,,
,,614e848825ae648282115670,2024-02-22_04h30.20.349,kallum_motion_pilot,2023.2.2,Win32,59.88023952,614e848825ae648282115670,65d6bb0e977760de756971f7,65d6bfaa210973f7d2836d75,0.1305,0.1307,1,52,214,98,1,sixfive,,,,,,,,,,,,,,,,,,,,,,,,,,,,,,,,,,,,,,,,,,,,,,,,,,,,,,,,,,,,,,,,,,,,,,,,,,,,,,,,,,,,,,,,,,,,,,,,,,,,,,,,,,,,,,,,,,,,,,,,,,,,,,,,,,,,,,,,,
,,614e848825ae648282115670,2024-02-22_04h30.20.349,kallum_motion_pilot,2023.2.2,Win32,59.88023952,614e848825ae648282115670,65d6bb0e977760de756971f7,65d6bfaa210973f7d2836d75,0.131,0.1312,1,53,215,44,1,threeone,,,,,,,,,,,,,,,,,,,,,,,,,,,,,,,,,,,,,,,,,,,,,,,,,,,,,,,,,,,,,,,,,,,,,,,,,,,,,,,,,,,,,,,,,,,,,,,,,,,,,,,,,,,,,,,,,,,,,,,,,,,,,,,,,,,,,,,,,
,,614e848825ae648282115670,2024-02-22_04h30.20.349,kallum_motion_pilot,2023.2.2,Win32,59.88023952,614e848825ae648282115670,65d6bb0e977760de756971f7,65d6bfaa210973f7d2836d75,0.1315,0.1316,1,54,216,56,1,onetwo,,,,,,,,,,,,,,,,,,,,,,,,,,,,,,,,,,,,,,,,,,,,,,,,,,,,,,,,,,,,,,,,,,,,,,,,,,,,,,,,,,,,,,,,,,,,,,,,,,,,,,,,,,,,,,,,,,,,,,,,,,,,,,,,,,,,,,,,,
,,614e848825ae648282115670,2024-02-22_04h30.20.349,kallum_motion_pilot,2023.2.2,Win32,59.88023952,614e848825ae648282115670,65d6bb0e977760de756971f7,65d6bfaa210973f7d2836d75,0.1319,0.1328,1,55,217,66,1,twoone,,,,,,,,,,,,,,,,,,,,,,,,,,,,,,,,,,,,,,,,,,,,,,,,,,,,,,,,,,,,,,,,,,,,,,,,,,,,,,,,,,,,,,,,,,,,,,,,,,,,,,,,,,,,,,,,,,,,,,,,,,,,,,,,,,,,,,,,,
,,614e848825ae648282115670,2024-02-22_04h30.20.349,kallum_motion_pilot,2023.2.2,Win32,59.88023952,614e848825ae648282115670,65d6bb0e977760de756971f7,65d6bfaa210973f7d2836d75,0.1333,0.1335,1,56,218,132,1,sevenfive,,,,,,,,,,,,,,,,,,,,,,,,,,,,,,,,,,,,,,,,,,,,,,,,,,,,,,,,,,,,,,,,,,,,,,,,,,,,,,,,,,,,,,,,,,,,,,,,,,,,,,,,,,,,,,,,,,,,,,,,,,,,,,,,,,,,,,,,,
,,614e848825ae648282115670,2024-02-22_04h30.20.349,kallum_motion_pilot,2023.2.2,Win32,59.88023952,614e848825ae648282115670,65d6bb0e977760de756971f7,65d6bfaa210973f7d2836d75,0.1338,0.1341,1,57,219,45,1,threefour,,,,,,,,,,,,,,,,,,,,,,,,,,,,,,,,,,,,,,,,,,,,,,,,,,,,,,,,,,,,,,,,,,,,,,,,,,,,,,,,,,,,,,,,,,,,,,,,,,,,,,,,,,,,,,,,,,,,,,,,,,,,,,,,,,,,,,,,,
,,614e848825ae648282115670,2024-02-22_04h30.20.349,kallum_motion_pilot,2023.2.2,Win32,59.88023952,614e848825ae648282115670,65d6bb0e977760de756971f7,65d6bfaa210973f7d2836d75,0.1345,0.1347,1,58,220,131,1,sixeight,,,,,,,,,,,,,,,,,,,,,,,,,,,,,,,,,,,,,,,,,,,,,,,,,,,,,,,,,,,,,,,,,,,,,,,,,,,,,,,,,,,,,,,,,,,,,,,,,,,,,,,,,,,,,,,,,,,,,,,,,,,,,,,,,,,,,,,,,
,,614e848825ae648282115670,2024-02-22_04h30.20.349,kallum_motion_pilot,2023.2.2,Win32,59.88023952,614e848825ae648282115670,65d6bb0e977760de756971f7,65d6bfaa210973f7d2836d75,0.1349,0.1352,1,59,221,67,1,twofour,,,,,,,,,,,,,,,,,,,,,,,,,,,,,,,,,,,,,,,,,,,,,,,,,,,,,,,,,,,,,,,,,,,,,,,,,,,,,,,,,,,,,,,,,,,,,,,,,,,,,,,,,,,,,,,,,,,,,,,,,,,,,,,,,,,,,,,,,
,,614e848825ae648282115670,2024-02-22_04h30.20.349,kallum_motion_pilot,2023.2.2,Win32,59.88023952,614e848825ae648282115670,65d6bb0e977760de756971f7,65d6bfaa210973f7d2836d75,0.1355,0.1357,1,60,222,102,1,eightsix,,,,,,,,,,,,,,,,,,,,,,,,,,,,,,,,,,,,,,,,,,,,,,,,,,,,,,,,,,,,,,,,,,,,,,,,,,,,,,,,,,,,,,,,,,,,,,,,,,,,,,,,,,,,,,,,,,,,,,,,,,,,,,,,,,,,,,,,,
,,614e848825ae648282115670,2024-02-22_04h30.20.349,kallum_motion_pilot,2023.2.2,Win32,59.88023952,614e848825ae648282115670,65d6bb0e977760de756971f7,65d6bfaa210973f7d2836d75,0.136,0.1363,1,61,223,82,1,sixfive,,,,,,,,,,,,,,,,,,,,,,,,,,,,,,,,,,,,,,,,,,,,,,,,,,,,,,,,,,,,,,,,,,,,,,,,,,,,,,,,,,,,,,,,,,,,,,,,,,,,,,,,,,,,,,,,,,,,,,,,,,,,,,,,,,,,,,,,,
,,614e848825ae648282115670,2024-02-22_04h30.20.349,kallum_motion_pilot,2023.2.2,Win32,59.88023952,614e848825ae648282115670,65d6bb0e977760de756971f7,65d6bfaa210973f7d2836d75,0.1366,0.1368,1,62,224,17,1,onethree,,,,,,,,,,,,,,,,,,,,,,,,,,,,,,,,,,,,,,,,,,,,,,,,,,,,,,,,,,,,,,,,,,,,,,,,,,,,,,,,,,,,,,,,,,,,,,,,,,,,,,,,,,,,,,,,,,,,,,,,,,,,,,,,,,,,,,,,,
,,614e848825ae648282115670,2024-02-22_04h30.20.349,kallum_motion_pilot,2023.2.2,Win32,59.88023952,614e848825ae648282115670,65d6bb0e977760de756971f7,65d6bfaa210973f7d2836d75,0.137,0.1373,1,63,225,48,1,onetwo,,,,,,,,,,,,,,,,,,,,,,,,,,,,,,,,,,,,,,,,,,,,,,,,,,,,,,,,,,,,,,,,,,,,,,,,,,,,,,,,,,,,,,,,,,,,,,,,,,,,,,,,,,,,,,,,,,,,,,,,,,,,,,,,,,,,,,,,,
,,614e848825ae648282115670,2024-02-22_04h30.20.349,kallum_motion_pilot,2023.2.2,Win32,59.88023952,614e848825ae648282115670,65d6bb0e977760de756971f7,65d6bfaa210973f7d2836d75,0.1375,0.1378,1,64,226,156,1,sevenfive,,,,,,,,,,,,,,,,,,,,,,,,,,,,,,,,,,,,,,,,,,,,,,,,,,,,,,,,,,,,,,,,,,,,,,,,,,,,,,,,,,,,,,,,,,,,,,,,,,,,,,,,,,,,,,,,,,,,,,,,,,,,,,,,,,,,,,,,,
,,614e848825ae648282115670,2024-02-22_04h30.20.349,kallum_motion_pilot,2023.2.2,Win32,59.88023952,614e848825ae648282115670,65d6bb0e977760de756971f7,65d6bfaa210973f7d2836d75,0.138,0.1382,1,65,227,125,1,seveneight,,,,,,,,,,,,,,,,,,,,,,,,,,,,,,,,,,,,,,,,,,,,,,,,,,,,,,,,,,,,,,,,,,,,,,,,,,,,,,,,,,,,,,,,,,,,,,,,,,,,,,,,,,,,,,,,,,,,,,,,,,,,,,,,,,,,,,,,,
,,614e848825ae648282115670,2024-02-22_04h30.20.349,kallum_motion_pilot,2023.2.2,Win32,59.88023952,614e848825ae648282115670,65d6bb0e977760de756971f7,65d6bfaa210973f7d2836d75,0.1384,0.1386,1,66,228,28,1,threeone,,,,,,,,,,,,,,,,,,,,,,,,,,,,,,,,,,,,,,,,,,,,,,,,,,,,,,,,,,,,,,,,,,,,,,,,,,,,,,,,,,,,,,,,,,,,,,,,,,,,,,,,,,,,,,,,,,,,,,,,,,,,,,,,,,,,,,,,,
,,614e848825ae648282115670,2024-02-22_04h30.20.349,kallum_motion_pilot,2023.2.2,Win32,59.88023952,614e848825ae648282115670,65d6bb0e977760de756971f7,65d6bfaa210973f7d2836d75,0.1389,0.139,1,67,229,54,1,fourtwo,,,,,,,,,,,,,,,,,,,,,,,,,,,,,,,,,,,,,,,,,,,,,,,,,,,,,,,,,,,,,,,,,,,,,,,,,,,,,,,,,,,,,,,,,,,,,,,,,,,,,,,,,,,,,,,,,,,,,,,,,,,,,,,,,,,,,,,,,
,,614e848825ae648282115670,2024-02-22_04h30.20.349,kallum_motion_pilot,2023.2.2,Win32,59.88023952,614e848825ae648282115670,65d6bb0e977760de756971f7,65d6bfaa210973f7d2836d75,0.1393,0.1395,1,68,230,79,1,eightseven,,,,,,,,,,,,,,,,,,,,,,,,,,,,,,,,,,,,,,,,,,,,,,,,,,,,,,,,,,,,,,,,,,,,,,,,,,,,,,,,,,,,,,,,,,,,,,,,,,,,,,,,,,,,,,,,,,,,,,,,,,,,,,,,,,,,,,,,,
,,614e848825ae648282115670,2024-02-22_04h30.20.349,kallum_motion_pilot,2023.2.2,Win32,59.88023952,614e848825ae648282115670,65d6bb0e977760de756971f7,65d6bfaa210973f7d2836d75,0.1397,0.14,1,69,231,29,1,threefour,,,,,,,,,,,,,,,,,,,,,,,,,,,,,,,,,,,,,,,,,,,,,,,,,,,,,,,,,,,,,,,,,,,,,,,,,,,,,,,,,,,,,,,,,,,,,,,,,,,,,,,,,,,,,,,,,,,,,,,,,,,,,,,,,,,,,,,,,
,,614e848825ae648282115670,2024-02-22_04h30.20.349,kallum_motion_pilot,2023.2.2,Win32,59.88023952,614e848825ae648282115670,65d6bb0e977760de756971f7,65d6bfaa210973f7d2836d75,0.1402,0.1405,1,70,232,96,1,fivesix,,,,,,,,,,,,,,,,,,,,,,,,,,,,,,,,,,,,,,,,,,,,,,,,,,,,,,,,,,,,,,,,,,,,,,,,,,,,,,,,,,,,,,,,,,,,,,,,,,,,,,,,,,,,,,,,,,,,,,,,,,,,,,,,,,,,,,,,,
,,614e848825ae648282115670,2024-02-22_04h30.20.349,kallum_motion_pilot,2023.2.2,Win32,59.88023952,614e848825ae648282115670,65d6bb0e977760de756971f7,65d6bfaa210973f7d2836d75,0.1408,0.141,1,71,233,146,1,sixfive,,,,,,,,,,,,,,,,,,,,,,,,,,,,,,,,,,,,,,,,,,,,,,,,,,,,,,,,,,,,,,,,,,,,,,,,,,,,,,,,,,,,,,,,,,,,,,,,,,,,,,,,,,,,,,,,,,,,,,,,,,,,,,,,,,,,,,,,,
,,614e848825ae648282115670,2024-02-22_04h30.20.349,kallum_motion_pilot,2023.2.2,Win32,59.88023952,614e848825ae648282115670,65d6bb0e977760de756971f7,65d6bfaa210973f7d2836d75,0.1413,0.1415,1,72,234,34,1,twoone,,,,,,,,,,,,,,,,,,,,,,,,,,,,,,,,,,,,,,,,,,,,,,,,,,,,,,,,,,,,,,,,,,,,,,,,,,,,,,,,,,,,,,,,,,,,,,,,,,,,,,,,,,,,,,,,,,,,,,,,,,,,,,,,,,,,,,,,,
,,614e848825ae648282115670,2024-02-22_04h30.20.349,kallum_motion_pilot,2023.2.2,Win32,59.88023952,614e848825ae648282115670,65d6bb0e977760de756971f7,65d6bfaa210973f7d2836d75,0.1418,0.142,1,73,235,87,1,eightseven,,,,,,,,,,,,,,,,,,,,,,,,,,,,,,,,,,,,,,,,,,,,,,,,,,,,,,,,,,,,,,,,,,,,,,,,,,,,,,,,,,,,,,,,,,,,,,,,,,,,,,,,,,,,,,,,,,,,,,,,,,,,,,,,,,,,,,,,,
,,614e848825ae648282115670,2024-02-22_04h30.20.349,kallum_motion_pilot,2023.2.2,Win32,59.88023952,614e848825ae648282115670,65d6bb0e977760de756971f7,65d6bfaa210973f7d2836d75,0.1423,0.1425,1,74,236,5,1,threefour,,,,,,,,,,,,,,,,,,,,,,,,,,,,,,,,,,,,,,,,,,,,,,,,,,,,,,,,,,,,,,,,,,,,,,,,,,,,,,,,,,,,,,,,,,,,,,,,,,,,,,,,,,,,,,,,,,,,,,,,,,,,,,,,,,,,,,,,,
,,614e848825ae648282115670,2024-02-22_04h30.20.349,kallum_motion_pilot,2023.2.2,Win32,59.88023952,614e848825ae648282115670,65d6bb0e977760de756971f7,65d6bfaa210973f7d2836d75,0.1427,0.1431,1,75,237,152,1,fivesix,,,,,,,,,,,,,,,,,,,,,,,,,,,,,,,,,,,,,,,,,,,,,,,,,,,,,,,,,,,,,,,,,,,,,,,,,,,,,,,,,,,,,,,,,,,,,,,,,,,,,,,,,,,,,,,,,,,,,,,,,,,,,,,,,,,,,,,,,
,,614e848825ae648282115670,2024-02-22_04h30.20.349,kallum_motion_pilot,2023.2.2,Win32,59.88023952,614e848825ae648282115670,65d6bb0e977760de756971f7,65d6bfaa210973f7d2836d75,0.1432,0.1436,1,76,238,60,1,threeone,,,,,,,,,,,,,,,,,,,,,,,,,,,,,,,,,,,,,,,,,,,,,,,,,,,,,,,,,,,,,,,,,,,,,,,,,,,,,,,,,,,,,,,,,,,,,,,,,,,,,,,,,,,,,,,,,,,,,,,,,,,,,,,,,,,,,,,,,
,,614e848825ae648282115670,2024-02-22_04h30.20.349,kallum_motion_pilot,2023.2.2,Win32,59.88023952,614e848825ae648282115670,65d6bb0e977760de756971f7,65d6bfaa210973f7d2836d75,0.1438,0.144,1,77,239,33,1,onethree,,,,,,,,,,,,,,,,,,,,,,,,,,,,,,,,,,,,,,,,,,,,,,,,,,,,,,,,,,,,,,,,,,,,,,,,,,,,,,,,,,,,,,,,,,,,,,,,,,,,,,,,,,,,,,,,,,,,,,,,,,,,,,,,,,,,,,,,,
,,614e848825ae648282115670,2024-02-22_04h30.20.349,kallum_motion_pilot,2023.2.2,Win32,59.88023952,614e848825ae648282115670,65d6bb0e977760de756971f7,65d6bfaa210973f7d2836d75,0.1442,0.1445,1,78,240,140,1,sevenfive,,,,,,,,,,,,,,,,,,,,,,,,,,,,,,,,,,,,,,,,,,,,,,,,,,,,,,,,,,,,,,,,,,,,,,,,,,,,,,,,,,,,,,,,,,,,,,,,,,,,,,,,,,,,,,,,,,,,,,,,,,,,,,,,,,,,,,,,,
,,614e848825ae648282115670,2024-02-22_04h30.20.349,kallum_motion_pilot,2023.2.2,Win32,59.88023952,614e848825ae648282115670,65d6bb0e977760de756971f7,65d6bfaa210973f7d2836d75,0.1448,0.145,1,79,241,92,1,sevenfive,,,,,,,,,,,,,,,,,,,,,,,,,,,,,,,,,,,,,,,,,,,,,,,,,,,,,,,,,,,,,,,,,,,,,,,,,,,,,,,,,,,,,,,,,,,,,,,,,,,,,,,,,,,,,,,,,,,,,,,,,,,,,,,,,,,,,,,,,
,,614e848825ae648282115670,2024-02-22_04h30.20.349,kallum_motion_pilot,2023.2.2,Win32,59.88023952,614e848825ae648282115670,65d6bb0e977760de756971f7,65d6bfaa210973f7d2836d75,0.1453,0.1455,1,80,242,97,1,fiveseven,,,,,,,,,,,,,,,,,,,,,,,,,,,,,,,,,,,,,,,,,,,,,,,,,,,,,,,,,,,,,,,,,,,,,,,,,,,,,,,,,,,,,,,,,,,,,,,,,,,,,,,,,,,,,,,,,,,,,,,,,,,,,,,,,,,,,,,,,
,,614e848825ae648282115670,2024-02-22_04h30.20.349,kallum_motion_pilot,2023.2.2,Win32,59.88023952,614e848825ae648282115670,65d6bb0e977760de756971f7,65d6bfaa210973f7d2836d75,0.1458,0.146,1,81,243,119,1,eightseven,,,,,,,,,,,,,,,,,,,,,,,,,,,,,,,,,,,,,,,,,,,,,,,,,,,,,,,,,,,,,,,,,,,,,,,,,,,,,,,,,,,,,,,,,,,,,,,,,,,,,,,,,,,,,,,,,,,,,,,,,,,,,,,,,,,,,,,,,
,,614e848825ae648282115670,2024-02-22_04h30.20.349,kallum_motion_pilot,2023.2.2,Win32,59.88023952,614e848825ae648282115670,65d6bb0e977760de756971f7,65d6bfaa210973f7d2836d75,0.1462,0.1465,1,82,244,112,1,fivesix,,,,,,,,,,,,,,,,,,,,,,,,,,,,,,,,,,,,,,,,,,,,,,,,,,,,,,,,,,,,,,,,,,,,,,,,,,,,,,,,,,,,,,,,,,,,,,,,,,,,,,,,,,,,,,,,,,,,,,,,,,,,,,,,,,,,,,,,,
,,614e848825ae648282115670,2024-02-22_04h30.20.349,kallum_motion_pilot,2023.2.2,Win32,59.88023952,614e848825ae648282115670,65d6bb0e977760de756971f7,65d6bfaa210973f7d2836d75,0.1468,0.147,1,83,245,4,1,threeone,,,,,,,,,,,,,,,,,,,,,,,,,,,,,,,,,,,,,,,,,,,,,,,,,,,,,,,,,,,,,,,,,,,,,,,,,,,,,,,,,,,,,,,,,,,,,,,,,,,,,,,,,,,,,,,,,,,,,,,,,,,,,,,,,,,,,,,,,
,,614e848825ae648282115670,2024-02-22_04h30.20.349,kallum_motion_pilot,2023.2.2,Win32,59.88023952,614e848825ae648282115670,65d6bb0e977760de756971f7,65d6bfaa210973f7d2836d75,0.1473,0.1476,1,84,246,129,1,fiveseven,,,,,,,,,,,,,,,,,,,,,,,,,,,,,,,,,,,,,,,,,,,,,,,,,,,,,,,,,,,,,,,,,,,,,,,,,,,,,,,,,,,,,,,,,,,,,,,,,,,,,,,,,,,,,,,,,,,,,,,,,,,,,,,,,,,,,,,,,
,,614e848825ae648282115670,2024-02-22_04h30.20.349,kallum_motion_pilot,2023.2.2,Win32,59.88023952,614e848825ae648282115670,65d6bb0e977760de756971f7,65d6bfaa210973f7d2836d75,0.1479,0.148,1,85,247,123,1,sixeight,,,,,,,,,,,,,,,,,,,,,,,,,,,,,,,,,,,,,,,,,,,,,,,,,,,,,,,,,,,,,,,,,,,,,,,,,,,,,,,,,,,,,,,,,,,,,,,,,,,,,,,,,,,,,,,,,,,,,,,,,,,,,,,,,,,,,,,,,
,,614e848825ae648282115670,2024-02-22_04h30.20.349,kallum_motion_pilot,2023.2.2,Win32,59.88023952,614e848825ae648282115670,65d6bb0e977760de756971f7,65d6bfaa210973f7d2836d75,0.1483,0.1485,1,86,248,120,1,fivesix,,,,,,,,,,,,,,,,,,,,,,,,,,,,,,,,,,,,,,,,,,,,,,,,,,,,,,,,,,,,,,,,,,,,,,,,,,,,,,,,,,,,,,,,,,,,,,,,,,,,,,,,,,,,,,,,,,,,,,,,,,,,,,,,,,,,,,,,,
,,614e848825ae648282115670,2024-02-22_04h30.20.349,kallum_motion_pilot,2023.2.2,Win32,59.88023952,614e848825ae648282115670,65d6bb0e977760de756971f7,65d6bfaa210973f7d2836d75,0.1492,0.1494,1,87,249,107,1,sixeight,,,,,,,,,,,,,,,,,,,,,,,,,,,,,,,,,,,,,,,,,,,,,,,,,,,,,,,,,,,,,,,,,,,,,,,,,,,,,,,,,,,,,,,,,,,,,,,,,,,,,,,,,,,,,,,,,,,,,,,,,,,,,,,,,,,,,,,,,
,,614e848825ae648282115670,2024-02-22_04h30.20.349,kallum_motion_pilot,2023.2.2,Win32,59.88023952,614e848825ae648282115670,65d6bb0e977760de756971f7,65d6bfaa210973f7d2836d75,0.1497,0.15,1,88,250,86,1,eightsix,,,,,,,,,,,,,,,,,,,,,,,,,,,,,,,,,,,,,,,,,,,,,,,,,,,,,,,,,,,,,,,,,,,,,,,,,,,,,,,,,,,,,,,,,,,,,,,,,,,,,,,,,,,,,,,,,,,,,,,,,,,,,,,,,,,,,,,,,
,,614e848825ae648282115670,2024-02-22_04h30.20.349,kallum_motion_pilot,2023.2.2,Win32,59.88023952,614e848825ae648282115670,65d6bb0e977760de756971f7,65d6bfaa210973f7d2836d75,0.1503,0.1505,1,89,251,95,1,eightseven,,,,,,,,,,,,,,,,,,,,,,,,,,,,,,,,,,,,,,,,,,,,,,,,,,,,,,,,,,,,,,,,,,,,,,,,,,,,,,,,,,,,,,,,,,,,,,,,,,,,,,,,,,,,,,,,,,,,,,,,,,,,,,,,,,,,,,,,,
,,614e848825ae648282115670,2024-02-22_04h30.20.349,kallum_motion_pilot,2023.2.2,Win32,59.88023952,614e848825ae648282115670,65d6bb0e977760de756971f7,65d6bfaa210973f7d2836d75,0.1507,0.151,1,90,252,118,1,eightsix,,,,,,,,,,,,,,,,,,,,,,,,,,,,,,,,,,,,,,,,,,,,,,,,,,,,,,,,,,,,,,,,,,,,,,,,,,,,,,,,,,,,,,,,,,,,,,,,,,,,,,,,,,,,,,,,,,,,,,,,,,,,,,,,,,,,,,,,,
,,614e848825ae648282115670,2024-02-22_04h30.20.349,kallum_motion_pilot,2023.2.2,Win32,59.88023952,614e848825ae648282115670,65d6bb0e977760de756971f7,65d6bfaa210973f7d2836d75,0.1513,0.1515,1,91,253,71,1,fourthree,,,,,,,,,,,,,,,,,,,,,,,,,,,,,,,,,,,,,,,,,,,,,,,,,,,,,,,,,,,,,,,,,,,,,,,,,,,,,,,,,,,,,,,,,,,,,,,,,,,,,,,,,,,,,,,,,,,,,,,,,,,,,,,,,,,,,,,,,
,,614e848825ae648282115670,2024-02-22_04h30.20.349,kallum_motion_pilot,2023.2.2,Win32,59.88023952,614e848825ae648282115670,65d6bb0e977760de756971f7,65d6bfaa210973f7d2836d75,0.1517,0.152,1,92,254,101,1,seveneight,,,,,,,,,,,,,,,,,,,,,,,,,,,,,,,,,,,,,,,,,,,,,,,,,,,,,,,,,,,,,,,,,,,,,,,,,,,,,,,,,,,,,,,,,,,,,,,,,,,,,,,,,,,,,,,,,,,,,,,,,,,,,,,,,,,,,,,,,
,,614e848825ae648282115670,2024-02-22_04h30.20.349,kallum_motion_pilot,2023.2.2,Win32,59.88023952,614e848825ae648282115670,65d6bb0e977760de756971f7,65d6bfaa210973f7d2836d75,0.1524,0.1526,1,93,255,116,1,sevenfive,,,,,,,,,,,,,,,,,,,,,,,,,,,,,,,,,,,,,,,,,,,,,,,,,,,,,,,,,,,,,,,,,,,,,,,,,,,,,,,,,,,,,,,,,,,,,,,,,,,,,,,,,,,,,,,,,,,,,,,,,,,,,,,,,,,,,,,,,
,,614e848825ae648282115670,2024-02-22_04h30.20.349,kallum_motion_pilot,2023.2.2,Win32,59.88023952,614e848825ae648282115670,65d6bb0e977760de756971f7,65d6bfaa210973f7d2836d75,0.1529,0.153,1,94,256,30,1,fourtwo,,,,,,,,,,,,,,,,,,,,,,,,,,,,,,,,,,,,,,,,,,,,,,,,,,,,,,,,,,,,,,,,,,,,,,,,,,,,,,,,,,,,,,,,,,,,,,,,,,,,,,,,,,,,,,,,,,,,,,,,,,,,,,,,,,,,,,,,,
,,614e848825ae648282115670,2024-02-22_04h30.20.349,kallum_motion_pilot,2023.2.2,Win32,59.88023952,614e848825ae648282115670,65d6bb0e977760de756971f7,65d6bfaa210973f7d2836d75,0.1532,0.1535,1,95,257,18,1,twoone,,,,,,,,,,,,,,,,,,,,,,,,,,,,,,,,,,,,,,,,,,,,,,,,,,,,,,,,,,,,,,,,,,,,,,,,,,,,,,,,,,,,,,,,,,,,,,,,,,,,,,,,,,,,,,,,,,,,,,,,,,,,,,,,,,,,,,,,,
,,614e848825ae648282115670,2024-02-22_04h30.20.349,kallum_motion_pilot,2023.2.2,Win32,59.88023952,614e848825ae648282115670,65d6bb0e977760de756971f7,65d6bfaa210973f7d2836d75,0.1537,0.1538,1,96,258,16,1,onetwo,,,,,,,,,,,,,,,,,,,,,,,,,,,,,,,,,,,,,,,,,,,,,,,,,,,,,,,,,,,,,,,,,,,,,,,,,,,,,,,,,,,,,,,,,,,,,,,,,,,,,,,,,,,,,,,,,,,,,,,,,,,,,,,,,,,,,,,,,
,,614e848825ae648282115670,2024-02-22_04h30.20.349,kallum_motion_pilot,2023.2.2,Win32,59.88023952,614e848825ae648282115670,65d6bb0e977760de756971f7,65d6bfaa210973f7d2836d75,0.1542,0.1543,1,97,259,19,1,twofour,,,,,,,,,,,,,,,,,,,,,,,,,,,,,,,,,,,,,,,,,,,,,,,,,,,,,,,,,,,,,,,,,,,,,,,,,,,,,,,,,,,,,,,,,,,,,,,,,,,,,,,,,,,,,,,,,,,,,,,,,,,,,,,,,,,,,,,,,
,,614e848825ae648282115670,2024-02-22_04h30.20.349,kallum_motion_pilot,2023.2.2,Win32,59.88023952,614e848825ae648282115670,65d6bb0e977760de756971f7,65d6bfaa210973f7d2836d75,0.1546,0.1547,1,98,260,85,1,seveneight,,,,,,,,,,,,,,,,,,,,,,,,,,,,,,,,,,,,,,,,,,,,,,,,,,,,,,,,,,,,,,,,,,,,,,,,,,,,,,,,,,,,,,,,,,,,,,,,,,,,,,,,,,,,,,,,,,,,,,,,,,,,,,,,,,,,,,,,,
,,614e848825ae648282115670,2024-02-22_04h30.20.349,kallum_motion_pilot,2023.2.2,Win32,59.88023952,614e848825ae648282115670,65d6bb0e977760de756971f7,65d6bfaa210973f7d2836d75,0.155,0.1551,1,99,261,69,1,threefour,,,,,,,,,,,,,,,,,,,,,,,,,,,,,,,,,,,,,,,,,,,,,,,,,,,,,,,,,,,,,,,,,,,,,,,,,,,,,,,,,,,,,,,,,,,,,,,,,,,,,,,,,,,,,,,,,,,,,,,,,,,,,,,,,,,,,,,,,
,,614e848825ae648282115670,2024-02-22_04h30.20.349,kallum_motion_pilot,2023.2.2,Win32,59.88023952,614e848825ae648282115670,65d6bb0e977760de756971f7,65d6bfaa210973f7d2836d75,0.1553,0.1555,1,100,262,77,1,threefour,,,,,,,,,,,,,,,,,,,,,,,,,,,,,,,,,,,,,,,,,,,,,,,,,,,,,,,,,,,,,,,,,,,,,,,,,,,,,,,,,,,,,,,,,,,,,,,,,,,,,,,,,,,,,,,,,,,,,,,,,,,,,,,,,,,,,,,,,
,,614e848825ae648282115670,2024-02-22_04h30.20.349,kallum_motion_pilot,2023.2.2,Win32,59.88023952,614e848825ae648282115670,65d6bb0e977760de756971f7,65d6bfaa210973f7d2836d75,0.1567,0.1569,1,101,263,61,1,threefour,,,,,,,,,,,,,,,,,,,,,,,,,,,,,,,,,,,,,,,,,,,,,,,,,,,,,,,,,,,,,,,,,,,,,,,,,,,,,,,,,,,,,,,,,,,,,,,,,,,,,,,,,,,,,,,,,,,,,,,,,,,,,,,,,,,,,,,,,
,,614e848825ae648282115670,2024-02-22_04h30.20.349,kallum_motion_pilot,2023.2.2,Win32,59.88023952,614e848825ae648282115670,65d6bb0e977760de756971f7,65d6bfaa210973f7d2836d75,0.1573,0.1576,1,102,264,124,1,sevenfive,,,,,,,,,,,,,,,,,,,,,,,,,,,,,,,,,,,,,,,,,,,,,,,,,,,,,,,,,,,,,,,,,,,,,,,,,,,,,,,,,,,,,,,,,,,,,,,,,,,,,,,,,,,,,,,,,,,,,,,,,,,,,,,,,,,,,,,,,
,,614e848825ae648282115670,2024-02-22_04h30.20.349,kallum_motion_pilot,2023.2.2,Win32,59.88023952,614e848825ae648282115670,65d6bb0e977760de756971f7,65d6bfaa210973f7d2836d75,0.1578,0.1581,1,103,265,74,1,twoone,,,,,,,,,,,,,,,,,,,,,,,,,,,,,,,,,,,,,,,,,,,,,,,,,,,,,,,,,,,,,,,,,,,,,,,,,,,,,,,,,,,,,,,,,,,,,,,,,,,,,,,,,,,,,,,,,,,,,,,,,,,,,,,,,,,,,,,,,
,,614e848825ae648282115670,2024-02-22_04h30.20.349,kallum_motion_pilot,2023.2.2,Win32,59.88023952,614e848825ae648282115670,65d6bb0e977760de756971f7,65d6bfaa210973f7d2836d75,0.1582,0.1585,1,104,266,35,1,twofour,,,,,,,,,,,,,,,,,,,,,,,,,,,,,,,,,,,,,,,,,,,,,,,,,,,,,,,,,,,,,,,,,,,,,,,,,,,,,,,,,,,,,,,,,,,,,,,,,,,,,,,,,,,,,,,,,,,,,,,,,,,,,,,,,,,,,,,,,
,,614e848825ae648282115670,2024-02-22_04h30.20.349,kallum_motion_pilot,2023.2.2,Win32,59.88023952,614e848825ae648282115670,65d6bb0e977760de756971f7,65d6bfaa210973f7d2836d75,0.1588,0.159,1,105,267,22,1,fourtwo,,,,,,,,,,,,,,,,,,,,,,,,,,,,,,,,,,,,,,,,,,,,,,,,,,,,,,,,,,,,,,,,,,,,,,,,,,,,,,,,,,,,,,,,,,,,,,,,,,,,,,,,,,,,,,,,,,,,,,,,,,,,,,,,,,,,,,,,,
,,614e848825ae648282115670,2024-02-22_04h30.20.349,kallum_motion_pilot,2023.2.2,Win32,59.88023952,614e848825ae648282115670,65d6bb0e977760de756971f7,65d6bfaa210973f7d2836d75,0.1592,0.1594,1,106,268,64,1,onetwo,,,,,,,,,,,,,,,,,,,,,,,,,,,,,,,,,,,,,,,,,,,,,,,,,,,,,,,,,,,,,,,,,,,,,,,,,,,,,,,,,,,,,,,,,,,,,,,,,,,,,,,,,,,,,,,,,,,,,,,,,,,,,,,,,,,,,,,,,
,,614e848825ae648282115670,2024-02-22_04h30.20.349,kallum_motion_pilot,2023.2.2,Win32,59.88023952,614e848825ae648282115670,65d6bb0e977760de756971f7,65d6bfaa210973f7d2836d75,0.1596,0.1598,1,107,269,103,1,eightseven,,,,,,,,,,,,,,,,,,,,,,,,,,,,,,,,,,,,,,,,,,,,,,,,,,,,,,,,,,,,,,,,,,,,,,,,,,,,,,,,,,,,,,,,,,,,,,,,,,,,,,,,,,,,,,,,,,,,,,,,,,,,,,,,,,,,,,,,,
,,614e848825ae648282115670,2024-02-22_04h30.20.349,kallum_motion_pilot,2023.2.2,Win32,59.88023952,614e848825ae648282115670,65d6bb0e977760de756971f7,65d6bfaa210973f7d2836d75,0.16,0.1603,1,108,270,72,1,onetwo,,,,,,,,,,,,,,,,,,,,,,,,,,,,,,,,,,,,,,,,,,,,,,,,,,,,,,,,,,,,,,,,,,,,,,,,,,,,,,,,,,,,,,,,,,,,,,,,,,,,,,,,,,,,,,,,,,,,,,,,,,,,,,,,,,,,,,,,,
,,614e848825ae648282115670,2024-02-22_04h30.20.349,kallum_motion_pilot,2023.2.2,Win32,59.88023952,614e848825ae648282115670,65d6bb0e977760de756971f7,65d6bfaa210973f7d2836d75,0.1606,0.1608,1,109,271,41,1,onethree,,,,,,,,,,,,,,,,,,,,,,,,,,,,,,,,,,,,,,,,,,,,,,,,,,,,,,,,,,,,,,,,,,,,,,,,,,,,,,,,,,,,,,,,,,,,,,,,,,,,,,,,,,,,,,,,,,,,,,,,,,,,,,,,,,,,,,,,,
,,614e848825ae648282115670,2024-02-22_04h30.20.349,kallum_motion_pilot,2023.2.2,Win32,59.88023952,614e848825ae648282115670,65d6bb0e977760de756971f7,65d6bfaa210973f7d2836d75,0.1611,0.1614,1,110,272,109,1,seveneight,,,,,,,,,,,,,,,,,,,,,,,,,,,,,,,,,,,,,,,,,,,,,,,,,,,,,,,,,,,,,,,,,,,,,,,,,,,,,,,,,,,,,,,,,,,,,,,,,,,,,,,,,,,,,,,,,,,,,,,,,,,,,,,,,,,,,,,,,
,,614e848825ae648282115670,2024-02-22_04h30.20.349,kallum_motion_pilot,2023.2.2,Win32,59.88023952,614e848825ae648282115670,65d6bb0e977760de756971f7,65d6bfaa210973f7d2836d75,0.1616,0.1619,1,111,273,94,1,eightsix,,,,,,,,,,,,,,,,,,,,,,,,,,,,,,,,,,,,,,,,,,,,,,,,,,,,,,,,,,,,,,,,,,,,,,,,,,,,,,,,,,,,,,,,,,,,,,,,,,,,,,,,,,,,,,,,,,,,,,,,,,,,,,,,,,,,,,,,,
,,614e848825ae648282115670,2024-02-22_04h30.20.349,kallum_motion_pilot,2023.2.2,Win32,59.88023952,614e848825ae648282115670,65d6bb0e977760de756971f7,65d6bfaa210973f7d2836d75,0.1621,0.1623,1,112,274,91,1,sixeight,,,,,,,,,,,,,,,,,,,,,,,,,,,,,,,,,,,,,,,,,,,,,,,,,,,,,,,,,,,,,,,,,,,,,,,,,,,,,,,,,,,,,,,,,,,,,,,,,,,,,,,,,,,,,,,,,,,,,,,,,,,,,,,,,,,,,,,,,
,,614e848825ae648282115670,2024-02-22_04h30.20.349,kallum_motion_pilot,2023.2.2,Win32,59.88023952,614e848825ae648282115670,65d6bb0e977760de756971f7,65d6bfaa210973f7d2836d75,0.1626,0.1629,1,113,275,53,1,threefour,,,,,,,,,,,,,,,,,,,,,,,,,,,,,,,,,,,,,,,,,,,,,,,,,,,,,,,,,,,,,,,,,,,,,,,,,,,,,,,,,,,,,,,,,,,,,,,,,,,,,,,,,,,,,,,,,,,,,,,,,,,,,,,,,,,,,,,,,
,,614e848825ae648282115670,2024-02-22_04h30.20.349,kallum_motion_pilot,2023.2.2,Win32,59.88023952,614e848825ae648282115670,65d6bb0e977760de756971f7,65d6bfaa210973f7d2836d75,0.1631,0.1634,1,114,276,127,1,eightseven,,,,,,,,,,,,,,,,,,,,,,,,,,,,,,,,,,,,,,,,,,,,,,,,,,,,,,,,,,,,,,,,,,,,,,,,,,,,,,,,,,,,,,,,,,,,,,,,,,,,,,,,,,,,,,,,,,,,,,,,,,,,,,,,,,,,,,,,,
,,614e848825ae648282115670,2024-02-22_04h30.20.349,kallum_motion_pilot,2023.2.2,Win32,59.88023952,614e848825ae648282115670,65d6bb0e977760de756971f7,65d6bfaa210973f7d2836d75,0.1637,0.1639,1,115,277,155,1,sixeight,,,,,,,,,,,,,,,,,,,,,,,,,,,,,,,,,,,,,,,,,,,,,,,,,,,,,,,,,,,,,,,,,,,,,,,,,,,,,,,,,,,,,,,,,,,,,,,,,,,,,,,,,,,,,,,,,,,,,,,,,,,,,,,,,,,,,,,,,
