startup.started,startup.stopped,Prolific ID*,date,expName,psychopyVersion,OS,frameRate,participant,study_id,session,stimpositions.started,stimpositions.stopped,hardcoded_stimulus_positions.thisRepN,hardcoded_stimulus_positions.thisTrialN,hardcoded_stimulus_positions.thisN,hardcoded_stimulus_positions.thisIndex,hardcoded_stimulus_positions.ran,StimulusPos,stimorientation.started,stimorientation.stopped,prac_stimorientation_import_loop.thisRepN,prac_stimorientation_import_loop.thisTrialN,prac_stimorientation_import_loop.thisN,prac_stimorientation_import_loop.thisIndex,prac_stimorientation_import_loop.ran,Stimorientation,welcome_instr.started,welcome_instr.stopped,key_resp.keys,key_resp.rt,key_resp.duration,response_steppedout_1.started,response_steppedout_1.stopped,key_resp_20.keys,key_resp_20.rt,key_resp_20.duration,response_steppedout_2.started,response_steppedout_2.stopped,key_resp_19.keys,key_resp_19.rt,key_resp_19.duration,stim_response_instr.started,stim_response_instr.stopped,key_resp_15.keys,key_resp_15.rt,key_resp_15.duration,direction_instr_2.started,direction_instr_2.stopped,key_resp_9.keys,key_resp_9.rt,key_resp_9.duration,instr_prac.started,instr_prac.stopped,key_resp_10.keys,key_resp_10.rt,key_resp_10.duration,Stim1_display_prac.started,Stim1_display_prac.stopped,Ecc,Circle1_ori,Circle2_ori,response_prac.started,similarity,response_time,response_prac.stopped,mouse_5.x,mouse_5.y,mouse_5.leftButton,mouse_5.midButton,mouse_5.rightButton,mouse_5.clicked_name,responseprac_feedback.started,responseprac_feedback.stopped,summary2_prac.started,summary2_prac.stopped,mouse_6.x,mouse_6.y,mouse_6.leftButton,mouse_6.midButton,mouse_6.rightButton,mouse_6.clicked_name,duringprac.thisRepN,duringprac.thisTrialN,duringprac.thisN,duringprac.thisIndex,duringprac.ran,begin.started,begin.stopped,key_resp_22.keys,key_resp_22.rt,key_resp_22.duration,Stim1_display.started,Stim1_display.stopped,circle1_ori,circle2_ori,circle1_SF,circle2_SF,response.started,response.stopped,mouse.x,mouse.y,mouse.leftButton,mouse.midButton,mouse.rightButton,mouse.clicked_name,trialnumber,double_pass.thisRepN,double_pass.thisTrialN,double_pass.thisN,double_pass.thisIndex,double_pass.ran,double_pass.order,main_trial.thisRepN,main_trial.thisTrialN,main_trial.thisN,main_trial.thisIndex,main_trial.ran,main_trial.order,Trial_Counter,Catch,Frequencies,response_2.started,response_2.stopped,mouse_2.x,mouse_2.y,mouse_2.leftButton,mouse_2.midButton,mouse_2.rightButton,mouse_2.clicked_name,special_trial.started,special_trial.stopped,catch_1.started,catch_1.stopped,mouse_3.x,mouse_3.y,mouse_3.leftButton,mouse_3.midButton,mouse_3.rightButton,catchresponse,catchnumber,response_time_catch,response_sum.started,response_sum.stopped,mouse_11.x,mouse_11.y,mouse_11.leftButton,mouse_11.midButton,mouse_11.rightButton,flip_presentation_sequence_for_double_pass.started,flip_presentation_sequence_for_double_pass.stopped,goodbye.started,goodbye.stopped,key_resp_3.keys,key_resp_3.rt,key_resp_3.duration
0.0006,0.0008,6151ec9f471555755f408e15,2024-02-22_05h27.38.949,kallum_motion_pilot,2023.2.2,Win32,59.88023952,6151ec9f471555755f408e15,65d6bb0e977760de756971f7,65d6bf1a56de2f00fa72f94a,,,,,,,,,,,,,,,,,,,,,,,,,,,,,,,,,,,,,,,,,,,,,,,,,,,,,,,,,,,,,,,,,,,,,,,,,,,,,,,,,,,,,,,,,,,,,,,,,,,,,,,,,,,,,,,,,,,,,,,,,,,,,,,,,,,,,,,,,,,,,,,,,
,,6151ec9f471555755f408e15,2024-02-22_05h27.38.949,kallum_motion_pilot,2023.2.2,Win32,59.88023952,6151ec9f471555755f408e15,65d6bb0e977760de756971f7,65d6bf1a56de2f00fa72f94a,0.0378,0.0379,0,0,0,158,1,eightsix,,,,,,,,,,,,,,,,,,,,,,,,,,,,,,,,,,,,,,,,,,,,,,,,,,,,,,,,,,,,,,,,,,,,,,,,,,,,,,,,,,,,,,,,,,,,,,,,,,,,,,,,,,,,,,,,,,,,,,,,,,,,,,,,,,,,,,,,,
,,6151ec9f471555755f408e15,2024-02-22_05h27.38.949,kallum_motion_pilot,2023.2.2,Win32,59.88023952,6151ec9f471555755f408e15,65d6bb0e977760de756971f7,65d6bf1a56de2f00fa72f94a,0.0382,0.0382,0,1,1,75,1,twofour,,,,,,,,,,,,,,,,,,,,,,,,,,,,,,,,,,,,,,,,,,,,,,,,,,,,,,,,,,,,,,,,,,,,,,,,,,,,,,,,,,,,,,,,,,,,,,,,,,,,,,,,,,,,,,,,,,,,,,,,,,,,,,,,,,,,,,,,,
,,6151ec9f471555755f408e15,2024-02-22_05h27.38.949,kallum_motion_pilot,2023.2.2,Win32,59.88023952,6151ec9f471555755f408e15,65d6bb0e977760de756971f7,65d6bf1a56de2f00fa72f94a,0.0385,0.0385,0,2,2,25,1,onethree,,,,,,,,,,,,,,,,,,,,,,,,,,,,,,,,,,,,,,,,,,,,,,,,,,,,,,,,,,,,,,,,,,,,,,,,,,,,,,,,,,,,,,,,,,,,,,,,,,,,,,,,,,,,,,,,,,,,,,,,,,,,,,,,,,,,,,,,,
,,6151ec9f471555755f408e15,2024-02-22_05h27.38.949,kallum_motion_pilot,2023.2.2,Win32,59.88023952,6151ec9f471555755f408e15,65d6bb0e977760de756971f7,65d6bf1a56de2f00fa72f94a,0.0386,0.0386,0,3,3,29,1,threefour,,,,,,,,,,,,,,,,,,,,,,,,,,,,,,,,,,,,,,,,,,,,,,,,,,,,,,,,,,,,,,,,,,,,,,,,,,,,,,,,,,,,,,,,,,,,,,,,,,,,,,,,,,,,,,,,,,,,,,,,,,,,,,,,,,,,,,,,,
,,6151ec9f471555755f408e15,2024-02-22_05h27.38.949,kallum_motion_pilot,2023.2.2,Win32,59.88023952,6151ec9f471555755f408e15,65d6bb0e977760de756971f7,65d6bf1a56de2f00fa72f94a,0.0388,0.0388,0,4,4,28,1,threeone,,,,,,,,,,,,,,,,,,,,,,,,,,,,,,,,,,,,,,,,,,,,,,,,,,,,,,,,,,,,,,,,,,,,,,,,,,,,,,,,,,,,,,,,,,,,,,,,,,,,,,,,,,,,,,,,,,,,,,,,,,,,,,,,,,,,,,,,,
,,6151ec9f471555755f408e15,2024-02-22_05h27.38.949,kallum_motion_pilot,2023.2.2,Win32,59.88023952,6151ec9f471555755f408e15,65d6bb0e977760de756971f7,65d6bf1a56de2f00fa72f94a,0.039,0.0391,0,5,5,84,1,sevenfive,,,,,,,,,,,,,,,,,,,,,,,,,,,,,,,,,,,,,,,,,,,,,,,,,,,,,,,,,,,,,,,,,,,,,,,,,,,,,,,,,,,,,,,,,,,,,,,,,,,,,,,,,,,,,,,,,,,,,,,,,,,,,,,,,,,,,,,,,
,,6151ec9f471555755f408e15,2024-02-22_05h27.38.949,kallum_motion_pilot,2023.2.2,Win32,59.88023952,6151ec9f471555755f408e15,65d6bb0e977760de756971f7,65d6bf1a56de2f00fa72f94a,0.0393,0.0393,0,6,6,54,1,fourtwo,,,,,,,,,,,,,,,,,,,,,,,,,,,,,,,,,,,,,,,,,,,,,,,,,,,,,,,,,,,,,,,,,,,,,,,,,,,,,,,,,,,,,,,,,,,,,,,,,,,,,,,,,,,,,,,,,,,,,,,,,,,,,,,,,,,,,,,,,
,,6151ec9f471555755f408e15,2024-02-22_05h27.38.949,kallum_motion_pilot,2023.2.2,Win32,59.88023952,6151ec9f471555755f408e15,65d6bb0e977760de756971f7,65d6bf1a56de2f00fa72f94a,0.0394,0.0395,0,7,7,145,1,fiveseven,,,,,,,,,,,,,,,,,,,,,,,,,,,,,,,,,,,,,,,,,,,,,,,,,,,,,,,,,,,,,,,,,,,,,,,,,,,,,,,,,,,,,,,,,,,,,,,,,,,,,,,,,,,,,,,,,,,,,,,,,,,,,,,,,,,,,,,,,
,,6151ec9f471555755f408e15,2024-02-22_05h27.38.949,kallum_motion_pilot,2023.2.2,Win32,59.88023952,6151ec9f471555755f408e15,65d6bb0e977760de756971f7,65d6bf1a56de2f00fa72f94a,0.0397,0.0397,0,8,8,74,1,twoone,,,,,,,,,,,,,,,,,,,,,,,,,,,,,,,,,,,,,,,,,,,,,,,,,,,,,,,,,,,,,,,,,,,,,,,,,,,,,,,,,,,,,,,,,,,,,,,,,,,,,,,,,,,,,,,,,,,,,,,,,,,,,,,,,,,,,,,,,
,,6151ec9f471555755f408e15,2024-02-22_05h27.38.949,kallum_motion_pilot,2023.2.2,Win32,59.88023952,6151ec9f471555755f408e15,65d6bb0e977760de756971f7,65d6bf1a56de2f00fa72f94a,0.0399,0.0399,0,9,9,110,1,eightsix,,,,,,,,,,,,,,,,,,,,,,,,,,,,,,,,,,,,,,,,,,,,,,,,,,,,,,,,,,,,,,,,,,,,,,,,,,,,,,,,,,,,,,,,,,,,,,,,,,,,,,,,,,,,,,,,,,,,,,,,,,,,,,,,,,,,,,,,,
,,6151ec9f471555755f408e15,2024-02-22_05h27.38.949,kallum_motion_pilot,2023.2.2,Win32,59.88023952,6151ec9f471555755f408e15,65d6bb0e977760de756971f7,65d6bf1a56de2f00fa72f94a,0.04,0.0401,0,10,10,95,1,eightseven,,,,,,,,,,,,,,,,,,,,,,,,,,,,,,,,,,,,,,,,,,,,,,,,,,,,,,,,,,,,,,,,,,,,,,,,,,,,,,,,,,,,,,,,,,,,,,,,,,,,,,,,,,,,,,,,,,,,,,,,,,,,,,,,,,,,,,,,,
,,6151ec9f471555755f408e15,2024-02-22_05h27.38.949,kallum_motion_pilot,2023.2.2,Win32,59.88023952,6151ec9f471555755f408e15,65d6bb0e977760de756971f7,65d6bf1a56de2f00fa72f94a,0.0402,0.0402,0,11,11,35,1,twofour,,,,,,,,,,,,,,,,,,,,,,,,,,,,,,,,,,,,,,,,,,,,,,,,,,,,,,,,,,,,,,,,,,,,,,,,,,,,,,,,,,,,,,,,,,,,,,,,,,,,,,,,,,,,,,,,,,,,,,,,,,,,,,,,,,,,,,,,,
,,6151ec9f471555755f408e15,2024-02-22_05h27.38.949,kallum_motion_pilot,2023.2.2,Win32,59.88023952,6151ec9f471555755f408e15,65d6bb0e977760de756971f7,65d6bf1a56de2f00fa72f94a,0.0404,0.0404,0,12,12,10,1,twoone,,,,,,,,,,,,,,,,,,,,,,,,,,,,,,,,,,,,,,,,,,,,,,,,,,,,,,,,,,,,,,,,,,,,,,,,,,,,,,,,,,,,,,,,,,,,,,,,,,,,,,,,,,,,,,,,,,,,,,,,,,,,,,,,,,,,,,,,,
,,6151ec9f471555755f408e15,2024-02-22_05h27.38.949,kallum_motion_pilot,2023.2.2,Win32,59.88023952,6151ec9f471555755f408e15,65d6bb0e977760de756971f7,65d6bf1a56de2f00fa72f94a,0.0405,0.0405,0,13,13,42,1,twoone,,,,,,,,,,,,,,,,,,,,,,,,,,,,,,,,,,,,,,,,,,,,,,,,,,,,,,,,,,,,,,,,,,,,,,,,,,,,,,,,,,,,,,,,,,,,,,,,,,,,,,,,,,,,,,,,,,,,,,,,,,,,,,,,,,,,,,,,,
,,6151ec9f471555755f408e15,2024-02-22_05h27.38.949,kallum_motion_pilot,2023.2.2,Win32,59.88023952,6151ec9f471555755f408e15,65d6bb0e977760de756971f7,65d6bf1a56de2f00fa72f94a,0.0406,0.0408,0,14,14,63,1,fourthree,,,,,,,,,,,,,,,,,,,,,,,,,,,,,,,,,,,,,,,,,,,,,,,,,,,,,,,,,,,,,,,,,,,,,,,,,,,,,,,,,,,,,,,,,,,,,,,,,,,,,,,,,,,,,,,,,,,,,,,,,,,,,,,,,,,,,,,,,
,,6151ec9f471555755f408e15,2024-02-22_05h27.38.949,kallum_motion_pilot,2023.2.2,Win32,59.88023952,6151ec9f471555755f408e15,65d6bb0e977760de756971f7,65d6bf1a56de2f00fa72f94a,0.0409,0.0409,0,15,15,64,1,onetwo,,,,,,,,,,,,,,,,,,,,,,,,,,,,,,,,,,,,,,,,,,,,,,,,,,,,,,,,,,,,,,,,,,,,,,,,,,,,,,,,,,,,,,,,,,,,,,,,,,,,,,,,,,,,,,,,,,,,,,,,,,,,,,,,,,,,,,,,,
,,6151ec9f471555755f408e15,2024-02-22_05h27.38.949,kallum_motion_pilot,2023.2.2,Win32,59.88023952,6151ec9f471555755f408e15,65d6bb0e977760de756971f7,65d6bf1a56de2f00fa72f94a,0.041,0.041,0,16,16,3,1,twofour,,,,,,,,,,,,,,,,,,,,,,,,,,,,,,,,,,,,,,,,,,,,,,,,,,,,,,,,,,,,,,,,,,,,,,,,,,,,,,,,,,,,,,,,,,,,,,,,,,,,,,,,,,,,,,,,,,,,,,,,,,,,,,,,,,,,,,,,,
,,6151ec9f471555755f408e15,2024-02-22_05h27.38.949,kallum_motion_pilot,2023.2.2,Win32,59.88023952,6151ec9f471555755f408e15,65d6bb0e977760de756971f7,65d6bf1a56de2f00fa72f94a,0.0412,0.0412,0,17,17,93,1,seveneight,,,,,,,,,,,,,,,,,,,,,,,,,,,,,,,,,,,,,,,,,,,,,,,,,,,,,,,,,,,,,,,,,,,,,,,,,,,,,,,,,,,,,,,,,,,,,,,,,,,,,,,,,,,,,,,,,,,,,,,,,,,,,,,,,,,,,,,,,
,,6151ec9f471555755f408e15,2024-02-22_05h27.38.949,kallum_motion_pilot,2023.2.2,Win32,59.88023952,6151ec9f471555755f408e15,65d6bb0e977760de756971f7,65d6bf1a56de2f00fa72f94a,0.0413,0.0413,0,18,18,86,1,eightsix,,,,,,,,,,,,,,,,,,,,,,,,,,,,,,,,,,,,,,,,,,,,,,,,,,,,,,,,,,,,,,,,,,,,,,,,,,,,,,,,,,,,,,,,,,,,,,,,,,,,,,,,,,,,,,,,,,,,,,,,,,,,,,,,,,,,,,,,,
,,6151ec9f471555755f408e15,2024-02-22_05h27.38.949,kallum_motion_pilot,2023.2.2,Win32,59.88023952,6151ec9f471555755f408e15,65d6bb0e977760de756971f7,65d6bf1a56de2f00fa72f94a,0.0414,0.0414,0,19,19,11,1,twofour,,,,,,,,,,,,,,,,,,,,,,,,,,,,,,,,,,,,,,,,,,,,,,,,,,,,,,,,,,,,,,,,,,,,,,,,,,,,,,,,,,,,,,,,,,,,,,,,,,,,,,,,,,,,,,,,,,,,,,,,,,,,,,,,,,,,,,,,,
,,6151ec9f471555755f408e15,2024-02-22_05h27.38.949,kallum_motion_pilot,2023.2.2,Win32,59.88023952,6151ec9f471555755f408e15,65d6bb0e977760de756971f7,65d6bf1a56de2f00fa72f94a,0.0416,0.0416,0,20,20,140,1,sevenfive,,,,,,,,,,,,,,,,,,,,,,,,,,,,,,,,,,,,,,,,,,,,,,,,,,,,,,,,,,,,,,,,,,,,,,,,,,,,,,,,,,,,,,,,,,,,,,,,,,,,,,,,,,,,,,,,,,,,,,,,,,,,,,,,,,,,,,,,,
,,6151ec9f471555755f408e15,2024-02-22_05h27.38.949,kallum_motion_pilot,2023.2.2,Win32,59.88023952,6151ec9f471555755f408e15,65d6bb0e977760de756971f7,65d6bf1a56de2f00fa72f94a,0.0417,0.0417,0,21,21,157,1,seveneight,,,,,,,,,,,,,,,,,,,,,,,,,,,,,,,,,,,,,,,,,,,,,,,,,,,,,,,,,,,,,,,,,,,,,,,,,,,,,,,,,,,,,,,,,,,,,,,,,,,,,,,,,,,,,,,,,,,,,,,,,,,,,,,,,,,,,,,,,
,,6151ec9f471555755f408e15,2024-02-22_05h27.38.949,kallum_motion_pilot,2023.2.2,Win32,59.88023952,6151ec9f471555755f408e15,65d6bb0e977760de756971f7,65d6bf1a56de2f00fa72f94a,0.0418,0.0419,0,22,22,124,1,sevenfive,,,,,,,,,,,,,,,,,,,,,,,,,,,,,,,,,,,,,,,,,,,,,,,,,,,,,,,,,,,,,,,,,,,,,,,,,,,,,,,,,,,,,,,,,,,,,,,,,,,,,,,,,,,,,,,,,,,,,,,,,,,,,,,,,,,,,,,,,
,,6151ec9f471555755f408e15,2024-02-22_05h27.38.949,kallum_motion_pilot,2023.2.2,Win32,59.88023952,6151ec9f471555755f408e15,65d6bb0e977760de756971f7,65d6bf1a56de2f00fa72f94a,0.042,0.0421,0,23,23,134,1,eightsix,,,,,,,,,,,,,,,,,,,,,,,,,,,,,,,,,,,,,,,,,,,,,,,,,,,,,,,,,,,,,,,,,,,,,,,,,,,,,,,,,,,,,,,,,,,,,,,,,,,,,,,,,,,,,,,,,,,,,,,,,,,,,,,,,,,,,,,,,
,,6151ec9f471555755f408e15,2024-02-22_05h27.38.949,kallum_motion_pilot,2023.2.2,Win32,59.88023952,6151ec9f471555755f408e15,65d6bb0e977760de756971f7,65d6bf1a56de2f00fa72f94a,0.0422,0.0422,0,24,24,118,1,eightsix,,,,,,,,,,,,,,,,,,,,,,,,,,,,,,,,,,,,,,,,,,,,,,,,,,,,,,,,,,,,,,,,,,,,,,,,,,,,,,,,,,,,,,,,,,,,,,,,,,,,,,,,,,,,,,,,,,,,,,,,,,,,,,,,,,,,,,,,,
,,6151ec9f471555755f408e15,2024-02-22_05h27.38.949,kallum_motion_pilot,2023.2.2,Win32,59.88023952,6151ec9f471555755f408e15,65d6bb0e977760de756971f7,65d6bf1a56de2f00fa72f94a,0.0423,0.0423,0,25,25,53,1,threefour,,,,,,,,,,,,,,,,,,,,,,,,,,,,,,,,,,,,,,,,,,,,,,,,,,,,,,,,,,,,,,,,,,,,,,,,,,,,,,,,,,,,,,,,,,,,,,,,,,,,,,,,,,,,,,,,,,,,,,,,,,,,,,,,,,,,,,,,,
,,6151ec9f471555755f408e15,2024-02-22_05h27.38.949,kallum_motion_pilot,2023.2.2,Win32,59.88023952,6151ec9f471555755f408e15,65d6bb0e977760de756971f7,65d6bf1a56de2f00fa72f94a,0.0425,0.0425,0,26,26,27,1,twofour,,,,,,,,,,,,,,,,,,,,,,,,,,,,,,,,,,,,,,,,,,,,,,,,,,,,,,,,,,,,,,,,,,,,,,,,,,,,,,,,,,,,,,,,,,,,,,,,,,,,,,,,,,,,,,,,,,,,,,,,,,,,,,,,,,,,,,,,,
,,6151ec9f471555755f408e15,2024-02-22_05h27.38.949,kallum_motion_pilot,2023.2.2,Win32,59.88023952,6151ec9f471555755f408e15,65d6bb0e977760de756971f7,65d6bf1a56de2f00fa72f94a,0.0426,0.0427,0,27,27,142,1,eightsix,,,,,,,,,,,,,,,,,,,,,,,,,,,,,,,,,,,,,,,,,,,,,,,,,,,,,,,,,,,,,,,,,,,,,,,,,,,,,,,,,,,,,,,,,,,,,,,,,,,,,,,,,,,,,,,,,,,,,,,,,,,,,,,,,,,,,,,,,
,,6151ec9f471555755f408e15,2024-02-22_05h27.38.949,kallum_motion_pilot,2023.2.2,Win32,59.88023952,6151ec9f471555755f408e15,65d6bb0e977760de756971f7,65d6bf1a56de2f00fa72f94a,0.0428,0.0428,0,28,28,70,1,fourtwo,,,,,,,,,,,,,,,,,,,,,,,,,,,,,,,,,,,,,,,,,,,,,,,,,,,,,,,,,,,,,,,,,,,,,,,,,,,,,,,,,,,,,,,,,,,,,,,,,,,,,,,,,,,,,,,,,,,,,,,,,,,,,,,,,,,,,,,,,
,,6151ec9f471555755f408e15,2024-02-22_05h27.38.949,kallum_motion_pilot,2023.2.2,Win32,59.88023952,6151ec9f471555755f408e15,65d6bb0e977760de756971f7,65d6bf1a56de2f00fa72f94a,0.0429,0.043,0,29,29,96,1,fivesix,,,,,,,,,,,,,,,,,,,,,,,,,,,,,,,,,,,,,,,,,,,,,,,,,,,,,,,,,,,,,,,,,,,,,,,,,,,,,,,,,,,,,,,,,,,,,,,,,,,,,,,,,,,,,,,,,,,,,,,,,,,,,,,,,,,,,,,,,
,,6151ec9f471555755f408e15,2024-02-22_05h27.38.949,kallum_motion_pilot,2023.2.2,Win32,59.88023952,6151ec9f471555755f408e15,65d6bb0e977760de756971f7,65d6bf1a56de2f00fa72f94a,0.0431,0.0431,0,30,30,139,1,sixeight,,,,,,,,,,,,,,,,,,,,,,,,,,,,,,,,,,,,,,,,,,,,,,,,,,,,,,,,,,,,,,,,,,,,,,,,,,,,,,,,,,,,,,,,,,,,,,,,,,,,,,,,,,,,,,,,,,,,,,,,,,,,,,,,,,,,,,,,,
,,6151ec9f471555755f408e15,2024-02-22_05h27.38.949,kallum_motion_pilot,2023.2.2,Win32,59.88023952,6151ec9f471555755f408e15,65d6bb0e977760de756971f7,65d6bf1a56de2f00fa72f94a,0.0431,0.0432,0,31,31,108,1,sevenfive,,,,,,,,,,,,,,,,,,,,,,,,,,,,,,,,,,,,,,,,,,,,,,,,,,,,,,,,,,,,,,,,,,,,,,,,,,,,,,,,,,,,,,,,,,,,,,,,,,,,,,,,,,,,,,,,,,,,,,,,,,,,,,,,,,,,,,,,,
,,6151ec9f471555755f408e15,2024-02-22_05h27.38.949,kallum_motion_pilot,2023.2.2,Win32,59.88023952,6151ec9f471555755f408e15,65d6bb0e977760de756971f7,65d6bf1a56de2f00fa72f94a,0.0433,0.0433,0,32,32,34,1,twoone,,,,,,,,,,,,,,,,,,,,,,,,,,,,,,,,,,,,,,,,,,,,,,,,,,,,,,,,,,,,,,,,,,,,,,,,,,,,,,,,,,,,,,,,,,,,,,,,,,,,,,,,,,,,,,,,,,,,,,,,,,,,,,,,,,,,,,,,,
,,6151ec9f471555755f408e15,2024-02-22_05h27.38.949,kallum_motion_pilot,2023.2.2,Win32,59.88023952,6151ec9f471555755f408e15,65d6bb0e977760de756971f7,65d6bf1a56de2f00fa72f94a,0.0435,0.0435,0,33,33,59,1,twofour,,,,,,,,,,,,,,,,,,,,,,,,,,,,,,,,,,,,,,,,,,,,,,,,,,,,,,,,,,,,,,,,,,,,,,,,,,,,,,,,,,,,,,,,,,,,,,,,,,,,,,,,,,,,,,,,,,,,,,,,,,,,,,,,,,,,,,,,,
,,6151ec9f471555755f408e15,2024-02-22_05h27.38.949,kallum_motion_pilot,2023.2.2,Win32,59.88023952,6151ec9f471555755f408e15,65d6bb0e977760de756971f7,65d6bf1a56de2f00fa72f94a,0.0436,0.0436,0,34,34,60,1,threeone,,,,,,,,,,,,,,,,,,,,,,,,,,,,,,,,,,,,,,,,,,,,,,,,,,,,,,,,,,,,,,,,,,,,,,,,,,,,,,,,,,,,,,,,,,,,,,,,,,,,,,,,,,,,,,,,,,,,,,,,,,,,,,,,,,,,,,,,,
,,6151ec9f471555755f408e15,2024-02-22_05h27.38.949,kallum_motion_pilot,2023.2.2,Win32,59.88023952,6151ec9f471555755f408e15,65d6bb0e977760de756971f7,65d6bf1a56de2f00fa72f94a,0.0438,0.0438,0,35,35,152,1,fivesix,,,,,,,,,,,,,,,,,,,,,,,,,,,,,,,,,,,,,,,,,,,,,,,,,,,,,,,,,,,,,,,,,,,,,,,,,,,,,,,,,,,,,,,,,,,,,,,,,,,,,,,,,,,,,,,,,,,,,,,,,,,,,,,,,,,,,,,,,
,,6151ec9f471555755f408e15,2024-02-22_05h27.38.949,kallum_motion_pilot,2023.2.2,Win32,59.88023952,6151ec9f471555755f408e15,65d6bb0e977760de756971f7,65d6bf1a56de2f00fa72f94a,0.0439,0.0439,0,36,36,87,1,eightseven,,,,,,,,,,,,,,,,,,,,,,,,,,,,,,,,,,,,,,,,,,,,,,,,,,,,,,,,,,,,,,,,,,,,,,,,,,,,,,,,,,,,,,,,,,,,,,,,,,,,,,,,,,,,,,,,,,,,,,,,,,,,,,,,,,,,,,,,,
,,6151ec9f471555755f408e15,2024-02-22_05h27.38.949,kallum_motion_pilot,2023.2.2,Win32,59.88023952,6151ec9f471555755f408e15,65d6bb0e977760de756971f7,65d6bf1a56de2f00fa72f94a,0.0441,0.0441,0,37,37,33,1,onethree,,,,,,,,,,,,,,,,,,,,,,,,,,,,,,,,,,,,,,,,,,,,,,,,,,,,,,,,,,,,,,,,,,,,,,,,,,,,,,,,,,,,,,,,,,,,,,,,,,,,,,,,,,,,,,,,,,,,,,,,,,,,,,,,,,,,,,,,,
,,6151ec9f471555755f408e15,2024-02-22_05h27.38.949,kallum_motion_pilot,2023.2.2,Win32,59.88023952,6151ec9f471555755f408e15,65d6bb0e977760de756971f7,65d6bf1a56de2f00fa72f94a,0.0442,0.0442,0,38,38,120,1,fivesix,,,,,,,,,,,,,,,,,,,,,,,,,,,,,,,,,,,,,,,,,,,,,,,,,,,,,,,,,,,,,,,,,,,,,,,,,,,,,,,,,,,,,,,,,,,,,,,,,,,,,,,,,,,,,,,,,,,,,,,,,,,,,,,,,,,,,,,,,
,,6151ec9f471555755f408e15,2024-02-22_05h27.38.949,kallum_motion_pilot,2023.2.2,Win32,59.88023952,6151ec9f471555755f408e15,65d6bb0e977760de756971f7,65d6bf1a56de2f00fa72f94a,0.0443,0.0444,0,39,39,30,1,fourtwo,,,,,,,,,,,,,,,,,,,,,,,,,,,,,,,,,,,,,,,,,,,,,,,,,,,,,,,,,,,,,,,,,,,,,,,,,,,,,,,,,,,,,,,,,,,,,,,,,,,,,,,,,,,,,,,,,,,,,,,,,,,,,,,,,,,,,,,,,
,,6151ec9f471555755f408e15,2024-02-22_05h27.38.949,kallum_motion_pilot,2023.2.2,Win32,59.88023952,6151ec9f471555755f408e15,65d6bb0e977760de756971f7,65d6bf1a56de2f00fa72f94a,0.0445,0.0445,0,40,40,122,1,sixfive,,,,,,,,,,,,,,,,,,,,,,,,,,,,,,,,,,,,,,,,,,,,,,,,,,,,,,,,,,,,,,,,,,,,,,,,,,,,,,,,,,,,,,,,,,,,,,,,,,,,,,,,,,,,,,,,,,,,,,,,,,,,,,,,,,,,,,,,,
,,6151ec9f471555755f408e15,2024-02-22_05h27.38.949,kallum_motion_pilot,2023.2.2,Win32,59.88023952,6151ec9f471555755f408e15,65d6bb0e977760de756971f7,65d6bf1a56de2f00fa72f94a,0.0446,0.0447,0,41,41,47,1,fourthree,,,,,,,,,,,,,,,,,,,,,,,,,,,,,,,,,,,,,,,,,,,,,,,,,,,,,,,,,,,,,,,,,,,,,,,,,,,,,,,,,,,,,,,,,,,,,,,,,,,,,,,,,,,,,,,,,,,,,,,,,,,,,,,,,,,,,,,,,
,,6151ec9f471555755f408e15,2024-02-22_05h27.38.949,kallum_motion_pilot,2023.2.2,Win32,59.88023952,6151ec9f471555755f408e15,65d6bb0e977760de756971f7,65d6bf1a56de2f00fa72f94a,0.0448,0.0448,0,42,42,151,1,eightseven,,,,,,,,,,,,,,,,,,,,,,,,,,,,,,,,,,,,,,,,,,,,,,,,,,,,,,,,,,,,,,,,,,,,,,,,,,,,,,,,,,,,,,,,,,,,,,,,,,,,,,,,,,,,,,,,,,,,,,,,,,,,,,,,,,,,,,,,,
,,6151ec9f471555755f408e15,2024-02-22_05h27.38.949,kallum_motion_pilot,2023.2.2,Win32,59.88023952,6151ec9f471555755f408e15,65d6bb0e977760de756971f7,65d6bf1a56de2f00fa72f94a,0.0449,0.045,0,43,43,65,1,onethree,,,,,,,,,,,,,,,,,,,,,,,,,,,,,,,,,,,,,,,,,,,,,,,,,,,,,,,,,,,,,,,,,,,,,,,,,,,,,,,,,,,,,,,,,,,,,,,,,,,,,,,,,,,,,,,,,,,,,,,,,,,,,,,,,,,,,,,,,
,,6151ec9f471555755f408e15,2024-02-22_05h27.38.949,kallum_motion_pilot,2023.2.2,Win32,59.88023952,6151ec9f471555755f408e15,65d6bb0e977760de756971f7,65d6bf1a56de2f00fa72f94a,0.0451,0.0452,0,44,44,89,1,fiveseven,,,,,,,,,,,,,,,,,,,,,,,,,,,,,,,,,,,,,,,,,,,,,,,,,,,,,,,,,,,,,,,,,,,,,,,,,,,,,,,,,,,,,,,,,,,,,,,,,,,,,,,,,,,,,,,,,,,,,,,,,,,,,,,,,,,,,,,,,
,,6151ec9f471555755f408e15,2024-02-22_05h27.38.949,kallum_motion_pilot,2023.2.2,Win32,59.88023952,6151ec9f471555755f408e15,65d6bb0e977760de756971f7,65d6bf1a56de2f00fa72f94a,0.0453,0.0453,0,45,45,128,1,fivesix,,,,,,,,,,,,,,,,,,,,,,,,,,,,,,,,,,,,,,,,,,,,,,,,,,,,,,,,,,,,,,,,,,,,,,,,,,,,,,,,,,,,,,,,,,,,,,,,,,,,,,,,,,,,,,,,,,,,,,,,,,,,,,,,,,,,,,,,,
,,6151ec9f471555755f408e15,2024-02-22_05h27.38.949,kallum_motion_pilot,2023.2.2,Win32,59.88023952,6151ec9f471555755f408e15,65d6bb0e977760de756971f7,65d6bf1a56de2f00fa72f94a,0.0454,0.0454,0,46,46,83,1,sixeight,,,,,,,,,,,,,,,,,,,,,,,,,,,,,,,,,,,,,,,,,,,,,,,,,,,,,,,,,,,,,,,,,,,,,,,,,,,,,,,,,,,,,,,,,,,,,,,,,,,,,,,,,,,,,,,,,,,,,,,,,,,,,,,,,,,,,,,,,
,,6151ec9f471555755f408e15,2024-02-22_05h27.38.949,kallum_motion_pilot,2023.2.2,Win32,59.88023952,6151ec9f471555755f408e15,65d6bb0e977760de756971f7,65d6bf1a56de2f00fa72f94a,0.0455,0.0456,0,47,47,36,1,threeone,,,,,,,,,,,,,,,,,,,,,,,,,,,,,,,,,,,,,,,,,,,,,,,,,,,,,,,,,,,,,,,,,,,,,,,,,,,,,,,,,,,,,,,,,,,,,,,,,,,,,,,,,,,,,,,,,,,,,,,,,,,,,,,,,,,,,,,,,
,,6151ec9f471555755f408e15,2024-02-22_05h27.38.949,kallum_motion_pilot,2023.2.2,Win32,59.88023952,6151ec9f471555755f408e15,65d6bb0e977760de756971f7,65d6bf1a56de2f00fa72f94a,0.0457,0.0457,0,48,48,20,1,threeone,,,,,,,,,,,,,,,,,,,,,,,,,,,,,,,,,,,,,,,,,,,,,,,,,,,,,,,,,,,,,,,,,,,,,,,,,,,,,,,,,,,,,,,,,,,,,,,,,,,,,,,,,,,,,,,,,,,,,,,,,,,,,,,,,,,,,,,,,
,,6151ec9f471555755f408e15,2024-02-22_05h27.38.949,kallum_motion_pilot,2023.2.2,Win32,59.88023952,6151ec9f471555755f408e15,65d6bb0e977760de756971f7,65d6bf1a56de2f00fa72f94a,0.0459,0.0459,0,49,49,125,1,seveneight,,,,,,,,,,,,,,,,,,,,,,,,,,,,,,,,,,,,,,,,,,,,,,,,,,,,,,,,,,,,,,,,,,,,,,,,,,,,,,,,,,,,,,,,,,,,,,,,,,,,,,,,,,,,,,,,,,,,,,,,,,,,,,,,,,,,,,,,,
,,6151ec9f471555755f408e15,2024-02-22_05h27.38.949,kallum_motion_pilot,2023.2.2,Win32,59.88023952,6151ec9f471555755f408e15,65d6bb0e977760de756971f7,65d6bf1a56de2f00fa72f94a,0.046,0.046,0,50,50,138,1,sixfive,,,,,,,,,,,,,,,,,,,,,,,,,,,,,,,,,,,,,,,,,,,,,,,,,,,,,,,,,,,,,,,,,,,,,,,,,,,,,,,,,,,,,,,,,,,,,,,,,,,,,,,,,,,,,,,,,,,,,,,,,,,,,,,,,,,,,,,,,
,,6151ec9f471555755f408e15,2024-02-22_05h27.38.949,kallum_motion_pilot,2023.2.2,Win32,59.88023952,6151ec9f471555755f408e15,65d6bb0e977760de756971f7,65d6bf1a56de2f00fa72f94a,0.0462,0.0462,0,51,51,94,1,eightsix,,,,,,,,,,,,,,,,,,,,,,,,,,,,,,,,,,,,,,,,,,,,,,,,,,,,,,,,,,,,,,,,,,,,,,,,,,,,,,,,,,,,,,,,,,,,,,,,,,,,,,,,,,,,,,,,,,,,,,,,,,,,,,,,,,,,,,,,,
,,6151ec9f471555755f408e15,2024-02-22_05h27.38.949,kallum_motion_pilot,2023.2.2,Win32,59.88023952,6151ec9f471555755f408e15,65d6bb0e977760de756971f7,65d6bf1a56de2f00fa72f94a,0.0463,0.0463,0,52,52,22,1,fourtwo,,,,,,,,,,,,,,,,,,,,,,,,,,,,,,,,,,,,,,,,,,,,,,,,,,,,,,,,,,,,,,,,,,,,,,,,,,,,,,,,,,,,,,,,,,,,,,,,,,,,,,,,,,,,,,,,,,,,,,,,,,,,,,,,,,,,,,,,,
,,6151ec9f471555755f408e15,2024-02-22_05h27.38.949,kallum_motion_pilot,2023.2.2,Win32,59.88023952,6151ec9f471555755f408e15,65d6bb0e977760de756971f7,65d6bf1a56de2f00fa72f94a,0.0464,0.0464,0,53,53,14,1,fourtwo,,,,,,,,,,,,,,,,,,,,,,,,,,,,,,,,,,,,,,,,,,,,,,,,,,,,,,,,,,,,,,,,,,,,,,,,,,,,,,,,,,,,,,,,,,,,,,,,,,,,,,,,,,,,,,,,,,,,,,,,,,,,,,,,,,,,,,,,,
,,6151ec9f471555755f408e15,2024-02-22_05h27.38.949,kallum_motion_pilot,2023.2.2,Win32,59.88023952,6151ec9f471555755f408e15,65d6bb0e977760de756971f7,65d6bf1a56de2f00fa72f94a,0.0466,0.0466,0,54,54,61,1,threefour,,,,,,,,,,,,,,,,,,,,,,,,,,,,,,,,,,,,,,,,,,,,,,,,,,,,,,,,,,,,,,,,,,,,,,,,,,,,,,,,,,,,,,,,,,,,,,,,,,,,,,,,,,,,,,,,,,,,,,,,,,,,,,,,,,,,,,,,,
,,6151ec9f471555755f408e15,2024-02-22_05h27.38.949,kallum_motion_pilot,2023.2.2,Win32,59.88023952,6151ec9f471555755f408e15,65d6bb0e977760de756971f7,65d6bf1a56de2f00fa72f94a,0.0468,0.0468,0,55,55,112,1,fivesix,,,,,,,,,,,,,,,,,,,,,,,,,,,,,,,,,,,,,,,,,,,,,,,,,,,,,,,,,,,,,,,,,,,,,,,,,,,,,,,,,,,,,,,,,,,,,,,,,,,,,,,,,,,,,,,,,,,,,,,,,,,,,,,,,,,,,,,,,
,,6151ec9f471555755f408e15,2024-02-22_05h27.38.949,kallum_motion_pilot,2023.2.2,Win32,59.88023952,6151ec9f471555755f408e15,65d6bb0e977760de756971f7,65d6bf1a56de2f00fa72f94a,0.0469,0.047,0,56,56,73,1,onethree,,,,,,,,,,,,,,,,,,,,,,,,,,,,,,,,,,,,,,,,,,,,,,,,,,,,,,,,,,,,,,,,,,,,,,,,,,,,,,,,,,,,,,,,,,,,,,,,,,,,,,,,,,,,,,,,,,,,,,,,,,,,,,,,,,,,,,,,,
,,6151ec9f471555755f408e15,2024-02-22_05h27.38.949,kallum_motion_pilot,2023.2.2,Win32,59.88023952,6151ec9f471555755f408e15,65d6bb0e977760de756971f7,65d6bf1a56de2f00fa72f94a,0.047,0.0471,0,57,57,160,1,fivesix,,,,,,,,,,,,,,,,,,,,,,,,,,,,,,,,,,,,,,,,,,,,,,,,,,,,,,,,,,,,,,,,,,,,,,,,,,,,,,,,,,,,,,,,,,,,,,,,,,,,,,,,,,,,,,,,,,,,,,,,,,,,,,,,,,,,,,,,,
,,6151ec9f471555755f408e15,2024-02-22_05h27.38.949,kallum_motion_pilot,2023.2.2,Win32,59.88023952,6151ec9f471555755f408e15,65d6bb0e977760de756971f7,65d6bf1a56de2f00fa72f94a,0.0472,0.0472,0,58,58,137,1,fiveseven,,,,,,,,,,,,,,,,,,,,,,,,,,,,,,,,,,,,,,,,,,,,,,,,,,,,,,,,,,,,,,,,,,,,,,,,,,,,,,,,,,,,,,,,,,,,,,,,,,,,,,,,,,,,,,,,,,,,,,,,,,,,,,,,,,,,,,,,,
,,6151ec9f471555755f408e15,2024-02-22_05h27.38.949,kallum_motion_pilot,2023.2.2,Win32,59.88023952,6151ec9f471555755f408e15,65d6bb0e977760de756971f7,65d6bf1a56de2f00fa72f94a,0.0473,0.0474,0,59,59,66,1,twoone,,,,,,,,,,,,,,,,,,,,,,,,,,,,,,,,,,,,,,,,,,,,,,,,,,,,,,,,,,,,,,,,,,,,,,,,,,,,,,,,,,,,,,,,,,,,,,,,,,,,,,,,,,,,,,,,,,,,,,,,,,,,,,,,,,,,,,,,,
,,6151ec9f471555755f408e15,2024-02-22_05h27.38.949,kallum_motion_pilot,2023.2.2,Win32,59.88023952,6151ec9f471555755f408e15,65d6bb0e977760de756971f7,65d6bf1a56de2f00fa72f94a,0.0476,0.0476,0,60,60,50,1,twoone,,,,,,,,,,,,,,,,,,,,,,,,,,,,,,,,,,,,,,,,,,,,,,,,,,,,,,,,,,,,,,,,,,,,,,,,,,,,,,,,,,,,,,,,,,,,,,,,,,,,,,,,,,,,,,,,,,,,,,,,,,,,,,,,,,,,,,,,,
,,6151ec9f471555755f408e15,2024-02-22_05h27.38.949,kallum_motion_pilot,2023.2.2,Win32,59.88023952,6151ec9f471555755f408e15,65d6bb0e977760de756971f7,65d6bf1a56de2f00fa72f94a,0.0479,0.0482,0,61,61,49,1,onethree,,,,,,,,,,,,,,,,,,,,,,,,,,,,,,,,,,,,,,,,,,,,,,,,,,,,,,,,,,,,,,,,,,,,,,,,,,,,,,,,,,,,,,,,,,,,,,,,,,,,,,,,,,,,,,,,,,,,,,,,,,,,,,,,,,,,,,,,,
,,6151ec9f471555755f408e15,2024-02-22_05h27.38.949,kallum_motion_pilot,2023.2.2,Win32,59.88023952,6151ec9f471555755f408e15,65d6bb0e977760de756971f7,65d6bf1a56de2f00fa72f94a,0.0485,0.0486,0,62,62,2,1,twoone,,,,,,,,,,,,,,,,,,,,,,,,,,,,,,,,,,,,,,,,,,,,,,,,,,,,,,,,,,,,,,,,,,,,,,,,,,,,,,,,,,,,,,,,,,,,,,,,,,,,,,,,,,,,,,,,,,,,,,,,,,,,,,,,,,,,,,,,,
,,6151ec9f471555755f408e15,2024-02-22_05h27.38.949,kallum_motion_pilot,2023.2.2,Win32,59.88023952,6151ec9f471555755f408e15,65d6bb0e977760de756971f7,65d6bf1a56de2f00fa72f94a,0.0487,0.0488,0,63,63,117,1,seveneight,,,,,,,,,,,,,,,,,,,,,,,,,,,,,,,,,,,,,,,,,,,,,,,,,,,,,,,,,,,,,,,,,,,,,,,,,,,,,,,,,,,,,,,,,,,,,,,,,,,,,,,,,,,,,,,,,,,,,,,,,,,,,,,,,,,,,,,,,
,,6151ec9f471555755f408e15,2024-02-22_05h27.38.949,kallum_motion_pilot,2023.2.2,Win32,59.88023952,6151ec9f471555755f408e15,65d6bb0e977760de756971f7,65d6bf1a56de2f00fa72f94a,0.049,0.0492,0,64,64,126,1,eightsix,,,,,,,,,,,,,,,,,,,,,,,,,,,,,,,,,,,,,,,,,,,,,,,,,,,,,,,,,,,,,,,,,,,,,,,,,,,,,,,,,,,,,,,,,,,,,,,,,,,,,,,,,,,,,,,,,,,,,,,,,,,,,,,,,,,,,,,,,
,,6151ec9f471555755f408e15,2024-02-22_05h27.38.949,kallum_motion_pilot,2023.2.2,Win32,59.88023952,6151ec9f471555755f408e15,65d6bb0e977760de756971f7,65d6bf1a56de2f00fa72f94a,0.0492,0.0493,0,65,65,98,1,sixfive,,,,,,,,,,,,,,,,,,,,,,,,,,,,,,,,,,,,,,,,,,,,,,,,,,,,,,,,,,,,,,,,,,,,,,,,,,,,,,,,,,,,,,,,,,,,,,,,,,,,,,,,,,,,,,,,,,,,,,,,,,,,,,,,,,,,,,,,,
,,6151ec9f471555755f408e15,2024-02-22_05h27.38.949,kallum_motion_pilot,2023.2.2,Win32,59.88023952,6151ec9f471555755f408e15,65d6bb0e977760de756971f7,65d6bf1a56de2f00fa72f94a,0.0494,0.0495,0,66,66,103,1,eightseven,,,,,,,,,,,,,,,,,,,,,,,,,,,,,,,,,,,,,,,,,,,,,,,,,,,,,,,,,,,,,,,,,,,,,,,,,,,,,,,,,,,,,,,,,,,,,,,,,,,,,,,,,,,,,,,,,,,,,,,,,,,,,,,,,,,,,,,,,
,,6151ec9f471555755f408e15,2024-02-22_05h27.38.949,kallum_motion_pilot,2023.2.2,Win32,59.88023952,6151ec9f471555755f408e15,65d6bb0e977760de756971f7,65d6bf1a56de2f00fa72f94a,0.0496,0.0496,0,67,67,85,1,seveneight,,,,,,,,,,,,,,,,,,,,,,,,,,,,,,,,,,,,,,,,,,,,,,,,,,,,,,,,,,,,,,,,,,,,,,,,,,,,,,,,,,,,,,,,,,,,,,,,,,,,,,,,,,,,,,,,,,,,,,,,,,,,,,,,,,,,,,,,,
,,6151ec9f471555755f408e15,2024-02-22_05h27.38.949,kallum_motion_pilot,2023.2.2,Win32,59.88023952,6151ec9f471555755f408e15,65d6bb0e977760de756971f7,65d6bf1a56de2f00fa72f94a,0.0497,0.0498,0,68,68,155,1,sixeight,,,,,,,,,,,,,,,,,,,,,,,,,,,,,,,,,,,,,,,,,,,,,,,,,,,,,,,,,,,,,,,,,,,,,,,,,,,,,,,,,,,,,,,,,,,,,,,,,,,,,,,,,,,,,,,,,,,,,,,,,,,,,,,,,,,,,,,,,
,,6151ec9f471555755f408e15,2024-02-22_05h27.38.949,kallum_motion_pilot,2023.2.2,Win32,59.88023952,6151ec9f471555755f408e15,65d6bb0e977760de756971f7,65d6bf1a56de2f00fa72f94a,0.05,0.05,0,69,69,26,1,twoone,,,,,,,,,,,,,,,,,,,,,,,,,,,,,,,,,,,,,,,,,,,,,,,,,,,,,,,,,,,,,,,,,,,,,,,,,,,,,,,,,,,,,,,,,,,,,,,,,,,,,,,,,,,,,,,,,,,,,,,,,,,,,,,,,,,,,,,,,
,,6151ec9f471555755f408e15,2024-02-22_05h27.38.949,kallum_motion_pilot,2023.2.2,Win32,59.88023952,6151ec9f471555755f408e15,65d6bb0e977760de756971f7,65d6bf1a56de2f00fa72f94a,0.0501,0.0502,0,70,70,129,1,fiveseven,,,,,,,,,,,,,,,,,,,,,,,,,,,,,,,,,,,,,,,,,,,,,,,,,,,,,,,,,,,,,,,,,,,,,,,,,,,,,,,,,,,,,,,,,,,,,,,,,,,,,,,,,,,,,,,,,,,,,,,,,,,,,,,,,,,,,,,,,
,,6151ec9f471555755f408e15,2024-02-22_05h27.38.949,kallum_motion_pilot,2023.2.2,Win32,59.88023952,6151ec9f471555755f408e15,65d6bb0e977760de756971f7,65d6bf1a56de2f00fa72f94a,0.0503,0.0503,0,71,71,146,1,sixfive,,,,,,,,,,,,,,,,,,,,,,,,,,,,,,,,,,,,,,,,,,,,,,,,,,,,,,,,,,,,,,,,,,,,,,,,,,,,,,,,,,,,,,,,,,,,,,,,,,,,,,,,,,,,,,,,,,,,,,,,,,,,,,,,,,,,,,,,,
,,6151ec9f471555755f408e15,2024-02-22_05h27.38.949,kallum_motion_pilot,2023.2.2,Win32,59.88023952,6151ec9f471555755f408e15,65d6bb0e977760de756971f7,65d6bf1a56de2f00fa72f94a,0.0505,0.0506,0,72,72,81,1,fiveseven,,,,,,,,,,,,,,,,,,,,,,,,,,,,,,,,,,,,,,,,,,,,,,,,,,,,,,,,,,,,,,,,,,,,,,,,,,,,,,,,,,,,,,,,,,,,,,,,,,,,,,,,,,,,,,,,,,,,,,,,,,,,,,,,,,,,,,,,,
,,6151ec9f471555755f408e15,2024-02-22_05h27.38.949,kallum_motion_pilot,2023.2.2,Win32,59.88023952,6151ec9f471555755f408e15,65d6bb0e977760de756971f7,65d6bf1a56de2f00fa72f94a,0.0506,0.0507,0,73,73,90,1,sixfive,,,,,,,,,,,,,,,,,,,,,,,,,,,,,,,,,,,,,,,,,,,,,,,,,,,,,,,,,,,,,,,,,,,,,,,,,,,,,,,,,,,,,,,,,,,,,,,,,,,,,,,,,,,,,,,,,,,,,,,,,,,,,,,,,,,,,,,,,
,,6151ec9f471555755f408e15,2024-02-22_05h27.38.949,kallum_motion_pilot,2023.2.2,Win32,59.88023952,6151ec9f471555755f408e15,65d6bb0e977760de756971f7,65d6bf1a56de2f00fa72f94a,0.0508,0.0509,0,74,74,4,1,threeone,,,,,,,,,,,,,,,,,,,,,,,,,,,,,,,,,,,,,,,,,,,,,,,,,,,,,,,,,,,,,,,,,,,,,,,,,,,,,,,,,,,,,,,,,,,,,,,,,,,,,,,,,,,,,,,,,,,,,,,,,,,,,,,,,,,,,,,,,
,,6151ec9f471555755f408e15,2024-02-22_05h27.38.949,kallum_motion_pilot,2023.2.2,Win32,59.88023952,6151ec9f471555755f408e15,65d6bb0e977760de756971f7,65d6bf1a56de2f00fa72f94a,0.0511,0.0511,0,75,75,68,1,threeone,,,,,,,,,,,,,,,,,,,,,,,,,,,,,,,,,,,,,,,,,,,,,,,,,,,,,,,,,,,,,,,,,,,,,,,,,,,,,,,,,,,,,,,,,,,,,,,,,,,,,,,,,,,,,,,,,,,,,,,,,,,,,,,,,,,,,,,,,
,,6151ec9f471555755f408e15,2024-02-22_05h27.38.949,kallum_motion_pilot,2023.2.2,Win32,59.88023952,6151ec9f471555755f408e15,65d6bb0e977760de756971f7,65d6bf1a56de2f00fa72f94a,0.0513,0.0513,0,76,76,12,1,threeone,,,,,,,,,,,,,,,,,,,,,,,,,,,,,,,,,,,,,,,,,,,,,,,,,,,,,,,,,,,,,,,,,,,,,,,,,,,,,,,,,,,,,,,,,,,,,,,,,,,,,,,,,,,,,,,,,,,,,,,,,,,,,,,,,,,,,,,,,
,,6151ec9f471555755f408e15,2024-02-22_05h27.38.949,kallum_motion_pilot,2023.2.2,Win32,59.88023952,6151ec9f471555755f408e15,65d6bb0e977760de756971f7,65d6bf1a56de2f00fa72f94a,0.0515,0.0515,0,77,77,57,1,onethree,,,,,,,,,,,,,,,,,,,,,,,,,,,,,,,,,,,,,,,,,,,,,,,,,,,,,,,,,,,,,,,,,,,,,,,,,,,,,,,,,,,,,,,,,,,,,,,,,,,,,,,,,,,,,,,,,,,,,,,,,,,,,,,,,,,,,,,,,
,,6151ec9f471555755f408e15,2024-02-22_05h27.38.949,kallum_motion_pilot,2023.2.2,Win32,59.88023952,6151ec9f471555755f408e15,65d6bb0e977760de756971f7,65d6bf1a56de2f00fa72f94a,0.0516,0.0517,0,78,78,92,1,sevenfive,,,,,,,,,,,,,,,,,,,,,,,,,,,,,,,,,,,,,,,,,,,,,,,,,,,,,,,,,,,,,,,,,,,,,,,,,,,,,,,,,,,,,,,,,,,,,,,,,,,,,,,,,,,,,,,,,,,,,,,,,,,,,,,,,,,,,,,,,
,,6151ec9f471555755f408e15,2024-02-22_05h27.38.949,kallum_motion_pilot,2023.2.2,Win32,59.88023952,6151ec9f471555755f408e15,65d6bb0e977760de756971f7,65d6bf1a56de2f00fa72f94a,0.0518,0.0518,0,79,79,69,1,threefour,,,,,,,,,,,,,,,,,,,,,,,,,,,,,,,,,,,,,,,,,,,,,,,,,,,,,,,,,,,,,,,,,,,,,,,,,,,,,,,,,,,,,,,,,,,,,,,,,,,,,,,,,,,,,,,,,,,,,,,,,,,,,,,,,,,,,,,,,
,,6151ec9f471555755f408e15,2024-02-22_05h27.38.949,kallum_motion_pilot,2023.2.2,Win32,59.88023952,6151ec9f471555755f408e15,65d6bb0e977760de756971f7,65d6bf1a56de2f00fa72f94a,0.0519,0.052,0,80,80,40,1,onetwo,,,,,,,,,,,,,,,,,,,,,,,,,,,,,,,,,,,,,,,,,,,,,,,,,,,,,,,,,,,,,,,,,,,,,,,,,,,,,,,,,,,,,,,,,,,,,,,,,,,,,,,,,,,,,,,,,,,,,,,,,,,,,,,,,,,,,,,,,
,,6151ec9f471555755f408e15,2024-02-22_05h27.38.949,kallum_motion_pilot,2023.2.2,Win32,59.88023952,6151ec9f471555755f408e15,65d6bb0e977760de756971f7,65d6bf1a56de2f00fa72f94a,0.0521,0.0522,0,81,81,104,1,fivesix,,,,,,,,,,,,,,,,,,,,,,,,,,,,,,,,,,,,,,,,,,,,,,,,,,,,,,,,,,,,,,,,,,,,,,,,,,,,,,,,,,,,,,,,,,,,,,,,,,,,,,,,,,,,,,,,,,,,,,,,,,,,,,,,,,,,,,,,,
,,6151ec9f471555755f408e15,2024-02-22_05h27.38.949,kallum_motion_pilot,2023.2.2,Win32,59.88023952,6151ec9f471555755f408e15,65d6bb0e977760de756971f7,65d6bf1a56de2f00fa72f94a,0.0523,0.0523,0,82,82,18,1,twoone,,,,,,,,,,,,,,,,,,,,,,,,,,,,,,,,,,,,,,,,,,,,,,,,,,,,,,,,,,,,,,,,,,,,,,,,,,,,,,,,,,,,,,,,,,,,,,,,,,,,,,,,,,,,,,,,,,,,,,,,,,,,,,,,,,,,,,,,,
,,6151ec9f471555755f408e15,2024-02-22_05h27.38.949,kallum_motion_pilot,2023.2.2,Win32,59.88023952,6151ec9f471555755f408e15,65d6bb0e977760de756971f7,65d6bf1a56de2f00fa72f94a,0.0524,0.0524,0,83,83,97,1,fiveseven,,,,,,,,,,,,,,,,,,,,,,,,,,,,,,,,,,,,,,,,,,,,,,,,,,,,,,,,,,,,,,,,,,,,,,,,,,,,,,,,,,,,,,,,,,,,,,,,,,,,,,,,,,,,,,,,,,,,,,,,,,,,,,,,,,,,,,,,,
,,6151ec9f471555755f408e15,2024-02-22_05h27.38.949,kallum_motion_pilot,2023.2.2,Win32,59.88023952,6151ec9f471555755f408e15,65d6bb0e977760de756971f7,65d6bf1a56de2f00fa72f94a,0.0526,0.0527,0,84,84,41,1,onethree,,,,,,,,,,,,,,,,,,,,,,,,,,,,,,,,,,,,,,,,,,,,,,,,,,,,,,,,,,,,,,,,,,,,,,,,,,,,,,,,,,,,,,,,,,,,,,,,,,,,,,,,,,,,,,,,,,,,,,,,,,,,,,,,,,,,,,,,,
,,6151ec9f471555755f408e15,2024-02-22_05h27.38.949,kallum_motion_pilot,2023.2.2,Win32,59.88023952,6151ec9f471555755f408e15,65d6bb0e977760de756971f7,65d6bf1a56de2f00fa72f94a,0.0528,0.0528,0,85,85,77,1,threefour,,,,,,,,,,,,,,,,,,,,,,,,,,,,,,,,,,,,,,,,,,,,,,,,,,,,,,,,,,,,,,,,,,,,,,,,,,,,,,,,,,,,,,,,,,,,,,,,,,,,,,,,,,,,,,,,,,,,,,,,,,,,,,,,,,,,,,,,,
,,6151ec9f471555755f408e15,2024-02-22_05h27.38.949,kallum_motion_pilot,2023.2.2,Win32,59.88023952,6151ec9f471555755f408e15,65d6bb0e977760de756971f7,65d6bf1a56de2f00fa72f94a,0.053,0.053,0,86,86,143,1,eightseven,,,,,,,,,,,,,,,,,,,,,,,,,,,,,,,,,,,,,,,,,,,,,,,,,,,,,,,,,,,,,,,,,,,,,,,,,,,,,,,,,,,,,,,,,,,,,,,,,,,,,,,,,,,,,,,,,,,,,,,,,,,,,,,,,,,,,,,,,
,,6151ec9f471555755f408e15,2024-02-22_05h27.38.949,kallum_motion_pilot,2023.2.2,Win32,59.88023952,6151ec9f471555755f408e15,65d6bb0e977760de756971f7,65d6bf1a56de2f00fa72f94a,0.0531,0.0532,0,87,87,8,1,onetwo,,,,,,,,,,,,,,,,,,,,,,,,,,,,,,,,,,,,,,,,,,,,,,,,,,,,,,,,,,,,,,,,,,,,,,,,,,,,,,,,,,,,,,,,,,,,,,,,,,,,,,,,,,,,,,,,,,,,,,,,,,,,,,,,,,,,,,,,,
,,6151ec9f471555755f408e15,2024-02-22_05h27.38.949,kallum_motion_pilot,2023.2.2,Win32,59.88023952,6151ec9f471555755f408e15,65d6bb0e977760de756971f7,65d6bf1a56de2f00fa72f94a,0.0533,0.0534,0,88,88,119,1,eightseven,,,,,,,,,,,,,,,,,,,,,,,,,,,,,,,,,,,,,,,,,,,,,,,,,,,,,,,,,,,,,,,,,,,,,,,,,,,,,,,,,,,,,,,,,,,,,,,,,,,,,,,,,,,,,,,,,,,,,,,,,,,,,,,,,,,,,,,,,
,,6151ec9f471555755f408e15,2024-02-22_05h27.38.949,kallum_motion_pilot,2023.2.2,Win32,59.88023952,6151ec9f471555755f408e15,65d6bb0e977760de756971f7,65d6bf1a56de2f00fa72f94a,0.0535,0.0535,0,89,89,131,1,sixeight,,,,,,,,,,,,,,,,,,,,,,,,,,,,,,,,,,,,,,,,,,,,,,,,,,,,,,,,,,,,,,,,,,,,,,,,,,,,,,,,,,,,,,,,,,,,,,,,,,,,,,,,,,,,,,,,,,,,,,,,,,,,,,,,,,,,,,,,,
,,6151ec9f471555755f408e15,2024-02-22_05h27.38.949,kallum_motion_pilot,2023.2.2,Win32,59.88023952,6151ec9f471555755f408e15,65d6bb0e977760de756971f7,65d6bf1a56de2f00fa72f94a,0.0537,0.0537,0,90,90,62,1,fourtwo,,,,,,,,,,,,,,,,,,,,,,,,,,,,,,,,,,,,,,,,,,,,,,,,,,,,,,,,,,,,,,,,,,,,,,,,,,,,,,,,,,,,,,,,,,,,,,,,,,,,,,,,,,,,,,,,,,,,,,,,,,,,,,,,,,,,,,,,,
,,6151ec9f471555755f408e15,2024-02-22_05h27.38.949,kallum_motion_pilot,2023.2.2,Win32,59.88023952,6151ec9f471555755f408e15,65d6bb0e977760de756971f7,65d6bf1a56de2f00fa72f94a,0.0538,0.0539,0,91,91,161,1,fiveseven,,,,,,,,,,,,,,,,,,,,,,,,,,,,,,,,,,,,,,,,,,,,,,,,,,,,,,,,,,,,,,,,,,,,,,,,,,,,,,,,,,,,,,,,,,,,,,,,,,,,,,,,,,,,,,,,,,,,,,,,,,,,,,,,,,,,,,,,,
,,6151ec9f471555755f408e15,2024-02-22_05h27.38.949,kallum_motion_pilot,2023.2.2,Win32,59.88023952,6151ec9f471555755f408e15,65d6bb0e977760de756971f7,65d6bf1a56de2f00fa72f94a,0.054,0.054,0,92,92,159,1,eightseven,,,,,,,,,,,,,,,,,,,,,,,,,,,,,,,,,,,,,,,,,,,,,,,,,,,,,,,,,,,,,,,,,,,,,,,,,,,,,,,,,,,,,,,,,,,,,,,,,,,,,,,,,,,,,,,,,,,,,,,,,,,,,,,,,,,,,,,,,
,,6151ec9f471555755f408e15,2024-02-22_05h27.38.949,kallum_motion_pilot,2023.2.2,Win32,59.88023952,6151ec9f471555755f408e15,65d6bb0e977760de756971f7,65d6bf1a56de2f00fa72f94a,0.0541,0.0542,0,93,93,21,1,threefour,,,,,,,,,,,,,,,,,,,,,,,,,,,,,,,,,,,,,,,,,,,,,,,,,,,,,,,,,,,,,,,,,,,,,,,,,,,,,,,,,,,,,,,,,,,,,,,,,,,,,,,,,,,,,,,,,,,,,,,,,,,,,,,,,,,,,,,,,
,,6151ec9f471555755f408e15,2024-02-22_05h27.38.949,kallum_motion_pilot,2023.2.2,Win32,59.88023952,6151ec9f471555755f408e15,65d6bb0e977760de756971f7,65d6bf1a56de2f00fa72f94a,0.0543,0.0544,0,94,94,130,1,sixfive,,,,,,,,,,,,,,,,,,,,,,,,,,,,,,,,,,,,,,,,,,,,,,,,,,,,,,,,,,,,,,,,,,,,,,,,,,,,,,,,,,,,,,,,,,,,,,,,,,,,,,,,,,,,,,,,,,,,,,,,,,,,,,,,,,,,,,,,,
,,6151ec9f471555755f408e15,2024-02-22_05h27.38.949,kallum_motion_pilot,2023.2.2,Win32,59.88023952,6151ec9f471555755f408e15,65d6bb0e977760de756971f7,65d6bf1a56de2f00fa72f94a,0.0545,0.0546,0,95,95,144,1,fivesix,,,,,,,,,,,,,,,,,,,,,,,,,,,,,,,,,,,,,,,,,,,,,,,,,,,,,,,,,,,,,,,,,,,,,,,,,,,,,,,,,,,,,,,,,,,,,,,,,,,,,,,,,,,,,,,,,,,,,,,,,,,,,,,,,,,,,,,,,
,,6151ec9f471555755f408e15,2024-02-22_05h27.38.949,kallum_motion_pilot,2023.2.2,Win32,59.88023952,6151ec9f471555755f408e15,65d6bb0e977760de756971f7,65d6bf1a56de2f00fa72f94a,0.0547,0.0547,0,96,96,99,1,sixeight,,,,,,,,,,,,,,,,,,,,,,,,,,,,,,,,,,,,,,,,,,,,,,,,,,,,,,,,,,,,,,,,,,,,,,,,,,,,,,,,,,,,,,,,,,,,,,,,,,,,,,,,,,,,,,,,,,,,,,,,,,,,,,,,,,,,,,,,,
,,6151ec9f471555755f408e15,2024-02-22_05h27.38.949,kallum_motion_pilot,2023.2.2,Win32,59.88023952,6151ec9f471555755f408e15,65d6bb0e977760de756971f7,65d6bf1a56de2f00fa72f94a,0.0548,0.0549,0,97,97,19,1,twofour,,,,,,,,,,,,,,,,,,,,,,,,,,,,,,,,,,,,,,,,,,,,,,,,,,,,,,,,,,,,,,,,,,,,,,,,,,,,,,,,,,,,,,,,,,,,,,,,,,,,,,,,,,,,,,,,,,,,,,,,,,,,,,,,,,,,,,,,,
,,6151ec9f471555755f408e15,2024-02-22_05h27.38.949,kallum_motion_pilot,2023.2.2,Win32,59.88023952,6151ec9f471555755f408e15,65d6bb0e977760de756971f7,65d6bf1a56de2f00fa72f94a,0.055,0.0551,0,98,98,31,1,fourthree,,,,,,,,,,,,,,,,,,,,,,,,,,,,,,,,,,,,,,,,,,,,,,,,,,,,,,,,,,,,,,,,,,,,,,,,,,,,,,,,,,,,,,,,,,,,,,,,,,,,,,,,,,,,,,,,,,,,,,,,,,,,,,,,,,,,,,,,,
,,6151ec9f471555755f408e15,2024-02-22_05h27.38.949,kallum_motion_pilot,2023.2.2,Win32,59.88023952,6151ec9f471555755f408e15,65d6bb0e977760de756971f7,65d6bf1a56de2f00fa72f94a,0.0552,0.0552,0,99,99,121,1,fiveseven,,,,,,,,,,,,,,,,,,,,,,,,,,,,,,,,,,,,,,,,,,,,,,,,,,,,,,,,,,,,,,,,,,,,,,,,,,,,,,,,,,,,,,,,,,,,,,,,,,,,,,,,,,,,,,,,,,,,,,,,,,,,,,,,,,,,,,,,,
,,6151ec9f471555755f408e15,2024-02-22_05h27.38.949,kallum_motion_pilot,2023.2.2,Win32,59.88023952,6151ec9f471555755f408e15,65d6bb0e977760de756971f7,65d6bf1a56de2f00fa72f94a,0.0553,0.0554,0,100,100,55,1,fourthree,,,,,,,,,,,,,,,,,,,,,,,,,,,,,,,,,,,,,,,,,,,,,,,,,,,,,,,,,,,,,,,,,,,,,,,,,,,,,,,,,,,,,,,,,,,,,,,,,,,,,,,,,,,,,,,,,,,,,,,,,,,,,,,,,,,,,,,,,
,,6151ec9f471555755f408e15,2024-02-22_05h27.38.949,kallum_motion_pilot,2023.2.2,Win32,59.88023952,6151ec9f471555755f408e15,65d6bb0e977760de756971f7,65d6bf1a56de2f00fa72f94a,0.0556,0.0556,0,101,101,37,1,threefour,,,,,,,,,,,,,,,,,,,,,,,,,,,,,,,,,,,,,,,,,,,,,,,,,,,,,,,,,,,,,,,,,,,,,,,,,,,,,,,,,,,,,,,,,,,,,,,,,,,,,,,,,,,,,,,,,,,,,,,,,,,,,,,,,,,,,,,,,
,,6151ec9f471555755f408e15,2024-02-22_05h27.38.949,kallum_motion_pilot,2023.2.2,Win32,59.88023952,6151ec9f471555755f408e15,65d6bb0e977760de756971f7,65d6bf1a56de2f00fa72f94a,0.0557,0.0558,0,102,102,23,1,fourthree,,,,,,,,,,,,,,,,,,,,,,,,,,,,,,,,,,,,,,,,,,,,,,,,,,,,,,,,,,,,,,,,,,,,,,,,,,,,,,,,,,,,,,,,,,,,,,,,,,,,,,,,,,,,,,,,,,,,,,,,,,,,,,,,,,,,,,,,,
,,6151ec9f471555755f408e15,2024-02-22_05h27.38.949,kallum_motion_pilot,2023.2.2,Win32,59.88023952,6151ec9f471555755f408e15,65d6bb0e977760de756971f7,65d6bf1a56de2f00fa72f94a,0.0558,0.056,0,103,103,56,1,onetwo,,,,,,,,,,,,,,,,,,,,,,,,,,,,,,,,,,,,,,,,,,,,,,,,,,,,,,,,,,,,,,,,,,,,,,,,,,,,,,,,,,,,,,,,,,,,,,,,,,,,,,,,,,,,,,,,,,,,,,,,,,,,,,,,,,,,,,,,,
,,6151ec9f471555755f408e15,2024-02-22_05h27.38.949,kallum_motion_pilot,2023.2.2,Win32,59.88023952,6151ec9f471555755f408e15,65d6bb0e977760de756971f7,65d6bf1a56de2f00fa72f94a,0.056,0.0561,0,104,104,106,1,sixfive,,,,,,,,,,,,,,,,,,,,,,,,,,,,,,,,,,,,,,,,,,,,,,,,,,,,,,,,,,,,,,,,,,,,,,,,,,,,,,,,,,,,,,,,,,,,,,,,,,,,,,,,,,,,,,,,,,,,,,,,,,,,,,,,,,,,,,,,,
,,6151ec9f471555755f408e15,2024-02-22_05h27.38.949,kallum_motion_pilot,2023.2.2,Win32,59.88023952,6151ec9f471555755f408e15,65d6bb0e977760de756971f7,65d6bf1a56de2f00fa72f94a,0.0574,0.0576,0,105,105,16,1,onetwo,,,,,,,,,,,,,,,,,,,,,,,,,,,,,,,,,,,,,,,,,,,,,,,,,,,,,,,,,,,,,,,,,,,,,,,,,,,,,,,,,,,,,,,,,,,,,,,,,,,,,,,,,,,,,,,,,,,,,,,,,,,,,,,,,,,,,,,,,
,,6151ec9f471555755f408e15,2024-02-22_05h27.38.949,kallum_motion_pilot,2023.2.2,Win32,59.88023952,6151ec9f471555755f408e15,65d6bb0e977760de756971f7,65d6bf1a56de2f00fa72f94a,0.0576,0.0578,0,106,106,9,1,onethree,,,,,,,,,,,,,,,,,,,,,,,,,,,,,,,,,,,,,,,,,,,,,,,,,,,,,,,,,,,,,,,,,,,,,,,,,,,,,,,,,,,,,,,,,,,,,,,,,,,,,,,,,,,,,,,,,,,,,,,,,,,,,,,,,,,,,,,,,
,,6151ec9f471555755f408e15,2024-02-22_05h27.38.949,kallum_motion_pilot,2023.2.2,Win32,59.88023952,6151ec9f471555755f408e15,65d6bb0e977760de756971f7,65d6bf1a56de2f00fa72f94a,0.0579,0.0579,0,107,107,44,1,threeone,,,,,,,,,,,,,,,,,,,,,,,,,,,,,,,,,,,,,,,,,,,,,,,,,,,,,,,,,,,,,,,,,,,,,,,,,,,,,,,,,,,,,,,,,,,,,,,,,,,,,,,,,,,,,,,,,,,,,,,,,,,,,,,,,,,,,,,,,
,,6151ec9f471555755f408e15,2024-02-22_05h27.38.949,kallum_motion_pilot,2023.2.2,Win32,59.88023952,6151ec9f471555755f408e15,65d6bb0e977760de756971f7,65d6bf1a56de2f00fa72f94a,0.058,0.0581,0,108,108,15,1,fourthree,,,,,,,,,,,,,,,,,,,,,,,,,,,,,,,,,,,,,,,,,,,,,,,,,,,,,,,,,,,,,,,,,,,,,,,,,,,,,,,,,,,,,,,,,,,,,,,,,,,,,,,,,,,,,,,,,,,,,,,,,,,,,,,,,,,,,,,,,
,,6151ec9f471555755f408e15,2024-02-22_05h27.38.949,kallum_motion_pilot,2023.2.2,Win32,59.88023952,6151ec9f471555755f408e15,65d6bb0e977760de756971f7,65d6bf1a56de2f00fa72f94a,0.0582,0.0583,0,109,109,107,1,sixeight,,,,,,,,,,,,,,,,,,,,,,,,,,,,,,,,,,,,,,,,,,,,,,,,,,,,,,,,,,,,,,,,,,,,,,,,,,,,,,,,,,,,,,,,,,,,,,,,,,,,,,,,,,,,,,,,,,,,,,,,,,,,,,,,,,,,,,,,,
,,6151ec9f471555755f408e15,2024-02-22_05h27.38.949,kallum_motion_pilot,2023.2.2,Win32,59.88023952,6151ec9f471555755f408e15,65d6bb0e977760de756971f7,65d6bf1a56de2f00fa72f94a,0.0584,0.0584,0,110,110,43,1,twofour,,,,,,,,,,,,,,,,,,,,,,,,,,,,,,,,,,,,,,,,,,,,,,,,,,,,,,,,,,,,,,,,,,,,,,,,,,,,,,,,,,,,,,,,,,,,,,,,,,,,,,,,,,,,,,,,,,,,,,,,,,,,,,,,,,,,,,,,,
,,6151ec9f471555755f408e15,2024-02-22_05h27.38.949,kallum_motion_pilot,2023.2.2,Win32,59.88023952,6151ec9f471555755f408e15,65d6bb0e977760de756971f7,65d6bf1a56de2f00fa72f94a,0.0586,0.0586,0,111,111,132,1,sevenfive,,,,,,,,,,,,,,,,,,,,,,,,,,,,,,,,,,,,,,,,,,,,,,,,,,,,,,,,,,,,,,,,,,,,,,,,,,,,,,,,,,,,,,,,,,,,,,,,,,,,,,,,,,,,,,,,,,,,,,,,,,,,,,,,,,,,,,,,,
,,6151ec9f471555755f408e15,2024-02-22_05h27.38.949,kallum_motion_pilot,2023.2.2,Win32,59.88023952,6151ec9f471555755f408e15,65d6bb0e977760de756971f7,65d6bf1a56de2f00fa72f94a,0.0588,0.0588,0,112,112,127,1,eightseven,,,,,,,,,,,,,,,,,,,,,,,,,,,,,,,,,,,,,,,,,,,,,,,,,,,,,,,,,,,,,,,,,,,,,,,,,,,,,,,,,,,,,,,,,,,,,,,,,,,,,,,,,,,,,,,,,,,,,,,,,,,,,,,,,,,,,,,,,
,,6151ec9f471555755f408e15,2024-02-22_05h27.38.949,kallum_motion_pilot,2023.2.2,Win32,59.88023952,6151ec9f471555755f408e15,65d6bb0e977760de756971f7,65d6bf1a56de2f00fa72f94a,0.0589,0.059,0,113,113,116,1,sevenfive,,,,,,,,,,,,,,,,,,,,,,,,,,,,,,,,,,,,,,,,,,,,,,,,,,,,,,,,,,,,,,,,,,,,,,,,,,,,,,,,,,,,,,,,,,,,,,,,,,,,,,,,,,,,,,,,,,,,,,,,,,,,,,,,,,,,,,,,,
,,6151ec9f471555755f408e15,2024-02-22_05h27.38.949,kallum_motion_pilot,2023.2.2,Win32,59.88023952,6151ec9f471555755f408e15,65d6bb0e977760de756971f7,65d6bf1a56de2f00fa72f94a,0.0591,0.0592,0,114,114,48,1,onetwo,,,,,,,,,,,,,,,,,,,,,,,,,,,,,,,,,,,,,,,,,,,,,,,,,,,,,,,,,,,,,,,,,,,,,,,,,,,,,,,,,,,,,,,,,,,,,,,,,,,,,,,,,,,,,,,,,,,,,,,,,,,,,,,,,,,,,,,,,
,,6151ec9f471555755f408e15,2024-02-22_05h27.38.949,kallum_motion_pilot,2023.2.2,Win32,59.88023952,6151ec9f471555755f408e15,65d6bb0e977760de756971f7,65d6bf1a56de2f00fa72f94a,0.0593,0.0594,0,115,115,79,1,eightseven,,,,,,,,,,,,,,,,,,,,,,,,,,,,,,,,,,,,,,,,,,,,,,,,,,,,,,,,,,,,,,,,,,,,,,,,,,,,,,,,,,,,,,,,,,,,,,,,,,,,,,,,,,,,,,,,,,,,,,,,,,,,,,,,,,,,,,,,,
,,6151ec9f471555755f408e15,2024-02-22_05h27.38.949,kallum_motion_pilot,2023.2.2,Win32,59.88023952,6151ec9f471555755f408e15,65d6bb0e977760de756971f7,65d6bf1a56de2f00fa72f94a,0.0594,0.0595,0,116,116,141,1,seveneight,,,,,,,,,,,,,,,,,,,,,,,,,,,,,,,,,,,,,,,,,,,,,,,,,,,,,,,,,,,,,,,,,,,,,,,,,,,,,,,,,,,,,,,,,,,,,,,,,,,,,,,,,,,,,,,,,,,,,,,,,,,,,,,,,,,,,,,,,
,,6151ec9f471555755f408e15,2024-02-22_05h27.38.949,kallum_motion_pilot,2023.2.2,Win32,59.88023952,6151ec9f471555755f408e15,65d6bb0e977760de756971f7,65d6bf1a56de2f00fa72f94a,0.0596,0.0597,0,117,117,133,1,seveneight,,,,,,,,,,,,,,,,,,,,,,,,,,,,,,,,,,,,,,,,,,,,,,,,,,,,,,,,,,,,,,,,,,,,,,,,,,,,,,,,,,,,,,,,,,,,,,,,,,,,,,,,,,,,,,,,,,,,,,,,,,,,,,,,,,,,,,,,,
,,6151ec9f471555755f408e15,2024-02-22_05h27.38.949,kallum_motion_pilot,2023.2.2,Win32,59.88023952,6151ec9f471555755f408e15,65d6bb0e977760de756971f7,65d6bf1a56de2f00fa72f94a,0.0598,0.0599,0,118,118,52,1,threeone,,,,,,,,,,,,,,,,,,,,,,,,,,,,,,,,,,,,,,,,,,,,,,,,,,,,,,,,,,,,,,,,,,,,,,,,,,,,,,,,,,,,,,,,,,,,,,,,,,,,,,,,,,,,,,,,,,,,,,,,,,,,,,,,,,,,,,,,,
,,6151ec9f471555755f408e15,2024-02-22_05h27.38.949,kallum_motion_pilot,2023.2.2,Win32,59.88023952,6151ec9f471555755f408e15,65d6bb0e977760de756971f7,65d6bf1a56de2f00fa72f94a,0.06,0.06,0,119,119,102,1,eightsix,,,,,,,,,,,,,,,,,,,,,,,,,,,,,,,,,,,,,,,,,,,,,,,,,,,,,,,,,,,,,,,,,,,,,,,,,,,,,,,,,,,,,,,,,,,,,,,,,,,,,,,,,,,,,,,,,,,,,,,,,,,,,,,,,,,,,,,,,
,,6151ec9f471555755f408e15,2024-02-22_05h27.38.949,kallum_motion_pilot,2023.2.2,Win32,59.88023952,6151ec9f471555755f408e15,65d6bb0e977760de756971f7,65d6bf1a56de2f00fa72f94a,0.0602,0.0603,0,120,120,101,1,seveneight,,,,,,,,,,,,,,,,,,,,,,,,,,,,,,,,,,,,,,,,,,,,,,,,,,,,,,,,,,,,,,,,,,,,,,,,,,,,,,,,,,,,,,,,,,,,,,,,,,,,,,,,,,,,,,,,,,,,,,,,,,,,,,,,,,,,,,,,,
,,6151ec9f471555755f408e15,2024-02-22_05h27.38.949,kallum_motion_pilot,2023.2.2,Win32,59.88023952,6151ec9f471555755f408e15,65d6bb0e977760de756971f7,65d6bf1a56de2f00fa72f94a,0.0603,0.0604,0,121,121,88,1,fivesix,,,,,,,,,,,,,,,,,,,,,,,,,,,,,,,,,,,,,,,,,,,,,,,,,,,,,,,,,,,,,,,,,,,,,,,,,,,,,,,,,,,,,,,,,,,,,,,,,,,,,,,,,,,,,,,,,,,,,,,,,,,,,,,,,,,,,,,,,
,,6151ec9f471555755f408e15,2024-02-22_05h27.38.949,kallum_motion_pilot,2023.2.2,Win32,59.88023952,6151ec9f471555755f408e15,65d6bb0e977760de756971f7,65d6bf1a56de2f00fa72f94a,0.0605,0.0606,0,122,122,111,1,eightseven,,,,,,,,,,,,,,,,,,,,,,,,,,,,,,,,,,,,,,,,,,,,,,,,,,,,,,,,,,,,,,,,,,,,,,,,,,,,,,,,,,,,,,,,,,,,,,,,,,,,,,,,,,,,,,,,,,,,,,,,,,,,,,,,,,,,,,,,,
,,6151ec9f471555755f408e15,2024-02-22_05h27.38.949,kallum_motion_pilot,2023.2.2,Win32,59.88023952,6151ec9f471555755f408e15,65d6bb0e977760de756971f7,65d6bf1a56de2f00fa72f94a,0.0607,0.0608,0,123,123,6,1,fourtwo,,,,,,,,,,,,,,,,,,,,,,,,,,,,,,,,,,,,,,,,,,,,,,,,,,,,,,,,,,,,,,,,,,,,,,,,,,,,,,,,,,,,,,,,,,,,,,,,,,,,,,,,,,,,,,,,,,,,,,,,,,,,,,,,,,,,,,,,,
,,6151ec9f471555755f408e15,2024-02-22_05h27.38.949,kallum_motion_pilot,2023.2.2,Win32,59.88023952,6151ec9f471555755f408e15,65d6bb0e977760de756971f7,65d6bf1a56de2f00fa72f94a,0.061,0.061,0,124,124,0,1,onetwo,,,,,,,,,,,,,,,,,,,,,,,,,,,,,,,,,,,,,,,,,,,,,,,,,,,,,,,,,,,,,,,,,,,,,,,,,,,,,,,,,,,,,,,,,,,,,,,,,,,,,,,,,,,,,,,,,,,,,,,,,,,,,,,,,,,,,,,,,
,,6151ec9f471555755f408e15,2024-02-22_05h27.38.949,kallum_motion_pilot,2023.2.2,Win32,59.88023952,6151ec9f471555755f408e15,65d6bb0e977760de756971f7,65d6bf1a56de2f00fa72f94a,0.0612,0.0613,0,125,125,76,1,threeone,,,,,,,,,,,,,,,,,,,,,,,,,,,,,,,,,,,,,,,,,,,,,,,,,,,,,,,,,,,,,,,,,,,,,,,,,,,,,,,,,,,,,,,,,,,,,,,,,,,,,,,,,,,,,,,,,,,,,,,,,,,,,,,,,,,,,,,,,
,,6151ec9f471555755f408e15,2024-02-22_05h27.38.949,kallum_motion_pilot,2023.2.2,Win32,59.88023952,6151ec9f471555755f408e15,65d6bb0e977760de756971f7,65d6bf1a56de2f00fa72f94a,0.0614,0.0615,0,126,126,80,1,fivesix,,,,,,,,,,,,,,,,,,,,,,,,,,,,,,,,,,,,,,,,,,,,,,,,,,,,,,,,,,,,,,,,,,,,,,,,,,,,,,,,,,,,,,,,,,,,,,,,,,,,,,,,,,,,,,,,,,,,,,,,,,,,,,,,,,,,,,,,,
,,6151ec9f471555755f408e15,2024-02-22_05h27.38.949,kallum_motion_pilot,2023.2.2,Win32,59.88023952,6151ec9f471555755f408e15,65d6bb0e977760de756971f7,65d6bf1a56de2f00fa72f94a,0.0617,0.0617,0,127,127,109,1,seveneight,,,,,,,,,,,,,,,,,,,,,,,,,,,,,,,,,,,,,,,,,,,,,,,,,,,,,,,,,,,,,,,,,,,,,,,,,,,,,,,,,,,,,,,,,,,,,,,,,,,,,,,,,,,,,,,,,,,,,,,,,,,,,,,,,,,,,,,,,
,,6151ec9f471555755f408e15,2024-02-22_05h27.38.949,kallum_motion_pilot,2023.2.2,Win32,59.88023952,6151ec9f471555755f408e15,65d6bb0e977760de756971f7,65d6bf1a56de2f00fa72f94a,0.0618,0.0619,0,128,128,24,1,onetwo,,,,,,,,,,,,,,,,,,,,,,,,,,,,,,,,,,,,,,,,,,,,,,,,,,,,,,,,,,,,,,,,,,,,,,,,,,,,,,,,,,,,,,,,,,,,,,,,,,,,,,,,,,,,,,,,,,,,,,,,,,,,,,,,,,,,,,,,,
,,6151ec9f471555755f408e15,2024-02-22_05h27.38.949,kallum_motion_pilot,2023.2.2,Win32,59.88023952,6151ec9f471555755f408e15,65d6bb0e977760de756971f7,65d6bf1a56de2f00fa72f94a,0.062,0.0621,0,129,129,1,1,onethree,,,,,,,,,,,,,,,,,,,,,,,,,,,,,,,,,,,,,,,,,,,,,,,,,,,,,,,,,,,,,,,,,,,,,,,,,,,,,,,,,,,,,,,,,,,,,,,,,,,,,,,,,,,,,,,,,,,,,,,,,,,,,,,,,,,,,,,,,
,,6151ec9f471555755f408e15,2024-02-22_05h27.38.949,kallum_motion_pilot,2023.2.2,Win32,59.88023952,6151ec9f471555755f408e15,65d6bb0e977760de756971f7,65d6bf1a56de2f00fa72f94a,0.0622,0.0622,0,130,130,154,1,sixfive,,,,,,,,,,,,,,,,,,,,,,,,,,,,,,,,,,,,,,,,,,,,,,,,,,,,,,,,,,,,,,,,,,,,,,,,,,,,,,,,,,,,,,,,,,,,,,,,,,,,,,,,,,,,,,,,,,,,,,,,,,,,,,,,,,,,,,,,,
,,6151ec9f471555755f408e15,2024-02-22_05h27.38.949,kallum_motion_pilot,2023.2.2,Win32,59.88023952,6151ec9f471555755f408e15,65d6bb0e977760de756971f7,65d6bf1a56de2f00fa72f94a,0.0624,0.0624,0,131,131,100,1,sevenfive,,,,,,,,,,,,,,,,,,,,,,,,,,,,,,,,,,,,,,,,,,,,,,,,,,,,,,,,,,,,,,,,,,,,,,,,,,,,,,,,,,,,,,,,,,,,,,,,,,,,,,,,,,,,,,,,,,,,,,,,,,,,,,,,,,,,,,,,,
,,6151ec9f471555755f408e15,2024-02-22_05h27.38.949,kallum_motion_pilot,2023.2.2,Win32,59.88023952,6151ec9f471555755f408e15,65d6bb0e977760de756971f7,65d6bf1a56de2f00fa72f94a,0.0625,0.0626,0,132,132,78,1,fourtwo,,,,,,,,,,,,,,,,,,,,,,,,,,,,,,,,,,,,,,,,,,,,,,,,,,,,,,,,,,,,,,,,,,,,,,,,,,,,,,,,,,,,,,,,,,,,,,,,,,,,,,,,,,,,,,,,,,,,,,,,,,,,,,,,,,,,,,,,,
,,6151ec9f471555755f408e15,2024-02-22_05h27.38.949,kallum_motion_pilot,2023.2.2,Win32,59.88023952,6151ec9f471555755f408e15,65d6bb0e977760de756971f7,65d6bf1a56de2f00fa72f94a,0.0628,0.0628,0,133,133,39,1,fourthree,,,,,,,,,,,,,,,,,,,,,,,,,,,,,,,,,,,,,,,,,,,,,,,,,,,,,,,,,,,,,,,,,,,,,,,,,,,,,,,,,,,,,,,,,,,,,,,,,,,,,,,,,,,,,,,,,,,,,,,,,,,,,,,,,,,,,,,,,
,,6151ec9f471555755f408e15,2024-02-22_05h27.38.949,kallum_motion_pilot,2023.2.2,Win32,59.88023952,6151ec9f471555755f408e15,65d6bb0e977760de756971f7,65d6bf1a56de2f00fa72f94a,0.0629,0.063,0,134,134,91,1,sixeight,,,,,,,,,,,,,,,,,,,,,,,,,,,,,,,,,,,,,,,,,,,,,,,,,,,,,,,,,,,,,,,,,,,,,,,,,,,,,,,,,,,,,,,,,,,,,,,,,,,,,,,,,,,,,,,,,,,,,,,,,,,,,,,,,,,,,,,,,
,,6151ec9f471555755f408e15,2024-02-22_05h27.38.949,kallum_motion_pilot,2023.2.2,Win32,59.88023952,6151ec9f471555755f408e15,65d6bb0e977760de756971f7,65d6bf1a56de2f00fa72f94a,0.0631,0.0632,0,135,135,71,1,fourthree,,,,,,,,,,,,,,,,,,,,,,,,,,,,,,,,,,,,,,,,,,,,,,,,,,,,,,,,,,,,,,,,,,,,,,,,,,,,,,,,,,,,,,,,,,,,,,,,,,,,,,,,,,,,,,,,,,,,,,,,,,,,,,,,,,,,,,,,,
,,6151ec9f471555755f408e15,2024-02-22_05h27.38.949,kallum_motion_pilot,2023.2.2,Win32,59.88023952,6151ec9f471555755f408e15,65d6bb0e977760de756971f7,65d6bf1a56de2f00fa72f94a,0.0633,0.0633,0,136,136,7,1,fourthree,,,,,,,,,,,,,,,,,,,,,,,,,,,,,,,,,,,,,,,,,,,,,,,,,,,,,,,,,,,,,,,,,,,,,,,,,,,,,,,,,,,,,,,,,,,,,,,,,,,,,,,,,,,,,,,,,,,,,,,,,,,,,,,,,,,,,,,,,
,,6151ec9f471555755f408e15,2024-02-22_05h27.38.949,kallum_motion_pilot,2023.2.2,Win32,59.88023952,6151ec9f471555755f408e15,65d6bb0e977760de756971f7,65d6bf1a56de2f00fa72f94a,0.0634,0.0636,0,137,137,17,1,onethree,,,,,,,,,,,,,,,,,,,,,,,,,,,,,,,,,,,,,,,,,,,,,,,,,,,,,,,,,,,,,,,,,,,,,,,,,,,,,,,,,,,,,,,,,,,,,,,,,,,,,,,,,,,,,,,,,,,,,,,,,,,,,,,,,,,,,,,,,
,,6151ec9f471555755f408e15,2024-02-22_05h27.38.949,kallum_motion_pilot,2023.2.2,Win32,59.88023952,6151ec9f471555755f408e15,65d6bb0e977760de756971f7,65d6bf1a56de2f00fa72f94a,0.0636,0.0637,0,138,138,38,1,fourtwo,,,,,,,,,,,,,,,,,,,,,,,,,,,,,,,,,,,,,,,,,,,,,,,,,,,,,,,,,,,,,,,,,,,,,,,,,,,,,,,,,,,,,,,,,,,,,,,,,,,,,,,,,,,,,,,,,,,,,,,,,,,,,,,,,,,,,,,,,
,,6151ec9f471555755f408e15,2024-02-22_05h27.38.949,kallum_motion_pilot,2023.2.2,Win32,59.88023952,6151ec9f471555755f408e15,65d6bb0e977760de756971f7,65d6bf1a56de2f00fa72f94a,0.0638,0.0639,0,139,139,153,1,fiveseven,,,,,,,,,,,,,,,,,,,,,,,,,,,,,,,,,,,,,,,,,,,,,,,,,,,,,,,,,,,,,,,,,,,,,,,,,,,,,,,,,,,,,,,,,,,,,,,,,,,,,,,,,,,,,,,,,,,,,,,,,,,,,,,,,,,,,,,,,
,,6151ec9f471555755f408e15,2024-02-22_05h27.38.949,kallum_motion_pilot,2023.2.2,Win32,59.88023952,6151ec9f471555755f408e15,65d6bb0e977760de756971f7,65d6bf1a56de2f00fa72f94a,0.0639,0.064,0,140,140,156,1,sevenfive,,,,,,,,,,,,,,,,,,,,,,,,,,,,,,,,,,,,,,,,,,,,,,,,,,,,,,,,,,,,,,,,,,,,,,,,,,,,,,,,,,,,,,,,,,,,,,,,,,,,,,,,,,,,,,,,,,,,,,,,,,,,,,,,,,,,,,,,,
,,6151ec9f471555755f408e15,2024-02-22_05h27.38.949,kallum_motion_pilot,2023.2.2,Win32,59.88023952,6151ec9f471555755f408e15,65d6bb0e977760de756971f7,65d6bf1a56de2f00fa72f94a,0.0642,0.0643,0,141,141,113,1,fiveseven,,,,,,,,,,,,,,,,,,,,,,,,,,,,,,,,,,,,,,,,,,,,,,,,,,,,,,,,,,,,,,,,,,,,,,,,,,,,,,,,,,,,,,,,,,,,,,,,,,,,,,,,,,,,,,,,,,,,,,,,,,,,,,,,,,,,,,,,,
,,6151ec9f471555755f408e15,2024-02-22_05h27.38.949,kallum_motion_pilot,2023.2.2,Win32,59.88023952,6151ec9f471555755f408e15,65d6bb0e977760de756971f7,65d6bf1a56de2f00fa72f94a,0.0644,0.0645,0,142,142,115,1,sixeight,,,,,,,,,,,,,,,,,,,,,,,,,,,,,,,,,,,,,,,,,,,,,,,,,,,,,,,,,,,,,,,,,,,,,,,,,,,,,,,,,,,,,,,,,,,,,,,,,,,,,,,,,,,,,,,,,,,,,,,,,,,,,,,,,,,,,,,,,
,,6151ec9f471555755f408e15,2024-02-22_05h27.38.949,kallum_motion_pilot,2023.2.2,Win32,59.88023952,6151ec9f471555755f408e15,65d6bb0e977760de756971f7,65d6bf1a56de2f00fa72f94a,0.0646,0.0648,0,143,143,114,1,sixfive,,,,,,,,,,,,,,,,,,,,,,,,,,,,,,,,,,,,,,,,,,,,,,,,,,,,,,,,,,,,,,,,,,,,,,,,,,,,,,,,,,,,,,,,,,,,,,,,,,,,,,,,,,,,,,,,,,,,,,,,,,,,,,,,,,,,,,,,,
,,6151ec9f471555755f408e15,2024-02-22_05h27.38.949,kallum_motion_pilot,2023.2.2,Win32,59.88023952,6151ec9f471555755f408e15,65d6bb0e977760de756971f7,65d6bf1a56de2f00fa72f94a,0.0652,0.0653,0,144,144,46,1,fourtwo,,,,,,,,,,,,,,,,,,,,,,,,,,,,,,,,,,,,,,,,,,,,,,,,,,,,,,,,,,,,,,,,,,,,,,,,,,,,,,,,,,,,,,,,,,,,,,,,,,,,,,,,,,,,,,,,,,,,,,,,,,,,,,,,,,,,,,,,,
,,6151ec9f471555755f408e15,2024-02-22_05h27.38.949,kallum_motion_pilot,2023.2.2,Win32,59.88023952,6151ec9f471555755f408e15,65d6bb0e977760de756971f7,65d6bf1a56de2f00fa72f94a,0.0655,0.0656,0,145,145,135,1,eightseven,,,,,,,,,,,,,,,,,,,,,,,,,,,,,,,,,,,,,,,,,,,,,,,,,,,,,,,,,,,,,,,,,,,,,,,,,,,,,,,,,,,,,,,,,,,,,,,,,,,,,,,,,,,,,,,,,,,,,,,,,,,,,,,,,,,,,,,,,
,,6151ec9f471555755f408e15,2024-02-22_05h27.38.949,kallum_motion_pilot,2023.2.2,Win32,59.88023952,6151ec9f471555755f408e15,65d6bb0e977760de756971f7,65d6bf1a56de2f00fa72f94a,0.0658,0.0659,0,146,146,105,1,fiveseven,,,,,,,,,,,,,,,,,,,,,,,,,,,,,,,,,,,,,,,,,,,,,,,,,,,,,,,,,,,,,,,,,,,,,,,,,,,,,,,,,,,,,,,,,,,,,,,,,,,,,,,,,,,,,,,,,,,,,,,,,,,,,,,,,,,,,,,,,
,,6151ec9f471555755f408e15,2024-02-22_05h27.38.949,kallum_motion_pilot,2023.2.2,Win32,59.88023952,6151ec9f471555755f408e15,65d6bb0e977760de756971f7,65d6bf1a56de2f00fa72f94a,0.066,0.0661,0,147,147,51,1,twofour,,,,,,,,,,,,,,,,,,,,,,,,,,,,,,,,,,,,,,,,,,,,,,,,,,,,,,,,,,,,,,,,,,,,,,,,,,,,,,,,,,,,,,,,,,,,,,,,,,,,,,,,,,,,,,,,,,,,,,,,,,,,,,,,,,,,,,,,,
,,6151ec9f471555755f408e15,2024-02-22_05h27.38.949,kallum_motion_pilot,2023.2.2,Win32,59.88023952,6151ec9f471555755f408e15,65d6bb0e977760de756971f7,65d6bf1a56de2f00fa72f94a,0.0663,0.0663,0,148,148,58,1,twoone,,,,,,,,,,,,,,,,,,,,,,,,,,,,,,,,,,,,,,,,,,,,,,,,,,,,,,,,,,,,,,,,,,,,,,,,,,,,,,,,,,,,,,,,,,,,,,,,,,,,,,,,,,,,,,,,,,,,,,,,,,,,,,,,,,,,,,,,,
,,6151ec9f471555755f408e15,2024-02-22_05h27.38.949,kallum_motion_pilot,2023.2.2,Win32,59.88023952,6151ec9f471555755f408e15,65d6bb0e977760de756971f7,65d6bf1a56de2f00fa72f94a,0.0664,0.0665,0,149,149,72,1,onetwo,,,,,,,,,,,,,,,,,,,,,,,,,,,,,,,,,,,,,,,,,,,,,,,,,,,,,,,,,,,,,,,,,,,,,,,,,,,,,,,,,,,,,,,,,,,,,,,,,,,,,,,,,,,,,,,,,,,,,,,,,,,,,,,,,,,,,,,,,
,,6151ec9f471555755f408e15,2024-02-22_05h27.38.949,kallum_motion_pilot,2023.2.2,Win32,59.88023952,6151ec9f471555755f408e15,65d6bb0e977760de756971f7,65d6bf1a56de2f00fa72f94a,0.0666,0.0667,0,150,150,13,1,threefour,,,,,,,,,,,,,,,,,,,,,,,,,,,,,,,,,,,,,,,,,,,,,,,,,,,,,,,,,,,,,,,,,,,,,,,,,,,,,,,,,,,,,,,,,,,,,,,,,,,,,,,,,,,,,,,,,,,,,,,,,,,,,,,,,,,,,,,,,
,,6151ec9f471555755f408e15,2024-02-22_05h27.38.949,kallum_motion_pilot,2023.2.2,Win32,59.88023952,6151ec9f471555755f408e15,65d6bb0e977760de756971f7,65d6bf1a56de2f00fa72f94a,0.0668,0.0669,0,151,151,136,1,fivesix,,,,,,,,,,,,,,,,,,,,,,,,,,,,,,,,,,,,,,,,,,,,,,,,,,,,,,,,,,,,,,,,,,,,,,,,,,,,,,,,,,,,,,,,,,,,,,,,,,,,,,,,,,,,,,,,,,,,,,,,,,,,,,,,,,,,,,,,,
,,6151ec9f471555755f408e15,2024-02-22_05h27.38.949,kallum_motion_pilot,2023.2.2,Win32,59.88023952,6151ec9f471555755f408e15,65d6bb0e977760de756971f7,65d6bf1a56de2f00fa72f94a,0.067,0.0671,0,152,152,147,1,sixeight,,,,,,,,,,,,,,,,,,,,,,,,,,,,,,,,,,,,,,,,,,,,,,,,,,,,,,,,,,,,,,,,,,,,,,,,,,,,,,,,,,,,,,,,,,,,,,,,,,,,,,,,,,,,,,,,,,,,,,,,,,,,,,,,,,,,,,,,,
,,6151ec9f471555755f408e15,2024-02-22_05h27.38.949,kallum_motion_pilot,2023.2.2,Win32,59.88023952,6151ec9f471555755f408e15,65d6bb0e977760de756971f7,65d6bf1a56de2f00fa72f94a,0.0672,0.0673,0,153,153,5,1,threefour,,,,,,,,,,,,,,,,,,,,,,,,,,,,,,,,,,,,,,,,,,,,,,,,,,,,,,,,,,,,,,,,,,,,,,,,,,,,,,,,,,,,,,,,,,,,,,,,,,,,,,,,,,,,,,,,,,,,,,,,,,,,,,,,,,,,,,,,,
,,6151ec9f471555755f408e15,2024-02-22_05h27.38.949,kallum_motion_pilot,2023.2.2,Win32,59.88023952,6151ec9f471555755f408e15,65d6bb0e977760de756971f7,65d6bf1a56de2f00fa72f94a,0.0673,0.0675,0,154,154,123,1,sixeight,,,,,,,,,,,,,,,,,,,,,,,,,,,,,,,,,,,,,,,,,,,,,,,,,,,,,,,,,,,,,,,,,,,,,,,,,,,,,,,,,,,,,,,,,,,,,,,,,,,,,,,,,,,,,,,,,,,,,,,,,,,,,,,,,,,,,,,,,
,,6151ec9f471555755f408e15,2024-02-22_05h27.38.949,kallum_motion_pilot,2023.2.2,Win32,59.88023952,6151ec9f471555755f408e15,65d6bb0e977760de756971f7,65d6bf1a56de2f00fa72f94a,0.0675,0.0677,0,155,155,149,1,seveneight,,,,,,,,,,,,,,,,,,,,,,,,,,,,,,,,,,,,,,,,,,,,,,,,,,,,,,,,,,,,,,,,,,,,,,,,,,,,,,,,,,,,,,,,,,,,,,,,,,,,,,,,,,,,,,,,,,,,,,,,,,,,,,,,,,,,,,,,,
,,6151ec9f471555755f408e15,2024-02-22_05h27.38.949,kallum_motion_pilot,2023.2.2,Win32,59.88023952,6151ec9f471555755f408e15,65d6bb0e977760de756971f7,65d6bf1a56de2f00fa72f94a,0.0677,0.0678,0,156,156,32,1,onetwo,,,,,,,,,,,,,,,,,,,,,,,,,,,,,,,,,,,,,,,,,,,,,,,,,,,,,,,,,,,,,,,,,,,,,,,,,,,,,,,,,,,,,,,,,,,,,,,,,,,,,,,,,,,,,,,,,,,,,,,,,,,,,,,,,,,,,,,,,
,,6151ec9f471555755f408e15,2024-02-22_05h27.38.949,kallum_motion_pilot,2023.2.2,Win32,59.88023952,6151ec9f471555755f408e15,65d6bb0e977760de756971f7,65d6bf1a56de2f00fa72f94a,0.0679,0.068,0,157,157,150,1,eightsix,,,,,,,,,,,,,,,,,,,,,,,,,,,,,,,,,,,,,,,,,,,,,,,,,,,,,,,,,,,,,,,,,,,,,,,,,,,,,,,,,,,,,,,,,,,,,,,,,,,,,,,,,,,,,,,,,,,,,,,,,,,,,,,,,,,,,,,,,
,,6151ec9f471555755f408e15,2024-02-22_05h27.38.949,kallum_motion_pilot,2023.2.2,Win32,59.88023952,6151ec9f471555755f408e15,65d6bb0e977760de756971f7,65d6bf1a56de2f00fa72f94a,0.0682,0.0683,0,158,158,45,1,threefour,,,,,,,,,,,,,,,,,,,,,,,,,,,,,,,,,,,,,,,,,,,,,,,,,,,,,,,,,,,,,,,,,,,,,,,,,,,,,,,,,,,,,,,,,,,,,,,,,,,,,,,,,,,,,,,,,,,,,,,,,,,,,,,,,,,,,,,,,
,,6151ec9f471555755f408e15,2024-02-22_05h27.38.949,kallum_motion_pilot,2023.2.2,Win32,59.88023952,6151ec9f471555755f408e15,65d6bb0e977760de756971f7,65d6bf1a56de2f00fa72f94a,0.0683,0.0684,0,159,159,148,1,sevenfive,,,,,,,,,,,,,,,,,,,,,,,,,,,,,,,,,,,,,,,,,,,,,,,,,,,,,,,,,,,,,,,,,,,,,,,,,,,,,,,,,,,,,,,,,,,,,,,,,,,,,,,,,,,,,,,,,,,,,,,,,,,,,,,,,,,,,,,,,
,,6151ec9f471555755f408e15,2024-02-22_05h27.38.949,kallum_motion_pilot,2023.2.2,Win32,59.88023952,6151ec9f471555755f408e15,65d6bb0e977760de756971f7,65d6bf1a56de2f00fa72f94a,0.0685,0.0687,0,160,160,82,1,sixfive,,,,,,,,,,,,,,,,,,,,,,,,,,,,,,,,,,,,,,,,,,,,,,,,,,,,,,,,,,,,,,,,,,,,,,,,,,,,,,,,,,,,,,,,,,,,,,,,,,,,,,,,,,,,,,,,,,,,,,,,,,,,,,,,,,,,,,,,,
,,6151ec9f471555755f408e15,2024-02-22_05h27.38.949,kallum_motion_pilot,2023.2.2,Win32,59.88023952,6151ec9f471555755f408e15,65d6bb0e977760de756971f7,65d6bf1a56de2f00fa72f94a,0.0688,0.0688,0,161,161,67,1,twofour,,,,,,,,,,,,,,,,,,,,,,,,,,,,,,,,,,,,,,,,,,,,,,,,,,,,,,,,,,,,,,,,,,,,,,,,,,,,,,,,,,,,,,,,,,,,,,,,,,,,,,,,,,,,,,,,,,,,,,,,,,,,,,,,,,,,,,,,,
,,6151ec9f471555755f408e15,2024-02-22_05h27.38.949,kallum_motion_pilot,2023.2.2,Win32,59.88023952,6151ec9f471555755f408e15,65d6bb0e977760de756971f7,65d6bf1a56de2f00fa72f94a,0.0689,0.069,1,0,162,49,1,onethree,,,,,,,,,,,,,,,,,,,,,,,,,,,,,,,,,,,,,,,,,,,,,,,,,,,,,,,,,,,,,,,,,,,,,,,,,,,,,,,,,,,,,,,,,,,,,,,,,,,,,,,,,,,,,,,,,,,,,,,,,,,,,,,,,,,,,,,,,
,,6151ec9f471555755f408e15,2024-02-22_05h27.38.949,kallum_motion_pilot,2023.2.2,Win32,59.88023952,6151ec9f471555755f408e15,65d6bb0e977760de756971f7,65d6bf1a56de2f00fa72f94a,0.0691,0.0692,1,1,163,84,1,sevenfive,,,,,,,,,,,,,,,,,,,,,,,,,,,,,,,,,,,,,,,,,,,,,,,,,,,,,,,,,,,,,,,,,,,,,,,,,,,,,,,,,,,,,,,,,,,,,,,,,,,,,,,,,,,,,,,,,,,,,,,,,,,,,,,,,,,,,,,,,
,,6151ec9f471555755f408e15,2024-02-22_05h27.38.949,kallum_motion_pilot,2023.2.2,Win32,59.88023952,6151ec9f471555755f408e15,65d6bb0e977760de756971f7,65d6bf1a56de2f00fa72f94a,0.0694,0.0694,1,2,164,121,1,fiveseven,,,,,,,,,,,,,,,,,,,,,,,,,,,,,,,,,,,,,,,,,,,,,,,,,,,,,,,,,,,,,,,,,,,,,,,,,,,,,,,,,,,,,,,,,,,,,,,,,,,,,,,,,,,,,,,,,,,,,,,,,,,,,,,,,,,,,,,,,
,,6151ec9f471555755f408e15,2024-02-22_05h27.38.949,kallum_motion_pilot,2023.2.2,Win32,59.88023952,6151ec9f471555755f408e15,65d6bb0e977760de756971f7,65d6bf1a56de2f00fa72f94a,0.0696,0.0696,1,3,165,32,1,onetwo,,,,,,,,,,,,,,,,,,,,,,,,,,,,,,,,,,,,,,,,,,,,,,,,,,,,,,,,,,,,,,,,,,,,,,,,,,,,,,,,,,,,,,,,,,,,,,,,,,,,,,,,,,,,,,,,,,,,,,,,,,,,,,,,,,,,,,,,,
,,6151ec9f471555755f408e15,2024-02-22_05h27.38.949,kallum_motion_pilot,2023.2.2,Win32,59.88023952,6151ec9f471555755f408e15,65d6bb0e977760de756971f7,65d6bf1a56de2f00fa72f94a,0.0697,0.0698,1,4,166,90,1,sixfive,,,,,,,,,,,,,,,,,,,,,,,,,,,,,,,,,,,,,,,,,,,,,,,,,,,,,,,,,,,,,,,,,,,,,,,,,,,,,,,,,,,,,,,,,,,,,,,,,,,,,,,,,,,,,,,,,,,,,,,,,,,,,,,,,,,,,,,,,
,,6151ec9f471555755f408e15,2024-02-22_05h27.38.949,kallum_motion_pilot,2023.2.2,Win32,59.88023952,6151ec9f471555755f408e15,65d6bb0e977760de756971f7,65d6bf1a56de2f00fa72f94a,0.0699,0.07,1,5,167,83,1,sixeight,,,,,,,,,,,,,,,,,,,,,,,,,,,,,,,,,,,,,,,,,,,,,,,,,,,,,,,,,,,,,,,,,,,,,,,,,,,,,,,,,,,,,,,,,,,,,,,,,,,,,,,,,,,,,,,,,,,,,,,,,,,,,,,,,,,,,,,,,
,,6151ec9f471555755f408e15,2024-02-22_05h27.38.949,kallum_motion_pilot,2023.2.2,Win32,59.88023952,6151ec9f471555755f408e15,65d6bb0e977760de756971f7,65d6bf1a56de2f00fa72f94a,0.0701,0.0702,1,6,168,87,1,eightseven,,,,,,,,,,,,,,,,,,,,,,,,,,,,,,,,,,,,,,,,,,,,,,,,,,,,,,,,,,,,,,,,,,,,,,,,,,,,,,,,,,,,,,,,,,,,,,,,,,,,,,,,,,,,,,,,,,,,,,,,,,,,,,,,,,,,,,,,,
,,6151ec9f471555755f408e15,2024-02-22_05h27.38.949,kallum_motion_pilot,2023.2.2,Win32,59.88023952,6151ec9f471555755f408e15,65d6bb0e977760de756971f7,65d6bf1a56de2f00fa72f94a,0.0703,0.0704,1,7,169,57,1,onethree,,,,,,,,,,,,,,,,,,,,,,,,,,,,,,,,,,,,,,,,,,,,,,,,,,,,,,,,,,,,,,,,,,,,,,,,,,,,,,,,,,,,,,,,,,,,,,,,,,,,,,,,,,,,,,,,,,,,,,,,,,,,,,,,,,,,,,,,,
,,6151ec9f471555755f408e15,2024-02-22_05h27.38.949,kallum_motion_pilot,2023.2.2,Win32,59.88023952,6151ec9f471555755f408e15,65d6bb0e977760de756971f7,65d6bf1a56de2f00fa72f94a,0.0704,0.0706,1,8,170,134,1,eightsix,,,,,,,,,,,,,,,,,,,,,,,,,,,,,,,,,,,,,,,,,,,,,,,,,,,,,,,,,,,,,,,,,,,,,,,,,,,,,,,,,,,,,,,,,,,,,,,,,,,,,,,,,,,,,,,,,,,,,,,,,,,,,,,,,,,,,,,,,
,,6151ec9f471555755f408e15,2024-02-22_05h27.38.949,kallum_motion_pilot,2023.2.2,Win32,59.88023952,6151ec9f471555755f408e15,65d6bb0e977760de756971f7,65d6bf1a56de2f00fa72f94a,0.0707,0.0708,1,9,171,86,1,eightsix,,,,,,,,,,,,,,,,,,,,,,,,,,,,,,,,,,,,,,,,,,,,,,,,,,,,,,,,,,,,,,,,,,,,,,,,,,,,,,,,,,,,,,,,,,,,,,,,,,,,,,,,,,,,,,,,,,,,,,,,,,,,,,,,,,,,,,,,,
,,6151ec9f471555755f408e15,2024-02-22_05h27.38.949,kallum_motion_pilot,2023.2.2,Win32,59.88023952,6151ec9f471555755f408e15,65d6bb0e977760de756971f7,65d6bf1a56de2f00fa72f94a,0.0709,0.0711,1,10,172,43,1,twofour,,,,,,,,,,,,,,,,,,,,,,,,,,,,,,,,,,,,,,,,,,,,,,,,,,,,,,,,,,,,,,,,,,,,,,,,,,,,,,,,,,,,,,,,,,,,,,,,,,,,,,,,,,,,,,,,,,,,,,,,,,,,,,,,,,,,,,,,,
,,6151ec9f471555755f408e15,2024-02-22_05h27.38.949,kallum_motion_pilot,2023.2.2,Win32,59.88023952,6151ec9f471555755f408e15,65d6bb0e977760de756971f7,65d6bf1a56de2f00fa72f94a,0.0711,0.0713,1,11,173,23,1,fourthree,,,,,,,,,,,,,,,,,,,,,,,,,,,,,,,,,,,,,,,,,,,,,,,,,,,,,,,,,,,,,,,,,,,,,,,,,,,,,,,,,,,,,,,,,,,,,,,,,,,,,,,,,,,,,,,,,,,,,,,,,,,,,,,,,,,,,,,,,
,,6151ec9f471555755f408e15,2024-02-22_05h27.38.949,kallum_motion_pilot,2023.2.2,Win32,59.88023952,6151ec9f471555755f408e15,65d6bb0e977760de756971f7,65d6bf1a56de2f00fa72f94a,0.0713,0.0714,1,12,174,73,1,onethree,,,,,,,,,,,,,,,,,,,,,,,,,,,,,,,,,,,,,,,,,,,,,,,,,,,,,,,,,,,,,,,,,,,,,,,,,,,,,,,,,,,,,,,,,,,,,,,,,,,,,,,,,,,,,,,,,,,,,,,,,,,,,,,,,,,,,,,,,
,,6151ec9f471555755f408e15,2024-02-22_05h27.38.949,kallum_motion_pilot,2023.2.2,Win32,59.88023952,6151ec9f471555755f408e15,65d6bb0e977760de756971f7,65d6bf1a56de2f00fa72f94a,0.0715,0.0716,1,13,175,25,1,onethree,,,,,,,,,,,,,,,,,,,,,,,,,,,,,,,,,,,,,,,,,,,,,,,,,,,,,,,,,,,,,,,,,,,,,,,,,,,,,,,,,,,,,,,,,,,,,,,,,,,,,,,,,,,,,,,,,,,,,,,,,,,,,,,,,,,,,,,,,
,,6151ec9f471555755f408e15,2024-02-22_05h27.38.949,kallum_motion_pilot,2023.2.2,Win32,59.88023952,6151ec9f471555755f408e15,65d6bb0e977760de756971f7,65d6bf1a56de2f00fa72f94a,0.0717,0.0718,1,14,176,36,1,threeone,,,,,,,,,,,,,,,,,,,,,,,,,,,,,,,,,,,,,,,,,,,,,,,,,,,,,,,,,,,,,,,,,,,,,,,,,,,,,,,,,,,,,,,,,,,,,,,,,,,,,,,,,,,,,,,,,,,,,,,,,,,,,,,,,,,,,,,,,
,,6151ec9f471555755f408e15,2024-02-22_05h27.38.949,kallum_motion_pilot,2023.2.2,Win32,59.88023952,6151ec9f471555755f408e15,65d6bb0e977760de756971f7,65d6bf1a56de2f00fa72f94a,0.072,0.072,1,15,177,117,1,seveneight,,,,,,,,,,,,,,,,,,,,,,,,,,,,,,,,,,,,,,,,,,,,,,,,,,,,,,,,,,,,,,,,,,,,,,,,,,,,,,,,,,,,,,,,,,,,,,,,,,,,,,,,,,,,,,,,,,,,,,,,,,,,,,,,,,,,,,,,,
,,6151ec9f471555755f408e15,2024-02-22_05h27.38.949,kallum_motion_pilot,2023.2.2,Win32,59.88023952,6151ec9f471555755f408e15,65d6bb0e977760de756971f7,65d6bf1a56de2f00fa72f94a,0.0721,0.0722,1,16,178,14,1,fourtwo,,,,,,,,,,,,,,,,,,,,,,,,,,,,,,,,,,,,,,,,,,,,,,,,,,,,,,,,,,,,,,,,,,,,,,,,,,,,,,,,,,,,,,,,,,,,,,,,,,,,,,,,,,,,,,,,,,,,,,,,,,,,,,,,,,,,,,,,,
,,6151ec9f471555755f408e15,2024-02-22_05h27.38.949,kallum_motion_pilot,2023.2.2,Win32,59.88023952,6151ec9f471555755f408e15,65d6bb0e977760de756971f7,65d6bf1a56de2f00fa72f94a,0.0723,0.0724,1,17,179,17,1,onethree,,,,,,,,,,,,,,,,,,,,,,,,,,,,,,,,,,,,,,,,,,,,,,,,,,,,,,,,,,,,,,,,,,,,,,,,,,,,,,,,,,,,,,,,,,,,,,,,,,,,,,,,,,,,,,,,,,,,,,,,,,,,,,,,,,,,,,,,,
,,6151ec9f471555755f408e15,2024-02-22_05h27.38.949,kallum_motion_pilot,2023.2.2,Win32,59.88023952,6151ec9f471555755f408e15,65d6bb0e977760de756971f7,65d6bf1a56de2f00fa72f94a,0.0726,0.0726,1,18,180,119,1,eightseven,,,,,,,,,,,,,,,,,,,,,,,,,,,,,,,,,,,,,,,,,,,,,,,,,,,,,,,,,,,,,,,,,,,,,,,,,,,,,,,,,,,,,,,,,,,,,,,,,,,,,,,,,,,,,,,,,,,,,,,,,,,,,,,,,,,,,,,,,
,,6151ec9f471555755f408e15,2024-02-22_05h27.38.949,kallum_motion_pilot,2023.2.2,Win32,59.88023952,6151ec9f471555755f408e15,65d6bb0e977760de756971f7,65d6bf1a56de2f00fa72f94a,0.0728,0.0728,1,19,181,135,1,eightseven,,,,,,,,,,,,,,,,,,,,,,,,,,,,,,,,,,,,,,,,,,,,,,,,,,,,,,,,,,,,,,,,,,,,,,,,,,,,,,,,,,,,,,,,,,,,,,,,,,,,,,,,,,,,,,,,,,,,,,,,,,,,,,,,,,,,,,,,,
,,6151ec9f471555755f408e15,2024-02-22_05h27.38.949,kallum_motion_pilot,2023.2.2,Win32,59.88023952,6151ec9f471555755f408e15,65d6bb0e977760de756971f7,65d6bf1a56de2f00fa72f94a,0.0729,0.073,1,20,182,154,1,sixfive,,,,,,,,,,,,,,,,,,,,,,,,,,,,,,,,,,,,,,,,,,,,,,,,,,,,,,,,,,,,,,,,,,,,,,,,,,,,,,,,,,,,,,,,,,,,,,,,,,,,,,,,,,,,,,,,,,,,,,,,,,,,,,,,,,,,,,,,,
,,6151ec9f471555755f408e15,2024-02-22_05h27.38.949,kallum_motion_pilot,2023.2.2,Win32,59.88023952,6151ec9f471555755f408e15,65d6bb0e977760de756971f7,65d6bf1a56de2f00fa72f94a,0.0731,0.0731,1,21,183,125,1,seveneight,,,,,,,,,,,,,,,,,,,,,,,,,,,,,,,,,,,,,,,,,,,,,,,,,,,,,,,,,,,,,,,,,,,,,,,,,,,,,,,,,,,,,,,,,,,,,,,,,,,,,,,,,,,,,,,,,,,,,,,,,,,,,,,,,,,,,,,,,
,,6151ec9f471555755f408e15,2024-02-22_05h27.38.949,kallum_motion_pilot,2023.2.2,Win32,59.88023952,6151ec9f471555755f408e15,65d6bb0e977760de756971f7,65d6bf1a56de2f00fa72f94a,0.0733,0.0734,1,22,184,50,1,twoone,,,,,,,,,,,,,,,,,,,,,,,,,,,,,,,,,,,,,,,,,,,,,,,,,,,,,,,,,,,,,,,,,,,,,,,,,,,,,,,,,,,,,,,,,,,,,,,,,,,,,,,,,,,,,,,,,,,,,,,,,,,,,,,,,,,,,,,,,
,,6151ec9f471555755f408e15,2024-02-22_05h27.38.949,kallum_motion_pilot,2023.2.2,Win32,59.88023952,6151ec9f471555755f408e15,65d6bb0e977760de756971f7,65d6bf1a56de2f00fa72f94a,0.0735,0.0736,1,23,185,94,1,eightsix,,,,,,,,,,,,,,,,,,,,,,,,,,,,,,,,,,,,,,,,,,,,,,,,,,,,,,,,,,,,,,,,,,,,,,,,,,,,,,,,,,,,,,,,,,,,,,,,,,,,,,,,,,,,,,,,,,,,,,,,,,,,,,,,,,,,,,,,,
,,6151ec9f471555755f408e15,2024-02-22_05h27.38.949,kallum_motion_pilot,2023.2.2,Win32,59.88023952,6151ec9f471555755f408e15,65d6bb0e977760de756971f7,65d6bf1a56de2f00fa72f94a,0.0737,0.0738,1,24,186,151,1,eightseven,,,,,,,,,,,,,,,,,,,,,,,,,,,,,,,,,,,,,,,,,,,,,,,,,,,,,,,,,,,,,,,,,,,,,,,,,,,,,,,,,,,,,,,,,,,,,,,,,,,,,,,,,,,,,,,,,,,,,,,,,,,,,,,,,,,,,,,,,
,,6151ec9f471555755f408e15,2024-02-22_05h27.38.949,kallum_motion_pilot,2023.2.2,Win32,59.88023952,6151ec9f471555755f408e15,65d6bb0e977760de756971f7,65d6bf1a56de2f00fa72f94a,0.0739,0.074,1,25,187,71,1,fourthree,,,,,,,,,,,,,,,,,,,,,,,,,,,,,,,,,,,,,,,,,,,,,,,,,,,,,,,,,,,,,,,,,,,,,,,,,,,,,,,,,,,,,,,,,,,,,,,,,,,,,,,,,,,,,,,,,,,,,,,,,,,,,,,,,,,,,,,,,
,,6151ec9f471555755f408e15,2024-02-22_05h27.38.949,kallum_motion_pilot,2023.2.2,Win32,59.88023952,6151ec9f471555755f408e15,65d6bb0e977760de756971f7,65d6bf1a56de2f00fa72f94a,0.0741,0.0742,1,26,188,8,1,onetwo,,,,,,,,,,,,,,,,,,,,,,,,,,,,,,,,,,,,,,,,,,,,,,,,,,,,,,,,,,,,,,,,,,,,,,,,,,,,,,,,,,,,,,,,,,,,,,,,,,,,,,,,,,,,,,,,,,,,,,,,,,,,,,,,,,,,,,,,,
,,6151ec9f471555755f408e15,2024-02-22_05h27.38.949,kallum_motion_pilot,2023.2.2,Win32,59.88023952,6151ec9f471555755f408e15,65d6bb0e977760de756971f7,65d6bf1a56de2f00fa72f94a,0.0743,0.0744,1,27,189,61,1,threefour,,,,,,,,,,,,,,,,,,,,,,,,,,,,,,,,,,,,,,,,,,,,,,,,,,,,,,,,,,,,,,,,,,,,,,,,,,,,,,,,,,,,,,,,,,,,,,,,,,,,,,,,,,,,,,,,,,,,,,,,,,,,,,,,,,,,,,,,,
,,6151ec9f471555755f408e15,2024-02-22_05h27.38.949,kallum_motion_pilot,2023.2.2,Win32,59.88023952,6151ec9f471555755f408e15,65d6bb0e977760de756971f7,65d6bf1a56de2f00fa72f94a,0.0745,0.0746,1,28,190,7,1,fourthree,,,,,,,,,,,,,,,,,,,,,,,,,,,,,,,,,,,,,,,,,,,,,,,,,,,,,,,,,,,,,,,,,,,,,,,,,,,,,,,,,,,,,,,,,,,,,,,,,,,,,,,,,,,,,,,,,,,,,,,,,,,,,,,,,,,,,,,,,
,,6151ec9f471555755f408e15,2024-02-22_05h27.38.949,kallum_motion_pilot,2023.2.2,Win32,59.88023952,6151ec9f471555755f408e15,65d6bb0e977760de756971f7,65d6bf1a56de2f00fa72f94a,0.0746,0.0747,1,29,191,93,1,seveneight,,,,,,,,,,,,,,,,,,,,,,,,,,,,,,,,,,,,,,,,,,,,,,,,,,,,,,,,,,,,,,,,,,,,,,,,,,,,,,,,,,,,,,,,,,,,,,,,,,,,,,,,,,,,,,,,,,,,,,,,,,,,,,,,,,,,,,,,,
,,6151ec9f471555755f408e15,2024-02-22_05h27.38.949,kallum_motion_pilot,2023.2.2,Win32,59.88023952,6151ec9f471555755f408e15,65d6bb0e977760de756971f7,65d6bf1a56de2f00fa72f94a,0.0749,0.0749,1,30,192,48,1,onetwo,,,,,,,,,,,,,,,,,,,,,,,,,,,,,,,,,,,,,,,,,,,,,,,,,,,,,,,,,,,,,,,,,,,,,,,,,,,,,,,,,,,,,,,,,,,,,,,,,,,,,,,,,,,,,,,,,,,,,,,,,,,,,,,,,,,,,,,,,
,,6151ec9f471555755f408e15,2024-02-22_05h27.38.949,kallum_motion_pilot,2023.2.2,Win32,59.88023952,6151ec9f471555755f408e15,65d6bb0e977760de756971f7,65d6bf1a56de2f00fa72f94a,0.0751,0.0752,1,31,193,160,1,fivesix,,,,,,,,,,,,,,,,,,,,,,,,,,,,,,,,,,,,,,,,,,,,,,,,,,,,,,,,,,,,,,,,,,,,,,,,,,,,,,,,,,,,,,,,,,,,,,,,,,,,,,,,,,,,,,,,,,,,,,,,,,,,,,,,,,,,,,,,,
,,6151ec9f471555755f408e15,2024-02-22_05h27.38.949,kallum_motion_pilot,2023.2.2,Win32,59.88023952,6151ec9f471555755f408e15,65d6bb0e977760de756971f7,65d6bf1a56de2f00fa72f94a,0.0753,0.0753,1,32,194,54,1,fourtwo,,,,,,,,,,,,,,,,,,,,,,,,,,,,,,,,,,,,,,,,,,,,,,,,,,,,,,,,,,,,,,,,,,,,,,,,,,,,,,,,,,,,,,,,,,,,,,,,,,,,,,,,,,,,,,,,,,,,,,,,,,,,,,,,,,,,,,,,,
,,6151ec9f471555755f408e15,2024-02-22_05h27.38.949,kallum_motion_pilot,2023.2.2,Win32,59.88023952,6151ec9f471555755f408e15,65d6bb0e977760de756971f7,65d6bf1a56de2f00fa72f94a,0.0755,0.0756,1,33,195,21,1,threefour,,,,,,,,,,,,,,,,,,,,,,,,,,,,,,,,,,,,,,,,,,,,,,,,,,,,,,,,,,,,,,,,,,,,,,,,,,,,,,,,,,,,,,,,,,,,,,,,,,,,,,,,,,,,,,,,,,,,,,,,,,,,,,,,,,,,,,,,,
,,6151ec9f471555755f408e15,2024-02-22_05h27.38.949,kallum_motion_pilot,2023.2.2,Win32,59.88023952,6151ec9f471555755f408e15,65d6bb0e977760de756971f7,65d6bf1a56de2f00fa72f94a,0.0756,0.0757,1,34,196,51,1,twofour,,,,,,,,,,,,,,,,,,,,,,,,,,,,,,,,,,,,,,,,,,,,,,,,,,,,,,,,,,,,,,,,,,,,,,,,,,,,,,,,,,,,,,,,,,,,,,,,,,,,,,,,,,,,,,,,,,,,,,,,,,,,,,,,,,,,,,,,,
,,6151ec9f471555755f408e15,2024-02-22_05h27.38.949,kallum_motion_pilot,2023.2.2,Win32,59.88023952,6151ec9f471555755f408e15,65d6bb0e977760de756971f7,65d6bf1a56de2f00fa72f94a,0.0758,0.0759,1,35,197,156,1,sevenfive,,,,,,,,,,,,,,,,,,,,,,,,,,,,,,,,,,,,,,,,,,,,,,,,,,,,,,,,,,,,,,,,,,,,,,,,,,,,,,,,,,,,,,,,,,,,,,,,,,,,,,,,,,,,,,,,,,,,,,,,,,,,,,,,,,,,,,,,,
,,6151ec9f471555755f408e15,2024-02-22_05h27.38.949,kallum_motion_pilot,2023.2.2,Win32,59.88023952,6151ec9f471555755f408e15,65d6bb0e977760de756971f7,65d6bf1a56de2f00fa72f94a,0.0761,0.0761,1,36,198,72,1,onetwo,,,,,,,,,,,,,,,,,,,,,,,,,,,,,,,,,,,,,,,,,,,,,,,,,,,,,,,,,,,,,,,,,,,,,,,,,,,,,,,,,,,,,,,,,,,,,,,,,,,,,,,,,,,,,,,,,,,,,,,,,,,,,,,,,,,,,,,,,
,,6151ec9f471555755f408e15,2024-02-22_05h27.38.949,kallum_motion_pilot,2023.2.2,Win32,59.88023952,6151ec9f471555755f408e15,65d6bb0e977760de756971f7,65d6bf1a56de2f00fa72f94a,0.0762,0.0763,1,37,199,27,1,twofour,,,,,,,,,,,,,,,,,,,,,,,,,,,,,,,,,,,,,,,,,,,,,,,,,,,,,,,,,,,,,,,,,,,,,,,,,,,,,,,,,,,,,,,,,,,,,,,,,,,,,,,,,,,,,,,,,,,,,,,,,,,,,,,,,,,,,,,,,
,,6151ec9f471555755f408e15,2024-02-22_05h27.38.949,kallum_motion_pilot,2023.2.2,Win32,59.88023952,6151ec9f471555755f408e15,65d6bb0e977760de756971f7,65d6bf1a56de2f00fa72f94a,0.0764,0.0766,1,38,200,9,1,onethree,,,,,,,,,,,,,,,,,,,,,,,,,,,,,,,,,,,,,,,,,,,,,,,,,,,,,,,,,,,,,,,,,,,,,,,,,,,,,,,,,,,,,,,,,,,,,,,,,,,,,,,,,,,,,,,,,,,,,,,,,,,,,,,,,,,,,,,,,
,,6151ec9f471555755f408e15,2024-02-22_05h27.38.949,kallum_motion_pilot,2023.2.2,Win32,59.88023952,6151ec9f471555755f408e15,65d6bb0e977760de756971f7,65d6bf1a56de2f00fa72f94a,0.0767,0.0767,1,39,201,18,1,twoone,,,,,,,,,,,,,,,,,,,,,,,,,,,,,,,,,,,,,,,,,,,,,,,,,,,,,,,,,,,,,,,,,,,,,,,,,,,,,,,,,,,,,,,,,,,,,,,,,,,,,,,,,,,,,,,,,,,,,,,,,,,,,,,,,,,,,,,,,
,,6151ec9f471555755f408e15,2024-02-22_05h27.38.949,kallum_motion_pilot,2023.2.2,Win32,59.88023952,6151ec9f471555755f408e15,65d6bb0e977760de756971f7,65d6bf1a56de2f00fa72f94a,0.0769,0.0769,1,40,202,103,1,eightseven,,,,,,,,,,,,,,,,,,,,,,,,,,,,,,,,,,,,,,,,,,,,,,,,,,,,,,,,,,,,,,,,,,,,,,,,,,,,,,,,,,,,,,,,,,,,,,,,,,,,,,,,,,,,,,,,,,,,,,,,,,,,,,,,,,,,,,,,,
,,6151ec9f471555755f408e15,2024-02-22_05h27.38.949,kallum_motion_pilot,2023.2.2,Win32,59.88023952,6151ec9f471555755f408e15,65d6bb0e977760de756971f7,65d6bf1a56de2f00fa72f94a,0.0771,0.0772,1,41,203,97,1,fiveseven,,,,,,,,,,,,,,,,,,,,,,,,,,,,,,,,,,,,,,,,,,,,,,,,,,,,,,,,,,,,,,,,,,,,,,,,,,,,,,,,,,,,,,,,,,,,,,,,,,,,,,,,,,,,,,,,,,,,,,,,,,,,,,,,,,,,,,,,,
,,6151ec9f471555755f408e15,2024-02-22_05h27.38.949,kallum_motion_pilot,2023.2.2,Win32,59.88023952,6151ec9f471555755f408e15,65d6bb0e977760de756971f7,65d6bf1a56de2f00fa72f94a,0.0773,0.0773,1,42,204,68,1,threeone,,,,,,,,,,,,,,,,,,,,,,,,,,,,,,,,,,,,,,,,,,,,,,,,,,,,,,,,,,,,,,,,,,,,,,,,,,,,,,,,,,,,,,,,,,,,,,,,,,,,,,,,,,,,,,,,,,,,,,,,,,,,,,,,,,,,,,,,,
,,6151ec9f471555755f408e15,2024-02-22_05h27.38.949,kallum_motion_pilot,2023.2.2,Win32,59.88023952,6151ec9f471555755f408e15,65d6bb0e977760de756971f7,65d6bf1a56de2f00fa72f94a,0.0774,0.0776,1,43,205,12,1,threeone,,,,,,,,,,,,,,,,,,,,,,,,,,,,,,,,,,,,,,,,,,,,,,,,,,,,,,,,,,,,,,,,,,,,,,,,,,,,,,,,,,,,,,,,,,,,,,,,,,,,,,,,,,,,,,,,,,,,,,,,,,,,,,,,,,,,,,,,,
,,6151ec9f471555755f408e15,2024-02-22_05h27.38.949,kallum_motion_pilot,2023.2.2,Win32,59.88023952,6151ec9f471555755f408e15,65d6bb0e977760de756971f7,65d6bf1a56de2f00fa72f94a,0.0776,0.0777,1,44,206,16,1,onetwo,,,,,,,,,,,,,,,,,,,,,,,,,,,,,,,,,,,,,,,,,,,,,,,,,,,,,,,,,,,,,,,,,,,,,,,,,,,,,,,,,,,,,,,,,,,,,,,,,,,,,,,,,,,,,,,,,,,,,,,,,,,,,,,,,,,,,,,,,
,,6151ec9f471555755f408e15,2024-02-22_05h27.38.949,kallum_motion_pilot,2023.2.2,Win32,59.88023952,6151ec9f471555755f408e15,65d6bb0e977760de756971f7,65d6bf1a56de2f00fa72f94a,0.0778,0.0779,1,45,207,153,1,fiveseven,,,,,,,,,,,,,,,,,,,,,,,,,,,,,,,,,,,,,,,,,,,,,,,,,,,,,,,,,,,,,,,,,,,,,,,,,,,,,,,,,,,,,,,,,,,,,,,,,,,,,,,,,,,,,,,,,,,,,,,,,,,,,,,,,,,,,,,,,
,,6151ec9f471555755f408e15,2024-02-22_05h27.38.949,kallum_motion_pilot,2023.2.2,Win32,59.88023952,6151ec9f471555755f408e15,65d6bb0e977760de756971f7,65d6bf1a56de2f00fa72f94a,0.0781,0.0782,1,46,208,31,1,fourthree,,,,,,,,,,,,,,,,,,,,,,,,,,,,,,,,,,,,,,,,,,,,,,,,,,,,,,,,,,,,,,,,,,,,,,,,,,,,,,,,,,,,,,,,,,,,,,,,,,,,,,,,,,,,,,,,,,,,,,,,,,,,,,,,,,,,,,,,,
,,6151ec9f471555755f408e15,2024-02-22_05h27.38.949,kallum_motion_pilot,2023.2.2,Win32,59.88023952,6151ec9f471555755f408e15,65d6bb0e977760de756971f7,65d6bf1a56de2f00fa72f94a,0.0783,0.0783,1,47,209,140,1,sevenfive,,,,,,,,,,,,,,,,,,,,,,,,,,,,,,,,,,,,,,,,,,,,,,,,,,,,,,,,,,,,,,,,,,,,,,,,,,,,,,,,,,,,,,,,,,,,,,,,,,,,,,,,,,,,,,,,,,,,,,,,,,,,,,,,,,,,,,,,,
,,6151ec9f471555755f408e15,2024-02-22_05h27.38.949,kallum_motion_pilot,2023.2.2,Win32,59.88023952,6151ec9f471555755f408e15,65d6bb0e977760de756971f7,65d6bf1a56de2f00fa72f94a,0.0784,0.0785,1,48,210,78,1,fourtwo,,,,,,,,,,,,,,,,,,,,,,,,,,,,,,,,,,,,,,,,,,,,,,,,,,,,,,,,,,,,,,,,,,,,,,,,,,,,,,,,,,,,,,,,,,,,,,,,,,,,,,,,,,,,,,,,,,,,,,,,,,,,,,,,,,,,,,,,,
,,6151ec9f471555755f408e15,2024-02-22_05h27.38.949,kallum_motion_pilot,2023.2.2,Win32,59.88023952,6151ec9f471555755f408e15,65d6bb0e977760de756971f7,65d6bf1a56de2f00fa72f94a,0.0787,0.0787,1,49,211,26,1,twoone,,,,,,,,,,,,,,,,,,,,,,,,,,,,,,,,,,,,,,,,,,,,,,,,,,,,,,,,,,,,,,,,,,,,,,,,,,,,,,,,,,,,,,,,,,,,,,,,,,,,,,,,,,,,,,,,,,,,,,,,,,,,,,,,,,,,,,,,,
,,6151ec9f471555755f408e15,2024-02-22_05h27.38.949,kallum_motion_pilot,2023.2.2,Win32,59.88023952,6151ec9f471555755f408e15,65d6bb0e977760de756971f7,65d6bf1a56de2f00fa72f94a,0.0789,0.0789,1,50,212,111,1,eightseven,,,,,,,,,,,,,,,,,,,,,,,,,,,,,,,,,,,,,,,,,,,,,,,,,,,,,,,,,,,,,,,,,,,,,,,,,,,,,,,,,,,,,,,,,,,,,,,,,,,,,,,,,,,,,,,,,,,,,,,,,,,,,,,,,,,,,,,,,
,,6151ec9f471555755f408e15,2024-02-22_05h27.38.949,kallum_motion_pilot,2023.2.2,Win32,59.88023952,6151ec9f471555755f408e15,65d6bb0e977760de756971f7,65d6bf1a56de2f00fa72f94a,0.079,0.0791,1,51,213,5,1,threefour,,,,,,,,,,,,,,,,,,,,,,,,,,,,,,,,,,,,,,,,,,,,,,,,,,,,,,,,,,,,,,,,,,,,,,,,,,,,,,,,,,,,,,,,,,,,,,,,,,,,,,,,,,,,,,,,,,,,,,,,,,,,,,,,,,,,,,,,,
,,6151ec9f471555755f408e15,2024-02-22_05h27.38.949,kallum_motion_pilot,2023.2.2,Win32,59.88023952,6151ec9f471555755f408e15,65d6bb0e977760de756971f7,65d6bf1a56de2f00fa72f94a,0.0792,0.0793,1,52,214,92,1,sevenfive,,,,,,,,,,,,,,,,,,,,,,,,,,,,,,,,,,,,,,,,,,,,,,,,,,,,,,,,,,,,,,,,,,,,,,,,,,,,,,,,,,,,,,,,,,,,,,,,,,,,,,,,,,,,,,,,,,,,,,,,,,,,,,,,,,,,,,,,,
,,6151ec9f471555755f408e15,2024-02-22_05h27.38.949,kallum_motion_pilot,2023.2.2,Win32,59.88023952,6151ec9f471555755f408e15,65d6bb0e977760de756971f7,65d6bf1a56de2f00fa72f94a,0.0794,0.0795,1,53,215,53,1,threefour,,,,,,,,,,,,,,,,,,,,,,,,,,,,,,,,,,,,,,,,,,,,,,,,,,,,,,,,,,,,,,,,,,,,,,,,,,,,,,,,,,,,,,,,,,,,,,,,,,,,,,,,,,,,,,,,,,,,,,,,,,,,,,,,,,,,,,,,,
,,6151ec9f471555755f408e15,2024-02-22_05h27.38.949,kallum_motion_pilot,2023.2.2,Win32,59.88023952,6151ec9f471555755f408e15,65d6bb0e977760de756971f7,65d6bf1a56de2f00fa72f94a,0.0796,0.0797,1,54,216,89,1,fiveseven,,,,,,,,,,,,,,,,,,,,,,,,,,,,,,,,,,,,,,,,,,,,,,,,,,,,,,,,,,,,,,,,,,,,,,,,,,,,,,,,,,,,,,,,,,,,,,,,,,,,,,,,,,,,,,,,,,,,,,,,,,,,,,,,,,,,,,,,,
,,6151ec9f471555755f408e15,2024-02-22_05h27.38.949,kallum_motion_pilot,2023.2.2,Win32,59.88023952,6151ec9f471555755f408e15,65d6bb0e977760de756971f7,65d6bf1a56de2f00fa72f94a,0.0798,0.0799,1,55,217,96,1,fivesix,,,,,,,,,,,,,,,,,,,,,,,,,,,,,,,,,,,,,,,,,,,,,,,,,,,,,,,,,,,,,,,,,,,,,,,,,,,,,,,,,,,,,,,,,,,,,,,,,,,,,,,,,,,,,,,,,,,,,,,,,,,,,,,,,,,,,,,,,
,,6151ec9f471555755f408e15,2024-02-22_05h27.38.949,kallum_motion_pilot,2023.2.2,Win32,59.88023952,6151ec9f471555755f408e15,65d6bb0e977760de756971f7,65d6bf1a56de2f00fa72f94a,0.0801,0.0801,1,56,218,112,1,fivesix,,,,,,,,,,,,,,,,,,,,,,,,,,,,,,,,,,,,,,,,,,,,,,,,,,,,,,,,,,,,,,,,,,,,,,,,,,,,,,,,,,,,,,,,,,,,,,,,,,,,,,,,,,,,,,,,,,,,,,,,,,,,,,,,,,,,,,,,,
,,6151ec9f471555755f408e15,2024-02-22_05h27.38.949,kallum_motion_pilot,2023.2.2,Win32,59.88023952,6151ec9f471555755f408e15,65d6bb0e977760de756971f7,65d6bf1a56de2f00fa72f94a,0.0803,0.0803,1,57,219,55,1,fourthree,,,,,,,,,,,,,,,,,,,,,,,,,,,,,,,,,,,,,,,,,,,,,,,,,,,,,,,,,,,,,,,,,,,,,,,,,,,,,,,,,,,,,,,,,,,,,,,,,,,,,,,,,,,,,,,,,,,,,,,,,,,,,,,,,,,,,,,,,
,,6151ec9f471555755f408e15,2024-02-22_05h27.38.949,kallum_motion_pilot,2023.2.2,Win32,59.88023952,6151ec9f471555755f408e15,65d6bb0e977760de756971f7,65d6bf1a56de2f00fa72f94a,0.0804,0.0805,1,58,220,124,1,sevenfive,,,,,,,,,,,,,,,,,,,,,,,,,,,,,,,,,,,,,,,,,,,,,,,,,,,,,,,,,,,,,,,,,,,,,,,,,,,,,,,,,,,,,,,,,,,,,,,,,,,,,,,,,,,,,,,,,,,,,,,,,,,,,,,,,,,,,,,,,
,,6151ec9f471555755f408e15,2024-02-22_05h27.38.949,kallum_motion_pilot,2023.2.2,Win32,59.88023952,6151ec9f471555755f408e15,65d6bb0e977760de756971f7,65d6bf1a56de2f00fa72f94a,0.0807,0.0807,1,59,221,2,1,twoone,,,,,,,,,,,,,,,,,,,,,,,,,,,,,,,,,,,,,,,,,,,,,,,,,,,,,,,,,,,,,,,,,,,,,,,,,,,,,,,,,,,,,,,,,,,,,,,,,,,,,,,,,,,,,,,,,,,,,,,,,,,,,,,,,,,,,,,,,
,,6151ec9f471555755f408e15,2024-02-22_05h27.38.949,kallum_motion_pilot,2023.2.2,Win32,59.88023952,6151ec9f471555755f408e15,65d6bb0e977760de756971f7,65d6bf1a56de2f00fa72f94a,0.0809,0.081,1,60,222,58,1,twoone,,,,,,,,,,,,,,,,,,,,,,,,,,,,,,,,,,,,,,,,,,,,,,,,,,,,,,,,,,,,,,,,,,,,,,,,,,,,,,,,,,,,,,,,,,,,,,,,,,,,,,,,,,,,,,,,,,,,,,,,,,,,,,,,,,,,,,,,,
,,6151ec9f471555755f408e15,2024-02-22_05h27.38.949,kallum_motion_pilot,2023.2.2,Win32,59.88023952,6151ec9f471555755f408e15,65d6bb0e977760de756971f7,65d6bf1a56de2f00fa72f94a,0.0811,0.0812,1,61,223,80,1,fivesix,,,,,,,,,,,,,,,,,,,,,,,,,,,,,,,,,,,,,,,,,,,,,,,,,,,,,,,,,,,,,,,,,,,,,,,,,,,,,,,,,,,,,,,,,,,,,,,,,,,,,,,,,,,,,,,,,,,,,,,,,,,,,,,,,,,,,,,,,
,,6151ec9f471555755f408e15,2024-02-22_05h27.38.949,kallum_motion_pilot,2023.2.2,Win32,59.88023952,6151ec9f471555755f408e15,65d6bb0e977760de756971f7,65d6bf1a56de2f00fa72f94a,0.0814,0.0815,1,62,224,118,1,eightsix,,,,,,,,,,,,,,,,,,,,,,,,,,,,,,,,,,,,,,,,,,,,,,,,,,,,,,,,,,,,,,,,,,,,,,,,,,,,,,,,,,,,,,,,,,,,,,,,,,,,,,,,,,,,,,,,,,,,,,,,,,,,,,,,,,,,,,,,,
,,6151ec9f471555755f408e15,2024-02-22_05h27.38.949,kallum_motion_pilot,2023.2.2,Win32,59.88023952,6151ec9f471555755f408e15,65d6bb0e977760de756971f7,65d6bf1a56de2f00fa72f94a,0.0816,0.0817,1,63,225,141,1,seveneight,,,,,,,,,,,,,,,,,,,,,,,,,,,,,,,,,,,,,,,,,,,,,,,,,,,,,,,,,,,,,,,,,,,,,,,,,,,,,,,,,,,,,,,,,,,,,,,,,,,,,,,,,,,,,,,,,,,,,,,,,,,,,,,,,,,,,,,,,
,,6151ec9f471555755f408e15,2024-02-22_05h27.38.949,kallum_motion_pilot,2023.2.2,Win32,59.88023952,6151ec9f471555755f408e15,65d6bb0e977760de756971f7,65d6bf1a56de2f00fa72f94a,0.082,0.0821,1,64,226,77,1,threefour,,,,,,,,,,,,,,,,,,,,,,,,,,,,,,,,,,,,,,,,,,,,,,,,,,,,,,,,,,,,,,,,,,,,,,,,,,,,,,,,,,,,,,,,,,,,,,,,,,,,,,,,,,,,,,,,,,,,,,,,,,,,,,,,,,,,,,,,,
,,6151ec9f471555755f408e15,2024-02-22_05h27.38.949,kallum_motion_pilot,2023.2.2,Win32,59.88023952,6151ec9f471555755f408e15,65d6bb0e977760de756971f7,65d6bf1a56de2f00fa72f94a,0.0823,0.0825,1,65,227,11,1,twofour,,,,,,,,,,,,,,,,,,,,,,,,,,,,,,,,,,,,,,,,,,,,,,,,,,,,,,,,,,,,,,,,,,,,,,,,,,,,,,,,,,,,,,,,,,,,,,,,,,,,,,,,,,,,,,,,,,,,,,,,,,,,,,,,,,,,,,,,,
,,6151ec9f471555755f408e15,2024-02-22_05h27.38.949,kallum_motion_pilot,2023.2.2,Win32,59.88023952,6151ec9f471555755f408e15,65d6bb0e977760de756971f7,65d6bf1a56de2f00fa72f94a,0.0826,0.0827,1,66,228,132,1,sevenfive,,,,,,,,,,,,,,,,,,,,,,,,,,,,,,,,,,,,,,,,,,,,,,,,,,,,,,,,,,,,,,,,,,,,,,,,,,,,,,,,,,,,,,,,,,,,,,,,,,,,,,,,,,,,,,,,,,,,,,,,,,,,,,,,,,,,,,,,,
,,6151ec9f471555755f408e15,2024-02-22_05h27.38.949,kallum_motion_pilot,2023.2.2,Win32,59.88023952,6151ec9f471555755f408e15,65d6bb0e977760de756971f7,65d6bf1a56de2f00fa72f94a,0.0828,0.083,1,67,229,131,1,sixeight,,,,,,,,,,,,,,,,,,,,,,,,,,,,,,,,,,,,,,,,,,,,,,,,,,,,,,,,,,,,,,,,,,,,,,,,,,,,,,,,,,,,,,,,,,,,,,,,,,,,,,,,,,,,,,,,,,,,,,,,,,,,,,,,,,,,,,,,,
,,6151ec9f471555755f408e15,2024-02-22_05h27.38.949,kallum_motion_pilot,2023.2.2,Win32,59.88023952,6151ec9f471555755f408e15,65d6bb0e977760de756971f7,65d6bf1a56de2f00fa72f94a,0.0831,0.0833,1,68,230,34,1,twoone,,,,,,,,,,,,,,,,,,,,,,,,,,,,,,,,,,,,,,,,,,,,,,,,,,,,,,,,,,,,,,,,,,,,,,,,,,,,,,,,,,,,,,,,,,,,,,,,,,,,,,,,,,,,,,,,,,,,,,,,,,,,,,,,,,,,,,,,,
,,6151ec9f471555755f408e15,2024-02-22_05h27.38.949,kallum_motion_pilot,2023.2.2,Win32,59.88023952,6151ec9f471555755f408e15,65d6bb0e977760de756971f7,65d6bf1a56de2f00fa72f94a,0.0834,0.0834,1,69,231,46,1,fourtwo,,,,,,,,,,,,,,,,,,,,,,,,,,,,,,,,,,,,,,,,,,,,,,,,,,,,,,,,,,,,,,,,,,,,,,,,,,,,,,,,,,,,,,,,,,,,,,,,,,,,,,,,,,,,,,,,,,,,,,,,,,,,,,,,,,,,,,,,,
,,6151ec9f471555755f408e15,2024-02-22_05h27.38.949,kallum_motion_pilot,2023.2.2,Win32,59.88023952,6151ec9f471555755f408e15,65d6bb0e977760de756971f7,65d6bf1a56de2f00fa72f94a,0.0836,0.0837,1,70,232,47,1,fourthree,,,,,,,,,,,,,,,,,,,,,,,,,,,,,,,,,,,,,,,,,,,,,,,,,,,,,,,,,,,,,,,,,,,,,,,,,,,,,,,,,,,,,,,,,,,,,,,,,,,,,,,,,,,,,,,,,,,,,,,,,,,,,,,,,,,,,,,,,
,,6151ec9f471555755f408e15,2024-02-22_05h27.38.949,kallum_motion_pilot,2023.2.2,Win32,59.88023952,6151ec9f471555755f408e15,65d6bb0e977760de756971f7,65d6bf1a56de2f00fa72f94a,0.0838,0.0839,1,71,233,35,1,twofour,,,,,,,,,,,,,,,,,,,,,,,,,,,,,,,,,,,,,,,,,,,,,,,,,,,,,,,,,,,,,,,,,,,,,,,,,,,,,,,,,,,,,,,,,,,,,,,,,,,,,,,,,,,,,,,,,,,,,,,,,,,,,,,,,,,,,,,,,
,,6151ec9f471555755f408e15,2024-02-22_05h27.38.949,kallum_motion_pilot,2023.2.2,Win32,59.88023952,6151ec9f471555755f408e15,65d6bb0e977760de756971f7,65d6bf1a56de2f00fa72f94a,0.084,0.0841,1,72,234,115,1,sixeight,,,,,,,,,,,,,,,,,,,,,,,,,,,,,,,,,,,,,,,,,,,,,,,,,,,,,,,,,,,,,,,,,,,,,,,,,,,,,,,,,,,,,,,,,,,,,,,,,,,,,,,,,,,,,,,,,,,,,,,,,,,,,,,,,,,,,,,,,
,,6151ec9f471555755f408e15,2024-02-22_05h27.38.949,kallum_motion_pilot,2023.2.2,Win32,59.88023952,6151ec9f471555755f408e15,65d6bb0e977760de756971f7,65d6bf1a56de2f00fa72f94a,0.0842,0.0843,1,73,235,13,1,threefour,,,,,,,,,,,,,,,,,,,,,,,,,,,,,,,,,,,,,,,,,,,,,,,,,,,,,,,,,,,,,,,,,,,,,,,,,,,,,,,,,,,,,,,,,,,,,,,,,,,,,,,,,,,,,,,,,,,,,,,,,,,,,,,,,,,,,,,,,
,,6151ec9f471555755f408e15,2024-02-22_05h27.38.949,kallum_motion_pilot,2023.2.2,Win32,59.88023952,6151ec9f471555755f408e15,65d6bb0e977760de756971f7,65d6bf1a56de2f00fa72f94a,0.0845,0.0846,1,74,236,75,1,twofour,,,,,,,,,,,,,,,,,,,,,,,,,,,,,,,,,,,,,,,,,,,,,,,,,,,,,,,,,,,,,,,,,,,,,,,,,,,,,,,,,,,,,,,,,,,,,,,,,,,,,,,,,,,,,,,,,,,,,,,,,,,,,,,,,,,,,,,,,
,,6151ec9f471555755f408e15,2024-02-22_05h27.38.949,kallum_motion_pilot,2023.2.2,Win32,59.88023952,6151ec9f471555755f408e15,65d6bb0e977760de756971f7,65d6bf1a56de2f00fa72f94a,0.0846,0.0847,1,75,237,33,1,onethree,,,,,,,,,,,,,,,,,,,,,,,,,,,,,,,,,,,,,,,,,,,,,,,,,,,,,,,,,,,,,,,,,,,,,,,,,,,,,,,,,,,,,,,,,,,,,,,,,,,,,,,,,,,,,,,,,,,,,,,,,,,,,,,,,,,,,,,,,
,,6151ec9f471555755f408e15,2024-02-22_05h27.38.949,kallum_motion_pilot,2023.2.2,Win32,59.88023952,6151ec9f471555755f408e15,65d6bb0e977760de756971f7,65d6bf1a56de2f00fa72f94a,0.0849,0.085,1,76,238,37,1,threefour,,,,,,,,,,,,,,,,,,,,,,,,,,,,,,,,,,,,,,,,,,,,,,,,,,,,,,,,,,,,,,,,,,,,,,,,,,,,,,,,,,,,,,,,,,,,,,,,,,,,,,,,,,,,,,,,,,,,,,,,,,,,,,,,,,,,,,,,,
,,6151ec9f471555755f408e15,2024-02-22_05h27.38.949,kallum_motion_pilot,2023.2.2,Win32,59.88023952,6151ec9f471555755f408e15,65d6bb0e977760de756971f7,65d6bf1a56de2f00fa72f94a,0.0851,0.0851,1,77,239,4,1,threeone,,,,,,,,,,,,,,,,,,,,,,,,,,,,,,,,,,,,,,,,,,,,,,,,,,,,,,,,,,,,,,,,,,,,,,,,,,,,,,,,,,,,,,,,,,,,,,,,,,,,,,,,,,,,,,,,,,,,,,,,,,,,,,,,,,,,,,,,,
,,6151ec9f471555755f408e15,2024-02-22_05h27.38.949,kallum_motion_pilot,2023.2.2,Win32,59.88023952,6151ec9f471555755f408e15,65d6bb0e977760de756971f7,65d6bf1a56de2f00fa72f94a,0.0853,0.0854,1,78,240,102,1,eightsix,,,,,,,,,,,,,,,,,,,,,,,,,,,,,,,,,,,,,,,,,,,,,,,,,,,,,,,,,,,,,,,,,,,,,,,,,,,,,,,,,,,,,,,,,,,,,,,,,,,,,,,,,,,,,,,,,,,,,,,,,,,,,,,,,,,,,,,,,
,,6151ec9f471555755f408e15,2024-02-22_05h27.38.949,kallum_motion_pilot,2023.2.2,Win32,59.88023952,6151ec9f471555755f408e15,65d6bb0e977760de756971f7,65d6bf1a56de2f00fa72f94a,0.0855,0.0856,1,79,241,137,1,fiveseven,,,,,,,,,,,,,,,,,,,,,,,,,,,,,,,,,,,,,,,,,,,,,,,,,,,,,,,,,,,,,,,,,,,,,,,,,,,,,,,,,,,,,,,,,,,,,,,,,,,,,,,,,,,,,,,,,,,,,,,,,,,,,,,,,,,,,,,,,
,,6151ec9f471555755f408e15,2024-02-22_05h27.38.949,kallum_motion_pilot,2023.2.2,Win32,59.88023952,6151ec9f471555755f408e15,65d6bb0e977760de756971f7,65d6bf1a56de2f00fa72f94a,0.0857,0.0858,1,80,242,113,1,fiveseven,,,,,,,,,,,,,,,,,,,,,,,,,,,,,,,,,,,,,,,,,,,,,,,,,,,,,,,,,,,,,,,,,,,,,,,,,,,,,,,,,,,,,,,,,,,,,,,,,,,,,,,,,,,,,,,,,,,,,,,,,,,,,,,,,,,,,,,,,
,,6151ec9f471555755f408e15,2024-02-22_05h27.38.949,kallum_motion_pilot,2023.2.2,Win32,59.88023952,6151ec9f471555755f408e15,65d6bb0e977760de756971f7,65d6bf1a56de2f00fa72f94a,0.0859,0.0861,1,81,243,139,1,sixeight,,,,,,,,,,,,,,,,,,,,,,,,,,,,,,,,,,,,,,,,,,,,,,,,,,,,,,,,,,,,,,,,,,,,,,,,,,,,,,,,,,,,,,,,,,,,,,,,,,,,,,,,,,,,,,,,,,,,,,,,,,,,,,,,,,,,,,,,,
,,6151ec9f471555755f408e15,2024-02-22_05h27.38.949,kallum_motion_pilot,2023.2.2,Win32,59.88023952,6151ec9f471555755f408e15,65d6bb0e977760de756971f7,65d6bf1a56de2f00fa72f94a,0.0861,0.0862,1,82,244,100,1,sevenfive,,,,,,,,,,,,,,,,,,,,,,,,,,,,,,,,,,,,,,,,,,,,,,,,,,,,,,,,,,,,,,,,,,,,,,,,,,,,,,,,,,,,,,,,,,,,,,,,,,,,,,,,,,,,,,,,,,,,,,,,,,,,,,,,,,,,,,,,,
,,6151ec9f471555755f408e15,2024-02-22_05h27.38.949,kallum_motion_pilot,2023.2.2,Win32,59.88023952,6151ec9f471555755f408e15,65d6bb0e977760de756971f7,65d6bf1a56de2f00fa72f94a,0.0863,0.0864,1,83,245,3,1,twofour,,,,,,,,,,,,,,,,,,,,,,,,,,,,,,,,,,,,,,,,,,,,,,,,,,,,,,,,,,,,,,,,,,,,,,,,,,,,,,,,,,,,,,,,,,,,,,,,,,,,,,,,,,,,,,,,,,,,,,,,,,,,,,,,,,,,,,,,,
,,6151ec9f471555755f408e15,2024-02-22_05h27.38.949,kallum_motion_pilot,2023.2.2,Win32,59.88023952,6151ec9f471555755f408e15,65d6bb0e977760de756971f7,65d6bf1a56de2f00fa72f94a,0.0865,0.0866,1,84,246,126,1,eightsix,,,,,,,,,,,,,,,,,,,,,,,,,,,,,,,,,,,,,,,,,,,,,,,,,,,,,,,,,,,,,,,,,,,,,,,,,,,,,,,,,,,,,,,,,,,,,,,,,,,,,,,,,,,,,,,,,,,,,,,,,,,,,,,,,,,,,,,,,
,,6151ec9f471555755f408e15,2024-02-22_05h27.38.949,kallum_motion_pilot,2023.2.2,Win32,59.88023952,6151ec9f471555755f408e15,65d6bb0e977760de756971f7,65d6bf1a56de2f00fa72f94a,0.0867,0.0868,1,85,247,101,1,seveneight,,,,,,,,,,,,,,,,,,,,,,,,,,,,,,,,,,,,,,,,,,,,,,,,,,,,,,,,,,,,,,,,,,,,,,,,,,,,,,,,,,,,,,,,,,,,,,,,,,,,,,,,,,,,,,,,,,,,,,,,,,,,,,,,,,,,,,,,,
,,6151ec9f471555755f408e15,2024-02-22_05h27.38.949,kallum_motion_pilot,2023.2.2,Win32,59.88023952,6151ec9f471555755f408e15,65d6bb0e977760de756971f7,65d6bf1a56de2f00fa72f94a,0.087,0.0871,1,86,248,157,1,seveneight,,,,,,,,,,,,,,,,,,,,,,,,,,,,,,,,,,,,,,,,,,,,,,,,,,,,,,,,,,,,,,,,,,,,,,,,,,,,,,,,,,,,,,,,,,,,,,,,,,,,,,,,,,,,,,,,,,,,,,,,,,,,,,,,,,,,,,,,,
,,6151ec9f471555755f408e15,2024-02-22_05h27.38.949,kallum_motion_pilot,2023.2.2,Win32,59.88023952,6151ec9f471555755f408e15,65d6bb0e977760de756971f7,65d6bf1a56de2f00fa72f94a,0.0871,0.0873,1,87,249,67,1,twofour,,,,,,,,,,,,,,,,,,,,,,,,,,,,,,,,,,,,,,,,,,,,,,,,,,,,,,,,,,,,,,,,,,,,,,,,,,,,,,,,,,,,,,,,,,,,,,,,,,,,,,,,,,,,,,,,,,,,,,,,,,,,,,,,,,,,,,,,,
,,6151ec9f471555755f408e15,2024-02-22_05h27.38.949,kallum_motion_pilot,2023.2.2,Win32,59.88023952,6151ec9f471555755f408e15,65d6bb0e977760de756971f7,65d6bf1a56de2f00fa72f94a,0.0873,0.0875,1,88,250,146,1,sixfive,,,,,,,,,,,,,,,,,,,,,,,,,,,,,,,,,,,,,,,,,,,,,,,,,,,,,,,,,,,,,,,,,,,,,,,,,,,,,,,,,,,,,,,,,,,,,,,,,,,,,,,,,,,,,,,,,,,,,,,,,,,,,,,,,,,,,,,,,
,,6151ec9f471555755f408e15,2024-02-22_05h27.38.949,kallum_motion_pilot,2023.2.2,Win32,59.88023952,6151ec9f471555755f408e15,65d6bb0e977760de756971f7,65d6bf1a56de2f00fa72f94a,0.0875,0.0877,1,89,251,52,1,threeone,,,,,,,,,,,,,,,,,,,,,,,,,,,,,,,,,,,,,,,,,,,,,,,,,,,,,,,,,,,,,,,,,,,,,,,,,,,,,,,,,,,,,,,,,,,,,,,,,,,,,,,,,,,,,,,,,,,,,,,,,,,,,,,,,,,,,,,,,
,,6151ec9f471555755f408e15,2024-02-22_05h27.38.949,kallum_motion_pilot,2023.2.2,Win32,59.88023952,6151ec9f471555755f408e15,65d6bb0e977760de756971f7,65d6bf1a56de2f00fa72f94a,0.0877,0.0879,1,90,252,62,1,fourtwo,,,,,,,,,,,,,,,,,,,,,,,,,,,,,,,,,,,,,,,,,,,,,,,,,,,,,,,,,,,,,,,,,,,,,,,,,,,,,,,,,,,,,,,,,,,,,,,,,,,,,,,,,,,,,,,,,,,,,,,,,,,,,,,,,,,,,,,,,
,,6151ec9f471555755f408e15,2024-02-22_05h27.38.949,kallum_motion_pilot,2023.2.2,Win32,59.88023952,6151ec9f471555755f408e15,65d6bb0e977760de756971f7,65d6bf1a56de2f00fa72f94a,0.088,0.088,1,91,253,20,1,threeone,,,,,,,,,,,,,,,,,,,,,,,,,,,,,,,,,,,,,,,,,,,,,,,,,,,,,,,,,,,,,,,,,,,,,,,,,,,,,,,,,,,,,,,,,,,,,,,,,,,,,,,,,,,,,,,,,,,,,,,,,,,,,,,,,,,,,,,,,
,,6151ec9f471555755f408e15,2024-02-22_05h27.38.949,kallum_motion_pilot,2023.2.2,Win32,59.88023952,6151ec9f471555755f408e15,65d6bb0e977760de756971f7,65d6bf1a56de2f00fa72f94a,0.0882,0.0883,1,92,254,66,1,twoone,,,,,,,,,,,,,,,,,,,,,,,,,,,,,,,,,,,,,,,,,,,,,,,,,,,,,,,,,,,,,,,,,,,,,,,,,,,,,,,,,,,,,,,,,,,,,,,,,,,,,,,,,,,,,,,,,,,,,,,,,,,,,,,,,,,,,,,,,
,,6151ec9f471555755f408e15,2024-02-22_05h27.38.949,kallum_motion_pilot,2023.2.2,Win32,59.88023952,6151ec9f471555755f408e15,65d6bb0e977760de756971f7,65d6bf1a56de2f00fa72f94a,0.0884,0.0886,1,93,255,45,1,threefour,,,,,,,,,,,,,,,,,,,,,,,,,,,,,,,,,,,,,,,,,,,,,,,,,,,,,,,,,,,,,,,,,,,,,,,,,,,,,,,,,,,,,,,,,,,,,,,,,,,,,,,,,,,,,,,,,,,,,,,,,,,,,,,,,,,,,,,,,
,,6151ec9f471555755f408e15,2024-02-22_05h27.38.949,kallum_motion_pilot,2023.2.2,Win32,59.88023952,6151ec9f471555755f408e15,65d6bb0e977760de756971f7,65d6bf1a56de2f00fa72f94a,0.0887,0.0888,1,94,256,142,1,eightsix,,,,,,,,,,,,,,,,,,,,,,,,,,,,,,,,,,,,,,,,,,,,,,,,,,,,,,,,,,,,,,,,,,,,,,,,,,,,,,,,,,,,,,,,,,,,,,,,,,,,,,,,,,,,,,,,,,,,,,,,,,,,,,,,,,,,,,,,,
,,6151ec9f471555755f408e15,2024-02-22_05h27.38.949,kallum_motion_pilot,2023.2.2,Win32,59.88023952,6151ec9f471555755f408e15,65d6bb0e977760de756971f7,65d6bf1a56de2f00fa72f94a,0.0889,0.089,1,95,257,98,1,sixfive,,,,,,,,,,,,,,,,,,,,,,,,,,,,,,,,,,,,,,,,,,,,,,,,,,,,,,,,,,,,,,,,,,,,,,,,,,,,,,,,,,,,,,,,,,,,,,,,,,,,,,,,,,,,,,,,,,,,,,,,,,,,,,,,,,,,,,,,,
,,6151ec9f471555755f408e15,2024-02-22_05h27.38.949,kallum_motion_pilot,2023.2.2,Win32,59.88023952,6151ec9f471555755f408e15,65d6bb0e977760de756971f7,65d6bf1a56de2f00fa72f94a,0.0891,0.0892,1,96,258,105,1,fiveseven,,,,,,,,,,,,,,,,,,,,,,,,,,,,,,,,,,,,,,,,,,,,,,,,,,,,,,,,,,,,,,,,,,,,,,,,,,,,,,,,,,,,,,,,,,,,,,,,,,,,,,,,,,,,,,,,,,,,,,,,,,,,,,,,,,,,,,,,,
,,6151ec9f471555755f408e15,2024-02-22_05h27.38.949,kallum_motion_pilot,2023.2.2,Win32,59.88023952,6151ec9f471555755f408e15,65d6bb0e977760de756971f7,65d6bf1a56de2f00fa72f94a,0.0893,0.0894,1,97,259,110,1,eightsix,,,,,,,,,,,,,,,,,,,,,,,,,,,,,,,,,,,,,,,,,,,,,,,,,,,,,,,,,,,,,,,,,,,,,,,,,,,,,,,,,,,,,,,,,,,,,,,,,,,,,,,,,,,,,,,,,,,,,,,,,,,,,,,,,,,,,,,,,
,,6151ec9f471555755f408e15,2024-02-22_05h27.38.949,kallum_motion_pilot,2023.2.2,Win32,59.88023952,6151ec9f471555755f408e15,65d6bb0e977760de756971f7,65d6bf1a56de2f00fa72f94a,0.0895,0.0896,1,98,260,150,1,eightsix,,,,,,,,,,,,,,,,,,,,,,,,,,,,,,,,,,,,,,,,,,,,,,,,,,,,,,,,,,,,,,,,,,,,,,,,,,,,,,,,,,,,,,,,,,,,,,,,,,,,,,,,,,,,,,,,,,,,,,,,,,,,,,,,,,,,,,,,,
,,6151ec9f471555755f408e15,2024-02-22_05h27.38.949,kallum_motion_pilot,2023.2.2,Win32,59.88023952,6151ec9f471555755f408e15,65d6bb0e977760de756971f7,65d6bf1a56de2f00fa72f94a,0.0897,0.0898,1,99,261,155,1,sixeight,,,,,,,,,,,,,,,,,,,,,,,,,,,,,,,,,,,,,,,,,,,,,,,,,,,,,,,,,,,,,,,,,,,,,,,,,,,,,,,,,,,,,,,,,,,,,,,,,,,,,,,,,,,,,,,,,,,,,,,,,,,,,,,,,,,,,,,,,
,,6151ec9f471555755f408e15,2024-02-22_05h27.38.949,kallum_motion_pilot,2023.2.2,Win32,59.88023952,6151ec9f471555755f408e15,65d6bb0e977760de756971f7,65d6bf1a56de2f00fa72f94a,0.09,0.0901,1,100,262,19,1,twofour,,,,,,,,,,,,,,,,,,,,,,,,,,,,,,,,,,,,,,,,,,,,,,,,,,,,,,,,,,,,,,,,,,,,,,,,,,,,,,,,,,,,,,,,,,,,,,,,,,,,,,,,,,,,,,,,,,,,,,,,,,,,,,,,,,,,,,,,,
,,6151ec9f471555755f408e15,2024-02-22_05h27.38.949,kallum_motion_pilot,2023.2.2,Win32,59.88023952,6151ec9f471555755f408e15,65d6bb0e977760de756971f7,65d6bf1a56de2f00fa72f94a,0.0901,0.0903,1,101,263,148,1,sevenfive,,,,,,,,,,,,,,,,,,,,,,,,,,,,,,,,,,,,,,,,,,,,,,,,,,,,,,,,,,,,,,,,,,,,,,,,,,,,,,,,,,,,,,,,,,,,,,,,,,,,,,,,,,,,,,,,,,,,,,,,,,,,,,,,,,,,,,,,,
,,6151ec9f471555755f408e15,2024-02-22_05h27.38.949,kallum_motion_pilot,2023.2.2,Win32,59.88023952,6151ec9f471555755f408e15,65d6bb0e977760de756971f7,65d6bf1a56de2f00fa72f94a,0.0905,0.0905,1,102,264,120,1,fivesix,,,,,,,,,,,,,,,,,,,,,,,,,,,,,,,,,,,,,,,,,,,,,,,,,,,,,,,,,,,,,,,,,,,,,,,,,,,,,,,,,,,,,,,,,,,,,,,,,,,,,,,,,,,,,,,,,,,,,,,,,,,,,,,,,,,,,,,,,
,,6151ec9f471555755f408e15,2024-02-22_05h27.38.949,kallum_motion_pilot,2023.2.2,Win32,59.88023952,6151ec9f471555755f408e15,65d6bb0e977760de756971f7,65d6bf1a56de2f00fa72f94a,0.0907,0.0908,1,103,265,158,1,eightsix,,,,,,,,,,,,,,,,,,,,,,,,,,,,,,,,,,,,,,,,,,,,,,,,,,,,,,,,,,,,,,,,,,,,,,,,,,,,,,,,,,,,,,,,,,,,,,,,,,,,,,,,,,,,,,,,,,,,,,,,,,,,,,,,,,,,,,,,,
,,6151ec9f471555755f408e15,2024-02-22_05h27.38.949,kallum_motion_pilot,2023.2.2,Win32,59.88023952,6151ec9f471555755f408e15,65d6bb0e977760de756971f7,65d6bf1a56de2f00fa72f94a,0.091,0.091,1,104,266,69,1,threefour,,,,,,,,,,,,,,,,,,,,,,,,,,,,,,,,,,,,,,,,,,,,,,,,,,,,,,,,,,,,,,,,,,,,,,,,,,,,,,,,,,,,,,,,,,,,,,,,,,,,,,,,,,,,,,,,,,,,,,,,,,,,,,,,,,,,,,,,,
,,6151ec9f471555755f408e15,2024-02-22_05h27.38.949,kallum_motion_pilot,2023.2.2,Win32,59.88023952,6151ec9f471555755f408e15,65d6bb0e977760de756971f7,65d6bf1a56de2f00fa72f94a,0.0912,0.0913,1,105,267,145,1,fiveseven,,,,,,,,,,,,,,,,,,,,,,,,,,,,,,,,,,,,,,,,,,,,,,,,,,,,,,,,,,,,,,,,,,,,,,,,,,,,,,,,,,,,,,,,,,,,,,,,,,,,,,,,,,,,,,,,,,,,,,,,,,,,,,,,,,,,,,,,,
,,6151ec9f471555755f408e15,2024-02-22_05h27.38.949,kallum_motion_pilot,2023.2.2,Win32,59.88023952,6151ec9f471555755f408e15,65d6bb0e977760de756971f7,65d6bf1a56de2f00fa72f94a,0.0914,0.0915,1,106,268,28,1,threeone,,,,,,,,,,,,,,,,,,,,,,,,,,,,,,,,,,,,,,,,,,,,,,,,,,,,,,,,,,,,,,,,,,,,,,,,,,,,,,,,,,,,,,,,,,,,,,,,,,,,,,,,,,,,,,,,,,,,,,,,,,,,,,,,,,,,,,,,,
,,6151ec9f471555755f408e15,2024-02-22_05h27.38.949,kallum_motion_pilot,2023.2.2,Win32,59.88023952,6151ec9f471555755f408e15,65d6bb0e977760de756971f7,65d6bf1a56de2f00fa72f94a,0.0917,0.0918,1,107,269,22,1,fourtwo,,,,,,,,,,,,,,,,,,,,,,,,,,,,,,,,,,,,,,,,,,,,,,,,,,,,,,,,,,,,,,,,,,,,,,,,,,,,,,,,,,,,,,,,,,,,,,,,,,,,,,,,,,,,,,,,,,,,,,,,,,,,,,,,,,,,,,,,,
,,6151ec9f471555755f408e15,2024-02-22_05h27.38.949,kallum_motion_pilot,2023.2.2,Win32,59.88023952,6151ec9f471555755f408e15,65d6bb0e977760de756971f7,65d6bf1a56de2f00fa72f94a,0.0919,0.092,1,108,270,59,1,twofour,,,,,,,,,,,,,,,,,,,,,,,,,,,,,,,,,,,,,,,,,,,,,,,,,,,,,,,,,,,,,,,,,,,,,,,,,,,,,,,,,,,,,,,,,,,,,,,,,,,,,,,,,,,,,,,,,,,,,,,,,,,,,,,,,,,,,,,,,
,,6151ec9f471555755f408e15,2024-02-22_05h27.38.949,kallum_motion_pilot,2023.2.2,Win32,59.88023952,6151ec9f471555755f408e15,65d6bb0e977760de756971f7,65d6bf1a56de2f00fa72f94a,0.0921,0.0922,1,109,271,70,1,fourtwo,,,,,,,,,,,,,,,,,,,,,,,,,,,,,,,,,,,,,,,,,,,,,,,,,,,,,,,,,,,,,,,,,,,,,,,,,,,,,,,,,,,,,,,,,,,,,,,,,,,,,,,,,,,,,,,,,,,,,,,,,,,,,,,,,,,,,,,,,
,,6151ec9f471555755f408e15,2024-02-22_05h27.38.949,kallum_motion_pilot,2023.2.2,Win32,59.88023952,6151ec9f471555755f408e15,65d6bb0e977760de756971f7,65d6bf1a56de2f00fa72f94a,0.0924,0.0924,1,110,272,76,1,threeone,,,,,,,,,,,,,,,,,,,,,,,,,,,,,,,,,,,,,,,,,,,,,,,,,,,,,,,,,,,,,,,,,,,,,,,,,,,,,,,,,,,,,,,,,,,,,,,,,,,,,,,,,,,,,,,,,,,,,,,,,,,,,,,,,,,,,,,,,
,,6151ec9f471555755f408e15,2024-02-22_05h27.38.949,kallum_motion_pilot,2023.2.2,Win32,59.88023952,6151ec9f471555755f408e15,65d6bb0e977760de756971f7,65d6bf1a56de2f00fa72f94a,0.0925,0.0926,1,111,273,114,1,sixfive,,,,,,,,,,,,,,,,,,,,,,,,,,,,,,,,,,,,,,,,,,,,,,,,,,,,,,,,,,,,,,,,,,,,,,,,,,,,,,,,,,,,,,,,,,,,,,,,,,,,,,,,,,,,,,,,,,,,,,,,,,,,,,,,,,,,,,,,,
,,6151ec9f471555755f408e15,2024-02-22_05h27.38.949,kallum_motion_pilot,2023.2.2,Win32,59.88023952,6151ec9f471555755f408e15,65d6bb0e977760de756971f7,65d6bf1a56de2f00fa72f94a,0.0927,0.0929,1,112,274,104,1,fivesix,,,,,,,,,,,,,,,,,,,,,,,,,,,,,,,,,,,,,,,,,,,,,,,,,,,,,,,,,,,,,,,,,,,,,,,,,,,,,,,,,,,,,,,,,,,,,,,,,,,,,,,,,,,,,,,,,,,,,,,,,,,,,,,,,,,,,,,,,
,,6151ec9f471555755f408e15,2024-02-22_05h27.38.949,kallum_motion_pilot,2023.2.2,Win32,59.88023952,6151ec9f471555755f408e15,65d6bb0e977760de756971f7,65d6bf1a56de2f00fa72f94a,0.0938,0.0939,1,113,275,1,1,onethree,,,,,,,,,,,,,,,,,,,,,,,,,,,,,,,,,,,,,,,,,,,,,,,,,,,,,,,,,,,,,,,,,,,,,,,,,,,,,,,,,,,,,,,,,,,,,,,,,,,,,,,,,,,,,,,,,,,,,,,,,,,,,,,,,,,,,,,,,
,,6151ec9f471555755f408e15,2024-02-22_05h27.38.949,kallum_motion_pilot,2023.2.2,Win32,59.88023952,6151ec9f471555755f408e15,65d6bb0e977760de756971f7,65d6bf1a56de2f00fa72f94a,0.0941,0.0941,1,114,276,44,1,threeone,,,,,,,,,,,,,,,,,,,,,,,,,,,,,,,,,,,,,,,,,,,,,,,,,,,,,,,,,,,,,,,,,,,,,,,,,,,,,,,,,,,,,,,,,,,,,,,,,,,,,,,,,,,,,,,,,,,,,,,,,,,,,,,,,,,,,,,,,
,,6151ec9f471555755f408e15,2024-02-22_05h27.38.949,kallum_motion_pilot,2023.2.2,Win32,59.88023952,6151ec9f471555755f408e15,65d6bb0e977760de756971f7,65d6bf1a56de2f00fa72f94a,0.0943,0.0943,1,115,277,95,1,eightseven,,,,,,,,,,,,,,,,,,,,,,,,,,,,,,,,,,,,,,,,,,,,,,,,,,,,,,,,,,,,,,,,,,,,,,,,,,,,,,,,,,,,,,,,,,,,,,,,,,,,,,,,,,,,,,,,,,,,,,,,,,,,,,,,,,,,,,,,,
