startup.started,startup.stopped,Prolific ID*,date,expName,psychopyVersion,OS,frameRate,participant,study_id,session,stimpositions.started,stimpositions.stopped,hardcoded_stimulus_positions.thisRepN,hardcoded_stimulus_positions.thisTrialN,hardcoded_stimulus_positions.thisN,hardcoded_stimulus_positions.thisIndex,hardcoded_stimulus_positions.ran,StimulusPos,stimorientation.started,stimorientation.stopped,prac_stimorientation_import_loop.thisRepN,prac_stimorientation_import_loop.thisTrialN,prac_stimorientation_import_loop.thisN,prac_stimorientation_import_loop.thisIndex,prac_stimorientation_import_loop.ran,Stimorientation,welcome_instr.started,welcome_instr.stopped,key_resp.keys,key_resp.rt,key_resp.duration,response_steppedout_1.started,response_steppedout_1.stopped,key_resp_20.keys,key_resp_20.rt,key_resp_20.duration,response_steppedout_2.started,response_steppedout_2.stopped,key_resp_19.keys,key_resp_19.rt,key_resp_19.duration,stim_response_instr.started,stim_response_instr.stopped,key_resp_15.keys,key_resp_15.rt,key_resp_15.duration,direction_instr_2.started,direction_instr_2.stopped,key_resp_9.keys,key_resp_9.rt,key_resp_9.duration,instr_prac.started,instr_prac.stopped,key_resp_10.keys,key_resp_10.rt,key_resp_10.duration,Stim1_display_prac.started,Stim1_display_prac.stopped,Ecc,Circle1_ori,Circle2_ori,response_prac.started,similarity,response_time,response_prac.stopped,mouse_5.x,mouse_5.y,mouse_5.leftButton,mouse_5.midButton,mouse_5.rightButton,mouse_5.clicked_name,responseprac_feedback.started,responseprac_feedback.stopped,summary2_prac.started,summary2_prac.stopped,mouse_6.x,mouse_6.y,mouse_6.leftButton,mouse_6.midButton,mouse_6.rightButton,mouse_6.clicked_name,duringprac.thisRepN,duringprac.thisTrialN,duringprac.thisN,duringprac.thisIndex,duringprac.ran,begin.started,begin.stopped,key_resp_22.keys,key_resp_22.rt,key_resp_22.duration,Stim1_display.started,Stim1_display.stopped,circle1_ori,circle2_ori,circle1_SF,circle2_SF,response.started,response.stopped,mouse.x,mouse.y,mouse.leftButton,mouse.midButton,mouse.rightButton,mouse.clicked_name,trialnumber,double_pass.thisRepN,double_pass.thisTrialN,double_pass.thisN,double_pass.thisIndex,double_pass.ran,double_pass.order,main_trial.thisRepN,main_trial.thisTrialN,main_trial.thisN,main_trial.thisIndex,main_trial.ran,main_trial.order,Trial_Counter,Catch,Frequencies,response_2.started,response_2.stopped,mouse_2.x,mouse_2.y,mouse_2.leftButton,mouse_2.midButton,mouse_2.rightButton,mouse_2.clicked_name,special_trial.started,special_trial.stopped,catch_1.started,catch_1.stopped,mouse_3.x,mouse_3.y,mouse_3.leftButton,mouse_3.midButton,mouse_3.rightButton,catchresponse,catchnumber,response_time_catch,response_sum.started,response_sum.stopped,mouse_11.x,mouse_11.y,mouse_11.leftButton,mouse_11.midButton,mouse_11.rightButton,flip_presentation_sequence_for_double_pass.started,flip_presentation_sequence_for_double_pass.stopped,goodbye.started,goodbye.stopped,key_resp_3.keys,key_resp_3.rt,key_resp_3.duration
0.0003,0.0004,61533ead92c280c34cc22482,2024-02-22_03h14.01.929,kallum_motion_pilot,2023.2.2,Win32,163.9344262,61533ead92c280c34cc22482,65d6bb0e977760de756971f7,65d6bbeec7c0f830c49a8d46,,,,,,,,,,,,,,,,,,,,,,,,,,,,,,,,,,,,,,,,,,,,,,,,,,,,,,,,,,,,,,,,,,,,,,,,,,,,,,,,,,,,,,,,,,,,,,,,,,,,,,,,,,,,,,,,,,,,,,,,,,,,,,,,,,,,,,,,,,,,,,,,,
,,61533ead92c280c34cc22482,2024-02-22_03h14.01.929,kallum_motion_pilot,2023.2.2,Win32,163.9344262,61533ead92c280c34cc22482,65d6bb0e977760de756971f7,65d6bbeec7c0f830c49a8d46,0.0196,0.0198,0,0,0,79,1,eightseven,,,,,,,,,,,,,,,,,,,,,,,,,,,,,,,,,,,,,,,,,,,,,,,,,,,,,,,,,,,,,,,,,,,,,,,,,,,,,,,,,,,,,,,,,,,,,,,,,,,,,,,,,,,,,,,,,,,,,,,,,,,,,,,,,,,,,,,,,
,,61533ead92c280c34cc22482,2024-02-22_03h14.01.929,kallum_motion_pilot,2023.2.2,Win32,163.9344262,61533ead92c280c34cc22482,65d6bb0e977760de756971f7,65d6bbeec7c0f830c49a8d46,0.0199,0.0201,0,1,1,4,1,threeone,,,,,,,,,,,,,,,,,,,,,,,,,,,,,,,,,,,,,,,,,,,,,,,,,,,,,,,,,,,,,,,,,,,,,,,,,,,,,,,,,,,,,,,,,,,,,,,,,,,,,,,,,,,,,,,,,,,,,,,,,,,,,,,,,,,,,,,,,
,,61533ead92c280c34cc22482,2024-02-22_03h14.01.929,kallum_motion_pilot,2023.2.2,Win32,163.9344262,61533ead92c280c34cc22482,65d6bb0e977760de756971f7,65d6bbeec7c0f830c49a8d46,0.0202,0.0202,0,2,2,15,1,fourthree,,,,,,,,,,,,,,,,,,,,,,,,,,,,,,,,,,,,,,,,,,,,,,,,,,,,,,,,,,,,,,,,,,,,,,,,,,,,,,,,,,,,,,,,,,,,,,,,,,,,,,,,,,,,,,,,,,,,,,,,,,,,,,,,,,,,,,,,,
,,61533ead92c280c34cc22482,2024-02-22_03h14.01.929,kallum_motion_pilot,2023.2.2,Win32,163.9344262,61533ead92c280c34cc22482,65d6bb0e977760de756971f7,65d6bbeec7c0f830c49a8d46,0.0203,0.0203,0,3,3,97,1,fiveseven,,,,,,,,,,,,,,,,,,,,,,,,,,,,,,,,,,,,,,,,,,,,,,,,,,,,,,,,,,,,,,,,,,,,,,,,,,,,,,,,,,,,,,,,,,,,,,,,,,,,,,,,,,,,,,,,,,,,,,,,,,,,,,,,,,,,,,,,,
,,61533ead92c280c34cc22482,2024-02-22_03h14.01.929,kallum_motion_pilot,2023.2.2,Win32,163.9344262,61533ead92c280c34cc22482,65d6bb0e977760de756971f7,65d6bbeec7c0f830c49a8d46,0.0205,0.0205,0,4,4,143,1,eightseven,,,,,,,,,,,,,,,,,,,,,,,,,,,,,,,,,,,,,,,,,,,,,,,,,,,,,,,,,,,,,,,,,,,,,,,,,,,,,,,,,,,,,,,,,,,,,,,,,,,,,,,,,,,,,,,,,,,,,,,,,,,,,,,,,,,,,,,,,
,,61533ead92c280c34cc22482,2024-02-22_03h14.01.929,kallum_motion_pilot,2023.2.2,Win32,163.9344262,61533ead92c280c34cc22482,65d6bb0e977760de756971f7,65d6bbeec7c0f830c49a8d46,0.0206,0.0206,0,5,5,55,1,fourthree,,,,,,,,,,,,,,,,,,,,,,,,,,,,,,,,,,,,,,,,,,,,,,,,,,,,,,,,,,,,,,,,,,,,,,,,,,,,,,,,,,,,,,,,,,,,,,,,,,,,,,,,,,,,,,,,,,,,,,,,,,,,,,,,,,,,,,,,,
,,61533ead92c280c34cc22482,2024-02-22_03h14.01.929,kallum_motion_pilot,2023.2.2,Win32,163.9344262,61533ead92c280c34cc22482,65d6bb0e977760de756971f7,65d6bbeec7c0f830c49a8d46,0.0207,0.0208,0,6,6,123,1,sixeight,,,,,,,,,,,,,,,,,,,,,,,,,,,,,,,,,,,,,,,,,,,,,,,,,,,,,,,,,,,,,,,,,,,,,,,,,,,,,,,,,,,,,,,,,,,,,,,,,,,,,,,,,,,,,,,,,,,,,,,,,,,,,,,,,,,,,,,,,
,,61533ead92c280c34cc22482,2024-02-22_03h14.01.929,kallum_motion_pilot,2023.2.2,Win32,163.9344262,61533ead92c280c34cc22482,65d6bb0e977760de756971f7,65d6bbeec7c0f830c49a8d46,0.0209,0.0209,0,7,7,136,1,fivesix,,,,,,,,,,,,,,,,,,,,,,,,,,,,,,,,,,,,,,,,,,,,,,,,,,,,,,,,,,,,,,,,,,,,,,,,,,,,,,,,,,,,,,,,,,,,,,,,,,,,,,,,,,,,,,,,,,,,,,,,,,,,,,,,,,,,,,,,,
,,61533ead92c280c34cc22482,2024-02-22_03h14.01.929,kallum_motion_pilot,2023.2.2,Win32,163.9344262,61533ead92c280c34cc22482,65d6bb0e977760de756971f7,65d6bbeec7c0f830c49a8d46,0.021,0.0211,0,8,8,37,1,threefour,,,,,,,,,,,,,,,,,,,,,,,,,,,,,,,,,,,,,,,,,,,,,,,,,,,,,,,,,,,,,,,,,,,,,,,,,,,,,,,,,,,,,,,,,,,,,,,,,,,,,,,,,,,,,,,,,,,,,,,,,,,,,,,,,,,,,,,,,
,,61533ead92c280c34cc22482,2024-02-22_03h14.01.929,kallum_motion_pilot,2023.2.2,Win32,163.9344262,61533ead92c280c34cc22482,65d6bb0e977760de756971f7,65d6bbeec7c0f830c49a8d46,0.0211,0.0212,0,9,9,76,1,threeone,,,,,,,,,,,,,,,,,,,,,,,,,,,,,,,,,,,,,,,,,,,,,,,,,,,,,,,,,,,,,,,,,,,,,,,,,,,,,,,,,,,,,,,,,,,,,,,,,,,,,,,,,,,,,,,,,,,,,,,,,,,,,,,,,,,,,,,,,
,,61533ead92c280c34cc22482,2024-02-22_03h14.01.929,kallum_motion_pilot,2023.2.2,Win32,163.9344262,61533ead92c280c34cc22482,65d6bb0e977760de756971f7,65d6bbeec7c0f830c49a8d46,0.0213,0.0213,0,10,10,122,1,sixfive,,,,,,,,,,,,,,,,,,,,,,,,,,,,,,,,,,,,,,,,,,,,,,,,,,,,,,,,,,,,,,,,,,,,,,,,,,,,,,,,,,,,,,,,,,,,,,,,,,,,,,,,,,,,,,,,,,,,,,,,,,,,,,,,,,,,,,,,,
,,61533ead92c280c34cc22482,2024-02-22_03h14.01.929,kallum_motion_pilot,2023.2.2,Win32,163.9344262,61533ead92c280c34cc22482,65d6bb0e977760de756971f7,65d6bbeec7c0f830c49a8d46,0.0215,0.0215,0,11,11,8,1,onetwo,,,,,,,,,,,,,,,,,,,,,,,,,,,,,,,,,,,,,,,,,,,,,,,,,,,,,,,,,,,,,,,,,,,,,,,,,,,,,,,,,,,,,,,,,,,,,,,,,,,,,,,,,,,,,,,,,,,,,,,,,,,,,,,,,,,,,,,,,
,,61533ead92c280c34cc22482,2024-02-22_03h14.01.929,kallum_motion_pilot,2023.2.2,Win32,163.9344262,61533ead92c280c34cc22482,65d6bb0e977760de756971f7,65d6bbeec7c0f830c49a8d46,0.0215,0.0216,0,12,12,133,1,seveneight,,,,,,,,,,,,,,,,,,,,,,,,,,,,,,,,,,,,,,,,,,,,,,,,,,,,,,,,,,,,,,,,,,,,,,,,,,,,,,,,,,,,,,,,,,,,,,,,,,,,,,,,,,,,,,,,,,,,,,,,,,,,,,,,,,,,,,,,,
,,61533ead92c280c34cc22482,2024-02-22_03h14.01.929,kallum_motion_pilot,2023.2.2,Win32,163.9344262,61533ead92c280c34cc22482,65d6bb0e977760de756971f7,65d6bbeec7c0f830c49a8d46,0.0217,0.0218,0,13,13,74,1,twoone,,,,,,,,,,,,,,,,,,,,,,,,,,,,,,,,,,,,,,,,,,,,,,,,,,,,,,,,,,,,,,,,,,,,,,,,,,,,,,,,,,,,,,,,,,,,,,,,,,,,,,,,,,,,,,,,,,,,,,,,,,,,,,,,,,,,,,,,,
,,61533ead92c280c34cc22482,2024-02-22_03h14.01.929,kallum_motion_pilot,2023.2.2,Win32,163.9344262,61533ead92c280c34cc22482,65d6bb0e977760de756971f7,65d6bbeec7c0f830c49a8d46,0.0219,0.0219,0,14,14,139,1,sixeight,,,,,,,,,,,,,,,,,,,,,,,,,,,,,,,,,,,,,,,,,,,,,,,,,,,,,,,,,,,,,,,,,,,,,,,,,,,,,,,,,,,,,,,,,,,,,,,,,,,,,,,,,,,,,,,,,,,,,,,,,,,,,,,,,,,,,,,,,
,,61533ead92c280c34cc22482,2024-02-22_03h14.01.929,kallum_motion_pilot,2023.2.2,Win32,163.9344262,61533ead92c280c34cc22482,65d6bb0e977760de756971f7,65d6bbeec7c0f830c49a8d46,0.0219,0.022,0,15,15,91,1,sixeight,,,,,,,,,,,,,,,,,,,,,,,,,,,,,,,,,,,,,,,,,,,,,,,,,,,,,,,,,,,,,,,,,,,,,,,,,,,,,,,,,,,,,,,,,,,,,,,,,,,,,,,,,,,,,,,,,,,,,,,,,,,,,,,,,,,,,,,,,
,,61533ead92c280c34cc22482,2024-02-22_03h14.01.929,kallum_motion_pilot,2023.2.2,Win32,163.9344262,61533ead92c280c34cc22482,65d6bb0e977760de756971f7,65d6bbeec7c0f830c49a8d46,0.022,0.0221,0,16,16,126,1,eightsix,,,,,,,,,,,,,,,,,,,,,,,,,,,,,,,,,,,,,,,,,,,,,,,,,,,,,,,,,,,,,,,,,,,,,,,,,,,,,,,,,,,,,,,,,,,,,,,,,,,,,,,,,,,,,,,,,,,,,,,,,,,,,,,,,,,,,,,,,
,,61533ead92c280c34cc22482,2024-02-22_03h14.01.929,kallum_motion_pilot,2023.2.2,Win32,163.9344262,61533ead92c280c34cc22482,65d6bb0e977760de756971f7,65d6bbeec7c0f830c49a8d46,0.0223,0.0223,0,17,17,86,1,eightsix,,,,,,,,,,,,,,,,,,,,,,,,,,,,,,,,,,,,,,,,,,,,,,,,,,,,,,,,,,,,,,,,,,,,,,,,,,,,,,,,,,,,,,,,,,,,,,,,,,,,,,,,,,,,,,,,,,,,,,,,,,,,,,,,,,,,,,,,,
,,61533ead92c280c34cc22482,2024-02-22_03h14.01.929,kallum_motion_pilot,2023.2.2,Win32,163.9344262,61533ead92c280c34cc22482,65d6bb0e977760de756971f7,65d6bbeec7c0f830c49a8d46,0.0224,0.0224,0,18,18,13,1,threefour,,,,,,,,,,,,,,,,,,,,,,,,,,,,,,,,,,,,,,,,,,,,,,,,,,,,,,,,,,,,,,,,,,,,,,,,,,,,,,,,,,,,,,,,,,,,,,,,,,,,,,,,,,,,,,,,,,,,,,,,,,,,,,,,,,,,,,,,,
,,61533ead92c280c34cc22482,2024-02-22_03h14.01.929,kallum_motion_pilot,2023.2.2,Win32,163.9344262,61533ead92c280c34cc22482,65d6bb0e977760de756971f7,65d6bbeec7c0f830c49a8d46,0.0224,0.0225,0,19,19,72,1,onetwo,,,,,,,,,,,,,,,,,,,,,,,,,,,,,,,,,,,,,,,,,,,,,,,,,,,,,,,,,,,,,,,,,,,,,,,,,,,,,,,,,,,,,,,,,,,,,,,,,,,,,,,,,,,,,,,,,,,,,,,,,,,,,,,,,,,,,,,,,
,,61533ead92c280c34cc22482,2024-02-22_03h14.01.929,kallum_motion_pilot,2023.2.2,Win32,163.9344262,61533ead92c280c34cc22482,65d6bb0e977760de756971f7,65d6bbeec7c0f830c49a8d46,0.0226,0.0226,0,20,20,42,1,twoone,,,,,,,,,,,,,,,,,,,,,,,,,,,,,,,,,,,,,,,,,,,,,,,,,,,,,,,,,,,,,,,,,,,,,,,,,,,,,,,,,,,,,,,,,,,,,,,,,,,,,,,,,,,,,,,,,,,,,,,,,,,,,,,,,,,,,,,,,
,,61533ead92c280c34cc22482,2024-02-22_03h14.01.929,kallum_motion_pilot,2023.2.2,Win32,163.9344262,61533ead92c280c34cc22482,65d6bb0e977760de756971f7,65d6bbeec7c0f830c49a8d46,0.0228,0.0228,0,21,21,135,1,eightseven,,,,,,,,,,,,,,,,,,,,,,,,,,,,,,,,,,,,,,,,,,,,,,,,,,,,,,,,,,,,,,,,,,,,,,,,,,,,,,,,,,,,,,,,,,,,,,,,,,,,,,,,,,,,,,,,,,,,,,,,,,,,,,,,,,,,,,,,,
,,61533ead92c280c34cc22482,2024-02-22_03h14.01.929,kallum_motion_pilot,2023.2.2,Win32,163.9344262,61533ead92c280c34cc22482,65d6bb0e977760de756971f7,65d6bbeec7c0f830c49a8d46,0.0229,0.0229,0,22,22,128,1,fivesix,,,,,,,,,,,,,,,,,,,,,,,,,,,,,,,,,,,,,,,,,,,,,,,,,,,,,,,,,,,,,,,,,,,,,,,,,,,,,,,,,,,,,,,,,,,,,,,,,,,,,,,,,,,,,,,,,,,,,,,,,,,,,,,,,,,,,,,,,
,,61533ead92c280c34cc22482,2024-02-22_03h14.01.929,kallum_motion_pilot,2023.2.2,Win32,163.9344262,61533ead92c280c34cc22482,65d6bb0e977760de756971f7,65d6bbeec7c0f830c49a8d46,0.023,0.0231,0,23,23,14,1,fourtwo,,,,,,,,,,,,,,,,,,,,,,,,,,,,,,,,,,,,,,,,,,,,,,,,,,,,,,,,,,,,,,,,,,,,,,,,,,,,,,,,,,,,,,,,,,,,,,,,,,,,,,,,,,,,,,,,,,,,,,,,,,,,,,,,,,,,,,,,,
,,61533ead92c280c34cc22482,2024-02-22_03h14.01.929,kallum_motion_pilot,2023.2.2,Win32,163.9344262,61533ead92c280c34cc22482,65d6bb0e977760de756971f7,65d6bbeec7c0f830c49a8d46,0.0232,0.0232,0,24,24,54,1,fourtwo,,,,,,,,,,,,,,,,,,,,,,,,,,,,,,,,,,,,,,,,,,,,,,,,,,,,,,,,,,,,,,,,,,,,,,,,,,,,,,,,,,,,,,,,,,,,,,,,,,,,,,,,,,,,,,,,,,,,,,,,,,,,,,,,,,,,,,,,,
,,61533ead92c280c34cc22482,2024-02-22_03h14.01.929,kallum_motion_pilot,2023.2.2,Win32,163.9344262,61533ead92c280c34cc22482,65d6bb0e977760de756971f7,65d6bbeec7c0f830c49a8d46,0.0233,0.0233,0,25,25,11,1,twofour,,,,,,,,,,,,,,,,,,,,,,,,,,,,,,,,,,,,,,,,,,,,,,,,,,,,,,,,,,,,,,,,,,,,,,,,,,,,,,,,,,,,,,,,,,,,,,,,,,,,,,,,,,,,,,,,,,,,,,,,,,,,,,,,,,,,,,,,,
,,61533ead92c280c34cc22482,2024-02-22_03h14.01.929,kallum_motion_pilot,2023.2.2,Win32,163.9344262,61533ead92c280c34cc22482,65d6bb0e977760de756971f7,65d6bbeec7c0f830c49a8d46,0.0253,0.0253,0,26,26,52,1,threeone,,,,,,,,,,,,,,,,,,,,,,,,,,,,,,,,,,,,,,,,,,,,,,,,,,,,,,,,,,,,,,,,,,,,,,,,,,,,,,,,,,,,,,,,,,,,,,,,,,,,,,,,,,,,,,,,,,,,,,,,,,,,,,,,,,,,,,,,,
,,61533ead92c280c34cc22482,2024-02-22_03h14.01.929,kallum_motion_pilot,2023.2.2,Win32,163.9344262,61533ead92c280c34cc22482,65d6bb0e977760de756971f7,65d6bbeec7c0f830c49a8d46,0.0255,0.0255,0,27,27,18,1,twoone,,,,,,,,,,,,,,,,,,,,,,,,,,,,,,,,,,,,,,,,,,,,,,,,,,,,,,,,,,,,,,,,,,,,,,,,,,,,,,,,,,,,,,,,,,,,,,,,,,,,,,,,,,,,,,,,,,,,,,,,,,,,,,,,,,,,,,,,,
,,61533ead92c280c34cc22482,2024-02-22_03h14.01.929,kallum_motion_pilot,2023.2.2,Win32,163.9344262,61533ead92c280c34cc22482,65d6bb0e977760de756971f7,65d6bbeec7c0f830c49a8d46,0.0256,0.0256,0,28,28,50,1,twoone,,,,,,,,,,,,,,,,,,,,,,,,,,,,,,,,,,,,,,,,,,,,,,,,,,,,,,,,,,,,,,,,,,,,,,,,,,,,,,,,,,,,,,,,,,,,,,,,,,,,,,,,,,,,,,,,,,,,,,,,,,,,,,,,,,,,,,,,,
,,61533ead92c280c34cc22482,2024-02-22_03h14.01.929,kallum_motion_pilot,2023.2.2,Win32,163.9344262,61533ead92c280c34cc22482,65d6bb0e977760de756971f7,65d6bbeec7c0f830c49a8d46,0.0257,0.0257,0,29,29,63,1,fourthree,,,,,,,,,,,,,,,,,,,,,,,,,,,,,,,,,,,,,,,,,,,,,,,,,,,,,,,,,,,,,,,,,,,,,,,,,,,,,,,,,,,,,,,,,,,,,,,,,,,,,,,,,,,,,,,,,,,,,,,,,,,,,,,,,,,,,,,,,
,,61533ead92c280c34cc22482,2024-02-22_03h14.01.929,kallum_motion_pilot,2023.2.2,Win32,163.9344262,61533ead92c280c34cc22482,65d6bb0e977760de756971f7,65d6bbeec7c0f830c49a8d46,0.0258,0.0258,0,30,30,35,1,twofour,,,,,,,,,,,,,,,,,,,,,,,,,,,,,,,,,,,,,,,,,,,,,,,,,,,,,,,,,,,,,,,,,,,,,,,,,,,,,,,,,,,,,,,,,,,,,,,,,,,,,,,,,,,,,,,,,,,,,,,,,,,,,,,,,,,,,,,,,
,,61533ead92c280c34cc22482,2024-02-22_03h14.01.929,kallum_motion_pilot,2023.2.2,Win32,163.9344262,61533ead92c280c34cc22482,65d6bb0e977760de756971f7,65d6bbeec7c0f830c49a8d46,0.0259,0.0259,0,31,31,147,1,sixeight,,,,,,,,,,,,,,,,,,,,,,,,,,,,,,,,,,,,,,,,,,,,,,,,,,,,,,,,,,,,,,,,,,,,,,,,,,,,,,,,,,,,,,,,,,,,,,,,,,,,,,,,,,,,,,,,,,,,,,,,,,,,,,,,,,,,,,,,,
,,61533ead92c280c34cc22482,2024-02-22_03h14.01.929,kallum_motion_pilot,2023.2.2,Win32,163.9344262,61533ead92c280c34cc22482,65d6bb0e977760de756971f7,65d6bbeec7c0f830c49a8d46,0.026,0.026,0,32,32,67,1,twofour,,,,,,,,,,,,,,,,,,,,,,,,,,,,,,,,,,,,,,,,,,,,,,,,,,,,,,,,,,,,,,,,,,,,,,,,,,,,,,,,,,,,,,,,,,,,,,,,,,,,,,,,,,,,,,,,,,,,,,,,,,,,,,,,,,,,,,,,,
,,61533ead92c280c34cc22482,2024-02-22_03h14.01.929,kallum_motion_pilot,2023.2.2,Win32,163.9344262,61533ead92c280c34cc22482,65d6bb0e977760de756971f7,65d6bbeec7c0f830c49a8d46,0.0261,0.0261,0,33,33,118,1,eightsix,,,,,,,,,,,,,,,,,,,,,,,,,,,,,,,,,,,,,,,,,,,,,,,,,,,,,,,,,,,,,,,,,,,,,,,,,,,,,,,,,,,,,,,,,,,,,,,,,,,,,,,,,,,,,,,,,,,,,,,,,,,,,,,,,,,,,,,,,
,,61533ead92c280c34cc22482,2024-02-22_03h14.01.929,kallum_motion_pilot,2023.2.2,Win32,163.9344262,61533ead92c280c34cc22482,65d6bb0e977760de756971f7,65d6bbeec7c0f830c49a8d46,0.0262,0.0262,0,34,34,60,1,threeone,,,,,,,,,,,,,,,,,,,,,,,,,,,,,,,,,,,,,,,,,,,,,,,,,,,,,,,,,,,,,,,,,,,,,,,,,,,,,,,,,,,,,,,,,,,,,,,,,,,,,,,,,,,,,,,,,,,,,,,,,,,,,,,,,,,,,,,,,
,,61533ead92c280c34cc22482,2024-02-22_03h14.01.929,kallum_motion_pilot,2023.2.2,Win32,163.9344262,61533ead92c280c34cc22482,65d6bb0e977760de756971f7,65d6bbeec7c0f830c49a8d46,0.0262,0.0262,0,35,35,53,1,threefour,,,,,,,,,,,,,,,,,,,,,,,,,,,,,,,,,,,,,,,,,,,,,,,,,,,,,,,,,,,,,,,,,,,,,,,,,,,,,,,,,,,,,,,,,,,,,,,,,,,,,,,,,,,,,,,,,,,,,,,,,,,,,,,,,,,,,,,,,
,,61533ead92c280c34cc22482,2024-02-22_03h14.01.929,kallum_motion_pilot,2023.2.2,Win32,163.9344262,61533ead92c280c34cc22482,65d6bb0e977760de756971f7,65d6bbeec7c0f830c49a8d46,0.0263,0.0263,0,36,36,112,1,fivesix,,,,,,,,,,,,,,,,,,,,,,,,,,,,,,,,,,,,,,,,,,,,,,,,,,,,,,,,,,,,,,,,,,,,,,,,,,,,,,,,,,,,,,,,,,,,,,,,,,,,,,,,,,,,,,,,,,,,,,,,,,,,,,,,,,,,,,,,,
,,61533ead92c280c34cc22482,2024-02-22_03h14.01.929,kallum_motion_pilot,2023.2.2,Win32,163.9344262,61533ead92c280c34cc22482,65d6bb0e977760de756971f7,65d6bbeec7c0f830c49a8d46,0.0264,0.0264,0,37,37,127,1,eightseven,,,,,,,,,,,,,,,,,,,,,,,,,,,,,,,,,,,,,,,,,,,,,,,,,,,,,,,,,,,,,,,,,,,,,,,,,,,,,,,,,,,,,,,,,,,,,,,,,,,,,,,,,,,,,,,,,,,,,,,,,,,,,,,,,,,,,,,,,
,,61533ead92c280c34cc22482,2024-02-22_03h14.01.929,kallum_motion_pilot,2023.2.2,Win32,163.9344262,61533ead92c280c34cc22482,65d6bb0e977760de756971f7,65d6bbeec7c0f830c49a8d46,0.0264,0.0265,0,38,38,3,1,twofour,,,,,,,,,,,,,,,,,,,,,,,,,,,,,,,,,,,,,,,,,,,,,,,,,,,,,,,,,,,,,,,,,,,,,,,,,,,,,,,,,,,,,,,,,,,,,,,,,,,,,,,,,,,,,,,,,,,,,,,,,,,,,,,,,,,,,,,,,
,,61533ead92c280c34cc22482,2024-02-22_03h14.01.929,kallum_motion_pilot,2023.2.2,Win32,163.9344262,61533ead92c280c34cc22482,65d6bb0e977760de756971f7,65d6bbeec7c0f830c49a8d46,0.0266,0.0266,0,39,39,46,1,fourtwo,,,,,,,,,,,,,,,,,,,,,,,,,,,,,,,,,,,,,,,,,,,,,,,,,,,,,,,,,,,,,,,,,,,,,,,,,,,,,,,,,,,,,,,,,,,,,,,,,,,,,,,,,,,,,,,,,,,,,,,,,,,,,,,,,,,,,,,,,
,,61533ead92c280c34cc22482,2024-02-22_03h14.01.929,kallum_motion_pilot,2023.2.2,Win32,163.9344262,61533ead92c280c34cc22482,65d6bb0e977760de756971f7,65d6bbeec7c0f830c49a8d46,0.0266,0.0266,0,40,40,108,1,sevenfive,,,,,,,,,,,,,,,,,,,,,,,,,,,,,,,,,,,,,,,,,,,,,,,,,,,,,,,,,,,,,,,,,,,,,,,,,,,,,,,,,,,,,,,,,,,,,,,,,,,,,,,,,,,,,,,,,,,,,,,,,,,,,,,,,,,,,,,,,
,,61533ead92c280c34cc22482,2024-02-22_03h14.01.929,kallum_motion_pilot,2023.2.2,Win32,163.9344262,61533ead92c280c34cc22482,65d6bb0e977760de756971f7,65d6bbeec7c0f830c49a8d46,0.0267,0.0267,0,41,41,137,1,fiveseven,,,,,,,,,,,,,,,,,,,,,,,,,,,,,,,,,,,,,,,,,,,,,,,,,,,,,,,,,,,,,,,,,,,,,,,,,,,,,,,,,,,,,,,,,,,,,,,,,,,,,,,,,,,,,,,,,,,,,,,,,,,,,,,,,,,,,,,,,
,,61533ead92c280c34cc22482,2024-02-22_03h14.01.929,kallum_motion_pilot,2023.2.2,Win32,163.9344262,61533ead92c280c34cc22482,65d6bb0e977760de756971f7,65d6bbeec7c0f830c49a8d46,0.0268,0.0268,0,42,42,113,1,fiveseven,,,,,,,,,,,,,,,,,,,,,,,,,,,,,,,,,,,,,,,,,,,,,,,,,,,,,,,,,,,,,,,,,,,,,,,,,,,,,,,,,,,,,,,,,,,,,,,,,,,,,,,,,,,,,,,,,,,,,,,,,,,,,,,,,,,,,,,,,
,,61533ead92c280c34cc22482,2024-02-22_03h14.01.929,kallum_motion_pilot,2023.2.2,Win32,163.9344262,61533ead92c280c34cc22482,65d6bb0e977760de756971f7,65d6bbeec7c0f830c49a8d46,0.0269,0.0269,0,43,43,10,1,twoone,,,,,,,,,,,,,,,,,,,,,,,,,,,,,,,,,,,,,,,,,,,,,,,,,,,,,,,,,,,,,,,,,,,,,,,,,,,,,,,,,,,,,,,,,,,,,,,,,,,,,,,,,,,,,,,,,,,,,,,,,,,,,,,,,,,,,,,,,
,,61533ead92c280c34cc22482,2024-02-22_03h14.01.929,kallum_motion_pilot,2023.2.2,Win32,163.9344262,61533ead92c280c34cc22482,65d6bb0e977760de756971f7,65d6bbeec7c0f830c49a8d46,0.0269,0.0269,0,44,44,106,1,sixfive,,,,,,,,,,,,,,,,,,,,,,,,,,,,,,,,,,,,,,,,,,,,,,,,,,,,,,,,,,,,,,,,,,,,,,,,,,,,,,,,,,,,,,,,,,,,,,,,,,,,,,,,,,,,,,,,,,,,,,,,,,,,,,,,,,,,,,,,,
,,61533ead92c280c34cc22482,2024-02-22_03h14.01.929,kallum_motion_pilot,2023.2.2,Win32,163.9344262,61533ead92c280c34cc22482,65d6bb0e977760de756971f7,65d6bbeec7c0f830c49a8d46,0.027,0.027,0,45,45,144,1,fivesix,,,,,,,,,,,,,,,,,,,,,,,,,,,,,,,,,,,,,,,,,,,,,,,,,,,,,,,,,,,,,,,,,,,,,,,,,,,,,,,,,,,,,,,,,,,,,,,,,,,,,,,,,,,,,,,,,,,,,,,,,,,,,,,,,,,,,,,,,
,,61533ead92c280c34cc22482,2024-02-22_03h14.01.929,kallum_motion_pilot,2023.2.2,Win32,163.9344262,61533ead92c280c34cc22482,65d6bb0e977760de756971f7,65d6bbeec7c0f830c49a8d46,0.0271,0.0271,0,46,46,146,1,sixfive,,,,,,,,,,,,,,,,,,,,,,,,,,,,,,,,,,,,,,,,,,,,,,,,,,,,,,,,,,,,,,,,,,,,,,,,,,,,,,,,,,,,,,,,,,,,,,,,,,,,,,,,,,,,,,,,,,,,,,,,,,,,,,,,,,,,,,,,,
,,61533ead92c280c34cc22482,2024-02-22_03h14.01.929,kallum_motion_pilot,2023.2.2,Win32,163.9344262,61533ead92c280c34cc22482,65d6bb0e977760de756971f7,65d6bbeec7c0f830c49a8d46,0.0271,0.0272,0,47,47,36,1,threeone,,,,,,,,,,,,,,,,,,,,,,,,,,,,,,,,,,,,,,,,,,,,,,,,,,,,,,,,,,,,,,,,,,,,,,,,,,,,,,,,,,,,,,,,,,,,,,,,,,,,,,,,,,,,,,,,,,,,,,,,,,,,,,,,,,,,,,,,,
,,61533ead92c280c34cc22482,2024-02-22_03h14.01.929,kallum_motion_pilot,2023.2.2,Win32,163.9344262,61533ead92c280c34cc22482,65d6bb0e977760de756971f7,65d6bbeec7c0f830c49a8d46,0.0272,0.0272,0,48,48,138,1,sixfive,,,,,,,,,,,,,,,,,,,,,,,,,,,,,,,,,,,,,,,,,,,,,,,,,,,,,,,,,,,,,,,,,,,,,,,,,,,,,,,,,,,,,,,,,,,,,,,,,,,,,,,,,,,,,,,,,,,,,,,,,,,,,,,,,,,,,,,,,
,,61533ead92c280c34cc22482,2024-02-22_03h14.01.929,kallum_motion_pilot,2023.2.2,Win32,163.9344262,61533ead92c280c34cc22482,65d6bb0e977760de756971f7,65d6bbeec7c0f830c49a8d46,0.0273,0.0273,0,49,49,115,1,sixeight,,,,,,,,,,,,,,,,,,,,,,,,,,,,,,,,,,,,,,,,,,,,,,,,,,,,,,,,,,,,,,,,,,,,,,,,,,,,,,,,,,,,,,,,,,,,,,,,,,,,,,,,,,,,,,,,,,,,,,,,,,,,,,,,,,,,,,,,,
,,61533ead92c280c34cc22482,2024-02-22_03h14.01.929,kallum_motion_pilot,2023.2.2,Win32,163.9344262,61533ead92c280c34cc22482,65d6bb0e977760de756971f7,65d6bbeec7c0f830c49a8d46,0.0274,0.0275,0,50,50,49,1,onethree,,,,,,,,,,,,,,,,,,,,,,,,,,,,,,,,,,,,,,,,,,,,,,,,,,,,,,,,,,,,,,,,,,,,,,,,,,,,,,,,,,,,,,,,,,,,,,,,,,,,,,,,,,,,,,,,,,,,,,,,,,,,,,,,,,,,,,,,,
,,61533ead92c280c34cc22482,2024-02-22_03h14.01.929,kallum_motion_pilot,2023.2.2,Win32,163.9344262,61533ead92c280c34cc22482,65d6bb0e977760de756971f7,65d6bbeec7c0f830c49a8d46,0.0275,0.0275,0,51,51,48,1,onetwo,,,,,,,,,,,,,,,,,,,,,,,,,,,,,,,,,,,,,,,,,,,,,,,,,,,,,,,,,,,,,,,,,,,,,,,,,,,,,,,,,,,,,,,,,,,,,,,,,,,,,,,,,,,,,,,,,,,,,,,,,,,,,,,,,,,,,,,,,
,,61533ead92c280c34cc22482,2024-02-22_03h14.01.929,kallum_motion_pilot,2023.2.2,Win32,163.9344262,61533ead92c280c34cc22482,65d6bb0e977760de756971f7,65d6bbeec7c0f830c49a8d46,0.0275,0.0275,0,52,52,100,1,sevenfive,,,,,,,,,,,,,,,,,,,,,,,,,,,,,,,,,,,,,,,,,,,,,,,,,,,,,,,,,,,,,,,,,,,,,,,,,,,,,,,,,,,,,,,,,,,,,,,,,,,,,,,,,,,,,,,,,,,,,,,,,,,,,,,,,,,,,,,,,
,,61533ead92c280c34cc22482,2024-02-22_03h14.01.929,kallum_motion_pilot,2023.2.2,Win32,163.9344262,61533ead92c280c34cc22482,65d6bb0e977760de756971f7,65d6bbeec7c0f830c49a8d46,0.0276,0.0277,0,53,53,20,1,threeone,,,,,,,,,,,,,,,,,,,,,,,,,,,,,,,,,,,,,,,,,,,,,,,,,,,,,,,,,,,,,,,,,,,,,,,,,,,,,,,,,,,,,,,,,,,,,,,,,,,,,,,,,,,,,,,,,,,,,,,,,,,,,,,,,,,,,,,,,
,,61533ead92c280c34cc22482,2024-02-22_03h14.01.929,kallum_motion_pilot,2023.2.2,Win32,163.9344262,61533ead92c280c34cc22482,65d6bb0e977760de756971f7,65d6bbeec7c0f830c49a8d46,0.0278,0.0278,0,54,54,84,1,sevenfive,,,,,,,,,,,,,,,,,,,,,,,,,,,,,,,,,,,,,,,,,,,,,,,,,,,,,,,,,,,,,,,,,,,,,,,,,,,,,,,,,,,,,,,,,,,,,,,,,,,,,,,,,,,,,,,,,,,,,,,,,,,,,,,,,,,,,,,,,
,,61533ead92c280c34cc22482,2024-02-22_03h14.01.929,kallum_motion_pilot,2023.2.2,Win32,163.9344262,61533ead92c280c34cc22482,65d6bb0e977760de756971f7,65d6bbeec7c0f830c49a8d46,0.0278,0.0279,0,55,55,95,1,eightseven,,,,,,,,,,,,,,,,,,,,,,,,,,,,,,,,,,,,,,,,,,,,,,,,,,,,,,,,,,,,,,,,,,,,,,,,,,,,,,,,,,,,,,,,,,,,,,,,,,,,,,,,,,,,,,,,,,,,,,,,,,,,,,,,,,,,,,,,,
,,61533ead92c280c34cc22482,2024-02-22_03h14.01.929,kallum_motion_pilot,2023.2.2,Win32,163.9344262,61533ead92c280c34cc22482,65d6bb0e977760de756971f7,65d6bbeec7c0f830c49a8d46,0.0279,0.0279,0,56,56,39,1,fourthree,,,,,,,,,,,,,,,,,,,,,,,,,,,,,,,,,,,,,,,,,,,,,,,,,,,,,,,,,,,,,,,,,,,,,,,,,,,,,,,,,,,,,,,,,,,,,,,,,,,,,,,,,,,,,,,,,,,,,,,,,,,,,,,,,,,,,,,,,
,,61533ead92c280c34cc22482,2024-02-22_03h14.01.929,kallum_motion_pilot,2023.2.2,Win32,163.9344262,61533ead92c280c34cc22482,65d6bb0e977760de756971f7,65d6bbeec7c0f830c49a8d46,0.028,0.028,0,57,57,0,1,onetwo,,,,,,,,,,,,,,,,,,,,,,,,,,,,,,,,,,,,,,,,,,,,,,,,,,,,,,,,,,,,,,,,,,,,,,,,,,,,,,,,,,,,,,,,,,,,,,,,,,,,,,,,,,,,,,,,,,,,,,,,,,,,,,,,,,,,,,,,,
,,61533ead92c280c34cc22482,2024-02-22_03h14.01.929,kallum_motion_pilot,2023.2.2,Win32,163.9344262,61533ead92c280c34cc22482,65d6bb0e977760de756971f7,65d6bbeec7c0f830c49a8d46,0.028,0.028,0,58,58,31,1,fourthree,,,,,,,,,,,,,,,,,,,,,,,,,,,,,,,,,,,,,,,,,,,,,,,,,,,,,,,,,,,,,,,,,,,,,,,,,,,,,,,,,,,,,,,,,,,,,,,,,,,,,,,,,,,,,,,,,,,,,,,,,,,,,,,,,,,,,,,,,
,,61533ead92c280c34cc22482,2024-02-22_03h14.01.929,kallum_motion_pilot,2023.2.2,Win32,163.9344262,61533ead92c280c34cc22482,65d6bb0e977760de756971f7,65d6bbeec7c0f830c49a8d46,0.0281,0.0281,0,59,59,28,1,threeone,,,,,,,,,,,,,,,,,,,,,,,,,,,,,,,,,,,,,,,,,,,,,,,,,,,,,,,,,,,,,,,,,,,,,,,,,,,,,,,,,,,,,,,,,,,,,,,,,,,,,,,,,,,,,,,,,,,,,,,,,,,,,,,,,,,,,,,,,
,,61533ead92c280c34cc22482,2024-02-22_03h14.01.929,kallum_motion_pilot,2023.2.2,Win32,163.9344262,61533ead92c280c34cc22482,65d6bb0e977760de756971f7,65d6bbeec7c0f830c49a8d46,0.0283,0.0283,0,60,60,56,1,onetwo,,,,,,,,,,,,,,,,,,,,,,,,,,,,,,,,,,,,,,,,,,,,,,,,,,,,,,,,,,,,,,,,,,,,,,,,,,,,,,,,,,,,,,,,,,,,,,,,,,,,,,,,,,,,,,,,,,,,,,,,,,,,,,,,,,,,,,,,,
,,61533ead92c280c34cc22482,2024-02-22_03h14.01.929,kallum_motion_pilot,2023.2.2,Win32,163.9344262,61533ead92c280c34cc22482,65d6bb0e977760de756971f7,65d6bbeec7c0f830c49a8d46,0.0283,0.0284,0,61,61,77,1,threefour,,,,,,,,,,,,,,,,,,,,,,,,,,,,,,,,,,,,,,,,,,,,,,,,,,,,,,,,,,,,,,,,,,,,,,,,,,,,,,,,,,,,,,,,,,,,,,,,,,,,,,,,,,,,,,,,,,,,,,,,,,,,,,,,,,,,,,,,,
,,61533ead92c280c34cc22482,2024-02-22_03h14.01.929,kallum_motion_pilot,2023.2.2,Win32,163.9344262,61533ead92c280c34cc22482,65d6bb0e977760de756971f7,65d6bbeec7c0f830c49a8d46,0.0284,0.0284,0,62,62,156,1,sevenfive,,,,,,,,,,,,,,,,,,,,,,,,,,,,,,,,,,,,,,,,,,,,,,,,,,,,,,,,,,,,,,,,,,,,,,,,,,,,,,,,,,,,,,,,,,,,,,,,,,,,,,,,,,,,,,,,,,,,,,,,,,,,,,,,,,,,,,,,,
,,61533ead92c280c34cc22482,2024-02-22_03h14.01.929,kallum_motion_pilot,2023.2.2,Win32,163.9344262,61533ead92c280c34cc22482,65d6bb0e977760de756971f7,65d6bbeec7c0f830c49a8d46,0.0285,0.0285,0,63,63,23,1,fourthree,,,,,,,,,,,,,,,,,,,,,,,,,,,,,,,,,,,,,,,,,,,,,,,,,,,,,,,,,,,,,,,,,,,,,,,,,,,,,,,,,,,,,,,,,,,,,,,,,,,,,,,,,,,,,,,,,,,,,,,,,,,,,,,,,,,,,,,,,
,,61533ead92c280c34cc22482,2024-02-22_03h14.01.929,kallum_motion_pilot,2023.2.2,Win32,163.9344262,61533ead92c280c34cc22482,65d6bb0e977760de756971f7,65d6bbeec7c0f830c49a8d46,0.0285,0.0286,0,64,64,17,1,onethree,,,,,,,,,,,,,,,,,,,,,,,,,,,,,,,,,,,,,,,,,,,,,,,,,,,,,,,,,,,,,,,,,,,,,,,,,,,,,,,,,,,,,,,,,,,,,,,,,,,,,,,,,,,,,,,,,,,,,,,,,,,,,,,,,,,,,,,,,
,,61533ead92c280c34cc22482,2024-02-22_03h14.01.929,kallum_motion_pilot,2023.2.2,Win32,163.9344262,61533ead92c280c34cc22482,65d6bb0e977760de756971f7,65d6bbeec7c0f830c49a8d46,0.0286,0.0286,0,65,65,62,1,fourtwo,,,,,,,,,,,,,,,,,,,,,,,,,,,,,,,,,,,,,,,,,,,,,,,,,,,,,,,,,,,,,,,,,,,,,,,,,,,,,,,,,,,,,,,,,,,,,,,,,,,,,,,,,,,,,,,,,,,,,,,,,,,,,,,,,,,,,,,,,
,,61533ead92c280c34cc22482,2024-02-22_03h14.01.929,kallum_motion_pilot,2023.2.2,Win32,163.9344262,61533ead92c280c34cc22482,65d6bb0e977760de756971f7,65d6bbeec7c0f830c49a8d46,0.0287,0.0288,0,66,66,32,1,onetwo,,,,,,,,,,,,,,,,,,,,,,,,,,,,,,,,,,,,,,,,,,,,,,,,,,,,,,,,,,,,,,,,,,,,,,,,,,,,,,,,,,,,,,,,,,,,,,,,,,,,,,,,,,,,,,,,,,,,,,,,,,,,,,,,,,,,,,,,,
,,61533ead92c280c34cc22482,2024-02-22_03h14.01.929,kallum_motion_pilot,2023.2.2,Win32,163.9344262,61533ead92c280c34cc22482,65d6bb0e977760de756971f7,65d6bbeec7c0f830c49a8d46,0.0288,0.0288,0,67,67,117,1,seveneight,,,,,,,,,,,,,,,,,,,,,,,,,,,,,,,,,,,,,,,,,,,,,,,,,,,,,,,,,,,,,,,,,,,,,,,,,,,,,,,,,,,,,,,,,,,,,,,,,,,,,,,,,,,,,,,,,,,,,,,,,,,,,,,,,,,,,,,,,
,,61533ead92c280c34cc22482,2024-02-22_03h14.01.929,kallum_motion_pilot,2023.2.2,Win32,163.9344262,61533ead92c280c34cc22482,65d6bb0e977760de756971f7,65d6bbeec7c0f830c49a8d46,0.0289,0.0289,0,68,68,34,1,twoone,,,,,,,,,,,,,,,,,,,,,,,,,,,,,,,,,,,,,,,,,,,,,,,,,,,,,,,,,,,,,,,,,,,,,,,,,,,,,,,,,,,,,,,,,,,,,,,,,,,,,,,,,,,,,,,,,,,,,,,,,,,,,,,,,,,,,,,,,
,,61533ead92c280c34cc22482,2024-02-22_03h14.01.929,kallum_motion_pilot,2023.2.2,Win32,163.9344262,61533ead92c280c34cc22482,65d6bb0e977760de756971f7,65d6bbeec7c0f830c49a8d46,0.0289,0.029,0,69,69,158,1,eightsix,,,,,,,,,,,,,,,,,,,,,,,,,,,,,,,,,,,,,,,,,,,,,,,,,,,,,,,,,,,,,,,,,,,,,,,,,,,,,,,,,,,,,,,,,,,,,,,,,,,,,,,,,,,,,,,,,,,,,,,,,,,,,,,,,,,,,,,,,
,,61533ead92c280c34cc22482,2024-02-22_03h14.01.929,kallum_motion_pilot,2023.2.2,Win32,163.9344262,61533ead92c280c34cc22482,65d6bb0e977760de756971f7,65d6bbeec7c0f830c49a8d46,0.029,0.029,0,70,70,104,1,fivesix,,,,,,,,,,,,,,,,,,,,,,,,,,,,,,,,,,,,,,,,,,,,,,,,,,,,,,,,,,,,,,,,,,,,,,,,,,,,,,,,,,,,,,,,,,,,,,,,,,,,,,,,,,,,,,,,,,,,,,,,,,,,,,,,,,,,,,,,,
,,61533ead92c280c34cc22482,2024-02-22_03h14.01.929,kallum_motion_pilot,2023.2.2,Win32,163.9344262,61533ead92c280c34cc22482,65d6bb0e977760de756971f7,65d6bbeec7c0f830c49a8d46,0.0291,0.0292,0,71,71,153,1,fiveseven,,,,,,,,,,,,,,,,,,,,,,,,,,,,,,,,,,,,,,,,,,,,,,,,,,,,,,,,,,,,,,,,,,,,,,,,,,,,,,,,,,,,,,,,,,,,,,,,,,,,,,,,,,,,,,,,,,,,,,,,,,,,,,,,,,,,,,,,,
,,61533ead92c280c34cc22482,2024-02-22_03h14.01.929,kallum_motion_pilot,2023.2.2,Win32,163.9344262,61533ead92c280c34cc22482,65d6bb0e977760de756971f7,65d6bbeec7c0f830c49a8d46,0.0293,0.0293,0,72,72,30,1,fourtwo,,,,,,,,,,,,,,,,,,,,,,,,,,,,,,,,,,,,,,,,,,,,,,,,,,,,,,,,,,,,,,,,,,,,,,,,,,,,,,,,,,,,,,,,,,,,,,,,,,,,,,,,,,,,,,,,,,,,,,,,,,,,,,,,,,,,,,,,,
,,61533ead92c280c34cc22482,2024-02-22_03h14.01.929,kallum_motion_pilot,2023.2.2,Win32,163.9344262,61533ead92c280c34cc22482,65d6bb0e977760de756971f7,65d6bbeec7c0f830c49a8d46,0.0293,0.0293,0,73,73,6,1,fourtwo,,,,,,,,,,,,,,,,,,,,,,,,,,,,,,,,,,,,,,,,,,,,,,,,,,,,,,,,,,,,,,,,,,,,,,,,,,,,,,,,,,,,,,,,,,,,,,,,,,,,,,,,,,,,,,,,,,,,,,,,,,,,,,,,,,,,,,,,,
,,61533ead92c280c34cc22482,2024-02-22_03h14.01.929,kallum_motion_pilot,2023.2.2,Win32,163.9344262,61533ead92c280c34cc22482,65d6bb0e977760de756971f7,65d6bbeec7c0f830c49a8d46,0.0294,0.0294,0,74,74,124,1,sevenfive,,,,,,,,,,,,,,,,,,,,,,,,,,,,,,,,,,,,,,,,,,,,,,,,,,,,,,,,,,,,,,,,,,,,,,,,,,,,,,,,,,,,,,,,,,,,,,,,,,,,,,,,,,,,,,,,,,,,,,,,,,,,,,,,,,,,,,,,,
,,61533ead92c280c34cc22482,2024-02-22_03h14.01.929,kallum_motion_pilot,2023.2.2,Win32,163.9344262,61533ead92c280c34cc22482,65d6bb0e977760de756971f7,65d6bbeec7c0f830c49a8d46,0.0295,0.0295,0,75,75,45,1,threefour,,,,,,,,,,,,,,,,,,,,,,,,,,,,,,,,,,,,,,,,,,,,,,,,,,,,,,,,,,,,,,,,,,,,,,,,,,,,,,,,,,,,,,,,,,,,,,,,,,,,,,,,,,,,,,,,,,,,,,,,,,,,,,,,,,,,,,,,,
,,61533ead92c280c34cc22482,2024-02-22_03h14.01.929,kallum_motion_pilot,2023.2.2,Win32,163.9344262,61533ead92c280c34cc22482,65d6bb0e977760de756971f7,65d6bbeec7c0f830c49a8d46,0.0296,0.0296,0,76,76,134,1,eightsix,,,,,,,,,,,,,,,,,,,,,,,,,,,,,,,,,,,,,,,,,,,,,,,,,,,,,,,,,,,,,,,,,,,,,,,,,,,,,,,,,,,,,,,,,,,,,,,,,,,,,,,,,,,,,,,,,,,,,,,,,,,,,,,,,,,,,,,,,
,,61533ead92c280c34cc22482,2024-02-22_03h14.01.929,kallum_motion_pilot,2023.2.2,Win32,163.9344262,61533ead92c280c34cc22482,65d6bb0e977760de756971f7,65d6bbeec7c0f830c49a8d46,0.0297,0.0297,0,77,77,98,1,sixfive,,,,,,,,,,,,,,,,,,,,,,,,,,,,,,,,,,,,,,,,,,,,,,,,,,,,,,,,,,,,,,,,,,,,,,,,,,,,,,,,,,,,,,,,,,,,,,,,,,,,,,,,,,,,,,,,,,,,,,,,,,,,,,,,,,,,,,,,,
,,61533ead92c280c34cc22482,2024-02-22_03h14.01.929,kallum_motion_pilot,2023.2.2,Win32,163.9344262,61533ead92c280c34cc22482,65d6bb0e977760de756971f7,65d6bbeec7c0f830c49a8d46,0.0297,0.0297,0,78,78,159,1,eightseven,,,,,,,,,,,,,,,,,,,,,,,,,,,,,,,,,,,,,,,,,,,,,,,,,,,,,,,,,,,,,,,,,,,,,,,,,,,,,,,,,,,,,,,,,,,,,,,,,,,,,,,,,,,,,,,,,,,,,,,,,,,,,,,,,,,,,,,,,
,,61533ead92c280c34cc22482,2024-02-22_03h14.01.929,kallum_motion_pilot,2023.2.2,Win32,163.9344262,61533ead92c280c34cc22482,65d6bb0e977760de756971f7,65d6bbeec7c0f830c49a8d46,0.0298,0.0298,0,79,79,40,1,onetwo,,,,,,,,,,,,,,,,,,,,,,,,,,,,,,,,,,,,,,,,,,,,,,,,,,,,,,,,,,,,,,,,,,,,,,,,,,,,,,,,,,,,,,,,,,,,,,,,,,,,,,,,,,,,,,,,,,,,,,,,,,,,,,,,,,,,,,,,,
,,61533ead92c280c34cc22482,2024-02-22_03h14.01.929,kallum_motion_pilot,2023.2.2,Win32,163.9344262,61533ead92c280c34cc22482,65d6bb0e977760de756971f7,65d6bbeec7c0f830c49a8d46,0.0299,0.0299,0,80,80,38,1,fourtwo,,,,,,,,,,,,,,,,,,,,,,,,,,,,,,,,,,,,,,,,,,,,,,,,,,,,,,,,,,,,,,,,,,,,,,,,,,,,,,,,,,,,,,,,,,,,,,,,,,,,,,,,,,,,,,,,,,,,,,,,,,,,,,,,,,,,,,,,,
,,61533ead92c280c34cc22482,2024-02-22_03h14.01.929,kallum_motion_pilot,2023.2.2,Win32,163.9344262,61533ead92c280c34cc22482,65d6bb0e977760de756971f7,65d6bbeec7c0f830c49a8d46,0.0299,0.03,0,81,81,29,1,threefour,,,,,,,,,,,,,,,,,,,,,,,,,,,,,,,,,,,,,,,,,,,,,,,,,,,,,,,,,,,,,,,,,,,,,,,,,,,,,,,,,,,,,,,,,,,,,,,,,,,,,,,,,,,,,,,,,,,,,,,,,,,,,,,,,,,,,,,,,
,,61533ead92c280c34cc22482,2024-02-22_03h14.01.929,kallum_motion_pilot,2023.2.2,Win32,163.9344262,61533ead92c280c34cc22482,65d6bb0e977760de756971f7,65d6bbeec7c0f830c49a8d46,0.03,0.0301,0,82,82,68,1,threeone,,,,,,,,,,,,,,,,,,,,,,,,,,,,,,,,,,,,,,,,,,,,,,,,,,,,,,,,,,,,,,,,,,,,,,,,,,,,,,,,,,,,,,,,,,,,,,,,,,,,,,,,,,,,,,,,,,,,,,,,,,,,,,,,,,,,,,,,,
,,61533ead92c280c34cc22482,2024-02-22_03h14.01.929,kallum_motion_pilot,2023.2.2,Win32,163.9344262,61533ead92c280c34cc22482,65d6bb0e977760de756971f7,65d6bbeec7c0f830c49a8d46,0.0301,0.0301,0,83,83,125,1,seveneight,,,,,,,,,,,,,,,,,,,,,,,,,,,,,,,,,,,,,,,,,,,,,,,,,,,,,,,,,,,,,,,,,,,,,,,,,,,,,,,,,,,,,,,,,,,,,,,,,,,,,,,,,,,,,,,,,,,,,,,,,,,,,,,,,,,,,,,,,
,,61533ead92c280c34cc22482,2024-02-22_03h14.01.929,kallum_motion_pilot,2023.2.2,Win32,163.9344262,61533ead92c280c34cc22482,65d6bb0e977760de756971f7,65d6bbeec7c0f830c49a8d46,0.0302,0.0303,0,84,84,90,1,sixfive,,,,,,,,,,,,,,,,,,,,,,,,,,,,,,,,,,,,,,,,,,,,,,,,,,,,,,,,,,,,,,,,,,,,,,,,,,,,,,,,,,,,,,,,,,,,,,,,,,,,,,,,,,,,,,,,,,,,,,,,,,,,,,,,,,,,,,,,,
,,61533ead92c280c34cc22482,2024-02-22_03h14.01.929,kallum_motion_pilot,2023.2.2,Win32,163.9344262,61533ead92c280c34cc22482,65d6bb0e977760de756971f7,65d6bbeec7c0f830c49a8d46,0.0303,0.0303,0,85,85,26,1,twoone,,,,,,,,,,,,,,,,,,,,,,,,,,,,,,,,,,,,,,,,,,,,,,,,,,,,,,,,,,,,,,,,,,,,,,,,,,,,,,,,,,,,,,,,,,,,,,,,,,,,,,,,,,,,,,,,,,,,,,,,,,,,,,,,,,,,,,,,,
,,61533ead92c280c34cc22482,2024-02-22_03h14.01.929,kallum_motion_pilot,2023.2.2,Win32,163.9344262,61533ead92c280c34cc22482,65d6bb0e977760de756971f7,65d6bbeec7c0f830c49a8d46,0.0304,0.0304,0,86,86,16,1,onetwo,,,,,,,,,,,,,,,,,,,,,,,,,,,,,,,,,,,,,,,,,,,,,,,,,,,,,,,,,,,,,,,,,,,,,,,,,,,,,,,,,,,,,,,,,,,,,,,,,,,,,,,,,,,,,,,,,,,,,,,,,,,,,,,,,,,,,,,,,
,,61533ead92c280c34cc22482,2024-02-22_03h14.01.929,kallum_motion_pilot,2023.2.2,Win32,163.9344262,61533ead92c280c34cc22482,65d6bb0e977760de756971f7,65d6bbeec7c0f830c49a8d46,0.0305,0.0305,0,87,87,61,1,threefour,,,,,,,,,,,,,,,,,,,,,,,,,,,,,,,,,,,,,,,,,,,,,,,,,,,,,,,,,,,,,,,,,,,,,,,,,,,,,,,,,,,,,,,,,,,,,,,,,,,,,,,,,,,,,,,,,,,,,,,,,,,,,,,,,,,,,,,,,
,,61533ead92c280c34cc22482,2024-02-22_03h14.01.929,kallum_motion_pilot,2023.2.2,Win32,163.9344262,61533ead92c280c34cc22482,65d6bb0e977760de756971f7,65d6bbeec7c0f830c49a8d46,0.0306,0.0306,0,88,88,51,1,twofour,,,,,,,,,,,,,,,,,,,,,,,,,,,,,,,,,,,,,,,,,,,,,,,,,,,,,,,,,,,,,,,,,,,,,,,,,,,,,,,,,,,,,,,,,,,,,,,,,,,,,,,,,,,,,,,,,,,,,,,,,,,,,,,,,,,,,,,,,
,,61533ead92c280c34cc22482,2024-02-22_03h14.01.929,kallum_motion_pilot,2023.2.2,Win32,163.9344262,61533ead92c280c34cc22482,65d6bb0e977760de756971f7,65d6bbeec7c0f830c49a8d46,0.0307,0.0307,0,89,89,19,1,twofour,,,,,,,,,,,,,,,,,,,,,,,,,,,,,,,,,,,,,,,,,,,,,,,,,,,,,,,,,,,,,,,,,,,,,,,,,,,,,,,,,,,,,,,,,,,,,,,,,,,,,,,,,,,,,,,,,,,,,,,,,,,,,,,,,,,,,,,,,
,,61533ead92c280c34cc22482,2024-02-22_03h14.01.929,kallum_motion_pilot,2023.2.2,Win32,163.9344262,61533ead92c280c34cc22482,65d6bb0e977760de756971f7,65d6bbeec7c0f830c49a8d46,0.0307,0.0308,0,90,90,41,1,onethree,,,,,,,,,,,,,,,,,,,,,,,,,,,,,,,,,,,,,,,,,,,,,,,,,,,,,,,,,,,,,,,,,,,,,,,,,,,,,,,,,,,,,,,,,,,,,,,,,,,,,,,,,,,,,,,,,,,,,,,,,,,,,,,,,,,,,,,,,
,,61533ead92c280c34cc22482,2024-02-22_03h14.01.929,kallum_motion_pilot,2023.2.2,Win32,163.9344262,61533ead92c280c34cc22482,65d6bb0e977760de756971f7,65d6bbeec7c0f830c49a8d46,0.0308,0.0308,0,91,91,82,1,sixfive,,,,,,,,,,,,,,,,,,,,,,,,,,,,,,,,,,,,,,,,,,,,,,,,,,,,,,,,,,,,,,,,,,,,,,,,,,,,,,,,,,,,,,,,,,,,,,,,,,,,,,,,,,,,,,,,,,,,,,,,,,,,,,,,,,,,,,,,,
,,61533ead92c280c34cc22482,2024-02-22_03h14.01.929,kallum_motion_pilot,2023.2.2,Win32,163.9344262,61533ead92c280c34cc22482,65d6bb0e977760de756971f7,65d6bbeec7c0f830c49a8d46,0.0309,0.0309,0,92,92,109,1,seveneight,,,,,,,,,,,,,,,,,,,,,,,,,,,,,,,,,,,,,,,,,,,,,,,,,,,,,,,,,,,,,,,,,,,,,,,,,,,,,,,,,,,,,,,,,,,,,,,,,,,,,,,,,,,,,,,,,,,,,,,,,,,,,,,,,,,,,,,,,
,,61533ead92c280c34cc22482,2024-02-22_03h14.01.929,kallum_motion_pilot,2023.2.2,Win32,163.9344262,61533ead92c280c34cc22482,65d6bb0e977760de756971f7,65d6bbeec7c0f830c49a8d46,0.0311,0.0311,0,93,93,47,1,fourthree,,,,,,,,,,,,,,,,,,,,,,,,,,,,,,,,,,,,,,,,,,,,,,,,,,,,,,,,,,,,,,,,,,,,,,,,,,,,,,,,,,,,,,,,,,,,,,,,,,,,,,,,,,,,,,,,,,,,,,,,,,,,,,,,,,,,,,,,,
,,61533ead92c280c34cc22482,2024-02-22_03h14.01.929,kallum_motion_pilot,2023.2.2,Win32,163.9344262,61533ead92c280c34cc22482,65d6bb0e977760de756971f7,65d6bbeec7c0f830c49a8d46,0.0311,0.0312,0,94,94,110,1,eightsix,,,,,,,,,,,,,,,,,,,,,,,,,,,,,,,,,,,,,,,,,,,,,,,,,,,,,,,,,,,,,,,,,,,,,,,,,,,,,,,,,,,,,,,,,,,,,,,,,,,,,,,,,,,,,,,,,,,,,,,,,,,,,,,,,,,,,,,,,
,,61533ead92c280c34cc22482,2024-02-22_03h14.01.929,kallum_motion_pilot,2023.2.2,Win32,163.9344262,61533ead92c280c34cc22482,65d6bb0e977760de756971f7,65d6bbeec7c0f830c49a8d46,0.0312,0.0312,0,95,95,140,1,sevenfive,,,,,,,,,,,,,,,,,,,,,,,,,,,,,,,,,,,,,,,,,,,,,,,,,,,,,,,,,,,,,,,,,,,,,,,,,,,,,,,,,,,,,,,,,,,,,,,,,,,,,,,,,,,,,,,,,,,,,,,,,,,,,,,,,,,,,,,,,
,,61533ead92c280c34cc22482,2024-02-22_03h14.01.929,kallum_motion_pilot,2023.2.2,Win32,163.9344262,61533ead92c280c34cc22482,65d6bb0e977760de756971f7,65d6bbeec7c0f830c49a8d46,0.0313,0.0313,0,96,96,130,1,sixfive,,,,,,,,,,,,,,,,,,,,,,,,,,,,,,,,,,,,,,,,,,,,,,,,,,,,,,,,,,,,,,,,,,,,,,,,,,,,,,,,,,,,,,,,,,,,,,,,,,,,,,,,,,,,,,,,,,,,,,,,,,,,,,,,,,,,,,,,,
,,61533ead92c280c34cc22482,2024-02-22_03h14.01.929,kallum_motion_pilot,2023.2.2,Win32,163.9344262,61533ead92c280c34cc22482,65d6bb0e977760de756971f7,65d6bbeec7c0f830c49a8d46,0.0314,0.0314,0,97,97,99,1,sixeight,,,,,,,,,,,,,,,,,,,,,,,,,,,,,,,,,,,,,,,,,,,,,,,,,,,,,,,,,,,,,,,,,,,,,,,,,,,,,,,,,,,,,,,,,,,,,,,,,,,,,,,,,,,,,,,,,,,,,,,,,,,,,,,,,,,,,,,,,
,,61533ead92c280c34cc22482,2024-02-22_03h14.01.929,kallum_motion_pilot,2023.2.2,Win32,163.9344262,61533ead92c280c34cc22482,65d6bb0e977760de756971f7,65d6bbeec7c0f830c49a8d46,0.0314,0.0315,0,98,98,43,1,twofour,,,,,,,,,,,,,,,,,,,,,,,,,,,,,,,,,,,,,,,,,,,,,,,,,,,,,,,,,,,,,,,,,,,,,,,,,,,,,,,,,,,,,,,,,,,,,,,,,,,,,,,,,,,,,,,,,,,,,,,,,,,,,,,,,,,,,,,,,
,,61533ead92c280c34cc22482,2024-02-22_03h14.01.929,kallum_motion_pilot,2023.2.2,Win32,163.9344262,61533ead92c280c34cc22482,65d6bb0e977760de756971f7,65d6bbeec7c0f830c49a8d46,0.0316,0.0316,0,99,99,107,1,sixeight,,,,,,,,,,,,,,,,,,,,,,,,,,,,,,,,,,,,,,,,,,,,,,,,,,,,,,,,,,,,,,,,,,,,,,,,,,,,,,,,,,,,,,,,,,,,,,,,,,,,,,,,,,,,,,,,,,,,,,,,,,,,,,,,,,,,,,,,,
,,61533ead92c280c34cc22482,2024-02-22_03h14.01.929,kallum_motion_pilot,2023.2.2,Win32,163.9344262,61533ead92c280c34cc22482,65d6bb0e977760de756971f7,65d6bbeec7c0f830c49a8d46,0.0317,0.0317,0,100,100,131,1,sixeight,,,,,,,,,,,,,,,,,,,,,,,,,,,,,,,,,,,,,,,,,,,,,,,,,,,,,,,,,,,,,,,,,,,,,,,,,,,,,,,,,,,,,,,,,,,,,,,,,,,,,,,,,,,,,,,,,,,,,,,,,,,,,,,,,,,,,,,,,
,,61533ead92c280c34cc22482,2024-02-22_03h14.01.929,kallum_motion_pilot,2023.2.2,Win32,163.9344262,61533ead92c280c34cc22482,65d6bb0e977760de756971f7,65d6bbeec7c0f830c49a8d46,0.0318,0.0318,0,101,101,102,1,eightsix,,,,,,,,,,,,,,,,,,,,,,,,,,,,,,,,,,,,,,,,,,,,,,,,,,,,,,,,,,,,,,,,,,,,,,,,,,,,,,,,,,,,,,,,,,,,,,,,,,,,,,,,,,,,,,,,,,,,,,,,,,,,,,,,,,,,,,,,,
,,61533ead92c280c34cc22482,2024-02-22_03h14.01.929,kallum_motion_pilot,2023.2.2,Win32,163.9344262,61533ead92c280c34cc22482,65d6bb0e977760de756971f7,65d6bbeec7c0f830c49a8d46,0.0319,0.0319,0,102,102,2,1,twoone,,,,,,,,,,,,,,,,,,,,,,,,,,,,,,,,,,,,,,,,,,,,,,,,,,,,,,,,,,,,,,,,,,,,,,,,,,,,,,,,,,,,,,,,,,,,,,,,,,,,,,,,,,,,,,,,,,,,,,,,,,,,,,,,,,,,,,,,,
,,61533ead92c280c34cc22482,2024-02-22_03h14.01.929,kallum_motion_pilot,2023.2.2,Win32,163.9344262,61533ead92c280c34cc22482,65d6bb0e977760de756971f7,65d6bbeec7c0f830c49a8d46,0.0319,0.0319,0,103,103,59,1,twofour,,,,,,,,,,,,,,,,,,,,,,,,,,,,,,,,,,,,,,,,,,,,,,,,,,,,,,,,,,,,,,,,,,,,,,,,,,,,,,,,,,,,,,,,,,,,,,,,,,,,,,,,,,,,,,,,,,,,,,,,,,,,,,,,,,,,,,,,,
,,61533ead92c280c34cc22482,2024-02-22_03h14.01.929,kallum_motion_pilot,2023.2.2,Win32,163.9344262,61533ead92c280c34cc22482,65d6bb0e977760de756971f7,65d6bbeec7c0f830c49a8d46,0.0321,0.0321,0,104,104,44,1,threeone,,,,,,,,,,,,,,,,,,,,,,,,,,,,,,,,,,,,,,,,,,,,,,,,,,,,,,,,,,,,,,,,,,,,,,,,,,,,,,,,,,,,,,,,,,,,,,,,,,,,,,,,,,,,,,,,,,,,,,,,,,,,,,,,,,,,,,,,,
,,61533ead92c280c34cc22482,2024-02-22_03h14.01.929,kallum_motion_pilot,2023.2.2,Win32,163.9344262,61533ead92c280c34cc22482,65d6bb0e977760de756971f7,65d6bbeec7c0f830c49a8d46,0.0322,0.0322,0,105,105,24,1,onetwo,,,,,,,,,,,,,,,,,,,,,,,,,,,,,,,,,,,,,,,,,,,,,,,,,,,,,,,,,,,,,,,,,,,,,,,,,,,,,,,,,,,,,,,,,,,,,,,,,,,,,,,,,,,,,,,,,,,,,,,,,,,,,,,,,,,,,,,,,
,,61533ead92c280c34cc22482,2024-02-22_03h14.01.929,kallum_motion_pilot,2023.2.2,Win32,163.9344262,61533ead92c280c34cc22482,65d6bb0e977760de756971f7,65d6bbeec7c0f830c49a8d46,0.0322,0.0322,0,106,106,152,1,fivesix,,,,,,,,,,,,,,,,,,,,,,,,,,,,,,,,,,,,,,,,,,,,,,,,,,,,,,,,,,,,,,,,,,,,,,,,,,,,,,,,,,,,,,,,,,,,,,,,,,,,,,,,,,,,,,,,,,,,,,,,,,,,,,,,,,,,,,,,,
,,61533ead92c280c34cc22482,2024-02-22_03h14.01.929,kallum_motion_pilot,2023.2.2,Win32,163.9344262,61533ead92c280c34cc22482,65d6bb0e977760de756971f7,65d6bbeec7c0f830c49a8d46,0.0323,0.0323,0,107,107,145,1,fiveseven,,,,,,,,,,,,,,,,,,,,,,,,,,,,,,,,,,,,,,,,,,,,,,,,,,,,,,,,,,,,,,,,,,,,,,,,,,,,,,,,,,,,,,,,,,,,,,,,,,,,,,,,,,,,,,,,,,,,,,,,,,,,,,,,,,,,,,,,,
,,61533ead92c280c34cc22482,2024-02-22_03h14.01.929,kallum_motion_pilot,2023.2.2,Win32,163.9344262,61533ead92c280c34cc22482,65d6bb0e977760de756971f7,65d6bbeec7c0f830c49a8d46,0.0323,0.0324,0,108,108,103,1,eightseven,,,,,,,,,,,,,,,,,,,,,,,,,,,,,,,,,,,,,,,,,,,,,,,,,,,,,,,,,,,,,,,,,,,,,,,,,,,,,,,,,,,,,,,,,,,,,,,,,,,,,,,,,,,,,,,,,,,,,,,,,,,,,,,,,,,,,,,,,
,,61533ead92c280c34cc22482,2024-02-22_03h14.01.929,kallum_motion_pilot,2023.2.2,Win32,163.9344262,61533ead92c280c34cc22482,65d6bb0e977760de756971f7,65d6bbeec7c0f830c49a8d46,0.0324,0.0325,0,109,109,7,1,fourthree,,,,,,,,,,,,,,,,,,,,,,,,,,,,,,,,,,,,,,,,,,,,,,,,,,,,,,,,,,,,,,,,,,,,,,,,,,,,,,,,,,,,,,,,,,,,,,,,,,,,,,,,,,,,,,,,,,,,,,,,,,,,,,,,,,,,,,,,,
,,61533ead92c280c34cc22482,2024-02-22_03h14.01.929,kallum_motion_pilot,2023.2.2,Win32,163.9344262,61533ead92c280c34cc22482,65d6bb0e977760de756971f7,65d6bbeec7c0f830c49a8d46,0.0326,0.0326,0,110,110,114,1,sixfive,,,,,,,,,,,,,,,,,,,,,,,,,,,,,,,,,,,,,,,,,,,,,,,,,,,,,,,,,,,,,,,,,,,,,,,,,,,,,,,,,,,,,,,,,,,,,,,,,,,,,,,,,,,,,,,,,,,,,,,,,,,,,,,,,,,,,,,,,
,,61533ead92c280c34cc22482,2024-02-22_03h14.01.929,kallum_motion_pilot,2023.2.2,Win32,163.9344262,61533ead92c280c34cc22482,65d6bb0e977760de756971f7,65d6bbeec7c0f830c49a8d46,0.0327,0.0327,0,111,111,9,1,onethree,,,,,,,,,,,,,,,,,,,,,,,,,,,,,,,,,,,,,,,,,,,,,,,,,,,,,,,,,,,,,,,,,,,,,,,,,,,,,,,,,,,,,,,,,,,,,,,,,,,,,,,,,,,,,,,,,,,,,,,,,,,,,,,,,,,,,,,,,
,,61533ead92c280c34cc22482,2024-02-22_03h14.01.929,kallum_motion_pilot,2023.2.2,Win32,163.9344262,61533ead92c280c34cc22482,65d6bb0e977760de756971f7,65d6bbeec7c0f830c49a8d46,0.0327,0.0328,0,112,112,12,1,threeone,,,,,,,,,,,,,,,,,,,,,,,,,,,,,,,,,,,,,,,,,,,,,,,,,,,,,,,,,,,,,,,,,,,,,,,,,,,,,,,,,,,,,,,,,,,,,,,,,,,,,,,,,,,,,,,,,,,,,,,,,,,,,,,,,,,,,,,,,
,,61533ead92c280c34cc22482,2024-02-22_03h14.01.929,kallum_motion_pilot,2023.2.2,Win32,163.9344262,61533ead92c280c34cc22482,65d6bb0e977760de756971f7,65d6bbeec7c0f830c49a8d46,0.0329,0.0329,0,113,113,94,1,eightsix,,,,,,,,,,,,,,,,,,,,,,,,,,,,,,,,,,,,,,,,,,,,,,,,,,,,,,,,,,,,,,,,,,,,,,,,,,,,,,,,,,,,,,,,,,,,,,,,,,,,,,,,,,,,,,,,,,,,,,,,,,,,,,,,,,,,,,,,,
,,61533ead92c280c34cc22482,2024-02-22_03h14.01.929,kallum_motion_pilot,2023.2.2,Win32,163.9344262,61533ead92c280c34cc22482,65d6bb0e977760de756971f7,65d6bbeec7c0f830c49a8d46,0.0329,0.0329,0,114,114,5,1,threefour,,,,,,,,,,,,,,,,,,,,,,,,,,,,,,,,,,,,,,,,,,,,,,,,,,,,,,,,,,,,,,,,,,,,,,,,,,,,,,,,,,,,,,,,,,,,,,,,,,,,,,,,,,,,,,,,,,,,,,,,,,,,,,,,,,,,,,,,,
,,61533ead92c280c34cc22482,2024-02-22_03h14.01.929,kallum_motion_pilot,2023.2.2,Win32,163.9344262,61533ead92c280c34cc22482,65d6bb0e977760de756971f7,65d6bbeec7c0f830c49a8d46,0.033,0.033,0,115,115,154,1,sixfive,,,,,,,,,,,,,,,,,,,,,,,,,,,,,,,,,,,,,,,,,,,,,,,,,,,,,,,,,,,,,,,,,,,,,,,,,,,,,,,,,,,,,,,,,,,,,,,,,,,,,,,,,,,,,,,,,,,,,,,,,,,,,,,,,,,,,,,,,
,,61533ead92c280c34cc22482,2024-02-22_03h14.01.929,kallum_motion_pilot,2023.2.2,Win32,163.9344262,61533ead92c280c34cc22482,65d6bb0e977760de756971f7,65d6bbeec7c0f830c49a8d46,0.0331,0.0331,0,116,116,65,1,onethree,,,,,,,,,,,,,,,,,,,,,,,,,,,,,,,,,,,,,,,,,,,,,,,,,,,,,,,,,,,,,,,,,,,,,,,,,,,,,,,,,,,,,,,,,,,,,,,,,,,,,,,,,,,,,,,,,,,,,,,,,,,,,,,,,,,,,,,,,
,,61533ead92c280c34cc22482,2024-02-22_03h14.01.929,kallum_motion_pilot,2023.2.2,Win32,163.9344262,61533ead92c280c34cc22482,65d6bb0e977760de756971f7,65d6bbeec7c0f830c49a8d46,0.0332,0.0333,0,117,117,81,1,fiveseven,,,,,,,,,,,,,,,,,,,,,,,,,,,,,,,,,,,,,,,,,,,,,,,,,,,,,,,,,,,,,,,,,,,,,,,,,,,,,,,,,,,,,,,,,,,,,,,,,,,,,,,,,,,,,,,,,,,,,,,,,,,,,,,,,,,,,,,,,
,,61533ead92c280c34cc22482,2024-02-22_03h14.01.929,kallum_motion_pilot,2023.2.2,Win32,163.9344262,61533ead92c280c34cc22482,65d6bb0e977760de756971f7,65d6bbeec7c0f830c49a8d46,0.0333,0.0333,0,118,118,88,1,fivesix,,,,,,,,,,,,,,,,,,,,,,,,,,,,,,,,,,,,,,,,,,,,,,,,,,,,,,,,,,,,,,,,,,,,,,,,,,,,,,,,,,,,,,,,,,,,,,,,,,,,,,,,,,,,,,,,,,,,,,,,,,,,,,,,,,,,,,,,,
,,61533ead92c280c34cc22482,2024-02-22_03h14.01.929,kallum_motion_pilot,2023.2.2,Win32,163.9344262,61533ead92c280c34cc22482,65d6bb0e977760de756971f7,65d6bbeec7c0f830c49a8d46,0.0333,0.0334,0,119,119,92,1,sevenfive,,,,,,,,,,,,,,,,,,,,,,,,,,,,,,,,,,,,,,,,,,,,,,,,,,,,,,,,,,,,,,,,,,,,,,,,,,,,,,,,,,,,,,,,,,,,,,,,,,,,,,,,,,,,,,,,,,,,,,,,,,,,,,,,,,,,,,,,,
,,61533ead92c280c34cc22482,2024-02-22_03h14.01.929,kallum_motion_pilot,2023.2.2,Win32,163.9344262,61533ead92c280c34cc22482,65d6bb0e977760de756971f7,65d6bbeec7c0f830c49a8d46,0.0335,0.0335,0,120,120,22,1,fourtwo,,,,,,,,,,,,,,,,,,,,,,,,,,,,,,,,,,,,,,,,,,,,,,,,,,,,,,,,,,,,,,,,,,,,,,,,,,,,,,,,,,,,,,,,,,,,,,,,,,,,,,,,,,,,,,,,,,,,,,,,,,,,,,,,,,,,,,,,,
,,61533ead92c280c34cc22482,2024-02-22_03h14.01.929,kallum_motion_pilot,2023.2.2,Win32,163.9344262,61533ead92c280c34cc22482,65d6bb0e977760de756971f7,65d6bbeec7c0f830c49a8d46,0.0336,0.0336,0,121,121,142,1,eightsix,,,,,,,,,,,,,,,,,,,,,,,,,,,,,,,,,,,,,,,,,,,,,,,,,,,,,,,,,,,,,,,,,,,,,,,,,,,,,,,,,,,,,,,,,,,,,,,,,,,,,,,,,,,,,,,,,,,,,,,,,,,,,,,,,,,,,,,,,
,,61533ead92c280c34cc22482,2024-02-22_03h14.01.929,kallum_motion_pilot,2023.2.2,Win32,163.9344262,61533ead92c280c34cc22482,65d6bb0e977760de756971f7,65d6bbeec7c0f830c49a8d46,0.0336,0.0337,0,122,122,121,1,fiveseven,,,,,,,,,,,,,,,,,,,,,,,,,,,,,,,,,,,,,,,,,,,,,,,,,,,,,,,,,,,,,,,,,,,,,,,,,,,,,,,,,,,,,,,,,,,,,,,,,,,,,,,,,,,,,,,,,,,,,,,,,,,,,,,,,,,,,,,,,
,,61533ead92c280c34cc22482,2024-02-22_03h14.01.929,kallum_motion_pilot,2023.2.2,Win32,163.9344262,61533ead92c280c34cc22482,65d6bb0e977760de756971f7,65d6bbeec7c0f830c49a8d46,0.0338,0.0338,0,123,123,96,1,fivesix,,,,,,,,,,,,,,,,,,,,,,,,,,,,,,,,,,,,,,,,,,,,,,,,,,,,,,,,,,,,,,,,,,,,,,,,,,,,,,,,,,,,,,,,,,,,,,,,,,,,,,,,,,,,,,,,,,,,,,,,,,,,,,,,,,,,,,,,,
,,61533ead92c280c34cc22482,2024-02-22_03h14.01.929,kallum_motion_pilot,2023.2.2,Win32,163.9344262,61533ead92c280c34cc22482,65d6bb0e977760de756971f7,65d6bbeec7c0f830c49a8d46,0.0338,0.0339,0,124,124,120,1,fivesix,,,,,,,,,,,,,,,,,,,,,,,,,,,,,,,,,,,,,,,,,,,,,,,,,,,,,,,,,,,,,,,,,,,,,,,,,,,,,,,,,,,,,,,,,,,,,,,,,,,,,,,,,,,,,,,,,,,,,,,,,,,,,,,,,,,,,,,,,
,,61533ead92c280c34cc22482,2024-02-22_03h14.01.929,kallum_motion_pilot,2023.2.2,Win32,163.9344262,61533ead92c280c34cc22482,65d6bb0e977760de756971f7,65d6bbeec7c0f830c49a8d46,0.0339,0.034,0,125,125,155,1,sixeight,,,,,,,,,,,,,,,,,,,,,,,,,,,,,,,,,,,,,,,,,,,,,,,,,,,,,,,,,,,,,,,,,,,,,,,,,,,,,,,,,,,,,,,,,,,,,,,,,,,,,,,,,,,,,,,,,,,,,,,,,,,,,,,,,,,,,,,,,
,,61533ead92c280c34cc22482,2024-02-22_03h14.01.929,kallum_motion_pilot,2023.2.2,Win32,163.9344262,61533ead92c280c34cc22482,65d6bb0e977760de756971f7,65d6bbeec7c0f830c49a8d46,0.034,0.0341,0,126,126,85,1,seveneight,,,,,,,,,,,,,,,,,,,,,,,,,,,,,,,,,,,,,,,,,,,,,,,,,,,,,,,,,,,,,,,,,,,,,,,,,,,,,,,,,,,,,,,,,,,,,,,,,,,,,,,,,,,,,,,,,,,,,,,,,,,,,,,,,,,,,,,,,
,,61533ead92c280c34cc22482,2024-02-22_03h14.01.929,kallum_motion_pilot,2023.2.2,Win32,163.9344262,61533ead92c280c34cc22482,65d6bb0e977760de756971f7,65d6bbeec7c0f830c49a8d46,0.0341,0.0342,0,127,127,25,1,onethree,,,,,,,,,,,,,,,,,,,,,,,,,,,,,,,,,,,,,,,,,,,,,,,,,,,,,,,,,,,,,,,,,,,,,,,,,,,,,,,,,,,,,,,,,,,,,,,,,,,,,,,,,,,,,,,,,,,,,,,,,,,,,,,,,,,,,,,,,
,,61533ead92c280c34cc22482,2024-02-22_03h14.01.929,kallum_motion_pilot,2023.2.2,Win32,163.9344262,61533ead92c280c34cc22482,65d6bb0e977760de756971f7,65d6bbeec7c0f830c49a8d46,0.0342,0.0342,0,128,128,80,1,fivesix,,,,,,,,,,,,,,,,,,,,,,,,,,,,,,,,,,,,,,,,,,,,,,,,,,,,,,,,,,,,,,,,,,,,,,,,,,,,,,,,,,,,,,,,,,,,,,,,,,,,,,,,,,,,,,,,,,,,,,,,,,,,,,,,,,,,,,,,,
,,61533ead92c280c34cc22482,2024-02-22_03h14.01.929,kallum_motion_pilot,2023.2.2,Win32,163.9344262,61533ead92c280c34cc22482,65d6bb0e977760de756971f7,65d6bbeec7c0f830c49a8d46,0.0343,0.0343,0,129,129,105,1,fiveseven,,,,,,,,,,,,,,,,,,,,,,,,,,,,,,,,,,,,,,,,,,,,,,,,,,,,,,,,,,,,,,,,,,,,,,,,,,,,,,,,,,,,,,,,,,,,,,,,,,,,,,,,,,,,,,,,,,,,,,,,,,,,,,,,,,,,,,,,,
,,61533ead92c280c34cc22482,2024-02-22_03h14.01.929,kallum_motion_pilot,2023.2.2,Win32,163.9344262,61533ead92c280c34cc22482,65d6bb0e977760de756971f7,65d6bbeec7c0f830c49a8d46,0.0344,0.0345,0,130,130,70,1,fourtwo,,,,,,,,,,,,,,,,,,,,,,,,,,,,,,,,,,,,,,,,,,,,,,,,,,,,,,,,,,,,,,,,,,,,,,,,,,,,,,,,,,,,,,,,,,,,,,,,,,,,,,,,,,,,,,,,,,,,,,,,,,,,,,,,,,,,,,,,,
,,61533ead92c280c34cc22482,2024-02-22_03h14.01.929,kallum_motion_pilot,2023.2.2,Win32,163.9344262,61533ead92c280c34cc22482,65d6bb0e977760de756971f7,65d6bbeec7c0f830c49a8d46,0.0345,0.0345,0,131,131,66,1,twoone,,,,,,,,,,,,,,,,,,,,,,,,,,,,,,,,,,,,,,,,,,,,,,,,,,,,,,,,,,,,,,,,,,,,,,,,,,,,,,,,,,,,,,,,,,,,,,,,,,,,,,,,,,,,,,,,,,,,,,,,,,,,,,,,,,,,,,,,,
,,61533ead92c280c34cc22482,2024-02-22_03h14.01.929,kallum_motion_pilot,2023.2.2,Win32,163.9344262,61533ead92c280c34cc22482,65d6bb0e977760de756971f7,65d6bbeec7c0f830c49a8d46,0.0345,0.0346,0,132,132,150,1,eightsix,,,,,,,,,,,,,,,,,,,,,,,,,,,,,,,,,,,,,,,,,,,,,,,,,,,,,,,,,,,,,,,,,,,,,,,,,,,,,,,,,,,,,,,,,,,,,,,,,,,,,,,,,,,,,,,,,,,,,,,,,,,,,,,,,,,,,,,,,
,,61533ead92c280c34cc22482,2024-02-22_03h14.01.929,kallum_motion_pilot,2023.2.2,Win32,163.9344262,61533ead92c280c34cc22482,65d6bb0e977760de756971f7,65d6bbeec7c0f830c49a8d46,0.0347,0.0347,0,133,133,93,1,seveneight,,,,,,,,,,,,,,,,,,,,,,,,,,,,,,,,,,,,,,,,,,,,,,,,,,,,,,,,,,,,,,,,,,,,,,,,,,,,,,,,,,,,,,,,,,,,,,,,,,,,,,,,,,,,,,,,,,,,,,,,,,,,,,,,,,,,,,,,,
,,61533ead92c280c34cc22482,2024-02-22_03h14.01.929,kallum_motion_pilot,2023.2.2,Win32,163.9344262,61533ead92c280c34cc22482,65d6bb0e977760de756971f7,65d6bbeec7c0f830c49a8d46,0.0347,0.0348,0,134,134,57,1,onethree,,,,,,,,,,,,,,,,,,,,,,,,,,,,,,,,,,,,,,,,,,,,,,,,,,,,,,,,,,,,,,,,,,,,,,,,,,,,,,,,,,,,,,,,,,,,,,,,,,,,,,,,,,,,,,,,,,,,,,,,,,,,,,,,,,,,,,,,,
,,61533ead92c280c34cc22482,2024-02-22_03h14.01.929,kallum_motion_pilot,2023.2.2,Win32,163.9344262,61533ead92c280c34cc22482,65d6bb0e977760de756971f7,65d6bbeec7c0f830c49a8d46,0.0349,0.0349,0,135,135,160,1,fivesix,,,,,,,,,,,,,,,,,,,,,,,,,,,,,,,,,,,,,,,,,,,,,,,,,,,,,,,,,,,,,,,,,,,,,,,,,,,,,,,,,,,,,,,,,,,,,,,,,,,,,,,,,,,,,,,,,,,,,,,,,,,,,,,,,,,,,,,,,
,,61533ead92c280c34cc22482,2024-02-22_03h14.01.929,kallum_motion_pilot,2023.2.2,Win32,163.9344262,61533ead92c280c34cc22482,65d6bb0e977760de756971f7,65d6bbeec7c0f830c49a8d46,0.035,0.035,0,136,136,116,1,sevenfive,,,,,,,,,,,,,,,,,,,,,,,,,,,,,,,,,,,,,,,,,,,,,,,,,,,,,,,,,,,,,,,,,,,,,,,,,,,,,,,,,,,,,,,,,,,,,,,,,,,,,,,,,,,,,,,,,,,,,,,,,,,,,,,,,,,,,,,,,
,,61533ead92c280c34cc22482,2024-02-22_03h14.01.929,kallum_motion_pilot,2023.2.2,Win32,163.9344262,61533ead92c280c34cc22482,65d6bb0e977760de756971f7,65d6bbeec7c0f830c49a8d46,0.0351,0.0351,0,137,137,151,1,eightseven,,,,,,,,,,,,,,,,,,,,,,,,,,,,,,,,,,,,,,,,,,,,,,,,,,,,,,,,,,,,,,,,,,,,,,,,,,,,,,,,,,,,,,,,,,,,,,,,,,,,,,,,,,,,,,,,,,,,,,,,,,,,,,,,,,,,,,,,,
,,61533ead92c280c34cc22482,2024-02-22_03h14.01.929,kallum_motion_pilot,2023.2.2,Win32,163.9344262,61533ead92c280c34cc22482,65d6bb0e977760de756971f7,65d6bbeec7c0f830c49a8d46,0.0352,0.0352,0,138,138,129,1,fiveseven,,,,,,,,,,,,,,,,,,,,,,,,,,,,,,,,,,,,,,,,,,,,,,,,,,,,,,,,,,,,,,,,,,,,,,,,,,,,,,,,,,,,,,,,,,,,,,,,,,,,,,,,,,,,,,,,,,,,,,,,,,,,,,,,,,,,,,,,,
,,61533ead92c280c34cc22482,2024-02-22_03h14.01.929,kallum_motion_pilot,2023.2.2,Win32,163.9344262,61533ead92c280c34cc22482,65d6bb0e977760de756971f7,65d6bbeec7c0f830c49a8d46,0.0352,0.0353,0,139,139,149,1,seveneight,,,,,,,,,,,,,,,,,,,,,,,,,,,,,,,,,,,,,,,,,,,,,,,,,,,,,,,,,,,,,,,,,,,,,,,,,,,,,,,,,,,,,,,,,,,,,,,,,,,,,,,,,,,,,,,,,,,,,,,,,,,,,,,,,,,,,,,,,
,,61533ead92c280c34cc22482,2024-02-22_03h14.01.929,kallum_motion_pilot,2023.2.2,Win32,163.9344262,61533ead92c280c34cc22482,65d6bb0e977760de756971f7,65d6bbeec7c0f830c49a8d46,0.0353,0.0354,0,140,140,27,1,twofour,,,,,,,,,,,,,,,,,,,,,,,,,,,,,,,,,,,,,,,,,,,,,,,,,,,,,,,,,,,,,,,,,,,,,,,,,,,,,,,,,,,,,,,,,,,,,,,,,,,,,,,,,,,,,,,,,,,,,,,,,,,,,,,,,,,,,,,,,
,,61533ead92c280c34cc22482,2024-02-22_03h14.01.929,kallum_motion_pilot,2023.2.2,Win32,163.9344262,61533ead92c280c34cc22482,65d6bb0e977760de756971f7,65d6bbeec7c0f830c49a8d46,0.0354,0.0355,0,141,141,1,1,onethree,,,,,,,,,,,,,,,,,,,,,,,,,,,,,,,,,,,,,,,,,,,,,,,,,,,,,,,,,,,,,,,,,,,,,,,,,,,,,,,,,,,,,,,,,,,,,,,,,,,,,,,,,,,,,,,,,,,,,,,,,,,,,,,,,,,,,,,,,
,,61533ead92c280c34cc22482,2024-02-22_03h14.01.929,kallum_motion_pilot,2023.2.2,Win32,163.9344262,61533ead92c280c34cc22482,65d6bb0e977760de756971f7,65d6bbeec7c0f830c49a8d46,0.0356,0.0356,0,142,142,101,1,seveneight,,,,,,,,,,,,,,,,,,,,,,,,,,,,,,,,,,,,,,,,,,,,,,,,,,,,,,,,,,,,,,,,,,,,,,,,,,,,,,,,,,,,,,,,,,,,,,,,,,,,,,,,,,,,,,,,,,,,,,,,,,,,,,,,,,,,,,,,,
,,61533ead92c280c34cc22482,2024-02-22_03h14.01.929,kallum_motion_pilot,2023.2.2,Win32,163.9344262,61533ead92c280c34cc22482,65d6bb0e977760de756971f7,65d6bbeec7c0f830c49a8d46,0.0357,0.0357,0,143,143,111,1,eightseven,,,,,,,,,,,,,,,,,,,,,,,,,,,,,,,,,,,,,,,,,,,,,,,,,,,,,,,,,,,,,,,,,,,,,,,,,,,,,,,,,,,,,,,,,,,,,,,,,,,,,,,,,,,,,,,,,,,,,,,,,,,,,,,,,,,,,,,,,
,,61533ead92c280c34cc22482,2024-02-22_03h14.01.929,kallum_motion_pilot,2023.2.2,Win32,163.9344262,61533ead92c280c34cc22482,65d6bb0e977760de756971f7,65d6bbeec7c0f830c49a8d46,0.0357,0.0357,0,144,144,87,1,eightseven,,,,,,,,,,,,,,,,,,,,,,,,,,,,,,,,,,,,,,,,,,,,,,,,,,,,,,,,,,,,,,,,,,,,,,,,,,,,,,,,,,,,,,,,,,,,,,,,,,,,,,,,,,,,,,,,,,,,,,,,,,,,,,,,,,,,,,,,,
,,61533ead92c280c34cc22482,2024-02-22_03h14.01.929,kallum_motion_pilot,2023.2.2,Win32,163.9344262,61533ead92c280c34cc22482,65d6bb0e977760de756971f7,65d6bbeec7c0f830c49a8d46,0.0358,0.0359,0,145,145,33,1,onethree,,,,,,,,,,,,,,,,,,,,,,,,,,,,,,,,,,,,,,,,,,,,,,,,,,,,,,,,,,,,,,,,,,,,,,,,,,,,,,,,,,,,,,,,,,,,,,,,,,,,,,,,,,,,,,,,,,,,,,,,,,,,,,,,,,,,,,,,,
,,61533ead92c280c34cc22482,2024-02-22_03h14.01.929,kallum_motion_pilot,2023.2.2,Win32,163.9344262,61533ead92c280c34cc22482,65d6bb0e977760de756971f7,65d6bbeec7c0f830c49a8d46,0.0359,0.036,0,146,146,161,1,fiveseven,,,,,,,,,,,,,,,,,,,,,,,,,,,,,,,,,,,,,,,,,,,,,,,,,,,,,,,,,,,,,,,,,,,,,,,,,,,,,,,,,,,,,,,,,,,,,,,,,,,,,,,,,,,,,,,,,,,,,,,,,,,,,,,,,,,,,,,,,
,,61533ead92c280c34cc22482,2024-02-22_03h14.01.929,kallum_motion_pilot,2023.2.2,Win32,163.9344262,61533ead92c280c34cc22482,65d6bb0e977760de756971f7,65d6bbeec7c0f830c49a8d46,0.0361,0.0361,0,147,147,75,1,twofour,,,,,,,,,,,,,,,,,,,,,,,,,,,,,,,,,,,,,,,,,,,,,,,,,,,,,,,,,,,,,,,,,,,,,,,,,,,,,,,,,,,,,,,,,,,,,,,,,,,,,,,,,,,,,,,,,,,,,,,,,,,,,,,,,,,,,,,,,
,,61533ead92c280c34cc22482,2024-02-22_03h14.01.929,kallum_motion_pilot,2023.2.2,Win32,163.9344262,61533ead92c280c34cc22482,65d6bb0e977760de756971f7,65d6bbeec7c0f830c49a8d46,0.0362,0.0362,0,148,148,73,1,onethree,,,,,,,,,,,,,,,,,,,,,,,,,,,,,,,,,,,,,,,,,,,,,,,,,,,,,,,,,,,,,,,,,,,,,,,,,,,,,,,,,,,,,,,,,,,,,,,,,,,,,,,,,,,,,,,,,,,,,,,,,,,,,,,,,,,,,,,,,
,,61533ead92c280c34cc22482,2024-02-22_03h14.01.929,kallum_motion_pilot,2023.2.2,Win32,163.9344262,61533ead92c280c34cc22482,65d6bb0e977760de756971f7,65d6bbeec7c0f830c49a8d46,0.0363,0.0363,0,149,149,58,1,twoone,,,,,,,,,,,,,,,,,,,,,,,,,,,,,,,,,,,,,,,,,,,,,,,,,,,,,,,,,,,,,,,,,,,,,,,,,,,,,,,,,,,,,,,,,,,,,,,,,,,,,,,,,,,,,,,,,,,,,,,,,,,,,,,,,,,,,,,,,
,,61533ead92c280c34cc22482,2024-02-22_03h14.01.929,kallum_motion_pilot,2023.2.2,Win32,163.9344262,61533ead92c280c34cc22482,65d6bb0e977760de756971f7,65d6bbeec7c0f830c49a8d46,0.0364,0.0364,0,150,150,157,1,seveneight,,,,,,,,,,,,,,,,,,,,,,,,,,,,,,,,,,,,,,,,,,,,,,,,,,,,,,,,,,,,,,,,,,,,,,,,,,,,,,,,,,,,,,,,,,,,,,,,,,,,,,,,,,,,,,,,,,,,,,,,,,,,,,,,,,,,,,,,,
,,61533ead92c280c34cc22482,2024-02-22_03h14.01.929,kallum_motion_pilot,2023.2.2,Win32,163.9344262,61533ead92c280c34cc22482,65d6bb0e977760de756971f7,65d6bbeec7c0f830c49a8d46,0.0364,0.0365,0,151,151,21,1,threefour,,,,,,,,,,,,,,,,,,,,,,,,,,,,,,,,,,,,,,,,,,,,,,,,,,,,,,,,,,,,,,,,,,,,,,,,,,,,,,,,,,,,,,,,,,,,,,,,,,,,,,,,,,,,,,,,,,,,,,,,,,,,,,,,,,,,,,,,,
,,61533ead92c280c34cc22482,2024-02-22_03h14.01.929,kallum_motion_pilot,2023.2.2,Win32,163.9344262,61533ead92c280c34cc22482,65d6bb0e977760de756971f7,65d6bbeec7c0f830c49a8d46,0.0366,0.0366,0,152,152,119,1,eightseven,,,,,,,,,,,,,,,,,,,,,,,,,,,,,,,,,,,,,,,,,,,,,,,,,,,,,,,,,,,,,,,,,,,,,,,,,,,,,,,,,,,,,,,,,,,,,,,,,,,,,,,,,,,,,,,,,,,,,,,,,,,,,,,,,,,,,,,,,
,,61533ead92c280c34cc22482,2024-02-22_03h14.01.929,kallum_motion_pilot,2023.2.2,Win32,163.9344262,61533ead92c280c34cc22482,65d6bb0e977760de756971f7,65d6bbeec7c0f830c49a8d46,0.0367,0.0367,0,153,153,78,1,fourtwo,,,,,,,,,,,,,,,,,,,,,,,,,,,,,,,,,,,,,,,,,,,,,,,,,,,,,,,,,,,,,,,,,,,,,,,,,,,,,,,,,,,,,,,,,,,,,,,,,,,,,,,,,,,,,,,,,,,,,,,,,,,,,,,,,,,,,,,,,
,,61533ead92c280c34cc22482,2024-02-22_03h14.01.929,kallum_motion_pilot,2023.2.2,Win32,163.9344262,61533ead92c280c34cc22482,65d6bb0e977760de756971f7,65d6bbeec7c0f830c49a8d46,0.0367,0.0368,0,154,154,69,1,threefour,,,,,,,,,,,,,,,,,,,,,,,,,,,,,,,,,,,,,,,,,,,,,,,,,,,,,,,,,,,,,,,,,,,,,,,,,,,,,,,,,,,,,,,,,,,,,,,,,,,,,,,,,,,,,,,,,,,,,,,,,,,,,,,,,,,,,,,,,
,,61533ead92c280c34cc22482,2024-02-22_03h14.01.929,kallum_motion_pilot,2023.2.2,Win32,163.9344262,61533ead92c280c34cc22482,65d6bb0e977760de756971f7,65d6bbeec7c0f830c49a8d46,0.0368,0.037,0,155,155,64,1,onetwo,,,,,,,,,,,,,,,,,,,,,,,,,,,,,,,,,,,,,,,,,,,,,,,,,,,,,,,,,,,,,,,,,,,,,,,,,,,,,,,,,,,,,,,,,,,,,,,,,,,,,,,,,,,,,,,,,,,,,,,,,,,,,,,,,,,,,,,,,
,,61533ead92c280c34cc22482,2024-02-22_03h14.01.929,kallum_motion_pilot,2023.2.2,Win32,163.9344262,61533ead92c280c34cc22482,65d6bb0e977760de756971f7,65d6bbeec7c0f830c49a8d46,0.037,0.037,0,156,156,132,1,sevenfive,,,,,,,,,,,,,,,,,,,,,,,,,,,,,,,,,,,,,,,,,,,,,,,,,,,,,,,,,,,,,,,,,,,,,,,,,,,,,,,,,,,,,,,,,,,,,,,,,,,,,,,,,,,,,,,,,,,,,,,,,,,,,,,,,,,,,,,,,
,,61533ead92c280c34cc22482,2024-02-22_03h14.01.929,kallum_motion_pilot,2023.2.2,Win32,163.9344262,61533ead92c280c34cc22482,65d6bb0e977760de756971f7,65d6bbeec7c0f830c49a8d46,0.0371,0.0372,0,157,157,148,1,sevenfive,,,,,,,,,,,,,,,,,,,,,,,,,,,,,,,,,,,,,,,,,,,,,,,,,,,,,,,,,,,,,,,,,,,,,,,,,,,,,,,,,,,,,,,,,,,,,,,,,,,,,,,,,,,,,,,,,,,,,,,,,,,,,,,,,,,,,,,,,
,,61533ead92c280c34cc22482,2024-02-22_03h14.01.929,kallum_motion_pilot,2023.2.2,Win32,163.9344262,61533ead92c280c34cc22482,65d6bb0e977760de756971f7,65d6bbeec7c0f830c49a8d46,0.0372,0.0372,0,158,158,141,1,seveneight,,,,,,,,,,,,,,,,,,,,,,,,,,,,,,,,,,,,,,,,,,,,,,,,,,,,,,,,,,,,,,,,,,,,,,,,,,,,,,,,,,,,,,,,,,,,,,,,,,,,,,,,,,,,,,,,,,,,,,,,,,,,,,,,,,,,,,,,,
,,61533ead92c280c34cc22482,2024-02-22_03h14.01.929,kallum_motion_pilot,2023.2.2,Win32,163.9344262,61533ead92c280c34cc22482,65d6bb0e977760de756971f7,65d6bbeec7c0f830c49a8d46,0.0373,0.0373,0,159,159,89,1,fiveseven,,,,,,,,,,,,,,,,,,,,,,,,,,,,,,,,,,,,,,,,,,,,,,,,,,,,,,,,,,,,,,,,,,,,,,,,,,,,,,,,,,,,,,,,,,,,,,,,,,,,,,,,,,,,,,,,,,,,,,,,,,,,,,,,,,,,,,,,,
,,61533ead92c280c34cc22482,2024-02-22_03h14.01.929,kallum_motion_pilot,2023.2.2,Win32,163.9344262,61533ead92c280c34cc22482,65d6bb0e977760de756971f7,65d6bbeec7c0f830c49a8d46,0.0374,0.0374,0,160,160,71,1,fourthree,,,,,,,,,,,,,,,,,,,,,,,,,,,,,,,,,,,,,,,,,,,,,,,,,,,,,,,,,,,,,,,,,,,,,,,,,,,,,,,,,,,,,,,,,,,,,,,,,,,,,,,,,,,,,,,,,,,,,,,,,,,,,,,,,,,,,,,,,
,,61533ead92c280c34cc22482,2024-02-22_03h14.01.929,kallum_motion_pilot,2023.2.2,Win32,163.9344262,61533ead92c280c34cc22482,65d6bb0e977760de756971f7,65d6bbeec7c0f830c49a8d46,0.0375,0.0376,0,161,161,83,1,sixeight,,,,,,,,,,,,,,,,,,,,,,,,,,,,,,,,,,,,,,,,,,,,,,,,,,,,,,,,,,,,,,,,,,,,,,,,,,,,,,,,,,,,,,,,,,,,,,,,,,,,,,,,,,,,,,,,,,,,,,,,,,,,,,,,,,,,,,,,,
,,61533ead92c280c34cc22482,2024-02-22_03h14.01.929,kallum_motion_pilot,2023.2.2,Win32,163.9344262,61533ead92c280c34cc22482,65d6bb0e977760de756971f7,65d6bbeec7c0f830c49a8d46,0.0376,0.0377,1,0,162,43,1,twofour,,,,,,,,,,,,,,,,,,,,,,,,,,,,,,,,,,,,,,,,,,,,,,,,,,,,,,,,,,,,,,,,,,,,,,,,,,,,,,,,,,,,,,,,,,,,,,,,,,,,,,,,,,,,,,,,,,,,,,,,,,,,,,,,,,,,,,,,,
,,61533ead92c280c34cc22482,2024-02-22_03h14.01.929,kallum_motion_pilot,2023.2.2,Win32,163.9344262,61533ead92c280c34cc22482,65d6bb0e977760de756971f7,65d6bbeec7c0f830c49a8d46,0.0377,0.0377,1,1,163,40,1,onetwo,,,,,,,,,,,,,,,,,,,,,,,,,,,,,,,,,,,,,,,,,,,,,,,,,,,,,,,,,,,,,,,,,,,,,,,,,,,,,,,,,,,,,,,,,,,,,,,,,,,,,,,,,,,,,,,,,,,,,,,,,,,,,,,,,,,,,,,,,
,,61533ead92c280c34cc22482,2024-02-22_03h14.01.929,kallum_motion_pilot,2023.2.2,Win32,163.9344262,61533ead92c280c34cc22482,65d6bb0e977760de756971f7,65d6bbeec7c0f830c49a8d46,0.0378,0.0378,1,2,164,18,1,twoone,,,,,,,,,,,,,,,,,,,,,,,,,,,,,,,,,,,,,,,,,,,,,,,,,,,,,,,,,,,,,,,,,,,,,,,,,,,,,,,,,,,,,,,,,,,,,,,,,,,,,,,,,,,,,,,,,,,,,,,,,,,,,,,,,,,,,,,,,
,,61533ead92c280c34cc22482,2024-02-22_03h14.01.929,kallum_motion_pilot,2023.2.2,Win32,163.9344262,61533ead92c280c34cc22482,65d6bb0e977760de756971f7,65d6bbeec7c0f830c49a8d46,0.0379,0.038,1,3,165,29,1,threefour,,,,,,,,,,,,,,,,,,,,,,,,,,,,,,,,,,,,,,,,,,,,,,,,,,,,,,,,,,,,,,,,,,,,,,,,,,,,,,,,,,,,,,,,,,,,,,,,,,,,,,,,,,,,,,,,,,,,,,,,,,,,,,,,,,,,,,,,,
,,61533ead92c280c34cc22482,2024-02-22_03h14.01.929,kallum_motion_pilot,2023.2.2,Win32,163.9344262,61533ead92c280c34cc22482,65d6bb0e977760de756971f7,65d6bbeec7c0f830c49a8d46,0.038,0.038,1,4,166,30,1,fourtwo,,,,,,,,,,,,,,,,,,,,,,,,,,,,,,,,,,,,,,,,,,,,,,,,,,,,,,,,,,,,,,,,,,,,,,,,,,,,,,,,,,,,,,,,,,,,,,,,,,,,,,,,,,,,,,,,,,,,,,,,,,,,,,,,,,,,,,,,,
,,61533ead92c280c34cc22482,2024-02-22_03h14.01.929,kallum_motion_pilot,2023.2.2,Win32,163.9344262,61533ead92c280c34cc22482,65d6bb0e977760de756971f7,65d6bbeec7c0f830c49a8d46,0.0381,0.0381,1,5,167,58,1,twoone,,,,,,,,,,,,,,,,,,,,,,,,,,,,,,,,,,,,,,,,,,,,,,,,,,,,,,,,,,,,,,,,,,,,,,,,,,,,,,,,,,,,,,,,,,,,,,,,,,,,,,,,,,,,,,,,,,,,,,,,,,,,,,,,,,,,,,,,,
,,61533ead92c280c34cc22482,2024-02-22_03h14.01.929,kallum_motion_pilot,2023.2.2,Win32,163.9344262,61533ead92c280c34cc22482,65d6bb0e977760de756971f7,65d6bbeec7c0f830c49a8d46,0.0382,0.0383,1,6,168,84,1,sevenfive,,,,,,,,,,,,,,,,,,,,,,,,,,,,,,,,,,,,,,,,,,,,,,,,,,,,,,,,,,,,,,,,,,,,,,,,,,,,,,,,,,,,,,,,,,,,,,,,,,,,,,,,,,,,,,,,,,,,,,,,,,,,,,,,,,,,,,,,,
,,61533ead92c280c34cc22482,2024-02-22_03h14.01.929,kallum_motion_pilot,2023.2.2,Win32,163.9344262,61533ead92c280c34cc22482,65d6bb0e977760de756971f7,65d6bbeec7c0f830c49a8d46,0.0384,0.0384,1,7,169,12,1,threeone,,,,,,,,,,,,,,,,,,,,,,,,,,,,,,,,,,,,,,,,,,,,,,,,,,,,,,,,,,,,,,,,,,,,,,,,,,,,,,,,,,,,,,,,,,,,,,,,,,,,,,,,,,,,,,,,,,,,,,,,,,,,,,,,,,,,,,,,,
,,61533ead92c280c34cc22482,2024-02-22_03h14.01.929,kallum_motion_pilot,2023.2.2,Win32,163.9344262,61533ead92c280c34cc22482,65d6bb0e977760de756971f7,65d6bbeec7c0f830c49a8d46,0.0384,0.0384,1,8,170,80,1,fivesix,,,,,,,,,,,,,,,,,,,,,,,,,,,,,,,,,,,,,,,,,,,,,,,,,,,,,,,,,,,,,,,,,,,,,,,,,,,,,,,,,,,,,,,,,,,,,,,,,,,,,,,,,,,,,,,,,,,,,,,,,,,,,,,,,,,,,,,,,
,,61533ead92c280c34cc22482,2024-02-22_03h14.01.929,kallum_motion_pilot,2023.2.2,Win32,163.9344262,61533ead92c280c34cc22482,65d6bb0e977760de756971f7,65d6bbeec7c0f830c49a8d46,0.0386,0.0386,1,9,171,26,1,twoone,,,,,,,,,,,,,,,,,,,,,,,,,,,,,,,,,,,,,,,,,,,,,,,,,,,,,,,,,,,,,,,,,,,,,,,,,,,,,,,,,,,,,,,,,,,,,,,,,,,,,,,,,,,,,,,,,,,,,,,,,,,,,,,,,,,,,,,,,
,,61533ead92c280c34cc22482,2024-02-22_03h14.01.929,kallum_motion_pilot,2023.2.2,Win32,163.9344262,61533ead92c280c34cc22482,65d6bb0e977760de756971f7,65d6bbeec7c0f830c49a8d46,0.0386,0.0386,1,10,172,136,1,fivesix,,,,,,,,,,,,,,,,,,,,,,,,,,,,,,,,,,,,,,,,,,,,,,,,,,,,,,,,,,,,,,,,,,,,,,,,,,,,,,,,,,,,,,,,,,,,,,,,,,,,,,,,,,,,,,,,,,,,,,,,,,,,,,,,,,,,,,,,,
,,61533ead92c280c34cc22482,2024-02-22_03h14.01.929,kallum_motion_pilot,2023.2.2,Win32,163.9344262,61533ead92c280c34cc22482,65d6bb0e977760de756971f7,65d6bbeec7c0f830c49a8d46,0.0387,0.0388,1,11,173,57,1,onethree,,,,,,,,,,,,,,,,,,,,,,,,,,,,,,,,,,,,,,,,,,,,,,,,,,,,,,,,,,,,,,,,,,,,,,,,,,,,,,,,,,,,,,,,,,,,,,,,,,,,,,,,,,,,,,,,,,,,,,,,,,,,,,,,,,,,,,,,,
,,61533ead92c280c34cc22482,2024-02-22_03h14.01.929,kallum_motion_pilot,2023.2.2,Win32,163.9344262,61533ead92c280c34cc22482,65d6bb0e977760de756971f7,65d6bbeec7c0f830c49a8d46,0.0388,0.0389,1,12,174,37,1,threefour,,,,,,,,,,,,,,,,,,,,,,,,,,,,,,,,,,,,,,,,,,,,,,,,,,,,,,,,,,,,,,,,,,,,,,,,,,,,,,,,,,,,,,,,,,,,,,,,,,,,,,,,,,,,,,,,,,,,,,,,,,,,,,,,,,,,,,,,,
,,61533ead92c280c34cc22482,2024-02-22_03h14.01.929,kallum_motion_pilot,2023.2.2,Win32,163.9344262,61533ead92c280c34cc22482,65d6bb0e977760de756971f7,65d6bbeec7c0f830c49a8d46,0.0389,0.039,1,13,175,145,1,fiveseven,,,,,,,,,,,,,,,,,,,,,,,,,,,,,,,,,,,,,,,,,,,,,,,,,,,,,,,,,,,,,,,,,,,,,,,,,,,,,,,,,,,,,,,,,,,,,,,,,,,,,,,,,,,,,,,,,,,,,,,,,,,,,,,,,,,,,,,,,
,,61533ead92c280c34cc22482,2024-02-22_03h14.01.929,kallum_motion_pilot,2023.2.2,Win32,163.9344262,61533ead92c280c34cc22482,65d6bb0e977760de756971f7,65d6bbeec7c0f830c49a8d46,0.039,0.0392,1,14,176,32,1,onetwo,,,,,,,,,,,,,,,,,,,,,,,,,,,,,,,,,,,,,,,,,,,,,,,,,,,,,,,,,,,,,,,,,,,,,,,,,,,,,,,,,,,,,,,,,,,,,,,,,,,,,,,,,,,,,,,,,,,,,,,,,,,,,,,,,,,,,,,,,
,,61533ead92c280c34cc22482,2024-02-22_03h14.01.929,kallum_motion_pilot,2023.2.2,Win32,163.9344262,61533ead92c280c34cc22482,65d6bb0e977760de756971f7,65d6bbeec7c0f830c49a8d46,0.0392,0.0392,1,15,177,5,1,threefour,,,,,,,,,,,,,,,,,,,,,,,,,,,,,,,,,,,,,,,,,,,,,,,,,,,,,,,,,,,,,,,,,,,,,,,,,,,,,,,,,,,,,,,,,,,,,,,,,,,,,,,,,,,,,,,,,,,,,,,,,,,,,,,,,,,,,,,,,
,,61533ead92c280c34cc22482,2024-02-22_03h14.01.929,kallum_motion_pilot,2023.2.2,Win32,163.9344262,61533ead92c280c34cc22482,65d6bb0e977760de756971f7,65d6bbeec7c0f830c49a8d46,0.0393,0.0393,1,16,178,140,1,sevenfive,,,,,,,,,,,,,,,,,,,,,,,,,,,,,,,,,,,,,,,,,,,,,,,,,,,,,,,,,,,,,,,,,,,,,,,,,,,,,,,,,,,,,,,,,,,,,,,,,,,,,,,,,,,,,,,,,,,,,,,,,,,,,,,,,,,,,,,,,
,,61533ead92c280c34cc22482,2024-02-22_03h14.01.929,kallum_motion_pilot,2023.2.2,Win32,163.9344262,61533ead92c280c34cc22482,65d6bb0e977760de756971f7,65d6bbeec7c0f830c49a8d46,0.0394,0.0394,1,17,179,14,1,fourtwo,,,,,,,,,,,,,,,,,,,,,,,,,,,,,,,,,,,,,,,,,,,,,,,,,,,,,,,,,,,,,,,,,,,,,,,,,,,,,,,,,,,,,,,,,,,,,,,,,,,,,,,,,,,,,,,,,,,,,,,,,,,,,,,,,,,,,,,,,
,,61533ead92c280c34cc22482,2024-02-22_03h14.01.929,kallum_motion_pilot,2023.2.2,Win32,163.9344262,61533ead92c280c34cc22482,65d6bb0e977760de756971f7,65d6bbeec7c0f830c49a8d46,0.0395,0.0395,1,18,180,95,1,eightseven,,,,,,,,,,,,,,,,,,,,,,,,,,,,,,,,,,,,,,,,,,,,,,,,,,,,,,,,,,,,,,,,,,,,,,,,,,,,,,,,,,,,,,,,,,,,,,,,,,,,,,,,,,,,,,,,,,,,,,,,,,,,,,,,,,,,,,,,,
,,61533ead92c280c34cc22482,2024-02-22_03h14.01.929,kallum_motion_pilot,2023.2.2,Win32,163.9344262,61533ead92c280c34cc22482,65d6bb0e977760de756971f7,65d6bbeec7c0f830c49a8d46,0.0396,0.0397,1,19,181,159,1,eightseven,,,,,,,,,,,,,,,,,,,,,,,,,,,,,,,,,,,,,,,,,,,,,,,,,,,,,,,,,,,,,,,,,,,,,,,,,,,,,,,,,,,,,,,,,,,,,,,,,,,,,,,,,,,,,,,,,,,,,,,,,,,,,,,,,,,,,,,,,
,,61533ead92c280c34cc22482,2024-02-22_03h14.01.929,kallum_motion_pilot,2023.2.2,Win32,163.9344262,61533ead92c280c34cc22482,65d6bb0e977760de756971f7,65d6bbeec7c0f830c49a8d46,0.0397,0.0397,1,20,182,128,1,fivesix,,,,,,,,,,,,,,,,,,,,,,,,,,,,,,,,,,,,,,,,,,,,,,,,,,,,,,,,,,,,,,,,,,,,,,,,,,,,,,,,,,,,,,,,,,,,,,,,,,,,,,,,,,,,,,,,,,,,,,,,,,,,,,,,,,,,,,,,,
,,61533ead92c280c34cc22482,2024-02-22_03h14.01.929,kallum_motion_pilot,2023.2.2,Win32,163.9344262,61533ead92c280c34cc22482,65d6bb0e977760de756971f7,65d6bbeec7c0f830c49a8d46,0.0398,0.0399,1,21,183,120,1,fivesix,,,,,,,,,,,,,,,,,,,,,,,,,,,,,,,,,,,,,,,,,,,,,,,,,,,,,,,,,,,,,,,,,,,,,,,,,,,,,,,,,,,,,,,,,,,,,,,,,,,,,,,,,,,,,,,,,,,,,,,,,,,,,,,,,,,,,,,,,
,,61533ead92c280c34cc22482,2024-02-22_03h14.01.929,kallum_motion_pilot,2023.2.2,Win32,163.9344262,61533ead92c280c34cc22482,65d6bb0e977760de756971f7,65d6bbeec7c0f830c49a8d46,0.0399,0.0399,1,22,184,9,1,onethree,,,,,,,,,,,,,,,,,,,,,,,,,,,,,,,,,,,,,,,,,,,,,,,,,,,,,,,,,,,,,,,,,,,,,,,,,,,,,,,,,,,,,,,,,,,,,,,,,,,,,,,,,,,,,,,,,,,,,,,,,,,,,,,,,,,,,,,,,
,,61533ead92c280c34cc22482,2024-02-22_03h14.01.929,kallum_motion_pilot,2023.2.2,Win32,163.9344262,61533ead92c280c34cc22482,65d6bb0e977760de756971f7,65d6bbeec7c0f830c49a8d46,0.04,0.0401,1,23,185,56,1,onetwo,,,,,,,,,,,,,,,,,,,,,,,,,,,,,,,,,,,,,,,,,,,,,,,,,,,,,,,,,,,,,,,,,,,,,,,,,,,,,,,,,,,,,,,,,,,,,,,,,,,,,,,,,,,,,,,,,,,,,,,,,,,,,,,,,,,,,,,,,
,,61533ead92c280c34cc22482,2024-02-22_03h14.01.929,kallum_motion_pilot,2023.2.2,Win32,163.9344262,61533ead92c280c34cc22482,65d6bb0e977760de756971f7,65d6bbeec7c0f830c49a8d46,0.0402,0.0402,1,24,186,107,1,sixeight,,,,,,,,,,,,,,,,,,,,,,,,,,,,,,,,,,,,,,,,,,,,,,,,,,,,,,,,,,,,,,,,,,,,,,,,,,,,,,,,,,,,,,,,,,,,,,,,,,,,,,,,,,,,,,,,,,,,,,,,,,,,,,,,,,,,,,,,,
,,61533ead92c280c34cc22482,2024-02-22_03h14.01.929,kallum_motion_pilot,2023.2.2,Win32,163.9344262,61533ead92c280c34cc22482,65d6bb0e977760de756971f7,65d6bbeec7c0f830c49a8d46,0.0402,0.0402,1,25,187,31,1,fourthree,,,,,,,,,,,,,,,,,,,,,,,,,,,,,,,,,,,,,,,,,,,,,,,,,,,,,,,,,,,,,,,,,,,,,,,,,,,,,,,,,,,,,,,,,,,,,,,,,,,,,,,,,,,,,,,,,,,,,,,,,,,,,,,,,,,,,,,,,
,,61533ead92c280c34cc22482,2024-02-22_03h14.01.929,kallum_motion_pilot,2023.2.2,Win32,163.9344262,61533ead92c280c34cc22482,65d6bb0e977760de756971f7,65d6bbeec7c0f830c49a8d46,0.0404,0.0404,1,26,188,53,1,threefour,,,,,,,,,,,,,,,,,,,,,,,,,,,,,,,,,,,,,,,,,,,,,,,,,,,,,,,,,,,,,,,,,,,,,,,,,,,,,,,,,,,,,,,,,,,,,,,,,,,,,,,,,,,,,,,,,,,,,,,,,,,,,,,,,,,,,,,,,
,,61533ead92c280c34cc22482,2024-02-22_03h14.01.929,kallum_motion_pilot,2023.2.2,Win32,163.9344262,61533ead92c280c34cc22482,65d6bb0e977760de756971f7,65d6bbeec7c0f830c49a8d46,0.0405,0.0405,1,27,189,55,1,fourthree,,,,,,,,,,,,,,,,,,,,,,,,,,,,,,,,,,,,,,,,,,,,,,,,,,,,,,,,,,,,,,,,,,,,,,,,,,,,,,,,,,,,,,,,,,,,,,,,,,,,,,,,,,,,,,,,,,,,,,,,,,,,,,,,,,,,,,,,,
,,61533ead92c280c34cc22482,2024-02-22_03h14.01.929,kallum_motion_pilot,2023.2.2,Win32,163.9344262,61533ead92c280c34cc22482,65d6bb0e977760de756971f7,65d6bbeec7c0f830c49a8d46,0.0405,0.0406,1,28,190,97,1,fiveseven,,,,,,,,,,,,,,,,,,,,,,,,,,,,,,,,,,,,,,,,,,,,,,,,,,,,,,,,,,,,,,,,,,,,,,,,,,,,,,,,,,,,,,,,,,,,,,,,,,,,,,,,,,,,,,,,,,,,,,,,,,,,,,,,,,,,,,,,,
,,61533ead92c280c34cc22482,2024-02-22_03h14.01.929,kallum_motion_pilot,2023.2.2,Win32,163.9344262,61533ead92c280c34cc22482,65d6bb0e977760de756971f7,65d6bbeec7c0f830c49a8d46,0.0407,0.0407,1,29,191,133,1,seveneight,,,,,,,,,,,,,,,,,,,,,,,,,,,,,,,,,,,,,,,,,,,,,,,,,,,,,,,,,,,,,,,,,,,,,,,,,,,,,,,,,,,,,,,,,,,,,,,,,,,,,,,,,,,,,,,,,,,,,,,,,,,,,,,,,,,,,,,,,
,,61533ead92c280c34cc22482,2024-02-22_03h14.01.929,kallum_motion_pilot,2023.2.2,Win32,163.9344262,61533ead92c280c34cc22482,65d6bb0e977760de756971f7,65d6bbeec7c0f830c49a8d46,0.0408,0.0409,1,30,192,119,1,eightseven,,,,,,,,,,,,,,,,,,,,,,,,,,,,,,,,,,,,,,,,,,,,,,,,,,,,,,,,,,,,,,,,,,,,,,,,,,,,,,,,,,,,,,,,,,,,,,,,,,,,,,,,,,,,,,,,,,,,,,,,,,,,,,,,,,,,,,,,,
,,61533ead92c280c34cc22482,2024-02-22_03h14.01.929,kallum_motion_pilot,2023.2.2,Win32,163.9344262,61533ead92c280c34cc22482,65d6bb0e977760de756971f7,65d6bbeec7c0f830c49a8d46,0.041,0.041,1,31,193,45,1,threefour,,,,,,,,,,,,,,,,,,,,,,,,,,,,,,,,,,,,,,,,,,,,,,,,,,,,,,,,,,,,,,,,,,,,,,,,,,,,,,,,,,,,,,,,,,,,,,,,,,,,,,,,,,,,,,,,,,,,,,,,,,,,,,,,,,,,,,,,,
,,61533ead92c280c34cc22482,2024-02-22_03h14.01.929,kallum_motion_pilot,2023.2.2,Win32,163.9344262,61533ead92c280c34cc22482,65d6bb0e977760de756971f7,65d6bbeec7c0f830c49a8d46,0.041,0.0411,1,32,194,85,1,seveneight,,,,,,,,,,,,,,,,,,,,,,,,,,,,,,,,,,,,,,,,,,,,,,,,,,,,,,,,,,,,,,,,,,,,,,,,,,,,,,,,,,,,,,,,,,,,,,,,,,,,,,,,,,,,,,,,,,,,,,,,,,,,,,,,,,,,,,,,,
,,61533ead92c280c34cc22482,2024-02-22_03h14.01.929,kallum_motion_pilot,2023.2.2,Win32,163.9344262,61533ead92c280c34cc22482,65d6bb0e977760de756971f7,65d6bbeec7c0f830c49a8d46,0.0412,0.0412,1,33,195,153,1,fiveseven,,,,,,,,,,,,,,,,,,,,,,,,,,,,,,,,,,,,,,,,,,,,,,,,,,,,,,,,,,,,,,,,,,,,,,,,,,,,,,,,,,,,,,,,,,,,,,,,,,,,,,,,,,,,,,,,,,,,,,,,,,,,,,,,,,,,,,,,,
,,61533ead92c280c34cc22482,2024-02-22_03h14.01.929,kallum_motion_pilot,2023.2.2,Win32,163.9344262,61533ead92c280c34cc22482,65d6bb0e977760de756971f7,65d6bbeec7c0f830c49a8d46,0.0413,0.0414,1,34,196,11,1,twofour,,,,,,,,,,,,,,,,,,,,,,,,,,,,,,,,,,,,,,,,,,,,,,,,,,,,,,,,,,,,,,,,,,,,,,,,,,,,,,,,,,,,,,,,,,,,,,,,,,,,,,,,,,,,,,,,,,,,,,,,,,,,,,,,,,,,,,,,,
,,61533ead92c280c34cc22482,2024-02-22_03h14.01.929,kallum_motion_pilot,2023.2.2,Win32,163.9344262,61533ead92c280c34cc22482,65d6bb0e977760de756971f7,65d6bbeec7c0f830c49a8d46,0.0414,0.0414,1,35,197,143,1,eightseven,,,,,,,,,,,,,,,,,,,,,,,,,,,,,,,,,,,,,,,,,,,,,,,,,,,,,,,,,,,,,,,,,,,,,,,,,,,,,,,,,,,,,,,,,,,,,,,,,,,,,,,,,,,,,,,,,,,,,,,,,,,,,,,,,,,,,,,,,
,,61533ead92c280c34cc22482,2024-02-22_03h14.01.929,kallum_motion_pilot,2023.2.2,Win32,163.9344262,61533ead92c280c34cc22482,65d6bb0e977760de756971f7,65d6bbeec7c0f830c49a8d46,0.0415,0.0415,1,36,198,59,1,twofour,,,,,,,,,,,,,,,,,,,,,,,,,,,,,,,,,,,,,,,,,,,,,,,,,,,,,,,,,,,,,,,,,,,,,,,,,,,,,,,,,,,,,,,,,,,,,,,,,,,,,,,,,,,,,,,,,,,,,,,,,,,,,,,,,,,,,,,,,
,,61533ead92c280c34cc22482,2024-02-22_03h14.01.929,kallum_motion_pilot,2023.2.2,Win32,163.9344262,61533ead92c280c34cc22482,65d6bb0e977760de756971f7,65d6bbeec7c0f830c49a8d46,0.0416,0.0417,1,37,199,72,1,onetwo,,,,,,,,,,,,,,,,,,,,,,,,,,,,,,,,,,,,,,,,,,,,,,,,,,,,,,,,,,,,,,,,,,,,,,,,,,,,,,,,,,,,,,,,,,,,,,,,,,,,,,,,,,,,,,,,,,,,,,,,,,,,,,,,,,,,,,,,,
,,61533ead92c280c34cc22482,2024-02-22_03h14.01.929,kallum_motion_pilot,2023.2.2,Win32,163.9344262,61533ead92c280c34cc22482,65d6bb0e977760de756971f7,65d6bbeec7c0f830c49a8d46,0.0417,0.0417,1,38,200,68,1,threeone,,,,,,,,,,,,,,,,,,,,,,,,,,,,,,,,,,,,,,,,,,,,,,,,,,,,,,,,,,,,,,,,,,,,,,,,,,,,,,,,,,,,,,,,,,,,,,,,,,,,,,,,,,,,,,,,,,,,,,,,,,,,,,,,,,,,,,,,,
,,61533ead92c280c34cc22482,2024-02-22_03h14.01.929,kallum_motion_pilot,2023.2.2,Win32,163.9344262,61533ead92c280c34cc22482,65d6bb0e977760de756971f7,65d6bbeec7c0f830c49a8d46,0.0418,0.0418,1,39,201,91,1,sixeight,,,,,,,,,,,,,,,,,,,,,,,,,,,,,,,,,,,,,,,,,,,,,,,,,,,,,,,,,,,,,,,,,,,,,,,,,,,,,,,,,,,,,,,,,,,,,,,,,,,,,,,,,,,,,,,,,,,,,,,,,,,,,,,,,,,,,,,,,
,,61533ead92c280c34cc22482,2024-02-22_03h14.01.929,kallum_motion_pilot,2023.2.2,Win32,163.9344262,61533ead92c280c34cc22482,65d6bb0e977760de756971f7,65d6bbeec7c0f830c49a8d46,0.042,0.042,1,40,202,137,1,fiveseven,,,,,,,,,,,,,,,,,,,,,,,,,,,,,,,,,,,,,,,,,,,,,,,,,,,,,,,,,,,,,,,,,,,,,,,,,,,,,,,,,,,,,,,,,,,,,,,,,,,,,,,,,,,,,,,,,,,,,,,,,,,,,,,,,,,,,,,,,
,,61533ead92c280c34cc22482,2024-02-22_03h14.01.929,kallum_motion_pilot,2023.2.2,Win32,163.9344262,61533ead92c280c34cc22482,65d6bb0e977760de756971f7,65d6bbeec7c0f830c49a8d46,0.042,0.0421,1,41,203,111,1,eightseven,,,,,,,,,,,,,,,,,,,,,,,,,,,,,,,,,,,,,,,,,,,,,,,,,,,,,,,,,,,,,,,,,,,,,,,,,,,,,,,,,,,,,,,,,,,,,,,,,,,,,,,,,,,,,,,,,,,,,,,,,,,,,,,,,,,,,,,,,
,,61533ead92c280c34cc22482,2024-02-22_03h14.01.929,kallum_motion_pilot,2023.2.2,Win32,163.9344262,61533ead92c280c34cc22482,65d6bb0e977760de756971f7,65d6bbeec7c0f830c49a8d46,0.0422,0.0422,1,42,204,46,1,fourtwo,,,,,,,,,,,,,,,,,,,,,,,,,,,,,,,,,,,,,,,,,,,,,,,,,,,,,,,,,,,,,,,,,,,,,,,,,,,,,,,,,,,,,,,,,,,,,,,,,,,,,,,,,,,,,,,,,,,,,,,,,,,,,,,,,,,,,,,,,
,,61533ead92c280c34cc22482,2024-02-22_03h14.01.929,kallum_motion_pilot,2023.2.2,Win32,163.9344262,61533ead92c280c34cc22482,65d6bb0e977760de756971f7,65d6bbeec7c0f830c49a8d46,0.0423,0.0423,1,43,205,96,1,fivesix,,,,,,,,,,,,,,,,,,,,,,,,,,,,,,,,,,,,,,,,,,,,,,,,,,,,,,,,,,,,,,,,,,,,,,,,,,,,,,,,,,,,,,,,,,,,,,,,,,,,,,,,,,,,,,,,,,,,,,,,,,,,,,,,,,,,,,,,,
,,61533ead92c280c34cc22482,2024-02-22_03h14.01.929,kallum_motion_pilot,2023.2.2,Win32,163.9344262,61533ead92c280c34cc22482,65d6bb0e977760de756971f7,65d6bbeec7c0f830c49a8d46,0.0424,0.0424,1,44,206,117,1,seveneight,,,,,,,,,,,,,,,,,,,,,,,,,,,,,,,,,,,,,,,,,,,,,,,,,,,,,,,,,,,,,,,,,,,,,,,,,,,,,,,,,,,,,,,,,,,,,,,,,,,,,,,,,,,,,,,,,,,,,,,,,,,,,,,,,,,,,,,,,
,,61533ead92c280c34cc22482,2024-02-22_03h14.01.929,kallum_motion_pilot,2023.2.2,Win32,163.9344262,61533ead92c280c34cc22482,65d6bb0e977760de756971f7,65d6bbeec7c0f830c49a8d46,0.0425,0.0425,1,45,207,67,1,twofour,,,,,,,,,,,,,,,,,,,,,,,,,,,,,,,,,,,,,,,,,,,,,,,,,,,,,,,,,,,,,,,,,,,,,,,,,,,,,,,,,,,,,,,,,,,,,,,,,,,,,,,,,,,,,,,,,,,,,,,,,,,,,,,,,,,,,,,,,
,,61533ead92c280c34cc22482,2024-02-22_03h14.01.929,kallum_motion_pilot,2023.2.2,Win32,163.9344262,61533ead92c280c34cc22482,65d6bb0e977760de756971f7,65d6bbeec7c0f830c49a8d46,0.0426,0.0426,1,46,208,154,1,sixfive,,,,,,,,,,,,,,,,,,,,,,,,,,,,,,,,,,,,,,,,,,,,,,,,,,,,,,,,,,,,,,,,,,,,,,,,,,,,,,,,,,,,,,,,,,,,,,,,,,,,,,,,,,,,,,,,,,,,,,,,,,,,,,,,,,,,,,,,,
,,61533ead92c280c34cc22482,2024-02-22_03h14.01.929,kallum_motion_pilot,2023.2.2,Win32,163.9344262,61533ead92c280c34cc22482,65d6bb0e977760de756971f7,65d6bbeec7c0f830c49a8d46,0.0427,0.0428,1,47,209,94,1,eightsix,,,,,,,,,,,,,,,,,,,,,,,,,,,,,,,,,,,,,,,,,,,,,,,,,,,,,,,,,,,,,,,,,,,,,,,,,,,,,,,,,,,,,,,,,,,,,,,,,,,,,,,,,,,,,,,,,,,,,,,,,,,,,,,,,,,,,,,,,
,,61533ead92c280c34cc22482,2024-02-22_03h14.01.929,kallum_motion_pilot,2023.2.2,Win32,163.9344262,61533ead92c280c34cc22482,65d6bb0e977760de756971f7,65d6bbeec7c0f830c49a8d46,0.0428,0.0428,1,48,210,19,1,twofour,,,,,,,,,,,,,,,,,,,,,,,,,,,,,,,,,,,,,,,,,,,,,,,,,,,,,,,,,,,,,,,,,,,,,,,,,,,,,,,,,,,,,,,,,,,,,,,,,,,,,,,,,,,,,,,,,,,,,,,,,,,,,,,,,,,,,,,,,
,,61533ead92c280c34cc22482,2024-02-22_03h14.01.929,kallum_motion_pilot,2023.2.2,Win32,163.9344262,61533ead92c280c34cc22482,65d6bb0e977760de756971f7,65d6bbeec7c0f830c49a8d46,0.0429,0.043,1,49,211,3,1,twofour,,,,,,,,,,,,,,,,,,,,,,,,,,,,,,,,,,,,,,,,,,,,,,,,,,,,,,,,,,,,,,,,,,,,,,,,,,,,,,,,,,,,,,,,,,,,,,,,,,,,,,,,,,,,,,,,,,,,,,,,,,,,,,,,,,,,,,,,,
,,61533ead92c280c34cc22482,2024-02-22_03h14.01.929,kallum_motion_pilot,2023.2.2,Win32,163.9344262,61533ead92c280c34cc22482,65d6bb0e977760de756971f7,65d6bbeec7c0f830c49a8d46,0.0431,0.0431,1,50,212,90,1,sixfive,,,,,,,,,,,,,,,,,,,,,,,,,,,,,,,,,,,,,,,,,,,,,,,,,,,,,,,,,,,,,,,,,,,,,,,,,,,,,,,,,,,,,,,,,,,,,,,,,,,,,,,,,,,,,,,,,,,,,,,,,,,,,,,,,,,,,,,,,
,,61533ead92c280c34cc22482,2024-02-22_03h14.01.929,kallum_motion_pilot,2023.2.2,Win32,163.9344262,61533ead92c280c34cc22482,65d6bb0e977760de756971f7,65d6bbeec7c0f830c49a8d46,0.0432,0.0432,1,51,213,51,1,twofour,,,,,,,,,,,,,,,,,,,,,,,,,,,,,,,,,,,,,,,,,,,,,,,,,,,,,,,,,,,,,,,,,,,,,,,,,,,,,,,,,,,,,,,,,,,,,,,,,,,,,,,,,,,,,,,,,,,,,,,,,,,,,,,,,,,,,,,,,
,,61533ead92c280c34cc22482,2024-02-22_03h14.01.929,kallum_motion_pilot,2023.2.2,Win32,163.9344262,61533ead92c280c34cc22482,65d6bb0e977760de756971f7,65d6bbeec7c0f830c49a8d46,0.0433,0.0433,1,52,214,86,1,eightsix,,,,,,,,,,,,,,,,,,,,,,,,,,,,,,,,,,,,,,,,,,,,,,,,,,,,,,,,,,,,,,,,,,,,,,,,,,,,,,,,,,,,,,,,,,,,,,,,,,,,,,,,,,,,,,,,,,,,,,,,,,,,,,,,,,,,,,,,,
,,61533ead92c280c34cc22482,2024-02-22_03h14.01.929,kallum_motion_pilot,2023.2.2,Win32,163.9344262,61533ead92c280c34cc22482,65d6bb0e977760de756971f7,65d6bbeec7c0f830c49a8d46,0.0434,0.0434,1,53,215,141,1,seveneight,,,,,,,,,,,,,,,,,,,,,,,,,,,,,,,,,,,,,,,,,,,,,,,,,,,,,,,,,,,,,,,,,,,,,,,,,,,,,,,,,,,,,,,,,,,,,,,,,,,,,,,,,,,,,,,,,,,,,,,,,,,,,,,,,,,,,,,,,
,,61533ead92c280c34cc22482,2024-02-22_03h14.01.929,kallum_motion_pilot,2023.2.2,Win32,163.9344262,61533ead92c280c34cc22482,65d6bb0e977760de756971f7,65d6bbeec7c0f830c49a8d46,0.0435,0.0435,1,54,216,125,1,seveneight,,,,,,,,,,,,,,,,,,,,,,,,,,,,,,,,,,,,,,,,,,,,,,,,,,,,,,,,,,,,,,,,,,,,,,,,,,,,,,,,,,,,,,,,,,,,,,,,,,,,,,,,,,,,,,,,,,,,,,,,,,,,,,,,,,,,,,,,,
,,61533ead92c280c34cc22482,2024-02-22_03h14.01.929,kallum_motion_pilot,2023.2.2,Win32,163.9344262,61533ead92c280c34cc22482,65d6bb0e977760de756971f7,65d6bbeec7c0f830c49a8d46,0.0437,0.0437,1,55,217,83,1,sixeight,,,,,,,,,,,,,,,,,,,,,,,,,,,,,,,,,,,,,,,,,,,,,,,,,,,,,,,,,,,,,,,,,,,,,,,,,,,,,,,,,,,,,,,,,,,,,,,,,,,,,,,,,,,,,,,,,,,,,,,,,,,,,,,,,,,,,,,,,
,,61533ead92c280c34cc22482,2024-02-22_03h14.01.929,kallum_motion_pilot,2023.2.2,Win32,163.9344262,61533ead92c280c34cc22482,65d6bb0e977760de756971f7,65d6bbeec7c0f830c49a8d46,0.0438,0.0438,1,56,218,76,1,threeone,,,,,,,,,,,,,,,,,,,,,,,,,,,,,,,,,,,,,,,,,,,,,,,,,,,,,,,,,,,,,,,,,,,,,,,,,,,,,,,,,,,,,,,,,,,,,,,,,,,,,,,,,,,,,,,,,,,,,,,,,,,,,,,,,,,,,,,,,
,,61533ead92c280c34cc22482,2024-02-22_03h14.01.929,kallum_motion_pilot,2023.2.2,Win32,163.9344262,61533ead92c280c34cc22482,65d6bb0e977760de756971f7,65d6bbeec7c0f830c49a8d46,0.0438,0.0439,1,57,219,110,1,eightsix,,,,,,,,,,,,,,,,,,,,,,,,,,,,,,,,,,,,,,,,,,,,,,,,,,,,,,,,,,,,,,,,,,,,,,,,,,,,,,,,,,,,,,,,,,,,,,,,,,,,,,,,,,,,,,,,,,,,,,,,,,,,,,,,,,,,,,,,,
,,61533ead92c280c34cc22482,2024-02-22_03h14.01.929,kallum_motion_pilot,2023.2.2,Win32,163.9344262,61533ead92c280c34cc22482,65d6bb0e977760de756971f7,65d6bbeec7c0f830c49a8d46,0.044,0.0441,1,58,220,89,1,fiveseven,,,,,,,,,,,,,,,,,,,,,,,,,,,,,,,,,,,,,,,,,,,,,,,,,,,,,,,,,,,,,,,,,,,,,,,,,,,,,,,,,,,,,,,,,,,,,,,,,,,,,,,,,,,,,,,,,,,,,,,,,,,,,,,,,,,,,,,,,
,,61533ead92c280c34cc22482,2024-02-22_03h14.01.929,kallum_motion_pilot,2023.2.2,Win32,163.9344262,61533ead92c280c34cc22482,65d6bb0e977760de756971f7,65d6bbeec7c0f830c49a8d46,0.0441,0.0441,1,59,221,39,1,fourthree,,,,,,,,,,,,,,,,,,,,,,,,,,,,,,,,,,,,,,,,,,,,,,,,,,,,,,,,,,,,,,,,,,,,,,,,,,,,,,,,,,,,,,,,,,,,,,,,,,,,,,,,,,,,,,,,,,,,,,,,,,,,,,,,,,,,,,,,,
,,61533ead92c280c34cc22482,2024-02-22_03h14.01.929,kallum_motion_pilot,2023.2.2,Win32,163.9344262,61533ead92c280c34cc22482,65d6bb0e977760de756971f7,65d6bbeec7c0f830c49a8d46,0.0442,0.0443,1,60,222,105,1,fiveseven,,,,,,,,,,,,,,,,,,,,,,,,,,,,,,,,,,,,,,,,,,,,,,,,,,,,,,,,,,,,,,,,,,,,,,,,,,,,,,,,,,,,,,,,,,,,,,,,,,,,,,,,,,,,,,,,,,,,,,,,,,,,,,,,,,,,,,,,,
,,61533ead92c280c34cc22482,2024-02-22_03h14.01.929,kallum_motion_pilot,2023.2.2,Win32,163.9344262,61533ead92c280c34cc22482,65d6bb0e977760de756971f7,65d6bbeec7c0f830c49a8d46,0.0443,0.0444,1,61,223,98,1,sixfive,,,,,,,,,,,,,,,,,,,,,,,,,,,,,,,,,,,,,,,,,,,,,,,,,,,,,,,,,,,,,,,,,,,,,,,,,,,,,,,,,,,,,,,,,,,,,,,,,,,,,,,,,,,,,,,,,,,,,,,,,,,,,,,,,,,,,,,,,
,,61533ead92c280c34cc22482,2024-02-22_03h14.01.929,kallum_motion_pilot,2023.2.2,Win32,163.9344262,61533ead92c280c34cc22482,65d6bb0e977760de756971f7,65d6bbeec7c0f830c49a8d46,0.0444,0.0445,1,62,224,106,1,sixfive,,,,,,,,,,,,,,,,,,,,,,,,,,,,,,,,,,,,,,,,,,,,,,,,,,,,,,,,,,,,,,,,,,,,,,,,,,,,,,,,,,,,,,,,,,,,,,,,,,,,,,,,,,,,,,,,,,,,,,,,,,,,,,,,,,,,,,,,,
,,61533ead92c280c34cc22482,2024-02-22_03h14.01.929,kallum_motion_pilot,2023.2.2,Win32,163.9344262,61533ead92c280c34cc22482,65d6bb0e977760de756971f7,65d6bbeec7c0f830c49a8d46,0.0445,0.0446,1,63,225,47,1,fourthree,,,,,,,,,,,,,,,,,,,,,,,,,,,,,,,,,,,,,,,,,,,,,,,,,,,,,,,,,,,,,,,,,,,,,,,,,,,,,,,,,,,,,,,,,,,,,,,,,,,,,,,,,,,,,,,,,,,,,,,,,,,,,,,,,,,,,,,,,
,,61533ead92c280c34cc22482,2024-02-22_03h14.01.929,kallum_motion_pilot,2023.2.2,Win32,163.9344262,61533ead92c280c34cc22482,65d6bb0e977760de756971f7,65d6bbeec7c0f830c49a8d46,0.0447,0.0447,1,64,226,66,1,twoone,,,,,,,,,,,,,,,,,,,,,,,,,,,,,,,,,,,,,,,,,,,,,,,,,,,,,,,,,,,,,,,,,,,,,,,,,,,,,,,,,,,,,,,,,,,,,,,,,,,,,,,,,,,,,,,,,,,,,,,,,,,,,,,,,,,,,,,,,
,,61533ead92c280c34cc22482,2024-02-22_03h14.01.929,kallum_motion_pilot,2023.2.2,Win32,163.9344262,61533ead92c280c34cc22482,65d6bb0e977760de756971f7,65d6bbeec7c0f830c49a8d46,0.0447,0.0449,1,65,227,25,1,onethree,,,,,,,,,,,,,,,,,,,,,,,,,,,,,,,,,,,,,,,,,,,,,,,,,,,,,,,,,,,,,,,,,,,,,,,,,,,,,,,,,,,,,,,,,,,,,,,,,,,,,,,,,,,,,,,,,,,,,,,,,,,,,,,,,,,,,,,,,
,,61533ead92c280c34cc22482,2024-02-22_03h14.01.929,kallum_motion_pilot,2023.2.2,Win32,163.9344262,61533ead92c280c34cc22482,65d6bb0e977760de756971f7,65d6bbeec7c0f830c49a8d46,0.0449,0.0449,1,66,228,139,1,sixeight,,,,,,,,,,,,,,,,,,,,,,,,,,,,,,,,,,,,,,,,,,,,,,,,,,,,,,,,,,,,,,,,,,,,,,,,,,,,,,,,,,,,,,,,,,,,,,,,,,,,,,,,,,,,,,,,,,,,,,,,,,,,,,,,,,,,,,,,,
,,61533ead92c280c34cc22482,2024-02-22_03h14.01.929,kallum_motion_pilot,2023.2.2,Win32,163.9344262,61533ead92c280c34cc22482,65d6bb0e977760de756971f7,65d6bbeec7c0f830c49a8d46,0.045,0.0451,1,67,229,156,1,sevenfive,,,,,,,,,,,,,,,,,,,,,,,,,,,,,,,,,,,,,,,,,,,,,,,,,,,,,,,,,,,,,,,,,,,,,,,,,,,,,,,,,,,,,,,,,,,,,,,,,,,,,,,,,,,,,,,,,,,,,,,,,,,,,,,,,,,,,,,,,
,,61533ead92c280c34cc22482,2024-02-22_03h14.01.929,kallum_motion_pilot,2023.2.2,Win32,163.9344262,61533ead92c280c34cc22482,65d6bb0e977760de756971f7,65d6bbeec7c0f830c49a8d46,0.0451,0.0452,1,68,230,93,1,seveneight,,,,,,,,,,,,,,,,,,,,,,,,,,,,,,,,,,,,,,,,,,,,,,,,,,,,,,,,,,,,,,,,,,,,,,,,,,,,,,,,,,,,,,,,,,,,,,,,,,,,,,,,,,,,,,,,,,,,,,,,,,,,,,,,,,,,,,,,,
,,61533ead92c280c34cc22482,2024-02-22_03h14.01.929,kallum_motion_pilot,2023.2.2,Win32,163.9344262,61533ead92c280c34cc22482,65d6bb0e977760de756971f7,65d6bbeec7c0f830c49a8d46,0.0452,0.0454,1,69,231,104,1,fivesix,,,,,,,,,,,,,,,,,,,,,,,,,,,,,,,,,,,,,,,,,,,,,,,,,,,,,,,,,,,,,,,,,,,,,,,,,,,,,,,,,,,,,,,,,,,,,,,,,,,,,,,,,,,,,,,,,,,,,,,,,,,,,,,,,,,,,,,,,
,,61533ead92c280c34cc22482,2024-02-22_03h14.01.929,kallum_motion_pilot,2023.2.2,Win32,163.9344262,61533ead92c280c34cc22482,65d6bb0e977760de756971f7,65d6bbeec7c0f830c49a8d46,0.0465,0.0466,1,70,232,100,1,sevenfive,,,,,,,,,,,,,,,,,,,,,,,,,,,,,,,,,,,,,,,,,,,,,,,,,,,,,,,,,,,,,,,,,,,,,,,,,,,,,,,,,,,,,,,,,,,,,,,,,,,,,,,,,,,,,,,,,,,,,,,,,,,,,,,,,,,,,,,,,
,,61533ead92c280c34cc22482,2024-02-22_03h14.01.929,kallum_motion_pilot,2023.2.2,Win32,163.9344262,61533ead92c280c34cc22482,65d6bb0e977760de756971f7,65d6bbeec7c0f830c49a8d46,0.0467,0.0467,1,71,233,44,1,threeone,,,,,,,,,,,,,,,,,,,,,,,,,,,,,,,,,,,,,,,,,,,,,,,,,,,,,,,,,,,,,,,,,,,,,,,,,,,,,,,,,,,,,,,,,,,,,,,,,,,,,,,,,,,,,,,,,,,,,,,,,,,,,,,,,,,,,,,,,
,,61533ead92c280c34cc22482,2024-02-22_03h14.01.929,kallum_motion_pilot,2023.2.2,Win32,163.9344262,61533ead92c280c34cc22482,65d6bb0e977760de756971f7,65d6bbeec7c0f830c49a8d46,0.0468,0.0469,1,72,234,92,1,sevenfive,,,,,,,,,,,,,,,,,,,,,,,,,,,,,,,,,,,,,,,,,,,,,,,,,,,,,,,,,,,,,,,,,,,,,,,,,,,,,,,,,,,,,,,,,,,,,,,,,,,,,,,,,,,,,,,,,,,,,,,,,,,,,,,,,,,,,,,,,
,,61533ead92c280c34cc22482,2024-02-22_03h14.01.929,kallum_motion_pilot,2023.2.2,Win32,163.9344262,61533ead92c280c34cc22482,65d6bb0e977760de756971f7,65d6bbeec7c0f830c49a8d46,0.0469,0.047,1,73,235,63,1,fourthree,,,,,,,,,,,,,,,,,,,,,,,,,,,,,,,,,,,,,,,,,,,,,,,,,,,,,,,,,,,,,,,,,,,,,,,,,,,,,,,,,,,,,,,,,,,,,,,,,,,,,,,,,,,,,,,,,,,,,,,,,,,,,,,,,,,,,,,,,
,,61533ead92c280c34cc22482,2024-02-22_03h14.01.929,kallum_motion_pilot,2023.2.2,Win32,163.9344262,61533ead92c280c34cc22482,65d6bb0e977760de756971f7,65d6bbeec7c0f830c49a8d46,0.047,0.0471,1,74,236,150,1,eightsix,,,,,,,,,,,,,,,,,,,,,,,,,,,,,,,,,,,,,,,,,,,,,,,,,,,,,,,,,,,,,,,,,,,,,,,,,,,,,,,,,,,,,,,,,,,,,,,,,,,,,,,,,,,,,,,,,,,,,,,,,,,,,,,,,,,,,,,,,
,,61533ead92c280c34cc22482,2024-02-22_03h14.01.929,kallum_motion_pilot,2023.2.2,Win32,163.9344262,61533ead92c280c34cc22482,65d6bb0e977760de756971f7,65d6bbeec7c0f830c49a8d46,0.0472,0.0472,1,75,237,27,1,twofour,,,,,,,,,,,,,,,,,,,,,,,,,,,,,,,,,,,,,,,,,,,,,,,,,,,,,,,,,,,,,,,,,,,,,,,,,,,,,,,,,,,,,,,,,,,,,,,,,,,,,,,,,,,,,,,,,,,,,,,,,,,,,,,,,,,,,,,,,
,,61533ead92c280c34cc22482,2024-02-22_03h14.01.929,kallum_motion_pilot,2023.2.2,Win32,163.9344262,61533ead92c280c34cc22482,65d6bb0e977760de756971f7,65d6bbeec7c0f830c49a8d46,0.0472,0.0474,1,76,238,17,1,onethree,,,,,,,,,,,,,,,,,,,,,,,,,,,,,,,,,,,,,,,,,,,,,,,,,,,,,,,,,,,,,,,,,,,,,,,,,,,,,,,,,,,,,,,,,,,,,,,,,,,,,,,,,,,,,,,,,,,,,,,,,,,,,,,,,,,,,,,,,
,,61533ead92c280c34cc22482,2024-02-22_03h14.01.929,kallum_motion_pilot,2023.2.2,Win32,163.9344262,61533ead92c280c34cc22482,65d6bb0e977760de756971f7,65d6bbeec7c0f830c49a8d46,0.0474,0.0474,1,77,239,146,1,sixfive,,,,,,,,,,,,,,,,,,,,,,,,,,,,,,,,,,,,,,,,,,,,,,,,,,,,,,,,,,,,,,,,,,,,,,,,,,,,,,,,,,,,,,,,,,,,,,,,,,,,,,,,,,,,,,,,,,,,,,,,,,,,,,,,,,,,,,,,,
,,61533ead92c280c34cc22482,2024-02-22_03h14.01.929,kallum_motion_pilot,2023.2.2,Win32,163.9344262,61533ead92c280c34cc22482,65d6bb0e977760de756971f7,65d6bbeec7c0f830c49a8d46,0.0475,0.0476,1,78,240,54,1,fourtwo,,,,,,,,,,,,,,,,,,,,,,,,,,,,,,,,,,,,,,,,,,,,,,,,,,,,,,,,,,,,,,,,,,,,,,,,,,,,,,,,,,,,,,,,,,,,,,,,,,,,,,,,,,,,,,,,,,,,,,,,,,,,,,,,,,,,,,,,,
,,61533ead92c280c34cc22482,2024-02-22_03h14.01.929,kallum_motion_pilot,2023.2.2,Win32,163.9344262,61533ead92c280c34cc22482,65d6bb0e977760de756971f7,65d6bbeec7c0f830c49a8d46,0.0476,0.0476,1,79,241,116,1,sevenfive,,,,,,,,,,,,,,,,,,,,,,,,,,,,,,,,,,,,,,,,,,,,,,,,,,,,,,,,,,,,,,,,,,,,,,,,,,,,,,,,,,,,,,,,,,,,,,,,,,,,,,,,,,,,,,,,,,,,,,,,,,,,,,,,,,,,,,,,,
,,61533ead92c280c34cc22482,2024-02-22_03h14.01.929,kallum_motion_pilot,2023.2.2,Win32,163.9344262,61533ead92c280c34cc22482,65d6bb0e977760de756971f7,65d6bbeec7c0f830c49a8d46,0.0478,0.0478,1,80,242,113,1,fiveseven,,,,,,,,,,,,,,,,,,,,,,,,,,,,,,,,,,,,,,,,,,,,,,,,,,,,,,,,,,,,,,,,,,,,,,,,,,,,,,,,,,,,,,,,,,,,,,,,,,,,,,,,,,,,,,,,,,,,,,,,,,,,,,,,,,,,,,,,,
,,61533ead92c280c34cc22482,2024-02-22_03h14.01.929,kallum_motion_pilot,2023.2.2,Win32,163.9344262,61533ead92c280c34cc22482,65d6bb0e977760de756971f7,65d6bbeec7c0f830c49a8d46,0.0478,0.0479,1,81,243,69,1,threefour,,,,,,,,,,,,,,,,,,,,,,,,,,,,,,,,,,,,,,,,,,,,,,,,,,,,,,,,,,,,,,,,,,,,,,,,,,,,,,,,,,,,,,,,,,,,,,,,,,,,,,,,,,,,,,,,,,,,,,,,,,,,,,,,,,,,,,,,,
,,61533ead92c280c34cc22482,2024-02-22_03h14.01.929,kallum_motion_pilot,2023.2.2,Win32,163.9344262,61533ead92c280c34cc22482,65d6bb0e977760de756971f7,65d6bbeec7c0f830c49a8d46,0.048,0.048,1,82,244,48,1,onetwo,,,,,,,,,,,,,,,,,,,,,,,,,,,,,,,,,,,,,,,,,,,,,,,,,,,,,,,,,,,,,,,,,,,,,,,,,,,,,,,,,,,,,,,,,,,,,,,,,,,,,,,,,,,,,,,,,,,,,,,,,,,,,,,,,,,,,,,,,
,,61533ead92c280c34cc22482,2024-02-22_03h14.01.929,kallum_motion_pilot,2023.2.2,Win32,163.9344262,61533ead92c280c34cc22482,65d6bb0e977760de756971f7,65d6bbeec7c0f830c49a8d46,0.0481,0.0481,1,83,245,149,1,seveneight,,,,,,,,,,,,,,,,,,,,,,,,,,,,,,,,,,,,,,,,,,,,,,,,,,,,,,,,,,,,,,,,,,,,,,,,,,,,,,,,,,,,,,,,,,,,,,,,,,,,,,,,,,,,,,,,,,,,,,,,,,,,,,,,,,,,,,,,,
,,61533ead92c280c34cc22482,2024-02-22_03h14.01.929,kallum_motion_pilot,2023.2.2,Win32,163.9344262,61533ead92c280c34cc22482,65d6bb0e977760de756971f7,65d6bbeec7c0f830c49a8d46,0.0483,0.0483,1,84,246,64,1,onetwo,,,,,,,,,,,,,,,,,,,,,,,,,,,,,,,,,,,,,,,,,,,,,,,,,,,,,,,,,,,,,,,,,,,,,,,,,,,,,,,,,,,,,,,,,,,,,,,,,,,,,,,,,,,,,,,,,,,,,,,,,,,,,,,,,,,,,,,,,
,,61533ead92c280c34cc22482,2024-02-22_03h14.01.929,kallum_motion_pilot,2023.2.2,Win32,163.9344262,61533ead92c280c34cc22482,65d6bb0e977760de756971f7,65d6bbeec7c0f830c49a8d46,0.0483,0.0484,1,85,247,130,1,sixfive,,,,,,,,,,,,,,,,,,,,,,,,,,,,,,,,,,,,,,,,,,,,,,,,,,,,,,,,,,,,,,,,,,,,,,,,,,,,,,,,,,,,,,,,,,,,,,,,,,,,,,,,,,,,,,,,,,,,,,,,,,,,,,,,,,,,,,,,,
,,61533ead92c280c34cc22482,2024-02-22_03h14.01.929,kallum_motion_pilot,2023.2.2,Win32,163.9344262,61533ead92c280c34cc22482,65d6bb0e977760de756971f7,65d6bbeec7c0f830c49a8d46,0.0484,0.0485,1,86,248,22,1,fourtwo,,,,,,,,,,,,,,,,,,,,,,,,,,,,,,,,,,,,,,,,,,,,,,,,,,,,,,,,,,,,,,,,,,,,,,,,,,,,,,,,,,,,,,,,,,,,,,,,,,,,,,,,,,,,,,,,,,,,,,,,,,,,,,,,,,,,,,,,,
,,61533ead92c280c34cc22482,2024-02-22_03h14.01.929,kallum_motion_pilot,2023.2.2,Win32,163.9344262,61533ead92c280c34cc22482,65d6bb0e977760de756971f7,65d6bbeec7c0f830c49a8d46,0.0486,0.0486,1,87,249,81,1,fiveseven,,,,,,,,,,,,,,,,,,,,,,,,,,,,,,,,,,,,,,,,,,,,,,,,,,,,,,,,,,,,,,,,,,,,,,,,,,,,,,,,,,,,,,,,,,,,,,,,,,,,,,,,,,,,,,,,,,,,,,,,,,,,,,,,,,,,,,,,,
,,61533ead92c280c34cc22482,2024-02-22_03h14.01.929,kallum_motion_pilot,2023.2.2,Win32,163.9344262,61533ead92c280c34cc22482,65d6bb0e977760de756971f7,65d6bbeec7c0f830c49a8d46,0.0487,0.0487,1,88,250,157,1,seveneight,,,,,,,,,,,,,,,,,,,,,,,,,,,,,,,,,,,,,,,,,,,,,,,,,,,,,,,,,,,,,,,,,,,,,,,,,,,,,,,,,,,,,,,,,,,,,,,,,,,,,,,,,,,,,,,,,,,,,,,,,,,,,,,,,,,,,,,,,
,,61533ead92c280c34cc22482,2024-02-22_03h14.01.929,kallum_motion_pilot,2023.2.2,Win32,163.9344262,61533ead92c280c34cc22482,65d6bb0e977760de756971f7,65d6bbeec7c0f830c49a8d46,0.0488,0.0489,1,89,251,65,1,onethree,,,,,,,,,,,,,,,,,,,,,,,,,,,,,,,,,,,,,,,,,,,,,,,,,,,,,,,,,,,,,,,,,,,,,,,,,,,,,,,,,,,,,,,,,,,,,,,,,,,,,,,,,,,,,,,,,,,,,,,,,,,,,,,,,,,,,,,,,
,,61533ead92c280c34cc22482,2024-02-22_03h14.01.929,kallum_motion_pilot,2023.2.2,Win32,163.9344262,61533ead92c280c34cc22482,65d6bb0e977760de756971f7,65d6bbeec7c0f830c49a8d46,0.0489,0.049,1,90,252,38,1,fourtwo,,,,,,,,,,,,,,,,,,,,,,,,,,,,,,,,,,,,,,,,,,,,,,,,,,,,,,,,,,,,,,,,,,,,,,,,,,,,,,,,,,,,,,,,,,,,,,,,,,,,,,,,,,,,,,,,,,,,,,,,,,,,,,,,,,,,,,,,,
,,61533ead92c280c34cc22482,2024-02-22_03h14.01.929,kallum_motion_pilot,2023.2.2,Win32,163.9344262,61533ead92c280c34cc22482,65d6bb0e977760de756971f7,65d6bbeec7c0f830c49a8d46,0.049,0.0491,1,91,253,71,1,fourthree,,,,,,,,,,,,,,,,,,,,,,,,,,,,,,,,,,,,,,,,,,,,,,,,,,,,,,,,,,,,,,,,,,,,,,,,,,,,,,,,,,,,,,,,,,,,,,,,,,,,,,,,,,,,,,,,,,,,,,,,,,,,,,,,,,,,,,,,,
,,61533ead92c280c34cc22482,2024-02-22_03h14.01.929,kallum_motion_pilot,2023.2.2,Win32,163.9344262,61533ead92c280c34cc22482,65d6bb0e977760de756971f7,65d6bbeec7c0f830c49a8d46,0.0491,0.0492,1,92,254,101,1,seveneight,,,,,,,,,,,,,,,,,,,,,,,,,,,,,,,,,,,,,,,,,,,,,,,,,,,,,,,,,,,,,,,,,,,,,,,,,,,,,,,,,,,,,,,,,,,,,,,,,,,,,,,,,,,,,,,,,,,,,,,,,,,,,,,,,,,,,,,,,
,,61533ead92c280c34cc22482,2024-02-22_03h14.01.929,kallum_motion_pilot,2023.2.2,Win32,163.9344262,61533ead92c280c34cc22482,65d6bb0e977760de756971f7,65d6bbeec7c0f830c49a8d46,0.0493,0.0493,1,93,255,52,1,threeone,,,,,,,,,,,,,,,,,,,,,,,,,,,,,,,,,,,,,,,,,,,,,,,,,,,,,,,,,,,,,,,,,,,,,,,,,,,,,,,,,,,,,,,,,,,,,,,,,,,,,,,,,,,,,,,,,,,,,,,,,,,,,,,,,,,,,,,,,
,,61533ead92c280c34cc22482,2024-02-22_03h14.01.929,kallum_motion_pilot,2023.2.2,Win32,163.9344262,61533ead92c280c34cc22482,65d6bb0e977760de756971f7,65d6bbeec7c0f830c49a8d46,0.0494,0.0494,1,94,256,124,1,sevenfive,,,,,,,,,,,,,,,,,,,,,,,,,,,,,,,,,,,,,,,,,,,,,,,,,,,,,,,,,,,,,,,,,,,,,,,,,,,,,,,,,,,,,,,,,,,,,,,,,,,,,,,,,,,,,,,,,,,,,,,,,,,,,,,,,,,,,,,,,
,,61533ead92c280c34cc22482,2024-02-22_03h14.01.929,kallum_motion_pilot,2023.2.2,Win32,163.9344262,61533ead92c280c34cc22482,65d6bb0e977760de756971f7,65d6bbeec7c0f830c49a8d46,0.0494,0.0496,1,95,257,15,1,fourthree,,,,,,,,,,,,,,,,,,,,,,,,,,,,,,,,,,,,,,,,,,,,,,,,,,,,,,,,,,,,,,,,,,,,,,,,,,,,,,,,,,,,,,,,,,,,,,,,,,,,,,,,,,,,,,,,,,,,,,,,,,,,,,,,,,,,,,,,,
,,61533ead92c280c34cc22482,2024-02-22_03h14.01.929,kallum_motion_pilot,2023.2.2,Win32,163.9344262,61533ead92c280c34cc22482,65d6bb0e977760de756971f7,65d6bbeec7c0f830c49a8d46,0.0496,0.0497,1,96,258,0,1,onetwo,,,,,,,,,,,,,,,,,,,,,,,,,,,,,,,,,,,,,,,,,,,,,,,,,,,,,,,,,,,,,,,,,,,,,,,,,,,,,,,,,,,,,,,,,,,,,,,,,,,,,,,,,,,,,,,,,,,,,,,,,,,,,,,,,,,,,,,,,
,,61533ead92c280c34cc22482,2024-02-22_03h14.01.929,kallum_motion_pilot,2023.2.2,Win32,163.9344262,61533ead92c280c34cc22482,65d6bb0e977760de756971f7,65d6bbeec7c0f830c49a8d46,0.0498,0.0498,1,97,259,13,1,threefour,,,,,,,,,,,,,,,,,,,,,,,,,,,,,,,,,,,,,,,,,,,,,,,,,,,,,,,,,,,,,,,,,,,,,,,,,,,,,,,,,,,,,,,,,,,,,,,,,,,,,,,,,,,,,,,,,,,,,,,,,,,,,,,,,,,,,,,,,
,,61533ead92c280c34cc22482,2024-02-22_03h14.01.929,kallum_motion_pilot,2023.2.2,Win32,163.9344262,61533ead92c280c34cc22482,65d6bb0e977760de756971f7,65d6bbeec7c0f830c49a8d46,0.0499,0.0499,1,98,260,132,1,sevenfive,,,,,,,,,,,,,,,,,,,,,,,,,,,,,,,,,,,,,,,,,,,,,,,,,,,,,,,,,,,,,,,,,,,,,,,,,,,,,,,,,,,,,,,,,,,,,,,,,,,,,,,,,,,,,,,,,,,,,,,,,,,,,,,,,,,,,,,,,
,,61533ead92c280c34cc22482,2024-02-22_03h14.01.929,kallum_motion_pilot,2023.2.2,Win32,163.9344262,61533ead92c280c34cc22482,65d6bb0e977760de756971f7,65d6bbeec7c0f830c49a8d46,0.05,0.05,1,99,261,78,1,fourtwo,,,,,,,,,,,,,,,,,,,,,,,,,,,,,,,,,,,,,,,,,,,,,,,,,,,,,,,,,,,,,,,,,,,,,,,,,,,,,,,,,,,,,,,,,,,,,,,,,,,,,,,,,,,,,,,,,,,,,,,,,,,,,,,,,,,,,,,,,
,,61533ead92c280c34cc22482,2024-02-22_03h14.01.929,kallum_motion_pilot,2023.2.2,Win32,163.9344262,61533ead92c280c34cc22482,65d6bb0e977760de756971f7,65d6bbeec7c0f830c49a8d46,0.0501,0.0501,1,100,262,147,1,sixeight,,,,,,,,,,,,,,,,,,,,,,,,,,,,,,,,,,,,,,,,,,,,,,,,,,,,,,,,,,,,,,,,,,,,,,,,,,,,,,,,,,,,,,,,,,,,,,,,,,,,,,,,,,,,,,,,,,,,,,,,,,,,,,,,,,,,,,,,,
,,61533ead92c280c34cc22482,2024-02-22_03h14.01.929,kallum_motion_pilot,2023.2.2,Win32,163.9344262,61533ead92c280c34cc22482,65d6bb0e977760de756971f7,65d6bbeec7c0f830c49a8d46,0.0502,0.0503,1,101,263,36,1,threeone,,,,,,,,,,,,,,,,,,,,,,,,,,,,,,,,,,,,,,,,,,,,,,,,,,,,,,,,,,,,,,,,,,,,,,,,,,,,,,,,,,,,,,,,,,,,,,,,,,,,,,,,,,,,,,,,,,,,,,,,,,,,,,,,,,,,,,,,,
,,61533ead92c280c34cc22482,2024-02-22_03h14.01.929,kallum_motion_pilot,2023.2.2,Win32,163.9344262,61533ead92c280c34cc22482,65d6bb0e977760de756971f7,65d6bbeec7c0f830c49a8d46,0.0503,0.0503,1,102,264,115,1,sixeight,,,,,,,,,,,,,,,,,,,,,,,,,,,,,,,,,,,,,,,,,,,,,,,,,,,,,,,,,,,,,,,,,,,,,,,,,,,,,,,,,,,,,,,,,,,,,,,,,,,,,,,,,,,,,,,,,,,,,,,,,,,,,,,,,,,,,,,,,
,,61533ead92c280c34cc22482,2024-02-22_03h14.01.929,kallum_motion_pilot,2023.2.2,Win32,163.9344262,61533ead92c280c34cc22482,65d6bb0e977760de756971f7,65d6bbeec7c0f830c49a8d46,0.0505,0.0505,1,103,265,135,1,eightseven,,,,,,,,,,,,,,,,,,,,,,,,,,,,,,,,,,,,,,,,,,,,,,,,,,,,,,,,,,,,,,,,,,,,,,,,,,,,,,,,,,,,,,,,,,,,,,,,,,,,,,,,,,,,,,,,,,,,,,,,,,,,,,,,,,,,,,,,,
,,61533ead92c280c34cc22482,2024-02-22_03h14.01.929,kallum_motion_pilot,2023.2.2,Win32,163.9344262,61533ead92c280c34cc22482,65d6bb0e977760de756971f7,65d6bbeec7c0f830c49a8d46,0.0505,0.0506,1,104,266,118,1,eightsix,,,,,,,,,,,,,,,,,,,,,,,,,,,,,,,,,,,,,,,,,,,,,,,,,,,,,,,,,,,,,,,,,,,,,,,,,,,,,,,,,,,,,,,,,,,,,,,,,,,,,,,,,,,,,,,,,,,,,,,,,,,,,,,,,,,,,,,,,
,,61533ead92c280c34cc22482,2024-02-22_03h14.01.929,kallum_motion_pilot,2023.2.2,Win32,163.9344262,61533ead92c280c34cc22482,65d6bb0e977760de756971f7,65d6bbeec7c0f830c49a8d46,0.0507,0.0508,1,105,267,108,1,sevenfive,,,,,,,,,,,,,,,,,,,,,,,,,,,,,,,,,,,,,,,,,,,,,,,,,,,,,,,,,,,,,,,,,,,,,,,,,,,,,,,,,,,,,,,,,,,,,,,,,,,,,,,,,,,,,,,,,,,,,,,,,,,,,,,,,,,,,,,,,
,,61533ead92c280c34cc22482,2024-02-22_03h14.01.929,kallum_motion_pilot,2023.2.2,Win32,163.9344262,61533ead92c280c34cc22482,65d6bb0e977760de756971f7,65d6bbeec7c0f830c49a8d46,0.0508,0.0509,1,106,268,112,1,fivesix,,,,,,,,,,,,,,,,,,,,,,,,,,,,,,,,,,,,,,,,,,,,,,,,,,,,,,,,,,,,,,,,,,,,,,,,,,,,,,,,,,,,,,,,,,,,,,,,,,,,,,,,,,,,,,,,,,,,,,,,,,,,,,,,,,,,,,,,,
,,61533ead92c280c34cc22482,2024-02-22_03h14.01.929,kallum_motion_pilot,2023.2.2,Win32,163.9344262,61533ead92c280c34cc22482,65d6bb0e977760de756971f7,65d6bbeec7c0f830c49a8d46,0.0509,0.051,1,107,269,121,1,fiveseven,,,,,,,,,,,,,,,,,,,,,,,,,,,,,,,,,,,,,,,,,,,,,,,,,,,,,,,,,,,,,,,,,,,,,,,,,,,,,,,,,,,,,,,,,,,,,,,,,,,,,,,,,,,,,,,,,,,,,,,,,,,,,,,,,,,,,,,,,
,,61533ead92c280c34cc22482,2024-02-22_03h14.01.929,kallum_motion_pilot,2023.2.2,Win32,163.9344262,61533ead92c280c34cc22482,65d6bb0e977760de756971f7,65d6bbeec7c0f830c49a8d46,0.051,0.0511,1,108,270,134,1,eightsix,,,,,,,,,,,,,,,,,,,,,,,,,,,,,,,,,,,,,,,,,,,,,,,,,,,,,,,,,,,,,,,,,,,,,,,,,,,,,,,,,,,,,,,,,,,,,,,,,,,,,,,,,,,,,,,,,,,,,,,,,,,,,,,,,,,,,,,,,
,,61533ead92c280c34cc22482,2024-02-22_03h14.01.929,kallum_motion_pilot,2023.2.2,Win32,163.9344262,61533ead92c280c34cc22482,65d6bb0e977760de756971f7,65d6bbeec7c0f830c49a8d46,0.0511,0.0512,1,109,271,102,1,eightsix,,,,,,,,,,,,,,,,,,,,,,,,,,,,,,,,,,,,,,,,,,,,,,,,,,,,,,,,,,,,,,,,,,,,,,,,,,,,,,,,,,,,,,,,,,,,,,,,,,,,,,,,,,,,,,,,,,,,,,,,,,,,,,,,,,,,,,,,,
,,61533ead92c280c34cc22482,2024-02-22_03h14.01.929,kallum_motion_pilot,2023.2.2,Win32,163.9344262,61533ead92c280c34cc22482,65d6bb0e977760de756971f7,65d6bbeec7c0f830c49a8d46,0.0513,0.0513,1,110,272,73,1,onethree,,,,,,,,,,,,,,,,,,,,,,,,,,,,,,,,,,,,,,,,,,,,,,,,,,,,,,,,,,,,,,,,,,,,,,,,,,,,,,,,,,,,,,,,,,,,,,,,,,,,,,,,,,,,,,,,,,,,,,,,,,,,,,,,,,,,,,,,,
,,61533ead92c280c34cc22482,2024-02-22_03h14.01.929,kallum_motion_pilot,2023.2.2,Win32,163.9344262,61533ead92c280c34cc22482,65d6bb0e977760de756971f7,65d6bbeec7c0f830c49a8d46,0.0514,0.0514,1,111,273,62,1,fourtwo,,,,,,,,,,,,,,,,,,,,,,,,,,,,,,,,,,,,,,,,,,,,,,,,,,,,,,,,,,,,,,,,,,,,,,,,,,,,,,,,,,,,,,,,,,,,,,,,,,,,,,,,,,,,,,,,,,,,,,,,,,,,,,,,,,,,,,,,,
,,61533ead92c280c34cc22482,2024-02-22_03h14.01.929,kallum_motion_pilot,2023.2.2,Win32,163.9344262,61533ead92c280c34cc22482,65d6bb0e977760de756971f7,65d6bbeec7c0f830c49a8d46,0.0515,0.0516,1,112,274,21,1,threefour,,,,,,,,,,,,,,,,,,,,,,,,,,,,,,,,,,,,,,,,,,,,,,,,,,,,,,,,,,,,,,,,,,,,,,,,,,,,,,,,,,,,,,,,,,,,,,,,,,,,,,,,,,,,,,,,,,,,,,,,,,,,,,,,,,,,,,,,,
,,61533ead92c280c34cc22482,2024-02-22_03h14.01.929,kallum_motion_pilot,2023.2.2,Win32,163.9344262,61533ead92c280c34cc22482,65d6bb0e977760de756971f7,65d6bbeec7c0f830c49a8d46,0.0516,0.0517,1,113,275,33,1,onethree,,,,,,,,,,,,,,,,,,,,,,,,,,,,,,,,,,,,,,,,,,,,,,,,,,,,,,,,,,,,,,,,,,,,,,,,,,,,,,,,,,,,,,,,,,,,,,,,,,,,,,,,,,,,,,,,,,,,,,,,,,,,,,,,,,,,,,,,,
,,61533ead92c280c34cc22482,2024-02-22_03h14.01.929,kallum_motion_pilot,2023.2.2,Win32,163.9344262,61533ead92c280c34cc22482,65d6bb0e977760de756971f7,65d6bbeec7c0f830c49a8d46,0.0517,0.0518,1,114,276,75,1,twofour,,,,,,,,,,,,,,,,,,,,,,,,,,,,,,,,,,,,,,,,,,,,,,,,,,,,,,,,,,,,,,,,,,,,,,,,,,,,,,,,,,,,,,,,,,,,,,,,,,,,,,,,,,,,,,,,,,,,,,,,,,,,,,,,,,,,,,,,,
,,61533ead92c280c34cc22482,2024-02-22_03h14.01.929,kallum_motion_pilot,2023.2.2,Win32,163.9344262,61533ead92c280c34cc22482,65d6bb0e977760de756971f7,65d6bbeec7c0f830c49a8d46,0.0518,0.0519,1,115,277,16,1,onetwo,,,,,,,,,,,,,,,,,,,,,,,,,,,,,,,,,,,,,,,,,,,,,,,,,,,,,,,,,,,,,,,,,,,,,,,,,,,,,,,,,,,,,,,,,,,,,,,,,,,,,,,,,,,,,,,,,,,,,,,,,,,,,,,,,,,,,,,,,
