startup.started,startup.stopped,Prolific ID*,date,expName,psychopyVersion,OS,frameRate,participant,study_id,session,stimpositions.started,stimpositions.stopped,hardcoded_stimulus_positions.thisRepN,hardcoded_stimulus_positions.thisTrialN,hardcoded_stimulus_positions.thisN,hardcoded_stimulus_positions.thisIndex,hardcoded_stimulus_positions.ran,StimulusPos,stimorientation.started,stimorientation.stopped,prac_stimorientation_import_loop.thisRepN,prac_stimorientation_import_loop.thisTrialN,prac_stimorientation_import_loop.thisN,prac_stimorientation_import_loop.thisIndex,prac_stimorientation_import_loop.ran,Stimorientation,welcome_instr.started,welcome_instr.stopped,key_resp.keys,key_resp.rt,key_resp.duration,response_steppedout_1.started,response_steppedout_1.stopped,key_resp_20.keys,key_resp_20.rt,key_resp_20.duration,response_steppedout_2.started,response_steppedout_2.stopped,key_resp_19.keys,key_resp_19.rt,key_resp_19.duration,stim_response_instr.started,stim_response_instr.stopped,key_resp_15.keys,key_resp_15.rt,key_resp_15.duration,direction_instr_2.started,direction_instr_2.stopped,key_resp_9.keys,key_resp_9.rt,key_resp_9.duration,instr_prac.started,instr_prac.stopped,key_resp_10.keys,key_resp_10.rt,key_resp_10.duration,Stim1_display_prac.started,Stim1_display_prac.stopped,Ecc,Circle1_ori,Circle2_ori,response_prac.started,similarity,response_time,response_prac.stopped,mouse_5.x,mouse_5.y,mouse_5.leftButton,mouse_5.midButton,mouse_5.rightButton,mouse_5.clicked_name,responseprac_feedback.started,responseprac_feedback.stopped,summary2_prac.started,summary2_prac.stopped,mouse_6.x,mouse_6.y,mouse_6.leftButton,mouse_6.midButton,mouse_6.rightButton,mouse_6.clicked_name,duringprac.thisRepN,duringprac.thisTrialN,duringprac.thisN,duringprac.thisIndex,duringprac.ran,begin.started,begin.stopped,key_resp_22.keys,key_resp_22.rt,key_resp_22.duration,Stim1_display.started,Stim1_display.stopped,circle1_ori,circle2_ori,circle1_SF,circle2_SF,response.started,response.stopped,mouse.x,mouse.y,mouse.leftButton,mouse.midButton,mouse.rightButton,mouse.clicked_name,trialnumber,double_pass.thisRepN,double_pass.thisTrialN,double_pass.thisN,double_pass.thisIndex,double_pass.ran,double_pass.order,main_trial.thisRepN,main_trial.thisTrialN,main_trial.thisN,main_trial.thisIndex,main_trial.ran,main_trial.order,Trial_Counter,Catch,Frequencies,response_2.started,response_2.stopped,mouse_2.x,mouse_2.y,mouse_2.leftButton,mouse_2.midButton,mouse_2.rightButton,mouse_2.clicked_name,special_trial.started,special_trial.stopped,catch_1.started,catch_1.stopped,mouse_3.x,mouse_3.y,mouse_3.leftButton,mouse_3.midButton,mouse_3.rightButton,catchresponse,catchnumber,response_time_catch,response_sum.started,response_sum.stopped,mouse_11.x,mouse_11.y,mouse_11.leftButton,mouse_11.midButton,mouse_11.rightButton,flip_presentation_sequence_for_double_pass.started,flip_presentation_sequence_for_double_pass.stopped,goodbye.started,goodbye.stopped,key_resp_3.keys,key_resp_3.rt,key_resp_3.duration
0.0002,0.0003,61535206a5dfc673e9cb6a3c,2024-02-21_21h19.50.580,kallum_motion_pilot,2023.2.2,MacIntel,59.88023952,61535206a5dfc673e9cb6a3c,65d6bb0e977760de756971f7,65d6bd1f4a9e805cdc72f4b6,,,,,,,,,,,,,,,,,,,,,,,,,,,,,,,,,,,,,,,,,,,,,,,,,,,,,,,,,,,,,,,,,,,,,,,,,,,,,,,,,,,,,,,,,,,,,,,,,,,,,,,,,,,,,,,,,,,,,,,,,,,,,,,,,,,,,,,,,,,,,,,,,
,,61535206a5dfc673e9cb6a3c,2024-02-21_21h19.50.580,kallum_motion_pilot,2023.2.2,MacIntel,59.88023952,61535206a5dfc673e9cb6a3c,65d6bb0e977760de756971f7,65d6bd1f4a9e805cdc72f4b6,0.0111,0.0113,0,0,0,129,1,fiveseven,,,,,,,,,,,,,,,,,,,,,,,,,,,,,,,,,,,,,,,,,,,,,,,,,,,,,,,,,,,,,,,,,,,,,,,,,,,,,,,,,,,,,,,,,,,,,,,,,,,,,,,,,,,,,,,,,,,,,,,,,,,,,,,,,,,,,,,,,
,,61535206a5dfc673e9cb6a3c,2024-02-21_21h19.50.580,kallum_motion_pilot,2023.2.2,MacIntel,59.88023952,61535206a5dfc673e9cb6a3c,65d6bb0e977760de756971f7,65d6bd1f4a9e805cdc72f4b6,0.0113,0.0113,0,1,1,120,1,fivesix,,,,,,,,,,,,,,,,,,,,,,,,,,,,,,,,,,,,,,,,,,,,,,,,,,,,,,,,,,,,,,,,,,,,,,,,,,,,,,,,,,,,,,,,,,,,,,,,,,,,,,,,,,,,,,,,,,,,,,,,,,,,,,,,,,,,,,,,,
,,61535206a5dfc673e9cb6a3c,2024-02-21_21h19.50.580,kallum_motion_pilot,2023.2.2,MacIntel,59.88023952,61535206a5dfc673e9cb6a3c,65d6bb0e977760de756971f7,65d6bd1f4a9e805cdc72f4b6,0.0115,0.0115,0,2,2,98,1,sixfive,,,,,,,,,,,,,,,,,,,,,,,,,,,,,,,,,,,,,,,,,,,,,,,,,,,,,,,,,,,,,,,,,,,,,,,,,,,,,,,,,,,,,,,,,,,,,,,,,,,,,,,,,,,,,,,,,,,,,,,,,,,,,,,,,,,,,,,,,
,,61535206a5dfc673e9cb6a3c,2024-02-21_21h19.50.580,kallum_motion_pilot,2023.2.2,MacIntel,59.88023952,61535206a5dfc673e9cb6a3c,65d6bb0e977760de756971f7,65d6bd1f4a9e805cdc72f4b6,0.0115,0.0116,0,3,3,140,1,sevenfive,,,,,,,,,,,,,,,,,,,,,,,,,,,,,,,,,,,,,,,,,,,,,,,,,,,,,,,,,,,,,,,,,,,,,,,,,,,,,,,,,,,,,,,,,,,,,,,,,,,,,,,,,,,,,,,,,,,,,,,,,,,,,,,,,,,,,,,,,
,,61535206a5dfc673e9cb6a3c,2024-02-21_21h19.50.580,kallum_motion_pilot,2023.2.2,MacIntel,59.88023952,61535206a5dfc673e9cb6a3c,65d6bb0e977760de756971f7,65d6bd1f4a9e805cdc72f4b6,0.0116,0.0116,0,4,4,46,1,fourtwo,,,,,,,,,,,,,,,,,,,,,,,,,,,,,,,,,,,,,,,,,,,,,,,,,,,,,,,,,,,,,,,,,,,,,,,,,,,,,,,,,,,,,,,,,,,,,,,,,,,,,,,,,,,,,,,,,,,,,,,,,,,,,,,,,,,,,,,,,
,,61535206a5dfc673e9cb6a3c,2024-02-21_21h19.50.580,kallum_motion_pilot,2023.2.2,MacIntel,59.88023952,61535206a5dfc673e9cb6a3c,65d6bb0e977760de756971f7,65d6bd1f4a9e805cdc72f4b6,0.0116,0.0116,0,5,5,83,1,sixeight,,,,,,,,,,,,,,,,,,,,,,,,,,,,,,,,,,,,,,,,,,,,,,,,,,,,,,,,,,,,,,,,,,,,,,,,,,,,,,,,,,,,,,,,,,,,,,,,,,,,,,,,,,,,,,,,,,,,,,,,,,,,,,,,,,,,,,,,,
,,61535206a5dfc673e9cb6a3c,2024-02-21_21h19.50.580,kallum_motion_pilot,2023.2.2,MacIntel,59.88023952,61535206a5dfc673e9cb6a3c,65d6bb0e977760de756971f7,65d6bd1f4a9e805cdc72f4b6,0.0117,0.0118,0,6,6,84,1,sevenfive,,,,,,,,,,,,,,,,,,,,,,,,,,,,,,,,,,,,,,,,,,,,,,,,,,,,,,,,,,,,,,,,,,,,,,,,,,,,,,,,,,,,,,,,,,,,,,,,,,,,,,,,,,,,,,,,,,,,,,,,,,,,,,,,,,,,,,,,,
,,61535206a5dfc673e9cb6a3c,2024-02-21_21h19.50.580,kallum_motion_pilot,2023.2.2,MacIntel,59.88023952,61535206a5dfc673e9cb6a3c,65d6bb0e977760de756971f7,65d6bd1f4a9e805cdc72f4b6,0.0118,0.0118,0,7,7,113,1,fiveseven,,,,,,,,,,,,,,,,,,,,,,,,,,,,,,,,,,,,,,,,,,,,,,,,,,,,,,,,,,,,,,,,,,,,,,,,,,,,,,,,,,,,,,,,,,,,,,,,,,,,,,,,,,,,,,,,,,,,,,,,,,,,,,,,,,,,,,,,,
,,61535206a5dfc673e9cb6a3c,2024-02-21_21h19.50.580,kallum_motion_pilot,2023.2.2,MacIntel,59.88023952,61535206a5dfc673e9cb6a3c,65d6bb0e977760de756971f7,65d6bd1f4a9e805cdc72f4b6,0.0118,0.0118,0,8,8,14,1,fourtwo,,,,,,,,,,,,,,,,,,,,,,,,,,,,,,,,,,,,,,,,,,,,,,,,,,,,,,,,,,,,,,,,,,,,,,,,,,,,,,,,,,,,,,,,,,,,,,,,,,,,,,,,,,,,,,,,,,,,,,,,,,,,,,,,,,,,,,,,,
,,61535206a5dfc673e9cb6a3c,2024-02-21_21h19.50.580,kallum_motion_pilot,2023.2.2,MacIntel,59.88023952,61535206a5dfc673e9cb6a3c,65d6bb0e977760de756971f7,65d6bd1f4a9e805cdc72f4b6,0.012,0.012,0,9,9,143,1,eightseven,,,,,,,,,,,,,,,,,,,,,,,,,,,,,,,,,,,,,,,,,,,,,,,,,,,,,,,,,,,,,,,,,,,,,,,,,,,,,,,,,,,,,,,,,,,,,,,,,,,,,,,,,,,,,,,,,,,,,,,,,,,,,,,,,,,,,,,,,
,,61535206a5dfc673e9cb6a3c,2024-02-21_21h19.50.580,kallum_motion_pilot,2023.2.2,MacIntel,59.88023952,61535206a5dfc673e9cb6a3c,65d6bb0e977760de756971f7,65d6bd1f4a9e805cdc72f4b6,0.012,0.012,0,10,10,86,1,eightsix,,,,,,,,,,,,,,,,,,,,,,,,,,,,,,,,,,,,,,,,,,,,,,,,,,,,,,,,,,,,,,,,,,,,,,,,,,,,,,,,,,,,,,,,,,,,,,,,,,,,,,,,,,,,,,,,,,,,,,,,,,,,,,,,,,,,,,,,,
,,61535206a5dfc673e9cb6a3c,2024-02-21_21h19.50.580,kallum_motion_pilot,2023.2.2,MacIntel,59.88023952,61535206a5dfc673e9cb6a3c,65d6bb0e977760de756971f7,65d6bd1f4a9e805cdc72f4b6,0.012,0.012,0,11,11,61,1,threefour,,,,,,,,,,,,,,,,,,,,,,,,,,,,,,,,,,,,,,,,,,,,,,,,,,,,,,,,,,,,,,,,,,,,,,,,,,,,,,,,,,,,,,,,,,,,,,,,,,,,,,,,,,,,,,,,,,,,,,,,,,,,,,,,,,,,,,,,,
,,61535206a5dfc673e9cb6a3c,2024-02-21_21h19.50.580,kallum_motion_pilot,2023.2.2,MacIntel,59.88023952,61535206a5dfc673e9cb6a3c,65d6bb0e977760de756971f7,65d6bd1f4a9e805cdc72f4b6,0.0121,0.0121,0,12,12,15,1,fourthree,,,,,,,,,,,,,,,,,,,,,,,,,,,,,,,,,,,,,,,,,,,,,,,,,,,,,,,,,,,,,,,,,,,,,,,,,,,,,,,,,,,,,,,,,,,,,,,,,,,,,,,,,,,,,,,,,,,,,,,,,,,,,,,,,,,,,,,,,
,,61535206a5dfc673e9cb6a3c,2024-02-21_21h19.50.580,kallum_motion_pilot,2023.2.2,MacIntel,59.88023952,61535206a5dfc673e9cb6a3c,65d6bb0e977760de756971f7,65d6bd1f4a9e805cdc72f4b6,0.0122,0.0122,0,13,13,144,1,fivesix,,,,,,,,,,,,,,,,,,,,,,,,,,,,,,,,,,,,,,,,,,,,,,,,,,,,,,,,,,,,,,,,,,,,,,,,,,,,,,,,,,,,,,,,,,,,,,,,,,,,,,,,,,,,,,,,,,,,,,,,,,,,,,,,,,,,,,,,,
,,61535206a5dfc673e9cb6a3c,2024-02-21_21h19.50.580,kallum_motion_pilot,2023.2.2,MacIntel,59.88023952,61535206a5dfc673e9cb6a3c,65d6bb0e977760de756971f7,65d6bd1f4a9e805cdc72f4b6,0.0122,0.0122,0,14,14,4,1,threeone,,,,,,,,,,,,,,,,,,,,,,,,,,,,,,,,,,,,,,,,,,,,,,,,,,,,,,,,,,,,,,,,,,,,,,,,,,,,,,,,,,,,,,,,,,,,,,,,,,,,,,,,,,,,,,,,,,,,,,,,,,,,,,,,,,,,,,,,,
,,61535206a5dfc673e9cb6a3c,2024-02-21_21h19.50.580,kallum_motion_pilot,2023.2.2,MacIntel,59.88023952,61535206a5dfc673e9cb6a3c,65d6bb0e977760de756971f7,65d6bd1f4a9e805cdc72f4b6,0.0123,0.0123,0,15,15,26,1,twoone,,,,,,,,,,,,,,,,,,,,,,,,,,,,,,,,,,,,,,,,,,,,,,,,,,,,,,,,,,,,,,,,,,,,,,,,,,,,,,,,,,,,,,,,,,,,,,,,,,,,,,,,,,,,,,,,,,,,,,,,,,,,,,,,,,,,,,,,,
,,61535206a5dfc673e9cb6a3c,2024-02-21_21h19.50.580,kallum_motion_pilot,2023.2.2,MacIntel,59.88023952,61535206a5dfc673e9cb6a3c,65d6bb0e977760de756971f7,65d6bd1f4a9e805cdc72f4b6,0.0124,0.0124,0,16,16,156,1,sevenfive,,,,,,,,,,,,,,,,,,,,,,,,,,,,,,,,,,,,,,,,,,,,,,,,,,,,,,,,,,,,,,,,,,,,,,,,,,,,,,,,,,,,,,,,,,,,,,,,,,,,,,,,,,,,,,,,,,,,,,,,,,,,,,,,,,,,,,,,,
,,61535206a5dfc673e9cb6a3c,2024-02-21_21h19.50.580,kallum_motion_pilot,2023.2.2,MacIntel,59.88023952,61535206a5dfc673e9cb6a3c,65d6bb0e977760de756971f7,65d6bd1f4a9e805cdc72f4b6,0.0124,0.0124,0,17,17,149,1,seveneight,,,,,,,,,,,,,,,,,,,,,,,,,,,,,,,,,,,,,,,,,,,,,,,,,,,,,,,,,,,,,,,,,,,,,,,,,,,,,,,,,,,,,,,,,,,,,,,,,,,,,,,,,,,,,,,,,,,,,,,,,,,,,,,,,,,,,,,,,
,,61535206a5dfc673e9cb6a3c,2024-02-21_21h19.50.580,kallum_motion_pilot,2023.2.2,MacIntel,59.88023952,61535206a5dfc673e9cb6a3c,65d6bb0e977760de756971f7,65d6bd1f4a9e805cdc72f4b6,0.0125,0.0125,0,18,18,9,1,onethree,,,,,,,,,,,,,,,,,,,,,,,,,,,,,,,,,,,,,,,,,,,,,,,,,,,,,,,,,,,,,,,,,,,,,,,,,,,,,,,,,,,,,,,,,,,,,,,,,,,,,,,,,,,,,,,,,,,,,,,,,,,,,,,,,,,,,,,,,
,,61535206a5dfc673e9cb6a3c,2024-02-21_21h19.50.580,kallum_motion_pilot,2023.2.2,MacIntel,59.88023952,61535206a5dfc673e9cb6a3c,65d6bb0e977760de756971f7,65d6bd1f4a9e805cdc72f4b6,0.0125,0.0125,0,19,19,117,1,seveneight,,,,,,,,,,,,,,,,,,,,,,,,,,,,,,,,,,,,,,,,,,,,,,,,,,,,,,,,,,,,,,,,,,,,,,,,,,,,,,,,,,,,,,,,,,,,,,,,,,,,,,,,,,,,,,,,,,,,,,,,,,,,,,,,,,,,,,,,,
,,61535206a5dfc673e9cb6a3c,2024-02-21_21h19.50.580,kallum_motion_pilot,2023.2.2,MacIntel,59.88023952,61535206a5dfc673e9cb6a3c,65d6bb0e977760de756971f7,65d6bd1f4a9e805cdc72f4b6,0.0125,0.0125,0,20,20,19,1,twofour,,,,,,,,,,,,,,,,,,,,,,,,,,,,,,,,,,,,,,,,,,,,,,,,,,,,,,,,,,,,,,,,,,,,,,,,,,,,,,,,,,,,,,,,,,,,,,,,,,,,,,,,,,,,,,,,,,,,,,,,,,,,,,,,,,,,,,,,,
,,61535206a5dfc673e9cb6a3c,2024-02-21_21h19.50.580,kallum_motion_pilot,2023.2.2,MacIntel,59.88023952,61535206a5dfc673e9cb6a3c,65d6bb0e977760de756971f7,65d6bd1f4a9e805cdc72f4b6,0.0126,0.0126,0,21,21,54,1,fourtwo,,,,,,,,,,,,,,,,,,,,,,,,,,,,,,,,,,,,,,,,,,,,,,,,,,,,,,,,,,,,,,,,,,,,,,,,,,,,,,,,,,,,,,,,,,,,,,,,,,,,,,,,,,,,,,,,,,,,,,,,,,,,,,,,,,,,,,,,,
,,61535206a5dfc673e9cb6a3c,2024-02-21_21h19.50.580,kallum_motion_pilot,2023.2.2,MacIntel,59.88023952,61535206a5dfc673e9cb6a3c,65d6bb0e977760de756971f7,65d6bd1f4a9e805cdc72f4b6,0.0126,0.0126,0,22,22,63,1,fourthree,,,,,,,,,,,,,,,,,,,,,,,,,,,,,,,,,,,,,,,,,,,,,,,,,,,,,,,,,,,,,,,,,,,,,,,,,,,,,,,,,,,,,,,,,,,,,,,,,,,,,,,,,,,,,,,,,,,,,,,,,,,,,,,,,,,,,,,,,
,,61535206a5dfc673e9cb6a3c,2024-02-21_21h19.50.580,kallum_motion_pilot,2023.2.2,MacIntel,59.88023952,61535206a5dfc673e9cb6a3c,65d6bb0e977760de756971f7,65d6bd1f4a9e805cdc72f4b6,0.0126,0.0126,0,23,23,6,1,fourtwo,,,,,,,,,,,,,,,,,,,,,,,,,,,,,,,,,,,,,,,,,,,,,,,,,,,,,,,,,,,,,,,,,,,,,,,,,,,,,,,,,,,,,,,,,,,,,,,,,,,,,,,,,,,,,,,,,,,,,,,,,,,,,,,,,,,,,,,,,
,,61535206a5dfc673e9cb6a3c,2024-02-21_21h19.50.580,kallum_motion_pilot,2023.2.2,MacIntel,59.88023952,61535206a5dfc673e9cb6a3c,65d6bb0e977760de756971f7,65d6bd1f4a9e805cdc72f4b6,0.0127,0.0128,0,24,24,49,1,onethree,,,,,,,,,,,,,,,,,,,,,,,,,,,,,,,,,,,,,,,,,,,,,,,,,,,,,,,,,,,,,,,,,,,,,,,,,,,,,,,,,,,,,,,,,,,,,,,,,,,,,,,,,,,,,,,,,,,,,,,,,,,,,,,,,,,,,,,,,
,,61535206a5dfc673e9cb6a3c,2024-02-21_21h19.50.580,kallum_motion_pilot,2023.2.2,MacIntel,59.88023952,61535206a5dfc673e9cb6a3c,65d6bb0e977760de756971f7,65d6bd1f4a9e805cdc72f4b6,0.0128,0.0129,0,25,25,112,1,fivesix,,,,,,,,,,,,,,,,,,,,,,,,,,,,,,,,,,,,,,,,,,,,,,,,,,,,,,,,,,,,,,,,,,,,,,,,,,,,,,,,,,,,,,,,,,,,,,,,,,,,,,,,,,,,,,,,,,,,,,,,,,,,,,,,,,,,,,,,,
,,61535206a5dfc673e9cb6a3c,2024-02-21_21h19.50.580,kallum_motion_pilot,2023.2.2,MacIntel,59.88023952,61535206a5dfc673e9cb6a3c,65d6bb0e977760de756971f7,65d6bd1f4a9e805cdc72f4b6,0.0129,0.0129,0,26,26,89,1,fiveseven,,,,,,,,,,,,,,,,,,,,,,,,,,,,,,,,,,,,,,,,,,,,,,,,,,,,,,,,,,,,,,,,,,,,,,,,,,,,,,,,,,,,,,,,,,,,,,,,,,,,,,,,,,,,,,,,,,,,,,,,,,,,,,,,,,,,,,,,,
,,61535206a5dfc673e9cb6a3c,2024-02-21_21h19.50.580,kallum_motion_pilot,2023.2.2,MacIntel,59.88023952,61535206a5dfc673e9cb6a3c,65d6bb0e977760de756971f7,65d6bd1f4a9e805cdc72f4b6,0.0129,0.0129,0,27,27,146,1,sixfive,,,,,,,,,,,,,,,,,,,,,,,,,,,,,,,,,,,,,,,,,,,,,,,,,,,,,,,,,,,,,,,,,,,,,,,,,,,,,,,,,,,,,,,,,,,,,,,,,,,,,,,,,,,,,,,,,,,,,,,,,,,,,,,,,,,,,,,,,
,,61535206a5dfc673e9cb6a3c,2024-02-21_21h19.50.580,kallum_motion_pilot,2023.2.2,MacIntel,59.88023952,61535206a5dfc673e9cb6a3c,65d6bb0e977760de756971f7,65d6bd1f4a9e805cdc72f4b6,0.0129,0.0129,0,28,28,23,1,fourthree,,,,,,,,,,,,,,,,,,,,,,,,,,,,,,,,,,,,,,,,,,,,,,,,,,,,,,,,,,,,,,,,,,,,,,,,,,,,,,,,,,,,,,,,,,,,,,,,,,,,,,,,,,,,,,,,,,,,,,,,,,,,,,,,,,,,,,,,,
,,61535206a5dfc673e9cb6a3c,2024-02-21_21h19.50.580,kallum_motion_pilot,2023.2.2,MacIntel,59.88023952,61535206a5dfc673e9cb6a3c,65d6bb0e977760de756971f7,65d6bd1f4a9e805cdc72f4b6,0.0129,0.013,0,29,29,125,1,seveneight,,,,,,,,,,,,,,,,,,,,,,,,,,,,,,,,,,,,,,,,,,,,,,,,,,,,,,,,,,,,,,,,,,,,,,,,,,,,,,,,,,,,,,,,,,,,,,,,,,,,,,,,,,,,,,,,,,,,,,,,,,,,,,,,,,,,,,,,,
,,61535206a5dfc673e9cb6a3c,2024-02-21_21h19.50.580,kallum_motion_pilot,2023.2.2,MacIntel,59.88023952,61535206a5dfc673e9cb6a3c,65d6bb0e977760de756971f7,65d6bd1f4a9e805cdc72f4b6,0.0131,0.0131,0,30,30,161,1,fiveseven,,,,,,,,,,,,,,,,,,,,,,,,,,,,,,,,,,,,,,,,,,,,,,,,,,,,,,,,,,,,,,,,,,,,,,,,,,,,,,,,,,,,,,,,,,,,,,,,,,,,,,,,,,,,,,,,,,,,,,,,,,,,,,,,,,,,,,,,,
,,61535206a5dfc673e9cb6a3c,2024-02-21_21h19.50.580,kallum_motion_pilot,2023.2.2,MacIntel,59.88023952,61535206a5dfc673e9cb6a3c,65d6bb0e977760de756971f7,65d6bd1f4a9e805cdc72f4b6,0.0131,0.0131,0,31,31,60,1,threeone,,,,,,,,,,,,,,,,,,,,,,,,,,,,,,,,,,,,,,,,,,,,,,,,,,,,,,,,,,,,,,,,,,,,,,,,,,,,,,,,,,,,,,,,,,,,,,,,,,,,,,,,,,,,,,,,,,,,,,,,,,,,,,,,,,,,,,,,,
,,61535206a5dfc673e9cb6a3c,2024-02-21_21h19.50.580,kallum_motion_pilot,2023.2.2,MacIntel,59.88023952,61535206a5dfc673e9cb6a3c,65d6bb0e977760de756971f7,65d6bd1f4a9e805cdc72f4b6,0.0131,0.0131,0,32,32,81,1,fiveseven,,,,,,,,,,,,,,,,,,,,,,,,,,,,,,,,,,,,,,,,,,,,,,,,,,,,,,,,,,,,,,,,,,,,,,,,,,,,,,,,,,,,,,,,,,,,,,,,,,,,,,,,,,,,,,,,,,,,,,,,,,,,,,,,,,,,,,,,,
,,61535206a5dfc673e9cb6a3c,2024-02-21_21h19.50.580,kallum_motion_pilot,2023.2.2,MacIntel,59.88023952,61535206a5dfc673e9cb6a3c,65d6bb0e977760de756971f7,65d6bd1f4a9e805cdc72f4b6,0.0131,0.0131,0,33,33,42,1,twoone,,,,,,,,,,,,,,,,,,,,,,,,,,,,,,,,,,,,,,,,,,,,,,,,,,,,,,,,,,,,,,,,,,,,,,,,,,,,,,,,,,,,,,,,,,,,,,,,,,,,,,,,,,,,,,,,,,,,,,,,,,,,,,,,,,,,,,,,,
,,61535206a5dfc673e9cb6a3c,2024-02-21_21h19.50.580,kallum_motion_pilot,2023.2.2,MacIntel,59.88023952,61535206a5dfc673e9cb6a3c,65d6bb0e977760de756971f7,65d6bd1f4a9e805cdc72f4b6,0.0132,0.0132,0,34,34,40,1,onetwo,,,,,,,,,,,,,,,,,,,,,,,,,,,,,,,,,,,,,,,,,,,,,,,,,,,,,,,,,,,,,,,,,,,,,,,,,,,,,,,,,,,,,,,,,,,,,,,,,,,,,,,,,,,,,,,,,,,,,,,,,,,,,,,,,,,,,,,,,
,,61535206a5dfc673e9cb6a3c,2024-02-21_21h19.50.580,kallum_motion_pilot,2023.2.2,MacIntel,59.88023952,61535206a5dfc673e9cb6a3c,65d6bb0e977760de756971f7,65d6bd1f4a9e805cdc72f4b6,0.0133,0.0133,0,35,35,142,1,eightsix,,,,,,,,,,,,,,,,,,,,,,,,,,,,,,,,,,,,,,,,,,,,,,,,,,,,,,,,,,,,,,,,,,,,,,,,,,,,,,,,,,,,,,,,,,,,,,,,,,,,,,,,,,,,,,,,,,,,,,,,,,,,,,,,,,,,,,,,,
,,61535206a5dfc673e9cb6a3c,2024-02-21_21h19.50.580,kallum_motion_pilot,2023.2.2,MacIntel,59.88023952,61535206a5dfc673e9cb6a3c,65d6bb0e977760de756971f7,65d6bd1f4a9e805cdc72f4b6,0.0133,0.0134,0,36,36,128,1,fivesix,,,,,,,,,,,,,,,,,,,,,,,,,,,,,,,,,,,,,,,,,,,,,,,,,,,,,,,,,,,,,,,,,,,,,,,,,,,,,,,,,,,,,,,,,,,,,,,,,,,,,,,,,,,,,,,,,,,,,,,,,,,,,,,,,,,,,,,,,
,,61535206a5dfc673e9cb6a3c,2024-02-21_21h19.50.580,kallum_motion_pilot,2023.2.2,MacIntel,59.88023952,61535206a5dfc673e9cb6a3c,65d6bb0e977760de756971f7,65d6bd1f4a9e805cdc72f4b6,0.0134,0.0134,0,37,37,109,1,seveneight,,,,,,,,,,,,,,,,,,,,,,,,,,,,,,,,,,,,,,,,,,,,,,,,,,,,,,,,,,,,,,,,,,,,,,,,,,,,,,,,,,,,,,,,,,,,,,,,,,,,,,,,,,,,,,,,,,,,,,,,,,,,,,,,,,,,,,,,,
,,61535206a5dfc673e9cb6a3c,2024-02-21_21h19.50.580,kallum_motion_pilot,2023.2.2,MacIntel,59.88023952,61535206a5dfc673e9cb6a3c,65d6bb0e977760de756971f7,65d6bd1f4a9e805cdc72f4b6,0.0135,0.0135,0,38,38,88,1,fivesix,,,,,,,,,,,,,,,,,,,,,,,,,,,,,,,,,,,,,,,,,,,,,,,,,,,,,,,,,,,,,,,,,,,,,,,,,,,,,,,,,,,,,,,,,,,,,,,,,,,,,,,,,,,,,,,,,,,,,,,,,,,,,,,,,,,,,,,,,
,,61535206a5dfc673e9cb6a3c,2024-02-21_21h19.50.580,kallum_motion_pilot,2023.2.2,MacIntel,59.88023952,61535206a5dfc673e9cb6a3c,65d6bb0e977760de756971f7,65d6bd1f4a9e805cdc72f4b6,0.0135,0.0135,0,39,39,70,1,fourtwo,,,,,,,,,,,,,,,,,,,,,,,,,,,,,,,,,,,,,,,,,,,,,,,,,,,,,,,,,,,,,,,,,,,,,,,,,,,,,,,,,,,,,,,,,,,,,,,,,,,,,,,,,,,,,,,,,,,,,,,,,,,,,,,,,,,,,,,,,
,,61535206a5dfc673e9cb6a3c,2024-02-21_21h19.50.580,kallum_motion_pilot,2023.2.2,MacIntel,59.88023952,61535206a5dfc673e9cb6a3c,65d6bb0e977760de756971f7,65d6bd1f4a9e805cdc72f4b6,0.0135,0.0136,0,40,40,124,1,sevenfive,,,,,,,,,,,,,,,,,,,,,,,,,,,,,,,,,,,,,,,,,,,,,,,,,,,,,,,,,,,,,,,,,,,,,,,,,,,,,,,,,,,,,,,,,,,,,,,,,,,,,,,,,,,,,,,,,,,,,,,,,,,,,,,,,,,,,,,,,
,,61535206a5dfc673e9cb6a3c,2024-02-21_21h19.50.580,kallum_motion_pilot,2023.2.2,MacIntel,59.88023952,61535206a5dfc673e9cb6a3c,65d6bb0e977760de756971f7,65d6bd1f4a9e805cdc72f4b6,0.0136,0.0136,0,41,41,145,1,fiveseven,,,,,,,,,,,,,,,,,,,,,,,,,,,,,,,,,,,,,,,,,,,,,,,,,,,,,,,,,,,,,,,,,,,,,,,,,,,,,,,,,,,,,,,,,,,,,,,,,,,,,,,,,,,,,,,,,,,,,,,,,,,,,,,,,,,,,,,,,
,,61535206a5dfc673e9cb6a3c,2024-02-21_21h19.50.580,kallum_motion_pilot,2023.2.2,MacIntel,59.88023952,61535206a5dfc673e9cb6a3c,65d6bb0e977760de756971f7,65d6bd1f4a9e805cdc72f4b6,0.0136,0.0136,0,42,42,95,1,eightseven,,,,,,,,,,,,,,,,,,,,,,,,,,,,,,,,,,,,,,,,,,,,,,,,,,,,,,,,,,,,,,,,,,,,,,,,,,,,,,,,,,,,,,,,,,,,,,,,,,,,,,,,,,,,,,,,,,,,,,,,,,,,,,,,,,,,,,,,,
,,61535206a5dfc673e9cb6a3c,2024-02-21_21h19.50.580,kallum_motion_pilot,2023.2.2,MacIntel,59.88023952,61535206a5dfc673e9cb6a3c,65d6bb0e977760de756971f7,65d6bd1f4a9e805cdc72f4b6,0.0137,0.0137,0,43,43,123,1,sixeight,,,,,,,,,,,,,,,,,,,,,,,,,,,,,,,,,,,,,,,,,,,,,,,,,,,,,,,,,,,,,,,,,,,,,,,,,,,,,,,,,,,,,,,,,,,,,,,,,,,,,,,,,,,,,,,,,,,,,,,,,,,,,,,,,,,,,,,,,
,,61535206a5dfc673e9cb6a3c,2024-02-21_21h19.50.580,kallum_motion_pilot,2023.2.2,MacIntel,59.88023952,61535206a5dfc673e9cb6a3c,65d6bb0e977760de756971f7,65d6bd1f4a9e805cdc72f4b6,0.0137,0.0137,0,44,44,126,1,eightsix,,,,,,,,,,,,,,,,,,,,,,,,,,,,,,,,,,,,,,,,,,,,,,,,,,,,,,,,,,,,,,,,,,,,,,,,,,,,,,,,,,,,,,,,,,,,,,,,,,,,,,,,,,,,,,,,,,,,,,,,,,,,,,,,,,,,,,,,,
,,61535206a5dfc673e9cb6a3c,2024-02-21_21h19.50.580,kallum_motion_pilot,2023.2.2,MacIntel,59.88023952,61535206a5dfc673e9cb6a3c,65d6bb0e977760de756971f7,65d6bd1f4a9e805cdc72f4b6,0.014,0.0141,0,45,45,104,1,fivesix,,,,,,,,,,,,,,,,,,,,,,,,,,,,,,,,,,,,,,,,,,,,,,,,,,,,,,,,,,,,,,,,,,,,,,,,,,,,,,,,,,,,,,,,,,,,,,,,,,,,,,,,,,,,,,,,,,,,,,,,,,,,,,,,,,,,,,,,,
,,61535206a5dfc673e9cb6a3c,2024-02-21_21h19.50.580,kallum_motion_pilot,2023.2.2,MacIntel,59.88023952,61535206a5dfc673e9cb6a3c,65d6bb0e977760de756971f7,65d6bd1f4a9e805cdc72f4b6,0.0141,0.0141,0,46,46,111,1,eightseven,,,,,,,,,,,,,,,,,,,,,,,,,,,,,,,,,,,,,,,,,,,,,,,,,,,,,,,,,,,,,,,,,,,,,,,,,,,,,,,,,,,,,,,,,,,,,,,,,,,,,,,,,,,,,,,,,,,,,,,,,,,,,,,,,,,,,,,,,
,,61535206a5dfc673e9cb6a3c,2024-02-21_21h19.50.580,kallum_motion_pilot,2023.2.2,MacIntel,59.88023952,61535206a5dfc673e9cb6a3c,65d6bb0e977760de756971f7,65d6bd1f4a9e805cdc72f4b6,0.0142,0.0142,0,47,47,36,1,threeone,,,,,,,,,,,,,,,,,,,,,,,,,,,,,,,,,,,,,,,,,,,,,,,,,,,,,,,,,,,,,,,,,,,,,,,,,,,,,,,,,,,,,,,,,,,,,,,,,,,,,,,,,,,,,,,,,,,,,,,,,,,,,,,,,,,,,,,,,
,,61535206a5dfc673e9cb6a3c,2024-02-21_21h19.50.580,kallum_motion_pilot,2023.2.2,MacIntel,59.88023952,61535206a5dfc673e9cb6a3c,65d6bb0e977760de756971f7,65d6bd1f4a9e805cdc72f4b6,0.0142,0.0142,0,48,48,67,1,twofour,,,,,,,,,,,,,,,,,,,,,,,,,,,,,,,,,,,,,,,,,,,,,,,,,,,,,,,,,,,,,,,,,,,,,,,,,,,,,,,,,,,,,,,,,,,,,,,,,,,,,,,,,,,,,,,,,,,,,,,,,,,,,,,,,,,,,,,,,
,,61535206a5dfc673e9cb6a3c,2024-02-21_21h19.50.580,kallum_motion_pilot,2023.2.2,MacIntel,59.88023952,61535206a5dfc673e9cb6a3c,65d6bb0e977760de756971f7,65d6bd1f4a9e805cdc72f4b6,0.0142,0.0143,0,49,49,152,1,fivesix,,,,,,,,,,,,,,,,,,,,,,,,,,,,,,,,,,,,,,,,,,,,,,,,,,,,,,,,,,,,,,,,,,,,,,,,,,,,,,,,,,,,,,,,,,,,,,,,,,,,,,,,,,,,,,,,,,,,,,,,,,,,,,,,,,,,,,,,,
,,61535206a5dfc673e9cb6a3c,2024-02-21_21h19.50.580,kallum_motion_pilot,2023.2.2,MacIntel,59.88023952,61535206a5dfc673e9cb6a3c,65d6bb0e977760de756971f7,65d6bd1f4a9e805cdc72f4b6,0.0143,0.0144,0,50,50,20,1,threeone,,,,,,,,,,,,,,,,,,,,,,,,,,,,,,,,,,,,,,,,,,,,,,,,,,,,,,,,,,,,,,,,,,,,,,,,,,,,,,,,,,,,,,,,,,,,,,,,,,,,,,,,,,,,,,,,,,,,,,,,,,,,,,,,,,,,,,,,,
,,61535206a5dfc673e9cb6a3c,2024-02-21_21h19.50.580,kallum_motion_pilot,2023.2.2,MacIntel,59.88023952,61535206a5dfc673e9cb6a3c,65d6bb0e977760de756971f7,65d6bd1f4a9e805cdc72f4b6,0.0144,0.0144,0,51,51,148,1,sevenfive,,,,,,,,,,,,,,,,,,,,,,,,,,,,,,,,,,,,,,,,,,,,,,,,,,,,,,,,,,,,,,,,,,,,,,,,,,,,,,,,,,,,,,,,,,,,,,,,,,,,,,,,,,,,,,,,,,,,,,,,,,,,,,,,,,,,,,,,,
,,61535206a5dfc673e9cb6a3c,2024-02-21_21h19.50.580,kallum_motion_pilot,2023.2.2,MacIntel,59.88023952,61535206a5dfc673e9cb6a3c,65d6bb0e977760de756971f7,65d6bd1f4a9e805cdc72f4b6,0.0144,0.0144,0,52,52,18,1,twoone,,,,,,,,,,,,,,,,,,,,,,,,,,,,,,,,,,,,,,,,,,,,,,,,,,,,,,,,,,,,,,,,,,,,,,,,,,,,,,,,,,,,,,,,,,,,,,,,,,,,,,,,,,,,,,,,,,,,,,,,,,,,,,,,,,,,,,,,,
,,61535206a5dfc673e9cb6a3c,2024-02-21_21h19.50.580,kallum_motion_pilot,2023.2.2,MacIntel,59.88023952,61535206a5dfc673e9cb6a3c,65d6bb0e977760de756971f7,65d6bd1f4a9e805cdc72f4b6,0.0145,0.0145,0,53,53,45,1,threefour,,,,,,,,,,,,,,,,,,,,,,,,,,,,,,,,,,,,,,,,,,,,,,,,,,,,,,,,,,,,,,,,,,,,,,,,,,,,,,,,,,,,,,,,,,,,,,,,,,,,,,,,,,,,,,,,,,,,,,,,,,,,,,,,,,,,,,,,,
,,61535206a5dfc673e9cb6a3c,2024-02-21_21h19.50.580,kallum_motion_pilot,2023.2.2,MacIntel,59.88023952,61535206a5dfc673e9cb6a3c,65d6bb0e977760de756971f7,65d6bd1f4a9e805cdc72f4b6,0.0145,0.0146,0,54,54,127,1,eightseven,,,,,,,,,,,,,,,,,,,,,,,,,,,,,,,,,,,,,,,,,,,,,,,,,,,,,,,,,,,,,,,,,,,,,,,,,,,,,,,,,,,,,,,,,,,,,,,,,,,,,,,,,,,,,,,,,,,,,,,,,,,,,,,,,,,,,,,,,
,,61535206a5dfc673e9cb6a3c,2024-02-21_21h19.50.580,kallum_motion_pilot,2023.2.2,MacIntel,59.88023952,61535206a5dfc673e9cb6a3c,65d6bb0e977760de756971f7,65d6bd1f4a9e805cdc72f4b6,0.0146,0.0146,0,55,55,155,1,sixeight,,,,,,,,,,,,,,,,,,,,,,,,,,,,,,,,,,,,,,,,,,,,,,,,,,,,,,,,,,,,,,,,,,,,,,,,,,,,,,,,,,,,,,,,,,,,,,,,,,,,,,,,,,,,,,,,,,,,,,,,,,,,,,,,,,,,,,,,,
,,61535206a5dfc673e9cb6a3c,2024-02-21_21h19.50.580,kallum_motion_pilot,2023.2.2,MacIntel,59.88023952,61535206a5dfc673e9cb6a3c,65d6bb0e977760de756971f7,65d6bd1f4a9e805cdc72f4b6,0.0147,0.0147,0,56,56,87,1,eightseven,,,,,,,,,,,,,,,,,,,,,,,,,,,,,,,,,,,,,,,,,,,,,,,,,,,,,,,,,,,,,,,,,,,,,,,,,,,,,,,,,,,,,,,,,,,,,,,,,,,,,,,,,,,,,,,,,,,,,,,,,,,,,,,,,,,,,,,,,
,,61535206a5dfc673e9cb6a3c,2024-02-21_21h19.50.580,kallum_motion_pilot,2023.2.2,MacIntel,59.88023952,61535206a5dfc673e9cb6a3c,65d6bb0e977760de756971f7,65d6bd1f4a9e805cdc72f4b6,0.0147,0.0147,0,57,57,90,1,sixfive,,,,,,,,,,,,,,,,,,,,,,,,,,,,,,,,,,,,,,,,,,,,,,,,,,,,,,,,,,,,,,,,,,,,,,,,,,,,,,,,,,,,,,,,,,,,,,,,,,,,,,,,,,,,,,,,,,,,,,,,,,,,,,,,,,,,,,,,,
,,61535206a5dfc673e9cb6a3c,2024-02-21_21h19.50.580,kallum_motion_pilot,2023.2.2,MacIntel,59.88023952,61535206a5dfc673e9cb6a3c,65d6bb0e977760de756971f7,65d6bd1f4a9e805cdc72f4b6,0.0147,0.0147,0,58,58,48,1,onetwo,,,,,,,,,,,,,,,,,,,,,,,,,,,,,,,,,,,,,,,,,,,,,,,,,,,,,,,,,,,,,,,,,,,,,,,,,,,,,,,,,,,,,,,,,,,,,,,,,,,,,,,,,,,,,,,,,,,,,,,,,,,,,,,,,,,,,,,,,
,,61535206a5dfc673e9cb6a3c,2024-02-21_21h19.50.580,kallum_motion_pilot,2023.2.2,MacIntel,59.88023952,61535206a5dfc673e9cb6a3c,65d6bb0e977760de756971f7,65d6bd1f4a9e805cdc72f4b6,0.0148,0.0148,0,59,59,29,1,threefour,,,,,,,,,,,,,,,,,,,,,,,,,,,,,,,,,,,,,,,,,,,,,,,,,,,,,,,,,,,,,,,,,,,,,,,,,,,,,,,,,,,,,,,,,,,,,,,,,,,,,,,,,,,,,,,,,,,,,,,,,,,,,,,,,,,,,,,,,
,,61535206a5dfc673e9cb6a3c,2024-02-21_21h19.50.580,kallum_motion_pilot,2023.2.2,MacIntel,59.88023952,61535206a5dfc673e9cb6a3c,65d6bb0e977760de756971f7,65d6bd1f4a9e805cdc72f4b6,0.0148,0.0148,0,60,60,73,1,onethree,,,,,,,,,,,,,,,,,,,,,,,,,,,,,,,,,,,,,,,,,,,,,,,,,,,,,,,,,,,,,,,,,,,,,,,,,,,,,,,,,,,,,,,,,,,,,,,,,,,,,,,,,,,,,,,,,,,,,,,,,,,,,,,,,,,,,,,,,
,,61535206a5dfc673e9cb6a3c,2024-02-21_21h19.50.580,kallum_motion_pilot,2023.2.2,MacIntel,59.88023952,61535206a5dfc673e9cb6a3c,65d6bb0e977760de756971f7,65d6bd1f4a9e805cdc72f4b6,0.015,0.015,0,61,61,34,1,twoone,,,,,,,,,,,,,,,,,,,,,,,,,,,,,,,,,,,,,,,,,,,,,,,,,,,,,,,,,,,,,,,,,,,,,,,,,,,,,,,,,,,,,,,,,,,,,,,,,,,,,,,,,,,,,,,,,,,,,,,,,,,,,,,,,,,,,,,,,
,,61535206a5dfc673e9cb6a3c,2024-02-21_21h19.50.580,kallum_motion_pilot,2023.2.2,MacIntel,59.88023952,61535206a5dfc673e9cb6a3c,65d6bb0e977760de756971f7,65d6bd1f4a9e805cdc72f4b6,0.015,0.015,0,62,62,16,1,onetwo,,,,,,,,,,,,,,,,,,,,,,,,,,,,,,,,,,,,,,,,,,,,,,,,,,,,,,,,,,,,,,,,,,,,,,,,,,,,,,,,,,,,,,,,,,,,,,,,,,,,,,,,,,,,,,,,,,,,,,,,,,,,,,,,,,,,,,,,,
,,61535206a5dfc673e9cb6a3c,2024-02-21_21h19.50.580,kallum_motion_pilot,2023.2.2,MacIntel,59.88023952,61535206a5dfc673e9cb6a3c,65d6bb0e977760de756971f7,65d6bd1f4a9e805cdc72f4b6,0.0151,0.0151,0,63,63,37,1,threefour,,,,,,,,,,,,,,,,,,,,,,,,,,,,,,,,,,,,,,,,,,,,,,,,,,,,,,,,,,,,,,,,,,,,,,,,,,,,,,,,,,,,,,,,,,,,,,,,,,,,,,,,,,,,,,,,,,,,,,,,,,,,,,,,,,,,,,,,,
,,61535206a5dfc673e9cb6a3c,2024-02-21_21h19.50.580,kallum_motion_pilot,2023.2.2,MacIntel,59.88023952,61535206a5dfc673e9cb6a3c,65d6bb0e977760de756971f7,65d6bd1f4a9e805cdc72f4b6,0.0152,0.0152,0,64,64,82,1,sixfive,,,,,,,,,,,,,,,,,,,,,,,,,,,,,,,,,,,,,,,,,,,,,,,,,,,,,,,,,,,,,,,,,,,,,,,,,,,,,,,,,,,,,,,,,,,,,,,,,,,,,,,,,,,,,,,,,,,,,,,,,,,,,,,,,,,,,,,,,
,,61535206a5dfc673e9cb6a3c,2024-02-21_21h19.50.580,kallum_motion_pilot,2023.2.2,MacIntel,59.88023952,61535206a5dfc673e9cb6a3c,65d6bb0e977760de756971f7,65d6bd1f4a9e805cdc72f4b6,0.0152,0.0152,0,65,65,76,1,threeone,,,,,,,,,,,,,,,,,,,,,,,,,,,,,,,,,,,,,,,,,,,,,,,,,,,,,,,,,,,,,,,,,,,,,,,,,,,,,,,,,,,,,,,,,,,,,,,,,,,,,,,,,,,,,,,,,,,,,,,,,,,,,,,,,,,,,,,,,
,,61535206a5dfc673e9cb6a3c,2024-02-21_21h19.50.580,kallum_motion_pilot,2023.2.2,MacIntel,59.88023952,61535206a5dfc673e9cb6a3c,65d6bb0e977760de756971f7,65d6bd1f4a9e805cdc72f4b6,0.0152,0.0153,0,66,66,101,1,seveneight,,,,,,,,,,,,,,,,,,,,,,,,,,,,,,,,,,,,,,,,,,,,,,,,,,,,,,,,,,,,,,,,,,,,,,,,,,,,,,,,,,,,,,,,,,,,,,,,,,,,,,,,,,,,,,,,,,,,,,,,,,,,,,,,,,,,,,,,,
,,61535206a5dfc673e9cb6a3c,2024-02-21_21h19.50.580,kallum_motion_pilot,2023.2.2,MacIntel,59.88023952,61535206a5dfc673e9cb6a3c,65d6bb0e977760de756971f7,65d6bd1f4a9e805cdc72f4b6,0.0153,0.0153,0,67,67,85,1,seveneight,,,,,,,,,,,,,,,,,,,,,,,,,,,,,,,,,,,,,,,,,,,,,,,,,,,,,,,,,,,,,,,,,,,,,,,,,,,,,,,,,,,,,,,,,,,,,,,,,,,,,,,,,,,,,,,,,,,,,,,,,,,,,,,,,,,,,,,,,
,,61535206a5dfc673e9cb6a3c,2024-02-21_21h19.50.580,kallum_motion_pilot,2023.2.2,MacIntel,59.88023952,61535206a5dfc673e9cb6a3c,65d6bb0e977760de756971f7,65d6bd1f4a9e805cdc72f4b6,0.0154,0.0154,0,68,68,44,1,threeone,,,,,,,,,,,,,,,,,,,,,,,,,,,,,,,,,,,,,,,,,,,,,,,,,,,,,,,,,,,,,,,,,,,,,,,,,,,,,,,,,,,,,,,,,,,,,,,,,,,,,,,,,,,,,,,,,,,,,,,,,,,,,,,,,,,,,,,,,
,,61535206a5dfc673e9cb6a3c,2024-02-21_21h19.50.580,kallum_motion_pilot,2023.2.2,MacIntel,59.88023952,61535206a5dfc673e9cb6a3c,65d6bb0e977760de756971f7,65d6bd1f4a9e805cdc72f4b6,0.0155,0.0155,0,69,69,136,1,fivesix,,,,,,,,,,,,,,,,,,,,,,,,,,,,,,,,,,,,,,,,,,,,,,,,,,,,,,,,,,,,,,,,,,,,,,,,,,,,,,,,,,,,,,,,,,,,,,,,,,,,,,,,,,,,,,,,,,,,,,,,,,,,,,,,,,,,,,,,,
,,61535206a5dfc673e9cb6a3c,2024-02-21_21h19.50.580,kallum_motion_pilot,2023.2.2,MacIntel,59.88023952,61535206a5dfc673e9cb6a3c,65d6bb0e977760de756971f7,65d6bd1f4a9e805cdc72f4b6,0.0155,0.0155,0,70,70,3,1,twofour,,,,,,,,,,,,,,,,,,,,,,,,,,,,,,,,,,,,,,,,,,,,,,,,,,,,,,,,,,,,,,,,,,,,,,,,,,,,,,,,,,,,,,,,,,,,,,,,,,,,,,,,,,,,,,,,,,,,,,,,,,,,,,,,,,,,,,,,,
,,61535206a5dfc673e9cb6a3c,2024-02-21_21h19.50.580,kallum_motion_pilot,2023.2.2,MacIntel,59.88023952,61535206a5dfc673e9cb6a3c,65d6bb0e977760de756971f7,65d6bd1f4a9e805cdc72f4b6,0.0155,0.0156,0,71,71,138,1,sixfive,,,,,,,,,,,,,,,,,,,,,,,,,,,,,,,,,,,,,,,,,,,,,,,,,,,,,,,,,,,,,,,,,,,,,,,,,,,,,,,,,,,,,,,,,,,,,,,,,,,,,,,,,,,,,,,,,,,,,,,,,,,,,,,,,,,,,,,,,
,,61535206a5dfc673e9cb6a3c,2024-02-21_21h19.50.580,kallum_motion_pilot,2023.2.2,MacIntel,59.88023952,61535206a5dfc673e9cb6a3c,65d6bb0e977760de756971f7,65d6bd1f4a9e805cdc72f4b6,0.0157,0.0157,0,72,72,106,1,sixfive,,,,,,,,,,,,,,,,,,,,,,,,,,,,,,,,,,,,,,,,,,,,,,,,,,,,,,,,,,,,,,,,,,,,,,,,,,,,,,,,,,,,,,,,,,,,,,,,,,,,,,,,,,,,,,,,,,,,,,,,,,,,,,,,,,,,,,,,,
,,61535206a5dfc673e9cb6a3c,2024-02-21_21h19.50.580,kallum_motion_pilot,2023.2.2,MacIntel,59.88023952,61535206a5dfc673e9cb6a3c,65d6bb0e977760de756971f7,65d6bd1f4a9e805cdc72f4b6,0.0157,0.0157,0,73,73,107,1,sixeight,,,,,,,,,,,,,,,,,,,,,,,,,,,,,,,,,,,,,,,,,,,,,,,,,,,,,,,,,,,,,,,,,,,,,,,,,,,,,,,,,,,,,,,,,,,,,,,,,,,,,,,,,,,,,,,,,,,,,,,,,,,,,,,,,,,,,,,,,
,,61535206a5dfc673e9cb6a3c,2024-02-21_21h19.50.580,kallum_motion_pilot,2023.2.2,MacIntel,59.88023952,61535206a5dfc673e9cb6a3c,65d6bb0e977760de756971f7,65d6bd1f4a9e805cdc72f4b6,0.0158,0.0158,0,74,74,131,1,sixeight,,,,,,,,,,,,,,,,,,,,,,,,,,,,,,,,,,,,,,,,,,,,,,,,,,,,,,,,,,,,,,,,,,,,,,,,,,,,,,,,,,,,,,,,,,,,,,,,,,,,,,,,,,,,,,,,,,,,,,,,,,,,,,,,,,,,,,,,,
,,61535206a5dfc673e9cb6a3c,2024-02-21_21h19.50.580,kallum_motion_pilot,2023.2.2,MacIntel,59.88023952,61535206a5dfc673e9cb6a3c,65d6bb0e977760de756971f7,65d6bd1f4a9e805cdc72f4b6,0.0158,0.0158,0,75,75,132,1,sevenfive,,,,,,,,,,,,,,,,,,,,,,,,,,,,,,,,,,,,,,,,,,,,,,,,,,,,,,,,,,,,,,,,,,,,,,,,,,,,,,,,,,,,,,,,,,,,,,,,,,,,,,,,,,,,,,,,,,,,,,,,,,,,,,,,,,,,,,,,,
,,61535206a5dfc673e9cb6a3c,2024-02-21_21h19.50.580,kallum_motion_pilot,2023.2.2,MacIntel,59.88023952,61535206a5dfc673e9cb6a3c,65d6bb0e977760de756971f7,65d6bd1f4a9e805cdc72f4b6,0.0159,0.0159,0,76,76,8,1,onetwo,,,,,,,,,,,,,,,,,,,,,,,,,,,,,,,,,,,,,,,,,,,,,,,,,,,,,,,,,,,,,,,,,,,,,,,,,,,,,,,,,,,,,,,,,,,,,,,,,,,,,,,,,,,,,,,,,,,,,,,,,,,,,,,,,,,,,,,,,
,,61535206a5dfc673e9cb6a3c,2024-02-21_21h19.50.580,kallum_motion_pilot,2023.2.2,MacIntel,59.88023952,61535206a5dfc673e9cb6a3c,65d6bb0e977760de756971f7,65d6bd1f4a9e805cdc72f4b6,0.0159,0.0159,0,77,77,41,1,onethree,,,,,,,,,,,,,,,,,,,,,,,,,,,,,,,,,,,,,,,,,,,,,,,,,,,,,,,,,,,,,,,,,,,,,,,,,,,,,,,,,,,,,,,,,,,,,,,,,,,,,,,,,,,,,,,,,,,,,,,,,,,,,,,,,,,,,,,,,
,,61535206a5dfc673e9cb6a3c,2024-02-21_21h19.50.580,kallum_motion_pilot,2023.2.2,MacIntel,59.88023952,61535206a5dfc673e9cb6a3c,65d6bb0e977760de756971f7,65d6bd1f4a9e805cdc72f4b6,0.0159,0.0159,0,78,78,72,1,onetwo,,,,,,,,,,,,,,,,,,,,,,,,,,,,,,,,,,,,,,,,,,,,,,,,,,,,,,,,,,,,,,,,,,,,,,,,,,,,,,,,,,,,,,,,,,,,,,,,,,,,,,,,,,,,,,,,,,,,,,,,,,,,,,,,,,,,,,,,,
,,61535206a5dfc673e9cb6a3c,2024-02-21_21h19.50.580,kallum_motion_pilot,2023.2.2,MacIntel,59.88023952,61535206a5dfc673e9cb6a3c,65d6bb0e977760de756971f7,65d6bd1f4a9e805cdc72f4b6,0.0159,0.016,0,79,79,32,1,onetwo,,,,,,,,,,,,,,,,,,,,,,,,,,,,,,,,,,,,,,,,,,,,,,,,,,,,,,,,,,,,,,,,,,,,,,,,,,,,,,,,,,,,,,,,,,,,,,,,,,,,,,,,,,,,,,,,,,,,,,,,,,,,,,,,,,,,,,,,,
,,61535206a5dfc673e9cb6a3c,2024-02-21_21h19.50.580,kallum_motion_pilot,2023.2.2,MacIntel,59.88023952,61535206a5dfc673e9cb6a3c,65d6bb0e977760de756971f7,65d6bd1f4a9e805cdc72f4b6,0.016,0.0161,0,80,80,57,1,onethree,,,,,,,,,,,,,,,,,,,,,,,,,,,,,,,,,,,,,,,,,,,,,,,,,,,,,,,,,,,,,,,,,,,,,,,,,,,,,,,,,,,,,,,,,,,,,,,,,,,,,,,,,,,,,,,,,,,,,,,,,,,,,,,,,,,,,,,,,
,,61535206a5dfc673e9cb6a3c,2024-02-21_21h19.50.580,kallum_motion_pilot,2023.2.2,MacIntel,59.88023952,61535206a5dfc673e9cb6a3c,65d6bb0e977760de756971f7,65d6bd1f4a9e805cdc72f4b6,0.0161,0.0161,0,81,81,25,1,onethree,,,,,,,,,,,,,,,,,,,,,,,,,,,,,,,,,,,,,,,,,,,,,,,,,,,,,,,,,,,,,,,,,,,,,,,,,,,,,,,,,,,,,,,,,,,,,,,,,,,,,,,,,,,,,,,,,,,,,,,,,,,,,,,,,,,,,,,,,
,,61535206a5dfc673e9cb6a3c,2024-02-21_21h19.50.580,kallum_motion_pilot,2023.2.2,MacIntel,59.88023952,61535206a5dfc673e9cb6a3c,65d6bb0e977760de756971f7,65d6bd1f4a9e805cdc72f4b6,0.0161,0.0161,0,82,82,114,1,sixfive,,,,,,,,,,,,,,,,,,,,,,,,,,,,,,,,,,,,,,,,,,,,,,,,,,,,,,,,,,,,,,,,,,,,,,,,,,,,,,,,,,,,,,,,,,,,,,,,,,,,,,,,,,,,,,,,,,,,,,,,,,,,,,,,,,,,,,,,,
,,61535206a5dfc673e9cb6a3c,2024-02-21_21h19.50.580,kallum_motion_pilot,2023.2.2,MacIntel,59.88023952,61535206a5dfc673e9cb6a3c,65d6bb0e977760de756971f7,65d6bd1f4a9e805cdc72f4b6,0.0162,0.0162,0,83,83,53,1,threefour,,,,,,,,,,,,,,,,,,,,,,,,,,,,,,,,,,,,,,,,,,,,,,,,,,,,,,,,,,,,,,,,,,,,,,,,,,,,,,,,,,,,,,,,,,,,,,,,,,,,,,,,,,,,,,,,,,,,,,,,,,,,,,,,,,,,,,,,,
,,61535206a5dfc673e9cb6a3c,2024-02-21_21h19.50.580,kallum_motion_pilot,2023.2.2,MacIntel,59.88023952,61535206a5dfc673e9cb6a3c,65d6bb0e977760de756971f7,65d6bd1f4a9e805cdc72f4b6,0.0162,0.0162,0,84,84,39,1,fourthree,,,,,,,,,,,,,,,,,,,,,,,,,,,,,,,,,,,,,,,,,,,,,,,,,,,,,,,,,,,,,,,,,,,,,,,,,,,,,,,,,,,,,,,,,,,,,,,,,,,,,,,,,,,,,,,,,,,,,,,,,,,,,,,,,,,,,,,,,
,,61535206a5dfc673e9cb6a3c,2024-02-21_21h19.50.580,kallum_motion_pilot,2023.2.2,MacIntel,59.88023952,61535206a5dfc673e9cb6a3c,65d6bb0e977760de756971f7,65d6bd1f4a9e805cdc72f4b6,0.0162,0.0162,0,85,85,31,1,fourthree,,,,,,,,,,,,,,,,,,,,,,,,,,,,,,,,,,,,,,,,,,,,,,,,,,,,,,,,,,,,,,,,,,,,,,,,,,,,,,,,,,,,,,,,,,,,,,,,,,,,,,,,,,,,,,,,,,,,,,,,,,,,,,,,,,,,,,,,,
,,61535206a5dfc673e9cb6a3c,2024-02-21_21h19.50.580,kallum_motion_pilot,2023.2.2,MacIntel,59.88023952,61535206a5dfc673e9cb6a3c,65d6bb0e977760de756971f7,65d6bd1f4a9e805cdc72f4b6,0.0163,0.0163,0,86,86,28,1,threeone,,,,,,,,,,,,,,,,,,,,,,,,,,,,,,,,,,,,,,,,,,,,,,,,,,,,,,,,,,,,,,,,,,,,,,,,,,,,,,,,,,,,,,,,,,,,,,,,,,,,,,,,,,,,,,,,,,,,,,,,,,,,,,,,,,,,,,,,,
,,61535206a5dfc673e9cb6a3c,2024-02-21_21h19.50.580,kallum_motion_pilot,2023.2.2,MacIntel,59.88023952,61535206a5dfc673e9cb6a3c,65d6bb0e977760de756971f7,65d6bd1f4a9e805cdc72f4b6,0.0163,0.0164,0,87,87,97,1,fiveseven,,,,,,,,,,,,,,,,,,,,,,,,,,,,,,,,,,,,,,,,,,,,,,,,,,,,,,,,,,,,,,,,,,,,,,,,,,,,,,,,,,,,,,,,,,,,,,,,,,,,,,,,,,,,,,,,,,,,,,,,,,,,,,,,,,,,,,,,,
,,61535206a5dfc673e9cb6a3c,2024-02-21_21h19.50.580,kallum_motion_pilot,2023.2.2,MacIntel,59.88023952,61535206a5dfc673e9cb6a3c,65d6bb0e977760de756971f7,65d6bd1f4a9e805cdc72f4b6,0.0164,0.0164,0,88,88,154,1,sixfive,,,,,,,,,,,,,,,,,,,,,,,,,,,,,,,,,,,,,,,,,,,,,,,,,,,,,,,,,,,,,,,,,,,,,,,,,,,,,,,,,,,,,,,,,,,,,,,,,,,,,,,,,,,,,,,,,,,,,,,,,,,,,,,,,,,,,,,,,
,,61535206a5dfc673e9cb6a3c,2024-02-21_21h19.50.580,kallum_motion_pilot,2023.2.2,MacIntel,59.88023952,61535206a5dfc673e9cb6a3c,65d6bb0e977760de756971f7,65d6bd1f4a9e805cdc72f4b6,0.0165,0.0165,0,89,89,22,1,fourtwo,,,,,,,,,,,,,,,,,,,,,,,,,,,,,,,,,,,,,,,,,,,,,,,,,,,,,,,,,,,,,,,,,,,,,,,,,,,,,,,,,,,,,,,,,,,,,,,,,,,,,,,,,,,,,,,,,,,,,,,,,,,,,,,,,,,,,,,,,
,,61535206a5dfc673e9cb6a3c,2024-02-21_21h19.50.580,kallum_motion_pilot,2023.2.2,MacIntel,59.88023952,61535206a5dfc673e9cb6a3c,65d6bb0e977760de756971f7,65d6bd1f4a9e805cdc72f4b6,0.0165,0.0165,0,90,90,99,1,sixeight,,,,,,,,,,,,,,,,,,,,,,,,,,,,,,,,,,,,,,,,,,,,,,,,,,,,,,,,,,,,,,,,,,,,,,,,,,,,,,,,,,,,,,,,,,,,,,,,,,,,,,,,,,,,,,,,,,,,,,,,,,,,,,,,,,,,,,,,,
,,61535206a5dfc673e9cb6a3c,2024-02-21_21h19.50.580,kallum_motion_pilot,2023.2.2,MacIntel,59.88023952,61535206a5dfc673e9cb6a3c,65d6bb0e977760de756971f7,65d6bd1f4a9e805cdc72f4b6,0.0166,0.0166,0,91,91,7,1,fourthree,,,,,,,,,,,,,,,,,,,,,,,,,,,,,,,,,,,,,,,,,,,,,,,,,,,,,,,,,,,,,,,,,,,,,,,,,,,,,,,,,,,,,,,,,,,,,,,,,,,,,,,,,,,,,,,,,,,,,,,,,,,,,,,,,,,,,,,,,
,,61535206a5dfc673e9cb6a3c,2024-02-21_21h19.50.580,kallum_motion_pilot,2023.2.2,MacIntel,59.88023952,61535206a5dfc673e9cb6a3c,65d6bb0e977760de756971f7,65d6bd1f4a9e805cdc72f4b6,0.0166,0.0167,0,92,92,58,1,twoone,,,,,,,,,,,,,,,,,,,,,,,,,,,,,,,,,,,,,,,,,,,,,,,,,,,,,,,,,,,,,,,,,,,,,,,,,,,,,,,,,,,,,,,,,,,,,,,,,,,,,,,,,,,,,,,,,,,,,,,,,,,,,,,,,,,,,,,,,
,,61535206a5dfc673e9cb6a3c,2024-02-21_21h19.50.580,kallum_motion_pilot,2023.2.2,MacIntel,59.88023952,61535206a5dfc673e9cb6a3c,65d6bb0e977760de756971f7,65d6bd1f4a9e805cdc72f4b6,0.0168,0.0168,0,93,93,96,1,fivesix,,,,,,,,,,,,,,,,,,,,,,,,,,,,,,,,,,,,,,,,,,,,,,,,,,,,,,,,,,,,,,,,,,,,,,,,,,,,,,,,,,,,,,,,,,,,,,,,,,,,,,,,,,,,,,,,,,,,,,,,,,,,,,,,,,,,,,,,,
,,61535206a5dfc673e9cb6a3c,2024-02-21_21h19.50.580,kallum_motion_pilot,2023.2.2,MacIntel,59.88023952,61535206a5dfc673e9cb6a3c,65d6bb0e977760de756971f7,65d6bd1f4a9e805cdc72f4b6,0.0168,0.0168,0,94,94,59,1,twofour,,,,,,,,,,,,,,,,,,,,,,,,,,,,,,,,,,,,,,,,,,,,,,,,,,,,,,,,,,,,,,,,,,,,,,,,,,,,,,,,,,,,,,,,,,,,,,,,,,,,,,,,,,,,,,,,,,,,,,,,,,,,,,,,,,,,,,,,,
,,61535206a5dfc673e9cb6a3c,2024-02-21_21h19.50.580,kallum_motion_pilot,2023.2.2,MacIntel,59.88023952,61535206a5dfc673e9cb6a3c,65d6bb0e977760de756971f7,65d6bd1f4a9e805cdc72f4b6,0.0168,0.0169,0,95,95,94,1,eightsix,,,,,,,,,,,,,,,,,,,,,,,,,,,,,,,,,,,,,,,,,,,,,,,,,,,,,,,,,,,,,,,,,,,,,,,,,,,,,,,,,,,,,,,,,,,,,,,,,,,,,,,,,,,,,,,,,,,,,,,,,,,,,,,,,,,,,,,,,
,,61535206a5dfc673e9cb6a3c,2024-02-21_21h19.50.580,kallum_motion_pilot,2023.2.2,MacIntel,59.88023952,61535206a5dfc673e9cb6a3c,65d6bb0e977760de756971f7,65d6bd1f4a9e805cdc72f4b6,0.0169,0.0169,0,96,96,68,1,threeone,,,,,,,,,,,,,,,,,,,,,,,,,,,,,,,,,,,,,,,,,,,,,,,,,,,,,,,,,,,,,,,,,,,,,,,,,,,,,,,,,,,,,,,,,,,,,,,,,,,,,,,,,,,,,,,,,,,,,,,,,,,,,,,,,,,,,,,,,
,,61535206a5dfc673e9cb6a3c,2024-02-21_21h19.50.580,kallum_motion_pilot,2023.2.2,MacIntel,59.88023952,61535206a5dfc673e9cb6a3c,65d6bb0e977760de756971f7,65d6bd1f4a9e805cdc72f4b6,0.017,0.017,0,97,97,134,1,eightsix,,,,,,,,,,,,,,,,,,,,,,,,,,,,,,,,,,,,,,,,,,,,,,,,,,,,,,,,,,,,,,,,,,,,,,,,,,,,,,,,,,,,,,,,,,,,,,,,,,,,,,,,,,,,,,,,,,,,,,,,,,,,,,,,,,,,,,,,,
,,61535206a5dfc673e9cb6a3c,2024-02-21_21h19.50.580,kallum_motion_pilot,2023.2.2,MacIntel,59.88023952,61535206a5dfc673e9cb6a3c,65d6bb0e977760de756971f7,65d6bd1f4a9e805cdc72f4b6,0.0171,0.0171,0,98,98,64,1,onetwo,,,,,,,,,,,,,,,,,,,,,,,,,,,,,,,,,,,,,,,,,,,,,,,,,,,,,,,,,,,,,,,,,,,,,,,,,,,,,,,,,,,,,,,,,,,,,,,,,,,,,,,,,,,,,,,,,,,,,,,,,,,,,,,,,,,,,,,,,
,,61535206a5dfc673e9cb6a3c,2024-02-21_21h19.50.580,kallum_motion_pilot,2023.2.2,MacIntel,59.88023952,61535206a5dfc673e9cb6a3c,65d6bb0e977760de756971f7,65d6bd1f4a9e805cdc72f4b6,0.0171,0.0171,0,99,99,24,1,onetwo,,,,,,,,,,,,,,,,,,,,,,,,,,,,,,,,,,,,,,,,,,,,,,,,,,,,,,,,,,,,,,,,,,,,,,,,,,,,,,,,,,,,,,,,,,,,,,,,,,,,,,,,,,,,,,,,,,,,,,,,,,,,,,,,,,,,,,,,,
,,61535206a5dfc673e9cb6a3c,2024-02-21_21h19.50.580,kallum_motion_pilot,2023.2.2,MacIntel,59.88023952,61535206a5dfc673e9cb6a3c,65d6bb0e977760de756971f7,65d6bd1f4a9e805cdc72f4b6,0.0172,0.0172,0,100,100,91,1,sixeight,,,,,,,,,,,,,,,,,,,,,,,,,,,,,,,,,,,,,,,,,,,,,,,,,,,,,,,,,,,,,,,,,,,,,,,,,,,,,,,,,,,,,,,,,,,,,,,,,,,,,,,,,,,,,,,,,,,,,,,,,,,,,,,,,,,,,,,,,
,,61535206a5dfc673e9cb6a3c,2024-02-21_21h19.50.580,kallum_motion_pilot,2023.2.2,MacIntel,59.88023952,61535206a5dfc673e9cb6a3c,65d6bb0e977760de756971f7,65d6bd1f4a9e805cdc72f4b6,0.0172,0.0173,0,101,101,108,1,sevenfive,,,,,,,,,,,,,,,,,,,,,,,,,,,,,,,,,,,,,,,,,,,,,,,,,,,,,,,,,,,,,,,,,,,,,,,,,,,,,,,,,,,,,,,,,,,,,,,,,,,,,,,,,,,,,,,,,,,,,,,,,,,,,,,,,,,,,,,,,
,,61535206a5dfc673e9cb6a3c,2024-02-21_21h19.50.580,kallum_motion_pilot,2023.2.2,MacIntel,59.88023952,61535206a5dfc673e9cb6a3c,65d6bb0e977760de756971f7,65d6bd1f4a9e805cdc72f4b6,0.0173,0.0174,0,102,102,80,1,fivesix,,,,,,,,,,,,,,,,,,,,,,,,,,,,,,,,,,,,,,,,,,,,,,,,,,,,,,,,,,,,,,,,,,,,,,,,,,,,,,,,,,,,,,,,,,,,,,,,,,,,,,,,,,,,,,,,,,,,,,,,,,,,,,,,,,,,,,,,,
,,61535206a5dfc673e9cb6a3c,2024-02-21_21h19.50.580,kallum_motion_pilot,2023.2.2,MacIntel,59.88023952,61535206a5dfc673e9cb6a3c,65d6bb0e977760de756971f7,65d6bd1f4a9e805cdc72f4b6,0.0174,0.0174,0,103,103,118,1,eightsix,,,,,,,,,,,,,,,,,,,,,,,,,,,,,,,,,,,,,,,,,,,,,,,,,,,,,,,,,,,,,,,,,,,,,,,,,,,,,,,,,,,,,,,,,,,,,,,,,,,,,,,,,,,,,,,,,,,,,,,,,,,,,,,,,,,,,,,,,
,,61535206a5dfc673e9cb6a3c,2024-02-21_21h19.50.580,kallum_motion_pilot,2023.2.2,MacIntel,59.88023952,61535206a5dfc673e9cb6a3c,65d6bb0e977760de756971f7,65d6bd1f4a9e805cdc72f4b6,0.0174,0.0174,0,104,104,17,1,onethree,,,,,,,,,,,,,,,,,,,,,,,,,,,,,,,,,,,,,,,,,,,,,,,,,,,,,,,,,,,,,,,,,,,,,,,,,,,,,,,,,,,,,,,,,,,,,,,,,,,,,,,,,,,,,,,,,,,,,,,,,,,,,,,,,,,,,,,,,
,,61535206a5dfc673e9cb6a3c,2024-02-21_21h19.50.580,kallum_motion_pilot,2023.2.2,MacIntel,59.88023952,61535206a5dfc673e9cb6a3c,65d6bb0e977760de756971f7,65d6bd1f4a9e805cdc72f4b6,0.0174,0.0174,0,105,105,78,1,fourtwo,,,,,,,,,,,,,,,,,,,,,,,,,,,,,,,,,,,,,,,,,,,,,,,,,,,,,,,,,,,,,,,,,,,,,,,,,,,,,,,,,,,,,,,,,,,,,,,,,,,,,,,,,,,,,,,,,,,,,,,,,,,,,,,,,,,,,,,,,
,,61535206a5dfc673e9cb6a3c,2024-02-21_21h19.50.580,kallum_motion_pilot,2023.2.2,MacIntel,59.88023952,61535206a5dfc673e9cb6a3c,65d6bb0e977760de756971f7,65d6bd1f4a9e805cdc72f4b6,0.0175,0.0175,0,106,106,116,1,sevenfive,,,,,,,,,,,,,,,,,,,,,,,,,,,,,,,,,,,,,,,,,,,,,,,,,,,,,,,,,,,,,,,,,,,,,,,,,,,,,,,,,,,,,,,,,,,,,,,,,,,,,,,,,,,,,,,,,,,,,,,,,,,,,,,,,,,,,,,,,
,,61535206a5dfc673e9cb6a3c,2024-02-21_21h19.50.580,kallum_motion_pilot,2023.2.2,MacIntel,59.88023952,61535206a5dfc673e9cb6a3c,65d6bb0e977760de756971f7,65d6bd1f4a9e805cdc72f4b6,0.0175,0.0176,0,107,107,100,1,sevenfive,,,,,,,,,,,,,,,,,,,,,,,,,,,,,,,,,,,,,,,,,,,,,,,,,,,,,,,,,,,,,,,,,,,,,,,,,,,,,,,,,,,,,,,,,,,,,,,,,,,,,,,,,,,,,,,,,,,,,,,,,,,,,,,,,,,,,,,,,
,,61535206a5dfc673e9cb6a3c,2024-02-21_21h19.50.580,kallum_motion_pilot,2023.2.2,MacIntel,59.88023952,61535206a5dfc673e9cb6a3c,65d6bb0e977760de756971f7,65d6bd1f4a9e805cdc72f4b6,0.0176,0.0176,0,108,108,102,1,eightsix,,,,,,,,,,,,,,,,,,,,,,,,,,,,,,,,,,,,,,,,,,,,,,,,,,,,,,,,,,,,,,,,,,,,,,,,,,,,,,,,,,,,,,,,,,,,,,,,,,,,,,,,,,,,,,,,,,,,,,,,,,,,,,,,,,,,,,,,,
,,61535206a5dfc673e9cb6a3c,2024-02-21_21h19.50.580,kallum_motion_pilot,2023.2.2,MacIntel,59.88023952,61535206a5dfc673e9cb6a3c,65d6bb0e977760de756971f7,65d6bd1f4a9e805cdc72f4b6,0.0176,0.0177,0,109,109,71,1,fourthree,,,,,,,,,,,,,,,,,,,,,,,,,,,,,,,,,,,,,,,,,,,,,,,,,,,,,,,,,,,,,,,,,,,,,,,,,,,,,,,,,,,,,,,,,,,,,,,,,,,,,,,,,,,,,,,,,,,,,,,,,,,,,,,,,,,,,,,,,
,,61535206a5dfc673e9cb6a3c,2024-02-21_21h19.50.580,kallum_motion_pilot,2023.2.2,MacIntel,59.88023952,61535206a5dfc673e9cb6a3c,65d6bb0e977760de756971f7,65d6bd1f4a9e805cdc72f4b6,0.0178,0.0178,0,110,110,30,1,fourtwo,,,,,,,,,,,,,,,,,,,,,,,,,,,,,,,,,,,,,,,,,,,,,,,,,,,,,,,,,,,,,,,,,,,,,,,,,,,,,,,,,,,,,,,,,,,,,,,,,,,,,,,,,,,,,,,,,,,,,,,,,,,,,,,,,,,,,,,,,
,,61535206a5dfc673e9cb6a3c,2024-02-21_21h19.50.580,kallum_motion_pilot,2023.2.2,MacIntel,59.88023952,61535206a5dfc673e9cb6a3c,65d6bb0e977760de756971f7,65d6bd1f4a9e805cdc72f4b6,0.0178,0.0178,0,111,111,79,1,eightseven,,,,,,,,,,,,,,,,,,,,,,,,,,,,,,,,,,,,,,,,,,,,,,,,,,,,,,,,,,,,,,,,,,,,,,,,,,,,,,,,,,,,,,,,,,,,,,,,,,,,,,,,,,,,,,,,,,,,,,,,,,,,,,,,,,,,,,,,,
,,61535206a5dfc673e9cb6a3c,2024-02-21_21h19.50.580,kallum_motion_pilot,2023.2.2,MacIntel,59.88023952,61535206a5dfc673e9cb6a3c,65d6bb0e977760de756971f7,65d6bd1f4a9e805cdc72f4b6,0.0179,0.0179,0,112,112,139,1,sixeight,,,,,,,,,,,,,,,,,,,,,,,,,,,,,,,,,,,,,,,,,,,,,,,,,,,,,,,,,,,,,,,,,,,,,,,,,,,,,,,,,,,,,,,,,,,,,,,,,,,,,,,,,,,,,,,,,,,,,,,,,,,,,,,,,,,,,,,,,
,,61535206a5dfc673e9cb6a3c,2024-02-21_21h19.50.580,kallum_motion_pilot,2023.2.2,MacIntel,59.88023952,61535206a5dfc673e9cb6a3c,65d6bb0e977760de756971f7,65d6bd1f4a9e805cdc72f4b6,0.0179,0.018,0,113,113,92,1,sevenfive,,,,,,,,,,,,,,,,,,,,,,,,,,,,,,,,,,,,,,,,,,,,,,,,,,,,,,,,,,,,,,,,,,,,,,,,,,,,,,,,,,,,,,,,,,,,,,,,,,,,,,,,,,,,,,,,,,,,,,,,,,,,,,,,,,,,,,,,,
,,61535206a5dfc673e9cb6a3c,2024-02-21_21h19.50.580,kallum_motion_pilot,2023.2.2,MacIntel,59.88023952,61535206a5dfc673e9cb6a3c,65d6bb0e977760de756971f7,65d6bd1f4a9e805cdc72f4b6,0.018,0.018,0,114,114,11,1,twofour,,,,,,,,,,,,,,,,,,,,,,,,,,,,,,,,,,,,,,,,,,,,,,,,,,,,,,,,,,,,,,,,,,,,,,,,,,,,,,,,,,,,,,,,,,,,,,,,,,,,,,,,,,,,,,,,,,,,,,,,,,,,,,,,,,,,,,,,,
,,61535206a5dfc673e9cb6a3c,2024-02-21_21h19.50.580,kallum_motion_pilot,2023.2.2,MacIntel,59.88023952,61535206a5dfc673e9cb6a3c,65d6bb0e977760de756971f7,65d6bd1f4a9e805cdc72f4b6,0.018,0.0181,0,115,115,115,1,sixeight,,,,,,,,,,,,,,,,,,,,,,,,,,,,,,,,,,,,,,,,,,,,,,,,,,,,,,,,,,,,,,,,,,,,,,,,,,,,,,,,,,,,,,,,,,,,,,,,,,,,,,,,,,,,,,,,,,,,,,,,,,,,,,,,,,,,,,,,,
,,61535206a5dfc673e9cb6a3c,2024-02-21_21h19.50.580,kallum_motion_pilot,2023.2.2,MacIntel,59.88023952,61535206a5dfc673e9cb6a3c,65d6bb0e977760de756971f7,65d6bd1f4a9e805cdc72f4b6,0.0181,0.0181,0,116,116,105,1,fiveseven,,,,,,,,,,,,,,,,,,,,,,,,,,,,,,,,,,,,,,,,,,,,,,,,,,,,,,,,,,,,,,,,,,,,,,,,,,,,,,,,,,,,,,,,,,,,,,,,,,,,,,,,,,,,,,,,,,,,,,,,,,,,,,,,,,,,,,,,,
,,61535206a5dfc673e9cb6a3c,2024-02-21_21h19.50.580,kallum_motion_pilot,2023.2.2,MacIntel,59.88023952,61535206a5dfc673e9cb6a3c,65d6bb0e977760de756971f7,65d6bd1f4a9e805cdc72f4b6,0.0181,0.0182,0,117,117,21,1,threefour,,,,,,,,,,,,,,,,,,,,,,,,,,,,,,,,,,,,,,,,,,,,,,,,,,,,,,,,,,,,,,,,,,,,,,,,,,,,,,,,,,,,,,,,,,,,,,,,,,,,,,,,,,,,,,,,,,,,,,,,,,,,,,,,,,,,,,,,,
,,61535206a5dfc673e9cb6a3c,2024-02-21_21h19.50.580,kallum_motion_pilot,2023.2.2,MacIntel,59.88023952,61535206a5dfc673e9cb6a3c,65d6bb0e977760de756971f7,65d6bd1f4a9e805cdc72f4b6,0.0182,0.0182,0,118,118,13,1,threefour,,,,,,,,,,,,,,,,,,,,,,,,,,,,,,,,,,,,,,,,,,,,,,,,,,,,,,,,,,,,,,,,,,,,,,,,,,,,,,,,,,,,,,,,,,,,,,,,,,,,,,,,,,,,,,,,,,,,,,,,,,,,,,,,,,,,,,,,,
,,61535206a5dfc673e9cb6a3c,2024-02-21_21h19.50.580,kallum_motion_pilot,2023.2.2,MacIntel,59.88023952,61535206a5dfc673e9cb6a3c,65d6bb0e977760de756971f7,65d6bd1f4a9e805cdc72f4b6,0.0183,0.0183,0,119,119,55,1,fourthree,,,,,,,,,,,,,,,,,,,,,,,,,,,,,,,,,,,,,,,,,,,,,,,,,,,,,,,,,,,,,,,,,,,,,,,,,,,,,,,,,,,,,,,,,,,,,,,,,,,,,,,,,,,,,,,,,,,,,,,,,,,,,,,,,,,,,,,,,
,,61535206a5dfc673e9cb6a3c,2024-02-21_21h19.50.580,kallum_motion_pilot,2023.2.2,MacIntel,59.88023952,61535206a5dfc673e9cb6a3c,65d6bb0e977760de756971f7,65d6bd1f4a9e805cdc72f4b6,0.0183,0.0184,0,120,120,130,1,sixfive,,,,,,,,,,,,,,,,,,,,,,,,,,,,,,,,,,,,,,,,,,,,,,,,,,,,,,,,,,,,,,,,,,,,,,,,,,,,,,,,,,,,,,,,,,,,,,,,,,,,,,,,,,,,,,,,,,,,,,,,,,,,,,,,,,,,,,,,,
,,61535206a5dfc673e9cb6a3c,2024-02-21_21h19.50.580,kallum_motion_pilot,2023.2.2,MacIntel,59.88023952,61535206a5dfc673e9cb6a3c,65d6bb0e977760de756971f7,65d6bd1f4a9e805cdc72f4b6,0.0184,0.0184,0,121,121,43,1,twofour,,,,,,,,,,,,,,,,,,,,,,,,,,,,,,,,,,,,,,,,,,,,,,,,,,,,,,,,,,,,,,,,,,,,,,,,,,,,,,,,,,,,,,,,,,,,,,,,,,,,,,,,,,,,,,,,,,,,,,,,,,,,,,,,,,,,,,,,,
,,61535206a5dfc673e9cb6a3c,2024-02-21_21h19.50.580,kallum_motion_pilot,2023.2.2,MacIntel,59.88023952,61535206a5dfc673e9cb6a3c,65d6bb0e977760de756971f7,65d6bd1f4a9e805cdc72f4b6,0.0185,0.0185,0,122,122,110,1,eightsix,,,,,,,,,,,,,,,,,,,,,,,,,,,,,,,,,,,,,,,,,,,,,,,,,,,,,,,,,,,,,,,,,,,,,,,,,,,,,,,,,,,,,,,,,,,,,,,,,,,,,,,,,,,,,,,,,,,,,,,,,,,,,,,,,,,,,,,,,
,,61535206a5dfc673e9cb6a3c,2024-02-21_21h19.50.580,kallum_motion_pilot,2023.2.2,MacIntel,59.88023952,61535206a5dfc673e9cb6a3c,65d6bb0e977760de756971f7,65d6bd1f4a9e805cdc72f4b6,0.0185,0.0185,0,123,123,151,1,eightseven,,,,,,,,,,,,,,,,,,,,,,,,,,,,,,,,,,,,,,,,,,,,,,,,,,,,,,,,,,,,,,,,,,,,,,,,,,,,,,,,,,,,,,,,,,,,,,,,,,,,,,,,,,,,,,,,,,,,,,,,,,,,,,,,,,,,,,,,,
,,61535206a5dfc673e9cb6a3c,2024-02-21_21h19.50.580,kallum_motion_pilot,2023.2.2,MacIntel,59.88023952,61535206a5dfc673e9cb6a3c,65d6bb0e977760de756971f7,65d6bd1f4a9e805cdc72f4b6,0.0186,0.0186,0,124,124,103,1,eightseven,,,,,,,,,,,,,,,,,,,,,,,,,,,,,,,,,,,,,,,,,,,,,,,,,,,,,,,,,,,,,,,,,,,,,,,,,,,,,,,,,,,,,,,,,,,,,,,,,,,,,,,,,,,,,,,,,,,,,,,,,,,,,,,,,,,,,,,,,
,,61535206a5dfc673e9cb6a3c,2024-02-21_21h19.50.580,kallum_motion_pilot,2023.2.2,MacIntel,59.88023952,61535206a5dfc673e9cb6a3c,65d6bb0e977760de756971f7,65d6bd1f4a9e805cdc72f4b6,0.0186,0.0186,0,125,125,121,1,fiveseven,,,,,,,,,,,,,,,,,,,,,,,,,,,,,,,,,,,,,,,,,,,,,,,,,,,,,,,,,,,,,,,,,,,,,,,,,,,,,,,,,,,,,,,,,,,,,,,,,,,,,,,,,,,,,,,,,,,,,,,,,,,,,,,,,,,,,,,,,
,,61535206a5dfc673e9cb6a3c,2024-02-21_21h19.50.580,kallum_motion_pilot,2023.2.2,MacIntel,59.88023952,61535206a5dfc673e9cb6a3c,65d6bb0e977760de756971f7,65d6bd1f4a9e805cdc72f4b6,0.0187,0.0187,0,126,126,157,1,seveneight,,,,,,,,,,,,,,,,,,,,,,,,,,,,,,,,,,,,,,,,,,,,,,,,,,,,,,,,,,,,,,,,,,,,,,,,,,,,,,,,,,,,,,,,,,,,,,,,,,,,,,,,,,,,,,,,,,,,,,,,,,,,,,,,,,,,,,,,,
,,61535206a5dfc673e9cb6a3c,2024-02-21_21h19.50.580,kallum_motion_pilot,2023.2.2,MacIntel,59.88023952,61535206a5dfc673e9cb6a3c,65d6bb0e977760de756971f7,65d6bd1f4a9e805cdc72f4b6,0.0188,0.0188,0,127,127,12,1,threeone,,,,,,,,,,,,,,,,,,,,,,,,,,,,,,,,,,,,,,,,,,,,,,,,,,,,,,,,,,,,,,,,,,,,,,,,,,,,,,,,,,,,,,,,,,,,,,,,,,,,,,,,,,,,,,,,,,,,,,,,,,,,,,,,,,,,,,,,,
,,61535206a5dfc673e9cb6a3c,2024-02-21_21h19.50.580,kallum_motion_pilot,2023.2.2,MacIntel,59.88023952,61535206a5dfc673e9cb6a3c,65d6bb0e977760de756971f7,65d6bd1f4a9e805cdc72f4b6,0.0188,0.0188,0,128,128,147,1,sixeight,,,,,,,,,,,,,,,,,,,,,,,,,,,,,,,,,,,,,,,,,,,,,,,,,,,,,,,,,,,,,,,,,,,,,,,,,,,,,,,,,,,,,,,,,,,,,,,,,,,,,,,,,,,,,,,,,,,,,,,,,,,,,,,,,,,,,,,,,
,,61535206a5dfc673e9cb6a3c,2024-02-21_21h19.50.580,kallum_motion_pilot,2023.2.2,MacIntel,59.88023952,61535206a5dfc673e9cb6a3c,65d6bb0e977760de756971f7,65d6bd1f4a9e805cdc72f4b6,0.0188,0.0189,0,129,129,158,1,eightsix,,,,,,,,,,,,,,,,,,,,,,,,,,,,,,,,,,,,,,,,,,,,,,,,,,,,,,,,,,,,,,,,,,,,,,,,,,,,,,,,,,,,,,,,,,,,,,,,,,,,,,,,,,,,,,,,,,,,,,,,,,,,,,,,,,,,,,,,,
,,61535206a5dfc673e9cb6a3c,2024-02-21_21h19.50.580,kallum_motion_pilot,2023.2.2,MacIntel,59.88023952,61535206a5dfc673e9cb6a3c,65d6bb0e977760de756971f7,65d6bd1f4a9e805cdc72f4b6,0.0189,0.0189,0,130,130,38,1,fourtwo,,,,,,,,,,,,,,,,,,,,,,,,,,,,,,,,,,,,,,,,,,,,,,,,,,,,,,,,,,,,,,,,,,,,,,,,,,,,,,,,,,,,,,,,,,,,,,,,,,,,,,,,,,,,,,,,,,,,,,,,,,,,,,,,,,,,,,,,,
,,61535206a5dfc673e9cb6a3c,2024-02-21_21h19.50.580,kallum_motion_pilot,2023.2.2,MacIntel,59.88023952,61535206a5dfc673e9cb6a3c,65d6bb0e977760de756971f7,65d6bd1f4a9e805cdc72f4b6,0.019,0.019,0,131,131,47,1,fourthree,,,,,,,,,,,,,,,,,,,,,,,,,,,,,,,,,,,,,,,,,,,,,,,,,,,,,,,,,,,,,,,,,,,,,,,,,,,,,,,,,,,,,,,,,,,,,,,,,,,,,,,,,,,,,,,,,,,,,,,,,,,,,,,,,,,,,,,,,
,,61535206a5dfc673e9cb6a3c,2024-02-21_21h19.50.580,kallum_motion_pilot,2023.2.2,MacIntel,59.88023952,61535206a5dfc673e9cb6a3c,65d6bb0e977760de756971f7,65d6bd1f4a9e805cdc72f4b6,0.019,0.019,0,132,132,52,1,threeone,,,,,,,,,,,,,,,,,,,,,,,,,,,,,,,,,,,,,,,,,,,,,,,,,,,,,,,,,,,,,,,,,,,,,,,,,,,,,,,,,,,,,,,,,,,,,,,,,,,,,,,,,,,,,,,,,,,,,,,,,,,,,,,,,,,,,,,,,
,,61535206a5dfc673e9cb6a3c,2024-02-21_21h19.50.580,kallum_motion_pilot,2023.2.2,MacIntel,59.88023952,61535206a5dfc673e9cb6a3c,65d6bb0e977760de756971f7,65d6bd1f4a9e805cdc72f4b6,0.019,0.019,0,133,133,27,1,twofour,,,,,,,,,,,,,,,,,,,,,,,,,,,,,,,,,,,,,,,,,,,,,,,,,,,,,,,,,,,,,,,,,,,,,,,,,,,,,,,,,,,,,,,,,,,,,,,,,,,,,,,,,,,,,,,,,,,,,,,,,,,,,,,,,,,,,,,,,
,,61535206a5dfc673e9cb6a3c,2024-02-21_21h19.50.580,kallum_motion_pilot,2023.2.2,MacIntel,59.88023952,61535206a5dfc673e9cb6a3c,65d6bb0e977760de756971f7,65d6bd1f4a9e805cdc72f4b6,0.0191,0.0191,0,134,134,135,1,eightseven,,,,,,,,,,,,,,,,,,,,,,,,,,,,,,,,,,,,,,,,,,,,,,,,,,,,,,,,,,,,,,,,,,,,,,,,,,,,,,,,,,,,,,,,,,,,,,,,,,,,,,,,,,,,,,,,,,,,,,,,,,,,,,,,,,,,,,,,,
,,61535206a5dfc673e9cb6a3c,2024-02-21_21h19.50.580,kallum_motion_pilot,2023.2.2,MacIntel,59.88023952,61535206a5dfc673e9cb6a3c,65d6bb0e977760de756971f7,65d6bd1f4a9e805cdc72f4b6,0.0192,0.0192,0,135,135,69,1,threefour,,,,,,,,,,,,,,,,,,,,,,,,,,,,,,,,,,,,,,,,,,,,,,,,,,,,,,,,,,,,,,,,,,,,,,,,,,,,,,,,,,,,,,,,,,,,,,,,,,,,,,,,,,,,,,,,,,,,,,,,,,,,,,,,,,,,,,,,,
,,61535206a5dfc673e9cb6a3c,2024-02-21_21h19.50.580,kallum_motion_pilot,2023.2.2,MacIntel,59.88023952,61535206a5dfc673e9cb6a3c,65d6bb0e977760de756971f7,65d6bd1f4a9e805cdc72f4b6,0.0193,0.0193,0,136,136,56,1,onetwo,,,,,,,,,,,,,,,,,,,,,,,,,,,,,,,,,,,,,,,,,,,,,,,,,,,,,,,,,,,,,,,,,,,,,,,,,,,,,,,,,,,,,,,,,,,,,,,,,,,,,,,,,,,,,,,,,,,,,,,,,,,,,,,,,,,,,,,,,
,,61535206a5dfc673e9cb6a3c,2024-02-21_21h19.50.580,kallum_motion_pilot,2023.2.2,MacIntel,59.88023952,61535206a5dfc673e9cb6a3c,65d6bb0e977760de756971f7,65d6bd1f4a9e805cdc72f4b6,0.0193,0.0193,0,137,137,159,1,eightseven,,,,,,,,,,,,,,,,,,,,,,,,,,,,,,,,,,,,,,,,,,,,,,,,,,,,,,,,,,,,,,,,,,,,,,,,,,,,,,,,,,,,,,,,,,,,,,,,,,,,,,,,,,,,,,,,,,,,,,,,,,,,,,,,,,,,,,,,,
,,61535206a5dfc673e9cb6a3c,2024-02-21_21h19.50.580,kallum_motion_pilot,2023.2.2,MacIntel,59.88023952,61535206a5dfc673e9cb6a3c,65d6bb0e977760de756971f7,65d6bd1f4a9e805cdc72f4b6,0.0194,0.0194,0,138,138,122,1,sixfive,,,,,,,,,,,,,,,,,,,,,,,,,,,,,,,,,,,,,,,,,,,,,,,,,,,,,,,,,,,,,,,,,,,,,,,,,,,,,,,,,,,,,,,,,,,,,,,,,,,,,,,,,,,,,,,,,,,,,,,,,,,,,,,,,,,,,,,,,
,,61535206a5dfc673e9cb6a3c,2024-02-21_21h19.50.580,kallum_motion_pilot,2023.2.2,MacIntel,59.88023952,61535206a5dfc673e9cb6a3c,65d6bb0e977760de756971f7,65d6bd1f4a9e805cdc72f4b6,0.0194,0.0194,0,139,139,153,1,fiveseven,,,,,,,,,,,,,,,,,,,,,,,,,,,,,,,,,,,,,,,,,,,,,,,,,,,,,,,,,,,,,,,,,,,,,,,,,,,,,,,,,,,,,,,,,,,,,,,,,,,,,,,,,,,,,,,,,,,,,,,,,,,,,,,,,,,,,,,,,
,,61535206a5dfc673e9cb6a3c,2024-02-21_21h19.50.580,kallum_motion_pilot,2023.2.2,MacIntel,59.88023952,61535206a5dfc673e9cb6a3c,65d6bb0e977760de756971f7,65d6bd1f4a9e805cdc72f4b6,0.0194,0.0195,0,140,140,0,1,onetwo,,,,,,,,,,,,,,,,,,,,,,,,,,,,,,,,,,,,,,,,,,,,,,,,,,,,,,,,,,,,,,,,,,,,,,,,,,,,,,,,,,,,,,,,,,,,,,,,,,,,,,,,,,,,,,,,,,,,,,,,,,,,,,,,,,,,,,,,,
,,61535206a5dfc673e9cb6a3c,2024-02-21_21h19.50.580,kallum_motion_pilot,2023.2.2,MacIntel,59.88023952,61535206a5dfc673e9cb6a3c,65d6bb0e977760de756971f7,65d6bd1f4a9e805cdc72f4b6,0.0195,0.0196,0,141,141,1,1,onethree,,,,,,,,,,,,,,,,,,,,,,,,,,,,,,,,,,,,,,,,,,,,,,,,,,,,,,,,,,,,,,,,,,,,,,,,,,,,,,,,,,,,,,,,,,,,,,,,,,,,,,,,,,,,,,,,,,,,,,,,,,,,,,,,,,,,,,,,,
,,61535206a5dfc673e9cb6a3c,2024-02-21_21h19.50.580,kallum_motion_pilot,2023.2.2,MacIntel,59.88023952,61535206a5dfc673e9cb6a3c,65d6bb0e977760de756971f7,65d6bd1f4a9e805cdc72f4b6,0.0196,0.0196,0,142,142,75,1,twofour,,,,,,,,,,,,,,,,,,,,,,,,,,,,,,,,,,,,,,,,,,,,,,,,,,,,,,,,,,,,,,,,,,,,,,,,,,,,,,,,,,,,,,,,,,,,,,,,,,,,,,,,,,,,,,,,,,,,,,,,,,,,,,,,,,,,,,,,,
,,61535206a5dfc673e9cb6a3c,2024-02-21_21h19.50.580,kallum_motion_pilot,2023.2.2,MacIntel,59.88023952,61535206a5dfc673e9cb6a3c,65d6bb0e977760de756971f7,65d6bd1f4a9e805cdc72f4b6,0.0196,0.0196,0,143,143,133,1,seveneight,,,,,,,,,,,,,,,,,,,,,,,,,,,,,,,,,,,,,,,,,,,,,,,,,,,,,,,,,,,,,,,,,,,,,,,,,,,,,,,,,,,,,,,,,,,,,,,,,,,,,,,,,,,,,,,,,,,,,,,,,,,,,,,,,,,,,,,,,
,,61535206a5dfc673e9cb6a3c,2024-02-21_21h19.50.580,kallum_motion_pilot,2023.2.2,MacIntel,59.88023952,61535206a5dfc673e9cb6a3c,65d6bb0e977760de756971f7,65d6bd1f4a9e805cdc72f4b6,0.0197,0.0197,0,144,144,33,1,onethree,,,,,,,,,,,,,,,,,,,,,,,,,,,,,,,,,,,,,,,,,,,,,,,,,,,,,,,,,,,,,,,,,,,,,,,,,,,,,,,,,,,,,,,,,,,,,,,,,,,,,,,,,,,,,,,,,,,,,,,,,,,,,,,,,,,,,,,,,
,,61535206a5dfc673e9cb6a3c,2024-02-21_21h19.50.580,kallum_motion_pilot,2023.2.2,MacIntel,59.88023952,61535206a5dfc673e9cb6a3c,65d6bb0e977760de756971f7,65d6bd1f4a9e805cdc72f4b6,0.0198,0.0198,0,145,145,51,1,twofour,,,,,,,,,,,,,,,,,,,,,,,,,,,,,,,,,,,,,,,,,,,,,,,,,,,,,,,,,,,,,,,,,,,,,,,,,,,,,,,,,,,,,,,,,,,,,,,,,,,,,,,,,,,,,,,,,,,,,,,,,,,,,,,,,,,,,,,,,
,,61535206a5dfc673e9cb6a3c,2024-02-21_21h19.50.580,kallum_motion_pilot,2023.2.2,MacIntel,59.88023952,61535206a5dfc673e9cb6a3c,65d6bb0e977760de756971f7,65d6bd1f4a9e805cdc72f4b6,0.0198,0.0199,0,146,146,66,1,twoone,,,,,,,,,,,,,,,,,,,,,,,,,,,,,,,,,,,,,,,,,,,,,,,,,,,,,,,,,,,,,,,,,,,,,,,,,,,,,,,,,,,,,,,,,,,,,,,,,,,,,,,,,,,,,,,,,,,,,,,,,,,,,,,,,,,,,,,,,
,,61535206a5dfc673e9cb6a3c,2024-02-21_21h19.50.580,kallum_motion_pilot,2023.2.2,MacIntel,59.88023952,61535206a5dfc673e9cb6a3c,65d6bb0e977760de756971f7,65d6bd1f4a9e805cdc72f4b6,0.0199,0.0199,0,147,147,119,1,eightseven,,,,,,,,,,,,,,,,,,,,,,,,,,,,,,,,,,,,,,,,,,,,,,,,,,,,,,,,,,,,,,,,,,,,,,,,,,,,,,,,,,,,,,,,,,,,,,,,,,,,,,,,,,,,,,,,,,,,,,,,,,,,,,,,,,,,,,,,,
,,61535206a5dfc673e9cb6a3c,2024-02-21_21h19.50.580,kallum_motion_pilot,2023.2.2,MacIntel,59.88023952,61535206a5dfc673e9cb6a3c,65d6bb0e977760de756971f7,65d6bd1f4a9e805cdc72f4b6,0.0199,0.0199,0,148,148,93,1,seveneight,,,,,,,,,,,,,,,,,,,,,,,,,,,,,,,,,,,,,,,,,,,,,,,,,,,,,,,,,,,,,,,,,,,,,,,,,,,,,,,,,,,,,,,,,,,,,,,,,,,,,,,,,,,,,,,,,,,,,,,,,,,,,,,,,,,,,,,,,
,,61535206a5dfc673e9cb6a3c,2024-02-21_21h19.50.580,kallum_motion_pilot,2023.2.2,MacIntel,59.88023952,61535206a5dfc673e9cb6a3c,65d6bb0e977760de756971f7,65d6bd1f4a9e805cdc72f4b6,0.0199,0.02,0,149,149,141,1,seveneight,,,,,,,,,,,,,,,,,,,,,,,,,,,,,,,,,,,,,,,,,,,,,,,,,,,,,,,,,,,,,,,,,,,,,,,,,,,,,,,,,,,,,,,,,,,,,,,,,,,,,,,,,,,,,,,,,,,,,,,,,,,,,,,,,,,,,,,,,
,,61535206a5dfc673e9cb6a3c,2024-02-21_21h19.50.580,kallum_motion_pilot,2023.2.2,MacIntel,59.88023952,61535206a5dfc673e9cb6a3c,65d6bb0e977760de756971f7,65d6bd1f4a9e805cdc72f4b6,0.02,0.02,0,150,150,10,1,twoone,,,,,,,,,,,,,,,,,,,,,,,,,,,,,,,,,,,,,,,,,,,,,,,,,,,,,,,,,,,,,,,,,,,,,,,,,,,,,,,,,,,,,,,,,,,,,,,,,,,,,,,,,,,,,,,,,,,,,,,,,,,,,,,,,,,,,,,,,
,,61535206a5dfc673e9cb6a3c,2024-02-21_21h19.50.580,kallum_motion_pilot,2023.2.2,MacIntel,59.88023952,61535206a5dfc673e9cb6a3c,65d6bb0e977760de756971f7,65d6bd1f4a9e805cdc72f4b6,0.0201,0.0201,0,151,151,74,1,twoone,,,,,,,,,,,,,,,,,,,,,,,,,,,,,,,,,,,,,,,,,,,,,,,,,,,,,,,,,,,,,,,,,,,,,,,,,,,,,,,,,,,,,,,,,,,,,,,,,,,,,,,,,,,,,,,,,,,,,,,,,,,,,,,,,,,,,,,,,
,,61535206a5dfc673e9cb6a3c,2024-02-21_21h19.50.580,kallum_motion_pilot,2023.2.2,MacIntel,59.88023952,61535206a5dfc673e9cb6a3c,65d6bb0e977760de756971f7,65d6bd1f4a9e805cdc72f4b6,0.0202,0.0202,0,152,152,35,1,twofour,,,,,,,,,,,,,,,,,,,,,,,,,,,,,,,,,,,,,,,,,,,,,,,,,,,,,,,,,,,,,,,,,,,,,,,,,,,,,,,,,,,,,,,,,,,,,,,,,,,,,,,,,,,,,,,,,,,,,,,,,,,,,,,,,,,,,,,,,
,,61535206a5dfc673e9cb6a3c,2024-02-21_21h19.50.580,kallum_motion_pilot,2023.2.2,MacIntel,59.88023952,61535206a5dfc673e9cb6a3c,65d6bb0e977760de756971f7,65d6bd1f4a9e805cdc72f4b6,0.0203,0.0203,0,153,153,2,1,twoone,,,,,,,,,,,,,,,,,,,,,,,,,,,,,,,,,,,,,,,,,,,,,,,,,,,,,,,,,,,,,,,,,,,,,,,,,,,,,,,,,,,,,,,,,,,,,,,,,,,,,,,,,,,,,,,,,,,,,,,,,,,,,,,,,,,,,,,,,
,,61535206a5dfc673e9cb6a3c,2024-02-21_21h19.50.580,kallum_motion_pilot,2023.2.2,MacIntel,59.88023952,61535206a5dfc673e9cb6a3c,65d6bb0e977760de756971f7,65d6bd1f4a9e805cdc72f4b6,0.0203,0.0203,0,154,154,150,1,eightsix,,,,,,,,,,,,,,,,,,,,,,,,,,,,,,,,,,,,,,,,,,,,,,,,,,,,,,,,,,,,,,,,,,,,,,,,,,,,,,,,,,,,,,,,,,,,,,,,,,,,,,,,,,,,,,,,,,,,,,,,,,,,,,,,,,,,,,,,,
,,61535206a5dfc673e9cb6a3c,2024-02-21_21h19.50.580,kallum_motion_pilot,2023.2.2,MacIntel,59.88023952,61535206a5dfc673e9cb6a3c,65d6bb0e977760de756971f7,65d6bd1f4a9e805cdc72f4b6,0.0203,0.0204,0,155,155,5,1,threefour,,,,,,,,,,,,,,,,,,,,,,,,,,,,,,,,,,,,,,,,,,,,,,,,,,,,,,,,,,,,,,,,,,,,,,,,,,,,,,,,,,,,,,,,,,,,,,,,,,,,,,,,,,,,,,,,,,,,,,,,,,,,,,,,,,,,,,,,,
,,61535206a5dfc673e9cb6a3c,2024-02-21_21h19.50.580,kallum_motion_pilot,2023.2.2,MacIntel,59.88023952,61535206a5dfc673e9cb6a3c,65d6bb0e977760de756971f7,65d6bd1f4a9e805cdc72f4b6,0.0204,0.0204,0,156,156,65,1,onethree,,,,,,,,,,,,,,,,,,,,,,,,,,,,,,,,,,,,,,,,,,,,,,,,,,,,,,,,,,,,,,,,,,,,,,,,,,,,,,,,,,,,,,,,,,,,,,,,,,,,,,,,,,,,,,,,,,,,,,,,,,,,,,,,,,,,,,,,,
,,61535206a5dfc673e9cb6a3c,2024-02-21_21h19.50.580,kallum_motion_pilot,2023.2.2,MacIntel,59.88023952,61535206a5dfc673e9cb6a3c,65d6bb0e977760de756971f7,65d6bd1f4a9e805cdc72f4b6,0.0205,0.0205,0,157,157,160,1,fivesix,,,,,,,,,,,,,,,,,,,,,,,,,,,,,,,,,,,,,,,,,,,,,,,,,,,,,,,,,,,,,,,,,,,,,,,,,,,,,,,,,,,,,,,,,,,,,,,,,,,,,,,,,,,,,,,,,,,,,,,,,,,,,,,,,,,,,,,,,
,,61535206a5dfc673e9cb6a3c,2024-02-21_21h19.50.580,kallum_motion_pilot,2023.2.2,MacIntel,59.88023952,61535206a5dfc673e9cb6a3c,65d6bb0e977760de756971f7,65d6bd1f4a9e805cdc72f4b6,0.0205,0.0205,0,158,158,62,1,fourtwo,,,,,,,,,,,,,,,,,,,,,,,,,,,,,,,,,,,,,,,,,,,,,,,,,,,,,,,,,,,,,,,,,,,,,,,,,,,,,,,,,,,,,,,,,,,,,,,,,,,,,,,,,,,,,,,,,,,,,,,,,,,,,,,,,,,,,,,,,
,,61535206a5dfc673e9cb6a3c,2024-02-21_21h19.50.580,kallum_motion_pilot,2023.2.2,MacIntel,59.88023952,61535206a5dfc673e9cb6a3c,65d6bb0e977760de756971f7,65d6bd1f4a9e805cdc72f4b6,0.0206,0.0206,0,159,159,77,1,threefour,,,,,,,,,,,,,,,,,,,,,,,,,,,,,,,,,,,,,,,,,,,,,,,,,,,,,,,,,,,,,,,,,,,,,,,,,,,,,,,,,,,,,,,,,,,,,,,,,,,,,,,,,,,,,,,,,,,,,,,,,,,,,,,,,,,,,,,,,
,,61535206a5dfc673e9cb6a3c,2024-02-21_21h19.50.580,kallum_motion_pilot,2023.2.2,MacIntel,59.88023952,61535206a5dfc673e9cb6a3c,65d6bb0e977760de756971f7,65d6bd1f4a9e805cdc72f4b6,0.0206,0.0206,0,160,160,50,1,twoone,,,,,,,,,,,,,,,,,,,,,,,,,,,,,,,,,,,,,,,,,,,,,,,,,,,,,,,,,,,,,,,,,,,,,,,,,,,,,,,,,,,,,,,,,,,,,,,,,,,,,,,,,,,,,,,,,,,,,,,,,,,,,,,,,,,,,,,,,
,,61535206a5dfc673e9cb6a3c,2024-02-21_21h19.50.580,kallum_motion_pilot,2023.2.2,MacIntel,59.88023952,61535206a5dfc673e9cb6a3c,65d6bb0e977760de756971f7,65d6bd1f4a9e805cdc72f4b6,0.0207,0.0208,0,161,161,137,1,fiveseven,,,,,,,,,,,,,,,,,,,,,,,,,,,,,,,,,,,,,,,,,,,,,,,,,,,,,,,,,,,,,,,,,,,,,,,,,,,,,,,,,,,,,,,,,,,,,,,,,,,,,,,,,,,,,,,,,,,,,,,,,,,,,,,,,,,,,,,,,
,,61535206a5dfc673e9cb6a3c,2024-02-21_21h19.50.580,kallum_motion_pilot,2023.2.2,MacIntel,59.88023952,61535206a5dfc673e9cb6a3c,65d6bb0e977760de756971f7,65d6bd1f4a9e805cdc72f4b6,0.0208,0.0208,1,0,162,37,1,threefour,,,,,,,,,,,,,,,,,,,,,,,,,,,,,,,,,,,,,,,,,,,,,,,,,,,,,,,,,,,,,,,,,,,,,,,,,,,,,,,,,,,,,,,,,,,,,,,,,,,,,,,,,,,,,,,,,,,,,,,,,,,,,,,,,,,,,,,,,
,,61535206a5dfc673e9cb6a3c,2024-02-21_21h19.50.580,kallum_motion_pilot,2023.2.2,MacIntel,59.88023952,61535206a5dfc673e9cb6a3c,65d6bb0e977760de756971f7,65d6bd1f4a9e805cdc72f4b6,0.0208,0.0208,1,1,163,115,1,sixeight,,,,,,,,,,,,,,,,,,,,,,,,,,,,,,,,,,,,,,,,,,,,,,,,,,,,,,,,,,,,,,,,,,,,,,,,,,,,,,,,,,,,,,,,,,,,,,,,,,,,,,,,,,,,,,,,,,,,,,,,,,,,,,,,,,,,,,,,,
,,61535206a5dfc673e9cb6a3c,2024-02-21_21h19.50.580,kallum_motion_pilot,2023.2.2,MacIntel,59.88023952,61535206a5dfc673e9cb6a3c,65d6bb0e977760de756971f7,65d6bd1f4a9e805cdc72f4b6,0.0209,0.021,1,2,164,129,1,fiveseven,,,,,,,,,,,,,,,,,,,,,,,,,,,,,,,,,,,,,,,,,,,,,,,,,,,,,,,,,,,,,,,,,,,,,,,,,,,,,,,,,,,,,,,,,,,,,,,,,,,,,,,,,,,,,,,,,,,,,,,,,,,,,,,,,,,,,,,,,
,,61535206a5dfc673e9cb6a3c,2024-02-21_21h19.50.580,kallum_motion_pilot,2023.2.2,MacIntel,59.88023952,61535206a5dfc673e9cb6a3c,65d6bb0e977760de756971f7,65d6bd1f4a9e805cdc72f4b6,0.021,0.021,1,3,165,100,1,sevenfive,,,,,,,,,,,,,,,,,,,,,,,,,,,,,,,,,,,,,,,,,,,,,,,,,,,,,,,,,,,,,,,,,,,,,,,,,,,,,,,,,,,,,,,,,,,,,,,,,,,,,,,,,,,,,,,,,,,,,,,,,,,,,,,,,,,,,,,,,
,,61535206a5dfc673e9cb6a3c,2024-02-21_21h19.50.580,kallum_motion_pilot,2023.2.2,MacIntel,59.88023952,61535206a5dfc673e9cb6a3c,65d6bb0e977760de756971f7,65d6bd1f4a9e805cdc72f4b6,0.021,0.021,1,4,166,116,1,sevenfive,,,,,,,,,,,,,,,,,,,,,,,,,,,,,,,,,,,,,,,,,,,,,,,,,,,,,,,,,,,,,,,,,,,,,,,,,,,,,,,,,,,,,,,,,,,,,,,,,,,,,,,,,,,,,,,,,,,,,,,,,,,,,,,,,,,,,,,,,
,,61535206a5dfc673e9cb6a3c,2024-02-21_21h19.50.580,kallum_motion_pilot,2023.2.2,MacIntel,59.88023952,61535206a5dfc673e9cb6a3c,65d6bb0e977760de756971f7,65d6bd1f4a9e805cdc72f4b6,0.0211,0.0211,1,5,167,20,1,threeone,,,,,,,,,,,,,,,,,,,,,,,,,,,,,,,,,,,,,,,,,,,,,,,,,,,,,,,,,,,,,,,,,,,,,,,,,,,,,,,,,,,,,,,,,,,,,,,,,,,,,,,,,,,,,,,,,,,,,,,,,,,,,,,,,,,,,,,,,
,,61535206a5dfc673e9cb6a3c,2024-02-21_21h19.50.580,kallum_motion_pilot,2023.2.2,MacIntel,59.88023952,61535206a5dfc673e9cb6a3c,65d6bb0e977760de756971f7,65d6bd1f4a9e805cdc72f4b6,0.0211,0.0211,1,6,168,156,1,sevenfive,,,,,,,,,,,,,,,,,,,,,,,,,,,,,,,,,,,,,,,,,,,,,,,,,,,,,,,,,,,,,,,,,,,,,,,,,,,,,,,,,,,,,,,,,,,,,,,,,,,,,,,,,,,,,,,,,,,,,,,,,,,,,,,,,,,,,,,,,
,,61535206a5dfc673e9cb6a3c,2024-02-21_21h19.50.580,kallum_motion_pilot,2023.2.2,MacIntel,59.88023952,61535206a5dfc673e9cb6a3c,65d6bb0e977760de756971f7,65d6bd1f4a9e805cdc72f4b6,0.0212,0.0212,1,7,169,102,1,eightsix,,,,,,,,,,,,,,,,,,,,,,,,,,,,,,,,,,,,,,,,,,,,,,,,,,,,,,,,,,,,,,,,,,,,,,,,,,,,,,,,,,,,,,,,,,,,,,,,,,,,,,,,,,,,,,,,,,,,,,,,,,,,,,,,,,,,,,,,,
,,61535206a5dfc673e9cb6a3c,2024-02-21_21h19.50.580,kallum_motion_pilot,2023.2.2,MacIntel,59.88023952,61535206a5dfc673e9cb6a3c,65d6bb0e977760de756971f7,65d6bd1f4a9e805cdc72f4b6,0.0212,0.0212,1,8,170,93,1,seveneight,,,,,,,,,,,,,,,,,,,,,,,,,,,,,,,,,,,,,,,,,,,,,,,,,,,,,,,,,,,,,,,,,,,,,,,,,,,,,,,,,,,,,,,,,,,,,,,,,,,,,,,,,,,,,,,,,,,,,,,,,,,,,,,,,,,,,,,,,
,,61535206a5dfc673e9cb6a3c,2024-02-21_21h19.50.580,kallum_motion_pilot,2023.2.2,MacIntel,59.88023952,61535206a5dfc673e9cb6a3c,65d6bb0e977760de756971f7,65d6bd1f4a9e805cdc72f4b6,0.0213,0.0213,1,9,171,161,1,fiveseven,,,,,,,,,,,,,,,,,,,,,,,,,,,,,,,,,,,,,,,,,,,,,,,,,,,,,,,,,,,,,,,,,,,,,,,,,,,,,,,,,,,,,,,,,,,,,,,,,,,,,,,,,,,,,,,,,,,,,,,,,,,,,,,,,,,,,,,,,
,,61535206a5dfc673e9cb6a3c,2024-02-21_21h19.50.580,kallum_motion_pilot,2023.2.2,MacIntel,59.88023952,61535206a5dfc673e9cb6a3c,65d6bb0e977760de756971f7,65d6bd1f4a9e805cdc72f4b6,0.0214,0.0214,1,10,172,74,1,twoone,,,,,,,,,,,,,,,,,,,,,,,,,,,,,,,,,,,,,,,,,,,,,,,,,,,,,,,,,,,,,,,,,,,,,,,,,,,,,,,,,,,,,,,,,,,,,,,,,,,,,,,,,,,,,,,,,,,,,,,,,,,,,,,,,,,,,,,,,
,,61535206a5dfc673e9cb6a3c,2024-02-21_21h19.50.580,kallum_motion_pilot,2023.2.2,MacIntel,59.88023952,61535206a5dfc673e9cb6a3c,65d6bb0e977760de756971f7,65d6bd1f4a9e805cdc72f4b6,0.0214,0.0214,1,11,173,80,1,fivesix,,,,,,,,,,,,,,,,,,,,,,,,,,,,,,,,,,,,,,,,,,,,,,,,,,,,,,,,,,,,,,,,,,,,,,,,,,,,,,,,,,,,,,,,,,,,,,,,,,,,,,,,,,,,,,,,,,,,,,,,,,,,,,,,,,,,,,,,,
,,61535206a5dfc673e9cb6a3c,2024-02-21_21h19.50.580,kallum_motion_pilot,2023.2.2,MacIntel,59.88023952,61535206a5dfc673e9cb6a3c,65d6bb0e977760de756971f7,65d6bd1f4a9e805cdc72f4b6,0.0215,0.0215,1,12,174,91,1,sixeight,,,,,,,,,,,,,,,,,,,,,,,,,,,,,,,,,,,,,,,,,,,,,,,,,,,,,,,,,,,,,,,,,,,,,,,,,,,,,,,,,,,,,,,,,,,,,,,,,,,,,,,,,,,,,,,,,,,,,,,,,,,,,,,,,,,,,,,,,
,,61535206a5dfc673e9cb6a3c,2024-02-21_21h19.50.580,kallum_motion_pilot,2023.2.2,MacIntel,59.88023952,61535206a5dfc673e9cb6a3c,65d6bb0e977760de756971f7,65d6bd1f4a9e805cdc72f4b6,0.0216,0.0216,1,13,175,147,1,sixeight,,,,,,,,,,,,,,,,,,,,,,,,,,,,,,,,,,,,,,,,,,,,,,,,,,,,,,,,,,,,,,,,,,,,,,,,,,,,,,,,,,,,,,,,,,,,,,,,,,,,,,,,,,,,,,,,,,,,,,,,,,,,,,,,,,,,,,,,,
,,61535206a5dfc673e9cb6a3c,2024-02-21_21h19.50.580,kallum_motion_pilot,2023.2.2,MacIntel,59.88023952,61535206a5dfc673e9cb6a3c,65d6bb0e977760de756971f7,65d6bd1f4a9e805cdc72f4b6,0.0216,0.0216,1,14,176,135,1,eightseven,,,,,,,,,,,,,,,,,,,,,,,,,,,,,,,,,,,,,,,,,,,,,,,,,,,,,,,,,,,,,,,,,,,,,,,,,,,,,,,,,,,,,,,,,,,,,,,,,,,,,,,,,,,,,,,,,,,,,,,,,,,,,,,,,,,,,,,,,
,,61535206a5dfc673e9cb6a3c,2024-02-21_21h19.50.580,kallum_motion_pilot,2023.2.2,MacIntel,59.88023952,61535206a5dfc673e9cb6a3c,65d6bb0e977760de756971f7,65d6bd1f4a9e805cdc72f4b6,0.0216,0.0216,1,15,177,108,1,sevenfive,,,,,,,,,,,,,,,,,,,,,,,,,,,,,,,,,,,,,,,,,,,,,,,,,,,,,,,,,,,,,,,,,,,,,,,,,,,,,,,,,,,,,,,,,,,,,,,,,,,,,,,,,,,,,,,,,,,,,,,,,,,,,,,,,,,,,,,,,
,,61535206a5dfc673e9cb6a3c,2024-02-21_21h19.50.580,kallum_motion_pilot,2023.2.2,MacIntel,59.88023952,61535206a5dfc673e9cb6a3c,65d6bb0e977760de756971f7,65d6bd1f4a9e805cdc72f4b6,0.0218,0.0218,1,16,178,131,1,sixeight,,,,,,,,,,,,,,,,,,,,,,,,,,,,,,,,,,,,,,,,,,,,,,,,,,,,,,,,,,,,,,,,,,,,,,,,,,,,,,,,,,,,,,,,,,,,,,,,,,,,,,,,,,,,,,,,,,,,,,,,,,,,,,,,,,,,,,,,,
,,61535206a5dfc673e9cb6a3c,2024-02-21_21h19.50.580,kallum_motion_pilot,2023.2.2,MacIntel,59.88023952,61535206a5dfc673e9cb6a3c,65d6bb0e977760de756971f7,65d6bd1f4a9e805cdc72f4b6,0.0218,0.0218,1,17,179,50,1,twoone,,,,,,,,,,,,,,,,,,,,,,,,,,,,,,,,,,,,,,,,,,,,,,,,,,,,,,,,,,,,,,,,,,,,,,,,,,,,,,,,,,,,,,,,,,,,,,,,,,,,,,,,,,,,,,,,,,,,,,,,,,,,,,,,,,,,,,,,,
,,61535206a5dfc673e9cb6a3c,2024-02-21_21h19.50.580,kallum_motion_pilot,2023.2.2,MacIntel,59.88023952,61535206a5dfc673e9cb6a3c,65d6bb0e977760de756971f7,65d6bd1f4a9e805cdc72f4b6,0.0219,0.0219,1,18,180,30,1,fourtwo,,,,,,,,,,,,,,,,,,,,,,,,,,,,,,,,,,,,,,,,,,,,,,,,,,,,,,,,,,,,,,,,,,,,,,,,,,,,,,,,,,,,,,,,,,,,,,,,,,,,,,,,,,,,,,,,,,,,,,,,,,,,,,,,,,,,,,,,,
,,61535206a5dfc673e9cb6a3c,2024-02-21_21h19.50.580,kallum_motion_pilot,2023.2.2,MacIntel,59.88023952,61535206a5dfc673e9cb6a3c,65d6bb0e977760de756971f7,65d6bd1f4a9e805cdc72f4b6,0.0219,0.0219,1,19,181,94,1,eightsix,,,,,,,,,,,,,,,,,,,,,,,,,,,,,,,,,,,,,,,,,,,,,,,,,,,,,,,,,,,,,,,,,,,,,,,,,,,,,,,,,,,,,,,,,,,,,,,,,,,,,,,,,,,,,,,,,,,,,,,,,,,,,,,,,,,,,,,,,
,,61535206a5dfc673e9cb6a3c,2024-02-21_21h19.50.580,kallum_motion_pilot,2023.2.2,MacIntel,59.88023952,61535206a5dfc673e9cb6a3c,65d6bb0e977760de756971f7,65d6bd1f4a9e805cdc72f4b6,0.022,0.022,1,20,182,137,1,fiveseven,,,,,,,,,,,,,,,,,,,,,,,,,,,,,,,,,,,,,,,,,,,,,,,,,,,,,,,,,,,,,,,,,,,,,,,,,,,,,,,,,,,,,,,,,,,,,,,,,,,,,,,,,,,,,,,,,,,,,,,,,,,,,,,,,,,,,,,,,
,,61535206a5dfc673e9cb6a3c,2024-02-21_21h19.50.580,kallum_motion_pilot,2023.2.2,MacIntel,59.88023952,61535206a5dfc673e9cb6a3c,65d6bb0e977760de756971f7,65d6bd1f4a9e805cdc72f4b6,0.022,0.022,1,21,183,73,1,onethree,,,,,,,,,,,,,,,,,,,,,,,,,,,,,,,,,,,,,,,,,,,,,,,,,,,,,,,,,,,,,,,,,,,,,,,,,,,,,,,,,,,,,,,,,,,,,,,,,,,,,,,,,,,,,,,,,,,,,,,,,,,,,,,,,,,,,,,,,
,,61535206a5dfc673e9cb6a3c,2024-02-21_21h19.50.580,kallum_motion_pilot,2023.2.2,MacIntel,59.88023952,61535206a5dfc673e9cb6a3c,65d6bb0e977760de756971f7,65d6bd1f4a9e805cdc72f4b6,0.0221,0.0221,1,22,184,90,1,sixfive,,,,,,,,,,,,,,,,,,,,,,,,,,,,,,,,,,,,,,,,,,,,,,,,,,,,,,,,,,,,,,,,,,,,,,,,,,,,,,,,,,,,,,,,,,,,,,,,,,,,,,,,,,,,,,,,,,,,,,,,,,,,,,,,,,,,,,,,,
,,61535206a5dfc673e9cb6a3c,2024-02-21_21h19.50.580,kallum_motion_pilot,2023.2.2,MacIntel,59.88023952,61535206a5dfc673e9cb6a3c,65d6bb0e977760de756971f7,65d6bd1f4a9e805cdc72f4b6,0.0221,0.0222,1,23,185,72,1,onetwo,,,,,,,,,,,,,,,,,,,,,,,,,,,,,,,,,,,,,,,,,,,,,,,,,,,,,,,,,,,,,,,,,,,,,,,,,,,,,,,,,,,,,,,,,,,,,,,,,,,,,,,,,,,,,,,,,,,,,,,,,,,,,,,,,,,,,,,,,
,,61535206a5dfc673e9cb6a3c,2024-02-21_21h19.50.580,kallum_motion_pilot,2023.2.2,MacIntel,59.88023952,61535206a5dfc673e9cb6a3c,65d6bb0e977760de756971f7,65d6bd1f4a9e805cdc72f4b6,0.0222,0.0222,1,24,186,38,1,fourtwo,,,,,,,,,,,,,,,,,,,,,,,,,,,,,,,,,,,,,,,,,,,,,,,,,,,,,,,,,,,,,,,,,,,,,,,,,,,,,,,,,,,,,,,,,,,,,,,,,,,,,,,,,,,,,,,,,,,,,,,,,,,,,,,,,,,,,,,,,
,,61535206a5dfc673e9cb6a3c,2024-02-21_21h19.50.580,kallum_motion_pilot,2023.2.2,MacIntel,59.88023952,61535206a5dfc673e9cb6a3c,65d6bb0e977760de756971f7,65d6bd1f4a9e805cdc72f4b6,0.0222,0.0222,1,25,187,15,1,fourthree,,,,,,,,,,,,,,,,,,,,,,,,,,,,,,,,,,,,,,,,,,,,,,,,,,,,,,,,,,,,,,,,,,,,,,,,,,,,,,,,,,,,,,,,,,,,,,,,,,,,,,,,,,,,,,,,,,,,,,,,,,,,,,,,,,,,,,,,,
,,61535206a5dfc673e9cb6a3c,2024-02-21_21h19.50.580,kallum_motion_pilot,2023.2.2,MacIntel,59.88023952,61535206a5dfc673e9cb6a3c,65d6bb0e977760de756971f7,65d6bd1f4a9e805cdc72f4b6,0.0222,0.0223,1,26,188,145,1,fiveseven,,,,,,,,,,,,,,,,,,,,,,,,,,,,,,,,,,,,,,,,,,,,,,,,,,,,,,,,,,,,,,,,,,,,,,,,,,,,,,,,,,,,,,,,,,,,,,,,,,,,,,,,,,,,,,,,,,,,,,,,,,,,,,,,,,,,,,,,,
,,61535206a5dfc673e9cb6a3c,2024-02-21_21h19.50.580,kallum_motion_pilot,2023.2.2,MacIntel,59.88023952,61535206a5dfc673e9cb6a3c,65d6bb0e977760de756971f7,65d6bd1f4a9e805cdc72f4b6,0.0224,0.0224,1,27,189,88,1,fivesix,,,,,,,,,,,,,,,,,,,,,,,,,,,,,,,,,,,,,,,,,,,,,,,,,,,,,,,,,,,,,,,,,,,,,,,,,,,,,,,,,,,,,,,,,,,,,,,,,,,,,,,,,,,,,,,,,,,,,,,,,,,,,,,,,,,,,,,,,
,,61535206a5dfc673e9cb6a3c,2024-02-21_21h19.50.580,kallum_motion_pilot,2023.2.2,MacIntel,59.88023952,61535206a5dfc673e9cb6a3c,65d6bb0e977760de756971f7,65d6bd1f4a9e805cdc72f4b6,0.0224,0.0225,1,28,190,141,1,seveneight,,,,,,,,,,,,,,,,,,,,,,,,,,,,,,,,,,,,,,,,,,,,,,,,,,,,,,,,,,,,,,,,,,,,,,,,,,,,,,,,,,,,,,,,,,,,,,,,,,,,,,,,,,,,,,,,,,,,,,,,,,,,,,,,,,,,,,,,,
,,61535206a5dfc673e9cb6a3c,2024-02-21_21h19.50.580,kallum_motion_pilot,2023.2.2,MacIntel,59.88023952,61535206a5dfc673e9cb6a3c,65d6bb0e977760de756971f7,65d6bd1f4a9e805cdc72f4b6,0.0225,0.0225,1,29,191,53,1,threefour,,,,,,,,,,,,,,,,,,,,,,,,,,,,,,,,,,,,,,,,,,,,,,,,,,,,,,,,,,,,,,,,,,,,,,,,,,,,,,,,,,,,,,,,,,,,,,,,,,,,,,,,,,,,,,,,,,,,,,,,,,,,,,,,,,,,,,,,,
,,61535206a5dfc673e9cb6a3c,2024-02-21_21h19.50.580,kallum_motion_pilot,2023.2.2,MacIntel,59.88023952,61535206a5dfc673e9cb6a3c,65d6bb0e977760de756971f7,65d6bd1f4a9e805cdc72f4b6,0.0226,0.0226,1,30,192,34,1,twoone,,,,,,,,,,,,,,,,,,,,,,,,,,,,,,,,,,,,,,,,,,,,,,,,,,,,,,,,,,,,,,,,,,,,,,,,,,,,,,,,,,,,,,,,,,,,,,,,,,,,,,,,,,,,,,,,,,,,,,,,,,,,,,,,,,,,,,,,,
,,61535206a5dfc673e9cb6a3c,2024-02-21_21h19.50.580,kallum_motion_pilot,2023.2.2,MacIntel,59.88023952,61535206a5dfc673e9cb6a3c,65d6bb0e977760de756971f7,65d6bd1f4a9e805cdc72f4b6,0.0226,0.0226,1,31,193,13,1,threefour,,,,,,,,,,,,,,,,,,,,,,,,,,,,,,,,,,,,,,,,,,,,,,,,,,,,,,,,,,,,,,,,,,,,,,,,,,,,,,,,,,,,,,,,,,,,,,,,,,,,,,,,,,,,,,,,,,,,,,,,,,,,,,,,,,,,,,,,,
,,61535206a5dfc673e9cb6a3c,2024-02-21_21h19.50.580,kallum_motion_pilot,2023.2.2,MacIntel,59.88023952,61535206a5dfc673e9cb6a3c,65d6bb0e977760de756971f7,65d6bd1f4a9e805cdc72f4b6,0.0226,0.0227,1,32,194,136,1,fivesix,,,,,,,,,,,,,,,,,,,,,,,,,,,,,,,,,,,,,,,,,,,,,,,,,,,,,,,,,,,,,,,,,,,,,,,,,,,,,,,,,,,,,,,,,,,,,,,,,,,,,,,,,,,,,,,,,,,,,,,,,,,,,,,,,,,,,,,,,
,,61535206a5dfc673e9cb6a3c,2024-02-21_21h19.50.580,kallum_motion_pilot,2023.2.2,MacIntel,59.88023952,61535206a5dfc673e9cb6a3c,65d6bb0e977760de756971f7,65d6bd1f4a9e805cdc72f4b6,0.0227,0.0227,1,33,195,21,1,threefour,,,,,,,,,,,,,,,,,,,,,,,,,,,,,,,,,,,,,,,,,,,,,,,,,,,,,,,,,,,,,,,,,,,,,,,,,,,,,,,,,,,,,,,,,,,,,,,,,,,,,,,,,,,,,,,,,,,,,,,,,,,,,,,,,,,,,,,,,
,,61535206a5dfc673e9cb6a3c,2024-02-21_21h19.50.580,kallum_motion_pilot,2023.2.2,MacIntel,59.88023952,61535206a5dfc673e9cb6a3c,65d6bb0e977760de756971f7,65d6bd1f4a9e805cdc72f4b6,0.0228,0.0228,1,34,196,152,1,fivesix,,,,,,,,,,,,,,,,,,,,,,,,,,,,,,,,,,,,,,,,,,,,,,,,,,,,,,,,,,,,,,,,,,,,,,,,,,,,,,,,,,,,,,,,,,,,,,,,,,,,,,,,,,,,,,,,,,,,,,,,,,,,,,,,,,,,,,,,,
,,61535206a5dfc673e9cb6a3c,2024-02-21_21h19.50.580,kallum_motion_pilot,2023.2.2,MacIntel,59.88023952,61535206a5dfc673e9cb6a3c,65d6bb0e977760de756971f7,65d6bd1f4a9e805cdc72f4b6,0.0228,0.0229,1,35,197,60,1,threeone,,,,,,,,,,,,,,,,,,,,,,,,,,,,,,,,,,,,,,,,,,,,,,,,,,,,,,,,,,,,,,,,,,,,,,,,,,,,,,,,,,,,,,,,,,,,,,,,,,,,,,,,,,,,,,,,,,,,,,,,,,,,,,,,,,,,,,,,,
,,61535206a5dfc673e9cb6a3c,2024-02-21_21h19.50.580,kallum_motion_pilot,2023.2.2,MacIntel,59.88023952,61535206a5dfc673e9cb6a3c,65d6bb0e977760de756971f7,65d6bd1f4a9e805cdc72f4b6,0.0229,0.0229,1,36,198,132,1,sevenfive,,,,,,,,,,,,,,,,,,,,,,,,,,,,,,,,,,,,,,,,,,,,,,,,,,,,,,,,,,,,,,,,,,,,,,,,,,,,,,,,,,,,,,,,,,,,,,,,,,,,,,,,,,,,,,,,,,,,,,,,,,,,,,,,,,,,,,,,,
,,61535206a5dfc673e9cb6a3c,2024-02-21_21h19.50.580,kallum_motion_pilot,2023.2.2,MacIntel,59.88023952,61535206a5dfc673e9cb6a3c,65d6bb0e977760de756971f7,65d6bd1f4a9e805cdc72f4b6,0.023,0.023,1,37,199,67,1,twofour,,,,,,,,,,,,,,,,,,,,,,,,,,,,,,,,,,,,,,,,,,,,,,,,,,,,,,,,,,,,,,,,,,,,,,,,,,,,,,,,,,,,,,,,,,,,,,,,,,,,,,,,,,,,,,,,,,,,,,,,,,,,,,,,,,,,,,,,,
,,61535206a5dfc673e9cb6a3c,2024-02-21_21h19.50.580,kallum_motion_pilot,2023.2.2,MacIntel,59.88023952,61535206a5dfc673e9cb6a3c,65d6bb0e977760de756971f7,65d6bd1f4a9e805cdc72f4b6,0.0231,0.0231,1,38,200,58,1,twoone,,,,,,,,,,,,,,,,,,,,,,,,,,,,,,,,,,,,,,,,,,,,,,,,,,,,,,,,,,,,,,,,,,,,,,,,,,,,,,,,,,,,,,,,,,,,,,,,,,,,,,,,,,,,,,,,,,,,,,,,,,,,,,,,,,,,,,,,,
,,61535206a5dfc673e9cb6a3c,2024-02-21_21h19.50.580,kallum_motion_pilot,2023.2.2,MacIntel,59.88023952,61535206a5dfc673e9cb6a3c,65d6bb0e977760de756971f7,65d6bd1f4a9e805cdc72f4b6,0.0231,0.0232,1,39,201,95,1,eightseven,,,,,,,,,,,,,,,,,,,,,,,,,,,,,,,,,,,,,,,,,,,,,,,,,,,,,,,,,,,,,,,,,,,,,,,,,,,,,,,,,,,,,,,,,,,,,,,,,,,,,,,,,,,,,,,,,,,,,,,,,,,,,,,,,,,,,,,,,
,,61535206a5dfc673e9cb6a3c,2024-02-21_21h19.50.580,kallum_motion_pilot,2023.2.2,MacIntel,59.88023952,61535206a5dfc673e9cb6a3c,65d6bb0e977760de756971f7,65d6bd1f4a9e805cdc72f4b6,0.0232,0.0232,1,40,202,29,1,threefour,,,,,,,,,,,,,,,,,,,,,,,,,,,,,,,,,,,,,,,,,,,,,,,,,,,,,,,,,,,,,,,,,,,,,,,,,,,,,,,,,,,,,,,,,,,,,,,,,,,,,,,,,,,,,,,,,,,,,,,,,,,,,,,,,,,,,,,,,
,,61535206a5dfc673e9cb6a3c,2024-02-21_21h19.50.580,kallum_motion_pilot,2023.2.2,MacIntel,59.88023952,61535206a5dfc673e9cb6a3c,65d6bb0e977760de756971f7,65d6bd1f4a9e805cdc72f4b6,0.0233,0.0233,1,41,203,151,1,eightseven,,,,,,,,,,,,,,,,,,,,,,,,,,,,,,,,,,,,,,,,,,,,,,,,,,,,,,,,,,,,,,,,,,,,,,,,,,,,,,,,,,,,,,,,,,,,,,,,,,,,,,,,,,,,,,,,,,,,,,,,,,,,,,,,,,,,,,,,,
,,61535206a5dfc673e9cb6a3c,2024-02-21_21h19.50.580,kallum_motion_pilot,2023.2.2,MacIntel,59.88023952,61535206a5dfc673e9cb6a3c,65d6bb0e977760de756971f7,65d6bd1f4a9e805cdc72f4b6,0.0233,0.0234,1,42,204,111,1,eightseven,,,,,,,,,,,,,,,,,,,,,,,,,,,,,,,,,,,,,,,,,,,,,,,,,,,,,,,,,,,,,,,,,,,,,,,,,,,,,,,,,,,,,,,,,,,,,,,,,,,,,,,,,,,,,,,,,,,,,,,,,,,,,,,,,,,,,,,,,
,,61535206a5dfc673e9cb6a3c,2024-02-21_21h19.50.580,kallum_motion_pilot,2023.2.2,MacIntel,59.88023952,61535206a5dfc673e9cb6a3c,65d6bb0e977760de756971f7,65d6bd1f4a9e805cdc72f4b6,0.0234,0.0234,1,43,205,68,1,threeone,,,,,,,,,,,,,,,,,,,,,,,,,,,,,,,,,,,,,,,,,,,,,,,,,,,,,,,,,,,,,,,,,,,,,,,,,,,,,,,,,,,,,,,,,,,,,,,,,,,,,,,,,,,,,,,,,,,,,,,,,,,,,,,,,,,,,,,,,
,,61535206a5dfc673e9cb6a3c,2024-02-21_21h19.50.580,kallum_motion_pilot,2023.2.2,MacIntel,59.88023952,61535206a5dfc673e9cb6a3c,65d6bb0e977760de756971f7,65d6bd1f4a9e805cdc72f4b6,0.0234,0.0234,1,44,206,81,1,fiveseven,,,,,,,,,,,,,,,,,,,,,,,,,,,,,,,,,,,,,,,,,,,,,,,,,,,,,,,,,,,,,,,,,,,,,,,,,,,,,,,,,,,,,,,,,,,,,,,,,,,,,,,,,,,,,,,,,,,,,,,,,,,,,,,,,,,,,,,,,
,,61535206a5dfc673e9cb6a3c,2024-02-21_21h19.50.580,kallum_motion_pilot,2023.2.2,MacIntel,59.88023952,61535206a5dfc673e9cb6a3c,65d6bb0e977760de756971f7,65d6bd1f4a9e805cdc72f4b6,0.0234,0.0235,1,45,207,11,1,twofour,,,,,,,,,,,,,,,,,,,,,,,,,,,,,,,,,,,,,,,,,,,,,,,,,,,,,,,,,,,,,,,,,,,,,,,,,,,,,,,,,,,,,,,,,,,,,,,,,,,,,,,,,,,,,,,,,,,,,,,,,,,,,,,,,,,,,,,,,
,,61535206a5dfc673e9cb6a3c,2024-02-21_21h19.50.580,kallum_motion_pilot,2023.2.2,MacIntel,59.88023952,61535206a5dfc673e9cb6a3c,65d6bb0e977760de756971f7,65d6bd1f4a9e805cdc72f4b6,0.0235,0.0235,1,46,208,32,1,onetwo,,,,,,,,,,,,,,,,,,,,,,,,,,,,,,,,,,,,,,,,,,,,,,,,,,,,,,,,,,,,,,,,,,,,,,,,,,,,,,,,,,,,,,,,,,,,,,,,,,,,,,,,,,,,,,,,,,,,,,,,,,,,,,,,,,,,,,,,,
,,61535206a5dfc673e9cb6a3c,2024-02-21_21h19.50.580,kallum_motion_pilot,2023.2.2,MacIntel,59.88023952,61535206a5dfc673e9cb6a3c,65d6bb0e977760de756971f7,65d6bd1f4a9e805cdc72f4b6,0.0236,0.0236,1,47,209,157,1,seveneight,,,,,,,,,,,,,,,,,,,,,,,,,,,,,,,,,,,,,,,,,,,,,,,,,,,,,,,,,,,,,,,,,,,,,,,,,,,,,,,,,,,,,,,,,,,,,,,,,,,,,,,,,,,,,,,,,,,,,,,,,,,,,,,,,,,,,,,,,
,,61535206a5dfc673e9cb6a3c,2024-02-21_21h19.50.580,kallum_motion_pilot,2023.2.2,MacIntel,59.88023952,61535206a5dfc673e9cb6a3c,65d6bb0e977760de756971f7,65d6bd1f4a9e805cdc72f4b6,0.0237,0.0237,1,48,210,123,1,sixeight,,,,,,,,,,,,,,,,,,,,,,,,,,,,,,,,,,,,,,,,,,,,,,,,,,,,,,,,,,,,,,,,,,,,,,,,,,,,,,,,,,,,,,,,,,,,,,,,,,,,,,,,,,,,,,,,,,,,,,,,,,,,,,,,,,,,,,,,,
,,61535206a5dfc673e9cb6a3c,2024-02-21_21h19.50.580,kallum_motion_pilot,2023.2.2,MacIntel,59.88023952,61535206a5dfc673e9cb6a3c,65d6bb0e977760de756971f7,65d6bd1f4a9e805cdc72f4b6,0.0237,0.0237,1,49,211,77,1,threefour,,,,,,,,,,,,,,,,,,,,,,,,,,,,,,,,,,,,,,,,,,,,,,,,,,,,,,,,,,,,,,,,,,,,,,,,,,,,,,,,,,,,,,,,,,,,,,,,,,,,,,,,,,,,,,,,,,,,,,,,,,,,,,,,,,,,,,,,,
,,61535206a5dfc673e9cb6a3c,2024-02-21_21h19.50.580,kallum_motion_pilot,2023.2.2,MacIntel,59.88023952,61535206a5dfc673e9cb6a3c,65d6bb0e977760de756971f7,65d6bd1f4a9e805cdc72f4b6,0.0237,0.0238,1,50,212,26,1,twoone,,,,,,,,,,,,,,,,,,,,,,,,,,,,,,,,,,,,,,,,,,,,,,,,,,,,,,,,,,,,,,,,,,,,,,,,,,,,,,,,,,,,,,,,,,,,,,,,,,,,,,,,,,,,,,,,,,,,,,,,,,,,,,,,,,,,,,,,,
,,61535206a5dfc673e9cb6a3c,2024-02-21_21h19.50.580,kallum_motion_pilot,2023.2.2,MacIntel,59.88023952,61535206a5dfc673e9cb6a3c,65d6bb0e977760de756971f7,65d6bd1f4a9e805cdc72f4b6,0.0239,0.0239,1,51,213,106,1,sixfive,,,,,,,,,,,,,,,,,,,,,,,,,,,,,,,,,,,,,,,,,,,,,,,,,,,,,,,,,,,,,,,,,,,,,,,,,,,,,,,,,,,,,,,,,,,,,,,,,,,,,,,,,,,,,,,,,,,,,,,,,,,,,,,,,,,,,,,,,
,,61535206a5dfc673e9cb6a3c,2024-02-21_21h19.50.580,kallum_motion_pilot,2023.2.2,MacIntel,59.88023952,61535206a5dfc673e9cb6a3c,65d6bb0e977760de756971f7,65d6bd1f4a9e805cdc72f4b6,0.0239,0.0239,1,52,214,125,1,seveneight,,,,,,,,,,,,,,,,,,,,,,,,,,,,,,,,,,,,,,,,,,,,,,,,,,,,,,,,,,,,,,,,,,,,,,,,,,,,,,,,,,,,,,,,,,,,,,,,,,,,,,,,,,,,,,,,,,,,,,,,,,,,,,,,,,,,,,,,,
,,61535206a5dfc673e9cb6a3c,2024-02-21_21h19.50.580,kallum_motion_pilot,2023.2.2,MacIntel,59.88023952,61535206a5dfc673e9cb6a3c,65d6bb0e977760de756971f7,65d6bd1f4a9e805cdc72f4b6,0.024,0.024,1,53,215,25,1,onethree,,,,,,,,,,,,,,,,,,,,,,,,,,,,,,,,,,,,,,,,,,,,,,,,,,,,,,,,,,,,,,,,,,,,,,,,,,,,,,,,,,,,,,,,,,,,,,,,,,,,,,,,,,,,,,,,,,,,,,,,,,,,,,,,,,,,,,,,,
,,61535206a5dfc673e9cb6a3c,2024-02-21_21h19.50.580,kallum_motion_pilot,2023.2.2,MacIntel,59.88023952,61535206a5dfc673e9cb6a3c,65d6bb0e977760de756971f7,65d6bd1f4a9e805cdc72f4b6,0.0241,0.0241,1,54,216,87,1,eightseven,,,,,,,,,,,,,,,,,,,,,,,,,,,,,,,,,,,,,,,,,,,,,,,,,,,,,,,,,,,,,,,,,,,,,,,,,,,,,,,,,,,,,,,,,,,,,,,,,,,,,,,,,,,,,,,,,,,,,,,,,,,,,,,,,,,,,,,,,
,,61535206a5dfc673e9cb6a3c,2024-02-21_21h19.50.580,kallum_motion_pilot,2023.2.2,MacIntel,59.88023952,61535206a5dfc673e9cb6a3c,65d6bb0e977760de756971f7,65d6bd1f4a9e805cdc72f4b6,0.0241,0.0241,1,55,217,51,1,twofour,,,,,,,,,,,,,,,,,,,,,,,,,,,,,,,,,,,,,,,,,,,,,,,,,,,,,,,,,,,,,,,,,,,,,,,,,,,,,,,,,,,,,,,,,,,,,,,,,,,,,,,,,,,,,,,,,,,,,,,,,,,,,,,,,,,,,,,,,
,,61535206a5dfc673e9cb6a3c,2024-02-21_21h19.50.580,kallum_motion_pilot,2023.2.2,MacIntel,59.88023952,61535206a5dfc673e9cb6a3c,65d6bb0e977760de756971f7,65d6bd1f4a9e805cdc72f4b6,0.0242,0.0242,1,56,218,118,1,eightsix,,,,,,,,,,,,,,,,,,,,,,,,,,,,,,,,,,,,,,,,,,,,,,,,,,,,,,,,,,,,,,,,,,,,,,,,,,,,,,,,,,,,,,,,,,,,,,,,,,,,,,,,,,,,,,,,,,,,,,,,,,,,,,,,,,,,,,,,,
,,61535206a5dfc673e9cb6a3c,2024-02-21_21h19.50.580,kallum_motion_pilot,2023.2.2,MacIntel,59.88023952,61535206a5dfc673e9cb6a3c,65d6bb0e977760de756971f7,65d6bd1f4a9e805cdc72f4b6,0.0242,0.0242,1,57,219,89,1,fiveseven,,,,,,,,,,,,,,,,,,,,,,,,,,,,,,,,,,,,,,,,,,,,,,,,,,,,,,,,,,,,,,,,,,,,,,,,,,,,,,,,,,,,,,,,,,,,,,,,,,,,,,,,,,,,,,,,,,,,,,,,,,,,,,,,,,,,,,,,,
,,61535206a5dfc673e9cb6a3c,2024-02-21_21h19.50.580,kallum_motion_pilot,2023.2.2,MacIntel,59.88023952,61535206a5dfc673e9cb6a3c,65d6bb0e977760de756971f7,65d6bd1f4a9e805cdc72f4b6,0.0242,0.0242,1,58,220,79,1,eightseven,,,,,,,,,,,,,,,,,,,,,,,,,,,,,,,,,,,,,,,,,,,,,,,,,,,,,,,,,,,,,,,,,,,,,,,,,,,,,,,,,,,,,,,,,,,,,,,,,,,,,,,,,,,,,,,,,,,,,,,,,,,,,,,,,,,,,,,,,
,,61535206a5dfc673e9cb6a3c,2024-02-21_21h19.50.580,kallum_motion_pilot,2023.2.2,MacIntel,59.88023952,61535206a5dfc673e9cb6a3c,65d6bb0e977760de756971f7,65d6bd1f4a9e805cdc72f4b6,0.0243,0.0244,1,59,221,138,1,sixfive,,,,,,,,,,,,,,,,,,,,,,,,,,,,,,,,,,,,,,,,,,,,,,,,,,,,,,,,,,,,,,,,,,,,,,,,,,,,,,,,,,,,,,,,,,,,,,,,,,,,,,,,,,,,,,,,,,,,,,,,,,,,,,,,,,,,,,,,,
,,61535206a5dfc673e9cb6a3c,2024-02-21_21h19.50.580,kallum_motion_pilot,2023.2.2,MacIntel,59.88023952,61535206a5dfc673e9cb6a3c,65d6bb0e977760de756971f7,65d6bd1f4a9e805cdc72f4b6,0.0244,0.0245,1,60,222,146,1,sixfive,,,,,,,,,,,,,,,,,,,,,,,,,,,,,,,,,,,,,,,,,,,,,,,,,,,,,,,,,,,,,,,,,,,,,,,,,,,,,,,,,,,,,,,,,,,,,,,,,,,,,,,,,,,,,,,,,,,,,,,,,,,,,,,,,,,,,,,,,
,,61535206a5dfc673e9cb6a3c,2024-02-21_21h19.50.580,kallum_motion_pilot,2023.2.2,MacIntel,59.88023952,61535206a5dfc673e9cb6a3c,65d6bb0e977760de756971f7,65d6bd1f4a9e805cdc72f4b6,0.0245,0.0245,1,61,223,128,1,fivesix,,,,,,,,,,,,,,,,,,,,,,,,,,,,,,,,,,,,,,,,,,,,,,,,,,,,,,,,,,,,,,,,,,,,,,,,,,,,,,,,,,,,,,,,,,,,,,,,,,,,,,,,,,,,,,,,,,,,,,,,,,,,,,,,,,,,,,,,,
,,61535206a5dfc673e9cb6a3c,2024-02-21_21h19.50.580,kallum_motion_pilot,2023.2.2,MacIntel,59.88023952,61535206a5dfc673e9cb6a3c,65d6bb0e977760de756971f7,65d6bd1f4a9e805cdc72f4b6,0.0245,0.0245,1,62,224,84,1,sevenfive,,,,,,,,,,,,,,,,,,,,,,,,,,,,,,,,,,,,,,,,,,,,,,,,,,,,,,,,,,,,,,,,,,,,,,,,,,,,,,,,,,,,,,,,,,,,,,,,,,,,,,,,,,,,,,,,,,,,,,,,,,,,,,,,,,,,,,,,,
,,61535206a5dfc673e9cb6a3c,2024-02-21_21h19.50.580,kallum_motion_pilot,2023.2.2,MacIntel,59.88023952,61535206a5dfc673e9cb6a3c,65d6bb0e977760de756971f7,65d6bd1f4a9e805cdc72f4b6,0.0245,0.0246,1,63,225,130,1,sixfive,,,,,,,,,,,,,,,,,,,,,,,,,,,,,,,,,,,,,,,,,,,,,,,,,,,,,,,,,,,,,,,,,,,,,,,,,,,,,,,,,,,,,,,,,,,,,,,,,,,,,,,,,,,,,,,,,,,,,,,,,,,,,,,,,,,,,,,,,
,,61535206a5dfc673e9cb6a3c,2024-02-21_21h19.50.580,kallum_motion_pilot,2023.2.2,MacIntel,59.88023952,61535206a5dfc673e9cb6a3c,65d6bb0e977760de756971f7,65d6bd1f4a9e805cdc72f4b6,0.0246,0.0247,1,64,226,55,1,fourthree,,,,,,,,,,,,,,,,,,,,,,,,,,,,,,,,,,,,,,,,,,,,,,,,,,,,,,,,,,,,,,,,,,,,,,,,,,,,,,,,,,,,,,,,,,,,,,,,,,,,,,,,,,,,,,,,,,,,,,,,,,,,,,,,,,,,,,,,,
,,61535206a5dfc673e9cb6a3c,2024-02-21_21h19.50.580,kallum_motion_pilot,2023.2.2,MacIntel,59.88023952,61535206a5dfc673e9cb6a3c,65d6bb0e977760de756971f7,65d6bd1f4a9e805cdc72f4b6,0.0247,0.0247,1,65,227,119,1,eightseven,,,,,,,,,,,,,,,,,,,,,,,,,,,,,,,,,,,,,,,,,,,,,,,,,,,,,,,,,,,,,,,,,,,,,,,,,,,,,,,,,,,,,,,,,,,,,,,,,,,,,,,,,,,,,,,,,,,,,,,,,,,,,,,,,,,,,,,,,
,,61535206a5dfc673e9cb6a3c,2024-02-21_21h19.50.580,kallum_motion_pilot,2023.2.2,MacIntel,59.88023952,61535206a5dfc673e9cb6a3c,65d6bb0e977760de756971f7,65d6bd1f4a9e805cdc72f4b6,0.0247,0.0248,1,66,228,14,1,fourtwo,,,,,,,,,,,,,,,,,,,,,,,,,,,,,,,,,,,,,,,,,,,,,,,,,,,,,,,,,,,,,,,,,,,,,,,,,,,,,,,,,,,,,,,,,,,,,,,,,,,,,,,,,,,,,,,,,,,,,,,,,,,,,,,,,,,,,,,,,
,,61535206a5dfc673e9cb6a3c,2024-02-21_21h19.50.580,kallum_motion_pilot,2023.2.2,MacIntel,59.88023952,61535206a5dfc673e9cb6a3c,65d6bb0e977760de756971f7,65d6bd1f4a9e805cdc72f4b6,0.0248,0.0248,1,67,229,160,1,fivesix,,,,,,,,,,,,,,,,,,,,,,,,,,,,,,,,,,,,,,,,,,,,,,,,,,,,,,,,,,,,,,,,,,,,,,,,,,,,,,,,,,,,,,,,,,,,,,,,,,,,,,,,,,,,,,,,,,,,,,,,,,,,,,,,,,,,,,,,,
,,61535206a5dfc673e9cb6a3c,2024-02-21_21h19.50.580,kallum_motion_pilot,2023.2.2,MacIntel,59.88023952,61535206a5dfc673e9cb6a3c,65d6bb0e977760de756971f7,65d6bd1f4a9e805cdc72f4b6,0.0248,0.0248,1,68,230,7,1,fourthree,,,,,,,,,,,,,,,,,,,,,,,,,,,,,,,,,,,,,,,,,,,,,,,,,,,,,,,,,,,,,,,,,,,,,,,,,,,,,,,,,,,,,,,,,,,,,,,,,,,,,,,,,,,,,,,,,,,,,,,,,,,,,,,,,,,,,,,,,
,,61535206a5dfc673e9cb6a3c,2024-02-21_21h19.50.580,kallum_motion_pilot,2023.2.2,MacIntel,59.88023952,61535206a5dfc673e9cb6a3c,65d6bb0e977760de756971f7,65d6bd1f4a9e805cdc72f4b6,0.0249,0.025,1,69,231,71,1,fourthree,,,,,,,,,,,,,,,,,,,,,,,,,,,,,,,,,,,,,,,,,,,,,,,,,,,,,,,,,,,,,,,,,,,,,,,,,,,,,,,,,,,,,,,,,,,,,,,,,,,,,,,,,,,,,,,,,,,,,,,,,,,,,,,,,,,,,,,,,
,,61535206a5dfc673e9cb6a3c,2024-02-21_21h19.50.580,kallum_motion_pilot,2023.2.2,MacIntel,59.88023952,61535206a5dfc673e9cb6a3c,65d6bb0e977760de756971f7,65d6bd1f4a9e805cdc72f4b6,0.0252,0.0252,1,70,232,5,1,threefour,,,,,,,,,,,,,,,,,,,,,,,,,,,,,,,,,,,,,,,,,,,,,,,,,,,,,,,,,,,,,,,,,,,,,,,,,,,,,,,,,,,,,,,,,,,,,,,,,,,,,,,,,,,,,,,,,,,,,,,,,,,,,,,,,,,,,,,,,
,,61535206a5dfc673e9cb6a3c,2024-02-21_21h19.50.580,kallum_motion_pilot,2023.2.2,MacIntel,59.88023952,61535206a5dfc673e9cb6a3c,65d6bb0e977760de756971f7,65d6bd1f4a9e805cdc72f4b6,0.0252,0.0253,1,71,233,22,1,fourtwo,,,,,,,,,,,,,,,,,,,,,,,,,,,,,,,,,,,,,,,,,,,,,,,,,,,,,,,,,,,,,,,,,,,,,,,,,,,,,,,,,,,,,,,,,,,,,,,,,,,,,,,,,,,,,,,,,,,,,,,,,,,,,,,,,,,,,,,,,
,,61535206a5dfc673e9cb6a3c,2024-02-21_21h19.50.580,kallum_motion_pilot,2023.2.2,MacIntel,59.88023952,61535206a5dfc673e9cb6a3c,65d6bb0e977760de756971f7,65d6bd1f4a9e805cdc72f4b6,0.0253,0.0253,1,72,234,140,1,sevenfive,,,,,,,,,,,,,,,,,,,,,,,,,,,,,,,,,,,,,,,,,,,,,,,,,,,,,,,,,,,,,,,,,,,,,,,,,,,,,,,,,,,,,,,,,,,,,,,,,,,,,,,,,,,,,,,,,,,,,,,,,,,,,,,,,,,,,,,,,
,,61535206a5dfc673e9cb6a3c,2024-02-21_21h19.50.580,kallum_motion_pilot,2023.2.2,MacIntel,59.88023952,61535206a5dfc673e9cb6a3c,65d6bb0e977760de756971f7,65d6bd1f4a9e805cdc72f4b6,0.0254,0.0255,1,73,235,104,1,fivesix,,,,,,,,,,,,,,,,,,,,,,,,,,,,,,,,,,,,,,,,,,,,,,,,,,,,,,,,,,,,,,,,,,,,,,,,,,,,,,,,,,,,,,,,,,,,,,,,,,,,,,,,,,,,,,,,,,,,,,,,,,,,,,,,,,,,,,,,,
,,61535206a5dfc673e9cb6a3c,2024-02-21_21h19.50.580,kallum_motion_pilot,2023.2.2,MacIntel,59.88023952,61535206a5dfc673e9cb6a3c,65d6bb0e977760de756971f7,65d6bd1f4a9e805cdc72f4b6,0.0255,0.0255,1,74,236,85,1,seveneight,,,,,,,,,,,,,,,,,,,,,,,,,,,,,,,,,,,,,,,,,,,,,,,,,,,,,,,,,,,,,,,,,,,,,,,,,,,,,,,,,,,,,,,,,,,,,,,,,,,,,,,,,,,,,,,,,,,,,,,,,,,,,,,,,,,,,,,,,
,,61535206a5dfc673e9cb6a3c,2024-02-21_21h19.50.580,kallum_motion_pilot,2023.2.2,MacIntel,59.88023952,61535206a5dfc673e9cb6a3c,65d6bb0e977760de756971f7,65d6bd1f4a9e805cdc72f4b6,0.0256,0.0256,1,75,237,76,1,threeone,,,,,,,,,,,,,,,,,,,,,,,,,,,,,,,,,,,,,,,,,,,,,,,,,,,,,,,,,,,,,,,,,,,,,,,,,,,,,,,,,,,,,,,,,,,,,,,,,,,,,,,,,,,,,,,,,,,,,,,,,,,,,,,,,,,,,,,,,
,,61535206a5dfc673e9cb6a3c,2024-02-21_21h19.50.580,kallum_motion_pilot,2023.2.2,MacIntel,59.88023952,61535206a5dfc673e9cb6a3c,65d6bb0e977760de756971f7,65d6bd1f4a9e805cdc72f4b6,0.0256,0.0256,1,76,238,4,1,threeone,,,,,,,,,,,,,,,,,,,,,,,,,,,,,,,,,,,,,,,,,,,,,,,,,,,,,,,,,,,,,,,,,,,,,,,,,,,,,,,,,,,,,,,,,,,,,,,,,,,,,,,,,,,,,,,,,,,,,,,,,,,,,,,,,,,,,,,,,
,,61535206a5dfc673e9cb6a3c,2024-02-21_21h19.50.580,kallum_motion_pilot,2023.2.2,MacIntel,59.88023952,61535206a5dfc673e9cb6a3c,65d6bb0e977760de756971f7,65d6bd1f4a9e805cdc72f4b6,0.0257,0.0257,1,77,239,92,1,sevenfive,,,,,,,,,,,,,,,,,,,,,,,,,,,,,,,,,,,,,,,,,,,,,,,,,,,,,,,,,,,,,,,,,,,,,,,,,,,,,,,,,,,,,,,,,,,,,,,,,,,,,,,,,,,,,,,,,,,,,,,,,,,,,,,,,,,,,,,,,
,,61535206a5dfc673e9cb6a3c,2024-02-21_21h19.50.580,kallum_motion_pilot,2023.2.2,MacIntel,59.88023952,61535206a5dfc673e9cb6a3c,65d6bb0e977760de756971f7,65d6bd1f4a9e805cdc72f4b6,0.0257,0.0257,1,78,240,120,1,fivesix,,,,,,,,,,,,,,,,,,,,,,,,,,,,,,,,,,,,,,,,,,,,,,,,,,,,,,,,,,,,,,,,,,,,,,,,,,,,,,,,,,,,,,,,,,,,,,,,,,,,,,,,,,,,,,,,,,,,,,,,,,,,,,,,,,,,,,,,,
,,61535206a5dfc673e9cb6a3c,2024-02-21_21h19.50.580,kallum_motion_pilot,2023.2.2,MacIntel,59.88023952,61535206a5dfc673e9cb6a3c,65d6bb0e977760de756971f7,65d6bd1f4a9e805cdc72f4b6,0.0258,0.0258,1,79,241,57,1,onethree,,,,,,,,,,,,,,,,,,,,,,,,,,,,,,,,,,,,,,,,,,,,,,,,,,,,,,,,,,,,,,,,,,,,,,,,,,,,,,,,,,,,,,,,,,,,,,,,,,,,,,,,,,,,,,,,,,,,,,,,,,,,,,,,,,,,,,,,,
,,61535206a5dfc673e9cb6a3c,2024-02-21_21h19.50.580,kallum_motion_pilot,2023.2.2,MacIntel,59.88023952,61535206a5dfc673e9cb6a3c,65d6bb0e977760de756971f7,65d6bd1f4a9e805cdc72f4b6,0.0259,0.0259,1,80,242,126,1,eightsix,,,,,,,,,,,,,,,,,,,,,,,,,,,,,,,,,,,,,,,,,,,,,,,,,,,,,,,,,,,,,,,,,,,,,,,,,,,,,,,,,,,,,,,,,,,,,,,,,,,,,,,,,,,,,,,,,,,,,,,,,,,,,,,,,,,,,,,,,
,,61535206a5dfc673e9cb6a3c,2024-02-21_21h19.50.580,kallum_motion_pilot,2023.2.2,MacIntel,59.88023952,61535206a5dfc673e9cb6a3c,65d6bb0e977760de756971f7,65d6bd1f4a9e805cdc72f4b6,0.026,0.026,1,81,243,46,1,fourtwo,,,,,,,,,,,,,,,,,,,,,,,,,,,,,,,,,,,,,,,,,,,,,,,,,,,,,,,,,,,,,,,,,,,,,,,,,,,,,,,,,,,,,,,,,,,,,,,,,,,,,,,,,,,,,,,,,,,,,,,,,,,,,,,,,,,,,,,,,
,,61535206a5dfc673e9cb6a3c,2024-02-21_21h19.50.580,kallum_motion_pilot,2023.2.2,MacIntel,59.88023952,61535206a5dfc673e9cb6a3c,65d6bb0e977760de756971f7,65d6bd1f4a9e805cdc72f4b6,0.026,0.026,1,82,244,45,1,threefour,,,,,,,,,,,,,,,,,,,,,,,,,,,,,,,,,,,,,,,,,,,,,,,,,,,,,,,,,,,,,,,,,,,,,,,,,,,,,,,,,,,,,,,,,,,,,,,,,,,,,,,,,,,,,,,,,,,,,,,,,,,,,,,,,,,,,,,,,
,,61535206a5dfc673e9cb6a3c,2024-02-21_21h19.50.580,kallum_motion_pilot,2023.2.2,MacIntel,59.88023952,61535206a5dfc673e9cb6a3c,65d6bb0e977760de756971f7,65d6bd1f4a9e805cdc72f4b6,0.026,0.0261,1,83,245,139,1,sixeight,,,,,,,,,,,,,,,,,,,,,,,,,,,,,,,,,,,,,,,,,,,,,,,,,,,,,,,,,,,,,,,,,,,,,,,,,,,,,,,,,,,,,,,,,,,,,,,,,,,,,,,,,,,,,,,,,,,,,,,,,,,,,,,,,,,,,,,,,
,,61535206a5dfc673e9cb6a3c,2024-02-21_21h19.50.580,kallum_motion_pilot,2023.2.2,MacIntel,59.88023952,61535206a5dfc673e9cb6a3c,65d6bb0e977760de756971f7,65d6bd1f4a9e805cdc72f4b6,0.0261,0.0261,1,84,246,99,1,sixeight,,,,,,,,,,,,,,,,,,,,,,,,,,,,,,,,,,,,,,,,,,,,,,,,,,,,,,,,,,,,,,,,,,,,,,,,,,,,,,,,,,,,,,,,,,,,,,,,,,,,,,,,,,,,,,,,,,,,,,,,,,,,,,,,,,,,,,,,,
,,61535206a5dfc673e9cb6a3c,2024-02-21_21h19.50.580,kallum_motion_pilot,2023.2.2,MacIntel,59.88023952,61535206a5dfc673e9cb6a3c,65d6bb0e977760de756971f7,65d6bd1f4a9e805cdc72f4b6,0.0261,0.0262,1,85,247,23,1,fourthree,,,,,,,,,,,,,,,,,,,,,,,,,,,,,,,,,,,,,,,,,,,,,,,,,,,,,,,,,,,,,,,,,,,,,,,,,,,,,,,,,,,,,,,,,,,,,,,,,,,,,,,,,,,,,,,,,,,,,,,,,,,,,,,,,,,,,,,,,
,,61535206a5dfc673e9cb6a3c,2024-02-21_21h19.50.580,kallum_motion_pilot,2023.2.2,MacIntel,59.88023952,61535206a5dfc673e9cb6a3c,65d6bb0e977760de756971f7,65d6bd1f4a9e805cdc72f4b6,0.0262,0.0263,1,86,248,153,1,fiveseven,,,,,,,,,,,,,,,,,,,,,,,,,,,,,,,,,,,,,,,,,,,,,,,,,,,,,,,,,,,,,,,,,,,,,,,,,,,,,,,,,,,,,,,,,,,,,,,,,,,,,,,,,,,,,,,,,,,,,,,,,,,,,,,,,,,,,,,,,
,,61535206a5dfc673e9cb6a3c,2024-02-21_21h19.50.580,kallum_motion_pilot,2023.2.2,MacIntel,59.88023952,61535206a5dfc673e9cb6a3c,65d6bb0e977760de756971f7,65d6bd1f4a9e805cdc72f4b6,0.0263,0.0264,1,87,249,112,1,fivesix,,,,,,,,,,,,,,,,,,,,,,,,,,,,,,,,,,,,,,,,,,,,,,,,,,,,,,,,,,,,,,,,,,,,,,,,,,,,,,,,,,,,,,,,,,,,,,,,,,,,,,,,,,,,,,,,,,,,,,,,,,,,,,,,,,,,,,,,,
,,61535206a5dfc673e9cb6a3c,2024-02-21_21h19.50.580,kallum_motion_pilot,2023.2.2,MacIntel,59.88023952,61535206a5dfc673e9cb6a3c,65d6bb0e977760de756971f7,65d6bd1f4a9e805cdc72f4b6,0.0264,0.0264,1,88,250,70,1,fourtwo,,,,,,,,,,,,,,,,,,,,,,,,,,,,,,,,,,,,,,,,,,,,,,,,,,,,,,,,,,,,,,,,,,,,,,,,,,,,,,,,,,,,,,,,,,,,,,,,,,,,,,,,,,,,,,,,,,,,,,,,,,,,,,,,,,,,,,,,,
,,61535206a5dfc673e9cb6a3c,2024-02-21_21h19.50.580,kallum_motion_pilot,2023.2.2,MacIntel,59.88023952,61535206a5dfc673e9cb6a3c,65d6bb0e977760de756971f7,65d6bd1f4a9e805cdc72f4b6,0.0265,0.0265,1,89,251,61,1,threefour,,,,,,,,,,,,,,,,,,,,,,,,,,,,,,,,,,,,,,,,,,,,,,,,,,,,,,,,,,,,,,,,,,,,,,,,,,,,,,,,,,,,,,,,,,,,,,,,,,,,,,,,,,,,,,,,,,,,,,,,,,,,,,,,,,,,,,,,,
,,61535206a5dfc673e9cb6a3c,2024-02-21_21h19.50.580,kallum_motion_pilot,2023.2.2,MacIntel,59.88023952,61535206a5dfc673e9cb6a3c,65d6bb0e977760de756971f7,65d6bd1f4a9e805cdc72f4b6,0.0265,0.0265,1,90,252,28,1,threeone,,,,,,,,,,,,,,,,,,,,,,,,,,,,,,,,,,,,,,,,,,,,,,,,,,,,,,,,,,,,,,,,,,,,,,,,,,,,,,,,,,,,,,,,,,,,,,,,,,,,,,,,,,,,,,,,,,,,,,,,,,,,,,,,,,,,,,,,,
,,61535206a5dfc673e9cb6a3c,2024-02-21_21h19.50.580,kallum_motion_pilot,2023.2.2,MacIntel,59.88023952,61535206a5dfc673e9cb6a3c,65d6bb0e977760de756971f7,65d6bd1f4a9e805cdc72f4b6,0.0266,0.0266,1,91,253,69,1,threefour,,,,,,,,,,,,,,,,,,,,,,,,,,,,,,,,,,,,,,,,,,,,,,,,,,,,,,,,,,,,,,,,,,,,,,,,,,,,,,,,,,,,,,,,,,,,,,,,,,,,,,,,,,,,,,,,,,,,,,,,,,,,,,,,,,,,,,,,,
,,61535206a5dfc673e9cb6a3c,2024-02-21_21h19.50.580,kallum_motion_pilot,2023.2.2,MacIntel,59.88023952,61535206a5dfc673e9cb6a3c,65d6bb0e977760de756971f7,65d6bd1f4a9e805cdc72f4b6,0.0266,0.0266,1,92,254,134,1,eightsix,,,,,,,,,,,,,,,,,,,,,,,,,,,,,,,,,,,,,,,,,,,,,,,,,,,,,,,,,,,,,,,,,,,,,,,,,,,,,,,,,,,,,,,,,,,,,,,,,,,,,,,,,,,,,,,,,,,,,,,,,,,,,,,,,,,,,,,,,
,,61535206a5dfc673e9cb6a3c,2024-02-21_21h19.50.580,kallum_motion_pilot,2023.2.2,MacIntel,59.88023952,61535206a5dfc673e9cb6a3c,65d6bb0e977760de756971f7,65d6bd1f4a9e805cdc72f4b6,0.0267,0.0268,1,93,255,109,1,seveneight,,,,,,,,,,,,,,,,,,,,,,,,,,,,,,,,,,,,,,,,,,,,,,,,,,,,,,,,,,,,,,,,,,,,,,,,,,,,,,,,,,,,,,,,,,,,,,,,,,,,,,,,,,,,,,,,,,,,,,,,,,,,,,,,,,,,,,,,,
,,61535206a5dfc673e9cb6a3c,2024-02-21_21h19.50.580,kallum_motion_pilot,2023.2.2,MacIntel,59.88023952,61535206a5dfc673e9cb6a3c,65d6bb0e977760de756971f7,65d6bd1f4a9e805cdc72f4b6,0.0268,0.0268,1,94,256,41,1,onethree,,,,,,,,,,,,,,,,,,,,,,,,,,,,,,,,,,,,,,,,,,,,,,,,,,,,,,,,,,,,,,,,,,,,,,,,,,,,,,,,,,,,,,,,,,,,,,,,,,,,,,,,,,,,,,,,,,,,,,,,,,,,,,,,,,,,,,,,,
,,61535206a5dfc673e9cb6a3c,2024-02-21_21h19.50.580,kallum_motion_pilot,2023.2.2,MacIntel,59.88023952,61535206a5dfc673e9cb6a3c,65d6bb0e977760de756971f7,65d6bd1f4a9e805cdc72f4b6,0.0268,0.0269,1,95,257,155,1,sixeight,,,,,,,,,,,,,,,,,,,,,,,,,,,,,,,,,,,,,,,,,,,,,,,,,,,,,,,,,,,,,,,,,,,,,,,,,,,,,,,,,,,,,,,,,,,,,,,,,,,,,,,,,,,,,,,,,,,,,,,,,,,,,,,,,,,,,,,,,
,,61535206a5dfc673e9cb6a3c,2024-02-21_21h19.50.580,kallum_motion_pilot,2023.2.2,MacIntel,59.88023952,61535206a5dfc673e9cb6a3c,65d6bb0e977760de756971f7,65d6bd1f4a9e805cdc72f4b6,0.0269,0.0269,1,96,258,113,1,fiveseven,,,,,,,,,,,,,,,,,,,,,,,,,,,,,,,,,,,,,,,,,,,,,,,,,,,,,,,,,,,,,,,,,,,,,,,,,,,,,,,,,,,,,,,,,,,,,,,,,,,,,,,,,,,,,,,,,,,,,,,,,,,,,,,,,,,,,,,,,
,,61535206a5dfc673e9cb6a3c,2024-02-21_21h19.50.580,kallum_motion_pilot,2023.2.2,MacIntel,59.88023952,61535206a5dfc673e9cb6a3c,65d6bb0e977760de756971f7,65d6bd1f4a9e805cdc72f4b6,0.0269,0.027,1,97,259,59,1,twofour,,,,,,,,,,,,,,,,,,,,,,,,,,,,,,,,,,,,,,,,,,,,,,,,,,,,,,,,,,,,,,,,,,,,,,,,,,,,,,,,,,,,,,,,,,,,,,,,,,,,,,,,,,,,,,,,,,,,,,,,,,,,,,,,,,,,,,,,,
,,61535206a5dfc673e9cb6a3c,2024-02-21_21h19.50.580,kallum_motion_pilot,2023.2.2,MacIntel,59.88023952,61535206a5dfc673e9cb6a3c,65d6bb0e977760de756971f7,65d6bd1f4a9e805cdc72f4b6,0.0271,0.0271,1,98,260,42,1,twoone,,,,,,,,,,,,,,,,,,,,,,,,,,,,,,,,,,,,,,,,,,,,,,,,,,,,,,,,,,,,,,,,,,,,,,,,,,,,,,,,,,,,,,,,,,,,,,,,,,,,,,,,,,,,,,,,,,,,,,,,,,,,,,,,,,,,,,,,,
,,61535206a5dfc673e9cb6a3c,2024-02-21_21h19.50.580,kallum_motion_pilot,2023.2.2,MacIntel,59.88023952,61535206a5dfc673e9cb6a3c,65d6bb0e977760de756971f7,65d6bd1f4a9e805cdc72f4b6,0.0271,0.0271,1,99,261,9,1,onethree,,,,,,,,,,,,,,,,,,,,,,,,,,,,,,,,,,,,,,,,,,,,,,,,,,,,,,,,,,,,,,,,,,,,,,,,,,,,,,,,,,,,,,,,,,,,,,,,,,,,,,,,,,,,,,,,,,,,,,,,,,,,,,,,,,,,,,,,,
,,61535206a5dfc673e9cb6a3c,2024-02-21_21h19.50.580,kallum_motion_pilot,2023.2.2,MacIntel,59.88023952,61535206a5dfc673e9cb6a3c,65d6bb0e977760de756971f7,65d6bd1f4a9e805cdc72f4b6,0.0271,0.0272,1,100,262,2,1,twoone,,,,,,,,,,,,,,,,,,,,,,,,,,,,,,,,,,,,,,,,,,,,,,,,,,,,,,,,,,,,,,,,,,,,,,,,,,,,,,,,,,,,,,,,,,,,,,,,,,,,,,,,,,,,,,,,,,,,,,,,,,,,,,,,,,,,,,,,,
,,61535206a5dfc673e9cb6a3c,2024-02-21_21h19.50.580,kallum_motion_pilot,2023.2.2,MacIntel,59.88023952,61535206a5dfc673e9cb6a3c,65d6bb0e977760de756971f7,65d6bd1f4a9e805cdc72f4b6,0.0273,0.0273,1,101,263,96,1,fivesix,,,,,,,,,,,,,,,,,,,,,,,,,,,,,,,,,,,,,,,,,,,,,,,,,,,,,,,,,,,,,,,,,,,,,,,,,,,,,,,,,,,,,,,,,,,,,,,,,,,,,,,,,,,,,,,,,,,,,,,,,,,,,,,,,,,,,,,,,
,,61535206a5dfc673e9cb6a3c,2024-02-21_21h19.50.580,kallum_motion_pilot,2023.2.2,MacIntel,59.88023952,61535206a5dfc673e9cb6a3c,65d6bb0e977760de756971f7,65d6bd1f4a9e805cdc72f4b6,0.0274,0.0274,1,102,264,43,1,twofour,,,,,,,,,,,,,,,,,,,,,,,,,,,,,,,,,,,,,,,,,,,,,,,,,,,,,,,,,,,,,,,,,,,,,,,,,,,,,,,,,,,,,,,,,,,,,,,,,,,,,,,,,,,,,,,,,,,,,,,,,,,,,,,,,,,,,,,,,
,,61535206a5dfc673e9cb6a3c,2024-02-21_21h19.50.580,kallum_motion_pilot,2023.2.2,MacIntel,59.88023952,61535206a5dfc673e9cb6a3c,65d6bb0e977760de756971f7,65d6bd1f4a9e805cdc72f4b6,0.0274,0.0274,1,103,265,52,1,threeone,,,,,,,,,,,,,,,,,,,,,,,,,,,,,,,,,,,,,,,,,,,,,,,,,,,,,,,,,,,,,,,,,,,,,,,,,,,,,,,,,,,,,,,,,,,,,,,,,,,,,,,,,,,,,,,,,,,,,,,,,,,,,,,,,,,,,,,,,
,,61535206a5dfc673e9cb6a3c,2024-02-21_21h19.50.580,kallum_motion_pilot,2023.2.2,MacIntel,59.88023952,61535206a5dfc673e9cb6a3c,65d6bb0e977760de756971f7,65d6bd1f4a9e805cdc72f4b6,0.0275,0.0275,1,104,266,33,1,onethree,,,,,,,,,,,,,,,,,,,,,,,,,,,,,,,,,,,,,,,,,,,,,,,,,,,,,,,,,,,,,,,,,,,,,,,,,,,,,,,,,,,,,,,,,,,,,,,,,,,,,,,,,,,,,,,,,,,,,,,,,,,,,,,,,,,,,,,,,
,,61535206a5dfc673e9cb6a3c,2024-02-21_21h19.50.580,kallum_motion_pilot,2023.2.2,MacIntel,59.88023952,61535206a5dfc673e9cb6a3c,65d6bb0e977760de756971f7,65d6bd1f4a9e805cdc72f4b6,0.0275,0.0276,1,105,267,56,1,onetwo,,,,,,,,,,,,,,,,,,,,,,,,,,,,,,,,,,,,,,,,,,,,,,,,,,,,,,,,,,,,,,,,,,,,,,,,,,,,,,,,,,,,,,,,,,,,,,,,,,,,,,,,,,,,,,,,,,,,,,,,,,,,,,,,,,,,,,,,,
,,61535206a5dfc673e9cb6a3c,2024-02-21_21h19.50.580,kallum_motion_pilot,2023.2.2,MacIntel,59.88023952,61535206a5dfc673e9cb6a3c,65d6bb0e977760de756971f7,65d6bd1f4a9e805cdc72f4b6,0.0276,0.0276,1,106,268,10,1,twoone,,,,,,,,,,,,,,,,,,,,,,,,,,,,,,,,,,,,,,,,,,,,,,,,,,,,,,,,,,,,,,,,,,,,,,,,,,,,,,,,,,,,,,,,,,,,,,,,,,,,,,,,,,,,,,,,,,,,,,,,,,,,,,,,,,,,,,,,,
,,61535206a5dfc673e9cb6a3c,2024-02-21_21h19.50.580,kallum_motion_pilot,2023.2.2,MacIntel,59.88023952,61535206a5dfc673e9cb6a3c,65d6bb0e977760de756971f7,65d6bd1f4a9e805cdc72f4b6,0.0277,0.0277,1,107,269,121,1,fiveseven,,,,,,,,,,,,,,,,,,,,,,,,,,,,,,,,,,,,,,,,,,,,,,,,,,,,,,,,,,,,,,,,,,,,,,,,,,,,,,,,,,,,,,,,,,,,,,,,,,,,,,,,,,,,,,,,,,,,,,,,,,,,,,,,,,,,,,,,,
,,61535206a5dfc673e9cb6a3c,2024-02-21_21h19.50.580,kallum_motion_pilot,2023.2.2,MacIntel,59.88023952,61535206a5dfc673e9cb6a3c,65d6bb0e977760de756971f7,65d6bd1f4a9e805cdc72f4b6,0.0278,0.0278,1,108,270,12,1,threeone,,,,,,,,,,,,,,,,,,,,,,,,,,,,,,,,,,,,,,,,,,,,,,,,,,,,,,,,,,,,,,,,,,,,,,,,,,,,,,,,,,,,,,,,,,,,,,,,,,,,,,,,,,,,,,,,,,,,,,,,,,,,,,,,,,,,,,,,,
,,61535206a5dfc673e9cb6a3c,2024-02-21_21h19.50.580,kallum_motion_pilot,2023.2.2,MacIntel,59.88023952,61535206a5dfc673e9cb6a3c,65d6bb0e977760de756971f7,65d6bd1f4a9e805cdc72f4b6,0.0278,0.0278,1,109,271,40,1,onetwo,,,,,,,,,,,,,,,,,,,,,,,,,,,,,,,,,,,,,,,,,,,,,,,,,,,,,,,,,,,,,,,,,,,,,,,,,,,,,,,,,,,,,,,,,,,,,,,,,,,,,,,,,,,,,,,,,,,,,,,,,,,,,,,,,,,,,,,,,
,,61535206a5dfc673e9cb6a3c,2024-02-21_21h19.50.580,kallum_motion_pilot,2023.2.2,MacIntel,59.88023952,61535206a5dfc673e9cb6a3c,65d6bb0e977760de756971f7,65d6bd1f4a9e805cdc72f4b6,0.0279,0.028,1,110,272,154,1,sixfive,,,,,,,,,,,,,,,,,,,,,,,,,,,,,,,,,,,,,,,,,,,,,,,,,,,,,,,,,,,,,,,,,,,,,,,,,,,,,,,,,,,,,,,,,,,,,,,,,,,,,,,,,,,,,,,,,,,,,,,,,,,,,,,,,,,,,,,,,
,,61535206a5dfc673e9cb6a3c,2024-02-21_21h19.50.580,kallum_motion_pilot,2023.2.2,MacIntel,59.88023952,61535206a5dfc673e9cb6a3c,65d6bb0e977760de756971f7,65d6bd1f4a9e805cdc72f4b6,0.028,0.0281,1,111,273,19,1,twofour,,,,,,,,,,,,,,,,,,,,,,,,,,,,,,,,,,,,,,,,,,,,,,,,,,,,,,,,,,,,,,,,,,,,,,,,,,,,,,,,,,,,,,,,,,,,,,,,,,,,,,,,,,,,,,,,,,,,,,,,,,,,,,,,,,,,,,,,,
,,61535206a5dfc673e9cb6a3c,2024-02-21_21h19.50.580,kallum_motion_pilot,2023.2.2,MacIntel,59.88023952,61535206a5dfc673e9cb6a3c,65d6bb0e977760de756971f7,65d6bd1f4a9e805cdc72f4b6,0.0281,0.0281,1,112,274,149,1,seveneight,,,,,,,,,,,,,,,,,,,,,,,,,,,,,,,,,,,,,,,,,,,,,,,,,,,,,,,,,,,,,,,,,,,,,,,,,,,,,,,,,,,,,,,,,,,,,,,,,,,,,,,,,,,,,,,,,,,,,,,,,,,,,,,,,,,,,,,,,
,,61535206a5dfc673e9cb6a3c,2024-02-21_21h19.50.580,kallum_motion_pilot,2023.2.2,MacIntel,59.88023952,61535206a5dfc673e9cb6a3c,65d6bb0e977760de756971f7,65d6bd1f4a9e805cdc72f4b6,0.0281,0.0282,1,113,275,114,1,sixfive,,,,,,,,,,,,,,,,,,,,,,,,,,,,,,,,,,,,,,,,,,,,,,,,,,,,,,,,,,,,,,,,,,,,,,,,,,,,,,,,,,,,,,,,,,,,,,,,,,,,,,,,,,,,,,,,,,,,,,,,,,,,,,,,,,,,,,,,,
