startup.started,startup.stopped,Prolific ID*,date,expName,psychopyVersion,OS,frameRate,participant,study_id,session,stimpositions.started,stimpositions.stopped,hardcoded_stimulus_positions.thisRepN,hardcoded_stimulus_positions.thisTrialN,hardcoded_stimulus_positions.thisN,hardcoded_stimulus_positions.thisIndex,hardcoded_stimulus_positions.ran,StimulusPos,stimorientation.started,stimorientation.stopped,prac_stimorientation_import_loop.thisRepN,prac_stimorientation_import_loop.thisTrialN,prac_stimorientation_import_loop.thisN,prac_stimorientation_import_loop.thisIndex,prac_stimorientation_import_loop.ran,Stimorientation,welcome_instr.started,welcome_instr.stopped,key_resp.keys,key_resp.rt,key_resp.duration,response_steppedout_1.started,response_steppedout_1.stopped,key_resp_20.keys,key_resp_20.rt,key_resp_20.duration,response_steppedout_2.started,response_steppedout_2.stopped,key_resp_19.keys,key_resp_19.rt,key_resp_19.duration,stim_response_instr.started,stim_response_instr.stopped,key_resp_15.keys,key_resp_15.rt,key_resp_15.duration,direction_instr_2.started,direction_instr_2.stopped,key_resp_9.keys,key_resp_9.rt,key_resp_9.duration,instr_prac.started,instr_prac.stopped,key_resp_10.keys,key_resp_10.rt,key_resp_10.duration,Stim1_display_prac.started,Stim1_display_prac.stopped,Ecc,Circle1_ori,Circle2_ori,response_prac.started,similarity,response_time,response_prac.stopped,mouse_5.x,mouse_5.y,mouse_5.leftButton,mouse_5.midButton,mouse_5.rightButton,mouse_5.clicked_name,responseprac_feedback.started,responseprac_feedback.stopped,summary2_prac.started,summary2_prac.stopped,mouse_6.x,mouse_6.y,mouse_6.leftButton,mouse_6.midButton,mouse_6.rightButton,mouse_6.clicked_name,duringprac.thisRepN,duringprac.thisTrialN,duringprac.thisN,duringprac.thisIndex,duringprac.ran,begin.started,begin.stopped,key_resp_22.keys,key_resp_22.rt,key_resp_22.duration,Stim1_display.started,Stim1_display.stopped,circle1_ori,circle2_ori,circle1_SF,circle2_SF,response.started,response.stopped,mouse.x,mouse.y,mouse.leftButton,mouse.midButton,mouse.rightButton,mouse.clicked_name,trialnumber,double_pass.thisRepN,double_pass.thisTrialN,double_pass.thisN,double_pass.thisIndex,double_pass.ran,double_pass.order,main_trial.thisRepN,main_trial.thisTrialN,main_trial.thisN,main_trial.thisIndex,main_trial.ran,main_trial.order,Trial_Counter,Catch,Frequencies,response_2.started,response_2.stopped,mouse_2.x,mouse_2.y,mouse_2.leftButton,mouse_2.midButton,mouse_2.rightButton,mouse_2.clicked_name,special_trial.started,special_trial.stopped,catch_1.started,catch_1.stopped,mouse_3.x,mouse_3.y,mouse_3.leftButton,mouse_3.midButton,mouse_3.rightButton,catchresponse,catchnumber,response_time_catch,response_sum.started,response_sum.stopped,mouse_11.x,mouse_11.y,mouse_11.leftButton,mouse_11.midButton,mouse_11.rightButton,flip_presentation_sequence_for_double_pass.started,flip_presentation_sequence_for_double_pass.stopped,goodbye.started,goodbye.stopped,key_resp_3.keys,key_resp_3.rt,key_resp_3.duration
0.0007,0.0008,61574002e457b8c50f26f997,2024-02-21_21h07.30.785,kallum_motion_pilot,2023.2.2,Win32,74.07407407,61574002e457b8c50f26f997,65d6bb0e977760de756971f7,65d6bc166cbfc377f68bedf0,,,,,,,,,,,,,,,,,,,,,,,,,,,,,,,,,,,,,,,,,,,,,,,,,,,,,,,,,,,,,,,,,,,,,,,,,,,,,,,,,,,,,,,,,,,,,,,,,,,,,,,,,,,,,,,,,,,,,,,,,,,,,,,,,,,,,,,,,,,,,,,,,
,,61574002e457b8c50f26f997,2024-02-21_21h07.30.785,kallum_motion_pilot,2023.2.2,Win32,74.07407407,61574002e457b8c50f26f997,65d6bb0e977760de756971f7,65d6bc166cbfc377f68bedf0,0.0521,0.0525,0,0,0,30,1,fourtwo,,,,,,,,,,,,,,,,,,,,,,,,,,,,,,,,,,,,,,,,,,,,,,,,,,,,,,,,,,,,,,,,,,,,,,,,,,,,,,,,,,,,,,,,,,,,,,,,,,,,,,,,,,,,,,,,,,,,,,,,,,,,,,,,,,,,,,,,,
,,61574002e457b8c50f26f997,2024-02-21_21h07.30.785,kallum_motion_pilot,2023.2.2,Win32,74.07407407,61574002e457b8c50f26f997,65d6bb0e977760de756971f7,65d6bc166cbfc377f68bedf0,0.053,0.0531,0,1,1,135,1,eightseven,,,,,,,,,,,,,,,,,,,,,,,,,,,,,,,,,,,,,,,,,,,,,,,,,,,,,,,,,,,,,,,,,,,,,,,,,,,,,,,,,,,,,,,,,,,,,,,,,,,,,,,,,,,,,,,,,,,,,,,,,,,,,,,,,,,,,,,,,
,,61574002e457b8c50f26f997,2024-02-21_21h07.30.785,kallum_motion_pilot,2023.2.2,Win32,74.07407407,61574002e457b8c50f26f997,65d6bb0e977760de756971f7,65d6bc166cbfc377f68bedf0,0.0533,0.0535,0,2,2,85,1,seveneight,,,,,,,,,,,,,,,,,,,,,,,,,,,,,,,,,,,,,,,,,,,,,,,,,,,,,,,,,,,,,,,,,,,,,,,,,,,,,,,,,,,,,,,,,,,,,,,,,,,,,,,,,,,,,,,,,,,,,,,,,,,,,,,,,,,,,,,,,
,,61574002e457b8c50f26f997,2024-02-21_21h07.30.785,kallum_motion_pilot,2023.2.2,Win32,74.07407407,61574002e457b8c50f26f997,65d6bb0e977760de756971f7,65d6bc166cbfc377f68bedf0,0.0538,0.054,0,3,3,91,1,sixeight,,,,,,,,,,,,,,,,,,,,,,,,,,,,,,,,,,,,,,,,,,,,,,,,,,,,,,,,,,,,,,,,,,,,,,,,,,,,,,,,,,,,,,,,,,,,,,,,,,,,,,,,,,,,,,,,,,,,,,,,,,,,,,,,,,,,,,,,,
,,61574002e457b8c50f26f997,2024-02-21_21h07.30.785,kallum_motion_pilot,2023.2.2,Win32,74.07407407,61574002e457b8c50f26f997,65d6bb0e977760de756971f7,65d6bc166cbfc377f68bedf0,0.0542,0.0543,0,4,4,11,1,twofour,,,,,,,,,,,,,,,,,,,,,,,,,,,,,,,,,,,,,,,,,,,,,,,,,,,,,,,,,,,,,,,,,,,,,,,,,,,,,,,,,,,,,,,,,,,,,,,,,,,,,,,,,,,,,,,,,,,,,,,,,,,,,,,,,,,,,,,,,
,,61574002e457b8c50f26f997,2024-02-21_21h07.30.785,kallum_motion_pilot,2023.2.2,Win32,74.07407407,61574002e457b8c50f26f997,65d6bb0e977760de756971f7,65d6bc166cbfc377f68bedf0,0.0545,0.0546,0,5,5,16,1,onetwo,,,,,,,,,,,,,,,,,,,,,,,,,,,,,,,,,,,,,,,,,,,,,,,,,,,,,,,,,,,,,,,,,,,,,,,,,,,,,,,,,,,,,,,,,,,,,,,,,,,,,,,,,,,,,,,,,,,,,,,,,,,,,,,,,,,,,,,,,
,,61574002e457b8c50f26f997,2024-02-21_21h07.30.785,kallum_motion_pilot,2023.2.2,Win32,74.07407407,61574002e457b8c50f26f997,65d6bb0e977760de756971f7,65d6bc166cbfc377f68bedf0,0.0578,0.058,0,6,6,50,1,twoone,,,,,,,,,,,,,,,,,,,,,,,,,,,,,,,,,,,,,,,,,,,,,,,,,,,,,,,,,,,,,,,,,,,,,,,,,,,,,,,,,,,,,,,,,,,,,,,,,,,,,,,,,,,,,,,,,,,,,,,,,,,,,,,,,,,,,,,,,
,,61574002e457b8c50f26f997,2024-02-21_21h07.30.785,kallum_motion_pilot,2023.2.2,Win32,74.07407407,61574002e457b8c50f26f997,65d6bb0e977760de756971f7,65d6bc166cbfc377f68bedf0,0.0586,0.0587,0,7,7,126,1,eightsix,,,,,,,,,,,,,,,,,,,,,,,,,,,,,,,,,,,,,,,,,,,,,,,,,,,,,,,,,,,,,,,,,,,,,,,,,,,,,,,,,,,,,,,,,,,,,,,,,,,,,,,,,,,,,,,,,,,,,,,,,,,,,,,,,,,,,,,,,
,,61574002e457b8c50f26f997,2024-02-21_21h07.30.785,kallum_motion_pilot,2023.2.2,Win32,74.07407407,61574002e457b8c50f26f997,65d6bb0e977760de756971f7,65d6bc166cbfc377f68bedf0,0.0592,0.0601,0,8,8,40,1,onetwo,,,,,,,,,,,,,,,,,,,,,,,,,,,,,,,,,,,,,,,,,,,,,,,,,,,,,,,,,,,,,,,,,,,,,,,,,,,,,,,,,,,,,,,,,,,,,,,,,,,,,,,,,,,,,,,,,,,,,,,,,,,,,,,,,,,,,,,,,
,,61574002e457b8c50f26f997,2024-02-21_21h07.30.785,kallum_motion_pilot,2023.2.2,Win32,74.07407407,61574002e457b8c50f26f997,65d6bb0e977760de756971f7,65d6bc166cbfc377f68bedf0,0.0609,0.0611,0,9,9,153,1,fiveseven,,,,,,,,,,,,,,,,,,,,,,,,,,,,,,,,,,,,,,,,,,,,,,,,,,,,,,,,,,,,,,,,,,,,,,,,,,,,,,,,,,,,,,,,,,,,,,,,,,,,,,,,,,,,,,,,,,,,,,,,,,,,,,,,,,,,,,,,,
,,61574002e457b8c50f26f997,2024-02-21_21h07.30.785,kallum_motion_pilot,2023.2.2,Win32,74.07407407,61574002e457b8c50f26f997,65d6bb0e977760de756971f7,65d6bc166cbfc377f68bedf0,0.0613,0.0615,0,10,10,57,1,onethree,,,,,,,,,,,,,,,,,,,,,,,,,,,,,,,,,,,,,,,,,,,,,,,,,,,,,,,,,,,,,,,,,,,,,,,,,,,,,,,,,,,,,,,,,,,,,,,,,,,,,,,,,,,,,,,,,,,,,,,,,,,,,,,,,,,,,,,,,
,,61574002e457b8c50f26f997,2024-02-21_21h07.30.785,kallum_motion_pilot,2023.2.2,Win32,74.07407407,61574002e457b8c50f26f997,65d6bb0e977760de756971f7,65d6bc166cbfc377f68bedf0,0.0617,0.0617,0,11,11,141,1,seveneight,,,,,,,,,,,,,,,,,,,,,,,,,,,,,,,,,,,,,,,,,,,,,,,,,,,,,,,,,,,,,,,,,,,,,,,,,,,,,,,,,,,,,,,,,,,,,,,,,,,,,,,,,,,,,,,,,,,,,,,,,,,,,,,,,,,,,,,,,
,,61574002e457b8c50f26f997,2024-02-21_21h07.30.785,kallum_motion_pilot,2023.2.2,Win32,74.07407407,61574002e457b8c50f26f997,65d6bb0e977760de756971f7,65d6bc166cbfc377f68bedf0,0.0619,0.0621,0,12,12,152,1,fivesix,,,,,,,,,,,,,,,,,,,,,,,,,,,,,,,,,,,,,,,,,,,,,,,,,,,,,,,,,,,,,,,,,,,,,,,,,,,,,,,,,,,,,,,,,,,,,,,,,,,,,,,,,,,,,,,,,,,,,,,,,,,,,,,,,,,,,,,,,
,,61574002e457b8c50f26f997,2024-02-21_21h07.30.785,kallum_motion_pilot,2023.2.2,Win32,74.07407407,61574002e457b8c50f26f997,65d6bb0e977760de756971f7,65d6bc166cbfc377f68bedf0,0.0623,0.0625,0,13,13,147,1,sixeight,,,,,,,,,,,,,,,,,,,,,,,,,,,,,,,,,,,,,,,,,,,,,,,,,,,,,,,,,,,,,,,,,,,,,,,,,,,,,,,,,,,,,,,,,,,,,,,,,,,,,,,,,,,,,,,,,,,,,,,,,,,,,,,,,,,,,,,,,
,,61574002e457b8c50f26f997,2024-02-21_21h07.30.785,kallum_motion_pilot,2023.2.2,Win32,74.07407407,61574002e457b8c50f26f997,65d6bb0e977760de756971f7,65d6bc166cbfc377f68bedf0,0.0626,0.0627,0,14,14,87,1,eightseven,,,,,,,,,,,,,,,,,,,,,,,,,,,,,,,,,,,,,,,,,,,,,,,,,,,,,,,,,,,,,,,,,,,,,,,,,,,,,,,,,,,,,,,,,,,,,,,,,,,,,,,,,,,,,,,,,,,,,,,,,,,,,,,,,,,,,,,,,
,,61574002e457b8c50f26f997,2024-02-21_21h07.30.785,kallum_motion_pilot,2023.2.2,Win32,74.07407407,61574002e457b8c50f26f997,65d6bb0e977760de756971f7,65d6bc166cbfc377f68bedf0,0.0629,0.0629,0,15,15,115,1,sixeight,,,,,,,,,,,,,,,,,,,,,,,,,,,,,,,,,,,,,,,,,,,,,,,,,,,,,,,,,,,,,,,,,,,,,,,,,,,,,,,,,,,,,,,,,,,,,,,,,,,,,,,,,,,,,,,,,,,,,,,,,,,,,,,,,,,,,,,,,
,,61574002e457b8c50f26f997,2024-02-21_21h07.30.785,kallum_motion_pilot,2023.2.2,Win32,74.07407407,61574002e457b8c50f26f997,65d6bb0e977760de756971f7,65d6bc166cbfc377f68bedf0,0.0631,0.0632,0,16,16,136,1,fivesix,,,,,,,,,,,,,,,,,,,,,,,,,,,,,,,,,,,,,,,,,,,,,,,,,,,,,,,,,,,,,,,,,,,,,,,,,,,,,,,,,,,,,,,,,,,,,,,,,,,,,,,,,,,,,,,,,,,,,,,,,,,,,,,,,,,,,,,,,
,,61574002e457b8c50f26f997,2024-02-21_21h07.30.785,kallum_motion_pilot,2023.2.2,Win32,74.07407407,61574002e457b8c50f26f997,65d6bb0e977760de756971f7,65d6bc166cbfc377f68bedf0,0.0634,0.0635,0,17,17,89,1,fiveseven,,,,,,,,,,,,,,,,,,,,,,,,,,,,,,,,,,,,,,,,,,,,,,,,,,,,,,,,,,,,,,,,,,,,,,,,,,,,,,,,,,,,,,,,,,,,,,,,,,,,,,,,,,,,,,,,,,,,,,,,,,,,,,,,,,,,,,,,,
,,61574002e457b8c50f26f997,2024-02-21_21h07.30.785,kallum_motion_pilot,2023.2.2,Win32,74.07407407,61574002e457b8c50f26f997,65d6bb0e977760de756971f7,65d6bc166cbfc377f68bedf0,0.0637,0.0638,0,18,18,137,1,fiveseven,,,,,,,,,,,,,,,,,,,,,,,,,,,,,,,,,,,,,,,,,,,,,,,,,,,,,,,,,,,,,,,,,,,,,,,,,,,,,,,,,,,,,,,,,,,,,,,,,,,,,,,,,,,,,,,,,,,,,,,,,,,,,,,,,,,,,,,,,
,,61574002e457b8c50f26f997,2024-02-21_21h07.30.785,kallum_motion_pilot,2023.2.2,Win32,74.07407407,61574002e457b8c50f26f997,65d6bb0e977760de756971f7,65d6bc166cbfc377f68bedf0,0.0639,0.0641,0,19,19,78,1,fourtwo,,,,,,,,,,,,,,,,,,,,,,,,,,,,,,,,,,,,,,,,,,,,,,,,,,,,,,,,,,,,,,,,,,,,,,,,,,,,,,,,,,,,,,,,,,,,,,,,,,,,,,,,,,,,,,,,,,,,,,,,,,,,,,,,,,,,,,,,,
,,61574002e457b8c50f26f997,2024-02-21_21h07.30.785,kallum_motion_pilot,2023.2.2,Win32,74.07407407,61574002e457b8c50f26f997,65d6bb0e977760de756971f7,65d6bc166cbfc377f68bedf0,0.0642,0.0644,0,20,20,84,1,sevenfive,,,,,,,,,,,,,,,,,,,,,,,,,,,,,,,,,,,,,,,,,,,,,,,,,,,,,,,,,,,,,,,,,,,,,,,,,,,,,,,,,,,,,,,,,,,,,,,,,,,,,,,,,,,,,,,,,,,,,,,,,,,,,,,,,,,,,,,,,
,,61574002e457b8c50f26f997,2024-02-21_21h07.30.785,kallum_motion_pilot,2023.2.2,Win32,74.07407407,61574002e457b8c50f26f997,65d6bb0e977760de756971f7,65d6bc166cbfc377f68bedf0,0.0644,0.0645,0,21,21,124,1,sevenfive,,,,,,,,,,,,,,,,,,,,,,,,,,,,,,,,,,,,,,,,,,,,,,,,,,,,,,,,,,,,,,,,,,,,,,,,,,,,,,,,,,,,,,,,,,,,,,,,,,,,,,,,,,,,,,,,,,,,,,,,,,,,,,,,,,,,,,,,,
,,61574002e457b8c50f26f997,2024-02-21_21h07.30.785,kallum_motion_pilot,2023.2.2,Win32,74.07407407,61574002e457b8c50f26f997,65d6bb0e977760de756971f7,65d6bc166cbfc377f68bedf0,0.0648,0.0648,0,22,22,83,1,sixeight,,,,,,,,,,,,,,,,,,,,,,,,,,,,,,,,,,,,,,,,,,,,,,,,,,,,,,,,,,,,,,,,,,,,,,,,,,,,,,,,,,,,,,,,,,,,,,,,,,,,,,,,,,,,,,,,,,,,,,,,,,,,,,,,,,,,,,,,,
,,61574002e457b8c50f26f997,2024-02-21_21h07.30.785,kallum_motion_pilot,2023.2.2,Win32,74.07407407,61574002e457b8c50f26f997,65d6bb0e977760de756971f7,65d6bc166cbfc377f68bedf0,0.065,0.0651,0,23,23,139,1,sixeight,,,,,,,,,,,,,,,,,,,,,,,,,,,,,,,,,,,,,,,,,,,,,,,,,,,,,,,,,,,,,,,,,,,,,,,,,,,,,,,,,,,,,,,,,,,,,,,,,,,,,,,,,,,,,,,,,,,,,,,,,,,,,,,,,,,,,,,,,
,,61574002e457b8c50f26f997,2024-02-21_21h07.30.785,kallum_motion_pilot,2023.2.2,Win32,74.07407407,61574002e457b8c50f26f997,65d6bb0e977760de756971f7,65d6bc166cbfc377f68bedf0,0.0653,0.0654,0,24,24,131,1,sixeight,,,,,,,,,,,,,,,,,,,,,,,,,,,,,,,,,,,,,,,,,,,,,,,,,,,,,,,,,,,,,,,,,,,,,,,,,,,,,,,,,,,,,,,,,,,,,,,,,,,,,,,,,,,,,,,,,,,,,,,,,,,,,,,,,,,,,,,,,
,,61574002e457b8c50f26f997,2024-02-21_21h07.30.785,kallum_motion_pilot,2023.2.2,Win32,74.07407407,61574002e457b8c50f26f997,65d6bb0e977760de756971f7,65d6bc166cbfc377f68bedf0,0.0655,0.0657,0,25,25,45,1,threefour,,,,,,,,,,,,,,,,,,,,,,,,,,,,,,,,,,,,,,,,,,,,,,,,,,,,,,,,,,,,,,,,,,,,,,,,,,,,,,,,,,,,,,,,,,,,,,,,,,,,,,,,,,,,,,,,,,,,,,,,,,,,,,,,,,,,,,,,,
,,61574002e457b8c50f26f997,2024-02-21_21h07.30.785,kallum_motion_pilot,2023.2.2,Win32,74.07407407,61574002e457b8c50f26f997,65d6bb0e977760de756971f7,65d6bc166cbfc377f68bedf0,0.0658,0.0659,0,26,26,134,1,eightsix,,,,,,,,,,,,,,,,,,,,,,,,,,,,,,,,,,,,,,,,,,,,,,,,,,,,,,,,,,,,,,,,,,,,,,,,,,,,,,,,,,,,,,,,,,,,,,,,,,,,,,,,,,,,,,,,,,,,,,,,,,,,,,,,,,,,,,,,,
,,61574002e457b8c50f26f997,2024-02-21_21h07.30.785,kallum_motion_pilot,2023.2.2,Win32,74.07407407,61574002e457b8c50f26f997,65d6bb0e977760de756971f7,65d6bc166cbfc377f68bedf0,0.066,0.0662,0,27,27,148,1,sevenfive,,,,,,,,,,,,,,,,,,,,,,,,,,,,,,,,,,,,,,,,,,,,,,,,,,,,,,,,,,,,,,,,,,,,,,,,,,,,,,,,,,,,,,,,,,,,,,,,,,,,,,,,,,,,,,,,,,,,,,,,,,,,,,,,,,,,,,,,,
,,61574002e457b8c50f26f997,2024-02-21_21h07.30.785,kallum_motion_pilot,2023.2.2,Win32,74.07407407,61574002e457b8c50f26f997,65d6bb0e977760de756971f7,65d6bc166cbfc377f68bedf0,0.0663,0.0664,0,28,28,38,1,fourtwo,,,,,,,,,,,,,,,,,,,,,,,,,,,,,,,,,,,,,,,,,,,,,,,,,,,,,,,,,,,,,,,,,,,,,,,,,,,,,,,,,,,,,,,,,,,,,,,,,,,,,,,,,,,,,,,,,,,,,,,,,,,,,,,,,,,,,,,,,
,,61574002e457b8c50f26f997,2024-02-21_21h07.30.785,kallum_motion_pilot,2023.2.2,Win32,74.07407407,61574002e457b8c50f26f997,65d6bb0e977760de756971f7,65d6bc166cbfc377f68bedf0,0.0665,0.0667,0,29,29,8,1,onetwo,,,,,,,,,,,,,,,,,,,,,,,,,,,,,,,,,,,,,,,,,,,,,,,,,,,,,,,,,,,,,,,,,,,,,,,,,,,,,,,,,,,,,,,,,,,,,,,,,,,,,,,,,,,,,,,,,,,,,,,,,,,,,,,,,,,,,,,,,
,,61574002e457b8c50f26f997,2024-02-21_21h07.30.785,kallum_motion_pilot,2023.2.2,Win32,74.07407407,61574002e457b8c50f26f997,65d6bb0e977760de756971f7,65d6bc166cbfc377f68bedf0,0.0669,0.0671,0,30,30,18,1,twoone,,,,,,,,,,,,,,,,,,,,,,,,,,,,,,,,,,,,,,,,,,,,,,,,,,,,,,,,,,,,,,,,,,,,,,,,,,,,,,,,,,,,,,,,,,,,,,,,,,,,,,,,,,,,,,,,,,,,,,,,,,,,,,,,,,,,,,,,,
,,61574002e457b8c50f26f997,2024-02-21_21h07.30.785,kallum_motion_pilot,2023.2.2,Win32,74.07407407,61574002e457b8c50f26f997,65d6bb0e977760de756971f7,65d6bc166cbfc377f68bedf0,0.0675,0.0676,0,31,31,75,1,twofour,,,,,,,,,,,,,,,,,,,,,,,,,,,,,,,,,,,,,,,,,,,,,,,,,,,,,,,,,,,,,,,,,,,,,,,,,,,,,,,,,,,,,,,,,,,,,,,,,,,,,,,,,,,,,,,,,,,,,,,,,,,,,,,,,,,,,,,,,
,,61574002e457b8c50f26f997,2024-02-21_21h07.30.785,kallum_motion_pilot,2023.2.2,Win32,74.07407407,61574002e457b8c50f26f997,65d6bb0e977760de756971f7,65d6bc166cbfc377f68bedf0,0.0681,0.0683,0,32,32,110,1,eightsix,,,,,,,,,,,,,,,,,,,,,,,,,,,,,,,,,,,,,,,,,,,,,,,,,,,,,,,,,,,,,,,,,,,,,,,,,,,,,,,,,,,,,,,,,,,,,,,,,,,,,,,,,,,,,,,,,,,,,,,,,,,,,,,,,,,,,,,,,
,,61574002e457b8c50f26f997,2024-02-21_21h07.30.785,kallum_motion_pilot,2023.2.2,Win32,74.07407407,61574002e457b8c50f26f997,65d6bb0e977760de756971f7,65d6bc166cbfc377f68bedf0,0.0685,0.0687,0,33,33,97,1,fiveseven,,,,,,,,,,,,,,,,,,,,,,,,,,,,,,,,,,,,,,,,,,,,,,,,,,,,,,,,,,,,,,,,,,,,,,,,,,,,,,,,,,,,,,,,,,,,,,,,,,,,,,,,,,,,,,,,,,,,,,,,,,,,,,,,,,,,,,,,,
,,61574002e457b8c50f26f997,2024-02-21_21h07.30.785,kallum_motion_pilot,2023.2.2,Win32,74.07407407,61574002e457b8c50f26f997,65d6bb0e977760de756971f7,65d6bc166cbfc377f68bedf0,0.0689,0.0692,0,34,34,106,1,sixfive,,,,,,,,,,,,,,,,,,,,,,,,,,,,,,,,,,,,,,,,,,,,,,,,,,,,,,,,,,,,,,,,,,,,,,,,,,,,,,,,,,,,,,,,,,,,,,,,,,,,,,,,,,,,,,,,,,,,,,,,,,,,,,,,,,,,,,,,,
,,61574002e457b8c50f26f997,2024-02-21_21h07.30.785,kallum_motion_pilot,2023.2.2,Win32,74.07407407,61574002e457b8c50f26f997,65d6bb0e977760de756971f7,65d6bc166cbfc377f68bedf0,0.0696,0.0699,0,35,35,12,1,threeone,,,,,,,,,,,,,,,,,,,,,,,,,,,,,,,,,,,,,,,,,,,,,,,,,,,,,,,,,,,,,,,,,,,,,,,,,,,,,,,,,,,,,,,,,,,,,,,,,,,,,,,,,,,,,,,,,,,,,,,,,,,,,,,,,,,,,,,,,
,,61574002e457b8c50f26f997,2024-02-21_21h07.30.785,kallum_motion_pilot,2023.2.2,Win32,74.07407407,61574002e457b8c50f26f997,65d6bb0e977760de756971f7,65d6bc166cbfc377f68bedf0,0.0702,0.0707,0,36,36,128,1,fivesix,,,,,,,,,,,,,,,,,,,,,,,,,,,,,,,,,,,,,,,,,,,,,,,,,,,,,,,,,,,,,,,,,,,,,,,,,,,,,,,,,,,,,,,,,,,,,,,,,,,,,,,,,,,,,,,,,,,,,,,,,,,,,,,,,,,,,,,,,
,,61574002e457b8c50f26f997,2024-02-21_21h07.30.785,kallum_motion_pilot,2023.2.2,Win32,74.07407407,61574002e457b8c50f26f997,65d6bb0e977760de756971f7,65d6bc166cbfc377f68bedf0,0.0709,0.0711,0,37,37,146,1,sixfive,,,,,,,,,,,,,,,,,,,,,,,,,,,,,,,,,,,,,,,,,,,,,,,,,,,,,,,,,,,,,,,,,,,,,,,,,,,,,,,,,,,,,,,,,,,,,,,,,,,,,,,,,,,,,,,,,,,,,,,,,,,,,,,,,,,,,,,,,
,,61574002e457b8c50f26f997,2024-02-21_21h07.30.785,kallum_motion_pilot,2023.2.2,Win32,74.07407407,61574002e457b8c50f26f997,65d6bb0e977760de756971f7,65d6bc166cbfc377f68bedf0,0.0712,0.0713,0,38,38,81,1,fiveseven,,,,,,,,,,,,,,,,,,,,,,,,,,,,,,,,,,,,,,,,,,,,,,,,,,,,,,,,,,,,,,,,,,,,,,,,,,,,,,,,,,,,,,,,,,,,,,,,,,,,,,,,,,,,,,,,,,,,,,,,,,,,,,,,,,,,,,,,,
,,61574002e457b8c50f26f997,2024-02-21_21h07.30.785,kallum_motion_pilot,2023.2.2,Win32,74.07407407,61574002e457b8c50f26f997,65d6bb0e977760de756971f7,65d6bc166cbfc377f68bedf0,0.0715,0.0716,0,39,39,70,1,fourtwo,,,,,,,,,,,,,,,,,,,,,,,,,,,,,,,,,,,,,,,,,,,,,,,,,,,,,,,,,,,,,,,,,,,,,,,,,,,,,,,,,,,,,,,,,,,,,,,,,,,,,,,,,,,,,,,,,,,,,,,,,,,,,,,,,,,,,,,,,
,,61574002e457b8c50f26f997,2024-02-21_21h07.30.785,kallum_motion_pilot,2023.2.2,Win32,74.07407407,61574002e457b8c50f26f997,65d6bb0e977760de756971f7,65d6bc166cbfc377f68bedf0,0.0718,0.0719,0,40,40,109,1,seveneight,,,,,,,,,,,,,,,,,,,,,,,,,,,,,,,,,,,,,,,,,,,,,,,,,,,,,,,,,,,,,,,,,,,,,,,,,,,,,,,,,,,,,,,,,,,,,,,,,,,,,,,,,,,,,,,,,,,,,,,,,,,,,,,,,,,,,,,,,
,,61574002e457b8c50f26f997,2024-02-21_21h07.30.785,kallum_motion_pilot,2023.2.2,Win32,74.07407407,61574002e457b8c50f26f997,65d6bb0e977760de756971f7,65d6bc166cbfc377f68bedf0,0.0721,0.0722,0,41,41,80,1,fivesix,,,,,,,,,,,,,,,,,,,,,,,,,,,,,,,,,,,,,,,,,,,,,,,,,,,,,,,,,,,,,,,,,,,,,,,,,,,,,,,,,,,,,,,,,,,,,,,,,,,,,,,,,,,,,,,,,,,,,,,,,,,,,,,,,,,,,,,,,
,,61574002e457b8c50f26f997,2024-02-21_21h07.30.785,kallum_motion_pilot,2023.2.2,Win32,74.07407407,61574002e457b8c50f26f997,65d6bb0e977760de756971f7,65d6bc166cbfc377f68bedf0,0.0723,0.0724,0,42,42,6,1,fourtwo,,,,,,,,,,,,,,,,,,,,,,,,,,,,,,,,,,,,,,,,,,,,,,,,,,,,,,,,,,,,,,,,,,,,,,,,,,,,,,,,,,,,,,,,,,,,,,,,,,,,,,,,,,,,,,,,,,,,,,,,,,,,,,,,,,,,,,,,,
,,61574002e457b8c50f26f997,2024-02-21_21h07.30.785,kallum_motion_pilot,2023.2.2,Win32,74.07407407,61574002e457b8c50f26f997,65d6bb0e977760de756971f7,65d6bc166cbfc377f68bedf0,0.0726,0.0727,0,43,43,105,1,fiveseven,,,,,,,,,,,,,,,,,,,,,,,,,,,,,,,,,,,,,,,,,,,,,,,,,,,,,,,,,,,,,,,,,,,,,,,,,,,,,,,,,,,,,,,,,,,,,,,,,,,,,,,,,,,,,,,,,,,,,,,,,,,,,,,,,,,,,,,,,
,,61574002e457b8c50f26f997,2024-02-21_21h07.30.785,kallum_motion_pilot,2023.2.2,Win32,74.07407407,61574002e457b8c50f26f997,65d6bb0e977760de756971f7,65d6bc166cbfc377f68bedf0,0.0728,0.073,0,44,44,112,1,fivesix,,,,,,,,,,,,,,,,,,,,,,,,,,,,,,,,,,,,,,,,,,,,,,,,,,,,,,,,,,,,,,,,,,,,,,,,,,,,,,,,,,,,,,,,,,,,,,,,,,,,,,,,,,,,,,,,,,,,,,,,,,,,,,,,,,,,,,,,,
,,61574002e457b8c50f26f997,2024-02-21_21h07.30.785,kallum_motion_pilot,2023.2.2,Win32,74.07407407,61574002e457b8c50f26f997,65d6bb0e977760de756971f7,65d6bc166cbfc377f68bedf0,0.0732,0.0732,0,45,45,68,1,threeone,,,,,,,,,,,,,,,,,,,,,,,,,,,,,,,,,,,,,,,,,,,,,,,,,,,,,,,,,,,,,,,,,,,,,,,,,,,,,,,,,,,,,,,,,,,,,,,,,,,,,,,,,,,,,,,,,,,,,,,,,,,,,,,,,,,,,,,,,
,,61574002e457b8c50f26f997,2024-02-21_21h07.30.785,kallum_motion_pilot,2023.2.2,Win32,74.07407407,61574002e457b8c50f26f997,65d6bb0e977760de756971f7,65d6bc166cbfc377f68bedf0,0.0734,0.0736,0,46,46,145,1,fiveseven,,,,,,,,,,,,,,,,,,,,,,,,,,,,,,,,,,,,,,,,,,,,,,,,,,,,,,,,,,,,,,,,,,,,,,,,,,,,,,,,,,,,,,,,,,,,,,,,,,,,,,,,,,,,,,,,,,,,,,,,,,,,,,,,,,,,,,,,,
,,61574002e457b8c50f26f997,2024-02-21_21h07.30.785,kallum_motion_pilot,2023.2.2,Win32,74.07407407,61574002e457b8c50f26f997,65d6bb0e977760de756971f7,65d6bc166cbfc377f68bedf0,0.0737,0.0739,0,47,47,51,1,twofour,,,,,,,,,,,,,,,,,,,,,,,,,,,,,,,,,,,,,,,,,,,,,,,,,,,,,,,,,,,,,,,,,,,,,,,,,,,,,,,,,,,,,,,,,,,,,,,,,,,,,,,,,,,,,,,,,,,,,,,,,,,,,,,,,,,,,,,,,
,,61574002e457b8c50f26f997,2024-02-21_21h07.30.785,kallum_motion_pilot,2023.2.2,Win32,74.07407407,61574002e457b8c50f26f997,65d6bb0e977760de756971f7,65d6bc166cbfc377f68bedf0,0.074,0.0741,0,48,48,23,1,fourthree,,,,,,,,,,,,,,,,,,,,,,,,,,,,,,,,,,,,,,,,,,,,,,,,,,,,,,,,,,,,,,,,,,,,,,,,,,,,,,,,,,,,,,,,,,,,,,,,,,,,,,,,,,,,,,,,,,,,,,,,,,,,,,,,,,,,,,,,,
,,61574002e457b8c50f26f997,2024-02-21_21h07.30.785,kallum_motion_pilot,2023.2.2,Win32,74.07407407,61574002e457b8c50f26f997,65d6bb0e977760de756971f7,65d6bc166cbfc377f68bedf0,0.0742,0.0744,0,49,49,125,1,seveneight,,,,,,,,,,,,,,,,,,,,,,,,,,,,,,,,,,,,,,,,,,,,,,,,,,,,,,,,,,,,,,,,,,,,,,,,,,,,,,,,,,,,,,,,,,,,,,,,,,,,,,,,,,,,,,,,,,,,,,,,,,,,,,,,,,,,,,,,,
,,61574002e457b8c50f26f997,2024-02-21_21h07.30.785,kallum_motion_pilot,2023.2.2,Win32,74.07407407,61574002e457b8c50f26f997,65d6bb0e977760de756971f7,65d6bc166cbfc377f68bedf0,0.0745,0.0746,0,50,50,48,1,onetwo,,,,,,,,,,,,,,,,,,,,,,,,,,,,,,,,,,,,,,,,,,,,,,,,,,,,,,,,,,,,,,,,,,,,,,,,,,,,,,,,,,,,,,,,,,,,,,,,,,,,,,,,,,,,,,,,,,,,,,,,,,,,,,,,,,,,,,,,,
,,61574002e457b8c50f26f997,2024-02-21_21h07.30.785,kallum_motion_pilot,2023.2.2,Win32,74.07407407,61574002e457b8c50f26f997,65d6bb0e977760de756971f7,65d6bc166cbfc377f68bedf0,0.0749,0.0752,0,51,51,35,1,twofour,,,,,,,,,,,,,,,,,,,,,,,,,,,,,,,,,,,,,,,,,,,,,,,,,,,,,,,,,,,,,,,,,,,,,,,,,,,,,,,,,,,,,,,,,,,,,,,,,,,,,,,,,,,,,,,,,,,,,,,,,,,,,,,,,,,,,,,,,
,,61574002e457b8c50f26f997,2024-02-21_21h07.30.785,kallum_motion_pilot,2023.2.2,Win32,74.07407407,61574002e457b8c50f26f997,65d6bb0e977760de756971f7,65d6bc166cbfc377f68bedf0,0.0754,0.0757,0,52,52,157,1,seveneight,,,,,,,,,,,,,,,,,,,,,,,,,,,,,,,,,,,,,,,,,,,,,,,,,,,,,,,,,,,,,,,,,,,,,,,,,,,,,,,,,,,,,,,,,,,,,,,,,,,,,,,,,,,,,,,,,,,,,,,,,,,,,,,,,,,,,,,,,
,,61574002e457b8c50f26f997,2024-02-21_21h07.30.785,kallum_motion_pilot,2023.2.2,Win32,74.07407407,61574002e457b8c50f26f997,65d6bb0e977760de756971f7,65d6bc166cbfc377f68bedf0,0.0759,0.0762,0,53,53,88,1,fivesix,,,,,,,,,,,,,,,,,,,,,,,,,,,,,,,,,,,,,,,,,,,,,,,,,,,,,,,,,,,,,,,,,,,,,,,,,,,,,,,,,,,,,,,,,,,,,,,,,,,,,,,,,,,,,,,,,,,,,,,,,,,,,,,,,,,,,,,,,
,,61574002e457b8c50f26f997,2024-02-21_21h07.30.785,kallum_motion_pilot,2023.2.2,Win32,74.07407407,61574002e457b8c50f26f997,65d6bb0e977760de756971f7,65d6bc166cbfc377f68bedf0,0.0784,0.0785,0,54,54,98,1,sixfive,,,,,,,,,,,,,,,,,,,,,,,,,,,,,,,,,,,,,,,,,,,,,,,,,,,,,,,,,,,,,,,,,,,,,,,,,,,,,,,,,,,,,,,,,,,,,,,,,,,,,,,,,,,,,,,,,,,,,,,,,,,,,,,,,,,,,,,,,
,,61574002e457b8c50f26f997,2024-02-21_21h07.30.785,kallum_motion_pilot,2023.2.2,Win32,74.07407407,61574002e457b8c50f26f997,65d6bb0e977760de756971f7,65d6bc166cbfc377f68bedf0,0.0791,0.0791,0,55,55,90,1,sixfive,,,,,,,,,,,,,,,,,,,,,,,,,,,,,,,,,,,,,,,,,,,,,,,,,,,,,,,,,,,,,,,,,,,,,,,,,,,,,,,,,,,,,,,,,,,,,,,,,,,,,,,,,,,,,,,,,,,,,,,,,,,,,,,,,,,,,,,,,
,,61574002e457b8c50f26f997,2024-02-21_21h07.30.785,kallum_motion_pilot,2023.2.2,Win32,74.07407407,61574002e457b8c50f26f997,65d6bb0e977760de756971f7,65d6bc166cbfc377f68bedf0,0.0793,0.0794,0,56,56,130,1,sixfive,,,,,,,,,,,,,,,,,,,,,,,,,,,,,,,,,,,,,,,,,,,,,,,,,,,,,,,,,,,,,,,,,,,,,,,,,,,,,,,,,,,,,,,,,,,,,,,,,,,,,,,,,,,,,,,,,,,,,,,,,,,,,,,,,,,,,,,,,
,,61574002e457b8c50f26f997,2024-02-21_21h07.30.785,kallum_motion_pilot,2023.2.2,Win32,74.07407407,61574002e457b8c50f26f997,65d6bb0e977760de756971f7,65d6bc166cbfc377f68bedf0,0.0796,0.0797,0,57,57,151,1,eightseven,,,,,,,,,,,,,,,,,,,,,,,,,,,,,,,,,,,,,,,,,,,,,,,,,,,,,,,,,,,,,,,,,,,,,,,,,,,,,,,,,,,,,,,,,,,,,,,,,,,,,,,,,,,,,,,,,,,,,,,,,,,,,,,,,,,,,,,,,
,,61574002e457b8c50f26f997,2024-02-21_21h07.30.785,kallum_motion_pilot,2023.2.2,Win32,74.07407407,61574002e457b8c50f26f997,65d6bb0e977760de756971f7,65d6bc166cbfc377f68bedf0,0.0799,0.08,0,58,58,140,1,sevenfive,,,,,,,,,,,,,,,,,,,,,,,,,,,,,,,,,,,,,,,,,,,,,,,,,,,,,,,,,,,,,,,,,,,,,,,,,,,,,,,,,,,,,,,,,,,,,,,,,,,,,,,,,,,,,,,,,,,,,,,,,,,,,,,,,,,,,,,,,
,,61574002e457b8c50f26f997,2024-02-21_21h07.30.785,kallum_motion_pilot,2023.2.2,Win32,74.07407407,61574002e457b8c50f26f997,65d6bb0e977760de756971f7,65d6bc166cbfc377f68bedf0,0.0802,0.0804,0,59,59,10,1,twoone,,,,,,,,,,,,,,,,,,,,,,,,,,,,,,,,,,,,,,,,,,,,,,,,,,,,,,,,,,,,,,,,,,,,,,,,,,,,,,,,,,,,,,,,,,,,,,,,,,,,,,,,,,,,,,,,,,,,,,,,,,,,,,,,,,,,,,,,,
,,61574002e457b8c50f26f997,2024-02-21_21h07.30.785,kallum_motion_pilot,2023.2.2,Win32,74.07407407,61574002e457b8c50f26f997,65d6bb0e977760de756971f7,65d6bc166cbfc377f68bedf0,0.0805,0.0805,0,60,60,149,1,seveneight,,,,,,,,,,,,,,,,,,,,,,,,,,,,,,,,,,,,,,,,,,,,,,,,,,,,,,,,,,,,,,,,,,,,,,,,,,,,,,,,,,,,,,,,,,,,,,,,,,,,,,,,,,,,,,,,,,,,,,,,,,,,,,,,,,,,,,,,,
,,61574002e457b8c50f26f997,2024-02-21_21h07.30.785,kallum_motion_pilot,2023.2.2,Win32,74.07407407,61574002e457b8c50f26f997,65d6bb0e977760de756971f7,65d6bc166cbfc377f68bedf0,0.0807,0.0809,0,61,61,22,1,fourtwo,,,,,,,,,,,,,,,,,,,,,,,,,,,,,,,,,,,,,,,,,,,,,,,,,,,,,,,,,,,,,,,,,,,,,,,,,,,,,,,,,,,,,,,,,,,,,,,,,,,,,,,,,,,,,,,,,,,,,,,,,,,,,,,,,,,,,,,,,
,,61574002e457b8c50f26f997,2024-02-21_21h07.30.785,kallum_motion_pilot,2023.2.2,Win32,74.07407407,61574002e457b8c50f26f997,65d6bb0e977760de756971f7,65d6bc166cbfc377f68bedf0,0.081,0.0812,0,62,62,73,1,onethree,,,,,,,,,,,,,,,,,,,,,,,,,,,,,,,,,,,,,,,,,,,,,,,,,,,,,,,,,,,,,,,,,,,,,,,,,,,,,,,,,,,,,,,,,,,,,,,,,,,,,,,,,,,,,,,,,,,,,,,,,,,,,,,,,,,,,,,,,
,,61574002e457b8c50f26f997,2024-02-21_21h07.30.785,kallum_motion_pilot,2023.2.2,Win32,74.07407407,61574002e457b8c50f26f997,65d6bb0e977760de756971f7,65d6bc166cbfc377f68bedf0,0.0813,0.0815,0,63,63,49,1,onethree,,,,,,,,,,,,,,,,,,,,,,,,,,,,,,,,,,,,,,,,,,,,,,,,,,,,,,,,,,,,,,,,,,,,,,,,,,,,,,,,,,,,,,,,,,,,,,,,,,,,,,,,,,,,,,,,,,,,,,,,,,,,,,,,,,,,,,,,,
,,61574002e457b8c50f26f997,2024-02-21_21h07.30.785,kallum_motion_pilot,2023.2.2,Win32,74.07407407,61574002e457b8c50f26f997,65d6bb0e977760de756971f7,65d6bc166cbfc377f68bedf0,0.0816,0.0817,0,64,64,62,1,fourtwo,,,,,,,,,,,,,,,,,,,,,,,,,,,,,,,,,,,,,,,,,,,,,,,,,,,,,,,,,,,,,,,,,,,,,,,,,,,,,,,,,,,,,,,,,,,,,,,,,,,,,,,,,,,,,,,,,,,,,,,,,,,,,,,,,,,,,,,,,
,,61574002e457b8c50f26f997,2024-02-21_21h07.30.785,kallum_motion_pilot,2023.2.2,Win32,74.07407407,61574002e457b8c50f26f997,65d6bb0e977760de756971f7,65d6bc166cbfc377f68bedf0,0.0819,0.082,0,65,65,77,1,threefour,,,,,,,,,,,,,,,,,,,,,,,,,,,,,,,,,,,,,,,,,,,,,,,,,,,,,,,,,,,,,,,,,,,,,,,,,,,,,,,,,,,,,,,,,,,,,,,,,,,,,,,,,,,,,,,,,,,,,,,,,,,,,,,,,,,,,,,,,
,,61574002e457b8c50f26f997,2024-02-21_21h07.30.785,kallum_motion_pilot,2023.2.2,Win32,74.07407407,61574002e457b8c50f26f997,65d6bb0e977760de756971f7,65d6bc166cbfc377f68bedf0,0.0822,0.0823,0,66,66,0,1,onetwo,,,,,,,,,,,,,,,,,,,,,,,,,,,,,,,,,,,,,,,,,,,,,,,,,,,,,,,,,,,,,,,,,,,,,,,,,,,,,,,,,,,,,,,,,,,,,,,,,,,,,,,,,,,,,,,,,,,,,,,,,,,,,,,,,,,,,,,,,
,,61574002e457b8c50f26f997,2024-02-21_21h07.30.785,kallum_motion_pilot,2023.2.2,Win32,74.07407407,61574002e457b8c50f26f997,65d6bb0e977760de756971f7,65d6bc166cbfc377f68bedf0,0.0825,0.0827,0,67,67,27,1,twofour,,,,,,,,,,,,,,,,,,,,,,,,,,,,,,,,,,,,,,,,,,,,,,,,,,,,,,,,,,,,,,,,,,,,,,,,,,,,,,,,,,,,,,,,,,,,,,,,,,,,,,,,,,,,,,,,,,,,,,,,,,,,,,,,,,,,,,,,,
,,61574002e457b8c50f26f997,2024-02-21_21h07.30.785,kallum_motion_pilot,2023.2.2,Win32,74.07407407,61574002e457b8c50f26f997,65d6bb0e977760de756971f7,65d6bc166cbfc377f68bedf0,0.0827,0.0829,0,68,68,43,1,twofour,,,,,,,,,,,,,,,,,,,,,,,,,,,,,,,,,,,,,,,,,,,,,,,,,,,,,,,,,,,,,,,,,,,,,,,,,,,,,,,,,,,,,,,,,,,,,,,,,,,,,,,,,,,,,,,,,,,,,,,,,,,,,,,,,,,,,,,,,
,,61574002e457b8c50f26f997,2024-02-21_21h07.30.785,kallum_motion_pilot,2023.2.2,Win32,74.07407407,61574002e457b8c50f26f997,65d6bb0e977760de756971f7,65d6bc166cbfc377f68bedf0,0.083,0.0832,0,69,69,138,1,sixfive,,,,,,,,,,,,,,,,,,,,,,,,,,,,,,,,,,,,,,,,,,,,,,,,,,,,,,,,,,,,,,,,,,,,,,,,,,,,,,,,,,,,,,,,,,,,,,,,,,,,,,,,,,,,,,,,,,,,,,,,,,,,,,,,,,,,,,,,,
,,61574002e457b8c50f26f997,2024-02-21_21h07.30.785,kallum_motion_pilot,2023.2.2,Win32,74.07407407,61574002e457b8c50f26f997,65d6bb0e977760de756971f7,65d6bc166cbfc377f68bedf0,0.0833,0.0835,0,70,70,60,1,threeone,,,,,,,,,,,,,,,,,,,,,,,,,,,,,,,,,,,,,,,,,,,,,,,,,,,,,,,,,,,,,,,,,,,,,,,,,,,,,,,,,,,,,,,,,,,,,,,,,,,,,,,,,,,,,,,,,,,,,,,,,,,,,,,,,,,,,,,,,
,,61574002e457b8c50f26f997,2024-02-21_21h07.30.785,kallum_motion_pilot,2023.2.2,Win32,74.07407407,61574002e457b8c50f26f997,65d6bb0e977760de756971f7,65d6bc166cbfc377f68bedf0,0.0836,0.0838,0,71,71,34,1,twoone,,,,,,,,,,,,,,,,,,,,,,,,,,,,,,,,,,,,,,,,,,,,,,,,,,,,,,,,,,,,,,,,,,,,,,,,,,,,,,,,,,,,,,,,,,,,,,,,,,,,,,,,,,,,,,,,,,,,,,,,,,,,,,,,,,,,,,,,,
,,61574002e457b8c50f26f997,2024-02-21_21h07.30.785,kallum_motion_pilot,2023.2.2,Win32,74.07407407,61574002e457b8c50f26f997,65d6bb0e977760de756971f7,65d6bc166cbfc377f68bedf0,0.0839,0.0841,0,72,72,94,1,eightsix,,,,,,,,,,,,,,,,,,,,,,,,,,,,,,,,,,,,,,,,,,,,,,,,,,,,,,,,,,,,,,,,,,,,,,,,,,,,,,,,,,,,,,,,,,,,,,,,,,,,,,,,,,,,,,,,,,,,,,,,,,,,,,,,,,,,,,,,,
,,61574002e457b8c50f26f997,2024-02-21_21h07.30.785,kallum_motion_pilot,2023.2.2,Win32,74.07407407,61574002e457b8c50f26f997,65d6bb0e977760de756971f7,65d6bc166cbfc377f68bedf0,0.0842,0.0844,0,73,73,44,1,threeone,,,,,,,,,,,,,,,,,,,,,,,,,,,,,,,,,,,,,,,,,,,,,,,,,,,,,,,,,,,,,,,,,,,,,,,,,,,,,,,,,,,,,,,,,,,,,,,,,,,,,,,,,,,,,,,,,,,,,,,,,,,,,,,,,,,,,,,,,
,,61574002e457b8c50f26f997,2024-02-21_21h07.30.785,kallum_motion_pilot,2023.2.2,Win32,74.07407407,61574002e457b8c50f26f997,65d6bb0e977760de756971f7,65d6bc166cbfc377f68bedf0,0.0845,0.0846,0,74,74,32,1,onetwo,,,,,,,,,,,,,,,,,,,,,,,,,,,,,,,,,,,,,,,,,,,,,,,,,,,,,,,,,,,,,,,,,,,,,,,,,,,,,,,,,,,,,,,,,,,,,,,,,,,,,,,,,,,,,,,,,,,,,,,,,,,,,,,,,,,,,,,,,
,,61574002e457b8c50f26f997,2024-02-21_21h07.30.785,kallum_motion_pilot,2023.2.2,Win32,74.07407407,61574002e457b8c50f26f997,65d6bb0e977760de756971f7,65d6bc166cbfc377f68bedf0,0.0847,0.0849,0,75,75,28,1,threeone,,,,,,,,,,,,,,,,,,,,,,,,,,,,,,,,,,,,,,,,,,,,,,,,,,,,,,,,,,,,,,,,,,,,,,,,,,,,,,,,,,,,,,,,,,,,,,,,,,,,,,,,,,,,,,,,,,,,,,,,,,,,,,,,,,,,,,,,,
,,61574002e457b8c50f26f997,2024-02-21_21h07.30.785,kallum_motion_pilot,2023.2.2,Win32,74.07407407,61574002e457b8c50f26f997,65d6bb0e977760de756971f7,65d6bc166cbfc377f68bedf0,0.0852,0.0853,0,76,76,63,1,fourthree,,,,,,,,,,,,,,,,,,,,,,,,,,,,,,,,,,,,,,,,,,,,,,,,,,,,,,,,,,,,,,,,,,,,,,,,,,,,,,,,,,,,,,,,,,,,,,,,,,,,,,,,,,,,,,,,,,,,,,,,,,,,,,,,,,,,,,,,,
,,61574002e457b8c50f26f997,2024-02-21_21h07.30.785,kallum_motion_pilot,2023.2.2,Win32,74.07407407,61574002e457b8c50f26f997,65d6bb0e977760de756971f7,65d6bc166cbfc377f68bedf0,0.0876,0.0882,0,77,77,118,1,eightsix,,,,,,,,,,,,,,,,,,,,,,,,,,,,,,,,,,,,,,,,,,,,,,,,,,,,,,,,,,,,,,,,,,,,,,,,,,,,,,,,,,,,,,,,,,,,,,,,,,,,,,,,,,,,,,,,,,,,,,,,,,,,,,,,,,,,,,,,,
,,61574002e457b8c50f26f997,2024-02-21_21h07.30.785,kallum_motion_pilot,2023.2.2,Win32,74.07407407,61574002e457b8c50f26f997,65d6bb0e977760de756971f7,65d6bc166cbfc377f68bedf0,0.0884,0.0886,0,78,78,72,1,onetwo,,,,,,,,,,,,,,,,,,,,,,,,,,,,,,,,,,,,,,,,,,,,,,,,,,,,,,,,,,,,,,,,,,,,,,,,,,,,,,,,,,,,,,,,,,,,,,,,,,,,,,,,,,,,,,,,,,,,,,,,,,,,,,,,,,,,,,,,,
,,61574002e457b8c50f26f997,2024-02-21_21h07.30.785,kallum_motion_pilot,2023.2.2,Win32,74.07407407,61574002e457b8c50f26f997,65d6bb0e977760de756971f7,65d6bc166cbfc377f68bedf0,0.0886,0.0888,0,79,79,156,1,sevenfive,,,,,,,,,,,,,,,,,,,,,,,,,,,,,,,,,,,,,,,,,,,,,,,,,,,,,,,,,,,,,,,,,,,,,,,,,,,,,,,,,,,,,,,,,,,,,,,,,,,,,,,,,,,,,,,,,,,,,,,,,,,,,,,,,,,,,,,,,
,,61574002e457b8c50f26f997,2024-02-21_21h07.30.785,kallum_motion_pilot,2023.2.2,Win32,74.07407407,61574002e457b8c50f26f997,65d6bb0e977760de756971f7,65d6bc166cbfc377f68bedf0,0.089,0.0891,0,80,80,92,1,sevenfive,,,,,,,,,,,,,,,,,,,,,,,,,,,,,,,,,,,,,,,,,,,,,,,,,,,,,,,,,,,,,,,,,,,,,,,,,,,,,,,,,,,,,,,,,,,,,,,,,,,,,,,,,,,,,,,,,,,,,,,,,,,,,,,,,,,,,,,,,
,,61574002e457b8c50f26f997,2024-02-21_21h07.30.785,kallum_motion_pilot,2023.2.2,Win32,74.07407407,61574002e457b8c50f26f997,65d6bb0e977760de756971f7,65d6bc166cbfc377f68bedf0,0.0893,0.0894,0,81,81,76,1,threeone,,,,,,,,,,,,,,,,,,,,,,,,,,,,,,,,,,,,,,,,,,,,,,,,,,,,,,,,,,,,,,,,,,,,,,,,,,,,,,,,,,,,,,,,,,,,,,,,,,,,,,,,,,,,,,,,,,,,,,,,,,,,,,,,,,,,,,,,,
,,61574002e457b8c50f26f997,2024-02-21_21h07.30.785,kallum_motion_pilot,2023.2.2,Win32,74.07407407,61574002e457b8c50f26f997,65d6bb0e977760de756971f7,65d6bc166cbfc377f68bedf0,0.0895,0.0897,0,82,82,71,1,fourthree,,,,,,,,,,,,,,,,,,,,,,,,,,,,,,,,,,,,,,,,,,,,,,,,,,,,,,,,,,,,,,,,,,,,,,,,,,,,,,,,,,,,,,,,,,,,,,,,,,,,,,,,,,,,,,,,,,,,,,,,,,,,,,,,,,,,,,,,,
,,61574002e457b8c50f26f997,2024-02-21_21h07.30.785,kallum_motion_pilot,2023.2.2,Win32,74.07407407,61574002e457b8c50f26f997,65d6bb0e977760de756971f7,65d6bc166cbfc377f68bedf0,0.0899,0.09,0,83,83,21,1,threefour,,,,,,,,,,,,,,,,,,,,,,,,,,,,,,,,,,,,,,,,,,,,,,,,,,,,,,,,,,,,,,,,,,,,,,,,,,,,,,,,,,,,,,,,,,,,,,,,,,,,,,,,,,,,,,,,,,,,,,,,,,,,,,,,,,,,,,,,,
,,61574002e457b8c50f26f997,2024-02-21_21h07.30.785,kallum_motion_pilot,2023.2.2,Win32,74.07407407,61574002e457b8c50f26f997,65d6bb0e977760de756971f7,65d6bc166cbfc377f68bedf0,0.0902,0.0903,0,84,84,2,1,twoone,,,,,,,,,,,,,,,,,,,,,,,,,,,,,,,,,,,,,,,,,,,,,,,,,,,,,,,,,,,,,,,,,,,,,,,,,,,,,,,,,,,,,,,,,,,,,,,,,,,,,,,,,,,,,,,,,,,,,,,,,,,,,,,,,,,,,,,,,
,,61574002e457b8c50f26f997,2024-02-21_21h07.30.785,kallum_motion_pilot,2023.2.2,Win32,74.07407407,61574002e457b8c50f26f997,65d6bb0e977760de756971f7,65d6bc166cbfc377f68bedf0,0.0904,0.0906,0,85,85,4,1,threeone,,,,,,,,,,,,,,,,,,,,,,,,,,,,,,,,,,,,,,,,,,,,,,,,,,,,,,,,,,,,,,,,,,,,,,,,,,,,,,,,,,,,,,,,,,,,,,,,,,,,,,,,,,,,,,,,,,,,,,,,,,,,,,,,,,,,,,,,,
,,61574002e457b8c50f26f997,2024-02-21_21h07.30.785,kallum_motion_pilot,2023.2.2,Win32,74.07407407,61574002e457b8c50f26f997,65d6bb0e977760de756971f7,65d6bc166cbfc377f68bedf0,0.0908,0.0908,0,86,86,9,1,onethree,,,,,,,,,,,,,,,,,,,,,,,,,,,,,,,,,,,,,,,,,,,,,,,,,,,,,,,,,,,,,,,,,,,,,,,,,,,,,,,,,,,,,,,,,,,,,,,,,,,,,,,,,,,,,,,,,,,,,,,,,,,,,,,,,,,,,,,,,
,,61574002e457b8c50f26f997,2024-02-21_21h07.30.785,kallum_motion_pilot,2023.2.2,Win32,74.07407407,61574002e457b8c50f26f997,65d6bb0e977760de756971f7,65d6bc166cbfc377f68bedf0,0.091,0.0911,0,87,87,58,1,twoone,,,,,,,,,,,,,,,,,,,,,,,,,,,,,,,,,,,,,,,,,,,,,,,,,,,,,,,,,,,,,,,,,,,,,,,,,,,,,,,,,,,,,,,,,,,,,,,,,,,,,,,,,,,,,,,,,,,,,,,,,,,,,,,,,,,,,,,,,
,,61574002e457b8c50f26f997,2024-02-21_21h07.30.785,kallum_motion_pilot,2023.2.2,Win32,74.07407407,61574002e457b8c50f26f997,65d6bb0e977760de756971f7,65d6bc166cbfc377f68bedf0,0.0913,0.0914,0,88,88,36,1,threeone,,,,,,,,,,,,,,,,,,,,,,,,,,,,,,,,,,,,,,,,,,,,,,,,,,,,,,,,,,,,,,,,,,,,,,,,,,,,,,,,,,,,,,,,,,,,,,,,,,,,,,,,,,,,,,,,,,,,,,,,,,,,,,,,,,,,,,,,,
,,61574002e457b8c50f26f997,2024-02-21_21h07.30.785,kallum_motion_pilot,2023.2.2,Win32,74.07407407,61574002e457b8c50f26f997,65d6bb0e977760de756971f7,65d6bc166cbfc377f68bedf0,0.0916,0.0918,0,89,89,59,1,twofour,,,,,,,,,,,,,,,,,,,,,,,,,,,,,,,,,,,,,,,,,,,,,,,,,,,,,,,,,,,,,,,,,,,,,,,,,,,,,,,,,,,,,,,,,,,,,,,,,,,,,,,,,,,,,,,,,,,,,,,,,,,,,,,,,,,,,,,,,
,,61574002e457b8c50f26f997,2024-02-21_21h07.30.785,kallum_motion_pilot,2023.2.2,Win32,74.07407407,61574002e457b8c50f26f997,65d6bb0e977760de756971f7,65d6bc166cbfc377f68bedf0,0.0919,0.0921,0,90,90,55,1,fourthree,,,,,,,,,,,,,,,,,,,,,,,,,,,,,,,,,,,,,,,,,,,,,,,,,,,,,,,,,,,,,,,,,,,,,,,,,,,,,,,,,,,,,,,,,,,,,,,,,,,,,,,,,,,,,,,,,,,,,,,,,,,,,,,,,,,,,,,,,
,,61574002e457b8c50f26f997,2024-02-21_21h07.30.785,kallum_motion_pilot,2023.2.2,Win32,74.07407407,61574002e457b8c50f26f997,65d6bb0e977760de756971f7,65d6bc166cbfc377f68bedf0,0.0922,0.0924,0,91,91,161,1,fiveseven,,,,,,,,,,,,,,,,,,,,,,,,,,,,,,,,,,,,,,,,,,,,,,,,,,,,,,,,,,,,,,,,,,,,,,,,,,,,,,,,,,,,,,,,,,,,,,,,,,,,,,,,,,,,,,,,,,,,,,,,,,,,,,,,,,,,,,,,,
,,61574002e457b8c50f26f997,2024-02-21_21h07.30.785,kallum_motion_pilot,2023.2.2,Win32,74.07407407,61574002e457b8c50f26f997,65d6bb0e977760de756971f7,65d6bc166cbfc377f68bedf0,0.0925,0.0927,0,92,92,121,1,fiveseven,,,,,,,,,,,,,,,,,,,,,,,,,,,,,,,,,,,,,,,,,,,,,,,,,,,,,,,,,,,,,,,,,,,,,,,,,,,,,,,,,,,,,,,,,,,,,,,,,,,,,,,,,,,,,,,,,,,,,,,,,,,,,,,,,,,,,,,,,
,,61574002e457b8c50f26f997,2024-02-21_21h07.30.785,kallum_motion_pilot,2023.2.2,Win32,74.07407407,61574002e457b8c50f26f997,65d6bb0e977760de756971f7,65d6bc166cbfc377f68bedf0,0.0935,0.0938,0,93,93,41,1,onethree,,,,,,,,,,,,,,,,,,,,,,,,,,,,,,,,,,,,,,,,,,,,,,,,,,,,,,,,,,,,,,,,,,,,,,,,,,,,,,,,,,,,,,,,,,,,,,,,,,,,,,,,,,,,,,,,,,,,,,,,,,,,,,,,,,,,,,,,,
,,61574002e457b8c50f26f997,2024-02-21_21h07.30.785,kallum_motion_pilot,2023.2.2,Win32,74.07407407,61574002e457b8c50f26f997,65d6bb0e977760de756971f7,65d6bc166cbfc377f68bedf0,0.0946,0.0947,0,94,94,82,1,sixfive,,,,,,,,,,,,,,,,,,,,,,,,,,,,,,,,,,,,,,,,,,,,,,,,,,,,,,,,,,,,,,,,,,,,,,,,,,,,,,,,,,,,,,,,,,,,,,,,,,,,,,,,,,,,,,,,,,,,,,,,,,,,,,,,,,,,,,,,,
,,61574002e457b8c50f26f997,2024-02-21_21h07.30.785,kallum_motion_pilot,2023.2.2,Win32,74.07407407,61574002e457b8c50f26f997,65d6bb0e977760de756971f7,65d6bc166cbfc377f68bedf0,0.095,0.0952,0,95,95,5,1,threefour,,,,,,,,,,,,,,,,,,,,,,,,,,,,,,,,,,,,,,,,,,,,,,,,,,,,,,,,,,,,,,,,,,,,,,,,,,,,,,,,,,,,,,,,,,,,,,,,,,,,,,,,,,,,,,,,,,,,,,,,,,,,,,,,,,,,,,,,,
,,61574002e457b8c50f26f997,2024-02-21_21h07.30.785,kallum_motion_pilot,2023.2.2,Win32,74.07407407,61574002e457b8c50f26f997,65d6bb0e977760de756971f7,65d6bc166cbfc377f68bedf0,0.0953,0.0954,0,96,96,20,1,threeone,,,,,,,,,,,,,,,,,,,,,,,,,,,,,,,,,,,,,,,,,,,,,,,,,,,,,,,,,,,,,,,,,,,,,,,,,,,,,,,,,,,,,,,,,,,,,,,,,,,,,,,,,,,,,,,,,,,,,,,,,,,,,,,,,,,,,,,,,
,,61574002e457b8c50f26f997,2024-02-21_21h07.30.785,kallum_motion_pilot,2023.2.2,Win32,74.07407407,61574002e457b8c50f26f997,65d6bb0e977760de756971f7,65d6bc166cbfc377f68bedf0,0.0966,0.0969,0,97,97,31,1,fourthree,,,,,,,,,,,,,,,,,,,,,,,,,,,,,,,,,,,,,,,,,,,,,,,,,,,,,,,,,,,,,,,,,,,,,,,,,,,,,,,,,,,,,,,,,,,,,,,,,,,,,,,,,,,,,,,,,,,,,,,,,,,,,,,,,,,,,,,,,
,,61574002e457b8c50f26f997,2024-02-21_21h07.30.785,kallum_motion_pilot,2023.2.2,Win32,74.07407407,61574002e457b8c50f26f997,65d6bb0e977760de756971f7,65d6bc166cbfc377f68bedf0,0.0972,0.0973,0,98,98,26,1,twoone,,,,,,,,,,,,,,,,,,,,,,,,,,,,,,,,,,,,,,,,,,,,,,,,,,,,,,,,,,,,,,,,,,,,,,,,,,,,,,,,,,,,,,,,,,,,,,,,,,,,,,,,,,,,,,,,,,,,,,,,,,,,,,,,,,,,,,,,,
,,61574002e457b8c50f26f997,2024-02-21_21h07.30.785,kallum_motion_pilot,2023.2.2,Win32,74.07407407,61574002e457b8c50f26f997,65d6bb0e977760de756971f7,65d6bc166cbfc377f68bedf0,0.0976,0.0979,0,99,99,42,1,twoone,,,,,,,,,,,,,,,,,,,,,,,,,,,,,,,,,,,,,,,,,,,,,,,,,,,,,,,,,,,,,,,,,,,,,,,,,,,,,,,,,,,,,,,,,,,,,,,,,,,,,,,,,,,,,,,,,,,,,,,,,,,,,,,,,,,,,,,,,
,,61574002e457b8c50f26f997,2024-02-21_21h07.30.785,kallum_motion_pilot,2023.2.2,Win32,74.07407407,61574002e457b8c50f26f997,65d6bb0e977760de756971f7,65d6bc166cbfc377f68bedf0,0.0982,0.0983,0,100,100,108,1,sevenfive,,,,,,,,,,,,,,,,,,,,,,,,,,,,,,,,,,,,,,,,,,,,,,,,,,,,,,,,,,,,,,,,,,,,,,,,,,,,,,,,,,,,,,,,,,,,,,,,,,,,,,,,,,,,,,,,,,,,,,,,,,,,,,,,,,,,,,,,,
,,61574002e457b8c50f26f997,2024-02-21_21h07.30.785,kallum_motion_pilot,2023.2.2,Win32,74.07407407,61574002e457b8c50f26f997,65d6bb0e977760de756971f7,65d6bc166cbfc377f68bedf0,0.0984,0.0986,0,101,101,144,1,fivesix,,,,,,,,,,,,,,,,,,,,,,,,,,,,,,,,,,,,,,,,,,,,,,,,,,,,,,,,,,,,,,,,,,,,,,,,,,,,,,,,,,,,,,,,,,,,,,,,,,,,,,,,,,,,,,,,,,,,,,,,,,,,,,,,,,,,,,,,,
,,61574002e457b8c50f26f997,2024-02-21_21h07.30.785,kallum_motion_pilot,2023.2.2,Win32,74.07407407,61574002e457b8c50f26f997,65d6bb0e977760de756971f7,65d6bc166cbfc377f68bedf0,0.0989,0.0991,0,102,102,29,1,threefour,,,,,,,,,,,,,,,,,,,,,,,,,,,,,,,,,,,,,,,,,,,,,,,,,,,,,,,,,,,,,,,,,,,,,,,,,,,,,,,,,,,,,,,,,,,,,,,,,,,,,,,,,,,,,,,,,,,,,,,,,,,,,,,,,,,,,,,,,
,,61574002e457b8c50f26f997,2024-02-21_21h07.30.785,kallum_motion_pilot,2023.2.2,Win32,74.07407407,61574002e457b8c50f26f997,65d6bb0e977760de756971f7,65d6bc166cbfc377f68bedf0,0.0994,0.0995,0,103,103,3,1,twofour,,,,,,,,,,,,,,,,,,,,,,,,,,,,,,,,,,,,,,,,,,,,,,,,,,,,,,,,,,,,,,,,,,,,,,,,,,,,,,,,,,,,,,,,,,,,,,,,,,,,,,,,,,,,,,,,,,,,,,,,,,,,,,,,,,,,,,,,,
,,61574002e457b8c50f26f997,2024-02-21_21h07.30.785,kallum_motion_pilot,2023.2.2,Win32,74.07407407,61574002e457b8c50f26f997,65d6bb0e977760de756971f7,65d6bc166cbfc377f68bedf0,0.0997,0.0999,0,104,104,107,1,sixeight,,,,,,,,,,,,,,,,,,,,,,,,,,,,,,,,,,,,,,,,,,,,,,,,,,,,,,,,,,,,,,,,,,,,,,,,,,,,,,,,,,,,,,,,,,,,,,,,,,,,,,,,,,,,,,,,,,,,,,,,,,,,,,,,,,,,,,,,,
,,61574002e457b8c50f26f997,2024-02-21_21h07.30.785,kallum_motion_pilot,2023.2.2,Win32,74.07407407,61574002e457b8c50f26f997,65d6bb0e977760de756971f7,65d6bc166cbfc377f68bedf0,0.1002,0.1004,0,105,105,64,1,onetwo,,,,,,,,,,,,,,,,,,,,,,,,,,,,,,,,,,,,,,,,,,,,,,,,,,,,,,,,,,,,,,,,,,,,,,,,,,,,,,,,,,,,,,,,,,,,,,,,,,,,,,,,,,,,,,,,,,,,,,,,,,,,,,,,,,,,,,,,,
,,61574002e457b8c50f26f997,2024-02-21_21h07.30.785,kallum_motion_pilot,2023.2.2,Win32,74.07407407,61574002e457b8c50f26f997,65d6bb0e977760de756971f7,65d6bc166cbfc377f68bedf0,0.1008,0.1009,0,106,106,37,1,threefour,,,,,,,,,,,,,,,,,,,,,,,,,,,,,,,,,,,,,,,,,,,,,,,,,,,,,,,,,,,,,,,,,,,,,,,,,,,,,,,,,,,,,,,,,,,,,,,,,,,,,,,,,,,,,,,,,,,,,,,,,,,,,,,,,,,,,,,,,
,,61574002e457b8c50f26f997,2024-02-21_21h07.30.785,kallum_motion_pilot,2023.2.2,Win32,74.07407407,61574002e457b8c50f26f997,65d6bb0e977760de756971f7,65d6bc166cbfc377f68bedf0,0.1011,0.1013,0,107,107,66,1,twoone,,,,,,,,,,,,,,,,,,,,,,,,,,,,,,,,,,,,,,,,,,,,,,,,,,,,,,,,,,,,,,,,,,,,,,,,,,,,,,,,,,,,,,,,,,,,,,,,,,,,,,,,,,,,,,,,,,,,,,,,,,,,,,,,,,,,,,,,,
,,61574002e457b8c50f26f997,2024-02-21_21h07.30.785,kallum_motion_pilot,2023.2.2,Win32,74.07407407,61574002e457b8c50f26f997,65d6bb0e977760de756971f7,65d6bc166cbfc377f68bedf0,0.1014,0.1015,0,108,108,54,1,fourtwo,,,,,,,,,,,,,,,,,,,,,,,,,,,,,,,,,,,,,,,,,,,,,,,,,,,,,,,,,,,,,,,,,,,,,,,,,,,,,,,,,,,,,,,,,,,,,,,,,,,,,,,,,,,,,,,,,,,,,,,,,,,,,,,,,,,,,,,,,
,,61574002e457b8c50f26f997,2024-02-21_21h07.30.785,kallum_motion_pilot,2023.2.2,Win32,74.07407407,61574002e457b8c50f26f997,65d6bb0e977760de756971f7,65d6bc166cbfc377f68bedf0,0.1017,0.1019,0,109,109,143,1,eightseven,,,,,,,,,,,,,,,,,,,,,,,,,,,,,,,,,,,,,,,,,,,,,,,,,,,,,,,,,,,,,,,,,,,,,,,,,,,,,,,,,,,,,,,,,,,,,,,,,,,,,,,,,,,,,,,,,,,,,,,,,,,,,,,,,,,,,,,,,
,,61574002e457b8c50f26f997,2024-02-21_21h07.30.785,kallum_motion_pilot,2023.2.2,Win32,74.07407407,61574002e457b8c50f26f997,65d6bb0e977760de756971f7,65d6bc166cbfc377f68bedf0,0.1022,0.1023,0,110,110,86,1,eightsix,,,,,,,,,,,,,,,,,,,,,,,,,,,,,,,,,,,,,,,,,,,,,,,,,,,,,,,,,,,,,,,,,,,,,,,,,,,,,,,,,,,,,,,,,,,,,,,,,,,,,,,,,,,,,,,,,,,,,,,,,,,,,,,,,,,,,,,,,
,,61574002e457b8c50f26f997,2024-02-21_21h07.30.785,kallum_motion_pilot,2023.2.2,Win32,74.07407407,61574002e457b8c50f26f997,65d6bb0e977760de756971f7,65d6bc166cbfc377f68bedf0,0.1034,0.1055,0,111,111,102,1,eightsix,,,,,,,,,,,,,,,,,,,,,,,,,,,,,,,,,,,,,,,,,,,,,,,,,,,,,,,,,,,,,,,,,,,,,,,,,,,,,,,,,,,,,,,,,,,,,,,,,,,,,,,,,,,,,,,,,,,,,,,,,,,,,,,,,,,,,,,,,
,,61574002e457b8c50f26f997,2024-02-21_21h07.30.785,kallum_motion_pilot,2023.2.2,Win32,74.07407407,61574002e457b8c50f26f997,65d6bb0e977760de756971f7,65d6bc166cbfc377f68bedf0,0.106,0.1064,0,112,112,155,1,sixeight,,,,,,,,,,,,,,,,,,,,,,,,,,,,,,,,,,,,,,,,,,,,,,,,,,,,,,,,,,,,,,,,,,,,,,,,,,,,,,,,,,,,,,,,,,,,,,,,,,,,,,,,,,,,,,,,,,,,,,,,,,,,,,,,,,,,,,,,,
,,61574002e457b8c50f26f997,2024-02-21_21h07.30.785,kallum_motion_pilot,2023.2.2,Win32,74.07407407,61574002e457b8c50f26f997,65d6bb0e977760de756971f7,65d6bc166cbfc377f68bedf0,0.1067,0.107,0,113,113,101,1,seveneight,,,,,,,,,,,,,,,,,,,,,,,,,,,,,,,,,,,,,,,,,,,,,,,,,,,,,,,,,,,,,,,,,,,,,,,,,,,,,,,,,,,,,,,,,,,,,,,,,,,,,,,,,,,,,,,,,,,,,,,,,,,,,,,,,,,,,,,,,
,,61574002e457b8c50f26f997,2024-02-21_21h07.30.785,kallum_motion_pilot,2023.2.2,Win32,74.07407407,61574002e457b8c50f26f997,65d6bb0e977760de756971f7,65d6bc166cbfc377f68bedf0,0.1072,0.1073,0,114,114,160,1,fivesix,,,,,,,,,,,,,,,,,,,,,,,,,,,,,,,,,,,,,,,,,,,,,,,,,,,,,,,,,,,,,,,,,,,,,,,,,,,,,,,,,,,,,,,,,,,,,,,,,,,,,,,,,,,,,,,,,,,,,,,,,,,,,,,,,,,,,,,,,
,,61574002e457b8c50f26f997,2024-02-21_21h07.30.785,kallum_motion_pilot,2023.2.2,Win32,74.07407407,61574002e457b8c50f26f997,65d6bb0e977760de756971f7,65d6bc166cbfc377f68bedf0,0.1075,0.1076,0,115,115,116,1,sevenfive,,,,,,,,,,,,,,,,,,,,,,,,,,,,,,,,,,,,,,,,,,,,,,,,,,,,,,,,,,,,,,,,,,,,,,,,,,,,,,,,,,,,,,,,,,,,,,,,,,,,,,,,,,,,,,,,,,,,,,,,,,,,,,,,,,,,,,,,,
,,61574002e457b8c50f26f997,2024-02-21_21h07.30.785,kallum_motion_pilot,2023.2.2,Win32,74.07407407,61574002e457b8c50f26f997,65d6bb0e977760de756971f7,65d6bc166cbfc377f68bedf0,0.1078,0.1079,0,116,116,154,1,sixfive,,,,,,,,,,,,,,,,,,,,,,,,,,,,,,,,,,,,,,,,,,,,,,,,,,,,,,,,,,,,,,,,,,,,,,,,,,,,,,,,,,,,,,,,,,,,,,,,,,,,,,,,,,,,,,,,,,,,,,,,,,,,,,,,,,,,,,,,,
,,61574002e457b8c50f26f997,2024-02-21_21h07.30.785,kallum_motion_pilot,2023.2.2,Win32,74.07407407,61574002e457b8c50f26f997,65d6bb0e977760de756971f7,65d6bc166cbfc377f68bedf0,0.1081,0.1082,0,117,117,114,1,sixfive,,,,,,,,,,,,,,,,,,,,,,,,,,,,,,,,,,,,,,,,,,,,,,,,,,,,,,,,,,,,,,,,,,,,,,,,,,,,,,,,,,,,,,,,,,,,,,,,,,,,,,,,,,,,,,,,,,,,,,,,,,,,,,,,,,,,,,,,,
,,61574002e457b8c50f26f997,2024-02-21_21h07.30.785,kallum_motion_pilot,2023.2.2,Win32,74.07407407,61574002e457b8c50f26f997,65d6bb0e977760de756971f7,65d6bc166cbfc377f68bedf0,0.1084,0.1085,0,118,118,133,1,seveneight,,,,,,,,,,,,,,,,,,,,,,,,,,,,,,,,,,,,,,,,,,,,,,,,,,,,,,,,,,,,,,,,,,,,,,,,,,,,,,,,,,,,,,,,,,,,,,,,,,,,,,,,,,,,,,,,,,,,,,,,,,,,,,,,,,,,,,,,,
,,61574002e457b8c50f26f997,2024-02-21_21h07.30.785,kallum_motion_pilot,2023.2.2,Win32,74.07407407,61574002e457b8c50f26f997,65d6bb0e977760de756971f7,65d6bc166cbfc377f68bedf0,0.1086,0.1088,0,119,119,1,1,onethree,,,,,,,,,,,,,,,,,,,,,,,,,,,,,,,,,,,,,,,,,,,,,,,,,,,,,,,,,,,,,,,,,,,,,,,,,,,,,,,,,,,,,,,,,,,,,,,,,,,,,,,,,,,,,,,,,,,,,,,,,,,,,,,,,,,,,,,,,
,,61574002e457b8c50f26f997,2024-02-21_21h07.30.785,kallum_motion_pilot,2023.2.2,Win32,74.07407407,61574002e457b8c50f26f997,65d6bb0e977760de756971f7,65d6bc166cbfc377f68bedf0,0.1089,0.1091,0,120,120,93,1,seveneight,,,,,,,,,,,,,,,,,,,,,,,,,,,,,,,,,,,,,,,,,,,,,,,,,,,,,,,,,,,,,,,,,,,,,,,,,,,,,,,,,,,,,,,,,,,,,,,,,,,,,,,,,,,,,,,,,,,,,,,,,,,,,,,,,,,,,,,,,
,,61574002e457b8c50f26f997,2024-02-21_21h07.30.785,kallum_motion_pilot,2023.2.2,Win32,74.07407407,61574002e457b8c50f26f997,65d6bb0e977760de756971f7,65d6bc166cbfc377f68bedf0,0.1092,0.1101,0,121,121,122,1,sixfive,,,,,,,,,,,,,,,,,,,,,,,,,,,,,,,,,,,,,,,,,,,,,,,,,,,,,,,,,,,,,,,,,,,,,,,,,,,,,,,,,,,,,,,,,,,,,,,,,,,,,,,,,,,,,,,,,,,,,,,,,,,,,,,,,,,,,,,,,
,,61574002e457b8c50f26f997,2024-02-21_21h07.30.785,kallum_motion_pilot,2023.2.2,Win32,74.07407407,61574002e457b8c50f26f997,65d6bb0e977760de756971f7,65d6bc166cbfc377f68bedf0,0.1106,0.111,0,122,122,15,1,fourthree,,,,,,,,,,,,,,,,,,,,,,,,,,,,,,,,,,,,,,,,,,,,,,,,,,,,,,,,,,,,,,,,,,,,,,,,,,,,,,,,,,,,,,,,,,,,,,,,,,,,,,,,,,,,,,,,,,,,,,,,,,,,,,,,,,,,,,,,,
,,61574002e457b8c50f26f997,2024-02-21_21h07.30.785,kallum_motion_pilot,2023.2.2,Win32,74.07407407,61574002e457b8c50f26f997,65d6bb0e977760de756971f7,65d6bc166cbfc377f68bedf0,0.1112,0.1114,0,123,123,129,1,fiveseven,,,,,,,,,,,,,,,,,,,,,,,,,,,,,,,,,,,,,,,,,,,,,,,,,,,,,,,,,,,,,,,,,,,,,,,,,,,,,,,,,,,,,,,,,,,,,,,,,,,,,,,,,,,,,,,,,,,,,,,,,,,,,,,,,,,,,,,,,
,,61574002e457b8c50f26f997,2024-02-21_21h07.30.785,kallum_motion_pilot,2023.2.2,Win32,74.07407407,61574002e457b8c50f26f997,65d6bb0e977760de756971f7,65d6bc166cbfc377f68bedf0,0.1117,0.1117,0,124,124,79,1,eightseven,,,,,,,,,,,,,,,,,,,,,,,,,,,,,,,,,,,,,,,,,,,,,,,,,,,,,,,,,,,,,,,,,,,,,,,,,,,,,,,,,,,,,,,,,,,,,,,,,,,,,,,,,,,,,,,,,,,,,,,,,,,,,,,,,,,,,,,,,
,,61574002e457b8c50f26f997,2024-02-21_21h07.30.785,kallum_motion_pilot,2023.2.2,Win32,74.07407407,61574002e457b8c50f26f997,65d6bb0e977760de756971f7,65d6bc166cbfc377f68bedf0,0.1119,0.1121,0,125,125,100,1,sevenfive,,,,,,,,,,,,,,,,,,,,,,,,,,,,,,,,,,,,,,,,,,,,,,,,,,,,,,,,,,,,,,,,,,,,,,,,,,,,,,,,,,,,,,,,,,,,,,,,,,,,,,,,,,,,,,,,,,,,,,,,,,,,,,,,,,,,,,,,,
,,61574002e457b8c50f26f997,2024-02-21_21h07.30.785,kallum_motion_pilot,2023.2.2,Win32,74.07407407,61574002e457b8c50f26f997,65d6bb0e977760de756971f7,65d6bc166cbfc377f68bedf0,0.1123,0.1125,0,126,126,52,1,threeone,,,,,,,,,,,,,,,,,,,,,,,,,,,,,,,,,,,,,,,,,,,,,,,,,,,,,,,,,,,,,,,,,,,,,,,,,,,,,,,,,,,,,,,,,,,,,,,,,,,,,,,,,,,,,,,,,,,,,,,,,,,,,,,,,,,,,,,,,
,,61574002e457b8c50f26f997,2024-02-21_21h07.30.785,kallum_motion_pilot,2023.2.2,Win32,74.07407407,61574002e457b8c50f26f997,65d6bb0e977760de756971f7,65d6bc166cbfc377f68bedf0,0.1125,0.1127,0,127,127,69,1,threefour,,,,,,,,,,,,,,,,,,,,,,,,,,,,,,,,,,,,,,,,,,,,,,,,,,,,,,,,,,,,,,,,,,,,,,,,,,,,,,,,,,,,,,,,,,,,,,,,,,,,,,,,,,,,,,,,,,,,,,,,,,,,,,,,,,,,,,,,,
,,61574002e457b8c50f26f997,2024-02-21_21h07.30.785,kallum_motion_pilot,2023.2.2,Win32,74.07407407,61574002e457b8c50f26f997,65d6bb0e977760de756971f7,65d6bc166cbfc377f68bedf0,0.1129,0.113,0,128,128,7,1,fourthree,,,,,,,,,,,,,,,,,,,,,,,,,,,,,,,,,,,,,,,,,,,,,,,,,,,,,,,,,,,,,,,,,,,,,,,,,,,,,,,,,,,,,,,,,,,,,,,,,,,,,,,,,,,,,,,,,,,,,,,,,,,,,,,,,,,,,,,,,
,,61574002e457b8c50f26f997,2024-02-21_21h07.30.785,kallum_motion_pilot,2023.2.2,Win32,74.07407407,61574002e457b8c50f26f997,65d6bb0e977760de756971f7,65d6bc166cbfc377f68bedf0,0.1133,0.1135,0,129,129,74,1,twoone,,,,,,,,,,,,,,,,,,,,,,,,,,,,,,,,,,,,,,,,,,,,,,,,,,,,,,,,,,,,,,,,,,,,,,,,,,,,,,,,,,,,,,,,,,,,,,,,,,,,,,,,,,,,,,,,,,,,,,,,,,,,,,,,,,,,,,,,,
,,61574002e457b8c50f26f997,2024-02-21_21h07.30.785,kallum_motion_pilot,2023.2.2,Win32,74.07407407,61574002e457b8c50f26f997,65d6bb0e977760de756971f7,65d6bc166cbfc377f68bedf0,0.1138,0.1141,0,130,130,47,1,fourthree,,,,,,,,,,,,,,,,,,,,,,,,,,,,,,,,,,,,,,,,,,,,,,,,,,,,,,,,,,,,,,,,,,,,,,,,,,,,,,,,,,,,,,,,,,,,,,,,,,,,,,,,,,,,,,,,,,,,,,,,,,,,,,,,,,,,,,,,,
,,61574002e457b8c50f26f997,2024-02-21_21h07.30.785,kallum_motion_pilot,2023.2.2,Win32,74.07407407,61574002e457b8c50f26f997,65d6bb0e977760de756971f7,65d6bc166cbfc377f68bedf0,0.1145,0.1146,0,131,131,95,1,eightseven,,,,,,,,,,,,,,,,,,,,,,,,,,,,,,,,,,,,,,,,,,,,,,,,,,,,,,,,,,,,,,,,,,,,,,,,,,,,,,,,,,,,,,,,,,,,,,,,,,,,,,,,,,,,,,,,,,,,,,,,,,,,,,,,,,,,,,,,,
,,61574002e457b8c50f26f997,2024-02-21_21h07.30.785,kallum_motion_pilot,2023.2.2,Win32,74.07407407,61574002e457b8c50f26f997,65d6bb0e977760de756971f7,65d6bc166cbfc377f68bedf0,0.1149,0.1152,0,132,132,67,1,twofour,,,,,,,,,,,,,,,,,,,,,,,,,,,,,,,,,,,,,,,,,,,,,,,,,,,,,,,,,,,,,,,,,,,,,,,,,,,,,,,,,,,,,,,,,,,,,,,,,,,,,,,,,,,,,,,,,,,,,,,,,,,,,,,,,,,,,,,,,
,,61574002e457b8c50f26f997,2024-02-21_21h07.30.785,kallum_motion_pilot,2023.2.2,Win32,74.07407407,61574002e457b8c50f26f997,65d6bb0e977760de756971f7,65d6bc166cbfc377f68bedf0,0.1156,0.1158,0,133,133,132,1,sevenfive,,,,,,,,,,,,,,,,,,,,,,,,,,,,,,,,,,,,,,,,,,,,,,,,,,,,,,,,,,,,,,,,,,,,,,,,,,,,,,,,,,,,,,,,,,,,,,,,,,,,,,,,,,,,,,,,,,,,,,,,,,,,,,,,,,,,,,,,,
,,61574002e457b8c50f26f997,2024-02-21_21h07.30.785,kallum_motion_pilot,2023.2.2,Win32,74.07407407,61574002e457b8c50f26f997,65d6bb0e977760de756971f7,65d6bc166cbfc377f68bedf0,0.1161,0.1164,0,134,134,103,1,eightseven,,,,,,,,,,,,,,,,,,,,,,,,,,,,,,,,,,,,,,,,,,,,,,,,,,,,,,,,,,,,,,,,,,,,,,,,,,,,,,,,,,,,,,,,,,,,,,,,,,,,,,,,,,,,,,,,,,,,,,,,,,,,,,,,,,,,,,,,,
,,61574002e457b8c50f26f997,2024-02-21_21h07.30.785,kallum_motion_pilot,2023.2.2,Win32,74.07407407,61574002e457b8c50f26f997,65d6bb0e977760de756971f7,65d6bc166cbfc377f68bedf0,0.1165,0.1167,0,135,135,19,1,twofour,,,,,,,,,,,,,,,,,,,,,,,,,,,,,,,,,,,,,,,,,,,,,,,,,,,,,,,,,,,,,,,,,,,,,,,,,,,,,,,,,,,,,,,,,,,,,,,,,,,,,,,,,,,,,,,,,,,,,,,,,,,,,,,,,,,,,,,,,
,,61574002e457b8c50f26f997,2024-02-21_21h07.30.785,kallum_motion_pilot,2023.2.2,Win32,74.07407407,61574002e457b8c50f26f997,65d6bb0e977760de756971f7,65d6bc166cbfc377f68bedf0,0.117,0.1172,0,136,136,53,1,threefour,,,,,,,,,,,,,,,,,,,,,,,,,,,,,,,,,,,,,,,,,,,,,,,,,,,,,,,,,,,,,,,,,,,,,,,,,,,,,,,,,,,,,,,,,,,,,,,,,,,,,,,,,,,,,,,,,,,,,,,,,,,,,,,,,,,,,,,,,
,,61574002e457b8c50f26f997,2024-02-21_21h07.30.785,kallum_motion_pilot,2023.2.2,Win32,74.07407407,61574002e457b8c50f26f997,65d6bb0e977760de756971f7,65d6bc166cbfc377f68bedf0,0.1173,0.1175,0,137,137,142,1,eightsix,,,,,,,,,,,,,,,,,,,,,,,,,,,,,,,,,,,,,,,,,,,,,,,,,,,,,,,,,,,,,,,,,,,,,,,,,,,,,,,,,,,,,,,,,,,,,,,,,,,,,,,,,,,,,,,,,,,,,,,,,,,,,,,,,,,,,,,,,
,,61574002e457b8c50f26f997,2024-02-21_21h07.30.785,kallum_motion_pilot,2023.2.2,Win32,74.07407407,61574002e457b8c50f26f997,65d6bb0e977760de756971f7,65d6bc166cbfc377f68bedf0,0.1175,0.1178,0,138,138,33,1,onethree,,,,,,,,,,,,,,,,,,,,,,,,,,,,,,,,,,,,,,,,,,,,,,,,,,,,,,,,,,,,,,,,,,,,,,,,,,,,,,,,,,,,,,,,,,,,,,,,,,,,,,,,,,,,,,,,,,,,,,,,,,,,,,,,,,,,,,,,,
,,61574002e457b8c50f26f997,2024-02-21_21h07.30.785,kallum_motion_pilot,2023.2.2,Win32,74.07407407,61574002e457b8c50f26f997,65d6bb0e977760de756971f7,65d6bc166cbfc377f68bedf0,0.1179,0.118,0,139,139,158,1,eightsix,,,,,,,,,,,,,,,,,,,,,,,,,,,,,,,,,,,,,,,,,,,,,,,,,,,,,,,,,,,,,,,,,,,,,,,,,,,,,,,,,,,,,,,,,,,,,,,,,,,,,,,,,,,,,,,,,,,,,,,,,,,,,,,,,,,,,,,,,
,,61574002e457b8c50f26f997,2024-02-21_21h07.30.785,kallum_motion_pilot,2023.2.2,Win32,74.07407407,61574002e457b8c50f26f997,65d6bb0e977760de756971f7,65d6bc166cbfc377f68bedf0,0.1182,0.1185,0,140,140,24,1,onetwo,,,,,,,,,,,,,,,,,,,,,,,,,,,,,,,,,,,,,,,,,,,,,,,,,,,,,,,,,,,,,,,,,,,,,,,,,,,,,,,,,,,,,,,,,,,,,,,,,,,,,,,,,,,,,,,,,,,,,,,,,,,,,,,,,,,,,,,,,
,,61574002e457b8c50f26f997,2024-02-21_21h07.30.785,kallum_motion_pilot,2023.2.2,Win32,74.07407407,61574002e457b8c50f26f997,65d6bb0e977760de756971f7,65d6bc166cbfc377f68bedf0,0.1187,0.1189,0,141,141,123,1,sixeight,,,,,,,,,,,,,,,,,,,,,,,,,,,,,,,,,,,,,,,,,,,,,,,,,,,,,,,,,,,,,,,,,,,,,,,,,,,,,,,,,,,,,,,,,,,,,,,,,,,,,,,,,,,,,,,,,,,,,,,,,,,,,,,,,,,,,,,,,
,,61574002e457b8c50f26f997,2024-02-21_21h07.30.785,kallum_motion_pilot,2023.2.2,Win32,74.07407407,61574002e457b8c50f26f997,65d6bb0e977760de756971f7,65d6bc166cbfc377f68bedf0,0.1189,0.1191,0,142,142,25,1,onethree,,,,,,,,,,,,,,,,,,,,,,,,,,,,,,,,,,,,,,,,,,,,,,,,,,,,,,,,,,,,,,,,,,,,,,,,,,,,,,,,,,,,,,,,,,,,,,,,,,,,,,,,,,,,,,,,,,,,,,,,,,,,,,,,,,,,,,,,,
,,61574002e457b8c50f26f997,2024-02-21_21h07.30.785,kallum_motion_pilot,2023.2.2,Win32,74.07407407,61574002e457b8c50f26f997,65d6bb0e977760de756971f7,65d6bc166cbfc377f68bedf0,0.1192,0.1194,0,143,143,46,1,fourtwo,,,,,,,,,,,,,,,,,,,,,,,,,,,,,,,,,,,,,,,,,,,,,,,,,,,,,,,,,,,,,,,,,,,,,,,,,,,,,,,,,,,,,,,,,,,,,,,,,,,,,,,,,,,,,,,,,,,,,,,,,,,,,,,,,,,,,,,,,
,,61574002e457b8c50f26f997,2024-02-21_21h07.30.785,kallum_motion_pilot,2023.2.2,Win32,74.07407407,61574002e457b8c50f26f997,65d6bb0e977760de756971f7,65d6bc166cbfc377f68bedf0,0.1195,0.1197,0,144,144,65,1,onethree,,,,,,,,,,,,,,,,,,,,,,,,,,,,,,,,,,,,,,,,,,,,,,,,,,,,,,,,,,,,,,,,,,,,,,,,,,,,,,,,,,,,,,,,,,,,,,,,,,,,,,,,,,,,,,,,,,,,,,,,,,,,,,,,,,,,,,,,,
,,61574002e457b8c50f26f997,2024-02-21_21h07.30.785,kallum_motion_pilot,2023.2.2,Win32,74.07407407,61574002e457b8c50f26f997,65d6bb0e977760de756971f7,65d6bc166cbfc377f68bedf0,0.12,0.1202,0,145,145,150,1,eightsix,,,,,,,,,,,,,,,,,,,,,,,,,,,,,,,,,,,,,,,,,,,,,,,,,,,,,,,,,,,,,,,,,,,,,,,,,,,,,,,,,,,,,,,,,,,,,,,,,,,,,,,,,,,,,,,,,,,,,,,,,,,,,,,,,,,,,,,,,
,,61574002e457b8c50f26f997,2024-02-21_21h07.30.785,kallum_motion_pilot,2023.2.2,Win32,74.07407407,61574002e457b8c50f26f997,65d6bb0e977760de756971f7,65d6bc166cbfc377f68bedf0,0.1204,0.1207,0,146,146,117,1,seveneight,,,,,,,,,,,,,,,,,,,,,,,,,,,,,,,,,,,,,,,,,,,,,,,,,,,,,,,,,,,,,,,,,,,,,,,,,,,,,,,,,,,,,,,,,,,,,,,,,,,,,,,,,,,,,,,,,,,,,,,,,,,,,,,,,,,,,,,,,
,,61574002e457b8c50f26f997,2024-02-21_21h07.30.785,kallum_motion_pilot,2023.2.2,Win32,74.07407407,61574002e457b8c50f26f997,65d6bb0e977760de756971f7,65d6bc166cbfc377f68bedf0,0.1211,0.1213,0,147,147,13,1,threefour,,,,,,,,,,,,,,,,,,,,,,,,,,,,,,,,,,,,,,,,,,,,,,,,,,,,,,,,,,,,,,,,,,,,,,,,,,,,,,,,,,,,,,,,,,,,,,,,,,,,,,,,,,,,,,,,,,,,,,,,,,,,,,,,,,,,,,,,,
,,61574002e457b8c50f26f997,2024-02-21_21h07.30.785,kallum_motion_pilot,2023.2.2,Win32,74.07407407,61574002e457b8c50f26f997,65d6bb0e977760de756971f7,65d6bc166cbfc377f68bedf0,0.1215,0.1218,0,148,148,99,1,sixeight,,,,,,,,,,,,,,,,,,,,,,,,,,,,,,,,,,,,,,,,,,,,,,,,,,,,,,,,,,,,,,,,,,,,,,,,,,,,,,,,,,,,,,,,,,,,,,,,,,,,,,,,,,,,,,,,,,,,,,,,,,,,,,,,,,,,,,,,,
,,61574002e457b8c50f26f997,2024-02-21_21h07.30.785,kallum_motion_pilot,2023.2.2,Win32,74.07407407,61574002e457b8c50f26f997,65d6bb0e977760de756971f7,65d6bc166cbfc377f68bedf0,0.1221,0.1221,0,149,149,39,1,fourthree,,,,,,,,,,,,,,,,,,,,,,,,,,,,,,,,,,,,,,,,,,,,,,,,,,,,,,,,,,,,,,,,,,,,,,,,,,,,,,,,,,,,,,,,,,,,,,,,,,,,,,,,,,,,,,,,,,,,,,,,,,,,,,,,,,,,,,,,,
,,61574002e457b8c50f26f997,2024-02-21_21h07.30.785,kallum_motion_pilot,2023.2.2,Win32,74.07407407,61574002e457b8c50f26f997,65d6bb0e977760de756971f7,65d6bc166cbfc377f68bedf0,0.1224,0.1226,0,150,150,56,1,onetwo,,,,,,,,,,,,,,,,,,,,,,,,,,,,,,,,,,,,,,,,,,,,,,,,,,,,,,,,,,,,,,,,,,,,,,,,,,,,,,,,,,,,,,,,,,,,,,,,,,,,,,,,,,,,,,,,,,,,,,,,,,,,,,,,,,,,,,,,,
,,61574002e457b8c50f26f997,2024-02-21_21h07.30.785,kallum_motion_pilot,2023.2.2,Win32,74.07407407,61574002e457b8c50f26f997,65d6bb0e977760de756971f7,65d6bc166cbfc377f68bedf0,0.1228,0.1228,0,151,151,104,1,fivesix,,,,,,,,,,,,,,,,,,,,,,,,,,,,,,,,,,,,,,,,,,,,,,,,,,,,,,,,,,,,,,,,,,,,,,,,,,,,,,,,,,,,,,,,,,,,,,,,,,,,,,,,,,,,,,,,,,,,,,,,,,,,,,,,,,,,,,,,,
,,61574002e457b8c50f26f997,2024-02-21_21h07.30.785,kallum_motion_pilot,2023.2.2,Win32,74.07407407,61574002e457b8c50f26f997,65d6bb0e977760de756971f7,65d6bc166cbfc377f68bedf0,0.123,0.1231,0,152,152,119,1,eightseven,,,,,,,,,,,,,,,,,,,,,,,,,,,,,,,,,,,,,,,,,,,,,,,,,,,,,,,,,,,,,,,,,,,,,,,,,,,,,,,,,,,,,,,,,,,,,,,,,,,,,,,,,,,,,,,,,,,,,,,,,,,,,,,,,,,,,,,,,
,,61574002e457b8c50f26f997,2024-02-21_21h07.30.785,kallum_motion_pilot,2023.2.2,Win32,74.07407407,61574002e457b8c50f26f997,65d6bb0e977760de756971f7,65d6bc166cbfc377f68bedf0,0.1233,0.1234,0,153,153,61,1,threefour,,,,,,,,,,,,,,,,,,,,,,,,,,,,,,,,,,,,,,,,,,,,,,,,,,,,,,,,,,,,,,,,,,,,,,,,,,,,,,,,,,,,,,,,,,,,,,,,,,,,,,,,,,,,,,,,,,,,,,,,,,,,,,,,,,,,,,,,,
,,61574002e457b8c50f26f997,2024-02-21_21h07.30.785,kallum_motion_pilot,2023.2.2,Win32,74.07407407,61574002e457b8c50f26f997,65d6bb0e977760de756971f7,65d6bc166cbfc377f68bedf0,0.1236,0.1238,0,154,154,14,1,fourtwo,,,,,,,,,,,,,,,,,,,,,,,,,,,,,,,,,,,,,,,,,,,,,,,,,,,,,,,,,,,,,,,,,,,,,,,,,,,,,,,,,,,,,,,,,,,,,,,,,,,,,,,,,,,,,,,,,,,,,,,,,,,,,,,,,,,,,,,,,
,,61574002e457b8c50f26f997,2024-02-21_21h07.30.785,kallum_motion_pilot,2023.2.2,Win32,74.07407407,61574002e457b8c50f26f997,65d6bb0e977760de756971f7,65d6bc166cbfc377f68bedf0,0.1239,0.1241,0,155,155,17,1,onethree,,,,,,,,,,,,,,,,,,,,,,,,,,,,,,,,,,,,,,,,,,,,,,,,,,,,,,,,,,,,,,,,,,,,,,,,,,,,,,,,,,,,,,,,,,,,,,,,,,,,,,,,,,,,,,,,,,,,,,,,,,,,,,,,,,,,,,,,,
,,61574002e457b8c50f26f997,2024-02-21_21h07.30.785,kallum_motion_pilot,2023.2.2,Win32,74.07407407,61574002e457b8c50f26f997,65d6bb0e977760de756971f7,65d6bc166cbfc377f68bedf0,0.1246,0.1248,0,156,156,111,1,eightseven,,,,,,,,,,,,,,,,,,,,,,,,,,,,,,,,,,,,,,,,,,,,,,,,,,,,,,,,,,,,,,,,,,,,,,,,,,,,,,,,,,,,,,,,,,,,,,,,,,,,,,,,,,,,,,,,,,,,,,,,,,,,,,,,,,,,,,,,,
,,61574002e457b8c50f26f997,2024-02-21_21h07.30.785,kallum_motion_pilot,2023.2.2,Win32,74.07407407,61574002e457b8c50f26f997,65d6bb0e977760de756971f7,65d6bc166cbfc377f68bedf0,0.125,0.1252,0,157,157,96,1,fivesix,,,,,,,,,,,,,,,,,,,,,,,,,,,,,,,,,,,,,,,,,,,,,,,,,,,,,,,,,,,,,,,,,,,,,,,,,,,,,,,,,,,,,,,,,,,,,,,,,,,,,,,,,,,,,,,,,,,,,,,,,,,,,,,,,,,,,,,,,
,,61574002e457b8c50f26f997,2024-02-21_21h07.30.785,kallum_motion_pilot,2023.2.2,Win32,74.07407407,61574002e457b8c50f26f997,65d6bb0e977760de756971f7,65d6bc166cbfc377f68bedf0,0.1253,0.1255,0,158,158,159,1,eightseven,,,,,,,,,,,,,,,,,,,,,,,,,,,,,,,,,,,,,,,,,,,,,,,,,,,,,,,,,,,,,,,,,,,,,,,,,,,,,,,,,,,,,,,,,,,,,,,,,,,,,,,,,,,,,,,,,,,,,,,,,,,,,,,,,,,,,,,,,
,,61574002e457b8c50f26f997,2024-02-21_21h07.30.785,kallum_motion_pilot,2023.2.2,Win32,74.07407407,61574002e457b8c50f26f997,65d6bb0e977760de756971f7,65d6bc166cbfc377f68bedf0,0.1257,0.1257,0,159,159,113,1,fiveseven,,,,,,,,,,,,,,,,,,,,,,,,,,,,,,,,,,,,,,,,,,,,,,,,,,,,,,,,,,,,,,,,,,,,,,,,,,,,,,,,,,,,,,,,,,,,,,,,,,,,,,,,,,,,,,,,,,,,,,,,,,,,,,,,,,,,,,,,,
,,61574002e457b8c50f26f997,2024-02-21_21h07.30.785,kallum_motion_pilot,2023.2.2,Win32,74.07407407,61574002e457b8c50f26f997,65d6bb0e977760de756971f7,65d6bc166cbfc377f68bedf0,0.126,0.127,0,160,160,120,1,fivesix,,,,,,,,,,,,,,,,,,,,,,,,,,,,,,,,,,,,,,,,,,,,,,,,,,,,,,,,,,,,,,,,,,,,,,,,,,,,,,,,,,,,,,,,,,,,,,,,,,,,,,,,,,,,,,,,,,,,,,,,,,,,,,,,,,,,,,,,,
,,61574002e457b8c50f26f997,2024-02-21_21h07.30.785,kallum_motion_pilot,2023.2.2,Win32,74.07407407,61574002e457b8c50f26f997,65d6bb0e977760de756971f7,65d6bc166cbfc377f68bedf0,0.1275,0.1278,0,161,161,127,1,eightseven,,,,,,,,,,,,,,,,,,,,,,,,,,,,,,,,,,,,,,,,,,,,,,,,,,,,,,,,,,,,,,,,,,,,,,,,,,,,,,,,,,,,,,,,,,,,,,,,,,,,,,,,,,,,,,,,,,,,,,,,,,,,,,,,,,,,,,,,,
,,61574002e457b8c50f26f997,2024-02-21_21h07.30.785,kallum_motion_pilot,2023.2.2,Win32,74.07407407,61574002e457b8c50f26f997,65d6bb0e977760de756971f7,65d6bc166cbfc377f68bedf0,0.1281,0.1283,1,0,162,52,1,threeone,,,,,,,,,,,,,,,,,,,,,,,,,,,,,,,,,,,,,,,,,,,,,,,,,,,,,,,,,,,,,,,,,,,,,,,,,,,,,,,,,,,,,,,,,,,,,,,,,,,,,,,,,,,,,,,,,,,,,,,,,,,,,,,,,,,,,,,,,
,,61574002e457b8c50f26f997,2024-02-21_21h07.30.785,kallum_motion_pilot,2023.2.2,Win32,74.07407407,61574002e457b8c50f26f997,65d6bb0e977760de756971f7,65d6bc166cbfc377f68bedf0,0.1284,0.1285,1,1,163,137,1,fiveseven,,,,,,,,,,,,,,,,,,,,,,,,,,,,,,,,,,,,,,,,,,,,,,,,,,,,,,,,,,,,,,,,,,,,,,,,,,,,,,,,,,,,,,,,,,,,,,,,,,,,,,,,,,,,,,,,,,,,,,,,,,,,,,,,,,,,,,,,,
,,61574002e457b8c50f26f997,2024-02-21_21h07.30.785,kallum_motion_pilot,2023.2.2,Win32,74.07407407,61574002e457b8c50f26f997,65d6bb0e977760de756971f7,65d6bc166cbfc377f68bedf0,0.1287,0.1288,1,2,164,47,1,fourthree,,,,,,,,,,,,,,,,,,,,,,,,,,,,,,,,,,,,,,,,,,,,,,,,,,,,,,,,,,,,,,,,,,,,,,,,,,,,,,,,,,,,,,,,,,,,,,,,,,,,,,,,,,,,,,,,,,,,,,,,,,,,,,,,,,,,,,,,,
,,61574002e457b8c50f26f997,2024-02-21_21h07.30.785,kallum_motion_pilot,2023.2.2,Win32,74.07407407,61574002e457b8c50f26f997,65d6bb0e977760de756971f7,65d6bc166cbfc377f68bedf0,0.1291,0.1292,1,3,165,129,1,fiveseven,,,,,,,,,,,,,,,,,,,,,,,,,,,,,,,,,,,,,,,,,,,,,,,,,,,,,,,,,,,,,,,,,,,,,,,,,,,,,,,,,,,,,,,,,,,,,,,,,,,,,,,,,,,,,,,,,,,,,,,,,,,,,,,,,,,,,,,,,
,,61574002e457b8c50f26f997,2024-02-21_21h07.30.785,kallum_motion_pilot,2023.2.2,Win32,74.07407407,61574002e457b8c50f26f997,65d6bb0e977760de756971f7,65d6bc166cbfc377f68bedf0,0.1294,0.1295,1,4,166,33,1,onethree,,,,,,,,,,,,,,,,,,,,,,,,,,,,,,,,,,,,,,,,,,,,,,,,,,,,,,,,,,,,,,,,,,,,,,,,,,,,,,,,,,,,,,,,,,,,,,,,,,,,,,,,,,,,,,,,,,,,,,,,,,,,,,,,,,,,,,,,,
,,61574002e457b8c50f26f997,2024-02-21_21h07.30.785,kallum_motion_pilot,2023.2.2,Win32,74.07407407,61574002e457b8c50f26f997,65d6bb0e977760de756971f7,65d6bc166cbfc377f68bedf0,0.1297,0.1302,1,5,167,62,1,fourtwo,,,,,,,,,,,,,,,,,,,,,,,,,,,,,,,,,,,,,,,,,,,,,,,,,,,,,,,,,,,,,,,,,,,,,,,,,,,,,,,,,,,,,,,,,,,,,,,,,,,,,,,,,,,,,,,,,,,,,,,,,,,,,,,,,,,,,,,,,
,,61574002e457b8c50f26f997,2024-02-21_21h07.30.785,kallum_motion_pilot,2023.2.2,Win32,74.07407407,61574002e457b8c50f26f997,65d6bb0e977760de756971f7,65d6bc166cbfc377f68bedf0,0.1305,0.1306,1,6,168,29,1,threefour,,,,,,,,,,,,,,,,,,,,,,,,,,,,,,,,,,,,,,,,,,,,,,,,,,,,,,,,,,,,,,,,,,,,,,,,,,,,,,,,,,,,,,,,,,,,,,,,,,,,,,,,,,,,,,,,,,,,,,,,,,,,,,,,,,,,,,,,,
,,61574002e457b8c50f26f997,2024-02-21_21h07.30.785,kallum_motion_pilot,2023.2.2,Win32,74.07407407,61574002e457b8c50f26f997,65d6bb0e977760de756971f7,65d6bc166cbfc377f68bedf0,0.1308,0.1309,1,7,169,72,1,onetwo,,,,,,,,,,,,,,,,,,,,,,,,,,,,,,,,,,,,,,,,,,,,,,,,,,,,,,,,,,,,,,,,,,,,,,,,,,,,,,,,,,,,,,,,,,,,,,,,,,,,,,,,,,,,,,,,,,,,,,,,,,,,,,,,,,,,,,,,,
,,61574002e457b8c50f26f997,2024-02-21_21h07.30.785,kallum_motion_pilot,2023.2.2,Win32,74.07407407,61574002e457b8c50f26f997,65d6bb0e977760de756971f7,65d6bc166cbfc377f68bedf0,0.1312,0.1313,1,8,170,119,1,eightseven,,,,,,,,,,,,,,,,,,,,,,,,,,,,,,,,,,,,,,,,,,,,,,,,,,,,,,,,,,,,,,,,,,,,,,,,,,,,,,,,,,,,,,,,,,,,,,,,,,,,,,,,,,,,,,,,,,,,,,,,,,,,,,,,,,,,,,,,,
,,61574002e457b8c50f26f997,2024-02-21_21h07.30.785,kallum_motion_pilot,2023.2.2,Win32,74.07407407,61574002e457b8c50f26f997,65d6bb0e977760de756971f7,65d6bc166cbfc377f68bedf0,0.1322,0.1326,1,9,171,70,1,fourtwo,,,,,,,,,,,,,,,,,,,,,,,,,,,,,,,,,,,,,,,,,,,,,,,,,,,,,,,,,,,,,,,,,,,,,,,,,,,,,,,,,,,,,,,,,,,,,,,,,,,,,,,,,,,,,,,,,,,,,,,,,,,,,,,,,,,,,,,,,
,,61574002e457b8c50f26f997,2024-02-21_21h07.30.785,kallum_motion_pilot,2023.2.2,Win32,74.07407407,61574002e457b8c50f26f997,65d6bb0e977760de756971f7,65d6bc166cbfc377f68bedf0,0.133,0.1332,1,10,172,85,1,seveneight,,,,,,,,,,,,,,,,,,,,,,,,,,,,,,,,,,,,,,,,,,,,,,,,,,,,,,,,,,,,,,,,,,,,,,,,,,,,,,,,,,,,,,,,,,,,,,,,,,,,,,,,,,,,,,,,,,,,,,,,,,,,,,,,,,,,,,,,,
,,61574002e457b8c50f26f997,2024-02-21_21h07.30.785,kallum_motion_pilot,2023.2.2,Win32,74.07407407,61574002e457b8c50f26f997,65d6bb0e977760de756971f7,65d6bc166cbfc377f68bedf0,0.1336,0.1339,1,11,173,76,1,threeone,,,,,,,,,,,,,,,,,,,,,,,,,,,,,,,,,,,,,,,,,,,,,,,,,,,,,,,,,,,,,,,,,,,,,,,,,,,,,,,,,,,,,,,,,,,,,,,,,,,,,,,,,,,,,,,,,,,,,,,,,,,,,,,,,,,,,,,,,
,,61574002e457b8c50f26f997,2024-02-21_21h07.30.785,kallum_motion_pilot,2023.2.2,Win32,74.07407407,61574002e457b8c50f26f997,65d6bb0e977760de756971f7,65d6bc166cbfc377f68bedf0,0.1344,0.1367,1,12,174,152,1,fivesix,,,,,,,,,,,,,,,,,,,,,,,,,,,,,,,,,,,,,,,,,,,,,,,,,,,,,,,,,,,,,,,,,,,,,,,,,,,,,,,,,,,,,,,,,,,,,,,,,,,,,,,,,,,,,,,,,,,,,,,,,,,,,,,,,,,,,,,,,
,,61574002e457b8c50f26f997,2024-02-21_21h07.30.785,kallum_motion_pilot,2023.2.2,Win32,74.07407407,61574002e457b8c50f26f997,65d6bb0e977760de756971f7,65d6bc166cbfc377f68bedf0,0.1373,0.1375,1,13,175,136,1,fivesix,,,,,,,,,,,,,,,,,,,,,,,,,,,,,,,,,,,,,,,,,,,,,,,,,,,,,,,,,,,,,,,,,,,,,,,,,,,,,,,,,,,,,,,,,,,,,,,,,,,,,,,,,,,,,,,,,,,,,,,,,,,,,,,,,,,,,,,,,
,,61574002e457b8c50f26f997,2024-02-21_21h07.30.785,kallum_motion_pilot,2023.2.2,Win32,74.07407407,61574002e457b8c50f26f997,65d6bb0e977760de756971f7,65d6bc166cbfc377f68bedf0,0.1382,0.1384,1,14,176,27,1,twofour,,,,,,,,,,,,,,,,,,,,,,,,,,,,,,,,,,,,,,,,,,,,,,,,,,,,,,,,,,,,,,,,,,,,,,,,,,,,,,,,,,,,,,,,,,,,,,,,,,,,,,,,,,,,,,,,,,,,,,,,,,,,,,,,,,,,,,,,,
,,61574002e457b8c50f26f997,2024-02-21_21h07.30.785,kallum_motion_pilot,2023.2.2,Win32,74.07407407,61574002e457b8c50f26f997,65d6bb0e977760de756971f7,65d6bc166cbfc377f68bedf0,0.1388,0.139,1,15,177,34,1,twoone,,,,,,,,,,,,,,,,,,,,,,,,,,,,,,,,,,,,,,,,,,,,,,,,,,,,,,,,,,,,,,,,,,,,,,,,,,,,,,,,,,,,,,,,,,,,,,,,,,,,,,,,,,,,,,,,,,,,,,,,,,,,,,,,,,,,,,,,,
,,61574002e457b8c50f26f997,2024-02-21_21h07.30.785,kallum_motion_pilot,2023.2.2,Win32,74.07407407,61574002e457b8c50f26f997,65d6bb0e977760de756971f7,65d6bc166cbfc377f68bedf0,0.1393,0.1396,1,16,178,124,1,sevenfive,,,,,,,,,,,,,,,,,,,,,,,,,,,,,,,,,,,,,,,,,,,,,,,,,,,,,,,,,,,,,,,,,,,,,,,,,,,,,,,,,,,,,,,,,,,,,,,,,,,,,,,,,,,,,,,,,,,,,,,,,,,,,,,,,,,,,,,,,
,,61574002e457b8c50f26f997,2024-02-21_21h07.30.785,kallum_motion_pilot,2023.2.2,Win32,74.07407407,61574002e457b8c50f26f997,65d6bb0e977760de756971f7,65d6bc166cbfc377f68bedf0,0.1399,0.14,1,17,179,68,1,threeone,,,,,,,,,,,,,,,,,,,,,,,,,,,,,,,,,,,,,,,,,,,,,,,,,,,,,,,,,,,,,,,,,,,,,,,,,,,,,,,,,,,,,,,,,,,,,,,,,,,,,,,,,,,,,,,,,,,,,,,,,,,,,,,,,,,,,,,,,
,,61574002e457b8c50f26f997,2024-02-21_21h07.30.785,kallum_motion_pilot,2023.2.2,Win32,74.07407407,61574002e457b8c50f26f997,65d6bb0e977760de756971f7,65d6bc166cbfc377f68bedf0,0.1403,0.1404,1,18,180,90,1,sixfive,,,,,,,,,,,,,,,,,,,,,,,,,,,,,,,,,,,,,,,,,,,,,,,,,,,,,,,,,,,,,,,,,,,,,,,,,,,,,,,,,,,,,,,,,,,,,,,,,,,,,,,,,,,,,,,,,,,,,,,,,,,,,,,,,,,,,,,,,
,,61574002e457b8c50f26f997,2024-02-21_21h07.30.785,kallum_motion_pilot,2023.2.2,Win32,74.07407407,61574002e457b8c50f26f997,65d6bb0e977760de756971f7,65d6bc166cbfc377f68bedf0,0.1406,0.1408,1,19,181,143,1,eightseven,,,,,,,,,,,,,,,,,,,,,,,,,,,,,,,,,,,,,,,,,,,,,,,,,,,,,,,,,,,,,,,,,,,,,,,,,,,,,,,,,,,,,,,,,,,,,,,,,,,,,,,,,,,,,,,,,,,,,,,,,,,,,,,,,,,,,,,,,
,,61574002e457b8c50f26f997,2024-02-21_21h07.30.785,kallum_motion_pilot,2023.2.2,Win32,74.07407407,61574002e457b8c50f26f997,65d6bb0e977760de756971f7,65d6bc166cbfc377f68bedf0,0.141,0.141,1,20,182,58,1,twoone,,,,,,,,,,,,,,,,,,,,,,,,,,,,,,,,,,,,,,,,,,,,,,,,,,,,,,,,,,,,,,,,,,,,,,,,,,,,,,,,,,,,,,,,,,,,,,,,,,,,,,,,,,,,,,,,,,,,,,,,,,,,,,,,,,,,,,,,,
,,61574002e457b8c50f26f997,2024-02-21_21h07.30.785,kallum_motion_pilot,2023.2.2,Win32,74.07407407,61574002e457b8c50f26f997,65d6bb0e977760de756971f7,65d6bc166cbfc377f68bedf0,0.1412,0.1414,1,21,183,20,1,threeone,,,,,,,,,,,,,,,,,,,,,,,,,,,,,,,,,,,,,,,,,,,,,,,,,,,,,,,,,,,,,,,,,,,,,,,,,,,,,,,,,,,,,,,,,,,,,,,,,,,,,,,,,,,,,,,,,,,,,,,,,,,,,,,,,,,,,,,,,
,,61574002e457b8c50f26f997,2024-02-21_21h07.30.785,kallum_motion_pilot,2023.2.2,Win32,74.07407407,61574002e457b8c50f26f997,65d6bb0e977760de756971f7,65d6bc166cbfc377f68bedf0,0.1417,0.1418,1,22,184,80,1,fivesix,,,,,,,,,,,,,,,,,,,,,,,,,,,,,,,,,,,,,,,,,,,,,,,,,,,,,,,,,,,,,,,,,,,,,,,,,,,,,,,,,,,,,,,,,,,,,,,,,,,,,,,,,,,,,,,,,,,,,,,,,,,,,,,,,,,,,,,,,
,,61574002e457b8c50f26f997,2024-02-21_21h07.30.785,kallum_motion_pilot,2023.2.2,Win32,74.07407407,61574002e457b8c50f26f997,65d6bb0e977760de756971f7,65d6bc166cbfc377f68bedf0,0.142,0.1421,1,23,185,45,1,threefour,,,,,,,,,,,,,,,,,,,,,,,,,,,,,,,,,,,,,,,,,,,,,,,,,,,,,,,,,,,,,,,,,,,,,,,,,,,,,,,,,,,,,,,,,,,,,,,,,,,,,,,,,,,,,,,,,,,,,,,,,,,,,,,,,,,,,,,,,
,,61574002e457b8c50f26f997,2024-02-21_21h07.30.785,kallum_motion_pilot,2023.2.2,Win32,74.07407407,61574002e457b8c50f26f997,65d6bb0e977760de756971f7,65d6bc166cbfc377f68bedf0,0.1422,0.1424,1,24,186,132,1,sevenfive,,,,,,,,,,,,,,,,,,,,,,,,,,,,,,,,,,,,,,,,,,,,,,,,,,,,,,,,,,,,,,,,,,,,,,,,,,,,,,,,,,,,,,,,,,,,,,,,,,,,,,,,,,,,,,,,,,,,,,,,,,,,,,,,,,,,,,,,,
,,61574002e457b8c50f26f997,2024-02-21_21h07.30.785,kallum_motion_pilot,2023.2.2,Win32,74.07407407,61574002e457b8c50f26f997,65d6bb0e977760de756971f7,65d6bc166cbfc377f68bedf0,0.1426,0.1428,1,25,187,73,1,onethree,,,,,,,,,,,,,,,,,,,,,,,,,,,,,,,,,,,,,,,,,,,,,,,,,,,,,,,,,,,,,,,,,,,,,,,,,,,,,,,,,,,,,,,,,,,,,,,,,,,,,,,,,,,,,,,,,,,,,,,,,,,,,,,,,,,,,,,,,
,,61574002e457b8c50f26f997,2024-02-21_21h07.30.785,kallum_motion_pilot,2023.2.2,Win32,74.07407407,61574002e457b8c50f26f997,65d6bb0e977760de756971f7,65d6bc166cbfc377f68bedf0,0.1438,0.1442,1,26,188,22,1,fourtwo,,,,,,,,,,,,,,,,,,,,,,,,,,,,,,,,,,,,,,,,,,,,,,,,,,,,,,,,,,,,,,,,,,,,,,,,,,,,,,,,,,,,,,,,,,,,,,,,,,,,,,,,,,,,,,,,,,,,,,,,,,,,,,,,,,,,,,,,,
,,61574002e457b8c50f26f997,2024-02-21_21h07.30.785,kallum_motion_pilot,2023.2.2,Win32,74.07407407,61574002e457b8c50f26f997,65d6bb0e977760de756971f7,65d6bc166cbfc377f68bedf0,0.1447,0.1449,1,27,189,51,1,twofour,,,,,,,,,,,,,,,,,,,,,,,,,,,,,,,,,,,,,,,,,,,,,,,,,,,,,,,,,,,,,,,,,,,,,,,,,,,,,,,,,,,,,,,,,,,,,,,,,,,,,,,,,,,,,,,,,,,,,,,,,,,,,,,,,,,,,,,,,
,,61574002e457b8c50f26f997,2024-02-21_21h07.30.785,kallum_motion_pilot,2023.2.2,Win32,74.07407407,61574002e457b8c50f26f997,65d6bb0e977760de756971f7,65d6bc166cbfc377f68bedf0,0.1451,0.1452,1,28,190,97,1,fiveseven,,,,,,,,,,,,,,,,,,,,,,,,,,,,,,,,,,,,,,,,,,,,,,,,,,,,,,,,,,,,,,,,,,,,,,,,,,,,,,,,,,,,,,,,,,,,,,,,,,,,,,,,,,,,,,,,,,,,,,,,,,,,,,,,,,,,,,,,,
,,61574002e457b8c50f26f997,2024-02-21_21h07.30.785,kallum_motion_pilot,2023.2.2,Win32,74.07407407,61574002e457b8c50f26f997,65d6bb0e977760de756971f7,65d6bc166cbfc377f68bedf0,0.1454,0.1455,1,29,191,9,1,onethree,,,,,,,,,,,,,,,,,,,,,,,,,,,,,,,,,,,,,,,,,,,,,,,,,,,,,,,,,,,,,,,,,,,,,,,,,,,,,,,,,,,,,,,,,,,,,,,,,,,,,,,,,,,,,,,,,,,,,,,,,,,,,,,,,,,,,,,,,
,,61574002e457b8c50f26f997,2024-02-21_21h07.30.785,kallum_motion_pilot,2023.2.2,Win32,74.07407407,61574002e457b8c50f26f997,65d6bb0e977760de756971f7,65d6bc166cbfc377f68bedf0,0.1457,0.146,1,30,192,79,1,eightseven,,,,,,,,,,,,,,,,,,,,,,,,,,,,,,,,,,,,,,,,,,,,,,,,,,,,,,,,,,,,,,,,,,,,,,,,,,,,,,,,,,,,,,,,,,,,,,,,,,,,,,,,,,,,,,,,,,,,,,,,,,,,,,,,,,,,,,,,,
,,61574002e457b8c50f26f997,2024-02-21_21h07.30.785,kallum_motion_pilot,2023.2.2,Win32,74.07407407,61574002e457b8c50f26f997,65d6bb0e977760de756971f7,65d6bc166cbfc377f68bedf0,0.1462,0.1465,1,31,193,26,1,twoone,,,,,,,,,,,,,,,,,,,,,,,,,,,,,,,,,,,,,,,,,,,,,,,,,,,,,,,,,,,,,,,,,,,,,,,,,,,,,,,,,,,,,,,,,,,,,,,,,,,,,,,,,,,,,,,,,,,,,,,,,,,,,,,,,,,,,,,,,
,,61574002e457b8c50f26f997,2024-02-21_21h07.30.785,kallum_motion_pilot,2023.2.2,Win32,74.07407407,61574002e457b8c50f26f997,65d6bb0e977760de756971f7,65d6bc166cbfc377f68bedf0,0.147,0.1472,1,32,194,133,1,seveneight,,,,,,,,,,,,,,,,,,,,,,,,,,,,,,,,,,,,,,,,,,,,,,,,,,,,,,,,,,,,,,,,,,,,,,,,,,,,,,,,,,,,,,,,,,,,,,,,,,,,,,,,,,,,,,,,,,,,,,,,,,,,,,,,,,,,,,,,,
,,61574002e457b8c50f26f997,2024-02-21_21h07.30.785,kallum_motion_pilot,2023.2.2,Win32,74.07407407,61574002e457b8c50f26f997,65d6bb0e977760de756971f7,65d6bc166cbfc377f68bedf0,0.1475,0.1476,1,33,195,41,1,onethree,,,,,,,,,,,,,,,,,,,,,,,,,,,,,,,,,,,,,,,,,,,,,,,,,,,,,,,,,,,,,,,,,,,,,,,,,,,,,,,,,,,,,,,,,,,,,,,,,,,,,,,,,,,,,,,,,,,,,,,,,,,,,,,,,,,,,,,,,
,,61574002e457b8c50f26f997,2024-02-21_21h07.30.785,kallum_motion_pilot,2023.2.2,Win32,74.07407407,61574002e457b8c50f26f997,65d6bb0e977760de756971f7,65d6bc166cbfc377f68bedf0,0.1478,0.148,1,34,196,150,1,eightsix,,,,,,,,,,,,,,,,,,,,,,,,,,,,,,,,,,,,,,,,,,,,,,,,,,,,,,,,,,,,,,,,,,,,,,,,,,,,,,,,,,,,,,,,,,,,,,,,,,,,,,,,,,,,,,,,,,,,,,,,,,,,,,,,,,,,,,,,,
,,61574002e457b8c50f26f997,2024-02-21_21h07.30.785,kallum_motion_pilot,2023.2.2,Win32,74.07407407,61574002e457b8c50f26f997,65d6bb0e977760de756971f7,65d6bc166cbfc377f68bedf0,0.1482,0.1483,1,35,197,153,1,fiveseven,,,,,,,,,,,,,,,,,,,,,,,,,,,,,,,,,,,,,,,,,,,,,,,,,,,,,,,,,,,,,,,,,,,,,,,,,,,,,,,,,,,,,,,,,,,,,,,,,,,,,,,,,,,,,,,,,,,,,,,,,,,,,,,,,,,,,,,,,
,,61574002e457b8c50f26f997,2024-02-21_21h07.30.785,kallum_motion_pilot,2023.2.2,Win32,74.07407407,61574002e457b8c50f26f997,65d6bb0e977760de756971f7,65d6bc166cbfc377f68bedf0,0.1484,0.1486,1,36,198,98,1,sixfive,,,,,,,,,,,,,,,,,,,,,,,,,,,,,,,,,,,,,,,,,,,,,,,,,,,,,,,,,,,,,,,,,,,,,,,,,,,,,,,,,,,,,,,,,,,,,,,,,,,,,,,,,,,,,,,,,,,,,,,,,,,,,,,,,,,,,,,,,
,,61574002e457b8c50f26f997,2024-02-21_21h07.30.785,kallum_motion_pilot,2023.2.2,Win32,74.07407407,61574002e457b8c50f26f997,65d6bb0e977760de756971f7,65d6bc166cbfc377f68bedf0,0.1489,0.1489,1,37,199,145,1,fiveseven,,,,,,,,,,,,,,,,,,,,,,,,,,,,,,,,,,,,,,,,,,,,,,,,,,,,,,,,,,,,,,,,,,,,,,,,,,,,,,,,,,,,,,,,,,,,,,,,,,,,,,,,,,,,,,,,,,,,,,,,,,,,,,,,,,,,,,,,,
,,61574002e457b8c50f26f997,2024-02-21_21h07.30.785,kallum_motion_pilot,2023.2.2,Win32,74.07407407,61574002e457b8c50f26f997,65d6bb0e977760de756971f7,65d6bc166cbfc377f68bedf0,0.1492,0.1493,1,38,200,19,1,twofour,,,,,,,,,,,,,,,,,,,,,,,,,,,,,,,,,,,,,,,,,,,,,,,,,,,,,,,,,,,,,,,,,,,,,,,,,,,,,,,,,,,,,,,,,,,,,,,,,,,,,,,,,,,,,,,,,,,,,,,,,,,,,,,,,,,,,,,,,
,,61574002e457b8c50f26f997,2024-02-21_21h07.30.785,kallum_motion_pilot,2023.2.2,Win32,74.07407407,61574002e457b8c50f26f997,65d6bb0e977760de756971f7,65d6bc166cbfc377f68bedf0,0.1496,0.1499,1,39,201,31,1,fourthree,,,,,,,,,,,,,,,,,,,,,,,,,,,,,,,,,,,,,,,,,,,,,,,,,,,,,,,,,,,,,,,,,,,,,,,,,,,,,,,,,,,,,,,,,,,,,,,,,,,,,,,,,,,,,,,,,,,,,,,,,,,,,,,,,,,,,,,,,
,,61574002e457b8c50f26f997,2024-02-21_21h07.30.785,kallum_motion_pilot,2023.2.2,Win32,74.07407407,61574002e457b8c50f26f997,65d6bb0e977760de756971f7,65d6bc166cbfc377f68bedf0,0.15,0.1503,1,40,202,135,1,eightseven,,,,,,,,,,,,,,,,,,,,,,,,,,,,,,,,,,,,,,,,,,,,,,,,,,,,,,,,,,,,,,,,,,,,,,,,,,,,,,,,,,,,,,,,,,,,,,,,,,,,,,,,,,,,,,,,,,,,,,,,,,,,,,,,,,,,,,,,,
,,61574002e457b8c50f26f997,2024-02-21_21h07.30.785,kallum_motion_pilot,2023.2.2,Win32,74.07407407,61574002e457b8c50f26f997,65d6bb0e977760de756971f7,65d6bc166cbfc377f68bedf0,0.1505,0.1506,1,41,203,141,1,seveneight,,,,,,,,,,,,,,,,,,,,,,,,,,,,,,,,,,,,,,,,,,,,,,,,,,,,,,,,,,,,,,,,,,,,,,,,,,,,,,,,,,,,,,,,,,,,,,,,,,,,,,,,,,,,,,,,,,,,,,,,,,,,,,,,,,,,,,,,,
,,61574002e457b8c50f26f997,2024-02-21_21h07.30.785,kallum_motion_pilot,2023.2.2,Win32,74.07407407,61574002e457b8c50f26f997,65d6bb0e977760de756971f7,65d6bc166cbfc377f68bedf0,0.1508,0.1509,1,42,204,42,1,twoone,,,,,,,,,,,,,,,,,,,,,,,,,,,,,,,,,,,,,,,,,,,,,,,,,,,,,,,,,,,,,,,,,,,,,,,,,,,,,,,,,,,,,,,,,,,,,,,,,,,,,,,,,,,,,,,,,,,,,,,,,,,,,,,,,,,,,,,,,
,,61574002e457b8c50f26f997,2024-02-21_21h07.30.785,kallum_motion_pilot,2023.2.2,Win32,74.07407407,61574002e457b8c50f26f997,65d6bb0e977760de756971f7,65d6bc166cbfc377f68bedf0,0.1512,0.1513,1,43,205,112,1,fivesix,,,,,,,,,,,,,,,,,,,,,,,,,,,,,,,,,,,,,,,,,,,,,,,,,,,,,,,,,,,,,,,,,,,,,,,,,,,,,,,,,,,,,,,,,,,,,,,,,,,,,,,,,,,,,,,,,,,,,,,,,,,,,,,,,,,,,,,,,
,,61574002e457b8c50f26f997,2024-02-21_21h07.30.785,kallum_motion_pilot,2023.2.2,Win32,74.07407407,61574002e457b8c50f26f997,65d6bb0e977760de756971f7,65d6bc166cbfc377f68bedf0,0.1515,0.1516,1,44,206,159,1,eightseven,,,,,,,,,,,,,,,,,,,,,,,,,,,,,,,,,,,,,,,,,,,,,,,,,,,,,,,,,,,,,,,,,,,,,,,,,,,,,,,,,,,,,,,,,,,,,,,,,,,,,,,,,,,,,,,,,,,,,,,,,,,,,,,,,,,,,,,,,
,,61574002e457b8c50f26f997,2024-02-21_21h07.30.785,kallum_motion_pilot,2023.2.2,Win32,74.07407407,61574002e457b8c50f26f997,65d6bb0e977760de756971f7,65d6bc166cbfc377f68bedf0,0.1519,0.152,1,45,207,154,1,sixfive,,,,,,,,,,,,,,,,,,,,,,,,,,,,,,,,,,,,,,,,,,,,,,,,,,,,,,,,,,,,,,,,,,,,,,,,,,,,,,,,,,,,,,,,,,,,,,,,,,,,,,,,,,,,,,,,,,,,,,,,,,,,,,,,,,,,,,,,,
,,61574002e457b8c50f26f997,2024-02-21_21h07.30.785,kallum_motion_pilot,2023.2.2,Win32,74.07407407,61574002e457b8c50f26f997,65d6bb0e977760de756971f7,65d6bc166cbfc377f68bedf0,0.1523,0.1525,1,46,208,77,1,threefour,,,,,,,,,,,,,,,,,,,,,,,,,,,,,,,,,,,,,,,,,,,,,,,,,,,,,,,,,,,,,,,,,,,,,,,,,,,,,,,,,,,,,,,,,,,,,,,,,,,,,,,,,,,,,,,,,,,,,,,,,,,,,,,,,,,,,,,,,
,,61574002e457b8c50f26f997,2024-02-21_21h07.30.785,kallum_motion_pilot,2023.2.2,Win32,74.07407407,61574002e457b8c50f26f997,65d6bb0e977760de756971f7,65d6bc166cbfc377f68bedf0,0.1527,0.1529,1,47,209,55,1,fourthree,,,,,,,,,,,,,,,,,,,,,,,,,,,,,,,,,,,,,,,,,,,,,,,,,,,,,,,,,,,,,,,,,,,,,,,,,,,,,,,,,,,,,,,,,,,,,,,,,,,,,,,,,,,,,,,,,,,,,,,,,,,,,,,,,,,,,,,,,
,,61574002e457b8c50f26f997,2024-02-21_21h07.30.785,kallum_motion_pilot,2023.2.2,Win32,74.07407407,61574002e457b8c50f26f997,65d6bb0e977760de756971f7,65d6bc166cbfc377f68bedf0,0.1532,0.1534,1,48,210,4,1,threeone,,,,,,,,,,,,,,,,,,,,,,,,,,,,,,,,,,,,,,,,,,,,,,,,,,,,,,,,,,,,,,,,,,,,,,,,,,,,,,,,,,,,,,,,,,,,,,,,,,,,,,,,,,,,,,,,,,,,,,,,,,,,,,,,,,,,,,,,,
,,61574002e457b8c50f26f997,2024-02-21_21h07.30.785,kallum_motion_pilot,2023.2.2,Win32,74.07407407,61574002e457b8c50f26f997,65d6bb0e977760de756971f7,65d6bc166cbfc377f68bedf0,0.1536,0.1539,1,49,211,56,1,onetwo,,,,,,,,,,,,,,,,,,,,,,,,,,,,,,,,,,,,,,,,,,,,,,,,,,,,,,,,,,,,,,,,,,,,,,,,,,,,,,,,,,,,,,,,,,,,,,,,,,,,,,,,,,,,,,,,,,,,,,,,,,,,,,,,,,,,,,,,,
,,61574002e457b8c50f26f997,2024-02-21_21h07.30.785,kallum_motion_pilot,2023.2.2,Win32,74.07407407,61574002e457b8c50f26f997,65d6bb0e977760de756971f7,65d6bc166cbfc377f68bedf0,0.1542,0.1545,1,50,212,5,1,threefour,,,,,,,,,,,,,,,,,,,,,,,,,,,,,,,,,,,,,,,,,,,,,,,,,,,,,,,,,,,,,,,,,,,,,,,,,,,,,,,,,,,,,,,,,,,,,,,,,,,,,,,,,,,,,,,,,,,,,,,,,,,,,,,,,,,,,,,,,
,,61574002e457b8c50f26f997,2024-02-21_21h07.30.785,kallum_motion_pilot,2023.2.2,Win32,74.07407407,61574002e457b8c50f26f997,65d6bb0e977760de756971f7,65d6bc166cbfc377f68bedf0,0.1549,0.1551,1,51,213,84,1,sevenfive,,,,,,,,,,,,,,,,,,,,,,,,,,,,,,,,,,,,,,,,,,,,,,,,,,,,,,,,,,,,,,,,,,,,,,,,,,,,,,,,,,,,,,,,,,,,,,,,,,,,,,,,,,,,,,,,,,,,,,,,,,,,,,,,,,,,,,,,,
,,61574002e457b8c50f26f997,2024-02-21_21h07.30.785,kallum_motion_pilot,2023.2.2,Win32,74.07407407,61574002e457b8c50f26f997,65d6bb0e977760de756971f7,65d6bc166cbfc377f68bedf0,0.1554,0.1557,1,52,214,17,1,onethree,,,,,,,,,,,,,,,,,,,,,,,,,,,,,,,,,,,,,,,,,,,,,,,,,,,,,,,,,,,,,,,,,,,,,,,,,,,,,,,,,,,,,,,,,,,,,,,,,,,,,,,,,,,,,,,,,,,,,,,,,,,,,,,,,,,,,,,,,
,,61574002e457b8c50f26f997,2024-02-21_21h07.30.785,kallum_motion_pilot,2023.2.2,Win32,74.07407407,61574002e457b8c50f26f997,65d6bb0e977760de756971f7,65d6bc166cbfc377f68bedf0,0.1559,0.156,1,53,215,1,1,onethree,,,,,,,,,,,,,,,,,,,,,,,,,,,,,,,,,,,,,,,,,,,,,,,,,,,,,,,,,,,,,,,,,,,,,,,,,,,,,,,,,,,,,,,,,,,,,,,,,,,,,,,,,,,,,,,,,,,,,,,,,,,,,,,,,,,,,,,,,
,,61574002e457b8c50f26f997,2024-02-21_21h07.30.785,kallum_motion_pilot,2023.2.2,Win32,74.07407407,61574002e457b8c50f26f997,65d6bb0e977760de756971f7,65d6bc166cbfc377f68bedf0,0.1564,0.1566,1,54,216,120,1,fivesix,,,,,,,,,,,,,,,,,,,,,,,,,,,,,,,,,,,,,,,,,,,,,,,,,,,,,,,,,,,,,,,,,,,,,,,,,,,,,,,,,,,,,,,,,,,,,,,,,,,,,,,,,,,,,,,,,,,,,,,,,,,,,,,,,,,,,,,,,
,,61574002e457b8c50f26f997,2024-02-21_21h07.30.785,kallum_motion_pilot,2023.2.2,Win32,74.07407407,61574002e457b8c50f26f997,65d6bb0e977760de756971f7,65d6bc166cbfc377f68bedf0,0.1571,0.1573,1,55,217,126,1,eightsix,,,,,,,,,,,,,,,,,,,,,,,,,,,,,,,,,,,,,,,,,,,,,,,,,,,,,,,,,,,,,,,,,,,,,,,,,,,,,,,,,,,,,,,,,,,,,,,,,,,,,,,,,,,,,,,,,,,,,,,,,,,,,,,,,,,,,,,,,
,,61574002e457b8c50f26f997,2024-02-21_21h07.30.785,kallum_motion_pilot,2023.2.2,Win32,74.07407407,61574002e457b8c50f26f997,65d6bb0e977760de756971f7,65d6bc166cbfc377f68bedf0,0.1575,0.158,1,56,218,53,1,threefour,,,,,,,,,,,,,,,,,,,,,,,,,,,,,,,,,,,,,,,,,,,,,,,,,,,,,,,,,,,,,,,,,,,,,,,,,,,,,,,,,,,,,,,,,,,,,,,,,,,,,,,,,,,,,,,,,,,,,,,,,,,,,,,,,,,,,,,,,
,,61574002e457b8c50f26f997,2024-02-21_21h07.30.785,kallum_motion_pilot,2023.2.2,Win32,74.07407407,61574002e457b8c50f26f997,65d6bb0e977760de756971f7,65d6bc166cbfc377f68bedf0,0.1583,0.1585,1,57,219,13,1,threefour,,,,,,,,,,,,,,,,,,,,,,,,,,,,,,,,,,,,,,,,,,,,,,,,,,,,,,,,,,,,,,,,,,,,,,,,,,,,,,,,,,,,,,,,,,,,,,,,,,,,,,,,,,,,,,,,,,,,,,,,,,,,,,,,,,,,,,,,,
,,61574002e457b8c50f26f997,2024-02-21_21h07.30.785,kallum_motion_pilot,2023.2.2,Win32,74.07407407,61574002e457b8c50f26f997,65d6bb0e977760de756971f7,65d6bc166cbfc377f68bedf0,0.1588,0.1591,1,58,220,91,1,sixeight,,,,,,,,,,,,,,,,,,,,,,,,,,,,,,,,,,,,,,,,,,,,,,,,,,,,,,,,,,,,,,,,,,,,,,,,,,,,,,,,,,,,,,,,,,,,,,,,,,,,,,,,,,,,,,,,,,,,,,,,,,,,,,,,,,,,,,,,,
,,61574002e457b8c50f26f997,2024-02-21_21h07.30.785,kallum_motion_pilot,2023.2.2,Win32,74.07407407,61574002e457b8c50f26f997,65d6bb0e977760de756971f7,65d6bc166cbfc377f68bedf0,0.1603,0.1613,1,59,221,113,1,fiveseven,,,,,,,,,,,,,,,,,,,,,,,,,,,,,,,,,,,,,,,,,,,,,,,,,,,,,,,,,,,,,,,,,,,,,,,,,,,,,,,,,,,,,,,,,,,,,,,,,,,,,,,,,,,,,,,,,,,,,,,,,,,,,,,,,,,,,,,,,
,,61574002e457b8c50f26f997,2024-02-21_21h07.30.785,kallum_motion_pilot,2023.2.2,Win32,74.07407407,61574002e457b8c50f26f997,65d6bb0e977760de756971f7,65d6bc166cbfc377f68bedf0,0.1619,0.1622,1,60,222,109,1,seveneight,,,,,,,,,,,,,,,,,,,,,,,,,,,,,,,,,,,,,,,,,,,,,,,,,,,,,,,,,,,,,,,,,,,,,,,,,,,,,,,,,,,,,,,,,,,,,,,,,,,,,,,,,,,,,,,,,,,,,,,,,,,,,,,,,,,,,,,,,
,,61574002e457b8c50f26f997,2024-02-21_21h07.30.785,kallum_motion_pilot,2023.2.2,Win32,74.07407407,61574002e457b8c50f26f997,65d6bb0e977760de756971f7,65d6bc166cbfc377f68bedf0,0.1623,0.1629,1,61,223,38,1,fourtwo,,,,,,,,,,,,,,,,,,,,,,,,,,,,,,,,,,,,,,,,,,,,,,,,,,,,,,,,,,,,,,,,,,,,,,,,,,,,,,,,,,,,,,,,,,,,,,,,,,,,,,,,,,,,,,,,,,,,,,,,,,,,,,,,,,,,,,,,,
,,61574002e457b8c50f26f997,2024-02-21_21h07.30.785,kallum_motion_pilot,2023.2.2,Win32,74.07407407,61574002e457b8c50f26f997,65d6bb0e977760de756971f7,65d6bc166cbfc377f68bedf0,0.1633,0.1634,1,62,224,155,1,sixeight,,,,,,,,,,,,,,,,,,,,,,,,,,,,,,,,,,,,,,,,,,,,,,,,,,,,,,,,,,,,,,,,,,,,,,,,,,,,,,,,,,,,,,,,,,,,,,,,,,,,,,,,,,,,,,,,,,,,,,,,,,,,,,,,,,,,,,,,,
,,61574002e457b8c50f26f997,2024-02-21_21h07.30.785,kallum_motion_pilot,2023.2.2,Win32,74.07407407,61574002e457b8c50f26f997,65d6bb0e977760de756971f7,65d6bc166cbfc377f68bedf0,0.164,0.1641,1,63,225,94,1,eightsix,,,,,,,,,,,,,,,,,,,,,,,,,,,,,,,,,,,,,,,,,,,,,,,,,,,,,,,,,,,,,,,,,,,,,,,,,,,,,,,,,,,,,,,,,,,,,,,,,,,,,,,,,,,,,,,,,,,,,,,,,,,,,,,,,,,,,,,,,
,,61574002e457b8c50f26f997,2024-02-21_21h07.30.785,kallum_motion_pilot,2023.2.2,Win32,74.07407407,61574002e457b8c50f26f997,65d6bb0e977760de756971f7,65d6bc166cbfc377f68bedf0,0.1647,0.1647,1,64,226,15,1,fourthree,,,,,,,,,,,,,,,,,,,,,,,,,,,,,,,,,,,,,,,,,,,,,,,,,,,,,,,,,,,,,,,,,,,,,,,,,,,,,,,,,,,,,,,,,,,,,,,,,,,,,,,,,,,,,,,,,,,,,,,,,,,,,,,,,,,,,,,,,
,,61574002e457b8c50f26f997,2024-02-21_21h07.30.785,kallum_motion_pilot,2023.2.2,Win32,74.07407407,61574002e457b8c50f26f997,65d6bb0e977760de756971f7,65d6bc166cbfc377f68bedf0,0.1652,0.1659,1,65,227,106,1,sixfive,,,,,,,,,,,,,,,,,,,,,,,,,,,,,,,,,,,,,,,,,,,,,,,,,,,,,,,,,,,,,,,,,,,,,,,,,,,,,,,,,,,,,,,,,,,,,,,,,,,,,,,,,,,,,,,,,,,,,,,,,,,,,,,,,,,,,,,,,
,,61574002e457b8c50f26f997,2024-02-21_21h07.30.785,kallum_motion_pilot,2023.2.2,Win32,74.07407407,61574002e457b8c50f26f997,65d6bb0e977760de756971f7,65d6bc166cbfc377f68bedf0,0.1664,0.1668,1,66,228,128,1,fivesix,,,,,,,,,,,,,,,,,,,,,,,,,,,,,,,,,,,,,,,,,,,,,,,,,,,,,,,,,,,,,,,,,,,,,,,,,,,,,,,,,,,,,,,,,,,,,,,,,,,,,,,,,,,,,,,,,,,,,,,,,,,,,,,,,,,,,,,,,
,,61574002e457b8c50f26f997,2024-02-21_21h07.30.785,kallum_motion_pilot,2023.2.2,Win32,74.07407407,61574002e457b8c50f26f997,65d6bb0e977760de756971f7,65d6bc166cbfc377f68bedf0,0.1671,0.1678,1,67,229,108,1,sevenfive,,,,,,,,,,,,,,,,,,,,,,,,,,,,,,,,,,,,,,,,,,,,,,,,,,,,,,,,,,,,,,,,,,,,,,,,,,,,,,,,,,,,,,,,,,,,,,,,,,,,,,,,,,,,,,,,,,,,,,,,,,,,,,,,,,,,,,,,,
,,61574002e457b8c50f26f997,2024-02-21_21h07.30.785,kallum_motion_pilot,2023.2.2,Win32,74.07407407,61574002e457b8c50f26f997,65d6bb0e977760de756971f7,65d6bc166cbfc377f68bedf0,0.1681,0.1684,1,68,230,54,1,fourtwo,,,,,,,,,,,,,,,,,,,,,,,,,,,,,,,,,,,,,,,,,,,,,,,,,,,,,,,,,,,,,,,,,,,,,,,,,,,,,,,,,,,,,,,,,,,,,,,,,,,,,,,,,,,,,,,,,,,,,,,,,,,,,,,,,,,,,,,,,
,,61574002e457b8c50f26f997,2024-02-21_21h07.30.785,kallum_motion_pilot,2023.2.2,Win32,74.07407407,61574002e457b8c50f26f997,65d6bb0e977760de756971f7,65d6bc166cbfc377f68bedf0,0.1688,0.1691,1,69,231,60,1,threeone,,,,,,,,,,,,,,,,,,,,,,,,,,,,,,,,,,,,,,,,,,,,,,,,,,,,,,,,,,,,,,,,,,,,,,,,,,,,,,,,,,,,,,,,,,,,,,,,,,,,,,,,,,,,,,,,,,,,,,,,,,,,,,,,,,,,,,,,,
,,61574002e457b8c50f26f997,2024-02-21_21h07.30.785,kallum_motion_pilot,2023.2.2,Win32,74.07407407,61574002e457b8c50f26f997,65d6bb0e977760de756971f7,65d6bc166cbfc377f68bedf0,0.1693,0.1696,1,70,232,21,1,threefour,,,,,,,,,,,,,,,,,,,,,,,,,,,,,,,,,,,,,,,,,,,,,,,,,,,,,,,,,,,,,,,,,,,,,,,,,,,,,,,,,,,,,,,,,,,,,,,,,,,,,,,,,,,,,,,,,,,,,,,,,,,,,,,,,,,,,,,,,
,,61574002e457b8c50f26f997,2024-02-21_21h07.30.785,kallum_motion_pilot,2023.2.2,Win32,74.07407407,61574002e457b8c50f26f997,65d6bb0e977760de756971f7,65d6bc166cbfc377f68bedf0,0.1699,0.1703,1,71,233,82,1,sixfive,,,,,,,,,,,,,,,,,,,,,,,,,,,,,,,,,,,,,,,,,,,,,,,,,,,,,,,,,,,,,,,,,,,,,,,,,,,,,,,,,,,,,,,,,,,,,,,,,,,,,,,,,,,,,,,,,,,,,,,,,,,,,,,,,,,,,,,,,
,,61574002e457b8c50f26f997,2024-02-21_21h07.30.785,kallum_motion_pilot,2023.2.2,Win32,74.07407407,61574002e457b8c50f26f997,65d6bb0e977760de756971f7,65d6bc166cbfc377f68bedf0,0.1705,0.1706,1,72,234,65,1,onethree,,,,,,,,,,,,,,,,,,,,,,,,,,,,,,,,,,,,,,,,,,,,,,,,,,,,,,,,,,,,,,,,,,,,,,,,,,,,,,,,,,,,,,,,,,,,,,,,,,,,,,,,,,,,,,,,,,,,,,,,,,,,,,,,,,,,,,,,,
,,61574002e457b8c50f26f997,2024-02-21_21h07.30.785,kallum_motion_pilot,2023.2.2,Win32,74.07407407,61574002e457b8c50f26f997,65d6bb0e977760de756971f7,65d6bc166cbfc377f68bedf0,0.1711,0.1714,1,73,235,134,1,eightsix,,,,,,,,,,,,,,,,,,,,,,,,,,,,,,,,,,,,,,,,,,,,,,,,,,,,,,,,,,,,,,,,,,,,,,,,,,,,,,,,,,,,,,,,,,,,,,,,,,,,,,,,,,,,,,,,,,,,,,,,,,,,,,,,,,,,,,,,,
,,61574002e457b8c50f26f997,2024-02-21_21h07.30.785,kallum_motion_pilot,2023.2.2,Win32,74.07407407,61574002e457b8c50f26f997,65d6bb0e977760de756971f7,65d6bc166cbfc377f68bedf0,0.1718,0.1721,1,74,236,96,1,fivesix,,,,,,,,,,,,,,,,,,,,,,,,,,,,,,,,,,,,,,,,,,,,,,,,,,,,,,,,,,,,,,,,,,,,,,,,,,,,,,,,,,,,,,,,,,,,,,,,,,,,,,,,,,,,,,,,,,,,,,,,,,,,,,,,,,,,,,,,,
,,61574002e457b8c50f26f997,2024-02-21_21h07.30.785,kallum_motion_pilot,2023.2.2,Win32,74.07407407,61574002e457b8c50f26f997,65d6bb0e977760de756971f7,65d6bc166cbfc377f68bedf0,0.1724,0.1727,1,75,237,24,1,onetwo,,,,,,,,,,,,,,,,,,,,,,,,,,,,,,,,,,,,,,,,,,,,,,,,,,,,,,,,,,,,,,,,,,,,,,,,,,,,,,,,,,,,,,,,,,,,,,,,,,,,,,,,,,,,,,,,,,,,,,,,,,,,,,,,,,,,,,,,,
,,61574002e457b8c50f26f997,2024-02-21_21h07.30.785,kallum_motion_pilot,2023.2.2,Win32,74.07407407,61574002e457b8c50f26f997,65d6bb0e977760de756971f7,65d6bc166cbfc377f68bedf0,0.1732,0.1735,1,76,238,12,1,threeone,,,,,,,,,,,,,,,,,,,,,,,,,,,,,,,,,,,,,,,,,,,,,,,,,,,,,,,,,,,,,,,,,,,,,,,,,,,,,,,,,,,,,,,,,,,,,,,,,,,,,,,,,,,,,,,,,,,,,,,,,,,,,,,,,,,,,,,,,
,,61574002e457b8c50f26f997,2024-02-21_21h07.30.785,kallum_motion_pilot,2023.2.2,Win32,74.07407407,61574002e457b8c50f26f997,65d6bb0e977760de756971f7,65d6bc166cbfc377f68bedf0,0.1737,0.1738,1,77,239,10,1,twoone,,,,,,,,,,,,,,,,,,,,,,,,,,,,,,,,,,,,,,,,,,,,,,,,,,,,,,,,,,,,,,,,,,,,,,,,,,,,,,,,,,,,,,,,,,,,,,,,,,,,,,,,,,,,,,,,,,,,,,,,,,,,,,,,,,,,,,,,,
,,61574002e457b8c50f26f997,2024-02-21_21h07.30.785,kallum_motion_pilot,2023.2.2,Win32,74.07407407,61574002e457b8c50f26f997,65d6bb0e977760de756971f7,65d6bc166cbfc377f68bedf0,0.1741,0.1742,1,78,240,148,1,sevenfive,,,,,,,,,,,,,,,,,,,,,,,,,,,,,,,,,,,,,,,,,,,,,,,,,,,,,,,,,,,,,,,,,,,,,,,,,,,,,,,,,,,,,,,,,,,,,,,,,,,,,,,,,,,,,,,,,,,,,,,,,,,,,,,,,,,,,,,,,
,,61574002e457b8c50f26f997,2024-02-21_21h07.30.785,kallum_motion_pilot,2023.2.2,Win32,74.07407407,61574002e457b8c50f26f997,65d6bb0e977760de756971f7,65d6bc166cbfc377f68bedf0,0.1744,0.1746,1,79,241,14,1,fourtwo,,,,,,,,,,,,,,,,,,,,,,,,,,,,,,,,,,,,,,,,,,,,,,,,,,,,,,,,,,,,,,,,,,,,,,,,,,,,,,,,,,,,,,,,,,,,,,,,,,,,,,,,,,,,,,,,,,,,,,,,,,,,,,,,,,,,,,,,,
,,61574002e457b8c50f26f997,2024-02-21_21h07.30.785,kallum_motion_pilot,2023.2.2,Win32,74.07407407,61574002e457b8c50f26f997,65d6bb0e977760de756971f7,65d6bc166cbfc377f68bedf0,0.1748,0.1748,1,80,242,3,1,twofour,,,,,,,,,,,,,,,,,,,,,,,,,,,,,,,,,,,,,,,,,,,,,,,,,,,,,,,,,,,,,,,,,,,,,,,,,,,,,,,,,,,,,,,,,,,,,,,,,,,,,,,,,,,,,,,,,,,,,,,,,,,,,,,,,,,,,,,,,
,,61574002e457b8c50f26f997,2024-02-21_21h07.30.785,kallum_motion_pilot,2023.2.2,Win32,74.07407407,61574002e457b8c50f26f997,65d6bb0e977760de756971f7,65d6bc166cbfc377f68bedf0,0.1751,0.1752,1,81,243,121,1,fiveseven,,,,,,,,,,,,,,,,,,,,,,,,,,,,,,,,,,,,,,,,,,,,,,,,,,,,,,,,,,,,,,,,,,,,,,,,,,,,,,,,,,,,,,,,,,,,,,,,,,,,,,,,,,,,,,,,,,,,,,,,,,,,,,,,,,,,,,,,,
,,61574002e457b8c50f26f997,2024-02-21_21h07.30.785,kallum_motion_pilot,2023.2.2,Win32,74.07407407,61574002e457b8c50f26f997,65d6bb0e977760de756971f7,65d6bc166cbfc377f68bedf0,0.1754,0.1755,1,82,244,86,1,eightsix,,,,,,,,,,,,,,,,,,,,,,,,,,,,,,,,,,,,,,,,,,,,,,,,,,,,,,,,,,,,,,,,,,,,,,,,,,,,,,,,,,,,,,,,,,,,,,,,,,,,,,,,,,,,,,,,,,,,,,,,,,,,,,,,,,,,,,,,,
,,61574002e457b8c50f26f997,2024-02-21_21h07.30.785,kallum_motion_pilot,2023.2.2,Win32,74.07407407,61574002e457b8c50f26f997,65d6bb0e977760de756971f7,65d6bc166cbfc377f68bedf0,0.1757,0.1758,1,83,245,16,1,onetwo,,,,,,,,,,,,,,,,,,,,,,,,,,,,,,,,,,,,,,,,,,,,,,,,,,,,,,,,,,,,,,,,,,,,,,,,,,,,,,,,,,,,,,,,,,,,,,,,,,,,,,,,,,,,,,,,,,,,,,,,,,,,,,,,,,,,,,,,,
,,61574002e457b8c50f26f997,2024-02-21_21h07.30.785,kallum_motion_pilot,2023.2.2,Win32,74.07407407,61574002e457b8c50f26f997,65d6bb0e977760de756971f7,65d6bc166cbfc377f68bedf0,0.1769,0.1773,1,84,246,99,1,sixeight,,,,,,,,,,,,,,,,,,,,,,,,,,,,,,,,,,,,,,,,,,,,,,,,,,,,,,,,,,,,,,,,,,,,,,,,,,,,,,,,,,,,,,,,,,,,,,,,,,,,,,,,,,,,,,,,,,,,,,,,,,,,,,,,,,,,,,,,,
,,61574002e457b8c50f26f997,2024-02-21_21h07.30.785,kallum_motion_pilot,2023.2.2,Win32,74.07407407,61574002e457b8c50f26f997,65d6bb0e977760de756971f7,65d6bc166cbfc377f68bedf0,0.1778,0.1782,1,85,247,64,1,onetwo,,,,,,,,,,,,,,,,,,,,,,,,,,,,,,,,,,,,,,,,,,,,,,,,,,,,,,,,,,,,,,,,,,,,,,,,,,,,,,,,,,,,,,,,,,,,,,,,,,,,,,,,,,,,,,,,,,,,,,,,,,,,,,,,,,,,,,,,,
,,61574002e457b8c50f26f997,2024-02-21_21h07.30.785,kallum_motion_pilot,2023.2.2,Win32,74.07407407,61574002e457b8c50f26f997,65d6bb0e977760de756971f7,65d6bc166cbfc377f68bedf0,0.1786,0.1787,1,86,248,140,1,sevenfive,,,,,,,,,,,,,,,,,,,,,,,,,,,,,,,,,,,,,,,,,,,,,,,,,,,,,,,,,,,,,,,,,,,,,,,,,,,,,,,,,,,,,,,,,,,,,,,,,,,,,,,,,,,,,,,,,,,,,,,,,,,,,,,,,,,,,,,,,
,,61574002e457b8c50f26f997,2024-02-21_21h07.30.785,kallum_motion_pilot,2023.2.2,Win32,74.07407407,61574002e457b8c50f26f997,65d6bb0e977760de756971f7,65d6bc166cbfc377f68bedf0,0.179,0.1791,1,87,249,48,1,onetwo,,,,,,,,,,,,,,,,,,,,,,,,,,,,,,,,,,,,,,,,,,,,,,,,,,,,,,,,,,,,,,,,,,,,,,,,,,,,,,,,,,,,,,,,,,,,,,,,,,,,,,,,,,,,,,,,,,,,,,,,,,,,,,,,,,,,,,,,,
,,61574002e457b8c50f26f997,2024-02-21_21h07.30.785,kallum_motion_pilot,2023.2.2,Win32,74.07407407,61574002e457b8c50f26f997,65d6bb0e977760de756971f7,65d6bc166cbfc377f68bedf0,0.1793,0.1794,1,88,250,37,1,threefour,,,,,,,,,,,,,,,,,,,,,,,,,,,,,,,,,,,,,,,,,,,,,,,,,,,,,,,,,,,,,,,,,,,,,,,,,,,,,,,,,,,,,,,,,,,,,,,,,,,,,,,,,,,,,,,,,,,,,,,,,,,,,,,,,,,,,,,,,
,,61574002e457b8c50f26f997,2024-02-21_21h07.30.785,kallum_motion_pilot,2023.2.2,Win32,74.07407407,61574002e457b8c50f26f997,65d6bb0e977760de756971f7,65d6bc166cbfc377f68bedf0,0.1797,0.1798,1,89,251,107,1,sixeight,,,,,,,,,,,,,,,,,,,,,,,,,,,,,,,,,,,,,,,,,,,,,,,,,,,,,,,,,,,,,,,,,,,,,,,,,,,,,,,,,,,,,,,,,,,,,,,,,,,,,,,,,,,,,,,,,,,,,,,,,,,,,,,,,,,,,,,,,
,,61574002e457b8c50f26f997,2024-02-21_21h07.30.785,kallum_motion_pilot,2023.2.2,Win32,74.07407407,61574002e457b8c50f26f997,65d6bb0e977760de756971f7,65d6bc166cbfc377f68bedf0,0.18,0.1801,1,90,252,25,1,onethree,,,,,,,,,,,,,,,,,,,,,,,,,,,,,,,,,,,,,,,,,,,,,,,,,,,,,,,,,,,,,,,,,,,,,,,,,,,,,,,,,,,,,,,,,,,,,,,,,,,,,,,,,,,,,,,,,,,,,,,,,,,,,,,,,,,,,,,,,
,,61574002e457b8c50f26f997,2024-02-21_21h07.30.785,kallum_motion_pilot,2023.2.2,Win32,74.07407407,61574002e457b8c50f26f997,65d6bb0e977760de756971f7,65d6bc166cbfc377f68bedf0,0.1804,0.1805,1,91,253,101,1,seveneight,,,,,,,,,,,,,,,,,,,,,,,,,,,,,,,,,,,,,,,,,,,,,,,,,,,,,,,,,,,,,,,,,,,,,,,,,,,,,,,,,,,,,,,,,,,,,,,,,,,,,,,,,,,,,,,,,,,,,,,,,,,,,,,,,,,,,,,,,
,,61574002e457b8c50f26f997,2024-02-21_21h07.30.785,kallum_motion_pilot,2023.2.2,Win32,74.07407407,61574002e457b8c50f26f997,65d6bb0e977760de756971f7,65d6bc166cbfc377f68bedf0,0.1807,0.1808,1,92,254,103,1,eightseven,,,,,,,,,,,,,,,,,,,,,,,,,,,,,,,,,,,,,,,,,,,,,,,,,,,,,,,,,,,,,,,,,,,,,,,,,,,,,,,,,,,,,,,,,,,,,,,,,,,,,,,,,,,,,,,,,,,,,,,,,,,,,,,,,,,,,,,,,
,,61574002e457b8c50f26f997,2024-02-21_21h07.30.785,kallum_motion_pilot,2023.2.2,Win32,74.07407407,61574002e457b8c50f26f997,65d6bb0e977760de756971f7,65d6bc166cbfc377f68bedf0,0.1813,0.1816,1,93,255,93,1,seveneight,,,,,,,,,,,,,,,,,,,,,,,,,,,,,,,,,,,,,,,,,,,,,,,,,,,,,,,,,,,,,,,,,,,,,,,,,,,,,,,,,,,,,,,,,,,,,,,,,,,,,,,,,,,,,,,,,,,,,,,,,,,,,,,,,,,,,,,,,
,,61574002e457b8c50f26f997,2024-02-21_21h07.30.785,kallum_motion_pilot,2023.2.2,Win32,74.07407407,61574002e457b8c50f26f997,65d6bb0e977760de756971f7,65d6bc166cbfc377f68bedf0,0.1819,0.182,1,94,256,66,1,twoone,,,,,,,,,,,,,,,,,,,,,,,,,,,,,,,,,,,,,,,,,,,,,,,,,,,,,,,,,,,,,,,,,,,,,,,,,,,,,,,,,,,,,,,,,,,,,,,,,,,,,,,,,,,,,,,,,,,,,,,,,,,,,,,,,,,,,,,,,
,,61574002e457b8c50f26f997,2024-02-21_21h07.30.785,kallum_motion_pilot,2023.2.2,Win32,74.07407407,61574002e457b8c50f26f997,65d6bb0e977760de756971f7,65d6bc166cbfc377f68bedf0,0.1822,0.1824,1,95,257,40,1,onetwo,,,,,,,,,,,,,,,,,,,,,,,,,,,,,,,,,,,,,,,,,,,,,,,,,,,,,,,,,,,,,,,,,,,,,,,,,,,,,,,,,,,,,,,,,,,,,,,,,,,,,,,,,,,,,,,,,,,,,,,,,,,,,,,,,,,,,,,,,
,,61574002e457b8c50f26f997,2024-02-21_21h07.30.785,kallum_motion_pilot,2023.2.2,Win32,74.07407407,61574002e457b8c50f26f997,65d6bb0e977760de756971f7,65d6bc166cbfc377f68bedf0,0.1827,0.1828,1,96,258,118,1,eightsix,,,,,,,,,,,,,,,,,,,,,,,,,,,,,,,,,,,,,,,,,,,,,,,,,,,,,,,,,,,,,,,,,,,,,,,,,,,,,,,,,,,,,,,,,,,,,,,,,,,,,,,,,,,,,,,,,,,,,,,,,,,,,,,,,,,,,,,,,
,,61574002e457b8c50f26f997,2024-02-21_21h07.30.785,kallum_motion_pilot,2023.2.2,Win32,74.07407407,61574002e457b8c50f26f997,65d6bb0e977760de756971f7,65d6bc166cbfc377f68bedf0,0.183,0.1832,1,97,259,71,1,fourthree,,,,,,,,,,,,,,,,,,,,,,,,,,,,,,,,,,,,,,,,,,,,,,,,,,,,,,,,,,,,,,,,,,,,,,,,,,,,,,,,,,,,,,,,,,,,,,,,,,,,,,,,,,,,,,,,,,,,,,,,,,,,,,,,,,,,,,,,,
,,61574002e457b8c50f26f997,2024-02-21_21h07.30.785,kallum_motion_pilot,2023.2.2,Win32,74.07407407,61574002e457b8c50f26f997,65d6bb0e977760de756971f7,65d6bc166cbfc377f68bedf0,0.1834,0.1836,1,98,260,89,1,fiveseven,,,,,,,,,,,,,,,,,,,,,,,,,,,,,,,,,,,,,,,,,,,,,,,,,,,,,,,,,,,,,,,,,,,,,,,,,,,,,,,,,,,,,,,,,,,,,,,,,,,,,,,,,,,,,,,,,,,,,,,,,,,,,,,,,,,,,,,,,
,,61574002e457b8c50f26f997,2024-02-21_21h07.30.785,kallum_motion_pilot,2023.2.2,Win32,74.07407407,61574002e457b8c50f26f997,65d6bb0e977760de756971f7,65d6bc166cbfc377f68bedf0,0.1838,0.184,1,99,261,18,1,twoone,,,,,,,,,,,,,,,,,,,,,,,,,,,,,,,,,,,,,,,,,,,,,,,,,,,,,,,,,,,,,,,,,,,,,,,,,,,,,,,,,,,,,,,,,,,,,,,,,,,,,,,,,,,,,,,,,,,,,,,,,,,,,,,,,,,,,,,,,
,,61574002e457b8c50f26f997,2024-02-21_21h07.30.785,kallum_motion_pilot,2023.2.2,Win32,74.07407407,61574002e457b8c50f26f997,65d6bb0e977760de756971f7,65d6bc166cbfc377f68bedf0,0.1842,0.1844,1,100,262,102,1,eightsix,,,,,,,,,,,,,,,,,,,,,,,,,,,,,,,,,,,,,,,,,,,,,,,,,,,,,,,,,,,,,,,,,,,,,,,,,,,,,,,,,,,,,,,,,,,,,,,,,,,,,,,,,,,,,,,,,,,,,,,,,,,,,,,,,,,,,,,,,
,,61574002e457b8c50f26f997,2024-02-21_21h07.30.785,kallum_motion_pilot,2023.2.2,Win32,74.07407407,61574002e457b8c50f26f997,65d6bb0e977760de756971f7,65d6bc166cbfc377f68bedf0,0.1846,0.1847,1,101,263,117,1,seveneight,,,,,,,,,,,,,,,,,,,,,,,,,,,,,,,,,,,,,,,,,,,,,,,,,,,,,,,,,,,,,,,,,,,,,,,,,,,,,,,,,,,,,,,,,,,,,,,,,,,,,,,,,,,,,,,,,,,,,,,,,,,,,,,,,,,,,,,,,
,,61574002e457b8c50f26f997,2024-02-21_21h07.30.785,kallum_motion_pilot,2023.2.2,Win32,74.07407407,61574002e457b8c50f26f997,65d6bb0e977760de756971f7,65d6bc166cbfc377f68bedf0,0.1851,0.1851,1,102,264,78,1,fourtwo,,,,,,,,,,,,,,,,,,,,,,,,,,,,,,,,,,,,,,,,,,,,,,,,,,,,,,,,,,,,,,,,,,,,,,,,,,,,,,,,,,,,,,,,,,,,,,,,,,,,,,,,,,,,,,,,,,,,,,,,,,,,,,,,,,,,,,,,,
,,61574002e457b8c50f26f997,2024-02-21_21h07.30.785,kallum_motion_pilot,2023.2.2,Win32,74.07407407,61574002e457b8c50f26f997,65d6bb0e977760de756971f7,65d6bc166cbfc377f68bedf0,0.1854,0.1856,1,103,265,59,1,twofour,,,,,,,,,,,,,,,,,,,,,,,,,,,,,,,,,,,,,,,,,,,,,,,,,,,,,,,,,,,,,,,,,,,,,,,,,,,,,,,,,,,,,,,,,,,,,,,,,,,,,,,,,,,,,,,,,,,,,,,,,,,,,,,,,,,,,,,,,
,,61574002e457b8c50f26f997,2024-02-21_21h07.30.785,kallum_motion_pilot,2023.2.2,Win32,74.07407407,61574002e457b8c50f26f997,65d6bb0e977760de756971f7,65d6bc166cbfc377f68bedf0,0.1858,0.186,1,104,266,50,1,twoone,,,,,,,,,,,,,,,,,,,,,,,,,,,,,,,,,,,,,,,,,,,,,,,,,,,,,,,,,,,,,,,,,,,,,,,,,,,,,,,,,,,,,,,,,,,,,,,,,,,,,,,,,,,,,,,,,,,,,,,,,,,,,,,,,,,,,,,,,
,,61574002e457b8c50f26f997,2024-02-21_21h07.30.785,kallum_motion_pilot,2023.2.2,Win32,74.07407407,61574002e457b8c50f26f997,65d6bb0e977760de756971f7,65d6bc166cbfc377f68bedf0,0.1861,0.1863,1,105,267,88,1,fivesix,,,,,,,,,,,,,,,,,,,,,,,,,,,,,,,,,,,,,,,,,,,,,,,,,,,,,,,,,,,,,,,,,,,,,,,,,,,,,,,,,,,,,,,,,,,,,,,,,,,,,,,,,,,,,,,,,,,,,,,,,,,,,,,,,,,,,,,,,
,,61574002e457b8c50f26f997,2024-02-21_21h07.30.785,kallum_motion_pilot,2023.2.2,Win32,74.07407407,61574002e457b8c50f26f997,65d6bb0e977760de756971f7,65d6bc166cbfc377f68bedf0,0.1865,0.1867,1,106,268,57,1,onethree,,,,,,,,,,,,,,,,,,,,,,,,,,,,,,,,,,,,,,,,,,,,,,,,,,,,,,,,,,,,,,,,,,,,,,,,,,,,,,,,,,,,,,,,,,,,,,,,,,,,,,,,,,,,,,,,,,,,,,,,,,,,,,,,,,,,,,,,,
,,61574002e457b8c50f26f997,2024-02-21_21h07.30.785,kallum_motion_pilot,2023.2.2,Win32,74.07407407,61574002e457b8c50f26f997,65d6bb0e977760de756971f7,65d6bc166cbfc377f68bedf0,0.1869,0.187,1,107,269,61,1,threefour,,,,,,,,,,,,,,,,,,,,,,,,,,,,,,,,,,,,,,,,,,,,,,,,,,,,,,,,,,,,,,,,,,,,,,,,,,,,,,,,,,,,,,,,,,,,,,,,,,,,,,,,,,,,,,,,,,,,,,,,,,,,,,,,,,,,,,,,,
,,61574002e457b8c50f26f997,2024-02-21_21h07.30.785,kallum_motion_pilot,2023.2.2,Win32,74.07407407,61574002e457b8c50f26f997,65d6bb0e977760de756971f7,65d6bc166cbfc377f68bedf0,0.1873,0.1874,1,108,270,23,1,fourthree,,,,,,,,,,,,,,,,,,,,,,,,,,,,,,,,,,,,,,,,,,,,,,,,,,,,,,,,,,,,,,,,,,,,,,,,,,,,,,,,,,,,,,,,,,,,,,,,,,,,,,,,,,,,,,,,,,,,,,,,,,,,,,,,,,,,,,,,,
,,61574002e457b8c50f26f997,2024-02-21_21h07.30.785,kallum_motion_pilot,2023.2.2,Win32,74.07407407,61574002e457b8c50f26f997,65d6bb0e977760de756971f7,65d6bc166cbfc377f68bedf0,0.1877,0.1878,1,109,271,161,1,fiveseven,,,,,,,,,,,,,,,,,,,,,,,,,,,,,,,,,,,,,,,,,,,,,,,,,,,,,,,,,,,,,,,,,,,,,,,,,,,,,,,,,,,,,,,,,,,,,,,,,,,,,,,,,,,,,,,,,,,,,,,,,,,,,,,,,,,,,,,,,
,,61574002e457b8c50f26f997,2024-02-21_21h07.30.785,kallum_motion_pilot,2023.2.2,Win32,74.07407407,61574002e457b8c50f26f997,65d6bb0e977760de756971f7,65d6bc166cbfc377f68bedf0,0.1881,0.1881,1,110,272,147,1,sixeight,,,,,,,,,,,,,,,,,,,,,,,,,,,,,,,,,,,,,,,,,,,,,,,,,,,,,,,,,,,,,,,,,,,,,,,,,,,,,,,,,,,,,,,,,,,,,,,,,,,,,,,,,,,,,,,,,,,,,,,,,,,,,,,,,,,,,,,,,
,,61574002e457b8c50f26f997,2024-02-21_21h07.30.785,kallum_motion_pilot,2023.2.2,Win32,74.07407407,61574002e457b8c50f26f997,65d6bb0e977760de756971f7,65d6bc166cbfc377f68bedf0,0.1883,0.1886,1,111,273,115,1,sixeight,,,,,,,,,,,,,,,,,,,,,,,,,,,,,,,,,,,,,,,,,,,,,,,,,,,,,,,,,,,,,,,,,,,,,,,,,,,,,,,,,,,,,,,,,,,,,,,,,,,,,,,,,,,,,,,,,,,,,,,,,,,,,,,,,,,,,,,,,
,,61574002e457b8c50f26f997,2024-02-21_21h07.30.785,kallum_motion_pilot,2023.2.2,Win32,74.07407407,61574002e457b8c50f26f997,65d6bb0e977760de756971f7,65d6bc166cbfc377f68bedf0,0.1887,0.1889,1,112,274,43,1,twofour,,,,,,,,,,,,,,,,,,,,,,,,,,,,,,,,,,,,,,,,,,,,,,,,,,,,,,,,,,,,,,,,,,,,,,,,,,,,,,,,,,,,,,,,,,,,,,,,,,,,,,,,,,,,,,,,,,,,,,,,,,,,,,,,,,,,,,,,,
,,61574002e457b8c50f26f997,2024-02-21_21h07.30.785,kallum_motion_pilot,2023.2.2,Win32,74.07407407,61574002e457b8c50f26f997,65d6bb0e977760de756971f7,65d6bc166cbfc377f68bedf0,0.1891,0.1892,1,113,275,67,1,twofour,,,,,,,,,,,,,,,,,,,,,,,,,,,,,,,,,,,,,,,,,,,,,,,,,,,,,,,,,,,,,,,,,,,,,,,,,,,,,,,,,,,,,,,,,,,,,,,,,,,,,,,,,,,,,,,,,,,,,,,,,,,,,,,,,,,,,,,,,
,,61574002e457b8c50f26f997,2024-02-21_21h07.30.785,kallum_motion_pilot,2023.2.2,Win32,74.07407407,61574002e457b8c50f26f997,65d6bb0e977760de756971f7,65d6bc166cbfc377f68bedf0,0.1895,0.1896,1,114,276,36,1,threeone,,,,,,,,,,,,,,,,,,,,,,,,,,,,,,,,,,,,,,,,,,,,,,,,,,,,,,,,,,,,,,,,,,,,,,,,,,,,,,,,,,,,,,,,,,,,,,,,,,,,,,,,,,,,,,,,,,,,,,,,,,,,,,,,,,,,,,,,,
,,61574002e457b8c50f26f997,2024-02-21_21h07.30.785,kallum_motion_pilot,2023.2.2,Win32,74.07407407,61574002e457b8c50f26f997,65d6bb0e977760de756971f7,65d6bc166cbfc377f68bedf0,0.1898,0.19,1,115,277,49,1,onethree,,,,,,,,,,,,,,,,,,,,,,,,,,,,,,,,,,,,,,,,,,,,,,,,,,,,,,,,,,,,,,,,,,,,,,,,,,,,,,,,,,,,,,,,,,,,,,,,,,,,,,,,,,,,,,,,,,,,,,,,,,,,,,,,,,,,,,,,,
