startup.started,startup.stopped,Prolific ID*,date,expName,psychopyVersion,OS,frameRate,participant,study_id,session,stimpositions.started,stimpositions.stopped,hardcoded_stimulus_positions.thisRepN,hardcoded_stimulus_positions.thisTrialN,hardcoded_stimulus_positions.thisN,hardcoded_stimulus_positions.thisIndex,hardcoded_stimulus_positions.ran,StimulusPos,stimorientation.started,stimorientation.stopped,prac_stimorientation_import_loop.thisRepN,prac_stimorientation_import_loop.thisTrialN,prac_stimorientation_import_loop.thisN,prac_stimorientation_import_loop.thisIndex,prac_stimorientation_import_loop.ran,Stimorientation,welcome_instr.started,welcome_instr.stopped,key_resp.keys,key_resp.rt,key_resp.duration,response_steppedout_1.started,response_steppedout_1.stopped,key_resp_20.keys,key_resp_20.rt,key_resp_20.duration,response_steppedout_2.started,response_steppedout_2.stopped,key_resp_19.keys,key_resp_19.rt,key_resp_19.duration,stim_response_instr.started,stim_response_instr.stopped,key_resp_15.keys,key_resp_15.rt,key_resp_15.duration,direction_instr_2.started,direction_instr_2.stopped,key_resp_9.keys,key_resp_9.rt,key_resp_9.duration,instr_prac.started,instr_prac.stopped,key_resp_10.keys,key_resp_10.rt,key_resp_10.duration,Stim1_display_prac.started,Stim1_display_prac.stopped,Ecc,Circle1_ori,Circle2_ori,response_prac.started,similarity,response_time,response_prac.stopped,mouse_5.x,mouse_5.y,mouse_5.leftButton,mouse_5.midButton,mouse_5.rightButton,mouse_5.clicked_name,responseprac_feedback.started,responseprac_feedback.stopped,summary2_prac.started,summary2_prac.stopped,mouse_6.x,mouse_6.y,mouse_6.leftButton,mouse_6.midButton,mouse_6.rightButton,mouse_6.clicked_name,duringprac.thisRepN,duringprac.thisTrialN,duringprac.thisN,duringprac.thisIndex,duringprac.ran,begin.started,begin.stopped,key_resp_22.keys,key_resp_22.rt,key_resp_22.duration,Stim1_display.started,Stim1_display.stopped,circle1_ori,circle2_ori,circle1_SF,circle2_SF,response.started,response.stopped,mouse.x,mouse.y,mouse.leftButton,mouse.midButton,mouse.rightButton,mouse.clicked_name,trialnumber,double_pass.thisRepN,double_pass.thisTrialN,double_pass.thisN,double_pass.thisIndex,double_pass.ran,double_pass.order,main_trial.thisRepN,main_trial.thisTrialN,main_trial.thisN,main_trial.thisIndex,main_trial.ran,main_trial.order,Trial_Counter,Catch,Frequencies,response_2.started,response_2.stopped,mouse_2.x,mouse_2.y,mouse_2.leftButton,mouse_2.midButton,mouse_2.rightButton,mouse_2.clicked_name,special_trial.started,special_trial.stopped,catch_1.started,catch_1.stopped,mouse_3.x,mouse_3.y,mouse_3.leftButton,mouse_3.midButton,mouse_3.rightButton,catchresponse,catchnumber,response_time_catch,response_sum.started,response_sum.stopped,mouse_11.x,mouse_11.y,mouse_11.leftButton,mouse_11.midButton,mouse_11.rightButton,flip_presentation_sequence_for_double_pass.started,flip_presentation_sequence_for_double_pass.stopped,goodbye.started,goodbye.stopped,key_resp_3.keys,key_resp_3.rt,key_resp_3.duration
0.0006,0.0008,615a7592136605684a219fae,2024-02-22_05h17.55.860,kallum_motion_pilot,2023.2.2,Win32,59.88023952,615a7592136605684a219fae,65d6bb0e977760de756971f7,65d6bd2b979b6efb5b451cbe,,,,,,,,,,,,,,,,,,,,,,,,,,,,,,,,,,,,,,,,,,,,,,,,,,,,,,,,,,,,,,,,,,,,,,,,,,,,,,,,,,,,,,,,,,,,,,,,,,,,,,,,,,,,,,,,,,,,,,,,,,,,,,,,,,,,,,,,,,,,,,,,,
,,615a7592136605684a219fae,2024-02-22_05h17.55.860,kallum_motion_pilot,2023.2.2,Win32,59.88023952,615a7592136605684a219fae,65d6bb0e977760de756971f7,65d6bd2b979b6efb5b451cbe,0.0459,0.0463,0,0,0,158,1,eightsix,,,,,,,,,,,,,,,,,,,,,,,,,,,,,,,,,,,,,,,,,,,,,,,,,,,,,,,,,,,,,,,,,,,,,,,,,,,,,,,,,,,,,,,,,,,,,,,,,,,,,,,,,,,,,,,,,,,,,,,,,,,,,,,,,,,,,,,,,
,,615a7592136605684a219fae,2024-02-22_05h17.55.860,kallum_motion_pilot,2023.2.2,Win32,59.88023952,615a7592136605684a219fae,65d6bb0e977760de756971f7,65d6bd2b979b6efb5b451cbe,0.0467,0.047,0,1,1,114,1,sixfive,,,,,,,,,,,,,,,,,,,,,,,,,,,,,,,,,,,,,,,,,,,,,,,,,,,,,,,,,,,,,,,,,,,,,,,,,,,,,,,,,,,,,,,,,,,,,,,,,,,,,,,,,,,,,,,,,,,,,,,,,,,,,,,,,,,,,,,,,
,,615a7592136605684a219fae,2024-02-22_05h17.55.860,kallum_motion_pilot,2023.2.2,Win32,59.88023952,615a7592136605684a219fae,65d6bb0e977760de756971f7,65d6bd2b979b6efb5b451cbe,0.0475,0.0476,0,2,2,4,1,threeone,,,,,,,,,,,,,,,,,,,,,,,,,,,,,,,,,,,,,,,,,,,,,,,,,,,,,,,,,,,,,,,,,,,,,,,,,,,,,,,,,,,,,,,,,,,,,,,,,,,,,,,,,,,,,,,,,,,,,,,,,,,,,,,,,,,,,,,,,
,,615a7592136605684a219fae,2024-02-22_05h17.55.860,kallum_motion_pilot,2023.2.2,Win32,59.88023952,615a7592136605684a219fae,65d6bb0e977760de756971f7,65d6bd2b979b6efb5b451cbe,0.0482,0.0483,0,3,3,155,1,sixeight,,,,,,,,,,,,,,,,,,,,,,,,,,,,,,,,,,,,,,,,,,,,,,,,,,,,,,,,,,,,,,,,,,,,,,,,,,,,,,,,,,,,,,,,,,,,,,,,,,,,,,,,,,,,,,,,,,,,,,,,,,,,,,,,,,,,,,,,,
,,615a7592136605684a219fae,2024-02-22_05h17.55.860,kallum_motion_pilot,2023.2.2,Win32,59.88023952,615a7592136605684a219fae,65d6bb0e977760de756971f7,65d6bd2b979b6efb5b451cbe,0.0486,0.0487,0,4,4,108,1,sevenfive,,,,,,,,,,,,,,,,,,,,,,,,,,,,,,,,,,,,,,,,,,,,,,,,,,,,,,,,,,,,,,,,,,,,,,,,,,,,,,,,,,,,,,,,,,,,,,,,,,,,,,,,,,,,,,,,,,,,,,,,,,,,,,,,,,,,,,,,,
,,615a7592136605684a219fae,2024-02-22_05h17.55.860,kallum_motion_pilot,2023.2.2,Win32,59.88023952,615a7592136605684a219fae,65d6bb0e977760de756971f7,65d6bd2b979b6efb5b451cbe,0.0493,0.0494,0,5,5,15,1,fourthree,,,,,,,,,,,,,,,,,,,,,,,,,,,,,,,,,,,,,,,,,,,,,,,,,,,,,,,,,,,,,,,,,,,,,,,,,,,,,,,,,,,,,,,,,,,,,,,,,,,,,,,,,,,,,,,,,,,,,,,,,,,,,,,,,,,,,,,,,
,,615a7592136605684a219fae,2024-02-22_05h17.55.860,kallum_motion_pilot,2023.2.2,Win32,59.88023952,615a7592136605684a219fae,65d6bb0e977760de756971f7,65d6bd2b979b6efb5b451cbe,0.0498,0.0498,0,6,6,38,1,fourtwo,,,,,,,,,,,,,,,,,,,,,,,,,,,,,,,,,,,,,,,,,,,,,,,,,,,,,,,,,,,,,,,,,,,,,,,,,,,,,,,,,,,,,,,,,,,,,,,,,,,,,,,,,,,,,,,,,,,,,,,,,,,,,,,,,,,,,,,,,
,,615a7592136605684a219fae,2024-02-22_05h17.55.860,kallum_motion_pilot,2023.2.2,Win32,59.88023952,615a7592136605684a219fae,65d6bb0e977760de756971f7,65d6bd2b979b6efb5b451cbe,0.0501,0.0501,0,7,7,2,1,twoone,,,,,,,,,,,,,,,,,,,,,,,,,,,,,,,,,,,,,,,,,,,,,,,,,,,,,,,,,,,,,,,,,,,,,,,,,,,,,,,,,,,,,,,,,,,,,,,,,,,,,,,,,,,,,,,,,,,,,,,,,,,,,,,,,,,,,,,,,
,,615a7592136605684a219fae,2024-02-22_05h17.55.860,kallum_motion_pilot,2023.2.2,Win32,59.88023952,615a7592136605684a219fae,65d6bb0e977760de756971f7,65d6bd2b979b6efb5b451cbe,0.0504,0.0505,0,8,8,21,1,threefour,,,,,,,,,,,,,,,,,,,,,,,,,,,,,,,,,,,,,,,,,,,,,,,,,,,,,,,,,,,,,,,,,,,,,,,,,,,,,,,,,,,,,,,,,,,,,,,,,,,,,,,,,,,,,,,,,,,,,,,,,,,,,,,,,,,,,,,,,
,,615a7592136605684a219fae,2024-02-22_05h17.55.860,kallum_motion_pilot,2023.2.2,Win32,59.88023952,615a7592136605684a219fae,65d6bb0e977760de756971f7,65d6bd2b979b6efb5b451cbe,0.0507,0.0508,0,9,9,104,1,fivesix,,,,,,,,,,,,,,,,,,,,,,,,,,,,,,,,,,,,,,,,,,,,,,,,,,,,,,,,,,,,,,,,,,,,,,,,,,,,,,,,,,,,,,,,,,,,,,,,,,,,,,,,,,,,,,,,,,,,,,,,,,,,,,,,,,,,,,,,,
,,615a7592136605684a219fae,2024-02-22_05h17.55.860,kallum_motion_pilot,2023.2.2,Win32,59.88023952,615a7592136605684a219fae,65d6bb0e977760de756971f7,65d6bd2b979b6efb5b451cbe,0.051,0.0511,0,10,10,61,1,threefour,,,,,,,,,,,,,,,,,,,,,,,,,,,,,,,,,,,,,,,,,,,,,,,,,,,,,,,,,,,,,,,,,,,,,,,,,,,,,,,,,,,,,,,,,,,,,,,,,,,,,,,,,,,,,,,,,,,,,,,,,,,,,,,,,,,,,,,,,
,,615a7592136605684a219fae,2024-02-22_05h17.55.860,kallum_motion_pilot,2023.2.2,Win32,59.88023952,615a7592136605684a219fae,65d6bb0e977760de756971f7,65d6bd2b979b6efb5b451cbe,0.0512,0.0513,0,11,11,63,1,fourthree,,,,,,,,,,,,,,,,,,,,,,,,,,,,,,,,,,,,,,,,,,,,,,,,,,,,,,,,,,,,,,,,,,,,,,,,,,,,,,,,,,,,,,,,,,,,,,,,,,,,,,,,,,,,,,,,,,,,,,,,,,,,,,,,,,,,,,,,,
,,615a7592136605684a219fae,2024-02-22_05h17.55.860,kallum_motion_pilot,2023.2.2,Win32,59.88023952,615a7592136605684a219fae,65d6bb0e977760de756971f7,65d6bd2b979b6efb5b451cbe,0.0515,0.0515,0,12,12,72,1,onetwo,,,,,,,,,,,,,,,,,,,,,,,,,,,,,,,,,,,,,,,,,,,,,,,,,,,,,,,,,,,,,,,,,,,,,,,,,,,,,,,,,,,,,,,,,,,,,,,,,,,,,,,,,,,,,,,,,,,,,,,,,,,,,,,,,,,,,,,,,
,,615a7592136605684a219fae,2024-02-22_05h17.55.860,kallum_motion_pilot,2023.2.2,Win32,59.88023952,615a7592136605684a219fae,65d6bb0e977760de756971f7,65d6bd2b979b6efb5b451cbe,0.0516,0.0517,0,13,13,80,1,fivesix,,,,,,,,,,,,,,,,,,,,,,,,,,,,,,,,,,,,,,,,,,,,,,,,,,,,,,,,,,,,,,,,,,,,,,,,,,,,,,,,,,,,,,,,,,,,,,,,,,,,,,,,,,,,,,,,,,,,,,,,,,,,,,,,,,,,,,,,,
,,615a7592136605684a219fae,2024-02-22_05h17.55.860,kallum_motion_pilot,2023.2.2,Win32,59.88023952,615a7592136605684a219fae,65d6bb0e977760de756971f7,65d6bd2b979b6efb5b451cbe,0.0519,0.0519,0,14,14,28,1,threeone,,,,,,,,,,,,,,,,,,,,,,,,,,,,,,,,,,,,,,,,,,,,,,,,,,,,,,,,,,,,,,,,,,,,,,,,,,,,,,,,,,,,,,,,,,,,,,,,,,,,,,,,,,,,,,,,,,,,,,,,,,,,,,,,,,,,,,,,,
,,615a7592136605684a219fae,2024-02-22_05h17.55.860,kallum_motion_pilot,2023.2.2,Win32,59.88023952,615a7592136605684a219fae,65d6bb0e977760de756971f7,65d6bd2b979b6efb5b451cbe,0.0521,0.0521,0,15,15,40,1,onetwo,,,,,,,,,,,,,,,,,,,,,,,,,,,,,,,,,,,,,,,,,,,,,,,,,,,,,,,,,,,,,,,,,,,,,,,,,,,,,,,,,,,,,,,,,,,,,,,,,,,,,,,,,,,,,,,,,,,,,,,,,,,,,,,,,,,,,,,,,
,,615a7592136605684a219fae,2024-02-22_05h17.55.860,kallum_motion_pilot,2023.2.2,Win32,59.88023952,615a7592136605684a219fae,65d6bb0e977760de756971f7,65d6bd2b979b6efb5b451cbe,0.0524,0.0525,0,16,16,134,1,eightsix,,,,,,,,,,,,,,,,,,,,,,,,,,,,,,,,,,,,,,,,,,,,,,,,,,,,,,,,,,,,,,,,,,,,,,,,,,,,,,,,,,,,,,,,,,,,,,,,,,,,,,,,,,,,,,,,,,,,,,,,,,,,,,,,,,,,,,,,,
,,615a7592136605684a219fae,2024-02-22_05h17.55.860,kallum_motion_pilot,2023.2.2,Win32,59.88023952,615a7592136605684a219fae,65d6bb0e977760de756971f7,65d6bd2b979b6efb5b451cbe,0.0527,0.0527,0,17,17,159,1,eightseven,,,,,,,,,,,,,,,,,,,,,,,,,,,,,,,,,,,,,,,,,,,,,,,,,,,,,,,,,,,,,,,,,,,,,,,,,,,,,,,,,,,,,,,,,,,,,,,,,,,,,,,,,,,,,,,,,,,,,,,,,,,,,,,,,,,,,,,,,
,,615a7592136605684a219fae,2024-02-22_05h17.55.860,kallum_motion_pilot,2023.2.2,Win32,59.88023952,615a7592136605684a219fae,65d6bb0e977760de756971f7,65d6bd2b979b6efb5b451cbe,0.0528,0.0529,0,18,18,124,1,sevenfive,,,,,,,,,,,,,,,,,,,,,,,,,,,,,,,,,,,,,,,,,,,,,,,,,,,,,,,,,,,,,,,,,,,,,,,,,,,,,,,,,,,,,,,,,,,,,,,,,,,,,,,,,,,,,,,,,,,,,,,,,,,,,,,,,,,,,,,,,
,,615a7592136605684a219fae,2024-02-22_05h17.55.860,kallum_motion_pilot,2023.2.2,Win32,59.88023952,615a7592136605684a219fae,65d6bb0e977760de756971f7,65d6bd2b979b6efb5b451cbe,0.053,0.0532,0,19,19,36,1,threeone,,,,,,,,,,,,,,,,,,,,,,,,,,,,,,,,,,,,,,,,,,,,,,,,,,,,,,,,,,,,,,,,,,,,,,,,,,,,,,,,,,,,,,,,,,,,,,,,,,,,,,,,,,,,,,,,,,,,,,,,,,,,,,,,,,,,,,,,,
,,615a7592136605684a219fae,2024-02-22_05h17.55.860,kallum_motion_pilot,2023.2.2,Win32,59.88023952,615a7592136605684a219fae,65d6bb0e977760de756971f7,65d6bd2b979b6efb5b451cbe,0.0533,0.0534,0,20,20,8,1,onetwo,,,,,,,,,,,,,,,,,,,,,,,,,,,,,,,,,,,,,,,,,,,,,,,,,,,,,,,,,,,,,,,,,,,,,,,,,,,,,,,,,,,,,,,,,,,,,,,,,,,,,,,,,,,,,,,,,,,,,,,,,,,,,,,,,,,,,,,,,
,,615a7592136605684a219fae,2024-02-22_05h17.55.860,kallum_motion_pilot,2023.2.2,Win32,59.88023952,615a7592136605684a219fae,65d6bb0e977760de756971f7,65d6bd2b979b6efb5b451cbe,0.0537,0.0537,0,21,21,69,1,threefour,,,,,,,,,,,,,,,,,,,,,,,,,,,,,,,,,,,,,,,,,,,,,,,,,,,,,,,,,,,,,,,,,,,,,,,,,,,,,,,,,,,,,,,,,,,,,,,,,,,,,,,,,,,,,,,,,,,,,,,,,,,,,,,,,,,,,,,,,
,,615a7592136605684a219fae,2024-02-22_05h17.55.860,kallum_motion_pilot,2023.2.2,Win32,59.88023952,615a7592136605684a219fae,65d6bb0e977760de756971f7,65d6bd2b979b6efb5b451cbe,0.054,0.054,0,22,22,39,1,fourthree,,,,,,,,,,,,,,,,,,,,,,,,,,,,,,,,,,,,,,,,,,,,,,,,,,,,,,,,,,,,,,,,,,,,,,,,,,,,,,,,,,,,,,,,,,,,,,,,,,,,,,,,,,,,,,,,,,,,,,,,,,,,,,,,,,,,,,,,,
,,615a7592136605684a219fae,2024-02-22_05h17.55.860,kallum_motion_pilot,2023.2.2,Win32,59.88023952,615a7592136605684a219fae,65d6bb0e977760de756971f7,65d6bd2b979b6efb5b451cbe,0.0542,0.0543,0,23,23,20,1,threeone,,,,,,,,,,,,,,,,,,,,,,,,,,,,,,,,,,,,,,,,,,,,,,,,,,,,,,,,,,,,,,,,,,,,,,,,,,,,,,,,,,,,,,,,,,,,,,,,,,,,,,,,,,,,,,,,,,,,,,,,,,,,,,,,,,,,,,,,,
,,615a7592136605684a219fae,2024-02-22_05h17.55.860,kallum_motion_pilot,2023.2.2,Win32,59.88023952,615a7592136605684a219fae,65d6bb0e977760de756971f7,65d6bd2b979b6efb5b451cbe,0.0546,0.0546,0,24,24,81,1,fiveseven,,,,,,,,,,,,,,,,,,,,,,,,,,,,,,,,,,,,,,,,,,,,,,,,,,,,,,,,,,,,,,,,,,,,,,,,,,,,,,,,,,,,,,,,,,,,,,,,,,,,,,,,,,,,,,,,,,,,,,,,,,,,,,,,,,,,,,,,,
,,615a7592136605684a219fae,2024-02-22_05h17.55.860,kallum_motion_pilot,2023.2.2,Win32,59.88023952,615a7592136605684a219fae,65d6bb0e977760de756971f7,65d6bd2b979b6efb5b451cbe,0.0549,0.0549,0,25,25,58,1,twoone,,,,,,,,,,,,,,,,,,,,,,,,,,,,,,,,,,,,,,,,,,,,,,,,,,,,,,,,,,,,,,,,,,,,,,,,,,,,,,,,,,,,,,,,,,,,,,,,,,,,,,,,,,,,,,,,,,,,,,,,,,,,,,,,,,,,,,,,,
,,615a7592136605684a219fae,2024-02-22_05h17.55.860,kallum_motion_pilot,2023.2.2,Win32,59.88023952,615a7592136605684a219fae,65d6bb0e977760de756971f7,65d6bd2b979b6efb5b451cbe,0.0552,0.0552,0,26,26,148,1,sevenfive,,,,,,,,,,,,,,,,,,,,,,,,,,,,,,,,,,,,,,,,,,,,,,,,,,,,,,,,,,,,,,,,,,,,,,,,,,,,,,,,,,,,,,,,,,,,,,,,,,,,,,,,,,,,,,,,,,,,,,,,,,,,,,,,,,,,,,,,,
,,615a7592136605684a219fae,2024-02-22_05h17.55.860,kallum_motion_pilot,2023.2.2,Win32,59.88023952,615a7592136605684a219fae,65d6bb0e977760de756971f7,65d6bd2b979b6efb5b451cbe,0.0554,0.0555,0,27,27,30,1,fourtwo,,,,,,,,,,,,,,,,,,,,,,,,,,,,,,,,,,,,,,,,,,,,,,,,,,,,,,,,,,,,,,,,,,,,,,,,,,,,,,,,,,,,,,,,,,,,,,,,,,,,,,,,,,,,,,,,,,,,,,,,,,,,,,,,,,,,,,,,,
,,615a7592136605684a219fae,2024-02-22_05h17.55.860,kallum_motion_pilot,2023.2.2,Win32,59.88023952,615a7592136605684a219fae,65d6bb0e977760de756971f7,65d6bd2b979b6efb5b451cbe,0.0558,0.0558,0,28,28,118,1,eightsix,,,,,,,,,,,,,,,,,,,,,,,,,,,,,,,,,,,,,,,,,,,,,,,,,,,,,,,,,,,,,,,,,,,,,,,,,,,,,,,,,,,,,,,,,,,,,,,,,,,,,,,,,,,,,,,,,,,,,,,,,,,,,,,,,,,,,,,,,
,,615a7592136605684a219fae,2024-02-22_05h17.55.860,kallum_motion_pilot,2023.2.2,Win32,59.88023952,615a7592136605684a219fae,65d6bb0e977760de756971f7,65d6bd2b979b6efb5b451cbe,0.0561,0.0561,0,29,29,44,1,threeone,,,,,,,,,,,,,,,,,,,,,,,,,,,,,,,,,,,,,,,,,,,,,,,,,,,,,,,,,,,,,,,,,,,,,,,,,,,,,,,,,,,,,,,,,,,,,,,,,,,,,,,,,,,,,,,,,,,,,,,,,,,,,,,,,,,,,,,,,
,,615a7592136605684a219fae,2024-02-22_05h17.55.860,kallum_motion_pilot,2023.2.2,Win32,59.88023952,615a7592136605684a219fae,65d6bb0e977760de756971f7,65d6bd2b979b6efb5b451cbe,0.0563,0.0563,0,30,30,41,1,onethree,,,,,,,,,,,,,,,,,,,,,,,,,,,,,,,,,,,,,,,,,,,,,,,,,,,,,,,,,,,,,,,,,,,,,,,,,,,,,,,,,,,,,,,,,,,,,,,,,,,,,,,,,,,,,,,,,,,,,,,,,,,,,,,,,,,,,,,,,
,,615a7592136605684a219fae,2024-02-22_05h17.55.860,kallum_motion_pilot,2023.2.2,Win32,59.88023952,615a7592136605684a219fae,65d6bb0e977760de756971f7,65d6bd2b979b6efb5b451cbe,0.0566,0.0567,0,31,31,160,1,fivesix,,,,,,,,,,,,,,,,,,,,,,,,,,,,,,,,,,,,,,,,,,,,,,,,,,,,,,,,,,,,,,,,,,,,,,,,,,,,,,,,,,,,,,,,,,,,,,,,,,,,,,,,,,,,,,,,,,,,,,,,,,,,,,,,,,,,,,,,,
,,615a7592136605684a219fae,2024-02-22_05h17.55.860,kallum_motion_pilot,2023.2.2,Win32,59.88023952,615a7592136605684a219fae,65d6bb0e977760de756971f7,65d6bd2b979b6efb5b451cbe,0.0568,0.0569,0,32,32,146,1,sixfive,,,,,,,,,,,,,,,,,,,,,,,,,,,,,,,,,,,,,,,,,,,,,,,,,,,,,,,,,,,,,,,,,,,,,,,,,,,,,,,,,,,,,,,,,,,,,,,,,,,,,,,,,,,,,,,,,,,,,,,,,,,,,,,,,,,,,,,,,
,,615a7592136605684a219fae,2024-02-22_05h17.55.860,kallum_motion_pilot,2023.2.2,Win32,59.88023952,615a7592136605684a219fae,65d6bb0e977760de756971f7,65d6bd2b979b6efb5b451cbe,0.0571,0.0572,0,33,33,60,1,threeone,,,,,,,,,,,,,,,,,,,,,,,,,,,,,,,,,,,,,,,,,,,,,,,,,,,,,,,,,,,,,,,,,,,,,,,,,,,,,,,,,,,,,,,,,,,,,,,,,,,,,,,,,,,,,,,,,,,,,,,,,,,,,,,,,,,,,,,,,
,,615a7592136605684a219fae,2024-02-22_05h17.55.860,kallum_motion_pilot,2023.2.2,Win32,59.88023952,615a7592136605684a219fae,65d6bb0e977760de756971f7,65d6bd2b979b6efb5b451cbe,0.0588,0.0588,0,34,34,161,1,fiveseven,,,,,,,,,,,,,,,,,,,,,,,,,,,,,,,,,,,,,,,,,,,,,,,,,,,,,,,,,,,,,,,,,,,,,,,,,,,,,,,,,,,,,,,,,,,,,,,,,,,,,,,,,,,,,,,,,,,,,,,,,,,,,,,,,,,,,,,,,
,,615a7592136605684a219fae,2024-02-22_05h17.55.860,kallum_motion_pilot,2023.2.2,Win32,59.88023952,615a7592136605684a219fae,65d6bb0e977760de756971f7,65d6bd2b979b6efb5b451cbe,0.0591,0.0592,0,35,35,131,1,sixeight,,,,,,,,,,,,,,,,,,,,,,,,,,,,,,,,,,,,,,,,,,,,,,,,,,,,,,,,,,,,,,,,,,,,,,,,,,,,,,,,,,,,,,,,,,,,,,,,,,,,,,,,,,,,,,,,,,,,,,,,,,,,,,,,,,,,,,,,,
,,615a7592136605684a219fae,2024-02-22_05h17.55.860,kallum_motion_pilot,2023.2.2,Win32,59.88023952,615a7592136605684a219fae,65d6bb0e977760de756971f7,65d6bd2b979b6efb5b451cbe,0.0595,0.0596,0,36,36,78,1,fourtwo,,,,,,,,,,,,,,,,,,,,,,,,,,,,,,,,,,,,,,,,,,,,,,,,,,,,,,,,,,,,,,,,,,,,,,,,,,,,,,,,,,,,,,,,,,,,,,,,,,,,,,,,,,,,,,,,,,,,,,,,,,,,,,,,,,,,,,,,,
,,615a7592136605684a219fae,2024-02-22_05h17.55.860,kallum_motion_pilot,2023.2.2,Win32,59.88023952,615a7592136605684a219fae,65d6bb0e977760de756971f7,65d6bd2b979b6efb5b451cbe,0.0598,0.0599,0,37,37,117,1,seveneight,,,,,,,,,,,,,,,,,,,,,,,,,,,,,,,,,,,,,,,,,,,,,,,,,,,,,,,,,,,,,,,,,,,,,,,,,,,,,,,,,,,,,,,,,,,,,,,,,,,,,,,,,,,,,,,,,,,,,,,,,,,,,,,,,,,,,,,,,
,,615a7592136605684a219fae,2024-02-22_05h17.55.860,kallum_motion_pilot,2023.2.2,Win32,59.88023952,615a7592136605684a219fae,65d6bb0e977760de756971f7,65d6bd2b979b6efb5b451cbe,0.0601,0.0601,0,38,38,86,1,eightsix,,,,,,,,,,,,,,,,,,,,,,,,,,,,,,,,,,,,,,,,,,,,,,,,,,,,,,,,,,,,,,,,,,,,,,,,,,,,,,,,,,,,,,,,,,,,,,,,,,,,,,,,,,,,,,,,,,,,,,,,,,,,,,,,,,,,,,,,,
,,615a7592136605684a219fae,2024-02-22_05h17.55.860,kallum_motion_pilot,2023.2.2,Win32,59.88023952,615a7592136605684a219fae,65d6bb0e977760de756971f7,65d6bd2b979b6efb5b451cbe,0.0603,0.0604,0,39,39,76,1,threeone,,,,,,,,,,,,,,,,,,,,,,,,,,,,,,,,,,,,,,,,,,,,,,,,,,,,,,,,,,,,,,,,,,,,,,,,,,,,,,,,,,,,,,,,,,,,,,,,,,,,,,,,,,,,,,,,,,,,,,,,,,,,,,,,,,,,,,,,,
,,615a7592136605684a219fae,2024-02-22_05h17.55.860,kallum_motion_pilot,2023.2.2,Win32,59.88023952,615a7592136605684a219fae,65d6bb0e977760de756971f7,65d6bd2b979b6efb5b451cbe,0.0606,0.0607,0,40,40,56,1,onetwo,,,,,,,,,,,,,,,,,,,,,,,,,,,,,,,,,,,,,,,,,,,,,,,,,,,,,,,,,,,,,,,,,,,,,,,,,,,,,,,,,,,,,,,,,,,,,,,,,,,,,,,,,,,,,,,,,,,,,,,,,,,,,,,,,,,,,,,,,
,,615a7592136605684a219fae,2024-02-22_05h17.55.860,kallum_motion_pilot,2023.2.2,Win32,59.88023952,615a7592136605684a219fae,65d6bb0e977760de756971f7,65d6bd2b979b6efb5b451cbe,0.0609,0.061,0,41,41,53,1,threefour,,,,,,,,,,,,,,,,,,,,,,,,,,,,,,,,,,,,,,,,,,,,,,,,,,,,,,,,,,,,,,,,,,,,,,,,,,,,,,,,,,,,,,,,,,,,,,,,,,,,,,,,,,,,,,,,,,,,,,,,,,,,,,,,,,,,,,,,,
,,615a7592136605684a219fae,2024-02-22_05h17.55.860,kallum_motion_pilot,2023.2.2,Win32,59.88023952,615a7592136605684a219fae,65d6bb0e977760de756971f7,65d6bd2b979b6efb5b451cbe,0.0611,0.0613,0,42,42,112,1,fivesix,,,,,,,,,,,,,,,,,,,,,,,,,,,,,,,,,,,,,,,,,,,,,,,,,,,,,,,,,,,,,,,,,,,,,,,,,,,,,,,,,,,,,,,,,,,,,,,,,,,,,,,,,,,,,,,,,,,,,,,,,,,,,,,,,,,,,,,,,
,,615a7592136605684a219fae,2024-02-22_05h17.55.860,kallum_motion_pilot,2023.2.2,Win32,59.88023952,615a7592136605684a219fae,65d6bb0e977760de756971f7,65d6bd2b979b6efb5b451cbe,0.0614,0.0615,0,43,43,74,1,twoone,,,,,,,,,,,,,,,,,,,,,,,,,,,,,,,,,,,,,,,,,,,,,,,,,,,,,,,,,,,,,,,,,,,,,,,,,,,,,,,,,,,,,,,,,,,,,,,,,,,,,,,,,,,,,,,,,,,,,,,,,,,,,,,,,,,,,,,,,
,,615a7592136605684a219fae,2024-02-22_05h17.55.860,kallum_motion_pilot,2023.2.2,Win32,59.88023952,615a7592136605684a219fae,65d6bb0e977760de756971f7,65d6bd2b979b6efb5b451cbe,0.0617,0.0617,0,44,44,139,1,sixeight,,,,,,,,,,,,,,,,,,,,,,,,,,,,,,,,,,,,,,,,,,,,,,,,,,,,,,,,,,,,,,,,,,,,,,,,,,,,,,,,,,,,,,,,,,,,,,,,,,,,,,,,,,,,,,,,,,,,,,,,,,,,,,,,,,,,,,,,,
,,615a7592136605684a219fae,2024-02-22_05h17.55.860,kallum_motion_pilot,2023.2.2,Win32,59.88023952,615a7592136605684a219fae,65d6bb0e977760de756971f7,65d6bd2b979b6efb5b451cbe,0.0619,0.062,0,45,45,37,1,threefour,,,,,,,,,,,,,,,,,,,,,,,,,,,,,,,,,,,,,,,,,,,,,,,,,,,,,,,,,,,,,,,,,,,,,,,,,,,,,,,,,,,,,,,,,,,,,,,,,,,,,,,,,,,,,,,,,,,,,,,,,,,,,,,,,,,,,,,,,
,,615a7592136605684a219fae,2024-02-22_05h17.55.860,kallum_motion_pilot,2023.2.2,Win32,59.88023952,615a7592136605684a219fae,65d6bb0e977760de756971f7,65d6bd2b979b6efb5b451cbe,0.0622,0.0622,0,46,46,130,1,sixfive,,,,,,,,,,,,,,,,,,,,,,,,,,,,,,,,,,,,,,,,,,,,,,,,,,,,,,,,,,,,,,,,,,,,,,,,,,,,,,,,,,,,,,,,,,,,,,,,,,,,,,,,,,,,,,,,,,,,,,,,,,,,,,,,,,,,,,,,,
,,615a7592136605684a219fae,2024-02-22_05h17.55.860,kallum_motion_pilot,2023.2.2,Win32,59.88023952,615a7592136605684a219fae,65d6bb0e977760de756971f7,65d6bd2b979b6efb5b451cbe,0.0625,0.0626,0,47,47,152,1,fivesix,,,,,,,,,,,,,,,,,,,,,,,,,,,,,,,,,,,,,,,,,,,,,,,,,,,,,,,,,,,,,,,,,,,,,,,,,,,,,,,,,,,,,,,,,,,,,,,,,,,,,,,,,,,,,,,,,,,,,,,,,,,,,,,,,,,,,,,,,
,,615a7592136605684a219fae,2024-02-22_05h17.55.860,kallum_motion_pilot,2023.2.2,Win32,59.88023952,615a7592136605684a219fae,65d6bb0e977760de756971f7,65d6bd2b979b6efb5b451cbe,0.0628,0.0629,0,48,48,17,1,onethree,,,,,,,,,,,,,,,,,,,,,,,,,,,,,,,,,,,,,,,,,,,,,,,,,,,,,,,,,,,,,,,,,,,,,,,,,,,,,,,,,,,,,,,,,,,,,,,,,,,,,,,,,,,,,,,,,,,,,,,,,,,,,,,,,,,,,,,,,
,,615a7592136605684a219fae,2024-02-22_05h17.55.860,kallum_motion_pilot,2023.2.2,Win32,59.88023952,615a7592136605684a219fae,65d6bb0e977760de756971f7,65d6bd2b979b6efb5b451cbe,0.063,0.0632,0,49,49,7,1,fourthree,,,,,,,,,,,,,,,,,,,,,,,,,,,,,,,,,,,,,,,,,,,,,,,,,,,,,,,,,,,,,,,,,,,,,,,,,,,,,,,,,,,,,,,,,,,,,,,,,,,,,,,,,,,,,,,,,,,,,,,,,,,,,,,,,,,,,,,,,
,,615a7592136605684a219fae,2024-02-22_05h17.55.860,kallum_motion_pilot,2023.2.2,Win32,59.88023952,615a7592136605684a219fae,65d6bb0e977760de756971f7,65d6bd2b979b6efb5b451cbe,0.0635,0.0636,0,50,50,70,1,fourtwo,,,,,,,,,,,,,,,,,,,,,,,,,,,,,,,,,,,,,,,,,,,,,,,,,,,,,,,,,,,,,,,,,,,,,,,,,,,,,,,,,,,,,,,,,,,,,,,,,,,,,,,,,,,,,,,,,,,,,,,,,,,,,,,,,,,,,,,,,
,,615a7592136605684a219fae,2024-02-22_05h17.55.860,kallum_motion_pilot,2023.2.2,Win32,59.88023952,615a7592136605684a219fae,65d6bb0e977760de756971f7,65d6bd2b979b6efb5b451cbe,0.0639,0.064,0,51,51,116,1,sevenfive,,,,,,,,,,,,,,,,,,,,,,,,,,,,,,,,,,,,,,,,,,,,,,,,,,,,,,,,,,,,,,,,,,,,,,,,,,,,,,,,,,,,,,,,,,,,,,,,,,,,,,,,,,,,,,,,,,,,,,,,,,,,,,,,,,,,,,,,,
,,615a7592136605684a219fae,2024-02-22_05h17.55.860,kallum_motion_pilot,2023.2.2,Win32,59.88023952,615a7592136605684a219fae,65d6bb0e977760de756971f7,65d6bd2b979b6efb5b451cbe,0.0642,0.0644,0,52,52,138,1,sixfive,,,,,,,,,,,,,,,,,,,,,,,,,,,,,,,,,,,,,,,,,,,,,,,,,,,,,,,,,,,,,,,,,,,,,,,,,,,,,,,,,,,,,,,,,,,,,,,,,,,,,,,,,,,,,,,,,,,,,,,,,,,,,,,,,,,,,,,,,
,,615a7592136605684a219fae,2024-02-22_05h17.55.860,kallum_motion_pilot,2023.2.2,Win32,59.88023952,615a7592136605684a219fae,65d6bb0e977760de756971f7,65d6bd2b979b6efb5b451cbe,0.0647,0.0648,0,53,53,100,1,sevenfive,,,,,,,,,,,,,,,,,,,,,,,,,,,,,,,,,,,,,,,,,,,,,,,,,,,,,,,,,,,,,,,,,,,,,,,,,,,,,,,,,,,,,,,,,,,,,,,,,,,,,,,,,,,,,,,,,,,,,,,,,,,,,,,,,,,,,,,,,
,,615a7592136605684a219fae,2024-02-22_05h17.55.860,kallum_motion_pilot,2023.2.2,Win32,59.88023952,615a7592136605684a219fae,65d6bb0e977760de756971f7,65d6bd2b979b6efb5b451cbe,0.0649,0.0651,0,54,54,33,1,onethree,,,,,,,,,,,,,,,,,,,,,,,,,,,,,,,,,,,,,,,,,,,,,,,,,,,,,,,,,,,,,,,,,,,,,,,,,,,,,,,,,,,,,,,,,,,,,,,,,,,,,,,,,,,,,,,,,,,,,,,,,,,,,,,,,,,,,,,,,
,,615a7592136605684a219fae,2024-02-22_05h17.55.860,kallum_motion_pilot,2023.2.2,Win32,59.88023952,615a7592136605684a219fae,65d6bb0e977760de756971f7,65d6bd2b979b6efb5b451cbe,0.0654,0.0655,0,55,55,132,1,sevenfive,,,,,,,,,,,,,,,,,,,,,,,,,,,,,,,,,,,,,,,,,,,,,,,,,,,,,,,,,,,,,,,,,,,,,,,,,,,,,,,,,,,,,,,,,,,,,,,,,,,,,,,,,,,,,,,,,,,,,,,,,,,,,,,,,,,,,,,,,
,,615a7592136605684a219fae,2024-02-22_05h17.55.860,kallum_motion_pilot,2023.2.2,Win32,59.88023952,615a7592136605684a219fae,65d6bb0e977760de756971f7,65d6bd2b979b6efb5b451cbe,0.0658,0.0659,0,56,56,68,1,threeone,,,,,,,,,,,,,,,,,,,,,,,,,,,,,,,,,,,,,,,,,,,,,,,,,,,,,,,,,,,,,,,,,,,,,,,,,,,,,,,,,,,,,,,,,,,,,,,,,,,,,,,,,,,,,,,,,,,,,,,,,,,,,,,,,,,,,,,,,
,,615a7592136605684a219fae,2024-02-22_05h17.55.860,kallum_motion_pilot,2023.2.2,Win32,59.88023952,615a7592136605684a219fae,65d6bb0e977760de756971f7,65d6bd2b979b6efb5b451cbe,0.0661,0.0662,0,57,57,18,1,twoone,,,,,,,,,,,,,,,,,,,,,,,,,,,,,,,,,,,,,,,,,,,,,,,,,,,,,,,,,,,,,,,,,,,,,,,,,,,,,,,,,,,,,,,,,,,,,,,,,,,,,,,,,,,,,,,,,,,,,,,,,,,,,,,,,,,,,,,,,
,,615a7592136605684a219fae,2024-02-22_05h17.55.860,kallum_motion_pilot,2023.2.2,Win32,59.88023952,615a7592136605684a219fae,65d6bb0e977760de756971f7,65d6bd2b979b6efb5b451cbe,0.0665,0.0668,0,58,58,49,1,onethree,,,,,,,,,,,,,,,,,,,,,,,,,,,,,,,,,,,,,,,,,,,,,,,,,,,,,,,,,,,,,,,,,,,,,,,,,,,,,,,,,,,,,,,,,,,,,,,,,,,,,,,,,,,,,,,,,,,,,,,,,,,,,,,,,,,,,,,,,
,,615a7592136605684a219fae,2024-02-22_05h17.55.860,kallum_motion_pilot,2023.2.2,Win32,59.88023952,615a7592136605684a219fae,65d6bb0e977760de756971f7,65d6bd2b979b6efb5b451cbe,0.0669,0.0672,0,59,59,141,1,seveneight,,,,,,,,,,,,,,,,,,,,,,,,,,,,,,,,,,,,,,,,,,,,,,,,,,,,,,,,,,,,,,,,,,,,,,,,,,,,,,,,,,,,,,,,,,,,,,,,,,,,,,,,,,,,,,,,,,,,,,,,,,,,,,,,,,,,,,,,,
,,615a7592136605684a219fae,2024-02-22_05h17.55.860,kallum_motion_pilot,2023.2.2,Win32,59.88023952,615a7592136605684a219fae,65d6bb0e977760de756971f7,65d6bd2b979b6efb5b451cbe,0.0675,0.0676,0,60,60,59,1,twofour,,,,,,,,,,,,,,,,,,,,,,,,,,,,,,,,,,,,,,,,,,,,,,,,,,,,,,,,,,,,,,,,,,,,,,,,,,,,,,,,,,,,,,,,,,,,,,,,,,,,,,,,,,,,,,,,,,,,,,,,,,,,,,,,,,,,,,,,,
,,615a7592136605684a219fae,2024-02-22_05h17.55.860,kallum_motion_pilot,2023.2.2,Win32,59.88023952,615a7592136605684a219fae,65d6bb0e977760de756971f7,65d6bd2b979b6efb5b451cbe,0.0678,0.0679,0,61,61,89,1,fiveseven,,,,,,,,,,,,,,,,,,,,,,,,,,,,,,,,,,,,,,,,,,,,,,,,,,,,,,,,,,,,,,,,,,,,,,,,,,,,,,,,,,,,,,,,,,,,,,,,,,,,,,,,,,,,,,,,,,,,,,,,,,,,,,,,,,,,,,,,,
,,615a7592136605684a219fae,2024-02-22_05h17.55.860,kallum_motion_pilot,2023.2.2,Win32,59.88023952,615a7592136605684a219fae,65d6bb0e977760de756971f7,65d6bd2b979b6efb5b451cbe,0.0681,0.0683,0,62,62,109,1,seveneight,,,,,,,,,,,,,,,,,,,,,,,,,,,,,,,,,,,,,,,,,,,,,,,,,,,,,,,,,,,,,,,,,,,,,,,,,,,,,,,,,,,,,,,,,,,,,,,,,,,,,,,,,,,,,,,,,,,,,,,,,,,,,,,,,,,,,,,,,
,,615a7592136605684a219fae,2024-02-22_05h17.55.860,kallum_motion_pilot,2023.2.2,Win32,59.88023952,615a7592136605684a219fae,65d6bb0e977760de756971f7,65d6bd2b979b6efb5b451cbe,0.0685,0.0685,0,63,63,147,1,sixeight,,,,,,,,,,,,,,,,,,,,,,,,,,,,,,,,,,,,,,,,,,,,,,,,,,,,,,,,,,,,,,,,,,,,,,,,,,,,,,,,,,,,,,,,,,,,,,,,,,,,,,,,,,,,,,,,,,,,,,,,,,,,,,,,,,,,,,,,,
,,615a7592136605684a219fae,2024-02-22_05h17.55.860,kallum_motion_pilot,2023.2.2,Win32,59.88023952,615a7592136605684a219fae,65d6bb0e977760de756971f7,65d6bd2b979b6efb5b451cbe,0.0688,0.0688,0,64,64,55,1,fourthree,,,,,,,,,,,,,,,,,,,,,,,,,,,,,,,,,,,,,,,,,,,,,,,,,,,,,,,,,,,,,,,,,,,,,,,,,,,,,,,,,,,,,,,,,,,,,,,,,,,,,,,,,,,,,,,,,,,,,,,,,,,,,,,,,,,,,,,,,
,,615a7592136605684a219fae,2024-02-22_05h17.55.860,kallum_motion_pilot,2023.2.2,Win32,59.88023952,615a7592136605684a219fae,65d6bb0e977760de756971f7,65d6bd2b979b6efb5b451cbe,0.0691,0.0691,0,65,65,111,1,eightseven,,,,,,,,,,,,,,,,,,,,,,,,,,,,,,,,,,,,,,,,,,,,,,,,,,,,,,,,,,,,,,,,,,,,,,,,,,,,,,,,,,,,,,,,,,,,,,,,,,,,,,,,,,,,,,,,,,,,,,,,,,,,,,,,,,,,,,,,,
,,615a7592136605684a219fae,2024-02-22_05h17.55.860,kallum_motion_pilot,2023.2.2,Win32,59.88023952,615a7592136605684a219fae,65d6bb0e977760de756971f7,65d6bd2b979b6efb5b451cbe,0.0694,0.0695,0,66,66,140,1,sevenfive,,,,,,,,,,,,,,,,,,,,,,,,,,,,,,,,,,,,,,,,,,,,,,,,,,,,,,,,,,,,,,,,,,,,,,,,,,,,,,,,,,,,,,,,,,,,,,,,,,,,,,,,,,,,,,,,,,,,,,,,,,,,,,,,,,,,,,,,,
,,615a7592136605684a219fae,2024-02-22_05h17.55.860,kallum_motion_pilot,2023.2.2,Win32,59.88023952,615a7592136605684a219fae,65d6bb0e977760de756971f7,65d6bd2b979b6efb5b451cbe,0.0699,0.07,0,67,67,145,1,fiveseven,,,,,,,,,,,,,,,,,,,,,,,,,,,,,,,,,,,,,,,,,,,,,,,,,,,,,,,,,,,,,,,,,,,,,,,,,,,,,,,,,,,,,,,,,,,,,,,,,,,,,,,,,,,,,,,,,,,,,,,,,,,,,,,,,,,,,,,,,
,,615a7592136605684a219fae,2024-02-22_05h17.55.860,kallum_motion_pilot,2023.2.2,Win32,59.88023952,615a7592136605684a219fae,65d6bb0e977760de756971f7,65d6bd2b979b6efb5b451cbe,0.0703,0.0704,0,68,68,13,1,threefour,,,,,,,,,,,,,,,,,,,,,,,,,,,,,,,,,,,,,,,,,,,,,,,,,,,,,,,,,,,,,,,,,,,,,,,,,,,,,,,,,,,,,,,,,,,,,,,,,,,,,,,,,,,,,,,,,,,,,,,,,,,,,,,,,,,,,,,,,
,,615a7592136605684a219fae,2024-02-22_05h17.55.860,kallum_motion_pilot,2023.2.2,Win32,59.88023952,615a7592136605684a219fae,65d6bb0e977760de756971f7,65d6bd2b979b6efb5b451cbe,0.0707,0.0707,0,69,69,65,1,onethree,,,,,,,,,,,,,,,,,,,,,,,,,,,,,,,,,,,,,,,,,,,,,,,,,,,,,,,,,,,,,,,,,,,,,,,,,,,,,,,,,,,,,,,,,,,,,,,,,,,,,,,,,,,,,,,,,,,,,,,,,,,,,,,,,,,,,,,,,
,,615a7592136605684a219fae,2024-02-22_05h17.55.860,kallum_motion_pilot,2023.2.2,Win32,59.88023952,615a7592136605684a219fae,65d6bb0e977760de756971f7,65d6bd2b979b6efb5b451cbe,0.0711,0.0713,0,70,70,110,1,eightsix,,,,,,,,,,,,,,,,,,,,,,,,,,,,,,,,,,,,,,,,,,,,,,,,,,,,,,,,,,,,,,,,,,,,,,,,,,,,,,,,,,,,,,,,,,,,,,,,,,,,,,,,,,,,,,,,,,,,,,,,,,,,,,,,,,,,,,,,,
,,615a7592136605684a219fae,2024-02-22_05h17.55.860,kallum_motion_pilot,2023.2.2,Win32,59.88023952,615a7592136605684a219fae,65d6bb0e977760de756971f7,65d6bd2b979b6efb5b451cbe,0.0715,0.0716,0,71,71,35,1,twofour,,,,,,,,,,,,,,,,,,,,,,,,,,,,,,,,,,,,,,,,,,,,,,,,,,,,,,,,,,,,,,,,,,,,,,,,,,,,,,,,,,,,,,,,,,,,,,,,,,,,,,,,,,,,,,,,,,,,,,,,,,,,,,,,,,,,,,,,,
,,615a7592136605684a219fae,2024-02-22_05h17.55.860,kallum_motion_pilot,2023.2.2,Win32,59.88023952,615a7592136605684a219fae,65d6bb0e977760de756971f7,65d6bd2b979b6efb5b451cbe,0.0718,0.072,0,72,72,46,1,fourtwo,,,,,,,,,,,,,,,,,,,,,,,,,,,,,,,,,,,,,,,,,,,,,,,,,,,,,,,,,,,,,,,,,,,,,,,,,,,,,,,,,,,,,,,,,,,,,,,,,,,,,,,,,,,,,,,,,,,,,,,,,,,,,,,,,,,,,,,,,
,,615a7592136605684a219fae,2024-02-22_05h17.55.860,kallum_motion_pilot,2023.2.2,Win32,59.88023952,615a7592136605684a219fae,65d6bb0e977760de756971f7,65d6bd2b979b6efb5b451cbe,0.0721,0.0722,0,73,73,52,1,threeone,,,,,,,,,,,,,,,,,,,,,,,,,,,,,,,,,,,,,,,,,,,,,,,,,,,,,,,,,,,,,,,,,,,,,,,,,,,,,,,,,,,,,,,,,,,,,,,,,,,,,,,,,,,,,,,,,,,,,,,,,,,,,,,,,,,,,,,,,
,,615a7592136605684a219fae,2024-02-22_05h17.55.860,kallum_motion_pilot,2023.2.2,Win32,59.88023952,615a7592136605684a219fae,65d6bb0e977760de756971f7,65d6bd2b979b6efb5b451cbe,0.0724,0.0725,0,74,74,67,1,twofour,,,,,,,,,,,,,,,,,,,,,,,,,,,,,,,,,,,,,,,,,,,,,,,,,,,,,,,,,,,,,,,,,,,,,,,,,,,,,,,,,,,,,,,,,,,,,,,,,,,,,,,,,,,,,,,,,,,,,,,,,,,,,,,,,,,,,,,,,
,,615a7592136605684a219fae,2024-02-22_05h17.55.860,kallum_motion_pilot,2023.2.2,Win32,59.88023952,615a7592136605684a219fae,65d6bb0e977760de756971f7,65d6bd2b979b6efb5b451cbe,0.0727,0.0728,0,75,75,99,1,sixeight,,,,,,,,,,,,,,,,,,,,,,,,,,,,,,,,,,,,,,,,,,,,,,,,,,,,,,,,,,,,,,,,,,,,,,,,,,,,,,,,,,,,,,,,,,,,,,,,,,,,,,,,,,,,,,,,,,,,,,,,,,,,,,,,,,,,,,,,,
,,615a7592136605684a219fae,2024-02-22_05h17.55.860,kallum_motion_pilot,2023.2.2,Win32,59.88023952,615a7592136605684a219fae,65d6bb0e977760de756971f7,65d6bd2b979b6efb5b451cbe,0.073,0.0731,0,76,76,128,1,fivesix,,,,,,,,,,,,,,,,,,,,,,,,,,,,,,,,,,,,,,,,,,,,,,,,,,,,,,,,,,,,,,,,,,,,,,,,,,,,,,,,,,,,,,,,,,,,,,,,,,,,,,,,,,,,,,,,,,,,,,,,,,,,,,,,,,,,,,,,,
,,615a7592136605684a219fae,2024-02-22_05h17.55.860,kallum_motion_pilot,2023.2.2,Win32,59.88023952,615a7592136605684a219fae,65d6bb0e977760de756971f7,65d6bd2b979b6efb5b451cbe,0.0733,0.0734,0,77,77,125,1,seveneight,,,,,,,,,,,,,,,,,,,,,,,,,,,,,,,,,,,,,,,,,,,,,,,,,,,,,,,,,,,,,,,,,,,,,,,,,,,,,,,,,,,,,,,,,,,,,,,,,,,,,,,,,,,,,,,,,,,,,,,,,,,,,,,,,,,,,,,,,
,,615a7592136605684a219fae,2024-02-22_05h17.55.860,kallum_motion_pilot,2023.2.2,Win32,59.88023952,615a7592136605684a219fae,65d6bb0e977760de756971f7,65d6bd2b979b6efb5b451cbe,0.0736,0.0737,0,78,78,85,1,seveneight,,,,,,,,,,,,,,,,,,,,,,,,,,,,,,,,,,,,,,,,,,,,,,,,,,,,,,,,,,,,,,,,,,,,,,,,,,,,,,,,,,,,,,,,,,,,,,,,,,,,,,,,,,,,,,,,,,,,,,,,,,,,,,,,,,,,,,,,,
,,615a7592136605684a219fae,2024-02-22_05h17.55.860,kallum_motion_pilot,2023.2.2,Win32,59.88023952,615a7592136605684a219fae,65d6bb0e977760de756971f7,65d6bd2b979b6efb5b451cbe,0.0739,0.074,0,79,79,107,1,sixeight,,,,,,,,,,,,,,,,,,,,,,,,,,,,,,,,,,,,,,,,,,,,,,,,,,,,,,,,,,,,,,,,,,,,,,,,,,,,,,,,,,,,,,,,,,,,,,,,,,,,,,,,,,,,,,,,,,,,,,,,,,,,,,,,,,,,,,,,,
,,615a7592136605684a219fae,2024-02-22_05h17.55.860,kallum_motion_pilot,2023.2.2,Win32,59.88023952,615a7592136605684a219fae,65d6bb0e977760de756971f7,65d6bd2b979b6efb5b451cbe,0.0742,0.0743,0,80,80,129,1,fiveseven,,,,,,,,,,,,,,,,,,,,,,,,,,,,,,,,,,,,,,,,,,,,,,,,,,,,,,,,,,,,,,,,,,,,,,,,,,,,,,,,,,,,,,,,,,,,,,,,,,,,,,,,,,,,,,,,,,,,,,,,,,,,,,,,,,,,,,,,,
,,615a7592136605684a219fae,2024-02-22_05h17.55.860,kallum_motion_pilot,2023.2.2,Win32,59.88023952,615a7592136605684a219fae,65d6bb0e977760de756971f7,65d6bd2b979b6efb5b451cbe,0.0745,0.0746,0,81,81,79,1,eightseven,,,,,,,,,,,,,,,,,,,,,,,,,,,,,,,,,,,,,,,,,,,,,,,,,,,,,,,,,,,,,,,,,,,,,,,,,,,,,,,,,,,,,,,,,,,,,,,,,,,,,,,,,,,,,,,,,,,,,,,,,,,,,,,,,,,,,,,,,
,,615a7592136605684a219fae,2024-02-22_05h17.55.860,kallum_motion_pilot,2023.2.2,Win32,59.88023952,615a7592136605684a219fae,65d6bb0e977760de756971f7,65d6bd2b979b6efb5b451cbe,0.0749,0.075,0,82,82,64,1,onetwo,,,,,,,,,,,,,,,,,,,,,,,,,,,,,,,,,,,,,,,,,,,,,,,,,,,,,,,,,,,,,,,,,,,,,,,,,,,,,,,,,,,,,,,,,,,,,,,,,,,,,,,,,,,,,,,,,,,,,,,,,,,,,,,,,,,,,,,,,
,,615a7592136605684a219fae,2024-02-22_05h17.55.860,kallum_motion_pilot,2023.2.2,Win32,59.88023952,615a7592136605684a219fae,65d6bb0e977760de756971f7,65d6bd2b979b6efb5b451cbe,0.0751,0.0752,0,83,83,156,1,sevenfive,,,,,,,,,,,,,,,,,,,,,,,,,,,,,,,,,,,,,,,,,,,,,,,,,,,,,,,,,,,,,,,,,,,,,,,,,,,,,,,,,,,,,,,,,,,,,,,,,,,,,,,,,,,,,,,,,,,,,,,,,,,,,,,,,,,,,,,,,
,,615a7592136605684a219fae,2024-02-22_05h17.55.860,kallum_motion_pilot,2023.2.2,Win32,59.88023952,615a7592136605684a219fae,65d6bb0e977760de756971f7,65d6bd2b979b6efb5b451cbe,0.0754,0.0755,0,84,84,1,1,onethree,,,,,,,,,,,,,,,,,,,,,,,,,,,,,,,,,,,,,,,,,,,,,,,,,,,,,,,,,,,,,,,,,,,,,,,,,,,,,,,,,,,,,,,,,,,,,,,,,,,,,,,,,,,,,,,,,,,,,,,,,,,,,,,,,,,,,,,,,
,,615a7592136605684a219fae,2024-02-22_05h17.55.860,kallum_motion_pilot,2023.2.2,Win32,59.88023952,615a7592136605684a219fae,65d6bb0e977760de756971f7,65d6bd2b979b6efb5b451cbe,0.0757,0.0759,0,85,85,154,1,sixfive,,,,,,,,,,,,,,,,,,,,,,,,,,,,,,,,,,,,,,,,,,,,,,,,,,,,,,,,,,,,,,,,,,,,,,,,,,,,,,,,,,,,,,,,,,,,,,,,,,,,,,,,,,,,,,,,,,,,,,,,,,,,,,,,,,,,,,,,,
,,615a7592136605684a219fae,2024-02-22_05h17.55.860,kallum_motion_pilot,2023.2.2,Win32,59.88023952,615a7592136605684a219fae,65d6bb0e977760de756971f7,65d6bd2b979b6efb5b451cbe,0.076,0.0761,0,86,86,83,1,sixeight,,,,,,,,,,,,,,,,,,,,,,,,,,,,,,,,,,,,,,,,,,,,,,,,,,,,,,,,,,,,,,,,,,,,,,,,,,,,,,,,,,,,,,,,,,,,,,,,,,,,,,,,,,,,,,,,,,,,,,,,,,,,,,,,,,,,,,,,,
,,615a7592136605684a219fae,2024-02-22_05h17.55.860,kallum_motion_pilot,2023.2.2,Win32,59.88023952,615a7592136605684a219fae,65d6bb0e977760de756971f7,65d6bd2b979b6efb5b451cbe,0.0763,0.0765,0,87,87,3,1,twofour,,,,,,,,,,,,,,,,,,,,,,,,,,,,,,,,,,,,,,,,,,,,,,,,,,,,,,,,,,,,,,,,,,,,,,,,,,,,,,,,,,,,,,,,,,,,,,,,,,,,,,,,,,,,,,,,,,,,,,,,,,,,,,,,,,,,,,,,,
,,615a7592136605684a219fae,2024-02-22_05h17.55.860,kallum_motion_pilot,2023.2.2,Win32,59.88023952,615a7592136605684a219fae,65d6bb0e977760de756971f7,65d6bd2b979b6efb5b451cbe,0.0766,0.0768,0,88,88,77,1,threefour,,,,,,,,,,,,,,,,,,,,,,,,,,,,,,,,,,,,,,,,,,,,,,,,,,,,,,,,,,,,,,,,,,,,,,,,,,,,,,,,,,,,,,,,,,,,,,,,,,,,,,,,,,,,,,,,,,,,,,,,,,,,,,,,,,,,,,,,,
,,615a7592136605684a219fae,2024-02-22_05h17.55.860,kallum_motion_pilot,2023.2.2,Win32,59.88023952,615a7592136605684a219fae,65d6bb0e977760de756971f7,65d6bd2b979b6efb5b451cbe,0.0769,0.077,0,89,89,42,1,twoone,,,,,,,,,,,,,,,,,,,,,,,,,,,,,,,,,,,,,,,,,,,,,,,,,,,,,,,,,,,,,,,,,,,,,,,,,,,,,,,,,,,,,,,,,,,,,,,,,,,,,,,,,,,,,,,,,,,,,,,,,,,,,,,,,,,,,,,,,
,,615a7592136605684a219fae,2024-02-22_05h17.55.860,kallum_motion_pilot,2023.2.2,Win32,59.88023952,615a7592136605684a219fae,65d6bb0e977760de756971f7,65d6bd2b979b6efb5b451cbe,0.0773,0.0774,0,90,90,144,1,fivesix,,,,,,,,,,,,,,,,,,,,,,,,,,,,,,,,,,,,,,,,,,,,,,,,,,,,,,,,,,,,,,,,,,,,,,,,,,,,,,,,,,,,,,,,,,,,,,,,,,,,,,,,,,,,,,,,,,,,,,,,,,,,,,,,,,,,,,,,,
,,615a7592136605684a219fae,2024-02-22_05h17.55.860,kallum_motion_pilot,2023.2.2,Win32,59.88023952,615a7592136605684a219fae,65d6bb0e977760de756971f7,65d6bd2b979b6efb5b451cbe,0.0776,0.0777,0,91,91,142,1,eightsix,,,,,,,,,,,,,,,,,,,,,,,,,,,,,,,,,,,,,,,,,,,,,,,,,,,,,,,,,,,,,,,,,,,,,,,,,,,,,,,,,,,,,,,,,,,,,,,,,,,,,,,,,,,,,,,,,,,,,,,,,,,,,,,,,,,,,,,,,
,,615a7592136605684a219fae,2024-02-22_05h17.55.860,kallum_motion_pilot,2023.2.2,Win32,59.88023952,615a7592136605684a219fae,65d6bb0e977760de756971f7,65d6bd2b979b6efb5b451cbe,0.078,0.0781,0,92,92,102,1,eightsix,,,,,,,,,,,,,,,,,,,,,,,,,,,,,,,,,,,,,,,,,,,,,,,,,,,,,,,,,,,,,,,,,,,,,,,,,,,,,,,,,,,,,,,,,,,,,,,,,,,,,,,,,,,,,,,,,,,,,,,,,,,,,,,,,,,,,,,,,
,,615a7592136605684a219fae,2024-02-22_05h17.55.860,kallum_motion_pilot,2023.2.2,Win32,59.88023952,615a7592136605684a219fae,65d6bb0e977760de756971f7,65d6bd2b979b6efb5b451cbe,0.0783,0.0785,0,93,93,48,1,onetwo,,,,,,,,,,,,,,,,,,,,,,,,,,,,,,,,,,,,,,,,,,,,,,,,,,,,,,,,,,,,,,,,,,,,,,,,,,,,,,,,,,,,,,,,,,,,,,,,,,,,,,,,,,,,,,,,,,,,,,,,,,,,,,,,,,,,,,,,,
,,615a7592136605684a219fae,2024-02-22_05h17.55.860,kallum_motion_pilot,2023.2.2,Win32,59.88023952,615a7592136605684a219fae,65d6bb0e977760de756971f7,65d6bd2b979b6efb5b451cbe,0.0787,0.0787,0,94,94,9,1,onethree,,,,,,,,,,,,,,,,,,,,,,,,,,,,,,,,,,,,,,,,,,,,,,,,,,,,,,,,,,,,,,,,,,,,,,,,,,,,,,,,,,,,,,,,,,,,,,,,,,,,,,,,,,,,,,,,,,,,,,,,,,,,,,,,,,,,,,,,,
,,615a7592136605684a219fae,2024-02-22_05h17.55.860,kallum_motion_pilot,2023.2.2,Win32,59.88023952,615a7592136605684a219fae,65d6bb0e977760de756971f7,65d6bd2b979b6efb5b451cbe,0.079,0.0791,0,95,95,103,1,eightseven,,,,,,,,,,,,,,,,,,,,,,,,,,,,,,,,,,,,,,,,,,,,,,,,,,,,,,,,,,,,,,,,,,,,,,,,,,,,,,,,,,,,,,,,,,,,,,,,,,,,,,,,,,,,,,,,,,,,,,,,,,,,,,,,,,,,,,,,,
,,615a7592136605684a219fae,2024-02-22_05h17.55.860,kallum_motion_pilot,2023.2.2,Win32,59.88023952,615a7592136605684a219fae,65d6bb0e977760de756971f7,65d6bd2b979b6efb5b451cbe,0.0793,0.0796,0,96,96,94,1,eightsix,,,,,,,,,,,,,,,,,,,,,,,,,,,,,,,,,,,,,,,,,,,,,,,,,,,,,,,,,,,,,,,,,,,,,,,,,,,,,,,,,,,,,,,,,,,,,,,,,,,,,,,,,,,,,,,,,,,,,,,,,,,,,,,,,,,,,,,,,
,,615a7592136605684a219fae,2024-02-22_05h17.55.860,kallum_motion_pilot,2023.2.2,Win32,59.88023952,615a7592136605684a219fae,65d6bb0e977760de756971f7,65d6bd2b979b6efb5b451cbe,0.0798,0.0799,0,97,97,127,1,eightseven,,,,,,,,,,,,,,,,,,,,,,,,,,,,,,,,,,,,,,,,,,,,,,,,,,,,,,,,,,,,,,,,,,,,,,,,,,,,,,,,,,,,,,,,,,,,,,,,,,,,,,,,,,,,,,,,,,,,,,,,,,,,,,,,,,,,,,,,,
,,615a7592136605684a219fae,2024-02-22_05h17.55.860,kallum_motion_pilot,2023.2.2,Win32,59.88023952,615a7592136605684a219fae,65d6bb0e977760de756971f7,65d6bd2b979b6efb5b451cbe,0.0802,0.0805,0,98,98,25,1,onethree,,,,,,,,,,,,,,,,,,,,,,,,,,,,,,,,,,,,,,,,,,,,,,,,,,,,,,,,,,,,,,,,,,,,,,,,,,,,,,,,,,,,,,,,,,,,,,,,,,,,,,,,,,,,,,,,,,,,,,,,,,,,,,,,,,,,,,,,,
,,615a7592136605684a219fae,2024-02-22_05h17.55.860,kallum_motion_pilot,2023.2.2,Win32,59.88023952,615a7592136605684a219fae,65d6bb0e977760de756971f7,65d6bd2b979b6efb5b451cbe,0.0808,0.081,0,99,99,106,1,sixfive,,,,,,,,,,,,,,,,,,,,,,,,,,,,,,,,,,,,,,,,,,,,,,,,,,,,,,,,,,,,,,,,,,,,,,,,,,,,,,,,,,,,,,,,,,,,,,,,,,,,,,,,,,,,,,,,,,,,,,,,,,,,,,,,,,,,,,,,,
,,615a7592136605684a219fae,2024-02-22_05h17.55.860,kallum_motion_pilot,2023.2.2,Win32,59.88023952,615a7592136605684a219fae,65d6bb0e977760de756971f7,65d6bd2b979b6efb5b451cbe,0.0812,0.0815,0,100,100,135,1,eightseven,,,,,,,,,,,,,,,,,,,,,,,,,,,,,,,,,,,,,,,,,,,,,,,,,,,,,,,,,,,,,,,,,,,,,,,,,,,,,,,,,,,,,,,,,,,,,,,,,,,,,,,,,,,,,,,,,,,,,,,,,,,,,,,,,,,,,,,,,
,,615a7592136605684a219fae,2024-02-22_05h17.55.860,kallum_motion_pilot,2023.2.2,Win32,59.88023952,615a7592136605684a219fae,65d6bb0e977760de756971f7,65d6bd2b979b6efb5b451cbe,0.0817,0.0821,0,101,101,149,1,seveneight,,,,,,,,,,,,,,,,,,,,,,,,,,,,,,,,,,,,,,,,,,,,,,,,,,,,,,,,,,,,,,,,,,,,,,,,,,,,,,,,,,,,,,,,,,,,,,,,,,,,,,,,,,,,,,,,,,,,,,,,,,,,,,,,,,,,,,,,,
,,615a7592136605684a219fae,2024-02-22_05h17.55.860,kallum_motion_pilot,2023.2.2,Win32,59.88023952,615a7592136605684a219fae,65d6bb0e977760de756971f7,65d6bd2b979b6efb5b451cbe,0.0825,0.0826,0,102,102,97,1,fiveseven,,,,,,,,,,,,,,,,,,,,,,,,,,,,,,,,,,,,,,,,,,,,,,,,,,,,,,,,,,,,,,,,,,,,,,,,,,,,,,,,,,,,,,,,,,,,,,,,,,,,,,,,,,,,,,,,,,,,,,,,,,,,,,,,,,,,,,,,,
,,615a7592136605684a219fae,2024-02-22_05h17.55.860,kallum_motion_pilot,2023.2.2,Win32,59.88023952,615a7592136605684a219fae,65d6bb0e977760de756971f7,65d6bd2b979b6efb5b451cbe,0.0828,0.0829,0,103,103,51,1,twofour,,,,,,,,,,,,,,,,,,,,,,,,,,,,,,,,,,,,,,,,,,,,,,,,,,,,,,,,,,,,,,,,,,,,,,,,,,,,,,,,,,,,,,,,,,,,,,,,,,,,,,,,,,,,,,,,,,,,,,,,,,,,,,,,,,,,,,,,,
,,615a7592136605684a219fae,2024-02-22_05h17.55.860,kallum_motion_pilot,2023.2.2,Win32,59.88023952,615a7592136605684a219fae,65d6bb0e977760de756971f7,65d6bd2b979b6efb5b451cbe,0.0832,0.0833,0,104,104,54,1,fourtwo,,,,,,,,,,,,,,,,,,,,,,,,,,,,,,,,,,,,,,,,,,,,,,,,,,,,,,,,,,,,,,,,,,,,,,,,,,,,,,,,,,,,,,,,,,,,,,,,,,,,,,,,,,,,,,,,,,,,,,,,,,,,,,,,,,,,,,,,,
,,615a7592136605684a219fae,2024-02-22_05h17.55.860,kallum_motion_pilot,2023.2.2,Win32,59.88023952,615a7592136605684a219fae,65d6bb0e977760de756971f7,65d6bd2b979b6efb5b451cbe,0.0847,0.0848,0,105,105,45,1,threefour,,,,,,,,,,,,,,,,,,,,,,,,,,,,,,,,,,,,,,,,,,,,,,,,,,,,,,,,,,,,,,,,,,,,,,,,,,,,,,,,,,,,,,,,,,,,,,,,,,,,,,,,,,,,,,,,,,,,,,,,,,,,,,,,,,,,,,,,,
,,615a7592136605684a219fae,2024-02-22_05h17.55.860,kallum_motion_pilot,2023.2.2,Win32,59.88023952,615a7592136605684a219fae,65d6bb0e977760de756971f7,65d6bd2b979b6efb5b451cbe,0.0851,0.0852,0,106,106,22,1,fourtwo,,,,,,,,,,,,,,,,,,,,,,,,,,,,,,,,,,,,,,,,,,,,,,,,,,,,,,,,,,,,,,,,,,,,,,,,,,,,,,,,,,,,,,,,,,,,,,,,,,,,,,,,,,,,,,,,,,,,,,,,,,,,,,,,,,,,,,,,,
,,615a7592136605684a219fae,2024-02-22_05h17.55.860,kallum_motion_pilot,2023.2.2,Win32,59.88023952,615a7592136605684a219fae,65d6bb0e977760de756971f7,65d6bd2b979b6efb5b451cbe,0.0854,0.0856,0,107,107,0,1,onetwo,,,,,,,,,,,,,,,,,,,,,,,,,,,,,,,,,,,,,,,,,,,,,,,,,,,,,,,,,,,,,,,,,,,,,,,,,,,,,,,,,,,,,,,,,,,,,,,,,,,,,,,,,,,,,,,,,,,,,,,,,,,,,,,,,,,,,,,,,
,,615a7592136605684a219fae,2024-02-22_05h17.55.860,kallum_motion_pilot,2023.2.2,Win32,59.88023952,615a7592136605684a219fae,65d6bb0e977760de756971f7,65d6bd2b979b6efb5b451cbe,0.0857,0.0859,0,108,108,66,1,twoone,,,,,,,,,,,,,,,,,,,,,,,,,,,,,,,,,,,,,,,,,,,,,,,,,,,,,,,,,,,,,,,,,,,,,,,,,,,,,,,,,,,,,,,,,,,,,,,,,,,,,,,,,,,,,,,,,,,,,,,,,,,,,,,,,,,,,,,,,
,,615a7592136605684a219fae,2024-02-22_05h17.55.860,kallum_motion_pilot,2023.2.2,Win32,59.88023952,615a7592136605684a219fae,65d6bb0e977760de756971f7,65d6bd2b979b6efb5b451cbe,0.0861,0.0861,0,109,109,34,1,twoone,,,,,,,,,,,,,,,,,,,,,,,,,,,,,,,,,,,,,,,,,,,,,,,,,,,,,,,,,,,,,,,,,,,,,,,,,,,,,,,,,,,,,,,,,,,,,,,,,,,,,,,,,,,,,,,,,,,,,,,,,,,,,,,,,,,,,,,,,
,,615a7592136605684a219fae,2024-02-22_05h17.55.860,kallum_motion_pilot,2023.2.2,Win32,59.88023952,615a7592136605684a219fae,65d6bb0e977760de756971f7,65d6bd2b979b6efb5b451cbe,0.0864,0.0866,0,110,110,5,1,threefour,,,,,,,,,,,,,,,,,,,,,,,,,,,,,,,,,,,,,,,,,,,,,,,,,,,,,,,,,,,,,,,,,,,,,,,,,,,,,,,,,,,,,,,,,,,,,,,,,,,,,,,,,,,,,,,,,,,,,,,,,,,,,,,,,,,,,,,,,
,,615a7592136605684a219fae,2024-02-22_05h17.55.860,kallum_motion_pilot,2023.2.2,Win32,59.88023952,615a7592136605684a219fae,65d6bb0e977760de756971f7,65d6bd2b979b6efb5b451cbe,0.0868,0.0869,0,111,111,95,1,eightseven,,,,,,,,,,,,,,,,,,,,,,,,,,,,,,,,,,,,,,,,,,,,,,,,,,,,,,,,,,,,,,,,,,,,,,,,,,,,,,,,,,,,,,,,,,,,,,,,,,,,,,,,,,,,,,,,,,,,,,,,,,,,,,,,,,,,,,,,,
,,615a7592136605684a219fae,2024-02-22_05h17.55.860,kallum_motion_pilot,2023.2.2,Win32,59.88023952,615a7592136605684a219fae,65d6bb0e977760de756971f7,65d6bd2b979b6efb5b451cbe,0.0871,0.0872,0,112,112,82,1,sixfive,,,,,,,,,,,,,,,,,,,,,,,,,,,,,,,,,,,,,,,,,,,,,,,,,,,,,,,,,,,,,,,,,,,,,,,,,,,,,,,,,,,,,,,,,,,,,,,,,,,,,,,,,,,,,,,,,,,,,,,,,,,,,,,,,,,,,,,,,
,,615a7592136605684a219fae,2024-02-22_05h17.55.860,kallum_motion_pilot,2023.2.2,Win32,59.88023952,615a7592136605684a219fae,65d6bb0e977760de756971f7,65d6bd2b979b6efb5b451cbe,0.0874,0.0875,0,113,113,6,1,fourtwo,,,,,,,,,,,,,,,,,,,,,,,,,,,,,,,,,,,,,,,,,,,,,,,,,,,,,,,,,,,,,,,,,,,,,,,,,,,,,,,,,,,,,,,,,,,,,,,,,,,,,,,,,,,,,,,,,,,,,,,,,,,,,,,,,,,,,,,,,
,,615a7592136605684a219fae,2024-02-22_05h17.55.860,kallum_motion_pilot,2023.2.2,Win32,59.88023952,615a7592136605684a219fae,65d6bb0e977760de756971f7,65d6bd2b979b6efb5b451cbe,0.0878,0.0879,0,114,114,119,1,eightseven,,,,,,,,,,,,,,,,,,,,,,,,,,,,,,,,,,,,,,,,,,,,,,,,,,,,,,,,,,,,,,,,,,,,,,,,,,,,,,,,,,,,,,,,,,,,,,,,,,,,,,,,,,,,,,,,,,,,,,,,,,,,,,,,,,,,,,,,,
,,615a7592136605684a219fae,2024-02-22_05h17.55.860,kallum_motion_pilot,2023.2.2,Win32,59.88023952,615a7592136605684a219fae,65d6bb0e977760de756971f7,65d6bd2b979b6efb5b451cbe,0.0882,0.0883,0,115,115,11,1,twofour,,,,,,,,,,,,,,,,,,,,,,,,,,,,,,,,,,,,,,,,,,,,,,,,,,,,,,,,,,,,,,,,,,,,,,,,,,,,,,,,,,,,,,,,,,,,,,,,,,,,,,,,,,,,,,,,,,,,,,,,,,,,,,,,,,,,,,,,,
,,615a7592136605684a219fae,2024-02-22_05h17.55.860,kallum_motion_pilot,2023.2.2,Win32,59.88023952,615a7592136605684a219fae,65d6bb0e977760de756971f7,65d6bd2b979b6efb5b451cbe,0.0885,0.0885,0,116,116,73,1,onethree,,,,,,,,,,,,,,,,,,,,,,,,,,,,,,,,,,,,,,,,,,,,,,,,,,,,,,,,,,,,,,,,,,,,,,,,,,,,,,,,,,,,,,,,,,,,,,,,,,,,,,,,,,,,,,,,,,,,,,,,,,,,,,,,,,,,,,,,,
,,615a7592136605684a219fae,2024-02-22_05h17.55.860,kallum_motion_pilot,2023.2.2,Win32,59.88023952,615a7592136605684a219fae,65d6bb0e977760de756971f7,65d6bd2b979b6efb5b451cbe,0.0888,0.0889,0,117,117,136,1,fivesix,,,,,,,,,,,,,,,,,,,,,,,,,,,,,,,,,,,,,,,,,,,,,,,,,,,,,,,,,,,,,,,,,,,,,,,,,,,,,,,,,,,,,,,,,,,,,,,,,,,,,,,,,,,,,,,,,,,,,,,,,,,,,,,,,,,,,,,,,
,,615a7592136605684a219fae,2024-02-22_05h17.55.860,kallum_motion_pilot,2023.2.2,Win32,59.88023952,615a7592136605684a219fae,65d6bb0e977760de756971f7,65d6bd2b979b6efb5b451cbe,0.0892,0.0892,0,118,118,137,1,fiveseven,,,,,,,,,,,,,,,,,,,,,,,,,,,,,,,,,,,,,,,,,,,,,,,,,,,,,,,,,,,,,,,,,,,,,,,,,,,,,,,,,,,,,,,,,,,,,,,,,,,,,,,,,,,,,,,,,,,,,,,,,,,,,,,,,,,,,,,,,
,,615a7592136605684a219fae,2024-02-22_05h17.55.860,kallum_motion_pilot,2023.2.2,Win32,59.88023952,615a7592136605684a219fae,65d6bb0e977760de756971f7,65d6bd2b979b6efb5b451cbe,0.0896,0.0897,0,119,119,27,1,twofour,,,,,,,,,,,,,,,,,,,,,,,,,,,,,,,,,,,,,,,,,,,,,,,,,,,,,,,,,,,,,,,,,,,,,,,,,,,,,,,,,,,,,,,,,,,,,,,,,,,,,,,,,,,,,,,,,,,,,,,,,,,,,,,,,,,,,,,,,
,,615a7592136605684a219fae,2024-02-22_05h17.55.860,kallum_motion_pilot,2023.2.2,Win32,59.88023952,615a7592136605684a219fae,65d6bb0e977760de756971f7,65d6bd2b979b6efb5b451cbe,0.09,0.0901,0,120,120,29,1,threefour,,,,,,,,,,,,,,,,,,,,,,,,,,,,,,,,,,,,,,,,,,,,,,,,,,,,,,,,,,,,,,,,,,,,,,,,,,,,,,,,,,,,,,,,,,,,,,,,,,,,,,,,,,,,,,,,,,,,,,,,,,,,,,,,,,,,,,,,,
,,615a7592136605684a219fae,2024-02-22_05h17.55.860,kallum_motion_pilot,2023.2.2,Win32,59.88023952,615a7592136605684a219fae,65d6bb0e977760de756971f7,65d6bd2b979b6efb5b451cbe,0.0904,0.0905,0,121,121,12,1,threeone,,,,,,,,,,,,,,,,,,,,,,,,,,,,,,,,,,,,,,,,,,,,,,,,,,,,,,,,,,,,,,,,,,,,,,,,,,,,,,,,,,,,,,,,,,,,,,,,,,,,,,,,,,,,,,,,,,,,,,,,,,,,,,,,,,,,,,,,,
,,615a7592136605684a219fae,2024-02-22_05h17.55.860,kallum_motion_pilot,2023.2.2,Win32,59.88023952,615a7592136605684a219fae,65d6bb0e977760de756971f7,65d6bd2b979b6efb5b451cbe,0.0907,0.0909,0,122,122,93,1,seveneight,,,,,,,,,,,,,,,,,,,,,,,,,,,,,,,,,,,,,,,,,,,,,,,,,,,,,,,,,,,,,,,,,,,,,,,,,,,,,,,,,,,,,,,,,,,,,,,,,,,,,,,,,,,,,,,,,,,,,,,,,,,,,,,,,,,,,,,,,
,,615a7592136605684a219fae,2024-02-22_05h17.55.860,kallum_motion_pilot,2023.2.2,Win32,59.88023952,615a7592136605684a219fae,65d6bb0e977760de756971f7,65d6bd2b979b6efb5b451cbe,0.0911,0.0912,0,123,123,101,1,seveneight,,,,,,,,,,,,,,,,,,,,,,,,,,,,,,,,,,,,,,,,,,,,,,,,,,,,,,,,,,,,,,,,,,,,,,,,,,,,,,,,,,,,,,,,,,,,,,,,,,,,,,,,,,,,,,,,,,,,,,,,,,,,,,,,,,,,,,,,,
,,615a7592136605684a219fae,2024-02-22_05h17.55.860,kallum_motion_pilot,2023.2.2,Win32,59.88023952,615a7592136605684a219fae,65d6bb0e977760de756971f7,65d6bd2b979b6efb5b451cbe,0.0915,0.0916,0,124,124,126,1,eightsix,,,,,,,,,,,,,,,,,,,,,,,,,,,,,,,,,,,,,,,,,,,,,,,,,,,,,,,,,,,,,,,,,,,,,,,,,,,,,,,,,,,,,,,,,,,,,,,,,,,,,,,,,,,,,,,,,,,,,,,,,,,,,,,,,,,,,,,,,
,,615a7592136605684a219fae,2024-02-22_05h17.55.860,kallum_motion_pilot,2023.2.2,Win32,59.88023952,615a7592136605684a219fae,65d6bb0e977760de756971f7,65d6bd2b979b6efb5b451cbe,0.0918,0.092,0,125,125,32,1,onetwo,,,,,,,,,,,,,,,,,,,,,,,,,,,,,,,,,,,,,,,,,,,,,,,,,,,,,,,,,,,,,,,,,,,,,,,,,,,,,,,,,,,,,,,,,,,,,,,,,,,,,,,,,,,,,,,,,,,,,,,,,,,,,,,,,,,,,,,,,
,,615a7592136605684a219fae,2024-02-22_05h17.55.860,kallum_motion_pilot,2023.2.2,Win32,59.88023952,615a7592136605684a219fae,65d6bb0e977760de756971f7,65d6bd2b979b6efb5b451cbe,0.0922,0.0924,0,126,126,143,1,eightseven,,,,,,,,,,,,,,,,,,,,,,,,,,,,,,,,,,,,,,,,,,,,,,,,,,,,,,,,,,,,,,,,,,,,,,,,,,,,,,,,,,,,,,,,,,,,,,,,,,,,,,,,,,,,,,,,,,,,,,,,,,,,,,,,,,,,,,,,,
,,615a7592136605684a219fae,2024-02-22_05h17.55.860,kallum_motion_pilot,2023.2.2,Win32,59.88023952,615a7592136605684a219fae,65d6bb0e977760de756971f7,65d6bd2b979b6efb5b451cbe,0.0926,0.0928,0,127,127,24,1,onetwo,,,,,,,,,,,,,,,,,,,,,,,,,,,,,,,,,,,,,,,,,,,,,,,,,,,,,,,,,,,,,,,,,,,,,,,,,,,,,,,,,,,,,,,,,,,,,,,,,,,,,,,,,,,,,,,,,,,,,,,,,,,,,,,,,,,,,,,,,
,,615a7592136605684a219fae,2024-02-22_05h17.55.860,kallum_motion_pilot,2023.2.2,Win32,59.88023952,615a7592136605684a219fae,65d6bb0e977760de756971f7,65d6bd2b979b6efb5b451cbe,0.0929,0.093,0,128,128,157,1,seveneight,,,,,,,,,,,,,,,,,,,,,,,,,,,,,,,,,,,,,,,,,,,,,,,,,,,,,,,,,,,,,,,,,,,,,,,,,,,,,,,,,,,,,,,,,,,,,,,,,,,,,,,,,,,,,,,,,,,,,,,,,,,,,,,,,,,,,,,,,
,,615a7592136605684a219fae,2024-02-22_05h17.55.860,kallum_motion_pilot,2023.2.2,Win32,59.88023952,615a7592136605684a219fae,65d6bb0e977760de756971f7,65d6bd2b979b6efb5b451cbe,0.0933,0.0933,0,129,129,16,1,onetwo,,,,,,,,,,,,,,,,,,,,,,,,,,,,,,,,,,,,,,,,,,,,,,,,,,,,,,,,,,,,,,,,,,,,,,,,,,,,,,,,,,,,,,,,,,,,,,,,,,,,,,,,,,,,,,,,,,,,,,,,,,,,,,,,,,,,,,,,,
,,615a7592136605684a219fae,2024-02-22_05h17.55.860,kallum_motion_pilot,2023.2.2,Win32,59.88023952,615a7592136605684a219fae,65d6bb0e977760de756971f7,65d6bd2b979b6efb5b451cbe,0.0935,0.0937,0,130,130,92,1,sevenfive,,,,,,,,,,,,,,,,,,,,,,,,,,,,,,,,,,,,,,,,,,,,,,,,,,,,,,,,,,,,,,,,,,,,,,,,,,,,,,,,,,,,,,,,,,,,,,,,,,,,,,,,,,,,,,,,,,,,,,,,,,,,,,,,,,,,,,,,,
,,615a7592136605684a219fae,2024-02-22_05h17.55.860,kallum_motion_pilot,2023.2.2,Win32,59.88023952,615a7592136605684a219fae,65d6bb0e977760de756971f7,65d6bd2b979b6efb5b451cbe,0.0939,0.094,0,131,131,90,1,sixfive,,,,,,,,,,,,,,,,,,,,,,,,,,,,,,,,,,,,,,,,,,,,,,,,,,,,,,,,,,,,,,,,,,,,,,,,,,,,,,,,,,,,,,,,,,,,,,,,,,,,,,,,,,,,,,,,,,,,,,,,,,,,,,,,,,,,,,,,,
,,615a7592136605684a219fae,2024-02-22_05h17.55.860,kallum_motion_pilot,2023.2.2,Win32,59.88023952,615a7592136605684a219fae,65d6bb0e977760de756971f7,65d6bd2b979b6efb5b451cbe,0.0943,0.0944,0,132,132,88,1,fivesix,,,,,,,,,,,,,,,,,,,,,,,,,,,,,,,,,,,,,,,,,,,,,,,,,,,,,,,,,,,,,,,,,,,,,,,,,,,,,,,,,,,,,,,,,,,,,,,,,,,,,,,,,,,,,,,,,,,,,,,,,,,,,,,,,,,,,,,,,
,,615a7592136605684a219fae,2024-02-22_05h17.55.860,kallum_motion_pilot,2023.2.2,Win32,59.88023952,615a7592136605684a219fae,65d6bb0e977760de756971f7,65d6bd2b979b6efb5b451cbe,0.0946,0.0947,0,133,133,123,1,sixeight,,,,,,,,,,,,,,,,,,,,,,,,,,,,,,,,,,,,,,,,,,,,,,,,,,,,,,,,,,,,,,,,,,,,,,,,,,,,,,,,,,,,,,,,,,,,,,,,,,,,,,,,,,,,,,,,,,,,,,,,,,,,,,,,,,,,,,,,,
,,615a7592136605684a219fae,2024-02-22_05h17.55.860,kallum_motion_pilot,2023.2.2,Win32,59.88023952,615a7592136605684a219fae,65d6bb0e977760de756971f7,65d6bd2b979b6efb5b451cbe,0.0949,0.0951,0,134,134,87,1,eightseven,,,,,,,,,,,,,,,,,,,,,,,,,,,,,,,,,,,,,,,,,,,,,,,,,,,,,,,,,,,,,,,,,,,,,,,,,,,,,,,,,,,,,,,,,,,,,,,,,,,,,,,,,,,,,,,,,,,,,,,,,,,,,,,,,,,,,,,,,
,,615a7592136605684a219fae,2024-02-22_05h17.55.860,kallum_motion_pilot,2023.2.2,Win32,59.88023952,615a7592136605684a219fae,65d6bb0e977760de756971f7,65d6bd2b979b6efb5b451cbe,0.0953,0.0954,0,135,135,10,1,twoone,,,,,,,,,,,,,,,,,,,,,,,,,,,,,,,,,,,,,,,,,,,,,,,,,,,,,,,,,,,,,,,,,,,,,,,,,,,,,,,,,,,,,,,,,,,,,,,,,,,,,,,,,,,,,,,,,,,,,,,,,,,,,,,,,,,,,,,,,
,,615a7592136605684a219fae,2024-02-22_05h17.55.860,kallum_motion_pilot,2023.2.2,Win32,59.88023952,615a7592136605684a219fae,65d6bb0e977760de756971f7,65d6bd2b979b6efb5b451cbe,0.0956,0.0958,0,136,136,62,1,fourtwo,,,,,,,,,,,,,,,,,,,,,,,,,,,,,,,,,,,,,,,,,,,,,,,,,,,,,,,,,,,,,,,,,,,,,,,,,,,,,,,,,,,,,,,,,,,,,,,,,,,,,,,,,,,,,,,,,,,,,,,,,,,,,,,,,,,,,,,,,
,,615a7592136605684a219fae,2024-02-22_05h17.55.860,kallum_motion_pilot,2023.2.2,Win32,59.88023952,615a7592136605684a219fae,65d6bb0e977760de756971f7,65d6bd2b979b6efb5b451cbe,0.096,0.0961,0,137,137,153,1,fiveseven,,,,,,,,,,,,,,,,,,,,,,,,,,,,,,,,,,,,,,,,,,,,,,,,,,,,,,,,,,,,,,,,,,,,,,,,,,,,,,,,,,,,,,,,,,,,,,,,,,,,,,,,,,,,,,,,,,,,,,,,,,,,,,,,,,,,,,,,,
,,615a7592136605684a219fae,2024-02-22_05h17.55.860,kallum_motion_pilot,2023.2.2,Win32,59.88023952,615a7592136605684a219fae,65d6bb0e977760de756971f7,65d6bd2b979b6efb5b451cbe,0.0963,0.0964,0,138,138,14,1,fourtwo,,,,,,,,,,,,,,,,,,,,,,,,,,,,,,,,,,,,,,,,,,,,,,,,,,,,,,,,,,,,,,,,,,,,,,,,,,,,,,,,,,,,,,,,,,,,,,,,,,,,,,,,,,,,,,,,,,,,,,,,,,,,,,,,,,,,,,,,,
,,615a7592136605684a219fae,2024-02-22_05h17.55.860,kallum_motion_pilot,2023.2.2,Win32,59.88023952,615a7592136605684a219fae,65d6bb0e977760de756971f7,65d6bd2b979b6efb5b451cbe,0.0966,0.0969,0,139,139,71,1,fourthree,,,,,,,,,,,,,,,,,,,,,,,,,,,,,,,,,,,,,,,,,,,,,,,,,,,,,,,,,,,,,,,,,,,,,,,,,,,,,,,,,,,,,,,,,,,,,,,,,,,,,,,,,,,,,,,,,,,,,,,,,,,,,,,,,,,,,,,,,
,,615a7592136605684a219fae,2024-02-22_05h17.55.860,kallum_motion_pilot,2023.2.2,Win32,59.88023952,615a7592136605684a219fae,65d6bb0e977760de756971f7,65d6bd2b979b6efb5b451cbe,0.0972,0.0973,0,140,140,122,1,sixfive,,,,,,,,,,,,,,,,,,,,,,,,,,,,,,,,,,,,,,,,,,,,,,,,,,,,,,,,,,,,,,,,,,,,,,,,,,,,,,,,,,,,,,,,,,,,,,,,,,,,,,,,,,,,,,,,,,,,,,,,,,,,,,,,,,,,,,,,,
,,615a7592136605684a219fae,2024-02-22_05h17.55.860,kallum_motion_pilot,2023.2.2,Win32,59.88023952,615a7592136605684a219fae,65d6bb0e977760de756971f7,65d6bd2b979b6efb5b451cbe,0.0976,0.0978,0,141,141,23,1,fourthree,,,,,,,,,,,,,,,,,,,,,,,,,,,,,,,,,,,,,,,,,,,,,,,,,,,,,,,,,,,,,,,,,,,,,,,,,,,,,,,,,,,,,,,,,,,,,,,,,,,,,,,,,,,,,,,,,,,,,,,,,,,,,,,,,,,,,,,,,
,,615a7592136605684a219fae,2024-02-22_05h17.55.860,kallum_motion_pilot,2023.2.2,Win32,59.88023952,615a7592136605684a219fae,65d6bb0e977760de756971f7,65d6bd2b979b6efb5b451cbe,0.098,0.0981,0,142,142,113,1,fiveseven,,,,,,,,,,,,,,,,,,,,,,,,,,,,,,,,,,,,,,,,,,,,,,,,,,,,,,,,,,,,,,,,,,,,,,,,,,,,,,,,,,,,,,,,,,,,,,,,,,,,,,,,,,,,,,,,,,,,,,,,,,,,,,,,,,,,,,,,,
,,615a7592136605684a219fae,2024-02-22_05h17.55.860,kallum_motion_pilot,2023.2.2,Win32,59.88023952,615a7592136605684a219fae,65d6bb0e977760de756971f7,65d6bd2b979b6efb5b451cbe,0.0985,0.0986,0,143,143,96,1,fivesix,,,,,,,,,,,,,,,,,,,,,,,,,,,,,,,,,,,,,,,,,,,,,,,,,,,,,,,,,,,,,,,,,,,,,,,,,,,,,,,,,,,,,,,,,,,,,,,,,,,,,,,,,,,,,,,,,,,,,,,,,,,,,,,,,,,,,,,,,
,,615a7592136605684a219fae,2024-02-22_05h17.55.860,kallum_motion_pilot,2023.2.2,Win32,59.88023952,615a7592136605684a219fae,65d6bb0e977760de756971f7,65d6bd2b979b6efb5b451cbe,0.0988,0.099,0,144,144,151,1,eightseven,,,,,,,,,,,,,,,,,,,,,,,,,,,,,,,,,,,,,,,,,,,,,,,,,,,,,,,,,,,,,,,,,,,,,,,,,,,,,,,,,,,,,,,,,,,,,,,,,,,,,,,,,,,,,,,,,,,,,,,,,,,,,,,,,,,,,,,,,
,,615a7592136605684a219fae,2024-02-22_05h17.55.860,kallum_motion_pilot,2023.2.2,Win32,59.88023952,615a7592136605684a219fae,65d6bb0e977760de756971f7,65d6bd2b979b6efb5b451cbe,0.0993,0.0996,0,145,145,120,1,fivesix,,,,,,,,,,,,,,,,,,,,,,,,,,,,,,,,,,,,,,,,,,,,,,,,,,,,,,,,,,,,,,,,,,,,,,,,,,,,,,,,,,,,,,,,,,,,,,,,,,,,,,,,,,,,,,,,,,,,,,,,,,,,,,,,,,,,,,,,,
,,615a7592136605684a219fae,2024-02-22_05h17.55.860,kallum_motion_pilot,2023.2.2,Win32,59.88023952,615a7592136605684a219fae,65d6bb0e977760de756971f7,65d6bd2b979b6efb5b451cbe,0.0999,0.1001,0,146,146,115,1,sixeight,,,,,,,,,,,,,,,,,,,,,,,,,,,,,,,,,,,,,,,,,,,,,,,,,,,,,,,,,,,,,,,,,,,,,,,,,,,,,,,,,,,,,,,,,,,,,,,,,,,,,,,,,,,,,,,,,,,,,,,,,,,,,,,,,,,,,,,,,
,,615a7592136605684a219fae,2024-02-22_05h17.55.860,kallum_motion_pilot,2023.2.2,Win32,59.88023952,615a7592136605684a219fae,65d6bb0e977760de756971f7,65d6bd2b979b6efb5b451cbe,0.1005,0.1007,0,147,147,43,1,twofour,,,,,,,,,,,,,,,,,,,,,,,,,,,,,,,,,,,,,,,,,,,,,,,,,,,,,,,,,,,,,,,,,,,,,,,,,,,,,,,,,,,,,,,,,,,,,,,,,,,,,,,,,,,,,,,,,,,,,,,,,,,,,,,,,,,,,,,,,
,,615a7592136605684a219fae,2024-02-22_05h17.55.860,kallum_motion_pilot,2023.2.2,Win32,59.88023952,615a7592136605684a219fae,65d6bb0e977760de756971f7,65d6bd2b979b6efb5b451cbe,0.1009,0.1011,0,148,148,26,1,twoone,,,,,,,,,,,,,,,,,,,,,,,,,,,,,,,,,,,,,,,,,,,,,,,,,,,,,,,,,,,,,,,,,,,,,,,,,,,,,,,,,,,,,,,,,,,,,,,,,,,,,,,,,,,,,,,,,,,,,,,,,,,,,,,,,,,,,,,,,
,,615a7592136605684a219fae,2024-02-22_05h17.55.860,kallum_motion_pilot,2023.2.2,Win32,59.88023952,615a7592136605684a219fae,65d6bb0e977760de756971f7,65d6bd2b979b6efb5b451cbe,0.1012,0.1014,0,149,149,31,1,fourthree,,,,,,,,,,,,,,,,,,,,,,,,,,,,,,,,,,,,,,,,,,,,,,,,,,,,,,,,,,,,,,,,,,,,,,,,,,,,,,,,,,,,,,,,,,,,,,,,,,,,,,,,,,,,,,,,,,,,,,,,,,,,,,,,,,,,,,,,,
,,615a7592136605684a219fae,2024-02-22_05h17.55.860,kallum_motion_pilot,2023.2.2,Win32,59.88023952,615a7592136605684a219fae,65d6bb0e977760de756971f7,65d6bd2b979b6efb5b451cbe,0.1016,0.1018,0,150,150,121,1,fiveseven,,,,,,,,,,,,,,,,,,,,,,,,,,,,,,,,,,,,,,,,,,,,,,,,,,,,,,,,,,,,,,,,,,,,,,,,,,,,,,,,,,,,,,,,,,,,,,,,,,,,,,,,,,,,,,,,,,,,,,,,,,,,,,,,,,,,,,,,,
,,615a7592136605684a219fae,2024-02-22_05h17.55.860,kallum_motion_pilot,2023.2.2,Win32,59.88023952,615a7592136605684a219fae,65d6bb0e977760de756971f7,65d6bd2b979b6efb5b451cbe,0.102,0.1021,0,151,151,98,1,sixfive,,,,,,,,,,,,,,,,,,,,,,,,,,,,,,,,,,,,,,,,,,,,,,,,,,,,,,,,,,,,,,,,,,,,,,,,,,,,,,,,,,,,,,,,,,,,,,,,,,,,,,,,,,,,,,,,,,,,,,,,,,,,,,,,,,,,,,,,,
,,615a7592136605684a219fae,2024-02-22_05h17.55.860,kallum_motion_pilot,2023.2.2,Win32,59.88023952,615a7592136605684a219fae,65d6bb0e977760de756971f7,65d6bd2b979b6efb5b451cbe,0.1024,0.1025,0,152,152,91,1,sixeight,,,,,,,,,,,,,,,,,,,,,,,,,,,,,,,,,,,,,,,,,,,,,,,,,,,,,,,,,,,,,,,,,,,,,,,,,,,,,,,,,,,,,,,,,,,,,,,,,,,,,,,,,,,,,,,,,,,,,,,,,,,,,,,,,,,,,,,,,
,,615a7592136605684a219fae,2024-02-22_05h17.55.860,kallum_motion_pilot,2023.2.2,Win32,59.88023952,615a7592136605684a219fae,65d6bb0e977760de756971f7,65d6bd2b979b6efb5b451cbe,0.1027,0.1029,0,153,153,47,1,fourthree,,,,,,,,,,,,,,,,,,,,,,,,,,,,,,,,,,,,,,,,,,,,,,,,,,,,,,,,,,,,,,,,,,,,,,,,,,,,,,,,,,,,,,,,,,,,,,,,,,,,,,,,,,,,,,,,,,,,,,,,,,,,,,,,,,,,,,,,,
,,615a7592136605684a219fae,2024-02-22_05h17.55.860,kallum_motion_pilot,2023.2.2,Win32,59.88023952,615a7592136605684a219fae,65d6bb0e977760de756971f7,65d6bd2b979b6efb5b451cbe,0.1031,0.1033,0,154,154,19,1,twofour,,,,,,,,,,,,,,,,,,,,,,,,,,,,,,,,,,,,,,,,,,,,,,,,,,,,,,,,,,,,,,,,,,,,,,,,,,,,,,,,,,,,,,,,,,,,,,,,,,,,,,,,,,,,,,,,,,,,,,,,,,,,,,,,,,,,,,,,,
,,615a7592136605684a219fae,2024-02-22_05h17.55.860,kallum_motion_pilot,2023.2.2,Win32,59.88023952,615a7592136605684a219fae,65d6bb0e977760de756971f7,65d6bd2b979b6efb5b451cbe,0.1035,0.1035,0,155,155,50,1,twoone,,,,,,,,,,,,,,,,,,,,,,,,,,,,,,,,,,,,,,,,,,,,,,,,,,,,,,,,,,,,,,,,,,,,,,,,,,,,,,,,,,,,,,,,,,,,,,,,,,,,,,,,,,,,,,,,,,,,,,,,,,,,,,,,,,,,,,,,,
,,615a7592136605684a219fae,2024-02-22_05h17.55.860,kallum_motion_pilot,2023.2.2,Win32,59.88023952,615a7592136605684a219fae,65d6bb0e977760de756971f7,65d6bd2b979b6efb5b451cbe,0.1038,0.1039,0,156,156,150,1,eightsix,,,,,,,,,,,,,,,,,,,,,,,,,,,,,,,,,,,,,,,,,,,,,,,,,,,,,,,,,,,,,,,,,,,,,,,,,,,,,,,,,,,,,,,,,,,,,,,,,,,,,,,,,,,,,,,,,,,,,,,,,,,,,,,,,,,,,,,,,
,,615a7592136605684a219fae,2024-02-22_05h17.55.860,kallum_motion_pilot,2023.2.2,Win32,59.88023952,615a7592136605684a219fae,65d6bb0e977760de756971f7,65d6bd2b979b6efb5b451cbe,0.1041,0.1043,0,157,157,133,1,seveneight,,,,,,,,,,,,,,,,,,,,,,,,,,,,,,,,,,,,,,,,,,,,,,,,,,,,,,,,,,,,,,,,,,,,,,,,,,,,,,,,,,,,,,,,,,,,,,,,,,,,,,,,,,,,,,,,,,,,,,,,,,,,,,,,,,,,,,,,,
,,615a7592136605684a219fae,2024-02-22_05h17.55.860,kallum_motion_pilot,2023.2.2,Win32,59.88023952,615a7592136605684a219fae,65d6bb0e977760de756971f7,65d6bd2b979b6efb5b451cbe,0.1045,0.1046,0,158,158,84,1,sevenfive,,,,,,,,,,,,,,,,,,,,,,,,,,,,,,,,,,,,,,,,,,,,,,,,,,,,,,,,,,,,,,,,,,,,,,,,,,,,,,,,,,,,,,,,,,,,,,,,,,,,,,,,,,,,,,,,,,,,,,,,,,,,,,,,,,,,,,,,,
,,615a7592136605684a219fae,2024-02-22_05h17.55.860,kallum_motion_pilot,2023.2.2,Win32,59.88023952,615a7592136605684a219fae,65d6bb0e977760de756971f7,65d6bd2b979b6efb5b451cbe,0.1048,0.105,0,159,159,75,1,twofour,,,,,,,,,,,,,,,,,,,,,,,,,,,,,,,,,,,,,,,,,,,,,,,,,,,,,,,,,,,,,,,,,,,,,,,,,,,,,,,,,,,,,,,,,,,,,,,,,,,,,,,,,,,,,,,,,,,,,,,,,,,,,,,,,,,,,,,,,
,,615a7592136605684a219fae,2024-02-22_05h17.55.860,kallum_motion_pilot,2023.2.2,Win32,59.88023952,615a7592136605684a219fae,65d6bb0e977760de756971f7,65d6bd2b979b6efb5b451cbe,0.1051,0.1053,0,160,160,57,1,onethree,,,,,,,,,,,,,,,,,,,,,,,,,,,,,,,,,,,,,,,,,,,,,,,,,,,,,,,,,,,,,,,,,,,,,,,,,,,,,,,,,,,,,,,,,,,,,,,,,,,,,,,,,,,,,,,,,,,,,,,,,,,,,,,,,,,,,,,,,
,,615a7592136605684a219fae,2024-02-22_05h17.55.860,kallum_motion_pilot,2023.2.2,Win32,59.88023952,615a7592136605684a219fae,65d6bb0e977760de756971f7,65d6bd2b979b6efb5b451cbe,0.1055,0.1058,0,161,161,105,1,fiveseven,,,,,,,,,,,,,,,,,,,,,,,,,,,,,,,,,,,,,,,,,,,,,,,,,,,,,,,,,,,,,,,,,,,,,,,,,,,,,,,,,,,,,,,,,,,,,,,,,,,,,,,,,,,,,,,,,,,,,,,,,,,,,,,,,,,,,,,,,
,,615a7592136605684a219fae,2024-02-22_05h17.55.860,kallum_motion_pilot,2023.2.2,Win32,59.88023952,615a7592136605684a219fae,65d6bb0e977760de756971f7,65d6bd2b979b6efb5b451cbe,0.1059,0.1061,1,0,162,82,1,sixfive,,,,,,,,,,,,,,,,,,,,,,,,,,,,,,,,,,,,,,,,,,,,,,,,,,,,,,,,,,,,,,,,,,,,,,,,,,,,,,,,,,,,,,,,,,,,,,,,,,,,,,,,,,,,,,,,,,,,,,,,,,,,,,,,,,,,,,,,,
,,615a7592136605684a219fae,2024-02-22_05h17.55.860,kallum_motion_pilot,2023.2.2,Win32,59.88023952,615a7592136605684a219fae,65d6bb0e977760de756971f7,65d6bd2b979b6efb5b451cbe,0.1063,0.1064,1,1,163,115,1,sixeight,,,,,,,,,,,,,,,,,,,,,,,,,,,,,,,,,,,,,,,,,,,,,,,,,,,,,,,,,,,,,,,,,,,,,,,,,,,,,,,,,,,,,,,,,,,,,,,,,,,,,,,,,,,,,,,,,,,,,,,,,,,,,,,,,,,,,,,,,
,,615a7592136605684a219fae,2024-02-22_05h17.55.860,kallum_motion_pilot,2023.2.2,Win32,59.88023952,615a7592136605684a219fae,65d6bb0e977760de756971f7,65d6bd2b979b6efb5b451cbe,0.1066,0.1068,1,2,164,133,1,seveneight,,,,,,,,,,,,,,,,,,,,,,,,,,,,,,,,,,,,,,,,,,,,,,,,,,,,,,,,,,,,,,,,,,,,,,,,,,,,,,,,,,,,,,,,,,,,,,,,,,,,,,,,,,,,,,,,,,,,,,,,,,,,,,,,,,,,,,,,,
,,615a7592136605684a219fae,2024-02-22_05h17.55.860,kallum_motion_pilot,2023.2.2,Win32,59.88023952,615a7592136605684a219fae,65d6bb0e977760de756971f7,65d6bd2b979b6efb5b451cbe,0.107,0.1071,1,3,165,150,1,eightsix,,,,,,,,,,,,,,,,,,,,,,,,,,,,,,,,,,,,,,,,,,,,,,,,,,,,,,,,,,,,,,,,,,,,,,,,,,,,,,,,,,,,,,,,,,,,,,,,,,,,,,,,,,,,,,,,,,,,,,,,,,,,,,,,,,,,,,,,,
,,615a7592136605684a219fae,2024-02-22_05h17.55.860,kallum_motion_pilot,2023.2.2,Win32,59.88023952,615a7592136605684a219fae,65d6bb0e977760de756971f7,65d6bd2b979b6efb5b451cbe,0.1074,0.1076,1,4,166,129,1,fiveseven,,,,,,,,,,,,,,,,,,,,,,,,,,,,,,,,,,,,,,,,,,,,,,,,,,,,,,,,,,,,,,,,,,,,,,,,,,,,,,,,,,,,,,,,,,,,,,,,,,,,,,,,,,,,,,,,,,,,,,,,,,,,,,,,,,,,,,,,,
,,615a7592136605684a219fae,2024-02-22_05h17.55.860,kallum_motion_pilot,2023.2.2,Win32,59.88023952,615a7592136605684a219fae,65d6bb0e977760de756971f7,65d6bd2b979b6efb5b451cbe,0.1077,0.1078,1,5,167,15,1,fourthree,,,,,,,,,,,,,,,,,,,,,,,,,,,,,,,,,,,,,,,,,,,,,,,,,,,,,,,,,,,,,,,,,,,,,,,,,,,,,,,,,,,,,,,,,,,,,,,,,,,,,,,,,,,,,,,,,,,,,,,,,,,,,,,,,,,,,,,,,
,,615a7592136605684a219fae,2024-02-22_05h17.55.860,kallum_motion_pilot,2023.2.2,Win32,59.88023952,615a7592136605684a219fae,65d6bb0e977760de756971f7,65d6bd2b979b6efb5b451cbe,0.1081,0.1082,1,6,168,159,1,eightseven,,,,,,,,,,,,,,,,,,,,,,,,,,,,,,,,,,,,,,,,,,,,,,,,,,,,,,,,,,,,,,,,,,,,,,,,,,,,,,,,,,,,,,,,,,,,,,,,,,,,,,,,,,,,,,,,,,,,,,,,,,,,,,,,,,,,,,,,,
,,615a7592136605684a219fae,2024-02-22_05h17.55.860,kallum_motion_pilot,2023.2.2,Win32,59.88023952,615a7592136605684a219fae,65d6bb0e977760de756971f7,65d6bd2b979b6efb5b451cbe,0.1084,0.1085,1,7,169,58,1,twoone,,,,,,,,,,,,,,,,,,,,,,,,,,,,,,,,,,,,,,,,,,,,,,,,,,,,,,,,,,,,,,,,,,,,,,,,,,,,,,,,,,,,,,,,,,,,,,,,,,,,,,,,,,,,,,,,,,,,,,,,,,,,,,,,,,,,,,,,,
,,615a7592136605684a219fae,2024-02-22_05h17.55.860,kallum_motion_pilot,2023.2.2,Win32,59.88023952,615a7592136605684a219fae,65d6bb0e977760de756971f7,65d6bd2b979b6efb5b451cbe,0.1087,0.1088,1,8,170,142,1,eightsix,,,,,,,,,,,,,,,,,,,,,,,,,,,,,,,,,,,,,,,,,,,,,,,,,,,,,,,,,,,,,,,,,,,,,,,,,,,,,,,,,,,,,,,,,,,,,,,,,,,,,,,,,,,,,,,,,,,,,,,,,,,,,,,,,,,,,,,,,
,,615a7592136605684a219fae,2024-02-22_05h17.55.860,kallum_motion_pilot,2023.2.2,Win32,59.88023952,615a7592136605684a219fae,65d6bb0e977760de756971f7,65d6bd2b979b6efb5b451cbe,0.1091,0.1091,1,9,171,93,1,seveneight,,,,,,,,,,,,,,,,,,,,,,,,,,,,,,,,,,,,,,,,,,,,,,,,,,,,,,,,,,,,,,,,,,,,,,,,,,,,,,,,,,,,,,,,,,,,,,,,,,,,,,,,,,,,,,,,,,,,,,,,,,,,,,,,,,,,,,,,,
,,615a7592136605684a219fae,2024-02-22_05h17.55.860,kallum_motion_pilot,2023.2.2,Win32,59.88023952,615a7592136605684a219fae,65d6bb0e977760de756971f7,65d6bd2b979b6efb5b451cbe,0.1093,0.1095,1,10,172,51,1,twofour,,,,,,,,,,,,,,,,,,,,,,,,,,,,,,,,,,,,,,,,,,,,,,,,,,,,,,,,,,,,,,,,,,,,,,,,,,,,,,,,,,,,,,,,,,,,,,,,,,,,,,,,,,,,,,,,,,,,,,,,,,,,,,,,,,,,,,,,,
,,615a7592136605684a219fae,2024-02-22_05h17.55.860,kallum_motion_pilot,2023.2.2,Win32,59.88023952,615a7592136605684a219fae,65d6bb0e977760de756971f7,65d6bd2b979b6efb5b451cbe,0.1099,0.11,1,11,173,138,1,sixfive,,,,,,,,,,,,,,,,,,,,,,,,,,,,,,,,,,,,,,,,,,,,,,,,,,,,,,,,,,,,,,,,,,,,,,,,,,,,,,,,,,,,,,,,,,,,,,,,,,,,,,,,,,,,,,,,,,,,,,,,,,,,,,,,,,,,,,,,,
,,615a7592136605684a219fae,2024-02-22_05h17.55.860,kallum_motion_pilot,2023.2.2,Win32,59.88023952,615a7592136605684a219fae,65d6bb0e977760de756971f7,65d6bd2b979b6efb5b451cbe,0.1102,0.1103,1,12,174,131,1,sixeight,,,,,,,,,,,,,,,,,,,,,,,,,,,,,,,,,,,,,,,,,,,,,,,,,,,,,,,,,,,,,,,,,,,,,,,,,,,,,,,,,,,,,,,,,,,,,,,,,,,,,,,,,,,,,,,,,,,,,,,,,,,,,,,,,,,,,,,,,
,,615a7592136605684a219fae,2024-02-22_05h17.55.860,kallum_motion_pilot,2023.2.2,Win32,59.88023952,615a7592136605684a219fae,65d6bb0e977760de756971f7,65d6bd2b979b6efb5b451cbe,0.1106,0.1108,1,13,175,89,1,fiveseven,,,,,,,,,,,,,,,,,,,,,,,,,,,,,,,,,,,,,,,,,,,,,,,,,,,,,,,,,,,,,,,,,,,,,,,,,,,,,,,,,,,,,,,,,,,,,,,,,,,,,,,,,,,,,,,,,,,,,,,,,,,,,,,,,,,,,,,,,
,,615a7592136605684a219fae,2024-02-22_05h17.55.860,kallum_motion_pilot,2023.2.2,Win32,59.88023952,615a7592136605684a219fae,65d6bb0e977760de756971f7,65d6bd2b979b6efb5b451cbe,0.111,0.1111,1,14,176,160,1,fivesix,,,,,,,,,,,,,,,,,,,,,,,,,,,,,,,,,,,,,,,,,,,,,,,,,,,,,,,,,,,,,,,,,,,,,,,,,,,,,,,,,,,,,,,,,,,,,,,,,,,,,,,,,,,,,,,,,,,,,,,,,,,,,,,,,,,,,,,,,
,,615a7592136605684a219fae,2024-02-22_05h17.55.860,kallum_motion_pilot,2023.2.2,Win32,59.88023952,615a7592136605684a219fae,65d6bb0e977760de756971f7,65d6bd2b979b6efb5b451cbe,0.1113,0.1115,1,15,177,95,1,eightseven,,,,,,,,,,,,,,,,,,,,,,,,,,,,,,,,,,,,,,,,,,,,,,,,,,,,,,,,,,,,,,,,,,,,,,,,,,,,,,,,,,,,,,,,,,,,,,,,,,,,,,,,,,,,,,,,,,,,,,,,,,,,,,,,,,,,,,,,,
,,615a7592136605684a219fae,2024-02-22_05h17.55.860,kallum_motion_pilot,2023.2.2,Win32,59.88023952,615a7592136605684a219fae,65d6bb0e977760de756971f7,65d6bd2b979b6efb5b451cbe,0.1116,0.1118,1,16,178,107,1,sixeight,,,,,,,,,,,,,,,,,,,,,,,,,,,,,,,,,,,,,,,,,,,,,,,,,,,,,,,,,,,,,,,,,,,,,,,,,,,,,,,,,,,,,,,,,,,,,,,,,,,,,,,,,,,,,,,,,,,,,,,,,,,,,,,,,,,,,,,,,
,,615a7592136605684a219fae,2024-02-22_05h17.55.860,kallum_motion_pilot,2023.2.2,Win32,59.88023952,615a7592136605684a219fae,65d6bb0e977760de756971f7,65d6bd2b979b6efb5b451cbe,0.1121,0.1123,1,17,179,90,1,sixfive,,,,,,,,,,,,,,,,,,,,,,,,,,,,,,,,,,,,,,,,,,,,,,,,,,,,,,,,,,,,,,,,,,,,,,,,,,,,,,,,,,,,,,,,,,,,,,,,,,,,,,,,,,,,,,,,,,,,,,,,,,,,,,,,,,,,,,,,,
,,615a7592136605684a219fae,2024-02-22_05h17.55.860,kallum_motion_pilot,2023.2.2,Win32,59.88023952,615a7592136605684a219fae,65d6bb0e977760de756971f7,65d6bd2b979b6efb5b451cbe,0.1125,0.1127,1,18,180,125,1,seveneight,,,,,,,,,,,,,,,,,,,,,,,,,,,,,,,,,,,,,,,,,,,,,,,,,,,,,,,,,,,,,,,,,,,,,,,,,,,,,,,,,,,,,,,,,,,,,,,,,,,,,,,,,,,,,,,,,,,,,,,,,,,,,,,,,,,,,,,,,
,,615a7592136605684a219fae,2024-02-22_05h17.55.860,kallum_motion_pilot,2023.2.2,Win32,59.88023952,615a7592136605684a219fae,65d6bb0e977760de756971f7,65d6bd2b979b6efb5b451cbe,0.113,0.1131,1,19,181,98,1,sixfive,,,,,,,,,,,,,,,,,,,,,,,,,,,,,,,,,,,,,,,,,,,,,,,,,,,,,,,,,,,,,,,,,,,,,,,,,,,,,,,,,,,,,,,,,,,,,,,,,,,,,,,,,,,,,,,,,,,,,,,,,,,,,,,,,,,,,,,,,
,,615a7592136605684a219fae,2024-02-22_05h17.55.860,kallum_motion_pilot,2023.2.2,Win32,59.88023952,615a7592136605684a219fae,65d6bb0e977760de756971f7,65d6bd2b979b6efb5b451cbe,0.1134,0.1137,1,20,182,67,1,twofour,,,,,,,,,,,,,,,,,,,,,,,,,,,,,,,,,,,,,,,,,,,,,,,,,,,,,,,,,,,,,,,,,,,,,,,,,,,,,,,,,,,,,,,,,,,,,,,,,,,,,,,,,,,,,,,,,,,,,,,,,,,,,,,,,,,,,,,,,
,,615a7592136605684a219fae,2024-02-22_05h17.55.860,kallum_motion_pilot,2023.2.2,Win32,59.88023952,615a7592136605684a219fae,65d6bb0e977760de756971f7,65d6bd2b979b6efb5b451cbe,0.1144,0.1147,1,21,183,1,1,onethree,,,,,,,,,,,,,,,,,,,,,,,,,,,,,,,,,,,,,,,,,,,,,,,,,,,,,,,,,,,,,,,,,,,,,,,,,,,,,,,,,,,,,,,,,,,,,,,,,,,,,,,,,,,,,,,,,,,,,,,,,,,,,,,,,,,,,,,,,
,,615a7592136605684a219fae,2024-02-22_05h17.55.860,kallum_motion_pilot,2023.2.2,Win32,59.88023952,615a7592136605684a219fae,65d6bb0e977760de756971f7,65d6bd2b979b6efb5b451cbe,0.115,0.1152,1,22,184,77,1,threefour,,,,,,,,,,,,,,,,,,,,,,,,,,,,,,,,,,,,,,,,,,,,,,,,,,,,,,,,,,,,,,,,,,,,,,,,,,,,,,,,,,,,,,,,,,,,,,,,,,,,,,,,,,,,,,,,,,,,,,,,,,,,,,,,,,,,,,,,,
,,615a7592136605684a219fae,2024-02-22_05h17.55.860,kallum_motion_pilot,2023.2.2,Win32,59.88023952,615a7592136605684a219fae,65d6bb0e977760de756971f7,65d6bd2b979b6efb5b451cbe,0.1156,0.1157,1,23,185,106,1,sixfive,,,,,,,,,,,,,,,,,,,,,,,,,,,,,,,,,,,,,,,,,,,,,,,,,,,,,,,,,,,,,,,,,,,,,,,,,,,,,,,,,,,,,,,,,,,,,,,,,,,,,,,,,,,,,,,,,,,,,,,,,,,,,,,,,,,,,,,,,
,,615a7592136605684a219fae,2024-02-22_05h17.55.860,kallum_motion_pilot,2023.2.2,Win32,59.88023952,615a7592136605684a219fae,65d6bb0e977760de756971f7,65d6bd2b979b6efb5b451cbe,0.1161,0.1163,1,24,186,161,1,fiveseven,,,,,,,,,,,,,,,,,,,,,,,,,,,,,,,,,,,,,,,,,,,,,,,,,,,,,,,,,,,,,,,,,,,,,,,,,,,,,,,,,,,,,,,,,,,,,,,,,,,,,,,,,,,,,,,,,,,,,,,,,,,,,,,,,,,,,,,,,
,,615a7592136605684a219fae,2024-02-22_05h17.55.860,kallum_motion_pilot,2023.2.2,Win32,59.88023952,615a7592136605684a219fae,65d6bb0e977760de756971f7,65d6bd2b979b6efb5b451cbe,0.1165,0.1167,1,25,187,136,1,fivesix,,,,,,,,,,,,,,,,,,,,,,,,,,,,,,,,,,,,,,,,,,,,,,,,,,,,,,,,,,,,,,,,,,,,,,,,,,,,,,,,,,,,,,,,,,,,,,,,,,,,,,,,,,,,,,,,,,,,,,,,,,,,,,,,,,,,,,,,,
,,615a7592136605684a219fae,2024-02-22_05h17.55.860,kallum_motion_pilot,2023.2.2,Win32,59.88023952,615a7592136605684a219fae,65d6bb0e977760de756971f7,65d6bd2b979b6efb5b451cbe,0.117,0.1172,1,26,188,18,1,twoone,,,,,,,,,,,,,,,,,,,,,,,,,,,,,,,,,,,,,,,,,,,,,,,,,,,,,,,,,,,,,,,,,,,,,,,,,,,,,,,,,,,,,,,,,,,,,,,,,,,,,,,,,,,,,,,,,,,,,,,,,,,,,,,,,,,,,,,,,
,,615a7592136605684a219fae,2024-02-22_05h17.55.860,kallum_motion_pilot,2023.2.2,Win32,59.88023952,615a7592136605684a219fae,65d6bb0e977760de756971f7,65d6bd2b979b6efb5b451cbe,0.1174,0.1177,1,27,189,0,1,onetwo,,,,,,,,,,,,,,,,,,,,,,,,,,,,,,,,,,,,,,,,,,,,,,,,,,,,,,,,,,,,,,,,,,,,,,,,,,,,,,,,,,,,,,,,,,,,,,,,,,,,,,,,,,,,,,,,,,,,,,,,,,,,,,,,,,,,,,,,,
,,615a7592136605684a219fae,2024-02-22_05h17.55.860,kallum_motion_pilot,2023.2.2,Win32,59.88023952,615a7592136605684a219fae,65d6bb0e977760de756971f7,65d6bd2b979b6efb5b451cbe,0.1178,0.118,1,28,190,8,1,onetwo,,,,,,,,,,,,,,,,,,,,,,,,,,,,,,,,,,,,,,,,,,,,,,,,,,,,,,,,,,,,,,,,,,,,,,,,,,,,,,,,,,,,,,,,,,,,,,,,,,,,,,,,,,,,,,,,,,,,,,,,,,,,,,,,,,,,,,,,,
,,615a7592136605684a219fae,2024-02-22_05h17.55.860,kallum_motion_pilot,2023.2.2,Win32,59.88023952,615a7592136605684a219fae,65d6bb0e977760de756971f7,65d6bd2b979b6efb5b451cbe,0.1183,0.1185,1,29,191,11,1,twofour,,,,,,,,,,,,,,,,,,,,,,,,,,,,,,,,,,,,,,,,,,,,,,,,,,,,,,,,,,,,,,,,,,,,,,,,,,,,,,,,,,,,,,,,,,,,,,,,,,,,,,,,,,,,,,,,,,,,,,,,,,,,,,,,,,,,,,,,,
,,615a7592136605684a219fae,2024-02-22_05h17.55.860,kallum_motion_pilot,2023.2.2,Win32,59.88023952,615a7592136605684a219fae,65d6bb0e977760de756971f7,65d6bd2b979b6efb5b451cbe,0.1186,0.1188,1,30,192,92,1,sevenfive,,,,,,,,,,,,,,,,,,,,,,,,,,,,,,,,,,,,,,,,,,,,,,,,,,,,,,,,,,,,,,,,,,,,,,,,,,,,,,,,,,,,,,,,,,,,,,,,,,,,,,,,,,,,,,,,,,,,,,,,,,,,,,,,,,,,,,,,,
,,615a7592136605684a219fae,2024-02-22_05h17.55.860,kallum_motion_pilot,2023.2.2,Win32,59.88023952,615a7592136605684a219fae,65d6bb0e977760de756971f7,65d6bd2b979b6efb5b451cbe,0.119,0.1192,1,31,193,60,1,threeone,,,,,,,,,,,,,,,,,,,,,,,,,,,,,,,,,,,,,,,,,,,,,,,,,,,,,,,,,,,,,,,,,,,,,,,,,,,,,,,,,,,,,,,,,,,,,,,,,,,,,,,,,,,,,,,,,,,,,,,,,,,,,,,,,,,,,,,,,
,,615a7592136605684a219fae,2024-02-22_05h17.55.860,kallum_motion_pilot,2023.2.2,Win32,59.88023952,615a7592136605684a219fae,65d6bb0e977760de756971f7,65d6bd2b979b6efb5b451cbe,0.1194,0.1196,1,32,194,118,1,eightsix,,,,,,,,,,,,,,,,,,,,,,,,,,,,,,,,,,,,,,,,,,,,,,,,,,,,,,,,,,,,,,,,,,,,,,,,,,,,,,,,,,,,,,,,,,,,,,,,,,,,,,,,,,,,,,,,,,,,,,,,,,,,,,,,,,,,,,,,,
,,615a7592136605684a219fae,2024-02-22_05h17.55.860,kallum_motion_pilot,2023.2.2,Win32,59.88023952,615a7592136605684a219fae,65d6bb0e977760de756971f7,65d6bd2b979b6efb5b451cbe,0.1199,0.12,1,33,195,104,1,fivesix,,,,,,,,,,,,,,,,,,,,,,,,,,,,,,,,,,,,,,,,,,,,,,,,,,,,,,,,,,,,,,,,,,,,,,,,,,,,,,,,,,,,,,,,,,,,,,,,,,,,,,,,,,,,,,,,,,,,,,,,,,,,,,,,,,,,,,,,,
,,615a7592136605684a219fae,2024-02-22_05h17.55.860,kallum_motion_pilot,2023.2.2,Win32,59.88023952,615a7592136605684a219fae,65d6bb0e977760de756971f7,65d6bd2b979b6efb5b451cbe,0.1203,0.1205,1,34,196,34,1,twoone,,,,,,,,,,,,,,,,,,,,,,,,,,,,,,,,,,,,,,,,,,,,,,,,,,,,,,,,,,,,,,,,,,,,,,,,,,,,,,,,,,,,,,,,,,,,,,,,,,,,,,,,,,,,,,,,,,,,,,,,,,,,,,,,,,,,,,,,,
,,615a7592136605684a219fae,2024-02-22_05h17.55.860,kallum_motion_pilot,2023.2.2,Win32,59.88023952,615a7592136605684a219fae,65d6bb0e977760de756971f7,65d6bd2b979b6efb5b451cbe,0.1207,0.121,1,35,197,71,1,fourthree,,,,,,,,,,,,,,,,,,,,,,,,,,,,,,,,,,,,,,,,,,,,,,,,,,,,,,,,,,,,,,,,,,,,,,,,,,,,,,,,,,,,,,,,,,,,,,,,,,,,,,,,,,,,,,,,,,,,,,,,,,,,,,,,,,,,,,,,,
,,615a7592136605684a219fae,2024-02-22_05h17.55.860,kallum_motion_pilot,2023.2.2,Win32,59.88023952,615a7592136605684a219fae,65d6bb0e977760de756971f7,65d6bd2b979b6efb5b451cbe,0.1211,0.1214,1,36,198,62,1,fourtwo,,,,,,,,,,,,,,,,,,,,,,,,,,,,,,,,,,,,,,,,,,,,,,,,,,,,,,,,,,,,,,,,,,,,,,,,,,,,,,,,,,,,,,,,,,,,,,,,,,,,,,,,,,,,,,,,,,,,,,,,,,,,,,,,,,,,,,,,,
,,615a7592136605684a219fae,2024-02-22_05h17.55.860,kallum_motion_pilot,2023.2.2,Win32,59.88023952,615a7592136605684a219fae,65d6bb0e977760de756971f7,65d6bd2b979b6efb5b451cbe,0.1216,0.1218,1,37,199,76,1,threeone,,,,,,,,,,,,,,,,,,,,,,,,,,,,,,,,,,,,,,,,,,,,,,,,,,,,,,,,,,,,,,,,,,,,,,,,,,,,,,,,,,,,,,,,,,,,,,,,,,,,,,,,,,,,,,,,,,,,,,,,,,,,,,,,,,,,,,,,,
,,615a7592136605684a219fae,2024-02-22_05h17.55.860,kallum_motion_pilot,2023.2.2,Win32,59.88023952,615a7592136605684a219fae,65d6bb0e977760de756971f7,65d6bd2b979b6efb5b451cbe,0.122,0.1221,1,38,200,43,1,twofour,,,,,,,,,,,,,,,,,,,,,,,,,,,,,,,,,,,,,,,,,,,,,,,,,,,,,,,,,,,,,,,,,,,,,,,,,,,,,,,,,,,,,,,,,,,,,,,,,,,,,,,,,,,,,,,,,,,,,,,,,,,,,,,,,,,,,,,,,
,,615a7592136605684a219fae,2024-02-22_05h17.55.860,kallum_motion_pilot,2023.2.2,Win32,59.88023952,615a7592136605684a219fae,65d6bb0e977760de756971f7,65d6bd2b979b6efb5b451cbe,0.1224,0.1225,1,39,201,72,1,onetwo,,,,,,,,,,,,,,,,,,,,,,,,,,,,,,,,,,,,,,,,,,,,,,,,,,,,,,,,,,,,,,,,,,,,,,,,,,,,,,,,,,,,,,,,,,,,,,,,,,,,,,,,,,,,,,,,,,,,,,,,,,,,,,,,,,,,,,,,,
,,615a7592136605684a219fae,2024-02-22_05h17.55.860,kallum_motion_pilot,2023.2.2,Win32,59.88023952,615a7592136605684a219fae,65d6bb0e977760de756971f7,65d6bd2b979b6efb5b451cbe,0.1228,0.123,1,40,202,103,1,eightseven,,,,,,,,,,,,,,,,,,,,,,,,,,,,,,,,,,,,,,,,,,,,,,,,,,,,,,,,,,,,,,,,,,,,,,,,,,,,,,,,,,,,,,,,,,,,,,,,,,,,,,,,,,,,,,,,,,,,,,,,,,,,,,,,,,,,,,,,,
,,615a7592136605684a219fae,2024-02-22_05h17.55.860,kallum_motion_pilot,2023.2.2,Win32,59.88023952,615a7592136605684a219fae,65d6bb0e977760de756971f7,65d6bd2b979b6efb5b451cbe,0.1232,0.1234,1,41,203,33,1,onethree,,,,,,,,,,,,,,,,,,,,,,,,,,,,,,,,,,,,,,,,,,,,,,,,,,,,,,,,,,,,,,,,,,,,,,,,,,,,,,,,,,,,,,,,,,,,,,,,,,,,,,,,,,,,,,,,,,,,,,,,,,,,,,,,,,,,,,,,,
,,615a7592136605684a219fae,2024-02-22_05h17.55.860,kallum_motion_pilot,2023.2.2,Win32,59.88023952,615a7592136605684a219fae,65d6bb0e977760de756971f7,65d6bd2b979b6efb5b451cbe,0.1237,0.1239,1,42,204,149,1,seveneight,,,,,,,,,,,,,,,,,,,,,,,,,,,,,,,,,,,,,,,,,,,,,,,,,,,,,,,,,,,,,,,,,,,,,,,,,,,,,,,,,,,,,,,,,,,,,,,,,,,,,,,,,,,,,,,,,,,,,,,,,,,,,,,,,,,,,,,,,
,,615a7592136605684a219fae,2024-02-22_05h17.55.860,kallum_motion_pilot,2023.2.2,Win32,59.88023952,615a7592136605684a219fae,65d6bb0e977760de756971f7,65d6bd2b979b6efb5b451cbe,0.124,0.1243,1,43,205,124,1,sevenfive,,,,,,,,,,,,,,,,,,,,,,,,,,,,,,,,,,,,,,,,,,,,,,,,,,,,,,,,,,,,,,,,,,,,,,,,,,,,,,,,,,,,,,,,,,,,,,,,,,,,,,,,,,,,,,,,,,,,,,,,,,,,,,,,,,,,,,,,,
,,615a7592136605684a219fae,2024-02-22_05h17.55.860,kallum_motion_pilot,2023.2.2,Win32,59.88023952,615a7592136605684a219fae,65d6bb0e977760de756971f7,65d6bd2b979b6efb5b451cbe,0.1244,0.1247,1,44,206,130,1,sixfive,,,,,,,,,,,,,,,,,,,,,,,,,,,,,,,,,,,,,,,,,,,,,,,,,,,,,,,,,,,,,,,,,,,,,,,,,,,,,,,,,,,,,,,,,,,,,,,,,,,,,,,,,,,,,,,,,,,,,,,,,,,,,,,,,,,,,,,,,
,,615a7592136605684a219fae,2024-02-22_05h17.55.860,kallum_motion_pilot,2023.2.2,Win32,59.88023952,615a7592136605684a219fae,65d6bb0e977760de756971f7,65d6bd2b979b6efb5b451cbe,0.1255,0.1257,1,45,207,21,1,threefour,,,,,,,,,,,,,,,,,,,,,,,,,,,,,,,,,,,,,,,,,,,,,,,,,,,,,,,,,,,,,,,,,,,,,,,,,,,,,,,,,,,,,,,,,,,,,,,,,,,,,,,,,,,,,,,,,,,,,,,,,,,,,,,,,,,,,,,,,
,,615a7592136605684a219fae,2024-02-22_05h17.55.860,kallum_motion_pilot,2023.2.2,Win32,59.88023952,615a7592136605684a219fae,65d6bb0e977760de756971f7,65d6bd2b979b6efb5b451cbe,0.1259,0.1261,1,46,208,87,1,eightseven,,,,,,,,,,,,,,,,,,,,,,,,,,,,,,,,,,,,,,,,,,,,,,,,,,,,,,,,,,,,,,,,,,,,,,,,,,,,,,,,,,,,,,,,,,,,,,,,,,,,,,,,,,,,,,,,,,,,,,,,,,,,,,,,,,,,,,,,,
,,615a7592136605684a219fae,2024-02-22_05h17.55.860,kallum_motion_pilot,2023.2.2,Win32,59.88023952,615a7592136605684a219fae,65d6bb0e977760de756971f7,65d6bd2b979b6efb5b451cbe,0.1264,0.1266,1,47,209,5,1,threefour,,,,,,,,,,,,,,,,,,,,,,,,,,,,,,,,,,,,,,,,,,,,,,,,,,,,,,,,,,,,,,,,,,,,,,,,,,,,,,,,,,,,,,,,,,,,,,,,,,,,,,,,,,,,,,,,,,,,,,,,,,,,,,,,,,,,,,,,,
,,615a7592136605684a219fae,2024-02-22_05h17.55.860,kallum_motion_pilot,2023.2.2,Win32,59.88023952,615a7592136605684a219fae,65d6bb0e977760de756971f7,65d6bd2b979b6efb5b451cbe,0.1268,0.127,1,48,210,48,1,onetwo,,,,,,,,,,,,,,,,,,,,,,,,,,,,,,,,,,,,,,,,,,,,,,,,,,,,,,,,,,,,,,,,,,,,,,,,,,,,,,,,,,,,,,,,,,,,,,,,,,,,,,,,,,,,,,,,,,,,,,,,,,,,,,,,,,,,,,,,,
,,615a7592136605684a219fae,2024-02-22_05h17.55.860,kallum_motion_pilot,2023.2.2,Win32,59.88023952,615a7592136605684a219fae,65d6bb0e977760de756971f7,65d6bd2b979b6efb5b451cbe,0.1272,0.1275,1,49,211,26,1,twoone,,,,,,,,,,,,,,,,,,,,,,,,,,,,,,,,,,,,,,,,,,,,,,,,,,,,,,,,,,,,,,,,,,,,,,,,,,,,,,,,,,,,,,,,,,,,,,,,,,,,,,,,,,,,,,,,,,,,,,,,,,,,,,,,,,,,,,,,,
,,615a7592136605684a219fae,2024-02-22_05h17.55.860,kallum_motion_pilot,2023.2.2,Win32,59.88023952,615a7592136605684a219fae,65d6bb0e977760de756971f7,65d6bd2b979b6efb5b451cbe,0.1276,0.1278,1,50,212,29,1,threefour,,,,,,,,,,,,,,,,,,,,,,,,,,,,,,,,,,,,,,,,,,,,,,,,,,,,,,,,,,,,,,,,,,,,,,,,,,,,,,,,,,,,,,,,,,,,,,,,,,,,,,,,,,,,,,,,,,,,,,,,,,,,,,,,,,,,,,,,,
,,615a7592136605684a219fae,2024-02-22_05h17.55.860,kallum_motion_pilot,2023.2.2,Win32,59.88023952,615a7592136605684a219fae,65d6bb0e977760de756971f7,65d6bd2b979b6efb5b451cbe,0.1281,0.1282,1,51,213,141,1,seveneight,,,,,,,,,,,,,,,,,,,,,,,,,,,,,,,,,,,,,,,,,,,,,,,,,,,,,,,,,,,,,,,,,,,,,,,,,,,,,,,,,,,,,,,,,,,,,,,,,,,,,,,,,,,,,,,,,,,,,,,,,,,,,,,,,,,,,,,,,
,,615a7592136605684a219fae,2024-02-22_05h17.55.860,kallum_motion_pilot,2023.2.2,Win32,59.88023952,615a7592136605684a219fae,65d6bb0e977760de756971f7,65d6bd2b979b6efb5b451cbe,0.1284,0.1286,1,52,214,99,1,sixeight,,,,,,,,,,,,,,,,,,,,,,,,,,,,,,,,,,,,,,,,,,,,,,,,,,,,,,,,,,,,,,,,,,,,,,,,,,,,,,,,,,,,,,,,,,,,,,,,,,,,,,,,,,,,,,,,,,,,,,,,,,,,,,,,,,,,,,,,,
,,615a7592136605684a219fae,2024-02-22_05h17.55.860,kallum_motion_pilot,2023.2.2,Win32,59.88023952,615a7592136605684a219fae,65d6bb0e977760de756971f7,65d6bd2b979b6efb5b451cbe,0.1288,0.129,1,53,215,135,1,eightseven,,,,,,,,,,,,,,,,,,,,,,,,,,,,,,,,,,,,,,,,,,,,,,,,,,,,,,,,,,,,,,,,,,,,,,,,,,,,,,,,,,,,,,,,,,,,,,,,,,,,,,,,,,,,,,,,,,,,,,,,,,,,,,,,,,,,,,,,,
,,615a7592136605684a219fae,2024-02-22_05h17.55.860,kallum_motion_pilot,2023.2.2,Win32,59.88023952,615a7592136605684a219fae,65d6bb0e977760de756971f7,65d6bd2b979b6efb5b451cbe,0.1292,0.1294,1,54,216,12,1,threeone,,,,,,,,,,,,,,,,,,,,,,,,,,,,,,,,,,,,,,,,,,,,,,,,,,,,,,,,,,,,,,,,,,,,,,,,,,,,,,,,,,,,,,,,,,,,,,,,,,,,,,,,,,,,,,,,,,,,,,,,,,,,,,,,,,,,,,,,,
,,615a7592136605684a219fae,2024-02-22_05h17.55.860,kallum_motion_pilot,2023.2.2,Win32,59.88023952,615a7592136605684a219fae,65d6bb0e977760de756971f7,65d6bd2b979b6efb5b451cbe,0.1298,0.13,1,55,217,16,1,onetwo,,,,,,,,,,,,,,,,,,,,,,,,,,,,,,,,,,,,,,,,,,,,,,,,,,,,,,,,,,,,,,,,,,,,,,,,,,,,,,,,,,,,,,,,,,,,,,,,,,,,,,,,,,,,,,,,,,,,,,,,,,,,,,,,,,,,,,,,,
,,615a7592136605684a219fae,2024-02-22_05h17.55.860,kallum_motion_pilot,2023.2.2,Win32,59.88023952,615a7592136605684a219fae,65d6bb0e977760de756971f7,65d6bd2b979b6efb5b451cbe,0.1303,0.1305,1,56,218,54,1,fourtwo,,,,,,,,,,,,,,,,,,,,,,,,,,,,,,,,,,,,,,,,,,,,,,,,,,,,,,,,,,,,,,,,,,,,,,,,,,,,,,,,,,,,,,,,,,,,,,,,,,,,,,,,,,,,,,,,,,,,,,,,,,,,,,,,,,,,,,,,,
,,615a7592136605684a219fae,2024-02-22_05h17.55.860,kallum_motion_pilot,2023.2.2,Win32,59.88023952,615a7592136605684a219fae,65d6bb0e977760de756971f7,65d6bd2b979b6efb5b451cbe,0.1307,0.1312,1,57,219,61,1,threefour,,,,,,,,,,,,,,,,,,,,,,,,,,,,,,,,,,,,,,,,,,,,,,,,,,,,,,,,,,,,,,,,,,,,,,,,,,,,,,,,,,,,,,,,,,,,,,,,,,,,,,,,,,,,,,,,,,,,,,,,,,,,,,,,,,,,,,,,,
,,615a7592136605684a219fae,2024-02-22_05h17.55.860,kallum_motion_pilot,2023.2.2,Win32,59.88023952,615a7592136605684a219fae,65d6bb0e977760de756971f7,65d6bd2b979b6efb5b451cbe,0.1315,0.1317,1,58,220,128,1,fivesix,,,,,,,,,,,,,,,,,,,,,,,,,,,,,,,,,,,,,,,,,,,,,,,,,,,,,,,,,,,,,,,,,,,,,,,,,,,,,,,,,,,,,,,,,,,,,,,,,,,,,,,,,,,,,,,,,,,,,,,,,,,,,,,,,,,,,,,,,
,,615a7592136605684a219fae,2024-02-22_05h17.55.860,kallum_motion_pilot,2023.2.2,Win32,59.88023952,615a7592136605684a219fae,65d6bb0e977760de756971f7,65d6bd2b979b6efb5b451cbe,0.1321,0.1322,1,59,221,154,1,sixfive,,,,,,,,,,,,,,,,,,,,,,,,,,,,,,,,,,,,,,,,,,,,,,,,,,,,,,,,,,,,,,,,,,,,,,,,,,,,,,,,,,,,,,,,,,,,,,,,,,,,,,,,,,,,,,,,,,,,,,,,,,,,,,,,,,,,,,,,,
,,615a7592136605684a219fae,2024-02-22_05h17.55.860,kallum_motion_pilot,2023.2.2,Win32,59.88023952,615a7592136605684a219fae,65d6bb0e977760de756971f7,65d6bd2b979b6efb5b451cbe,0.1326,0.133,1,60,222,25,1,onethree,,,,,,,,,,,,,,,,,,,,,,,,,,,,,,,,,,,,,,,,,,,,,,,,,,,,,,,,,,,,,,,,,,,,,,,,,,,,,,,,,,,,,,,,,,,,,,,,,,,,,,,,,,,,,,,,,,,,,,,,,,,,,,,,,,,,,,,,,
,,615a7592136605684a219fae,2024-02-22_05h17.55.860,kallum_motion_pilot,2023.2.2,Win32,59.88023952,615a7592136605684a219fae,65d6bb0e977760de756971f7,65d6bd2b979b6efb5b451cbe,0.1333,0.1336,1,61,223,75,1,twofour,,,,,,,,,,,,,,,,,,,,,,,,,,,,,,,,,,,,,,,,,,,,,,,,,,,,,,,,,,,,,,,,,,,,,,,,,,,,,,,,,,,,,,,,,,,,,,,,,,,,,,,,,,,,,,,,,,,,,,,,,,,,,,,,,,,,,,,,,
,,615a7592136605684a219fae,2024-02-22_05h17.55.860,kallum_motion_pilot,2023.2.2,Win32,59.88023952,615a7592136605684a219fae,65d6bb0e977760de756971f7,65d6bd2b979b6efb5b451cbe,0.1339,0.1341,1,62,224,30,1,fourtwo,,,,,,,,,,,,,,,,,,,,,,,,,,,,,,,,,,,,,,,,,,,,,,,,,,,,,,,,,,,,,,,,,,,,,,,,,,,,,,,,,,,,,,,,,,,,,,,,,,,,,,,,,,,,,,,,,,,,,,,,,,,,,,,,,,,,,,,,,
,,615a7592136605684a219fae,2024-02-22_05h17.55.860,kallum_motion_pilot,2023.2.2,Win32,59.88023952,615a7592136605684a219fae,65d6bb0e977760de756971f7,65d6bd2b979b6efb5b451cbe,0.1343,0.1345,1,63,225,100,1,sevenfive,,,,,,,,,,,,,,,,,,,,,,,,,,,,,,,,,,,,,,,,,,,,,,,,,,,,,,,,,,,,,,,,,,,,,,,,,,,,,,,,,,,,,,,,,,,,,,,,,,,,,,,,,,,,,,,,,,,,,,,,,,,,,,,,,,,,,,,,,
,,615a7592136605684a219fae,2024-02-22_05h17.55.860,kallum_motion_pilot,2023.2.2,Win32,59.88023952,615a7592136605684a219fae,65d6bb0e977760de756971f7,65d6bd2b979b6efb5b451cbe,0.1347,0.1349,1,64,226,88,1,fivesix,,,,,,,,,,,,,,,,,,,,,,,,,,,,,,,,,,,,,,,,,,,,,,,,,,,,,,,,,,,,,,,,,,,,,,,,,,,,,,,,,,,,,,,,,,,,,,,,,,,,,,,,,,,,,,,,,,,,,,,,,,,,,,,,,,,,,,,,,
,,615a7592136605684a219fae,2024-02-22_05h17.55.860,kallum_motion_pilot,2023.2.2,Win32,59.88023952,615a7592136605684a219fae,65d6bb0e977760de756971f7,65d6bd2b979b6efb5b451cbe,0.1351,0.1353,1,65,227,32,1,onetwo,,,,,,,,,,,,,,,,,,,,,,,,,,,,,,,,,,,,,,,,,,,,,,,,,,,,,,,,,,,,,,,,,,,,,,,,,,,,,,,,,,,,,,,,,,,,,,,,,,,,,,,,,,,,,,,,,,,,,,,,,,,,,,,,,,,,,,,,,
,,615a7592136605684a219fae,2024-02-22_05h17.55.860,kallum_motion_pilot,2023.2.2,Win32,59.88023952,615a7592136605684a219fae,65d6bb0e977760de756971f7,65d6bd2b979b6efb5b451cbe,0.1355,0.1358,1,66,228,81,1,fiveseven,,,,,,,,,,,,,,,,,,,,,,,,,,,,,,,,,,,,,,,,,,,,,,,,,,,,,,,,,,,,,,,,,,,,,,,,,,,,,,,,,,,,,,,,,,,,,,,,,,,,,,,,,,,,,,,,,,,,,,,,,,,,,,,,,,,,,,,,,
,,615a7592136605684a219fae,2024-02-22_05h17.55.860,kallum_motion_pilot,2023.2.2,Win32,59.88023952,615a7592136605684a219fae,65d6bb0e977760de756971f7,65d6bd2b979b6efb5b451cbe,0.136,0.1363,1,67,229,28,1,threeone,,,,,,,,,,,,,,,,,,,,,,,,,,,,,,,,,,,,,,,,,,,,,,,,,,,,,,,,,,,,,,,,,,,,,,,,,,,,,,,,,,,,,,,,,,,,,,,,,,,,,,,,,,,,,,,,,,,,,,,,,,,,,,,,,,,,,,,,,
,,615a7592136605684a219fae,2024-02-22_05h17.55.860,kallum_motion_pilot,2023.2.2,Win32,59.88023952,615a7592136605684a219fae,65d6bb0e977760de756971f7,65d6bd2b979b6efb5b451cbe,0.1365,0.1367,1,68,230,158,1,eightsix,,,,,,,,,,,,,,,,,,,,,,,,,,,,,,,,,,,,,,,,,,,,,,,,,,,,,,,,,,,,,,,,,,,,,,,,,,,,,,,,,,,,,,,,,,,,,,,,,,,,,,,,,,,,,,,,,,,,,,,,,,,,,,,,,,,,,,,,,
,,615a7592136605684a219fae,2024-02-22_05h17.55.860,kallum_motion_pilot,2023.2.2,Win32,59.88023952,615a7592136605684a219fae,65d6bb0e977760de756971f7,65d6bd2b979b6efb5b451cbe,0.1369,0.1371,1,69,231,78,1,fourtwo,,,,,,,,,,,,,,,,,,,,,,,,,,,,,,,,,,,,,,,,,,,,,,,,,,,,,,,,,,,,,,,,,,,,,,,,,,,,,,,,,,,,,,,,,,,,,,,,,,,,,,,,,,,,,,,,,,,,,,,,,,,,,,,,,,,,,,,,,
,,615a7592136605684a219fae,2024-02-22_05h17.55.860,kallum_motion_pilot,2023.2.2,Win32,59.88023952,615a7592136605684a219fae,65d6bb0e977760de756971f7,65d6bd2b979b6efb5b451cbe,0.1373,0.1376,1,70,232,147,1,sixeight,,,,,,,,,,,,,,,,,,,,,,,,,,,,,,,,,,,,,,,,,,,,,,,,,,,,,,,,,,,,,,,,,,,,,,,,,,,,,,,,,,,,,,,,,,,,,,,,,,,,,,,,,,,,,,,,,,,,,,,,,,,,,,,,,,,,,,,,,
,,615a7592136605684a219fae,2024-02-22_05h17.55.860,kallum_motion_pilot,2023.2.2,Win32,59.88023952,615a7592136605684a219fae,65d6bb0e977760de756971f7,65d6bd2b979b6efb5b451cbe,0.1378,0.138,1,71,233,132,1,sevenfive,,,,,,,,,,,,,,,,,,,,,,,,,,,,,,,,,,,,,,,,,,,,,,,,,,,,,,,,,,,,,,,,,,,,,,,,,,,,,,,,,,,,,,,,,,,,,,,,,,,,,,,,,,,,,,,,,,,,,,,,,,,,,,,,,,,,,,,,,
,,615a7592136605684a219fae,2024-02-22_05h17.55.860,kallum_motion_pilot,2023.2.2,Win32,59.88023952,615a7592136605684a219fae,65d6bb0e977760de756971f7,65d6bd2b979b6efb5b451cbe,0.1382,0.1384,1,72,234,40,1,onetwo,,,,,,,,,,,,,,,,,,,,,,,,,,,,,,,,,,,,,,,,,,,,,,,,,,,,,,,,,,,,,,,,,,,,,,,,,,,,,,,,,,,,,,,,,,,,,,,,,,,,,,,,,,,,,,,,,,,,,,,,,,,,,,,,,,,,,,,,,
,,615a7592136605684a219fae,2024-02-22_05h17.55.860,kallum_motion_pilot,2023.2.2,Win32,59.88023952,615a7592136605684a219fae,65d6bb0e977760de756971f7,65d6bd2b979b6efb5b451cbe,0.1386,0.1388,1,73,235,117,1,seveneight,,,,,,,,,,,,,,,,,,,,,,,,,,,,,,,,,,,,,,,,,,,,,,,,,,,,,,,,,,,,,,,,,,,,,,,,,,,,,,,,,,,,,,,,,,,,,,,,,,,,,,,,,,,,,,,,,,,,,,,,,,,,,,,,,,,,,,,,,
,,615a7592136605684a219fae,2024-02-22_05h17.55.860,kallum_motion_pilot,2023.2.2,Win32,59.88023952,615a7592136605684a219fae,65d6bb0e977760de756971f7,65d6bd2b979b6efb5b451cbe,0.1391,0.1393,1,74,236,120,1,fivesix,,,,,,,,,,,,,,,,,,,,,,,,,,,,,,,,,,,,,,,,,,,,,,,,,,,,,,,,,,,,,,,,,,,,,,,,,,,,,,,,,,,,,,,,,,,,,,,,,,,,,,,,,,,,,,,,,,,,,,,,,,,,,,,,,,,,,,,,,
,,615a7592136605684a219fae,2024-02-22_05h17.55.860,kallum_motion_pilot,2023.2.2,Win32,59.88023952,615a7592136605684a219fae,65d6bb0e977760de756971f7,65d6bd2b979b6efb5b451cbe,0.1396,0.1398,1,75,237,64,1,onetwo,,,,,,,,,,,,,,,,,,,,,,,,,,,,,,,,,,,,,,,,,,,,,,,,,,,,,,,,,,,,,,,,,,,,,,,,,,,,,,,,,,,,,,,,,,,,,,,,,,,,,,,,,,,,,,,,,,,,,,,,,,,,,,,,,,,,,,,,,
,,615a7592136605684a219fae,2024-02-22_05h17.55.860,kallum_motion_pilot,2023.2.2,Win32,59.88023952,615a7592136605684a219fae,65d6bb0e977760de756971f7,65d6bd2b979b6efb5b451cbe,0.1401,0.1403,1,76,238,3,1,twofour,,,,,,,,,,,,,,,,,,,,,,,,,,,,,,,,,,,,,,,,,,,,,,,,,,,,,,,,,,,,,,,,,,,,,,,,,,,,,,,,,,,,,,,,,,,,,,,,,,,,,,,,,,,,,,,,,,,,,,,,,,,,,,,,,,,,,,,,,
,,615a7592136605684a219fae,2024-02-22_05h17.55.860,kallum_motion_pilot,2023.2.2,Win32,59.88023952,615a7592136605684a219fae,65d6bb0e977760de756971f7,65d6bd2b979b6efb5b451cbe,0.1406,0.1408,1,77,239,155,1,sixeight,,,,,,,,,,,,,,,,,,,,,,,,,,,,,,,,,,,,,,,,,,,,,,,,,,,,,,,,,,,,,,,,,,,,,,,,,,,,,,,,,,,,,,,,,,,,,,,,,,,,,,,,,,,,,,,,,,,,,,,,,,,,,,,,,,,,,,,,,
,,615a7592136605684a219fae,2024-02-22_05h17.55.860,kallum_motion_pilot,2023.2.2,Win32,59.88023952,615a7592136605684a219fae,65d6bb0e977760de756971f7,65d6bd2b979b6efb5b451cbe,0.1411,0.1412,1,78,240,68,1,threeone,,,,,,,,,,,,,,,,,,,,,,,,,,,,,,,,,,,,,,,,,,,,,,,,,,,,,,,,,,,,,,,,,,,,,,,,,,,,,,,,,,,,,,,,,,,,,,,,,,,,,,,,,,,,,,,,,,,,,,,,,,,,,,,,,,,,,,,,,
,,615a7592136605684a219fae,2024-02-22_05h17.55.860,kallum_motion_pilot,2023.2.2,Win32,59.88023952,615a7592136605684a219fae,65d6bb0e977760de756971f7,65d6bd2b979b6efb5b451cbe,0.1415,0.1417,1,79,241,47,1,fourthree,,,,,,,,,,,,,,,,,,,,,,,,,,,,,,,,,,,,,,,,,,,,,,,,,,,,,,,,,,,,,,,,,,,,,,,,,,,,,,,,,,,,,,,,,,,,,,,,,,,,,,,,,,,,,,,,,,,,,,,,,,,,,,,,,,,,,,,,,
,,615a7592136605684a219fae,2024-02-22_05h17.55.860,kallum_motion_pilot,2023.2.2,Win32,59.88023952,615a7592136605684a219fae,65d6bb0e977760de756971f7,65d6bd2b979b6efb5b451cbe,0.1419,0.1422,1,80,242,94,1,eightsix,,,,,,,,,,,,,,,,,,,,,,,,,,,,,,,,,,,,,,,,,,,,,,,,,,,,,,,,,,,,,,,,,,,,,,,,,,,,,,,,,,,,,,,,,,,,,,,,,,,,,,,,,,,,,,,,,,,,,,,,,,,,,,,,,,,,,,,,,
,,615a7592136605684a219fae,2024-02-22_05h17.55.860,kallum_motion_pilot,2023.2.2,Win32,59.88023952,615a7592136605684a219fae,65d6bb0e977760de756971f7,65d6bd2b979b6efb5b451cbe,0.1425,0.1427,1,81,243,39,1,fourthree,,,,,,,,,,,,,,,,,,,,,,,,,,,,,,,,,,,,,,,,,,,,,,,,,,,,,,,,,,,,,,,,,,,,,,,,,,,,,,,,,,,,,,,,,,,,,,,,,,,,,,,,,,,,,,,,,,,,,,,,,,,,,,,,,,,,,,,,,
,,615a7592136605684a219fae,2024-02-22_05h17.55.860,kallum_motion_pilot,2023.2.2,Win32,59.88023952,615a7592136605684a219fae,65d6bb0e977760de756971f7,65d6bd2b979b6efb5b451cbe,0.1429,0.1431,1,82,244,42,1,twoone,,,,,,,,,,,,,,,,,,,,,,,,,,,,,,,,,,,,,,,,,,,,,,,,,,,,,,,,,,,,,,,,,,,,,,,,,,,,,,,,,,,,,,,,,,,,,,,,,,,,,,,,,,,,,,,,,,,,,,,,,,,,,,,,,,,,,,,,,
,,615a7592136605684a219fae,2024-02-22_05h17.55.860,kallum_motion_pilot,2023.2.2,Win32,59.88023952,615a7592136605684a219fae,65d6bb0e977760de756971f7,65d6bd2b979b6efb5b451cbe,0.1433,0.1435,1,83,245,85,1,seveneight,,,,,,,,,,,,,,,,,,,,,,,,,,,,,,,,,,,,,,,,,,,,,,,,,,,,,,,,,,,,,,,,,,,,,,,,,,,,,,,,,,,,,,,,,,,,,,,,,,,,,,,,,,,,,,,,,,,,,,,,,,,,,,,,,,,,,,,,,
,,615a7592136605684a219fae,2024-02-22_05h17.55.860,kallum_motion_pilot,2023.2.2,Win32,59.88023952,615a7592136605684a219fae,65d6bb0e977760de756971f7,65d6bd2b979b6efb5b451cbe,0.1438,0.144,1,84,246,157,1,seveneight,,,,,,,,,,,,,,,,,,,,,,,,,,,,,,,,,,,,,,,,,,,,,,,,,,,,,,,,,,,,,,,,,,,,,,,,,,,,,,,,,,,,,,,,,,,,,,,,,,,,,,,,,,,,,,,,,,,,,,,,,,,,,,,,,,,,,,,,,
,,615a7592136605684a219fae,2024-02-22_05h17.55.860,kallum_motion_pilot,2023.2.2,Win32,59.88023952,615a7592136605684a219fae,65d6bb0e977760de756971f7,65d6bd2b979b6efb5b451cbe,0.1442,0.1444,1,85,247,56,1,onetwo,,,,,,,,,,,,,,,,,,,,,,,,,,,,,,,,,,,,,,,,,,,,,,,,,,,,,,,,,,,,,,,,,,,,,,,,,,,,,,,,,,,,,,,,,,,,,,,,,,,,,,,,,,,,,,,,,,,,,,,,,,,,,,,,,,,,,,,,,
,,615a7592136605684a219fae,2024-02-22_05h17.55.860,kallum_motion_pilot,2023.2.2,Win32,59.88023952,615a7592136605684a219fae,65d6bb0e977760de756971f7,65d6bd2b979b6efb5b451cbe,0.1446,0.1448,1,86,248,46,1,fourtwo,,,,,,,,,,,,,,,,,,,,,,,,,,,,,,,,,,,,,,,,,,,,,,,,,,,,,,,,,,,,,,,,,,,,,,,,,,,,,,,,,,,,,,,,,,,,,,,,,,,,,,,,,,,,,,,,,,,,,,,,,,,,,,,,,,,,,,,,,
,,615a7592136605684a219fae,2024-02-22_05h17.55.860,kallum_motion_pilot,2023.2.2,Win32,59.88023952,615a7592136605684a219fae,65d6bb0e977760de756971f7,65d6bd2b979b6efb5b451cbe,0.1452,0.1453,1,87,249,66,1,twoone,,,,,,,,,,,,,,,,,,,,,,,,,,,,,,,,,,,,,,,,,,,,,,,,,,,,,,,,,,,,,,,,,,,,,,,,,,,,,,,,,,,,,,,,,,,,,,,,,,,,,,,,,,,,,,,,,,,,,,,,,,,,,,,,,,,,,,,,,
,,615a7592136605684a219fae,2024-02-22_05h17.55.860,kallum_motion_pilot,2023.2.2,Win32,59.88023952,615a7592136605684a219fae,65d6bb0e977760de756971f7,65d6bd2b979b6efb5b451cbe,0.1455,0.1458,1,88,250,59,1,twofour,,,,,,,,,,,,,,,,,,,,,,,,,,,,,,,,,,,,,,,,,,,,,,,,,,,,,,,,,,,,,,,,,,,,,,,,,,,,,,,,,,,,,,,,,,,,,,,,,,,,,,,,,,,,,,,,,,,,,,,,,,,,,,,,,,,,,,,,,
,,615a7592136605684a219fae,2024-02-22_05h17.55.860,kallum_motion_pilot,2023.2.2,Win32,59.88023952,615a7592136605684a219fae,65d6bb0e977760de756971f7,65d6bd2b979b6efb5b451cbe,0.1461,0.1462,1,89,251,14,1,fourtwo,,,,,,,,,,,,,,,,,,,,,,,,,,,,,,,,,,,,,,,,,,,,,,,,,,,,,,,,,,,,,,,,,,,,,,,,,,,,,,,,,,,,,,,,,,,,,,,,,,,,,,,,,,,,,,,,,,,,,,,,,,,,,,,,,,,,,,,,,
,,615a7592136605684a219fae,2024-02-22_05h17.55.860,kallum_motion_pilot,2023.2.2,Win32,59.88023952,615a7592136605684a219fae,65d6bb0e977760de756971f7,65d6bd2b979b6efb5b451cbe,0.1465,0.1467,1,90,252,137,1,fiveseven,,,,,,,,,,,,,,,,,,,,,,,,,,,,,,,,,,,,,,,,,,,,,,,,,,,,,,,,,,,,,,,,,,,,,,,,,,,,,,,,,,,,,,,,,,,,,,,,,,,,,,,,,,,,,,,,,,,,,,,,,,,,,,,,,,,,,,,,,
,,615a7592136605684a219fae,2024-02-22_05h17.55.860,kallum_motion_pilot,2023.2.2,Win32,59.88023952,615a7592136605684a219fae,65d6bb0e977760de756971f7,65d6bd2b979b6efb5b451cbe,0.147,0.1472,1,91,253,6,1,fourtwo,,,,,,,,,,,,,,,,,,,,,,,,,,,,,,,,,,,,,,,,,,,,,,,,,,,,,,,,,,,,,,,,,,,,,,,,,,,,,,,,,,,,,,,,,,,,,,,,,,,,,,,,,,,,,,,,,,,,,,,,,,,,,,,,,,,,,,,,,
,,615a7592136605684a219fae,2024-02-22_05h17.55.860,kallum_motion_pilot,2023.2.2,Win32,59.88023952,615a7592136605684a219fae,65d6bb0e977760de756971f7,65d6bd2b979b6efb5b451cbe,0.1477,0.148,1,92,254,119,1,eightseven,,,,,,,,,,,,,,,,,,,,,,,,,,,,,,,,,,,,,,,,,,,,,,,,,,,,,,,,,,,,,,,,,,,,,,,,,,,,,,,,,,,,,,,,,,,,,,,,,,,,,,,,,,,,,,,,,,,,,,,,,,,,,,,,,,,,,,,,,
,,615a7592136605684a219fae,2024-02-22_05h17.55.860,kallum_motion_pilot,2023.2.2,Win32,59.88023952,615a7592136605684a219fae,65d6bb0e977760de756971f7,65d6bd2b979b6efb5b451cbe,0.1485,0.1487,1,93,255,70,1,fourtwo,,,,,,,,,,,,,,,,,,,,,,,,,,,,,,,,,,,,,,,,,,,,,,,,,,,,,,,,,,,,,,,,,,,,,,,,,,,,,,,,,,,,,,,,,,,,,,,,,,,,,,,,,,,,,,,,,,,,,,,,,,,,,,,,,,,,,,,,,
,,615a7592136605684a219fae,2024-02-22_05h17.55.860,kallum_motion_pilot,2023.2.2,Win32,59.88023952,615a7592136605684a219fae,65d6bb0e977760de756971f7,65d6bd2b979b6efb5b451cbe,0.1492,0.1494,1,94,256,153,1,fiveseven,,,,,,,,,,,,,,,,,,,,,,,,,,,,,,,,,,,,,,,,,,,,,,,,,,,,,,,,,,,,,,,,,,,,,,,,,,,,,,,,,,,,,,,,,,,,,,,,,,,,,,,,,,,,,,,,,,,,,,,,,,,,,,,,,,,,,,,,,
,,615a7592136605684a219fae,2024-02-22_05h17.55.860,kallum_motion_pilot,2023.2.2,Win32,59.88023952,615a7592136605684a219fae,65d6bb0e977760de756971f7,65d6bd2b979b6efb5b451cbe,0.1498,0.15,1,95,257,45,1,threefour,,,,,,,,,,,,,,,,,,,,,,,,,,,,,,,,,,,,,,,,,,,,,,,,,,,,,,,,,,,,,,,,,,,,,,,,,,,,,,,,,,,,,,,,,,,,,,,,,,,,,,,,,,,,,,,,,,,,,,,,,,,,,,,,,,,,,,,,,
,,615a7592136605684a219fae,2024-02-22_05h17.55.860,kallum_motion_pilot,2023.2.2,Win32,59.88023952,615a7592136605684a219fae,65d6bb0e977760de756971f7,65d6bd2b979b6efb5b451cbe,0.1502,0.1504,1,96,258,49,1,onethree,,,,,,,,,,,,,,,,,,,,,,,,,,,,,,,,,,,,,,,,,,,,,,,,,,,,,,,,,,,,,,,,,,,,,,,,,,,,,,,,,,,,,,,,,,,,,,,,,,,,,,,,,,,,,,,,,,,,,,,,,,,,,,,,,,,,,,,,,
,,615a7592136605684a219fae,2024-02-22_05h17.55.860,kallum_motion_pilot,2023.2.2,Win32,59.88023952,615a7592136605684a219fae,65d6bb0e977760de756971f7,65d6bd2b979b6efb5b451cbe,0.1507,0.151,1,97,259,79,1,eightseven,,,,,,,,,,,,,,,,,,,,,,,,,,,,,,,,,,,,,,,,,,,,,,,,,,,,,,,,,,,,,,,,,,,,,,,,,,,,,,,,,,,,,,,,,,,,,,,,,,,,,,,,,,,,,,,,,,,,,,,,,,,,,,,,,,,,,,,,,
,,615a7592136605684a219fae,2024-02-22_05h17.55.860,kallum_motion_pilot,2023.2.2,Win32,59.88023952,615a7592136605684a219fae,65d6bb0e977760de756971f7,65d6bd2b979b6efb5b451cbe,0.1511,0.1514,1,98,260,111,1,eightseven,,,,,,,,,,,,,,,,,,,,,,,,,,,,,,,,,,,,,,,,,,,,,,,,,,,,,,,,,,,,,,,,,,,,,,,,,,,,,,,,,,,,,,,,,,,,,,,,,,,,,,,,,,,,,,,,,,,,,,,,,,,,,,,,,,,,,,,,,
,,615a7592136605684a219fae,2024-02-22_05h17.55.860,kallum_motion_pilot,2023.2.2,Win32,59.88023952,615a7592136605684a219fae,65d6bb0e977760de756971f7,65d6bd2b979b6efb5b451cbe,0.1516,0.1518,1,99,261,108,1,sevenfive,,,,,,,,,,,,,,,,,,,,,,,,,,,,,,,,,,,,,,,,,,,,,,,,,,,,,,,,,,,,,,,,,,,,,,,,,,,,,,,,,,,,,,,,,,,,,,,,,,,,,,,,,,,,,,,,,,,,,,,,,,,,,,,,,,,,,,,,,
,,615a7592136605684a219fae,2024-02-22_05h17.55.860,kallum_motion_pilot,2023.2.2,Win32,59.88023952,615a7592136605684a219fae,65d6bb0e977760de756971f7,65d6bd2b979b6efb5b451cbe,0.1521,0.1523,1,100,262,52,1,threeone,,,,,,,,,,,,,,,,,,,,,,,,,,,,,,,,,,,,,,,,,,,,,,,,,,,,,,,,,,,,,,,,,,,,,,,,,,,,,,,,,,,,,,,,,,,,,,,,,,,,,,,,,,,,,,,,,,,,,,,,,,,,,,,,,,,,,,,,,
,,615a7592136605684a219fae,2024-02-22_05h17.55.860,kallum_motion_pilot,2023.2.2,Win32,59.88023952,615a7592136605684a219fae,65d6bb0e977760de756971f7,65d6bd2b979b6efb5b451cbe,0.1525,0.1528,1,101,263,145,1,fiveseven,,,,,,,,,,,,,,,,,,,,,,,,,,,,,,,,,,,,,,,,,,,,,,,,,,,,,,,,,,,,,,,,,,,,,,,,,,,,,,,,,,,,,,,,,,,,,,,,,,,,,,,,,,,,,,,,,,,,,,,,,,,,,,,,,,,,,,,,,
,,615a7592136605684a219fae,2024-02-22_05h17.55.860,kallum_motion_pilot,2023.2.2,Win32,59.88023952,615a7592136605684a219fae,65d6bb0e977760de756971f7,65d6bd2b979b6efb5b451cbe,0.1532,0.1534,1,102,264,144,1,fivesix,,,,,,,,,,,,,,,,,,,,,,,,,,,,,,,,,,,,,,,,,,,,,,,,,,,,,,,,,,,,,,,,,,,,,,,,,,,,,,,,,,,,,,,,,,,,,,,,,,,,,,,,,,,,,,,,,,,,,,,,,,,,,,,,,,,,,,,,,
,,615a7592136605684a219fae,2024-02-22_05h17.55.860,kallum_motion_pilot,2023.2.2,Win32,59.88023952,615a7592136605684a219fae,65d6bb0e977760de756971f7,65d6bd2b979b6efb5b451cbe,0.1537,0.1539,1,103,265,113,1,fiveseven,,,,,,,,,,,,,,,,,,,,,,,,,,,,,,,,,,,,,,,,,,,,,,,,,,,,,,,,,,,,,,,,,,,,,,,,,,,,,,,,,,,,,,,,,,,,,,,,,,,,,,,,,,,,,,,,,,,,,,,,,,,,,,,,,,,,,,,,,
,,615a7592136605684a219fae,2024-02-22_05h17.55.860,kallum_motion_pilot,2023.2.2,Win32,59.88023952,615a7592136605684a219fae,65d6bb0e977760de756971f7,65d6bd2b979b6efb5b451cbe,0.1542,0.1544,1,104,266,41,1,onethree,,,,,,,,,,,,,,,,,,,,,,,,,,,,,,,,,,,,,,,,,,,,,,,,,,,,,,,,,,,,,,,,,,,,,,,,,,,,,,,,,,,,,,,,,,,,,,,,,,,,,,,,,,,,,,,,,,,,,,,,,,,,,,,,,,,,,,,,,
,,615a7592136605684a219fae,2024-02-22_05h17.55.860,kallum_motion_pilot,2023.2.2,Win32,59.88023952,615a7592136605684a219fae,65d6bb0e977760de756971f7,65d6bd2b979b6efb5b451cbe,0.1547,0.1548,1,105,267,19,1,twofour,,,,,,,,,,,,,,,,,,,,,,,,,,,,,,,,,,,,,,,,,,,,,,,,,,,,,,,,,,,,,,,,,,,,,,,,,,,,,,,,,,,,,,,,,,,,,,,,,,,,,,,,,,,,,,,,,,,,,,,,,,,,,,,,,,,,,,,,,
,,615a7592136605684a219fae,2024-02-22_05h17.55.860,kallum_motion_pilot,2023.2.2,Win32,59.88023952,615a7592136605684a219fae,65d6bb0e977760de756971f7,65d6bd2b979b6efb5b451cbe,0.1551,0.1553,1,106,268,4,1,threeone,,,,,,,,,,,,,,,,,,,,,,,,,,,,,,,,,,,,,,,,,,,,,,,,,,,,,,,,,,,,,,,,,,,,,,,,,,,,,,,,,,,,,,,,,,,,,,,,,,,,,,,,,,,,,,,,,,,,,,,,,,,,,,,,,,,,,,,,,
,,615a7592136605684a219fae,2024-02-22_05h17.55.860,kallum_motion_pilot,2023.2.2,Win32,59.88023952,615a7592136605684a219fae,65d6bb0e977760de756971f7,65d6bd2b979b6efb5b451cbe,0.1555,0.1557,1,107,269,148,1,sevenfive,,,,,,,,,,,,,,,,,,,,,,,,,,,,,,,,,,,,,,,,,,,,,,,,,,,,,,,,,,,,,,,,,,,,,,,,,,,,,,,,,,,,,,,,,,,,,,,,,,,,,,,,,,,,,,,,,,,,,,,,,,,,,,,,,,,,,,,,,
,,615a7592136605684a219fae,2024-02-22_05h17.55.860,kallum_motion_pilot,2023.2.2,Win32,59.88023952,615a7592136605684a219fae,65d6bb0e977760de756971f7,65d6bd2b979b6efb5b451cbe,0.156,0.1562,1,108,270,96,1,fivesix,,,,,,,,,,,,,,,,,,,,,,,,,,,,,,,,,,,,,,,,,,,,,,,,,,,,,,,,,,,,,,,,,,,,,,,,,,,,,,,,,,,,,,,,,,,,,,,,,,,,,,,,,,,,,,,,,,,,,,,,,,,,,,,,,,,,,,,,,
,,615a7592136605684a219fae,2024-02-22_05h17.55.860,kallum_motion_pilot,2023.2.2,Win32,59.88023952,615a7592136605684a219fae,65d6bb0e977760de756971f7,65d6bd2b979b6efb5b451cbe,0.1565,0.1567,1,109,271,10,1,twoone,,,,,,,,,,,,,,,,,,,,,,,,,,,,,,,,,,,,,,,,,,,,,,,,,,,,,,,,,,,,,,,,,,,,,,,,,,,,,,,,,,,,,,,,,,,,,,,,,,,,,,,,,,,,,,,,,,,,,,,,,,,,,,,,,,,,,,,,,
,,615a7592136605684a219fae,2024-02-22_05h17.55.860,kallum_motion_pilot,2023.2.2,Win32,59.88023952,615a7592136605684a219fae,65d6bb0e977760de756971f7,65d6bd2b979b6efb5b451cbe,0.1569,0.1572,1,110,272,146,1,sixfive,,,,,,,,,,,,,,,,,,,,,,,,,,,,,,,,,,,,,,,,,,,,,,,,,,,,,,,,,,,,,,,,,,,,,,,,,,,,,,,,,,,,,,,,,,,,,,,,,,,,,,,,,,,,,,,,,,,,,,,,,,,,,,,,,,,,,,,,,
,,615a7592136605684a219fae,2024-02-22_05h17.55.860,kallum_motion_pilot,2023.2.2,Win32,59.88023952,615a7592136605684a219fae,65d6bb0e977760de756971f7,65d6bd2b979b6efb5b451cbe,0.1573,0.1576,1,111,273,17,1,onethree,,,,,,,,,,,,,,,,,,,,,,,,,,,,,,,,,,,,,,,,,,,,,,,,,,,,,,,,,,,,,,,,,,,,,,,,,,,,,,,,,,,,,,,,,,,,,,,,,,,,,,,,,,,,,,,,,,,,,,,,,,,,,,,,,,,,,,,,,
,,615a7592136605684a219fae,2024-02-22_05h17.55.860,kallum_motion_pilot,2023.2.2,Win32,59.88023952,615a7592136605684a219fae,65d6bb0e977760de756971f7,65d6bd2b979b6efb5b451cbe,0.1578,0.158,1,112,274,86,1,eightsix,,,,,,,,,,,,,,,,,,,,,,,,,,,,,,,,,,,,,,,,,,,,,,,,,,,,,,,,,,,,,,,,,,,,,,,,,,,,,,,,,,,,,,,,,,,,,,,,,,,,,,,,,,,,,,,,,,,,,,,,,,,,,,,,,,,,,,,,,
,,615a7592136605684a219fae,2024-02-22_05h17.55.860,kallum_motion_pilot,2023.2.2,Win32,59.88023952,615a7592136605684a219fae,65d6bb0e977760de756971f7,65d6bd2b979b6efb5b451cbe,0.1583,0.1585,1,113,275,84,1,sevenfive,,,,,,,,,,,,,,,,,,,,,,,,,,,,,,,,,,,,,,,,,,,,,,,,,,,,,,,,,,,,,,,,,,,,,,,,,,,,,,,,,,,,,,,,,,,,,,,,,,,,,,,,,,,,,,,,,,,,,,,,,,,,,,,,,,,,,,,,,
,,615a7592136605684a219fae,2024-02-22_05h17.55.860,kallum_motion_pilot,2023.2.2,Win32,59.88023952,615a7592136605684a219fae,65d6bb0e977760de756971f7,65d6bd2b979b6efb5b451cbe,0.1587,0.159,1,114,276,110,1,eightsix,,,,,,,,,,,,,,,,,,,,,,,,,,,,,,,,,,,,,,,,,,,,,,,,,,,,,,,,,,,,,,,,,,,,,,,,,,,,,,,,,,,,,,,,,,,,,,,,,,,,,,,,,,,,,,,,,,,,,,,,,,,,,,,,,,,,,,,,,
,,615a7592136605684a219fae,2024-02-22_05h17.55.860,kallum_motion_pilot,2023.2.2,Win32,59.88023952,615a7592136605684a219fae,65d6bb0e977760de756971f7,65d6bd2b979b6efb5b451cbe,0.1592,0.1594,1,115,277,127,1,eightseven,,,,,,,,,,,,,,,,,,,,,,,,,,,,,,,,,,,,,,,,,,,,,,,,,,,,,,,,,,,,,,,,,,,,,,,,,,,,,,,,,,,,,,,,,,,,,,,,,,,,,,,,,,,,,,,,,,,,,,,,,,,,,,,,,,,,,,,,,
