startup.started,startup.stopped,Prolific ID*,date,expName,psychopyVersion,OS,frameRate,participant,study_id,session,stimpositions.started,stimpositions.stopped,hardcoded_stimulus_positions.thisRepN,hardcoded_stimulus_positions.thisTrialN,hardcoded_stimulus_positions.thisN,hardcoded_stimulus_positions.thisIndex,hardcoded_stimulus_positions.ran,StimulusPos,stimorientation.started,stimorientation.stopped,prac_stimorientation_import_loop.thisRepN,prac_stimorientation_import_loop.thisTrialN,prac_stimorientation_import_loop.thisN,prac_stimorientation_import_loop.thisIndex,prac_stimorientation_import_loop.ran,Stimorientation,welcome_instr.started,welcome_instr.stopped,key_resp.keys,key_resp.rt,key_resp.duration,response_steppedout_1.started,response_steppedout_1.stopped,key_resp_20.keys,key_resp_20.rt,key_resp_20.duration,response_steppedout_2.started,response_steppedout_2.stopped,key_resp_19.keys,key_resp_19.rt,key_resp_19.duration,stim_response_instr.started,stim_response_instr.stopped,key_resp_15.keys,key_resp_15.rt,key_resp_15.duration,direction_instr_2.started,direction_instr_2.stopped,key_resp_9.keys,key_resp_9.rt,key_resp_9.duration,instr_prac.started,instr_prac.stopped,key_resp_10.keys,key_resp_10.rt,key_resp_10.duration,Stim1_display_prac.started,Stim1_display_prac.stopped,Ecc,Circle1_ori,Circle2_ori,response_prac.started,similarity,response_time,response_prac.stopped,mouse_5.x,mouse_5.y,mouse_5.leftButton,mouse_5.midButton,mouse_5.rightButton,mouse_5.clicked_name,responseprac_feedback.started,responseprac_feedback.stopped,summary2_prac.started,summary2_prac.stopped,mouse_6.x,mouse_6.y,mouse_6.leftButton,mouse_6.midButton,mouse_6.rightButton,mouse_6.clicked_name,duringprac.thisRepN,duringprac.thisTrialN,duringprac.thisN,duringprac.thisIndex,duringprac.ran,begin.started,begin.stopped,key_resp_22.keys,key_resp_22.rt,key_resp_22.duration,Stim1_display.started,Stim1_display.stopped,circle1_ori,circle2_ori,circle1_SF,circle2_SF,response.started,response.stopped,mouse.x,mouse.y,mouse.leftButton,mouse.midButton,mouse.rightButton,mouse.clicked_name,trialnumber,double_pass.thisRepN,double_pass.thisTrialN,double_pass.thisN,double_pass.thisIndex,double_pass.ran,double_pass.order,main_trial.thisRepN,main_trial.thisTrialN,main_trial.thisN,main_trial.thisIndex,main_trial.ran,main_trial.order,Trial_Counter,Catch,Frequencies,response_2.started,response_2.stopped,mouse_2.x,mouse_2.y,mouse_2.leftButton,mouse_2.midButton,mouse_2.rightButton,mouse_2.clicked_name,special_trial.started,special_trial.stopped,catch_1.started,catch_1.stopped,mouse_3.x,mouse_3.y,mouse_3.leftButton,mouse_3.midButton,mouse_3.rightButton,catchresponse,catchnumber,response_time_catch,response_sum.started,response_sum.stopped,mouse_11.x,mouse_11.y,mouse_11.leftButton,mouse_11.midButton,mouse_11.rightButton,flip_presentation_sequence_for_double_pass.started,flip_presentation_sequence_for_double_pass.stopped,goodbye.started,goodbye.stopped,key_resp_3.keys,key_resp_3.rt,key_resp_3.duration
0.0005,0.0006,615a361b7fb478912573aac4,2024-02-22_05h23.27.871,kallum_motion_pilot,2023.2.2,Win32,59.88023952,615a361b7fb478912573aac4,65d6bb0e977760de756971f7,65d6bd276871e82dfed53ef1,,,,,,,,,,,,,,,,,,,,,,,,,,,,,,,,,,,,,,,,,,,,,,,,,,,,,,,,,,,,,,,,,,,,,,,,,,,,,,,,,,,,,,,,,,,,,,,,,,,,,,,,,,,,,,,,,,,,,,,,,,,,,,,,,,,,,,,,,,,,,,,,,
,,615a361b7fb478912573aac4,2024-02-22_05h23.27.871,kallum_motion_pilot,2023.2.2,Win32,59.88023952,615a361b7fb478912573aac4,65d6bb0e977760de756971f7,65d6bd276871e82dfed53ef1,0.0262,0.0264,0,0,0,72,1,onetwo,,,,,,,,,,,,,,,,,,,,,,,,,,,,,,,,,,,,,,,,,,,,,,,,,,,,,,,,,,,,,,,,,,,,,,,,,,,,,,,,,,,,,,,,,,,,,,,,,,,,,,,,,,,,,,,,,,,,,,,,,,,,,,,,,,,,,,,,,
,,615a361b7fb478912573aac4,2024-02-22_05h23.27.871,kallum_motion_pilot,2023.2.2,Win32,59.88023952,615a361b7fb478912573aac4,65d6bb0e977760de756971f7,65d6bd276871e82dfed53ef1,0.0266,0.0267,0,1,1,78,1,fourtwo,,,,,,,,,,,,,,,,,,,,,,,,,,,,,,,,,,,,,,,,,,,,,,,,,,,,,,,,,,,,,,,,,,,,,,,,,,,,,,,,,,,,,,,,,,,,,,,,,,,,,,,,,,,,,,,,,,,,,,,,,,,,,,,,,,,,,,,,,
,,615a361b7fb478912573aac4,2024-02-22_05h23.27.871,kallum_motion_pilot,2023.2.2,Win32,59.88023952,615a361b7fb478912573aac4,65d6bb0e977760de756971f7,65d6bd276871e82dfed53ef1,0.0268,0.0268,0,2,2,3,1,twofour,,,,,,,,,,,,,,,,,,,,,,,,,,,,,,,,,,,,,,,,,,,,,,,,,,,,,,,,,,,,,,,,,,,,,,,,,,,,,,,,,,,,,,,,,,,,,,,,,,,,,,,,,,,,,,,,,,,,,,,,,,,,,,,,,,,,,,,,,
,,615a361b7fb478912573aac4,2024-02-22_05h23.27.871,kallum_motion_pilot,2023.2.2,Win32,59.88023952,615a361b7fb478912573aac4,65d6bb0e977760de756971f7,65d6bd276871e82dfed53ef1,0.0269,0.027,0,3,3,48,1,onetwo,,,,,,,,,,,,,,,,,,,,,,,,,,,,,,,,,,,,,,,,,,,,,,,,,,,,,,,,,,,,,,,,,,,,,,,,,,,,,,,,,,,,,,,,,,,,,,,,,,,,,,,,,,,,,,,,,,,,,,,,,,,,,,,,,,,,,,,,,
,,615a361b7fb478912573aac4,2024-02-22_05h23.27.871,kallum_motion_pilot,2023.2.2,Win32,59.88023952,615a361b7fb478912573aac4,65d6bb0e977760de756971f7,65d6bd276871e82dfed53ef1,0.0271,0.0271,0,4,4,82,1,sixfive,,,,,,,,,,,,,,,,,,,,,,,,,,,,,,,,,,,,,,,,,,,,,,,,,,,,,,,,,,,,,,,,,,,,,,,,,,,,,,,,,,,,,,,,,,,,,,,,,,,,,,,,,,,,,,,,,,,,,,,,,,,,,,,,,,,,,,,,,
,,615a361b7fb478912573aac4,2024-02-22_05h23.27.871,kallum_motion_pilot,2023.2.2,Win32,59.88023952,615a361b7fb478912573aac4,65d6bb0e977760de756971f7,65d6bd276871e82dfed53ef1,0.0271,0.0271,0,5,5,42,1,twoone,,,,,,,,,,,,,,,,,,,,,,,,,,,,,,,,,,,,,,,,,,,,,,,,,,,,,,,,,,,,,,,,,,,,,,,,,,,,,,,,,,,,,,,,,,,,,,,,,,,,,,,,,,,,,,,,,,,,,,,,,,,,,,,,,,,,,,,,,
,,615a361b7fb478912573aac4,2024-02-22_05h23.27.871,kallum_motion_pilot,2023.2.2,Win32,59.88023952,615a361b7fb478912573aac4,65d6bb0e977760de756971f7,65d6bd276871e82dfed53ef1,0.0272,0.0273,0,6,6,117,1,seveneight,,,,,,,,,,,,,,,,,,,,,,,,,,,,,,,,,,,,,,,,,,,,,,,,,,,,,,,,,,,,,,,,,,,,,,,,,,,,,,,,,,,,,,,,,,,,,,,,,,,,,,,,,,,,,,,,,,,,,,,,,,,,,,,,,,,,,,,,,
,,615a361b7fb478912573aac4,2024-02-22_05h23.27.871,kallum_motion_pilot,2023.2.2,Win32,59.88023952,615a361b7fb478912573aac4,65d6bb0e977760de756971f7,65d6bd276871e82dfed53ef1,0.0274,0.0274,0,7,7,43,1,twofour,,,,,,,,,,,,,,,,,,,,,,,,,,,,,,,,,,,,,,,,,,,,,,,,,,,,,,,,,,,,,,,,,,,,,,,,,,,,,,,,,,,,,,,,,,,,,,,,,,,,,,,,,,,,,,,,,,,,,,,,,,,,,,,,,,,,,,,,,
,,615a361b7fb478912573aac4,2024-02-22_05h23.27.871,kallum_motion_pilot,2023.2.2,Win32,59.88023952,615a361b7fb478912573aac4,65d6bb0e977760de756971f7,65d6bd276871e82dfed53ef1,0.0275,0.0275,0,8,8,98,1,sixfive,,,,,,,,,,,,,,,,,,,,,,,,,,,,,,,,,,,,,,,,,,,,,,,,,,,,,,,,,,,,,,,,,,,,,,,,,,,,,,,,,,,,,,,,,,,,,,,,,,,,,,,,,,,,,,,,,,,,,,,,,,,,,,,,,,,,,,,,,
,,615a361b7fb478912573aac4,2024-02-22_05h23.27.871,kallum_motion_pilot,2023.2.2,Win32,59.88023952,615a361b7fb478912573aac4,65d6bb0e977760de756971f7,65d6bd276871e82dfed53ef1,0.0277,0.0277,0,9,9,140,1,sevenfive,,,,,,,,,,,,,,,,,,,,,,,,,,,,,,,,,,,,,,,,,,,,,,,,,,,,,,,,,,,,,,,,,,,,,,,,,,,,,,,,,,,,,,,,,,,,,,,,,,,,,,,,,,,,,,,,,,,,,,,,,,,,,,,,,,,,,,,,,
,,615a361b7fb478912573aac4,2024-02-22_05h23.27.871,kallum_motion_pilot,2023.2.2,Win32,59.88023952,615a361b7fb478912573aac4,65d6bb0e977760de756971f7,65d6bd276871e82dfed53ef1,0.0277,0.0278,0,10,10,49,1,onethree,,,,,,,,,,,,,,,,,,,,,,,,,,,,,,,,,,,,,,,,,,,,,,,,,,,,,,,,,,,,,,,,,,,,,,,,,,,,,,,,,,,,,,,,,,,,,,,,,,,,,,,,,,,,,,,,,,,,,,,,,,,,,,,,,,,,,,,,,
,,615a361b7fb478912573aac4,2024-02-22_05h23.27.871,kallum_motion_pilot,2023.2.2,Win32,59.88023952,615a361b7fb478912573aac4,65d6bb0e977760de756971f7,65d6bd276871e82dfed53ef1,0.0279,0.0279,0,11,11,52,1,threeone,,,,,,,,,,,,,,,,,,,,,,,,,,,,,,,,,,,,,,,,,,,,,,,,,,,,,,,,,,,,,,,,,,,,,,,,,,,,,,,,,,,,,,,,,,,,,,,,,,,,,,,,,,,,,,,,,,,,,,,,,,,,,,,,,,,,,,,,,
,,615a361b7fb478912573aac4,2024-02-22_05h23.27.871,kallum_motion_pilot,2023.2.2,Win32,59.88023952,615a361b7fb478912573aac4,65d6bb0e977760de756971f7,65d6bd276871e82dfed53ef1,0.028,0.028,0,12,12,70,1,fourtwo,,,,,,,,,,,,,,,,,,,,,,,,,,,,,,,,,,,,,,,,,,,,,,,,,,,,,,,,,,,,,,,,,,,,,,,,,,,,,,,,,,,,,,,,,,,,,,,,,,,,,,,,,,,,,,,,,,,,,,,,,,,,,,,,,,,,,,,,,
,,615a361b7fb478912573aac4,2024-02-22_05h23.27.871,kallum_motion_pilot,2023.2.2,Win32,59.88023952,615a361b7fb478912573aac4,65d6bb0e977760de756971f7,65d6bd276871e82dfed53ef1,0.028,0.028,0,13,13,1,1,onethree,,,,,,,,,,,,,,,,,,,,,,,,,,,,,,,,,,,,,,,,,,,,,,,,,,,,,,,,,,,,,,,,,,,,,,,,,,,,,,,,,,,,,,,,,,,,,,,,,,,,,,,,,,,,,,,,,,,,,,,,,,,,,,,,,,,,,,,,,
,,615a361b7fb478912573aac4,2024-02-22_05h23.27.871,kallum_motion_pilot,2023.2.2,Win32,59.88023952,615a361b7fb478912573aac4,65d6bb0e977760de756971f7,65d6bd276871e82dfed53ef1,0.0281,0.0281,0,14,14,55,1,fourthree,,,,,,,,,,,,,,,,,,,,,,,,,,,,,,,,,,,,,,,,,,,,,,,,,,,,,,,,,,,,,,,,,,,,,,,,,,,,,,,,,,,,,,,,,,,,,,,,,,,,,,,,,,,,,,,,,,,,,,,,,,,,,,,,,,,,,,,,,
,,615a361b7fb478912573aac4,2024-02-22_05h23.27.871,kallum_motion_pilot,2023.2.2,Win32,59.88023952,615a361b7fb478912573aac4,65d6bb0e977760de756971f7,65d6bd276871e82dfed53ef1,0.0282,0.0282,0,15,15,2,1,twoone,,,,,,,,,,,,,,,,,,,,,,,,,,,,,,,,,,,,,,,,,,,,,,,,,,,,,,,,,,,,,,,,,,,,,,,,,,,,,,,,,,,,,,,,,,,,,,,,,,,,,,,,,,,,,,,,,,,,,,,,,,,,,,,,,,,,,,,,,
,,615a361b7fb478912573aac4,2024-02-22_05h23.27.871,kallum_motion_pilot,2023.2.2,Win32,59.88023952,615a361b7fb478912573aac4,65d6bb0e977760de756971f7,65d6bd276871e82dfed53ef1,0.0282,0.0282,0,16,16,94,1,eightsix,,,,,,,,,,,,,,,,,,,,,,,,,,,,,,,,,,,,,,,,,,,,,,,,,,,,,,,,,,,,,,,,,,,,,,,,,,,,,,,,,,,,,,,,,,,,,,,,,,,,,,,,,,,,,,,,,,,,,,,,,,,,,,,,,,,,,,,,,
,,615a361b7fb478912573aac4,2024-02-22_05h23.27.871,kallum_motion_pilot,2023.2.2,Win32,59.88023952,615a361b7fb478912573aac4,65d6bb0e977760de756971f7,65d6bd276871e82dfed53ef1,0.0283,0.0284,0,17,17,10,1,twoone,,,,,,,,,,,,,,,,,,,,,,,,,,,,,,,,,,,,,,,,,,,,,,,,,,,,,,,,,,,,,,,,,,,,,,,,,,,,,,,,,,,,,,,,,,,,,,,,,,,,,,,,,,,,,,,,,,,,,,,,,,,,,,,,,,,,,,,,,
,,615a361b7fb478912573aac4,2024-02-22_05h23.27.871,kallum_motion_pilot,2023.2.2,Win32,59.88023952,615a361b7fb478912573aac4,65d6bb0e977760de756971f7,65d6bd276871e82dfed53ef1,0.0284,0.0284,0,18,18,141,1,seveneight,,,,,,,,,,,,,,,,,,,,,,,,,,,,,,,,,,,,,,,,,,,,,,,,,,,,,,,,,,,,,,,,,,,,,,,,,,,,,,,,,,,,,,,,,,,,,,,,,,,,,,,,,,,,,,,,,,,,,,,,,,,,,,,,,,,,,,,,,
,,615a361b7fb478912573aac4,2024-02-22_05h23.27.871,kallum_motion_pilot,2023.2.2,Win32,59.88023952,615a361b7fb478912573aac4,65d6bb0e977760de756971f7,65d6bd276871e82dfed53ef1,0.0285,0.0285,0,19,19,38,1,fourtwo,,,,,,,,,,,,,,,,,,,,,,,,,,,,,,,,,,,,,,,,,,,,,,,,,,,,,,,,,,,,,,,,,,,,,,,,,,,,,,,,,,,,,,,,,,,,,,,,,,,,,,,,,,,,,,,,,,,,,,,,,,,,,,,,,,,,,,,,,
,,615a361b7fb478912573aac4,2024-02-22_05h23.27.871,kallum_motion_pilot,2023.2.2,Win32,59.88023952,615a361b7fb478912573aac4,65d6bb0e977760de756971f7,65d6bd276871e82dfed53ef1,0.0285,0.0287,0,20,20,86,1,eightsix,,,,,,,,,,,,,,,,,,,,,,,,,,,,,,,,,,,,,,,,,,,,,,,,,,,,,,,,,,,,,,,,,,,,,,,,,,,,,,,,,,,,,,,,,,,,,,,,,,,,,,,,,,,,,,,,,,,,,,,,,,,,,,,,,,,,,,,,,
,,615a361b7fb478912573aac4,2024-02-22_05h23.27.871,kallum_motion_pilot,2023.2.2,Win32,59.88023952,615a361b7fb478912573aac4,65d6bb0e977760de756971f7,65d6bd276871e82dfed53ef1,0.0287,0.0287,0,21,21,57,1,onethree,,,,,,,,,,,,,,,,,,,,,,,,,,,,,,,,,,,,,,,,,,,,,,,,,,,,,,,,,,,,,,,,,,,,,,,,,,,,,,,,,,,,,,,,,,,,,,,,,,,,,,,,,,,,,,,,,,,,,,,,,,,,,,,,,,,,,,,,,
,,615a361b7fb478912573aac4,2024-02-22_05h23.27.871,kallum_motion_pilot,2023.2.2,Win32,59.88023952,615a361b7fb478912573aac4,65d6bb0e977760de756971f7,65d6bd276871e82dfed53ef1,0.0289,0.0289,0,22,22,34,1,twoone,,,,,,,,,,,,,,,,,,,,,,,,,,,,,,,,,,,,,,,,,,,,,,,,,,,,,,,,,,,,,,,,,,,,,,,,,,,,,,,,,,,,,,,,,,,,,,,,,,,,,,,,,,,,,,,,,,,,,,,,,,,,,,,,,,,,,,,,,
,,615a361b7fb478912573aac4,2024-02-22_05h23.27.871,kallum_motion_pilot,2023.2.2,Win32,59.88023952,615a361b7fb478912573aac4,65d6bb0e977760de756971f7,65d6bd276871e82dfed53ef1,0.029,0.029,0,23,23,11,1,twofour,,,,,,,,,,,,,,,,,,,,,,,,,,,,,,,,,,,,,,,,,,,,,,,,,,,,,,,,,,,,,,,,,,,,,,,,,,,,,,,,,,,,,,,,,,,,,,,,,,,,,,,,,,,,,,,,,,,,,,,,,,,,,,,,,,,,,,,,,
,,615a361b7fb478912573aac4,2024-02-22_05h23.27.871,kallum_motion_pilot,2023.2.2,Win32,59.88023952,615a361b7fb478912573aac4,65d6bb0e977760de756971f7,65d6bd276871e82dfed53ef1,0.029,0.0291,0,24,24,17,1,onethree,,,,,,,,,,,,,,,,,,,,,,,,,,,,,,,,,,,,,,,,,,,,,,,,,,,,,,,,,,,,,,,,,,,,,,,,,,,,,,,,,,,,,,,,,,,,,,,,,,,,,,,,,,,,,,,,,,,,,,,,,,,,,,,,,,,,,,,,,
,,615a361b7fb478912573aac4,2024-02-22_05h23.27.871,kallum_motion_pilot,2023.2.2,Win32,59.88023952,615a361b7fb478912573aac4,65d6bb0e977760de756971f7,65d6bd276871e82dfed53ef1,0.0292,0.0292,0,25,25,104,1,fivesix,,,,,,,,,,,,,,,,,,,,,,,,,,,,,,,,,,,,,,,,,,,,,,,,,,,,,,,,,,,,,,,,,,,,,,,,,,,,,,,,,,,,,,,,,,,,,,,,,,,,,,,,,,,,,,,,,,,,,,,,,,,,,,,,,,,,,,,,,
,,615a361b7fb478912573aac4,2024-02-22_05h23.27.871,kallum_motion_pilot,2023.2.2,Win32,59.88023952,615a361b7fb478912573aac4,65d6bb0e977760de756971f7,65d6bd276871e82dfed53ef1,0.0293,0.0293,0,26,26,84,1,sevenfive,,,,,,,,,,,,,,,,,,,,,,,,,,,,,,,,,,,,,,,,,,,,,,,,,,,,,,,,,,,,,,,,,,,,,,,,,,,,,,,,,,,,,,,,,,,,,,,,,,,,,,,,,,,,,,,,,,,,,,,,,,,,,,,,,,,,,,,,,
,,615a361b7fb478912573aac4,2024-02-22_05h23.27.871,kallum_motion_pilot,2023.2.2,Win32,59.88023952,615a361b7fb478912573aac4,65d6bb0e977760de756971f7,65d6bd276871e82dfed53ef1,0.0293,0.0294,0,27,27,97,1,fiveseven,,,,,,,,,,,,,,,,,,,,,,,,,,,,,,,,,,,,,,,,,,,,,,,,,,,,,,,,,,,,,,,,,,,,,,,,,,,,,,,,,,,,,,,,,,,,,,,,,,,,,,,,,,,,,,,,,,,,,,,,,,,,,,,,,,,,,,,,,
,,615a361b7fb478912573aac4,2024-02-22_05h23.27.871,kallum_motion_pilot,2023.2.2,Win32,59.88023952,615a361b7fb478912573aac4,65d6bb0e977760de756971f7,65d6bd276871e82dfed53ef1,0.0294,0.0294,0,28,28,100,1,sevenfive,,,,,,,,,,,,,,,,,,,,,,,,,,,,,,,,,,,,,,,,,,,,,,,,,,,,,,,,,,,,,,,,,,,,,,,,,,,,,,,,,,,,,,,,,,,,,,,,,,,,,,,,,,,,,,,,,,,,,,,,,,,,,,,,,,,,,,,,,
,,615a361b7fb478912573aac4,2024-02-22_05h23.27.871,kallum_motion_pilot,2023.2.2,Win32,59.88023952,615a361b7fb478912573aac4,65d6bb0e977760de756971f7,65d6bd276871e82dfed53ef1,0.0296,0.0296,0,29,29,8,1,onetwo,,,,,,,,,,,,,,,,,,,,,,,,,,,,,,,,,,,,,,,,,,,,,,,,,,,,,,,,,,,,,,,,,,,,,,,,,,,,,,,,,,,,,,,,,,,,,,,,,,,,,,,,,,,,,,,,,,,,,,,,,,,,,,,,,,,,,,,,,
,,615a361b7fb478912573aac4,2024-02-22_05h23.27.871,kallum_motion_pilot,2023.2.2,Win32,59.88023952,615a361b7fb478912573aac4,65d6bb0e977760de756971f7,65d6bd276871e82dfed53ef1,0.0296,0.0297,0,30,30,50,1,twoone,,,,,,,,,,,,,,,,,,,,,,,,,,,,,,,,,,,,,,,,,,,,,,,,,,,,,,,,,,,,,,,,,,,,,,,,,,,,,,,,,,,,,,,,,,,,,,,,,,,,,,,,,,,,,,,,,,,,,,,,,,,,,,,,,,,,,,,,,
,,615a361b7fb478912573aac4,2024-02-22_05h23.27.871,kallum_motion_pilot,2023.2.2,Win32,59.88023952,615a361b7fb478912573aac4,65d6bb0e977760de756971f7,65d6bd276871e82dfed53ef1,0.0298,0.0298,0,31,31,18,1,twoone,,,,,,,,,,,,,,,,,,,,,,,,,,,,,,,,,,,,,,,,,,,,,,,,,,,,,,,,,,,,,,,,,,,,,,,,,,,,,,,,,,,,,,,,,,,,,,,,,,,,,,,,,,,,,,,,,,,,,,,,,,,,,,,,,,,,,,,,,
,,615a361b7fb478912573aac4,2024-02-22_05h23.27.871,kallum_motion_pilot,2023.2.2,Win32,59.88023952,615a361b7fb478912573aac4,65d6bb0e977760de756971f7,65d6bd276871e82dfed53ef1,0.0298,0.0299,0,32,32,76,1,threeone,,,,,,,,,,,,,,,,,,,,,,,,,,,,,,,,,,,,,,,,,,,,,,,,,,,,,,,,,,,,,,,,,,,,,,,,,,,,,,,,,,,,,,,,,,,,,,,,,,,,,,,,,,,,,,,,,,,,,,,,,,,,,,,,,,,,,,,,,
,,615a361b7fb478912573aac4,2024-02-22_05h23.27.871,kallum_motion_pilot,2023.2.2,Win32,59.88023952,615a361b7fb478912573aac4,65d6bb0e977760de756971f7,65d6bd276871e82dfed53ef1,0.0299,0.0299,0,33,33,103,1,eightseven,,,,,,,,,,,,,,,,,,,,,,,,,,,,,,,,,,,,,,,,,,,,,,,,,,,,,,,,,,,,,,,,,,,,,,,,,,,,,,,,,,,,,,,,,,,,,,,,,,,,,,,,,,,,,,,,,,,,,,,,,,,,,,,,,,,,,,,,,
,,615a361b7fb478912573aac4,2024-02-22_05h23.27.871,kallum_motion_pilot,2023.2.2,Win32,59.88023952,615a361b7fb478912573aac4,65d6bb0e977760de756971f7,65d6bd276871e82dfed53ef1,0.03,0.03,0,34,34,156,1,sevenfive,,,,,,,,,,,,,,,,,,,,,,,,,,,,,,,,,,,,,,,,,,,,,,,,,,,,,,,,,,,,,,,,,,,,,,,,,,,,,,,,,,,,,,,,,,,,,,,,,,,,,,,,,,,,,,,,,,,,,,,,,,,,,,,,,,,,,,,,,
,,615a361b7fb478912573aac4,2024-02-22_05h23.27.871,kallum_motion_pilot,2023.2.2,Win32,59.88023952,615a361b7fb478912573aac4,65d6bb0e977760de756971f7,65d6bd276871e82dfed53ef1,0.0302,0.0302,0,35,35,126,1,eightsix,,,,,,,,,,,,,,,,,,,,,,,,,,,,,,,,,,,,,,,,,,,,,,,,,,,,,,,,,,,,,,,,,,,,,,,,,,,,,,,,,,,,,,,,,,,,,,,,,,,,,,,,,,,,,,,,,,,,,,,,,,,,,,,,,,,,,,,,,
,,615a361b7fb478912573aac4,2024-02-22_05h23.27.871,kallum_motion_pilot,2023.2.2,Win32,59.88023952,615a361b7fb478912573aac4,65d6bb0e977760de756971f7,65d6bd276871e82dfed53ef1,0.0302,0.0303,0,36,36,152,1,fivesix,,,,,,,,,,,,,,,,,,,,,,,,,,,,,,,,,,,,,,,,,,,,,,,,,,,,,,,,,,,,,,,,,,,,,,,,,,,,,,,,,,,,,,,,,,,,,,,,,,,,,,,,,,,,,,,,,,,,,,,,,,,,,,,,,,,,,,,,,
,,615a361b7fb478912573aac4,2024-02-22_05h23.27.871,kallum_motion_pilot,2023.2.2,Win32,59.88023952,615a361b7fb478912573aac4,65d6bb0e977760de756971f7,65d6bd276871e82dfed53ef1,0.0303,0.0303,0,37,37,87,1,eightseven,,,,,,,,,,,,,,,,,,,,,,,,,,,,,,,,,,,,,,,,,,,,,,,,,,,,,,,,,,,,,,,,,,,,,,,,,,,,,,,,,,,,,,,,,,,,,,,,,,,,,,,,,,,,,,,,,,,,,,,,,,,,,,,,,,,,,,,,,
,,615a361b7fb478912573aac4,2024-02-22_05h23.27.871,kallum_motion_pilot,2023.2.2,Win32,59.88023952,615a361b7fb478912573aac4,65d6bb0e977760de756971f7,65d6bd276871e82dfed53ef1,0.0304,0.0304,0,38,38,95,1,eightseven,,,,,,,,,,,,,,,,,,,,,,,,,,,,,,,,,,,,,,,,,,,,,,,,,,,,,,,,,,,,,,,,,,,,,,,,,,,,,,,,,,,,,,,,,,,,,,,,,,,,,,,,,,,,,,,,,,,,,,,,,,,,,,,,,,,,,,,,,
,,615a361b7fb478912573aac4,2024-02-22_05h23.27.871,kallum_motion_pilot,2023.2.2,Win32,59.88023952,615a361b7fb478912573aac4,65d6bb0e977760de756971f7,65d6bd276871e82dfed53ef1,0.0305,0.0305,0,39,39,158,1,eightsix,,,,,,,,,,,,,,,,,,,,,,,,,,,,,,,,,,,,,,,,,,,,,,,,,,,,,,,,,,,,,,,,,,,,,,,,,,,,,,,,,,,,,,,,,,,,,,,,,,,,,,,,,,,,,,,,,,,,,,,,,,,,,,,,,,,,,,,,,
,,615a361b7fb478912573aac4,2024-02-22_05h23.27.871,kallum_motion_pilot,2023.2.2,Win32,59.88023952,615a361b7fb478912573aac4,65d6bb0e977760de756971f7,65d6bd276871e82dfed53ef1,0.0306,0.0306,0,40,40,138,1,sixfive,,,,,,,,,,,,,,,,,,,,,,,,,,,,,,,,,,,,,,,,,,,,,,,,,,,,,,,,,,,,,,,,,,,,,,,,,,,,,,,,,,,,,,,,,,,,,,,,,,,,,,,,,,,,,,,,,,,,,,,,,,,,,,,,,,,,,,,,,
,,615a361b7fb478912573aac4,2024-02-22_05h23.27.871,kallum_motion_pilot,2023.2.2,Win32,59.88023952,615a361b7fb478912573aac4,65d6bb0e977760de756971f7,65d6bd276871e82dfed53ef1,0.0307,0.0307,0,41,41,22,1,fourtwo,,,,,,,,,,,,,,,,,,,,,,,,,,,,,,,,,,,,,,,,,,,,,,,,,,,,,,,,,,,,,,,,,,,,,,,,,,,,,,,,,,,,,,,,,,,,,,,,,,,,,,,,,,,,,,,,,,,,,,,,,,,,,,,,,,,,,,,,,
,,615a361b7fb478912573aac4,2024-02-22_05h23.27.871,kallum_motion_pilot,2023.2.2,Win32,59.88023952,615a361b7fb478912573aac4,65d6bb0e977760de756971f7,65d6bd276871e82dfed53ef1,0.0308,0.0308,0,42,42,146,1,sixfive,,,,,,,,,,,,,,,,,,,,,,,,,,,,,,,,,,,,,,,,,,,,,,,,,,,,,,,,,,,,,,,,,,,,,,,,,,,,,,,,,,,,,,,,,,,,,,,,,,,,,,,,,,,,,,,,,,,,,,,,,,,,,,,,,,,,,,,,,
,,615a361b7fb478912573aac4,2024-02-22_05h23.27.871,kallum_motion_pilot,2023.2.2,Win32,59.88023952,615a361b7fb478912573aac4,65d6bb0e977760de756971f7,65d6bd276871e82dfed53ef1,0.0308,0.0308,0,43,43,71,1,fourthree,,,,,,,,,,,,,,,,,,,,,,,,,,,,,,,,,,,,,,,,,,,,,,,,,,,,,,,,,,,,,,,,,,,,,,,,,,,,,,,,,,,,,,,,,,,,,,,,,,,,,,,,,,,,,,,,,,,,,,,,,,,,,,,,,,,,,,,,,
,,615a361b7fb478912573aac4,2024-02-22_05h23.27.871,kallum_motion_pilot,2023.2.2,Win32,59.88023952,615a361b7fb478912573aac4,65d6bb0e977760de756971f7,65d6bd276871e82dfed53ef1,0.0309,0.0309,0,44,44,40,1,onetwo,,,,,,,,,,,,,,,,,,,,,,,,,,,,,,,,,,,,,,,,,,,,,,,,,,,,,,,,,,,,,,,,,,,,,,,,,,,,,,,,,,,,,,,,,,,,,,,,,,,,,,,,,,,,,,,,,,,,,,,,,,,,,,,,,,,,,,,,,
,,615a361b7fb478912573aac4,2024-02-22_05h23.27.871,kallum_motion_pilot,2023.2.2,Win32,59.88023952,615a361b7fb478912573aac4,65d6bb0e977760de756971f7,65d6bd276871e82dfed53ef1,0.0311,0.0311,0,45,45,33,1,onethree,,,,,,,,,,,,,,,,,,,,,,,,,,,,,,,,,,,,,,,,,,,,,,,,,,,,,,,,,,,,,,,,,,,,,,,,,,,,,,,,,,,,,,,,,,,,,,,,,,,,,,,,,,,,,,,,,,,,,,,,,,,,,,,,,,,,,,,,,
,,615a361b7fb478912573aac4,2024-02-22_05h23.27.871,kallum_motion_pilot,2023.2.2,Win32,59.88023952,615a361b7fb478912573aac4,65d6bb0e977760de756971f7,65d6bd276871e82dfed53ef1,0.0311,0.0312,0,46,46,128,1,fivesix,,,,,,,,,,,,,,,,,,,,,,,,,,,,,,,,,,,,,,,,,,,,,,,,,,,,,,,,,,,,,,,,,,,,,,,,,,,,,,,,,,,,,,,,,,,,,,,,,,,,,,,,,,,,,,,,,,,,,,,,,,,,,,,,,,,,,,,,,
,,615a361b7fb478912573aac4,2024-02-22_05h23.27.871,kallum_motion_pilot,2023.2.2,Win32,59.88023952,615a361b7fb478912573aac4,65d6bb0e977760de756971f7,65d6bd276871e82dfed53ef1,0.0313,0.0313,0,47,47,129,1,fiveseven,,,,,,,,,,,,,,,,,,,,,,,,,,,,,,,,,,,,,,,,,,,,,,,,,,,,,,,,,,,,,,,,,,,,,,,,,,,,,,,,,,,,,,,,,,,,,,,,,,,,,,,,,,,,,,,,,,,,,,,,,,,,,,,,,,,,,,,,,
,,615a361b7fb478912573aac4,2024-02-22_05h23.27.871,kallum_motion_pilot,2023.2.2,Win32,59.88023952,615a361b7fb478912573aac4,65d6bb0e977760de756971f7,65d6bd276871e82dfed53ef1,0.0314,0.0314,0,48,48,116,1,sevenfive,,,,,,,,,,,,,,,,,,,,,,,,,,,,,,,,,,,,,,,,,,,,,,,,,,,,,,,,,,,,,,,,,,,,,,,,,,,,,,,,,,,,,,,,,,,,,,,,,,,,,,,,,,,,,,,,,,,,,,,,,,,,,,,,,,,,,,,,,
,,615a361b7fb478912573aac4,2024-02-22_05h23.27.871,kallum_motion_pilot,2023.2.2,Win32,59.88023952,615a361b7fb478912573aac4,65d6bb0e977760de756971f7,65d6bd276871e82dfed53ef1,0.0315,0.0315,0,49,49,77,1,threefour,,,,,,,,,,,,,,,,,,,,,,,,,,,,,,,,,,,,,,,,,,,,,,,,,,,,,,,,,,,,,,,,,,,,,,,,,,,,,,,,,,,,,,,,,,,,,,,,,,,,,,,,,,,,,,,,,,,,,,,,,,,,,,,,,,,,,,,,,
,,615a361b7fb478912573aac4,2024-02-22_05h23.27.871,kallum_motion_pilot,2023.2.2,Win32,59.88023952,615a361b7fb478912573aac4,65d6bb0e977760de756971f7,65d6bd276871e82dfed53ef1,0.0317,0.0317,0,50,50,81,1,fiveseven,,,,,,,,,,,,,,,,,,,,,,,,,,,,,,,,,,,,,,,,,,,,,,,,,,,,,,,,,,,,,,,,,,,,,,,,,,,,,,,,,,,,,,,,,,,,,,,,,,,,,,,,,,,,,,,,,,,,,,,,,,,,,,,,,,,,,,,,,
,,615a361b7fb478912573aac4,2024-02-22_05h23.27.871,kallum_motion_pilot,2023.2.2,Win32,59.88023952,615a361b7fb478912573aac4,65d6bb0e977760de756971f7,65d6bd276871e82dfed53ef1,0.0319,0.0319,0,51,51,143,1,eightseven,,,,,,,,,,,,,,,,,,,,,,,,,,,,,,,,,,,,,,,,,,,,,,,,,,,,,,,,,,,,,,,,,,,,,,,,,,,,,,,,,,,,,,,,,,,,,,,,,,,,,,,,,,,,,,,,,,,,,,,,,,,,,,,,,,,,,,,,,
,,615a361b7fb478912573aac4,2024-02-22_05h23.27.871,kallum_motion_pilot,2023.2.2,Win32,59.88023952,615a361b7fb478912573aac4,65d6bb0e977760de756971f7,65d6bd276871e82dfed53ef1,0.032,0.032,0,52,52,58,1,twoone,,,,,,,,,,,,,,,,,,,,,,,,,,,,,,,,,,,,,,,,,,,,,,,,,,,,,,,,,,,,,,,,,,,,,,,,,,,,,,,,,,,,,,,,,,,,,,,,,,,,,,,,,,,,,,,,,,,,,,,,,,,,,,,,,,,,,,,,,
,,615a361b7fb478912573aac4,2024-02-22_05h23.27.871,kallum_motion_pilot,2023.2.2,Win32,59.88023952,615a361b7fb478912573aac4,65d6bb0e977760de756971f7,65d6bd276871e82dfed53ef1,0.0321,0.0321,0,53,53,39,1,fourthree,,,,,,,,,,,,,,,,,,,,,,,,,,,,,,,,,,,,,,,,,,,,,,,,,,,,,,,,,,,,,,,,,,,,,,,,,,,,,,,,,,,,,,,,,,,,,,,,,,,,,,,,,,,,,,,,,,,,,,,,,,,,,,,,,,,,,,,,,
,,615a361b7fb478912573aac4,2024-02-22_05h23.27.871,kallum_motion_pilot,2023.2.2,Win32,59.88023952,615a361b7fb478912573aac4,65d6bb0e977760de756971f7,65d6bd276871e82dfed53ef1,0.0322,0.0323,0,54,54,137,1,fiveseven,,,,,,,,,,,,,,,,,,,,,,,,,,,,,,,,,,,,,,,,,,,,,,,,,,,,,,,,,,,,,,,,,,,,,,,,,,,,,,,,,,,,,,,,,,,,,,,,,,,,,,,,,,,,,,,,,,,,,,,,,,,,,,,,,,,,,,,,,
,,615a361b7fb478912573aac4,2024-02-22_05h23.27.871,kallum_motion_pilot,2023.2.2,Win32,59.88023952,615a361b7fb478912573aac4,65d6bb0e977760de756971f7,65d6bd276871e82dfed53ef1,0.0323,0.0323,0,55,55,96,1,fivesix,,,,,,,,,,,,,,,,,,,,,,,,,,,,,,,,,,,,,,,,,,,,,,,,,,,,,,,,,,,,,,,,,,,,,,,,,,,,,,,,,,,,,,,,,,,,,,,,,,,,,,,,,,,,,,,,,,,,,,,,,,,,,,,,,,,,,,,,,
,,615a361b7fb478912573aac4,2024-02-22_05h23.27.871,kallum_motion_pilot,2023.2.2,Win32,59.88023952,615a361b7fb478912573aac4,65d6bb0e977760de756971f7,65d6bd276871e82dfed53ef1,0.0324,0.0324,0,56,56,105,1,fiveseven,,,,,,,,,,,,,,,,,,,,,,,,,,,,,,,,,,,,,,,,,,,,,,,,,,,,,,,,,,,,,,,,,,,,,,,,,,,,,,,,,,,,,,,,,,,,,,,,,,,,,,,,,,,,,,,,,,,,,,,,,,,,,,,,,,,,,,,,,
,,615a361b7fb478912573aac4,2024-02-22_05h23.27.871,kallum_motion_pilot,2023.2.2,Win32,59.88023952,615a361b7fb478912573aac4,65d6bb0e977760de756971f7,65d6bd276871e82dfed53ef1,0.0325,0.0325,0,57,57,19,1,twofour,,,,,,,,,,,,,,,,,,,,,,,,,,,,,,,,,,,,,,,,,,,,,,,,,,,,,,,,,,,,,,,,,,,,,,,,,,,,,,,,,,,,,,,,,,,,,,,,,,,,,,,,,,,,,,,,,,,,,,,,,,,,,,,,,,,,,,,,,
,,615a361b7fb478912573aac4,2024-02-22_05h23.27.871,kallum_motion_pilot,2023.2.2,Win32,59.88023952,615a361b7fb478912573aac4,65d6bb0e977760de756971f7,65d6bd276871e82dfed53ef1,0.0326,0.0327,0,58,58,15,1,fourthree,,,,,,,,,,,,,,,,,,,,,,,,,,,,,,,,,,,,,,,,,,,,,,,,,,,,,,,,,,,,,,,,,,,,,,,,,,,,,,,,,,,,,,,,,,,,,,,,,,,,,,,,,,,,,,,,,,,,,,,,,,,,,,,,,,,,,,,,,
,,615a361b7fb478912573aac4,2024-02-22_05h23.27.871,kallum_motion_pilot,2023.2.2,Win32,59.88023952,615a361b7fb478912573aac4,65d6bb0e977760de756971f7,65d6bd276871e82dfed53ef1,0.0328,0.0328,0,59,59,155,1,sixeight,,,,,,,,,,,,,,,,,,,,,,,,,,,,,,,,,,,,,,,,,,,,,,,,,,,,,,,,,,,,,,,,,,,,,,,,,,,,,,,,,,,,,,,,,,,,,,,,,,,,,,,,,,,,,,,,,,,,,,,,,,,,,,,,,,,,,,,,,
,,615a361b7fb478912573aac4,2024-02-22_05h23.27.871,kallum_motion_pilot,2023.2.2,Win32,59.88023952,615a361b7fb478912573aac4,65d6bb0e977760de756971f7,65d6bd276871e82dfed53ef1,0.0329,0.0329,0,60,60,83,1,sixeight,,,,,,,,,,,,,,,,,,,,,,,,,,,,,,,,,,,,,,,,,,,,,,,,,,,,,,,,,,,,,,,,,,,,,,,,,,,,,,,,,,,,,,,,,,,,,,,,,,,,,,,,,,,,,,,,,,,,,,,,,,,,,,,,,,,,,,,,,
,,615a361b7fb478912573aac4,2024-02-22_05h23.27.871,kallum_motion_pilot,2023.2.2,Win32,59.88023952,615a361b7fb478912573aac4,65d6bb0e977760de756971f7,65d6bd276871e82dfed53ef1,0.033,0.033,0,61,61,133,1,seveneight,,,,,,,,,,,,,,,,,,,,,,,,,,,,,,,,,,,,,,,,,,,,,,,,,,,,,,,,,,,,,,,,,,,,,,,,,,,,,,,,,,,,,,,,,,,,,,,,,,,,,,,,,,,,,,,,,,,,,,,,,,,,,,,,,,,,,,,,,
,,615a361b7fb478912573aac4,2024-02-22_05h23.27.871,kallum_motion_pilot,2023.2.2,Win32,59.88023952,615a361b7fb478912573aac4,65d6bb0e977760de756971f7,65d6bd276871e82dfed53ef1,0.0331,0.0331,0,62,62,107,1,sixeight,,,,,,,,,,,,,,,,,,,,,,,,,,,,,,,,,,,,,,,,,,,,,,,,,,,,,,,,,,,,,,,,,,,,,,,,,,,,,,,,,,,,,,,,,,,,,,,,,,,,,,,,,,,,,,,,,,,,,,,,,,,,,,,,,,,,,,,,,
,,615a361b7fb478912573aac4,2024-02-22_05h23.27.871,kallum_motion_pilot,2023.2.2,Win32,59.88023952,615a361b7fb478912573aac4,65d6bb0e977760de756971f7,65d6bd276871e82dfed53ef1,0.0333,0.0333,0,63,63,5,1,threefour,,,,,,,,,,,,,,,,,,,,,,,,,,,,,,,,,,,,,,,,,,,,,,,,,,,,,,,,,,,,,,,,,,,,,,,,,,,,,,,,,,,,,,,,,,,,,,,,,,,,,,,,,,,,,,,,,,,,,,,,,,,,,,,,,,,,,,,,,
,,615a361b7fb478912573aac4,2024-02-22_05h23.27.871,kallum_motion_pilot,2023.2.2,Win32,59.88023952,615a361b7fb478912573aac4,65d6bb0e977760de756971f7,65d6bd276871e82dfed53ef1,0.0334,0.0334,0,64,64,44,1,threeone,,,,,,,,,,,,,,,,,,,,,,,,,,,,,,,,,,,,,,,,,,,,,,,,,,,,,,,,,,,,,,,,,,,,,,,,,,,,,,,,,,,,,,,,,,,,,,,,,,,,,,,,,,,,,,,,,,,,,,,,,,,,,,,,,,,,,,,,,
,,615a361b7fb478912573aac4,2024-02-22_05h23.27.871,kallum_motion_pilot,2023.2.2,Win32,59.88023952,615a361b7fb478912573aac4,65d6bb0e977760de756971f7,65d6bd276871e82dfed53ef1,0.0342,0.0342,0,65,65,101,1,seveneight,,,,,,,,,,,,,,,,,,,,,,,,,,,,,,,,,,,,,,,,,,,,,,,,,,,,,,,,,,,,,,,,,,,,,,,,,,,,,,,,,,,,,,,,,,,,,,,,,,,,,,,,,,,,,,,,,,,,,,,,,,,,,,,,,,,,,,,,,
,,615a361b7fb478912573aac4,2024-02-22_05h23.27.871,kallum_motion_pilot,2023.2.2,Win32,59.88023952,615a361b7fb478912573aac4,65d6bb0e977760de756971f7,65d6bd276871e82dfed53ef1,0.0343,0.0344,0,66,66,28,1,threeone,,,,,,,,,,,,,,,,,,,,,,,,,,,,,,,,,,,,,,,,,,,,,,,,,,,,,,,,,,,,,,,,,,,,,,,,,,,,,,,,,,,,,,,,,,,,,,,,,,,,,,,,,,,,,,,,,,,,,,,,,,,,,,,,,,,,,,,,,
,,615a361b7fb478912573aac4,2024-02-22_05h23.27.871,kallum_motion_pilot,2023.2.2,Win32,59.88023952,615a361b7fb478912573aac4,65d6bb0e977760de756971f7,65d6bd276871e82dfed53ef1,0.0345,0.0345,0,67,67,45,1,threefour,,,,,,,,,,,,,,,,,,,,,,,,,,,,,,,,,,,,,,,,,,,,,,,,,,,,,,,,,,,,,,,,,,,,,,,,,,,,,,,,,,,,,,,,,,,,,,,,,,,,,,,,,,,,,,,,,,,,,,,,,,,,,,,,,,,,,,,,,
,,615a361b7fb478912573aac4,2024-02-22_05h23.27.871,kallum_motion_pilot,2023.2.2,Win32,59.88023952,615a361b7fb478912573aac4,65d6bb0e977760de756971f7,65d6bd276871e82dfed53ef1,0.0346,0.0346,0,68,68,114,1,sixfive,,,,,,,,,,,,,,,,,,,,,,,,,,,,,,,,,,,,,,,,,,,,,,,,,,,,,,,,,,,,,,,,,,,,,,,,,,,,,,,,,,,,,,,,,,,,,,,,,,,,,,,,,,,,,,,,,,,,,,,,,,,,,,,,,,,,,,,,,
,,615a361b7fb478912573aac4,2024-02-22_05h23.27.871,kallum_motion_pilot,2023.2.2,Win32,59.88023952,615a361b7fb478912573aac4,65d6bb0e977760de756971f7,65d6bd276871e82dfed53ef1,0.0347,0.0348,0,69,69,91,1,sixeight,,,,,,,,,,,,,,,,,,,,,,,,,,,,,,,,,,,,,,,,,,,,,,,,,,,,,,,,,,,,,,,,,,,,,,,,,,,,,,,,,,,,,,,,,,,,,,,,,,,,,,,,,,,,,,,,,,,,,,,,,,,,,,,,,,,,,,,,,
,,615a361b7fb478912573aac4,2024-02-22_05h23.27.871,kallum_motion_pilot,2023.2.2,Win32,59.88023952,615a361b7fb478912573aac4,65d6bb0e977760de756971f7,65d6bd276871e82dfed53ef1,0.0349,0.0349,0,70,70,26,1,twoone,,,,,,,,,,,,,,,,,,,,,,,,,,,,,,,,,,,,,,,,,,,,,,,,,,,,,,,,,,,,,,,,,,,,,,,,,,,,,,,,,,,,,,,,,,,,,,,,,,,,,,,,,,,,,,,,,,,,,,,,,,,,,,,,,,,,,,,,,
,,615a361b7fb478912573aac4,2024-02-22_05h23.27.871,kallum_motion_pilot,2023.2.2,Win32,59.88023952,615a361b7fb478912573aac4,65d6bb0e977760de756971f7,65d6bd276871e82dfed53ef1,0.0349,0.0351,0,71,71,14,1,fourtwo,,,,,,,,,,,,,,,,,,,,,,,,,,,,,,,,,,,,,,,,,,,,,,,,,,,,,,,,,,,,,,,,,,,,,,,,,,,,,,,,,,,,,,,,,,,,,,,,,,,,,,,,,,,,,,,,,,,,,,,,,,,,,,,,,,,,,,,,,
,,615a361b7fb478912573aac4,2024-02-22_05h23.27.871,kallum_motion_pilot,2023.2.2,Win32,59.88023952,615a361b7fb478912573aac4,65d6bb0e977760de756971f7,65d6bd276871e82dfed53ef1,0.0351,0.0351,0,72,72,56,1,onetwo,,,,,,,,,,,,,,,,,,,,,,,,,,,,,,,,,,,,,,,,,,,,,,,,,,,,,,,,,,,,,,,,,,,,,,,,,,,,,,,,,,,,,,,,,,,,,,,,,,,,,,,,,,,,,,,,,,,,,,,,,,,,,,,,,,,,,,,,,
,,615a361b7fb478912573aac4,2024-02-22_05h23.27.871,kallum_motion_pilot,2023.2.2,Win32,59.88023952,615a361b7fb478912573aac4,65d6bb0e977760de756971f7,65d6bd276871e82dfed53ef1,0.0352,0.0352,0,73,73,63,1,fourthree,,,,,,,,,,,,,,,,,,,,,,,,,,,,,,,,,,,,,,,,,,,,,,,,,,,,,,,,,,,,,,,,,,,,,,,,,,,,,,,,,,,,,,,,,,,,,,,,,,,,,,,,,,,,,,,,,,,,,,,,,,,,,,,,,,,,,,,,,
,,615a361b7fb478912573aac4,2024-02-22_05h23.27.871,kallum_motion_pilot,2023.2.2,Win32,59.88023952,615a361b7fb478912573aac4,65d6bb0e977760de756971f7,65d6bd276871e82dfed53ef1,0.0353,0.0354,0,74,74,54,1,fourtwo,,,,,,,,,,,,,,,,,,,,,,,,,,,,,,,,,,,,,,,,,,,,,,,,,,,,,,,,,,,,,,,,,,,,,,,,,,,,,,,,,,,,,,,,,,,,,,,,,,,,,,,,,,,,,,,,,,,,,,,,,,,,,,,,,,,,,,,,,
,,615a361b7fb478912573aac4,2024-02-22_05h23.27.871,kallum_motion_pilot,2023.2.2,Win32,59.88023952,615a361b7fb478912573aac4,65d6bb0e977760de756971f7,65d6bd276871e82dfed53ef1,0.0354,0.0354,0,75,75,93,1,seveneight,,,,,,,,,,,,,,,,,,,,,,,,,,,,,,,,,,,,,,,,,,,,,,,,,,,,,,,,,,,,,,,,,,,,,,,,,,,,,,,,,,,,,,,,,,,,,,,,,,,,,,,,,,,,,,,,,,,,,,,,,,,,,,,,,,,,,,,,,
,,615a361b7fb478912573aac4,2024-02-22_05h23.27.871,kallum_motion_pilot,2023.2.2,Win32,59.88023952,615a361b7fb478912573aac4,65d6bb0e977760de756971f7,65d6bd276871e82dfed53ef1,0.0355,0.0355,0,76,76,89,1,fiveseven,,,,,,,,,,,,,,,,,,,,,,,,,,,,,,,,,,,,,,,,,,,,,,,,,,,,,,,,,,,,,,,,,,,,,,,,,,,,,,,,,,,,,,,,,,,,,,,,,,,,,,,,,,,,,,,,,,,,,,,,,,,,,,,,,,,,,,,,,
,,615a361b7fb478912573aac4,2024-02-22_05h23.27.871,kallum_motion_pilot,2023.2.2,Win32,59.88023952,615a361b7fb478912573aac4,65d6bb0e977760de756971f7,65d6bd276871e82dfed53ef1,0.0356,0.0356,0,77,77,0,1,onetwo,,,,,,,,,,,,,,,,,,,,,,,,,,,,,,,,,,,,,,,,,,,,,,,,,,,,,,,,,,,,,,,,,,,,,,,,,,,,,,,,,,,,,,,,,,,,,,,,,,,,,,,,,,,,,,,,,,,,,,,,,,,,,,,,,,,,,,,,,
,,615a361b7fb478912573aac4,2024-02-22_05h23.27.871,kallum_motion_pilot,2023.2.2,Win32,59.88023952,615a361b7fb478912573aac4,65d6bb0e977760de756971f7,65d6bd276871e82dfed53ef1,0.0358,0.0358,0,78,78,149,1,seveneight,,,,,,,,,,,,,,,,,,,,,,,,,,,,,,,,,,,,,,,,,,,,,,,,,,,,,,,,,,,,,,,,,,,,,,,,,,,,,,,,,,,,,,,,,,,,,,,,,,,,,,,,,,,,,,,,,,,,,,,,,,,,,,,,,,,,,,,,,
,,615a361b7fb478912573aac4,2024-02-22_05h23.27.871,kallum_motion_pilot,2023.2.2,Win32,59.88023952,615a361b7fb478912573aac4,65d6bb0e977760de756971f7,65d6bd276871e82dfed53ef1,0.0358,0.0359,0,79,79,27,1,twofour,,,,,,,,,,,,,,,,,,,,,,,,,,,,,,,,,,,,,,,,,,,,,,,,,,,,,,,,,,,,,,,,,,,,,,,,,,,,,,,,,,,,,,,,,,,,,,,,,,,,,,,,,,,,,,,,,,,,,,,,,,,,,,,,,,,,,,,,,
,,615a361b7fb478912573aac4,2024-02-22_05h23.27.871,kallum_motion_pilot,2023.2.2,Win32,59.88023952,615a361b7fb478912573aac4,65d6bb0e977760de756971f7,65d6bd276871e82dfed53ef1,0.0359,0.0359,0,80,80,147,1,sixeight,,,,,,,,,,,,,,,,,,,,,,,,,,,,,,,,,,,,,,,,,,,,,,,,,,,,,,,,,,,,,,,,,,,,,,,,,,,,,,,,,,,,,,,,,,,,,,,,,,,,,,,,,,,,,,,,,,,,,,,,,,,,,,,,,,,,,,,,,
,,615a361b7fb478912573aac4,2024-02-22_05h23.27.871,kallum_motion_pilot,2023.2.2,Win32,59.88023952,615a361b7fb478912573aac4,65d6bb0e977760de756971f7,65d6bd276871e82dfed53ef1,0.036,0.0361,0,81,81,154,1,sixfive,,,,,,,,,,,,,,,,,,,,,,,,,,,,,,,,,,,,,,,,,,,,,,,,,,,,,,,,,,,,,,,,,,,,,,,,,,,,,,,,,,,,,,,,,,,,,,,,,,,,,,,,,,,,,,,,,,,,,,,,,,,,,,,,,,,,,,,,,
,,615a361b7fb478912573aac4,2024-02-22_05h23.27.871,kallum_motion_pilot,2023.2.2,Win32,59.88023952,615a361b7fb478912573aac4,65d6bb0e977760de756971f7,65d6bd276871e82dfed53ef1,0.0361,0.0361,0,82,82,142,1,eightsix,,,,,,,,,,,,,,,,,,,,,,,,,,,,,,,,,,,,,,,,,,,,,,,,,,,,,,,,,,,,,,,,,,,,,,,,,,,,,,,,,,,,,,,,,,,,,,,,,,,,,,,,,,,,,,,,,,,,,,,,,,,,,,,,,,,,,,,,,
,,615a361b7fb478912573aac4,2024-02-22_05h23.27.871,kallum_motion_pilot,2023.2.2,Win32,59.88023952,615a361b7fb478912573aac4,65d6bb0e977760de756971f7,65d6bd276871e82dfed53ef1,0.0362,0.0363,0,83,83,125,1,seveneight,,,,,,,,,,,,,,,,,,,,,,,,,,,,,,,,,,,,,,,,,,,,,,,,,,,,,,,,,,,,,,,,,,,,,,,,,,,,,,,,,,,,,,,,,,,,,,,,,,,,,,,,,,,,,,,,,,,,,,,,,,,,,,,,,,,,,,,,,
,,615a361b7fb478912573aac4,2024-02-22_05h23.27.871,kallum_motion_pilot,2023.2.2,Win32,59.88023952,615a361b7fb478912573aac4,65d6bb0e977760de756971f7,65d6bd276871e82dfed53ef1,0.0364,0.0364,0,84,84,74,1,twoone,,,,,,,,,,,,,,,,,,,,,,,,,,,,,,,,,,,,,,,,,,,,,,,,,,,,,,,,,,,,,,,,,,,,,,,,,,,,,,,,,,,,,,,,,,,,,,,,,,,,,,,,,,,,,,,,,,,,,,,,,,,,,,,,,,,,,,,,,
,,615a361b7fb478912573aac4,2024-02-22_05h23.27.871,kallum_motion_pilot,2023.2.2,Win32,59.88023952,615a361b7fb478912573aac4,65d6bb0e977760de756971f7,65d6bd276871e82dfed53ef1,0.0364,0.0365,0,85,85,132,1,sevenfive,,,,,,,,,,,,,,,,,,,,,,,,,,,,,,,,,,,,,,,,,,,,,,,,,,,,,,,,,,,,,,,,,,,,,,,,,,,,,,,,,,,,,,,,,,,,,,,,,,,,,,,,,,,,,,,,,,,,,,,,,,,,,,,,,,,,,,,,,
,,615a361b7fb478912573aac4,2024-02-22_05h23.27.871,kallum_motion_pilot,2023.2.2,Win32,59.88023952,615a361b7fb478912573aac4,65d6bb0e977760de756971f7,65d6bd276871e82dfed53ef1,0.0366,0.0367,0,86,86,73,1,onethree,,,,,,,,,,,,,,,,,,,,,,,,,,,,,,,,,,,,,,,,,,,,,,,,,,,,,,,,,,,,,,,,,,,,,,,,,,,,,,,,,,,,,,,,,,,,,,,,,,,,,,,,,,,,,,,,,,,,,,,,,,,,,,,,,,,,,,,,,
,,615a361b7fb478912573aac4,2024-02-22_05h23.27.871,kallum_motion_pilot,2023.2.2,Win32,59.88023952,615a361b7fb478912573aac4,65d6bb0e977760de756971f7,65d6bd276871e82dfed53ef1,0.0367,0.0367,0,87,87,106,1,sixfive,,,,,,,,,,,,,,,,,,,,,,,,,,,,,,,,,,,,,,,,,,,,,,,,,,,,,,,,,,,,,,,,,,,,,,,,,,,,,,,,,,,,,,,,,,,,,,,,,,,,,,,,,,,,,,,,,,,,,,,,,,,,,,,,,,,,,,,,,
,,615a361b7fb478912573aac4,2024-02-22_05h23.27.871,kallum_motion_pilot,2023.2.2,Win32,59.88023952,615a361b7fb478912573aac4,65d6bb0e977760de756971f7,65d6bd276871e82dfed53ef1,0.0368,0.0368,0,88,88,66,1,twoone,,,,,,,,,,,,,,,,,,,,,,,,,,,,,,,,,,,,,,,,,,,,,,,,,,,,,,,,,,,,,,,,,,,,,,,,,,,,,,,,,,,,,,,,,,,,,,,,,,,,,,,,,,,,,,,,,,,,,,,,,,,,,,,,,,,,,,,,,
,,615a361b7fb478912573aac4,2024-02-22_05h23.27.871,kallum_motion_pilot,2023.2.2,Win32,59.88023952,615a361b7fb478912573aac4,65d6bb0e977760de756971f7,65d6bd276871e82dfed53ef1,0.0369,0.037,0,89,89,23,1,fourthree,,,,,,,,,,,,,,,,,,,,,,,,,,,,,,,,,,,,,,,,,,,,,,,,,,,,,,,,,,,,,,,,,,,,,,,,,,,,,,,,,,,,,,,,,,,,,,,,,,,,,,,,,,,,,,,,,,,,,,,,,,,,,,,,,,,,,,,,,
,,615a361b7fb478912573aac4,2024-02-22_05h23.27.871,kallum_motion_pilot,2023.2.2,Win32,59.88023952,615a361b7fb478912573aac4,65d6bb0e977760de756971f7,65d6bd276871e82dfed53ef1,0.037,0.037,0,90,90,35,1,twofour,,,,,,,,,,,,,,,,,,,,,,,,,,,,,,,,,,,,,,,,,,,,,,,,,,,,,,,,,,,,,,,,,,,,,,,,,,,,,,,,,,,,,,,,,,,,,,,,,,,,,,,,,,,,,,,,,,,,,,,,,,,,,,,,,,,,,,,,,
,,615a361b7fb478912573aac4,2024-02-22_05h23.27.871,kallum_motion_pilot,2023.2.2,Win32,59.88023952,615a361b7fb478912573aac4,65d6bb0e977760de756971f7,65d6bd276871e82dfed53ef1,0.0371,0.0371,0,91,91,92,1,sevenfive,,,,,,,,,,,,,,,,,,,,,,,,,,,,,,,,,,,,,,,,,,,,,,,,,,,,,,,,,,,,,,,,,,,,,,,,,,,,,,,,,,,,,,,,,,,,,,,,,,,,,,,,,,,,,,,,,,,,,,,,,,,,,,,,,,,,,,,,,
,,615a361b7fb478912573aac4,2024-02-22_05h23.27.871,kallum_motion_pilot,2023.2.2,Win32,59.88023952,615a361b7fb478912573aac4,65d6bb0e977760de756971f7,65d6bd276871e82dfed53ef1,0.0372,0.0373,0,92,92,119,1,eightseven,,,,,,,,,,,,,,,,,,,,,,,,,,,,,,,,,,,,,,,,,,,,,,,,,,,,,,,,,,,,,,,,,,,,,,,,,,,,,,,,,,,,,,,,,,,,,,,,,,,,,,,,,,,,,,,,,,,,,,,,,,,,,,,,,,,,,,,,,
,,615a361b7fb478912573aac4,2024-02-22_05h23.27.871,kallum_motion_pilot,2023.2.2,Win32,59.88023952,615a361b7fb478912573aac4,65d6bb0e977760de756971f7,65d6bd276871e82dfed53ef1,0.0373,0.0374,0,93,93,24,1,onetwo,,,,,,,,,,,,,,,,,,,,,,,,,,,,,,,,,,,,,,,,,,,,,,,,,,,,,,,,,,,,,,,,,,,,,,,,,,,,,,,,,,,,,,,,,,,,,,,,,,,,,,,,,,,,,,,,,,,,,,,,,,,,,,,,,,,,,,,,,
,,615a361b7fb478912573aac4,2024-02-22_05h23.27.871,kallum_motion_pilot,2023.2.2,Win32,59.88023952,615a361b7fb478912573aac4,65d6bb0e977760de756971f7,65d6bd276871e82dfed53ef1,0.0374,0.0375,0,94,94,37,1,threefour,,,,,,,,,,,,,,,,,,,,,,,,,,,,,,,,,,,,,,,,,,,,,,,,,,,,,,,,,,,,,,,,,,,,,,,,,,,,,,,,,,,,,,,,,,,,,,,,,,,,,,,,,,,,,,,,,,,,,,,,,,,,,,,,,,,,,,,,,
,,615a361b7fb478912573aac4,2024-02-22_05h23.27.871,kallum_motion_pilot,2023.2.2,Win32,59.88023952,615a361b7fb478912573aac4,65d6bb0e977760de756971f7,65d6bd276871e82dfed53ef1,0.0375,0.0376,0,95,95,30,1,fourtwo,,,,,,,,,,,,,,,,,,,,,,,,,,,,,,,,,,,,,,,,,,,,,,,,,,,,,,,,,,,,,,,,,,,,,,,,,,,,,,,,,,,,,,,,,,,,,,,,,,,,,,,,,,,,,,,,,,,,,,,,,,,,,,,,,,,,,,,,,
,,615a361b7fb478912573aac4,2024-02-22_05h23.27.871,kallum_motion_pilot,2023.2.2,Win32,59.88023952,615a361b7fb478912573aac4,65d6bb0e977760de756971f7,65d6bd276871e82dfed53ef1,0.0376,0.0377,0,96,96,9,1,onethree,,,,,,,,,,,,,,,,,,,,,,,,,,,,,,,,,,,,,,,,,,,,,,,,,,,,,,,,,,,,,,,,,,,,,,,,,,,,,,,,,,,,,,,,,,,,,,,,,,,,,,,,,,,,,,,,,,,,,,,,,,,,,,,,,,,,,,,,,
,,615a361b7fb478912573aac4,2024-02-22_05h23.27.871,kallum_motion_pilot,2023.2.2,Win32,59.88023952,615a361b7fb478912573aac4,65d6bb0e977760de756971f7,65d6bd276871e82dfed53ef1,0.0377,0.0378,0,97,97,122,1,sixfive,,,,,,,,,,,,,,,,,,,,,,,,,,,,,,,,,,,,,,,,,,,,,,,,,,,,,,,,,,,,,,,,,,,,,,,,,,,,,,,,,,,,,,,,,,,,,,,,,,,,,,,,,,,,,,,,,,,,,,,,,,,,,,,,,,,,,,,,,
,,615a361b7fb478912573aac4,2024-02-22_05h23.27.871,kallum_motion_pilot,2023.2.2,Win32,59.88023952,615a361b7fb478912573aac4,65d6bb0e977760de756971f7,65d6bd276871e82dfed53ef1,0.0378,0.0379,0,98,98,118,1,eightsix,,,,,,,,,,,,,,,,,,,,,,,,,,,,,,,,,,,,,,,,,,,,,,,,,,,,,,,,,,,,,,,,,,,,,,,,,,,,,,,,,,,,,,,,,,,,,,,,,,,,,,,,,,,,,,,,,,,,,,,,,,,,,,,,,,,,,,,,,
,,615a361b7fb478912573aac4,2024-02-22_05h23.27.871,kallum_motion_pilot,2023.2.2,Win32,59.88023952,615a361b7fb478912573aac4,65d6bb0e977760de756971f7,65d6bd276871e82dfed53ef1,0.038,0.038,0,99,99,12,1,threeone,,,,,,,,,,,,,,,,,,,,,,,,,,,,,,,,,,,,,,,,,,,,,,,,,,,,,,,,,,,,,,,,,,,,,,,,,,,,,,,,,,,,,,,,,,,,,,,,,,,,,,,,,,,,,,,,,,,,,,,,,,,,,,,,,,,,,,,,,
,,615a361b7fb478912573aac4,2024-02-22_05h23.27.871,kallum_motion_pilot,2023.2.2,Win32,59.88023952,615a361b7fb478912573aac4,65d6bb0e977760de756971f7,65d6bd276871e82dfed53ef1,0.0382,0.0384,0,100,100,145,1,fiveseven,,,,,,,,,,,,,,,,,,,,,,,,,,,,,,,,,,,,,,,,,,,,,,,,,,,,,,,,,,,,,,,,,,,,,,,,,,,,,,,,,,,,,,,,,,,,,,,,,,,,,,,,,,,,,,,,,,,,,,,,,,,,,,,,,,,,,,,,,
,,615a361b7fb478912573aac4,2024-02-22_05h23.27.871,kallum_motion_pilot,2023.2.2,Win32,59.88023952,615a361b7fb478912573aac4,65d6bb0e977760de756971f7,65d6bd276871e82dfed53ef1,0.0384,0.0385,0,101,101,41,1,onethree,,,,,,,,,,,,,,,,,,,,,,,,,,,,,,,,,,,,,,,,,,,,,,,,,,,,,,,,,,,,,,,,,,,,,,,,,,,,,,,,,,,,,,,,,,,,,,,,,,,,,,,,,,,,,,,,,,,,,,,,,,,,,,,,,,,,,,,,,
,,615a361b7fb478912573aac4,2024-02-22_05h23.27.871,kallum_motion_pilot,2023.2.2,Win32,59.88023952,615a361b7fb478912573aac4,65d6bb0e977760de756971f7,65d6bd276871e82dfed53ef1,0.0388,0.0389,0,102,102,115,1,sixeight,,,,,,,,,,,,,,,,,,,,,,,,,,,,,,,,,,,,,,,,,,,,,,,,,,,,,,,,,,,,,,,,,,,,,,,,,,,,,,,,,,,,,,,,,,,,,,,,,,,,,,,,,,,,,,,,,,,,,,,,,,,,,,,,,,,,,,,,,
,,615a361b7fb478912573aac4,2024-02-22_05h23.27.871,kallum_motion_pilot,2023.2.2,Win32,59.88023952,615a361b7fb478912573aac4,65d6bb0e977760de756971f7,65d6bd276871e82dfed53ef1,0.039,0.039,0,103,103,150,1,eightsix,,,,,,,,,,,,,,,,,,,,,,,,,,,,,,,,,,,,,,,,,,,,,,,,,,,,,,,,,,,,,,,,,,,,,,,,,,,,,,,,,,,,,,,,,,,,,,,,,,,,,,,,,,,,,,,,,,,,,,,,,,,,,,,,,,,,,,,,,
,,615a361b7fb478912573aac4,2024-02-22_05h23.27.871,kallum_motion_pilot,2023.2.2,Win32,59.88023952,615a361b7fb478912573aac4,65d6bb0e977760de756971f7,65d6bd276871e82dfed53ef1,0.0392,0.0392,0,104,104,31,1,fourthree,,,,,,,,,,,,,,,,,,,,,,,,,,,,,,,,,,,,,,,,,,,,,,,,,,,,,,,,,,,,,,,,,,,,,,,,,,,,,,,,,,,,,,,,,,,,,,,,,,,,,,,,,,,,,,,,,,,,,,,,,,,,,,,,,,,,,,,,,
,,615a361b7fb478912573aac4,2024-02-22_05h23.27.871,kallum_motion_pilot,2023.2.2,Win32,59.88023952,615a361b7fb478912573aac4,65d6bb0e977760de756971f7,65d6bd276871e82dfed53ef1,0.0394,0.0395,0,105,105,157,1,seveneight,,,,,,,,,,,,,,,,,,,,,,,,,,,,,,,,,,,,,,,,,,,,,,,,,,,,,,,,,,,,,,,,,,,,,,,,,,,,,,,,,,,,,,,,,,,,,,,,,,,,,,,,,,,,,,,,,,,,,,,,,,,,,,,,,,,,,,,,,
,,615a361b7fb478912573aac4,2024-02-22_05h23.27.871,kallum_motion_pilot,2023.2.2,Win32,59.88023952,615a361b7fb478912573aac4,65d6bb0e977760de756971f7,65d6bd276871e82dfed53ef1,0.0396,0.0397,0,106,106,62,1,fourtwo,,,,,,,,,,,,,,,,,,,,,,,,,,,,,,,,,,,,,,,,,,,,,,,,,,,,,,,,,,,,,,,,,,,,,,,,,,,,,,,,,,,,,,,,,,,,,,,,,,,,,,,,,,,,,,,,,,,,,,,,,,,,,,,,,,,,,,,,,
,,615a361b7fb478912573aac4,2024-02-22_05h23.27.871,kallum_motion_pilot,2023.2.2,Win32,59.88023952,615a361b7fb478912573aac4,65d6bb0e977760de756971f7,65d6bd276871e82dfed53ef1,0.0397,0.0397,0,107,107,88,1,fivesix,,,,,,,,,,,,,,,,,,,,,,,,,,,,,,,,,,,,,,,,,,,,,,,,,,,,,,,,,,,,,,,,,,,,,,,,,,,,,,,,,,,,,,,,,,,,,,,,,,,,,,,,,,,,,,,,,,,,,,,,,,,,,,,,,,,,,,,,,
,,615a361b7fb478912573aac4,2024-02-22_05h23.27.871,kallum_motion_pilot,2023.2.2,Win32,59.88023952,615a361b7fb478912573aac4,65d6bb0e977760de756971f7,65d6bd276871e82dfed53ef1,0.0398,0.0399,0,108,108,148,1,sevenfive,,,,,,,,,,,,,,,,,,,,,,,,,,,,,,,,,,,,,,,,,,,,,,,,,,,,,,,,,,,,,,,,,,,,,,,,,,,,,,,,,,,,,,,,,,,,,,,,,,,,,,,,,,,,,,,,,,,,,,,,,,,,,,,,,,,,,,,,,
,,615a361b7fb478912573aac4,2024-02-22_05h23.27.871,kallum_motion_pilot,2023.2.2,Win32,59.88023952,615a361b7fb478912573aac4,65d6bb0e977760de756971f7,65d6bd276871e82dfed53ef1,0.04,0.0401,0,109,109,134,1,eightsix,,,,,,,,,,,,,,,,,,,,,,,,,,,,,,,,,,,,,,,,,,,,,,,,,,,,,,,,,,,,,,,,,,,,,,,,,,,,,,,,,,,,,,,,,,,,,,,,,,,,,,,,,,,,,,,,,,,,,,,,,,,,,,,,,,,,,,,,,
,,615a361b7fb478912573aac4,2024-02-22_05h23.27.871,kallum_motion_pilot,2023.2.2,Win32,59.88023952,615a361b7fb478912573aac4,65d6bb0e977760de756971f7,65d6bd276871e82dfed53ef1,0.0401,0.0401,0,110,110,46,1,fourtwo,,,,,,,,,,,,,,,,,,,,,,,,,,,,,,,,,,,,,,,,,,,,,,,,,,,,,,,,,,,,,,,,,,,,,,,,,,,,,,,,,,,,,,,,,,,,,,,,,,,,,,,,,,,,,,,,,,,,,,,,,,,,,,,,,,,,,,,,,
,,615a361b7fb478912573aac4,2024-02-22_05h23.27.871,kallum_motion_pilot,2023.2.2,Win32,59.88023952,615a361b7fb478912573aac4,65d6bb0e977760de756971f7,65d6bd276871e82dfed53ef1,0.0403,0.0403,0,111,111,16,1,onetwo,,,,,,,,,,,,,,,,,,,,,,,,,,,,,,,,,,,,,,,,,,,,,,,,,,,,,,,,,,,,,,,,,,,,,,,,,,,,,,,,,,,,,,,,,,,,,,,,,,,,,,,,,,,,,,,,,,,,,,,,,,,,,,,,,,,,,,,,,
,,615a361b7fb478912573aac4,2024-02-22_05h23.27.871,kallum_motion_pilot,2023.2.2,Win32,59.88023952,615a361b7fb478912573aac4,65d6bb0e977760de756971f7,65d6bd276871e82dfed53ef1,0.0404,0.0404,0,112,112,124,1,sevenfive,,,,,,,,,,,,,,,,,,,,,,,,,,,,,,,,,,,,,,,,,,,,,,,,,,,,,,,,,,,,,,,,,,,,,,,,,,,,,,,,,,,,,,,,,,,,,,,,,,,,,,,,,,,,,,,,,,,,,,,,,,,,,,,,,,,,,,,,,
,,615a361b7fb478912573aac4,2024-02-22_05h23.27.871,kallum_motion_pilot,2023.2.2,Win32,59.88023952,615a361b7fb478912573aac4,65d6bb0e977760de756971f7,65d6bd276871e82dfed53ef1,0.0405,0.0406,0,113,113,75,1,twofour,,,,,,,,,,,,,,,,,,,,,,,,,,,,,,,,,,,,,,,,,,,,,,,,,,,,,,,,,,,,,,,,,,,,,,,,,,,,,,,,,,,,,,,,,,,,,,,,,,,,,,,,,,,,,,,,,,,,,,,,,,,,,,,,,,,,,,,,,
,,615a361b7fb478912573aac4,2024-02-22_05h23.27.871,kallum_motion_pilot,2023.2.2,Win32,59.88023952,615a361b7fb478912573aac4,65d6bb0e977760de756971f7,65d6bd276871e82dfed53ef1,0.0407,0.0407,0,114,114,135,1,eightseven,,,,,,,,,,,,,,,,,,,,,,,,,,,,,,,,,,,,,,,,,,,,,,,,,,,,,,,,,,,,,,,,,,,,,,,,,,,,,,,,,,,,,,,,,,,,,,,,,,,,,,,,,,,,,,,,,,,,,,,,,,,,,,,,,,,,,,,,,
,,615a361b7fb478912573aac4,2024-02-22_05h23.27.871,kallum_motion_pilot,2023.2.2,Win32,59.88023952,615a361b7fb478912573aac4,65d6bb0e977760de756971f7,65d6bd276871e82dfed53ef1,0.0408,0.0409,0,115,115,59,1,twofour,,,,,,,,,,,,,,,,,,,,,,,,,,,,,,,,,,,,,,,,,,,,,,,,,,,,,,,,,,,,,,,,,,,,,,,,,,,,,,,,,,,,,,,,,,,,,,,,,,,,,,,,,,,,,,,,,,,,,,,,,,,,,,,,,,,,,,,,,
,,615a361b7fb478912573aac4,2024-02-22_05h23.27.871,kallum_motion_pilot,2023.2.2,Win32,59.88023952,615a361b7fb478912573aac4,65d6bb0e977760de756971f7,65d6bd276871e82dfed53ef1,0.041,0.041,0,116,116,20,1,threeone,,,,,,,,,,,,,,,,,,,,,,,,,,,,,,,,,,,,,,,,,,,,,,,,,,,,,,,,,,,,,,,,,,,,,,,,,,,,,,,,,,,,,,,,,,,,,,,,,,,,,,,,,,,,,,,,,,,,,,,,,,,,,,,,,,,,,,,,,
,,615a361b7fb478912573aac4,2024-02-22_05h23.27.871,kallum_motion_pilot,2023.2.2,Win32,59.88023952,615a361b7fb478912573aac4,65d6bb0e977760de756971f7,65d6bd276871e82dfed53ef1,0.0411,0.0411,0,117,117,109,1,seveneight,,,,,,,,,,,,,,,,,,,,,,,,,,,,,,,,,,,,,,,,,,,,,,,,,,,,,,,,,,,,,,,,,,,,,,,,,,,,,,,,,,,,,,,,,,,,,,,,,,,,,,,,,,,,,,,,,,,,,,,,,,,,,,,,,,,,,,,,,
,,615a361b7fb478912573aac4,2024-02-22_05h23.27.871,kallum_motion_pilot,2023.2.2,Win32,59.88023952,615a361b7fb478912573aac4,65d6bb0e977760de756971f7,65d6bd276871e82dfed53ef1,0.0412,0.0412,0,118,118,159,1,eightseven,,,,,,,,,,,,,,,,,,,,,,,,,,,,,,,,,,,,,,,,,,,,,,,,,,,,,,,,,,,,,,,,,,,,,,,,,,,,,,,,,,,,,,,,,,,,,,,,,,,,,,,,,,,,,,,,,,,,,,,,,,,,,,,,,,,,,,,,,
,,615a361b7fb478912573aac4,2024-02-22_05h23.27.871,kallum_motion_pilot,2023.2.2,Win32,59.88023952,615a361b7fb478912573aac4,65d6bb0e977760de756971f7,65d6bd276871e82dfed53ef1,0.0414,0.0414,0,119,119,68,1,threeone,,,,,,,,,,,,,,,,,,,,,,,,,,,,,,,,,,,,,,,,,,,,,,,,,,,,,,,,,,,,,,,,,,,,,,,,,,,,,,,,,,,,,,,,,,,,,,,,,,,,,,,,,,,,,,,,,,,,,,,,,,,,,,,,,,,,,,,,,
,,615a361b7fb478912573aac4,2024-02-22_05h23.27.871,kallum_motion_pilot,2023.2.2,Win32,59.88023952,615a361b7fb478912573aac4,65d6bb0e977760de756971f7,65d6bd276871e82dfed53ef1,0.0415,0.0416,0,120,120,6,1,fourtwo,,,,,,,,,,,,,,,,,,,,,,,,,,,,,,,,,,,,,,,,,,,,,,,,,,,,,,,,,,,,,,,,,,,,,,,,,,,,,,,,,,,,,,,,,,,,,,,,,,,,,,,,,,,,,,,,,,,,,,,,,,,,,,,,,,,,,,,,,
,,615a361b7fb478912573aac4,2024-02-22_05h23.27.871,kallum_motion_pilot,2023.2.2,Win32,59.88023952,615a361b7fb478912573aac4,65d6bb0e977760de756971f7,65d6bd276871e82dfed53ef1,0.0417,0.0418,0,121,121,69,1,threefour,,,,,,,,,,,,,,,,,,,,,,,,,,,,,,,,,,,,,,,,,,,,,,,,,,,,,,,,,,,,,,,,,,,,,,,,,,,,,,,,,,,,,,,,,,,,,,,,,,,,,,,,,,,,,,,,,,,,,,,,,,,,,,,,,,,,,,,,,
,,615a361b7fb478912573aac4,2024-02-22_05h23.27.871,kallum_motion_pilot,2023.2.2,Win32,59.88023952,615a361b7fb478912573aac4,65d6bb0e977760de756971f7,65d6bd276871e82dfed53ef1,0.0418,0.0419,0,122,122,61,1,threefour,,,,,,,,,,,,,,,,,,,,,,,,,,,,,,,,,,,,,,,,,,,,,,,,,,,,,,,,,,,,,,,,,,,,,,,,,,,,,,,,,,,,,,,,,,,,,,,,,,,,,,,,,,,,,,,,,,,,,,,,,,,,,,,,,,,,,,,,,
,,615a361b7fb478912573aac4,2024-02-22_05h23.27.871,kallum_motion_pilot,2023.2.2,Win32,59.88023952,615a361b7fb478912573aac4,65d6bb0e977760de756971f7,65d6bd276871e82dfed53ef1,0.042,0.0421,0,123,123,144,1,fivesix,,,,,,,,,,,,,,,,,,,,,,,,,,,,,,,,,,,,,,,,,,,,,,,,,,,,,,,,,,,,,,,,,,,,,,,,,,,,,,,,,,,,,,,,,,,,,,,,,,,,,,,,,,,,,,,,,,,,,,,,,,,,,,,,,,,,,,,,,
,,615a361b7fb478912573aac4,2024-02-22_05h23.27.871,kallum_motion_pilot,2023.2.2,Win32,59.88023952,615a361b7fb478912573aac4,65d6bb0e977760de756971f7,65d6bd276871e82dfed53ef1,0.0422,0.0423,0,124,124,99,1,sixeight,,,,,,,,,,,,,,,,,,,,,,,,,,,,,,,,,,,,,,,,,,,,,,,,,,,,,,,,,,,,,,,,,,,,,,,,,,,,,,,,,,,,,,,,,,,,,,,,,,,,,,,,,,,,,,,,,,,,,,,,,,,,,,,,,,,,,,,,,
,,615a361b7fb478912573aac4,2024-02-22_05h23.27.871,kallum_motion_pilot,2023.2.2,Win32,59.88023952,615a361b7fb478912573aac4,65d6bb0e977760de756971f7,65d6bd276871e82dfed53ef1,0.0424,0.0424,0,125,125,151,1,eightseven,,,,,,,,,,,,,,,,,,,,,,,,,,,,,,,,,,,,,,,,,,,,,,,,,,,,,,,,,,,,,,,,,,,,,,,,,,,,,,,,,,,,,,,,,,,,,,,,,,,,,,,,,,,,,,,,,,,,,,,,,,,,,,,,,,,,,,,,,
,,615a361b7fb478912573aac4,2024-02-22_05h23.27.871,kallum_motion_pilot,2023.2.2,Win32,59.88023952,615a361b7fb478912573aac4,65d6bb0e977760de756971f7,65d6bd276871e82dfed53ef1,0.0425,0.0425,0,126,126,4,1,threeone,,,,,,,,,,,,,,,,,,,,,,,,,,,,,,,,,,,,,,,,,,,,,,,,,,,,,,,,,,,,,,,,,,,,,,,,,,,,,,,,,,,,,,,,,,,,,,,,,,,,,,,,,,,,,,,,,,,,,,,,,,,,,,,,,,,,,,,,,
,,615a361b7fb478912573aac4,2024-02-22_05h23.27.871,kallum_motion_pilot,2023.2.2,Win32,59.88023952,615a361b7fb478912573aac4,65d6bb0e977760de756971f7,65d6bd276871e82dfed53ef1,0.0426,0.0427,0,127,127,102,1,eightsix,,,,,,,,,,,,,,,,,,,,,,,,,,,,,,,,,,,,,,,,,,,,,,,,,,,,,,,,,,,,,,,,,,,,,,,,,,,,,,,,,,,,,,,,,,,,,,,,,,,,,,,,,,,,,,,,,,,,,,,,,,,,,,,,,,,,,,,,,
,,615a361b7fb478912573aac4,2024-02-22_05h23.27.871,kallum_motion_pilot,2023.2.2,Win32,59.88023952,615a361b7fb478912573aac4,65d6bb0e977760de756971f7,65d6bd276871e82dfed53ef1,0.0428,0.0428,0,128,128,131,1,sixeight,,,,,,,,,,,,,,,,,,,,,,,,,,,,,,,,,,,,,,,,,,,,,,,,,,,,,,,,,,,,,,,,,,,,,,,,,,,,,,,,,,,,,,,,,,,,,,,,,,,,,,,,,,,,,,,,,,,,,,,,,,,,,,,,,,,,,,,,,
,,615a361b7fb478912573aac4,2024-02-22_05h23.27.871,kallum_motion_pilot,2023.2.2,Win32,59.88023952,615a361b7fb478912573aac4,65d6bb0e977760de756971f7,65d6bd276871e82dfed53ef1,0.0429,0.043,0,129,129,85,1,seveneight,,,,,,,,,,,,,,,,,,,,,,,,,,,,,,,,,,,,,,,,,,,,,,,,,,,,,,,,,,,,,,,,,,,,,,,,,,,,,,,,,,,,,,,,,,,,,,,,,,,,,,,,,,,,,,,,,,,,,,,,,,,,,,,,,,,,,,,,,
,,615a361b7fb478912573aac4,2024-02-22_05h23.27.871,kallum_motion_pilot,2023.2.2,Win32,59.88023952,615a361b7fb478912573aac4,65d6bb0e977760de756971f7,65d6bd276871e82dfed53ef1,0.043,0.0431,0,130,130,13,1,threefour,,,,,,,,,,,,,,,,,,,,,,,,,,,,,,,,,,,,,,,,,,,,,,,,,,,,,,,,,,,,,,,,,,,,,,,,,,,,,,,,,,,,,,,,,,,,,,,,,,,,,,,,,,,,,,,,,,,,,,,,,,,,,,,,,,,,,,,,,
,,615a361b7fb478912573aac4,2024-02-22_05h23.27.871,kallum_motion_pilot,2023.2.2,Win32,59.88023952,615a361b7fb478912573aac4,65d6bb0e977760de756971f7,65d6bd276871e82dfed53ef1,0.0431,0.0431,0,131,131,29,1,threefour,,,,,,,,,,,,,,,,,,,,,,,,,,,,,,,,,,,,,,,,,,,,,,,,,,,,,,,,,,,,,,,,,,,,,,,,,,,,,,,,,,,,,,,,,,,,,,,,,,,,,,,,,,,,,,,,,,,,,,,,,,,,,,,,,,,,,,,,,
,,615a361b7fb478912573aac4,2024-02-22_05h23.27.871,kallum_motion_pilot,2023.2.2,Win32,59.88023952,615a361b7fb478912573aac4,65d6bb0e977760de756971f7,65d6bd276871e82dfed53ef1,0.0433,0.0433,0,132,132,136,1,fivesix,,,,,,,,,,,,,,,,,,,,,,,,,,,,,,,,,,,,,,,,,,,,,,,,,,,,,,,,,,,,,,,,,,,,,,,,,,,,,,,,,,,,,,,,,,,,,,,,,,,,,,,,,,,,,,,,,,,,,,,,,,,,,,,,,,,,,,,,,
,,615a361b7fb478912573aac4,2024-02-22_05h23.27.871,kallum_motion_pilot,2023.2.2,Win32,59.88023952,615a361b7fb478912573aac4,65d6bb0e977760de756971f7,65d6bd276871e82dfed53ef1,0.0433,0.0434,0,133,133,160,1,fivesix,,,,,,,,,,,,,,,,,,,,,,,,,,,,,,,,,,,,,,,,,,,,,,,,,,,,,,,,,,,,,,,,,,,,,,,,,,,,,,,,,,,,,,,,,,,,,,,,,,,,,,,,,,,,,,,,,,,,,,,,,,,,,,,,,,,,,,,,,
,,615a361b7fb478912573aac4,2024-02-22_05h23.27.871,kallum_motion_pilot,2023.2.2,Win32,59.88023952,615a361b7fb478912573aac4,65d6bb0e977760de756971f7,65d6bd276871e82dfed53ef1,0.0435,0.0435,0,134,134,130,1,sixfive,,,,,,,,,,,,,,,,,,,,,,,,,,,,,,,,,,,,,,,,,,,,,,,,,,,,,,,,,,,,,,,,,,,,,,,,,,,,,,,,,,,,,,,,,,,,,,,,,,,,,,,,,,,,,,,,,,,,,,,,,,,,,,,,,,,,,,,,,
,,615a361b7fb478912573aac4,2024-02-22_05h23.27.871,kallum_motion_pilot,2023.2.2,Win32,59.88023952,615a361b7fb478912573aac4,65d6bb0e977760de756971f7,65d6bd276871e82dfed53ef1,0.0436,0.0436,0,135,135,36,1,threeone,,,,,,,,,,,,,,,,,,,,,,,,,,,,,,,,,,,,,,,,,,,,,,,,,,,,,,,,,,,,,,,,,,,,,,,,,,,,,,,,,,,,,,,,,,,,,,,,,,,,,,,,,,,,,,,,,,,,,,,,,,,,,,,,,,,,,,,,,
,,615a361b7fb478912573aac4,2024-02-22_05h23.27.871,kallum_motion_pilot,2023.2.2,Win32,59.88023952,615a361b7fb478912573aac4,65d6bb0e977760de756971f7,65d6bd276871e82dfed53ef1,0.0438,0.0438,0,136,136,108,1,sevenfive,,,,,,,,,,,,,,,,,,,,,,,,,,,,,,,,,,,,,,,,,,,,,,,,,,,,,,,,,,,,,,,,,,,,,,,,,,,,,,,,,,,,,,,,,,,,,,,,,,,,,,,,,,,,,,,,,,,,,,,,,,,,,,,,,,,,,,,,,
,,615a361b7fb478912573aac4,2024-02-22_05h23.27.871,kallum_motion_pilot,2023.2.2,Win32,59.88023952,615a361b7fb478912573aac4,65d6bb0e977760de756971f7,65d6bd276871e82dfed53ef1,0.0438,0.0439,0,137,137,111,1,eightseven,,,,,,,,,,,,,,,,,,,,,,,,,,,,,,,,,,,,,,,,,,,,,,,,,,,,,,,,,,,,,,,,,,,,,,,,,,,,,,,,,,,,,,,,,,,,,,,,,,,,,,,,,,,,,,,,,,,,,,,,,,,,,,,,,,,,,,,,,
,,615a361b7fb478912573aac4,2024-02-22_05h23.27.871,kallum_motion_pilot,2023.2.2,Win32,59.88023952,615a361b7fb478912573aac4,65d6bb0e977760de756971f7,65d6bd276871e82dfed53ef1,0.044,0.044,0,138,138,7,1,fourthree,,,,,,,,,,,,,,,,,,,,,,,,,,,,,,,,,,,,,,,,,,,,,,,,,,,,,,,,,,,,,,,,,,,,,,,,,,,,,,,,,,,,,,,,,,,,,,,,,,,,,,,,,,,,,,,,,,,,,,,,,,,,,,,,,,,,,,,,,
,,615a361b7fb478912573aac4,2024-02-22_05h23.27.871,kallum_motion_pilot,2023.2.2,Win32,59.88023952,615a361b7fb478912573aac4,65d6bb0e977760de756971f7,65d6bd276871e82dfed53ef1,0.0441,0.0441,0,139,139,53,1,threefour,,,,,,,,,,,,,,,,,,,,,,,,,,,,,,,,,,,,,,,,,,,,,,,,,,,,,,,,,,,,,,,,,,,,,,,,,,,,,,,,,,,,,,,,,,,,,,,,,,,,,,,,,,,,,,,,,,,,,,,,,,,,,,,,,,,,,,,,,
,,615a361b7fb478912573aac4,2024-02-22_05h23.27.871,kallum_motion_pilot,2023.2.2,Win32,59.88023952,615a361b7fb478912573aac4,65d6bb0e977760de756971f7,65d6bd276871e82dfed53ef1,0.0442,0.0443,0,140,140,79,1,eightseven,,,,,,,,,,,,,,,,,,,,,,,,,,,,,,,,,,,,,,,,,,,,,,,,,,,,,,,,,,,,,,,,,,,,,,,,,,,,,,,,,,,,,,,,,,,,,,,,,,,,,,,,,,,,,,,,,,,,,,,,,,,,,,,,,,,,,,,,,
,,615a361b7fb478912573aac4,2024-02-22_05h23.27.871,kallum_motion_pilot,2023.2.2,Win32,59.88023952,615a361b7fb478912573aac4,65d6bb0e977760de756971f7,65d6bd276871e82dfed53ef1,0.0443,0.0444,0,141,141,51,1,twofour,,,,,,,,,,,,,,,,,,,,,,,,,,,,,,,,,,,,,,,,,,,,,,,,,,,,,,,,,,,,,,,,,,,,,,,,,,,,,,,,,,,,,,,,,,,,,,,,,,,,,,,,,,,,,,,,,,,,,,,,,,,,,,,,,,,,,,,,,
,,615a361b7fb478912573aac4,2024-02-22_05h23.27.871,kallum_motion_pilot,2023.2.2,Win32,59.88023952,615a361b7fb478912573aac4,65d6bb0e977760de756971f7,65d6bd276871e82dfed53ef1,0.0444,0.0445,0,142,142,161,1,fiveseven,,,,,,,,,,,,,,,,,,,,,,,,,,,,,,,,,,,,,,,,,,,,,,,,,,,,,,,,,,,,,,,,,,,,,,,,,,,,,,,,,,,,,,,,,,,,,,,,,,,,,,,,,,,,,,,,,,,,,,,,,,,,,,,,,,,,,,,,,
,,615a361b7fb478912573aac4,2024-02-22_05h23.27.871,kallum_motion_pilot,2023.2.2,Win32,59.88023952,615a361b7fb478912573aac4,65d6bb0e977760de756971f7,65d6bd276871e82dfed53ef1,0.0445,0.0446,0,143,143,120,1,fivesix,,,,,,,,,,,,,,,,,,,,,,,,,,,,,,,,,,,,,,,,,,,,,,,,,,,,,,,,,,,,,,,,,,,,,,,,,,,,,,,,,,,,,,,,,,,,,,,,,,,,,,,,,,,,,,,,,,,,,,,,,,,,,,,,,,,,,,,,,
,,615a361b7fb478912573aac4,2024-02-22_05h23.27.871,kallum_motion_pilot,2023.2.2,Win32,59.88023952,615a361b7fb478912573aac4,65d6bb0e977760de756971f7,65d6bd276871e82dfed53ef1,0.0447,0.0447,0,144,144,47,1,fourthree,,,,,,,,,,,,,,,,,,,,,,,,,,,,,,,,,,,,,,,,,,,,,,,,,,,,,,,,,,,,,,,,,,,,,,,,,,,,,,,,,,,,,,,,,,,,,,,,,,,,,,,,,,,,,,,,,,,,,,,,,,,,,,,,,,,,,,,,,
,,615a361b7fb478912573aac4,2024-02-22_05h23.27.871,kallum_motion_pilot,2023.2.2,Win32,59.88023952,615a361b7fb478912573aac4,65d6bb0e977760de756971f7,65d6bd276871e82dfed53ef1,0.0448,0.0448,0,145,145,123,1,sixeight,,,,,,,,,,,,,,,,,,,,,,,,,,,,,,,,,,,,,,,,,,,,,,,,,,,,,,,,,,,,,,,,,,,,,,,,,,,,,,,,,,,,,,,,,,,,,,,,,,,,,,,,,,,,,,,,,,,,,,,,,,,,,,,,,,,,,,,,,
,,615a361b7fb478912573aac4,2024-02-22_05h23.27.871,kallum_motion_pilot,2023.2.2,Win32,59.88023952,615a361b7fb478912573aac4,65d6bb0e977760de756971f7,65d6bd276871e82dfed53ef1,0.0449,0.045,0,146,146,127,1,eightseven,,,,,,,,,,,,,,,,,,,,,,,,,,,,,,,,,,,,,,,,,,,,,,,,,,,,,,,,,,,,,,,,,,,,,,,,,,,,,,,,,,,,,,,,,,,,,,,,,,,,,,,,,,,,,,,,,,,,,,,,,,,,,,,,,,,,,,,,,
,,615a361b7fb478912573aac4,2024-02-22_05h23.27.871,kallum_motion_pilot,2023.2.2,Win32,59.88023952,615a361b7fb478912573aac4,65d6bb0e977760de756971f7,65d6bd276871e82dfed53ef1,0.045,0.0451,0,147,147,64,1,onetwo,,,,,,,,,,,,,,,,,,,,,,,,,,,,,,,,,,,,,,,,,,,,,,,,,,,,,,,,,,,,,,,,,,,,,,,,,,,,,,,,,,,,,,,,,,,,,,,,,,,,,,,,,,,,,,,,,,,,,,,,,,,,,,,,,,,,,,,,,
,,615a361b7fb478912573aac4,2024-02-22_05h23.27.871,kallum_motion_pilot,2023.2.2,Win32,59.88023952,615a361b7fb478912573aac4,65d6bb0e977760de756971f7,65d6bd276871e82dfed53ef1,0.0451,0.0452,0,148,148,80,1,fivesix,,,,,,,,,,,,,,,,,,,,,,,,,,,,,,,,,,,,,,,,,,,,,,,,,,,,,,,,,,,,,,,,,,,,,,,,,,,,,,,,,,,,,,,,,,,,,,,,,,,,,,,,,,,,,,,,,,,,,,,,,,,,,,,,,,,,,,,,,
,,615a361b7fb478912573aac4,2024-02-22_05h23.27.871,kallum_motion_pilot,2023.2.2,Win32,59.88023952,615a361b7fb478912573aac4,65d6bb0e977760de756971f7,65d6bd276871e82dfed53ef1,0.0452,0.0453,0,149,149,25,1,onethree,,,,,,,,,,,,,,,,,,,,,,,,,,,,,,,,,,,,,,,,,,,,,,,,,,,,,,,,,,,,,,,,,,,,,,,,,,,,,,,,,,,,,,,,,,,,,,,,,,,,,,,,,,,,,,,,,,,,,,,,,,,,,,,,,,,,,,,,,
,,615a361b7fb478912573aac4,2024-02-22_05h23.27.871,kallum_motion_pilot,2023.2.2,Win32,59.88023952,615a361b7fb478912573aac4,65d6bb0e977760de756971f7,65d6bd276871e82dfed53ef1,0.0453,0.0455,0,150,150,65,1,onethree,,,,,,,,,,,,,,,,,,,,,,,,,,,,,,,,,,,,,,,,,,,,,,,,,,,,,,,,,,,,,,,,,,,,,,,,,,,,,,,,,,,,,,,,,,,,,,,,,,,,,,,,,,,,,,,,,,,,,,,,,,,,,,,,,,,,,,,,,
,,615a361b7fb478912573aac4,2024-02-22_05h23.27.871,kallum_motion_pilot,2023.2.2,Win32,59.88023952,615a361b7fb478912573aac4,65d6bb0e977760de756971f7,65d6bd276871e82dfed53ef1,0.0455,0.0455,0,151,151,21,1,threefour,,,,,,,,,,,,,,,,,,,,,,,,,,,,,,,,,,,,,,,,,,,,,,,,,,,,,,,,,,,,,,,,,,,,,,,,,,,,,,,,,,,,,,,,,,,,,,,,,,,,,,,,,,,,,,,,,,,,,,,,,,,,,,,,,,,,,,,,,
,,615a361b7fb478912573aac4,2024-02-22_05h23.27.871,kallum_motion_pilot,2023.2.2,Win32,59.88023952,615a361b7fb478912573aac4,65d6bb0e977760de756971f7,65d6bd276871e82dfed53ef1,0.0456,0.0457,0,152,152,113,1,fiveseven,,,,,,,,,,,,,,,,,,,,,,,,,,,,,,,,,,,,,,,,,,,,,,,,,,,,,,,,,,,,,,,,,,,,,,,,,,,,,,,,,,,,,,,,,,,,,,,,,,,,,,,,,,,,,,,,,,,,,,,,,,,,,,,,,,,,,,,,,
,,615a361b7fb478912573aac4,2024-02-22_05h23.27.871,kallum_motion_pilot,2023.2.2,Win32,59.88023952,615a361b7fb478912573aac4,65d6bb0e977760de756971f7,65d6bd276871e82dfed53ef1,0.0462,0.0462,0,153,153,139,1,sixeight,,,,,,,,,,,,,,,,,,,,,,,,,,,,,,,,,,,,,,,,,,,,,,,,,,,,,,,,,,,,,,,,,,,,,,,,,,,,,,,,,,,,,,,,,,,,,,,,,,,,,,,,,,,,,,,,,,,,,,,,,,,,,,,,,,,,,,,,,
,,615a361b7fb478912573aac4,2024-02-22_05h23.27.871,kallum_motion_pilot,2023.2.2,Win32,59.88023952,615a361b7fb478912573aac4,65d6bb0e977760de756971f7,65d6bd276871e82dfed53ef1,0.0463,0.0463,0,154,154,110,1,eightsix,,,,,,,,,,,,,,,,,,,,,,,,,,,,,,,,,,,,,,,,,,,,,,,,,,,,,,,,,,,,,,,,,,,,,,,,,,,,,,,,,,,,,,,,,,,,,,,,,,,,,,,,,,,,,,,,,,,,,,,,,,,,,,,,,,,,,,,,,
,,615a361b7fb478912573aac4,2024-02-22_05h23.27.871,kallum_motion_pilot,2023.2.2,Win32,59.88023952,615a361b7fb478912573aac4,65d6bb0e977760de756971f7,65d6bd276871e82dfed53ef1,0.0465,0.0465,0,155,155,32,1,onetwo,,,,,,,,,,,,,,,,,,,,,,,,,,,,,,,,,,,,,,,,,,,,,,,,,,,,,,,,,,,,,,,,,,,,,,,,,,,,,,,,,,,,,,,,,,,,,,,,,,,,,,,,,,,,,,,,,,,,,,,,,,,,,,,,,,,,,,,,,
,,615a361b7fb478912573aac4,2024-02-22_05h23.27.871,kallum_motion_pilot,2023.2.2,Win32,59.88023952,615a361b7fb478912573aac4,65d6bb0e977760de756971f7,65d6bd276871e82dfed53ef1,0.0466,0.0466,0,156,156,67,1,twofour,,,,,,,,,,,,,,,,,,,,,,,,,,,,,,,,,,,,,,,,,,,,,,,,,,,,,,,,,,,,,,,,,,,,,,,,,,,,,,,,,,,,,,,,,,,,,,,,,,,,,,,,,,,,,,,,,,,,,,,,,,,,,,,,,,,,,,,,,
,,615a361b7fb478912573aac4,2024-02-22_05h23.27.871,kallum_motion_pilot,2023.2.2,Win32,59.88023952,615a361b7fb478912573aac4,65d6bb0e977760de756971f7,65d6bd276871e82dfed53ef1,0.0467,0.0468,0,157,157,60,1,threeone,,,,,,,,,,,,,,,,,,,,,,,,,,,,,,,,,,,,,,,,,,,,,,,,,,,,,,,,,,,,,,,,,,,,,,,,,,,,,,,,,,,,,,,,,,,,,,,,,,,,,,,,,,,,,,,,,,,,,,,,,,,,,,,,,,,,,,,,,
,,615a361b7fb478912573aac4,2024-02-22_05h23.27.871,kallum_motion_pilot,2023.2.2,Win32,59.88023952,615a361b7fb478912573aac4,65d6bb0e977760de756971f7,65d6bd276871e82dfed53ef1,0.0468,0.0469,0,158,158,90,1,sixfive,,,,,,,,,,,,,,,,,,,,,,,,,,,,,,,,,,,,,,,,,,,,,,,,,,,,,,,,,,,,,,,,,,,,,,,,,,,,,,,,,,,,,,,,,,,,,,,,,,,,,,,,,,,,,,,,,,,,,,,,,,,,,,,,,,,,,,,,,
,,615a361b7fb478912573aac4,2024-02-22_05h23.27.871,kallum_motion_pilot,2023.2.2,Win32,59.88023952,615a361b7fb478912573aac4,65d6bb0e977760de756971f7,65d6bd276871e82dfed53ef1,0.0469,0.047,0,159,159,112,1,fivesix,,,,,,,,,,,,,,,,,,,,,,,,,,,,,,,,,,,,,,,,,,,,,,,,,,,,,,,,,,,,,,,,,,,,,,,,,,,,,,,,,,,,,,,,,,,,,,,,,,,,,,,,,,,,,,,,,,,,,,,,,,,,,,,,,,,,,,,,,
,,615a361b7fb478912573aac4,2024-02-22_05h23.27.871,kallum_motion_pilot,2023.2.2,Win32,59.88023952,615a361b7fb478912573aac4,65d6bb0e977760de756971f7,65d6bd276871e82dfed53ef1,0.047,0.0471,0,160,160,121,1,fiveseven,,,,,,,,,,,,,,,,,,,,,,,,,,,,,,,,,,,,,,,,,,,,,,,,,,,,,,,,,,,,,,,,,,,,,,,,,,,,,,,,,,,,,,,,,,,,,,,,,,,,,,,,,,,,,,,,,,,,,,,,,,,,,,,,,,,,,,,,,
,,615a361b7fb478912573aac4,2024-02-22_05h23.27.871,kallum_motion_pilot,2023.2.2,Win32,59.88023952,615a361b7fb478912573aac4,65d6bb0e977760de756971f7,65d6bd276871e82dfed53ef1,0.0472,0.0473,0,161,161,153,1,fiveseven,,,,,,,,,,,,,,,,,,,,,,,,,,,,,,,,,,,,,,,,,,,,,,,,,,,,,,,,,,,,,,,,,,,,,,,,,,,,,,,,,,,,,,,,,,,,,,,,,,,,,,,,,,,,,,,,,,,,,,,,,,,,,,,,,,,,,,,,,
,,615a361b7fb478912573aac4,2024-02-22_05h23.27.871,kallum_motion_pilot,2023.2.2,Win32,59.88023952,615a361b7fb478912573aac4,65d6bb0e977760de756971f7,65d6bd276871e82dfed53ef1,0.0473,0.0474,1,0,162,48,1,onetwo,,,,,,,,,,,,,,,,,,,,,,,,,,,,,,,,,,,,,,,,,,,,,,,,,,,,,,,,,,,,,,,,,,,,,,,,,,,,,,,,,,,,,,,,,,,,,,,,,,,,,,,,,,,,,,,,,,,,,,,,,,,,,,,,,,,,,,,,,
,,615a361b7fb478912573aac4,2024-02-22_05h23.27.871,kallum_motion_pilot,2023.2.2,Win32,59.88023952,615a361b7fb478912573aac4,65d6bb0e977760de756971f7,65d6bd276871e82dfed53ef1,0.0474,0.0475,1,1,163,145,1,fiveseven,,,,,,,,,,,,,,,,,,,,,,,,,,,,,,,,,,,,,,,,,,,,,,,,,,,,,,,,,,,,,,,,,,,,,,,,,,,,,,,,,,,,,,,,,,,,,,,,,,,,,,,,,,,,,,,,,,,,,,,,,,,,,,,,,,,,,,,,,
,,615a361b7fb478912573aac4,2024-02-22_05h23.27.871,kallum_motion_pilot,2023.2.2,Win32,59.88023952,615a361b7fb478912573aac4,65d6bb0e977760de756971f7,65d6bd276871e82dfed53ef1,0.0476,0.0476,1,2,164,42,1,twoone,,,,,,,,,,,,,,,,,,,,,,,,,,,,,,,,,,,,,,,,,,,,,,,,,,,,,,,,,,,,,,,,,,,,,,,,,,,,,,,,,,,,,,,,,,,,,,,,,,,,,,,,,,,,,,,,,,,,,,,,,,,,,,,,,,,,,,,,,
,,615a361b7fb478912573aac4,2024-02-22_05h23.27.871,kallum_motion_pilot,2023.2.2,Win32,59.88023952,615a361b7fb478912573aac4,65d6bb0e977760de756971f7,65d6bd276871e82dfed53ef1,0.0477,0.0477,1,3,165,152,1,fivesix,,,,,,,,,,,,,,,,,,,,,,,,,,,,,,,,,,,,,,,,,,,,,,,,,,,,,,,,,,,,,,,,,,,,,,,,,,,,,,,,,,,,,,,,,,,,,,,,,,,,,,,,,,,,,,,,,,,,,,,,,,,,,,,,,,,,,,,,,
,,615a361b7fb478912573aac4,2024-02-22_05h23.27.871,kallum_motion_pilot,2023.2.2,Win32,59.88023952,615a361b7fb478912573aac4,65d6bb0e977760de756971f7,65d6bd276871e82dfed53ef1,0.0478,0.0478,1,4,166,133,1,seveneight,,,,,,,,,,,,,,,,,,,,,,,,,,,,,,,,,,,,,,,,,,,,,,,,,,,,,,,,,,,,,,,,,,,,,,,,,,,,,,,,,,,,,,,,,,,,,,,,,,,,,,,,,,,,,,,,,,,,,,,,,,,,,,,,,,,,,,,,,
,,615a361b7fb478912573aac4,2024-02-22_05h23.27.871,kallum_motion_pilot,2023.2.2,Win32,59.88023952,615a361b7fb478912573aac4,65d6bb0e977760de756971f7,65d6bd276871e82dfed53ef1,0.048,0.048,1,5,167,97,1,fiveseven,,,,,,,,,,,,,,,,,,,,,,,,,,,,,,,,,,,,,,,,,,,,,,,,,,,,,,,,,,,,,,,,,,,,,,,,,,,,,,,,,,,,,,,,,,,,,,,,,,,,,,,,,,,,,,,,,,,,,,,,,,,,,,,,,,,,,,,,,
,,615a361b7fb478912573aac4,2024-02-22_05h23.27.871,kallum_motion_pilot,2023.2.2,Win32,59.88023952,615a361b7fb478912573aac4,65d6bb0e977760de756971f7,65d6bd276871e82dfed53ef1,0.0481,0.0481,1,6,168,88,1,fivesix,,,,,,,,,,,,,,,,,,,,,,,,,,,,,,,,,,,,,,,,,,,,,,,,,,,,,,,,,,,,,,,,,,,,,,,,,,,,,,,,,,,,,,,,,,,,,,,,,,,,,,,,,,,,,,,,,,,,,,,,,,,,,,,,,,,,,,,,,
,,615a361b7fb478912573aac4,2024-02-22_05h23.27.871,kallum_motion_pilot,2023.2.2,Win32,59.88023952,615a361b7fb478912573aac4,65d6bb0e977760de756971f7,65d6bd276871e82dfed53ef1,0.0482,0.0482,1,7,169,109,1,seveneight,,,,,,,,,,,,,,,,,,,,,,,,,,,,,,,,,,,,,,,,,,,,,,,,,,,,,,,,,,,,,,,,,,,,,,,,,,,,,,,,,,,,,,,,,,,,,,,,,,,,,,,,,,,,,,,,,,,,,,,,,,,,,,,,,,,,,,,,,
,,615a361b7fb478912573aac4,2024-02-22_05h23.27.871,kallum_motion_pilot,2023.2.2,Win32,59.88023952,615a361b7fb478912573aac4,65d6bb0e977760de756971f7,65d6bd276871e82dfed53ef1,0.0483,0.0484,1,8,170,70,1,fourtwo,,,,,,,,,,,,,,,,,,,,,,,,,,,,,,,,,,,,,,,,,,,,,,,,,,,,,,,,,,,,,,,,,,,,,,,,,,,,,,,,,,,,,,,,,,,,,,,,,,,,,,,,,,,,,,,,,,,,,,,,,,,,,,,,,,,,,,,,,
,,615a361b7fb478912573aac4,2024-02-22_05h23.27.871,kallum_motion_pilot,2023.2.2,Win32,59.88023952,615a361b7fb478912573aac4,65d6bb0e977760de756971f7,65d6bd276871e82dfed53ef1,0.0484,0.0485,1,9,171,137,1,fiveseven,,,,,,,,,,,,,,,,,,,,,,,,,,,,,,,,,,,,,,,,,,,,,,,,,,,,,,,,,,,,,,,,,,,,,,,,,,,,,,,,,,,,,,,,,,,,,,,,,,,,,,,,,,,,,,,,,,,,,,,,,,,,,,,,,,,,,,,,,
,,615a361b7fb478912573aac4,2024-02-22_05h23.27.871,kallum_motion_pilot,2023.2.2,Win32,59.88023952,615a361b7fb478912573aac4,65d6bb0e977760de756971f7,65d6bd276871e82dfed53ef1,0.0486,0.0486,1,10,172,11,1,twofour,,,,,,,,,,,,,,,,,,,,,,,,,,,,,,,,,,,,,,,,,,,,,,,,,,,,,,,,,,,,,,,,,,,,,,,,,,,,,,,,,,,,,,,,,,,,,,,,,,,,,,,,,,,,,,,,,,,,,,,,,,,,,,,,,,,,,,,,,
,,615a361b7fb478912573aac4,2024-02-22_05h23.27.871,kallum_motion_pilot,2023.2.2,Win32,59.88023952,615a361b7fb478912573aac4,65d6bb0e977760de756971f7,65d6bd276871e82dfed53ef1,0.0487,0.0488,1,11,173,155,1,sixeight,,,,,,,,,,,,,,,,,,,,,,,,,,,,,,,,,,,,,,,,,,,,,,,,,,,,,,,,,,,,,,,,,,,,,,,,,,,,,,,,,,,,,,,,,,,,,,,,,,,,,,,,,,,,,,,,,,,,,,,,,,,,,,,,,,,,,,,,,
,,615a361b7fb478912573aac4,2024-02-22_05h23.27.871,kallum_motion_pilot,2023.2.2,Win32,59.88023952,615a361b7fb478912573aac4,65d6bb0e977760de756971f7,65d6bd276871e82dfed53ef1,0.0488,0.0489,1,12,174,124,1,sevenfive,,,,,,,,,,,,,,,,,,,,,,,,,,,,,,,,,,,,,,,,,,,,,,,,,,,,,,,,,,,,,,,,,,,,,,,,,,,,,,,,,,,,,,,,,,,,,,,,,,,,,,,,,,,,,,,,,,,,,,,,,,,,,,,,,,,,,,,,,
,,615a361b7fb478912573aac4,2024-02-22_05h23.27.871,kallum_motion_pilot,2023.2.2,Win32,59.88023952,615a361b7fb478912573aac4,65d6bb0e977760de756971f7,65d6bd276871e82dfed53ef1,0.0489,0.049,1,13,175,119,1,eightseven,,,,,,,,,,,,,,,,,,,,,,,,,,,,,,,,,,,,,,,,,,,,,,,,,,,,,,,,,,,,,,,,,,,,,,,,,,,,,,,,,,,,,,,,,,,,,,,,,,,,,,,,,,,,,,,,,,,,,,,,,,,,,,,,,,,,,,,,,
,,615a361b7fb478912573aac4,2024-02-22_05h23.27.871,kallum_motion_pilot,2023.2.2,Win32,59.88023952,615a361b7fb478912573aac4,65d6bb0e977760de756971f7,65d6bd276871e82dfed53ef1,0.0491,0.0492,1,14,176,115,1,sixeight,,,,,,,,,,,,,,,,,,,,,,,,,,,,,,,,,,,,,,,,,,,,,,,,,,,,,,,,,,,,,,,,,,,,,,,,,,,,,,,,,,,,,,,,,,,,,,,,,,,,,,,,,,,,,,,,,,,,,,,,,,,,,,,,,,,,,,,,,
,,615a361b7fb478912573aac4,2024-02-22_05h23.27.871,kallum_motion_pilot,2023.2.2,Win32,59.88023952,615a361b7fb478912573aac4,65d6bb0e977760de756971f7,65d6bd276871e82dfed53ef1,0.0492,0.0493,1,15,177,131,1,sixeight,,,,,,,,,,,,,,,,,,,,,,,,,,,,,,,,,,,,,,,,,,,,,,,,,,,,,,,,,,,,,,,,,,,,,,,,,,,,,,,,,,,,,,,,,,,,,,,,,,,,,,,,,,,,,,,,,,,,,,,,,,,,,,,,,,,,,,,,,
,,615a361b7fb478912573aac4,2024-02-22_05h23.27.871,kallum_motion_pilot,2023.2.2,Win32,59.88023952,615a361b7fb478912573aac4,65d6bb0e977760de756971f7,65d6bd276871e82dfed53ef1,0.0494,0.0494,1,16,178,3,1,twofour,,,,,,,,,,,,,,,,,,,,,,,,,,,,,,,,,,,,,,,,,,,,,,,,,,,,,,,,,,,,,,,,,,,,,,,,,,,,,,,,,,,,,,,,,,,,,,,,,,,,,,,,,,,,,,,,,,,,,,,,,,,,,,,,,,,,,,,,,
,,615a361b7fb478912573aac4,2024-02-22_05h23.27.871,kallum_motion_pilot,2023.2.2,Win32,59.88023952,615a361b7fb478912573aac4,65d6bb0e977760de756971f7,65d6bd276871e82dfed53ef1,0.0495,0.0495,1,17,179,76,1,threeone,,,,,,,,,,,,,,,,,,,,,,,,,,,,,,,,,,,,,,,,,,,,,,,,,,,,,,,,,,,,,,,,,,,,,,,,,,,,,,,,,,,,,,,,,,,,,,,,,,,,,,,,,,,,,,,,,,,,,,,,,,,,,,,,,,,,,,,,,
,,615a361b7fb478912573aac4,2024-02-22_05h23.27.871,kallum_motion_pilot,2023.2.2,Win32,59.88023952,615a361b7fb478912573aac4,65d6bb0e977760de756971f7,65d6bd276871e82dfed53ef1,0.0496,0.0497,1,18,180,110,1,eightsix,,,,,,,,,,,,,,,,,,,,,,,,,,,,,,,,,,,,,,,,,,,,,,,,,,,,,,,,,,,,,,,,,,,,,,,,,,,,,,,,,,,,,,,,,,,,,,,,,,,,,,,,,,,,,,,,,,,,,,,,,,,,,,,,,,,,,,,,,
,,615a361b7fb478912573aac4,2024-02-22_05h23.27.871,kallum_motion_pilot,2023.2.2,Win32,59.88023952,615a361b7fb478912573aac4,65d6bb0e977760de756971f7,65d6bd276871e82dfed53ef1,0.0497,0.0497,1,19,181,28,1,threeone,,,,,,,,,,,,,,,,,,,,,,,,,,,,,,,,,,,,,,,,,,,,,,,,,,,,,,,,,,,,,,,,,,,,,,,,,,,,,,,,,,,,,,,,,,,,,,,,,,,,,,,,,,,,,,,,,,,,,,,,,,,,,,,,,,,,,,,,,
,,615a361b7fb478912573aac4,2024-02-22_05h23.27.871,kallum_motion_pilot,2023.2.2,Win32,59.88023952,615a361b7fb478912573aac4,65d6bb0e977760de756971f7,65d6bd276871e82dfed53ef1,0.0498,0.0499,1,20,182,50,1,twoone,,,,,,,,,,,,,,,,,,,,,,,,,,,,,,,,,,,,,,,,,,,,,,,,,,,,,,,,,,,,,,,,,,,,,,,,,,,,,,,,,,,,,,,,,,,,,,,,,,,,,,,,,,,,,,,,,,,,,,,,,,,,,,,,,,,,,,,,,
,,615a361b7fb478912573aac4,2024-02-22_05h23.27.871,kallum_motion_pilot,2023.2.2,Win32,59.88023952,615a361b7fb478912573aac4,65d6bb0e977760de756971f7,65d6bd276871e82dfed53ef1,0.05,0.05,1,21,183,78,1,fourtwo,,,,,,,,,,,,,,,,,,,,,,,,,,,,,,,,,,,,,,,,,,,,,,,,,,,,,,,,,,,,,,,,,,,,,,,,,,,,,,,,,,,,,,,,,,,,,,,,,,,,,,,,,,,,,,,,,,,,,,,,,,,,,,,,,,,,,,,,,
,,615a361b7fb478912573aac4,2024-02-22_05h23.27.871,kallum_motion_pilot,2023.2.2,Win32,59.88023952,615a361b7fb478912573aac4,65d6bb0e977760de756971f7,65d6bd276871e82dfed53ef1,0.0501,0.0502,1,22,184,116,1,sevenfive,,,,,,,,,,,,,,,,,,,,,,,,,,,,,,,,,,,,,,,,,,,,,,,,,,,,,,,,,,,,,,,,,,,,,,,,,,,,,,,,,,,,,,,,,,,,,,,,,,,,,,,,,,,,,,,,,,,,,,,,,,,,,,,,,,,,,,,,,
,,615a361b7fb478912573aac4,2024-02-22_05h23.27.871,kallum_motion_pilot,2023.2.2,Win32,59.88023952,615a361b7fb478912573aac4,65d6bb0e977760de756971f7,65d6bd276871e82dfed53ef1,0.0502,0.0503,1,23,185,75,1,twofour,,,,,,,,,,,,,,,,,,,,,,,,,,,,,,,,,,,,,,,,,,,,,,,,,,,,,,,,,,,,,,,,,,,,,,,,,,,,,,,,,,,,,,,,,,,,,,,,,,,,,,,,,,,,,,,,,,,,,,,,,,,,,,,,,,,,,,,,,
,,615a361b7fb478912573aac4,2024-02-22_05h23.27.871,kallum_motion_pilot,2023.2.2,Win32,59.88023952,615a361b7fb478912573aac4,65d6bb0e977760de756971f7,65d6bd276871e82dfed53ef1,0.0504,0.0505,1,24,186,160,1,fivesix,,,,,,,,,,,,,,,,,,,,,,,,,,,,,,,,,,,,,,,,,,,,,,,,,,,,,,,,,,,,,,,,,,,,,,,,,,,,,,,,,,,,,,,,,,,,,,,,,,,,,,,,,,,,,,,,,,,,,,,,,,,,,,,,,,,,,,,,,
,,615a361b7fb478912573aac4,2024-02-22_05h23.27.871,kallum_motion_pilot,2023.2.2,Win32,59.88023952,615a361b7fb478912573aac4,65d6bb0e977760de756971f7,65d6bd276871e82dfed53ef1,0.0506,0.0507,1,25,187,6,1,fourtwo,,,,,,,,,,,,,,,,,,,,,,,,,,,,,,,,,,,,,,,,,,,,,,,,,,,,,,,,,,,,,,,,,,,,,,,,,,,,,,,,,,,,,,,,,,,,,,,,,,,,,,,,,,,,,,,,,,,,,,,,,,,,,,,,,,,,,,,,,
,,615a361b7fb478912573aac4,2024-02-22_05h23.27.871,kallum_motion_pilot,2023.2.2,Win32,59.88023952,615a361b7fb478912573aac4,65d6bb0e977760de756971f7,65d6bd276871e82dfed53ef1,0.0507,0.0508,1,26,188,102,1,eightsix,,,,,,,,,,,,,,,,,,,,,,,,,,,,,,,,,,,,,,,,,,,,,,,,,,,,,,,,,,,,,,,,,,,,,,,,,,,,,,,,,,,,,,,,,,,,,,,,,,,,,,,,,,,,,,,,,,,,,,,,,,,,,,,,,,,,,,,,,
,,615a361b7fb478912573aac4,2024-02-22_05h23.27.871,kallum_motion_pilot,2023.2.2,Win32,59.88023952,615a361b7fb478912573aac4,65d6bb0e977760de756971f7,65d6bd276871e82dfed53ef1,0.0508,0.051,1,27,189,104,1,fivesix,,,,,,,,,,,,,,,,,,,,,,,,,,,,,,,,,,,,,,,,,,,,,,,,,,,,,,,,,,,,,,,,,,,,,,,,,,,,,,,,,,,,,,,,,,,,,,,,,,,,,,,,,,,,,,,,,,,,,,,,,,,,,,,,,,,,,,,,,
,,615a361b7fb478912573aac4,2024-02-22_05h23.27.871,kallum_motion_pilot,2023.2.2,Win32,59.88023952,615a361b7fb478912573aac4,65d6bb0e977760de756971f7,65d6bd276871e82dfed53ef1,0.051,0.0511,1,28,190,4,1,threeone,,,,,,,,,,,,,,,,,,,,,,,,,,,,,,,,,,,,,,,,,,,,,,,,,,,,,,,,,,,,,,,,,,,,,,,,,,,,,,,,,,,,,,,,,,,,,,,,,,,,,,,,,,,,,,,,,,,,,,,,,,,,,,,,,,,,,,,,,
,,615a361b7fb478912573aac4,2024-02-22_05h23.27.871,kallum_motion_pilot,2023.2.2,Win32,59.88023952,615a361b7fb478912573aac4,65d6bb0e977760de756971f7,65d6bd276871e82dfed53ef1,0.0511,0.0512,1,29,191,2,1,twoone,,,,,,,,,,,,,,,,,,,,,,,,,,,,,,,,,,,,,,,,,,,,,,,,,,,,,,,,,,,,,,,,,,,,,,,,,,,,,,,,,,,,,,,,,,,,,,,,,,,,,,,,,,,,,,,,,,,,,,,,,,,,,,,,,,,,,,,,,
,,615a361b7fb478912573aac4,2024-02-22_05h23.27.871,kallum_motion_pilot,2023.2.2,Win32,59.88023952,615a361b7fb478912573aac4,65d6bb0e977760de756971f7,65d6bd276871e82dfed53ef1,0.0514,0.0514,1,30,192,129,1,fiveseven,,,,,,,,,,,,,,,,,,,,,,,,,,,,,,,,,,,,,,,,,,,,,,,,,,,,,,,,,,,,,,,,,,,,,,,,,,,,,,,,,,,,,,,,,,,,,,,,,,,,,,,,,,,,,,,,,,,,,,,,,,,,,,,,,,,,,,,,,
,,615a361b7fb478912573aac4,2024-02-22_05h23.27.871,kallum_motion_pilot,2023.2.2,Win32,59.88023952,615a361b7fb478912573aac4,65d6bb0e977760de756971f7,65d6bd276871e82dfed53ef1,0.0515,0.0515,1,31,193,25,1,onethree,,,,,,,,,,,,,,,,,,,,,,,,,,,,,,,,,,,,,,,,,,,,,,,,,,,,,,,,,,,,,,,,,,,,,,,,,,,,,,,,,,,,,,,,,,,,,,,,,,,,,,,,,,,,,,,,,,,,,,,,,,,,,,,,,,,,,,,,,
,,615a361b7fb478912573aac4,2024-02-22_05h23.27.871,kallum_motion_pilot,2023.2.2,Win32,59.88023952,615a361b7fb478912573aac4,65d6bb0e977760de756971f7,65d6bd276871e82dfed53ef1,0.0517,0.0517,1,32,194,96,1,fivesix,,,,,,,,,,,,,,,,,,,,,,,,,,,,,,,,,,,,,,,,,,,,,,,,,,,,,,,,,,,,,,,,,,,,,,,,,,,,,,,,,,,,,,,,,,,,,,,,,,,,,,,,,,,,,,,,,,,,,,,,,,,,,,,,,,,,,,,,,
,,615a361b7fb478912573aac4,2024-02-22_05h23.27.871,kallum_motion_pilot,2023.2.2,Win32,59.88023952,615a361b7fb478912573aac4,65d6bb0e977760de756971f7,65d6bd276871e82dfed53ef1,0.0519,0.052,1,33,195,122,1,sixfive,,,,,,,,,,,,,,,,,,,,,,,,,,,,,,,,,,,,,,,,,,,,,,,,,,,,,,,,,,,,,,,,,,,,,,,,,,,,,,,,,,,,,,,,,,,,,,,,,,,,,,,,,,,,,,,,,,,,,,,,,,,,,,,,,,,,,,,,,
,,615a361b7fb478912573aac4,2024-02-22_05h23.27.871,kallum_motion_pilot,2023.2.2,Win32,59.88023952,615a361b7fb478912573aac4,65d6bb0e977760de756971f7,65d6bd276871e82dfed53ef1,0.0521,0.0522,1,34,196,19,1,twofour,,,,,,,,,,,,,,,,,,,,,,,,,,,,,,,,,,,,,,,,,,,,,,,,,,,,,,,,,,,,,,,,,,,,,,,,,,,,,,,,,,,,,,,,,,,,,,,,,,,,,,,,,,,,,,,,,,,,,,,,,,,,,,,,,,,,,,,,,
,,615a361b7fb478912573aac4,2024-02-22_05h23.27.871,kallum_motion_pilot,2023.2.2,Win32,59.88023952,615a361b7fb478912573aac4,65d6bb0e977760de756971f7,65d6bd276871e82dfed53ef1,0.0523,0.0523,1,35,197,140,1,sevenfive,,,,,,,,,,,,,,,,,,,,,,,,,,,,,,,,,,,,,,,,,,,,,,,,,,,,,,,,,,,,,,,,,,,,,,,,,,,,,,,,,,,,,,,,,,,,,,,,,,,,,,,,,,,,,,,,,,,,,,,,,,,,,,,,,,,,,,,,,
,,615a361b7fb478912573aac4,2024-02-22_05h23.27.871,kallum_motion_pilot,2023.2.2,Win32,59.88023952,615a361b7fb478912573aac4,65d6bb0e977760de756971f7,65d6bd276871e82dfed53ef1,0.0524,0.0525,1,36,198,45,1,threefour,,,,,,,,,,,,,,,,,,,,,,,,,,,,,,,,,,,,,,,,,,,,,,,,,,,,,,,,,,,,,,,,,,,,,,,,,,,,,,,,,,,,,,,,,,,,,,,,,,,,,,,,,,,,,,,,,,,,,,,,,,,,,,,,,,,,,,,,,
,,615a361b7fb478912573aac4,2024-02-22_05h23.27.871,kallum_motion_pilot,2023.2.2,Win32,59.88023952,615a361b7fb478912573aac4,65d6bb0e977760de756971f7,65d6bd276871e82dfed53ef1,0.0526,0.0526,1,37,199,65,1,onethree,,,,,,,,,,,,,,,,,,,,,,,,,,,,,,,,,,,,,,,,,,,,,,,,,,,,,,,,,,,,,,,,,,,,,,,,,,,,,,,,,,,,,,,,,,,,,,,,,,,,,,,,,,,,,,,,,,,,,,,,,,,,,,,,,,,,,,,,,
,,615a361b7fb478912573aac4,2024-02-22_05h23.27.871,kallum_motion_pilot,2023.2.2,Win32,59.88023952,615a361b7fb478912573aac4,65d6bb0e977760de756971f7,65d6bd276871e82dfed53ef1,0.0527,0.0528,1,38,200,34,1,twoone,,,,,,,,,,,,,,,,,,,,,,,,,,,,,,,,,,,,,,,,,,,,,,,,,,,,,,,,,,,,,,,,,,,,,,,,,,,,,,,,,,,,,,,,,,,,,,,,,,,,,,,,,,,,,,,,,,,,,,,,,,,,,,,,,,,,,,,,,
,,615a361b7fb478912573aac4,2024-02-22_05h23.27.871,kallum_motion_pilot,2023.2.2,Win32,59.88023952,615a361b7fb478912573aac4,65d6bb0e977760de756971f7,65d6bd276871e82dfed53ef1,0.0528,0.0529,1,39,201,18,1,twoone,,,,,,,,,,,,,,,,,,,,,,,,,,,,,,,,,,,,,,,,,,,,,,,,,,,,,,,,,,,,,,,,,,,,,,,,,,,,,,,,,,,,,,,,,,,,,,,,,,,,,,,,,,,,,,,,,,,,,,,,,,,,,,,,,,,,,,,,,
,,615a361b7fb478912573aac4,2024-02-22_05h23.27.871,kallum_motion_pilot,2023.2.2,Win32,59.88023952,615a361b7fb478912573aac4,65d6bb0e977760de756971f7,65d6bd276871e82dfed53ef1,0.053,0.0531,1,40,202,114,1,sixfive,,,,,,,,,,,,,,,,,,,,,,,,,,,,,,,,,,,,,,,,,,,,,,,,,,,,,,,,,,,,,,,,,,,,,,,,,,,,,,,,,,,,,,,,,,,,,,,,,,,,,,,,,,,,,,,,,,,,,,,,,,,,,,,,,,,,,,,,,
,,615a361b7fb478912573aac4,2024-02-22_05h23.27.871,kallum_motion_pilot,2023.2.2,Win32,59.88023952,615a361b7fb478912573aac4,65d6bb0e977760de756971f7,65d6bd276871e82dfed53ef1,0.0531,0.0533,1,41,203,30,1,fourtwo,,,,,,,,,,,,,,,,,,,,,,,,,,,,,,,,,,,,,,,,,,,,,,,,,,,,,,,,,,,,,,,,,,,,,,,,,,,,,,,,,,,,,,,,,,,,,,,,,,,,,,,,,,,,,,,,,,,,,,,,,,,,,,,,,,,,,,,,,
,,615a361b7fb478912573aac4,2024-02-22_05h23.27.871,kallum_motion_pilot,2023.2.2,Win32,59.88023952,615a361b7fb478912573aac4,65d6bb0e977760de756971f7,65d6bd276871e82dfed53ef1,0.0533,0.0534,1,42,204,101,1,seveneight,,,,,,,,,,,,,,,,,,,,,,,,,,,,,,,,,,,,,,,,,,,,,,,,,,,,,,,,,,,,,,,,,,,,,,,,,,,,,,,,,,,,,,,,,,,,,,,,,,,,,,,,,,,,,,,,,,,,,,,,,,,,,,,,,,,,,,,,,
,,615a361b7fb478912573aac4,2024-02-22_05h23.27.871,kallum_motion_pilot,2023.2.2,Win32,59.88023952,615a361b7fb478912573aac4,65d6bb0e977760de756971f7,65d6bd276871e82dfed53ef1,0.0535,0.0535,1,43,205,74,1,twoone,,,,,,,,,,,,,,,,,,,,,,,,,,,,,,,,,,,,,,,,,,,,,,,,,,,,,,,,,,,,,,,,,,,,,,,,,,,,,,,,,,,,,,,,,,,,,,,,,,,,,,,,,,,,,,,,,,,,,,,,,,,,,,,,,,,,,,,,,
,,615a361b7fb478912573aac4,2024-02-22_05h23.27.871,kallum_motion_pilot,2023.2.2,Win32,59.88023952,615a361b7fb478912573aac4,65d6bb0e977760de756971f7,65d6bd276871e82dfed53ef1,0.0536,0.0536,1,44,206,64,1,onetwo,,,,,,,,,,,,,,,,,,,,,,,,,,,,,,,,,,,,,,,,,,,,,,,,,,,,,,,,,,,,,,,,,,,,,,,,,,,,,,,,,,,,,,,,,,,,,,,,,,,,,,,,,,,,,,,,,,,,,,,,,,,,,,,,,,,,,,,,,
,,615a361b7fb478912573aac4,2024-02-22_05h23.27.871,kallum_motion_pilot,2023.2.2,Win32,59.88023952,615a361b7fb478912573aac4,65d6bb0e977760de756971f7,65d6bd276871e82dfed53ef1,0.0537,0.0538,1,45,207,130,1,sixfive,,,,,,,,,,,,,,,,,,,,,,,,,,,,,,,,,,,,,,,,,,,,,,,,,,,,,,,,,,,,,,,,,,,,,,,,,,,,,,,,,,,,,,,,,,,,,,,,,,,,,,,,,,,,,,,,,,,,,,,,,,,,,,,,,,,,,,,,,
,,615a361b7fb478912573aac4,2024-02-22_05h23.27.871,kallum_motion_pilot,2023.2.2,Win32,59.88023952,615a361b7fb478912573aac4,65d6bb0e977760de756971f7,65d6bd276871e82dfed53ef1,0.0538,0.0539,1,46,208,94,1,eightsix,,,,,,,,,,,,,,,,,,,,,,,,,,,,,,,,,,,,,,,,,,,,,,,,,,,,,,,,,,,,,,,,,,,,,,,,,,,,,,,,,,,,,,,,,,,,,,,,,,,,,,,,,,,,,,,,,,,,,,,,,,,,,,,,,,,,,,,,,
,,615a361b7fb478912573aac4,2024-02-22_05h23.27.871,kallum_motion_pilot,2023.2.2,Win32,59.88023952,615a361b7fb478912573aac4,65d6bb0e977760de756971f7,65d6bd276871e82dfed53ef1,0.054,0.0541,1,47,209,15,1,fourthree,,,,,,,,,,,,,,,,,,,,,,,,,,,,,,,,,,,,,,,,,,,,,,,,,,,,,,,,,,,,,,,,,,,,,,,,,,,,,,,,,,,,,,,,,,,,,,,,,,,,,,,,,,,,,,,,,,,,,,,,,,,,,,,,,,,,,,,,,
,,615a361b7fb478912573aac4,2024-02-22_05h23.27.871,kallum_motion_pilot,2023.2.2,Win32,59.88023952,615a361b7fb478912573aac4,65d6bb0e977760de756971f7,65d6bd276871e82dfed53ef1,0.0541,0.0542,1,48,210,134,1,eightsix,,,,,,,,,,,,,,,,,,,,,,,,,,,,,,,,,,,,,,,,,,,,,,,,,,,,,,,,,,,,,,,,,,,,,,,,,,,,,,,,,,,,,,,,,,,,,,,,,,,,,,,,,,,,,,,,,,,,,,,,,,,,,,,,,,,,,,,,,
,,615a361b7fb478912573aac4,2024-02-22_05h23.27.871,kallum_motion_pilot,2023.2.2,Win32,59.88023952,615a361b7fb478912573aac4,65d6bb0e977760de756971f7,65d6bd276871e82dfed53ef1,0.0542,0.0543,1,49,211,108,1,sevenfive,,,,,,,,,,,,,,,,,,,,,,,,,,,,,,,,,,,,,,,,,,,,,,,,,,,,,,,,,,,,,,,,,,,,,,,,,,,,,,,,,,,,,,,,,,,,,,,,,,,,,,,,,,,,,,,,,,,,,,,,,,,,,,,,,,,,,,,,,
,,615a361b7fb478912573aac4,2024-02-22_05h23.27.871,kallum_motion_pilot,2023.2.2,Win32,59.88023952,615a361b7fb478912573aac4,65d6bb0e977760de756971f7,65d6bd276871e82dfed53ef1,0.0544,0.0544,1,50,212,58,1,twoone,,,,,,,,,,,,,,,,,,,,,,,,,,,,,,,,,,,,,,,,,,,,,,,,,,,,,,,,,,,,,,,,,,,,,,,,,,,,,,,,,,,,,,,,,,,,,,,,,,,,,,,,,,,,,,,,,,,,,,,,,,,,,,,,,,,,,,,,,
,,615a361b7fb478912573aac4,2024-02-22_05h23.27.871,kallum_motion_pilot,2023.2.2,Win32,59.88023952,615a361b7fb478912573aac4,65d6bb0e977760de756971f7,65d6bd276871e82dfed53ef1,0.0545,0.0545,1,51,213,23,1,fourthree,,,,,,,,,,,,,,,,,,,,,,,,,,,,,,,,,,,,,,,,,,,,,,,,,,,,,,,,,,,,,,,,,,,,,,,,,,,,,,,,,,,,,,,,,,,,,,,,,,,,,,,,,,,,,,,,,,,,,,,,,,,,,,,,,,,,,,,,,
,,615a361b7fb478912573aac4,2024-02-22_05h23.27.871,kallum_motion_pilot,2023.2.2,Win32,59.88023952,615a361b7fb478912573aac4,65d6bb0e977760de756971f7,65d6bd276871e82dfed53ef1,0.0547,0.0547,1,52,214,13,1,threefour,,,,,,,,,,,,,,,,,,,,,,,,,,,,,,,,,,,,,,,,,,,,,,,,,,,,,,,,,,,,,,,,,,,,,,,,,,,,,,,,,,,,,,,,,,,,,,,,,,,,,,,,,,,,,,,,,,,,,,,,,,,,,,,,,,,,,,,,,
,,615a361b7fb478912573aac4,2024-02-22_05h23.27.871,kallum_motion_pilot,2023.2.2,Win32,59.88023952,615a361b7fb478912573aac4,65d6bb0e977760de756971f7,65d6bd276871e82dfed53ef1,0.0547,0.0548,1,53,215,12,1,threeone,,,,,,,,,,,,,,,,,,,,,,,,,,,,,,,,,,,,,,,,,,,,,,,,,,,,,,,,,,,,,,,,,,,,,,,,,,,,,,,,,,,,,,,,,,,,,,,,,,,,,,,,,,,,,,,,,,,,,,,,,,,,,,,,,,,,,,,,,
,,615a361b7fb478912573aac4,2024-02-22_05h23.27.871,kallum_motion_pilot,2023.2.2,Win32,59.88023952,615a361b7fb478912573aac4,65d6bb0e977760de756971f7,65d6bd276871e82dfed53ef1,0.0552,0.0552,1,54,216,59,1,twofour,,,,,,,,,,,,,,,,,,,,,,,,,,,,,,,,,,,,,,,,,,,,,,,,,,,,,,,,,,,,,,,,,,,,,,,,,,,,,,,,,,,,,,,,,,,,,,,,,,,,,,,,,,,,,,,,,,,,,,,,,,,,,,,,,,,,,,,,,
,,615a361b7fb478912573aac4,2024-02-22_05h23.27.871,kallum_motion_pilot,2023.2.2,Win32,59.88023952,615a361b7fb478912573aac4,65d6bb0e977760de756971f7,65d6bd276871e82dfed53ef1,0.0553,0.0556,1,55,217,5,1,threefour,,,,,,,,,,,,,,,,,,,,,,,,,,,,,,,,,,,,,,,,,,,,,,,,,,,,,,,,,,,,,,,,,,,,,,,,,,,,,,,,,,,,,,,,,,,,,,,,,,,,,,,,,,,,,,,,,,,,,,,,,,,,,,,,,,,,,,,,,
,,615a361b7fb478912573aac4,2024-02-22_05h23.27.871,kallum_motion_pilot,2023.2.2,Win32,59.88023952,615a361b7fb478912573aac4,65d6bb0e977760de756971f7,65d6bd276871e82dfed53ef1,0.0557,0.0558,1,56,218,99,1,sixeight,,,,,,,,,,,,,,,,,,,,,,,,,,,,,,,,,,,,,,,,,,,,,,,,,,,,,,,,,,,,,,,,,,,,,,,,,,,,,,,,,,,,,,,,,,,,,,,,,,,,,,,,,,,,,,,,,,,,,,,,,,,,,,,,,,,,,,,,,
,,615a361b7fb478912573aac4,2024-02-22_05h23.27.871,kallum_motion_pilot,2023.2.2,Win32,59.88023952,615a361b7fb478912573aac4,65d6bb0e977760de756971f7,65d6bd276871e82dfed53ef1,0.0559,0.0559,1,57,219,86,1,eightsix,,,,,,,,,,,,,,,,,,,,,,,,,,,,,,,,,,,,,,,,,,,,,,,,,,,,,,,,,,,,,,,,,,,,,,,,,,,,,,,,,,,,,,,,,,,,,,,,,,,,,,,,,,,,,,,,,,,,,,,,,,,,,,,,,,,,,,,,,
,,615a361b7fb478912573aac4,2024-02-22_05h23.27.871,kallum_motion_pilot,2023.2.2,Win32,59.88023952,615a361b7fb478912573aac4,65d6bb0e977760de756971f7,65d6bd276871e82dfed53ef1,0.0561,0.0561,1,58,220,126,1,eightsix,,,,,,,,,,,,,,,,,,,,,,,,,,,,,,,,,,,,,,,,,,,,,,,,,,,,,,,,,,,,,,,,,,,,,,,,,,,,,,,,,,,,,,,,,,,,,,,,,,,,,,,,,,,,,,,,,,,,,,,,,,,,,,,,,,,,,,,,,
,,615a361b7fb478912573aac4,2024-02-22_05h23.27.871,kallum_motion_pilot,2023.2.2,Win32,59.88023952,615a361b7fb478912573aac4,65d6bb0e977760de756971f7,65d6bd276871e82dfed53ef1,0.0562,0.0563,1,59,221,127,1,eightseven,,,,,,,,,,,,,,,,,,,,,,,,,,,,,,,,,,,,,,,,,,,,,,,,,,,,,,,,,,,,,,,,,,,,,,,,,,,,,,,,,,,,,,,,,,,,,,,,,,,,,,,,,,,,,,,,,,,,,,,,,,,,,,,,,,,,,,,,,
,,615a361b7fb478912573aac4,2024-02-22_05h23.27.871,kallum_motion_pilot,2023.2.2,Win32,59.88023952,615a361b7fb478912573aac4,65d6bb0e977760de756971f7,65d6bd276871e82dfed53ef1,0.0564,0.0564,1,60,222,156,1,sevenfive,,,,,,,,,,,,,,,,,,,,,,,,,,,,,,,,,,,,,,,,,,,,,,,,,,,,,,,,,,,,,,,,,,,,,,,,,,,,,,,,,,,,,,,,,,,,,,,,,,,,,,,,,,,,,,,,,,,,,,,,,,,,,,,,,,,,,,,,,
,,615a361b7fb478912573aac4,2024-02-22_05h23.27.871,kallum_motion_pilot,2023.2.2,Win32,59.88023952,615a361b7fb478912573aac4,65d6bb0e977760de756971f7,65d6bd276871e82dfed53ef1,0.0565,0.0566,1,61,223,31,1,fourthree,,,,,,,,,,,,,,,,,,,,,,,,,,,,,,,,,,,,,,,,,,,,,,,,,,,,,,,,,,,,,,,,,,,,,,,,,,,,,,,,,,,,,,,,,,,,,,,,,,,,,,,,,,,,,,,,,,,,,,,,,,,,,,,,,,,,,,,,,
,,615a361b7fb478912573aac4,2024-02-22_05h23.27.871,kallum_motion_pilot,2023.2.2,Win32,59.88023952,615a361b7fb478912573aac4,65d6bb0e977760de756971f7,65d6bd276871e82dfed53ef1,0.0567,0.0567,1,62,224,54,1,fourtwo,,,,,,,,,,,,,,,,,,,,,,,,,,,,,,,,,,,,,,,,,,,,,,,,,,,,,,,,,,,,,,,,,,,,,,,,,,,,,,,,,,,,,,,,,,,,,,,,,,,,,,,,,,,,,,,,,,,,,,,,,,,,,,,,,,,,,,,,,
,,615a361b7fb478912573aac4,2024-02-22_05h23.27.871,kallum_motion_pilot,2023.2.2,Win32,59.88023952,615a361b7fb478912573aac4,65d6bb0e977760de756971f7,65d6bd276871e82dfed53ef1,0.0568,0.0568,1,63,225,47,1,fourthree,,,,,,,,,,,,,,,,,,,,,,,,,,,,,,,,,,,,,,,,,,,,,,,,,,,,,,,,,,,,,,,,,,,,,,,,,,,,,,,,,,,,,,,,,,,,,,,,,,,,,,,,,,,,,,,,,,,,,,,,,,,,,,,,,,,,,,,,,
,,615a361b7fb478912573aac4,2024-02-22_05h23.27.871,kallum_motion_pilot,2023.2.2,Win32,59.88023952,615a361b7fb478912573aac4,65d6bb0e977760de756971f7,65d6bd276871e82dfed53ef1,0.057,0.057,1,64,226,20,1,threeone,,,,,,,,,,,,,,,,,,,,,,,,,,,,,,,,,,,,,,,,,,,,,,,,,,,,,,,,,,,,,,,,,,,,,,,,,,,,,,,,,,,,,,,,,,,,,,,,,,,,,,,,,,,,,,,,,,,,,,,,,,,,,,,,,,,,,,,,,
,,615a361b7fb478912573aac4,2024-02-22_05h23.27.871,kallum_motion_pilot,2023.2.2,Win32,59.88023952,615a361b7fb478912573aac4,65d6bb0e977760de756971f7,65d6bd276871e82dfed53ef1,0.0571,0.0572,1,65,227,143,1,eightseven,,,,,,,,,,,,,,,,,,,,,,,,,,,,,,,,,,,,,,,,,,,,,,,,,,,,,,,,,,,,,,,,,,,,,,,,,,,,,,,,,,,,,,,,,,,,,,,,,,,,,,,,,,,,,,,,,,,,,,,,,,,,,,,,,,,,,,,,,
,,615a361b7fb478912573aac4,2024-02-22_05h23.27.871,kallum_motion_pilot,2023.2.2,Win32,59.88023952,615a361b7fb478912573aac4,65d6bb0e977760de756971f7,65d6bd276871e82dfed53ef1,0.0572,0.0573,1,66,228,80,1,fivesix,,,,,,,,,,,,,,,,,,,,,,,,,,,,,,,,,,,,,,,,,,,,,,,,,,,,,,,,,,,,,,,,,,,,,,,,,,,,,,,,,,,,,,,,,,,,,,,,,,,,,,,,,,,,,,,,,,,,,,,,,,,,,,,,,,,,,,,,,
,,615a361b7fb478912573aac4,2024-02-22_05h23.27.871,kallum_motion_pilot,2023.2.2,Win32,59.88023952,615a361b7fb478912573aac4,65d6bb0e977760de756971f7,65d6bd276871e82dfed53ef1,0.0573,0.0575,1,67,229,7,1,fourthree,,,,,,,,,,,,,,,,,,,,,,,,,,,,,,,,,,,,,,,,,,,,,,,,,,,,,,,,,,,,,,,,,,,,,,,,,,,,,,,,,,,,,,,,,,,,,,,,,,,,,,,,,,,,,,,,,,,,,,,,,,,,,,,,,,,,,,,,,
,,615a361b7fb478912573aac4,2024-02-22_05h23.27.871,kallum_motion_pilot,2023.2.2,Win32,59.88023952,615a361b7fb478912573aac4,65d6bb0e977760de756971f7,65d6bd276871e82dfed53ef1,0.0575,0.0576,1,68,230,21,1,threefour,,,,,,,,,,,,,,,,,,,,,,,,,,,,,,,,,,,,,,,,,,,,,,,,,,,,,,,,,,,,,,,,,,,,,,,,,,,,,,,,,,,,,,,,,,,,,,,,,,,,,,,,,,,,,,,,,,,,,,,,,,,,,,,,,,,,,,,,,
,,615a361b7fb478912573aac4,2024-02-22_05h23.27.871,kallum_motion_pilot,2023.2.2,Win32,59.88023952,615a361b7fb478912573aac4,65d6bb0e977760de756971f7,65d6bd276871e82dfed53ef1,0.0576,0.0577,1,69,231,87,1,eightseven,,,,,,,,,,,,,,,,,,,,,,,,,,,,,,,,,,,,,,,,,,,,,,,,,,,,,,,,,,,,,,,,,,,,,,,,,,,,,,,,,,,,,,,,,,,,,,,,,,,,,,,,,,,,,,,,,,,,,,,,,,,,,,,,,,,,,,,,,
,,615a361b7fb478912573aac4,2024-02-22_05h23.27.871,kallum_motion_pilot,2023.2.2,Win32,59.88023952,615a361b7fb478912573aac4,65d6bb0e977760de756971f7,65d6bd276871e82dfed53ef1,0.0578,0.0579,1,70,232,49,1,onethree,,,,,,,,,,,,,,,,,,,,,,,,,,,,,,,,,,,,,,,,,,,,,,,,,,,,,,,,,,,,,,,,,,,,,,,,,,,,,,,,,,,,,,,,,,,,,,,,,,,,,,,,,,,,,,,,,,,,,,,,,,,,,,,,,,,,,,,,,
,,615a361b7fb478912573aac4,2024-02-22_05h23.27.871,kallum_motion_pilot,2023.2.2,Win32,59.88023952,615a361b7fb478912573aac4,65d6bb0e977760de756971f7,65d6bd276871e82dfed53ef1,0.0579,0.058,1,71,233,71,1,fourthree,,,,,,,,,,,,,,,,,,,,,,,,,,,,,,,,,,,,,,,,,,,,,,,,,,,,,,,,,,,,,,,,,,,,,,,,,,,,,,,,,,,,,,,,,,,,,,,,,,,,,,,,,,,,,,,,,,,,,,,,,,,,,,,,,,,,,,,,,
,,615a361b7fb478912573aac4,2024-02-22_05h23.27.871,kallum_motion_pilot,2023.2.2,Win32,59.88023952,615a361b7fb478912573aac4,65d6bb0e977760de756971f7,65d6bd276871e82dfed53ef1,0.0581,0.0582,1,72,234,1,1,onethree,,,,,,,,,,,,,,,,,,,,,,,,,,,,,,,,,,,,,,,,,,,,,,,,,,,,,,,,,,,,,,,,,,,,,,,,,,,,,,,,,,,,,,,,,,,,,,,,,,,,,,,,,,,,,,,,,,,,,,,,,,,,,,,,,,,,,,,,,
,,615a361b7fb478912573aac4,2024-02-22_05h23.27.871,kallum_motion_pilot,2023.2.2,Win32,59.88023952,615a361b7fb478912573aac4,65d6bb0e977760de756971f7,65d6bd276871e82dfed53ef1,0.0582,0.0583,1,73,235,55,1,fourthree,,,,,,,,,,,,,,,,,,,,,,,,,,,,,,,,,,,,,,,,,,,,,,,,,,,,,,,,,,,,,,,,,,,,,,,,,,,,,,,,,,,,,,,,,,,,,,,,,,,,,,,,,,,,,,,,,,,,,,,,,,,,,,,,,,,,,,,,,
,,615a361b7fb478912573aac4,2024-02-22_05h23.27.871,kallum_motion_pilot,2023.2.2,Win32,59.88023952,615a361b7fb478912573aac4,65d6bb0e977760de756971f7,65d6bd276871e82dfed53ef1,0.0584,0.0584,1,74,236,44,1,threeone,,,,,,,,,,,,,,,,,,,,,,,,,,,,,,,,,,,,,,,,,,,,,,,,,,,,,,,,,,,,,,,,,,,,,,,,,,,,,,,,,,,,,,,,,,,,,,,,,,,,,,,,,,,,,,,,,,,,,,,,,,,,,,,,,,,,,,,,,
,,615a361b7fb478912573aac4,2024-02-22_05h23.27.871,kallum_motion_pilot,2023.2.2,Win32,59.88023952,615a361b7fb478912573aac4,65d6bb0e977760de756971f7,65d6bd276871e82dfed53ef1,0.0585,0.0586,1,75,237,148,1,sevenfive,,,,,,,,,,,,,,,,,,,,,,,,,,,,,,,,,,,,,,,,,,,,,,,,,,,,,,,,,,,,,,,,,,,,,,,,,,,,,,,,,,,,,,,,,,,,,,,,,,,,,,,,,,,,,,,,,,,,,,,,,,,,,,,,,,,,,,,,,
,,615a361b7fb478912573aac4,2024-02-22_05h23.27.871,kallum_motion_pilot,2023.2.2,Win32,59.88023952,615a361b7fb478912573aac4,65d6bb0e977760de756971f7,65d6bd276871e82dfed53ef1,0.0586,0.0587,1,76,238,84,1,sevenfive,,,,,,,,,,,,,,,,,,,,,,,,,,,,,,,,,,,,,,,,,,,,,,,,,,,,,,,,,,,,,,,,,,,,,,,,,,,,,,,,,,,,,,,,,,,,,,,,,,,,,,,,,,,,,,,,,,,,,,,,,,,,,,,,,,,,,,,,,
,,615a361b7fb478912573aac4,2024-02-22_05h23.27.871,kallum_motion_pilot,2023.2.2,Win32,59.88023952,615a361b7fb478912573aac4,65d6bb0e977760de756971f7,65d6bd276871e82dfed53ef1,0.0588,0.0589,1,77,239,150,1,eightsix,,,,,,,,,,,,,,,,,,,,,,,,,,,,,,,,,,,,,,,,,,,,,,,,,,,,,,,,,,,,,,,,,,,,,,,,,,,,,,,,,,,,,,,,,,,,,,,,,,,,,,,,,,,,,,,,,,,,,,,,,,,,,,,,,,,,,,,,,
,,615a361b7fb478912573aac4,2024-02-22_05h23.27.871,kallum_motion_pilot,2023.2.2,Win32,59.88023952,615a361b7fb478912573aac4,65d6bb0e977760de756971f7,65d6bd276871e82dfed53ef1,0.059,0.059,1,78,240,16,1,onetwo,,,,,,,,,,,,,,,,,,,,,,,,,,,,,,,,,,,,,,,,,,,,,,,,,,,,,,,,,,,,,,,,,,,,,,,,,,,,,,,,,,,,,,,,,,,,,,,,,,,,,,,,,,,,,,,,,,,,,,,,,,,,,,,,,,,,,,,,,
,,615a361b7fb478912573aac4,2024-02-22_05h23.27.871,kallum_motion_pilot,2023.2.2,Win32,59.88023952,615a361b7fb478912573aac4,65d6bb0e977760de756971f7,65d6bd276871e82dfed53ef1,0.0591,0.0591,1,79,241,118,1,eightsix,,,,,,,,,,,,,,,,,,,,,,,,,,,,,,,,,,,,,,,,,,,,,,,,,,,,,,,,,,,,,,,,,,,,,,,,,,,,,,,,,,,,,,,,,,,,,,,,,,,,,,,,,,,,,,,,,,,,,,,,,,,,,,,,,,,,,,,,,
,,615a361b7fb478912573aac4,2024-02-22_05h23.27.871,kallum_motion_pilot,2023.2.2,Win32,59.88023952,615a361b7fb478912573aac4,65d6bb0e977760de756971f7,65d6bd276871e82dfed53ef1,0.0592,0.0593,1,80,242,33,1,onethree,,,,,,,,,,,,,,,,,,,,,,,,,,,,,,,,,,,,,,,,,,,,,,,,,,,,,,,,,,,,,,,,,,,,,,,,,,,,,,,,,,,,,,,,,,,,,,,,,,,,,,,,,,,,,,,,,,,,,,,,,,,,,,,,,,,,,,,,,
,,615a361b7fb478912573aac4,2024-02-22_05h23.27.871,kallum_motion_pilot,2023.2.2,Win32,59.88023952,615a361b7fb478912573aac4,65d6bb0e977760de756971f7,65d6bd276871e82dfed53ef1,0.0593,0.0595,1,81,243,66,1,twoone,,,,,,,,,,,,,,,,,,,,,,,,,,,,,,,,,,,,,,,,,,,,,,,,,,,,,,,,,,,,,,,,,,,,,,,,,,,,,,,,,,,,,,,,,,,,,,,,,,,,,,,,,,,,,,,,,,,,,,,,,,,,,,,,,,,,,,,,,
,,615a361b7fb478912573aac4,2024-02-22_05h23.27.871,kallum_motion_pilot,2023.2.2,Win32,59.88023952,615a361b7fb478912573aac4,65d6bb0e977760de756971f7,65d6bd276871e82dfed53ef1,0.0595,0.0596,1,82,244,17,1,onethree,,,,,,,,,,,,,,,,,,,,,,,,,,,,,,,,,,,,,,,,,,,,,,,,,,,,,,,,,,,,,,,,,,,,,,,,,,,,,,,,,,,,,,,,,,,,,,,,,,,,,,,,,,,,,,,,,,,,,,,,,,,,,,,,,,,,,,,,,
,,615a361b7fb478912573aac4,2024-02-22_05h23.27.871,kallum_motion_pilot,2023.2.2,Win32,59.88023952,615a361b7fb478912573aac4,65d6bb0e977760de756971f7,65d6bd276871e82dfed53ef1,0.0596,0.0597,1,83,245,10,1,twoone,,,,,,,,,,,,,,,,,,,,,,,,,,,,,,,,,,,,,,,,,,,,,,,,,,,,,,,,,,,,,,,,,,,,,,,,,,,,,,,,,,,,,,,,,,,,,,,,,,,,,,,,,,,,,,,,,,,,,,,,,,,,,,,,,,,,,,,,,
,,615a361b7fb478912573aac4,2024-02-22_05h23.27.871,kallum_motion_pilot,2023.2.2,Win32,59.88023952,615a361b7fb478912573aac4,65d6bb0e977760de756971f7,65d6bd276871e82dfed53ef1,0.0597,0.0598,1,84,246,46,1,fourtwo,,,,,,,,,,,,,,,,,,,,,,,,,,,,,,,,,,,,,,,,,,,,,,,,,,,,,,,,,,,,,,,,,,,,,,,,,,,,,,,,,,,,,,,,,,,,,,,,,,,,,,,,,,,,,,,,,,,,,,,,,,,,,,,,,,,,,,,,,
,,615a361b7fb478912573aac4,2024-02-22_05h23.27.871,kallum_motion_pilot,2023.2.2,Win32,59.88023952,615a361b7fb478912573aac4,65d6bb0e977760de756971f7,65d6bd276871e82dfed53ef1,0.0599,0.06,1,85,247,123,1,sixeight,,,,,,,,,,,,,,,,,,,,,,,,,,,,,,,,,,,,,,,,,,,,,,,,,,,,,,,,,,,,,,,,,,,,,,,,,,,,,,,,,,,,,,,,,,,,,,,,,,,,,,,,,,,,,,,,,,,,,,,,,,,,,,,,,,,,,,,,,
,,615a361b7fb478912573aac4,2024-02-22_05h23.27.871,kallum_motion_pilot,2023.2.2,Win32,59.88023952,615a361b7fb478912573aac4,65d6bb0e977760de756971f7,65d6bd276871e82dfed53ef1,0.0601,0.0601,1,86,248,27,1,twofour,,,,,,,,,,,,,,,,,,,,,,,,,,,,,,,,,,,,,,,,,,,,,,,,,,,,,,,,,,,,,,,,,,,,,,,,,,,,,,,,,,,,,,,,,,,,,,,,,,,,,,,,,,,,,,,,,,,,,,,,,,,,,,,,,,,,,,,,,
,,615a361b7fb478912573aac4,2024-02-22_05h23.27.871,kallum_motion_pilot,2023.2.2,Win32,59.88023952,615a361b7fb478912573aac4,65d6bb0e977760de756971f7,65d6bd276871e82dfed53ef1,0.0601,0.0602,1,87,249,67,1,twofour,,,,,,,,,,,,,,,,,,,,,,,,,,,,,,,,,,,,,,,,,,,,,,,,,,,,,,,,,,,,,,,,,,,,,,,,,,,,,,,,,,,,,,,,,,,,,,,,,,,,,,,,,,,,,,,,,,,,,,,,,,,,,,,,,,,,,,,,,
,,615a361b7fb478912573aac4,2024-02-22_05h23.27.871,kallum_motion_pilot,2023.2.2,Win32,59.88023952,615a361b7fb478912573aac4,65d6bb0e977760de756971f7,65d6bd276871e82dfed53ef1,0.0603,0.0604,1,88,250,112,1,fivesix,,,,,,,,,,,,,,,,,,,,,,,,,,,,,,,,,,,,,,,,,,,,,,,,,,,,,,,,,,,,,,,,,,,,,,,,,,,,,,,,,,,,,,,,,,,,,,,,,,,,,,,,,,,,,,,,,,,,,,,,,,,,,,,,,,,,,,,,,
,,615a361b7fb478912573aac4,2024-02-22_05h23.27.871,kallum_motion_pilot,2023.2.2,Win32,59.88023952,615a361b7fb478912573aac4,65d6bb0e977760de756971f7,65d6bd276871e82dfed53ef1,0.0605,0.0605,1,89,251,35,1,twofour,,,,,,,,,,,,,,,,,,,,,,,,,,,,,,,,,,,,,,,,,,,,,,,,,,,,,,,,,,,,,,,,,,,,,,,,,,,,,,,,,,,,,,,,,,,,,,,,,,,,,,,,,,,,,,,,,,,,,,,,,,,,,,,,,,,,,,,,,
,,615a361b7fb478912573aac4,2024-02-22_05h23.27.871,kallum_motion_pilot,2023.2.2,Win32,59.88023952,615a361b7fb478912573aac4,65d6bb0e977760de756971f7,65d6bd276871e82dfed53ef1,0.0606,0.0607,1,90,252,32,1,onetwo,,,,,,,,,,,,,,,,,,,,,,,,,,,,,,,,,,,,,,,,,,,,,,,,,,,,,,,,,,,,,,,,,,,,,,,,,,,,,,,,,,,,,,,,,,,,,,,,,,,,,,,,,,,,,,,,,,,,,,,,,,,,,,,,,,,,,,,,,
,,615a361b7fb478912573aac4,2024-02-22_05h23.27.871,kallum_motion_pilot,2023.2.2,Win32,59.88023952,615a361b7fb478912573aac4,65d6bb0e977760de756971f7,65d6bd276871e82dfed53ef1,0.0608,0.0608,1,91,253,61,1,threefour,,,,,,,,,,,,,,,,,,,,,,,,,,,,,,,,,,,,,,,,,,,,,,,,,,,,,,,,,,,,,,,,,,,,,,,,,,,,,,,,,,,,,,,,,,,,,,,,,,,,,,,,,,,,,,,,,,,,,,,,,,,,,,,,,,,,,,,,,
,,615a361b7fb478912573aac4,2024-02-22_05h23.27.871,kallum_motion_pilot,2023.2.2,Win32,59.88023952,615a361b7fb478912573aac4,65d6bb0e977760de756971f7,65d6bd276871e82dfed53ef1,0.0609,0.061,1,92,254,135,1,eightseven,,,,,,,,,,,,,,,,,,,,,,,,,,,,,,,,,,,,,,,,,,,,,,,,,,,,,,,,,,,,,,,,,,,,,,,,,,,,,,,,,,,,,,,,,,,,,,,,,,,,,,,,,,,,,,,,,,,,,,,,,,,,,,,,,,,,,,,,,
,,615a361b7fb478912573aac4,2024-02-22_05h23.27.871,kallum_motion_pilot,2023.2.2,Win32,59.88023952,615a361b7fb478912573aac4,65d6bb0e977760de756971f7,65d6bd276871e82dfed53ef1,0.0611,0.0611,1,93,255,159,1,eightseven,,,,,,,,,,,,,,,,,,,,,,,,,,,,,,,,,,,,,,,,,,,,,,,,,,,,,,,,,,,,,,,,,,,,,,,,,,,,,,,,,,,,,,,,,,,,,,,,,,,,,,,,,,,,,,,,,,,,,,,,,,,,,,,,,,,,,,,,,
,,615a361b7fb478912573aac4,2024-02-22_05h23.27.871,kallum_motion_pilot,2023.2.2,Win32,59.88023952,615a361b7fb478912573aac4,65d6bb0e977760de756971f7,65d6bd276871e82dfed53ef1,0.0613,0.0613,1,94,256,26,1,twoone,,,,,,,,,,,,,,,,,,,,,,,,,,,,,,,,,,,,,,,,,,,,,,,,,,,,,,,,,,,,,,,,,,,,,,,,,,,,,,,,,,,,,,,,,,,,,,,,,,,,,,,,,,,,,,,,,,,,,,,,,,,,,,,,,,,,,,,,,
,,615a361b7fb478912573aac4,2024-02-22_05h23.27.871,kallum_motion_pilot,2023.2.2,Win32,59.88023952,615a361b7fb478912573aac4,65d6bb0e977760de756971f7,65d6bd276871e82dfed53ef1,0.0614,0.0615,1,95,257,147,1,sixeight,,,,,,,,,,,,,,,,,,,,,,,,,,,,,,,,,,,,,,,,,,,,,,,,,,,,,,,,,,,,,,,,,,,,,,,,,,,,,,,,,,,,,,,,,,,,,,,,,,,,,,,,,,,,,,,,,,,,,,,,,,,,,,,,,,,,,,,,,
,,615a361b7fb478912573aac4,2024-02-22_05h23.27.871,kallum_motion_pilot,2023.2.2,Win32,59.88023952,615a361b7fb478912573aac4,65d6bb0e977760de756971f7,65d6bd276871e82dfed53ef1,0.0615,0.0616,1,96,258,144,1,fivesix,,,,,,,,,,,,,,,,,,,,,,,,,,,,,,,,,,,,,,,,,,,,,,,,,,,,,,,,,,,,,,,,,,,,,,,,,,,,,,,,,,,,,,,,,,,,,,,,,,,,,,,,,,,,,,,,,,,,,,,,,,,,,,,,,,,,,,,,,
,,615a361b7fb478912573aac4,2024-02-22_05h23.27.871,kallum_motion_pilot,2023.2.2,Win32,59.88023952,615a361b7fb478912573aac4,65d6bb0e977760de756971f7,65d6bd276871e82dfed53ef1,0.0618,0.0618,1,97,259,8,1,onetwo,,,,,,,,,,,,,,,,,,,,,,,,,,,,,,,,,,,,,,,,,,,,,,,,,,,,,,,,,,,,,,,,,,,,,,,,,,,,,,,,,,,,,,,,,,,,,,,,,,,,,,,,,,,,,,,,,,,,,,,,,,,,,,,,,,,,,,,,,
,,615a361b7fb478912573aac4,2024-02-22_05h23.27.871,kallum_motion_pilot,2023.2.2,Win32,59.88023952,615a361b7fb478912573aac4,65d6bb0e977760de756971f7,65d6bd276871e82dfed53ef1,0.0619,0.0619,1,98,260,105,1,fiveseven,,,,,,,,,,,,,,,,,,,,,,,,,,,,,,,,,,,,,,,,,,,,,,,,,,,,,,,,,,,,,,,,,,,,,,,,,,,,,,,,,,,,,,,,,,,,,,,,,,,,,,,,,,,,,,,,,,,,,,,,,,,,,,,,,,,,,,,,,
,,615a361b7fb478912573aac4,2024-02-22_05h23.27.871,kallum_motion_pilot,2023.2.2,Win32,59.88023952,615a361b7fb478912573aac4,65d6bb0e977760de756971f7,65d6bd276871e82dfed53ef1,0.0621,0.0621,1,99,261,0,1,onetwo,,,,,,,,,,,,,,,,,,,,,,,,,,,,,,,,,,,,,,,,,,,,,,,,,,,,,,,,,,,,,,,,,,,,,,,,,,,,,,,,,,,,,,,,,,,,,,,,,,,,,,,,,,,,,,,,,,,,,,,,,,,,,,,,,,,,,,,,,
,,615a361b7fb478912573aac4,2024-02-22_05h23.27.871,kallum_motion_pilot,2023.2.2,Win32,59.88023952,615a361b7fb478912573aac4,65d6bb0e977760de756971f7,65d6bd276871e82dfed53ef1,0.0623,0.0623,1,100,262,69,1,threefour,,,,,,,,,,,,,,,,,,,,,,,,,,,,,,,,,,,,,,,,,,,,,,,,,,,,,,,,,,,,,,,,,,,,,,,,,,,,,,,,,,,,,,,,,,,,,,,,,,,,,,,,,,,,,,,,,,,,,,,,,,,,,,,,,,,,,,,,,
,,615a361b7fb478912573aac4,2024-02-22_05h23.27.871,kallum_motion_pilot,2023.2.2,Win32,59.88023952,615a361b7fb478912573aac4,65d6bb0e977760de756971f7,65d6bd276871e82dfed53ef1,0.0624,0.0625,1,101,263,139,1,sixeight,,,,,,,,,,,,,,,,,,,,,,,,,,,,,,,,,,,,,,,,,,,,,,,,,,,,,,,,,,,,,,,,,,,,,,,,,,,,,,,,,,,,,,,,,,,,,,,,,,,,,,,,,,,,,,,,,,,,,,,,,,,,,,,,,,,,,,,,,
,,615a361b7fb478912573aac4,2024-02-22_05h23.27.871,kallum_motion_pilot,2023.2.2,Win32,59.88023952,615a361b7fb478912573aac4,65d6bb0e977760de756971f7,65d6bd276871e82dfed53ef1,0.0626,0.0628,1,102,264,52,1,threeone,,,,,,,,,,,,,,,,,,,,,,,,,,,,,,,,,,,,,,,,,,,,,,,,,,,,,,,,,,,,,,,,,,,,,,,,,,,,,,,,,,,,,,,,,,,,,,,,,,,,,,,,,,,,,,,,,,,,,,,,,,,,,,,,,,,,,,,,,
,,615a361b7fb478912573aac4,2024-02-22_05h23.27.871,kallum_motion_pilot,2023.2.2,Win32,59.88023952,615a361b7fb478912573aac4,65d6bb0e977760de756971f7,65d6bd276871e82dfed53ef1,0.0628,0.0629,1,103,265,37,1,threefour,,,,,,,,,,,,,,,,,,,,,,,,,,,,,,,,,,,,,,,,,,,,,,,,,,,,,,,,,,,,,,,,,,,,,,,,,,,,,,,,,,,,,,,,,,,,,,,,,,,,,,,,,,,,,,,,,,,,,,,,,,,,,,,,,,,,,,,,,
,,615a361b7fb478912573aac4,2024-02-22_05h23.27.871,kallum_motion_pilot,2023.2.2,Win32,59.88023952,615a361b7fb478912573aac4,65d6bb0e977760de756971f7,65d6bd276871e82dfed53ef1,0.063,0.0631,1,104,266,77,1,threefour,,,,,,,,,,,,,,,,,,,,,,,,,,,,,,,,,,,,,,,,,,,,,,,,,,,,,,,,,,,,,,,,,,,,,,,,,,,,,,,,,,,,,,,,,,,,,,,,,,,,,,,,,,,,,,,,,,,,,,,,,,,,,,,,,,,,,,,,,
,,615a361b7fb478912573aac4,2024-02-22_05h23.27.871,kallum_motion_pilot,2023.2.2,Win32,59.88023952,615a361b7fb478912573aac4,65d6bb0e977760de756971f7,65d6bd276871e82dfed53ef1,0.0632,0.0632,1,105,267,85,1,seveneight,,,,,,,,,,,,,,,,,,,,,,,,,,,,,,,,,,,,,,,,,,,,,,,,,,,,,,,,,,,,,,,,,,,,,,,,,,,,,,,,,,,,,,,,,,,,,,,,,,,,,,,,,,,,,,,,,,,,,,,,,,,,,,,,,,,,,,,,,
,,615a361b7fb478912573aac4,2024-02-22_05h23.27.871,kallum_motion_pilot,2023.2.2,Win32,59.88023952,615a361b7fb478912573aac4,65d6bb0e977760de756971f7,65d6bd276871e82dfed53ef1,0.0634,0.0635,1,106,268,113,1,fiveseven,,,,,,,,,,,,,,,,,,,,,,,,,,,,,,,,,,,,,,,,,,,,,,,,,,,,,,,,,,,,,,,,,,,,,,,,,,,,,,,,,,,,,,,,,,,,,,,,,,,,,,,,,,,,,,,,,,,,,,,,,,,,,,,,,,,,,,,,,
,,615a361b7fb478912573aac4,2024-02-22_05h23.27.871,kallum_motion_pilot,2023.2.2,Win32,59.88023952,615a361b7fb478912573aac4,65d6bb0e977760de756971f7,65d6bd276871e82dfed53ef1,0.0635,0.0636,1,107,269,98,1,sixfive,,,,,,,,,,,,,,,,,,,,,,,,,,,,,,,,,,,,,,,,,,,,,,,,,,,,,,,,,,,,,,,,,,,,,,,,,,,,,,,,,,,,,,,,,,,,,,,,,,,,,,,,,,,,,,,,,,,,,,,,,,,,,,,,,,,,,,,,,
,,615a361b7fb478912573aac4,2024-02-22_05h23.27.871,kallum_motion_pilot,2023.2.2,Win32,59.88023952,615a361b7fb478912573aac4,65d6bb0e977760de756971f7,65d6bd276871e82dfed53ef1,0.0637,0.0638,1,108,270,57,1,onethree,,,,,,,,,,,,,,,,,,,,,,,,,,,,,,,,,,,,,,,,,,,,,,,,,,,,,,,,,,,,,,,,,,,,,,,,,,,,,,,,,,,,,,,,,,,,,,,,,,,,,,,,,,,,,,,,,,,,,,,,,,,,,,,,,,,,,,,,,
,,615a361b7fb478912573aac4,2024-02-22_05h23.27.871,kallum_motion_pilot,2023.2.2,Win32,59.88023952,615a361b7fb478912573aac4,65d6bb0e977760de756971f7,65d6bd276871e82dfed53ef1,0.0638,0.0639,1,109,271,107,1,sixeight,,,,,,,,,,,,,,,,,,,,,,,,,,,,,,,,,,,,,,,,,,,,,,,,,,,,,,,,,,,,,,,,,,,,,,,,,,,,,,,,,,,,,,,,,,,,,,,,,,,,,,,,,,,,,,,,,,,,,,,,,,,,,,,,,,,,,,,,,
,,615a361b7fb478912573aac4,2024-02-22_05h23.27.871,kallum_motion_pilot,2023.2.2,Win32,59.88023952,615a361b7fb478912573aac4,65d6bb0e977760de756971f7,65d6bd276871e82dfed53ef1,0.064,0.064,1,110,272,51,1,twofour,,,,,,,,,,,,,,,,,,,,,,,,,,,,,,,,,,,,,,,,,,,,,,,,,,,,,,,,,,,,,,,,,,,,,,,,,,,,,,,,,,,,,,,,,,,,,,,,,,,,,,,,,,,,,,,,,,,,,,,,,,,,,,,,,,,,,,,,,
,,615a361b7fb478912573aac4,2024-02-22_05h23.27.871,kallum_motion_pilot,2023.2.2,Win32,59.88023952,615a361b7fb478912573aac4,65d6bb0e977760de756971f7,65d6bd276871e82dfed53ef1,0.0642,0.0642,1,111,273,91,1,sixeight,,,,,,,,,,,,,,,,,,,,,,,,,,,,,,,,,,,,,,,,,,,,,,,,,,,,,,,,,,,,,,,,,,,,,,,,,,,,,,,,,,,,,,,,,,,,,,,,,,,,,,,,,,,,,,,,,,,,,,,,,,,,,,,,,,,,,,,,,
,,615a361b7fb478912573aac4,2024-02-22_05h23.27.871,kallum_motion_pilot,2023.2.2,Win32,59.88023952,615a361b7fb478912573aac4,65d6bb0e977760de756971f7,65d6bd276871e82dfed53ef1,0.0642,0.0644,1,112,274,41,1,onethree,,,,,,,,,,,,,,,,,,,,,,,,,,,,,,,,,,,,,,,,,,,,,,,,,,,,,,,,,,,,,,,,,,,,,,,,,,,,,,,,,,,,,,,,,,,,,,,,,,,,,,,,,,,,,,,,,,,,,,,,,,,,,,,,,,,,,,,,,
,,615a361b7fb478912573aac4,2024-02-22_05h23.27.871,kallum_motion_pilot,2023.2.2,Win32,59.88023952,615a361b7fb478912573aac4,65d6bb0e977760de756971f7,65d6bd276871e82dfed53ef1,0.0644,0.0644,1,113,275,38,1,fourtwo,,,,,,,,,,,,,,,,,,,,,,,,,,,,,,,,,,,,,,,,,,,,,,,,,,,,,,,,,,,,,,,,,,,,,,,,,,,,,,,,,,,,,,,,,,,,,,,,,,,,,,,,,,,,,,,,,,,,,,,,,,,,,,,,,,,,,,,,,
,,615a361b7fb478912573aac4,2024-02-22_05h23.27.871,kallum_motion_pilot,2023.2.2,Win32,59.88023952,615a361b7fb478912573aac4,65d6bb0e977760de756971f7,65d6bd276871e82dfed53ef1,0.0646,0.0646,1,114,276,56,1,onetwo,,,,,,,,,,,,,,,,,,,,,,,,,,,,,,,,,,,,,,,,,,,,,,,,,,,,,,,,,,,,,,,,,,,,,,,,,,,,,,,,,,,,,,,,,,,,,,,,,,,,,,,,,,,,,,,,,,,,,,,,,,,,,,,,,,,,,,,,,
,,615a361b7fb478912573aac4,2024-02-22_05h23.27.871,kallum_motion_pilot,2023.2.2,Win32,59.88023952,615a361b7fb478912573aac4,65d6bb0e977760de756971f7,65d6bd276871e82dfed53ef1,0.0647,0.0648,1,115,277,151,1,eightseven,,,,,,,,,,,,,,,,,,,,,,,,,,,,,,,,,,,,,,,,,,,,,,,,,,,,,,,,,,,,,,,,,,,,,,,,,,,,,,,,,,,,,,,,,,,,,,,,,,,,,,,,,,,,,,,,,,,,,,,,,,,,,,,,,,,,,,,,,
