startup.started,startup.stopped,Prolific ID*,date,expName,psychopyVersion,OS,frameRate,participant,study_id,session,stimpositions.started,stimpositions.stopped,hardcoded_stimulus_positions.thisRepN,hardcoded_stimulus_positions.thisTrialN,hardcoded_stimulus_positions.thisN,hardcoded_stimulus_positions.thisIndex,hardcoded_stimulus_positions.ran,StimulusPos,stimorientation.started,stimorientation.stopped,prac_stimorientation_import_loop.thisRepN,prac_stimorientation_import_loop.thisTrialN,prac_stimorientation_import_loop.thisN,prac_stimorientation_import_loop.thisIndex,prac_stimorientation_import_loop.ran,Stimorientation,welcome_instr.started,welcome_instr.stopped,key_resp.keys,key_resp.rt,key_resp.duration,response_steppedout_1.started,response_steppedout_1.stopped,key_resp_20.keys,key_resp_20.rt,key_resp_20.duration,response_steppedout_2.started,response_steppedout_2.stopped,key_resp_19.keys,key_resp_19.rt,key_resp_19.duration,stim_response_instr.started,stim_response_instr.stopped,key_resp_15.keys,key_resp_15.rt,key_resp_15.duration,direction_instr_2.started,direction_instr_2.stopped,key_resp_9.keys,key_resp_9.rt,key_resp_9.duration,instr_prac.started,instr_prac.stopped,key_resp_10.keys,key_resp_10.rt,key_resp_10.duration,Stim1_display_prac.started,Stim1_display_prac.stopped,Ecc,Circle1_ori,Circle2_ori,response_prac.started,similarity,response_time,response_prac.stopped,mouse_5.x,mouse_5.y,mouse_5.leftButton,mouse_5.midButton,mouse_5.rightButton,mouse_5.clicked_name,responseprac_feedback.started,responseprac_feedback.stopped,summary2_prac.started,summary2_prac.stopped,mouse_6.x,mouse_6.y,mouse_6.leftButton,mouse_6.midButton,mouse_6.rightButton,mouse_6.clicked_name,duringprac.thisRepN,duringprac.thisTrialN,duringprac.thisN,duringprac.thisIndex,duringprac.ran,begin.started,begin.stopped,key_resp_22.keys,key_resp_22.rt,key_resp_22.duration,Stim1_display.started,Stim1_display.stopped,circle1_ori,circle2_ori,circle1_SF,circle2_SF,response.started,response.stopped,mouse.x,mouse.y,mouse.leftButton,mouse.midButton,mouse.rightButton,mouse.clicked_name,trialnumber,double_pass.thisRepN,double_pass.thisTrialN,double_pass.thisN,double_pass.thisIndex,double_pass.ran,double_pass.order,main_trial.thisRepN,main_trial.thisTrialN,main_trial.thisN,main_trial.thisIndex,main_trial.ran,main_trial.order,Trial_Counter,Catch,Frequencies,response_2.started,response_2.stopped,mouse_2.x,mouse_2.y,mouse_2.leftButton,mouse_2.midButton,mouse_2.rightButton,mouse_2.clicked_name,special_trial.started,special_trial.stopped,catch_1.started,catch_1.stopped,mouse_3.x,mouse_3.y,mouse_3.leftButton,mouse_3.midButton,mouse_3.rightButton,catchresponse,catchnumber,response_time_catch,response_sum.started,response_sum.stopped,mouse_11.x,mouse_11.y,mouse_11.leftButton,mouse_11.midButton,mouse_11.rightButton,flip_presentation_sequence_for_double_pass.started,flip_presentation_sequence_for_double_pass.stopped,goodbye.started,goodbye.stopped,key_resp_3.keys,key_resp_3.rt,key_resp_3.duration
0.0008,0.0009,615ca96d7640b6c31b9e4462,2024-02-18_20h08.20.155,kallum_motion_pilot,2023.2.2,Win32,10,615ca96d7640b6c31b9e4462,65d2b6c8f2eece985d8e374c,65d2b8000a1be524617363ed,,,,,,,,,,,,,,,,,,,,,,,,,,,,,,,,,,,,,,,,,,,,,,,,,,,,,,,,,,,,,,,,,,,,,,,,,,,,,,,,,,,,,,,,,,,,,,,,,,,,,,,,,,,,,,,,,,,,,,,,,,,,,,,,,,,,,,,,,,,,,,,,,
,,615ca96d7640b6c31b9e4462,2024-02-18_20h08.20.155,kallum_motion_pilot,2023.2.2,Win32,10,615ca96d7640b6c31b9e4462,65d2b6c8f2eece985d8e374c,65d2b8000a1be524617363ed,0.0314,0.0316,0,0,0,67,1,twofour,,,,,,,,,,,,,,,,,,,,,,,,,,,,,,,,,,,,,,,,,,,,,,,,,,,,,,,,,,,,,,,,,,,,,,,,,,,,,,,,,,,,,,,,,,,,,,,,,,,,,,,,,,,,,,,,,,,,,,,,,,,,,,,,,,,,,,,,,
,,615ca96d7640b6c31b9e4462,2024-02-18_20h08.20.155,kallum_motion_pilot,2023.2.2,Win32,10,615ca96d7640b6c31b9e4462,65d2b6c8f2eece985d8e374c,65d2b8000a1be524617363ed,0.0318,0.0319,0,1,1,51,1,twofour,,,,,,,,,,,,,,,,,,,,,,,,,,,,,,,,,,,,,,,,,,,,,,,,,,,,,,,,,,,,,,,,,,,,,,,,,,,,,,,,,,,,,,,,,,,,,,,,,,,,,,,,,,,,,,,,,,,,,,,,,,,,,,,,,,,,,,,,,
,,615ca96d7640b6c31b9e4462,2024-02-18_20h08.20.155,kallum_motion_pilot,2023.2.2,Win32,10,615ca96d7640b6c31b9e4462,65d2b6c8f2eece985d8e374c,65d2b8000a1be524617363ed,0.0321,0.0321,0,2,2,118,1,eightsix,,,,,,,,,,,,,,,,,,,,,,,,,,,,,,,,,,,,,,,,,,,,,,,,,,,,,,,,,,,,,,,,,,,,,,,,,,,,,,,,,,,,,,,,,,,,,,,,,,,,,,,,,,,,,,,,,,,,,,,,,,,,,,,,,,,,,,,,,
,,615ca96d7640b6c31b9e4462,2024-02-18_20h08.20.155,kallum_motion_pilot,2023.2.2,Win32,10,615ca96d7640b6c31b9e4462,65d2b6c8f2eece985d8e374c,65d2b8000a1be524617363ed,0.0323,0.0324,0,3,3,35,1,twofour,,,,,,,,,,,,,,,,,,,,,,,,,,,,,,,,,,,,,,,,,,,,,,,,,,,,,,,,,,,,,,,,,,,,,,,,,,,,,,,,,,,,,,,,,,,,,,,,,,,,,,,,,,,,,,,,,,,,,,,,,,,,,,,,,,,,,,,,,
,,615ca96d7640b6c31b9e4462,2024-02-18_20h08.20.155,kallum_motion_pilot,2023.2.2,Win32,10,615ca96d7640b6c31b9e4462,65d2b6c8f2eece985d8e374c,65d2b8000a1be524617363ed,0.0324,0.0325,0,4,4,125,1,seveneight,,,,,,,,,,,,,,,,,,,,,,,,,,,,,,,,,,,,,,,,,,,,,,,,,,,,,,,,,,,,,,,,,,,,,,,,,,,,,,,,,,,,,,,,,,,,,,,,,,,,,,,,,,,,,,,,,,,,,,,,,,,,,,,,,,,,,,,,,
,,615ca96d7640b6c31b9e4462,2024-02-18_20h08.20.155,kallum_motion_pilot,2023.2.2,Win32,10,615ca96d7640b6c31b9e4462,65d2b6c8f2eece985d8e374c,65d2b8000a1be524617363ed,0.0327,0.0327,0,5,5,48,1,onetwo,,,,,,,,,,,,,,,,,,,,,,,,,,,,,,,,,,,,,,,,,,,,,,,,,,,,,,,,,,,,,,,,,,,,,,,,,,,,,,,,,,,,,,,,,,,,,,,,,,,,,,,,,,,,,,,,,,,,,,,,,,,,,,,,,,,,,,,,,
,,615ca96d7640b6c31b9e4462,2024-02-18_20h08.20.155,kallum_motion_pilot,2023.2.2,Win32,10,615ca96d7640b6c31b9e4462,65d2b6c8f2eece985d8e374c,65d2b8000a1be524617363ed,0.0328,0.0328,0,6,6,52,1,threeone,,,,,,,,,,,,,,,,,,,,,,,,,,,,,,,,,,,,,,,,,,,,,,,,,,,,,,,,,,,,,,,,,,,,,,,,,,,,,,,,,,,,,,,,,,,,,,,,,,,,,,,,,,,,,,,,,,,,,,,,,,,,,,,,,,,,,,,,,
,,615ca96d7640b6c31b9e4462,2024-02-18_20h08.20.155,kallum_motion_pilot,2023.2.2,Win32,10,615ca96d7640b6c31b9e4462,65d2b6c8f2eece985d8e374c,65d2b8000a1be524617363ed,0.0329,0.0329,0,7,7,104,1,fivesix,,,,,,,,,,,,,,,,,,,,,,,,,,,,,,,,,,,,,,,,,,,,,,,,,,,,,,,,,,,,,,,,,,,,,,,,,,,,,,,,,,,,,,,,,,,,,,,,,,,,,,,,,,,,,,,,,,,,,,,,,,,,,,,,,,,,,,,,,
,,615ca96d7640b6c31b9e4462,2024-02-18_20h08.20.155,kallum_motion_pilot,2023.2.2,Win32,10,615ca96d7640b6c31b9e4462,65d2b6c8f2eece985d8e374c,65d2b8000a1be524617363ed,0.0332,0.0333,0,8,8,141,1,seveneight,,,,,,,,,,,,,,,,,,,,,,,,,,,,,,,,,,,,,,,,,,,,,,,,,,,,,,,,,,,,,,,,,,,,,,,,,,,,,,,,,,,,,,,,,,,,,,,,,,,,,,,,,,,,,,,,,,,,,,,,,,,,,,,,,,,,,,,,,
,,615ca96d7640b6c31b9e4462,2024-02-18_20h08.20.155,kallum_motion_pilot,2023.2.2,Win32,10,615ca96d7640b6c31b9e4462,65d2b6c8f2eece985d8e374c,65d2b8000a1be524617363ed,0.0334,0.0334,0,9,9,129,1,fiveseven,,,,,,,,,,,,,,,,,,,,,,,,,,,,,,,,,,,,,,,,,,,,,,,,,,,,,,,,,,,,,,,,,,,,,,,,,,,,,,,,,,,,,,,,,,,,,,,,,,,,,,,,,,,,,,,,,,,,,,,,,,,,,,,,,,,,,,,,,
,,615ca96d7640b6c31b9e4462,2024-02-18_20h08.20.155,kallum_motion_pilot,2023.2.2,Win32,10,615ca96d7640b6c31b9e4462,65d2b6c8f2eece985d8e374c,65d2b8000a1be524617363ed,0.0336,0.0336,0,10,10,157,1,seveneight,,,,,,,,,,,,,,,,,,,,,,,,,,,,,,,,,,,,,,,,,,,,,,,,,,,,,,,,,,,,,,,,,,,,,,,,,,,,,,,,,,,,,,,,,,,,,,,,,,,,,,,,,,,,,,,,,,,,,,,,,,,,,,,,,,,,,,,,,
,,615ca96d7640b6c31b9e4462,2024-02-18_20h08.20.155,kallum_motion_pilot,2023.2.2,Win32,10,615ca96d7640b6c31b9e4462,65d2b6c8f2eece985d8e374c,65d2b8000a1be524617363ed,0.0338,0.0338,0,11,11,18,1,twoone,,,,,,,,,,,,,,,,,,,,,,,,,,,,,,,,,,,,,,,,,,,,,,,,,,,,,,,,,,,,,,,,,,,,,,,,,,,,,,,,,,,,,,,,,,,,,,,,,,,,,,,,,,,,,,,,,,,,,,,,,,,,,,,,,,,,,,,,,
,,615ca96d7640b6c31b9e4462,2024-02-18_20h08.20.155,kallum_motion_pilot,2023.2.2,Win32,10,615ca96d7640b6c31b9e4462,65d2b6c8f2eece985d8e374c,65d2b8000a1be524617363ed,0.0341,0.0341,0,12,12,45,1,threefour,,,,,,,,,,,,,,,,,,,,,,,,,,,,,,,,,,,,,,,,,,,,,,,,,,,,,,,,,,,,,,,,,,,,,,,,,,,,,,,,,,,,,,,,,,,,,,,,,,,,,,,,,,,,,,,,,,,,,,,,,,,,,,,,,,,,,,,,,
,,615ca96d7640b6c31b9e4462,2024-02-18_20h08.20.155,kallum_motion_pilot,2023.2.2,Win32,10,615ca96d7640b6c31b9e4462,65d2b6c8f2eece985d8e374c,65d2b8000a1be524617363ed,0.0342,0.0343,0,13,13,84,1,sevenfive,,,,,,,,,,,,,,,,,,,,,,,,,,,,,,,,,,,,,,,,,,,,,,,,,,,,,,,,,,,,,,,,,,,,,,,,,,,,,,,,,,,,,,,,,,,,,,,,,,,,,,,,,,,,,,,,,,,,,,,,,,,,,,,,,,,,,,,,,
,,615ca96d7640b6c31b9e4462,2024-02-18_20h08.20.155,kallum_motion_pilot,2023.2.2,Win32,10,615ca96d7640b6c31b9e4462,65d2b6c8f2eece985d8e374c,65d2b8000a1be524617363ed,0.0344,0.0344,0,14,14,9,1,onethree,,,,,,,,,,,,,,,,,,,,,,,,,,,,,,,,,,,,,,,,,,,,,,,,,,,,,,,,,,,,,,,,,,,,,,,,,,,,,,,,,,,,,,,,,,,,,,,,,,,,,,,,,,,,,,,,,,,,,,,,,,,,,,,,,,,,,,,,,
,,615ca96d7640b6c31b9e4462,2024-02-18_20h08.20.155,kallum_motion_pilot,2023.2.2,Win32,10,615ca96d7640b6c31b9e4462,65d2b6c8f2eece985d8e374c,65d2b8000a1be524617363ed,0.0345,0.0345,0,15,15,27,1,twofour,,,,,,,,,,,,,,,,,,,,,,,,,,,,,,,,,,,,,,,,,,,,,,,,,,,,,,,,,,,,,,,,,,,,,,,,,,,,,,,,,,,,,,,,,,,,,,,,,,,,,,,,,,,,,,,,,,,,,,,,,,,,,,,,,,,,,,,,,
,,615ca96d7640b6c31b9e4462,2024-02-18_20h08.20.155,kallum_motion_pilot,2023.2.2,Win32,10,615ca96d7640b6c31b9e4462,65d2b6c8f2eece985d8e374c,65d2b8000a1be524617363ed,0.0347,0.0347,0,16,16,8,1,onetwo,,,,,,,,,,,,,,,,,,,,,,,,,,,,,,,,,,,,,,,,,,,,,,,,,,,,,,,,,,,,,,,,,,,,,,,,,,,,,,,,,,,,,,,,,,,,,,,,,,,,,,,,,,,,,,,,,,,,,,,,,,,,,,,,,,,,,,,,,
,,615ca96d7640b6c31b9e4462,2024-02-18_20h08.20.155,kallum_motion_pilot,2023.2.2,Win32,10,615ca96d7640b6c31b9e4462,65d2b6c8f2eece985d8e374c,65d2b8000a1be524617363ed,0.0348,0.0348,0,17,17,12,1,threeone,,,,,,,,,,,,,,,,,,,,,,,,,,,,,,,,,,,,,,,,,,,,,,,,,,,,,,,,,,,,,,,,,,,,,,,,,,,,,,,,,,,,,,,,,,,,,,,,,,,,,,,,,,,,,,,,,,,,,,,,,,,,,,,,,,,,,,,,,
,,615ca96d7640b6c31b9e4462,2024-02-18_20h08.20.155,kallum_motion_pilot,2023.2.2,Win32,10,615ca96d7640b6c31b9e4462,65d2b6c8f2eece985d8e374c,65d2b8000a1be524617363ed,0.035,0.035,0,18,18,158,1,eightsix,,,,,,,,,,,,,,,,,,,,,,,,,,,,,,,,,,,,,,,,,,,,,,,,,,,,,,,,,,,,,,,,,,,,,,,,,,,,,,,,,,,,,,,,,,,,,,,,,,,,,,,,,,,,,,,,,,,,,,,,,,,,,,,,,,,,,,,,,
,,615ca96d7640b6c31b9e4462,2024-02-18_20h08.20.155,kallum_motion_pilot,2023.2.2,Win32,10,615ca96d7640b6c31b9e4462,65d2b6c8f2eece985d8e374c,65d2b8000a1be524617363ed,0.0351,0.0353,0,19,19,87,1,eightseven,,,,,,,,,,,,,,,,,,,,,,,,,,,,,,,,,,,,,,,,,,,,,,,,,,,,,,,,,,,,,,,,,,,,,,,,,,,,,,,,,,,,,,,,,,,,,,,,,,,,,,,,,,,,,,,,,,,,,,,,,,,,,,,,,,,,,,,,,
,,615ca96d7640b6c31b9e4462,2024-02-18_20h08.20.155,kallum_motion_pilot,2023.2.2,Win32,10,615ca96d7640b6c31b9e4462,65d2b6c8f2eece985d8e374c,65d2b8000a1be524617363ed,0.0354,0.0354,0,20,20,31,1,fourthree,,,,,,,,,,,,,,,,,,,,,,,,,,,,,,,,,,,,,,,,,,,,,,,,,,,,,,,,,,,,,,,,,,,,,,,,,,,,,,,,,,,,,,,,,,,,,,,,,,,,,,,,,,,,,,,,,,,,,,,,,,,,,,,,,,,,,,,,,
,,615ca96d7640b6c31b9e4462,2024-02-18_20h08.20.155,kallum_motion_pilot,2023.2.2,Win32,10,615ca96d7640b6c31b9e4462,65d2b6c8f2eece985d8e374c,65d2b8000a1be524617363ed,0.0355,0.0357,0,21,21,152,1,fivesix,,,,,,,,,,,,,,,,,,,,,,,,,,,,,,,,,,,,,,,,,,,,,,,,,,,,,,,,,,,,,,,,,,,,,,,,,,,,,,,,,,,,,,,,,,,,,,,,,,,,,,,,,,,,,,,,,,,,,,,,,,,,,,,,,,,,,,,,,
,,615ca96d7640b6c31b9e4462,2024-02-18_20h08.20.155,kallum_motion_pilot,2023.2.2,Win32,10,615ca96d7640b6c31b9e4462,65d2b6c8f2eece985d8e374c,65d2b8000a1be524617363ed,0.0358,0.0358,0,22,22,117,1,seveneight,,,,,,,,,,,,,,,,,,,,,,,,,,,,,,,,,,,,,,,,,,,,,,,,,,,,,,,,,,,,,,,,,,,,,,,,,,,,,,,,,,,,,,,,,,,,,,,,,,,,,,,,,,,,,,,,,,,,,,,,,,,,,,,,,,,,,,,,,
,,615ca96d7640b6c31b9e4462,2024-02-18_20h08.20.155,kallum_motion_pilot,2023.2.2,Win32,10,615ca96d7640b6c31b9e4462,65d2b6c8f2eece985d8e374c,65d2b8000a1be524617363ed,0.036,0.0361,0,23,23,98,1,sixfive,,,,,,,,,,,,,,,,,,,,,,,,,,,,,,,,,,,,,,,,,,,,,,,,,,,,,,,,,,,,,,,,,,,,,,,,,,,,,,,,,,,,,,,,,,,,,,,,,,,,,,,,,,,,,,,,,,,,,,,,,,,,,,,,,,,,,,,,,
,,615ca96d7640b6c31b9e4462,2024-02-18_20h08.20.155,kallum_motion_pilot,2023.2.2,Win32,10,615ca96d7640b6c31b9e4462,65d2b6c8f2eece985d8e374c,65d2b8000a1be524617363ed,0.0362,0.0362,0,24,24,100,1,sevenfive,,,,,,,,,,,,,,,,,,,,,,,,,,,,,,,,,,,,,,,,,,,,,,,,,,,,,,,,,,,,,,,,,,,,,,,,,,,,,,,,,,,,,,,,,,,,,,,,,,,,,,,,,,,,,,,,,,,,,,,,,,,,,,,,,,,,,,,,,
,,615ca96d7640b6c31b9e4462,2024-02-18_20h08.20.155,kallum_motion_pilot,2023.2.2,Win32,10,615ca96d7640b6c31b9e4462,65d2b6c8f2eece985d8e374c,65d2b8000a1be524617363ed,0.0364,0.0365,0,25,25,21,1,threefour,,,,,,,,,,,,,,,,,,,,,,,,,,,,,,,,,,,,,,,,,,,,,,,,,,,,,,,,,,,,,,,,,,,,,,,,,,,,,,,,,,,,,,,,,,,,,,,,,,,,,,,,,,,,,,,,,,,,,,,,,,,,,,,,,,,,,,,,,
,,615ca96d7640b6c31b9e4462,2024-02-18_20h08.20.155,kallum_motion_pilot,2023.2.2,Win32,10,615ca96d7640b6c31b9e4462,65d2b6c8f2eece985d8e374c,65d2b8000a1be524617363ed,0.0365,0.0366,0,26,26,14,1,fourtwo,,,,,,,,,,,,,,,,,,,,,,,,,,,,,,,,,,,,,,,,,,,,,,,,,,,,,,,,,,,,,,,,,,,,,,,,,,,,,,,,,,,,,,,,,,,,,,,,,,,,,,,,,,,,,,,,,,,,,,,,,,,,,,,,,,,,,,,,,
,,615ca96d7640b6c31b9e4462,2024-02-18_20h08.20.155,kallum_motion_pilot,2023.2.2,Win32,10,615ca96d7640b6c31b9e4462,65d2b6c8f2eece985d8e374c,65d2b8000a1be524617363ed,0.0367,0.0368,0,27,27,124,1,sevenfive,,,,,,,,,,,,,,,,,,,,,,,,,,,,,,,,,,,,,,,,,,,,,,,,,,,,,,,,,,,,,,,,,,,,,,,,,,,,,,,,,,,,,,,,,,,,,,,,,,,,,,,,,,,,,,,,,,,,,,,,,,,,,,,,,,,,,,,,,
,,615ca96d7640b6c31b9e4462,2024-02-18_20h08.20.155,kallum_motion_pilot,2023.2.2,Win32,10,615ca96d7640b6c31b9e4462,65d2b6c8f2eece985d8e374c,65d2b8000a1be524617363ed,0.0368,0.0368,0,28,28,123,1,sixeight,,,,,,,,,,,,,,,,,,,,,,,,,,,,,,,,,,,,,,,,,,,,,,,,,,,,,,,,,,,,,,,,,,,,,,,,,,,,,,,,,,,,,,,,,,,,,,,,,,,,,,,,,,,,,,,,,,,,,,,,,,,,,,,,,,,,,,,,,
,,615ca96d7640b6c31b9e4462,2024-02-18_20h08.20.155,kallum_motion_pilot,2023.2.2,Win32,10,615ca96d7640b6c31b9e4462,65d2b6c8f2eece985d8e374c,65d2b8000a1be524617363ed,0.037,0.037,0,29,29,140,1,sevenfive,,,,,,,,,,,,,,,,,,,,,,,,,,,,,,,,,,,,,,,,,,,,,,,,,,,,,,,,,,,,,,,,,,,,,,,,,,,,,,,,,,,,,,,,,,,,,,,,,,,,,,,,,,,,,,,,,,,,,,,,,,,,,,,,,,,,,,,,,
,,615ca96d7640b6c31b9e4462,2024-02-18_20h08.20.155,kallum_motion_pilot,2023.2.2,Win32,10,615ca96d7640b6c31b9e4462,65d2b6c8f2eece985d8e374c,65d2b8000a1be524617363ed,0.0371,0.0371,0,30,30,153,1,fiveseven,,,,,,,,,,,,,,,,,,,,,,,,,,,,,,,,,,,,,,,,,,,,,,,,,,,,,,,,,,,,,,,,,,,,,,,,,,,,,,,,,,,,,,,,,,,,,,,,,,,,,,,,,,,,,,,,,,,,,,,,,,,,,,,,,,,,,,,,,
,,615ca96d7640b6c31b9e4462,2024-02-18_20h08.20.155,kallum_motion_pilot,2023.2.2,Win32,10,615ca96d7640b6c31b9e4462,65d2b6c8f2eece985d8e374c,65d2b8000a1be524617363ed,0.0372,0.0372,0,31,31,91,1,sixeight,,,,,,,,,,,,,,,,,,,,,,,,,,,,,,,,,,,,,,,,,,,,,,,,,,,,,,,,,,,,,,,,,,,,,,,,,,,,,,,,,,,,,,,,,,,,,,,,,,,,,,,,,,,,,,,,,,,,,,,,,,,,,,,,,,,,,,,,,
,,615ca96d7640b6c31b9e4462,2024-02-18_20h08.20.155,kallum_motion_pilot,2023.2.2,Win32,10,615ca96d7640b6c31b9e4462,65d2b6c8f2eece985d8e374c,65d2b8000a1be524617363ed,0.0372,0.0373,0,32,32,53,1,threefour,,,,,,,,,,,,,,,,,,,,,,,,,,,,,,,,,,,,,,,,,,,,,,,,,,,,,,,,,,,,,,,,,,,,,,,,,,,,,,,,,,,,,,,,,,,,,,,,,,,,,,,,,,,,,,,,,,,,,,,,,,,,,,,,,,,,,,,,,
,,615ca96d7640b6c31b9e4462,2024-02-18_20h08.20.155,kallum_motion_pilot,2023.2.2,Win32,10,615ca96d7640b6c31b9e4462,65d2b6c8f2eece985d8e374c,65d2b8000a1be524617363ed,0.0374,0.0374,0,33,33,105,1,fiveseven,,,,,,,,,,,,,,,,,,,,,,,,,,,,,,,,,,,,,,,,,,,,,,,,,,,,,,,,,,,,,,,,,,,,,,,,,,,,,,,,,,,,,,,,,,,,,,,,,,,,,,,,,,,,,,,,,,,,,,,,,,,,,,,,,,,,,,,,,
,,615ca96d7640b6c31b9e4462,2024-02-18_20h08.20.155,kallum_motion_pilot,2023.2.2,Win32,10,615ca96d7640b6c31b9e4462,65d2b6c8f2eece985d8e374c,65d2b8000a1be524617363ed,0.0375,0.0376,0,34,34,78,1,fourtwo,,,,,,,,,,,,,,,,,,,,,,,,,,,,,,,,,,,,,,,,,,,,,,,,,,,,,,,,,,,,,,,,,,,,,,,,,,,,,,,,,,,,,,,,,,,,,,,,,,,,,,,,,,,,,,,,,,,,,,,,,,,,,,,,,,,,,,,,,
,,615ca96d7640b6c31b9e4462,2024-02-18_20h08.20.155,kallum_motion_pilot,2023.2.2,Win32,10,615ca96d7640b6c31b9e4462,65d2b6c8f2eece985d8e374c,65d2b8000a1be524617363ed,0.0376,0.0377,0,35,35,22,1,fourtwo,,,,,,,,,,,,,,,,,,,,,,,,,,,,,,,,,,,,,,,,,,,,,,,,,,,,,,,,,,,,,,,,,,,,,,,,,,,,,,,,,,,,,,,,,,,,,,,,,,,,,,,,,,,,,,,,,,,,,,,,,,,,,,,,,,,,,,,,,
,,615ca96d7640b6c31b9e4462,2024-02-18_20h08.20.155,kallum_motion_pilot,2023.2.2,Win32,10,615ca96d7640b6c31b9e4462,65d2b6c8f2eece985d8e374c,65d2b8000a1be524617363ed,0.0378,0.0378,0,36,36,102,1,eightsix,,,,,,,,,,,,,,,,,,,,,,,,,,,,,,,,,,,,,,,,,,,,,,,,,,,,,,,,,,,,,,,,,,,,,,,,,,,,,,,,,,,,,,,,,,,,,,,,,,,,,,,,,,,,,,,,,,,,,,,,,,,,,,,,,,,,,,,,,
,,615ca96d7640b6c31b9e4462,2024-02-18_20h08.20.155,kallum_motion_pilot,2023.2.2,Win32,10,615ca96d7640b6c31b9e4462,65d2b6c8f2eece985d8e374c,65d2b8000a1be524617363ed,0.0379,0.038,0,37,37,62,1,fourtwo,,,,,,,,,,,,,,,,,,,,,,,,,,,,,,,,,,,,,,,,,,,,,,,,,,,,,,,,,,,,,,,,,,,,,,,,,,,,,,,,,,,,,,,,,,,,,,,,,,,,,,,,,,,,,,,,,,,,,,,,,,,,,,,,,,,,,,,,,
,,615ca96d7640b6c31b9e4462,2024-02-18_20h08.20.155,kallum_motion_pilot,2023.2.2,Win32,10,615ca96d7640b6c31b9e4462,65d2b6c8f2eece985d8e374c,65d2b8000a1be524617363ed,0.038,0.0381,0,38,38,110,1,eightsix,,,,,,,,,,,,,,,,,,,,,,,,,,,,,,,,,,,,,,,,,,,,,,,,,,,,,,,,,,,,,,,,,,,,,,,,,,,,,,,,,,,,,,,,,,,,,,,,,,,,,,,,,,,,,,,,,,,,,,,,,,,,,,,,,,,,,,,,,
,,615ca96d7640b6c31b9e4462,2024-02-18_20h08.20.155,kallum_motion_pilot,2023.2.2,Win32,10,615ca96d7640b6c31b9e4462,65d2b6c8f2eece985d8e374c,65d2b8000a1be524617363ed,0.0381,0.0382,0,39,39,40,1,onetwo,,,,,,,,,,,,,,,,,,,,,,,,,,,,,,,,,,,,,,,,,,,,,,,,,,,,,,,,,,,,,,,,,,,,,,,,,,,,,,,,,,,,,,,,,,,,,,,,,,,,,,,,,,,,,,,,,,,,,,,,,,,,,,,,,,,,,,,,,
,,615ca96d7640b6c31b9e4462,2024-02-18_20h08.20.155,kallum_motion_pilot,2023.2.2,Win32,10,615ca96d7640b6c31b9e4462,65d2b6c8f2eece985d8e374c,65d2b8000a1be524617363ed,0.0383,0.0383,0,40,40,39,1,fourthree,,,,,,,,,,,,,,,,,,,,,,,,,,,,,,,,,,,,,,,,,,,,,,,,,,,,,,,,,,,,,,,,,,,,,,,,,,,,,,,,,,,,,,,,,,,,,,,,,,,,,,,,,,,,,,,,,,,,,,,,,,,,,,,,,,,,,,,,,
,,615ca96d7640b6c31b9e4462,2024-02-18_20h08.20.155,kallum_motion_pilot,2023.2.2,Win32,10,615ca96d7640b6c31b9e4462,65d2b6c8f2eece985d8e374c,65d2b8000a1be524617363ed,0.0385,0.0385,0,41,41,55,1,fourthree,,,,,,,,,,,,,,,,,,,,,,,,,,,,,,,,,,,,,,,,,,,,,,,,,,,,,,,,,,,,,,,,,,,,,,,,,,,,,,,,,,,,,,,,,,,,,,,,,,,,,,,,,,,,,,,,,,,,,,,,,,,,,,,,,,,,,,,,,
,,615ca96d7640b6c31b9e4462,2024-02-18_20h08.20.155,kallum_motion_pilot,2023.2.2,Win32,10,615ca96d7640b6c31b9e4462,65d2b6c8f2eece985d8e374c,65d2b8000a1be524617363ed,0.0386,0.0386,0,42,42,38,1,fourtwo,,,,,,,,,,,,,,,,,,,,,,,,,,,,,,,,,,,,,,,,,,,,,,,,,,,,,,,,,,,,,,,,,,,,,,,,,,,,,,,,,,,,,,,,,,,,,,,,,,,,,,,,,,,,,,,,,,,,,,,,,,,,,,,,,,,,,,,,,
,,615ca96d7640b6c31b9e4462,2024-02-18_20h08.20.155,kallum_motion_pilot,2023.2.2,Win32,10,615ca96d7640b6c31b9e4462,65d2b6c8f2eece985d8e374c,65d2b8000a1be524617363ed,0.0387,0.0387,0,43,43,155,1,sixeight,,,,,,,,,,,,,,,,,,,,,,,,,,,,,,,,,,,,,,,,,,,,,,,,,,,,,,,,,,,,,,,,,,,,,,,,,,,,,,,,,,,,,,,,,,,,,,,,,,,,,,,,,,,,,,,,,,,,,,,,,,,,,,,,,,,,,,,,,
,,615ca96d7640b6c31b9e4462,2024-02-18_20h08.20.155,kallum_motion_pilot,2023.2.2,Win32,10,615ca96d7640b6c31b9e4462,65d2b6c8f2eece985d8e374c,65d2b8000a1be524617363ed,0.0389,0.0389,0,44,44,156,1,sevenfive,,,,,,,,,,,,,,,,,,,,,,,,,,,,,,,,,,,,,,,,,,,,,,,,,,,,,,,,,,,,,,,,,,,,,,,,,,,,,,,,,,,,,,,,,,,,,,,,,,,,,,,,,,,,,,,,,,,,,,,,,,,,,,,,,,,,,,,,,
,,615ca96d7640b6c31b9e4462,2024-02-18_20h08.20.155,kallum_motion_pilot,2023.2.2,Win32,10,615ca96d7640b6c31b9e4462,65d2b6c8f2eece985d8e374c,65d2b8000a1be524617363ed,0.0389,0.039,0,45,45,56,1,onetwo,,,,,,,,,,,,,,,,,,,,,,,,,,,,,,,,,,,,,,,,,,,,,,,,,,,,,,,,,,,,,,,,,,,,,,,,,,,,,,,,,,,,,,,,,,,,,,,,,,,,,,,,,,,,,,,,,,,,,,,,,,,,,,,,,,,,,,,,,
,,615ca96d7640b6c31b9e4462,2024-02-18_20h08.20.155,kallum_motion_pilot,2023.2.2,Win32,10,615ca96d7640b6c31b9e4462,65d2b6c8f2eece985d8e374c,65d2b8000a1be524617363ed,0.0391,0.0392,0,46,46,116,1,sevenfive,,,,,,,,,,,,,,,,,,,,,,,,,,,,,,,,,,,,,,,,,,,,,,,,,,,,,,,,,,,,,,,,,,,,,,,,,,,,,,,,,,,,,,,,,,,,,,,,,,,,,,,,,,,,,,,,,,,,,,,,,,,,,,,,,,,,,,,,,
,,615ca96d7640b6c31b9e4462,2024-02-18_20h08.20.155,kallum_motion_pilot,2023.2.2,Win32,10,615ca96d7640b6c31b9e4462,65d2b6c8f2eece985d8e374c,65d2b8000a1be524617363ed,0.0393,0.0393,0,47,47,70,1,fourtwo,,,,,,,,,,,,,,,,,,,,,,,,,,,,,,,,,,,,,,,,,,,,,,,,,,,,,,,,,,,,,,,,,,,,,,,,,,,,,,,,,,,,,,,,,,,,,,,,,,,,,,,,,,,,,,,,,,,,,,,,,,,,,,,,,,,,,,,,,
,,615ca96d7640b6c31b9e4462,2024-02-18_20h08.20.155,kallum_motion_pilot,2023.2.2,Win32,10,615ca96d7640b6c31b9e4462,65d2b6c8f2eece985d8e374c,65d2b8000a1be524617363ed,0.0394,0.0394,0,48,48,0,1,onetwo,,,,,,,,,,,,,,,,,,,,,,,,,,,,,,,,,,,,,,,,,,,,,,,,,,,,,,,,,,,,,,,,,,,,,,,,,,,,,,,,,,,,,,,,,,,,,,,,,,,,,,,,,,,,,,,,,,,,,,,,,,,,,,,,,,,,,,,,,
,,615ca96d7640b6c31b9e4462,2024-02-18_20h08.20.155,kallum_motion_pilot,2023.2.2,Win32,10,615ca96d7640b6c31b9e4462,65d2b6c8f2eece985d8e374c,65d2b8000a1be524617363ed,0.0396,0.0396,0,49,49,95,1,eightseven,,,,,,,,,,,,,,,,,,,,,,,,,,,,,,,,,,,,,,,,,,,,,,,,,,,,,,,,,,,,,,,,,,,,,,,,,,,,,,,,,,,,,,,,,,,,,,,,,,,,,,,,,,,,,,,,,,,,,,,,,,,,,,,,,,,,,,,,,
,,615ca96d7640b6c31b9e4462,2024-02-18_20h08.20.155,kallum_motion_pilot,2023.2.2,Win32,10,615ca96d7640b6c31b9e4462,65d2b6c8f2eece985d8e374c,65d2b8000a1be524617363ed,0.0397,0.0397,0,50,50,126,1,eightsix,,,,,,,,,,,,,,,,,,,,,,,,,,,,,,,,,,,,,,,,,,,,,,,,,,,,,,,,,,,,,,,,,,,,,,,,,,,,,,,,,,,,,,,,,,,,,,,,,,,,,,,,,,,,,,,,,,,,,,,,,,,,,,,,,,,,,,,,,
,,615ca96d7640b6c31b9e4462,2024-02-18_20h08.20.155,kallum_motion_pilot,2023.2.2,Win32,10,615ca96d7640b6c31b9e4462,65d2b6c8f2eece985d8e374c,65d2b8000a1be524617363ed,0.0399,0.0399,0,51,51,80,1,fivesix,,,,,,,,,,,,,,,,,,,,,,,,,,,,,,,,,,,,,,,,,,,,,,,,,,,,,,,,,,,,,,,,,,,,,,,,,,,,,,,,,,,,,,,,,,,,,,,,,,,,,,,,,,,,,,,,,,,,,,,,,,,,,,,,,,,,,,,,,
,,615ca96d7640b6c31b9e4462,2024-02-18_20h08.20.155,kallum_motion_pilot,2023.2.2,Win32,10,615ca96d7640b6c31b9e4462,65d2b6c8f2eece985d8e374c,65d2b8000a1be524617363ed,0.04,0.04,0,52,52,101,1,seveneight,,,,,,,,,,,,,,,,,,,,,,,,,,,,,,,,,,,,,,,,,,,,,,,,,,,,,,,,,,,,,,,,,,,,,,,,,,,,,,,,,,,,,,,,,,,,,,,,,,,,,,,,,,,,,,,,,,,,,,,,,,,,,,,,,,,,,,,,,
,,615ca96d7640b6c31b9e4462,2024-02-18_20h08.20.155,kallum_motion_pilot,2023.2.2,Win32,10,615ca96d7640b6c31b9e4462,65d2b6c8f2eece985d8e374c,65d2b8000a1be524617363ed,0.0402,0.0402,0,53,53,115,1,sixeight,,,,,,,,,,,,,,,,,,,,,,,,,,,,,,,,,,,,,,,,,,,,,,,,,,,,,,,,,,,,,,,,,,,,,,,,,,,,,,,,,,,,,,,,,,,,,,,,,,,,,,,,,,,,,,,,,,,,,,,,,,,,,,,,,,,,,,,,,
,,615ca96d7640b6c31b9e4462,2024-02-18_20h08.20.155,kallum_motion_pilot,2023.2.2,Win32,10,615ca96d7640b6c31b9e4462,65d2b6c8f2eece985d8e374c,65d2b8000a1be524617363ed,0.0403,0.0404,0,54,54,5,1,threefour,,,,,,,,,,,,,,,,,,,,,,,,,,,,,,,,,,,,,,,,,,,,,,,,,,,,,,,,,,,,,,,,,,,,,,,,,,,,,,,,,,,,,,,,,,,,,,,,,,,,,,,,,,,,,,,,,,,,,,,,,,,,,,,,,,,,,,,,,
,,615ca96d7640b6c31b9e4462,2024-02-18_20h08.20.155,kallum_motion_pilot,2023.2.2,Win32,10,615ca96d7640b6c31b9e4462,65d2b6c8f2eece985d8e374c,65d2b8000a1be524617363ed,0.0405,0.0405,0,55,55,119,1,eightseven,,,,,,,,,,,,,,,,,,,,,,,,,,,,,,,,,,,,,,,,,,,,,,,,,,,,,,,,,,,,,,,,,,,,,,,,,,,,,,,,,,,,,,,,,,,,,,,,,,,,,,,,,,,,,,,,,,,,,,,,,,,,,,,,,,,,,,,,,
,,615ca96d7640b6c31b9e4462,2024-02-18_20h08.20.155,kallum_motion_pilot,2023.2.2,Win32,10,615ca96d7640b6c31b9e4462,65d2b6c8f2eece985d8e374c,65d2b8000a1be524617363ed,0.0408,0.0408,0,56,56,96,1,fivesix,,,,,,,,,,,,,,,,,,,,,,,,,,,,,,,,,,,,,,,,,,,,,,,,,,,,,,,,,,,,,,,,,,,,,,,,,,,,,,,,,,,,,,,,,,,,,,,,,,,,,,,,,,,,,,,,,,,,,,,,,,,,,,,,,,,,,,,,,
,,615ca96d7640b6c31b9e4462,2024-02-18_20h08.20.155,kallum_motion_pilot,2023.2.2,Win32,10,615ca96d7640b6c31b9e4462,65d2b6c8f2eece985d8e374c,65d2b8000a1be524617363ed,0.0409,0.0409,0,57,57,43,1,twofour,,,,,,,,,,,,,,,,,,,,,,,,,,,,,,,,,,,,,,,,,,,,,,,,,,,,,,,,,,,,,,,,,,,,,,,,,,,,,,,,,,,,,,,,,,,,,,,,,,,,,,,,,,,,,,,,,,,,,,,,,,,,,,,,,,,,,,,,,
,,615ca96d7640b6c31b9e4462,2024-02-18_20h08.20.155,kallum_motion_pilot,2023.2.2,Win32,10,615ca96d7640b6c31b9e4462,65d2b6c8f2eece985d8e374c,65d2b8000a1be524617363ed,0.0411,0.0411,0,58,58,135,1,eightseven,,,,,,,,,,,,,,,,,,,,,,,,,,,,,,,,,,,,,,,,,,,,,,,,,,,,,,,,,,,,,,,,,,,,,,,,,,,,,,,,,,,,,,,,,,,,,,,,,,,,,,,,,,,,,,,,,,,,,,,,,,,,,,,,,,,,,,,,,
,,615ca96d7640b6c31b9e4462,2024-02-18_20h08.20.155,kallum_motion_pilot,2023.2.2,Win32,10,615ca96d7640b6c31b9e4462,65d2b6c8f2eece985d8e374c,65d2b8000a1be524617363ed,0.0413,0.0413,0,59,59,86,1,eightsix,,,,,,,,,,,,,,,,,,,,,,,,,,,,,,,,,,,,,,,,,,,,,,,,,,,,,,,,,,,,,,,,,,,,,,,,,,,,,,,,,,,,,,,,,,,,,,,,,,,,,,,,,,,,,,,,,,,,,,,,,,,,,,,,,,,,,,,,,
,,615ca96d7640b6c31b9e4462,2024-02-18_20h08.20.155,kallum_motion_pilot,2023.2.2,Win32,10,615ca96d7640b6c31b9e4462,65d2b6c8f2eece985d8e374c,65d2b8000a1be524617363ed,0.0415,0.0415,0,60,60,161,1,fiveseven,,,,,,,,,,,,,,,,,,,,,,,,,,,,,,,,,,,,,,,,,,,,,,,,,,,,,,,,,,,,,,,,,,,,,,,,,,,,,,,,,,,,,,,,,,,,,,,,,,,,,,,,,,,,,,,,,,,,,,,,,,,,,,,,,,,,,,,,,
,,615ca96d7640b6c31b9e4462,2024-02-18_20h08.20.155,kallum_motion_pilot,2023.2.2,Win32,10,615ca96d7640b6c31b9e4462,65d2b6c8f2eece985d8e374c,65d2b8000a1be524617363ed,0.0416,0.0417,0,61,61,33,1,onethree,,,,,,,,,,,,,,,,,,,,,,,,,,,,,,,,,,,,,,,,,,,,,,,,,,,,,,,,,,,,,,,,,,,,,,,,,,,,,,,,,,,,,,,,,,,,,,,,,,,,,,,,,,,,,,,,,,,,,,,,,,,,,,,,,,,,,,,,,
,,615ca96d7640b6c31b9e4462,2024-02-18_20h08.20.155,kallum_motion_pilot,2023.2.2,Win32,10,615ca96d7640b6c31b9e4462,65d2b6c8f2eece985d8e374c,65d2b8000a1be524617363ed,0.0418,0.0418,0,62,62,49,1,onethree,,,,,,,,,,,,,,,,,,,,,,,,,,,,,,,,,,,,,,,,,,,,,,,,,,,,,,,,,,,,,,,,,,,,,,,,,,,,,,,,,,,,,,,,,,,,,,,,,,,,,,,,,,,,,,,,,,,,,,,,,,,,,,,,,,,,,,,,,
,,615ca96d7640b6c31b9e4462,2024-02-18_20h08.20.155,kallum_motion_pilot,2023.2.2,Win32,10,615ca96d7640b6c31b9e4462,65d2b6c8f2eece985d8e374c,65d2b8000a1be524617363ed,0.0419,0.042,0,63,63,137,1,fiveseven,,,,,,,,,,,,,,,,,,,,,,,,,,,,,,,,,,,,,,,,,,,,,,,,,,,,,,,,,,,,,,,,,,,,,,,,,,,,,,,,,,,,,,,,,,,,,,,,,,,,,,,,,,,,,,,,,,,,,,,,,,,,,,,,,,,,,,,,,
,,615ca96d7640b6c31b9e4462,2024-02-18_20h08.20.155,kallum_motion_pilot,2023.2.2,Win32,10,615ca96d7640b6c31b9e4462,65d2b6c8f2eece985d8e374c,65d2b8000a1be524617363ed,0.0422,0.0423,0,64,64,32,1,onetwo,,,,,,,,,,,,,,,,,,,,,,,,,,,,,,,,,,,,,,,,,,,,,,,,,,,,,,,,,,,,,,,,,,,,,,,,,,,,,,,,,,,,,,,,,,,,,,,,,,,,,,,,,,,,,,,,,,,,,,,,,,,,,,,,,,,,,,,,,
,,615ca96d7640b6c31b9e4462,2024-02-18_20h08.20.155,kallum_motion_pilot,2023.2.2,Win32,10,615ca96d7640b6c31b9e4462,65d2b6c8f2eece985d8e374c,65d2b8000a1be524617363ed,0.0423,0.0424,0,65,65,127,1,eightseven,,,,,,,,,,,,,,,,,,,,,,,,,,,,,,,,,,,,,,,,,,,,,,,,,,,,,,,,,,,,,,,,,,,,,,,,,,,,,,,,,,,,,,,,,,,,,,,,,,,,,,,,,,,,,,,,,,,,,,,,,,,,,,,,,,,,,,,,,
,,615ca96d7640b6c31b9e4462,2024-02-18_20h08.20.155,kallum_motion_pilot,2023.2.2,Win32,10,615ca96d7640b6c31b9e4462,65d2b6c8f2eece985d8e374c,65d2b8000a1be524617363ed,0.0424,0.0426,0,66,66,146,1,sixfive,,,,,,,,,,,,,,,,,,,,,,,,,,,,,,,,,,,,,,,,,,,,,,,,,,,,,,,,,,,,,,,,,,,,,,,,,,,,,,,,,,,,,,,,,,,,,,,,,,,,,,,,,,,,,,,,,,,,,,,,,,,,,,,,,,,,,,,,,
,,615ca96d7640b6c31b9e4462,2024-02-18_20h08.20.155,kallum_motion_pilot,2023.2.2,Win32,10,615ca96d7640b6c31b9e4462,65d2b6c8f2eece985d8e374c,65d2b8000a1be524617363ed,0.0426,0.0427,0,67,67,134,1,eightsix,,,,,,,,,,,,,,,,,,,,,,,,,,,,,,,,,,,,,,,,,,,,,,,,,,,,,,,,,,,,,,,,,,,,,,,,,,,,,,,,,,,,,,,,,,,,,,,,,,,,,,,,,,,,,,,,,,,,,,,,,,,,,,,,,,,,,,,,,
,,615ca96d7640b6c31b9e4462,2024-02-18_20h08.20.155,kallum_motion_pilot,2023.2.2,Win32,10,615ca96d7640b6c31b9e4462,65d2b6c8f2eece985d8e374c,65d2b8000a1be524617363ed,0.0428,0.0428,0,68,68,1,1,onethree,,,,,,,,,,,,,,,,,,,,,,,,,,,,,,,,,,,,,,,,,,,,,,,,,,,,,,,,,,,,,,,,,,,,,,,,,,,,,,,,,,,,,,,,,,,,,,,,,,,,,,,,,,,,,,,,,,,,,,,,,,,,,,,,,,,,,,,,,
,,615ca96d7640b6c31b9e4462,2024-02-18_20h08.20.155,kallum_motion_pilot,2023.2.2,Win32,10,615ca96d7640b6c31b9e4462,65d2b6c8f2eece985d8e374c,65d2b8000a1be524617363ed,0.043,0.0431,0,69,69,65,1,onethree,,,,,,,,,,,,,,,,,,,,,,,,,,,,,,,,,,,,,,,,,,,,,,,,,,,,,,,,,,,,,,,,,,,,,,,,,,,,,,,,,,,,,,,,,,,,,,,,,,,,,,,,,,,,,,,,,,,,,,,,,,,,,,,,,,,,,,,,,
,,615ca96d7640b6c31b9e4462,2024-02-18_20h08.20.155,kallum_motion_pilot,2023.2.2,Win32,10,615ca96d7640b6c31b9e4462,65d2b6c8f2eece985d8e374c,65d2b8000a1be524617363ed,0.0431,0.0432,0,70,70,138,1,sixfive,,,,,,,,,,,,,,,,,,,,,,,,,,,,,,,,,,,,,,,,,,,,,,,,,,,,,,,,,,,,,,,,,,,,,,,,,,,,,,,,,,,,,,,,,,,,,,,,,,,,,,,,,,,,,,,,,,,,,,,,,,,,,,,,,,,,,,,,,
,,615ca96d7640b6c31b9e4462,2024-02-18_20h08.20.155,kallum_motion_pilot,2023.2.2,Win32,10,615ca96d7640b6c31b9e4462,65d2b6c8f2eece985d8e374c,65d2b8000a1be524617363ed,0.0434,0.0434,0,71,71,63,1,fourthree,,,,,,,,,,,,,,,,,,,,,,,,,,,,,,,,,,,,,,,,,,,,,,,,,,,,,,,,,,,,,,,,,,,,,,,,,,,,,,,,,,,,,,,,,,,,,,,,,,,,,,,,,,,,,,,,,,,,,,,,,,,,,,,,,,,,,,,,,
,,615ca96d7640b6c31b9e4462,2024-02-18_20h08.20.155,kallum_motion_pilot,2023.2.2,Win32,10,615ca96d7640b6c31b9e4462,65d2b6c8f2eece985d8e374c,65d2b8000a1be524617363ed,0.0435,0.0436,0,72,72,10,1,twoone,,,,,,,,,,,,,,,,,,,,,,,,,,,,,,,,,,,,,,,,,,,,,,,,,,,,,,,,,,,,,,,,,,,,,,,,,,,,,,,,,,,,,,,,,,,,,,,,,,,,,,,,,,,,,,,,,,,,,,,,,,,,,,,,,,,,,,,,,
,,615ca96d7640b6c31b9e4462,2024-02-18_20h08.20.155,kallum_motion_pilot,2023.2.2,Win32,10,615ca96d7640b6c31b9e4462,65d2b6c8f2eece985d8e374c,65d2b8000a1be524617363ed,0.0437,0.0438,0,73,73,29,1,threefour,,,,,,,,,,,,,,,,,,,,,,,,,,,,,,,,,,,,,,,,,,,,,,,,,,,,,,,,,,,,,,,,,,,,,,,,,,,,,,,,,,,,,,,,,,,,,,,,,,,,,,,,,,,,,,,,,,,,,,,,,,,,,,,,,,,,,,,,,
,,615ca96d7640b6c31b9e4462,2024-02-18_20h08.20.155,kallum_motion_pilot,2023.2.2,Win32,10,615ca96d7640b6c31b9e4462,65d2b6c8f2eece985d8e374c,65d2b8000a1be524617363ed,0.044,0.044,0,74,74,103,1,eightseven,,,,,,,,,,,,,,,,,,,,,,,,,,,,,,,,,,,,,,,,,,,,,,,,,,,,,,,,,,,,,,,,,,,,,,,,,,,,,,,,,,,,,,,,,,,,,,,,,,,,,,,,,,,,,,,,,,,,,,,,,,,,,,,,,,,,,,,,,
,,615ca96d7640b6c31b9e4462,2024-02-18_20h08.20.155,kallum_motion_pilot,2023.2.2,Win32,10,615ca96d7640b6c31b9e4462,65d2b6c8f2eece985d8e374c,65d2b8000a1be524617363ed,0.0441,0.0441,0,75,75,4,1,threeone,,,,,,,,,,,,,,,,,,,,,,,,,,,,,,,,,,,,,,,,,,,,,,,,,,,,,,,,,,,,,,,,,,,,,,,,,,,,,,,,,,,,,,,,,,,,,,,,,,,,,,,,,,,,,,,,,,,,,,,,,,,,,,,,,,,,,,,,,
,,615ca96d7640b6c31b9e4462,2024-02-18_20h08.20.155,kallum_motion_pilot,2023.2.2,Win32,10,615ca96d7640b6c31b9e4462,65d2b6c8f2eece985d8e374c,65d2b8000a1be524617363ed,0.0443,0.0444,0,76,76,130,1,sixfive,,,,,,,,,,,,,,,,,,,,,,,,,,,,,,,,,,,,,,,,,,,,,,,,,,,,,,,,,,,,,,,,,,,,,,,,,,,,,,,,,,,,,,,,,,,,,,,,,,,,,,,,,,,,,,,,,,,,,,,,,,,,,,,,,,,,,,,,,
,,615ca96d7640b6c31b9e4462,2024-02-18_20h08.20.155,kallum_motion_pilot,2023.2.2,Win32,10,615ca96d7640b6c31b9e4462,65d2b6c8f2eece985d8e374c,65d2b8000a1be524617363ed,0.0446,0.0446,0,77,77,37,1,threefour,,,,,,,,,,,,,,,,,,,,,,,,,,,,,,,,,,,,,,,,,,,,,,,,,,,,,,,,,,,,,,,,,,,,,,,,,,,,,,,,,,,,,,,,,,,,,,,,,,,,,,,,,,,,,,,,,,,,,,,,,,,,,,,,,,,,,,,,,
,,615ca96d7640b6c31b9e4462,2024-02-18_20h08.20.155,kallum_motion_pilot,2023.2.2,Win32,10,615ca96d7640b6c31b9e4462,65d2b6c8f2eece985d8e374c,65d2b8000a1be524617363ed,0.0447,0.0448,0,78,78,99,1,sixeight,,,,,,,,,,,,,,,,,,,,,,,,,,,,,,,,,,,,,,,,,,,,,,,,,,,,,,,,,,,,,,,,,,,,,,,,,,,,,,,,,,,,,,,,,,,,,,,,,,,,,,,,,,,,,,,,,,,,,,,,,,,,,,,,,,,,,,,,,
,,615ca96d7640b6c31b9e4462,2024-02-18_20h08.20.155,kallum_motion_pilot,2023.2.2,Win32,10,615ca96d7640b6c31b9e4462,65d2b6c8f2eece985d8e374c,65d2b8000a1be524617363ed,0.0449,0.045,0,79,79,7,1,fourthree,,,,,,,,,,,,,,,,,,,,,,,,,,,,,,,,,,,,,,,,,,,,,,,,,,,,,,,,,,,,,,,,,,,,,,,,,,,,,,,,,,,,,,,,,,,,,,,,,,,,,,,,,,,,,,,,,,,,,,,,,,,,,,,,,,,,,,,,,
,,615ca96d7640b6c31b9e4462,2024-02-18_20h08.20.155,kallum_motion_pilot,2023.2.2,Win32,10,615ca96d7640b6c31b9e4462,65d2b6c8f2eece985d8e374c,65d2b8000a1be524617363ed,0.045,0.0451,0,80,80,13,1,threefour,,,,,,,,,,,,,,,,,,,,,,,,,,,,,,,,,,,,,,,,,,,,,,,,,,,,,,,,,,,,,,,,,,,,,,,,,,,,,,,,,,,,,,,,,,,,,,,,,,,,,,,,,,,,,,,,,,,,,,,,,,,,,,,,,,,,,,,,,
,,615ca96d7640b6c31b9e4462,2024-02-18_20h08.20.155,kallum_motion_pilot,2023.2.2,Win32,10,615ca96d7640b6c31b9e4462,65d2b6c8f2eece985d8e374c,65d2b8000a1be524617363ed,0.0452,0.0453,0,81,81,82,1,sixfive,,,,,,,,,,,,,,,,,,,,,,,,,,,,,,,,,,,,,,,,,,,,,,,,,,,,,,,,,,,,,,,,,,,,,,,,,,,,,,,,,,,,,,,,,,,,,,,,,,,,,,,,,,,,,,,,,,,,,,,,,,,,,,,,,,,,,,,,,
,,615ca96d7640b6c31b9e4462,2024-02-18_20h08.20.155,kallum_motion_pilot,2023.2.2,Win32,10,615ca96d7640b6c31b9e4462,65d2b6c8f2eece985d8e374c,65d2b8000a1be524617363ed,0.0454,0.0455,0,82,82,23,1,fourthree,,,,,,,,,,,,,,,,,,,,,,,,,,,,,,,,,,,,,,,,,,,,,,,,,,,,,,,,,,,,,,,,,,,,,,,,,,,,,,,,,,,,,,,,,,,,,,,,,,,,,,,,,,,,,,,,,,,,,,,,,,,,,,,,,,,,,,,,,
,,615ca96d7640b6c31b9e4462,2024-02-18_20h08.20.155,kallum_motion_pilot,2023.2.2,Win32,10,615ca96d7640b6c31b9e4462,65d2b6c8f2eece985d8e374c,65d2b8000a1be524617363ed,0.0457,0.0458,0,83,83,120,1,fivesix,,,,,,,,,,,,,,,,,,,,,,,,,,,,,,,,,,,,,,,,,,,,,,,,,,,,,,,,,,,,,,,,,,,,,,,,,,,,,,,,,,,,,,,,,,,,,,,,,,,,,,,,,,,,,,,,,,,,,,,,,,,,,,,,,,,,,,,,,
,,615ca96d7640b6c31b9e4462,2024-02-18_20h08.20.155,kallum_motion_pilot,2023.2.2,Win32,10,615ca96d7640b6c31b9e4462,65d2b6c8f2eece985d8e374c,65d2b8000a1be524617363ed,0.0459,0.046,0,84,84,36,1,threeone,,,,,,,,,,,,,,,,,,,,,,,,,,,,,,,,,,,,,,,,,,,,,,,,,,,,,,,,,,,,,,,,,,,,,,,,,,,,,,,,,,,,,,,,,,,,,,,,,,,,,,,,,,,,,,,,,,,,,,,,,,,,,,,,,,,,,,,,,
,,615ca96d7640b6c31b9e4462,2024-02-18_20h08.20.155,kallum_motion_pilot,2023.2.2,Win32,10,615ca96d7640b6c31b9e4462,65d2b6c8f2eece985d8e374c,65d2b8000a1be524617363ed,0.0461,0.0461,0,85,85,136,1,fivesix,,,,,,,,,,,,,,,,,,,,,,,,,,,,,,,,,,,,,,,,,,,,,,,,,,,,,,,,,,,,,,,,,,,,,,,,,,,,,,,,,,,,,,,,,,,,,,,,,,,,,,,,,,,,,,,,,,,,,,,,,,,,,,,,,,,,,,,,,
,,615ca96d7640b6c31b9e4462,2024-02-18_20h08.20.155,kallum_motion_pilot,2023.2.2,Win32,10,615ca96d7640b6c31b9e4462,65d2b6c8f2eece985d8e374c,65d2b8000a1be524617363ed,0.0462,0.0462,0,86,86,151,1,eightseven,,,,,,,,,,,,,,,,,,,,,,,,,,,,,,,,,,,,,,,,,,,,,,,,,,,,,,,,,,,,,,,,,,,,,,,,,,,,,,,,,,,,,,,,,,,,,,,,,,,,,,,,,,,,,,,,,,,,,,,,,,,,,,,,,,,,,,,,,
,,615ca96d7640b6c31b9e4462,2024-02-18_20h08.20.155,kallum_motion_pilot,2023.2.2,Win32,10,615ca96d7640b6c31b9e4462,65d2b6c8f2eece985d8e374c,65d2b8000a1be524617363ed,0.0464,0.0464,0,87,87,121,1,fiveseven,,,,,,,,,,,,,,,,,,,,,,,,,,,,,,,,,,,,,,,,,,,,,,,,,,,,,,,,,,,,,,,,,,,,,,,,,,,,,,,,,,,,,,,,,,,,,,,,,,,,,,,,,,,,,,,,,,,,,,,,,,,,,,,,,,,,,,,,,
,,615ca96d7640b6c31b9e4462,2024-02-18_20h08.20.155,kallum_motion_pilot,2023.2.2,Win32,10,615ca96d7640b6c31b9e4462,65d2b6c8f2eece985d8e374c,65d2b8000a1be524617363ed,0.0465,0.0466,0,88,88,159,1,eightseven,,,,,,,,,,,,,,,,,,,,,,,,,,,,,,,,,,,,,,,,,,,,,,,,,,,,,,,,,,,,,,,,,,,,,,,,,,,,,,,,,,,,,,,,,,,,,,,,,,,,,,,,,,,,,,,,,,,,,,,,,,,,,,,,,,,,,,,,,
,,615ca96d7640b6c31b9e4462,2024-02-18_20h08.20.155,kallum_motion_pilot,2023.2.2,Win32,10,615ca96d7640b6c31b9e4462,65d2b6c8f2eece985d8e374c,65d2b8000a1be524617363ed,0.0466,0.0467,0,89,89,90,1,sixfive,,,,,,,,,,,,,,,,,,,,,,,,,,,,,,,,,,,,,,,,,,,,,,,,,,,,,,,,,,,,,,,,,,,,,,,,,,,,,,,,,,,,,,,,,,,,,,,,,,,,,,,,,,,,,,,,,,,,,,,,,,,,,,,,,,,,,,,,,
,,615ca96d7640b6c31b9e4462,2024-02-18_20h08.20.155,kallum_motion_pilot,2023.2.2,Win32,10,615ca96d7640b6c31b9e4462,65d2b6c8f2eece985d8e374c,65d2b8000a1be524617363ed,0.0468,0.0469,0,90,90,74,1,twoone,,,,,,,,,,,,,,,,,,,,,,,,,,,,,,,,,,,,,,,,,,,,,,,,,,,,,,,,,,,,,,,,,,,,,,,,,,,,,,,,,,,,,,,,,,,,,,,,,,,,,,,,,,,,,,,,,,,,,,,,,,,,,,,,,,,,,,,,,
,,615ca96d7640b6c31b9e4462,2024-02-18_20h08.20.155,kallum_motion_pilot,2023.2.2,Win32,10,615ca96d7640b6c31b9e4462,65d2b6c8f2eece985d8e374c,65d2b8000a1be524617363ed,0.0469,0.0469,0,91,91,145,1,fiveseven,,,,,,,,,,,,,,,,,,,,,,,,,,,,,,,,,,,,,,,,,,,,,,,,,,,,,,,,,,,,,,,,,,,,,,,,,,,,,,,,,,,,,,,,,,,,,,,,,,,,,,,,,,,,,,,,,,,,,,,,,,,,,,,,,,,,,,,,,
,,615ca96d7640b6c31b9e4462,2024-02-18_20h08.20.155,kallum_motion_pilot,2023.2.2,Win32,10,615ca96d7640b6c31b9e4462,65d2b6c8f2eece985d8e374c,65d2b8000a1be524617363ed,0.0471,0.0472,0,92,92,133,1,seveneight,,,,,,,,,,,,,,,,,,,,,,,,,,,,,,,,,,,,,,,,,,,,,,,,,,,,,,,,,,,,,,,,,,,,,,,,,,,,,,,,,,,,,,,,,,,,,,,,,,,,,,,,,,,,,,,,,,,,,,,,,,,,,,,,,,,,,,,,,
,,615ca96d7640b6c31b9e4462,2024-02-18_20h08.20.155,kallum_motion_pilot,2023.2.2,Win32,10,615ca96d7640b6c31b9e4462,65d2b6c8f2eece985d8e374c,65d2b8000a1be524617363ed,0.0472,0.0472,0,93,93,57,1,onethree,,,,,,,,,,,,,,,,,,,,,,,,,,,,,,,,,,,,,,,,,,,,,,,,,,,,,,,,,,,,,,,,,,,,,,,,,,,,,,,,,,,,,,,,,,,,,,,,,,,,,,,,,,,,,,,,,,,,,,,,,,,,,,,,,,,,,,,,,
,,615ca96d7640b6c31b9e4462,2024-02-18_20h08.20.155,kallum_motion_pilot,2023.2.2,Win32,10,615ca96d7640b6c31b9e4462,65d2b6c8f2eece985d8e374c,65d2b8000a1be524617363ed,0.0473,0.0473,0,94,94,34,1,twoone,,,,,,,,,,,,,,,,,,,,,,,,,,,,,,,,,,,,,,,,,,,,,,,,,,,,,,,,,,,,,,,,,,,,,,,,,,,,,,,,,,,,,,,,,,,,,,,,,,,,,,,,,,,,,,,,,,,,,,,,,,,,,,,,,,,,,,,,,
,,615ca96d7640b6c31b9e4462,2024-02-18_20h08.20.155,kallum_motion_pilot,2023.2.2,Win32,10,615ca96d7640b6c31b9e4462,65d2b6c8f2eece985d8e374c,65d2b8000a1be524617363ed,0.0474,0.0475,0,95,95,42,1,twoone,,,,,,,,,,,,,,,,,,,,,,,,,,,,,,,,,,,,,,,,,,,,,,,,,,,,,,,,,,,,,,,,,,,,,,,,,,,,,,,,,,,,,,,,,,,,,,,,,,,,,,,,,,,,,,,,,,,,,,,,,,,,,,,,,,,,,,,,,
,,615ca96d7640b6c31b9e4462,2024-02-18_20h08.20.155,kallum_motion_pilot,2023.2.2,Win32,10,615ca96d7640b6c31b9e4462,65d2b6c8f2eece985d8e374c,65d2b8000a1be524617363ed,0.0476,0.0476,0,96,96,61,1,threefour,,,,,,,,,,,,,,,,,,,,,,,,,,,,,,,,,,,,,,,,,,,,,,,,,,,,,,,,,,,,,,,,,,,,,,,,,,,,,,,,,,,,,,,,,,,,,,,,,,,,,,,,,,,,,,,,,,,,,,,,,,,,,,,,,,,,,,,,,
,,615ca96d7640b6c31b9e4462,2024-02-18_20h08.20.155,kallum_motion_pilot,2023.2.2,Win32,10,615ca96d7640b6c31b9e4462,65d2b6c8f2eece985d8e374c,65d2b8000a1be524617363ed,0.0477,0.0478,0,97,97,20,1,threeone,,,,,,,,,,,,,,,,,,,,,,,,,,,,,,,,,,,,,,,,,,,,,,,,,,,,,,,,,,,,,,,,,,,,,,,,,,,,,,,,,,,,,,,,,,,,,,,,,,,,,,,,,,,,,,,,,,,,,,,,,,,,,,,,,,,,,,,,,
,,615ca96d7640b6c31b9e4462,2024-02-18_20h08.20.155,kallum_motion_pilot,2023.2.2,Win32,10,615ca96d7640b6c31b9e4462,65d2b6c8f2eece985d8e374c,65d2b8000a1be524617363ed,0.0479,0.0479,0,98,98,81,1,fiveseven,,,,,,,,,,,,,,,,,,,,,,,,,,,,,,,,,,,,,,,,,,,,,,,,,,,,,,,,,,,,,,,,,,,,,,,,,,,,,,,,,,,,,,,,,,,,,,,,,,,,,,,,,,,,,,,,,,,,,,,,,,,,,,,,,,,,,,,,,
,,615ca96d7640b6c31b9e4462,2024-02-18_20h08.20.155,kallum_motion_pilot,2023.2.2,Win32,10,615ca96d7640b6c31b9e4462,65d2b6c8f2eece985d8e374c,65d2b8000a1be524617363ed,0.0479,0.048,0,99,99,107,1,sixeight,,,,,,,,,,,,,,,,,,,,,,,,,,,,,,,,,,,,,,,,,,,,,,,,,,,,,,,,,,,,,,,,,,,,,,,,,,,,,,,,,,,,,,,,,,,,,,,,,,,,,,,,,,,,,,,,,,,,,,,,,,,,,,,,,,,,,,,,,
,,615ca96d7640b6c31b9e4462,2024-02-18_20h08.20.155,kallum_motion_pilot,2023.2.2,Win32,10,615ca96d7640b6c31b9e4462,65d2b6c8f2eece985d8e374c,65d2b8000a1be524617363ed,0.048,0.0481,0,100,100,94,1,eightsix,,,,,,,,,,,,,,,,,,,,,,,,,,,,,,,,,,,,,,,,,,,,,,,,,,,,,,,,,,,,,,,,,,,,,,,,,,,,,,,,,,,,,,,,,,,,,,,,,,,,,,,,,,,,,,,,,,,,,,,,,,,,,,,,,,,,,,,,,
,,615ca96d7640b6c31b9e4462,2024-02-18_20h08.20.155,kallum_motion_pilot,2023.2.2,Win32,10,615ca96d7640b6c31b9e4462,65d2b6c8f2eece985d8e374c,65d2b8000a1be524617363ed,0.0482,0.0482,0,101,101,89,1,fiveseven,,,,,,,,,,,,,,,,,,,,,,,,,,,,,,,,,,,,,,,,,,,,,,,,,,,,,,,,,,,,,,,,,,,,,,,,,,,,,,,,,,,,,,,,,,,,,,,,,,,,,,,,,,,,,,,,,,,,,,,,,,,,,,,,,,,,,,,,,
,,615ca96d7640b6c31b9e4462,2024-02-18_20h08.20.155,kallum_motion_pilot,2023.2.2,Win32,10,615ca96d7640b6c31b9e4462,65d2b6c8f2eece985d8e374c,65d2b8000a1be524617363ed,0.0483,0.0484,0,102,102,79,1,eightseven,,,,,,,,,,,,,,,,,,,,,,,,,,,,,,,,,,,,,,,,,,,,,,,,,,,,,,,,,,,,,,,,,,,,,,,,,,,,,,,,,,,,,,,,,,,,,,,,,,,,,,,,,,,,,,,,,,,,,,,,,,,,,,,,,,,,,,,,,
,,615ca96d7640b6c31b9e4462,2024-02-18_20h08.20.155,kallum_motion_pilot,2023.2.2,Win32,10,615ca96d7640b6c31b9e4462,65d2b6c8f2eece985d8e374c,65d2b8000a1be524617363ed,0.0484,0.0486,0,103,103,24,1,onetwo,,,,,,,,,,,,,,,,,,,,,,,,,,,,,,,,,,,,,,,,,,,,,,,,,,,,,,,,,,,,,,,,,,,,,,,,,,,,,,,,,,,,,,,,,,,,,,,,,,,,,,,,,,,,,,,,,,,,,,,,,,,,,,,,,,,,,,,,,
,,615ca96d7640b6c31b9e4462,2024-02-18_20h08.20.155,kallum_motion_pilot,2023.2.2,Win32,10,615ca96d7640b6c31b9e4462,65d2b6c8f2eece985d8e374c,65d2b8000a1be524617363ed,0.0486,0.0486,0,104,104,64,1,onetwo,,,,,,,,,,,,,,,,,,,,,,,,,,,,,,,,,,,,,,,,,,,,,,,,,,,,,,,,,,,,,,,,,,,,,,,,,,,,,,,,,,,,,,,,,,,,,,,,,,,,,,,,,,,,,,,,,,,,,,,,,,,,,,,,,,,,,,,,,
,,615ca96d7640b6c31b9e4462,2024-02-18_20h08.20.155,kallum_motion_pilot,2023.2.2,Win32,10,615ca96d7640b6c31b9e4462,65d2b6c8f2eece985d8e374c,65d2b8000a1be524617363ed,0.0488,0.0488,0,105,105,88,1,fivesix,,,,,,,,,,,,,,,,,,,,,,,,,,,,,,,,,,,,,,,,,,,,,,,,,,,,,,,,,,,,,,,,,,,,,,,,,,,,,,,,,,,,,,,,,,,,,,,,,,,,,,,,,,,,,,,,,,,,,,,,,,,,,,,,,,,,,,,,,
,,615ca96d7640b6c31b9e4462,2024-02-18_20h08.20.155,kallum_motion_pilot,2023.2.2,Win32,10,615ca96d7640b6c31b9e4462,65d2b6c8f2eece985d8e374c,65d2b8000a1be524617363ed,0.0489,0.049,0,106,106,59,1,twofour,,,,,,,,,,,,,,,,,,,,,,,,,,,,,,,,,,,,,,,,,,,,,,,,,,,,,,,,,,,,,,,,,,,,,,,,,,,,,,,,,,,,,,,,,,,,,,,,,,,,,,,,,,,,,,,,,,,,,,,,,,,,,,,,,,,,,,,,,
,,615ca96d7640b6c31b9e4462,2024-02-18_20h08.20.155,kallum_motion_pilot,2023.2.2,Win32,10,615ca96d7640b6c31b9e4462,65d2b6c8f2eece985d8e374c,65d2b8000a1be524617363ed,0.049,0.0491,0,107,107,71,1,fourthree,,,,,,,,,,,,,,,,,,,,,,,,,,,,,,,,,,,,,,,,,,,,,,,,,,,,,,,,,,,,,,,,,,,,,,,,,,,,,,,,,,,,,,,,,,,,,,,,,,,,,,,,,,,,,,,,,,,,,,,,,,,,,,,,,,,,,,,,,
,,615ca96d7640b6c31b9e4462,2024-02-18_20h08.20.155,kallum_motion_pilot,2023.2.2,Win32,10,615ca96d7640b6c31b9e4462,65d2b6c8f2eece985d8e374c,65d2b8000a1be524617363ed,0.0491,0.0492,0,108,108,66,1,twoone,,,,,,,,,,,,,,,,,,,,,,,,,,,,,,,,,,,,,,,,,,,,,,,,,,,,,,,,,,,,,,,,,,,,,,,,,,,,,,,,,,,,,,,,,,,,,,,,,,,,,,,,,,,,,,,,,,,,,,,,,,,,,,,,,,,,,,,,,
,,615ca96d7640b6c31b9e4462,2024-02-18_20h08.20.155,kallum_motion_pilot,2023.2.2,Win32,10,615ca96d7640b6c31b9e4462,65d2b6c8f2eece985d8e374c,65d2b8000a1be524617363ed,0.0492,0.0493,0,109,109,69,1,threefour,,,,,,,,,,,,,,,,,,,,,,,,,,,,,,,,,,,,,,,,,,,,,,,,,,,,,,,,,,,,,,,,,,,,,,,,,,,,,,,,,,,,,,,,,,,,,,,,,,,,,,,,,,,,,,,,,,,,,,,,,,,,,,,,,,,,,,,,,
,,615ca96d7640b6c31b9e4462,2024-02-18_20h08.20.155,kallum_motion_pilot,2023.2.2,Win32,10,615ca96d7640b6c31b9e4462,65d2b6c8f2eece985d8e374c,65d2b8000a1be524617363ed,0.0495,0.0495,0,110,110,128,1,fivesix,,,,,,,,,,,,,,,,,,,,,,,,,,,,,,,,,,,,,,,,,,,,,,,,,,,,,,,,,,,,,,,,,,,,,,,,,,,,,,,,,,,,,,,,,,,,,,,,,,,,,,,,,,,,,,,,,,,,,,,,,,,,,,,,,,,,,,,,,
,,615ca96d7640b6c31b9e4462,2024-02-18_20h08.20.155,kallum_motion_pilot,2023.2.2,Win32,10,615ca96d7640b6c31b9e4462,65d2b6c8f2eece985d8e374c,65d2b8000a1be524617363ed,0.0495,0.0495,0,111,111,83,1,sixeight,,,,,,,,,,,,,,,,,,,,,,,,,,,,,,,,,,,,,,,,,,,,,,,,,,,,,,,,,,,,,,,,,,,,,,,,,,,,,,,,,,,,,,,,,,,,,,,,,,,,,,,,,,,,,,,,,,,,,,,,,,,,,,,,,,,,,,,,,
,,615ca96d7640b6c31b9e4462,2024-02-18_20h08.20.155,kallum_motion_pilot,2023.2.2,Win32,10,615ca96d7640b6c31b9e4462,65d2b6c8f2eece985d8e374c,65d2b8000a1be524617363ed,0.0497,0.0497,0,112,112,75,1,twofour,,,,,,,,,,,,,,,,,,,,,,,,,,,,,,,,,,,,,,,,,,,,,,,,,,,,,,,,,,,,,,,,,,,,,,,,,,,,,,,,,,,,,,,,,,,,,,,,,,,,,,,,,,,,,,,,,,,,,,,,,,,,,,,,,,,,,,,,,
,,615ca96d7640b6c31b9e4462,2024-02-18_20h08.20.155,kallum_motion_pilot,2023.2.2,Win32,10,615ca96d7640b6c31b9e4462,65d2b6c8f2eece985d8e374c,65d2b8000a1be524617363ed,0.0498,0.0498,0,113,113,149,1,seveneight,,,,,,,,,,,,,,,,,,,,,,,,,,,,,,,,,,,,,,,,,,,,,,,,,,,,,,,,,,,,,,,,,,,,,,,,,,,,,,,,,,,,,,,,,,,,,,,,,,,,,,,,,,,,,,,,,,,,,,,,,,,,,,,,,,,,,,,,,
,,615ca96d7640b6c31b9e4462,2024-02-18_20h08.20.155,kallum_motion_pilot,2023.2.2,Win32,10,615ca96d7640b6c31b9e4462,65d2b6c8f2eece985d8e374c,65d2b8000a1be524617363ed,0.0499,0.05,0,114,114,11,1,twofour,,,,,,,,,,,,,,,,,,,,,,,,,,,,,,,,,,,,,,,,,,,,,,,,,,,,,,,,,,,,,,,,,,,,,,,,,,,,,,,,,,,,,,,,,,,,,,,,,,,,,,,,,,,,,,,,,,,,,,,,,,,,,,,,,,,,,,,,,
,,615ca96d7640b6c31b9e4462,2024-02-18_20h08.20.155,kallum_motion_pilot,2023.2.2,Win32,10,615ca96d7640b6c31b9e4462,65d2b6c8f2eece985d8e374c,65d2b8000a1be524617363ed,0.05,0.0501,0,115,115,58,1,twoone,,,,,,,,,,,,,,,,,,,,,,,,,,,,,,,,,,,,,,,,,,,,,,,,,,,,,,,,,,,,,,,,,,,,,,,,,,,,,,,,,,,,,,,,,,,,,,,,,,,,,,,,,,,,,,,,,,,,,,,,,,,,,,,,,,,,,,,,,
,,615ca96d7640b6c31b9e4462,2024-02-18_20h08.20.155,kallum_motion_pilot,2023.2.2,Win32,10,615ca96d7640b6c31b9e4462,65d2b6c8f2eece985d8e374c,65d2b8000a1be524617363ed,0.0502,0.0502,0,116,116,76,1,threeone,,,,,,,,,,,,,,,,,,,,,,,,,,,,,,,,,,,,,,,,,,,,,,,,,,,,,,,,,,,,,,,,,,,,,,,,,,,,,,,,,,,,,,,,,,,,,,,,,,,,,,,,,,,,,,,,,,,,,,,,,,,,,,,,,,,,,,,,,
,,615ca96d7640b6c31b9e4462,2024-02-18_20h08.20.155,kallum_motion_pilot,2023.2.2,Win32,10,615ca96d7640b6c31b9e4462,65d2b6c8f2eece985d8e374c,65d2b8000a1be524617363ed,0.0503,0.0504,0,117,117,113,1,fiveseven,,,,,,,,,,,,,,,,,,,,,,,,,,,,,,,,,,,,,,,,,,,,,,,,,,,,,,,,,,,,,,,,,,,,,,,,,,,,,,,,,,,,,,,,,,,,,,,,,,,,,,,,,,,,,,,,,,,,,,,,,,,,,,,,,,,,,,,,,
,,615ca96d7640b6c31b9e4462,2024-02-18_20h08.20.155,kallum_motion_pilot,2023.2.2,Win32,10,615ca96d7640b6c31b9e4462,65d2b6c8f2eece985d8e374c,65d2b8000a1be524617363ed,0.0504,0.0504,0,118,118,44,1,threeone,,,,,,,,,,,,,,,,,,,,,,,,,,,,,,,,,,,,,,,,,,,,,,,,,,,,,,,,,,,,,,,,,,,,,,,,,,,,,,,,,,,,,,,,,,,,,,,,,,,,,,,,,,,,,,,,,,,,,,,,,,,,,,,,,,,,,,,,,
,,615ca96d7640b6c31b9e4462,2024-02-18_20h08.20.155,kallum_motion_pilot,2023.2.2,Win32,10,615ca96d7640b6c31b9e4462,65d2b6c8f2eece985d8e374c,65d2b8000a1be524617363ed,0.0505,0.0506,0,119,119,111,1,eightseven,,,,,,,,,,,,,,,,,,,,,,,,,,,,,,,,,,,,,,,,,,,,,,,,,,,,,,,,,,,,,,,,,,,,,,,,,,,,,,,,,,,,,,,,,,,,,,,,,,,,,,,,,,,,,,,,,,,,,,,,,,,,,,,,,,,,,,,,,
,,615ca96d7640b6c31b9e4462,2024-02-18_20h08.20.155,kallum_motion_pilot,2023.2.2,Win32,10,615ca96d7640b6c31b9e4462,65d2b6c8f2eece985d8e374c,65d2b8000a1be524617363ed,0.0507,0.0507,0,120,120,154,1,sixfive,,,,,,,,,,,,,,,,,,,,,,,,,,,,,,,,,,,,,,,,,,,,,,,,,,,,,,,,,,,,,,,,,,,,,,,,,,,,,,,,,,,,,,,,,,,,,,,,,,,,,,,,,,,,,,,,,,,,,,,,,,,,,,,,,,,,,,,,,
,,615ca96d7640b6c31b9e4462,2024-02-18_20h08.20.155,kallum_motion_pilot,2023.2.2,Win32,10,615ca96d7640b6c31b9e4462,65d2b6c8f2eece985d8e374c,65d2b8000a1be524617363ed,0.0508,0.0509,0,121,121,41,1,onethree,,,,,,,,,,,,,,,,,,,,,,,,,,,,,,,,,,,,,,,,,,,,,,,,,,,,,,,,,,,,,,,,,,,,,,,,,,,,,,,,,,,,,,,,,,,,,,,,,,,,,,,,,,,,,,,,,,,,,,,,,,,,,,,,,,,,,,,,,
,,615ca96d7640b6c31b9e4462,2024-02-18_20h08.20.155,kallum_motion_pilot,2023.2.2,Win32,10,615ca96d7640b6c31b9e4462,65d2b6c8f2eece985d8e374c,65d2b8000a1be524617363ed,0.051,0.051,0,122,122,132,1,sevenfive,,,,,,,,,,,,,,,,,,,,,,,,,,,,,,,,,,,,,,,,,,,,,,,,,,,,,,,,,,,,,,,,,,,,,,,,,,,,,,,,,,,,,,,,,,,,,,,,,,,,,,,,,,,,,,,,,,,,,,,,,,,,,,,,,,,,,,,,,
,,615ca96d7640b6c31b9e4462,2024-02-18_20h08.20.155,kallum_motion_pilot,2023.2.2,Win32,10,615ca96d7640b6c31b9e4462,65d2b6c8f2eece985d8e374c,65d2b8000a1be524617363ed,0.0511,0.0511,0,123,123,106,1,sixfive,,,,,,,,,,,,,,,,,,,,,,,,,,,,,,,,,,,,,,,,,,,,,,,,,,,,,,,,,,,,,,,,,,,,,,,,,,,,,,,,,,,,,,,,,,,,,,,,,,,,,,,,,,,,,,,,,,,,,,,,,,,,,,,,,,,,,,,,,
,,615ca96d7640b6c31b9e4462,2024-02-18_20h08.20.155,kallum_motion_pilot,2023.2.2,Win32,10,615ca96d7640b6c31b9e4462,65d2b6c8f2eece985d8e374c,65d2b8000a1be524617363ed,0.0513,0.0513,0,124,124,143,1,eightseven,,,,,,,,,,,,,,,,,,,,,,,,,,,,,,,,,,,,,,,,,,,,,,,,,,,,,,,,,,,,,,,,,,,,,,,,,,,,,,,,,,,,,,,,,,,,,,,,,,,,,,,,,,,,,,,,,,,,,,,,,,,,,,,,,,,,,,,,,
,,615ca96d7640b6c31b9e4462,2024-02-18_20h08.20.155,kallum_motion_pilot,2023.2.2,Win32,10,615ca96d7640b6c31b9e4462,65d2b6c8f2eece985d8e374c,65d2b8000a1be524617363ed,0.0514,0.0515,0,125,125,93,1,seveneight,,,,,,,,,,,,,,,,,,,,,,,,,,,,,,,,,,,,,,,,,,,,,,,,,,,,,,,,,,,,,,,,,,,,,,,,,,,,,,,,,,,,,,,,,,,,,,,,,,,,,,,,,,,,,,,,,,,,,,,,,,,,,,,,,,,,,,,,,
,,615ca96d7640b6c31b9e4462,2024-02-18_20h08.20.155,kallum_motion_pilot,2023.2.2,Win32,10,615ca96d7640b6c31b9e4462,65d2b6c8f2eece985d8e374c,65d2b8000a1be524617363ed,0.0517,0.0517,0,126,126,150,1,eightsix,,,,,,,,,,,,,,,,,,,,,,,,,,,,,,,,,,,,,,,,,,,,,,,,,,,,,,,,,,,,,,,,,,,,,,,,,,,,,,,,,,,,,,,,,,,,,,,,,,,,,,,,,,,,,,,,,,,,,,,,,,,,,,,,,,,,,,,,,
,,615ca96d7640b6c31b9e4462,2024-02-18_20h08.20.155,kallum_motion_pilot,2023.2.2,Win32,10,615ca96d7640b6c31b9e4462,65d2b6c8f2eece985d8e374c,65d2b8000a1be524617363ed,0.0517,0.0518,0,127,127,26,1,twoone,,,,,,,,,,,,,,,,,,,,,,,,,,,,,,,,,,,,,,,,,,,,,,,,,,,,,,,,,,,,,,,,,,,,,,,,,,,,,,,,,,,,,,,,,,,,,,,,,,,,,,,,,,,,,,,,,,,,,,,,,,,,,,,,,,,,,,,,,
,,615ca96d7640b6c31b9e4462,2024-02-18_20h08.20.155,kallum_motion_pilot,2023.2.2,Win32,10,615ca96d7640b6c31b9e4462,65d2b6c8f2eece985d8e374c,65d2b8000a1be524617363ed,0.0519,0.052,0,128,128,108,1,sevenfive,,,,,,,,,,,,,,,,,,,,,,,,,,,,,,,,,,,,,,,,,,,,,,,,,,,,,,,,,,,,,,,,,,,,,,,,,,,,,,,,,,,,,,,,,,,,,,,,,,,,,,,,,,,,,,,,,,,,,,,,,,,,,,,,,,,,,,,,,
,,615ca96d7640b6c31b9e4462,2024-02-18_20h08.20.155,kallum_motion_pilot,2023.2.2,Win32,10,615ca96d7640b6c31b9e4462,65d2b6c8f2eece985d8e374c,65d2b8000a1be524617363ed,0.0521,0.0521,0,129,129,114,1,sixfive,,,,,,,,,,,,,,,,,,,,,,,,,,,,,,,,,,,,,,,,,,,,,,,,,,,,,,,,,,,,,,,,,,,,,,,,,,,,,,,,,,,,,,,,,,,,,,,,,,,,,,,,,,,,,,,,,,,,,,,,,,,,,,,,,,,,,,,,,
,,615ca96d7640b6c31b9e4462,2024-02-18_20h08.20.155,kallum_motion_pilot,2023.2.2,Win32,10,615ca96d7640b6c31b9e4462,65d2b6c8f2eece985d8e374c,65d2b8000a1be524617363ed,0.0522,0.0522,0,130,130,60,1,threeone,,,,,,,,,,,,,,,,,,,,,,,,,,,,,,,,,,,,,,,,,,,,,,,,,,,,,,,,,,,,,,,,,,,,,,,,,,,,,,,,,,,,,,,,,,,,,,,,,,,,,,,,,,,,,,,,,,,,,,,,,,,,,,,,,,,,,,,,,
,,615ca96d7640b6c31b9e4462,2024-02-18_20h08.20.155,kallum_motion_pilot,2023.2.2,Win32,10,615ca96d7640b6c31b9e4462,65d2b6c8f2eece985d8e374c,65d2b8000a1be524617363ed,0.0523,0.0524,0,131,131,160,1,fivesix,,,,,,,,,,,,,,,,,,,,,,,,,,,,,,,,,,,,,,,,,,,,,,,,,,,,,,,,,,,,,,,,,,,,,,,,,,,,,,,,,,,,,,,,,,,,,,,,,,,,,,,,,,,,,,,,,,,,,,,,,,,,,,,,,,,,,,,,,
,,615ca96d7640b6c31b9e4462,2024-02-18_20h08.20.155,kallum_motion_pilot,2023.2.2,Win32,10,615ca96d7640b6c31b9e4462,65d2b6c8f2eece985d8e374c,65d2b8000a1be524617363ed,0.0524,0.0525,0,132,132,46,1,fourtwo,,,,,,,,,,,,,,,,,,,,,,,,,,,,,,,,,,,,,,,,,,,,,,,,,,,,,,,,,,,,,,,,,,,,,,,,,,,,,,,,,,,,,,,,,,,,,,,,,,,,,,,,,,,,,,,,,,,,,,,,,,,,,,,,,,,,,,,,,
,,615ca96d7640b6c31b9e4462,2024-02-18_20h08.20.155,kallum_motion_pilot,2023.2.2,Win32,10,615ca96d7640b6c31b9e4462,65d2b6c8f2eece985d8e374c,65d2b8000a1be524617363ed,0.0525,0.0526,0,133,133,68,1,threeone,,,,,,,,,,,,,,,,,,,,,,,,,,,,,,,,,,,,,,,,,,,,,,,,,,,,,,,,,,,,,,,,,,,,,,,,,,,,,,,,,,,,,,,,,,,,,,,,,,,,,,,,,,,,,,,,,,,,,,,,,,,,,,,,,,,,,,,,,
,,615ca96d7640b6c31b9e4462,2024-02-18_20h08.20.155,kallum_motion_pilot,2023.2.2,Win32,10,615ca96d7640b6c31b9e4462,65d2b6c8f2eece985d8e374c,65d2b8000a1be524617363ed,0.0527,0.0527,0,134,134,19,1,twofour,,,,,,,,,,,,,,,,,,,,,,,,,,,,,,,,,,,,,,,,,,,,,,,,,,,,,,,,,,,,,,,,,,,,,,,,,,,,,,,,,,,,,,,,,,,,,,,,,,,,,,,,,,,,,,,,,,,,,,,,,,,,,,,,,,,,,,,,,
,,615ca96d7640b6c31b9e4462,2024-02-18_20h08.20.155,kallum_motion_pilot,2023.2.2,Win32,10,615ca96d7640b6c31b9e4462,65d2b6c8f2eece985d8e374c,65d2b8000a1be524617363ed,0.0528,0.0529,0,135,135,50,1,twoone,,,,,,,,,,,,,,,,,,,,,,,,,,,,,,,,,,,,,,,,,,,,,,,,,,,,,,,,,,,,,,,,,,,,,,,,,,,,,,,,,,,,,,,,,,,,,,,,,,,,,,,,,,,,,,,,,,,,,,,,,,,,,,,,,,,,,,,,,
,,615ca96d7640b6c31b9e4462,2024-02-18_20h08.20.155,kallum_motion_pilot,2023.2.2,Win32,10,615ca96d7640b6c31b9e4462,65d2b6c8f2eece985d8e374c,65d2b8000a1be524617363ed,0.053,0.053,0,136,136,73,1,onethree,,,,,,,,,,,,,,,,,,,,,,,,,,,,,,,,,,,,,,,,,,,,,,,,,,,,,,,,,,,,,,,,,,,,,,,,,,,,,,,,,,,,,,,,,,,,,,,,,,,,,,,,,,,,,,,,,,,,,,,,,,,,,,,,,,,,,,,,,
,,615ca96d7640b6c31b9e4462,2024-02-18_20h08.20.155,kallum_motion_pilot,2023.2.2,Win32,10,615ca96d7640b6c31b9e4462,65d2b6c8f2eece985d8e374c,65d2b8000a1be524617363ed,0.0531,0.0531,0,137,137,97,1,fiveseven,,,,,,,,,,,,,,,,,,,,,,,,,,,,,,,,,,,,,,,,,,,,,,,,,,,,,,,,,,,,,,,,,,,,,,,,,,,,,,,,,,,,,,,,,,,,,,,,,,,,,,,,,,,,,,,,,,,,,,,,,,,,,,,,,,,,,,,,,
,,615ca96d7640b6c31b9e4462,2024-02-18_20h08.20.155,kallum_motion_pilot,2023.2.2,Win32,10,615ca96d7640b6c31b9e4462,65d2b6c8f2eece985d8e374c,65d2b8000a1be524617363ed,0.0532,0.0532,0,138,138,30,1,fourtwo,,,,,,,,,,,,,,,,,,,,,,,,,,,,,,,,,,,,,,,,,,,,,,,,,,,,,,,,,,,,,,,,,,,,,,,,,,,,,,,,,,,,,,,,,,,,,,,,,,,,,,,,,,,,,,,,,,,,,,,,,,,,,,,,,,,,,,,,,
,,615ca96d7640b6c31b9e4462,2024-02-18_20h08.20.155,kallum_motion_pilot,2023.2.2,Win32,10,615ca96d7640b6c31b9e4462,65d2b6c8f2eece985d8e374c,65d2b8000a1be524617363ed,0.0533,0.0533,0,139,139,3,1,twofour,,,,,,,,,,,,,,,,,,,,,,,,,,,,,,,,,,,,,,,,,,,,,,,,,,,,,,,,,,,,,,,,,,,,,,,,,,,,,,,,,,,,,,,,,,,,,,,,,,,,,,,,,,,,,,,,,,,,,,,,,,,,,,,,,,,,,,,,,
,,615ca96d7640b6c31b9e4462,2024-02-18_20h08.20.155,kallum_motion_pilot,2023.2.2,Win32,10,615ca96d7640b6c31b9e4462,65d2b6c8f2eece985d8e374c,65d2b8000a1be524617363ed,0.0535,0.0536,0,140,140,2,1,twoone,,,,,,,,,,,,,,,,,,,,,,,,,,,,,,,,,,,,,,,,,,,,,,,,,,,,,,,,,,,,,,,,,,,,,,,,,,,,,,,,,,,,,,,,,,,,,,,,,,,,,,,,,,,,,,,,,,,,,,,,,,,,,,,,,,,,,,,,,
,,615ca96d7640b6c31b9e4462,2024-02-18_20h08.20.155,kallum_motion_pilot,2023.2.2,Win32,10,615ca96d7640b6c31b9e4462,65d2b6c8f2eece985d8e374c,65d2b8000a1be524617363ed,0.0537,0.0537,0,141,141,131,1,sixeight,,,,,,,,,,,,,,,,,,,,,,,,,,,,,,,,,,,,,,,,,,,,,,,,,,,,,,,,,,,,,,,,,,,,,,,,,,,,,,,,,,,,,,,,,,,,,,,,,,,,,,,,,,,,,,,,,,,,,,,,,,,,,,,,,,,,,,,,,
,,615ca96d7640b6c31b9e4462,2024-02-18_20h08.20.155,kallum_motion_pilot,2023.2.2,Win32,10,615ca96d7640b6c31b9e4462,65d2b6c8f2eece985d8e374c,65d2b8000a1be524617363ed,0.0538,0.0539,0,142,142,17,1,onethree,,,,,,,,,,,,,,,,,,,,,,,,,,,,,,,,,,,,,,,,,,,,,,,,,,,,,,,,,,,,,,,,,,,,,,,,,,,,,,,,,,,,,,,,,,,,,,,,,,,,,,,,,,,,,,,,,,,,,,,,,,,,,,,,,,,,,,,,,
,,615ca96d7640b6c31b9e4462,2024-02-18_20h08.20.155,kallum_motion_pilot,2023.2.2,Win32,10,615ca96d7640b6c31b9e4462,65d2b6c8f2eece985d8e374c,65d2b8000a1be524617363ed,0.0539,0.054,0,143,143,16,1,onetwo,,,,,,,,,,,,,,,,,,,,,,,,,,,,,,,,,,,,,,,,,,,,,,,,,,,,,,,,,,,,,,,,,,,,,,,,,,,,,,,,,,,,,,,,,,,,,,,,,,,,,,,,,,,,,,,,,,,,,,,,,,,,,,,,,,,,,,,,,
,,615ca96d7640b6c31b9e4462,2024-02-18_20h08.20.155,kallum_motion_pilot,2023.2.2,Win32,10,615ca96d7640b6c31b9e4462,65d2b6c8f2eece985d8e374c,65d2b8000a1be524617363ed,0.0541,0.0541,0,144,144,72,1,onetwo,,,,,,,,,,,,,,,,,,,,,,,,,,,,,,,,,,,,,,,,,,,,,,,,,,,,,,,,,,,,,,,,,,,,,,,,,,,,,,,,,,,,,,,,,,,,,,,,,,,,,,,,,,,,,,,,,,,,,,,,,,,,,,,,,,,,,,,,,
,,615ca96d7640b6c31b9e4462,2024-02-18_20h08.20.155,kallum_motion_pilot,2023.2.2,Win32,10,615ca96d7640b6c31b9e4462,65d2b6c8f2eece985d8e374c,65d2b8000a1be524617363ed,0.0543,0.0543,0,145,145,147,1,sixeight,,,,,,,,,,,,,,,,,,,,,,,,,,,,,,,,,,,,,,,,,,,,,,,,,,,,,,,,,,,,,,,,,,,,,,,,,,,,,,,,,,,,,,,,,,,,,,,,,,,,,,,,,,,,,,,,,,,,,,,,,,,,,,,,,,,,,,,,,
,,615ca96d7640b6c31b9e4462,2024-02-18_20h08.20.155,kallum_motion_pilot,2023.2.2,Win32,10,615ca96d7640b6c31b9e4462,65d2b6c8f2eece985d8e374c,65d2b8000a1be524617363ed,0.0544,0.0545,0,146,146,25,1,onethree,,,,,,,,,,,,,,,,,,,,,,,,,,,,,,,,,,,,,,,,,,,,,,,,,,,,,,,,,,,,,,,,,,,,,,,,,,,,,,,,,,,,,,,,,,,,,,,,,,,,,,,,,,,,,,,,,,,,,,,,,,,,,,,,,,,,,,,,,
,,615ca96d7640b6c31b9e4462,2024-02-18_20h08.20.155,kallum_motion_pilot,2023.2.2,Win32,10,615ca96d7640b6c31b9e4462,65d2b6c8f2eece985d8e374c,65d2b8000a1be524617363ed,0.0545,0.0546,0,147,147,139,1,sixeight,,,,,,,,,,,,,,,,,,,,,,,,,,,,,,,,,,,,,,,,,,,,,,,,,,,,,,,,,,,,,,,,,,,,,,,,,,,,,,,,,,,,,,,,,,,,,,,,,,,,,,,,,,,,,,,,,,,,,,,,,,,,,,,,,,,,,,,,,
,,615ca96d7640b6c31b9e4462,2024-02-18_20h08.20.155,kallum_motion_pilot,2023.2.2,Win32,10,615ca96d7640b6c31b9e4462,65d2b6c8f2eece985d8e374c,65d2b8000a1be524617363ed,0.0547,0.0547,0,148,148,6,1,fourtwo,,,,,,,,,,,,,,,,,,,,,,,,,,,,,,,,,,,,,,,,,,,,,,,,,,,,,,,,,,,,,,,,,,,,,,,,,,,,,,,,,,,,,,,,,,,,,,,,,,,,,,,,,,,,,,,,,,,,,,,,,,,,,,,,,,,,,,,,,
,,615ca96d7640b6c31b9e4462,2024-02-18_20h08.20.155,kallum_motion_pilot,2023.2.2,Win32,10,615ca96d7640b6c31b9e4462,65d2b6c8f2eece985d8e374c,65d2b8000a1be524617363ed,0.0548,0.0549,0,149,149,28,1,threeone,,,,,,,,,,,,,,,,,,,,,,,,,,,,,,,,,,,,,,,,,,,,,,,,,,,,,,,,,,,,,,,,,,,,,,,,,,,,,,,,,,,,,,,,,,,,,,,,,,,,,,,,,,,,,,,,,,,,,,,,,,,,,,,,,,,,,,,,,
,,615ca96d7640b6c31b9e4462,2024-02-18_20h08.20.155,kallum_motion_pilot,2023.2.2,Win32,10,615ca96d7640b6c31b9e4462,65d2b6c8f2eece985d8e374c,65d2b8000a1be524617363ed,0.055,0.055,0,150,150,77,1,threefour,,,,,,,,,,,,,,,,,,,,,,,,,,,,,,,,,,,,,,,,,,,,,,,,,,,,,,,,,,,,,,,,,,,,,,,,,,,,,,,,,,,,,,,,,,,,,,,,,,,,,,,,,,,,,,,,,,,,,,,,,,,,,,,,,,,,,,,,,
,,615ca96d7640b6c31b9e4462,2024-02-18_20h08.20.155,kallum_motion_pilot,2023.2.2,Win32,10,615ca96d7640b6c31b9e4462,65d2b6c8f2eece985d8e374c,65d2b8000a1be524617363ed,0.0551,0.0552,0,151,151,47,1,fourthree,,,,,,,,,,,,,,,,,,,,,,,,,,,,,,,,,,,,,,,,,,,,,,,,,,,,,,,,,,,,,,,,,,,,,,,,,,,,,,,,,,,,,,,,,,,,,,,,,,,,,,,,,,,,,,,,,,,,,,,,,,,,,,,,,,,,,,,,,
,,615ca96d7640b6c31b9e4462,2024-02-18_20h08.20.155,kallum_motion_pilot,2023.2.2,Win32,10,615ca96d7640b6c31b9e4462,65d2b6c8f2eece985d8e374c,65d2b8000a1be524617363ed,0.0563,0.0563,0,152,152,122,1,sixfive,,,,,,,,,,,,,,,,,,,,,,,,,,,,,,,,,,,,,,,,,,,,,,,,,,,,,,,,,,,,,,,,,,,,,,,,,,,,,,,,,,,,,,,,,,,,,,,,,,,,,,,,,,,,,,,,,,,,,,,,,,,,,,,,,,,,,,,,,
,,615ca96d7640b6c31b9e4462,2024-02-18_20h08.20.155,kallum_motion_pilot,2023.2.2,Win32,10,615ca96d7640b6c31b9e4462,65d2b6c8f2eece985d8e374c,65d2b8000a1be524617363ed,0.0565,0.0565,0,153,153,109,1,seveneight,,,,,,,,,,,,,,,,,,,,,,,,,,,,,,,,,,,,,,,,,,,,,,,,,,,,,,,,,,,,,,,,,,,,,,,,,,,,,,,,,,,,,,,,,,,,,,,,,,,,,,,,,,,,,,,,,,,,,,,,,,,,,,,,,,,,,,,,,
,,615ca96d7640b6c31b9e4462,2024-02-18_20h08.20.155,kallum_motion_pilot,2023.2.2,Win32,10,615ca96d7640b6c31b9e4462,65d2b6c8f2eece985d8e374c,65d2b8000a1be524617363ed,0.0566,0.0566,0,154,154,92,1,sevenfive,,,,,,,,,,,,,,,,,,,,,,,,,,,,,,,,,,,,,,,,,,,,,,,,,,,,,,,,,,,,,,,,,,,,,,,,,,,,,,,,,,,,,,,,,,,,,,,,,,,,,,,,,,,,,,,,,,,,,,,,,,,,,,,,,,,,,,,,,
,,615ca96d7640b6c31b9e4462,2024-02-18_20h08.20.155,kallum_motion_pilot,2023.2.2,Win32,10,615ca96d7640b6c31b9e4462,65d2b6c8f2eece985d8e374c,65d2b8000a1be524617363ed,0.0568,0.0568,0,155,155,112,1,fivesix,,,,,,,,,,,,,,,,,,,,,,,,,,,,,,,,,,,,,,,,,,,,,,,,,,,,,,,,,,,,,,,,,,,,,,,,,,,,,,,,,,,,,,,,,,,,,,,,,,,,,,,,,,,,,,,,,,,,,,,,,,,,,,,,,,,,,,,,,
,,615ca96d7640b6c31b9e4462,2024-02-18_20h08.20.155,kallum_motion_pilot,2023.2.2,Win32,10,615ca96d7640b6c31b9e4462,65d2b6c8f2eece985d8e374c,65d2b8000a1be524617363ed,0.0569,0.057,0,156,156,54,1,fourtwo,,,,,,,,,,,,,,,,,,,,,,,,,,,,,,,,,,,,,,,,,,,,,,,,,,,,,,,,,,,,,,,,,,,,,,,,,,,,,,,,,,,,,,,,,,,,,,,,,,,,,,,,,,,,,,,,,,,,,,,,,,,,,,,,,,,,,,,,,
,,615ca96d7640b6c31b9e4462,2024-02-18_20h08.20.155,kallum_motion_pilot,2023.2.2,Win32,10,615ca96d7640b6c31b9e4462,65d2b6c8f2eece985d8e374c,65d2b8000a1be524617363ed,0.0572,0.0573,0,157,157,15,1,fourthree,,,,,,,,,,,,,,,,,,,,,,,,,,,,,,,,,,,,,,,,,,,,,,,,,,,,,,,,,,,,,,,,,,,,,,,,,,,,,,,,,,,,,,,,,,,,,,,,,,,,,,,,,,,,,,,,,,,,,,,,,,,,,,,,,,,,,,,,,
,,615ca96d7640b6c31b9e4462,2024-02-18_20h08.20.155,kallum_motion_pilot,2023.2.2,Win32,10,615ca96d7640b6c31b9e4462,65d2b6c8f2eece985d8e374c,65d2b8000a1be524617363ed,0.0573,0.0575,0,158,158,148,1,sevenfive,,,,,,,,,,,,,,,,,,,,,,,,,,,,,,,,,,,,,,,,,,,,,,,,,,,,,,,,,,,,,,,,,,,,,,,,,,,,,,,,,,,,,,,,,,,,,,,,,,,,,,,,,,,,,,,,,,,,,,,,,,,,,,,,,,,,,,,,,
,,615ca96d7640b6c31b9e4462,2024-02-18_20h08.20.155,kallum_motion_pilot,2023.2.2,Win32,10,615ca96d7640b6c31b9e4462,65d2b6c8f2eece985d8e374c,65d2b8000a1be524617363ed,0.0576,0.0576,0,159,159,85,1,seveneight,,,,,,,,,,,,,,,,,,,,,,,,,,,,,,,,,,,,,,,,,,,,,,,,,,,,,,,,,,,,,,,,,,,,,,,,,,,,,,,,,,,,,,,,,,,,,,,,,,,,,,,,,,,,,,,,,,,,,,,,,,,,,,,,,,,,,,,,,
,,615ca96d7640b6c31b9e4462,2024-02-18_20h08.20.155,kallum_motion_pilot,2023.2.2,Win32,10,615ca96d7640b6c31b9e4462,65d2b6c8f2eece985d8e374c,65d2b8000a1be524617363ed,0.0578,0.0578,0,160,160,144,1,fivesix,,,,,,,,,,,,,,,,,,,,,,,,,,,,,,,,,,,,,,,,,,,,,,,,,,,,,,,,,,,,,,,,,,,,,,,,,,,,,,,,,,,,,,,,,,,,,,,,,,,,,,,,,,,,,,,,,,,,,,,,,,,,,,,,,,,,,,,,,
,,615ca96d7640b6c31b9e4462,2024-02-18_20h08.20.155,kallum_motion_pilot,2023.2.2,Win32,10,615ca96d7640b6c31b9e4462,65d2b6c8f2eece985d8e374c,65d2b8000a1be524617363ed,0.058,0.0581,0,161,161,142,1,eightsix,,,,,,,,,,,,,,,,,,,,,,,,,,,,,,,,,,,,,,,,,,,,,,,,,,,,,,,,,,,,,,,,,,,,,,,,,,,,,,,,,,,,,,,,,,,,,,,,,,,,,,,,,,,,,,,,,,,,,,,,,,,,,,,,,,,,,,,,,
,,615ca96d7640b6c31b9e4462,2024-02-18_20h08.20.155,kallum_motion_pilot,2023.2.2,Win32,10,615ca96d7640b6c31b9e4462,65d2b6c8f2eece985d8e374c,65d2b8000a1be524617363ed,0.0583,0.0583,1,0,162,117,1,seveneight,,,,,,,,,,,,,,,,,,,,,,,,,,,,,,,,,,,,,,,,,,,,,,,,,,,,,,,,,,,,,,,,,,,,,,,,,,,,,,,,,,,,,,,,,,,,,,,,,,,,,,,,,,,,,,,,,,,,,,,,,,,,,,,,,,,,,,,,,
,,615ca96d7640b6c31b9e4462,2024-02-18_20h08.20.155,kallum_motion_pilot,2023.2.2,Win32,10,615ca96d7640b6c31b9e4462,65d2b6c8f2eece985d8e374c,65d2b8000a1be524617363ed,0.0584,0.0585,1,1,163,73,1,onethree,,,,,,,,,,,,,,,,,,,,,,,,,,,,,,,,,,,,,,,,,,,,,,,,,,,,,,,,,,,,,,,,,,,,,,,,,,,,,,,,,,,,,,,,,,,,,,,,,,,,,,,,,,,,,,,,,,,,,,,,,,,,,,,,,,,,,,,,,
,,615ca96d7640b6c31b9e4462,2024-02-18_20h08.20.155,kallum_motion_pilot,2023.2.2,Win32,10,615ca96d7640b6c31b9e4462,65d2b6c8f2eece985d8e374c,65d2b8000a1be524617363ed,0.0586,0.0587,1,2,164,54,1,fourtwo,,,,,,,,,,,,,,,,,,,,,,,,,,,,,,,,,,,,,,,,,,,,,,,,,,,,,,,,,,,,,,,,,,,,,,,,,,,,,,,,,,,,,,,,,,,,,,,,,,,,,,,,,,,,,,,,,,,,,,,,,,,,,,,,,,,,,,,,,
,,615ca96d7640b6c31b9e4462,2024-02-18_20h08.20.155,kallum_motion_pilot,2023.2.2,Win32,10,615ca96d7640b6c31b9e4462,65d2b6c8f2eece985d8e374c,65d2b8000a1be524617363ed,0.0587,0.0588,1,3,165,59,1,twofour,,,,,,,,,,,,,,,,,,,,,,,,,,,,,,,,,,,,,,,,,,,,,,,,,,,,,,,,,,,,,,,,,,,,,,,,,,,,,,,,,,,,,,,,,,,,,,,,,,,,,,,,,,,,,,,,,,,,,,,,,,,,,,,,,,,,,,,,,
,,615ca96d7640b6c31b9e4462,2024-02-18_20h08.20.155,kallum_motion_pilot,2023.2.2,Win32,10,615ca96d7640b6c31b9e4462,65d2b6c8f2eece985d8e374c,65d2b8000a1be524617363ed,0.0589,0.0591,1,4,166,23,1,fourthree,,,,,,,,,,,,,,,,,,,,,,,,,,,,,,,,,,,,,,,,,,,,,,,,,,,,,,,,,,,,,,,,,,,,,,,,,,,,,,,,,,,,,,,,,,,,,,,,,,,,,,,,,,,,,,,,,,,,,,,,,,,,,,,,,,,,,,,,,
,,615ca96d7640b6c31b9e4462,2024-02-18_20h08.20.155,kallum_motion_pilot,2023.2.2,Win32,10,615ca96d7640b6c31b9e4462,65d2b6c8f2eece985d8e374c,65d2b8000a1be524617363ed,0.0591,0.0592,1,5,167,1,1,onethree,,,,,,,,,,,,,,,,,,,,,,,,,,,,,,,,,,,,,,,,,,,,,,,,,,,,,,,,,,,,,,,,,,,,,,,,,,,,,,,,,,,,,,,,,,,,,,,,,,,,,,,,,,,,,,,,,,,,,,,,,,,,,,,,,,,,,,,,,
,,615ca96d7640b6c31b9e4462,2024-02-18_20h08.20.155,kallum_motion_pilot,2023.2.2,Win32,10,615ca96d7640b6c31b9e4462,65d2b6c8f2eece985d8e374c,65d2b8000a1be524617363ed,0.0593,0.0593,1,6,168,105,1,fiveseven,,,,,,,,,,,,,,,,,,,,,,,,,,,,,,,,,,,,,,,,,,,,,,,,,,,,,,,,,,,,,,,,,,,,,,,,,,,,,,,,,,,,,,,,,,,,,,,,,,,,,,,,,,,,,,,,,,,,,,,,,,,,,,,,,,,,,,,,,
,,615ca96d7640b6c31b9e4462,2024-02-18_20h08.20.155,kallum_motion_pilot,2023.2.2,Win32,10,615ca96d7640b6c31b9e4462,65d2b6c8f2eece985d8e374c,65d2b8000a1be524617363ed,0.0594,0.0595,1,7,169,122,1,sixfive,,,,,,,,,,,,,,,,,,,,,,,,,,,,,,,,,,,,,,,,,,,,,,,,,,,,,,,,,,,,,,,,,,,,,,,,,,,,,,,,,,,,,,,,,,,,,,,,,,,,,,,,,,,,,,,,,,,,,,,,,,,,,,,,,,,,,,,,,
,,615ca96d7640b6c31b9e4462,2024-02-18_20h08.20.155,kallum_motion_pilot,2023.2.2,Win32,10,615ca96d7640b6c31b9e4462,65d2b6c8f2eece985d8e374c,65d2b8000a1be524617363ed,0.0597,0.0597,1,8,170,51,1,twofour,,,,,,,,,,,,,,,,,,,,,,,,,,,,,,,,,,,,,,,,,,,,,,,,,,,,,,,,,,,,,,,,,,,,,,,,,,,,,,,,,,,,,,,,,,,,,,,,,,,,,,,,,,,,,,,,,,,,,,,,,,,,,,,,,,,,,,,,,
,,615ca96d7640b6c31b9e4462,2024-02-18_20h08.20.155,kallum_motion_pilot,2023.2.2,Win32,10,615ca96d7640b6c31b9e4462,65d2b6c8f2eece985d8e374c,65d2b8000a1be524617363ed,0.0598,0.06,1,9,171,134,1,eightsix,,,,,,,,,,,,,,,,,,,,,,,,,,,,,,,,,,,,,,,,,,,,,,,,,,,,,,,,,,,,,,,,,,,,,,,,,,,,,,,,,,,,,,,,,,,,,,,,,,,,,,,,,,,,,,,,,,,,,,,,,,,,,,,,,,,,,,,,,
,,615ca96d7640b6c31b9e4462,2024-02-18_20h08.20.155,kallum_motion_pilot,2023.2.2,Win32,10,615ca96d7640b6c31b9e4462,65d2b6c8f2eece985d8e374c,65d2b8000a1be524617363ed,0.06,0.0601,1,10,172,58,1,twoone,,,,,,,,,,,,,,,,,,,,,,,,,,,,,,,,,,,,,,,,,,,,,,,,,,,,,,,,,,,,,,,,,,,,,,,,,,,,,,,,,,,,,,,,,,,,,,,,,,,,,,,,,,,,,,,,,,,,,,,,,,,,,,,,,,,,,,,,,
,,615ca96d7640b6c31b9e4462,2024-02-18_20h08.20.155,kallum_motion_pilot,2023.2.2,Win32,10,615ca96d7640b6c31b9e4462,65d2b6c8f2eece985d8e374c,65d2b8000a1be524617363ed,0.0602,0.0602,1,11,173,90,1,sixfive,,,,,,,,,,,,,,,,,,,,,,,,,,,,,,,,,,,,,,,,,,,,,,,,,,,,,,,,,,,,,,,,,,,,,,,,,,,,,,,,,,,,,,,,,,,,,,,,,,,,,,,,,,,,,,,,,,,,,,,,,,,,,,,,,,,,,,,,,
,,615ca96d7640b6c31b9e4462,2024-02-18_20h08.20.155,kallum_motion_pilot,2023.2.2,Win32,10,615ca96d7640b6c31b9e4462,65d2b6c8f2eece985d8e374c,65d2b8000a1be524617363ed,0.0604,0.0604,1,12,174,71,1,fourthree,,,,,,,,,,,,,,,,,,,,,,,,,,,,,,,,,,,,,,,,,,,,,,,,,,,,,,,,,,,,,,,,,,,,,,,,,,,,,,,,,,,,,,,,,,,,,,,,,,,,,,,,,,,,,,,,,,,,,,,,,,,,,,,,,,,,,,,,,
,,615ca96d7640b6c31b9e4462,2024-02-18_20h08.20.155,kallum_motion_pilot,2023.2.2,Win32,10,615ca96d7640b6c31b9e4462,65d2b6c8f2eece985d8e374c,65d2b8000a1be524617363ed,0.0605,0.0606,1,13,175,126,1,eightsix,,,,,,,,,,,,,,,,,,,,,,,,,,,,,,,,,,,,,,,,,,,,,,,,,,,,,,,,,,,,,,,,,,,,,,,,,,,,,,,,,,,,,,,,,,,,,,,,,,,,,,,,,,,,,,,,,,,,,,,,,,,,,,,,,,,,,,,,,
,,615ca96d7640b6c31b9e4462,2024-02-18_20h08.20.155,kallum_motion_pilot,2023.2.2,Win32,10,615ca96d7640b6c31b9e4462,65d2b6c8f2eece985d8e374c,65d2b8000a1be524617363ed,0.0607,0.0608,1,14,176,92,1,sevenfive,,,,,,,,,,,,,,,,,,,,,,,,,,,,,,,,,,,,,,,,,,,,,,,,,,,,,,,,,,,,,,,,,,,,,,,,,,,,,,,,,,,,,,,,,,,,,,,,,,,,,,,,,,,,,,,,,,,,,,,,,,,,,,,,,,,,,,,,,
,,615ca96d7640b6c31b9e4462,2024-02-18_20h08.20.155,kallum_motion_pilot,2023.2.2,Win32,10,615ca96d7640b6c31b9e4462,65d2b6c8f2eece985d8e374c,65d2b8000a1be524617363ed,0.0609,0.061,1,15,177,135,1,eightseven,,,,,,,,,,,,,,,,,,,,,,,,,,,,,,,,,,,,,,,,,,,,,,,,,,,,,,,,,,,,,,,,,,,,,,,,,,,,,,,,,,,,,,,,,,,,,,,,,,,,,,,,,,,,,,,,,,,,,,,,,,,,,,,,,,,,,,,,,
,,615ca96d7640b6c31b9e4462,2024-02-18_20h08.20.155,kallum_motion_pilot,2023.2.2,Win32,10,615ca96d7640b6c31b9e4462,65d2b6c8f2eece985d8e374c,65d2b8000a1be524617363ed,0.061,0.0612,1,16,178,77,1,threefour,,,,,,,,,,,,,,,,,,,,,,,,,,,,,,,,,,,,,,,,,,,,,,,,,,,,,,,,,,,,,,,,,,,,,,,,,,,,,,,,,,,,,,,,,,,,,,,,,,,,,,,,,,,,,,,,,,,,,,,,,,,,,,,,,,,,,,,,,
,,615ca96d7640b6c31b9e4462,2024-02-18_20h08.20.155,kallum_motion_pilot,2023.2.2,Win32,10,615ca96d7640b6c31b9e4462,65d2b6c8f2eece985d8e374c,65d2b8000a1be524617363ed,0.0612,0.0614,1,17,179,145,1,fiveseven,,,,,,,,,,,,,,,,,,,,,,,,,,,,,,,,,,,,,,,,,,,,,,,,,,,,,,,,,,,,,,,,,,,,,,,,,,,,,,,,,,,,,,,,,,,,,,,,,,,,,,,,,,,,,,,,,,,,,,,,,,,,,,,,,,,,,,,,,
,,615ca96d7640b6c31b9e4462,2024-02-18_20h08.20.155,kallum_motion_pilot,2023.2.2,Win32,10,615ca96d7640b6c31b9e4462,65d2b6c8f2eece985d8e374c,65d2b8000a1be524617363ed,0.0615,0.0615,1,18,180,35,1,twofour,,,,,,,,,,,,,,,,,,,,,,,,,,,,,,,,,,,,,,,,,,,,,,,,,,,,,,,,,,,,,,,,,,,,,,,,,,,,,,,,,,,,,,,,,,,,,,,,,,,,,,,,,,,,,,,,,,,,,,,,,,,,,,,,,,,,,,,,,
,,615ca96d7640b6c31b9e4462,2024-02-18_20h08.20.155,kallum_motion_pilot,2023.2.2,Win32,10,615ca96d7640b6c31b9e4462,65d2b6c8f2eece985d8e374c,65d2b8000a1be524617363ed,0.0616,0.0618,1,19,181,157,1,seveneight,,,,,,,,,,,,,,,,,,,,,,,,,,,,,,,,,,,,,,,,,,,,,,,,,,,,,,,,,,,,,,,,,,,,,,,,,,,,,,,,,,,,,,,,,,,,,,,,,,,,,,,,,,,,,,,,,,,,,,,,,,,,,,,,,,,,,,,,,
,,615ca96d7640b6c31b9e4462,2024-02-18_20h08.20.155,kallum_motion_pilot,2023.2.2,Win32,10,615ca96d7640b6c31b9e4462,65d2b6c8f2eece985d8e374c,65d2b8000a1be524617363ed,0.0618,0.0619,1,20,182,8,1,onetwo,,,,,,,,,,,,,,,,,,,,,,,,,,,,,,,,,,,,,,,,,,,,,,,,,,,,,,,,,,,,,,,,,,,,,,,,,,,,,,,,,,,,,,,,,,,,,,,,,,,,,,,,,,,,,,,,,,,,,,,,,,,,,,,,,,,,,,,,,
,,615ca96d7640b6c31b9e4462,2024-02-18_20h08.20.155,kallum_motion_pilot,2023.2.2,Win32,10,615ca96d7640b6c31b9e4462,65d2b6c8f2eece985d8e374c,65d2b8000a1be524617363ed,0.062,0.0621,1,21,183,10,1,twoone,,,,,,,,,,,,,,,,,,,,,,,,,,,,,,,,,,,,,,,,,,,,,,,,,,,,,,,,,,,,,,,,,,,,,,,,,,,,,,,,,,,,,,,,,,,,,,,,,,,,,,,,,,,,,,,,,,,,,,,,,,,,,,,,,,,,,,,,,
,,615ca96d7640b6c31b9e4462,2024-02-18_20h08.20.155,kallum_motion_pilot,2023.2.2,Win32,10,615ca96d7640b6c31b9e4462,65d2b6c8f2eece985d8e374c,65d2b8000a1be524617363ed,0.0621,0.0623,1,22,184,45,1,threefour,,,,,,,,,,,,,,,,,,,,,,,,,,,,,,,,,,,,,,,,,,,,,,,,,,,,,,,,,,,,,,,,,,,,,,,,,,,,,,,,,,,,,,,,,,,,,,,,,,,,,,,,,,,,,,,,,,,,,,,,,,,,,,,,,,,,,,,,,
,,615ca96d7640b6c31b9e4462,2024-02-18_20h08.20.155,kallum_motion_pilot,2023.2.2,Win32,10,615ca96d7640b6c31b9e4462,65d2b6c8f2eece985d8e374c,65d2b8000a1be524617363ed,0.0624,0.0624,1,23,185,76,1,threeone,,,,,,,,,,,,,,,,,,,,,,,,,,,,,,,,,,,,,,,,,,,,,,,,,,,,,,,,,,,,,,,,,,,,,,,,,,,,,,,,,,,,,,,,,,,,,,,,,,,,,,,,,,,,,,,,,,,,,,,,,,,,,,,,,,,,,,,,,
,,615ca96d7640b6c31b9e4462,2024-02-18_20h08.20.155,kallum_motion_pilot,2023.2.2,Win32,10,615ca96d7640b6c31b9e4462,65d2b6c8f2eece985d8e374c,65d2b8000a1be524617363ed,0.0625,0.0626,1,24,186,20,1,threeone,,,,,,,,,,,,,,,,,,,,,,,,,,,,,,,,,,,,,,,,,,,,,,,,,,,,,,,,,,,,,,,,,,,,,,,,,,,,,,,,,,,,,,,,,,,,,,,,,,,,,,,,,,,,,,,,,,,,,,,,,,,,,,,,,,,,,,,,,
,,615ca96d7640b6c31b9e4462,2024-02-18_20h08.20.155,kallum_motion_pilot,2023.2.2,Win32,10,615ca96d7640b6c31b9e4462,65d2b6c8f2eece985d8e374c,65d2b8000a1be524617363ed,0.0628,0.0628,1,25,187,70,1,fourtwo,,,,,,,,,,,,,,,,,,,,,,,,,,,,,,,,,,,,,,,,,,,,,,,,,,,,,,,,,,,,,,,,,,,,,,,,,,,,,,,,,,,,,,,,,,,,,,,,,,,,,,,,,,,,,,,,,,,,,,,,,,,,,,,,,,,,,,,,,
,,615ca96d7640b6c31b9e4462,2024-02-18_20h08.20.155,kallum_motion_pilot,2023.2.2,Win32,10,615ca96d7640b6c31b9e4462,65d2b6c8f2eece985d8e374c,65d2b8000a1be524617363ed,0.0629,0.0631,1,26,188,15,1,fourthree,,,,,,,,,,,,,,,,,,,,,,,,,,,,,,,,,,,,,,,,,,,,,,,,,,,,,,,,,,,,,,,,,,,,,,,,,,,,,,,,,,,,,,,,,,,,,,,,,,,,,,,,,,,,,,,,,,,,,,,,,,,,,,,,,,,,,,,,,
,,615ca96d7640b6c31b9e4462,2024-02-18_20h08.20.155,kallum_motion_pilot,2023.2.2,Win32,10,615ca96d7640b6c31b9e4462,65d2b6c8f2eece985d8e374c,65d2b8000a1be524617363ed,0.0632,0.0632,1,27,189,84,1,sevenfive,,,,,,,,,,,,,,,,,,,,,,,,,,,,,,,,,,,,,,,,,,,,,,,,,,,,,,,,,,,,,,,,,,,,,,,,,,,,,,,,,,,,,,,,,,,,,,,,,,,,,,,,,,,,,,,,,,,,,,,,,,,,,,,,,,,,,,,,,
,,615ca96d7640b6c31b9e4462,2024-02-18_20h08.20.155,kallum_motion_pilot,2023.2.2,Win32,10,615ca96d7640b6c31b9e4462,65d2b6c8f2eece985d8e374c,65d2b8000a1be524617363ed,0.0634,0.0634,1,28,190,32,1,onetwo,,,,,,,,,,,,,,,,,,,,,,,,,,,,,,,,,,,,,,,,,,,,,,,,,,,,,,,,,,,,,,,,,,,,,,,,,,,,,,,,,,,,,,,,,,,,,,,,,,,,,,,,,,,,,,,,,,,,,,,,,,,,,,,,,,,,,,,,,
,,615ca96d7640b6c31b9e4462,2024-02-18_20h08.20.155,kallum_motion_pilot,2023.2.2,Win32,10,615ca96d7640b6c31b9e4462,65d2b6c8f2eece985d8e374c,65d2b8000a1be524617363ed,0.0635,0.0635,1,29,191,132,1,sevenfive,,,,,,,,,,,,,,,,,,,,,,,,,,,,,,,,,,,,,,,,,,,,,,,,,,,,,,,,,,,,,,,,,,,,,,,,,,,,,,,,,,,,,,,,,,,,,,,,,,,,,,,,,,,,,,,,,,,,,,,,,,,,,,,,,,,,,,,,,
,,615ca96d7640b6c31b9e4462,2024-02-18_20h08.20.155,kallum_motion_pilot,2023.2.2,Win32,10,615ca96d7640b6c31b9e4462,65d2b6c8f2eece985d8e374c,65d2b8000a1be524617363ed,0.0636,0.0637,1,30,192,49,1,onethree,,,,,,,,,,,,,,,,,,,,,,,,,,,,,,,,,,,,,,,,,,,,,,,,,,,,,,,,,,,,,,,,,,,,,,,,,,,,,,,,,,,,,,,,,,,,,,,,,,,,,,,,,,,,,,,,,,,,,,,,,,,,,,,,,,,,,,,,,
,,615ca96d7640b6c31b9e4462,2024-02-18_20h08.20.155,kallum_motion_pilot,2023.2.2,Win32,10,615ca96d7640b6c31b9e4462,65d2b6c8f2eece985d8e374c,65d2b8000a1be524617363ed,0.0638,0.0639,1,31,193,57,1,onethree,,,,,,,,,,,,,,,,,,,,,,,,,,,,,,,,,,,,,,,,,,,,,,,,,,,,,,,,,,,,,,,,,,,,,,,,,,,,,,,,,,,,,,,,,,,,,,,,,,,,,,,,,,,,,,,,,,,,,,,,,,,,,,,,,,,,,,,,,
,,615ca96d7640b6c31b9e4462,2024-02-18_20h08.20.155,kallum_motion_pilot,2023.2.2,Win32,10,615ca96d7640b6c31b9e4462,65d2b6c8f2eece985d8e374c,65d2b8000a1be524617363ed,0.064,0.0641,1,32,194,120,1,fivesix,,,,,,,,,,,,,,,,,,,,,,,,,,,,,,,,,,,,,,,,,,,,,,,,,,,,,,,,,,,,,,,,,,,,,,,,,,,,,,,,,,,,,,,,,,,,,,,,,,,,,,,,,,,,,,,,,,,,,,,,,,,,,,,,,,,,,,,,,
,,615ca96d7640b6c31b9e4462,2024-02-18_20h08.20.155,kallum_motion_pilot,2023.2.2,Win32,10,615ca96d7640b6c31b9e4462,65d2b6c8f2eece985d8e374c,65d2b8000a1be524617363ed,0.0641,0.0642,1,33,195,102,1,eightsix,,,,,,,,,,,,,,,,,,,,,,,,,,,,,,,,,,,,,,,,,,,,,,,,,,,,,,,,,,,,,,,,,,,,,,,,,,,,,,,,,,,,,,,,,,,,,,,,,,,,,,,,,,,,,,,,,,,,,,,,,,,,,,,,,,,,,,,,,
,,615ca96d7640b6c31b9e4462,2024-02-18_20h08.20.155,kallum_motion_pilot,2023.2.2,Win32,10,615ca96d7640b6c31b9e4462,65d2b6c8f2eece985d8e374c,65d2b8000a1be524617363ed,0.0643,0.0645,1,34,196,85,1,seveneight,,,,,,,,,,,,,,,,,,,,,,,,,,,,,,,,,,,,,,,,,,,,,,,,,,,,,,,,,,,,,,,,,,,,,,,,,,,,,,,,,,,,,,,,,,,,,,,,,,,,,,,,,,,,,,,,,,,,,,,,,,,,,,,,,,,,,,,,,
,,615ca96d7640b6c31b9e4462,2024-02-18_20h08.20.155,kallum_motion_pilot,2023.2.2,Win32,10,615ca96d7640b6c31b9e4462,65d2b6c8f2eece985d8e374c,65d2b8000a1be524617363ed,0.0646,0.0647,1,35,197,139,1,sixeight,,,,,,,,,,,,,,,,,,,,,,,,,,,,,,,,,,,,,,,,,,,,,,,,,,,,,,,,,,,,,,,,,,,,,,,,,,,,,,,,,,,,,,,,,,,,,,,,,,,,,,,,,,,,,,,,,,,,,,,,,,,,,,,,,,,,,,,,,
,,615ca96d7640b6c31b9e4462,2024-02-18_20h08.20.155,kallum_motion_pilot,2023.2.2,Win32,10,615ca96d7640b6c31b9e4462,65d2b6c8f2eece985d8e374c,65d2b8000a1be524617363ed,0.0648,0.0649,1,36,198,72,1,onetwo,,,,,,,,,,,,,,,,,,,,,,,,,,,,,,,,,,,,,,,,,,,,,,,,,,,,,,,,,,,,,,,,,,,,,,,,,,,,,,,,,,,,,,,,,,,,,,,,,,,,,,,,,,,,,,,,,,,,,,,,,,,,,,,,,,,,,,,,,
,,615ca96d7640b6c31b9e4462,2024-02-18_20h08.20.155,kallum_motion_pilot,2023.2.2,Win32,10,615ca96d7640b6c31b9e4462,65d2b6c8f2eece985d8e374c,65d2b8000a1be524617363ed,0.0649,0.065,1,37,199,127,1,eightseven,,,,,,,,,,,,,,,,,,,,,,,,,,,,,,,,,,,,,,,,,,,,,,,,,,,,,,,,,,,,,,,,,,,,,,,,,,,,,,,,,,,,,,,,,,,,,,,,,,,,,,,,,,,,,,,,,,,,,,,,,,,,,,,,,,,,,,,,,
,,615ca96d7640b6c31b9e4462,2024-02-18_20h08.20.155,kallum_motion_pilot,2023.2.2,Win32,10,615ca96d7640b6c31b9e4462,65d2b6c8f2eece985d8e374c,65d2b8000a1be524617363ed,0.0652,0.0652,1,38,200,109,1,seveneight,,,,,,,,,,,,,,,,,,,,,,,,,,,,,,,,,,,,,,,,,,,,,,,,,,,,,,,,,,,,,,,,,,,,,,,,,,,,,,,,,,,,,,,,,,,,,,,,,,,,,,,,,,,,,,,,,,,,,,,,,,,,,,,,,,,,,,,,,
,,615ca96d7640b6c31b9e4462,2024-02-18_20h08.20.155,kallum_motion_pilot,2023.2.2,Win32,10,615ca96d7640b6c31b9e4462,65d2b6c8f2eece985d8e374c,65d2b8000a1be524617363ed,0.0653,0.0653,1,39,201,38,1,fourtwo,,,,,,,,,,,,,,,,,,,,,,,,,,,,,,,,,,,,,,,,,,,,,,,,,,,,,,,,,,,,,,,,,,,,,,,,,,,,,,,,,,,,,,,,,,,,,,,,,,,,,,,,,,,,,,,,,,,,,,,,,,,,,,,,,,,,,,,,,
,,615ca96d7640b6c31b9e4462,2024-02-18_20h08.20.155,kallum_motion_pilot,2023.2.2,Win32,10,615ca96d7640b6c31b9e4462,65d2b6c8f2eece985d8e374c,65d2b8000a1be524617363ed,0.0654,0.0655,1,40,202,17,1,onethree,,,,,,,,,,,,,,,,,,,,,,,,,,,,,,,,,,,,,,,,,,,,,,,,,,,,,,,,,,,,,,,,,,,,,,,,,,,,,,,,,,,,,,,,,,,,,,,,,,,,,,,,,,,,,,,,,,,,,,,,,,,,,,,,,,,,,,,,,
,,615ca96d7640b6c31b9e4462,2024-02-18_20h08.20.155,kallum_motion_pilot,2023.2.2,Win32,10,615ca96d7640b6c31b9e4462,65d2b6c8f2eece985d8e374c,65d2b8000a1be524617363ed,0.0656,0.0658,1,41,203,116,1,sevenfive,,,,,,,,,,,,,,,,,,,,,,,,,,,,,,,,,,,,,,,,,,,,,,,,,,,,,,,,,,,,,,,,,,,,,,,,,,,,,,,,,,,,,,,,,,,,,,,,,,,,,,,,,,,,,,,,,,,,,,,,,,,,,,,,,,,,,,,,,
,,615ca96d7640b6c31b9e4462,2024-02-18_20h08.20.155,kallum_motion_pilot,2023.2.2,Win32,10,615ca96d7640b6c31b9e4462,65d2b6c8f2eece985d8e374c,65d2b8000a1be524617363ed,0.0659,0.066,1,42,204,125,1,seveneight,,,,,,,,,,,,,,,,,,,,,,,,,,,,,,,,,,,,,,,,,,,,,,,,,,,,,,,,,,,,,,,,,,,,,,,,,,,,,,,,,,,,,,,,,,,,,,,,,,,,,,,,,,,,,,,,,,,,,,,,,,,,,,,,,,,,,,,,,
,,615ca96d7640b6c31b9e4462,2024-02-18_20h08.20.155,kallum_motion_pilot,2023.2.2,Win32,10,615ca96d7640b6c31b9e4462,65d2b6c8f2eece985d8e374c,65d2b8000a1be524617363ed,0.0661,0.0662,1,43,205,37,1,threefour,,,,,,,,,,,,,,,,,,,,,,,,,,,,,,,,,,,,,,,,,,,,,,,,,,,,,,,,,,,,,,,,,,,,,,,,,,,,,,,,,,,,,,,,,,,,,,,,,,,,,,,,,,,,,,,,,,,,,,,,,,,,,,,,,,,,,,,,,
,,615ca96d7640b6c31b9e4462,2024-02-18_20h08.20.155,kallum_motion_pilot,2023.2.2,Win32,10,615ca96d7640b6c31b9e4462,65d2b6c8f2eece985d8e374c,65d2b8000a1be524617363ed,0.0663,0.0664,1,44,206,14,1,fourtwo,,,,,,,,,,,,,,,,,,,,,,,,,,,,,,,,,,,,,,,,,,,,,,,,,,,,,,,,,,,,,,,,,,,,,,,,,,,,,,,,,,,,,,,,,,,,,,,,,,,,,,,,,,,,,,,,,,,,,,,,,,,,,,,,,,,,,,,,,
,,615ca96d7640b6c31b9e4462,2024-02-18_20h08.20.155,kallum_motion_pilot,2023.2.2,Win32,10,615ca96d7640b6c31b9e4462,65d2b6c8f2eece985d8e374c,65d2b8000a1be524617363ed,0.0665,0.0666,1,45,207,13,1,threefour,,,,,,,,,,,,,,,,,,,,,,,,,,,,,,,,,,,,,,,,,,,,,,,,,,,,,,,,,,,,,,,,,,,,,,,,,,,,,,,,,,,,,,,,,,,,,,,,,,,,,,,,,,,,,,,,,,,,,,,,,,,,,,,,,,,,,,,,,
,,615ca96d7640b6c31b9e4462,2024-02-18_20h08.20.155,kallum_motion_pilot,2023.2.2,Win32,10,615ca96d7640b6c31b9e4462,65d2b6c8f2eece985d8e374c,65d2b8000a1be524617363ed,0.0666,0.0668,1,46,208,43,1,twofour,,,,,,,,,,,,,,,,,,,,,,,,,,,,,,,,,,,,,,,,,,,,,,,,,,,,,,,,,,,,,,,,,,,,,,,,,,,,,,,,,,,,,,,,,,,,,,,,,,,,,,,,,,,,,,,,,,,,,,,,,,,,,,,,,,,,,,,,,
,,615ca96d7640b6c31b9e4462,2024-02-18_20h08.20.155,kallum_motion_pilot,2023.2.2,Win32,10,615ca96d7640b6c31b9e4462,65d2b6c8f2eece985d8e374c,65d2b8000a1be524617363ed,0.0669,0.0671,1,47,209,147,1,sixeight,,,,,,,,,,,,,,,,,,,,,,,,,,,,,,,,,,,,,,,,,,,,,,,,,,,,,,,,,,,,,,,,,,,,,,,,,,,,,,,,,,,,,,,,,,,,,,,,,,,,,,,,,,,,,,,,,,,,,,,,,,,,,,,,,,,,,,,,,
,,615ca96d7640b6c31b9e4462,2024-02-18_20h08.20.155,kallum_motion_pilot,2023.2.2,Win32,10,615ca96d7640b6c31b9e4462,65d2b6c8f2eece985d8e374c,65d2b8000a1be524617363ed,0.0672,0.0672,1,48,210,41,1,onethree,,,,,,,,,,,,,,,,,,,,,,,,,,,,,,,,,,,,,,,,,,,,,,,,,,,,,,,,,,,,,,,,,,,,,,,,,,,,,,,,,,,,,,,,,,,,,,,,,,,,,,,,,,,,,,,,,,,,,,,,,,,,,,,,,,,,,,,,,
,,615ca96d7640b6c31b9e4462,2024-02-18_20h08.20.155,kallum_motion_pilot,2023.2.2,Win32,10,615ca96d7640b6c31b9e4462,65d2b6c8f2eece985d8e374c,65d2b8000a1be524617363ed,0.0674,0.0674,1,49,211,142,1,eightsix,,,,,,,,,,,,,,,,,,,,,,,,,,,,,,,,,,,,,,,,,,,,,,,,,,,,,,,,,,,,,,,,,,,,,,,,,,,,,,,,,,,,,,,,,,,,,,,,,,,,,,,,,,,,,,,,,,,,,,,,,,,,,,,,,,,,,,,,,
,,615ca96d7640b6c31b9e4462,2024-02-18_20h08.20.155,kallum_motion_pilot,2023.2.2,Win32,10,615ca96d7640b6c31b9e4462,65d2b6c8f2eece985d8e374c,65d2b8000a1be524617363ed,0.0676,0.0676,1,50,212,119,1,eightseven,,,,,,,,,,,,,,,,,,,,,,,,,,,,,,,,,,,,,,,,,,,,,,,,,,,,,,,,,,,,,,,,,,,,,,,,,,,,,,,,,,,,,,,,,,,,,,,,,,,,,,,,,,,,,,,,,,,,,,,,,,,,,,,,,,,,,,,,,
,,615ca96d7640b6c31b9e4462,2024-02-18_20h08.20.155,kallum_motion_pilot,2023.2.2,Win32,10,615ca96d7640b6c31b9e4462,65d2b6c8f2eece985d8e374c,65d2b8000a1be524617363ed,0.0678,0.0679,1,51,213,114,1,sixfive,,,,,,,,,,,,,,,,,,,,,,,,,,,,,,,,,,,,,,,,,,,,,,,,,,,,,,,,,,,,,,,,,,,,,,,,,,,,,,,,,,,,,,,,,,,,,,,,,,,,,,,,,,,,,,,,,,,,,,,,,,,,,,,,,,,,,,,,,
,,615ca96d7640b6c31b9e4462,2024-02-18_20h08.20.155,kallum_motion_pilot,2023.2.2,Win32,10,615ca96d7640b6c31b9e4462,65d2b6c8f2eece985d8e374c,65d2b8000a1be524617363ed,0.0679,0.068,1,52,214,52,1,threeone,,,,,,,,,,,,,,,,,,,,,,,,,,,,,,,,,,,,,,,,,,,,,,,,,,,,,,,,,,,,,,,,,,,,,,,,,,,,,,,,,,,,,,,,,,,,,,,,,,,,,,,,,,,,,,,,,,,,,,,,,,,,,,,,,,,,,,,,,
,,615ca96d7640b6c31b9e4462,2024-02-18_20h08.20.155,kallum_motion_pilot,2023.2.2,Win32,10,615ca96d7640b6c31b9e4462,65d2b6c8f2eece985d8e374c,65d2b8000a1be524617363ed,0.0681,0.0681,1,53,215,143,1,eightseven,,,,,,,,,,,,,,,,,,,,,,,,,,,,,,,,,,,,,,,,,,,,,,,,,,,,,,,,,,,,,,,,,,,,,,,,,,,,,,,,,,,,,,,,,,,,,,,,,,,,,,,,,,,,,,,,,,,,,,,,,,,,,,,,,,,,,,,,,
,,615ca96d7640b6c31b9e4462,2024-02-18_20h08.20.155,kallum_motion_pilot,2023.2.2,Win32,10,615ca96d7640b6c31b9e4462,65d2b6c8f2eece985d8e374c,65d2b8000a1be524617363ed,0.0683,0.0683,1,54,216,91,1,sixeight,,,,,,,,,,,,,,,,,,,,,,,,,,,,,,,,,,,,,,,,,,,,,,,,,,,,,,,,,,,,,,,,,,,,,,,,,,,,,,,,,,,,,,,,,,,,,,,,,,,,,,,,,,,,,,,,,,,,,,,,,,,,,,,,,,,,,,,,,
,,615ca96d7640b6c31b9e4462,2024-02-18_20h08.20.155,kallum_motion_pilot,2023.2.2,Win32,10,615ca96d7640b6c31b9e4462,65d2b6c8f2eece985d8e374c,65d2b8000a1be524617363ed,0.0684,0.0686,1,55,217,156,1,sevenfive,,,,,,,,,,,,,,,,,,,,,,,,,,,,,,,,,,,,,,,,,,,,,,,,,,,,,,,,,,,,,,,,,,,,,,,,,,,,,,,,,,,,,,,,,,,,,,,,,,,,,,,,,,,,,,,,,,,,,,,,,,,,,,,,,,,,,,,,,
,,615ca96d7640b6c31b9e4462,2024-02-18_20h08.20.155,kallum_motion_pilot,2023.2.2,Win32,10,615ca96d7640b6c31b9e4462,65d2b6c8f2eece985d8e374c,65d2b8000a1be524617363ed,0.0686,0.0687,1,56,218,55,1,fourthree,,,,,,,,,,,,,,,,,,,,,,,,,,,,,,,,,,,,,,,,,,,,,,,,,,,,,,,,,,,,,,,,,,,,,,,,,,,,,,,,,,,,,,,,,,,,,,,,,,,,,,,,,,,,,,,,,,,,,,,,,,,,,,,,,,,,,,,,,
,,615ca96d7640b6c31b9e4462,2024-02-18_20h08.20.155,kallum_motion_pilot,2023.2.2,Win32,10,615ca96d7640b6c31b9e4462,65d2b6c8f2eece985d8e374c,65d2b8000a1be524617363ed,0.0688,0.0689,1,57,219,146,1,sixfive,,,,,,,,,,,,,,,,,,,,,,,,,,,,,,,,,,,,,,,,,,,,,,,,,,,,,,,,,,,,,,,,,,,,,,,,,,,,,,,,,,,,,,,,,,,,,,,,,,,,,,,,,,,,,,,,,,,,,,,,,,,,,,,,,,,,,,,,,
,,615ca96d7640b6c31b9e4462,2024-02-18_20h08.20.155,kallum_motion_pilot,2023.2.2,Win32,10,615ca96d7640b6c31b9e4462,65d2b6c8f2eece985d8e374c,65d2b8000a1be524617363ed,0.069,0.069,1,58,220,62,1,fourtwo,,,,,,,,,,,,,,,,,,,,,,,,,,,,,,,,,,,,,,,,,,,,,,,,,,,,,,,,,,,,,,,,,,,,,,,,,,,,,,,,,,,,,,,,,,,,,,,,,,,,,,,,,,,,,,,,,,,,,,,,,,,,,,,,,,,,,,,,,
,,615ca96d7640b6c31b9e4462,2024-02-18_20h08.20.155,kallum_motion_pilot,2023.2.2,Win32,10,615ca96d7640b6c31b9e4462,65d2b6c8f2eece985d8e374c,65d2b8000a1be524617363ed,0.0692,0.0693,1,59,221,148,1,sevenfive,,,,,,,,,,,,,,,,,,,,,,,,,,,,,,,,,,,,,,,,,,,,,,,,,,,,,,,,,,,,,,,,,,,,,,,,,,,,,,,,,,,,,,,,,,,,,,,,,,,,,,,,,,,,,,,,,,,,,,,,,,,,,,,,,,,,,,,,,
,,615ca96d7640b6c31b9e4462,2024-02-18_20h08.20.155,kallum_motion_pilot,2023.2.2,Win32,10,615ca96d7640b6c31b9e4462,65d2b6c8f2eece985d8e374c,65d2b8000a1be524617363ed,0.0694,0.0694,1,60,222,61,1,threefour,,,,,,,,,,,,,,,,,,,,,,,,,,,,,,,,,,,,,,,,,,,,,,,,,,,,,,,,,,,,,,,,,,,,,,,,,,,,,,,,,,,,,,,,,,,,,,,,,,,,,,,,,,,,,,,,,,,,,,,,,,,,,,,,,,,,,,,,,
,,615ca96d7640b6c31b9e4462,2024-02-18_20h08.20.155,kallum_motion_pilot,2023.2.2,Win32,10,615ca96d7640b6c31b9e4462,65d2b6c8f2eece985d8e374c,65d2b8000a1be524617363ed,0.0696,0.0697,1,61,223,96,1,fivesix,,,,,,,,,,,,,,,,,,,,,,,,,,,,,,,,,,,,,,,,,,,,,,,,,,,,,,,,,,,,,,,,,,,,,,,,,,,,,,,,,,,,,,,,,,,,,,,,,,,,,,,,,,,,,,,,,,,,,,,,,,,,,,,,,,,,,,,,,
,,615ca96d7640b6c31b9e4462,2024-02-18_20h08.20.155,kallum_motion_pilot,2023.2.2,Win32,10,615ca96d7640b6c31b9e4462,65d2b6c8f2eece985d8e374c,65d2b8000a1be524617363ed,0.0697,0.0698,1,62,224,18,1,twoone,,,,,,,,,,,,,,,,,,,,,,,,,,,,,,,,,,,,,,,,,,,,,,,,,,,,,,,,,,,,,,,,,,,,,,,,,,,,,,,,,,,,,,,,,,,,,,,,,,,,,,,,,,,,,,,,,,,,,,,,,,,,,,,,,,,,,,,,,
,,615ca96d7640b6c31b9e4462,2024-02-18_20h08.20.155,kallum_motion_pilot,2023.2.2,Win32,10,615ca96d7640b6c31b9e4462,65d2b6c8f2eece985d8e374c,65d2b8000a1be524617363ed,0.0699,0.07,1,63,225,29,1,threefour,,,,,,,,,,,,,,,,,,,,,,,,,,,,,,,,,,,,,,,,,,,,,,,,,,,,,,,,,,,,,,,,,,,,,,,,,,,,,,,,,,,,,,,,,,,,,,,,,,,,,,,,,,,,,,,,,,,,,,,,,,,,,,,,,,,,,,,,,
,,615ca96d7640b6c31b9e4462,2024-02-18_20h08.20.155,kallum_motion_pilot,2023.2.2,Win32,10,615ca96d7640b6c31b9e4462,65d2b6c8f2eece985d8e374c,65d2b8000a1be524617363ed,0.0701,0.0702,1,64,226,93,1,seveneight,,,,,,,,,,,,,,,,,,,,,,,,,,,,,,,,,,,,,,,,,,,,,,,,,,,,,,,,,,,,,,,,,,,,,,,,,,,,,,,,,,,,,,,,,,,,,,,,,,,,,,,,,,,,,,,,,,,,,,,,,,,,,,,,,,,,,,,,,
,,615ca96d7640b6c31b9e4462,2024-02-18_20h08.20.155,kallum_motion_pilot,2023.2.2,Win32,10,615ca96d7640b6c31b9e4462,65d2b6c8f2eece985d8e374c,65d2b8000a1be524617363ed,0.0702,0.0703,1,65,227,68,1,threeone,,,,,,,,,,,,,,,,,,,,,,,,,,,,,,,,,,,,,,,,,,,,,,,,,,,,,,,,,,,,,,,,,,,,,,,,,,,,,,,,,,,,,,,,,,,,,,,,,,,,,,,,,,,,,,,,,,,,,,,,,,,,,,,,,,,,,,,,,
,,615ca96d7640b6c31b9e4462,2024-02-18_20h08.20.155,kallum_motion_pilot,2023.2.2,Win32,10,615ca96d7640b6c31b9e4462,65d2b6c8f2eece985d8e374c,65d2b8000a1be524617363ed,0.0704,0.0705,1,66,228,153,1,fiveseven,,,,,,,,,,,,,,,,,,,,,,,,,,,,,,,,,,,,,,,,,,,,,,,,,,,,,,,,,,,,,,,,,,,,,,,,,,,,,,,,,,,,,,,,,,,,,,,,,,,,,,,,,,,,,,,,,,,,,,,,,,,,,,,,,,,,,,,,,
,,615ca96d7640b6c31b9e4462,2024-02-18_20h08.20.155,kallum_motion_pilot,2023.2.2,Win32,10,615ca96d7640b6c31b9e4462,65d2b6c8f2eece985d8e374c,65d2b8000a1be524617363ed,0.0706,0.0708,1,67,229,149,1,seveneight,,,,,,,,,,,,,,,,,,,,,,,,,,,,,,,,,,,,,,,,,,,,,,,,,,,,,,,,,,,,,,,,,,,,,,,,,,,,,,,,,,,,,,,,,,,,,,,,,,,,,,,,,,,,,,,,,,,,,,,,,,,,,,,,,,,,,,,,,
,,615ca96d7640b6c31b9e4462,2024-02-18_20h08.20.155,kallum_motion_pilot,2023.2.2,Win32,10,615ca96d7640b6c31b9e4462,65d2b6c8f2eece985d8e374c,65d2b8000a1be524617363ed,0.0709,0.071,1,68,230,79,1,eightseven,,,,,,,,,,,,,,,,,,,,,,,,,,,,,,,,,,,,,,,,,,,,,,,,,,,,,,,,,,,,,,,,,,,,,,,,,,,,,,,,,,,,,,,,,,,,,,,,,,,,,,,,,,,,,,,,,,,,,,,,,,,,,,,,,,,,,,,,,
,,615ca96d7640b6c31b9e4462,2024-02-18_20h08.20.155,kallum_motion_pilot,2023.2.2,Win32,10,615ca96d7640b6c31b9e4462,65d2b6c8f2eece985d8e374c,65d2b8000a1be524617363ed,0.071,0.0712,1,69,231,108,1,sevenfive,,,,,,,,,,,,,,,,,,,,,,,,,,,,,,,,,,,,,,,,,,,,,,,,,,,,,,,,,,,,,,,,,,,,,,,,,,,,,,,,,,,,,,,,,,,,,,,,,,,,,,,,,,,,,,,,,,,,,,,,,,,,,,,,,,,,,,,,,
,,615ca96d7640b6c31b9e4462,2024-02-18_20h08.20.155,kallum_motion_pilot,2023.2.2,Win32,10,615ca96d7640b6c31b9e4462,65d2b6c8f2eece985d8e374c,65d2b8000a1be524617363ed,0.0712,0.0714,1,70,232,123,1,sixeight,,,,,,,,,,,,,,,,,,,,,,,,,,,,,,,,,,,,,,,,,,,,,,,,,,,,,,,,,,,,,,,,,,,,,,,,,,,,,,,,,,,,,,,,,,,,,,,,,,,,,,,,,,,,,,,,,,,,,,,,,,,,,,,,,,,,,,,,,
,,615ca96d7640b6c31b9e4462,2024-02-18_20h08.20.155,kallum_motion_pilot,2023.2.2,Win32,10,615ca96d7640b6c31b9e4462,65d2b6c8f2eece985d8e374c,65d2b8000a1be524617363ed,0.0715,0.0715,1,71,233,36,1,threeone,,,,,,,,,,,,,,,,,,,,,,,,,,,,,,,,,,,,,,,,,,,,,,,,,,,,,,,,,,,,,,,,,,,,,,,,,,,,,,,,,,,,,,,,,,,,,,,,,,,,,,,,,,,,,,,,,,,,,,,,,,,,,,,,,,,,,,,,,
,,615ca96d7640b6c31b9e4462,2024-02-18_20h08.20.155,kallum_motion_pilot,2023.2.2,Win32,10,615ca96d7640b6c31b9e4462,65d2b6c8f2eece985d8e374c,65d2b8000a1be524617363ed,0.0716,0.0717,1,72,234,34,1,twoone,,,,,,,,,,,,,,,,,,,,,,,,,,,,,,,,,,,,,,,,,,,,,,,,,,,,,,,,,,,,,,,,,,,,,,,,,,,,,,,,,,,,,,,,,,,,,,,,,,,,,,,,,,,,,,,,,,,,,,,,,,,,,,,,,,,,,,,,,
,,615ca96d7640b6c31b9e4462,2024-02-18_20h08.20.155,kallum_motion_pilot,2023.2.2,Win32,10,615ca96d7640b6c31b9e4462,65d2b6c8f2eece985d8e374c,65d2b8000a1be524617363ed,0.0719,0.0719,1,73,235,155,1,sixeight,,,,,,,,,,,,,,,,,,,,,,,,,,,,,,,,,,,,,,,,,,,,,,,,,,,,,,,,,,,,,,,,,,,,,,,,,,,,,,,,,,,,,,,,,,,,,,,,,,,,,,,,,,,,,,,,,,,,,,,,,,,,,,,,,,,,,,,,,
,,615ca96d7640b6c31b9e4462,2024-02-18_20h08.20.155,kallum_motion_pilot,2023.2.2,Win32,10,615ca96d7640b6c31b9e4462,65d2b6c8f2eece985d8e374c,65d2b8000a1be524617363ed,0.072,0.0721,1,74,236,131,1,sixeight,,,,,,,,,,,,,,,,,,,,,,,,,,,,,,,,,,,,,,,,,,,,,,,,,,,,,,,,,,,,,,,,,,,,,,,,,,,,,,,,,,,,,,,,,,,,,,,,,,,,,,,,,,,,,,,,,,,,,,,,,,,,,,,,,,,,,,,,,
,,615ca96d7640b6c31b9e4462,2024-02-18_20h08.20.155,kallum_motion_pilot,2023.2.2,Win32,10,615ca96d7640b6c31b9e4462,65d2b6c8f2eece985d8e374c,65d2b8000a1be524617363ed,0.0722,0.0723,1,75,237,118,1,eightsix,,,,,,,,,,,,,,,,,,,,,,,,,,,,,,,,,,,,,,,,,,,,,,,,,,,,,,,,,,,,,,,,,,,,,,,,,,,,,,,,,,,,,,,,,,,,,,,,,,,,,,,,,,,,,,,,,,,,,,,,,,,,,,,,,,,,,,,,,
,,615ca96d7640b6c31b9e4462,2024-02-18_20h08.20.155,kallum_motion_pilot,2023.2.2,Win32,10,615ca96d7640b6c31b9e4462,65d2b6c8f2eece985d8e374c,65d2b8000a1be524617363ed,0.0724,0.0725,1,76,238,97,1,fiveseven,,,,,,,,,,,,,,,,,,,,,,,,,,,,,,,,,,,,,,,,,,,,,,,,,,,,,,,,,,,,,,,,,,,,,,,,,,,,,,,,,,,,,,,,,,,,,,,,,,,,,,,,,,,,,,,,,,,,,,,,,,,,,,,,,,,,,,,,,
,,615ca96d7640b6c31b9e4462,2024-02-18_20h08.20.155,kallum_motion_pilot,2023.2.2,Win32,10,615ca96d7640b6c31b9e4462,65d2b6c8f2eece985d8e374c,65d2b8000a1be524617363ed,0.0726,0.0727,1,77,239,161,1,fiveseven,,,,,,,,,,,,,,,,,,,,,,,,,,,,,,,,,,,,,,,,,,,,,,,,,,,,,,,,,,,,,,,,,,,,,,,,,,,,,,,,,,,,,,,,,,,,,,,,,,,,,,,,,,,,,,,,,,,,,,,,,,,,,,,,,,,,,,,,,
,,615ca96d7640b6c31b9e4462,2024-02-18_20h08.20.155,kallum_motion_pilot,2023.2.2,Win32,10,615ca96d7640b6c31b9e4462,65d2b6c8f2eece985d8e374c,65d2b8000a1be524617363ed,0.0728,0.0728,1,78,240,19,1,twofour,,,,,,,,,,,,,,,,,,,,,,,,,,,,,,,,,,,,,,,,,,,,,,,,,,,,,,,,,,,,,,,,,,,,,,,,,,,,,,,,,,,,,,,,,,,,,,,,,,,,,,,,,,,,,,,,,,,,,,,,,,,,,,,,,,,,,,,,,
,,615ca96d7640b6c31b9e4462,2024-02-18_20h08.20.155,kallum_motion_pilot,2023.2.2,Win32,10,615ca96d7640b6c31b9e4462,65d2b6c8f2eece985d8e374c,65d2b8000a1be524617363ed,0.0729,0.073,1,79,241,159,1,eightseven,,,,,,,,,,,,,,,,,,,,,,,,,,,,,,,,,,,,,,,,,,,,,,,,,,,,,,,,,,,,,,,,,,,,,,,,,,,,,,,,,,,,,,,,,,,,,,,,,,,,,,,,,,,,,,,,,,,,,,,,,,,,,,,,,,,,,,,,,
,,615ca96d7640b6c31b9e4462,2024-02-18_20h08.20.155,kallum_motion_pilot,2023.2.2,Win32,10,615ca96d7640b6c31b9e4462,65d2b6c8f2eece985d8e374c,65d2b8000a1be524617363ed,0.0731,0.0732,1,80,242,0,1,onetwo,,,,,,,,,,,,,,,,,,,,,,,,,,,,,,,,,,,,,,,,,,,,,,,,,,,,,,,,,,,,,,,,,,,,,,,,,,,,,,,,,,,,,,,,,,,,,,,,,,,,,,,,,,,,,,,,,,,,,,,,,,,,,,,,,,,,,,,,,
,,615ca96d7640b6c31b9e4462,2024-02-18_20h08.20.155,kallum_motion_pilot,2023.2.2,Win32,10,615ca96d7640b6c31b9e4462,65d2b6c8f2eece985d8e374c,65d2b8000a1be524617363ed,0.0733,0.0734,1,81,243,104,1,fivesix,,,,,,,,,,,,,,,,,,,,,,,,,,,,,,,,,,,,,,,,,,,,,,,,,,,,,,,,,,,,,,,,,,,,,,,,,,,,,,,,,,,,,,,,,,,,,,,,,,,,,,,,,,,,,,,,,,,,,,,,,,,,,,,,,,,,,,,,,
,,615ca96d7640b6c31b9e4462,2024-02-18_20h08.20.155,kallum_motion_pilot,2023.2.2,Win32,10,615ca96d7640b6c31b9e4462,65d2b6c8f2eece985d8e374c,65d2b8000a1be524617363ed,0.0734,0.0735,1,82,244,24,1,onetwo,,,,,,,,,,,,,,,,,,,,,,,,,,,,,,,,,,,,,,,,,,,,,,,,,,,,,,,,,,,,,,,,,,,,,,,,,,,,,,,,,,,,,,,,,,,,,,,,,,,,,,,,,,,,,,,,,,,,,,,,,,,,,,,,,,,,,,,,,
,,615ca96d7640b6c31b9e4462,2024-02-18_20h08.20.155,kallum_motion_pilot,2023.2.2,Win32,10,615ca96d7640b6c31b9e4462,65d2b6c8f2eece985d8e374c,65d2b8000a1be524617363ed,0.0737,0.0738,1,83,245,151,1,eightseven,,,,,,,,,,,,,,,,,,,,,,,,,,,,,,,,,,,,,,,,,,,,,,,,,,,,,,,,,,,,,,,,,,,,,,,,,,,,,,,,,,,,,,,,,,,,,,,,,,,,,,,,,,,,,,,,,,,,,,,,,,,,,,,,,,,,,,,,,
,,615ca96d7640b6c31b9e4462,2024-02-18_20h08.20.155,kallum_motion_pilot,2023.2.2,Win32,10,615ca96d7640b6c31b9e4462,65d2b6c8f2eece985d8e374c,65d2b8000a1be524617363ed,0.0738,0.0739,1,84,246,66,1,twoone,,,,,,,,,,,,,,,,,,,,,,,,,,,,,,,,,,,,,,,,,,,,,,,,,,,,,,,,,,,,,,,,,,,,,,,,,,,,,,,,,,,,,,,,,,,,,,,,,,,,,,,,,,,,,,,,,,,,,,,,,,,,,,,,,,,,,,,,,
,,615ca96d7640b6c31b9e4462,2024-02-18_20h08.20.155,kallum_motion_pilot,2023.2.2,Win32,10,615ca96d7640b6c31b9e4462,65d2b6c8f2eece985d8e374c,65d2b8000a1be524617363ed,0.0739,0.0741,1,85,247,2,1,twoone,,,,,,,,,,,,,,,,,,,,,,,,,,,,,,,,,,,,,,,,,,,,,,,,,,,,,,,,,,,,,,,,,,,,,,,,,,,,,,,,,,,,,,,,,,,,,,,,,,,,,,,,,,,,,,,,,,,,,,,,,,,,,,,,,,,,,,,,,
,,615ca96d7640b6c31b9e4462,2024-02-18_20h08.20.155,kallum_motion_pilot,2023.2.2,Win32,10,615ca96d7640b6c31b9e4462,65d2b6c8f2eece985d8e374c,65d2b8000a1be524617363ed,0.0742,0.0744,1,86,248,42,1,twoone,,,,,,,,,,,,,,,,,,,,,,,,,,,,,,,,,,,,,,,,,,,,,,,,,,,,,,,,,,,,,,,,,,,,,,,,,,,,,,,,,,,,,,,,,,,,,,,,,,,,,,,,,,,,,,,,,,,,,,,,,,,,,,,,,,,,,,,,,
,,615ca96d7640b6c31b9e4462,2024-02-18_20h08.20.155,kallum_motion_pilot,2023.2.2,Win32,10,615ca96d7640b6c31b9e4462,65d2b6c8f2eece985d8e374c,65d2b8000a1be524617363ed,0.0745,0.0746,1,87,249,115,1,sixeight,,,,,,,,,,,,,,,,,,,,,,,,,,,,,,,,,,,,,,,,,,,,,,,,,,,,,,,,,,,,,,,,,,,,,,,,,,,,,,,,,,,,,,,,,,,,,,,,,,,,,,,,,,,,,,,,,,,,,,,,,,,,,,,,,,,,,,,,,
,,615ca96d7640b6c31b9e4462,2024-02-18_20h08.20.155,kallum_motion_pilot,2023.2.2,Win32,10,615ca96d7640b6c31b9e4462,65d2b6c8f2eece985d8e374c,65d2b8000a1be524617363ed,0.0748,0.0749,1,88,250,44,1,threeone,,,,,,,,,,,,,,,,,,,,,,,,,,,,,,,,,,,,,,,,,,,,,,,,,,,,,,,,,,,,,,,,,,,,,,,,,,,,,,,,,,,,,,,,,,,,,,,,,,,,,,,,,,,,,,,,,,,,,,,,,,,,,,,,,,,,,,,,,
,,615ca96d7640b6c31b9e4462,2024-02-18_20h08.20.155,kallum_motion_pilot,2023.2.2,Win32,10,615ca96d7640b6c31b9e4462,65d2b6c8f2eece985d8e374c,65d2b8000a1be524617363ed,0.075,0.0752,1,89,251,88,1,fivesix,,,,,,,,,,,,,,,,,,,,,,,,,,,,,,,,,,,,,,,,,,,,,,,,,,,,,,,,,,,,,,,,,,,,,,,,,,,,,,,,,,,,,,,,,,,,,,,,,,,,,,,,,,,,,,,,,,,,,,,,,,,,,,,,,,,,,,,,,
,,615ca96d7640b6c31b9e4462,2024-02-18_20h08.20.155,kallum_motion_pilot,2023.2.2,Win32,10,615ca96d7640b6c31b9e4462,65d2b6c8f2eece985d8e374c,65d2b8000a1be524617363ed,0.0752,0.0754,1,90,252,60,1,threeone,,,,,,,,,,,,,,,,,,,,,,,,,,,,,,,,,,,,,,,,,,,,,,,,,,,,,,,,,,,,,,,,,,,,,,,,,,,,,,,,,,,,,,,,,,,,,,,,,,,,,,,,,,,,,,,,,,,,,,,,,,,,,,,,,,,,,,,,,
,,615ca96d7640b6c31b9e4462,2024-02-18_20h08.20.155,kallum_motion_pilot,2023.2.2,Win32,10,615ca96d7640b6c31b9e4462,65d2b6c8f2eece985d8e374c,65d2b8000a1be524617363ed,0.0755,0.0757,1,91,253,75,1,twofour,,,,,,,,,,,,,,,,,,,,,,,,,,,,,,,,,,,,,,,,,,,,,,,,,,,,,,,,,,,,,,,,,,,,,,,,,,,,,,,,,,,,,,,,,,,,,,,,,,,,,,,,,,,,,,,,,,,,,,,,,,,,,,,,,,,,,,,,,
,,615ca96d7640b6c31b9e4462,2024-02-18_20h08.20.155,kallum_motion_pilot,2023.2.2,Win32,10,615ca96d7640b6c31b9e4462,65d2b6c8f2eece985d8e374c,65d2b8000a1be524617363ed,0.0758,0.0759,1,92,254,98,1,sixfive,,,,,,,,,,,,,,,,,,,,,,,,,,,,,,,,,,,,,,,,,,,,,,,,,,,,,,,,,,,,,,,,,,,,,,,,,,,,,,,,,,,,,,,,,,,,,,,,,,,,,,,,,,,,,,,,,,,,,,,,,,,,,,,,,,,,,,,,,
,,615ca96d7640b6c31b9e4462,2024-02-18_20h08.20.155,kallum_motion_pilot,2023.2.2,Win32,10,615ca96d7640b6c31b9e4462,65d2b6c8f2eece985d8e374c,65d2b8000a1be524617363ed,0.0761,0.0762,1,93,255,113,1,fiveseven,,,,,,,,,,,,,,,,,,,,,,,,,,,,,,,,,,,,,,,,,,,,,,,,,,,,,,,,,,,,,,,,,,,,,,,,,,,,,,,,,,,,,,,,,,,,,,,,,,,,,,,,,,,,,,,,,,,,,,,,,,,,,,,,,,,,,,,,,
,,615ca96d7640b6c31b9e4462,2024-02-18_20h08.20.155,kallum_motion_pilot,2023.2.2,Win32,10,615ca96d7640b6c31b9e4462,65d2b6c8f2eece985d8e374c,65d2b8000a1be524617363ed,0.0763,0.0764,1,94,256,40,1,onetwo,,,,,,,,,,,,,,,,,,,,,,,,,,,,,,,,,,,,,,,,,,,,,,,,,,,,,,,,,,,,,,,,,,,,,,,,,,,,,,,,,,,,,,,,,,,,,,,,,,,,,,,,,,,,,,,,,,,,,,,,,,,,,,,,,,,,,,,,,
,,615ca96d7640b6c31b9e4462,2024-02-18_20h08.20.155,kallum_motion_pilot,2023.2.2,Win32,10,615ca96d7640b6c31b9e4462,65d2b6c8f2eece985d8e374c,65d2b8000a1be524617363ed,0.0765,0.0766,1,95,257,25,1,onethree,,,,,,,,,,,,,,,,,,,,,,,,,,,,,,,,,,,,,,,,,,,,,,,,,,,,,,,,,,,,,,,,,,,,,,,,,,,,,,,,,,,,,,,,,,,,,,,,,,,,,,,,,,,,,,,,,,,,,,,,,,,,,,,,,,,,,,,,,
,,615ca96d7640b6c31b9e4462,2024-02-18_20h08.20.155,kallum_motion_pilot,2023.2.2,Win32,10,615ca96d7640b6c31b9e4462,65d2b6c8f2eece985d8e374c,65d2b8000a1be524617363ed,0.0767,0.0768,1,96,258,39,1,fourthree,,,,,,,,,,,,,,,,,,,,,,,,,,,,,,,,,,,,,,,,,,,,,,,,,,,,,,,,,,,,,,,,,,,,,,,,,,,,,,,,,,,,,,,,,,,,,,,,,,,,,,,,,,,,,,,,,,,,,,,,,,,,,,,,,,,,,,,,,
,,615ca96d7640b6c31b9e4462,2024-02-18_20h08.20.155,kallum_motion_pilot,2023.2.2,Win32,10,615ca96d7640b6c31b9e4462,65d2b6c8f2eece985d8e374c,65d2b8000a1be524617363ed,0.0769,0.077,1,97,259,95,1,eightseven,,,,,,,,,,,,,,,,,,,,,,,,,,,,,,,,,,,,,,,,,,,,,,,,,,,,,,,,,,,,,,,,,,,,,,,,,,,,,,,,,,,,,,,,,,,,,,,,,,,,,,,,,,,,,,,,,,,,,,,,,,,,,,,,,,,,,,,,,
,,615ca96d7640b6c31b9e4462,2024-02-18_20h08.20.155,kallum_motion_pilot,2023.2.2,Win32,10,615ca96d7640b6c31b9e4462,65d2b6c8f2eece985d8e374c,65d2b8000a1be524617363ed,0.077,0.0771,1,98,260,154,1,sixfive,,,,,,,,,,,,,,,,,,,,,,,,,,,,,,,,,,,,,,,,,,,,,,,,,,,,,,,,,,,,,,,,,,,,,,,,,,,,,,,,,,,,,,,,,,,,,,,,,,,,,,,,,,,,,,,,,,,,,,,,,,,,,,,,,,,,,,,,,
,,615ca96d7640b6c31b9e4462,2024-02-18_20h08.20.155,kallum_motion_pilot,2023.2.2,Win32,10,615ca96d7640b6c31b9e4462,65d2b6c8f2eece985d8e374c,65d2b8000a1be524617363ed,0.0772,0.0773,1,99,261,160,1,fivesix,,,,,,,,,,,,,,,,,,,,,,,,,,,,,,,,,,,,,,,,,,,,,,,,,,,,,,,,,,,,,,,,,,,,,,,,,,,,,,,,,,,,,,,,,,,,,,,,,,,,,,,,,,,,,,,,,,,,,,,,,,,,,,,,,,,,,,,,,
,,615ca96d7640b6c31b9e4462,2024-02-18_20h08.20.155,kallum_motion_pilot,2023.2.2,Win32,10,615ca96d7640b6c31b9e4462,65d2b6c8f2eece985d8e374c,65d2b8000a1be524617363ed,0.0773,0.0775,1,100,262,110,1,eightsix,,,,,,,,,,,,,,,,,,,,,,,,,,,,,,,,,,,,,,,,,,,,,,,,,,,,,,,,,,,,,,,,,,,,,,,,,,,,,,,,,,,,,,,,,,,,,,,,,,,,,,,,,,,,,,,,,,,,,,,,,,,,,,,,,,,,,,,,,
,,615ca96d7640b6c31b9e4462,2024-02-18_20h08.20.155,kallum_motion_pilot,2023.2.2,Win32,10,615ca96d7640b6c31b9e4462,65d2b6c8f2eece985d8e374c,65d2b8000a1be524617363ed,0.0776,0.0776,1,101,263,56,1,onetwo,,,,,,,,,,,,,,,,,,,,,,,,,,,,,,,,,,,,,,,,,,,,,,,,,,,,,,,,,,,,,,,,,,,,,,,,,,,,,,,,,,,,,,,,,,,,,,,,,,,,,,,,,,,,,,,,,,,,,,,,,,,,,,,,,,,,,,,,,
,,615ca96d7640b6c31b9e4462,2024-02-18_20h08.20.155,kallum_motion_pilot,2023.2.2,Win32,10,615ca96d7640b6c31b9e4462,65d2b6c8f2eece985d8e374c,65d2b8000a1be524617363ed,0.0778,0.0778,1,102,264,112,1,fivesix,,,,,,,,,,,,,,,,,,,,,,,,,,,,,,,,,,,,,,,,,,,,,,,,,,,,,,,,,,,,,,,,,,,,,,,,,,,,,,,,,,,,,,,,,,,,,,,,,,,,,,,,,,,,,,,,,,,,,,,,,,,,,,,,,,,,,,,,,
,,615ca96d7640b6c31b9e4462,2024-02-18_20h08.20.155,kallum_motion_pilot,2023.2.2,Win32,10,615ca96d7640b6c31b9e4462,65d2b6c8f2eece985d8e374c,65d2b8000a1be524617363ed,0.0779,0.0781,1,103,265,111,1,eightseven,,,,,,,,,,,,,,,,,,,,,,,,,,,,,,,,,,,,,,,,,,,,,,,,,,,,,,,,,,,,,,,,,,,,,,,,,,,,,,,,,,,,,,,,,,,,,,,,,,,,,,,,,,,,,,,,,,,,,,,,,,,,,,,,,,,,,,,,,
,,615ca96d7640b6c31b9e4462,2024-02-18_20h08.20.155,kallum_motion_pilot,2023.2.2,Win32,10,615ca96d7640b6c31b9e4462,65d2b6c8f2eece985d8e374c,65d2b8000a1be524617363ed,0.0781,0.0782,1,104,266,107,1,sixeight,,,,,,,,,,,,,,,,,,,,,,,,,,,,,,,,,,,,,,,,,,,,,,,,,,,,,,,,,,,,,,,,,,,,,,,,,,,,,,,,,,,,,,,,,,,,,,,,,,,,,,,,,,,,,,,,,,,,,,,,,,,,,,,,,,,,,,,,,
,,615ca96d7640b6c31b9e4462,2024-02-18_20h08.20.155,kallum_motion_pilot,2023.2.2,Win32,10,615ca96d7640b6c31b9e4462,65d2b6c8f2eece985d8e374c,65d2b8000a1be524617363ed,0.0784,0.0785,1,105,267,121,1,fiveseven,,,,,,,,,,,,,,,,,,,,,,,,,,,,,,,,,,,,,,,,,,,,,,,,,,,,,,,,,,,,,,,,,,,,,,,,,,,,,,,,,,,,,,,,,,,,,,,,,,,,,,,,,,,,,,,,,,,,,,,,,,,,,,,,,,,,,,,,,
,,615ca96d7640b6c31b9e4462,2024-02-18_20h08.20.155,kallum_motion_pilot,2023.2.2,Win32,10,615ca96d7640b6c31b9e4462,65d2b6c8f2eece985d8e374c,65d2b8000a1be524617363ed,0.0786,0.0787,1,106,268,140,1,sevenfive,,,,,,,,,,,,,,,,,,,,,,,,,,,,,,,,,,,,,,,,,,,,,,,,,,,,,,,,,,,,,,,,,,,,,,,,,,,,,,,,,,,,,,,,,,,,,,,,,,,,,,,,,,,,,,,,,,,,,,,,,,,,,,,,,,,,,,,,,
,,615ca96d7640b6c31b9e4462,2024-02-18_20h08.20.155,kallum_motion_pilot,2023.2.2,Win32,10,615ca96d7640b6c31b9e4462,65d2b6c8f2eece985d8e374c,65d2b8000a1be524617363ed,0.0789,0.079,1,107,269,11,1,twofour,,,,,,,,,,,,,,,,,,,,,,,,,,,,,,,,,,,,,,,,,,,,,,,,,,,,,,,,,,,,,,,,,,,,,,,,,,,,,,,,,,,,,,,,,,,,,,,,,,,,,,,,,,,,,,,,,,,,,,,,,,,,,,,,,,,,,,,,,
,,615ca96d7640b6c31b9e4462,2024-02-18_20h08.20.155,kallum_motion_pilot,2023.2.2,Win32,10,615ca96d7640b6c31b9e4462,65d2b6c8f2eece985d8e374c,65d2b8000a1be524617363ed,0.0791,0.0791,1,108,270,64,1,onetwo,,,,,,,,,,,,,,,,,,,,,,,,,,,,,,,,,,,,,,,,,,,,,,,,,,,,,,,,,,,,,,,,,,,,,,,,,,,,,,,,,,,,,,,,,,,,,,,,,,,,,,,,,,,,,,,,,,,,,,,,,,,,,,,,,,,,,,,,,
,,615ca96d7640b6c31b9e4462,2024-02-18_20h08.20.155,kallum_motion_pilot,2023.2.2,Win32,10,615ca96d7640b6c31b9e4462,65d2b6c8f2eece985d8e374c,65d2b8000a1be524617363ed,0.0793,0.0794,1,109,271,138,1,sixfive,,,,,,,,,,,,,,,,,,,,,,,,,,,,,,,,,,,,,,,,,,,,,,,,,,,,,,,,,,,,,,,,,,,,,,,,,,,,,,,,,,,,,,,,,,,,,,,,,,,,,,,,,,,,,,,,,,,,,,,,,,,,,,,,,,,,,,,,,
,,615ca96d7640b6c31b9e4462,2024-02-18_20h08.20.155,kallum_motion_pilot,2023.2.2,Win32,10,615ca96d7640b6c31b9e4462,65d2b6c8f2eece985d8e374c,65d2b8000a1be524617363ed,0.0795,0.0796,1,110,272,100,1,sevenfive,,,,,,,,,,,,,,,,,,,,,,,,,,,,,,,,,,,,,,,,,,,,,,,,,,,,,,,,,,,,,,,,,,,,,,,,,,,,,,,,,,,,,,,,,,,,,,,,,,,,,,,,,,,,,,,,,,,,,,,,,,,,,,,,,,,,,,,,,
,,615ca96d7640b6c31b9e4462,2024-02-18_20h08.20.155,kallum_motion_pilot,2023.2.2,Win32,10,615ca96d7640b6c31b9e4462,65d2b6c8f2eece985d8e374c,65d2b8000a1be524617363ed,0.0796,0.0797,1,111,273,133,1,seveneight,,,,,,,,,,,,,,,,,,,,,,,,,,,,,,,,,,,,,,,,,,,,,,,,,,,,,,,,,,,,,,,,,,,,,,,,,,,,,,,,,,,,,,,,,,,,,,,,,,,,,,,,,,,,,,,,,,,,,,,,,,,,,,,,,,,,,,,,,
,,615ca96d7640b6c31b9e4462,2024-02-18_20h08.20.155,kallum_motion_pilot,2023.2.2,Win32,10,615ca96d7640b6c31b9e4462,65d2b6c8f2eece985d8e374c,65d2b8000a1be524617363ed,0.0798,0.0799,1,112,274,103,1,eightseven,,,,,,,,,,,,,,,,,,,,,,,,,,,,,,,,,,,,,,,,,,,,,,,,,,,,,,,,,,,,,,,,,,,,,,,,,,,,,,,,,,,,,,,,,,,,,,,,,,,,,,,,,,,,,,,,,,,,,,,,,,,,,,,,,,,,,,,,,
,,615ca96d7640b6c31b9e4462,2024-02-18_20h08.20.155,kallum_motion_pilot,2023.2.2,Win32,10,615ca96d7640b6c31b9e4462,65d2b6c8f2eece985d8e374c,65d2b8000a1be524617363ed,0.08,0.0801,1,113,275,141,1,seveneight,,,,,,,,,,,,,,,,,,,,,,,,,,,,,,,,,,,,,,,,,,,,,,,,,,,,,,,,,,,,,,,,,,,,,,,,,,,,,,,,,,,,,,,,,,,,,,,,,,,,,,,,,,,,,,,,,,,,,,,,,,,,,,,,,,,,,,,,,
,,615ca96d7640b6c31b9e4462,2024-02-18_20h08.20.155,kallum_motion_pilot,2023.2.2,Win32,10,615ca96d7640b6c31b9e4462,65d2b6c8f2eece985d8e374c,65d2b8000a1be524617363ed,0.0802,0.0803,1,114,276,26,1,twoone,,,,,,,,,,,,,,,,,,,,,,,,,,,,,,,,,,,,,,,,,,,,,,,,,,,,,,,,,,,,,,,,,,,,,,,,,,,,,,,,,,,,,,,,,,,,,,,,,,,,,,,,,,,,,,,,,,,,,,,,,,,,,,,,,,,,,,,,,
,,615ca96d7640b6c31b9e4462,2024-02-18_20h08.20.155,kallum_motion_pilot,2023.2.2,Win32,10,615ca96d7640b6c31b9e4462,65d2b6c8f2eece985d8e374c,65d2b8000a1be524617363ed,0.0804,0.0805,1,115,277,78,1,fourtwo,,,,,,,,,,,,,,,,,,,,,,,,,,,,,,,,,,,,,,,,,,,,,,,,,,,,,,,,,,,,,,,,,,,,,,,,,,,,,,,,,,,,,,,,,,,,,,,,,,,,,,,,,,,,,,,,,,,,,,,,,,,,,,,,,,,,,,,,,
,,615ca96d7640b6c31b9e4462,2024-02-18_20h08.20.155,kallum_motion_pilot,2023.2.2,Win32,10,615ca96d7640b6c31b9e4462,65d2b6c8f2eece985d8e374c,65d2b8000a1be524617363ed,0.0806,0.0807,1,116,278,30,1,fourtwo,,,,,,,,,,,,,,,,,,,,,,,,,,,,,,,,,,,,,,,,,,,,,,,,,,,,,,,,,,,,,,,,,,,,,,,,,,,,,,,,,,,,,,,,,,,,,,,,,,,,,,,,,,,,,,,,,,,,,,,,,,,,,,,,,,,,,,,,,
,,615ca96d7640b6c31b9e4462,2024-02-18_20h08.20.155,kallum_motion_pilot,2023.2.2,Win32,10,615ca96d7640b6c31b9e4462,65d2b6c8f2eece985d8e374c,65d2b8000a1be524617363ed,0.0808,0.081,1,117,279,150,1,eightsix,,,,,,,,,,,,,,,,,,,,,,,,,,,,,,,,,,,,,,,,,,,,,,,,,,,,,,,,,,,,,,,,,,,,,,,,,,,,,,,,,,,,,,,,,,,,,,,,,,,,,,,,,,,,,,,,,,,,,,,,,,,,,,,,,,,,,,,,,
,,615ca96d7640b6c31b9e4462,2024-02-18_20h08.20.155,kallum_motion_pilot,2023.2.2,Win32,10,615ca96d7640b6c31b9e4462,65d2b6c8f2eece985d8e374c,65d2b8000a1be524617363ed,0.081,0.0811,1,118,280,53,1,threefour,,,,,,,,,,,,,,,,,,,,,,,,,,,,,,,,,,,,,,,,,,,,,,,,,,,,,,,,,,,,,,,,,,,,,,,,,,,,,,,,,,,,,,,,,,,,,,,,,,,,,,,,,,,,,,,,,,,,,,,,,,,,,,,,,,,,,,,,,
,,615ca96d7640b6c31b9e4462,2024-02-18_20h08.20.155,kallum_motion_pilot,2023.2.2,Win32,10,615ca96d7640b6c31b9e4462,65d2b6c8f2eece985d8e374c,65d2b8000a1be524617363ed,0.0812,0.0813,1,119,281,94,1,eightsix,,,,,,,,,,,,,,,,,,,,,,,,,,,,,,,,,,,,,,,,,,,,,,,,,,,,,,,,,,,,,,,,,,,,,,,,,,,,,,,,,,,,,,,,,,,,,,,,,,,,,,,,,,,,,,,,,,,,,,,,,,,,,,,,,,,,,,,,,
,,615ca96d7640b6c31b9e4462,2024-02-18_20h08.20.155,kallum_motion_pilot,2023.2.2,Win32,10,615ca96d7640b6c31b9e4462,65d2b6c8f2eece985d8e374c,65d2b8000a1be524617363ed,0.0814,0.0815,1,120,282,99,1,sixeight,,,,,,,,,,,,,,,,,,,,,,,,,,,,,,,,,,,,,,,,,,,,,,,,,,,,,,,,,,,,,,,,,,,,,,,,,,,,,,,,,,,,,,,,,,,,,,,,,,,,,,,,,,,,,,,,,,,,,,,,,,,,,,,,,,,,,,,,,
,,615ca96d7640b6c31b9e4462,2024-02-18_20h08.20.155,kallum_motion_pilot,2023.2.2,Win32,10,615ca96d7640b6c31b9e4462,65d2b6c8f2eece985d8e374c,65d2b8000a1be524617363ed,0.0816,0.0817,1,121,283,158,1,eightsix,,,,,,,,,,,,,,,,,,,,,,,,,,,,,,,,,,,,,,,,,,,,,,,,,,,,,,,,,,,,,,,,,,,,,,,,,,,,,,,,,,,,,,,,,,,,,,,,,,,,,,,,,,,,,,,,,,,,,,,,,,,,,,,,,,,,,,,,,
,,615ca96d7640b6c31b9e4462,2024-02-18_20h08.20.155,kallum_motion_pilot,2023.2.2,Win32,10,615ca96d7640b6c31b9e4462,65d2b6c8f2eece985d8e374c,65d2b8000a1be524617363ed,0.0818,0.082,1,122,284,106,1,sixfive,,,,,,,,,,,,,,,,,,,,,,,,,,,,,,,,,,,,,,,,,,,,,,,,,,,,,,,,,,,,,,,,,,,,,,,,,,,,,,,,,,,,,,,,,,,,,,,,,,,,,,,,,,,,,,,,,,,,,,,,,,,,,,,,,,,,,,,,,
,,615ca96d7640b6c31b9e4462,2024-02-18_20h08.20.155,kallum_motion_pilot,2023.2.2,Win32,10,615ca96d7640b6c31b9e4462,65d2b6c8f2eece985d8e374c,65d2b8000a1be524617363ed,0.0821,0.0822,1,123,285,22,1,fourtwo,,,,,,,,,,,,,,,,,,,,,,,,,,,,,,,,,,,,,,,,,,,,,,,,,,,,,,,,,,,,,,,,,,,,,,,,,,,,,,,,,,,,,,,,,,,,,,,,,,,,,,,,,,,,,,,,,,,,,,,,,,,,,,,,,,,,,,,,,
