startup.started,startup.stopped,Prolific ID*,date,expName,psychopyVersion,OS,frameRate,participant,study_id,session,stimpositions.started,stimpositions.stopped,hardcoded_stimulus_positions.thisRepN,hardcoded_stimulus_positions.thisTrialN,hardcoded_stimulus_positions.thisN,hardcoded_stimulus_positions.thisIndex,hardcoded_stimulus_positions.ran,StimulusPos,stimorientation.started,stimorientation.stopped,prac_stimorientation_import_loop.thisRepN,prac_stimorientation_import_loop.thisTrialN,prac_stimorientation_import_loop.thisN,prac_stimorientation_import_loop.thisIndex,prac_stimorientation_import_loop.ran,Stimorientation,welcome_instr.started,welcome_instr.stopped,key_resp.keys,key_resp.rt,key_resp.duration,response_steppedout_1.started,response_steppedout_1.stopped,key_resp_20.keys,key_resp_20.rt,key_resp_20.duration,response_steppedout_2.started,response_steppedout_2.stopped,key_resp_19.keys,key_resp_19.rt,key_resp_19.duration,stim_response_instr.started,stim_response_instr.stopped,key_resp_15.keys,key_resp_15.rt,key_resp_15.duration,direction_instr_2.started,direction_instr_2.stopped,key_resp_9.keys,key_resp_9.rt,key_resp_9.duration,instr_prac.started,instr_prac.stopped,key_resp_10.keys,key_resp_10.rt,key_resp_10.duration,Stim1_display_prac.started,Stim1_display_prac.stopped,Ecc,Circle1_ori,Circle2_ori,response_prac.started,similarity,response_time,response_prac.stopped,mouse_5.x,mouse_5.y,mouse_5.leftButton,mouse_5.midButton,mouse_5.rightButton,mouse_5.clicked_name,responseprac_feedback.started,responseprac_feedback.stopped,summary2_prac.started,summary2_prac.stopped,mouse_6.x,mouse_6.y,mouse_6.leftButton,mouse_6.midButton,mouse_6.rightButton,mouse_6.clicked_name,duringprac.thisRepN,duringprac.thisTrialN,duringprac.thisN,duringprac.thisIndex,duringprac.ran,begin.started,begin.stopped,key_resp_22.keys,key_resp_22.rt,key_resp_22.duration,Stim1_display.started,Stim1_display.stopped,circle1_ori,circle2_ori,circle1_SF,circle2_SF,response.started,response.stopped,mouse.x,mouse.y,mouse.leftButton,mouse.midButton,mouse.rightButton,mouse.clicked_name,trialnumber,double_pass.thisRepN,double_pass.thisTrialN,double_pass.thisN,double_pass.thisIndex,double_pass.ran,double_pass.order,main_trial.thisRepN,main_trial.thisTrialN,main_trial.thisN,main_trial.thisIndex,main_trial.ran,main_trial.order,Trial_Counter,Catch,Frequencies,response_2.started,response_2.stopped,mouse_2.x,mouse_2.y,mouse_2.leftButton,mouse_2.midButton,mouse_2.rightButton,mouse_2.clicked_name,special_trial.started,special_trial.stopped,catch_1.started,catch_1.stopped,mouse_3.x,mouse_3.y,mouse_3.leftButton,mouse_3.midButton,mouse_3.rightButton,catchresponse,catchnumber,response_time_catch,response_sum.started,response_sum.stopped,mouse_11.x,mouse_11.y,mouse_11.leftButton,mouse_11.midButton,mouse_11.rightButton,flip_presentation_sequence_for_double_pass.started,flip_presentation_sequence_for_double_pass.stopped,goodbye.started,goodbye.stopped,key_resp_3.keys,key_resp_3.rt,key_resp_3.duration
0.0052,0.0053,615ed775a1a249fe4b81b7ea,2024-02-22_05h25.12.886,kallum_motion_pilot,2023.2.2,Win32,60.24096386,615ed775a1a249fe4b81b7ea,65d6bb0e977760de756971f7,65d6be76979b6efb5b451d06,,,,,,,,,,,,,,,,,,,,,,,,,,,,,,,,,,,,,,,,,,,,,,,,,,,,,,,,,,,,,,,,,,,,,,,,,,,,,,,,,,,,,,,,,,,,,,,,,,,,,,,,,,,,,,,,,,,,,,,,,,,,,,,,,,,,,,,,,,,,,,,,,
,,615ed775a1a249fe4b81b7ea,2024-02-22_05h25.12.886,kallum_motion_pilot,2023.2.2,Win32,60.24096386,615ed775a1a249fe4b81b7ea,65d6bb0e977760de756971f7,65d6be76979b6efb5b451d06,0.0324,0.0325,0,0,0,97,1,fiveseven,,,,,,,,,,,,,,,,,,,,,,,,,,,,,,,,,,,,,,,,,,,,,,,,,,,,,,,,,,,,,,,,,,,,,,,,,,,,,,,,,,,,,,,,,,,,,,,,,,,,,,,,,,,,,,,,,,,,,,,,,,,,,,,,,,,,,,,,,
,,615ed775a1a249fe4b81b7ea,2024-02-22_05h25.12.886,kallum_motion_pilot,2023.2.2,Win32,60.24096386,615ed775a1a249fe4b81b7ea,65d6bb0e977760de756971f7,65d6be76979b6efb5b451d06,0.0329,0.0329,0,1,1,101,1,seveneight,,,,,,,,,,,,,,,,,,,,,,,,,,,,,,,,,,,,,,,,,,,,,,,,,,,,,,,,,,,,,,,,,,,,,,,,,,,,,,,,,,,,,,,,,,,,,,,,,,,,,,,,,,,,,,,,,,,,,,,,,,,,,,,,,,,,,,,,,
,,615ed775a1a249fe4b81b7ea,2024-02-22_05h25.12.886,kallum_motion_pilot,2023.2.2,Win32,60.24096386,615ed775a1a249fe4b81b7ea,65d6bb0e977760de756971f7,65d6be76979b6efb5b451d06,0.033,0.0331,0,2,2,22,1,fourtwo,,,,,,,,,,,,,,,,,,,,,,,,,,,,,,,,,,,,,,,,,,,,,,,,,,,,,,,,,,,,,,,,,,,,,,,,,,,,,,,,,,,,,,,,,,,,,,,,,,,,,,,,,,,,,,,,,,,,,,,,,,,,,,,,,,,,,,,,,
,,615ed775a1a249fe4b81b7ea,2024-02-22_05h25.12.886,kallum_motion_pilot,2023.2.2,Win32,60.24096386,615ed775a1a249fe4b81b7ea,65d6bb0e977760de756971f7,65d6be76979b6efb5b451d06,0.0332,0.0332,0,3,3,130,1,sixfive,,,,,,,,,,,,,,,,,,,,,,,,,,,,,,,,,,,,,,,,,,,,,,,,,,,,,,,,,,,,,,,,,,,,,,,,,,,,,,,,,,,,,,,,,,,,,,,,,,,,,,,,,,,,,,,,,,,,,,,,,,,,,,,,,,,,,,,,,
,,615ed775a1a249fe4b81b7ea,2024-02-22_05h25.12.886,kallum_motion_pilot,2023.2.2,Win32,60.24096386,615ed775a1a249fe4b81b7ea,65d6bb0e977760de756971f7,65d6be76979b6efb5b451d06,0.0333,0.0334,0,4,4,53,1,threefour,,,,,,,,,,,,,,,,,,,,,,,,,,,,,,,,,,,,,,,,,,,,,,,,,,,,,,,,,,,,,,,,,,,,,,,,,,,,,,,,,,,,,,,,,,,,,,,,,,,,,,,,,,,,,,,,,,,,,,,,,,,,,,,,,,,,,,,,,
,,615ed775a1a249fe4b81b7ea,2024-02-22_05h25.12.886,kallum_motion_pilot,2023.2.2,Win32,60.24096386,615ed775a1a249fe4b81b7ea,65d6bb0e977760de756971f7,65d6be76979b6efb5b451d06,0.0335,0.0335,0,5,5,88,1,fivesix,,,,,,,,,,,,,,,,,,,,,,,,,,,,,,,,,,,,,,,,,,,,,,,,,,,,,,,,,,,,,,,,,,,,,,,,,,,,,,,,,,,,,,,,,,,,,,,,,,,,,,,,,,,,,,,,,,,,,,,,,,,,,,,,,,,,,,,,,
,,615ed775a1a249fe4b81b7ea,2024-02-22_05h25.12.886,kallum_motion_pilot,2023.2.2,Win32,60.24096386,615ed775a1a249fe4b81b7ea,65d6bb0e977760de756971f7,65d6be76979b6efb5b451d06,0.0336,0.0336,0,6,6,107,1,sixeight,,,,,,,,,,,,,,,,,,,,,,,,,,,,,,,,,,,,,,,,,,,,,,,,,,,,,,,,,,,,,,,,,,,,,,,,,,,,,,,,,,,,,,,,,,,,,,,,,,,,,,,,,,,,,,,,,,,,,,,,,,,,,,,,,,,,,,,,,
,,615ed775a1a249fe4b81b7ea,2024-02-22_05h25.12.886,kallum_motion_pilot,2023.2.2,Win32,60.24096386,615ed775a1a249fe4b81b7ea,65d6bb0e977760de756971f7,65d6be76979b6efb5b451d06,0.0337,0.0337,0,7,7,15,1,fourthree,,,,,,,,,,,,,,,,,,,,,,,,,,,,,,,,,,,,,,,,,,,,,,,,,,,,,,,,,,,,,,,,,,,,,,,,,,,,,,,,,,,,,,,,,,,,,,,,,,,,,,,,,,,,,,,,,,,,,,,,,,,,,,,,,,,,,,,,,
,,615ed775a1a249fe4b81b7ea,2024-02-22_05h25.12.886,kallum_motion_pilot,2023.2.2,Win32,60.24096386,615ed775a1a249fe4b81b7ea,65d6bb0e977760de756971f7,65d6be76979b6efb5b451d06,0.0338,0.0339,0,8,8,133,1,seveneight,,,,,,,,,,,,,,,,,,,,,,,,,,,,,,,,,,,,,,,,,,,,,,,,,,,,,,,,,,,,,,,,,,,,,,,,,,,,,,,,,,,,,,,,,,,,,,,,,,,,,,,,,,,,,,,,,,,,,,,,,,,,,,,,,,,,,,,,,
,,615ed775a1a249fe4b81b7ea,2024-02-22_05h25.12.886,kallum_motion_pilot,2023.2.2,Win32,60.24096386,615ed775a1a249fe4b81b7ea,65d6bb0e977760de756971f7,65d6be76979b6efb5b451d06,0.034,0.034,0,9,9,50,1,twoone,,,,,,,,,,,,,,,,,,,,,,,,,,,,,,,,,,,,,,,,,,,,,,,,,,,,,,,,,,,,,,,,,,,,,,,,,,,,,,,,,,,,,,,,,,,,,,,,,,,,,,,,,,,,,,,,,,,,,,,,,,,,,,,,,,,,,,,,,
,,615ed775a1a249fe4b81b7ea,2024-02-22_05h25.12.886,kallum_motion_pilot,2023.2.2,Win32,60.24096386,615ed775a1a249fe4b81b7ea,65d6bb0e977760de756971f7,65d6be76979b6efb5b451d06,0.0341,0.0342,0,10,10,155,1,sixeight,,,,,,,,,,,,,,,,,,,,,,,,,,,,,,,,,,,,,,,,,,,,,,,,,,,,,,,,,,,,,,,,,,,,,,,,,,,,,,,,,,,,,,,,,,,,,,,,,,,,,,,,,,,,,,,,,,,,,,,,,,,,,,,,,,,,,,,,,
,,615ed775a1a249fe4b81b7ea,2024-02-22_05h25.12.886,kallum_motion_pilot,2023.2.2,Win32,60.24096386,615ed775a1a249fe4b81b7ea,65d6bb0e977760de756971f7,65d6be76979b6efb5b451d06,0.0342,0.0342,0,11,11,39,1,fourthree,,,,,,,,,,,,,,,,,,,,,,,,,,,,,,,,,,,,,,,,,,,,,,,,,,,,,,,,,,,,,,,,,,,,,,,,,,,,,,,,,,,,,,,,,,,,,,,,,,,,,,,,,,,,,,,,,,,,,,,,,,,,,,,,,,,,,,,,,
,,615ed775a1a249fe4b81b7ea,2024-02-22_05h25.12.886,kallum_motion_pilot,2023.2.2,Win32,60.24096386,615ed775a1a249fe4b81b7ea,65d6bb0e977760de756971f7,65d6be76979b6efb5b451d06,0.0344,0.0344,0,12,12,32,1,onetwo,,,,,,,,,,,,,,,,,,,,,,,,,,,,,,,,,,,,,,,,,,,,,,,,,,,,,,,,,,,,,,,,,,,,,,,,,,,,,,,,,,,,,,,,,,,,,,,,,,,,,,,,,,,,,,,,,,,,,,,,,,,,,,,,,,,,,,,,,
,,615ed775a1a249fe4b81b7ea,2024-02-22_05h25.12.886,kallum_motion_pilot,2023.2.2,Win32,60.24096386,615ed775a1a249fe4b81b7ea,65d6bb0e977760de756971f7,65d6be76979b6efb5b451d06,0.0344,0.0345,0,13,13,132,1,sevenfive,,,,,,,,,,,,,,,,,,,,,,,,,,,,,,,,,,,,,,,,,,,,,,,,,,,,,,,,,,,,,,,,,,,,,,,,,,,,,,,,,,,,,,,,,,,,,,,,,,,,,,,,,,,,,,,,,,,,,,,,,,,,,,,,,,,,,,,,,
,,615ed775a1a249fe4b81b7ea,2024-02-22_05h25.12.886,kallum_motion_pilot,2023.2.2,Win32,60.24096386,615ed775a1a249fe4b81b7ea,65d6bb0e977760de756971f7,65d6be76979b6efb5b451d06,0.0346,0.0346,0,14,14,17,1,onethree,,,,,,,,,,,,,,,,,,,,,,,,,,,,,,,,,,,,,,,,,,,,,,,,,,,,,,,,,,,,,,,,,,,,,,,,,,,,,,,,,,,,,,,,,,,,,,,,,,,,,,,,,,,,,,,,,,,,,,,,,,,,,,,,,,,,,,,,,
,,615ed775a1a249fe4b81b7ea,2024-02-22_05h25.12.886,kallum_motion_pilot,2023.2.2,Win32,60.24096386,615ed775a1a249fe4b81b7ea,65d6bb0e977760de756971f7,65d6be76979b6efb5b451d06,0.0347,0.0348,0,15,15,58,1,twoone,,,,,,,,,,,,,,,,,,,,,,,,,,,,,,,,,,,,,,,,,,,,,,,,,,,,,,,,,,,,,,,,,,,,,,,,,,,,,,,,,,,,,,,,,,,,,,,,,,,,,,,,,,,,,,,,,,,,,,,,,,,,,,,,,,,,,,,,,
,,615ed775a1a249fe4b81b7ea,2024-02-22_05h25.12.886,kallum_motion_pilot,2023.2.2,Win32,60.24096386,615ed775a1a249fe4b81b7ea,65d6bb0e977760de756971f7,65d6be76979b6efb5b451d06,0.0348,0.0349,0,16,16,23,1,fourthree,,,,,,,,,,,,,,,,,,,,,,,,,,,,,,,,,,,,,,,,,,,,,,,,,,,,,,,,,,,,,,,,,,,,,,,,,,,,,,,,,,,,,,,,,,,,,,,,,,,,,,,,,,,,,,,,,,,,,,,,,,,,,,,,,,,,,,,,,
,,615ed775a1a249fe4b81b7ea,2024-02-22_05h25.12.886,kallum_motion_pilot,2023.2.2,Win32,60.24096386,615ed775a1a249fe4b81b7ea,65d6bb0e977760de756971f7,65d6be76979b6efb5b451d06,0.035,0.035,0,17,17,111,1,eightseven,,,,,,,,,,,,,,,,,,,,,,,,,,,,,,,,,,,,,,,,,,,,,,,,,,,,,,,,,,,,,,,,,,,,,,,,,,,,,,,,,,,,,,,,,,,,,,,,,,,,,,,,,,,,,,,,,,,,,,,,,,,,,,,,,,,,,,,,,
,,615ed775a1a249fe4b81b7ea,2024-02-22_05h25.12.886,kallum_motion_pilot,2023.2.2,Win32,60.24096386,615ed775a1a249fe4b81b7ea,65d6bb0e977760de756971f7,65d6be76979b6efb5b451d06,0.0351,0.0351,0,18,18,1,1,onethree,,,,,,,,,,,,,,,,,,,,,,,,,,,,,,,,,,,,,,,,,,,,,,,,,,,,,,,,,,,,,,,,,,,,,,,,,,,,,,,,,,,,,,,,,,,,,,,,,,,,,,,,,,,,,,,,,,,,,,,,,,,,,,,,,,,,,,,,,
,,615ed775a1a249fe4b81b7ea,2024-02-22_05h25.12.886,kallum_motion_pilot,2023.2.2,Win32,60.24096386,615ed775a1a249fe4b81b7ea,65d6bb0e977760de756971f7,65d6be76979b6efb5b451d06,0.0352,0.0352,0,19,19,160,1,fivesix,,,,,,,,,,,,,,,,,,,,,,,,,,,,,,,,,,,,,,,,,,,,,,,,,,,,,,,,,,,,,,,,,,,,,,,,,,,,,,,,,,,,,,,,,,,,,,,,,,,,,,,,,,,,,,,,,,,,,,,,,,,,,,,,,,,,,,,,,
,,615ed775a1a249fe4b81b7ea,2024-02-22_05h25.12.886,kallum_motion_pilot,2023.2.2,Win32,60.24096386,615ed775a1a249fe4b81b7ea,65d6bb0e977760de756971f7,65d6be76979b6efb5b451d06,0.0353,0.0353,0,20,20,20,1,threeone,,,,,,,,,,,,,,,,,,,,,,,,,,,,,,,,,,,,,,,,,,,,,,,,,,,,,,,,,,,,,,,,,,,,,,,,,,,,,,,,,,,,,,,,,,,,,,,,,,,,,,,,,,,,,,,,,,,,,,,,,,,,,,,,,,,,,,,,,
,,615ed775a1a249fe4b81b7ea,2024-02-22_05h25.12.886,kallum_motion_pilot,2023.2.2,Win32,60.24096386,615ed775a1a249fe4b81b7ea,65d6bb0e977760de756971f7,65d6be76979b6efb5b451d06,0.0353,0.0354,0,21,21,151,1,eightseven,,,,,,,,,,,,,,,,,,,,,,,,,,,,,,,,,,,,,,,,,,,,,,,,,,,,,,,,,,,,,,,,,,,,,,,,,,,,,,,,,,,,,,,,,,,,,,,,,,,,,,,,,,,,,,,,,,,,,,,,,,,,,,,,,,,,,,,,,
,,615ed775a1a249fe4b81b7ea,2024-02-22_05h25.12.886,kallum_motion_pilot,2023.2.2,Win32,60.24096386,615ed775a1a249fe4b81b7ea,65d6bb0e977760de756971f7,65d6be76979b6efb5b451d06,0.0355,0.0356,0,22,22,83,1,sixeight,,,,,,,,,,,,,,,,,,,,,,,,,,,,,,,,,,,,,,,,,,,,,,,,,,,,,,,,,,,,,,,,,,,,,,,,,,,,,,,,,,,,,,,,,,,,,,,,,,,,,,,,,,,,,,,,,,,,,,,,,,,,,,,,,,,,,,,,,
,,615ed775a1a249fe4b81b7ea,2024-02-22_05h25.12.886,kallum_motion_pilot,2023.2.2,Win32,60.24096386,615ed775a1a249fe4b81b7ea,65d6bb0e977760de756971f7,65d6be76979b6efb5b451d06,0.0356,0.0356,0,23,23,45,1,threefour,,,,,,,,,,,,,,,,,,,,,,,,,,,,,,,,,,,,,,,,,,,,,,,,,,,,,,,,,,,,,,,,,,,,,,,,,,,,,,,,,,,,,,,,,,,,,,,,,,,,,,,,,,,,,,,,,,,,,,,,,,,,,,,,,,,,,,,,,
,,615ed775a1a249fe4b81b7ea,2024-02-22_05h25.12.886,kallum_motion_pilot,2023.2.2,Win32,60.24096386,615ed775a1a249fe4b81b7ea,65d6bb0e977760de756971f7,65d6be76979b6efb5b451d06,0.0358,0.0358,0,24,24,146,1,sixfive,,,,,,,,,,,,,,,,,,,,,,,,,,,,,,,,,,,,,,,,,,,,,,,,,,,,,,,,,,,,,,,,,,,,,,,,,,,,,,,,,,,,,,,,,,,,,,,,,,,,,,,,,,,,,,,,,,,,,,,,,,,,,,,,,,,,,,,,,
,,615ed775a1a249fe4b81b7ea,2024-02-22_05h25.12.886,kallum_motion_pilot,2023.2.2,Win32,60.24096386,615ed775a1a249fe4b81b7ea,65d6bb0e977760de756971f7,65d6be76979b6efb5b451d06,0.0359,0.0359,0,25,25,135,1,eightseven,,,,,,,,,,,,,,,,,,,,,,,,,,,,,,,,,,,,,,,,,,,,,,,,,,,,,,,,,,,,,,,,,,,,,,,,,,,,,,,,,,,,,,,,,,,,,,,,,,,,,,,,,,,,,,,,,,,,,,,,,,,,,,,,,,,,,,,,,
,,615ed775a1a249fe4b81b7ea,2024-02-22_05h25.12.886,kallum_motion_pilot,2023.2.2,Win32,60.24096386,615ed775a1a249fe4b81b7ea,65d6bb0e977760de756971f7,65d6be76979b6efb5b451d06,0.036,0.036,0,26,26,126,1,eightsix,,,,,,,,,,,,,,,,,,,,,,,,,,,,,,,,,,,,,,,,,,,,,,,,,,,,,,,,,,,,,,,,,,,,,,,,,,,,,,,,,,,,,,,,,,,,,,,,,,,,,,,,,,,,,,,,,,,,,,,,,,,,,,,,,,,,,,,,,
,,615ed775a1a249fe4b81b7ea,2024-02-22_05h25.12.886,kallum_motion_pilot,2023.2.2,Win32,60.24096386,615ed775a1a249fe4b81b7ea,65d6bb0e977760de756971f7,65d6be76979b6efb5b451d06,0.0361,0.0361,0,27,27,82,1,sixfive,,,,,,,,,,,,,,,,,,,,,,,,,,,,,,,,,,,,,,,,,,,,,,,,,,,,,,,,,,,,,,,,,,,,,,,,,,,,,,,,,,,,,,,,,,,,,,,,,,,,,,,,,,,,,,,,,,,,,,,,,,,,,,,,,,,,,,,,,
,,615ed775a1a249fe4b81b7ea,2024-02-22_05h25.12.886,kallum_motion_pilot,2023.2.2,Win32,60.24096386,615ed775a1a249fe4b81b7ea,65d6bb0e977760de756971f7,65d6be76979b6efb5b451d06,0.0362,0.0362,0,28,28,109,1,seveneight,,,,,,,,,,,,,,,,,,,,,,,,,,,,,,,,,,,,,,,,,,,,,,,,,,,,,,,,,,,,,,,,,,,,,,,,,,,,,,,,,,,,,,,,,,,,,,,,,,,,,,,,,,,,,,,,,,,,,,,,,,,,,,,,,,,,,,,,,
,,615ed775a1a249fe4b81b7ea,2024-02-22_05h25.12.886,kallum_motion_pilot,2023.2.2,Win32,60.24096386,615ed775a1a249fe4b81b7ea,65d6bb0e977760de756971f7,65d6be76979b6efb5b451d06,0.0363,0.0363,0,29,29,36,1,threeone,,,,,,,,,,,,,,,,,,,,,,,,,,,,,,,,,,,,,,,,,,,,,,,,,,,,,,,,,,,,,,,,,,,,,,,,,,,,,,,,,,,,,,,,,,,,,,,,,,,,,,,,,,,,,,,,,,,,,,,,,,,,,,,,,,,,,,,,,
,,615ed775a1a249fe4b81b7ea,2024-02-22_05h25.12.886,kallum_motion_pilot,2023.2.2,Win32,60.24096386,615ed775a1a249fe4b81b7ea,65d6bb0e977760de756971f7,65d6be76979b6efb5b451d06,0.0365,0.0365,0,30,30,159,1,eightseven,,,,,,,,,,,,,,,,,,,,,,,,,,,,,,,,,,,,,,,,,,,,,,,,,,,,,,,,,,,,,,,,,,,,,,,,,,,,,,,,,,,,,,,,,,,,,,,,,,,,,,,,,,,,,,,,,,,,,,,,,,,,,,,,,,,,,,,,,
,,615ed775a1a249fe4b81b7ea,2024-02-22_05h25.12.886,kallum_motion_pilot,2023.2.2,Win32,60.24096386,615ed775a1a249fe4b81b7ea,65d6bb0e977760de756971f7,65d6be76979b6efb5b451d06,0.0366,0.0366,0,31,31,78,1,fourtwo,,,,,,,,,,,,,,,,,,,,,,,,,,,,,,,,,,,,,,,,,,,,,,,,,,,,,,,,,,,,,,,,,,,,,,,,,,,,,,,,,,,,,,,,,,,,,,,,,,,,,,,,,,,,,,,,,,,,,,,,,,,,,,,,,,,,,,,,,
,,615ed775a1a249fe4b81b7ea,2024-02-22_05h25.12.886,kallum_motion_pilot,2023.2.2,Win32,60.24096386,615ed775a1a249fe4b81b7ea,65d6bb0e977760de756971f7,65d6be76979b6efb5b451d06,0.0366,0.0367,0,32,32,30,1,fourtwo,,,,,,,,,,,,,,,,,,,,,,,,,,,,,,,,,,,,,,,,,,,,,,,,,,,,,,,,,,,,,,,,,,,,,,,,,,,,,,,,,,,,,,,,,,,,,,,,,,,,,,,,,,,,,,,,,,,,,,,,,,,,,,,,,,,,,,,,,
,,615ed775a1a249fe4b81b7ea,2024-02-22_05h25.12.886,kallum_motion_pilot,2023.2.2,Win32,60.24096386,615ed775a1a249fe4b81b7ea,65d6bb0e977760de756971f7,65d6be76979b6efb5b451d06,0.0368,0.0368,0,33,33,0,1,onetwo,,,,,,,,,,,,,,,,,,,,,,,,,,,,,,,,,,,,,,,,,,,,,,,,,,,,,,,,,,,,,,,,,,,,,,,,,,,,,,,,,,,,,,,,,,,,,,,,,,,,,,,,,,,,,,,,,,,,,,,,,,,,,,,,,,,,,,,,,
,,615ed775a1a249fe4b81b7ea,2024-02-22_05h25.12.886,kallum_motion_pilot,2023.2.2,Win32,60.24096386,615ed775a1a249fe4b81b7ea,65d6bb0e977760de756971f7,65d6be76979b6efb5b451d06,0.0379,0.038,0,34,34,136,1,fivesix,,,,,,,,,,,,,,,,,,,,,,,,,,,,,,,,,,,,,,,,,,,,,,,,,,,,,,,,,,,,,,,,,,,,,,,,,,,,,,,,,,,,,,,,,,,,,,,,,,,,,,,,,,,,,,,,,,,,,,,,,,,,,,,,,,,,,,,,,
,,615ed775a1a249fe4b81b7ea,2024-02-22_05h25.12.886,kallum_motion_pilot,2023.2.2,Win32,60.24096386,615ed775a1a249fe4b81b7ea,65d6bb0e977760de756971f7,65d6be76979b6efb5b451d06,0.038,0.0381,0,35,35,138,1,sixfive,,,,,,,,,,,,,,,,,,,,,,,,,,,,,,,,,,,,,,,,,,,,,,,,,,,,,,,,,,,,,,,,,,,,,,,,,,,,,,,,,,,,,,,,,,,,,,,,,,,,,,,,,,,,,,,,,,,,,,,,,,,,,,,,,,,,,,,,,
,,615ed775a1a249fe4b81b7ea,2024-02-22_05h25.12.886,kallum_motion_pilot,2023.2.2,Win32,60.24096386,615ed775a1a249fe4b81b7ea,65d6bb0e977760de756971f7,65d6be76979b6efb5b451d06,0.0382,0.0382,0,36,36,6,1,fourtwo,,,,,,,,,,,,,,,,,,,,,,,,,,,,,,,,,,,,,,,,,,,,,,,,,,,,,,,,,,,,,,,,,,,,,,,,,,,,,,,,,,,,,,,,,,,,,,,,,,,,,,,,,,,,,,,,,,,,,,,,,,,,,,,,,,,,,,,,,
,,615ed775a1a249fe4b81b7ea,2024-02-22_05h25.12.886,kallum_motion_pilot,2023.2.2,Win32,60.24096386,615ed775a1a249fe4b81b7ea,65d6bb0e977760de756971f7,65d6be76979b6efb5b451d06,0.0383,0.0383,0,37,37,33,1,onethree,,,,,,,,,,,,,,,,,,,,,,,,,,,,,,,,,,,,,,,,,,,,,,,,,,,,,,,,,,,,,,,,,,,,,,,,,,,,,,,,,,,,,,,,,,,,,,,,,,,,,,,,,,,,,,,,,,,,,,,,,,,,,,,,,,,,,,,,,
,,615ed775a1a249fe4b81b7ea,2024-02-22_05h25.12.886,kallum_motion_pilot,2023.2.2,Win32,60.24096386,615ed775a1a249fe4b81b7ea,65d6bb0e977760de756971f7,65d6be76979b6efb5b451d06,0.0384,0.0384,0,38,38,81,1,fiveseven,,,,,,,,,,,,,,,,,,,,,,,,,,,,,,,,,,,,,,,,,,,,,,,,,,,,,,,,,,,,,,,,,,,,,,,,,,,,,,,,,,,,,,,,,,,,,,,,,,,,,,,,,,,,,,,,,,,,,,,,,,,,,,,,,,,,,,,,,
,,615ed775a1a249fe4b81b7ea,2024-02-22_05h25.12.886,kallum_motion_pilot,2023.2.2,Win32,60.24096386,615ed775a1a249fe4b81b7ea,65d6bb0e977760de756971f7,65d6be76979b6efb5b451d06,0.0385,0.0385,0,39,39,150,1,eightsix,,,,,,,,,,,,,,,,,,,,,,,,,,,,,,,,,,,,,,,,,,,,,,,,,,,,,,,,,,,,,,,,,,,,,,,,,,,,,,,,,,,,,,,,,,,,,,,,,,,,,,,,,,,,,,,,,,,,,,,,,,,,,,,,,,,,,,,,,
,,615ed775a1a249fe4b81b7ea,2024-02-22_05h25.12.886,kallum_motion_pilot,2023.2.2,Win32,60.24096386,615ed775a1a249fe4b81b7ea,65d6bb0e977760de756971f7,65d6be76979b6efb5b451d06,0.0387,0.0387,0,40,40,115,1,sixeight,,,,,,,,,,,,,,,,,,,,,,,,,,,,,,,,,,,,,,,,,,,,,,,,,,,,,,,,,,,,,,,,,,,,,,,,,,,,,,,,,,,,,,,,,,,,,,,,,,,,,,,,,,,,,,,,,,,,,,,,,,,,,,,,,,,,,,,,,
,,615ed775a1a249fe4b81b7ea,2024-02-22_05h25.12.886,kallum_motion_pilot,2023.2.2,Win32,60.24096386,615ed775a1a249fe4b81b7ea,65d6bb0e977760de756971f7,65d6be76979b6efb5b451d06,0.0387,0.0388,0,41,41,134,1,eightsix,,,,,,,,,,,,,,,,,,,,,,,,,,,,,,,,,,,,,,,,,,,,,,,,,,,,,,,,,,,,,,,,,,,,,,,,,,,,,,,,,,,,,,,,,,,,,,,,,,,,,,,,,,,,,,,,,,,,,,,,,,,,,,,,,,,,,,,,,
,,615ed775a1a249fe4b81b7ea,2024-02-22_05h25.12.886,kallum_motion_pilot,2023.2.2,Win32,60.24096386,615ed775a1a249fe4b81b7ea,65d6bb0e977760de756971f7,65d6be76979b6efb5b451d06,0.0389,0.0389,0,42,42,92,1,sevenfive,,,,,,,,,,,,,,,,,,,,,,,,,,,,,,,,,,,,,,,,,,,,,,,,,,,,,,,,,,,,,,,,,,,,,,,,,,,,,,,,,,,,,,,,,,,,,,,,,,,,,,,,,,,,,,,,,,,,,,,,,,,,,,,,,,,,,,,,,
,,615ed775a1a249fe4b81b7ea,2024-02-22_05h25.12.886,kallum_motion_pilot,2023.2.2,Win32,60.24096386,615ed775a1a249fe4b81b7ea,65d6bb0e977760de756971f7,65d6be76979b6efb5b451d06,0.039,0.039,0,43,43,54,1,fourtwo,,,,,,,,,,,,,,,,,,,,,,,,,,,,,,,,,,,,,,,,,,,,,,,,,,,,,,,,,,,,,,,,,,,,,,,,,,,,,,,,,,,,,,,,,,,,,,,,,,,,,,,,,,,,,,,,,,,,,,,,,,,,,,,,,,,,,,,,,
,,615ed775a1a249fe4b81b7ea,2024-02-22_05h25.12.886,kallum_motion_pilot,2023.2.2,Win32,60.24096386,615ed775a1a249fe4b81b7ea,65d6bb0e977760de756971f7,65d6be76979b6efb5b451d06,0.0391,0.0392,0,44,44,156,1,sevenfive,,,,,,,,,,,,,,,,,,,,,,,,,,,,,,,,,,,,,,,,,,,,,,,,,,,,,,,,,,,,,,,,,,,,,,,,,,,,,,,,,,,,,,,,,,,,,,,,,,,,,,,,,,,,,,,,,,,,,,,,,,,,,,,,,,,,,,,,,
,,615ed775a1a249fe4b81b7ea,2024-02-22_05h25.12.886,kallum_motion_pilot,2023.2.2,Win32,60.24096386,615ed775a1a249fe4b81b7ea,65d6bb0e977760de756971f7,65d6be76979b6efb5b451d06,0.0392,0.0393,0,45,45,51,1,twofour,,,,,,,,,,,,,,,,,,,,,,,,,,,,,,,,,,,,,,,,,,,,,,,,,,,,,,,,,,,,,,,,,,,,,,,,,,,,,,,,,,,,,,,,,,,,,,,,,,,,,,,,,,,,,,,,,,,,,,,,,,,,,,,,,,,,,,,,,
,,615ed775a1a249fe4b81b7ea,2024-02-22_05h25.12.886,kallum_motion_pilot,2023.2.2,Win32,60.24096386,615ed775a1a249fe4b81b7ea,65d6bb0e977760de756971f7,65d6be76979b6efb5b451d06,0.0394,0.0394,0,46,46,158,1,eightsix,,,,,,,,,,,,,,,,,,,,,,,,,,,,,,,,,,,,,,,,,,,,,,,,,,,,,,,,,,,,,,,,,,,,,,,,,,,,,,,,,,,,,,,,,,,,,,,,,,,,,,,,,,,,,,,,,,,,,,,,,,,,,,,,,,,,,,,,,
,,615ed775a1a249fe4b81b7ea,2024-02-22_05h25.12.886,kallum_motion_pilot,2023.2.2,Win32,60.24096386,615ed775a1a249fe4b81b7ea,65d6bb0e977760de756971f7,65d6be76979b6efb5b451d06,0.0394,0.0395,0,47,47,94,1,eightsix,,,,,,,,,,,,,,,,,,,,,,,,,,,,,,,,,,,,,,,,,,,,,,,,,,,,,,,,,,,,,,,,,,,,,,,,,,,,,,,,,,,,,,,,,,,,,,,,,,,,,,,,,,,,,,,,,,,,,,,,,,,,,,,,,,,,,,,,,
,,615ed775a1a249fe4b81b7ea,2024-02-22_05h25.12.886,kallum_motion_pilot,2023.2.2,Win32,60.24096386,615ed775a1a249fe4b81b7ea,65d6bb0e977760de756971f7,65d6be76979b6efb5b451d06,0.0396,0.0396,0,48,48,8,1,onetwo,,,,,,,,,,,,,,,,,,,,,,,,,,,,,,,,,,,,,,,,,,,,,,,,,,,,,,,,,,,,,,,,,,,,,,,,,,,,,,,,,,,,,,,,,,,,,,,,,,,,,,,,,,,,,,,,,,,,,,,,,,,,,,,,,,,,,,,,,
,,615ed775a1a249fe4b81b7ea,2024-02-22_05h25.12.886,kallum_motion_pilot,2023.2.2,Win32,60.24096386,615ed775a1a249fe4b81b7ea,65d6bb0e977760de756971f7,65d6be76979b6efb5b451d06,0.0396,0.0397,0,49,49,147,1,sixeight,,,,,,,,,,,,,,,,,,,,,,,,,,,,,,,,,,,,,,,,,,,,,,,,,,,,,,,,,,,,,,,,,,,,,,,,,,,,,,,,,,,,,,,,,,,,,,,,,,,,,,,,,,,,,,,,,,,,,,,,,,,,,,,,,,,,,,,,,
,,615ed775a1a249fe4b81b7ea,2024-02-22_05h25.12.886,kallum_motion_pilot,2023.2.2,Win32,60.24096386,615ed775a1a249fe4b81b7ea,65d6bb0e977760de756971f7,65d6be76979b6efb5b451d06,0.0398,0.0398,0,50,50,118,1,eightsix,,,,,,,,,,,,,,,,,,,,,,,,,,,,,,,,,,,,,,,,,,,,,,,,,,,,,,,,,,,,,,,,,,,,,,,,,,,,,,,,,,,,,,,,,,,,,,,,,,,,,,,,,,,,,,,,,,,,,,,,,,,,,,,,,,,,,,,,,
,,615ed775a1a249fe4b81b7ea,2024-02-22_05h25.12.886,kallum_motion_pilot,2023.2.2,Win32,60.24096386,615ed775a1a249fe4b81b7ea,65d6bb0e977760de756971f7,65d6be76979b6efb5b451d06,0.0399,0.04,0,51,51,89,1,fiveseven,,,,,,,,,,,,,,,,,,,,,,,,,,,,,,,,,,,,,,,,,,,,,,,,,,,,,,,,,,,,,,,,,,,,,,,,,,,,,,,,,,,,,,,,,,,,,,,,,,,,,,,,,,,,,,,,,,,,,,,,,,,,,,,,,,,,,,,,,
,,615ed775a1a249fe4b81b7ea,2024-02-22_05h25.12.886,kallum_motion_pilot,2023.2.2,Win32,60.24096386,615ed775a1a249fe4b81b7ea,65d6bb0e977760de756971f7,65d6be76979b6efb5b451d06,0.0401,0.0401,0,52,52,122,1,sixfive,,,,,,,,,,,,,,,,,,,,,,,,,,,,,,,,,,,,,,,,,,,,,,,,,,,,,,,,,,,,,,,,,,,,,,,,,,,,,,,,,,,,,,,,,,,,,,,,,,,,,,,,,,,,,,,,,,,,,,,,,,,,,,,,,,,,,,,,,
,,615ed775a1a249fe4b81b7ea,2024-02-22_05h25.12.886,kallum_motion_pilot,2023.2.2,Win32,60.24096386,615ed775a1a249fe4b81b7ea,65d6bb0e977760de756971f7,65d6be76979b6efb5b451d06,0.0401,0.0402,0,53,53,59,1,twofour,,,,,,,,,,,,,,,,,,,,,,,,,,,,,,,,,,,,,,,,,,,,,,,,,,,,,,,,,,,,,,,,,,,,,,,,,,,,,,,,,,,,,,,,,,,,,,,,,,,,,,,,,,,,,,,,,,,,,,,,,,,,,,,,,,,,,,,,,
,,615ed775a1a249fe4b81b7ea,2024-02-22_05h25.12.886,kallum_motion_pilot,2023.2.2,Win32,60.24096386,615ed775a1a249fe4b81b7ea,65d6bb0e977760de756971f7,65d6be76979b6efb5b451d06,0.0403,0.0404,0,54,54,5,1,threefour,,,,,,,,,,,,,,,,,,,,,,,,,,,,,,,,,,,,,,,,,,,,,,,,,,,,,,,,,,,,,,,,,,,,,,,,,,,,,,,,,,,,,,,,,,,,,,,,,,,,,,,,,,,,,,,,,,,,,,,,,,,,,,,,,,,,,,,,,
,,615ed775a1a249fe4b81b7ea,2024-02-22_05h25.12.886,kallum_motion_pilot,2023.2.2,Win32,60.24096386,615ed775a1a249fe4b81b7ea,65d6bb0e977760de756971f7,65d6be76979b6efb5b451d06,0.0404,0.0405,0,55,55,161,1,fiveseven,,,,,,,,,,,,,,,,,,,,,,,,,,,,,,,,,,,,,,,,,,,,,,,,,,,,,,,,,,,,,,,,,,,,,,,,,,,,,,,,,,,,,,,,,,,,,,,,,,,,,,,,,,,,,,,,,,,,,,,,,,,,,,,,,,,,,,,,,
,,615ed775a1a249fe4b81b7ea,2024-02-22_05h25.12.886,kallum_motion_pilot,2023.2.2,Win32,60.24096386,615ed775a1a249fe4b81b7ea,65d6bb0e977760de756971f7,65d6be76979b6efb5b451d06,0.0406,0.0406,0,56,56,149,1,seveneight,,,,,,,,,,,,,,,,,,,,,,,,,,,,,,,,,,,,,,,,,,,,,,,,,,,,,,,,,,,,,,,,,,,,,,,,,,,,,,,,,,,,,,,,,,,,,,,,,,,,,,,,,,,,,,,,,,,,,,,,,,,,,,,,,,,,,,,,,
,,615ed775a1a249fe4b81b7ea,2024-02-22_05h25.12.886,kallum_motion_pilot,2023.2.2,Win32,60.24096386,615ed775a1a249fe4b81b7ea,65d6bb0e977760de756971f7,65d6be76979b6efb5b451d06,0.0406,0.0406,0,57,57,141,1,seveneight,,,,,,,,,,,,,,,,,,,,,,,,,,,,,,,,,,,,,,,,,,,,,,,,,,,,,,,,,,,,,,,,,,,,,,,,,,,,,,,,,,,,,,,,,,,,,,,,,,,,,,,,,,,,,,,,,,,,,,,,,,,,,,,,,,,,,,,,,
,,615ed775a1a249fe4b81b7ea,2024-02-22_05h25.12.886,kallum_motion_pilot,2023.2.2,Win32,60.24096386,615ed775a1a249fe4b81b7ea,65d6bb0e977760de756971f7,65d6be76979b6efb5b451d06,0.0407,0.0408,0,58,58,44,1,threeone,,,,,,,,,,,,,,,,,,,,,,,,,,,,,,,,,,,,,,,,,,,,,,,,,,,,,,,,,,,,,,,,,,,,,,,,,,,,,,,,,,,,,,,,,,,,,,,,,,,,,,,,,,,,,,,,,,,,,,,,,,,,,,,,,,,,,,,,,
,,615ed775a1a249fe4b81b7ea,2024-02-22_05h25.12.886,kallum_motion_pilot,2023.2.2,Win32,60.24096386,615ed775a1a249fe4b81b7ea,65d6bb0e977760de756971f7,65d6be76979b6efb5b451d06,0.0409,0.0409,0,59,59,7,1,fourthree,,,,,,,,,,,,,,,,,,,,,,,,,,,,,,,,,,,,,,,,,,,,,,,,,,,,,,,,,,,,,,,,,,,,,,,,,,,,,,,,,,,,,,,,,,,,,,,,,,,,,,,,,,,,,,,,,,,,,,,,,,,,,,,,,,,,,,,,,
,,615ed775a1a249fe4b81b7ea,2024-02-22_05h25.12.886,kallum_motion_pilot,2023.2.2,Win32,60.24096386,615ed775a1a249fe4b81b7ea,65d6bb0e977760de756971f7,65d6be76979b6efb5b451d06,0.041,0.041,0,60,60,128,1,fivesix,,,,,,,,,,,,,,,,,,,,,,,,,,,,,,,,,,,,,,,,,,,,,,,,,,,,,,,,,,,,,,,,,,,,,,,,,,,,,,,,,,,,,,,,,,,,,,,,,,,,,,,,,,,,,,,,,,,,,,,,,,,,,,,,,,,,,,,,,
,,615ed775a1a249fe4b81b7ea,2024-02-22_05h25.12.886,kallum_motion_pilot,2023.2.2,Win32,60.24096386,615ed775a1a249fe4b81b7ea,65d6bb0e977760de756971f7,65d6be76979b6efb5b451d06,0.0411,0.0411,0,61,61,41,1,onethree,,,,,,,,,,,,,,,,,,,,,,,,,,,,,,,,,,,,,,,,,,,,,,,,,,,,,,,,,,,,,,,,,,,,,,,,,,,,,,,,,,,,,,,,,,,,,,,,,,,,,,,,,,,,,,,,,,,,,,,,,,,,,,,,,,,,,,,,,
,,615ed775a1a249fe4b81b7ea,2024-02-22_05h25.12.886,kallum_motion_pilot,2023.2.2,Win32,60.24096386,615ed775a1a249fe4b81b7ea,65d6bb0e977760de756971f7,65d6be76979b6efb5b451d06,0.0413,0.0413,0,62,62,66,1,twoone,,,,,,,,,,,,,,,,,,,,,,,,,,,,,,,,,,,,,,,,,,,,,,,,,,,,,,,,,,,,,,,,,,,,,,,,,,,,,,,,,,,,,,,,,,,,,,,,,,,,,,,,,,,,,,,,,,,,,,,,,,,,,,,,,,,,,,,,,
,,615ed775a1a249fe4b81b7ea,2024-02-22_05h25.12.886,kallum_motion_pilot,2023.2.2,Win32,60.24096386,615ed775a1a249fe4b81b7ea,65d6bb0e977760de756971f7,65d6be76979b6efb5b451d06,0.0414,0.0414,0,63,63,12,1,threeone,,,,,,,,,,,,,,,,,,,,,,,,,,,,,,,,,,,,,,,,,,,,,,,,,,,,,,,,,,,,,,,,,,,,,,,,,,,,,,,,,,,,,,,,,,,,,,,,,,,,,,,,,,,,,,,,,,,,,,,,,,,,,,,,,,,,,,,,,
,,615ed775a1a249fe4b81b7ea,2024-02-22_05h25.12.886,kallum_motion_pilot,2023.2.2,Win32,60.24096386,615ed775a1a249fe4b81b7ea,65d6bb0e977760de756971f7,65d6be76979b6efb5b451d06,0.0415,0.0416,0,64,64,140,1,sevenfive,,,,,,,,,,,,,,,,,,,,,,,,,,,,,,,,,,,,,,,,,,,,,,,,,,,,,,,,,,,,,,,,,,,,,,,,,,,,,,,,,,,,,,,,,,,,,,,,,,,,,,,,,,,,,,,,,,,,,,,,,,,,,,,,,,,,,,,,,
,,615ed775a1a249fe4b81b7ea,2024-02-22_05h25.12.886,kallum_motion_pilot,2023.2.2,Win32,60.24096386,615ed775a1a249fe4b81b7ea,65d6bb0e977760de756971f7,65d6be76979b6efb5b451d06,0.0417,0.0417,0,65,65,99,1,sixeight,,,,,,,,,,,,,,,,,,,,,,,,,,,,,,,,,,,,,,,,,,,,,,,,,,,,,,,,,,,,,,,,,,,,,,,,,,,,,,,,,,,,,,,,,,,,,,,,,,,,,,,,,,,,,,,,,,,,,,,,,,,,,,,,,,,,,,,,,
,,615ed775a1a249fe4b81b7ea,2024-02-22_05h25.12.886,kallum_motion_pilot,2023.2.2,Win32,60.24096386,615ed775a1a249fe4b81b7ea,65d6bb0e977760de756971f7,65d6be76979b6efb5b451d06,0.0418,0.0418,0,66,66,49,1,onethree,,,,,,,,,,,,,,,,,,,,,,,,,,,,,,,,,,,,,,,,,,,,,,,,,,,,,,,,,,,,,,,,,,,,,,,,,,,,,,,,,,,,,,,,,,,,,,,,,,,,,,,,,,,,,,,,,,,,,,,,,,,,,,,,,,,,,,,,,
,,615ed775a1a249fe4b81b7ea,2024-02-22_05h25.12.886,kallum_motion_pilot,2023.2.2,Win32,60.24096386,615ed775a1a249fe4b81b7ea,65d6bb0e977760de756971f7,65d6be76979b6efb5b451d06,0.042,0.042,0,67,67,100,1,sevenfive,,,,,,,,,,,,,,,,,,,,,,,,,,,,,,,,,,,,,,,,,,,,,,,,,,,,,,,,,,,,,,,,,,,,,,,,,,,,,,,,,,,,,,,,,,,,,,,,,,,,,,,,,,,,,,,,,,,,,,,,,,,,,,,,,,,,,,,,,
,,615ed775a1a249fe4b81b7ea,2024-02-22_05h25.12.886,kallum_motion_pilot,2023.2.2,Win32,60.24096386,615ed775a1a249fe4b81b7ea,65d6bb0e977760de756971f7,65d6be76979b6efb5b451d06,0.042,0.0421,0,68,68,110,1,eightsix,,,,,,,,,,,,,,,,,,,,,,,,,,,,,,,,,,,,,,,,,,,,,,,,,,,,,,,,,,,,,,,,,,,,,,,,,,,,,,,,,,,,,,,,,,,,,,,,,,,,,,,,,,,,,,,,,,,,,,,,,,,,,,,,,,,,,,,,,
,,615ed775a1a249fe4b81b7ea,2024-02-22_05h25.12.886,kallum_motion_pilot,2023.2.2,Win32,60.24096386,615ed775a1a249fe4b81b7ea,65d6bb0e977760de756971f7,65d6be76979b6efb5b451d06,0.0422,0.0423,0,69,69,121,1,fiveseven,,,,,,,,,,,,,,,,,,,,,,,,,,,,,,,,,,,,,,,,,,,,,,,,,,,,,,,,,,,,,,,,,,,,,,,,,,,,,,,,,,,,,,,,,,,,,,,,,,,,,,,,,,,,,,,,,,,,,,,,,,,,,,,,,,,,,,,,,
,,615ed775a1a249fe4b81b7ea,2024-02-22_05h25.12.886,kallum_motion_pilot,2023.2.2,Win32,60.24096386,615ed775a1a249fe4b81b7ea,65d6bb0e977760de756971f7,65d6be76979b6efb5b451d06,0.0423,0.0424,0,70,70,25,1,onethree,,,,,,,,,,,,,,,,,,,,,,,,,,,,,,,,,,,,,,,,,,,,,,,,,,,,,,,,,,,,,,,,,,,,,,,,,,,,,,,,,,,,,,,,,,,,,,,,,,,,,,,,,,,,,,,,,,,,,,,,,,,,,,,,,,,,,,,,,
,,615ed775a1a249fe4b81b7ea,2024-02-22_05h25.12.886,kallum_motion_pilot,2023.2.2,Win32,60.24096386,615ed775a1a249fe4b81b7ea,65d6bb0e977760de756971f7,65d6be76979b6efb5b451d06,0.0425,0.0426,0,71,71,116,1,sevenfive,,,,,,,,,,,,,,,,,,,,,,,,,,,,,,,,,,,,,,,,,,,,,,,,,,,,,,,,,,,,,,,,,,,,,,,,,,,,,,,,,,,,,,,,,,,,,,,,,,,,,,,,,,,,,,,,,,,,,,,,,,,,,,,,,,,,,,,,,
,,615ed775a1a249fe4b81b7ea,2024-02-22_05h25.12.886,kallum_motion_pilot,2023.2.2,Win32,60.24096386,615ed775a1a249fe4b81b7ea,65d6bb0e977760de756971f7,65d6be76979b6efb5b451d06,0.0426,0.0426,0,72,72,117,1,seveneight,,,,,,,,,,,,,,,,,,,,,,,,,,,,,,,,,,,,,,,,,,,,,,,,,,,,,,,,,,,,,,,,,,,,,,,,,,,,,,,,,,,,,,,,,,,,,,,,,,,,,,,,,,,,,,,,,,,,,,,,,,,,,,,,,,,,,,,,,
,,615ed775a1a249fe4b81b7ea,2024-02-22_05h25.12.886,kallum_motion_pilot,2023.2.2,Win32,60.24096386,615ed775a1a249fe4b81b7ea,65d6bb0e977760de756971f7,65d6be76979b6efb5b451d06,0.0427,0.0428,0,73,73,63,1,fourthree,,,,,,,,,,,,,,,,,,,,,,,,,,,,,,,,,,,,,,,,,,,,,,,,,,,,,,,,,,,,,,,,,,,,,,,,,,,,,,,,,,,,,,,,,,,,,,,,,,,,,,,,,,,,,,,,,,,,,,,,,,,,,,,,,,,,,,,,,
,,615ed775a1a249fe4b81b7ea,2024-02-22_05h25.12.886,kallum_motion_pilot,2023.2.2,Win32,60.24096386,615ed775a1a249fe4b81b7ea,65d6bb0e977760de756971f7,65d6be76979b6efb5b451d06,0.0429,0.0429,0,74,74,142,1,eightsix,,,,,,,,,,,,,,,,,,,,,,,,,,,,,,,,,,,,,,,,,,,,,,,,,,,,,,,,,,,,,,,,,,,,,,,,,,,,,,,,,,,,,,,,,,,,,,,,,,,,,,,,,,,,,,,,,,,,,,,,,,,,,,,,,,,,,,,,,
,,615ed775a1a249fe4b81b7ea,2024-02-22_05h25.12.886,kallum_motion_pilot,2023.2.2,Win32,60.24096386,615ed775a1a249fe4b81b7ea,65d6bb0e977760de756971f7,65d6be76979b6efb5b451d06,0.043,0.043,0,75,75,72,1,onetwo,,,,,,,,,,,,,,,,,,,,,,,,,,,,,,,,,,,,,,,,,,,,,,,,,,,,,,,,,,,,,,,,,,,,,,,,,,,,,,,,,,,,,,,,,,,,,,,,,,,,,,,,,,,,,,,,,,,,,,,,,,,,,,,,,,,,,,,,,
,,615ed775a1a249fe4b81b7ea,2024-02-22_05h25.12.886,kallum_motion_pilot,2023.2.2,Win32,60.24096386,615ed775a1a249fe4b81b7ea,65d6bb0e977760de756971f7,65d6be76979b6efb5b451d06,0.0431,0.0432,0,76,76,29,1,threefour,,,,,,,,,,,,,,,,,,,,,,,,,,,,,,,,,,,,,,,,,,,,,,,,,,,,,,,,,,,,,,,,,,,,,,,,,,,,,,,,,,,,,,,,,,,,,,,,,,,,,,,,,,,,,,,,,,,,,,,,,,,,,,,,,,,,,,,,,
,,615ed775a1a249fe4b81b7ea,2024-02-22_05h25.12.886,kallum_motion_pilot,2023.2.2,Win32,60.24096386,615ed775a1a249fe4b81b7ea,65d6bb0e977760de756971f7,65d6be76979b6efb5b451d06,0.0433,0.0434,0,77,77,48,1,onetwo,,,,,,,,,,,,,,,,,,,,,,,,,,,,,,,,,,,,,,,,,,,,,,,,,,,,,,,,,,,,,,,,,,,,,,,,,,,,,,,,,,,,,,,,,,,,,,,,,,,,,,,,,,,,,,,,,,,,,,,,,,,,,,,,,,,,,,,,,
,,615ed775a1a249fe4b81b7ea,2024-02-22_05h25.12.886,kallum_motion_pilot,2023.2.2,Win32,60.24096386,615ed775a1a249fe4b81b7ea,65d6bb0e977760de756971f7,65d6be76979b6efb5b451d06,0.0434,0.0435,0,78,78,139,1,sixeight,,,,,,,,,,,,,,,,,,,,,,,,,,,,,,,,,,,,,,,,,,,,,,,,,,,,,,,,,,,,,,,,,,,,,,,,,,,,,,,,,,,,,,,,,,,,,,,,,,,,,,,,,,,,,,,,,,,,,,,,,,,,,,,,,,,,,,,,,
,,615ed775a1a249fe4b81b7ea,2024-02-22_05h25.12.886,kallum_motion_pilot,2023.2.2,Win32,60.24096386,615ed775a1a249fe4b81b7ea,65d6bb0e977760de756971f7,65d6be76979b6efb5b451d06,0.0436,0.0436,0,79,79,75,1,twofour,,,,,,,,,,,,,,,,,,,,,,,,,,,,,,,,,,,,,,,,,,,,,,,,,,,,,,,,,,,,,,,,,,,,,,,,,,,,,,,,,,,,,,,,,,,,,,,,,,,,,,,,,,,,,,,,,,,,,,,,,,,,,,,,,,,,,,,,,
,,615ed775a1a249fe4b81b7ea,2024-02-22_05h25.12.886,kallum_motion_pilot,2023.2.2,Win32,60.24096386,615ed775a1a249fe4b81b7ea,65d6bb0e977760de756971f7,65d6be76979b6efb5b451d06,0.0437,0.0438,0,80,80,105,1,fiveseven,,,,,,,,,,,,,,,,,,,,,,,,,,,,,,,,,,,,,,,,,,,,,,,,,,,,,,,,,,,,,,,,,,,,,,,,,,,,,,,,,,,,,,,,,,,,,,,,,,,,,,,,,,,,,,,,,,,,,,,,,,,,,,,,,,,,,,,,,
,,615ed775a1a249fe4b81b7ea,2024-02-22_05h25.12.886,kallum_motion_pilot,2023.2.2,Win32,60.24096386,615ed775a1a249fe4b81b7ea,65d6bb0e977760de756971f7,65d6be76979b6efb5b451d06,0.0438,0.0439,0,81,81,27,1,twofour,,,,,,,,,,,,,,,,,,,,,,,,,,,,,,,,,,,,,,,,,,,,,,,,,,,,,,,,,,,,,,,,,,,,,,,,,,,,,,,,,,,,,,,,,,,,,,,,,,,,,,,,,,,,,,,,,,,,,,,,,,,,,,,,,,,,,,,,,
,,615ed775a1a249fe4b81b7ea,2024-02-22_05h25.12.886,kallum_motion_pilot,2023.2.2,Win32,60.24096386,615ed775a1a249fe4b81b7ea,65d6bb0e977760de756971f7,65d6be76979b6efb5b451d06,0.0439,0.044,0,82,82,38,1,fourtwo,,,,,,,,,,,,,,,,,,,,,,,,,,,,,,,,,,,,,,,,,,,,,,,,,,,,,,,,,,,,,,,,,,,,,,,,,,,,,,,,,,,,,,,,,,,,,,,,,,,,,,,,,,,,,,,,,,,,,,,,,,,,,,,,,,,,,,,,,
,,615ed775a1a249fe4b81b7ea,2024-02-22_05h25.12.886,kallum_motion_pilot,2023.2.2,Win32,60.24096386,615ed775a1a249fe4b81b7ea,65d6bb0e977760de756971f7,65d6be76979b6efb5b451d06,0.0441,0.0441,0,83,83,95,1,eightseven,,,,,,,,,,,,,,,,,,,,,,,,,,,,,,,,,,,,,,,,,,,,,,,,,,,,,,,,,,,,,,,,,,,,,,,,,,,,,,,,,,,,,,,,,,,,,,,,,,,,,,,,,,,,,,,,,,,,,,,,,,,,,,,,,,,,,,,,,
,,615ed775a1a249fe4b81b7ea,2024-02-22_05h25.12.886,kallum_motion_pilot,2023.2.2,Win32,60.24096386,615ed775a1a249fe4b81b7ea,65d6bb0e977760de756971f7,65d6be76979b6efb5b451d06,0.0442,0.0442,0,84,84,37,1,threefour,,,,,,,,,,,,,,,,,,,,,,,,,,,,,,,,,,,,,,,,,,,,,,,,,,,,,,,,,,,,,,,,,,,,,,,,,,,,,,,,,,,,,,,,,,,,,,,,,,,,,,,,,,,,,,,,,,,,,,,,,,,,,,,,,,,,,,,,,
,,615ed775a1a249fe4b81b7ea,2024-02-22_05h25.12.886,kallum_motion_pilot,2023.2.2,Win32,60.24096386,615ed775a1a249fe4b81b7ea,65d6bb0e977760de756971f7,65d6be76979b6efb5b451d06,0.0444,0.0444,0,85,85,152,1,fivesix,,,,,,,,,,,,,,,,,,,,,,,,,,,,,,,,,,,,,,,,,,,,,,,,,,,,,,,,,,,,,,,,,,,,,,,,,,,,,,,,,,,,,,,,,,,,,,,,,,,,,,,,,,,,,,,,,,,,,,,,,,,,,,,,,,,,,,,,,
,,615ed775a1a249fe4b81b7ea,2024-02-22_05h25.12.886,kallum_motion_pilot,2023.2.2,Win32,60.24096386,615ed775a1a249fe4b81b7ea,65d6bb0e977760de756971f7,65d6be76979b6efb5b451d06,0.0445,0.0445,0,86,86,112,1,fivesix,,,,,,,,,,,,,,,,,,,,,,,,,,,,,,,,,,,,,,,,,,,,,,,,,,,,,,,,,,,,,,,,,,,,,,,,,,,,,,,,,,,,,,,,,,,,,,,,,,,,,,,,,,,,,,,,,,,,,,,,,,,,,,,,,,,,,,,,,
,,615ed775a1a249fe4b81b7ea,2024-02-22_05h25.12.886,kallum_motion_pilot,2023.2.2,Win32,60.24096386,615ed775a1a249fe4b81b7ea,65d6bb0e977760de756971f7,65d6be76979b6efb5b451d06,0.0446,0.0447,0,87,87,21,1,threefour,,,,,,,,,,,,,,,,,,,,,,,,,,,,,,,,,,,,,,,,,,,,,,,,,,,,,,,,,,,,,,,,,,,,,,,,,,,,,,,,,,,,,,,,,,,,,,,,,,,,,,,,,,,,,,,,,,,,,,,,,,,,,,,,,,,,,,,,,
,,615ed775a1a249fe4b81b7ea,2024-02-22_05h25.12.886,kallum_motion_pilot,2023.2.2,Win32,60.24096386,615ed775a1a249fe4b81b7ea,65d6bb0e977760de756971f7,65d6be76979b6efb5b451d06,0.0447,0.0448,0,88,88,86,1,eightsix,,,,,,,,,,,,,,,,,,,,,,,,,,,,,,,,,,,,,,,,,,,,,,,,,,,,,,,,,,,,,,,,,,,,,,,,,,,,,,,,,,,,,,,,,,,,,,,,,,,,,,,,,,,,,,,,,,,,,,,,,,,,,,,,,,,,,,,,,
,,615ed775a1a249fe4b81b7ea,2024-02-22_05h25.12.886,kallum_motion_pilot,2023.2.2,Win32,60.24096386,615ed775a1a249fe4b81b7ea,65d6bb0e977760de756971f7,65d6be76979b6efb5b451d06,0.0449,0.0449,0,89,89,42,1,twoone,,,,,,,,,,,,,,,,,,,,,,,,,,,,,,,,,,,,,,,,,,,,,,,,,,,,,,,,,,,,,,,,,,,,,,,,,,,,,,,,,,,,,,,,,,,,,,,,,,,,,,,,,,,,,,,,,,,,,,,,,,,,,,,,,,,,,,,,,
,,615ed775a1a249fe4b81b7ea,2024-02-22_05h25.12.886,kallum_motion_pilot,2023.2.2,Win32,60.24096386,615ed775a1a249fe4b81b7ea,65d6bb0e977760de756971f7,65d6be76979b6efb5b451d06,0.045,0.045,0,90,90,11,1,twofour,,,,,,,,,,,,,,,,,,,,,,,,,,,,,,,,,,,,,,,,,,,,,,,,,,,,,,,,,,,,,,,,,,,,,,,,,,,,,,,,,,,,,,,,,,,,,,,,,,,,,,,,,,,,,,,,,,,,,,,,,,,,,,,,,,,,,,,,,
,,615ed775a1a249fe4b81b7ea,2024-02-22_05h25.12.886,kallum_motion_pilot,2023.2.2,Win32,60.24096386,615ed775a1a249fe4b81b7ea,65d6bb0e977760de756971f7,65d6be76979b6efb5b451d06,0.0452,0.0452,0,91,91,87,1,eightseven,,,,,,,,,,,,,,,,,,,,,,,,,,,,,,,,,,,,,,,,,,,,,,,,,,,,,,,,,,,,,,,,,,,,,,,,,,,,,,,,,,,,,,,,,,,,,,,,,,,,,,,,,,,,,,,,,,,,,,,,,,,,,,,,,,,,,,,,,
,,615ed775a1a249fe4b81b7ea,2024-02-22_05h25.12.886,kallum_motion_pilot,2023.2.2,Win32,60.24096386,615ed775a1a249fe4b81b7ea,65d6bb0e977760de756971f7,65d6be76979b6efb5b451d06,0.0453,0.0453,0,92,92,13,1,threefour,,,,,,,,,,,,,,,,,,,,,,,,,,,,,,,,,,,,,,,,,,,,,,,,,,,,,,,,,,,,,,,,,,,,,,,,,,,,,,,,,,,,,,,,,,,,,,,,,,,,,,,,,,,,,,,,,,,,,,,,,,,,,,,,,,,,,,,,,
,,615ed775a1a249fe4b81b7ea,2024-02-22_05h25.12.886,kallum_motion_pilot,2023.2.2,Win32,60.24096386,615ed775a1a249fe4b81b7ea,65d6bb0e977760de756971f7,65d6be76979b6efb5b451d06,0.0454,0.0455,0,93,93,148,1,sevenfive,,,,,,,,,,,,,,,,,,,,,,,,,,,,,,,,,,,,,,,,,,,,,,,,,,,,,,,,,,,,,,,,,,,,,,,,,,,,,,,,,,,,,,,,,,,,,,,,,,,,,,,,,,,,,,,,,,,,,,,,,,,,,,,,,,,,,,,,,
,,615ed775a1a249fe4b81b7ea,2024-02-22_05h25.12.886,kallum_motion_pilot,2023.2.2,Win32,60.24096386,615ed775a1a249fe4b81b7ea,65d6bb0e977760de756971f7,65d6be76979b6efb5b451d06,0.0455,0.0455,0,94,94,77,1,threefour,,,,,,,,,,,,,,,,,,,,,,,,,,,,,,,,,,,,,,,,,,,,,,,,,,,,,,,,,,,,,,,,,,,,,,,,,,,,,,,,,,,,,,,,,,,,,,,,,,,,,,,,,,,,,,,,,,,,,,,,,,,,,,,,,,,,,,,,,
,,615ed775a1a249fe4b81b7ea,2024-02-22_05h25.12.886,kallum_motion_pilot,2023.2.2,Win32,60.24096386,615ed775a1a249fe4b81b7ea,65d6bb0e977760de756971f7,65d6be76979b6efb5b451d06,0.0457,0.0457,0,95,95,67,1,twofour,,,,,,,,,,,,,,,,,,,,,,,,,,,,,,,,,,,,,,,,,,,,,,,,,,,,,,,,,,,,,,,,,,,,,,,,,,,,,,,,,,,,,,,,,,,,,,,,,,,,,,,,,,,,,,,,,,,,,,,,,,,,,,,,,,,,,,,,,
,,615ed775a1a249fe4b81b7ea,2024-02-22_05h25.12.886,kallum_motion_pilot,2023.2.2,Win32,60.24096386,615ed775a1a249fe4b81b7ea,65d6bb0e977760de756971f7,65d6be76979b6efb5b451d06,0.0458,0.0458,0,96,96,46,1,fourtwo,,,,,,,,,,,,,,,,,,,,,,,,,,,,,,,,,,,,,,,,,,,,,,,,,,,,,,,,,,,,,,,,,,,,,,,,,,,,,,,,,,,,,,,,,,,,,,,,,,,,,,,,,,,,,,,,,,,,,,,,,,,,,,,,,,,,,,,,,
,,615ed775a1a249fe4b81b7ea,2024-02-22_05h25.12.886,kallum_motion_pilot,2023.2.2,Win32,60.24096386,615ed775a1a249fe4b81b7ea,65d6bb0e977760de756971f7,65d6be76979b6efb5b451d06,0.046,0.046,0,97,97,40,1,onetwo,,,,,,,,,,,,,,,,,,,,,,,,,,,,,,,,,,,,,,,,,,,,,,,,,,,,,,,,,,,,,,,,,,,,,,,,,,,,,,,,,,,,,,,,,,,,,,,,,,,,,,,,,,,,,,,,,,,,,,,,,,,,,,,,,,,,,,,,,
,,615ed775a1a249fe4b81b7ea,2024-02-22_05h25.12.886,kallum_motion_pilot,2023.2.2,Win32,60.24096386,615ed775a1a249fe4b81b7ea,65d6bb0e977760de756971f7,65d6be76979b6efb5b451d06,0.0461,0.0461,0,98,98,145,1,fiveseven,,,,,,,,,,,,,,,,,,,,,,,,,,,,,,,,,,,,,,,,,,,,,,,,,,,,,,,,,,,,,,,,,,,,,,,,,,,,,,,,,,,,,,,,,,,,,,,,,,,,,,,,,,,,,,,,,,,,,,,,,,,,,,,,,,,,,,,,,
,,615ed775a1a249fe4b81b7ea,2024-02-22_05h25.12.886,kallum_motion_pilot,2023.2.2,Win32,60.24096386,615ed775a1a249fe4b81b7ea,65d6bb0e977760de756971f7,65d6be76979b6efb5b451d06,0.0462,0.0463,0,99,99,129,1,fiveseven,,,,,,,,,,,,,,,,,,,,,,,,,,,,,,,,,,,,,,,,,,,,,,,,,,,,,,,,,,,,,,,,,,,,,,,,,,,,,,,,,,,,,,,,,,,,,,,,,,,,,,,,,,,,,,,,,,,,,,,,,,,,,,,,,,,,,,,,,
,,615ed775a1a249fe4b81b7ea,2024-02-22_05h25.12.886,kallum_motion_pilot,2023.2.2,Win32,60.24096386,615ed775a1a249fe4b81b7ea,65d6bb0e977760de756971f7,65d6be76979b6efb5b451d06,0.0464,0.0464,0,100,100,31,1,fourthree,,,,,,,,,,,,,,,,,,,,,,,,,,,,,,,,,,,,,,,,,,,,,,,,,,,,,,,,,,,,,,,,,,,,,,,,,,,,,,,,,,,,,,,,,,,,,,,,,,,,,,,,,,,,,,,,,,,,,,,,,,,,,,,,,,,,,,,,,
,,615ed775a1a249fe4b81b7ea,2024-02-22_05h25.12.886,kallum_motion_pilot,2023.2.2,Win32,60.24096386,615ed775a1a249fe4b81b7ea,65d6bb0e977760de756971f7,65d6be76979b6efb5b451d06,0.0464,0.0465,0,101,101,76,1,threeone,,,,,,,,,,,,,,,,,,,,,,,,,,,,,,,,,,,,,,,,,,,,,,,,,,,,,,,,,,,,,,,,,,,,,,,,,,,,,,,,,,,,,,,,,,,,,,,,,,,,,,,,,,,,,,,,,,,,,,,,,,,,,,,,,,,,,,,,,
,,615ed775a1a249fe4b81b7ea,2024-02-22_05h25.12.886,kallum_motion_pilot,2023.2.2,Win32,60.24096386,615ed775a1a249fe4b81b7ea,65d6bb0e977760de756971f7,65d6be76979b6efb5b451d06,0.0474,0.0475,0,102,102,119,1,eightseven,,,,,,,,,,,,,,,,,,,,,,,,,,,,,,,,,,,,,,,,,,,,,,,,,,,,,,,,,,,,,,,,,,,,,,,,,,,,,,,,,,,,,,,,,,,,,,,,,,,,,,,,,,,,,,,,,,,,,,,,,,,,,,,,,,,,,,,,,
,,615ed775a1a249fe4b81b7ea,2024-02-22_05h25.12.886,kallum_motion_pilot,2023.2.2,Win32,60.24096386,615ed775a1a249fe4b81b7ea,65d6bb0e977760de756971f7,65d6be76979b6efb5b451d06,0.0476,0.0477,0,103,103,153,1,fiveseven,,,,,,,,,,,,,,,,,,,,,,,,,,,,,,,,,,,,,,,,,,,,,,,,,,,,,,,,,,,,,,,,,,,,,,,,,,,,,,,,,,,,,,,,,,,,,,,,,,,,,,,,,,,,,,,,,,,,,,,,,,,,,,,,,,,,,,,,,
,,615ed775a1a249fe4b81b7ea,2024-02-22_05h25.12.886,kallum_motion_pilot,2023.2.2,Win32,60.24096386,615ed775a1a249fe4b81b7ea,65d6bb0e977760de756971f7,65d6be76979b6efb5b451d06,0.0478,0.0478,0,104,104,2,1,twoone,,,,,,,,,,,,,,,,,,,,,,,,,,,,,,,,,,,,,,,,,,,,,,,,,,,,,,,,,,,,,,,,,,,,,,,,,,,,,,,,,,,,,,,,,,,,,,,,,,,,,,,,,,,,,,,,,,,,,,,,,,,,,,,,,,,,,,,,,
,,615ed775a1a249fe4b81b7ea,2024-02-22_05h25.12.886,kallum_motion_pilot,2023.2.2,Win32,60.24096386,615ed775a1a249fe4b81b7ea,65d6bb0e977760de756971f7,65d6be76979b6efb5b451d06,0.0479,0.048,0,105,105,106,1,sixfive,,,,,,,,,,,,,,,,,,,,,,,,,,,,,,,,,,,,,,,,,,,,,,,,,,,,,,,,,,,,,,,,,,,,,,,,,,,,,,,,,,,,,,,,,,,,,,,,,,,,,,,,,,,,,,,,,,,,,,,,,,,,,,,,,,,,,,,,,
,,615ed775a1a249fe4b81b7ea,2024-02-22_05h25.12.886,kallum_motion_pilot,2023.2.2,Win32,60.24096386,615ed775a1a249fe4b81b7ea,65d6bb0e977760de756971f7,65d6be76979b6efb5b451d06,0.048,0.0481,0,106,106,93,1,seveneight,,,,,,,,,,,,,,,,,,,,,,,,,,,,,,,,,,,,,,,,,,,,,,,,,,,,,,,,,,,,,,,,,,,,,,,,,,,,,,,,,,,,,,,,,,,,,,,,,,,,,,,,,,,,,,,,,,,,,,,,,,,,,,,,,,,,,,,,,
,,615ed775a1a249fe4b81b7ea,2024-02-22_05h25.12.886,kallum_motion_pilot,2023.2.2,Win32,60.24096386,615ed775a1a249fe4b81b7ea,65d6bb0e977760de756971f7,65d6be76979b6efb5b451d06,0.0482,0.0482,0,107,107,74,1,twoone,,,,,,,,,,,,,,,,,,,,,,,,,,,,,,,,,,,,,,,,,,,,,,,,,,,,,,,,,,,,,,,,,,,,,,,,,,,,,,,,,,,,,,,,,,,,,,,,,,,,,,,,,,,,,,,,,,,,,,,,,,,,,,,,,,,,,,,,,
,,615ed775a1a249fe4b81b7ea,2024-02-22_05h25.12.886,kallum_motion_pilot,2023.2.2,Win32,60.24096386,615ed775a1a249fe4b81b7ea,65d6bb0e977760de756971f7,65d6be76979b6efb5b451d06,0.0483,0.0484,0,108,108,102,1,eightsix,,,,,,,,,,,,,,,,,,,,,,,,,,,,,,,,,,,,,,,,,,,,,,,,,,,,,,,,,,,,,,,,,,,,,,,,,,,,,,,,,,,,,,,,,,,,,,,,,,,,,,,,,,,,,,,,,,,,,,,,,,,,,,,,,,,,,,,,,
,,615ed775a1a249fe4b81b7ea,2024-02-22_05h25.12.886,kallum_motion_pilot,2023.2.2,Win32,60.24096386,615ed775a1a249fe4b81b7ea,65d6bb0e977760de756971f7,65d6be76979b6efb5b451d06,0.0484,0.0484,0,109,109,62,1,fourtwo,,,,,,,,,,,,,,,,,,,,,,,,,,,,,,,,,,,,,,,,,,,,,,,,,,,,,,,,,,,,,,,,,,,,,,,,,,,,,,,,,,,,,,,,,,,,,,,,,,,,,,,,,,,,,,,,,,,,,,,,,,,,,,,,,,,,,,,,,
,,615ed775a1a249fe4b81b7ea,2024-02-22_05h25.12.886,kallum_motion_pilot,2023.2.2,Win32,60.24096386,615ed775a1a249fe4b81b7ea,65d6bb0e977760de756971f7,65d6be76979b6efb5b451d06,0.0485,0.0486,0,110,110,4,1,threeone,,,,,,,,,,,,,,,,,,,,,,,,,,,,,,,,,,,,,,,,,,,,,,,,,,,,,,,,,,,,,,,,,,,,,,,,,,,,,,,,,,,,,,,,,,,,,,,,,,,,,,,,,,,,,,,,,,,,,,,,,,,,,,,,,,,,,,,,,
,,615ed775a1a249fe4b81b7ea,2024-02-22_05h25.12.886,kallum_motion_pilot,2023.2.2,Win32,60.24096386,615ed775a1a249fe4b81b7ea,65d6bb0e977760de756971f7,65d6be76979b6efb5b451d06,0.0487,0.0487,0,111,111,127,1,eightseven,,,,,,,,,,,,,,,,,,,,,,,,,,,,,,,,,,,,,,,,,,,,,,,,,,,,,,,,,,,,,,,,,,,,,,,,,,,,,,,,,,,,,,,,,,,,,,,,,,,,,,,,,,,,,,,,,,,,,,,,,,,,,,,,,,,,,,,,,
,,615ed775a1a249fe4b81b7ea,2024-02-22_05h25.12.886,kallum_motion_pilot,2023.2.2,Win32,60.24096386,615ed775a1a249fe4b81b7ea,65d6bb0e977760de756971f7,65d6be76979b6efb5b451d06,0.0488,0.0488,0,112,112,124,1,sevenfive,,,,,,,,,,,,,,,,,,,,,,,,,,,,,,,,,,,,,,,,,,,,,,,,,,,,,,,,,,,,,,,,,,,,,,,,,,,,,,,,,,,,,,,,,,,,,,,,,,,,,,,,,,,,,,,,,,,,,,,,,,,,,,,,,,,,,,,,,
,,615ed775a1a249fe4b81b7ea,2024-02-22_05h25.12.886,kallum_motion_pilot,2023.2.2,Win32,60.24096386,615ed775a1a249fe4b81b7ea,65d6bb0e977760de756971f7,65d6be76979b6efb5b451d06,0.0489,0.0489,0,113,113,137,1,fiveseven,,,,,,,,,,,,,,,,,,,,,,,,,,,,,,,,,,,,,,,,,,,,,,,,,,,,,,,,,,,,,,,,,,,,,,,,,,,,,,,,,,,,,,,,,,,,,,,,,,,,,,,,,,,,,,,,,,,,,,,,,,,,,,,,,,,,,,,,,
,,615ed775a1a249fe4b81b7ea,2024-02-22_05h25.12.886,kallum_motion_pilot,2023.2.2,Win32,60.24096386,615ed775a1a249fe4b81b7ea,65d6bb0e977760de756971f7,65d6be76979b6efb5b451d06,0.049,0.049,0,114,114,79,1,eightseven,,,,,,,,,,,,,,,,,,,,,,,,,,,,,,,,,,,,,,,,,,,,,,,,,,,,,,,,,,,,,,,,,,,,,,,,,,,,,,,,,,,,,,,,,,,,,,,,,,,,,,,,,,,,,,,,,,,,,,,,,,,,,,,,,,,,,,,,,
,,615ed775a1a249fe4b81b7ea,2024-02-22_05h25.12.886,kallum_motion_pilot,2023.2.2,Win32,60.24096386,615ed775a1a249fe4b81b7ea,65d6bb0e977760de756971f7,65d6be76979b6efb5b451d06,0.0491,0.0492,0,115,115,157,1,seveneight,,,,,,,,,,,,,,,,,,,,,,,,,,,,,,,,,,,,,,,,,,,,,,,,,,,,,,,,,,,,,,,,,,,,,,,,,,,,,,,,,,,,,,,,,,,,,,,,,,,,,,,,,,,,,,,,,,,,,,,,,,,,,,,,,,,,,,,,,
,,615ed775a1a249fe4b81b7ea,2024-02-22_05h25.12.886,kallum_motion_pilot,2023.2.2,Win32,60.24096386,615ed775a1a249fe4b81b7ea,65d6bb0e977760de756971f7,65d6be76979b6efb5b451d06,0.0492,0.0492,0,116,116,113,1,fiveseven,,,,,,,,,,,,,,,,,,,,,,,,,,,,,,,,,,,,,,,,,,,,,,,,,,,,,,,,,,,,,,,,,,,,,,,,,,,,,,,,,,,,,,,,,,,,,,,,,,,,,,,,,,,,,,,,,,,,,,,,,,,,,,,,,,,,,,,,,
,,615ed775a1a249fe4b81b7ea,2024-02-22_05h25.12.886,kallum_motion_pilot,2023.2.2,Win32,60.24096386,615ed775a1a249fe4b81b7ea,65d6bb0e977760de756971f7,65d6be76979b6efb5b451d06,0.0493,0.0494,0,117,117,85,1,seveneight,,,,,,,,,,,,,,,,,,,,,,,,,,,,,,,,,,,,,,,,,,,,,,,,,,,,,,,,,,,,,,,,,,,,,,,,,,,,,,,,,,,,,,,,,,,,,,,,,,,,,,,,,,,,,,,,,,,,,,,,,,,,,,,,,,,,,,,,,
,,615ed775a1a249fe4b81b7ea,2024-02-22_05h25.12.886,kallum_motion_pilot,2023.2.2,Win32,60.24096386,615ed775a1a249fe4b81b7ea,65d6bb0e977760de756971f7,65d6be76979b6efb5b451d06,0.0495,0.0495,0,118,118,90,1,sixfive,,,,,,,,,,,,,,,,,,,,,,,,,,,,,,,,,,,,,,,,,,,,,,,,,,,,,,,,,,,,,,,,,,,,,,,,,,,,,,,,,,,,,,,,,,,,,,,,,,,,,,,,,,,,,,,,,,,,,,,,,,,,,,,,,,,,,,,,,
,,615ed775a1a249fe4b81b7ea,2024-02-22_05h25.12.886,kallum_motion_pilot,2023.2.2,Win32,60.24096386,615ed775a1a249fe4b81b7ea,65d6bb0e977760de756971f7,65d6be76979b6efb5b451d06,0.0496,0.0496,0,119,119,35,1,twofour,,,,,,,,,,,,,,,,,,,,,,,,,,,,,,,,,,,,,,,,,,,,,,,,,,,,,,,,,,,,,,,,,,,,,,,,,,,,,,,,,,,,,,,,,,,,,,,,,,,,,,,,,,,,,,,,,,,,,,,,,,,,,,,,,,,,,,,,,
,,615ed775a1a249fe4b81b7ea,2024-02-22_05h25.12.886,kallum_motion_pilot,2023.2.2,Win32,60.24096386,615ed775a1a249fe4b81b7ea,65d6bb0e977760de756971f7,65d6be76979b6efb5b451d06,0.0498,0.0498,0,120,120,84,1,sevenfive,,,,,,,,,,,,,,,,,,,,,,,,,,,,,,,,,,,,,,,,,,,,,,,,,,,,,,,,,,,,,,,,,,,,,,,,,,,,,,,,,,,,,,,,,,,,,,,,,,,,,,,,,,,,,,,,,,,,,,,,,,,,,,,,,,,,,,,,,
,,615ed775a1a249fe4b81b7ea,2024-02-22_05h25.12.886,kallum_motion_pilot,2023.2.2,Win32,60.24096386,615ed775a1a249fe4b81b7ea,65d6bb0e977760de756971f7,65d6be76979b6efb5b451d06,0.0499,0.0499,0,121,121,73,1,onethree,,,,,,,,,,,,,,,,,,,,,,,,,,,,,,,,,,,,,,,,,,,,,,,,,,,,,,,,,,,,,,,,,,,,,,,,,,,,,,,,,,,,,,,,,,,,,,,,,,,,,,,,,,,,,,,,,,,,,,,,,,,,,,,,,,,,,,,,,
,,615ed775a1a249fe4b81b7ea,2024-02-22_05h25.12.886,kallum_motion_pilot,2023.2.2,Win32,60.24096386,615ed775a1a249fe4b81b7ea,65d6bb0e977760de756971f7,65d6be76979b6efb5b451d06,0.05,0.05,0,122,122,43,1,twofour,,,,,,,,,,,,,,,,,,,,,,,,,,,,,,,,,,,,,,,,,,,,,,,,,,,,,,,,,,,,,,,,,,,,,,,,,,,,,,,,,,,,,,,,,,,,,,,,,,,,,,,,,,,,,,,,,,,,,,,,,,,,,,,,,,,,,,,,,
,,615ed775a1a249fe4b81b7ea,2024-02-22_05h25.12.886,kallum_motion_pilot,2023.2.2,Win32,60.24096386,615ed775a1a249fe4b81b7ea,65d6bb0e977760de756971f7,65d6be76979b6efb5b451d06,0.0501,0.0502,0,123,123,69,1,threefour,,,,,,,,,,,,,,,,,,,,,,,,,,,,,,,,,,,,,,,,,,,,,,,,,,,,,,,,,,,,,,,,,,,,,,,,,,,,,,,,,,,,,,,,,,,,,,,,,,,,,,,,,,,,,,,,,,,,,,,,,,,,,,,,,,,,,,,,,
,,615ed775a1a249fe4b81b7ea,2024-02-22_05h25.12.886,kallum_motion_pilot,2023.2.2,Win32,60.24096386,615ed775a1a249fe4b81b7ea,65d6bb0e977760de756971f7,65d6be76979b6efb5b451d06,0.0503,0.0503,0,124,124,9,1,onethree,,,,,,,,,,,,,,,,,,,,,,,,,,,,,,,,,,,,,,,,,,,,,,,,,,,,,,,,,,,,,,,,,,,,,,,,,,,,,,,,,,,,,,,,,,,,,,,,,,,,,,,,,,,,,,,,,,,,,,,,,,,,,,,,,,,,,,,,,
,,615ed775a1a249fe4b81b7ea,2024-02-22_05h25.12.886,kallum_motion_pilot,2023.2.2,Win32,60.24096386,615ed775a1a249fe4b81b7ea,65d6bb0e977760de756971f7,65d6be76979b6efb5b451d06,0.0504,0.0504,0,125,125,125,1,seveneight,,,,,,,,,,,,,,,,,,,,,,,,,,,,,,,,,,,,,,,,,,,,,,,,,,,,,,,,,,,,,,,,,,,,,,,,,,,,,,,,,,,,,,,,,,,,,,,,,,,,,,,,,,,,,,,,,,,,,,,,,,,,,,,,,,,,,,,,,
,,615ed775a1a249fe4b81b7ea,2024-02-22_05h25.12.886,kallum_motion_pilot,2023.2.2,Win32,60.24096386,615ed775a1a249fe4b81b7ea,65d6bb0e977760de756971f7,65d6be76979b6efb5b451d06,0.0505,0.0506,0,126,126,143,1,eightseven,,,,,,,,,,,,,,,,,,,,,,,,,,,,,,,,,,,,,,,,,,,,,,,,,,,,,,,,,,,,,,,,,,,,,,,,,,,,,,,,,,,,,,,,,,,,,,,,,,,,,,,,,,,,,,,,,,,,,,,,,,,,,,,,,,,,,,,,,
,,615ed775a1a249fe4b81b7ea,2024-02-22_05h25.12.886,kallum_motion_pilot,2023.2.2,Win32,60.24096386,615ed775a1a249fe4b81b7ea,65d6bb0e977760de756971f7,65d6be76979b6efb5b451d06,0.0506,0.0507,0,127,127,64,1,onetwo,,,,,,,,,,,,,,,,,,,,,,,,,,,,,,,,,,,,,,,,,,,,,,,,,,,,,,,,,,,,,,,,,,,,,,,,,,,,,,,,,,,,,,,,,,,,,,,,,,,,,,,,,,,,,,,,,,,,,,,,,,,,,,,,,,,,,,,,,
,,615ed775a1a249fe4b81b7ea,2024-02-22_05h25.12.886,kallum_motion_pilot,2023.2.2,Win32,60.24096386,615ed775a1a249fe4b81b7ea,65d6bb0e977760de756971f7,65d6be76979b6efb5b451d06,0.0507,0.0507,0,128,128,34,1,twoone,,,,,,,,,,,,,,,,,,,,,,,,,,,,,,,,,,,,,,,,,,,,,,,,,,,,,,,,,,,,,,,,,,,,,,,,,,,,,,,,,,,,,,,,,,,,,,,,,,,,,,,,,,,,,,,,,,,,,,,,,,,,,,,,,,,,,,,,,
,,615ed775a1a249fe4b81b7ea,2024-02-22_05h25.12.886,kallum_motion_pilot,2023.2.2,Win32,60.24096386,615ed775a1a249fe4b81b7ea,65d6bb0e977760de756971f7,65d6be76979b6efb5b451d06,0.0508,0.0509,0,129,129,120,1,fivesix,,,,,,,,,,,,,,,,,,,,,,,,,,,,,,,,,,,,,,,,,,,,,,,,,,,,,,,,,,,,,,,,,,,,,,,,,,,,,,,,,,,,,,,,,,,,,,,,,,,,,,,,,,,,,,,,,,,,,,,,,,,,,,,,,,,,,,,,,
,,615ed775a1a249fe4b81b7ea,2024-02-22_05h25.12.886,kallum_motion_pilot,2023.2.2,Win32,60.24096386,615ed775a1a249fe4b81b7ea,65d6bb0e977760de756971f7,65d6be76979b6efb5b451d06,0.051,0.051,0,130,130,18,1,twoone,,,,,,,,,,,,,,,,,,,,,,,,,,,,,,,,,,,,,,,,,,,,,,,,,,,,,,,,,,,,,,,,,,,,,,,,,,,,,,,,,,,,,,,,,,,,,,,,,,,,,,,,,,,,,,,,,,,,,,,,,,,,,,,,,,,,,,,,,
,,615ed775a1a249fe4b81b7ea,2024-02-22_05h25.12.886,kallum_motion_pilot,2023.2.2,Win32,60.24096386,615ed775a1a249fe4b81b7ea,65d6bb0e977760de756971f7,65d6be76979b6efb5b451d06,0.0511,0.0511,0,131,131,3,1,twofour,,,,,,,,,,,,,,,,,,,,,,,,,,,,,,,,,,,,,,,,,,,,,,,,,,,,,,,,,,,,,,,,,,,,,,,,,,,,,,,,,,,,,,,,,,,,,,,,,,,,,,,,,,,,,,,,,,,,,,,,,,,,,,,,,,,,,,,,,
,,615ed775a1a249fe4b81b7ea,2024-02-22_05h25.12.886,kallum_motion_pilot,2023.2.2,Win32,60.24096386,615ed775a1a249fe4b81b7ea,65d6bb0e977760de756971f7,65d6be76979b6efb5b451d06,0.0512,0.0513,0,132,132,28,1,threeone,,,,,,,,,,,,,,,,,,,,,,,,,,,,,,,,,,,,,,,,,,,,,,,,,,,,,,,,,,,,,,,,,,,,,,,,,,,,,,,,,,,,,,,,,,,,,,,,,,,,,,,,,,,,,,,,,,,,,,,,,,,,,,,,,,,,,,,,,
,,615ed775a1a249fe4b81b7ea,2024-02-22_05h25.12.886,kallum_motion_pilot,2023.2.2,Win32,60.24096386,615ed775a1a249fe4b81b7ea,65d6bb0e977760de756971f7,65d6be76979b6efb5b451d06,0.0514,0.0514,0,133,133,14,1,fourtwo,,,,,,,,,,,,,,,,,,,,,,,,,,,,,,,,,,,,,,,,,,,,,,,,,,,,,,,,,,,,,,,,,,,,,,,,,,,,,,,,,,,,,,,,,,,,,,,,,,,,,,,,,,,,,,,,,,,,,,,,,,,,,,,,,,,,,,,,,
,,615ed775a1a249fe4b81b7ea,2024-02-22_05h25.12.886,kallum_motion_pilot,2023.2.2,Win32,60.24096386,615ed775a1a249fe4b81b7ea,65d6bb0e977760de756971f7,65d6be76979b6efb5b451d06,0.0514,0.0515,0,134,134,16,1,onetwo,,,,,,,,,,,,,,,,,,,,,,,,,,,,,,,,,,,,,,,,,,,,,,,,,,,,,,,,,,,,,,,,,,,,,,,,,,,,,,,,,,,,,,,,,,,,,,,,,,,,,,,,,,,,,,,,,,,,,,,,,,,,,,,,,,,,,,,,,
,,615ed775a1a249fe4b81b7ea,2024-02-22_05h25.12.886,kallum_motion_pilot,2023.2.2,Win32,60.24096386,615ed775a1a249fe4b81b7ea,65d6bb0e977760de756971f7,65d6be76979b6efb5b451d06,0.0515,0.0516,0,135,135,123,1,sixeight,,,,,,,,,,,,,,,,,,,,,,,,,,,,,,,,,,,,,,,,,,,,,,,,,,,,,,,,,,,,,,,,,,,,,,,,,,,,,,,,,,,,,,,,,,,,,,,,,,,,,,,,,,,,,,,,,,,,,,,,,,,,,,,,,,,,,,,,,
,,615ed775a1a249fe4b81b7ea,2024-02-22_05h25.12.886,kallum_motion_pilot,2023.2.2,Win32,60.24096386,615ed775a1a249fe4b81b7ea,65d6bb0e977760de756971f7,65d6be76979b6efb5b451d06,0.0517,0.0517,0,136,136,10,1,twoone,,,,,,,,,,,,,,,,,,,,,,,,,,,,,,,,,,,,,,,,,,,,,,,,,,,,,,,,,,,,,,,,,,,,,,,,,,,,,,,,,,,,,,,,,,,,,,,,,,,,,,,,,,,,,,,,,,,,,,,,,,,,,,,,,,,,,,,,,
,,615ed775a1a249fe4b81b7ea,2024-02-22_05h25.12.886,kallum_motion_pilot,2023.2.2,Win32,60.24096386,615ed775a1a249fe4b81b7ea,65d6bb0e977760de756971f7,65d6be76979b6efb5b451d06,0.0518,0.0519,0,137,137,57,1,onethree,,,,,,,,,,,,,,,,,,,,,,,,,,,,,,,,,,,,,,,,,,,,,,,,,,,,,,,,,,,,,,,,,,,,,,,,,,,,,,,,,,,,,,,,,,,,,,,,,,,,,,,,,,,,,,,,,,,,,,,,,,,,,,,,,,,,,,,,,
,,615ed775a1a249fe4b81b7ea,2024-02-22_05h25.12.886,kallum_motion_pilot,2023.2.2,Win32,60.24096386,615ed775a1a249fe4b81b7ea,65d6bb0e977760de756971f7,65d6be76979b6efb5b451d06,0.052,0.052,0,138,138,68,1,threeone,,,,,,,,,,,,,,,,,,,,,,,,,,,,,,,,,,,,,,,,,,,,,,,,,,,,,,,,,,,,,,,,,,,,,,,,,,,,,,,,,,,,,,,,,,,,,,,,,,,,,,,,,,,,,,,,,,,,,,,,,,,,,,,,,,,,,,,,,
,,615ed775a1a249fe4b81b7ea,2024-02-22_05h25.12.886,kallum_motion_pilot,2023.2.2,Win32,60.24096386,615ed775a1a249fe4b81b7ea,65d6bb0e977760de756971f7,65d6be76979b6efb5b451d06,0.0521,0.0522,0,139,139,96,1,fivesix,,,,,,,,,,,,,,,,,,,,,,,,,,,,,,,,,,,,,,,,,,,,,,,,,,,,,,,,,,,,,,,,,,,,,,,,,,,,,,,,,,,,,,,,,,,,,,,,,,,,,,,,,,,,,,,,,,,,,,,,,,,,,,,,,,,,,,,,,
,,615ed775a1a249fe4b81b7ea,2024-02-22_05h25.12.886,kallum_motion_pilot,2023.2.2,Win32,60.24096386,615ed775a1a249fe4b81b7ea,65d6bb0e977760de756971f7,65d6be76979b6efb5b451d06,0.0522,0.0523,0,140,140,56,1,onetwo,,,,,,,,,,,,,,,,,,,,,,,,,,,,,,,,,,,,,,,,,,,,,,,,,,,,,,,,,,,,,,,,,,,,,,,,,,,,,,,,,,,,,,,,,,,,,,,,,,,,,,,,,,,,,,,,,,,,,,,,,,,,,,,,,,,,,,,,,
,,615ed775a1a249fe4b81b7ea,2024-02-22_05h25.12.886,kallum_motion_pilot,2023.2.2,Win32,60.24096386,615ed775a1a249fe4b81b7ea,65d6bb0e977760de756971f7,65d6be76979b6efb5b451d06,0.0524,0.0525,0,141,141,61,1,threefour,,,,,,,,,,,,,,,,,,,,,,,,,,,,,,,,,,,,,,,,,,,,,,,,,,,,,,,,,,,,,,,,,,,,,,,,,,,,,,,,,,,,,,,,,,,,,,,,,,,,,,,,,,,,,,,,,,,,,,,,,,,,,,,,,,,,,,,,,
,,615ed775a1a249fe4b81b7ea,2024-02-22_05h25.12.886,kallum_motion_pilot,2023.2.2,Win32,60.24096386,615ed775a1a249fe4b81b7ea,65d6bb0e977760de756971f7,65d6be76979b6efb5b451d06,0.0525,0.0526,0,142,142,98,1,sixfive,,,,,,,,,,,,,,,,,,,,,,,,,,,,,,,,,,,,,,,,,,,,,,,,,,,,,,,,,,,,,,,,,,,,,,,,,,,,,,,,,,,,,,,,,,,,,,,,,,,,,,,,,,,,,,,,,,,,,,,,,,,,,,,,,,,,,,,,,
,,615ed775a1a249fe4b81b7ea,2024-02-22_05h25.12.886,kallum_motion_pilot,2023.2.2,Win32,60.24096386,615ed775a1a249fe4b81b7ea,65d6bb0e977760de756971f7,65d6be76979b6efb5b451d06,0.0526,0.0527,0,143,143,104,1,fivesix,,,,,,,,,,,,,,,,,,,,,,,,,,,,,,,,,,,,,,,,,,,,,,,,,,,,,,,,,,,,,,,,,,,,,,,,,,,,,,,,,,,,,,,,,,,,,,,,,,,,,,,,,,,,,,,,,,,,,,,,,,,,,,,,,,,,,,,,,
,,615ed775a1a249fe4b81b7ea,2024-02-22_05h25.12.886,kallum_motion_pilot,2023.2.2,Win32,60.24096386,615ed775a1a249fe4b81b7ea,65d6bb0e977760de756971f7,65d6be76979b6efb5b451d06,0.0528,0.0528,0,144,144,108,1,sevenfive,,,,,,,,,,,,,,,,,,,,,,,,,,,,,,,,,,,,,,,,,,,,,,,,,,,,,,,,,,,,,,,,,,,,,,,,,,,,,,,,,,,,,,,,,,,,,,,,,,,,,,,,,,,,,,,,,,,,,,,,,,,,,,,,,,,,,,,,,
,,615ed775a1a249fe4b81b7ea,2024-02-22_05h25.12.886,kallum_motion_pilot,2023.2.2,Win32,60.24096386,615ed775a1a249fe4b81b7ea,65d6bb0e977760de756971f7,65d6be76979b6efb5b451d06,0.0529,0.0529,0,145,145,80,1,fivesix,,,,,,,,,,,,,,,,,,,,,,,,,,,,,,,,,,,,,,,,,,,,,,,,,,,,,,,,,,,,,,,,,,,,,,,,,,,,,,,,,,,,,,,,,,,,,,,,,,,,,,,,,,,,,,,,,,,,,,,,,,,,,,,,,,,,,,,,,
,,615ed775a1a249fe4b81b7ea,2024-02-22_05h25.12.886,kallum_motion_pilot,2023.2.2,Win32,60.24096386,615ed775a1a249fe4b81b7ea,65d6bb0e977760de756971f7,65d6be76979b6efb5b451d06,0.053,0.053,0,146,146,114,1,sixfive,,,,,,,,,,,,,,,,,,,,,,,,,,,,,,,,,,,,,,,,,,,,,,,,,,,,,,,,,,,,,,,,,,,,,,,,,,,,,,,,,,,,,,,,,,,,,,,,,,,,,,,,,,,,,,,,,,,,,,,,,,,,,,,,,,,,,,,,,
,,615ed775a1a249fe4b81b7ea,2024-02-22_05h25.12.886,kallum_motion_pilot,2023.2.2,Win32,60.24096386,615ed775a1a249fe4b81b7ea,65d6bb0e977760de756971f7,65d6be76979b6efb5b451d06,0.0531,0.0532,0,147,147,55,1,fourthree,,,,,,,,,,,,,,,,,,,,,,,,,,,,,,,,,,,,,,,,,,,,,,,,,,,,,,,,,,,,,,,,,,,,,,,,,,,,,,,,,,,,,,,,,,,,,,,,,,,,,,,,,,,,,,,,,,,,,,,,,,,,,,,,,,,,,,,,,
,,615ed775a1a249fe4b81b7ea,2024-02-22_05h25.12.886,kallum_motion_pilot,2023.2.2,Win32,60.24096386,615ed775a1a249fe4b81b7ea,65d6bb0e977760de756971f7,65d6be76979b6efb5b451d06,0.0532,0.0533,0,148,148,154,1,sixfive,,,,,,,,,,,,,,,,,,,,,,,,,,,,,,,,,,,,,,,,,,,,,,,,,,,,,,,,,,,,,,,,,,,,,,,,,,,,,,,,,,,,,,,,,,,,,,,,,,,,,,,,,,,,,,,,,,,,,,,,,,,,,,,,,,,,,,,,,
,,615ed775a1a249fe4b81b7ea,2024-02-22_05h25.12.886,kallum_motion_pilot,2023.2.2,Win32,60.24096386,615ed775a1a249fe4b81b7ea,65d6bb0e977760de756971f7,65d6be76979b6efb5b451d06,0.0534,0.0534,0,149,149,26,1,twoone,,,,,,,,,,,,,,,,,,,,,,,,,,,,,,,,,,,,,,,,,,,,,,,,,,,,,,,,,,,,,,,,,,,,,,,,,,,,,,,,,,,,,,,,,,,,,,,,,,,,,,,,,,,,,,,,,,,,,,,,,,,,,,,,,,,,,,,,,
,,615ed775a1a249fe4b81b7ea,2024-02-22_05h25.12.886,kallum_motion_pilot,2023.2.2,Win32,60.24096386,615ed775a1a249fe4b81b7ea,65d6bb0e977760de756971f7,65d6be76979b6efb5b451d06,0.0535,0.0535,0,150,150,19,1,twofour,,,,,,,,,,,,,,,,,,,,,,,,,,,,,,,,,,,,,,,,,,,,,,,,,,,,,,,,,,,,,,,,,,,,,,,,,,,,,,,,,,,,,,,,,,,,,,,,,,,,,,,,,,,,,,,,,,,,,,,,,,,,,,,,,,,,,,,,,
,,615ed775a1a249fe4b81b7ea,2024-02-22_05h25.12.886,kallum_motion_pilot,2023.2.2,Win32,60.24096386,615ed775a1a249fe4b81b7ea,65d6bb0e977760de756971f7,65d6be76979b6efb5b451d06,0.0536,0.0537,0,151,151,60,1,threeone,,,,,,,,,,,,,,,,,,,,,,,,,,,,,,,,,,,,,,,,,,,,,,,,,,,,,,,,,,,,,,,,,,,,,,,,,,,,,,,,,,,,,,,,,,,,,,,,,,,,,,,,,,,,,,,,,,,,,,,,,,,,,,,,,,,,,,,,,
,,615ed775a1a249fe4b81b7ea,2024-02-22_05h25.12.886,kallum_motion_pilot,2023.2.2,Win32,60.24096386,615ed775a1a249fe4b81b7ea,65d6bb0e977760de756971f7,65d6be76979b6efb5b451d06,0.0537,0.0537,0,152,152,103,1,eightseven,,,,,,,,,,,,,,,,,,,,,,,,,,,,,,,,,,,,,,,,,,,,,,,,,,,,,,,,,,,,,,,,,,,,,,,,,,,,,,,,,,,,,,,,,,,,,,,,,,,,,,,,,,,,,,,,,,,,,,,,,,,,,,,,,,,,,,,,,
,,615ed775a1a249fe4b81b7ea,2024-02-22_05h25.12.886,kallum_motion_pilot,2023.2.2,Win32,60.24096386,615ed775a1a249fe4b81b7ea,65d6bb0e977760de756971f7,65d6be76979b6efb5b451d06,0.0539,0.0539,0,153,153,24,1,onetwo,,,,,,,,,,,,,,,,,,,,,,,,,,,,,,,,,,,,,,,,,,,,,,,,,,,,,,,,,,,,,,,,,,,,,,,,,,,,,,,,,,,,,,,,,,,,,,,,,,,,,,,,,,,,,,,,,,,,,,,,,,,,,,,,,,,,,,,,,
,,615ed775a1a249fe4b81b7ea,2024-02-22_05h25.12.886,kallum_motion_pilot,2023.2.2,Win32,60.24096386,615ed775a1a249fe4b81b7ea,65d6bb0e977760de756971f7,65d6be76979b6efb5b451d06,0.0539,0.054,0,154,154,131,1,sixeight,,,,,,,,,,,,,,,,,,,,,,,,,,,,,,,,,,,,,,,,,,,,,,,,,,,,,,,,,,,,,,,,,,,,,,,,,,,,,,,,,,,,,,,,,,,,,,,,,,,,,,,,,,,,,,,,,,,,,,,,,,,,,,,,,,,,,,,,,
,,615ed775a1a249fe4b81b7ea,2024-02-22_05h25.12.886,kallum_motion_pilot,2023.2.2,Win32,60.24096386,615ed775a1a249fe4b81b7ea,65d6bb0e977760de756971f7,65d6be76979b6efb5b451d06,0.054,0.0541,0,155,155,70,1,fourtwo,,,,,,,,,,,,,,,,,,,,,,,,,,,,,,,,,,,,,,,,,,,,,,,,,,,,,,,,,,,,,,,,,,,,,,,,,,,,,,,,,,,,,,,,,,,,,,,,,,,,,,,,,,,,,,,,,,,,,,,,,,,,,,,,,,,,,,,,,
,,615ed775a1a249fe4b81b7ea,2024-02-22_05h25.12.886,kallum_motion_pilot,2023.2.2,Win32,60.24096386,615ed775a1a249fe4b81b7ea,65d6bb0e977760de756971f7,65d6be76979b6efb5b451d06,0.0541,0.0542,0,156,156,144,1,fivesix,,,,,,,,,,,,,,,,,,,,,,,,,,,,,,,,,,,,,,,,,,,,,,,,,,,,,,,,,,,,,,,,,,,,,,,,,,,,,,,,,,,,,,,,,,,,,,,,,,,,,,,,,,,,,,,,,,,,,,,,,,,,,,,,,,,,,,,,,
,,615ed775a1a249fe4b81b7ea,2024-02-22_05h25.12.886,kallum_motion_pilot,2023.2.2,Win32,60.24096386,615ed775a1a249fe4b81b7ea,65d6bb0e977760de756971f7,65d6be76979b6efb5b451d06,0.0544,0.0544,0,157,157,47,1,fourthree,,,,,,,,,,,,,,,,,,,,,,,,,,,,,,,,,,,,,,,,,,,,,,,,,,,,,,,,,,,,,,,,,,,,,,,,,,,,,,,,,,,,,,,,,,,,,,,,,,,,,,,,,,,,,,,,,,,,,,,,,,,,,,,,,,,,,,,,,
,,615ed775a1a249fe4b81b7ea,2024-02-22_05h25.12.886,kallum_motion_pilot,2023.2.2,Win32,60.24096386,615ed775a1a249fe4b81b7ea,65d6bb0e977760de756971f7,65d6be76979b6efb5b451d06,0.0545,0.0545,0,158,158,65,1,onethree,,,,,,,,,,,,,,,,,,,,,,,,,,,,,,,,,,,,,,,,,,,,,,,,,,,,,,,,,,,,,,,,,,,,,,,,,,,,,,,,,,,,,,,,,,,,,,,,,,,,,,,,,,,,,,,,,,,,,,,,,,,,,,,,,,,,,,,,,
,,615ed775a1a249fe4b81b7ea,2024-02-22_05h25.12.886,kallum_motion_pilot,2023.2.2,Win32,60.24096386,615ed775a1a249fe4b81b7ea,65d6bb0e977760de756971f7,65d6be76979b6efb5b451d06,0.0545,0.0546,0,159,159,91,1,sixeight,,,,,,,,,,,,,,,,,,,,,,,,,,,,,,,,,,,,,,,,,,,,,,,,,,,,,,,,,,,,,,,,,,,,,,,,,,,,,,,,,,,,,,,,,,,,,,,,,,,,,,,,,,,,,,,,,,,,,,,,,,,,,,,,,,,,,,,,,
,,615ed775a1a249fe4b81b7ea,2024-02-22_05h25.12.886,kallum_motion_pilot,2023.2.2,Win32,60.24096386,615ed775a1a249fe4b81b7ea,65d6bb0e977760de756971f7,65d6be76979b6efb5b451d06,0.0547,0.0547,0,160,160,71,1,fourthree,,,,,,,,,,,,,,,,,,,,,,,,,,,,,,,,,,,,,,,,,,,,,,,,,,,,,,,,,,,,,,,,,,,,,,,,,,,,,,,,,,,,,,,,,,,,,,,,,,,,,,,,,,,,,,,,,,,,,,,,,,,,,,,,,,,,,,,,,
,,615ed775a1a249fe4b81b7ea,2024-02-22_05h25.12.886,kallum_motion_pilot,2023.2.2,Win32,60.24096386,615ed775a1a249fe4b81b7ea,65d6bb0e977760de756971f7,65d6be76979b6efb5b451d06,0.0548,0.0548,0,161,161,52,1,threeone,,,,,,,,,,,,,,,,,,,,,,,,,,,,,,,,,,,,,,,,,,,,,,,,,,,,,,,,,,,,,,,,,,,,,,,,,,,,,,,,,,,,,,,,,,,,,,,,,,,,,,,,,,,,,,,,,,,,,,,,,,,,,,,,,,,,,,,,,
,,615ed775a1a249fe4b81b7ea,2024-02-22_05h25.12.886,kallum_motion_pilot,2023.2.2,Win32,60.24096386,615ed775a1a249fe4b81b7ea,65d6bb0e977760de756971f7,65d6be76979b6efb5b451d06,0.0549,0.0549,1,0,162,29,1,threefour,,,,,,,,,,,,,,,,,,,,,,,,,,,,,,,,,,,,,,,,,,,,,,,,,,,,,,,,,,,,,,,,,,,,,,,,,,,,,,,,,,,,,,,,,,,,,,,,,,,,,,,,,,,,,,,,,,,,,,,,,,,,,,,,,,,,,,,,,
,,615ed775a1a249fe4b81b7ea,2024-02-22_05h25.12.886,kallum_motion_pilot,2023.2.2,Win32,60.24096386,615ed775a1a249fe4b81b7ea,65d6bb0e977760de756971f7,65d6be76979b6efb5b451d06,0.0551,0.0551,1,1,163,86,1,eightsix,,,,,,,,,,,,,,,,,,,,,,,,,,,,,,,,,,,,,,,,,,,,,,,,,,,,,,,,,,,,,,,,,,,,,,,,,,,,,,,,,,,,,,,,,,,,,,,,,,,,,,,,,,,,,,,,,,,,,,,,,,,,,,,,,,,,,,,,,
,,615ed775a1a249fe4b81b7ea,2024-02-22_05h25.12.886,kallum_motion_pilot,2023.2.2,Win32,60.24096386,615ed775a1a249fe4b81b7ea,65d6bb0e977760de756971f7,65d6be76979b6efb5b451d06,0.0552,0.0552,1,2,164,111,1,eightseven,,,,,,,,,,,,,,,,,,,,,,,,,,,,,,,,,,,,,,,,,,,,,,,,,,,,,,,,,,,,,,,,,,,,,,,,,,,,,,,,,,,,,,,,,,,,,,,,,,,,,,,,,,,,,,,,,,,,,,,,,,,,,,,,,,,,,,,,,
,,615ed775a1a249fe4b81b7ea,2024-02-22_05h25.12.886,kallum_motion_pilot,2023.2.2,Win32,60.24096386,615ed775a1a249fe4b81b7ea,65d6bb0e977760de756971f7,65d6be76979b6efb5b451d06,0.0553,0.0553,1,3,165,150,1,eightsix,,,,,,,,,,,,,,,,,,,,,,,,,,,,,,,,,,,,,,,,,,,,,,,,,,,,,,,,,,,,,,,,,,,,,,,,,,,,,,,,,,,,,,,,,,,,,,,,,,,,,,,,,,,,,,,,,,,,,,,,,,,,,,,,,,,,,,,,,
,,615ed775a1a249fe4b81b7ea,2024-02-22_05h25.12.886,kallum_motion_pilot,2023.2.2,Win32,60.24096386,615ed775a1a249fe4b81b7ea,65d6bb0e977760de756971f7,65d6be76979b6efb5b451d06,0.0554,0.0555,1,4,166,85,1,seveneight,,,,,,,,,,,,,,,,,,,,,,,,,,,,,,,,,,,,,,,,,,,,,,,,,,,,,,,,,,,,,,,,,,,,,,,,,,,,,,,,,,,,,,,,,,,,,,,,,,,,,,,,,,,,,,,,,,,,,,,,,,,,,,,,,,,,,,,,,
,,615ed775a1a249fe4b81b7ea,2024-02-22_05h25.12.886,kallum_motion_pilot,2023.2.2,Win32,60.24096386,615ed775a1a249fe4b81b7ea,65d6bb0e977760de756971f7,65d6be76979b6efb5b451d06,0.0556,0.0556,1,5,167,141,1,seveneight,,,,,,,,,,,,,,,,,,,,,,,,,,,,,,,,,,,,,,,,,,,,,,,,,,,,,,,,,,,,,,,,,,,,,,,,,,,,,,,,,,,,,,,,,,,,,,,,,,,,,,,,,,,,,,,,,,,,,,,,,,,,,,,,,,,,,,,,,
,,615ed775a1a249fe4b81b7ea,2024-02-22_05h25.12.886,kallum_motion_pilot,2023.2.2,Win32,60.24096386,615ed775a1a249fe4b81b7ea,65d6bb0e977760de756971f7,65d6be76979b6efb5b451d06,0.0556,0.0558,1,6,168,136,1,fivesix,,,,,,,,,,,,,,,,,,,,,,,,,,,,,,,,,,,,,,,,,,,,,,,,,,,,,,,,,,,,,,,,,,,,,,,,,,,,,,,,,,,,,,,,,,,,,,,,,,,,,,,,,,,,,,,,,,,,,,,,,,,,,,,,,,,,,,,,,
,,615ed775a1a249fe4b81b7ea,2024-02-22_05h25.12.886,kallum_motion_pilot,2023.2.2,Win32,60.24096386,615ed775a1a249fe4b81b7ea,65d6bb0e977760de756971f7,65d6be76979b6efb5b451d06,0.0558,0.0558,1,7,169,45,1,threefour,,,,,,,,,,,,,,,,,,,,,,,,,,,,,,,,,,,,,,,,,,,,,,,,,,,,,,,,,,,,,,,,,,,,,,,,,,,,,,,,,,,,,,,,,,,,,,,,,,,,,,,,,,,,,,,,,,,,,,,,,,,,,,,,,,,,,,,,,
,,615ed775a1a249fe4b81b7ea,2024-02-22_05h25.12.886,kallum_motion_pilot,2023.2.2,Win32,60.24096386,615ed775a1a249fe4b81b7ea,65d6bb0e977760de756971f7,65d6be76979b6efb5b451d06,0.0559,0.056,1,8,170,22,1,fourtwo,,,,,,,,,,,,,,,,,,,,,,,,,,,,,,,,,,,,,,,,,,,,,,,,,,,,,,,,,,,,,,,,,,,,,,,,,,,,,,,,,,,,,,,,,,,,,,,,,,,,,,,,,,,,,,,,,,,,,,,,,,,,,,,,,,,,,,,,,
,,615ed775a1a249fe4b81b7ea,2024-02-22_05h25.12.886,kallum_motion_pilot,2023.2.2,Win32,60.24096386,615ed775a1a249fe4b81b7ea,65d6bb0e977760de756971f7,65d6be76979b6efb5b451d06,0.056,0.056,1,9,171,53,1,threefour,,,,,,,,,,,,,,,,,,,,,,,,,,,,,,,,,,,,,,,,,,,,,,,,,,,,,,,,,,,,,,,,,,,,,,,,,,,,,,,,,,,,,,,,,,,,,,,,,,,,,,,,,,,,,,,,,,,,,,,,,,,,,,,,,,,,,,,,,
,,615ed775a1a249fe4b81b7ea,2024-02-22_05h25.12.886,kallum_motion_pilot,2023.2.2,Win32,60.24096386,615ed775a1a249fe4b81b7ea,65d6bb0e977760de756971f7,65d6be76979b6efb5b451d06,0.0561,0.0562,1,10,172,96,1,fivesix,,,,,,,,,,,,,,,,,,,,,,,,,,,,,,,,,,,,,,,,,,,,,,,,,,,,,,,,,,,,,,,,,,,,,,,,,,,,,,,,,,,,,,,,,,,,,,,,,,,,,,,,,,,,,,,,,,,,,,,,,,,,,,,,,,,,,,,,,
,,615ed775a1a249fe4b81b7ea,2024-02-22_05h25.12.886,kallum_motion_pilot,2023.2.2,Win32,60.24096386,615ed775a1a249fe4b81b7ea,65d6bb0e977760de756971f7,65d6be76979b6efb5b451d06,0.0563,0.0563,1,11,173,138,1,sixfive,,,,,,,,,,,,,,,,,,,,,,,,,,,,,,,,,,,,,,,,,,,,,,,,,,,,,,,,,,,,,,,,,,,,,,,,,,,,,,,,,,,,,,,,,,,,,,,,,,,,,,,,,,,,,,,,,,,,,,,,,,,,,,,,,,,,,,,,,
,,615ed775a1a249fe4b81b7ea,2024-02-22_05h25.12.886,kallum_motion_pilot,2023.2.2,Win32,60.24096386,615ed775a1a249fe4b81b7ea,65d6bb0e977760de756971f7,65d6be76979b6efb5b451d06,0.0564,0.0564,1,12,174,28,1,threeone,,,,,,,,,,,,,,,,,,,,,,,,,,,,,,,,,,,,,,,,,,,,,,,,,,,,,,,,,,,,,,,,,,,,,,,,,,,,,,,,,,,,,,,,,,,,,,,,,,,,,,,,,,,,,,,,,,,,,,,,,,,,,,,,,,,,,,,,,
,,615ed775a1a249fe4b81b7ea,2024-02-22_05h25.12.886,kallum_motion_pilot,2023.2.2,Win32,60.24096386,615ed775a1a249fe4b81b7ea,65d6bb0e977760de756971f7,65d6be76979b6efb5b451d06,0.0565,0.0565,1,13,175,142,1,eightsix,,,,,,,,,,,,,,,,,,,,,,,,,,,,,,,,,,,,,,,,,,,,,,,,,,,,,,,,,,,,,,,,,,,,,,,,,,,,,,,,,,,,,,,,,,,,,,,,,,,,,,,,,,,,,,,,,,,,,,,,,,,,,,,,,,,,,,,,,
,,615ed775a1a249fe4b81b7ea,2024-02-22_05h25.12.886,kallum_motion_pilot,2023.2.2,Win32,60.24096386,615ed775a1a249fe4b81b7ea,65d6bb0e977760de756971f7,65d6be76979b6efb5b451d06,0.0566,0.0567,1,14,176,20,1,threeone,,,,,,,,,,,,,,,,,,,,,,,,,,,,,,,,,,,,,,,,,,,,,,,,,,,,,,,,,,,,,,,,,,,,,,,,,,,,,,,,,,,,,,,,,,,,,,,,,,,,,,,,,,,,,,,,,,,,,,,,,,,,,,,,,,,,,,,,,
,,615ed775a1a249fe4b81b7ea,2024-02-22_05h25.12.886,kallum_motion_pilot,2023.2.2,Win32,60.24096386,615ed775a1a249fe4b81b7ea,65d6bb0e977760de756971f7,65d6be76979b6efb5b451d06,0.0567,0.0568,1,15,177,66,1,twoone,,,,,,,,,,,,,,,,,,,,,,,,,,,,,,,,,,,,,,,,,,,,,,,,,,,,,,,,,,,,,,,,,,,,,,,,,,,,,,,,,,,,,,,,,,,,,,,,,,,,,,,,,,,,,,,,,,,,,,,,,,,,,,,,,,,,,,,,,
,,615ed775a1a249fe4b81b7ea,2024-02-22_05h25.12.886,kallum_motion_pilot,2023.2.2,Win32,60.24096386,615ed775a1a249fe4b81b7ea,65d6bb0e977760de756971f7,65d6be76979b6efb5b451d06,0.0569,0.0569,1,16,178,17,1,onethree,,,,,,,,,,,,,,,,,,,,,,,,,,,,,,,,,,,,,,,,,,,,,,,,,,,,,,,,,,,,,,,,,,,,,,,,,,,,,,,,,,,,,,,,,,,,,,,,,,,,,,,,,,,,,,,,,,,,,,,,,,,,,,,,,,,,,,,,,
,,615ed775a1a249fe4b81b7ea,2024-02-22_05h25.12.886,kallum_motion_pilot,2023.2.2,Win32,60.24096386,615ed775a1a249fe4b81b7ea,65d6bb0e977760de756971f7,65d6be76979b6efb5b451d06,0.057,0.057,1,17,179,134,1,eightsix,,,,,,,,,,,,,,,,,,,,,,,,,,,,,,,,,,,,,,,,,,,,,,,,,,,,,,,,,,,,,,,,,,,,,,,,,,,,,,,,,,,,,,,,,,,,,,,,,,,,,,,,,,,,,,,,,,,,,,,,,,,,,,,,,,,,,,,,,
,,615ed775a1a249fe4b81b7ea,2024-02-22_05h25.12.886,kallum_motion_pilot,2023.2.2,Win32,60.24096386,615ed775a1a249fe4b81b7ea,65d6bb0e977760de756971f7,65d6be76979b6efb5b451d06,0.0571,0.0572,1,18,180,27,1,twofour,,,,,,,,,,,,,,,,,,,,,,,,,,,,,,,,,,,,,,,,,,,,,,,,,,,,,,,,,,,,,,,,,,,,,,,,,,,,,,,,,,,,,,,,,,,,,,,,,,,,,,,,,,,,,,,,,,,,,,,,,,,,,,,,,,,,,,,,,
,,615ed775a1a249fe4b81b7ea,2024-02-22_05h25.12.886,kallum_motion_pilot,2023.2.2,Win32,60.24096386,615ed775a1a249fe4b81b7ea,65d6bb0e977760de756971f7,65d6be76979b6efb5b451d06,0.0573,0.0573,1,19,181,19,1,twofour,,,,,,,,,,,,,,,,,,,,,,,,,,,,,,,,,,,,,,,,,,,,,,,,,,,,,,,,,,,,,,,,,,,,,,,,,,,,,,,,,,,,,,,,,,,,,,,,,,,,,,,,,,,,,,,,,,,,,,,,,,,,,,,,,,,,,,,,,
,,615ed775a1a249fe4b81b7ea,2024-02-22_05h25.12.886,kallum_motion_pilot,2023.2.2,Win32,60.24096386,615ed775a1a249fe4b81b7ea,65d6bb0e977760de756971f7,65d6be76979b6efb5b451d06,0.0573,0.0574,1,20,182,105,1,fiveseven,,,,,,,,,,,,,,,,,,,,,,,,,,,,,,,,,,,,,,,,,,,,,,,,,,,,,,,,,,,,,,,,,,,,,,,,,,,,,,,,,,,,,,,,,,,,,,,,,,,,,,,,,,,,,,,,,,,,,,,,,,,,,,,,,,,,,,,,,
,,615ed775a1a249fe4b81b7ea,2024-02-22_05h25.12.886,kallum_motion_pilot,2023.2.2,Win32,60.24096386,615ed775a1a249fe4b81b7ea,65d6bb0e977760de756971f7,65d6be76979b6efb5b451d06,0.0575,0.0576,1,21,183,10,1,twoone,,,,,,,,,,,,,,,,,,,,,,,,,,,,,,,,,,,,,,,,,,,,,,,,,,,,,,,,,,,,,,,,,,,,,,,,,,,,,,,,,,,,,,,,,,,,,,,,,,,,,,,,,,,,,,,,,,,,,,,,,,,,,,,,,,,,,,,,,
,,615ed775a1a249fe4b81b7ea,2024-02-22_05h25.12.886,kallum_motion_pilot,2023.2.2,Win32,60.24096386,615ed775a1a249fe4b81b7ea,65d6bb0e977760de756971f7,65d6be76979b6efb5b451d06,0.0576,0.0577,1,22,184,74,1,twoone,,,,,,,,,,,,,,,,,,,,,,,,,,,,,,,,,,,,,,,,,,,,,,,,,,,,,,,,,,,,,,,,,,,,,,,,,,,,,,,,,,,,,,,,,,,,,,,,,,,,,,,,,,,,,,,,,,,,,,,,,,,,,,,,,,,,,,,,,
,,615ed775a1a249fe4b81b7ea,2024-02-22_05h25.12.886,kallum_motion_pilot,2023.2.2,Win32,60.24096386,615ed775a1a249fe4b81b7ea,65d6bb0e977760de756971f7,65d6be76979b6efb5b451d06,0.0577,0.0578,1,23,185,11,1,twofour,,,,,,,,,,,,,,,,,,,,,,,,,,,,,,,,,,,,,,,,,,,,,,,,,,,,,,,,,,,,,,,,,,,,,,,,,,,,,,,,,,,,,,,,,,,,,,,,,,,,,,,,,,,,,,,,,,,,,,,,,,,,,,,,,,,,,,,,,
,,615ed775a1a249fe4b81b7ea,2024-02-22_05h25.12.886,kallum_motion_pilot,2023.2.2,Win32,60.24096386,615ed775a1a249fe4b81b7ea,65d6bb0e977760de756971f7,65d6be76979b6efb5b451d06,0.0578,0.058,1,24,186,114,1,sixfive,,,,,,,,,,,,,,,,,,,,,,,,,,,,,,,,,,,,,,,,,,,,,,,,,,,,,,,,,,,,,,,,,,,,,,,,,,,,,,,,,,,,,,,,,,,,,,,,,,,,,,,,,,,,,,,,,,,,,,,,,,,,,,,,,,,,,,,,,
,,615ed775a1a249fe4b81b7ea,2024-02-22_05h25.12.886,kallum_motion_pilot,2023.2.2,Win32,60.24096386,615ed775a1a249fe4b81b7ea,65d6bb0e977760de756971f7,65d6be76979b6efb5b451d06,0.058,0.0581,1,25,187,9,1,onethree,,,,,,,,,,,,,,,,,,,,,,,,,,,,,,,,,,,,,,,,,,,,,,,,,,,,,,,,,,,,,,,,,,,,,,,,,,,,,,,,,,,,,,,,,,,,,,,,,,,,,,,,,,,,,,,,,,,,,,,,,,,,,,,,,,,,,,,,,
,,615ed775a1a249fe4b81b7ea,2024-02-22_05h25.12.886,kallum_motion_pilot,2023.2.2,Win32,60.24096386,615ed775a1a249fe4b81b7ea,65d6bb0e977760de756971f7,65d6be76979b6efb5b451d06,0.0582,0.0583,1,26,188,135,1,eightseven,,,,,,,,,,,,,,,,,,,,,,,,,,,,,,,,,,,,,,,,,,,,,,,,,,,,,,,,,,,,,,,,,,,,,,,,,,,,,,,,,,,,,,,,,,,,,,,,,,,,,,,,,,,,,,,,,,,,,,,,,,,,,,,,,,,,,,,,,
,,615ed775a1a249fe4b81b7ea,2024-02-22_05h25.12.886,kallum_motion_pilot,2023.2.2,Win32,60.24096386,615ed775a1a249fe4b81b7ea,65d6bb0e977760de756971f7,65d6be76979b6efb5b451d06,0.0583,0.0583,1,27,189,4,1,threeone,,,,,,,,,,,,,,,,,,,,,,,,,,,,,,,,,,,,,,,,,,,,,,,,,,,,,,,,,,,,,,,,,,,,,,,,,,,,,,,,,,,,,,,,,,,,,,,,,,,,,,,,,,,,,,,,,,,,,,,,,,,,,,,,,,,,,,,,,
,,615ed775a1a249fe4b81b7ea,2024-02-22_05h25.12.886,kallum_motion_pilot,2023.2.2,Win32,60.24096386,615ed775a1a249fe4b81b7ea,65d6bb0e977760de756971f7,65d6be76979b6efb5b451d06,0.0584,0.0585,1,28,190,118,1,eightsix,,,,,,,,,,,,,,,,,,,,,,,,,,,,,,,,,,,,,,,,,,,,,,,,,,,,,,,,,,,,,,,,,,,,,,,,,,,,,,,,,,,,,,,,,,,,,,,,,,,,,,,,,,,,,,,,,,,,,,,,,,,,,,,,,,,,,,,,,
,,615ed775a1a249fe4b81b7ea,2024-02-22_05h25.12.886,kallum_motion_pilot,2023.2.2,Win32,60.24096386,615ed775a1a249fe4b81b7ea,65d6bb0e977760de756971f7,65d6be76979b6efb5b451d06,0.0585,0.0586,1,29,191,21,1,threefour,,,,,,,,,,,,,,,,,,,,,,,,,,,,,,,,,,,,,,,,,,,,,,,,,,,,,,,,,,,,,,,,,,,,,,,,,,,,,,,,,,,,,,,,,,,,,,,,,,,,,,,,,,,,,,,,,,,,,,,,,,,,,,,,,,,,,,,,,
,,615ed775a1a249fe4b81b7ea,2024-02-22_05h25.12.886,kallum_motion_pilot,2023.2.2,Win32,60.24096386,615ed775a1a249fe4b81b7ea,65d6bb0e977760de756971f7,65d6be76979b6efb5b451d06,0.0586,0.0587,1,30,192,133,1,seveneight,,,,,,,,,,,,,,,,,,,,,,,,,,,,,,,,,,,,,,,,,,,,,,,,,,,,,,,,,,,,,,,,,,,,,,,,,,,,,,,,,,,,,,,,,,,,,,,,,,,,,,,,,,,,,,,,,,,,,,,,,,,,,,,,,,,,,,,,,
,,615ed775a1a249fe4b81b7ea,2024-02-22_05h25.12.886,kallum_motion_pilot,2023.2.2,Win32,60.24096386,615ed775a1a249fe4b81b7ea,65d6bb0e977760de756971f7,65d6be76979b6efb5b451d06,0.0588,0.0588,1,31,193,64,1,onetwo,,,,,,,,,,,,,,,,,,,,,,,,,,,,,,,,,,,,,,,,,,,,,,,,,,,,,,,,,,,,,,,,,,,,,,,,,,,,,,,,,,,,,,,,,,,,,,,,,,,,,,,,,,,,,,,,,,,,,,,,,,,,,,,,,,,,,,,,,
,,615ed775a1a249fe4b81b7ea,2024-02-22_05h25.12.886,kallum_motion_pilot,2023.2.2,Win32,60.24096386,615ed775a1a249fe4b81b7ea,65d6bb0e977760de756971f7,65d6be76979b6efb5b451d06,0.0589,0.0589,1,32,194,42,1,twoone,,,,,,,,,,,,,,,,,,,,,,,,,,,,,,,,,,,,,,,,,,,,,,,,,,,,,,,,,,,,,,,,,,,,,,,,,,,,,,,,,,,,,,,,,,,,,,,,,,,,,,,,,,,,,,,,,,,,,,,,,,,,,,,,,,,,,,,,,
,,615ed775a1a249fe4b81b7ea,2024-02-22_05h25.12.886,kallum_motion_pilot,2023.2.2,Win32,60.24096386,615ed775a1a249fe4b81b7ea,65d6bb0e977760de756971f7,65d6be76979b6efb5b451d06,0.0591,0.0591,1,33,195,121,1,fiveseven,,,,,,,,,,,,,,,,,,,,,,,,,,,,,,,,,,,,,,,,,,,,,,,,,,,,,,,,,,,,,,,,,,,,,,,,,,,,,,,,,,,,,,,,,,,,,,,,,,,,,,,,,,,,,,,,,,,,,,,,,,,,,,,,,,,,,,,,,
,,615ed775a1a249fe4b81b7ea,2024-02-22_05h25.12.886,kallum_motion_pilot,2023.2.2,Win32,60.24096386,615ed775a1a249fe4b81b7ea,65d6bb0e977760de756971f7,65d6be76979b6efb5b451d06,0.0592,0.0592,1,34,196,8,1,onetwo,,,,,,,,,,,,,,,,,,,,,,,,,,,,,,,,,,,,,,,,,,,,,,,,,,,,,,,,,,,,,,,,,,,,,,,,,,,,,,,,,,,,,,,,,,,,,,,,,,,,,,,,,,,,,,,,,,,,,,,,,,,,,,,,,,,,,,,,,
,,615ed775a1a249fe4b81b7ea,2024-02-22_05h25.12.886,kallum_motion_pilot,2023.2.2,Win32,60.24096386,615ed775a1a249fe4b81b7ea,65d6bb0e977760de756971f7,65d6be76979b6efb5b451d06,0.0593,0.0594,1,35,197,161,1,fiveseven,,,,,,,,,,,,,,,,,,,,,,,,,,,,,,,,,,,,,,,,,,,,,,,,,,,,,,,,,,,,,,,,,,,,,,,,,,,,,,,,,,,,,,,,,,,,,,,,,,,,,,,,,,,,,,,,,,,,,,,,,,,,,,,,,,,,,,,,,
,,615ed775a1a249fe4b81b7ea,2024-02-22_05h25.12.886,kallum_motion_pilot,2023.2.2,Win32,60.24096386,615ed775a1a249fe4b81b7ea,65d6bb0e977760de756971f7,65d6be76979b6efb5b451d06,0.0595,0.0595,1,36,198,54,1,fourtwo,,,,,,,,,,,,,,,,,,,,,,,,,,,,,,,,,,,,,,,,,,,,,,,,,,,,,,,,,,,,,,,,,,,,,,,,,,,,,,,,,,,,,,,,,,,,,,,,,,,,,,,,,,,,,,,,,,,,,,,,,,,,,,,,,,,,,,,,,
,,615ed775a1a249fe4b81b7ea,2024-02-22_05h25.12.886,kallum_motion_pilot,2023.2.2,Win32,60.24096386,615ed775a1a249fe4b81b7ea,65d6bb0e977760de756971f7,65d6be76979b6efb5b451d06,0.0596,0.0596,1,37,199,44,1,threeone,,,,,,,,,,,,,,,,,,,,,,,,,,,,,,,,,,,,,,,,,,,,,,,,,,,,,,,,,,,,,,,,,,,,,,,,,,,,,,,,,,,,,,,,,,,,,,,,,,,,,,,,,,,,,,,,,,,,,,,,,,,,,,,,,,,,,,,,,
,,615ed775a1a249fe4b81b7ea,2024-02-22_05h25.12.886,kallum_motion_pilot,2023.2.2,Win32,60.24096386,615ed775a1a249fe4b81b7ea,65d6bb0e977760de756971f7,65d6be76979b6efb5b451d06,0.0601,0.0602,1,38,200,124,1,sevenfive,,,,,,,,,,,,,,,,,,,,,,,,,,,,,,,,,,,,,,,,,,,,,,,,,,,,,,,,,,,,,,,,,,,,,,,,,,,,,,,,,,,,,,,,,,,,,,,,,,,,,,,,,,,,,,,,,,,,,,,,,,,,,,,,,,,,,,,,,
,,615ed775a1a249fe4b81b7ea,2024-02-22_05h25.12.886,kallum_motion_pilot,2023.2.2,Win32,60.24096386,615ed775a1a249fe4b81b7ea,65d6bb0e977760de756971f7,65d6be76979b6efb5b451d06,0.0602,0.0603,1,39,201,116,1,sevenfive,,,,,,,,,,,,,,,,,,,,,,,,,,,,,,,,,,,,,,,,,,,,,,,,,,,,,,,,,,,,,,,,,,,,,,,,,,,,,,,,,,,,,,,,,,,,,,,,,,,,,,,,,,,,,,,,,,,,,,,,,,,,,,,,,,,,,,,,,
,,615ed775a1a249fe4b81b7ea,2024-02-22_05h25.12.886,kallum_motion_pilot,2023.2.2,Win32,60.24096386,615ed775a1a249fe4b81b7ea,65d6bb0e977760de756971f7,65d6be76979b6efb5b451d06,0.0604,0.0605,1,40,202,131,1,sixeight,,,,,,,,,,,,,,,,,,,,,,,,,,,,,,,,,,,,,,,,,,,,,,,,,,,,,,,,,,,,,,,,,,,,,,,,,,,,,,,,,,,,,,,,,,,,,,,,,,,,,,,,,,,,,,,,,,,,,,,,,,,,,,,,,,,,,,,,,
,,615ed775a1a249fe4b81b7ea,2024-02-22_05h25.12.886,kallum_motion_pilot,2023.2.2,Win32,60.24096386,615ed775a1a249fe4b81b7ea,65d6bb0e977760de756971f7,65d6be76979b6efb5b451d06,0.0606,0.0606,1,41,203,145,1,fiveseven,,,,,,,,,,,,,,,,,,,,,,,,,,,,,,,,,,,,,,,,,,,,,,,,,,,,,,,,,,,,,,,,,,,,,,,,,,,,,,,,,,,,,,,,,,,,,,,,,,,,,,,,,,,,,,,,,,,,,,,,,,,,,,,,,,,,,,,,,
,,615ed775a1a249fe4b81b7ea,2024-02-22_05h25.12.886,kallum_motion_pilot,2023.2.2,Win32,60.24096386,615ed775a1a249fe4b81b7ea,65d6bb0e977760de756971f7,65d6be76979b6efb5b451d06,0.0607,0.0607,1,42,204,89,1,fiveseven,,,,,,,,,,,,,,,,,,,,,,,,,,,,,,,,,,,,,,,,,,,,,,,,,,,,,,,,,,,,,,,,,,,,,,,,,,,,,,,,,,,,,,,,,,,,,,,,,,,,,,,,,,,,,,,,,,,,,,,,,,,,,,,,,,,,,,,,,
,,615ed775a1a249fe4b81b7ea,2024-02-22_05h25.12.886,kallum_motion_pilot,2023.2.2,Win32,60.24096386,615ed775a1a249fe4b81b7ea,65d6bb0e977760de756971f7,65d6be76979b6efb5b451d06,0.0608,0.0609,1,43,205,139,1,sixeight,,,,,,,,,,,,,,,,,,,,,,,,,,,,,,,,,,,,,,,,,,,,,,,,,,,,,,,,,,,,,,,,,,,,,,,,,,,,,,,,,,,,,,,,,,,,,,,,,,,,,,,,,,,,,,,,,,,,,,,,,,,,,,,,,,,,,,,,,
,,615ed775a1a249fe4b81b7ea,2024-02-22_05h25.12.886,kallum_motion_pilot,2023.2.2,Win32,60.24096386,615ed775a1a249fe4b81b7ea,65d6bb0e977760de756971f7,65d6be76979b6efb5b451d06,0.061,0.061,1,44,206,109,1,seveneight,,,,,,,,,,,,,,,,,,,,,,,,,,,,,,,,,,,,,,,,,,,,,,,,,,,,,,,,,,,,,,,,,,,,,,,,,,,,,,,,,,,,,,,,,,,,,,,,,,,,,,,,,,,,,,,,,,,,,,,,,,,,,,,,,,,,,,,,,
,,615ed775a1a249fe4b81b7ea,2024-02-22_05h25.12.886,kallum_motion_pilot,2023.2.2,Win32,60.24096386,615ed775a1a249fe4b81b7ea,65d6bb0e977760de756971f7,65d6be76979b6efb5b451d06,0.0611,0.0611,1,45,207,77,1,threefour,,,,,,,,,,,,,,,,,,,,,,,,,,,,,,,,,,,,,,,,,,,,,,,,,,,,,,,,,,,,,,,,,,,,,,,,,,,,,,,,,,,,,,,,,,,,,,,,,,,,,,,,,,,,,,,,,,,,,,,,,,,,,,,,,,,,,,,,,
,,615ed775a1a249fe4b81b7ea,2024-02-22_05h25.12.886,kallum_motion_pilot,2023.2.2,Win32,60.24096386,615ed775a1a249fe4b81b7ea,65d6bb0e977760de756971f7,65d6be76979b6efb5b451d06,0.0612,0.0613,1,46,208,125,1,seveneight,,,,,,,,,,,,,,,,,,,,,,,,,,,,,,,,,,,,,,,,,,,,,,,,,,,,,,,,,,,,,,,,,,,,,,,,,,,,,,,,,,,,,,,,,,,,,,,,,,,,,,,,,,,,,,,,,,,,,,,,,,,,,,,,,,,,,,,,,
,,615ed775a1a249fe4b81b7ea,2024-02-22_05h25.12.886,kallum_motion_pilot,2023.2.2,Win32,60.24096386,615ed775a1a249fe4b81b7ea,65d6bb0e977760de756971f7,65d6be76979b6efb5b451d06,0.0613,0.0614,1,47,209,23,1,fourthree,,,,,,,,,,,,,,,,,,,,,,,,,,,,,,,,,,,,,,,,,,,,,,,,,,,,,,,,,,,,,,,,,,,,,,,,,,,,,,,,,,,,,,,,,,,,,,,,,,,,,,,,,,,,,,,,,,,,,,,,,,,,,,,,,,,,,,,,,
,,615ed775a1a249fe4b81b7ea,2024-02-22_05h25.12.886,kallum_motion_pilot,2023.2.2,Win32,60.24096386,615ed775a1a249fe4b81b7ea,65d6bb0e977760de756971f7,65d6be76979b6efb5b451d06,0.0614,0.0615,1,48,210,58,1,twoone,,,,,,,,,,,,,,,,,,,,,,,,,,,,,,,,,,,,,,,,,,,,,,,,,,,,,,,,,,,,,,,,,,,,,,,,,,,,,,,,,,,,,,,,,,,,,,,,,,,,,,,,,,,,,,,,,,,,,,,,,,,,,,,,,,,,,,,,,
,,615ed775a1a249fe4b81b7ea,2024-02-22_05h25.12.886,kallum_motion_pilot,2023.2.2,Win32,60.24096386,615ed775a1a249fe4b81b7ea,65d6bb0e977760de756971f7,65d6be76979b6efb5b451d06,0.0616,0.0617,1,49,211,34,1,twoone,,,,,,,,,,,,,,,,,,,,,,,,,,,,,,,,,,,,,,,,,,,,,,,,,,,,,,,,,,,,,,,,,,,,,,,,,,,,,,,,,,,,,,,,,,,,,,,,,,,,,,,,,,,,,,,,,,,,,,,,,,,,,,,,,,,,,,,,,
,,615ed775a1a249fe4b81b7ea,2024-02-22_05h25.12.886,kallum_motion_pilot,2023.2.2,Win32,60.24096386,615ed775a1a249fe4b81b7ea,65d6bb0e977760de756971f7,65d6be76979b6efb5b451d06,0.0617,0.0618,1,50,212,126,1,eightsix,,,,,,,,,,,,,,,,,,,,,,,,,,,,,,,,,,,,,,,,,,,,,,,,,,,,,,,,,,,,,,,,,,,,,,,,,,,,,,,,,,,,,,,,,,,,,,,,,,,,,,,,,,,,,,,,,,,,,,,,,,,,,,,,,,,,,,,,,
,,615ed775a1a249fe4b81b7ea,2024-02-22_05h25.12.886,kallum_motion_pilot,2023.2.2,Win32,60.24096386,615ed775a1a249fe4b81b7ea,65d6bb0e977760de756971f7,65d6be76979b6efb5b451d06,0.0619,0.062,1,51,213,112,1,fivesix,,,,,,,,,,,,,,,,,,,,,,,,,,,,,,,,,,,,,,,,,,,,,,,,,,,,,,,,,,,,,,,,,,,,,,,,,,,,,,,,,,,,,,,,,,,,,,,,,,,,,,,,,,,,,,,,,,,,,,,,,,,,,,,,,,,,,,,,,
,,615ed775a1a249fe4b81b7ea,2024-02-22_05h25.12.886,kallum_motion_pilot,2023.2.2,Win32,60.24096386,615ed775a1a249fe4b81b7ea,65d6bb0e977760de756971f7,65d6be76979b6efb5b451d06,0.062,0.062,1,52,214,12,1,threeone,,,,,,,,,,,,,,,,,,,,,,,,,,,,,,,,,,,,,,,,,,,,,,,,,,,,,,,,,,,,,,,,,,,,,,,,,,,,,,,,,,,,,,,,,,,,,,,,,,,,,,,,,,,,,,,,,,,,,,,,,,,,,,,,,,,,,,,,,
,,615ed775a1a249fe4b81b7ea,2024-02-22_05h25.12.886,kallum_motion_pilot,2023.2.2,Win32,60.24096386,615ed775a1a249fe4b81b7ea,65d6bb0e977760de756971f7,65d6be76979b6efb5b451d06,0.0621,0.0622,1,53,215,47,1,fourthree,,,,,,,,,,,,,,,,,,,,,,,,,,,,,,,,,,,,,,,,,,,,,,,,,,,,,,,,,,,,,,,,,,,,,,,,,,,,,,,,,,,,,,,,,,,,,,,,,,,,,,,,,,,,,,,,,,,,,,,,,,,,,,,,,,,,,,,,,
,,615ed775a1a249fe4b81b7ea,2024-02-22_05h25.12.886,kallum_motion_pilot,2023.2.2,Win32,60.24096386,615ed775a1a249fe4b81b7ea,65d6bb0e977760de756971f7,65d6be76979b6efb5b451d06,0.0623,0.0623,1,54,216,79,1,eightseven,,,,,,,,,,,,,,,,,,,,,,,,,,,,,,,,,,,,,,,,,,,,,,,,,,,,,,,,,,,,,,,,,,,,,,,,,,,,,,,,,,,,,,,,,,,,,,,,,,,,,,,,,,,,,,,,,,,,,,,,,,,,,,,,,,,,,,,,,
,,615ed775a1a249fe4b81b7ea,2024-02-22_05h25.12.886,kallum_motion_pilot,2023.2.2,Win32,60.24096386,615ed775a1a249fe4b81b7ea,65d6bb0e977760de756971f7,65d6be76979b6efb5b451d06,0.0624,0.0625,1,55,217,30,1,fourtwo,,,,,,,,,,,,,,,,,,,,,,,,,,,,,,,,,,,,,,,,,,,,,,,,,,,,,,,,,,,,,,,,,,,,,,,,,,,,,,,,,,,,,,,,,,,,,,,,,,,,,,,,,,,,,,,,,,,,,,,,,,,,,,,,,,,,,,,,,
,,615ed775a1a249fe4b81b7ea,2024-02-22_05h25.12.886,kallum_motion_pilot,2023.2.2,Win32,60.24096386,615ed775a1a249fe4b81b7ea,65d6bb0e977760de756971f7,65d6be76979b6efb5b451d06,0.0625,0.0626,1,56,218,97,1,fiveseven,,,,,,,,,,,,,,,,,,,,,,,,,,,,,,,,,,,,,,,,,,,,,,,,,,,,,,,,,,,,,,,,,,,,,,,,,,,,,,,,,,,,,,,,,,,,,,,,,,,,,,,,,,,,,,,,,,,,,,,,,,,,,,,,,,,,,,,,,
,,615ed775a1a249fe4b81b7ea,2024-02-22_05h25.12.886,kallum_motion_pilot,2023.2.2,Win32,60.24096386,615ed775a1a249fe4b81b7ea,65d6bb0e977760de756971f7,65d6be76979b6efb5b451d06,0.0633,0.0633,1,57,219,147,1,sixeight,,,,,,,,,,,,,,,,,,,,,,,,,,,,,,,,,,,,,,,,,,,,,,,,,,,,,,,,,,,,,,,,,,,,,,,,,,,,,,,,,,,,,,,,,,,,,,,,,,,,,,,,,,,,,,,,,,,,,,,,,,,,,,,,,,,,,,,,,
,,615ed775a1a249fe4b81b7ea,2024-02-22_05h25.12.886,kallum_motion_pilot,2023.2.2,Win32,60.24096386,615ed775a1a249fe4b81b7ea,65d6bb0e977760de756971f7,65d6be76979b6efb5b451d06,0.0634,0.0635,1,58,220,93,1,seveneight,,,,,,,,,,,,,,,,,,,,,,,,,,,,,,,,,,,,,,,,,,,,,,,,,,,,,,,,,,,,,,,,,,,,,,,,,,,,,,,,,,,,,,,,,,,,,,,,,,,,,,,,,,,,,,,,,,,,,,,,,,,,,,,,,,,,,,,,,
,,615ed775a1a249fe4b81b7ea,2024-02-22_05h25.12.886,kallum_motion_pilot,2023.2.2,Win32,60.24096386,615ed775a1a249fe4b81b7ea,65d6bb0e977760de756971f7,65d6be76979b6efb5b451d06,0.0637,0.0637,1,59,221,94,1,eightsix,,,,,,,,,,,,,,,,,,,,,,,,,,,,,,,,,,,,,,,,,,,,,,,,,,,,,,,,,,,,,,,,,,,,,,,,,,,,,,,,,,,,,,,,,,,,,,,,,,,,,,,,,,,,,,,,,,,,,,,,,,,,,,,,,,,,,,,,,
,,615ed775a1a249fe4b81b7ea,2024-02-22_05h25.12.886,kallum_motion_pilot,2023.2.2,Win32,60.24096386,615ed775a1a249fe4b81b7ea,65d6bb0e977760de756971f7,65d6be76979b6efb5b451d06,0.0638,0.0639,1,60,222,26,1,twoone,,,,,,,,,,,,,,,,,,,,,,,,,,,,,,,,,,,,,,,,,,,,,,,,,,,,,,,,,,,,,,,,,,,,,,,,,,,,,,,,,,,,,,,,,,,,,,,,,,,,,,,,,,,,,,,,,,,,,,,,,,,,,,,,,,,,,,,,,
,,615ed775a1a249fe4b81b7ea,2024-02-22_05h25.12.886,kallum_motion_pilot,2023.2.2,Win32,60.24096386,615ed775a1a249fe4b81b7ea,65d6bb0e977760de756971f7,65d6be76979b6efb5b451d06,0.0639,0.064,1,61,223,6,1,fourtwo,,,,,,,,,,,,,,,,,,,,,,,,,,,,,,,,,,,,,,,,,,,,,,,,,,,,,,,,,,,,,,,,,,,,,,,,,,,,,,,,,,,,,,,,,,,,,,,,,,,,,,,,,,,,,,,,,,,,,,,,,,,,,,,,,,,,,,,,,
,,615ed775a1a249fe4b81b7ea,2024-02-22_05h25.12.886,kallum_motion_pilot,2023.2.2,Win32,60.24096386,615ed775a1a249fe4b81b7ea,65d6bb0e977760de756971f7,65d6be76979b6efb5b451d06,0.0641,0.0642,1,62,224,129,1,fiveseven,,,,,,,,,,,,,,,,,,,,,,,,,,,,,,,,,,,,,,,,,,,,,,,,,,,,,,,,,,,,,,,,,,,,,,,,,,,,,,,,,,,,,,,,,,,,,,,,,,,,,,,,,,,,,,,,,,,,,,,,,,,,,,,,,,,,,,,,,
,,615ed775a1a249fe4b81b7ea,2024-02-22_05h25.12.886,kallum_motion_pilot,2023.2.2,Win32,60.24096386,615ed775a1a249fe4b81b7ea,65d6bb0e977760de756971f7,65d6be76979b6efb5b451d06,0.0643,0.0644,1,63,225,155,1,sixeight,,,,,,,,,,,,,,,,,,,,,,,,,,,,,,,,,,,,,,,,,,,,,,,,,,,,,,,,,,,,,,,,,,,,,,,,,,,,,,,,,,,,,,,,,,,,,,,,,,,,,,,,,,,,,,,,,,,,,,,,,,,,,,,,,,,,,,,,,
,,615ed775a1a249fe4b81b7ea,2024-02-22_05h25.12.886,kallum_motion_pilot,2023.2.2,Win32,60.24096386,615ed775a1a249fe4b81b7ea,65d6bb0e977760de756971f7,65d6be76979b6efb5b451d06,0.0644,0.0645,1,64,226,50,1,twoone,,,,,,,,,,,,,,,,,,,,,,,,,,,,,,,,,,,,,,,,,,,,,,,,,,,,,,,,,,,,,,,,,,,,,,,,,,,,,,,,,,,,,,,,,,,,,,,,,,,,,,,,,,,,,,,,,,,,,,,,,,,,,,,,,,,,,,,,,
,,615ed775a1a249fe4b81b7ea,2024-02-22_05h25.12.886,kallum_motion_pilot,2023.2.2,Win32,60.24096386,615ed775a1a249fe4b81b7ea,65d6bb0e977760de756971f7,65d6be76979b6efb5b451d06,0.0646,0.0647,1,65,227,7,1,fourthree,,,,,,,,,,,,,,,,,,,,,,,,,,,,,,,,,,,,,,,,,,,,,,,,,,,,,,,,,,,,,,,,,,,,,,,,,,,,,,,,,,,,,,,,,,,,,,,,,,,,,,,,,,,,,,,,,,,,,,,,,,,,,,,,,,,,,,,,,
,,615ed775a1a249fe4b81b7ea,2024-02-22_05h25.12.886,kallum_motion_pilot,2023.2.2,Win32,60.24096386,615ed775a1a249fe4b81b7ea,65d6bb0e977760de756971f7,65d6be76979b6efb5b451d06,0.0647,0.0648,1,66,228,83,1,sixeight,,,,,,,,,,,,,,,,,,,,,,,,,,,,,,,,,,,,,,,,,,,,,,,,,,,,,,,,,,,,,,,,,,,,,,,,,,,,,,,,,,,,,,,,,,,,,,,,,,,,,,,,,,,,,,,,,,,,,,,,,,,,,,,,,,,,,,,,,
,,615ed775a1a249fe4b81b7ea,2024-02-22_05h25.12.886,kallum_motion_pilot,2023.2.2,Win32,60.24096386,615ed775a1a249fe4b81b7ea,65d6bb0e977760de756971f7,65d6be76979b6efb5b451d06,0.0649,0.065,1,67,229,61,1,threefour,,,,,,,,,,,,,,,,,,,,,,,,,,,,,,,,,,,,,,,,,,,,,,,,,,,,,,,,,,,,,,,,,,,,,,,,,,,,,,,,,,,,,,,,,,,,,,,,,,,,,,,,,,,,,,,,,,,,,,,,,,,,,,,,,,,,,,,,,
,,615ed775a1a249fe4b81b7ea,2024-02-22_05h25.12.886,kallum_motion_pilot,2023.2.2,Win32,60.24096386,615ed775a1a249fe4b81b7ea,65d6bb0e977760de756971f7,65d6be76979b6efb5b451d06,0.0651,0.0652,1,68,230,87,1,eightseven,,,,,,,,,,,,,,,,,,,,,,,,,,,,,,,,,,,,,,,,,,,,,,,,,,,,,,,,,,,,,,,,,,,,,,,,,,,,,,,,,,,,,,,,,,,,,,,,,,,,,,,,,,,,,,,,,,,,,,,,,,,,,,,,,,,,,,,,,
,,615ed775a1a249fe4b81b7ea,2024-02-22_05h25.12.886,kallum_motion_pilot,2023.2.2,Win32,60.24096386,615ed775a1a249fe4b81b7ea,65d6bb0e977760de756971f7,65d6be76979b6efb5b451d06,0.0653,0.0654,1,69,231,98,1,sixfive,,,,,,,,,,,,,,,,,,,,,,,,,,,,,,,,,,,,,,,,,,,,,,,,,,,,,,,,,,,,,,,,,,,,,,,,,,,,,,,,,,,,,,,,,,,,,,,,,,,,,,,,,,,,,,,,,,,,,,,,,,,,,,,,,,,,,,,,,
,,615ed775a1a249fe4b81b7ea,2024-02-22_05h25.12.886,kallum_motion_pilot,2023.2.2,Win32,60.24096386,615ed775a1a249fe4b81b7ea,65d6bb0e977760de756971f7,65d6be76979b6efb5b451d06,0.0654,0.0655,1,70,232,120,1,fivesix,,,,,,,,,,,,,,,,,,,,,,,,,,,,,,,,,,,,,,,,,,,,,,,,,,,,,,,,,,,,,,,,,,,,,,,,,,,,,,,,,,,,,,,,,,,,,,,,,,,,,,,,,,,,,,,,,,,,,,,,,,,,,,,,,,,,,,,,,
,,615ed775a1a249fe4b81b7ea,2024-02-22_05h25.12.886,kallum_motion_pilot,2023.2.2,Win32,60.24096386,615ed775a1a249fe4b81b7ea,65d6bb0e977760de756971f7,65d6be76979b6efb5b451d06,0.0656,0.0656,1,71,233,43,1,twofour,,,,,,,,,,,,,,,,,,,,,,,,,,,,,,,,,,,,,,,,,,,,,,,,,,,,,,,,,,,,,,,,,,,,,,,,,,,,,,,,,,,,,,,,,,,,,,,,,,,,,,,,,,,,,,,,,,,,,,,,,,,,,,,,,,,,,,,,,
,,615ed775a1a249fe4b81b7ea,2024-02-22_05h25.12.886,kallum_motion_pilot,2023.2.2,Win32,60.24096386,615ed775a1a249fe4b81b7ea,65d6bb0e977760de756971f7,65d6be76979b6efb5b451d06,0.0657,0.0658,1,72,234,59,1,twofour,,,,,,,,,,,,,,,,,,,,,,,,,,,,,,,,,,,,,,,,,,,,,,,,,,,,,,,,,,,,,,,,,,,,,,,,,,,,,,,,,,,,,,,,,,,,,,,,,,,,,,,,,,,,,,,,,,,,,,,,,,,,,,,,,,,,,,,,,
,,615ed775a1a249fe4b81b7ea,2024-02-22_05h25.12.886,kallum_motion_pilot,2023.2.2,Win32,60.24096386,615ed775a1a249fe4b81b7ea,65d6bb0e977760de756971f7,65d6be76979b6efb5b451d06,0.0659,0.066,1,73,235,72,1,onetwo,,,,,,,,,,,,,,,,,,,,,,,,,,,,,,,,,,,,,,,,,,,,,,,,,,,,,,,,,,,,,,,,,,,,,,,,,,,,,,,,,,,,,,,,,,,,,,,,,,,,,,,,,,,,,,,,,,,,,,,,,,,,,,,,,,,,,,,,,
,,615ed775a1a249fe4b81b7ea,2024-02-22_05h25.12.886,kallum_motion_pilot,2023.2.2,Win32,60.24096386,615ed775a1a249fe4b81b7ea,65d6bb0e977760de756971f7,65d6be76979b6efb5b451d06,0.066,0.0662,1,74,236,140,1,sevenfive,,,,,,,,,,,,,,,,,,,,,,,,,,,,,,,,,,,,,,,,,,,,,,,,,,,,,,,,,,,,,,,,,,,,,,,,,,,,,,,,,,,,,,,,,,,,,,,,,,,,,,,,,,,,,,,,,,,,,,,,,,,,,,,,,,,,,,,,,
,,615ed775a1a249fe4b81b7ea,2024-02-22_05h25.12.886,kallum_motion_pilot,2023.2.2,Win32,60.24096386,615ed775a1a249fe4b81b7ea,65d6bb0e977760de756971f7,65d6be76979b6efb5b451d06,0.0662,0.0663,1,75,237,18,1,twoone,,,,,,,,,,,,,,,,,,,,,,,,,,,,,,,,,,,,,,,,,,,,,,,,,,,,,,,,,,,,,,,,,,,,,,,,,,,,,,,,,,,,,,,,,,,,,,,,,,,,,,,,,,,,,,,,,,,,,,,,,,,,,,,,,,,,,,,,,
,,615ed775a1a249fe4b81b7ea,2024-02-22_05h25.12.886,kallum_motion_pilot,2023.2.2,Win32,60.24096386,615ed775a1a249fe4b81b7ea,65d6bb0e977760de756971f7,65d6be76979b6efb5b451d06,0.0664,0.0664,1,76,238,153,1,fiveseven,,,,,,,,,,,,,,,,,,,,,,,,,,,,,,,,,,,,,,,,,,,,,,,,,,,,,,,,,,,,,,,,,,,,,,,,,,,,,,,,,,,,,,,,,,,,,,,,,,,,,,,,,,,,,,,,,,,,,,,,,,,,,,,,,,,,,,,,,
,,615ed775a1a249fe4b81b7ea,2024-02-22_05h25.12.886,kallum_motion_pilot,2023.2.2,Win32,60.24096386,615ed775a1a249fe4b81b7ea,65d6bb0e977760de756971f7,65d6be76979b6efb5b451d06,0.0666,0.0667,1,77,239,51,1,twofour,,,,,,,,,,,,,,,,,,,,,,,,,,,,,,,,,,,,,,,,,,,,,,,,,,,,,,,,,,,,,,,,,,,,,,,,,,,,,,,,,,,,,,,,,,,,,,,,,,,,,,,,,,,,,,,,,,,,,,,,,,,,,,,,,,,,,,,,,
,,615ed775a1a249fe4b81b7ea,2024-02-22_05h25.12.886,kallum_motion_pilot,2023.2.2,Win32,60.24096386,615ed775a1a249fe4b81b7ea,65d6bb0e977760de756971f7,65d6be76979b6efb5b451d06,0.0668,0.0669,1,78,240,68,1,threeone,,,,,,,,,,,,,,,,,,,,,,,,,,,,,,,,,,,,,,,,,,,,,,,,,,,,,,,,,,,,,,,,,,,,,,,,,,,,,,,,,,,,,,,,,,,,,,,,,,,,,,,,,,,,,,,,,,,,,,,,,,,,,,,,,,,,,,,,,
,,615ed775a1a249fe4b81b7ea,2024-02-22_05h25.12.886,kallum_motion_pilot,2023.2.2,Win32,60.24096386,615ed775a1a249fe4b81b7ea,65d6bb0e977760de756971f7,65d6be76979b6efb5b451d06,0.0671,0.0672,1,79,241,15,1,fourthree,,,,,,,,,,,,,,,,,,,,,,,,,,,,,,,,,,,,,,,,,,,,,,,,,,,,,,,,,,,,,,,,,,,,,,,,,,,,,,,,,,,,,,,,,,,,,,,,,,,,,,,,,,,,,,,,,,,,,,,,,,,,,,,,,,,,,,,,,
,,615ed775a1a249fe4b81b7ea,2024-02-22_05h25.12.886,kallum_motion_pilot,2023.2.2,Win32,60.24096386,615ed775a1a249fe4b81b7ea,65d6bb0e977760de756971f7,65d6be76979b6efb5b451d06,0.0672,0.0673,1,80,242,70,1,fourtwo,,,,,,,,,,,,,,,,,,,,,,,,,,,,,,,,,,,,,,,,,,,,,,,,,,,,,,,,,,,,,,,,,,,,,,,,,,,,,,,,,,,,,,,,,,,,,,,,,,,,,,,,,,,,,,,,,,,,,,,,,,,,,,,,,,,,,,,,,
,,615ed775a1a249fe4b81b7ea,2024-02-22_05h25.12.886,kallum_motion_pilot,2023.2.2,Win32,60.24096386,615ed775a1a249fe4b81b7ea,65d6bb0e977760de756971f7,65d6be76979b6efb5b451d06,0.0675,0.0676,1,81,243,60,1,threeone,,,,,,,,,,,,,,,,,,,,,,,,,,,,,,,,,,,,,,,,,,,,,,,,,,,,,,,,,,,,,,,,,,,,,,,,,,,,,,,,,,,,,,,,,,,,,,,,,,,,,,,,,,,,,,,,,,,,,,,,,,,,,,,,,,,,,,,,,
,,615ed775a1a249fe4b81b7ea,2024-02-22_05h25.12.886,kallum_motion_pilot,2023.2.2,Win32,60.24096386,615ed775a1a249fe4b81b7ea,65d6bb0e977760de756971f7,65d6be76979b6efb5b451d06,0.0678,0.0679,1,82,244,104,1,fivesix,,,,,,,,,,,,,,,,,,,,,,,,,,,,,,,,,,,,,,,,,,,,,,,,,,,,,,,,,,,,,,,,,,,,,,,,,,,,,,,,,,,,,,,,,,,,,,,,,,,,,,,,,,,,,,,,,,,,,,,,,,,,,,,,,,,,,,,,,
,,615ed775a1a249fe4b81b7ea,2024-02-22_05h25.12.886,kallum_motion_pilot,2023.2.2,Win32,60.24096386,615ed775a1a249fe4b81b7ea,65d6bb0e977760de756971f7,65d6be76979b6efb5b451d06,0.068,0.0681,1,83,245,122,1,sixfive,,,,,,,,,,,,,,,,,,,,,,,,,,,,,,,,,,,,,,,,,,,,,,,,,,,,,,,,,,,,,,,,,,,,,,,,,,,,,,,,,,,,,,,,,,,,,,,,,,,,,,,,,,,,,,,,,,,,,,,,,,,,,,,,,,,,,,,,,
,,615ed775a1a249fe4b81b7ea,2024-02-22_05h25.12.886,kallum_motion_pilot,2023.2.2,Win32,60.24096386,615ed775a1a249fe4b81b7ea,65d6bb0e977760de756971f7,65d6be76979b6efb5b451d06,0.0682,0.0683,1,84,246,31,1,fourthree,,,,,,,,,,,,,,,,,,,,,,,,,,,,,,,,,,,,,,,,,,,,,,,,,,,,,,,,,,,,,,,,,,,,,,,,,,,,,,,,,,,,,,,,,,,,,,,,,,,,,,,,,,,,,,,,,,,,,,,,,,,,,,,,,,,,,,,,,
,,615ed775a1a249fe4b81b7ea,2024-02-22_05h25.12.886,kallum_motion_pilot,2023.2.2,Win32,60.24096386,615ed775a1a249fe4b81b7ea,65d6bb0e977760de756971f7,65d6be76979b6efb5b451d06,0.0685,0.0686,1,85,247,84,1,sevenfive,,,,,,,,,,,,,,,,,,,,,,,,,,,,,,,,,,,,,,,,,,,,,,,,,,,,,,,,,,,,,,,,,,,,,,,,,,,,,,,,,,,,,,,,,,,,,,,,,,,,,,,,,,,,,,,,,,,,,,,,,,,,,,,,,,,,,,,,,
,,615ed775a1a249fe4b81b7ea,2024-02-22_05h25.12.886,kallum_motion_pilot,2023.2.2,Win32,60.24096386,615ed775a1a249fe4b81b7ea,65d6bb0e977760de756971f7,65d6be76979b6efb5b451d06,0.0688,0.0689,1,86,248,92,1,sevenfive,,,,,,,,,,,,,,,,,,,,,,,,,,,,,,,,,,,,,,,,,,,,,,,,,,,,,,,,,,,,,,,,,,,,,,,,,,,,,,,,,,,,,,,,,,,,,,,,,,,,,,,,,,,,,,,,,,,,,,,,,,,,,,,,,,,,,,,,,
,,615ed775a1a249fe4b81b7ea,2024-02-22_05h25.12.886,kallum_motion_pilot,2023.2.2,Win32,60.24096386,615ed775a1a249fe4b81b7ea,65d6bb0e977760de756971f7,65d6be76979b6efb5b451d06,0.069,0.0691,1,87,249,158,1,eightsix,,,,,,,,,,,,,,,,,,,,,,,,,,,,,,,,,,,,,,,,,,,,,,,,,,,,,,,,,,,,,,,,,,,,,,,,,,,,,,,,,,,,,,,,,,,,,,,,,,,,,,,,,,,,,,,,,,,,,,,,,,,,,,,,,,,,,,,,,
,,615ed775a1a249fe4b81b7ea,2024-02-22_05h25.12.886,kallum_motion_pilot,2023.2.2,Win32,60.24096386,615ed775a1a249fe4b81b7ea,65d6bb0e977760de756971f7,65d6be76979b6efb5b451d06,0.0693,0.0694,1,88,250,146,1,sixfive,,,,,,,,,,,,,,,,,,,,,,,,,,,,,,,,,,,,,,,,,,,,,,,,,,,,,,,,,,,,,,,,,,,,,,,,,,,,,,,,,,,,,,,,,,,,,,,,,,,,,,,,,,,,,,,,,,,,,,,,,,,,,,,,,,,,,,,,,
,,615ed775a1a249fe4b81b7ea,2024-02-22_05h25.12.886,kallum_motion_pilot,2023.2.2,Win32,60.24096386,615ed775a1a249fe4b81b7ea,65d6bb0e977760de756971f7,65d6be76979b6efb5b451d06,0.0695,0.0696,1,89,251,41,1,onethree,,,,,,,,,,,,,,,,,,,,,,,,,,,,,,,,,,,,,,,,,,,,,,,,,,,,,,,,,,,,,,,,,,,,,,,,,,,,,,,,,,,,,,,,,,,,,,,,,,,,,,,,,,,,,,,,,,,,,,,,,,,,,,,,,,,,,,,,,
,,615ed775a1a249fe4b81b7ea,2024-02-22_05h25.12.886,kallum_motion_pilot,2023.2.2,Win32,60.24096386,615ed775a1a249fe4b81b7ea,65d6bb0e977760de756971f7,65d6be76979b6efb5b451d06,0.0697,0.0698,1,90,252,25,1,onethree,,,,,,,,,,,,,,,,,,,,,,,,,,,,,,,,,,,,,,,,,,,,,,,,,,,,,,,,,,,,,,,,,,,,,,,,,,,,,,,,,,,,,,,,,,,,,,,,,,,,,,,,,,,,,,,,,,,,,,,,,,,,,,,,,,,,,,,,,
,,615ed775a1a249fe4b81b7ea,2024-02-22_05h25.12.886,kallum_motion_pilot,2023.2.2,Win32,60.24096386,615ed775a1a249fe4b81b7ea,65d6bb0e977760de756971f7,65d6be76979b6efb5b451d06,0.0699,0.0701,1,91,253,81,1,fiveseven,,,,,,,,,,,,,,,,,,,,,,,,,,,,,,,,,,,,,,,,,,,,,,,,,,,,,,,,,,,,,,,,,,,,,,,,,,,,,,,,,,,,,,,,,,,,,,,,,,,,,,,,,,,,,,,,,,,,,,,,,,,,,,,,,,,,,,,,,
,,615ed775a1a249fe4b81b7ea,2024-02-22_05h25.12.886,kallum_motion_pilot,2023.2.2,Win32,60.24096386,615ed775a1a249fe4b81b7ea,65d6bb0e977760de756971f7,65d6be76979b6efb5b451d06,0.0702,0.0703,1,92,254,119,1,eightseven,,,,,,,,,,,,,,,,,,,,,,,,,,,,,,,,,,,,,,,,,,,,,,,,,,,,,,,,,,,,,,,,,,,,,,,,,,,,,,,,,,,,,,,,,,,,,,,,,,,,,,,,,,,,,,,,,,,,,,,,,,,,,,,,,,,,,,,,,
,,615ed775a1a249fe4b81b7ea,2024-02-22_05h25.12.886,kallum_motion_pilot,2023.2.2,Win32,60.24096386,615ed775a1a249fe4b81b7ea,65d6bb0e977760de756971f7,65d6be76979b6efb5b451d06,0.0705,0.0707,1,93,255,65,1,onethree,,,,,,,,,,,,,,,,,,,,,,,,,,,,,,,,,,,,,,,,,,,,,,,,,,,,,,,,,,,,,,,,,,,,,,,,,,,,,,,,,,,,,,,,,,,,,,,,,,,,,,,,,,,,,,,,,,,,,,,,,,,,,,,,,,,,,,,,,
,,615ed775a1a249fe4b81b7ea,2024-02-22_05h25.12.886,kallum_motion_pilot,2023.2.2,Win32,60.24096386,615ed775a1a249fe4b81b7ea,65d6bb0e977760de756971f7,65d6be76979b6efb5b451d06,0.0708,0.0709,1,94,256,151,1,eightseven,,,,,,,,,,,,,,,,,,,,,,,,,,,,,,,,,,,,,,,,,,,,,,,,,,,,,,,,,,,,,,,,,,,,,,,,,,,,,,,,,,,,,,,,,,,,,,,,,,,,,,,,,,,,,,,,,,,,,,,,,,,,,,,,,,,,,,,,,
,,615ed775a1a249fe4b81b7ea,2024-02-22_05h25.12.886,kallum_motion_pilot,2023.2.2,Win32,60.24096386,615ed775a1a249fe4b81b7ea,65d6bb0e977760de756971f7,65d6be76979b6efb5b451d06,0.0711,0.0712,1,95,257,160,1,fivesix,,,,,,,,,,,,,,,,,,,,,,,,,,,,,,,,,,,,,,,,,,,,,,,,,,,,,,,,,,,,,,,,,,,,,,,,,,,,,,,,,,,,,,,,,,,,,,,,,,,,,,,,,,,,,,,,,,,,,,,,,,,,,,,,,,,,,,,,,
,,615ed775a1a249fe4b81b7ea,2024-02-22_05h25.12.886,kallum_motion_pilot,2023.2.2,Win32,60.24096386,615ed775a1a249fe4b81b7ea,65d6bb0e977760de756971f7,65d6be76979b6efb5b451d06,0.0713,0.0714,1,96,258,40,1,onetwo,,,,,,,,,,,,,,,,,,,,,,,,,,,,,,,,,,,,,,,,,,,,,,,,,,,,,,,,,,,,,,,,,,,,,,,,,,,,,,,,,,,,,,,,,,,,,,,,,,,,,,,,,,,,,,,,,,,,,,,,,,,,,,,,,,,,,,,,,
,,615ed775a1a249fe4b81b7ea,2024-02-22_05h25.12.886,kallum_motion_pilot,2023.2.2,Win32,60.24096386,615ed775a1a249fe4b81b7ea,65d6bb0e977760de756971f7,65d6be76979b6efb5b451d06,0.0716,0.0717,1,97,259,48,1,onetwo,,,,,,,,,,,,,,,,,,,,,,,,,,,,,,,,,,,,,,,,,,,,,,,,,,,,,,,,,,,,,,,,,,,,,,,,,,,,,,,,,,,,,,,,,,,,,,,,,,,,,,,,,,,,,,,,,,,,,,,,,,,,,,,,,,,,,,,,,
,,615ed775a1a249fe4b81b7ea,2024-02-22_05h25.12.886,kallum_motion_pilot,2023.2.2,Win32,60.24096386,615ed775a1a249fe4b81b7ea,65d6bb0e977760de756971f7,65d6be76979b6efb5b451d06,0.0718,0.0719,1,98,260,128,1,fivesix,,,,,,,,,,,,,,,,,,,,,,,,,,,,,,,,,,,,,,,,,,,,,,,,,,,,,,,,,,,,,,,,,,,,,,,,,,,,,,,,,,,,,,,,,,,,,,,,,,,,,,,,,,,,,,,,,,,,,,,,,,,,,,,,,,,,,,,,,
,,615ed775a1a249fe4b81b7ea,2024-02-22_05h25.12.886,kallum_motion_pilot,2023.2.2,Win32,60.24096386,615ed775a1a249fe4b81b7ea,65d6bb0e977760de756971f7,65d6be76979b6efb5b451d06,0.072,0.0722,1,99,261,56,1,onetwo,,,,,,,,,,,,,,,,,,,,,,,,,,,,,,,,,,,,,,,,,,,,,,,,,,,,,,,,,,,,,,,,,,,,,,,,,,,,,,,,,,,,,,,,,,,,,,,,,,,,,,,,,,,,,,,,,,,,,,,,,,,,,,,,,,,,,,,,,
,,615ed775a1a249fe4b81b7ea,2024-02-22_05h25.12.886,kallum_motion_pilot,2023.2.2,Win32,60.24096386,615ed775a1a249fe4b81b7ea,65d6bb0e977760de756971f7,65d6be76979b6efb5b451d06,0.0722,0.0724,1,100,262,1,1,onethree,,,,,,,,,,,,,,,,,,,,,,,,,,,,,,,,,,,,,,,,,,,,,,,,,,,,,,,,,,,,,,,,,,,,,,,,,,,,,,,,,,,,,,,,,,,,,,,,,,,,,,,,,,,,,,,,,,,,,,,,,,,,,,,,,,,,,,,,,
,,615ed775a1a249fe4b81b7ea,2024-02-22_05h25.12.886,kallum_motion_pilot,2023.2.2,Win32,60.24096386,615ed775a1a249fe4b81b7ea,65d6bb0e977760de756971f7,65d6be76979b6efb5b451d06,0.0724,0.0726,1,101,263,156,1,sevenfive,,,,,,,,,,,,,,,,,,,,,,,,,,,,,,,,,,,,,,,,,,,,,,,,,,,,,,,,,,,,,,,,,,,,,,,,,,,,,,,,,,,,,,,,,,,,,,,,,,,,,,,,,,,,,,,,,,,,,,,,,,,,,,,,,,,,,,,,,
,,615ed775a1a249fe4b81b7ea,2024-02-22_05h25.12.886,kallum_motion_pilot,2023.2.2,Win32,60.24096386,615ed775a1a249fe4b81b7ea,65d6bb0e977760de756971f7,65d6be76979b6efb5b451d06,0.0727,0.0729,1,102,264,95,1,eightseven,,,,,,,,,,,,,,,,,,,,,,,,,,,,,,,,,,,,,,,,,,,,,,,,,,,,,,,,,,,,,,,,,,,,,,,,,,,,,,,,,,,,,,,,,,,,,,,,,,,,,,,,,,,,,,,,,,,,,,,,,,,,,,,,,,,,,,,,,
,,615ed775a1a249fe4b81b7ea,2024-02-22_05h25.12.886,kallum_motion_pilot,2023.2.2,Win32,60.24096386,615ed775a1a249fe4b81b7ea,65d6bb0e977760de756971f7,65d6be76979b6efb5b451d06,0.0731,0.0733,1,103,265,127,1,eightseven,,,,,,,,,,,,,,,,,,,,,,,,,,,,,,,,,,,,,,,,,,,,,,,,,,,,,,,,,,,,,,,,,,,,,,,,,,,,,,,,,,,,,,,,,,,,,,,,,,,,,,,,,,,,,,,,,,,,,,,,,,,,,,,,,,,,,,,,,
,,615ed775a1a249fe4b81b7ea,2024-02-22_05h25.12.886,kallum_motion_pilot,2023.2.2,Win32,60.24096386,615ed775a1a249fe4b81b7ea,65d6bb0e977760de756971f7,65d6be76979b6efb5b451d06,0.0733,0.0734,1,104,266,35,1,twofour,,,,,,,,,,,,,,,,,,,,,,,,,,,,,,,,,,,,,,,,,,,,,,,,,,,,,,,,,,,,,,,,,,,,,,,,,,,,,,,,,,,,,,,,,,,,,,,,,,,,,,,,,,,,,,,,,,,,,,,,,,,,,,,,,,,,,,,,,
,,615ed775a1a249fe4b81b7ea,2024-02-22_05h25.12.886,kallum_motion_pilot,2023.2.2,Win32,60.24096386,615ed775a1a249fe4b81b7ea,65d6bb0e977760de756971f7,65d6be76979b6efb5b451d06,0.0735,0.0736,1,105,267,49,1,onethree,,,,,,,,,,,,,,,,,,,,,,,,,,,,,,,,,,,,,,,,,,,,,,,,,,,,,,,,,,,,,,,,,,,,,,,,,,,,,,,,,,,,,,,,,,,,,,,,,,,,,,,,,,,,,,,,,,,,,,,,,,,,,,,,,,,,,,,,,
,,615ed775a1a249fe4b81b7ea,2024-02-22_05h25.12.886,kallum_motion_pilot,2023.2.2,Win32,60.24096386,615ed775a1a249fe4b81b7ea,65d6bb0e977760de756971f7,65d6be76979b6efb5b451d06,0.0737,0.0738,1,106,268,157,1,seveneight,,,,,,,,,,,,,,,,,,,,,,,,,,,,,,,,,,,,,,,,,,,,,,,,,,,,,,,,,,,,,,,,,,,,,,,,,,,,,,,,,,,,,,,,,,,,,,,,,,,,,,,,,,,,,,,,,,,,,,,,,,,,,,,,,,,,,,,,,
,,615ed775a1a249fe4b81b7ea,2024-02-22_05h25.12.886,kallum_motion_pilot,2023.2.2,Win32,60.24096386,615ed775a1a249fe4b81b7ea,65d6bb0e977760de756971f7,65d6be76979b6efb5b451d06,0.0739,0.0739,1,107,269,99,1,sixeight,,,,,,,,,,,,,,,,,,,,,,,,,,,,,,,,,,,,,,,,,,,,,,,,,,,,,,,,,,,,,,,,,,,,,,,,,,,,,,,,,,,,,,,,,,,,,,,,,,,,,,,,,,,,,,,,,,,,,,,,,,,,,,,,,,,,,,,,,
,,615ed775a1a249fe4b81b7ea,2024-02-22_05h25.12.886,kallum_motion_pilot,2023.2.2,Win32,60.24096386,615ed775a1a249fe4b81b7ea,65d6bb0e977760de756971f7,65d6be76979b6efb5b451d06,0.074,0.0741,1,108,270,123,1,sixeight,,,,,,,,,,,,,,,,,,,,,,,,,,,,,,,,,,,,,,,,,,,,,,,,,,,,,,,,,,,,,,,,,,,,,,,,,,,,,,,,,,,,,,,,,,,,,,,,,,,,,,,,,,,,,,,,,,,,,,,,,,,,,,,,,,,,,,,,,
,,615ed775a1a249fe4b81b7ea,2024-02-22_05h25.12.886,kallum_motion_pilot,2023.2.2,Win32,60.24096386,615ed775a1a249fe4b81b7ea,65d6bb0e977760de756971f7,65d6be76979b6efb5b451d06,0.0742,0.0743,1,109,271,33,1,onethree,,,,,,,,,,,,,,,,,,,,,,,,,,,,,,,,,,,,,,,,,,,,,,,,,,,,,,,,,,,,,,,,,,,,,,,,,,,,,,,,,,,,,,,,,,,,,,,,,,,,,,,,,,,,,,,,,,,,,,,,,,,,,,,,,,,,,,,,,
,,615ed775a1a249fe4b81b7ea,2024-02-22_05h25.12.886,kallum_motion_pilot,2023.2.2,Win32,60.24096386,615ed775a1a249fe4b81b7ea,65d6bb0e977760de756971f7,65d6be76979b6efb5b451d06,0.0744,0.0745,1,110,272,69,1,threefour,,,,,,,,,,,,,,,,,,,,,,,,,,,,,,,,,,,,,,,,,,,,,,,,,,,,,,,,,,,,,,,,,,,,,,,,,,,,,,,,,,,,,,,,,,,,,,,,,,,,,,,,,,,,,,,,,,,,,,,,,,,,,,,,,,,,,,,,,
,,615ed775a1a249fe4b81b7ea,2024-02-22_05h25.12.886,kallum_motion_pilot,2023.2.2,Win32,60.24096386,615ed775a1a249fe4b81b7ea,65d6bb0e977760de756971f7,65d6be76979b6efb5b451d06,0.0745,0.0746,1,111,273,82,1,sixfive,,,,,,,,,,,,,,,,,,,,,,,,,,,,,,,,,,,,,,,,,,,,,,,,,,,,,,,,,,,,,,,,,,,,,,,,,,,,,,,,,,,,,,,,,,,,,,,,,,,,,,,,,,,,,,,,,,,,,,,,,,,,,,,,,,,,,,,,,
,,615ed775a1a249fe4b81b7ea,2024-02-22_05h25.12.886,kallum_motion_pilot,2023.2.2,Win32,60.24096386,615ed775a1a249fe4b81b7ea,65d6bb0e977760de756971f7,65d6be76979b6efb5b451d06,0.0747,0.0748,1,112,274,115,1,sixeight,,,,,,,,,,,,,,,,,,,,,,,,,,,,,,,,,,,,,,,,,,,,,,,,,,,,,,,,,,,,,,,,,,,,,,,,,,,,,,,,,,,,,,,,,,,,,,,,,,,,,,,,,,,,,,,,,,,,,,,,,,,,,,,,,,,,,,,,,
,,615ed775a1a249fe4b81b7ea,2024-02-22_05h25.12.886,kallum_motion_pilot,2023.2.2,Win32,60.24096386,615ed775a1a249fe4b81b7ea,65d6bb0e977760de756971f7,65d6be76979b6efb5b451d06,0.0749,0.075,1,113,275,100,1,sevenfive,,,,,,,,,,,,,,,,,,,,,,,,,,,,,,,,,,,,,,,,,,,,,,,,,,,,,,,,,,,,,,,,,,,,,,,,,,,,,,,,,,,,,,,,,,,,,,,,,,,,,,,,,,,,,,,,,,,,,,,,,,,,,,,,,,,,,,,,,
,,615ed775a1a249fe4b81b7ea,2024-02-22_05h25.12.886,kallum_motion_pilot,2023.2.2,Win32,60.24096386,615ed775a1a249fe4b81b7ea,65d6bb0e977760de756971f7,65d6be76979b6efb5b451d06,0.0751,0.0752,1,114,276,39,1,fourthree,,,,,,,,,,,,,,,,,,,,,,,,,,,,,,,,,,,,,,,,,,,,,,,,,,,,,,,,,,,,,,,,,,,,,,,,,,,,,,,,,,,,,,,,,,,,,,,,,,,,,,,,,,,,,,,,,,,,,,,,,,,,,,,,,,,,,,,,,
,,615ed775a1a249fe4b81b7ea,2024-02-22_05h25.12.886,kallum_motion_pilot,2023.2.2,Win32,60.24096386,615ed775a1a249fe4b81b7ea,65d6bb0e977760de756971f7,65d6be76979b6efb5b451d06,0.0753,0.0753,1,115,277,2,1,twoone,,,,,,,,,,,,,,,,,,,,,,,,,,,,,,,,,,,,,,,,,,,,,,,,,,,,,,,,,,,,,,,,,,,,,,,,,,,,,,,,,,,,,,,,,,,,,,,,,,,,,,,,,,,,,,,,,,,,,,,,,,,,,,,,,,,,,,,,,
