startup.started,startup.stopped,Prolific ID*,date,expName,psychopyVersion,OS,frameRate,participant,study_id,session,stimpositions.started,stimpositions.stopped,hardcoded_stimulus_positions.thisRepN,hardcoded_stimulus_positions.thisTrialN,hardcoded_stimulus_positions.thisN,hardcoded_stimulus_positions.thisIndex,hardcoded_stimulus_positions.ran,StimulusPos,stimorientation.started,stimorientation.stopped,prac_stimorientation_import_loop.thisRepN,prac_stimorientation_import_loop.thisTrialN,prac_stimorientation_import_loop.thisN,prac_stimorientation_import_loop.thisIndex,prac_stimorientation_import_loop.ran,Stimorientation,welcome_instr.started,welcome_instr.stopped,key_resp.keys,key_resp.rt,key_resp.duration,response_steppedout_1.started,response_steppedout_1.stopped,key_resp_20.keys,key_resp_20.rt,key_resp_20.duration,response_steppedout_2.started,response_steppedout_2.stopped,key_resp_19.keys,key_resp_19.rt,key_resp_19.duration,stim_response_instr.started,stim_response_instr.stopped,key_resp_15.keys,key_resp_15.rt,key_resp_15.duration,direction_instr_2.started,direction_instr_2.stopped,key_resp_9.keys,key_resp_9.rt,key_resp_9.duration,instr_prac.started,instr_prac.stopped,key_resp_10.keys,key_resp_10.rt,key_resp_10.duration,Stim1_display_prac.started,Stim1_display_prac.stopped,Ecc,Circle1_ori,Circle2_ori,response_prac.started,similarity,response_time,response_prac.stopped,mouse_5.x,mouse_5.y,mouse_5.leftButton,mouse_5.midButton,mouse_5.rightButton,mouse_5.clicked_name,responseprac_feedback.started,responseprac_feedback.stopped,summary2_prac.started,summary2_prac.stopped,mouse_6.x,mouse_6.y,mouse_6.leftButton,mouse_6.midButton,mouse_6.rightButton,mouse_6.clicked_name,duringprac.thisRepN,duringprac.thisTrialN,duringprac.thisN,duringprac.thisIndex,duringprac.ran,begin.started,begin.stopped,key_resp_22.keys,key_resp_22.rt,key_resp_22.duration,Stim1_display.started,Stim1_display.stopped,circle1_ori,circle2_ori,circle1_SF,circle2_SF,response.started,response.stopped,mouse.x,mouse.y,mouse.leftButton,mouse.midButton,mouse.rightButton,mouse.clicked_name,trialnumber,double_pass.thisRepN,double_pass.thisTrialN,double_pass.thisN,double_pass.thisIndex,double_pass.ran,double_pass.order,main_trial.thisRepN,main_trial.thisTrialN,main_trial.thisN,main_trial.thisIndex,main_trial.ran,main_trial.order,Trial_Counter,Catch,Frequencies,response_2.started,response_2.stopped,mouse_2.x,mouse_2.y,mouse_2.leftButton,mouse_2.midButton,mouse_2.rightButton,mouse_2.clicked_name,special_trial.started,special_trial.stopped,catch_1.started,catch_1.stopped,mouse_3.x,mouse_3.y,mouse_3.leftButton,mouse_3.midButton,mouse_3.rightButton,catchresponse,catchnumber,response_time_catch,response_sum.started,response_sum.stopped,mouse_11.x,mouse_11.y,mouse_11.leftButton,mouse_11.midButton,mouse_11.rightButton,flip_presentation_sequence_for_double_pass.started,flip_presentation_sequence_for_double_pass.stopped,goodbye.started,goodbye.stopped,key_resp_3.keys,key_resp_3.rt,key_resp_3.duration
0.0003,0.0004,6160ccb0810a73f90ef4c5e7,2024-02-19_04h15.47.426,kallum_motion_pilot,2023.2.2,Win32,59.88023952,6160ccb0810a73f90ef4c5e7,65d2b6c8f2eece985d8e374c,65d2b9ae80b5775321cab970,,,,,,,,,,,,,,,,,,,,,,,,,,,,,,,,,,,,,,,,,,,,,,,,,,,,,,,,,,,,,,,,,,,,,,,,,,,,,,,,,,,,,,,,,,,,,,,,,,,,,,,,,,,,,,,,,,,,,,,,,,,,,,,,,,,,,,,,,,,,,,,,,
,,6160ccb0810a73f90ef4c5e7,2024-02-19_04h15.47.426,kallum_motion_pilot,2023.2.2,Win32,59.88023952,6160ccb0810a73f90ef4c5e7,65d2b6c8f2eece985d8e374c,65d2b9ae80b5775321cab970,0.0272,0.0273,0,0,0,138,1,sixfive,,,,,,,,,,,,,,,,,,,,,,,,,,,,,,,,,,,,,,,,,,,,,,,,,,,,,,,,,,,,,,,,,,,,,,,,,,,,,,,,,,,,,,,,,,,,,,,,,,,,,,,,,,,,,,,,,,,,,,,,,,,,,,,,,,,,,,,,,
,,6160ccb0810a73f90ef4c5e7,2024-02-19_04h15.47.426,kallum_motion_pilot,2023.2.2,Win32,59.88023952,6160ccb0810a73f90ef4c5e7,65d2b6c8f2eece985d8e374c,65d2b9ae80b5775321cab970,0.0276,0.0276,0,1,1,101,1,seveneight,,,,,,,,,,,,,,,,,,,,,,,,,,,,,,,,,,,,,,,,,,,,,,,,,,,,,,,,,,,,,,,,,,,,,,,,,,,,,,,,,,,,,,,,,,,,,,,,,,,,,,,,,,,,,,,,,,,,,,,,,,,,,,,,,,,,,,,,,
,,6160ccb0810a73f90ef4c5e7,2024-02-19_04h15.47.426,kallum_motion_pilot,2023.2.2,Win32,59.88023952,6160ccb0810a73f90ef4c5e7,65d2b6c8f2eece985d8e374c,65d2b9ae80b5775321cab970,0.0278,0.0279,0,2,2,40,1,onetwo,,,,,,,,,,,,,,,,,,,,,,,,,,,,,,,,,,,,,,,,,,,,,,,,,,,,,,,,,,,,,,,,,,,,,,,,,,,,,,,,,,,,,,,,,,,,,,,,,,,,,,,,,,,,,,,,,,,,,,,,,,,,,,,,,,,,,,,,,
,,6160ccb0810a73f90ef4c5e7,2024-02-19_04h15.47.426,kallum_motion_pilot,2023.2.2,Win32,59.88023952,6160ccb0810a73f90ef4c5e7,65d2b6c8f2eece985d8e374c,65d2b9ae80b5775321cab970,0.028,0.0281,0,3,3,8,1,onetwo,,,,,,,,,,,,,,,,,,,,,,,,,,,,,,,,,,,,,,,,,,,,,,,,,,,,,,,,,,,,,,,,,,,,,,,,,,,,,,,,,,,,,,,,,,,,,,,,,,,,,,,,,,,,,,,,,,,,,,,,,,,,,,,,,,,,,,,,,
,,6160ccb0810a73f90ef4c5e7,2024-02-19_04h15.47.426,kallum_motion_pilot,2023.2.2,Win32,59.88023952,6160ccb0810a73f90ef4c5e7,65d2b6c8f2eece985d8e374c,65d2b9ae80b5775321cab970,0.0282,0.0282,0,4,4,133,1,seveneight,,,,,,,,,,,,,,,,,,,,,,,,,,,,,,,,,,,,,,,,,,,,,,,,,,,,,,,,,,,,,,,,,,,,,,,,,,,,,,,,,,,,,,,,,,,,,,,,,,,,,,,,,,,,,,,,,,,,,,,,,,,,,,,,,,,,,,,,,
,,6160ccb0810a73f90ef4c5e7,2024-02-19_04h15.47.426,kallum_motion_pilot,2023.2.2,Win32,59.88023952,6160ccb0810a73f90ef4c5e7,65d2b6c8f2eece985d8e374c,65d2b9ae80b5775321cab970,0.0283,0.0284,0,5,5,127,1,eightseven,,,,,,,,,,,,,,,,,,,,,,,,,,,,,,,,,,,,,,,,,,,,,,,,,,,,,,,,,,,,,,,,,,,,,,,,,,,,,,,,,,,,,,,,,,,,,,,,,,,,,,,,,,,,,,,,,,,,,,,,,,,,,,,,,,,,,,,,,
,,6160ccb0810a73f90ef4c5e7,2024-02-19_04h15.47.426,kallum_motion_pilot,2023.2.2,Win32,59.88023952,6160ccb0810a73f90ef4c5e7,65d2b6c8f2eece985d8e374c,65d2b9ae80b5775321cab970,0.0285,0.0285,0,6,6,134,1,eightsix,,,,,,,,,,,,,,,,,,,,,,,,,,,,,,,,,,,,,,,,,,,,,,,,,,,,,,,,,,,,,,,,,,,,,,,,,,,,,,,,,,,,,,,,,,,,,,,,,,,,,,,,,,,,,,,,,,,,,,,,,,,,,,,,,,,,,,,,,
,,6160ccb0810a73f90ef4c5e7,2024-02-19_04h15.47.426,kallum_motion_pilot,2023.2.2,Win32,59.88023952,6160ccb0810a73f90ef4c5e7,65d2b6c8f2eece985d8e374c,65d2b9ae80b5775321cab970,0.0287,0.0287,0,7,7,33,1,onethree,,,,,,,,,,,,,,,,,,,,,,,,,,,,,,,,,,,,,,,,,,,,,,,,,,,,,,,,,,,,,,,,,,,,,,,,,,,,,,,,,,,,,,,,,,,,,,,,,,,,,,,,,,,,,,,,,,,,,,,,,,,,,,,,,,,,,,,,,
,,6160ccb0810a73f90ef4c5e7,2024-02-19_04h15.47.426,kallum_motion_pilot,2023.2.2,Win32,59.88023952,6160ccb0810a73f90ef4c5e7,65d2b6c8f2eece985d8e374c,65d2b9ae80b5775321cab970,0.029,0.0291,0,8,8,85,1,seveneight,,,,,,,,,,,,,,,,,,,,,,,,,,,,,,,,,,,,,,,,,,,,,,,,,,,,,,,,,,,,,,,,,,,,,,,,,,,,,,,,,,,,,,,,,,,,,,,,,,,,,,,,,,,,,,,,,,,,,,,,,,,,,,,,,,,,,,,,,
,,6160ccb0810a73f90ef4c5e7,2024-02-19_04h15.47.426,kallum_motion_pilot,2023.2.2,Win32,59.88023952,6160ccb0810a73f90ef4c5e7,65d2b6c8f2eece985d8e374c,65d2b9ae80b5775321cab970,0.0293,0.0293,0,9,9,107,1,sixeight,,,,,,,,,,,,,,,,,,,,,,,,,,,,,,,,,,,,,,,,,,,,,,,,,,,,,,,,,,,,,,,,,,,,,,,,,,,,,,,,,,,,,,,,,,,,,,,,,,,,,,,,,,,,,,,,,,,,,,,,,,,,,,,,,,,,,,,,,
,,6160ccb0810a73f90ef4c5e7,2024-02-19_04h15.47.426,kallum_motion_pilot,2023.2.2,Win32,59.88023952,6160ccb0810a73f90ef4c5e7,65d2b6c8f2eece985d8e374c,65d2b9ae80b5775321cab970,0.0295,0.0295,0,10,10,104,1,fivesix,,,,,,,,,,,,,,,,,,,,,,,,,,,,,,,,,,,,,,,,,,,,,,,,,,,,,,,,,,,,,,,,,,,,,,,,,,,,,,,,,,,,,,,,,,,,,,,,,,,,,,,,,,,,,,,,,,,,,,,,,,,,,,,,,,,,,,,,,
,,6160ccb0810a73f90ef4c5e7,2024-02-19_04h15.47.426,kallum_motion_pilot,2023.2.2,Win32,59.88023952,6160ccb0810a73f90ef4c5e7,65d2b6c8f2eece985d8e374c,65d2b9ae80b5775321cab970,0.0296,0.0296,0,11,11,22,1,fourtwo,,,,,,,,,,,,,,,,,,,,,,,,,,,,,,,,,,,,,,,,,,,,,,,,,,,,,,,,,,,,,,,,,,,,,,,,,,,,,,,,,,,,,,,,,,,,,,,,,,,,,,,,,,,,,,,,,,,,,,,,,,,,,,,,,,,,,,,,,
,,6160ccb0810a73f90ef4c5e7,2024-02-19_04h15.47.426,kallum_motion_pilot,2023.2.2,Win32,59.88023952,6160ccb0810a73f90ef4c5e7,65d2b6c8f2eece985d8e374c,65d2b9ae80b5775321cab970,0.0298,0.0299,0,12,12,131,1,sixeight,,,,,,,,,,,,,,,,,,,,,,,,,,,,,,,,,,,,,,,,,,,,,,,,,,,,,,,,,,,,,,,,,,,,,,,,,,,,,,,,,,,,,,,,,,,,,,,,,,,,,,,,,,,,,,,,,,,,,,,,,,,,,,,,,,,,,,,,,
,,6160ccb0810a73f90ef4c5e7,2024-02-19_04h15.47.426,kallum_motion_pilot,2023.2.2,Win32,59.88023952,6160ccb0810a73f90ef4c5e7,65d2b6c8f2eece985d8e374c,65d2b9ae80b5775321cab970,0.0302,0.0304,0,13,13,39,1,fourthree,,,,,,,,,,,,,,,,,,,,,,,,,,,,,,,,,,,,,,,,,,,,,,,,,,,,,,,,,,,,,,,,,,,,,,,,,,,,,,,,,,,,,,,,,,,,,,,,,,,,,,,,,,,,,,,,,,,,,,,,,,,,,,,,,,,,,,,,,
,,6160ccb0810a73f90ef4c5e7,2024-02-19_04h15.47.426,kallum_motion_pilot,2023.2.2,Win32,59.88023952,6160ccb0810a73f90ef4c5e7,65d2b6c8f2eece985d8e374c,65d2b9ae80b5775321cab970,0.0307,0.0307,0,14,14,30,1,fourtwo,,,,,,,,,,,,,,,,,,,,,,,,,,,,,,,,,,,,,,,,,,,,,,,,,,,,,,,,,,,,,,,,,,,,,,,,,,,,,,,,,,,,,,,,,,,,,,,,,,,,,,,,,,,,,,,,,,,,,,,,,,,,,,,,,,,,,,,,,
,,6160ccb0810a73f90ef4c5e7,2024-02-19_04h15.47.426,kallum_motion_pilot,2023.2.2,Win32,59.88023952,6160ccb0810a73f90ef4c5e7,65d2b6c8f2eece985d8e374c,65d2b9ae80b5775321cab970,0.0311,0.0312,0,15,15,117,1,seveneight,,,,,,,,,,,,,,,,,,,,,,,,,,,,,,,,,,,,,,,,,,,,,,,,,,,,,,,,,,,,,,,,,,,,,,,,,,,,,,,,,,,,,,,,,,,,,,,,,,,,,,,,,,,,,,,,,,,,,,,,,,,,,,,,,,,,,,,,,
,,6160ccb0810a73f90ef4c5e7,2024-02-19_04h15.47.426,kallum_motion_pilot,2023.2.2,Win32,59.88023952,6160ccb0810a73f90ef4c5e7,65d2b6c8f2eece985d8e374c,65d2b9ae80b5775321cab970,0.0314,0.0315,0,16,16,90,1,sixfive,,,,,,,,,,,,,,,,,,,,,,,,,,,,,,,,,,,,,,,,,,,,,,,,,,,,,,,,,,,,,,,,,,,,,,,,,,,,,,,,,,,,,,,,,,,,,,,,,,,,,,,,,,,,,,,,,,,,,,,,,,,,,,,,,,,,,,,,,
,,6160ccb0810a73f90ef4c5e7,2024-02-19_04h15.47.426,kallum_motion_pilot,2023.2.2,Win32,59.88023952,6160ccb0810a73f90ef4c5e7,65d2b6c8f2eece985d8e374c,65d2b9ae80b5775321cab970,0.0315,0.0316,0,17,17,93,1,seveneight,,,,,,,,,,,,,,,,,,,,,,,,,,,,,,,,,,,,,,,,,,,,,,,,,,,,,,,,,,,,,,,,,,,,,,,,,,,,,,,,,,,,,,,,,,,,,,,,,,,,,,,,,,,,,,,,,,,,,,,,,,,,,,,,,,,,,,,,,
,,6160ccb0810a73f90ef4c5e7,2024-02-19_04h15.47.426,kallum_motion_pilot,2023.2.2,Win32,59.88023952,6160ccb0810a73f90ef4c5e7,65d2b6c8f2eece985d8e374c,65d2b9ae80b5775321cab970,0.0317,0.0317,0,18,18,109,1,seveneight,,,,,,,,,,,,,,,,,,,,,,,,,,,,,,,,,,,,,,,,,,,,,,,,,,,,,,,,,,,,,,,,,,,,,,,,,,,,,,,,,,,,,,,,,,,,,,,,,,,,,,,,,,,,,,,,,,,,,,,,,,,,,,,,,,,,,,,,,
,,6160ccb0810a73f90ef4c5e7,2024-02-19_04h15.47.426,kallum_motion_pilot,2023.2.2,Win32,59.88023952,6160ccb0810a73f90ef4c5e7,65d2b6c8f2eece985d8e374c,65d2b9ae80b5775321cab970,0.0319,0.0319,0,19,19,102,1,eightsix,,,,,,,,,,,,,,,,,,,,,,,,,,,,,,,,,,,,,,,,,,,,,,,,,,,,,,,,,,,,,,,,,,,,,,,,,,,,,,,,,,,,,,,,,,,,,,,,,,,,,,,,,,,,,,,,,,,,,,,,,,,,,,,,,,,,,,,,,
,,6160ccb0810a73f90ef4c5e7,2024-02-19_04h15.47.426,kallum_motion_pilot,2023.2.2,Win32,59.88023952,6160ccb0810a73f90ef4c5e7,65d2b6c8f2eece985d8e374c,65d2b9ae80b5775321cab970,0.032,0.032,0,20,20,51,1,twofour,,,,,,,,,,,,,,,,,,,,,,,,,,,,,,,,,,,,,,,,,,,,,,,,,,,,,,,,,,,,,,,,,,,,,,,,,,,,,,,,,,,,,,,,,,,,,,,,,,,,,,,,,,,,,,,,,,,,,,,,,,,,,,,,,,,,,,,,,
,,6160ccb0810a73f90ef4c5e7,2024-02-19_04h15.47.426,kallum_motion_pilot,2023.2.2,Win32,59.88023952,6160ccb0810a73f90ef4c5e7,65d2b6c8f2eece985d8e374c,65d2b9ae80b5775321cab970,0.0321,0.0321,0,21,21,136,1,fivesix,,,,,,,,,,,,,,,,,,,,,,,,,,,,,,,,,,,,,,,,,,,,,,,,,,,,,,,,,,,,,,,,,,,,,,,,,,,,,,,,,,,,,,,,,,,,,,,,,,,,,,,,,,,,,,,,,,,,,,,,,,,,,,,,,,,,,,,,,
,,6160ccb0810a73f90ef4c5e7,2024-02-19_04h15.47.426,kallum_motion_pilot,2023.2.2,Win32,59.88023952,6160ccb0810a73f90ef4c5e7,65d2b6c8f2eece985d8e374c,65d2b9ae80b5775321cab970,0.0322,0.0323,0,22,22,116,1,sevenfive,,,,,,,,,,,,,,,,,,,,,,,,,,,,,,,,,,,,,,,,,,,,,,,,,,,,,,,,,,,,,,,,,,,,,,,,,,,,,,,,,,,,,,,,,,,,,,,,,,,,,,,,,,,,,,,,,,,,,,,,,,,,,,,,,,,,,,,,,
,,6160ccb0810a73f90ef4c5e7,2024-02-19_04h15.47.426,kallum_motion_pilot,2023.2.2,Win32,59.88023952,6160ccb0810a73f90ef4c5e7,65d2b6c8f2eece985d8e374c,65d2b9ae80b5775321cab970,0.0324,0.0324,0,23,23,43,1,twofour,,,,,,,,,,,,,,,,,,,,,,,,,,,,,,,,,,,,,,,,,,,,,,,,,,,,,,,,,,,,,,,,,,,,,,,,,,,,,,,,,,,,,,,,,,,,,,,,,,,,,,,,,,,,,,,,,,,,,,,,,,,,,,,,,,,,,,,,,
,,6160ccb0810a73f90ef4c5e7,2024-02-19_04h15.47.426,kallum_motion_pilot,2023.2.2,Win32,59.88023952,6160ccb0810a73f90ef4c5e7,65d2b6c8f2eece985d8e374c,65d2b9ae80b5775321cab970,0.0325,0.0325,0,24,24,2,1,twoone,,,,,,,,,,,,,,,,,,,,,,,,,,,,,,,,,,,,,,,,,,,,,,,,,,,,,,,,,,,,,,,,,,,,,,,,,,,,,,,,,,,,,,,,,,,,,,,,,,,,,,,,,,,,,,,,,,,,,,,,,,,,,,,,,,,,,,,,,
,,6160ccb0810a73f90ef4c5e7,2024-02-19_04h15.47.426,kallum_motion_pilot,2023.2.2,Win32,59.88023952,6160ccb0810a73f90ef4c5e7,65d2b6c8f2eece985d8e374c,65d2b9ae80b5775321cab970,0.0328,0.0328,0,25,25,47,1,fourthree,,,,,,,,,,,,,,,,,,,,,,,,,,,,,,,,,,,,,,,,,,,,,,,,,,,,,,,,,,,,,,,,,,,,,,,,,,,,,,,,,,,,,,,,,,,,,,,,,,,,,,,,,,,,,,,,,,,,,,,,,,,,,,,,,,,,,,,,,
,,6160ccb0810a73f90ef4c5e7,2024-02-19_04h15.47.426,kallum_motion_pilot,2023.2.2,Win32,59.88023952,6160ccb0810a73f90ef4c5e7,65d2b6c8f2eece985d8e374c,65d2b9ae80b5775321cab970,0.0328,0.0329,0,26,26,57,1,onethree,,,,,,,,,,,,,,,,,,,,,,,,,,,,,,,,,,,,,,,,,,,,,,,,,,,,,,,,,,,,,,,,,,,,,,,,,,,,,,,,,,,,,,,,,,,,,,,,,,,,,,,,,,,,,,,,,,,,,,,,,,,,,,,,,,,,,,,,,
,,6160ccb0810a73f90ef4c5e7,2024-02-19_04h15.47.426,kallum_motion_pilot,2023.2.2,Win32,59.88023952,6160ccb0810a73f90ef4c5e7,65d2b6c8f2eece985d8e374c,65d2b9ae80b5775321cab970,0.033,0.0331,0,27,27,78,1,fourtwo,,,,,,,,,,,,,,,,,,,,,,,,,,,,,,,,,,,,,,,,,,,,,,,,,,,,,,,,,,,,,,,,,,,,,,,,,,,,,,,,,,,,,,,,,,,,,,,,,,,,,,,,,,,,,,,,,,,,,,,,,,,,,,,,,,,,,,,,,
,,6160ccb0810a73f90ef4c5e7,2024-02-19_04h15.47.426,kallum_motion_pilot,2023.2.2,Win32,59.88023952,6160ccb0810a73f90ef4c5e7,65d2b6c8f2eece985d8e374c,65d2b9ae80b5775321cab970,0.0331,0.0332,0,28,28,31,1,fourthree,,,,,,,,,,,,,,,,,,,,,,,,,,,,,,,,,,,,,,,,,,,,,,,,,,,,,,,,,,,,,,,,,,,,,,,,,,,,,,,,,,,,,,,,,,,,,,,,,,,,,,,,,,,,,,,,,,,,,,,,,,,,,,,,,,,,,,,,,
,,6160ccb0810a73f90ef4c5e7,2024-02-19_04h15.47.426,kallum_motion_pilot,2023.2.2,Win32,59.88023952,6160ccb0810a73f90ef4c5e7,65d2b6c8f2eece985d8e374c,65d2b9ae80b5775321cab970,0.0333,0.0334,0,29,29,77,1,threefour,,,,,,,,,,,,,,,,,,,,,,,,,,,,,,,,,,,,,,,,,,,,,,,,,,,,,,,,,,,,,,,,,,,,,,,,,,,,,,,,,,,,,,,,,,,,,,,,,,,,,,,,,,,,,,,,,,,,,,,,,,,,,,,,,,,,,,,,,
,,6160ccb0810a73f90ef4c5e7,2024-02-19_04h15.47.426,kallum_motion_pilot,2023.2.2,Win32,59.88023952,6160ccb0810a73f90ef4c5e7,65d2b6c8f2eece985d8e374c,65d2b9ae80b5775321cab970,0.0336,0.0336,0,30,30,125,1,seveneight,,,,,,,,,,,,,,,,,,,,,,,,,,,,,,,,,,,,,,,,,,,,,,,,,,,,,,,,,,,,,,,,,,,,,,,,,,,,,,,,,,,,,,,,,,,,,,,,,,,,,,,,,,,,,,,,,,,,,,,,,,,,,,,,,,,,,,,,,
,,6160ccb0810a73f90ef4c5e7,2024-02-19_04h15.47.426,kallum_motion_pilot,2023.2.2,Win32,59.88023952,6160ccb0810a73f90ef4c5e7,65d2b6c8f2eece985d8e374c,65d2b9ae80b5775321cab970,0.0337,0.0338,0,31,31,76,1,threeone,,,,,,,,,,,,,,,,,,,,,,,,,,,,,,,,,,,,,,,,,,,,,,,,,,,,,,,,,,,,,,,,,,,,,,,,,,,,,,,,,,,,,,,,,,,,,,,,,,,,,,,,,,,,,,,,,,,,,,,,,,,,,,,,,,,,,,,,,
,,6160ccb0810a73f90ef4c5e7,2024-02-19_04h15.47.426,kallum_motion_pilot,2023.2.2,Win32,59.88023952,6160ccb0810a73f90ef4c5e7,65d2b6c8f2eece985d8e374c,65d2b9ae80b5775321cab970,0.0339,0.034,0,32,32,52,1,threeone,,,,,,,,,,,,,,,,,,,,,,,,,,,,,,,,,,,,,,,,,,,,,,,,,,,,,,,,,,,,,,,,,,,,,,,,,,,,,,,,,,,,,,,,,,,,,,,,,,,,,,,,,,,,,,,,,,,,,,,,,,,,,,,,,,,,,,,,,
,,6160ccb0810a73f90ef4c5e7,2024-02-19_04h15.47.426,kallum_motion_pilot,2023.2.2,Win32,59.88023952,6160ccb0810a73f90ef4c5e7,65d2b6c8f2eece985d8e374c,65d2b9ae80b5775321cab970,0.0342,0.0342,0,33,33,120,1,fivesix,,,,,,,,,,,,,,,,,,,,,,,,,,,,,,,,,,,,,,,,,,,,,,,,,,,,,,,,,,,,,,,,,,,,,,,,,,,,,,,,,,,,,,,,,,,,,,,,,,,,,,,,,,,,,,,,,,,,,,,,,,,,,,,,,,,,,,,,,
,,6160ccb0810a73f90ef4c5e7,2024-02-19_04h15.47.426,kallum_motion_pilot,2023.2.2,Win32,59.88023952,6160ccb0810a73f90ef4c5e7,65d2b6c8f2eece985d8e374c,65d2b9ae80b5775321cab970,0.0344,0.0345,0,34,34,146,1,sixfive,,,,,,,,,,,,,,,,,,,,,,,,,,,,,,,,,,,,,,,,,,,,,,,,,,,,,,,,,,,,,,,,,,,,,,,,,,,,,,,,,,,,,,,,,,,,,,,,,,,,,,,,,,,,,,,,,,,,,,,,,,,,,,,,,,,,,,,,,
,,6160ccb0810a73f90ef4c5e7,2024-02-19_04h15.47.426,kallum_motion_pilot,2023.2.2,Win32,59.88023952,6160ccb0810a73f90ef4c5e7,65d2b6c8f2eece985d8e374c,65d2b9ae80b5775321cab970,0.0346,0.0347,0,35,35,79,1,eightseven,,,,,,,,,,,,,,,,,,,,,,,,,,,,,,,,,,,,,,,,,,,,,,,,,,,,,,,,,,,,,,,,,,,,,,,,,,,,,,,,,,,,,,,,,,,,,,,,,,,,,,,,,,,,,,,,,,,,,,,,,,,,,,,,,,,,,,,,,
,,6160ccb0810a73f90ef4c5e7,2024-02-19_04h15.47.426,kallum_motion_pilot,2023.2.2,Win32,59.88023952,6160ccb0810a73f90ef4c5e7,65d2b6c8f2eece985d8e374c,65d2b9ae80b5775321cab970,0.0349,0.0349,0,36,36,11,1,twofour,,,,,,,,,,,,,,,,,,,,,,,,,,,,,,,,,,,,,,,,,,,,,,,,,,,,,,,,,,,,,,,,,,,,,,,,,,,,,,,,,,,,,,,,,,,,,,,,,,,,,,,,,,,,,,,,,,,,,,,,,,,,,,,,,,,,,,,,,
,,6160ccb0810a73f90ef4c5e7,2024-02-19_04h15.47.426,kallum_motion_pilot,2023.2.2,Win32,59.88023952,6160ccb0810a73f90ef4c5e7,65d2b6c8f2eece985d8e374c,65d2b9ae80b5775321cab970,0.035,0.0352,0,37,37,62,1,fourtwo,,,,,,,,,,,,,,,,,,,,,,,,,,,,,,,,,,,,,,,,,,,,,,,,,,,,,,,,,,,,,,,,,,,,,,,,,,,,,,,,,,,,,,,,,,,,,,,,,,,,,,,,,,,,,,,,,,,,,,,,,,,,,,,,,,,,,,,,,
,,6160ccb0810a73f90ef4c5e7,2024-02-19_04h15.47.426,kallum_motion_pilot,2023.2.2,Win32,59.88023952,6160ccb0810a73f90ef4c5e7,65d2b6c8f2eece985d8e374c,65d2b9ae80b5775321cab970,0.0353,0.0354,0,38,38,46,1,fourtwo,,,,,,,,,,,,,,,,,,,,,,,,,,,,,,,,,,,,,,,,,,,,,,,,,,,,,,,,,,,,,,,,,,,,,,,,,,,,,,,,,,,,,,,,,,,,,,,,,,,,,,,,,,,,,,,,,,,,,,,,,,,,,,,,,,,,,,,,,
,,6160ccb0810a73f90ef4c5e7,2024-02-19_04h15.47.426,kallum_motion_pilot,2023.2.2,Win32,59.88023952,6160ccb0810a73f90ef4c5e7,65d2b6c8f2eece985d8e374c,65d2b9ae80b5775321cab970,0.0356,0.0356,0,39,39,108,1,sevenfive,,,,,,,,,,,,,,,,,,,,,,,,,,,,,,,,,,,,,,,,,,,,,,,,,,,,,,,,,,,,,,,,,,,,,,,,,,,,,,,,,,,,,,,,,,,,,,,,,,,,,,,,,,,,,,,,,,,,,,,,,,,,,,,,,,,,,,,,,
,,6160ccb0810a73f90ef4c5e7,2024-02-19_04h15.47.426,kallum_motion_pilot,2023.2.2,Win32,59.88023952,6160ccb0810a73f90ef4c5e7,65d2b6c8f2eece985d8e374c,65d2b9ae80b5775321cab970,0.0357,0.0357,0,40,40,1,1,onethree,,,,,,,,,,,,,,,,,,,,,,,,,,,,,,,,,,,,,,,,,,,,,,,,,,,,,,,,,,,,,,,,,,,,,,,,,,,,,,,,,,,,,,,,,,,,,,,,,,,,,,,,,,,,,,,,,,,,,,,,,,,,,,,,,,,,,,,,,
,,6160ccb0810a73f90ef4c5e7,2024-02-19_04h15.47.426,kallum_motion_pilot,2023.2.2,Win32,59.88023952,6160ccb0810a73f90ef4c5e7,65d2b6c8f2eece985d8e374c,65d2b9ae80b5775321cab970,0.0358,0.0359,0,41,41,68,1,threeone,,,,,,,,,,,,,,,,,,,,,,,,,,,,,,,,,,,,,,,,,,,,,,,,,,,,,,,,,,,,,,,,,,,,,,,,,,,,,,,,,,,,,,,,,,,,,,,,,,,,,,,,,,,,,,,,,,,,,,,,,,,,,,,,,,,,,,,,,
,,6160ccb0810a73f90ef4c5e7,2024-02-19_04h15.47.426,kallum_motion_pilot,2023.2.2,Win32,59.88023952,6160ccb0810a73f90ef4c5e7,65d2b6c8f2eece985d8e374c,65d2b9ae80b5775321cab970,0.036,0.036,0,42,42,115,1,sixeight,,,,,,,,,,,,,,,,,,,,,,,,,,,,,,,,,,,,,,,,,,,,,,,,,,,,,,,,,,,,,,,,,,,,,,,,,,,,,,,,,,,,,,,,,,,,,,,,,,,,,,,,,,,,,,,,,,,,,,,,,,,,,,,,,,,,,,,,,
,,6160ccb0810a73f90ef4c5e7,2024-02-19_04h15.47.426,kallum_motion_pilot,2023.2.2,Win32,59.88023952,6160ccb0810a73f90ef4c5e7,65d2b6c8f2eece985d8e374c,65d2b9ae80b5775321cab970,0.0362,0.0364,0,43,43,130,1,sixfive,,,,,,,,,,,,,,,,,,,,,,,,,,,,,,,,,,,,,,,,,,,,,,,,,,,,,,,,,,,,,,,,,,,,,,,,,,,,,,,,,,,,,,,,,,,,,,,,,,,,,,,,,,,,,,,,,,,,,,,,,,,,,,,,,,,,,,,,,
,,6160ccb0810a73f90ef4c5e7,2024-02-19_04h15.47.426,kallum_motion_pilot,2023.2.2,Win32,59.88023952,6160ccb0810a73f90ef4c5e7,65d2b6c8f2eece985d8e374c,65d2b9ae80b5775321cab970,0.0365,0.0366,0,44,44,24,1,onetwo,,,,,,,,,,,,,,,,,,,,,,,,,,,,,,,,,,,,,,,,,,,,,,,,,,,,,,,,,,,,,,,,,,,,,,,,,,,,,,,,,,,,,,,,,,,,,,,,,,,,,,,,,,,,,,,,,,,,,,,,,,,,,,,,,,,,,,,,,
,,6160ccb0810a73f90ef4c5e7,2024-02-19_04h15.47.426,kallum_motion_pilot,2023.2.2,Win32,59.88023952,6160ccb0810a73f90ef4c5e7,65d2b6c8f2eece985d8e374c,65d2b9ae80b5775321cab970,0.0366,0.0367,0,45,45,153,1,fiveseven,,,,,,,,,,,,,,,,,,,,,,,,,,,,,,,,,,,,,,,,,,,,,,,,,,,,,,,,,,,,,,,,,,,,,,,,,,,,,,,,,,,,,,,,,,,,,,,,,,,,,,,,,,,,,,,,,,,,,,,,,,,,,,,,,,,,,,,,,
,,6160ccb0810a73f90ef4c5e7,2024-02-19_04h15.47.426,kallum_motion_pilot,2023.2.2,Win32,59.88023952,6160ccb0810a73f90ef4c5e7,65d2b6c8f2eece985d8e374c,65d2b9ae80b5775321cab970,0.0368,0.0368,0,46,46,75,1,twofour,,,,,,,,,,,,,,,,,,,,,,,,,,,,,,,,,,,,,,,,,,,,,,,,,,,,,,,,,,,,,,,,,,,,,,,,,,,,,,,,,,,,,,,,,,,,,,,,,,,,,,,,,,,,,,,,,,,,,,,,,,,,,,,,,,,,,,,,,
,,6160ccb0810a73f90ef4c5e7,2024-02-19_04h15.47.426,kallum_motion_pilot,2023.2.2,Win32,59.88023952,6160ccb0810a73f90ef4c5e7,65d2b6c8f2eece985d8e374c,65d2b9ae80b5775321cab970,0.0369,0.037,0,47,47,152,1,fivesix,,,,,,,,,,,,,,,,,,,,,,,,,,,,,,,,,,,,,,,,,,,,,,,,,,,,,,,,,,,,,,,,,,,,,,,,,,,,,,,,,,,,,,,,,,,,,,,,,,,,,,,,,,,,,,,,,,,,,,,,,,,,,,,,,,,,,,,,,
,,6160ccb0810a73f90ef4c5e7,2024-02-19_04h15.47.426,kallum_motion_pilot,2023.2.2,Win32,59.88023952,6160ccb0810a73f90ef4c5e7,65d2b6c8f2eece985d8e374c,65d2b9ae80b5775321cab970,0.0371,0.0371,0,48,48,103,1,eightseven,,,,,,,,,,,,,,,,,,,,,,,,,,,,,,,,,,,,,,,,,,,,,,,,,,,,,,,,,,,,,,,,,,,,,,,,,,,,,,,,,,,,,,,,,,,,,,,,,,,,,,,,,,,,,,,,,,,,,,,,,,,,,,,,,,,,,,,,,
,,6160ccb0810a73f90ef4c5e7,2024-02-19_04h15.47.426,kallum_motion_pilot,2023.2.2,Win32,59.88023952,6160ccb0810a73f90ef4c5e7,65d2b6c8f2eece985d8e374c,65d2b9ae80b5775321cab970,0.0372,0.0373,0,49,49,129,1,fiveseven,,,,,,,,,,,,,,,,,,,,,,,,,,,,,,,,,,,,,,,,,,,,,,,,,,,,,,,,,,,,,,,,,,,,,,,,,,,,,,,,,,,,,,,,,,,,,,,,,,,,,,,,,,,,,,,,,,,,,,,,,,,,,,,,,,,,,,,,,
,,6160ccb0810a73f90ef4c5e7,2024-02-19_04h15.47.426,kallum_motion_pilot,2023.2.2,Win32,59.88023952,6160ccb0810a73f90ef4c5e7,65d2b6c8f2eece985d8e374c,65d2b9ae80b5775321cab970,0.0373,0.0374,0,50,50,17,1,onethree,,,,,,,,,,,,,,,,,,,,,,,,,,,,,,,,,,,,,,,,,,,,,,,,,,,,,,,,,,,,,,,,,,,,,,,,,,,,,,,,,,,,,,,,,,,,,,,,,,,,,,,,,,,,,,,,,,,,,,,,,,,,,,,,,,,,,,,,,
,,6160ccb0810a73f90ef4c5e7,2024-02-19_04h15.47.426,kallum_motion_pilot,2023.2.2,Win32,59.88023952,6160ccb0810a73f90ef4c5e7,65d2b6c8f2eece985d8e374c,65d2b9ae80b5775321cab970,0.0386,0.0387,0,51,51,99,1,sixeight,,,,,,,,,,,,,,,,,,,,,,,,,,,,,,,,,,,,,,,,,,,,,,,,,,,,,,,,,,,,,,,,,,,,,,,,,,,,,,,,,,,,,,,,,,,,,,,,,,,,,,,,,,,,,,,,,,,,,,,,,,,,,,,,,,,,,,,,,
,,6160ccb0810a73f90ef4c5e7,2024-02-19_04h15.47.426,kallum_motion_pilot,2023.2.2,Win32,59.88023952,6160ccb0810a73f90ef4c5e7,65d2b6c8f2eece985d8e374c,65d2b9ae80b5775321cab970,0.0388,0.0389,0,52,52,14,1,fourtwo,,,,,,,,,,,,,,,,,,,,,,,,,,,,,,,,,,,,,,,,,,,,,,,,,,,,,,,,,,,,,,,,,,,,,,,,,,,,,,,,,,,,,,,,,,,,,,,,,,,,,,,,,,,,,,,,,,,,,,,,,,,,,,,,,,,,,,,,,
,,6160ccb0810a73f90ef4c5e7,2024-02-19_04h15.47.426,kallum_motion_pilot,2023.2.2,Win32,59.88023952,6160ccb0810a73f90ef4c5e7,65d2b6c8f2eece985d8e374c,65d2b9ae80b5775321cab970,0.039,0.0392,0,53,53,3,1,twofour,,,,,,,,,,,,,,,,,,,,,,,,,,,,,,,,,,,,,,,,,,,,,,,,,,,,,,,,,,,,,,,,,,,,,,,,,,,,,,,,,,,,,,,,,,,,,,,,,,,,,,,,,,,,,,,,,,,,,,,,,,,,,,,,,,,,,,,,,
,,6160ccb0810a73f90ef4c5e7,2024-02-19_04h15.47.426,kallum_motion_pilot,2023.2.2,Win32,59.88023952,6160ccb0810a73f90ef4c5e7,65d2b6c8f2eece985d8e374c,65d2b9ae80b5775321cab970,0.0393,0.0393,0,54,54,56,1,onetwo,,,,,,,,,,,,,,,,,,,,,,,,,,,,,,,,,,,,,,,,,,,,,,,,,,,,,,,,,,,,,,,,,,,,,,,,,,,,,,,,,,,,,,,,,,,,,,,,,,,,,,,,,,,,,,,,,,,,,,,,,,,,,,,,,,,,,,,,,
,,6160ccb0810a73f90ef4c5e7,2024-02-19_04h15.47.426,kallum_motion_pilot,2023.2.2,Win32,59.88023952,6160ccb0810a73f90ef4c5e7,65d2b6c8f2eece985d8e374c,65d2b9ae80b5775321cab970,0.0394,0.0394,0,55,55,69,1,threefour,,,,,,,,,,,,,,,,,,,,,,,,,,,,,,,,,,,,,,,,,,,,,,,,,,,,,,,,,,,,,,,,,,,,,,,,,,,,,,,,,,,,,,,,,,,,,,,,,,,,,,,,,,,,,,,,,,,,,,,,,,,,,,,,,,,,,,,,,
,,6160ccb0810a73f90ef4c5e7,2024-02-19_04h15.47.426,kallum_motion_pilot,2023.2.2,Win32,59.88023952,6160ccb0810a73f90ef4c5e7,65d2b6c8f2eece985d8e374c,65d2b9ae80b5775321cab970,0.0395,0.0396,0,56,56,137,1,fiveseven,,,,,,,,,,,,,,,,,,,,,,,,,,,,,,,,,,,,,,,,,,,,,,,,,,,,,,,,,,,,,,,,,,,,,,,,,,,,,,,,,,,,,,,,,,,,,,,,,,,,,,,,,,,,,,,,,,,,,,,,,,,,,,,,,,,,,,,,,
,,6160ccb0810a73f90ef4c5e7,2024-02-19_04h15.47.426,kallum_motion_pilot,2023.2.2,Win32,59.88023952,6160ccb0810a73f90ef4c5e7,65d2b6c8f2eece985d8e374c,65d2b9ae80b5775321cab970,0.0396,0.0397,0,57,57,16,1,onetwo,,,,,,,,,,,,,,,,,,,,,,,,,,,,,,,,,,,,,,,,,,,,,,,,,,,,,,,,,,,,,,,,,,,,,,,,,,,,,,,,,,,,,,,,,,,,,,,,,,,,,,,,,,,,,,,,,,,,,,,,,,,,,,,,,,,,,,,,,
,,6160ccb0810a73f90ef4c5e7,2024-02-19_04h15.47.426,kallum_motion_pilot,2023.2.2,Win32,59.88023952,6160ccb0810a73f90ef4c5e7,65d2b6c8f2eece985d8e374c,65d2b9ae80b5775321cab970,0.0398,0.0398,0,58,58,148,1,sevenfive,,,,,,,,,,,,,,,,,,,,,,,,,,,,,,,,,,,,,,,,,,,,,,,,,,,,,,,,,,,,,,,,,,,,,,,,,,,,,,,,,,,,,,,,,,,,,,,,,,,,,,,,,,,,,,,,,,,,,,,,,,,,,,,,,,,,,,,,,
,,6160ccb0810a73f90ef4c5e7,2024-02-19_04h15.47.426,kallum_motion_pilot,2023.2.2,Win32,59.88023952,6160ccb0810a73f90ef4c5e7,65d2b6c8f2eece985d8e374c,65d2b9ae80b5775321cab970,0.0399,0.0399,0,59,59,98,1,sixfive,,,,,,,,,,,,,,,,,,,,,,,,,,,,,,,,,,,,,,,,,,,,,,,,,,,,,,,,,,,,,,,,,,,,,,,,,,,,,,,,,,,,,,,,,,,,,,,,,,,,,,,,,,,,,,,,,,,,,,,,,,,,,,,,,,,,,,,,,
,,6160ccb0810a73f90ef4c5e7,2024-02-19_04h15.47.426,kallum_motion_pilot,2023.2.2,Win32,59.88023952,6160ccb0810a73f90ef4c5e7,65d2b6c8f2eece985d8e374c,65d2b9ae80b5775321cab970,0.04,0.0401,0,60,60,25,1,onethree,,,,,,,,,,,,,,,,,,,,,,,,,,,,,,,,,,,,,,,,,,,,,,,,,,,,,,,,,,,,,,,,,,,,,,,,,,,,,,,,,,,,,,,,,,,,,,,,,,,,,,,,,,,,,,,,,,,,,,,,,,,,,,,,,,,,,,,,,
,,6160ccb0810a73f90ef4c5e7,2024-02-19_04h15.47.426,kallum_motion_pilot,2023.2.2,Win32,59.88023952,6160ccb0810a73f90ef4c5e7,65d2b6c8f2eece985d8e374c,65d2b9ae80b5775321cab970,0.0402,0.0402,0,61,61,53,1,threefour,,,,,,,,,,,,,,,,,,,,,,,,,,,,,,,,,,,,,,,,,,,,,,,,,,,,,,,,,,,,,,,,,,,,,,,,,,,,,,,,,,,,,,,,,,,,,,,,,,,,,,,,,,,,,,,,,,,,,,,,,,,,,,,,,,,,,,,,,
,,6160ccb0810a73f90ef4c5e7,2024-02-19_04h15.47.426,kallum_motion_pilot,2023.2.2,Win32,59.88023952,6160ccb0810a73f90ef4c5e7,65d2b6c8f2eece985d8e374c,65d2b9ae80b5775321cab970,0.0403,0.0404,0,62,62,91,1,sixeight,,,,,,,,,,,,,,,,,,,,,,,,,,,,,,,,,,,,,,,,,,,,,,,,,,,,,,,,,,,,,,,,,,,,,,,,,,,,,,,,,,,,,,,,,,,,,,,,,,,,,,,,,,,,,,,,,,,,,,,,,,,,,,,,,,,,,,,,,
,,6160ccb0810a73f90ef4c5e7,2024-02-19_04h15.47.426,kallum_motion_pilot,2023.2.2,Win32,59.88023952,6160ccb0810a73f90ef4c5e7,65d2b6c8f2eece985d8e374c,65d2b9ae80b5775321cab970,0.0405,0.0406,0,63,63,139,1,sixeight,,,,,,,,,,,,,,,,,,,,,,,,,,,,,,,,,,,,,,,,,,,,,,,,,,,,,,,,,,,,,,,,,,,,,,,,,,,,,,,,,,,,,,,,,,,,,,,,,,,,,,,,,,,,,,,,,,,,,,,,,,,,,,,,,,,,,,,,,
,,6160ccb0810a73f90ef4c5e7,2024-02-19_04h15.47.426,kallum_motion_pilot,2023.2.2,Win32,59.88023952,6160ccb0810a73f90ef4c5e7,65d2b6c8f2eece985d8e374c,65d2b9ae80b5775321cab970,0.0407,0.0408,0,64,64,36,1,threeone,,,,,,,,,,,,,,,,,,,,,,,,,,,,,,,,,,,,,,,,,,,,,,,,,,,,,,,,,,,,,,,,,,,,,,,,,,,,,,,,,,,,,,,,,,,,,,,,,,,,,,,,,,,,,,,,,,,,,,,,,,,,,,,,,,,,,,,,,
,,6160ccb0810a73f90ef4c5e7,2024-02-19_04h15.47.426,kallum_motion_pilot,2023.2.2,Win32,59.88023952,6160ccb0810a73f90ef4c5e7,65d2b6c8f2eece985d8e374c,65d2b9ae80b5775321cab970,0.0409,0.041,0,65,65,94,1,eightsix,,,,,,,,,,,,,,,,,,,,,,,,,,,,,,,,,,,,,,,,,,,,,,,,,,,,,,,,,,,,,,,,,,,,,,,,,,,,,,,,,,,,,,,,,,,,,,,,,,,,,,,,,,,,,,,,,,,,,,,,,,,,,,,,,,,,,,,,,
,,6160ccb0810a73f90ef4c5e7,2024-02-19_04h15.47.426,kallum_motion_pilot,2023.2.2,Win32,59.88023952,6160ccb0810a73f90ef4c5e7,65d2b6c8f2eece985d8e374c,65d2b9ae80b5775321cab970,0.0411,0.0411,0,66,66,21,1,threefour,,,,,,,,,,,,,,,,,,,,,,,,,,,,,,,,,,,,,,,,,,,,,,,,,,,,,,,,,,,,,,,,,,,,,,,,,,,,,,,,,,,,,,,,,,,,,,,,,,,,,,,,,,,,,,,,,,,,,,,,,,,,,,,,,,,,,,,,,
,,6160ccb0810a73f90ef4c5e7,2024-02-19_04h15.47.426,kallum_motion_pilot,2023.2.2,Win32,59.88023952,6160ccb0810a73f90ef4c5e7,65d2b6c8f2eece985d8e374c,65d2b9ae80b5775321cab970,0.0412,0.0413,0,67,67,124,1,sevenfive,,,,,,,,,,,,,,,,,,,,,,,,,,,,,,,,,,,,,,,,,,,,,,,,,,,,,,,,,,,,,,,,,,,,,,,,,,,,,,,,,,,,,,,,,,,,,,,,,,,,,,,,,,,,,,,,,,,,,,,,,,,,,,,,,,,,,,,,,
,,6160ccb0810a73f90ef4c5e7,2024-02-19_04h15.47.426,kallum_motion_pilot,2023.2.2,Win32,59.88023952,6160ccb0810a73f90ef4c5e7,65d2b6c8f2eece985d8e374c,65d2b9ae80b5775321cab970,0.0415,0.0415,0,68,68,111,1,eightseven,,,,,,,,,,,,,,,,,,,,,,,,,,,,,,,,,,,,,,,,,,,,,,,,,,,,,,,,,,,,,,,,,,,,,,,,,,,,,,,,,,,,,,,,,,,,,,,,,,,,,,,,,,,,,,,,,,,,,,,,,,,,,,,,,,,,,,,,,
,,6160ccb0810a73f90ef4c5e7,2024-02-19_04h15.47.426,kallum_motion_pilot,2023.2.2,Win32,59.88023952,6160ccb0810a73f90ef4c5e7,65d2b6c8f2eece985d8e374c,65d2b9ae80b5775321cab970,0.0416,0.0416,0,69,69,114,1,sixfive,,,,,,,,,,,,,,,,,,,,,,,,,,,,,,,,,,,,,,,,,,,,,,,,,,,,,,,,,,,,,,,,,,,,,,,,,,,,,,,,,,,,,,,,,,,,,,,,,,,,,,,,,,,,,,,,,,,,,,,,,,,,,,,,,,,,,,,,,
,,6160ccb0810a73f90ef4c5e7,2024-02-19_04h15.47.426,kallum_motion_pilot,2023.2.2,Win32,59.88023952,6160ccb0810a73f90ef4c5e7,65d2b6c8f2eece985d8e374c,65d2b9ae80b5775321cab970,0.0418,0.0419,0,70,70,95,1,eightseven,,,,,,,,,,,,,,,,,,,,,,,,,,,,,,,,,,,,,,,,,,,,,,,,,,,,,,,,,,,,,,,,,,,,,,,,,,,,,,,,,,,,,,,,,,,,,,,,,,,,,,,,,,,,,,,,,,,,,,,,,,,,,,,,,,,,,,,,,
,,6160ccb0810a73f90ef4c5e7,2024-02-19_04h15.47.426,kallum_motion_pilot,2023.2.2,Win32,59.88023952,6160ccb0810a73f90ef4c5e7,65d2b6c8f2eece985d8e374c,65d2b9ae80b5775321cab970,0.042,0.0421,0,71,71,72,1,onetwo,,,,,,,,,,,,,,,,,,,,,,,,,,,,,,,,,,,,,,,,,,,,,,,,,,,,,,,,,,,,,,,,,,,,,,,,,,,,,,,,,,,,,,,,,,,,,,,,,,,,,,,,,,,,,,,,,,,,,,,,,,,,,,,,,,,,,,,,,
,,6160ccb0810a73f90ef4c5e7,2024-02-19_04h15.47.426,kallum_motion_pilot,2023.2.2,Win32,59.88023952,6160ccb0810a73f90ef4c5e7,65d2b6c8f2eece985d8e374c,65d2b9ae80b5775321cab970,0.0421,0.0423,0,72,72,100,1,sevenfive,,,,,,,,,,,,,,,,,,,,,,,,,,,,,,,,,,,,,,,,,,,,,,,,,,,,,,,,,,,,,,,,,,,,,,,,,,,,,,,,,,,,,,,,,,,,,,,,,,,,,,,,,,,,,,,,,,,,,,,,,,,,,,,,,,,,,,,,,
,,6160ccb0810a73f90ef4c5e7,2024-02-19_04h15.47.426,kallum_motion_pilot,2023.2.2,Win32,59.88023952,6160ccb0810a73f90ef4c5e7,65d2b6c8f2eece985d8e374c,65d2b9ae80b5775321cab970,0.0425,0.0426,0,73,73,55,1,fourthree,,,,,,,,,,,,,,,,,,,,,,,,,,,,,,,,,,,,,,,,,,,,,,,,,,,,,,,,,,,,,,,,,,,,,,,,,,,,,,,,,,,,,,,,,,,,,,,,,,,,,,,,,,,,,,,,,,,,,,,,,,,,,,,,,,,,,,,,,
,,6160ccb0810a73f90ef4c5e7,2024-02-19_04h15.47.426,kallum_motion_pilot,2023.2.2,Win32,59.88023952,6160ccb0810a73f90ef4c5e7,65d2b6c8f2eece985d8e374c,65d2b9ae80b5775321cab970,0.043,0.0432,0,74,74,126,1,eightsix,,,,,,,,,,,,,,,,,,,,,,,,,,,,,,,,,,,,,,,,,,,,,,,,,,,,,,,,,,,,,,,,,,,,,,,,,,,,,,,,,,,,,,,,,,,,,,,,,,,,,,,,,,,,,,,,,,,,,,,,,,,,,,,,,,,,,,,,,
,,6160ccb0810a73f90ef4c5e7,2024-02-19_04h15.47.426,kallum_motion_pilot,2023.2.2,Win32,59.88023952,6160ccb0810a73f90ef4c5e7,65d2b6c8f2eece985d8e374c,65d2b9ae80b5775321cab970,0.0434,0.0437,0,75,75,119,1,eightseven,,,,,,,,,,,,,,,,,,,,,,,,,,,,,,,,,,,,,,,,,,,,,,,,,,,,,,,,,,,,,,,,,,,,,,,,,,,,,,,,,,,,,,,,,,,,,,,,,,,,,,,,,,,,,,,,,,,,,,,,,,,,,,,,,,,,,,,,,
,,6160ccb0810a73f90ef4c5e7,2024-02-19_04h15.47.426,kallum_motion_pilot,2023.2.2,Win32,59.88023952,6160ccb0810a73f90ef4c5e7,65d2b6c8f2eece985d8e374c,65d2b9ae80b5775321cab970,0.044,0.0442,0,76,76,19,1,twofour,,,,,,,,,,,,,,,,,,,,,,,,,,,,,,,,,,,,,,,,,,,,,,,,,,,,,,,,,,,,,,,,,,,,,,,,,,,,,,,,,,,,,,,,,,,,,,,,,,,,,,,,,,,,,,,,,,,,,,,,,,,,,,,,,,,,,,,,,
,,6160ccb0810a73f90ef4c5e7,2024-02-19_04h15.47.426,kallum_motion_pilot,2023.2.2,Win32,59.88023952,6160ccb0810a73f90ef4c5e7,65d2b6c8f2eece985d8e374c,65d2b9ae80b5775321cab970,0.0444,0.0446,0,77,77,6,1,fourtwo,,,,,,,,,,,,,,,,,,,,,,,,,,,,,,,,,,,,,,,,,,,,,,,,,,,,,,,,,,,,,,,,,,,,,,,,,,,,,,,,,,,,,,,,,,,,,,,,,,,,,,,,,,,,,,,,,,,,,,,,,,,,,,,,,,,,,,,,,
,,6160ccb0810a73f90ef4c5e7,2024-02-19_04h15.47.426,kallum_motion_pilot,2023.2.2,Win32,59.88023952,6160ccb0810a73f90ef4c5e7,65d2b6c8f2eece985d8e374c,65d2b9ae80b5775321cab970,0.0449,0.045,0,78,78,82,1,sixfive,,,,,,,,,,,,,,,,,,,,,,,,,,,,,,,,,,,,,,,,,,,,,,,,,,,,,,,,,,,,,,,,,,,,,,,,,,,,,,,,,,,,,,,,,,,,,,,,,,,,,,,,,,,,,,,,,,,,,,,,,,,,,,,,,,,,,,,,,
,,6160ccb0810a73f90ef4c5e7,2024-02-19_04h15.47.426,kallum_motion_pilot,2023.2.2,Win32,59.88023952,6160ccb0810a73f90ef4c5e7,65d2b6c8f2eece985d8e374c,65d2b9ae80b5775321cab970,0.0451,0.0452,0,79,79,32,1,onetwo,,,,,,,,,,,,,,,,,,,,,,,,,,,,,,,,,,,,,,,,,,,,,,,,,,,,,,,,,,,,,,,,,,,,,,,,,,,,,,,,,,,,,,,,,,,,,,,,,,,,,,,,,,,,,,,,,,,,,,,,,,,,,,,,,,,,,,,,,
,,6160ccb0810a73f90ef4c5e7,2024-02-19_04h15.47.426,kallum_motion_pilot,2023.2.2,Win32,59.88023952,6160ccb0810a73f90ef4c5e7,65d2b6c8f2eece985d8e374c,65d2b9ae80b5775321cab970,0.0454,0.0455,0,80,80,73,1,onethree,,,,,,,,,,,,,,,,,,,,,,,,,,,,,,,,,,,,,,,,,,,,,,,,,,,,,,,,,,,,,,,,,,,,,,,,,,,,,,,,,,,,,,,,,,,,,,,,,,,,,,,,,,,,,,,,,,,,,,,,,,,,,,,,,,,,,,,,,
,,6160ccb0810a73f90ef4c5e7,2024-02-19_04h15.47.426,kallum_motion_pilot,2023.2.2,Win32,59.88023952,6160ccb0810a73f90ef4c5e7,65d2b6c8f2eece985d8e374c,65d2b9ae80b5775321cab970,0.0457,0.0458,0,81,81,140,1,sevenfive,,,,,,,,,,,,,,,,,,,,,,,,,,,,,,,,,,,,,,,,,,,,,,,,,,,,,,,,,,,,,,,,,,,,,,,,,,,,,,,,,,,,,,,,,,,,,,,,,,,,,,,,,,,,,,,,,,,,,,,,,,,,,,,,,,,,,,,,,
,,6160ccb0810a73f90ef4c5e7,2024-02-19_04h15.47.426,kallum_motion_pilot,2023.2.2,Win32,59.88023952,6160ccb0810a73f90ef4c5e7,65d2b6c8f2eece985d8e374c,65d2b9ae80b5775321cab970,0.046,0.046,0,82,82,35,1,twofour,,,,,,,,,,,,,,,,,,,,,,,,,,,,,,,,,,,,,,,,,,,,,,,,,,,,,,,,,,,,,,,,,,,,,,,,,,,,,,,,,,,,,,,,,,,,,,,,,,,,,,,,,,,,,,,,,,,,,,,,,,,,,,,,,,,,,,,,,
,,6160ccb0810a73f90ef4c5e7,2024-02-19_04h15.47.426,kallum_motion_pilot,2023.2.2,Win32,59.88023952,6160ccb0810a73f90ef4c5e7,65d2b6c8f2eece985d8e374c,65d2b9ae80b5775321cab970,0.0462,0.0463,0,83,83,96,1,fivesix,,,,,,,,,,,,,,,,,,,,,,,,,,,,,,,,,,,,,,,,,,,,,,,,,,,,,,,,,,,,,,,,,,,,,,,,,,,,,,,,,,,,,,,,,,,,,,,,,,,,,,,,,,,,,,,,,,,,,,,,,,,,,,,,,,,,,,,,,
,,6160ccb0810a73f90ef4c5e7,2024-02-19_04h15.47.426,kallum_motion_pilot,2023.2.2,Win32,59.88023952,6160ccb0810a73f90ef4c5e7,65d2b6c8f2eece985d8e374c,65d2b9ae80b5775321cab970,0.0465,0.0468,0,84,84,54,1,fourtwo,,,,,,,,,,,,,,,,,,,,,,,,,,,,,,,,,,,,,,,,,,,,,,,,,,,,,,,,,,,,,,,,,,,,,,,,,,,,,,,,,,,,,,,,,,,,,,,,,,,,,,,,,,,,,,,,,,,,,,,,,,,,,,,,,,,,,,,,,
,,6160ccb0810a73f90ef4c5e7,2024-02-19_04h15.47.426,kallum_motion_pilot,2023.2.2,Win32,59.88023952,6160ccb0810a73f90ef4c5e7,65d2b6c8f2eece985d8e374c,65d2b9ae80b5775321cab970,0.0474,0.0474,0,85,85,160,1,fivesix,,,,,,,,,,,,,,,,,,,,,,,,,,,,,,,,,,,,,,,,,,,,,,,,,,,,,,,,,,,,,,,,,,,,,,,,,,,,,,,,,,,,,,,,,,,,,,,,,,,,,,,,,,,,,,,,,,,,,,,,,,,,,,,,,,,,,,,,,
,,6160ccb0810a73f90ef4c5e7,2024-02-19_04h15.47.426,kallum_motion_pilot,2023.2.2,Win32,59.88023952,6160ccb0810a73f90ef4c5e7,65d2b6c8f2eece985d8e374c,65d2b9ae80b5775321cab970,0.0477,0.0479,0,86,86,92,1,sevenfive,,,,,,,,,,,,,,,,,,,,,,,,,,,,,,,,,,,,,,,,,,,,,,,,,,,,,,,,,,,,,,,,,,,,,,,,,,,,,,,,,,,,,,,,,,,,,,,,,,,,,,,,,,,,,,,,,,,,,,,,,,,,,,,,,,,,,,,,,
,,6160ccb0810a73f90ef4c5e7,2024-02-19_04h15.47.426,kallum_motion_pilot,2023.2.2,Win32,59.88023952,6160ccb0810a73f90ef4c5e7,65d2b6c8f2eece985d8e374c,65d2b9ae80b5775321cab970,0.0482,0.0482,0,87,87,154,1,sixfive,,,,,,,,,,,,,,,,,,,,,,,,,,,,,,,,,,,,,,,,,,,,,,,,,,,,,,,,,,,,,,,,,,,,,,,,,,,,,,,,,,,,,,,,,,,,,,,,,,,,,,,,,,,,,,,,,,,,,,,,,,,,,,,,,,,,,,,,,
,,6160ccb0810a73f90ef4c5e7,2024-02-19_04h15.47.426,kallum_motion_pilot,2023.2.2,Win32,59.88023952,6160ccb0810a73f90ef4c5e7,65d2b6c8f2eece985d8e374c,65d2b9ae80b5775321cab970,0.0484,0.0485,0,88,88,161,1,fiveseven,,,,,,,,,,,,,,,,,,,,,,,,,,,,,,,,,,,,,,,,,,,,,,,,,,,,,,,,,,,,,,,,,,,,,,,,,,,,,,,,,,,,,,,,,,,,,,,,,,,,,,,,,,,,,,,,,,,,,,,,,,,,,,,,,,,,,,,,,
,,6160ccb0810a73f90ef4c5e7,2024-02-19_04h15.47.426,kallum_motion_pilot,2023.2.2,Win32,59.88023952,6160ccb0810a73f90ef4c5e7,65d2b6c8f2eece985d8e374c,65d2b9ae80b5775321cab970,0.0486,0.0487,0,89,89,110,1,eightsix,,,,,,,,,,,,,,,,,,,,,,,,,,,,,,,,,,,,,,,,,,,,,,,,,,,,,,,,,,,,,,,,,,,,,,,,,,,,,,,,,,,,,,,,,,,,,,,,,,,,,,,,,,,,,,,,,,,,,,,,,,,,,,,,,,,,,,,,,
,,6160ccb0810a73f90ef4c5e7,2024-02-19_04h15.47.426,kallum_motion_pilot,2023.2.2,Win32,59.88023952,6160ccb0810a73f90ef4c5e7,65d2b6c8f2eece985d8e374c,65d2b9ae80b5775321cab970,0.0489,0.049,0,90,90,49,1,onethree,,,,,,,,,,,,,,,,,,,,,,,,,,,,,,,,,,,,,,,,,,,,,,,,,,,,,,,,,,,,,,,,,,,,,,,,,,,,,,,,,,,,,,,,,,,,,,,,,,,,,,,,,,,,,,,,,,,,,,,,,,,,,,,,,,,,,,,,,
,,6160ccb0810a73f90ef4c5e7,2024-02-19_04h15.47.426,kallum_motion_pilot,2023.2.2,Win32,59.88023952,6160ccb0810a73f90ef4c5e7,65d2b6c8f2eece985d8e374c,65d2b9ae80b5775321cab970,0.0491,0.0493,0,91,91,106,1,sixfive,,,,,,,,,,,,,,,,,,,,,,,,,,,,,,,,,,,,,,,,,,,,,,,,,,,,,,,,,,,,,,,,,,,,,,,,,,,,,,,,,,,,,,,,,,,,,,,,,,,,,,,,,,,,,,,,,,,,,,,,,,,,,,,,,,,,,,,,,
,,6160ccb0810a73f90ef4c5e7,2024-02-19_04h15.47.426,kallum_motion_pilot,2023.2.2,Win32,59.88023952,6160ccb0810a73f90ef4c5e7,65d2b6c8f2eece985d8e374c,65d2b9ae80b5775321cab970,0.0495,0.0496,0,92,92,12,1,threeone,,,,,,,,,,,,,,,,,,,,,,,,,,,,,,,,,,,,,,,,,,,,,,,,,,,,,,,,,,,,,,,,,,,,,,,,,,,,,,,,,,,,,,,,,,,,,,,,,,,,,,,,,,,,,,,,,,,,,,,,,,,,,,,,,,,,,,,,,
,,6160ccb0810a73f90ef4c5e7,2024-02-19_04h15.47.426,kallum_motion_pilot,2023.2.2,Win32,59.88023952,6160ccb0810a73f90ef4c5e7,65d2b6c8f2eece985d8e374c,65d2b9ae80b5775321cab970,0.0498,0.0498,0,93,93,128,1,fivesix,,,,,,,,,,,,,,,,,,,,,,,,,,,,,,,,,,,,,,,,,,,,,,,,,,,,,,,,,,,,,,,,,,,,,,,,,,,,,,,,,,,,,,,,,,,,,,,,,,,,,,,,,,,,,,,,,,,,,,,,,,,,,,,,,,,,,,,,,
,,6160ccb0810a73f90ef4c5e7,2024-02-19_04h15.47.426,kallum_motion_pilot,2023.2.2,Win32,59.88023952,6160ccb0810a73f90ef4c5e7,65d2b6c8f2eece985d8e374c,65d2b9ae80b5775321cab970,0.05,0.0501,0,94,94,135,1,eightseven,,,,,,,,,,,,,,,,,,,,,,,,,,,,,,,,,,,,,,,,,,,,,,,,,,,,,,,,,,,,,,,,,,,,,,,,,,,,,,,,,,,,,,,,,,,,,,,,,,,,,,,,,,,,,,,,,,,,,,,,,,,,,,,,,,,,,,,,,
,,6160ccb0810a73f90ef4c5e7,2024-02-19_04h15.47.426,kallum_motion_pilot,2023.2.2,Win32,59.88023952,6160ccb0810a73f90ef4c5e7,65d2b6c8f2eece985d8e374c,65d2b9ae80b5775321cab970,0.0503,0.0504,0,95,95,65,1,onethree,,,,,,,,,,,,,,,,,,,,,,,,,,,,,,,,,,,,,,,,,,,,,,,,,,,,,,,,,,,,,,,,,,,,,,,,,,,,,,,,,,,,,,,,,,,,,,,,,,,,,,,,,,,,,,,,,,,,,,,,,,,,,,,,,,,,,,,,,
,,6160ccb0810a73f90ef4c5e7,2024-02-19_04h15.47.426,kallum_motion_pilot,2023.2.2,Win32,59.88023952,6160ccb0810a73f90ef4c5e7,65d2b6c8f2eece985d8e374c,65d2b9ae80b5775321cab970,0.0505,0.0506,0,96,96,34,1,twoone,,,,,,,,,,,,,,,,,,,,,,,,,,,,,,,,,,,,,,,,,,,,,,,,,,,,,,,,,,,,,,,,,,,,,,,,,,,,,,,,,,,,,,,,,,,,,,,,,,,,,,,,,,,,,,,,,,,,,,,,,,,,,,,,,,,,,,,,,
,,6160ccb0810a73f90ef4c5e7,2024-02-19_04h15.47.426,kallum_motion_pilot,2023.2.2,Win32,59.88023952,6160ccb0810a73f90ef4c5e7,65d2b6c8f2eece985d8e374c,65d2b9ae80b5775321cab970,0.0508,0.0509,0,97,97,26,1,twoone,,,,,,,,,,,,,,,,,,,,,,,,,,,,,,,,,,,,,,,,,,,,,,,,,,,,,,,,,,,,,,,,,,,,,,,,,,,,,,,,,,,,,,,,,,,,,,,,,,,,,,,,,,,,,,,,,,,,,,,,,,,,,,,,,,,,,,,,,
,,6160ccb0810a73f90ef4c5e7,2024-02-19_04h15.47.426,kallum_motion_pilot,2023.2.2,Win32,59.88023952,6160ccb0810a73f90ef4c5e7,65d2b6c8f2eece985d8e374c,65d2b9ae80b5775321cab970,0.051,0.0512,0,98,98,45,1,threefour,,,,,,,,,,,,,,,,,,,,,,,,,,,,,,,,,,,,,,,,,,,,,,,,,,,,,,,,,,,,,,,,,,,,,,,,,,,,,,,,,,,,,,,,,,,,,,,,,,,,,,,,,,,,,,,,,,,,,,,,,,,,,,,,,,,,,,,,,
,,6160ccb0810a73f90ef4c5e7,2024-02-19_04h15.47.426,kallum_motion_pilot,2023.2.2,Win32,59.88023952,6160ccb0810a73f90ef4c5e7,65d2b6c8f2eece985d8e374c,65d2b9ae80b5775321cab970,0.0514,0.0515,0,99,99,159,1,eightseven,,,,,,,,,,,,,,,,,,,,,,,,,,,,,,,,,,,,,,,,,,,,,,,,,,,,,,,,,,,,,,,,,,,,,,,,,,,,,,,,,,,,,,,,,,,,,,,,,,,,,,,,,,,,,,,,,,,,,,,,,,,,,,,,,,,,,,,,,
,,6160ccb0810a73f90ef4c5e7,2024-02-19_04h15.47.426,kallum_motion_pilot,2023.2.2,Win32,59.88023952,6160ccb0810a73f90ef4c5e7,65d2b6c8f2eece985d8e374c,65d2b9ae80b5775321cab970,0.0516,0.0518,0,100,100,89,1,fiveseven,,,,,,,,,,,,,,,,,,,,,,,,,,,,,,,,,,,,,,,,,,,,,,,,,,,,,,,,,,,,,,,,,,,,,,,,,,,,,,,,,,,,,,,,,,,,,,,,,,,,,,,,,,,,,,,,,,,,,,,,,,,,,,,,,,,,,,,,,
,,6160ccb0810a73f90ef4c5e7,2024-02-19_04h15.47.426,kallum_motion_pilot,2023.2.2,Win32,59.88023952,6160ccb0810a73f90ef4c5e7,65d2b6c8f2eece985d8e374c,65d2b9ae80b5775321cab970,0.0519,0.052,0,101,101,112,1,fivesix,,,,,,,,,,,,,,,,,,,,,,,,,,,,,,,,,,,,,,,,,,,,,,,,,,,,,,,,,,,,,,,,,,,,,,,,,,,,,,,,,,,,,,,,,,,,,,,,,,,,,,,,,,,,,,,,,,,,,,,,,,,,,,,,,,,,,,,,,
,,6160ccb0810a73f90ef4c5e7,2024-02-19_04h15.47.426,kallum_motion_pilot,2023.2.2,Win32,59.88023952,6160ccb0810a73f90ef4c5e7,65d2b6c8f2eece985d8e374c,65d2b9ae80b5775321cab970,0.0522,0.0523,0,102,102,97,1,fiveseven,,,,,,,,,,,,,,,,,,,,,,,,,,,,,,,,,,,,,,,,,,,,,,,,,,,,,,,,,,,,,,,,,,,,,,,,,,,,,,,,,,,,,,,,,,,,,,,,,,,,,,,,,,,,,,,,,,,,,,,,,,,,,,,,,,,,,,,,,
,,6160ccb0810a73f90ef4c5e7,2024-02-19_04h15.47.426,kallum_motion_pilot,2023.2.2,Win32,59.88023952,6160ccb0810a73f90ef4c5e7,65d2b6c8f2eece985d8e374c,65d2b9ae80b5775321cab970,0.0524,0.0524,0,103,103,83,1,sixeight,,,,,,,,,,,,,,,,,,,,,,,,,,,,,,,,,,,,,,,,,,,,,,,,,,,,,,,,,,,,,,,,,,,,,,,,,,,,,,,,,,,,,,,,,,,,,,,,,,,,,,,,,,,,,,,,,,,,,,,,,,,,,,,,,,,,,,,,,
,,6160ccb0810a73f90ef4c5e7,2024-02-19_04h15.47.426,kallum_motion_pilot,2023.2.2,Win32,59.88023952,6160ccb0810a73f90ef4c5e7,65d2b6c8f2eece985d8e374c,65d2b9ae80b5775321cab970,0.0526,0.0526,0,104,104,88,1,fivesix,,,,,,,,,,,,,,,,,,,,,,,,,,,,,,,,,,,,,,,,,,,,,,,,,,,,,,,,,,,,,,,,,,,,,,,,,,,,,,,,,,,,,,,,,,,,,,,,,,,,,,,,,,,,,,,,,,,,,,,,,,,,,,,,,,,,,,,,,
,,6160ccb0810a73f90ef4c5e7,2024-02-19_04h15.47.426,kallum_motion_pilot,2023.2.2,Win32,59.88023952,6160ccb0810a73f90ef4c5e7,65d2b6c8f2eece985d8e374c,65d2b9ae80b5775321cab970,0.0528,0.0529,0,105,105,27,1,twofour,,,,,,,,,,,,,,,,,,,,,,,,,,,,,,,,,,,,,,,,,,,,,,,,,,,,,,,,,,,,,,,,,,,,,,,,,,,,,,,,,,,,,,,,,,,,,,,,,,,,,,,,,,,,,,,,,,,,,,,,,,,,,,,,,,,,,,,,,
,,6160ccb0810a73f90ef4c5e7,2024-02-19_04h15.47.426,kallum_motion_pilot,2023.2.2,Win32,59.88023952,6160ccb0810a73f90ef4c5e7,65d2b6c8f2eece985d8e374c,65d2b9ae80b5775321cab970,0.053,0.053,0,106,106,132,1,sevenfive,,,,,,,,,,,,,,,,,,,,,,,,,,,,,,,,,,,,,,,,,,,,,,,,,,,,,,,,,,,,,,,,,,,,,,,,,,,,,,,,,,,,,,,,,,,,,,,,,,,,,,,,,,,,,,,,,,,,,,,,,,,,,,,,,,,,,,,,,
,,6160ccb0810a73f90ef4c5e7,2024-02-19_04h15.47.426,kallum_motion_pilot,2023.2.2,Win32,59.88023952,6160ccb0810a73f90ef4c5e7,65d2b6c8f2eece985d8e374c,65d2b9ae80b5775321cab970,0.0531,0.0532,0,107,107,143,1,eightseven,,,,,,,,,,,,,,,,,,,,,,,,,,,,,,,,,,,,,,,,,,,,,,,,,,,,,,,,,,,,,,,,,,,,,,,,,,,,,,,,,,,,,,,,,,,,,,,,,,,,,,,,,,,,,,,,,,,,,,,,,,,,,,,,,,,,,,,,,
,,6160ccb0810a73f90ef4c5e7,2024-02-19_04h15.47.426,kallum_motion_pilot,2023.2.2,Win32,59.88023952,6160ccb0810a73f90ef4c5e7,65d2b6c8f2eece985d8e374c,65d2b9ae80b5775321cab970,0.0533,0.0533,0,108,108,84,1,sevenfive,,,,,,,,,,,,,,,,,,,,,,,,,,,,,,,,,,,,,,,,,,,,,,,,,,,,,,,,,,,,,,,,,,,,,,,,,,,,,,,,,,,,,,,,,,,,,,,,,,,,,,,,,,,,,,,,,,,,,,,,,,,,,,,,,,,,,,,,,
,,6160ccb0810a73f90ef4c5e7,2024-02-19_04h15.47.426,kallum_motion_pilot,2023.2.2,Win32,59.88023952,6160ccb0810a73f90ef4c5e7,65d2b6c8f2eece985d8e374c,65d2b9ae80b5775321cab970,0.0534,0.0535,0,109,109,81,1,fiveseven,,,,,,,,,,,,,,,,,,,,,,,,,,,,,,,,,,,,,,,,,,,,,,,,,,,,,,,,,,,,,,,,,,,,,,,,,,,,,,,,,,,,,,,,,,,,,,,,,,,,,,,,,,,,,,,,,,,,,,,,,,,,,,,,,,,,,,,,,
,,6160ccb0810a73f90ef4c5e7,2024-02-19_04h15.47.426,kallum_motion_pilot,2023.2.2,Win32,59.88023952,6160ccb0810a73f90ef4c5e7,65d2b6c8f2eece985d8e374c,65d2b9ae80b5775321cab970,0.0536,0.0536,0,110,110,67,1,twofour,,,,,,,,,,,,,,,,,,,,,,,,,,,,,,,,,,,,,,,,,,,,,,,,,,,,,,,,,,,,,,,,,,,,,,,,,,,,,,,,,,,,,,,,,,,,,,,,,,,,,,,,,,,,,,,,,,,,,,,,,,,,,,,,,,,,,,,,,
,,6160ccb0810a73f90ef4c5e7,2024-02-19_04h15.47.426,kallum_motion_pilot,2023.2.2,Win32,59.88023952,6160ccb0810a73f90ef4c5e7,65d2b6c8f2eece985d8e374c,65d2b9ae80b5775321cab970,0.0538,0.0538,0,111,111,80,1,fivesix,,,,,,,,,,,,,,,,,,,,,,,,,,,,,,,,,,,,,,,,,,,,,,,,,,,,,,,,,,,,,,,,,,,,,,,,,,,,,,,,,,,,,,,,,,,,,,,,,,,,,,,,,,,,,,,,,,,,,,,,,,,,,,,,,,,,,,,,,
,,6160ccb0810a73f90ef4c5e7,2024-02-19_04h15.47.426,kallum_motion_pilot,2023.2.2,Win32,59.88023952,6160ccb0810a73f90ef4c5e7,65d2b6c8f2eece985d8e374c,65d2b9ae80b5775321cab970,0.0539,0.0539,0,112,112,15,1,fourthree,,,,,,,,,,,,,,,,,,,,,,,,,,,,,,,,,,,,,,,,,,,,,,,,,,,,,,,,,,,,,,,,,,,,,,,,,,,,,,,,,,,,,,,,,,,,,,,,,,,,,,,,,,,,,,,,,,,,,,,,,,,,,,,,,,,,,,,,,
,,6160ccb0810a73f90ef4c5e7,2024-02-19_04h15.47.426,kallum_motion_pilot,2023.2.2,Win32,59.88023952,6160ccb0810a73f90ef4c5e7,65d2b6c8f2eece985d8e374c,65d2b9ae80b5775321cab970,0.054,0.0541,0,113,113,28,1,threeone,,,,,,,,,,,,,,,,,,,,,,,,,,,,,,,,,,,,,,,,,,,,,,,,,,,,,,,,,,,,,,,,,,,,,,,,,,,,,,,,,,,,,,,,,,,,,,,,,,,,,,,,,,,,,,,,,,,,,,,,,,,,,,,,,,,,,,,,,
,,6160ccb0810a73f90ef4c5e7,2024-02-19_04h15.47.426,kallum_motion_pilot,2023.2.2,Win32,59.88023952,6160ccb0810a73f90ef4c5e7,65d2b6c8f2eece985d8e374c,65d2b9ae80b5775321cab970,0.0542,0.0542,0,114,114,147,1,sixeight,,,,,,,,,,,,,,,,,,,,,,,,,,,,,,,,,,,,,,,,,,,,,,,,,,,,,,,,,,,,,,,,,,,,,,,,,,,,,,,,,,,,,,,,,,,,,,,,,,,,,,,,,,,,,,,,,,,,,,,,,,,,,,,,,,,,,,,,,
,,6160ccb0810a73f90ef4c5e7,2024-02-19_04h15.47.426,kallum_motion_pilot,2023.2.2,Win32,59.88023952,6160ccb0810a73f90ef4c5e7,65d2b6c8f2eece985d8e374c,65d2b9ae80b5775321cab970,0.0544,0.0545,0,115,115,60,1,threeone,,,,,,,,,,,,,,,,,,,,,,,,,,,,,,,,,,,,,,,,,,,,,,,,,,,,,,,,,,,,,,,,,,,,,,,,,,,,,,,,,,,,,,,,,,,,,,,,,,,,,,,,,,,,,,,,,,,,,,,,,,,,,,,,,,,,,,,,,
,,6160ccb0810a73f90ef4c5e7,2024-02-19_04h15.47.426,kallum_motion_pilot,2023.2.2,Win32,59.88023952,6160ccb0810a73f90ef4c5e7,65d2b6c8f2eece985d8e374c,65d2b9ae80b5775321cab970,0.0545,0.0546,0,116,116,44,1,threeone,,,,,,,,,,,,,,,,,,,,,,,,,,,,,,,,,,,,,,,,,,,,,,,,,,,,,,,,,,,,,,,,,,,,,,,,,,,,,,,,,,,,,,,,,,,,,,,,,,,,,,,,,,,,,,,,,,,,,,,,,,,,,,,,,,,,,,,,,
,,6160ccb0810a73f90ef4c5e7,2024-02-19_04h15.47.426,kallum_motion_pilot,2023.2.2,Win32,59.88023952,6160ccb0810a73f90ef4c5e7,65d2b6c8f2eece985d8e374c,65d2b9ae80b5775321cab970,0.0546,0.0547,0,117,117,144,1,fivesix,,,,,,,,,,,,,,,,,,,,,,,,,,,,,,,,,,,,,,,,,,,,,,,,,,,,,,,,,,,,,,,,,,,,,,,,,,,,,,,,,,,,,,,,,,,,,,,,,,,,,,,,,,,,,,,,,,,,,,,,,,,,,,,,,,,,,,,,,
,,6160ccb0810a73f90ef4c5e7,2024-02-19_04h15.47.426,kallum_motion_pilot,2023.2.2,Win32,59.88023952,6160ccb0810a73f90ef4c5e7,65d2b6c8f2eece985d8e374c,65d2b9ae80b5775321cab970,0.0548,0.0549,0,118,118,86,1,eightsix,,,,,,,,,,,,,,,,,,,,,,,,,,,,,,,,,,,,,,,,,,,,,,,,,,,,,,,,,,,,,,,,,,,,,,,,,,,,,,,,,,,,,,,,,,,,,,,,,,,,,,,,,,,,,,,,,,,,,,,,,,,,,,,,,,,,,,,,,
,,6160ccb0810a73f90ef4c5e7,2024-02-19_04h15.47.426,kallum_motion_pilot,2023.2.2,Win32,59.88023952,6160ccb0810a73f90ef4c5e7,65d2b6c8f2eece985d8e374c,65d2b9ae80b5775321cab970,0.055,0.055,0,119,119,87,1,eightseven,,,,,,,,,,,,,,,,,,,,,,,,,,,,,,,,,,,,,,,,,,,,,,,,,,,,,,,,,,,,,,,,,,,,,,,,,,,,,,,,,,,,,,,,,,,,,,,,,,,,,,,,,,,,,,,,,,,,,,,,,,,,,,,,,,,,,,,,,
,,6160ccb0810a73f90ef4c5e7,2024-02-19_04h15.47.426,kallum_motion_pilot,2023.2.2,Win32,59.88023952,6160ccb0810a73f90ef4c5e7,65d2b6c8f2eece985d8e374c,65d2b9ae80b5775321cab970,0.0552,0.0552,0,120,120,157,1,seveneight,,,,,,,,,,,,,,,,,,,,,,,,,,,,,,,,,,,,,,,,,,,,,,,,,,,,,,,,,,,,,,,,,,,,,,,,,,,,,,,,,,,,,,,,,,,,,,,,,,,,,,,,,,,,,,,,,,,,,,,,,,,,,,,,,,,,,,,,,
,,6160ccb0810a73f90ef4c5e7,2024-02-19_04h15.47.426,kallum_motion_pilot,2023.2.2,Win32,59.88023952,6160ccb0810a73f90ef4c5e7,65d2b6c8f2eece985d8e374c,65d2b9ae80b5775321cab970,0.0553,0.0553,0,121,121,118,1,eightsix,,,,,,,,,,,,,,,,,,,,,,,,,,,,,,,,,,,,,,,,,,,,,,,,,,,,,,,,,,,,,,,,,,,,,,,,,,,,,,,,,,,,,,,,,,,,,,,,,,,,,,,,,,,,,,,,,,,,,,,,,,,,,,,,,,,,,,,,,
,,6160ccb0810a73f90ef4c5e7,2024-02-19_04h15.47.426,kallum_motion_pilot,2023.2.2,Win32,59.88023952,6160ccb0810a73f90ef4c5e7,65d2b6c8f2eece985d8e374c,65d2b9ae80b5775321cab970,0.0554,0.0556,0,122,122,74,1,twoone,,,,,,,,,,,,,,,,,,,,,,,,,,,,,,,,,,,,,,,,,,,,,,,,,,,,,,,,,,,,,,,,,,,,,,,,,,,,,,,,,,,,,,,,,,,,,,,,,,,,,,,,,,,,,,,,,,,,,,,,,,,,,,,,,,,,,,,,,
,,6160ccb0810a73f90ef4c5e7,2024-02-19_04h15.47.426,kallum_motion_pilot,2023.2.2,Win32,59.88023952,6160ccb0810a73f90ef4c5e7,65d2b6c8f2eece985d8e374c,65d2b9ae80b5775321cab970,0.0556,0.0557,0,123,123,42,1,twoone,,,,,,,,,,,,,,,,,,,,,,,,,,,,,,,,,,,,,,,,,,,,,,,,,,,,,,,,,,,,,,,,,,,,,,,,,,,,,,,,,,,,,,,,,,,,,,,,,,,,,,,,,,,,,,,,,,,,,,,,,,,,,,,,,,,,,,,,,
,,6160ccb0810a73f90ef4c5e7,2024-02-19_04h15.47.426,kallum_motion_pilot,2023.2.2,Win32,59.88023952,6160ccb0810a73f90ef4c5e7,65d2b6c8f2eece985d8e374c,65d2b9ae80b5775321cab970,0.0558,0.056,0,124,124,58,1,twoone,,,,,,,,,,,,,,,,,,,,,,,,,,,,,,,,,,,,,,,,,,,,,,,,,,,,,,,,,,,,,,,,,,,,,,,,,,,,,,,,,,,,,,,,,,,,,,,,,,,,,,,,,,,,,,,,,,,,,,,,,,,,,,,,,,,,,,,,,
,,6160ccb0810a73f90ef4c5e7,2024-02-19_04h15.47.426,kallum_motion_pilot,2023.2.2,Win32,59.88023952,6160ccb0810a73f90ef4c5e7,65d2b6c8f2eece985d8e374c,65d2b9ae80b5775321cab970,0.056,0.0562,0,125,125,141,1,seveneight,,,,,,,,,,,,,,,,,,,,,,,,,,,,,,,,,,,,,,,,,,,,,,,,,,,,,,,,,,,,,,,,,,,,,,,,,,,,,,,,,,,,,,,,,,,,,,,,,,,,,,,,,,,,,,,,,,,,,,,,,,,,,,,,,,,,,,,,,
,,6160ccb0810a73f90ef4c5e7,2024-02-19_04h15.47.426,kallum_motion_pilot,2023.2.2,Win32,59.88023952,6160ccb0810a73f90ef4c5e7,65d2b6c8f2eece985d8e374c,65d2b9ae80b5775321cab970,0.0564,0.0564,0,126,126,149,1,seveneight,,,,,,,,,,,,,,,,,,,,,,,,,,,,,,,,,,,,,,,,,,,,,,,,,,,,,,,,,,,,,,,,,,,,,,,,,,,,,,,,,,,,,,,,,,,,,,,,,,,,,,,,,,,,,,,,,,,,,,,,,,,,,,,,,,,,,,,,,
,,6160ccb0810a73f90ef4c5e7,2024-02-19_04h15.47.426,kallum_motion_pilot,2023.2.2,Win32,59.88023952,6160ccb0810a73f90ef4c5e7,65d2b6c8f2eece985d8e374c,65d2b9ae80b5775321cab970,0.0566,0.0567,0,127,127,10,1,twoone,,,,,,,,,,,,,,,,,,,,,,,,,,,,,,,,,,,,,,,,,,,,,,,,,,,,,,,,,,,,,,,,,,,,,,,,,,,,,,,,,,,,,,,,,,,,,,,,,,,,,,,,,,,,,,,,,,,,,,,,,,,,,,,,,,,,,,,,,
,,6160ccb0810a73f90ef4c5e7,2024-02-19_04h15.47.426,kallum_motion_pilot,2023.2.2,Win32,59.88023952,6160ccb0810a73f90ef4c5e7,65d2b6c8f2eece985d8e374c,65d2b9ae80b5775321cab970,0.0568,0.0568,0,128,128,63,1,fourthree,,,,,,,,,,,,,,,,,,,,,,,,,,,,,,,,,,,,,,,,,,,,,,,,,,,,,,,,,,,,,,,,,,,,,,,,,,,,,,,,,,,,,,,,,,,,,,,,,,,,,,,,,,,,,,,,,,,,,,,,,,,,,,,,,,,,,,,,,
,,6160ccb0810a73f90ef4c5e7,2024-02-19_04h15.47.426,kallum_motion_pilot,2023.2.2,Win32,59.88023952,6160ccb0810a73f90ef4c5e7,65d2b6c8f2eece985d8e374c,65d2b9ae80b5775321cab970,0.057,0.057,0,129,129,41,1,onethree,,,,,,,,,,,,,,,,,,,,,,,,,,,,,,,,,,,,,,,,,,,,,,,,,,,,,,,,,,,,,,,,,,,,,,,,,,,,,,,,,,,,,,,,,,,,,,,,,,,,,,,,,,,,,,,,,,,,,,,,,,,,,,,,,,,,,,,,,
,,6160ccb0810a73f90ef4c5e7,2024-02-19_04h15.47.426,kallum_motion_pilot,2023.2.2,Win32,59.88023952,6160ccb0810a73f90ef4c5e7,65d2b6c8f2eece985d8e374c,65d2b9ae80b5775321cab970,0.0572,0.0573,0,130,130,123,1,sixeight,,,,,,,,,,,,,,,,,,,,,,,,,,,,,,,,,,,,,,,,,,,,,,,,,,,,,,,,,,,,,,,,,,,,,,,,,,,,,,,,,,,,,,,,,,,,,,,,,,,,,,,,,,,,,,,,,,,,,,,,,,,,,,,,,,,,,,,,,
,,6160ccb0810a73f90ef4c5e7,2024-02-19_04h15.47.426,kallum_motion_pilot,2023.2.2,Win32,59.88023952,6160ccb0810a73f90ef4c5e7,65d2b6c8f2eece985d8e374c,65d2b9ae80b5775321cab970,0.0573,0.0573,0,131,131,13,1,threefour,,,,,,,,,,,,,,,,,,,,,,,,,,,,,,,,,,,,,,,,,,,,,,,,,,,,,,,,,,,,,,,,,,,,,,,,,,,,,,,,,,,,,,,,,,,,,,,,,,,,,,,,,,,,,,,,,,,,,,,,,,,,,,,,,,,,,,,,,
,,6160ccb0810a73f90ef4c5e7,2024-02-19_04h15.47.426,kallum_motion_pilot,2023.2.2,Win32,59.88023952,6160ccb0810a73f90ef4c5e7,65d2b6c8f2eece985d8e374c,65d2b9ae80b5775321cab970,0.0575,0.0575,0,132,132,37,1,threefour,,,,,,,,,,,,,,,,,,,,,,,,,,,,,,,,,,,,,,,,,,,,,,,,,,,,,,,,,,,,,,,,,,,,,,,,,,,,,,,,,,,,,,,,,,,,,,,,,,,,,,,,,,,,,,,,,,,,,,,,,,,,,,,,,,,,,,,,,
,,6160ccb0810a73f90ef4c5e7,2024-02-19_04h15.47.426,kallum_motion_pilot,2023.2.2,Win32,59.88023952,6160ccb0810a73f90ef4c5e7,65d2b6c8f2eece985d8e374c,65d2b9ae80b5775321cab970,0.0576,0.0577,0,133,133,61,1,threefour,,,,,,,,,,,,,,,,,,,,,,,,,,,,,,,,,,,,,,,,,,,,,,,,,,,,,,,,,,,,,,,,,,,,,,,,,,,,,,,,,,,,,,,,,,,,,,,,,,,,,,,,,,,,,,,,,,,,,,,,,,,,,,,,,,,,,,,,,
,,6160ccb0810a73f90ef4c5e7,2024-02-19_04h15.47.426,kallum_motion_pilot,2023.2.2,Win32,59.88023952,6160ccb0810a73f90ef4c5e7,65d2b6c8f2eece985d8e374c,65d2b9ae80b5775321cab970,0.0578,0.0579,0,134,134,18,1,twoone,,,,,,,,,,,,,,,,,,,,,,,,,,,,,,,,,,,,,,,,,,,,,,,,,,,,,,,,,,,,,,,,,,,,,,,,,,,,,,,,,,,,,,,,,,,,,,,,,,,,,,,,,,,,,,,,,,,,,,,,,,,,,,,,,,,,,,,,,
,,6160ccb0810a73f90ef4c5e7,2024-02-19_04h15.47.426,kallum_motion_pilot,2023.2.2,Win32,59.88023952,6160ccb0810a73f90ef4c5e7,65d2b6c8f2eece985d8e374c,65d2b9ae80b5775321cab970,0.058,0.058,0,135,135,66,1,twoone,,,,,,,,,,,,,,,,,,,,,,,,,,,,,,,,,,,,,,,,,,,,,,,,,,,,,,,,,,,,,,,,,,,,,,,,,,,,,,,,,,,,,,,,,,,,,,,,,,,,,,,,,,,,,,,,,,,,,,,,,,,,,,,,,,,,,,,,,
,,6160ccb0810a73f90ef4c5e7,2024-02-19_04h15.47.426,kallum_motion_pilot,2023.2.2,Win32,59.88023952,6160ccb0810a73f90ef4c5e7,65d2b6c8f2eece985d8e374c,65d2b9ae80b5775321cab970,0.0581,0.0582,0,136,136,142,1,eightsix,,,,,,,,,,,,,,,,,,,,,,,,,,,,,,,,,,,,,,,,,,,,,,,,,,,,,,,,,,,,,,,,,,,,,,,,,,,,,,,,,,,,,,,,,,,,,,,,,,,,,,,,,,,,,,,,,,,,,,,,,,,,,,,,,,,,,,,,,
,,6160ccb0810a73f90ef4c5e7,2024-02-19_04h15.47.426,kallum_motion_pilot,2023.2.2,Win32,59.88023952,6160ccb0810a73f90ef4c5e7,65d2b6c8f2eece985d8e374c,65d2b9ae80b5775321cab970,0.0583,0.0583,0,137,137,59,1,twofour,,,,,,,,,,,,,,,,,,,,,,,,,,,,,,,,,,,,,,,,,,,,,,,,,,,,,,,,,,,,,,,,,,,,,,,,,,,,,,,,,,,,,,,,,,,,,,,,,,,,,,,,,,,,,,,,,,,,,,,,,,,,,,,,,,,,,,,,,
,,6160ccb0810a73f90ef4c5e7,2024-02-19_04h15.47.426,kallum_motion_pilot,2023.2.2,Win32,59.88023952,6160ccb0810a73f90ef4c5e7,65d2b6c8f2eece985d8e374c,65d2b9ae80b5775321cab970,0.0585,0.0586,0,138,138,20,1,threeone,,,,,,,,,,,,,,,,,,,,,,,,,,,,,,,,,,,,,,,,,,,,,,,,,,,,,,,,,,,,,,,,,,,,,,,,,,,,,,,,,,,,,,,,,,,,,,,,,,,,,,,,,,,,,,,,,,,,,,,,,,,,,,,,,,,,,,,,,
,,6160ccb0810a73f90ef4c5e7,2024-02-19_04h15.47.426,kallum_motion_pilot,2023.2.2,Win32,59.88023952,6160ccb0810a73f90ef4c5e7,65d2b6c8f2eece985d8e374c,65d2b9ae80b5775321cab970,0.0587,0.0588,0,139,139,121,1,fiveseven,,,,,,,,,,,,,,,,,,,,,,,,,,,,,,,,,,,,,,,,,,,,,,,,,,,,,,,,,,,,,,,,,,,,,,,,,,,,,,,,,,,,,,,,,,,,,,,,,,,,,,,,,,,,,,,,,,,,,,,,,,,,,,,,,,,,,,,,,
,,6160ccb0810a73f90ef4c5e7,2024-02-19_04h15.47.426,kallum_motion_pilot,2023.2.2,Win32,59.88023952,6160ccb0810a73f90ef4c5e7,65d2b6c8f2eece985d8e374c,65d2b9ae80b5775321cab970,0.059,0.059,0,140,140,9,1,onethree,,,,,,,,,,,,,,,,,,,,,,,,,,,,,,,,,,,,,,,,,,,,,,,,,,,,,,,,,,,,,,,,,,,,,,,,,,,,,,,,,,,,,,,,,,,,,,,,,,,,,,,,,,,,,,,,,,,,,,,,,,,,,,,,,,,,,,,,,
,,6160ccb0810a73f90ef4c5e7,2024-02-19_04h15.47.426,kallum_motion_pilot,2023.2.2,Win32,59.88023952,6160ccb0810a73f90ef4c5e7,65d2b6c8f2eece985d8e374c,65d2b9ae80b5775321cab970,0.0591,0.0592,0,141,141,29,1,threefour,,,,,,,,,,,,,,,,,,,,,,,,,,,,,,,,,,,,,,,,,,,,,,,,,,,,,,,,,,,,,,,,,,,,,,,,,,,,,,,,,,,,,,,,,,,,,,,,,,,,,,,,,,,,,,,,,,,,,,,,,,,,,,,,,,,,,,,,,
,,6160ccb0810a73f90ef4c5e7,2024-02-19_04h15.47.426,kallum_motion_pilot,2023.2.2,Win32,59.88023952,6160ccb0810a73f90ef4c5e7,65d2b6c8f2eece985d8e374c,65d2b9ae80b5775321cab970,0.0593,0.0593,0,142,142,155,1,sixeight,,,,,,,,,,,,,,,,,,,,,,,,,,,,,,,,,,,,,,,,,,,,,,,,,,,,,,,,,,,,,,,,,,,,,,,,,,,,,,,,,,,,,,,,,,,,,,,,,,,,,,,,,,,,,,,,,,,,,,,,,,,,,,,,,,,,,,,,,
,,6160ccb0810a73f90ef4c5e7,2024-02-19_04h15.47.426,kallum_motion_pilot,2023.2.2,Win32,59.88023952,6160ccb0810a73f90ef4c5e7,65d2b6c8f2eece985d8e374c,65d2b9ae80b5775321cab970,0.0595,0.0595,0,143,143,105,1,fiveseven,,,,,,,,,,,,,,,,,,,,,,,,,,,,,,,,,,,,,,,,,,,,,,,,,,,,,,,,,,,,,,,,,,,,,,,,,,,,,,,,,,,,,,,,,,,,,,,,,,,,,,,,,,,,,,,,,,,,,,,,,,,,,,,,,,,,,,,,,
,,6160ccb0810a73f90ef4c5e7,2024-02-19_04h15.47.426,kallum_motion_pilot,2023.2.2,Win32,59.88023952,6160ccb0810a73f90ef4c5e7,65d2b6c8f2eece985d8e374c,65d2b9ae80b5775321cab970,0.0596,0.0597,0,144,144,48,1,onetwo,,,,,,,,,,,,,,,,,,,,,,,,,,,,,,,,,,,,,,,,,,,,,,,,,,,,,,,,,,,,,,,,,,,,,,,,,,,,,,,,,,,,,,,,,,,,,,,,,,,,,,,,,,,,,,,,,,,,,,,,,,,,,,,,,,,,,,,,,
,,6160ccb0810a73f90ef4c5e7,2024-02-19_04h15.47.426,kallum_motion_pilot,2023.2.2,Win32,59.88023952,6160ccb0810a73f90ef4c5e7,65d2b6c8f2eece985d8e374c,65d2b9ae80b5775321cab970,0.0598,0.06,0,145,145,113,1,fiveseven,,,,,,,,,,,,,,,,,,,,,,,,,,,,,,,,,,,,,,,,,,,,,,,,,,,,,,,,,,,,,,,,,,,,,,,,,,,,,,,,,,,,,,,,,,,,,,,,,,,,,,,,,,,,,,,,,,,,,,,,,,,,,,,,,,,,,,,,,
,,6160ccb0810a73f90ef4c5e7,2024-02-19_04h15.47.426,kallum_motion_pilot,2023.2.2,Win32,59.88023952,6160ccb0810a73f90ef4c5e7,65d2b6c8f2eece985d8e374c,65d2b9ae80b5775321cab970,0.0601,0.0603,0,146,146,158,1,eightsix,,,,,,,,,,,,,,,,,,,,,,,,,,,,,,,,,,,,,,,,,,,,,,,,,,,,,,,,,,,,,,,,,,,,,,,,,,,,,,,,,,,,,,,,,,,,,,,,,,,,,,,,,,,,,,,,,,,,,,,,,,,,,,,,,,,,,,,,,
,,6160ccb0810a73f90ef4c5e7,2024-02-19_04h15.47.426,kallum_motion_pilot,2023.2.2,Win32,59.88023952,6160ccb0810a73f90ef4c5e7,65d2b6c8f2eece985d8e374c,65d2b9ae80b5775321cab970,0.0605,0.0605,0,147,147,0,1,onetwo,,,,,,,,,,,,,,,,,,,,,,,,,,,,,,,,,,,,,,,,,,,,,,,,,,,,,,,,,,,,,,,,,,,,,,,,,,,,,,,,,,,,,,,,,,,,,,,,,,,,,,,,,,,,,,,,,,,,,,,,,,,,,,,,,,,,,,,,,
,,6160ccb0810a73f90ef4c5e7,2024-02-19_04h15.47.426,kallum_motion_pilot,2023.2.2,Win32,59.88023952,6160ccb0810a73f90ef4c5e7,65d2b6c8f2eece985d8e374c,65d2b9ae80b5775321cab970,0.0607,0.0609,0,148,148,71,1,fourthree,,,,,,,,,,,,,,,,,,,,,,,,,,,,,,,,,,,,,,,,,,,,,,,,,,,,,,,,,,,,,,,,,,,,,,,,,,,,,,,,,,,,,,,,,,,,,,,,,,,,,,,,,,,,,,,,,,,,,,,,,,,,,,,,,,,,,,,,,
,,6160ccb0810a73f90ef4c5e7,2024-02-19_04h15.47.426,kallum_motion_pilot,2023.2.2,Win32,59.88023952,6160ccb0810a73f90ef4c5e7,65d2b6c8f2eece985d8e374c,65d2b9ae80b5775321cab970,0.061,0.0611,0,149,149,150,1,eightsix,,,,,,,,,,,,,,,,,,,,,,,,,,,,,,,,,,,,,,,,,,,,,,,,,,,,,,,,,,,,,,,,,,,,,,,,,,,,,,,,,,,,,,,,,,,,,,,,,,,,,,,,,,,,,,,,,,,,,,,,,,,,,,,,,,,,,,,,,
,,6160ccb0810a73f90ef4c5e7,2024-02-19_04h15.47.426,kallum_motion_pilot,2023.2.2,Win32,59.88023952,6160ccb0810a73f90ef4c5e7,65d2b6c8f2eece985d8e374c,65d2b9ae80b5775321cab970,0.0613,0.0614,0,150,150,122,1,sixfive,,,,,,,,,,,,,,,,,,,,,,,,,,,,,,,,,,,,,,,,,,,,,,,,,,,,,,,,,,,,,,,,,,,,,,,,,,,,,,,,,,,,,,,,,,,,,,,,,,,,,,,,,,,,,,,,,,,,,,,,,,,,,,,,,,,,,,,,,
,,6160ccb0810a73f90ef4c5e7,2024-02-19_04h15.47.426,kallum_motion_pilot,2023.2.2,Win32,59.88023952,6160ccb0810a73f90ef4c5e7,65d2b6c8f2eece985d8e374c,65d2b9ae80b5775321cab970,0.0616,0.0616,0,151,151,38,1,fourtwo,,,,,,,,,,,,,,,,,,,,,,,,,,,,,,,,,,,,,,,,,,,,,,,,,,,,,,,,,,,,,,,,,,,,,,,,,,,,,,,,,,,,,,,,,,,,,,,,,,,,,,,,,,,,,,,,,,,,,,,,,,,,,,,,,,,,,,,,,
,,6160ccb0810a73f90ef4c5e7,2024-02-19_04h15.47.426,kallum_motion_pilot,2023.2.2,Win32,59.88023952,6160ccb0810a73f90ef4c5e7,65d2b6c8f2eece985d8e374c,65d2b9ae80b5775321cab970,0.0618,0.0619,0,152,152,7,1,fourthree,,,,,,,,,,,,,,,,,,,,,,,,,,,,,,,,,,,,,,,,,,,,,,,,,,,,,,,,,,,,,,,,,,,,,,,,,,,,,,,,,,,,,,,,,,,,,,,,,,,,,,,,,,,,,,,,,,,,,,,,,,,,,,,,,,,,,,,,,
,,6160ccb0810a73f90ef4c5e7,2024-02-19_04h15.47.426,kallum_motion_pilot,2023.2.2,Win32,59.88023952,6160ccb0810a73f90ef4c5e7,65d2b6c8f2eece985d8e374c,65d2b9ae80b5775321cab970,0.0619,0.062,0,153,153,145,1,fiveseven,,,,,,,,,,,,,,,,,,,,,,,,,,,,,,,,,,,,,,,,,,,,,,,,,,,,,,,,,,,,,,,,,,,,,,,,,,,,,,,,,,,,,,,,,,,,,,,,,,,,,,,,,,,,,,,,,,,,,,,,,,,,,,,,,,,,,,,,,
,,6160ccb0810a73f90ef4c5e7,2024-02-19_04h15.47.426,kallum_motion_pilot,2023.2.2,Win32,59.88023952,6160ccb0810a73f90ef4c5e7,65d2b6c8f2eece985d8e374c,65d2b9ae80b5775321cab970,0.0621,0.0622,0,154,154,50,1,twoone,,,,,,,,,,,,,,,,,,,,,,,,,,,,,,,,,,,,,,,,,,,,,,,,,,,,,,,,,,,,,,,,,,,,,,,,,,,,,,,,,,,,,,,,,,,,,,,,,,,,,,,,,,,,,,,,,,,,,,,,,,,,,,,,,,,,,,,,,
,,6160ccb0810a73f90ef4c5e7,2024-02-19_04h15.47.426,kallum_motion_pilot,2023.2.2,Win32,59.88023952,6160ccb0810a73f90ef4c5e7,65d2b6c8f2eece985d8e374c,65d2b9ae80b5775321cab970,0.0623,0.0623,0,155,155,156,1,sevenfive,,,,,,,,,,,,,,,,,,,,,,,,,,,,,,,,,,,,,,,,,,,,,,,,,,,,,,,,,,,,,,,,,,,,,,,,,,,,,,,,,,,,,,,,,,,,,,,,,,,,,,,,,,,,,,,,,,,,,,,,,,,,,,,,,,,,,,,,,
,,6160ccb0810a73f90ef4c5e7,2024-02-19_04h15.47.426,kallum_motion_pilot,2023.2.2,Win32,59.88023952,6160ccb0810a73f90ef4c5e7,65d2b6c8f2eece985d8e374c,65d2b9ae80b5775321cab970,0.0625,0.0625,0,156,156,5,1,threefour,,,,,,,,,,,,,,,,,,,,,,,,,,,,,,,,,,,,,,,,,,,,,,,,,,,,,,,,,,,,,,,,,,,,,,,,,,,,,,,,,,,,,,,,,,,,,,,,,,,,,,,,,,,,,,,,,,,,,,,,,,,,,,,,,,,,,,,,,
,,6160ccb0810a73f90ef4c5e7,2024-02-19_04h15.47.426,kallum_motion_pilot,2023.2.2,Win32,59.88023952,6160ccb0810a73f90ef4c5e7,65d2b6c8f2eece985d8e374c,65d2b9ae80b5775321cab970,0.0627,0.0628,0,157,157,64,1,onetwo,,,,,,,,,,,,,,,,,,,,,,,,,,,,,,,,,,,,,,,,,,,,,,,,,,,,,,,,,,,,,,,,,,,,,,,,,,,,,,,,,,,,,,,,,,,,,,,,,,,,,,,,,,,,,,,,,,,,,,,,,,,,,,,,,,,,,,,,,
,,6160ccb0810a73f90ef4c5e7,2024-02-19_04h15.47.426,kallum_motion_pilot,2023.2.2,Win32,59.88023952,6160ccb0810a73f90ef4c5e7,65d2b6c8f2eece985d8e374c,65d2b9ae80b5775321cab970,0.0628,0.063,0,158,158,70,1,fourtwo,,,,,,,,,,,,,,,,,,,,,,,,,,,,,,,,,,,,,,,,,,,,,,,,,,,,,,,,,,,,,,,,,,,,,,,,,,,,,,,,,,,,,,,,,,,,,,,,,,,,,,,,,,,,,,,,,,,,,,,,,,,,,,,,,,,,,,,,,
,,6160ccb0810a73f90ef4c5e7,2024-02-19_04h15.47.426,kallum_motion_pilot,2023.2.2,Win32,59.88023952,6160ccb0810a73f90ef4c5e7,65d2b6c8f2eece985d8e374c,65d2b9ae80b5775321cab970,0.0631,0.0632,0,159,159,23,1,fourthree,,,,,,,,,,,,,,,,,,,,,,,,,,,,,,,,,,,,,,,,,,,,,,,,,,,,,,,,,,,,,,,,,,,,,,,,,,,,,,,,,,,,,,,,,,,,,,,,,,,,,,,,,,,,,,,,,,,,,,,,,,,,,,,,,,,,,,,,,
,,6160ccb0810a73f90ef4c5e7,2024-02-19_04h15.47.426,kallum_motion_pilot,2023.2.2,Win32,59.88023952,6160ccb0810a73f90ef4c5e7,65d2b6c8f2eece985d8e374c,65d2b9ae80b5775321cab970,0.0636,0.0637,0,160,160,4,1,threeone,,,,,,,,,,,,,,,,,,,,,,,,,,,,,,,,,,,,,,,,,,,,,,,,,,,,,,,,,,,,,,,,,,,,,,,,,,,,,,,,,,,,,,,,,,,,,,,,,,,,,,,,,,,,,,,,,,,,,,,,,,,,,,,,,,,,,,,,,
,,6160ccb0810a73f90ef4c5e7,2024-02-19_04h15.47.426,kallum_motion_pilot,2023.2.2,Win32,59.88023952,6160ccb0810a73f90ef4c5e7,65d2b6c8f2eece985d8e374c,65d2b9ae80b5775321cab970,0.0641,0.0642,0,161,161,151,1,eightseven,,,,,,,,,,,,,,,,,,,,,,,,,,,,,,,,,,,,,,,,,,,,,,,,,,,,,,,,,,,,,,,,,,,,,,,,,,,,,,,,,,,,,,,,,,,,,,,,,,,,,,,,,,,,,,,,,,,,,,,,,,,,,,,,,,,,,,,,,
,,6160ccb0810a73f90ef4c5e7,2024-02-19_04h15.47.426,kallum_motion_pilot,2023.2.2,Win32,59.88023952,6160ccb0810a73f90ef4c5e7,65d2b6c8f2eece985d8e374c,65d2b9ae80b5775321cab970,0.0645,0.0648,1,0,162,119,1,eightseven,,,,,,,,,,,,,,,,,,,,,,,,,,,,,,,,,,,,,,,,,,,,,,,,,,,,,,,,,,,,,,,,,,,,,,,,,,,,,,,,,,,,,,,,,,,,,,,,,,,,,,,,,,,,,,,,,,,,,,,,,,,,,,,,,,,,,,,,,
,,6160ccb0810a73f90ef4c5e7,2024-02-19_04h15.47.426,kallum_motion_pilot,2023.2.2,Win32,59.88023952,6160ccb0810a73f90ef4c5e7,65d2b6c8f2eece985d8e374c,65d2b9ae80b5775321cab970,0.0651,0.0652,1,1,163,120,1,fivesix,,,,,,,,,,,,,,,,,,,,,,,,,,,,,,,,,,,,,,,,,,,,,,,,,,,,,,,,,,,,,,,,,,,,,,,,,,,,,,,,,,,,,,,,,,,,,,,,,,,,,,,,,,,,,,,,,,,,,,,,,,,,,,,,,,,,,,,,,
,,6160ccb0810a73f90ef4c5e7,2024-02-19_04h15.47.426,kallum_motion_pilot,2023.2.2,Win32,59.88023952,6160ccb0810a73f90ef4c5e7,65d2b6c8f2eece985d8e374c,65d2b9ae80b5775321cab970,0.0654,0.0656,1,2,164,113,1,fiveseven,,,,,,,,,,,,,,,,,,,,,,,,,,,,,,,,,,,,,,,,,,,,,,,,,,,,,,,,,,,,,,,,,,,,,,,,,,,,,,,,,,,,,,,,,,,,,,,,,,,,,,,,,,,,,,,,,,,,,,,,,,,,,,,,,,,,,,,,,
,,6160ccb0810a73f90ef4c5e7,2024-02-19_04h15.47.426,kallum_motion_pilot,2023.2.2,Win32,59.88023952,6160ccb0810a73f90ef4c5e7,65d2b6c8f2eece985d8e374c,65d2b9ae80b5775321cab970,0.0657,0.0658,1,3,165,16,1,onetwo,,,,,,,,,,,,,,,,,,,,,,,,,,,,,,,,,,,,,,,,,,,,,,,,,,,,,,,,,,,,,,,,,,,,,,,,,,,,,,,,,,,,,,,,,,,,,,,,,,,,,,,,,,,,,,,,,,,,,,,,,,,,,,,,,,,,,,,,,
,,6160ccb0810a73f90ef4c5e7,2024-02-19_04h15.47.426,kallum_motion_pilot,2023.2.2,Win32,59.88023952,6160ccb0810a73f90ef4c5e7,65d2b6c8f2eece985d8e374c,65d2b9ae80b5775321cab970,0.0659,0.0661,1,4,166,21,1,threefour,,,,,,,,,,,,,,,,,,,,,,,,,,,,,,,,,,,,,,,,,,,,,,,,,,,,,,,,,,,,,,,,,,,,,,,,,,,,,,,,,,,,,,,,,,,,,,,,,,,,,,,,,,,,,,,,,,,,,,,,,,,,,,,,,,,,,,,,,
,,6160ccb0810a73f90ef4c5e7,2024-02-19_04h15.47.426,kallum_motion_pilot,2023.2.2,Win32,59.88023952,6160ccb0810a73f90ef4c5e7,65d2b6c8f2eece985d8e374c,65d2b9ae80b5775321cab970,0.0662,0.0662,1,5,167,46,1,fourtwo,,,,,,,,,,,,,,,,,,,,,,,,,,,,,,,,,,,,,,,,,,,,,,,,,,,,,,,,,,,,,,,,,,,,,,,,,,,,,,,,,,,,,,,,,,,,,,,,,,,,,,,,,,,,,,,,,,,,,,,,,,,,,,,,,,,,,,,,,
,,6160ccb0810a73f90ef4c5e7,2024-02-19_04h15.47.426,kallum_motion_pilot,2023.2.2,Win32,59.88023952,6160ccb0810a73f90ef4c5e7,65d2b6c8f2eece985d8e374c,65d2b9ae80b5775321cab970,0.0664,0.0665,1,6,168,24,1,onetwo,,,,,,,,,,,,,,,,,,,,,,,,,,,,,,,,,,,,,,,,,,,,,,,,,,,,,,,,,,,,,,,,,,,,,,,,,,,,,,,,,,,,,,,,,,,,,,,,,,,,,,,,,,,,,,,,,,,,,,,,,,,,,,,,,,,,,,,,,
,,6160ccb0810a73f90ef4c5e7,2024-02-19_04h15.47.426,kallum_motion_pilot,2023.2.2,Win32,59.88023952,6160ccb0810a73f90ef4c5e7,65d2b6c8f2eece985d8e374c,65d2b9ae80b5775321cab970,0.0665,0.0667,1,7,169,136,1,fivesix,,,,,,,,,,,,,,,,,,,,,,,,,,,,,,,,,,,,,,,,,,,,,,,,,,,,,,,,,,,,,,,,,,,,,,,,,,,,,,,,,,,,,,,,,,,,,,,,,,,,,,,,,,,,,,,,,,,,,,,,,,,,,,,,,,,,,,,,,
,,6160ccb0810a73f90ef4c5e7,2024-02-19_04h15.47.426,kallum_motion_pilot,2023.2.2,Win32,59.88023952,6160ccb0810a73f90ef4c5e7,65d2b6c8f2eece985d8e374c,65d2b9ae80b5775321cab970,0.0668,0.0669,1,8,170,99,1,sixeight,,,,,,,,,,,,,,,,,,,,,,,,,,,,,,,,,,,,,,,,,,,,,,,,,,,,,,,,,,,,,,,,,,,,,,,,,,,,,,,,,,,,,,,,,,,,,,,,,,,,,,,,,,,,,,,,,,,,,,,,,,,,,,,,,,,,,,,,,
,,6160ccb0810a73f90ef4c5e7,2024-02-19_04h15.47.426,kallum_motion_pilot,2023.2.2,Win32,59.88023952,6160ccb0810a73f90ef4c5e7,65d2b6c8f2eece985d8e374c,65d2b9ae80b5775321cab970,0.067,0.0671,1,9,171,114,1,sixfive,,,,,,,,,,,,,,,,,,,,,,,,,,,,,,,,,,,,,,,,,,,,,,,,,,,,,,,,,,,,,,,,,,,,,,,,,,,,,,,,,,,,,,,,,,,,,,,,,,,,,,,,,,,,,,,,,,,,,,,,,,,,,,,,,,,,,,,,,
,,6160ccb0810a73f90ef4c5e7,2024-02-19_04h15.47.426,kallum_motion_pilot,2023.2.2,Win32,59.88023952,6160ccb0810a73f90ef4c5e7,65d2b6c8f2eece985d8e374c,65d2b9ae80b5775321cab970,0.0672,0.0672,1,10,172,27,1,twofour,,,,,,,,,,,,,,,,,,,,,,,,,,,,,,,,,,,,,,,,,,,,,,,,,,,,,,,,,,,,,,,,,,,,,,,,,,,,,,,,,,,,,,,,,,,,,,,,,,,,,,,,,,,,,,,,,,,,,,,,,,,,,,,,,,,,,,,,,
,,6160ccb0810a73f90ef4c5e7,2024-02-19_04h15.47.426,kallum_motion_pilot,2023.2.2,Win32,59.88023952,6160ccb0810a73f90ef4c5e7,65d2b6c8f2eece985d8e374c,65d2b9ae80b5775321cab970,0.0674,0.0674,1,11,173,88,1,fivesix,,,,,,,,,,,,,,,,,,,,,,,,,,,,,,,,,,,,,,,,,,,,,,,,,,,,,,,,,,,,,,,,,,,,,,,,,,,,,,,,,,,,,,,,,,,,,,,,,,,,,,,,,,,,,,,,,,,,,,,,,,,,,,,,,,,,,,,,,
,,6160ccb0810a73f90ef4c5e7,2024-02-19_04h15.47.426,kallum_motion_pilot,2023.2.2,Win32,59.88023952,6160ccb0810a73f90ef4c5e7,65d2b6c8f2eece985d8e374c,65d2b9ae80b5775321cab970,0.0675,0.0676,1,12,174,70,1,fourtwo,,,,,,,,,,,,,,,,,,,,,,,,,,,,,,,,,,,,,,,,,,,,,,,,,,,,,,,,,,,,,,,,,,,,,,,,,,,,,,,,,,,,,,,,,,,,,,,,,,,,,,,,,,,,,,,,,,,,,,,,,,,,,,,,,,,,,,,,,
,,6160ccb0810a73f90ef4c5e7,2024-02-19_04h15.47.426,kallum_motion_pilot,2023.2.2,Win32,59.88023952,6160ccb0810a73f90ef4c5e7,65d2b6c8f2eece985d8e374c,65d2b9ae80b5775321cab970,0.0677,0.0678,1,13,175,124,1,sevenfive,,,,,,,,,,,,,,,,,,,,,,,,,,,,,,,,,,,,,,,,,,,,,,,,,,,,,,,,,,,,,,,,,,,,,,,,,,,,,,,,,,,,,,,,,,,,,,,,,,,,,,,,,,,,,,,,,,,,,,,,,,,,,,,,,,,,,,,,,
,,6160ccb0810a73f90ef4c5e7,2024-02-19_04h15.47.426,kallum_motion_pilot,2023.2.2,Win32,59.88023952,6160ccb0810a73f90ef4c5e7,65d2b6c8f2eece985d8e374c,65d2b9ae80b5775321cab970,0.0679,0.068,1,14,176,127,1,eightseven,,,,,,,,,,,,,,,,,,,,,,,,,,,,,,,,,,,,,,,,,,,,,,,,,,,,,,,,,,,,,,,,,,,,,,,,,,,,,,,,,,,,,,,,,,,,,,,,,,,,,,,,,,,,,,,,,,,,,,,,,,,,,,,,,,,,,,,,,
,,6160ccb0810a73f90ef4c5e7,2024-02-19_04h15.47.426,kallum_motion_pilot,2023.2.2,Win32,59.88023952,6160ccb0810a73f90ef4c5e7,65d2b6c8f2eece985d8e374c,65d2b9ae80b5775321cab970,0.0681,0.0681,1,15,177,5,1,threefour,,,,,,,,,,,,,,,,,,,,,,,,,,,,,,,,,,,,,,,,,,,,,,,,,,,,,,,,,,,,,,,,,,,,,,,,,,,,,,,,,,,,,,,,,,,,,,,,,,,,,,,,,,,,,,,,,,,,,,,,,,,,,,,,,,,,,,,,,
,,6160ccb0810a73f90ef4c5e7,2024-02-19_04h15.47.426,kallum_motion_pilot,2023.2.2,Win32,59.88023952,6160ccb0810a73f90ef4c5e7,65d2b6c8f2eece985d8e374c,65d2b9ae80b5775321cab970,0.0682,0.0682,1,16,178,117,1,seveneight,,,,,,,,,,,,,,,,,,,,,,,,,,,,,,,,,,,,,,,,,,,,,,,,,,,,,,,,,,,,,,,,,,,,,,,,,,,,,,,,,,,,,,,,,,,,,,,,,,,,,,,,,,,,,,,,,,,,,,,,,,,,,,,,,,,,,,,,,
,,6160ccb0810a73f90ef4c5e7,2024-02-19_04h15.47.426,kallum_motion_pilot,2023.2.2,Win32,59.88023952,6160ccb0810a73f90ef4c5e7,65d2b6c8f2eece985d8e374c,65d2b9ae80b5775321cab970,0.0684,0.0684,1,17,179,53,1,threefour,,,,,,,,,,,,,,,,,,,,,,,,,,,,,,,,,,,,,,,,,,,,,,,,,,,,,,,,,,,,,,,,,,,,,,,,,,,,,,,,,,,,,,,,,,,,,,,,,,,,,,,,,,,,,,,,,,,,,,,,,,,,,,,,,,,,,,,,,
,,6160ccb0810a73f90ef4c5e7,2024-02-19_04h15.47.426,kallum_motion_pilot,2023.2.2,Win32,59.88023952,6160ccb0810a73f90ef4c5e7,65d2b6c8f2eece985d8e374c,65d2b9ae80b5775321cab970,0.0686,0.0686,1,18,180,14,1,fourtwo,,,,,,,,,,,,,,,,,,,,,,,,,,,,,,,,,,,,,,,,,,,,,,,,,,,,,,,,,,,,,,,,,,,,,,,,,,,,,,,,,,,,,,,,,,,,,,,,,,,,,,,,,,,,,,,,,,,,,,,,,,,,,,,,,,,,,,,,,
,,6160ccb0810a73f90ef4c5e7,2024-02-19_04h15.47.426,kallum_motion_pilot,2023.2.2,Win32,59.88023952,6160ccb0810a73f90ef4c5e7,65d2b6c8f2eece985d8e374c,65d2b9ae80b5775321cab970,0.0687,0.0688,1,19,181,116,1,sevenfive,,,,,,,,,,,,,,,,,,,,,,,,,,,,,,,,,,,,,,,,,,,,,,,,,,,,,,,,,,,,,,,,,,,,,,,,,,,,,,,,,,,,,,,,,,,,,,,,,,,,,,,,,,,,,,,,,,,,,,,,,,,,,,,,,,,,,,,,,
,,6160ccb0810a73f90ef4c5e7,2024-02-19_04h15.47.426,kallum_motion_pilot,2023.2.2,Win32,59.88023952,6160ccb0810a73f90ef4c5e7,65d2b6c8f2eece985d8e374c,65d2b9ae80b5775321cab970,0.0689,0.0689,1,20,182,37,1,threefour,,,,,,,,,,,,,,,,,,,,,,,,,,,,,,,,,,,,,,,,,,,,,,,,,,,,,,,,,,,,,,,,,,,,,,,,,,,,,,,,,,,,,,,,,,,,,,,,,,,,,,,,,,,,,,,,,,,,,,,,,,,,,,,,,,,,,,,,,
,,6160ccb0810a73f90ef4c5e7,2024-02-19_04h15.47.426,kallum_motion_pilot,2023.2.2,Win32,59.88023952,6160ccb0810a73f90ef4c5e7,65d2b6c8f2eece985d8e374c,65d2b9ae80b5775321cab970,0.0691,0.0691,1,21,183,45,1,threefour,,,,,,,,,,,,,,,,,,,,,,,,,,,,,,,,,,,,,,,,,,,,,,,,,,,,,,,,,,,,,,,,,,,,,,,,,,,,,,,,,,,,,,,,,,,,,,,,,,,,,,,,,,,,,,,,,,,,,,,,,,,,,,,,,,,,,,,,,
,,6160ccb0810a73f90ef4c5e7,2024-02-19_04h15.47.426,kallum_motion_pilot,2023.2.2,Win32,59.88023952,6160ccb0810a73f90ef4c5e7,65d2b6c8f2eece985d8e374c,65d2b9ae80b5775321cab970,0.0693,0.0695,1,22,184,2,1,twoone,,,,,,,,,,,,,,,,,,,,,,,,,,,,,,,,,,,,,,,,,,,,,,,,,,,,,,,,,,,,,,,,,,,,,,,,,,,,,,,,,,,,,,,,,,,,,,,,,,,,,,,,,,,,,,,,,,,,,,,,,,,,,,,,,,,,,,,,,
,,6160ccb0810a73f90ef4c5e7,2024-02-19_04h15.47.426,kallum_motion_pilot,2023.2.2,Win32,59.88023952,6160ccb0810a73f90ef4c5e7,65d2b6c8f2eece985d8e374c,65d2b9ae80b5775321cab970,0.0696,0.0697,1,23,185,98,1,sixfive,,,,,,,,,,,,,,,,,,,,,,,,,,,,,,,,,,,,,,,,,,,,,,,,,,,,,,,,,,,,,,,,,,,,,,,,,,,,,,,,,,,,,,,,,,,,,,,,,,,,,,,,,,,,,,,,,,,,,,,,,,,,,,,,,,,,,,,,,
,,6160ccb0810a73f90ef4c5e7,2024-02-19_04h15.47.426,kallum_motion_pilot,2023.2.2,Win32,59.88023952,6160ccb0810a73f90ef4c5e7,65d2b6c8f2eece985d8e374c,65d2b9ae80b5775321cab970,0.0699,0.07,1,24,186,135,1,eightseven,,,,,,,,,,,,,,,,,,,,,,,,,,,,,,,,,,,,,,,,,,,,,,,,,,,,,,,,,,,,,,,,,,,,,,,,,,,,,,,,,,,,,,,,,,,,,,,,,,,,,,,,,,,,,,,,,,,,,,,,,,,,,,,,,,,,,,,,,
,,6160ccb0810a73f90ef4c5e7,2024-02-19_04h15.47.426,kallum_motion_pilot,2023.2.2,Win32,59.88023952,6160ccb0810a73f90ef4c5e7,65d2b6c8f2eece985d8e374c,65d2b9ae80b5775321cab970,0.07,0.0701,1,25,187,36,1,threeone,,,,,,,,,,,,,,,,,,,,,,,,,,,,,,,,,,,,,,,,,,,,,,,,,,,,,,,,,,,,,,,,,,,,,,,,,,,,,,,,,,,,,,,,,,,,,,,,,,,,,,,,,,,,,,,,,,,,,,,,,,,,,,,,,,,,,,,,,
,,6160ccb0810a73f90ef4c5e7,2024-02-19_04h15.47.426,kallum_motion_pilot,2023.2.2,Win32,59.88023952,6160ccb0810a73f90ef4c5e7,65d2b6c8f2eece985d8e374c,65d2b9ae80b5775321cab970,0.0702,0.0703,1,26,188,85,1,seveneight,,,,,,,,,,,,,,,,,,,,,,,,,,,,,,,,,,,,,,,,,,,,,,,,,,,,,,,,,,,,,,,,,,,,,,,,,,,,,,,,,,,,,,,,,,,,,,,,,,,,,,,,,,,,,,,,,,,,,,,,,,,,,,,,,,,,,,,,,
,,6160ccb0810a73f90ef4c5e7,2024-02-19_04h15.47.426,kallum_motion_pilot,2023.2.2,Win32,59.88023952,6160ccb0810a73f90ef4c5e7,65d2b6c8f2eece985d8e374c,65d2b9ae80b5775321cab970,0.0704,0.0705,1,27,189,145,1,fiveseven,,,,,,,,,,,,,,,,,,,,,,,,,,,,,,,,,,,,,,,,,,,,,,,,,,,,,,,,,,,,,,,,,,,,,,,,,,,,,,,,,,,,,,,,,,,,,,,,,,,,,,,,,,,,,,,,,,,,,,,,,,,,,,,,,,,,,,,,,
,,6160ccb0810a73f90ef4c5e7,2024-02-19_04h15.47.426,kallum_motion_pilot,2023.2.2,Win32,59.88023952,6160ccb0810a73f90ef4c5e7,65d2b6c8f2eece985d8e374c,65d2b9ae80b5775321cab970,0.0706,0.0707,1,28,190,77,1,threefour,,,,,,,,,,,,,,,,,,,,,,,,,,,,,,,,,,,,,,,,,,,,,,,,,,,,,,,,,,,,,,,,,,,,,,,,,,,,,,,,,,,,,,,,,,,,,,,,,,,,,,,,,,,,,,,,,,,,,,,,,,,,,,,,,,,,,,,,,
,,6160ccb0810a73f90ef4c5e7,2024-02-19_04h15.47.426,kallum_motion_pilot,2023.2.2,Win32,59.88023952,6160ccb0810a73f90ef4c5e7,65d2b6c8f2eece985d8e374c,65d2b9ae80b5775321cab970,0.0708,0.0709,1,29,191,51,1,twofour,,,,,,,,,,,,,,,,,,,,,,,,,,,,,,,,,,,,,,,,,,,,,,,,,,,,,,,,,,,,,,,,,,,,,,,,,,,,,,,,,,,,,,,,,,,,,,,,,,,,,,,,,,,,,,,,,,,,,,,,,,,,,,,,,,,,,,,,,
,,6160ccb0810a73f90ef4c5e7,2024-02-19_04h15.47.426,kallum_motion_pilot,2023.2.2,Win32,59.88023952,6160ccb0810a73f90ef4c5e7,65d2b6c8f2eece985d8e374c,65d2b9ae80b5775321cab970,0.071,0.071,1,30,192,82,1,sixfive,,,,,,,,,,,,,,,,,,,,,,,,,,,,,,,,,,,,,,,,,,,,,,,,,,,,,,,,,,,,,,,,,,,,,,,,,,,,,,,,,,,,,,,,,,,,,,,,,,,,,,,,,,,,,,,,,,,,,,,,,,,,,,,,,,,,,,,,,
,,6160ccb0810a73f90ef4c5e7,2024-02-19_04h15.47.426,kallum_motion_pilot,2023.2.2,Win32,59.88023952,6160ccb0810a73f90ef4c5e7,65d2b6c8f2eece985d8e374c,65d2b9ae80b5775321cab970,0.0712,0.0712,1,31,193,42,1,twoone,,,,,,,,,,,,,,,,,,,,,,,,,,,,,,,,,,,,,,,,,,,,,,,,,,,,,,,,,,,,,,,,,,,,,,,,,,,,,,,,,,,,,,,,,,,,,,,,,,,,,,,,,,,,,,,,,,,,,,,,,,,,,,,,,,,,,,,,,
,,6160ccb0810a73f90ef4c5e7,2024-02-19_04h15.47.426,kallum_motion_pilot,2023.2.2,Win32,59.88023952,6160ccb0810a73f90ef4c5e7,65d2b6c8f2eece985d8e374c,65d2b9ae80b5775321cab970,0.0714,0.0715,1,32,194,97,1,fiveseven,,,,,,,,,,,,,,,,,,,,,,,,,,,,,,,,,,,,,,,,,,,,,,,,,,,,,,,,,,,,,,,,,,,,,,,,,,,,,,,,,,,,,,,,,,,,,,,,,,,,,,,,,,,,,,,,,,,,,,,,,,,,,,,,,,,,,,,,,
,,6160ccb0810a73f90ef4c5e7,2024-02-19_04h15.47.426,kallum_motion_pilot,2023.2.2,Win32,59.88023952,6160ccb0810a73f90ef4c5e7,65d2b6c8f2eece985d8e374c,65d2b9ae80b5775321cab970,0.0716,0.0718,1,33,195,137,1,fiveseven,,,,,,,,,,,,,,,,,,,,,,,,,,,,,,,,,,,,,,,,,,,,,,,,,,,,,,,,,,,,,,,,,,,,,,,,,,,,,,,,,,,,,,,,,,,,,,,,,,,,,,,,,,,,,,,,,,,,,,,,,,,,,,,,,,,,,,,,,
,,6160ccb0810a73f90ef4c5e7,2024-02-19_04h15.47.426,kallum_motion_pilot,2023.2.2,Win32,59.88023952,6160ccb0810a73f90ef4c5e7,65d2b6c8f2eece985d8e374c,65d2b9ae80b5775321cab970,0.072,0.0721,1,34,196,67,1,twofour,,,,,,,,,,,,,,,,,,,,,,,,,,,,,,,,,,,,,,,,,,,,,,,,,,,,,,,,,,,,,,,,,,,,,,,,,,,,,,,,,,,,,,,,,,,,,,,,,,,,,,,,,,,,,,,,,,,,,,,,,,,,,,,,,,,,,,,,,
,,6160ccb0810a73f90ef4c5e7,2024-02-19_04h15.47.426,kallum_motion_pilot,2023.2.2,Win32,59.88023952,6160ccb0810a73f90ef4c5e7,65d2b6c8f2eece985d8e374c,65d2b9ae80b5775321cab970,0.0722,0.0723,1,35,197,41,1,onethree,,,,,,,,,,,,,,,,,,,,,,,,,,,,,,,,,,,,,,,,,,,,,,,,,,,,,,,,,,,,,,,,,,,,,,,,,,,,,,,,,,,,,,,,,,,,,,,,,,,,,,,,,,,,,,,,,,,,,,,,,,,,,,,,,,,,,,,,,
,,6160ccb0810a73f90ef4c5e7,2024-02-19_04h15.47.426,kallum_motion_pilot,2023.2.2,Win32,59.88023952,6160ccb0810a73f90ef4c5e7,65d2b6c8f2eece985d8e374c,65d2b9ae80b5775321cab970,0.0724,0.0725,1,36,198,61,1,threefour,,,,,,,,,,,,,,,,,,,,,,,,,,,,,,,,,,,,,,,,,,,,,,,,,,,,,,,,,,,,,,,,,,,,,,,,,,,,,,,,,,,,,,,,,,,,,,,,,,,,,,,,,,,,,,,,,,,,,,,,,,,,,,,,,,,,,,,,,
,,6160ccb0810a73f90ef4c5e7,2024-02-19_04h15.47.426,kallum_motion_pilot,2023.2.2,Win32,59.88023952,6160ccb0810a73f90ef4c5e7,65d2b6c8f2eece985d8e374c,65d2b9ae80b5775321cab970,0.0727,0.0728,1,37,199,47,1,fourthree,,,,,,,,,,,,,,,,,,,,,,,,,,,,,,,,,,,,,,,,,,,,,,,,,,,,,,,,,,,,,,,,,,,,,,,,,,,,,,,,,,,,,,,,,,,,,,,,,,,,,,,,,,,,,,,,,,,,,,,,,,,,,,,,,,,,,,,,,
,,6160ccb0810a73f90ef4c5e7,2024-02-19_04h15.47.426,kallum_motion_pilot,2023.2.2,Win32,59.88023952,6160ccb0810a73f90ef4c5e7,65d2b6c8f2eece985d8e374c,65d2b9ae80b5775321cab970,0.0728,0.073,1,38,200,73,1,onethree,,,,,,,,,,,,,,,,,,,,,,,,,,,,,,,,,,,,,,,,,,,,,,,,,,,,,,,,,,,,,,,,,,,,,,,,,,,,,,,,,,,,,,,,,,,,,,,,,,,,,,,,,,,,,,,,,,,,,,,,,,,,,,,,,,,,,,,,,
,,6160ccb0810a73f90ef4c5e7,2024-02-19_04h15.47.426,kallum_motion_pilot,2023.2.2,Win32,59.88023952,6160ccb0810a73f90ef4c5e7,65d2b6c8f2eece985d8e374c,65d2b9ae80b5775321cab970,0.073,0.0731,1,39,201,143,1,eightseven,,,,,,,,,,,,,,,,,,,,,,,,,,,,,,,,,,,,,,,,,,,,,,,,,,,,,,,,,,,,,,,,,,,,,,,,,,,,,,,,,,,,,,,,,,,,,,,,,,,,,,,,,,,,,,,,,,,,,,,,,,,,,,,,,,,,,,,,,
,,6160ccb0810a73f90ef4c5e7,2024-02-19_04h15.47.426,kallum_motion_pilot,2023.2.2,Win32,59.88023952,6160ccb0810a73f90ef4c5e7,65d2b6c8f2eece985d8e374c,65d2b9ae80b5775321cab970,0.0733,0.0734,1,40,202,19,1,twofour,,,,,,,,,,,,,,,,,,,,,,,,,,,,,,,,,,,,,,,,,,,,,,,,,,,,,,,,,,,,,,,,,,,,,,,,,,,,,,,,,,,,,,,,,,,,,,,,,,,,,,,,,,,,,,,,,,,,,,,,,,,,,,,,,,,,,,,,,
,,6160ccb0810a73f90ef4c5e7,2024-02-19_04h15.47.426,kallum_motion_pilot,2023.2.2,Win32,59.88023952,6160ccb0810a73f90ef4c5e7,65d2b6c8f2eece985d8e374c,65d2b9ae80b5775321cab970,0.0736,0.0737,1,41,203,50,1,twoone,,,,,,,,,,,,,,,,,,,,,,,,,,,,,,,,,,,,,,,,,,,,,,,,,,,,,,,,,,,,,,,,,,,,,,,,,,,,,,,,,,,,,,,,,,,,,,,,,,,,,,,,,,,,,,,,,,,,,,,,,,,,,,,,,,,,,,,,,
,,6160ccb0810a73f90ef4c5e7,2024-02-19_04h15.47.426,kallum_motion_pilot,2023.2.2,Win32,59.88023952,6160ccb0810a73f90ef4c5e7,65d2b6c8f2eece985d8e374c,65d2b9ae80b5775321cab970,0.0738,0.0739,1,42,204,28,1,threeone,,,,,,,,,,,,,,,,,,,,,,,,,,,,,,,,,,,,,,,,,,,,,,,,,,,,,,,,,,,,,,,,,,,,,,,,,,,,,,,,,,,,,,,,,,,,,,,,,,,,,,,,,,,,,,,,,,,,,,,,,,,,,,,,,,,,,,,,,
,,6160ccb0810a73f90ef4c5e7,2024-02-19_04h15.47.426,kallum_motion_pilot,2023.2.2,Win32,59.88023952,6160ccb0810a73f90ef4c5e7,65d2b6c8f2eece985d8e374c,65d2b9ae80b5775321cab970,0.074,0.074,1,43,205,3,1,twofour,,,,,,,,,,,,,,,,,,,,,,,,,,,,,,,,,,,,,,,,,,,,,,,,,,,,,,,,,,,,,,,,,,,,,,,,,,,,,,,,,,,,,,,,,,,,,,,,,,,,,,,,,,,,,,,,,,,,,,,,,,,,,,,,,,,,,,,,,
,,6160ccb0810a73f90ef4c5e7,2024-02-19_04h15.47.426,kallum_motion_pilot,2023.2.2,Win32,59.88023952,6160ccb0810a73f90ef4c5e7,65d2b6c8f2eece985d8e374c,65d2b9ae80b5775321cab970,0.0742,0.0743,1,44,206,130,1,sixfive,,,,,,,,,,,,,,,,,,,,,,,,,,,,,,,,,,,,,,,,,,,,,,,,,,,,,,,,,,,,,,,,,,,,,,,,,,,,,,,,,,,,,,,,,,,,,,,,,,,,,,,,,,,,,,,,,,,,,,,,,,,,,,,,,,,,,,,,,
,,6160ccb0810a73f90ef4c5e7,2024-02-19_04h15.47.426,kallum_motion_pilot,2023.2.2,Win32,59.88023952,6160ccb0810a73f90ef4c5e7,65d2b6c8f2eece985d8e374c,65d2b9ae80b5775321cab970,0.0743,0.0744,1,45,207,104,1,fivesix,,,,,,,,,,,,,,,,,,,,,,,,,,,,,,,,,,,,,,,,,,,,,,,,,,,,,,,,,,,,,,,,,,,,,,,,,,,,,,,,,,,,,,,,,,,,,,,,,,,,,,,,,,,,,,,,,,,,,,,,,,,,,,,,,,,,,,,,,
,,6160ccb0810a73f90ef4c5e7,2024-02-19_04h15.47.426,kallum_motion_pilot,2023.2.2,Win32,59.88023952,6160ccb0810a73f90ef4c5e7,65d2b6c8f2eece985d8e374c,65d2b9ae80b5775321cab970,0.0746,0.0747,1,46,208,142,1,eightsix,,,,,,,,,,,,,,,,,,,,,,,,,,,,,,,,,,,,,,,,,,,,,,,,,,,,,,,,,,,,,,,,,,,,,,,,,,,,,,,,,,,,,,,,,,,,,,,,,,,,,,,,,,,,,,,,,,,,,,,,,,,,,,,,,,,,,,,,,
,,6160ccb0810a73f90ef4c5e7,2024-02-19_04h15.47.426,kallum_motion_pilot,2023.2.2,Win32,59.88023952,6160ccb0810a73f90ef4c5e7,65d2b6c8f2eece985d8e374c,65d2b9ae80b5775321cab970,0.0747,0.0748,1,47,209,92,1,sevenfive,,,,,,,,,,,,,,,,,,,,,,,,,,,,,,,,,,,,,,,,,,,,,,,,,,,,,,,,,,,,,,,,,,,,,,,,,,,,,,,,,,,,,,,,,,,,,,,,,,,,,,,,,,,,,,,,,,,,,,,,,,,,,,,,,,,,,,,,,
,,6160ccb0810a73f90ef4c5e7,2024-02-19_04h15.47.426,kallum_motion_pilot,2023.2.2,Win32,59.88023952,6160ccb0810a73f90ef4c5e7,65d2b6c8f2eece985d8e374c,65d2b9ae80b5775321cab970,0.0749,0.075,1,48,210,79,1,eightseven,,,,,,,,,,,,,,,,,,,,,,,,,,,,,,,,,,,,,,,,,,,,,,,,,,,,,,,,,,,,,,,,,,,,,,,,,,,,,,,,,,,,,,,,,,,,,,,,,,,,,,,,,,,,,,,,,,,,,,,,,,,,,,,,,,,,,,,,,
,,6160ccb0810a73f90ef4c5e7,2024-02-19_04h15.47.426,kallum_motion_pilot,2023.2.2,Win32,59.88023952,6160ccb0810a73f90ef4c5e7,65d2b6c8f2eece985d8e374c,65d2b9ae80b5775321cab970,0.0751,0.0751,1,49,211,9,1,onethree,,,,,,,,,,,,,,,,,,,,,,,,,,,,,,,,,,,,,,,,,,,,,,,,,,,,,,,,,,,,,,,,,,,,,,,,,,,,,,,,,,,,,,,,,,,,,,,,,,,,,,,,,,,,,,,,,,,,,,,,,,,,,,,,,,,,,,,,,
,,6160ccb0810a73f90ef4c5e7,2024-02-19_04h15.47.426,kallum_motion_pilot,2023.2.2,Win32,59.88023952,6160ccb0810a73f90ef4c5e7,65d2b6c8f2eece985d8e374c,65d2b9ae80b5775321cab970,0.0752,0.0754,1,50,212,139,1,sixeight,,,,,,,,,,,,,,,,,,,,,,,,,,,,,,,,,,,,,,,,,,,,,,,,,,,,,,,,,,,,,,,,,,,,,,,,,,,,,,,,,,,,,,,,,,,,,,,,,,,,,,,,,,,,,,,,,,,,,,,,,,,,,,,,,,,,,,,,,
,,6160ccb0810a73f90ef4c5e7,2024-02-19_04h15.47.426,kallum_motion_pilot,2023.2.2,Win32,59.88023952,6160ccb0810a73f90ef4c5e7,65d2b6c8f2eece985d8e374c,65d2b9ae80b5775321cab970,0.0754,0.0755,1,51,213,59,1,twofour,,,,,,,,,,,,,,,,,,,,,,,,,,,,,,,,,,,,,,,,,,,,,,,,,,,,,,,,,,,,,,,,,,,,,,,,,,,,,,,,,,,,,,,,,,,,,,,,,,,,,,,,,,,,,,,,,,,,,,,,,,,,,,,,,,,,,,,,,
,,6160ccb0810a73f90ef4c5e7,2024-02-19_04h15.47.426,kallum_motion_pilot,2023.2.2,Win32,59.88023952,6160ccb0810a73f90ef4c5e7,65d2b6c8f2eece985d8e374c,65d2b9ae80b5775321cab970,0.0756,0.0757,1,52,214,129,1,fiveseven,,,,,,,,,,,,,,,,,,,,,,,,,,,,,,,,,,,,,,,,,,,,,,,,,,,,,,,,,,,,,,,,,,,,,,,,,,,,,,,,,,,,,,,,,,,,,,,,,,,,,,,,,,,,,,,,,,,,,,,,,,,,,,,,,,,,,,,,,
,,6160ccb0810a73f90ef4c5e7,2024-02-19_04h15.47.426,kallum_motion_pilot,2023.2.2,Win32,59.88023952,6160ccb0810a73f90ef4c5e7,65d2b6c8f2eece985d8e374c,65d2b9ae80b5775321cab970,0.0758,0.0759,1,53,215,153,1,fiveseven,,,,,,,,,,,,,,,,,,,,,,,,,,,,,,,,,,,,,,,,,,,,,,,,,,,,,,,,,,,,,,,,,,,,,,,,,,,,,,,,,,,,,,,,,,,,,,,,,,,,,,,,,,,,,,,,,,,,,,,,,,,,,,,,,,,,,,,,,
,,6160ccb0810a73f90ef4c5e7,2024-02-19_04h15.47.426,kallum_motion_pilot,2023.2.2,Win32,59.88023952,6160ccb0810a73f90ef4c5e7,65d2b6c8f2eece985d8e374c,65d2b9ae80b5775321cab970,0.0761,0.0761,1,54,216,131,1,sixeight,,,,,,,,,,,,,,,,,,,,,,,,,,,,,,,,,,,,,,,,,,,,,,,,,,,,,,,,,,,,,,,,,,,,,,,,,,,,,,,,,,,,,,,,,,,,,,,,,,,,,,,,,,,,,,,,,,,,,,,,,,,,,,,,,,,,,,,,,
,,6160ccb0810a73f90ef4c5e7,2024-02-19_04h15.47.426,kallum_motion_pilot,2023.2.2,Win32,59.88023952,6160ccb0810a73f90ef4c5e7,65d2b6c8f2eece985d8e374c,65d2b9ae80b5775321cab970,0.0763,0.0763,1,55,217,121,1,fiveseven,,,,,,,,,,,,,,,,,,,,,,,,,,,,,,,,,,,,,,,,,,,,,,,,,,,,,,,,,,,,,,,,,,,,,,,,,,,,,,,,,,,,,,,,,,,,,,,,,,,,,,,,,,,,,,,,,,,,,,,,,,,,,,,,,,,,,,,,,
,,6160ccb0810a73f90ef4c5e7,2024-02-19_04h15.47.426,kallum_motion_pilot,2023.2.2,Win32,59.88023952,6160ccb0810a73f90ef4c5e7,65d2b6c8f2eece985d8e374c,65d2b9ae80b5775321cab970,0.0765,0.0765,1,56,218,118,1,eightsix,,,,,,,,,,,,,,,,,,,,,,,,,,,,,,,,,,,,,,,,,,,,,,,,,,,,,,,,,,,,,,,,,,,,,,,,,,,,,,,,,,,,,,,,,,,,,,,,,,,,,,,,,,,,,,,,,,,,,,,,,,,,,,,,,,,,,,,,,
,,6160ccb0810a73f90ef4c5e7,2024-02-19_04h15.47.426,kallum_motion_pilot,2023.2.2,Win32,59.88023952,6160ccb0810a73f90ef4c5e7,65d2b6c8f2eece985d8e374c,65d2b9ae80b5775321cab970,0.0766,0.0767,1,57,219,123,1,sixeight,,,,,,,,,,,,,,,,,,,,,,,,,,,,,,,,,,,,,,,,,,,,,,,,,,,,,,,,,,,,,,,,,,,,,,,,,,,,,,,,,,,,,,,,,,,,,,,,,,,,,,,,,,,,,,,,,,,,,,,,,,,,,,,,,,,,,,,,,
,,6160ccb0810a73f90ef4c5e7,2024-02-19_04h15.47.426,kallum_motion_pilot,2023.2.2,Win32,59.88023952,6160ccb0810a73f90ef4c5e7,65d2b6c8f2eece985d8e374c,65d2b9ae80b5775321cab970,0.0776,0.0776,1,58,220,90,1,sixfive,,,,,,,,,,,,,,,,,,,,,,,,,,,,,,,,,,,,,,,,,,,,,,,,,,,,,,,,,,,,,,,,,,,,,,,,,,,,,,,,,,,,,,,,,,,,,,,,,,,,,,,,,,,,,,,,,,,,,,,,,,,,,,,,,,,,,,,,,
,,6160ccb0810a73f90ef4c5e7,2024-02-19_04h15.47.426,kallum_motion_pilot,2023.2.2,Win32,59.88023952,6160ccb0810a73f90ef4c5e7,65d2b6c8f2eece985d8e374c,65d2b9ae80b5775321cab970,0.0777,0.0778,1,59,221,103,1,eightseven,,,,,,,,,,,,,,,,,,,,,,,,,,,,,,,,,,,,,,,,,,,,,,,,,,,,,,,,,,,,,,,,,,,,,,,,,,,,,,,,,,,,,,,,,,,,,,,,,,,,,,,,,,,,,,,,,,,,,,,,,,,,,,,,,,,,,,,,,
,,6160ccb0810a73f90ef4c5e7,2024-02-19_04h15.47.426,kallum_motion_pilot,2023.2.2,Win32,59.88023952,6160ccb0810a73f90ef4c5e7,65d2b6c8f2eece985d8e374c,65d2b9ae80b5775321cab970,0.0781,0.0781,1,60,222,107,1,sixeight,,,,,,,,,,,,,,,,,,,,,,,,,,,,,,,,,,,,,,,,,,,,,,,,,,,,,,,,,,,,,,,,,,,,,,,,,,,,,,,,,,,,,,,,,,,,,,,,,,,,,,,,,,,,,,,,,,,,,,,,,,,,,,,,,,,,,,,,,
,,6160ccb0810a73f90ef4c5e7,2024-02-19_04h15.47.426,kallum_motion_pilot,2023.2.2,Win32,59.88023952,6160ccb0810a73f90ef4c5e7,65d2b6c8f2eece985d8e374c,65d2b9ae80b5775321cab970,0.0783,0.0784,1,61,223,34,1,twoone,,,,,,,,,,,,,,,,,,,,,,,,,,,,,,,,,,,,,,,,,,,,,,,,,,,,,,,,,,,,,,,,,,,,,,,,,,,,,,,,,,,,,,,,,,,,,,,,,,,,,,,,,,,,,,,,,,,,,,,,,,,,,,,,,,,,,,,,,
,,6160ccb0810a73f90ef4c5e7,2024-02-19_04h15.47.426,kallum_motion_pilot,2023.2.2,Win32,59.88023952,6160ccb0810a73f90ef4c5e7,65d2b6c8f2eece985d8e374c,65d2b9ae80b5775321cab970,0.0785,0.0785,1,62,224,29,1,threefour,,,,,,,,,,,,,,,,,,,,,,,,,,,,,,,,,,,,,,,,,,,,,,,,,,,,,,,,,,,,,,,,,,,,,,,,,,,,,,,,,,,,,,,,,,,,,,,,,,,,,,,,,,,,,,,,,,,,,,,,,,,,,,,,,,,,,,,,,
,,6160ccb0810a73f90ef4c5e7,2024-02-19_04h15.47.426,kallum_motion_pilot,2023.2.2,Win32,59.88023952,6160ccb0810a73f90ef4c5e7,65d2b6c8f2eece985d8e374c,65d2b9ae80b5775321cab970,0.0786,0.0787,1,63,225,15,1,fourthree,,,,,,,,,,,,,,,,,,,,,,,,,,,,,,,,,,,,,,,,,,,,,,,,,,,,,,,,,,,,,,,,,,,,,,,,,,,,,,,,,,,,,,,,,,,,,,,,,,,,,,,,,,,,,,,,,,,,,,,,,,,,,,,,,,,,,,,,,
,,6160ccb0810a73f90ef4c5e7,2024-02-19_04h15.47.426,kallum_motion_pilot,2023.2.2,Win32,59.88023952,6160ccb0810a73f90ef4c5e7,65d2b6c8f2eece985d8e374c,65d2b9ae80b5775321cab970,0.0788,0.0789,1,64,226,106,1,sixfive,,,,,,,,,,,,,,,,,,,,,,,,,,,,,,,,,,,,,,,,,,,,,,,,,,,,,,,,,,,,,,,,,,,,,,,,,,,,,,,,,,,,,,,,,,,,,,,,,,,,,,,,,,,,,,,,,,,,,,,,,,,,,,,,,,,,,,,,,
,,6160ccb0810a73f90ef4c5e7,2024-02-19_04h15.47.426,kallum_motion_pilot,2023.2.2,Win32,59.88023952,6160ccb0810a73f90ef4c5e7,65d2b6c8f2eece985d8e374c,65d2b9ae80b5775321cab970,0.079,0.0792,1,65,227,65,1,onethree,,,,,,,,,,,,,,,,,,,,,,,,,,,,,,,,,,,,,,,,,,,,,,,,,,,,,,,,,,,,,,,,,,,,,,,,,,,,,,,,,,,,,,,,,,,,,,,,,,,,,,,,,,,,,,,,,,,,,,,,,,,,,,,,,,,,,,,,,
,,6160ccb0810a73f90ef4c5e7,2024-02-19_04h15.47.426,kallum_motion_pilot,2023.2.2,Win32,59.88023952,6160ccb0810a73f90ef4c5e7,65d2b6c8f2eece985d8e374c,65d2b9ae80b5775321cab970,0.0793,0.0793,1,66,228,62,1,fourtwo,,,,,,,,,,,,,,,,,,,,,,,,,,,,,,,,,,,,,,,,,,,,,,,,,,,,,,,,,,,,,,,,,,,,,,,,,,,,,,,,,,,,,,,,,,,,,,,,,,,,,,,,,,,,,,,,,,,,,,,,,,,,,,,,,,,,,,,,,
,,6160ccb0810a73f90ef4c5e7,2024-02-19_04h15.47.426,kallum_motion_pilot,2023.2.2,Win32,59.88023952,6160ccb0810a73f90ef4c5e7,65d2b6c8f2eece985d8e374c,65d2b9ae80b5775321cab970,0.0794,0.0796,1,67,229,156,1,sevenfive,,,,,,,,,,,,,,,,,,,,,,,,,,,,,,,,,,,,,,,,,,,,,,,,,,,,,,,,,,,,,,,,,,,,,,,,,,,,,,,,,,,,,,,,,,,,,,,,,,,,,,,,,,,,,,,,,,,,,,,,,,,,,,,,,,,,,,,,,
,,6160ccb0810a73f90ef4c5e7,2024-02-19_04h15.47.426,kallum_motion_pilot,2023.2.2,Win32,59.88023952,6160ccb0810a73f90ef4c5e7,65d2b6c8f2eece985d8e374c,65d2b9ae80b5775321cab970,0.0798,0.0806,1,68,230,91,1,sixeight,,,,,,,,,,,,,,,,,,,,,,,,,,,,,,,,,,,,,,,,,,,,,,,,,,,,,,,,,,,,,,,,,,,,,,,,,,,,,,,,,,,,,,,,,,,,,,,,,,,,,,,,,,,,,,,,,,,,,,,,,,,,,,,,,,,,,,,,,
,,6160ccb0810a73f90ef4c5e7,2024-02-19_04h15.47.426,kallum_motion_pilot,2023.2.2,Win32,59.88023952,6160ccb0810a73f90ef4c5e7,65d2b6c8f2eece985d8e374c,65d2b9ae80b5775321cab970,0.0811,0.0814,1,69,231,152,1,fivesix,,,,,,,,,,,,,,,,,,,,,,,,,,,,,,,,,,,,,,,,,,,,,,,,,,,,,,,,,,,,,,,,,,,,,,,,,,,,,,,,,,,,,,,,,,,,,,,,,,,,,,,,,,,,,,,,,,,,,,,,,,,,,,,,,,,,,,,,,
,,6160ccb0810a73f90ef4c5e7,2024-02-19_04h15.47.426,kallum_motion_pilot,2023.2.2,Win32,59.88023952,6160ccb0810a73f90ef4c5e7,65d2b6c8f2eece985d8e374c,65d2b9ae80b5775321cab970,0.0817,0.0819,1,70,232,55,1,fourthree,,,,,,,,,,,,,,,,,,,,,,,,,,,,,,,,,,,,,,,,,,,,,,,,,,,,,,,,,,,,,,,,,,,,,,,,,,,,,,,,,,,,,,,,,,,,,,,,,,,,,,,,,,,,,,,,,,,,,,,,,,,,,,,,,,,,,,,,,
,,6160ccb0810a73f90ef4c5e7,2024-02-19_04h15.47.426,kallum_motion_pilot,2023.2.2,Win32,59.88023952,6160ccb0810a73f90ef4c5e7,65d2b6c8f2eece985d8e374c,65d2b9ae80b5775321cab970,0.0821,0.0822,1,71,233,158,1,eightsix,,,,,,,,,,,,,,,,,,,,,,,,,,,,,,,,,,,,,,,,,,,,,,,,,,,,,,,,,,,,,,,,,,,,,,,,,,,,,,,,,,,,,,,,,,,,,,,,,,,,,,,,,,,,,,,,,,,,,,,,,,,,,,,,,,,,,,,,,
,,6160ccb0810a73f90ef4c5e7,2024-02-19_04h15.47.426,kallum_motion_pilot,2023.2.2,Win32,59.88023952,6160ccb0810a73f90ef4c5e7,65d2b6c8f2eece985d8e374c,65d2b9ae80b5775321cab970,0.0825,0.0826,1,72,234,160,1,fivesix,,,,,,,,,,,,,,,,,,,,,,,,,,,,,,,,,,,,,,,,,,,,,,,,,,,,,,,,,,,,,,,,,,,,,,,,,,,,,,,,,,,,,,,,,,,,,,,,,,,,,,,,,,,,,,,,,,,,,,,,,,,,,,,,,,,,,,,,,
,,6160ccb0810a73f90ef4c5e7,2024-02-19_04h15.47.426,kallum_motion_pilot,2023.2.2,Win32,59.88023952,6160ccb0810a73f90ef4c5e7,65d2b6c8f2eece985d8e374c,65d2b9ae80b5775321cab970,0.0828,0.0829,1,73,235,155,1,sixeight,,,,,,,,,,,,,,,,,,,,,,,,,,,,,,,,,,,,,,,,,,,,,,,,,,,,,,,,,,,,,,,,,,,,,,,,,,,,,,,,,,,,,,,,,,,,,,,,,,,,,,,,,,,,,,,,,,,,,,,,,,,,,,,,,,,,,,,,,
,,6160ccb0810a73f90ef4c5e7,2024-02-19_04h15.47.426,kallum_motion_pilot,2023.2.2,Win32,59.88023952,6160ccb0810a73f90ef4c5e7,65d2b6c8f2eece985d8e374c,65d2b9ae80b5775321cab970,0.083,0.0831,1,74,236,64,1,onetwo,,,,,,,,,,,,,,,,,,,,,,,,,,,,,,,,,,,,,,,,,,,,,,,,,,,,,,,,,,,,,,,,,,,,,,,,,,,,,,,,,,,,,,,,,,,,,,,,,,,,,,,,,,,,,,,,,,,,,,,,,,,,,,,,,,,,,,,,,
,,6160ccb0810a73f90ef4c5e7,2024-02-19_04h15.47.426,kallum_motion_pilot,2023.2.2,Win32,59.88023952,6160ccb0810a73f90ef4c5e7,65d2b6c8f2eece985d8e374c,65d2b9ae80b5775321cab970,0.0832,0.0833,1,75,237,56,1,onetwo,,,,,,,,,,,,,,,,,,,,,,,,,,,,,,,,,,,,,,,,,,,,,,,,,,,,,,,,,,,,,,,,,,,,,,,,,,,,,,,,,,,,,,,,,,,,,,,,,,,,,,,,,,,,,,,,,,,,,,,,,,,,,,,,,,,,,,,,,
,,6160ccb0810a73f90ef4c5e7,2024-02-19_04h15.47.426,kallum_motion_pilot,2023.2.2,Win32,59.88023952,6160ccb0810a73f90ef4c5e7,65d2b6c8f2eece985d8e374c,65d2b9ae80b5775321cab970,0.0833,0.0835,1,76,238,157,1,seveneight,,,,,,,,,,,,,,,,,,,,,,,,,,,,,,,,,,,,,,,,,,,,,,,,,,,,,,,,,,,,,,,,,,,,,,,,,,,,,,,,,,,,,,,,,,,,,,,,,,,,,,,,,,,,,,,,,,,,,,,,,,,,,,,,,,,,,,,,,
,,6160ccb0810a73f90ef4c5e7,2024-02-19_04h15.47.426,kallum_motion_pilot,2023.2.2,Win32,59.88023952,6160ccb0810a73f90ef4c5e7,65d2b6c8f2eece985d8e374c,65d2b9ae80b5775321cab970,0.0836,0.0836,1,77,239,30,1,fourtwo,,,,,,,,,,,,,,,,,,,,,,,,,,,,,,,,,,,,,,,,,,,,,,,,,,,,,,,,,,,,,,,,,,,,,,,,,,,,,,,,,,,,,,,,,,,,,,,,,,,,,,,,,,,,,,,,,,,,,,,,,,,,,,,,,,,,,,,,,
,,6160ccb0810a73f90ef4c5e7,2024-02-19_04h15.47.426,kallum_motion_pilot,2023.2.2,Win32,59.88023952,6160ccb0810a73f90ef4c5e7,65d2b6c8f2eece985d8e374c,65d2b9ae80b5775321cab970,0.0838,0.0838,1,78,240,112,1,fivesix,,,,,,,,,,,,,,,,,,,,,,,,,,,,,,,,,,,,,,,,,,,,,,,,,,,,,,,,,,,,,,,,,,,,,,,,,,,,,,,,,,,,,,,,,,,,,,,,,,,,,,,,,,,,,,,,,,,,,,,,,,,,,,,,,,,,,,,,,
,,6160ccb0810a73f90ef4c5e7,2024-02-19_04h15.47.426,kallum_motion_pilot,2023.2.2,Win32,59.88023952,6160ccb0810a73f90ef4c5e7,65d2b6c8f2eece985d8e374c,65d2b9ae80b5775321cab970,0.084,0.0841,1,79,241,96,1,fivesix,,,,,,,,,,,,,,,,,,,,,,,,,,,,,,,,,,,,,,,,,,,,,,,,,,,,,,,,,,,,,,,,,,,,,,,,,,,,,,,,,,,,,,,,,,,,,,,,,,,,,,,,,,,,,,,,,,,,,,,,,,,,,,,,,,,,,,,,,
,,6160ccb0810a73f90ef4c5e7,2024-02-19_04h15.47.426,kallum_motion_pilot,2023.2.2,Win32,59.88023952,6160ccb0810a73f90ef4c5e7,65d2b6c8f2eece985d8e374c,65d2b9ae80b5775321cab970,0.0841,0.0843,1,80,242,11,1,twofour,,,,,,,,,,,,,,,,,,,,,,,,,,,,,,,,,,,,,,,,,,,,,,,,,,,,,,,,,,,,,,,,,,,,,,,,,,,,,,,,,,,,,,,,,,,,,,,,,,,,,,,,,,,,,,,,,,,,,,,,,,,,,,,,,,,,,,,,,
,,6160ccb0810a73f90ef4c5e7,2024-02-19_04h15.47.426,kallum_motion_pilot,2023.2.2,Win32,59.88023952,6160ccb0810a73f90ef4c5e7,65d2b6c8f2eece985d8e374c,65d2b9ae80b5775321cab970,0.0843,0.0844,1,81,243,35,1,twofour,,,,,,,,,,,,,,,,,,,,,,,,,,,,,,,,,,,,,,,,,,,,,,,,,,,,,,,,,,,,,,,,,,,,,,,,,,,,,,,,,,,,,,,,,,,,,,,,,,,,,,,,,,,,,,,,,,,,,,,,,,,,,,,,,,,,,,,,,
,,6160ccb0810a73f90ef4c5e7,2024-02-19_04h15.47.426,kallum_motion_pilot,2023.2.2,Win32,59.88023952,6160ccb0810a73f90ef4c5e7,65d2b6c8f2eece985d8e374c,65d2b9ae80b5775321cab970,0.0845,0.0845,1,82,244,22,1,fourtwo,,,,,,,,,,,,,,,,,,,,,,,,,,,,,,,,,,,,,,,,,,,,,,,,,,,,,,,,,,,,,,,,,,,,,,,,,,,,,,,,,,,,,,,,,,,,,,,,,,,,,,,,,,,,,,,,,,,,,,,,,,,,,,,,,,,,,,,,,
,,6160ccb0810a73f90ef4c5e7,2024-02-19_04h15.47.426,kallum_motion_pilot,2023.2.2,Win32,59.88023952,6160ccb0810a73f90ef4c5e7,65d2b6c8f2eece985d8e374c,65d2b9ae80b5775321cab970,0.0847,0.0847,1,83,245,69,1,threefour,,,,,,,,,,,,,,,,,,,,,,,,,,,,,,,,,,,,,,,,,,,,,,,,,,,,,,,,,,,,,,,,,,,,,,,,,,,,,,,,,,,,,,,,,,,,,,,,,,,,,,,,,,,,,,,,,,,,,,,,,,,,,,,,,,,,,,,,,
,,6160ccb0810a73f90ef4c5e7,2024-02-19_04h15.47.426,kallum_motion_pilot,2023.2.2,Win32,59.88023952,6160ccb0810a73f90ef4c5e7,65d2b6c8f2eece985d8e374c,65d2b9ae80b5775321cab970,0.0849,0.0849,1,84,246,80,1,fivesix,,,,,,,,,,,,,,,,,,,,,,,,,,,,,,,,,,,,,,,,,,,,,,,,,,,,,,,,,,,,,,,,,,,,,,,,,,,,,,,,,,,,,,,,,,,,,,,,,,,,,,,,,,,,,,,,,,,,,,,,,,,,,,,,,,,,,,,,,
,,6160ccb0810a73f90ef4c5e7,2024-02-19_04h15.47.426,kallum_motion_pilot,2023.2.2,Win32,59.88023952,6160ccb0810a73f90ef4c5e7,65d2b6c8f2eece985d8e374c,65d2b9ae80b5775321cab970,0.0851,0.0851,1,85,247,105,1,fiveseven,,,,,,,,,,,,,,,,,,,,,,,,,,,,,,,,,,,,,,,,,,,,,,,,,,,,,,,,,,,,,,,,,,,,,,,,,,,,,,,,,,,,,,,,,,,,,,,,,,,,,,,,,,,,,,,,,,,,,,,,,,,,,,,,,,,,,,,,,
,,6160ccb0810a73f90ef4c5e7,2024-02-19_04h15.47.426,kallum_motion_pilot,2023.2.2,Win32,59.88023952,6160ccb0810a73f90ef4c5e7,65d2b6c8f2eece985d8e374c,65d2b9ae80b5775321cab970,0.0852,0.0853,1,86,248,148,1,sevenfive,,,,,,,,,,,,,,,,,,,,,,,,,,,,,,,,,,,,,,,,,,,,,,,,,,,,,,,,,,,,,,,,,,,,,,,,,,,,,,,,,,,,,,,,,,,,,,,,,,,,,,,,,,,,,,,,,,,,,,,,,,,,,,,,,,,,,,,,,
,,6160ccb0810a73f90ef4c5e7,2024-02-19_04h15.47.426,kallum_motion_pilot,2023.2.2,Win32,59.88023952,6160ccb0810a73f90ef4c5e7,65d2b6c8f2eece985d8e374c,65d2b9ae80b5775321cab970,0.0855,0.0855,1,87,249,20,1,threeone,,,,,,,,,,,,,,,,,,,,,,,,,,,,,,,,,,,,,,,,,,,,,,,,,,,,,,,,,,,,,,,,,,,,,,,,,,,,,,,,,,,,,,,,,,,,,,,,,,,,,,,,,,,,,,,,,,,,,,,,,,,,,,,,,,,,,,,,,
,,6160ccb0810a73f90ef4c5e7,2024-02-19_04h15.47.426,kallum_motion_pilot,2023.2.2,Win32,59.88023952,6160ccb0810a73f90ef4c5e7,65d2b6c8f2eece985d8e374c,65d2b9ae80b5775321cab970,0.0856,0.0857,1,88,250,87,1,eightseven,,,,,,,,,,,,,,,,,,,,,,,,,,,,,,,,,,,,,,,,,,,,,,,,,,,,,,,,,,,,,,,,,,,,,,,,,,,,,,,,,,,,,,,,,,,,,,,,,,,,,,,,,,,,,,,,,,,,,,,,,,,,,,,,,,,,,,,,,
,,6160ccb0810a73f90ef4c5e7,2024-02-19_04h15.47.426,kallum_motion_pilot,2023.2.2,Win32,59.88023952,6160ccb0810a73f90ef4c5e7,65d2b6c8f2eece985d8e374c,65d2b9ae80b5775321cab970,0.0858,0.0859,1,89,251,78,1,fourtwo,,,,,,,,,,,,,,,,,,,,,,,,,,,,,,,,,,,,,,,,,,,,,,,,,,,,,,,,,,,,,,,,,,,,,,,,,,,,,,,,,,,,,,,,,,,,,,,,,,,,,,,,,,,,,,,,,,,,,,,,,,,,,,,,,,,,,,,,,
,,6160ccb0810a73f90ef4c5e7,2024-02-19_04h15.47.426,kallum_motion_pilot,2023.2.2,Win32,59.88023952,6160ccb0810a73f90ef4c5e7,65d2b6c8f2eece985d8e374c,65d2b9ae80b5775321cab970,0.086,0.0861,1,90,252,71,1,fourthree,,,,,,,,,,,,,,,,,,,,,,,,,,,,,,,,,,,,,,,,,,,,,,,,,,,,,,,,,,,,,,,,,,,,,,,,,,,,,,,,,,,,,,,,,,,,,,,,,,,,,,,,,,,,,,,,,,,,,,,,,,,,,,,,,,,,,,,,,
,,6160ccb0810a73f90ef4c5e7,2024-02-19_04h15.47.426,kallum_motion_pilot,2023.2.2,Win32,59.88023952,6160ccb0810a73f90ef4c5e7,65d2b6c8f2eece985d8e374c,65d2b9ae80b5775321cab970,0.0861,0.0862,1,91,253,94,1,eightsix,,,,,,,,,,,,,,,,,,,,,,,,,,,,,,,,,,,,,,,,,,,,,,,,,,,,,,,,,,,,,,,,,,,,,,,,,,,,,,,,,,,,,,,,,,,,,,,,,,,,,,,,,,,,,,,,,,,,,,,,,,,,,,,,,,,,,,,,,
,,6160ccb0810a73f90ef4c5e7,2024-02-19_04h15.47.426,kallum_motion_pilot,2023.2.2,Win32,59.88023952,6160ccb0810a73f90ef4c5e7,65d2b6c8f2eece985d8e374c,65d2b9ae80b5775321cab970,0.0864,0.0864,1,92,254,0,1,onetwo,,,,,,,,,,,,,,,,,,,,,,,,,,,,,,,,,,,,,,,,,,,,,,,,,,,,,,,,,,,,,,,,,,,,,,,,,,,,,,,,,,,,,,,,,,,,,,,,,,,,,,,,,,,,,,,,,,,,,,,,,,,,,,,,,,,,,,,,,
,,6160ccb0810a73f90ef4c5e7,2024-02-19_04h15.47.426,kallum_motion_pilot,2023.2.2,Win32,59.88023952,6160ccb0810a73f90ef4c5e7,65d2b6c8f2eece985d8e374c,65d2b9ae80b5775321cab970,0.0867,0.0868,1,93,255,109,1,seveneight,,,,,,,,,,,,,,,,,,,,,,,,,,,,,,,,,,,,,,,,,,,,,,,,,,,,,,,,,,,,,,,,,,,,,,,,,,,,,,,,,,,,,,,,,,,,,,,,,,,,,,,,,,,,,,,,,,,,,,,,,,,,,,,,,,,,,,,,,
,,6160ccb0810a73f90ef4c5e7,2024-02-19_04h15.47.426,kallum_motion_pilot,2023.2.2,Win32,59.88023952,6160ccb0810a73f90ef4c5e7,65d2b6c8f2eece985d8e374c,65d2b9ae80b5775321cab970,0.087,0.0872,1,94,256,108,1,sevenfive,,,,,,,,,,,,,,,,,,,,,,,,,,,,,,,,,,,,,,,,,,,,,,,,,,,,,,,,,,,,,,,,,,,,,,,,,,,,,,,,,,,,,,,,,,,,,,,,,,,,,,,,,,,,,,,,,,,,,,,,,,,,,,,,,,,,,,,,,
,,6160ccb0810a73f90ef4c5e7,2024-02-19_04h15.47.426,kallum_motion_pilot,2023.2.2,Win32,59.88023952,6160ccb0810a73f90ef4c5e7,65d2b6c8f2eece985d8e374c,65d2b9ae80b5775321cab970,0.0872,0.0874,1,95,257,17,1,onethree,,,,,,,,,,,,,,,,,,,,,,,,,,,,,,,,,,,,,,,,,,,,,,,,,,,,,,,,,,,,,,,,,,,,,,,,,,,,,,,,,,,,,,,,,,,,,,,,,,,,,,,,,,,,,,,,,,,,,,,,,,,,,,,,,,,,,,,,,
,,6160ccb0810a73f90ef4c5e7,2024-02-19_04h15.47.426,kallum_motion_pilot,2023.2.2,Win32,59.88023952,6160ccb0810a73f90ef4c5e7,65d2b6c8f2eece985d8e374c,65d2b9ae80b5775321cab970,0.0875,0.0875,1,96,258,86,1,eightsix,,,,,,,,,,,,,,,,,,,,,,,,,,,,,,,,,,,,,,,,,,,,,,,,,,,,,,,,,,,,,,,,,,,,,,,,,,,,,,,,,,,,,,,,,,,,,,,,,,,,,,,,,,,,,,,,,,,,,,,,,,,,,,,,,,,,,,,,,
,,6160ccb0810a73f90ef4c5e7,2024-02-19_04h15.47.426,kallum_motion_pilot,2023.2.2,Win32,59.88023952,6160ccb0810a73f90ef4c5e7,65d2b6c8f2eece985d8e374c,65d2b9ae80b5775321cab970,0.0877,0.0878,1,97,259,149,1,seveneight,,,,,,,,,,,,,,,,,,,,,,,,,,,,,,,,,,,,,,,,,,,,,,,,,,,,,,,,,,,,,,,,,,,,,,,,,,,,,,,,,,,,,,,,,,,,,,,,,,,,,,,,,,,,,,,,,,,,,,,,,,,,,,,,,,,,,,,,,
,,6160ccb0810a73f90ef4c5e7,2024-02-19_04h15.47.426,kallum_motion_pilot,2023.2.2,Win32,59.88023952,6160ccb0810a73f90ef4c5e7,65d2b6c8f2eece985d8e374c,65d2b9ae80b5775321cab970,0.0878,0.088,1,98,260,75,1,twofour,,,,,,,,,,,,,,,,,,,,,,,,,,,,,,,,,,,,,,,,,,,,,,,,,,,,,,,,,,,,,,,,,,,,,,,,,,,,,,,,,,,,,,,,,,,,,,,,,,,,,,,,,,,,,,,,,,,,,,,,,,,,,,,,,,,,,,,,,
,,6160ccb0810a73f90ef4c5e7,2024-02-19_04h15.47.426,kallum_motion_pilot,2023.2.2,Win32,59.88023952,6160ccb0810a73f90ef4c5e7,65d2b6c8f2eece985d8e374c,65d2b9ae80b5775321cab970,0.0881,0.0883,1,99,261,122,1,sixfive,,,,,,,,,,,,,,,,,,,,,,,,,,,,,,,,,,,,,,,,,,,,,,,,,,,,,,,,,,,,,,,,,,,,,,,,,,,,,,,,,,,,,,,,,,,,,,,,,,,,,,,,,,,,,,,,,,,,,,,,,,,,,,,,,,,,,,,,,
,,6160ccb0810a73f90ef4c5e7,2024-02-19_04h15.47.426,kallum_motion_pilot,2023.2.2,Win32,59.88023952,6160ccb0810a73f90ef4c5e7,65d2b6c8f2eece985d8e374c,65d2b9ae80b5775321cab970,0.0884,0.0885,1,100,262,18,1,twoone,,,,,,,,,,,,,,,,,,,,,,,,,,,,,,,,,,,,,,,,,,,,,,,,,,,,,,,,,,,,,,,,,,,,,,,,,,,,,,,,,,,,,,,,,,,,,,,,,,,,,,,,,,,,,,,,,,,,,,,,,,,,,,,,,,,,,,,,,
,,6160ccb0810a73f90ef4c5e7,2024-02-19_04h15.47.426,kallum_motion_pilot,2023.2.2,Win32,59.88023952,6160ccb0810a73f90ef4c5e7,65d2b6c8f2eece985d8e374c,65d2b9ae80b5775321cab970,0.0886,0.0887,1,101,263,13,1,threefour,,,,,,,,,,,,,,,,,,,,,,,,,,,,,,,,,,,,,,,,,,,,,,,,,,,,,,,,,,,,,,,,,,,,,,,,,,,,,,,,,,,,,,,,,,,,,,,,,,,,,,,,,,,,,,,,,,,,,,,,,,,,,,,,,,,,,,,,,
,,6160ccb0810a73f90ef4c5e7,2024-02-19_04h15.47.426,kallum_motion_pilot,2023.2.2,Win32,59.88023952,6160ccb0810a73f90ef4c5e7,65d2b6c8f2eece985d8e374c,65d2b9ae80b5775321cab970,0.0889,0.0891,1,102,264,147,1,sixeight,,,,,,,,,,,,,,,,,,,,,,,,,,,,,,,,,,,,,,,,,,,,,,,,,,,,,,,,,,,,,,,,,,,,,,,,,,,,,,,,,,,,,,,,,,,,,,,,,,,,,,,,,,,,,,,,,,,,,,,,,,,,,,,,,,,,,,,,,
,,6160ccb0810a73f90ef4c5e7,2024-02-19_04h15.47.426,kallum_motion_pilot,2023.2.2,Win32,59.88023952,6160ccb0810a73f90ef4c5e7,65d2b6c8f2eece985d8e374c,65d2b9ae80b5775321cab970,0.0892,0.0894,1,103,265,134,1,eightsix,,,,,,,,,,,,,,,,,,,,,,,,,,,,,,,,,,,,,,,,,,,,,,,,,,,,,,,,,,,,,,,,,,,,,,,,,,,,,,,,,,,,,,,,,,,,,,,,,,,,,,,,,,,,,,,,,,,,,,,,,,,,,,,,,,,,,,,,,
,,6160ccb0810a73f90ef4c5e7,2024-02-19_04h15.47.426,kallum_motion_pilot,2023.2.2,Win32,59.88023952,6160ccb0810a73f90ef4c5e7,65d2b6c8f2eece985d8e374c,65d2b9ae80b5775321cab970,0.0894,0.0896,1,104,266,126,1,eightsix,,,,,,,,,,,,,,,,,,,,,,,,,,,,,,,,,,,,,,,,,,,,,,,,,,,,,,,,,,,,,,,,,,,,,,,,,,,,,,,,,,,,,,,,,,,,,,,,,,,,,,,,,,,,,,,,,,,,,,,,,,,,,,,,,,,,,,,,,
,,6160ccb0810a73f90ef4c5e7,2024-02-19_04h15.47.426,kallum_motion_pilot,2023.2.2,Win32,59.88023952,6160ccb0810a73f90ef4c5e7,65d2b6c8f2eece985d8e374c,65d2b9ae80b5775321cab970,0.0897,0.0898,1,105,267,43,1,twofour,,,,,,,,,,,,,,,,,,,,,,,,,,,,,,,,,,,,,,,,,,,,,,,,,,,,,,,,,,,,,,,,,,,,,,,,,,,,,,,,,,,,,,,,,,,,,,,,,,,,,,,,,,,,,,,,,,,,,,,,,,,,,,,,,,,,,,,,,
,,6160ccb0810a73f90ef4c5e7,2024-02-19_04h15.47.426,kallum_motion_pilot,2023.2.2,Win32,59.88023952,6160ccb0810a73f90ef4c5e7,65d2b6c8f2eece985d8e374c,65d2b9ae80b5775321cab970,0.0899,0.09,1,106,268,48,1,onetwo,,,,,,,,,,,,,,,,,,,,,,,,,,,,,,,,,,,,,,,,,,,,,,,,,,,,,,,,,,,,,,,,,,,,,,,,,,,,,,,,,,,,,,,,,,,,,,,,,,,,,,,,,,,,,,,,,,,,,,,,,,,,,,,,,,,,,,,,,
,,6160ccb0810a73f90ef4c5e7,2024-02-19_04h15.47.426,kallum_motion_pilot,2023.2.2,Win32,59.88023952,6160ccb0810a73f90ef4c5e7,65d2b6c8f2eece985d8e374c,65d2b9ae80b5775321cab970,0.0901,0.0902,1,107,269,54,1,fourtwo,,,,,,,,,,,,,,,,,,,,,,,,,,,,,,,,,,,,,,,,,,,,,,,,,,,,,,,,,,,,,,,,,,,,,,,,,,,,,,,,,,,,,,,,,,,,,,,,,,,,,,,,,,,,,,,,,,,,,,,,,,,,,,,,,,,,,,,,,
,,6160ccb0810a73f90ef4c5e7,2024-02-19_04h15.47.426,kallum_motion_pilot,2023.2.2,Win32,59.88023952,6160ccb0810a73f90ef4c5e7,65d2b6c8f2eece985d8e374c,65d2b9ae80b5775321cab970,0.0903,0.0904,1,108,270,44,1,threeone,,,,,,,,,,,,,,,,,,,,,,,,,,,,,,,,,,,,,,,,,,,,,,,,,,,,,,,,,,,,,,,,,,,,,,,,,,,,,,,,,,,,,,,,,,,,,,,,,,,,,,,,,,,,,,,,,,,,,,,,,,,,,,,,,,,,,,,,,
,,6160ccb0810a73f90ef4c5e7,2024-02-19_04h15.47.426,kallum_motion_pilot,2023.2.2,Win32,59.88023952,6160ccb0810a73f90ef4c5e7,65d2b6c8f2eece985d8e374c,65d2b9ae80b5775321cab970,0.0905,0.0906,1,109,271,72,1,onetwo,,,,,,,,,,,,,,,,,,,,,,,,,,,,,,,,,,,,,,,,,,,,,,,,,,,,,,,,,,,,,,,,,,,,,,,,,,,,,,,,,,,,,,,,,,,,,,,,,,,,,,,,,,,,,,,,,,,,,,,,,,,,,,,,,,,,,,,,,
,,6160ccb0810a73f90ef4c5e7,2024-02-19_04h15.47.426,kallum_motion_pilot,2023.2.2,Win32,59.88023952,6160ccb0810a73f90ef4c5e7,65d2b6c8f2eece985d8e374c,65d2b9ae80b5775321cab970,0.0906,0.0908,1,110,272,7,1,fourthree,,,,,,,,,,,,,,,,,,,,,,,,,,,,,,,,,,,,,,,,,,,,,,,,,,,,,,,,,,,,,,,,,,,,,,,,,,,,,,,,,,,,,,,,,,,,,,,,,,,,,,,,,,,,,,,,,,,,,,,,,,,,,,,,,,,,,,,,,
,,6160ccb0810a73f90ef4c5e7,2024-02-19_04h15.47.426,kallum_motion_pilot,2023.2.2,Win32,59.88023952,6160ccb0810a73f90ef4c5e7,65d2b6c8f2eece985d8e374c,65d2b9ae80b5775321cab970,0.0909,0.091,1,111,273,68,1,threeone,,,,,,,,,,,,,,,,,,,,,,,,,,,,,,,,,,,,,,,,,,,,,,,,,,,,,,,,,,,,,,,,,,,,,,,,,,,,,,,,,,,,,,,,,,,,,,,,,,,,,,,,,,,,,,,,,,,,,,,,,,,,,,,,,,,,,,,,,
,,6160ccb0810a73f90ef4c5e7,2024-02-19_04h15.47.426,kallum_motion_pilot,2023.2.2,Win32,59.88023952,6160ccb0810a73f90ef4c5e7,65d2b6c8f2eece985d8e374c,65d2b9ae80b5775321cab970,0.0911,0.0912,1,112,274,52,1,threeone,,,,,,,,,,,,,,,,,,,,,,,,,,,,,,,,,,,,,,,,,,,,,,,,,,,,,,,,,,,,,,,,,,,,,,,,,,,,,,,,,,,,,,,,,,,,,,,,,,,,,,,,,,,,,,,,,,,,,,,,,,,,,,,,,,,,,,,,,
,,6160ccb0810a73f90ef4c5e7,2024-02-19_04h15.47.426,kallum_motion_pilot,2023.2.2,Win32,59.88023952,6160ccb0810a73f90ef4c5e7,65d2b6c8f2eece985d8e374c,65d2b9ae80b5775321cab970,0.0913,0.0914,1,113,275,161,1,fiveseven,,,,,,,,,,,,,,,,,,,,,,,,,,,,,,,,,,,,,,,,,,,,,,,,,,,,,,,,,,,,,,,,,,,,,,,,,,,,,,,,,,,,,,,,,,,,,,,,,,,,,,,,,,,,,,,,,,,,,,,,,,,,,,,,,,,,,,,,,
,,6160ccb0810a73f90ef4c5e7,2024-02-19_04h15.47.426,kallum_motion_pilot,2023.2.2,Win32,59.88023952,6160ccb0810a73f90ef4c5e7,65d2b6c8f2eece985d8e374c,65d2b9ae80b5775321cab970,0.0915,0.0916,1,114,276,128,1,fivesix,,,,,,,,,,,,,,,,,,,,,,,,,,,,,,,,,,,,,,,,,,,,,,,,,,,,,,,,,,,,,,,,,,,,,,,,,,,,,,,,,,,,,,,,,,,,,,,,,,,,,,,,,,,,,,,,,,,,,,,,,,,,,,,,,,,,,,,,,
,,6160ccb0810a73f90ef4c5e7,2024-02-19_04h15.47.426,kallum_motion_pilot,2023.2.2,Win32,59.88023952,6160ccb0810a73f90ef4c5e7,65d2b6c8f2eece985d8e374c,65d2b9ae80b5775321cab970,0.0916,0.0918,1,115,277,115,1,sixeight,,,,,,,,,,,,,,,,,,,,,,,,,,,,,,,,,,,,,,,,,,,,,,,,,,,,,,,,,,,,,,,,,,,,,,,,,,,,,,,,,,,,,,,,,,,,,,,,,,,,,,,,,,,,,,,,,,,,,,,,,,,,,,,,,,,,,,,,,
