startup.started,startup.stopped,Prolific ID*,date,expName,psychopyVersion,OS,frameRate,participant,study_id,session,stimpositions.started,stimpositions.stopped,hardcoded_stimulus_positions.thisRepN,hardcoded_stimulus_positions.thisTrialN,hardcoded_stimulus_positions.thisN,hardcoded_stimulus_positions.thisIndex,hardcoded_stimulus_positions.ran,StimulusPos,stimorientation.started,stimorientation.stopped,prac_stimorientation_import_loop.thisRepN,prac_stimorientation_import_loop.thisTrialN,prac_stimorientation_import_loop.thisN,prac_stimorientation_import_loop.thisIndex,prac_stimorientation_import_loop.ran,Stimorientation,welcome_instr.started,welcome_instr.stopped,key_resp.keys,key_resp.rt,key_resp.duration,response_steppedout_1.started,response_steppedout_1.stopped,key_resp_20.keys,key_resp_20.rt,key_resp_20.duration,response_steppedout_2.started,response_steppedout_2.stopped,key_resp_19.keys,key_resp_19.rt,key_resp_19.duration,stim_response_instr.started,stim_response_instr.stopped,key_resp_15.keys,key_resp_15.rt,key_resp_15.duration,direction_instr_2.started,direction_instr_2.stopped,key_resp_9.keys,key_resp_9.rt,key_resp_9.duration,instr_prac.started,instr_prac.stopped,key_resp_10.keys,key_resp_10.rt,key_resp_10.duration,Stim1_display_prac.started,Stim1_display_prac.stopped,Ecc,Circle1_ori,Circle2_ori,response_prac.started,similarity,response_time,response_prac.stopped,mouse_5.x,mouse_5.y,mouse_5.leftButton,mouse_5.midButton,mouse_5.rightButton,mouse_5.clicked_name,responseprac_feedback.started,responseprac_feedback.stopped,summary2_prac.started,summary2_prac.stopped,mouse_6.x,mouse_6.y,mouse_6.leftButton,mouse_6.midButton,mouse_6.rightButton,mouse_6.clicked_name,duringprac.thisRepN,duringprac.thisTrialN,duringprac.thisN,duringprac.thisIndex,duringprac.ran,begin.started,begin.stopped,key_resp_22.keys,key_resp_22.rt,key_resp_22.duration,Stim1_display.started,Stim1_display.stopped,circle1_ori,circle2_ori,circle1_SF,circle2_SF,response.started,response.stopped,mouse.x,mouse.y,mouse.leftButton,mouse.midButton,mouse.rightButton,mouse.clicked_name,trialnumber,double_pass.thisRepN,double_pass.thisTrialN,double_pass.thisN,double_pass.thisIndex,double_pass.ran,double_pass.order,main_trial.thisRepN,main_trial.thisTrialN,main_trial.thisN,main_trial.thisIndex,main_trial.ran,main_trial.order,Trial_Counter,Catch,Frequencies,response_2.started,response_2.stopped,mouse_2.x,mouse_2.y,mouse_2.leftButton,mouse_2.midButton,mouse_2.rightButton,mouse_2.clicked_name,special_trial.started,special_trial.stopped,catch_1.started,catch_1.stopped,mouse_3.x,mouse_3.y,mouse_3.leftButton,mouse_3.midButton,mouse_3.rightButton,catchresponse,catchnumber,response_time_catch,response_sum.started,response_sum.stopped,mouse_11.x,mouse_11.y,mouse_11.leftButton,mouse_11.midButton,mouse_11.rightButton,flip_presentation_sequence_for_double_pass.started,flip_presentation_sequence_for_double_pass.stopped,goodbye.started,goodbye.stopped,key_resp_3.keys,key_resp_3.rt,key_resp_3.duration
0.0002,0.0003,6162bf42048363a56b08995e,2024-02-21_20h18.11.546,kallum_motion_pilot,2023.2.2,Win32,142.8571429,6162bf42048363a56b08995e,65d6bb0e977760de756971f7,65d6bcd9958801b618b98393,,,,,,,,,,,,,,,,,,,,,,,,,,,,,,,,,,,,,,,,,,,,,,,,,,,,,,,,,,,,,,,,,,,,,,,,,,,,,,,,,,,,,,,,,,,,,,,,,,,,,,,,,,,,,,,,,,,,,,,,,,,,,,,,,,,,,,,,,,,,,,,,,
,,6162bf42048363a56b08995e,2024-02-21_20h18.11.546,kallum_motion_pilot,2023.2.2,Win32,142.8571429,6162bf42048363a56b08995e,65d6bb0e977760de756971f7,65d6bcd9958801b618b98393,0.0123,0.0124,0,0,0,32,1,onetwo,,,,,,,,,,,,,,,,,,,,,,,,,,,,,,,,,,,,,,,,,,,,,,,,,,,,,,,,,,,,,,,,,,,,,,,,,,,,,,,,,,,,,,,,,,,,,,,,,,,,,,,,,,,,,,,,,,,,,,,,,,,,,,,,,,,,,,,,,
,,6162bf42048363a56b08995e,2024-02-21_20h18.11.546,kallum_motion_pilot,2023.2.2,Win32,142.8571429,6162bf42048363a56b08995e,65d6bb0e977760de756971f7,65d6bcd9958801b618b98393,0.0125,0.0125,0,1,1,127,1,eightseven,,,,,,,,,,,,,,,,,,,,,,,,,,,,,,,,,,,,,,,,,,,,,,,,,,,,,,,,,,,,,,,,,,,,,,,,,,,,,,,,,,,,,,,,,,,,,,,,,,,,,,,,,,,,,,,,,,,,,,,,,,,,,,,,,,,,,,,,,
,,6162bf42048363a56b08995e,2024-02-21_20h18.11.546,kallum_motion_pilot,2023.2.2,Win32,142.8571429,6162bf42048363a56b08995e,65d6bb0e977760de756971f7,65d6bcd9958801b618b98393,0.0126,0.0126,0,2,2,74,1,twoone,,,,,,,,,,,,,,,,,,,,,,,,,,,,,,,,,,,,,,,,,,,,,,,,,,,,,,,,,,,,,,,,,,,,,,,,,,,,,,,,,,,,,,,,,,,,,,,,,,,,,,,,,,,,,,,,,,,,,,,,,,,,,,,,,,,,,,,,,
,,6162bf42048363a56b08995e,2024-02-21_20h18.11.546,kallum_motion_pilot,2023.2.2,Win32,142.8571429,6162bf42048363a56b08995e,65d6bb0e977760de756971f7,65d6bcd9958801b618b98393,0.0127,0.0127,0,3,3,147,1,sixeight,,,,,,,,,,,,,,,,,,,,,,,,,,,,,,,,,,,,,,,,,,,,,,,,,,,,,,,,,,,,,,,,,,,,,,,,,,,,,,,,,,,,,,,,,,,,,,,,,,,,,,,,,,,,,,,,,,,,,,,,,,,,,,,,,,,,,,,,,
,,6162bf42048363a56b08995e,2024-02-21_20h18.11.546,kallum_motion_pilot,2023.2.2,Win32,142.8571429,6162bf42048363a56b08995e,65d6bb0e977760de756971f7,65d6bcd9958801b618b98393,0.0127,0.0127,0,4,4,15,1,fourthree,,,,,,,,,,,,,,,,,,,,,,,,,,,,,,,,,,,,,,,,,,,,,,,,,,,,,,,,,,,,,,,,,,,,,,,,,,,,,,,,,,,,,,,,,,,,,,,,,,,,,,,,,,,,,,,,,,,,,,,,,,,,,,,,,,,,,,,,,
,,6162bf42048363a56b08995e,2024-02-21_20h18.11.546,kallum_motion_pilot,2023.2.2,Win32,142.8571429,6162bf42048363a56b08995e,65d6bb0e977760de756971f7,65d6bcd9958801b618b98393,0.0128,0.0128,0,5,5,125,1,seveneight,,,,,,,,,,,,,,,,,,,,,,,,,,,,,,,,,,,,,,,,,,,,,,,,,,,,,,,,,,,,,,,,,,,,,,,,,,,,,,,,,,,,,,,,,,,,,,,,,,,,,,,,,,,,,,,,,,,,,,,,,,,,,,,,,,,,,,,,,
,,6162bf42048363a56b08995e,2024-02-21_20h18.11.546,kallum_motion_pilot,2023.2.2,Win32,142.8571429,6162bf42048363a56b08995e,65d6bb0e977760de756971f7,65d6bcd9958801b618b98393,0.0129,0.0129,0,6,6,145,1,fiveseven,,,,,,,,,,,,,,,,,,,,,,,,,,,,,,,,,,,,,,,,,,,,,,,,,,,,,,,,,,,,,,,,,,,,,,,,,,,,,,,,,,,,,,,,,,,,,,,,,,,,,,,,,,,,,,,,,,,,,,,,,,,,,,,,,,,,,,,,,
,,6162bf42048363a56b08995e,2024-02-21_20h18.11.546,kallum_motion_pilot,2023.2.2,Win32,142.8571429,6162bf42048363a56b08995e,65d6bb0e977760de756971f7,65d6bcd9958801b618b98393,0.0129,0.0129,0,7,7,152,1,fivesix,,,,,,,,,,,,,,,,,,,,,,,,,,,,,,,,,,,,,,,,,,,,,,,,,,,,,,,,,,,,,,,,,,,,,,,,,,,,,,,,,,,,,,,,,,,,,,,,,,,,,,,,,,,,,,,,,,,,,,,,,,,,,,,,,,,,,,,,,
,,6162bf42048363a56b08995e,2024-02-21_20h18.11.546,kallum_motion_pilot,2023.2.2,Win32,142.8571429,6162bf42048363a56b08995e,65d6bb0e977760de756971f7,65d6bcd9958801b618b98393,0.0131,0.0131,0,8,8,42,1,twoone,,,,,,,,,,,,,,,,,,,,,,,,,,,,,,,,,,,,,,,,,,,,,,,,,,,,,,,,,,,,,,,,,,,,,,,,,,,,,,,,,,,,,,,,,,,,,,,,,,,,,,,,,,,,,,,,,,,,,,,,,,,,,,,,,,,,,,,,,
,,6162bf42048363a56b08995e,2024-02-21_20h18.11.546,kallum_motion_pilot,2023.2.2,Win32,142.8571429,6162bf42048363a56b08995e,65d6bb0e977760de756971f7,65d6bcd9958801b618b98393,0.0131,0.0132,0,9,9,31,1,fourthree,,,,,,,,,,,,,,,,,,,,,,,,,,,,,,,,,,,,,,,,,,,,,,,,,,,,,,,,,,,,,,,,,,,,,,,,,,,,,,,,,,,,,,,,,,,,,,,,,,,,,,,,,,,,,,,,,,,,,,,,,,,,,,,,,,,,,,,,,
,,6162bf42048363a56b08995e,2024-02-21_20h18.11.546,kallum_motion_pilot,2023.2.2,Win32,142.8571429,6162bf42048363a56b08995e,65d6bb0e977760de756971f7,65d6bcd9958801b618b98393,0.0133,0.0133,0,10,10,90,1,sixfive,,,,,,,,,,,,,,,,,,,,,,,,,,,,,,,,,,,,,,,,,,,,,,,,,,,,,,,,,,,,,,,,,,,,,,,,,,,,,,,,,,,,,,,,,,,,,,,,,,,,,,,,,,,,,,,,,,,,,,,,,,,,,,,,,,,,,,,,,
,,6162bf42048363a56b08995e,2024-02-21_20h18.11.546,kallum_motion_pilot,2023.2.2,Win32,142.8571429,6162bf42048363a56b08995e,65d6bb0e977760de756971f7,65d6bcd9958801b618b98393,0.0133,0.0134,0,11,11,30,1,fourtwo,,,,,,,,,,,,,,,,,,,,,,,,,,,,,,,,,,,,,,,,,,,,,,,,,,,,,,,,,,,,,,,,,,,,,,,,,,,,,,,,,,,,,,,,,,,,,,,,,,,,,,,,,,,,,,,,,,,,,,,,,,,,,,,,,,,,,,,,,
,,6162bf42048363a56b08995e,2024-02-21_20h18.11.546,kallum_motion_pilot,2023.2.2,Win32,142.8571429,6162bf42048363a56b08995e,65d6bb0e977760de756971f7,65d6bcd9958801b618b98393,0.0134,0.0135,0,12,12,71,1,fourthree,,,,,,,,,,,,,,,,,,,,,,,,,,,,,,,,,,,,,,,,,,,,,,,,,,,,,,,,,,,,,,,,,,,,,,,,,,,,,,,,,,,,,,,,,,,,,,,,,,,,,,,,,,,,,,,,,,,,,,,,,,,,,,,,,,,,,,,,,
,,6162bf42048363a56b08995e,2024-02-21_20h18.11.546,kallum_motion_pilot,2023.2.2,Win32,142.8571429,6162bf42048363a56b08995e,65d6bb0e977760de756971f7,65d6bcd9958801b618b98393,0.0135,0.0135,0,13,13,12,1,threeone,,,,,,,,,,,,,,,,,,,,,,,,,,,,,,,,,,,,,,,,,,,,,,,,,,,,,,,,,,,,,,,,,,,,,,,,,,,,,,,,,,,,,,,,,,,,,,,,,,,,,,,,,,,,,,,,,,,,,,,,,,,,,,,,,,,,,,,,,
,,6162bf42048363a56b08995e,2024-02-21_20h18.11.546,kallum_motion_pilot,2023.2.2,Win32,142.8571429,6162bf42048363a56b08995e,65d6bb0e977760de756971f7,65d6bcd9958801b618b98393,0.0136,0.0136,0,14,14,157,1,seveneight,,,,,,,,,,,,,,,,,,,,,,,,,,,,,,,,,,,,,,,,,,,,,,,,,,,,,,,,,,,,,,,,,,,,,,,,,,,,,,,,,,,,,,,,,,,,,,,,,,,,,,,,,,,,,,,,,,,,,,,,,,,,,,,,,,,,,,,,,
,,6162bf42048363a56b08995e,2024-02-21_20h18.11.546,kallum_motion_pilot,2023.2.2,Win32,142.8571429,6162bf42048363a56b08995e,65d6bb0e977760de756971f7,65d6bcd9958801b618b98393,0.0136,0.0136,0,15,15,24,1,onetwo,,,,,,,,,,,,,,,,,,,,,,,,,,,,,,,,,,,,,,,,,,,,,,,,,,,,,,,,,,,,,,,,,,,,,,,,,,,,,,,,,,,,,,,,,,,,,,,,,,,,,,,,,,,,,,,,,,,,,,,,,,,,,,,,,,,,,,,,,
,,6162bf42048363a56b08995e,2024-02-21_20h18.11.546,kallum_motion_pilot,2023.2.2,Win32,142.8571429,6162bf42048363a56b08995e,65d6bb0e977760de756971f7,65d6bcd9958801b618b98393,0.0137,0.0137,0,16,16,128,1,fivesix,,,,,,,,,,,,,,,,,,,,,,,,,,,,,,,,,,,,,,,,,,,,,,,,,,,,,,,,,,,,,,,,,,,,,,,,,,,,,,,,,,,,,,,,,,,,,,,,,,,,,,,,,,,,,,,,,,,,,,,,,,,,,,,,,,,,,,,,,
,,6162bf42048363a56b08995e,2024-02-21_20h18.11.546,kallum_motion_pilot,2023.2.2,Win32,142.8571429,6162bf42048363a56b08995e,65d6bb0e977760de756971f7,65d6bcd9958801b618b98393,0.0137,0.0137,0,17,17,10,1,twoone,,,,,,,,,,,,,,,,,,,,,,,,,,,,,,,,,,,,,,,,,,,,,,,,,,,,,,,,,,,,,,,,,,,,,,,,,,,,,,,,,,,,,,,,,,,,,,,,,,,,,,,,,,,,,,,,,,,,,,,,,,,,,,,,,,,,,,,,,
,,6162bf42048363a56b08995e,2024-02-21_20h18.11.546,kallum_motion_pilot,2023.2.2,Win32,142.8571429,6162bf42048363a56b08995e,65d6bb0e977760de756971f7,65d6bcd9958801b618b98393,0.0138,0.0138,0,18,18,140,1,sevenfive,,,,,,,,,,,,,,,,,,,,,,,,,,,,,,,,,,,,,,,,,,,,,,,,,,,,,,,,,,,,,,,,,,,,,,,,,,,,,,,,,,,,,,,,,,,,,,,,,,,,,,,,,,,,,,,,,,,,,,,,,,,,,,,,,,,,,,,,,
,,6162bf42048363a56b08995e,2024-02-21_20h18.11.546,kallum_motion_pilot,2023.2.2,Win32,142.8571429,6162bf42048363a56b08995e,65d6bb0e977760de756971f7,65d6bcd9958801b618b98393,0.0138,0.0139,0,19,19,52,1,threeone,,,,,,,,,,,,,,,,,,,,,,,,,,,,,,,,,,,,,,,,,,,,,,,,,,,,,,,,,,,,,,,,,,,,,,,,,,,,,,,,,,,,,,,,,,,,,,,,,,,,,,,,,,,,,,,,,,,,,,,,,,,,,,,,,,,,,,,,,
,,6162bf42048363a56b08995e,2024-02-21_20h18.11.546,kallum_motion_pilot,2023.2.2,Win32,142.8571429,6162bf42048363a56b08995e,65d6bb0e977760de756971f7,65d6bcd9958801b618b98393,0.0139,0.0139,0,20,20,34,1,twoone,,,,,,,,,,,,,,,,,,,,,,,,,,,,,,,,,,,,,,,,,,,,,,,,,,,,,,,,,,,,,,,,,,,,,,,,,,,,,,,,,,,,,,,,,,,,,,,,,,,,,,,,,,,,,,,,,,,,,,,,,,,,,,,,,,,,,,,,,
,,6162bf42048363a56b08995e,2024-02-21_20h18.11.546,kallum_motion_pilot,2023.2.2,Win32,142.8571429,6162bf42048363a56b08995e,65d6bb0e977760de756971f7,65d6bcd9958801b618b98393,0.014,0.014,0,21,21,49,1,onethree,,,,,,,,,,,,,,,,,,,,,,,,,,,,,,,,,,,,,,,,,,,,,,,,,,,,,,,,,,,,,,,,,,,,,,,,,,,,,,,,,,,,,,,,,,,,,,,,,,,,,,,,,,,,,,,,,,,,,,,,,,,,,,,,,,,,,,,,,
,,6162bf42048363a56b08995e,2024-02-21_20h18.11.546,kallum_motion_pilot,2023.2.2,Win32,142.8571429,6162bf42048363a56b08995e,65d6bb0e977760de756971f7,65d6bcd9958801b618b98393,0.014,0.014,0,22,22,155,1,sixeight,,,,,,,,,,,,,,,,,,,,,,,,,,,,,,,,,,,,,,,,,,,,,,,,,,,,,,,,,,,,,,,,,,,,,,,,,,,,,,,,,,,,,,,,,,,,,,,,,,,,,,,,,,,,,,,,,,,,,,,,,,,,,,,,,,,,,,,,,
,,6162bf42048363a56b08995e,2024-02-21_20h18.11.546,kallum_motion_pilot,2023.2.2,Win32,142.8571429,6162bf42048363a56b08995e,65d6bb0e977760de756971f7,65d6bcd9958801b618b98393,0.014,0.014,0,23,23,124,1,sevenfive,,,,,,,,,,,,,,,,,,,,,,,,,,,,,,,,,,,,,,,,,,,,,,,,,,,,,,,,,,,,,,,,,,,,,,,,,,,,,,,,,,,,,,,,,,,,,,,,,,,,,,,,,,,,,,,,,,,,,,,,,,,,,,,,,,,,,,,,,
,,6162bf42048363a56b08995e,2024-02-21_20h18.11.546,kallum_motion_pilot,2023.2.2,Win32,142.8571429,6162bf42048363a56b08995e,65d6bb0e977760de756971f7,65d6bcd9958801b618b98393,0.0141,0.0141,0,24,24,37,1,threefour,,,,,,,,,,,,,,,,,,,,,,,,,,,,,,,,,,,,,,,,,,,,,,,,,,,,,,,,,,,,,,,,,,,,,,,,,,,,,,,,,,,,,,,,,,,,,,,,,,,,,,,,,,,,,,,,,,,,,,,,,,,,,,,,,,,,,,,,,
,,6162bf42048363a56b08995e,2024-02-21_20h18.11.546,kallum_motion_pilot,2023.2.2,Win32,142.8571429,6162bf42048363a56b08995e,65d6bb0e977760de756971f7,65d6bcd9958801b618b98393,0.0142,0.0142,0,25,25,27,1,twofour,,,,,,,,,,,,,,,,,,,,,,,,,,,,,,,,,,,,,,,,,,,,,,,,,,,,,,,,,,,,,,,,,,,,,,,,,,,,,,,,,,,,,,,,,,,,,,,,,,,,,,,,,,,,,,,,,,,,,,,,,,,,,,,,,,,,,,,,,
,,6162bf42048363a56b08995e,2024-02-21_20h18.11.546,kallum_motion_pilot,2023.2.2,Win32,142.8571429,6162bf42048363a56b08995e,65d6bb0e977760de756971f7,65d6bcd9958801b618b98393,0.0142,0.0142,0,26,26,156,1,sevenfive,,,,,,,,,,,,,,,,,,,,,,,,,,,,,,,,,,,,,,,,,,,,,,,,,,,,,,,,,,,,,,,,,,,,,,,,,,,,,,,,,,,,,,,,,,,,,,,,,,,,,,,,,,,,,,,,,,,,,,,,,,,,,,,,,,,,,,,,,
,,6162bf42048363a56b08995e,2024-02-21_20h18.11.546,kallum_motion_pilot,2023.2.2,Win32,142.8571429,6162bf42048363a56b08995e,65d6bb0e977760de756971f7,65d6bcd9958801b618b98393,0.0143,0.0143,0,27,27,104,1,fivesix,,,,,,,,,,,,,,,,,,,,,,,,,,,,,,,,,,,,,,,,,,,,,,,,,,,,,,,,,,,,,,,,,,,,,,,,,,,,,,,,,,,,,,,,,,,,,,,,,,,,,,,,,,,,,,,,,,,,,,,,,,,,,,,,,,,,,,,,,
,,6162bf42048363a56b08995e,2024-02-21_20h18.11.546,kallum_motion_pilot,2023.2.2,Win32,142.8571429,6162bf42048363a56b08995e,65d6bb0e977760de756971f7,65d6bcd9958801b618b98393,0.0143,0.0143,0,28,28,113,1,fiveseven,,,,,,,,,,,,,,,,,,,,,,,,,,,,,,,,,,,,,,,,,,,,,,,,,,,,,,,,,,,,,,,,,,,,,,,,,,,,,,,,,,,,,,,,,,,,,,,,,,,,,,,,,,,,,,,,,,,,,,,,,,,,,,,,,,,,,,,,,
,,6162bf42048363a56b08995e,2024-02-21_20h18.11.546,kallum_motion_pilot,2023.2.2,Win32,142.8571429,6162bf42048363a56b08995e,65d6bb0e977760de756971f7,65d6bcd9958801b618b98393,0.0144,0.0144,0,29,29,20,1,threeone,,,,,,,,,,,,,,,,,,,,,,,,,,,,,,,,,,,,,,,,,,,,,,,,,,,,,,,,,,,,,,,,,,,,,,,,,,,,,,,,,,,,,,,,,,,,,,,,,,,,,,,,,,,,,,,,,,,,,,,,,,,,,,,,,,,,,,,,,
,,6162bf42048363a56b08995e,2024-02-21_20h18.11.546,kallum_motion_pilot,2023.2.2,Win32,142.8571429,6162bf42048363a56b08995e,65d6bb0e977760de756971f7,65d6bcd9958801b618b98393,0.0144,0.0144,0,30,30,26,1,twoone,,,,,,,,,,,,,,,,,,,,,,,,,,,,,,,,,,,,,,,,,,,,,,,,,,,,,,,,,,,,,,,,,,,,,,,,,,,,,,,,,,,,,,,,,,,,,,,,,,,,,,,,,,,,,,,,,,,,,,,,,,,,,,,,,,,,,,,,,
,,6162bf42048363a56b08995e,2024-02-21_20h18.11.546,kallum_motion_pilot,2023.2.2,Win32,142.8571429,6162bf42048363a56b08995e,65d6bb0e977760de756971f7,65d6bcd9958801b618b98393,0.0144,0.0145,0,31,31,109,1,seveneight,,,,,,,,,,,,,,,,,,,,,,,,,,,,,,,,,,,,,,,,,,,,,,,,,,,,,,,,,,,,,,,,,,,,,,,,,,,,,,,,,,,,,,,,,,,,,,,,,,,,,,,,,,,,,,,,,,,,,,,,,,,,,,,,,,,,,,,,,
,,6162bf42048363a56b08995e,2024-02-21_20h18.11.546,kallum_motion_pilot,2023.2.2,Win32,142.8571429,6162bf42048363a56b08995e,65d6bb0e977760de756971f7,65d6bcd9958801b618b98393,0.0145,0.0145,0,32,32,18,1,twoone,,,,,,,,,,,,,,,,,,,,,,,,,,,,,,,,,,,,,,,,,,,,,,,,,,,,,,,,,,,,,,,,,,,,,,,,,,,,,,,,,,,,,,,,,,,,,,,,,,,,,,,,,,,,,,,,,,,,,,,,,,,,,,,,,,,,,,,,,
,,6162bf42048363a56b08995e,2024-02-21_20h18.11.546,kallum_motion_pilot,2023.2.2,Win32,142.8571429,6162bf42048363a56b08995e,65d6bb0e977760de756971f7,65d6bcd9958801b618b98393,0.0146,0.0146,0,33,33,40,1,onetwo,,,,,,,,,,,,,,,,,,,,,,,,,,,,,,,,,,,,,,,,,,,,,,,,,,,,,,,,,,,,,,,,,,,,,,,,,,,,,,,,,,,,,,,,,,,,,,,,,,,,,,,,,,,,,,,,,,,,,,,,,,,,,,,,,,,,,,,,,
,,6162bf42048363a56b08995e,2024-02-21_20h18.11.546,kallum_motion_pilot,2023.2.2,Win32,142.8571429,6162bf42048363a56b08995e,65d6bb0e977760de756971f7,65d6bcd9958801b618b98393,0.0147,0.0147,0,34,34,92,1,sevenfive,,,,,,,,,,,,,,,,,,,,,,,,,,,,,,,,,,,,,,,,,,,,,,,,,,,,,,,,,,,,,,,,,,,,,,,,,,,,,,,,,,,,,,,,,,,,,,,,,,,,,,,,,,,,,,,,,,,,,,,,,,,,,,,,,,,,,,,,,
,,6162bf42048363a56b08995e,2024-02-21_20h18.11.546,kallum_motion_pilot,2023.2.2,Win32,142.8571429,6162bf42048363a56b08995e,65d6bb0e977760de756971f7,65d6bcd9958801b618b98393,0.0147,0.0147,0,35,35,91,1,sixeight,,,,,,,,,,,,,,,,,,,,,,,,,,,,,,,,,,,,,,,,,,,,,,,,,,,,,,,,,,,,,,,,,,,,,,,,,,,,,,,,,,,,,,,,,,,,,,,,,,,,,,,,,,,,,,,,,,,,,,,,,,,,,,,,,,,,,,,,,
,,6162bf42048363a56b08995e,2024-02-21_20h18.11.546,kallum_motion_pilot,2023.2.2,Win32,142.8571429,6162bf42048363a56b08995e,65d6bb0e977760de756971f7,65d6bcd9958801b618b98393,0.0147,0.0147,0,36,36,108,1,sevenfive,,,,,,,,,,,,,,,,,,,,,,,,,,,,,,,,,,,,,,,,,,,,,,,,,,,,,,,,,,,,,,,,,,,,,,,,,,,,,,,,,,,,,,,,,,,,,,,,,,,,,,,,,,,,,,,,,,,,,,,,,,,,,,,,,,,,,,,,,
,,6162bf42048363a56b08995e,2024-02-21_20h18.11.546,kallum_motion_pilot,2023.2.2,Win32,142.8571429,6162bf42048363a56b08995e,65d6bb0e977760de756971f7,65d6bcd9958801b618b98393,0.0148,0.0148,0,37,37,106,1,sixfive,,,,,,,,,,,,,,,,,,,,,,,,,,,,,,,,,,,,,,,,,,,,,,,,,,,,,,,,,,,,,,,,,,,,,,,,,,,,,,,,,,,,,,,,,,,,,,,,,,,,,,,,,,,,,,,,,,,,,,,,,,,,,,,,,,,,,,,,,
,,6162bf42048363a56b08995e,2024-02-21_20h18.11.546,kallum_motion_pilot,2023.2.2,Win32,142.8571429,6162bf42048363a56b08995e,65d6bb0e977760de756971f7,65d6bcd9958801b618b98393,0.0148,0.0148,0,38,38,135,1,eightseven,,,,,,,,,,,,,,,,,,,,,,,,,,,,,,,,,,,,,,,,,,,,,,,,,,,,,,,,,,,,,,,,,,,,,,,,,,,,,,,,,,,,,,,,,,,,,,,,,,,,,,,,,,,,,,,,,,,,,,,,,,,,,,,,,,,,,,,,,
,,6162bf42048363a56b08995e,2024-02-21_20h18.11.546,kallum_motion_pilot,2023.2.2,Win32,142.8571429,6162bf42048363a56b08995e,65d6bb0e977760de756971f7,65d6bcd9958801b618b98393,0.0149,0.0149,0,39,39,63,1,fourthree,,,,,,,,,,,,,,,,,,,,,,,,,,,,,,,,,,,,,,,,,,,,,,,,,,,,,,,,,,,,,,,,,,,,,,,,,,,,,,,,,,,,,,,,,,,,,,,,,,,,,,,,,,,,,,,,,,,,,,,,,,,,,,,,,,,,,,,,,
,,6162bf42048363a56b08995e,2024-02-21_20h18.11.546,kallum_motion_pilot,2023.2.2,Win32,142.8571429,6162bf42048363a56b08995e,65d6bb0e977760de756971f7,65d6bcd9958801b618b98393,0.0149,0.0149,0,40,40,96,1,fivesix,,,,,,,,,,,,,,,,,,,,,,,,,,,,,,,,,,,,,,,,,,,,,,,,,,,,,,,,,,,,,,,,,,,,,,,,,,,,,,,,,,,,,,,,,,,,,,,,,,,,,,,,,,,,,,,,,,,,,,,,,,,,,,,,,,,,,,,,,
,,6162bf42048363a56b08995e,2024-02-21_20h18.11.546,kallum_motion_pilot,2023.2.2,Win32,142.8571429,6162bf42048363a56b08995e,65d6bb0e977760de756971f7,65d6bcd9958801b618b98393,0.015,0.015,0,41,41,65,1,onethree,,,,,,,,,,,,,,,,,,,,,,,,,,,,,,,,,,,,,,,,,,,,,,,,,,,,,,,,,,,,,,,,,,,,,,,,,,,,,,,,,,,,,,,,,,,,,,,,,,,,,,,,,,,,,,,,,,,,,,,,,,,,,,,,,,,,,,,,,
,,6162bf42048363a56b08995e,2024-02-21_20h18.11.546,kallum_motion_pilot,2023.2.2,Win32,142.8571429,6162bf42048363a56b08995e,65d6bb0e977760de756971f7,65d6bcd9958801b618b98393,0.0151,0.0151,0,42,42,45,1,threefour,,,,,,,,,,,,,,,,,,,,,,,,,,,,,,,,,,,,,,,,,,,,,,,,,,,,,,,,,,,,,,,,,,,,,,,,,,,,,,,,,,,,,,,,,,,,,,,,,,,,,,,,,,,,,,,,,,,,,,,,,,,,,,,,,,,,,,,,,
,,6162bf42048363a56b08995e,2024-02-21_20h18.11.546,kallum_motion_pilot,2023.2.2,Win32,142.8571429,6162bf42048363a56b08995e,65d6bb0e977760de756971f7,65d6bcd9958801b618b98393,0.0151,0.0151,0,43,43,70,1,fourtwo,,,,,,,,,,,,,,,,,,,,,,,,,,,,,,,,,,,,,,,,,,,,,,,,,,,,,,,,,,,,,,,,,,,,,,,,,,,,,,,,,,,,,,,,,,,,,,,,,,,,,,,,,,,,,,,,,,,,,,,,,,,,,,,,,,,,,,,,,
,,6162bf42048363a56b08995e,2024-02-21_20h18.11.546,kallum_motion_pilot,2023.2.2,Win32,142.8571429,6162bf42048363a56b08995e,65d6bb0e977760de756971f7,65d6bcd9958801b618b98393,0.0152,0.0152,0,44,44,11,1,twofour,,,,,,,,,,,,,,,,,,,,,,,,,,,,,,,,,,,,,,,,,,,,,,,,,,,,,,,,,,,,,,,,,,,,,,,,,,,,,,,,,,,,,,,,,,,,,,,,,,,,,,,,,,,,,,,,,,,,,,,,,,,,,,,,,,,,,,,,,
,,6162bf42048363a56b08995e,2024-02-21_20h18.11.546,kallum_motion_pilot,2023.2.2,Win32,142.8571429,6162bf42048363a56b08995e,65d6bb0e977760de756971f7,65d6bcd9958801b618b98393,0.0152,0.0152,0,45,45,57,1,onethree,,,,,,,,,,,,,,,,,,,,,,,,,,,,,,,,,,,,,,,,,,,,,,,,,,,,,,,,,,,,,,,,,,,,,,,,,,,,,,,,,,,,,,,,,,,,,,,,,,,,,,,,,,,,,,,,,,,,,,,,,,,,,,,,,,,,,,,,,
,,6162bf42048363a56b08995e,2024-02-21_20h18.11.546,kallum_motion_pilot,2023.2.2,Win32,142.8571429,6162bf42048363a56b08995e,65d6bb0e977760de756971f7,65d6bcd9958801b618b98393,0.0152,0.0152,0,46,46,100,1,sevenfive,,,,,,,,,,,,,,,,,,,,,,,,,,,,,,,,,,,,,,,,,,,,,,,,,,,,,,,,,,,,,,,,,,,,,,,,,,,,,,,,,,,,,,,,,,,,,,,,,,,,,,,,,,,,,,,,,,,,,,,,,,,,,,,,,,,,,,,,,
,,6162bf42048363a56b08995e,2024-02-21_20h18.11.546,kallum_motion_pilot,2023.2.2,Win32,142.8571429,6162bf42048363a56b08995e,65d6bb0e977760de756971f7,65d6bcd9958801b618b98393,0.0153,0.0153,0,47,47,120,1,fivesix,,,,,,,,,,,,,,,,,,,,,,,,,,,,,,,,,,,,,,,,,,,,,,,,,,,,,,,,,,,,,,,,,,,,,,,,,,,,,,,,,,,,,,,,,,,,,,,,,,,,,,,,,,,,,,,,,,,,,,,,,,,,,,,,,,,,,,,,,
,,6162bf42048363a56b08995e,2024-02-21_20h18.11.546,kallum_motion_pilot,2023.2.2,Win32,142.8571429,6162bf42048363a56b08995e,65d6bb0e977760de756971f7,65d6bcd9958801b618b98393,0.0153,0.0153,0,48,48,8,1,onetwo,,,,,,,,,,,,,,,,,,,,,,,,,,,,,,,,,,,,,,,,,,,,,,,,,,,,,,,,,,,,,,,,,,,,,,,,,,,,,,,,,,,,,,,,,,,,,,,,,,,,,,,,,,,,,,,,,,,,,,,,,,,,,,,,,,,,,,,,,
,,6162bf42048363a56b08995e,2024-02-21_20h18.11.546,kallum_motion_pilot,2023.2.2,Win32,142.8571429,6162bf42048363a56b08995e,65d6bb0e977760de756971f7,65d6bcd9958801b618b98393,0.0154,0.0154,0,49,49,150,1,eightsix,,,,,,,,,,,,,,,,,,,,,,,,,,,,,,,,,,,,,,,,,,,,,,,,,,,,,,,,,,,,,,,,,,,,,,,,,,,,,,,,,,,,,,,,,,,,,,,,,,,,,,,,,,,,,,,,,,,,,,,,,,,,,,,,,,,,,,,,,
,,6162bf42048363a56b08995e,2024-02-21_20h18.11.546,kallum_motion_pilot,2023.2.2,Win32,142.8571429,6162bf42048363a56b08995e,65d6bb0e977760de756971f7,65d6bcd9958801b618b98393,0.0154,0.0154,0,50,50,121,1,fiveseven,,,,,,,,,,,,,,,,,,,,,,,,,,,,,,,,,,,,,,,,,,,,,,,,,,,,,,,,,,,,,,,,,,,,,,,,,,,,,,,,,,,,,,,,,,,,,,,,,,,,,,,,,,,,,,,,,,,,,,,,,,,,,,,,,,,,,,,,,
,,6162bf42048363a56b08995e,2024-02-21_20h18.11.546,kallum_motion_pilot,2023.2.2,Win32,142.8571429,6162bf42048363a56b08995e,65d6bb0e977760de756971f7,65d6bcd9958801b618b98393,0.0155,0.0155,0,51,51,151,1,eightseven,,,,,,,,,,,,,,,,,,,,,,,,,,,,,,,,,,,,,,,,,,,,,,,,,,,,,,,,,,,,,,,,,,,,,,,,,,,,,,,,,,,,,,,,,,,,,,,,,,,,,,,,,,,,,,,,,,,,,,,,,,,,,,,,,,,,,,,,,
,,6162bf42048363a56b08995e,2024-02-21_20h18.11.546,kallum_motion_pilot,2023.2.2,Win32,142.8571429,6162bf42048363a56b08995e,65d6bb0e977760de756971f7,65d6bcd9958801b618b98393,0.0155,0.0155,0,52,52,149,1,seveneight,,,,,,,,,,,,,,,,,,,,,,,,,,,,,,,,,,,,,,,,,,,,,,,,,,,,,,,,,,,,,,,,,,,,,,,,,,,,,,,,,,,,,,,,,,,,,,,,,,,,,,,,,,,,,,,,,,,,,,,,,,,,,,,,,,,,,,,,,
,,6162bf42048363a56b08995e,2024-02-21_20h18.11.546,kallum_motion_pilot,2023.2.2,Win32,142.8571429,6162bf42048363a56b08995e,65d6bb0e977760de756971f7,65d6bcd9958801b618b98393,0.0156,0.0156,0,53,53,158,1,eightsix,,,,,,,,,,,,,,,,,,,,,,,,,,,,,,,,,,,,,,,,,,,,,,,,,,,,,,,,,,,,,,,,,,,,,,,,,,,,,,,,,,,,,,,,,,,,,,,,,,,,,,,,,,,,,,,,,,,,,,,,,,,,,,,,,,,,,,,,,
,,6162bf42048363a56b08995e,2024-02-21_20h18.11.546,kallum_motion_pilot,2023.2.2,Win32,142.8571429,6162bf42048363a56b08995e,65d6bb0e977760de756971f7,65d6bcd9958801b618b98393,0.0157,0.0157,0,54,54,28,1,threeone,,,,,,,,,,,,,,,,,,,,,,,,,,,,,,,,,,,,,,,,,,,,,,,,,,,,,,,,,,,,,,,,,,,,,,,,,,,,,,,,,,,,,,,,,,,,,,,,,,,,,,,,,,,,,,,,,,,,,,,,,,,,,,,,,,,,,,,,,
,,6162bf42048363a56b08995e,2024-02-21_20h18.11.546,kallum_motion_pilot,2023.2.2,Win32,142.8571429,6162bf42048363a56b08995e,65d6bb0e977760de756971f7,65d6bcd9958801b618b98393,0.0159,0.016,0,55,55,141,1,seveneight,,,,,,,,,,,,,,,,,,,,,,,,,,,,,,,,,,,,,,,,,,,,,,,,,,,,,,,,,,,,,,,,,,,,,,,,,,,,,,,,,,,,,,,,,,,,,,,,,,,,,,,,,,,,,,,,,,,,,,,,,,,,,,,,,,,,,,,,,
,,6162bf42048363a56b08995e,2024-02-21_20h18.11.546,kallum_motion_pilot,2023.2.2,Win32,142.8571429,6162bf42048363a56b08995e,65d6bb0e977760de756971f7,65d6bcd9958801b618b98393,0.0161,0.0161,0,56,56,143,1,eightseven,,,,,,,,,,,,,,,,,,,,,,,,,,,,,,,,,,,,,,,,,,,,,,,,,,,,,,,,,,,,,,,,,,,,,,,,,,,,,,,,,,,,,,,,,,,,,,,,,,,,,,,,,,,,,,,,,,,,,,,,,,,,,,,,,,,,,,,,,
,,6162bf42048363a56b08995e,2024-02-21_20h18.11.546,kallum_motion_pilot,2023.2.2,Win32,142.8571429,6162bf42048363a56b08995e,65d6bb0e977760de756971f7,65d6bcd9958801b618b98393,0.0161,0.0161,0,57,57,122,1,sixfive,,,,,,,,,,,,,,,,,,,,,,,,,,,,,,,,,,,,,,,,,,,,,,,,,,,,,,,,,,,,,,,,,,,,,,,,,,,,,,,,,,,,,,,,,,,,,,,,,,,,,,,,,,,,,,,,,,,,,,,,,,,,,,,,,,,,,,,,,
,,6162bf42048363a56b08995e,2024-02-21_20h18.11.546,kallum_motion_pilot,2023.2.2,Win32,142.8571429,6162bf42048363a56b08995e,65d6bb0e977760de756971f7,65d6bcd9958801b618b98393,0.0162,0.0162,0,58,58,2,1,twoone,,,,,,,,,,,,,,,,,,,,,,,,,,,,,,,,,,,,,,,,,,,,,,,,,,,,,,,,,,,,,,,,,,,,,,,,,,,,,,,,,,,,,,,,,,,,,,,,,,,,,,,,,,,,,,,,,,,,,,,,,,,,,,,,,,,,,,,,,
,,6162bf42048363a56b08995e,2024-02-21_20h18.11.546,kallum_motion_pilot,2023.2.2,Win32,142.8571429,6162bf42048363a56b08995e,65d6bb0e977760de756971f7,65d6bcd9958801b618b98393,0.0162,0.0162,0,59,59,38,1,fourtwo,,,,,,,,,,,,,,,,,,,,,,,,,,,,,,,,,,,,,,,,,,,,,,,,,,,,,,,,,,,,,,,,,,,,,,,,,,,,,,,,,,,,,,,,,,,,,,,,,,,,,,,,,,,,,,,,,,,,,,,,,,,,,,,,,,,,,,,,,
,,6162bf42048363a56b08995e,2024-02-21_20h18.11.546,kallum_motion_pilot,2023.2.2,Win32,142.8571429,6162bf42048363a56b08995e,65d6bb0e977760de756971f7,65d6bcd9958801b618b98393,0.0162,0.0162,0,60,60,126,1,eightsix,,,,,,,,,,,,,,,,,,,,,,,,,,,,,,,,,,,,,,,,,,,,,,,,,,,,,,,,,,,,,,,,,,,,,,,,,,,,,,,,,,,,,,,,,,,,,,,,,,,,,,,,,,,,,,,,,,,,,,,,,,,,,,,,,,,,,,,,,
,,6162bf42048363a56b08995e,2024-02-21_20h18.11.546,kallum_motion_pilot,2023.2.2,Win32,142.8571429,6162bf42048363a56b08995e,65d6bb0e977760de756971f7,65d6bcd9958801b618b98393,0.0164,0.0164,0,61,61,29,1,threefour,,,,,,,,,,,,,,,,,,,,,,,,,,,,,,,,,,,,,,,,,,,,,,,,,,,,,,,,,,,,,,,,,,,,,,,,,,,,,,,,,,,,,,,,,,,,,,,,,,,,,,,,,,,,,,,,,,,,,,,,,,,,,,,,,,,,,,,,,
,,6162bf42048363a56b08995e,2024-02-21_20h18.11.546,kallum_motion_pilot,2023.2.2,Win32,142.8571429,6162bf42048363a56b08995e,65d6bb0e977760de756971f7,65d6bcd9958801b618b98393,0.0164,0.0164,0,62,62,1,1,onethree,,,,,,,,,,,,,,,,,,,,,,,,,,,,,,,,,,,,,,,,,,,,,,,,,,,,,,,,,,,,,,,,,,,,,,,,,,,,,,,,,,,,,,,,,,,,,,,,,,,,,,,,,,,,,,,,,,,,,,,,,,,,,,,,,,,,,,,,,
,,6162bf42048363a56b08995e,2024-02-21_20h18.11.546,kallum_motion_pilot,2023.2.2,Win32,142.8571429,6162bf42048363a56b08995e,65d6bb0e977760de756971f7,65d6bcd9958801b618b98393,0.0164,0.0164,0,63,63,48,1,onetwo,,,,,,,,,,,,,,,,,,,,,,,,,,,,,,,,,,,,,,,,,,,,,,,,,,,,,,,,,,,,,,,,,,,,,,,,,,,,,,,,,,,,,,,,,,,,,,,,,,,,,,,,,,,,,,,,,,,,,,,,,,,,,,,,,,,,,,,,,
,,6162bf42048363a56b08995e,2024-02-21_20h18.11.546,kallum_motion_pilot,2023.2.2,Win32,142.8571429,6162bf42048363a56b08995e,65d6bb0e977760de756971f7,65d6bcd9958801b618b98393,0.0164,0.0165,0,64,64,47,1,fourthree,,,,,,,,,,,,,,,,,,,,,,,,,,,,,,,,,,,,,,,,,,,,,,,,,,,,,,,,,,,,,,,,,,,,,,,,,,,,,,,,,,,,,,,,,,,,,,,,,,,,,,,,,,,,,,,,,,,,,,,,,,,,,,,,,,,,,,,,,
,,6162bf42048363a56b08995e,2024-02-21_20h18.11.546,kallum_motion_pilot,2023.2.2,Win32,142.8571429,6162bf42048363a56b08995e,65d6bb0e977760de756971f7,65d6bcd9958801b618b98393,0.0165,0.0165,0,65,65,6,1,fourtwo,,,,,,,,,,,,,,,,,,,,,,,,,,,,,,,,,,,,,,,,,,,,,,,,,,,,,,,,,,,,,,,,,,,,,,,,,,,,,,,,,,,,,,,,,,,,,,,,,,,,,,,,,,,,,,,,,,,,,,,,,,,,,,,,,,,,,,,,,
,,6162bf42048363a56b08995e,2024-02-21_20h18.11.546,kallum_motion_pilot,2023.2.2,Win32,142.8571429,6162bf42048363a56b08995e,65d6bb0e977760de756971f7,65d6bcd9958801b618b98393,0.0166,0.0166,0,66,66,123,1,sixeight,,,,,,,,,,,,,,,,,,,,,,,,,,,,,,,,,,,,,,,,,,,,,,,,,,,,,,,,,,,,,,,,,,,,,,,,,,,,,,,,,,,,,,,,,,,,,,,,,,,,,,,,,,,,,,,,,,,,,,,,,,,,,,,,,,,,,,,,,
,,6162bf42048363a56b08995e,2024-02-21_20h18.11.546,kallum_motion_pilot,2023.2.2,Win32,142.8571429,6162bf42048363a56b08995e,65d6bb0e977760de756971f7,65d6bcd9958801b618b98393,0.0166,0.0167,0,67,67,97,1,fiveseven,,,,,,,,,,,,,,,,,,,,,,,,,,,,,,,,,,,,,,,,,,,,,,,,,,,,,,,,,,,,,,,,,,,,,,,,,,,,,,,,,,,,,,,,,,,,,,,,,,,,,,,,,,,,,,,,,,,,,,,,,,,,,,,,,,,,,,,,,
,,6162bf42048363a56b08995e,2024-02-21_20h18.11.546,kallum_motion_pilot,2023.2.2,Win32,142.8571429,6162bf42048363a56b08995e,65d6bb0e977760de756971f7,65d6bcd9958801b618b98393,0.0167,0.0167,0,68,68,22,1,fourtwo,,,,,,,,,,,,,,,,,,,,,,,,,,,,,,,,,,,,,,,,,,,,,,,,,,,,,,,,,,,,,,,,,,,,,,,,,,,,,,,,,,,,,,,,,,,,,,,,,,,,,,,,,,,,,,,,,,,,,,,,,,,,,,,,,,,,,,,,,
,,6162bf42048363a56b08995e,2024-02-21_20h18.11.546,kallum_motion_pilot,2023.2.2,Win32,142.8571429,6162bf42048363a56b08995e,65d6bb0e977760de756971f7,65d6bcd9958801b618b98393,0.0168,0.0168,0,69,69,64,1,onetwo,,,,,,,,,,,,,,,,,,,,,,,,,,,,,,,,,,,,,,,,,,,,,,,,,,,,,,,,,,,,,,,,,,,,,,,,,,,,,,,,,,,,,,,,,,,,,,,,,,,,,,,,,,,,,,,,,,,,,,,,,,,,,,,,,,,,,,,,,
,,6162bf42048363a56b08995e,2024-02-21_20h18.11.546,kallum_motion_pilot,2023.2.2,Win32,142.8571429,6162bf42048363a56b08995e,65d6bb0e977760de756971f7,65d6bcd9958801b618b98393,0.0168,0.0168,0,70,70,56,1,onetwo,,,,,,,,,,,,,,,,,,,,,,,,,,,,,,,,,,,,,,,,,,,,,,,,,,,,,,,,,,,,,,,,,,,,,,,,,,,,,,,,,,,,,,,,,,,,,,,,,,,,,,,,,,,,,,,,,,,,,,,,,,,,,,,,,,,,,,,,,
,,6162bf42048363a56b08995e,2024-02-21_20h18.11.546,kallum_motion_pilot,2023.2.2,Win32,142.8571429,6162bf42048363a56b08995e,65d6bb0e977760de756971f7,65d6bcd9958801b618b98393,0.0169,0.0169,0,71,71,9,1,onethree,,,,,,,,,,,,,,,,,,,,,,,,,,,,,,,,,,,,,,,,,,,,,,,,,,,,,,,,,,,,,,,,,,,,,,,,,,,,,,,,,,,,,,,,,,,,,,,,,,,,,,,,,,,,,,,,,,,,,,,,,,,,,,,,,,,,,,,,,
,,6162bf42048363a56b08995e,2024-02-21_20h18.11.546,kallum_motion_pilot,2023.2.2,Win32,142.8571429,6162bf42048363a56b08995e,65d6bb0e977760de756971f7,65d6bcd9958801b618b98393,0.017,0.017,0,72,72,160,1,fivesix,,,,,,,,,,,,,,,,,,,,,,,,,,,,,,,,,,,,,,,,,,,,,,,,,,,,,,,,,,,,,,,,,,,,,,,,,,,,,,,,,,,,,,,,,,,,,,,,,,,,,,,,,,,,,,,,,,,,,,,,,,,,,,,,,,,,,,,,,
,,6162bf42048363a56b08995e,2024-02-21_20h18.11.546,kallum_motion_pilot,2023.2.2,Win32,142.8571429,6162bf42048363a56b08995e,65d6bb0e977760de756971f7,65d6bcd9958801b618b98393,0.017,0.017,0,73,73,7,1,fourthree,,,,,,,,,,,,,,,,,,,,,,,,,,,,,,,,,,,,,,,,,,,,,,,,,,,,,,,,,,,,,,,,,,,,,,,,,,,,,,,,,,,,,,,,,,,,,,,,,,,,,,,,,,,,,,,,,,,,,,,,,,,,,,,,,,,,,,,,,
,,6162bf42048363a56b08995e,2024-02-21_20h18.11.546,kallum_motion_pilot,2023.2.2,Win32,142.8571429,6162bf42048363a56b08995e,65d6bb0e977760de756971f7,65d6bcd9958801b618b98393,0.0171,0.0171,0,74,74,80,1,fivesix,,,,,,,,,,,,,,,,,,,,,,,,,,,,,,,,,,,,,,,,,,,,,,,,,,,,,,,,,,,,,,,,,,,,,,,,,,,,,,,,,,,,,,,,,,,,,,,,,,,,,,,,,,,,,,,,,,,,,,,,,,,,,,,,,,,,,,,,,
,,6162bf42048363a56b08995e,2024-02-21_20h18.11.546,kallum_motion_pilot,2023.2.2,Win32,142.8571429,6162bf42048363a56b08995e,65d6bb0e977760de756971f7,65d6bcd9958801b618b98393,0.0172,0.0172,0,75,75,99,1,sixeight,,,,,,,,,,,,,,,,,,,,,,,,,,,,,,,,,,,,,,,,,,,,,,,,,,,,,,,,,,,,,,,,,,,,,,,,,,,,,,,,,,,,,,,,,,,,,,,,,,,,,,,,,,,,,,,,,,,,,,,,,,,,,,,,,,,,,,,,,
,,6162bf42048363a56b08995e,2024-02-21_20h18.11.546,kallum_motion_pilot,2023.2.2,Win32,142.8571429,6162bf42048363a56b08995e,65d6bb0e977760de756971f7,65d6bcd9958801b618b98393,0.0172,0.0172,0,76,76,153,1,fiveseven,,,,,,,,,,,,,,,,,,,,,,,,,,,,,,,,,,,,,,,,,,,,,,,,,,,,,,,,,,,,,,,,,,,,,,,,,,,,,,,,,,,,,,,,,,,,,,,,,,,,,,,,,,,,,,,,,,,,,,,,,,,,,,,,,,,,,,,,,
,,6162bf42048363a56b08995e,2024-02-21_20h18.11.546,kallum_motion_pilot,2023.2.2,Win32,142.8571429,6162bf42048363a56b08995e,65d6bb0e977760de756971f7,65d6bcd9958801b618b98393,0.0173,0.0173,0,77,77,146,1,sixfive,,,,,,,,,,,,,,,,,,,,,,,,,,,,,,,,,,,,,,,,,,,,,,,,,,,,,,,,,,,,,,,,,,,,,,,,,,,,,,,,,,,,,,,,,,,,,,,,,,,,,,,,,,,,,,,,,,,,,,,,,,,,,,,,,,,,,,,,,
,,6162bf42048363a56b08995e,2024-02-21_20h18.11.546,kallum_motion_pilot,2023.2.2,Win32,142.8571429,6162bf42048363a56b08995e,65d6bb0e977760de756971f7,65d6bcd9958801b618b98393,0.0173,0.0173,0,78,78,61,1,threefour,,,,,,,,,,,,,,,,,,,,,,,,,,,,,,,,,,,,,,,,,,,,,,,,,,,,,,,,,,,,,,,,,,,,,,,,,,,,,,,,,,,,,,,,,,,,,,,,,,,,,,,,,,,,,,,,,,,,,,,,,,,,,,,,,,,,,,,,,
,,6162bf42048363a56b08995e,2024-02-21_20h18.11.546,kallum_motion_pilot,2023.2.2,Win32,142.8571429,6162bf42048363a56b08995e,65d6bb0e977760de756971f7,65d6bcd9958801b618b98393,0.0173,0.0173,0,79,79,44,1,threeone,,,,,,,,,,,,,,,,,,,,,,,,,,,,,,,,,,,,,,,,,,,,,,,,,,,,,,,,,,,,,,,,,,,,,,,,,,,,,,,,,,,,,,,,,,,,,,,,,,,,,,,,,,,,,,,,,,,,,,,,,,,,,,,,,,,,,,,,,
,,6162bf42048363a56b08995e,2024-02-21_20h18.11.546,kallum_motion_pilot,2023.2.2,Win32,142.8571429,6162bf42048363a56b08995e,65d6bb0e977760de756971f7,65d6bcd9958801b618b98393,0.0174,0.0174,0,80,80,0,1,onetwo,,,,,,,,,,,,,,,,,,,,,,,,,,,,,,,,,,,,,,,,,,,,,,,,,,,,,,,,,,,,,,,,,,,,,,,,,,,,,,,,,,,,,,,,,,,,,,,,,,,,,,,,,,,,,,,,,,,,,,,,,,,,,,,,,,,,,,,,,
,,6162bf42048363a56b08995e,2024-02-21_20h18.11.546,kallum_motion_pilot,2023.2.2,Win32,142.8571429,6162bf42048363a56b08995e,65d6bb0e977760de756971f7,65d6bcd9958801b618b98393,0.0174,0.0175,0,81,81,116,1,sevenfive,,,,,,,,,,,,,,,,,,,,,,,,,,,,,,,,,,,,,,,,,,,,,,,,,,,,,,,,,,,,,,,,,,,,,,,,,,,,,,,,,,,,,,,,,,,,,,,,,,,,,,,,,,,,,,,,,,,,,,,,,,,,,,,,,,,,,,,,,
,,6162bf42048363a56b08995e,2024-02-21_20h18.11.546,kallum_motion_pilot,2023.2.2,Win32,142.8571429,6162bf42048363a56b08995e,65d6bb0e977760de756971f7,65d6bcd9958801b618b98393,0.0175,0.0175,0,82,82,13,1,threefour,,,,,,,,,,,,,,,,,,,,,,,,,,,,,,,,,,,,,,,,,,,,,,,,,,,,,,,,,,,,,,,,,,,,,,,,,,,,,,,,,,,,,,,,,,,,,,,,,,,,,,,,,,,,,,,,,,,,,,,,,,,,,,,,,,,,,,,,,
,,6162bf42048363a56b08995e,2024-02-21_20h18.11.546,kallum_motion_pilot,2023.2.2,Win32,142.8571429,6162bf42048363a56b08995e,65d6bb0e977760de756971f7,65d6bcd9958801b618b98393,0.0175,0.0176,0,83,83,111,1,eightseven,,,,,,,,,,,,,,,,,,,,,,,,,,,,,,,,,,,,,,,,,,,,,,,,,,,,,,,,,,,,,,,,,,,,,,,,,,,,,,,,,,,,,,,,,,,,,,,,,,,,,,,,,,,,,,,,,,,,,,,,,,,,,,,,,,,,,,,,,
,,6162bf42048363a56b08995e,2024-02-21_20h18.11.546,kallum_motion_pilot,2023.2.2,Win32,142.8571429,6162bf42048363a56b08995e,65d6bb0e977760de756971f7,65d6bcd9958801b618b98393,0.0176,0.0176,0,84,84,134,1,eightsix,,,,,,,,,,,,,,,,,,,,,,,,,,,,,,,,,,,,,,,,,,,,,,,,,,,,,,,,,,,,,,,,,,,,,,,,,,,,,,,,,,,,,,,,,,,,,,,,,,,,,,,,,,,,,,,,,,,,,,,,,,,,,,,,,,,,,,,,,
,,6162bf42048363a56b08995e,2024-02-21_20h18.11.546,kallum_motion_pilot,2023.2.2,Win32,142.8571429,6162bf42048363a56b08995e,65d6bb0e977760de756971f7,65d6bcd9958801b618b98393,0.0176,0.0177,0,85,85,35,1,twofour,,,,,,,,,,,,,,,,,,,,,,,,,,,,,,,,,,,,,,,,,,,,,,,,,,,,,,,,,,,,,,,,,,,,,,,,,,,,,,,,,,,,,,,,,,,,,,,,,,,,,,,,,,,,,,,,,,,,,,,,,,,,,,,,,,,,,,,,,
,,6162bf42048363a56b08995e,2024-02-21_20h18.11.546,kallum_motion_pilot,2023.2.2,Win32,142.8571429,6162bf42048363a56b08995e,65d6bb0e977760de756971f7,65d6bcd9958801b618b98393,0.0177,0.0177,0,86,86,69,1,threefour,,,,,,,,,,,,,,,,,,,,,,,,,,,,,,,,,,,,,,,,,,,,,,,,,,,,,,,,,,,,,,,,,,,,,,,,,,,,,,,,,,,,,,,,,,,,,,,,,,,,,,,,,,,,,,,,,,,,,,,,,,,,,,,,,,,,,,,,,
,,6162bf42048363a56b08995e,2024-02-21_20h18.11.546,kallum_motion_pilot,2023.2.2,Win32,142.8571429,6162bf42048363a56b08995e,65d6bb0e977760de756971f7,65d6bcd9958801b618b98393,0.0178,0.0178,0,87,87,4,1,threeone,,,,,,,,,,,,,,,,,,,,,,,,,,,,,,,,,,,,,,,,,,,,,,,,,,,,,,,,,,,,,,,,,,,,,,,,,,,,,,,,,,,,,,,,,,,,,,,,,,,,,,,,,,,,,,,,,,,,,,,,,,,,,,,,,,,,,,,,,
,,6162bf42048363a56b08995e,2024-02-21_20h18.11.546,kallum_motion_pilot,2023.2.2,Win32,142.8571429,6162bf42048363a56b08995e,65d6bb0e977760de756971f7,65d6bcd9958801b618b98393,0.0179,0.0179,0,88,88,68,1,threeone,,,,,,,,,,,,,,,,,,,,,,,,,,,,,,,,,,,,,,,,,,,,,,,,,,,,,,,,,,,,,,,,,,,,,,,,,,,,,,,,,,,,,,,,,,,,,,,,,,,,,,,,,,,,,,,,,,,,,,,,,,,,,,,,,,,,,,,,,
,,6162bf42048363a56b08995e,2024-02-21_20h18.11.546,kallum_motion_pilot,2023.2.2,Win32,142.8571429,6162bf42048363a56b08995e,65d6bb0e977760de756971f7,65d6bcd9958801b618b98393,0.0179,0.0179,0,89,89,36,1,threeone,,,,,,,,,,,,,,,,,,,,,,,,,,,,,,,,,,,,,,,,,,,,,,,,,,,,,,,,,,,,,,,,,,,,,,,,,,,,,,,,,,,,,,,,,,,,,,,,,,,,,,,,,,,,,,,,,,,,,,,,,,,,,,,,,,,,,,,,,
,,6162bf42048363a56b08995e,2024-02-21_20h18.11.546,kallum_motion_pilot,2023.2.2,Win32,142.8571429,6162bf42048363a56b08995e,65d6bb0e977760de756971f7,65d6bcd9958801b618b98393,0.018,0.0181,0,90,90,132,1,sevenfive,,,,,,,,,,,,,,,,,,,,,,,,,,,,,,,,,,,,,,,,,,,,,,,,,,,,,,,,,,,,,,,,,,,,,,,,,,,,,,,,,,,,,,,,,,,,,,,,,,,,,,,,,,,,,,,,,,,,,,,,,,,,,,,,,,,,,,,,,
,,6162bf42048363a56b08995e,2024-02-21_20h18.11.546,kallum_motion_pilot,2023.2.2,Win32,142.8571429,6162bf42048363a56b08995e,65d6bb0e977760de756971f7,65d6bcd9958801b618b98393,0.0181,0.0181,0,91,91,83,1,sixeight,,,,,,,,,,,,,,,,,,,,,,,,,,,,,,,,,,,,,,,,,,,,,,,,,,,,,,,,,,,,,,,,,,,,,,,,,,,,,,,,,,,,,,,,,,,,,,,,,,,,,,,,,,,,,,,,,,,,,,,,,,,,,,,,,,,,,,,,,
,,6162bf42048363a56b08995e,2024-02-21_20h18.11.546,kallum_motion_pilot,2023.2.2,Win32,142.8571429,6162bf42048363a56b08995e,65d6bb0e977760de756971f7,65d6bcd9958801b618b98393,0.0181,0.0181,0,92,92,110,1,eightsix,,,,,,,,,,,,,,,,,,,,,,,,,,,,,,,,,,,,,,,,,,,,,,,,,,,,,,,,,,,,,,,,,,,,,,,,,,,,,,,,,,,,,,,,,,,,,,,,,,,,,,,,,,,,,,,,,,,,,,,,,,,,,,,,,,,,,,,,,
,,6162bf42048363a56b08995e,2024-02-21_20h18.11.546,kallum_motion_pilot,2023.2.2,Win32,142.8571429,6162bf42048363a56b08995e,65d6bb0e977760de756971f7,65d6bcd9958801b618b98393,0.0181,0.0182,0,93,93,114,1,sixfive,,,,,,,,,,,,,,,,,,,,,,,,,,,,,,,,,,,,,,,,,,,,,,,,,,,,,,,,,,,,,,,,,,,,,,,,,,,,,,,,,,,,,,,,,,,,,,,,,,,,,,,,,,,,,,,,,,,,,,,,,,,,,,,,,,,,,,,,,
,,6162bf42048363a56b08995e,2024-02-21_20h18.11.546,kallum_motion_pilot,2023.2.2,Win32,142.8571429,6162bf42048363a56b08995e,65d6bb0e977760de756971f7,65d6bcd9958801b618b98393,0.0183,0.0183,0,94,94,117,1,seveneight,,,,,,,,,,,,,,,,,,,,,,,,,,,,,,,,,,,,,,,,,,,,,,,,,,,,,,,,,,,,,,,,,,,,,,,,,,,,,,,,,,,,,,,,,,,,,,,,,,,,,,,,,,,,,,,,,,,,,,,,,,,,,,,,,,,,,,,,,
,,6162bf42048363a56b08995e,2024-02-21_20h18.11.546,kallum_motion_pilot,2023.2.2,Win32,142.8571429,6162bf42048363a56b08995e,65d6bb0e977760de756971f7,65d6bcd9958801b618b98393,0.0183,0.0183,0,95,95,138,1,sixfive,,,,,,,,,,,,,,,,,,,,,,,,,,,,,,,,,,,,,,,,,,,,,,,,,,,,,,,,,,,,,,,,,,,,,,,,,,,,,,,,,,,,,,,,,,,,,,,,,,,,,,,,,,,,,,,,,,,,,,,,,,,,,,,,,,,,,,,,,
,,6162bf42048363a56b08995e,2024-02-21_20h18.11.546,kallum_motion_pilot,2023.2.2,Win32,142.8571429,6162bf42048363a56b08995e,65d6bb0e977760de756971f7,65d6bcd9958801b618b98393,0.0183,0.0183,0,96,96,39,1,fourthree,,,,,,,,,,,,,,,,,,,,,,,,,,,,,,,,,,,,,,,,,,,,,,,,,,,,,,,,,,,,,,,,,,,,,,,,,,,,,,,,,,,,,,,,,,,,,,,,,,,,,,,,,,,,,,,,,,,,,,,,,,,,,,,,,,,,,,,,,
,,6162bf42048363a56b08995e,2024-02-21_20h18.11.546,kallum_motion_pilot,2023.2.2,Win32,142.8571429,6162bf42048363a56b08995e,65d6bb0e977760de756971f7,65d6bcd9958801b618b98393,0.0184,0.0184,0,97,97,115,1,sixeight,,,,,,,,,,,,,,,,,,,,,,,,,,,,,,,,,,,,,,,,,,,,,,,,,,,,,,,,,,,,,,,,,,,,,,,,,,,,,,,,,,,,,,,,,,,,,,,,,,,,,,,,,,,,,,,,,,,,,,,,,,,,,,,,,,,,,,,,,
,,6162bf42048363a56b08995e,2024-02-21_20h18.11.546,kallum_motion_pilot,2023.2.2,Win32,142.8571429,6162bf42048363a56b08995e,65d6bb0e977760de756971f7,65d6bcd9958801b618b98393,0.0185,0.0185,0,98,98,60,1,threeone,,,,,,,,,,,,,,,,,,,,,,,,,,,,,,,,,,,,,,,,,,,,,,,,,,,,,,,,,,,,,,,,,,,,,,,,,,,,,,,,,,,,,,,,,,,,,,,,,,,,,,,,,,,,,,,,,,,,,,,,,,,,,,,,,,,,,,,,,
,,6162bf42048363a56b08995e,2024-02-21_20h18.11.546,kallum_motion_pilot,2023.2.2,Win32,142.8571429,6162bf42048363a56b08995e,65d6bb0e977760de756971f7,65d6bcd9958801b618b98393,0.0185,0.0186,0,99,99,136,1,fivesix,,,,,,,,,,,,,,,,,,,,,,,,,,,,,,,,,,,,,,,,,,,,,,,,,,,,,,,,,,,,,,,,,,,,,,,,,,,,,,,,,,,,,,,,,,,,,,,,,,,,,,,,,,,,,,,,,,,,,,,,,,,,,,,,,,,,,,,,,
,,6162bf42048363a56b08995e,2024-02-21_20h18.11.546,kallum_motion_pilot,2023.2.2,Win32,142.8571429,6162bf42048363a56b08995e,65d6bb0e977760de756971f7,65d6bcd9958801b618b98393,0.0186,0.0186,0,100,100,142,1,eightsix,,,,,,,,,,,,,,,,,,,,,,,,,,,,,,,,,,,,,,,,,,,,,,,,,,,,,,,,,,,,,,,,,,,,,,,,,,,,,,,,,,,,,,,,,,,,,,,,,,,,,,,,,,,,,,,,,,,,,,,,,,,,,,,,,,,,,,,,,
,,6162bf42048363a56b08995e,2024-02-21_20h18.11.546,kallum_motion_pilot,2023.2.2,Win32,142.8571429,6162bf42048363a56b08995e,65d6bb0e977760de756971f7,65d6bcd9958801b618b98393,0.0187,0.0187,0,101,101,139,1,sixeight,,,,,,,,,,,,,,,,,,,,,,,,,,,,,,,,,,,,,,,,,,,,,,,,,,,,,,,,,,,,,,,,,,,,,,,,,,,,,,,,,,,,,,,,,,,,,,,,,,,,,,,,,,,,,,,,,,,,,,,,,,,,,,,,,,,,,,,,,
,,6162bf42048363a56b08995e,2024-02-21_20h18.11.546,kallum_motion_pilot,2023.2.2,Win32,142.8571429,6162bf42048363a56b08995e,65d6bb0e977760de756971f7,65d6bcd9958801b618b98393,0.0187,0.0187,0,102,102,75,1,twofour,,,,,,,,,,,,,,,,,,,,,,,,,,,,,,,,,,,,,,,,,,,,,,,,,,,,,,,,,,,,,,,,,,,,,,,,,,,,,,,,,,,,,,,,,,,,,,,,,,,,,,,,,,,,,,,,,,,,,,,,,,,,,,,,,,,,,,,,,
,,6162bf42048363a56b08995e,2024-02-21_20h18.11.546,kallum_motion_pilot,2023.2.2,Win32,142.8571429,6162bf42048363a56b08995e,65d6bb0e977760de756971f7,65d6bcd9958801b618b98393,0.0187,0.0188,0,103,103,66,1,twoone,,,,,,,,,,,,,,,,,,,,,,,,,,,,,,,,,,,,,,,,,,,,,,,,,,,,,,,,,,,,,,,,,,,,,,,,,,,,,,,,,,,,,,,,,,,,,,,,,,,,,,,,,,,,,,,,,,,,,,,,,,,,,,,,,,,,,,,,,
,,6162bf42048363a56b08995e,2024-02-21_20h18.11.546,kallum_motion_pilot,2023.2.2,Win32,142.8571429,6162bf42048363a56b08995e,65d6bb0e977760de756971f7,65d6bcd9958801b618b98393,0.0188,0.0189,0,104,104,55,1,fourthree,,,,,,,,,,,,,,,,,,,,,,,,,,,,,,,,,,,,,,,,,,,,,,,,,,,,,,,,,,,,,,,,,,,,,,,,,,,,,,,,,,,,,,,,,,,,,,,,,,,,,,,,,,,,,,,,,,,,,,,,,,,,,,,,,,,,,,,,,
,,6162bf42048363a56b08995e,2024-02-21_20h18.11.546,kallum_motion_pilot,2023.2.2,Win32,142.8571429,6162bf42048363a56b08995e,65d6bb0e977760de756971f7,65d6bcd9958801b618b98393,0.0189,0.0189,0,105,105,93,1,seveneight,,,,,,,,,,,,,,,,,,,,,,,,,,,,,,,,,,,,,,,,,,,,,,,,,,,,,,,,,,,,,,,,,,,,,,,,,,,,,,,,,,,,,,,,,,,,,,,,,,,,,,,,,,,,,,,,,,,,,,,,,,,,,,,,,,,,,,,,,
,,6162bf42048363a56b08995e,2024-02-21_20h18.11.546,kallum_motion_pilot,2023.2.2,Win32,142.8571429,6162bf42048363a56b08995e,65d6bb0e977760de756971f7,65d6bcd9958801b618b98393,0.0189,0.019,0,106,106,67,1,twofour,,,,,,,,,,,,,,,,,,,,,,,,,,,,,,,,,,,,,,,,,,,,,,,,,,,,,,,,,,,,,,,,,,,,,,,,,,,,,,,,,,,,,,,,,,,,,,,,,,,,,,,,,,,,,,,,,,,,,,,,,,,,,,,,,,,,,,,,,
,,6162bf42048363a56b08995e,2024-02-21_20h18.11.546,kallum_motion_pilot,2023.2.2,Win32,142.8571429,6162bf42048363a56b08995e,65d6bb0e977760de756971f7,65d6bcd9958801b618b98393,0.019,0.0191,0,107,107,88,1,fivesix,,,,,,,,,,,,,,,,,,,,,,,,,,,,,,,,,,,,,,,,,,,,,,,,,,,,,,,,,,,,,,,,,,,,,,,,,,,,,,,,,,,,,,,,,,,,,,,,,,,,,,,,,,,,,,,,,,,,,,,,,,,,,,,,,,,,,,,,,
,,6162bf42048363a56b08995e,2024-02-21_20h18.11.546,kallum_motion_pilot,2023.2.2,Win32,142.8571429,6162bf42048363a56b08995e,65d6bb0e977760de756971f7,65d6bcd9958801b618b98393,0.0191,0.0191,0,108,108,25,1,onethree,,,,,,,,,,,,,,,,,,,,,,,,,,,,,,,,,,,,,,,,,,,,,,,,,,,,,,,,,,,,,,,,,,,,,,,,,,,,,,,,,,,,,,,,,,,,,,,,,,,,,,,,,,,,,,,,,,,,,,,,,,,,,,,,,,,,,,,,,
,,6162bf42048363a56b08995e,2024-02-21_20h18.11.546,kallum_motion_pilot,2023.2.2,Win32,142.8571429,6162bf42048363a56b08995e,65d6bb0e977760de756971f7,65d6bcd9958801b618b98393,0.0191,0.0191,0,109,109,76,1,threeone,,,,,,,,,,,,,,,,,,,,,,,,,,,,,,,,,,,,,,,,,,,,,,,,,,,,,,,,,,,,,,,,,,,,,,,,,,,,,,,,,,,,,,,,,,,,,,,,,,,,,,,,,,,,,,,,,,,,,,,,,,,,,,,,,,,,,,,,,
,,6162bf42048363a56b08995e,2024-02-21_20h18.11.546,kallum_motion_pilot,2023.2.2,Win32,142.8571429,6162bf42048363a56b08995e,65d6bb0e977760de756971f7,65d6bcd9958801b618b98393,0.0192,0.0192,0,110,110,16,1,onetwo,,,,,,,,,,,,,,,,,,,,,,,,,,,,,,,,,,,,,,,,,,,,,,,,,,,,,,,,,,,,,,,,,,,,,,,,,,,,,,,,,,,,,,,,,,,,,,,,,,,,,,,,,,,,,,,,,,,,,,,,,,,,,,,,,,,,,,,,,
,,6162bf42048363a56b08995e,2024-02-21_20h18.11.546,kallum_motion_pilot,2023.2.2,Win32,142.8571429,6162bf42048363a56b08995e,65d6bb0e977760de756971f7,65d6bcd9958801b618b98393,0.0192,0.0193,0,111,111,101,1,seveneight,,,,,,,,,,,,,,,,,,,,,,,,,,,,,,,,,,,,,,,,,,,,,,,,,,,,,,,,,,,,,,,,,,,,,,,,,,,,,,,,,,,,,,,,,,,,,,,,,,,,,,,,,,,,,,,,,,,,,,,,,,,,,,,,,,,,,,,,,
,,6162bf42048363a56b08995e,2024-02-21_20h18.11.546,kallum_motion_pilot,2023.2.2,Win32,142.8571429,6162bf42048363a56b08995e,65d6bb0e977760de756971f7,65d6bcd9958801b618b98393,0.0194,0.0194,0,112,112,51,1,twofour,,,,,,,,,,,,,,,,,,,,,,,,,,,,,,,,,,,,,,,,,,,,,,,,,,,,,,,,,,,,,,,,,,,,,,,,,,,,,,,,,,,,,,,,,,,,,,,,,,,,,,,,,,,,,,,,,,,,,,,,,,,,,,,,,,,,,,,,,
,,6162bf42048363a56b08995e,2024-02-21_20h18.11.546,kallum_motion_pilot,2023.2.2,Win32,142.8571429,6162bf42048363a56b08995e,65d6bb0e977760de756971f7,65d6bcd9958801b618b98393,0.0194,0.0194,0,113,113,103,1,eightseven,,,,,,,,,,,,,,,,,,,,,,,,,,,,,,,,,,,,,,,,,,,,,,,,,,,,,,,,,,,,,,,,,,,,,,,,,,,,,,,,,,,,,,,,,,,,,,,,,,,,,,,,,,,,,,,,,,,,,,,,,,,,,,,,,,,,,,,,,
,,6162bf42048363a56b08995e,2024-02-21_20h18.11.546,kallum_motion_pilot,2023.2.2,Win32,142.8571429,6162bf42048363a56b08995e,65d6bb0e977760de756971f7,65d6bcd9958801b618b98393,0.0194,0.0194,0,114,114,33,1,onethree,,,,,,,,,,,,,,,,,,,,,,,,,,,,,,,,,,,,,,,,,,,,,,,,,,,,,,,,,,,,,,,,,,,,,,,,,,,,,,,,,,,,,,,,,,,,,,,,,,,,,,,,,,,,,,,,,,,,,,,,,,,,,,,,,,,,,,,,,
,,6162bf42048363a56b08995e,2024-02-21_20h18.11.546,kallum_motion_pilot,2023.2.2,Win32,142.8571429,6162bf42048363a56b08995e,65d6bb0e977760de756971f7,65d6bcd9958801b618b98393,0.0195,0.0196,0,115,115,94,1,eightsix,,,,,,,,,,,,,,,,,,,,,,,,,,,,,,,,,,,,,,,,,,,,,,,,,,,,,,,,,,,,,,,,,,,,,,,,,,,,,,,,,,,,,,,,,,,,,,,,,,,,,,,,,,,,,,,,,,,,,,,,,,,,,,,,,,,,,,,,,
,,6162bf42048363a56b08995e,2024-02-21_20h18.11.546,kallum_motion_pilot,2023.2.2,Win32,142.8571429,6162bf42048363a56b08995e,65d6bb0e977760de756971f7,65d6bcd9958801b618b98393,0.0196,0.0196,0,116,116,107,1,sixeight,,,,,,,,,,,,,,,,,,,,,,,,,,,,,,,,,,,,,,,,,,,,,,,,,,,,,,,,,,,,,,,,,,,,,,,,,,,,,,,,,,,,,,,,,,,,,,,,,,,,,,,,,,,,,,,,,,,,,,,,,,,,,,,,,,,,,,,,,
,,6162bf42048363a56b08995e,2024-02-21_20h18.11.546,kallum_motion_pilot,2023.2.2,Win32,142.8571429,6162bf42048363a56b08995e,65d6bb0e977760de756971f7,65d6bcd9958801b618b98393,0.0196,0.0196,0,117,117,50,1,twoone,,,,,,,,,,,,,,,,,,,,,,,,,,,,,,,,,,,,,,,,,,,,,,,,,,,,,,,,,,,,,,,,,,,,,,,,,,,,,,,,,,,,,,,,,,,,,,,,,,,,,,,,,,,,,,,,,,,,,,,,,,,,,,,,,,,,,,,,,
,,6162bf42048363a56b08995e,2024-02-21_20h18.11.546,kallum_motion_pilot,2023.2.2,Win32,142.8571429,6162bf42048363a56b08995e,65d6bb0e977760de756971f7,65d6bcd9958801b618b98393,0.0196,0.0197,0,118,118,119,1,eightseven,,,,,,,,,,,,,,,,,,,,,,,,,,,,,,,,,,,,,,,,,,,,,,,,,,,,,,,,,,,,,,,,,,,,,,,,,,,,,,,,,,,,,,,,,,,,,,,,,,,,,,,,,,,,,,,,,,,,,,,,,,,,,,,,,,,,,,,,,
,,6162bf42048363a56b08995e,2024-02-21_20h18.11.546,kallum_motion_pilot,2023.2.2,Win32,142.8571429,6162bf42048363a56b08995e,65d6bb0e977760de756971f7,65d6bcd9958801b618b98393,0.0197,0.0198,0,119,119,85,1,seveneight,,,,,,,,,,,,,,,,,,,,,,,,,,,,,,,,,,,,,,,,,,,,,,,,,,,,,,,,,,,,,,,,,,,,,,,,,,,,,,,,,,,,,,,,,,,,,,,,,,,,,,,,,,,,,,,,,,,,,,,,,,,,,,,,,,,,,,,,,
,,6162bf42048363a56b08995e,2024-02-21_20h18.11.546,kallum_motion_pilot,2023.2.2,Win32,142.8571429,6162bf42048363a56b08995e,65d6bb0e977760de756971f7,65d6bcd9958801b618b98393,0.0198,0.0198,0,120,120,148,1,sevenfive,,,,,,,,,,,,,,,,,,,,,,,,,,,,,,,,,,,,,,,,,,,,,,,,,,,,,,,,,,,,,,,,,,,,,,,,,,,,,,,,,,,,,,,,,,,,,,,,,,,,,,,,,,,,,,,,,,,,,,,,,,,,,,,,,,,,,,,,,
,,6162bf42048363a56b08995e,2024-02-21_20h18.11.546,kallum_motion_pilot,2023.2.2,Win32,142.8571429,6162bf42048363a56b08995e,65d6bb0e977760de756971f7,65d6bcd9958801b618b98393,0.02,0.02,0,121,121,14,1,fourtwo,,,,,,,,,,,,,,,,,,,,,,,,,,,,,,,,,,,,,,,,,,,,,,,,,,,,,,,,,,,,,,,,,,,,,,,,,,,,,,,,,,,,,,,,,,,,,,,,,,,,,,,,,,,,,,,,,,,,,,,,,,,,,,,,,,,,,,,,,
,,6162bf42048363a56b08995e,2024-02-21_20h18.11.546,kallum_motion_pilot,2023.2.2,Win32,142.8571429,6162bf42048363a56b08995e,65d6bb0e977760de756971f7,65d6bcd9958801b618b98393,0.0201,0.0201,0,122,122,95,1,eightseven,,,,,,,,,,,,,,,,,,,,,,,,,,,,,,,,,,,,,,,,,,,,,,,,,,,,,,,,,,,,,,,,,,,,,,,,,,,,,,,,,,,,,,,,,,,,,,,,,,,,,,,,,,,,,,,,,,,,,,,,,,,,,,,,,,,,,,,,,
,,6162bf42048363a56b08995e,2024-02-21_20h18.11.546,kallum_motion_pilot,2023.2.2,Win32,142.8571429,6162bf42048363a56b08995e,65d6bb0e977760de756971f7,65d6bcd9958801b618b98393,0.0201,0.0201,0,123,123,73,1,onethree,,,,,,,,,,,,,,,,,,,,,,,,,,,,,,,,,,,,,,,,,,,,,,,,,,,,,,,,,,,,,,,,,,,,,,,,,,,,,,,,,,,,,,,,,,,,,,,,,,,,,,,,,,,,,,,,,,,,,,,,,,,,,,,,,,,,,,,,,
,,6162bf42048363a56b08995e,2024-02-21_20h18.11.546,kallum_motion_pilot,2023.2.2,Win32,142.8571429,6162bf42048363a56b08995e,65d6bb0e977760de756971f7,65d6bcd9958801b618b98393,0.0203,0.0203,0,124,124,161,1,fiveseven,,,,,,,,,,,,,,,,,,,,,,,,,,,,,,,,,,,,,,,,,,,,,,,,,,,,,,,,,,,,,,,,,,,,,,,,,,,,,,,,,,,,,,,,,,,,,,,,,,,,,,,,,,,,,,,,,,,,,,,,,,,,,,,,,,,,,,,,,
,,6162bf42048363a56b08995e,2024-02-21_20h18.11.546,kallum_motion_pilot,2023.2.2,Win32,142.8571429,6162bf42048363a56b08995e,65d6bb0e977760de756971f7,65d6bcd9958801b618b98393,0.0203,0.0204,0,125,125,159,1,eightseven,,,,,,,,,,,,,,,,,,,,,,,,,,,,,,,,,,,,,,,,,,,,,,,,,,,,,,,,,,,,,,,,,,,,,,,,,,,,,,,,,,,,,,,,,,,,,,,,,,,,,,,,,,,,,,,,,,,,,,,,,,,,,,,,,,,,,,,,,
,,6162bf42048363a56b08995e,2024-02-21_20h18.11.546,kallum_motion_pilot,2023.2.2,Win32,142.8571429,6162bf42048363a56b08995e,65d6bb0e977760de756971f7,65d6bcd9958801b618b98393,0.0205,0.0205,0,126,126,21,1,threefour,,,,,,,,,,,,,,,,,,,,,,,,,,,,,,,,,,,,,,,,,,,,,,,,,,,,,,,,,,,,,,,,,,,,,,,,,,,,,,,,,,,,,,,,,,,,,,,,,,,,,,,,,,,,,,,,,,,,,,,,,,,,,,,,,,,,,,,,,
,,6162bf42048363a56b08995e,2024-02-21_20h18.11.546,kallum_motion_pilot,2023.2.2,Win32,142.8571429,6162bf42048363a56b08995e,65d6bb0e977760de756971f7,65d6bcd9958801b618b98393,0.0205,0.0205,0,127,127,84,1,sevenfive,,,,,,,,,,,,,,,,,,,,,,,,,,,,,,,,,,,,,,,,,,,,,,,,,,,,,,,,,,,,,,,,,,,,,,,,,,,,,,,,,,,,,,,,,,,,,,,,,,,,,,,,,,,,,,,,,,,,,,,,,,,,,,,,,,,,,,,,,
,,6162bf42048363a56b08995e,2024-02-21_20h18.11.546,kallum_motion_pilot,2023.2.2,Win32,142.8571429,6162bf42048363a56b08995e,65d6bb0e977760de756971f7,65d6bcd9958801b618b98393,0.0206,0.0206,0,128,128,62,1,fourtwo,,,,,,,,,,,,,,,,,,,,,,,,,,,,,,,,,,,,,,,,,,,,,,,,,,,,,,,,,,,,,,,,,,,,,,,,,,,,,,,,,,,,,,,,,,,,,,,,,,,,,,,,,,,,,,,,,,,,,,,,,,,,,,,,,,,,,,,,,
,,6162bf42048363a56b08995e,2024-02-21_20h18.11.546,kallum_motion_pilot,2023.2.2,Win32,142.8571429,6162bf42048363a56b08995e,65d6bb0e977760de756971f7,65d6bcd9958801b618b98393,0.0206,0.0206,0,129,129,54,1,fourtwo,,,,,,,,,,,,,,,,,,,,,,,,,,,,,,,,,,,,,,,,,,,,,,,,,,,,,,,,,,,,,,,,,,,,,,,,,,,,,,,,,,,,,,,,,,,,,,,,,,,,,,,,,,,,,,,,,,,,,,,,,,,,,,,,,,,,,,,,,
,,6162bf42048363a56b08995e,2024-02-21_20h18.11.546,kallum_motion_pilot,2023.2.2,Win32,142.8571429,6162bf42048363a56b08995e,65d6bb0e977760de756971f7,65d6bcd9958801b618b98393,0.0207,0.0208,0,130,130,78,1,fourtwo,,,,,,,,,,,,,,,,,,,,,,,,,,,,,,,,,,,,,,,,,,,,,,,,,,,,,,,,,,,,,,,,,,,,,,,,,,,,,,,,,,,,,,,,,,,,,,,,,,,,,,,,,,,,,,,,,,,,,,,,,,,,,,,,,,,,,,,,,
,,6162bf42048363a56b08995e,2024-02-21_20h18.11.546,kallum_motion_pilot,2023.2.2,Win32,142.8571429,6162bf42048363a56b08995e,65d6bb0e977760de756971f7,65d6bcd9958801b618b98393,0.0208,0.0208,0,131,131,41,1,onethree,,,,,,,,,,,,,,,,,,,,,,,,,,,,,,,,,,,,,,,,,,,,,,,,,,,,,,,,,,,,,,,,,,,,,,,,,,,,,,,,,,,,,,,,,,,,,,,,,,,,,,,,,,,,,,,,,,,,,,,,,,,,,,,,,,,,,,,,,
,,6162bf42048363a56b08995e,2024-02-21_20h18.11.546,kallum_motion_pilot,2023.2.2,Win32,142.8571429,6162bf42048363a56b08995e,65d6bb0e977760de756971f7,65d6bcd9958801b618b98393,0.0208,0.0208,0,132,132,81,1,fiveseven,,,,,,,,,,,,,,,,,,,,,,,,,,,,,,,,,,,,,,,,,,,,,,,,,,,,,,,,,,,,,,,,,,,,,,,,,,,,,,,,,,,,,,,,,,,,,,,,,,,,,,,,,,,,,,,,,,,,,,,,,,,,,,,,,,,,,,,,,
,,6162bf42048363a56b08995e,2024-02-21_20h18.11.546,kallum_motion_pilot,2023.2.2,Win32,142.8571429,6162bf42048363a56b08995e,65d6bb0e977760de756971f7,65d6bcd9958801b618b98393,0.0208,0.0209,0,133,133,58,1,twoone,,,,,,,,,,,,,,,,,,,,,,,,,,,,,,,,,,,,,,,,,,,,,,,,,,,,,,,,,,,,,,,,,,,,,,,,,,,,,,,,,,,,,,,,,,,,,,,,,,,,,,,,,,,,,,,,,,,,,,,,,,,,,,,,,,,,,,,,,
,,6162bf42048363a56b08995e,2024-02-21_20h18.11.546,kallum_motion_pilot,2023.2.2,Win32,142.8571429,6162bf42048363a56b08995e,65d6bb0e977760de756971f7,65d6bcd9958801b618b98393,0.0209,0.021,0,134,134,17,1,onethree,,,,,,,,,,,,,,,,,,,,,,,,,,,,,,,,,,,,,,,,,,,,,,,,,,,,,,,,,,,,,,,,,,,,,,,,,,,,,,,,,,,,,,,,,,,,,,,,,,,,,,,,,,,,,,,,,,,,,,,,,,,,,,,,,,,,,,,,,
,,6162bf42048363a56b08995e,2024-02-21_20h18.11.546,kallum_motion_pilot,2023.2.2,Win32,142.8571429,6162bf42048363a56b08995e,65d6bb0e977760de756971f7,65d6bcd9958801b618b98393,0.021,0.0211,0,135,135,105,1,fiveseven,,,,,,,,,,,,,,,,,,,,,,,,,,,,,,,,,,,,,,,,,,,,,,,,,,,,,,,,,,,,,,,,,,,,,,,,,,,,,,,,,,,,,,,,,,,,,,,,,,,,,,,,,,,,,,,,,,,,,,,,,,,,,,,,,,,,,,,,,
,,6162bf42048363a56b08995e,2024-02-21_20h18.11.546,kallum_motion_pilot,2023.2.2,Win32,142.8571429,6162bf42048363a56b08995e,65d6bb0e977760de756971f7,65d6bcd9958801b618b98393,0.0212,0.0212,0,136,136,5,1,threefour,,,,,,,,,,,,,,,,,,,,,,,,,,,,,,,,,,,,,,,,,,,,,,,,,,,,,,,,,,,,,,,,,,,,,,,,,,,,,,,,,,,,,,,,,,,,,,,,,,,,,,,,,,,,,,,,,,,,,,,,,,,,,,,,,,,,,,,,,
,,6162bf42048363a56b08995e,2024-02-21_20h18.11.546,kallum_motion_pilot,2023.2.2,Win32,142.8571429,6162bf42048363a56b08995e,65d6bb0e977760de756971f7,65d6bcd9958801b618b98393,0.0212,0.0212,0,137,137,144,1,fivesix,,,,,,,,,,,,,,,,,,,,,,,,,,,,,,,,,,,,,,,,,,,,,,,,,,,,,,,,,,,,,,,,,,,,,,,,,,,,,,,,,,,,,,,,,,,,,,,,,,,,,,,,,,,,,,,,,,,,,,,,,,,,,,,,,,,,,,,,,
,,6162bf42048363a56b08995e,2024-02-21_20h18.11.546,kallum_motion_pilot,2023.2.2,Win32,142.8571429,6162bf42048363a56b08995e,65d6bb0e977760de756971f7,65d6bcd9958801b618b98393,0.0212,0.0213,0,138,138,79,1,eightseven,,,,,,,,,,,,,,,,,,,,,,,,,,,,,,,,,,,,,,,,,,,,,,,,,,,,,,,,,,,,,,,,,,,,,,,,,,,,,,,,,,,,,,,,,,,,,,,,,,,,,,,,,,,,,,,,,,,,,,,,,,,,,,,,,,,,,,,,,
,,6162bf42048363a56b08995e,2024-02-21_20h18.11.546,kallum_motion_pilot,2023.2.2,Win32,142.8571429,6162bf42048363a56b08995e,65d6bb0e977760de756971f7,65d6bcd9958801b618b98393,0.0213,0.0213,0,139,139,82,1,sixfive,,,,,,,,,,,,,,,,,,,,,,,,,,,,,,,,,,,,,,,,,,,,,,,,,,,,,,,,,,,,,,,,,,,,,,,,,,,,,,,,,,,,,,,,,,,,,,,,,,,,,,,,,,,,,,,,,,,,,,,,,,,,,,,,,,,,,,,,,
,,6162bf42048363a56b08995e,2024-02-21_20h18.11.546,kallum_motion_pilot,2023.2.2,Win32,142.8571429,6162bf42048363a56b08995e,65d6bb0e977760de756971f7,65d6bcd9958801b618b98393,0.0215,0.0215,0,140,140,102,1,eightsix,,,,,,,,,,,,,,,,,,,,,,,,,,,,,,,,,,,,,,,,,,,,,,,,,,,,,,,,,,,,,,,,,,,,,,,,,,,,,,,,,,,,,,,,,,,,,,,,,,,,,,,,,,,,,,,,,,,,,,,,,,,,,,,,,,,,,,,,,
,,6162bf42048363a56b08995e,2024-02-21_20h18.11.546,kallum_motion_pilot,2023.2.2,Win32,142.8571429,6162bf42048363a56b08995e,65d6bb0e977760de756971f7,65d6bcd9958801b618b98393,0.0215,0.0215,0,141,141,130,1,sixfive,,,,,,,,,,,,,,,,,,,,,,,,,,,,,,,,,,,,,,,,,,,,,,,,,,,,,,,,,,,,,,,,,,,,,,,,,,,,,,,,,,,,,,,,,,,,,,,,,,,,,,,,,,,,,,,,,,,,,,,,,,,,,,,,,,,,,,,,,
,,6162bf42048363a56b08995e,2024-02-21_20h18.11.546,kallum_motion_pilot,2023.2.2,Win32,142.8571429,6162bf42048363a56b08995e,65d6bb0e977760de756971f7,65d6bcd9958801b618b98393,0.0216,0.0216,0,142,142,137,1,fiveseven,,,,,,,,,,,,,,,,,,,,,,,,,,,,,,,,,,,,,,,,,,,,,,,,,,,,,,,,,,,,,,,,,,,,,,,,,,,,,,,,,,,,,,,,,,,,,,,,,,,,,,,,,,,,,,,,,,,,,,,,,,,,,,,,,,,,,,,,,
,,6162bf42048363a56b08995e,2024-02-21_20h18.11.546,kallum_motion_pilot,2023.2.2,Win32,142.8571429,6162bf42048363a56b08995e,65d6bb0e977760de756971f7,65d6bcd9958801b618b98393,0.0216,0.0217,0,143,143,23,1,fourthree,,,,,,,,,,,,,,,,,,,,,,,,,,,,,,,,,,,,,,,,,,,,,,,,,,,,,,,,,,,,,,,,,,,,,,,,,,,,,,,,,,,,,,,,,,,,,,,,,,,,,,,,,,,,,,,,,,,,,,,,,,,,,,,,,,,,,,,,,
,,6162bf42048363a56b08995e,2024-02-21_20h18.11.546,kallum_motion_pilot,2023.2.2,Win32,142.8571429,6162bf42048363a56b08995e,65d6bb0e977760de756971f7,65d6bcd9958801b618b98393,0.0217,0.0218,0,144,144,133,1,seveneight,,,,,,,,,,,,,,,,,,,,,,,,,,,,,,,,,,,,,,,,,,,,,,,,,,,,,,,,,,,,,,,,,,,,,,,,,,,,,,,,,,,,,,,,,,,,,,,,,,,,,,,,,,,,,,,,,,,,,,,,,,,,,,,,,,,,,,,,,
,,6162bf42048363a56b08995e,2024-02-21_20h18.11.546,kallum_motion_pilot,2023.2.2,Win32,142.8571429,6162bf42048363a56b08995e,65d6bb0e977760de756971f7,65d6bcd9958801b618b98393,0.0218,0.0218,0,145,145,129,1,fiveseven,,,,,,,,,,,,,,,,,,,,,,,,,,,,,,,,,,,,,,,,,,,,,,,,,,,,,,,,,,,,,,,,,,,,,,,,,,,,,,,,,,,,,,,,,,,,,,,,,,,,,,,,,,,,,,,,,,,,,,,,,,,,,,,,,,,,,,,,,
,,6162bf42048363a56b08995e,2024-02-21_20h18.11.546,kallum_motion_pilot,2023.2.2,Win32,142.8571429,6162bf42048363a56b08995e,65d6bb0e977760de756971f7,65d6bcd9958801b618b98393,0.0218,0.0218,0,146,146,131,1,sixeight,,,,,,,,,,,,,,,,,,,,,,,,,,,,,,,,,,,,,,,,,,,,,,,,,,,,,,,,,,,,,,,,,,,,,,,,,,,,,,,,,,,,,,,,,,,,,,,,,,,,,,,,,,,,,,,,,,,,,,,,,,,,,,,,,,,,,,,,,
,,6162bf42048363a56b08995e,2024-02-21_20h18.11.546,kallum_motion_pilot,2023.2.2,Win32,142.8571429,6162bf42048363a56b08995e,65d6bb0e977760de756971f7,65d6bcd9958801b618b98393,0.022,0.022,0,147,147,86,1,eightsix,,,,,,,,,,,,,,,,,,,,,,,,,,,,,,,,,,,,,,,,,,,,,,,,,,,,,,,,,,,,,,,,,,,,,,,,,,,,,,,,,,,,,,,,,,,,,,,,,,,,,,,,,,,,,,,,,,,,,,,,,,,,,,,,,,,,,,,,,
,,6162bf42048363a56b08995e,2024-02-21_20h18.11.546,kallum_motion_pilot,2023.2.2,Win32,142.8571429,6162bf42048363a56b08995e,65d6bb0e977760de756971f7,65d6bcd9958801b618b98393,0.022,0.022,0,148,148,43,1,twofour,,,,,,,,,,,,,,,,,,,,,,,,,,,,,,,,,,,,,,,,,,,,,,,,,,,,,,,,,,,,,,,,,,,,,,,,,,,,,,,,,,,,,,,,,,,,,,,,,,,,,,,,,,,,,,,,,,,,,,,,,,,,,,,,,,,,,,,,,
,,6162bf42048363a56b08995e,2024-02-21_20h18.11.546,kallum_motion_pilot,2023.2.2,Win32,142.8571429,6162bf42048363a56b08995e,65d6bb0e977760de756971f7,65d6bcd9958801b618b98393,0.0221,0.0221,0,149,149,154,1,sixfive,,,,,,,,,,,,,,,,,,,,,,,,,,,,,,,,,,,,,,,,,,,,,,,,,,,,,,,,,,,,,,,,,,,,,,,,,,,,,,,,,,,,,,,,,,,,,,,,,,,,,,,,,,,,,,,,,,,,,,,,,,,,,,,,,,,,,,,,,
,,6162bf42048363a56b08995e,2024-02-21_20h18.11.546,kallum_motion_pilot,2023.2.2,Win32,142.8571429,6162bf42048363a56b08995e,65d6bb0e977760de756971f7,65d6bcd9958801b618b98393,0.0221,0.0221,0,150,150,19,1,twofour,,,,,,,,,,,,,,,,,,,,,,,,,,,,,,,,,,,,,,,,,,,,,,,,,,,,,,,,,,,,,,,,,,,,,,,,,,,,,,,,,,,,,,,,,,,,,,,,,,,,,,,,,,,,,,,,,,,,,,,,,,,,,,,,,,,,,,,,,
,,6162bf42048363a56b08995e,2024-02-21_20h18.11.546,kallum_motion_pilot,2023.2.2,Win32,142.8571429,6162bf42048363a56b08995e,65d6bb0e977760de756971f7,65d6bcd9958801b618b98393,0.0222,0.0222,0,151,151,72,1,onetwo,,,,,,,,,,,,,,,,,,,,,,,,,,,,,,,,,,,,,,,,,,,,,,,,,,,,,,,,,,,,,,,,,,,,,,,,,,,,,,,,,,,,,,,,,,,,,,,,,,,,,,,,,,,,,,,,,,,,,,,,,,,,,,,,,,,,,,,,,
,,6162bf42048363a56b08995e,2024-02-21_20h18.11.546,kallum_motion_pilot,2023.2.2,Win32,142.8571429,6162bf42048363a56b08995e,65d6bb0e977760de756971f7,65d6bcd9958801b618b98393,0.0223,0.0223,0,152,152,89,1,fiveseven,,,,,,,,,,,,,,,,,,,,,,,,,,,,,,,,,,,,,,,,,,,,,,,,,,,,,,,,,,,,,,,,,,,,,,,,,,,,,,,,,,,,,,,,,,,,,,,,,,,,,,,,,,,,,,,,,,,,,,,,,,,,,,,,,,,,,,,,,
,,6162bf42048363a56b08995e,2024-02-21_20h18.11.546,kallum_motion_pilot,2023.2.2,Win32,142.8571429,6162bf42048363a56b08995e,65d6bb0e977760de756971f7,65d6bcd9958801b618b98393,0.0224,0.0224,0,153,153,118,1,eightsix,,,,,,,,,,,,,,,,,,,,,,,,,,,,,,,,,,,,,,,,,,,,,,,,,,,,,,,,,,,,,,,,,,,,,,,,,,,,,,,,,,,,,,,,,,,,,,,,,,,,,,,,,,,,,,,,,,,,,,,,,,,,,,,,,,,,,,,,,
,,6162bf42048363a56b08995e,2024-02-21_20h18.11.546,kallum_motion_pilot,2023.2.2,Win32,142.8571429,6162bf42048363a56b08995e,65d6bb0e977760de756971f7,65d6bcd9958801b618b98393,0.0224,0.0224,0,154,154,46,1,fourtwo,,,,,,,,,,,,,,,,,,,,,,,,,,,,,,,,,,,,,,,,,,,,,,,,,,,,,,,,,,,,,,,,,,,,,,,,,,,,,,,,,,,,,,,,,,,,,,,,,,,,,,,,,,,,,,,,,,,,,,,,,,,,,,,,,,,,,,,,,
,,6162bf42048363a56b08995e,2024-02-21_20h18.11.546,kallum_motion_pilot,2023.2.2,Win32,142.8571429,6162bf42048363a56b08995e,65d6bb0e977760de756971f7,65d6bcd9958801b618b98393,0.0224,0.0225,0,155,155,53,1,threefour,,,,,,,,,,,,,,,,,,,,,,,,,,,,,,,,,,,,,,,,,,,,,,,,,,,,,,,,,,,,,,,,,,,,,,,,,,,,,,,,,,,,,,,,,,,,,,,,,,,,,,,,,,,,,,,,,,,,,,,,,,,,,,,,,,,,,,,,,
,,6162bf42048363a56b08995e,2024-02-21_20h18.11.546,kallum_motion_pilot,2023.2.2,Win32,142.8571429,6162bf42048363a56b08995e,65d6bb0e977760de756971f7,65d6bcd9958801b618b98393,0.0225,0.0225,0,156,156,77,1,threefour,,,,,,,,,,,,,,,,,,,,,,,,,,,,,,,,,,,,,,,,,,,,,,,,,,,,,,,,,,,,,,,,,,,,,,,,,,,,,,,,,,,,,,,,,,,,,,,,,,,,,,,,,,,,,,,,,,,,,,,,,,,,,,,,,,,,,,,,,
,,6162bf42048363a56b08995e,2024-02-21_20h18.11.546,kallum_motion_pilot,2023.2.2,Win32,142.8571429,6162bf42048363a56b08995e,65d6bb0e977760de756971f7,65d6bcd9958801b618b98393,0.0226,0.0226,0,157,157,112,1,fivesix,,,,,,,,,,,,,,,,,,,,,,,,,,,,,,,,,,,,,,,,,,,,,,,,,,,,,,,,,,,,,,,,,,,,,,,,,,,,,,,,,,,,,,,,,,,,,,,,,,,,,,,,,,,,,,,,,,,,,,,,,,,,,,,,,,,,,,,,,
,,6162bf42048363a56b08995e,2024-02-21_20h18.11.546,kallum_motion_pilot,2023.2.2,Win32,142.8571429,6162bf42048363a56b08995e,65d6bb0e977760de756971f7,65d6bcd9958801b618b98393,0.0226,0.0226,0,158,158,98,1,sixfive,,,,,,,,,,,,,,,,,,,,,,,,,,,,,,,,,,,,,,,,,,,,,,,,,,,,,,,,,,,,,,,,,,,,,,,,,,,,,,,,,,,,,,,,,,,,,,,,,,,,,,,,,,,,,,,,,,,,,,,,,,,,,,,,,,,,,,,,,
,,6162bf42048363a56b08995e,2024-02-21_20h18.11.546,kallum_motion_pilot,2023.2.2,Win32,142.8571429,6162bf42048363a56b08995e,65d6bb0e977760de756971f7,65d6bcd9958801b618b98393,0.0228,0.0228,0,159,159,59,1,twofour,,,,,,,,,,,,,,,,,,,,,,,,,,,,,,,,,,,,,,,,,,,,,,,,,,,,,,,,,,,,,,,,,,,,,,,,,,,,,,,,,,,,,,,,,,,,,,,,,,,,,,,,,,,,,,,,,,,,,,,,,,,,,,,,,,,,,,,,,
,,6162bf42048363a56b08995e,2024-02-21_20h18.11.546,kallum_motion_pilot,2023.2.2,Win32,142.8571429,6162bf42048363a56b08995e,65d6bb0e977760de756971f7,65d6bcd9958801b618b98393,0.0228,0.0229,0,160,160,3,1,twofour,,,,,,,,,,,,,,,,,,,,,,,,,,,,,,,,,,,,,,,,,,,,,,,,,,,,,,,,,,,,,,,,,,,,,,,,,,,,,,,,,,,,,,,,,,,,,,,,,,,,,,,,,,,,,,,,,,,,,,,,,,,,,,,,,,,,,,,,,
,,6162bf42048363a56b08995e,2024-02-21_20h18.11.546,kallum_motion_pilot,2023.2.2,Win32,142.8571429,6162bf42048363a56b08995e,65d6bb0e977760de756971f7,65d6bcd9958801b618b98393,0.0229,0.0229,0,161,161,87,1,eightseven,,,,,,,,,,,,,,,,,,,,,,,,,,,,,,,,,,,,,,,,,,,,,,,,,,,,,,,,,,,,,,,,,,,,,,,,,,,,,,,,,,,,,,,,,,,,,,,,,,,,,,,,,,,,,,,,,,,,,,,,,,,,,,,,,,,,,,,,,
,,6162bf42048363a56b08995e,2024-02-21_20h18.11.546,kallum_motion_pilot,2023.2.2,Win32,142.8571429,6162bf42048363a56b08995e,65d6bb0e977760de756971f7,65d6bcd9958801b618b98393,0.023,0.023,1,0,162,134,1,eightsix,,,,,,,,,,,,,,,,,,,,,,,,,,,,,,,,,,,,,,,,,,,,,,,,,,,,,,,,,,,,,,,,,,,,,,,,,,,,,,,,,,,,,,,,,,,,,,,,,,,,,,,,,,,,,,,,,,,,,,,,,,,,,,,,,,,,,,,,,
,,6162bf42048363a56b08995e,2024-02-21_20h18.11.546,kallum_motion_pilot,2023.2.2,Win32,142.8571429,6162bf42048363a56b08995e,65d6bb0e977760de756971f7,65d6bcd9958801b618b98393,0.023,0.023,1,1,163,132,1,sevenfive,,,,,,,,,,,,,,,,,,,,,,,,,,,,,,,,,,,,,,,,,,,,,,,,,,,,,,,,,,,,,,,,,,,,,,,,,,,,,,,,,,,,,,,,,,,,,,,,,,,,,,,,,,,,,,,,,,,,,,,,,,,,,,,,,,,,,,,,,
,,6162bf42048363a56b08995e,2024-02-21_20h18.11.546,kallum_motion_pilot,2023.2.2,Win32,142.8571429,6162bf42048363a56b08995e,65d6bb0e977760de756971f7,65d6bcd9958801b618b98393,0.0231,0.0231,1,2,164,21,1,threefour,,,,,,,,,,,,,,,,,,,,,,,,,,,,,,,,,,,,,,,,,,,,,,,,,,,,,,,,,,,,,,,,,,,,,,,,,,,,,,,,,,,,,,,,,,,,,,,,,,,,,,,,,,,,,,,,,,,,,,,,,,,,,,,,,,,,,,,,,
,,6162bf42048363a56b08995e,2024-02-21_20h18.11.546,kallum_motion_pilot,2023.2.2,Win32,142.8571429,6162bf42048363a56b08995e,65d6bb0e977760de756971f7,65d6bcd9958801b618b98393,0.0231,0.0232,1,3,165,32,1,onetwo,,,,,,,,,,,,,,,,,,,,,,,,,,,,,,,,,,,,,,,,,,,,,,,,,,,,,,,,,,,,,,,,,,,,,,,,,,,,,,,,,,,,,,,,,,,,,,,,,,,,,,,,,,,,,,,,,,,,,,,,,,,,,,,,,,,,,,,,,
,,6162bf42048363a56b08995e,2024-02-21_20h18.11.546,kallum_motion_pilot,2023.2.2,Win32,142.8571429,6162bf42048363a56b08995e,65d6bb0e977760de756971f7,65d6bcd9958801b618b98393,0.0232,0.0232,1,4,166,93,1,seveneight,,,,,,,,,,,,,,,,,,,,,,,,,,,,,,,,,,,,,,,,,,,,,,,,,,,,,,,,,,,,,,,,,,,,,,,,,,,,,,,,,,,,,,,,,,,,,,,,,,,,,,,,,,,,,,,,,,,,,,,,,,,,,,,,,,,,,,,,,
,,6162bf42048363a56b08995e,2024-02-21_20h18.11.546,kallum_motion_pilot,2023.2.2,Win32,142.8571429,6162bf42048363a56b08995e,65d6bb0e977760de756971f7,65d6bcd9958801b618b98393,0.0233,0.0233,1,5,167,96,1,fivesix,,,,,,,,,,,,,,,,,,,,,,,,,,,,,,,,,,,,,,,,,,,,,,,,,,,,,,,,,,,,,,,,,,,,,,,,,,,,,,,,,,,,,,,,,,,,,,,,,,,,,,,,,,,,,,,,,,,,,,,,,,,,,,,,,,,,,,,,,
,,6162bf42048363a56b08995e,2024-02-21_20h18.11.546,kallum_motion_pilot,2023.2.2,Win32,142.8571429,6162bf42048363a56b08995e,65d6bb0e977760de756971f7,65d6bcd9958801b618b98393,0.0234,0.0234,1,6,168,42,1,twoone,,,,,,,,,,,,,,,,,,,,,,,,,,,,,,,,,,,,,,,,,,,,,,,,,,,,,,,,,,,,,,,,,,,,,,,,,,,,,,,,,,,,,,,,,,,,,,,,,,,,,,,,,,,,,,,,,,,,,,,,,,,,,,,,,,,,,,,,,
,,6162bf42048363a56b08995e,2024-02-21_20h18.11.546,kallum_motion_pilot,2023.2.2,Win32,142.8571429,6162bf42048363a56b08995e,65d6bb0e977760de756971f7,65d6bcd9958801b618b98393,0.0235,0.0235,1,7,169,17,1,onethree,,,,,,,,,,,,,,,,,,,,,,,,,,,,,,,,,,,,,,,,,,,,,,,,,,,,,,,,,,,,,,,,,,,,,,,,,,,,,,,,,,,,,,,,,,,,,,,,,,,,,,,,,,,,,,,,,,,,,,,,,,,,,,,,,,,,,,,,,
,,6162bf42048363a56b08995e,2024-02-21_20h18.11.546,kallum_motion_pilot,2023.2.2,Win32,142.8571429,6162bf42048363a56b08995e,65d6bb0e977760de756971f7,65d6bcd9958801b618b98393,0.0236,0.0236,1,8,170,6,1,fourtwo,,,,,,,,,,,,,,,,,,,,,,,,,,,,,,,,,,,,,,,,,,,,,,,,,,,,,,,,,,,,,,,,,,,,,,,,,,,,,,,,,,,,,,,,,,,,,,,,,,,,,,,,,,,,,,,,,,,,,,,,,,,,,,,,,,,,,,,,,
,,6162bf42048363a56b08995e,2024-02-21_20h18.11.546,kallum_motion_pilot,2023.2.2,Win32,142.8571429,6162bf42048363a56b08995e,65d6bb0e977760de756971f7,65d6bcd9958801b618b98393,0.0236,0.0236,1,9,171,56,1,onetwo,,,,,,,,,,,,,,,,,,,,,,,,,,,,,,,,,,,,,,,,,,,,,,,,,,,,,,,,,,,,,,,,,,,,,,,,,,,,,,,,,,,,,,,,,,,,,,,,,,,,,,,,,,,,,,,,,,,,,,,,,,,,,,,,,,,,,,,,,
,,6162bf42048363a56b08995e,2024-02-21_20h18.11.546,kallum_motion_pilot,2023.2.2,Win32,142.8571429,6162bf42048363a56b08995e,65d6bb0e977760de756971f7,65d6bcd9958801b618b98393,0.0237,0.0237,1,10,172,131,1,sixeight,,,,,,,,,,,,,,,,,,,,,,,,,,,,,,,,,,,,,,,,,,,,,,,,,,,,,,,,,,,,,,,,,,,,,,,,,,,,,,,,,,,,,,,,,,,,,,,,,,,,,,,,,,,,,,,,,,,,,,,,,,,,,,,,,,,,,,,,,
,,6162bf42048363a56b08995e,2024-02-21_20h18.11.546,kallum_motion_pilot,2023.2.2,Win32,142.8571429,6162bf42048363a56b08995e,65d6bb0e977760de756971f7,65d6bcd9958801b618b98393,0.0237,0.0237,1,11,173,78,1,fourtwo,,,,,,,,,,,,,,,,,,,,,,,,,,,,,,,,,,,,,,,,,,,,,,,,,,,,,,,,,,,,,,,,,,,,,,,,,,,,,,,,,,,,,,,,,,,,,,,,,,,,,,,,,,,,,,,,,,,,,,,,,,,,,,,,,,,,,,,,,
,,6162bf42048363a56b08995e,2024-02-21_20h18.11.546,kallum_motion_pilot,2023.2.2,Win32,142.8571429,6162bf42048363a56b08995e,65d6bb0e977760de756971f7,65d6bcd9958801b618b98393,0.0238,0.0239,1,12,174,116,1,sevenfive,,,,,,,,,,,,,,,,,,,,,,,,,,,,,,,,,,,,,,,,,,,,,,,,,,,,,,,,,,,,,,,,,,,,,,,,,,,,,,,,,,,,,,,,,,,,,,,,,,,,,,,,,,,,,,,,,,,,,,,,,,,,,,,,,,,,,,,,,
,,6162bf42048363a56b08995e,2024-02-21_20h18.11.546,kallum_motion_pilot,2023.2.2,Win32,142.8571429,6162bf42048363a56b08995e,65d6bb0e977760de756971f7,65d6bcd9958801b618b98393,0.0239,0.0239,1,13,175,156,1,sevenfive,,,,,,,,,,,,,,,,,,,,,,,,,,,,,,,,,,,,,,,,,,,,,,,,,,,,,,,,,,,,,,,,,,,,,,,,,,,,,,,,,,,,,,,,,,,,,,,,,,,,,,,,,,,,,,,,,,,,,,,,,,,,,,,,,,,,,,,,,
,,6162bf42048363a56b08995e,2024-02-21_20h18.11.546,kallum_motion_pilot,2023.2.2,Win32,142.8571429,6162bf42048363a56b08995e,65d6bb0e977760de756971f7,65d6bcd9958801b618b98393,0.0239,0.024,1,14,176,69,1,threefour,,,,,,,,,,,,,,,,,,,,,,,,,,,,,,,,,,,,,,,,,,,,,,,,,,,,,,,,,,,,,,,,,,,,,,,,,,,,,,,,,,,,,,,,,,,,,,,,,,,,,,,,,,,,,,,,,,,,,,,,,,,,,,,,,,,,,,,,,
,,6162bf42048363a56b08995e,2024-02-21_20h18.11.546,kallum_motion_pilot,2023.2.2,Win32,142.8571429,6162bf42048363a56b08995e,65d6bb0e977760de756971f7,65d6bcd9958801b618b98393,0.024,0.024,1,15,177,81,1,fiveseven,,,,,,,,,,,,,,,,,,,,,,,,,,,,,,,,,,,,,,,,,,,,,,,,,,,,,,,,,,,,,,,,,,,,,,,,,,,,,,,,,,,,,,,,,,,,,,,,,,,,,,,,,,,,,,,,,,,,,,,,,,,,,,,,,,,,,,,,,
,,6162bf42048363a56b08995e,2024-02-21_20h18.11.546,kallum_motion_pilot,2023.2.2,Win32,142.8571429,6162bf42048363a56b08995e,65d6bb0e977760de756971f7,65d6bcd9958801b618b98393,0.0241,0.0242,1,16,178,43,1,twofour,,,,,,,,,,,,,,,,,,,,,,,,,,,,,,,,,,,,,,,,,,,,,,,,,,,,,,,,,,,,,,,,,,,,,,,,,,,,,,,,,,,,,,,,,,,,,,,,,,,,,,,,,,,,,,,,,,,,,,,,,,,,,,,,,,,,,,,,,
,,6162bf42048363a56b08995e,2024-02-21_20h18.11.546,kallum_motion_pilot,2023.2.2,Win32,142.8571429,6162bf42048363a56b08995e,65d6bb0e977760de756971f7,65d6bcd9958801b618b98393,0.0242,0.0242,1,17,179,97,1,fiveseven,,,,,,,,,,,,,,,,,,,,,,,,,,,,,,,,,,,,,,,,,,,,,,,,,,,,,,,,,,,,,,,,,,,,,,,,,,,,,,,,,,,,,,,,,,,,,,,,,,,,,,,,,,,,,,,,,,,,,,,,,,,,,,,,,,,,,,,,,
,,6162bf42048363a56b08995e,2024-02-21_20h18.11.546,kallum_motion_pilot,2023.2.2,Win32,142.8571429,6162bf42048363a56b08995e,65d6bb0e977760de756971f7,65d6bcd9958801b618b98393,0.0242,0.0243,1,18,180,53,1,threefour,,,,,,,,,,,,,,,,,,,,,,,,,,,,,,,,,,,,,,,,,,,,,,,,,,,,,,,,,,,,,,,,,,,,,,,,,,,,,,,,,,,,,,,,,,,,,,,,,,,,,,,,,,,,,,,,,,,,,,,,,,,,,,,,,,,,,,,,,
,,6162bf42048363a56b08995e,2024-02-21_20h18.11.546,kallum_motion_pilot,2023.2.2,Win32,142.8571429,6162bf42048363a56b08995e,65d6bb0e977760de756971f7,65d6bcd9958801b618b98393,0.0244,0.0244,1,19,181,33,1,onethree,,,,,,,,,,,,,,,,,,,,,,,,,,,,,,,,,,,,,,,,,,,,,,,,,,,,,,,,,,,,,,,,,,,,,,,,,,,,,,,,,,,,,,,,,,,,,,,,,,,,,,,,,,,,,,,,,,,,,,,,,,,,,,,,,,,,,,,,,
,,6162bf42048363a56b08995e,2024-02-21_20h18.11.546,kallum_motion_pilot,2023.2.2,Win32,142.8571429,6162bf42048363a56b08995e,65d6bb0e977760de756971f7,65d6bcd9958801b618b98393,0.0244,0.0244,1,20,182,158,1,eightsix,,,,,,,,,,,,,,,,,,,,,,,,,,,,,,,,,,,,,,,,,,,,,,,,,,,,,,,,,,,,,,,,,,,,,,,,,,,,,,,,,,,,,,,,,,,,,,,,,,,,,,,,,,,,,,,,,,,,,,,,,,,,,,,,,,,,,,,,,
,,6162bf42048363a56b08995e,2024-02-21_20h18.11.546,kallum_motion_pilot,2023.2.2,Win32,142.8571429,6162bf42048363a56b08995e,65d6bb0e977760de756971f7,65d6bcd9958801b618b98393,0.0245,0.0245,1,21,183,160,1,fivesix,,,,,,,,,,,,,,,,,,,,,,,,,,,,,,,,,,,,,,,,,,,,,,,,,,,,,,,,,,,,,,,,,,,,,,,,,,,,,,,,,,,,,,,,,,,,,,,,,,,,,,,,,,,,,,,,,,,,,,,,,,,,,,,,,,,,,,,,,
,,6162bf42048363a56b08995e,2024-02-21_20h18.11.546,kallum_motion_pilot,2023.2.2,Win32,142.8571429,6162bf42048363a56b08995e,65d6bb0e977760de756971f7,65d6bcd9958801b618b98393,0.0245,0.0246,1,22,184,113,1,fiveseven,,,,,,,,,,,,,,,,,,,,,,,,,,,,,,,,,,,,,,,,,,,,,,,,,,,,,,,,,,,,,,,,,,,,,,,,,,,,,,,,,,,,,,,,,,,,,,,,,,,,,,,,,,,,,,,,,,,,,,,,,,,,,,,,,,,,,,,,,
,,6162bf42048363a56b08995e,2024-02-21_20h18.11.546,kallum_motion_pilot,2023.2.2,Win32,142.8571429,6162bf42048363a56b08995e,65d6bb0e977760de756971f7,65d6bcd9958801b618b98393,0.0246,0.0246,1,23,185,34,1,twoone,,,,,,,,,,,,,,,,,,,,,,,,,,,,,,,,,,,,,,,,,,,,,,,,,,,,,,,,,,,,,,,,,,,,,,,,,,,,,,,,,,,,,,,,,,,,,,,,,,,,,,,,,,,,,,,,,,,,,,,,,,,,,,,,,,,,,,,,,
,,6162bf42048363a56b08995e,2024-02-21_20h18.11.546,kallum_motion_pilot,2023.2.2,Win32,142.8571429,6162bf42048363a56b08995e,65d6bb0e977760de756971f7,65d6bcd9958801b618b98393,0.0247,0.0248,1,24,186,57,1,onethree,,,,,,,,,,,,,,,,,,,,,,,,,,,,,,,,,,,,,,,,,,,,,,,,,,,,,,,,,,,,,,,,,,,,,,,,,,,,,,,,,,,,,,,,,,,,,,,,,,,,,,,,,,,,,,,,,,,,,,,,,,,,,,,,,,,,,,,,,
,,6162bf42048363a56b08995e,2024-02-21_20h18.11.546,kallum_motion_pilot,2023.2.2,Win32,142.8571429,6162bf42048363a56b08995e,65d6bb0e977760de756971f7,65d6bcd9958801b618b98393,0.0248,0.0248,1,25,187,19,1,twofour,,,,,,,,,,,,,,,,,,,,,,,,,,,,,,,,,,,,,,,,,,,,,,,,,,,,,,,,,,,,,,,,,,,,,,,,,,,,,,,,,,,,,,,,,,,,,,,,,,,,,,,,,,,,,,,,,,,,,,,,,,,,,,,,,,,,,,,,,
,,6162bf42048363a56b08995e,2024-02-21_20h18.11.546,kallum_motion_pilot,2023.2.2,Win32,142.8571429,6162bf42048363a56b08995e,65d6bb0e977760de756971f7,65d6bcd9958801b618b98393,0.0249,0.0249,1,26,188,29,1,threefour,,,,,,,,,,,,,,,,,,,,,,,,,,,,,,,,,,,,,,,,,,,,,,,,,,,,,,,,,,,,,,,,,,,,,,,,,,,,,,,,,,,,,,,,,,,,,,,,,,,,,,,,,,,,,,,,,,,,,,,,,,,,,,,,,,,,,,,,,
,,6162bf42048363a56b08995e,2024-02-21_20h18.11.546,kallum_motion_pilot,2023.2.2,Win32,142.8571429,6162bf42048363a56b08995e,65d6bb0e977760de756971f7,65d6bcd9958801b618b98393,0.0249,0.025,1,27,189,151,1,eightseven,,,,,,,,,,,,,,,,,,,,,,,,,,,,,,,,,,,,,,,,,,,,,,,,,,,,,,,,,,,,,,,,,,,,,,,,,,,,,,,,,,,,,,,,,,,,,,,,,,,,,,,,,,,,,,,,,,,,,,,,,,,,,,,,,,,,,,,,,
,,6162bf42048363a56b08995e,2024-02-21_20h18.11.546,kallum_motion_pilot,2023.2.2,Win32,142.8571429,6162bf42048363a56b08995e,65d6bb0e977760de756971f7,65d6bcd9958801b618b98393,0.025,0.0251,1,28,190,98,1,sixfive,,,,,,,,,,,,,,,,,,,,,,,,,,,,,,,,,,,,,,,,,,,,,,,,,,,,,,,,,,,,,,,,,,,,,,,,,,,,,,,,,,,,,,,,,,,,,,,,,,,,,,,,,,,,,,,,,,,,,,,,,,,,,,,,,,,,,,,,,
,,6162bf42048363a56b08995e,2024-02-21_20h18.11.546,kallum_motion_pilot,2023.2.2,Win32,142.8571429,6162bf42048363a56b08995e,65d6bb0e977760de756971f7,65d6bcd9958801b618b98393,0.0251,0.0251,1,29,191,154,1,sixfive,,,,,,,,,,,,,,,,,,,,,,,,,,,,,,,,,,,,,,,,,,,,,,,,,,,,,,,,,,,,,,,,,,,,,,,,,,,,,,,,,,,,,,,,,,,,,,,,,,,,,,,,,,,,,,,,,,,,,,,,,,,,,,,,,,,,,,,,,
,,6162bf42048363a56b08995e,2024-02-21_20h18.11.546,kallum_motion_pilot,2023.2.2,Win32,142.8571429,6162bf42048363a56b08995e,65d6bb0e977760de756971f7,65d6bcd9958801b618b98393,0.0252,0.0252,1,30,192,112,1,fivesix,,,,,,,,,,,,,,,,,,,,,,,,,,,,,,,,,,,,,,,,,,,,,,,,,,,,,,,,,,,,,,,,,,,,,,,,,,,,,,,,,,,,,,,,,,,,,,,,,,,,,,,,,,,,,,,,,,,,,,,,,,,,,,,,,,,,,,,,,
,,6162bf42048363a56b08995e,2024-02-21_20h18.11.546,kallum_motion_pilot,2023.2.2,Win32,142.8571429,6162bf42048363a56b08995e,65d6bb0e977760de756971f7,65d6bcd9958801b618b98393,0.0252,0.0253,1,31,193,79,1,eightseven,,,,,,,,,,,,,,,,,,,,,,,,,,,,,,,,,,,,,,,,,,,,,,,,,,,,,,,,,,,,,,,,,,,,,,,,,,,,,,,,,,,,,,,,,,,,,,,,,,,,,,,,,,,,,,,,,,,,,,,,,,,,,,,,,,,,,,,,,
,,6162bf42048363a56b08995e,2024-02-21_20h18.11.546,kallum_motion_pilot,2023.2.2,Win32,142.8571429,6162bf42048363a56b08995e,65d6bb0e977760de756971f7,65d6bcd9958801b618b98393,0.0254,0.0255,1,32,194,100,1,sevenfive,,,,,,,,,,,,,,,,,,,,,,,,,,,,,,,,,,,,,,,,,,,,,,,,,,,,,,,,,,,,,,,,,,,,,,,,,,,,,,,,,,,,,,,,,,,,,,,,,,,,,,,,,,,,,,,,,,,,,,,,,,,,,,,,,,,,,,,,,
,,6162bf42048363a56b08995e,2024-02-21_20h18.11.546,kallum_motion_pilot,2023.2.2,Win32,142.8571429,6162bf42048363a56b08995e,65d6bb0e977760de756971f7,65d6bcd9958801b618b98393,0.0255,0.0256,1,33,195,60,1,threeone,,,,,,,,,,,,,,,,,,,,,,,,,,,,,,,,,,,,,,,,,,,,,,,,,,,,,,,,,,,,,,,,,,,,,,,,,,,,,,,,,,,,,,,,,,,,,,,,,,,,,,,,,,,,,,,,,,,,,,,,,,,,,,,,,,,,,,,,,
,,6162bf42048363a56b08995e,2024-02-21_20h18.11.546,kallum_motion_pilot,2023.2.2,Win32,142.8571429,6162bf42048363a56b08995e,65d6bb0e977760de756971f7,65d6bcd9958801b618b98393,0.0256,0.0256,1,34,196,133,1,seveneight,,,,,,,,,,,,,,,,,,,,,,,,,,,,,,,,,,,,,,,,,,,,,,,,,,,,,,,,,,,,,,,,,,,,,,,,,,,,,,,,,,,,,,,,,,,,,,,,,,,,,,,,,,,,,,,,,,,,,,,,,,,,,,,,,,,,,,,,,
,,6162bf42048363a56b08995e,2024-02-21_20h18.11.546,kallum_motion_pilot,2023.2.2,Win32,142.8571429,6162bf42048363a56b08995e,65d6bb0e977760de756971f7,65d6bcd9958801b618b98393,0.0258,0.0258,1,35,197,77,1,threefour,,,,,,,,,,,,,,,,,,,,,,,,,,,,,,,,,,,,,,,,,,,,,,,,,,,,,,,,,,,,,,,,,,,,,,,,,,,,,,,,,,,,,,,,,,,,,,,,,,,,,,,,,,,,,,,,,,,,,,,,,,,,,,,,,,,,,,,,,
,,6162bf42048363a56b08995e,2024-02-21_20h18.11.546,kallum_motion_pilot,2023.2.2,Win32,142.8571429,6162bf42048363a56b08995e,65d6bb0e977760de756971f7,65d6bcd9958801b618b98393,0.0258,0.0259,1,36,198,38,1,fourtwo,,,,,,,,,,,,,,,,,,,,,,,,,,,,,,,,,,,,,,,,,,,,,,,,,,,,,,,,,,,,,,,,,,,,,,,,,,,,,,,,,,,,,,,,,,,,,,,,,,,,,,,,,,,,,,,,,,,,,,,,,,,,,,,,,,,,,,,,,
,,6162bf42048363a56b08995e,2024-02-21_20h18.11.546,kallum_motion_pilot,2023.2.2,Win32,142.8571429,6162bf42048363a56b08995e,65d6bb0e977760de756971f7,65d6bcd9958801b618b98393,0.0259,0.0259,1,37,199,66,1,twoone,,,,,,,,,,,,,,,,,,,,,,,,,,,,,,,,,,,,,,,,,,,,,,,,,,,,,,,,,,,,,,,,,,,,,,,,,,,,,,,,,,,,,,,,,,,,,,,,,,,,,,,,,,,,,,,,,,,,,,,,,,,,,,,,,,,,,,,,,
,,6162bf42048363a56b08995e,2024-02-21_20h18.11.546,kallum_motion_pilot,2023.2.2,Win32,142.8571429,6162bf42048363a56b08995e,65d6bb0e977760de756971f7,65d6bcd9958801b618b98393,0.0261,0.0261,1,38,200,91,1,sixeight,,,,,,,,,,,,,,,,,,,,,,,,,,,,,,,,,,,,,,,,,,,,,,,,,,,,,,,,,,,,,,,,,,,,,,,,,,,,,,,,,,,,,,,,,,,,,,,,,,,,,,,,,,,,,,,,,,,,,,,,,,,,,,,,,,,,,,,,,
,,6162bf42048363a56b08995e,2024-02-21_20h18.11.546,kallum_motion_pilot,2023.2.2,Win32,142.8571429,6162bf42048363a56b08995e,65d6bb0e977760de756971f7,65d6bcd9958801b618b98393,0.0261,0.0261,1,39,201,143,1,eightseven,,,,,,,,,,,,,,,,,,,,,,,,,,,,,,,,,,,,,,,,,,,,,,,,,,,,,,,,,,,,,,,,,,,,,,,,,,,,,,,,,,,,,,,,,,,,,,,,,,,,,,,,,,,,,,,,,,,,,,,,,,,,,,,,,,,,,,,,,
,,6162bf42048363a56b08995e,2024-02-21_20h18.11.546,kallum_motion_pilot,2023.2.2,Win32,142.8571429,6162bf42048363a56b08995e,65d6bb0e977760de756971f7,65d6bcd9958801b618b98393,0.0262,0.0263,1,40,202,9,1,onethree,,,,,,,,,,,,,,,,,,,,,,,,,,,,,,,,,,,,,,,,,,,,,,,,,,,,,,,,,,,,,,,,,,,,,,,,,,,,,,,,,,,,,,,,,,,,,,,,,,,,,,,,,,,,,,,,,,,,,,,,,,,,,,,,,,,,,,,,,
,,6162bf42048363a56b08995e,2024-02-21_20h18.11.546,kallum_motion_pilot,2023.2.2,Win32,142.8571429,6162bf42048363a56b08995e,65d6bb0e977760de756971f7,65d6bcd9958801b618b98393,0.0263,0.0264,1,41,203,152,1,fivesix,,,,,,,,,,,,,,,,,,,,,,,,,,,,,,,,,,,,,,,,,,,,,,,,,,,,,,,,,,,,,,,,,,,,,,,,,,,,,,,,,,,,,,,,,,,,,,,,,,,,,,,,,,,,,,,,,,,,,,,,,,,,,,,,,,,,,,,,,
,,6162bf42048363a56b08995e,2024-02-21_20h18.11.546,kallum_motion_pilot,2023.2.2,Win32,142.8571429,6162bf42048363a56b08995e,65d6bb0e977760de756971f7,65d6bcd9958801b618b98393,0.0264,0.0264,1,42,204,8,1,onetwo,,,,,,,,,,,,,,,,,,,,,,,,,,,,,,,,,,,,,,,,,,,,,,,,,,,,,,,,,,,,,,,,,,,,,,,,,,,,,,,,,,,,,,,,,,,,,,,,,,,,,,,,,,,,,,,,,,,,,,,,,,,,,,,,,,,,,,,,,
,,6162bf42048363a56b08995e,2024-02-21_20h18.11.546,kallum_motion_pilot,2023.2.2,Win32,142.8571429,6162bf42048363a56b08995e,65d6bb0e977760de756971f7,65d6bcd9958801b618b98393,0.0266,0.0266,1,43,205,153,1,fiveseven,,,,,,,,,,,,,,,,,,,,,,,,,,,,,,,,,,,,,,,,,,,,,,,,,,,,,,,,,,,,,,,,,,,,,,,,,,,,,,,,,,,,,,,,,,,,,,,,,,,,,,,,,,,,,,,,,,,,,,,,,,,,,,,,,,,,,,,,,
,,6162bf42048363a56b08995e,2024-02-21_20h18.11.546,kallum_motion_pilot,2023.2.2,Win32,142.8571429,6162bf42048363a56b08995e,65d6bb0e977760de756971f7,65d6bcd9958801b618b98393,0.0266,0.0267,1,44,206,126,1,eightsix,,,,,,,,,,,,,,,,,,,,,,,,,,,,,,,,,,,,,,,,,,,,,,,,,,,,,,,,,,,,,,,,,,,,,,,,,,,,,,,,,,,,,,,,,,,,,,,,,,,,,,,,,,,,,,,,,,,,,,,,,,,,,,,,,,,,,,,,,
,,6162bf42048363a56b08995e,2024-02-21_20h18.11.546,kallum_motion_pilot,2023.2.2,Win32,142.8571429,6162bf42048363a56b08995e,65d6bb0e977760de756971f7,65d6bcd9958801b618b98393,0.0267,0.0267,1,45,207,36,1,threeone,,,,,,,,,,,,,,,,,,,,,,,,,,,,,,,,,,,,,,,,,,,,,,,,,,,,,,,,,,,,,,,,,,,,,,,,,,,,,,,,,,,,,,,,,,,,,,,,,,,,,,,,,,,,,,,,,,,,,,,,,,,,,,,,,,,,,,,,,
,,6162bf42048363a56b08995e,2024-02-21_20h18.11.546,kallum_motion_pilot,2023.2.2,Win32,142.8571429,6162bf42048363a56b08995e,65d6bb0e977760de756971f7,65d6bcd9958801b618b98393,0.0268,0.0268,1,46,208,135,1,eightseven,,,,,,,,,,,,,,,,,,,,,,,,,,,,,,,,,,,,,,,,,,,,,,,,,,,,,,,,,,,,,,,,,,,,,,,,,,,,,,,,,,,,,,,,,,,,,,,,,,,,,,,,,,,,,,,,,,,,,,,,,,,,,,,,,,,,,,,,,
,,6162bf42048363a56b08995e,2024-02-21_20h18.11.546,kallum_motion_pilot,2023.2.2,Win32,142.8571429,6162bf42048363a56b08995e,65d6bb0e977760de756971f7,65d6bcd9958801b618b98393,0.0269,0.0269,1,47,209,129,1,fiveseven,,,,,,,,,,,,,,,,,,,,,,,,,,,,,,,,,,,,,,,,,,,,,,,,,,,,,,,,,,,,,,,,,,,,,,,,,,,,,,,,,,,,,,,,,,,,,,,,,,,,,,,,,,,,,,,,,,,,,,,,,,,,,,,,,,,,,,,,,
,,6162bf42048363a56b08995e,2024-02-21_20h18.11.546,kallum_motion_pilot,2023.2.2,Win32,142.8571429,6162bf42048363a56b08995e,65d6bb0e977760de756971f7,65d6bcd9958801b618b98393,0.0269,0.0269,1,48,210,25,1,onethree,,,,,,,,,,,,,,,,,,,,,,,,,,,,,,,,,,,,,,,,,,,,,,,,,,,,,,,,,,,,,,,,,,,,,,,,,,,,,,,,,,,,,,,,,,,,,,,,,,,,,,,,,,,,,,,,,,,,,,,,,,,,,,,,,,,,,,,,,
,,6162bf42048363a56b08995e,2024-02-21_20h18.11.546,kallum_motion_pilot,2023.2.2,Win32,142.8571429,6162bf42048363a56b08995e,65d6bb0e977760de756971f7,65d6bcd9958801b618b98393,0.0271,0.0271,1,49,211,40,1,onetwo,,,,,,,,,,,,,,,,,,,,,,,,,,,,,,,,,,,,,,,,,,,,,,,,,,,,,,,,,,,,,,,,,,,,,,,,,,,,,,,,,,,,,,,,,,,,,,,,,,,,,,,,,,,,,,,,,,,,,,,,,,,,,,,,,,,,,,,,,
,,6162bf42048363a56b08995e,2024-02-21_20h18.11.546,kallum_motion_pilot,2023.2.2,Win32,142.8571429,6162bf42048363a56b08995e,65d6bb0e977760de756971f7,65d6bcd9958801b618b98393,0.0271,0.0272,1,50,212,51,1,twofour,,,,,,,,,,,,,,,,,,,,,,,,,,,,,,,,,,,,,,,,,,,,,,,,,,,,,,,,,,,,,,,,,,,,,,,,,,,,,,,,,,,,,,,,,,,,,,,,,,,,,,,,,,,,,,,,,,,,,,,,,,,,,,,,,,,,,,,,,
,,6162bf42048363a56b08995e,2024-02-21_20h18.11.546,kallum_motion_pilot,2023.2.2,Win32,142.8571429,6162bf42048363a56b08995e,65d6bb0e977760de756971f7,65d6bcd9958801b618b98393,0.0273,0.0273,1,51,213,4,1,threeone,,,,,,,,,,,,,,,,,,,,,,,,,,,,,,,,,,,,,,,,,,,,,,,,,,,,,,,,,,,,,,,,,,,,,,,,,,,,,,,,,,,,,,,,,,,,,,,,,,,,,,,,,,,,,,,,,,,,,,,,,,,,,,,,,,,,,,,,,
,,6162bf42048363a56b08995e,2024-02-21_20h18.11.546,kallum_motion_pilot,2023.2.2,Win32,142.8571429,6162bf42048363a56b08995e,65d6bb0e977760de756971f7,65d6bcd9958801b618b98393,0.0273,0.0273,1,52,214,138,1,sixfive,,,,,,,,,,,,,,,,,,,,,,,,,,,,,,,,,,,,,,,,,,,,,,,,,,,,,,,,,,,,,,,,,,,,,,,,,,,,,,,,,,,,,,,,,,,,,,,,,,,,,,,,,,,,,,,,,,,,,,,,,,,,,,,,,,,,,,,,,
,,6162bf42048363a56b08995e,2024-02-21_20h18.11.546,kallum_motion_pilot,2023.2.2,Win32,142.8571429,6162bf42048363a56b08995e,65d6bb0e977760de756971f7,65d6bcd9958801b618b98393,0.0274,0.0275,1,53,215,61,1,threefour,,,,,,,,,,,,,,,,,,,,,,,,,,,,,,,,,,,,,,,,,,,,,,,,,,,,,,,,,,,,,,,,,,,,,,,,,,,,,,,,,,,,,,,,,,,,,,,,,,,,,,,,,,,,,,,,,,,,,,,,,,,,,,,,,,,,,,,,,
,,6162bf42048363a56b08995e,2024-02-21_20h18.11.546,kallum_motion_pilot,2023.2.2,Win32,142.8571429,6162bf42048363a56b08995e,65d6bb0e977760de756971f7,65d6bcd9958801b618b98393,0.0275,0.0275,1,54,216,74,1,twoone,,,,,,,,,,,,,,,,,,,,,,,,,,,,,,,,,,,,,,,,,,,,,,,,,,,,,,,,,,,,,,,,,,,,,,,,,,,,,,,,,,,,,,,,,,,,,,,,,,,,,,,,,,,,,,,,,,,,,,,,,,,,,,,,,,,,,,,,,
,,6162bf42048363a56b08995e,2024-02-21_20h18.11.546,kallum_motion_pilot,2023.2.2,Win32,142.8571429,6162bf42048363a56b08995e,65d6bb0e977760de756971f7,65d6bcd9958801b618b98393,0.0276,0.0276,1,55,217,127,1,eightseven,,,,,,,,,,,,,,,,,,,,,,,,,,,,,,,,,,,,,,,,,,,,,,,,,,,,,,,,,,,,,,,,,,,,,,,,,,,,,,,,,,,,,,,,,,,,,,,,,,,,,,,,,,,,,,,,,,,,,,,,,,,,,,,,,,,,,,,,,
,,6162bf42048363a56b08995e,2024-02-21_20h18.11.546,kallum_motion_pilot,2023.2.2,Win32,142.8571429,6162bf42048363a56b08995e,65d6bb0e977760de756971f7,65d6bcd9958801b618b98393,0.0277,0.0277,1,56,218,28,1,threeone,,,,,,,,,,,,,,,,,,,,,,,,,,,,,,,,,,,,,,,,,,,,,,,,,,,,,,,,,,,,,,,,,,,,,,,,,,,,,,,,,,,,,,,,,,,,,,,,,,,,,,,,,,,,,,,,,,,,,,,,,,,,,,,,,,,,,,,,,
,,6162bf42048363a56b08995e,2024-02-21_20h18.11.546,kallum_motion_pilot,2023.2.2,Win32,142.8571429,6162bf42048363a56b08995e,65d6bb0e977760de756971f7,65d6bcd9958801b618b98393,0.0278,0.0278,1,57,219,3,1,twofour,,,,,,,,,,,,,,,,,,,,,,,,,,,,,,,,,,,,,,,,,,,,,,,,,,,,,,,,,,,,,,,,,,,,,,,,,,,,,,,,,,,,,,,,,,,,,,,,,,,,,,,,,,,,,,,,,,,,,,,,,,,,,,,,,,,,,,,,,
,,6162bf42048363a56b08995e,2024-02-21_20h18.11.546,kallum_motion_pilot,2023.2.2,Win32,142.8571429,6162bf42048363a56b08995e,65d6bb0e977760de756971f7,65d6bcd9958801b618b98393,0.0279,0.0279,1,58,220,23,1,fourthree,,,,,,,,,,,,,,,,,,,,,,,,,,,,,,,,,,,,,,,,,,,,,,,,,,,,,,,,,,,,,,,,,,,,,,,,,,,,,,,,,,,,,,,,,,,,,,,,,,,,,,,,,,,,,,,,,,,,,,,,,,,,,,,,,,,,,,,,,
,,6162bf42048363a56b08995e,2024-02-21_20h18.11.546,kallum_motion_pilot,2023.2.2,Win32,142.8571429,6162bf42048363a56b08995e,65d6bb0e977760de756971f7,65d6bcd9958801b618b98393,0.0279,0.028,1,59,221,84,1,sevenfive,,,,,,,,,,,,,,,,,,,,,,,,,,,,,,,,,,,,,,,,,,,,,,,,,,,,,,,,,,,,,,,,,,,,,,,,,,,,,,,,,,,,,,,,,,,,,,,,,,,,,,,,,,,,,,,,,,,,,,,,,,,,,,,,,,,,,,,,,
,,6162bf42048363a56b08995e,2024-02-21_20h18.11.546,kallum_motion_pilot,2023.2.2,Win32,142.8571429,6162bf42048363a56b08995e,65d6bb0e977760de756971f7,65d6bcd9958801b618b98393,0.0281,0.0281,1,60,222,128,1,fivesix,,,,,,,,,,,,,,,,,,,,,,,,,,,,,,,,,,,,,,,,,,,,,,,,,,,,,,,,,,,,,,,,,,,,,,,,,,,,,,,,,,,,,,,,,,,,,,,,,,,,,,,,,,,,,,,,,,,,,,,,,,,,,,,,,,,,,,,,,
,,6162bf42048363a56b08995e,2024-02-21_20h18.11.546,kallum_motion_pilot,2023.2.2,Win32,142.8571429,6162bf42048363a56b08995e,65d6bb0e977760de756971f7,65d6bcd9958801b618b98393,0.0282,0.0282,1,61,223,114,1,sixfive,,,,,,,,,,,,,,,,,,,,,,,,,,,,,,,,,,,,,,,,,,,,,,,,,,,,,,,,,,,,,,,,,,,,,,,,,,,,,,,,,,,,,,,,,,,,,,,,,,,,,,,,,,,,,,,,,,,,,,,,,,,,,,,,,,,,,,,,,
,,6162bf42048363a56b08995e,2024-02-21_20h18.11.546,kallum_motion_pilot,2023.2.2,Win32,142.8571429,6162bf42048363a56b08995e,65d6bb0e977760de756971f7,65d6bcd9958801b618b98393,0.0283,0.0283,1,62,224,52,1,threeone,,,,,,,,,,,,,,,,,,,,,,,,,,,,,,,,,,,,,,,,,,,,,,,,,,,,,,,,,,,,,,,,,,,,,,,,,,,,,,,,,,,,,,,,,,,,,,,,,,,,,,,,,,,,,,,,,,,,,,,,,,,,,,,,,,,,,,,,,
,,6162bf42048363a56b08995e,2024-02-21_20h18.11.546,kallum_motion_pilot,2023.2.2,Win32,142.8571429,6162bf42048363a56b08995e,65d6bb0e977760de756971f7,65d6bcd9958801b618b98393,0.0283,0.0283,1,63,225,49,1,onethree,,,,,,,,,,,,,,,,,,,,,,,,,,,,,,,,,,,,,,,,,,,,,,,,,,,,,,,,,,,,,,,,,,,,,,,,,,,,,,,,,,,,,,,,,,,,,,,,,,,,,,,,,,,,,,,,,,,,,,,,,,,,,,,,,,,,,,,,,
,,6162bf42048363a56b08995e,2024-02-21_20h18.11.546,kallum_motion_pilot,2023.2.2,Win32,142.8571429,6162bf42048363a56b08995e,65d6bb0e977760de756971f7,65d6bcd9958801b618b98393,0.0284,0.0285,1,64,226,102,1,eightsix,,,,,,,,,,,,,,,,,,,,,,,,,,,,,,,,,,,,,,,,,,,,,,,,,,,,,,,,,,,,,,,,,,,,,,,,,,,,,,,,,,,,,,,,,,,,,,,,,,,,,,,,,,,,,,,,,,,,,,,,,,,,,,,,,,,,,,,,,
,,6162bf42048363a56b08995e,2024-02-21_20h18.11.546,kallum_motion_pilot,2023.2.2,Win32,142.8571429,6162bf42048363a56b08995e,65d6bb0e977760de756971f7,65d6bcd9958801b618b98393,0.0286,0.0286,1,65,227,120,1,fivesix,,,,,,,,,,,,,,,,,,,,,,,,,,,,,,,,,,,,,,,,,,,,,,,,,,,,,,,,,,,,,,,,,,,,,,,,,,,,,,,,,,,,,,,,,,,,,,,,,,,,,,,,,,,,,,,,,,,,,,,,,,,,,,,,,,,,,,,,,
,,6162bf42048363a56b08995e,2024-02-21_20h18.11.546,kallum_motion_pilot,2023.2.2,Win32,142.8571429,6162bf42048363a56b08995e,65d6bb0e977760de756971f7,65d6bcd9958801b618b98393,0.0286,0.0286,1,66,228,148,1,sevenfive,,,,,,,,,,,,,,,,,,,,,,,,,,,,,,,,,,,,,,,,,,,,,,,,,,,,,,,,,,,,,,,,,,,,,,,,,,,,,,,,,,,,,,,,,,,,,,,,,,,,,,,,,,,,,,,,,,,,,,,,,,,,,,,,,,,,,,,,,
,,6162bf42048363a56b08995e,2024-02-21_20h18.11.546,kallum_motion_pilot,2023.2.2,Win32,142.8571429,6162bf42048363a56b08995e,65d6bb0e977760de756971f7,65d6bcd9958801b618b98393,0.0287,0.0288,1,67,229,159,1,eightseven,,,,,,,,,,,,,,,,,,,,,,,,,,,,,,,,,,,,,,,,,,,,,,,,,,,,,,,,,,,,,,,,,,,,,,,,,,,,,,,,,,,,,,,,,,,,,,,,,,,,,,,,,,,,,,,,,,,,,,,,,,,,,,,,,,,,,,,,,
,,6162bf42048363a56b08995e,2024-02-21_20h18.11.546,kallum_motion_pilot,2023.2.2,Win32,142.8571429,6162bf42048363a56b08995e,65d6bb0e977760de756971f7,65d6bcd9958801b618b98393,0.0288,0.0289,1,68,230,30,1,fourtwo,,,,,,,,,,,,,,,,,,,,,,,,,,,,,,,,,,,,,,,,,,,,,,,,,,,,,,,,,,,,,,,,,,,,,,,,,,,,,,,,,,,,,,,,,,,,,,,,,,,,,,,,,,,,,,,,,,,,,,,,,,,,,,,,,,,,,,,,,
,,6162bf42048363a56b08995e,2024-02-21_20h18.11.546,kallum_motion_pilot,2023.2.2,Win32,142.8571429,6162bf42048363a56b08995e,65d6bb0e977760de756971f7,65d6bcd9958801b618b98393,0.0289,0.0289,1,69,231,85,1,seveneight,,,,,,,,,,,,,,,,,,,,,,,,,,,,,,,,,,,,,,,,,,,,,,,,,,,,,,,,,,,,,,,,,,,,,,,,,,,,,,,,,,,,,,,,,,,,,,,,,,,,,,,,,,,,,,,,,,,,,,,,,,,,,,,,,,,,,,,,,
,,6162bf42048363a56b08995e,2024-02-21_20h18.11.546,kallum_motion_pilot,2023.2.2,Win32,142.8571429,6162bf42048363a56b08995e,65d6bb0e977760de756971f7,65d6bcd9958801b618b98393,0.029,0.0291,1,70,232,73,1,onethree,,,,,,,,,,,,,,,,,,,,,,,,,,,,,,,,,,,,,,,,,,,,,,,,,,,,,,,,,,,,,,,,,,,,,,,,,,,,,,,,,,,,,,,,,,,,,,,,,,,,,,,,,,,,,,,,,,,,,,,,,,,,,,,,,,,,,,,,,
,,6162bf42048363a56b08995e,2024-02-21_20h18.11.546,kallum_motion_pilot,2023.2.2,Win32,142.8571429,6162bf42048363a56b08995e,65d6bb0e977760de756971f7,65d6bcd9958801b618b98393,0.0291,0.0292,1,71,233,108,1,sevenfive,,,,,,,,,,,,,,,,,,,,,,,,,,,,,,,,,,,,,,,,,,,,,,,,,,,,,,,,,,,,,,,,,,,,,,,,,,,,,,,,,,,,,,,,,,,,,,,,,,,,,,,,,,,,,,,,,,,,,,,,,,,,,,,,,,,,,,,,,
,,6162bf42048363a56b08995e,2024-02-21_20h18.11.546,kallum_motion_pilot,2023.2.2,Win32,142.8571429,6162bf42048363a56b08995e,65d6bb0e977760de756971f7,65d6bcd9958801b618b98393,0.0292,0.0293,1,72,234,109,1,seveneight,,,,,,,,,,,,,,,,,,,,,,,,,,,,,,,,,,,,,,,,,,,,,,,,,,,,,,,,,,,,,,,,,,,,,,,,,,,,,,,,,,,,,,,,,,,,,,,,,,,,,,,,,,,,,,,,,,,,,,,,,,,,,,,,,,,,,,,,,
,,6162bf42048363a56b08995e,2024-02-21_20h18.11.546,kallum_motion_pilot,2023.2.2,Win32,142.8571429,6162bf42048363a56b08995e,65d6bb0e977760de756971f7,65d6bcd9958801b618b98393,0.0293,0.0294,1,73,235,122,1,sixfive,,,,,,,,,,,,,,,,,,,,,,,,,,,,,,,,,,,,,,,,,,,,,,,,,,,,,,,,,,,,,,,,,,,,,,,,,,,,,,,,,,,,,,,,,,,,,,,,,,,,,,,,,,,,,,,,,,,,,,,,,,,,,,,,,,,,,,,,,
,,6162bf42048363a56b08995e,2024-02-21_20h18.11.546,kallum_motion_pilot,2023.2.2,Win32,142.8571429,6162bf42048363a56b08995e,65d6bb0e977760de756971f7,65d6bcd9958801b618b98393,0.0294,0.0297,1,74,236,125,1,seveneight,,,,,,,,,,,,,,,,,,,,,,,,,,,,,,,,,,,,,,,,,,,,,,,,,,,,,,,,,,,,,,,,,,,,,,,,,,,,,,,,,,,,,,,,,,,,,,,,,,,,,,,,,,,,,,,,,,,,,,,,,,,,,,,,,,,,,,,,,
,,6162bf42048363a56b08995e,2024-02-21_20h18.11.546,kallum_motion_pilot,2023.2.2,Win32,142.8571429,6162bf42048363a56b08995e,65d6bb0e977760de756971f7,65d6bcd9958801b618b98393,0.0298,0.0298,1,75,237,65,1,onethree,,,,,,,,,,,,,,,,,,,,,,,,,,,,,,,,,,,,,,,,,,,,,,,,,,,,,,,,,,,,,,,,,,,,,,,,,,,,,,,,,,,,,,,,,,,,,,,,,,,,,,,,,,,,,,,,,,,,,,,,,,,,,,,,,,,,,,,,,
,,6162bf42048363a56b08995e,2024-02-21_20h18.11.546,kallum_motion_pilot,2023.2.2,Win32,142.8571429,6162bf42048363a56b08995e,65d6bb0e977760de756971f7,65d6bcd9958801b618b98393,0.0298,0.0299,1,76,238,18,1,twoone,,,,,,,,,,,,,,,,,,,,,,,,,,,,,,,,,,,,,,,,,,,,,,,,,,,,,,,,,,,,,,,,,,,,,,,,,,,,,,,,,,,,,,,,,,,,,,,,,,,,,,,,,,,,,,,,,,,,,,,,,,,,,,,,,,,,,,,,,
,,6162bf42048363a56b08995e,2024-02-21_20h18.11.546,kallum_motion_pilot,2023.2.2,Win32,142.8571429,6162bf42048363a56b08995e,65d6bb0e977760de756971f7,65d6bcd9958801b618b98393,0.0299,0.03,1,77,239,48,1,onetwo,,,,,,,,,,,,,,,,,,,,,,,,,,,,,,,,,,,,,,,,,,,,,,,,,,,,,,,,,,,,,,,,,,,,,,,,,,,,,,,,,,,,,,,,,,,,,,,,,,,,,,,,,,,,,,,,,,,,,,,,,,,,,,,,,,,,,,,,,
,,6162bf42048363a56b08995e,2024-02-21_20h18.11.546,kallum_motion_pilot,2023.2.2,Win32,142.8571429,6162bf42048363a56b08995e,65d6bb0e977760de756971f7,65d6bcd9958801b618b98393,0.03,0.03,1,78,240,76,1,threeone,,,,,,,,,,,,,,,,,,,,,,,,,,,,,,,,,,,,,,,,,,,,,,,,,,,,,,,,,,,,,,,,,,,,,,,,,,,,,,,,,,,,,,,,,,,,,,,,,,,,,,,,,,,,,,,,,,,,,,,,,,,,,,,,,,,,,,,,,
,,6162bf42048363a56b08995e,2024-02-21_20h18.11.546,kallum_motion_pilot,2023.2.2,Win32,142.8571429,6162bf42048363a56b08995e,65d6bb0e977760de756971f7,65d6bcd9958801b618b98393,0.0301,0.0302,1,79,241,14,1,fourtwo,,,,,,,,,,,,,,,,,,,,,,,,,,,,,,,,,,,,,,,,,,,,,,,,,,,,,,,,,,,,,,,,,,,,,,,,,,,,,,,,,,,,,,,,,,,,,,,,,,,,,,,,,,,,,,,,,,,,,,,,,,,,,,,,,,,,,,,,,
,,6162bf42048363a56b08995e,2024-02-21_20h18.11.546,kallum_motion_pilot,2023.2.2,Win32,142.8571429,6162bf42048363a56b08995e,65d6bb0e977760de756971f7,65d6bcd9958801b618b98393,0.0302,0.0302,1,80,242,44,1,threeone,,,,,,,,,,,,,,,,,,,,,,,,,,,,,,,,,,,,,,,,,,,,,,,,,,,,,,,,,,,,,,,,,,,,,,,,,,,,,,,,,,,,,,,,,,,,,,,,,,,,,,,,,,,,,,,,,,,,,,,,,,,,,,,,,,,,,,,,,
,,6162bf42048363a56b08995e,2024-02-21_20h18.11.546,kallum_motion_pilot,2023.2.2,Win32,142.8571429,6162bf42048363a56b08995e,65d6bb0e977760de756971f7,65d6bcd9958801b618b98393,0.0302,0.0303,1,81,243,71,1,fourthree,,,,,,,,,,,,,,,,,,,,,,,,,,,,,,,,,,,,,,,,,,,,,,,,,,,,,,,,,,,,,,,,,,,,,,,,,,,,,,,,,,,,,,,,,,,,,,,,,,,,,,,,,,,,,,,,,,,,,,,,,,,,,,,,,,,,,,,,,
,,6162bf42048363a56b08995e,2024-02-21_20h18.11.546,kallum_motion_pilot,2023.2.2,Win32,142.8571429,6162bf42048363a56b08995e,65d6bb0e977760de756971f7,65d6bcd9958801b618b98393,0.0303,0.0303,1,82,244,26,1,twoone,,,,,,,,,,,,,,,,,,,,,,,,,,,,,,,,,,,,,,,,,,,,,,,,,,,,,,,,,,,,,,,,,,,,,,,,,,,,,,,,,,,,,,,,,,,,,,,,,,,,,,,,,,,,,,,,,,,,,,,,,,,,,,,,,,,,,,,,,
,,6162bf42048363a56b08995e,2024-02-21_20h18.11.546,kallum_motion_pilot,2023.2.2,Win32,142.8571429,6162bf42048363a56b08995e,65d6bb0e977760de756971f7,65d6bcd9958801b618b98393,0.0304,0.0304,1,83,245,63,1,fourthree,,,,,,,,,,,,,,,,,,,,,,,,,,,,,,,,,,,,,,,,,,,,,,,,,,,,,,,,,,,,,,,,,,,,,,,,,,,,,,,,,,,,,,,,,,,,,,,,,,,,,,,,,,,,,,,,,,,,,,,,,,,,,,,,,,,,,,,,,
,,6162bf42048363a56b08995e,2024-02-21_20h18.11.546,kallum_motion_pilot,2023.2.2,Win32,142.8571429,6162bf42048363a56b08995e,65d6bb0e977760de756971f7,65d6bcd9958801b618b98393,0.0305,0.0305,1,84,246,16,1,onetwo,,,,,,,,,,,,,,,,,,,,,,,,,,,,,,,,,,,,,,,,,,,,,,,,,,,,,,,,,,,,,,,,,,,,,,,,,,,,,,,,,,,,,,,,,,,,,,,,,,,,,,,,,,,,,,,,,,,,,,,,,,,,,,,,,,,,,,,,,
,,6162bf42048363a56b08995e,2024-02-21_20h18.11.546,kallum_motion_pilot,2023.2.2,Win32,142.8571429,6162bf42048363a56b08995e,65d6bb0e977760de756971f7,65d6bcd9958801b618b98393,0.0306,0.0306,1,85,247,146,1,sixfive,,,,,,,,,,,,,,,,,,,,,,,,,,,,,,,,,,,,,,,,,,,,,,,,,,,,,,,,,,,,,,,,,,,,,,,,,,,,,,,,,,,,,,,,,,,,,,,,,,,,,,,,,,,,,,,,,,,,,,,,,,,,,,,,,,,,,,,,,
,,6162bf42048363a56b08995e,2024-02-21_20h18.11.546,kallum_motion_pilot,2023.2.2,Win32,142.8571429,6162bf42048363a56b08995e,65d6bb0e977760de756971f7,65d6bcd9958801b618b98393,0.0306,0.0306,1,86,248,123,1,sixeight,,,,,,,,,,,,,,,,,,,,,,,,,,,,,,,,,,,,,,,,,,,,,,,,,,,,,,,,,,,,,,,,,,,,,,,,,,,,,,,,,,,,,,,,,,,,,,,,,,,,,,,,,,,,,,,,,,,,,,,,,,,,,,,,,,,,,,,,,
,,6162bf42048363a56b08995e,2024-02-21_20h18.11.546,kallum_motion_pilot,2023.2.2,Win32,142.8571429,6162bf42048363a56b08995e,65d6bb0e977760de756971f7,65d6bcd9958801b618b98393,0.0307,0.0307,1,87,249,150,1,eightsix,,,,,,,,,,,,,,,,,,,,,,,,,,,,,,,,,,,,,,,,,,,,,,,,,,,,,,,,,,,,,,,,,,,,,,,,,,,,,,,,,,,,,,,,,,,,,,,,,,,,,,,,,,,,,,,,,,,,,,,,,,,,,,,,,,,,,,,,,
,,6162bf42048363a56b08995e,2024-02-21_20h18.11.546,kallum_motion_pilot,2023.2.2,Win32,142.8571429,6162bf42048363a56b08995e,65d6bb0e977760de756971f7,65d6bcd9958801b618b98393,0.0307,0.0308,1,88,250,105,1,fiveseven,,,,,,,,,,,,,,,,,,,,,,,,,,,,,,,,,,,,,,,,,,,,,,,,,,,,,,,,,,,,,,,,,,,,,,,,,,,,,,,,,,,,,,,,,,,,,,,,,,,,,,,,,,,,,,,,,,,,,,,,,,,,,,,,,,,,,,,,,
,,6162bf42048363a56b08995e,2024-02-21_20h18.11.546,kallum_motion_pilot,2023.2.2,Win32,142.8571429,6162bf42048363a56b08995e,65d6bb0e977760de756971f7,65d6bcd9958801b618b98393,0.0309,0.0309,1,89,251,72,1,onetwo,,,,,,,,,,,,,,,,,,,,,,,,,,,,,,,,,,,,,,,,,,,,,,,,,,,,,,,,,,,,,,,,,,,,,,,,,,,,,,,,,,,,,,,,,,,,,,,,,,,,,,,,,,,,,,,,,,,,,,,,,,,,,,,,,,,,,,,,,
,,6162bf42048363a56b08995e,2024-02-21_20h18.11.546,kallum_motion_pilot,2023.2.2,Win32,142.8571429,6162bf42048363a56b08995e,65d6bb0e977760de756971f7,65d6bcd9958801b618b98393,0.0309,0.0309,1,90,252,107,1,sixeight,,,,,,,,,,,,,,,,,,,,,,,,,,,,,,,,,,,,,,,,,,,,,,,,,,,,,,,,,,,,,,,,,,,,,,,,,,,,,,,,,,,,,,,,,,,,,,,,,,,,,,,,,,,,,,,,,,,,,,,,,,,,,,,,,,,,,,,,,
,,6162bf42048363a56b08995e,2024-02-21_20h18.11.546,kallum_motion_pilot,2023.2.2,Win32,142.8571429,6162bf42048363a56b08995e,65d6bb0e977760de756971f7,65d6bcd9958801b618b98393,0.031,0.0311,1,91,253,7,1,fourthree,,,,,,,,,,,,,,,,,,,,,,,,,,,,,,,,,,,,,,,,,,,,,,,,,,,,,,,,,,,,,,,,,,,,,,,,,,,,,,,,,,,,,,,,,,,,,,,,,,,,,,,,,,,,,,,,,,,,,,,,,,,,,,,,,,,,,,,,,
,,6162bf42048363a56b08995e,2024-02-21_20h18.11.546,kallum_motion_pilot,2023.2.2,Win32,142.8571429,6162bf42048363a56b08995e,65d6bb0e977760de756971f7,65d6bcd9958801b618b98393,0.0311,0.0311,1,92,254,31,1,fourthree,,,,,,,,,,,,,,,,,,,,,,,,,,,,,,,,,,,,,,,,,,,,,,,,,,,,,,,,,,,,,,,,,,,,,,,,,,,,,,,,,,,,,,,,,,,,,,,,,,,,,,,,,,,,,,,,,,,,,,,,,,,,,,,,,,,,,,,,,
,,6162bf42048363a56b08995e,2024-02-21_20h18.11.546,kallum_motion_pilot,2023.2.2,Win32,142.8571429,6162bf42048363a56b08995e,65d6bb0e977760de756971f7,65d6bcd9958801b618b98393,0.0312,0.0313,1,93,255,115,1,sixeight,,,,,,,,,,,,,,,,,,,,,,,,,,,,,,,,,,,,,,,,,,,,,,,,,,,,,,,,,,,,,,,,,,,,,,,,,,,,,,,,,,,,,,,,,,,,,,,,,,,,,,,,,,,,,,,,,,,,,,,,,,,,,,,,,,,,,,,,,
,,6162bf42048363a56b08995e,2024-02-21_20h18.11.546,kallum_motion_pilot,2023.2.2,Win32,142.8571429,6162bf42048363a56b08995e,65d6bb0e977760de756971f7,65d6bcd9958801b618b98393,0.0313,0.0314,1,94,256,11,1,twofour,,,,,,,,,,,,,,,,,,,,,,,,,,,,,,,,,,,,,,,,,,,,,,,,,,,,,,,,,,,,,,,,,,,,,,,,,,,,,,,,,,,,,,,,,,,,,,,,,,,,,,,,,,,,,,,,,,,,,,,,,,,,,,,,,,,,,,,,,
,,6162bf42048363a56b08995e,2024-02-21_20h18.11.546,kallum_motion_pilot,2023.2.2,Win32,142.8571429,6162bf42048363a56b08995e,65d6bb0e977760de756971f7,65d6bcd9958801b618b98393,0.0314,0.0314,1,95,257,27,1,twofour,,,,,,,,,,,,,,,,,,,,,,,,,,,,,,,,,,,,,,,,,,,,,,,,,,,,,,,,,,,,,,,,,,,,,,,,,,,,,,,,,,,,,,,,,,,,,,,,,,,,,,,,,,,,,,,,,,,,,,,,,,,,,,,,,,,,,,,,,
,,6162bf42048363a56b08995e,2024-02-21_20h18.11.546,kallum_motion_pilot,2023.2.2,Win32,142.8571429,6162bf42048363a56b08995e,65d6bb0e977760de756971f7,65d6bcd9958801b618b98393,0.0314,0.0315,1,96,258,50,1,twoone,,,,,,,,,,,,,,,,,,,,,,,,,,,,,,,,,,,,,,,,,,,,,,,,,,,,,,,,,,,,,,,,,,,,,,,,,,,,,,,,,,,,,,,,,,,,,,,,,,,,,,,,,,,,,,,,,,,,,,,,,,,,,,,,,,,,,,,,,
,,6162bf42048363a56b08995e,2024-02-21_20h18.11.546,kallum_motion_pilot,2023.2.2,Win32,142.8571429,6162bf42048363a56b08995e,65d6bb0e977760de756971f7,65d6bcd9958801b618b98393,0.0316,0.0316,1,97,259,103,1,eightseven,,,,,,,,,,,,,,,,,,,,,,,,,,,,,,,,,,,,,,,,,,,,,,,,,,,,,,,,,,,,,,,,,,,,,,,,,,,,,,,,,,,,,,,,,,,,,,,,,,,,,,,,,,,,,,,,,,,,,,,,,,,,,,,,,,,,,,,,,
,,6162bf42048363a56b08995e,2024-02-21_20h18.11.546,kallum_motion_pilot,2023.2.2,Win32,142.8571429,6162bf42048363a56b08995e,65d6bb0e977760de756971f7,65d6bcd9958801b618b98393,0.0316,0.0316,1,98,260,155,1,sixeight,,,,,,,,,,,,,,,,,,,,,,,,,,,,,,,,,,,,,,,,,,,,,,,,,,,,,,,,,,,,,,,,,,,,,,,,,,,,,,,,,,,,,,,,,,,,,,,,,,,,,,,,,,,,,,,,,,,,,,,,,,,,,,,,,,,,,,,,,
,,6162bf42048363a56b08995e,2024-02-21_20h18.11.546,kallum_motion_pilot,2023.2.2,Win32,142.8571429,6162bf42048363a56b08995e,65d6bb0e977760de756971f7,65d6bcd9958801b618b98393,0.0317,0.0318,1,99,261,110,1,eightsix,,,,,,,,,,,,,,,,,,,,,,,,,,,,,,,,,,,,,,,,,,,,,,,,,,,,,,,,,,,,,,,,,,,,,,,,,,,,,,,,,,,,,,,,,,,,,,,,,,,,,,,,,,,,,,,,,,,,,,,,,,,,,,,,,,,,,,,,,
,,6162bf42048363a56b08995e,2024-02-21_20h18.11.546,kallum_motion_pilot,2023.2.2,Win32,142.8571429,6162bf42048363a56b08995e,65d6bb0e977760de756971f7,65d6bcd9958801b618b98393,0.0318,0.0319,1,100,262,82,1,sixfive,,,,,,,,,,,,,,,,,,,,,,,,,,,,,,,,,,,,,,,,,,,,,,,,,,,,,,,,,,,,,,,,,,,,,,,,,,,,,,,,,,,,,,,,,,,,,,,,,,,,,,,,,,,,,,,,,,,,,,,,,,,,,,,,,,,,,,,,,
,,6162bf42048363a56b08995e,2024-02-21_20h18.11.546,kallum_motion_pilot,2023.2.2,Win32,142.8571429,6162bf42048363a56b08995e,65d6bb0e977760de756971f7,65d6bcd9958801b618b98393,0.032,0.032,1,101,263,92,1,sevenfive,,,,,,,,,,,,,,,,,,,,,,,,,,,,,,,,,,,,,,,,,,,,,,,,,,,,,,,,,,,,,,,,,,,,,,,,,,,,,,,,,,,,,,,,,,,,,,,,,,,,,,,,,,,,,,,,,,,,,,,,,,,,,,,,,,,,,,,,,
,,6162bf42048363a56b08995e,2024-02-21_20h18.11.546,kallum_motion_pilot,2023.2.2,Win32,142.8571429,6162bf42048363a56b08995e,65d6bb0e977760de756971f7,65d6bcd9958801b618b98393,0.032,0.0321,1,102,264,86,1,eightsix,,,,,,,,,,,,,,,,,,,,,,,,,,,,,,,,,,,,,,,,,,,,,,,,,,,,,,,,,,,,,,,,,,,,,,,,,,,,,,,,,,,,,,,,,,,,,,,,,,,,,,,,,,,,,,,,,,,,,,,,,,,,,,,,,,,,,,,,,
,,6162bf42048363a56b08995e,2024-02-21_20h18.11.546,kallum_motion_pilot,2023.2.2,Win32,142.8571429,6162bf42048363a56b08995e,65d6bb0e977760de756971f7,65d6bcd9958801b618b98393,0.0321,0.0321,1,103,265,39,1,fourthree,,,,,,,,,,,,,,,,,,,,,,,,,,,,,,,,,,,,,,,,,,,,,,,,,,,,,,,,,,,,,,,,,,,,,,,,,,,,,,,,,,,,,,,,,,,,,,,,,,,,,,,,,,,,,,,,,,,,,,,,,,,,,,,,,,,,,,,,,
,,6162bf42048363a56b08995e,2024-02-21_20h18.11.546,kallum_motion_pilot,2023.2.2,Win32,142.8571429,6162bf42048363a56b08995e,65d6bb0e977760de756971f7,65d6bcd9958801b618b98393,0.0322,0.0322,1,104,266,88,1,fivesix,,,,,,,,,,,,,,,,,,,,,,,,,,,,,,,,,,,,,,,,,,,,,,,,,,,,,,,,,,,,,,,,,,,,,,,,,,,,,,,,,,,,,,,,,,,,,,,,,,,,,,,,,,,,,,,,,,,,,,,,,,,,,,,,,,,,,,,,,
,,6162bf42048363a56b08995e,2024-02-21_20h18.11.546,kallum_motion_pilot,2023.2.2,Win32,142.8571429,6162bf42048363a56b08995e,65d6bb0e977760de756971f7,65d6bcd9958801b618b98393,0.0322,0.0322,1,105,267,147,1,sixeight,,,,,,,,,,,,,,,,,,,,,,,,,,,,,,,,,,,,,,,,,,,,,,,,,,,,,,,,,,,,,,,,,,,,,,,,,,,,,,,,,,,,,,,,,,,,,,,,,,,,,,,,,,,,,,,,,,,,,,,,,,,,,,,,,,,,,,,,,
,,6162bf42048363a56b08995e,2024-02-21_20h18.11.546,kallum_motion_pilot,2023.2.2,Win32,142.8571429,6162bf42048363a56b08995e,65d6bb0e977760de756971f7,65d6bcd9958801b618b98393,0.0324,0.0324,1,106,268,13,1,threefour,,,,,,,,,,,,,,,,,,,,,,,,,,,,,,,,,,,,,,,,,,,,,,,,,,,,,,,,,,,,,,,,,,,,,,,,,,,,,,,,,,,,,,,,,,,,,,,,,,,,,,,,,,,,,,,,,,,,,,,,,,,,,,,,,,,,,,,,,
,,6162bf42048363a56b08995e,2024-02-21_20h18.11.546,kallum_motion_pilot,2023.2.2,Win32,142.8571429,6162bf42048363a56b08995e,65d6bb0e977760de756971f7,65d6bcd9958801b618b98393,0.0324,0.0325,1,107,269,67,1,twofour,,,,,,,,,,,,,,,,,,,,,,,,,,,,,,,,,,,,,,,,,,,,,,,,,,,,,,,,,,,,,,,,,,,,,,,,,,,,,,,,,,,,,,,,,,,,,,,,,,,,,,,,,,,,,,,,,,,,,,,,,,,,,,,,,,,,,,,,,
,,6162bf42048363a56b08995e,2024-02-21_20h18.11.546,kallum_motion_pilot,2023.2.2,Win32,142.8571429,6162bf42048363a56b08995e,65d6bb0e977760de756971f7,65d6bcd9958801b618b98393,0.0325,0.0325,1,108,270,104,1,fivesix,,,,,,,,,,,,,,,,,,,,,,,,,,,,,,,,,,,,,,,,,,,,,,,,,,,,,,,,,,,,,,,,,,,,,,,,,,,,,,,,,,,,,,,,,,,,,,,,,,,,,,,,,,,,,,,,,,,,,,,,,,,,,,,,,,,,,,,,,
,,6162bf42048363a56b08995e,2024-02-21_20h18.11.546,kallum_motion_pilot,2023.2.2,Win32,142.8571429,6162bf42048363a56b08995e,65d6bb0e977760de756971f7,65d6bcd9958801b618b98393,0.0325,0.0326,1,109,271,121,1,fiveseven,,,,,,,,,,,,,,,,,,,,,,,,,,,,,,,,,,,,,,,,,,,,,,,,,,,,,,,,,,,,,,,,,,,,,,,,,,,,,,,,,,,,,,,,,,,,,,,,,,,,,,,,,,,,,,,,,,,,,,,,,,,,,,,,,,,,,,,,,
,,6162bf42048363a56b08995e,2024-02-21_20h18.11.546,kallum_motion_pilot,2023.2.2,Win32,142.8571429,6162bf42048363a56b08995e,65d6bb0e977760de756971f7,65d6bcd9958801b618b98393,0.0326,0.0326,1,110,272,157,1,seveneight,,,,,,,,,,,,,,,,,,,,,,,,,,,,,,,,,,,,,,,,,,,,,,,,,,,,,,,,,,,,,,,,,,,,,,,,,,,,,,,,,,,,,,,,,,,,,,,,,,,,,,,,,,,,,,,,,,,,,,,,,,,,,,,,,,,,,,,,,
,,6162bf42048363a56b08995e,2024-02-21_20h18.11.546,kallum_motion_pilot,2023.2.2,Win32,142.8571429,6162bf42048363a56b08995e,65d6bb0e977760de756971f7,65d6bcd9958801b618b98393,0.0327,0.0327,1,111,273,118,1,eightsix,,,,,,,,,,,,,,,,,,,,,,,,,,,,,,,,,,,,,,,,,,,,,,,,,,,,,,,,,,,,,,,,,,,,,,,,,,,,,,,,,,,,,,,,,,,,,,,,,,,,,,,,,,,,,,,,,,,,,,,,,,,,,,,,,,,,,,,,,
,,6162bf42048363a56b08995e,2024-02-21_20h18.11.546,kallum_motion_pilot,2023.2.2,Win32,142.8571429,6162bf42048363a56b08995e,65d6bb0e977760de756971f7,65d6bcd9958801b618b98393,0.0328,0.0328,1,112,274,58,1,twoone,,,,,,,,,,,,,,,,,,,,,,,,,,,,,,,,,,,,,,,,,,,,,,,,,,,,,,,,,,,,,,,,,,,,,,,,,,,,,,,,,,,,,,,,,,,,,,,,,,,,,,,,,,,,,,,,,,,,,,,,,,,,,,,,,,,,,,,,,
,,6162bf42048363a56b08995e,2024-02-21_20h18.11.546,kallum_motion_pilot,2023.2.2,Win32,142.8571429,6162bf42048363a56b08995e,65d6bb0e977760de756971f7,65d6bcd9958801b618b98393,0.0329,0.0329,1,113,275,62,1,fourtwo,,,,,,,,,,,,,,,,,,,,,,,,,,,,,,,,,,,,,,,,,,,,,,,,,,,,,,,,,,,,,,,,,,,,,,,,,,,,,,,,,,,,,,,,,,,,,,,,,,,,,,,,,,,,,,,,,,,,,,,,,,,,,,,,,,,,,,,,,
,,6162bf42048363a56b08995e,2024-02-21_20h18.11.546,kallum_motion_pilot,2023.2.2,Win32,142.8571429,6162bf42048363a56b08995e,65d6bb0e977760de756971f7,65d6bcd9958801b618b98393,0.0329,0.033,1,114,276,75,1,twofour,,,,,,,,,,,,,,,,,,,,,,,,,,,,,,,,,,,,,,,,,,,,,,,,,,,,,,,,,,,,,,,,,,,,,,,,,,,,,,,,,,,,,,,,,,,,,,,,,,,,,,,,,,,,,,,,,,,,,,,,,,,,,,,,,,,,,,,,,
,,6162bf42048363a56b08995e,2024-02-21_20h18.11.546,kallum_motion_pilot,2023.2.2,Win32,142.8571429,6162bf42048363a56b08995e,65d6bb0e977760de756971f7,65d6bcd9958801b618b98393,0.033,0.0331,1,115,277,1,1,onethree,,,,,,,,,,,,,,,,,,,,,,,,,,,,,,,,,,,,,,,,,,,,,,,,,,,,,,,,,,,,,,,,,,,,,,,,,,,,,,,,,,,,,,,,,,,,,,,,,,,,,,,,,,,,,,,,,,,,,,,,,,,,,,,,,,,,,,,,,
