startup.started,startup.stopped,Prolific ID*,date,expName,psychopyVersion,OS,frameRate,participant,study_id,session,stimpositions.started,stimpositions.stopped,hardcoded_stimulus_positions.thisRepN,hardcoded_stimulus_positions.thisTrialN,hardcoded_stimulus_positions.thisN,hardcoded_stimulus_positions.thisIndex,hardcoded_stimulus_positions.ran,StimulusPos,stimorientation.started,stimorientation.stopped,prac_stimorientation_import_loop.thisRepN,prac_stimorientation_import_loop.thisTrialN,prac_stimorientation_import_loop.thisN,prac_stimorientation_import_loop.thisIndex,prac_stimorientation_import_loop.ran,Stimorientation,welcome_instr.started,welcome_instr.stopped,key_resp.keys,key_resp.rt,key_resp.duration,response_steppedout_1.started,response_steppedout_1.stopped,key_resp_20.keys,key_resp_20.rt,key_resp_20.duration,response_steppedout_2.started,response_steppedout_2.stopped,key_resp_19.keys,key_resp_19.rt,key_resp_19.duration,stim_response_instr.started,stim_response_instr.stopped,key_resp_15.keys,key_resp_15.rt,key_resp_15.duration,direction_instr_2.started,direction_instr_2.stopped,key_resp_9.keys,key_resp_9.rt,key_resp_9.duration,instr_prac.started,instr_prac.stopped,key_resp_10.keys,key_resp_10.rt,key_resp_10.duration,Stim1_display_prac.started,Stim1_display_prac.stopped,Ecc,Circle1_ori,Circle2_ori,response_prac.started,similarity,response_time,response_prac.stopped,mouse_5.x,mouse_5.y,mouse_5.leftButton,mouse_5.midButton,mouse_5.rightButton,mouse_5.clicked_name,responseprac_feedback.started,responseprac_feedback.stopped,summary2_prac.started,summary2_prac.stopped,mouse_6.x,mouse_6.y,mouse_6.leftButton,mouse_6.midButton,mouse_6.rightButton,mouse_6.clicked_name,duringprac.thisRepN,duringprac.thisTrialN,duringprac.thisN,duringprac.thisIndex,duringprac.ran,begin.started,begin.stopped,key_resp_22.keys,key_resp_22.rt,key_resp_22.duration,Stim1_display.started,Stim1_display.stopped,circle1_ori,circle2_ori,circle1_SF,circle2_SF,response.started,response.stopped,mouse.x,mouse.y,mouse.leftButton,mouse.midButton,mouse.rightButton,mouse.clicked_name,trialnumber,double_pass.thisRepN,double_pass.thisTrialN,double_pass.thisN,double_pass.thisIndex,double_pass.ran,double_pass.order,main_trial.thisRepN,main_trial.thisTrialN,main_trial.thisN,main_trial.thisIndex,main_trial.ran,main_trial.order,Trial_Counter,Catch,Frequencies,response_2.started,response_2.stopped,mouse_2.x,mouse_2.y,mouse_2.leftButton,mouse_2.midButton,mouse_2.rightButton,mouse_2.clicked_name,special_trial.started,special_trial.stopped,catch_1.started,catch_1.stopped,mouse_3.x,mouse_3.y,mouse_3.leftButton,mouse_3.midButton,mouse_3.rightButton,catchresponse,catchnumber,response_time_catch,response_sum.started,response_sum.stopped,mouse_11.x,mouse_11.y,mouse_11.leftButton,mouse_11.midButton,mouse_11.rightButton,flip_presentation_sequence_for_double_pass.started,flip_presentation_sequence_for_double_pass.stopped,goodbye.started,goodbye.stopped,key_resp_3.keys,key_resp_3.rt,key_resp_3.duration
0.0005,0.0006,6163383249e8518fc08e105f,2024-02-18_23h10.50.189,kallum_motion_pilot,2023.2.2,Win32,60.24096386,6163383249e8518fc08e105f,65d2b6c8f2eece985d8e374c,65d2b8013d1e491d72e7ec04,,,,,,,,,,,,,,,,,,,,,,,,,,,,,,,,,,,,,,,,,,,,,,,,,,,,,,,,,,,,,,,,,,,,,,,,,,,,,,,,,,,,,,,,,,,,,,,,,,,,,,,,,,,,,,,,,,,,,,,,,,,,,,,,,,,,,,,,,,,,,,,,,
,,6163383249e8518fc08e105f,2024-02-18_23h10.50.189,kallum_motion_pilot,2023.2.2,Win32,60.24096386,6163383249e8518fc08e105f,65d2b6c8f2eece985d8e374c,65d2b8013d1e491d72e7ec04,0.036,0.0362,0,0,0,28,1,threeone,,,,,,,,,,,,,,,,,,,,,,,,,,,,,,,,,,,,,,,,,,,,,,,,,,,,,,,,,,,,,,,,,,,,,,,,,,,,,,,,,,,,,,,,,,,,,,,,,,,,,,,,,,,,,,,,,,,,,,,,,,,,,,,,,,,,,,,,,
,,6163383249e8518fc08e105f,2024-02-18_23h10.50.189,kallum_motion_pilot,2023.2.2,Win32,60.24096386,6163383249e8518fc08e105f,65d2b6c8f2eece985d8e374c,65d2b8013d1e491d72e7ec04,0.0366,0.0366,0,1,1,57,1,onethree,,,,,,,,,,,,,,,,,,,,,,,,,,,,,,,,,,,,,,,,,,,,,,,,,,,,,,,,,,,,,,,,,,,,,,,,,,,,,,,,,,,,,,,,,,,,,,,,,,,,,,,,,,,,,,,,,,,,,,,,,,,,,,,,,,,,,,,,,
,,6163383249e8518fc08e105f,2024-02-18_23h10.50.189,kallum_motion_pilot,2023.2.2,Win32,60.24096386,6163383249e8518fc08e105f,65d2b6c8f2eece985d8e374c,65d2b8013d1e491d72e7ec04,0.0368,0.0368,0,2,2,124,1,sevenfive,,,,,,,,,,,,,,,,,,,,,,,,,,,,,,,,,,,,,,,,,,,,,,,,,,,,,,,,,,,,,,,,,,,,,,,,,,,,,,,,,,,,,,,,,,,,,,,,,,,,,,,,,,,,,,,,,,,,,,,,,,,,,,,,,,,,,,,,,
,,6163383249e8518fc08e105f,2024-02-18_23h10.50.189,kallum_motion_pilot,2023.2.2,Win32,60.24096386,6163383249e8518fc08e105f,65d2b6c8f2eece985d8e374c,65d2b8013d1e491d72e7ec04,0.0371,0.0371,0,3,3,36,1,threeone,,,,,,,,,,,,,,,,,,,,,,,,,,,,,,,,,,,,,,,,,,,,,,,,,,,,,,,,,,,,,,,,,,,,,,,,,,,,,,,,,,,,,,,,,,,,,,,,,,,,,,,,,,,,,,,,,,,,,,,,,,,,,,,,,,,,,,,,,
,,6163383249e8518fc08e105f,2024-02-18_23h10.50.189,kallum_motion_pilot,2023.2.2,Win32,60.24096386,6163383249e8518fc08e105f,65d2b6c8f2eece985d8e374c,65d2b8013d1e491d72e7ec04,0.0373,0.0373,0,4,4,121,1,fiveseven,,,,,,,,,,,,,,,,,,,,,,,,,,,,,,,,,,,,,,,,,,,,,,,,,,,,,,,,,,,,,,,,,,,,,,,,,,,,,,,,,,,,,,,,,,,,,,,,,,,,,,,,,,,,,,,,,,,,,,,,,,,,,,,,,,,,,,,,,
,,6163383249e8518fc08e105f,2024-02-18_23h10.50.189,kallum_motion_pilot,2023.2.2,Win32,60.24096386,6163383249e8518fc08e105f,65d2b6c8f2eece985d8e374c,65d2b8013d1e491d72e7ec04,0.0374,0.0374,0,5,5,18,1,twoone,,,,,,,,,,,,,,,,,,,,,,,,,,,,,,,,,,,,,,,,,,,,,,,,,,,,,,,,,,,,,,,,,,,,,,,,,,,,,,,,,,,,,,,,,,,,,,,,,,,,,,,,,,,,,,,,,,,,,,,,,,,,,,,,,,,,,,,,,
,,6163383249e8518fc08e105f,2024-02-18_23h10.50.189,kallum_motion_pilot,2023.2.2,Win32,60.24096386,6163383249e8518fc08e105f,65d2b6c8f2eece985d8e374c,65d2b8013d1e491d72e7ec04,0.0376,0.0376,0,6,6,113,1,fiveseven,,,,,,,,,,,,,,,,,,,,,,,,,,,,,,,,,,,,,,,,,,,,,,,,,,,,,,,,,,,,,,,,,,,,,,,,,,,,,,,,,,,,,,,,,,,,,,,,,,,,,,,,,,,,,,,,,,,,,,,,,,,,,,,,,,,,,,,,,
,,6163383249e8518fc08e105f,2024-02-18_23h10.50.189,kallum_motion_pilot,2023.2.2,Win32,60.24096386,6163383249e8518fc08e105f,65d2b6c8f2eece985d8e374c,65d2b8013d1e491d72e7ec04,0.0378,0.0379,0,7,7,23,1,fourthree,,,,,,,,,,,,,,,,,,,,,,,,,,,,,,,,,,,,,,,,,,,,,,,,,,,,,,,,,,,,,,,,,,,,,,,,,,,,,,,,,,,,,,,,,,,,,,,,,,,,,,,,,,,,,,,,,,,,,,,,,,,,,,,,,,,,,,,,,
,,6163383249e8518fc08e105f,2024-02-18_23h10.50.189,kallum_motion_pilot,2023.2.2,Win32,60.24096386,6163383249e8518fc08e105f,65d2b6c8f2eece985d8e374c,65d2b8013d1e491d72e7ec04,0.0382,0.0383,0,8,8,160,1,fivesix,,,,,,,,,,,,,,,,,,,,,,,,,,,,,,,,,,,,,,,,,,,,,,,,,,,,,,,,,,,,,,,,,,,,,,,,,,,,,,,,,,,,,,,,,,,,,,,,,,,,,,,,,,,,,,,,,,,,,,,,,,,,,,,,,,,,,,,,,
,,6163383249e8518fc08e105f,2024-02-18_23h10.50.189,kallum_motion_pilot,2023.2.2,Win32,60.24096386,6163383249e8518fc08e105f,65d2b6c8f2eece985d8e374c,65d2b8013d1e491d72e7ec04,0.0384,0.0384,0,9,9,146,1,sixfive,,,,,,,,,,,,,,,,,,,,,,,,,,,,,,,,,,,,,,,,,,,,,,,,,,,,,,,,,,,,,,,,,,,,,,,,,,,,,,,,,,,,,,,,,,,,,,,,,,,,,,,,,,,,,,,,,,,,,,,,,,,,,,,,,,,,,,,,,
,,6163383249e8518fc08e105f,2024-02-18_23h10.50.189,kallum_motion_pilot,2023.2.2,Win32,60.24096386,6163383249e8518fc08e105f,65d2b6c8f2eece985d8e374c,65d2b8013d1e491d72e7ec04,0.0386,0.0386,0,10,10,19,1,twofour,,,,,,,,,,,,,,,,,,,,,,,,,,,,,,,,,,,,,,,,,,,,,,,,,,,,,,,,,,,,,,,,,,,,,,,,,,,,,,,,,,,,,,,,,,,,,,,,,,,,,,,,,,,,,,,,,,,,,,,,,,,,,,,,,,,,,,,,,
,,6163383249e8518fc08e105f,2024-02-18_23h10.50.189,kallum_motion_pilot,2023.2.2,Win32,60.24096386,6163383249e8518fc08e105f,65d2b6c8f2eece985d8e374c,65d2b8013d1e491d72e7ec04,0.0388,0.0388,0,11,11,126,1,eightsix,,,,,,,,,,,,,,,,,,,,,,,,,,,,,,,,,,,,,,,,,,,,,,,,,,,,,,,,,,,,,,,,,,,,,,,,,,,,,,,,,,,,,,,,,,,,,,,,,,,,,,,,,,,,,,,,,,,,,,,,,,,,,,,,,,,,,,,,,
,,6163383249e8518fc08e105f,2024-02-18_23h10.50.189,kallum_motion_pilot,2023.2.2,Win32,60.24096386,6163383249e8518fc08e105f,65d2b6c8f2eece985d8e374c,65d2b8013d1e491d72e7ec04,0.0389,0.039,0,12,12,81,1,fiveseven,,,,,,,,,,,,,,,,,,,,,,,,,,,,,,,,,,,,,,,,,,,,,,,,,,,,,,,,,,,,,,,,,,,,,,,,,,,,,,,,,,,,,,,,,,,,,,,,,,,,,,,,,,,,,,,,,,,,,,,,,,,,,,,,,,,,,,,,,
,,6163383249e8518fc08e105f,2024-02-18_23h10.50.189,kallum_motion_pilot,2023.2.2,Win32,60.24096386,6163383249e8518fc08e105f,65d2b6c8f2eece985d8e374c,65d2b8013d1e491d72e7ec04,0.0392,0.0392,0,13,13,82,1,sixfive,,,,,,,,,,,,,,,,,,,,,,,,,,,,,,,,,,,,,,,,,,,,,,,,,,,,,,,,,,,,,,,,,,,,,,,,,,,,,,,,,,,,,,,,,,,,,,,,,,,,,,,,,,,,,,,,,,,,,,,,,,,,,,,,,,,,,,,,,
,,6163383249e8518fc08e105f,2024-02-18_23h10.50.189,kallum_motion_pilot,2023.2.2,Win32,60.24096386,6163383249e8518fc08e105f,65d2b6c8f2eece985d8e374c,65d2b8013d1e491d72e7ec04,0.0392,0.0394,0,14,14,149,1,seveneight,,,,,,,,,,,,,,,,,,,,,,,,,,,,,,,,,,,,,,,,,,,,,,,,,,,,,,,,,,,,,,,,,,,,,,,,,,,,,,,,,,,,,,,,,,,,,,,,,,,,,,,,,,,,,,,,,,,,,,,,,,,,,,,,,,,,,,,,,
,,6163383249e8518fc08e105f,2024-02-18_23h10.50.189,kallum_motion_pilot,2023.2.2,Win32,60.24096386,6163383249e8518fc08e105f,65d2b6c8f2eece985d8e374c,65d2b8013d1e491d72e7ec04,0.0394,0.0394,0,15,15,40,1,onetwo,,,,,,,,,,,,,,,,,,,,,,,,,,,,,,,,,,,,,,,,,,,,,,,,,,,,,,,,,,,,,,,,,,,,,,,,,,,,,,,,,,,,,,,,,,,,,,,,,,,,,,,,,,,,,,,,,,,,,,,,,,,,,,,,,,,,,,,,,
,,6163383249e8518fc08e105f,2024-02-18_23h10.50.189,kallum_motion_pilot,2023.2.2,Win32,60.24096386,6163383249e8518fc08e105f,65d2b6c8f2eece985d8e374c,65d2b8013d1e491d72e7ec04,0.0396,0.0397,0,16,16,161,1,fiveseven,,,,,,,,,,,,,,,,,,,,,,,,,,,,,,,,,,,,,,,,,,,,,,,,,,,,,,,,,,,,,,,,,,,,,,,,,,,,,,,,,,,,,,,,,,,,,,,,,,,,,,,,,,,,,,,,,,,,,,,,,,,,,,,,,,,,,,,,,
,,6163383249e8518fc08e105f,2024-02-18_23h10.50.189,kallum_motion_pilot,2023.2.2,Win32,60.24096386,6163383249e8518fc08e105f,65d2b6c8f2eece985d8e374c,65d2b8013d1e491d72e7ec04,0.0398,0.0398,0,17,17,104,1,fivesix,,,,,,,,,,,,,,,,,,,,,,,,,,,,,,,,,,,,,,,,,,,,,,,,,,,,,,,,,,,,,,,,,,,,,,,,,,,,,,,,,,,,,,,,,,,,,,,,,,,,,,,,,,,,,,,,,,,,,,,,,,,,,,,,,,,,,,,,,
,,6163383249e8518fc08e105f,2024-02-18_23h10.50.189,kallum_motion_pilot,2023.2.2,Win32,60.24096386,6163383249e8518fc08e105f,65d2b6c8f2eece985d8e374c,65d2b8013d1e491d72e7ec04,0.0399,0.04,0,18,18,62,1,fourtwo,,,,,,,,,,,,,,,,,,,,,,,,,,,,,,,,,,,,,,,,,,,,,,,,,,,,,,,,,,,,,,,,,,,,,,,,,,,,,,,,,,,,,,,,,,,,,,,,,,,,,,,,,,,,,,,,,,,,,,,,,,,,,,,,,,,,,,,,,
,,6163383249e8518fc08e105f,2024-02-18_23h10.50.189,kallum_motion_pilot,2023.2.2,Win32,60.24096386,6163383249e8518fc08e105f,65d2b6c8f2eece985d8e374c,65d2b8013d1e491d72e7ec04,0.0401,0.0401,0,19,19,73,1,onethree,,,,,,,,,,,,,,,,,,,,,,,,,,,,,,,,,,,,,,,,,,,,,,,,,,,,,,,,,,,,,,,,,,,,,,,,,,,,,,,,,,,,,,,,,,,,,,,,,,,,,,,,,,,,,,,,,,,,,,,,,,,,,,,,,,,,,,,,,
,,6163383249e8518fc08e105f,2024-02-18_23h10.50.189,kallum_motion_pilot,2023.2.2,Win32,60.24096386,6163383249e8518fc08e105f,65d2b6c8f2eece985d8e374c,65d2b8013d1e491d72e7ec04,0.0403,0.0403,0,20,20,108,1,sevenfive,,,,,,,,,,,,,,,,,,,,,,,,,,,,,,,,,,,,,,,,,,,,,,,,,,,,,,,,,,,,,,,,,,,,,,,,,,,,,,,,,,,,,,,,,,,,,,,,,,,,,,,,,,,,,,,,,,,,,,,,,,,,,,,,,,,,,,,,,
,,6163383249e8518fc08e105f,2024-02-18_23h10.50.189,kallum_motion_pilot,2023.2.2,Win32,60.24096386,6163383249e8518fc08e105f,65d2b6c8f2eece985d8e374c,65d2b8013d1e491d72e7ec04,0.0404,0.0404,0,21,21,74,1,twoone,,,,,,,,,,,,,,,,,,,,,,,,,,,,,,,,,,,,,,,,,,,,,,,,,,,,,,,,,,,,,,,,,,,,,,,,,,,,,,,,,,,,,,,,,,,,,,,,,,,,,,,,,,,,,,,,,,,,,,,,,,,,,,,,,,,,,,,,,
,,6163383249e8518fc08e105f,2024-02-18_23h10.50.189,kallum_motion_pilot,2023.2.2,Win32,60.24096386,6163383249e8518fc08e105f,65d2b6c8f2eece985d8e374c,65d2b8013d1e491d72e7ec04,0.0405,0.0406,0,22,22,49,1,onethree,,,,,,,,,,,,,,,,,,,,,,,,,,,,,,,,,,,,,,,,,,,,,,,,,,,,,,,,,,,,,,,,,,,,,,,,,,,,,,,,,,,,,,,,,,,,,,,,,,,,,,,,,,,,,,,,,,,,,,,,,,,,,,,,,,,,,,,,,
,,6163383249e8518fc08e105f,2024-02-18_23h10.50.189,kallum_motion_pilot,2023.2.2,Win32,60.24096386,6163383249e8518fc08e105f,65d2b6c8f2eece985d8e374c,65d2b8013d1e491d72e7ec04,0.0407,0.0408,0,23,23,2,1,twoone,,,,,,,,,,,,,,,,,,,,,,,,,,,,,,,,,,,,,,,,,,,,,,,,,,,,,,,,,,,,,,,,,,,,,,,,,,,,,,,,,,,,,,,,,,,,,,,,,,,,,,,,,,,,,,,,,,,,,,,,,,,,,,,,,,,,,,,,,
,,6163383249e8518fc08e105f,2024-02-18_23h10.50.189,kallum_motion_pilot,2023.2.2,Win32,60.24096386,6163383249e8518fc08e105f,65d2b6c8f2eece985d8e374c,65d2b8013d1e491d72e7ec04,0.0409,0.0411,0,24,24,20,1,threeone,,,,,,,,,,,,,,,,,,,,,,,,,,,,,,,,,,,,,,,,,,,,,,,,,,,,,,,,,,,,,,,,,,,,,,,,,,,,,,,,,,,,,,,,,,,,,,,,,,,,,,,,,,,,,,,,,,,,,,,,,,,,,,,,,,,,,,,,,
,,6163383249e8518fc08e105f,2024-02-18_23h10.50.189,kallum_motion_pilot,2023.2.2,Win32,60.24096386,6163383249e8518fc08e105f,65d2b6c8f2eece985d8e374c,65d2b8013d1e491d72e7ec04,0.0412,0.0413,0,25,25,7,1,fourthree,,,,,,,,,,,,,,,,,,,,,,,,,,,,,,,,,,,,,,,,,,,,,,,,,,,,,,,,,,,,,,,,,,,,,,,,,,,,,,,,,,,,,,,,,,,,,,,,,,,,,,,,,,,,,,,,,,,,,,,,,,,,,,,,,,,,,,,,,
,,6163383249e8518fc08e105f,2024-02-18_23h10.50.189,kallum_motion_pilot,2023.2.2,Win32,60.24096386,6163383249e8518fc08e105f,65d2b6c8f2eece985d8e374c,65d2b8013d1e491d72e7ec04,0.0415,0.0416,0,26,26,66,1,twoone,,,,,,,,,,,,,,,,,,,,,,,,,,,,,,,,,,,,,,,,,,,,,,,,,,,,,,,,,,,,,,,,,,,,,,,,,,,,,,,,,,,,,,,,,,,,,,,,,,,,,,,,,,,,,,,,,,,,,,,,,,,,,,,,,,,,,,,,,
,,6163383249e8518fc08e105f,2024-02-18_23h10.50.189,kallum_motion_pilot,2023.2.2,Win32,60.24096386,6163383249e8518fc08e105f,65d2b6c8f2eece985d8e374c,65d2b8013d1e491d72e7ec04,0.0418,0.0418,0,27,27,58,1,twoone,,,,,,,,,,,,,,,,,,,,,,,,,,,,,,,,,,,,,,,,,,,,,,,,,,,,,,,,,,,,,,,,,,,,,,,,,,,,,,,,,,,,,,,,,,,,,,,,,,,,,,,,,,,,,,,,,,,,,,,,,,,,,,,,,,,,,,,,,
,,6163383249e8518fc08e105f,2024-02-18_23h10.50.189,kallum_motion_pilot,2023.2.2,Win32,60.24096386,6163383249e8518fc08e105f,65d2b6c8f2eece985d8e374c,65d2b8013d1e491d72e7ec04,0.0419,0.0421,0,28,28,68,1,threeone,,,,,,,,,,,,,,,,,,,,,,,,,,,,,,,,,,,,,,,,,,,,,,,,,,,,,,,,,,,,,,,,,,,,,,,,,,,,,,,,,,,,,,,,,,,,,,,,,,,,,,,,,,,,,,,,,,,,,,,,,,,,,,,,,,,,,,,,,
,,6163383249e8518fc08e105f,2024-02-18_23h10.50.189,kallum_motion_pilot,2023.2.2,Win32,60.24096386,6163383249e8518fc08e105f,65d2b6c8f2eece985d8e374c,65d2b8013d1e491d72e7ec04,0.0422,0.0422,0,29,29,112,1,fivesix,,,,,,,,,,,,,,,,,,,,,,,,,,,,,,,,,,,,,,,,,,,,,,,,,,,,,,,,,,,,,,,,,,,,,,,,,,,,,,,,,,,,,,,,,,,,,,,,,,,,,,,,,,,,,,,,,,,,,,,,,,,,,,,,,,,,,,,,,
,,6163383249e8518fc08e105f,2024-02-18_23h10.50.189,kallum_motion_pilot,2023.2.2,Win32,60.24096386,6163383249e8518fc08e105f,65d2b6c8f2eece985d8e374c,65d2b8013d1e491d72e7ec04,0.0423,0.0424,0,30,30,147,1,sixeight,,,,,,,,,,,,,,,,,,,,,,,,,,,,,,,,,,,,,,,,,,,,,,,,,,,,,,,,,,,,,,,,,,,,,,,,,,,,,,,,,,,,,,,,,,,,,,,,,,,,,,,,,,,,,,,,,,,,,,,,,,,,,,,,,,,,,,,,,
,,6163383249e8518fc08e105f,2024-02-18_23h10.50.189,kallum_motion_pilot,2023.2.2,Win32,60.24096386,6163383249e8518fc08e105f,65d2b6c8f2eece985d8e374c,65d2b8013d1e491d72e7ec04,0.0425,0.0425,0,31,31,142,1,eightsix,,,,,,,,,,,,,,,,,,,,,,,,,,,,,,,,,,,,,,,,,,,,,,,,,,,,,,,,,,,,,,,,,,,,,,,,,,,,,,,,,,,,,,,,,,,,,,,,,,,,,,,,,,,,,,,,,,,,,,,,,,,,,,,,,,,,,,,,,
,,6163383249e8518fc08e105f,2024-02-18_23h10.50.189,kallum_motion_pilot,2023.2.2,Win32,60.24096386,6163383249e8518fc08e105f,65d2b6c8f2eece985d8e374c,65d2b8013d1e491d72e7ec04,0.0427,0.0428,0,32,32,145,1,fiveseven,,,,,,,,,,,,,,,,,,,,,,,,,,,,,,,,,,,,,,,,,,,,,,,,,,,,,,,,,,,,,,,,,,,,,,,,,,,,,,,,,,,,,,,,,,,,,,,,,,,,,,,,,,,,,,,,,,,,,,,,,,,,,,,,,,,,,,,,,
,,6163383249e8518fc08e105f,2024-02-18_23h10.50.189,kallum_motion_pilot,2023.2.2,Win32,60.24096386,6163383249e8518fc08e105f,65d2b6c8f2eece985d8e374c,65d2b8013d1e491d72e7ec04,0.0429,0.043,0,33,33,158,1,eightsix,,,,,,,,,,,,,,,,,,,,,,,,,,,,,,,,,,,,,,,,,,,,,,,,,,,,,,,,,,,,,,,,,,,,,,,,,,,,,,,,,,,,,,,,,,,,,,,,,,,,,,,,,,,,,,,,,,,,,,,,,,,,,,,,,,,,,,,,,
,,6163383249e8518fc08e105f,2024-02-18_23h10.50.189,kallum_motion_pilot,2023.2.2,Win32,60.24096386,6163383249e8518fc08e105f,65d2b6c8f2eece985d8e374c,65d2b8013d1e491d72e7ec04,0.043,0.0432,0,34,34,30,1,fourtwo,,,,,,,,,,,,,,,,,,,,,,,,,,,,,,,,,,,,,,,,,,,,,,,,,,,,,,,,,,,,,,,,,,,,,,,,,,,,,,,,,,,,,,,,,,,,,,,,,,,,,,,,,,,,,,,,,,,,,,,,,,,,,,,,,,,,,,,,,
,,6163383249e8518fc08e105f,2024-02-18_23h10.50.189,kallum_motion_pilot,2023.2.2,Win32,60.24096386,6163383249e8518fc08e105f,65d2b6c8f2eece985d8e374c,65d2b8013d1e491d72e7ec04,0.0432,0.0432,0,35,35,55,1,fourthree,,,,,,,,,,,,,,,,,,,,,,,,,,,,,,,,,,,,,,,,,,,,,,,,,,,,,,,,,,,,,,,,,,,,,,,,,,,,,,,,,,,,,,,,,,,,,,,,,,,,,,,,,,,,,,,,,,,,,,,,,,,,,,,,,,,,,,,,,
,,6163383249e8518fc08e105f,2024-02-18_23h10.50.189,kallum_motion_pilot,2023.2.2,Win32,60.24096386,6163383249e8518fc08e105f,65d2b6c8f2eece985d8e374c,65d2b8013d1e491d72e7ec04,0.0434,0.0434,0,36,36,94,1,eightsix,,,,,,,,,,,,,,,,,,,,,,,,,,,,,,,,,,,,,,,,,,,,,,,,,,,,,,,,,,,,,,,,,,,,,,,,,,,,,,,,,,,,,,,,,,,,,,,,,,,,,,,,,,,,,,,,,,,,,,,,,,,,,,,,,,,,,,,,,
,,6163383249e8518fc08e105f,2024-02-18_23h10.50.189,kallum_motion_pilot,2023.2.2,Win32,60.24096386,6163383249e8518fc08e105f,65d2b6c8f2eece985d8e374c,65d2b8013d1e491d72e7ec04,0.0436,0.0437,0,37,37,53,1,threefour,,,,,,,,,,,,,,,,,,,,,,,,,,,,,,,,,,,,,,,,,,,,,,,,,,,,,,,,,,,,,,,,,,,,,,,,,,,,,,,,,,,,,,,,,,,,,,,,,,,,,,,,,,,,,,,,,,,,,,,,,,,,,,,,,,,,,,,,,
,,6163383249e8518fc08e105f,2024-02-18_23h10.50.189,kallum_motion_pilot,2023.2.2,Win32,60.24096386,6163383249e8518fc08e105f,65d2b6c8f2eece985d8e374c,65d2b8013d1e491d72e7ec04,0.0437,0.0438,0,38,38,153,1,fiveseven,,,,,,,,,,,,,,,,,,,,,,,,,,,,,,,,,,,,,,,,,,,,,,,,,,,,,,,,,,,,,,,,,,,,,,,,,,,,,,,,,,,,,,,,,,,,,,,,,,,,,,,,,,,,,,,,,,,,,,,,,,,,,,,,,,,,,,,,,
,,6163383249e8518fc08e105f,2024-02-18_23h10.50.189,kallum_motion_pilot,2023.2.2,Win32,60.24096386,6163383249e8518fc08e105f,65d2b6c8f2eece985d8e374c,65d2b8013d1e491d72e7ec04,0.044,0.044,0,39,39,42,1,twoone,,,,,,,,,,,,,,,,,,,,,,,,,,,,,,,,,,,,,,,,,,,,,,,,,,,,,,,,,,,,,,,,,,,,,,,,,,,,,,,,,,,,,,,,,,,,,,,,,,,,,,,,,,,,,,,,,,,,,,,,,,,,,,,,,,,,,,,,,
,,6163383249e8518fc08e105f,2024-02-18_23h10.50.189,kallum_motion_pilot,2023.2.2,Win32,60.24096386,6163383249e8518fc08e105f,65d2b6c8f2eece985d8e374c,65d2b8013d1e491d72e7ec04,0.0442,0.0444,0,40,40,63,1,fourthree,,,,,,,,,,,,,,,,,,,,,,,,,,,,,,,,,,,,,,,,,,,,,,,,,,,,,,,,,,,,,,,,,,,,,,,,,,,,,,,,,,,,,,,,,,,,,,,,,,,,,,,,,,,,,,,,,,,,,,,,,,,,,,,,,,,,,,,,,
,,6163383249e8518fc08e105f,2024-02-18_23h10.50.189,kallum_motion_pilot,2023.2.2,Win32,60.24096386,6163383249e8518fc08e105f,65d2b6c8f2eece985d8e374c,65d2b8013d1e491d72e7ec04,0.0445,0.0445,0,41,41,119,1,eightseven,,,,,,,,,,,,,,,,,,,,,,,,,,,,,,,,,,,,,,,,,,,,,,,,,,,,,,,,,,,,,,,,,,,,,,,,,,,,,,,,,,,,,,,,,,,,,,,,,,,,,,,,,,,,,,,,,,,,,,,,,,,,,,,,,,,,,,,,,
,,6163383249e8518fc08e105f,2024-02-18_23h10.50.189,kallum_motion_pilot,2023.2.2,Win32,60.24096386,6163383249e8518fc08e105f,65d2b6c8f2eece985d8e374c,65d2b8013d1e491d72e7ec04,0.0447,0.0448,0,42,42,100,1,sevenfive,,,,,,,,,,,,,,,,,,,,,,,,,,,,,,,,,,,,,,,,,,,,,,,,,,,,,,,,,,,,,,,,,,,,,,,,,,,,,,,,,,,,,,,,,,,,,,,,,,,,,,,,,,,,,,,,,,,,,,,,,,,,,,,,,,,,,,,,,
,,6163383249e8518fc08e105f,2024-02-18_23h10.50.189,kallum_motion_pilot,2023.2.2,Win32,60.24096386,6163383249e8518fc08e105f,65d2b6c8f2eece985d8e374c,65d2b8013d1e491d72e7ec04,0.0449,0.0449,0,43,43,122,1,sixfive,,,,,,,,,,,,,,,,,,,,,,,,,,,,,,,,,,,,,,,,,,,,,,,,,,,,,,,,,,,,,,,,,,,,,,,,,,,,,,,,,,,,,,,,,,,,,,,,,,,,,,,,,,,,,,,,,,,,,,,,,,,,,,,,,,,,,,,,,
,,6163383249e8518fc08e105f,2024-02-18_23h10.50.189,kallum_motion_pilot,2023.2.2,Win32,60.24096386,6163383249e8518fc08e105f,65d2b6c8f2eece985d8e374c,65d2b8013d1e491d72e7ec04,0.045,0.0451,0,44,44,109,1,seveneight,,,,,,,,,,,,,,,,,,,,,,,,,,,,,,,,,,,,,,,,,,,,,,,,,,,,,,,,,,,,,,,,,,,,,,,,,,,,,,,,,,,,,,,,,,,,,,,,,,,,,,,,,,,,,,,,,,,,,,,,,,,,,,,,,,,,,,,,,
,,6163383249e8518fc08e105f,2024-02-18_23h10.50.189,kallum_motion_pilot,2023.2.2,Win32,60.24096386,6163383249e8518fc08e105f,65d2b6c8f2eece985d8e374c,65d2b8013d1e491d72e7ec04,0.0453,0.0453,0,45,45,29,1,threefour,,,,,,,,,,,,,,,,,,,,,,,,,,,,,,,,,,,,,,,,,,,,,,,,,,,,,,,,,,,,,,,,,,,,,,,,,,,,,,,,,,,,,,,,,,,,,,,,,,,,,,,,,,,,,,,,,,,,,,,,,,,,,,,,,,,,,,,,,
,,6163383249e8518fc08e105f,2024-02-18_23h10.50.189,kallum_motion_pilot,2023.2.2,Win32,60.24096386,6163383249e8518fc08e105f,65d2b6c8f2eece985d8e374c,65d2b8013d1e491d72e7ec04,0.0454,0.0454,0,46,46,47,1,fourthree,,,,,,,,,,,,,,,,,,,,,,,,,,,,,,,,,,,,,,,,,,,,,,,,,,,,,,,,,,,,,,,,,,,,,,,,,,,,,,,,,,,,,,,,,,,,,,,,,,,,,,,,,,,,,,,,,,,,,,,,,,,,,,,,,,,,,,,,,
,,6163383249e8518fc08e105f,2024-02-18_23h10.50.189,kallum_motion_pilot,2023.2.2,Win32,60.24096386,6163383249e8518fc08e105f,65d2b6c8f2eece985d8e374c,65d2b8013d1e491d72e7ec04,0.0456,0.0456,0,47,47,11,1,twofour,,,,,,,,,,,,,,,,,,,,,,,,,,,,,,,,,,,,,,,,,,,,,,,,,,,,,,,,,,,,,,,,,,,,,,,,,,,,,,,,,,,,,,,,,,,,,,,,,,,,,,,,,,,,,,,,,,,,,,,,,,,,,,,,,,,,,,,,,
,,6163383249e8518fc08e105f,2024-02-18_23h10.50.189,kallum_motion_pilot,2023.2.2,Win32,60.24096386,6163383249e8518fc08e105f,65d2b6c8f2eece985d8e374c,65d2b8013d1e491d72e7ec04,0.0458,0.0459,0,48,48,44,1,threeone,,,,,,,,,,,,,,,,,,,,,,,,,,,,,,,,,,,,,,,,,,,,,,,,,,,,,,,,,,,,,,,,,,,,,,,,,,,,,,,,,,,,,,,,,,,,,,,,,,,,,,,,,,,,,,,,,,,,,,,,,,,,,,,,,,,,,,,,,
,,6163383249e8518fc08e105f,2024-02-18_23h10.50.189,kallum_motion_pilot,2023.2.2,Win32,60.24096386,6163383249e8518fc08e105f,65d2b6c8f2eece985d8e374c,65d2b8013d1e491d72e7ec04,0.0459,0.0459,0,49,49,103,1,eightseven,,,,,,,,,,,,,,,,,,,,,,,,,,,,,,,,,,,,,,,,,,,,,,,,,,,,,,,,,,,,,,,,,,,,,,,,,,,,,,,,,,,,,,,,,,,,,,,,,,,,,,,,,,,,,,,,,,,,,,,,,,,,,,,,,,,,,,,,,
,,6163383249e8518fc08e105f,2024-02-18_23h10.50.189,kallum_motion_pilot,2023.2.2,Win32,60.24096386,6163383249e8518fc08e105f,65d2b6c8f2eece985d8e374c,65d2b8013d1e491d72e7ec04,0.0461,0.0461,0,50,50,48,1,onetwo,,,,,,,,,,,,,,,,,,,,,,,,,,,,,,,,,,,,,,,,,,,,,,,,,,,,,,,,,,,,,,,,,,,,,,,,,,,,,,,,,,,,,,,,,,,,,,,,,,,,,,,,,,,,,,,,,,,,,,,,,,,,,,,,,,,,,,,,,
,,6163383249e8518fc08e105f,2024-02-18_23h10.50.189,kallum_motion_pilot,2023.2.2,Win32,60.24096386,6163383249e8518fc08e105f,65d2b6c8f2eece985d8e374c,65d2b8013d1e491d72e7ec04,0.0462,0.0464,0,51,51,56,1,onetwo,,,,,,,,,,,,,,,,,,,,,,,,,,,,,,,,,,,,,,,,,,,,,,,,,,,,,,,,,,,,,,,,,,,,,,,,,,,,,,,,,,,,,,,,,,,,,,,,,,,,,,,,,,,,,,,,,,,,,,,,,,,,,,,,,,,,,,,,,
,,6163383249e8518fc08e105f,2024-02-18_23h10.50.189,kallum_motion_pilot,2023.2.2,Win32,60.24096386,6163383249e8518fc08e105f,65d2b6c8f2eece985d8e374c,65d2b8013d1e491d72e7ec04,0.0464,0.0465,0,52,52,138,1,sixfive,,,,,,,,,,,,,,,,,,,,,,,,,,,,,,,,,,,,,,,,,,,,,,,,,,,,,,,,,,,,,,,,,,,,,,,,,,,,,,,,,,,,,,,,,,,,,,,,,,,,,,,,,,,,,,,,,,,,,,,,,,,,,,,,,,,,,,,,,
,,6163383249e8518fc08e105f,2024-02-18_23h10.50.189,kallum_motion_pilot,2023.2.2,Win32,60.24096386,6163383249e8518fc08e105f,65d2b6c8f2eece985d8e374c,65d2b8013d1e491d72e7ec04,0.0467,0.0467,0,53,53,148,1,sevenfive,,,,,,,,,,,,,,,,,,,,,,,,,,,,,,,,,,,,,,,,,,,,,,,,,,,,,,,,,,,,,,,,,,,,,,,,,,,,,,,,,,,,,,,,,,,,,,,,,,,,,,,,,,,,,,,,,,,,,,,,,,,,,,,,,,,,,,,,,
,,6163383249e8518fc08e105f,2024-02-18_23h10.50.189,kallum_motion_pilot,2023.2.2,Win32,60.24096386,6163383249e8518fc08e105f,65d2b6c8f2eece985d8e374c,65d2b8013d1e491d72e7ec04,0.0468,0.0469,0,54,54,155,1,sixeight,,,,,,,,,,,,,,,,,,,,,,,,,,,,,,,,,,,,,,,,,,,,,,,,,,,,,,,,,,,,,,,,,,,,,,,,,,,,,,,,,,,,,,,,,,,,,,,,,,,,,,,,,,,,,,,,,,,,,,,,,,,,,,,,,,,,,,,,,
,,6163383249e8518fc08e105f,2024-02-18_23h10.50.189,kallum_motion_pilot,2023.2.2,Win32,60.24096386,6163383249e8518fc08e105f,65d2b6c8f2eece985d8e374c,65d2b8013d1e491d72e7ec04,0.047,0.047,0,55,55,60,1,threeone,,,,,,,,,,,,,,,,,,,,,,,,,,,,,,,,,,,,,,,,,,,,,,,,,,,,,,,,,,,,,,,,,,,,,,,,,,,,,,,,,,,,,,,,,,,,,,,,,,,,,,,,,,,,,,,,,,,,,,,,,,,,,,,,,,,,,,,,,
,,6163383249e8518fc08e105f,2024-02-18_23h10.50.189,kallum_motion_pilot,2023.2.2,Win32,60.24096386,6163383249e8518fc08e105f,65d2b6c8f2eece985d8e374c,65d2b8013d1e491d72e7ec04,0.0471,0.0475,0,56,56,21,1,threefour,,,,,,,,,,,,,,,,,,,,,,,,,,,,,,,,,,,,,,,,,,,,,,,,,,,,,,,,,,,,,,,,,,,,,,,,,,,,,,,,,,,,,,,,,,,,,,,,,,,,,,,,,,,,,,,,,,,,,,,,,,,,,,,,,,,,,,,,,
,,6163383249e8518fc08e105f,2024-02-18_23h10.50.189,kallum_motion_pilot,2023.2.2,Win32,60.24096386,6163383249e8518fc08e105f,65d2b6c8f2eece985d8e374c,65d2b8013d1e491d72e7ec04,0.0479,0.048,0,57,57,76,1,threeone,,,,,,,,,,,,,,,,,,,,,,,,,,,,,,,,,,,,,,,,,,,,,,,,,,,,,,,,,,,,,,,,,,,,,,,,,,,,,,,,,,,,,,,,,,,,,,,,,,,,,,,,,,,,,,,,,,,,,,,,,,,,,,,,,,,,,,,,,
,,6163383249e8518fc08e105f,2024-02-18_23h10.50.189,kallum_motion_pilot,2023.2.2,Win32,60.24096386,6163383249e8518fc08e105f,65d2b6c8f2eece985d8e374c,65d2b8013d1e491d72e7ec04,0.0485,0.0486,0,58,58,25,1,onethree,,,,,,,,,,,,,,,,,,,,,,,,,,,,,,,,,,,,,,,,,,,,,,,,,,,,,,,,,,,,,,,,,,,,,,,,,,,,,,,,,,,,,,,,,,,,,,,,,,,,,,,,,,,,,,,,,,,,,,,,,,,,,,,,,,,,,,,,,
,,6163383249e8518fc08e105f,2024-02-18_23h10.50.189,kallum_motion_pilot,2023.2.2,Win32,60.24096386,6163383249e8518fc08e105f,65d2b6c8f2eece985d8e374c,65d2b8013d1e491d72e7ec04,0.0488,0.049,0,59,59,127,1,eightseven,,,,,,,,,,,,,,,,,,,,,,,,,,,,,,,,,,,,,,,,,,,,,,,,,,,,,,,,,,,,,,,,,,,,,,,,,,,,,,,,,,,,,,,,,,,,,,,,,,,,,,,,,,,,,,,,,,,,,,,,,,,,,,,,,,,,,,,,,
,,6163383249e8518fc08e105f,2024-02-18_23h10.50.189,kallum_motion_pilot,2023.2.2,Win32,60.24096386,6163383249e8518fc08e105f,65d2b6c8f2eece985d8e374c,65d2b8013d1e491d72e7ec04,0.0492,0.0493,0,60,60,35,1,twofour,,,,,,,,,,,,,,,,,,,,,,,,,,,,,,,,,,,,,,,,,,,,,,,,,,,,,,,,,,,,,,,,,,,,,,,,,,,,,,,,,,,,,,,,,,,,,,,,,,,,,,,,,,,,,,,,,,,,,,,,,,,,,,,,,,,,,,,,,
,,6163383249e8518fc08e105f,2024-02-18_23h10.50.189,kallum_motion_pilot,2023.2.2,Win32,60.24096386,6163383249e8518fc08e105f,65d2b6c8f2eece985d8e374c,65d2b8013d1e491d72e7ec04,0.0495,0.0495,0,61,61,84,1,sevenfive,,,,,,,,,,,,,,,,,,,,,,,,,,,,,,,,,,,,,,,,,,,,,,,,,,,,,,,,,,,,,,,,,,,,,,,,,,,,,,,,,,,,,,,,,,,,,,,,,,,,,,,,,,,,,,,,,,,,,,,,,,,,,,,,,,,,,,,,,
,,6163383249e8518fc08e105f,2024-02-18_23h10.50.189,kallum_motion_pilot,2023.2.2,Win32,60.24096386,6163383249e8518fc08e105f,65d2b6c8f2eece985d8e374c,65d2b8013d1e491d72e7ec04,0.0496,0.0497,0,62,62,105,1,fiveseven,,,,,,,,,,,,,,,,,,,,,,,,,,,,,,,,,,,,,,,,,,,,,,,,,,,,,,,,,,,,,,,,,,,,,,,,,,,,,,,,,,,,,,,,,,,,,,,,,,,,,,,,,,,,,,,,,,,,,,,,,,,,,,,,,,,,,,,,,
,,6163383249e8518fc08e105f,2024-02-18_23h10.50.189,kallum_motion_pilot,2023.2.2,Win32,60.24096386,6163383249e8518fc08e105f,65d2b6c8f2eece985d8e374c,65d2b8013d1e491d72e7ec04,0.0499,0.0501,0,63,63,141,1,seveneight,,,,,,,,,,,,,,,,,,,,,,,,,,,,,,,,,,,,,,,,,,,,,,,,,,,,,,,,,,,,,,,,,,,,,,,,,,,,,,,,,,,,,,,,,,,,,,,,,,,,,,,,,,,,,,,,,,,,,,,,,,,,,,,,,,,,,,,,,
,,6163383249e8518fc08e105f,2024-02-18_23h10.50.189,kallum_motion_pilot,2023.2.2,Win32,60.24096386,6163383249e8518fc08e105f,65d2b6c8f2eece985d8e374c,65d2b8013d1e491d72e7ec04,0.0503,0.0503,0,64,64,79,1,eightseven,,,,,,,,,,,,,,,,,,,,,,,,,,,,,,,,,,,,,,,,,,,,,,,,,,,,,,,,,,,,,,,,,,,,,,,,,,,,,,,,,,,,,,,,,,,,,,,,,,,,,,,,,,,,,,,,,,,,,,,,,,,,,,,,,,,,,,,,,
,,6163383249e8518fc08e105f,2024-02-18_23h10.50.189,kallum_motion_pilot,2023.2.2,Win32,60.24096386,6163383249e8518fc08e105f,65d2b6c8f2eece985d8e374c,65d2b8013d1e491d72e7ec04,0.0506,0.0506,0,65,65,128,1,fivesix,,,,,,,,,,,,,,,,,,,,,,,,,,,,,,,,,,,,,,,,,,,,,,,,,,,,,,,,,,,,,,,,,,,,,,,,,,,,,,,,,,,,,,,,,,,,,,,,,,,,,,,,,,,,,,,,,,,,,,,,,,,,,,,,,,,,,,,,,
,,6163383249e8518fc08e105f,2024-02-18_23h10.50.189,kallum_motion_pilot,2023.2.2,Win32,60.24096386,6163383249e8518fc08e105f,65d2b6c8f2eece985d8e374c,65d2b8013d1e491d72e7ec04,0.0507,0.0508,0,66,66,39,1,fourthree,,,,,,,,,,,,,,,,,,,,,,,,,,,,,,,,,,,,,,,,,,,,,,,,,,,,,,,,,,,,,,,,,,,,,,,,,,,,,,,,,,,,,,,,,,,,,,,,,,,,,,,,,,,,,,,,,,,,,,,,,,,,,,,,,,,,,,,,,
,,6163383249e8518fc08e105f,2024-02-18_23h10.50.189,kallum_motion_pilot,2023.2.2,Win32,60.24096386,6163383249e8518fc08e105f,65d2b6c8f2eece985d8e374c,65d2b8013d1e491d72e7ec04,0.051,0.0512,0,67,67,33,1,onethree,,,,,,,,,,,,,,,,,,,,,,,,,,,,,,,,,,,,,,,,,,,,,,,,,,,,,,,,,,,,,,,,,,,,,,,,,,,,,,,,,,,,,,,,,,,,,,,,,,,,,,,,,,,,,,,,,,,,,,,,,,,,,,,,,,,,,,,,,
,,6163383249e8518fc08e105f,2024-02-18_23h10.50.189,kallum_motion_pilot,2023.2.2,Win32,60.24096386,6163383249e8518fc08e105f,65d2b6c8f2eece985d8e374c,65d2b8013d1e491d72e7ec04,0.0513,0.0513,0,68,68,156,1,sevenfive,,,,,,,,,,,,,,,,,,,,,,,,,,,,,,,,,,,,,,,,,,,,,,,,,,,,,,,,,,,,,,,,,,,,,,,,,,,,,,,,,,,,,,,,,,,,,,,,,,,,,,,,,,,,,,,,,,,,,,,,,,,,,,,,,,,,,,,,,
,,6163383249e8518fc08e105f,2024-02-18_23h10.50.189,kallum_motion_pilot,2023.2.2,Win32,60.24096386,6163383249e8518fc08e105f,65d2b6c8f2eece985d8e374c,65d2b8013d1e491d72e7ec04,0.0516,0.0518,0,69,69,116,1,sevenfive,,,,,,,,,,,,,,,,,,,,,,,,,,,,,,,,,,,,,,,,,,,,,,,,,,,,,,,,,,,,,,,,,,,,,,,,,,,,,,,,,,,,,,,,,,,,,,,,,,,,,,,,,,,,,,,,,,,,,,,,,,,,,,,,,,,,,,,,,
,,6163383249e8518fc08e105f,2024-02-18_23h10.50.189,kallum_motion_pilot,2023.2.2,Win32,60.24096386,6163383249e8518fc08e105f,65d2b6c8f2eece985d8e374c,65d2b8013d1e491d72e7ec04,0.0519,0.052,0,70,70,151,1,eightseven,,,,,,,,,,,,,,,,,,,,,,,,,,,,,,,,,,,,,,,,,,,,,,,,,,,,,,,,,,,,,,,,,,,,,,,,,,,,,,,,,,,,,,,,,,,,,,,,,,,,,,,,,,,,,,,,,,,,,,,,,,,,,,,,,,,,,,,,,
,,6163383249e8518fc08e105f,2024-02-18_23h10.50.189,kallum_motion_pilot,2023.2.2,Win32,60.24096386,6163383249e8518fc08e105f,65d2b6c8f2eece985d8e374c,65d2b8013d1e491d72e7ec04,0.0521,0.0522,0,71,71,75,1,twofour,,,,,,,,,,,,,,,,,,,,,,,,,,,,,,,,,,,,,,,,,,,,,,,,,,,,,,,,,,,,,,,,,,,,,,,,,,,,,,,,,,,,,,,,,,,,,,,,,,,,,,,,,,,,,,,,,,,,,,,,,,,,,,,,,,,,,,,,,
,,6163383249e8518fc08e105f,2024-02-18_23h10.50.189,kallum_motion_pilot,2023.2.2,Win32,60.24096386,6163383249e8518fc08e105f,65d2b6c8f2eece985d8e374c,65d2b8013d1e491d72e7ec04,0.0524,0.0524,0,72,72,38,1,fourtwo,,,,,,,,,,,,,,,,,,,,,,,,,,,,,,,,,,,,,,,,,,,,,,,,,,,,,,,,,,,,,,,,,,,,,,,,,,,,,,,,,,,,,,,,,,,,,,,,,,,,,,,,,,,,,,,,,,,,,,,,,,,,,,,,,,,,,,,,,
,,6163383249e8518fc08e105f,2024-02-18_23h10.50.189,kallum_motion_pilot,2023.2.2,Win32,60.24096386,6163383249e8518fc08e105f,65d2b6c8f2eece985d8e374c,65d2b8013d1e491d72e7ec04,0.0526,0.0526,0,73,73,106,1,sixfive,,,,,,,,,,,,,,,,,,,,,,,,,,,,,,,,,,,,,,,,,,,,,,,,,,,,,,,,,,,,,,,,,,,,,,,,,,,,,,,,,,,,,,,,,,,,,,,,,,,,,,,,,,,,,,,,,,,,,,,,,,,,,,,,,,,,,,,,,
,,6163383249e8518fc08e105f,2024-02-18_23h10.50.189,kallum_motion_pilot,2023.2.2,Win32,60.24096386,6163383249e8518fc08e105f,65d2b6c8f2eece985d8e374c,65d2b8013d1e491d72e7ec04,0.0529,0.0529,0,74,74,16,1,onetwo,,,,,,,,,,,,,,,,,,,,,,,,,,,,,,,,,,,,,,,,,,,,,,,,,,,,,,,,,,,,,,,,,,,,,,,,,,,,,,,,,,,,,,,,,,,,,,,,,,,,,,,,,,,,,,,,,,,,,,,,,,,,,,,,,,,,,,,,,
,,6163383249e8518fc08e105f,2024-02-18_23h10.50.189,kallum_motion_pilot,2023.2.2,Win32,60.24096386,6163383249e8518fc08e105f,65d2b6c8f2eece985d8e374c,65d2b8013d1e491d72e7ec04,0.0531,0.0531,0,75,75,143,1,eightseven,,,,,,,,,,,,,,,,,,,,,,,,,,,,,,,,,,,,,,,,,,,,,,,,,,,,,,,,,,,,,,,,,,,,,,,,,,,,,,,,,,,,,,,,,,,,,,,,,,,,,,,,,,,,,,,,,,,,,,,,,,,,,,,,,,,,,,,,,
,,6163383249e8518fc08e105f,2024-02-18_23h10.50.189,kallum_motion_pilot,2023.2.2,Win32,60.24096386,6163383249e8518fc08e105f,65d2b6c8f2eece985d8e374c,65d2b8013d1e491d72e7ec04,0.0533,0.0533,0,76,76,135,1,eightseven,,,,,,,,,,,,,,,,,,,,,,,,,,,,,,,,,,,,,,,,,,,,,,,,,,,,,,,,,,,,,,,,,,,,,,,,,,,,,,,,,,,,,,,,,,,,,,,,,,,,,,,,,,,,,,,,,,,,,,,,,,,,,,,,,,,,,,,,,
,,6163383249e8518fc08e105f,2024-02-18_23h10.50.189,kallum_motion_pilot,2023.2.2,Win32,60.24096386,6163383249e8518fc08e105f,65d2b6c8f2eece985d8e374c,65d2b8013d1e491d72e7ec04,0.0535,0.0536,0,77,77,86,1,eightsix,,,,,,,,,,,,,,,,,,,,,,,,,,,,,,,,,,,,,,,,,,,,,,,,,,,,,,,,,,,,,,,,,,,,,,,,,,,,,,,,,,,,,,,,,,,,,,,,,,,,,,,,,,,,,,,,,,,,,,,,,,,,,,,,,,,,,,,,,
,,6163383249e8518fc08e105f,2024-02-18_23h10.50.189,kallum_motion_pilot,2023.2.2,Win32,60.24096386,6163383249e8518fc08e105f,65d2b6c8f2eece985d8e374c,65d2b8013d1e491d72e7ec04,0.0536,0.0537,0,78,78,9,1,onethree,,,,,,,,,,,,,,,,,,,,,,,,,,,,,,,,,,,,,,,,,,,,,,,,,,,,,,,,,,,,,,,,,,,,,,,,,,,,,,,,,,,,,,,,,,,,,,,,,,,,,,,,,,,,,,,,,,,,,,,,,,,,,,,,,,,,,,,,,
,,6163383249e8518fc08e105f,2024-02-18_23h10.50.189,kallum_motion_pilot,2023.2.2,Win32,60.24096386,6163383249e8518fc08e105f,65d2b6c8f2eece985d8e374c,65d2b8013d1e491d72e7ec04,0.0539,0.0539,0,79,79,115,1,sixeight,,,,,,,,,,,,,,,,,,,,,,,,,,,,,,,,,,,,,,,,,,,,,,,,,,,,,,,,,,,,,,,,,,,,,,,,,,,,,,,,,,,,,,,,,,,,,,,,,,,,,,,,,,,,,,,,,,,,,,,,,,,,,,,,,,,,,,,,,
,,6163383249e8518fc08e105f,2024-02-18_23h10.50.189,kallum_motion_pilot,2023.2.2,Win32,60.24096386,6163383249e8518fc08e105f,65d2b6c8f2eece985d8e374c,65d2b8013d1e491d72e7ec04,0.054,0.0542,0,80,80,51,1,twofour,,,,,,,,,,,,,,,,,,,,,,,,,,,,,,,,,,,,,,,,,,,,,,,,,,,,,,,,,,,,,,,,,,,,,,,,,,,,,,,,,,,,,,,,,,,,,,,,,,,,,,,,,,,,,,,,,,,,,,,,,,,,,,,,,,,,,,,,,
,,6163383249e8518fc08e105f,2024-02-18_23h10.50.189,kallum_motion_pilot,2023.2.2,Win32,60.24096386,6163383249e8518fc08e105f,65d2b6c8f2eece985d8e374c,65d2b8013d1e491d72e7ec04,0.0543,0.0544,0,81,81,110,1,eightsix,,,,,,,,,,,,,,,,,,,,,,,,,,,,,,,,,,,,,,,,,,,,,,,,,,,,,,,,,,,,,,,,,,,,,,,,,,,,,,,,,,,,,,,,,,,,,,,,,,,,,,,,,,,,,,,,,,,,,,,,,,,,,,,,,,,,,,,,,
,,6163383249e8518fc08e105f,2024-02-18_23h10.50.189,kallum_motion_pilot,2023.2.2,Win32,60.24096386,6163383249e8518fc08e105f,65d2b6c8f2eece985d8e374c,65d2b8013d1e491d72e7ec04,0.0545,0.0546,0,82,82,87,1,eightseven,,,,,,,,,,,,,,,,,,,,,,,,,,,,,,,,,,,,,,,,,,,,,,,,,,,,,,,,,,,,,,,,,,,,,,,,,,,,,,,,,,,,,,,,,,,,,,,,,,,,,,,,,,,,,,,,,,,,,,,,,,,,,,,,,,,,,,,,,
,,6163383249e8518fc08e105f,2024-02-18_23h10.50.189,kallum_motion_pilot,2023.2.2,Win32,60.24096386,6163383249e8518fc08e105f,65d2b6c8f2eece985d8e374c,65d2b8013d1e491d72e7ec04,0.0547,0.0548,0,83,83,131,1,sixeight,,,,,,,,,,,,,,,,,,,,,,,,,,,,,,,,,,,,,,,,,,,,,,,,,,,,,,,,,,,,,,,,,,,,,,,,,,,,,,,,,,,,,,,,,,,,,,,,,,,,,,,,,,,,,,,,,,,,,,,,,,,,,,,,,,,,,,,,,
,,6163383249e8518fc08e105f,2024-02-18_23h10.50.189,kallum_motion_pilot,2023.2.2,Win32,60.24096386,6163383249e8518fc08e105f,65d2b6c8f2eece985d8e374c,65d2b8013d1e491d72e7ec04,0.0549,0.055,0,84,84,61,1,threefour,,,,,,,,,,,,,,,,,,,,,,,,,,,,,,,,,,,,,,,,,,,,,,,,,,,,,,,,,,,,,,,,,,,,,,,,,,,,,,,,,,,,,,,,,,,,,,,,,,,,,,,,,,,,,,,,,,,,,,,,,,,,,,,,,,,,,,,,,
,,6163383249e8518fc08e105f,2024-02-18_23h10.50.189,kallum_motion_pilot,2023.2.2,Win32,60.24096386,6163383249e8518fc08e105f,65d2b6c8f2eece985d8e374c,65d2b8013d1e491d72e7ec04,0.0551,0.0552,0,85,85,130,1,sixfive,,,,,,,,,,,,,,,,,,,,,,,,,,,,,,,,,,,,,,,,,,,,,,,,,,,,,,,,,,,,,,,,,,,,,,,,,,,,,,,,,,,,,,,,,,,,,,,,,,,,,,,,,,,,,,,,,,,,,,,,,,,,,,,,,,,,,,,,,
,,6163383249e8518fc08e105f,2024-02-18_23h10.50.189,kallum_motion_pilot,2023.2.2,Win32,60.24096386,6163383249e8518fc08e105f,65d2b6c8f2eece985d8e374c,65d2b8013d1e491d72e7ec04,0.0553,0.0555,0,86,86,140,1,sevenfive,,,,,,,,,,,,,,,,,,,,,,,,,,,,,,,,,,,,,,,,,,,,,,,,,,,,,,,,,,,,,,,,,,,,,,,,,,,,,,,,,,,,,,,,,,,,,,,,,,,,,,,,,,,,,,,,,,,,,,,,,,,,,,,,,,,,,,,,,
,,6163383249e8518fc08e105f,2024-02-18_23h10.50.189,kallum_motion_pilot,2023.2.2,Win32,60.24096386,6163383249e8518fc08e105f,65d2b6c8f2eece985d8e374c,65d2b8013d1e491d72e7ec04,0.0555,0.0556,0,87,87,91,1,sixeight,,,,,,,,,,,,,,,,,,,,,,,,,,,,,,,,,,,,,,,,,,,,,,,,,,,,,,,,,,,,,,,,,,,,,,,,,,,,,,,,,,,,,,,,,,,,,,,,,,,,,,,,,,,,,,,,,,,,,,,,,,,,,,,,,,,,,,,,,
,,6163383249e8518fc08e105f,2024-02-18_23h10.50.189,kallum_motion_pilot,2023.2.2,Win32,60.24096386,6163383249e8518fc08e105f,65d2b6c8f2eece985d8e374c,65d2b8013d1e491d72e7ec04,0.0557,0.0557,0,88,88,152,1,fivesix,,,,,,,,,,,,,,,,,,,,,,,,,,,,,,,,,,,,,,,,,,,,,,,,,,,,,,,,,,,,,,,,,,,,,,,,,,,,,,,,,,,,,,,,,,,,,,,,,,,,,,,,,,,,,,,,,,,,,,,,,,,,,,,,,,,,,,,,,
,,6163383249e8518fc08e105f,2024-02-18_23h10.50.189,kallum_motion_pilot,2023.2.2,Win32,60.24096386,6163383249e8518fc08e105f,65d2b6c8f2eece985d8e374c,65d2b8013d1e491d72e7ec04,0.0559,0.056,0,89,89,8,1,onetwo,,,,,,,,,,,,,,,,,,,,,,,,,,,,,,,,,,,,,,,,,,,,,,,,,,,,,,,,,,,,,,,,,,,,,,,,,,,,,,,,,,,,,,,,,,,,,,,,,,,,,,,,,,,,,,,,,,,,,,,,,,,,,,,,,,,,,,,,,
,,6163383249e8518fc08e105f,2024-02-18_23h10.50.189,kallum_motion_pilot,2023.2.2,Win32,60.24096386,6163383249e8518fc08e105f,65d2b6c8f2eece985d8e374c,65d2b8013d1e491d72e7ec04,0.0562,0.0562,0,90,90,0,1,onetwo,,,,,,,,,,,,,,,,,,,,,,,,,,,,,,,,,,,,,,,,,,,,,,,,,,,,,,,,,,,,,,,,,,,,,,,,,,,,,,,,,,,,,,,,,,,,,,,,,,,,,,,,,,,,,,,,,,,,,,,,,,,,,,,,,,,,,,,,,
,,6163383249e8518fc08e105f,2024-02-18_23h10.50.189,kallum_motion_pilot,2023.2.2,Win32,60.24096386,6163383249e8518fc08e105f,65d2b6c8f2eece985d8e374c,65d2b8013d1e491d72e7ec04,0.0564,0.0564,0,91,91,22,1,fourtwo,,,,,,,,,,,,,,,,,,,,,,,,,,,,,,,,,,,,,,,,,,,,,,,,,,,,,,,,,,,,,,,,,,,,,,,,,,,,,,,,,,,,,,,,,,,,,,,,,,,,,,,,,,,,,,,,,,,,,,,,,,,,,,,,,,,,,,,,,
,,6163383249e8518fc08e105f,2024-02-18_23h10.50.189,kallum_motion_pilot,2023.2.2,Win32,60.24096386,6163383249e8518fc08e105f,65d2b6c8f2eece985d8e374c,65d2b8013d1e491d72e7ec04,0.0566,0.0567,0,92,92,89,1,fiveseven,,,,,,,,,,,,,,,,,,,,,,,,,,,,,,,,,,,,,,,,,,,,,,,,,,,,,,,,,,,,,,,,,,,,,,,,,,,,,,,,,,,,,,,,,,,,,,,,,,,,,,,,,,,,,,,,,,,,,,,,,,,,,,,,,,,,,,,,,
,,6163383249e8518fc08e105f,2024-02-18_23h10.50.189,kallum_motion_pilot,2023.2.2,Win32,60.24096386,6163383249e8518fc08e105f,65d2b6c8f2eece985d8e374c,65d2b8013d1e491d72e7ec04,0.0569,0.057,0,93,93,50,1,twoone,,,,,,,,,,,,,,,,,,,,,,,,,,,,,,,,,,,,,,,,,,,,,,,,,,,,,,,,,,,,,,,,,,,,,,,,,,,,,,,,,,,,,,,,,,,,,,,,,,,,,,,,,,,,,,,,,,,,,,,,,,,,,,,,,,,,,,,,,
,,6163383249e8518fc08e105f,2024-02-18_23h10.50.189,kallum_motion_pilot,2023.2.2,Win32,60.24096386,6163383249e8518fc08e105f,65d2b6c8f2eece985d8e374c,65d2b8013d1e491d72e7ec04,0.0571,0.0572,0,94,94,69,1,threefour,,,,,,,,,,,,,,,,,,,,,,,,,,,,,,,,,,,,,,,,,,,,,,,,,,,,,,,,,,,,,,,,,,,,,,,,,,,,,,,,,,,,,,,,,,,,,,,,,,,,,,,,,,,,,,,,,,,,,,,,,,,,,,,,,,,,,,,,,
,,6163383249e8518fc08e105f,2024-02-18_23h10.50.189,kallum_motion_pilot,2023.2.2,Win32,60.24096386,6163383249e8518fc08e105f,65d2b6c8f2eece985d8e374c,65d2b8013d1e491d72e7ec04,0.0572,0.0573,0,95,95,159,1,eightseven,,,,,,,,,,,,,,,,,,,,,,,,,,,,,,,,,,,,,,,,,,,,,,,,,,,,,,,,,,,,,,,,,,,,,,,,,,,,,,,,,,,,,,,,,,,,,,,,,,,,,,,,,,,,,,,,,,,,,,,,,,,,,,,,,,,,,,,,,
,,6163383249e8518fc08e105f,2024-02-18_23h10.50.189,kallum_motion_pilot,2023.2.2,Win32,60.24096386,6163383249e8518fc08e105f,65d2b6c8f2eece985d8e374c,65d2b8013d1e491d72e7ec04,0.0574,0.0575,0,96,96,43,1,twofour,,,,,,,,,,,,,,,,,,,,,,,,,,,,,,,,,,,,,,,,,,,,,,,,,,,,,,,,,,,,,,,,,,,,,,,,,,,,,,,,,,,,,,,,,,,,,,,,,,,,,,,,,,,,,,,,,,,,,,,,,,,,,,,,,,,,,,,,,
,,6163383249e8518fc08e105f,2024-02-18_23h10.50.189,kallum_motion_pilot,2023.2.2,Win32,60.24096386,6163383249e8518fc08e105f,65d2b6c8f2eece985d8e374c,65d2b8013d1e491d72e7ec04,0.0577,0.0577,0,97,97,3,1,twofour,,,,,,,,,,,,,,,,,,,,,,,,,,,,,,,,,,,,,,,,,,,,,,,,,,,,,,,,,,,,,,,,,,,,,,,,,,,,,,,,,,,,,,,,,,,,,,,,,,,,,,,,,,,,,,,,,,,,,,,,,,,,,,,,,,,,,,,,,
,,6163383249e8518fc08e105f,2024-02-18_23h10.50.189,kallum_motion_pilot,2023.2.2,Win32,60.24096386,6163383249e8518fc08e105f,65d2b6c8f2eece985d8e374c,65d2b8013d1e491d72e7ec04,0.0579,0.058,0,98,98,14,1,fourtwo,,,,,,,,,,,,,,,,,,,,,,,,,,,,,,,,,,,,,,,,,,,,,,,,,,,,,,,,,,,,,,,,,,,,,,,,,,,,,,,,,,,,,,,,,,,,,,,,,,,,,,,,,,,,,,,,,,,,,,,,,,,,,,,,,,,,,,,,,
,,6163383249e8518fc08e105f,2024-02-18_23h10.50.189,kallum_motion_pilot,2023.2.2,Win32,60.24096386,6163383249e8518fc08e105f,65d2b6c8f2eece985d8e374c,65d2b8013d1e491d72e7ec04,0.0581,0.0582,0,99,99,102,1,eightsix,,,,,,,,,,,,,,,,,,,,,,,,,,,,,,,,,,,,,,,,,,,,,,,,,,,,,,,,,,,,,,,,,,,,,,,,,,,,,,,,,,,,,,,,,,,,,,,,,,,,,,,,,,,,,,,,,,,,,,,,,,,,,,,,,,,,,,,,,
,,6163383249e8518fc08e105f,2024-02-18_23h10.50.189,kallum_motion_pilot,2023.2.2,Win32,60.24096386,6163383249e8518fc08e105f,65d2b6c8f2eece985d8e374c,65d2b8013d1e491d72e7ec04,0.0584,0.0584,0,100,100,120,1,fivesix,,,,,,,,,,,,,,,,,,,,,,,,,,,,,,,,,,,,,,,,,,,,,,,,,,,,,,,,,,,,,,,,,,,,,,,,,,,,,,,,,,,,,,,,,,,,,,,,,,,,,,,,,,,,,,,,,,,,,,,,,,,,,,,,,,,,,,,,,
,,6163383249e8518fc08e105f,2024-02-18_23h10.50.189,kallum_motion_pilot,2023.2.2,Win32,60.24096386,6163383249e8518fc08e105f,65d2b6c8f2eece985d8e374c,65d2b8013d1e491d72e7ec04,0.0585,0.0586,0,101,101,99,1,sixeight,,,,,,,,,,,,,,,,,,,,,,,,,,,,,,,,,,,,,,,,,,,,,,,,,,,,,,,,,,,,,,,,,,,,,,,,,,,,,,,,,,,,,,,,,,,,,,,,,,,,,,,,,,,,,,,,,,,,,,,,,,,,,,,,,,,,,,,,,
,,6163383249e8518fc08e105f,2024-02-18_23h10.50.189,kallum_motion_pilot,2023.2.2,Win32,60.24096386,6163383249e8518fc08e105f,65d2b6c8f2eece985d8e374c,65d2b8013d1e491d72e7ec04,0.0588,0.0588,0,102,102,97,1,fiveseven,,,,,,,,,,,,,,,,,,,,,,,,,,,,,,,,,,,,,,,,,,,,,,,,,,,,,,,,,,,,,,,,,,,,,,,,,,,,,,,,,,,,,,,,,,,,,,,,,,,,,,,,,,,,,,,,,,,,,,,,,,,,,,,,,,,,,,,,,
,,6163383249e8518fc08e105f,2024-02-18_23h10.50.189,kallum_motion_pilot,2023.2.2,Win32,60.24096386,6163383249e8518fc08e105f,65d2b6c8f2eece985d8e374c,65d2b8013d1e491d72e7ec04,0.059,0.059,0,103,103,1,1,onethree,,,,,,,,,,,,,,,,,,,,,,,,,,,,,,,,,,,,,,,,,,,,,,,,,,,,,,,,,,,,,,,,,,,,,,,,,,,,,,,,,,,,,,,,,,,,,,,,,,,,,,,,,,,,,,,,,,,,,,,,,,,,,,,,,,,,,,,,,
,,6163383249e8518fc08e105f,2024-02-18_23h10.50.189,kallum_motion_pilot,2023.2.2,Win32,60.24096386,6163383249e8518fc08e105f,65d2b6c8f2eece985d8e374c,65d2b8013d1e491d72e7ec04,0.0593,0.0594,0,104,104,136,1,fivesix,,,,,,,,,,,,,,,,,,,,,,,,,,,,,,,,,,,,,,,,,,,,,,,,,,,,,,,,,,,,,,,,,,,,,,,,,,,,,,,,,,,,,,,,,,,,,,,,,,,,,,,,,,,,,,,,,,,,,,,,,,,,,,,,,,,,,,,,,
,,6163383249e8518fc08e105f,2024-02-18_23h10.50.189,kallum_motion_pilot,2023.2.2,Win32,60.24096386,6163383249e8518fc08e105f,65d2b6c8f2eece985d8e374c,65d2b8013d1e491d72e7ec04,0.0606,0.0606,0,105,105,5,1,threefour,,,,,,,,,,,,,,,,,,,,,,,,,,,,,,,,,,,,,,,,,,,,,,,,,,,,,,,,,,,,,,,,,,,,,,,,,,,,,,,,,,,,,,,,,,,,,,,,,,,,,,,,,,,,,,,,,,,,,,,,,,,,,,,,,,,,,,,,,
,,6163383249e8518fc08e105f,2024-02-18_23h10.50.189,kallum_motion_pilot,2023.2.2,Win32,60.24096386,6163383249e8518fc08e105f,65d2b6c8f2eece985d8e374c,65d2b8013d1e491d72e7ec04,0.0609,0.0609,0,106,106,77,1,threefour,,,,,,,,,,,,,,,,,,,,,,,,,,,,,,,,,,,,,,,,,,,,,,,,,,,,,,,,,,,,,,,,,,,,,,,,,,,,,,,,,,,,,,,,,,,,,,,,,,,,,,,,,,,,,,,,,,,,,,,,,,,,,,,,,,,,,,,,,
,,6163383249e8518fc08e105f,2024-02-18_23h10.50.189,kallum_motion_pilot,2023.2.2,Win32,60.24096386,6163383249e8518fc08e105f,65d2b6c8f2eece985d8e374c,65d2b8013d1e491d72e7ec04,0.061,0.0612,0,107,107,64,1,onetwo,,,,,,,,,,,,,,,,,,,,,,,,,,,,,,,,,,,,,,,,,,,,,,,,,,,,,,,,,,,,,,,,,,,,,,,,,,,,,,,,,,,,,,,,,,,,,,,,,,,,,,,,,,,,,,,,,,,,,,,,,,,,,,,,,,,,,,,,,
,,6163383249e8518fc08e105f,2024-02-18_23h10.50.189,kallum_motion_pilot,2023.2.2,Win32,60.24096386,6163383249e8518fc08e105f,65d2b6c8f2eece985d8e374c,65d2b8013d1e491d72e7ec04,0.0614,0.0614,0,108,108,107,1,sixeight,,,,,,,,,,,,,,,,,,,,,,,,,,,,,,,,,,,,,,,,,,,,,,,,,,,,,,,,,,,,,,,,,,,,,,,,,,,,,,,,,,,,,,,,,,,,,,,,,,,,,,,,,,,,,,,,,,,,,,,,,,,,,,,,,,,,,,,,,
,,6163383249e8518fc08e105f,2024-02-18_23h10.50.189,kallum_motion_pilot,2023.2.2,Win32,60.24096386,6163383249e8518fc08e105f,65d2b6c8f2eece985d8e374c,65d2b8013d1e491d72e7ec04,0.0615,0.0617,0,109,109,37,1,threefour,,,,,,,,,,,,,,,,,,,,,,,,,,,,,,,,,,,,,,,,,,,,,,,,,,,,,,,,,,,,,,,,,,,,,,,,,,,,,,,,,,,,,,,,,,,,,,,,,,,,,,,,,,,,,,,,,,,,,,,,,,,,,,,,,,,,,,,,,
,,6163383249e8518fc08e105f,2024-02-18_23h10.50.189,kallum_motion_pilot,2023.2.2,Win32,60.24096386,6163383249e8518fc08e105f,65d2b6c8f2eece985d8e374c,65d2b8013d1e491d72e7ec04,0.0619,0.0619,0,110,110,70,1,fourtwo,,,,,,,,,,,,,,,,,,,,,,,,,,,,,,,,,,,,,,,,,,,,,,,,,,,,,,,,,,,,,,,,,,,,,,,,,,,,,,,,,,,,,,,,,,,,,,,,,,,,,,,,,,,,,,,,,,,,,,,,,,,,,,,,,,,,,,,,,
,,6163383249e8518fc08e105f,2024-02-18_23h10.50.189,kallum_motion_pilot,2023.2.2,Win32,60.24096386,6163383249e8518fc08e105f,65d2b6c8f2eece985d8e374c,65d2b8013d1e491d72e7ec04,0.0621,0.0622,0,111,111,27,1,twofour,,,,,,,,,,,,,,,,,,,,,,,,,,,,,,,,,,,,,,,,,,,,,,,,,,,,,,,,,,,,,,,,,,,,,,,,,,,,,,,,,,,,,,,,,,,,,,,,,,,,,,,,,,,,,,,,,,,,,,,,,,,,,,,,,,,,,,,,,
,,6163383249e8518fc08e105f,2024-02-18_23h10.50.189,kallum_motion_pilot,2023.2.2,Win32,60.24096386,6163383249e8518fc08e105f,65d2b6c8f2eece985d8e374c,65d2b8013d1e491d72e7ec04,0.0623,0.0624,0,112,112,123,1,sixeight,,,,,,,,,,,,,,,,,,,,,,,,,,,,,,,,,,,,,,,,,,,,,,,,,,,,,,,,,,,,,,,,,,,,,,,,,,,,,,,,,,,,,,,,,,,,,,,,,,,,,,,,,,,,,,,,,,,,,,,,,,,,,,,,,,,,,,,,,
,,6163383249e8518fc08e105f,2024-02-18_23h10.50.189,kallum_motion_pilot,2023.2.2,Win32,60.24096386,6163383249e8518fc08e105f,65d2b6c8f2eece985d8e374c,65d2b8013d1e491d72e7ec04,0.0625,0.0626,0,113,113,114,1,sixfive,,,,,,,,,,,,,,,,,,,,,,,,,,,,,,,,,,,,,,,,,,,,,,,,,,,,,,,,,,,,,,,,,,,,,,,,,,,,,,,,,,,,,,,,,,,,,,,,,,,,,,,,,,,,,,,,,,,,,,,,,,,,,,,,,,,,,,,,,
,,6163383249e8518fc08e105f,2024-02-18_23h10.50.189,kallum_motion_pilot,2023.2.2,Win32,60.24096386,6163383249e8518fc08e105f,65d2b6c8f2eece985d8e374c,65d2b8013d1e491d72e7ec04,0.0627,0.0628,0,114,114,137,1,fiveseven,,,,,,,,,,,,,,,,,,,,,,,,,,,,,,,,,,,,,,,,,,,,,,,,,,,,,,,,,,,,,,,,,,,,,,,,,,,,,,,,,,,,,,,,,,,,,,,,,,,,,,,,,,,,,,,,,,,,,,,,,,,,,,,,,,,,,,,,,
,,6163383249e8518fc08e105f,2024-02-18_23h10.50.189,kallum_motion_pilot,2023.2.2,Win32,60.24096386,6163383249e8518fc08e105f,65d2b6c8f2eece985d8e374c,65d2b8013d1e491d72e7ec04,0.063,0.063,0,115,115,88,1,fivesix,,,,,,,,,,,,,,,,,,,,,,,,,,,,,,,,,,,,,,,,,,,,,,,,,,,,,,,,,,,,,,,,,,,,,,,,,,,,,,,,,,,,,,,,,,,,,,,,,,,,,,,,,,,,,,,,,,,,,,,,,,,,,,,,,,,,,,,,,
,,6163383249e8518fc08e105f,2024-02-18_23h10.50.189,kallum_motion_pilot,2023.2.2,Win32,60.24096386,6163383249e8518fc08e105f,65d2b6c8f2eece985d8e374c,65d2b8013d1e491d72e7ec04,0.0632,0.0633,0,116,116,95,1,eightseven,,,,,,,,,,,,,,,,,,,,,,,,,,,,,,,,,,,,,,,,,,,,,,,,,,,,,,,,,,,,,,,,,,,,,,,,,,,,,,,,,,,,,,,,,,,,,,,,,,,,,,,,,,,,,,,,,,,,,,,,,,,,,,,,,,,,,,,,,
,,6163383249e8518fc08e105f,2024-02-18_23h10.50.189,kallum_motion_pilot,2023.2.2,Win32,60.24096386,6163383249e8518fc08e105f,65d2b6c8f2eece985d8e374c,65d2b8013d1e491d72e7ec04,0.0635,0.0635,0,117,117,15,1,fourthree,,,,,,,,,,,,,,,,,,,,,,,,,,,,,,,,,,,,,,,,,,,,,,,,,,,,,,,,,,,,,,,,,,,,,,,,,,,,,,,,,,,,,,,,,,,,,,,,,,,,,,,,,,,,,,,,,,,,,,,,,,,,,,,,,,,,,,,,,
,,6163383249e8518fc08e105f,2024-02-18_23h10.50.189,kallum_motion_pilot,2023.2.2,Win32,60.24096386,6163383249e8518fc08e105f,65d2b6c8f2eece985d8e374c,65d2b8013d1e491d72e7ec04,0.0637,0.064,0,118,118,92,1,sevenfive,,,,,,,,,,,,,,,,,,,,,,,,,,,,,,,,,,,,,,,,,,,,,,,,,,,,,,,,,,,,,,,,,,,,,,,,,,,,,,,,,,,,,,,,,,,,,,,,,,,,,,,,,,,,,,,,,,,,,,,,,,,,,,,,,,,,,,,,,
,,6163383249e8518fc08e105f,2024-02-18_23h10.50.189,kallum_motion_pilot,2023.2.2,Win32,60.24096386,6163383249e8518fc08e105f,65d2b6c8f2eece985d8e374c,65d2b8013d1e491d72e7ec04,0.0644,0.0648,0,119,119,6,1,fourtwo,,,,,,,,,,,,,,,,,,,,,,,,,,,,,,,,,,,,,,,,,,,,,,,,,,,,,,,,,,,,,,,,,,,,,,,,,,,,,,,,,,,,,,,,,,,,,,,,,,,,,,,,,,,,,,,,,,,,,,,,,,,,,,,,,,,,,,,,,
,,6163383249e8518fc08e105f,2024-02-18_23h10.50.189,kallum_motion_pilot,2023.2.2,Win32,60.24096386,6163383249e8518fc08e105f,65d2b6c8f2eece985d8e374c,65d2b8013d1e491d72e7ec04,0.0652,0.0654,0,120,120,132,1,sevenfive,,,,,,,,,,,,,,,,,,,,,,,,,,,,,,,,,,,,,,,,,,,,,,,,,,,,,,,,,,,,,,,,,,,,,,,,,,,,,,,,,,,,,,,,,,,,,,,,,,,,,,,,,,,,,,,,,,,,,,,,,,,,,,,,,,,,,,,,,
,,6163383249e8518fc08e105f,2024-02-18_23h10.50.189,kallum_motion_pilot,2023.2.2,Win32,60.24096386,6163383249e8518fc08e105f,65d2b6c8f2eece985d8e374c,65d2b8013d1e491d72e7ec04,0.0655,0.0656,0,121,121,111,1,eightseven,,,,,,,,,,,,,,,,,,,,,,,,,,,,,,,,,,,,,,,,,,,,,,,,,,,,,,,,,,,,,,,,,,,,,,,,,,,,,,,,,,,,,,,,,,,,,,,,,,,,,,,,,,,,,,,,,,,,,,,,,,,,,,,,,,,,,,,,,
,,6163383249e8518fc08e105f,2024-02-18_23h10.50.189,kallum_motion_pilot,2023.2.2,Win32,60.24096386,6163383249e8518fc08e105f,65d2b6c8f2eece985d8e374c,65d2b8013d1e491d72e7ec04,0.0658,0.0658,0,122,122,32,1,onetwo,,,,,,,,,,,,,,,,,,,,,,,,,,,,,,,,,,,,,,,,,,,,,,,,,,,,,,,,,,,,,,,,,,,,,,,,,,,,,,,,,,,,,,,,,,,,,,,,,,,,,,,,,,,,,,,,,,,,,,,,,,,,,,,,,,,,,,,,,
,,6163383249e8518fc08e105f,2024-02-18_23h10.50.189,kallum_motion_pilot,2023.2.2,Win32,60.24096386,6163383249e8518fc08e105f,65d2b6c8f2eece985d8e374c,65d2b8013d1e491d72e7ec04,0.066,0.066,0,123,123,125,1,seveneight,,,,,,,,,,,,,,,,,,,,,,,,,,,,,,,,,,,,,,,,,,,,,,,,,,,,,,,,,,,,,,,,,,,,,,,,,,,,,,,,,,,,,,,,,,,,,,,,,,,,,,,,,,,,,,,,,,,,,,,,,,,,,,,,,,,,,,,,,
,,6163383249e8518fc08e105f,2024-02-18_23h10.50.189,kallum_motion_pilot,2023.2.2,Win32,60.24096386,6163383249e8518fc08e105f,65d2b6c8f2eece985d8e374c,65d2b8013d1e491d72e7ec04,0.0663,0.0665,0,124,124,144,1,fivesix,,,,,,,,,,,,,,,,,,,,,,,,,,,,,,,,,,,,,,,,,,,,,,,,,,,,,,,,,,,,,,,,,,,,,,,,,,,,,,,,,,,,,,,,,,,,,,,,,,,,,,,,,,,,,,,,,,,,,,,,,,,,,,,,,,,,,,,,,
,,6163383249e8518fc08e105f,2024-02-18_23h10.50.189,kallum_motion_pilot,2023.2.2,Win32,60.24096386,6163383249e8518fc08e105f,65d2b6c8f2eece985d8e374c,65d2b8013d1e491d72e7ec04,0.0666,0.0667,0,125,125,157,1,seveneight,,,,,,,,,,,,,,,,,,,,,,,,,,,,,,,,,,,,,,,,,,,,,,,,,,,,,,,,,,,,,,,,,,,,,,,,,,,,,,,,,,,,,,,,,,,,,,,,,,,,,,,,,,,,,,,,,,,,,,,,,,,,,,,,,,,,,,,,,
,,6163383249e8518fc08e105f,2024-02-18_23h10.50.189,kallum_motion_pilot,2023.2.2,Win32,60.24096386,6163383249e8518fc08e105f,65d2b6c8f2eece985d8e374c,65d2b8013d1e491d72e7ec04,0.0669,0.0671,0,126,126,12,1,threeone,,,,,,,,,,,,,,,,,,,,,,,,,,,,,,,,,,,,,,,,,,,,,,,,,,,,,,,,,,,,,,,,,,,,,,,,,,,,,,,,,,,,,,,,,,,,,,,,,,,,,,,,,,,,,,,,,,,,,,,,,,,,,,,,,,,,,,,,,
,,6163383249e8518fc08e105f,2024-02-18_23h10.50.189,kallum_motion_pilot,2023.2.2,Win32,60.24096386,6163383249e8518fc08e105f,65d2b6c8f2eece985d8e374c,65d2b8013d1e491d72e7ec04,0.0672,0.0673,0,127,127,24,1,onetwo,,,,,,,,,,,,,,,,,,,,,,,,,,,,,,,,,,,,,,,,,,,,,,,,,,,,,,,,,,,,,,,,,,,,,,,,,,,,,,,,,,,,,,,,,,,,,,,,,,,,,,,,,,,,,,,,,,,,,,,,,,,,,,,,,,,,,,,,,
,,6163383249e8518fc08e105f,2024-02-18_23h10.50.189,kallum_motion_pilot,2023.2.2,Win32,60.24096386,6163383249e8518fc08e105f,65d2b6c8f2eece985d8e374c,65d2b8013d1e491d72e7ec04,0.0675,0.0676,0,128,128,10,1,twoone,,,,,,,,,,,,,,,,,,,,,,,,,,,,,,,,,,,,,,,,,,,,,,,,,,,,,,,,,,,,,,,,,,,,,,,,,,,,,,,,,,,,,,,,,,,,,,,,,,,,,,,,,,,,,,,,,,,,,,,,,,,,,,,,,,,,,,,,,
,,6163383249e8518fc08e105f,2024-02-18_23h10.50.189,kallum_motion_pilot,2023.2.2,Win32,60.24096386,6163383249e8518fc08e105f,65d2b6c8f2eece985d8e374c,65d2b8013d1e491d72e7ec04,0.0677,0.0677,0,129,129,117,1,seveneight,,,,,,,,,,,,,,,,,,,,,,,,,,,,,,,,,,,,,,,,,,,,,,,,,,,,,,,,,,,,,,,,,,,,,,,,,,,,,,,,,,,,,,,,,,,,,,,,,,,,,,,,,,,,,,,,,,,,,,,,,,,,,,,,,,,,,,,,,
,,6163383249e8518fc08e105f,2024-02-18_23h10.50.189,kallum_motion_pilot,2023.2.2,Win32,60.24096386,6163383249e8518fc08e105f,65d2b6c8f2eece985d8e374c,65d2b8013d1e491d72e7ec04,0.0679,0.068,0,130,130,134,1,eightsix,,,,,,,,,,,,,,,,,,,,,,,,,,,,,,,,,,,,,,,,,,,,,,,,,,,,,,,,,,,,,,,,,,,,,,,,,,,,,,,,,,,,,,,,,,,,,,,,,,,,,,,,,,,,,,,,,,,,,,,,,,,,,,,,,,,,,,,,,
,,6163383249e8518fc08e105f,2024-02-18_23h10.50.189,kallum_motion_pilot,2023.2.2,Win32,60.24096386,6163383249e8518fc08e105f,65d2b6c8f2eece985d8e374c,65d2b8013d1e491d72e7ec04,0.0682,0.0682,0,131,131,118,1,eightsix,,,,,,,,,,,,,,,,,,,,,,,,,,,,,,,,,,,,,,,,,,,,,,,,,,,,,,,,,,,,,,,,,,,,,,,,,,,,,,,,,,,,,,,,,,,,,,,,,,,,,,,,,,,,,,,,,,,,,,,,,,,,,,,,,,,,,,,,,
,,6163383249e8518fc08e105f,2024-02-18_23h10.50.189,kallum_motion_pilot,2023.2.2,Win32,60.24096386,6163383249e8518fc08e105f,65d2b6c8f2eece985d8e374c,65d2b8013d1e491d72e7ec04,0.0683,0.0684,0,132,132,80,1,fivesix,,,,,,,,,,,,,,,,,,,,,,,,,,,,,,,,,,,,,,,,,,,,,,,,,,,,,,,,,,,,,,,,,,,,,,,,,,,,,,,,,,,,,,,,,,,,,,,,,,,,,,,,,,,,,,,,,,,,,,,,,,,,,,,,,,,,,,,,,
,,6163383249e8518fc08e105f,2024-02-18_23h10.50.189,kallum_motion_pilot,2023.2.2,Win32,60.24096386,6163383249e8518fc08e105f,65d2b6c8f2eece985d8e374c,65d2b8013d1e491d72e7ec04,0.0686,0.0687,0,133,133,139,1,sixeight,,,,,,,,,,,,,,,,,,,,,,,,,,,,,,,,,,,,,,,,,,,,,,,,,,,,,,,,,,,,,,,,,,,,,,,,,,,,,,,,,,,,,,,,,,,,,,,,,,,,,,,,,,,,,,,,,,,,,,,,,,,,,,,,,,,,,,,,,
,,6163383249e8518fc08e105f,2024-02-18_23h10.50.189,kallum_motion_pilot,2023.2.2,Win32,60.24096386,6163383249e8518fc08e105f,65d2b6c8f2eece985d8e374c,65d2b8013d1e491d72e7ec04,0.0688,0.0689,0,134,134,90,1,sixfive,,,,,,,,,,,,,,,,,,,,,,,,,,,,,,,,,,,,,,,,,,,,,,,,,,,,,,,,,,,,,,,,,,,,,,,,,,,,,,,,,,,,,,,,,,,,,,,,,,,,,,,,,,,,,,,,,,,,,,,,,,,,,,,,,,,,,,,,,
,,6163383249e8518fc08e105f,2024-02-18_23h10.50.189,kallum_motion_pilot,2023.2.2,Win32,60.24096386,6163383249e8518fc08e105f,65d2b6c8f2eece985d8e374c,65d2b8013d1e491d72e7ec04,0.069,0.0691,0,135,135,59,1,twofour,,,,,,,,,,,,,,,,,,,,,,,,,,,,,,,,,,,,,,,,,,,,,,,,,,,,,,,,,,,,,,,,,,,,,,,,,,,,,,,,,,,,,,,,,,,,,,,,,,,,,,,,,,,,,,,,,,,,,,,,,,,,,,,,,,,,,,,,,
,,6163383249e8518fc08e105f,2024-02-18_23h10.50.189,kallum_motion_pilot,2023.2.2,Win32,60.24096386,6163383249e8518fc08e105f,65d2b6c8f2eece985d8e374c,65d2b8013d1e491d72e7ec04,0.0693,0.0693,0,136,136,54,1,fourtwo,,,,,,,,,,,,,,,,,,,,,,,,,,,,,,,,,,,,,,,,,,,,,,,,,,,,,,,,,,,,,,,,,,,,,,,,,,,,,,,,,,,,,,,,,,,,,,,,,,,,,,,,,,,,,,,,,,,,,,,,,,,,,,,,,,,,,,,,,
,,6163383249e8518fc08e105f,2024-02-18_23h10.50.189,kallum_motion_pilot,2023.2.2,Win32,60.24096386,6163383249e8518fc08e105f,65d2b6c8f2eece985d8e374c,65d2b8013d1e491d72e7ec04,0.0694,0.0695,0,137,137,129,1,fiveseven,,,,,,,,,,,,,,,,,,,,,,,,,,,,,,,,,,,,,,,,,,,,,,,,,,,,,,,,,,,,,,,,,,,,,,,,,,,,,,,,,,,,,,,,,,,,,,,,,,,,,,,,,,,,,,,,,,,,,,,,,,,,,,,,,,,,,,,,,
,,6163383249e8518fc08e105f,2024-02-18_23h10.50.189,kallum_motion_pilot,2023.2.2,Win32,60.24096386,6163383249e8518fc08e105f,65d2b6c8f2eece985d8e374c,65d2b8013d1e491d72e7ec04,0.0697,0.0698,0,138,138,71,1,fourthree,,,,,,,,,,,,,,,,,,,,,,,,,,,,,,,,,,,,,,,,,,,,,,,,,,,,,,,,,,,,,,,,,,,,,,,,,,,,,,,,,,,,,,,,,,,,,,,,,,,,,,,,,,,,,,,,,,,,,,,,,,,,,,,,,,,,,,,,,
,,6163383249e8518fc08e105f,2024-02-18_23h10.50.189,kallum_motion_pilot,2023.2.2,Win32,60.24096386,6163383249e8518fc08e105f,65d2b6c8f2eece985d8e374c,65d2b8013d1e491d72e7ec04,0.07,0.07,0,139,139,26,1,twoone,,,,,,,,,,,,,,,,,,,,,,,,,,,,,,,,,,,,,,,,,,,,,,,,,,,,,,,,,,,,,,,,,,,,,,,,,,,,,,,,,,,,,,,,,,,,,,,,,,,,,,,,,,,,,,,,,,,,,,,,,,,,,,,,,,,,,,,,,
,,6163383249e8518fc08e105f,2024-02-18_23h10.50.189,kallum_motion_pilot,2023.2.2,Win32,60.24096386,6163383249e8518fc08e105f,65d2b6c8f2eece985d8e374c,65d2b8013d1e491d72e7ec04,0.0702,0.0702,0,140,140,17,1,onethree,,,,,,,,,,,,,,,,,,,,,,,,,,,,,,,,,,,,,,,,,,,,,,,,,,,,,,,,,,,,,,,,,,,,,,,,,,,,,,,,,,,,,,,,,,,,,,,,,,,,,,,,,,,,,,,,,,,,,,,,,,,,,,,,,,,,,,,,,
,,6163383249e8518fc08e105f,2024-02-18_23h10.50.189,kallum_motion_pilot,2023.2.2,Win32,60.24096386,6163383249e8518fc08e105f,65d2b6c8f2eece985d8e374c,65d2b8013d1e491d72e7ec04,0.0704,0.0705,0,141,141,65,1,onethree,,,,,,,,,,,,,,,,,,,,,,,,,,,,,,,,,,,,,,,,,,,,,,,,,,,,,,,,,,,,,,,,,,,,,,,,,,,,,,,,,,,,,,,,,,,,,,,,,,,,,,,,,,,,,,,,,,,,,,,,,,,,,,,,,,,,,,,,,
,,6163383249e8518fc08e105f,2024-02-18_23h10.50.189,kallum_motion_pilot,2023.2.2,Win32,60.24096386,6163383249e8518fc08e105f,65d2b6c8f2eece985d8e374c,65d2b8013d1e491d72e7ec04,0.0705,0.0707,0,142,142,78,1,fourtwo,,,,,,,,,,,,,,,,,,,,,,,,,,,,,,,,,,,,,,,,,,,,,,,,,,,,,,,,,,,,,,,,,,,,,,,,,,,,,,,,,,,,,,,,,,,,,,,,,,,,,,,,,,,,,,,,,,,,,,,,,,,,,,,,,,,,,,,,,
,,6163383249e8518fc08e105f,2024-02-18_23h10.50.189,kallum_motion_pilot,2023.2.2,Win32,60.24096386,6163383249e8518fc08e105f,65d2b6c8f2eece985d8e374c,65d2b8013d1e491d72e7ec04,0.0707,0.0709,0,143,143,67,1,twofour,,,,,,,,,,,,,,,,,,,,,,,,,,,,,,,,,,,,,,,,,,,,,,,,,,,,,,,,,,,,,,,,,,,,,,,,,,,,,,,,,,,,,,,,,,,,,,,,,,,,,,,,,,,,,,,,,,,,,,,,,,,,,,,,,,,,,,,,,
,,6163383249e8518fc08e105f,2024-02-18_23h10.50.189,kallum_motion_pilot,2023.2.2,Win32,60.24096386,6163383249e8518fc08e105f,65d2b6c8f2eece985d8e374c,65d2b8013d1e491d72e7ec04,0.071,0.0711,0,144,144,101,1,seveneight,,,,,,,,,,,,,,,,,,,,,,,,,,,,,,,,,,,,,,,,,,,,,,,,,,,,,,,,,,,,,,,,,,,,,,,,,,,,,,,,,,,,,,,,,,,,,,,,,,,,,,,,,,,,,,,,,,,,,,,,,,,,,,,,,,,,,,,,,
,,6163383249e8518fc08e105f,2024-02-18_23h10.50.189,kallum_motion_pilot,2023.2.2,Win32,60.24096386,6163383249e8518fc08e105f,65d2b6c8f2eece985d8e374c,65d2b8013d1e491d72e7ec04,0.0712,0.0713,0,145,145,96,1,fivesix,,,,,,,,,,,,,,,,,,,,,,,,,,,,,,,,,,,,,,,,,,,,,,,,,,,,,,,,,,,,,,,,,,,,,,,,,,,,,,,,,,,,,,,,,,,,,,,,,,,,,,,,,,,,,,,,,,,,,,,,,,,,,,,,,,,,,,,,,
,,6163383249e8518fc08e105f,2024-02-18_23h10.50.189,kallum_motion_pilot,2023.2.2,Win32,60.24096386,6163383249e8518fc08e105f,65d2b6c8f2eece985d8e374c,65d2b8013d1e491d72e7ec04,0.0714,0.0715,0,146,146,4,1,threeone,,,,,,,,,,,,,,,,,,,,,,,,,,,,,,,,,,,,,,,,,,,,,,,,,,,,,,,,,,,,,,,,,,,,,,,,,,,,,,,,,,,,,,,,,,,,,,,,,,,,,,,,,,,,,,,,,,,,,,,,,,,,,,,,,,,,,,,,,
,,6163383249e8518fc08e105f,2024-02-18_23h10.50.189,kallum_motion_pilot,2023.2.2,Win32,60.24096386,6163383249e8518fc08e105f,65d2b6c8f2eece985d8e374c,65d2b8013d1e491d72e7ec04,0.0717,0.0718,0,147,147,46,1,fourtwo,,,,,,,,,,,,,,,,,,,,,,,,,,,,,,,,,,,,,,,,,,,,,,,,,,,,,,,,,,,,,,,,,,,,,,,,,,,,,,,,,,,,,,,,,,,,,,,,,,,,,,,,,,,,,,,,,,,,,,,,,,,,,,,,,,,,,,,,,
,,6163383249e8518fc08e105f,2024-02-18_23h10.50.189,kallum_motion_pilot,2023.2.2,Win32,60.24096386,6163383249e8518fc08e105f,65d2b6c8f2eece985d8e374c,65d2b8013d1e491d72e7ec04,0.0721,0.0721,0,148,148,85,1,seveneight,,,,,,,,,,,,,,,,,,,,,,,,,,,,,,,,,,,,,,,,,,,,,,,,,,,,,,,,,,,,,,,,,,,,,,,,,,,,,,,,,,,,,,,,,,,,,,,,,,,,,,,,,,,,,,,,,,,,,,,,,,,,,,,,,,,,,,,,,
,,6163383249e8518fc08e105f,2024-02-18_23h10.50.189,kallum_motion_pilot,2023.2.2,Win32,60.24096386,6163383249e8518fc08e105f,65d2b6c8f2eece985d8e374c,65d2b8013d1e491d72e7ec04,0.0723,0.0723,0,149,149,98,1,sixfive,,,,,,,,,,,,,,,,,,,,,,,,,,,,,,,,,,,,,,,,,,,,,,,,,,,,,,,,,,,,,,,,,,,,,,,,,,,,,,,,,,,,,,,,,,,,,,,,,,,,,,,,,,,,,,,,,,,,,,,,,,,,,,,,,,,,,,,,,
,,6163383249e8518fc08e105f,2024-02-18_23h10.50.189,kallum_motion_pilot,2023.2.2,Win32,60.24096386,6163383249e8518fc08e105f,65d2b6c8f2eece985d8e374c,65d2b8013d1e491d72e7ec04,0.0725,0.0726,0,150,150,150,1,eightsix,,,,,,,,,,,,,,,,,,,,,,,,,,,,,,,,,,,,,,,,,,,,,,,,,,,,,,,,,,,,,,,,,,,,,,,,,,,,,,,,,,,,,,,,,,,,,,,,,,,,,,,,,,,,,,,,,,,,,,,,,,,,,,,,,,,,,,,,,
,,6163383249e8518fc08e105f,2024-02-18_23h10.50.189,kallum_motion_pilot,2023.2.2,Win32,60.24096386,6163383249e8518fc08e105f,65d2b6c8f2eece985d8e374c,65d2b8013d1e491d72e7ec04,0.0727,0.0729,0,151,151,31,1,fourthree,,,,,,,,,,,,,,,,,,,,,,,,,,,,,,,,,,,,,,,,,,,,,,,,,,,,,,,,,,,,,,,,,,,,,,,,,,,,,,,,,,,,,,,,,,,,,,,,,,,,,,,,,,,,,,,,,,,,,,,,,,,,,,,,,,,,,,,,,
,,6163383249e8518fc08e105f,2024-02-18_23h10.50.189,kallum_motion_pilot,2023.2.2,Win32,60.24096386,6163383249e8518fc08e105f,65d2b6c8f2eece985d8e374c,65d2b8013d1e491d72e7ec04,0.0729,0.073,0,152,152,154,1,sixfive,,,,,,,,,,,,,,,,,,,,,,,,,,,,,,,,,,,,,,,,,,,,,,,,,,,,,,,,,,,,,,,,,,,,,,,,,,,,,,,,,,,,,,,,,,,,,,,,,,,,,,,,,,,,,,,,,,,,,,,,,,,,,,,,,,,,,,,,,
,,6163383249e8518fc08e105f,2024-02-18_23h10.50.189,kallum_motion_pilot,2023.2.2,Win32,60.24096386,6163383249e8518fc08e105f,65d2b6c8f2eece985d8e374c,65d2b8013d1e491d72e7ec04,0.0732,0.0733,0,153,153,45,1,threefour,,,,,,,,,,,,,,,,,,,,,,,,,,,,,,,,,,,,,,,,,,,,,,,,,,,,,,,,,,,,,,,,,,,,,,,,,,,,,,,,,,,,,,,,,,,,,,,,,,,,,,,,,,,,,,,,,,,,,,,,,,,,,,,,,,,,,,,,,
,,6163383249e8518fc08e105f,2024-02-18_23h10.50.189,kallum_motion_pilot,2023.2.2,Win32,60.24096386,6163383249e8518fc08e105f,65d2b6c8f2eece985d8e374c,65d2b8013d1e491d72e7ec04,0.0734,0.0735,0,154,154,93,1,seveneight,,,,,,,,,,,,,,,,,,,,,,,,,,,,,,,,,,,,,,,,,,,,,,,,,,,,,,,,,,,,,,,,,,,,,,,,,,,,,,,,,,,,,,,,,,,,,,,,,,,,,,,,,,,,,,,,,,,,,,,,,,,,,,,,,,,,,,,,,
,,6163383249e8518fc08e105f,2024-02-18_23h10.50.189,kallum_motion_pilot,2023.2.2,Win32,60.24096386,6163383249e8518fc08e105f,65d2b6c8f2eece985d8e374c,65d2b8013d1e491d72e7ec04,0.0736,0.0737,0,155,155,41,1,onethree,,,,,,,,,,,,,,,,,,,,,,,,,,,,,,,,,,,,,,,,,,,,,,,,,,,,,,,,,,,,,,,,,,,,,,,,,,,,,,,,,,,,,,,,,,,,,,,,,,,,,,,,,,,,,,,,,,,,,,,,,,,,,,,,,,,,,,,,,
,,6163383249e8518fc08e105f,2024-02-18_23h10.50.189,kallum_motion_pilot,2023.2.2,Win32,60.24096386,6163383249e8518fc08e105f,65d2b6c8f2eece985d8e374c,65d2b8013d1e491d72e7ec04,0.0739,0.074,0,156,156,83,1,sixeight,,,,,,,,,,,,,,,,,,,,,,,,,,,,,,,,,,,,,,,,,,,,,,,,,,,,,,,,,,,,,,,,,,,,,,,,,,,,,,,,,,,,,,,,,,,,,,,,,,,,,,,,,,,,,,,,,,,,,,,,,,,,,,,,,,,,,,,,,
,,6163383249e8518fc08e105f,2024-02-18_23h10.50.189,kallum_motion_pilot,2023.2.2,Win32,60.24096386,6163383249e8518fc08e105f,65d2b6c8f2eece985d8e374c,65d2b8013d1e491d72e7ec04,0.0741,0.0741,0,157,157,13,1,threefour,,,,,,,,,,,,,,,,,,,,,,,,,,,,,,,,,,,,,,,,,,,,,,,,,,,,,,,,,,,,,,,,,,,,,,,,,,,,,,,,,,,,,,,,,,,,,,,,,,,,,,,,,,,,,,,,,,,,,,,,,,,,,,,,,,,,,,,,,
,,6163383249e8518fc08e105f,2024-02-18_23h10.50.189,kallum_motion_pilot,2023.2.2,Win32,60.24096386,6163383249e8518fc08e105f,65d2b6c8f2eece985d8e374c,65d2b8013d1e491d72e7ec04,0.0742,0.0744,0,158,158,133,1,seveneight,,,,,,,,,,,,,,,,,,,,,,,,,,,,,,,,,,,,,,,,,,,,,,,,,,,,,,,,,,,,,,,,,,,,,,,,,,,,,,,,,,,,,,,,,,,,,,,,,,,,,,,,,,,,,,,,,,,,,,,,,,,,,,,,,,,,,,,,,
,,6163383249e8518fc08e105f,2024-02-18_23h10.50.189,kallum_motion_pilot,2023.2.2,Win32,60.24096386,6163383249e8518fc08e105f,65d2b6c8f2eece985d8e374c,65d2b8013d1e491d72e7ec04,0.0745,0.0746,0,159,159,52,1,threeone,,,,,,,,,,,,,,,,,,,,,,,,,,,,,,,,,,,,,,,,,,,,,,,,,,,,,,,,,,,,,,,,,,,,,,,,,,,,,,,,,,,,,,,,,,,,,,,,,,,,,,,,,,,,,,,,,,,,,,,,,,,,,,,,,,,,,,,,,
,,6163383249e8518fc08e105f,2024-02-18_23h10.50.189,kallum_motion_pilot,2023.2.2,Win32,60.24096386,6163383249e8518fc08e105f,65d2b6c8f2eece985d8e374c,65d2b8013d1e491d72e7ec04,0.0748,0.0748,0,160,160,72,1,onetwo,,,,,,,,,,,,,,,,,,,,,,,,,,,,,,,,,,,,,,,,,,,,,,,,,,,,,,,,,,,,,,,,,,,,,,,,,,,,,,,,,,,,,,,,,,,,,,,,,,,,,,,,,,,,,,,,,,,,,,,,,,,,,,,,,,,,,,,,,
,,6163383249e8518fc08e105f,2024-02-18_23h10.50.189,kallum_motion_pilot,2023.2.2,Win32,60.24096386,6163383249e8518fc08e105f,65d2b6c8f2eece985d8e374c,65d2b8013d1e491d72e7ec04,0.075,0.0751,0,161,161,34,1,twoone,,,,,,,,,,,,,,,,,,,,,,,,,,,,,,,,,,,,,,,,,,,,,,,,,,,,,,,,,,,,,,,,,,,,,,,,,,,,,,,,,,,,,,,,,,,,,,,,,,,,,,,,,,,,,,,,,,,,,,,,,,,,,,,,,,,,,,,,,
,,6163383249e8518fc08e105f,2024-02-18_23h10.50.189,kallum_motion_pilot,2023.2.2,Win32,60.24096386,6163383249e8518fc08e105f,65d2b6c8f2eece985d8e374c,65d2b8013d1e491d72e7ec04,0.0752,0.0754,1,0,162,17,1,onethree,,,,,,,,,,,,,,,,,,,,,,,,,,,,,,,,,,,,,,,,,,,,,,,,,,,,,,,,,,,,,,,,,,,,,,,,,,,,,,,,,,,,,,,,,,,,,,,,,,,,,,,,,,,,,,,,,,,,,,,,,,,,,,,,,,,,,,,,,
,,6163383249e8518fc08e105f,2024-02-18_23h10.50.189,kallum_motion_pilot,2023.2.2,Win32,60.24096386,6163383249e8518fc08e105f,65d2b6c8f2eece985d8e374c,65d2b8013d1e491d72e7ec04,0.0756,0.0756,1,1,163,102,1,eightsix,,,,,,,,,,,,,,,,,,,,,,,,,,,,,,,,,,,,,,,,,,,,,,,,,,,,,,,,,,,,,,,,,,,,,,,,,,,,,,,,,,,,,,,,,,,,,,,,,,,,,,,,,,,,,,,,,,,,,,,,,,,,,,,,,,,,,,,,,
,,6163383249e8518fc08e105f,2024-02-18_23h10.50.189,kallum_motion_pilot,2023.2.2,Win32,60.24096386,6163383249e8518fc08e105f,65d2b6c8f2eece985d8e374c,65d2b8013d1e491d72e7ec04,0.0758,0.0758,1,2,164,72,1,onetwo,,,,,,,,,,,,,,,,,,,,,,,,,,,,,,,,,,,,,,,,,,,,,,,,,,,,,,,,,,,,,,,,,,,,,,,,,,,,,,,,,,,,,,,,,,,,,,,,,,,,,,,,,,,,,,,,,,,,,,,,,,,,,,,,,,,,,,,,,
,,6163383249e8518fc08e105f,2024-02-18_23h10.50.189,kallum_motion_pilot,2023.2.2,Win32,60.24096386,6163383249e8518fc08e105f,65d2b6c8f2eece985d8e374c,65d2b8013d1e491d72e7ec04,0.076,0.076,1,3,165,122,1,sixfive,,,,,,,,,,,,,,,,,,,,,,,,,,,,,,,,,,,,,,,,,,,,,,,,,,,,,,,,,,,,,,,,,,,,,,,,,,,,,,,,,,,,,,,,,,,,,,,,,,,,,,,,,,,,,,,,,,,,,,,,,,,,,,,,,,,,,,,,,
,,6163383249e8518fc08e105f,2024-02-18_23h10.50.189,kallum_motion_pilot,2023.2.2,Win32,60.24096386,6163383249e8518fc08e105f,65d2b6c8f2eece985d8e374c,65d2b8013d1e491d72e7ec04,0.0762,0.0762,1,4,166,60,1,threeone,,,,,,,,,,,,,,,,,,,,,,,,,,,,,,,,,,,,,,,,,,,,,,,,,,,,,,,,,,,,,,,,,,,,,,,,,,,,,,,,,,,,,,,,,,,,,,,,,,,,,,,,,,,,,,,,,,,,,,,,,,,,,,,,,,,,,,,,,
,,6163383249e8518fc08e105f,2024-02-18_23h10.50.189,kallum_motion_pilot,2023.2.2,Win32,60.24096386,6163383249e8518fc08e105f,65d2b6c8f2eece985d8e374c,65d2b8013d1e491d72e7ec04,0.0764,0.0765,1,5,167,40,1,onetwo,,,,,,,,,,,,,,,,,,,,,,,,,,,,,,,,,,,,,,,,,,,,,,,,,,,,,,,,,,,,,,,,,,,,,,,,,,,,,,,,,,,,,,,,,,,,,,,,,,,,,,,,,,,,,,,,,,,,,,,,,,,,,,,,,,,,,,,,,
,,6163383249e8518fc08e105f,2024-02-18_23h10.50.189,kallum_motion_pilot,2023.2.2,Win32,60.24096386,6163383249e8518fc08e105f,65d2b6c8f2eece985d8e374c,65d2b8013d1e491d72e7ec04,0.0767,0.0768,1,6,168,113,1,fiveseven,,,,,,,,,,,,,,,,,,,,,,,,,,,,,,,,,,,,,,,,,,,,,,,,,,,,,,,,,,,,,,,,,,,,,,,,,,,,,,,,,,,,,,,,,,,,,,,,,,,,,,,,,,,,,,,,,,,,,,,,,,,,,,,,,,,,,,,,,
,,6163383249e8518fc08e105f,2024-02-18_23h10.50.189,kallum_motion_pilot,2023.2.2,Win32,60.24096386,6163383249e8518fc08e105f,65d2b6c8f2eece985d8e374c,65d2b8013d1e491d72e7ec04,0.0768,0.077,1,7,169,4,1,threeone,,,,,,,,,,,,,,,,,,,,,,,,,,,,,,,,,,,,,,,,,,,,,,,,,,,,,,,,,,,,,,,,,,,,,,,,,,,,,,,,,,,,,,,,,,,,,,,,,,,,,,,,,,,,,,,,,,,,,,,,,,,,,,,,,,,,,,,,,
,,6163383249e8518fc08e105f,2024-02-18_23h10.50.189,kallum_motion_pilot,2023.2.2,Win32,60.24096386,6163383249e8518fc08e105f,65d2b6c8f2eece985d8e374c,65d2b8013d1e491d72e7ec04,0.0771,0.0772,1,8,170,120,1,fivesix,,,,,,,,,,,,,,,,,,,,,,,,,,,,,,,,,,,,,,,,,,,,,,,,,,,,,,,,,,,,,,,,,,,,,,,,,,,,,,,,,,,,,,,,,,,,,,,,,,,,,,,,,,,,,,,,,,,,,,,,,,,,,,,,,,,,,,,,,
,,6163383249e8518fc08e105f,2024-02-18_23h10.50.189,kallum_motion_pilot,2023.2.2,Win32,60.24096386,6163383249e8518fc08e105f,65d2b6c8f2eece985d8e374c,65d2b8013d1e491d72e7ec04,0.0773,0.0775,1,9,171,55,1,fourthree,,,,,,,,,,,,,,,,,,,,,,,,,,,,,,,,,,,,,,,,,,,,,,,,,,,,,,,,,,,,,,,,,,,,,,,,,,,,,,,,,,,,,,,,,,,,,,,,,,,,,,,,,,,,,,,,,,,,,,,,,,,,,,,,,,,,,,,,,
,,6163383249e8518fc08e105f,2024-02-18_23h10.50.189,kallum_motion_pilot,2023.2.2,Win32,60.24096386,6163383249e8518fc08e105f,65d2b6c8f2eece985d8e374c,65d2b8013d1e491d72e7ec04,0.0776,0.0777,1,10,172,129,1,fiveseven,,,,,,,,,,,,,,,,,,,,,,,,,,,,,,,,,,,,,,,,,,,,,,,,,,,,,,,,,,,,,,,,,,,,,,,,,,,,,,,,,,,,,,,,,,,,,,,,,,,,,,,,,,,,,,,,,,,,,,,,,,,,,,,,,,,,,,,,,
,,6163383249e8518fc08e105f,2024-02-18_23h10.50.189,kallum_motion_pilot,2023.2.2,Win32,60.24096386,6163383249e8518fc08e105f,65d2b6c8f2eece985d8e374c,65d2b8013d1e491d72e7ec04,0.0778,0.0779,1,11,173,156,1,sevenfive,,,,,,,,,,,,,,,,,,,,,,,,,,,,,,,,,,,,,,,,,,,,,,,,,,,,,,,,,,,,,,,,,,,,,,,,,,,,,,,,,,,,,,,,,,,,,,,,,,,,,,,,,,,,,,,,,,,,,,,,,,,,,,,,,,,,,,,,,
,,6163383249e8518fc08e105f,2024-02-18_23h10.50.189,kallum_motion_pilot,2023.2.2,Win32,60.24096386,6163383249e8518fc08e105f,65d2b6c8f2eece985d8e374c,65d2b8013d1e491d72e7ec04,0.078,0.0781,1,12,174,159,1,eightseven,,,,,,,,,,,,,,,,,,,,,,,,,,,,,,,,,,,,,,,,,,,,,,,,,,,,,,,,,,,,,,,,,,,,,,,,,,,,,,,,,,,,,,,,,,,,,,,,,,,,,,,,,,,,,,,,,,,,,,,,,,,,,,,,,,,,,,,,,
,,6163383249e8518fc08e105f,2024-02-18_23h10.50.189,kallum_motion_pilot,2023.2.2,Win32,60.24096386,6163383249e8518fc08e105f,65d2b6c8f2eece985d8e374c,65d2b8013d1e491d72e7ec04,0.0782,0.0784,1,13,175,37,1,threefour,,,,,,,,,,,,,,,,,,,,,,,,,,,,,,,,,,,,,,,,,,,,,,,,,,,,,,,,,,,,,,,,,,,,,,,,,,,,,,,,,,,,,,,,,,,,,,,,,,,,,,,,,,,,,,,,,,,,,,,,,,,,,,,,,,,,,,,,,
,,6163383249e8518fc08e105f,2024-02-18_23h10.50.189,kallum_motion_pilot,2023.2.2,Win32,60.24096386,6163383249e8518fc08e105f,65d2b6c8f2eece985d8e374c,65d2b8013d1e491d72e7ec04,0.0785,0.0786,1,14,176,158,1,eightsix,,,,,,,,,,,,,,,,,,,,,,,,,,,,,,,,,,,,,,,,,,,,,,,,,,,,,,,,,,,,,,,,,,,,,,,,,,,,,,,,,,,,,,,,,,,,,,,,,,,,,,,,,,,,,,,,,,,,,,,,,,,,,,,,,,,,,,,,,
,,6163383249e8518fc08e105f,2024-02-18_23h10.50.189,kallum_motion_pilot,2023.2.2,Win32,60.24096386,6163383249e8518fc08e105f,65d2b6c8f2eece985d8e374c,65d2b8013d1e491d72e7ec04,0.0787,0.0788,1,15,177,116,1,sevenfive,,,,,,,,,,,,,,,,,,,,,,,,,,,,,,,,,,,,,,,,,,,,,,,,,,,,,,,,,,,,,,,,,,,,,,,,,,,,,,,,,,,,,,,,,,,,,,,,,,,,,,,,,,,,,,,,,,,,,,,,,,,,,,,,,,,,,,,,,
,,6163383249e8518fc08e105f,2024-02-18_23h10.50.189,kallum_motion_pilot,2023.2.2,Win32,60.24096386,6163383249e8518fc08e105f,65d2b6c8f2eece985d8e374c,65d2b8013d1e491d72e7ec04,0.0789,0.0791,1,16,178,114,1,sixfive,,,,,,,,,,,,,,,,,,,,,,,,,,,,,,,,,,,,,,,,,,,,,,,,,,,,,,,,,,,,,,,,,,,,,,,,,,,,,,,,,,,,,,,,,,,,,,,,,,,,,,,,,,,,,,,,,,,,,,,,,,,,,,,,,,,,,,,,,
,,6163383249e8518fc08e105f,2024-02-18_23h10.50.189,kallum_motion_pilot,2023.2.2,Win32,60.24096386,6163383249e8518fc08e105f,65d2b6c8f2eece985d8e374c,65d2b8013d1e491d72e7ec04,0.0792,0.0793,1,17,179,6,1,fourtwo,,,,,,,,,,,,,,,,,,,,,,,,,,,,,,,,,,,,,,,,,,,,,,,,,,,,,,,,,,,,,,,,,,,,,,,,,,,,,,,,,,,,,,,,,,,,,,,,,,,,,,,,,,,,,,,,,,,,,,,,,,,,,,,,,,,,,,,,,
,,6163383249e8518fc08e105f,2024-02-18_23h10.50.189,kallum_motion_pilot,2023.2.2,Win32,60.24096386,6163383249e8518fc08e105f,65d2b6c8f2eece985d8e374c,65d2b8013d1e491d72e7ec04,0.0794,0.0794,1,18,180,45,1,threefour,,,,,,,,,,,,,,,,,,,,,,,,,,,,,,,,,,,,,,,,,,,,,,,,,,,,,,,,,,,,,,,,,,,,,,,,,,,,,,,,,,,,,,,,,,,,,,,,,,,,,,,,,,,,,,,,,,,,,,,,,,,,,,,,,,,,,,,,,
,,6163383249e8518fc08e105f,2024-02-18_23h10.50.189,kallum_motion_pilot,2023.2.2,Win32,60.24096386,6163383249e8518fc08e105f,65d2b6c8f2eece985d8e374c,65d2b8013d1e491d72e7ec04,0.0796,0.0797,1,19,181,119,1,eightseven,,,,,,,,,,,,,,,,,,,,,,,,,,,,,,,,,,,,,,,,,,,,,,,,,,,,,,,,,,,,,,,,,,,,,,,,,,,,,,,,,,,,,,,,,,,,,,,,,,,,,,,,,,,,,,,,,,,,,,,,,,,,,,,,,,,,,,,,,
,,6163383249e8518fc08e105f,2024-02-18_23h10.50.189,kallum_motion_pilot,2023.2.2,Win32,60.24096386,6163383249e8518fc08e105f,65d2b6c8f2eece985d8e374c,65d2b8013d1e491d72e7ec04,0.0798,0.0799,1,20,182,84,1,sevenfive,,,,,,,,,,,,,,,,,,,,,,,,,,,,,,,,,,,,,,,,,,,,,,,,,,,,,,,,,,,,,,,,,,,,,,,,,,,,,,,,,,,,,,,,,,,,,,,,,,,,,,,,,,,,,,,,,,,,,,,,,,,,,,,,,,,,,,,,,
,,6163383249e8518fc08e105f,2024-02-18_23h10.50.189,kallum_motion_pilot,2023.2.2,Win32,60.24096386,6163383249e8518fc08e105f,65d2b6c8f2eece985d8e374c,65d2b8013d1e491d72e7ec04,0.0801,0.0801,1,21,183,85,1,seveneight,,,,,,,,,,,,,,,,,,,,,,,,,,,,,,,,,,,,,,,,,,,,,,,,,,,,,,,,,,,,,,,,,,,,,,,,,,,,,,,,,,,,,,,,,,,,,,,,,,,,,,,,,,,,,,,,,,,,,,,,,,,,,,,,,,,,,,,,,
,,6163383249e8518fc08e105f,2024-02-18_23h10.50.189,kallum_motion_pilot,2023.2.2,Win32,60.24096386,6163383249e8518fc08e105f,65d2b6c8f2eece985d8e374c,65d2b8013d1e491d72e7ec04,0.0803,0.0805,1,22,184,63,1,fourthree,,,,,,,,,,,,,,,,,,,,,,,,,,,,,,,,,,,,,,,,,,,,,,,,,,,,,,,,,,,,,,,,,,,,,,,,,,,,,,,,,,,,,,,,,,,,,,,,,,,,,,,,,,,,,,,,,,,,,,,,,,,,,,,,,,,,,,,,,
,,6163383249e8518fc08e105f,2024-02-18_23h10.50.189,kallum_motion_pilot,2023.2.2,Win32,60.24096386,6163383249e8518fc08e105f,65d2b6c8f2eece985d8e374c,65d2b8013d1e491d72e7ec04,0.0812,0.0814,1,23,185,161,1,fiveseven,,,,,,,,,,,,,,,,,,,,,,,,,,,,,,,,,,,,,,,,,,,,,,,,,,,,,,,,,,,,,,,,,,,,,,,,,,,,,,,,,,,,,,,,,,,,,,,,,,,,,,,,,,,,,,,,,,,,,,,,,,,,,,,,,,,,,,,,,
,,6163383249e8518fc08e105f,2024-02-18_23h10.50.189,kallum_motion_pilot,2023.2.2,Win32,60.24096386,6163383249e8518fc08e105f,65d2b6c8f2eece985d8e374c,65d2b8013d1e491d72e7ec04,0.0818,0.0819,1,24,186,81,1,fiveseven,,,,,,,,,,,,,,,,,,,,,,,,,,,,,,,,,,,,,,,,,,,,,,,,,,,,,,,,,,,,,,,,,,,,,,,,,,,,,,,,,,,,,,,,,,,,,,,,,,,,,,,,,,,,,,,,,,,,,,,,,,,,,,,,,,,,,,,,,
,,6163383249e8518fc08e105f,2024-02-18_23h10.50.189,kallum_motion_pilot,2023.2.2,Win32,60.24096386,6163383249e8518fc08e105f,65d2b6c8f2eece985d8e374c,65d2b8013d1e491d72e7ec04,0.0821,0.0822,1,25,187,150,1,eightsix,,,,,,,,,,,,,,,,,,,,,,,,,,,,,,,,,,,,,,,,,,,,,,,,,,,,,,,,,,,,,,,,,,,,,,,,,,,,,,,,,,,,,,,,,,,,,,,,,,,,,,,,,,,,,,,,,,,,,,,,,,,,,,,,,,,,,,,,,
,,6163383249e8518fc08e105f,2024-02-18_23h10.50.189,kallum_motion_pilot,2023.2.2,Win32,60.24096386,6163383249e8518fc08e105f,65d2b6c8f2eece985d8e374c,65d2b8013d1e491d72e7ec04,0.0823,0.0825,1,26,188,1,1,onethree,,,,,,,,,,,,,,,,,,,,,,,,,,,,,,,,,,,,,,,,,,,,,,,,,,,,,,,,,,,,,,,,,,,,,,,,,,,,,,,,,,,,,,,,,,,,,,,,,,,,,,,,,,,,,,,,,,,,,,,,,,,,,,,,,,,,,,,,,
,,6163383249e8518fc08e105f,2024-02-18_23h10.50.189,kallum_motion_pilot,2023.2.2,Win32,60.24096386,6163383249e8518fc08e105f,65d2b6c8f2eece985d8e374c,65d2b8013d1e491d72e7ec04,0.0825,0.0827,1,27,189,49,1,onethree,,,,,,,,,,,,,,,,,,,,,,,,,,,,,,,,,,,,,,,,,,,,,,,,,,,,,,,,,,,,,,,,,,,,,,,,,,,,,,,,,,,,,,,,,,,,,,,,,,,,,,,,,,,,,,,,,,,,,,,,,,,,,,,,,,,,,,,,,
,,6163383249e8518fc08e105f,2024-02-18_23h10.50.189,kallum_motion_pilot,2023.2.2,Win32,60.24096386,6163383249e8518fc08e105f,65d2b6c8f2eece985d8e374c,65d2b8013d1e491d72e7ec04,0.0829,0.0829,1,28,190,35,1,twofour,,,,,,,,,,,,,,,,,,,,,,,,,,,,,,,,,,,,,,,,,,,,,,,,,,,,,,,,,,,,,,,,,,,,,,,,,,,,,,,,,,,,,,,,,,,,,,,,,,,,,,,,,,,,,,,,,,,,,,,,,,,,,,,,,,,,,,,,,
,,6163383249e8518fc08e105f,2024-02-18_23h10.50.189,kallum_motion_pilot,2023.2.2,Win32,60.24096386,6163383249e8518fc08e105f,65d2b6c8f2eece985d8e374c,65d2b8013d1e491d72e7ec04,0.083,0.0832,1,29,191,41,1,onethree,,,,,,,,,,,,,,,,,,,,,,,,,,,,,,,,,,,,,,,,,,,,,,,,,,,,,,,,,,,,,,,,,,,,,,,,,,,,,,,,,,,,,,,,,,,,,,,,,,,,,,,,,,,,,,,,,,,,,,,,,,,,,,,,,,,,,,,,,
,,6163383249e8518fc08e105f,2024-02-18_23h10.50.189,kallum_motion_pilot,2023.2.2,Win32,60.24096386,6163383249e8518fc08e105f,65d2b6c8f2eece985d8e374c,65d2b8013d1e491d72e7ec04,0.0833,0.0834,1,30,192,80,1,fivesix,,,,,,,,,,,,,,,,,,,,,,,,,,,,,,,,,,,,,,,,,,,,,,,,,,,,,,,,,,,,,,,,,,,,,,,,,,,,,,,,,,,,,,,,,,,,,,,,,,,,,,,,,,,,,,,,,,,,,,,,,,,,,,,,,,,,,,,,,
,,6163383249e8518fc08e105f,2024-02-18_23h10.50.189,kallum_motion_pilot,2023.2.2,Win32,60.24096386,6163383249e8518fc08e105f,65d2b6c8f2eece985d8e374c,65d2b8013d1e491d72e7ec04,0.0835,0.0836,1,31,193,52,1,threeone,,,,,,,,,,,,,,,,,,,,,,,,,,,,,,,,,,,,,,,,,,,,,,,,,,,,,,,,,,,,,,,,,,,,,,,,,,,,,,,,,,,,,,,,,,,,,,,,,,,,,,,,,,,,,,,,,,,,,,,,,,,,,,,,,,,,,,,,,
,,6163383249e8518fc08e105f,2024-02-18_23h10.50.189,kallum_motion_pilot,2023.2.2,Win32,60.24096386,6163383249e8518fc08e105f,65d2b6c8f2eece985d8e374c,65d2b8013d1e491d72e7ec04,0.0838,0.084,1,32,194,131,1,sixeight,,,,,,,,,,,,,,,,,,,,,,,,,,,,,,,,,,,,,,,,,,,,,,,,,,,,,,,,,,,,,,,,,,,,,,,,,,,,,,,,,,,,,,,,,,,,,,,,,,,,,,,,,,,,,,,,,,,,,,,,,,,,,,,,,,,,,,,,,
,,6163383249e8518fc08e105f,2024-02-18_23h10.50.189,kallum_motion_pilot,2023.2.2,Win32,60.24096386,6163383249e8518fc08e105f,65d2b6c8f2eece985d8e374c,65d2b8013d1e491d72e7ec04,0.0842,0.0843,1,33,195,153,1,fiveseven,,,,,,,,,,,,,,,,,,,,,,,,,,,,,,,,,,,,,,,,,,,,,,,,,,,,,,,,,,,,,,,,,,,,,,,,,,,,,,,,,,,,,,,,,,,,,,,,,,,,,,,,,,,,,,,,,,,,,,,,,,,,,,,,,,,,,,,,,
,,6163383249e8518fc08e105f,2024-02-18_23h10.50.189,kallum_motion_pilot,2023.2.2,Win32,60.24096386,6163383249e8518fc08e105f,65d2b6c8f2eece985d8e374c,65d2b8013d1e491d72e7ec04,0.0845,0.0847,1,34,196,27,1,twofour,,,,,,,,,,,,,,,,,,,,,,,,,,,,,,,,,,,,,,,,,,,,,,,,,,,,,,,,,,,,,,,,,,,,,,,,,,,,,,,,,,,,,,,,,,,,,,,,,,,,,,,,,,,,,,,,,,,,,,,,,,,,,,,,,,,,,,,,,
,,6163383249e8518fc08e105f,2024-02-18_23h10.50.189,kallum_motion_pilot,2023.2.2,Win32,60.24096386,6163383249e8518fc08e105f,65d2b6c8f2eece985d8e374c,65d2b8013d1e491d72e7ec04,0.0849,0.085,1,35,197,67,1,twofour,,,,,,,,,,,,,,,,,,,,,,,,,,,,,,,,,,,,,,,,,,,,,,,,,,,,,,,,,,,,,,,,,,,,,,,,,,,,,,,,,,,,,,,,,,,,,,,,,,,,,,,,,,,,,,,,,,,,,,,,,,,,,,,,,,,,,,,,,
,,6163383249e8518fc08e105f,2024-02-18_23h10.50.189,kallum_motion_pilot,2023.2.2,Win32,60.24096386,6163383249e8518fc08e105f,65d2b6c8f2eece985d8e374c,65d2b8013d1e491d72e7ec04,0.0851,0.0852,1,36,198,36,1,threeone,,,,,,,,,,,,,,,,,,,,,,,,,,,,,,,,,,,,,,,,,,,,,,,,,,,,,,,,,,,,,,,,,,,,,,,,,,,,,,,,,,,,,,,,,,,,,,,,,,,,,,,,,,,,,,,,,,,,,,,,,,,,,,,,,,,,,,,,,
,,6163383249e8518fc08e105f,2024-02-18_23h10.50.189,kallum_motion_pilot,2023.2.2,Win32,60.24096386,6163383249e8518fc08e105f,65d2b6c8f2eece985d8e374c,65d2b8013d1e491d72e7ec04,0.0853,0.0855,1,37,199,117,1,seveneight,,,,,,,,,,,,,,,,,,,,,,,,,,,,,,,,,,,,,,,,,,,,,,,,,,,,,,,,,,,,,,,,,,,,,,,,,,,,,,,,,,,,,,,,,,,,,,,,,,,,,,,,,,,,,,,,,,,,,,,,,,,,,,,,,,,,,,,,,
,,6163383249e8518fc08e105f,2024-02-18_23h10.50.189,kallum_motion_pilot,2023.2.2,Win32,60.24096386,6163383249e8518fc08e105f,65d2b6c8f2eece985d8e374c,65d2b8013d1e491d72e7ec04,0.0855,0.0857,1,38,200,128,1,fivesix,,,,,,,,,,,,,,,,,,,,,,,,,,,,,,,,,,,,,,,,,,,,,,,,,,,,,,,,,,,,,,,,,,,,,,,,,,,,,,,,,,,,,,,,,,,,,,,,,,,,,,,,,,,,,,,,,,,,,,,,,,,,,,,,,,,,,,,,,
,,6163383249e8518fc08e105f,2024-02-18_23h10.50.189,kallum_motion_pilot,2023.2.2,Win32,60.24096386,6163383249e8518fc08e105f,65d2b6c8f2eece985d8e374c,65d2b8013d1e491d72e7ec04,0.0858,0.0859,1,39,201,111,1,eightseven,,,,,,,,,,,,,,,,,,,,,,,,,,,,,,,,,,,,,,,,,,,,,,,,,,,,,,,,,,,,,,,,,,,,,,,,,,,,,,,,,,,,,,,,,,,,,,,,,,,,,,,,,,,,,,,,,,,,,,,,,,,,,,,,,,,,,,,,,
,,6163383249e8518fc08e105f,2024-02-18_23h10.50.189,kallum_motion_pilot,2023.2.2,Win32,60.24096386,6163383249e8518fc08e105f,65d2b6c8f2eece985d8e374c,65d2b8013d1e491d72e7ec04,0.086,0.0861,1,40,202,38,1,fourtwo,,,,,,,,,,,,,,,,,,,,,,,,,,,,,,,,,,,,,,,,,,,,,,,,,,,,,,,,,,,,,,,,,,,,,,,,,,,,,,,,,,,,,,,,,,,,,,,,,,,,,,,,,,,,,,,,,,,,,,,,,,,,,,,,,,,,,,,,,
,,6163383249e8518fc08e105f,2024-02-18_23h10.50.189,kallum_motion_pilot,2023.2.2,Win32,60.24096386,6163383249e8518fc08e105f,65d2b6c8f2eece985d8e374c,65d2b8013d1e491d72e7ec04,0.0863,0.0863,1,41,203,149,1,seveneight,,,,,,,,,,,,,,,,,,,,,,,,,,,,,,,,,,,,,,,,,,,,,,,,,,,,,,,,,,,,,,,,,,,,,,,,,,,,,,,,,,,,,,,,,,,,,,,,,,,,,,,,,,,,,,,,,,,,,,,,,,,,,,,,,,,,,,,,,
,,6163383249e8518fc08e105f,2024-02-18_23h10.50.189,kallum_motion_pilot,2023.2.2,Win32,60.24096386,6163383249e8518fc08e105f,65d2b6c8f2eece985d8e374c,65d2b8013d1e491d72e7ec04,0.0865,0.0866,1,42,204,47,1,fourthree,,,,,,,,,,,,,,,,,,,,,,,,,,,,,,,,,,,,,,,,,,,,,,,,,,,,,,,,,,,,,,,,,,,,,,,,,,,,,,,,,,,,,,,,,,,,,,,,,,,,,,,,,,,,,,,,,,,,,,,,,,,,,,,,,,,,,,,,,
,,6163383249e8518fc08e105f,2024-02-18_23h10.50.189,kallum_motion_pilot,2023.2.2,Win32,60.24096386,6163383249e8518fc08e105f,65d2b6c8f2eece985d8e374c,65d2b8013d1e491d72e7ec04,0.0867,0.0868,1,43,205,20,1,threeone,,,,,,,,,,,,,,,,,,,,,,,,,,,,,,,,,,,,,,,,,,,,,,,,,,,,,,,,,,,,,,,,,,,,,,,,,,,,,,,,,,,,,,,,,,,,,,,,,,,,,,,,,,,,,,,,,,,,,,,,,,,,,,,,,,,,,,,,,
,,6163383249e8518fc08e105f,2024-02-18_23h10.50.189,kallum_motion_pilot,2023.2.2,Win32,60.24096386,6163383249e8518fc08e105f,65d2b6c8f2eece985d8e374c,65d2b8013d1e491d72e7ec04,0.087,0.087,1,44,206,99,1,sixeight,,,,,,,,,,,,,,,,,,,,,,,,,,,,,,,,,,,,,,,,,,,,,,,,,,,,,,,,,,,,,,,,,,,,,,,,,,,,,,,,,,,,,,,,,,,,,,,,,,,,,,,,,,,,,,,,,,,,,,,,,,,,,,,,,,,,,,,,,
,,6163383249e8518fc08e105f,2024-02-18_23h10.50.189,kallum_motion_pilot,2023.2.2,Win32,60.24096386,6163383249e8518fc08e105f,65d2b6c8f2eece985d8e374c,65d2b8013d1e491d72e7ec04,0.0872,0.0873,1,45,207,107,1,sixeight,,,,,,,,,,,,,,,,,,,,,,,,,,,,,,,,,,,,,,,,,,,,,,,,,,,,,,,,,,,,,,,,,,,,,,,,,,,,,,,,,,,,,,,,,,,,,,,,,,,,,,,,,,,,,,,,,,,,,,,,,,,,,,,,,,,,,,,,,
,,6163383249e8518fc08e105f,2024-02-18_23h10.50.189,kallum_motion_pilot,2023.2.2,Win32,60.24096386,6163383249e8518fc08e105f,65d2b6c8f2eece985d8e374c,65d2b8013d1e491d72e7ec04,0.0874,0.0876,1,46,208,23,1,fourthree,,,,,,,,,,,,,,,,,,,,,,,,,,,,,,,,,,,,,,,,,,,,,,,,,,,,,,,,,,,,,,,,,,,,,,,,,,,,,,,,,,,,,,,,,,,,,,,,,,,,,,,,,,,,,,,,,,,,,,,,,,,,,,,,,,,,,,,,,
,,6163383249e8518fc08e105f,2024-02-18_23h10.50.189,kallum_motion_pilot,2023.2.2,Win32,60.24096386,6163383249e8518fc08e105f,65d2b6c8f2eece985d8e374c,65d2b8013d1e491d72e7ec04,0.0876,0.0878,1,47,209,39,1,fourthree,,,,,,,,,,,,,,,,,,,,,,,,,,,,,,,,,,,,,,,,,,,,,,,,,,,,,,,,,,,,,,,,,,,,,,,,,,,,,,,,,,,,,,,,,,,,,,,,,,,,,,,,,,,,,,,,,,,,,,,,,,,,,,,,,,,,,,,,,
,,6163383249e8518fc08e105f,2024-02-18_23h10.50.189,kallum_motion_pilot,2023.2.2,Win32,60.24096386,6163383249e8518fc08e105f,65d2b6c8f2eece985d8e374c,65d2b8013d1e491d72e7ec04,0.0879,0.088,1,48,210,22,1,fourtwo,,,,,,,,,,,,,,,,,,,,,,,,,,,,,,,,,,,,,,,,,,,,,,,,,,,,,,,,,,,,,,,,,,,,,,,,,,,,,,,,,,,,,,,,,,,,,,,,,,,,,,,,,,,,,,,,,,,,,,,,,,,,,,,,,,,,,,,,,
,,6163383249e8518fc08e105f,2024-02-18_23h10.50.189,kallum_motion_pilot,2023.2.2,Win32,60.24096386,6163383249e8518fc08e105f,65d2b6c8f2eece985d8e374c,65d2b8013d1e491d72e7ec04,0.0881,0.0882,1,49,211,29,1,threefour,,,,,,,,,,,,,,,,,,,,,,,,,,,,,,,,,,,,,,,,,,,,,,,,,,,,,,,,,,,,,,,,,,,,,,,,,,,,,,,,,,,,,,,,,,,,,,,,,,,,,,,,,,,,,,,,,,,,,,,,,,,,,,,,,,,,,,,,,
,,6163383249e8518fc08e105f,2024-02-18_23h10.50.189,kallum_motion_pilot,2023.2.2,Win32,60.24096386,6163383249e8518fc08e105f,65d2b6c8f2eece985d8e374c,65d2b8013d1e491d72e7ec04,0.0884,0.0885,1,50,212,96,1,fivesix,,,,,,,,,,,,,,,,,,,,,,,,,,,,,,,,,,,,,,,,,,,,,,,,,,,,,,,,,,,,,,,,,,,,,,,,,,,,,,,,,,,,,,,,,,,,,,,,,,,,,,,,,,,,,,,,,,,,,,,,,,,,,,,,,,,,,,,,,
,,6163383249e8518fc08e105f,2024-02-18_23h10.50.189,kallum_motion_pilot,2023.2.2,Win32,60.24096386,6163383249e8518fc08e105f,65d2b6c8f2eece985d8e374c,65d2b8013d1e491d72e7ec04,0.0886,0.0888,1,51,213,69,1,threefour,,,,,,,,,,,,,,,,,,,,,,,,,,,,,,,,,,,,,,,,,,,,,,,,,,,,,,,,,,,,,,,,,,,,,,,,,,,,,,,,,,,,,,,,,,,,,,,,,,,,,,,,,,,,,,,,,,,,,,,,,,,,,,,,,,,,,,,,,
,,6163383249e8518fc08e105f,2024-02-18_23h10.50.189,kallum_motion_pilot,2023.2.2,Win32,60.24096386,6163383249e8518fc08e105f,65d2b6c8f2eece985d8e374c,65d2b8013d1e491d72e7ec04,0.0889,0.089,1,52,214,121,1,fiveseven,,,,,,,,,,,,,,,,,,,,,,,,,,,,,,,,,,,,,,,,,,,,,,,,,,,,,,,,,,,,,,,,,,,,,,,,,,,,,,,,,,,,,,,,,,,,,,,,,,,,,,,,,,,,,,,,,,,,,,,,,,,,,,,,,,,,,,,,,
,,6163383249e8518fc08e105f,2024-02-18_23h10.50.189,kallum_motion_pilot,2023.2.2,Win32,60.24096386,6163383249e8518fc08e105f,65d2b6c8f2eece985d8e374c,65d2b8013d1e491d72e7ec04,0.0891,0.0892,1,53,215,71,1,fourthree,,,,,,,,,,,,,,,,,,,,,,,,,,,,,,,,,,,,,,,,,,,,,,,,,,,,,,,,,,,,,,,,,,,,,,,,,,,,,,,,,,,,,,,,,,,,,,,,,,,,,,,,,,,,,,,,,,,,,,,,,,,,,,,,,,,,,,,,,
,,6163383249e8518fc08e105f,2024-02-18_23h10.50.189,kallum_motion_pilot,2023.2.2,Win32,60.24096386,6163383249e8518fc08e105f,65d2b6c8f2eece985d8e374c,65d2b8013d1e491d72e7ec04,0.0894,0.0895,1,54,216,86,1,eightsix,,,,,,,,,,,,,,,,,,,,,,,,,,,,,,,,,,,,,,,,,,,,,,,,,,,,,,,,,,,,,,,,,,,,,,,,,,,,,,,,,,,,,,,,,,,,,,,,,,,,,,,,,,,,,,,,,,,,,,,,,,,,,,,,,,,,,,,,,
,,6163383249e8518fc08e105f,2024-02-18_23h10.50.189,kallum_motion_pilot,2023.2.2,Win32,60.24096386,6163383249e8518fc08e105f,65d2b6c8f2eece985d8e374c,65d2b8013d1e491d72e7ec04,0.0896,0.0897,1,55,217,62,1,fourtwo,,,,,,,,,,,,,,,,,,,,,,,,,,,,,,,,,,,,,,,,,,,,,,,,,,,,,,,,,,,,,,,,,,,,,,,,,,,,,,,,,,,,,,,,,,,,,,,,,,,,,,,,,,,,,,,,,,,,,,,,,,,,,,,,,,,,,,,,,
,,6163383249e8518fc08e105f,2024-02-18_23h10.50.189,kallum_motion_pilot,2023.2.2,Win32,60.24096386,6163383249e8518fc08e105f,65d2b6c8f2eece985d8e374c,65d2b8013d1e491d72e7ec04,0.0898,0.0899,1,56,218,137,1,fiveseven,,,,,,,,,,,,,,,,,,,,,,,,,,,,,,,,,,,,,,,,,,,,,,,,,,,,,,,,,,,,,,,,,,,,,,,,,,,,,,,,,,,,,,,,,,,,,,,,,,,,,,,,,,,,,,,,,,,,,,,,,,,,,,,,,,,,,,,,,
,,6163383249e8518fc08e105f,2024-02-18_23h10.50.189,kallum_motion_pilot,2023.2.2,Win32,60.24096386,6163383249e8518fc08e105f,65d2b6c8f2eece985d8e374c,65d2b8013d1e491d72e7ec04,0.0901,0.0902,1,57,219,91,1,sixeight,,,,,,,,,,,,,,,,,,,,,,,,,,,,,,,,,,,,,,,,,,,,,,,,,,,,,,,,,,,,,,,,,,,,,,,,,,,,,,,,,,,,,,,,,,,,,,,,,,,,,,,,,,,,,,,,,,,,,,,,,,,,,,,,,,,,,,,,,
,,6163383249e8518fc08e105f,2024-02-18_23h10.50.189,kallum_motion_pilot,2023.2.2,Win32,60.24096386,6163383249e8518fc08e105f,65d2b6c8f2eece985d8e374c,65d2b8013d1e491d72e7ec04,0.0903,0.0904,1,58,220,147,1,sixeight,,,,,,,,,,,,,,,,,,,,,,,,,,,,,,,,,,,,,,,,,,,,,,,,,,,,,,,,,,,,,,,,,,,,,,,,,,,,,,,,,,,,,,,,,,,,,,,,,,,,,,,,,,,,,,,,,,,,,,,,,,,,,,,,,,,,,,,,,
,,6163383249e8518fc08e105f,2024-02-18_23h10.50.189,kallum_motion_pilot,2023.2.2,Win32,60.24096386,6163383249e8518fc08e105f,65d2b6c8f2eece985d8e374c,65d2b8013d1e491d72e7ec04,0.0905,0.0906,1,59,221,59,1,twofour,,,,,,,,,,,,,,,,,,,,,,,,,,,,,,,,,,,,,,,,,,,,,,,,,,,,,,,,,,,,,,,,,,,,,,,,,,,,,,,,,,,,,,,,,,,,,,,,,,,,,,,,,,,,,,,,,,,,,,,,,,,,,,,,,,,,,,,,,
,,6163383249e8518fc08e105f,2024-02-18_23h10.50.189,kallum_motion_pilot,2023.2.2,Win32,60.24096386,6163383249e8518fc08e105f,65d2b6c8f2eece985d8e374c,65d2b8013d1e491d72e7ec04,0.0908,0.0909,1,60,222,0,1,onetwo,,,,,,,,,,,,,,,,,,,,,,,,,,,,,,,,,,,,,,,,,,,,,,,,,,,,,,,,,,,,,,,,,,,,,,,,,,,,,,,,,,,,,,,,,,,,,,,,,,,,,,,,,,,,,,,,,,,,,,,,,,,,,,,,,,,,,,,,,
,,6163383249e8518fc08e105f,2024-02-18_23h10.50.189,kallum_motion_pilot,2023.2.2,Win32,60.24096386,6163383249e8518fc08e105f,65d2b6c8f2eece985d8e374c,65d2b8013d1e491d72e7ec04,0.091,0.0912,1,61,223,136,1,fivesix,,,,,,,,,,,,,,,,,,,,,,,,,,,,,,,,,,,,,,,,,,,,,,,,,,,,,,,,,,,,,,,,,,,,,,,,,,,,,,,,,,,,,,,,,,,,,,,,,,,,,,,,,,,,,,,,,,,,,,,,,,,,,,,,,,,,,,,,,
,,6163383249e8518fc08e105f,2024-02-18_23h10.50.189,kallum_motion_pilot,2023.2.2,Win32,60.24096386,6163383249e8518fc08e105f,65d2b6c8f2eece985d8e374c,65d2b8013d1e491d72e7ec04,0.0913,0.0914,1,62,224,9,1,onethree,,,,,,,,,,,,,,,,,,,,,,,,,,,,,,,,,,,,,,,,,,,,,,,,,,,,,,,,,,,,,,,,,,,,,,,,,,,,,,,,,,,,,,,,,,,,,,,,,,,,,,,,,,,,,,,,,,,,,,,,,,,,,,,,,,,,,,,,,
,,6163383249e8518fc08e105f,2024-02-18_23h10.50.189,kallum_motion_pilot,2023.2.2,Win32,60.24096386,6163383249e8518fc08e105f,65d2b6c8f2eece985d8e374c,65d2b8013d1e491d72e7ec04,0.0915,0.0917,1,63,225,108,1,sevenfive,,,,,,,,,,,,,,,,,,,,,,,,,,,,,,,,,,,,,,,,,,,,,,,,,,,,,,,,,,,,,,,,,,,,,,,,,,,,,,,,,,,,,,,,,,,,,,,,,,,,,,,,,,,,,,,,,,,,,,,,,,,,,,,,,,,,,,,,,
,,6163383249e8518fc08e105f,2024-02-18_23h10.50.189,kallum_motion_pilot,2023.2.2,Win32,60.24096386,6163383249e8518fc08e105f,65d2b6c8f2eece985d8e374c,65d2b8013d1e491d72e7ec04,0.0919,0.0921,1,64,226,15,1,fourthree,,,,,,,,,,,,,,,,,,,,,,,,,,,,,,,,,,,,,,,,,,,,,,,,,,,,,,,,,,,,,,,,,,,,,,,,,,,,,,,,,,,,,,,,,,,,,,,,,,,,,,,,,,,,,,,,,,,,,,,,,,,,,,,,,,,,,,,,,
,,6163383249e8518fc08e105f,2024-02-18_23h10.50.189,kallum_motion_pilot,2023.2.2,Win32,60.24096386,6163383249e8518fc08e105f,65d2b6c8f2eece985d8e374c,65d2b8013d1e491d72e7ec04,0.0922,0.0923,1,65,227,34,1,twoone,,,,,,,,,,,,,,,,,,,,,,,,,,,,,,,,,,,,,,,,,,,,,,,,,,,,,,,,,,,,,,,,,,,,,,,,,,,,,,,,,,,,,,,,,,,,,,,,,,,,,,,,,,,,,,,,,,,,,,,,,,,,,,,,,,,,,,,,,
,,6163383249e8518fc08e105f,2024-02-18_23h10.50.189,kallum_motion_pilot,2023.2.2,Win32,60.24096386,6163383249e8518fc08e105f,65d2b6c8f2eece985d8e374c,65d2b8013d1e491d72e7ec04,0.0924,0.0926,1,66,228,126,1,eightsix,,,,,,,,,,,,,,,,,,,,,,,,,,,,,,,,,,,,,,,,,,,,,,,,,,,,,,,,,,,,,,,,,,,,,,,,,,,,,,,,,,,,,,,,,,,,,,,,,,,,,,,,,,,,,,,,,,,,,,,,,,,,,,,,,,,,,,,,,
,,6163383249e8518fc08e105f,2024-02-18_23h10.50.189,kallum_motion_pilot,2023.2.2,Win32,60.24096386,6163383249e8518fc08e105f,65d2b6c8f2eece985d8e374c,65d2b8013d1e491d72e7ec04,0.0927,0.0928,1,67,229,87,1,eightseven,,,,,,,,,,,,,,,,,,,,,,,,,,,,,,,,,,,,,,,,,,,,,,,,,,,,,,,,,,,,,,,,,,,,,,,,,,,,,,,,,,,,,,,,,,,,,,,,,,,,,,,,,,,,,,,,,,,,,,,,,,,,,,,,,,,,,,,,,
,,6163383249e8518fc08e105f,2024-02-18_23h10.50.189,kallum_motion_pilot,2023.2.2,Win32,60.24096386,6163383249e8518fc08e105f,65d2b6c8f2eece985d8e374c,65d2b8013d1e491d72e7ec04,0.093,0.093,1,68,230,144,1,fivesix,,,,,,,,,,,,,,,,,,,,,,,,,,,,,,,,,,,,,,,,,,,,,,,,,,,,,,,,,,,,,,,,,,,,,,,,,,,,,,,,,,,,,,,,,,,,,,,,,,,,,,,,,,,,,,,,,,,,,,,,,,,,,,,,,,,,,,,,,
,,6163383249e8518fc08e105f,2024-02-18_23h10.50.189,kallum_motion_pilot,2023.2.2,Win32,60.24096386,6163383249e8518fc08e105f,65d2b6c8f2eece985d8e374c,65d2b8013d1e491d72e7ec04,0.0931,0.0933,1,69,231,104,1,fivesix,,,,,,,,,,,,,,,,,,,,,,,,,,,,,,,,,,,,,,,,,,,,,,,,,,,,,,,,,,,,,,,,,,,,,,,,,,,,,,,,,,,,,,,,,,,,,,,,,,,,,,,,,,,,,,,,,,,,,,,,,,,,,,,,,,,,,,,,,
,,6163383249e8518fc08e105f,2024-02-18_23h10.50.189,kallum_motion_pilot,2023.2.2,Win32,60.24096386,6163383249e8518fc08e105f,65d2b6c8f2eece985d8e374c,65d2b8013d1e491d72e7ec04,0.0935,0.0936,1,70,232,53,1,threefour,,,,,,,,,,,,,,,,,,,,,,,,,,,,,,,,,,,,,,,,,,,,,,,,,,,,,,,,,,,,,,,,,,,,,,,,,,,,,,,,,,,,,,,,,,,,,,,,,,,,,,,,,,,,,,,,,,,,,,,,,,,,,,,,,,,,,,,,,
,,6163383249e8518fc08e105f,2024-02-18_23h10.50.189,kallum_motion_pilot,2023.2.2,Win32,60.24096386,6163383249e8518fc08e105f,65d2b6c8f2eece985d8e374c,65d2b8013d1e491d72e7ec04,0.0937,0.0938,1,71,233,110,1,eightsix,,,,,,,,,,,,,,,,,,,,,,,,,,,,,,,,,,,,,,,,,,,,,,,,,,,,,,,,,,,,,,,,,,,,,,,,,,,,,,,,,,,,,,,,,,,,,,,,,,,,,,,,,,,,,,,,,,,,,,,,,,,,,,,,,,,,,,,,,
,,6163383249e8518fc08e105f,2024-02-18_23h10.50.189,kallum_motion_pilot,2023.2.2,Win32,60.24096386,6163383249e8518fc08e105f,65d2b6c8f2eece985d8e374c,65d2b8013d1e491d72e7ec04,0.094,0.094,1,72,234,7,1,fourthree,,,,,,,,,,,,,,,,,,,,,,,,,,,,,,,,,,,,,,,,,,,,,,,,,,,,,,,,,,,,,,,,,,,,,,,,,,,,,,,,,,,,,,,,,,,,,,,,,,,,,,,,,,,,,,,,,,,,,,,,,,,,,,,,,,,,,,,,,
,,6163383249e8518fc08e105f,2024-02-18_23h10.50.189,kallum_motion_pilot,2023.2.2,Win32,60.24096386,6163383249e8518fc08e105f,65d2b6c8f2eece985d8e374c,65d2b8013d1e491d72e7ec04,0.0942,0.0943,1,73,235,100,1,sevenfive,,,,,,,,,,,,,,,,,,,,,,,,,,,,,,,,,,,,,,,,,,,,,,,,,,,,,,,,,,,,,,,,,,,,,,,,,,,,,,,,,,,,,,,,,,,,,,,,,,,,,,,,,,,,,,,,,,,,,,,,,,,,,,,,,,,,,,,,,
,,6163383249e8518fc08e105f,2024-02-18_23h10.50.189,kallum_motion_pilot,2023.2.2,Win32,60.24096386,6163383249e8518fc08e105f,65d2b6c8f2eece985d8e374c,65d2b8013d1e491d72e7ec04,0.0944,0.0946,1,74,236,31,1,fourthree,,,,,,,,,,,,,,,,,,,,,,,,,,,,,,,,,,,,,,,,,,,,,,,,,,,,,,,,,,,,,,,,,,,,,,,,,,,,,,,,,,,,,,,,,,,,,,,,,,,,,,,,,,,,,,,,,,,,,,,,,,,,,,,,,,,,,,,,,
,,6163383249e8518fc08e105f,2024-02-18_23h10.50.189,kallum_motion_pilot,2023.2.2,Win32,60.24096386,6163383249e8518fc08e105f,65d2b6c8f2eece985d8e374c,65d2b8013d1e491d72e7ec04,0.0946,0.0947,1,75,237,54,1,fourtwo,,,,,,,,,,,,,,,,,,,,,,,,,,,,,,,,,,,,,,,,,,,,,,,,,,,,,,,,,,,,,,,,,,,,,,,,,,,,,,,,,,,,,,,,,,,,,,,,,,,,,,,,,,,,,,,,,,,,,,,,,,,,,,,,,,,,,,,,,
,,6163383249e8518fc08e105f,2024-02-18_23h10.50.189,kallum_motion_pilot,2023.2.2,Win32,60.24096386,6163383249e8518fc08e105f,65d2b6c8f2eece985d8e374c,65d2b8013d1e491d72e7ec04,0.0949,0.0949,1,76,238,18,1,twoone,,,,,,,,,,,,,,,,,,,,,,,,,,,,,,,,,,,,,,,,,,,,,,,,,,,,,,,,,,,,,,,,,,,,,,,,,,,,,,,,,,,,,,,,,,,,,,,,,,,,,,,,,,,,,,,,,,,,,,,,,,,,,,,,,,,,,,,,,
,,6163383249e8518fc08e105f,2024-02-18_23h10.50.189,kallum_motion_pilot,2023.2.2,Win32,60.24096386,6163383249e8518fc08e105f,65d2b6c8f2eece985d8e374c,65d2b8013d1e491d72e7ec04,0.0952,0.0952,1,77,239,74,1,twoone,,,,,,,,,,,,,,,,,,,,,,,,,,,,,,,,,,,,,,,,,,,,,,,,,,,,,,,,,,,,,,,,,,,,,,,,,,,,,,,,,,,,,,,,,,,,,,,,,,,,,,,,,,,,,,,,,,,,,,,,,,,,,,,,,,,,,,,,,
,,6163383249e8518fc08e105f,2024-02-18_23h10.50.189,kallum_motion_pilot,2023.2.2,Win32,60.24096386,6163383249e8518fc08e105f,65d2b6c8f2eece985d8e374c,65d2b8013d1e491d72e7ec04,0.0954,0.0955,1,78,240,44,1,threeone,,,,,,,,,,,,,,,,,,,,,,,,,,,,,,,,,,,,,,,,,,,,,,,,,,,,,,,,,,,,,,,,,,,,,,,,,,,,,,,,,,,,,,,,,,,,,,,,,,,,,,,,,,,,,,,,,,,,,,,,,,,,,,,,,,,,,,,,,
,,6163383249e8518fc08e105f,2024-02-18_23h10.50.189,kallum_motion_pilot,2023.2.2,Win32,60.24096386,6163383249e8518fc08e105f,65d2b6c8f2eece985d8e374c,65d2b8013d1e491d72e7ec04,0.0956,0.0957,1,79,241,97,1,fiveseven,,,,,,,,,,,,,,,,,,,,,,,,,,,,,,,,,,,,,,,,,,,,,,,,,,,,,,,,,,,,,,,,,,,,,,,,,,,,,,,,,,,,,,,,,,,,,,,,,,,,,,,,,,,,,,,,,,,,,,,,,,,,,,,,,,,,,,,,,
,,6163383249e8518fc08e105f,2024-02-18_23h10.50.189,kallum_motion_pilot,2023.2.2,Win32,60.24096386,6163383249e8518fc08e105f,65d2b6c8f2eece985d8e374c,65d2b8013d1e491d72e7ec04,0.0958,0.0959,1,80,242,33,1,onethree,,,,,,,,,,,,,,,,,,,,,,,,,,,,,,,,,,,,,,,,,,,,,,,,,,,,,,,,,,,,,,,,,,,,,,,,,,,,,,,,,,,,,,,,,,,,,,,,,,,,,,,,,,,,,,,,,,,,,,,,,,,,,,,,,,,,,,,,,
,,6163383249e8518fc08e105f,2024-02-18_23h10.50.189,kallum_motion_pilot,2023.2.2,Win32,60.24096386,6163383249e8518fc08e105f,65d2b6c8f2eece985d8e374c,65d2b8013d1e491d72e7ec04,0.0961,0.0962,1,81,243,57,1,onethree,,,,,,,,,,,,,,,,,,,,,,,,,,,,,,,,,,,,,,,,,,,,,,,,,,,,,,,,,,,,,,,,,,,,,,,,,,,,,,,,,,,,,,,,,,,,,,,,,,,,,,,,,,,,,,,,,,,,,,,,,,,,,,,,,,,,,,,,,
,,6163383249e8518fc08e105f,2024-02-18_23h10.50.189,kallum_motion_pilot,2023.2.2,Win32,60.24096386,6163383249e8518fc08e105f,65d2b6c8f2eece985d8e374c,65d2b8013d1e491d72e7ec04,0.0963,0.0965,1,82,244,64,1,onetwo,,,,,,,,,,,,,,,,,,,,,,,,,,,,,,,,,,,,,,,,,,,,,,,,,,,,,,,,,,,,,,,,,,,,,,,,,,,,,,,,,,,,,,,,,,,,,,,,,,,,,,,,,,,,,,,,,,,,,,,,,,,,,,,,,,,,,,,,,
,,6163383249e8518fc08e105f,2024-02-18_23h10.50.189,kallum_motion_pilot,2023.2.2,Win32,60.24096386,6163383249e8518fc08e105f,65d2b6c8f2eece985d8e374c,65d2b8013d1e491d72e7ec04,0.0966,0.0967,1,83,245,157,1,seveneight,,,,,,,,,,,,,,,,,,,,,,,,,,,,,,,,,,,,,,,,,,,,,,,,,,,,,,,,,,,,,,,,,,,,,,,,,,,,,,,,,,,,,,,,,,,,,,,,,,,,,,,,,,,,,,,,,,,,,,,,,,,,,,,,,,,,,,,,,
,,6163383249e8518fc08e105f,2024-02-18_23h10.50.189,kallum_motion_pilot,2023.2.2,Win32,60.24096386,6163383249e8518fc08e105f,65d2b6c8f2eece985d8e374c,65d2b8013d1e491d72e7ec04,0.0968,0.0969,1,84,246,112,1,fivesix,,,,,,,,,,,,,,,,,,,,,,,,,,,,,,,,,,,,,,,,,,,,,,,,,,,,,,,,,,,,,,,,,,,,,,,,,,,,,,,,,,,,,,,,,,,,,,,,,,,,,,,,,,,,,,,,,,,,,,,,,,,,,,,,,,,,,,,,,
,,6163383249e8518fc08e105f,2024-02-18_23h10.50.189,kallum_motion_pilot,2023.2.2,Win32,60.24096386,6163383249e8518fc08e105f,65d2b6c8f2eece985d8e374c,65d2b8013d1e491d72e7ec04,0.0971,0.0975,1,85,247,88,1,fivesix,,,,,,,,,,,,,,,,,,,,,,,,,,,,,,,,,,,,,,,,,,,,,,,,,,,,,,,,,,,,,,,,,,,,,,,,,,,,,,,,,,,,,,,,,,,,,,,,,,,,,,,,,,,,,,,,,,,,,,,,,,,,,,,,,,,,,,,,,
,,6163383249e8518fc08e105f,2024-02-18_23h10.50.189,kallum_motion_pilot,2023.2.2,Win32,60.24096386,6163383249e8518fc08e105f,65d2b6c8f2eece985d8e374c,65d2b8013d1e491d72e7ec04,0.0977,0.0978,1,86,248,56,1,onetwo,,,,,,,,,,,,,,,,,,,,,,,,,,,,,,,,,,,,,,,,,,,,,,,,,,,,,,,,,,,,,,,,,,,,,,,,,,,,,,,,,,,,,,,,,,,,,,,,,,,,,,,,,,,,,,,,,,,,,,,,,,,,,,,,,,,,,,,,,
,,6163383249e8518fc08e105f,2024-02-18_23h10.50.189,kallum_motion_pilot,2023.2.2,Win32,60.24096386,6163383249e8518fc08e105f,65d2b6c8f2eece985d8e374c,65d2b8013d1e491d72e7ec04,0.0979,0.0981,1,87,249,51,1,twofour,,,,,,,,,,,,,,,,,,,,,,,,,,,,,,,,,,,,,,,,,,,,,,,,,,,,,,,,,,,,,,,,,,,,,,,,,,,,,,,,,,,,,,,,,,,,,,,,,,,,,,,,,,,,,,,,,,,,,,,,,,,,,,,,,,,,,,,,,
,,6163383249e8518fc08e105f,2024-02-18_23h10.50.189,kallum_motion_pilot,2023.2.2,Win32,60.24096386,6163383249e8518fc08e105f,65d2b6c8f2eece985d8e374c,65d2b8013d1e491d72e7ec04,0.0982,0.0983,1,88,250,32,1,onetwo,,,,,,,,,,,,,,,,,,,,,,,,,,,,,,,,,,,,,,,,,,,,,,,,,,,,,,,,,,,,,,,,,,,,,,,,,,,,,,,,,,,,,,,,,,,,,,,,,,,,,,,,,,,,,,,,,,,,,,,,,,,,,,,,,,,,,,,,,
,,6163383249e8518fc08e105f,2024-02-18_23h10.50.189,kallum_motion_pilot,2023.2.2,Win32,60.24096386,6163383249e8518fc08e105f,65d2b6c8f2eece985d8e374c,65d2b8013d1e491d72e7ec04,0.0984,0.0985,1,89,251,10,1,twoone,,,,,,,,,,,,,,,,,,,,,,,,,,,,,,,,,,,,,,,,,,,,,,,,,,,,,,,,,,,,,,,,,,,,,,,,,,,,,,,,,,,,,,,,,,,,,,,,,,,,,,,,,,,,,,,,,,,,,,,,,,,,,,,,,,,,,,,,,
,,6163383249e8518fc08e105f,2024-02-18_23h10.50.189,kallum_motion_pilot,2023.2.2,Win32,60.24096386,6163383249e8518fc08e105f,65d2b6c8f2eece985d8e374c,65d2b8013d1e491d72e7ec04,0.0987,0.0988,1,90,252,73,1,onethree,,,,,,,,,,,,,,,,,,,,,,,,,,,,,,,,,,,,,,,,,,,,,,,,,,,,,,,,,,,,,,,,,,,,,,,,,,,,,,,,,,,,,,,,,,,,,,,,,,,,,,,,,,,,,,,,,,,,,,,,,,,,,,,,,,,,,,,,,
,,6163383249e8518fc08e105f,2024-02-18_23h10.50.189,kallum_motion_pilot,2023.2.2,Win32,60.24096386,6163383249e8518fc08e105f,65d2b6c8f2eece985d8e374c,65d2b8013d1e491d72e7ec04,0.0989,0.099,1,91,253,70,1,fourtwo,,,,,,,,,,,,,,,,,,,,,,,,,,,,,,,,,,,,,,,,,,,,,,,,,,,,,,,,,,,,,,,,,,,,,,,,,,,,,,,,,,,,,,,,,,,,,,,,,,,,,,,,,,,,,,,,,,,,,,,,,,,,,,,,,,,,,,,,,
,,6163383249e8518fc08e105f,2024-02-18_23h10.50.189,kallum_motion_pilot,2023.2.2,Win32,60.24096386,6163383249e8518fc08e105f,65d2b6c8f2eece985d8e374c,65d2b8013d1e491d72e7ec04,0.0992,0.0993,1,92,254,145,1,fiveseven,,,,,,,,,,,,,,,,,,,,,,,,,,,,,,,,,,,,,,,,,,,,,,,,,,,,,,,,,,,,,,,,,,,,,,,,,,,,,,,,,,,,,,,,,,,,,,,,,,,,,,,,,,,,,,,,,,,,,,,,,,,,,,,,,,,,,,,,,
,,6163383249e8518fc08e105f,2024-02-18_23h10.50.189,kallum_motion_pilot,2023.2.2,Win32,60.24096386,6163383249e8518fc08e105f,65d2b6c8f2eece985d8e374c,65d2b8013d1e491d72e7ec04,0.0996,0.0998,1,93,255,78,1,fourtwo,,,,,,,,,,,,,,,,,,,,,,,,,,,,,,,,,,,,,,,,,,,,,,,,,,,,,,,,,,,,,,,,,,,,,,,,,,,,,,,,,,,,,,,,,,,,,,,,,,,,,,,,,,,,,,,,,,,,,,,,,,,,,,,,,,,,,,,,,
,,6163383249e8518fc08e105f,2024-02-18_23h10.50.189,kallum_motion_pilot,2023.2.2,Win32,60.24096386,6163383249e8518fc08e105f,65d2b6c8f2eece985d8e374c,65d2b8013d1e491d72e7ec04,0.1,0.1001,1,94,256,68,1,threeone,,,,,,,,,,,,,,,,,,,,,,,,,,,,,,,,,,,,,,,,,,,,,,,,,,,,,,,,,,,,,,,,,,,,,,,,,,,,,,,,,,,,,,,,,,,,,,,,,,,,,,,,,,,,,,,,,,,,,,,,,,,,,,,,,,,,,,,,,
,,6163383249e8518fc08e105f,2024-02-18_23h10.50.189,kallum_motion_pilot,2023.2.2,Win32,60.24096386,6163383249e8518fc08e105f,65d2b6c8f2eece985d8e374c,65d2b8013d1e491d72e7ec04,0.1002,0.1003,1,95,257,58,1,twoone,,,,,,,,,,,,,,,,,,,,,,,,,,,,,,,,,,,,,,,,,,,,,,,,,,,,,,,,,,,,,,,,,,,,,,,,,,,,,,,,,,,,,,,,,,,,,,,,,,,,,,,,,,,,,,,,,,,,,,,,,,,,,,,,,,,,,,,,,
,,6163383249e8518fc08e105f,2024-02-18_23h10.50.189,kallum_motion_pilot,2023.2.2,Win32,60.24096386,6163383249e8518fc08e105f,65d2b6c8f2eece985d8e374c,65d2b8013d1e491d72e7ec04,0.1005,0.1006,1,96,258,154,1,sixfive,,,,,,,,,,,,,,,,,,,,,,,,,,,,,,,,,,,,,,,,,,,,,,,,,,,,,,,,,,,,,,,,,,,,,,,,,,,,,,,,,,,,,,,,,,,,,,,,,,,,,,,,,,,,,,,,,,,,,,,,,,,,,,,,,,,,,,,,,
,,6163383249e8518fc08e105f,2024-02-18_23h10.50.189,kallum_motion_pilot,2023.2.2,Win32,60.24096386,6163383249e8518fc08e105f,65d2b6c8f2eece985d8e374c,65d2b8013d1e491d72e7ec04,0.1007,0.1009,1,97,259,11,1,twofour,,,,,,,,,,,,,,,,,,,,,,,,,,,,,,,,,,,,,,,,,,,,,,,,,,,,,,,,,,,,,,,,,,,,,,,,,,,,,,,,,,,,,,,,,,,,,,,,,,,,,,,,,,,,,,,,,,,,,,,,,,,,,,,,,,,,,,,,,
,,6163383249e8518fc08e105f,2024-02-18_23h10.50.189,kallum_motion_pilot,2023.2.2,Win32,60.24096386,6163383249e8518fc08e105f,65d2b6c8f2eece985d8e374c,65d2b8013d1e491d72e7ec04,0.101,0.101,1,98,260,98,1,sixfive,,,,,,,,,,,,,,,,,,,,,,,,,,,,,,,,,,,,,,,,,,,,,,,,,,,,,,,,,,,,,,,,,,,,,,,,,,,,,,,,,,,,,,,,,,,,,,,,,,,,,,,,,,,,,,,,,,,,,,,,,,,,,,,,,,,,,,,,,
,,6163383249e8518fc08e105f,2024-02-18_23h10.50.189,kallum_motion_pilot,2023.2.2,Win32,60.24096386,6163383249e8518fc08e105f,65d2b6c8f2eece985d8e374c,65d2b8013d1e491d72e7ec04,0.1012,0.1013,1,99,261,24,1,onetwo,,,,,,,,,,,,,,,,,,,,,,,,,,,,,,,,,,,,,,,,,,,,,,,,,,,,,,,,,,,,,,,,,,,,,,,,,,,,,,,,,,,,,,,,,,,,,,,,,,,,,,,,,,,,,,,,,,,,,,,,,,,,,,,,,,,,,,,,,
,,6163383249e8518fc08e105f,2024-02-18_23h10.50.189,kallum_motion_pilot,2023.2.2,Win32,60.24096386,6163383249e8518fc08e105f,65d2b6c8f2eece985d8e374c,65d2b8013d1e491d72e7ec04,0.1014,0.1015,1,100,262,28,1,threeone,,,,,,,,,,,,,,,,,,,,,,,,,,,,,,,,,,,,,,,,,,,,,,,,,,,,,,,,,,,,,,,,,,,,,,,,,,,,,,,,,,,,,,,,,,,,,,,,,,,,,,,,,,,,,,,,,,,,,,,,,,,,,,,,,,,,,,,,,
,,6163383249e8518fc08e105f,2024-02-18_23h10.50.189,kallum_motion_pilot,2023.2.2,Win32,60.24096386,6163383249e8518fc08e105f,65d2b6c8f2eece985d8e374c,65d2b8013d1e491d72e7ec04,0.1017,0.102,1,101,263,146,1,sixfive,,,,,,,,,,,,,,,,,,,,,,,,,,,,,,,,,,,,,,,,,,,,,,,,,,,,,,,,,,,,,,,,,,,,,,,,,,,,,,,,,,,,,,,,,,,,,,,,,,,,,,,,,,,,,,,,,,,,,,,,,,,,,,,,,,,,,,,,,
,,6163383249e8518fc08e105f,2024-02-18_23h10.50.189,kallum_motion_pilot,2023.2.2,Win32,60.24096386,6163383249e8518fc08e105f,65d2b6c8f2eece985d8e374c,65d2b8013d1e491d72e7ec04,0.1022,0.1024,1,102,264,140,1,sevenfive,,,,,,,,,,,,,,,,,,,,,,,,,,,,,,,,,,,,,,,,,,,,,,,,,,,,,,,,,,,,,,,,,,,,,,,,,,,,,,,,,,,,,,,,,,,,,,,,,,,,,,,,,,,,,,,,,,,,,,,,,,,,,,,,,,,,,,,,,
,,6163383249e8518fc08e105f,2024-02-18_23h10.50.189,kallum_motion_pilot,2023.2.2,Win32,60.24096386,6163383249e8518fc08e105f,65d2b6c8f2eece985d8e374c,65d2b8013d1e491d72e7ec04,0.1027,0.1029,1,103,265,127,1,eightseven,,,,,,,,,,,,,,,,,,,,,,,,,,,,,,,,,,,,,,,,,,,,,,,,,,,,,,,,,,,,,,,,,,,,,,,,,,,,,,,,,,,,,,,,,,,,,,,,,,,,,,,,,,,,,,,,,,,,,,,,,,,,,,,,,,,,,,,,,
,,6163383249e8518fc08e105f,2024-02-18_23h10.50.189,kallum_motion_pilot,2023.2.2,Win32,60.24096386,6163383249e8518fc08e105f,65d2b6c8f2eece985d8e374c,65d2b8013d1e491d72e7ec04,0.103,0.1031,1,104,266,92,1,sevenfive,,,,,,,,,,,,,,,,,,,,,,,,,,,,,,,,,,,,,,,,,,,,,,,,,,,,,,,,,,,,,,,,,,,,,,,,,,,,,,,,,,,,,,,,,,,,,,,,,,,,,,,,,,,,,,,,,,,,,,,,,,,,,,,,,,,,,,,,,
,,6163383249e8518fc08e105f,2024-02-18_23h10.50.189,kallum_motion_pilot,2023.2.2,Win32,60.24096386,6163383249e8518fc08e105f,65d2b6c8f2eece985d8e374c,65d2b8013d1e491d72e7ec04,0.1033,0.1034,1,105,267,83,1,sixeight,,,,,,,,,,,,,,,,,,,,,,,,,,,,,,,,,,,,,,,,,,,,,,,,,,,,,,,,,,,,,,,,,,,,,,,,,,,,,,,,,,,,,,,,,,,,,,,,,,,,,,,,,,,,,,,,,,,,,,,,,,,,,,,,,,,,,,,,,
,,6163383249e8518fc08e105f,2024-02-18_23h10.50.189,kallum_motion_pilot,2023.2.2,Win32,60.24096386,6163383249e8518fc08e105f,65d2b6c8f2eece985d8e374c,65d2b8013d1e491d72e7ec04,0.1036,0.1038,1,106,268,46,1,fourtwo,,,,,,,,,,,,,,,,,,,,,,,,,,,,,,,,,,,,,,,,,,,,,,,,,,,,,,,,,,,,,,,,,,,,,,,,,,,,,,,,,,,,,,,,,,,,,,,,,,,,,,,,,,,,,,,,,,,,,,,,,,,,,,,,,,,,,,,,,
,,6163383249e8518fc08e105f,2024-02-18_23h10.50.189,kallum_motion_pilot,2023.2.2,Win32,60.24096386,6163383249e8518fc08e105f,65d2b6c8f2eece985d8e374c,65d2b8013d1e491d72e7ec04,0.1038,0.104,1,107,269,77,1,threefour,,,,,,,,,,,,,,,,,,,,,,,,,,,,,,,,,,,,,,,,,,,,,,,,,,,,,,,,,,,,,,,,,,,,,,,,,,,,,,,,,,,,,,,,,,,,,,,,,,,,,,,,,,,,,,,,,,,,,,,,,,,,,,,,,,,,,,,,,
,,6163383249e8518fc08e105f,2024-02-18_23h10.50.189,kallum_motion_pilot,2023.2.2,Win32,60.24096386,6163383249e8518fc08e105f,65d2b6c8f2eece985d8e374c,65d2b8013d1e491d72e7ec04,0.1041,0.1043,1,108,270,125,1,seveneight,,,,,,,,,,,,,,,,,,,,,,,,,,,,,,,,,,,,,,,,,,,,,,,,,,,,,,,,,,,,,,,,,,,,,,,,,,,,,,,,,,,,,,,,,,,,,,,,,,,,,,,,,,,,,,,,,,,,,,,,,,,,,,,,,,,,,,,,,
,,6163383249e8518fc08e105f,2024-02-18_23h10.50.189,kallum_motion_pilot,2023.2.2,Win32,60.24096386,6163383249e8518fc08e105f,65d2b6c8f2eece985d8e374c,65d2b8013d1e491d72e7ec04,0.1044,0.1044,1,109,271,115,1,sixeight,,,,,,,,,,,,,,,,,,,,,,,,,,,,,,,,,,,,,,,,,,,,,,,,,,,,,,,,,,,,,,,,,,,,,,,,,,,,,,,,,,,,,,,,,,,,,,,,,,,,,,,,,,,,,,,,,,,,,,,,,,,,,,,,,,,,,,,,,
,,6163383249e8518fc08e105f,2024-02-18_23h10.50.189,kallum_motion_pilot,2023.2.2,Win32,60.24096386,6163383249e8518fc08e105f,65d2b6c8f2eece985d8e374c,65d2b8013d1e491d72e7ec04,0.1046,0.1047,1,110,272,14,1,fourtwo,,,,,,,,,,,,,,,,,,,,,,,,,,,,,,,,,,,,,,,,,,,,,,,,,,,,,,,,,,,,,,,,,,,,,,,,,,,,,,,,,,,,,,,,,,,,,,,,,,,,,,,,,,,,,,,,,,,,,,,,,,,,,,,,,,,,,,,,,
,,6163383249e8518fc08e105f,2024-02-18_23h10.50.189,kallum_motion_pilot,2023.2.2,Win32,60.24096386,6163383249e8518fc08e105f,65d2b6c8f2eece985d8e374c,65d2b8013d1e491d72e7ec04,0.1048,0.105,1,111,273,134,1,eightsix,,,,,,,,,,,,,,,,,,,,,,,,,,,,,,,,,,,,,,,,,,,,,,,,,,,,,,,,,,,,,,,,,,,,,,,,,,,,,,,,,,,,,,,,,,,,,,,,,,,,,,,,,,,,,,,,,,,,,,,,,,,,,,,,,,,,,,,,,
,,6163383249e8518fc08e105f,2024-02-18_23h10.50.189,kallum_motion_pilot,2023.2.2,Win32,60.24096386,6163383249e8518fc08e105f,65d2b6c8f2eece985d8e374c,65d2b8013d1e491d72e7ec04,0.1051,0.1052,1,112,274,90,1,sixfive,,,,,,,,,,,,,,,,,,,,,,,,,,,,,,,,,,,,,,,,,,,,,,,,,,,,,,,,,,,,,,,,,,,,,,,,,,,,,,,,,,,,,,,,,,,,,,,,,,,,,,,,,,,,,,,,,,,,,,,,,,,,,,,,,,,,,,,,,
,,6163383249e8518fc08e105f,2024-02-18_23h10.50.189,kallum_motion_pilot,2023.2.2,Win32,60.24096386,6163383249e8518fc08e105f,65d2b6c8f2eece985d8e374c,65d2b8013d1e491d72e7ec04,0.1054,0.1055,1,113,275,65,1,onethree,,,,,,,,,,,,,,,,,,,,,,,,,,,,,,,,,,,,,,,,,,,,,,,,,,,,,,,,,,,,,,,,,,,,,,,,,,,,,,,,,,,,,,,,,,,,,,,,,,,,,,,,,,,,,,,,,,,,,,,,,,,,,,,,,,,,,,,,,
,,6163383249e8518fc08e105f,2024-02-18_23h10.50.189,kallum_motion_pilot,2023.2.2,Win32,60.24096386,6163383249e8518fc08e105f,65d2b6c8f2eece985d8e374c,65d2b8013d1e491d72e7ec04,0.1057,0.1058,1,114,276,130,1,sixfive,,,,,,,,,,,,,,,,,,,,,,,,,,,,,,,,,,,,,,,,,,,,,,,,,,,,,,,,,,,,,,,,,,,,,,,,,,,,,,,,,,,,,,,,,,,,,,,,,,,,,,,,,,,,,,,,,,,,,,,,,,,,,,,,,,,,,,,,,
,,6163383249e8518fc08e105f,2024-02-18_23h10.50.189,kallum_motion_pilot,2023.2.2,Win32,60.24096386,6163383249e8518fc08e105f,65d2b6c8f2eece985d8e374c,65d2b8013d1e491d72e7ec04,0.106,0.1061,1,115,277,139,1,sixeight,,,,,,,,,,,,,,,,,,,,,,,,,,,,,,,,,,,,,,,,,,,,,,,,,,,,,,,,,,,,,,,,,,,,,,,,,,,,,,,,,,,,,,,,,,,,,,,,,,,,,,,,,,,,,,,,,,,,,,,,,,,,,,,,,,,,,,,,,
