startup.started,startup.stopped,Prolific ID*,date,expName,psychopyVersion,OS,frameRate,participant,study_id,session,stimpositions.started,stimpositions.stopped,hardcoded_stimulus_positions.thisRepN,hardcoded_stimulus_positions.thisTrialN,hardcoded_stimulus_positions.thisN,hardcoded_stimulus_positions.thisIndex,hardcoded_stimulus_positions.ran,StimulusPos,stimorientation.started,stimorientation.stopped,prac_stimorientation_import_loop.thisRepN,prac_stimorientation_import_loop.thisTrialN,prac_stimorientation_import_loop.thisN,prac_stimorientation_import_loop.thisIndex,prac_stimorientation_import_loop.ran,Stimorientation,welcome_instr.started,welcome_instr.stopped,key_resp.keys,key_resp.rt,key_resp.duration,response_steppedout_1.started,response_steppedout_1.stopped,key_resp_20.keys,key_resp_20.rt,key_resp_20.duration,response_steppedout_2.started,response_steppedout_2.stopped,key_resp_19.keys,key_resp_19.rt,key_resp_19.duration,stim_response_instr.started,stim_response_instr.stopped,key_resp_15.keys,key_resp_15.rt,key_resp_15.duration,direction_instr_2.started,direction_instr_2.stopped,key_resp_9.keys,key_resp_9.rt,key_resp_9.duration,instr_prac.started,instr_prac.stopped,key_resp_10.keys,key_resp_10.rt,key_resp_10.duration,Stim1_display_prac.started,Stim1_display_prac.stopped,Ecc,Circle1_ori,Circle2_ori,response_prac.started,similarity,response_time,response_prac.stopped,mouse_5.x,mouse_5.y,mouse_5.leftButton,mouse_5.midButton,mouse_5.rightButton,mouse_5.clicked_name,responseprac_feedback.started,responseprac_feedback.stopped,summary2_prac.started,summary2_prac.stopped,mouse_6.x,mouse_6.y,mouse_6.leftButton,mouse_6.midButton,mouse_6.rightButton,mouse_6.clicked_name,duringprac.thisRepN,duringprac.thisTrialN,duringprac.thisN,duringprac.thisIndex,duringprac.ran,begin.started,begin.stopped,key_resp_22.keys,key_resp_22.rt,key_resp_22.duration,Stim1_display.started,Stim1_display.stopped,circle1_ori,circle2_ori,circle1_SF,circle2_SF,response.started,response.stopped,mouse.x,mouse.y,mouse.leftButton,mouse.midButton,mouse.rightButton,mouse.clicked_name,trialnumber,double_pass.thisRepN,double_pass.thisTrialN,double_pass.thisN,double_pass.thisIndex,double_pass.ran,double_pass.order,main_trial.thisRepN,main_trial.thisTrialN,main_trial.thisN,main_trial.thisIndex,main_trial.ran,main_trial.order,Trial_Counter,Catch,Frequencies,response_2.started,response_2.stopped,mouse_2.x,mouse_2.y,mouse_2.leftButton,mouse_2.midButton,mouse_2.rightButton,mouse_2.clicked_name,special_trial.started,special_trial.stopped,catch_1.started,catch_1.stopped,mouse_3.x,mouse_3.y,mouse_3.leftButton,mouse_3.midButton,mouse_3.rightButton,catchresponse,catchnumber,response_time_catch,response_sum.started,response_sum.stopped,mouse_11.x,mouse_11.y,mouse_11.leftButton,mouse_11.midButton,mouse_11.rightButton,flip_presentation_sequence_for_double_pass.started,flip_presentation_sequence_for_double_pass.stopped,goodbye.started,goodbye.stopped,key_resp_3.keys,key_resp_3.rt,key_resp_3.duration
0.0006,0.0008,6164692cd6ee66754bcbdbd0,2024-02-22_05h21.06.339,kallum_motion_pilot,2023.2.2,Win32,59.17159763,6164692cd6ee66754bcbdbd0,65d6bb0e977760de756971f7,65d6bd86cb0a17198e65b8d0,,,,,,,,,,,,,,,,,,,,,,,,,,,,,,,,,,,,,,,,,,,,,,,,,,,,,,,,,,,,,,,,,,,,,,,,,,,,,,,,,,,,,,,,,,,,,,,,,,,,,,,,,,,,,,,,,,,,,,,,,,,,,,,,,,,,,,,,,,,,,,,,,
,,6164692cd6ee66754bcbdbd0,2024-02-22_05h21.06.339,kallum_motion_pilot,2023.2.2,Win32,59.17159763,6164692cd6ee66754bcbdbd0,65d6bb0e977760de756971f7,65d6bd86cb0a17198e65b8d0,0.1326,0.1328,0,0,0,143,1,eightseven,,,,,,,,,,,,,,,,,,,,,,,,,,,,,,,,,,,,,,,,,,,,,,,,,,,,,,,,,,,,,,,,,,,,,,,,,,,,,,,,,,,,,,,,,,,,,,,,,,,,,,,,,,,,,,,,,,,,,,,,,,,,,,,,,,,,,,,,,
,,6164692cd6ee66754bcbdbd0,2024-02-22_05h21.06.339,kallum_motion_pilot,2023.2.2,Win32,59.17159763,6164692cd6ee66754bcbdbd0,65d6bb0e977760de756971f7,65d6bd86cb0a17198e65b8d0,0.1333,0.1334,0,1,1,62,1,fourtwo,,,,,,,,,,,,,,,,,,,,,,,,,,,,,,,,,,,,,,,,,,,,,,,,,,,,,,,,,,,,,,,,,,,,,,,,,,,,,,,,,,,,,,,,,,,,,,,,,,,,,,,,,,,,,,,,,,,,,,,,,,,,,,,,,,,,,,,,,
,,6164692cd6ee66754bcbdbd0,2024-02-22_05h21.06.339,kallum_motion_pilot,2023.2.2,Win32,59.17159763,6164692cd6ee66754bcbdbd0,65d6bb0e977760de756971f7,65d6bd86cb0a17198e65b8d0,0.1337,0.1338,0,2,2,131,1,sixeight,,,,,,,,,,,,,,,,,,,,,,,,,,,,,,,,,,,,,,,,,,,,,,,,,,,,,,,,,,,,,,,,,,,,,,,,,,,,,,,,,,,,,,,,,,,,,,,,,,,,,,,,,,,,,,,,,,,,,,,,,,,,,,,,,,,,,,,,,
,,6164692cd6ee66754bcbdbd0,2024-02-22_05h21.06.339,kallum_motion_pilot,2023.2.2,Win32,59.17159763,6164692cd6ee66754bcbdbd0,65d6bb0e977760de756971f7,65d6bd86cb0a17198e65b8d0,0.134,0.1341,0,3,3,74,1,twoone,,,,,,,,,,,,,,,,,,,,,,,,,,,,,,,,,,,,,,,,,,,,,,,,,,,,,,,,,,,,,,,,,,,,,,,,,,,,,,,,,,,,,,,,,,,,,,,,,,,,,,,,,,,,,,,,,,,,,,,,,,,,,,,,,,,,,,,,,
,,6164692cd6ee66754bcbdbd0,2024-02-22_05h21.06.339,kallum_motion_pilot,2023.2.2,Win32,59.17159763,6164692cd6ee66754bcbdbd0,65d6bb0e977760de756971f7,65d6bd86cb0a17198e65b8d0,0.1343,0.1344,0,4,4,120,1,fivesix,,,,,,,,,,,,,,,,,,,,,,,,,,,,,,,,,,,,,,,,,,,,,,,,,,,,,,,,,,,,,,,,,,,,,,,,,,,,,,,,,,,,,,,,,,,,,,,,,,,,,,,,,,,,,,,,,,,,,,,,,,,,,,,,,,,,,,,,,
,,6164692cd6ee66754bcbdbd0,2024-02-22_05h21.06.339,kallum_motion_pilot,2023.2.2,Win32,59.17159763,6164692cd6ee66754bcbdbd0,65d6bb0e977760de756971f7,65d6bd86cb0a17198e65b8d0,0.1346,0.1348,0,5,5,101,1,seveneight,,,,,,,,,,,,,,,,,,,,,,,,,,,,,,,,,,,,,,,,,,,,,,,,,,,,,,,,,,,,,,,,,,,,,,,,,,,,,,,,,,,,,,,,,,,,,,,,,,,,,,,,,,,,,,,,,,,,,,,,,,,,,,,,,,,,,,,,,
,,6164692cd6ee66754bcbdbd0,2024-02-22_05h21.06.339,kallum_motion_pilot,2023.2.2,Win32,59.17159763,6164692cd6ee66754bcbdbd0,65d6bb0e977760de756971f7,65d6bd86cb0a17198e65b8d0,0.135,0.1351,0,6,6,151,1,eightseven,,,,,,,,,,,,,,,,,,,,,,,,,,,,,,,,,,,,,,,,,,,,,,,,,,,,,,,,,,,,,,,,,,,,,,,,,,,,,,,,,,,,,,,,,,,,,,,,,,,,,,,,,,,,,,,,,,,,,,,,,,,,,,,,,,,,,,,,,
,,6164692cd6ee66754bcbdbd0,2024-02-22_05h21.06.339,kallum_motion_pilot,2023.2.2,Win32,59.17159763,6164692cd6ee66754bcbdbd0,65d6bb0e977760de756971f7,65d6bd86cb0a17198e65b8d0,0.1353,0.1354,0,7,7,81,1,fiveseven,,,,,,,,,,,,,,,,,,,,,,,,,,,,,,,,,,,,,,,,,,,,,,,,,,,,,,,,,,,,,,,,,,,,,,,,,,,,,,,,,,,,,,,,,,,,,,,,,,,,,,,,,,,,,,,,,,,,,,,,,,,,,,,,,,,,,,,,,
,,6164692cd6ee66754bcbdbd0,2024-02-22_05h21.06.339,kallum_motion_pilot,2023.2.2,Win32,59.17159763,6164692cd6ee66754bcbdbd0,65d6bb0e977760de756971f7,65d6bd86cb0a17198e65b8d0,0.1356,0.1357,0,8,8,42,1,twoone,,,,,,,,,,,,,,,,,,,,,,,,,,,,,,,,,,,,,,,,,,,,,,,,,,,,,,,,,,,,,,,,,,,,,,,,,,,,,,,,,,,,,,,,,,,,,,,,,,,,,,,,,,,,,,,,,,,,,,,,,,,,,,,,,,,,,,,,,
,,6164692cd6ee66754bcbdbd0,2024-02-22_05h21.06.339,kallum_motion_pilot,2023.2.2,Win32,59.17159763,6164692cd6ee66754bcbdbd0,65d6bb0e977760de756971f7,65d6bd86cb0a17198e65b8d0,0.1359,0.1361,0,9,9,88,1,fivesix,,,,,,,,,,,,,,,,,,,,,,,,,,,,,,,,,,,,,,,,,,,,,,,,,,,,,,,,,,,,,,,,,,,,,,,,,,,,,,,,,,,,,,,,,,,,,,,,,,,,,,,,,,,,,,,,,,,,,,,,,,,,,,,,,,,,,,,,,
,,6164692cd6ee66754bcbdbd0,2024-02-22_05h21.06.339,kallum_motion_pilot,2023.2.2,Win32,59.17159763,6164692cd6ee66754bcbdbd0,65d6bb0e977760de756971f7,65d6bd86cb0a17198e65b8d0,0.1362,0.1364,0,10,10,129,1,fiveseven,,,,,,,,,,,,,,,,,,,,,,,,,,,,,,,,,,,,,,,,,,,,,,,,,,,,,,,,,,,,,,,,,,,,,,,,,,,,,,,,,,,,,,,,,,,,,,,,,,,,,,,,,,,,,,,,,,,,,,,,,,,,,,,,,,,,,,,,,
,,6164692cd6ee66754bcbdbd0,2024-02-22_05h21.06.339,kallum_motion_pilot,2023.2.2,Win32,59.17159763,6164692cd6ee66754bcbdbd0,65d6bb0e977760de756971f7,65d6bd86cb0a17198e65b8d0,0.1366,0.1366,0,11,11,68,1,threeone,,,,,,,,,,,,,,,,,,,,,,,,,,,,,,,,,,,,,,,,,,,,,,,,,,,,,,,,,,,,,,,,,,,,,,,,,,,,,,,,,,,,,,,,,,,,,,,,,,,,,,,,,,,,,,,,,,,,,,,,,,,,,,,,,,,,,,,,,
,,6164692cd6ee66754bcbdbd0,2024-02-22_05h21.06.339,kallum_motion_pilot,2023.2.2,Win32,59.17159763,6164692cd6ee66754bcbdbd0,65d6bb0e977760de756971f7,65d6bd86cb0a17198e65b8d0,0.1368,0.1369,0,12,12,22,1,fourtwo,,,,,,,,,,,,,,,,,,,,,,,,,,,,,,,,,,,,,,,,,,,,,,,,,,,,,,,,,,,,,,,,,,,,,,,,,,,,,,,,,,,,,,,,,,,,,,,,,,,,,,,,,,,,,,,,,,,,,,,,,,,,,,,,,,,,,,,,,
,,6164692cd6ee66754bcbdbd0,2024-02-22_05h21.06.339,kallum_motion_pilot,2023.2.2,Win32,59.17159763,6164692cd6ee66754bcbdbd0,65d6bb0e977760de756971f7,65d6bd86cb0a17198e65b8d0,0.1371,0.1372,0,13,13,153,1,fiveseven,,,,,,,,,,,,,,,,,,,,,,,,,,,,,,,,,,,,,,,,,,,,,,,,,,,,,,,,,,,,,,,,,,,,,,,,,,,,,,,,,,,,,,,,,,,,,,,,,,,,,,,,,,,,,,,,,,,,,,,,,,,,,,,,,,,,,,,,,
,,6164692cd6ee66754bcbdbd0,2024-02-22_05h21.06.339,kallum_motion_pilot,2023.2.2,Win32,59.17159763,6164692cd6ee66754bcbdbd0,65d6bb0e977760de756971f7,65d6bd86cb0a17198e65b8d0,0.1374,0.1375,0,14,14,84,1,sevenfive,,,,,,,,,,,,,,,,,,,,,,,,,,,,,,,,,,,,,,,,,,,,,,,,,,,,,,,,,,,,,,,,,,,,,,,,,,,,,,,,,,,,,,,,,,,,,,,,,,,,,,,,,,,,,,,,,,,,,,,,,,,,,,,,,,,,,,,,,
,,6164692cd6ee66754bcbdbd0,2024-02-22_05h21.06.339,kallum_motion_pilot,2023.2.2,Win32,59.17159763,6164692cd6ee66754bcbdbd0,65d6bb0e977760de756971f7,65d6bd86cb0a17198e65b8d0,0.1376,0.1377,0,15,15,52,1,threeone,,,,,,,,,,,,,,,,,,,,,,,,,,,,,,,,,,,,,,,,,,,,,,,,,,,,,,,,,,,,,,,,,,,,,,,,,,,,,,,,,,,,,,,,,,,,,,,,,,,,,,,,,,,,,,,,,,,,,,,,,,,,,,,,,,,,,,,,,
,,6164692cd6ee66754bcbdbd0,2024-02-22_05h21.06.339,kallum_motion_pilot,2023.2.2,Win32,59.17159763,6164692cd6ee66754bcbdbd0,65d6bb0e977760de756971f7,65d6bd86cb0a17198e65b8d0,0.1379,0.138,0,16,16,124,1,sevenfive,,,,,,,,,,,,,,,,,,,,,,,,,,,,,,,,,,,,,,,,,,,,,,,,,,,,,,,,,,,,,,,,,,,,,,,,,,,,,,,,,,,,,,,,,,,,,,,,,,,,,,,,,,,,,,,,,,,,,,,,,,,,,,,,,,,,,,,,,
,,6164692cd6ee66754bcbdbd0,2024-02-22_05h21.06.339,kallum_motion_pilot,2023.2.2,Win32,59.17159763,6164692cd6ee66754bcbdbd0,65d6bb0e977760de756971f7,65d6bd86cb0a17198e65b8d0,0.1381,0.1383,0,17,17,152,1,fivesix,,,,,,,,,,,,,,,,,,,,,,,,,,,,,,,,,,,,,,,,,,,,,,,,,,,,,,,,,,,,,,,,,,,,,,,,,,,,,,,,,,,,,,,,,,,,,,,,,,,,,,,,,,,,,,,,,,,,,,,,,,,,,,,,,,,,,,,,,
,,6164692cd6ee66754bcbdbd0,2024-02-22_05h21.06.339,kallum_motion_pilot,2023.2.2,Win32,59.17159763,6164692cd6ee66754bcbdbd0,65d6bb0e977760de756971f7,65d6bd86cb0a17198e65b8d0,0.1384,0.1385,0,18,18,47,1,fourthree,,,,,,,,,,,,,,,,,,,,,,,,,,,,,,,,,,,,,,,,,,,,,,,,,,,,,,,,,,,,,,,,,,,,,,,,,,,,,,,,,,,,,,,,,,,,,,,,,,,,,,,,,,,,,,,,,,,,,,,,,,,,,,,,,,,,,,,,,
,,6164692cd6ee66754bcbdbd0,2024-02-22_05h21.06.339,kallum_motion_pilot,2023.2.2,Win32,59.17159763,6164692cd6ee66754bcbdbd0,65d6bb0e977760de756971f7,65d6bd86cb0a17198e65b8d0,0.1387,0.1388,0,19,19,97,1,fiveseven,,,,,,,,,,,,,,,,,,,,,,,,,,,,,,,,,,,,,,,,,,,,,,,,,,,,,,,,,,,,,,,,,,,,,,,,,,,,,,,,,,,,,,,,,,,,,,,,,,,,,,,,,,,,,,,,,,,,,,,,,,,,,,,,,,,,,,,,,
,,6164692cd6ee66754bcbdbd0,2024-02-22_05h21.06.339,kallum_motion_pilot,2023.2.2,Win32,59.17159763,6164692cd6ee66754bcbdbd0,65d6bb0e977760de756971f7,65d6bd86cb0a17198e65b8d0,0.1389,0.1391,0,20,20,127,1,eightseven,,,,,,,,,,,,,,,,,,,,,,,,,,,,,,,,,,,,,,,,,,,,,,,,,,,,,,,,,,,,,,,,,,,,,,,,,,,,,,,,,,,,,,,,,,,,,,,,,,,,,,,,,,,,,,,,,,,,,,,,,,,,,,,,,,,,,,,,,
,,6164692cd6ee66754bcbdbd0,2024-02-22_05h21.06.339,kallum_motion_pilot,2023.2.2,Win32,59.17159763,6164692cd6ee66754bcbdbd0,65d6bb0e977760de756971f7,65d6bd86cb0a17198e65b8d0,0.1392,0.1394,0,21,21,51,1,twofour,,,,,,,,,,,,,,,,,,,,,,,,,,,,,,,,,,,,,,,,,,,,,,,,,,,,,,,,,,,,,,,,,,,,,,,,,,,,,,,,,,,,,,,,,,,,,,,,,,,,,,,,,,,,,,,,,,,,,,,,,,,,,,,,,,,,,,,,,
,,6164692cd6ee66754bcbdbd0,2024-02-22_05h21.06.339,kallum_motion_pilot,2023.2.2,Win32,59.17159763,6164692cd6ee66754bcbdbd0,65d6bb0e977760de756971f7,65d6bd86cb0a17198e65b8d0,0.1395,0.1397,0,22,22,20,1,threeone,,,,,,,,,,,,,,,,,,,,,,,,,,,,,,,,,,,,,,,,,,,,,,,,,,,,,,,,,,,,,,,,,,,,,,,,,,,,,,,,,,,,,,,,,,,,,,,,,,,,,,,,,,,,,,,,,,,,,,,,,,,,,,,,,,,,,,,,,
,,6164692cd6ee66754bcbdbd0,2024-02-22_05h21.06.339,kallum_motion_pilot,2023.2.2,Win32,59.17159763,6164692cd6ee66754bcbdbd0,65d6bb0e977760de756971f7,65d6bd86cb0a17198e65b8d0,0.1401,0.1402,0,23,23,90,1,sixfive,,,,,,,,,,,,,,,,,,,,,,,,,,,,,,,,,,,,,,,,,,,,,,,,,,,,,,,,,,,,,,,,,,,,,,,,,,,,,,,,,,,,,,,,,,,,,,,,,,,,,,,,,,,,,,,,,,,,,,,,,,,,,,,,,,,,,,,,,
,,6164692cd6ee66754bcbdbd0,2024-02-22_05h21.06.339,kallum_motion_pilot,2023.2.2,Win32,59.17159763,6164692cd6ee66754bcbdbd0,65d6bb0e977760de756971f7,65d6bd86cb0a17198e65b8d0,0.1407,0.1408,0,24,24,93,1,seveneight,,,,,,,,,,,,,,,,,,,,,,,,,,,,,,,,,,,,,,,,,,,,,,,,,,,,,,,,,,,,,,,,,,,,,,,,,,,,,,,,,,,,,,,,,,,,,,,,,,,,,,,,,,,,,,,,,,,,,,,,,,,,,,,,,,,,,,,,,
,,6164692cd6ee66754bcbdbd0,2024-02-22_05h21.06.339,kallum_motion_pilot,2023.2.2,Win32,59.17159763,6164692cd6ee66754bcbdbd0,65d6bb0e977760de756971f7,65d6bd86cb0a17198e65b8d0,0.1412,0.1414,0,25,25,132,1,sevenfive,,,,,,,,,,,,,,,,,,,,,,,,,,,,,,,,,,,,,,,,,,,,,,,,,,,,,,,,,,,,,,,,,,,,,,,,,,,,,,,,,,,,,,,,,,,,,,,,,,,,,,,,,,,,,,,,,,,,,,,,,,,,,,,,,,,,,,,,,
,,6164692cd6ee66754bcbdbd0,2024-02-22_05h21.06.339,kallum_motion_pilot,2023.2.2,Win32,59.17159763,6164692cd6ee66754bcbdbd0,65d6bb0e977760de756971f7,65d6bd86cb0a17198e65b8d0,0.1418,0.142,0,26,26,149,1,seveneight,,,,,,,,,,,,,,,,,,,,,,,,,,,,,,,,,,,,,,,,,,,,,,,,,,,,,,,,,,,,,,,,,,,,,,,,,,,,,,,,,,,,,,,,,,,,,,,,,,,,,,,,,,,,,,,,,,,,,,,,,,,,,,,,,,,,,,,,,
,,6164692cd6ee66754bcbdbd0,2024-02-22_05h21.06.339,kallum_motion_pilot,2023.2.2,Win32,59.17159763,6164692cd6ee66754bcbdbd0,65d6bb0e977760de756971f7,65d6bd86cb0a17198e65b8d0,0.1422,0.1423,0,27,27,113,1,fiveseven,,,,,,,,,,,,,,,,,,,,,,,,,,,,,,,,,,,,,,,,,,,,,,,,,,,,,,,,,,,,,,,,,,,,,,,,,,,,,,,,,,,,,,,,,,,,,,,,,,,,,,,,,,,,,,,,,,,,,,,,,,,,,,,,,,,,,,,,,
,,6164692cd6ee66754bcbdbd0,2024-02-22_05h21.06.339,kallum_motion_pilot,2023.2.2,Win32,59.17159763,6164692cd6ee66754bcbdbd0,65d6bb0e977760de756971f7,65d6bd86cb0a17198e65b8d0,0.1425,0.1426,0,28,28,63,1,fourthree,,,,,,,,,,,,,,,,,,,,,,,,,,,,,,,,,,,,,,,,,,,,,,,,,,,,,,,,,,,,,,,,,,,,,,,,,,,,,,,,,,,,,,,,,,,,,,,,,,,,,,,,,,,,,,,,,,,,,,,,,,,,,,,,,,,,,,,,,
,,6164692cd6ee66754bcbdbd0,2024-02-22_05h21.06.339,kallum_motion_pilot,2023.2.2,Win32,59.17159763,6164692cd6ee66754bcbdbd0,65d6bb0e977760de756971f7,65d6bd86cb0a17198e65b8d0,0.1426,0.1463,0,29,29,2,1,twoone,,,,,,,,,,,,,,,,,,,,,,,,,,,,,,,,,,,,,,,,,,,,,,,,,,,,,,,,,,,,,,,,,,,,,,,,,,,,,,,,,,,,,,,,,,,,,,,,,,,,,,,,,,,,,,,,,,,,,,,,,,,,,,,,,,,,,,,,,
,,6164692cd6ee66754bcbdbd0,2024-02-22_05h21.06.339,kallum_motion_pilot,2023.2.2,Win32,59.17159763,6164692cd6ee66754bcbdbd0,65d6bb0e977760de756971f7,65d6bd86cb0a17198e65b8d0,0.1467,0.1468,0,30,30,45,1,threefour,,,,,,,,,,,,,,,,,,,,,,,,,,,,,,,,,,,,,,,,,,,,,,,,,,,,,,,,,,,,,,,,,,,,,,,,,,,,,,,,,,,,,,,,,,,,,,,,,,,,,,,,,,,,,,,,,,,,,,,,,,,,,,,,,,,,,,,,,
,,6164692cd6ee66754bcbdbd0,2024-02-22_05h21.06.339,kallum_motion_pilot,2023.2.2,Win32,59.17159763,6164692cd6ee66754bcbdbd0,65d6bb0e977760de756971f7,65d6bd86cb0a17198e65b8d0,0.147,0.1471,0,31,31,41,1,onethree,,,,,,,,,,,,,,,,,,,,,,,,,,,,,,,,,,,,,,,,,,,,,,,,,,,,,,,,,,,,,,,,,,,,,,,,,,,,,,,,,,,,,,,,,,,,,,,,,,,,,,,,,,,,,,,,,,,,,,,,,,,,,,,,,,,,,,,,,
,,6164692cd6ee66754bcbdbd0,2024-02-22_05h21.06.339,kallum_motion_pilot,2023.2.2,Win32,59.17159763,6164692cd6ee66754bcbdbd0,65d6bb0e977760de756971f7,65d6bd86cb0a17198e65b8d0,0.1472,0.1474,0,32,32,21,1,threefour,,,,,,,,,,,,,,,,,,,,,,,,,,,,,,,,,,,,,,,,,,,,,,,,,,,,,,,,,,,,,,,,,,,,,,,,,,,,,,,,,,,,,,,,,,,,,,,,,,,,,,,,,,,,,,,,,,,,,,,,,,,,,,,,,,,,,,,,,
,,6164692cd6ee66754bcbdbd0,2024-02-22_05h21.06.339,kallum_motion_pilot,2023.2.2,Win32,59.17159763,6164692cd6ee66754bcbdbd0,65d6bb0e977760de756971f7,65d6bd86cb0a17198e65b8d0,0.1475,0.1477,0,33,33,109,1,seveneight,,,,,,,,,,,,,,,,,,,,,,,,,,,,,,,,,,,,,,,,,,,,,,,,,,,,,,,,,,,,,,,,,,,,,,,,,,,,,,,,,,,,,,,,,,,,,,,,,,,,,,,,,,,,,,,,,,,,,,,,,,,,,,,,,,,,,,,,,
,,6164692cd6ee66754bcbdbd0,2024-02-22_05h21.06.339,kallum_motion_pilot,2023.2.2,Win32,59.17159763,6164692cd6ee66754bcbdbd0,65d6bb0e977760de756971f7,65d6bd86cb0a17198e65b8d0,0.1478,0.148,0,34,34,75,1,twofour,,,,,,,,,,,,,,,,,,,,,,,,,,,,,,,,,,,,,,,,,,,,,,,,,,,,,,,,,,,,,,,,,,,,,,,,,,,,,,,,,,,,,,,,,,,,,,,,,,,,,,,,,,,,,,,,,,,,,,,,,,,,,,,,,,,,,,,,,
,,6164692cd6ee66754bcbdbd0,2024-02-22_05h21.06.339,kallum_motion_pilot,2023.2.2,Win32,59.17159763,6164692cd6ee66754bcbdbd0,65d6bb0e977760de756971f7,65d6bd86cb0a17198e65b8d0,0.1481,0.1483,0,35,35,82,1,sixfive,,,,,,,,,,,,,,,,,,,,,,,,,,,,,,,,,,,,,,,,,,,,,,,,,,,,,,,,,,,,,,,,,,,,,,,,,,,,,,,,,,,,,,,,,,,,,,,,,,,,,,,,,,,,,,,,,,,,,,,,,,,,,,,,,,,,,,,,,
,,6164692cd6ee66754bcbdbd0,2024-02-22_05h21.06.339,kallum_motion_pilot,2023.2.2,Win32,59.17159763,6164692cd6ee66754bcbdbd0,65d6bb0e977760de756971f7,65d6bd86cb0a17198e65b8d0,0.1484,0.1486,0,36,36,66,1,twoone,,,,,,,,,,,,,,,,,,,,,,,,,,,,,,,,,,,,,,,,,,,,,,,,,,,,,,,,,,,,,,,,,,,,,,,,,,,,,,,,,,,,,,,,,,,,,,,,,,,,,,,,,,,,,,,,,,,,,,,,,,,,,,,,,,,,,,,,,
,,6164692cd6ee66754bcbdbd0,2024-02-22_05h21.06.339,kallum_motion_pilot,2023.2.2,Win32,59.17159763,6164692cd6ee66754bcbdbd0,65d6bb0e977760de756971f7,65d6bd86cb0a17198e65b8d0,0.1487,0.1488,0,37,37,53,1,threefour,,,,,,,,,,,,,,,,,,,,,,,,,,,,,,,,,,,,,,,,,,,,,,,,,,,,,,,,,,,,,,,,,,,,,,,,,,,,,,,,,,,,,,,,,,,,,,,,,,,,,,,,,,,,,,,,,,,,,,,,,,,,,,,,,,,,,,,,,
,,6164692cd6ee66754bcbdbd0,2024-02-22_05h21.06.339,kallum_motion_pilot,2023.2.2,Win32,59.17159763,6164692cd6ee66754bcbdbd0,65d6bb0e977760de756971f7,65d6bd86cb0a17198e65b8d0,0.149,0.1491,0,38,38,104,1,fivesix,,,,,,,,,,,,,,,,,,,,,,,,,,,,,,,,,,,,,,,,,,,,,,,,,,,,,,,,,,,,,,,,,,,,,,,,,,,,,,,,,,,,,,,,,,,,,,,,,,,,,,,,,,,,,,,,,,,,,,,,,,,,,,,,,,,,,,,,,
,,6164692cd6ee66754bcbdbd0,2024-02-22_05h21.06.339,kallum_motion_pilot,2023.2.2,Win32,59.17159763,6164692cd6ee66754bcbdbd0,65d6bb0e977760de756971f7,65d6bd86cb0a17198e65b8d0,0.1493,0.1494,0,39,39,159,1,eightseven,,,,,,,,,,,,,,,,,,,,,,,,,,,,,,,,,,,,,,,,,,,,,,,,,,,,,,,,,,,,,,,,,,,,,,,,,,,,,,,,,,,,,,,,,,,,,,,,,,,,,,,,,,,,,,,,,,,,,,,,,,,,,,,,,,,,,,,,,
,,6164692cd6ee66754bcbdbd0,2024-02-22_05h21.06.339,kallum_motion_pilot,2023.2.2,Win32,59.17159763,6164692cd6ee66754bcbdbd0,65d6bb0e977760de756971f7,65d6bd86cb0a17198e65b8d0,0.1495,0.1496,0,40,40,26,1,twoone,,,,,,,,,,,,,,,,,,,,,,,,,,,,,,,,,,,,,,,,,,,,,,,,,,,,,,,,,,,,,,,,,,,,,,,,,,,,,,,,,,,,,,,,,,,,,,,,,,,,,,,,,,,,,,,,,,,,,,,,,,,,,,,,,,,,,,,,,
,,6164692cd6ee66754bcbdbd0,2024-02-22_05h21.06.339,kallum_motion_pilot,2023.2.2,Win32,59.17159763,6164692cd6ee66754bcbdbd0,65d6bb0e977760de756971f7,65d6bd86cb0a17198e65b8d0,0.1498,0.15,0,41,41,161,1,fiveseven,,,,,,,,,,,,,,,,,,,,,,,,,,,,,,,,,,,,,,,,,,,,,,,,,,,,,,,,,,,,,,,,,,,,,,,,,,,,,,,,,,,,,,,,,,,,,,,,,,,,,,,,,,,,,,,,,,,,,,,,,,,,,,,,,,,,,,,,,
,,6164692cd6ee66754bcbdbd0,2024-02-22_05h21.06.339,kallum_motion_pilot,2023.2.2,Win32,59.17159763,6164692cd6ee66754bcbdbd0,65d6bb0e977760de756971f7,65d6bd86cb0a17198e65b8d0,0.1502,0.1503,0,42,42,91,1,sixeight,,,,,,,,,,,,,,,,,,,,,,,,,,,,,,,,,,,,,,,,,,,,,,,,,,,,,,,,,,,,,,,,,,,,,,,,,,,,,,,,,,,,,,,,,,,,,,,,,,,,,,,,,,,,,,,,,,,,,,,,,,,,,,,,,,,,,,,,,
,,6164692cd6ee66754bcbdbd0,2024-02-22_05h21.06.339,kallum_motion_pilot,2023.2.2,Win32,59.17159763,6164692cd6ee66754bcbdbd0,65d6bb0e977760de756971f7,65d6bd86cb0a17198e65b8d0,0.1506,0.1507,0,43,43,25,1,onethree,,,,,,,,,,,,,,,,,,,,,,,,,,,,,,,,,,,,,,,,,,,,,,,,,,,,,,,,,,,,,,,,,,,,,,,,,,,,,,,,,,,,,,,,,,,,,,,,,,,,,,,,,,,,,,,,,,,,,,,,,,,,,,,,,,,,,,,,,
,,6164692cd6ee66754bcbdbd0,2024-02-22_05h21.06.339,kallum_motion_pilot,2023.2.2,Win32,59.17159763,6164692cd6ee66754bcbdbd0,65d6bb0e977760de756971f7,65d6bd86cb0a17198e65b8d0,0.151,0.151,0,44,44,7,1,fourthree,,,,,,,,,,,,,,,,,,,,,,,,,,,,,,,,,,,,,,,,,,,,,,,,,,,,,,,,,,,,,,,,,,,,,,,,,,,,,,,,,,,,,,,,,,,,,,,,,,,,,,,,,,,,,,,,,,,,,,,,,,,,,,,,,,,,,,,,,
,,6164692cd6ee66754bcbdbd0,2024-02-22_05h21.06.339,kallum_motion_pilot,2023.2.2,Win32,59.17159763,6164692cd6ee66754bcbdbd0,65d6bb0e977760de756971f7,65d6bd86cb0a17198e65b8d0,0.1513,0.1515,0,45,45,49,1,onethree,,,,,,,,,,,,,,,,,,,,,,,,,,,,,,,,,,,,,,,,,,,,,,,,,,,,,,,,,,,,,,,,,,,,,,,,,,,,,,,,,,,,,,,,,,,,,,,,,,,,,,,,,,,,,,,,,,,,,,,,,,,,,,,,,,,,,,,,,
,,6164692cd6ee66754bcbdbd0,2024-02-22_05h21.06.339,kallum_motion_pilot,2023.2.2,Win32,59.17159763,6164692cd6ee66754bcbdbd0,65d6bb0e977760de756971f7,65d6bd86cb0a17198e65b8d0,0.1517,0.152,0,46,46,95,1,eightseven,,,,,,,,,,,,,,,,,,,,,,,,,,,,,,,,,,,,,,,,,,,,,,,,,,,,,,,,,,,,,,,,,,,,,,,,,,,,,,,,,,,,,,,,,,,,,,,,,,,,,,,,,,,,,,,,,,,,,,,,,,,,,,,,,,,,,,,,,
,,6164692cd6ee66754bcbdbd0,2024-02-22_05h21.06.339,kallum_motion_pilot,2023.2.2,Win32,59.17159763,6164692cd6ee66754bcbdbd0,65d6bb0e977760de756971f7,65d6bd86cb0a17198e65b8d0,0.1521,0.1522,0,47,47,70,1,fourtwo,,,,,,,,,,,,,,,,,,,,,,,,,,,,,,,,,,,,,,,,,,,,,,,,,,,,,,,,,,,,,,,,,,,,,,,,,,,,,,,,,,,,,,,,,,,,,,,,,,,,,,,,,,,,,,,,,,,,,,,,,,,,,,,,,,,,,,,,,
,,6164692cd6ee66754bcbdbd0,2024-02-22_05h21.06.339,kallum_motion_pilot,2023.2.2,Win32,59.17159763,6164692cd6ee66754bcbdbd0,65d6bb0e977760de756971f7,65d6bd86cb0a17198e65b8d0,0.1524,0.1526,0,48,48,18,1,twoone,,,,,,,,,,,,,,,,,,,,,,,,,,,,,,,,,,,,,,,,,,,,,,,,,,,,,,,,,,,,,,,,,,,,,,,,,,,,,,,,,,,,,,,,,,,,,,,,,,,,,,,,,,,,,,,,,,,,,,,,,,,,,,,,,,,,,,,,,
,,6164692cd6ee66754bcbdbd0,2024-02-22_05h21.06.339,kallum_motion_pilot,2023.2.2,Win32,59.17159763,6164692cd6ee66754bcbdbd0,65d6bb0e977760de756971f7,65d6bd86cb0a17198e65b8d0,0.1527,0.1529,0,49,49,27,1,twofour,,,,,,,,,,,,,,,,,,,,,,,,,,,,,,,,,,,,,,,,,,,,,,,,,,,,,,,,,,,,,,,,,,,,,,,,,,,,,,,,,,,,,,,,,,,,,,,,,,,,,,,,,,,,,,,,,,,,,,,,,,,,,,,,,,,,,,,,,
,,6164692cd6ee66754bcbdbd0,2024-02-22_05h21.06.339,kallum_motion_pilot,2023.2.2,Win32,59.17159763,6164692cd6ee66754bcbdbd0,65d6bb0e977760de756971f7,65d6bd86cb0a17198e65b8d0,0.1531,0.1532,0,50,50,138,1,sixfive,,,,,,,,,,,,,,,,,,,,,,,,,,,,,,,,,,,,,,,,,,,,,,,,,,,,,,,,,,,,,,,,,,,,,,,,,,,,,,,,,,,,,,,,,,,,,,,,,,,,,,,,,,,,,,,,,,,,,,,,,,,,,,,,,,,,,,,,,
,,6164692cd6ee66754bcbdbd0,2024-02-22_05h21.06.339,kallum_motion_pilot,2023.2.2,Win32,59.17159763,6164692cd6ee66754bcbdbd0,65d6bb0e977760de756971f7,65d6bd86cb0a17198e65b8d0,0.1535,0.1537,0,51,51,0,1,onetwo,,,,,,,,,,,,,,,,,,,,,,,,,,,,,,,,,,,,,,,,,,,,,,,,,,,,,,,,,,,,,,,,,,,,,,,,,,,,,,,,,,,,,,,,,,,,,,,,,,,,,,,,,,,,,,,,,,,,,,,,,,,,,,,,,,,,,,,,,
,,6164692cd6ee66754bcbdbd0,2024-02-22_05h21.06.339,kallum_motion_pilot,2023.2.2,Win32,59.17159763,6164692cd6ee66754bcbdbd0,65d6bb0e977760de756971f7,65d6bd86cb0a17198e65b8d0,0.154,0.1541,0,52,52,38,1,fourtwo,,,,,,,,,,,,,,,,,,,,,,,,,,,,,,,,,,,,,,,,,,,,,,,,,,,,,,,,,,,,,,,,,,,,,,,,,,,,,,,,,,,,,,,,,,,,,,,,,,,,,,,,,,,,,,,,,,,,,,,,,,,,,,,,,,,,,,,,,
,,6164692cd6ee66754bcbdbd0,2024-02-22_05h21.06.339,kallum_motion_pilot,2023.2.2,Win32,59.17159763,6164692cd6ee66754bcbdbd0,65d6bb0e977760de756971f7,65d6bd86cb0a17198e65b8d0,0.1543,0.1544,0,53,53,98,1,sixfive,,,,,,,,,,,,,,,,,,,,,,,,,,,,,,,,,,,,,,,,,,,,,,,,,,,,,,,,,,,,,,,,,,,,,,,,,,,,,,,,,,,,,,,,,,,,,,,,,,,,,,,,,,,,,,,,,,,,,,,,,,,,,,,,,,,,,,,,,
,,6164692cd6ee66754bcbdbd0,2024-02-22_05h21.06.339,kallum_motion_pilot,2023.2.2,Win32,59.17159763,6164692cd6ee66754bcbdbd0,65d6bb0e977760de756971f7,65d6bd86cb0a17198e65b8d0,0.1552,0.1555,0,54,54,1,1,onethree,,,,,,,,,,,,,,,,,,,,,,,,,,,,,,,,,,,,,,,,,,,,,,,,,,,,,,,,,,,,,,,,,,,,,,,,,,,,,,,,,,,,,,,,,,,,,,,,,,,,,,,,,,,,,,,,,,,,,,,,,,,,,,,,,,,,,,,,,
,,6164692cd6ee66754bcbdbd0,2024-02-22_05h21.06.339,kallum_motion_pilot,2023.2.2,Win32,59.17159763,6164692cd6ee66754bcbdbd0,65d6bb0e977760de756971f7,65d6bd86cb0a17198e65b8d0,0.1558,0.156,0,55,55,56,1,onetwo,,,,,,,,,,,,,,,,,,,,,,,,,,,,,,,,,,,,,,,,,,,,,,,,,,,,,,,,,,,,,,,,,,,,,,,,,,,,,,,,,,,,,,,,,,,,,,,,,,,,,,,,,,,,,,,,,,,,,,,,,,,,,,,,,,,,,,,,,
,,6164692cd6ee66754bcbdbd0,2024-02-22_05h21.06.339,kallum_motion_pilot,2023.2.2,Win32,59.17159763,6164692cd6ee66754bcbdbd0,65d6bb0e977760de756971f7,65d6bd86cb0a17198e65b8d0,0.1561,0.1563,0,56,56,112,1,fivesix,,,,,,,,,,,,,,,,,,,,,,,,,,,,,,,,,,,,,,,,,,,,,,,,,,,,,,,,,,,,,,,,,,,,,,,,,,,,,,,,,,,,,,,,,,,,,,,,,,,,,,,,,,,,,,,,,,,,,,,,,,,,,,,,,,,,,,,,,
,,6164692cd6ee66754bcbdbd0,2024-02-22_05h21.06.339,kallum_motion_pilot,2023.2.2,Win32,59.17159763,6164692cd6ee66754bcbdbd0,65d6bb0e977760de756971f7,65d6bd86cb0a17198e65b8d0,0.1564,0.1566,0,57,57,16,1,onetwo,,,,,,,,,,,,,,,,,,,,,,,,,,,,,,,,,,,,,,,,,,,,,,,,,,,,,,,,,,,,,,,,,,,,,,,,,,,,,,,,,,,,,,,,,,,,,,,,,,,,,,,,,,,,,,,,,,,,,,,,,,,,,,,,,,,,,,,,,
,,6164692cd6ee66754bcbdbd0,2024-02-22_05h21.06.339,kallum_motion_pilot,2023.2.2,Win32,59.17159763,6164692cd6ee66754bcbdbd0,65d6bb0e977760de756971f7,65d6bd86cb0a17198e65b8d0,0.1567,0.1569,0,58,58,30,1,fourtwo,,,,,,,,,,,,,,,,,,,,,,,,,,,,,,,,,,,,,,,,,,,,,,,,,,,,,,,,,,,,,,,,,,,,,,,,,,,,,,,,,,,,,,,,,,,,,,,,,,,,,,,,,,,,,,,,,,,,,,,,,,,,,,,,,,,,,,,,,
,,6164692cd6ee66754bcbdbd0,2024-02-22_05h21.06.339,kallum_motion_pilot,2023.2.2,Win32,59.17159763,6164692cd6ee66754bcbdbd0,65d6bb0e977760de756971f7,65d6bd86cb0a17198e65b8d0,0.157,0.1572,0,59,59,13,1,threefour,,,,,,,,,,,,,,,,,,,,,,,,,,,,,,,,,,,,,,,,,,,,,,,,,,,,,,,,,,,,,,,,,,,,,,,,,,,,,,,,,,,,,,,,,,,,,,,,,,,,,,,,,,,,,,,,,,,,,,,,,,,,,,,,,,,,,,,,,
,,6164692cd6ee66754bcbdbd0,2024-02-22_05h21.06.339,kallum_motion_pilot,2023.2.2,Win32,59.17159763,6164692cd6ee66754bcbdbd0,65d6bb0e977760de756971f7,65d6bd86cb0a17198e65b8d0,0.1573,0.1575,0,60,60,142,1,eightsix,,,,,,,,,,,,,,,,,,,,,,,,,,,,,,,,,,,,,,,,,,,,,,,,,,,,,,,,,,,,,,,,,,,,,,,,,,,,,,,,,,,,,,,,,,,,,,,,,,,,,,,,,,,,,,,,,,,,,,,,,,,,,,,,,,,,,,,,,
,,6164692cd6ee66754bcbdbd0,2024-02-22_05h21.06.339,kallum_motion_pilot,2023.2.2,Win32,59.17159763,6164692cd6ee66754bcbdbd0,65d6bb0e977760de756971f7,65d6bd86cb0a17198e65b8d0,0.1577,0.1578,0,61,61,39,1,fourthree,,,,,,,,,,,,,,,,,,,,,,,,,,,,,,,,,,,,,,,,,,,,,,,,,,,,,,,,,,,,,,,,,,,,,,,,,,,,,,,,,,,,,,,,,,,,,,,,,,,,,,,,,,,,,,,,,,,,,,,,,,,,,,,,,,,,,,,,,
,,6164692cd6ee66754bcbdbd0,2024-02-22_05h21.06.339,kallum_motion_pilot,2023.2.2,Win32,59.17159763,6164692cd6ee66754bcbdbd0,65d6bb0e977760de756971f7,65d6bd86cb0a17198e65b8d0,0.1579,0.1581,0,62,62,121,1,fiveseven,,,,,,,,,,,,,,,,,,,,,,,,,,,,,,,,,,,,,,,,,,,,,,,,,,,,,,,,,,,,,,,,,,,,,,,,,,,,,,,,,,,,,,,,,,,,,,,,,,,,,,,,,,,,,,,,,,,,,,,,,,,,,,,,,,,,,,,,,
,,6164692cd6ee66754bcbdbd0,2024-02-22_05h21.06.339,kallum_motion_pilot,2023.2.2,Win32,59.17159763,6164692cd6ee66754bcbdbd0,65d6bb0e977760de756971f7,65d6bd86cb0a17198e65b8d0,0.1583,0.1584,0,63,63,15,1,fourthree,,,,,,,,,,,,,,,,,,,,,,,,,,,,,,,,,,,,,,,,,,,,,,,,,,,,,,,,,,,,,,,,,,,,,,,,,,,,,,,,,,,,,,,,,,,,,,,,,,,,,,,,,,,,,,,,,,,,,,,,,,,,,,,,,,,,,,,,,
,,6164692cd6ee66754bcbdbd0,2024-02-22_05h21.06.339,kallum_motion_pilot,2023.2.2,Win32,59.17159763,6164692cd6ee66754bcbdbd0,65d6bb0e977760de756971f7,65d6bd86cb0a17198e65b8d0,0.1588,0.1589,0,64,64,72,1,onetwo,,,,,,,,,,,,,,,,,,,,,,,,,,,,,,,,,,,,,,,,,,,,,,,,,,,,,,,,,,,,,,,,,,,,,,,,,,,,,,,,,,,,,,,,,,,,,,,,,,,,,,,,,,,,,,,,,,,,,,,,,,,,,,,,,,,,,,,,,
,,6164692cd6ee66754bcbdbd0,2024-02-22_05h21.06.339,kallum_motion_pilot,2023.2.2,Win32,59.17159763,6164692cd6ee66754bcbdbd0,65d6bb0e977760de756971f7,65d6bd86cb0a17198e65b8d0,0.1591,0.1592,0,65,65,144,1,fivesix,,,,,,,,,,,,,,,,,,,,,,,,,,,,,,,,,,,,,,,,,,,,,,,,,,,,,,,,,,,,,,,,,,,,,,,,,,,,,,,,,,,,,,,,,,,,,,,,,,,,,,,,,,,,,,,,,,,,,,,,,,,,,,,,,,,,,,,,,
,,6164692cd6ee66754bcbdbd0,2024-02-22_05h21.06.339,kallum_motion_pilot,2023.2.2,Win32,59.17159763,6164692cd6ee66754bcbdbd0,65d6bb0e977760de756971f7,65d6bd86cb0a17198e65b8d0,0.1632,0.1634,0,66,66,92,1,sevenfive,,,,,,,,,,,,,,,,,,,,,,,,,,,,,,,,,,,,,,,,,,,,,,,,,,,,,,,,,,,,,,,,,,,,,,,,,,,,,,,,,,,,,,,,,,,,,,,,,,,,,,,,,,,,,,,,,,,,,,,,,,,,,,,,,,,,,,,,,
,,6164692cd6ee66754bcbdbd0,2024-02-22_05h21.06.339,kallum_motion_pilot,2023.2.2,Win32,59.17159763,6164692cd6ee66754bcbdbd0,65d6bb0e977760de756971f7,65d6bd86cb0a17198e65b8d0,0.1636,0.1638,0,67,67,122,1,sixfive,,,,,,,,,,,,,,,,,,,,,,,,,,,,,,,,,,,,,,,,,,,,,,,,,,,,,,,,,,,,,,,,,,,,,,,,,,,,,,,,,,,,,,,,,,,,,,,,,,,,,,,,,,,,,,,,,,,,,,,,,,,,,,,,,,,,,,,,,
,,6164692cd6ee66754bcbdbd0,2024-02-22_05h21.06.339,kallum_motion_pilot,2023.2.2,Win32,59.17159763,6164692cd6ee66754bcbdbd0,65d6bb0e977760de756971f7,65d6bd86cb0a17198e65b8d0,0.1639,0.164,0,68,68,125,1,seveneight,,,,,,,,,,,,,,,,,,,,,,,,,,,,,,,,,,,,,,,,,,,,,,,,,,,,,,,,,,,,,,,,,,,,,,,,,,,,,,,,,,,,,,,,,,,,,,,,,,,,,,,,,,,,,,,,,,,,,,,,,,,,,,,,,,,,,,,,,
,,6164692cd6ee66754bcbdbd0,2024-02-22_05h21.06.339,kallum_motion_pilot,2023.2.2,Win32,59.17159763,6164692cd6ee66754bcbdbd0,65d6bb0e977760de756971f7,65d6bd86cb0a17198e65b8d0,0.1642,0.1643,0,69,69,48,1,onetwo,,,,,,,,,,,,,,,,,,,,,,,,,,,,,,,,,,,,,,,,,,,,,,,,,,,,,,,,,,,,,,,,,,,,,,,,,,,,,,,,,,,,,,,,,,,,,,,,,,,,,,,,,,,,,,,,,,,,,,,,,,,,,,,,,,,,,,,,,
,,6164692cd6ee66754bcbdbd0,2024-02-22_05h21.06.339,kallum_motion_pilot,2023.2.2,Win32,59.17159763,6164692cd6ee66754bcbdbd0,65d6bb0e977760de756971f7,65d6bd86cb0a17198e65b8d0,0.1645,0.1647,0,70,70,79,1,eightseven,,,,,,,,,,,,,,,,,,,,,,,,,,,,,,,,,,,,,,,,,,,,,,,,,,,,,,,,,,,,,,,,,,,,,,,,,,,,,,,,,,,,,,,,,,,,,,,,,,,,,,,,,,,,,,,,,,,,,,,,,,,,,,,,,,,,,,,,,
,,6164692cd6ee66754bcbdbd0,2024-02-22_05h21.06.339,kallum_motion_pilot,2023.2.2,Win32,59.17159763,6164692cd6ee66754bcbdbd0,65d6bb0e977760de756971f7,65d6bd86cb0a17198e65b8d0,0.1649,0.1649,0,71,71,46,1,fourtwo,,,,,,,,,,,,,,,,,,,,,,,,,,,,,,,,,,,,,,,,,,,,,,,,,,,,,,,,,,,,,,,,,,,,,,,,,,,,,,,,,,,,,,,,,,,,,,,,,,,,,,,,,,,,,,,,,,,,,,,,,,,,,,,,,,,,,,,,,
,,6164692cd6ee66754bcbdbd0,2024-02-22_05h21.06.339,kallum_motion_pilot,2023.2.2,Win32,59.17159763,6164692cd6ee66754bcbdbd0,65d6bb0e977760de756971f7,65d6bd86cb0a17198e65b8d0,0.1651,0.1652,0,72,72,150,1,eightsix,,,,,,,,,,,,,,,,,,,,,,,,,,,,,,,,,,,,,,,,,,,,,,,,,,,,,,,,,,,,,,,,,,,,,,,,,,,,,,,,,,,,,,,,,,,,,,,,,,,,,,,,,,,,,,,,,,,,,,,,,,,,,,,,,,,,,,,,,
,,6164692cd6ee66754bcbdbd0,2024-02-22_05h21.06.339,kallum_motion_pilot,2023.2.2,Win32,59.17159763,6164692cd6ee66754bcbdbd0,65d6bb0e977760de756971f7,65d6bd86cb0a17198e65b8d0,0.1654,0.1656,0,73,73,117,1,seveneight,,,,,,,,,,,,,,,,,,,,,,,,,,,,,,,,,,,,,,,,,,,,,,,,,,,,,,,,,,,,,,,,,,,,,,,,,,,,,,,,,,,,,,,,,,,,,,,,,,,,,,,,,,,,,,,,,,,,,,,,,,,,,,,,,,,,,,,,,
,,6164692cd6ee66754bcbdbd0,2024-02-22_05h21.06.339,kallum_motion_pilot,2023.2.2,Win32,59.17159763,6164692cd6ee66754bcbdbd0,65d6bb0e977760de756971f7,65d6bd86cb0a17198e65b8d0,0.1657,0.1659,0,74,74,119,1,eightseven,,,,,,,,,,,,,,,,,,,,,,,,,,,,,,,,,,,,,,,,,,,,,,,,,,,,,,,,,,,,,,,,,,,,,,,,,,,,,,,,,,,,,,,,,,,,,,,,,,,,,,,,,,,,,,,,,,,,,,,,,,,,,,,,,,,,,,,,,
,,6164692cd6ee66754bcbdbd0,2024-02-22_05h21.06.339,kallum_motion_pilot,2023.2.2,Win32,59.17159763,6164692cd6ee66754bcbdbd0,65d6bb0e977760de756971f7,65d6bd86cb0a17198e65b8d0,0.166,0.1662,0,75,75,12,1,threeone,,,,,,,,,,,,,,,,,,,,,,,,,,,,,,,,,,,,,,,,,,,,,,,,,,,,,,,,,,,,,,,,,,,,,,,,,,,,,,,,,,,,,,,,,,,,,,,,,,,,,,,,,,,,,,,,,,,,,,,,,,,,,,,,,,,,,,,,,
,,6164692cd6ee66754bcbdbd0,2024-02-22_05h21.06.339,kallum_motion_pilot,2023.2.2,Win32,59.17159763,6164692cd6ee66754bcbdbd0,65d6bb0e977760de756971f7,65d6bd86cb0a17198e65b8d0,0.1664,0.1665,0,76,76,4,1,threeone,,,,,,,,,,,,,,,,,,,,,,,,,,,,,,,,,,,,,,,,,,,,,,,,,,,,,,,,,,,,,,,,,,,,,,,,,,,,,,,,,,,,,,,,,,,,,,,,,,,,,,,,,,,,,,,,,,,,,,,,,,,,,,,,,,,,,,,,,
,,6164692cd6ee66754bcbdbd0,2024-02-22_05h21.06.339,kallum_motion_pilot,2023.2.2,Win32,59.17159763,6164692cd6ee66754bcbdbd0,65d6bb0e977760de756971f7,65d6bd86cb0a17198e65b8d0,0.1667,0.1667,0,77,77,24,1,onetwo,,,,,,,,,,,,,,,,,,,,,,,,,,,,,,,,,,,,,,,,,,,,,,,,,,,,,,,,,,,,,,,,,,,,,,,,,,,,,,,,,,,,,,,,,,,,,,,,,,,,,,,,,,,,,,,,,,,,,,,,,,,,,,,,,,,,,,,,,
,,6164692cd6ee66754bcbdbd0,2024-02-22_05h21.06.339,kallum_motion_pilot,2023.2.2,Win32,59.17159763,6164692cd6ee66754bcbdbd0,65d6bb0e977760de756971f7,65d6bd86cb0a17198e65b8d0,0.167,0.1671,0,78,78,67,1,twofour,,,,,,,,,,,,,,,,,,,,,,,,,,,,,,,,,,,,,,,,,,,,,,,,,,,,,,,,,,,,,,,,,,,,,,,,,,,,,,,,,,,,,,,,,,,,,,,,,,,,,,,,,,,,,,,,,,,,,,,,,,,,,,,,,,,,,,,,,
,,6164692cd6ee66754bcbdbd0,2024-02-22_05h21.06.339,kallum_motion_pilot,2023.2.2,Win32,59.17159763,6164692cd6ee66754bcbdbd0,65d6bb0e977760de756971f7,65d6bd86cb0a17198e65b8d0,0.1674,0.1676,0,79,79,59,1,twofour,,,,,,,,,,,,,,,,,,,,,,,,,,,,,,,,,,,,,,,,,,,,,,,,,,,,,,,,,,,,,,,,,,,,,,,,,,,,,,,,,,,,,,,,,,,,,,,,,,,,,,,,,,,,,,,,,,,,,,,,,,,,,,,,,,,,,,,,,
,,6164692cd6ee66754bcbdbd0,2024-02-22_05h21.06.339,kallum_motion_pilot,2023.2.2,Win32,59.17159763,6164692cd6ee66754bcbdbd0,65d6bb0e977760de756971f7,65d6bd86cb0a17198e65b8d0,0.168,0.1681,0,80,80,126,1,eightsix,,,,,,,,,,,,,,,,,,,,,,,,,,,,,,,,,,,,,,,,,,,,,,,,,,,,,,,,,,,,,,,,,,,,,,,,,,,,,,,,,,,,,,,,,,,,,,,,,,,,,,,,,,,,,,,,,,,,,,,,,,,,,,,,,,,,,,,,,
,,6164692cd6ee66754bcbdbd0,2024-02-22_05h21.06.339,kallum_motion_pilot,2023.2.2,Win32,59.17159763,6164692cd6ee66754bcbdbd0,65d6bb0e977760de756971f7,65d6bd86cb0a17198e65b8d0,0.1683,0.1684,0,81,81,102,1,eightsix,,,,,,,,,,,,,,,,,,,,,,,,,,,,,,,,,,,,,,,,,,,,,,,,,,,,,,,,,,,,,,,,,,,,,,,,,,,,,,,,,,,,,,,,,,,,,,,,,,,,,,,,,,,,,,,,,,,,,,,,,,,,,,,,,,,,,,,,,
,,6164692cd6ee66754bcbdbd0,2024-02-22_05h21.06.339,kallum_motion_pilot,2023.2.2,Win32,59.17159763,6164692cd6ee66754bcbdbd0,65d6bb0e977760de756971f7,65d6bd86cb0a17198e65b8d0,0.1686,0.1687,0,82,82,8,1,onetwo,,,,,,,,,,,,,,,,,,,,,,,,,,,,,,,,,,,,,,,,,,,,,,,,,,,,,,,,,,,,,,,,,,,,,,,,,,,,,,,,,,,,,,,,,,,,,,,,,,,,,,,,,,,,,,,,,,,,,,,,,,,,,,,,,,,,,,,,,
,,6164692cd6ee66754bcbdbd0,2024-02-22_05h21.06.339,kallum_motion_pilot,2023.2.2,Win32,59.17159763,6164692cd6ee66754bcbdbd0,65d6bb0e977760de756971f7,65d6bd86cb0a17198e65b8d0,0.169,0.1693,0,83,83,60,1,threeone,,,,,,,,,,,,,,,,,,,,,,,,,,,,,,,,,,,,,,,,,,,,,,,,,,,,,,,,,,,,,,,,,,,,,,,,,,,,,,,,,,,,,,,,,,,,,,,,,,,,,,,,,,,,,,,,,,,,,,,,,,,,,,,,,,,,,,,,,
,,6164692cd6ee66754bcbdbd0,2024-02-22_05h21.06.339,kallum_motion_pilot,2023.2.2,Win32,59.17159763,6164692cd6ee66754bcbdbd0,65d6bb0e977760de756971f7,65d6bd86cb0a17198e65b8d0,0.1695,0.1697,0,84,84,146,1,sixfive,,,,,,,,,,,,,,,,,,,,,,,,,,,,,,,,,,,,,,,,,,,,,,,,,,,,,,,,,,,,,,,,,,,,,,,,,,,,,,,,,,,,,,,,,,,,,,,,,,,,,,,,,,,,,,,,,,,,,,,,,,,,,,,,,,,,,,,,,
,,6164692cd6ee66754bcbdbd0,2024-02-22_05h21.06.339,kallum_motion_pilot,2023.2.2,Win32,59.17159763,6164692cd6ee66754bcbdbd0,65d6bb0e977760de756971f7,65d6bd86cb0a17198e65b8d0,0.1699,0.1702,0,85,85,73,1,onethree,,,,,,,,,,,,,,,,,,,,,,,,,,,,,,,,,,,,,,,,,,,,,,,,,,,,,,,,,,,,,,,,,,,,,,,,,,,,,,,,,,,,,,,,,,,,,,,,,,,,,,,,,,,,,,,,,,,,,,,,,,,,,,,,,,,,,,,,,
,,6164692cd6ee66754bcbdbd0,2024-02-22_05h21.06.339,kallum_motion_pilot,2023.2.2,Win32,59.17159763,6164692cd6ee66754bcbdbd0,65d6bb0e977760de756971f7,65d6bd86cb0a17198e65b8d0,0.1704,0.1705,0,86,86,86,1,eightsix,,,,,,,,,,,,,,,,,,,,,,,,,,,,,,,,,,,,,,,,,,,,,,,,,,,,,,,,,,,,,,,,,,,,,,,,,,,,,,,,,,,,,,,,,,,,,,,,,,,,,,,,,,,,,,,,,,,,,,,,,,,,,,,,,,,,,,,,,
,,6164692cd6ee66754bcbdbd0,2024-02-22_05h21.06.339,kallum_motion_pilot,2023.2.2,Win32,59.17159763,6164692cd6ee66754bcbdbd0,65d6bb0e977760de756971f7,65d6bd86cb0a17198e65b8d0,0.1707,0.1708,0,87,87,5,1,threefour,,,,,,,,,,,,,,,,,,,,,,,,,,,,,,,,,,,,,,,,,,,,,,,,,,,,,,,,,,,,,,,,,,,,,,,,,,,,,,,,,,,,,,,,,,,,,,,,,,,,,,,,,,,,,,,,,,,,,,,,,,,,,,,,,,,,,,,,,
,,6164692cd6ee66754bcbdbd0,2024-02-22_05h21.06.339,kallum_motion_pilot,2023.2.2,Win32,59.17159763,6164692cd6ee66754bcbdbd0,65d6bb0e977760de756971f7,65d6bd86cb0a17198e65b8d0,0.1712,0.1713,0,88,88,43,1,twofour,,,,,,,,,,,,,,,,,,,,,,,,,,,,,,,,,,,,,,,,,,,,,,,,,,,,,,,,,,,,,,,,,,,,,,,,,,,,,,,,,,,,,,,,,,,,,,,,,,,,,,,,,,,,,,,,,,,,,,,,,,,,,,,,,,,,,,,,,
,,6164692cd6ee66754bcbdbd0,2024-02-22_05h21.06.339,kallum_motion_pilot,2023.2.2,Win32,59.17159763,6164692cd6ee66754bcbdbd0,65d6bb0e977760de756971f7,65d6bd86cb0a17198e65b8d0,0.1715,0.1716,0,89,89,99,1,sixeight,,,,,,,,,,,,,,,,,,,,,,,,,,,,,,,,,,,,,,,,,,,,,,,,,,,,,,,,,,,,,,,,,,,,,,,,,,,,,,,,,,,,,,,,,,,,,,,,,,,,,,,,,,,,,,,,,,,,,,,,,,,,,,,,,,,,,,,,,
,,6164692cd6ee66754bcbdbd0,2024-02-22_05h21.06.339,kallum_motion_pilot,2023.2.2,Win32,59.17159763,6164692cd6ee66754bcbdbd0,65d6bb0e977760de756971f7,65d6bd86cb0a17198e65b8d0,0.1719,0.172,0,90,90,36,1,threeone,,,,,,,,,,,,,,,,,,,,,,,,,,,,,,,,,,,,,,,,,,,,,,,,,,,,,,,,,,,,,,,,,,,,,,,,,,,,,,,,,,,,,,,,,,,,,,,,,,,,,,,,,,,,,,,,,,,,,,,,,,,,,,,,,,,,,,,,,
,,6164692cd6ee66754bcbdbd0,2024-02-22_05h21.06.339,kallum_motion_pilot,2023.2.2,Win32,59.17159763,6164692cd6ee66754bcbdbd0,65d6bb0e977760de756971f7,65d6bd86cb0a17198e65b8d0,0.1721,0.1722,0,91,91,14,1,fourtwo,,,,,,,,,,,,,,,,,,,,,,,,,,,,,,,,,,,,,,,,,,,,,,,,,,,,,,,,,,,,,,,,,,,,,,,,,,,,,,,,,,,,,,,,,,,,,,,,,,,,,,,,,,,,,,,,,,,,,,,,,,,,,,,,,,,,,,,,,
,,6164692cd6ee66754bcbdbd0,2024-02-22_05h21.06.339,kallum_motion_pilot,2023.2.2,Win32,59.17159763,6164692cd6ee66754bcbdbd0,65d6bb0e977760de756971f7,65d6bd86cb0a17198e65b8d0,0.1724,0.1725,0,92,92,106,1,sixfive,,,,,,,,,,,,,,,,,,,,,,,,,,,,,,,,,,,,,,,,,,,,,,,,,,,,,,,,,,,,,,,,,,,,,,,,,,,,,,,,,,,,,,,,,,,,,,,,,,,,,,,,,,,,,,,,,,,,,,,,,,,,,,,,,,,,,,,,,
,,6164692cd6ee66754bcbdbd0,2024-02-22_05h21.06.339,kallum_motion_pilot,2023.2.2,Win32,59.17159763,6164692cd6ee66754bcbdbd0,65d6bb0e977760de756971f7,65d6bd86cb0a17198e65b8d0,0.1727,0.1733,0,93,93,3,1,twofour,,,,,,,,,,,,,,,,,,,,,,,,,,,,,,,,,,,,,,,,,,,,,,,,,,,,,,,,,,,,,,,,,,,,,,,,,,,,,,,,,,,,,,,,,,,,,,,,,,,,,,,,,,,,,,,,,,,,,,,,,,,,,,,,,,,,,,,,,
,,6164692cd6ee66754bcbdbd0,2024-02-22_05h21.06.339,kallum_motion_pilot,2023.2.2,Win32,59.17159763,6164692cd6ee66754bcbdbd0,65d6bb0e977760de756971f7,65d6bd86cb0a17198e65b8d0,0.174,0.1741,0,94,94,89,1,fiveseven,,,,,,,,,,,,,,,,,,,,,,,,,,,,,,,,,,,,,,,,,,,,,,,,,,,,,,,,,,,,,,,,,,,,,,,,,,,,,,,,,,,,,,,,,,,,,,,,,,,,,,,,,,,,,,,,,,,,,,,,,,,,,,,,,,,,,,,,,
,,6164692cd6ee66754bcbdbd0,2024-02-22_05h21.06.339,kallum_motion_pilot,2023.2.2,Win32,59.17159763,6164692cd6ee66754bcbdbd0,65d6bb0e977760de756971f7,65d6bd86cb0a17198e65b8d0,0.1743,0.1745,0,95,95,44,1,threeone,,,,,,,,,,,,,,,,,,,,,,,,,,,,,,,,,,,,,,,,,,,,,,,,,,,,,,,,,,,,,,,,,,,,,,,,,,,,,,,,,,,,,,,,,,,,,,,,,,,,,,,,,,,,,,,,,,,,,,,,,,,,,,,,,,,,,,,,,
,,6164692cd6ee66754bcbdbd0,2024-02-22_05h21.06.339,kallum_motion_pilot,2023.2.2,Win32,59.17159763,6164692cd6ee66754bcbdbd0,65d6bb0e977760de756971f7,65d6bd86cb0a17198e65b8d0,0.1747,0.1753,0,96,96,100,1,sevenfive,,,,,,,,,,,,,,,,,,,,,,,,,,,,,,,,,,,,,,,,,,,,,,,,,,,,,,,,,,,,,,,,,,,,,,,,,,,,,,,,,,,,,,,,,,,,,,,,,,,,,,,,,,,,,,,,,,,,,,,,,,,,,,,,,,,,,,,,,
,,6164692cd6ee66754bcbdbd0,2024-02-22_05h21.06.339,kallum_motion_pilot,2023.2.2,Win32,59.17159763,6164692cd6ee66754bcbdbd0,65d6bb0e977760de756971f7,65d6bd86cb0a17198e65b8d0,0.1757,0.1788,0,97,97,160,1,fivesix,,,,,,,,,,,,,,,,,,,,,,,,,,,,,,,,,,,,,,,,,,,,,,,,,,,,,,,,,,,,,,,,,,,,,,,,,,,,,,,,,,,,,,,,,,,,,,,,,,,,,,,,,,,,,,,,,,,,,,,,,,,,,,,,,,,,,,,,,
,,6164692cd6ee66754bcbdbd0,2024-02-22_05h21.06.339,kallum_motion_pilot,2023.2.2,Win32,59.17159763,6164692cd6ee66754bcbdbd0,65d6bb0e977760de756971f7,65d6bd86cb0a17198e65b8d0,0.1792,0.1794,0,98,98,156,1,sevenfive,,,,,,,,,,,,,,,,,,,,,,,,,,,,,,,,,,,,,,,,,,,,,,,,,,,,,,,,,,,,,,,,,,,,,,,,,,,,,,,,,,,,,,,,,,,,,,,,,,,,,,,,,,,,,,,,,,,,,,,,,,,,,,,,,,,,,,,,,
,,6164692cd6ee66754bcbdbd0,2024-02-22_05h21.06.339,kallum_motion_pilot,2023.2.2,Win32,59.17159763,6164692cd6ee66754bcbdbd0,65d6bb0e977760de756971f7,65d6bd86cb0a17198e65b8d0,0.1796,0.1797,0,99,99,33,1,onethree,,,,,,,,,,,,,,,,,,,,,,,,,,,,,,,,,,,,,,,,,,,,,,,,,,,,,,,,,,,,,,,,,,,,,,,,,,,,,,,,,,,,,,,,,,,,,,,,,,,,,,,,,,,,,,,,,,,,,,,,,,,,,,,,,,,,,,,,,
,,6164692cd6ee66754bcbdbd0,2024-02-22_05h21.06.339,kallum_motion_pilot,2023.2.2,Win32,59.17159763,6164692cd6ee66754bcbdbd0,65d6bb0e977760de756971f7,65d6bd86cb0a17198e65b8d0,0.18,0.1801,0,100,100,29,1,threefour,,,,,,,,,,,,,,,,,,,,,,,,,,,,,,,,,,,,,,,,,,,,,,,,,,,,,,,,,,,,,,,,,,,,,,,,,,,,,,,,,,,,,,,,,,,,,,,,,,,,,,,,,,,,,,,,,,,,,,,,,,,,,,,,,,,,,,,,,
,,6164692cd6ee66754bcbdbd0,2024-02-22_05h21.06.339,kallum_motion_pilot,2023.2.2,Win32,59.17159763,6164692cd6ee66754bcbdbd0,65d6bb0e977760de756971f7,65d6bd86cb0a17198e65b8d0,0.1803,0.1804,0,101,101,157,1,seveneight,,,,,,,,,,,,,,,,,,,,,,,,,,,,,,,,,,,,,,,,,,,,,,,,,,,,,,,,,,,,,,,,,,,,,,,,,,,,,,,,,,,,,,,,,,,,,,,,,,,,,,,,,,,,,,,,,,,,,,,,,,,,,,,,,,,,,,,,,
,,6164692cd6ee66754bcbdbd0,2024-02-22_05h21.06.339,kallum_motion_pilot,2023.2.2,Win32,59.17159763,6164692cd6ee66754bcbdbd0,65d6bb0e977760de756971f7,65d6bd86cb0a17198e65b8d0,0.1805,0.1807,0,102,102,10,1,twoone,,,,,,,,,,,,,,,,,,,,,,,,,,,,,,,,,,,,,,,,,,,,,,,,,,,,,,,,,,,,,,,,,,,,,,,,,,,,,,,,,,,,,,,,,,,,,,,,,,,,,,,,,,,,,,,,,,,,,,,,,,,,,,,,,,,,,,,,,
,,6164692cd6ee66754bcbdbd0,2024-02-22_05h21.06.339,kallum_motion_pilot,2023.2.2,Win32,59.17159763,6164692cd6ee66754bcbdbd0,65d6bb0e977760de756971f7,65d6bd86cb0a17198e65b8d0,0.1809,0.1811,0,103,103,96,1,fivesix,,,,,,,,,,,,,,,,,,,,,,,,,,,,,,,,,,,,,,,,,,,,,,,,,,,,,,,,,,,,,,,,,,,,,,,,,,,,,,,,,,,,,,,,,,,,,,,,,,,,,,,,,,,,,,,,,,,,,,,,,,,,,,,,,,,,,,,,,
,,6164692cd6ee66754bcbdbd0,2024-02-22_05h21.06.339,kallum_motion_pilot,2023.2.2,Win32,59.17159763,6164692cd6ee66754bcbdbd0,65d6bb0e977760de756971f7,65d6bd86cb0a17198e65b8d0,0.1812,0.1813,0,104,104,57,1,onethree,,,,,,,,,,,,,,,,,,,,,,,,,,,,,,,,,,,,,,,,,,,,,,,,,,,,,,,,,,,,,,,,,,,,,,,,,,,,,,,,,,,,,,,,,,,,,,,,,,,,,,,,,,,,,,,,,,,,,,,,,,,,,,,,,,,,,,,,,
,,6164692cd6ee66754bcbdbd0,2024-02-22_05h21.06.339,kallum_motion_pilot,2023.2.2,Win32,59.17159763,6164692cd6ee66754bcbdbd0,65d6bb0e977760de756971f7,65d6bd86cb0a17198e65b8d0,0.1816,0.1819,0,105,105,137,1,fiveseven,,,,,,,,,,,,,,,,,,,,,,,,,,,,,,,,,,,,,,,,,,,,,,,,,,,,,,,,,,,,,,,,,,,,,,,,,,,,,,,,,,,,,,,,,,,,,,,,,,,,,,,,,,,,,,,,,,,,,,,,,,,,,,,,,,,,,,,,,
,,6164692cd6ee66754bcbdbd0,2024-02-22_05h21.06.339,kallum_motion_pilot,2023.2.2,Win32,59.17159763,6164692cd6ee66754bcbdbd0,65d6bb0e977760de756971f7,65d6bd86cb0a17198e65b8d0,0.1821,0.1821,0,106,106,140,1,sevenfive,,,,,,,,,,,,,,,,,,,,,,,,,,,,,,,,,,,,,,,,,,,,,,,,,,,,,,,,,,,,,,,,,,,,,,,,,,,,,,,,,,,,,,,,,,,,,,,,,,,,,,,,,,,,,,,,,,,,,,,,,,,,,,,,,,,,,,,,,
,,6164692cd6ee66754bcbdbd0,2024-02-22_05h21.06.339,kallum_motion_pilot,2023.2.2,Win32,59.17159763,6164692cd6ee66754bcbdbd0,65d6bb0e977760de756971f7,65d6bd86cb0a17198e65b8d0,0.1823,0.1825,0,107,107,87,1,eightseven,,,,,,,,,,,,,,,,,,,,,,,,,,,,,,,,,,,,,,,,,,,,,,,,,,,,,,,,,,,,,,,,,,,,,,,,,,,,,,,,,,,,,,,,,,,,,,,,,,,,,,,,,,,,,,,,,,,,,,,,,,,,,,,,,,,,,,,,,
,,6164692cd6ee66754bcbdbd0,2024-02-22_05h21.06.339,kallum_motion_pilot,2023.2.2,Win32,59.17159763,6164692cd6ee66754bcbdbd0,65d6bb0e977760de756971f7,65d6bd86cb0a17198e65b8d0,0.1827,0.1828,0,108,108,78,1,fourtwo,,,,,,,,,,,,,,,,,,,,,,,,,,,,,,,,,,,,,,,,,,,,,,,,,,,,,,,,,,,,,,,,,,,,,,,,,,,,,,,,,,,,,,,,,,,,,,,,,,,,,,,,,,,,,,,,,,,,,,,,,,,,,,,,,,,,,,,,,
,,6164692cd6ee66754bcbdbd0,2024-02-22_05h21.06.339,kallum_motion_pilot,2023.2.2,Win32,59.17159763,6164692cd6ee66754bcbdbd0,65d6bb0e977760de756971f7,65d6bd86cb0a17198e65b8d0,0.183,0.1831,0,109,109,71,1,fourthree,,,,,,,,,,,,,,,,,,,,,,,,,,,,,,,,,,,,,,,,,,,,,,,,,,,,,,,,,,,,,,,,,,,,,,,,,,,,,,,,,,,,,,,,,,,,,,,,,,,,,,,,,,,,,,,,,,,,,,,,,,,,,,,,,,,,,,,,,
,,6164692cd6ee66754bcbdbd0,2024-02-22_05h21.06.339,kallum_motion_pilot,2023.2.2,Win32,59.17159763,6164692cd6ee66754bcbdbd0,65d6bb0e977760de756971f7,65d6bd86cb0a17198e65b8d0,0.1833,0.1834,0,110,110,135,1,eightseven,,,,,,,,,,,,,,,,,,,,,,,,,,,,,,,,,,,,,,,,,,,,,,,,,,,,,,,,,,,,,,,,,,,,,,,,,,,,,,,,,,,,,,,,,,,,,,,,,,,,,,,,,,,,,,,,,,,,,,,,,,,,,,,,,,,,,,,,,
,,6164692cd6ee66754bcbdbd0,2024-02-22_05h21.06.339,kallum_motion_pilot,2023.2.2,Win32,59.17159763,6164692cd6ee66754bcbdbd0,65d6bb0e977760de756971f7,65d6bd86cb0a17198e65b8d0,0.1836,0.1838,0,111,111,139,1,sixeight,,,,,,,,,,,,,,,,,,,,,,,,,,,,,,,,,,,,,,,,,,,,,,,,,,,,,,,,,,,,,,,,,,,,,,,,,,,,,,,,,,,,,,,,,,,,,,,,,,,,,,,,,,,,,,,,,,,,,,,,,,,,,,,,,,,,,,,,,
,,6164692cd6ee66754bcbdbd0,2024-02-22_05h21.06.339,kallum_motion_pilot,2023.2.2,Win32,59.17159763,6164692cd6ee66754bcbdbd0,65d6bb0e977760de756971f7,65d6bd86cb0a17198e65b8d0,0.1839,0.1841,0,112,112,105,1,fiveseven,,,,,,,,,,,,,,,,,,,,,,,,,,,,,,,,,,,,,,,,,,,,,,,,,,,,,,,,,,,,,,,,,,,,,,,,,,,,,,,,,,,,,,,,,,,,,,,,,,,,,,,,,,,,,,,,,,,,,,,,,,,,,,,,,,,,,,,,,
,,6164692cd6ee66754bcbdbd0,2024-02-22_05h21.06.339,kallum_motion_pilot,2023.2.2,Win32,59.17159763,6164692cd6ee66754bcbdbd0,65d6bb0e977760de756971f7,65d6bd86cb0a17198e65b8d0,0.1842,0.1845,0,113,113,116,1,sevenfive,,,,,,,,,,,,,,,,,,,,,,,,,,,,,,,,,,,,,,,,,,,,,,,,,,,,,,,,,,,,,,,,,,,,,,,,,,,,,,,,,,,,,,,,,,,,,,,,,,,,,,,,,,,,,,,,,,,,,,,,,,,,,,,,,,,,,,,,,
,,6164692cd6ee66754bcbdbd0,2024-02-22_05h21.06.339,kallum_motion_pilot,2023.2.2,Win32,59.17159763,6164692cd6ee66754bcbdbd0,65d6bb0e977760de756971f7,65d6bd86cb0a17198e65b8d0,0.1846,0.1847,0,114,114,111,1,eightseven,,,,,,,,,,,,,,,,,,,,,,,,,,,,,,,,,,,,,,,,,,,,,,,,,,,,,,,,,,,,,,,,,,,,,,,,,,,,,,,,,,,,,,,,,,,,,,,,,,,,,,,,,,,,,,,,,,,,,,,,,,,,,,,,,,,,,,,,,
,,6164692cd6ee66754bcbdbd0,2024-02-22_05h21.06.339,kallum_motion_pilot,2023.2.2,Win32,59.17159763,6164692cd6ee66754bcbdbd0,65d6bb0e977760de756971f7,65d6bd86cb0a17198e65b8d0,0.1849,0.1851,0,115,115,107,1,sixeight,,,,,,,,,,,,,,,,,,,,,,,,,,,,,,,,,,,,,,,,,,,,,,,,,,,,,,,,,,,,,,,,,,,,,,,,,,,,,,,,,,,,,,,,,,,,,,,,,,,,,,,,,,,,,,,,,,,,,,,,,,,,,,,,,,,,,,,,,
,,6164692cd6ee66754bcbdbd0,2024-02-22_05h21.06.339,kallum_motion_pilot,2023.2.2,Win32,59.17159763,6164692cd6ee66754bcbdbd0,65d6bb0e977760de756971f7,65d6bd86cb0a17198e65b8d0,0.1852,0.1854,0,116,116,155,1,sixeight,,,,,,,,,,,,,,,,,,,,,,,,,,,,,,,,,,,,,,,,,,,,,,,,,,,,,,,,,,,,,,,,,,,,,,,,,,,,,,,,,,,,,,,,,,,,,,,,,,,,,,,,,,,,,,,,,,,,,,,,,,,,,,,,,,,,,,,,,
,,6164692cd6ee66754bcbdbd0,2024-02-22_05h21.06.339,kallum_motion_pilot,2023.2.2,Win32,59.17159763,6164692cd6ee66754bcbdbd0,65d6bb0e977760de756971f7,65d6bd86cb0a17198e65b8d0,0.1855,0.1857,0,117,117,6,1,fourtwo,,,,,,,,,,,,,,,,,,,,,,,,,,,,,,,,,,,,,,,,,,,,,,,,,,,,,,,,,,,,,,,,,,,,,,,,,,,,,,,,,,,,,,,,,,,,,,,,,,,,,,,,,,,,,,,,,,,,,,,,,,,,,,,,,,,,,,,,,
,,6164692cd6ee66754bcbdbd0,2024-02-22_05h21.06.339,kallum_motion_pilot,2023.2.2,Win32,59.17159763,6164692cd6ee66754bcbdbd0,65d6bb0e977760de756971f7,65d6bd86cb0a17198e65b8d0,0.1858,0.186,0,118,118,154,1,sixfive,,,,,,,,,,,,,,,,,,,,,,,,,,,,,,,,,,,,,,,,,,,,,,,,,,,,,,,,,,,,,,,,,,,,,,,,,,,,,,,,,,,,,,,,,,,,,,,,,,,,,,,,,,,,,,,,,,,,,,,,,,,,,,,,,,,,,,,,,
,,6164692cd6ee66754bcbdbd0,2024-02-22_05h21.06.339,kallum_motion_pilot,2023.2.2,Win32,59.17159763,6164692cd6ee66754bcbdbd0,65d6bb0e977760de756971f7,65d6bd86cb0a17198e65b8d0,0.1862,0.1863,0,119,119,114,1,sixfive,,,,,,,,,,,,,,,,,,,,,,,,,,,,,,,,,,,,,,,,,,,,,,,,,,,,,,,,,,,,,,,,,,,,,,,,,,,,,,,,,,,,,,,,,,,,,,,,,,,,,,,,,,,,,,,,,,,,,,,,,,,,,,,,,,,,,,,,,
,,6164692cd6ee66754bcbdbd0,2024-02-22_05h21.06.339,kallum_motion_pilot,2023.2.2,Win32,59.17159763,6164692cd6ee66754bcbdbd0,65d6bb0e977760de756971f7,65d6bd86cb0a17198e65b8d0,0.1864,0.1867,0,120,120,133,1,seveneight,,,,,,,,,,,,,,,,,,,,,,,,,,,,,,,,,,,,,,,,,,,,,,,,,,,,,,,,,,,,,,,,,,,,,,,,,,,,,,,,,,,,,,,,,,,,,,,,,,,,,,,,,,,,,,,,,,,,,,,,,,,,,,,,,,,,,,,,,
,,6164692cd6ee66754bcbdbd0,2024-02-22_05h21.06.339,kallum_motion_pilot,2023.2.2,Win32,59.17159763,6164692cd6ee66754bcbdbd0,65d6bb0e977760de756971f7,65d6bd86cb0a17198e65b8d0,0.1868,0.1869,0,121,121,64,1,onetwo,,,,,,,,,,,,,,,,,,,,,,,,,,,,,,,,,,,,,,,,,,,,,,,,,,,,,,,,,,,,,,,,,,,,,,,,,,,,,,,,,,,,,,,,,,,,,,,,,,,,,,,,,,,,,,,,,,,,,,,,,,,,,,,,,,,,,,,,,
,,6164692cd6ee66754bcbdbd0,2024-02-22_05h21.06.339,kallum_motion_pilot,2023.2.2,Win32,59.17159763,6164692cd6ee66754bcbdbd0,65d6bb0e977760de756971f7,65d6bd86cb0a17198e65b8d0,0.1871,0.1873,0,122,122,11,1,twofour,,,,,,,,,,,,,,,,,,,,,,,,,,,,,,,,,,,,,,,,,,,,,,,,,,,,,,,,,,,,,,,,,,,,,,,,,,,,,,,,,,,,,,,,,,,,,,,,,,,,,,,,,,,,,,,,,,,,,,,,,,,,,,,,,,,,,,,,,
,,6164692cd6ee66754bcbdbd0,2024-02-22_05h21.06.339,kallum_motion_pilot,2023.2.2,Win32,59.17159763,6164692cd6ee66754bcbdbd0,65d6bb0e977760de756971f7,65d6bd86cb0a17198e65b8d0,0.1874,0.1876,0,123,123,145,1,fiveseven,,,,,,,,,,,,,,,,,,,,,,,,,,,,,,,,,,,,,,,,,,,,,,,,,,,,,,,,,,,,,,,,,,,,,,,,,,,,,,,,,,,,,,,,,,,,,,,,,,,,,,,,,,,,,,,,,,,,,,,,,,,,,,,,,,,,,,,,,
,,6164692cd6ee66754bcbdbd0,2024-02-22_05h21.06.339,kallum_motion_pilot,2023.2.2,Win32,59.17159763,6164692cd6ee66754bcbdbd0,65d6bb0e977760de756971f7,65d6bd86cb0a17198e65b8d0,0.1878,0.1879,0,124,124,136,1,fivesix,,,,,,,,,,,,,,,,,,,,,,,,,,,,,,,,,,,,,,,,,,,,,,,,,,,,,,,,,,,,,,,,,,,,,,,,,,,,,,,,,,,,,,,,,,,,,,,,,,,,,,,,,,,,,,,,,,,,,,,,,,,,,,,,,,,,,,,,,
,,6164692cd6ee66754bcbdbd0,2024-02-22_05h21.06.339,kallum_motion_pilot,2023.2.2,Win32,59.17159763,6164692cd6ee66754bcbdbd0,65d6bb0e977760de756971f7,65d6bd86cb0a17198e65b8d0,0.1881,0.1883,0,125,125,77,1,threefour,,,,,,,,,,,,,,,,,,,,,,,,,,,,,,,,,,,,,,,,,,,,,,,,,,,,,,,,,,,,,,,,,,,,,,,,,,,,,,,,,,,,,,,,,,,,,,,,,,,,,,,,,,,,,,,,,,,,,,,,,,,,,,,,,,,,,,,,,
,,6164692cd6ee66754bcbdbd0,2024-02-22_05h21.06.339,kallum_motion_pilot,2023.2.2,Win32,59.17159763,6164692cd6ee66754bcbdbd0,65d6bb0e977760de756971f7,65d6bd86cb0a17198e65b8d0,0.1884,0.1886,0,126,126,23,1,fourthree,,,,,,,,,,,,,,,,,,,,,,,,,,,,,,,,,,,,,,,,,,,,,,,,,,,,,,,,,,,,,,,,,,,,,,,,,,,,,,,,,,,,,,,,,,,,,,,,,,,,,,,,,,,,,,,,,,,,,,,,,,,,,,,,,,,,,,,,,
,,6164692cd6ee66754bcbdbd0,2024-02-22_05h21.06.339,kallum_motion_pilot,2023.2.2,Win32,59.17159763,6164692cd6ee66754bcbdbd0,65d6bb0e977760de756971f7,65d6bd86cb0a17198e65b8d0,0.1889,0.1891,0,127,127,134,1,eightsix,,,,,,,,,,,,,,,,,,,,,,,,,,,,,,,,,,,,,,,,,,,,,,,,,,,,,,,,,,,,,,,,,,,,,,,,,,,,,,,,,,,,,,,,,,,,,,,,,,,,,,,,,,,,,,,,,,,,,,,,,,,,,,,,,,,,,,,,,
,,6164692cd6ee66754bcbdbd0,2024-02-22_05h21.06.339,kallum_motion_pilot,2023.2.2,Win32,59.17159763,6164692cd6ee66754bcbdbd0,65d6bb0e977760de756971f7,65d6bd86cb0a17198e65b8d0,0.1893,0.1895,0,128,128,115,1,sixeight,,,,,,,,,,,,,,,,,,,,,,,,,,,,,,,,,,,,,,,,,,,,,,,,,,,,,,,,,,,,,,,,,,,,,,,,,,,,,,,,,,,,,,,,,,,,,,,,,,,,,,,,,,,,,,,,,,,,,,,,,,,,,,,,,,,,,,,,,
,,6164692cd6ee66754bcbdbd0,2024-02-22_05h21.06.339,kallum_motion_pilot,2023.2.2,Win32,59.17159763,6164692cd6ee66754bcbdbd0,65d6bb0e977760de756971f7,65d6bd86cb0a17198e65b8d0,0.1896,0.1898,0,129,129,103,1,eightseven,,,,,,,,,,,,,,,,,,,,,,,,,,,,,,,,,,,,,,,,,,,,,,,,,,,,,,,,,,,,,,,,,,,,,,,,,,,,,,,,,,,,,,,,,,,,,,,,,,,,,,,,,,,,,,,,,,,,,,,,,,,,,,,,,,,,,,,,,
,,6164692cd6ee66754bcbdbd0,2024-02-22_05h21.06.339,kallum_motion_pilot,2023.2.2,Win32,59.17159763,6164692cd6ee66754bcbdbd0,65d6bb0e977760de756971f7,65d6bd86cb0a17198e65b8d0,0.19,0.1902,0,130,130,19,1,twofour,,,,,,,,,,,,,,,,,,,,,,,,,,,,,,,,,,,,,,,,,,,,,,,,,,,,,,,,,,,,,,,,,,,,,,,,,,,,,,,,,,,,,,,,,,,,,,,,,,,,,,,,,,,,,,,,,,,,,,,,,,,,,,,,,,,,,,,,,
,,6164692cd6ee66754bcbdbd0,2024-02-22_05h21.06.339,kallum_motion_pilot,2023.2.2,Win32,59.17159763,6164692cd6ee66754bcbdbd0,65d6bb0e977760de756971f7,65d6bd86cb0a17198e65b8d0,0.1904,0.1905,0,131,131,80,1,fivesix,,,,,,,,,,,,,,,,,,,,,,,,,,,,,,,,,,,,,,,,,,,,,,,,,,,,,,,,,,,,,,,,,,,,,,,,,,,,,,,,,,,,,,,,,,,,,,,,,,,,,,,,,,,,,,,,,,,,,,,,,,,,,,,,,,,,,,,,,
,,6164692cd6ee66754bcbdbd0,2024-02-22_05h21.06.339,kallum_motion_pilot,2023.2.2,Win32,59.17159763,6164692cd6ee66754bcbdbd0,65d6bb0e977760de756971f7,65d6bd86cb0a17198e65b8d0,0.1906,0.1907,0,132,132,32,1,onetwo,,,,,,,,,,,,,,,,,,,,,,,,,,,,,,,,,,,,,,,,,,,,,,,,,,,,,,,,,,,,,,,,,,,,,,,,,,,,,,,,,,,,,,,,,,,,,,,,,,,,,,,,,,,,,,,,,,,,,,,,,,,,,,,,,,,,,,,,,
,,6164692cd6ee66754bcbdbd0,2024-02-22_05h21.06.339,kallum_motion_pilot,2023.2.2,Win32,59.17159763,6164692cd6ee66754bcbdbd0,65d6bb0e977760de756971f7,65d6bd86cb0a17198e65b8d0,0.1909,0.1911,0,133,133,76,1,threeone,,,,,,,,,,,,,,,,,,,,,,,,,,,,,,,,,,,,,,,,,,,,,,,,,,,,,,,,,,,,,,,,,,,,,,,,,,,,,,,,,,,,,,,,,,,,,,,,,,,,,,,,,,,,,,,,,,,,,,,,,,,,,,,,,,,,,,,,,
,,6164692cd6ee66754bcbdbd0,2024-02-22_05h21.06.339,kallum_motion_pilot,2023.2.2,Win32,59.17159763,6164692cd6ee66754bcbdbd0,65d6bb0e977760de756971f7,65d6bd86cb0a17198e65b8d0,0.1912,0.1914,0,134,134,34,1,twoone,,,,,,,,,,,,,,,,,,,,,,,,,,,,,,,,,,,,,,,,,,,,,,,,,,,,,,,,,,,,,,,,,,,,,,,,,,,,,,,,,,,,,,,,,,,,,,,,,,,,,,,,,,,,,,,,,,,,,,,,,,,,,,,,,,,,,,,,,
,,6164692cd6ee66754bcbdbd0,2024-02-22_05h21.06.339,kallum_motion_pilot,2023.2.2,Win32,59.17159763,6164692cd6ee66754bcbdbd0,65d6bb0e977760de756971f7,65d6bd86cb0a17198e65b8d0,0.1916,0.1917,0,135,135,128,1,fivesix,,,,,,,,,,,,,,,,,,,,,,,,,,,,,,,,,,,,,,,,,,,,,,,,,,,,,,,,,,,,,,,,,,,,,,,,,,,,,,,,,,,,,,,,,,,,,,,,,,,,,,,,,,,,,,,,,,,,,,,,,,,,,,,,,,,,,,,,,
,,6164692cd6ee66754bcbdbd0,2024-02-22_05h21.06.339,kallum_motion_pilot,2023.2.2,Win32,59.17159763,6164692cd6ee66754bcbdbd0,65d6bb0e977760de756971f7,65d6bd86cb0a17198e65b8d0,0.1918,0.1921,0,136,136,141,1,seveneight,,,,,,,,,,,,,,,,,,,,,,,,,,,,,,,,,,,,,,,,,,,,,,,,,,,,,,,,,,,,,,,,,,,,,,,,,,,,,,,,,,,,,,,,,,,,,,,,,,,,,,,,,,,,,,,,,,,,,,,,,,,,,,,,,,,,,,,,,
,,6164692cd6ee66754bcbdbd0,2024-02-22_05h21.06.339,kallum_motion_pilot,2023.2.2,Win32,59.17159763,6164692cd6ee66754bcbdbd0,65d6bb0e977760de756971f7,65d6bd86cb0a17198e65b8d0,0.1922,0.1923,0,137,137,94,1,eightsix,,,,,,,,,,,,,,,,,,,,,,,,,,,,,,,,,,,,,,,,,,,,,,,,,,,,,,,,,,,,,,,,,,,,,,,,,,,,,,,,,,,,,,,,,,,,,,,,,,,,,,,,,,,,,,,,,,,,,,,,,,,,,,,,,,,,,,,,,
,,6164692cd6ee66754bcbdbd0,2024-02-22_05h21.06.339,kallum_motion_pilot,2023.2.2,Win32,59.17159763,6164692cd6ee66754bcbdbd0,65d6bb0e977760de756971f7,65d6bd86cb0a17198e65b8d0,0.1925,0.1925,0,138,138,17,1,onethree,,,,,,,,,,,,,,,,,,,,,,,,,,,,,,,,,,,,,,,,,,,,,,,,,,,,,,,,,,,,,,,,,,,,,,,,,,,,,,,,,,,,,,,,,,,,,,,,,,,,,,,,,,,,,,,,,,,,,,,,,,,,,,,,,,,,,,,,,
,,6164692cd6ee66754bcbdbd0,2024-02-22_05h21.06.339,kallum_motion_pilot,2023.2.2,Win32,59.17159763,6164692cd6ee66754bcbdbd0,65d6bb0e977760de756971f7,65d6bd86cb0a17198e65b8d0,0.1957,0.196,0,139,139,123,1,sixeight,,,,,,,,,,,,,,,,,,,,,,,,,,,,,,,,,,,,,,,,,,,,,,,,,,,,,,,,,,,,,,,,,,,,,,,,,,,,,,,,,,,,,,,,,,,,,,,,,,,,,,,,,,,,,,,,,,,,,,,,,,,,,,,,,,,,,,,,,
,,6164692cd6ee66754bcbdbd0,2024-02-22_05h21.06.339,kallum_motion_pilot,2023.2.2,Win32,59.17159763,6164692cd6ee66754bcbdbd0,65d6bb0e977760de756971f7,65d6bd86cb0a17198e65b8d0,0.197,0.1972,0,140,140,35,1,twofour,,,,,,,,,,,,,,,,,,,,,,,,,,,,,,,,,,,,,,,,,,,,,,,,,,,,,,,,,,,,,,,,,,,,,,,,,,,,,,,,,,,,,,,,,,,,,,,,,,,,,,,,,,,,,,,,,,,,,,,,,,,,,,,,,,,,,,,,,
,,6164692cd6ee66754bcbdbd0,2024-02-22_05h21.06.339,kallum_motion_pilot,2023.2.2,Win32,59.17159763,6164692cd6ee66754bcbdbd0,65d6bb0e977760de756971f7,65d6bd86cb0a17198e65b8d0,0.1975,0.1976,0,141,141,55,1,fourthree,,,,,,,,,,,,,,,,,,,,,,,,,,,,,,,,,,,,,,,,,,,,,,,,,,,,,,,,,,,,,,,,,,,,,,,,,,,,,,,,,,,,,,,,,,,,,,,,,,,,,,,,,,,,,,,,,,,,,,,,,,,,,,,,,,,,,,,,,
,,6164692cd6ee66754bcbdbd0,2024-02-22_05h21.06.339,kallum_motion_pilot,2023.2.2,Win32,59.17159763,6164692cd6ee66754bcbdbd0,65d6bb0e977760de756971f7,65d6bd86cb0a17198e65b8d0,0.1978,0.1985,0,142,142,50,1,twoone,,,,,,,,,,,,,,,,,,,,,,,,,,,,,,,,,,,,,,,,,,,,,,,,,,,,,,,,,,,,,,,,,,,,,,,,,,,,,,,,,,,,,,,,,,,,,,,,,,,,,,,,,,,,,,,,,,,,,,,,,,,,,,,,,,,,,,,,,
,,6164692cd6ee66754bcbdbd0,2024-02-22_05h21.06.339,kallum_motion_pilot,2023.2.2,Win32,59.17159763,6164692cd6ee66754bcbdbd0,65d6bb0e977760de756971f7,65d6bd86cb0a17198e65b8d0,0.1993,0.1996,0,143,143,31,1,fourthree,,,,,,,,,,,,,,,,,,,,,,,,,,,,,,,,,,,,,,,,,,,,,,,,,,,,,,,,,,,,,,,,,,,,,,,,,,,,,,,,,,,,,,,,,,,,,,,,,,,,,,,,,,,,,,,,,,,,,,,,,,,,,,,,,,,,,,,,,
,,6164692cd6ee66754bcbdbd0,2024-02-22_05h21.06.339,kallum_motion_pilot,2023.2.2,Win32,59.17159763,6164692cd6ee66754bcbdbd0,65d6bb0e977760de756971f7,65d6bd86cb0a17198e65b8d0,0.1999,0.2,0,144,144,130,1,sixfive,,,,,,,,,,,,,,,,,,,,,,,,,,,,,,,,,,,,,,,,,,,,,,,,,,,,,,,,,,,,,,,,,,,,,,,,,,,,,,,,,,,,,,,,,,,,,,,,,,,,,,,,,,,,,,,,,,,,,,,,,,,,,,,,,,,,,,,,,
,,6164692cd6ee66754bcbdbd0,2024-02-22_05h21.06.339,kallum_motion_pilot,2023.2.2,Win32,59.17159763,6164692cd6ee66754bcbdbd0,65d6bb0e977760de756971f7,65d6bd86cb0a17198e65b8d0,0.2004,0.2004,0,145,145,108,1,sevenfive,,,,,,,,,,,,,,,,,,,,,,,,,,,,,,,,,,,,,,,,,,,,,,,,,,,,,,,,,,,,,,,,,,,,,,,,,,,,,,,,,,,,,,,,,,,,,,,,,,,,,,,,,,,,,,,,,,,,,,,,,,,,,,,,,,,,,,,,,
,,6164692cd6ee66754bcbdbd0,2024-02-22_05h21.06.339,kallum_motion_pilot,2023.2.2,Win32,59.17159763,6164692cd6ee66754bcbdbd0,65d6bb0e977760de756971f7,65d6bd86cb0a17198e65b8d0,0.2006,0.2007,0,146,146,61,1,threefour,,,,,,,,,,,,,,,,,,,,,,,,,,,,,,,,,,,,,,,,,,,,,,,,,,,,,,,,,,,,,,,,,,,,,,,,,,,,,,,,,,,,,,,,,,,,,,,,,,,,,,,,,,,,,,,,,,,,,,,,,,,,,,,,,,,,,,,,,
,,6164692cd6ee66754bcbdbd0,2024-02-22_05h21.06.339,kallum_motion_pilot,2023.2.2,Win32,59.17159763,6164692cd6ee66754bcbdbd0,65d6bb0e977760de756971f7,65d6bd86cb0a17198e65b8d0,0.2009,0.2011,0,147,147,148,1,sevenfive,,,,,,,,,,,,,,,,,,,,,,,,,,,,,,,,,,,,,,,,,,,,,,,,,,,,,,,,,,,,,,,,,,,,,,,,,,,,,,,,,,,,,,,,,,,,,,,,,,,,,,,,,,,,,,,,,,,,,,,,,,,,,,,,,,,,,,,,,
,,6164692cd6ee66754bcbdbd0,2024-02-22_05h21.06.339,kallum_motion_pilot,2023.2.2,Win32,59.17159763,6164692cd6ee66754bcbdbd0,65d6bb0e977760de756971f7,65d6bd86cb0a17198e65b8d0,0.2012,0.2014,0,148,148,85,1,seveneight,,,,,,,,,,,,,,,,,,,,,,,,,,,,,,,,,,,,,,,,,,,,,,,,,,,,,,,,,,,,,,,,,,,,,,,,,,,,,,,,,,,,,,,,,,,,,,,,,,,,,,,,,,,,,,,,,,,,,,,,,,,,,,,,,,,,,,,,,
,,6164692cd6ee66754bcbdbd0,2024-02-22_05h21.06.339,kallum_motion_pilot,2023.2.2,Win32,59.17159763,6164692cd6ee66754bcbdbd0,65d6bb0e977760de756971f7,65d6bd86cb0a17198e65b8d0,0.2018,0.202,0,149,149,58,1,twoone,,,,,,,,,,,,,,,,,,,,,,,,,,,,,,,,,,,,,,,,,,,,,,,,,,,,,,,,,,,,,,,,,,,,,,,,,,,,,,,,,,,,,,,,,,,,,,,,,,,,,,,,,,,,,,,,,,,,,,,,,,,,,,,,,,,,,,,,,
,,6164692cd6ee66754bcbdbd0,2024-02-22_05h21.06.339,kallum_motion_pilot,2023.2.2,Win32,59.17159763,6164692cd6ee66754bcbdbd0,65d6bb0e977760de756971f7,65d6bd86cb0a17198e65b8d0,0.2024,0.2026,0,150,150,147,1,sixeight,,,,,,,,,,,,,,,,,,,,,,,,,,,,,,,,,,,,,,,,,,,,,,,,,,,,,,,,,,,,,,,,,,,,,,,,,,,,,,,,,,,,,,,,,,,,,,,,,,,,,,,,,,,,,,,,,,,,,,,,,,,,,,,,,,,,,,,,,
,,6164692cd6ee66754bcbdbd0,2024-02-22_05h21.06.339,kallum_motion_pilot,2023.2.2,Win32,59.17159763,6164692cd6ee66754bcbdbd0,65d6bb0e977760de756971f7,65d6bd86cb0a17198e65b8d0,0.2028,0.2031,0,151,151,69,1,threefour,,,,,,,,,,,,,,,,,,,,,,,,,,,,,,,,,,,,,,,,,,,,,,,,,,,,,,,,,,,,,,,,,,,,,,,,,,,,,,,,,,,,,,,,,,,,,,,,,,,,,,,,,,,,,,,,,,,,,,,,,,,,,,,,,,,,,,,,,
,,6164692cd6ee66754bcbdbd0,2024-02-22_05h21.06.339,kallum_motion_pilot,2023.2.2,Win32,59.17159763,6164692cd6ee66754bcbdbd0,65d6bb0e977760de756971f7,65d6bd86cb0a17198e65b8d0,0.2033,0.2034,0,152,152,65,1,onethree,,,,,,,,,,,,,,,,,,,,,,,,,,,,,,,,,,,,,,,,,,,,,,,,,,,,,,,,,,,,,,,,,,,,,,,,,,,,,,,,,,,,,,,,,,,,,,,,,,,,,,,,,,,,,,,,,,,,,,,,,,,,,,,,,,,,,,,,,
,,6164692cd6ee66754bcbdbd0,2024-02-22_05h21.06.339,kallum_motion_pilot,2023.2.2,Win32,59.17159763,6164692cd6ee66754bcbdbd0,65d6bb0e977760de756971f7,65d6bd86cb0a17198e65b8d0,0.2035,0.2037,0,153,153,28,1,threeone,,,,,,,,,,,,,,,,,,,,,,,,,,,,,,,,,,,,,,,,,,,,,,,,,,,,,,,,,,,,,,,,,,,,,,,,,,,,,,,,,,,,,,,,,,,,,,,,,,,,,,,,,,,,,,,,,,,,,,,,,,,,,,,,,,,,,,,,,
,,6164692cd6ee66754bcbdbd0,2024-02-22_05h21.06.339,kallum_motion_pilot,2023.2.2,Win32,59.17159763,6164692cd6ee66754bcbdbd0,65d6bb0e977760de756971f7,65d6bd86cb0a17198e65b8d0,0.2039,0.204,0,154,154,83,1,sixeight,,,,,,,,,,,,,,,,,,,,,,,,,,,,,,,,,,,,,,,,,,,,,,,,,,,,,,,,,,,,,,,,,,,,,,,,,,,,,,,,,,,,,,,,,,,,,,,,,,,,,,,,,,,,,,,,,,,,,,,,,,,,,,,,,,,,,,,,,
,,6164692cd6ee66754bcbdbd0,2024-02-22_05h21.06.339,kallum_motion_pilot,2023.2.2,Win32,59.17159763,6164692cd6ee66754bcbdbd0,65d6bb0e977760de756971f7,65d6bd86cb0a17198e65b8d0,0.2041,0.2044,0,155,155,110,1,eightsix,,,,,,,,,,,,,,,,,,,,,,,,,,,,,,,,,,,,,,,,,,,,,,,,,,,,,,,,,,,,,,,,,,,,,,,,,,,,,,,,,,,,,,,,,,,,,,,,,,,,,,,,,,,,,,,,,,,,,,,,,,,,,,,,,,,,,,,,,
,,6164692cd6ee66754bcbdbd0,2024-02-22_05h21.06.339,kallum_motion_pilot,2023.2.2,Win32,59.17159763,6164692cd6ee66754bcbdbd0,65d6bb0e977760de756971f7,65d6bd86cb0a17198e65b8d0,0.2045,0.2047,0,156,156,54,1,fourtwo,,,,,,,,,,,,,,,,,,,,,,,,,,,,,,,,,,,,,,,,,,,,,,,,,,,,,,,,,,,,,,,,,,,,,,,,,,,,,,,,,,,,,,,,,,,,,,,,,,,,,,,,,,,,,,,,,,,,,,,,,,,,,,,,,,,,,,,,,
,,6164692cd6ee66754bcbdbd0,2024-02-22_05h21.06.339,kallum_motion_pilot,2023.2.2,Win32,59.17159763,6164692cd6ee66754bcbdbd0,65d6bb0e977760de756971f7,65d6bd86cb0a17198e65b8d0,0.2048,0.2049,0,157,157,158,1,eightsix,,,,,,,,,,,,,,,,,,,,,,,,,,,,,,,,,,,,,,,,,,,,,,,,,,,,,,,,,,,,,,,,,,,,,,,,,,,,,,,,,,,,,,,,,,,,,,,,,,,,,,,,,,,,,,,,,,,,,,,,,,,,,,,,,,,,,,,,,
,,6164692cd6ee66754bcbdbd0,2024-02-22_05h21.06.339,kallum_motion_pilot,2023.2.2,Win32,59.17159763,6164692cd6ee66754bcbdbd0,65d6bb0e977760de756971f7,65d6bd86cb0a17198e65b8d0,0.2051,0.2053,0,158,158,118,1,eightsix,,,,,,,,,,,,,,,,,,,,,,,,,,,,,,,,,,,,,,,,,,,,,,,,,,,,,,,,,,,,,,,,,,,,,,,,,,,,,,,,,,,,,,,,,,,,,,,,,,,,,,,,,,,,,,,,,,,,,,,,,,,,,,,,,,,,,,,,,
,,6164692cd6ee66754bcbdbd0,2024-02-22_05h21.06.339,kallum_motion_pilot,2023.2.2,Win32,59.17159763,6164692cd6ee66754bcbdbd0,65d6bb0e977760de756971f7,65d6bd86cb0a17198e65b8d0,0.2057,0.206,0,159,159,40,1,onetwo,,,,,,,,,,,,,,,,,,,,,,,,,,,,,,,,,,,,,,,,,,,,,,,,,,,,,,,,,,,,,,,,,,,,,,,,,,,,,,,,,,,,,,,,,,,,,,,,,,,,,,,,,,,,,,,,,,,,,,,,,,,,,,,,,,,,,,,,,
,,6164692cd6ee66754bcbdbd0,2024-02-22_05h21.06.339,kallum_motion_pilot,2023.2.2,Win32,59.17159763,6164692cd6ee66754bcbdbd0,65d6bb0e977760de756971f7,65d6bd86cb0a17198e65b8d0,0.206,0.2062,0,160,160,9,1,onethree,,,,,,,,,,,,,,,,,,,,,,,,,,,,,,,,,,,,,,,,,,,,,,,,,,,,,,,,,,,,,,,,,,,,,,,,,,,,,,,,,,,,,,,,,,,,,,,,,,,,,,,,,,,,,,,,,,,,,,,,,,,,,,,,,,,,,,,,,
,,6164692cd6ee66754bcbdbd0,2024-02-22_05h21.06.339,kallum_motion_pilot,2023.2.2,Win32,59.17159763,6164692cd6ee66754bcbdbd0,65d6bb0e977760de756971f7,65d6bd86cb0a17198e65b8d0,0.2064,0.2065,0,161,161,37,1,threefour,,,,,,,,,,,,,,,,,,,,,,,,,,,,,,,,,,,,,,,,,,,,,,,,,,,,,,,,,,,,,,,,,,,,,,,,,,,,,,,,,,,,,,,,,,,,,,,,,,,,,,,,,,,,,,,,,,,,,,,,,,,,,,,,,,,,,,,,,
,,6164692cd6ee66754bcbdbd0,2024-02-22_05h21.06.339,kallum_motion_pilot,2023.2.2,Win32,59.17159763,6164692cd6ee66754bcbdbd0,65d6bb0e977760de756971f7,65d6bd86cb0a17198e65b8d0,0.2068,0.2069,1,0,162,135,1,eightseven,,,,,,,,,,,,,,,,,,,,,,,,,,,,,,,,,,,,,,,,,,,,,,,,,,,,,,,,,,,,,,,,,,,,,,,,,,,,,,,,,,,,,,,,,,,,,,,,,,,,,,,,,,,,,,,,,,,,,,,,,,,,,,,,,,,,,,,,,
,,6164692cd6ee66754bcbdbd0,2024-02-22_05h21.06.339,kallum_motion_pilot,2023.2.2,Win32,59.17159763,6164692cd6ee66754bcbdbd0,65d6bb0e977760de756971f7,65d6bd86cb0a17198e65b8d0,0.2091,0.2124,1,1,163,147,1,sixeight,,,,,,,,,,,,,,,,,,,,,,,,,,,,,,,,,,,,,,,,,,,,,,,,,,,,,,,,,,,,,,,,,,,,,,,,,,,,,,,,,,,,,,,,,,,,,,,,,,,,,,,,,,,,,,,,,,,,,,,,,,,,,,,,,,,,,,,,,
,,6164692cd6ee66754bcbdbd0,2024-02-22_05h21.06.339,kallum_motion_pilot,2023.2.2,Win32,59.17159763,6164692cd6ee66754bcbdbd0,65d6bb0e977760de756971f7,65d6bd86cb0a17198e65b8d0,0.213,0.2134,1,2,164,47,1,fourthree,,,,,,,,,,,,,,,,,,,,,,,,,,,,,,,,,,,,,,,,,,,,,,,,,,,,,,,,,,,,,,,,,,,,,,,,,,,,,,,,,,,,,,,,,,,,,,,,,,,,,,,,,,,,,,,,,,,,,,,,,,,,,,,,,,,,,,,,,
,,6164692cd6ee66754bcbdbd0,2024-02-22_05h21.06.339,kallum_motion_pilot,2023.2.2,Win32,59.17159763,6164692cd6ee66754bcbdbd0,65d6bb0e977760de756971f7,65d6bd86cb0a17198e65b8d0,0.2136,0.2136,1,3,165,131,1,sixeight,,,,,,,,,,,,,,,,,,,,,,,,,,,,,,,,,,,,,,,,,,,,,,,,,,,,,,,,,,,,,,,,,,,,,,,,,,,,,,,,,,,,,,,,,,,,,,,,,,,,,,,,,,,,,,,,,,,,,,,,,,,,,,,,,,,,,,,,,
,,6164692cd6ee66754bcbdbd0,2024-02-22_05h21.06.339,kallum_motion_pilot,2023.2.2,Win32,59.17159763,6164692cd6ee66754bcbdbd0,65d6bb0e977760de756971f7,65d6bd86cb0a17198e65b8d0,0.214,0.2142,1,4,166,119,1,eightseven,,,,,,,,,,,,,,,,,,,,,,,,,,,,,,,,,,,,,,,,,,,,,,,,,,,,,,,,,,,,,,,,,,,,,,,,,,,,,,,,,,,,,,,,,,,,,,,,,,,,,,,,,,,,,,,,,,,,,,,,,,,,,,,,,,,,,,,,,
,,6164692cd6ee66754bcbdbd0,2024-02-22_05h21.06.339,kallum_motion_pilot,2023.2.2,Win32,59.17159763,6164692cd6ee66754bcbdbd0,65d6bb0e977760de756971f7,65d6bd86cb0a17198e65b8d0,0.2143,0.2145,1,5,167,78,1,fourtwo,,,,,,,,,,,,,,,,,,,,,,,,,,,,,,,,,,,,,,,,,,,,,,,,,,,,,,,,,,,,,,,,,,,,,,,,,,,,,,,,,,,,,,,,,,,,,,,,,,,,,,,,,,,,,,,,,,,,,,,,,,,,,,,,,,,,,,,,,
,,6164692cd6ee66754bcbdbd0,2024-02-22_05h21.06.339,kallum_motion_pilot,2023.2.2,Win32,59.17159763,6164692cd6ee66754bcbdbd0,65d6bb0e977760de756971f7,65d6bd86cb0a17198e65b8d0,0.2147,0.2148,1,6,168,100,1,sevenfive,,,,,,,,,,,,,,,,,,,,,,,,,,,,,,,,,,,,,,,,,,,,,,,,,,,,,,,,,,,,,,,,,,,,,,,,,,,,,,,,,,,,,,,,,,,,,,,,,,,,,,,,,,,,,,,,,,,,,,,,,,,,,,,,,,,,,,,,,
,,6164692cd6ee66754bcbdbd0,2024-02-22_05h21.06.339,kallum_motion_pilot,2023.2.2,Win32,59.17159763,6164692cd6ee66754bcbdbd0,65d6bb0e977760de756971f7,65d6bd86cb0a17198e65b8d0,0.215,0.2151,1,7,169,33,1,onethree,,,,,,,,,,,,,,,,,,,,,,,,,,,,,,,,,,,,,,,,,,,,,,,,,,,,,,,,,,,,,,,,,,,,,,,,,,,,,,,,,,,,,,,,,,,,,,,,,,,,,,,,,,,,,,,,,,,,,,,,,,,,,,,,,,,,,,,,,
,,6164692cd6ee66754bcbdbd0,2024-02-22_05h21.06.339,kallum_motion_pilot,2023.2.2,Win32,59.17159763,6164692cd6ee66754bcbdbd0,65d6bb0e977760de756971f7,65d6bd86cb0a17198e65b8d0,0.2153,0.2154,1,8,170,36,1,threeone,,,,,,,,,,,,,,,,,,,,,,,,,,,,,,,,,,,,,,,,,,,,,,,,,,,,,,,,,,,,,,,,,,,,,,,,,,,,,,,,,,,,,,,,,,,,,,,,,,,,,,,,,,,,,,,,,,,,,,,,,,,,,,,,,,,,,,,,,
,,6164692cd6ee66754bcbdbd0,2024-02-22_05h21.06.339,kallum_motion_pilot,2023.2.2,Win32,59.17159763,6164692cd6ee66754bcbdbd0,65d6bb0e977760de756971f7,65d6bd86cb0a17198e65b8d0,0.2156,0.2158,1,9,171,126,1,eightsix,,,,,,,,,,,,,,,,,,,,,,,,,,,,,,,,,,,,,,,,,,,,,,,,,,,,,,,,,,,,,,,,,,,,,,,,,,,,,,,,,,,,,,,,,,,,,,,,,,,,,,,,,,,,,,,,,,,,,,,,,,,,,,,,,,,,,,,,,
,,6164692cd6ee66754bcbdbd0,2024-02-22_05h21.06.339,kallum_motion_pilot,2023.2.2,Win32,59.17159763,6164692cd6ee66754bcbdbd0,65d6bb0e977760de756971f7,65d6bd86cb0a17198e65b8d0,0.216,0.2163,1,10,172,113,1,fiveseven,,,,,,,,,,,,,,,,,,,,,,,,,,,,,,,,,,,,,,,,,,,,,,,,,,,,,,,,,,,,,,,,,,,,,,,,,,,,,,,,,,,,,,,,,,,,,,,,,,,,,,,,,,,,,,,,,,,,,,,,,,,,,,,,,,,,,,,,,
,,6164692cd6ee66754bcbdbd0,2024-02-22_05h21.06.339,kallum_motion_pilot,2023.2.2,Win32,59.17159763,6164692cd6ee66754bcbdbd0,65d6bb0e977760de756971f7,65d6bd86cb0a17198e65b8d0,0.2165,0.2166,1,11,173,101,1,seveneight,,,,,,,,,,,,,,,,,,,,,,,,,,,,,,,,,,,,,,,,,,,,,,,,,,,,,,,,,,,,,,,,,,,,,,,,,,,,,,,,,,,,,,,,,,,,,,,,,,,,,,,,,,,,,,,,,,,,,,,,,,,,,,,,,,,,,,,,,
,,6164692cd6ee66754bcbdbd0,2024-02-22_05h21.06.339,kallum_motion_pilot,2023.2.2,Win32,59.17159763,6164692cd6ee66754bcbdbd0,65d6bb0e977760de756971f7,65d6bd86cb0a17198e65b8d0,0.2168,0.217,1,12,174,110,1,eightsix,,,,,,,,,,,,,,,,,,,,,,,,,,,,,,,,,,,,,,,,,,,,,,,,,,,,,,,,,,,,,,,,,,,,,,,,,,,,,,,,,,,,,,,,,,,,,,,,,,,,,,,,,,,,,,,,,,,,,,,,,,,,,,,,,,,,,,,,,
,,6164692cd6ee66754bcbdbd0,2024-02-22_05h21.06.339,kallum_motion_pilot,2023.2.2,Win32,59.17159763,6164692cd6ee66754bcbdbd0,65d6bb0e977760de756971f7,65d6bd86cb0a17198e65b8d0,0.2171,0.2173,1,13,175,17,1,onethree,,,,,,,,,,,,,,,,,,,,,,,,,,,,,,,,,,,,,,,,,,,,,,,,,,,,,,,,,,,,,,,,,,,,,,,,,,,,,,,,,,,,,,,,,,,,,,,,,,,,,,,,,,,,,,,,,,,,,,,,,,,,,,,,,,,,,,,,,
,,6164692cd6ee66754bcbdbd0,2024-02-22_05h21.06.339,kallum_motion_pilot,2023.2.2,Win32,59.17159763,6164692cd6ee66754bcbdbd0,65d6bb0e977760de756971f7,65d6bd86cb0a17198e65b8d0,0.2175,0.2176,1,14,176,108,1,sevenfive,,,,,,,,,,,,,,,,,,,,,,,,,,,,,,,,,,,,,,,,,,,,,,,,,,,,,,,,,,,,,,,,,,,,,,,,,,,,,,,,,,,,,,,,,,,,,,,,,,,,,,,,,,,,,,,,,,,,,,,,,,,,,,,,,,,,,,,,,
,,6164692cd6ee66754bcbdbd0,2024-02-22_05h21.06.339,kallum_motion_pilot,2023.2.2,Win32,59.17159763,6164692cd6ee66754bcbdbd0,65d6bb0e977760de756971f7,65d6bd86cb0a17198e65b8d0,0.2179,0.2179,1,15,177,143,1,eightseven,,,,,,,,,,,,,,,,,,,,,,,,,,,,,,,,,,,,,,,,,,,,,,,,,,,,,,,,,,,,,,,,,,,,,,,,,,,,,,,,,,,,,,,,,,,,,,,,,,,,,,,,,,,,,,,,,,,,,,,,,,,,,,,,,,,,,,,,,
,,6164692cd6ee66754bcbdbd0,2024-02-22_05h21.06.339,kallum_motion_pilot,2023.2.2,Win32,59.17159763,6164692cd6ee66754bcbdbd0,65d6bb0e977760de756971f7,65d6bd86cb0a17198e65b8d0,0.2182,0.2183,1,16,178,144,1,fivesix,,,,,,,,,,,,,,,,,,,,,,,,,,,,,,,,,,,,,,,,,,,,,,,,,,,,,,,,,,,,,,,,,,,,,,,,,,,,,,,,,,,,,,,,,,,,,,,,,,,,,,,,,,,,,,,,,,,,,,,,,,,,,,,,,,,,,,,,,
,,6164692cd6ee66754bcbdbd0,2024-02-22_05h21.06.339,kallum_motion_pilot,2023.2.2,Win32,59.17159763,6164692cd6ee66754bcbdbd0,65d6bb0e977760de756971f7,65d6bd86cb0a17198e65b8d0,0.2185,0.2186,1,17,179,39,1,fourthree,,,,,,,,,,,,,,,,,,,,,,,,,,,,,,,,,,,,,,,,,,,,,,,,,,,,,,,,,,,,,,,,,,,,,,,,,,,,,,,,,,,,,,,,,,,,,,,,,,,,,,,,,,,,,,,,,,,,,,,,,,,,,,,,,,,,,,,,,
,,6164692cd6ee66754bcbdbd0,2024-02-22_05h21.06.339,kallum_motion_pilot,2023.2.2,Win32,59.17159763,6164692cd6ee66754bcbdbd0,65d6bb0e977760de756971f7,65d6bd86cb0a17198e65b8d0,0.2188,0.2189,1,18,180,15,1,fourthree,,,,,,,,,,,,,,,,,,,,,,,,,,,,,,,,,,,,,,,,,,,,,,,,,,,,,,,,,,,,,,,,,,,,,,,,,,,,,,,,,,,,,,,,,,,,,,,,,,,,,,,,,,,,,,,,,,,,,,,,,,,,,,,,,,,,,,,,,
,,6164692cd6ee66754bcbdbd0,2024-02-22_05h21.06.339,kallum_motion_pilot,2023.2.2,Win32,59.17159763,6164692cd6ee66754bcbdbd0,65d6bb0e977760de756971f7,65d6bd86cb0a17198e65b8d0,0.2191,0.2193,1,19,181,23,1,fourthree,,,,,,,,,,,,,,,,,,,,,,,,,,,,,,,,,,,,,,,,,,,,,,,,,,,,,,,,,,,,,,,,,,,,,,,,,,,,,,,,,,,,,,,,,,,,,,,,,,,,,,,,,,,,,,,,,,,,,,,,,,,,,,,,,,,,,,,,,
,,6164692cd6ee66754bcbdbd0,2024-02-22_05h21.06.339,kallum_motion_pilot,2023.2.2,Win32,59.17159763,6164692cd6ee66754bcbdbd0,65d6bb0e977760de756971f7,65d6bd86cb0a17198e65b8d0,0.2194,0.2196,1,20,182,28,1,threeone,,,,,,,,,,,,,,,,,,,,,,,,,,,,,,,,,,,,,,,,,,,,,,,,,,,,,,,,,,,,,,,,,,,,,,,,,,,,,,,,,,,,,,,,,,,,,,,,,,,,,,,,,,,,,,,,,,,,,,,,,,,,,,,,,,,,,,,,,
,,6164692cd6ee66754bcbdbd0,2024-02-22_05h21.06.339,kallum_motion_pilot,2023.2.2,Win32,59.17159763,6164692cd6ee66754bcbdbd0,65d6bb0e977760de756971f7,65d6bd86cb0a17198e65b8d0,0.2198,0.2199,1,21,183,158,1,eightsix,,,,,,,,,,,,,,,,,,,,,,,,,,,,,,,,,,,,,,,,,,,,,,,,,,,,,,,,,,,,,,,,,,,,,,,,,,,,,,,,,,,,,,,,,,,,,,,,,,,,,,,,,,,,,,,,,,,,,,,,,,,,,,,,,,,,,,,,,
,,6164692cd6ee66754bcbdbd0,2024-02-22_05h21.06.339,kallum_motion_pilot,2023.2.2,Win32,59.17159763,6164692cd6ee66754bcbdbd0,65d6bb0e977760de756971f7,65d6bd86cb0a17198e65b8d0,0.2201,0.2202,1,22,184,161,1,fiveseven,,,,,,,,,,,,,,,,,,,,,,,,,,,,,,,,,,,,,,,,,,,,,,,,,,,,,,,,,,,,,,,,,,,,,,,,,,,,,,,,,,,,,,,,,,,,,,,,,,,,,,,,,,,,,,,,,,,,,,,,,,,,,,,,,,,,,,,,,
,,6164692cd6ee66754bcbdbd0,2024-02-22_05h21.06.339,kallum_motion_pilot,2023.2.2,Win32,59.17159763,6164692cd6ee66754bcbdbd0,65d6bb0e977760de756971f7,65d6bd86cb0a17198e65b8d0,0.2204,0.2206,1,23,185,93,1,seveneight,,,,,,,,,,,,,,,,,,,,,,,,,,,,,,,,,,,,,,,,,,,,,,,,,,,,,,,,,,,,,,,,,,,,,,,,,,,,,,,,,,,,,,,,,,,,,,,,,,,,,,,,,,,,,,,,,,,,,,,,,,,,,,,,,,,,,,,,,
,,6164692cd6ee66754bcbdbd0,2024-02-22_05h21.06.339,kallum_motion_pilot,2023.2.2,Win32,59.17159763,6164692cd6ee66754bcbdbd0,65d6bb0e977760de756971f7,65d6bd86cb0a17198e65b8d0,0.2207,0.2209,1,24,186,125,1,seveneight,,,,,,,,,,,,,,,,,,,,,,,,,,,,,,,,,,,,,,,,,,,,,,,,,,,,,,,,,,,,,,,,,,,,,,,,,,,,,,,,,,,,,,,,,,,,,,,,,,,,,,,,,,,,,,,,,,,,,,,,,,,,,,,,,,,,,,,,,
,,6164692cd6ee66754bcbdbd0,2024-02-22_05h21.06.339,kallum_motion_pilot,2023.2.2,Win32,59.17159763,6164692cd6ee66754bcbdbd0,65d6bb0e977760de756971f7,65d6bd86cb0a17198e65b8d0,0.2211,0.2212,1,25,187,121,1,fiveseven,,,,,,,,,,,,,,,,,,,,,,,,,,,,,,,,,,,,,,,,,,,,,,,,,,,,,,,,,,,,,,,,,,,,,,,,,,,,,,,,,,,,,,,,,,,,,,,,,,,,,,,,,,,,,,,,,,,,,,,,,,,,,,,,,,,,,,,,,
,,6164692cd6ee66754bcbdbd0,2024-02-22_05h21.06.339,kallum_motion_pilot,2023.2.2,Win32,59.17159763,6164692cd6ee66754bcbdbd0,65d6bb0e977760de756971f7,65d6bd86cb0a17198e65b8d0,0.2213,0.2215,1,26,188,134,1,eightsix,,,,,,,,,,,,,,,,,,,,,,,,,,,,,,,,,,,,,,,,,,,,,,,,,,,,,,,,,,,,,,,,,,,,,,,,,,,,,,,,,,,,,,,,,,,,,,,,,,,,,,,,,,,,,,,,,,,,,,,,,,,,,,,,,,,,,,,,,
,,6164692cd6ee66754bcbdbd0,2024-02-22_05h21.06.339,kallum_motion_pilot,2023.2.2,Win32,59.17159763,6164692cd6ee66754bcbdbd0,65d6bb0e977760de756971f7,65d6bd86cb0a17198e65b8d0,0.2217,0.2218,1,27,189,8,1,onetwo,,,,,,,,,,,,,,,,,,,,,,,,,,,,,,,,,,,,,,,,,,,,,,,,,,,,,,,,,,,,,,,,,,,,,,,,,,,,,,,,,,,,,,,,,,,,,,,,,,,,,,,,,,,,,,,,,,,,,,,,,,,,,,,,,,,,,,,,,
,,6164692cd6ee66754bcbdbd0,2024-02-22_05h21.06.339,kallum_motion_pilot,2023.2.2,Win32,59.17159763,6164692cd6ee66754bcbdbd0,65d6bb0e977760de756971f7,65d6bd86cb0a17198e65b8d0,0.2219,0.2221,1,28,190,137,1,fiveseven,,,,,,,,,,,,,,,,,,,,,,,,,,,,,,,,,,,,,,,,,,,,,,,,,,,,,,,,,,,,,,,,,,,,,,,,,,,,,,,,,,,,,,,,,,,,,,,,,,,,,,,,,,,,,,,,,,,,,,,,,,,,,,,,,,,,,,,,,
,,6164692cd6ee66754bcbdbd0,2024-02-22_05h21.06.339,kallum_motion_pilot,2023.2.2,Win32,59.17159763,6164692cd6ee66754bcbdbd0,65d6bb0e977760de756971f7,65d6bd86cb0a17198e65b8d0,0.2223,0.2225,1,29,191,128,1,fivesix,,,,,,,,,,,,,,,,,,,,,,,,,,,,,,,,,,,,,,,,,,,,,,,,,,,,,,,,,,,,,,,,,,,,,,,,,,,,,,,,,,,,,,,,,,,,,,,,,,,,,,,,,,,,,,,,,,,,,,,,,,,,,,,,,,,,,,,,,
,,6164692cd6ee66754bcbdbd0,2024-02-22_05h21.06.339,kallum_motion_pilot,2023.2.2,Win32,59.17159763,6164692cd6ee66754bcbdbd0,65d6bb0e977760de756971f7,65d6bd86cb0a17198e65b8d0,0.2226,0.2228,1,30,192,37,1,threefour,,,,,,,,,,,,,,,,,,,,,,,,,,,,,,,,,,,,,,,,,,,,,,,,,,,,,,,,,,,,,,,,,,,,,,,,,,,,,,,,,,,,,,,,,,,,,,,,,,,,,,,,,,,,,,,,,,,,,,,,,,,,,,,,,,,,,,,,,
,,6164692cd6ee66754bcbdbd0,2024-02-22_05h21.06.339,kallum_motion_pilot,2023.2.2,Win32,59.17159763,6164692cd6ee66754bcbdbd0,65d6bb0e977760de756971f7,65d6bd86cb0a17198e65b8d0,0.2229,0.2231,1,31,193,52,1,threeone,,,,,,,,,,,,,,,,,,,,,,,,,,,,,,,,,,,,,,,,,,,,,,,,,,,,,,,,,,,,,,,,,,,,,,,,,,,,,,,,,,,,,,,,,,,,,,,,,,,,,,,,,,,,,,,,,,,,,,,,,,,,,,,,,,,,,,,,,
,,6164692cd6ee66754bcbdbd0,2024-02-22_05h21.06.339,kallum_motion_pilot,2023.2.2,Win32,59.17159763,6164692cd6ee66754bcbdbd0,65d6bb0e977760de756971f7,65d6bd86cb0a17198e65b8d0,0.2233,0.2235,1,32,194,9,1,onethree,,,,,,,,,,,,,,,,,,,,,,,,,,,,,,,,,,,,,,,,,,,,,,,,,,,,,,,,,,,,,,,,,,,,,,,,,,,,,,,,,,,,,,,,,,,,,,,,,,,,,,,,,,,,,,,,,,,,,,,,,,,,,,,,,,,,,,,,,
,,6164692cd6ee66754bcbdbd0,2024-02-22_05h21.06.339,kallum_motion_pilot,2023.2.2,Win32,59.17159763,6164692cd6ee66754bcbdbd0,65d6bb0e977760de756971f7,65d6bd86cb0a17198e65b8d0,0.2236,0.2237,1,33,195,68,1,threeone,,,,,,,,,,,,,,,,,,,,,,,,,,,,,,,,,,,,,,,,,,,,,,,,,,,,,,,,,,,,,,,,,,,,,,,,,,,,,,,,,,,,,,,,,,,,,,,,,,,,,,,,,,,,,,,,,,,,,,,,,,,,,,,,,,,,,,,,,
,,6164692cd6ee66754bcbdbd0,2024-02-22_05h21.06.339,kallum_motion_pilot,2023.2.2,Win32,59.17159763,6164692cd6ee66754bcbdbd0,65d6bb0e977760de756971f7,65d6bd86cb0a17198e65b8d0,0.224,0.2241,1,34,196,154,1,sixfive,,,,,,,,,,,,,,,,,,,,,,,,,,,,,,,,,,,,,,,,,,,,,,,,,,,,,,,,,,,,,,,,,,,,,,,,,,,,,,,,,,,,,,,,,,,,,,,,,,,,,,,,,,,,,,,,,,,,,,,,,,,,,,,,,,,,,,,,,
,,6164692cd6ee66754bcbdbd0,2024-02-22_05h21.06.339,kallum_motion_pilot,2023.2.2,Win32,59.17159763,6164692cd6ee66754bcbdbd0,65d6bb0e977760de756971f7,65d6bd86cb0a17198e65b8d0,0.2243,0.2245,1,35,197,18,1,twoone,,,,,,,,,,,,,,,,,,,,,,,,,,,,,,,,,,,,,,,,,,,,,,,,,,,,,,,,,,,,,,,,,,,,,,,,,,,,,,,,,,,,,,,,,,,,,,,,,,,,,,,,,,,,,,,,,,,,,,,,,,,,,,,,,,,,,,,,,
,,6164692cd6ee66754bcbdbd0,2024-02-22_05h21.06.339,kallum_motion_pilot,2023.2.2,Win32,59.17159763,6164692cd6ee66754bcbdbd0,65d6bb0e977760de756971f7,65d6bd86cb0a17198e65b8d0,0.2246,0.2248,1,36,198,1,1,onethree,,,,,,,,,,,,,,,,,,,,,,,,,,,,,,,,,,,,,,,,,,,,,,,,,,,,,,,,,,,,,,,,,,,,,,,,,,,,,,,,,,,,,,,,,,,,,,,,,,,,,,,,,,,,,,,,,,,,,,,,,,,,,,,,,,,,,,,,,
,,6164692cd6ee66754bcbdbd0,2024-02-22_05h21.06.339,kallum_motion_pilot,2023.2.2,Win32,59.17159763,6164692cd6ee66754bcbdbd0,65d6bb0e977760de756971f7,65d6bd86cb0a17198e65b8d0,0.225,0.2251,1,37,199,30,1,fourtwo,,,,,,,,,,,,,,,,,,,,,,,,,,,,,,,,,,,,,,,,,,,,,,,,,,,,,,,,,,,,,,,,,,,,,,,,,,,,,,,,,,,,,,,,,,,,,,,,,,,,,,,,,,,,,,,,,,,,,,,,,,,,,,,,,,,,,,,,,
,,6164692cd6ee66754bcbdbd0,2024-02-22_05h21.06.339,kallum_motion_pilot,2023.2.2,Win32,59.17159763,6164692cd6ee66754bcbdbd0,65d6bb0e977760de756971f7,65d6bd86cb0a17198e65b8d0,0.2253,0.2255,1,38,200,136,1,fivesix,,,,,,,,,,,,,,,,,,,,,,,,,,,,,,,,,,,,,,,,,,,,,,,,,,,,,,,,,,,,,,,,,,,,,,,,,,,,,,,,,,,,,,,,,,,,,,,,,,,,,,,,,,,,,,,,,,,,,,,,,,,,,,,,,,,,,,,,,
,,6164692cd6ee66754bcbdbd0,2024-02-22_05h21.06.339,kallum_motion_pilot,2023.2.2,Win32,59.17159763,6164692cd6ee66754bcbdbd0,65d6bb0e977760de756971f7,65d6bd86cb0a17198e65b8d0,0.2257,0.2289,1,39,201,83,1,sixeight,,,,,,,,,,,,,,,,,,,,,,,,,,,,,,,,,,,,,,,,,,,,,,,,,,,,,,,,,,,,,,,,,,,,,,,,,,,,,,,,,,,,,,,,,,,,,,,,,,,,,,,,,,,,,,,,,,,,,,,,,,,,,,,,,,,,,,,,,
,,6164692cd6ee66754bcbdbd0,2024-02-22_05h21.06.339,kallum_motion_pilot,2023.2.2,Win32,59.17159763,6164692cd6ee66754bcbdbd0,65d6bb0e977760de756971f7,65d6bd86cb0a17198e65b8d0,0.2294,0.2296,1,40,202,85,1,seveneight,,,,,,,,,,,,,,,,,,,,,,,,,,,,,,,,,,,,,,,,,,,,,,,,,,,,,,,,,,,,,,,,,,,,,,,,,,,,,,,,,,,,,,,,,,,,,,,,,,,,,,,,,,,,,,,,,,,,,,,,,,,,,,,,,,,,,,,,,
,,6164692cd6ee66754bcbdbd0,2024-02-22_05h21.06.339,kallum_motion_pilot,2023.2.2,Win32,59.17159763,6164692cd6ee66754bcbdbd0,65d6bb0e977760de756971f7,65d6bd86cb0a17198e65b8d0,0.2298,0.23,1,41,203,19,1,twofour,,,,,,,,,,,,,,,,,,,,,,,,,,,,,,,,,,,,,,,,,,,,,,,,,,,,,,,,,,,,,,,,,,,,,,,,,,,,,,,,,,,,,,,,,,,,,,,,,,,,,,,,,,,,,,,,,,,,,,,,,,,,,,,,,,,,,,,,,
,,6164692cd6ee66754bcbdbd0,2024-02-22_05h21.06.339,kallum_motion_pilot,2023.2.2,Win32,59.17159763,6164692cd6ee66754bcbdbd0,65d6bb0e977760de756971f7,65d6bd86cb0a17198e65b8d0,0.2301,0.2303,1,42,204,34,1,twoone,,,,,,,,,,,,,,,,,,,,,,,,,,,,,,,,,,,,,,,,,,,,,,,,,,,,,,,,,,,,,,,,,,,,,,,,,,,,,,,,,,,,,,,,,,,,,,,,,,,,,,,,,,,,,,,,,,,,,,,,,,,,,,,,,,,,,,,,,
,,6164692cd6ee66754bcbdbd0,2024-02-22_05h21.06.339,kallum_motion_pilot,2023.2.2,Win32,59.17159763,6164692cd6ee66754bcbdbd0,65d6bb0e977760de756971f7,65d6bd86cb0a17198e65b8d0,0.2304,0.2307,1,43,205,107,1,sixeight,,,,,,,,,,,,,,,,,,,,,,,,,,,,,,,,,,,,,,,,,,,,,,,,,,,,,,,,,,,,,,,,,,,,,,,,,,,,,,,,,,,,,,,,,,,,,,,,,,,,,,,,,,,,,,,,,,,,,,,,,,,,,,,,,,,,,,,,,
,,6164692cd6ee66754bcbdbd0,2024-02-22_05h21.06.339,kallum_motion_pilot,2023.2.2,Win32,59.17159763,6164692cd6ee66754bcbdbd0,65d6bb0e977760de756971f7,65d6bd86cb0a17198e65b8d0,0.2307,0.231,1,44,206,67,1,twofour,,,,,,,,,,,,,,,,,,,,,,,,,,,,,,,,,,,,,,,,,,,,,,,,,,,,,,,,,,,,,,,,,,,,,,,,,,,,,,,,,,,,,,,,,,,,,,,,,,,,,,,,,,,,,,,,,,,,,,,,,,,,,,,,,,,,,,,,,
,,6164692cd6ee66754bcbdbd0,2024-02-22_05h21.06.339,kallum_motion_pilot,2023.2.2,Win32,59.17159763,6164692cd6ee66754bcbdbd0,65d6bb0e977760de756971f7,65d6bd86cb0a17198e65b8d0,0.2311,0.2313,1,45,207,112,1,fivesix,,,,,,,,,,,,,,,,,,,,,,,,,,,,,,,,,,,,,,,,,,,,,,,,,,,,,,,,,,,,,,,,,,,,,,,,,,,,,,,,,,,,,,,,,,,,,,,,,,,,,,,,,,,,,,,,,,,,,,,,,,,,,,,,,,,,,,,,,
,,6164692cd6ee66754bcbdbd0,2024-02-22_05h21.06.339,kallum_motion_pilot,2023.2.2,Win32,59.17159763,6164692cd6ee66754bcbdbd0,65d6bb0e977760de756971f7,65d6bd86cb0a17198e65b8d0,0.2314,0.2316,1,46,208,35,1,twofour,,,,,,,,,,,,,,,,,,,,,,,,,,,,,,,,,,,,,,,,,,,,,,,,,,,,,,,,,,,,,,,,,,,,,,,,,,,,,,,,,,,,,,,,,,,,,,,,,,,,,,,,,,,,,,,,,,,,,,,,,,,,,,,,,,,,,,,,,
,,6164692cd6ee66754bcbdbd0,2024-02-22_05h21.06.339,kallum_motion_pilot,2023.2.2,Win32,59.17159763,6164692cd6ee66754bcbdbd0,65d6bb0e977760de756971f7,65d6bd86cb0a17198e65b8d0,0.2317,0.2319,1,47,209,63,1,fourthree,,,,,,,,,,,,,,,,,,,,,,,,,,,,,,,,,,,,,,,,,,,,,,,,,,,,,,,,,,,,,,,,,,,,,,,,,,,,,,,,,,,,,,,,,,,,,,,,,,,,,,,,,,,,,,,,,,,,,,,,,,,,,,,,,,,,,,,,,
,,6164692cd6ee66754bcbdbd0,2024-02-22_05h21.06.339,kallum_motion_pilot,2023.2.2,Win32,59.17159763,6164692cd6ee66754bcbdbd0,65d6bb0e977760de756971f7,65d6bd86cb0a17198e65b8d0,0.2321,0.2323,1,48,210,0,1,onetwo,,,,,,,,,,,,,,,,,,,,,,,,,,,,,,,,,,,,,,,,,,,,,,,,,,,,,,,,,,,,,,,,,,,,,,,,,,,,,,,,,,,,,,,,,,,,,,,,,,,,,,,,,,,,,,,,,,,,,,,,,,,,,,,,,,,,,,,,,
,,6164692cd6ee66754bcbdbd0,2024-02-22_05h21.06.339,kallum_motion_pilot,2023.2.2,Win32,59.17159763,6164692cd6ee66754bcbdbd0,65d6bb0e977760de756971f7,65d6bd86cb0a17198e65b8d0,0.2324,0.2325,1,49,211,140,1,sevenfive,,,,,,,,,,,,,,,,,,,,,,,,,,,,,,,,,,,,,,,,,,,,,,,,,,,,,,,,,,,,,,,,,,,,,,,,,,,,,,,,,,,,,,,,,,,,,,,,,,,,,,,,,,,,,,,,,,,,,,,,,,,,,,,,,,,,,,,,,
,,6164692cd6ee66754bcbdbd0,2024-02-22_05h21.06.339,kallum_motion_pilot,2023.2.2,Win32,59.17159763,6164692cd6ee66754bcbdbd0,65d6bb0e977760de756971f7,65d6bd86cb0a17198e65b8d0,0.2327,0.233,1,50,212,38,1,fourtwo,,,,,,,,,,,,,,,,,,,,,,,,,,,,,,,,,,,,,,,,,,,,,,,,,,,,,,,,,,,,,,,,,,,,,,,,,,,,,,,,,,,,,,,,,,,,,,,,,,,,,,,,,,,,,,,,,,,,,,,,,,,,,,,,,,,,,,,,,
,,6164692cd6ee66754bcbdbd0,2024-02-22_05h21.06.339,kallum_motion_pilot,2023.2.2,Win32,59.17159763,6164692cd6ee66754bcbdbd0,65d6bb0e977760de756971f7,65d6bd86cb0a17198e65b8d0,0.2331,0.2333,1,51,213,156,1,sevenfive,,,,,,,,,,,,,,,,,,,,,,,,,,,,,,,,,,,,,,,,,,,,,,,,,,,,,,,,,,,,,,,,,,,,,,,,,,,,,,,,,,,,,,,,,,,,,,,,,,,,,,,,,,,,,,,,,,,,,,,,,,,,,,,,,,,,,,,,,
,,6164692cd6ee66754bcbdbd0,2024-02-22_05h21.06.339,kallum_motion_pilot,2023.2.2,Win32,59.17159763,6164692cd6ee66754bcbdbd0,65d6bb0e977760de756971f7,65d6bd86cb0a17198e65b8d0,0.2336,0.2337,1,52,214,62,1,fourtwo,,,,,,,,,,,,,,,,,,,,,,,,,,,,,,,,,,,,,,,,,,,,,,,,,,,,,,,,,,,,,,,,,,,,,,,,,,,,,,,,,,,,,,,,,,,,,,,,,,,,,,,,,,,,,,,,,,,,,,,,,,,,,,,,,,,,,,,,,
,,6164692cd6ee66754bcbdbd0,2024-02-22_05h21.06.339,kallum_motion_pilot,2023.2.2,Win32,59.17159763,6164692cd6ee66754bcbdbd0,65d6bb0e977760de756971f7,65d6bd86cb0a17198e65b8d0,0.2339,0.2341,1,53,215,103,1,eightseven,,,,,,,,,,,,,,,,,,,,,,,,,,,,,,,,,,,,,,,,,,,,,,,,,,,,,,,,,,,,,,,,,,,,,,,,,,,,,,,,,,,,,,,,,,,,,,,,,,,,,,,,,,,,,,,,,,,,,,,,,,,,,,,,,,,,,,,,,
,,6164692cd6ee66754bcbdbd0,2024-02-22_05h21.06.339,kallum_motion_pilot,2023.2.2,Win32,59.17159763,6164692cd6ee66754bcbdbd0,65d6bb0e977760de756971f7,65d6bd86cb0a17198e65b8d0,0.2342,0.2343,1,54,216,86,1,eightsix,,,,,,,,,,,,,,,,,,,,,,,,,,,,,,,,,,,,,,,,,,,,,,,,,,,,,,,,,,,,,,,,,,,,,,,,,,,,,,,,,,,,,,,,,,,,,,,,,,,,,,,,,,,,,,,,,,,,,,,,,,,,,,,,,,,,,,,,,
,,6164692cd6ee66754bcbdbd0,2024-02-22_05h21.06.339,kallum_motion_pilot,2023.2.2,Win32,59.17159763,6164692cd6ee66754bcbdbd0,65d6bb0e977760de756971f7,65d6bd86cb0a17198e65b8d0,0.2346,0.2347,1,55,217,20,1,threeone,,,,,,,,,,,,,,,,,,,,,,,,,,,,,,,,,,,,,,,,,,,,,,,,,,,,,,,,,,,,,,,,,,,,,,,,,,,,,,,,,,,,,,,,,,,,,,,,,,,,,,,,,,,,,,,,,,,,,,,,,,,,,,,,,,,,,,,,,
,,6164692cd6ee66754bcbdbd0,2024-02-22_05h21.06.339,kallum_motion_pilot,2023.2.2,Win32,59.17159763,6164692cd6ee66754bcbdbd0,65d6bb0e977760de756971f7,65d6bd86cb0a17198e65b8d0,0.2349,0.2351,1,56,218,69,1,threefour,,,,,,,,,,,,,,,,,,,,,,,,,,,,,,,,,,,,,,,,,,,,,,,,,,,,,,,,,,,,,,,,,,,,,,,,,,,,,,,,,,,,,,,,,,,,,,,,,,,,,,,,,,,,,,,,,,,,,,,,,,,,,,,,,,,,,,,,,
,,6164692cd6ee66754bcbdbd0,2024-02-22_05h21.06.339,kallum_motion_pilot,2023.2.2,Win32,59.17159763,6164692cd6ee66754bcbdbd0,65d6bb0e977760de756971f7,65d6bd86cb0a17198e65b8d0,0.2353,0.2354,1,57,219,73,1,onethree,,,,,,,,,,,,,,,,,,,,,,,,,,,,,,,,,,,,,,,,,,,,,,,,,,,,,,,,,,,,,,,,,,,,,,,,,,,,,,,,,,,,,,,,,,,,,,,,,,,,,,,,,,,,,,,,,,,,,,,,,,,,,,,,,,,,,,,,,
,,6164692cd6ee66754bcbdbd0,2024-02-22_05h21.06.339,kallum_motion_pilot,2023.2.2,Win32,59.17159763,6164692cd6ee66754bcbdbd0,65d6bb0e977760de756971f7,65d6bd86cb0a17198e65b8d0,0.2356,0.2357,1,58,220,124,1,sevenfive,,,,,,,,,,,,,,,,,,,,,,,,,,,,,,,,,,,,,,,,,,,,,,,,,,,,,,,,,,,,,,,,,,,,,,,,,,,,,,,,,,,,,,,,,,,,,,,,,,,,,,,,,,,,,,,,,,,,,,,,,,,,,,,,,,,,,,,,,
,,6164692cd6ee66754bcbdbd0,2024-02-22_05h21.06.339,kallum_motion_pilot,2023.2.2,Win32,59.17159763,6164692cd6ee66754bcbdbd0,65d6bb0e977760de756971f7,65d6bd86cb0a17198e65b8d0,0.236,0.2361,1,59,221,26,1,twoone,,,,,,,,,,,,,,,,,,,,,,,,,,,,,,,,,,,,,,,,,,,,,,,,,,,,,,,,,,,,,,,,,,,,,,,,,,,,,,,,,,,,,,,,,,,,,,,,,,,,,,,,,,,,,,,,,,,,,,,,,,,,,,,,,,,,,,,,,
,,6164692cd6ee66754bcbdbd0,2024-02-22_05h21.06.339,kallum_motion_pilot,2023.2.2,Win32,59.17159763,6164692cd6ee66754bcbdbd0,65d6bb0e977760de756971f7,65d6bd86cb0a17198e65b8d0,0.2363,0.2364,1,60,222,109,1,seveneight,,,,,,,,,,,,,,,,,,,,,,,,,,,,,,,,,,,,,,,,,,,,,,,,,,,,,,,,,,,,,,,,,,,,,,,,,,,,,,,,,,,,,,,,,,,,,,,,,,,,,,,,,,,,,,,,,,,,,,,,,,,,,,,,,,,,,,,,,
,,6164692cd6ee66754bcbdbd0,2024-02-22_05h21.06.339,kallum_motion_pilot,2023.2.2,Win32,59.17159763,6164692cd6ee66754bcbdbd0,65d6bb0e977760de756971f7,65d6bd86cb0a17198e65b8d0,0.2366,0.2368,1,61,223,142,1,eightsix,,,,,,,,,,,,,,,,,,,,,,,,,,,,,,,,,,,,,,,,,,,,,,,,,,,,,,,,,,,,,,,,,,,,,,,,,,,,,,,,,,,,,,,,,,,,,,,,,,,,,,,,,,,,,,,,,,,,,,,,,,,,,,,,,,,,,,,,,
,,6164692cd6ee66754bcbdbd0,2024-02-22_05h21.06.339,kallum_motion_pilot,2023.2.2,Win32,59.17159763,6164692cd6ee66754bcbdbd0,65d6bb0e977760de756971f7,65d6bd86cb0a17198e65b8d0,0.2369,0.2371,1,62,224,138,1,sixfive,,,,,,,,,,,,,,,,,,,,,,,,,,,,,,,,,,,,,,,,,,,,,,,,,,,,,,,,,,,,,,,,,,,,,,,,,,,,,,,,,,,,,,,,,,,,,,,,,,,,,,,,,,,,,,,,,,,,,,,,,,,,,,,,,,,,,,,,,
,,6164692cd6ee66754bcbdbd0,2024-02-22_05h21.06.339,kallum_motion_pilot,2023.2.2,Win32,59.17159763,6164692cd6ee66754bcbdbd0,65d6bb0e977760de756971f7,65d6bd86cb0a17198e65b8d0,0.2373,0.2374,1,63,225,46,1,fourtwo,,,,,,,,,,,,,,,,,,,,,,,,,,,,,,,,,,,,,,,,,,,,,,,,,,,,,,,,,,,,,,,,,,,,,,,,,,,,,,,,,,,,,,,,,,,,,,,,,,,,,,,,,,,,,,,,,,,,,,,,,,,,,,,,,,,,,,,,,
,,6164692cd6ee66754bcbdbd0,2024-02-22_05h21.06.339,kallum_motion_pilot,2023.2.2,Win32,59.17159763,6164692cd6ee66754bcbdbd0,65d6bb0e977760de756971f7,65d6bd86cb0a17198e65b8d0,0.2376,0.2377,1,64,226,115,1,sixeight,,,,,,,,,,,,,,,,,,,,,,,,,,,,,,,,,,,,,,,,,,,,,,,,,,,,,,,,,,,,,,,,,,,,,,,,,,,,,,,,,,,,,,,,,,,,,,,,,,,,,,,,,,,,,,,,,,,,,,,,,,,,,,,,,,,,,,,,,
,,6164692cd6ee66754bcbdbd0,2024-02-22_05h21.06.339,kallum_motion_pilot,2023.2.2,Win32,59.17159763,6164692cd6ee66754bcbdbd0,65d6bb0e977760de756971f7,65d6bd86cb0a17198e65b8d0,0.238,0.2381,1,65,227,104,1,fivesix,,,,,,,,,,,,,,,,,,,,,,,,,,,,,,,,,,,,,,,,,,,,,,,,,,,,,,,,,,,,,,,,,,,,,,,,,,,,,,,,,,,,,,,,,,,,,,,,,,,,,,,,,,,,,,,,,,,,,,,,,,,,,,,,,,,,,,,,,
,,6164692cd6ee66754bcbdbd0,2024-02-22_05h21.06.339,kallum_motion_pilot,2023.2.2,Win32,59.17159763,6164692cd6ee66754bcbdbd0,65d6bb0e977760de756971f7,65d6bd86cb0a17198e65b8d0,0.2383,0.2384,1,66,228,111,1,eightseven,,,,,,,,,,,,,,,,,,,,,,,,,,,,,,,,,,,,,,,,,,,,,,,,,,,,,,,,,,,,,,,,,,,,,,,,,,,,,,,,,,,,,,,,,,,,,,,,,,,,,,,,,,,,,,,,,,,,,,,,,,,,,,,,,,,,,,,,,
,,6164692cd6ee66754bcbdbd0,2024-02-22_05h21.06.339,kallum_motion_pilot,2023.2.2,Win32,59.17159763,6164692cd6ee66754bcbdbd0,65d6bb0e977760de756971f7,65d6bd86cb0a17198e65b8d0,0.2387,0.2388,1,67,229,90,1,sixfive,,,,,,,,,,,,,,,,,,,,,,,,,,,,,,,,,,,,,,,,,,,,,,,,,,,,,,,,,,,,,,,,,,,,,,,,,,,,,,,,,,,,,,,,,,,,,,,,,,,,,,,,,,,,,,,,,,,,,,,,,,,,,,,,,,,,,,,,,
,,6164692cd6ee66754bcbdbd0,2024-02-22_05h21.06.339,kallum_motion_pilot,2023.2.2,Win32,59.17159763,6164692cd6ee66754bcbdbd0,65d6bb0e977760de756971f7,65d6bd86cb0a17198e65b8d0,0.239,0.2392,1,68,230,55,1,fourthree,,,,,,,,,,,,,,,,,,,,,,,,,,,,,,,,,,,,,,,,,,,,,,,,,,,,,,,,,,,,,,,,,,,,,,,,,,,,,,,,,,,,,,,,,,,,,,,,,,,,,,,,,,,,,,,,,,,,,,,,,,,,,,,,,,,,,,,,,
,,6164692cd6ee66754bcbdbd0,2024-02-22_05h21.06.339,kallum_motion_pilot,2023.2.2,Win32,59.17159763,6164692cd6ee66754bcbdbd0,65d6bb0e977760de756971f7,65d6bd86cb0a17198e65b8d0,0.2393,0.2395,1,69,231,87,1,eightseven,,,,,,,,,,,,,,,,,,,,,,,,,,,,,,,,,,,,,,,,,,,,,,,,,,,,,,,,,,,,,,,,,,,,,,,,,,,,,,,,,,,,,,,,,,,,,,,,,,,,,,,,,,,,,,,,,,,,,,,,,,,,,,,,,,,,,,,,,
,,6164692cd6ee66754bcbdbd0,2024-02-22_05h21.06.339,kallum_motion_pilot,2023.2.2,Win32,59.17159763,6164692cd6ee66754bcbdbd0,65d6bb0e977760de756971f7,65d6bd86cb0a17198e65b8d0,0.2397,0.2399,1,70,232,89,1,fiveseven,,,,,,,,,,,,,,,,,,,,,,,,,,,,,,,,,,,,,,,,,,,,,,,,,,,,,,,,,,,,,,,,,,,,,,,,,,,,,,,,,,,,,,,,,,,,,,,,,,,,,,,,,,,,,,,,,,,,,,,,,,,,,,,,,,,,,,,,,
,,6164692cd6ee66754bcbdbd0,2024-02-22_05h21.06.339,kallum_motion_pilot,2023.2.2,Win32,59.17159763,6164692cd6ee66754bcbdbd0,65d6bb0e977760de756971f7,65d6bd86cb0a17198e65b8d0,0.24,0.2402,1,71,233,61,1,threefour,,,,,,,,,,,,,,,,,,,,,,,,,,,,,,,,,,,,,,,,,,,,,,,,,,,,,,,,,,,,,,,,,,,,,,,,,,,,,,,,,,,,,,,,,,,,,,,,,,,,,,,,,,,,,,,,,,,,,,,,,,,,,,,,,,,,,,,,,
,,6164692cd6ee66754bcbdbd0,2024-02-22_05h21.06.339,kallum_motion_pilot,2023.2.2,Win32,59.17159763,6164692cd6ee66754bcbdbd0,65d6bb0e977760de756971f7,65d6bd86cb0a17198e65b8d0,0.2404,0.2405,1,72,234,31,1,fourthree,,,,,,,,,,,,,,,,,,,,,,,,,,,,,,,,,,,,,,,,,,,,,,,,,,,,,,,,,,,,,,,,,,,,,,,,,,,,,,,,,,,,,,,,,,,,,,,,,,,,,,,,,,,,,,,,,,,,,,,,,,,,,,,,,,,,,,,,,
,,6164692cd6ee66754bcbdbd0,2024-02-22_05h21.06.339,kallum_motion_pilot,2023.2.2,Win32,59.17159763,6164692cd6ee66754bcbdbd0,65d6bb0e977760de756971f7,65d6bd86cb0a17198e65b8d0,0.2407,0.2409,1,73,235,151,1,eightseven,,,,,,,,,,,,,,,,,,,,,,,,,,,,,,,,,,,,,,,,,,,,,,,,,,,,,,,,,,,,,,,,,,,,,,,,,,,,,,,,,,,,,,,,,,,,,,,,,,,,,,,,,,,,,,,,,,,,,,,,,,,,,,,,,,,,,,,,,
,,6164692cd6ee66754bcbdbd0,2024-02-22_05h21.06.339,kallum_motion_pilot,2023.2.2,Win32,59.17159763,6164692cd6ee66754bcbdbd0,65d6bb0e977760de756971f7,65d6bd86cb0a17198e65b8d0,0.241,0.2412,1,74,236,60,1,threeone,,,,,,,,,,,,,,,,,,,,,,,,,,,,,,,,,,,,,,,,,,,,,,,,,,,,,,,,,,,,,,,,,,,,,,,,,,,,,,,,,,,,,,,,,,,,,,,,,,,,,,,,,,,,,,,,,,,,,,,,,,,,,,,,,,,,,,,,,
,,6164692cd6ee66754bcbdbd0,2024-02-22_05h21.06.339,kallum_motion_pilot,2023.2.2,Win32,59.17159763,6164692cd6ee66754bcbdbd0,65d6bb0e977760de756971f7,65d6bd86cb0a17198e65b8d0,0.2414,0.2416,1,75,237,105,1,fiveseven,,,,,,,,,,,,,,,,,,,,,,,,,,,,,,,,,,,,,,,,,,,,,,,,,,,,,,,,,,,,,,,,,,,,,,,,,,,,,,,,,,,,,,,,,,,,,,,,,,,,,,,,,,,,,,,,,,,,,,,,,,,,,,,,,,,,,,,,,
,,6164692cd6ee66754bcbdbd0,2024-02-22_05h21.06.339,kallum_motion_pilot,2023.2.2,Win32,59.17159763,6164692cd6ee66754bcbdbd0,65d6bb0e977760de756971f7,65d6bd86cb0a17198e65b8d0,0.2418,0.2419,1,76,238,141,1,seveneight,,,,,,,,,,,,,,,,,,,,,,,,,,,,,,,,,,,,,,,,,,,,,,,,,,,,,,,,,,,,,,,,,,,,,,,,,,,,,,,,,,,,,,,,,,,,,,,,,,,,,,,,,,,,,,,,,,,,,,,,,,,,,,,,,,,,,,,,,
,,6164692cd6ee66754bcbdbd0,2024-02-22_05h21.06.339,kallum_motion_pilot,2023.2.2,Win32,59.17159763,6164692cd6ee66754bcbdbd0,65d6bb0e977760de756971f7,65d6bd86cb0a17198e65b8d0,0.242,0.2424,1,77,239,43,1,twofour,,,,,,,,,,,,,,,,,,,,,,,,,,,,,,,,,,,,,,,,,,,,,,,,,,,,,,,,,,,,,,,,,,,,,,,,,,,,,,,,,,,,,,,,,,,,,,,,,,,,,,,,,,,,,,,,,,,,,,,,,,,,,,,,,,,,,,,,,
,,6164692cd6ee66754bcbdbd0,2024-02-22_05h21.06.339,kallum_motion_pilot,2023.2.2,Win32,59.17159763,6164692cd6ee66754bcbdbd0,65d6bb0e977760de756971f7,65d6bd86cb0a17198e65b8d0,0.2454,0.2456,1,78,240,44,1,threeone,,,,,,,,,,,,,,,,,,,,,,,,,,,,,,,,,,,,,,,,,,,,,,,,,,,,,,,,,,,,,,,,,,,,,,,,,,,,,,,,,,,,,,,,,,,,,,,,,,,,,,,,,,,,,,,,,,,,,,,,,,,,,,,,,,,,,,,,,
,,6164692cd6ee66754bcbdbd0,2024-02-22_05h21.06.339,kallum_motion_pilot,2023.2.2,Win32,59.17159763,6164692cd6ee66754bcbdbd0,65d6bb0e977760de756971f7,65d6bd86cb0a17198e65b8d0,0.2458,0.246,1,79,241,114,1,sixfive,,,,,,,,,,,,,,,,,,,,,,,,,,,,,,,,,,,,,,,,,,,,,,,,,,,,,,,,,,,,,,,,,,,,,,,,,,,,,,,,,,,,,,,,,,,,,,,,,,,,,,,,,,,,,,,,,,,,,,,,,,,,,,,,,,,,,,,,,
,,6164692cd6ee66754bcbdbd0,2024-02-22_05h21.06.339,kallum_motion_pilot,2023.2.2,Win32,59.17159763,6164692cd6ee66754bcbdbd0,65d6bb0e977760de756971f7,65d6bd86cb0a17198e65b8d0,0.2462,0.2463,1,80,242,25,1,onethree,,,,,,,,,,,,,,,,,,,,,,,,,,,,,,,,,,,,,,,,,,,,,,,,,,,,,,,,,,,,,,,,,,,,,,,,,,,,,,,,,,,,,,,,,,,,,,,,,,,,,,,,,,,,,,,,,,,,,,,,,,,,,,,,,,,,,,,,,
,,6164692cd6ee66754bcbdbd0,2024-02-22_05h21.06.339,kallum_motion_pilot,2023.2.2,Win32,59.17159763,6164692cd6ee66754bcbdbd0,65d6bb0e977760de756971f7,65d6bd86cb0a17198e65b8d0,0.2465,0.2467,1,81,243,149,1,seveneight,,,,,,,,,,,,,,,,,,,,,,,,,,,,,,,,,,,,,,,,,,,,,,,,,,,,,,,,,,,,,,,,,,,,,,,,,,,,,,,,,,,,,,,,,,,,,,,,,,,,,,,,,,,,,,,,,,,,,,,,,,,,,,,,,,,,,,,,,
,,6164692cd6ee66754bcbdbd0,2024-02-22_05h21.06.339,kallum_motion_pilot,2023.2.2,Win32,59.17159763,6164692cd6ee66754bcbdbd0,65d6bb0e977760de756971f7,65d6bd86cb0a17198e65b8d0,0.2469,0.247,1,82,244,22,1,fourtwo,,,,,,,,,,,,,,,,,,,,,,,,,,,,,,,,,,,,,,,,,,,,,,,,,,,,,,,,,,,,,,,,,,,,,,,,,,,,,,,,,,,,,,,,,,,,,,,,,,,,,,,,,,,,,,,,,,,,,,,,,,,,,,,,,,,,,,,,,
,,6164692cd6ee66754bcbdbd0,2024-02-22_05h21.06.339,kallum_motion_pilot,2023.2.2,Win32,59.17159763,6164692cd6ee66754bcbdbd0,65d6bb0e977760de756971f7,65d6bd86cb0a17198e65b8d0,0.2472,0.2474,1,83,245,42,1,twoone,,,,,,,,,,,,,,,,,,,,,,,,,,,,,,,,,,,,,,,,,,,,,,,,,,,,,,,,,,,,,,,,,,,,,,,,,,,,,,,,,,,,,,,,,,,,,,,,,,,,,,,,,,,,,,,,,,,,,,,,,,,,,,,,,,,,,,,,,
,,6164692cd6ee66754bcbdbd0,2024-02-22_05h21.06.339,kallum_motion_pilot,2023.2.2,Win32,59.17159763,6164692cd6ee66754bcbdbd0,65d6bb0e977760de756971f7,65d6bd86cb0a17198e65b8d0,0.2477,0.2477,1,84,246,72,1,onetwo,,,,,,,,,,,,,,,,,,,,,,,,,,,,,,,,,,,,,,,,,,,,,,,,,,,,,,,,,,,,,,,,,,,,,,,,,,,,,,,,,,,,,,,,,,,,,,,,,,,,,,,,,,,,,,,,,,,,,,,,,,,,,,,,,,,,,,,,,
,,6164692cd6ee66754bcbdbd0,2024-02-22_05h21.06.339,kallum_motion_pilot,2023.2.2,Win32,59.17159763,6164692cd6ee66754bcbdbd0,65d6bb0e977760de756971f7,65d6bd86cb0a17198e65b8d0,0.2479,0.2482,1,85,247,139,1,sixeight,,,,,,,,,,,,,,,,,,,,,,,,,,,,,,,,,,,,,,,,,,,,,,,,,,,,,,,,,,,,,,,,,,,,,,,,,,,,,,,,,,,,,,,,,,,,,,,,,,,,,,,,,,,,,,,,,,,,,,,,,,,,,,,,,,,,,,,,,
,,6164692cd6ee66754bcbdbd0,2024-02-22_05h21.06.339,kallum_motion_pilot,2023.2.2,Win32,59.17159763,6164692cd6ee66754bcbdbd0,65d6bb0e977760de756971f7,65d6bd86cb0a17198e65b8d0,0.2484,0.2485,1,86,248,79,1,eightseven,,,,,,,,,,,,,,,,,,,,,,,,,,,,,,,,,,,,,,,,,,,,,,,,,,,,,,,,,,,,,,,,,,,,,,,,,,,,,,,,,,,,,,,,,,,,,,,,,,,,,,,,,,,,,,,,,,,,,,,,,,,,,,,,,,,,,,,,,
,,6164692cd6ee66754bcbdbd0,2024-02-22_05h21.06.339,kallum_motion_pilot,2023.2.2,Win32,59.17159763,6164692cd6ee66754bcbdbd0,65d6bb0e977760de756971f7,65d6bd86cb0a17198e65b8d0,0.2487,0.2488,1,87,249,75,1,twofour,,,,,,,,,,,,,,,,,,,,,,,,,,,,,,,,,,,,,,,,,,,,,,,,,,,,,,,,,,,,,,,,,,,,,,,,,,,,,,,,,,,,,,,,,,,,,,,,,,,,,,,,,,,,,,,,,,,,,,,,,,,,,,,,,,,,,,,,,
,,6164692cd6ee66754bcbdbd0,2024-02-22_05h21.06.339,kallum_motion_pilot,2023.2.2,Win32,59.17159763,6164692cd6ee66754bcbdbd0,65d6bb0e977760de756971f7,65d6bd86cb0a17198e65b8d0,0.2492,0.2493,1,88,250,92,1,sevenfive,,,,,,,,,,,,,,,,,,,,,,,,,,,,,,,,,,,,,,,,,,,,,,,,,,,,,,,,,,,,,,,,,,,,,,,,,,,,,,,,,,,,,,,,,,,,,,,,,,,,,,,,,,,,,,,,,,,,,,,,,,,,,,,,,,,,,,,,,
,,6164692cd6ee66754bcbdbd0,2024-02-22_05h21.06.339,kallum_motion_pilot,2023.2.2,Win32,59.17159763,6164692cd6ee66754bcbdbd0,65d6bb0e977760de756971f7,65d6bd86cb0a17198e65b8d0,0.2495,0.2498,1,89,251,74,1,twoone,,,,,,,,,,,,,,,,,,,,,,,,,,,,,,,,,,,,,,,,,,,,,,,,,,,,,,,,,,,,,,,,,,,,,,,,,,,,,,,,,,,,,,,,,,,,,,,,,,,,,,,,,,,,,,,,,,,,,,,,,,,,,,,,,,,,,,,,,
,,6164692cd6ee66754bcbdbd0,2024-02-22_05h21.06.339,kallum_motion_pilot,2023.2.2,Win32,59.17159763,6164692cd6ee66754bcbdbd0,65d6bb0e977760de756971f7,65d6bd86cb0a17198e65b8d0,0.2499,0.25,1,90,252,91,1,sixeight,,,,,,,,,,,,,,,,,,,,,,,,,,,,,,,,,,,,,,,,,,,,,,,,,,,,,,,,,,,,,,,,,,,,,,,,,,,,,,,,,,,,,,,,,,,,,,,,,,,,,,,,,,,,,,,,,,,,,,,,,,,,,,,,,,,,,,,,,
,,6164692cd6ee66754bcbdbd0,2024-02-22_05h21.06.339,kallum_motion_pilot,2023.2.2,Win32,59.17159763,6164692cd6ee66754bcbdbd0,65d6bb0e977760de756971f7,65d6bd86cb0a17198e65b8d0,0.2503,0.2507,1,91,253,152,1,fivesix,,,,,,,,,,,,,,,,,,,,,,,,,,,,,,,,,,,,,,,,,,,,,,,,,,,,,,,,,,,,,,,,,,,,,,,,,,,,,,,,,,,,,,,,,,,,,,,,,,,,,,,,,,,,,,,,,,,,,,,,,,,,,,,,,,,,,,,,,
,,6164692cd6ee66754bcbdbd0,2024-02-22_05h21.06.339,kallum_motion_pilot,2023.2.2,Win32,59.17159763,6164692cd6ee66754bcbdbd0,65d6bb0e977760de756971f7,65d6bd86cb0a17198e65b8d0,0.2509,0.251,1,92,254,145,1,fiveseven,,,,,,,,,,,,,,,,,,,,,,,,,,,,,,,,,,,,,,,,,,,,,,,,,,,,,,,,,,,,,,,,,,,,,,,,,,,,,,,,,,,,,,,,,,,,,,,,,,,,,,,,,,,,,,,,,,,,,,,,,,,,,,,,,,,,,,,,,
,,6164692cd6ee66754bcbdbd0,2024-02-22_05h21.06.339,kallum_motion_pilot,2023.2.2,Win32,59.17159763,6164692cd6ee66754bcbdbd0,65d6bb0e977760de756971f7,65d6bd86cb0a17198e65b8d0,0.2513,0.2514,1,93,255,12,1,threeone,,,,,,,,,,,,,,,,,,,,,,,,,,,,,,,,,,,,,,,,,,,,,,,,,,,,,,,,,,,,,,,,,,,,,,,,,,,,,,,,,,,,,,,,,,,,,,,,,,,,,,,,,,,,,,,,,,,,,,,,,,,,,,,,,,,,,,,,,
,,6164692cd6ee66754bcbdbd0,2024-02-22_05h21.06.339,kallum_motion_pilot,2023.2.2,Win32,59.17159763,6164692cd6ee66754bcbdbd0,65d6bb0e977760de756971f7,65d6bd86cb0a17198e65b8d0,0.2516,0.2518,1,94,256,153,1,fiveseven,,,,,,,,,,,,,,,,,,,,,,,,,,,,,,,,,,,,,,,,,,,,,,,,,,,,,,,,,,,,,,,,,,,,,,,,,,,,,,,,,,,,,,,,,,,,,,,,,,,,,,,,,,,,,,,,,,,,,,,,,,,,,,,,,,,,,,,,,
,,6164692cd6ee66754bcbdbd0,2024-02-22_05h21.06.339,kallum_motion_pilot,2023.2.2,Win32,59.17159763,6164692cd6ee66754bcbdbd0,65d6bb0e977760de756971f7,65d6bd86cb0a17198e65b8d0,0.252,0.2522,1,95,257,159,1,eightseven,,,,,,,,,,,,,,,,,,,,,,,,,,,,,,,,,,,,,,,,,,,,,,,,,,,,,,,,,,,,,,,,,,,,,,,,,,,,,,,,,,,,,,,,,,,,,,,,,,,,,,,,,,,,,,,,,,,,,,,,,,,,,,,,,,,,,,,,,
,,6164692cd6ee66754bcbdbd0,2024-02-22_05h21.06.339,kallum_motion_pilot,2023.2.2,Win32,59.17159763,6164692cd6ee66754bcbdbd0,65d6bb0e977760de756971f7,65d6bd86cb0a17198e65b8d0,0.2524,0.2525,1,96,258,3,1,twofour,,,,,,,,,,,,,,,,,,,,,,,,,,,,,,,,,,,,,,,,,,,,,,,,,,,,,,,,,,,,,,,,,,,,,,,,,,,,,,,,,,,,,,,,,,,,,,,,,,,,,,,,,,,,,,,,,,,,,,,,,,,,,,,,,,,,,,,,,
,,6164692cd6ee66754bcbdbd0,2024-02-22_05h21.06.339,kallum_motion_pilot,2023.2.2,Win32,59.17159763,6164692cd6ee66754bcbdbd0,65d6bb0e977760de756971f7,65d6bd86cb0a17198e65b8d0,0.2527,0.2529,1,97,259,148,1,sevenfive,,,,,,,,,,,,,,,,,,,,,,,,,,,,,,,,,,,,,,,,,,,,,,,,,,,,,,,,,,,,,,,,,,,,,,,,,,,,,,,,,,,,,,,,,,,,,,,,,,,,,,,,,,,,,,,,,,,,,,,,,,,,,,,,,,,,,,,,,
,,6164692cd6ee66754bcbdbd0,2024-02-22_05h21.06.339,kallum_motion_pilot,2023.2.2,Win32,59.17159763,6164692cd6ee66754bcbdbd0,65d6bb0e977760de756971f7,65d6bd86cb0a17198e65b8d0,0.2531,0.2532,1,98,260,84,1,sevenfive,,,,,,,,,,,,,,,,,,,,,,,,,,,,,,,,,,,,,,,,,,,,,,,,,,,,,,,,,,,,,,,,,,,,,,,,,,,,,,,,,,,,,,,,,,,,,,,,,,,,,,,,,,,,,,,,,,,,,,,,,,,,,,,,,,,,,,,,,
,,6164692cd6ee66754bcbdbd0,2024-02-22_05h21.06.339,kallum_motion_pilot,2023.2.2,Win32,59.17159763,6164692cd6ee66754bcbdbd0,65d6bb0e977760de756971f7,65d6bd86cb0a17198e65b8d0,0.2534,0.2536,1,99,261,13,1,threefour,,,,,,,,,,,,,,,,,,,,,,,,,,,,,,,,,,,,,,,,,,,,,,,,,,,,,,,,,,,,,,,,,,,,,,,,,,,,,,,,,,,,,,,,,,,,,,,,,,,,,,,,,,,,,,,,,,,,,,,,,,,,,,,,,,,,,,,,,
,,6164692cd6ee66754bcbdbd0,2024-02-22_05h21.06.339,kallum_motion_pilot,2023.2.2,Win32,59.17159763,6164692cd6ee66754bcbdbd0,65d6bb0e977760de756971f7,65d6bd86cb0a17198e65b8d0,0.2538,0.254,1,100,262,160,1,fivesix,,,,,,,,,,,,,,,,,,,,,,,,,,,,,,,,,,,,,,,,,,,,,,,,,,,,,,,,,,,,,,,,,,,,,,,,,,,,,,,,,,,,,,,,,,,,,,,,,,,,,,,,,,,,,,,,,,,,,,,,,,,,,,,,,,,,,,,,,
,,6164692cd6ee66754bcbdbd0,2024-02-22_05h21.06.339,kallum_motion_pilot,2023.2.2,Win32,59.17159763,6164692cd6ee66754bcbdbd0,65d6bb0e977760de756971f7,65d6bd86cb0a17198e65b8d0,0.2542,0.2544,1,101,263,65,1,onethree,,,,,,,,,,,,,,,,,,,,,,,,,,,,,,,,,,,,,,,,,,,,,,,,,,,,,,,,,,,,,,,,,,,,,,,,,,,,,,,,,,,,,,,,,,,,,,,,,,,,,,,,,,,,,,,,,,,,,,,,,,,,,,,,,,,,,,,,,
,,6164692cd6ee66754bcbdbd0,2024-02-22_05h21.06.339,kallum_motion_pilot,2023.2.2,Win32,59.17159763,6164692cd6ee66754bcbdbd0,65d6bb0e977760de756971f7,65d6bd86cb0a17198e65b8d0,0.2546,0.2547,1,102,264,132,1,sevenfive,,,,,,,,,,,,,,,,,,,,,,,,,,,,,,,,,,,,,,,,,,,,,,,,,,,,,,,,,,,,,,,,,,,,,,,,,,,,,,,,,,,,,,,,,,,,,,,,,,,,,,,,,,,,,,,,,,,,,,,,,,,,,,,,,,,,,,,,,
,,6164692cd6ee66754bcbdbd0,2024-02-22_05h21.06.339,kallum_motion_pilot,2023.2.2,Win32,59.17159763,6164692cd6ee66754bcbdbd0,65d6bb0e977760de756971f7,65d6bd86cb0a17198e65b8d0,0.255,0.2551,1,103,265,155,1,sixeight,,,,,,,,,,,,,,,,,,,,,,,,,,,,,,,,,,,,,,,,,,,,,,,,,,,,,,,,,,,,,,,,,,,,,,,,,,,,,,,,,,,,,,,,,,,,,,,,,,,,,,,,,,,,,,,,,,,,,,,,,,,,,,,,,,,,,,,,,
,,6164692cd6ee66754bcbdbd0,2024-02-22_05h21.06.339,kallum_motion_pilot,2023.2.2,Win32,59.17159763,6164692cd6ee66754bcbdbd0,65d6bb0e977760de756971f7,65d6bd86cb0a17198e65b8d0,0.2553,0.2555,1,104,266,53,1,threefour,,,,,,,,,,,,,,,,,,,,,,,,,,,,,,,,,,,,,,,,,,,,,,,,,,,,,,,,,,,,,,,,,,,,,,,,,,,,,,,,,,,,,,,,,,,,,,,,,,,,,,,,,,,,,,,,,,,,,,,,,,,,,,,,,,,,,,,,,
,,6164692cd6ee66754bcbdbd0,2024-02-22_05h21.06.339,kallum_motion_pilot,2023.2.2,Win32,59.17159763,6164692cd6ee66754bcbdbd0,65d6bb0e977760de756971f7,65d6bd86cb0a17198e65b8d0,0.2557,0.2559,1,105,267,29,1,threefour,,,,,,,,,,,,,,,,,,,,,,,,,,,,,,,,,,,,,,,,,,,,,,,,,,,,,,,,,,,,,,,,,,,,,,,,,,,,,,,,,,,,,,,,,,,,,,,,,,,,,,,,,,,,,,,,,,,,,,,,,,,,,,,,,,,,,,,,,
,,6164692cd6ee66754bcbdbd0,2024-02-22_05h21.06.339,kallum_motion_pilot,2023.2.2,Win32,59.17159763,6164692cd6ee66754bcbdbd0,65d6bb0e977760de756971f7,65d6bd86cb0a17198e65b8d0,0.2561,0.2563,1,106,268,99,1,sixeight,,,,,,,,,,,,,,,,,,,,,,,,,,,,,,,,,,,,,,,,,,,,,,,,,,,,,,,,,,,,,,,,,,,,,,,,,,,,,,,,,,,,,,,,,,,,,,,,,,,,,,,,,,,,,,,,,,,,,,,,,,,,,,,,,,,,,,,,,
,,6164692cd6ee66754bcbdbd0,2024-02-22_05h21.06.339,kallum_motion_pilot,2023.2.2,Win32,59.17159763,6164692cd6ee66754bcbdbd0,65d6bb0e977760de756971f7,65d6bd86cb0a17198e65b8d0,0.2564,0.2566,1,107,269,50,1,twoone,,,,,,,,,,,,,,,,,,,,,,,,,,,,,,,,,,,,,,,,,,,,,,,,,,,,,,,,,,,,,,,,,,,,,,,,,,,,,,,,,,,,,,,,,,,,,,,,,,,,,,,,,,,,,,,,,,,,,,,,,,,,,,,,,,,,,,,,,
,,6164692cd6ee66754bcbdbd0,2024-02-22_05h21.06.339,kallum_motion_pilot,2023.2.2,Win32,59.17159763,6164692cd6ee66754bcbdbd0,65d6bb0e977760de756971f7,65d6bd86cb0a17198e65b8d0,0.2568,0.2569,1,108,270,54,1,fourtwo,,,,,,,,,,,,,,,,,,,,,,,,,,,,,,,,,,,,,,,,,,,,,,,,,,,,,,,,,,,,,,,,,,,,,,,,,,,,,,,,,,,,,,,,,,,,,,,,,,,,,,,,,,,,,,,,,,,,,,,,,,,,,,,,,,,,,,,,,
,,6164692cd6ee66754bcbdbd0,2024-02-22_05h21.06.339,kallum_motion_pilot,2023.2.2,Win32,59.17159763,6164692cd6ee66754bcbdbd0,65d6bb0e977760de756971f7,65d6bd86cb0a17198e65b8d0,0.2571,0.2574,1,109,271,5,1,threefour,,,,,,,,,,,,,,,,,,,,,,,,,,,,,,,,,,,,,,,,,,,,,,,,,,,,,,,,,,,,,,,,,,,,,,,,,,,,,,,,,,,,,,,,,,,,,,,,,,,,,,,,,,,,,,,,,,,,,,,,,,,,,,,,,,,,,,,,,
,,6164692cd6ee66754bcbdbd0,2024-02-22_05h21.06.339,kallum_motion_pilot,2023.2.2,Win32,59.17159763,6164692cd6ee66754bcbdbd0,65d6bb0e977760de756971f7,65d6bd86cb0a17198e65b8d0,0.2575,0.2576,1,110,272,96,1,fivesix,,,,,,,,,,,,,,,,,,,,,,,,,,,,,,,,,,,,,,,,,,,,,,,,,,,,,,,,,,,,,,,,,,,,,,,,,,,,,,,,,,,,,,,,,,,,,,,,,,,,,,,,,,,,,,,,,,,,,,,,,,,,,,,,,,,,,,,,,
,,6164692cd6ee66754bcbdbd0,2024-02-22_05h21.06.339,kallum_motion_pilot,2023.2.2,Win32,59.17159763,6164692cd6ee66754bcbdbd0,65d6bb0e977760de756971f7,65d6bd86cb0a17198e65b8d0,0.2579,0.2581,1,111,273,80,1,fivesix,,,,,,,,,,,,,,,,,,,,,,,,,,,,,,,,,,,,,,,,,,,,,,,,,,,,,,,,,,,,,,,,,,,,,,,,,,,,,,,,,,,,,,,,,,,,,,,,,,,,,,,,,,,,,,,,,,,,,,,,,,,,,,,,,,,,,,,,,
,,6164692cd6ee66754bcbdbd0,2024-02-22_05h21.06.339,kallum_motion_pilot,2023.2.2,Win32,59.17159763,6164692cd6ee66754bcbdbd0,65d6bb0e977760de756971f7,65d6bd86cb0a17198e65b8d0,0.2583,0.2584,1,112,274,51,1,twofour,,,,,,,,,,,,,,,,,,,,,,,,,,,,,,,,,,,,,,,,,,,,,,,,,,,,,,,,,,,,,,,,,,,,,,,,,,,,,,,,,,,,,,,,,,,,,,,,,,,,,,,,,,,,,,,,,,,,,,,,,,,,,,,,,,,,,,,,,
,,6164692cd6ee66754bcbdbd0,2024-02-22_05h21.06.339,kallum_motion_pilot,2023.2.2,Win32,59.17159763,6164692cd6ee66754bcbdbd0,65d6bb0e977760de756971f7,65d6bd86cb0a17198e65b8d0,0.2586,0.2587,1,113,275,77,1,threefour,,,,,,,,,,,,,,,,,,,,,,,,,,,,,,,,,,,,,,,,,,,,,,,,,,,,,,,,,,,,,,,,,,,,,,,,,,,,,,,,,,,,,,,,,,,,,,,,,,,,,,,,,,,,,,,,,,,,,,,,,,,,,,,,,,,,,,,,,
,,6164692cd6ee66754bcbdbd0,2024-02-22_05h21.06.339,kallum_motion_pilot,2023.2.2,Win32,59.17159763,6164692cd6ee66754bcbdbd0,65d6bb0e977760de756971f7,65d6bd86cb0a17198e65b8d0,0.259,0.2591,1,114,276,81,1,fiveseven,,,,,,,,,,,,,,,,,,,,,,,,,,,,,,,,,,,,,,,,,,,,,,,,,,,,,,,,,,,,,,,,,,,,,,,,,,,,,,,,,,,,,,,,,,,,,,,,,,,,,,,,,,,,,,,,,,,,,,,,,,,,,,,,,,,,,,,,,
,,6164692cd6ee66754bcbdbd0,2024-02-22_05h21.06.339,kallum_motion_pilot,2023.2.2,Win32,59.17159763,6164692cd6ee66754bcbdbd0,65d6bb0e977760de756971f7,65d6bd86cb0a17198e65b8d0,0.2619,0.2623,1,115,277,57,1,onethree,,,,,,,,,,,,,,,,,,,,,,,,,,,,,,,,,,,,,,,,,,,,,,,,,,,,,,,,,,,,,,,,,,,,,,,,,,,,,,,,,,,,,,,,,,,,,,,,,,,,,,,,,,,,,,,,,,,,,,,,,,,,,,,,,,,,,,,,,
