startup.started,startup.stopped,Prolific ID*,date,expName,psychopyVersion,OS,frameRate,participant,study_id,session,stimpositions.started,stimpositions.stopped,hardcoded_stimulus_positions.thisRepN,hardcoded_stimulus_positions.thisTrialN,hardcoded_stimulus_positions.thisN,hardcoded_stimulus_positions.thisIndex,hardcoded_stimulus_positions.ran,StimulusPos,stimorientation.started,stimorientation.stopped,prac_stimorientation_import_loop.thisRepN,prac_stimorientation_import_loop.thisTrialN,prac_stimorientation_import_loop.thisN,prac_stimorientation_import_loop.thisIndex,prac_stimorientation_import_loop.ran,Stimorientation,welcome_instr.started,welcome_instr.stopped,key_resp.keys,key_resp.rt,key_resp.duration,response_steppedout_1.started,response_steppedout_1.stopped,key_resp_20.keys,key_resp_20.rt,key_resp_20.duration,response_steppedout_2.started,response_steppedout_2.stopped,key_resp_19.keys,key_resp_19.rt,key_resp_19.duration,stim_response_instr.started,stim_response_instr.stopped,key_resp_15.keys,key_resp_15.rt,key_resp_15.duration,direction_instr_2.started,direction_instr_2.stopped,key_resp_9.keys,key_resp_9.rt,key_resp_9.duration,instr_prac.started,instr_prac.stopped,key_resp_10.keys,key_resp_10.rt,key_resp_10.duration,Stim1_display_prac.started,Stim1_display_prac.stopped,Ecc,Circle1_ori,Circle2_ori,response_prac.started,similarity,response_time,response_prac.stopped,mouse_5.x,mouse_5.y,mouse_5.leftButton,mouse_5.midButton,mouse_5.rightButton,mouse_5.clicked_name,responseprac_feedback.started,responseprac_feedback.stopped,summary2_prac.started,summary2_prac.stopped,mouse_6.x,mouse_6.y,mouse_6.leftButton,mouse_6.midButton,mouse_6.rightButton,mouse_6.clicked_name,duringprac.thisRepN,duringprac.thisTrialN,duringprac.thisN,duringprac.thisIndex,duringprac.ran,begin.started,begin.stopped,key_resp_22.keys,key_resp_22.rt,key_resp_22.duration,Stim1_display.started,Stim1_display.stopped,circle1_ori,circle2_ori,circle1_SF,circle2_SF,response.started,response.stopped,mouse.x,mouse.y,mouse.leftButton,mouse.midButton,mouse.rightButton,mouse.clicked_name,trialnumber,double_pass.thisRepN,double_pass.thisTrialN,double_pass.thisN,double_pass.thisIndex,double_pass.ran,double_pass.order,main_trial.thisRepN,main_trial.thisTrialN,main_trial.thisN,main_trial.thisIndex,main_trial.ran,main_trial.order,Trial_Counter,Catch,Frequencies,response_2.started,response_2.stopped,mouse_2.x,mouse_2.y,mouse_2.leftButton,mouse_2.midButton,mouse_2.rightButton,mouse_2.clicked_name,special_trial.started,special_trial.stopped,catch_1.started,catch_1.stopped,mouse_3.x,mouse_3.y,mouse_3.leftButton,mouse_3.midButton,mouse_3.rightButton,catchresponse,catchnumber,response_time_catch,response_sum.started,response_sum.stopped,mouse_11.x,mouse_11.y,mouse_11.leftButton,mouse_11.midButton,mouse_11.rightButton,flip_presentation_sequence_for_double_pass.started,flip_presentation_sequence_for_double_pass.stopped,goodbye.started,goodbye.stopped,key_resp_3.keys,key_resp_3.rt,key_resp_3.duration
0.0004,0.0005,6169abd4e006adba4739143e,2024-02-18_20h15.03.409,kallum_motion_pilot,2023.2.2,Win32,60.24096386,6169abd4e006adba4739143e,65d2b6c8f2eece985d8e374c,65d2b98980b5775321cab96a,,,,,,,,,,,,,,,,,,,,,,,,,,,,,,,,,,,,,,,,,,,,,,,,,,,,,,,,,,,,,,,,,,,,,,,,,,,,,,,,,,,,,,,,,,,,,,,,,,,,,,,,,,,,,,,,,,,,,,,,,,,,,,,,,,,,,,,,,,,,,,,,,
,,6169abd4e006adba4739143e,2024-02-18_20h15.03.409,kallum_motion_pilot,2023.2.2,Win32,60.24096386,6169abd4e006adba4739143e,65d2b6c8f2eece985d8e374c,65d2b98980b5775321cab96a,0.027,0.0271,0,0,0,114,1,sixfive,,,,,,,,,,,,,,,,,,,,,,,,,,,,,,,,,,,,,,,,,,,,,,,,,,,,,,,,,,,,,,,,,,,,,,,,,,,,,,,,,,,,,,,,,,,,,,,,,,,,,,,,,,,,,,,,,,,,,,,,,,,,,,,,,,,,,,,,,
,,6169abd4e006adba4739143e,2024-02-18_20h15.03.409,kallum_motion_pilot,2023.2.2,Win32,60.24096386,6169abd4e006adba4739143e,65d2b6c8f2eece985d8e374c,65d2b98980b5775321cab96a,0.0274,0.0274,0,1,1,157,1,seveneight,,,,,,,,,,,,,,,,,,,,,,,,,,,,,,,,,,,,,,,,,,,,,,,,,,,,,,,,,,,,,,,,,,,,,,,,,,,,,,,,,,,,,,,,,,,,,,,,,,,,,,,,,,,,,,,,,,,,,,,,,,,,,,,,,,,,,,,,,
,,6169abd4e006adba4739143e,2024-02-18_20h15.03.409,kallum_motion_pilot,2023.2.2,Win32,60.24096386,6169abd4e006adba4739143e,65d2b6c8f2eece985d8e374c,65d2b98980b5775321cab96a,0.0275,0.0276,0,2,2,130,1,sixfive,,,,,,,,,,,,,,,,,,,,,,,,,,,,,,,,,,,,,,,,,,,,,,,,,,,,,,,,,,,,,,,,,,,,,,,,,,,,,,,,,,,,,,,,,,,,,,,,,,,,,,,,,,,,,,,,,,,,,,,,,,,,,,,,,,,,,,,,,
,,6169abd4e006adba4739143e,2024-02-18_20h15.03.409,kallum_motion_pilot,2023.2.2,Win32,60.24096386,6169abd4e006adba4739143e,65d2b6c8f2eece985d8e374c,65d2b98980b5775321cab96a,0.0276,0.0276,0,3,3,90,1,sixfive,,,,,,,,,,,,,,,,,,,,,,,,,,,,,,,,,,,,,,,,,,,,,,,,,,,,,,,,,,,,,,,,,,,,,,,,,,,,,,,,,,,,,,,,,,,,,,,,,,,,,,,,,,,,,,,,,,,,,,,,,,,,,,,,,,,,,,,,,
,,6169abd4e006adba4739143e,2024-02-18_20h15.03.409,kallum_motion_pilot,2023.2.2,Win32,60.24096386,6169abd4e006adba4739143e,65d2b6c8f2eece985d8e374c,65d2b98980b5775321cab96a,0.0277,0.0278,0,4,4,112,1,fivesix,,,,,,,,,,,,,,,,,,,,,,,,,,,,,,,,,,,,,,,,,,,,,,,,,,,,,,,,,,,,,,,,,,,,,,,,,,,,,,,,,,,,,,,,,,,,,,,,,,,,,,,,,,,,,,,,,,,,,,,,,,,,,,,,,,,,,,,,,
,,6169abd4e006adba4739143e,2024-02-18_20h15.03.409,kallum_motion_pilot,2023.2.2,Win32,60.24096386,6169abd4e006adba4739143e,65d2b6c8f2eece985d8e374c,65d2b98980b5775321cab96a,0.028,0.028,0,5,5,38,1,fourtwo,,,,,,,,,,,,,,,,,,,,,,,,,,,,,,,,,,,,,,,,,,,,,,,,,,,,,,,,,,,,,,,,,,,,,,,,,,,,,,,,,,,,,,,,,,,,,,,,,,,,,,,,,,,,,,,,,,,,,,,,,,,,,,,,,,,,,,,,,
,,6169abd4e006adba4739143e,2024-02-18_20h15.03.409,kallum_motion_pilot,2023.2.2,Win32,60.24096386,6169abd4e006adba4739143e,65d2b6c8f2eece985d8e374c,65d2b98980b5775321cab96a,0.028,0.028,0,6,6,65,1,onethree,,,,,,,,,,,,,,,,,,,,,,,,,,,,,,,,,,,,,,,,,,,,,,,,,,,,,,,,,,,,,,,,,,,,,,,,,,,,,,,,,,,,,,,,,,,,,,,,,,,,,,,,,,,,,,,,,,,,,,,,,,,,,,,,,,,,,,,,,
,,6169abd4e006adba4739143e,2024-02-18_20h15.03.409,kallum_motion_pilot,2023.2.2,Win32,60.24096386,6169abd4e006adba4739143e,65d2b6c8f2eece985d8e374c,65d2b98980b5775321cab96a,0.0281,0.0282,0,7,7,115,1,sixeight,,,,,,,,,,,,,,,,,,,,,,,,,,,,,,,,,,,,,,,,,,,,,,,,,,,,,,,,,,,,,,,,,,,,,,,,,,,,,,,,,,,,,,,,,,,,,,,,,,,,,,,,,,,,,,,,,,,,,,,,,,,,,,,,,,,,,,,,,
,,6169abd4e006adba4739143e,2024-02-18_20h15.03.409,kallum_motion_pilot,2023.2.2,Win32,60.24096386,6169abd4e006adba4739143e,65d2b6c8f2eece985d8e374c,65d2b98980b5775321cab96a,0.0282,0.0282,0,8,8,49,1,onethree,,,,,,,,,,,,,,,,,,,,,,,,,,,,,,,,,,,,,,,,,,,,,,,,,,,,,,,,,,,,,,,,,,,,,,,,,,,,,,,,,,,,,,,,,,,,,,,,,,,,,,,,,,,,,,,,,,,,,,,,,,,,,,,,,,,,,,,,,
,,6169abd4e006adba4739143e,2024-02-18_20h15.03.409,kallum_motion_pilot,2023.2.2,Win32,60.24096386,6169abd4e006adba4739143e,65d2b6c8f2eece985d8e374c,65d2b98980b5775321cab96a,0.0283,0.0284,0,9,9,56,1,onetwo,,,,,,,,,,,,,,,,,,,,,,,,,,,,,,,,,,,,,,,,,,,,,,,,,,,,,,,,,,,,,,,,,,,,,,,,,,,,,,,,,,,,,,,,,,,,,,,,,,,,,,,,,,,,,,,,,,,,,,,,,,,,,,,,,,,,,,,,,
,,6169abd4e006adba4739143e,2024-02-18_20h15.03.409,kallum_motion_pilot,2023.2.2,Win32,60.24096386,6169abd4e006adba4739143e,65d2b6c8f2eece985d8e374c,65d2b98980b5775321cab96a,0.0286,0.0287,0,10,10,121,1,fiveseven,,,,,,,,,,,,,,,,,,,,,,,,,,,,,,,,,,,,,,,,,,,,,,,,,,,,,,,,,,,,,,,,,,,,,,,,,,,,,,,,,,,,,,,,,,,,,,,,,,,,,,,,,,,,,,,,,,,,,,,,,,,,,,,,,,,,,,,,,
,,6169abd4e006adba4739143e,2024-02-18_20h15.03.409,kallum_motion_pilot,2023.2.2,Win32,60.24096386,6169abd4e006adba4739143e,65d2b6c8f2eece985d8e374c,65d2b98980b5775321cab96a,0.0289,0.0289,0,11,11,3,1,twofour,,,,,,,,,,,,,,,,,,,,,,,,,,,,,,,,,,,,,,,,,,,,,,,,,,,,,,,,,,,,,,,,,,,,,,,,,,,,,,,,,,,,,,,,,,,,,,,,,,,,,,,,,,,,,,,,,,,,,,,,,,,,,,,,,,,,,,,,,
,,6169abd4e006adba4739143e,2024-02-18_20h15.03.409,kallum_motion_pilot,2023.2.2,Win32,60.24096386,6169abd4e006adba4739143e,65d2b6c8f2eece985d8e374c,65d2b98980b5775321cab96a,0.029,0.0291,0,12,12,140,1,sevenfive,,,,,,,,,,,,,,,,,,,,,,,,,,,,,,,,,,,,,,,,,,,,,,,,,,,,,,,,,,,,,,,,,,,,,,,,,,,,,,,,,,,,,,,,,,,,,,,,,,,,,,,,,,,,,,,,,,,,,,,,,,,,,,,,,,,,,,,,,
,,6169abd4e006adba4739143e,2024-02-18_20h15.03.409,kallum_motion_pilot,2023.2.2,Win32,60.24096386,6169abd4e006adba4739143e,65d2b6c8f2eece985d8e374c,65d2b98980b5775321cab96a,0.0292,0.0292,0,13,13,75,1,twofour,,,,,,,,,,,,,,,,,,,,,,,,,,,,,,,,,,,,,,,,,,,,,,,,,,,,,,,,,,,,,,,,,,,,,,,,,,,,,,,,,,,,,,,,,,,,,,,,,,,,,,,,,,,,,,,,,,,,,,,,,,,,,,,,,,,,,,,,,
,,6169abd4e006adba4739143e,2024-02-18_20h15.03.409,kallum_motion_pilot,2023.2.2,Win32,60.24096386,6169abd4e006adba4739143e,65d2b6c8f2eece985d8e374c,65d2b98980b5775321cab96a,0.0293,0.0294,0,14,14,127,1,eightseven,,,,,,,,,,,,,,,,,,,,,,,,,,,,,,,,,,,,,,,,,,,,,,,,,,,,,,,,,,,,,,,,,,,,,,,,,,,,,,,,,,,,,,,,,,,,,,,,,,,,,,,,,,,,,,,,,,,,,,,,,,,,,,,,,,,,,,,,,
,,6169abd4e006adba4739143e,2024-02-18_20h15.03.409,kallum_motion_pilot,2023.2.2,Win32,60.24096386,6169abd4e006adba4739143e,65d2b6c8f2eece985d8e374c,65d2b98980b5775321cab96a,0.0295,0.0295,0,15,15,133,1,seveneight,,,,,,,,,,,,,,,,,,,,,,,,,,,,,,,,,,,,,,,,,,,,,,,,,,,,,,,,,,,,,,,,,,,,,,,,,,,,,,,,,,,,,,,,,,,,,,,,,,,,,,,,,,,,,,,,,,,,,,,,,,,,,,,,,,,,,,,,,
,,6169abd4e006adba4739143e,2024-02-18_20h15.03.409,kallum_motion_pilot,2023.2.2,Win32,60.24096386,6169abd4e006adba4739143e,65d2b6c8f2eece985d8e374c,65d2b98980b5775321cab96a,0.0296,0.0297,0,16,16,89,1,fiveseven,,,,,,,,,,,,,,,,,,,,,,,,,,,,,,,,,,,,,,,,,,,,,,,,,,,,,,,,,,,,,,,,,,,,,,,,,,,,,,,,,,,,,,,,,,,,,,,,,,,,,,,,,,,,,,,,,,,,,,,,,,,,,,,,,,,,,,,,,
,,6169abd4e006adba4739143e,2024-02-18_20h15.03.409,kallum_motion_pilot,2023.2.2,Win32,60.24096386,6169abd4e006adba4739143e,65d2b6c8f2eece985d8e374c,65d2b98980b5775321cab96a,0.0299,0.0299,0,17,17,124,1,sevenfive,,,,,,,,,,,,,,,,,,,,,,,,,,,,,,,,,,,,,,,,,,,,,,,,,,,,,,,,,,,,,,,,,,,,,,,,,,,,,,,,,,,,,,,,,,,,,,,,,,,,,,,,,,,,,,,,,,,,,,,,,,,,,,,,,,,,,,,,,
,,6169abd4e006adba4739143e,2024-02-18_20h15.03.409,kallum_motion_pilot,2023.2.2,Win32,60.24096386,6169abd4e006adba4739143e,65d2b6c8f2eece985d8e374c,65d2b98980b5775321cab96a,0.0299,0.03,0,18,18,98,1,sixfive,,,,,,,,,,,,,,,,,,,,,,,,,,,,,,,,,,,,,,,,,,,,,,,,,,,,,,,,,,,,,,,,,,,,,,,,,,,,,,,,,,,,,,,,,,,,,,,,,,,,,,,,,,,,,,,,,,,,,,,,,,,,,,,,,,,,,,,,,
,,6169abd4e006adba4739143e,2024-02-18_20h15.03.409,kallum_motion_pilot,2023.2.2,Win32,60.24096386,6169abd4e006adba4739143e,65d2b6c8f2eece985d8e374c,65d2b98980b5775321cab96a,0.03,0.0302,0,19,19,36,1,threeone,,,,,,,,,,,,,,,,,,,,,,,,,,,,,,,,,,,,,,,,,,,,,,,,,,,,,,,,,,,,,,,,,,,,,,,,,,,,,,,,,,,,,,,,,,,,,,,,,,,,,,,,,,,,,,,,,,,,,,,,,,,,,,,,,,,,,,,,,
,,6169abd4e006adba4739143e,2024-02-18_20h15.03.409,kallum_motion_pilot,2023.2.2,Win32,60.24096386,6169abd4e006adba4739143e,65d2b6c8f2eece985d8e374c,65d2b98980b5775321cab96a,0.0302,0.0303,0,20,20,59,1,twofour,,,,,,,,,,,,,,,,,,,,,,,,,,,,,,,,,,,,,,,,,,,,,,,,,,,,,,,,,,,,,,,,,,,,,,,,,,,,,,,,,,,,,,,,,,,,,,,,,,,,,,,,,,,,,,,,,,,,,,,,,,,,,,,,,,,,,,,,,
,,6169abd4e006adba4739143e,2024-02-18_20h15.03.409,kallum_motion_pilot,2023.2.2,Win32,60.24096386,6169abd4e006adba4739143e,65d2b6c8f2eece985d8e374c,65d2b98980b5775321cab96a,0.0303,0.0303,0,21,21,10,1,twoone,,,,,,,,,,,,,,,,,,,,,,,,,,,,,,,,,,,,,,,,,,,,,,,,,,,,,,,,,,,,,,,,,,,,,,,,,,,,,,,,,,,,,,,,,,,,,,,,,,,,,,,,,,,,,,,,,,,,,,,,,,,,,,,,,,,,,,,,,
,,6169abd4e006adba4739143e,2024-02-18_20h15.03.409,kallum_motion_pilot,2023.2.2,Win32,60.24096386,6169abd4e006adba4739143e,65d2b6c8f2eece985d8e374c,65d2b98980b5775321cab96a,0.0304,0.0304,0,22,22,125,1,seveneight,,,,,,,,,,,,,,,,,,,,,,,,,,,,,,,,,,,,,,,,,,,,,,,,,,,,,,,,,,,,,,,,,,,,,,,,,,,,,,,,,,,,,,,,,,,,,,,,,,,,,,,,,,,,,,,,,,,,,,,,,,,,,,,,,,,,,,,,,
,,6169abd4e006adba4739143e,2024-02-18_20h15.03.409,kallum_motion_pilot,2023.2.2,Win32,60.24096386,6169abd4e006adba4739143e,65d2b6c8f2eece985d8e374c,65d2b98980b5775321cab96a,0.0305,0.0305,0,23,23,132,1,sevenfive,,,,,,,,,,,,,,,,,,,,,,,,,,,,,,,,,,,,,,,,,,,,,,,,,,,,,,,,,,,,,,,,,,,,,,,,,,,,,,,,,,,,,,,,,,,,,,,,,,,,,,,,,,,,,,,,,,,,,,,,,,,,,,,,,,,,,,,,,
,,6169abd4e006adba4739143e,2024-02-18_20h15.03.409,kallum_motion_pilot,2023.2.2,Win32,60.24096386,6169abd4e006adba4739143e,65d2b6c8f2eece985d8e374c,65d2b98980b5775321cab96a,0.0306,0.0307,0,24,24,104,1,fivesix,,,,,,,,,,,,,,,,,,,,,,,,,,,,,,,,,,,,,,,,,,,,,,,,,,,,,,,,,,,,,,,,,,,,,,,,,,,,,,,,,,,,,,,,,,,,,,,,,,,,,,,,,,,,,,,,,,,,,,,,,,,,,,,,,,,,,,,,,
,,6169abd4e006adba4739143e,2024-02-18_20h15.03.409,kallum_motion_pilot,2023.2.2,Win32,60.24096386,6169abd4e006adba4739143e,65d2b6c8f2eece985d8e374c,65d2b98980b5775321cab96a,0.0308,0.0309,0,25,25,159,1,eightseven,,,,,,,,,,,,,,,,,,,,,,,,,,,,,,,,,,,,,,,,,,,,,,,,,,,,,,,,,,,,,,,,,,,,,,,,,,,,,,,,,,,,,,,,,,,,,,,,,,,,,,,,,,,,,,,,,,,,,,,,,,,,,,,,,,,,,,,,,
,,6169abd4e006adba4739143e,2024-02-18_20h15.03.409,kallum_motion_pilot,2023.2.2,Win32,60.24096386,6169abd4e006adba4739143e,65d2b6c8f2eece985d8e374c,65d2b98980b5775321cab96a,0.031,0.031,0,26,26,18,1,twoone,,,,,,,,,,,,,,,,,,,,,,,,,,,,,,,,,,,,,,,,,,,,,,,,,,,,,,,,,,,,,,,,,,,,,,,,,,,,,,,,,,,,,,,,,,,,,,,,,,,,,,,,,,,,,,,,,,,,,,,,,,,,,,,,,,,,,,,,,
,,6169abd4e006adba4739143e,2024-02-18_20h15.03.409,kallum_motion_pilot,2023.2.2,Win32,60.24096386,6169abd4e006adba4739143e,65d2b6c8f2eece985d8e374c,65d2b98980b5775321cab96a,0.0312,0.0313,0,27,27,91,1,sixeight,,,,,,,,,,,,,,,,,,,,,,,,,,,,,,,,,,,,,,,,,,,,,,,,,,,,,,,,,,,,,,,,,,,,,,,,,,,,,,,,,,,,,,,,,,,,,,,,,,,,,,,,,,,,,,,,,,,,,,,,,,,,,,,,,,,,,,,,,
,,6169abd4e006adba4739143e,2024-02-18_20h15.03.409,kallum_motion_pilot,2023.2.2,Win32,60.24096386,6169abd4e006adba4739143e,65d2b6c8f2eece985d8e374c,65d2b98980b5775321cab96a,0.0314,0.0314,0,28,28,118,1,eightsix,,,,,,,,,,,,,,,,,,,,,,,,,,,,,,,,,,,,,,,,,,,,,,,,,,,,,,,,,,,,,,,,,,,,,,,,,,,,,,,,,,,,,,,,,,,,,,,,,,,,,,,,,,,,,,,,,,,,,,,,,,,,,,,,,,,,,,,,,
,,6169abd4e006adba4739143e,2024-02-18_20h15.03.409,kallum_motion_pilot,2023.2.2,Win32,60.24096386,6169abd4e006adba4739143e,65d2b6c8f2eece985d8e374c,65d2b98980b5775321cab96a,0.0314,0.0314,0,29,29,34,1,twoone,,,,,,,,,,,,,,,,,,,,,,,,,,,,,,,,,,,,,,,,,,,,,,,,,,,,,,,,,,,,,,,,,,,,,,,,,,,,,,,,,,,,,,,,,,,,,,,,,,,,,,,,,,,,,,,,,,,,,,,,,,,,,,,,,,,,,,,,,
,,6169abd4e006adba4739143e,2024-02-18_20h15.03.409,kallum_motion_pilot,2023.2.2,Win32,60.24096386,6169abd4e006adba4739143e,65d2b6c8f2eece985d8e374c,65d2b98980b5775321cab96a,0.0316,0.0316,0,30,30,153,1,fiveseven,,,,,,,,,,,,,,,,,,,,,,,,,,,,,,,,,,,,,,,,,,,,,,,,,,,,,,,,,,,,,,,,,,,,,,,,,,,,,,,,,,,,,,,,,,,,,,,,,,,,,,,,,,,,,,,,,,,,,,,,,,,,,,,,,,,,,,,,,
,,6169abd4e006adba4739143e,2024-02-18_20h15.03.409,kallum_motion_pilot,2023.2.2,Win32,60.24096386,6169abd4e006adba4739143e,65d2b6c8f2eece985d8e374c,65d2b98980b5775321cab96a,0.0317,0.0318,0,31,31,41,1,onethree,,,,,,,,,,,,,,,,,,,,,,,,,,,,,,,,,,,,,,,,,,,,,,,,,,,,,,,,,,,,,,,,,,,,,,,,,,,,,,,,,,,,,,,,,,,,,,,,,,,,,,,,,,,,,,,,,,,,,,,,,,,,,,,,,,,,,,,,,
,,6169abd4e006adba4739143e,2024-02-18_20h15.03.409,kallum_motion_pilot,2023.2.2,Win32,60.24096386,6169abd4e006adba4739143e,65d2b6c8f2eece985d8e374c,65d2b98980b5775321cab96a,0.0319,0.0319,0,32,32,108,1,sevenfive,,,,,,,,,,,,,,,,,,,,,,,,,,,,,,,,,,,,,,,,,,,,,,,,,,,,,,,,,,,,,,,,,,,,,,,,,,,,,,,,,,,,,,,,,,,,,,,,,,,,,,,,,,,,,,,,,,,,,,,,,,,,,,,,,,,,,,,,,
,,6169abd4e006adba4739143e,2024-02-18_20h15.03.409,kallum_motion_pilot,2023.2.2,Win32,60.24096386,6169abd4e006adba4739143e,65d2b6c8f2eece985d8e374c,65d2b98980b5775321cab96a,0.032,0.032,0,33,33,8,1,onetwo,,,,,,,,,,,,,,,,,,,,,,,,,,,,,,,,,,,,,,,,,,,,,,,,,,,,,,,,,,,,,,,,,,,,,,,,,,,,,,,,,,,,,,,,,,,,,,,,,,,,,,,,,,,,,,,,,,,,,,,,,,,,,,,,,,,,,,,,,
,,6169abd4e006adba4739143e,2024-02-18_20h15.03.409,kallum_motion_pilot,2023.2.2,Win32,60.24096386,6169abd4e006adba4739143e,65d2b6c8f2eece985d8e374c,65d2b98980b5775321cab96a,0.032,0.0321,0,34,34,32,1,onetwo,,,,,,,,,,,,,,,,,,,,,,,,,,,,,,,,,,,,,,,,,,,,,,,,,,,,,,,,,,,,,,,,,,,,,,,,,,,,,,,,,,,,,,,,,,,,,,,,,,,,,,,,,,,,,,,,,,,,,,,,,,,,,,,,,,,,,,,,,
,,6169abd4e006adba4739143e,2024-02-18_20h15.03.409,kallum_motion_pilot,2023.2.2,Win32,60.24096386,6169abd4e006adba4739143e,65d2b6c8f2eece985d8e374c,65d2b98980b5775321cab96a,0.0321,0.0322,0,35,35,88,1,fivesix,,,,,,,,,,,,,,,,,,,,,,,,,,,,,,,,,,,,,,,,,,,,,,,,,,,,,,,,,,,,,,,,,,,,,,,,,,,,,,,,,,,,,,,,,,,,,,,,,,,,,,,,,,,,,,,,,,,,,,,,,,,,,,,,,,,,,,,,,
,,6169abd4e006adba4739143e,2024-02-18_20h15.03.409,kallum_motion_pilot,2023.2.2,Win32,60.24096386,6169abd4e006adba4739143e,65d2b6c8f2eece985d8e374c,65d2b98980b5775321cab96a,0.0323,0.0324,0,36,36,139,1,sixeight,,,,,,,,,,,,,,,,,,,,,,,,,,,,,,,,,,,,,,,,,,,,,,,,,,,,,,,,,,,,,,,,,,,,,,,,,,,,,,,,,,,,,,,,,,,,,,,,,,,,,,,,,,,,,,,,,,,,,,,,,,,,,,,,,,,,,,,,,
,,6169abd4e006adba4739143e,2024-02-18_20h15.03.409,kallum_motion_pilot,2023.2.2,Win32,60.24096386,6169abd4e006adba4739143e,65d2b6c8f2eece985d8e374c,65d2b98980b5775321cab96a,0.0324,0.0324,0,37,37,0,1,onetwo,,,,,,,,,,,,,,,,,,,,,,,,,,,,,,,,,,,,,,,,,,,,,,,,,,,,,,,,,,,,,,,,,,,,,,,,,,,,,,,,,,,,,,,,,,,,,,,,,,,,,,,,,,,,,,,,,,,,,,,,,,,,,,,,,,,,,,,,,
,,6169abd4e006adba4739143e,2024-02-18_20h15.03.409,kallum_motion_pilot,2023.2.2,Win32,60.24096386,6169abd4e006adba4739143e,65d2b6c8f2eece985d8e374c,65d2b98980b5775321cab96a,0.0324,0.0325,0,38,38,74,1,twoone,,,,,,,,,,,,,,,,,,,,,,,,,,,,,,,,,,,,,,,,,,,,,,,,,,,,,,,,,,,,,,,,,,,,,,,,,,,,,,,,,,,,,,,,,,,,,,,,,,,,,,,,,,,,,,,,,,,,,,,,,,,,,,,,,,,,,,,,,
,,6169abd4e006adba4739143e,2024-02-18_20h15.03.409,kallum_motion_pilot,2023.2.2,Win32,60.24096386,6169abd4e006adba4739143e,65d2b6c8f2eece985d8e374c,65d2b98980b5775321cab96a,0.0325,0.0326,0,39,39,71,1,fourthree,,,,,,,,,,,,,,,,,,,,,,,,,,,,,,,,,,,,,,,,,,,,,,,,,,,,,,,,,,,,,,,,,,,,,,,,,,,,,,,,,,,,,,,,,,,,,,,,,,,,,,,,,,,,,,,,,,,,,,,,,,,,,,,,,,,,,,,,,
,,6169abd4e006adba4739143e,2024-02-18_20h15.03.409,kallum_motion_pilot,2023.2.2,Win32,60.24096386,6169abd4e006adba4739143e,65d2b6c8f2eece985d8e374c,65d2b98980b5775321cab96a,0.0327,0.0327,0,40,40,81,1,fiveseven,,,,,,,,,,,,,,,,,,,,,,,,,,,,,,,,,,,,,,,,,,,,,,,,,,,,,,,,,,,,,,,,,,,,,,,,,,,,,,,,,,,,,,,,,,,,,,,,,,,,,,,,,,,,,,,,,,,,,,,,,,,,,,,,,,,,,,,,,
,,6169abd4e006adba4739143e,2024-02-18_20h15.03.409,kallum_motion_pilot,2023.2.2,Win32,60.24096386,6169abd4e006adba4739143e,65d2b6c8f2eece985d8e374c,65d2b98980b5775321cab96a,0.0328,0.0328,0,41,41,55,1,fourthree,,,,,,,,,,,,,,,,,,,,,,,,,,,,,,,,,,,,,,,,,,,,,,,,,,,,,,,,,,,,,,,,,,,,,,,,,,,,,,,,,,,,,,,,,,,,,,,,,,,,,,,,,,,,,,,,,,,,,,,,,,,,,,,,,,,,,,,,,
,,6169abd4e006adba4739143e,2024-02-18_20h15.03.409,kallum_motion_pilot,2023.2.2,Win32,60.24096386,6169abd4e006adba4739143e,65d2b6c8f2eece985d8e374c,65d2b98980b5775321cab96a,0.0328,0.0328,0,42,42,142,1,eightsix,,,,,,,,,,,,,,,,,,,,,,,,,,,,,,,,,,,,,,,,,,,,,,,,,,,,,,,,,,,,,,,,,,,,,,,,,,,,,,,,,,,,,,,,,,,,,,,,,,,,,,,,,,,,,,,,,,,,,,,,,,,,,,,,,,,,,,,,,
,,6169abd4e006adba4739143e,2024-02-18_20h15.03.409,kallum_motion_pilot,2023.2.2,Win32,60.24096386,6169abd4e006adba4739143e,65d2b6c8f2eece985d8e374c,65d2b98980b5775321cab96a,0.033,0.033,0,43,43,134,1,eightsix,,,,,,,,,,,,,,,,,,,,,,,,,,,,,,,,,,,,,,,,,,,,,,,,,,,,,,,,,,,,,,,,,,,,,,,,,,,,,,,,,,,,,,,,,,,,,,,,,,,,,,,,,,,,,,,,,,,,,,,,,,,,,,,,,,,,,,,,,
,,6169abd4e006adba4739143e,2024-02-18_20h15.03.409,kallum_motion_pilot,2023.2.2,Win32,60.24096386,6169abd4e006adba4739143e,65d2b6c8f2eece985d8e374c,65d2b98980b5775321cab96a,0.033,0.033,0,44,44,29,1,threefour,,,,,,,,,,,,,,,,,,,,,,,,,,,,,,,,,,,,,,,,,,,,,,,,,,,,,,,,,,,,,,,,,,,,,,,,,,,,,,,,,,,,,,,,,,,,,,,,,,,,,,,,,,,,,,,,,,,,,,,,,,,,,,,,,,,,,,,,,
,,6169abd4e006adba4739143e,2024-02-18_20h15.03.409,kallum_motion_pilot,2023.2.2,Win32,60.24096386,6169abd4e006adba4739143e,65d2b6c8f2eece985d8e374c,65d2b98980b5775321cab96a,0.0332,0.0332,0,45,45,138,1,sixfive,,,,,,,,,,,,,,,,,,,,,,,,,,,,,,,,,,,,,,,,,,,,,,,,,,,,,,,,,,,,,,,,,,,,,,,,,,,,,,,,,,,,,,,,,,,,,,,,,,,,,,,,,,,,,,,,,,,,,,,,,,,,,,,,,,,,,,,,,
,,6169abd4e006adba4739143e,2024-02-18_20h15.03.409,kallum_motion_pilot,2023.2.2,Win32,60.24096386,6169abd4e006adba4739143e,65d2b6c8f2eece985d8e374c,65d2b98980b5775321cab96a,0.0332,0.0332,0,46,46,6,1,fourtwo,,,,,,,,,,,,,,,,,,,,,,,,,,,,,,,,,,,,,,,,,,,,,,,,,,,,,,,,,,,,,,,,,,,,,,,,,,,,,,,,,,,,,,,,,,,,,,,,,,,,,,,,,,,,,,,,,,,,,,,,,,,,,,,,,,,,,,,,,
,,6169abd4e006adba4739143e,2024-02-18_20h15.03.409,kallum_motion_pilot,2023.2.2,Win32,60.24096386,6169abd4e006adba4739143e,65d2b6c8f2eece985d8e374c,65d2b98980b5775321cab96a,0.0333,0.0333,0,47,47,19,1,twofour,,,,,,,,,,,,,,,,,,,,,,,,,,,,,,,,,,,,,,,,,,,,,,,,,,,,,,,,,,,,,,,,,,,,,,,,,,,,,,,,,,,,,,,,,,,,,,,,,,,,,,,,,,,,,,,,,,,,,,,,,,,,,,,,,,,,,,,,,
,,6169abd4e006adba4739143e,2024-02-18_20h15.03.409,kallum_motion_pilot,2023.2.2,Win32,60.24096386,6169abd4e006adba4739143e,65d2b6c8f2eece985d8e374c,65d2b98980b5775321cab96a,0.0334,0.0335,0,48,48,22,1,fourtwo,,,,,,,,,,,,,,,,,,,,,,,,,,,,,,,,,,,,,,,,,,,,,,,,,,,,,,,,,,,,,,,,,,,,,,,,,,,,,,,,,,,,,,,,,,,,,,,,,,,,,,,,,,,,,,,,,,,,,,,,,,,,,,,,,,,,,,,,,
,,6169abd4e006adba4739143e,2024-02-18_20h15.03.409,kallum_motion_pilot,2023.2.2,Win32,60.24096386,6169abd4e006adba4739143e,65d2b6c8f2eece985d8e374c,65d2b98980b5775321cab96a,0.0335,0.0335,0,49,49,150,1,eightsix,,,,,,,,,,,,,,,,,,,,,,,,,,,,,,,,,,,,,,,,,,,,,,,,,,,,,,,,,,,,,,,,,,,,,,,,,,,,,,,,,,,,,,,,,,,,,,,,,,,,,,,,,,,,,,,,,,,,,,,,,,,,,,,,,,,,,,,,,
,,6169abd4e006adba4739143e,2024-02-18_20h15.03.409,kallum_motion_pilot,2023.2.2,Win32,60.24096386,6169abd4e006adba4739143e,65d2b6c8f2eece985d8e374c,65d2b98980b5775321cab96a,0.0335,0.0336,0,50,50,154,1,sixfive,,,,,,,,,,,,,,,,,,,,,,,,,,,,,,,,,,,,,,,,,,,,,,,,,,,,,,,,,,,,,,,,,,,,,,,,,,,,,,,,,,,,,,,,,,,,,,,,,,,,,,,,,,,,,,,,,,,,,,,,,,,,,,,,,,,,,,,,,
,,6169abd4e006adba4739143e,2024-02-18_20h15.03.409,kallum_motion_pilot,2023.2.2,Win32,60.24096386,6169abd4e006adba4739143e,65d2b6c8f2eece985d8e374c,65d2b98980b5775321cab96a,0.0337,0.0337,0,51,51,28,1,threeone,,,,,,,,,,,,,,,,,,,,,,,,,,,,,,,,,,,,,,,,,,,,,,,,,,,,,,,,,,,,,,,,,,,,,,,,,,,,,,,,,,,,,,,,,,,,,,,,,,,,,,,,,,,,,,,,,,,,,,,,,,,,,,,,,,,,,,,,,
,,6169abd4e006adba4739143e,2024-02-18_20h15.03.409,kallum_motion_pilot,2023.2.2,Win32,60.24096386,6169abd4e006adba4739143e,65d2b6c8f2eece985d8e374c,65d2b98980b5775321cab96a,0.0338,0.0338,0,52,52,158,1,eightsix,,,,,,,,,,,,,,,,,,,,,,,,,,,,,,,,,,,,,,,,,,,,,,,,,,,,,,,,,,,,,,,,,,,,,,,,,,,,,,,,,,,,,,,,,,,,,,,,,,,,,,,,,,,,,,,,,,,,,,,,,,,,,,,,,,,,,,,,,
,,6169abd4e006adba4739143e,2024-02-18_20h15.03.409,kallum_motion_pilot,2023.2.2,Win32,60.24096386,6169abd4e006adba4739143e,65d2b6c8f2eece985d8e374c,65d2b98980b5775321cab96a,0.0338,0.0338,0,53,53,37,1,threefour,,,,,,,,,,,,,,,,,,,,,,,,,,,,,,,,,,,,,,,,,,,,,,,,,,,,,,,,,,,,,,,,,,,,,,,,,,,,,,,,,,,,,,,,,,,,,,,,,,,,,,,,,,,,,,,,,,,,,,,,,,,,,,,,,,,,,,,,,
,,6169abd4e006adba4739143e,2024-02-18_20h15.03.409,kallum_motion_pilot,2023.2.2,Win32,60.24096386,6169abd4e006adba4739143e,65d2b6c8f2eece985d8e374c,65d2b98980b5775321cab96a,0.034,0.034,0,54,54,99,1,sixeight,,,,,,,,,,,,,,,,,,,,,,,,,,,,,,,,,,,,,,,,,,,,,,,,,,,,,,,,,,,,,,,,,,,,,,,,,,,,,,,,,,,,,,,,,,,,,,,,,,,,,,,,,,,,,,,,,,,,,,,,,,,,,,,,,,,,,,,,,
,,6169abd4e006adba4739143e,2024-02-18_20h15.03.409,kallum_motion_pilot,2023.2.2,Win32,60.24096386,6169abd4e006adba4739143e,65d2b6c8f2eece985d8e374c,65d2b98980b5775321cab96a,0.0341,0.0341,0,55,55,57,1,onethree,,,,,,,,,,,,,,,,,,,,,,,,,,,,,,,,,,,,,,,,,,,,,,,,,,,,,,,,,,,,,,,,,,,,,,,,,,,,,,,,,,,,,,,,,,,,,,,,,,,,,,,,,,,,,,,,,,,,,,,,,,,,,,,,,,,,,,,,,
,,6169abd4e006adba4739143e,2024-02-18_20h15.03.409,kallum_motion_pilot,2023.2.2,Win32,60.24096386,6169abd4e006adba4739143e,65d2b6c8f2eece985d8e374c,65d2b98980b5775321cab96a,0.0341,0.0341,0,56,56,87,1,eightseven,,,,,,,,,,,,,,,,,,,,,,,,,,,,,,,,,,,,,,,,,,,,,,,,,,,,,,,,,,,,,,,,,,,,,,,,,,,,,,,,,,,,,,,,,,,,,,,,,,,,,,,,,,,,,,,,,,,,,,,,,,,,,,,,,,,,,,,,,
,,6169abd4e006adba4739143e,2024-02-18_20h15.03.409,kallum_motion_pilot,2023.2.2,Win32,60.24096386,6169abd4e006adba4739143e,65d2b6c8f2eece985d8e374c,65d2b98980b5775321cab96a,0.0342,0.0343,0,57,57,46,1,fourtwo,,,,,,,,,,,,,,,,,,,,,,,,,,,,,,,,,,,,,,,,,,,,,,,,,,,,,,,,,,,,,,,,,,,,,,,,,,,,,,,,,,,,,,,,,,,,,,,,,,,,,,,,,,,,,,,,,,,,,,,,,,,,,,,,,,,,,,,,,
,,6169abd4e006adba4739143e,2024-02-18_20h15.03.409,kallum_motion_pilot,2023.2.2,Win32,60.24096386,6169abd4e006adba4739143e,65d2b6c8f2eece985d8e374c,65d2b98980b5775321cab96a,0.0343,0.0344,0,58,58,27,1,twofour,,,,,,,,,,,,,,,,,,,,,,,,,,,,,,,,,,,,,,,,,,,,,,,,,,,,,,,,,,,,,,,,,,,,,,,,,,,,,,,,,,,,,,,,,,,,,,,,,,,,,,,,,,,,,,,,,,,,,,,,,,,,,,,,,,,,,,,,,
,,6169abd4e006adba4739143e,2024-02-18_20h15.03.409,kallum_motion_pilot,2023.2.2,Win32,60.24096386,6169abd4e006adba4739143e,65d2b6c8f2eece985d8e374c,65d2b98980b5775321cab96a,0.0344,0.0345,0,59,59,147,1,sixeight,,,,,,,,,,,,,,,,,,,,,,,,,,,,,,,,,,,,,,,,,,,,,,,,,,,,,,,,,,,,,,,,,,,,,,,,,,,,,,,,,,,,,,,,,,,,,,,,,,,,,,,,,,,,,,,,,,,,,,,,,,,,,,,,,,,,,,,,,
,,6169abd4e006adba4739143e,2024-02-18_20h15.03.409,kallum_motion_pilot,2023.2.2,Win32,60.24096386,6169abd4e006adba4739143e,65d2b6c8f2eece985d8e374c,65d2b98980b5775321cab96a,0.0346,0.0346,0,60,60,50,1,twoone,,,,,,,,,,,,,,,,,,,,,,,,,,,,,,,,,,,,,,,,,,,,,,,,,,,,,,,,,,,,,,,,,,,,,,,,,,,,,,,,,,,,,,,,,,,,,,,,,,,,,,,,,,,,,,,,,,,,,,,,,,,,,,,,,,,,,,,,,
,,6169abd4e006adba4739143e,2024-02-18_20h15.03.409,kallum_motion_pilot,2023.2.2,Win32,60.24096386,6169abd4e006adba4739143e,65d2b6c8f2eece985d8e374c,65d2b98980b5775321cab96a,0.0346,0.0346,0,61,61,16,1,onetwo,,,,,,,,,,,,,,,,,,,,,,,,,,,,,,,,,,,,,,,,,,,,,,,,,,,,,,,,,,,,,,,,,,,,,,,,,,,,,,,,,,,,,,,,,,,,,,,,,,,,,,,,,,,,,,,,,,,,,,,,,,,,,,,,,,,,,,,,,
,,6169abd4e006adba4739143e,2024-02-18_20h15.03.409,kallum_motion_pilot,2023.2.2,Win32,60.24096386,6169abd4e006adba4739143e,65d2b6c8f2eece985d8e374c,65d2b98980b5775321cab96a,0.0347,0.0348,0,62,62,101,1,seveneight,,,,,,,,,,,,,,,,,,,,,,,,,,,,,,,,,,,,,,,,,,,,,,,,,,,,,,,,,,,,,,,,,,,,,,,,,,,,,,,,,,,,,,,,,,,,,,,,,,,,,,,,,,,,,,,,,,,,,,,,,,,,,,,,,,,,,,,,,
,,6169abd4e006adba4739143e,2024-02-18_20h15.03.409,kallum_motion_pilot,2023.2.2,Win32,60.24096386,6169abd4e006adba4739143e,65d2b6c8f2eece985d8e374c,65d2b98980b5775321cab96a,0.0349,0.0349,0,63,63,100,1,sevenfive,,,,,,,,,,,,,,,,,,,,,,,,,,,,,,,,,,,,,,,,,,,,,,,,,,,,,,,,,,,,,,,,,,,,,,,,,,,,,,,,,,,,,,,,,,,,,,,,,,,,,,,,,,,,,,,,,,,,,,,,,,,,,,,,,,,,,,,,,
,,6169abd4e006adba4739143e,2024-02-18_20h15.03.409,kallum_motion_pilot,2023.2.2,Win32,60.24096386,6169abd4e006adba4739143e,65d2b6c8f2eece985d8e374c,65d2b98980b5775321cab96a,0.035,0.035,0,64,64,149,1,seveneight,,,,,,,,,,,,,,,,,,,,,,,,,,,,,,,,,,,,,,,,,,,,,,,,,,,,,,,,,,,,,,,,,,,,,,,,,,,,,,,,,,,,,,,,,,,,,,,,,,,,,,,,,,,,,,,,,,,,,,,,,,,,,,,,,,,,,,,,,
,,6169abd4e006adba4739143e,2024-02-18_20h15.03.409,kallum_motion_pilot,2023.2.2,Win32,60.24096386,6169abd4e006adba4739143e,65d2b6c8f2eece985d8e374c,65d2b98980b5775321cab96a,0.035,0.0351,0,65,65,77,1,threefour,,,,,,,,,,,,,,,,,,,,,,,,,,,,,,,,,,,,,,,,,,,,,,,,,,,,,,,,,,,,,,,,,,,,,,,,,,,,,,,,,,,,,,,,,,,,,,,,,,,,,,,,,,,,,,,,,,,,,,,,,,,,,,,,,,,,,,,,,
,,6169abd4e006adba4739143e,2024-02-18_20h15.03.409,kallum_motion_pilot,2023.2.2,Win32,60.24096386,6169abd4e006adba4739143e,65d2b6c8f2eece985d8e374c,65d2b98980b5775321cab96a,0.0352,0.0352,0,66,66,48,1,onetwo,,,,,,,,,,,,,,,,,,,,,,,,,,,,,,,,,,,,,,,,,,,,,,,,,,,,,,,,,,,,,,,,,,,,,,,,,,,,,,,,,,,,,,,,,,,,,,,,,,,,,,,,,,,,,,,,,,,,,,,,,,,,,,,,,,,,,,,,,
,,6169abd4e006adba4739143e,2024-02-18_20h15.03.409,kallum_motion_pilot,2023.2.2,Win32,60.24096386,6169abd4e006adba4739143e,65d2b6c8f2eece985d8e374c,65d2b98980b5775321cab96a,0.0353,0.0354,0,67,67,78,1,fourtwo,,,,,,,,,,,,,,,,,,,,,,,,,,,,,,,,,,,,,,,,,,,,,,,,,,,,,,,,,,,,,,,,,,,,,,,,,,,,,,,,,,,,,,,,,,,,,,,,,,,,,,,,,,,,,,,,,,,,,,,,,,,,,,,,,,,,,,,,,
,,6169abd4e006adba4739143e,2024-02-18_20h15.03.409,kallum_motion_pilot,2023.2.2,Win32,60.24096386,6169abd4e006adba4739143e,65d2b6c8f2eece985d8e374c,65d2b98980b5775321cab96a,0.0354,0.0355,0,68,68,2,1,twoone,,,,,,,,,,,,,,,,,,,,,,,,,,,,,,,,,,,,,,,,,,,,,,,,,,,,,,,,,,,,,,,,,,,,,,,,,,,,,,,,,,,,,,,,,,,,,,,,,,,,,,,,,,,,,,,,,,,,,,,,,,,,,,,,,,,,,,,,,
,,6169abd4e006adba4739143e,2024-02-18_20h15.03.409,kallum_motion_pilot,2023.2.2,Win32,60.24096386,6169abd4e006adba4739143e,65d2b6c8f2eece985d8e374c,65d2b98980b5775321cab96a,0.0355,0.0355,0,69,69,52,1,threeone,,,,,,,,,,,,,,,,,,,,,,,,,,,,,,,,,,,,,,,,,,,,,,,,,,,,,,,,,,,,,,,,,,,,,,,,,,,,,,,,,,,,,,,,,,,,,,,,,,,,,,,,,,,,,,,,,,,,,,,,,,,,,,,,,,,,,,,,,
,,6169abd4e006adba4739143e,2024-02-18_20h15.03.409,kallum_motion_pilot,2023.2.2,Win32,60.24096386,6169abd4e006adba4739143e,65d2b6c8f2eece985d8e374c,65d2b98980b5775321cab96a,0.0357,0.0357,0,70,70,42,1,twoone,,,,,,,,,,,,,,,,,,,,,,,,,,,,,,,,,,,,,,,,,,,,,,,,,,,,,,,,,,,,,,,,,,,,,,,,,,,,,,,,,,,,,,,,,,,,,,,,,,,,,,,,,,,,,,,,,,,,,,,,,,,,,,,,,,,,,,,,,
,,6169abd4e006adba4739143e,2024-02-18_20h15.03.409,kallum_motion_pilot,2023.2.2,Win32,60.24096386,6169abd4e006adba4739143e,65d2b6c8f2eece985d8e374c,65d2b98980b5775321cab96a,0.0357,0.0358,0,71,71,20,1,threeone,,,,,,,,,,,,,,,,,,,,,,,,,,,,,,,,,,,,,,,,,,,,,,,,,,,,,,,,,,,,,,,,,,,,,,,,,,,,,,,,,,,,,,,,,,,,,,,,,,,,,,,,,,,,,,,,,,,,,,,,,,,,,,,,,,,,,,,,,
,,6169abd4e006adba4739143e,2024-02-18_20h15.03.409,kallum_motion_pilot,2023.2.2,Win32,60.24096386,6169abd4e006adba4739143e,65d2b6c8f2eece985d8e374c,65d2b98980b5775321cab96a,0.0359,0.0359,0,72,72,156,1,sevenfive,,,,,,,,,,,,,,,,,,,,,,,,,,,,,,,,,,,,,,,,,,,,,,,,,,,,,,,,,,,,,,,,,,,,,,,,,,,,,,,,,,,,,,,,,,,,,,,,,,,,,,,,,,,,,,,,,,,,,,,,,,,,,,,,,,,,,,,,,
,,6169abd4e006adba4739143e,2024-02-18_20h15.03.409,kallum_motion_pilot,2023.2.2,Win32,60.24096386,6169abd4e006adba4739143e,65d2b6c8f2eece985d8e374c,65d2b98980b5775321cab96a,0.036,0.0361,0,73,73,161,1,fiveseven,,,,,,,,,,,,,,,,,,,,,,,,,,,,,,,,,,,,,,,,,,,,,,,,,,,,,,,,,,,,,,,,,,,,,,,,,,,,,,,,,,,,,,,,,,,,,,,,,,,,,,,,,,,,,,,,,,,,,,,,,,,,,,,,,,,,,,,,,
,,6169abd4e006adba4739143e,2024-02-18_20h15.03.409,kallum_motion_pilot,2023.2.2,Win32,60.24096386,6169abd4e006adba4739143e,65d2b6c8f2eece985d8e374c,65d2b98980b5775321cab96a,0.0362,0.0362,0,74,74,141,1,seveneight,,,,,,,,,,,,,,,,,,,,,,,,,,,,,,,,,,,,,,,,,,,,,,,,,,,,,,,,,,,,,,,,,,,,,,,,,,,,,,,,,,,,,,,,,,,,,,,,,,,,,,,,,,,,,,,,,,,,,,,,,,,,,,,,,,,,,,,,,
,,6169abd4e006adba4739143e,2024-02-18_20h15.03.409,kallum_motion_pilot,2023.2.2,Win32,60.24096386,6169abd4e006adba4739143e,65d2b6c8f2eece985d8e374c,65d2b98980b5775321cab96a,0.0362,0.0363,0,75,75,105,1,fiveseven,,,,,,,,,,,,,,,,,,,,,,,,,,,,,,,,,,,,,,,,,,,,,,,,,,,,,,,,,,,,,,,,,,,,,,,,,,,,,,,,,,,,,,,,,,,,,,,,,,,,,,,,,,,,,,,,,,,,,,,,,,,,,,,,,,,,,,,,,
,,6169abd4e006adba4739143e,2024-02-18_20h15.03.409,kallum_motion_pilot,2023.2.2,Win32,60.24096386,6169abd4e006adba4739143e,65d2b6c8f2eece985d8e374c,65d2b98980b5775321cab96a,0.0364,0.0364,0,76,76,83,1,sixeight,,,,,,,,,,,,,,,,,,,,,,,,,,,,,,,,,,,,,,,,,,,,,,,,,,,,,,,,,,,,,,,,,,,,,,,,,,,,,,,,,,,,,,,,,,,,,,,,,,,,,,,,,,,,,,,,,,,,,,,,,,,,,,,,,,,,,,,,,
,,6169abd4e006adba4739143e,2024-02-18_20h15.03.409,kallum_motion_pilot,2023.2.2,Win32,60.24096386,6169abd4e006adba4739143e,65d2b6c8f2eece985d8e374c,65d2b98980b5775321cab96a,0.0365,0.0365,0,77,77,30,1,fourtwo,,,,,,,,,,,,,,,,,,,,,,,,,,,,,,,,,,,,,,,,,,,,,,,,,,,,,,,,,,,,,,,,,,,,,,,,,,,,,,,,,,,,,,,,,,,,,,,,,,,,,,,,,,,,,,,,,,,,,,,,,,,,,,,,,,,,,,,,,
,,6169abd4e006adba4739143e,2024-02-18_20h15.03.409,kallum_motion_pilot,2023.2.2,Win32,60.24096386,6169abd4e006adba4739143e,65d2b6c8f2eece985d8e374c,65d2b98980b5775321cab96a,0.0367,0.0367,0,78,78,129,1,fiveseven,,,,,,,,,,,,,,,,,,,,,,,,,,,,,,,,,,,,,,,,,,,,,,,,,,,,,,,,,,,,,,,,,,,,,,,,,,,,,,,,,,,,,,,,,,,,,,,,,,,,,,,,,,,,,,,,,,,,,,,,,,,,,,,,,,,,,,,,,
,,6169abd4e006adba4739143e,2024-02-18_20h15.03.409,kallum_motion_pilot,2023.2.2,Win32,60.24096386,6169abd4e006adba4739143e,65d2b6c8f2eece985d8e374c,65d2b98980b5775321cab96a,0.0368,0.0368,0,79,79,60,1,threeone,,,,,,,,,,,,,,,,,,,,,,,,,,,,,,,,,,,,,,,,,,,,,,,,,,,,,,,,,,,,,,,,,,,,,,,,,,,,,,,,,,,,,,,,,,,,,,,,,,,,,,,,,,,,,,,,,,,,,,,,,,,,,,,,,,,,,,,,,
,,6169abd4e006adba4739143e,2024-02-18_20h15.03.409,kallum_motion_pilot,2023.2.2,Win32,60.24096386,6169abd4e006adba4739143e,65d2b6c8f2eece985d8e374c,65d2b98980b5775321cab96a,0.0369,0.0369,0,80,80,110,1,eightsix,,,,,,,,,,,,,,,,,,,,,,,,,,,,,,,,,,,,,,,,,,,,,,,,,,,,,,,,,,,,,,,,,,,,,,,,,,,,,,,,,,,,,,,,,,,,,,,,,,,,,,,,,,,,,,,,,,,,,,,,,,,,,,,,,,,,,,,,,
,,6169abd4e006adba4739143e,2024-02-18_20h15.03.409,kallum_motion_pilot,2023.2.2,Win32,60.24096386,6169abd4e006adba4739143e,65d2b6c8f2eece985d8e374c,65d2b98980b5775321cab96a,0.0369,0.037,0,81,81,93,1,seveneight,,,,,,,,,,,,,,,,,,,,,,,,,,,,,,,,,,,,,,,,,,,,,,,,,,,,,,,,,,,,,,,,,,,,,,,,,,,,,,,,,,,,,,,,,,,,,,,,,,,,,,,,,,,,,,,,,,,,,,,,,,,,,,,,,,,,,,,,,
,,6169abd4e006adba4739143e,2024-02-18_20h15.03.409,kallum_motion_pilot,2023.2.2,Win32,60.24096386,6169abd4e006adba4739143e,65d2b6c8f2eece985d8e374c,65d2b98980b5775321cab96a,0.0371,0.0371,0,82,82,128,1,fivesix,,,,,,,,,,,,,,,,,,,,,,,,,,,,,,,,,,,,,,,,,,,,,,,,,,,,,,,,,,,,,,,,,,,,,,,,,,,,,,,,,,,,,,,,,,,,,,,,,,,,,,,,,,,,,,,,,,,,,,,,,,,,,,,,,,,,,,,,,
,,6169abd4e006adba4739143e,2024-02-18_20h15.03.409,kallum_motion_pilot,2023.2.2,Win32,60.24096386,6169abd4e006adba4739143e,65d2b6c8f2eece985d8e374c,65d2b98980b5775321cab96a,0.0371,0.0372,0,83,83,95,1,eightseven,,,,,,,,,,,,,,,,,,,,,,,,,,,,,,,,,,,,,,,,,,,,,,,,,,,,,,,,,,,,,,,,,,,,,,,,,,,,,,,,,,,,,,,,,,,,,,,,,,,,,,,,,,,,,,,,,,,,,,,,,,,,,,,,,,,,,,,,,
,,6169abd4e006adba4739143e,2024-02-18_20h15.03.409,kallum_motion_pilot,2023.2.2,Win32,60.24096386,6169abd4e006adba4739143e,65d2b6c8f2eece985d8e374c,65d2b98980b5775321cab96a,0.0373,0.0373,0,84,84,67,1,twofour,,,,,,,,,,,,,,,,,,,,,,,,,,,,,,,,,,,,,,,,,,,,,,,,,,,,,,,,,,,,,,,,,,,,,,,,,,,,,,,,,,,,,,,,,,,,,,,,,,,,,,,,,,,,,,,,,,,,,,,,,,,,,,,,,,,,,,,,,
,,6169abd4e006adba4739143e,2024-02-18_20h15.03.409,kallum_motion_pilot,2023.2.2,Win32,60.24096386,6169abd4e006adba4739143e,65d2b6c8f2eece985d8e374c,65d2b98980b5775321cab96a,0.0373,0.0374,0,85,85,103,1,eightseven,,,,,,,,,,,,,,,,,,,,,,,,,,,,,,,,,,,,,,,,,,,,,,,,,,,,,,,,,,,,,,,,,,,,,,,,,,,,,,,,,,,,,,,,,,,,,,,,,,,,,,,,,,,,,,,,,,,,,,,,,,,,,,,,,,,,,,,,,
,,6169abd4e006adba4739143e,2024-02-18_20h15.03.409,kallum_motion_pilot,2023.2.2,Win32,60.24096386,6169abd4e006adba4739143e,65d2b6c8f2eece985d8e374c,65d2b98980b5775321cab96a,0.0375,0.0375,0,86,86,25,1,onethree,,,,,,,,,,,,,,,,,,,,,,,,,,,,,,,,,,,,,,,,,,,,,,,,,,,,,,,,,,,,,,,,,,,,,,,,,,,,,,,,,,,,,,,,,,,,,,,,,,,,,,,,,,,,,,,,,,,,,,,,,,,,,,,,,,,,,,,,,
,,6169abd4e006adba4739143e,2024-02-18_20h15.03.409,kallum_motion_pilot,2023.2.2,Win32,60.24096386,6169abd4e006adba4739143e,65d2b6c8f2eece985d8e374c,65d2b98980b5775321cab96a,0.0375,0.0376,0,87,87,152,1,fivesix,,,,,,,,,,,,,,,,,,,,,,,,,,,,,,,,,,,,,,,,,,,,,,,,,,,,,,,,,,,,,,,,,,,,,,,,,,,,,,,,,,,,,,,,,,,,,,,,,,,,,,,,,,,,,,,,,,,,,,,,,,,,,,,,,,,,,,,,,
,,6169abd4e006adba4739143e,2024-02-18_20h15.03.409,kallum_motion_pilot,2023.2.2,Win32,60.24096386,6169abd4e006adba4739143e,65d2b6c8f2eece985d8e374c,65d2b98980b5775321cab96a,0.0377,0.0377,0,88,88,119,1,eightseven,,,,,,,,,,,,,,,,,,,,,,,,,,,,,,,,,,,,,,,,,,,,,,,,,,,,,,,,,,,,,,,,,,,,,,,,,,,,,,,,,,,,,,,,,,,,,,,,,,,,,,,,,,,,,,,,,,,,,,,,,,,,,,,,,,,,,,,,,
,,6169abd4e006adba4739143e,2024-02-18_20h15.03.409,kallum_motion_pilot,2023.2.2,Win32,60.24096386,6169abd4e006adba4739143e,65d2b6c8f2eece985d8e374c,65d2b98980b5775321cab96a,0.0378,0.0379,0,89,89,109,1,seveneight,,,,,,,,,,,,,,,,,,,,,,,,,,,,,,,,,,,,,,,,,,,,,,,,,,,,,,,,,,,,,,,,,,,,,,,,,,,,,,,,,,,,,,,,,,,,,,,,,,,,,,,,,,,,,,,,,,,,,,,,,,,,,,,,,,,,,,,,,
,,6169abd4e006adba4739143e,2024-02-18_20h15.03.409,kallum_motion_pilot,2023.2.2,Win32,60.24096386,6169abd4e006adba4739143e,65d2b6c8f2eece985d8e374c,65d2b98980b5775321cab96a,0.0379,0.0379,0,90,90,1,1,onethree,,,,,,,,,,,,,,,,,,,,,,,,,,,,,,,,,,,,,,,,,,,,,,,,,,,,,,,,,,,,,,,,,,,,,,,,,,,,,,,,,,,,,,,,,,,,,,,,,,,,,,,,,,,,,,,,,,,,,,,,,,,,,,,,,,,,,,,,,
,,6169abd4e006adba4739143e,2024-02-18_20h15.03.409,kallum_motion_pilot,2023.2.2,Win32,60.24096386,6169abd4e006adba4739143e,65d2b6c8f2eece985d8e374c,65d2b98980b5775321cab96a,0.038,0.038,0,91,91,45,1,threefour,,,,,,,,,,,,,,,,,,,,,,,,,,,,,,,,,,,,,,,,,,,,,,,,,,,,,,,,,,,,,,,,,,,,,,,,,,,,,,,,,,,,,,,,,,,,,,,,,,,,,,,,,,,,,,,,,,,,,,,,,,,,,,,,,,,,,,,,,
,,6169abd4e006adba4739143e,2024-02-18_20h15.03.409,kallum_motion_pilot,2023.2.2,Win32,60.24096386,6169abd4e006adba4739143e,65d2b6c8f2eece985d8e374c,65d2b98980b5775321cab96a,0.0381,0.0381,0,92,92,70,1,fourtwo,,,,,,,,,,,,,,,,,,,,,,,,,,,,,,,,,,,,,,,,,,,,,,,,,,,,,,,,,,,,,,,,,,,,,,,,,,,,,,,,,,,,,,,,,,,,,,,,,,,,,,,,,,,,,,,,,,,,,,,,,,,,,,,,,,,,,,,,,
,,6169abd4e006adba4739143e,2024-02-18_20h15.03.409,kallum_motion_pilot,2023.2.2,Win32,60.24096386,6169abd4e006adba4739143e,65d2b6c8f2eece985d8e374c,65d2b98980b5775321cab96a,0.0382,0.0383,0,93,93,9,1,onethree,,,,,,,,,,,,,,,,,,,,,,,,,,,,,,,,,,,,,,,,,,,,,,,,,,,,,,,,,,,,,,,,,,,,,,,,,,,,,,,,,,,,,,,,,,,,,,,,,,,,,,,,,,,,,,,,,,,,,,,,,,,,,,,,,,,,,,,,,
,,6169abd4e006adba4739143e,2024-02-18_20h15.03.409,kallum_motion_pilot,2023.2.2,Win32,60.24096386,6169abd4e006adba4739143e,65d2b6c8f2eece985d8e374c,65d2b98980b5775321cab96a,0.0383,0.0384,0,94,94,82,1,sixfive,,,,,,,,,,,,,,,,,,,,,,,,,,,,,,,,,,,,,,,,,,,,,,,,,,,,,,,,,,,,,,,,,,,,,,,,,,,,,,,,,,,,,,,,,,,,,,,,,,,,,,,,,,,,,,,,,,,,,,,,,,,,,,,,,,,,,,,,,
,,6169abd4e006adba4739143e,2024-02-18_20h15.03.409,kallum_motion_pilot,2023.2.2,Win32,60.24096386,6169abd4e006adba4739143e,65d2b6c8f2eece985d8e374c,65d2b98980b5775321cab96a,0.0384,0.0384,0,95,95,84,1,sevenfive,,,,,,,,,,,,,,,,,,,,,,,,,,,,,,,,,,,,,,,,,,,,,,,,,,,,,,,,,,,,,,,,,,,,,,,,,,,,,,,,,,,,,,,,,,,,,,,,,,,,,,,,,,,,,,,,,,,,,,,,,,,,,,,,,,,,,,,,,
,,6169abd4e006adba4739143e,2024-02-18_20h15.03.409,kallum_motion_pilot,2023.2.2,Win32,60.24096386,6169abd4e006adba4739143e,65d2b6c8f2eece985d8e374c,65d2b98980b5775321cab96a,0.0386,0.0386,0,96,96,64,1,onetwo,,,,,,,,,,,,,,,,,,,,,,,,,,,,,,,,,,,,,,,,,,,,,,,,,,,,,,,,,,,,,,,,,,,,,,,,,,,,,,,,,,,,,,,,,,,,,,,,,,,,,,,,,,,,,,,,,,,,,,,,,,,,,,,,,,,,,,,,,
,,6169abd4e006adba4739143e,2024-02-18_20h15.03.409,kallum_motion_pilot,2023.2.2,Win32,60.24096386,6169abd4e006adba4739143e,65d2b6c8f2eece985d8e374c,65d2b98980b5775321cab96a,0.0387,0.0387,0,97,97,113,1,fiveseven,,,,,,,,,,,,,,,,,,,,,,,,,,,,,,,,,,,,,,,,,,,,,,,,,,,,,,,,,,,,,,,,,,,,,,,,,,,,,,,,,,,,,,,,,,,,,,,,,,,,,,,,,,,,,,,,,,,,,,,,,,,,,,,,,,,,,,,,,
,,6169abd4e006adba4739143e,2024-02-18_20h15.03.409,kallum_motion_pilot,2023.2.2,Win32,60.24096386,6169abd4e006adba4739143e,65d2b6c8f2eece985d8e374c,65d2b98980b5775321cab96a,0.0388,0.0388,0,98,98,136,1,fivesix,,,,,,,,,,,,,,,,,,,,,,,,,,,,,,,,,,,,,,,,,,,,,,,,,,,,,,,,,,,,,,,,,,,,,,,,,,,,,,,,,,,,,,,,,,,,,,,,,,,,,,,,,,,,,,,,,,,,,,,,,,,,,,,,,,,,,,,,,
,,6169abd4e006adba4739143e,2024-02-18_20h15.03.409,kallum_motion_pilot,2023.2.2,Win32,60.24096386,6169abd4e006adba4739143e,65d2b6c8f2eece985d8e374c,65d2b98980b5775321cab96a,0.0389,0.0389,0,99,99,155,1,sixeight,,,,,,,,,,,,,,,,,,,,,,,,,,,,,,,,,,,,,,,,,,,,,,,,,,,,,,,,,,,,,,,,,,,,,,,,,,,,,,,,,,,,,,,,,,,,,,,,,,,,,,,,,,,,,,,,,,,,,,,,,,,,,,,,,,,,,,,,,
,,6169abd4e006adba4739143e,2024-02-18_20h15.03.409,kallum_motion_pilot,2023.2.2,Win32,60.24096386,6169abd4e006adba4739143e,65d2b6c8f2eece985d8e374c,65d2b98980b5775321cab96a,0.039,0.0391,0,100,100,14,1,fourtwo,,,,,,,,,,,,,,,,,,,,,,,,,,,,,,,,,,,,,,,,,,,,,,,,,,,,,,,,,,,,,,,,,,,,,,,,,,,,,,,,,,,,,,,,,,,,,,,,,,,,,,,,,,,,,,,,,,,,,,,,,,,,,,,,,,,,,,,,,
,,6169abd4e006adba4739143e,2024-02-18_20h15.03.409,kallum_motion_pilot,2023.2.2,Win32,60.24096386,6169abd4e006adba4739143e,65d2b6c8f2eece985d8e374c,65d2b98980b5775321cab96a,0.0391,0.0391,0,101,101,94,1,eightsix,,,,,,,,,,,,,,,,,,,,,,,,,,,,,,,,,,,,,,,,,,,,,,,,,,,,,,,,,,,,,,,,,,,,,,,,,,,,,,,,,,,,,,,,,,,,,,,,,,,,,,,,,,,,,,,,,,,,,,,,,,,,,,,,,,,,,,,,,
,,6169abd4e006adba4739143e,2024-02-18_20h15.03.409,kallum_motion_pilot,2023.2.2,Win32,60.24096386,6169abd4e006adba4739143e,65d2b6c8f2eece985d8e374c,65d2b98980b5775321cab96a,0.0392,0.0392,0,102,102,61,1,threefour,,,,,,,,,,,,,,,,,,,,,,,,,,,,,,,,,,,,,,,,,,,,,,,,,,,,,,,,,,,,,,,,,,,,,,,,,,,,,,,,,,,,,,,,,,,,,,,,,,,,,,,,,,,,,,,,,,,,,,,,,,,,,,,,,,,,,,,,,
,,6169abd4e006adba4739143e,2024-02-18_20h15.03.409,kallum_motion_pilot,2023.2.2,Win32,60.24096386,6169abd4e006adba4739143e,65d2b6c8f2eece985d8e374c,65d2b98980b5775321cab96a,0.0393,0.0393,0,103,103,116,1,sevenfive,,,,,,,,,,,,,,,,,,,,,,,,,,,,,,,,,,,,,,,,,,,,,,,,,,,,,,,,,,,,,,,,,,,,,,,,,,,,,,,,,,,,,,,,,,,,,,,,,,,,,,,,,,,,,,,,,,,,,,,,,,,,,,,,,,,,,,,,,
,,6169abd4e006adba4739143e,2024-02-18_20h15.03.409,kallum_motion_pilot,2023.2.2,Win32,60.24096386,6169abd4e006adba4739143e,65d2b6c8f2eece985d8e374c,65d2b98980b5775321cab96a,0.0394,0.0395,0,104,104,122,1,sixfive,,,,,,,,,,,,,,,,,,,,,,,,,,,,,,,,,,,,,,,,,,,,,,,,,,,,,,,,,,,,,,,,,,,,,,,,,,,,,,,,,,,,,,,,,,,,,,,,,,,,,,,,,,,,,,,,,,,,,,,,,,,,,,,,,,,,,,,,,
,,6169abd4e006adba4739143e,2024-02-18_20h15.03.409,kallum_motion_pilot,2023.2.2,Win32,60.24096386,6169abd4e006adba4739143e,65d2b6c8f2eece985d8e374c,65d2b98980b5775321cab96a,0.0396,0.0396,0,105,105,31,1,fourthree,,,,,,,,,,,,,,,,,,,,,,,,,,,,,,,,,,,,,,,,,,,,,,,,,,,,,,,,,,,,,,,,,,,,,,,,,,,,,,,,,,,,,,,,,,,,,,,,,,,,,,,,,,,,,,,,,,,,,,,,,,,,,,,,,,,,,,,,,
,,6169abd4e006adba4739143e,2024-02-18_20h15.03.409,kallum_motion_pilot,2023.2.2,Win32,60.24096386,6169abd4e006adba4739143e,65d2b6c8f2eece985d8e374c,65d2b98980b5775321cab96a,0.0396,0.0397,0,106,106,160,1,fivesix,,,,,,,,,,,,,,,,,,,,,,,,,,,,,,,,,,,,,,,,,,,,,,,,,,,,,,,,,,,,,,,,,,,,,,,,,,,,,,,,,,,,,,,,,,,,,,,,,,,,,,,,,,,,,,,,,,,,,,,,,,,,,,,,,,,,,,,,,
,,6169abd4e006adba4739143e,2024-02-18_20h15.03.409,kallum_motion_pilot,2023.2.2,Win32,60.24096386,6169abd4e006adba4739143e,65d2b6c8f2eece985d8e374c,65d2b98980b5775321cab96a,0.0398,0.0398,0,107,107,7,1,fourthree,,,,,,,,,,,,,,,,,,,,,,,,,,,,,,,,,,,,,,,,,,,,,,,,,,,,,,,,,,,,,,,,,,,,,,,,,,,,,,,,,,,,,,,,,,,,,,,,,,,,,,,,,,,,,,,,,,,,,,,,,,,,,,,,,,,,,,,,,
,,6169abd4e006adba4739143e,2024-02-18_20h15.03.409,kallum_motion_pilot,2023.2.2,Win32,60.24096386,6169abd4e006adba4739143e,65d2b6c8f2eece985d8e374c,65d2b98980b5775321cab96a,0.0398,0.0399,0,108,108,43,1,twofour,,,,,,,,,,,,,,,,,,,,,,,,,,,,,,,,,,,,,,,,,,,,,,,,,,,,,,,,,,,,,,,,,,,,,,,,,,,,,,,,,,,,,,,,,,,,,,,,,,,,,,,,,,,,,,,,,,,,,,,,,,,,,,,,,,,,,,,,,
,,6169abd4e006adba4739143e,2024-02-18_20h15.03.409,kallum_motion_pilot,2023.2.2,Win32,60.24096386,6169abd4e006adba4739143e,65d2b6c8f2eece985d8e374c,65d2b98980b5775321cab96a,0.04,0.04,0,109,109,33,1,onethree,,,,,,,,,,,,,,,,,,,,,,,,,,,,,,,,,,,,,,,,,,,,,,,,,,,,,,,,,,,,,,,,,,,,,,,,,,,,,,,,,,,,,,,,,,,,,,,,,,,,,,,,,,,,,,,,,,,,,,,,,,,,,,,,,,,,,,,,,
,,6169abd4e006adba4739143e,2024-02-18_20h15.03.409,kallum_motion_pilot,2023.2.2,Win32,60.24096386,6169abd4e006adba4739143e,65d2b6c8f2eece985d8e374c,65d2b98980b5775321cab96a,0.0401,0.0402,0,110,110,151,1,eightseven,,,,,,,,,,,,,,,,,,,,,,,,,,,,,,,,,,,,,,,,,,,,,,,,,,,,,,,,,,,,,,,,,,,,,,,,,,,,,,,,,,,,,,,,,,,,,,,,,,,,,,,,,,,,,,,,,,,,,,,,,,,,,,,,,,,,,,,,,
,,6169abd4e006adba4739143e,2024-02-18_20h15.03.409,kallum_motion_pilot,2023.2.2,Win32,60.24096386,6169abd4e006adba4739143e,65d2b6c8f2eece985d8e374c,65d2b98980b5775321cab96a,0.0402,0.0402,0,111,111,58,1,twoone,,,,,,,,,,,,,,,,,,,,,,,,,,,,,,,,,,,,,,,,,,,,,,,,,,,,,,,,,,,,,,,,,,,,,,,,,,,,,,,,,,,,,,,,,,,,,,,,,,,,,,,,,,,,,,,,,,,,,,,,,,,,,,,,,,,,,,,,,
,,6169abd4e006adba4739143e,2024-02-18_20h15.03.409,kallum_motion_pilot,2023.2.2,Win32,60.24096386,6169abd4e006adba4739143e,65d2b6c8f2eece985d8e374c,65d2b98980b5775321cab96a,0.0403,0.0403,0,112,112,117,1,seveneight,,,,,,,,,,,,,,,,,,,,,,,,,,,,,,,,,,,,,,,,,,,,,,,,,,,,,,,,,,,,,,,,,,,,,,,,,,,,,,,,,,,,,,,,,,,,,,,,,,,,,,,,,,,,,,,,,,,,,,,,,,,,,,,,,,,,,,,,,
,,6169abd4e006adba4739143e,2024-02-18_20h15.03.409,kallum_motion_pilot,2023.2.2,Win32,60.24096386,6169abd4e006adba4739143e,65d2b6c8f2eece985d8e374c,65d2b98980b5775321cab96a,0.0404,0.0404,0,113,113,131,1,sixeight,,,,,,,,,,,,,,,,,,,,,,,,,,,,,,,,,,,,,,,,,,,,,,,,,,,,,,,,,,,,,,,,,,,,,,,,,,,,,,,,,,,,,,,,,,,,,,,,,,,,,,,,,,,,,,,,,,,,,,,,,,,,,,,,,,,,,,,,,
,,6169abd4e006adba4739143e,2024-02-18_20h15.03.409,kallum_motion_pilot,2023.2.2,Win32,60.24096386,6169abd4e006adba4739143e,65d2b6c8f2eece985d8e374c,65d2b98980b5775321cab96a,0.0405,0.0405,0,114,114,76,1,threeone,,,,,,,,,,,,,,,,,,,,,,,,,,,,,,,,,,,,,,,,,,,,,,,,,,,,,,,,,,,,,,,,,,,,,,,,,,,,,,,,,,,,,,,,,,,,,,,,,,,,,,,,,,,,,,,,,,,,,,,,,,,,,,,,,,,,,,,,,
,,6169abd4e006adba4739143e,2024-02-18_20h15.03.409,kallum_motion_pilot,2023.2.2,Win32,60.24096386,6169abd4e006adba4739143e,65d2b6c8f2eece985d8e374c,65d2b98980b5775321cab96a,0.0407,0.0407,0,115,115,106,1,sixfive,,,,,,,,,,,,,,,,,,,,,,,,,,,,,,,,,,,,,,,,,,,,,,,,,,,,,,,,,,,,,,,,,,,,,,,,,,,,,,,,,,,,,,,,,,,,,,,,,,,,,,,,,,,,,,,,,,,,,,,,,,,,,,,,,,,,,,,,,
,,6169abd4e006adba4739143e,2024-02-18_20h15.03.409,kallum_motion_pilot,2023.2.2,Win32,60.24096386,6169abd4e006adba4739143e,65d2b6c8f2eece985d8e374c,65d2b98980b5775321cab96a,0.0408,0.0408,0,116,116,145,1,fiveseven,,,,,,,,,,,,,,,,,,,,,,,,,,,,,,,,,,,,,,,,,,,,,,,,,,,,,,,,,,,,,,,,,,,,,,,,,,,,,,,,,,,,,,,,,,,,,,,,,,,,,,,,,,,,,,,,,,,,,,,,,,,,,,,,,,,,,,,,,
,,6169abd4e006adba4739143e,2024-02-18_20h15.03.409,kallum_motion_pilot,2023.2.2,Win32,60.24096386,6169abd4e006adba4739143e,65d2b6c8f2eece985d8e374c,65d2b98980b5775321cab96a,0.0409,0.0409,0,117,117,53,1,threefour,,,,,,,,,,,,,,,,,,,,,,,,,,,,,,,,,,,,,,,,,,,,,,,,,,,,,,,,,,,,,,,,,,,,,,,,,,,,,,,,,,,,,,,,,,,,,,,,,,,,,,,,,,,,,,,,,,,,,,,,,,,,,,,,,,,,,,,,,
,,6169abd4e006adba4739143e,2024-02-18_20h15.03.409,kallum_motion_pilot,2023.2.2,Win32,60.24096386,6169abd4e006adba4739143e,65d2b6c8f2eece985d8e374c,65d2b98980b5775321cab96a,0.041,0.041,0,118,118,62,1,fourtwo,,,,,,,,,,,,,,,,,,,,,,,,,,,,,,,,,,,,,,,,,,,,,,,,,,,,,,,,,,,,,,,,,,,,,,,,,,,,,,,,,,,,,,,,,,,,,,,,,,,,,,,,,,,,,,,,,,,,,,,,,,,,,,,,,,,,,,,,,
,,6169abd4e006adba4739143e,2024-02-18_20h15.03.409,kallum_motion_pilot,2023.2.2,Win32,60.24096386,6169abd4e006adba4739143e,65d2b6c8f2eece985d8e374c,65d2b98980b5775321cab96a,0.0411,0.0411,0,119,119,47,1,fourthree,,,,,,,,,,,,,,,,,,,,,,,,,,,,,,,,,,,,,,,,,,,,,,,,,,,,,,,,,,,,,,,,,,,,,,,,,,,,,,,,,,,,,,,,,,,,,,,,,,,,,,,,,,,,,,,,,,,,,,,,,,,,,,,,,,,,,,,,,
,,6169abd4e006adba4739143e,2024-02-18_20h15.03.409,kallum_motion_pilot,2023.2.2,Win32,60.24096386,6169abd4e006adba4739143e,65d2b6c8f2eece985d8e374c,65d2b98980b5775321cab96a,0.0412,0.0412,0,120,120,126,1,eightsix,,,,,,,,,,,,,,,,,,,,,,,,,,,,,,,,,,,,,,,,,,,,,,,,,,,,,,,,,,,,,,,,,,,,,,,,,,,,,,,,,,,,,,,,,,,,,,,,,,,,,,,,,,,,,,,,,,,,,,,,,,,,,,,,,,,,,,,,,
,,6169abd4e006adba4739143e,2024-02-18_20h15.03.409,kallum_motion_pilot,2023.2.2,Win32,60.24096386,6169abd4e006adba4739143e,65d2b6c8f2eece985d8e374c,65d2b98980b5775321cab96a,0.0413,0.0414,0,121,121,111,1,eightseven,,,,,,,,,,,,,,,,,,,,,,,,,,,,,,,,,,,,,,,,,,,,,,,,,,,,,,,,,,,,,,,,,,,,,,,,,,,,,,,,,,,,,,,,,,,,,,,,,,,,,,,,,,,,,,,,,,,,,,,,,,,,,,,,,,,,,,,,,
,,6169abd4e006adba4739143e,2024-02-18_20h15.03.409,kallum_motion_pilot,2023.2.2,Win32,60.24096386,6169abd4e006adba4739143e,65d2b6c8f2eece985d8e374c,65d2b98980b5775321cab96a,0.0415,0.0415,0,122,122,15,1,fourthree,,,,,,,,,,,,,,,,,,,,,,,,,,,,,,,,,,,,,,,,,,,,,,,,,,,,,,,,,,,,,,,,,,,,,,,,,,,,,,,,,,,,,,,,,,,,,,,,,,,,,,,,,,,,,,,,,,,,,,,,,,,,,,,,,,,,,,,,,
,,6169abd4e006adba4739143e,2024-02-18_20h15.03.409,kallum_motion_pilot,2023.2.2,Win32,60.24096386,6169abd4e006adba4739143e,65d2b6c8f2eece985d8e374c,65d2b98980b5775321cab96a,0.0415,0.0416,0,123,123,12,1,threeone,,,,,,,,,,,,,,,,,,,,,,,,,,,,,,,,,,,,,,,,,,,,,,,,,,,,,,,,,,,,,,,,,,,,,,,,,,,,,,,,,,,,,,,,,,,,,,,,,,,,,,,,,,,,,,,,,,,,,,,,,,,,,,,,,,,,,,,,,
,,6169abd4e006adba4739143e,2024-02-18_20h15.03.409,kallum_motion_pilot,2023.2.2,Win32,60.24096386,6169abd4e006adba4739143e,65d2b6c8f2eece985d8e374c,65d2b98980b5775321cab96a,0.0417,0.0418,0,124,124,17,1,onethree,,,,,,,,,,,,,,,,,,,,,,,,,,,,,,,,,,,,,,,,,,,,,,,,,,,,,,,,,,,,,,,,,,,,,,,,,,,,,,,,,,,,,,,,,,,,,,,,,,,,,,,,,,,,,,,,,,,,,,,,,,,,,,,,,,,,,,,,,
,,6169abd4e006adba4739143e,2024-02-18_20h15.03.409,kallum_motion_pilot,2023.2.2,Win32,60.24096386,6169abd4e006adba4739143e,65d2b6c8f2eece985d8e374c,65d2b98980b5775321cab96a,0.0418,0.0418,0,125,125,97,1,fiveseven,,,,,,,,,,,,,,,,,,,,,,,,,,,,,,,,,,,,,,,,,,,,,,,,,,,,,,,,,,,,,,,,,,,,,,,,,,,,,,,,,,,,,,,,,,,,,,,,,,,,,,,,,,,,,,,,,,,,,,,,,,,,,,,,,,,,,,,,,
,,6169abd4e006adba4739143e,2024-02-18_20h15.03.409,kallum_motion_pilot,2023.2.2,Win32,60.24096386,6169abd4e006adba4739143e,65d2b6c8f2eece985d8e374c,65d2b98980b5775321cab96a,0.0419,0.042,0,126,126,66,1,twoone,,,,,,,,,,,,,,,,,,,,,,,,,,,,,,,,,,,,,,,,,,,,,,,,,,,,,,,,,,,,,,,,,,,,,,,,,,,,,,,,,,,,,,,,,,,,,,,,,,,,,,,,,,,,,,,,,,,,,,,,,,,,,,,,,,,,,,,,,
,,6169abd4e006adba4739143e,2024-02-18_20h15.03.409,kallum_motion_pilot,2023.2.2,Win32,60.24096386,6169abd4e006adba4739143e,65d2b6c8f2eece985d8e374c,65d2b98980b5775321cab96a,0.042,0.0421,0,127,127,35,1,twofour,,,,,,,,,,,,,,,,,,,,,,,,,,,,,,,,,,,,,,,,,,,,,,,,,,,,,,,,,,,,,,,,,,,,,,,,,,,,,,,,,,,,,,,,,,,,,,,,,,,,,,,,,,,,,,,,,,,,,,,,,,,,,,,,,,,,,,,,,
,,6169abd4e006adba4739143e,2024-02-18_20h15.03.409,kallum_motion_pilot,2023.2.2,Win32,60.24096386,6169abd4e006adba4739143e,65d2b6c8f2eece985d8e374c,65d2b98980b5775321cab96a,0.0422,0.0422,0,128,128,24,1,onetwo,,,,,,,,,,,,,,,,,,,,,,,,,,,,,,,,,,,,,,,,,,,,,,,,,,,,,,,,,,,,,,,,,,,,,,,,,,,,,,,,,,,,,,,,,,,,,,,,,,,,,,,,,,,,,,,,,,,,,,,,,,,,,,,,,,,,,,,,,
,,6169abd4e006adba4739143e,2024-02-18_20h15.03.409,kallum_motion_pilot,2023.2.2,Win32,60.24096386,6169abd4e006adba4739143e,65d2b6c8f2eece985d8e374c,65d2b98980b5775321cab96a,0.0423,0.0423,0,129,129,96,1,fivesix,,,,,,,,,,,,,,,,,,,,,,,,,,,,,,,,,,,,,,,,,,,,,,,,,,,,,,,,,,,,,,,,,,,,,,,,,,,,,,,,,,,,,,,,,,,,,,,,,,,,,,,,,,,,,,,,,,,,,,,,,,,,,,,,,,,,,,,,,
,,6169abd4e006adba4739143e,2024-02-18_20h15.03.409,kallum_motion_pilot,2023.2.2,Win32,60.24096386,6169abd4e006adba4739143e,65d2b6c8f2eece985d8e374c,65d2b98980b5775321cab96a,0.0424,0.0424,0,130,130,39,1,fourthree,,,,,,,,,,,,,,,,,,,,,,,,,,,,,,,,,,,,,,,,,,,,,,,,,,,,,,,,,,,,,,,,,,,,,,,,,,,,,,,,,,,,,,,,,,,,,,,,,,,,,,,,,,,,,,,,,,,,,,,,,,,,,,,,,,,,,,,,,
,,6169abd4e006adba4739143e,2024-02-18_20h15.03.409,kallum_motion_pilot,2023.2.2,Win32,60.24096386,6169abd4e006adba4739143e,65d2b6c8f2eece985d8e374c,65d2b98980b5775321cab96a,0.0425,0.0426,0,131,131,26,1,twoone,,,,,,,,,,,,,,,,,,,,,,,,,,,,,,,,,,,,,,,,,,,,,,,,,,,,,,,,,,,,,,,,,,,,,,,,,,,,,,,,,,,,,,,,,,,,,,,,,,,,,,,,,,,,,,,,,,,,,,,,,,,,,,,,,,,,,,,,,
,,6169abd4e006adba4739143e,2024-02-18_20h15.03.409,kallum_motion_pilot,2023.2.2,Win32,60.24096386,6169abd4e006adba4739143e,65d2b6c8f2eece985d8e374c,65d2b98980b5775321cab96a,0.0426,0.0427,0,132,132,80,1,fivesix,,,,,,,,,,,,,,,,,,,,,,,,,,,,,,,,,,,,,,,,,,,,,,,,,,,,,,,,,,,,,,,,,,,,,,,,,,,,,,,,,,,,,,,,,,,,,,,,,,,,,,,,,,,,,,,,,,,,,,,,,,,,,,,,,,,,,,,,,
,,6169abd4e006adba4739143e,2024-02-18_20h15.03.409,kallum_motion_pilot,2023.2.2,Win32,60.24096386,6169abd4e006adba4739143e,65d2b6c8f2eece985d8e374c,65d2b98980b5775321cab96a,0.0427,0.0428,0,133,133,72,1,onetwo,,,,,,,,,,,,,,,,,,,,,,,,,,,,,,,,,,,,,,,,,,,,,,,,,,,,,,,,,,,,,,,,,,,,,,,,,,,,,,,,,,,,,,,,,,,,,,,,,,,,,,,,,,,,,,,,,,,,,,,,,,,,,,,,,,,,,,,,,
,,6169abd4e006adba4739143e,2024-02-18_20h15.03.409,kallum_motion_pilot,2023.2.2,Win32,60.24096386,6169abd4e006adba4739143e,65d2b6c8f2eece985d8e374c,65d2b98980b5775321cab96a,0.0428,0.043,0,134,134,148,1,sevenfive,,,,,,,,,,,,,,,,,,,,,,,,,,,,,,,,,,,,,,,,,,,,,,,,,,,,,,,,,,,,,,,,,,,,,,,,,,,,,,,,,,,,,,,,,,,,,,,,,,,,,,,,,,,,,,,,,,,,,,,,,,,,,,,,,,,,,,,,,
,,6169abd4e006adba4739143e,2024-02-18_20h15.03.409,kallum_motion_pilot,2023.2.2,Win32,60.24096386,6169abd4e006adba4739143e,65d2b6c8f2eece985d8e374c,65d2b98980b5775321cab96a,0.043,0.0431,0,135,135,135,1,eightseven,,,,,,,,,,,,,,,,,,,,,,,,,,,,,,,,,,,,,,,,,,,,,,,,,,,,,,,,,,,,,,,,,,,,,,,,,,,,,,,,,,,,,,,,,,,,,,,,,,,,,,,,,,,,,,,,,,,,,,,,,,,,,,,,,,,,,,,,,
,,6169abd4e006adba4739143e,2024-02-18_20h15.03.409,kallum_motion_pilot,2023.2.2,Win32,60.24096386,6169abd4e006adba4739143e,65d2b6c8f2eece985d8e374c,65d2b98980b5775321cab96a,0.0431,0.0431,0,136,136,120,1,fivesix,,,,,,,,,,,,,,,,,,,,,,,,,,,,,,,,,,,,,,,,,,,,,,,,,,,,,,,,,,,,,,,,,,,,,,,,,,,,,,,,,,,,,,,,,,,,,,,,,,,,,,,,,,,,,,,,,,,,,,,,,,,,,,,,,,,,,,,,,
,,6169abd4e006adba4739143e,2024-02-18_20h15.03.409,kallum_motion_pilot,2023.2.2,Win32,60.24096386,6169abd4e006adba4739143e,65d2b6c8f2eece985d8e374c,65d2b98980b5775321cab96a,0.0432,0.0433,0,137,137,102,1,eightsix,,,,,,,,,,,,,,,,,,,,,,,,,,,,,,,,,,,,,,,,,,,,,,,,,,,,,,,,,,,,,,,,,,,,,,,,,,,,,,,,,,,,,,,,,,,,,,,,,,,,,,,,,,,,,,,,,,,,,,,,,,,,,,,,,,,,,,,,,
,,6169abd4e006adba4739143e,2024-02-18_20h15.03.409,kallum_motion_pilot,2023.2.2,Win32,60.24096386,6169abd4e006adba4739143e,65d2b6c8f2eece985d8e374c,65d2b98980b5775321cab96a,0.0434,0.0434,0,138,138,44,1,threeone,,,,,,,,,,,,,,,,,,,,,,,,,,,,,,,,,,,,,,,,,,,,,,,,,,,,,,,,,,,,,,,,,,,,,,,,,,,,,,,,,,,,,,,,,,,,,,,,,,,,,,,,,,,,,,,,,,,,,,,,,,,,,,,,,,,,,,,,,
,,6169abd4e006adba4739143e,2024-02-18_20h15.03.409,kallum_motion_pilot,2023.2.2,Win32,60.24096386,6169abd4e006adba4739143e,65d2b6c8f2eece985d8e374c,65d2b98980b5775321cab96a,0.0435,0.0436,0,139,139,86,1,eightsix,,,,,,,,,,,,,,,,,,,,,,,,,,,,,,,,,,,,,,,,,,,,,,,,,,,,,,,,,,,,,,,,,,,,,,,,,,,,,,,,,,,,,,,,,,,,,,,,,,,,,,,,,,,,,,,,,,,,,,,,,,,,,,,,,,,,,,,,,
,,6169abd4e006adba4739143e,2024-02-18_20h15.03.409,kallum_motion_pilot,2023.2.2,Win32,60.24096386,6169abd4e006adba4739143e,65d2b6c8f2eece985d8e374c,65d2b98980b5775321cab96a,0.0436,0.0437,0,140,140,4,1,threeone,,,,,,,,,,,,,,,,,,,,,,,,,,,,,,,,,,,,,,,,,,,,,,,,,,,,,,,,,,,,,,,,,,,,,,,,,,,,,,,,,,,,,,,,,,,,,,,,,,,,,,,,,,,,,,,,,,,,,,,,,,,,,,,,,,,,,,,,,
,,6169abd4e006adba4739143e,2024-02-18_20h15.03.409,kallum_motion_pilot,2023.2.2,Win32,60.24096386,6169abd4e006adba4739143e,65d2b6c8f2eece985d8e374c,65d2b98980b5775321cab96a,0.0437,0.0438,0,141,141,69,1,threefour,,,,,,,,,,,,,,,,,,,,,,,,,,,,,,,,,,,,,,,,,,,,,,,,,,,,,,,,,,,,,,,,,,,,,,,,,,,,,,,,,,,,,,,,,,,,,,,,,,,,,,,,,,,,,,,,,,,,,,,,,,,,,,,,,,,,,,,,,
,,6169abd4e006adba4739143e,2024-02-18_20h15.03.409,kallum_motion_pilot,2023.2.2,Win32,60.24096386,6169abd4e006adba4739143e,65d2b6c8f2eece985d8e374c,65d2b98980b5775321cab96a,0.0439,0.044,0,142,142,92,1,sevenfive,,,,,,,,,,,,,,,,,,,,,,,,,,,,,,,,,,,,,,,,,,,,,,,,,,,,,,,,,,,,,,,,,,,,,,,,,,,,,,,,,,,,,,,,,,,,,,,,,,,,,,,,,,,,,,,,,,,,,,,,,,,,,,,,,,,,,,,,,
,,6169abd4e006adba4739143e,2024-02-18_20h15.03.409,kallum_motion_pilot,2023.2.2,Win32,60.24096386,6169abd4e006adba4739143e,65d2b6c8f2eece985d8e374c,65d2b98980b5775321cab96a,0.0441,0.0441,0,143,143,5,1,threefour,,,,,,,,,,,,,,,,,,,,,,,,,,,,,,,,,,,,,,,,,,,,,,,,,,,,,,,,,,,,,,,,,,,,,,,,,,,,,,,,,,,,,,,,,,,,,,,,,,,,,,,,,,,,,,,,,,,,,,,,,,,,,,,,,,,,,,,,,
,,6169abd4e006adba4739143e,2024-02-18_20h15.03.409,kallum_motion_pilot,2023.2.2,Win32,60.24096386,6169abd4e006adba4739143e,65d2b6c8f2eece985d8e374c,65d2b98980b5775321cab96a,0.0442,0.0442,0,144,144,143,1,eightseven,,,,,,,,,,,,,,,,,,,,,,,,,,,,,,,,,,,,,,,,,,,,,,,,,,,,,,,,,,,,,,,,,,,,,,,,,,,,,,,,,,,,,,,,,,,,,,,,,,,,,,,,,,,,,,,,,,,,,,,,,,,,,,,,,,,,,,,,,
,,6169abd4e006adba4739143e,2024-02-18_20h15.03.409,kallum_motion_pilot,2023.2.2,Win32,60.24096386,6169abd4e006adba4739143e,65d2b6c8f2eece985d8e374c,65d2b98980b5775321cab96a,0.0444,0.0444,0,145,145,107,1,sixeight,,,,,,,,,,,,,,,,,,,,,,,,,,,,,,,,,,,,,,,,,,,,,,,,,,,,,,,,,,,,,,,,,,,,,,,,,,,,,,,,,,,,,,,,,,,,,,,,,,,,,,,,,,,,,,,,,,,,,,,,,,,,,,,,,,,,,,,,,
,,6169abd4e006adba4739143e,2024-02-18_20h15.03.409,kallum_motion_pilot,2023.2.2,Win32,60.24096386,6169abd4e006adba4739143e,65d2b6c8f2eece985d8e374c,65d2b98980b5775321cab96a,0.0444,0.0445,0,146,146,137,1,fiveseven,,,,,,,,,,,,,,,,,,,,,,,,,,,,,,,,,,,,,,,,,,,,,,,,,,,,,,,,,,,,,,,,,,,,,,,,,,,,,,,,,,,,,,,,,,,,,,,,,,,,,,,,,,,,,,,,,,,,,,,,,,,,,,,,,,,,,,,,,
,,6169abd4e006adba4739143e,2024-02-18_20h15.03.409,kallum_motion_pilot,2023.2.2,Win32,60.24096386,6169abd4e006adba4739143e,65d2b6c8f2eece985d8e374c,65d2b98980b5775321cab96a,0.0446,0.0447,0,147,147,13,1,threefour,,,,,,,,,,,,,,,,,,,,,,,,,,,,,,,,,,,,,,,,,,,,,,,,,,,,,,,,,,,,,,,,,,,,,,,,,,,,,,,,,,,,,,,,,,,,,,,,,,,,,,,,,,,,,,,,,,,,,,,,,,,,,,,,,,,,,,,,,
,,6169abd4e006adba4739143e,2024-02-18_20h15.03.409,kallum_motion_pilot,2023.2.2,Win32,60.24096386,6169abd4e006adba4739143e,65d2b6c8f2eece985d8e374c,65d2b98980b5775321cab96a,0.0448,0.0449,0,148,148,85,1,seveneight,,,,,,,,,,,,,,,,,,,,,,,,,,,,,,,,,,,,,,,,,,,,,,,,,,,,,,,,,,,,,,,,,,,,,,,,,,,,,,,,,,,,,,,,,,,,,,,,,,,,,,,,,,,,,,,,,,,,,,,,,,,,,,,,,,,,,,,,,
,,6169abd4e006adba4739143e,2024-02-18_20h15.03.409,kallum_motion_pilot,2023.2.2,Win32,60.24096386,6169abd4e006adba4739143e,65d2b6c8f2eece985d8e374c,65d2b98980b5775321cab96a,0.0449,0.045,0,149,149,51,1,twofour,,,,,,,,,,,,,,,,,,,,,,,,,,,,,,,,,,,,,,,,,,,,,,,,,,,,,,,,,,,,,,,,,,,,,,,,,,,,,,,,,,,,,,,,,,,,,,,,,,,,,,,,,,,,,,,,,,,,,,,,,,,,,,,,,,,,,,,,,
,,6169abd4e006adba4739143e,2024-02-18_20h15.03.409,kallum_motion_pilot,2023.2.2,Win32,60.24096386,6169abd4e006adba4739143e,65d2b6c8f2eece985d8e374c,65d2b98980b5775321cab96a,0.0451,0.0453,0,150,150,40,1,onetwo,,,,,,,,,,,,,,,,,,,,,,,,,,,,,,,,,,,,,,,,,,,,,,,,,,,,,,,,,,,,,,,,,,,,,,,,,,,,,,,,,,,,,,,,,,,,,,,,,,,,,,,,,,,,,,,,,,,,,,,,,,,,,,,,,,,,,,,,,
,,6169abd4e006adba4739143e,2024-02-18_20h15.03.409,kallum_motion_pilot,2023.2.2,Win32,60.24096386,6169abd4e006adba4739143e,65d2b6c8f2eece985d8e374c,65d2b98980b5775321cab96a,0.0454,0.0455,0,151,151,73,1,onethree,,,,,,,,,,,,,,,,,,,,,,,,,,,,,,,,,,,,,,,,,,,,,,,,,,,,,,,,,,,,,,,,,,,,,,,,,,,,,,,,,,,,,,,,,,,,,,,,,,,,,,,,,,,,,,,,,,,,,,,,,,,,,,,,,,,,,,,,,
,,6169abd4e006adba4739143e,2024-02-18_20h15.03.409,kallum_motion_pilot,2023.2.2,Win32,60.24096386,6169abd4e006adba4739143e,65d2b6c8f2eece985d8e374c,65d2b98980b5775321cab96a,0.0457,0.0457,0,152,152,79,1,eightseven,,,,,,,,,,,,,,,,,,,,,,,,,,,,,,,,,,,,,,,,,,,,,,,,,,,,,,,,,,,,,,,,,,,,,,,,,,,,,,,,,,,,,,,,,,,,,,,,,,,,,,,,,,,,,,,,,,,,,,,,,,,,,,,,,,,,,,,,,
,,6169abd4e006adba4739143e,2024-02-18_20h15.03.409,kallum_motion_pilot,2023.2.2,Win32,60.24096386,6169abd4e006adba4739143e,65d2b6c8f2eece985d8e374c,65d2b98980b5775321cab96a,0.0458,0.046,0,153,153,68,1,threeone,,,,,,,,,,,,,,,,,,,,,,,,,,,,,,,,,,,,,,,,,,,,,,,,,,,,,,,,,,,,,,,,,,,,,,,,,,,,,,,,,,,,,,,,,,,,,,,,,,,,,,,,,,,,,,,,,,,,,,,,,,,,,,,,,,,,,,,,,
,,6169abd4e006adba4739143e,2024-02-18_20h15.03.409,kallum_motion_pilot,2023.2.2,Win32,60.24096386,6169abd4e006adba4739143e,65d2b6c8f2eece985d8e374c,65d2b98980b5775321cab96a,0.0461,0.0461,0,154,154,23,1,fourthree,,,,,,,,,,,,,,,,,,,,,,,,,,,,,,,,,,,,,,,,,,,,,,,,,,,,,,,,,,,,,,,,,,,,,,,,,,,,,,,,,,,,,,,,,,,,,,,,,,,,,,,,,,,,,,,,,,,,,,,,,,,,,,,,,,,,,,,,,
,,6169abd4e006adba4739143e,2024-02-18_20h15.03.409,kallum_motion_pilot,2023.2.2,Win32,60.24096386,6169abd4e006adba4739143e,65d2b6c8f2eece985d8e374c,65d2b98980b5775321cab96a,0.0462,0.0463,0,155,155,63,1,fourthree,,,,,,,,,,,,,,,,,,,,,,,,,,,,,,,,,,,,,,,,,,,,,,,,,,,,,,,,,,,,,,,,,,,,,,,,,,,,,,,,,,,,,,,,,,,,,,,,,,,,,,,,,,,,,,,,,,,,,,,,,,,,,,,,,,,,,,,,,
,,6169abd4e006adba4739143e,2024-02-18_20h15.03.409,kallum_motion_pilot,2023.2.2,Win32,60.24096386,6169abd4e006adba4739143e,65d2b6c8f2eece985d8e374c,65d2b98980b5775321cab96a,0.0464,0.0465,0,156,156,123,1,sixeight,,,,,,,,,,,,,,,,,,,,,,,,,,,,,,,,,,,,,,,,,,,,,,,,,,,,,,,,,,,,,,,,,,,,,,,,,,,,,,,,,,,,,,,,,,,,,,,,,,,,,,,,,,,,,,,,,,,,,,,,,,,,,,,,,,,,,,,,,
,,6169abd4e006adba4739143e,2024-02-18_20h15.03.409,kallum_motion_pilot,2023.2.2,Win32,60.24096386,6169abd4e006adba4739143e,65d2b6c8f2eece985d8e374c,65d2b98980b5775321cab96a,0.0465,0.0466,0,157,157,11,1,twofour,,,,,,,,,,,,,,,,,,,,,,,,,,,,,,,,,,,,,,,,,,,,,,,,,,,,,,,,,,,,,,,,,,,,,,,,,,,,,,,,,,,,,,,,,,,,,,,,,,,,,,,,,,,,,,,,,,,,,,,,,,,,,,,,,,,,,,,,,
,,6169abd4e006adba4739143e,2024-02-18_20h15.03.409,kallum_motion_pilot,2023.2.2,Win32,60.24096386,6169abd4e006adba4739143e,65d2b6c8f2eece985d8e374c,65d2b98980b5775321cab96a,0.0467,0.0469,0,158,158,144,1,fivesix,,,,,,,,,,,,,,,,,,,,,,,,,,,,,,,,,,,,,,,,,,,,,,,,,,,,,,,,,,,,,,,,,,,,,,,,,,,,,,,,,,,,,,,,,,,,,,,,,,,,,,,,,,,,,,,,,,,,,,,,,,,,,,,,,,,,,,,,,
,,6169abd4e006adba4739143e,2024-02-18_20h15.03.409,kallum_motion_pilot,2023.2.2,Win32,60.24096386,6169abd4e006adba4739143e,65d2b6c8f2eece985d8e374c,65d2b98980b5775321cab96a,0.0471,0.0471,0,159,159,21,1,threefour,,,,,,,,,,,,,,,,,,,,,,,,,,,,,,,,,,,,,,,,,,,,,,,,,,,,,,,,,,,,,,,,,,,,,,,,,,,,,,,,,,,,,,,,,,,,,,,,,,,,,,,,,,,,,,,,,,,,,,,,,,,,,,,,,,,,,,,,,
,,6169abd4e006adba4739143e,2024-02-18_20h15.03.409,kallum_motion_pilot,2023.2.2,Win32,60.24096386,6169abd4e006adba4739143e,65d2b6c8f2eece985d8e374c,65d2b98980b5775321cab96a,0.0473,0.0474,0,160,160,146,1,sixfive,,,,,,,,,,,,,,,,,,,,,,,,,,,,,,,,,,,,,,,,,,,,,,,,,,,,,,,,,,,,,,,,,,,,,,,,,,,,,,,,,,,,,,,,,,,,,,,,,,,,,,,,,,,,,,,,,,,,,,,,,,,,,,,,,,,,,,,,,
,,6169abd4e006adba4739143e,2024-02-18_20h15.03.409,kallum_motion_pilot,2023.2.2,Win32,60.24096386,6169abd4e006adba4739143e,65d2b6c8f2eece985d8e374c,65d2b98980b5775321cab96a,0.0474,0.0475,0,161,161,54,1,fourtwo,,,,,,,,,,,,,,,,,,,,,,,,,,,,,,,,,,,,,,,,,,,,,,,,,,,,,,,,,,,,,,,,,,,,,,,,,,,,,,,,,,,,,,,,,,,,,,,,,,,,,,,,,,,,,,,,,,,,,,,,,,,,,,,,,,,,,,,,,
,,6169abd4e006adba4739143e,2024-02-18_20h15.03.409,kallum_motion_pilot,2023.2.2,Win32,60.24096386,6169abd4e006adba4739143e,65d2b6c8f2eece985d8e374c,65d2b98980b5775321cab96a,0.0477,0.0484,1,0,162,156,1,sevenfive,,,,,,,,,,,,,,,,,,,,,,,,,,,,,,,,,,,,,,,,,,,,,,,,,,,,,,,,,,,,,,,,,,,,,,,,,,,,,,,,,,,,,,,,,,,,,,,,,,,,,,,,,,,,,,,,,,,,,,,,,,,,,,,,,,,,,,,,,
,,6169abd4e006adba4739143e,2024-02-18_20h15.03.409,kallum_motion_pilot,2023.2.2,Win32,60.24096386,6169abd4e006adba4739143e,65d2b6c8f2eece985d8e374c,65d2b98980b5775321cab96a,0.0485,0.0486,1,1,163,159,1,eightseven,,,,,,,,,,,,,,,,,,,,,,,,,,,,,,,,,,,,,,,,,,,,,,,,,,,,,,,,,,,,,,,,,,,,,,,,,,,,,,,,,,,,,,,,,,,,,,,,,,,,,,,,,,,,,,,,,,,,,,,,,,,,,,,,,,,,,,,,,
,,6169abd4e006adba4739143e,2024-02-18_20h15.03.409,kallum_motion_pilot,2023.2.2,Win32,60.24096386,6169abd4e006adba4739143e,65d2b6c8f2eece985d8e374c,65d2b98980b5775321cab96a,0.0487,0.0487,1,2,164,3,1,twofour,,,,,,,,,,,,,,,,,,,,,,,,,,,,,,,,,,,,,,,,,,,,,,,,,,,,,,,,,,,,,,,,,,,,,,,,,,,,,,,,,,,,,,,,,,,,,,,,,,,,,,,,,,,,,,,,,,,,,,,,,,,,,,,,,,,,,,,,,
,,6169abd4e006adba4739143e,2024-02-18_20h15.03.409,kallum_motion_pilot,2023.2.2,Win32,60.24096386,6169abd4e006adba4739143e,65d2b6c8f2eece985d8e374c,65d2b98980b5775321cab96a,0.0489,0.0489,1,3,165,48,1,onetwo,,,,,,,,,,,,,,,,,,,,,,,,,,,,,,,,,,,,,,,,,,,,,,,,,,,,,,,,,,,,,,,,,,,,,,,,,,,,,,,,,,,,,,,,,,,,,,,,,,,,,,,,,,,,,,,,,,,,,,,,,,,,,,,,,,,,,,,,,
,,6169abd4e006adba4739143e,2024-02-18_20h15.03.409,kallum_motion_pilot,2023.2.2,Win32,60.24096386,6169abd4e006adba4739143e,65d2b6c8f2eece985d8e374c,65d2b98980b5775321cab96a,0.049,0.049,1,4,166,44,1,threeone,,,,,,,,,,,,,,,,,,,,,,,,,,,,,,,,,,,,,,,,,,,,,,,,,,,,,,,,,,,,,,,,,,,,,,,,,,,,,,,,,,,,,,,,,,,,,,,,,,,,,,,,,,,,,,,,,,,,,,,,,,,,,,,,,,,,,,,,,
,,6169abd4e006adba4739143e,2024-02-18_20h15.03.409,kallum_motion_pilot,2023.2.2,Win32,60.24096386,6169abd4e006adba4739143e,65d2b6c8f2eece985d8e374c,65d2b98980b5775321cab96a,0.0491,0.0491,1,5,167,40,1,onetwo,,,,,,,,,,,,,,,,,,,,,,,,,,,,,,,,,,,,,,,,,,,,,,,,,,,,,,,,,,,,,,,,,,,,,,,,,,,,,,,,,,,,,,,,,,,,,,,,,,,,,,,,,,,,,,,,,,,,,,,,,,,,,,,,,,,,,,,,,
,,6169abd4e006adba4739143e,2024-02-18_20h15.03.409,kallum_motion_pilot,2023.2.2,Win32,60.24096386,6169abd4e006adba4739143e,65d2b6c8f2eece985d8e374c,65d2b98980b5775321cab96a,0.0492,0.0493,1,6,168,19,1,twofour,,,,,,,,,,,,,,,,,,,,,,,,,,,,,,,,,,,,,,,,,,,,,,,,,,,,,,,,,,,,,,,,,,,,,,,,,,,,,,,,,,,,,,,,,,,,,,,,,,,,,,,,,,,,,,,,,,,,,,,,,,,,,,,,,,,,,,,,,
,,6169abd4e006adba4739143e,2024-02-18_20h15.03.409,kallum_motion_pilot,2023.2.2,Win32,60.24096386,6169abd4e006adba4739143e,65d2b6c8f2eece985d8e374c,65d2b98980b5775321cab96a,0.0493,0.0494,1,7,169,10,1,twoone,,,,,,,,,,,,,,,,,,,,,,,,,,,,,,,,,,,,,,,,,,,,,,,,,,,,,,,,,,,,,,,,,,,,,,,,,,,,,,,,,,,,,,,,,,,,,,,,,,,,,,,,,,,,,,,,,,,,,,,,,,,,,,,,,,,,,,,,,
,,6169abd4e006adba4739143e,2024-02-18_20h15.03.409,kallum_motion_pilot,2023.2.2,Win32,60.24096386,6169abd4e006adba4739143e,65d2b6c8f2eece985d8e374c,65d2b98980b5775321cab96a,0.0494,0.0495,1,8,170,128,1,fivesix,,,,,,,,,,,,,,,,,,,,,,,,,,,,,,,,,,,,,,,,,,,,,,,,,,,,,,,,,,,,,,,,,,,,,,,,,,,,,,,,,,,,,,,,,,,,,,,,,,,,,,,,,,,,,,,,,,,,,,,,,,,,,,,,,,,,,,,,,
,,6169abd4e006adba4739143e,2024-02-18_20h15.03.409,kallum_motion_pilot,2023.2.2,Win32,60.24096386,6169abd4e006adba4739143e,65d2b6c8f2eece985d8e374c,65d2b98980b5775321cab96a,0.0495,0.0496,1,9,171,141,1,seveneight,,,,,,,,,,,,,,,,,,,,,,,,,,,,,,,,,,,,,,,,,,,,,,,,,,,,,,,,,,,,,,,,,,,,,,,,,,,,,,,,,,,,,,,,,,,,,,,,,,,,,,,,,,,,,,,,,,,,,,,,,,,,,,,,,,,,,,,,,
,,6169abd4e006adba4739143e,2024-02-18_20h15.03.409,kallum_motion_pilot,2023.2.2,Win32,60.24096386,6169abd4e006adba4739143e,65d2b6c8f2eece985d8e374c,65d2b98980b5775321cab96a,0.0497,0.0497,1,10,172,83,1,sixeight,,,,,,,,,,,,,,,,,,,,,,,,,,,,,,,,,,,,,,,,,,,,,,,,,,,,,,,,,,,,,,,,,,,,,,,,,,,,,,,,,,,,,,,,,,,,,,,,,,,,,,,,,,,,,,,,,,,,,,,,,,,,,,,,,,,,,,,,,
,,6169abd4e006adba4739143e,2024-02-18_20h15.03.409,kallum_motion_pilot,2023.2.2,Win32,60.24096386,6169abd4e006adba4739143e,65d2b6c8f2eece985d8e374c,65d2b98980b5775321cab96a,0.0498,0.0499,1,11,173,161,1,fiveseven,,,,,,,,,,,,,,,,,,,,,,,,,,,,,,,,,,,,,,,,,,,,,,,,,,,,,,,,,,,,,,,,,,,,,,,,,,,,,,,,,,,,,,,,,,,,,,,,,,,,,,,,,,,,,,,,,,,,,,,,,,,,,,,,,,,,,,,,,
,,6169abd4e006adba4739143e,2024-02-18_20h15.03.409,kallum_motion_pilot,2023.2.2,Win32,60.24096386,6169abd4e006adba4739143e,65d2b6c8f2eece985d8e374c,65d2b98980b5775321cab96a,0.0499,0.0499,1,12,174,34,1,twoone,,,,,,,,,,,,,,,,,,,,,,,,,,,,,,,,,,,,,,,,,,,,,,,,,,,,,,,,,,,,,,,,,,,,,,,,,,,,,,,,,,,,,,,,,,,,,,,,,,,,,,,,,,,,,,,,,,,,,,,,,,,,,,,,,,,,,,,,,
,,6169abd4e006adba4739143e,2024-02-18_20h15.03.409,kallum_motion_pilot,2023.2.2,Win32,60.24096386,6169abd4e006adba4739143e,65d2b6c8f2eece985d8e374c,65d2b98980b5775321cab96a,0.0501,0.0501,1,13,175,123,1,sixeight,,,,,,,,,,,,,,,,,,,,,,,,,,,,,,,,,,,,,,,,,,,,,,,,,,,,,,,,,,,,,,,,,,,,,,,,,,,,,,,,,,,,,,,,,,,,,,,,,,,,,,,,,,,,,,,,,,,,,,,,,,,,,,,,,,,,,,,,,
,,6169abd4e006adba4739143e,2024-02-18_20h15.03.409,kallum_motion_pilot,2023.2.2,Win32,60.24096386,6169abd4e006adba4739143e,65d2b6c8f2eece985d8e374c,65d2b98980b5775321cab96a,0.0502,0.0503,1,14,176,91,1,sixeight,,,,,,,,,,,,,,,,,,,,,,,,,,,,,,,,,,,,,,,,,,,,,,,,,,,,,,,,,,,,,,,,,,,,,,,,,,,,,,,,,,,,,,,,,,,,,,,,,,,,,,,,,,,,,,,,,,,,,,,,,,,,,,,,,,,,,,,,,
,,6169abd4e006adba4739143e,2024-02-18_20h15.03.409,kallum_motion_pilot,2023.2.2,Win32,60.24096386,6169abd4e006adba4739143e,65d2b6c8f2eece985d8e374c,65d2b98980b5775321cab96a,0.0503,0.0504,1,15,177,14,1,fourtwo,,,,,,,,,,,,,,,,,,,,,,,,,,,,,,,,,,,,,,,,,,,,,,,,,,,,,,,,,,,,,,,,,,,,,,,,,,,,,,,,,,,,,,,,,,,,,,,,,,,,,,,,,,,,,,,,,,,,,,,,,,,,,,,,,,,,,,,,,
,,6169abd4e006adba4739143e,2024-02-18_20h15.03.409,kallum_motion_pilot,2023.2.2,Win32,60.24096386,6169abd4e006adba4739143e,65d2b6c8f2eece985d8e374c,65d2b98980b5775321cab96a,0.0504,0.0505,1,16,178,152,1,fivesix,,,,,,,,,,,,,,,,,,,,,,,,,,,,,,,,,,,,,,,,,,,,,,,,,,,,,,,,,,,,,,,,,,,,,,,,,,,,,,,,,,,,,,,,,,,,,,,,,,,,,,,,,,,,,,,,,,,,,,,,,,,,,,,,,,,,,,,,,
,,6169abd4e006adba4739143e,2024-02-18_20h15.03.409,kallum_motion_pilot,2023.2.2,Win32,60.24096386,6169abd4e006adba4739143e,65d2b6c8f2eece985d8e374c,65d2b98980b5775321cab96a,0.0506,0.0507,1,17,179,84,1,sevenfive,,,,,,,,,,,,,,,,,,,,,,,,,,,,,,,,,,,,,,,,,,,,,,,,,,,,,,,,,,,,,,,,,,,,,,,,,,,,,,,,,,,,,,,,,,,,,,,,,,,,,,,,,,,,,,,,,,,,,,,,,,,,,,,,,,,,,,,,,
,,6169abd4e006adba4739143e,2024-02-18_20h15.03.409,kallum_motion_pilot,2023.2.2,Win32,60.24096386,6169abd4e006adba4739143e,65d2b6c8f2eece985d8e374c,65d2b98980b5775321cab96a,0.0507,0.0508,1,18,180,66,1,twoone,,,,,,,,,,,,,,,,,,,,,,,,,,,,,,,,,,,,,,,,,,,,,,,,,,,,,,,,,,,,,,,,,,,,,,,,,,,,,,,,,,,,,,,,,,,,,,,,,,,,,,,,,,,,,,,,,,,,,,,,,,,,,,,,,,,,,,,,,
,,6169abd4e006adba4739143e,2024-02-18_20h15.03.409,kallum_motion_pilot,2023.2.2,Win32,60.24096386,6169abd4e006adba4739143e,65d2b6c8f2eece985d8e374c,65d2b98980b5775321cab96a,0.0509,0.0509,1,19,181,56,1,onetwo,,,,,,,,,,,,,,,,,,,,,,,,,,,,,,,,,,,,,,,,,,,,,,,,,,,,,,,,,,,,,,,,,,,,,,,,,,,,,,,,,,,,,,,,,,,,,,,,,,,,,,,,,,,,,,,,,,,,,,,,,,,,,,,,,,,,,,,,,
,,6169abd4e006adba4739143e,2024-02-18_20h15.03.409,kallum_motion_pilot,2023.2.2,Win32,60.24096386,6169abd4e006adba4739143e,65d2b6c8f2eece985d8e374c,65d2b98980b5775321cab96a,0.051,0.0511,1,20,182,21,1,threefour,,,,,,,,,,,,,,,,,,,,,,,,,,,,,,,,,,,,,,,,,,,,,,,,,,,,,,,,,,,,,,,,,,,,,,,,,,,,,,,,,,,,,,,,,,,,,,,,,,,,,,,,,,,,,,,,,,,,,,,,,,,,,,,,,,,,,,,,,
,,6169abd4e006adba4739143e,2024-02-18_20h15.03.409,kallum_motion_pilot,2023.2.2,Win32,60.24096386,6169abd4e006adba4739143e,65d2b6c8f2eece985d8e374c,65d2b98980b5775321cab96a,0.0511,0.0511,1,21,183,119,1,eightseven,,,,,,,,,,,,,,,,,,,,,,,,,,,,,,,,,,,,,,,,,,,,,,,,,,,,,,,,,,,,,,,,,,,,,,,,,,,,,,,,,,,,,,,,,,,,,,,,,,,,,,,,,,,,,,,,,,,,,,,,,,,,,,,,,,,,,,,,,
,,6169abd4e006adba4739143e,2024-02-18_20h15.03.409,kallum_motion_pilot,2023.2.2,Win32,60.24096386,6169abd4e006adba4739143e,65d2b6c8f2eece985d8e374c,65d2b98980b5775321cab96a,0.0512,0.0513,1,22,184,60,1,threeone,,,,,,,,,,,,,,,,,,,,,,,,,,,,,,,,,,,,,,,,,,,,,,,,,,,,,,,,,,,,,,,,,,,,,,,,,,,,,,,,,,,,,,,,,,,,,,,,,,,,,,,,,,,,,,,,,,,,,,,,,,,,,,,,,,,,,,,,,
,,6169abd4e006adba4739143e,2024-02-18_20h15.03.409,kallum_motion_pilot,2023.2.2,Win32,60.24096386,6169abd4e006adba4739143e,65d2b6c8f2eece985d8e374c,65d2b98980b5775321cab96a,0.0513,0.0514,1,23,185,61,1,threefour,,,,,,,,,,,,,,,,,,,,,,,,,,,,,,,,,,,,,,,,,,,,,,,,,,,,,,,,,,,,,,,,,,,,,,,,,,,,,,,,,,,,,,,,,,,,,,,,,,,,,,,,,,,,,,,,,,,,,,,,,,,,,,,,,,,,,,,,,
,,6169abd4e006adba4739143e,2024-02-18_20h15.03.409,kallum_motion_pilot,2023.2.2,Win32,60.24096386,6169abd4e006adba4739143e,65d2b6c8f2eece985d8e374c,65d2b98980b5775321cab96a,0.0515,0.0515,1,24,186,153,1,fiveseven,,,,,,,,,,,,,,,,,,,,,,,,,,,,,,,,,,,,,,,,,,,,,,,,,,,,,,,,,,,,,,,,,,,,,,,,,,,,,,,,,,,,,,,,,,,,,,,,,,,,,,,,,,,,,,,,,,,,,,,,,,,,,,,,,,,,,,,,,
,,6169abd4e006adba4739143e,2024-02-18_20h15.03.409,kallum_motion_pilot,2023.2.2,Win32,60.24096386,6169abd4e006adba4739143e,65d2b6c8f2eece985d8e374c,65d2b98980b5775321cab96a,0.0516,0.0517,1,25,187,115,1,sixeight,,,,,,,,,,,,,,,,,,,,,,,,,,,,,,,,,,,,,,,,,,,,,,,,,,,,,,,,,,,,,,,,,,,,,,,,,,,,,,,,,,,,,,,,,,,,,,,,,,,,,,,,,,,,,,,,,,,,,,,,,,,,,,,,,,,,,,,,,
,,6169abd4e006adba4739143e,2024-02-18_20h15.03.409,kallum_motion_pilot,2023.2.2,Win32,60.24096386,6169abd4e006adba4739143e,65d2b6c8f2eece985d8e374c,65d2b98980b5775321cab96a,0.0518,0.0519,1,26,188,149,1,seveneight,,,,,,,,,,,,,,,,,,,,,,,,,,,,,,,,,,,,,,,,,,,,,,,,,,,,,,,,,,,,,,,,,,,,,,,,,,,,,,,,,,,,,,,,,,,,,,,,,,,,,,,,,,,,,,,,,,,,,,,,,,,,,,,,,,,,,,,,,
,,6169abd4e006adba4739143e,2024-02-18_20h15.03.409,kallum_motion_pilot,2023.2.2,Win32,60.24096386,6169abd4e006adba4739143e,65d2b6c8f2eece985d8e374c,65d2b98980b5775321cab96a,0.0519,0.0519,1,27,189,98,1,sixfive,,,,,,,,,,,,,,,,,,,,,,,,,,,,,,,,,,,,,,,,,,,,,,,,,,,,,,,,,,,,,,,,,,,,,,,,,,,,,,,,,,,,,,,,,,,,,,,,,,,,,,,,,,,,,,,,,,,,,,,,,,,,,,,,,,,,,,,,,
,,6169abd4e006adba4739143e,2024-02-18_20h15.03.409,kallum_motion_pilot,2023.2.2,Win32,60.24096386,6169abd4e006adba4739143e,65d2b6c8f2eece985d8e374c,65d2b98980b5775321cab96a,0.052,0.0521,1,28,190,33,1,onethree,,,,,,,,,,,,,,,,,,,,,,,,,,,,,,,,,,,,,,,,,,,,,,,,,,,,,,,,,,,,,,,,,,,,,,,,,,,,,,,,,,,,,,,,,,,,,,,,,,,,,,,,,,,,,,,,,,,,,,,,,,,,,,,,,,,,,,,,,
,,6169abd4e006adba4739143e,2024-02-18_20h15.03.409,kallum_motion_pilot,2023.2.2,Win32,60.24096386,6169abd4e006adba4739143e,65d2b6c8f2eece985d8e374c,65d2b98980b5775321cab96a,0.0521,0.0522,1,29,191,113,1,fiveseven,,,,,,,,,,,,,,,,,,,,,,,,,,,,,,,,,,,,,,,,,,,,,,,,,,,,,,,,,,,,,,,,,,,,,,,,,,,,,,,,,,,,,,,,,,,,,,,,,,,,,,,,,,,,,,,,,,,,,,,,,,,,,,,,,,,,,,,,,
,,6169abd4e006adba4739143e,2024-02-18_20h15.03.409,kallum_motion_pilot,2023.2.2,Win32,60.24096386,6169abd4e006adba4739143e,65d2b6c8f2eece985d8e374c,65d2b98980b5775321cab96a,0.0522,0.0523,1,30,192,137,1,fiveseven,,,,,,,,,,,,,,,,,,,,,,,,,,,,,,,,,,,,,,,,,,,,,,,,,,,,,,,,,,,,,,,,,,,,,,,,,,,,,,,,,,,,,,,,,,,,,,,,,,,,,,,,,,,,,,,,,,,,,,,,,,,,,,,,,,,,,,,,,
,,6169abd4e006adba4739143e,2024-02-18_20h15.03.409,kallum_motion_pilot,2023.2.2,Win32,60.24096386,6169abd4e006adba4739143e,65d2b6c8f2eece985d8e374c,65d2b98980b5775321cab96a,0.0524,0.0525,1,31,193,143,1,eightseven,,,,,,,,,,,,,,,,,,,,,,,,,,,,,,,,,,,,,,,,,,,,,,,,,,,,,,,,,,,,,,,,,,,,,,,,,,,,,,,,,,,,,,,,,,,,,,,,,,,,,,,,,,,,,,,,,,,,,,,,,,,,,,,,,,,,,,,,,
,,6169abd4e006adba4739143e,2024-02-18_20h15.03.409,kallum_motion_pilot,2023.2.2,Win32,60.24096386,6169abd4e006adba4739143e,65d2b6c8f2eece985d8e374c,65d2b98980b5775321cab96a,0.0525,0.0526,1,32,194,45,1,threefour,,,,,,,,,,,,,,,,,,,,,,,,,,,,,,,,,,,,,,,,,,,,,,,,,,,,,,,,,,,,,,,,,,,,,,,,,,,,,,,,,,,,,,,,,,,,,,,,,,,,,,,,,,,,,,,,,,,,,,,,,,,,,,,,,,,,,,,,,
,,6169abd4e006adba4739143e,2024-02-18_20h15.03.409,kallum_motion_pilot,2023.2.2,Win32,60.24096386,6169abd4e006adba4739143e,65d2b6c8f2eece985d8e374c,65d2b98980b5775321cab96a,0.0527,0.0527,1,33,195,9,1,onethree,,,,,,,,,,,,,,,,,,,,,,,,,,,,,,,,,,,,,,,,,,,,,,,,,,,,,,,,,,,,,,,,,,,,,,,,,,,,,,,,,,,,,,,,,,,,,,,,,,,,,,,,,,,,,,,,,,,,,,,,,,,,,,,,,,,,,,,,,
,,6169abd4e006adba4739143e,2024-02-18_20h15.03.409,kallum_motion_pilot,2023.2.2,Win32,60.24096386,6169abd4e006adba4739143e,65d2b6c8f2eece985d8e374c,65d2b98980b5775321cab96a,0.0528,0.0529,1,34,196,26,1,twoone,,,,,,,,,,,,,,,,,,,,,,,,,,,,,,,,,,,,,,,,,,,,,,,,,,,,,,,,,,,,,,,,,,,,,,,,,,,,,,,,,,,,,,,,,,,,,,,,,,,,,,,,,,,,,,,,,,,,,,,,,,,,,,,,,,,,,,,,,
,,6169abd4e006adba4739143e,2024-02-18_20h15.03.409,kallum_motion_pilot,2023.2.2,Win32,60.24096386,6169abd4e006adba4739143e,65d2b6c8f2eece985d8e374c,65d2b98980b5775321cab96a,0.053,0.053,1,35,197,136,1,fivesix,,,,,,,,,,,,,,,,,,,,,,,,,,,,,,,,,,,,,,,,,,,,,,,,,,,,,,,,,,,,,,,,,,,,,,,,,,,,,,,,,,,,,,,,,,,,,,,,,,,,,,,,,,,,,,,,,,,,,,,,,,,,,,,,,,,,,,,,,
,,6169abd4e006adba4739143e,2024-02-18_20h15.03.409,kallum_motion_pilot,2023.2.2,Win32,60.24096386,6169abd4e006adba4739143e,65d2b6c8f2eece985d8e374c,65d2b98980b5775321cab96a,0.0531,0.0532,1,36,198,39,1,fourthree,,,,,,,,,,,,,,,,,,,,,,,,,,,,,,,,,,,,,,,,,,,,,,,,,,,,,,,,,,,,,,,,,,,,,,,,,,,,,,,,,,,,,,,,,,,,,,,,,,,,,,,,,,,,,,,,,,,,,,,,,,,,,,,,,,,,,,,,,
,,6169abd4e006adba4739143e,2024-02-18_20h15.03.409,kallum_motion_pilot,2023.2.2,Win32,60.24096386,6169abd4e006adba4739143e,65d2b6c8f2eece985d8e374c,65d2b98980b5775321cab96a,0.0532,0.0533,1,37,199,127,1,eightseven,,,,,,,,,,,,,,,,,,,,,,,,,,,,,,,,,,,,,,,,,,,,,,,,,,,,,,,,,,,,,,,,,,,,,,,,,,,,,,,,,,,,,,,,,,,,,,,,,,,,,,,,,,,,,,,,,,,,,,,,,,,,,,,,,,,,,,,,,
,,6169abd4e006adba4739143e,2024-02-18_20h15.03.409,kallum_motion_pilot,2023.2.2,Win32,60.24096386,6169abd4e006adba4739143e,65d2b6c8f2eece985d8e374c,65d2b98980b5775321cab96a,0.0533,0.0535,1,38,200,75,1,twofour,,,,,,,,,,,,,,,,,,,,,,,,,,,,,,,,,,,,,,,,,,,,,,,,,,,,,,,,,,,,,,,,,,,,,,,,,,,,,,,,,,,,,,,,,,,,,,,,,,,,,,,,,,,,,,,,,,,,,,,,,,,,,,,,,,,,,,,,,
,,6169abd4e006adba4739143e,2024-02-18_20h15.03.409,kallum_motion_pilot,2023.2.2,Win32,60.24096386,6169abd4e006adba4739143e,65d2b6c8f2eece985d8e374c,65d2b98980b5775321cab96a,0.0535,0.0535,1,39,201,96,1,fivesix,,,,,,,,,,,,,,,,,,,,,,,,,,,,,,,,,,,,,,,,,,,,,,,,,,,,,,,,,,,,,,,,,,,,,,,,,,,,,,,,,,,,,,,,,,,,,,,,,,,,,,,,,,,,,,,,,,,,,,,,,,,,,,,,,,,,,,,,,
,,6169abd4e006adba4739143e,2024-02-18_20h15.03.409,kallum_motion_pilot,2023.2.2,Win32,60.24096386,6169abd4e006adba4739143e,65d2b6c8f2eece985d8e374c,65d2b98980b5775321cab96a,0.0537,0.0537,1,40,202,99,1,sixeight,,,,,,,,,,,,,,,,,,,,,,,,,,,,,,,,,,,,,,,,,,,,,,,,,,,,,,,,,,,,,,,,,,,,,,,,,,,,,,,,,,,,,,,,,,,,,,,,,,,,,,,,,,,,,,,,,,,,,,,,,,,,,,,,,,,,,,,,,
,,6169abd4e006adba4739143e,2024-02-18_20h15.03.409,kallum_motion_pilot,2023.2.2,Win32,60.24096386,6169abd4e006adba4739143e,65d2b6c8f2eece985d8e374c,65d2b98980b5775321cab96a,0.0538,0.0538,1,41,203,12,1,threeone,,,,,,,,,,,,,,,,,,,,,,,,,,,,,,,,,,,,,,,,,,,,,,,,,,,,,,,,,,,,,,,,,,,,,,,,,,,,,,,,,,,,,,,,,,,,,,,,,,,,,,,,,,,,,,,,,,,,,,,,,,,,,,,,,,,,,,,,,
,,6169abd4e006adba4739143e,2024-02-18_20h15.03.409,kallum_motion_pilot,2023.2.2,Win32,60.24096386,6169abd4e006adba4739143e,65d2b6c8f2eece985d8e374c,65d2b98980b5775321cab96a,0.0539,0.054,1,42,204,92,1,sevenfive,,,,,,,,,,,,,,,,,,,,,,,,,,,,,,,,,,,,,,,,,,,,,,,,,,,,,,,,,,,,,,,,,,,,,,,,,,,,,,,,,,,,,,,,,,,,,,,,,,,,,,,,,,,,,,,,,,,,,,,,,,,,,,,,,,,,,,,,,
,,6169abd4e006adba4739143e,2024-02-18_20h15.03.409,kallum_motion_pilot,2023.2.2,Win32,60.24096386,6169abd4e006adba4739143e,65d2b6c8f2eece985d8e374c,65d2b98980b5775321cab96a,0.0541,0.0541,1,43,205,89,1,fiveseven,,,,,,,,,,,,,,,,,,,,,,,,,,,,,,,,,,,,,,,,,,,,,,,,,,,,,,,,,,,,,,,,,,,,,,,,,,,,,,,,,,,,,,,,,,,,,,,,,,,,,,,,,,,,,,,,,,,,,,,,,,,,,,,,,,,,,,,,,
,,6169abd4e006adba4739143e,2024-02-18_20h15.03.409,kallum_motion_pilot,2023.2.2,Win32,60.24096386,6169abd4e006adba4739143e,65d2b6c8f2eece985d8e374c,65d2b98980b5775321cab96a,0.0541,0.0541,1,44,206,13,1,threefour,,,,,,,,,,,,,,,,,,,,,,,,,,,,,,,,,,,,,,,,,,,,,,,,,,,,,,,,,,,,,,,,,,,,,,,,,,,,,,,,,,,,,,,,,,,,,,,,,,,,,,,,,,,,,,,,,,,,,,,,,,,,,,,,,,,,,,,,,
,,6169abd4e006adba4739143e,2024-02-18_20h15.03.409,kallum_motion_pilot,2023.2.2,Win32,60.24096386,6169abd4e006adba4739143e,65d2b6c8f2eece985d8e374c,65d2b98980b5775321cab96a,0.0543,0.0543,1,45,207,120,1,fivesix,,,,,,,,,,,,,,,,,,,,,,,,,,,,,,,,,,,,,,,,,,,,,,,,,,,,,,,,,,,,,,,,,,,,,,,,,,,,,,,,,,,,,,,,,,,,,,,,,,,,,,,,,,,,,,,,,,,,,,,,,,,,,,,,,,,,,,,,,
,,6169abd4e006adba4739143e,2024-02-18_20h15.03.409,kallum_motion_pilot,2023.2.2,Win32,60.24096386,6169abd4e006adba4739143e,65d2b6c8f2eece985d8e374c,65d2b98980b5775321cab96a,0.0543,0.0544,1,46,208,88,1,fivesix,,,,,,,,,,,,,,,,,,,,,,,,,,,,,,,,,,,,,,,,,,,,,,,,,,,,,,,,,,,,,,,,,,,,,,,,,,,,,,,,,,,,,,,,,,,,,,,,,,,,,,,,,,,,,,,,,,,,,,,,,,,,,,,,,,,,,,,,,
,,6169abd4e006adba4739143e,2024-02-18_20h15.03.409,kallum_motion_pilot,2023.2.2,Win32,60.24096386,6169abd4e006adba4739143e,65d2b6c8f2eece985d8e374c,65d2b98980b5775321cab96a,0.0545,0.0546,1,47,209,85,1,seveneight,,,,,,,,,,,,,,,,,,,,,,,,,,,,,,,,,,,,,,,,,,,,,,,,,,,,,,,,,,,,,,,,,,,,,,,,,,,,,,,,,,,,,,,,,,,,,,,,,,,,,,,,,,,,,,,,,,,,,,,,,,,,,,,,,,,,,,,,,
,,6169abd4e006adba4739143e,2024-02-18_20h15.03.409,kallum_motion_pilot,2023.2.2,Win32,60.24096386,6169abd4e006adba4739143e,65d2b6c8f2eece985d8e374c,65d2b98980b5775321cab96a,0.0547,0.0547,1,48,210,148,1,sevenfive,,,,,,,,,,,,,,,,,,,,,,,,,,,,,,,,,,,,,,,,,,,,,,,,,,,,,,,,,,,,,,,,,,,,,,,,,,,,,,,,,,,,,,,,,,,,,,,,,,,,,,,,,,,,,,,,,,,,,,,,,,,,,,,,,,,,,,,,,
,,6169abd4e006adba4739143e,2024-02-18_20h15.03.409,kallum_motion_pilot,2023.2.2,Win32,60.24096386,6169abd4e006adba4739143e,65d2b6c8f2eece985d8e374c,65d2b98980b5775321cab96a,0.0548,0.0549,1,49,211,68,1,threeone,,,,,,,,,,,,,,,,,,,,,,,,,,,,,,,,,,,,,,,,,,,,,,,,,,,,,,,,,,,,,,,,,,,,,,,,,,,,,,,,,,,,,,,,,,,,,,,,,,,,,,,,,,,,,,,,,,,,,,,,,,,,,,,,,,,,,,,,,
,,6169abd4e006adba4739143e,2024-02-18_20h15.03.409,kallum_motion_pilot,2023.2.2,Win32,60.24096386,6169abd4e006adba4739143e,65d2b6c8f2eece985d8e374c,65d2b98980b5775321cab96a,0.0549,0.0549,1,50,212,43,1,twofour,,,,,,,,,,,,,,,,,,,,,,,,,,,,,,,,,,,,,,,,,,,,,,,,,,,,,,,,,,,,,,,,,,,,,,,,,,,,,,,,,,,,,,,,,,,,,,,,,,,,,,,,,,,,,,,,,,,,,,,,,,,,,,,,,,,,,,,,,
,,6169abd4e006adba4739143e,2024-02-18_20h15.03.409,kallum_motion_pilot,2023.2.2,Win32,60.24096386,6169abd4e006adba4739143e,65d2b6c8f2eece985d8e374c,65d2b98980b5775321cab96a,0.0551,0.0551,1,51,213,29,1,threefour,,,,,,,,,,,,,,,,,,,,,,,,,,,,,,,,,,,,,,,,,,,,,,,,,,,,,,,,,,,,,,,,,,,,,,,,,,,,,,,,,,,,,,,,,,,,,,,,,,,,,,,,,,,,,,,,,,,,,,,,,,,,,,,,,,,,,,,,,
,,6169abd4e006adba4739143e,2024-02-18_20h15.03.409,kallum_motion_pilot,2023.2.2,Win32,60.24096386,6169abd4e006adba4739143e,65d2b6c8f2eece985d8e374c,65d2b98980b5775321cab96a,0.0551,0.0553,1,52,214,62,1,fourtwo,,,,,,,,,,,,,,,,,,,,,,,,,,,,,,,,,,,,,,,,,,,,,,,,,,,,,,,,,,,,,,,,,,,,,,,,,,,,,,,,,,,,,,,,,,,,,,,,,,,,,,,,,,,,,,,,,,,,,,,,,,,,,,,,,,,,,,,,,
,,6169abd4e006adba4739143e,2024-02-18_20h15.03.409,kallum_motion_pilot,2023.2.2,Win32,60.24096386,6169abd4e006adba4739143e,65d2b6c8f2eece985d8e374c,65d2b98980b5775321cab96a,0.0553,0.0554,1,53,215,47,1,fourthree,,,,,,,,,,,,,,,,,,,,,,,,,,,,,,,,,,,,,,,,,,,,,,,,,,,,,,,,,,,,,,,,,,,,,,,,,,,,,,,,,,,,,,,,,,,,,,,,,,,,,,,,,,,,,,,,,,,,,,,,,,,,,,,,,,,,,,,,,
,,6169abd4e006adba4739143e,2024-02-18_20h15.03.409,kallum_motion_pilot,2023.2.2,Win32,60.24096386,6169abd4e006adba4739143e,65d2b6c8f2eece985d8e374c,65d2b98980b5775321cab96a,0.0555,0.0555,1,54,216,97,1,fiveseven,,,,,,,,,,,,,,,,,,,,,,,,,,,,,,,,,,,,,,,,,,,,,,,,,,,,,,,,,,,,,,,,,,,,,,,,,,,,,,,,,,,,,,,,,,,,,,,,,,,,,,,,,,,,,,,,,,,,,,,,,,,,,,,,,,,,,,,,,
,,6169abd4e006adba4739143e,2024-02-18_20h15.03.409,kallum_motion_pilot,2023.2.2,Win32,60.24096386,6169abd4e006adba4739143e,65d2b6c8f2eece985d8e374c,65d2b98980b5775321cab96a,0.0556,0.0556,1,55,217,16,1,onetwo,,,,,,,,,,,,,,,,,,,,,,,,,,,,,,,,,,,,,,,,,,,,,,,,,,,,,,,,,,,,,,,,,,,,,,,,,,,,,,,,,,,,,,,,,,,,,,,,,,,,,,,,,,,,,,,,,,,,,,,,,,,,,,,,,,,,,,,,,
,,6169abd4e006adba4739143e,2024-02-18_20h15.03.409,kallum_motion_pilot,2023.2.2,Win32,60.24096386,6169abd4e006adba4739143e,65d2b6c8f2eece985d8e374c,65d2b98980b5775321cab96a,0.0557,0.0558,1,56,218,35,1,twofour,,,,,,,,,,,,,,,,,,,,,,,,,,,,,,,,,,,,,,,,,,,,,,,,,,,,,,,,,,,,,,,,,,,,,,,,,,,,,,,,,,,,,,,,,,,,,,,,,,,,,,,,,,,,,,,,,,,,,,,,,,,,,,,,,,,,,,,,,
,,6169abd4e006adba4739143e,2024-02-18_20h15.03.409,kallum_motion_pilot,2023.2.2,Win32,60.24096386,6169abd4e006adba4739143e,65d2b6c8f2eece985d8e374c,65d2b98980b5775321cab96a,0.0559,0.0559,1,57,219,63,1,fourthree,,,,,,,,,,,,,,,,,,,,,,,,,,,,,,,,,,,,,,,,,,,,,,,,,,,,,,,,,,,,,,,,,,,,,,,,,,,,,,,,,,,,,,,,,,,,,,,,,,,,,,,,,,,,,,,,,,,,,,,,,,,,,,,,,,,,,,,,,
,,6169abd4e006adba4739143e,2024-02-18_20h15.03.409,kallum_motion_pilot,2023.2.2,Win32,60.24096386,6169abd4e006adba4739143e,65d2b6c8f2eece985d8e374c,65d2b98980b5775321cab96a,0.056,0.0561,1,58,220,112,1,fivesix,,,,,,,,,,,,,,,,,,,,,,,,,,,,,,,,,,,,,,,,,,,,,,,,,,,,,,,,,,,,,,,,,,,,,,,,,,,,,,,,,,,,,,,,,,,,,,,,,,,,,,,,,,,,,,,,,,,,,,,,,,,,,,,,,,,,,,,,,
,,6169abd4e006adba4739143e,2024-02-18_20h15.03.409,kallum_motion_pilot,2023.2.2,Win32,60.24096386,6169abd4e006adba4739143e,65d2b6c8f2eece985d8e374c,65d2b98980b5775321cab96a,0.0561,0.0562,1,59,221,106,1,sixfive,,,,,,,,,,,,,,,,,,,,,,,,,,,,,,,,,,,,,,,,,,,,,,,,,,,,,,,,,,,,,,,,,,,,,,,,,,,,,,,,,,,,,,,,,,,,,,,,,,,,,,,,,,,,,,,,,,,,,,,,,,,,,,,,,,,,,,,,,
,,6169abd4e006adba4739143e,2024-02-18_20h15.03.409,kallum_motion_pilot,2023.2.2,Win32,60.24096386,6169abd4e006adba4739143e,65d2b6c8f2eece985d8e374c,65d2b98980b5775321cab96a,0.0562,0.0563,1,60,222,107,1,sixeight,,,,,,,,,,,,,,,,,,,,,,,,,,,,,,,,,,,,,,,,,,,,,,,,,,,,,,,,,,,,,,,,,,,,,,,,,,,,,,,,,,,,,,,,,,,,,,,,,,,,,,,,,,,,,,,,,,,,,,,,,,,,,,,,,,,,,,,,,
,,6169abd4e006adba4739143e,2024-02-18_20h15.03.409,kallum_motion_pilot,2023.2.2,Win32,60.24096386,6169abd4e006adba4739143e,65d2b6c8f2eece985d8e374c,65d2b98980b5775321cab96a,0.0564,0.0564,1,61,223,70,1,fourtwo,,,,,,,,,,,,,,,,,,,,,,,,,,,,,,,,,,,,,,,,,,,,,,,,,,,,,,,,,,,,,,,,,,,,,,,,,,,,,,,,,,,,,,,,,,,,,,,,,,,,,,,,,,,,,,,,,,,,,,,,,,,,,,,,,,,,,,,,,
,,6169abd4e006adba4739143e,2024-02-18_20h15.03.409,kallum_motion_pilot,2023.2.2,Win32,60.24096386,6169abd4e006adba4739143e,65d2b6c8f2eece985d8e374c,65d2b98980b5775321cab96a,0.0565,0.0566,1,62,224,77,1,threefour,,,,,,,,,,,,,,,,,,,,,,,,,,,,,,,,,,,,,,,,,,,,,,,,,,,,,,,,,,,,,,,,,,,,,,,,,,,,,,,,,,,,,,,,,,,,,,,,,,,,,,,,,,,,,,,,,,,,,,,,,,,,,,,,,,,,,,,,,
,,6169abd4e006adba4739143e,2024-02-18_20h15.03.409,kallum_motion_pilot,2023.2.2,Win32,60.24096386,6169abd4e006adba4739143e,65d2b6c8f2eece985d8e374c,65d2b98980b5775321cab96a,0.0567,0.0567,1,63,225,109,1,seveneight,,,,,,,,,,,,,,,,,,,,,,,,,,,,,,,,,,,,,,,,,,,,,,,,,,,,,,,,,,,,,,,,,,,,,,,,,,,,,,,,,,,,,,,,,,,,,,,,,,,,,,,,,,,,,,,,,,,,,,,,,,,,,,,,,,,,,,,,,
,,6169abd4e006adba4739143e,2024-02-18_20h15.03.409,kallum_motion_pilot,2023.2.2,Win32,60.24096386,6169abd4e006adba4739143e,65d2b6c8f2eece985d8e374c,65d2b98980b5775321cab96a,0.0568,0.0569,1,64,226,78,1,fourtwo,,,,,,,,,,,,,,,,,,,,,,,,,,,,,,,,,,,,,,,,,,,,,,,,,,,,,,,,,,,,,,,,,,,,,,,,,,,,,,,,,,,,,,,,,,,,,,,,,,,,,,,,,,,,,,,,,,,,,,,,,,,,,,,,,,,,,,,,,
,,6169abd4e006adba4739143e,2024-02-18_20h15.03.409,kallum_motion_pilot,2023.2.2,Win32,60.24096386,6169abd4e006adba4739143e,65d2b6c8f2eece985d8e374c,65d2b98980b5775321cab96a,0.0569,0.057,1,65,227,58,1,twoone,,,,,,,,,,,,,,,,,,,,,,,,,,,,,,,,,,,,,,,,,,,,,,,,,,,,,,,,,,,,,,,,,,,,,,,,,,,,,,,,,,,,,,,,,,,,,,,,,,,,,,,,,,,,,,,,,,,,,,,,,,,,,,,,,,,,,,,,,
,,6169abd4e006adba4739143e,2024-02-18_20h15.03.409,kallum_motion_pilot,2023.2.2,Win32,60.24096386,6169abd4e006adba4739143e,65d2b6c8f2eece985d8e374c,65d2b98980b5775321cab96a,0.0571,0.0571,1,66,228,5,1,threefour,,,,,,,,,,,,,,,,,,,,,,,,,,,,,,,,,,,,,,,,,,,,,,,,,,,,,,,,,,,,,,,,,,,,,,,,,,,,,,,,,,,,,,,,,,,,,,,,,,,,,,,,,,,,,,,,,,,,,,,,,,,,,,,,,,,,,,,,,
,,6169abd4e006adba4739143e,2024-02-18_20h15.03.409,kallum_motion_pilot,2023.2.2,Win32,60.24096386,6169abd4e006adba4739143e,65d2b6c8f2eece985d8e374c,65d2b98980b5775321cab96a,0.0572,0.0573,1,67,229,41,1,onethree,,,,,,,,,,,,,,,,,,,,,,,,,,,,,,,,,,,,,,,,,,,,,,,,,,,,,,,,,,,,,,,,,,,,,,,,,,,,,,,,,,,,,,,,,,,,,,,,,,,,,,,,,,,,,,,,,,,,,,,,,,,,,,,,,,,,,,,,,
,,6169abd4e006adba4739143e,2024-02-18_20h15.03.409,kallum_motion_pilot,2023.2.2,Win32,60.24096386,6169abd4e006adba4739143e,65d2b6c8f2eece985d8e374c,65d2b98980b5775321cab96a,0.0574,0.0574,1,68,230,146,1,sixfive,,,,,,,,,,,,,,,,,,,,,,,,,,,,,,,,,,,,,,,,,,,,,,,,,,,,,,,,,,,,,,,,,,,,,,,,,,,,,,,,,,,,,,,,,,,,,,,,,,,,,,,,,,,,,,,,,,,,,,,,,,,,,,,,,,,,,,,,,
,,6169abd4e006adba4739143e,2024-02-18_20h15.03.409,kallum_motion_pilot,2023.2.2,Win32,60.24096386,6169abd4e006adba4739143e,65d2b6c8f2eece985d8e374c,65d2b98980b5775321cab96a,0.0574,0.0574,1,69,231,154,1,sixfive,,,,,,,,,,,,,,,,,,,,,,,,,,,,,,,,,,,,,,,,,,,,,,,,,,,,,,,,,,,,,,,,,,,,,,,,,,,,,,,,,,,,,,,,,,,,,,,,,,,,,,,,,,,,,,,,,,,,,,,,,,,,,,,,,,,,,,,,,
,,6169abd4e006adba4739143e,2024-02-18_20h15.03.409,kallum_motion_pilot,2023.2.2,Win32,60.24096386,6169abd4e006adba4739143e,65d2b6c8f2eece985d8e374c,65d2b98980b5775321cab96a,0.0576,0.0576,1,70,232,32,1,onetwo,,,,,,,,,,,,,,,,,,,,,,,,,,,,,,,,,,,,,,,,,,,,,,,,,,,,,,,,,,,,,,,,,,,,,,,,,,,,,,,,,,,,,,,,,,,,,,,,,,,,,,,,,,,,,,,,,,,,,,,,,,,,,,,,,,,,,,,,,
,,6169abd4e006adba4739143e,2024-02-18_20h15.03.409,kallum_motion_pilot,2023.2.2,Win32,60.24096386,6169abd4e006adba4739143e,65d2b6c8f2eece985d8e374c,65d2b98980b5775321cab96a,0.0576,0.0577,1,71,233,23,1,fourthree,,,,,,,,,,,,,,,,,,,,,,,,,,,,,,,,,,,,,,,,,,,,,,,,,,,,,,,,,,,,,,,,,,,,,,,,,,,,,,,,,,,,,,,,,,,,,,,,,,,,,,,,,,,,,,,,,,,,,,,,,,,,,,,,,,,,,,,,,
,,6169abd4e006adba4739143e,2024-02-18_20h15.03.409,kallum_motion_pilot,2023.2.2,Win32,60.24096386,6169abd4e006adba4739143e,65d2b6c8f2eece985d8e374c,65d2b98980b5775321cab96a,0.0578,0.0579,1,72,234,15,1,fourthree,,,,,,,,,,,,,,,,,,,,,,,,,,,,,,,,,,,,,,,,,,,,,,,,,,,,,,,,,,,,,,,,,,,,,,,,,,,,,,,,,,,,,,,,,,,,,,,,,,,,,,,,,,,,,,,,,,,,,,,,,,,,,,,,,,,,,,,,,
,,6169abd4e006adba4739143e,2024-02-18_20h15.03.409,kallum_motion_pilot,2023.2.2,Win32,60.24096386,6169abd4e006adba4739143e,65d2b6c8f2eece985d8e374c,65d2b98980b5775321cab96a,0.058,0.058,1,73,235,2,1,twoone,,,,,,,,,,,,,,,,,,,,,,,,,,,,,,,,,,,,,,,,,,,,,,,,,,,,,,,,,,,,,,,,,,,,,,,,,,,,,,,,,,,,,,,,,,,,,,,,,,,,,,,,,,,,,,,,,,,,,,,,,,,,,,,,,,,,,,,,,
,,6169abd4e006adba4739143e,2024-02-18_20h15.03.409,kallum_motion_pilot,2023.2.2,Win32,60.24096386,6169abd4e006adba4739143e,65d2b6c8f2eece985d8e374c,65d2b98980b5775321cab96a,0.058,0.058,1,74,236,18,1,twoone,,,,,,,,,,,,,,,,,,,,,,,,,,,,,,,,,,,,,,,,,,,,,,,,,,,,,,,,,,,,,,,,,,,,,,,,,,,,,,,,,,,,,,,,,,,,,,,,,,,,,,,,,,,,,,,,,,,,,,,,,,,,,,,,,,,,,,,,,
,,6169abd4e006adba4739143e,2024-02-18_20h15.03.409,kallum_motion_pilot,2023.2.2,Win32,60.24096386,6169abd4e006adba4739143e,65d2b6c8f2eece985d8e374c,65d2b98980b5775321cab96a,0.0581,0.0582,1,75,237,145,1,fiveseven,,,,,,,,,,,,,,,,,,,,,,,,,,,,,,,,,,,,,,,,,,,,,,,,,,,,,,,,,,,,,,,,,,,,,,,,,,,,,,,,,,,,,,,,,,,,,,,,,,,,,,,,,,,,,,,,,,,,,,,,,,,,,,,,,,,,,,,,,
,,6169abd4e006adba4739143e,2024-02-18_20h15.03.409,kallum_motion_pilot,2023.2.2,Win32,60.24096386,6169abd4e006adba4739143e,65d2b6c8f2eece985d8e374c,65d2b98980b5775321cab96a,0.0583,0.0584,1,76,238,116,1,sevenfive,,,,,,,,,,,,,,,,,,,,,,,,,,,,,,,,,,,,,,,,,,,,,,,,,,,,,,,,,,,,,,,,,,,,,,,,,,,,,,,,,,,,,,,,,,,,,,,,,,,,,,,,,,,,,,,,,,,,,,,,,,,,,,,,,,,,,,,,,
,,6169abd4e006adba4739143e,2024-02-18_20h15.03.409,kallum_motion_pilot,2023.2.2,Win32,60.24096386,6169abd4e006adba4739143e,65d2b6c8f2eece985d8e374c,65d2b98980b5775321cab96a,0.0584,0.0584,1,77,239,37,1,threefour,,,,,,,,,,,,,,,,,,,,,,,,,,,,,,,,,,,,,,,,,,,,,,,,,,,,,,,,,,,,,,,,,,,,,,,,,,,,,,,,,,,,,,,,,,,,,,,,,,,,,,,,,,,,,,,,,,,,,,,,,,,,,,,,,,,,,,,,,
,,6169abd4e006adba4739143e,2024-02-18_20h15.03.409,kallum_motion_pilot,2023.2.2,Win32,60.24096386,6169abd4e006adba4739143e,65d2b6c8f2eece985d8e374c,65d2b98980b5775321cab96a,0.0585,0.0586,1,78,240,155,1,sixeight,,,,,,,,,,,,,,,,,,,,,,,,,,,,,,,,,,,,,,,,,,,,,,,,,,,,,,,,,,,,,,,,,,,,,,,,,,,,,,,,,,,,,,,,,,,,,,,,,,,,,,,,,,,,,,,,,,,,,,,,,,,,,,,,,,,,,,,,,
,,6169abd4e006adba4739143e,2024-02-18_20h15.03.409,kallum_motion_pilot,2023.2.2,Win32,60.24096386,6169abd4e006adba4739143e,65d2b6c8f2eece985d8e374c,65d2b98980b5775321cab96a,0.0586,0.0587,1,79,241,90,1,sixfive,,,,,,,,,,,,,,,,,,,,,,,,,,,,,,,,,,,,,,,,,,,,,,,,,,,,,,,,,,,,,,,,,,,,,,,,,,,,,,,,,,,,,,,,,,,,,,,,,,,,,,,,,,,,,,,,,,,,,,,,,,,,,,,,,,,,,,,,,
,,6169abd4e006adba4739143e,2024-02-18_20h15.03.409,kallum_motion_pilot,2023.2.2,Win32,60.24096386,6169abd4e006adba4739143e,65d2b6c8f2eece985d8e374c,65d2b98980b5775321cab96a,0.0588,0.0589,1,80,242,20,1,threeone,,,,,,,,,,,,,,,,,,,,,,,,,,,,,,,,,,,,,,,,,,,,,,,,,,,,,,,,,,,,,,,,,,,,,,,,,,,,,,,,,,,,,,,,,,,,,,,,,,,,,,,,,,,,,,,,,,,,,,,,,,,,,,,,,,,,,,,,,
,,6169abd4e006adba4739143e,2024-02-18_20h15.03.409,kallum_motion_pilot,2023.2.2,Win32,60.24096386,6169abd4e006adba4739143e,65d2b6c8f2eece985d8e374c,65d2b98980b5775321cab96a,0.0589,0.059,1,81,243,54,1,fourtwo,,,,,,,,,,,,,,,,,,,,,,,,,,,,,,,,,,,,,,,,,,,,,,,,,,,,,,,,,,,,,,,,,,,,,,,,,,,,,,,,,,,,,,,,,,,,,,,,,,,,,,,,,,,,,,,,,,,,,,,,,,,,,,,,,,,,,,,,,
,,6169abd4e006adba4739143e,2024-02-18_20h15.03.409,kallum_motion_pilot,2023.2.2,Win32,60.24096386,6169abd4e006adba4739143e,65d2b6c8f2eece985d8e374c,65d2b98980b5775321cab96a,0.059,0.0591,1,82,244,42,1,twoone,,,,,,,,,,,,,,,,,,,,,,,,,,,,,,,,,,,,,,,,,,,,,,,,,,,,,,,,,,,,,,,,,,,,,,,,,,,,,,,,,,,,,,,,,,,,,,,,,,,,,,,,,,,,,,,,,,,,,,,,,,,,,,,,,,,,,,,,,
,,6169abd4e006adba4739143e,2024-02-18_20h15.03.409,kallum_motion_pilot,2023.2.2,Win32,60.24096386,6169abd4e006adba4739143e,65d2b6c8f2eece985d8e374c,65d2b98980b5775321cab96a,0.0593,0.0593,1,83,245,76,1,threeone,,,,,,,,,,,,,,,,,,,,,,,,,,,,,,,,,,,,,,,,,,,,,,,,,,,,,,,,,,,,,,,,,,,,,,,,,,,,,,,,,,,,,,,,,,,,,,,,,,,,,,,,,,,,,,,,,,,,,,,,,,,,,,,,,,,,,,,,,
,,6169abd4e006adba4739143e,2024-02-18_20h15.03.409,kallum_motion_pilot,2023.2.2,Win32,60.24096386,6169abd4e006adba4739143e,65d2b6c8f2eece985d8e374c,65d2b98980b5775321cab96a,0.0594,0.0595,1,84,246,69,1,threefour,,,,,,,,,,,,,,,,,,,,,,,,,,,,,,,,,,,,,,,,,,,,,,,,,,,,,,,,,,,,,,,,,,,,,,,,,,,,,,,,,,,,,,,,,,,,,,,,,,,,,,,,,,,,,,,,,,,,,,,,,,,,,,,,,,,,,,,,,
,,6169abd4e006adba4739143e,2024-02-18_20h15.03.409,kallum_motion_pilot,2023.2.2,Win32,60.24096386,6169abd4e006adba4739143e,65d2b6c8f2eece985d8e374c,65d2b98980b5775321cab96a,0.0595,0.0596,1,85,247,55,1,fourthree,,,,,,,,,,,,,,,,,,,,,,,,,,,,,,,,,,,,,,,,,,,,,,,,,,,,,,,,,,,,,,,,,,,,,,,,,,,,,,,,,,,,,,,,,,,,,,,,,,,,,,,,,,,,,,,,,,,,,,,,,,,,,,,,,,,,,,,,,
,,6169abd4e006adba4739143e,2024-02-18_20h15.03.409,kallum_motion_pilot,2023.2.2,Win32,60.24096386,6169abd4e006adba4739143e,65d2b6c8f2eece985d8e374c,65d2b98980b5775321cab96a,0.0597,0.0597,1,86,248,7,1,fourthree,,,,,,,,,,,,,,,,,,,,,,,,,,,,,,,,,,,,,,,,,,,,,,,,,,,,,,,,,,,,,,,,,,,,,,,,,,,,,,,,,,,,,,,,,,,,,,,,,,,,,,,,,,,,,,,,,,,,,,,,,,,,,,,,,,,,,,,,,
,,6169abd4e006adba4739143e,2024-02-18_20h15.03.409,kallum_motion_pilot,2023.2.2,Win32,60.24096386,6169abd4e006adba4739143e,65d2b6c8f2eece985d8e374c,65d2b98980b5775321cab96a,0.0598,0.0598,1,87,249,126,1,eightsix,,,,,,,,,,,,,,,,,,,,,,,,,,,,,,,,,,,,,,,,,,,,,,,,,,,,,,,,,,,,,,,,,,,,,,,,,,,,,,,,,,,,,,,,,,,,,,,,,,,,,,,,,,,,,,,,,,,,,,,,,,,,,,,,,,,,,,,,,
,,6169abd4e006adba4739143e,2024-02-18_20h15.03.409,kallum_motion_pilot,2023.2.2,Win32,60.24096386,6169abd4e006adba4739143e,65d2b6c8f2eece985d8e374c,65d2b98980b5775321cab96a,0.0599,0.06,1,88,250,95,1,eightseven,,,,,,,,,,,,,,,,,,,,,,,,,,,,,,,,,,,,,,,,,,,,,,,,,,,,,,,,,,,,,,,,,,,,,,,,,,,,,,,,,,,,,,,,,,,,,,,,,,,,,,,,,,,,,,,,,,,,,,,,,,,,,,,,,,,,,,,,,
,,6169abd4e006adba4739143e,2024-02-18_20h15.03.409,kallum_motion_pilot,2023.2.2,Win32,60.24096386,6169abd4e006adba4739143e,65d2b6c8f2eece985d8e374c,65d2b98980b5775321cab96a,0.0601,0.0601,1,89,251,140,1,sevenfive,,,,,,,,,,,,,,,,,,,,,,,,,,,,,,,,,,,,,,,,,,,,,,,,,,,,,,,,,,,,,,,,,,,,,,,,,,,,,,,,,,,,,,,,,,,,,,,,,,,,,,,,,,,,,,,,,,,,,,,,,,,,,,,,,,,,,,,,,
,,6169abd4e006adba4739143e,2024-02-18_20h15.03.409,kallum_motion_pilot,2023.2.2,Win32,60.24096386,6169abd4e006adba4739143e,65d2b6c8f2eece985d8e374c,65d2b98980b5775321cab96a,0.0602,0.0603,1,90,252,51,1,twofour,,,,,,,,,,,,,,,,,,,,,,,,,,,,,,,,,,,,,,,,,,,,,,,,,,,,,,,,,,,,,,,,,,,,,,,,,,,,,,,,,,,,,,,,,,,,,,,,,,,,,,,,,,,,,,,,,,,,,,,,,,,,,,,,,,,,,,,,,
,,6169abd4e006adba4739143e,2024-02-18_20h15.03.409,kallum_motion_pilot,2023.2.2,Win32,60.24096386,6169abd4e006adba4739143e,65d2b6c8f2eece985d8e374c,65d2b98980b5775321cab96a,0.0603,0.0604,1,91,253,105,1,fiveseven,,,,,,,,,,,,,,,,,,,,,,,,,,,,,,,,,,,,,,,,,,,,,,,,,,,,,,,,,,,,,,,,,,,,,,,,,,,,,,,,,,,,,,,,,,,,,,,,,,,,,,,,,,,,,,,,,,,,,,,,,,,,,,,,,,,,,,,,,
,,6169abd4e006adba4739143e,2024-02-18_20h15.03.409,kallum_motion_pilot,2023.2.2,Win32,60.24096386,6169abd4e006adba4739143e,65d2b6c8f2eece985d8e374c,65d2b98980b5775321cab96a,0.0604,0.0606,1,92,254,104,1,fivesix,,,,,,,,,,,,,,,,,,,,,,,,,,,,,,,,,,,,,,,,,,,,,,,,,,,,,,,,,,,,,,,,,,,,,,,,,,,,,,,,,,,,,,,,,,,,,,,,,,,,,,,,,,,,,,,,,,,,,,,,,,,,,,,,,,,,,,,,,
,,6169abd4e006adba4739143e,2024-02-18_20h15.03.409,kallum_motion_pilot,2023.2.2,Win32,60.24096386,6169abd4e006adba4739143e,65d2b6c8f2eece985d8e374c,65d2b98980b5775321cab96a,0.0607,0.0609,1,93,255,158,1,eightsix,,,,,,,,,,,,,,,,,,,,,,,,,,,,,,,,,,,,,,,,,,,,,,,,,,,,,,,,,,,,,,,,,,,,,,,,,,,,,,,,,,,,,,,,,,,,,,,,,,,,,,,,,,,,,,,,,,,,,,,,,,,,,,,,,,,,,,,,,
,,6169abd4e006adba4739143e,2024-02-18_20h15.03.409,kallum_motion_pilot,2023.2.2,Win32,60.24096386,6169abd4e006adba4739143e,65d2b6c8f2eece985d8e374c,65d2b98980b5775321cab96a,0.0609,0.0611,1,94,256,59,1,twofour,,,,,,,,,,,,,,,,,,,,,,,,,,,,,,,,,,,,,,,,,,,,,,,,,,,,,,,,,,,,,,,,,,,,,,,,,,,,,,,,,,,,,,,,,,,,,,,,,,,,,,,,,,,,,,,,,,,,,,,,,,,,,,,,,,,,,,,,,
,,6169abd4e006adba4739143e,2024-02-18_20h15.03.409,kallum_motion_pilot,2023.2.2,Win32,60.24096386,6169abd4e006adba4739143e,65d2b6c8f2eece985d8e374c,65d2b98980b5775321cab96a,0.0612,0.0613,1,95,257,108,1,sevenfive,,,,,,,,,,,,,,,,,,,,,,,,,,,,,,,,,,,,,,,,,,,,,,,,,,,,,,,,,,,,,,,,,,,,,,,,,,,,,,,,,,,,,,,,,,,,,,,,,,,,,,,,,,,,,,,,,,,,,,,,,,,,,,,,,,,,,,,,,
,,6169abd4e006adba4739143e,2024-02-18_20h15.03.409,kallum_motion_pilot,2023.2.2,Win32,60.24096386,6169abd4e006adba4739143e,65d2b6c8f2eece985d8e374c,65d2b98980b5775321cab96a,0.0614,0.0614,1,96,258,46,1,fourtwo,,,,,,,,,,,,,,,,,,,,,,,,,,,,,,,,,,,,,,,,,,,,,,,,,,,,,,,,,,,,,,,,,,,,,,,,,,,,,,,,,,,,,,,,,,,,,,,,,,,,,,,,,,,,,,,,,,,,,,,,,,,,,,,,,,,,,,,,,
,,6169abd4e006adba4739143e,2024-02-18_20h15.03.409,kallum_motion_pilot,2023.2.2,Win32,60.24096386,6169abd4e006adba4739143e,65d2b6c8f2eece985d8e374c,65d2b98980b5775321cab96a,0.0614,0.0615,1,97,259,80,1,fivesix,,,,,,,,,,,,,,,,,,,,,,,,,,,,,,,,,,,,,,,,,,,,,,,,,,,,,,,,,,,,,,,,,,,,,,,,,,,,,,,,,,,,,,,,,,,,,,,,,,,,,,,,,,,,,,,,,,,,,,,,,,,,,,,,,,,,,,,,,
,,6169abd4e006adba4739143e,2024-02-18_20h15.03.409,kallum_motion_pilot,2023.2.2,Win32,60.24096386,6169abd4e006adba4739143e,65d2b6c8f2eece985d8e374c,65d2b98980b5775321cab96a,0.0616,0.0617,1,98,260,25,1,onethree,,,,,,,,,,,,,,,,,,,,,,,,,,,,,,,,,,,,,,,,,,,,,,,,,,,,,,,,,,,,,,,,,,,,,,,,,,,,,,,,,,,,,,,,,,,,,,,,,,,,,,,,,,,,,,,,,,,,,,,,,,,,,,,,,,,,,,,,,
,,6169abd4e006adba4739143e,2024-02-18_20h15.03.409,kallum_motion_pilot,2023.2.2,Win32,60.24096386,6169abd4e006adba4739143e,65d2b6c8f2eece985d8e374c,65d2b98980b5775321cab96a,0.0618,0.0619,1,99,261,121,1,fiveseven,,,,,,,,,,,,,,,,,,,,,,,,,,,,,,,,,,,,,,,,,,,,,,,,,,,,,,,,,,,,,,,,,,,,,,,,,,,,,,,,,,,,,,,,,,,,,,,,,,,,,,,,,,,,,,,,,,,,,,,,,,,,,,,,,,,,,,,,,
,,6169abd4e006adba4739143e,2024-02-18_20h15.03.409,kallum_motion_pilot,2023.2.2,Win32,60.24096386,6169abd4e006adba4739143e,65d2b6c8f2eece985d8e374c,65d2b98980b5775321cab96a,0.0621,0.0622,1,100,262,135,1,eightseven,,,,,,,,,,,,,,,,,,,,,,,,,,,,,,,,,,,,,,,,,,,,,,,,,,,,,,,,,,,,,,,,,,,,,,,,,,,,,,,,,,,,,,,,,,,,,,,,,,,,,,,,,,,,,,,,,,,,,,,,,,,,,,,,,,,,,,,,,
,,6169abd4e006adba4739143e,2024-02-18_20h15.03.409,kallum_motion_pilot,2023.2.2,Win32,60.24096386,6169abd4e006adba4739143e,65d2b6c8f2eece985d8e374c,65d2b98980b5775321cab96a,0.0623,0.0623,1,101,263,65,1,onethree,,,,,,,,,,,,,,,,,,,,,,,,,,,,,,,,,,,,,,,,,,,,,,,,,,,,,,,,,,,,,,,,,,,,,,,,,,,,,,,,,,,,,,,,,,,,,,,,,,,,,,,,,,,,,,,,,,,,,,,,,,,,,,,,,,,,,,,,,
,,6169abd4e006adba4739143e,2024-02-18_20h15.03.409,kallum_motion_pilot,2023.2.2,Win32,60.24096386,6169abd4e006adba4739143e,65d2b6c8f2eece985d8e374c,65d2b98980b5775321cab96a,0.0625,0.0627,1,102,264,117,1,seveneight,,,,,,,,,,,,,,,,,,,,,,,,,,,,,,,,,,,,,,,,,,,,,,,,,,,,,,,,,,,,,,,,,,,,,,,,,,,,,,,,,,,,,,,,,,,,,,,,,,,,,,,,,,,,,,,,,,,,,,,,,,,,,,,,,,,,,,,,,
,,6169abd4e006adba4739143e,2024-02-18_20h15.03.409,kallum_motion_pilot,2023.2.2,Win32,60.24096386,6169abd4e006adba4739143e,65d2b6c8f2eece985d8e374c,65d2b98980b5775321cab96a,0.0629,0.063,1,103,265,151,1,eightseven,,,,,,,,,,,,,,,,,,,,,,,,,,,,,,,,,,,,,,,,,,,,,,,,,,,,,,,,,,,,,,,,,,,,,,,,,,,,,,,,,,,,,,,,,,,,,,,,,,,,,,,,,,,,,,,,,,,,,,,,,,,,,,,,,,,,,,,,,
,,6169abd4e006adba4739143e,2024-02-18_20h15.03.409,kallum_motion_pilot,2023.2.2,Win32,60.24096386,6169abd4e006adba4739143e,65d2b6c8f2eece985d8e374c,65d2b98980b5775321cab96a,0.0631,0.0632,1,104,266,53,1,threefour,,,,,,,,,,,,,,,,,,,,,,,,,,,,,,,,,,,,,,,,,,,,,,,,,,,,,,,,,,,,,,,,,,,,,,,,,,,,,,,,,,,,,,,,,,,,,,,,,,,,,,,,,,,,,,,,,,,,,,,,,,,,,,,,,,,,,,,,,
,,6169abd4e006adba4739143e,2024-02-18_20h15.03.409,kallum_motion_pilot,2023.2.2,Win32,60.24096386,6169abd4e006adba4739143e,65d2b6c8f2eece985d8e374c,65d2b98980b5775321cab96a,0.0633,0.0635,1,105,267,142,1,eightsix,,,,,,,,,,,,,,,,,,,,,,,,,,,,,,,,,,,,,,,,,,,,,,,,,,,,,,,,,,,,,,,,,,,,,,,,,,,,,,,,,,,,,,,,,,,,,,,,,,,,,,,,,,,,,,,,,,,,,,,,,,,,,,,,,,,,,,,,,
,,6169abd4e006adba4739143e,2024-02-18_20h15.03.409,kallum_motion_pilot,2023.2.2,Win32,60.24096386,6169abd4e006adba4739143e,65d2b6c8f2eece985d8e374c,65d2b98980b5775321cab96a,0.0636,0.0637,1,106,268,103,1,eightseven,,,,,,,,,,,,,,,,,,,,,,,,,,,,,,,,,,,,,,,,,,,,,,,,,,,,,,,,,,,,,,,,,,,,,,,,,,,,,,,,,,,,,,,,,,,,,,,,,,,,,,,,,,,,,,,,,,,,,,,,,,,,,,,,,,,,,,,,,
,,6169abd4e006adba4739143e,2024-02-18_20h15.03.409,kallum_motion_pilot,2023.2.2,Win32,60.24096386,6169abd4e006adba4739143e,65d2b6c8f2eece985d8e374c,65d2b98980b5775321cab96a,0.0638,0.064,1,107,269,22,1,fourtwo,,,,,,,,,,,,,,,,,,,,,,,,,,,,,,,,,,,,,,,,,,,,,,,,,,,,,,,,,,,,,,,,,,,,,,,,,,,,,,,,,,,,,,,,,,,,,,,,,,,,,,,,,,,,,,,,,,,,,,,,,,,,,,,,,,,,,,,,,
,,6169abd4e006adba4739143e,2024-02-18_20h15.03.409,kallum_motion_pilot,2023.2.2,Win32,60.24096386,6169abd4e006adba4739143e,65d2b6c8f2eece985d8e374c,65d2b98980b5775321cab96a,0.0641,0.0642,1,108,270,129,1,fiveseven,,,,,,,,,,,,,,,,,,,,,,,,,,,,,,,,,,,,,,,,,,,,,,,,,,,,,,,,,,,,,,,,,,,,,,,,,,,,,,,,,,,,,,,,,,,,,,,,,,,,,,,,,,,,,,,,,,,,,,,,,,,,,,,,,,,,,,,,,
,,6169abd4e006adba4739143e,2024-02-18_20h15.03.409,kallum_motion_pilot,2023.2.2,Win32,60.24096386,6169abd4e006adba4739143e,65d2b6c8f2eece985d8e374c,65d2b98980b5775321cab96a,0.0643,0.0645,1,109,271,0,1,onetwo,,,,,,,,,,,,,,,,,,,,,,,,,,,,,,,,,,,,,,,,,,,,,,,,,,,,,,,,,,,,,,,,,,,,,,,,,,,,,,,,,,,,,,,,,,,,,,,,,,,,,,,,,,,,,,,,,,,,,,,,,,,,,,,,,,,,,,,,,
,,6169abd4e006adba4739143e,2024-02-18_20h15.03.409,kallum_motion_pilot,2023.2.2,Win32,60.24096386,6169abd4e006adba4739143e,65d2b6c8f2eece985d8e374c,65d2b98980b5775321cab96a,0.0646,0.0647,1,110,272,8,1,onetwo,,,,,,,,,,,,,,,,,,,,,,,,,,,,,,,,,,,,,,,,,,,,,,,,,,,,,,,,,,,,,,,,,,,,,,,,,,,,,,,,,,,,,,,,,,,,,,,,,,,,,,,,,,,,,,,,,,,,,,,,,,,,,,,,,,,,,,,,,
,,6169abd4e006adba4739143e,2024-02-18_20h15.03.409,kallum_motion_pilot,2023.2.2,Win32,60.24096386,6169abd4e006adba4739143e,65d2b6c8f2eece985d8e374c,65d2b98980b5775321cab96a,0.0648,0.0649,1,111,273,74,1,twoone,,,,,,,,,,,,,,,,,,,,,,,,,,,,,,,,,,,,,,,,,,,,,,,,,,,,,,,,,,,,,,,,,,,,,,,,,,,,,,,,,,,,,,,,,,,,,,,,,,,,,,,,,,,,,,,,,,,,,,,,,,,,,,,,,,,,,,,,,
,,6169abd4e006adba4739143e,2024-02-18_20h15.03.409,kallum_motion_pilot,2023.2.2,Win32,60.24096386,6169abd4e006adba4739143e,65d2b6c8f2eece985d8e374c,65d2b98980b5775321cab96a,0.065,0.0651,1,112,274,150,1,eightsix,,,,,,,,,,,,,,,,,,,,,,,,,,,,,,,,,,,,,,,,,,,,,,,,,,,,,,,,,,,,,,,,,,,,,,,,,,,,,,,,,,,,,,,,,,,,,,,,,,,,,,,,,,,,,,,,,,,,,,,,,,,,,,,,,,,,,,,,,
,,6169abd4e006adba4739143e,2024-02-18_20h15.03.409,kallum_motion_pilot,2023.2.2,Win32,60.24096386,6169abd4e006adba4739143e,65d2b6c8f2eece985d8e374c,65d2b98980b5775321cab96a,0.0651,0.0652,1,113,275,6,1,fourtwo,,,,,,,,,,,,,,,,,,,,,,,,,,,,,,,,,,,,,,,,,,,,,,,,,,,,,,,,,,,,,,,,,,,,,,,,,,,,,,,,,,,,,,,,,,,,,,,,,,,,,,,,,,,,,,,,,,,,,,,,,,,,,,,,,,,,,,,,,
,,6169abd4e006adba4739143e,2024-02-18_20h15.03.409,kallum_motion_pilot,2023.2.2,Win32,60.24096386,6169abd4e006adba4739143e,65d2b6c8f2eece985d8e374c,65d2b98980b5775321cab96a,0.0653,0.0654,1,114,276,132,1,sevenfive,,,,,,,,,,,,,,,,,,,,,,,,,,,,,,,,,,,,,,,,,,,,,,,,,,,,,,,,,,,,,,,,,,,,,,,,,,,,,,,,,,,,,,,,,,,,,,,,,,,,,,,,,,,,,,,,,,,,,,,,,,,,,,,,,,,,,,,,,
,,6169abd4e006adba4739143e,2024-02-18_20h15.03.409,kallum_motion_pilot,2023.2.2,Win32,60.24096386,6169abd4e006adba4739143e,65d2b6c8f2eece985d8e374c,65d2b98980b5775321cab96a,0.0655,0.0655,1,115,277,124,1,sevenfive,,,,,,,,,,,,,,,,,,,,,,,,,,,,,,,,,,,,,,,,,,,,,,,,,,,,,,,,,,,,,,,,,,,,,,,,,,,,,,,,,,,,,,,,,,,,,,,,,,,,,,,,,,,,,,,,,,,,,,,,,,,,,,,,,,,,,,,,,
