startup.started,startup.stopped,Prolific ID*,date,expName,psychopyVersion,OS,frameRate,participant,study_id,session,stimpositions.started,stimpositions.stopped,hardcoded_stimulus_positions.thisRepN,hardcoded_stimulus_positions.thisTrialN,hardcoded_stimulus_positions.thisN,hardcoded_stimulus_positions.thisIndex,hardcoded_stimulus_positions.ran,StimulusPos,stimorientation.started,stimorientation.stopped,prac_stimorientation_import_loop.thisRepN,prac_stimorientation_import_loop.thisTrialN,prac_stimorientation_import_loop.thisN,prac_stimorientation_import_loop.thisIndex,prac_stimorientation_import_loop.ran,Stimorientation,welcome_instr.started,welcome_instr.stopped,key_resp.keys,key_resp.rt,key_resp.duration,response_steppedout_1.started,response_steppedout_1.stopped,key_resp_20.keys,key_resp_20.rt,key_resp_20.duration,response_steppedout_2.started,response_steppedout_2.stopped,key_resp_19.keys,key_resp_19.rt,key_resp_19.duration,stim_response_instr.started,stim_response_instr.stopped,key_resp_15.keys,key_resp_15.rt,key_resp_15.duration,direction_instr_2.started,direction_instr_2.stopped,key_resp_9.keys,key_resp_9.rt,key_resp_9.duration,instr_prac.started,instr_prac.stopped,key_resp_10.keys,key_resp_10.rt,key_resp_10.duration,Stim1_display_prac.started,Stim1_display_prac.stopped,Ecc,Circle1_ori,Circle2_ori,response_prac.started,similarity,response_time,response_prac.stopped,mouse_5.x,mouse_5.y,mouse_5.leftButton,mouse_5.midButton,mouse_5.rightButton,mouse_5.clicked_name,responseprac_feedback.started,responseprac_feedback.stopped,summary2_prac.started,summary2_prac.stopped,mouse_6.x,mouse_6.y,mouse_6.leftButton,mouse_6.midButton,mouse_6.rightButton,mouse_6.clicked_name,duringprac.thisRepN,duringprac.thisTrialN,duringprac.thisN,duringprac.thisIndex,duringprac.ran,begin.started,begin.stopped,key_resp_22.keys,key_resp_22.rt,key_resp_22.duration,Stim1_display.started,Stim1_display.stopped,circle1_ori,circle2_ori,circle1_SF,circle2_SF,response.started,response.stopped,mouse.x,mouse.y,mouse.leftButton,mouse.midButton,mouse.rightButton,mouse.clicked_name,trialnumber,double_pass.thisRepN,double_pass.thisTrialN,double_pass.thisN,double_pass.thisIndex,double_pass.ran,double_pass.order,main_trial.thisRepN,main_trial.thisTrialN,main_trial.thisN,main_trial.thisIndex,main_trial.ran,main_trial.order,Trial_Counter,Catch,Frequencies,response_2.started,response_2.stopped,mouse_2.x,mouse_2.y,mouse_2.leftButton,mouse_2.midButton,mouse_2.rightButton,mouse_2.clicked_name,special_trial.started,special_trial.stopped,catch_1.started,catch_1.stopped,mouse_3.x,mouse_3.y,mouse_3.leftButton,mouse_3.midButton,mouse_3.rightButton,catchresponse,catchnumber,response_time_catch,response_sum.started,response_sum.stopped,mouse_11.x,mouse_11.y,mouse_11.leftButton,mouse_11.midButton,mouse_11.rightButton,flip_presentation_sequence_for_double_pass.started,flip_presentation_sequence_for_double_pass.stopped,goodbye.started,goodbye.stopped,key_resp_3.keys,key_resp_3.rt,key_resp_3.duration
0.0004,0.0005,6169dcbed0d8972d0d124591,2024-02-22_05h27.06.552,kallum_motion_pilot,2023.2.2,Win32,59.88023952,6169dcbed0d8972d0d124591,65d6bb0e977760de756971f7,65d6bedddd292789db81fbcd,,,,,,,,,,,,,,,,,,,,,,,,,,,,,,,,,,,,,,,,,,,,,,,,,,,,,,,,,,,,,,,,,,,,,,,,,,,,,,,,,,,,,,,,,,,,,,,,,,,,,,,,,,,,,,,,,,,,,,,,,,,,,,,,,,,,,,,,,,,,,,,,,
,,6169dcbed0d8972d0d124591,2024-02-22_05h27.06.552,kallum_motion_pilot,2023.2.2,Win32,59.88023952,6169dcbed0d8972d0d124591,65d6bb0e977760de756971f7,65d6bedddd292789db81fbcd,0.0267,0.0271,0,0,0,3,1,twofour,,,,,,,,,,,,,,,,,,,,,,,,,,,,,,,,,,,,,,,,,,,,,,,,,,,,,,,,,,,,,,,,,,,,,,,,,,,,,,,,,,,,,,,,,,,,,,,,,,,,,,,,,,,,,,,,,,,,,,,,,,,,,,,,,,,,,,,,,
,,6169dcbed0d8972d0d124591,2024-02-22_05h27.06.552,kallum_motion_pilot,2023.2.2,Win32,59.88023952,6169dcbed0d8972d0d124591,65d6bb0e977760de756971f7,65d6bedddd292789db81fbcd,0.0275,0.0275,0,1,1,19,1,twofour,,,,,,,,,,,,,,,,,,,,,,,,,,,,,,,,,,,,,,,,,,,,,,,,,,,,,,,,,,,,,,,,,,,,,,,,,,,,,,,,,,,,,,,,,,,,,,,,,,,,,,,,,,,,,,,,,,,,,,,,,,,,,,,,,,,,,,,,,
,,6169dcbed0d8972d0d124591,2024-02-22_05h27.06.552,kallum_motion_pilot,2023.2.2,Win32,59.88023952,6169dcbed0d8972d0d124591,65d6bb0e977760de756971f7,65d6bedddd292789db81fbcd,0.0276,0.0277,0,2,2,134,1,eightsix,,,,,,,,,,,,,,,,,,,,,,,,,,,,,,,,,,,,,,,,,,,,,,,,,,,,,,,,,,,,,,,,,,,,,,,,,,,,,,,,,,,,,,,,,,,,,,,,,,,,,,,,,,,,,,,,,,,,,,,,,,,,,,,,,,,,,,,,,
,,6169dcbed0d8972d0d124591,2024-02-22_05h27.06.552,kallum_motion_pilot,2023.2.2,Win32,59.88023952,6169dcbed0d8972d0d124591,65d6bb0e977760de756971f7,65d6bedddd292789db81fbcd,0.0278,0.0278,0,3,3,150,1,eightsix,,,,,,,,,,,,,,,,,,,,,,,,,,,,,,,,,,,,,,,,,,,,,,,,,,,,,,,,,,,,,,,,,,,,,,,,,,,,,,,,,,,,,,,,,,,,,,,,,,,,,,,,,,,,,,,,,,,,,,,,,,,,,,,,,,,,,,,,,
,,6169dcbed0d8972d0d124591,2024-02-22_05h27.06.552,kallum_motion_pilot,2023.2.2,Win32,59.88023952,6169dcbed0d8972d0d124591,65d6bb0e977760de756971f7,65d6bedddd292789db81fbcd,0.028,0.028,0,4,4,160,1,fivesix,,,,,,,,,,,,,,,,,,,,,,,,,,,,,,,,,,,,,,,,,,,,,,,,,,,,,,,,,,,,,,,,,,,,,,,,,,,,,,,,,,,,,,,,,,,,,,,,,,,,,,,,,,,,,,,,,,,,,,,,,,,,,,,,,,,,,,,,,
,,6169dcbed0d8972d0d124591,2024-02-22_05h27.06.552,kallum_motion_pilot,2023.2.2,Win32,59.88023952,6169dcbed0d8972d0d124591,65d6bb0e977760de756971f7,65d6bedddd292789db81fbcd,0.0282,0.0282,0,5,5,61,1,threefour,,,,,,,,,,,,,,,,,,,,,,,,,,,,,,,,,,,,,,,,,,,,,,,,,,,,,,,,,,,,,,,,,,,,,,,,,,,,,,,,,,,,,,,,,,,,,,,,,,,,,,,,,,,,,,,,,,,,,,,,,,,,,,,,,,,,,,,,,
,,6169dcbed0d8972d0d124591,2024-02-22_05h27.06.552,kallum_motion_pilot,2023.2.2,Win32,59.88023952,6169dcbed0d8972d0d124591,65d6bb0e977760de756971f7,65d6bedddd292789db81fbcd,0.0283,0.0283,0,6,6,73,1,onethree,,,,,,,,,,,,,,,,,,,,,,,,,,,,,,,,,,,,,,,,,,,,,,,,,,,,,,,,,,,,,,,,,,,,,,,,,,,,,,,,,,,,,,,,,,,,,,,,,,,,,,,,,,,,,,,,,,,,,,,,,,,,,,,,,,,,,,,,,
,,6169dcbed0d8972d0d124591,2024-02-22_05h27.06.552,kallum_motion_pilot,2023.2.2,Win32,59.88023952,6169dcbed0d8972d0d124591,65d6bb0e977760de756971f7,65d6bedddd292789db81fbcd,0.0284,0.0285,0,7,7,6,1,fourtwo,,,,,,,,,,,,,,,,,,,,,,,,,,,,,,,,,,,,,,,,,,,,,,,,,,,,,,,,,,,,,,,,,,,,,,,,,,,,,,,,,,,,,,,,,,,,,,,,,,,,,,,,,,,,,,,,,,,,,,,,,,,,,,,,,,,,,,,,,
,,6169dcbed0d8972d0d124591,2024-02-22_05h27.06.552,kallum_motion_pilot,2023.2.2,Win32,59.88023952,6169dcbed0d8972d0d124591,65d6bb0e977760de756971f7,65d6bedddd292789db81fbcd,0.0287,0.0287,0,8,8,141,1,seveneight,,,,,,,,,,,,,,,,,,,,,,,,,,,,,,,,,,,,,,,,,,,,,,,,,,,,,,,,,,,,,,,,,,,,,,,,,,,,,,,,,,,,,,,,,,,,,,,,,,,,,,,,,,,,,,,,,,,,,,,,,,,,,,,,,,,,,,,,,
,,6169dcbed0d8972d0d124591,2024-02-22_05h27.06.552,kallum_motion_pilot,2023.2.2,Win32,59.88023952,6169dcbed0d8972d0d124591,65d6bb0e977760de756971f7,65d6bedddd292789db81fbcd,0.0293,0.0296,0,9,9,103,1,eightseven,,,,,,,,,,,,,,,,,,,,,,,,,,,,,,,,,,,,,,,,,,,,,,,,,,,,,,,,,,,,,,,,,,,,,,,,,,,,,,,,,,,,,,,,,,,,,,,,,,,,,,,,,,,,,,,,,,,,,,,,,,,,,,,,,,,,,,,,,
,,6169dcbed0d8972d0d124591,2024-02-22_05h27.06.552,kallum_motion_pilot,2023.2.2,Win32,59.88023952,6169dcbed0d8972d0d124591,65d6bb0e977760de756971f7,65d6bedddd292789db81fbcd,0.03,0.03,0,10,10,99,1,sixeight,,,,,,,,,,,,,,,,,,,,,,,,,,,,,,,,,,,,,,,,,,,,,,,,,,,,,,,,,,,,,,,,,,,,,,,,,,,,,,,,,,,,,,,,,,,,,,,,,,,,,,,,,,,,,,,,,,,,,,,,,,,,,,,,,,,,,,,,,
,,6169dcbed0d8972d0d124591,2024-02-22_05h27.06.552,kallum_motion_pilot,2023.2.2,Win32,59.88023952,6169dcbed0d8972d0d124591,65d6bb0e977760de756971f7,65d6bedddd292789db81fbcd,0.0302,0.0302,0,11,11,38,1,fourtwo,,,,,,,,,,,,,,,,,,,,,,,,,,,,,,,,,,,,,,,,,,,,,,,,,,,,,,,,,,,,,,,,,,,,,,,,,,,,,,,,,,,,,,,,,,,,,,,,,,,,,,,,,,,,,,,,,,,,,,,,,,,,,,,,,,,,,,,,,
,,6169dcbed0d8972d0d124591,2024-02-22_05h27.06.552,kallum_motion_pilot,2023.2.2,Win32,59.88023952,6169dcbed0d8972d0d124591,65d6bb0e977760de756971f7,65d6bedddd292789db81fbcd,0.0303,0.0303,0,12,12,32,1,onetwo,,,,,,,,,,,,,,,,,,,,,,,,,,,,,,,,,,,,,,,,,,,,,,,,,,,,,,,,,,,,,,,,,,,,,,,,,,,,,,,,,,,,,,,,,,,,,,,,,,,,,,,,,,,,,,,,,,,,,,,,,,,,,,,,,,,,,,,,,
,,6169dcbed0d8972d0d124591,2024-02-22_05h27.06.552,kallum_motion_pilot,2023.2.2,Win32,59.88023952,6169dcbed0d8972d0d124591,65d6bb0e977760de756971f7,65d6bedddd292789db81fbcd,0.0305,0.0305,0,13,13,90,1,sixfive,,,,,,,,,,,,,,,,,,,,,,,,,,,,,,,,,,,,,,,,,,,,,,,,,,,,,,,,,,,,,,,,,,,,,,,,,,,,,,,,,,,,,,,,,,,,,,,,,,,,,,,,,,,,,,,,,,,,,,,,,,,,,,,,,,,,,,,,,
,,6169dcbed0d8972d0d124591,2024-02-22_05h27.06.552,kallum_motion_pilot,2023.2.2,Win32,59.88023952,6169dcbed0d8972d0d124591,65d6bb0e977760de756971f7,65d6bedddd292789db81fbcd,0.0305,0.0305,0,14,14,56,1,onetwo,,,,,,,,,,,,,,,,,,,,,,,,,,,,,,,,,,,,,,,,,,,,,,,,,,,,,,,,,,,,,,,,,,,,,,,,,,,,,,,,,,,,,,,,,,,,,,,,,,,,,,,,,,,,,,,,,,,,,,,,,,,,,,,,,,,,,,,,,
,,6169dcbed0d8972d0d124591,2024-02-22_05h27.06.552,kallum_motion_pilot,2023.2.2,Win32,59.88023952,6169dcbed0d8972d0d124591,65d6bb0e977760de756971f7,65d6bedddd292789db81fbcd,0.0306,0.0307,0,15,15,159,1,eightseven,,,,,,,,,,,,,,,,,,,,,,,,,,,,,,,,,,,,,,,,,,,,,,,,,,,,,,,,,,,,,,,,,,,,,,,,,,,,,,,,,,,,,,,,,,,,,,,,,,,,,,,,,,,,,,,,,,,,,,,,,,,,,,,,,,,,,,,,,
,,6169dcbed0d8972d0d124591,2024-02-22_05h27.06.552,kallum_motion_pilot,2023.2.2,Win32,59.88023952,6169dcbed0d8972d0d124591,65d6bb0e977760de756971f7,65d6bedddd292789db81fbcd,0.0308,0.0308,0,16,16,156,1,sevenfive,,,,,,,,,,,,,,,,,,,,,,,,,,,,,,,,,,,,,,,,,,,,,,,,,,,,,,,,,,,,,,,,,,,,,,,,,,,,,,,,,,,,,,,,,,,,,,,,,,,,,,,,,,,,,,,,,,,,,,,,,,,,,,,,,,,,,,,,,
,,6169dcbed0d8972d0d124591,2024-02-22_05h27.06.552,kallum_motion_pilot,2023.2.2,Win32,59.88023952,6169dcbed0d8972d0d124591,65d6bb0e977760de756971f7,65d6bedddd292789db81fbcd,0.0309,0.0309,0,17,17,28,1,threeone,,,,,,,,,,,,,,,,,,,,,,,,,,,,,,,,,,,,,,,,,,,,,,,,,,,,,,,,,,,,,,,,,,,,,,,,,,,,,,,,,,,,,,,,,,,,,,,,,,,,,,,,,,,,,,,,,,,,,,,,,,,,,,,,,,,,,,,,,
,,6169dcbed0d8972d0d124591,2024-02-22_05h27.06.552,kallum_motion_pilot,2023.2.2,Win32,59.88023952,6169dcbed0d8972d0d124591,65d6bb0e977760de756971f7,65d6bedddd292789db81fbcd,0.031,0.031,0,18,18,11,1,twofour,,,,,,,,,,,,,,,,,,,,,,,,,,,,,,,,,,,,,,,,,,,,,,,,,,,,,,,,,,,,,,,,,,,,,,,,,,,,,,,,,,,,,,,,,,,,,,,,,,,,,,,,,,,,,,,,,,,,,,,,,,,,,,,,,,,,,,,,,
,,6169dcbed0d8972d0d124591,2024-02-22_05h27.06.552,kallum_motion_pilot,2023.2.2,Win32,59.88023952,6169dcbed0d8972d0d124591,65d6bb0e977760de756971f7,65d6bedddd292789db81fbcd,0.0311,0.0311,0,19,19,147,1,sixeight,,,,,,,,,,,,,,,,,,,,,,,,,,,,,,,,,,,,,,,,,,,,,,,,,,,,,,,,,,,,,,,,,,,,,,,,,,,,,,,,,,,,,,,,,,,,,,,,,,,,,,,,,,,,,,,,,,,,,,,,,,,,,,,,,,,,,,,,,
,,6169dcbed0d8972d0d124591,2024-02-22_05h27.06.552,kallum_motion_pilot,2023.2.2,Win32,59.88023952,6169dcbed0d8972d0d124591,65d6bb0e977760de756971f7,65d6bedddd292789db81fbcd,0.0312,0.0313,0,20,20,101,1,seveneight,,,,,,,,,,,,,,,,,,,,,,,,,,,,,,,,,,,,,,,,,,,,,,,,,,,,,,,,,,,,,,,,,,,,,,,,,,,,,,,,,,,,,,,,,,,,,,,,,,,,,,,,,,,,,,,,,,,,,,,,,,,,,,,,,,,,,,,,,
,,6169dcbed0d8972d0d124591,2024-02-22_05h27.06.552,kallum_motion_pilot,2023.2.2,Win32,59.88023952,6169dcbed0d8972d0d124591,65d6bb0e977760de756971f7,65d6bedddd292789db81fbcd,0.0313,0.0313,0,21,21,133,1,seveneight,,,,,,,,,,,,,,,,,,,,,,,,,,,,,,,,,,,,,,,,,,,,,,,,,,,,,,,,,,,,,,,,,,,,,,,,,,,,,,,,,,,,,,,,,,,,,,,,,,,,,,,,,,,,,,,,,,,,,,,,,,,,,,,,,,,,,,,,,
,,6169dcbed0d8972d0d124591,2024-02-22_05h27.06.552,kallum_motion_pilot,2023.2.2,Win32,59.88023952,6169dcbed0d8972d0d124591,65d6bb0e977760de756971f7,65d6bedddd292789db81fbcd,0.0315,0.0315,0,22,22,21,1,threefour,,,,,,,,,,,,,,,,,,,,,,,,,,,,,,,,,,,,,,,,,,,,,,,,,,,,,,,,,,,,,,,,,,,,,,,,,,,,,,,,,,,,,,,,,,,,,,,,,,,,,,,,,,,,,,,,,,,,,,,,,,,,,,,,,,,,,,,,,
,,6169dcbed0d8972d0d124591,2024-02-22_05h27.06.552,kallum_motion_pilot,2023.2.2,Win32,59.88023952,6169dcbed0d8972d0d124591,65d6bb0e977760de756971f7,65d6bedddd292789db81fbcd,0.0316,0.0317,0,23,23,22,1,fourtwo,,,,,,,,,,,,,,,,,,,,,,,,,,,,,,,,,,,,,,,,,,,,,,,,,,,,,,,,,,,,,,,,,,,,,,,,,,,,,,,,,,,,,,,,,,,,,,,,,,,,,,,,,,,,,,,,,,,,,,,,,,,,,,,,,,,,,,,,,
,,6169dcbed0d8972d0d124591,2024-02-22_05h27.06.552,kallum_motion_pilot,2023.2.2,Win32,59.88023952,6169dcbed0d8972d0d124591,65d6bb0e977760de756971f7,65d6bedddd292789db81fbcd,0.0317,0.0318,0,24,24,74,1,twoone,,,,,,,,,,,,,,,,,,,,,,,,,,,,,,,,,,,,,,,,,,,,,,,,,,,,,,,,,,,,,,,,,,,,,,,,,,,,,,,,,,,,,,,,,,,,,,,,,,,,,,,,,,,,,,,,,,,,,,,,,,,,,,,,,,,,,,,,,
,,6169dcbed0d8972d0d124591,2024-02-22_05h27.06.552,kallum_motion_pilot,2023.2.2,Win32,59.88023952,6169dcbed0d8972d0d124591,65d6bb0e977760de756971f7,65d6bedddd292789db81fbcd,0.0319,0.032,0,25,25,95,1,eightseven,,,,,,,,,,,,,,,,,,,,,,,,,,,,,,,,,,,,,,,,,,,,,,,,,,,,,,,,,,,,,,,,,,,,,,,,,,,,,,,,,,,,,,,,,,,,,,,,,,,,,,,,,,,,,,,,,,,,,,,,,,,,,,,,,,,,,,,,,
,,6169dcbed0d8972d0d124591,2024-02-22_05h27.06.552,kallum_motion_pilot,2023.2.2,Win32,59.88023952,6169dcbed0d8972d0d124591,65d6bb0e977760de756971f7,65d6bedddd292789db81fbcd,0.032,0.032,0,26,26,111,1,eightseven,,,,,,,,,,,,,,,,,,,,,,,,,,,,,,,,,,,,,,,,,,,,,,,,,,,,,,,,,,,,,,,,,,,,,,,,,,,,,,,,,,,,,,,,,,,,,,,,,,,,,,,,,,,,,,,,,,,,,,,,,,,,,,,,,,,,,,,,,
,,6169dcbed0d8972d0d124591,2024-02-22_05h27.06.552,kallum_motion_pilot,2023.2.2,Win32,59.88023952,6169dcbed0d8972d0d124591,65d6bb0e977760de756971f7,65d6bedddd292789db81fbcd,0.0322,0.0322,0,27,27,45,1,threefour,,,,,,,,,,,,,,,,,,,,,,,,,,,,,,,,,,,,,,,,,,,,,,,,,,,,,,,,,,,,,,,,,,,,,,,,,,,,,,,,,,,,,,,,,,,,,,,,,,,,,,,,,,,,,,,,,,,,,,,,,,,,,,,,,,,,,,,,,
,,6169dcbed0d8972d0d124591,2024-02-22_05h27.06.552,kallum_motion_pilot,2023.2.2,Win32,59.88023952,6169dcbed0d8972d0d124591,65d6bb0e977760de756971f7,65d6bedddd292789db81fbcd,0.0322,0.0323,0,28,28,138,1,sixfive,,,,,,,,,,,,,,,,,,,,,,,,,,,,,,,,,,,,,,,,,,,,,,,,,,,,,,,,,,,,,,,,,,,,,,,,,,,,,,,,,,,,,,,,,,,,,,,,,,,,,,,,,,,,,,,,,,,,,,,,,,,,,,,,,,,,,,,,,
,,6169dcbed0d8972d0d124591,2024-02-22_05h27.06.552,kallum_motion_pilot,2023.2.2,Win32,59.88023952,6169dcbed0d8972d0d124591,65d6bb0e977760de756971f7,65d6bedddd292789db81fbcd,0.0325,0.0325,0,29,29,120,1,fivesix,,,,,,,,,,,,,,,,,,,,,,,,,,,,,,,,,,,,,,,,,,,,,,,,,,,,,,,,,,,,,,,,,,,,,,,,,,,,,,,,,,,,,,,,,,,,,,,,,,,,,,,,,,,,,,,,,,,,,,,,,,,,,,,,,,,,,,,,,
,,6169dcbed0d8972d0d124591,2024-02-22_05h27.06.552,kallum_motion_pilot,2023.2.2,Win32,59.88023952,6169dcbed0d8972d0d124591,65d6bb0e977760de756971f7,65d6bedddd292789db81fbcd,0.0325,0.0325,0,30,30,80,1,fivesix,,,,,,,,,,,,,,,,,,,,,,,,,,,,,,,,,,,,,,,,,,,,,,,,,,,,,,,,,,,,,,,,,,,,,,,,,,,,,,,,,,,,,,,,,,,,,,,,,,,,,,,,,,,,,,,,,,,,,,,,,,,,,,,,,,,,,,,,,
,,6169dcbed0d8972d0d124591,2024-02-22_05h27.06.552,kallum_motion_pilot,2023.2.2,Win32,59.88023952,6169dcbed0d8972d0d124591,65d6bb0e977760de756971f7,65d6bedddd292789db81fbcd,0.0327,0.0327,0,31,31,157,1,seveneight,,,,,,,,,,,,,,,,,,,,,,,,,,,,,,,,,,,,,,,,,,,,,,,,,,,,,,,,,,,,,,,,,,,,,,,,,,,,,,,,,,,,,,,,,,,,,,,,,,,,,,,,,,,,,,,,,,,,,,,,,,,,,,,,,,,,,,,,,
,,6169dcbed0d8972d0d124591,2024-02-22_05h27.06.552,kallum_motion_pilot,2023.2.2,Win32,59.88023952,6169dcbed0d8972d0d124591,65d6bb0e977760de756971f7,65d6bedddd292789db81fbcd,0.0328,0.0328,0,32,32,68,1,threeone,,,,,,,,,,,,,,,,,,,,,,,,,,,,,,,,,,,,,,,,,,,,,,,,,,,,,,,,,,,,,,,,,,,,,,,,,,,,,,,,,,,,,,,,,,,,,,,,,,,,,,,,,,,,,,,,,,,,,,,,,,,,,,,,,,,,,,,,,
,,6169dcbed0d8972d0d124591,2024-02-22_05h27.06.552,kallum_motion_pilot,2023.2.2,Win32,59.88023952,6169dcbed0d8972d0d124591,65d6bb0e977760de756971f7,65d6bedddd292789db81fbcd,0.0329,0.033,0,33,33,25,1,onethree,,,,,,,,,,,,,,,,,,,,,,,,,,,,,,,,,,,,,,,,,,,,,,,,,,,,,,,,,,,,,,,,,,,,,,,,,,,,,,,,,,,,,,,,,,,,,,,,,,,,,,,,,,,,,,,,,,,,,,,,,,,,,,,,,,,,,,,,,
,,6169dcbed0d8972d0d124591,2024-02-22_05h27.06.552,kallum_motion_pilot,2023.2.2,Win32,59.88023952,6169dcbed0d8972d0d124591,65d6bb0e977760de756971f7,65d6bedddd292789db81fbcd,0.033,0.0331,0,34,34,0,1,onetwo,,,,,,,,,,,,,,,,,,,,,,,,,,,,,,,,,,,,,,,,,,,,,,,,,,,,,,,,,,,,,,,,,,,,,,,,,,,,,,,,,,,,,,,,,,,,,,,,,,,,,,,,,,,,,,,,,,,,,,,,,,,,,,,,,,,,,,,,,
,,6169dcbed0d8972d0d124591,2024-02-22_05h27.06.552,kallum_motion_pilot,2023.2.2,Win32,59.88023952,6169dcbed0d8972d0d124591,65d6bb0e977760de756971f7,65d6bedddd292789db81fbcd,0.0331,0.0332,0,35,35,36,1,threeone,,,,,,,,,,,,,,,,,,,,,,,,,,,,,,,,,,,,,,,,,,,,,,,,,,,,,,,,,,,,,,,,,,,,,,,,,,,,,,,,,,,,,,,,,,,,,,,,,,,,,,,,,,,,,,,,,,,,,,,,,,,,,,,,,,,,,,,,,
,,6169dcbed0d8972d0d124591,2024-02-22_05h27.06.552,kallum_motion_pilot,2023.2.2,Win32,59.88023952,6169dcbed0d8972d0d124591,65d6bb0e977760de756971f7,65d6bedddd292789db81fbcd,0.0333,0.0334,0,36,36,71,1,fourthree,,,,,,,,,,,,,,,,,,,,,,,,,,,,,,,,,,,,,,,,,,,,,,,,,,,,,,,,,,,,,,,,,,,,,,,,,,,,,,,,,,,,,,,,,,,,,,,,,,,,,,,,,,,,,,,,,,,,,,,,,,,,,,,,,,,,,,,,,
,,6169dcbed0d8972d0d124591,2024-02-22_05h27.06.552,kallum_motion_pilot,2023.2.2,Win32,59.88023952,6169dcbed0d8972d0d124591,65d6bb0e977760de756971f7,65d6bedddd292789db81fbcd,0.0334,0.0334,0,37,37,126,1,eightsix,,,,,,,,,,,,,,,,,,,,,,,,,,,,,,,,,,,,,,,,,,,,,,,,,,,,,,,,,,,,,,,,,,,,,,,,,,,,,,,,,,,,,,,,,,,,,,,,,,,,,,,,,,,,,,,,,,,,,,,,,,,,,,,,,,,,,,,,,
,,6169dcbed0d8972d0d124591,2024-02-22_05h27.06.552,kallum_motion_pilot,2023.2.2,Win32,59.88023952,6169dcbed0d8972d0d124591,65d6bb0e977760de756971f7,65d6bedddd292789db81fbcd,0.0336,0.0336,0,38,38,139,1,sixeight,,,,,,,,,,,,,,,,,,,,,,,,,,,,,,,,,,,,,,,,,,,,,,,,,,,,,,,,,,,,,,,,,,,,,,,,,,,,,,,,,,,,,,,,,,,,,,,,,,,,,,,,,,,,,,,,,,,,,,,,,,,,,,,,,,,,,,,,,
,,6169dcbed0d8972d0d124591,2024-02-22_05h27.06.552,kallum_motion_pilot,2023.2.2,Win32,59.88023952,6169dcbed0d8972d0d124591,65d6bb0e977760de756971f7,65d6bedddd292789db81fbcd,0.0337,0.0337,0,39,39,87,1,eightseven,,,,,,,,,,,,,,,,,,,,,,,,,,,,,,,,,,,,,,,,,,,,,,,,,,,,,,,,,,,,,,,,,,,,,,,,,,,,,,,,,,,,,,,,,,,,,,,,,,,,,,,,,,,,,,,,,,,,,,,,,,,,,,,,,,,,,,,,,
,,6169dcbed0d8972d0d124591,2024-02-22_05h27.06.552,kallum_motion_pilot,2023.2.2,Win32,59.88023952,6169dcbed0d8972d0d124591,65d6bb0e977760de756971f7,65d6bedddd292789db81fbcd,0.0338,0.0339,0,40,40,48,1,onetwo,,,,,,,,,,,,,,,,,,,,,,,,,,,,,,,,,,,,,,,,,,,,,,,,,,,,,,,,,,,,,,,,,,,,,,,,,,,,,,,,,,,,,,,,,,,,,,,,,,,,,,,,,,,,,,,,,,,,,,,,,,,,,,,,,,,,,,,,,
,,6169dcbed0d8972d0d124591,2024-02-22_05h27.06.552,kallum_motion_pilot,2023.2.2,Win32,59.88023952,6169dcbed0d8972d0d124591,65d6bb0e977760de756971f7,65d6bedddd292789db81fbcd,0.034,0.034,0,41,41,84,1,sevenfive,,,,,,,,,,,,,,,,,,,,,,,,,,,,,,,,,,,,,,,,,,,,,,,,,,,,,,,,,,,,,,,,,,,,,,,,,,,,,,,,,,,,,,,,,,,,,,,,,,,,,,,,,,,,,,,,,,,,,,,,,,,,,,,,,,,,,,,,,
,,6169dcbed0d8972d0d124591,2024-02-22_05h27.06.552,kallum_motion_pilot,2023.2.2,Win32,59.88023952,6169dcbed0d8972d0d124591,65d6bb0e977760de756971f7,65d6bedddd292789db81fbcd,0.034,0.0341,0,42,42,12,1,threeone,,,,,,,,,,,,,,,,,,,,,,,,,,,,,,,,,,,,,,,,,,,,,,,,,,,,,,,,,,,,,,,,,,,,,,,,,,,,,,,,,,,,,,,,,,,,,,,,,,,,,,,,,,,,,,,,,,,,,,,,,,,,,,,,,,,,,,,,,
,,6169dcbed0d8972d0d124591,2024-02-22_05h27.06.552,kallum_motion_pilot,2023.2.2,Win32,59.88023952,6169dcbed0d8972d0d124591,65d6bb0e977760de756971f7,65d6bedddd292789db81fbcd,0.0342,0.0343,0,43,43,86,1,eightsix,,,,,,,,,,,,,,,,,,,,,,,,,,,,,,,,,,,,,,,,,,,,,,,,,,,,,,,,,,,,,,,,,,,,,,,,,,,,,,,,,,,,,,,,,,,,,,,,,,,,,,,,,,,,,,,,,,,,,,,,,,,,,,,,,,,,,,,,,
,,6169dcbed0d8972d0d124591,2024-02-22_05h27.06.552,kallum_motion_pilot,2023.2.2,Win32,59.88023952,6169dcbed0d8972d0d124591,65d6bb0e977760de756971f7,65d6bedddd292789db81fbcd,0.0345,0.0346,0,44,44,62,1,fourtwo,,,,,,,,,,,,,,,,,,,,,,,,,,,,,,,,,,,,,,,,,,,,,,,,,,,,,,,,,,,,,,,,,,,,,,,,,,,,,,,,,,,,,,,,,,,,,,,,,,,,,,,,,,,,,,,,,,,,,,,,,,,,,,,,,,,,,,,,,
,,6169dcbed0d8972d0d124591,2024-02-22_05h27.06.552,kallum_motion_pilot,2023.2.2,Win32,59.88023952,6169dcbed0d8972d0d124591,65d6bb0e977760de756971f7,65d6bedddd292789db81fbcd,0.0346,0.0347,0,45,45,100,1,sevenfive,,,,,,,,,,,,,,,,,,,,,,,,,,,,,,,,,,,,,,,,,,,,,,,,,,,,,,,,,,,,,,,,,,,,,,,,,,,,,,,,,,,,,,,,,,,,,,,,,,,,,,,,,,,,,,,,,,,,,,,,,,,,,,,,,,,,,,,,,
,,6169dcbed0d8972d0d124591,2024-02-22_05h27.06.552,kallum_motion_pilot,2023.2.2,Win32,59.88023952,6169dcbed0d8972d0d124591,65d6bb0e977760de756971f7,65d6bedddd292789db81fbcd,0.0348,0.0348,0,46,46,78,1,fourtwo,,,,,,,,,,,,,,,,,,,,,,,,,,,,,,,,,,,,,,,,,,,,,,,,,,,,,,,,,,,,,,,,,,,,,,,,,,,,,,,,,,,,,,,,,,,,,,,,,,,,,,,,,,,,,,,,,,,,,,,,,,,,,,,,,,,,,,,,,
,,6169dcbed0d8972d0d124591,2024-02-22_05h27.06.552,kallum_motion_pilot,2023.2.2,Win32,59.88023952,6169dcbed0d8972d0d124591,65d6bb0e977760de756971f7,65d6bedddd292789db81fbcd,0.0349,0.035,0,47,47,149,1,seveneight,,,,,,,,,,,,,,,,,,,,,,,,,,,,,,,,,,,,,,,,,,,,,,,,,,,,,,,,,,,,,,,,,,,,,,,,,,,,,,,,,,,,,,,,,,,,,,,,,,,,,,,,,,,,,,,,,,,,,,,,,,,,,,,,,,,,,,,,,
,,6169dcbed0d8972d0d124591,2024-02-22_05h27.06.552,kallum_motion_pilot,2023.2.2,Win32,59.88023952,6169dcbed0d8972d0d124591,65d6bb0e977760de756971f7,65d6bedddd292789db81fbcd,0.035,0.0351,0,48,48,106,1,sixfive,,,,,,,,,,,,,,,,,,,,,,,,,,,,,,,,,,,,,,,,,,,,,,,,,,,,,,,,,,,,,,,,,,,,,,,,,,,,,,,,,,,,,,,,,,,,,,,,,,,,,,,,,,,,,,,,,,,,,,,,,,,,,,,,,,,,,,,,,
,,6169dcbed0d8972d0d124591,2024-02-22_05h27.06.552,kallum_motion_pilot,2023.2.2,Win32,59.88023952,6169dcbed0d8972d0d124591,65d6bb0e977760de756971f7,65d6bedddd292789db81fbcd,0.0352,0.0353,0,49,49,81,1,fiveseven,,,,,,,,,,,,,,,,,,,,,,,,,,,,,,,,,,,,,,,,,,,,,,,,,,,,,,,,,,,,,,,,,,,,,,,,,,,,,,,,,,,,,,,,,,,,,,,,,,,,,,,,,,,,,,,,,,,,,,,,,,,,,,,,,,,,,,,,,
,,6169dcbed0d8972d0d124591,2024-02-22_05h27.06.552,kallum_motion_pilot,2023.2.2,Win32,59.88023952,6169dcbed0d8972d0d124591,65d6bb0e977760de756971f7,65d6bedddd292789db81fbcd,0.0353,0.0354,0,50,50,46,1,fourtwo,,,,,,,,,,,,,,,,,,,,,,,,,,,,,,,,,,,,,,,,,,,,,,,,,,,,,,,,,,,,,,,,,,,,,,,,,,,,,,,,,,,,,,,,,,,,,,,,,,,,,,,,,,,,,,,,,,,,,,,,,,,,,,,,,,,,,,,,,
,,6169dcbed0d8972d0d124591,2024-02-22_05h27.06.552,kallum_motion_pilot,2023.2.2,Win32,59.88023952,6169dcbed0d8972d0d124591,65d6bb0e977760de756971f7,65d6bedddd292789db81fbcd,0.0355,0.0355,0,51,51,110,1,eightsix,,,,,,,,,,,,,,,,,,,,,,,,,,,,,,,,,,,,,,,,,,,,,,,,,,,,,,,,,,,,,,,,,,,,,,,,,,,,,,,,,,,,,,,,,,,,,,,,,,,,,,,,,,,,,,,,,,,,,,,,,,,,,,,,,,,,,,,,,
,,6169dcbed0d8972d0d124591,2024-02-22_05h27.06.552,kallum_motion_pilot,2023.2.2,Win32,59.88023952,6169dcbed0d8972d0d124591,65d6bb0e977760de756971f7,65d6bedddd292789db81fbcd,0.0356,0.0356,0,52,52,129,1,fiveseven,,,,,,,,,,,,,,,,,,,,,,,,,,,,,,,,,,,,,,,,,,,,,,,,,,,,,,,,,,,,,,,,,,,,,,,,,,,,,,,,,,,,,,,,,,,,,,,,,,,,,,,,,,,,,,,,,,,,,,,,,,,,,,,,,,,,,,,,,
,,6169dcbed0d8972d0d124591,2024-02-22_05h27.06.552,kallum_motion_pilot,2023.2.2,Win32,59.88023952,6169dcbed0d8972d0d124591,65d6bb0e977760de756971f7,65d6bedddd292789db81fbcd,0.0358,0.0358,0,53,53,8,1,onetwo,,,,,,,,,,,,,,,,,,,,,,,,,,,,,,,,,,,,,,,,,,,,,,,,,,,,,,,,,,,,,,,,,,,,,,,,,,,,,,,,,,,,,,,,,,,,,,,,,,,,,,,,,,,,,,,,,,,,,,,,,,,,,,,,,,,,,,,,,
,,6169dcbed0d8972d0d124591,2024-02-22_05h27.06.552,kallum_motion_pilot,2023.2.2,Win32,59.88023952,6169dcbed0d8972d0d124591,65d6bb0e977760de756971f7,65d6bedddd292789db81fbcd,0.0359,0.0359,0,54,54,26,1,twoone,,,,,,,,,,,,,,,,,,,,,,,,,,,,,,,,,,,,,,,,,,,,,,,,,,,,,,,,,,,,,,,,,,,,,,,,,,,,,,,,,,,,,,,,,,,,,,,,,,,,,,,,,,,,,,,,,,,,,,,,,,,,,,,,,,,,,,,,,
,,6169dcbed0d8972d0d124591,2024-02-22_05h27.06.552,kallum_motion_pilot,2023.2.2,Win32,59.88023952,6169dcbed0d8972d0d124591,65d6bb0e977760de756971f7,65d6bedddd292789db81fbcd,0.036,0.036,0,55,55,13,1,threefour,,,,,,,,,,,,,,,,,,,,,,,,,,,,,,,,,,,,,,,,,,,,,,,,,,,,,,,,,,,,,,,,,,,,,,,,,,,,,,,,,,,,,,,,,,,,,,,,,,,,,,,,,,,,,,,,,,,,,,,,,,,,,,,,,,,,,,,,,
,,6169dcbed0d8972d0d124591,2024-02-22_05h27.06.552,kallum_motion_pilot,2023.2.2,Win32,59.88023952,6169dcbed0d8972d0d124591,65d6bb0e977760de756971f7,65d6bedddd292789db81fbcd,0.0361,0.0361,0,56,56,117,1,seveneight,,,,,,,,,,,,,,,,,,,,,,,,,,,,,,,,,,,,,,,,,,,,,,,,,,,,,,,,,,,,,,,,,,,,,,,,,,,,,,,,,,,,,,,,,,,,,,,,,,,,,,,,,,,,,,,,,,,,,,,,,,,,,,,,,,,,,,,,,
,,6169dcbed0d8972d0d124591,2024-02-22_05h27.06.552,kallum_motion_pilot,2023.2.2,Win32,59.88023952,6169dcbed0d8972d0d124591,65d6bb0e977760de756971f7,65d6bedddd292789db81fbcd,0.0363,0.0363,0,57,57,34,1,twoone,,,,,,,,,,,,,,,,,,,,,,,,,,,,,,,,,,,,,,,,,,,,,,,,,,,,,,,,,,,,,,,,,,,,,,,,,,,,,,,,,,,,,,,,,,,,,,,,,,,,,,,,,,,,,,,,,,,,,,,,,,,,,,,,,,,,,,,,,
,,6169dcbed0d8972d0d124591,2024-02-22_05h27.06.552,kallum_motion_pilot,2023.2.2,Win32,59.88023952,6169dcbed0d8972d0d124591,65d6bb0e977760de756971f7,65d6bedddd292789db81fbcd,0.0364,0.0364,0,58,58,50,1,twoone,,,,,,,,,,,,,,,,,,,,,,,,,,,,,,,,,,,,,,,,,,,,,,,,,,,,,,,,,,,,,,,,,,,,,,,,,,,,,,,,,,,,,,,,,,,,,,,,,,,,,,,,,,,,,,,,,,,,,,,,,,,,,,,,,,,,,,,,,
,,6169dcbed0d8972d0d124591,2024-02-22_05h27.06.552,kallum_motion_pilot,2023.2.2,Win32,59.88023952,6169dcbed0d8972d0d124591,65d6bb0e977760de756971f7,65d6bedddd292789db81fbcd,0.0365,0.0365,0,59,59,31,1,fourthree,,,,,,,,,,,,,,,,,,,,,,,,,,,,,,,,,,,,,,,,,,,,,,,,,,,,,,,,,,,,,,,,,,,,,,,,,,,,,,,,,,,,,,,,,,,,,,,,,,,,,,,,,,,,,,,,,,,,,,,,,,,,,,,,,,,,,,,,,
,,6169dcbed0d8972d0d124591,2024-02-22_05h27.06.552,kallum_motion_pilot,2023.2.2,Win32,59.88023952,6169dcbed0d8972d0d124591,65d6bb0e977760de756971f7,65d6bedddd292789db81fbcd,0.0366,0.0367,0,60,60,102,1,eightsix,,,,,,,,,,,,,,,,,,,,,,,,,,,,,,,,,,,,,,,,,,,,,,,,,,,,,,,,,,,,,,,,,,,,,,,,,,,,,,,,,,,,,,,,,,,,,,,,,,,,,,,,,,,,,,,,,,,,,,,,,,,,,,,,,,,,,,,,,
,,6169dcbed0d8972d0d124591,2024-02-22_05h27.06.552,kallum_motion_pilot,2023.2.2,Win32,59.88023952,6169dcbed0d8972d0d124591,65d6bb0e977760de756971f7,65d6bedddd292789db81fbcd,0.0368,0.0368,0,61,61,63,1,fourthree,,,,,,,,,,,,,,,,,,,,,,,,,,,,,,,,,,,,,,,,,,,,,,,,,,,,,,,,,,,,,,,,,,,,,,,,,,,,,,,,,,,,,,,,,,,,,,,,,,,,,,,,,,,,,,,,,,,,,,,,,,,,,,,,,,,,,,,,,
,,6169dcbed0d8972d0d124591,2024-02-22_05h27.06.552,kallum_motion_pilot,2023.2.2,Win32,59.88023952,6169dcbed0d8972d0d124591,65d6bb0e977760de756971f7,65d6bedddd292789db81fbcd,0.0369,0.0369,0,62,62,148,1,sevenfive,,,,,,,,,,,,,,,,,,,,,,,,,,,,,,,,,,,,,,,,,,,,,,,,,,,,,,,,,,,,,,,,,,,,,,,,,,,,,,,,,,,,,,,,,,,,,,,,,,,,,,,,,,,,,,,,,,,,,,,,,,,,,,,,,,,,,,,,,
,,6169dcbed0d8972d0d124591,2024-02-22_05h27.06.552,kallum_motion_pilot,2023.2.2,Win32,59.88023952,6169dcbed0d8972d0d124591,65d6bb0e977760de756971f7,65d6bedddd292789db81fbcd,0.0371,0.0372,0,63,63,88,1,fivesix,,,,,,,,,,,,,,,,,,,,,,,,,,,,,,,,,,,,,,,,,,,,,,,,,,,,,,,,,,,,,,,,,,,,,,,,,,,,,,,,,,,,,,,,,,,,,,,,,,,,,,,,,,,,,,,,,,,,,,,,,,,,,,,,,,,,,,,,,
,,6169dcbed0d8972d0d124591,2024-02-22_05h27.06.552,kallum_motion_pilot,2023.2.2,Win32,59.88023952,6169dcbed0d8972d0d124591,65d6bb0e977760de756971f7,65d6bedddd292789db81fbcd,0.0373,0.0374,0,64,64,27,1,twofour,,,,,,,,,,,,,,,,,,,,,,,,,,,,,,,,,,,,,,,,,,,,,,,,,,,,,,,,,,,,,,,,,,,,,,,,,,,,,,,,,,,,,,,,,,,,,,,,,,,,,,,,,,,,,,,,,,,,,,,,,,,,,,,,,,,,,,,,,
,,6169dcbed0d8972d0d124591,2024-02-22_05h27.06.552,kallum_motion_pilot,2023.2.2,Win32,59.88023952,6169dcbed0d8972d0d124591,65d6bb0e977760de756971f7,65d6bedddd292789db81fbcd,0.0375,0.0375,0,65,65,142,1,eightsix,,,,,,,,,,,,,,,,,,,,,,,,,,,,,,,,,,,,,,,,,,,,,,,,,,,,,,,,,,,,,,,,,,,,,,,,,,,,,,,,,,,,,,,,,,,,,,,,,,,,,,,,,,,,,,,,,,,,,,,,,,,,,,,,,,,,,,,,,
,,6169dcbed0d8972d0d124591,2024-02-22_05h27.06.552,kallum_motion_pilot,2023.2.2,Win32,59.88023952,6169dcbed0d8972d0d124591,65d6bb0e977760de756971f7,65d6bedddd292789db81fbcd,0.0376,0.0377,0,66,66,91,1,sixeight,,,,,,,,,,,,,,,,,,,,,,,,,,,,,,,,,,,,,,,,,,,,,,,,,,,,,,,,,,,,,,,,,,,,,,,,,,,,,,,,,,,,,,,,,,,,,,,,,,,,,,,,,,,,,,,,,,,,,,,,,,,,,,,,,,,,,,,,,
,,6169dcbed0d8972d0d124591,2024-02-22_05h27.06.552,kallum_motion_pilot,2023.2.2,Win32,59.88023952,6169dcbed0d8972d0d124591,65d6bb0e977760de756971f7,65d6bedddd292789db81fbcd,0.0378,0.0379,0,67,67,37,1,threefour,,,,,,,,,,,,,,,,,,,,,,,,,,,,,,,,,,,,,,,,,,,,,,,,,,,,,,,,,,,,,,,,,,,,,,,,,,,,,,,,,,,,,,,,,,,,,,,,,,,,,,,,,,,,,,,,,,,,,,,,,,,,,,,,,,,,,,,,,
,,6169dcbed0d8972d0d124591,2024-02-22_05h27.06.552,kallum_motion_pilot,2023.2.2,Win32,59.88023952,6169dcbed0d8972d0d124591,65d6bb0e977760de756971f7,65d6bedddd292789db81fbcd,0.038,0.0381,0,68,68,24,1,onetwo,,,,,,,,,,,,,,,,,,,,,,,,,,,,,,,,,,,,,,,,,,,,,,,,,,,,,,,,,,,,,,,,,,,,,,,,,,,,,,,,,,,,,,,,,,,,,,,,,,,,,,,,,,,,,,,,,,,,,,,,,,,,,,,,,,,,,,,,,
,,6169dcbed0d8972d0d124591,2024-02-22_05h27.06.552,kallum_motion_pilot,2023.2.2,Win32,59.88023952,6169dcbed0d8972d0d124591,65d6bb0e977760de756971f7,65d6bedddd292789db81fbcd,0.0382,0.0382,0,69,69,144,1,fivesix,,,,,,,,,,,,,,,,,,,,,,,,,,,,,,,,,,,,,,,,,,,,,,,,,,,,,,,,,,,,,,,,,,,,,,,,,,,,,,,,,,,,,,,,,,,,,,,,,,,,,,,,,,,,,,,,,,,,,,,,,,,,,,,,,,,,,,,,,
,,6169dcbed0d8972d0d124591,2024-02-22_05h27.06.552,kallum_motion_pilot,2023.2.2,Win32,59.88023952,6169dcbed0d8972d0d124591,65d6bb0e977760de756971f7,65d6bedddd292789db81fbcd,0.0383,0.0384,0,70,70,122,1,sixfive,,,,,,,,,,,,,,,,,,,,,,,,,,,,,,,,,,,,,,,,,,,,,,,,,,,,,,,,,,,,,,,,,,,,,,,,,,,,,,,,,,,,,,,,,,,,,,,,,,,,,,,,,,,,,,,,,,,,,,,,,,,,,,,,,,,,,,,,,
,,6169dcbed0d8972d0d124591,2024-02-22_05h27.06.552,kallum_motion_pilot,2023.2.2,Win32,59.88023952,6169dcbed0d8972d0d124591,65d6bb0e977760de756971f7,65d6bedddd292789db81fbcd,0.0385,0.0385,0,71,71,51,1,twofour,,,,,,,,,,,,,,,,,,,,,,,,,,,,,,,,,,,,,,,,,,,,,,,,,,,,,,,,,,,,,,,,,,,,,,,,,,,,,,,,,,,,,,,,,,,,,,,,,,,,,,,,,,,,,,,,,,,,,,,,,,,,,,,,,,,,,,,,,
,,6169dcbed0d8972d0d124591,2024-02-22_05h27.06.552,kallum_motion_pilot,2023.2.2,Win32,59.88023952,6169dcbed0d8972d0d124591,65d6bb0e977760de756971f7,65d6bedddd292789db81fbcd,0.0386,0.0387,0,72,72,17,1,onethree,,,,,,,,,,,,,,,,,,,,,,,,,,,,,,,,,,,,,,,,,,,,,,,,,,,,,,,,,,,,,,,,,,,,,,,,,,,,,,,,,,,,,,,,,,,,,,,,,,,,,,,,,,,,,,,,,,,,,,,,,,,,,,,,,,,,,,,,,
,,6169dcbed0d8972d0d124591,2024-02-22_05h27.06.552,kallum_motion_pilot,2023.2.2,Win32,59.88023952,6169dcbed0d8972d0d124591,65d6bb0e977760de756971f7,65d6bedddd292789db81fbcd,0.0387,0.0388,0,73,73,7,1,fourthree,,,,,,,,,,,,,,,,,,,,,,,,,,,,,,,,,,,,,,,,,,,,,,,,,,,,,,,,,,,,,,,,,,,,,,,,,,,,,,,,,,,,,,,,,,,,,,,,,,,,,,,,,,,,,,,,,,,,,,,,,,,,,,,,,,,,,,,,,
,,6169dcbed0d8972d0d124591,2024-02-22_05h27.06.552,kallum_motion_pilot,2023.2.2,Win32,59.88023952,6169dcbed0d8972d0d124591,65d6bb0e977760de756971f7,65d6bedddd292789db81fbcd,0.0389,0.0389,0,74,74,9,1,onethree,,,,,,,,,,,,,,,,,,,,,,,,,,,,,,,,,,,,,,,,,,,,,,,,,,,,,,,,,,,,,,,,,,,,,,,,,,,,,,,,,,,,,,,,,,,,,,,,,,,,,,,,,,,,,,,,,,,,,,,,,,,,,,,,,,,,,,,,,
,,6169dcbed0d8972d0d124591,2024-02-22_05h27.06.552,kallum_motion_pilot,2023.2.2,Win32,59.88023952,6169dcbed0d8972d0d124591,65d6bb0e977760de756971f7,65d6bedddd292789db81fbcd,0.039,0.0391,0,75,75,4,1,threeone,,,,,,,,,,,,,,,,,,,,,,,,,,,,,,,,,,,,,,,,,,,,,,,,,,,,,,,,,,,,,,,,,,,,,,,,,,,,,,,,,,,,,,,,,,,,,,,,,,,,,,,,,,,,,,,,,,,,,,,,,,,,,,,,,,,,,,,,,
,,6169dcbed0d8972d0d124591,2024-02-22_05h27.06.552,kallum_motion_pilot,2023.2.2,Win32,59.88023952,6169dcbed0d8972d0d124591,65d6bb0e977760de756971f7,65d6bedddd292789db81fbcd,0.0391,0.0391,0,76,76,119,1,eightseven,,,,,,,,,,,,,,,,,,,,,,,,,,,,,,,,,,,,,,,,,,,,,,,,,,,,,,,,,,,,,,,,,,,,,,,,,,,,,,,,,,,,,,,,,,,,,,,,,,,,,,,,,,,,,,,,,,,,,,,,,,,,,,,,,,,,,,,,,
,,6169dcbed0d8972d0d124591,2024-02-22_05h27.06.552,kallum_motion_pilot,2023.2.2,Win32,59.88023952,6169dcbed0d8972d0d124591,65d6bb0e977760de756971f7,65d6bedddd292789db81fbcd,0.0393,0.0393,0,77,77,41,1,onethree,,,,,,,,,,,,,,,,,,,,,,,,,,,,,,,,,,,,,,,,,,,,,,,,,,,,,,,,,,,,,,,,,,,,,,,,,,,,,,,,,,,,,,,,,,,,,,,,,,,,,,,,,,,,,,,,,,,,,,,,,,,,,,,,,,,,,,,,,
,,6169dcbed0d8972d0d124591,2024-02-22_05h27.06.552,kallum_motion_pilot,2023.2.2,Win32,59.88023952,6169dcbed0d8972d0d124591,65d6bb0e977760de756971f7,65d6bedddd292789db81fbcd,0.0394,0.0394,0,78,78,72,1,onetwo,,,,,,,,,,,,,,,,,,,,,,,,,,,,,,,,,,,,,,,,,,,,,,,,,,,,,,,,,,,,,,,,,,,,,,,,,,,,,,,,,,,,,,,,,,,,,,,,,,,,,,,,,,,,,,,,,,,,,,,,,,,,,,,,,,,,,,,,,
,,6169dcbed0d8972d0d124591,2024-02-22_05h27.06.552,kallum_motion_pilot,2023.2.2,Win32,59.88023952,6169dcbed0d8972d0d124591,65d6bb0e977760de756971f7,65d6bedddd292789db81fbcd,0.0396,0.0396,0,79,79,127,1,eightseven,,,,,,,,,,,,,,,,,,,,,,,,,,,,,,,,,,,,,,,,,,,,,,,,,,,,,,,,,,,,,,,,,,,,,,,,,,,,,,,,,,,,,,,,,,,,,,,,,,,,,,,,,,,,,,,,,,,,,,,,,,,,,,,,,,,,,,,,,
,,6169dcbed0d8972d0d124591,2024-02-22_05h27.06.552,kallum_motion_pilot,2023.2.2,Win32,59.88023952,6169dcbed0d8972d0d124591,65d6bb0e977760de756971f7,65d6bedddd292789db81fbcd,0.0397,0.0397,0,80,80,44,1,threeone,,,,,,,,,,,,,,,,,,,,,,,,,,,,,,,,,,,,,,,,,,,,,,,,,,,,,,,,,,,,,,,,,,,,,,,,,,,,,,,,,,,,,,,,,,,,,,,,,,,,,,,,,,,,,,,,,,,,,,,,,,,,,,,,,,,,,,,,,
,,6169dcbed0d8972d0d124591,2024-02-22_05h27.06.552,kallum_motion_pilot,2023.2.2,Win32,59.88023952,6169dcbed0d8972d0d124591,65d6bb0e977760de756971f7,65d6bedddd292789db81fbcd,0.0398,0.0399,0,81,81,49,1,onethree,,,,,,,,,,,,,,,,,,,,,,,,,,,,,,,,,,,,,,,,,,,,,,,,,,,,,,,,,,,,,,,,,,,,,,,,,,,,,,,,,,,,,,,,,,,,,,,,,,,,,,,,,,,,,,,,,,,,,,,,,,,,,,,,,,,,,,,,,
,,6169dcbed0d8972d0d124591,2024-02-22_05h27.06.552,kallum_motion_pilot,2023.2.2,Win32,59.88023952,6169dcbed0d8972d0d124591,65d6bb0e977760de756971f7,65d6bedddd292789db81fbcd,0.04,0.04,0,82,82,52,1,threeone,,,,,,,,,,,,,,,,,,,,,,,,,,,,,,,,,,,,,,,,,,,,,,,,,,,,,,,,,,,,,,,,,,,,,,,,,,,,,,,,,,,,,,,,,,,,,,,,,,,,,,,,,,,,,,,,,,,,,,,,,,,,,,,,,,,,,,,,,
,,6169dcbed0d8972d0d124591,2024-02-22_05h27.06.552,kallum_motion_pilot,2023.2.2,Win32,59.88023952,6169dcbed0d8972d0d124591,65d6bb0e977760de756971f7,65d6bedddd292789db81fbcd,0.0401,0.0402,0,83,83,29,1,threefour,,,,,,,,,,,,,,,,,,,,,,,,,,,,,,,,,,,,,,,,,,,,,,,,,,,,,,,,,,,,,,,,,,,,,,,,,,,,,,,,,,,,,,,,,,,,,,,,,,,,,,,,,,,,,,,,,,,,,,,,,,,,,,,,,,,,,,,,,
,,6169dcbed0d8972d0d124591,2024-02-22_05h27.06.552,kallum_motion_pilot,2023.2.2,Win32,59.88023952,6169dcbed0d8972d0d124591,65d6bb0e977760de756971f7,65d6bedddd292789db81fbcd,0.0403,0.0403,0,84,84,143,1,eightseven,,,,,,,,,,,,,,,,,,,,,,,,,,,,,,,,,,,,,,,,,,,,,,,,,,,,,,,,,,,,,,,,,,,,,,,,,,,,,,,,,,,,,,,,,,,,,,,,,,,,,,,,,,,,,,,,,,,,,,,,,,,,,,,,,,,,,,,,,
,,6169dcbed0d8972d0d124591,2024-02-22_05h27.06.552,kallum_motion_pilot,2023.2.2,Win32,59.88023952,6169dcbed0d8972d0d124591,65d6bb0e977760de756971f7,65d6bedddd292789db81fbcd,0.0404,0.0404,0,85,85,118,1,eightsix,,,,,,,,,,,,,,,,,,,,,,,,,,,,,,,,,,,,,,,,,,,,,,,,,,,,,,,,,,,,,,,,,,,,,,,,,,,,,,,,,,,,,,,,,,,,,,,,,,,,,,,,,,,,,,,,,,,,,,,,,,,,,,,,,,,,,,,,,
,,6169dcbed0d8972d0d124591,2024-02-22_05h27.06.552,kallum_motion_pilot,2023.2.2,Win32,59.88023952,6169dcbed0d8972d0d124591,65d6bb0e977760de756971f7,65d6bedddd292789db81fbcd,0.0405,0.0406,0,86,86,40,1,onetwo,,,,,,,,,,,,,,,,,,,,,,,,,,,,,,,,,,,,,,,,,,,,,,,,,,,,,,,,,,,,,,,,,,,,,,,,,,,,,,,,,,,,,,,,,,,,,,,,,,,,,,,,,,,,,,,,,,,,,,,,,,,,,,,,,,,,,,,,,
,,6169dcbed0d8972d0d124591,2024-02-22_05h27.06.552,kallum_motion_pilot,2023.2.2,Win32,59.88023952,6169dcbed0d8972d0d124591,65d6bb0e977760de756971f7,65d6bedddd292789db81fbcd,0.0407,0.0407,0,87,87,42,1,twoone,,,,,,,,,,,,,,,,,,,,,,,,,,,,,,,,,,,,,,,,,,,,,,,,,,,,,,,,,,,,,,,,,,,,,,,,,,,,,,,,,,,,,,,,,,,,,,,,,,,,,,,,,,,,,,,,,,,,,,,,,,,,,,,,,,,,,,,,,
,,6169dcbed0d8972d0d124591,2024-02-22_05h27.06.552,kallum_motion_pilot,2023.2.2,Win32,59.88023952,6169dcbed0d8972d0d124591,65d6bb0e977760de756971f7,65d6bedddd292789db81fbcd,0.0408,0.0409,0,88,88,108,1,sevenfive,,,,,,,,,,,,,,,,,,,,,,,,,,,,,,,,,,,,,,,,,,,,,,,,,,,,,,,,,,,,,,,,,,,,,,,,,,,,,,,,,,,,,,,,,,,,,,,,,,,,,,,,,,,,,,,,,,,,,,,,,,,,,,,,,,,,,,,,,
,,6169dcbed0d8972d0d124591,2024-02-22_05h27.06.552,kallum_motion_pilot,2023.2.2,Win32,59.88023952,6169dcbed0d8972d0d124591,65d6bb0e977760de756971f7,65d6bedddd292789db81fbcd,0.041,0.041,0,89,89,1,1,onethree,,,,,,,,,,,,,,,,,,,,,,,,,,,,,,,,,,,,,,,,,,,,,,,,,,,,,,,,,,,,,,,,,,,,,,,,,,,,,,,,,,,,,,,,,,,,,,,,,,,,,,,,,,,,,,,,,,,,,,,,,,,,,,,,,,,,,,,,,
,,6169dcbed0d8972d0d124591,2024-02-22_05h27.06.552,kallum_motion_pilot,2023.2.2,Win32,59.88023952,6169dcbed0d8972d0d124591,65d6bb0e977760de756971f7,65d6bedddd292789db81fbcd,0.0411,0.0412,0,90,90,130,1,sixfive,,,,,,,,,,,,,,,,,,,,,,,,,,,,,,,,,,,,,,,,,,,,,,,,,,,,,,,,,,,,,,,,,,,,,,,,,,,,,,,,,,,,,,,,,,,,,,,,,,,,,,,,,,,,,,,,,,,,,,,,,,,,,,,,,,,,,,,,,
,,6169dcbed0d8972d0d124591,2024-02-22_05h27.06.552,kallum_motion_pilot,2023.2.2,Win32,59.88023952,6169dcbed0d8972d0d124591,65d6bb0e977760de756971f7,65d6bedddd292789db81fbcd,0.0413,0.0413,0,91,91,82,1,sixfive,,,,,,,,,,,,,,,,,,,,,,,,,,,,,,,,,,,,,,,,,,,,,,,,,,,,,,,,,,,,,,,,,,,,,,,,,,,,,,,,,,,,,,,,,,,,,,,,,,,,,,,,,,,,,,,,,,,,,,,,,,,,,,,,,,,,,,,,,
,,6169dcbed0d8972d0d124591,2024-02-22_05h27.06.552,kallum_motion_pilot,2023.2.2,Win32,59.88023952,6169dcbed0d8972d0d124591,65d6bb0e977760de756971f7,65d6bedddd292789db81fbcd,0.0414,0.0415,0,92,92,76,1,threeone,,,,,,,,,,,,,,,,,,,,,,,,,,,,,,,,,,,,,,,,,,,,,,,,,,,,,,,,,,,,,,,,,,,,,,,,,,,,,,,,,,,,,,,,,,,,,,,,,,,,,,,,,,,,,,,,,,,,,,,,,,,,,,,,,,,,,,,,,
,,6169dcbed0d8972d0d124591,2024-02-22_05h27.06.552,kallum_motion_pilot,2023.2.2,Win32,59.88023952,6169dcbed0d8972d0d124591,65d6bb0e977760de756971f7,65d6bedddd292789db81fbcd,0.0415,0.0415,0,93,93,154,1,sixfive,,,,,,,,,,,,,,,,,,,,,,,,,,,,,,,,,,,,,,,,,,,,,,,,,,,,,,,,,,,,,,,,,,,,,,,,,,,,,,,,,,,,,,,,,,,,,,,,,,,,,,,,,,,,,,,,,,,,,,,,,,,,,,,,,,,,,,,,,
,,6169dcbed0d8972d0d124591,2024-02-22_05h27.06.552,kallum_motion_pilot,2023.2.2,Win32,59.88023952,6169dcbed0d8972d0d124591,65d6bb0e977760de756971f7,65d6bedddd292789db81fbcd,0.0417,0.0417,0,94,94,114,1,sixfive,,,,,,,,,,,,,,,,,,,,,,,,,,,,,,,,,,,,,,,,,,,,,,,,,,,,,,,,,,,,,,,,,,,,,,,,,,,,,,,,,,,,,,,,,,,,,,,,,,,,,,,,,,,,,,,,,,,,,,,,,,,,,,,,,,,,,,,,,
,,6169dcbed0d8972d0d124591,2024-02-22_05h27.06.552,kallum_motion_pilot,2023.2.2,Win32,59.88023952,6169dcbed0d8972d0d124591,65d6bb0e977760de756971f7,65d6bedddd292789db81fbcd,0.0419,0.0419,0,95,95,35,1,twofour,,,,,,,,,,,,,,,,,,,,,,,,,,,,,,,,,,,,,,,,,,,,,,,,,,,,,,,,,,,,,,,,,,,,,,,,,,,,,,,,,,,,,,,,,,,,,,,,,,,,,,,,,,,,,,,,,,,,,,,,,,,,,,,,,,,,,,,,,
,,6169dcbed0d8972d0d124591,2024-02-22_05h27.06.552,kallum_motion_pilot,2023.2.2,Win32,59.88023952,6169dcbed0d8972d0d124591,65d6bb0e977760de756971f7,65d6bedddd292789db81fbcd,0.0419,0.0421,0,96,96,131,1,sixeight,,,,,,,,,,,,,,,,,,,,,,,,,,,,,,,,,,,,,,,,,,,,,,,,,,,,,,,,,,,,,,,,,,,,,,,,,,,,,,,,,,,,,,,,,,,,,,,,,,,,,,,,,,,,,,,,,,,,,,,,,,,,,,,,,,,,,,,,,
,,6169dcbed0d8972d0d124591,2024-02-22_05h27.06.552,kallum_motion_pilot,2023.2.2,Win32,59.88023952,6169dcbed0d8972d0d124591,65d6bb0e977760de756971f7,65d6bedddd292789db81fbcd,0.0422,0.0422,0,97,97,161,1,fiveseven,,,,,,,,,,,,,,,,,,,,,,,,,,,,,,,,,,,,,,,,,,,,,,,,,,,,,,,,,,,,,,,,,,,,,,,,,,,,,,,,,,,,,,,,,,,,,,,,,,,,,,,,,,,,,,,,,,,,,,,,,,,,,,,,,,,,,,,,,
,,6169dcbed0d8972d0d124591,2024-02-22_05h27.06.552,kallum_motion_pilot,2023.2.2,Win32,59.88023952,6169dcbed0d8972d0d124591,65d6bb0e977760de756971f7,65d6bedddd292789db81fbcd,0.0423,0.0424,0,98,98,33,1,onethree,,,,,,,,,,,,,,,,,,,,,,,,,,,,,,,,,,,,,,,,,,,,,,,,,,,,,,,,,,,,,,,,,,,,,,,,,,,,,,,,,,,,,,,,,,,,,,,,,,,,,,,,,,,,,,,,,,,,,,,,,,,,,,,,,,,,,,,,,
,,6169dcbed0d8972d0d124591,2024-02-22_05h27.06.552,kallum_motion_pilot,2023.2.2,Win32,59.88023952,6169dcbed0d8972d0d124591,65d6bb0e977760de756971f7,65d6bedddd292789db81fbcd,0.0425,0.0426,0,99,99,152,1,fivesix,,,,,,,,,,,,,,,,,,,,,,,,,,,,,,,,,,,,,,,,,,,,,,,,,,,,,,,,,,,,,,,,,,,,,,,,,,,,,,,,,,,,,,,,,,,,,,,,,,,,,,,,,,,,,,,,,,,,,,,,,,,,,,,,,,,,,,,,,
,,6169dcbed0d8972d0d124591,2024-02-22_05h27.06.552,kallum_motion_pilot,2023.2.2,Win32,59.88023952,6169dcbed0d8972d0d124591,65d6bb0e977760de756971f7,65d6bedddd292789db81fbcd,0.0427,0.0427,0,100,100,145,1,fiveseven,,,,,,,,,,,,,,,,,,,,,,,,,,,,,,,,,,,,,,,,,,,,,,,,,,,,,,,,,,,,,,,,,,,,,,,,,,,,,,,,,,,,,,,,,,,,,,,,,,,,,,,,,,,,,,,,,,,,,,,,,,,,,,,,,,,,,,,,,
,,6169dcbed0d8972d0d124591,2024-02-22_05h27.06.552,kallum_motion_pilot,2023.2.2,Win32,59.88023952,6169dcbed0d8972d0d124591,65d6bb0e977760de756971f7,65d6bedddd292789db81fbcd,0.0428,0.0428,0,101,101,55,1,fourthree,,,,,,,,,,,,,,,,,,,,,,,,,,,,,,,,,,,,,,,,,,,,,,,,,,,,,,,,,,,,,,,,,,,,,,,,,,,,,,,,,,,,,,,,,,,,,,,,,,,,,,,,,,,,,,,,,,,,,,,,,,,,,,,,,,,,,,,,,
,,6169dcbed0d8972d0d124591,2024-02-22_05h27.06.552,kallum_motion_pilot,2023.2.2,Win32,59.88023952,6169dcbed0d8972d0d124591,65d6bb0e977760de756971f7,65d6bedddd292789db81fbcd,0.043,0.043,0,102,102,60,1,threeone,,,,,,,,,,,,,,,,,,,,,,,,,,,,,,,,,,,,,,,,,,,,,,,,,,,,,,,,,,,,,,,,,,,,,,,,,,,,,,,,,,,,,,,,,,,,,,,,,,,,,,,,,,,,,,,,,,,,,,,,,,,,,,,,,,,,,,,,,
,,6169dcbed0d8972d0d124591,2024-02-22_05h27.06.552,kallum_motion_pilot,2023.2.2,Win32,59.88023952,6169dcbed0d8972d0d124591,65d6bb0e977760de756971f7,65d6bedddd292789db81fbcd,0.0431,0.0432,0,103,103,30,1,fourtwo,,,,,,,,,,,,,,,,,,,,,,,,,,,,,,,,,,,,,,,,,,,,,,,,,,,,,,,,,,,,,,,,,,,,,,,,,,,,,,,,,,,,,,,,,,,,,,,,,,,,,,,,,,,,,,,,,,,,,,,,,,,,,,,,,,,,,,,,,
,,6169dcbed0d8972d0d124591,2024-02-22_05h27.06.552,kallum_motion_pilot,2023.2.2,Win32,59.88023952,6169dcbed0d8972d0d124591,65d6bb0e977760de756971f7,65d6bedddd292789db81fbcd,0.0433,0.0434,0,104,104,140,1,sevenfive,,,,,,,,,,,,,,,,,,,,,,,,,,,,,,,,,,,,,,,,,,,,,,,,,,,,,,,,,,,,,,,,,,,,,,,,,,,,,,,,,,,,,,,,,,,,,,,,,,,,,,,,,,,,,,,,,,,,,,,,,,,,,,,,,,,,,,,,,
,,6169dcbed0d8972d0d124591,2024-02-22_05h27.06.552,kallum_motion_pilot,2023.2.2,Win32,59.88023952,6169dcbed0d8972d0d124591,65d6bb0e977760de756971f7,65d6bedddd292789db81fbcd,0.0434,0.0435,0,105,105,85,1,seveneight,,,,,,,,,,,,,,,,,,,,,,,,,,,,,,,,,,,,,,,,,,,,,,,,,,,,,,,,,,,,,,,,,,,,,,,,,,,,,,,,,,,,,,,,,,,,,,,,,,,,,,,,,,,,,,,,,,,,,,,,,,,,,,,,,,,,,,,,,
,,6169dcbed0d8972d0d124591,2024-02-22_05h27.06.552,kallum_motion_pilot,2023.2.2,Win32,59.88023952,6169dcbed0d8972d0d124591,65d6bb0e977760de756971f7,65d6bedddd292789db81fbcd,0.0436,0.0436,0,106,106,136,1,fivesix,,,,,,,,,,,,,,,,,,,,,,,,,,,,,,,,,,,,,,,,,,,,,,,,,,,,,,,,,,,,,,,,,,,,,,,,,,,,,,,,,,,,,,,,,,,,,,,,,,,,,,,,,,,,,,,,,,,,,,,,,,,,,,,,,,,,,,,,,
,,6169dcbed0d8972d0d124591,2024-02-22_05h27.06.552,kallum_motion_pilot,2023.2.2,Win32,59.88023952,6169dcbed0d8972d0d124591,65d6bb0e977760de756971f7,65d6bedddd292789db81fbcd,0.0437,0.0438,0,107,107,97,1,fiveseven,,,,,,,,,,,,,,,,,,,,,,,,,,,,,,,,,,,,,,,,,,,,,,,,,,,,,,,,,,,,,,,,,,,,,,,,,,,,,,,,,,,,,,,,,,,,,,,,,,,,,,,,,,,,,,,,,,,,,,,,,,,,,,,,,,,,,,,,,
,,6169dcbed0d8972d0d124591,2024-02-22_05h27.06.552,kallum_motion_pilot,2023.2.2,Win32,59.88023952,6169dcbed0d8972d0d124591,65d6bb0e977760de756971f7,65d6bedddd292789db81fbcd,0.0439,0.044,0,108,108,23,1,fourthree,,,,,,,,,,,,,,,,,,,,,,,,,,,,,,,,,,,,,,,,,,,,,,,,,,,,,,,,,,,,,,,,,,,,,,,,,,,,,,,,,,,,,,,,,,,,,,,,,,,,,,,,,,,,,,,,,,,,,,,,,,,,,,,,,,,,,,,,,
,,6169dcbed0d8972d0d124591,2024-02-22_05h27.06.552,kallum_motion_pilot,2023.2.2,Win32,59.88023952,6169dcbed0d8972d0d124591,65d6bb0e977760de756971f7,65d6bedddd292789db81fbcd,0.0441,0.0441,0,109,109,112,1,fivesix,,,,,,,,,,,,,,,,,,,,,,,,,,,,,,,,,,,,,,,,,,,,,,,,,,,,,,,,,,,,,,,,,,,,,,,,,,,,,,,,,,,,,,,,,,,,,,,,,,,,,,,,,,,,,,,,,,,,,,,,,,,,,,,,,,,,,,,,,
,,6169dcbed0d8972d0d124591,2024-02-22_05h27.06.552,kallum_motion_pilot,2023.2.2,Win32,59.88023952,6169dcbed0d8972d0d124591,65d6bb0e977760de756971f7,65d6bedddd292789db81fbcd,0.0443,0.0444,0,110,110,53,1,threefour,,,,,,,,,,,,,,,,,,,,,,,,,,,,,,,,,,,,,,,,,,,,,,,,,,,,,,,,,,,,,,,,,,,,,,,,,,,,,,,,,,,,,,,,,,,,,,,,,,,,,,,,,,,,,,,,,,,,,,,,,,,,,,,,,,,,,,,,,
,,6169dcbed0d8972d0d124591,2024-02-22_05h27.06.552,kallum_motion_pilot,2023.2.2,Win32,59.88023952,6169dcbed0d8972d0d124591,65d6bb0e977760de756971f7,65d6bedddd292789db81fbcd,0.0446,0.0446,0,111,111,116,1,sevenfive,,,,,,,,,,,,,,,,,,,,,,,,,,,,,,,,,,,,,,,,,,,,,,,,,,,,,,,,,,,,,,,,,,,,,,,,,,,,,,,,,,,,,,,,,,,,,,,,,,,,,,,,,,,,,,,,,,,,,,,,,,,,,,,,,,,,,,,,,
,,6169dcbed0d8972d0d124591,2024-02-22_05h27.06.552,kallum_motion_pilot,2023.2.2,Win32,59.88023952,6169dcbed0d8972d0d124591,65d6bb0e977760de756971f7,65d6bedddd292789db81fbcd,0.0447,0.0447,0,112,112,158,1,eightsix,,,,,,,,,,,,,,,,,,,,,,,,,,,,,,,,,,,,,,,,,,,,,,,,,,,,,,,,,,,,,,,,,,,,,,,,,,,,,,,,,,,,,,,,,,,,,,,,,,,,,,,,,,,,,,,,,,,,,,,,,,,,,,,,,,,,,,,,,
,,6169dcbed0d8972d0d124591,2024-02-22_05h27.06.552,kallum_motion_pilot,2023.2.2,Win32,59.88023952,6169dcbed0d8972d0d124591,65d6bb0e977760de756971f7,65d6bedddd292789db81fbcd,0.0448,0.0449,0,113,113,123,1,sixeight,,,,,,,,,,,,,,,,,,,,,,,,,,,,,,,,,,,,,,,,,,,,,,,,,,,,,,,,,,,,,,,,,,,,,,,,,,,,,,,,,,,,,,,,,,,,,,,,,,,,,,,,,,,,,,,,,,,,,,,,,,,,,,,,,,,,,,,,,
,,6169dcbed0d8972d0d124591,2024-02-22_05h27.06.552,kallum_motion_pilot,2023.2.2,Win32,59.88023952,6169dcbed0d8972d0d124591,65d6bb0e977760de756971f7,65d6bedddd292789db81fbcd,0.045,0.0451,0,114,114,124,1,sevenfive,,,,,,,,,,,,,,,,,,,,,,,,,,,,,,,,,,,,,,,,,,,,,,,,,,,,,,,,,,,,,,,,,,,,,,,,,,,,,,,,,,,,,,,,,,,,,,,,,,,,,,,,,,,,,,,,,,,,,,,,,,,,,,,,,,,,,,,,,
,,6169dcbed0d8972d0d124591,2024-02-22_05h27.06.552,kallum_motion_pilot,2023.2.2,Win32,59.88023952,6169dcbed0d8972d0d124591,65d6bb0e977760de756971f7,65d6bedddd292789db81fbcd,0.0451,0.0452,0,115,115,135,1,eightseven,,,,,,,,,,,,,,,,,,,,,,,,,,,,,,,,,,,,,,,,,,,,,,,,,,,,,,,,,,,,,,,,,,,,,,,,,,,,,,,,,,,,,,,,,,,,,,,,,,,,,,,,,,,,,,,,,,,,,,,,,,,,,,,,,,,,,,,,,
,,6169dcbed0d8972d0d124591,2024-02-22_05h27.06.552,kallum_motion_pilot,2023.2.2,Win32,59.88023952,6169dcbed0d8972d0d124591,65d6bb0e977760de756971f7,65d6bedddd292789db81fbcd,0.0453,0.0454,0,116,116,59,1,twofour,,,,,,,,,,,,,,,,,,,,,,,,,,,,,,,,,,,,,,,,,,,,,,,,,,,,,,,,,,,,,,,,,,,,,,,,,,,,,,,,,,,,,,,,,,,,,,,,,,,,,,,,,,,,,,,,,,,,,,,,,,,,,,,,,,,,,,,,,
,,6169dcbed0d8972d0d124591,2024-02-22_05h27.06.552,kallum_motion_pilot,2023.2.2,Win32,59.88023952,6169dcbed0d8972d0d124591,65d6bb0e977760de756971f7,65d6bedddd292789db81fbcd,0.0455,0.0455,0,117,117,137,1,fiveseven,,,,,,,,,,,,,,,,,,,,,,,,,,,,,,,,,,,,,,,,,,,,,,,,,,,,,,,,,,,,,,,,,,,,,,,,,,,,,,,,,,,,,,,,,,,,,,,,,,,,,,,,,,,,,,,,,,,,,,,,,,,,,,,,,,,,,,,,,
,,6169dcbed0d8972d0d124591,2024-02-22_05h27.06.552,kallum_motion_pilot,2023.2.2,Win32,59.88023952,6169dcbed0d8972d0d124591,65d6bb0e977760de756971f7,65d6bedddd292789db81fbcd,0.0461,0.0467,0,118,118,151,1,eightseven,,,,,,,,,,,,,,,,,,,,,,,,,,,,,,,,,,,,,,,,,,,,,,,,,,,,,,,,,,,,,,,,,,,,,,,,,,,,,,,,,,,,,,,,,,,,,,,,,,,,,,,,,,,,,,,,,,,,,,,,,,,,,,,,,,,,,,,,,
,,6169dcbed0d8972d0d124591,2024-02-22_05h27.06.552,kallum_motion_pilot,2023.2.2,Win32,59.88023952,6169dcbed0d8972d0d124591,65d6bb0e977760de756971f7,65d6bedddd292789db81fbcd,0.047,0.0471,0,119,119,94,1,eightsix,,,,,,,,,,,,,,,,,,,,,,,,,,,,,,,,,,,,,,,,,,,,,,,,,,,,,,,,,,,,,,,,,,,,,,,,,,,,,,,,,,,,,,,,,,,,,,,,,,,,,,,,,,,,,,,,,,,,,,,,,,,,,,,,,,,,,,,,,
,,6169dcbed0d8972d0d124591,2024-02-22_05h27.06.552,kallum_motion_pilot,2023.2.2,Win32,59.88023952,6169dcbed0d8972d0d124591,65d6bb0e977760de756971f7,65d6bedddd292789db81fbcd,0.0472,0.0473,0,120,120,132,1,sevenfive,,,,,,,,,,,,,,,,,,,,,,,,,,,,,,,,,,,,,,,,,,,,,,,,,,,,,,,,,,,,,,,,,,,,,,,,,,,,,,,,,,,,,,,,,,,,,,,,,,,,,,,,,,,,,,,,,,,,,,,,,,,,,,,,,,,,,,,,,
,,6169dcbed0d8972d0d124591,2024-02-22_05h27.06.552,kallum_motion_pilot,2023.2.2,Win32,59.88023952,6169dcbed0d8972d0d124591,65d6bb0e977760de756971f7,65d6bedddd292789db81fbcd,0.0473,0.0474,0,121,121,153,1,fiveseven,,,,,,,,,,,,,,,,,,,,,,,,,,,,,,,,,,,,,,,,,,,,,,,,,,,,,,,,,,,,,,,,,,,,,,,,,,,,,,,,,,,,,,,,,,,,,,,,,,,,,,,,,,,,,,,,,,,,,,,,,,,,,,,,,,,,,,,,,
,,6169dcbed0d8972d0d124591,2024-02-22_05h27.06.552,kallum_motion_pilot,2023.2.2,Win32,59.88023952,6169dcbed0d8972d0d124591,65d6bb0e977760de756971f7,65d6bedddd292789db81fbcd,0.0475,0.0475,0,122,122,2,1,twoone,,,,,,,,,,,,,,,,,,,,,,,,,,,,,,,,,,,,,,,,,,,,,,,,,,,,,,,,,,,,,,,,,,,,,,,,,,,,,,,,,,,,,,,,,,,,,,,,,,,,,,,,,,,,,,,,,,,,,,,,,,,,,,,,,,,,,,,,,
,,6169dcbed0d8972d0d124591,2024-02-22_05h27.06.552,kallum_motion_pilot,2023.2.2,Win32,59.88023952,6169dcbed0d8972d0d124591,65d6bb0e977760de756971f7,65d6bedddd292789db81fbcd,0.0476,0.0477,0,123,123,109,1,seveneight,,,,,,,,,,,,,,,,,,,,,,,,,,,,,,,,,,,,,,,,,,,,,,,,,,,,,,,,,,,,,,,,,,,,,,,,,,,,,,,,,,,,,,,,,,,,,,,,,,,,,,,,,,,,,,,,,,,,,,,,,,,,,,,,,,,,,,,,,
,,6169dcbed0d8972d0d124591,2024-02-22_05h27.06.552,kallum_motion_pilot,2023.2.2,Win32,59.88023952,6169dcbed0d8972d0d124591,65d6bb0e977760de756971f7,65d6bedddd292789db81fbcd,0.0479,0.0479,0,124,124,39,1,fourthree,,,,,,,,,,,,,,,,,,,,,,,,,,,,,,,,,,,,,,,,,,,,,,,,,,,,,,,,,,,,,,,,,,,,,,,,,,,,,,,,,,,,,,,,,,,,,,,,,,,,,,,,,,,,,,,,,,,,,,,,,,,,,,,,,,,,,,,,,
,,6169dcbed0d8972d0d124591,2024-02-22_05h27.06.552,kallum_motion_pilot,2023.2.2,Win32,59.88023952,6169dcbed0d8972d0d124591,65d6bb0e977760de756971f7,65d6bedddd292789db81fbcd,0.048,0.0481,0,125,125,89,1,fiveseven,,,,,,,,,,,,,,,,,,,,,,,,,,,,,,,,,,,,,,,,,,,,,,,,,,,,,,,,,,,,,,,,,,,,,,,,,,,,,,,,,,,,,,,,,,,,,,,,,,,,,,,,,,,,,,,,,,,,,,,,,,,,,,,,,,,,,,,,,
,,6169dcbed0d8972d0d124591,2024-02-22_05h27.06.552,kallum_motion_pilot,2023.2.2,Win32,59.88023952,6169dcbed0d8972d0d124591,65d6bb0e977760de756971f7,65d6bedddd292789db81fbcd,0.0483,0.0483,0,126,126,128,1,fivesix,,,,,,,,,,,,,,,,,,,,,,,,,,,,,,,,,,,,,,,,,,,,,,,,,,,,,,,,,,,,,,,,,,,,,,,,,,,,,,,,,,,,,,,,,,,,,,,,,,,,,,,,,,,,,,,,,,,,,,,,,,,,,,,,,,,,,,,,,
,,6169dcbed0d8972d0d124591,2024-02-22_05h27.06.552,kallum_motion_pilot,2023.2.2,Win32,59.88023952,6169dcbed0d8972d0d124591,65d6bb0e977760de756971f7,65d6bedddd292789db81fbcd,0.0485,0.0486,0,127,127,93,1,seveneight,,,,,,,,,,,,,,,,,,,,,,,,,,,,,,,,,,,,,,,,,,,,,,,,,,,,,,,,,,,,,,,,,,,,,,,,,,,,,,,,,,,,,,,,,,,,,,,,,,,,,,,,,,,,,,,,,,,,,,,,,,,,,,,,,,,,,,,,,
,,6169dcbed0d8972d0d124591,2024-02-22_05h27.06.552,kallum_motion_pilot,2023.2.2,Win32,59.88023952,6169dcbed0d8972d0d124591,65d6bb0e977760de756971f7,65d6bedddd292789db81fbcd,0.0487,0.0488,0,128,128,79,1,eightseven,,,,,,,,,,,,,,,,,,,,,,,,,,,,,,,,,,,,,,,,,,,,,,,,,,,,,,,,,,,,,,,,,,,,,,,,,,,,,,,,,,,,,,,,,,,,,,,,,,,,,,,,,,,,,,,,,,,,,,,,,,,,,,,,,,,,,,,,,
,,6169dcbed0d8972d0d124591,2024-02-22_05h27.06.552,kallum_motion_pilot,2023.2.2,Win32,59.88023952,6169dcbed0d8972d0d124591,65d6bb0e977760de756971f7,65d6bedddd292789db81fbcd,0.0489,0.0489,0,129,129,14,1,fourtwo,,,,,,,,,,,,,,,,,,,,,,,,,,,,,,,,,,,,,,,,,,,,,,,,,,,,,,,,,,,,,,,,,,,,,,,,,,,,,,,,,,,,,,,,,,,,,,,,,,,,,,,,,,,,,,,,,,,,,,,,,,,,,,,,,,,,,,,,,
,,6169dcbed0d8972d0d124591,2024-02-22_05h27.06.552,kallum_motion_pilot,2023.2.2,Win32,59.88023952,6169dcbed0d8972d0d124591,65d6bb0e977760de756971f7,65d6bedddd292789db81fbcd,0.049,0.0491,0,130,130,15,1,fourthree,,,,,,,,,,,,,,,,,,,,,,,,,,,,,,,,,,,,,,,,,,,,,,,,,,,,,,,,,,,,,,,,,,,,,,,,,,,,,,,,,,,,,,,,,,,,,,,,,,,,,,,,,,,,,,,,,,,,,,,,,,,,,,,,,,,,,,,,,
,,6169dcbed0d8972d0d124591,2024-02-22_05h27.06.552,kallum_motion_pilot,2023.2.2,Win32,59.88023952,6169dcbed0d8972d0d124591,65d6bb0e977760de756971f7,65d6bedddd292789db81fbcd,0.0502,0.0503,0,131,131,105,1,fiveseven,,,,,,,,,,,,,,,,,,,,,,,,,,,,,,,,,,,,,,,,,,,,,,,,,,,,,,,,,,,,,,,,,,,,,,,,,,,,,,,,,,,,,,,,,,,,,,,,,,,,,,,,,,,,,,,,,,,,,,,,,,,,,,,,,,,,,,,,,
,,6169dcbed0d8972d0d124591,2024-02-22_05h27.06.552,kallum_motion_pilot,2023.2.2,Win32,59.88023952,6169dcbed0d8972d0d124591,65d6bb0e977760de756971f7,65d6bedddd292789db81fbcd,0.0505,0.0505,0,132,132,10,1,twoone,,,,,,,,,,,,,,,,,,,,,,,,,,,,,,,,,,,,,,,,,,,,,,,,,,,,,,,,,,,,,,,,,,,,,,,,,,,,,,,,,,,,,,,,,,,,,,,,,,,,,,,,,,,,,,,,,,,,,,,,,,,,,,,,,,,,,,,,,
,,6169dcbed0d8972d0d124591,2024-02-22_05h27.06.552,kallum_motion_pilot,2023.2.2,Win32,59.88023952,6169dcbed0d8972d0d124591,65d6bb0e977760de756971f7,65d6bedddd292789db81fbcd,0.0506,0.0507,0,133,133,16,1,onetwo,,,,,,,,,,,,,,,,,,,,,,,,,,,,,,,,,,,,,,,,,,,,,,,,,,,,,,,,,,,,,,,,,,,,,,,,,,,,,,,,,,,,,,,,,,,,,,,,,,,,,,,,,,,,,,,,,,,,,,,,,,,,,,,,,,,,,,,,,
,,6169dcbed0d8972d0d124591,2024-02-22_05h27.06.552,kallum_motion_pilot,2023.2.2,Win32,59.88023952,6169dcbed0d8972d0d124591,65d6bb0e977760de756971f7,65d6bedddd292789db81fbcd,0.0507,0.0508,0,134,134,66,1,twoone,,,,,,,,,,,,,,,,,,,,,,,,,,,,,,,,,,,,,,,,,,,,,,,,,,,,,,,,,,,,,,,,,,,,,,,,,,,,,,,,,,,,,,,,,,,,,,,,,,,,,,,,,,,,,,,,,,,,,,,,,,,,,,,,,,,,,,,,,
,,6169dcbed0d8972d0d124591,2024-02-22_05h27.06.552,kallum_motion_pilot,2023.2.2,Win32,59.88023952,6169dcbed0d8972d0d124591,65d6bb0e977760de756971f7,65d6bedddd292789db81fbcd,0.0509,0.051,0,135,135,57,1,onethree,,,,,,,,,,,,,,,,,,,,,,,,,,,,,,,,,,,,,,,,,,,,,,,,,,,,,,,,,,,,,,,,,,,,,,,,,,,,,,,,,,,,,,,,,,,,,,,,,,,,,,,,,,,,,,,,,,,,,,,,,,,,,,,,,,,,,,,,,
,,6169dcbed0d8972d0d124591,2024-02-22_05h27.06.552,kallum_motion_pilot,2023.2.2,Win32,59.88023952,6169dcbed0d8972d0d124591,65d6bb0e977760de756971f7,65d6bedddd292789db81fbcd,0.0511,0.0512,0,136,136,18,1,twoone,,,,,,,,,,,,,,,,,,,,,,,,,,,,,,,,,,,,,,,,,,,,,,,,,,,,,,,,,,,,,,,,,,,,,,,,,,,,,,,,,,,,,,,,,,,,,,,,,,,,,,,,,,,,,,,,,,,,,,,,,,,,,,,,,,,,,,,,,
,,6169dcbed0d8972d0d124591,2024-02-22_05h27.06.552,kallum_motion_pilot,2023.2.2,Win32,59.88023952,6169dcbed0d8972d0d124591,65d6bb0e977760de756971f7,65d6bedddd292789db81fbcd,0.0512,0.0513,0,137,137,125,1,seveneight,,,,,,,,,,,,,,,,,,,,,,,,,,,,,,,,,,,,,,,,,,,,,,,,,,,,,,,,,,,,,,,,,,,,,,,,,,,,,,,,,,,,,,,,,,,,,,,,,,,,,,,,,,,,,,,,,,,,,,,,,,,,,,,,,,,,,,,,,
,,6169dcbed0d8972d0d124591,2024-02-22_05h27.06.552,kallum_motion_pilot,2023.2.2,Win32,59.88023952,6169dcbed0d8972d0d124591,65d6bb0e977760de756971f7,65d6bedddd292789db81fbcd,0.0514,0.0515,0,138,138,67,1,twofour,,,,,,,,,,,,,,,,,,,,,,,,,,,,,,,,,,,,,,,,,,,,,,,,,,,,,,,,,,,,,,,,,,,,,,,,,,,,,,,,,,,,,,,,,,,,,,,,,,,,,,,,,,,,,,,,,,,,,,,,,,,,,,,,,,,,,,,,,
,,6169dcbed0d8972d0d124591,2024-02-22_05h27.06.552,kallum_motion_pilot,2023.2.2,Win32,59.88023952,6169dcbed0d8972d0d124591,65d6bb0e977760de756971f7,65d6bedddd292789db81fbcd,0.0515,0.0517,0,139,139,115,1,sixeight,,,,,,,,,,,,,,,,,,,,,,,,,,,,,,,,,,,,,,,,,,,,,,,,,,,,,,,,,,,,,,,,,,,,,,,,,,,,,,,,,,,,,,,,,,,,,,,,,,,,,,,,,,,,,,,,,,,,,,,,,,,,,,,,,,,,,,,,,
,,6169dcbed0d8972d0d124591,2024-02-22_05h27.06.552,kallum_motion_pilot,2023.2.2,Win32,59.88023952,6169dcbed0d8972d0d124591,65d6bb0e977760de756971f7,65d6bedddd292789db81fbcd,0.0517,0.0518,0,140,140,92,1,sevenfive,,,,,,,,,,,,,,,,,,,,,,,,,,,,,,,,,,,,,,,,,,,,,,,,,,,,,,,,,,,,,,,,,,,,,,,,,,,,,,,,,,,,,,,,,,,,,,,,,,,,,,,,,,,,,,,,,,,,,,,,,,,,,,,,,,,,,,,,,
,,6169dcbed0d8972d0d124591,2024-02-22_05h27.06.552,kallum_motion_pilot,2023.2.2,Win32,59.88023952,6169dcbed0d8972d0d124591,65d6bb0e977760de756971f7,65d6bedddd292789db81fbcd,0.0519,0.0519,0,141,141,43,1,twofour,,,,,,,,,,,,,,,,,,,,,,,,,,,,,,,,,,,,,,,,,,,,,,,,,,,,,,,,,,,,,,,,,,,,,,,,,,,,,,,,,,,,,,,,,,,,,,,,,,,,,,,,,,,,,,,,,,,,,,,,,,,,,,,,,,,,,,,,,
,,6169dcbed0d8972d0d124591,2024-02-22_05h27.06.552,kallum_motion_pilot,2023.2.2,Win32,59.88023952,6169dcbed0d8972d0d124591,65d6bb0e977760de756971f7,65d6bedddd292789db81fbcd,0.052,0.0521,0,142,142,65,1,onethree,,,,,,,,,,,,,,,,,,,,,,,,,,,,,,,,,,,,,,,,,,,,,,,,,,,,,,,,,,,,,,,,,,,,,,,,,,,,,,,,,,,,,,,,,,,,,,,,,,,,,,,,,,,,,,,,,,,,,,,,,,,,,,,,,,,,,,,,,
,,6169dcbed0d8972d0d124591,2024-02-22_05h27.06.552,kallum_motion_pilot,2023.2.2,Win32,59.88023952,6169dcbed0d8972d0d124591,65d6bb0e977760de756971f7,65d6bedddd292789db81fbcd,0.0522,0.0522,0,143,143,64,1,onetwo,,,,,,,,,,,,,,,,,,,,,,,,,,,,,,,,,,,,,,,,,,,,,,,,,,,,,,,,,,,,,,,,,,,,,,,,,,,,,,,,,,,,,,,,,,,,,,,,,,,,,,,,,,,,,,,,,,,,,,,,,,,,,,,,,,,,,,,,,
,,6169dcbed0d8972d0d124591,2024-02-22_05h27.06.552,kallum_motion_pilot,2023.2.2,Win32,59.88023952,6169dcbed0d8972d0d124591,65d6bb0e977760de756971f7,65d6bedddd292789db81fbcd,0.0524,0.0524,0,144,144,58,1,twoone,,,,,,,,,,,,,,,,,,,,,,,,,,,,,,,,,,,,,,,,,,,,,,,,,,,,,,,,,,,,,,,,,,,,,,,,,,,,,,,,,,,,,,,,,,,,,,,,,,,,,,,,,,,,,,,,,,,,,,,,,,,,,,,,,,,,,,,,,
,,6169dcbed0d8972d0d124591,2024-02-22_05h27.06.552,kallum_motion_pilot,2023.2.2,Win32,59.88023952,6169dcbed0d8972d0d124591,65d6bb0e977760de756971f7,65d6bedddd292789db81fbcd,0.0525,0.0527,0,145,145,20,1,threeone,,,,,,,,,,,,,,,,,,,,,,,,,,,,,,,,,,,,,,,,,,,,,,,,,,,,,,,,,,,,,,,,,,,,,,,,,,,,,,,,,,,,,,,,,,,,,,,,,,,,,,,,,,,,,,,,,,,,,,,,,,,,,,,,,,,,,,,,,
,,6169dcbed0d8972d0d124591,2024-02-22_05h27.06.552,kallum_motion_pilot,2023.2.2,Win32,59.88023952,6169dcbed0d8972d0d124591,65d6bb0e977760de756971f7,65d6bedddd292789db81fbcd,0.0528,0.0528,0,146,146,96,1,fivesix,,,,,,,,,,,,,,,,,,,,,,,,,,,,,,,,,,,,,,,,,,,,,,,,,,,,,,,,,,,,,,,,,,,,,,,,,,,,,,,,,,,,,,,,,,,,,,,,,,,,,,,,,,,,,,,,,,,,,,,,,,,,,,,,,,,,,,,,,
,,6169dcbed0d8972d0d124591,2024-02-22_05h27.06.552,kallum_motion_pilot,2023.2.2,Win32,59.88023952,6169dcbed0d8972d0d124591,65d6bb0e977760de756971f7,65d6bedddd292789db81fbcd,0.0529,0.053,0,147,147,83,1,sixeight,,,,,,,,,,,,,,,,,,,,,,,,,,,,,,,,,,,,,,,,,,,,,,,,,,,,,,,,,,,,,,,,,,,,,,,,,,,,,,,,,,,,,,,,,,,,,,,,,,,,,,,,,,,,,,,,,,,,,,,,,,,,,,,,,,,,,,,,,
,,6169dcbed0d8972d0d124591,2024-02-22_05h27.06.552,kallum_motion_pilot,2023.2.2,Win32,59.88023952,6169dcbed0d8972d0d124591,65d6bb0e977760de756971f7,65d6bedddd292789db81fbcd,0.0531,0.0532,0,148,148,155,1,sixeight,,,,,,,,,,,,,,,,,,,,,,,,,,,,,,,,,,,,,,,,,,,,,,,,,,,,,,,,,,,,,,,,,,,,,,,,,,,,,,,,,,,,,,,,,,,,,,,,,,,,,,,,,,,,,,,,,,,,,,,,,,,,,,,,,,,,,,,,,
,,6169dcbed0d8972d0d124591,2024-02-22_05h27.06.552,kallum_motion_pilot,2023.2.2,Win32,59.88023952,6169dcbed0d8972d0d124591,65d6bb0e977760de756971f7,65d6bedddd292789db81fbcd,0.0533,0.0533,0,149,149,70,1,fourtwo,,,,,,,,,,,,,,,,,,,,,,,,,,,,,,,,,,,,,,,,,,,,,,,,,,,,,,,,,,,,,,,,,,,,,,,,,,,,,,,,,,,,,,,,,,,,,,,,,,,,,,,,,,,,,,,,,,,,,,,,,,,,,,,,,,,,,,,,,
,,6169dcbed0d8972d0d124591,2024-02-22_05h27.06.552,kallum_motion_pilot,2023.2.2,Win32,59.88023952,6169dcbed0d8972d0d124591,65d6bb0e977760de756971f7,65d6bedddd292789db81fbcd,0.0534,0.0535,0,150,150,107,1,sixeight,,,,,,,,,,,,,,,,,,,,,,,,,,,,,,,,,,,,,,,,,,,,,,,,,,,,,,,,,,,,,,,,,,,,,,,,,,,,,,,,,,,,,,,,,,,,,,,,,,,,,,,,,,,,,,,,,,,,,,,,,,,,,,,,,,,,,,,,,
,,6169dcbed0d8972d0d124591,2024-02-22_05h27.06.552,kallum_motion_pilot,2023.2.2,Win32,59.88023952,6169dcbed0d8972d0d124591,65d6bb0e977760de756971f7,65d6bedddd292789db81fbcd,0.0535,0.0536,0,151,151,47,1,fourthree,,,,,,,,,,,,,,,,,,,,,,,,,,,,,,,,,,,,,,,,,,,,,,,,,,,,,,,,,,,,,,,,,,,,,,,,,,,,,,,,,,,,,,,,,,,,,,,,,,,,,,,,,,,,,,,,,,,,,,,,,,,,,,,,,,,,,,,,,
,,6169dcbed0d8972d0d124591,2024-02-22_05h27.06.552,kallum_motion_pilot,2023.2.2,Win32,59.88023952,6169dcbed0d8972d0d124591,65d6bb0e977760de756971f7,65d6bedddd292789db81fbcd,0.0537,0.0538,0,152,152,113,1,fiveseven,,,,,,,,,,,,,,,,,,,,,,,,,,,,,,,,,,,,,,,,,,,,,,,,,,,,,,,,,,,,,,,,,,,,,,,,,,,,,,,,,,,,,,,,,,,,,,,,,,,,,,,,,,,,,,,,,,,,,,,,,,,,,,,,,,,,,,,,,
,,6169dcbed0d8972d0d124591,2024-02-22_05h27.06.552,kallum_motion_pilot,2023.2.2,Win32,59.88023952,6169dcbed0d8972d0d124591,65d6bb0e977760de756971f7,65d6bedddd292789db81fbcd,0.0539,0.054,0,153,153,121,1,fiveseven,,,,,,,,,,,,,,,,,,,,,,,,,,,,,,,,,,,,,,,,,,,,,,,,,,,,,,,,,,,,,,,,,,,,,,,,,,,,,,,,,,,,,,,,,,,,,,,,,,,,,,,,,,,,,,,,,,,,,,,,,,,,,,,,,,,,,,,,,
,,6169dcbed0d8972d0d124591,2024-02-22_05h27.06.552,kallum_motion_pilot,2023.2.2,Win32,59.88023952,6169dcbed0d8972d0d124591,65d6bb0e977760de756971f7,65d6bedddd292789db81fbcd,0.0541,0.0542,0,154,154,98,1,sixfive,,,,,,,,,,,,,,,,,,,,,,,,,,,,,,,,,,,,,,,,,,,,,,,,,,,,,,,,,,,,,,,,,,,,,,,,,,,,,,,,,,,,,,,,,,,,,,,,,,,,,,,,,,,,,,,,,,,,,,,,,,,,,,,,,,,,,,,,,
,,6169dcbed0d8972d0d124591,2024-02-22_05h27.06.552,kallum_motion_pilot,2023.2.2,Win32,59.88023952,6169dcbed0d8972d0d124591,65d6bb0e977760de756971f7,65d6bedddd292789db81fbcd,0.0542,0.0543,0,155,155,75,1,twofour,,,,,,,,,,,,,,,,,,,,,,,,,,,,,,,,,,,,,,,,,,,,,,,,,,,,,,,,,,,,,,,,,,,,,,,,,,,,,,,,,,,,,,,,,,,,,,,,,,,,,,,,,,,,,,,,,,,,,,,,,,,,,,,,,,,,,,,,,
,,6169dcbed0d8972d0d124591,2024-02-22_05h27.06.552,kallum_motion_pilot,2023.2.2,Win32,59.88023952,6169dcbed0d8972d0d124591,65d6bb0e977760de756971f7,65d6bedddd292789db81fbcd,0.0544,0.0544,0,156,156,69,1,threefour,,,,,,,,,,,,,,,,,,,,,,,,,,,,,,,,,,,,,,,,,,,,,,,,,,,,,,,,,,,,,,,,,,,,,,,,,,,,,,,,,,,,,,,,,,,,,,,,,,,,,,,,,,,,,,,,,,,,,,,,,,,,,,,,,,,,,,,,,
,,6169dcbed0d8972d0d124591,2024-02-22_05h27.06.552,kallum_motion_pilot,2023.2.2,Win32,59.88023952,6169dcbed0d8972d0d124591,65d6bb0e977760de756971f7,65d6bedddd292789db81fbcd,0.0545,0.0546,0,157,157,77,1,threefour,,,,,,,,,,,,,,,,,,,,,,,,,,,,,,,,,,,,,,,,,,,,,,,,,,,,,,,,,,,,,,,,,,,,,,,,,,,,,,,,,,,,,,,,,,,,,,,,,,,,,,,,,,,,,,,,,,,,,,,,,,,,,,,,,,,,,,,,,
,,6169dcbed0d8972d0d124591,2024-02-22_05h27.06.552,kallum_motion_pilot,2023.2.2,Win32,59.88023952,6169dcbed0d8972d0d124591,65d6bb0e977760de756971f7,65d6bedddd292789db81fbcd,0.0547,0.0547,0,158,158,104,1,fivesix,,,,,,,,,,,,,,,,,,,,,,,,,,,,,,,,,,,,,,,,,,,,,,,,,,,,,,,,,,,,,,,,,,,,,,,,,,,,,,,,,,,,,,,,,,,,,,,,,,,,,,,,,,,,,,,,,,,,,,,,,,,,,,,,,,,,,,,,,
,,6169dcbed0d8972d0d124591,2024-02-22_05h27.06.552,kallum_motion_pilot,2023.2.2,Win32,59.88023952,6169dcbed0d8972d0d124591,65d6bb0e977760de756971f7,65d6bedddd292789db81fbcd,0.0549,0.0549,0,159,159,54,1,fourtwo,,,,,,,,,,,,,,,,,,,,,,,,,,,,,,,,,,,,,,,,,,,,,,,,,,,,,,,,,,,,,,,,,,,,,,,,,,,,,,,,,,,,,,,,,,,,,,,,,,,,,,,,,,,,,,,,,,,,,,,,,,,,,,,,,,,,,,,,,
,,6169dcbed0d8972d0d124591,2024-02-22_05h27.06.552,kallum_motion_pilot,2023.2.2,Win32,59.88023952,6169dcbed0d8972d0d124591,65d6bb0e977760de756971f7,65d6bedddd292789db81fbcd,0.055,0.0551,0,160,160,146,1,sixfive,,,,,,,,,,,,,,,,,,,,,,,,,,,,,,,,,,,,,,,,,,,,,,,,,,,,,,,,,,,,,,,,,,,,,,,,,,,,,,,,,,,,,,,,,,,,,,,,,,,,,,,,,,,,,,,,,,,,,,,,,,,,,,,,,,,,,,,,,
,,6169dcbed0d8972d0d124591,2024-02-22_05h27.06.552,kallum_motion_pilot,2023.2.2,Win32,59.88023952,6169dcbed0d8972d0d124591,65d6bb0e977760de756971f7,65d6bedddd292789db81fbcd,0.0551,0.0553,0,161,161,5,1,threefour,,,,,,,,,,,,,,,,,,,,,,,,,,,,,,,,,,,,,,,,,,,,,,,,,,,,,,,,,,,,,,,,,,,,,,,,,,,,,,,,,,,,,,,,,,,,,,,,,,,,,,,,,,,,,,,,,,,,,,,,,,,,,,,,,,,,,,,,,
,,6169dcbed0d8972d0d124591,2024-02-22_05h27.06.552,kallum_motion_pilot,2023.2.2,Win32,59.88023952,6169dcbed0d8972d0d124591,65d6bb0e977760de756971f7,65d6bedddd292789db81fbcd,0.0554,0.0554,1,0,162,75,1,twofour,,,,,,,,,,,,,,,,,,,,,,,,,,,,,,,,,,,,,,,,,,,,,,,,,,,,,,,,,,,,,,,,,,,,,,,,,,,,,,,,,,,,,,,,,,,,,,,,,,,,,,,,,,,,,,,,,,,,,,,,,,,,,,,,,,,,,,,,,
,,6169dcbed0d8972d0d124591,2024-02-22_05h27.06.552,kallum_motion_pilot,2023.2.2,Win32,59.88023952,6169dcbed0d8972d0d124591,65d6bb0e977760de756971f7,65d6bedddd292789db81fbcd,0.0555,0.0556,1,1,163,9,1,onethree,,,,,,,,,,,,,,,,,,,,,,,,,,,,,,,,,,,,,,,,,,,,,,,,,,,,,,,,,,,,,,,,,,,,,,,,,,,,,,,,,,,,,,,,,,,,,,,,,,,,,,,,,,,,,,,,,,,,,,,,,,,,,,,,,,,,,,,,,
,,6169dcbed0d8972d0d124591,2024-02-22_05h27.06.552,kallum_motion_pilot,2023.2.2,Win32,59.88023952,6169dcbed0d8972d0d124591,65d6bb0e977760de756971f7,65d6bedddd292789db81fbcd,0.0557,0.0558,1,2,164,154,1,sixfive,,,,,,,,,,,,,,,,,,,,,,,,,,,,,,,,,,,,,,,,,,,,,,,,,,,,,,,,,,,,,,,,,,,,,,,,,,,,,,,,,,,,,,,,,,,,,,,,,,,,,,,,,,,,,,,,,,,,,,,,,,,,,,,,,,,,,,,,,
,,6169dcbed0d8972d0d124591,2024-02-22_05h27.06.552,kallum_motion_pilot,2023.2.2,Win32,59.88023952,6169dcbed0d8972d0d124591,65d6bb0e977760de756971f7,65d6bedddd292789db81fbcd,0.056,0.056,1,3,165,55,1,fourthree,,,,,,,,,,,,,,,,,,,,,,,,,,,,,,,,,,,,,,,,,,,,,,,,,,,,,,,,,,,,,,,,,,,,,,,,,,,,,,,,,,,,,,,,,,,,,,,,,,,,,,,,,,,,,,,,,,,,,,,,,,,,,,,,,,,,,,,,,
,,6169dcbed0d8972d0d124591,2024-02-22_05h27.06.552,kallum_motion_pilot,2023.2.2,Win32,59.88023952,6169dcbed0d8972d0d124591,65d6bb0e977760de756971f7,65d6bedddd292789db81fbcd,0.0562,0.0562,1,4,166,161,1,fiveseven,,,,,,,,,,,,,,,,,,,,,,,,,,,,,,,,,,,,,,,,,,,,,,,,,,,,,,,,,,,,,,,,,,,,,,,,,,,,,,,,,,,,,,,,,,,,,,,,,,,,,,,,,,,,,,,,,,,,,,,,,,,,,,,,,,,,,,,,,
,,6169dcbed0d8972d0d124591,2024-02-22_05h27.06.552,kallum_motion_pilot,2023.2.2,Win32,59.88023952,6169dcbed0d8972d0d124591,65d6bb0e977760de756971f7,65d6bedddd292789db81fbcd,0.0563,0.0564,1,5,167,117,1,seveneight,,,,,,,,,,,,,,,,,,,,,,,,,,,,,,,,,,,,,,,,,,,,,,,,,,,,,,,,,,,,,,,,,,,,,,,,,,,,,,,,,,,,,,,,,,,,,,,,,,,,,,,,,,,,,,,,,,,,,,,,,,,,,,,,,,,,,,,,,
,,6169dcbed0d8972d0d124591,2024-02-22_05h27.06.552,kallum_motion_pilot,2023.2.2,Win32,59.88023952,6169dcbed0d8972d0d124591,65d6bb0e977760de756971f7,65d6bedddd292789db81fbcd,0.0565,0.0565,1,6,168,89,1,fiveseven,,,,,,,,,,,,,,,,,,,,,,,,,,,,,,,,,,,,,,,,,,,,,,,,,,,,,,,,,,,,,,,,,,,,,,,,,,,,,,,,,,,,,,,,,,,,,,,,,,,,,,,,,,,,,,,,,,,,,,,,,,,,,,,,,,,,,,,,,
,,6169dcbed0d8972d0d124591,2024-02-22_05h27.06.552,kallum_motion_pilot,2023.2.2,Win32,59.88023952,6169dcbed0d8972d0d124591,65d6bb0e977760de756971f7,65d6bedddd292789db81fbcd,0.0566,0.0567,1,7,169,68,1,threeone,,,,,,,,,,,,,,,,,,,,,,,,,,,,,,,,,,,,,,,,,,,,,,,,,,,,,,,,,,,,,,,,,,,,,,,,,,,,,,,,,,,,,,,,,,,,,,,,,,,,,,,,,,,,,,,,,,,,,,,,,,,,,,,,,,,,,,,,,
,,6169dcbed0d8972d0d124591,2024-02-22_05h27.06.552,kallum_motion_pilot,2023.2.2,Win32,59.88023952,6169dcbed0d8972d0d124591,65d6bb0e977760de756971f7,65d6bedddd292789db81fbcd,0.0568,0.0568,1,8,170,24,1,onetwo,,,,,,,,,,,,,,,,,,,,,,,,,,,,,,,,,,,,,,,,,,,,,,,,,,,,,,,,,,,,,,,,,,,,,,,,,,,,,,,,,,,,,,,,,,,,,,,,,,,,,,,,,,,,,,,,,,,,,,,,,,,,,,,,,,,,,,,,,
,,6169dcbed0d8972d0d124591,2024-02-22_05h27.06.552,kallum_motion_pilot,2023.2.2,Win32,59.88023952,6169dcbed0d8972d0d124591,65d6bb0e977760de756971f7,65d6bedddd292789db81fbcd,0.0569,0.057,1,9,171,43,1,twofour,,,,,,,,,,,,,,,,,,,,,,,,,,,,,,,,,,,,,,,,,,,,,,,,,,,,,,,,,,,,,,,,,,,,,,,,,,,,,,,,,,,,,,,,,,,,,,,,,,,,,,,,,,,,,,,,,,,,,,,,,,,,,,,,,,,,,,,,,
,,6169dcbed0d8972d0d124591,2024-02-22_05h27.06.552,kallum_motion_pilot,2023.2.2,Win32,59.88023952,6169dcbed0d8972d0d124591,65d6bb0e977760de756971f7,65d6bedddd292789db81fbcd,0.0572,0.0572,1,10,172,13,1,threefour,,,,,,,,,,,,,,,,,,,,,,,,,,,,,,,,,,,,,,,,,,,,,,,,,,,,,,,,,,,,,,,,,,,,,,,,,,,,,,,,,,,,,,,,,,,,,,,,,,,,,,,,,,,,,,,,,,,,,,,,,,,,,,,,,,,,,,,,,
,,6169dcbed0d8972d0d124591,2024-02-22_05h27.06.552,kallum_motion_pilot,2023.2.2,Win32,59.88023952,6169dcbed0d8972d0d124591,65d6bb0e977760de756971f7,65d6bedddd292789db81fbcd,0.0573,0.0575,1,11,173,71,1,fourthree,,,,,,,,,,,,,,,,,,,,,,,,,,,,,,,,,,,,,,,,,,,,,,,,,,,,,,,,,,,,,,,,,,,,,,,,,,,,,,,,,,,,,,,,,,,,,,,,,,,,,,,,,,,,,,,,,,,,,,,,,,,,,,,,,,,,,,,,,
,,6169dcbed0d8972d0d124591,2024-02-22_05h27.06.552,kallum_motion_pilot,2023.2.2,Win32,59.88023952,6169dcbed0d8972d0d124591,65d6bb0e977760de756971f7,65d6bedddd292789db81fbcd,0.0576,0.0577,1,12,174,1,1,onethree,,,,,,,,,,,,,,,,,,,,,,,,,,,,,,,,,,,,,,,,,,,,,,,,,,,,,,,,,,,,,,,,,,,,,,,,,,,,,,,,,,,,,,,,,,,,,,,,,,,,,,,,,,,,,,,,,,,,,,,,,,,,,,,,,,,,,,,,,
,,6169dcbed0d8972d0d124591,2024-02-22_05h27.06.552,kallum_motion_pilot,2023.2.2,Win32,59.88023952,6169dcbed0d8972d0d124591,65d6bb0e977760de756971f7,65d6bedddd292789db81fbcd,0.0578,0.0579,1,13,175,97,1,fiveseven,,,,,,,,,,,,,,,,,,,,,,,,,,,,,,,,,,,,,,,,,,,,,,,,,,,,,,,,,,,,,,,,,,,,,,,,,,,,,,,,,,,,,,,,,,,,,,,,,,,,,,,,,,,,,,,,,,,,,,,,,,,,,,,,,,,,,,,,,
,,6169dcbed0d8972d0d124591,2024-02-22_05h27.06.552,kallum_motion_pilot,2023.2.2,Win32,59.88023952,6169dcbed0d8972d0d124591,65d6bb0e977760de756971f7,65d6bedddd292789db81fbcd,0.058,0.0581,1,14,176,146,1,sixfive,,,,,,,,,,,,,,,,,,,,,,,,,,,,,,,,,,,,,,,,,,,,,,,,,,,,,,,,,,,,,,,,,,,,,,,,,,,,,,,,,,,,,,,,,,,,,,,,,,,,,,,,,,,,,,,,,,,,,,,,,,,,,,,,,,,,,,,,,
,,6169dcbed0d8972d0d124591,2024-02-22_05h27.06.552,kallum_motion_pilot,2023.2.2,Win32,59.88023952,6169dcbed0d8972d0d124591,65d6bb0e977760de756971f7,65d6bedddd292789db81fbcd,0.0582,0.0583,1,15,177,124,1,sevenfive,,,,,,,,,,,,,,,,,,,,,,,,,,,,,,,,,,,,,,,,,,,,,,,,,,,,,,,,,,,,,,,,,,,,,,,,,,,,,,,,,,,,,,,,,,,,,,,,,,,,,,,,,,,,,,,,,,,,,,,,,,,,,,,,,,,,,,,,,
,,6169dcbed0d8972d0d124591,2024-02-22_05h27.06.552,kallum_motion_pilot,2023.2.2,Win32,59.88023952,6169dcbed0d8972d0d124591,65d6bb0e977760de756971f7,65d6bedddd292789db81fbcd,0.0584,0.0585,1,16,178,115,1,sixeight,,,,,,,,,,,,,,,,,,,,,,,,,,,,,,,,,,,,,,,,,,,,,,,,,,,,,,,,,,,,,,,,,,,,,,,,,,,,,,,,,,,,,,,,,,,,,,,,,,,,,,,,,,,,,,,,,,,,,,,,,,,,,,,,,,,,,,,,,
,,6169dcbed0d8972d0d124591,2024-02-22_05h27.06.552,kallum_motion_pilot,2023.2.2,Win32,59.88023952,6169dcbed0d8972d0d124591,65d6bb0e977760de756971f7,65d6bedddd292789db81fbcd,0.0585,0.0586,1,17,179,18,1,twoone,,,,,,,,,,,,,,,,,,,,,,,,,,,,,,,,,,,,,,,,,,,,,,,,,,,,,,,,,,,,,,,,,,,,,,,,,,,,,,,,,,,,,,,,,,,,,,,,,,,,,,,,,,,,,,,,,,,,,,,,,,,,,,,,,,,,,,,,,
,,6169dcbed0d8972d0d124591,2024-02-22_05h27.06.552,kallum_motion_pilot,2023.2.2,Win32,59.88023952,6169dcbed0d8972d0d124591,65d6bb0e977760de756971f7,65d6bedddd292789db81fbcd,0.0587,0.0588,1,18,180,158,1,eightsix,,,,,,,,,,,,,,,,,,,,,,,,,,,,,,,,,,,,,,,,,,,,,,,,,,,,,,,,,,,,,,,,,,,,,,,,,,,,,,,,,,,,,,,,,,,,,,,,,,,,,,,,,,,,,,,,,,,,,,,,,,,,,,,,,,,,,,,,,
,,6169dcbed0d8972d0d124591,2024-02-22_05h27.06.552,kallum_motion_pilot,2023.2.2,Win32,59.88023952,6169dcbed0d8972d0d124591,65d6bb0e977760de756971f7,65d6bedddd292789db81fbcd,0.0589,0.059,1,19,181,102,1,eightsix,,,,,,,,,,,,,,,,,,,,,,,,,,,,,,,,,,,,,,,,,,,,,,,,,,,,,,,,,,,,,,,,,,,,,,,,,,,,,,,,,,,,,,,,,,,,,,,,,,,,,,,,,,,,,,,,,,,,,,,,,,,,,,,,,,,,,,,,,
,,6169dcbed0d8972d0d124591,2024-02-22_05h27.06.552,kallum_motion_pilot,2023.2.2,Win32,59.88023952,6169dcbed0d8972d0d124591,65d6bb0e977760de756971f7,65d6bedddd292789db81fbcd,0.0591,0.0591,1,20,182,120,1,fivesix,,,,,,,,,,,,,,,,,,,,,,,,,,,,,,,,,,,,,,,,,,,,,,,,,,,,,,,,,,,,,,,,,,,,,,,,,,,,,,,,,,,,,,,,,,,,,,,,,,,,,,,,,,,,,,,,,,,,,,,,,,,,,,,,,,,,,,,,,
,,6169dcbed0d8972d0d124591,2024-02-22_05h27.06.552,kallum_motion_pilot,2023.2.2,Win32,59.88023952,6169dcbed0d8972d0d124591,65d6bb0e977760de756971f7,65d6bedddd292789db81fbcd,0.0593,0.0593,1,21,183,59,1,twofour,,,,,,,,,,,,,,,,,,,,,,,,,,,,,,,,,,,,,,,,,,,,,,,,,,,,,,,,,,,,,,,,,,,,,,,,,,,,,,,,,,,,,,,,,,,,,,,,,,,,,,,,,,,,,,,,,,,,,,,,,,,,,,,,,,,,,,,,,
,,6169dcbed0d8972d0d124591,2024-02-22_05h27.06.552,kallum_motion_pilot,2023.2.2,Win32,59.88023952,6169dcbed0d8972d0d124591,65d6bb0e977760de756971f7,65d6bedddd292789db81fbcd,0.0595,0.0596,1,22,184,105,1,fiveseven,,,,,,,,,,,,,,,,,,,,,,,,,,,,,,,,,,,,,,,,,,,,,,,,,,,,,,,,,,,,,,,,,,,,,,,,,,,,,,,,,,,,,,,,,,,,,,,,,,,,,,,,,,,,,,,,,,,,,,,,,,,,,,,,,,,,,,,,,
,,6169dcbed0d8972d0d124591,2024-02-22_05h27.06.552,kallum_motion_pilot,2023.2.2,Win32,59.88023952,6169dcbed0d8972d0d124591,65d6bb0e977760de756971f7,65d6bedddd292789db81fbcd,0.0596,0.0597,1,23,185,148,1,sevenfive,,,,,,,,,,,,,,,,,,,,,,,,,,,,,,,,,,,,,,,,,,,,,,,,,,,,,,,,,,,,,,,,,,,,,,,,,,,,,,,,,,,,,,,,,,,,,,,,,,,,,,,,,,,,,,,,,,,,,,,,,,,,,,,,,,,,,,,,,
,,6169dcbed0d8972d0d124591,2024-02-22_05h27.06.552,kallum_motion_pilot,2023.2.2,Win32,59.88023952,6169dcbed0d8972d0d124591,65d6bb0e977760de756971f7,65d6bedddd292789db81fbcd,0.0599,0.0599,1,24,186,100,1,sevenfive,,,,,,,,,,,,,,,,,,,,,,,,,,,,,,,,,,,,,,,,,,,,,,,,,,,,,,,,,,,,,,,,,,,,,,,,,,,,,,,,,,,,,,,,,,,,,,,,,,,,,,,,,,,,,,,,,,,,,,,,,,,,,,,,,,,,,,,,,
,,6169dcbed0d8972d0d124591,2024-02-22_05h27.06.552,kallum_motion_pilot,2023.2.2,Win32,59.88023952,6169dcbed0d8972d0d124591,65d6bb0e977760de756971f7,65d6bedddd292789db81fbcd,0.0602,0.0603,1,25,187,87,1,eightseven,,,,,,,,,,,,,,,,,,,,,,,,,,,,,,,,,,,,,,,,,,,,,,,,,,,,,,,,,,,,,,,,,,,,,,,,,,,,,,,,,,,,,,,,,,,,,,,,,,,,,,,,,,,,,,,,,,,,,,,,,,,,,,,,,,,,,,,,,
,,6169dcbed0d8972d0d124591,2024-02-22_05h27.06.552,kallum_motion_pilot,2023.2.2,Win32,59.88023952,6169dcbed0d8972d0d124591,65d6bb0e977760de756971f7,65d6bedddd292789db81fbcd,0.0604,0.0605,1,26,188,23,1,fourthree,,,,,,,,,,,,,,,,,,,,,,,,,,,,,,,,,,,,,,,,,,,,,,,,,,,,,,,,,,,,,,,,,,,,,,,,,,,,,,,,,,,,,,,,,,,,,,,,,,,,,,,,,,,,,,,,,,,,,,,,,,,,,,,,,,,,,,,,,
,,6169dcbed0d8972d0d124591,2024-02-22_05h27.06.552,kallum_motion_pilot,2023.2.2,Win32,59.88023952,6169dcbed0d8972d0d124591,65d6bb0e977760de756971f7,65d6bedddd292789db81fbcd,0.0606,0.0607,1,27,189,82,1,sixfive,,,,,,,,,,,,,,,,,,,,,,,,,,,,,,,,,,,,,,,,,,,,,,,,,,,,,,,,,,,,,,,,,,,,,,,,,,,,,,,,,,,,,,,,,,,,,,,,,,,,,,,,,,,,,,,,,,,,,,,,,,,,,,,,,,,,,,,,,
,,6169dcbed0d8972d0d124591,2024-02-22_05h27.06.552,kallum_motion_pilot,2023.2.2,Win32,59.88023952,6169dcbed0d8972d0d124591,65d6bb0e977760de756971f7,65d6bedddd292789db81fbcd,0.0607,0.0609,1,28,190,8,1,onetwo,,,,,,,,,,,,,,,,,,,,,,,,,,,,,,,,,,,,,,,,,,,,,,,,,,,,,,,,,,,,,,,,,,,,,,,,,,,,,,,,,,,,,,,,,,,,,,,,,,,,,,,,,,,,,,,,,,,,,,,,,,,,,,,,,,,,,,,,,
,,6169dcbed0d8972d0d124591,2024-02-22_05h27.06.552,kallum_motion_pilot,2023.2.2,Win32,59.88023952,6169dcbed0d8972d0d124591,65d6bb0e977760de756971f7,65d6bedddd292789db81fbcd,0.0609,0.061,1,29,191,11,1,twofour,,,,,,,,,,,,,,,,,,,,,,,,,,,,,,,,,,,,,,,,,,,,,,,,,,,,,,,,,,,,,,,,,,,,,,,,,,,,,,,,,,,,,,,,,,,,,,,,,,,,,,,,,,,,,,,,,,,,,,,,,,,,,,,,,,,,,,,,,
,,6169dcbed0d8972d0d124591,2024-02-22_05h27.06.552,kallum_motion_pilot,2023.2.2,Win32,59.88023952,6169dcbed0d8972d0d124591,65d6bb0e977760de756971f7,65d6bedddd292789db81fbcd,0.0611,0.0612,1,30,192,22,1,fourtwo,,,,,,,,,,,,,,,,,,,,,,,,,,,,,,,,,,,,,,,,,,,,,,,,,,,,,,,,,,,,,,,,,,,,,,,,,,,,,,,,,,,,,,,,,,,,,,,,,,,,,,,,,,,,,,,,,,,,,,,,,,,,,,,,,,,,,,,,,
,,6169dcbed0d8972d0d124591,2024-02-22_05h27.06.552,kallum_motion_pilot,2023.2.2,Win32,59.88023952,6169dcbed0d8972d0d124591,65d6bb0e977760de756971f7,65d6bedddd292789db81fbcd,0.0613,0.0614,1,31,193,40,1,onetwo,,,,,,,,,,,,,,,,,,,,,,,,,,,,,,,,,,,,,,,,,,,,,,,,,,,,,,,,,,,,,,,,,,,,,,,,,,,,,,,,,,,,,,,,,,,,,,,,,,,,,,,,,,,,,,,,,,,,,,,,,,,,,,,,,,,,,,,,,
,,6169dcbed0d8972d0d124591,2024-02-22_05h27.06.552,kallum_motion_pilot,2023.2.2,Win32,59.88023952,6169dcbed0d8972d0d124591,65d6bb0e977760de756971f7,65d6bedddd292789db81fbcd,0.0615,0.0616,1,32,194,99,1,sixeight,,,,,,,,,,,,,,,,,,,,,,,,,,,,,,,,,,,,,,,,,,,,,,,,,,,,,,,,,,,,,,,,,,,,,,,,,,,,,,,,,,,,,,,,,,,,,,,,,,,,,,,,,,,,,,,,,,,,,,,,,,,,,,,,,,,,,,,,,
,,6169dcbed0d8972d0d124591,2024-02-22_05h27.06.552,kallum_motion_pilot,2023.2.2,Win32,59.88023952,6169dcbed0d8972d0d124591,65d6bb0e977760de756971f7,65d6bedddd292789db81fbcd,0.0617,0.0618,1,33,195,5,1,threefour,,,,,,,,,,,,,,,,,,,,,,,,,,,,,,,,,,,,,,,,,,,,,,,,,,,,,,,,,,,,,,,,,,,,,,,,,,,,,,,,,,,,,,,,,,,,,,,,,,,,,,,,,,,,,,,,,,,,,,,,,,,,,,,,,,,,,,,,,
,,6169dcbed0d8972d0d124591,2024-02-22_05h27.06.552,kallum_motion_pilot,2023.2.2,Win32,59.88023952,6169dcbed0d8972d0d124591,65d6bb0e977760de756971f7,65d6bedddd292789db81fbcd,0.062,0.0621,1,34,196,0,1,onetwo,,,,,,,,,,,,,,,,,,,,,,,,,,,,,,,,,,,,,,,,,,,,,,,,,,,,,,,,,,,,,,,,,,,,,,,,,,,,,,,,,,,,,,,,,,,,,,,,,,,,,,,,,,,,,,,,,,,,,,,,,,,,,,,,,,,,,,,,,
,,6169dcbed0d8972d0d124591,2024-02-22_05h27.06.552,kallum_motion_pilot,2023.2.2,Win32,59.88023952,6169dcbed0d8972d0d124591,65d6bb0e977760de756971f7,65d6bedddd292789db81fbcd,0.0622,0.0626,1,35,197,7,1,fourthree,,,,,,,,,,,,,,,,,,,,,,,,,,,,,,,,,,,,,,,,,,,,,,,,,,,,,,,,,,,,,,,,,,,,,,,,,,,,,,,,,,,,,,,,,,,,,,,,,,,,,,,,,,,,,,,,,,,,,,,,,,,,,,,,,,,,,,,,,
,,6169dcbed0d8972d0d124591,2024-02-22_05h27.06.552,kallum_motion_pilot,2023.2.2,Win32,59.88023952,6169dcbed0d8972d0d124591,65d6bb0e977760de756971f7,65d6bedddd292789db81fbcd,0.0633,0.0635,1,36,198,62,1,fourtwo,,,,,,,,,,,,,,,,,,,,,,,,,,,,,,,,,,,,,,,,,,,,,,,,,,,,,,,,,,,,,,,,,,,,,,,,,,,,,,,,,,,,,,,,,,,,,,,,,,,,,,,,,,,,,,,,,,,,,,,,,,,,,,,,,,,,,,,,,
,,6169dcbed0d8972d0d124591,2024-02-22_05h27.06.552,kallum_motion_pilot,2023.2.2,Win32,59.88023952,6169dcbed0d8972d0d124591,65d6bb0e977760de756971f7,65d6bedddd292789db81fbcd,0.0637,0.0638,1,37,199,32,1,onetwo,,,,,,,,,,,,,,,,,,,,,,,,,,,,,,,,,,,,,,,,,,,,,,,,,,,,,,,,,,,,,,,,,,,,,,,,,,,,,,,,,,,,,,,,,,,,,,,,,,,,,,,,,,,,,,,,,,,,,,,,,,,,,,,,,,,,,,,,,
,,6169dcbed0d8972d0d124591,2024-02-22_05h27.06.552,kallum_motion_pilot,2023.2.2,Win32,59.88023952,6169dcbed0d8972d0d124591,65d6bb0e977760de756971f7,65d6bedddd292789db81fbcd,0.0639,0.0639,1,38,200,50,1,twoone,,,,,,,,,,,,,,,,,,,,,,,,,,,,,,,,,,,,,,,,,,,,,,,,,,,,,,,,,,,,,,,,,,,,,,,,,,,,,,,,,,,,,,,,,,,,,,,,,,,,,,,,,,,,,,,,,,,,,,,,,,,,,,,,,,,,,,,,,
,,6169dcbed0d8972d0d124591,2024-02-22_05h27.06.552,kallum_motion_pilot,2023.2.2,Win32,59.88023952,6169dcbed0d8972d0d124591,65d6bb0e977760de756971f7,65d6bedddd292789db81fbcd,0.0641,0.0643,1,39,201,64,1,onetwo,,,,,,,,,,,,,,,,,,,,,,,,,,,,,,,,,,,,,,,,,,,,,,,,,,,,,,,,,,,,,,,,,,,,,,,,,,,,,,,,,,,,,,,,,,,,,,,,,,,,,,,,,,,,,,,,,,,,,,,,,,,,,,,,,,,,,,,,,
,,6169dcbed0d8972d0d124591,2024-02-22_05h27.06.552,kallum_motion_pilot,2023.2.2,Win32,59.88023952,6169dcbed0d8972d0d124591,65d6bb0e977760de756971f7,65d6bedddd292789db81fbcd,0.0644,0.0644,1,40,202,104,1,fivesix,,,,,,,,,,,,,,,,,,,,,,,,,,,,,,,,,,,,,,,,,,,,,,,,,,,,,,,,,,,,,,,,,,,,,,,,,,,,,,,,,,,,,,,,,,,,,,,,,,,,,,,,,,,,,,,,,,,,,,,,,,,,,,,,,,,,,,,,,
,,6169dcbed0d8972d0d124591,2024-02-22_05h27.06.552,kallum_motion_pilot,2023.2.2,Win32,59.88023952,6169dcbed0d8972d0d124591,65d6bb0e977760de756971f7,65d6bedddd292789db81fbcd,0.0645,0.0647,1,41,203,113,1,fiveseven,,,,,,,,,,,,,,,,,,,,,,,,,,,,,,,,,,,,,,,,,,,,,,,,,,,,,,,,,,,,,,,,,,,,,,,,,,,,,,,,,,,,,,,,,,,,,,,,,,,,,,,,,,,,,,,,,,,,,,,,,,,,,,,,,,,,,,,,,
,,6169dcbed0d8972d0d124591,2024-02-22_05h27.06.552,kallum_motion_pilot,2023.2.2,Win32,59.88023952,6169dcbed0d8972d0d124591,65d6bb0e977760de756971f7,65d6bedddd292789db81fbcd,0.0648,0.0649,1,42,204,137,1,fiveseven,,,,,,,,,,,,,,,,,,,,,,,,,,,,,,,,,,,,,,,,,,,,,,,,,,,,,,,,,,,,,,,,,,,,,,,,,,,,,,,,,,,,,,,,,,,,,,,,,,,,,,,,,,,,,,,,,,,,,,,,,,,,,,,,,,,,,,,,,
,,6169dcbed0d8972d0d124591,2024-02-22_05h27.06.552,kallum_motion_pilot,2023.2.2,Win32,59.88023952,6169dcbed0d8972d0d124591,65d6bb0e977760de756971f7,65d6bedddd292789db81fbcd,0.065,0.0652,1,43,205,47,1,fourthree,,,,,,,,,,,,,,,,,,,,,,,,,,,,,,,,,,,,,,,,,,,,,,,,,,,,,,,,,,,,,,,,,,,,,,,,,,,,,,,,,,,,,,,,,,,,,,,,,,,,,,,,,,,,,,,,,,,,,,,,,,,,,,,,,,,,,,,,,
,,6169dcbed0d8972d0d124591,2024-02-22_05h27.06.552,kallum_motion_pilot,2023.2.2,Win32,59.88023952,6169dcbed0d8972d0d124591,65d6bb0e977760de756971f7,65d6bedddd292789db81fbcd,0.0653,0.0654,1,44,206,109,1,seveneight,,,,,,,,,,,,,,,,,,,,,,,,,,,,,,,,,,,,,,,,,,,,,,,,,,,,,,,,,,,,,,,,,,,,,,,,,,,,,,,,,,,,,,,,,,,,,,,,,,,,,,,,,,,,,,,,,,,,,,,,,,,,,,,,,,,,,,,,,
,,6169dcbed0d8972d0d124591,2024-02-22_05h27.06.552,kallum_motion_pilot,2023.2.2,Win32,59.88023952,6169dcbed0d8972d0d124591,65d6bb0e977760de756971f7,65d6bedddd292789db81fbcd,0.0656,0.0658,1,45,207,151,1,eightseven,,,,,,,,,,,,,,,,,,,,,,,,,,,,,,,,,,,,,,,,,,,,,,,,,,,,,,,,,,,,,,,,,,,,,,,,,,,,,,,,,,,,,,,,,,,,,,,,,,,,,,,,,,,,,,,,,,,,,,,,,,,,,,,,,,,,,,,,,
,,6169dcbed0d8972d0d124591,2024-02-22_05h27.06.552,kallum_motion_pilot,2023.2.2,Win32,59.88023952,6169dcbed0d8972d0d124591,65d6bb0e977760de756971f7,65d6bedddd292789db81fbcd,0.0659,0.066,1,46,208,129,1,fiveseven,,,,,,,,,,,,,,,,,,,,,,,,,,,,,,,,,,,,,,,,,,,,,,,,,,,,,,,,,,,,,,,,,,,,,,,,,,,,,,,,,,,,,,,,,,,,,,,,,,,,,,,,,,,,,,,,,,,,,,,,,,,,,,,,,,,,,,,,,
,,6169dcbed0d8972d0d124591,2024-02-22_05h27.06.552,kallum_motion_pilot,2023.2.2,Win32,59.88023952,6169dcbed0d8972d0d124591,65d6bb0e977760de756971f7,65d6bedddd292789db81fbcd,0.0662,0.0663,1,47,209,79,1,eightseven,,,,,,,,,,,,,,,,,,,,,,,,,,,,,,,,,,,,,,,,,,,,,,,,,,,,,,,,,,,,,,,,,,,,,,,,,,,,,,,,,,,,,,,,,,,,,,,,,,,,,,,,,,,,,,,,,,,,,,,,,,,,,,,,,,,,,,,,,
,,6169dcbed0d8972d0d124591,2024-02-22_05h27.06.552,kallum_motion_pilot,2023.2.2,Win32,59.88023952,6169dcbed0d8972d0d124591,65d6bb0e977760de756971f7,65d6bedddd292789db81fbcd,0.0663,0.0665,1,48,210,114,1,sixfive,,,,,,,,,,,,,,,,,,,,,,,,,,,,,,,,,,,,,,,,,,,,,,,,,,,,,,,,,,,,,,,,,,,,,,,,,,,,,,,,,,,,,,,,,,,,,,,,,,,,,,,,,,,,,,,,,,,,,,,,,,,,,,,,,,,,,,,,,
,,6169dcbed0d8972d0d124591,2024-02-22_05h27.06.552,kallum_motion_pilot,2023.2.2,Win32,59.88023952,6169dcbed0d8972d0d124591,65d6bb0e977760de756971f7,65d6bedddd292789db81fbcd,0.0666,0.0668,1,49,211,139,1,sixeight,,,,,,,,,,,,,,,,,,,,,,,,,,,,,,,,,,,,,,,,,,,,,,,,,,,,,,,,,,,,,,,,,,,,,,,,,,,,,,,,,,,,,,,,,,,,,,,,,,,,,,,,,,,,,,,,,,,,,,,,,,,,,,,,,,,,,,,,,
,,6169dcbed0d8972d0d124591,2024-02-22_05h27.06.552,kallum_motion_pilot,2023.2.2,Win32,59.88023952,6169dcbed0d8972d0d124591,65d6bb0e977760de756971f7,65d6bedddd292789db81fbcd,0.0668,0.0669,1,50,212,6,1,fourtwo,,,,,,,,,,,,,,,,,,,,,,,,,,,,,,,,,,,,,,,,,,,,,,,,,,,,,,,,,,,,,,,,,,,,,,,,,,,,,,,,,,,,,,,,,,,,,,,,,,,,,,,,,,,,,,,,,,,,,,,,,,,,,,,,,,,,,,,,,
,,6169dcbed0d8972d0d124591,2024-02-22_05h27.06.552,kallum_motion_pilot,2023.2.2,Win32,59.88023952,6169dcbed0d8972d0d124591,65d6bb0e977760de756971f7,65d6bedddd292789db81fbcd,0.0671,0.0671,1,51,213,101,1,seveneight,,,,,,,,,,,,,,,,,,,,,,,,,,,,,,,,,,,,,,,,,,,,,,,,,,,,,,,,,,,,,,,,,,,,,,,,,,,,,,,,,,,,,,,,,,,,,,,,,,,,,,,,,,,,,,,,,,,,,,,,,,,,,,,,,,,,,,,,,
,,6169dcbed0d8972d0d124591,2024-02-22_05h27.06.552,kallum_motion_pilot,2023.2.2,Win32,59.88023952,6169dcbed0d8972d0d124591,65d6bb0e977760de756971f7,65d6bedddd292789db81fbcd,0.0672,0.0674,1,52,214,92,1,sevenfive,,,,,,,,,,,,,,,,,,,,,,,,,,,,,,,,,,,,,,,,,,,,,,,,,,,,,,,,,,,,,,,,,,,,,,,,,,,,,,,,,,,,,,,,,,,,,,,,,,,,,,,,,,,,,,,,,,,,,,,,,,,,,,,,,,,,,,,,,
,,6169dcbed0d8972d0d124591,2024-02-22_05h27.06.552,kallum_motion_pilot,2023.2.2,Win32,59.88023952,6169dcbed0d8972d0d124591,65d6bb0e977760de756971f7,65d6bedddd292789db81fbcd,0.0674,0.0676,1,53,215,4,1,threeone,,,,,,,,,,,,,,,,,,,,,,,,,,,,,,,,,,,,,,,,,,,,,,,,,,,,,,,,,,,,,,,,,,,,,,,,,,,,,,,,,,,,,,,,,,,,,,,,,,,,,,,,,,,,,,,,,,,,,,,,,,,,,,,,,,,,,,,,,
,,6169dcbed0d8972d0d124591,2024-02-22_05h27.06.552,kallum_motion_pilot,2023.2.2,Win32,59.88023952,6169dcbed0d8972d0d124591,65d6bb0e977760de756971f7,65d6bedddd292789db81fbcd,0.0676,0.0677,1,54,216,149,1,seveneight,,,,,,,,,,,,,,,,,,,,,,,,,,,,,,,,,,,,,,,,,,,,,,,,,,,,,,,,,,,,,,,,,,,,,,,,,,,,,,,,,,,,,,,,,,,,,,,,,,,,,,,,,,,,,,,,,,,,,,,,,,,,,,,,,,,,,,,,,
,,6169dcbed0d8972d0d124591,2024-02-22_05h27.06.552,kallum_motion_pilot,2023.2.2,Win32,59.88023952,6169dcbed0d8972d0d124591,65d6bb0e977760de756971f7,65d6bedddd292789db81fbcd,0.0679,0.0679,1,55,217,37,1,threefour,,,,,,,,,,,,,,,,,,,,,,,,,,,,,,,,,,,,,,,,,,,,,,,,,,,,,,,,,,,,,,,,,,,,,,,,,,,,,,,,,,,,,,,,,,,,,,,,,,,,,,,,,,,,,,,,,,,,,,,,,,,,,,,,,,,,,,,,,
,,6169dcbed0d8972d0d124591,2024-02-22_05h27.06.552,kallum_motion_pilot,2023.2.2,Win32,59.88023952,6169dcbed0d8972d0d124591,65d6bb0e977760de756971f7,65d6bedddd292789db81fbcd,0.0681,0.0682,1,56,218,16,1,onetwo,,,,,,,,,,,,,,,,,,,,,,,,,,,,,,,,,,,,,,,,,,,,,,,,,,,,,,,,,,,,,,,,,,,,,,,,,,,,,,,,,,,,,,,,,,,,,,,,,,,,,,,,,,,,,,,,,,,,,,,,,,,,,,,,,,,,,,,,,
,,6169dcbed0d8972d0d124591,2024-02-22_05h27.06.552,kallum_motion_pilot,2023.2.2,Win32,59.88023952,6169dcbed0d8972d0d124591,65d6bb0e977760de756971f7,65d6bedddd292789db81fbcd,0.0683,0.0684,1,57,219,44,1,threeone,,,,,,,,,,,,,,,,,,,,,,,,,,,,,,,,,,,,,,,,,,,,,,,,,,,,,,,,,,,,,,,,,,,,,,,,,,,,,,,,,,,,,,,,,,,,,,,,,,,,,,,,,,,,,,,,,,,,,,,,,,,,,,,,,,,,,,,,,
,,6169dcbed0d8972d0d124591,2024-02-22_05h27.06.552,kallum_motion_pilot,2023.2.2,Win32,59.88023952,6169dcbed0d8972d0d124591,65d6bb0e977760de756971f7,65d6bedddd292789db81fbcd,0.0686,0.0686,1,58,220,122,1,sixfive,,,,,,,,,,,,,,,,,,,,,,,,,,,,,,,,,,,,,,,,,,,,,,,,,,,,,,,,,,,,,,,,,,,,,,,,,,,,,,,,,,,,,,,,,,,,,,,,,,,,,,,,,,,,,,,,,,,,,,,,,,,,,,,,,,,,,,,,,
,,6169dcbed0d8972d0d124591,2024-02-22_05h27.06.552,kallum_motion_pilot,2023.2.2,Win32,59.88023952,6169dcbed0d8972d0d124591,65d6bb0e977760de756971f7,65d6bedddd292789db81fbcd,0.0687,0.0688,1,59,221,103,1,eightseven,,,,,,,,,,,,,,,,,,,,,,,,,,,,,,,,,,,,,,,,,,,,,,,,,,,,,,,,,,,,,,,,,,,,,,,,,,,,,,,,,,,,,,,,,,,,,,,,,,,,,,,,,,,,,,,,,,,,,,,,,,,,,,,,,,,,,,,,,
,,6169dcbed0d8972d0d124591,2024-02-22_05h27.06.552,kallum_motion_pilot,2023.2.2,Win32,59.88023952,6169dcbed0d8972d0d124591,65d6bb0e977760de756971f7,65d6bedddd292789db81fbcd,0.0689,0.0691,1,60,222,73,1,onethree,,,,,,,,,,,,,,,,,,,,,,,,,,,,,,,,,,,,,,,,,,,,,,,,,,,,,,,,,,,,,,,,,,,,,,,,,,,,,,,,,,,,,,,,,,,,,,,,,,,,,,,,,,,,,,,,,,,,,,,,,,,,,,,,,,,,,,,,,
,,6169dcbed0d8972d0d124591,2024-02-22_05h27.06.552,kallum_motion_pilot,2023.2.2,Win32,59.88023952,6169dcbed0d8972d0d124591,65d6bb0e977760de756971f7,65d6bedddd292789db81fbcd,0.0691,0.0692,1,61,223,60,1,threeone,,,,,,,,,,,,,,,,,,,,,,,,,,,,,,,,,,,,,,,,,,,,,,,,,,,,,,,,,,,,,,,,,,,,,,,,,,,,,,,,,,,,,,,,,,,,,,,,,,,,,,,,,,,,,,,,,,,,,,,,,,,,,,,,,,,,,,,,,
,,6169dcbed0d8972d0d124591,2024-02-22_05h27.06.552,kallum_motion_pilot,2023.2.2,Win32,59.88023952,6169dcbed0d8972d0d124591,65d6bb0e977760de756971f7,65d6bedddd292789db81fbcd,0.0693,0.0695,1,62,224,93,1,seveneight,,,,,,,,,,,,,,,,,,,,,,,,,,,,,,,,,,,,,,,,,,,,,,,,,,,,,,,,,,,,,,,,,,,,,,,,,,,,,,,,,,,,,,,,,,,,,,,,,,,,,,,,,,,,,,,,,,,,,,,,,,,,,,,,,,,,,,,,,
,,6169dcbed0d8972d0d124591,2024-02-22_05h27.06.552,kallum_motion_pilot,2023.2.2,Win32,59.88023952,6169dcbed0d8972d0d124591,65d6bb0e977760de756971f7,65d6bedddd292789db81fbcd,0.0696,0.0697,1,63,225,140,1,sevenfive,,,,,,,,,,,,,,,,,,,,,,,,,,,,,,,,,,,,,,,,,,,,,,,,,,,,,,,,,,,,,,,,,,,,,,,,,,,,,,,,,,,,,,,,,,,,,,,,,,,,,,,,,,,,,,,,,,,,,,,,,,,,,,,,,,,,,,,,,
,,6169dcbed0d8972d0d124591,2024-02-22_05h27.06.552,kallum_motion_pilot,2023.2.2,Win32,59.88023952,6169dcbed0d8972d0d124591,65d6bb0e977760de756971f7,65d6bedddd292789db81fbcd,0.0698,0.07,1,64,226,153,1,fiveseven,,,,,,,,,,,,,,,,,,,,,,,,,,,,,,,,,,,,,,,,,,,,,,,,,,,,,,,,,,,,,,,,,,,,,,,,,,,,,,,,,,,,,,,,,,,,,,,,,,,,,,,,,,,,,,,,,,,,,,,,,,,,,,,,,,,,,,,,,
,,6169dcbed0d8972d0d124591,2024-02-22_05h27.06.552,kallum_motion_pilot,2023.2.2,Win32,59.88023952,6169dcbed0d8972d0d124591,65d6bb0e977760de756971f7,65d6bedddd292789db81fbcd,0.07,0.0702,1,65,227,14,1,fourtwo,,,,,,,,,,,,,,,,,,,,,,,,,,,,,,,,,,,,,,,,,,,,,,,,,,,,,,,,,,,,,,,,,,,,,,,,,,,,,,,,,,,,,,,,,,,,,,,,,,,,,,,,,,,,,,,,,,,,,,,,,,,,,,,,,,,,,,,,,
,,6169dcbed0d8972d0d124591,2024-02-22_05h27.06.552,kallum_motion_pilot,2023.2.2,Win32,59.88023952,6169dcbed0d8972d0d124591,65d6bb0e977760de756971f7,65d6bedddd292789db81fbcd,0.0702,0.0704,1,66,228,67,1,twofour,,,,,,,,,,,,,,,,,,,,,,,,,,,,,,,,,,,,,,,,,,,,,,,,,,,,,,,,,,,,,,,,,,,,,,,,,,,,,,,,,,,,,,,,,,,,,,,,,,,,,,,,,,,,,,,,,,,,,,,,,,,,,,,,,,,,,,,,,
,,6169dcbed0d8972d0d124591,2024-02-22_05h27.06.552,kallum_motion_pilot,2023.2.2,Win32,59.88023952,6169dcbed0d8972d0d124591,65d6bb0e977760de756971f7,65d6bedddd292789db81fbcd,0.0704,0.0705,1,67,229,30,1,fourtwo,,,,,,,,,,,,,,,,,,,,,,,,,,,,,,,,,,,,,,,,,,,,,,,,,,,,,,,,,,,,,,,,,,,,,,,,,,,,,,,,,,,,,,,,,,,,,,,,,,,,,,,,,,,,,,,,,,,,,,,,,,,,,,,,,,,,,,,,,
,,6169dcbed0d8972d0d124591,2024-02-22_05h27.06.552,kallum_motion_pilot,2023.2.2,Win32,59.88023952,6169dcbed0d8972d0d124591,65d6bb0e977760de756971f7,65d6bedddd292789db81fbcd,0.0707,0.0707,1,68,230,83,1,sixeight,,,,,,,,,,,,,,,,,,,,,,,,,,,,,,,,,,,,,,,,,,,,,,,,,,,,,,,,,,,,,,,,,,,,,,,,,,,,,,,,,,,,,,,,,,,,,,,,,,,,,,,,,,,,,,,,,,,,,,,,,,,,,,,,,,,,,,,,,
,,6169dcbed0d8972d0d124591,2024-02-22_05h27.06.552,kallum_motion_pilot,2023.2.2,Win32,59.88023952,6169dcbed0d8972d0d124591,65d6bb0e977760de756971f7,65d6bedddd292789db81fbcd,0.0708,0.0709,1,69,231,142,1,eightsix,,,,,,,,,,,,,,,,,,,,,,,,,,,,,,,,,,,,,,,,,,,,,,,,,,,,,,,,,,,,,,,,,,,,,,,,,,,,,,,,,,,,,,,,,,,,,,,,,,,,,,,,,,,,,,,,,,,,,,,,,,,,,,,,,,,,,,,,,
,,6169dcbed0d8972d0d124591,2024-02-22_05h27.06.552,kallum_motion_pilot,2023.2.2,Win32,59.88023952,6169dcbed0d8972d0d124591,65d6bb0e977760de756971f7,65d6bedddd292789db81fbcd,0.071,0.0711,1,70,232,127,1,eightseven,,,,,,,,,,,,,,,,,,,,,,,,,,,,,,,,,,,,,,,,,,,,,,,,,,,,,,,,,,,,,,,,,,,,,,,,,,,,,,,,,,,,,,,,,,,,,,,,,,,,,,,,,,,,,,,,,,,,,,,,,,,,,,,,,,,,,,,,,
,,6169dcbed0d8972d0d124591,2024-02-22_05h27.06.552,kallum_motion_pilot,2023.2.2,Win32,59.88023952,6169dcbed0d8972d0d124591,65d6bb0e977760de756971f7,65d6bedddd292789db81fbcd,0.0712,0.0713,1,71,233,36,1,threeone,,,,,,,,,,,,,,,,,,,,,,,,,,,,,,,,,,,,,,,,,,,,,,,,,,,,,,,,,,,,,,,,,,,,,,,,,,,,,,,,,,,,,,,,,,,,,,,,,,,,,,,,,,,,,,,,,,,,,,,,,,,,,,,,,,,,,,,,,
,,6169dcbed0d8972d0d124591,2024-02-22_05h27.06.552,kallum_motion_pilot,2023.2.2,Win32,59.88023952,6169dcbed0d8972d0d124591,65d6bb0e977760de756971f7,65d6bedddd292789db81fbcd,0.0714,0.0714,1,72,234,150,1,eightsix,,,,,,,,,,,,,,,,,,,,,,,,,,,,,,,,,,,,,,,,,,,,,,,,,,,,,,,,,,,,,,,,,,,,,,,,,,,,,,,,,,,,,,,,,,,,,,,,,,,,,,,,,,,,,,,,,,,,,,,,,,,,,,,,,,,,,,,,,
,,6169dcbed0d8972d0d124591,2024-02-22_05h27.06.552,kallum_motion_pilot,2023.2.2,Win32,59.88023952,6169dcbed0d8972d0d124591,65d6bb0e977760de756971f7,65d6bedddd292789db81fbcd,0.0716,0.0717,1,73,235,143,1,eightseven,,,,,,,,,,,,,,,,,,,,,,,,,,,,,,,,,,,,,,,,,,,,,,,,,,,,,,,,,,,,,,,,,,,,,,,,,,,,,,,,,,,,,,,,,,,,,,,,,,,,,,,,,,,,,,,,,,,,,,,,,,,,,,,,,,,,,,,,,
,,6169dcbed0d8972d0d124591,2024-02-22_05h27.06.552,kallum_motion_pilot,2023.2.2,Win32,59.88023952,6169dcbed0d8972d0d124591,65d6bb0e977760de756971f7,65d6bedddd292789db81fbcd,0.0718,0.072,1,74,236,21,1,threefour,,,,,,,,,,,,,,,,,,,,,,,,,,,,,,,,,,,,,,,,,,,,,,,,,,,,,,,,,,,,,,,,,,,,,,,,,,,,,,,,,,,,,,,,,,,,,,,,,,,,,,,,,,,,,,,,,,,,,,,,,,,,,,,,,,,,,,,,,
,,6169dcbed0d8972d0d124591,2024-02-22_05h27.06.552,kallum_motion_pilot,2023.2.2,Win32,59.88023952,6169dcbed0d8972d0d124591,65d6bb0e977760de756971f7,65d6bedddd292789db81fbcd,0.0721,0.0722,1,75,237,45,1,threefour,,,,,,,,,,,,,,,,,,,,,,,,,,,,,,,,,,,,,,,,,,,,,,,,,,,,,,,,,,,,,,,,,,,,,,,,,,,,,,,,,,,,,,,,,,,,,,,,,,,,,,,,,,,,,,,,,,,,,,,,,,,,,,,,,,,,,,,,,
,,6169dcbed0d8972d0d124591,2024-02-22_05h27.06.552,kallum_motion_pilot,2023.2.2,Win32,59.88023952,6169dcbed0d8972d0d124591,65d6bb0e977760de756971f7,65d6bedddd292789db81fbcd,0.0723,0.0725,1,76,238,54,1,fourtwo,,,,,,,,,,,,,,,,,,,,,,,,,,,,,,,,,,,,,,,,,,,,,,,,,,,,,,,,,,,,,,,,,,,,,,,,,,,,,,,,,,,,,,,,,,,,,,,,,,,,,,,,,,,,,,,,,,,,,,,,,,,,,,,,,,,,,,,,,
,,6169dcbed0d8972d0d124591,2024-02-22_05h27.06.552,kallum_motion_pilot,2023.2.2,Win32,59.88023952,6169dcbed0d8972d0d124591,65d6bb0e977760de756971f7,65d6bedddd292789db81fbcd,0.0727,0.0728,1,77,239,69,1,threefour,,,,,,,,,,,,,,,,,,,,,,,,,,,,,,,,,,,,,,,,,,,,,,,,,,,,,,,,,,,,,,,,,,,,,,,,,,,,,,,,,,,,,,,,,,,,,,,,,,,,,,,,,,,,,,,,,,,,,,,,,,,,,,,,,,,,,,,,,
,,6169dcbed0d8972d0d124591,2024-02-22_05h27.06.552,kallum_motion_pilot,2023.2.2,Win32,59.88023952,6169dcbed0d8972d0d124591,65d6bb0e977760de756971f7,65d6bedddd292789db81fbcd,0.0729,0.073,1,78,240,63,1,fourthree,,,,,,,,,,,,,,,,,,,,,,,,,,,,,,,,,,,,,,,,,,,,,,,,,,,,,,,,,,,,,,,,,,,,,,,,,,,,,,,,,,,,,,,,,,,,,,,,,,,,,,,,,,,,,,,,,,,,,,,,,,,,,,,,,,,,,,,,,
,,6169dcbed0d8972d0d124591,2024-02-22_05h27.06.552,kallum_motion_pilot,2023.2.2,Win32,59.88023952,6169dcbed0d8972d0d124591,65d6bb0e977760de756971f7,65d6bedddd292789db81fbcd,0.0732,0.0733,1,79,241,119,1,eightseven,,,,,,,,,,,,,,,,,,,,,,,,,,,,,,,,,,,,,,,,,,,,,,,,,,,,,,,,,,,,,,,,,,,,,,,,,,,,,,,,,,,,,,,,,,,,,,,,,,,,,,,,,,,,,,,,,,,,,,,,,,,,,,,,,,,,,,,,,
,,6169dcbed0d8972d0d124591,2024-02-22_05h27.06.552,kallum_motion_pilot,2023.2.2,Win32,59.88023952,6169dcbed0d8972d0d124591,65d6bb0e977760de756971f7,65d6bedddd292789db81fbcd,0.0734,0.0736,1,80,242,20,1,threeone,,,,,,,,,,,,,,,,,,,,,,,,,,,,,,,,,,,,,,,,,,,,,,,,,,,,,,,,,,,,,,,,,,,,,,,,,,,,,,,,,,,,,,,,,,,,,,,,,,,,,,,,,,,,,,,,,,,,,,,,,,,,,,,,,,,,,,,,,
,,6169dcbed0d8972d0d124591,2024-02-22_05h27.06.552,kallum_motion_pilot,2023.2.2,Win32,59.88023952,6169dcbed0d8972d0d124591,65d6bb0e977760de756971f7,65d6bedddd292789db81fbcd,0.0737,0.0738,1,81,243,10,1,twoone,,,,,,,,,,,,,,,,,,,,,,,,,,,,,,,,,,,,,,,,,,,,,,,,,,,,,,,,,,,,,,,,,,,,,,,,,,,,,,,,,,,,,,,,,,,,,,,,,,,,,,,,,,,,,,,,,,,,,,,,,,,,,,,,,,,,,,,,,
,,6169dcbed0d8972d0d124591,2024-02-22_05h27.06.552,kallum_motion_pilot,2023.2.2,Win32,59.88023952,6169dcbed0d8972d0d124591,65d6bb0e977760de756971f7,65d6bedddd292789db81fbcd,0.074,0.0741,1,82,244,33,1,onethree,,,,,,,,,,,,,,,,,,,,,,,,,,,,,,,,,,,,,,,,,,,,,,,,,,,,,,,,,,,,,,,,,,,,,,,,,,,,,,,,,,,,,,,,,,,,,,,,,,,,,,,,,,,,,,,,,,,,,,,,,,,,,,,,,,,,,,,,,
,,6169dcbed0d8972d0d124591,2024-02-22_05h27.06.552,kallum_motion_pilot,2023.2.2,Win32,59.88023952,6169dcbed0d8972d0d124591,65d6bb0e977760de756971f7,65d6bedddd292789db81fbcd,0.0742,0.0743,1,83,245,84,1,sevenfive,,,,,,,,,,,,,,,,,,,,,,,,,,,,,,,,,,,,,,,,,,,,,,,,,,,,,,,,,,,,,,,,,,,,,,,,,,,,,,,,,,,,,,,,,,,,,,,,,,,,,,,,,,,,,,,,,,,,,,,,,,,,,,,,,,,,,,,,,
,,6169dcbed0d8972d0d124591,2024-02-22_05h27.06.552,kallum_motion_pilot,2023.2.2,Win32,59.88023952,6169dcbed0d8972d0d124591,65d6bb0e977760de756971f7,65d6bedddd292789db81fbcd,0.0744,0.0746,1,84,246,108,1,sevenfive,,,,,,,,,,,,,,,,,,,,,,,,,,,,,,,,,,,,,,,,,,,,,,,,,,,,,,,,,,,,,,,,,,,,,,,,,,,,,,,,,,,,,,,,,,,,,,,,,,,,,,,,,,,,,,,,,,,,,,,,,,,,,,,,,,,,,,,,,
,,6169dcbed0d8972d0d124591,2024-02-22_05h27.06.552,kallum_motion_pilot,2023.2.2,Win32,59.88023952,6169dcbed0d8972d0d124591,65d6bb0e977760de756971f7,65d6bedddd292789db81fbcd,0.0746,0.0747,1,85,247,125,1,seveneight,,,,,,,,,,,,,,,,,,,,,,,,,,,,,,,,,,,,,,,,,,,,,,,,,,,,,,,,,,,,,,,,,,,,,,,,,,,,,,,,,,,,,,,,,,,,,,,,,,,,,,,,,,,,,,,,,,,,,,,,,,,,,,,,,,,,,,,,,
,,6169dcbed0d8972d0d124591,2024-02-22_05h27.06.552,kallum_motion_pilot,2023.2.2,Win32,59.88023952,6169dcbed0d8972d0d124591,65d6bb0e977760de756971f7,65d6bedddd292789db81fbcd,0.0748,0.075,1,86,248,86,1,eightsix,,,,,,,,,,,,,,,,,,,,,,,,,,,,,,,,,,,,,,,,,,,,,,,,,,,,,,,,,,,,,,,,,,,,,,,,,,,,,,,,,,,,,,,,,,,,,,,,,,,,,,,,,,,,,,,,,,,,,,,,,,,,,,,,,,,,,,,,,
,,6169dcbed0d8972d0d124591,2024-02-22_05h27.06.552,kallum_motion_pilot,2023.2.2,Win32,59.88023952,6169dcbed0d8972d0d124591,65d6bb0e977760de756971f7,65d6bedddd292789db81fbcd,0.075,0.0752,1,87,249,85,1,seveneight,,,,,,,,,,,,,,,,,,,,,,,,,,,,,,,,,,,,,,,,,,,,,,,,,,,,,,,,,,,,,,,,,,,,,,,,,,,,,,,,,,,,,,,,,,,,,,,,,,,,,,,,,,,,,,,,,,,,,,,,,,,,,,,,,,,,,,,,,
,,6169dcbed0d8972d0d124591,2024-02-22_05h27.06.552,kallum_motion_pilot,2023.2.2,Win32,59.88023952,6169dcbed0d8972d0d124591,65d6bb0e977760de756971f7,65d6bedddd292789db81fbcd,0.0754,0.0754,1,88,250,136,1,fivesix,,,,,,,,,,,,,,,,,,,,,,,,,,,,,,,,,,,,,,,,,,,,,,,,,,,,,,,,,,,,,,,,,,,,,,,,,,,,,,,,,,,,,,,,,,,,,,,,,,,,,,,,,,,,,,,,,,,,,,,,,,,,,,,,,,,,,,,,,
,,6169dcbed0d8972d0d124591,2024-02-22_05h27.06.552,kallum_motion_pilot,2023.2.2,Win32,59.88023952,6169dcbed0d8972d0d124591,65d6bb0e977760de756971f7,65d6bedddd292789db81fbcd,0.0755,0.0757,1,89,251,111,1,eightseven,,,,,,,,,,,,,,,,,,,,,,,,,,,,,,,,,,,,,,,,,,,,,,,,,,,,,,,,,,,,,,,,,,,,,,,,,,,,,,,,,,,,,,,,,,,,,,,,,,,,,,,,,,,,,,,,,,,,,,,,,,,,,,,,,,,,,,,,,
,,6169dcbed0d8972d0d124591,2024-02-22_05h27.06.552,kallum_motion_pilot,2023.2.2,Win32,59.88023952,6169dcbed0d8972d0d124591,65d6bb0e977760de756971f7,65d6bedddd292789db81fbcd,0.0758,0.0759,1,90,252,42,1,twoone,,,,,,,,,,,,,,,,,,,,,,,,,,,,,,,,,,,,,,,,,,,,,,,,,,,,,,,,,,,,,,,,,,,,,,,,,,,,,,,,,,,,,,,,,,,,,,,,,,,,,,,,,,,,,,,,,,,,,,,,,,,,,,,,,,,,,,,,,
,,6169dcbed0d8972d0d124591,2024-02-22_05h27.06.552,kallum_motion_pilot,2023.2.2,Win32,59.88023952,6169dcbed0d8972d0d124591,65d6bb0e977760de756971f7,65d6bedddd292789db81fbcd,0.076,0.0761,1,91,253,27,1,twofour,,,,,,,,,,,,,,,,,,,,,,,,,,,,,,,,,,,,,,,,,,,,,,,,,,,,,,,,,,,,,,,,,,,,,,,,,,,,,,,,,,,,,,,,,,,,,,,,,,,,,,,,,,,,,,,,,,,,,,,,,,,,,,,,,,,,,,,,,
,,6169dcbed0d8972d0d124591,2024-02-22_05h27.06.552,kallum_motion_pilot,2023.2.2,Win32,59.88023952,6169dcbed0d8972d0d124591,65d6bb0e977760de756971f7,65d6bedddd292789db81fbcd,0.0763,0.0764,1,92,254,25,1,onethree,,,,,,,,,,,,,,,,,,,,,,,,,,,,,,,,,,,,,,,,,,,,,,,,,,,,,,,,,,,,,,,,,,,,,,,,,,,,,,,,,,,,,,,,,,,,,,,,,,,,,,,,,,,,,,,,,,,,,,,,,,,,,,,,,,,,,,,,,
,,6169dcbed0d8972d0d124591,2024-02-22_05h27.06.552,kallum_motion_pilot,2023.2.2,Win32,59.88023952,6169dcbed0d8972d0d124591,65d6bb0e977760de756971f7,65d6bedddd292789db81fbcd,0.0766,0.0768,1,93,255,112,1,fivesix,,,,,,,,,,,,,,,,,,,,,,,,,,,,,,,,,,,,,,,,,,,,,,,,,,,,,,,,,,,,,,,,,,,,,,,,,,,,,,,,,,,,,,,,,,,,,,,,,,,,,,,,,,,,,,,,,,,,,,,,,,,,,,,,,,,,,,,,,
,,6169dcbed0d8972d0d124591,2024-02-22_05h27.06.552,kallum_motion_pilot,2023.2.2,Win32,59.88023952,6169dcbed0d8972d0d124591,65d6bb0e977760de756971f7,65d6bedddd292789db81fbcd,0.0769,0.077,1,94,256,145,1,fiveseven,,,,,,,,,,,,,,,,,,,,,,,,,,,,,,,,,,,,,,,,,,,,,,,,,,,,,,,,,,,,,,,,,,,,,,,,,,,,,,,,,,,,,,,,,,,,,,,,,,,,,,,,,,,,,,,,,,,,,,,,,,,,,,,,,,,,,,,,,
,,6169dcbed0d8972d0d124591,2024-02-22_05h27.06.552,kallum_motion_pilot,2023.2.2,Win32,59.88023952,6169dcbed0d8972d0d124591,65d6bb0e977760de756971f7,65d6bedddd292789db81fbcd,0.0771,0.0772,1,95,257,17,1,onethree,,,,,,,,,,,,,,,,,,,,,,,,,,,,,,,,,,,,,,,,,,,,,,,,,,,,,,,,,,,,,,,,,,,,,,,,,,,,,,,,,,,,,,,,,,,,,,,,,,,,,,,,,,,,,,,,,,,,,,,,,,,,,,,,,,,,,,,,,
,,6169dcbed0d8972d0d124591,2024-02-22_05h27.06.552,kallum_motion_pilot,2023.2.2,Win32,59.88023952,6169dcbed0d8972d0d124591,65d6bb0e977760de756971f7,65d6bedddd292789db81fbcd,0.0773,0.0775,1,96,258,134,1,eightsix,,,,,,,,,,,,,,,,,,,,,,,,,,,,,,,,,,,,,,,,,,,,,,,,,,,,,,,,,,,,,,,,,,,,,,,,,,,,,,,,,,,,,,,,,,,,,,,,,,,,,,,,,,,,,,,,,,,,,,,,,,,,,,,,,,,,,,,,,
,,6169dcbed0d8972d0d124591,2024-02-22_05h27.06.552,kallum_motion_pilot,2023.2.2,Win32,59.88023952,6169dcbed0d8972d0d124591,65d6bb0e977760de756971f7,65d6bedddd292789db81fbcd,0.0776,0.0777,1,97,259,15,1,fourthree,,,,,,,,,,,,,,,,,,,,,,,,,,,,,,,,,,,,,,,,,,,,,,,,,,,,,,,,,,,,,,,,,,,,,,,,,,,,,,,,,,,,,,,,,,,,,,,,,,,,,,,,,,,,,,,,,,,,,,,,,,,,,,,,,,,,,,,,,
,,6169dcbed0d8972d0d124591,2024-02-22_05h27.06.552,kallum_motion_pilot,2023.2.2,Win32,59.88023952,6169dcbed0d8972d0d124591,65d6bb0e977760de756971f7,65d6bedddd292789db81fbcd,0.0778,0.0779,1,98,260,94,1,eightsix,,,,,,,,,,,,,,,,,,,,,,,,,,,,,,,,,,,,,,,,,,,,,,,,,,,,,,,,,,,,,,,,,,,,,,,,,,,,,,,,,,,,,,,,,,,,,,,,,,,,,,,,,,,,,,,,,,,,,,,,,,,,,,,,,,,,,,,,,
,,6169dcbed0d8972d0d124591,2024-02-22_05h27.06.552,kallum_motion_pilot,2023.2.2,Win32,59.88023952,6169dcbed0d8972d0d124591,65d6bb0e977760de756971f7,65d6bedddd292789db81fbcd,0.0781,0.0782,1,99,261,65,1,onethree,,,,,,,,,,,,,,,,,,,,,,,,,,,,,,,,,,,,,,,,,,,,,,,,,,,,,,,,,,,,,,,,,,,,,,,,,,,,,,,,,,,,,,,,,,,,,,,,,,,,,,,,,,,,,,,,,,,,,,,,,,,,,,,,,,,,,,,,,
,,6169dcbed0d8972d0d124591,2024-02-22_05h27.06.552,kallum_motion_pilot,2023.2.2,Win32,59.88023952,6169dcbed0d8972d0d124591,65d6bb0e977760de756971f7,65d6bedddd292789db81fbcd,0.0783,0.0784,1,100,262,2,1,twoone,,,,,,,,,,,,,,,,,,,,,,,,,,,,,,,,,,,,,,,,,,,,,,,,,,,,,,,,,,,,,,,,,,,,,,,,,,,,,,,,,,,,,,,,,,,,,,,,,,,,,,,,,,,,,,,,,,,,,,,,,,,,,,,,,,,,,,,,,
,,6169dcbed0d8972d0d124591,2024-02-22_05h27.06.552,kallum_motion_pilot,2023.2.2,Win32,59.88023952,6169dcbed0d8972d0d124591,65d6bb0e977760de756971f7,65d6bedddd292789db81fbcd,0.0786,0.0787,1,101,263,159,1,eightseven,,,,,,,,,,,,,,,,,,,,,,,,,,,,,,,,,,,,,,,,,,,,,,,,,,,,,,,,,,,,,,,,,,,,,,,,,,,,,,,,,,,,,,,,,,,,,,,,,,,,,,,,,,,,,,,,,,,,,,,,,,,,,,,,,,,,,,,,,
,,6169dcbed0d8972d0d124591,2024-02-22_05h27.06.552,kallum_motion_pilot,2023.2.2,Win32,59.88023952,6169dcbed0d8972d0d124591,65d6bb0e977760de756971f7,65d6bedddd292789db81fbcd,0.0791,0.0801,1,102,264,90,1,sixfive,,,,,,,,,,,,,,,,,,,,,,,,,,,,,,,,,,,,,,,,,,,,,,,,,,,,,,,,,,,,,,,,,,,,,,,,,,,,,,,,,,,,,,,,,,,,,,,,,,,,,,,,,,,,,,,,,,,,,,,,,,,,,,,,,,,,,,,,,
,,6169dcbed0d8972d0d124591,2024-02-22_05h27.06.552,kallum_motion_pilot,2023.2.2,Win32,59.88023952,6169dcbed0d8972d0d124591,65d6bb0e977760de756971f7,65d6bedddd292789db81fbcd,0.0805,0.0806,1,103,265,70,1,fourtwo,,,,,,,,,,,,,,,,,,,,,,,,,,,,,,,,,,,,,,,,,,,,,,,,,,,,,,,,,,,,,,,,,,,,,,,,,,,,,,,,,,,,,,,,,,,,,,,,,,,,,,,,,,,,,,,,,,,,,,,,,,,,,,,,,,,,,,,,,
,,6169dcbed0d8972d0d124591,2024-02-22_05h27.06.552,kallum_motion_pilot,2023.2.2,Win32,59.88023952,6169dcbed0d8972d0d124591,65d6bb0e977760de756971f7,65d6bedddd292789db81fbcd,0.0807,0.0809,1,104,266,31,1,fourthree,,,,,,,,,,,,,,,,,,,,,,,,,,,,,,,,,,,,,,,,,,,,,,,,,,,,,,,,,,,,,,,,,,,,,,,,,,,,,,,,,,,,,,,,,,,,,,,,,,,,,,,,,,,,,,,,,,,,,,,,,,,,,,,,,,,,,,,,,
,,6169dcbed0d8972d0d124591,2024-02-22_05h27.06.552,kallum_motion_pilot,2023.2.2,Win32,59.88023952,6169dcbed0d8972d0d124591,65d6bb0e977760de756971f7,65d6bedddd292789db81fbcd,0.0812,0.0813,1,105,267,135,1,eightseven,,,,,,,,,,,,,,,,,,,,,,,,,,,,,,,,,,,,,,,,,,,,,,,,,,,,,,,,,,,,,,,,,,,,,,,,,,,,,,,,,,,,,,,,,,,,,,,,,,,,,,,,,,,,,,,,,,,,,,,,,,,,,,,,,,,,,,,,,
,,6169dcbed0d8972d0d124591,2024-02-22_05h27.06.552,kallum_motion_pilot,2023.2.2,Win32,59.88023952,6169dcbed0d8972d0d124591,65d6bb0e977760de756971f7,65d6bedddd292789db81fbcd,0.0814,0.0816,1,106,268,81,1,fiveseven,,,,,,,,,,,,,,,,,,,,,,,,,,,,,,,,,,,,,,,,,,,,,,,,,,,,,,,,,,,,,,,,,,,,,,,,,,,,,,,,,,,,,,,,,,,,,,,,,,,,,,,,,,,,,,,,,,,,,,,,,,,,,,,,,,,,,,,,,
,,6169dcbed0d8972d0d124591,2024-02-22_05h27.06.552,kallum_motion_pilot,2023.2.2,Win32,59.88023952,6169dcbed0d8972d0d124591,65d6bb0e977760de756971f7,65d6bedddd292789db81fbcd,0.0817,0.0818,1,107,269,126,1,eightsix,,,,,,,,,,,,,,,,,,,,,,,,,,,,,,,,,,,,,,,,,,,,,,,,,,,,,,,,,,,,,,,,,,,,,,,,,,,,,,,,,,,,,,,,,,,,,,,,,,,,,,,,,,,,,,,,,,,,,,,,,,,,,,,,,,,,,,,,,
,,6169dcbed0d8972d0d124591,2024-02-22_05h27.06.552,kallum_motion_pilot,2023.2.2,Win32,59.88023952,6169dcbed0d8972d0d124591,65d6bb0e977760de756971f7,65d6bedddd292789db81fbcd,0.0819,0.082,1,108,270,46,1,fourtwo,,,,,,,,,,,,,,,,,,,,,,,,,,,,,,,,,,,,,,,,,,,,,,,,,,,,,,,,,,,,,,,,,,,,,,,,,,,,,,,,,,,,,,,,,,,,,,,,,,,,,,,,,,,,,,,,,,,,,,,,,,,,,,,,,,,,,,,,,
,,6169dcbed0d8972d0d124591,2024-02-22_05h27.06.552,kallum_motion_pilot,2023.2.2,Win32,59.88023952,6169dcbed0d8972d0d124591,65d6bb0e977760de756971f7,65d6bedddd292789db81fbcd,0.0821,0.0823,1,109,271,118,1,eightsix,,,,,,,,,,,,,,,,,,,,,,,,,,,,,,,,,,,,,,,,,,,,,,,,,,,,,,,,,,,,,,,,,,,,,,,,,,,,,,,,,,,,,,,,,,,,,,,,,,,,,,,,,,,,,,,,,,,,,,,,,,,,,,,,,,,,,,,,,
,,6169dcbed0d8972d0d124591,2024-02-22_05h27.06.552,kallum_motion_pilot,2023.2.2,Win32,59.88023952,6169dcbed0d8972d0d124591,65d6bb0e977760de756971f7,65d6bedddd292789db81fbcd,0.0824,0.0825,1,110,272,38,1,fourtwo,,,,,,,,,,,,,,,,,,,,,,,,,,,,,,,,,,,,,,,,,,,,,,,,,,,,,,,,,,,,,,,,,,,,,,,,,,,,,,,,,,,,,,,,,,,,,,,,,,,,,,,,,,,,,,,,,,,,,,,,,,,,,,,,,,,,,,,,,
,,6169dcbed0d8972d0d124591,2024-02-22_05h27.06.552,kallum_motion_pilot,2023.2.2,Win32,59.88023952,6169dcbed0d8972d0d124591,65d6bb0e977760de756971f7,65d6bedddd292789db81fbcd,0.0827,0.0827,1,111,273,160,1,fivesix,,,,,,,,,,,,,,,,,,,,,,,,,,,,,,,,,,,,,,,,,,,,,,,,,,,,,,,,,,,,,,,,,,,,,,,,,,,,,,,,,,,,,,,,,,,,,,,,,,,,,,,,,,,,,,,,,,,,,,,,,,,,,,,,,,,,,,,,,
,,6169dcbed0d8972d0d124591,2024-02-22_05h27.06.552,kallum_motion_pilot,2023.2.2,Win32,59.88023952,6169dcbed0d8972d0d124591,65d6bb0e977760de756971f7,65d6bedddd292789db81fbcd,0.0829,0.083,1,112,274,58,1,twoone,,,,,,,,,,,,,,,,,,,,,,,,,,,,,,,,,,,,,,,,,,,,,,,,,,,,,,,,,,,,,,,,,,,,,,,,,,,,,,,,,,,,,,,,,,,,,,,,,,,,,,,,,,,,,,,,,,,,,,,,,,,,,,,,,,,,,,,,,
,,6169dcbed0d8972d0d124591,2024-02-22_05h27.06.552,kallum_motion_pilot,2023.2.2,Win32,59.88023952,6169dcbed0d8972d0d124591,65d6bb0e977760de756971f7,65d6bedddd292789db81fbcd,0.0831,0.0832,1,113,275,116,1,sevenfive,,,,,,,,,,,,,,,,,,,,,,,,,,,,,,,,,,,,,,,,,,,,,,,,,,,,,,,,,,,,,,,,,,,,,,,,,,,,,,,,,,,,,,,,,,,,,,,,,,,,,,,,,,,,,,,,,,,,,,,,,,,,,,,,,,,,,,,,,
,,6169dcbed0d8972d0d124591,2024-02-22_05h27.06.552,kallum_motion_pilot,2023.2.2,Win32,59.88023952,6169dcbed0d8972d0d124591,65d6bb0e977760de756971f7,65d6bedddd292789db81fbcd,0.0833,0.0834,1,114,276,98,1,sixfive,,,,,,,,,,,,,,,,,,,,,,,,,,,,,,,,,,,,,,,,,,,,,,,,,,,,,,,,,,,,,,,,,,,,,,,,,,,,,,,,,,,,,,,,,,,,,,,,,,,,,,,,,,,,,,,,,,,,,,,,,,,,,,,,,,,,,,,,,
,,6169dcbed0d8972d0d124591,2024-02-22_05h27.06.552,kallum_motion_pilot,2023.2.2,Win32,59.88023952,6169dcbed0d8972d0d124591,65d6bb0e977760de756971f7,65d6bedddd292789db81fbcd,0.0835,0.0837,1,115,277,76,1,threeone,,,,,,,,,,,,,,,,,,,,,,,,,,,,,,,,,,,,,,,,,,,,,,,,,,,,,,,,,,,,,,,,,,,,,,,,,,,,,,,,,,,,,,,,,,,,,,,,,,,,,,,,,,,,,,,,,,,,,,,,,,,,,,,,,,,,,,,,,
