startup.started,startup.stopped,Prolific ID*,date,expName,psychopyVersion,OS,frameRate,participant,study_id,session,stimpositions.started,stimpositions.stopped,hardcoded_stimulus_positions.thisRepN,hardcoded_stimulus_positions.thisTrialN,hardcoded_stimulus_positions.thisN,hardcoded_stimulus_positions.thisIndex,hardcoded_stimulus_positions.ran,StimulusPos,stimorientation.started,stimorientation.stopped,prac_stimorientation_import_loop.thisRepN,prac_stimorientation_import_loop.thisTrialN,prac_stimorientation_import_loop.thisN,prac_stimorientation_import_loop.thisIndex,prac_stimorientation_import_loop.ran,Stimorientation,welcome_instr.started,welcome_instr.stopped,key_resp.keys,key_resp.rt,key_resp.duration,response_steppedout_1.started,response_steppedout_1.stopped,key_resp_20.keys,key_resp_20.rt,key_resp_20.duration,response_steppedout_2.started,response_steppedout_2.stopped,key_resp_19.keys,key_resp_19.rt,key_resp_19.duration,stim_response_instr.started,stim_response_instr.stopped,key_resp_15.keys,key_resp_15.rt,key_resp_15.duration,direction_instr_2.started,direction_instr_2.stopped,key_resp_9.keys,key_resp_9.rt,key_resp_9.duration,instr_prac.started,instr_prac.stopped,key_resp_10.keys,key_resp_10.rt,key_resp_10.duration,Stim1_display_prac.started,Stim1_display_prac.stopped,Ecc,Circle1_ori,Circle2_ori,response_prac.started,similarity,response_time,response_prac.stopped,mouse_5.x,mouse_5.y,mouse_5.leftButton,mouse_5.midButton,mouse_5.rightButton,mouse_5.clicked_name,responseprac_feedback.started,responseprac_feedback.stopped,summary2_prac.started,summary2_prac.stopped,mouse_6.x,mouse_6.y,mouse_6.leftButton,mouse_6.midButton,mouse_6.rightButton,mouse_6.clicked_name,duringprac.thisRepN,duringprac.thisTrialN,duringprac.thisN,duringprac.thisIndex,duringprac.ran,begin.started,begin.stopped,key_resp_22.keys,key_resp_22.rt,key_resp_22.duration,Stim1_display.started,Stim1_display.stopped,circle1_ori,circle2_ori,circle1_SF,circle2_SF,response.started,response.stopped,mouse.x,mouse.y,mouse.leftButton,mouse.midButton,mouse.rightButton,mouse.clicked_name,trialnumber,double_pass.thisRepN,double_pass.thisTrialN,double_pass.thisN,double_pass.thisIndex,double_pass.ran,double_pass.order,main_trial.thisRepN,main_trial.thisTrialN,main_trial.thisN,main_trial.thisIndex,main_trial.ran,main_trial.order,Trial_Counter,Catch,Frequencies,response_2.started,response_2.stopped,mouse_2.x,mouse_2.y,mouse_2.leftButton,mouse_2.midButton,mouse_2.rightButton,mouse_2.clicked_name,special_trial.started,special_trial.stopped,catch_1.started,catch_1.stopped,mouse_3.x,mouse_3.y,mouse_3.leftButton,mouse_3.midButton,mouse_3.rightButton,catchresponse,catchnumber,response_time_catch,response_sum.started,response_sum.stopped,mouse_11.x,mouse_11.y,mouse_11.leftButton,mouse_11.midButton,mouse_11.rightButton,flip_presentation_sequence_for_double_pass.started,flip_presentation_sequence_for_double_pass.stopped,goodbye.started,goodbye.stopped,key_resp_3.keys,key_resp_3.rt,key_resp_3.duration
0.0011,0.0015,6169e8a8311d269013eb73c7,2024-02-18_20h12.05.395,kallum_motion_pilot,2023.2.2,Win32,59.88023952,6169e8a8311d269013eb73c7,65d2b6c8f2eece985d8e374c,65d2b8dc0b64bbe7b18e2672,,,,,,,,,,,,,,,,,,,,,,,,,,,,,,,,,,,,,,,,,,,,,,,,,,,,,,,,,,,,,,,,,,,,,,,,,,,,,,,,,,,,,,,,,,,,,,,,,,,,,,,,,,,,,,,,,,,,,,,,,,,,,,,,,,,,,,,,,,,,,,,,,
,,6169e8a8311d269013eb73c7,2024-02-18_20h12.05.395,kallum_motion_pilot,2023.2.2,Win32,59.88023952,6169e8a8311d269013eb73c7,65d2b6c8f2eece985d8e374c,65d2b8dc0b64bbe7b18e2672,0.1196,0.1205,0,0,0,140,1,sevenfive,,,,,,,,,,,,,,,,,,,,,,,,,,,,,,,,,,,,,,,,,,,,,,,,,,,,,,,,,,,,,,,,,,,,,,,,,,,,,,,,,,,,,,,,,,,,,,,,,,,,,,,,,,,,,,,,,,,,,,,,,,,,,,,,,,,,,,,,,
,,6169e8a8311d269013eb73c7,2024-02-18_20h12.05.395,kallum_motion_pilot,2023.2.2,Win32,59.88023952,6169e8a8311d269013eb73c7,65d2b6c8f2eece985d8e374c,65d2b8dc0b64bbe7b18e2672,0.1216,0.1218,0,1,1,96,1,fivesix,,,,,,,,,,,,,,,,,,,,,,,,,,,,,,,,,,,,,,,,,,,,,,,,,,,,,,,,,,,,,,,,,,,,,,,,,,,,,,,,,,,,,,,,,,,,,,,,,,,,,,,,,,,,,,,,,,,,,,,,,,,,,,,,,,,,,,,,,
,,6169e8a8311d269013eb73c7,2024-02-18_20h12.05.395,kallum_motion_pilot,2023.2.2,Win32,59.88023952,6169e8a8311d269013eb73c7,65d2b6c8f2eece985d8e374c,65d2b8dc0b64bbe7b18e2672,0.1226,0.1229,0,2,2,59,1,twofour,,,,,,,,,,,,,,,,,,,,,,,,,,,,,,,,,,,,,,,,,,,,,,,,,,,,,,,,,,,,,,,,,,,,,,,,,,,,,,,,,,,,,,,,,,,,,,,,,,,,,,,,,,,,,,,,,,,,,,,,,,,,,,,,,,,,,,,,,
,,6169e8a8311d269013eb73c7,2024-02-18_20h12.05.395,kallum_motion_pilot,2023.2.2,Win32,59.88023952,6169e8a8311d269013eb73c7,65d2b6c8f2eece985d8e374c,65d2b8dc0b64bbe7b18e2672,0.1237,0.1239,0,3,3,124,1,sevenfive,,,,,,,,,,,,,,,,,,,,,,,,,,,,,,,,,,,,,,,,,,,,,,,,,,,,,,,,,,,,,,,,,,,,,,,,,,,,,,,,,,,,,,,,,,,,,,,,,,,,,,,,,,,,,,,,,,,,,,,,,,,,,,,,,,,,,,,,,
,,6169e8a8311d269013eb73c7,2024-02-18_20h12.05.395,kallum_motion_pilot,2023.2.2,Win32,59.88023952,6169e8a8311d269013eb73c7,65d2b6c8f2eece985d8e374c,65d2b8dc0b64bbe7b18e2672,0.1248,0.125,0,4,4,160,1,fivesix,,,,,,,,,,,,,,,,,,,,,,,,,,,,,,,,,,,,,,,,,,,,,,,,,,,,,,,,,,,,,,,,,,,,,,,,,,,,,,,,,,,,,,,,,,,,,,,,,,,,,,,,,,,,,,,,,,,,,,,,,,,,,,,,,,,,,,,,,
,,6169e8a8311d269013eb73c7,2024-02-18_20h12.05.395,kallum_motion_pilot,2023.2.2,Win32,59.88023952,6169e8a8311d269013eb73c7,65d2b6c8f2eece985d8e374c,65d2b8dc0b64bbe7b18e2672,0.1256,0.1257,0,5,5,67,1,twofour,,,,,,,,,,,,,,,,,,,,,,,,,,,,,,,,,,,,,,,,,,,,,,,,,,,,,,,,,,,,,,,,,,,,,,,,,,,,,,,,,,,,,,,,,,,,,,,,,,,,,,,,,,,,,,,,,,,,,,,,,,,,,,,,,,,,,,,,,
,,6169e8a8311d269013eb73c7,2024-02-18_20h12.05.395,kallum_motion_pilot,2023.2.2,Win32,59.88023952,6169e8a8311d269013eb73c7,65d2b6c8f2eece985d8e374c,65d2b8dc0b64bbe7b18e2672,0.1264,0.1265,0,6,6,122,1,sixfive,,,,,,,,,,,,,,,,,,,,,,,,,,,,,,,,,,,,,,,,,,,,,,,,,,,,,,,,,,,,,,,,,,,,,,,,,,,,,,,,,,,,,,,,,,,,,,,,,,,,,,,,,,,,,,,,,,,,,,,,,,,,,,,,,,,,,,,,,
,,6169e8a8311d269013eb73c7,2024-02-18_20h12.05.395,kallum_motion_pilot,2023.2.2,Win32,59.88023952,6169e8a8311d269013eb73c7,65d2b6c8f2eece985d8e374c,65d2b8dc0b64bbe7b18e2672,0.127,0.1272,0,7,7,138,1,sixfive,,,,,,,,,,,,,,,,,,,,,,,,,,,,,,,,,,,,,,,,,,,,,,,,,,,,,,,,,,,,,,,,,,,,,,,,,,,,,,,,,,,,,,,,,,,,,,,,,,,,,,,,,,,,,,,,,,,,,,,,,,,,,,,,,,,,,,,,,
,,6169e8a8311d269013eb73c7,2024-02-18_20h12.05.395,kallum_motion_pilot,2023.2.2,Win32,59.88023952,6169e8a8311d269013eb73c7,65d2b6c8f2eece985d8e374c,65d2b8dc0b64bbe7b18e2672,0.1282,0.1284,0,8,8,9,1,onethree,,,,,,,,,,,,,,,,,,,,,,,,,,,,,,,,,,,,,,,,,,,,,,,,,,,,,,,,,,,,,,,,,,,,,,,,,,,,,,,,,,,,,,,,,,,,,,,,,,,,,,,,,,,,,,,,,,,,,,,,,,,,,,,,,,,,,,,,,
,,6169e8a8311d269013eb73c7,2024-02-18_20h12.05.395,kallum_motion_pilot,2023.2.2,Win32,59.88023952,6169e8a8311d269013eb73c7,65d2b6c8f2eece985d8e374c,65d2b8dc0b64bbe7b18e2672,0.129,0.1292,0,9,9,20,1,threeone,,,,,,,,,,,,,,,,,,,,,,,,,,,,,,,,,,,,,,,,,,,,,,,,,,,,,,,,,,,,,,,,,,,,,,,,,,,,,,,,,,,,,,,,,,,,,,,,,,,,,,,,,,,,,,,,,,,,,,,,,,,,,,,,,,,,,,,,,
,,6169e8a8311d269013eb73c7,2024-02-18_20h12.05.395,kallum_motion_pilot,2023.2.2,Win32,59.88023952,6169e8a8311d269013eb73c7,65d2b6c8f2eece985d8e374c,65d2b8dc0b64bbe7b18e2672,0.1298,0.13,0,10,10,97,1,fiveseven,,,,,,,,,,,,,,,,,,,,,,,,,,,,,,,,,,,,,,,,,,,,,,,,,,,,,,,,,,,,,,,,,,,,,,,,,,,,,,,,,,,,,,,,,,,,,,,,,,,,,,,,,,,,,,,,,,,,,,,,,,,,,,,,,,,,,,,,,
,,6169e8a8311d269013eb73c7,2024-02-18_20h12.05.395,kallum_motion_pilot,2023.2.2,Win32,59.88023952,6169e8a8311d269013eb73c7,65d2b6c8f2eece985d8e374c,65d2b8dc0b64bbe7b18e2672,0.1305,0.1306,0,11,11,17,1,onethree,,,,,,,,,,,,,,,,,,,,,,,,,,,,,,,,,,,,,,,,,,,,,,,,,,,,,,,,,,,,,,,,,,,,,,,,,,,,,,,,,,,,,,,,,,,,,,,,,,,,,,,,,,,,,,,,,,,,,,,,,,,,,,,,,,,,,,,,,
,,6169e8a8311d269013eb73c7,2024-02-18_20h12.05.395,kallum_motion_pilot,2023.2.2,Win32,59.88023952,6169e8a8311d269013eb73c7,65d2b6c8f2eece985d8e374c,65d2b8dc0b64bbe7b18e2672,0.1312,0.1315,0,12,12,116,1,sevenfive,,,,,,,,,,,,,,,,,,,,,,,,,,,,,,,,,,,,,,,,,,,,,,,,,,,,,,,,,,,,,,,,,,,,,,,,,,,,,,,,,,,,,,,,,,,,,,,,,,,,,,,,,,,,,,,,,,,,,,,,,,,,,,,,,,,,,,,,,
,,6169e8a8311d269013eb73c7,2024-02-18_20h12.05.395,kallum_motion_pilot,2023.2.2,Win32,59.88023952,6169e8a8311d269013eb73c7,65d2b6c8f2eece985d8e374c,65d2b8dc0b64bbe7b18e2672,0.1319,0.1322,0,13,13,135,1,eightseven,,,,,,,,,,,,,,,,,,,,,,,,,,,,,,,,,,,,,,,,,,,,,,,,,,,,,,,,,,,,,,,,,,,,,,,,,,,,,,,,,,,,,,,,,,,,,,,,,,,,,,,,,,,,,,,,,,,,,,,,,,,,,,,,,,,,,,,,,
,,6169e8a8311d269013eb73c7,2024-02-18_20h12.05.395,kallum_motion_pilot,2023.2.2,Win32,59.88023952,6169e8a8311d269013eb73c7,65d2b6c8f2eece985d8e374c,65d2b8dc0b64bbe7b18e2672,0.1329,0.1331,0,14,14,110,1,eightsix,,,,,,,,,,,,,,,,,,,,,,,,,,,,,,,,,,,,,,,,,,,,,,,,,,,,,,,,,,,,,,,,,,,,,,,,,,,,,,,,,,,,,,,,,,,,,,,,,,,,,,,,,,,,,,,,,,,,,,,,,,,,,,,,,,,,,,,,,
,,6169e8a8311d269013eb73c7,2024-02-18_20h12.05.395,kallum_motion_pilot,2023.2.2,Win32,59.88023952,6169e8a8311d269013eb73c7,65d2b6c8f2eece985d8e374c,65d2b8dc0b64bbe7b18e2672,0.1335,0.1337,0,15,15,101,1,seveneight,,,,,,,,,,,,,,,,,,,,,,,,,,,,,,,,,,,,,,,,,,,,,,,,,,,,,,,,,,,,,,,,,,,,,,,,,,,,,,,,,,,,,,,,,,,,,,,,,,,,,,,,,,,,,,,,,,,,,,,,,,,,,,,,,,,,,,,,,
,,6169e8a8311d269013eb73c7,2024-02-18_20h12.05.395,kallum_motion_pilot,2023.2.2,Win32,59.88023952,6169e8a8311d269013eb73c7,65d2b6c8f2eece985d8e374c,65d2b8dc0b64bbe7b18e2672,0.134,0.1342,0,16,16,53,1,threefour,,,,,,,,,,,,,,,,,,,,,,,,,,,,,,,,,,,,,,,,,,,,,,,,,,,,,,,,,,,,,,,,,,,,,,,,,,,,,,,,,,,,,,,,,,,,,,,,,,,,,,,,,,,,,,,,,,,,,,,,,,,,,,,,,,,,,,,,,
,,6169e8a8311d269013eb73c7,2024-02-18_20h12.05.395,kallum_motion_pilot,2023.2.2,Win32,59.88023952,6169e8a8311d269013eb73c7,65d2b6c8f2eece985d8e374c,65d2b8dc0b64bbe7b18e2672,0.1345,0.1345,0,17,17,10,1,twoone,,,,,,,,,,,,,,,,,,,,,,,,,,,,,,,,,,,,,,,,,,,,,,,,,,,,,,,,,,,,,,,,,,,,,,,,,,,,,,,,,,,,,,,,,,,,,,,,,,,,,,,,,,,,,,,,,,,,,,,,,,,,,,,,,,,,,,,,,
,,6169e8a8311d269013eb73c7,2024-02-18_20h12.05.395,kallum_motion_pilot,2023.2.2,Win32,59.88023952,6169e8a8311d269013eb73c7,65d2b6c8f2eece985d8e374c,65d2b8dc0b64bbe7b18e2672,0.1349,0.1351,0,18,18,143,1,eightseven,,,,,,,,,,,,,,,,,,,,,,,,,,,,,,,,,,,,,,,,,,,,,,,,,,,,,,,,,,,,,,,,,,,,,,,,,,,,,,,,,,,,,,,,,,,,,,,,,,,,,,,,,,,,,,,,,,,,,,,,,,,,,,,,,,,,,,,,,
,,6169e8a8311d269013eb73c7,2024-02-18_20h12.05.395,kallum_motion_pilot,2023.2.2,Win32,59.88023952,6169e8a8311d269013eb73c7,65d2b6c8f2eece985d8e374c,65d2b8dc0b64bbe7b18e2672,0.1353,0.1355,0,19,19,130,1,sixfive,,,,,,,,,,,,,,,,,,,,,,,,,,,,,,,,,,,,,,,,,,,,,,,,,,,,,,,,,,,,,,,,,,,,,,,,,,,,,,,,,,,,,,,,,,,,,,,,,,,,,,,,,,,,,,,,,,,,,,,,,,,,,,,,,,,,,,,,,
,,6169e8a8311d269013eb73c7,2024-02-18_20h12.05.395,kallum_motion_pilot,2023.2.2,Win32,59.88023952,6169e8a8311d269013eb73c7,65d2b6c8f2eece985d8e374c,65d2b8dc0b64bbe7b18e2672,0.1358,0.1359,0,20,20,28,1,threeone,,,,,,,,,,,,,,,,,,,,,,,,,,,,,,,,,,,,,,,,,,,,,,,,,,,,,,,,,,,,,,,,,,,,,,,,,,,,,,,,,,,,,,,,,,,,,,,,,,,,,,,,,,,,,,,,,,,,,,,,,,,,,,,,,,,,,,,,,
,,6169e8a8311d269013eb73c7,2024-02-18_20h12.05.395,kallum_motion_pilot,2023.2.2,Win32,59.88023952,6169e8a8311d269013eb73c7,65d2b6c8f2eece985d8e374c,65d2b8dc0b64bbe7b18e2672,0.1362,0.1363,0,21,21,12,1,threeone,,,,,,,,,,,,,,,,,,,,,,,,,,,,,,,,,,,,,,,,,,,,,,,,,,,,,,,,,,,,,,,,,,,,,,,,,,,,,,,,,,,,,,,,,,,,,,,,,,,,,,,,,,,,,,,,,,,,,,,,,,,,,,,,,,,,,,,,,
,,6169e8a8311d269013eb73c7,2024-02-18_20h12.05.395,kallum_motion_pilot,2023.2.2,Win32,59.88023952,6169e8a8311d269013eb73c7,65d2b6c8f2eece985d8e374c,65d2b8dc0b64bbe7b18e2672,0.1366,0.1367,0,22,22,6,1,fourtwo,,,,,,,,,,,,,,,,,,,,,,,,,,,,,,,,,,,,,,,,,,,,,,,,,,,,,,,,,,,,,,,,,,,,,,,,,,,,,,,,,,,,,,,,,,,,,,,,,,,,,,,,,,,,,,,,,,,,,,,,,,,,,,,,,,,,,,,,,
,,6169e8a8311d269013eb73c7,2024-02-18_20h12.05.395,kallum_motion_pilot,2023.2.2,Win32,59.88023952,6169e8a8311d269013eb73c7,65d2b6c8f2eece985d8e374c,65d2b8dc0b64bbe7b18e2672,0.137,0.1372,0,23,23,62,1,fourtwo,,,,,,,,,,,,,,,,,,,,,,,,,,,,,,,,,,,,,,,,,,,,,,,,,,,,,,,,,,,,,,,,,,,,,,,,,,,,,,,,,,,,,,,,,,,,,,,,,,,,,,,,,,,,,,,,,,,,,,,,,,,,,,,,,,,,,,,,,
,,6169e8a8311d269013eb73c7,2024-02-18_20h12.05.395,kallum_motion_pilot,2023.2.2,Win32,59.88023952,6169e8a8311d269013eb73c7,65d2b6c8f2eece985d8e374c,65d2b8dc0b64bbe7b18e2672,0.1375,0.1377,0,24,24,51,1,twofour,,,,,,,,,,,,,,,,,,,,,,,,,,,,,,,,,,,,,,,,,,,,,,,,,,,,,,,,,,,,,,,,,,,,,,,,,,,,,,,,,,,,,,,,,,,,,,,,,,,,,,,,,,,,,,,,,,,,,,,,,,,,,,,,,,,,,,,,,
,,6169e8a8311d269013eb73c7,2024-02-18_20h12.05.395,kallum_motion_pilot,2023.2.2,Win32,59.88023952,6169e8a8311d269013eb73c7,65d2b6c8f2eece985d8e374c,65d2b8dc0b64bbe7b18e2672,0.138,0.1381,0,25,25,84,1,sevenfive,,,,,,,,,,,,,,,,,,,,,,,,,,,,,,,,,,,,,,,,,,,,,,,,,,,,,,,,,,,,,,,,,,,,,,,,,,,,,,,,,,,,,,,,,,,,,,,,,,,,,,,,,,,,,,,,,,,,,,,,,,,,,,,,,,,,,,,,,
,,6169e8a8311d269013eb73c7,2024-02-18_20h12.05.395,kallum_motion_pilot,2023.2.2,Win32,59.88023952,6169e8a8311d269013eb73c7,65d2b6c8f2eece985d8e374c,65d2b8dc0b64bbe7b18e2672,0.1385,0.1386,0,26,26,40,1,onetwo,,,,,,,,,,,,,,,,,,,,,,,,,,,,,,,,,,,,,,,,,,,,,,,,,,,,,,,,,,,,,,,,,,,,,,,,,,,,,,,,,,,,,,,,,,,,,,,,,,,,,,,,,,,,,,,,,,,,,,,,,,,,,,,,,,,,,,,,,
,,6169e8a8311d269013eb73c7,2024-02-18_20h12.05.395,kallum_motion_pilot,2023.2.2,Win32,59.88023952,6169e8a8311d269013eb73c7,65d2b6c8f2eece985d8e374c,65d2b8dc0b64bbe7b18e2672,0.139,0.1392,0,27,27,85,1,seveneight,,,,,,,,,,,,,,,,,,,,,,,,,,,,,,,,,,,,,,,,,,,,,,,,,,,,,,,,,,,,,,,,,,,,,,,,,,,,,,,,,,,,,,,,,,,,,,,,,,,,,,,,,,,,,,,,,,,,,,,,,,,,,,,,,,,,,,,,,
,,6169e8a8311d269013eb73c7,2024-02-18_20h12.05.395,kallum_motion_pilot,2023.2.2,Win32,59.88023952,6169e8a8311d269013eb73c7,65d2b6c8f2eece985d8e374c,65d2b8dc0b64bbe7b18e2672,0.1395,0.1396,0,28,28,134,1,eightsix,,,,,,,,,,,,,,,,,,,,,,,,,,,,,,,,,,,,,,,,,,,,,,,,,,,,,,,,,,,,,,,,,,,,,,,,,,,,,,,,,,,,,,,,,,,,,,,,,,,,,,,,,,,,,,,,,,,,,,,,,,,,,,,,,,,,,,,,,
,,6169e8a8311d269013eb73c7,2024-02-18_20h12.05.395,kallum_motion_pilot,2023.2.2,Win32,59.88023952,6169e8a8311d269013eb73c7,65d2b6c8f2eece985d8e374c,65d2b8dc0b64bbe7b18e2672,0.1402,0.1403,0,29,29,64,1,onetwo,,,,,,,,,,,,,,,,,,,,,,,,,,,,,,,,,,,,,,,,,,,,,,,,,,,,,,,,,,,,,,,,,,,,,,,,,,,,,,,,,,,,,,,,,,,,,,,,,,,,,,,,,,,,,,,,,,,,,,,,,,,,,,,,,,,,,,,,,
,,6169e8a8311d269013eb73c7,2024-02-18_20h12.05.395,kallum_motion_pilot,2023.2.2,Win32,59.88023952,6169e8a8311d269013eb73c7,65d2b6c8f2eece985d8e374c,65d2b8dc0b64bbe7b18e2672,0.1409,0.1412,0,30,30,1,1,onethree,,,,,,,,,,,,,,,,,,,,,,,,,,,,,,,,,,,,,,,,,,,,,,,,,,,,,,,,,,,,,,,,,,,,,,,,,,,,,,,,,,,,,,,,,,,,,,,,,,,,,,,,,,,,,,,,,,,,,,,,,,,,,,,,,,,,,,,,,
,,6169e8a8311d269013eb73c7,2024-02-18_20h12.05.395,kallum_motion_pilot,2023.2.2,Win32,59.88023952,6169e8a8311d269013eb73c7,65d2b6c8f2eece985d8e374c,65d2b8dc0b64bbe7b18e2672,0.1417,0.142,0,31,31,144,1,fivesix,,,,,,,,,,,,,,,,,,,,,,,,,,,,,,,,,,,,,,,,,,,,,,,,,,,,,,,,,,,,,,,,,,,,,,,,,,,,,,,,,,,,,,,,,,,,,,,,,,,,,,,,,,,,,,,,,,,,,,,,,,,,,,,,,,,,,,,,,
,,6169e8a8311d269013eb73c7,2024-02-18_20h12.05.395,kallum_motion_pilot,2023.2.2,Win32,59.88023952,6169e8a8311d269013eb73c7,65d2b6c8f2eece985d8e374c,65d2b8dc0b64bbe7b18e2672,0.1425,0.1428,0,32,32,159,1,eightseven,,,,,,,,,,,,,,,,,,,,,,,,,,,,,,,,,,,,,,,,,,,,,,,,,,,,,,,,,,,,,,,,,,,,,,,,,,,,,,,,,,,,,,,,,,,,,,,,,,,,,,,,,,,,,,,,,,,,,,,,,,,,,,,,,,,,,,,,,
,,6169e8a8311d269013eb73c7,2024-02-18_20h12.05.395,kallum_motion_pilot,2023.2.2,Win32,59.88023952,6169e8a8311d269013eb73c7,65d2b6c8f2eece985d8e374c,65d2b8dc0b64bbe7b18e2672,0.1434,0.1434,0,33,33,94,1,eightsix,,,,,,,,,,,,,,,,,,,,,,,,,,,,,,,,,,,,,,,,,,,,,,,,,,,,,,,,,,,,,,,,,,,,,,,,,,,,,,,,,,,,,,,,,,,,,,,,,,,,,,,,,,,,,,,,,,,,,,,,,,,,,,,,,,,,,,,,,
,,6169e8a8311d269013eb73c7,2024-02-18_20h12.05.395,kallum_motion_pilot,2023.2.2,Win32,59.88023952,6169e8a8311d269013eb73c7,65d2b6c8f2eece985d8e374c,65d2b8dc0b64bbe7b18e2672,0.1439,0.144,0,34,34,105,1,fiveseven,,,,,,,,,,,,,,,,,,,,,,,,,,,,,,,,,,,,,,,,,,,,,,,,,,,,,,,,,,,,,,,,,,,,,,,,,,,,,,,,,,,,,,,,,,,,,,,,,,,,,,,,,,,,,,,,,,,,,,,,,,,,,,,,,,,,,,,,,
,,6169e8a8311d269013eb73c7,2024-02-18_20h12.05.395,kallum_motion_pilot,2023.2.2,Win32,59.88023952,6169e8a8311d269013eb73c7,65d2b6c8f2eece985d8e374c,65d2b8dc0b64bbe7b18e2672,0.1444,0.1445,0,35,35,63,1,fourthree,,,,,,,,,,,,,,,,,,,,,,,,,,,,,,,,,,,,,,,,,,,,,,,,,,,,,,,,,,,,,,,,,,,,,,,,,,,,,,,,,,,,,,,,,,,,,,,,,,,,,,,,,,,,,,,,,,,,,,,,,,,,,,,,,,,,,,,,,
,,6169e8a8311d269013eb73c7,2024-02-18_20h12.05.395,kallum_motion_pilot,2023.2.2,Win32,59.88023952,6169e8a8311d269013eb73c7,65d2b6c8f2eece985d8e374c,65d2b8dc0b64bbe7b18e2672,0.1449,0.145,0,36,36,153,1,fiveseven,,,,,,,,,,,,,,,,,,,,,,,,,,,,,,,,,,,,,,,,,,,,,,,,,,,,,,,,,,,,,,,,,,,,,,,,,,,,,,,,,,,,,,,,,,,,,,,,,,,,,,,,,,,,,,,,,,,,,,,,,,,,,,,,,,,,,,,,,
,,6169e8a8311d269013eb73c7,2024-02-18_20h12.05.395,kallum_motion_pilot,2023.2.2,Win32,59.88023952,6169e8a8311d269013eb73c7,65d2b6c8f2eece985d8e374c,65d2b8dc0b64bbe7b18e2672,0.1453,0.1455,0,37,37,128,1,fivesix,,,,,,,,,,,,,,,,,,,,,,,,,,,,,,,,,,,,,,,,,,,,,,,,,,,,,,,,,,,,,,,,,,,,,,,,,,,,,,,,,,,,,,,,,,,,,,,,,,,,,,,,,,,,,,,,,,,,,,,,,,,,,,,,,,,,,,,,,
,,6169e8a8311d269013eb73c7,2024-02-18_20h12.05.395,kallum_motion_pilot,2023.2.2,Win32,59.88023952,6169e8a8311d269013eb73c7,65d2b6c8f2eece985d8e374c,65d2b8dc0b64bbe7b18e2672,0.1458,0.146,0,38,38,56,1,onetwo,,,,,,,,,,,,,,,,,,,,,,,,,,,,,,,,,,,,,,,,,,,,,,,,,,,,,,,,,,,,,,,,,,,,,,,,,,,,,,,,,,,,,,,,,,,,,,,,,,,,,,,,,,,,,,,,,,,,,,,,,,,,,,,,,,,,,,,,,
,,6169e8a8311d269013eb73c7,2024-02-18_20h12.05.395,kallum_motion_pilot,2023.2.2,Win32,59.88023952,6169e8a8311d269013eb73c7,65d2b6c8f2eece985d8e374c,65d2b8dc0b64bbe7b18e2672,0.1464,0.1464,0,39,39,95,1,eightseven,,,,,,,,,,,,,,,,,,,,,,,,,,,,,,,,,,,,,,,,,,,,,,,,,,,,,,,,,,,,,,,,,,,,,,,,,,,,,,,,,,,,,,,,,,,,,,,,,,,,,,,,,,,,,,,,,,,,,,,,,,,,,,,,,,,,,,,,,
,,6169e8a8311d269013eb73c7,2024-02-18_20h12.05.395,kallum_motion_pilot,2023.2.2,Win32,59.88023952,6169e8a8311d269013eb73c7,65d2b6c8f2eece985d8e374c,65d2b8dc0b64bbe7b18e2672,0.1469,0.1471,0,40,40,127,1,eightseven,,,,,,,,,,,,,,,,,,,,,,,,,,,,,,,,,,,,,,,,,,,,,,,,,,,,,,,,,,,,,,,,,,,,,,,,,,,,,,,,,,,,,,,,,,,,,,,,,,,,,,,,,,,,,,,,,,,,,,,,,,,,,,,,,,,,,,,,,
,,6169e8a8311d269013eb73c7,2024-02-18_20h12.05.395,kallum_motion_pilot,2023.2.2,Win32,59.88023952,6169e8a8311d269013eb73c7,65d2b6c8f2eece985d8e374c,65d2b8dc0b64bbe7b18e2672,0.1474,0.1475,0,41,41,109,1,seveneight,,,,,,,,,,,,,,,,,,,,,,,,,,,,,,,,,,,,,,,,,,,,,,,,,,,,,,,,,,,,,,,,,,,,,,,,,,,,,,,,,,,,,,,,,,,,,,,,,,,,,,,,,,,,,,,,,,,,,,,,,,,,,,,,,,,,,,,,,
,,6169e8a8311d269013eb73c7,2024-02-18_20h12.05.395,kallum_motion_pilot,2023.2.2,Win32,59.88023952,6169e8a8311d269013eb73c7,65d2b6c8f2eece985d8e374c,65d2b8dc0b64bbe7b18e2672,0.1479,0.1481,0,42,42,7,1,fourthree,,,,,,,,,,,,,,,,,,,,,,,,,,,,,,,,,,,,,,,,,,,,,,,,,,,,,,,,,,,,,,,,,,,,,,,,,,,,,,,,,,,,,,,,,,,,,,,,,,,,,,,,,,,,,,,,,,,,,,,,,,,,,,,,,,,,,,,,,
,,6169e8a8311d269013eb73c7,2024-02-18_20h12.05.395,kallum_motion_pilot,2023.2.2,Win32,59.88023952,6169e8a8311d269013eb73c7,65d2b6c8f2eece985d8e374c,65d2b8dc0b64bbe7b18e2672,0.1484,0.1486,0,43,43,43,1,twofour,,,,,,,,,,,,,,,,,,,,,,,,,,,,,,,,,,,,,,,,,,,,,,,,,,,,,,,,,,,,,,,,,,,,,,,,,,,,,,,,,,,,,,,,,,,,,,,,,,,,,,,,,,,,,,,,,,,,,,,,,,,,,,,,,,,,,,,,,
,,6169e8a8311d269013eb73c7,2024-02-18_20h12.05.395,kallum_motion_pilot,2023.2.2,Win32,59.88023952,6169e8a8311d269013eb73c7,65d2b6c8f2eece985d8e374c,65d2b8dc0b64bbe7b18e2672,0.149,0.1491,0,44,44,90,1,sixfive,,,,,,,,,,,,,,,,,,,,,,,,,,,,,,,,,,,,,,,,,,,,,,,,,,,,,,,,,,,,,,,,,,,,,,,,,,,,,,,,,,,,,,,,,,,,,,,,,,,,,,,,,,,,,,,,,,,,,,,,,,,,,,,,,,,,,,,,,
,,6169e8a8311d269013eb73c7,2024-02-18_20h12.05.395,kallum_motion_pilot,2023.2.2,Win32,59.88023952,6169e8a8311d269013eb73c7,65d2b6c8f2eece985d8e374c,65d2b8dc0b64bbe7b18e2672,0.1495,0.1498,0,45,45,50,1,twoone,,,,,,,,,,,,,,,,,,,,,,,,,,,,,,,,,,,,,,,,,,,,,,,,,,,,,,,,,,,,,,,,,,,,,,,,,,,,,,,,,,,,,,,,,,,,,,,,,,,,,,,,,,,,,,,,,,,,,,,,,,,,,,,,,,,,,,,,,
,,6169e8a8311d269013eb73c7,2024-02-18_20h12.05.395,kallum_motion_pilot,2023.2.2,Win32,59.88023952,6169e8a8311d269013eb73c7,65d2b6c8f2eece985d8e374c,65d2b8dc0b64bbe7b18e2672,0.1503,0.1504,0,46,46,73,1,onethree,,,,,,,,,,,,,,,,,,,,,,,,,,,,,,,,,,,,,,,,,,,,,,,,,,,,,,,,,,,,,,,,,,,,,,,,,,,,,,,,,,,,,,,,,,,,,,,,,,,,,,,,,,,,,,,,,,,,,,,,,,,,,,,,,,,,,,,,,
,,6169e8a8311d269013eb73c7,2024-02-18_20h12.05.395,kallum_motion_pilot,2023.2.2,Win32,59.88023952,6169e8a8311d269013eb73c7,65d2b6c8f2eece985d8e374c,65d2b8dc0b64bbe7b18e2672,0.151,0.1513,0,47,47,5,1,threefour,,,,,,,,,,,,,,,,,,,,,,,,,,,,,,,,,,,,,,,,,,,,,,,,,,,,,,,,,,,,,,,,,,,,,,,,,,,,,,,,,,,,,,,,,,,,,,,,,,,,,,,,,,,,,,,,,,,,,,,,,,,,,,,,,,,,,,,,,
,,6169e8a8311d269013eb73c7,2024-02-18_20h12.05.395,kallum_motion_pilot,2023.2.2,Win32,59.88023952,6169e8a8311d269013eb73c7,65d2b6c8f2eece985d8e374c,65d2b8dc0b64bbe7b18e2672,0.1519,0.1523,0,48,48,42,1,twoone,,,,,,,,,,,,,,,,,,,,,,,,,,,,,,,,,,,,,,,,,,,,,,,,,,,,,,,,,,,,,,,,,,,,,,,,,,,,,,,,,,,,,,,,,,,,,,,,,,,,,,,,,,,,,,,,,,,,,,,,,,,,,,,,,,,,,,,,,
,,6169e8a8311d269013eb73c7,2024-02-18_20h12.05.395,kallum_motion_pilot,2023.2.2,Win32,59.88023952,6169e8a8311d269013eb73c7,65d2b6c8f2eece985d8e374c,65d2b8dc0b64bbe7b18e2672,0.153,0.1532,0,49,49,108,1,sevenfive,,,,,,,,,,,,,,,,,,,,,,,,,,,,,,,,,,,,,,,,,,,,,,,,,,,,,,,,,,,,,,,,,,,,,,,,,,,,,,,,,,,,,,,,,,,,,,,,,,,,,,,,,,,,,,,,,,,,,,,,,,,,,,,,,,,,,,,,,
,,6169e8a8311d269013eb73c7,2024-02-18_20h12.05.395,kallum_motion_pilot,2023.2.2,Win32,59.88023952,6169e8a8311d269013eb73c7,65d2b6c8f2eece985d8e374c,65d2b8dc0b64bbe7b18e2672,0.154,0.1542,0,50,50,22,1,fourtwo,,,,,,,,,,,,,,,,,,,,,,,,,,,,,,,,,,,,,,,,,,,,,,,,,,,,,,,,,,,,,,,,,,,,,,,,,,,,,,,,,,,,,,,,,,,,,,,,,,,,,,,,,,,,,,,,,,,,,,,,,,,,,,,,,,,,,,,,,
,,6169e8a8311d269013eb73c7,2024-02-18_20h12.05.395,kallum_motion_pilot,2023.2.2,Win32,59.88023952,6169e8a8311d269013eb73c7,65d2b6c8f2eece985d8e374c,65d2b8dc0b64bbe7b18e2672,0.1549,0.1553,0,51,51,121,1,fiveseven,,,,,,,,,,,,,,,,,,,,,,,,,,,,,,,,,,,,,,,,,,,,,,,,,,,,,,,,,,,,,,,,,,,,,,,,,,,,,,,,,,,,,,,,,,,,,,,,,,,,,,,,,,,,,,,,,,,,,,,,,,,,,,,,,,,,,,,,,
,,6169e8a8311d269013eb73c7,2024-02-18_20h12.05.395,kallum_motion_pilot,2023.2.2,Win32,59.88023952,6169e8a8311d269013eb73c7,65d2b6c8f2eece985d8e374c,65d2b8dc0b64bbe7b18e2672,0.1563,0.1568,0,52,52,154,1,sixfive,,,,,,,,,,,,,,,,,,,,,,,,,,,,,,,,,,,,,,,,,,,,,,,,,,,,,,,,,,,,,,,,,,,,,,,,,,,,,,,,,,,,,,,,,,,,,,,,,,,,,,,,,,,,,,,,,,,,,,,,,,,,,,,,,,,,,,,,,
,,6169e8a8311d269013eb73c7,2024-02-18_20h12.05.395,kallum_motion_pilot,2023.2.2,Win32,59.88023952,6169e8a8311d269013eb73c7,65d2b6c8f2eece985d8e374c,65d2b8dc0b64bbe7b18e2672,0.1578,0.158,0,53,53,0,1,onetwo,,,,,,,,,,,,,,,,,,,,,,,,,,,,,,,,,,,,,,,,,,,,,,,,,,,,,,,,,,,,,,,,,,,,,,,,,,,,,,,,,,,,,,,,,,,,,,,,,,,,,,,,,,,,,,,,,,,,,,,,,,,,,,,,,,,,,,,,,
,,6169e8a8311d269013eb73c7,2024-02-18_20h12.05.395,kallum_motion_pilot,2023.2.2,Win32,59.88023952,6169e8a8311d269013eb73c7,65d2b6c8f2eece985d8e374c,65d2b8dc0b64bbe7b18e2672,0.1585,0.1587,0,54,54,126,1,eightsix,,,,,,,,,,,,,,,,,,,,,,,,,,,,,,,,,,,,,,,,,,,,,,,,,,,,,,,,,,,,,,,,,,,,,,,,,,,,,,,,,,,,,,,,,,,,,,,,,,,,,,,,,,,,,,,,,,,,,,,,,,,,,,,,,,,,,,,,,
,,6169e8a8311d269013eb73c7,2024-02-18_20h12.05.395,kallum_motion_pilot,2023.2.2,Win32,59.88023952,6169e8a8311d269013eb73c7,65d2b6c8f2eece985d8e374c,65d2b8dc0b64bbe7b18e2672,0.1592,0.1593,0,55,55,60,1,threeone,,,,,,,,,,,,,,,,,,,,,,,,,,,,,,,,,,,,,,,,,,,,,,,,,,,,,,,,,,,,,,,,,,,,,,,,,,,,,,,,,,,,,,,,,,,,,,,,,,,,,,,,,,,,,,,,,,,,,,,,,,,,,,,,,,,,,,,,,
,,6169e8a8311d269013eb73c7,2024-02-18_20h12.05.395,kallum_motion_pilot,2023.2.2,Win32,59.88023952,6169e8a8311d269013eb73c7,65d2b6c8f2eece985d8e374c,65d2b8dc0b64bbe7b18e2672,0.1597,0.1599,0,56,56,86,1,eightsix,,,,,,,,,,,,,,,,,,,,,,,,,,,,,,,,,,,,,,,,,,,,,,,,,,,,,,,,,,,,,,,,,,,,,,,,,,,,,,,,,,,,,,,,,,,,,,,,,,,,,,,,,,,,,,,,,,,,,,,,,,,,,,,,,,,,,,,,,
,,6169e8a8311d269013eb73c7,2024-02-18_20h12.05.395,kallum_motion_pilot,2023.2.2,Win32,59.88023952,6169e8a8311d269013eb73c7,65d2b6c8f2eece985d8e374c,65d2b8dc0b64bbe7b18e2672,0.1603,0.1605,0,57,57,71,1,fourthree,,,,,,,,,,,,,,,,,,,,,,,,,,,,,,,,,,,,,,,,,,,,,,,,,,,,,,,,,,,,,,,,,,,,,,,,,,,,,,,,,,,,,,,,,,,,,,,,,,,,,,,,,,,,,,,,,,,,,,,,,,,,,,,,,,,,,,,,,
,,6169e8a8311d269013eb73c7,2024-02-18_20h12.05.395,kallum_motion_pilot,2023.2.2,Win32,59.88023952,6169e8a8311d269013eb73c7,65d2b6c8f2eece985d8e374c,65d2b8dc0b64bbe7b18e2672,0.1608,0.161,0,58,58,119,1,eightseven,,,,,,,,,,,,,,,,,,,,,,,,,,,,,,,,,,,,,,,,,,,,,,,,,,,,,,,,,,,,,,,,,,,,,,,,,,,,,,,,,,,,,,,,,,,,,,,,,,,,,,,,,,,,,,,,,,,,,,,,,,,,,,,,,,,,,,,,,
,,6169e8a8311d269013eb73c7,2024-02-18_20h12.05.395,kallum_motion_pilot,2023.2.2,Win32,59.88023952,6169e8a8311d269013eb73c7,65d2b6c8f2eece985d8e374c,65d2b8dc0b64bbe7b18e2672,0.1615,0.1617,0,59,59,147,1,sixeight,,,,,,,,,,,,,,,,,,,,,,,,,,,,,,,,,,,,,,,,,,,,,,,,,,,,,,,,,,,,,,,,,,,,,,,,,,,,,,,,,,,,,,,,,,,,,,,,,,,,,,,,,,,,,,,,,,,,,,,,,,,,,,,,,,,,,,,,,
,,6169e8a8311d269013eb73c7,2024-02-18_20h12.05.395,kallum_motion_pilot,2023.2.2,Win32,59.88023952,6169e8a8311d269013eb73c7,65d2b6c8f2eece985d8e374c,65d2b8dc0b64bbe7b18e2672,0.1621,0.1623,0,60,60,46,1,fourtwo,,,,,,,,,,,,,,,,,,,,,,,,,,,,,,,,,,,,,,,,,,,,,,,,,,,,,,,,,,,,,,,,,,,,,,,,,,,,,,,,,,,,,,,,,,,,,,,,,,,,,,,,,,,,,,,,,,,,,,,,,,,,,,,,,,,,,,,,,
,,6169e8a8311d269013eb73c7,2024-02-18_20h12.05.395,kallum_motion_pilot,2023.2.2,Win32,59.88023952,6169e8a8311d269013eb73c7,65d2b6c8f2eece985d8e374c,65d2b8dc0b64bbe7b18e2672,0.1627,0.163,0,61,61,131,1,sixeight,,,,,,,,,,,,,,,,,,,,,,,,,,,,,,,,,,,,,,,,,,,,,,,,,,,,,,,,,,,,,,,,,,,,,,,,,,,,,,,,,,,,,,,,,,,,,,,,,,,,,,,,,,,,,,,,,,,,,,,,,,,,,,,,,,,,,,,,,
,,6169e8a8311d269013eb73c7,2024-02-18_20h12.05.395,kallum_motion_pilot,2023.2.2,Win32,59.88023952,6169e8a8311d269013eb73c7,65d2b6c8f2eece985d8e374c,65d2b8dc0b64bbe7b18e2672,0.1635,0.1636,0,62,62,114,1,sixfive,,,,,,,,,,,,,,,,,,,,,,,,,,,,,,,,,,,,,,,,,,,,,,,,,,,,,,,,,,,,,,,,,,,,,,,,,,,,,,,,,,,,,,,,,,,,,,,,,,,,,,,,,,,,,,,,,,,,,,,,,,,,,,,,,,,,,,,,,
,,6169e8a8311d269013eb73c7,2024-02-18_20h12.05.395,kallum_motion_pilot,2023.2.2,Win32,59.88023952,6169e8a8311d269013eb73c7,65d2b6c8f2eece985d8e374c,65d2b8dc0b64bbe7b18e2672,0.1641,0.1644,0,63,63,52,1,threeone,,,,,,,,,,,,,,,,,,,,,,,,,,,,,,,,,,,,,,,,,,,,,,,,,,,,,,,,,,,,,,,,,,,,,,,,,,,,,,,,,,,,,,,,,,,,,,,,,,,,,,,,,,,,,,,,,,,,,,,,,,,,,,,,,,,,,,,,,
,,6169e8a8311d269013eb73c7,2024-02-18_20h12.05.395,kallum_motion_pilot,2023.2.2,Win32,59.88023952,6169e8a8311d269013eb73c7,65d2b6c8f2eece985d8e374c,65d2b8dc0b64bbe7b18e2672,0.1649,0.165,0,64,64,18,1,twoone,,,,,,,,,,,,,,,,,,,,,,,,,,,,,,,,,,,,,,,,,,,,,,,,,,,,,,,,,,,,,,,,,,,,,,,,,,,,,,,,,,,,,,,,,,,,,,,,,,,,,,,,,,,,,,,,,,,,,,,,,,,,,,,,,,,,,,,,,
,,6169e8a8311d269013eb73c7,2024-02-18_20h12.05.395,kallum_motion_pilot,2023.2.2,Win32,59.88023952,6169e8a8311d269013eb73c7,65d2b6c8f2eece985d8e374c,65d2b8dc0b64bbe7b18e2672,0.1654,0.1656,0,65,65,125,1,seveneight,,,,,,,,,,,,,,,,,,,,,,,,,,,,,,,,,,,,,,,,,,,,,,,,,,,,,,,,,,,,,,,,,,,,,,,,,,,,,,,,,,,,,,,,,,,,,,,,,,,,,,,,,,,,,,,,,,,,,,,,,,,,,,,,,,,,,,,,,
,,6169e8a8311d269013eb73c7,2024-02-18_20h12.05.395,kallum_motion_pilot,2023.2.2,Win32,59.88023952,6169e8a8311d269013eb73c7,65d2b6c8f2eece985d8e374c,65d2b8dc0b64bbe7b18e2672,0.1659,0.1661,0,66,66,148,1,sevenfive,,,,,,,,,,,,,,,,,,,,,,,,,,,,,,,,,,,,,,,,,,,,,,,,,,,,,,,,,,,,,,,,,,,,,,,,,,,,,,,,,,,,,,,,,,,,,,,,,,,,,,,,,,,,,,,,,,,,,,,,,,,,,,,,,,,,,,,,,
,,6169e8a8311d269013eb73c7,2024-02-18_20h12.05.395,kallum_motion_pilot,2023.2.2,Win32,59.88023952,6169e8a8311d269013eb73c7,65d2b6c8f2eece985d8e374c,65d2b8dc0b64bbe7b18e2672,0.1666,0.1668,0,67,67,104,1,fivesix,,,,,,,,,,,,,,,,,,,,,,,,,,,,,,,,,,,,,,,,,,,,,,,,,,,,,,,,,,,,,,,,,,,,,,,,,,,,,,,,,,,,,,,,,,,,,,,,,,,,,,,,,,,,,,,,,,,,,,,,,,,,,,,,,,,,,,,,,
,,6169e8a8311d269013eb73c7,2024-02-18_20h12.05.395,kallum_motion_pilot,2023.2.2,Win32,59.88023952,6169e8a8311d269013eb73c7,65d2b6c8f2eece985d8e374c,65d2b8dc0b64bbe7b18e2672,0.1673,0.1674,0,68,68,14,1,fourtwo,,,,,,,,,,,,,,,,,,,,,,,,,,,,,,,,,,,,,,,,,,,,,,,,,,,,,,,,,,,,,,,,,,,,,,,,,,,,,,,,,,,,,,,,,,,,,,,,,,,,,,,,,,,,,,,,,,,,,,,,,,,,,,,,,,,,,,,,,
,,6169e8a8311d269013eb73c7,2024-02-18_20h12.05.395,kallum_motion_pilot,2023.2.2,Win32,59.88023952,6169e8a8311d269013eb73c7,65d2b6c8f2eece985d8e374c,65d2b8dc0b64bbe7b18e2672,0.1679,0.1703,0,69,69,111,1,eightseven,,,,,,,,,,,,,,,,,,,,,,,,,,,,,,,,,,,,,,,,,,,,,,,,,,,,,,,,,,,,,,,,,,,,,,,,,,,,,,,,,,,,,,,,,,,,,,,,,,,,,,,,,,,,,,,,,,,,,,,,,,,,,,,,,,,,,,,,,
,,6169e8a8311d269013eb73c7,2024-02-18_20h12.05.395,kallum_motion_pilot,2023.2.2,Win32,59.88023952,6169e8a8311d269013eb73c7,65d2b6c8f2eece985d8e374c,65d2b8dc0b64bbe7b18e2672,0.1708,0.1712,0,70,70,78,1,fourtwo,,,,,,,,,,,,,,,,,,,,,,,,,,,,,,,,,,,,,,,,,,,,,,,,,,,,,,,,,,,,,,,,,,,,,,,,,,,,,,,,,,,,,,,,,,,,,,,,,,,,,,,,,,,,,,,,,,,,,,,,,,,,,,,,,,,,,,,,,
,,6169e8a8311d269013eb73c7,2024-02-18_20h12.05.395,kallum_motion_pilot,2023.2.2,Win32,59.88023952,6169e8a8311d269013eb73c7,65d2b6c8f2eece985d8e374c,65d2b8dc0b64bbe7b18e2672,0.1717,0.1719,0,71,71,4,1,threeone,,,,,,,,,,,,,,,,,,,,,,,,,,,,,,,,,,,,,,,,,,,,,,,,,,,,,,,,,,,,,,,,,,,,,,,,,,,,,,,,,,,,,,,,,,,,,,,,,,,,,,,,,,,,,,,,,,,,,,,,,,,,,,,,,,,,,,,,,
,,6169e8a8311d269013eb73c7,2024-02-18_20h12.05.395,kallum_motion_pilot,2023.2.2,Win32,59.88023952,6169e8a8311d269013eb73c7,65d2b6c8f2eece985d8e374c,65d2b8dc0b64bbe7b18e2672,0.1723,0.1725,0,72,72,61,1,threefour,,,,,,,,,,,,,,,,,,,,,,,,,,,,,,,,,,,,,,,,,,,,,,,,,,,,,,,,,,,,,,,,,,,,,,,,,,,,,,,,,,,,,,,,,,,,,,,,,,,,,,,,,,,,,,,,,,,,,,,,,,,,,,,,,,,,,,,,,
,,6169e8a8311d269013eb73c7,2024-02-18_20h12.05.395,kallum_motion_pilot,2023.2.2,Win32,59.88023952,6169e8a8311d269013eb73c7,65d2b6c8f2eece985d8e374c,65d2b8dc0b64bbe7b18e2672,0.1736,0.1747,0,73,73,80,1,fivesix,,,,,,,,,,,,,,,,,,,,,,,,,,,,,,,,,,,,,,,,,,,,,,,,,,,,,,,,,,,,,,,,,,,,,,,,,,,,,,,,,,,,,,,,,,,,,,,,,,,,,,,,,,,,,,,,,,,,,,,,,,,,,,,,,,,,,,,,,
,,6169e8a8311d269013eb73c7,2024-02-18_20h12.05.395,kallum_motion_pilot,2023.2.2,Win32,59.88023952,6169e8a8311d269013eb73c7,65d2b6c8f2eece985d8e374c,65d2b8dc0b64bbe7b18e2672,0.1754,0.1755,0,74,74,70,1,fourtwo,,,,,,,,,,,,,,,,,,,,,,,,,,,,,,,,,,,,,,,,,,,,,,,,,,,,,,,,,,,,,,,,,,,,,,,,,,,,,,,,,,,,,,,,,,,,,,,,,,,,,,,,,,,,,,,,,,,,,,,,,,,,,,,,,,,,,,,,,
,,6169e8a8311d269013eb73c7,2024-02-18_20h12.05.395,kallum_motion_pilot,2023.2.2,Win32,59.88023952,6169e8a8311d269013eb73c7,65d2b6c8f2eece985d8e374c,65d2b8dc0b64bbe7b18e2672,0.1761,0.1763,0,75,75,112,1,fivesix,,,,,,,,,,,,,,,,,,,,,,,,,,,,,,,,,,,,,,,,,,,,,,,,,,,,,,,,,,,,,,,,,,,,,,,,,,,,,,,,,,,,,,,,,,,,,,,,,,,,,,,,,,,,,,,,,,,,,,,,,,,,,,,,,,,,,,,,,
,,6169e8a8311d269013eb73c7,2024-02-18_20h12.05.395,kallum_motion_pilot,2023.2.2,Win32,59.88023952,6169e8a8311d269013eb73c7,65d2b6c8f2eece985d8e374c,65d2b8dc0b64bbe7b18e2672,0.1768,0.1771,0,76,76,72,1,onetwo,,,,,,,,,,,,,,,,,,,,,,,,,,,,,,,,,,,,,,,,,,,,,,,,,,,,,,,,,,,,,,,,,,,,,,,,,,,,,,,,,,,,,,,,,,,,,,,,,,,,,,,,,,,,,,,,,,,,,,,,,,,,,,,,,,,,,,,,,
,,6169e8a8311d269013eb73c7,2024-02-18_20h12.05.395,kallum_motion_pilot,2023.2.2,Win32,59.88023952,6169e8a8311d269013eb73c7,65d2b6c8f2eece985d8e374c,65d2b8dc0b64bbe7b18e2672,0.1777,0.178,0,77,77,88,1,fivesix,,,,,,,,,,,,,,,,,,,,,,,,,,,,,,,,,,,,,,,,,,,,,,,,,,,,,,,,,,,,,,,,,,,,,,,,,,,,,,,,,,,,,,,,,,,,,,,,,,,,,,,,,,,,,,,,,,,,,,,,,,,,,,,,,,,,,,,,,
,,6169e8a8311d269013eb73c7,2024-02-18_20h12.05.395,kallum_motion_pilot,2023.2.2,Win32,59.88023952,6169e8a8311d269013eb73c7,65d2b6c8f2eece985d8e374c,65d2b8dc0b64bbe7b18e2672,0.1783,0.1785,0,78,78,132,1,sevenfive,,,,,,,,,,,,,,,,,,,,,,,,,,,,,,,,,,,,,,,,,,,,,,,,,,,,,,,,,,,,,,,,,,,,,,,,,,,,,,,,,,,,,,,,,,,,,,,,,,,,,,,,,,,,,,,,,,,,,,,,,,,,,,,,,,,,,,,,,
,,6169e8a8311d269013eb73c7,2024-02-18_20h12.05.395,kallum_motion_pilot,2023.2.2,Win32,59.88023952,6169e8a8311d269013eb73c7,65d2b6c8f2eece985d8e374c,65d2b8dc0b64bbe7b18e2672,0.1791,0.1794,0,79,79,37,1,threefour,,,,,,,,,,,,,,,,,,,,,,,,,,,,,,,,,,,,,,,,,,,,,,,,,,,,,,,,,,,,,,,,,,,,,,,,,,,,,,,,,,,,,,,,,,,,,,,,,,,,,,,,,,,,,,,,,,,,,,,,,,,,,,,,,,,,,,,,,
,,6169e8a8311d269013eb73c7,2024-02-18_20h12.05.395,kallum_motion_pilot,2023.2.2,Win32,59.88023952,6169e8a8311d269013eb73c7,65d2b6c8f2eece985d8e374c,65d2b8dc0b64bbe7b18e2672,0.1799,0.1802,0,80,80,49,1,onethree,,,,,,,,,,,,,,,,,,,,,,,,,,,,,,,,,,,,,,,,,,,,,,,,,,,,,,,,,,,,,,,,,,,,,,,,,,,,,,,,,,,,,,,,,,,,,,,,,,,,,,,,,,,,,,,,,,,,,,,,,,,,,,,,,,,,,,,,,
,,6169e8a8311d269013eb73c7,2024-02-18_20h12.05.395,kallum_motion_pilot,2023.2.2,Win32,59.88023952,6169e8a8311d269013eb73c7,65d2b6c8f2eece985d8e374c,65d2b8dc0b64bbe7b18e2672,0.1807,0.1808,0,81,81,146,1,sixfive,,,,,,,,,,,,,,,,,,,,,,,,,,,,,,,,,,,,,,,,,,,,,,,,,,,,,,,,,,,,,,,,,,,,,,,,,,,,,,,,,,,,,,,,,,,,,,,,,,,,,,,,,,,,,,,,,,,,,,,,,,,,,,,,,,,,,,,,,
,,6169e8a8311d269013eb73c7,2024-02-18_20h12.05.395,kallum_motion_pilot,2023.2.2,Win32,59.88023952,6169e8a8311d269013eb73c7,65d2b6c8f2eece985d8e374c,65d2b8dc0b64bbe7b18e2672,0.1814,0.1816,0,82,82,69,1,threefour,,,,,,,,,,,,,,,,,,,,,,,,,,,,,,,,,,,,,,,,,,,,,,,,,,,,,,,,,,,,,,,,,,,,,,,,,,,,,,,,,,,,,,,,,,,,,,,,,,,,,,,,,,,,,,,,,,,,,,,,,,,,,,,,,,,,,,,,,
,,6169e8a8311d269013eb73c7,2024-02-18_20h12.05.395,kallum_motion_pilot,2023.2.2,Win32,59.88023952,6169e8a8311d269013eb73c7,65d2b6c8f2eece985d8e374c,65d2b8dc0b64bbe7b18e2672,0.182,0.1822,0,83,83,87,1,eightseven,,,,,,,,,,,,,,,,,,,,,,,,,,,,,,,,,,,,,,,,,,,,,,,,,,,,,,,,,,,,,,,,,,,,,,,,,,,,,,,,,,,,,,,,,,,,,,,,,,,,,,,,,,,,,,,,,,,,,,,,,,,,,,,,,,,,,,,,,
,,6169e8a8311d269013eb73c7,2024-02-18_20h12.05.395,kallum_motion_pilot,2023.2.2,Win32,59.88023952,6169e8a8311d269013eb73c7,65d2b6c8f2eece985d8e374c,65d2b8dc0b64bbe7b18e2672,0.1829,0.1831,0,84,84,137,1,fiveseven,,,,,,,,,,,,,,,,,,,,,,,,,,,,,,,,,,,,,,,,,,,,,,,,,,,,,,,,,,,,,,,,,,,,,,,,,,,,,,,,,,,,,,,,,,,,,,,,,,,,,,,,,,,,,,,,,,,,,,,,,,,,,,,,,,,,,,,,,
,,6169e8a8311d269013eb73c7,2024-02-18_20h12.05.395,kallum_motion_pilot,2023.2.2,Win32,59.88023952,6169e8a8311d269013eb73c7,65d2b6c8f2eece985d8e374c,65d2b8dc0b64bbe7b18e2672,0.1837,0.1838,0,85,85,102,1,eightsix,,,,,,,,,,,,,,,,,,,,,,,,,,,,,,,,,,,,,,,,,,,,,,,,,,,,,,,,,,,,,,,,,,,,,,,,,,,,,,,,,,,,,,,,,,,,,,,,,,,,,,,,,,,,,,,,,,,,,,,,,,,,,,,,,,,,,,,,,
,,6169e8a8311d269013eb73c7,2024-02-18_20h12.05.395,kallum_motion_pilot,2023.2.2,Win32,59.88023952,6169e8a8311d269013eb73c7,65d2b6c8f2eece985d8e374c,65d2b8dc0b64bbe7b18e2672,0.1843,0.1845,0,86,86,82,1,sixfive,,,,,,,,,,,,,,,,,,,,,,,,,,,,,,,,,,,,,,,,,,,,,,,,,,,,,,,,,,,,,,,,,,,,,,,,,,,,,,,,,,,,,,,,,,,,,,,,,,,,,,,,,,,,,,,,,,,,,,,,,,,,,,,,,,,,,,,,,
,,6169e8a8311d269013eb73c7,2024-02-18_20h12.05.395,kallum_motion_pilot,2023.2.2,Win32,59.88023952,6169e8a8311d269013eb73c7,65d2b6c8f2eece985d8e374c,65d2b8dc0b64bbe7b18e2672,0.1848,0.185,0,87,87,2,1,twoone,,,,,,,,,,,,,,,,,,,,,,,,,,,,,,,,,,,,,,,,,,,,,,,,,,,,,,,,,,,,,,,,,,,,,,,,,,,,,,,,,,,,,,,,,,,,,,,,,,,,,,,,,,,,,,,,,,,,,,,,,,,,,,,,,,,,,,,,,
,,6169e8a8311d269013eb73c7,2024-02-18_20h12.05.395,kallum_motion_pilot,2023.2.2,Win32,59.88023952,6169e8a8311d269013eb73c7,65d2b6c8f2eece985d8e374c,65d2b8dc0b64bbe7b18e2672,0.1854,0.1856,0,88,88,83,1,sixeight,,,,,,,,,,,,,,,,,,,,,,,,,,,,,,,,,,,,,,,,,,,,,,,,,,,,,,,,,,,,,,,,,,,,,,,,,,,,,,,,,,,,,,,,,,,,,,,,,,,,,,,,,,,,,,,,,,,,,,,,,,,,,,,,,,,,,,,,,
,,6169e8a8311d269013eb73c7,2024-02-18_20h12.05.395,kallum_motion_pilot,2023.2.2,Win32,59.88023952,6169e8a8311d269013eb73c7,65d2b6c8f2eece985d8e374c,65d2b8dc0b64bbe7b18e2672,0.186,0.1862,0,89,89,25,1,onethree,,,,,,,,,,,,,,,,,,,,,,,,,,,,,,,,,,,,,,,,,,,,,,,,,,,,,,,,,,,,,,,,,,,,,,,,,,,,,,,,,,,,,,,,,,,,,,,,,,,,,,,,,,,,,,,,,,,,,,,,,,,,,,,,,,,,,,,,,
,,6169e8a8311d269013eb73c7,2024-02-18_20h12.05.395,kallum_motion_pilot,2023.2.2,Win32,59.88023952,6169e8a8311d269013eb73c7,65d2b6c8f2eece985d8e374c,65d2b8dc0b64bbe7b18e2672,0.1864,0.1867,0,90,90,24,1,onetwo,,,,,,,,,,,,,,,,,,,,,,,,,,,,,,,,,,,,,,,,,,,,,,,,,,,,,,,,,,,,,,,,,,,,,,,,,,,,,,,,,,,,,,,,,,,,,,,,,,,,,,,,,,,,,,,,,,,,,,,,,,,,,,,,,,,,,,,,,
,,6169e8a8311d269013eb73c7,2024-02-18_20h12.05.395,kallum_motion_pilot,2023.2.2,Win32,59.88023952,6169e8a8311d269013eb73c7,65d2b6c8f2eece985d8e374c,65d2b8dc0b64bbe7b18e2672,0.187,0.1872,0,91,91,136,1,fivesix,,,,,,,,,,,,,,,,,,,,,,,,,,,,,,,,,,,,,,,,,,,,,,,,,,,,,,,,,,,,,,,,,,,,,,,,,,,,,,,,,,,,,,,,,,,,,,,,,,,,,,,,,,,,,,,,,,,,,,,,,,,,,,,,,,,,,,,,,
,,6169e8a8311d269013eb73c7,2024-02-18_20h12.05.395,kallum_motion_pilot,2023.2.2,Win32,59.88023952,6169e8a8311d269013eb73c7,65d2b6c8f2eece985d8e374c,65d2b8dc0b64bbe7b18e2672,0.1876,0.1878,0,92,92,98,1,sixfive,,,,,,,,,,,,,,,,,,,,,,,,,,,,,,,,,,,,,,,,,,,,,,,,,,,,,,,,,,,,,,,,,,,,,,,,,,,,,,,,,,,,,,,,,,,,,,,,,,,,,,,,,,,,,,,,,,,,,,,,,,,,,,,,,,,,,,,,,
,,6169e8a8311d269013eb73c7,2024-02-18_20h12.05.395,kallum_motion_pilot,2023.2.2,Win32,59.88023952,6169e8a8311d269013eb73c7,65d2b6c8f2eece985d8e374c,65d2b8dc0b64bbe7b18e2672,0.1881,0.1883,0,93,93,39,1,fourthree,,,,,,,,,,,,,,,,,,,,,,,,,,,,,,,,,,,,,,,,,,,,,,,,,,,,,,,,,,,,,,,,,,,,,,,,,,,,,,,,,,,,,,,,,,,,,,,,,,,,,,,,,,,,,,,,,,,,,,,,,,,,,,,,,,,,,,,,,
,,6169e8a8311d269013eb73c7,2024-02-18_20h12.05.395,kallum_motion_pilot,2023.2.2,Win32,59.88023952,6169e8a8311d269013eb73c7,65d2b6c8f2eece985d8e374c,65d2b8dc0b64bbe7b18e2672,0.1887,0.1889,0,94,94,158,1,eightsix,,,,,,,,,,,,,,,,,,,,,,,,,,,,,,,,,,,,,,,,,,,,,,,,,,,,,,,,,,,,,,,,,,,,,,,,,,,,,,,,,,,,,,,,,,,,,,,,,,,,,,,,,,,,,,,,,,,,,,,,,,,,,,,,,,,,,,,,,
,,6169e8a8311d269013eb73c7,2024-02-18_20h12.05.395,kallum_motion_pilot,2023.2.2,Win32,59.88023952,6169e8a8311d269013eb73c7,65d2b6c8f2eece985d8e374c,65d2b8dc0b64bbe7b18e2672,0.1894,0.1895,0,95,95,81,1,fiveseven,,,,,,,,,,,,,,,,,,,,,,,,,,,,,,,,,,,,,,,,,,,,,,,,,,,,,,,,,,,,,,,,,,,,,,,,,,,,,,,,,,,,,,,,,,,,,,,,,,,,,,,,,,,,,,,,,,,,,,,,,,,,,,,,,,,,,,,,,
,,6169e8a8311d269013eb73c7,2024-02-18_20h12.05.395,kallum_motion_pilot,2023.2.2,Win32,59.88023952,6169e8a8311d269013eb73c7,65d2b6c8f2eece985d8e374c,65d2b8dc0b64bbe7b18e2672,0.1901,0.1903,0,96,96,79,1,eightseven,,,,,,,,,,,,,,,,,,,,,,,,,,,,,,,,,,,,,,,,,,,,,,,,,,,,,,,,,,,,,,,,,,,,,,,,,,,,,,,,,,,,,,,,,,,,,,,,,,,,,,,,,,,,,,,,,,,,,,,,,,,,,,,,,,,,,,,,,
,,6169e8a8311d269013eb73c7,2024-02-18_20h12.05.395,kallum_motion_pilot,2023.2.2,Win32,59.88023952,6169e8a8311d269013eb73c7,65d2b6c8f2eece985d8e374c,65d2b8dc0b64bbe7b18e2672,0.1911,0.1914,0,97,97,145,1,fiveseven,,,,,,,,,,,,,,,,,,,,,,,,,,,,,,,,,,,,,,,,,,,,,,,,,,,,,,,,,,,,,,,,,,,,,,,,,,,,,,,,,,,,,,,,,,,,,,,,,,,,,,,,,,,,,,,,,,,,,,,,,,,,,,,,,,,,,,,,,
,,6169e8a8311d269013eb73c7,2024-02-18_20h12.05.395,kallum_motion_pilot,2023.2.2,Win32,59.88023952,6169e8a8311d269013eb73c7,65d2b6c8f2eece985d8e374c,65d2b8dc0b64bbe7b18e2672,0.192,0.1922,0,98,98,92,1,sevenfive,,,,,,,,,,,,,,,,,,,,,,,,,,,,,,,,,,,,,,,,,,,,,,,,,,,,,,,,,,,,,,,,,,,,,,,,,,,,,,,,,,,,,,,,,,,,,,,,,,,,,,,,,,,,,,,,,,,,,,,,,,,,,,,,,,,,,,,,,
,,6169e8a8311d269013eb73c7,2024-02-18_20h12.05.395,kallum_motion_pilot,2023.2.2,Win32,59.88023952,6169e8a8311d269013eb73c7,65d2b6c8f2eece985d8e374c,65d2b8dc0b64bbe7b18e2672,0.1928,0.193,0,99,99,65,1,onethree,,,,,,,,,,,,,,,,,,,,,,,,,,,,,,,,,,,,,,,,,,,,,,,,,,,,,,,,,,,,,,,,,,,,,,,,,,,,,,,,,,,,,,,,,,,,,,,,,,,,,,,,,,,,,,,,,,,,,,,,,,,,,,,,,,,,,,,,,
,,6169e8a8311d269013eb73c7,2024-02-18_20h12.05.395,kallum_motion_pilot,2023.2.2,Win32,59.88023952,6169e8a8311d269013eb73c7,65d2b6c8f2eece985d8e374c,65d2b8dc0b64bbe7b18e2672,0.1935,0.1937,0,100,100,31,1,fourthree,,,,,,,,,,,,,,,,,,,,,,,,,,,,,,,,,,,,,,,,,,,,,,,,,,,,,,,,,,,,,,,,,,,,,,,,,,,,,,,,,,,,,,,,,,,,,,,,,,,,,,,,,,,,,,,,,,,,,,,,,,,,,,,,,,,,,,,,,
,,6169e8a8311d269013eb73c7,2024-02-18_20h12.05.395,kallum_motion_pilot,2023.2.2,Win32,59.88023952,6169e8a8311d269013eb73c7,65d2b6c8f2eece985d8e374c,65d2b8dc0b64bbe7b18e2672,0.1941,0.1943,0,101,101,23,1,fourthree,,,,,,,,,,,,,,,,,,,,,,,,,,,,,,,,,,,,,,,,,,,,,,,,,,,,,,,,,,,,,,,,,,,,,,,,,,,,,,,,,,,,,,,,,,,,,,,,,,,,,,,,,,,,,,,,,,,,,,,,,,,,,,,,,,,,,,,,,
,,6169e8a8311d269013eb73c7,2024-02-18_20h12.05.395,kallum_motion_pilot,2023.2.2,Win32,59.88023952,6169e8a8311d269013eb73c7,65d2b6c8f2eece985d8e374c,65d2b8dc0b64bbe7b18e2672,0.1947,0.1949,0,102,102,133,1,seveneight,,,,,,,,,,,,,,,,,,,,,,,,,,,,,,,,,,,,,,,,,,,,,,,,,,,,,,,,,,,,,,,,,,,,,,,,,,,,,,,,,,,,,,,,,,,,,,,,,,,,,,,,,,,,,,,,,,,,,,,,,,,,,,,,,,,,,,,,,
,,6169e8a8311d269013eb73c7,2024-02-18_20h12.05.395,kallum_motion_pilot,2023.2.2,Win32,59.88023952,6169e8a8311d269013eb73c7,65d2b6c8f2eece985d8e374c,65d2b8dc0b64bbe7b18e2672,0.1954,0.1955,0,103,103,29,1,threefour,,,,,,,,,,,,,,,,,,,,,,,,,,,,,,,,,,,,,,,,,,,,,,,,,,,,,,,,,,,,,,,,,,,,,,,,,,,,,,,,,,,,,,,,,,,,,,,,,,,,,,,,,,,,,,,,,,,,,,,,,,,,,,,,,,,,,,,,,
,,6169e8a8311d269013eb73c7,2024-02-18_20h12.05.395,kallum_motion_pilot,2023.2.2,Win32,59.88023952,6169e8a8311d269013eb73c7,65d2b6c8f2eece985d8e374c,65d2b8dc0b64bbe7b18e2672,0.1961,0.1962,0,104,104,155,1,sixeight,,,,,,,,,,,,,,,,,,,,,,,,,,,,,,,,,,,,,,,,,,,,,,,,,,,,,,,,,,,,,,,,,,,,,,,,,,,,,,,,,,,,,,,,,,,,,,,,,,,,,,,,,,,,,,,,,,,,,,,,,,,,,,,,,,,,,,,,,
,,6169e8a8311d269013eb73c7,2024-02-18_20h12.05.395,kallum_motion_pilot,2023.2.2,Win32,59.88023952,6169e8a8311d269013eb73c7,65d2b6c8f2eece985d8e374c,65d2b8dc0b64bbe7b18e2672,0.1967,0.1968,0,105,105,8,1,onetwo,,,,,,,,,,,,,,,,,,,,,,,,,,,,,,,,,,,,,,,,,,,,,,,,,,,,,,,,,,,,,,,,,,,,,,,,,,,,,,,,,,,,,,,,,,,,,,,,,,,,,,,,,,,,,,,,,,,,,,,,,,,,,,,,,,,,,,,,,
,,6169e8a8311d269013eb73c7,2024-02-18_20h12.05.395,kallum_motion_pilot,2023.2.2,Win32,59.88023952,6169e8a8311d269013eb73c7,65d2b6c8f2eece985d8e374c,65d2b8dc0b64bbe7b18e2672,0.1974,0.1975,0,106,106,48,1,onetwo,,,,,,,,,,,,,,,,,,,,,,,,,,,,,,,,,,,,,,,,,,,,,,,,,,,,,,,,,,,,,,,,,,,,,,,,,,,,,,,,,,,,,,,,,,,,,,,,,,,,,,,,,,,,,,,,,,,,,,,,,,,,,,,,,,,,,,,,,
,,6169e8a8311d269013eb73c7,2024-02-18_20h12.05.395,kallum_motion_pilot,2023.2.2,Win32,59.88023952,6169e8a8311d269013eb73c7,65d2b6c8f2eece985d8e374c,65d2b8dc0b64bbe7b18e2672,0.1979,0.1982,0,107,107,36,1,threeone,,,,,,,,,,,,,,,,,,,,,,,,,,,,,,,,,,,,,,,,,,,,,,,,,,,,,,,,,,,,,,,,,,,,,,,,,,,,,,,,,,,,,,,,,,,,,,,,,,,,,,,,,,,,,,,,,,,,,,,,,,,,,,,,,,,,,,,,,
,,6169e8a8311d269013eb73c7,2024-02-18_20h12.05.395,kallum_motion_pilot,2023.2.2,Win32,59.88023952,6169e8a8311d269013eb73c7,65d2b6c8f2eece985d8e374c,65d2b8dc0b64bbe7b18e2672,0.1986,0.1988,0,108,108,34,1,twoone,,,,,,,,,,,,,,,,,,,,,,,,,,,,,,,,,,,,,,,,,,,,,,,,,,,,,,,,,,,,,,,,,,,,,,,,,,,,,,,,,,,,,,,,,,,,,,,,,,,,,,,,,,,,,,,,,,,,,,,,,,,,,,,,,,,,,,,,,
,,6169e8a8311d269013eb73c7,2024-02-18_20h12.05.395,kallum_motion_pilot,2023.2.2,Win32,59.88023952,6169e8a8311d269013eb73c7,65d2b6c8f2eece985d8e374c,65d2b8dc0b64bbe7b18e2672,0.1993,0.1994,0,109,109,139,1,sixeight,,,,,,,,,,,,,,,,,,,,,,,,,,,,,,,,,,,,,,,,,,,,,,,,,,,,,,,,,,,,,,,,,,,,,,,,,,,,,,,,,,,,,,,,,,,,,,,,,,,,,,,,,,,,,,,,,,,,,,,,,,,,,,,,,,,,,,,,,
,,6169e8a8311d269013eb73c7,2024-02-18_20h12.05.395,kallum_motion_pilot,2023.2.2,Win32,59.88023952,6169e8a8311d269013eb73c7,65d2b6c8f2eece985d8e374c,65d2b8dc0b64bbe7b18e2672,0.1998,0.2,0,110,110,27,1,twofour,,,,,,,,,,,,,,,,,,,,,,,,,,,,,,,,,,,,,,,,,,,,,,,,,,,,,,,,,,,,,,,,,,,,,,,,,,,,,,,,,,,,,,,,,,,,,,,,,,,,,,,,,,,,,,,,,,,,,,,,,,,,,,,,,,,,,,,,,
,,6169e8a8311d269013eb73c7,2024-02-18_20h12.05.395,kallum_motion_pilot,2023.2.2,Win32,59.88023952,6169e8a8311d269013eb73c7,65d2b6c8f2eece985d8e374c,65d2b8dc0b64bbe7b18e2672,0.2005,0.2007,0,111,111,149,1,seveneight,,,,,,,,,,,,,,,,,,,,,,,,,,,,,,,,,,,,,,,,,,,,,,,,,,,,,,,,,,,,,,,,,,,,,,,,,,,,,,,,,,,,,,,,,,,,,,,,,,,,,,,,,,,,,,,,,,,,,,,,,,,,,,,,,,,,,,,,,
,,6169e8a8311d269013eb73c7,2024-02-18_20h12.05.395,kallum_motion_pilot,2023.2.2,Win32,59.88023952,6169e8a8311d269013eb73c7,65d2b6c8f2eece985d8e374c,65d2b8dc0b64bbe7b18e2672,0.2012,0.2014,0,112,112,15,1,fourthree,,,,,,,,,,,,,,,,,,,,,,,,,,,,,,,,,,,,,,,,,,,,,,,,,,,,,,,,,,,,,,,,,,,,,,,,,,,,,,,,,,,,,,,,,,,,,,,,,,,,,,,,,,,,,,,,,,,,,,,,,,,,,,,,,,,,,,,,,
,,6169e8a8311d269013eb73c7,2024-02-18_20h12.05.395,kallum_motion_pilot,2023.2.2,Win32,59.88023952,6169e8a8311d269013eb73c7,65d2b6c8f2eece985d8e374c,65d2b8dc0b64bbe7b18e2672,0.2018,0.202,0,113,113,117,1,seveneight,,,,,,,,,,,,,,,,,,,,,,,,,,,,,,,,,,,,,,,,,,,,,,,,,,,,,,,,,,,,,,,,,,,,,,,,,,,,,,,,,,,,,,,,,,,,,,,,,,,,,,,,,,,,,,,,,,,,,,,,,,,,,,,,,,,,,,,,,
,,6169e8a8311d269013eb73c7,2024-02-18_20h12.05.395,kallum_motion_pilot,2023.2.2,Win32,59.88023952,6169e8a8311d269013eb73c7,65d2b6c8f2eece985d8e374c,65d2b8dc0b64bbe7b18e2672,0.2024,0.2025,0,114,114,26,1,twoone,,,,,,,,,,,,,,,,,,,,,,,,,,,,,,,,,,,,,,,,,,,,,,,,,,,,,,,,,,,,,,,,,,,,,,,,,,,,,,,,,,,,,,,,,,,,,,,,,,,,,,,,,,,,,,,,,,,,,,,,,,,,,,,,,,,,,,,,,
,,6169e8a8311d269013eb73c7,2024-02-18_20h12.05.395,kallum_motion_pilot,2023.2.2,Win32,59.88023952,6169e8a8311d269013eb73c7,65d2b6c8f2eece985d8e374c,65d2b8dc0b64bbe7b18e2672,0.203,0.2033,0,115,115,89,1,fiveseven,,,,,,,,,,,,,,,,,,,,,,,,,,,,,,,,,,,,,,,,,,,,,,,,,,,,,,,,,,,,,,,,,,,,,,,,,,,,,,,,,,,,,,,,,,,,,,,,,,,,,,,,,,,,,,,,,,,,,,,,,,,,,,,,,,,,,,,,,
,,6169e8a8311d269013eb73c7,2024-02-18_20h12.05.395,kallum_motion_pilot,2023.2.2,Win32,59.88023952,6169e8a8311d269013eb73c7,65d2b6c8f2eece985d8e374c,65d2b8dc0b64bbe7b18e2672,0.2038,0.2039,0,116,116,93,1,seveneight,,,,,,,,,,,,,,,,,,,,,,,,,,,,,,,,,,,,,,,,,,,,,,,,,,,,,,,,,,,,,,,,,,,,,,,,,,,,,,,,,,,,,,,,,,,,,,,,,,,,,,,,,,,,,,,,,,,,,,,,,,,,,,,,,,,,,,,,,
,,6169e8a8311d269013eb73c7,2024-02-18_20h12.05.395,kallum_motion_pilot,2023.2.2,Win32,59.88023952,6169e8a8311d269013eb73c7,65d2b6c8f2eece985d8e374c,65d2b8dc0b64bbe7b18e2672,0.2044,0.2046,0,117,117,156,1,sevenfive,,,,,,,,,,,,,,,,,,,,,,,,,,,,,,,,,,,,,,,,,,,,,,,,,,,,,,,,,,,,,,,,,,,,,,,,,,,,,,,,,,,,,,,,,,,,,,,,,,,,,,,,,,,,,,,,,,,,,,,,,,,,,,,,,,,,,,,,,
,,6169e8a8311d269013eb73c7,2024-02-18_20h12.05.395,kallum_motion_pilot,2023.2.2,Win32,59.88023952,6169e8a8311d269013eb73c7,65d2b6c8f2eece985d8e374c,65d2b8dc0b64bbe7b18e2672,0.205,0.2053,0,118,118,33,1,onethree,,,,,,,,,,,,,,,,,,,,,,,,,,,,,,,,,,,,,,,,,,,,,,,,,,,,,,,,,,,,,,,,,,,,,,,,,,,,,,,,,,,,,,,,,,,,,,,,,,,,,,,,,,,,,,,,,,,,,,,,,,,,,,,,,,,,,,,,,
,,6169e8a8311d269013eb73c7,2024-02-18_20h12.05.395,kallum_motion_pilot,2023.2.2,Win32,59.88023952,6169e8a8311d269013eb73c7,65d2b6c8f2eece985d8e374c,65d2b8dc0b64bbe7b18e2672,0.2058,0.206,0,119,119,44,1,threeone,,,,,,,,,,,,,,,,,,,,,,,,,,,,,,,,,,,,,,,,,,,,,,,,,,,,,,,,,,,,,,,,,,,,,,,,,,,,,,,,,,,,,,,,,,,,,,,,,,,,,,,,,,,,,,,,,,,,,,,,,,,,,,,,,,,,,,,,,
,,6169e8a8311d269013eb73c7,2024-02-18_20h12.05.395,kallum_motion_pilot,2023.2.2,Win32,59.88023952,6169e8a8311d269013eb73c7,65d2b6c8f2eece985d8e374c,65d2b8dc0b64bbe7b18e2672,0.2065,0.2066,0,120,120,91,1,sixeight,,,,,,,,,,,,,,,,,,,,,,,,,,,,,,,,,,,,,,,,,,,,,,,,,,,,,,,,,,,,,,,,,,,,,,,,,,,,,,,,,,,,,,,,,,,,,,,,,,,,,,,,,,,,,,,,,,,,,,,,,,,,,,,,,,,,,,,,,
,,6169e8a8311d269013eb73c7,2024-02-18_20h12.05.395,kallum_motion_pilot,2023.2.2,Win32,59.88023952,6169e8a8311d269013eb73c7,65d2b6c8f2eece985d8e374c,65d2b8dc0b64bbe7b18e2672,0.2069,0.2074,0,121,121,3,1,twofour,,,,,,,,,,,,,,,,,,,,,,,,,,,,,,,,,,,,,,,,,,,,,,,,,,,,,,,,,,,,,,,,,,,,,,,,,,,,,,,,,,,,,,,,,,,,,,,,,,,,,,,,,,,,,,,,,,,,,,,,,,,,,,,,,,,,,,,,,
,,6169e8a8311d269013eb73c7,2024-02-18_20h12.05.395,kallum_motion_pilot,2023.2.2,Win32,59.88023952,6169e8a8311d269013eb73c7,65d2b6c8f2eece985d8e374c,65d2b8dc0b64bbe7b18e2672,0.208,0.2082,0,122,122,66,1,twoone,,,,,,,,,,,,,,,,,,,,,,,,,,,,,,,,,,,,,,,,,,,,,,,,,,,,,,,,,,,,,,,,,,,,,,,,,,,,,,,,,,,,,,,,,,,,,,,,,,,,,,,,,,,,,,,,,,,,,,,,,,,,,,,,,,,,,,,,,
,,6169e8a8311d269013eb73c7,2024-02-18_20h12.05.395,kallum_motion_pilot,2023.2.2,Win32,59.88023952,6169e8a8311d269013eb73c7,65d2b6c8f2eece985d8e374c,65d2b8dc0b64bbe7b18e2672,0.2086,0.2088,0,123,123,35,1,twofour,,,,,,,,,,,,,,,,,,,,,,,,,,,,,,,,,,,,,,,,,,,,,,,,,,,,,,,,,,,,,,,,,,,,,,,,,,,,,,,,,,,,,,,,,,,,,,,,,,,,,,,,,,,,,,,,,,,,,,,,,,,,,,,,,,,,,,,,,
,,6169e8a8311d269013eb73c7,2024-02-18_20h12.05.395,kallum_motion_pilot,2023.2.2,Win32,59.88023952,6169e8a8311d269013eb73c7,65d2b6c8f2eece985d8e374c,65d2b8dc0b64bbe7b18e2672,0.2094,0.2097,0,124,124,21,1,threefour,,,,,,,,,,,,,,,,,,,,,,,,,,,,,,,,,,,,,,,,,,,,,,,,,,,,,,,,,,,,,,,,,,,,,,,,,,,,,,,,,,,,,,,,,,,,,,,,,,,,,,,,,,,,,,,,,,,,,,,,,,,,,,,,,,,,,,,,,
,,6169e8a8311d269013eb73c7,2024-02-18_20h12.05.395,kallum_motion_pilot,2023.2.2,Win32,59.88023952,6169e8a8311d269013eb73c7,65d2b6c8f2eece985d8e374c,65d2b8dc0b64bbe7b18e2672,0.2102,0.2106,0,125,125,99,1,sixeight,,,,,,,,,,,,,,,,,,,,,,,,,,,,,,,,,,,,,,,,,,,,,,,,,,,,,,,,,,,,,,,,,,,,,,,,,,,,,,,,,,,,,,,,,,,,,,,,,,,,,,,,,,,,,,,,,,,,,,,,,,,,,,,,,,,,,,,,,
,,6169e8a8311d269013eb73c7,2024-02-18_20h12.05.395,kallum_motion_pilot,2023.2.2,Win32,59.88023952,6169e8a8311d269013eb73c7,65d2b6c8f2eece985d8e374c,65d2b8dc0b64bbe7b18e2672,0.2112,0.2114,0,126,126,150,1,eightsix,,,,,,,,,,,,,,,,,,,,,,,,,,,,,,,,,,,,,,,,,,,,,,,,,,,,,,,,,,,,,,,,,,,,,,,,,,,,,,,,,,,,,,,,,,,,,,,,,,,,,,,,,,,,,,,,,,,,,,,,,,,,,,,,,,,,,,,,,
,,6169e8a8311d269013eb73c7,2024-02-18_20h12.05.395,kallum_motion_pilot,2023.2.2,Win32,59.88023952,6169e8a8311d269013eb73c7,65d2b6c8f2eece985d8e374c,65d2b8dc0b64bbe7b18e2672,0.2121,0.2123,0,127,127,152,1,fivesix,,,,,,,,,,,,,,,,,,,,,,,,,,,,,,,,,,,,,,,,,,,,,,,,,,,,,,,,,,,,,,,,,,,,,,,,,,,,,,,,,,,,,,,,,,,,,,,,,,,,,,,,,,,,,,,,,,,,,,,,,,,,,,,,,,,,,,,,,
,,6169e8a8311d269013eb73c7,2024-02-18_20h12.05.395,kallum_motion_pilot,2023.2.2,Win32,59.88023952,6169e8a8311d269013eb73c7,65d2b6c8f2eece985d8e374c,65d2b8dc0b64bbe7b18e2672,0.2128,0.213,0,128,128,100,1,sevenfive,,,,,,,,,,,,,,,,,,,,,,,,,,,,,,,,,,,,,,,,,,,,,,,,,,,,,,,,,,,,,,,,,,,,,,,,,,,,,,,,,,,,,,,,,,,,,,,,,,,,,,,,,,,,,,,,,,,,,,,,,,,,,,,,,,,,,,,,,
,,6169e8a8311d269013eb73c7,2024-02-18_20h12.05.395,kallum_motion_pilot,2023.2.2,Win32,59.88023952,6169e8a8311d269013eb73c7,65d2b6c8f2eece985d8e374c,65d2b8dc0b64bbe7b18e2672,0.2134,0.2137,0,129,129,47,1,fourthree,,,,,,,,,,,,,,,,,,,,,,,,,,,,,,,,,,,,,,,,,,,,,,,,,,,,,,,,,,,,,,,,,,,,,,,,,,,,,,,,,,,,,,,,,,,,,,,,,,,,,,,,,,,,,,,,,,,,,,,,,,,,,,,,,,,,,,,,,
,,6169e8a8311d269013eb73c7,2024-02-18_20h12.05.395,kallum_motion_pilot,2023.2.2,Win32,59.88023952,6169e8a8311d269013eb73c7,65d2b6c8f2eece985d8e374c,65d2b8dc0b64bbe7b18e2672,0.2142,0.2143,0,130,130,76,1,threeone,,,,,,,,,,,,,,,,,,,,,,,,,,,,,,,,,,,,,,,,,,,,,,,,,,,,,,,,,,,,,,,,,,,,,,,,,,,,,,,,,,,,,,,,,,,,,,,,,,,,,,,,,,,,,,,,,,,,,,,,,,,,,,,,,,,,,,,,,
,,6169e8a8311d269013eb73c7,2024-02-18_20h12.05.395,kallum_motion_pilot,2023.2.2,Win32,59.88023952,6169e8a8311d269013eb73c7,65d2b6c8f2eece985d8e374c,65d2b8dc0b64bbe7b18e2672,0.2148,0.215,0,131,131,30,1,fourtwo,,,,,,,,,,,,,,,,,,,,,,,,,,,,,,,,,,,,,,,,,,,,,,,,,,,,,,,,,,,,,,,,,,,,,,,,,,,,,,,,,,,,,,,,,,,,,,,,,,,,,,,,,,,,,,,,,,,,,,,,,,,,,,,,,,,,,,,,,
,,6169e8a8311d269013eb73c7,2024-02-18_20h12.05.395,kallum_motion_pilot,2023.2.2,Win32,59.88023952,6169e8a8311d269013eb73c7,65d2b6c8f2eece985d8e374c,65d2b8dc0b64bbe7b18e2672,0.2154,0.2157,0,132,132,118,1,eightsix,,,,,,,,,,,,,,,,,,,,,,,,,,,,,,,,,,,,,,,,,,,,,,,,,,,,,,,,,,,,,,,,,,,,,,,,,,,,,,,,,,,,,,,,,,,,,,,,,,,,,,,,,,,,,,,,,,,,,,,,,,,,,,,,,,,,,,,,,
,,6169e8a8311d269013eb73c7,2024-02-18_20h12.05.395,kallum_motion_pilot,2023.2.2,Win32,59.88023952,6169e8a8311d269013eb73c7,65d2b6c8f2eece985d8e374c,65d2b8dc0b64bbe7b18e2672,0.2161,0.2163,0,133,133,123,1,sixeight,,,,,,,,,,,,,,,,,,,,,,,,,,,,,,,,,,,,,,,,,,,,,,,,,,,,,,,,,,,,,,,,,,,,,,,,,,,,,,,,,,,,,,,,,,,,,,,,,,,,,,,,,,,,,,,,,,,,,,,,,,,,,,,,,,,,,,,,,
,,6169e8a8311d269013eb73c7,2024-02-18_20h12.05.395,kallum_motion_pilot,2023.2.2,Win32,59.88023952,6169e8a8311d269013eb73c7,65d2b6c8f2eece985d8e374c,65d2b8dc0b64bbe7b18e2672,0.2167,0.217,0,134,134,38,1,fourtwo,,,,,,,,,,,,,,,,,,,,,,,,,,,,,,,,,,,,,,,,,,,,,,,,,,,,,,,,,,,,,,,,,,,,,,,,,,,,,,,,,,,,,,,,,,,,,,,,,,,,,,,,,,,,,,,,,,,,,,,,,,,,,,,,,,,,,,,,,
,,6169e8a8311d269013eb73c7,2024-02-18_20h12.05.395,kallum_motion_pilot,2023.2.2,Win32,59.88023952,6169e8a8311d269013eb73c7,65d2b6c8f2eece985d8e374c,65d2b8dc0b64bbe7b18e2672,0.2173,0.2176,0,135,135,19,1,twofour,,,,,,,,,,,,,,,,,,,,,,,,,,,,,,,,,,,,,,,,,,,,,,,,,,,,,,,,,,,,,,,,,,,,,,,,,,,,,,,,,,,,,,,,,,,,,,,,,,,,,,,,,,,,,,,,,,,,,,,,,,,,,,,,,,,,,,,,,
,,6169e8a8311d269013eb73c7,2024-02-18_20h12.05.395,kallum_motion_pilot,2023.2.2,Win32,59.88023952,6169e8a8311d269013eb73c7,65d2b6c8f2eece985d8e374c,65d2b8dc0b64bbe7b18e2672,0.2181,0.2183,0,136,136,113,1,fiveseven,,,,,,,,,,,,,,,,,,,,,,,,,,,,,,,,,,,,,,,,,,,,,,,,,,,,,,,,,,,,,,,,,,,,,,,,,,,,,,,,,,,,,,,,,,,,,,,,,,,,,,,,,,,,,,,,,,,,,,,,,,,,,,,,,,,,,,,,,
,,6169e8a8311d269013eb73c7,2024-02-18_20h12.05.395,kallum_motion_pilot,2023.2.2,Win32,59.88023952,6169e8a8311d269013eb73c7,65d2b6c8f2eece985d8e374c,65d2b8dc0b64bbe7b18e2672,0.219,0.2192,0,137,137,68,1,threeone,,,,,,,,,,,,,,,,,,,,,,,,,,,,,,,,,,,,,,,,,,,,,,,,,,,,,,,,,,,,,,,,,,,,,,,,,,,,,,,,,,,,,,,,,,,,,,,,,,,,,,,,,,,,,,,,,,,,,,,,,,,,,,,,,,,,,,,,,
,,6169e8a8311d269013eb73c7,2024-02-18_20h12.05.395,kallum_motion_pilot,2023.2.2,Win32,59.88023952,6169e8a8311d269013eb73c7,65d2b6c8f2eece985d8e374c,65d2b8dc0b64bbe7b18e2672,0.2197,0.22,0,138,138,55,1,fourthree,,,,,,,,,,,,,,,,,,,,,,,,,,,,,,,,,,,,,,,,,,,,,,,,,,,,,,,,,,,,,,,,,,,,,,,,,,,,,,,,,,,,,,,,,,,,,,,,,,,,,,,,,,,,,,,,,,,,,,,,,,,,,,,,,,,,,,,,,
,,6169e8a8311d269013eb73c7,2024-02-18_20h12.05.395,kallum_motion_pilot,2023.2.2,Win32,59.88023952,6169e8a8311d269013eb73c7,65d2b6c8f2eece985d8e374c,65d2b8dc0b64bbe7b18e2672,0.2205,0.2207,0,139,139,151,1,eightseven,,,,,,,,,,,,,,,,,,,,,,,,,,,,,,,,,,,,,,,,,,,,,,,,,,,,,,,,,,,,,,,,,,,,,,,,,,,,,,,,,,,,,,,,,,,,,,,,,,,,,,,,,,,,,,,,,,,,,,,,,,,,,,,,,,,,,,,,,
,,6169e8a8311d269013eb73c7,2024-02-18_20h12.05.395,kallum_motion_pilot,2023.2.2,Win32,59.88023952,6169e8a8311d269013eb73c7,65d2b6c8f2eece985d8e374c,65d2b8dc0b64bbe7b18e2672,0.2218,0.2237,0,140,140,32,1,onetwo,,,,,,,,,,,,,,,,,,,,,,,,,,,,,,,,,,,,,,,,,,,,,,,,,,,,,,,,,,,,,,,,,,,,,,,,,,,,,,,,,,,,,,,,,,,,,,,,,,,,,,,,,,,,,,,,,,,,,,,,,,,,,,,,,,,,,,,,,
,,6169e8a8311d269013eb73c7,2024-02-18_20h12.05.395,kallum_motion_pilot,2023.2.2,Win32,59.88023952,6169e8a8311d269013eb73c7,65d2b6c8f2eece985d8e374c,65d2b8dc0b64bbe7b18e2672,0.2251,0.2258,0,141,141,57,1,onethree,,,,,,,,,,,,,,,,,,,,,,,,,,,,,,,,,,,,,,,,,,,,,,,,,,,,,,,,,,,,,,,,,,,,,,,,,,,,,,,,,,,,,,,,,,,,,,,,,,,,,,,,,,,,,,,,,,,,,,,,,,,,,,,,,,,,,,,,,
,,6169e8a8311d269013eb73c7,2024-02-18_20h12.05.395,kallum_motion_pilot,2023.2.2,Win32,59.88023952,6169e8a8311d269013eb73c7,65d2b6c8f2eece985d8e374c,65d2b8dc0b64bbe7b18e2672,0.2264,0.2271,0,142,142,16,1,onetwo,,,,,,,,,,,,,,,,,,,,,,,,,,,,,,,,,,,,,,,,,,,,,,,,,,,,,,,,,,,,,,,,,,,,,,,,,,,,,,,,,,,,,,,,,,,,,,,,,,,,,,,,,,,,,,,,,,,,,,,,,,,,,,,,,,,,,,,,,
,,6169e8a8311d269013eb73c7,2024-02-18_20h12.05.395,kallum_motion_pilot,2023.2.2,Win32,59.88023952,6169e8a8311d269013eb73c7,65d2b6c8f2eece985d8e374c,65d2b8dc0b64bbe7b18e2672,0.2277,0.2283,0,143,143,74,1,twoone,,,,,,,,,,,,,,,,,,,,,,,,,,,,,,,,,,,,,,,,,,,,,,,,,,,,,,,,,,,,,,,,,,,,,,,,,,,,,,,,,,,,,,,,,,,,,,,,,,,,,,,,,,,,,,,,,,,,,,,,,,,,,,,,,,,,,,,,,
,,6169e8a8311d269013eb73c7,2024-02-18_20h12.05.395,kallum_motion_pilot,2023.2.2,Win32,59.88023952,6169e8a8311d269013eb73c7,65d2b6c8f2eece985d8e374c,65d2b8dc0b64bbe7b18e2672,0.2289,0.2293,0,144,144,106,1,sixfive,,,,,,,,,,,,,,,,,,,,,,,,,,,,,,,,,,,,,,,,,,,,,,,,,,,,,,,,,,,,,,,,,,,,,,,,,,,,,,,,,,,,,,,,,,,,,,,,,,,,,,,,,,,,,,,,,,,,,,,,,,,,,,,,,,,,,,,,,
,,6169e8a8311d269013eb73c7,2024-02-18_20h12.05.395,kallum_motion_pilot,2023.2.2,Win32,59.88023952,6169e8a8311d269013eb73c7,65d2b6c8f2eece985d8e374c,65d2b8dc0b64bbe7b18e2672,0.2302,0.2314,0,145,145,11,1,twofour,,,,,,,,,,,,,,,,,,,,,,,,,,,,,,,,,,,,,,,,,,,,,,,,,,,,,,,,,,,,,,,,,,,,,,,,,,,,,,,,,,,,,,,,,,,,,,,,,,,,,,,,,,,,,,,,,,,,,,,,,,,,,,,,,,,,,,,,,
,,6169e8a8311d269013eb73c7,2024-02-18_20h12.05.395,kallum_motion_pilot,2023.2.2,Win32,59.88023952,6169e8a8311d269013eb73c7,65d2b6c8f2eece985d8e374c,65d2b8dc0b64bbe7b18e2672,0.2322,0.2329,0,146,146,13,1,threefour,,,,,,,,,,,,,,,,,,,,,,,,,,,,,,,,,,,,,,,,,,,,,,,,,,,,,,,,,,,,,,,,,,,,,,,,,,,,,,,,,,,,,,,,,,,,,,,,,,,,,,,,,,,,,,,,,,,,,,,,,,,,,,,,,,,,,,,,,
,,6169e8a8311d269013eb73c7,2024-02-18_20h12.05.395,kallum_motion_pilot,2023.2.2,Win32,59.88023952,6169e8a8311d269013eb73c7,65d2b6c8f2eece985d8e374c,65d2b8dc0b64bbe7b18e2672,0.2337,0.2339,0,147,147,41,1,onethree,,,,,,,,,,,,,,,,,,,,,,,,,,,,,,,,,,,,,,,,,,,,,,,,,,,,,,,,,,,,,,,,,,,,,,,,,,,,,,,,,,,,,,,,,,,,,,,,,,,,,,,,,,,,,,,,,,,,,,,,,,,,,,,,,,,,,,,,,
,,6169e8a8311d269013eb73c7,2024-02-18_20h12.05.395,kallum_motion_pilot,2023.2.2,Win32,59.88023952,6169e8a8311d269013eb73c7,65d2b6c8f2eece985d8e374c,65d2b8dc0b64bbe7b18e2672,0.2346,0.2348,0,148,148,120,1,fivesix,,,,,,,,,,,,,,,,,,,,,,,,,,,,,,,,,,,,,,,,,,,,,,,,,,,,,,,,,,,,,,,,,,,,,,,,,,,,,,,,,,,,,,,,,,,,,,,,,,,,,,,,,,,,,,,,,,,,,,,,,,,,,,,,,,,,,,,,,
,,6169e8a8311d269013eb73c7,2024-02-18_20h12.05.395,kallum_motion_pilot,2023.2.2,Win32,59.88023952,6169e8a8311d269013eb73c7,65d2b6c8f2eece985d8e374c,65d2b8dc0b64bbe7b18e2672,0.2354,0.2358,0,149,149,58,1,twoone,,,,,,,,,,,,,,,,,,,,,,,,,,,,,,,,,,,,,,,,,,,,,,,,,,,,,,,,,,,,,,,,,,,,,,,,,,,,,,,,,,,,,,,,,,,,,,,,,,,,,,,,,,,,,,,,,,,,,,,,,,,,,,,,,,,,,,,,,
,,6169e8a8311d269013eb73c7,2024-02-18_20h12.05.395,kallum_motion_pilot,2023.2.2,Win32,59.88023952,6169e8a8311d269013eb73c7,65d2b6c8f2eece985d8e374c,65d2b8dc0b64bbe7b18e2672,0.2363,0.2367,0,150,150,157,1,seveneight,,,,,,,,,,,,,,,,,,,,,,,,,,,,,,,,,,,,,,,,,,,,,,,,,,,,,,,,,,,,,,,,,,,,,,,,,,,,,,,,,,,,,,,,,,,,,,,,,,,,,,,,,,,,,,,,,,,,,,,,,,,,,,,,,,,,,,,,,
,,6169e8a8311d269013eb73c7,2024-02-18_20h12.05.395,kallum_motion_pilot,2023.2.2,Win32,59.88023952,6169e8a8311d269013eb73c7,65d2b6c8f2eece985d8e374c,65d2b8dc0b64bbe7b18e2672,0.2373,0.2377,0,151,151,54,1,fourtwo,,,,,,,,,,,,,,,,,,,,,,,,,,,,,,,,,,,,,,,,,,,,,,,,,,,,,,,,,,,,,,,,,,,,,,,,,,,,,,,,,,,,,,,,,,,,,,,,,,,,,,,,,,,,,,,,,,,,,,,,,,,,,,,,,,,,,,,,,
,,6169e8a8311d269013eb73c7,2024-02-18_20h12.05.395,kallum_motion_pilot,2023.2.2,Win32,59.88023952,6169e8a8311d269013eb73c7,65d2b6c8f2eece985d8e374c,65d2b8dc0b64bbe7b18e2672,0.2384,0.2387,0,152,152,75,1,twofour,,,,,,,,,,,,,,,,,,,,,,,,,,,,,,,,,,,,,,,,,,,,,,,,,,,,,,,,,,,,,,,,,,,,,,,,,,,,,,,,,,,,,,,,,,,,,,,,,,,,,,,,,,,,,,,,,,,,,,,,,,,,,,,,,,,,,,,,,
,,6169e8a8311d269013eb73c7,2024-02-18_20h12.05.395,kallum_motion_pilot,2023.2.2,Win32,59.88023952,6169e8a8311d269013eb73c7,65d2b6c8f2eece985d8e374c,65d2b8dc0b64bbe7b18e2672,0.2394,0.2399,0,153,153,161,1,fiveseven,,,,,,,,,,,,,,,,,,,,,,,,,,,,,,,,,,,,,,,,,,,,,,,,,,,,,,,,,,,,,,,,,,,,,,,,,,,,,,,,,,,,,,,,,,,,,,,,,,,,,,,,,,,,,,,,,,,,,,,,,,,,,,,,,,,,,,,,,
,,6169e8a8311d269013eb73c7,2024-02-18_20h12.05.395,kallum_motion_pilot,2023.2.2,Win32,59.88023952,6169e8a8311d269013eb73c7,65d2b6c8f2eece985d8e374c,65d2b8dc0b64bbe7b18e2672,0.2408,0.2413,0,154,154,129,1,fiveseven,,,,,,,,,,,,,,,,,,,,,,,,,,,,,,,,,,,,,,,,,,,,,,,,,,,,,,,,,,,,,,,,,,,,,,,,,,,,,,,,,,,,,,,,,,,,,,,,,,,,,,,,,,,,,,,,,,,,,,,,,,,,,,,,,,,,,,,,,
,,6169e8a8311d269013eb73c7,2024-02-18_20h12.05.395,kallum_motion_pilot,2023.2.2,Win32,59.88023952,6169e8a8311d269013eb73c7,65d2b6c8f2eece985d8e374c,65d2b8dc0b64bbe7b18e2672,0.242,0.2425,0,155,155,103,1,eightseven,,,,,,,,,,,,,,,,,,,,,,,,,,,,,,,,,,,,,,,,,,,,,,,,,,,,,,,,,,,,,,,,,,,,,,,,,,,,,,,,,,,,,,,,,,,,,,,,,,,,,,,,,,,,,,,,,,,,,,,,,,,,,,,,,,,,,,,,,
,,6169e8a8311d269013eb73c7,2024-02-18_20h12.05.395,kallum_motion_pilot,2023.2.2,Win32,59.88023952,6169e8a8311d269013eb73c7,65d2b6c8f2eece985d8e374c,65d2b8dc0b64bbe7b18e2672,0.2433,0.2436,0,156,156,45,1,threefour,,,,,,,,,,,,,,,,,,,,,,,,,,,,,,,,,,,,,,,,,,,,,,,,,,,,,,,,,,,,,,,,,,,,,,,,,,,,,,,,,,,,,,,,,,,,,,,,,,,,,,,,,,,,,,,,,,,,,,,,,,,,,,,,,,,,,,,,,
,,6169e8a8311d269013eb73c7,2024-02-18_20h12.05.395,kallum_motion_pilot,2023.2.2,Win32,59.88023952,6169e8a8311d269013eb73c7,65d2b6c8f2eece985d8e374c,65d2b8dc0b64bbe7b18e2672,0.2442,0.2445,0,157,157,77,1,threefour,,,,,,,,,,,,,,,,,,,,,,,,,,,,,,,,,,,,,,,,,,,,,,,,,,,,,,,,,,,,,,,,,,,,,,,,,,,,,,,,,,,,,,,,,,,,,,,,,,,,,,,,,,,,,,,,,,,,,,,,,,,,,,,,,,,,,,,,,
,,6169e8a8311d269013eb73c7,2024-02-18_20h12.05.395,kallum_motion_pilot,2023.2.2,Win32,59.88023952,6169e8a8311d269013eb73c7,65d2b6c8f2eece985d8e374c,65d2b8dc0b64bbe7b18e2672,0.245,0.2453,0,158,158,141,1,seveneight,,,,,,,,,,,,,,,,,,,,,,,,,,,,,,,,,,,,,,,,,,,,,,,,,,,,,,,,,,,,,,,,,,,,,,,,,,,,,,,,,,,,,,,,,,,,,,,,,,,,,,,,,,,,,,,,,,,,,,,,,,,,,,,,,,,,,,,,,
,,6169e8a8311d269013eb73c7,2024-02-18_20h12.05.395,kallum_motion_pilot,2023.2.2,Win32,59.88023952,6169e8a8311d269013eb73c7,65d2b6c8f2eece985d8e374c,65d2b8dc0b64bbe7b18e2672,0.2459,0.2461,0,159,159,107,1,sixeight,,,,,,,,,,,,,,,,,,,,,,,,,,,,,,,,,,,,,,,,,,,,,,,,,,,,,,,,,,,,,,,,,,,,,,,,,,,,,,,,,,,,,,,,,,,,,,,,,,,,,,,,,,,,,,,,,,,,,,,,,,,,,,,,,,,,,,,,,
,,6169e8a8311d269013eb73c7,2024-02-18_20h12.05.395,kallum_motion_pilot,2023.2.2,Win32,59.88023952,6169e8a8311d269013eb73c7,65d2b6c8f2eece985d8e374c,65d2b8dc0b64bbe7b18e2672,0.2467,0.247,0,160,160,142,1,eightsix,,,,,,,,,,,,,,,,,,,,,,,,,,,,,,,,,,,,,,,,,,,,,,,,,,,,,,,,,,,,,,,,,,,,,,,,,,,,,,,,,,,,,,,,,,,,,,,,,,,,,,,,,,,,,,,,,,,,,,,,,,,,,,,,,,,,,,,,,
,,6169e8a8311d269013eb73c7,2024-02-18_20h12.05.395,kallum_motion_pilot,2023.2.2,Win32,59.88023952,6169e8a8311d269013eb73c7,65d2b6c8f2eece985d8e374c,65d2b8dc0b64bbe7b18e2672,0.2475,0.2478,0,161,161,115,1,sixeight,,,,,,,,,,,,,,,,,,,,,,,,,,,,,,,,,,,,,,,,,,,,,,,,,,,,,,,,,,,,,,,,,,,,,,,,,,,,,,,,,,,,,,,,,,,,,,,,,,,,,,,,,,,,,,,,,,,,,,,,,,,,,,,,,,,,,,,,,
,,6169e8a8311d269013eb73c7,2024-02-18_20h12.05.395,kallum_motion_pilot,2023.2.2,Win32,59.88023952,6169e8a8311d269013eb73c7,65d2b6c8f2eece985d8e374c,65d2b8dc0b64bbe7b18e2672,0.2485,0.2488,1,0,162,137,1,fiveseven,,,,,,,,,,,,,,,,,,,,,,,,,,,,,,,,,,,,,,,,,,,,,,,,,,,,,,,,,,,,,,,,,,,,,,,,,,,,,,,,,,,,,,,,,,,,,,,,,,,,,,,,,,,,,,,,,,,,,,,,,,,,,,,,,,,,,,,,,
,,6169e8a8311d269013eb73c7,2024-02-18_20h12.05.395,kallum_motion_pilot,2023.2.2,Win32,59.88023952,6169e8a8311d269013eb73c7,65d2b6c8f2eece985d8e374c,65d2b8dc0b64bbe7b18e2672,0.2493,0.2496,1,1,163,1,1,onethree,,,,,,,,,,,,,,,,,,,,,,,,,,,,,,,,,,,,,,,,,,,,,,,,,,,,,,,,,,,,,,,,,,,,,,,,,,,,,,,,,,,,,,,,,,,,,,,,,,,,,,,,,,,,,,,,,,,,,,,,,,,,,,,,,,,,,,,,,
,,6169e8a8311d269013eb73c7,2024-02-18_20h12.05.395,kallum_motion_pilot,2023.2.2,Win32,59.88023952,6169e8a8311d269013eb73c7,65d2b6c8f2eece985d8e374c,65d2b8dc0b64bbe7b18e2672,0.2503,0.2505,1,2,164,85,1,seveneight,,,,,,,,,,,,,,,,,,,,,,,,,,,,,,,,,,,,,,,,,,,,,,,,,,,,,,,,,,,,,,,,,,,,,,,,,,,,,,,,,,,,,,,,,,,,,,,,,,,,,,,,,,,,,,,,,,,,,,,,,,,,,,,,,,,,,,,,,
,,6169e8a8311d269013eb73c7,2024-02-18_20h12.05.395,kallum_motion_pilot,2023.2.2,Win32,59.88023952,6169e8a8311d269013eb73c7,65d2b6c8f2eece985d8e374c,65d2b8dc0b64bbe7b18e2672,0.2509,0.2513,1,3,165,5,1,threefour,,,,,,,,,,,,,,,,,,,,,,,,,,,,,,,,,,,,,,,,,,,,,,,,,,,,,,,,,,,,,,,,,,,,,,,,,,,,,,,,,,,,,,,,,,,,,,,,,,,,,,,,,,,,,,,,,,,,,,,,,,,,,,,,,,,,,,,,,
,,6169e8a8311d269013eb73c7,2024-02-18_20h12.05.395,kallum_motion_pilot,2023.2.2,Win32,59.88023952,6169e8a8311d269013eb73c7,65d2b6c8f2eece985d8e374c,65d2b8dc0b64bbe7b18e2672,0.2517,0.252,1,4,166,102,1,eightsix,,,,,,,,,,,,,,,,,,,,,,,,,,,,,,,,,,,,,,,,,,,,,,,,,,,,,,,,,,,,,,,,,,,,,,,,,,,,,,,,,,,,,,,,,,,,,,,,,,,,,,,,,,,,,,,,,,,,,,,,,,,,,,,,,,,,,,,,,
,,6169e8a8311d269013eb73c7,2024-02-18_20h12.05.395,kallum_motion_pilot,2023.2.2,Win32,59.88023952,6169e8a8311d269013eb73c7,65d2b6c8f2eece985d8e374c,65d2b8dc0b64bbe7b18e2672,0.2525,0.2528,1,5,167,34,1,twoone,,,,,,,,,,,,,,,,,,,,,,,,,,,,,,,,,,,,,,,,,,,,,,,,,,,,,,,,,,,,,,,,,,,,,,,,,,,,,,,,,,,,,,,,,,,,,,,,,,,,,,,,,,,,,,,,,,,,,,,,,,,,,,,,,,,,,,,,,
,,6169e8a8311d269013eb73c7,2024-02-18_20h12.05.395,kallum_motion_pilot,2023.2.2,Win32,59.88023952,6169e8a8311d269013eb73c7,65d2b6c8f2eece985d8e374c,65d2b8dc0b64bbe7b18e2672,0.2535,0.2537,1,6,168,72,1,onetwo,,,,,,,,,,,,,,,,,,,,,,,,,,,,,,,,,,,,,,,,,,,,,,,,,,,,,,,,,,,,,,,,,,,,,,,,,,,,,,,,,,,,,,,,,,,,,,,,,,,,,,,,,,,,,,,,,,,,,,,,,,,,,,,,,,,,,,,,,
,,6169e8a8311d269013eb73c7,2024-02-18_20h12.05.395,kallum_motion_pilot,2023.2.2,Win32,59.88023952,6169e8a8311d269013eb73c7,65d2b6c8f2eece985d8e374c,65d2b8dc0b64bbe7b18e2672,0.2541,0.2543,1,7,169,59,1,twofour,,,,,,,,,,,,,,,,,,,,,,,,,,,,,,,,,,,,,,,,,,,,,,,,,,,,,,,,,,,,,,,,,,,,,,,,,,,,,,,,,,,,,,,,,,,,,,,,,,,,,,,,,,,,,,,,,,,,,,,,,,,,,,,,,,,,,,,,,
,,6169e8a8311d269013eb73c7,2024-02-18_20h12.05.395,kallum_motion_pilot,2023.2.2,Win32,59.88023952,6169e8a8311d269013eb73c7,65d2b6c8f2eece985d8e374c,65d2b8dc0b64bbe7b18e2672,0.2547,0.2549,1,8,170,2,1,twoone,,,,,,,,,,,,,,,,,,,,,,,,,,,,,,,,,,,,,,,,,,,,,,,,,,,,,,,,,,,,,,,,,,,,,,,,,,,,,,,,,,,,,,,,,,,,,,,,,,,,,,,,,,,,,,,,,,,,,,,,,,,,,,,,,,,,,,,,,
,,6169e8a8311d269013eb73c7,2024-02-18_20h12.05.395,kallum_motion_pilot,2023.2.2,Win32,59.88023952,6169e8a8311d269013eb73c7,65d2b6c8f2eece985d8e374c,65d2b8dc0b64bbe7b18e2672,0.2554,0.2557,1,9,171,104,1,fivesix,,,,,,,,,,,,,,,,,,,,,,,,,,,,,,,,,,,,,,,,,,,,,,,,,,,,,,,,,,,,,,,,,,,,,,,,,,,,,,,,,,,,,,,,,,,,,,,,,,,,,,,,,,,,,,,,,,,,,,,,,,,,,,,,,,,,,,,,,
,,6169e8a8311d269013eb73c7,2024-02-18_20h12.05.395,kallum_motion_pilot,2023.2.2,Win32,59.88023952,6169e8a8311d269013eb73c7,65d2b6c8f2eece985d8e374c,65d2b8dc0b64bbe7b18e2672,0.2574,0.2579,1,10,172,63,1,fourthree,,,,,,,,,,,,,,,,,,,,,,,,,,,,,,,,,,,,,,,,,,,,,,,,,,,,,,,,,,,,,,,,,,,,,,,,,,,,,,,,,,,,,,,,,,,,,,,,,,,,,,,,,,,,,,,,,,,,,,,,,,,,,,,,,,,,,,,,,
,,6169e8a8311d269013eb73c7,2024-02-18_20h12.05.395,kallum_motion_pilot,2023.2.2,Win32,59.88023952,6169e8a8311d269013eb73c7,65d2b6c8f2eece985d8e374c,65d2b8dc0b64bbe7b18e2672,0.2584,0.2586,1,11,173,94,1,eightsix,,,,,,,,,,,,,,,,,,,,,,,,,,,,,,,,,,,,,,,,,,,,,,,,,,,,,,,,,,,,,,,,,,,,,,,,,,,,,,,,,,,,,,,,,,,,,,,,,,,,,,,,,,,,,,,,,,,,,,,,,,,,,,,,,,,,,,,,,
,,6169e8a8311d269013eb73c7,2024-02-18_20h12.05.395,kallum_motion_pilot,2023.2.2,Win32,59.88023952,6169e8a8311d269013eb73c7,65d2b6c8f2eece985d8e374c,65d2b8dc0b64bbe7b18e2672,0.2589,0.2592,1,12,174,123,1,sixeight,,,,,,,,,,,,,,,,,,,,,,,,,,,,,,,,,,,,,,,,,,,,,,,,,,,,,,,,,,,,,,,,,,,,,,,,,,,,,,,,,,,,,,,,,,,,,,,,,,,,,,,,,,,,,,,,,,,,,,,,,,,,,,,,,,,,,,,,,
,,6169e8a8311d269013eb73c7,2024-02-18_20h12.05.395,kallum_motion_pilot,2023.2.2,Win32,59.88023952,6169e8a8311d269013eb73c7,65d2b6c8f2eece985d8e374c,65d2b8dc0b64bbe7b18e2672,0.2597,0.26,1,13,175,118,1,eightsix,,,,,,,,,,,,,,,,,,,,,,,,,,,,,,,,,,,,,,,,,,,,,,,,,,,,,,,,,,,,,,,,,,,,,,,,,,,,,,,,,,,,,,,,,,,,,,,,,,,,,,,,,,,,,,,,,,,,,,,,,,,,,,,,,,,,,,,,,
,,6169e8a8311d269013eb73c7,2024-02-18_20h12.05.395,kallum_motion_pilot,2023.2.2,Win32,59.88023952,6169e8a8311d269013eb73c7,65d2b6c8f2eece985d8e374c,65d2b8dc0b64bbe7b18e2672,0.2605,0.2607,1,14,176,157,1,seveneight,,,,,,,,,,,,,,,,,,,,,,,,,,,,,,,,,,,,,,,,,,,,,,,,,,,,,,,,,,,,,,,,,,,,,,,,,,,,,,,,,,,,,,,,,,,,,,,,,,,,,,,,,,,,,,,,,,,,,,,,,,,,,,,,,,,,,,,,,
,,6169e8a8311d269013eb73c7,2024-02-18_20h12.05.395,kallum_motion_pilot,2023.2.2,Win32,59.88023952,6169e8a8311d269013eb73c7,65d2b6c8f2eece985d8e374c,65d2b8dc0b64bbe7b18e2672,0.2611,0.2614,1,15,177,3,1,twofour,,,,,,,,,,,,,,,,,,,,,,,,,,,,,,,,,,,,,,,,,,,,,,,,,,,,,,,,,,,,,,,,,,,,,,,,,,,,,,,,,,,,,,,,,,,,,,,,,,,,,,,,,,,,,,,,,,,,,,,,,,,,,,,,,,,,,,,,,
,,6169e8a8311d269013eb73c7,2024-02-18_20h12.05.395,kallum_motion_pilot,2023.2.2,Win32,59.88023952,6169e8a8311d269013eb73c7,65d2b6c8f2eece985d8e374c,65d2b8dc0b64bbe7b18e2672,0.262,0.2622,1,16,178,0,1,onetwo,,,,,,,,,,,,,,,,,,,,,,,,,,,,,,,,,,,,,,,,,,,,,,,,,,,,,,,,,,,,,,,,,,,,,,,,,,,,,,,,,,,,,,,,,,,,,,,,,,,,,,,,,,,,,,,,,,,,,,,,,,,,,,,,,,,,,,,,,
,,6169e8a8311d269013eb73c7,2024-02-18_20h12.05.395,kallum_motion_pilot,2023.2.2,Win32,59.88023952,6169e8a8311d269013eb73c7,65d2b6c8f2eece985d8e374c,65d2b8dc0b64bbe7b18e2672,0.2627,0.263,1,17,179,128,1,fivesix,,,,,,,,,,,,,,,,,,,,,,,,,,,,,,,,,,,,,,,,,,,,,,,,,,,,,,,,,,,,,,,,,,,,,,,,,,,,,,,,,,,,,,,,,,,,,,,,,,,,,,,,,,,,,,,,,,,,,,,,,,,,,,,,,,,,,,,,,
,,6169e8a8311d269013eb73c7,2024-02-18_20h12.05.395,kallum_motion_pilot,2023.2.2,Win32,59.88023952,6169e8a8311d269013eb73c7,65d2b6c8f2eece985d8e374c,65d2b8dc0b64bbe7b18e2672,0.2635,0.2638,1,18,180,105,1,fiveseven,,,,,,,,,,,,,,,,,,,,,,,,,,,,,,,,,,,,,,,,,,,,,,,,,,,,,,,,,,,,,,,,,,,,,,,,,,,,,,,,,,,,,,,,,,,,,,,,,,,,,,,,,,,,,,,,,,,,,,,,,,,,,,,,,,,,,,,,,
,,6169e8a8311d269013eb73c7,2024-02-18_20h12.05.395,kallum_motion_pilot,2023.2.2,Win32,59.88023952,6169e8a8311d269013eb73c7,65d2b6c8f2eece985d8e374c,65d2b8dc0b64bbe7b18e2672,0.2641,0.2643,1,19,181,66,1,twoone,,,,,,,,,,,,,,,,,,,,,,,,,,,,,,,,,,,,,,,,,,,,,,,,,,,,,,,,,,,,,,,,,,,,,,,,,,,,,,,,,,,,,,,,,,,,,,,,,,,,,,,,,,,,,,,,,,,,,,,,,,,,,,,,,,,,,,,,,
,,6169e8a8311d269013eb73c7,2024-02-18_20h12.05.395,kallum_motion_pilot,2023.2.2,Win32,59.88023952,6169e8a8311d269013eb73c7,65d2b6c8f2eece985d8e374c,65d2b8dc0b64bbe7b18e2672,0.2647,0.2649,1,20,182,52,1,threeone,,,,,,,,,,,,,,,,,,,,,,,,,,,,,,,,,,,,,,,,,,,,,,,,,,,,,,,,,,,,,,,,,,,,,,,,,,,,,,,,,,,,,,,,,,,,,,,,,,,,,,,,,,,,,,,,,,,,,,,,,,,,,,,,,,,,,,,,,
,,6169e8a8311d269013eb73c7,2024-02-18_20h12.05.395,kallum_motion_pilot,2023.2.2,Win32,59.88023952,6169e8a8311d269013eb73c7,65d2b6c8f2eece985d8e374c,65d2b8dc0b64bbe7b18e2672,0.2652,0.2655,1,21,183,82,1,sixfive,,,,,,,,,,,,,,,,,,,,,,,,,,,,,,,,,,,,,,,,,,,,,,,,,,,,,,,,,,,,,,,,,,,,,,,,,,,,,,,,,,,,,,,,,,,,,,,,,,,,,,,,,,,,,,,,,,,,,,,,,,,,,,,,,,,,,,,,,
,,6169e8a8311d269013eb73c7,2024-02-18_20h12.05.395,kallum_motion_pilot,2023.2.2,Win32,59.88023952,6169e8a8311d269013eb73c7,65d2b6c8f2eece985d8e374c,65d2b8dc0b64bbe7b18e2672,0.2661,0.2663,1,22,184,96,1,fivesix,,,,,,,,,,,,,,,,,,,,,,,,,,,,,,,,,,,,,,,,,,,,,,,,,,,,,,,,,,,,,,,,,,,,,,,,,,,,,,,,,,,,,,,,,,,,,,,,,,,,,,,,,,,,,,,,,,,,,,,,,,,,,,,,,,,,,,,,,
,,6169e8a8311d269013eb73c7,2024-02-18_20h12.05.395,kallum_motion_pilot,2023.2.2,Win32,59.88023952,6169e8a8311d269013eb73c7,65d2b6c8f2eece985d8e374c,65d2b8dc0b64bbe7b18e2672,0.2667,0.2669,1,23,185,38,1,fourtwo,,,,,,,,,,,,,,,,,,,,,,,,,,,,,,,,,,,,,,,,,,,,,,,,,,,,,,,,,,,,,,,,,,,,,,,,,,,,,,,,,,,,,,,,,,,,,,,,,,,,,,,,,,,,,,,,,,,,,,,,,,,,,,,,,,,,,,,,,
,,6169e8a8311d269013eb73c7,2024-02-18_20h12.05.395,kallum_motion_pilot,2023.2.2,Win32,59.88023952,6169e8a8311d269013eb73c7,65d2b6c8f2eece985d8e374c,65d2b8dc0b64bbe7b18e2672,0.2674,0.2675,1,24,186,81,1,fiveseven,,,,,,,,,,,,,,,,,,,,,,,,,,,,,,,,,,,,,,,,,,,,,,,,,,,,,,,,,,,,,,,,,,,,,,,,,,,,,,,,,,,,,,,,,,,,,,,,,,,,,,,,,,,,,,,,,,,,,,,,,,,,,,,,,,,,,,,,,
,,6169e8a8311d269013eb73c7,2024-02-18_20h12.05.395,kallum_motion_pilot,2023.2.2,Win32,59.88023952,6169e8a8311d269013eb73c7,65d2b6c8f2eece985d8e374c,65d2b8dc0b64bbe7b18e2672,0.2679,0.2681,1,25,187,68,1,threeone,,,,,,,,,,,,,,,,,,,,,,,,,,,,,,,,,,,,,,,,,,,,,,,,,,,,,,,,,,,,,,,,,,,,,,,,,,,,,,,,,,,,,,,,,,,,,,,,,,,,,,,,,,,,,,,,,,,,,,,,,,,,,,,,,,,,,,,,,
,,6169e8a8311d269013eb73c7,2024-02-18_20h12.05.395,kallum_motion_pilot,2023.2.2,Win32,59.88023952,6169e8a8311d269013eb73c7,65d2b6c8f2eece985d8e374c,65d2b8dc0b64bbe7b18e2672,0.2685,0.2687,1,26,188,46,1,fourtwo,,,,,,,,,,,,,,,,,,,,,,,,,,,,,,,,,,,,,,,,,,,,,,,,,,,,,,,,,,,,,,,,,,,,,,,,,,,,,,,,,,,,,,,,,,,,,,,,,,,,,,,,,,,,,,,,,,,,,,,,,,,,,,,,,,,,,,,,,
,,6169e8a8311d269013eb73c7,2024-02-18_20h12.05.395,kallum_motion_pilot,2023.2.2,Win32,59.88023952,6169e8a8311d269013eb73c7,65d2b6c8f2eece985d8e374c,65d2b8dc0b64bbe7b18e2672,0.269,0.2692,1,27,189,129,1,fiveseven,,,,,,,,,,,,,,,,,,,,,,,,,,,,,,,,,,,,,,,,,,,,,,,,,,,,,,,,,,,,,,,,,,,,,,,,,,,,,,,,,,,,,,,,,,,,,,,,,,,,,,,,,,,,,,,,,,,,,,,,,,,,,,,,,,,,,,,,,
,,6169e8a8311d269013eb73c7,2024-02-18_20h12.05.395,kallum_motion_pilot,2023.2.2,Win32,59.88023952,6169e8a8311d269013eb73c7,65d2b6c8f2eece985d8e374c,65d2b8dc0b64bbe7b18e2672,0.2696,0.2698,1,28,190,121,1,fiveseven,,,,,,,,,,,,,,,,,,,,,,,,,,,,,,,,,,,,,,,,,,,,,,,,,,,,,,,,,,,,,,,,,,,,,,,,,,,,,,,,,,,,,,,,,,,,,,,,,,,,,,,,,,,,,,,,,,,,,,,,,,,,,,,,,,,,,,,,,
,,6169e8a8311d269013eb73c7,2024-02-18_20h12.05.395,kallum_motion_pilot,2023.2.2,Win32,59.88023952,6169e8a8311d269013eb73c7,65d2b6c8f2eece985d8e374c,65d2b8dc0b64bbe7b18e2672,0.2701,0.2705,1,29,191,89,1,fiveseven,,,,,,,,,,,,,,,,,,,,,,,,,,,,,,,,,,,,,,,,,,,,,,,,,,,,,,,,,,,,,,,,,,,,,,,,,,,,,,,,,,,,,,,,,,,,,,,,,,,,,,,,,,,,,,,,,,,,,,,,,,,,,,,,,,,,,,,,,
,,6169e8a8311d269013eb73c7,2024-02-18_20h12.05.395,kallum_motion_pilot,2023.2.2,Win32,59.88023952,6169e8a8311d269013eb73c7,65d2b6c8f2eece985d8e374c,65d2b8dc0b64bbe7b18e2672,0.2707,0.271,1,30,192,84,1,sevenfive,,,,,,,,,,,,,,,,,,,,,,,,,,,,,,,,,,,,,,,,,,,,,,,,,,,,,,,,,,,,,,,,,,,,,,,,,,,,,,,,,,,,,,,,,,,,,,,,,,,,,,,,,,,,,,,,,,,,,,,,,,,,,,,,,,,,,,,,,
,,6169e8a8311d269013eb73c7,2024-02-18_20h12.05.395,kallum_motion_pilot,2023.2.2,Win32,59.88023952,6169e8a8311d269013eb73c7,65d2b6c8f2eece985d8e374c,65d2b8dc0b64bbe7b18e2672,0.2715,0.2719,1,31,193,147,1,sixeight,,,,,,,,,,,,,,,,,,,,,,,,,,,,,,,,,,,,,,,,,,,,,,,,,,,,,,,,,,,,,,,,,,,,,,,,,,,,,,,,,,,,,,,,,,,,,,,,,,,,,,,,,,,,,,,,,,,,,,,,,,,,,,,,,,,,,,,,,
,,6169e8a8311d269013eb73c7,2024-02-18_20h12.05.395,kallum_motion_pilot,2023.2.2,Win32,59.88023952,6169e8a8311d269013eb73c7,65d2b6c8f2eece985d8e374c,65d2b8dc0b64bbe7b18e2672,0.2724,0.273,1,32,194,153,1,fiveseven,,,,,,,,,,,,,,,,,,,,,,,,,,,,,,,,,,,,,,,,,,,,,,,,,,,,,,,,,,,,,,,,,,,,,,,,,,,,,,,,,,,,,,,,,,,,,,,,,,,,,,,,,,,,,,,,,,,,,,,,,,,,,,,,,,,,,,,,,
,,6169e8a8311d269013eb73c7,2024-02-18_20h12.05.395,kallum_motion_pilot,2023.2.2,Win32,59.88023952,6169e8a8311d269013eb73c7,65d2b6c8f2eece985d8e374c,65d2b8dc0b64bbe7b18e2672,0.2735,0.2738,1,33,195,31,1,fourthree,,,,,,,,,,,,,,,,,,,,,,,,,,,,,,,,,,,,,,,,,,,,,,,,,,,,,,,,,,,,,,,,,,,,,,,,,,,,,,,,,,,,,,,,,,,,,,,,,,,,,,,,,,,,,,,,,,,,,,,,,,,,,,,,,,,,,,,,,
,,6169e8a8311d269013eb73c7,2024-02-18_20h12.05.395,kallum_motion_pilot,2023.2.2,Win32,59.88023952,6169e8a8311d269013eb73c7,65d2b6c8f2eece985d8e374c,65d2b8dc0b64bbe7b18e2672,0.2746,0.2749,1,34,196,61,1,threefour,,,,,,,,,,,,,,,,,,,,,,,,,,,,,,,,,,,,,,,,,,,,,,,,,,,,,,,,,,,,,,,,,,,,,,,,,,,,,,,,,,,,,,,,,,,,,,,,,,,,,,,,,,,,,,,,,,,,,,,,,,,,,,,,,,,,,,,,,
,,6169e8a8311d269013eb73c7,2024-02-18_20h12.05.395,kallum_motion_pilot,2023.2.2,Win32,59.88023952,6169e8a8311d269013eb73c7,65d2b6c8f2eece985d8e374c,65d2b8dc0b64bbe7b18e2672,0.2755,0.2757,1,35,197,91,1,sixeight,,,,,,,,,,,,,,,,,,,,,,,,,,,,,,,,,,,,,,,,,,,,,,,,,,,,,,,,,,,,,,,,,,,,,,,,,,,,,,,,,,,,,,,,,,,,,,,,,,,,,,,,,,,,,,,,,,,,,,,,,,,,,,,,,,,,,,,,,
,,6169e8a8311d269013eb73c7,2024-02-18_20h12.05.395,kallum_motion_pilot,2023.2.2,Win32,59.88023952,6169e8a8311d269013eb73c7,65d2b6c8f2eece985d8e374c,65d2b8dc0b64bbe7b18e2672,0.2762,0.2765,1,36,198,109,1,seveneight,,,,,,,,,,,,,,,,,,,,,,,,,,,,,,,,,,,,,,,,,,,,,,,,,,,,,,,,,,,,,,,,,,,,,,,,,,,,,,,,,,,,,,,,,,,,,,,,,,,,,,,,,,,,,,,,,,,,,,,,,,,,,,,,,,,,,,,,,
,,6169e8a8311d269013eb73c7,2024-02-18_20h12.05.395,kallum_motion_pilot,2023.2.2,Win32,59.88023952,6169e8a8311d269013eb73c7,65d2b6c8f2eece985d8e374c,65d2b8dc0b64bbe7b18e2672,0.2771,0.2773,1,37,199,115,1,sixeight,,,,,,,,,,,,,,,,,,,,,,,,,,,,,,,,,,,,,,,,,,,,,,,,,,,,,,,,,,,,,,,,,,,,,,,,,,,,,,,,,,,,,,,,,,,,,,,,,,,,,,,,,,,,,,,,,,,,,,,,,,,,,,,,,,,,,,,,,
,,6169e8a8311d269013eb73c7,2024-02-18_20h12.05.395,kallum_motion_pilot,2023.2.2,Win32,59.88023952,6169e8a8311d269013eb73c7,65d2b6c8f2eece985d8e374c,65d2b8dc0b64bbe7b18e2672,0.2777,0.278,1,38,200,28,1,threeone,,,,,,,,,,,,,,,,,,,,,,,,,,,,,,,,,,,,,,,,,,,,,,,,,,,,,,,,,,,,,,,,,,,,,,,,,,,,,,,,,,,,,,,,,,,,,,,,,,,,,,,,,,,,,,,,,,,,,,,,,,,,,,,,,,,,,,,,,
,,6169e8a8311d269013eb73c7,2024-02-18_20h12.05.395,kallum_motion_pilot,2023.2.2,Win32,59.88023952,6169e8a8311d269013eb73c7,65d2b6c8f2eece985d8e374c,65d2b8dc0b64bbe7b18e2672,0.2784,0.2787,1,39,201,15,1,fourthree,,,,,,,,,,,,,,,,,,,,,,,,,,,,,,,,,,,,,,,,,,,,,,,,,,,,,,,,,,,,,,,,,,,,,,,,,,,,,,,,,,,,,,,,,,,,,,,,,,,,,,,,,,,,,,,,,,,,,,,,,,,,,,,,,,,,,,,,,
,,6169e8a8311d269013eb73c7,2024-02-18_20h12.05.395,kallum_motion_pilot,2023.2.2,Win32,59.88023952,6169e8a8311d269013eb73c7,65d2b6c8f2eece985d8e374c,65d2b8dc0b64bbe7b18e2672,0.2791,0.2795,1,40,202,113,1,fiveseven,,,,,,,,,,,,,,,,,,,,,,,,,,,,,,,,,,,,,,,,,,,,,,,,,,,,,,,,,,,,,,,,,,,,,,,,,,,,,,,,,,,,,,,,,,,,,,,,,,,,,,,,,,,,,,,,,,,,,,,,,,,,,,,,,,,,,,,,,
,,6169e8a8311d269013eb73c7,2024-02-18_20h12.05.395,kallum_motion_pilot,2023.2.2,Win32,59.88023952,6169e8a8311d269013eb73c7,65d2b6c8f2eece985d8e374c,65d2b8dc0b64bbe7b18e2672,0.2801,0.2805,1,41,203,70,1,fourtwo,,,,,,,,,,,,,,,,,,,,,,,,,,,,,,,,,,,,,,,,,,,,,,,,,,,,,,,,,,,,,,,,,,,,,,,,,,,,,,,,,,,,,,,,,,,,,,,,,,,,,,,,,,,,,,,,,,,,,,,,,,,,,,,,,,,,,,,,,
,,6169e8a8311d269013eb73c7,2024-02-18_20h12.05.395,kallum_motion_pilot,2023.2.2,Win32,59.88023952,6169e8a8311d269013eb73c7,65d2b6c8f2eece985d8e374c,65d2b8dc0b64bbe7b18e2672,0.2811,0.2815,1,42,204,24,1,onetwo,,,,,,,,,,,,,,,,,,,,,,,,,,,,,,,,,,,,,,,,,,,,,,,,,,,,,,,,,,,,,,,,,,,,,,,,,,,,,,,,,,,,,,,,,,,,,,,,,,,,,,,,,,,,,,,,,,,,,,,,,,,,,,,,,,,,,,,,,
,,6169e8a8311d269013eb73c7,2024-02-18_20h12.05.395,kallum_motion_pilot,2023.2.2,Win32,59.88023952,6169e8a8311d269013eb73c7,65d2b6c8f2eece985d8e374c,65d2b8dc0b64bbe7b18e2672,0.2822,0.2825,1,43,205,160,1,fivesix,,,,,,,,,,,,,,,,,,,,,,,,,,,,,,,,,,,,,,,,,,,,,,,,,,,,,,,,,,,,,,,,,,,,,,,,,,,,,,,,,,,,,,,,,,,,,,,,,,,,,,,,,,,,,,,,,,,,,,,,,,,,,,,,,,,,,,,,,
,,6169e8a8311d269013eb73c7,2024-02-18_20h12.05.395,kallum_motion_pilot,2023.2.2,Win32,59.88023952,6169e8a8311d269013eb73c7,65d2b6c8f2eece985d8e374c,65d2b8dc0b64bbe7b18e2672,0.283,0.2833,1,44,206,14,1,fourtwo,,,,,,,,,,,,,,,,,,,,,,,,,,,,,,,,,,,,,,,,,,,,,,,,,,,,,,,,,,,,,,,,,,,,,,,,,,,,,,,,,,,,,,,,,,,,,,,,,,,,,,,,,,,,,,,,,,,,,,,,,,,,,,,,,,,,,,,,,
,,6169e8a8311d269013eb73c7,2024-02-18_20h12.05.395,kallum_motion_pilot,2023.2.2,Win32,59.88023952,6169e8a8311d269013eb73c7,65d2b6c8f2eece985d8e374c,65d2b8dc0b64bbe7b18e2672,0.2837,0.2839,1,45,207,92,1,sevenfive,,,,,,,,,,,,,,,,,,,,,,,,,,,,,,,,,,,,,,,,,,,,,,,,,,,,,,,,,,,,,,,,,,,,,,,,,,,,,,,,,,,,,,,,,,,,,,,,,,,,,,,,,,,,,,,,,,,,,,,,,,,,,,,,,,,,,,,,,
,,6169e8a8311d269013eb73c7,2024-02-18_20h12.05.395,kallum_motion_pilot,2023.2.2,Win32,59.88023952,6169e8a8311d269013eb73c7,65d2b6c8f2eece985d8e374c,65d2b8dc0b64bbe7b18e2672,0.2844,0.2847,1,46,208,9,1,onethree,,,,,,,,,,,,,,,,,,,,,,,,,,,,,,,,,,,,,,,,,,,,,,,,,,,,,,,,,,,,,,,,,,,,,,,,,,,,,,,,,,,,,,,,,,,,,,,,,,,,,,,,,,,,,,,,,,,,,,,,,,,,,,,,,,,,,,,,,
,,6169e8a8311d269013eb73c7,2024-02-18_20h12.05.395,kallum_motion_pilot,2023.2.2,Win32,59.88023952,6169e8a8311d269013eb73c7,65d2b6c8f2eece985d8e374c,65d2b8dc0b64bbe7b18e2672,0.2851,0.2855,1,47,209,127,1,eightseven,,,,,,,,,,,,,,,,,,,,,,,,,,,,,,,,,,,,,,,,,,,,,,,,,,,,,,,,,,,,,,,,,,,,,,,,,,,,,,,,,,,,,,,,,,,,,,,,,,,,,,,,,,,,,,,,,,,,,,,,,,,,,,,,,,,,,,,,,
,,6169e8a8311d269013eb73c7,2024-02-18_20h12.05.395,kallum_motion_pilot,2023.2.2,Win32,59.88023952,6169e8a8311d269013eb73c7,65d2b6c8f2eece985d8e374c,65d2b8dc0b64bbe7b18e2672,0.2858,0.2861,1,48,210,65,1,onethree,,,,,,,,,,,,,,,,,,,,,,,,,,,,,,,,,,,,,,,,,,,,,,,,,,,,,,,,,,,,,,,,,,,,,,,,,,,,,,,,,,,,,,,,,,,,,,,,,,,,,,,,,,,,,,,,,,,,,,,,,,,,,,,,,,,,,,,,,
,,6169e8a8311d269013eb73c7,2024-02-18_20h12.05.395,kallum_motion_pilot,2023.2.2,Win32,59.88023952,6169e8a8311d269013eb73c7,65d2b6c8f2eece985d8e374c,65d2b8dc0b64bbe7b18e2672,0.2865,0.2867,1,49,211,134,1,eightsix,,,,,,,,,,,,,,,,,,,,,,,,,,,,,,,,,,,,,,,,,,,,,,,,,,,,,,,,,,,,,,,,,,,,,,,,,,,,,,,,,,,,,,,,,,,,,,,,,,,,,,,,,,,,,,,,,,,,,,,,,,,,,,,,,,,,,,,,,
,,6169e8a8311d269013eb73c7,2024-02-18_20h12.05.395,kallum_motion_pilot,2023.2.2,Win32,59.88023952,6169e8a8311d269013eb73c7,65d2b6c8f2eece985d8e374c,65d2b8dc0b64bbe7b18e2672,0.2872,0.2874,1,50,212,29,1,threefour,,,,,,,,,,,,,,,,,,,,,,,,,,,,,,,,,,,,,,,,,,,,,,,,,,,,,,,,,,,,,,,,,,,,,,,,,,,,,,,,,,,,,,,,,,,,,,,,,,,,,,,,,,,,,,,,,,,,,,,,,,,,,,,,,,,,,,,,,
,,6169e8a8311d269013eb73c7,2024-02-18_20h12.05.395,kallum_motion_pilot,2023.2.2,Win32,59.88023952,6169e8a8311d269013eb73c7,65d2b6c8f2eece985d8e374c,65d2b8dc0b64bbe7b18e2672,0.2879,0.2881,1,51,213,35,1,twofour,,,,,,,,,,,,,,,,,,,,,,,,,,,,,,,,,,,,,,,,,,,,,,,,,,,,,,,,,,,,,,,,,,,,,,,,,,,,,,,,,,,,,,,,,,,,,,,,,,,,,,,,,,,,,,,,,,,,,,,,,,,,,,,,,,,,,,,,,
,,6169e8a8311d269013eb73c7,2024-02-18_20h12.05.395,kallum_motion_pilot,2023.2.2,Win32,59.88023952,6169e8a8311d269013eb73c7,65d2b6c8f2eece985d8e374c,65d2b8dc0b64bbe7b18e2672,0.2885,0.2888,1,52,214,148,1,sevenfive,,,,,,,,,,,,,,,,,,,,,,,,,,,,,,,,,,,,,,,,,,,,,,,,,,,,,,,,,,,,,,,,,,,,,,,,,,,,,,,,,,,,,,,,,,,,,,,,,,,,,,,,,,,,,,,,,,,,,,,,,,,,,,,,,,,,,,,,,
,,6169e8a8311d269013eb73c7,2024-02-18_20h12.05.395,kallum_motion_pilot,2023.2.2,Win32,59.88023952,6169e8a8311d269013eb73c7,65d2b6c8f2eece985d8e374c,65d2b8dc0b64bbe7b18e2672,0.2893,0.2897,1,53,215,112,1,fivesix,,,,,,,,,,,,,,,,,,,,,,,,,,,,,,,,,,,,,,,,,,,,,,,,,,,,,,,,,,,,,,,,,,,,,,,,,,,,,,,,,,,,,,,,,,,,,,,,,,,,,,,,,,,,,,,,,,,,,,,,,,,,,,,,,,,,,,,,,
,,6169e8a8311d269013eb73c7,2024-02-18_20h12.05.395,kallum_motion_pilot,2023.2.2,Win32,59.88023952,6169e8a8311d269013eb73c7,65d2b6c8f2eece985d8e374c,65d2b8dc0b64bbe7b18e2672,0.2904,0.2908,1,54,216,142,1,eightsix,,,,,,,,,,,,,,,,,,,,,,,,,,,,,,,,,,,,,,,,,,,,,,,,,,,,,,,,,,,,,,,,,,,,,,,,,,,,,,,,,,,,,,,,,,,,,,,,,,,,,,,,,,,,,,,,,,,,,,,,,,,,,,,,,,,,,,,,,
,,6169e8a8311d269013eb73c7,2024-02-18_20h12.05.395,kallum_motion_pilot,2023.2.2,Win32,59.88023952,6169e8a8311d269013eb73c7,65d2b6c8f2eece985d8e374c,65d2b8dc0b64bbe7b18e2672,0.2916,0.2919,1,55,217,107,1,sixeight,,,,,,,,,,,,,,,,,,,,,,,,,,,,,,,,,,,,,,,,,,,,,,,,,,,,,,,,,,,,,,,,,,,,,,,,,,,,,,,,,,,,,,,,,,,,,,,,,,,,,,,,,,,,,,,,,,,,,,,,,,,,,,,,,,,,,,,,,
,,6169e8a8311d269013eb73c7,2024-02-18_20h12.05.395,kallum_motion_pilot,2023.2.2,Win32,59.88023952,6169e8a8311d269013eb73c7,65d2b6c8f2eece985d8e374c,65d2b8dc0b64bbe7b18e2672,0.2922,0.2926,1,56,218,25,1,onethree,,,,,,,,,,,,,,,,,,,,,,,,,,,,,,,,,,,,,,,,,,,,,,,,,,,,,,,,,,,,,,,,,,,,,,,,,,,,,,,,,,,,,,,,,,,,,,,,,,,,,,,,,,,,,,,,,,,,,,,,,,,,,,,,,,,,,,,,,
,,6169e8a8311d269013eb73c7,2024-02-18_20h12.05.395,kallum_motion_pilot,2023.2.2,Win32,59.88023952,6169e8a8311d269013eb73c7,65d2b6c8f2eece985d8e374c,65d2b8dc0b64bbe7b18e2672,0.2932,0.2934,1,57,219,21,1,threefour,,,,,,,,,,,,,,,,,,,,,,,,,,,,,,,,,,,,,,,,,,,,,,,,,,,,,,,,,,,,,,,,,,,,,,,,,,,,,,,,,,,,,,,,,,,,,,,,,,,,,,,,,,,,,,,,,,,,,,,,,,,,,,,,,,,,,,,,,
,,6169e8a8311d269013eb73c7,2024-02-18_20h12.05.395,kallum_motion_pilot,2023.2.2,Win32,59.88023952,6169e8a8311d269013eb73c7,65d2b6c8f2eece985d8e374c,65d2b8dc0b64bbe7b18e2672,0.2939,0.2941,1,58,220,54,1,fourtwo,,,,,,,,,,,,,,,,,,,,,,,,,,,,,,,,,,,,,,,,,,,,,,,,,,,,,,,,,,,,,,,,,,,,,,,,,,,,,,,,,,,,,,,,,,,,,,,,,,,,,,,,,,,,,,,,,,,,,,,,,,,,,,,,,,,,,,,,,
,,6169e8a8311d269013eb73c7,2024-02-18_20h12.05.395,kallum_motion_pilot,2023.2.2,Win32,59.88023952,6169e8a8311d269013eb73c7,65d2b6c8f2eece985d8e374c,65d2b8dc0b64bbe7b18e2672,0.2946,0.2949,1,59,221,135,1,eightseven,,,,,,,,,,,,,,,,,,,,,,,,,,,,,,,,,,,,,,,,,,,,,,,,,,,,,,,,,,,,,,,,,,,,,,,,,,,,,,,,,,,,,,,,,,,,,,,,,,,,,,,,,,,,,,,,,,,,,,,,,,,,,,,,,,,,,,,,,
,,6169e8a8311d269013eb73c7,2024-02-18_20h12.05.395,kallum_motion_pilot,2023.2.2,Win32,59.88023952,6169e8a8311d269013eb73c7,65d2b6c8f2eece985d8e374c,65d2b8dc0b64bbe7b18e2672,0.2952,0.2954,1,60,222,95,1,eightseven,,,,,,,,,,,,,,,,,,,,,,,,,,,,,,,,,,,,,,,,,,,,,,,,,,,,,,,,,,,,,,,,,,,,,,,,,,,,,,,,,,,,,,,,,,,,,,,,,,,,,,,,,,,,,,,,,,,,,,,,,,,,,,,,,,,,,,,,,
,,6169e8a8311d269013eb73c7,2024-02-18_20h12.05.395,kallum_motion_pilot,2023.2.2,Win32,59.88023952,6169e8a8311d269013eb73c7,65d2b6c8f2eece985d8e374c,65d2b8dc0b64bbe7b18e2672,0.2958,0.2961,1,61,223,97,1,fiveseven,,,,,,,,,,,,,,,,,,,,,,,,,,,,,,,,,,,,,,,,,,,,,,,,,,,,,,,,,,,,,,,,,,,,,,,,,,,,,,,,,,,,,,,,,,,,,,,,,,,,,,,,,,,,,,,,,,,,,,,,,,,,,,,,,,,,,,,,,
,,6169e8a8311d269013eb73c7,2024-02-18_20h12.05.395,kallum_motion_pilot,2023.2.2,Win32,59.88023952,6169e8a8311d269013eb73c7,65d2b6c8f2eece985d8e374c,65d2b8dc0b64bbe7b18e2672,0.2964,0.2967,1,62,224,116,1,sevenfive,,,,,,,,,,,,,,,,,,,,,,,,,,,,,,,,,,,,,,,,,,,,,,,,,,,,,,,,,,,,,,,,,,,,,,,,,,,,,,,,,,,,,,,,,,,,,,,,,,,,,,,,,,,,,,,,,,,,,,,,,,,,,,,,,,,,,,,,,
,,6169e8a8311d269013eb73c7,2024-02-18_20h12.05.395,kallum_motion_pilot,2023.2.2,Win32,59.88023952,6169e8a8311d269013eb73c7,65d2b6c8f2eece985d8e374c,65d2b8dc0b64bbe7b18e2672,0.2974,0.2978,1,63,225,7,1,fourthree,,,,,,,,,,,,,,,,,,,,,,,,,,,,,,,,,,,,,,,,,,,,,,,,,,,,,,,,,,,,,,,,,,,,,,,,,,,,,,,,,,,,,,,,,,,,,,,,,,,,,,,,,,,,,,,,,,,,,,,,,,,,,,,,,,,,,,,,,
,,6169e8a8311d269013eb73c7,2024-02-18_20h12.05.395,kallum_motion_pilot,2023.2.2,Win32,59.88023952,6169e8a8311d269013eb73c7,65d2b6c8f2eece985d8e374c,65d2b8dc0b64bbe7b18e2672,0.2983,0.2986,1,64,226,18,1,twoone,,,,,,,,,,,,,,,,,,,,,,,,,,,,,,,,,,,,,,,,,,,,,,,,,,,,,,,,,,,,,,,,,,,,,,,,,,,,,,,,,,,,,,,,,,,,,,,,,,,,,,,,,,,,,,,,,,,,,,,,,,,,,,,,,,,,,,,,,
,,6169e8a8311d269013eb73c7,2024-02-18_20h12.05.395,kallum_motion_pilot,2023.2.2,Win32,59.88023952,6169e8a8311d269013eb73c7,65d2b6c8f2eece985d8e374c,65d2b8dc0b64bbe7b18e2672,0.2989,0.2992,1,65,227,55,1,fourthree,,,,,,,,,,,,,,,,,,,,,,,,,,,,,,,,,,,,,,,,,,,,,,,,,,,,,,,,,,,,,,,,,,,,,,,,,,,,,,,,,,,,,,,,,,,,,,,,,,,,,,,,,,,,,,,,,,,,,,,,,,,,,,,,,,,,,,,,,
,,6169e8a8311d269013eb73c7,2024-02-18_20h12.05.395,kallum_motion_pilot,2023.2.2,Win32,59.88023952,6169e8a8311d269013eb73c7,65d2b6c8f2eece985d8e374c,65d2b8dc0b64bbe7b18e2672,0.2996,0.2999,1,66,228,151,1,eightseven,,,,,,,,,,,,,,,,,,,,,,,,,,,,,,,,,,,,,,,,,,,,,,,,,,,,,,,,,,,,,,,,,,,,,,,,,,,,,,,,,,,,,,,,,,,,,,,,,,,,,,,,,,,,,,,,,,,,,,,,,,,,,,,,,,,,,,,,,
,,6169e8a8311d269013eb73c7,2024-02-18_20h12.05.395,kallum_motion_pilot,2023.2.2,Win32,59.88023952,6169e8a8311d269013eb73c7,65d2b6c8f2eece985d8e374c,65d2b8dc0b64bbe7b18e2672,0.3002,0.3006,1,67,229,110,1,eightsix,,,,,,,,,,,,,,,,,,,,,,,,,,,,,,,,,,,,,,,,,,,,,,,,,,,,,,,,,,,,,,,,,,,,,,,,,,,,,,,,,,,,,,,,,,,,,,,,,,,,,,,,,,,,,,,,,,,,,,,,,,,,,,,,,,,,,,,,,
,,6169e8a8311d269013eb73c7,2024-02-18_20h12.05.395,kallum_motion_pilot,2023.2.2,Win32,59.88023952,6169e8a8311d269013eb73c7,65d2b6c8f2eece985d8e374c,65d2b8dc0b64bbe7b18e2672,0.301,0.3014,1,68,230,69,1,threefour,,,,,,,,,,,,,,,,,,,,,,,,,,,,,,,,,,,,,,,,,,,,,,,,,,,,,,,,,,,,,,,,,,,,,,,,,,,,,,,,,,,,,,,,,,,,,,,,,,,,,,,,,,,,,,,,,,,,,,,,,,,,,,,,,,,,,,,,,
,,6169e8a8311d269013eb73c7,2024-02-18_20h12.05.395,kallum_motion_pilot,2023.2.2,Win32,59.88023952,6169e8a8311d269013eb73c7,65d2b6c8f2eece985d8e374c,65d2b8dc0b64bbe7b18e2672,0.3019,0.3024,1,69,231,150,1,eightsix,,,,,,,,,,,,,,,,,,,,,,,,,,,,,,,,,,,,,,,,,,,,,,,,,,,,,,,,,,,,,,,,,,,,,,,,,,,,,,,,,,,,,,,,,,,,,,,,,,,,,,,,,,,,,,,,,,,,,,,,,,,,,,,,,,,,,,,,,
,,6169e8a8311d269013eb73c7,2024-02-18_20h12.05.395,kallum_motion_pilot,2023.2.2,Win32,59.88023952,6169e8a8311d269013eb73c7,65d2b6c8f2eece985d8e374c,65d2b8dc0b64bbe7b18e2672,0.3029,0.3032,1,70,232,40,1,onetwo,,,,,,,,,,,,,,,,,,,,,,,,,,,,,,,,,,,,,,,,,,,,,,,,,,,,,,,,,,,,,,,,,,,,,,,,,,,,,,,,,,,,,,,,,,,,,,,,,,,,,,,,,,,,,,,,,,,,,,,,,,,,,,,,,,,,,,,,,
,,6169e8a8311d269013eb73c7,2024-02-18_20h12.05.395,kallum_motion_pilot,2023.2.2,Win32,59.88023952,6169e8a8311d269013eb73c7,65d2b6c8f2eece985d8e374c,65d2b8dc0b64bbe7b18e2672,0.3038,0.3042,1,71,233,26,1,twoone,,,,,,,,,,,,,,,,,,,,,,,,,,,,,,,,,,,,,,,,,,,,,,,,,,,,,,,,,,,,,,,,,,,,,,,,,,,,,,,,,,,,,,,,,,,,,,,,,,,,,,,,,,,,,,,,,,,,,,,,,,,,,,,,,,,,,,,,,
,,6169e8a8311d269013eb73c7,2024-02-18_20h12.05.395,kallum_motion_pilot,2023.2.2,Win32,59.88023952,6169e8a8311d269013eb73c7,65d2b6c8f2eece985d8e374c,65d2b8dc0b64bbe7b18e2672,0.3046,0.305,1,72,234,67,1,twofour,,,,,,,,,,,,,,,,,,,,,,,,,,,,,,,,,,,,,,,,,,,,,,,,,,,,,,,,,,,,,,,,,,,,,,,,,,,,,,,,,,,,,,,,,,,,,,,,,,,,,,,,,,,,,,,,,,,,,,,,,,,,,,,,,,,,,,,,,
,,6169e8a8311d269013eb73c7,2024-02-18_20h12.05.395,kallum_motion_pilot,2023.2.2,Win32,59.88023952,6169e8a8311d269013eb73c7,65d2b6c8f2eece985d8e374c,65d2b8dc0b64bbe7b18e2672,0.3055,0.3058,1,73,235,101,1,seveneight,,,,,,,,,,,,,,,,,,,,,,,,,,,,,,,,,,,,,,,,,,,,,,,,,,,,,,,,,,,,,,,,,,,,,,,,,,,,,,,,,,,,,,,,,,,,,,,,,,,,,,,,,,,,,,,,,,,,,,,,,,,,,,,,,,,,,,,,,
,,6169e8a8311d269013eb73c7,2024-02-18_20h12.05.395,kallum_motion_pilot,2023.2.2,Win32,59.88023952,6169e8a8311d269013eb73c7,65d2b6c8f2eece985d8e374c,65d2b8dc0b64bbe7b18e2672,0.3062,0.3065,1,74,236,57,1,onethree,,,,,,,,,,,,,,,,,,,,,,,,,,,,,,,,,,,,,,,,,,,,,,,,,,,,,,,,,,,,,,,,,,,,,,,,,,,,,,,,,,,,,,,,,,,,,,,,,,,,,,,,,,,,,,,,,,,,,,,,,,,,,,,,,,,,,,,,,
,,6169e8a8311d269013eb73c7,2024-02-18_20h12.05.395,kallum_motion_pilot,2023.2.2,Win32,59.88023952,6169e8a8311d269013eb73c7,65d2b6c8f2eece985d8e374c,65d2b8dc0b64bbe7b18e2672,0.3071,0.3076,1,75,237,39,1,fourthree,,,,,,,,,,,,,,,,,,,,,,,,,,,,,,,,,,,,,,,,,,,,,,,,,,,,,,,,,,,,,,,,,,,,,,,,,,,,,,,,,,,,,,,,,,,,,,,,,,,,,,,,,,,,,,,,,,,,,,,,,,,,,,,,,,,,,,,,,
,,6169e8a8311d269013eb73c7,2024-02-18_20h12.05.395,kallum_motion_pilot,2023.2.2,Win32,59.88023952,6169e8a8311d269013eb73c7,65d2b6c8f2eece985d8e374c,65d2b8dc0b64bbe7b18e2672,0.3081,0.3084,1,76,238,20,1,threeone,,,,,,,,,,,,,,,,,,,,,,,,,,,,,,,,,,,,,,,,,,,,,,,,,,,,,,,,,,,,,,,,,,,,,,,,,,,,,,,,,,,,,,,,,,,,,,,,,,,,,,,,,,,,,,,,,,,,,,,,,,,,,,,,,,,,,,,,,
,,6169e8a8311d269013eb73c7,2024-02-18_20h12.05.395,kallum_motion_pilot,2023.2.2,Win32,59.88023952,6169e8a8311d269013eb73c7,65d2b6c8f2eece985d8e374c,65d2b8dc0b64bbe7b18e2672,0.3089,0.3091,1,77,239,33,1,onethree,,,,,,,,,,,,,,,,,,,,,,,,,,,,,,,,,,,,,,,,,,,,,,,,,,,,,,,,,,,,,,,,,,,,,,,,,,,,,,,,,,,,,,,,,,,,,,,,,,,,,,,,,,,,,,,,,,,,,,,,,,,,,,,,,,,,,,,,,
,,6169e8a8311d269013eb73c7,2024-02-18_20h12.05.395,kallum_motion_pilot,2023.2.2,Win32,59.88023952,6169e8a8311d269013eb73c7,65d2b6c8f2eece985d8e374c,65d2b8dc0b64bbe7b18e2672,0.3095,0.3098,1,78,240,106,1,sixfive,,,,,,,,,,,,,,,,,,,,,,,,,,,,,,,,,,,,,,,,,,,,,,,,,,,,,,,,,,,,,,,,,,,,,,,,,,,,,,,,,,,,,,,,,,,,,,,,,,,,,,,,,,,,,,,,,,,,,,,,,,,,,,,,,,,,,,,,,
,,6169e8a8311d269013eb73c7,2024-02-18_20h12.05.395,kallum_motion_pilot,2023.2.2,Win32,59.88023952,6169e8a8311d269013eb73c7,65d2b6c8f2eece985d8e374c,65d2b8dc0b64bbe7b18e2672,0.3103,0.3105,1,79,241,108,1,sevenfive,,,,,,,,,,,,,,,,,,,,,,,,,,,,,,,,,,,,,,,,,,,,,,,,,,,,,,,,,,,,,,,,,,,,,,,,,,,,,,,,,,,,,,,,,,,,,,,,,,,,,,,,,,,,,,,,,,,,,,,,,,,,,,,,,,,,,,,,,
,,6169e8a8311d269013eb73c7,2024-02-18_20h12.05.395,kallum_motion_pilot,2023.2.2,Win32,59.88023952,6169e8a8311d269013eb73c7,65d2b6c8f2eece985d8e374c,65d2b8dc0b64bbe7b18e2672,0.311,0.3112,1,80,242,136,1,fivesix,,,,,,,,,,,,,,,,,,,,,,,,,,,,,,,,,,,,,,,,,,,,,,,,,,,,,,,,,,,,,,,,,,,,,,,,,,,,,,,,,,,,,,,,,,,,,,,,,,,,,,,,,,,,,,,,,,,,,,,,,,,,,,,,,,,,,,,,,
,,6169e8a8311d269013eb73c7,2024-02-18_20h12.05.395,kallum_motion_pilot,2023.2.2,Win32,59.88023952,6169e8a8311d269013eb73c7,65d2b6c8f2eece985d8e374c,65d2b8dc0b64bbe7b18e2672,0.3117,0.3122,1,81,243,156,1,sevenfive,,,,,,,,,,,,,,,,,,,,,,,,,,,,,,,,,,,,,,,,,,,,,,,,,,,,,,,,,,,,,,,,,,,,,,,,,,,,,,,,,,,,,,,,,,,,,,,,,,,,,,,,,,,,,,,,,,,,,,,,,,,,,,,,,,,,,,,,,
,,6169e8a8311d269013eb73c7,2024-02-18_20h12.05.395,kallum_motion_pilot,2023.2.2,Win32,59.88023952,6169e8a8311d269013eb73c7,65d2b6c8f2eece985d8e374c,65d2b8dc0b64bbe7b18e2672,0.3128,0.3132,1,82,244,19,1,twofour,,,,,,,,,,,,,,,,,,,,,,,,,,,,,,,,,,,,,,,,,,,,,,,,,,,,,,,,,,,,,,,,,,,,,,,,,,,,,,,,,,,,,,,,,,,,,,,,,,,,,,,,,,,,,,,,,,,,,,,,,,,,,,,,,,,,,,,,,
,,6169e8a8311d269013eb73c7,2024-02-18_20h12.05.395,kallum_motion_pilot,2023.2.2,Win32,59.88023952,6169e8a8311d269013eb73c7,65d2b6c8f2eece985d8e374c,65d2b8dc0b64bbe7b18e2672,0.3138,0.314,1,83,245,83,1,sixeight,,,,,,,,,,,,,,,,,,,,,,,,,,,,,,,,,,,,,,,,,,,,,,,,,,,,,,,,,,,,,,,,,,,,,,,,,,,,,,,,,,,,,,,,,,,,,,,,,,,,,,,,,,,,,,,,,,,,,,,,,,,,,,,,,,,,,,,,,
,,6169e8a8311d269013eb73c7,2024-02-18_20h12.05.395,kallum_motion_pilot,2023.2.2,Win32,59.88023952,6169e8a8311d269013eb73c7,65d2b6c8f2eece985d8e374c,65d2b8dc0b64bbe7b18e2672,0.3144,0.3147,1,84,246,145,1,fiveseven,,,,,,,,,,,,,,,,,,,,,,,,,,,,,,,,,,,,,,,,,,,,,,,,,,,,,,,,,,,,,,,,,,,,,,,,,,,,,,,,,,,,,,,,,,,,,,,,,,,,,,,,,,,,,,,,,,,,,,,,,,,,,,,,,,,,,,,,,
,,6169e8a8311d269013eb73c7,2024-02-18_20h12.05.395,kallum_motion_pilot,2023.2.2,Win32,59.88023952,6169e8a8311d269013eb73c7,65d2b6c8f2eece985d8e374c,65d2b8dc0b64bbe7b18e2672,0.315,0.3154,1,85,247,125,1,seveneight,,,,,,,,,,,,,,,,,,,,,,,,,,,,,,,,,,,,,,,,,,,,,,,,,,,,,,,,,,,,,,,,,,,,,,,,,,,,,,,,,,,,,,,,,,,,,,,,,,,,,,,,,,,,,,,,,,,,,,,,,,,,,,,,,,,,,,,,,
,,6169e8a8311d269013eb73c7,2024-02-18_20h12.05.395,kallum_motion_pilot,2023.2.2,Win32,59.88023952,6169e8a8311d269013eb73c7,65d2b6c8f2eece985d8e374c,65d2b8dc0b64bbe7b18e2672,0.3157,0.316,1,86,248,43,1,twofour,,,,,,,,,,,,,,,,,,,,,,,,,,,,,,,,,,,,,,,,,,,,,,,,,,,,,,,,,,,,,,,,,,,,,,,,,,,,,,,,,,,,,,,,,,,,,,,,,,,,,,,,,,,,,,,,,,,,,,,,,,,,,,,,,,,,,,,,,
,,6169e8a8311d269013eb73c7,2024-02-18_20h12.05.395,kallum_motion_pilot,2023.2.2,Win32,59.88023952,6169e8a8311d269013eb73c7,65d2b6c8f2eece985d8e374c,65d2b8dc0b64bbe7b18e2672,0.3163,0.3166,1,87,249,124,1,sevenfive,,,,,,,,,,,,,,,,,,,,,,,,,,,,,,,,,,,,,,,,,,,,,,,,,,,,,,,,,,,,,,,,,,,,,,,,,,,,,,,,,,,,,,,,,,,,,,,,,,,,,,,,,,,,,,,,,,,,,,,,,,,,,,,,,,,,,,,,,
,,6169e8a8311d269013eb73c7,2024-02-18_20h12.05.395,kallum_motion_pilot,2023.2.2,Win32,59.88023952,6169e8a8311d269013eb73c7,65d2b6c8f2eece985d8e374c,65d2b8dc0b64bbe7b18e2672,0.3172,0.3176,1,88,250,126,1,eightsix,,,,,,,,,,,,,,,,,,,,,,,,,,,,,,,,,,,,,,,,,,,,,,,,,,,,,,,,,,,,,,,,,,,,,,,,,,,,,,,,,,,,,,,,,,,,,,,,,,,,,,,,,,,,,,,,,,,,,,,,,,,,,,,,,,,,,,,,,
,,6169e8a8311d269013eb73c7,2024-02-18_20h12.05.395,kallum_motion_pilot,2023.2.2,Win32,59.88023952,6169e8a8311d269013eb73c7,65d2b6c8f2eece985d8e374c,65d2b8dc0b64bbe7b18e2672,0.3181,0.3184,1,89,251,53,1,threefour,,,,,,,,,,,,,,,,,,,,,,,,,,,,,,,,,,,,,,,,,,,,,,,,,,,,,,,,,,,,,,,,,,,,,,,,,,,,,,,,,,,,,,,,,,,,,,,,,,,,,,,,,,,,,,,,,,,,,,,,,,,,,,,,,,,,,,,,,
,,6169e8a8311d269013eb73c7,2024-02-18_20h12.05.395,kallum_motion_pilot,2023.2.2,Win32,59.88023952,6169e8a8311d269013eb73c7,65d2b6c8f2eece985d8e374c,65d2b8dc0b64bbe7b18e2672,0.3189,0.3192,1,90,252,140,1,sevenfive,,,,,,,,,,,,,,,,,,,,,,,,,,,,,,,,,,,,,,,,,,,,,,,,,,,,,,,,,,,,,,,,,,,,,,,,,,,,,,,,,,,,,,,,,,,,,,,,,,,,,,,,,,,,,,,,,,,,,,,,,,,,,,,,,,,,,,,,,
,,6169e8a8311d269013eb73c7,2024-02-18_20h12.05.395,kallum_motion_pilot,2023.2.2,Win32,59.88023952,6169e8a8311d269013eb73c7,65d2b6c8f2eece985d8e374c,65d2b8dc0b64bbe7b18e2672,0.3196,0.3199,1,91,253,132,1,sevenfive,,,,,,,,,,,,,,,,,,,,,,,,,,,,,,,,,,,,,,,,,,,,,,,,,,,,,,,,,,,,,,,,,,,,,,,,,,,,,,,,,,,,,,,,,,,,,,,,,,,,,,,,,,,,,,,,,,,,,,,,,,,,,,,,,,,,,,,,,
,,6169e8a8311d269013eb73c7,2024-02-18_20h12.05.395,kallum_motion_pilot,2023.2.2,Win32,59.88023952,6169e8a8311d269013eb73c7,65d2b6c8f2eece985d8e374c,65d2b8dc0b64bbe7b18e2672,0.3204,0.3206,1,92,254,161,1,fiveseven,,,,,,,,,,,,,,,,,,,,,,,,,,,,,,,,,,,,,,,,,,,,,,,,,,,,,,,,,,,,,,,,,,,,,,,,,,,,,,,,,,,,,,,,,,,,,,,,,,,,,,,,,,,,,,,,,,,,,,,,,,,,,,,,,,,,,,,,,
,,6169e8a8311d269013eb73c7,2024-02-18_20h12.05.395,kallum_motion_pilot,2023.2.2,Win32,59.88023952,6169e8a8311d269013eb73c7,65d2b6c8f2eece985d8e374c,65d2b8dc0b64bbe7b18e2672,0.3214,0.3219,1,93,255,49,1,onethree,,,,,,,,,,,,,,,,,,,,,,,,,,,,,,,,,,,,,,,,,,,,,,,,,,,,,,,,,,,,,,,,,,,,,,,,,,,,,,,,,,,,,,,,,,,,,,,,,,,,,,,,,,,,,,,,,,,,,,,,,,,,,,,,,,,,,,,,,
,,6169e8a8311d269013eb73c7,2024-02-18_20h12.05.395,kallum_motion_pilot,2023.2.2,Win32,59.88023952,6169e8a8311d269013eb73c7,65d2b6c8f2eece985d8e374c,65d2b8dc0b64bbe7b18e2672,0.3224,0.3227,1,94,256,76,1,threeone,,,,,,,,,,,,,,,,,,,,,,,,,,,,,,,,,,,,,,,,,,,,,,,,,,,,,,,,,,,,,,,,,,,,,,,,,,,,,,,,,,,,,,,,,,,,,,,,,,,,,,,,,,,,,,,,,,,,,,,,,,,,,,,,,,,,,,,,,
,,6169e8a8311d269013eb73c7,2024-02-18_20h12.05.395,kallum_motion_pilot,2023.2.2,Win32,59.88023952,6169e8a8311d269013eb73c7,65d2b6c8f2eece985d8e374c,65d2b8dc0b64bbe7b18e2672,0.3236,0.3243,1,95,257,48,1,onetwo,,,,,,,,,,,,,,,,,,,,,,,,,,,,,,,,,,,,,,,,,,,,,,,,,,,,,,,,,,,,,,,,,,,,,,,,,,,,,,,,,,,,,,,,,,,,,,,,,,,,,,,,,,,,,,,,,,,,,,,,,,,,,,,,,,,,,,,,,
,,6169e8a8311d269013eb73c7,2024-02-18_20h12.05.395,kallum_motion_pilot,2023.2.2,Win32,59.88023952,6169e8a8311d269013eb73c7,65d2b6c8f2eece985d8e374c,65d2b8dc0b64bbe7b18e2672,0.325,0.3254,1,96,258,144,1,fivesix,,,,,,,,,,,,,,,,,,,,,,,,,,,,,,,,,,,,,,,,,,,,,,,,,,,,,,,,,,,,,,,,,,,,,,,,,,,,,,,,,,,,,,,,,,,,,,,,,,,,,,,,,,,,,,,,,,,,,,,,,,,,,,,,,,,,,,,,,
,,6169e8a8311d269013eb73c7,2024-02-18_20h12.05.395,kallum_motion_pilot,2023.2.2,Win32,59.88023952,6169e8a8311d269013eb73c7,65d2b6c8f2eece985d8e374c,65d2b8dc0b64bbe7b18e2672,0.326,0.3265,1,97,259,73,1,onethree,,,,,,,,,,,,,,,,,,,,,,,,,,,,,,,,,,,,,,,,,,,,,,,,,,,,,,,,,,,,,,,,,,,,,,,,,,,,,,,,,,,,,,,,,,,,,,,,,,,,,,,,,,,,,,,,,,,,,,,,,,,,,,,,,,,,,,,,,
,,6169e8a8311d269013eb73c7,2024-02-18_20h12.05.395,kallum_motion_pilot,2023.2.2,Win32,59.88023952,6169e8a8311d269013eb73c7,65d2b6c8f2eece985d8e374c,65d2b8dc0b64bbe7b18e2672,0.327,0.3273,1,98,260,27,1,twofour,,,,,,,,,,,,,,,,,,,,,,,,,,,,,,,,,,,,,,,,,,,,,,,,,,,,,,,,,,,,,,,,,,,,,,,,,,,,,,,,,,,,,,,,,,,,,,,,,,,,,,,,,,,,,,,,,,,,,,,,,,,,,,,,,,,,,,,,,
,,6169e8a8311d269013eb73c7,2024-02-18_20h12.05.395,kallum_motion_pilot,2023.2.2,Win32,59.88023952,6169e8a8311d269013eb73c7,65d2b6c8f2eece985d8e374c,65d2b8dc0b64bbe7b18e2672,0.3279,0.3283,1,99,261,6,1,fourtwo,,,,,,,,,,,,,,,,,,,,,,,,,,,,,,,,,,,,,,,,,,,,,,,,,,,,,,,,,,,,,,,,,,,,,,,,,,,,,,,,,,,,,,,,,,,,,,,,,,,,,,,,,,,,,,,,,,,,,,,,,,,,,,,,,,,,,,,,,
,,6169e8a8311d269013eb73c7,2024-02-18_20h12.05.395,kallum_motion_pilot,2023.2.2,Win32,59.88023952,6169e8a8311d269013eb73c7,65d2b6c8f2eece985d8e374c,65d2b8dc0b64bbe7b18e2672,0.3288,0.3292,1,100,262,103,1,eightseven,,,,,,,,,,,,,,,,,,,,,,,,,,,,,,,,,,,,,,,,,,,,,,,,,,,,,,,,,,,,,,,,,,,,,,,,,,,,,,,,,,,,,,,,,,,,,,,,,,,,,,,,,,,,,,,,,,,,,,,,,,,,,,,,,,,,,,,,,
,,6169e8a8311d269013eb73c7,2024-02-18_20h12.05.395,kallum_motion_pilot,2023.2.2,Win32,59.88023952,6169e8a8311d269013eb73c7,65d2b6c8f2eece985d8e374c,65d2b8dc0b64bbe7b18e2672,0.3298,0.3302,1,101,263,119,1,eightseven,,,,,,,,,,,,,,,,,,,,,,,,,,,,,,,,,,,,,,,,,,,,,,,,,,,,,,,,,,,,,,,,,,,,,,,,,,,,,,,,,,,,,,,,,,,,,,,,,,,,,,,,,,,,,,,,,,,,,,,,,,,,,,,,,,,,,,,,,
,,6169e8a8311d269013eb73c7,2024-02-18_20h12.05.395,kallum_motion_pilot,2023.2.2,Win32,59.88023952,6169e8a8311d269013eb73c7,65d2b6c8f2eece985d8e374c,65d2b8dc0b64bbe7b18e2672,0.3314,0.3317,1,102,264,60,1,threeone,,,,,,,,,,,,,,,,,,,,,,,,,,,,,,,,,,,,,,,,,,,,,,,,,,,,,,,,,,,,,,,,,,,,,,,,,,,,,,,,,,,,,,,,,,,,,,,,,,,,,,,,,,,,,,,,,,,,,,,,,,,,,,,,,,,,,,,,,
,,6169e8a8311d269013eb73c7,2024-02-18_20h12.05.395,kallum_motion_pilot,2023.2.2,Win32,59.88023952,6169e8a8311d269013eb73c7,65d2b6c8f2eece985d8e374c,65d2b8dc0b64bbe7b18e2672,0.3327,0.3333,1,103,265,100,1,sevenfive,,,,,,,,,,,,,,,,,,,,,,,,,,,,,,,,,,,,,,,,,,,,,,,,,,,,,,,,,,,,,,,,,,,,,,,,,,,,,,,,,,,,,,,,,,,,,,,,,,,,,,,,,,,,,,,,,,,,,,,,,,,,,,,,,,,,,,,,,
,,6169e8a8311d269013eb73c7,2024-02-18_20h12.05.395,kallum_motion_pilot,2023.2.2,Win32,59.88023952,6169e8a8311d269013eb73c7,65d2b6c8f2eece985d8e374c,65d2b8dc0b64bbe7b18e2672,0.334,0.3345,1,104,266,138,1,sixfive,,,,,,,,,,,,,,,,,,,,,,,,,,,,,,,,,,,,,,,,,,,,,,,,,,,,,,,,,,,,,,,,,,,,,,,,,,,,,,,,,,,,,,,,,,,,,,,,,,,,,,,,,,,,,,,,,,,,,,,,,,,,,,,,,,,,,,,,,
,,6169e8a8311d269013eb73c7,2024-02-18_20h12.05.395,kallum_motion_pilot,2023.2.2,Win32,59.88023952,6169e8a8311d269013eb73c7,65d2b6c8f2eece985d8e374c,65d2b8dc0b64bbe7b18e2672,0.3354,0.3359,1,105,267,64,1,onetwo,,,,,,,,,,,,,,,,,,,,,,,,,,,,,,,,,,,,,,,,,,,,,,,,,,,,,,,,,,,,,,,,,,,,,,,,,,,,,,,,,,,,,,,,,,,,,,,,,,,,,,,,,,,,,,,,,,,,,,,,,,,,,,,,,,,,,,,,,
,,6169e8a8311d269013eb73c7,2024-02-18_20h12.05.395,kallum_motion_pilot,2023.2.2,Win32,59.88023952,6169e8a8311d269013eb73c7,65d2b6c8f2eece985d8e374c,65d2b8dc0b64bbe7b18e2672,0.3366,0.3369,1,106,268,133,1,seveneight,,,,,,,,,,,,,,,,,,,,,,,,,,,,,,,,,,,,,,,,,,,,,,,,,,,,,,,,,,,,,,,,,,,,,,,,,,,,,,,,,,,,,,,,,,,,,,,,,,,,,,,,,,,,,,,,,,,,,,,,,,,,,,,,,,,,,,,,,
,,6169e8a8311d269013eb73c7,2024-02-18_20h12.05.395,kallum_motion_pilot,2023.2.2,Win32,59.88023952,6169e8a8311d269013eb73c7,65d2b6c8f2eece985d8e374c,65d2b8dc0b64bbe7b18e2672,0.3376,0.3381,1,107,269,80,1,fivesix,,,,,,,,,,,,,,,,,,,,,,,,,,,,,,,,,,,,,,,,,,,,,,,,,,,,,,,,,,,,,,,,,,,,,,,,,,,,,,,,,,,,,,,,,,,,,,,,,,,,,,,,,,,,,,,,,,,,,,,,,,,,,,,,,,,,,,,,,
,,6169e8a8311d269013eb73c7,2024-02-18_20h12.05.395,kallum_motion_pilot,2023.2.2,Win32,59.88023952,6169e8a8311d269013eb73c7,65d2b6c8f2eece985d8e374c,65d2b8dc0b64bbe7b18e2672,0.3387,0.3391,1,108,270,154,1,sixfive,,,,,,,,,,,,,,,,,,,,,,,,,,,,,,,,,,,,,,,,,,,,,,,,,,,,,,,,,,,,,,,,,,,,,,,,,,,,,,,,,,,,,,,,,,,,,,,,,,,,,,,,,,,,,,,,,,,,,,,,,,,,,,,,,,,,,,,,,
,,6169e8a8311d269013eb73c7,2024-02-18_20h12.05.395,kallum_motion_pilot,2023.2.2,Win32,59.88023952,6169e8a8311d269013eb73c7,65d2b6c8f2eece985d8e374c,65d2b8dc0b64bbe7b18e2672,0.3399,0.3403,1,109,271,159,1,eightseven,,,,,,,,,,,,,,,,,,,,,,,,,,,,,,,,,,,,,,,,,,,,,,,,,,,,,,,,,,,,,,,,,,,,,,,,,,,,,,,,,,,,,,,,,,,,,,,,,,,,,,,,,,,,,,,,,,,,,,,,,,,,,,,,,,,,,,,,,
,,6169e8a8311d269013eb73c7,2024-02-18_20h12.05.395,kallum_motion_pilot,2023.2.2,Win32,59.88023952,6169e8a8311d269013eb73c7,65d2b6c8f2eece985d8e374c,65d2b8dc0b64bbe7b18e2672,0.3413,0.3417,1,110,272,152,1,fivesix,,,,,,,,,,,,,,,,,,,,,,,,,,,,,,,,,,,,,,,,,,,,,,,,,,,,,,,,,,,,,,,,,,,,,,,,,,,,,,,,,,,,,,,,,,,,,,,,,,,,,,,,,,,,,,,,,,,,,,,,,,,,,,,,,,,,,,,,,
,,6169e8a8311d269013eb73c7,2024-02-18_20h12.05.395,kallum_motion_pilot,2023.2.2,Win32,59.88023952,6169e8a8311d269013eb73c7,65d2b6c8f2eece985d8e374c,65d2b8dc0b64bbe7b18e2672,0.3422,0.3426,1,111,273,22,1,fourtwo,,,,,,,,,,,,,,,,,,,,,,,,,,,,,,,,,,,,,,,,,,,,,,,,,,,,,,,,,,,,,,,,,,,,,,,,,,,,,,,,,,,,,,,,,,,,,,,,,,,,,,,,,,,,,,,,,,,,,,,,,,,,,,,,,,,,,,,,,
,,6169e8a8311d269013eb73c7,2024-02-18_20h12.05.395,kallum_motion_pilot,2023.2.2,Win32,59.88023952,6169e8a8311d269013eb73c7,65d2b6c8f2eece985d8e374c,65d2b8dc0b64bbe7b18e2672,0.3432,0.3435,1,112,274,41,1,onethree,,,,,,,,,,,,,,,,,,,,,,,,,,,,,,,,,,,,,,,,,,,,,,,,,,,,,,,,,,,,,,,,,,,,,,,,,,,,,,,,,,,,,,,,,,,,,,,,,,,,,,,,,,,,,,,,,,,,,,,,,,,,,,,,,,,,,,,,,
,,6169e8a8311d269013eb73c7,2024-02-18_20h12.05.395,kallum_motion_pilot,2023.2.2,Win32,59.88023952,6169e8a8311d269013eb73c7,65d2b6c8f2eece985d8e374c,65d2b8dc0b64bbe7b18e2672,0.344,0.3443,1,113,275,149,1,seveneight,,,,,,,,,,,,,,,,,,,,,,,,,,,,,,,,,,,,,,,,,,,,,,,,,,,,,,,,,,,,,,,,,,,,,,,,,,,,,,,,,,,,,,,,,,,,,,,,,,,,,,,,,,,,,,,,,,,,,,,,,,,,,,,,,,,,,,,,,
,,6169e8a8311d269013eb73c7,2024-02-18_20h12.05.395,kallum_motion_pilot,2023.2.2,Win32,59.88023952,6169e8a8311d269013eb73c7,65d2b6c8f2eece985d8e374c,65d2b8dc0b64bbe7b18e2672,0.3447,0.3449,1,114,276,8,1,onetwo,,,,,,,,,,,,,,,,,,,,,,,,,,,,,,,,,,,,,,,,,,,,,,,,,,,,,,,,,,,,,,,,,,,,,,,,,,,,,,,,,,,,,,,,,,,,,,,,,,,,,,,,,,,,,,,,,,,,,,,,,,,,,,,,,,,,,,,,,
,,6169e8a8311d269013eb73c7,2024-02-18_20h12.05.395,kallum_motion_pilot,2023.2.2,Win32,59.88023952,6169e8a8311d269013eb73c7,65d2b6c8f2eece985d8e374c,65d2b8dc0b64bbe7b18e2672,0.3454,0.3456,1,115,277,4,1,threeone,,,,,,,,,,,,,,,,,,,,,,,,,,,,,,,,,,,,,,,,,,,,,,,,,,,,,,,,,,,,,,,,,,,,,,,,,,,,,,,,,,,,,,,,,,,,,,,,,,,,,,,,,,,,,,,,,,,,,,,,,,,,,,,,,,,,,,,,,
