startup.started,startup.stopped,Prolific ID*,date,expName,psychopyVersion,OS,frameRate,participant,study_id,session,stimpositions.started,stimpositions.stopped,hardcoded_stimulus_positions.thisRepN,hardcoded_stimulus_positions.thisTrialN,hardcoded_stimulus_positions.thisN,hardcoded_stimulus_positions.thisIndex,hardcoded_stimulus_positions.ran,StimulusPos,stimorientation.started,stimorientation.stopped,prac_stimorientation_import_loop.thisRepN,prac_stimorientation_import_loop.thisTrialN,prac_stimorientation_import_loop.thisN,prac_stimorientation_import_loop.thisIndex,prac_stimorientation_import_loop.ran,Stimorientation,welcome_instr.started,welcome_instr.stopped,key_resp.keys,key_resp.rt,key_resp.duration,response_steppedout_1.started,response_steppedout_1.stopped,key_resp_20.keys,key_resp_20.rt,key_resp_20.duration,response_steppedout_2.started,response_steppedout_2.stopped,key_resp_19.keys,key_resp_19.rt,key_resp_19.duration,stim_response_instr.started,stim_response_instr.stopped,key_resp_15.keys,key_resp_15.rt,key_resp_15.duration,direction_instr_2.started,direction_instr_2.stopped,key_resp_9.keys,key_resp_9.rt,key_resp_9.duration,instr_prac.started,instr_prac.stopped,key_resp_10.keys,key_resp_10.rt,key_resp_10.duration,Stim1_display_prac.started,Stim1_display_prac.stopped,Ecc,Circle1_ori,Circle2_ori,response_prac.started,similarity,response_time,response_prac.stopped,mouse_5.x,mouse_5.y,mouse_5.leftButton,mouse_5.midButton,mouse_5.rightButton,mouse_5.clicked_name,responseprac_feedback.started,responseprac_feedback.stopped,summary2_prac.started,summary2_prac.stopped,mouse_6.x,mouse_6.y,mouse_6.leftButton,mouse_6.midButton,mouse_6.rightButton,mouse_6.clicked_name,duringprac.thisRepN,duringprac.thisTrialN,duringprac.thisN,duringprac.thisIndex,duringprac.ran,begin.started,begin.stopped,key_resp_22.keys,key_resp_22.rt,key_resp_22.duration,Stim1_display.started,Stim1_display.stopped,circle1_ori,circle2_ori,circle1_SF,circle2_SF,response.started,response.stopped,mouse.x,mouse.y,mouse.leftButton,mouse.midButton,mouse.rightButton,mouse.clicked_name,trialnumber,double_pass.thisRepN,double_pass.thisTrialN,double_pass.thisN,double_pass.thisIndex,double_pass.ran,double_pass.order,main_trial.thisRepN,main_trial.thisTrialN,main_trial.thisN,main_trial.thisIndex,main_trial.ran,main_trial.order,Trial_Counter,Catch,Frequencies,response_2.started,response_2.stopped,mouse_2.x,mouse_2.y,mouse_2.leftButton,mouse_2.midButton,mouse_2.rightButton,mouse_2.clicked_name,special_trial.started,special_trial.stopped,catch_1.started,catch_1.stopped,mouse_3.x,mouse_3.y,mouse_3.leftButton,mouse_3.midButton,mouse_3.rightButton,catchresponse,catchnumber,response_time_catch,response_sum.started,response_sum.stopped,mouse_11.x,mouse_11.y,mouse_11.leftButton,mouse_11.midButton,mouse_11.rightButton,flip_presentation_sequence_for_double_pass.started,flip_presentation_sequence_for_double_pass.stopped,goodbye.started,goodbye.stopped,key_resp_3.keys,key_resp_3.rt,key_resp_3.duration
0.0004,0.0006,616ae3f893864f417b704e95,2024-02-21_21h29.02.505,kallum_motion_pilot,2023.2.2,Win32,59.88023952,616ae3f893864f417b704e95,65d6bb0e977760de756971f7,65d6bf11265c1952ee891fd3,,,,,,,,,,,,,,,,,,,,,,,,,,,,,,,,,,,,,,,,,,,,,,,,,,,,,,,,,,,,,,,,,,,,,,,,,,,,,,,,,,,,,,,,,,,,,,,,,,,,,,,,,,,,,,,,,,,,,,,,,,,,,,,,,,,,,,,,,,,,,,,,,
,,616ae3f893864f417b704e95,2024-02-21_21h29.02.505,kallum_motion_pilot,2023.2.2,Win32,59.88023952,616ae3f893864f417b704e95,65d6bb0e977760de756971f7,65d6bf11265c1952ee891fd3,0.0445,0.0448,0,0,0,51,1,twofour,,,,,,,,,,,,,,,,,,,,,,,,,,,,,,,,,,,,,,,,,,,,,,,,,,,,,,,,,,,,,,,,,,,,,,,,,,,,,,,,,,,,,,,,,,,,,,,,,,,,,,,,,,,,,,,,,,,,,,,,,,,,,,,,,,,,,,,,,
,,616ae3f893864f417b704e95,2024-02-21_21h29.02.505,kallum_motion_pilot,2023.2.2,Win32,59.88023952,616ae3f893864f417b704e95,65d6bb0e977760de756971f7,65d6bf11265c1952ee891fd3,0.0451,0.0451,0,1,1,3,1,twofour,,,,,,,,,,,,,,,,,,,,,,,,,,,,,,,,,,,,,,,,,,,,,,,,,,,,,,,,,,,,,,,,,,,,,,,,,,,,,,,,,,,,,,,,,,,,,,,,,,,,,,,,,,,,,,,,,,,,,,,,,,,,,,,,,,,,,,,,,
,,616ae3f893864f417b704e95,2024-02-21_21h29.02.505,kallum_motion_pilot,2023.2.2,Win32,59.88023952,616ae3f893864f417b704e95,65d6bb0e977760de756971f7,65d6bf11265c1952ee891fd3,0.0454,0.0455,0,2,2,125,1,seveneight,,,,,,,,,,,,,,,,,,,,,,,,,,,,,,,,,,,,,,,,,,,,,,,,,,,,,,,,,,,,,,,,,,,,,,,,,,,,,,,,,,,,,,,,,,,,,,,,,,,,,,,,,,,,,,,,,,,,,,,,,,,,,,,,,,,,,,,,,
,,616ae3f893864f417b704e95,2024-02-21_21h29.02.505,kallum_motion_pilot,2023.2.2,Win32,59.88023952,616ae3f893864f417b704e95,65d6bb0e977760de756971f7,65d6bf11265c1952ee891fd3,0.0457,0.0458,0,3,3,52,1,threeone,,,,,,,,,,,,,,,,,,,,,,,,,,,,,,,,,,,,,,,,,,,,,,,,,,,,,,,,,,,,,,,,,,,,,,,,,,,,,,,,,,,,,,,,,,,,,,,,,,,,,,,,,,,,,,,,,,,,,,,,,,,,,,,,,,,,,,,,,
,,616ae3f893864f417b704e95,2024-02-21_21h29.02.505,kallum_motion_pilot,2023.2.2,Win32,59.88023952,616ae3f893864f417b704e95,65d6bb0e977760de756971f7,65d6bf11265c1952ee891fd3,0.046,0.046,0,4,4,126,1,eightsix,,,,,,,,,,,,,,,,,,,,,,,,,,,,,,,,,,,,,,,,,,,,,,,,,,,,,,,,,,,,,,,,,,,,,,,,,,,,,,,,,,,,,,,,,,,,,,,,,,,,,,,,,,,,,,,,,,,,,,,,,,,,,,,,,,,,,,,,,
,,616ae3f893864f417b704e95,2024-02-21_21h29.02.505,kallum_motion_pilot,2023.2.2,Win32,59.88023952,616ae3f893864f417b704e95,65d6bb0e977760de756971f7,65d6bf11265c1952ee891fd3,0.0463,0.0464,0,5,5,42,1,twoone,,,,,,,,,,,,,,,,,,,,,,,,,,,,,,,,,,,,,,,,,,,,,,,,,,,,,,,,,,,,,,,,,,,,,,,,,,,,,,,,,,,,,,,,,,,,,,,,,,,,,,,,,,,,,,,,,,,,,,,,,,,,,,,,,,,,,,,,,
,,616ae3f893864f417b704e95,2024-02-21_21h29.02.505,kallum_motion_pilot,2023.2.2,Win32,59.88023952,616ae3f893864f417b704e95,65d6bb0e977760de756971f7,65d6bf11265c1952ee891fd3,0.0465,0.0465,0,6,6,124,1,sevenfive,,,,,,,,,,,,,,,,,,,,,,,,,,,,,,,,,,,,,,,,,,,,,,,,,,,,,,,,,,,,,,,,,,,,,,,,,,,,,,,,,,,,,,,,,,,,,,,,,,,,,,,,,,,,,,,,,,,,,,,,,,,,,,,,,,,,,,,,,
,,616ae3f893864f417b704e95,2024-02-21_21h29.02.505,kallum_motion_pilot,2023.2.2,Win32,59.88023952,616ae3f893864f417b704e95,65d6bb0e977760de756971f7,65d6bf11265c1952ee891fd3,0.0468,0.0468,0,7,7,144,1,fivesix,,,,,,,,,,,,,,,,,,,,,,,,,,,,,,,,,,,,,,,,,,,,,,,,,,,,,,,,,,,,,,,,,,,,,,,,,,,,,,,,,,,,,,,,,,,,,,,,,,,,,,,,,,,,,,,,,,,,,,,,,,,,,,,,,,,,,,,,,
,,616ae3f893864f417b704e95,2024-02-21_21h29.02.505,kallum_motion_pilot,2023.2.2,Win32,59.88023952,616ae3f893864f417b704e95,65d6bb0e977760de756971f7,65d6bf11265c1952ee891fd3,0.0471,0.0472,0,8,8,95,1,eightseven,,,,,,,,,,,,,,,,,,,,,,,,,,,,,,,,,,,,,,,,,,,,,,,,,,,,,,,,,,,,,,,,,,,,,,,,,,,,,,,,,,,,,,,,,,,,,,,,,,,,,,,,,,,,,,,,,,,,,,,,,,,,,,,,,,,,,,,,,
,,616ae3f893864f417b704e95,2024-02-21_21h29.02.505,kallum_motion_pilot,2023.2.2,Win32,59.88023952,616ae3f893864f417b704e95,65d6bb0e977760de756971f7,65d6bf11265c1952ee891fd3,0.0475,0.0475,0,9,9,47,1,fourthree,,,,,,,,,,,,,,,,,,,,,,,,,,,,,,,,,,,,,,,,,,,,,,,,,,,,,,,,,,,,,,,,,,,,,,,,,,,,,,,,,,,,,,,,,,,,,,,,,,,,,,,,,,,,,,,,,,,,,,,,,,,,,,,,,,,,,,,,,
,,616ae3f893864f417b704e95,2024-02-21_21h29.02.505,kallum_motion_pilot,2023.2.2,Win32,59.88023952,616ae3f893864f417b704e95,65d6bb0e977760de756971f7,65d6bf11265c1952ee891fd3,0.0477,0.0478,0,10,10,98,1,sixfive,,,,,,,,,,,,,,,,,,,,,,,,,,,,,,,,,,,,,,,,,,,,,,,,,,,,,,,,,,,,,,,,,,,,,,,,,,,,,,,,,,,,,,,,,,,,,,,,,,,,,,,,,,,,,,,,,,,,,,,,,,,,,,,,,,,,,,,,,
,,616ae3f893864f417b704e95,2024-02-21_21h29.02.505,kallum_motion_pilot,2023.2.2,Win32,59.88023952,616ae3f893864f417b704e95,65d6bb0e977760de756971f7,65d6bf11265c1952ee891fd3,0.0481,0.0482,0,11,11,45,1,threefour,,,,,,,,,,,,,,,,,,,,,,,,,,,,,,,,,,,,,,,,,,,,,,,,,,,,,,,,,,,,,,,,,,,,,,,,,,,,,,,,,,,,,,,,,,,,,,,,,,,,,,,,,,,,,,,,,,,,,,,,,,,,,,,,,,,,,,,,,
,,616ae3f893864f417b704e95,2024-02-21_21h29.02.505,kallum_motion_pilot,2023.2.2,Win32,59.88023952,616ae3f893864f417b704e95,65d6bb0e977760de756971f7,65d6bf11265c1952ee891fd3,0.0484,0.0484,0,12,12,94,1,eightsix,,,,,,,,,,,,,,,,,,,,,,,,,,,,,,,,,,,,,,,,,,,,,,,,,,,,,,,,,,,,,,,,,,,,,,,,,,,,,,,,,,,,,,,,,,,,,,,,,,,,,,,,,,,,,,,,,,,,,,,,,,,,,,,,,,,,,,,,,
,,616ae3f893864f417b704e95,2024-02-21_21h29.02.505,kallum_motion_pilot,2023.2.2,Win32,59.88023952,616ae3f893864f417b704e95,65d6bb0e977760de756971f7,65d6bf11265c1952ee891fd3,0.0485,0.0487,0,13,13,147,1,sixeight,,,,,,,,,,,,,,,,,,,,,,,,,,,,,,,,,,,,,,,,,,,,,,,,,,,,,,,,,,,,,,,,,,,,,,,,,,,,,,,,,,,,,,,,,,,,,,,,,,,,,,,,,,,,,,,,,,,,,,,,,,,,,,,,,,,,,,,,,
,,616ae3f893864f417b704e95,2024-02-21_21h29.02.505,kallum_motion_pilot,2023.2.2,Win32,59.88023952,616ae3f893864f417b704e95,65d6bb0e977760de756971f7,65d6bf11265c1952ee891fd3,0.0487,0.0488,0,14,14,30,1,fourtwo,,,,,,,,,,,,,,,,,,,,,,,,,,,,,,,,,,,,,,,,,,,,,,,,,,,,,,,,,,,,,,,,,,,,,,,,,,,,,,,,,,,,,,,,,,,,,,,,,,,,,,,,,,,,,,,,,,,,,,,,,,,,,,,,,,,,,,,,,
,,616ae3f893864f417b704e95,2024-02-21_21h29.02.505,kallum_motion_pilot,2023.2.2,Win32,59.88023952,616ae3f893864f417b704e95,65d6bb0e977760de756971f7,65d6bf11265c1952ee891fd3,0.0489,0.0491,0,15,15,19,1,twofour,,,,,,,,,,,,,,,,,,,,,,,,,,,,,,,,,,,,,,,,,,,,,,,,,,,,,,,,,,,,,,,,,,,,,,,,,,,,,,,,,,,,,,,,,,,,,,,,,,,,,,,,,,,,,,,,,,,,,,,,,,,,,,,,,,,,,,,,,
,,616ae3f893864f417b704e95,2024-02-21_21h29.02.505,kallum_motion_pilot,2023.2.2,Win32,59.88023952,616ae3f893864f417b704e95,65d6bb0e977760de756971f7,65d6bf11265c1952ee891fd3,0.0492,0.0492,0,16,16,17,1,onethree,,,,,,,,,,,,,,,,,,,,,,,,,,,,,,,,,,,,,,,,,,,,,,,,,,,,,,,,,,,,,,,,,,,,,,,,,,,,,,,,,,,,,,,,,,,,,,,,,,,,,,,,,,,,,,,,,,,,,,,,,,,,,,,,,,,,,,,,,
,,616ae3f893864f417b704e95,2024-02-21_21h29.02.505,kallum_motion_pilot,2023.2.2,Win32,59.88023952,616ae3f893864f417b704e95,65d6bb0e977760de756971f7,65d6bf11265c1952ee891fd3,0.0493,0.0494,0,17,17,132,1,sevenfive,,,,,,,,,,,,,,,,,,,,,,,,,,,,,,,,,,,,,,,,,,,,,,,,,,,,,,,,,,,,,,,,,,,,,,,,,,,,,,,,,,,,,,,,,,,,,,,,,,,,,,,,,,,,,,,,,,,,,,,,,,,,,,,,,,,,,,,,,
,,616ae3f893864f417b704e95,2024-02-21_21h29.02.505,kallum_motion_pilot,2023.2.2,Win32,59.88023952,616ae3f893864f417b704e95,65d6bb0e977760de756971f7,65d6bf11265c1952ee891fd3,0.0496,0.0496,0,18,18,64,1,onetwo,,,,,,,,,,,,,,,,,,,,,,,,,,,,,,,,,,,,,,,,,,,,,,,,,,,,,,,,,,,,,,,,,,,,,,,,,,,,,,,,,,,,,,,,,,,,,,,,,,,,,,,,,,,,,,,,,,,,,,,,,,,,,,,,,,,,,,,,,
,,616ae3f893864f417b704e95,2024-02-21_21h29.02.505,kallum_motion_pilot,2023.2.2,Win32,59.88023952,616ae3f893864f417b704e95,65d6bb0e977760de756971f7,65d6bf11265c1952ee891fd3,0.0498,0.0498,0,19,19,115,1,sixeight,,,,,,,,,,,,,,,,,,,,,,,,,,,,,,,,,,,,,,,,,,,,,,,,,,,,,,,,,,,,,,,,,,,,,,,,,,,,,,,,,,,,,,,,,,,,,,,,,,,,,,,,,,,,,,,,,,,,,,,,,,,,,,,,,,,,,,,,,
,,616ae3f893864f417b704e95,2024-02-21_21h29.02.505,kallum_motion_pilot,2023.2.2,Win32,59.88023952,616ae3f893864f417b704e95,65d6bb0e977760de756971f7,65d6bf11265c1952ee891fd3,0.0499,0.05,0,20,20,103,1,eightseven,,,,,,,,,,,,,,,,,,,,,,,,,,,,,,,,,,,,,,,,,,,,,,,,,,,,,,,,,,,,,,,,,,,,,,,,,,,,,,,,,,,,,,,,,,,,,,,,,,,,,,,,,,,,,,,,,,,,,,,,,,,,,,,,,,,,,,,,,
,,616ae3f893864f417b704e95,2024-02-21_21h29.02.505,kallum_motion_pilot,2023.2.2,Win32,59.88023952,616ae3f893864f417b704e95,65d6bb0e977760de756971f7,65d6bf11265c1952ee891fd3,0.0501,0.0502,0,21,21,20,1,threeone,,,,,,,,,,,,,,,,,,,,,,,,,,,,,,,,,,,,,,,,,,,,,,,,,,,,,,,,,,,,,,,,,,,,,,,,,,,,,,,,,,,,,,,,,,,,,,,,,,,,,,,,,,,,,,,,,,,,,,,,,,,,,,,,,,,,,,,,,
,,616ae3f893864f417b704e95,2024-02-21_21h29.02.505,kallum_motion_pilot,2023.2.2,Win32,59.88023952,616ae3f893864f417b704e95,65d6bb0e977760de756971f7,65d6bf11265c1952ee891fd3,0.0503,0.0503,0,22,22,131,1,sixeight,,,,,,,,,,,,,,,,,,,,,,,,,,,,,,,,,,,,,,,,,,,,,,,,,,,,,,,,,,,,,,,,,,,,,,,,,,,,,,,,,,,,,,,,,,,,,,,,,,,,,,,,,,,,,,,,,,,,,,,,,,,,,,,,,,,,,,,,,
,,616ae3f893864f417b704e95,2024-02-21_21h29.02.505,kallum_motion_pilot,2023.2.2,Win32,59.88023952,616ae3f893864f417b704e95,65d6bb0e977760de756971f7,65d6bf11265c1952ee891fd3,0.0504,0.0506,0,23,23,67,1,twofour,,,,,,,,,,,,,,,,,,,,,,,,,,,,,,,,,,,,,,,,,,,,,,,,,,,,,,,,,,,,,,,,,,,,,,,,,,,,,,,,,,,,,,,,,,,,,,,,,,,,,,,,,,,,,,,,,,,,,,,,,,,,,,,,,,,,,,,,,
,,616ae3f893864f417b704e95,2024-02-21_21h29.02.505,kallum_motion_pilot,2023.2.2,Win32,59.88023952,616ae3f893864f417b704e95,65d6bb0e977760de756971f7,65d6bf11265c1952ee891fd3,0.0509,0.0509,0,24,24,93,1,seveneight,,,,,,,,,,,,,,,,,,,,,,,,,,,,,,,,,,,,,,,,,,,,,,,,,,,,,,,,,,,,,,,,,,,,,,,,,,,,,,,,,,,,,,,,,,,,,,,,,,,,,,,,,,,,,,,,,,,,,,,,,,,,,,,,,,,,,,,,,
,,616ae3f893864f417b704e95,2024-02-21_21h29.02.505,kallum_motion_pilot,2023.2.2,Win32,59.88023952,616ae3f893864f417b704e95,65d6bb0e977760de756971f7,65d6bf11265c1952ee891fd3,0.0512,0.0513,0,25,25,36,1,threeone,,,,,,,,,,,,,,,,,,,,,,,,,,,,,,,,,,,,,,,,,,,,,,,,,,,,,,,,,,,,,,,,,,,,,,,,,,,,,,,,,,,,,,,,,,,,,,,,,,,,,,,,,,,,,,,,,,,,,,,,,,,,,,,,,,,,,,,,,
,,616ae3f893864f417b704e95,2024-02-21_21h29.02.505,kallum_motion_pilot,2023.2.2,Win32,59.88023952,616ae3f893864f417b704e95,65d6bb0e977760de756971f7,65d6bf11265c1952ee891fd3,0.0514,0.0515,0,26,26,77,1,threefour,,,,,,,,,,,,,,,,,,,,,,,,,,,,,,,,,,,,,,,,,,,,,,,,,,,,,,,,,,,,,,,,,,,,,,,,,,,,,,,,,,,,,,,,,,,,,,,,,,,,,,,,,,,,,,,,,,,,,,,,,,,,,,,,,,,,,,,,,
,,616ae3f893864f417b704e95,2024-02-21_21h29.02.505,kallum_motion_pilot,2023.2.2,Win32,59.88023952,616ae3f893864f417b704e95,65d6bb0e977760de756971f7,65d6bf11265c1952ee891fd3,0.0517,0.0518,0,27,27,123,1,sixeight,,,,,,,,,,,,,,,,,,,,,,,,,,,,,,,,,,,,,,,,,,,,,,,,,,,,,,,,,,,,,,,,,,,,,,,,,,,,,,,,,,,,,,,,,,,,,,,,,,,,,,,,,,,,,,,,,,,,,,,,,,,,,,,,,,,,,,,,,
,,616ae3f893864f417b704e95,2024-02-21_21h29.02.505,kallum_motion_pilot,2023.2.2,Win32,59.88023952,616ae3f893864f417b704e95,65d6bb0e977760de756971f7,65d6bf11265c1952ee891fd3,0.0519,0.052,0,28,28,11,1,twofour,,,,,,,,,,,,,,,,,,,,,,,,,,,,,,,,,,,,,,,,,,,,,,,,,,,,,,,,,,,,,,,,,,,,,,,,,,,,,,,,,,,,,,,,,,,,,,,,,,,,,,,,,,,,,,,,,,,,,,,,,,,,,,,,,,,,,,,,,
,,616ae3f893864f417b704e95,2024-02-21_21h29.02.505,kallum_motion_pilot,2023.2.2,Win32,59.88023952,616ae3f893864f417b704e95,65d6bb0e977760de756971f7,65d6bf11265c1952ee891fd3,0.0522,0.0522,0,29,29,82,1,sixfive,,,,,,,,,,,,,,,,,,,,,,,,,,,,,,,,,,,,,,,,,,,,,,,,,,,,,,,,,,,,,,,,,,,,,,,,,,,,,,,,,,,,,,,,,,,,,,,,,,,,,,,,,,,,,,,,,,,,,,,,,,,,,,,,,,,,,,,,,
,,616ae3f893864f417b704e95,2024-02-21_21h29.02.505,kallum_motion_pilot,2023.2.2,Win32,59.88023952,616ae3f893864f417b704e95,65d6bb0e977760de756971f7,65d6bf11265c1952ee891fd3,0.0524,0.0524,0,30,30,7,1,fourthree,,,,,,,,,,,,,,,,,,,,,,,,,,,,,,,,,,,,,,,,,,,,,,,,,,,,,,,,,,,,,,,,,,,,,,,,,,,,,,,,,,,,,,,,,,,,,,,,,,,,,,,,,,,,,,,,,,,,,,,,,,,,,,,,,,,,,,,,,
,,616ae3f893864f417b704e95,2024-02-21_21h29.02.505,kallum_motion_pilot,2023.2.2,Win32,59.88023952,616ae3f893864f417b704e95,65d6bb0e977760de756971f7,65d6bf11265c1952ee891fd3,0.0526,0.0527,0,31,31,74,1,twoone,,,,,,,,,,,,,,,,,,,,,,,,,,,,,,,,,,,,,,,,,,,,,,,,,,,,,,,,,,,,,,,,,,,,,,,,,,,,,,,,,,,,,,,,,,,,,,,,,,,,,,,,,,,,,,,,,,,,,,,,,,,,,,,,,,,,,,,,,
,,616ae3f893864f417b704e95,2024-02-21_21h29.02.505,kallum_motion_pilot,2023.2.2,Win32,59.88023952,616ae3f893864f417b704e95,65d6bb0e977760de756971f7,65d6bf11265c1952ee891fd3,0.0529,0.053,0,32,32,27,1,twofour,,,,,,,,,,,,,,,,,,,,,,,,,,,,,,,,,,,,,,,,,,,,,,,,,,,,,,,,,,,,,,,,,,,,,,,,,,,,,,,,,,,,,,,,,,,,,,,,,,,,,,,,,,,,,,,,,,,,,,,,,,,,,,,,,,,,,,,,,
,,616ae3f893864f417b704e95,2024-02-21_21h29.02.505,kallum_motion_pilot,2023.2.2,Win32,59.88023952,616ae3f893864f417b704e95,65d6bb0e977760de756971f7,65d6bf11265c1952ee891fd3,0.0531,0.0532,0,33,33,38,1,fourtwo,,,,,,,,,,,,,,,,,,,,,,,,,,,,,,,,,,,,,,,,,,,,,,,,,,,,,,,,,,,,,,,,,,,,,,,,,,,,,,,,,,,,,,,,,,,,,,,,,,,,,,,,,,,,,,,,,,,,,,,,,,,,,,,,,,,,,,,,,
,,616ae3f893864f417b704e95,2024-02-21_21h29.02.505,kallum_motion_pilot,2023.2.2,Win32,59.88023952,616ae3f893864f417b704e95,65d6bb0e977760de756971f7,65d6bf11265c1952ee891fd3,0.0533,0.0534,0,34,34,62,1,fourtwo,,,,,,,,,,,,,,,,,,,,,,,,,,,,,,,,,,,,,,,,,,,,,,,,,,,,,,,,,,,,,,,,,,,,,,,,,,,,,,,,,,,,,,,,,,,,,,,,,,,,,,,,,,,,,,,,,,,,,,,,,,,,,,,,,,,,,,,,,
,,616ae3f893864f417b704e95,2024-02-21_21h29.02.505,kallum_motion_pilot,2023.2.2,Win32,59.88023952,616ae3f893864f417b704e95,65d6bb0e977760de756971f7,65d6bf11265c1952ee891fd3,0.0536,0.0537,0,35,35,158,1,eightsix,,,,,,,,,,,,,,,,,,,,,,,,,,,,,,,,,,,,,,,,,,,,,,,,,,,,,,,,,,,,,,,,,,,,,,,,,,,,,,,,,,,,,,,,,,,,,,,,,,,,,,,,,,,,,,,,,,,,,,,,,,,,,,,,,,,,,,,,,
,,616ae3f893864f417b704e95,2024-02-21_21h29.02.505,kallum_motion_pilot,2023.2.2,Win32,59.88023952,616ae3f893864f417b704e95,65d6bb0e977760de756971f7,65d6bf11265c1952ee891fd3,0.054,0.0544,0,36,36,134,1,eightsix,,,,,,,,,,,,,,,,,,,,,,,,,,,,,,,,,,,,,,,,,,,,,,,,,,,,,,,,,,,,,,,,,,,,,,,,,,,,,,,,,,,,,,,,,,,,,,,,,,,,,,,,,,,,,,,,,,,,,,,,,,,,,,,,,,,,,,,,,
,,616ae3f893864f417b704e95,2024-02-21_21h29.02.505,kallum_motion_pilot,2023.2.2,Win32,59.88023952,616ae3f893864f417b704e95,65d6bb0e977760de756971f7,65d6bf11265c1952ee891fd3,0.0547,0.0551,0,37,37,34,1,twoone,,,,,,,,,,,,,,,,,,,,,,,,,,,,,,,,,,,,,,,,,,,,,,,,,,,,,,,,,,,,,,,,,,,,,,,,,,,,,,,,,,,,,,,,,,,,,,,,,,,,,,,,,,,,,,,,,,,,,,,,,,,,,,,,,,,,,,,,,
,,616ae3f893864f417b704e95,2024-02-21_21h29.02.505,kallum_motion_pilot,2023.2.2,Win32,59.88023952,616ae3f893864f417b704e95,65d6bb0e977760de756971f7,65d6bf11265c1952ee891fd3,0.0559,0.0562,0,38,38,1,1,onethree,,,,,,,,,,,,,,,,,,,,,,,,,,,,,,,,,,,,,,,,,,,,,,,,,,,,,,,,,,,,,,,,,,,,,,,,,,,,,,,,,,,,,,,,,,,,,,,,,,,,,,,,,,,,,,,,,,,,,,,,,,,,,,,,,,,,,,,,,
,,616ae3f893864f417b704e95,2024-02-21_21h29.02.505,kallum_motion_pilot,2023.2.2,Win32,59.88023952,616ae3f893864f417b704e95,65d6bb0e977760de756971f7,65d6bf11265c1952ee891fd3,0.0565,0.0566,0,39,39,28,1,threeone,,,,,,,,,,,,,,,,,,,,,,,,,,,,,,,,,,,,,,,,,,,,,,,,,,,,,,,,,,,,,,,,,,,,,,,,,,,,,,,,,,,,,,,,,,,,,,,,,,,,,,,,,,,,,,,,,,,,,,,,,,,,,,,,,,,,,,,,,
,,616ae3f893864f417b704e95,2024-02-21_21h29.02.505,kallum_motion_pilot,2023.2.2,Win32,59.88023952,616ae3f893864f417b704e95,65d6bb0e977760de756971f7,65d6bf11265c1952ee891fd3,0.0568,0.0568,0,40,40,157,1,seveneight,,,,,,,,,,,,,,,,,,,,,,,,,,,,,,,,,,,,,,,,,,,,,,,,,,,,,,,,,,,,,,,,,,,,,,,,,,,,,,,,,,,,,,,,,,,,,,,,,,,,,,,,,,,,,,,,,,,,,,,,,,,,,,,,,,,,,,,,,
,,616ae3f893864f417b704e95,2024-02-21_21h29.02.505,kallum_motion_pilot,2023.2.2,Win32,59.88023952,616ae3f893864f417b704e95,65d6bb0e977760de756971f7,65d6bf11265c1952ee891fd3,0.057,0.057,0,41,41,26,1,twoone,,,,,,,,,,,,,,,,,,,,,,,,,,,,,,,,,,,,,,,,,,,,,,,,,,,,,,,,,,,,,,,,,,,,,,,,,,,,,,,,,,,,,,,,,,,,,,,,,,,,,,,,,,,,,,,,,,,,,,,,,,,,,,,,,,,,,,,,,
,,616ae3f893864f417b704e95,2024-02-21_21h29.02.505,kallum_motion_pilot,2023.2.2,Win32,59.88023952,616ae3f893864f417b704e95,65d6bb0e977760de756971f7,65d6bf11265c1952ee891fd3,0.0572,0.0573,0,42,42,84,1,sevenfive,,,,,,,,,,,,,,,,,,,,,,,,,,,,,,,,,,,,,,,,,,,,,,,,,,,,,,,,,,,,,,,,,,,,,,,,,,,,,,,,,,,,,,,,,,,,,,,,,,,,,,,,,,,,,,,,,,,,,,,,,,,,,,,,,,,,,,,,,
,,616ae3f893864f417b704e95,2024-02-21_21h29.02.505,kallum_motion_pilot,2023.2.2,Win32,59.88023952,616ae3f893864f417b704e95,65d6bb0e977760de756971f7,65d6bf11265c1952ee891fd3,0.0575,0.0575,0,43,43,128,1,fivesix,,,,,,,,,,,,,,,,,,,,,,,,,,,,,,,,,,,,,,,,,,,,,,,,,,,,,,,,,,,,,,,,,,,,,,,,,,,,,,,,,,,,,,,,,,,,,,,,,,,,,,,,,,,,,,,,,,,,,,,,,,,,,,,,,,,,,,,,,
,,616ae3f893864f417b704e95,2024-02-21_21h29.02.505,kallum_motion_pilot,2023.2.2,Win32,59.88023952,616ae3f893864f417b704e95,65d6bb0e977760de756971f7,65d6bf11265c1952ee891fd3,0.0577,0.0577,0,44,44,154,1,sixfive,,,,,,,,,,,,,,,,,,,,,,,,,,,,,,,,,,,,,,,,,,,,,,,,,,,,,,,,,,,,,,,,,,,,,,,,,,,,,,,,,,,,,,,,,,,,,,,,,,,,,,,,,,,,,,,,,,,,,,,,,,,,,,,,,,,,,,,,,
,,616ae3f893864f417b704e95,2024-02-21_21h29.02.505,kallum_motion_pilot,2023.2.2,Win32,59.88023952,616ae3f893864f417b704e95,65d6bb0e977760de756971f7,65d6bf11265c1952ee891fd3,0.0579,0.058,0,45,45,40,1,onetwo,,,,,,,,,,,,,,,,,,,,,,,,,,,,,,,,,,,,,,,,,,,,,,,,,,,,,,,,,,,,,,,,,,,,,,,,,,,,,,,,,,,,,,,,,,,,,,,,,,,,,,,,,,,,,,,,,,,,,,,,,,,,,,,,,,,,,,,,,
,,616ae3f893864f417b704e95,2024-02-21_21h29.02.505,kallum_motion_pilot,2023.2.2,Win32,59.88023952,616ae3f893864f417b704e95,65d6bb0e977760de756971f7,65d6bf11265c1952ee891fd3,0.0581,0.0582,0,46,46,116,1,sevenfive,,,,,,,,,,,,,,,,,,,,,,,,,,,,,,,,,,,,,,,,,,,,,,,,,,,,,,,,,,,,,,,,,,,,,,,,,,,,,,,,,,,,,,,,,,,,,,,,,,,,,,,,,,,,,,,,,,,,,,,,,,,,,,,,,,,,,,,,,
,,616ae3f893864f417b704e95,2024-02-21_21h29.02.505,kallum_motion_pilot,2023.2.2,Win32,59.88023952,616ae3f893864f417b704e95,65d6bb0e977760de756971f7,65d6bf11265c1952ee891fd3,0.0583,0.0584,0,47,47,76,1,threeone,,,,,,,,,,,,,,,,,,,,,,,,,,,,,,,,,,,,,,,,,,,,,,,,,,,,,,,,,,,,,,,,,,,,,,,,,,,,,,,,,,,,,,,,,,,,,,,,,,,,,,,,,,,,,,,,,,,,,,,,,,,,,,,,,,,,,,,,,
,,616ae3f893864f417b704e95,2024-02-21_21h29.02.505,kallum_motion_pilot,2023.2.2,Win32,59.88023952,616ae3f893864f417b704e95,65d6bb0e977760de756971f7,65d6bf11265c1952ee891fd3,0.0586,0.0586,0,48,48,90,1,sixfive,,,,,,,,,,,,,,,,,,,,,,,,,,,,,,,,,,,,,,,,,,,,,,,,,,,,,,,,,,,,,,,,,,,,,,,,,,,,,,,,,,,,,,,,,,,,,,,,,,,,,,,,,,,,,,,,,,,,,,,,,,,,,,,,,,,,,,,,,
,,616ae3f893864f417b704e95,2024-02-21_21h29.02.505,kallum_motion_pilot,2023.2.2,Win32,59.88023952,616ae3f893864f417b704e95,65d6bb0e977760de756971f7,65d6bf11265c1952ee891fd3,0.0588,0.0588,0,49,49,100,1,sevenfive,,,,,,,,,,,,,,,,,,,,,,,,,,,,,,,,,,,,,,,,,,,,,,,,,,,,,,,,,,,,,,,,,,,,,,,,,,,,,,,,,,,,,,,,,,,,,,,,,,,,,,,,,,,,,,,,,,,,,,,,,,,,,,,,,,,,,,,,,
,,616ae3f893864f417b704e95,2024-02-21_21h29.02.505,kallum_motion_pilot,2023.2.2,Win32,59.88023952,616ae3f893864f417b704e95,65d6bb0e977760de756971f7,65d6bf11265c1952ee891fd3,0.059,0.059,0,50,50,118,1,eightsix,,,,,,,,,,,,,,,,,,,,,,,,,,,,,,,,,,,,,,,,,,,,,,,,,,,,,,,,,,,,,,,,,,,,,,,,,,,,,,,,,,,,,,,,,,,,,,,,,,,,,,,,,,,,,,,,,,,,,,,,,,,,,,,,,,,,,,,,,
,,616ae3f893864f417b704e95,2024-02-21_21h29.02.505,kallum_motion_pilot,2023.2.2,Win32,59.88023952,616ae3f893864f417b704e95,65d6bb0e977760de756971f7,65d6bf11265c1952ee891fd3,0.0592,0.0593,0,51,51,72,1,onetwo,,,,,,,,,,,,,,,,,,,,,,,,,,,,,,,,,,,,,,,,,,,,,,,,,,,,,,,,,,,,,,,,,,,,,,,,,,,,,,,,,,,,,,,,,,,,,,,,,,,,,,,,,,,,,,,,,,,,,,,,,,,,,,,,,,,,,,,,,
,,616ae3f893864f417b704e95,2024-02-21_21h29.02.505,kallum_motion_pilot,2023.2.2,Win32,59.88023952,616ae3f893864f417b704e95,65d6bb0e977760de756971f7,65d6bf11265c1952ee891fd3,0.0615,0.0615,0,52,52,159,1,eightseven,,,,,,,,,,,,,,,,,,,,,,,,,,,,,,,,,,,,,,,,,,,,,,,,,,,,,,,,,,,,,,,,,,,,,,,,,,,,,,,,,,,,,,,,,,,,,,,,,,,,,,,,,,,,,,,,,,,,,,,,,,,,,,,,,,,,,,,,,
,,616ae3f893864f417b704e95,2024-02-21_21h29.02.505,kallum_motion_pilot,2023.2.2,Win32,59.88023952,616ae3f893864f417b704e95,65d6bb0e977760de756971f7,65d6bf11265c1952ee891fd3,0.0617,0.0618,0,53,53,92,1,sevenfive,,,,,,,,,,,,,,,,,,,,,,,,,,,,,,,,,,,,,,,,,,,,,,,,,,,,,,,,,,,,,,,,,,,,,,,,,,,,,,,,,,,,,,,,,,,,,,,,,,,,,,,,,,,,,,,,,,,,,,,,,,,,,,,,,,,,,,,,,
,,616ae3f893864f417b704e95,2024-02-21_21h29.02.505,kallum_motion_pilot,2023.2.2,Win32,59.88023952,616ae3f893864f417b704e95,65d6bb0e977760de756971f7,65d6bf11265c1952ee891fd3,0.0621,0.0623,0,54,54,102,1,eightsix,,,,,,,,,,,,,,,,,,,,,,,,,,,,,,,,,,,,,,,,,,,,,,,,,,,,,,,,,,,,,,,,,,,,,,,,,,,,,,,,,,,,,,,,,,,,,,,,,,,,,,,,,,,,,,,,,,,,,,,,,,,,,,,,,,,,,,,,,
,,616ae3f893864f417b704e95,2024-02-21_21h29.02.505,kallum_motion_pilot,2023.2.2,Win32,59.88023952,616ae3f893864f417b704e95,65d6bb0e977760de756971f7,65d6bf11265c1952ee891fd3,0.0625,0.0625,0,55,55,46,1,fourtwo,,,,,,,,,,,,,,,,,,,,,,,,,,,,,,,,,,,,,,,,,,,,,,,,,,,,,,,,,,,,,,,,,,,,,,,,,,,,,,,,,,,,,,,,,,,,,,,,,,,,,,,,,,,,,,,,,,,,,,,,,,,,,,,,,,,,,,,,,
,,616ae3f893864f417b704e95,2024-02-21_21h29.02.505,kallum_motion_pilot,2023.2.2,Win32,59.88023952,616ae3f893864f417b704e95,65d6bb0e977760de756971f7,65d6bf11265c1952ee891fd3,0.0631,0.0634,0,56,56,161,1,fiveseven,,,,,,,,,,,,,,,,,,,,,,,,,,,,,,,,,,,,,,,,,,,,,,,,,,,,,,,,,,,,,,,,,,,,,,,,,,,,,,,,,,,,,,,,,,,,,,,,,,,,,,,,,,,,,,,,,,,,,,,,,,,,,,,,,,,,,,,,,
,,616ae3f893864f417b704e95,2024-02-21_21h29.02.505,kallum_motion_pilot,2023.2.2,Win32,59.88023952,616ae3f893864f417b704e95,65d6bb0e977760de756971f7,65d6bf11265c1952ee891fd3,0.0639,0.0642,0,57,57,10,1,twoone,,,,,,,,,,,,,,,,,,,,,,,,,,,,,,,,,,,,,,,,,,,,,,,,,,,,,,,,,,,,,,,,,,,,,,,,,,,,,,,,,,,,,,,,,,,,,,,,,,,,,,,,,,,,,,,,,,,,,,,,,,,,,,,,,,,,,,,,,
,,616ae3f893864f417b704e95,2024-02-21_21h29.02.505,kallum_motion_pilot,2023.2.2,Win32,59.88023952,616ae3f893864f417b704e95,65d6bb0e977760de756971f7,65d6bf11265c1952ee891fd3,0.0646,0.0647,0,58,58,111,1,eightseven,,,,,,,,,,,,,,,,,,,,,,,,,,,,,,,,,,,,,,,,,,,,,,,,,,,,,,,,,,,,,,,,,,,,,,,,,,,,,,,,,,,,,,,,,,,,,,,,,,,,,,,,,,,,,,,,,,,,,,,,,,,,,,,,,,,,,,,,,
,,616ae3f893864f417b704e95,2024-02-21_21h29.02.505,kallum_motion_pilot,2023.2.2,Win32,59.88023952,616ae3f893864f417b704e95,65d6bb0e977760de756971f7,65d6bf11265c1952ee891fd3,0.065,0.0651,0,59,59,35,1,twofour,,,,,,,,,,,,,,,,,,,,,,,,,,,,,,,,,,,,,,,,,,,,,,,,,,,,,,,,,,,,,,,,,,,,,,,,,,,,,,,,,,,,,,,,,,,,,,,,,,,,,,,,,,,,,,,,,,,,,,,,,,,,,,,,,,,,,,,,,
,,616ae3f893864f417b704e95,2024-02-21_21h29.02.505,kallum_motion_pilot,2023.2.2,Win32,59.88023952,616ae3f893864f417b704e95,65d6bb0e977760de756971f7,65d6bf11265c1952ee891fd3,0.0652,0.0653,0,60,60,85,1,seveneight,,,,,,,,,,,,,,,,,,,,,,,,,,,,,,,,,,,,,,,,,,,,,,,,,,,,,,,,,,,,,,,,,,,,,,,,,,,,,,,,,,,,,,,,,,,,,,,,,,,,,,,,,,,,,,,,,,,,,,,,,,,,,,,,,,,,,,,,,
,,616ae3f893864f417b704e95,2024-02-21_21h29.02.505,kallum_motion_pilot,2023.2.2,Win32,59.88023952,616ae3f893864f417b704e95,65d6bb0e977760de756971f7,65d6bf11265c1952ee891fd3,0.0655,0.0656,0,61,61,56,1,onetwo,,,,,,,,,,,,,,,,,,,,,,,,,,,,,,,,,,,,,,,,,,,,,,,,,,,,,,,,,,,,,,,,,,,,,,,,,,,,,,,,,,,,,,,,,,,,,,,,,,,,,,,,,,,,,,,,,,,,,,,,,,,,,,,,,,,,,,,,,
,,616ae3f893864f417b704e95,2024-02-21_21h29.02.505,kallum_motion_pilot,2023.2.2,Win32,59.88023952,616ae3f893864f417b704e95,65d6bb0e977760de756971f7,65d6bf11265c1952ee891fd3,0.0657,0.0659,0,62,62,133,1,seveneight,,,,,,,,,,,,,,,,,,,,,,,,,,,,,,,,,,,,,,,,,,,,,,,,,,,,,,,,,,,,,,,,,,,,,,,,,,,,,,,,,,,,,,,,,,,,,,,,,,,,,,,,,,,,,,,,,,,,,,,,,,,,,,,,,,,,,,,,,
,,616ae3f893864f417b704e95,2024-02-21_21h29.02.505,kallum_motion_pilot,2023.2.2,Win32,59.88023952,616ae3f893864f417b704e95,65d6bb0e977760de756971f7,65d6bf11265c1952ee891fd3,0.0661,0.0661,0,63,63,13,1,threefour,,,,,,,,,,,,,,,,,,,,,,,,,,,,,,,,,,,,,,,,,,,,,,,,,,,,,,,,,,,,,,,,,,,,,,,,,,,,,,,,,,,,,,,,,,,,,,,,,,,,,,,,,,,,,,,,,,,,,,,,,,,,,,,,,,,,,,,,,
,,616ae3f893864f417b704e95,2024-02-21_21h29.02.505,kallum_motion_pilot,2023.2.2,Win32,59.88023952,616ae3f893864f417b704e95,65d6bb0e977760de756971f7,65d6bf11265c1952ee891fd3,0.0664,0.0666,0,64,64,48,1,onetwo,,,,,,,,,,,,,,,,,,,,,,,,,,,,,,,,,,,,,,,,,,,,,,,,,,,,,,,,,,,,,,,,,,,,,,,,,,,,,,,,,,,,,,,,,,,,,,,,,,,,,,,,,,,,,,,,,,,,,,,,,,,,,,,,,,,,,,,,,
,,616ae3f893864f417b704e95,2024-02-21_21h29.02.505,kallum_motion_pilot,2023.2.2,Win32,59.88023952,616ae3f893864f417b704e95,65d6bb0e977760de756971f7,65d6bf11265c1952ee891fd3,0.0667,0.0668,0,65,65,155,1,sixeight,,,,,,,,,,,,,,,,,,,,,,,,,,,,,,,,,,,,,,,,,,,,,,,,,,,,,,,,,,,,,,,,,,,,,,,,,,,,,,,,,,,,,,,,,,,,,,,,,,,,,,,,,,,,,,,,,,,,,,,,,,,,,,,,,,,,,,,,,
,,616ae3f893864f417b704e95,2024-02-21_21h29.02.505,kallum_motion_pilot,2023.2.2,Win32,59.88023952,616ae3f893864f417b704e95,65d6bb0e977760de756971f7,65d6bf11265c1952ee891fd3,0.067,0.0671,0,66,66,22,1,fourtwo,,,,,,,,,,,,,,,,,,,,,,,,,,,,,,,,,,,,,,,,,,,,,,,,,,,,,,,,,,,,,,,,,,,,,,,,,,,,,,,,,,,,,,,,,,,,,,,,,,,,,,,,,,,,,,,,,,,,,,,,,,,,,,,,,,,,,,,,,
,,616ae3f893864f417b704e95,2024-02-21_21h29.02.505,kallum_motion_pilot,2023.2.2,Win32,59.88023952,616ae3f893864f417b704e95,65d6bb0e977760de756971f7,65d6bf11265c1952ee891fd3,0.0674,0.0675,0,67,67,29,1,threefour,,,,,,,,,,,,,,,,,,,,,,,,,,,,,,,,,,,,,,,,,,,,,,,,,,,,,,,,,,,,,,,,,,,,,,,,,,,,,,,,,,,,,,,,,,,,,,,,,,,,,,,,,,,,,,,,,,,,,,,,,,,,,,,,,,,,,,,,,
,,616ae3f893864f417b704e95,2024-02-21_21h29.02.505,kallum_motion_pilot,2023.2.2,Win32,59.88023952,616ae3f893864f417b704e95,65d6bb0e977760de756971f7,65d6bf11265c1952ee891fd3,0.0677,0.0678,0,68,68,87,1,eightseven,,,,,,,,,,,,,,,,,,,,,,,,,,,,,,,,,,,,,,,,,,,,,,,,,,,,,,,,,,,,,,,,,,,,,,,,,,,,,,,,,,,,,,,,,,,,,,,,,,,,,,,,,,,,,,,,,,,,,,,,,,,,,,,,,,,,,,,,,
,,616ae3f893864f417b704e95,2024-02-21_21h29.02.505,kallum_motion_pilot,2023.2.2,Win32,59.88023952,616ae3f893864f417b704e95,65d6bb0e977760de756971f7,65d6bf11265c1952ee891fd3,0.068,0.0681,0,69,69,121,1,fiveseven,,,,,,,,,,,,,,,,,,,,,,,,,,,,,,,,,,,,,,,,,,,,,,,,,,,,,,,,,,,,,,,,,,,,,,,,,,,,,,,,,,,,,,,,,,,,,,,,,,,,,,,,,,,,,,,,,,,,,,,,,,,,,,,,,,,,,,,,,
,,616ae3f893864f417b704e95,2024-02-21_21h29.02.505,kallum_motion_pilot,2023.2.2,Win32,59.88023952,616ae3f893864f417b704e95,65d6bb0e977760de756971f7,65d6bf11265c1952ee891fd3,0.0682,0.0685,0,70,70,57,1,onethree,,,,,,,,,,,,,,,,,,,,,,,,,,,,,,,,,,,,,,,,,,,,,,,,,,,,,,,,,,,,,,,,,,,,,,,,,,,,,,,,,,,,,,,,,,,,,,,,,,,,,,,,,,,,,,,,,,,,,,,,,,,,,,,,,,,,,,,,,
,,616ae3f893864f417b704e95,2024-02-21_21h29.02.505,kallum_motion_pilot,2023.2.2,Win32,59.88023952,616ae3f893864f417b704e95,65d6bb0e977760de756971f7,65d6bf11265c1952ee891fd3,0.0687,0.0688,0,71,71,6,1,fourtwo,,,,,,,,,,,,,,,,,,,,,,,,,,,,,,,,,,,,,,,,,,,,,,,,,,,,,,,,,,,,,,,,,,,,,,,,,,,,,,,,,,,,,,,,,,,,,,,,,,,,,,,,,,,,,,,,,,,,,,,,,,,,,,,,,,,,,,,,,
,,616ae3f893864f417b704e95,2024-02-21_21h29.02.505,kallum_motion_pilot,2023.2.2,Win32,59.88023952,616ae3f893864f417b704e95,65d6bb0e977760de756971f7,65d6bf11265c1952ee891fd3,0.0691,0.0691,0,72,72,150,1,eightsix,,,,,,,,,,,,,,,,,,,,,,,,,,,,,,,,,,,,,,,,,,,,,,,,,,,,,,,,,,,,,,,,,,,,,,,,,,,,,,,,,,,,,,,,,,,,,,,,,,,,,,,,,,,,,,,,,,,,,,,,,,,,,,,,,,,,,,,,,
,,616ae3f893864f417b704e95,2024-02-21_21h29.02.505,kallum_motion_pilot,2023.2.2,Win32,59.88023952,616ae3f893864f417b704e95,65d6bb0e977760de756971f7,65d6bf11265c1952ee891fd3,0.0693,0.0693,0,73,73,78,1,fourtwo,,,,,,,,,,,,,,,,,,,,,,,,,,,,,,,,,,,,,,,,,,,,,,,,,,,,,,,,,,,,,,,,,,,,,,,,,,,,,,,,,,,,,,,,,,,,,,,,,,,,,,,,,,,,,,,,,,,,,,,,,,,,,,,,,,,,,,,,,
,,616ae3f893864f417b704e95,2024-02-21_21h29.02.505,kallum_motion_pilot,2023.2.2,Win32,59.88023952,616ae3f893864f417b704e95,65d6bb0e977760de756971f7,65d6bf11265c1952ee891fd3,0.0695,0.0696,0,74,74,106,1,sixfive,,,,,,,,,,,,,,,,,,,,,,,,,,,,,,,,,,,,,,,,,,,,,,,,,,,,,,,,,,,,,,,,,,,,,,,,,,,,,,,,,,,,,,,,,,,,,,,,,,,,,,,,,,,,,,,,,,,,,,,,,,,,,,,,,,,,,,,,,
,,616ae3f893864f417b704e95,2024-02-21_21h29.02.505,kallum_motion_pilot,2023.2.2,Win32,59.88023952,616ae3f893864f417b704e95,65d6bb0e977760de756971f7,65d6bf11265c1952ee891fd3,0.0698,0.0699,0,75,75,79,1,eightseven,,,,,,,,,,,,,,,,,,,,,,,,,,,,,,,,,,,,,,,,,,,,,,,,,,,,,,,,,,,,,,,,,,,,,,,,,,,,,,,,,,,,,,,,,,,,,,,,,,,,,,,,,,,,,,,,,,,,,,,,,,,,,,,,,,,,,,,,,
,,616ae3f893864f417b704e95,2024-02-21_21h29.02.505,kallum_motion_pilot,2023.2.2,Win32,59.88023952,616ae3f893864f417b704e95,65d6bb0e977760de756971f7,65d6bf11265c1952ee891fd3,0.0701,0.0702,0,76,76,120,1,fivesix,,,,,,,,,,,,,,,,,,,,,,,,,,,,,,,,,,,,,,,,,,,,,,,,,,,,,,,,,,,,,,,,,,,,,,,,,,,,,,,,,,,,,,,,,,,,,,,,,,,,,,,,,,,,,,,,,,,,,,,,,,,,,,,,,,,,,,,,,
,,616ae3f893864f417b704e95,2024-02-21_21h29.02.505,kallum_motion_pilot,2023.2.2,Win32,59.88023952,616ae3f893864f417b704e95,65d6bb0e977760de756971f7,65d6bf11265c1952ee891fd3,0.0705,0.0711,0,77,77,148,1,sevenfive,,,,,,,,,,,,,,,,,,,,,,,,,,,,,,,,,,,,,,,,,,,,,,,,,,,,,,,,,,,,,,,,,,,,,,,,,,,,,,,,,,,,,,,,,,,,,,,,,,,,,,,,,,,,,,,,,,,,,,,,,,,,,,,,,,,,,,,,,
,,616ae3f893864f417b704e95,2024-02-21_21h29.02.505,kallum_motion_pilot,2023.2.2,Win32,59.88023952,616ae3f893864f417b704e95,65d6bb0e977760de756971f7,65d6bf11265c1952ee891fd3,0.0718,0.0718,0,78,78,160,1,fivesix,,,,,,,,,,,,,,,,,,,,,,,,,,,,,,,,,,,,,,,,,,,,,,,,,,,,,,,,,,,,,,,,,,,,,,,,,,,,,,,,,,,,,,,,,,,,,,,,,,,,,,,,,,,,,,,,,,,,,,,,,,,,,,,,,,,,,,,,,
,,616ae3f893864f417b704e95,2024-02-21_21h29.02.505,kallum_motion_pilot,2023.2.2,Win32,59.88023952,616ae3f893864f417b704e95,65d6bb0e977760de756971f7,65d6bf11265c1952ee891fd3,0.0721,0.0722,0,79,79,97,1,fiveseven,,,,,,,,,,,,,,,,,,,,,,,,,,,,,,,,,,,,,,,,,,,,,,,,,,,,,,,,,,,,,,,,,,,,,,,,,,,,,,,,,,,,,,,,,,,,,,,,,,,,,,,,,,,,,,,,,,,,,,,,,,,,,,,,,,,,,,,,,
,,616ae3f893864f417b704e95,2024-02-21_21h29.02.505,kallum_motion_pilot,2023.2.2,Win32,59.88023952,616ae3f893864f417b704e95,65d6bb0e977760de756971f7,65d6bf11265c1952ee891fd3,0.0724,0.0726,0,80,80,32,1,onetwo,,,,,,,,,,,,,,,,,,,,,,,,,,,,,,,,,,,,,,,,,,,,,,,,,,,,,,,,,,,,,,,,,,,,,,,,,,,,,,,,,,,,,,,,,,,,,,,,,,,,,,,,,,,,,,,,,,,,,,,,,,,,,,,,,,,,,,,,,
,,616ae3f893864f417b704e95,2024-02-21_21h29.02.505,kallum_motion_pilot,2023.2.2,Win32,59.88023952,616ae3f893864f417b704e95,65d6bb0e977760de756971f7,65d6bf11265c1952ee891fd3,0.0727,0.0727,0,81,81,31,1,fourthree,,,,,,,,,,,,,,,,,,,,,,,,,,,,,,,,,,,,,,,,,,,,,,,,,,,,,,,,,,,,,,,,,,,,,,,,,,,,,,,,,,,,,,,,,,,,,,,,,,,,,,,,,,,,,,,,,,,,,,,,,,,,,,,,,,,,,,,,,
,,616ae3f893864f417b704e95,2024-02-21_21h29.02.505,kallum_motion_pilot,2023.2.2,Win32,59.88023952,616ae3f893864f417b704e95,65d6bb0e977760de756971f7,65d6bf11265c1952ee891fd3,0.073,0.0731,0,82,82,137,1,fiveseven,,,,,,,,,,,,,,,,,,,,,,,,,,,,,,,,,,,,,,,,,,,,,,,,,,,,,,,,,,,,,,,,,,,,,,,,,,,,,,,,,,,,,,,,,,,,,,,,,,,,,,,,,,,,,,,,,,,,,,,,,,,,,,,,,,,,,,,,,
,,616ae3f893864f417b704e95,2024-02-21_21h29.02.505,kallum_motion_pilot,2023.2.2,Win32,59.88023952,616ae3f893864f417b704e95,65d6bb0e977760de756971f7,65d6bf11265c1952ee891fd3,0.0732,0.0734,0,83,83,139,1,sixeight,,,,,,,,,,,,,,,,,,,,,,,,,,,,,,,,,,,,,,,,,,,,,,,,,,,,,,,,,,,,,,,,,,,,,,,,,,,,,,,,,,,,,,,,,,,,,,,,,,,,,,,,,,,,,,,,,,,,,,,,,,,,,,,,,,,,,,,,,
,,616ae3f893864f417b704e95,2024-02-21_21h29.02.505,kallum_motion_pilot,2023.2.2,Win32,59.88023952,616ae3f893864f417b704e95,65d6bb0e977760de756971f7,65d6bf11265c1952ee891fd3,0.0737,0.0738,0,84,84,113,1,fiveseven,,,,,,,,,,,,,,,,,,,,,,,,,,,,,,,,,,,,,,,,,,,,,,,,,,,,,,,,,,,,,,,,,,,,,,,,,,,,,,,,,,,,,,,,,,,,,,,,,,,,,,,,,,,,,,,,,,,,,,,,,,,,,,,,,,,,,,,,,
,,616ae3f893864f417b704e95,2024-02-21_21h29.02.505,kallum_motion_pilot,2023.2.2,Win32,59.88023952,616ae3f893864f417b704e95,65d6bb0e977760de756971f7,65d6bf11265c1952ee891fd3,0.074,0.0741,0,85,85,63,1,fourthree,,,,,,,,,,,,,,,,,,,,,,,,,,,,,,,,,,,,,,,,,,,,,,,,,,,,,,,,,,,,,,,,,,,,,,,,,,,,,,,,,,,,,,,,,,,,,,,,,,,,,,,,,,,,,,,,,,,,,,,,,,,,,,,,,,,,,,,,,
,,616ae3f893864f417b704e95,2024-02-21_21h29.02.505,kallum_motion_pilot,2023.2.2,Win32,59.88023952,616ae3f893864f417b704e95,65d6bb0e977760de756971f7,65d6bf11265c1952ee891fd3,0.0743,0.0744,0,86,86,101,1,seveneight,,,,,,,,,,,,,,,,,,,,,,,,,,,,,,,,,,,,,,,,,,,,,,,,,,,,,,,,,,,,,,,,,,,,,,,,,,,,,,,,,,,,,,,,,,,,,,,,,,,,,,,,,,,,,,,,,,,,,,,,,,,,,,,,,,,,,,,,,
,,616ae3f893864f417b704e95,2024-02-21_21h29.02.505,kallum_motion_pilot,2023.2.2,Win32,59.88023952,616ae3f893864f417b704e95,65d6bb0e977760de756971f7,65d6bf11265c1952ee891fd3,0.0746,0.0746,0,87,87,68,1,threeone,,,,,,,,,,,,,,,,,,,,,,,,,,,,,,,,,,,,,,,,,,,,,,,,,,,,,,,,,,,,,,,,,,,,,,,,,,,,,,,,,,,,,,,,,,,,,,,,,,,,,,,,,,,,,,,,,,,,,,,,,,,,,,,,,,,,,,,,,
,,616ae3f893864f417b704e95,2024-02-21_21h29.02.505,kallum_motion_pilot,2023.2.2,Win32,59.88023952,616ae3f893864f417b704e95,65d6bb0e977760de756971f7,65d6bf11265c1952ee891fd3,0.0749,0.0749,0,88,88,49,1,onethree,,,,,,,,,,,,,,,,,,,,,,,,,,,,,,,,,,,,,,,,,,,,,,,,,,,,,,,,,,,,,,,,,,,,,,,,,,,,,,,,,,,,,,,,,,,,,,,,,,,,,,,,,,,,,,,,,,,,,,,,,,,,,,,,,,,,,,,,,
,,616ae3f893864f417b704e95,2024-02-21_21h29.02.505,kallum_motion_pilot,2023.2.2,Win32,59.88023952,616ae3f893864f417b704e95,65d6bb0e977760de756971f7,65d6bf11265c1952ee891fd3,0.0751,0.0753,0,89,89,130,1,sixfive,,,,,,,,,,,,,,,,,,,,,,,,,,,,,,,,,,,,,,,,,,,,,,,,,,,,,,,,,,,,,,,,,,,,,,,,,,,,,,,,,,,,,,,,,,,,,,,,,,,,,,,,,,,,,,,,,,,,,,,,,,,,,,,,,,,,,,,,,
,,616ae3f893864f417b704e95,2024-02-21_21h29.02.505,kallum_motion_pilot,2023.2.2,Win32,59.88023952,616ae3f893864f417b704e95,65d6bb0e977760de756971f7,65d6bf11265c1952ee891fd3,0.0754,0.0756,0,90,90,151,1,eightseven,,,,,,,,,,,,,,,,,,,,,,,,,,,,,,,,,,,,,,,,,,,,,,,,,,,,,,,,,,,,,,,,,,,,,,,,,,,,,,,,,,,,,,,,,,,,,,,,,,,,,,,,,,,,,,,,,,,,,,,,,,,,,,,,,,,,,,,,,
,,616ae3f893864f417b704e95,2024-02-21_21h29.02.505,kallum_motion_pilot,2023.2.2,Win32,59.88023952,616ae3f893864f417b704e95,65d6bb0e977760de756971f7,65d6bf11265c1952ee891fd3,0.0758,0.0759,0,91,91,146,1,sixfive,,,,,,,,,,,,,,,,,,,,,,,,,,,,,,,,,,,,,,,,,,,,,,,,,,,,,,,,,,,,,,,,,,,,,,,,,,,,,,,,,,,,,,,,,,,,,,,,,,,,,,,,,,,,,,,,,,,,,,,,,,,,,,,,,,,,,,,,,
,,616ae3f893864f417b704e95,2024-02-21_21h29.02.505,kallum_motion_pilot,2023.2.2,Win32,59.88023952,616ae3f893864f417b704e95,65d6bb0e977760de756971f7,65d6bf11265c1952ee891fd3,0.0762,0.0762,0,92,92,73,1,onethree,,,,,,,,,,,,,,,,,,,,,,,,,,,,,,,,,,,,,,,,,,,,,,,,,,,,,,,,,,,,,,,,,,,,,,,,,,,,,,,,,,,,,,,,,,,,,,,,,,,,,,,,,,,,,,,,,,,,,,,,,,,,,,,,,,,,,,,,,
,,616ae3f893864f417b704e95,2024-02-21_21h29.02.505,kallum_motion_pilot,2023.2.2,Win32,59.88023952,616ae3f893864f417b704e95,65d6bb0e977760de756971f7,65d6bf11265c1952ee891fd3,0.0765,0.0765,0,93,93,53,1,threefour,,,,,,,,,,,,,,,,,,,,,,,,,,,,,,,,,,,,,,,,,,,,,,,,,,,,,,,,,,,,,,,,,,,,,,,,,,,,,,,,,,,,,,,,,,,,,,,,,,,,,,,,,,,,,,,,,,,,,,,,,,,,,,,,,,,,,,,,,
,,616ae3f893864f417b704e95,2024-02-21_21h29.02.505,kallum_motion_pilot,2023.2.2,Win32,59.88023952,616ae3f893864f417b704e95,65d6bb0e977760de756971f7,65d6bf11265c1952ee891fd3,0.0767,0.0768,0,94,94,104,1,fivesix,,,,,,,,,,,,,,,,,,,,,,,,,,,,,,,,,,,,,,,,,,,,,,,,,,,,,,,,,,,,,,,,,,,,,,,,,,,,,,,,,,,,,,,,,,,,,,,,,,,,,,,,,,,,,,,,,,,,,,,,,,,,,,,,,,,,,,,,,
,,616ae3f893864f417b704e95,2024-02-21_21h29.02.505,kallum_motion_pilot,2023.2.2,Win32,59.88023952,616ae3f893864f417b704e95,65d6bb0e977760de756971f7,65d6bf11265c1952ee891fd3,0.077,0.077,0,95,95,37,1,threefour,,,,,,,,,,,,,,,,,,,,,,,,,,,,,,,,,,,,,,,,,,,,,,,,,,,,,,,,,,,,,,,,,,,,,,,,,,,,,,,,,,,,,,,,,,,,,,,,,,,,,,,,,,,,,,,,,,,,,,,,,,,,,,,,,,,,,,,,,
,,616ae3f893864f417b704e95,2024-02-21_21h29.02.505,kallum_motion_pilot,2023.2.2,Win32,59.88023952,616ae3f893864f417b704e95,65d6bb0e977760de756971f7,65d6bf11265c1952ee891fd3,0.0772,0.0773,0,96,96,153,1,fiveseven,,,,,,,,,,,,,,,,,,,,,,,,,,,,,,,,,,,,,,,,,,,,,,,,,,,,,,,,,,,,,,,,,,,,,,,,,,,,,,,,,,,,,,,,,,,,,,,,,,,,,,,,,,,,,,,,,,,,,,,,,,,,,,,,,,,,,,,,,
,,616ae3f893864f417b704e95,2024-02-21_21h29.02.505,kallum_motion_pilot,2023.2.2,Win32,59.88023952,616ae3f893864f417b704e95,65d6bb0e977760de756971f7,65d6bf11265c1952ee891fd3,0.0774,0.0775,0,97,97,33,1,onethree,,,,,,,,,,,,,,,,,,,,,,,,,,,,,,,,,,,,,,,,,,,,,,,,,,,,,,,,,,,,,,,,,,,,,,,,,,,,,,,,,,,,,,,,,,,,,,,,,,,,,,,,,,,,,,,,,,,,,,,,,,,,,,,,,,,,,,,,,
,,616ae3f893864f417b704e95,2024-02-21_21h29.02.505,kallum_motion_pilot,2023.2.2,Win32,59.88023952,616ae3f893864f417b704e95,65d6bb0e977760de756971f7,65d6bf11265c1952ee891fd3,0.0778,0.078,0,98,98,142,1,eightsix,,,,,,,,,,,,,,,,,,,,,,,,,,,,,,,,,,,,,,,,,,,,,,,,,,,,,,,,,,,,,,,,,,,,,,,,,,,,,,,,,,,,,,,,,,,,,,,,,,,,,,,,,,,,,,,,,,,,,,,,,,,,,,,,,,,,,,,,,
,,616ae3f893864f417b704e95,2024-02-21_21h29.02.505,kallum_motion_pilot,2023.2.2,Win32,59.88023952,616ae3f893864f417b704e95,65d6bb0e977760de756971f7,65d6bf11265c1952ee891fd3,0.0784,0.0786,0,99,99,86,1,eightsix,,,,,,,,,,,,,,,,,,,,,,,,,,,,,,,,,,,,,,,,,,,,,,,,,,,,,,,,,,,,,,,,,,,,,,,,,,,,,,,,,,,,,,,,,,,,,,,,,,,,,,,,,,,,,,,,,,,,,,,,,,,,,,,,,,,,,,,,,
,,616ae3f893864f417b704e95,2024-02-21_21h29.02.505,kallum_motion_pilot,2023.2.2,Win32,59.88023952,616ae3f893864f417b704e95,65d6bb0e977760de756971f7,65d6bf11265c1952ee891fd3,0.0788,0.079,0,100,100,152,1,fivesix,,,,,,,,,,,,,,,,,,,,,,,,,,,,,,,,,,,,,,,,,,,,,,,,,,,,,,,,,,,,,,,,,,,,,,,,,,,,,,,,,,,,,,,,,,,,,,,,,,,,,,,,,,,,,,,,,,,,,,,,,,,,,,,,,,,,,,,,,
,,616ae3f893864f417b704e95,2024-02-21_21h29.02.505,kallum_motion_pilot,2023.2.2,Win32,59.88023952,616ae3f893864f417b704e95,65d6bb0e977760de756971f7,65d6bf11265c1952ee891fd3,0.0791,0.0792,0,101,101,83,1,sixeight,,,,,,,,,,,,,,,,,,,,,,,,,,,,,,,,,,,,,,,,,,,,,,,,,,,,,,,,,,,,,,,,,,,,,,,,,,,,,,,,,,,,,,,,,,,,,,,,,,,,,,,,,,,,,,,,,,,,,,,,,,,,,,,,,,,,,,,,,
,,616ae3f893864f417b704e95,2024-02-21_21h29.02.505,kallum_motion_pilot,2023.2.2,Win32,59.88023952,616ae3f893864f417b704e95,65d6bb0e977760de756971f7,65d6bf11265c1952ee891fd3,0.0794,0.0795,0,102,102,99,1,sixeight,,,,,,,,,,,,,,,,,,,,,,,,,,,,,,,,,,,,,,,,,,,,,,,,,,,,,,,,,,,,,,,,,,,,,,,,,,,,,,,,,,,,,,,,,,,,,,,,,,,,,,,,,,,,,,,,,,,,,,,,,,,,,,,,,,,,,,,,,
,,616ae3f893864f417b704e95,2024-02-21_21h29.02.505,kallum_motion_pilot,2023.2.2,Win32,59.88023952,616ae3f893864f417b704e95,65d6bb0e977760de756971f7,65d6bf11265c1952ee891fd3,0.0797,0.0798,0,103,103,143,1,eightseven,,,,,,,,,,,,,,,,,,,,,,,,,,,,,,,,,,,,,,,,,,,,,,,,,,,,,,,,,,,,,,,,,,,,,,,,,,,,,,,,,,,,,,,,,,,,,,,,,,,,,,,,,,,,,,,,,,,,,,,,,,,,,,,,,,,,,,,,,
,,616ae3f893864f417b704e95,2024-02-21_21h29.02.505,kallum_motion_pilot,2023.2.2,Win32,59.88023952,616ae3f893864f417b704e95,65d6bb0e977760de756971f7,65d6bf11265c1952ee891fd3,0.08,0.0801,0,104,104,65,1,onethree,,,,,,,,,,,,,,,,,,,,,,,,,,,,,,,,,,,,,,,,,,,,,,,,,,,,,,,,,,,,,,,,,,,,,,,,,,,,,,,,,,,,,,,,,,,,,,,,,,,,,,,,,,,,,,,,,,,,,,,,,,,,,,,,,,,,,,,,,
,,616ae3f893864f417b704e95,2024-02-21_21h29.02.505,kallum_motion_pilot,2023.2.2,Win32,59.88023952,616ae3f893864f417b704e95,65d6bb0e977760de756971f7,65d6bf11265c1952ee891fd3,0.0803,0.0804,0,105,105,119,1,eightseven,,,,,,,,,,,,,,,,,,,,,,,,,,,,,,,,,,,,,,,,,,,,,,,,,,,,,,,,,,,,,,,,,,,,,,,,,,,,,,,,,,,,,,,,,,,,,,,,,,,,,,,,,,,,,,,,,,,,,,,,,,,,,,,,,,,,,,,,,
,,616ae3f893864f417b704e95,2024-02-21_21h29.02.505,kallum_motion_pilot,2023.2.2,Win32,59.88023952,616ae3f893864f417b704e95,65d6bb0e977760de756971f7,65d6bf11265c1952ee891fd3,0.0806,0.0808,0,106,106,54,1,fourtwo,,,,,,,,,,,,,,,,,,,,,,,,,,,,,,,,,,,,,,,,,,,,,,,,,,,,,,,,,,,,,,,,,,,,,,,,,,,,,,,,,,,,,,,,,,,,,,,,,,,,,,,,,,,,,,,,,,,,,,,,,,,,,,,,,,,,,,,,,
,,616ae3f893864f417b704e95,2024-02-21_21h29.02.505,kallum_motion_pilot,2023.2.2,Win32,59.88023952,616ae3f893864f417b704e95,65d6bb0e977760de756971f7,65d6bf11265c1952ee891fd3,0.0809,0.0811,0,107,107,89,1,fiveseven,,,,,,,,,,,,,,,,,,,,,,,,,,,,,,,,,,,,,,,,,,,,,,,,,,,,,,,,,,,,,,,,,,,,,,,,,,,,,,,,,,,,,,,,,,,,,,,,,,,,,,,,,,,,,,,,,,,,,,,,,,,,,,,,,,,,,,,,,
,,616ae3f893864f417b704e95,2024-02-21_21h29.02.505,kallum_motion_pilot,2023.2.2,Win32,59.88023952,616ae3f893864f417b704e95,65d6bb0e977760de756971f7,65d6bf11265c1952ee891fd3,0.0812,0.0813,0,108,108,127,1,eightseven,,,,,,,,,,,,,,,,,,,,,,,,,,,,,,,,,,,,,,,,,,,,,,,,,,,,,,,,,,,,,,,,,,,,,,,,,,,,,,,,,,,,,,,,,,,,,,,,,,,,,,,,,,,,,,,,,,,,,,,,,,,,,,,,,,,,,,,,,
,,616ae3f893864f417b704e95,2024-02-21_21h29.02.505,kallum_motion_pilot,2023.2.2,Win32,59.88023952,616ae3f893864f417b704e95,65d6bb0e977760de756971f7,65d6bf11265c1952ee891fd3,0.0815,0.0816,0,109,109,75,1,twofour,,,,,,,,,,,,,,,,,,,,,,,,,,,,,,,,,,,,,,,,,,,,,,,,,,,,,,,,,,,,,,,,,,,,,,,,,,,,,,,,,,,,,,,,,,,,,,,,,,,,,,,,,,,,,,,,,,,,,,,,,,,,,,,,,,,,,,,,,
,,616ae3f893864f417b704e95,2024-02-21_21h29.02.505,kallum_motion_pilot,2023.2.2,Win32,59.88023952,616ae3f893864f417b704e95,65d6bb0e977760de756971f7,65d6bf11265c1952ee891fd3,0.0818,0.0819,0,110,110,21,1,threefour,,,,,,,,,,,,,,,,,,,,,,,,,,,,,,,,,,,,,,,,,,,,,,,,,,,,,,,,,,,,,,,,,,,,,,,,,,,,,,,,,,,,,,,,,,,,,,,,,,,,,,,,,,,,,,,,,,,,,,,,,,,,,,,,,,,,,,,,,
,,616ae3f893864f417b704e95,2024-02-21_21h29.02.505,kallum_motion_pilot,2023.2.2,Win32,59.88023952,616ae3f893864f417b704e95,65d6bb0e977760de756971f7,65d6bf11265c1952ee891fd3,0.082,0.0822,0,111,111,117,1,seveneight,,,,,,,,,,,,,,,,,,,,,,,,,,,,,,,,,,,,,,,,,,,,,,,,,,,,,,,,,,,,,,,,,,,,,,,,,,,,,,,,,,,,,,,,,,,,,,,,,,,,,,,,,,,,,,,,,,,,,,,,,,,,,,,,,,,,,,,,,
,,616ae3f893864f417b704e95,2024-02-21_21h29.02.505,kallum_motion_pilot,2023.2.2,Win32,59.88023952,616ae3f893864f417b704e95,65d6bb0e977760de756971f7,65d6bf11265c1952ee891fd3,0.0823,0.0824,0,112,112,44,1,threeone,,,,,,,,,,,,,,,,,,,,,,,,,,,,,,,,,,,,,,,,,,,,,,,,,,,,,,,,,,,,,,,,,,,,,,,,,,,,,,,,,,,,,,,,,,,,,,,,,,,,,,,,,,,,,,,,,,,,,,,,,,,,,,,,,,,,,,,,,
,,616ae3f893864f417b704e95,2024-02-21_21h29.02.505,kallum_motion_pilot,2023.2.2,Win32,59.88023952,616ae3f893864f417b704e95,65d6bb0e977760de756971f7,65d6bf11265c1952ee891fd3,0.0827,0.0829,0,113,113,58,1,twoone,,,,,,,,,,,,,,,,,,,,,,,,,,,,,,,,,,,,,,,,,,,,,,,,,,,,,,,,,,,,,,,,,,,,,,,,,,,,,,,,,,,,,,,,,,,,,,,,,,,,,,,,,,,,,,,,,,,,,,,,,,,,,,,,,,,,,,,,,
,,616ae3f893864f417b704e95,2024-02-21_21h29.02.505,kallum_motion_pilot,2023.2.2,Win32,59.88023952,616ae3f893864f417b704e95,65d6bb0e977760de756971f7,65d6bf11265c1952ee891fd3,0.083,0.0832,0,114,114,39,1,fourthree,,,,,,,,,,,,,,,,,,,,,,,,,,,,,,,,,,,,,,,,,,,,,,,,,,,,,,,,,,,,,,,,,,,,,,,,,,,,,,,,,,,,,,,,,,,,,,,,,,,,,,,,,,,,,,,,,,,,,,,,,,,,,,,,,,,,,,,,,
,,616ae3f893864f417b704e95,2024-02-21_21h29.02.505,kallum_motion_pilot,2023.2.2,Win32,59.88023952,616ae3f893864f417b704e95,65d6bb0e977760de756971f7,65d6bf11265c1952ee891fd3,0.0834,0.0835,0,115,115,59,1,twofour,,,,,,,,,,,,,,,,,,,,,,,,,,,,,,,,,,,,,,,,,,,,,,,,,,,,,,,,,,,,,,,,,,,,,,,,,,,,,,,,,,,,,,,,,,,,,,,,,,,,,,,,,,,,,,,,,,,,,,,,,,,,,,,,,,,,,,,,,
,,616ae3f893864f417b704e95,2024-02-21_21h29.02.505,kallum_motion_pilot,2023.2.2,Win32,59.88023952,616ae3f893864f417b704e95,65d6bb0e977760de756971f7,65d6bf11265c1952ee891fd3,0.0838,0.0839,0,116,116,136,1,fivesix,,,,,,,,,,,,,,,,,,,,,,,,,,,,,,,,,,,,,,,,,,,,,,,,,,,,,,,,,,,,,,,,,,,,,,,,,,,,,,,,,,,,,,,,,,,,,,,,,,,,,,,,,,,,,,,,,,,,,,,,,,,,,,,,,,,,,,,,,
,,616ae3f893864f417b704e95,2024-02-21_21h29.02.505,kallum_motion_pilot,2023.2.2,Win32,59.88023952,616ae3f893864f417b704e95,65d6bb0e977760de756971f7,65d6bf11265c1952ee891fd3,0.0842,0.0842,0,117,117,25,1,onethree,,,,,,,,,,,,,,,,,,,,,,,,,,,,,,,,,,,,,,,,,,,,,,,,,,,,,,,,,,,,,,,,,,,,,,,,,,,,,,,,,,,,,,,,,,,,,,,,,,,,,,,,,,,,,,,,,,,,,,,,,,,,,,,,,,,,,,,,,
,,616ae3f893864f417b704e95,2024-02-21_21h29.02.505,kallum_motion_pilot,2023.2.2,Win32,59.88023952,616ae3f893864f417b704e95,65d6bb0e977760de756971f7,65d6bf11265c1952ee891fd3,0.0843,0.0844,0,118,118,70,1,fourtwo,,,,,,,,,,,,,,,,,,,,,,,,,,,,,,,,,,,,,,,,,,,,,,,,,,,,,,,,,,,,,,,,,,,,,,,,,,,,,,,,,,,,,,,,,,,,,,,,,,,,,,,,,,,,,,,,,,,,,,,,,,,,,,,,,,,,,,,,,
,,616ae3f893864f417b704e95,2024-02-21_21h29.02.505,kallum_motion_pilot,2023.2.2,Win32,59.88023952,616ae3f893864f417b704e95,65d6bb0e977760de756971f7,65d6bf11265c1952ee891fd3,0.0847,0.0848,0,119,119,0,1,onetwo,,,,,,,,,,,,,,,,,,,,,,,,,,,,,,,,,,,,,,,,,,,,,,,,,,,,,,,,,,,,,,,,,,,,,,,,,,,,,,,,,,,,,,,,,,,,,,,,,,,,,,,,,,,,,,,,,,,,,,,,,,,,,,,,,,,,,,,,,
,,616ae3f893864f417b704e95,2024-02-21_21h29.02.505,kallum_motion_pilot,2023.2.2,Win32,59.88023952,616ae3f893864f417b704e95,65d6bb0e977760de756971f7,65d6bf11265c1952ee891fd3,0.0849,0.085,0,120,120,129,1,fiveseven,,,,,,,,,,,,,,,,,,,,,,,,,,,,,,,,,,,,,,,,,,,,,,,,,,,,,,,,,,,,,,,,,,,,,,,,,,,,,,,,,,,,,,,,,,,,,,,,,,,,,,,,,,,,,,,,,,,,,,,,,,,,,,,,,,,,,,,,,
,,616ae3f893864f417b704e95,2024-02-21_21h29.02.505,kallum_motion_pilot,2023.2.2,Win32,59.88023952,616ae3f893864f417b704e95,65d6bb0e977760de756971f7,65d6bf11265c1952ee891fd3,0.0853,0.0856,0,121,121,80,1,fivesix,,,,,,,,,,,,,,,,,,,,,,,,,,,,,,,,,,,,,,,,,,,,,,,,,,,,,,,,,,,,,,,,,,,,,,,,,,,,,,,,,,,,,,,,,,,,,,,,,,,,,,,,,,,,,,,,,,,,,,,,,,,,,,,,,,,,,,,,,
,,616ae3f893864f417b704e95,2024-02-21_21h29.02.505,kallum_motion_pilot,2023.2.2,Win32,59.88023952,616ae3f893864f417b704e95,65d6bb0e977760de756971f7,65d6bf11265c1952ee891fd3,0.0859,0.0861,0,122,122,91,1,sixeight,,,,,,,,,,,,,,,,,,,,,,,,,,,,,,,,,,,,,,,,,,,,,,,,,,,,,,,,,,,,,,,,,,,,,,,,,,,,,,,,,,,,,,,,,,,,,,,,,,,,,,,,,,,,,,,,,,,,,,,,,,,,,,,,,,,,,,,,,
,,616ae3f893864f417b704e95,2024-02-21_21h29.02.505,kallum_motion_pilot,2023.2.2,Win32,59.88023952,616ae3f893864f417b704e95,65d6bb0e977760de756971f7,65d6bf11265c1952ee891fd3,0.0882,0.0883,0,123,123,61,1,threefour,,,,,,,,,,,,,,,,,,,,,,,,,,,,,,,,,,,,,,,,,,,,,,,,,,,,,,,,,,,,,,,,,,,,,,,,,,,,,,,,,,,,,,,,,,,,,,,,,,,,,,,,,,,,,,,,,,,,,,,,,,,,,,,,,,,,,,,,,
,,616ae3f893864f417b704e95,2024-02-21_21h29.02.505,kallum_motion_pilot,2023.2.2,Win32,59.88023952,616ae3f893864f417b704e95,65d6bb0e977760de756971f7,65d6bf11265c1952ee891fd3,0.0886,0.0888,0,124,124,96,1,fivesix,,,,,,,,,,,,,,,,,,,,,,,,,,,,,,,,,,,,,,,,,,,,,,,,,,,,,,,,,,,,,,,,,,,,,,,,,,,,,,,,,,,,,,,,,,,,,,,,,,,,,,,,,,,,,,,,,,,,,,,,,,,,,,,,,,,,,,,,,
,,616ae3f893864f417b704e95,2024-02-21_21h29.02.505,kallum_motion_pilot,2023.2.2,Win32,59.88023952,616ae3f893864f417b704e95,65d6bb0e977760de756971f7,65d6bf11265c1952ee891fd3,0.0889,0.0891,0,125,125,107,1,sixeight,,,,,,,,,,,,,,,,,,,,,,,,,,,,,,,,,,,,,,,,,,,,,,,,,,,,,,,,,,,,,,,,,,,,,,,,,,,,,,,,,,,,,,,,,,,,,,,,,,,,,,,,,,,,,,,,,,,,,,,,,,,,,,,,,,,,,,,,,
,,616ae3f893864f417b704e95,2024-02-21_21h29.02.505,kallum_motion_pilot,2023.2.2,Win32,59.88023952,616ae3f893864f417b704e95,65d6bb0e977760de756971f7,65d6bf11265c1952ee891fd3,0.0894,0.0896,0,126,126,55,1,fourthree,,,,,,,,,,,,,,,,,,,,,,,,,,,,,,,,,,,,,,,,,,,,,,,,,,,,,,,,,,,,,,,,,,,,,,,,,,,,,,,,,,,,,,,,,,,,,,,,,,,,,,,,,,,,,,,,,,,,,,,,,,,,,,,,,,,,,,,,,
,,616ae3f893864f417b704e95,2024-02-21_21h29.02.505,kallum_motion_pilot,2023.2.2,Win32,59.88023952,616ae3f893864f417b704e95,65d6bb0e977760de756971f7,65d6bf11265c1952ee891fd3,0.0897,0.0899,0,127,127,2,1,twoone,,,,,,,,,,,,,,,,,,,,,,,,,,,,,,,,,,,,,,,,,,,,,,,,,,,,,,,,,,,,,,,,,,,,,,,,,,,,,,,,,,,,,,,,,,,,,,,,,,,,,,,,,,,,,,,,,,,,,,,,,,,,,,,,,,,,,,,,,
,,616ae3f893864f417b704e95,2024-02-21_21h29.02.505,kallum_motion_pilot,2023.2.2,Win32,59.88023952,616ae3f893864f417b704e95,65d6bb0e977760de756971f7,65d6bf11265c1952ee891fd3,0.0901,0.0901,0,128,128,122,1,sixfive,,,,,,,,,,,,,,,,,,,,,,,,,,,,,,,,,,,,,,,,,,,,,,,,,,,,,,,,,,,,,,,,,,,,,,,,,,,,,,,,,,,,,,,,,,,,,,,,,,,,,,,,,,,,,,,,,,,,,,,,,,,,,,,,,,,,,,,,,
,,616ae3f893864f417b704e95,2024-02-21_21h29.02.505,kallum_motion_pilot,2023.2.2,Win32,59.88023952,616ae3f893864f417b704e95,65d6bb0e977760de756971f7,65d6bf11265c1952ee891fd3,0.0903,0.0905,0,129,129,69,1,threefour,,,,,,,,,,,,,,,,,,,,,,,,,,,,,,,,,,,,,,,,,,,,,,,,,,,,,,,,,,,,,,,,,,,,,,,,,,,,,,,,,,,,,,,,,,,,,,,,,,,,,,,,,,,,,,,,,,,,,,,,,,,,,,,,,,,,,,,,,
,,616ae3f893864f417b704e95,2024-02-21_21h29.02.505,kallum_motion_pilot,2023.2.2,Win32,59.88023952,616ae3f893864f417b704e95,65d6bb0e977760de756971f7,65d6bf11265c1952ee891fd3,0.0906,0.0908,0,130,130,18,1,twoone,,,,,,,,,,,,,,,,,,,,,,,,,,,,,,,,,,,,,,,,,,,,,,,,,,,,,,,,,,,,,,,,,,,,,,,,,,,,,,,,,,,,,,,,,,,,,,,,,,,,,,,,,,,,,,,,,,,,,,,,,,,,,,,,,,,,,,,,,
,,616ae3f893864f417b704e95,2024-02-21_21h29.02.505,kallum_motion_pilot,2023.2.2,Win32,59.88023952,616ae3f893864f417b704e95,65d6bb0e977760de756971f7,65d6bf11265c1952ee891fd3,0.091,0.0912,0,131,131,16,1,onetwo,,,,,,,,,,,,,,,,,,,,,,,,,,,,,,,,,,,,,,,,,,,,,,,,,,,,,,,,,,,,,,,,,,,,,,,,,,,,,,,,,,,,,,,,,,,,,,,,,,,,,,,,,,,,,,,,,,,,,,,,,,,,,,,,,,,,,,,,,
,,616ae3f893864f417b704e95,2024-02-21_21h29.02.505,kallum_motion_pilot,2023.2.2,Win32,59.88023952,616ae3f893864f417b704e95,65d6bb0e977760de756971f7,65d6bf11265c1952ee891fd3,0.0914,0.0915,0,132,132,138,1,sixfive,,,,,,,,,,,,,,,,,,,,,,,,,,,,,,,,,,,,,,,,,,,,,,,,,,,,,,,,,,,,,,,,,,,,,,,,,,,,,,,,,,,,,,,,,,,,,,,,,,,,,,,,,,,,,,,,,,,,,,,,,,,,,,,,,,,,,,,,,
,,616ae3f893864f417b704e95,2024-02-21_21h29.02.505,kallum_motion_pilot,2023.2.2,Win32,59.88023952,616ae3f893864f417b704e95,65d6bb0e977760de756971f7,65d6bf11265c1952ee891fd3,0.0917,0.0918,0,133,133,14,1,fourtwo,,,,,,,,,,,,,,,,,,,,,,,,,,,,,,,,,,,,,,,,,,,,,,,,,,,,,,,,,,,,,,,,,,,,,,,,,,,,,,,,,,,,,,,,,,,,,,,,,,,,,,,,,,,,,,,,,,,,,,,,,,,,,,,,,,,,,,,,,
,,616ae3f893864f417b704e95,2024-02-21_21h29.02.505,kallum_motion_pilot,2023.2.2,Win32,59.88023952,616ae3f893864f417b704e95,65d6bb0e977760de756971f7,65d6bf11265c1952ee891fd3,0.0919,0.092,0,134,134,41,1,onethree,,,,,,,,,,,,,,,,,,,,,,,,,,,,,,,,,,,,,,,,,,,,,,,,,,,,,,,,,,,,,,,,,,,,,,,,,,,,,,,,,,,,,,,,,,,,,,,,,,,,,,,,,,,,,,,,,,,,,,,,,,,,,,,,,,,,,,,,,
,,616ae3f893864f417b704e95,2024-02-21_21h29.02.505,kallum_motion_pilot,2023.2.2,Win32,59.88023952,616ae3f893864f417b704e95,65d6bb0e977760de756971f7,65d6bf11265c1952ee891fd3,0.0922,0.0923,0,135,135,81,1,fiveseven,,,,,,,,,,,,,,,,,,,,,,,,,,,,,,,,,,,,,,,,,,,,,,,,,,,,,,,,,,,,,,,,,,,,,,,,,,,,,,,,,,,,,,,,,,,,,,,,,,,,,,,,,,,,,,,,,,,,,,,,,,,,,,,,,,,,,,,,,
,,616ae3f893864f417b704e95,2024-02-21_21h29.02.505,kallum_motion_pilot,2023.2.2,Win32,59.88023952,616ae3f893864f417b704e95,65d6bb0e977760de756971f7,65d6bf11265c1952ee891fd3,0.0925,0.0927,0,136,136,140,1,sevenfive,,,,,,,,,,,,,,,,,,,,,,,,,,,,,,,,,,,,,,,,,,,,,,,,,,,,,,,,,,,,,,,,,,,,,,,,,,,,,,,,,,,,,,,,,,,,,,,,,,,,,,,,,,,,,,,,,,,,,,,,,,,,,,,,,,,,,,,,,
,,616ae3f893864f417b704e95,2024-02-21_21h29.02.505,kallum_motion_pilot,2023.2.2,Win32,59.88023952,616ae3f893864f417b704e95,65d6bb0e977760de756971f7,65d6bf11265c1952ee891fd3,0.093,0.0932,0,137,137,71,1,fourthree,,,,,,,,,,,,,,,,,,,,,,,,,,,,,,,,,,,,,,,,,,,,,,,,,,,,,,,,,,,,,,,,,,,,,,,,,,,,,,,,,,,,,,,,,,,,,,,,,,,,,,,,,,,,,,,,,,,,,,,,,,,,,,,,,,,,,,,,,
,,616ae3f893864f417b704e95,2024-02-21_21h29.02.505,kallum_motion_pilot,2023.2.2,Win32,59.88023952,616ae3f893864f417b704e95,65d6bb0e977760de756971f7,65d6bf11265c1952ee891fd3,0.0934,0.0938,0,138,138,108,1,sevenfive,,,,,,,,,,,,,,,,,,,,,,,,,,,,,,,,,,,,,,,,,,,,,,,,,,,,,,,,,,,,,,,,,,,,,,,,,,,,,,,,,,,,,,,,,,,,,,,,,,,,,,,,,,,,,,,,,,,,,,,,,,,,,,,,,,,,,,,,,
,,616ae3f893864f417b704e95,2024-02-21_21h29.02.505,kallum_motion_pilot,2023.2.2,Win32,59.88023952,616ae3f893864f417b704e95,65d6bb0e977760de756971f7,65d6bf11265c1952ee891fd3,0.094,0.0941,0,139,139,8,1,onetwo,,,,,,,,,,,,,,,,,,,,,,,,,,,,,,,,,,,,,,,,,,,,,,,,,,,,,,,,,,,,,,,,,,,,,,,,,,,,,,,,,,,,,,,,,,,,,,,,,,,,,,,,,,,,,,,,,,,,,,,,,,,,,,,,,,,,,,,,,
,,616ae3f893864f417b704e95,2024-02-21_21h29.02.505,kallum_motion_pilot,2023.2.2,Win32,59.88023952,616ae3f893864f417b704e95,65d6bb0e977760de756971f7,65d6bf11265c1952ee891fd3,0.0942,0.0943,0,140,140,112,1,fivesix,,,,,,,,,,,,,,,,,,,,,,,,,,,,,,,,,,,,,,,,,,,,,,,,,,,,,,,,,,,,,,,,,,,,,,,,,,,,,,,,,,,,,,,,,,,,,,,,,,,,,,,,,,,,,,,,,,,,,,,,,,,,,,,,,,,,,,,,,
,,616ae3f893864f417b704e95,2024-02-21_21h29.02.505,kallum_motion_pilot,2023.2.2,Win32,59.88023952,616ae3f893864f417b704e95,65d6bb0e977760de756971f7,65d6bf11265c1952ee891fd3,0.0945,0.0945,0,141,141,88,1,fivesix,,,,,,,,,,,,,,,,,,,,,,,,,,,,,,,,,,,,,,,,,,,,,,,,,,,,,,,,,,,,,,,,,,,,,,,,,,,,,,,,,,,,,,,,,,,,,,,,,,,,,,,,,,,,,,,,,,,,,,,,,,,,,,,,,,,,,,,,,
,,616ae3f893864f417b704e95,2024-02-21_21h29.02.505,kallum_motion_pilot,2023.2.2,Win32,59.88023952,616ae3f893864f417b704e95,65d6bb0e977760de756971f7,65d6bf11265c1952ee891fd3,0.0947,0.0948,0,142,142,109,1,seveneight,,,,,,,,,,,,,,,,,,,,,,,,,,,,,,,,,,,,,,,,,,,,,,,,,,,,,,,,,,,,,,,,,,,,,,,,,,,,,,,,,,,,,,,,,,,,,,,,,,,,,,,,,,,,,,,,,,,,,,,,,,,,,,,,,,,,,,,,,
,,616ae3f893864f417b704e95,2024-02-21_21h29.02.505,kallum_motion_pilot,2023.2.2,Win32,59.88023952,616ae3f893864f417b704e95,65d6bb0e977760de756971f7,65d6bf11265c1952ee891fd3,0.095,0.0952,0,143,143,24,1,onetwo,,,,,,,,,,,,,,,,,,,,,,,,,,,,,,,,,,,,,,,,,,,,,,,,,,,,,,,,,,,,,,,,,,,,,,,,,,,,,,,,,,,,,,,,,,,,,,,,,,,,,,,,,,,,,,,,,,,,,,,,,,,,,,,,,,,,,,,,,
,,616ae3f893864f417b704e95,2024-02-21_21h29.02.505,kallum_motion_pilot,2023.2.2,Win32,59.88023952,616ae3f893864f417b704e95,65d6bb0e977760de756971f7,65d6bf11265c1952ee891fd3,0.0952,0.0953,0,144,144,149,1,seveneight,,,,,,,,,,,,,,,,,,,,,,,,,,,,,,,,,,,,,,,,,,,,,,,,,,,,,,,,,,,,,,,,,,,,,,,,,,,,,,,,,,,,,,,,,,,,,,,,,,,,,,,,,,,,,,,,,,,,,,,,,,,,,,,,,,,,,,,,,
,,616ae3f893864f417b704e95,2024-02-21_21h29.02.505,kallum_motion_pilot,2023.2.2,Win32,59.88023952,616ae3f893864f417b704e95,65d6bb0e977760de756971f7,65d6bf11265c1952ee891fd3,0.0956,0.0957,0,145,145,110,1,eightsix,,,,,,,,,,,,,,,,,,,,,,,,,,,,,,,,,,,,,,,,,,,,,,,,,,,,,,,,,,,,,,,,,,,,,,,,,,,,,,,,,,,,,,,,,,,,,,,,,,,,,,,,,,,,,,,,,,,,,,,,,,,,,,,,,,,,,,,,,
,,616ae3f893864f417b704e95,2024-02-21_21h29.02.505,kallum_motion_pilot,2023.2.2,Win32,59.88023952,616ae3f893864f417b704e95,65d6bb0e977760de756971f7,65d6bf11265c1952ee891fd3,0.0959,0.0959,0,146,146,12,1,threeone,,,,,,,,,,,,,,,,,,,,,,,,,,,,,,,,,,,,,,,,,,,,,,,,,,,,,,,,,,,,,,,,,,,,,,,,,,,,,,,,,,,,,,,,,,,,,,,,,,,,,,,,,,,,,,,,,,,,,,,,,,,,,,,,,,,,,,,,,
,,616ae3f893864f417b704e95,2024-02-21_21h29.02.505,kallum_motion_pilot,2023.2.2,Win32,59.88023952,616ae3f893864f417b704e95,65d6bb0e977760de756971f7,65d6bf11265c1952ee891fd3,0.0961,0.0962,0,147,147,156,1,sevenfive,,,,,,,,,,,,,,,,,,,,,,,,,,,,,,,,,,,,,,,,,,,,,,,,,,,,,,,,,,,,,,,,,,,,,,,,,,,,,,,,,,,,,,,,,,,,,,,,,,,,,,,,,,,,,,,,,,,,,,,,,,,,,,,,,,,,,,,,,
,,616ae3f893864f417b704e95,2024-02-21_21h29.02.505,kallum_motion_pilot,2023.2.2,Win32,59.88023952,616ae3f893864f417b704e95,65d6bb0e977760de756971f7,65d6bf11265c1952ee891fd3,0.0963,0.0965,0,148,148,9,1,onethree,,,,,,,,,,,,,,,,,,,,,,,,,,,,,,,,,,,,,,,,,,,,,,,,,,,,,,,,,,,,,,,,,,,,,,,,,,,,,,,,,,,,,,,,,,,,,,,,,,,,,,,,,,,,,,,,,,,,,,,,,,,,,,,,,,,,,,,,,
,,616ae3f893864f417b704e95,2024-02-21_21h29.02.505,kallum_motion_pilot,2023.2.2,Win32,59.88023952,616ae3f893864f417b704e95,65d6bb0e977760de756971f7,65d6bf11265c1952ee891fd3,0.0967,0.0968,0,149,149,135,1,eightseven,,,,,,,,,,,,,,,,,,,,,,,,,,,,,,,,,,,,,,,,,,,,,,,,,,,,,,,,,,,,,,,,,,,,,,,,,,,,,,,,,,,,,,,,,,,,,,,,,,,,,,,,,,,,,,,,,,,,,,,,,,,,,,,,,,,,,,,,,
,,616ae3f893864f417b704e95,2024-02-21_21h29.02.505,kallum_motion_pilot,2023.2.2,Win32,59.88023952,616ae3f893864f417b704e95,65d6bb0e977760de756971f7,65d6bf11265c1952ee891fd3,0.0968,0.097,0,150,150,105,1,fiveseven,,,,,,,,,,,,,,,,,,,,,,,,,,,,,,,,,,,,,,,,,,,,,,,,,,,,,,,,,,,,,,,,,,,,,,,,,,,,,,,,,,,,,,,,,,,,,,,,,,,,,,,,,,,,,,,,,,,,,,,,,,,,,,,,,,,,,,,,,
,,616ae3f893864f417b704e95,2024-02-21_21h29.02.505,kallum_motion_pilot,2023.2.2,Win32,59.88023952,616ae3f893864f417b704e95,65d6bb0e977760de756971f7,65d6bf11265c1952ee891fd3,0.0971,0.0973,0,151,151,60,1,threeone,,,,,,,,,,,,,,,,,,,,,,,,,,,,,,,,,,,,,,,,,,,,,,,,,,,,,,,,,,,,,,,,,,,,,,,,,,,,,,,,,,,,,,,,,,,,,,,,,,,,,,,,,,,,,,,,,,,,,,,,,,,,,,,,,,,,,,,,,
,,616ae3f893864f417b704e95,2024-02-21_21h29.02.505,kallum_motion_pilot,2023.2.2,Win32,59.88023952,616ae3f893864f417b704e95,65d6bb0e977760de756971f7,65d6bf11265c1952ee891fd3,0.0974,0.0975,0,152,152,23,1,fourthree,,,,,,,,,,,,,,,,,,,,,,,,,,,,,,,,,,,,,,,,,,,,,,,,,,,,,,,,,,,,,,,,,,,,,,,,,,,,,,,,,,,,,,,,,,,,,,,,,,,,,,,,,,,,,,,,,,,,,,,,,,,,,,,,,,,,,,,,,
,,616ae3f893864f417b704e95,2024-02-21_21h29.02.505,kallum_motion_pilot,2023.2.2,Win32,59.88023952,616ae3f893864f417b704e95,65d6bb0e977760de756971f7,65d6bf11265c1952ee891fd3,0.0978,0.0978,0,153,153,43,1,twofour,,,,,,,,,,,,,,,,,,,,,,,,,,,,,,,,,,,,,,,,,,,,,,,,,,,,,,,,,,,,,,,,,,,,,,,,,,,,,,,,,,,,,,,,,,,,,,,,,,,,,,,,,,,,,,,,,,,,,,,,,,,,,,,,,,,,,,,,,
,,616ae3f893864f417b704e95,2024-02-21_21h29.02.505,kallum_motion_pilot,2023.2.2,Win32,59.88023952,616ae3f893864f417b704e95,65d6bb0e977760de756971f7,65d6bf11265c1952ee891fd3,0.098,0.0981,0,154,154,50,1,twoone,,,,,,,,,,,,,,,,,,,,,,,,,,,,,,,,,,,,,,,,,,,,,,,,,,,,,,,,,,,,,,,,,,,,,,,,,,,,,,,,,,,,,,,,,,,,,,,,,,,,,,,,,,,,,,,,,,,,,,,,,,,,,,,,,,,,,,,,,
,,616ae3f893864f417b704e95,2024-02-21_21h29.02.505,kallum_motion_pilot,2023.2.2,Win32,59.88023952,616ae3f893864f417b704e95,65d6bb0e977760de756971f7,65d6bf11265c1952ee891fd3,0.0982,0.0984,0,155,155,5,1,threefour,,,,,,,,,,,,,,,,,,,,,,,,,,,,,,,,,,,,,,,,,,,,,,,,,,,,,,,,,,,,,,,,,,,,,,,,,,,,,,,,,,,,,,,,,,,,,,,,,,,,,,,,,,,,,,,,,,,,,,,,,,,,,,,,,,,,,,,,,
,,616ae3f893864f417b704e95,2024-02-21_21h29.02.505,kallum_motion_pilot,2023.2.2,Win32,59.88023952,616ae3f893864f417b704e95,65d6bb0e977760de756971f7,65d6bf11265c1952ee891fd3,0.0986,0.0988,0,156,156,66,1,twoone,,,,,,,,,,,,,,,,,,,,,,,,,,,,,,,,,,,,,,,,,,,,,,,,,,,,,,,,,,,,,,,,,,,,,,,,,,,,,,,,,,,,,,,,,,,,,,,,,,,,,,,,,,,,,,,,,,,,,,,,,,,,,,,,,,,,,,,,,
,,616ae3f893864f417b704e95,2024-02-21_21h29.02.505,kallum_motion_pilot,2023.2.2,Win32,59.88023952,616ae3f893864f417b704e95,65d6bb0e977760de756971f7,65d6bf11265c1952ee891fd3,0.0989,0.0991,0,157,157,4,1,threeone,,,,,,,,,,,,,,,,,,,,,,,,,,,,,,,,,,,,,,,,,,,,,,,,,,,,,,,,,,,,,,,,,,,,,,,,,,,,,,,,,,,,,,,,,,,,,,,,,,,,,,,,,,,,,,,,,,,,,,,,,,,,,,,,,,,,,,,,,
,,616ae3f893864f417b704e95,2024-02-21_21h29.02.505,kallum_motion_pilot,2023.2.2,Win32,59.88023952,616ae3f893864f417b704e95,65d6bb0e977760de756971f7,65d6bf11265c1952ee891fd3,0.0992,0.0995,0,158,158,15,1,fourthree,,,,,,,,,,,,,,,,,,,,,,,,,,,,,,,,,,,,,,,,,,,,,,,,,,,,,,,,,,,,,,,,,,,,,,,,,,,,,,,,,,,,,,,,,,,,,,,,,,,,,,,,,,,,,,,,,,,,,,,,,,,,,,,,,,,,,,,,,
,,616ae3f893864f417b704e95,2024-02-21_21h29.02.505,kallum_motion_pilot,2023.2.2,Win32,59.88023952,616ae3f893864f417b704e95,65d6bb0e977760de756971f7,65d6bf11265c1952ee891fd3,0.0996,0.0998,0,159,159,145,1,fiveseven,,,,,,,,,,,,,,,,,,,,,,,,,,,,,,,,,,,,,,,,,,,,,,,,,,,,,,,,,,,,,,,,,,,,,,,,,,,,,,,,,,,,,,,,,,,,,,,,,,,,,,,,,,,,,,,,,,,,,,,,,,,,,,,,,,,,,,,,,
,,616ae3f893864f417b704e95,2024-02-21_21h29.02.505,kallum_motion_pilot,2023.2.2,Win32,59.88023952,616ae3f893864f417b704e95,65d6bb0e977760de756971f7,65d6bf11265c1952ee891fd3,0.1,0.1001,0,160,160,114,1,sixfive,,,,,,,,,,,,,,,,,,,,,,,,,,,,,,,,,,,,,,,,,,,,,,,,,,,,,,,,,,,,,,,,,,,,,,,,,,,,,,,,,,,,,,,,,,,,,,,,,,,,,,,,,,,,,,,,,,,,,,,,,,,,,,,,,,,,,,,,,
,,616ae3f893864f417b704e95,2024-02-21_21h29.02.505,kallum_motion_pilot,2023.2.2,Win32,59.88023952,616ae3f893864f417b704e95,65d6bb0e977760de756971f7,65d6bf11265c1952ee891fd3,0.1004,0.1008,0,161,161,141,1,seveneight,,,,,,,,,,,,,,,,,,,,,,,,,,,,,,,,,,,,,,,,,,,,,,,,,,,,,,,,,,,,,,,,,,,,,,,,,,,,,,,,,,,,,,,,,,,,,,,,,,,,,,,,,,,,,,,,,,,,,,,,,,,,,,,,,,,,,,,,,
,,616ae3f893864f417b704e95,2024-02-21_21h29.02.505,kallum_motion_pilot,2023.2.2,Win32,59.88023952,616ae3f893864f417b704e95,65d6bb0e977760de756971f7,65d6bf11265c1952ee891fd3,0.1011,0.1014,1,0,162,12,1,threeone,,,,,,,,,,,,,,,,,,,,,,,,,,,,,,,,,,,,,,,,,,,,,,,,,,,,,,,,,,,,,,,,,,,,,,,,,,,,,,,,,,,,,,,,,,,,,,,,,,,,,,,,,,,,,,,,,,,,,,,,,,,,,,,,,,,,,,,,,
,,616ae3f893864f417b704e95,2024-02-21_21h29.02.505,kallum_motion_pilot,2023.2.2,Win32,59.88023952,616ae3f893864f417b704e95,65d6bb0e977760de756971f7,65d6bf11265c1952ee891fd3,0.1016,0.1017,1,1,163,17,1,onethree,,,,,,,,,,,,,,,,,,,,,,,,,,,,,,,,,,,,,,,,,,,,,,,,,,,,,,,,,,,,,,,,,,,,,,,,,,,,,,,,,,,,,,,,,,,,,,,,,,,,,,,,,,,,,,,,,,,,,,,,,,,,,,,,,,,,,,,,,
,,616ae3f893864f417b704e95,2024-02-21_21h29.02.505,kallum_motion_pilot,2023.2.2,Win32,59.88023952,616ae3f893864f417b704e95,65d6bb0e977760de756971f7,65d6bf11265c1952ee891fd3,0.1019,0.102,1,2,164,56,1,onetwo,,,,,,,,,,,,,,,,,,,,,,,,,,,,,,,,,,,,,,,,,,,,,,,,,,,,,,,,,,,,,,,,,,,,,,,,,,,,,,,,,,,,,,,,,,,,,,,,,,,,,,,,,,,,,,,,,,,,,,,,,,,,,,,,,,,,,,,,,
,,616ae3f893864f417b704e95,2024-02-21_21h29.02.505,kallum_motion_pilot,2023.2.2,Win32,59.88023952,616ae3f893864f417b704e95,65d6bb0e977760de756971f7,65d6bf11265c1952ee891fd3,0.1023,0.1024,1,3,165,153,1,fiveseven,,,,,,,,,,,,,,,,,,,,,,,,,,,,,,,,,,,,,,,,,,,,,,,,,,,,,,,,,,,,,,,,,,,,,,,,,,,,,,,,,,,,,,,,,,,,,,,,,,,,,,,,,,,,,,,,,,,,,,,,,,,,,,,,,,,,,,,,,
,,616ae3f893864f417b704e95,2024-02-21_21h29.02.505,kallum_motion_pilot,2023.2.2,Win32,59.88023952,616ae3f893864f417b704e95,65d6bb0e977760de756971f7,65d6bf11265c1952ee891fd3,0.1026,0.1027,1,4,166,121,1,fiveseven,,,,,,,,,,,,,,,,,,,,,,,,,,,,,,,,,,,,,,,,,,,,,,,,,,,,,,,,,,,,,,,,,,,,,,,,,,,,,,,,,,,,,,,,,,,,,,,,,,,,,,,,,,,,,,,,,,,,,,,,,,,,,,,,,,,,,,,,,
,,616ae3f893864f417b704e95,2024-02-21_21h29.02.505,kallum_motion_pilot,2023.2.2,Win32,59.88023952,616ae3f893864f417b704e95,65d6bb0e977760de756971f7,65d6bf11265c1952ee891fd3,0.1028,0.1031,1,5,167,84,1,sevenfive,,,,,,,,,,,,,,,,,,,,,,,,,,,,,,,,,,,,,,,,,,,,,,,,,,,,,,,,,,,,,,,,,,,,,,,,,,,,,,,,,,,,,,,,,,,,,,,,,,,,,,,,,,,,,,,,,,,,,,,,,,,,,,,,,,,,,,,,,
,,616ae3f893864f417b704e95,2024-02-21_21h29.02.505,kallum_motion_pilot,2023.2.2,Win32,59.88023952,616ae3f893864f417b704e95,65d6bb0e977760de756971f7,65d6bf11265c1952ee891fd3,0.1032,0.1033,1,6,168,127,1,eightseven,,,,,,,,,,,,,,,,,,,,,,,,,,,,,,,,,,,,,,,,,,,,,,,,,,,,,,,,,,,,,,,,,,,,,,,,,,,,,,,,,,,,,,,,,,,,,,,,,,,,,,,,,,,,,,,,,,,,,,,,,,,,,,,,,,,,,,,,,
,,616ae3f893864f417b704e95,2024-02-21_21h29.02.505,kallum_motion_pilot,2023.2.2,Win32,59.88023952,616ae3f893864f417b704e95,65d6bb0e977760de756971f7,65d6bf11265c1952ee891fd3,0.1034,0.1035,1,7,169,3,1,twofour,,,,,,,,,,,,,,,,,,,,,,,,,,,,,,,,,,,,,,,,,,,,,,,,,,,,,,,,,,,,,,,,,,,,,,,,,,,,,,,,,,,,,,,,,,,,,,,,,,,,,,,,,,,,,,,,,,,,,,,,,,,,,,,,,,,,,,,,,
,,616ae3f893864f417b704e95,2024-02-21_21h29.02.505,kallum_motion_pilot,2023.2.2,Win32,59.88023952,616ae3f893864f417b704e95,65d6bb0e977760de756971f7,65d6bf11265c1952ee891fd3,0.1037,0.1039,1,8,170,57,1,onethree,,,,,,,,,,,,,,,,,,,,,,,,,,,,,,,,,,,,,,,,,,,,,,,,,,,,,,,,,,,,,,,,,,,,,,,,,,,,,,,,,,,,,,,,,,,,,,,,,,,,,,,,,,,,,,,,,,,,,,,,,,,,,,,,,,,,,,,,,
,,616ae3f893864f417b704e95,2024-02-21_21h29.02.505,kallum_motion_pilot,2023.2.2,Win32,59.88023952,616ae3f893864f417b704e95,65d6bb0e977760de756971f7,65d6bf11265c1952ee891fd3,0.1044,0.1046,1,9,171,110,1,eightsix,,,,,,,,,,,,,,,,,,,,,,,,,,,,,,,,,,,,,,,,,,,,,,,,,,,,,,,,,,,,,,,,,,,,,,,,,,,,,,,,,,,,,,,,,,,,,,,,,,,,,,,,,,,,,,,,,,,,,,,,,,,,,,,,,,,,,,,,,
,,616ae3f893864f417b704e95,2024-02-21_21h29.02.505,kallum_motion_pilot,2023.2.2,Win32,59.88023952,616ae3f893864f417b704e95,65d6bb0e977760de756971f7,65d6bf11265c1952ee891fd3,0.1048,0.105,1,10,172,64,1,onetwo,,,,,,,,,,,,,,,,,,,,,,,,,,,,,,,,,,,,,,,,,,,,,,,,,,,,,,,,,,,,,,,,,,,,,,,,,,,,,,,,,,,,,,,,,,,,,,,,,,,,,,,,,,,,,,,,,,,,,,,,,,,,,,,,,,,,,,,,,
,,616ae3f893864f417b704e95,2024-02-21_21h29.02.505,kallum_motion_pilot,2023.2.2,Win32,59.88023952,616ae3f893864f417b704e95,65d6bb0e977760de756971f7,65d6bf11265c1952ee891fd3,0.1051,0.1053,1,11,173,89,1,fiveseven,,,,,,,,,,,,,,,,,,,,,,,,,,,,,,,,,,,,,,,,,,,,,,,,,,,,,,,,,,,,,,,,,,,,,,,,,,,,,,,,,,,,,,,,,,,,,,,,,,,,,,,,,,,,,,,,,,,,,,,,,,,,,,,,,,,,,,,,,
,,616ae3f893864f417b704e95,2024-02-21_21h29.02.505,kallum_motion_pilot,2023.2.2,Win32,59.88023952,616ae3f893864f417b704e95,65d6bb0e977760de756971f7,65d6bf11265c1952ee891fd3,0.1055,0.1056,1,12,174,38,1,fourtwo,,,,,,,,,,,,,,,,,,,,,,,,,,,,,,,,,,,,,,,,,,,,,,,,,,,,,,,,,,,,,,,,,,,,,,,,,,,,,,,,,,,,,,,,,,,,,,,,,,,,,,,,,,,,,,,,,,,,,,,,,,,,,,,,,,,,,,,,,
,,616ae3f893864f417b704e95,2024-02-21_21h29.02.505,kallum_motion_pilot,2023.2.2,Win32,59.88023952,616ae3f893864f417b704e95,65d6bb0e977760de756971f7,65d6bf11265c1952ee891fd3,0.1058,0.1059,1,13,175,95,1,eightseven,,,,,,,,,,,,,,,,,,,,,,,,,,,,,,,,,,,,,,,,,,,,,,,,,,,,,,,,,,,,,,,,,,,,,,,,,,,,,,,,,,,,,,,,,,,,,,,,,,,,,,,,,,,,,,,,,,,,,,,,,,,,,,,,,,,,,,,,,
,,616ae3f893864f417b704e95,2024-02-21_21h29.02.505,kallum_motion_pilot,2023.2.2,Win32,59.88023952,616ae3f893864f417b704e95,65d6bb0e977760de756971f7,65d6bf11265c1952ee891fd3,0.1061,0.1062,1,14,176,25,1,onethree,,,,,,,,,,,,,,,,,,,,,,,,,,,,,,,,,,,,,,,,,,,,,,,,,,,,,,,,,,,,,,,,,,,,,,,,,,,,,,,,,,,,,,,,,,,,,,,,,,,,,,,,,,,,,,,,,,,,,,,,,,,,,,,,,,,,,,,,,
,,616ae3f893864f417b704e95,2024-02-21_21h29.02.505,kallum_motion_pilot,2023.2.2,Win32,59.88023952,616ae3f893864f417b704e95,65d6bb0e977760de756971f7,65d6bf11265c1952ee891fd3,0.1065,0.1066,1,15,177,109,1,seveneight,,,,,,,,,,,,,,,,,,,,,,,,,,,,,,,,,,,,,,,,,,,,,,,,,,,,,,,,,,,,,,,,,,,,,,,,,,,,,,,,,,,,,,,,,,,,,,,,,,,,,,,,,,,,,,,,,,,,,,,,,,,,,,,,,,,,,,,,,
,,616ae3f893864f417b704e95,2024-02-21_21h29.02.505,kallum_motion_pilot,2023.2.2,Win32,59.88023952,616ae3f893864f417b704e95,65d6bb0e977760de756971f7,65d6bf11265c1952ee891fd3,0.1068,0.1069,1,16,178,104,1,fivesix,,,,,,,,,,,,,,,,,,,,,,,,,,,,,,,,,,,,,,,,,,,,,,,,,,,,,,,,,,,,,,,,,,,,,,,,,,,,,,,,,,,,,,,,,,,,,,,,,,,,,,,,,,,,,,,,,,,,,,,,,,,,,,,,,,,,,,,,,
,,616ae3f893864f417b704e95,2024-02-21_21h29.02.505,kallum_motion_pilot,2023.2.2,Win32,59.88023952,616ae3f893864f417b704e95,65d6bb0e977760de756971f7,65d6bf11265c1952ee891fd3,0.107,0.1072,1,17,179,154,1,sixfive,,,,,,,,,,,,,,,,,,,,,,,,,,,,,,,,,,,,,,,,,,,,,,,,,,,,,,,,,,,,,,,,,,,,,,,,,,,,,,,,,,,,,,,,,,,,,,,,,,,,,,,,,,,,,,,,,,,,,,,,,,,,,,,,,,,,,,,,,
,,616ae3f893864f417b704e95,2024-02-21_21h29.02.505,kallum_motion_pilot,2023.2.2,Win32,59.88023952,616ae3f893864f417b704e95,65d6bb0e977760de756971f7,65d6bf11265c1952ee891fd3,0.1075,0.1076,1,18,180,155,1,sixeight,,,,,,,,,,,,,,,,,,,,,,,,,,,,,,,,,,,,,,,,,,,,,,,,,,,,,,,,,,,,,,,,,,,,,,,,,,,,,,,,,,,,,,,,,,,,,,,,,,,,,,,,,,,,,,,,,,,,,,,,,,,,,,,,,,,,,,,,,
,,616ae3f893864f417b704e95,2024-02-21_21h29.02.505,kallum_motion_pilot,2023.2.2,Win32,59.88023952,616ae3f893864f417b704e95,65d6bb0e977760de756971f7,65d6bf11265c1952ee891fd3,0.1078,0.1082,1,19,181,119,1,eightseven,,,,,,,,,,,,,,,,,,,,,,,,,,,,,,,,,,,,,,,,,,,,,,,,,,,,,,,,,,,,,,,,,,,,,,,,,,,,,,,,,,,,,,,,,,,,,,,,,,,,,,,,,,,,,,,,,,,,,,,,,,,,,,,,,,,,,,,,,
,,616ae3f893864f417b704e95,2024-02-21_21h29.02.505,kallum_motion_pilot,2023.2.2,Win32,59.88023952,616ae3f893864f417b704e95,65d6bb0e977760de756971f7,65d6bf11265c1952ee891fd3,0.1085,0.1087,1,20,182,48,1,onetwo,,,,,,,,,,,,,,,,,,,,,,,,,,,,,,,,,,,,,,,,,,,,,,,,,,,,,,,,,,,,,,,,,,,,,,,,,,,,,,,,,,,,,,,,,,,,,,,,,,,,,,,,,,,,,,,,,,,,,,,,,,,,,,,,,,,,,,,,,
,,616ae3f893864f417b704e95,2024-02-21_21h29.02.505,kallum_motion_pilot,2023.2.2,Win32,59.88023952,616ae3f893864f417b704e95,65d6bb0e977760de756971f7,65d6bf11265c1952ee891fd3,0.1089,0.1091,1,21,183,159,1,eightseven,,,,,,,,,,,,,,,,,,,,,,,,,,,,,,,,,,,,,,,,,,,,,,,,,,,,,,,,,,,,,,,,,,,,,,,,,,,,,,,,,,,,,,,,,,,,,,,,,,,,,,,,,,,,,,,,,,,,,,,,,,,,,,,,,,,,,,,,,
,,616ae3f893864f417b704e95,2024-02-21_21h29.02.505,kallum_motion_pilot,2023.2.2,Win32,59.88023952,616ae3f893864f417b704e95,65d6bb0e977760de756971f7,65d6bf11265c1952ee891fd3,0.1094,0.1095,1,22,184,36,1,threeone,,,,,,,,,,,,,,,,,,,,,,,,,,,,,,,,,,,,,,,,,,,,,,,,,,,,,,,,,,,,,,,,,,,,,,,,,,,,,,,,,,,,,,,,,,,,,,,,,,,,,,,,,,,,,,,,,,,,,,,,,,,,,,,,,,,,,,,,,
,,616ae3f893864f417b704e95,2024-02-21_21h29.02.505,kallum_motion_pilot,2023.2.2,Win32,59.88023952,616ae3f893864f417b704e95,65d6bb0e977760de756971f7,65d6bf11265c1952ee891fd3,0.1098,0.11,1,23,185,131,1,sixeight,,,,,,,,,,,,,,,,,,,,,,,,,,,,,,,,,,,,,,,,,,,,,,,,,,,,,,,,,,,,,,,,,,,,,,,,,,,,,,,,,,,,,,,,,,,,,,,,,,,,,,,,,,,,,,,,,,,,,,,,,,,,,,,,,,,,,,,,,
,,616ae3f893864f417b704e95,2024-02-21_21h29.02.505,kallum_motion_pilot,2023.2.2,Win32,59.88023952,616ae3f893864f417b704e95,65d6bb0e977760de756971f7,65d6bf11265c1952ee891fd3,0.1102,0.1103,1,24,186,10,1,twoone,,,,,,,,,,,,,,,,,,,,,,,,,,,,,,,,,,,,,,,,,,,,,,,,,,,,,,,,,,,,,,,,,,,,,,,,,,,,,,,,,,,,,,,,,,,,,,,,,,,,,,,,,,,,,,,,,,,,,,,,,,,,,,,,,,,,,,,,,
,,616ae3f893864f417b704e95,2024-02-21_21h29.02.505,kallum_motion_pilot,2023.2.2,Win32,59.88023952,616ae3f893864f417b704e95,65d6bb0e977760de756971f7,65d6bf11265c1952ee891fd3,0.1104,0.1106,1,25,187,108,1,sevenfive,,,,,,,,,,,,,,,,,,,,,,,,,,,,,,,,,,,,,,,,,,,,,,,,,,,,,,,,,,,,,,,,,,,,,,,,,,,,,,,,,,,,,,,,,,,,,,,,,,,,,,,,,,,,,,,,,,,,,,,,,,,,,,,,,,,,,,,,,
,,616ae3f893864f417b704e95,2024-02-21_21h29.02.505,kallum_motion_pilot,2023.2.2,Win32,59.88023952,616ae3f893864f417b704e95,65d6bb0e977760de756971f7,65d6bf11265c1952ee891fd3,0.1107,0.1109,1,26,188,99,1,sixeight,,,,,,,,,,,,,,,,,,,,,,,,,,,,,,,,,,,,,,,,,,,,,,,,,,,,,,,,,,,,,,,,,,,,,,,,,,,,,,,,,,,,,,,,,,,,,,,,,,,,,,,,,,,,,,,,,,,,,,,,,,,,,,,,,,,,,,,,,
,,616ae3f893864f417b704e95,2024-02-21_21h29.02.505,kallum_motion_pilot,2023.2.2,Win32,59.88023952,616ae3f893864f417b704e95,65d6bb0e977760de756971f7,65d6bf11265c1952ee891fd3,0.111,0.1111,1,27,189,87,1,eightseven,,,,,,,,,,,,,,,,,,,,,,,,,,,,,,,,,,,,,,,,,,,,,,,,,,,,,,,,,,,,,,,,,,,,,,,,,,,,,,,,,,,,,,,,,,,,,,,,,,,,,,,,,,,,,,,,,,,,,,,,,,,,,,,,,,,,,,,,,
,,616ae3f893864f417b704e95,2024-02-21_21h29.02.505,kallum_motion_pilot,2023.2.2,Win32,59.88023952,616ae3f893864f417b704e95,65d6bb0e977760de756971f7,65d6bf11265c1952ee891fd3,0.1113,0.1114,1,28,190,73,1,onethree,,,,,,,,,,,,,,,,,,,,,,,,,,,,,,,,,,,,,,,,,,,,,,,,,,,,,,,,,,,,,,,,,,,,,,,,,,,,,,,,,,,,,,,,,,,,,,,,,,,,,,,,,,,,,,,,,,,,,,,,,,,,,,,,,,,,,,,,,
,,616ae3f893864f417b704e95,2024-02-21_21h29.02.505,kallum_motion_pilot,2023.2.2,Win32,59.88023952,616ae3f893864f417b704e95,65d6bb0e977760de756971f7,65d6bf11265c1952ee891fd3,0.1116,0.1117,1,29,191,149,1,seveneight,,,,,,,,,,,,,,,,,,,,,,,,,,,,,,,,,,,,,,,,,,,,,,,,,,,,,,,,,,,,,,,,,,,,,,,,,,,,,,,,,,,,,,,,,,,,,,,,,,,,,,,,,,,,,,,,,,,,,,,,,,,,,,,,,,,,,,,,,
,,616ae3f893864f417b704e95,2024-02-21_21h29.02.505,kallum_motion_pilot,2023.2.2,Win32,59.88023952,616ae3f893864f417b704e95,65d6bb0e977760de756971f7,65d6bf11265c1952ee891fd3,0.112,0.1121,1,30,192,72,1,onetwo,,,,,,,,,,,,,,,,,,,,,,,,,,,,,,,,,,,,,,,,,,,,,,,,,,,,,,,,,,,,,,,,,,,,,,,,,,,,,,,,,,,,,,,,,,,,,,,,,,,,,,,,,,,,,,,,,,,,,,,,,,,,,,,,,,,,,,,,,
,,616ae3f893864f417b704e95,2024-02-21_21h29.02.505,kallum_motion_pilot,2023.2.2,Win32,59.88023952,616ae3f893864f417b704e95,65d6bb0e977760de756971f7,65d6bf11265c1952ee891fd3,0.1122,0.1123,1,31,193,86,1,eightsix,,,,,,,,,,,,,,,,,,,,,,,,,,,,,,,,,,,,,,,,,,,,,,,,,,,,,,,,,,,,,,,,,,,,,,,,,,,,,,,,,,,,,,,,,,,,,,,,,,,,,,,,,,,,,,,,,,,,,,,,,,,,,,,,,,,,,,,,,
,,616ae3f893864f417b704e95,2024-02-21_21h29.02.505,kallum_motion_pilot,2023.2.2,Win32,59.88023952,616ae3f893864f417b704e95,65d6bb0e977760de756971f7,65d6bf11265c1952ee891fd3,0.1125,0.1128,1,32,194,49,1,onethree,,,,,,,,,,,,,,,,,,,,,,,,,,,,,,,,,,,,,,,,,,,,,,,,,,,,,,,,,,,,,,,,,,,,,,,,,,,,,,,,,,,,,,,,,,,,,,,,,,,,,,,,,,,,,,,,,,,,,,,,,,,,,,,,,,,,,,,,,
,,616ae3f893864f417b704e95,2024-02-21_21h29.02.505,kallum_motion_pilot,2023.2.2,Win32,59.88023952,616ae3f893864f417b704e95,65d6bb0e977760de756971f7,65d6bf11265c1952ee891fd3,0.1129,0.1132,1,33,195,40,1,onetwo,,,,,,,,,,,,,,,,,,,,,,,,,,,,,,,,,,,,,,,,,,,,,,,,,,,,,,,,,,,,,,,,,,,,,,,,,,,,,,,,,,,,,,,,,,,,,,,,,,,,,,,,,,,,,,,,,,,,,,,,,,,,,,,,,,,,,,,,,
,,616ae3f893864f417b704e95,2024-02-21_21h29.02.505,kallum_motion_pilot,2023.2.2,Win32,59.88023952,616ae3f893864f417b704e95,65d6bb0e977760de756971f7,65d6bf11265c1952ee891fd3,0.1134,0.1136,1,34,196,156,1,sevenfive,,,,,,,,,,,,,,,,,,,,,,,,,,,,,,,,,,,,,,,,,,,,,,,,,,,,,,,,,,,,,,,,,,,,,,,,,,,,,,,,,,,,,,,,,,,,,,,,,,,,,,,,,,,,,,,,,,,,,,,,,,,,,,,,,,,,,,,,,
,,616ae3f893864f417b704e95,2024-02-21_21h29.02.505,kallum_motion_pilot,2023.2.2,Win32,59.88023952,616ae3f893864f417b704e95,65d6bb0e977760de756971f7,65d6bf11265c1952ee891fd3,0.1138,0.1139,1,35,197,78,1,fourtwo,,,,,,,,,,,,,,,,,,,,,,,,,,,,,,,,,,,,,,,,,,,,,,,,,,,,,,,,,,,,,,,,,,,,,,,,,,,,,,,,,,,,,,,,,,,,,,,,,,,,,,,,,,,,,,,,,,,,,,,,,,,,,,,,,,,,,,,,,
,,616ae3f893864f417b704e95,2024-02-21_21h29.02.505,kallum_motion_pilot,2023.2.2,Win32,59.88023952,616ae3f893864f417b704e95,65d6bb0e977760de756971f7,65d6bf11265c1952ee891fd3,0.1141,0.1143,1,36,198,11,1,twofour,,,,,,,,,,,,,,,,,,,,,,,,,,,,,,,,,,,,,,,,,,,,,,,,,,,,,,,,,,,,,,,,,,,,,,,,,,,,,,,,,,,,,,,,,,,,,,,,,,,,,,,,,,,,,,,,,,,,,,,,,,,,,,,,,,,,,,,,,
,,616ae3f893864f417b704e95,2024-02-21_21h29.02.505,kallum_motion_pilot,2023.2.2,Win32,59.88023952,616ae3f893864f417b704e95,65d6bb0e977760de756971f7,65d6bf11265c1952ee891fd3,0.1144,0.1145,1,37,199,5,1,threefour,,,,,,,,,,,,,,,,,,,,,,,,,,,,,,,,,,,,,,,,,,,,,,,,,,,,,,,,,,,,,,,,,,,,,,,,,,,,,,,,,,,,,,,,,,,,,,,,,,,,,,,,,,,,,,,,,,,,,,,,,,,,,,,,,,,,,,,,,
,,616ae3f893864f417b704e95,2024-02-21_21h29.02.505,kallum_motion_pilot,2023.2.2,Win32,59.88023952,616ae3f893864f417b704e95,65d6bb0e977760de756971f7,65d6bf11265c1952ee891fd3,0.1147,0.1148,1,38,200,100,1,sevenfive,,,,,,,,,,,,,,,,,,,,,,,,,,,,,,,,,,,,,,,,,,,,,,,,,,,,,,,,,,,,,,,,,,,,,,,,,,,,,,,,,,,,,,,,,,,,,,,,,,,,,,,,,,,,,,,,,,,,,,,,,,,,,,,,,,,,,,,,,
,,616ae3f893864f417b704e95,2024-02-21_21h29.02.505,kallum_motion_pilot,2023.2.2,Win32,59.88023952,616ae3f893864f417b704e95,65d6bb0e977760de756971f7,65d6bf11265c1952ee891fd3,0.115,0.1152,1,39,201,152,1,fivesix,,,,,,,,,,,,,,,,,,,,,,,,,,,,,,,,,,,,,,,,,,,,,,,,,,,,,,,,,,,,,,,,,,,,,,,,,,,,,,,,,,,,,,,,,,,,,,,,,,,,,,,,,,,,,,,,,,,,,,,,,,,,,,,,,,,,,,,,,
,,616ae3f893864f417b704e95,2024-02-21_21h29.02.505,kallum_motion_pilot,2023.2.2,Win32,59.88023952,616ae3f893864f417b704e95,65d6bb0e977760de756971f7,65d6bf11265c1952ee891fd3,0.1157,0.1159,1,40,202,85,1,seveneight,,,,,,,,,,,,,,,,,,,,,,,,,,,,,,,,,,,,,,,,,,,,,,,,,,,,,,,,,,,,,,,,,,,,,,,,,,,,,,,,,,,,,,,,,,,,,,,,,,,,,,,,,,,,,,,,,,,,,,,,,,,,,,,,,,,,,,,,,
,,616ae3f893864f417b704e95,2024-02-21_21h29.02.505,kallum_motion_pilot,2023.2.2,Win32,59.88023952,616ae3f893864f417b704e95,65d6bb0e977760de756971f7,65d6bf11265c1952ee891fd3,0.1163,0.1164,1,41,203,139,1,sixeight,,,,,,,,,,,,,,,,,,,,,,,,,,,,,,,,,,,,,,,,,,,,,,,,,,,,,,,,,,,,,,,,,,,,,,,,,,,,,,,,,,,,,,,,,,,,,,,,,,,,,,,,,,,,,,,,,,,,,,,,,,,,,,,,,,,,,,,,,
,,616ae3f893864f417b704e95,2024-02-21_21h29.02.505,kallum_motion_pilot,2023.2.2,Win32,59.88023952,616ae3f893864f417b704e95,65d6bb0e977760de756971f7,65d6bf11265c1952ee891fd3,0.1166,0.1167,1,42,204,19,1,twofour,,,,,,,,,,,,,,,,,,,,,,,,,,,,,,,,,,,,,,,,,,,,,,,,,,,,,,,,,,,,,,,,,,,,,,,,,,,,,,,,,,,,,,,,,,,,,,,,,,,,,,,,,,,,,,,,,,,,,,,,,,,,,,,,,,,,,,,,,
,,616ae3f893864f417b704e95,2024-02-21_21h29.02.505,kallum_motion_pilot,2023.2.2,Win32,59.88023952,616ae3f893864f417b704e95,65d6bb0e977760de756971f7,65d6bf11265c1952ee891fd3,0.117,0.1172,1,43,205,82,1,sixfive,,,,,,,,,,,,,,,,,,,,,,,,,,,,,,,,,,,,,,,,,,,,,,,,,,,,,,,,,,,,,,,,,,,,,,,,,,,,,,,,,,,,,,,,,,,,,,,,,,,,,,,,,,,,,,,,,,,,,,,,,,,,,,,,,,,,,,,,,
,,616ae3f893864f417b704e95,2024-02-21_21h29.02.505,kallum_motion_pilot,2023.2.2,Win32,59.88023952,616ae3f893864f417b704e95,65d6bb0e977760de756971f7,65d6bf11265c1952ee891fd3,0.1173,0.1175,1,44,206,68,1,threeone,,,,,,,,,,,,,,,,,,,,,,,,,,,,,,,,,,,,,,,,,,,,,,,,,,,,,,,,,,,,,,,,,,,,,,,,,,,,,,,,,,,,,,,,,,,,,,,,,,,,,,,,,,,,,,,,,,,,,,,,,,,,,,,,,,,,,,,,,
,,616ae3f893864f417b704e95,2024-02-21_21h29.02.505,kallum_motion_pilot,2023.2.2,Win32,59.88023952,616ae3f893864f417b704e95,65d6bb0e977760de756971f7,65d6bf11265c1952ee891fd3,0.1177,0.1178,1,45,207,20,1,threeone,,,,,,,,,,,,,,,,,,,,,,,,,,,,,,,,,,,,,,,,,,,,,,,,,,,,,,,,,,,,,,,,,,,,,,,,,,,,,,,,,,,,,,,,,,,,,,,,,,,,,,,,,,,,,,,,,,,,,,,,,,,,,,,,,,,,,,,,,
,,616ae3f893864f417b704e95,2024-02-21_21h29.02.505,kallum_motion_pilot,2023.2.2,Win32,59.88023952,616ae3f893864f417b704e95,65d6bb0e977760de756971f7,65d6bf11265c1952ee891fd3,0.1181,0.1182,1,46,208,51,1,twofour,,,,,,,,,,,,,,,,,,,,,,,,,,,,,,,,,,,,,,,,,,,,,,,,,,,,,,,,,,,,,,,,,,,,,,,,,,,,,,,,,,,,,,,,,,,,,,,,,,,,,,,,,,,,,,,,,,,,,,,,,,,,,,,,,,,,,,,,,
,,616ae3f893864f417b704e95,2024-02-21_21h29.02.505,kallum_motion_pilot,2023.2.2,Win32,59.88023952,616ae3f893864f417b704e95,65d6bb0e977760de756971f7,65d6bf11265c1952ee891fd3,0.1184,0.1185,1,47,209,161,1,fiveseven,,,,,,,,,,,,,,,,,,,,,,,,,,,,,,,,,,,,,,,,,,,,,,,,,,,,,,,,,,,,,,,,,,,,,,,,,,,,,,,,,,,,,,,,,,,,,,,,,,,,,,,,,,,,,,,,,,,,,,,,,,,,,,,,,,,,,,,,,
,,616ae3f893864f417b704e95,2024-02-21_21h29.02.505,kallum_motion_pilot,2023.2.2,Win32,59.88023952,616ae3f893864f417b704e95,65d6bb0e977760de756971f7,65d6bf11265c1952ee891fd3,0.1186,0.1189,1,48,210,55,1,fourthree,,,,,,,,,,,,,,,,,,,,,,,,,,,,,,,,,,,,,,,,,,,,,,,,,,,,,,,,,,,,,,,,,,,,,,,,,,,,,,,,,,,,,,,,,,,,,,,,,,,,,,,,,,,,,,,,,,,,,,,,,,,,,,,,,,,,,,,,,
,,616ae3f893864f417b704e95,2024-02-21_21h29.02.505,kallum_motion_pilot,2023.2.2,Win32,59.88023952,616ae3f893864f417b704e95,65d6bb0e977760de756971f7,65d6bf11265c1952ee891fd3,0.119,0.1191,1,49,211,37,1,threefour,,,,,,,,,,,,,,,,,,,,,,,,,,,,,,,,,,,,,,,,,,,,,,,,,,,,,,,,,,,,,,,,,,,,,,,,,,,,,,,,,,,,,,,,,,,,,,,,,,,,,,,,,,,,,,,,,,,,,,,,,,,,,,,,,,,,,,,,,
,,616ae3f893864f417b704e95,2024-02-21_21h29.02.505,kallum_motion_pilot,2023.2.2,Win32,59.88023952,616ae3f893864f417b704e95,65d6bb0e977760de756971f7,65d6bf11265c1952ee891fd3,0.1193,0.1195,1,50,212,6,1,fourtwo,,,,,,,,,,,,,,,,,,,,,,,,,,,,,,,,,,,,,,,,,,,,,,,,,,,,,,,,,,,,,,,,,,,,,,,,,,,,,,,,,,,,,,,,,,,,,,,,,,,,,,,,,,,,,,,,,,,,,,,,,,,,,,,,,,,,,,,,,
,,616ae3f893864f417b704e95,2024-02-21_21h29.02.505,kallum_motion_pilot,2023.2.2,Win32,59.88023952,616ae3f893864f417b704e95,65d6bb0e977760de756971f7,65d6bf11265c1952ee891fd3,0.1197,0.1198,1,51,213,15,1,fourthree,,,,,,,,,,,,,,,,,,,,,,,,,,,,,,,,,,,,,,,,,,,,,,,,,,,,,,,,,,,,,,,,,,,,,,,,,,,,,,,,,,,,,,,,,,,,,,,,,,,,,,,,,,,,,,,,,,,,,,,,,,,,,,,,,,,,,,,,,
,,616ae3f893864f417b704e95,2024-02-21_21h29.02.505,kallum_motion_pilot,2023.2.2,Win32,59.88023952,616ae3f893864f417b704e95,65d6bb0e977760de756971f7,65d6bf11265c1952ee891fd3,0.12,0.1202,1,52,214,34,1,twoone,,,,,,,,,,,,,,,,,,,,,,,,,,,,,,,,,,,,,,,,,,,,,,,,,,,,,,,,,,,,,,,,,,,,,,,,,,,,,,,,,,,,,,,,,,,,,,,,,,,,,,,,,,,,,,,,,,,,,,,,,,,,,,,,,,,,,,,,,
,,616ae3f893864f417b704e95,2024-02-21_21h29.02.505,kallum_motion_pilot,2023.2.2,Win32,59.88023952,616ae3f893864f417b704e95,65d6bb0e977760de756971f7,65d6bf11265c1952ee891fd3,0.1203,0.1206,1,53,215,18,1,twoone,,,,,,,,,,,,,,,,,,,,,,,,,,,,,,,,,,,,,,,,,,,,,,,,,,,,,,,,,,,,,,,,,,,,,,,,,,,,,,,,,,,,,,,,,,,,,,,,,,,,,,,,,,,,,,,,,,,,,,,,,,,,,,,,,,,,,,,,,
,,616ae3f893864f417b704e95,2024-02-21_21h29.02.505,kallum_motion_pilot,2023.2.2,Win32,59.88023952,616ae3f893864f417b704e95,65d6bb0e977760de756971f7,65d6bf11265c1952ee891fd3,0.1211,0.1212,1,54,216,24,1,onetwo,,,,,,,,,,,,,,,,,,,,,,,,,,,,,,,,,,,,,,,,,,,,,,,,,,,,,,,,,,,,,,,,,,,,,,,,,,,,,,,,,,,,,,,,,,,,,,,,,,,,,,,,,,,,,,,,,,,,,,,,,,,,,,,,,,,,,,,,,
,,616ae3f893864f417b704e95,2024-02-21_21h29.02.505,kallum_motion_pilot,2023.2.2,Win32,59.88023952,616ae3f893864f417b704e95,65d6bb0e977760de756971f7,65d6bf11265c1952ee891fd3,0.1214,0.1216,1,55,217,53,1,threefour,,,,,,,,,,,,,,,,,,,,,,,,,,,,,,,,,,,,,,,,,,,,,,,,,,,,,,,,,,,,,,,,,,,,,,,,,,,,,,,,,,,,,,,,,,,,,,,,,,,,,,,,,,,,,,,,,,,,,,,,,,,,,,,,,,,,,,,,,
,,616ae3f893864f417b704e95,2024-02-21_21h29.02.505,kallum_motion_pilot,2023.2.2,Win32,59.88023952,616ae3f893864f417b704e95,65d6bb0e977760de756971f7,65d6bf11265c1952ee891fd3,0.1217,0.1218,1,56,218,47,1,fourthree,,,,,,,,,,,,,,,,,,,,,,,,,,,,,,,,,,,,,,,,,,,,,,,,,,,,,,,,,,,,,,,,,,,,,,,,,,,,,,,,,,,,,,,,,,,,,,,,,,,,,,,,,,,,,,,,,,,,,,,,,,,,,,,,,,,,,,,,,
,,616ae3f893864f417b704e95,2024-02-21_21h29.02.505,kallum_motion_pilot,2023.2.2,Win32,59.88023952,616ae3f893864f417b704e95,65d6bb0e977760de756971f7,65d6bf11265c1952ee891fd3,0.122,0.1222,1,57,219,125,1,seveneight,,,,,,,,,,,,,,,,,,,,,,,,,,,,,,,,,,,,,,,,,,,,,,,,,,,,,,,,,,,,,,,,,,,,,,,,,,,,,,,,,,,,,,,,,,,,,,,,,,,,,,,,,,,,,,,,,,,,,,,,,,,,,,,,,,,,,,,,,
,,616ae3f893864f417b704e95,2024-02-21_21h29.02.505,kallum_motion_pilot,2023.2.2,Win32,59.88023952,616ae3f893864f417b704e95,65d6bb0e977760de756971f7,65d6bf11265c1952ee891fd3,0.1225,0.1226,1,58,220,105,1,fiveseven,,,,,,,,,,,,,,,,,,,,,,,,,,,,,,,,,,,,,,,,,,,,,,,,,,,,,,,,,,,,,,,,,,,,,,,,,,,,,,,,,,,,,,,,,,,,,,,,,,,,,,,,,,,,,,,,,,,,,,,,,,,,,,,,,,,,,,,,,
,,616ae3f893864f417b704e95,2024-02-21_21h29.02.505,kallum_motion_pilot,2023.2.2,Win32,59.88023952,616ae3f893864f417b704e95,65d6bb0e977760de756971f7,65d6bf11265c1952ee891fd3,0.1232,0.1234,1,59,221,160,1,fivesix,,,,,,,,,,,,,,,,,,,,,,,,,,,,,,,,,,,,,,,,,,,,,,,,,,,,,,,,,,,,,,,,,,,,,,,,,,,,,,,,,,,,,,,,,,,,,,,,,,,,,,,,,,,,,,,,,,,,,,,,,,,,,,,,,,,,,,,,,
,,616ae3f893864f417b704e95,2024-02-21_21h29.02.505,kallum_motion_pilot,2023.2.2,Win32,59.88023952,616ae3f893864f417b704e95,65d6bb0e977760de756971f7,65d6bf11265c1952ee891fd3,0.1238,0.124,1,60,222,117,1,seveneight,,,,,,,,,,,,,,,,,,,,,,,,,,,,,,,,,,,,,,,,,,,,,,,,,,,,,,,,,,,,,,,,,,,,,,,,,,,,,,,,,,,,,,,,,,,,,,,,,,,,,,,,,,,,,,,,,,,,,,,,,,,,,,,,,,,,,,,,,
,,616ae3f893864f417b704e95,2024-02-21_21h29.02.505,kallum_motion_pilot,2023.2.2,Win32,59.88023952,616ae3f893864f417b704e95,65d6bb0e977760de756971f7,65d6bf11265c1952ee891fd3,0.1243,0.1245,1,61,223,83,1,sixeight,,,,,,,,,,,,,,,,,,,,,,,,,,,,,,,,,,,,,,,,,,,,,,,,,,,,,,,,,,,,,,,,,,,,,,,,,,,,,,,,,,,,,,,,,,,,,,,,,,,,,,,,,,,,,,,,,,,,,,,,,,,,,,,,,,,,,,,,,
,,616ae3f893864f417b704e95,2024-02-21_21h29.02.505,kallum_motion_pilot,2023.2.2,Win32,59.88023952,616ae3f893864f417b704e95,65d6bb0e977760de756971f7,65d6bf11265c1952ee891fd3,0.1247,0.1249,1,62,224,27,1,twofour,,,,,,,,,,,,,,,,,,,,,,,,,,,,,,,,,,,,,,,,,,,,,,,,,,,,,,,,,,,,,,,,,,,,,,,,,,,,,,,,,,,,,,,,,,,,,,,,,,,,,,,,,,,,,,,,,,,,,,,,,,,,,,,,,,,,,,,,,
,,616ae3f893864f417b704e95,2024-02-21_21h29.02.505,kallum_motion_pilot,2023.2.2,Win32,59.88023952,616ae3f893864f417b704e95,65d6bb0e977760de756971f7,65d6bf11265c1952ee891fd3,0.125,0.1257,1,63,225,28,1,threeone,,,,,,,,,,,,,,,,,,,,,,,,,,,,,,,,,,,,,,,,,,,,,,,,,,,,,,,,,,,,,,,,,,,,,,,,,,,,,,,,,,,,,,,,,,,,,,,,,,,,,,,,,,,,,,,,,,,,,,,,,,,,,,,,,,,,,,,,,
,,616ae3f893864f417b704e95,2024-02-21_21h29.02.505,kallum_motion_pilot,2023.2.2,Win32,59.88023952,616ae3f893864f417b704e95,65d6bb0e977760de756971f7,65d6bf11265c1952ee891fd3,0.1258,0.1259,1,64,226,102,1,eightsix,,,,,,,,,,,,,,,,,,,,,,,,,,,,,,,,,,,,,,,,,,,,,,,,,,,,,,,,,,,,,,,,,,,,,,,,,,,,,,,,,,,,,,,,,,,,,,,,,,,,,,,,,,,,,,,,,,,,,,,,,,,,,,,,,,,,,,,,,
,,616ae3f893864f417b704e95,2024-02-21_21h29.02.505,kallum_motion_pilot,2023.2.2,Win32,59.88023952,616ae3f893864f417b704e95,65d6bb0e977760de756971f7,65d6bf11265c1952ee891fd3,0.1261,0.1263,1,65,227,4,1,threeone,,,,,,,,,,,,,,,,,,,,,,,,,,,,,,,,,,,,,,,,,,,,,,,,,,,,,,,,,,,,,,,,,,,,,,,,,,,,,,,,,,,,,,,,,,,,,,,,,,,,,,,,,,,,,,,,,,,,,,,,,,,,,,,,,,,,,,,,,
,,616ae3f893864f417b704e95,2024-02-21_21h29.02.505,kallum_motion_pilot,2023.2.2,Win32,59.88023952,616ae3f893864f417b704e95,65d6bb0e977760de756971f7,65d6bf11265c1952ee891fd3,0.1265,0.1268,1,66,228,142,1,eightsix,,,,,,,,,,,,,,,,,,,,,,,,,,,,,,,,,,,,,,,,,,,,,,,,,,,,,,,,,,,,,,,,,,,,,,,,,,,,,,,,,,,,,,,,,,,,,,,,,,,,,,,,,,,,,,,,,,,,,,,,,,,,,,,,,,,,,,,,,
,,616ae3f893864f417b704e95,2024-02-21_21h29.02.505,kallum_motion_pilot,2023.2.2,Win32,59.88023952,616ae3f893864f417b704e95,65d6bb0e977760de756971f7,65d6bf11265c1952ee891fd3,0.1269,0.1271,1,67,229,16,1,onetwo,,,,,,,,,,,,,,,,,,,,,,,,,,,,,,,,,,,,,,,,,,,,,,,,,,,,,,,,,,,,,,,,,,,,,,,,,,,,,,,,,,,,,,,,,,,,,,,,,,,,,,,,,,,,,,,,,,,,,,,,,,,,,,,,,,,,,,,,,
,,616ae3f893864f417b704e95,2024-02-21_21h29.02.505,kallum_motion_pilot,2023.2.2,Win32,59.88023952,616ae3f893864f417b704e95,65d6bb0e977760de756971f7,65d6bf11265c1952ee891fd3,0.1273,0.1275,1,68,230,42,1,twoone,,,,,,,,,,,,,,,,,,,,,,,,,,,,,,,,,,,,,,,,,,,,,,,,,,,,,,,,,,,,,,,,,,,,,,,,,,,,,,,,,,,,,,,,,,,,,,,,,,,,,,,,,,,,,,,,,,,,,,,,,,,,,,,,,,,,,,,,,
,,616ae3f893864f417b704e95,2024-02-21_21h29.02.505,kallum_motion_pilot,2023.2.2,Win32,59.88023952,616ae3f893864f417b704e95,65d6bb0e977760de756971f7,65d6bf11265c1952ee891fd3,0.1277,0.1279,1,69,231,122,1,sixfive,,,,,,,,,,,,,,,,,,,,,,,,,,,,,,,,,,,,,,,,,,,,,,,,,,,,,,,,,,,,,,,,,,,,,,,,,,,,,,,,,,,,,,,,,,,,,,,,,,,,,,,,,,,,,,,,,,,,,,,,,,,,,,,,,,,,,,,,,
,,616ae3f893864f417b704e95,2024-02-21_21h29.02.505,kallum_motion_pilot,2023.2.2,Win32,59.88023952,616ae3f893864f417b704e95,65d6bb0e977760de756971f7,65d6bf11265c1952ee891fd3,0.128,0.1282,1,70,232,13,1,threefour,,,,,,,,,,,,,,,,,,,,,,,,,,,,,,,,,,,,,,,,,,,,,,,,,,,,,,,,,,,,,,,,,,,,,,,,,,,,,,,,,,,,,,,,,,,,,,,,,,,,,,,,,,,,,,,,,,,,,,,,,,,,,,,,,,,,,,,,,
,,616ae3f893864f417b704e95,2024-02-21_21h29.02.505,kallum_motion_pilot,2023.2.2,Win32,59.88023952,616ae3f893864f417b704e95,65d6bb0e977760de756971f7,65d6bf11265c1952ee891fd3,0.1284,0.1286,1,71,233,124,1,sevenfive,,,,,,,,,,,,,,,,,,,,,,,,,,,,,,,,,,,,,,,,,,,,,,,,,,,,,,,,,,,,,,,,,,,,,,,,,,,,,,,,,,,,,,,,,,,,,,,,,,,,,,,,,,,,,,,,,,,,,,,,,,,,,,,,,,,,,,,,,
,,616ae3f893864f417b704e95,2024-02-21_21h29.02.505,kallum_motion_pilot,2023.2.2,Win32,59.88023952,616ae3f893864f417b704e95,65d6bb0e977760de756971f7,65d6bf11265c1952ee891fd3,0.1287,0.1289,1,72,234,35,1,twofour,,,,,,,,,,,,,,,,,,,,,,,,,,,,,,,,,,,,,,,,,,,,,,,,,,,,,,,,,,,,,,,,,,,,,,,,,,,,,,,,,,,,,,,,,,,,,,,,,,,,,,,,,,,,,,,,,,,,,,,,,,,,,,,,,,,,,,,,,
,,616ae3f893864f417b704e95,2024-02-21_21h29.02.505,kallum_motion_pilot,2023.2.2,Win32,59.88023952,616ae3f893864f417b704e95,65d6bb0e977760de756971f7,65d6bf11265c1952ee891fd3,0.1291,0.1292,1,73,235,158,1,eightsix,,,,,,,,,,,,,,,,,,,,,,,,,,,,,,,,,,,,,,,,,,,,,,,,,,,,,,,,,,,,,,,,,,,,,,,,,,,,,,,,,,,,,,,,,,,,,,,,,,,,,,,,,,,,,,,,,,,,,,,,,,,,,,,,,,,,,,,,,
,,616ae3f893864f417b704e95,2024-02-21_21h29.02.505,kallum_motion_pilot,2023.2.2,Win32,59.88023952,616ae3f893864f417b704e95,65d6bb0e977760de756971f7,65d6bf11265c1952ee891fd3,0.1295,0.1296,1,74,236,14,1,fourtwo,,,,,,,,,,,,,,,,,,,,,,,,,,,,,,,,,,,,,,,,,,,,,,,,,,,,,,,,,,,,,,,,,,,,,,,,,,,,,,,,,,,,,,,,,,,,,,,,,,,,,,,,,,,,,,,,,,,,,,,,,,,,,,,,,,,,,,,,,
,,616ae3f893864f417b704e95,2024-02-21_21h29.02.505,kallum_motion_pilot,2023.2.2,Win32,59.88023952,616ae3f893864f417b704e95,65d6bb0e977760de756971f7,65d6bf11265c1952ee891fd3,0.1298,0.1299,1,75,237,46,1,fourtwo,,,,,,,,,,,,,,,,,,,,,,,,,,,,,,,,,,,,,,,,,,,,,,,,,,,,,,,,,,,,,,,,,,,,,,,,,,,,,,,,,,,,,,,,,,,,,,,,,,,,,,,,,,,,,,,,,,,,,,,,,,,,,,,,,,,,,,,,,
,,616ae3f893864f417b704e95,2024-02-21_21h29.02.505,kallum_motion_pilot,2023.2.2,Win32,59.88023952,616ae3f893864f417b704e95,65d6bb0e977760de756971f7,65d6bf11265c1952ee891fd3,0.1302,0.1304,1,76,238,92,1,sevenfive,,,,,,,,,,,,,,,,,,,,,,,,,,,,,,,,,,,,,,,,,,,,,,,,,,,,,,,,,,,,,,,,,,,,,,,,,,,,,,,,,,,,,,,,,,,,,,,,,,,,,,,,,,,,,,,,,,,,,,,,,,,,,,,,,,,,,,,,,
,,616ae3f893864f417b704e95,2024-02-21_21h29.02.505,kallum_motion_pilot,2023.2.2,Win32,59.88023952,616ae3f893864f417b704e95,65d6bb0e977760de756971f7,65d6bf11265c1952ee891fd3,0.1308,0.1311,1,77,239,148,1,sevenfive,,,,,,,,,,,,,,,,,,,,,,,,,,,,,,,,,,,,,,,,,,,,,,,,,,,,,,,,,,,,,,,,,,,,,,,,,,,,,,,,,,,,,,,,,,,,,,,,,,,,,,,,,,,,,,,,,,,,,,,,,,,,,,,,,,,,,,,,,
,,616ae3f893864f417b704e95,2024-02-21_21h29.02.505,kallum_motion_pilot,2023.2.2,Win32,59.88023952,616ae3f893864f417b704e95,65d6bb0e977760de756971f7,65d6bf11265c1952ee891fd3,0.1313,0.1314,1,78,240,22,1,fourtwo,,,,,,,,,,,,,,,,,,,,,,,,,,,,,,,,,,,,,,,,,,,,,,,,,,,,,,,,,,,,,,,,,,,,,,,,,,,,,,,,,,,,,,,,,,,,,,,,,,,,,,,,,,,,,,,,,,,,,,,,,,,,,,,,,,,,,,,,,
,,616ae3f893864f417b704e95,2024-02-21_21h29.02.505,kallum_motion_pilot,2023.2.2,Win32,59.88023952,616ae3f893864f417b704e95,65d6bb0e977760de756971f7,65d6bf11265c1952ee891fd3,0.1316,0.1317,1,79,241,138,1,sixfive,,,,,,,,,,,,,,,,,,,,,,,,,,,,,,,,,,,,,,,,,,,,,,,,,,,,,,,,,,,,,,,,,,,,,,,,,,,,,,,,,,,,,,,,,,,,,,,,,,,,,,,,,,,,,,,,,,,,,,,,,,,,,,,,,,,,,,,,,
,,616ae3f893864f417b704e95,2024-02-21_21h29.02.505,kallum_motion_pilot,2023.2.2,Win32,59.88023952,616ae3f893864f417b704e95,65d6bb0e977760de756971f7,65d6bf11265c1952ee891fd3,0.1319,0.1322,1,80,242,129,1,fiveseven,,,,,,,,,,,,,,,,,,,,,,,,,,,,,,,,,,,,,,,,,,,,,,,,,,,,,,,,,,,,,,,,,,,,,,,,,,,,,,,,,,,,,,,,,,,,,,,,,,,,,,,,,,,,,,,,,,,,,,,,,,,,,,,,,,,,,,,,,
,,616ae3f893864f417b704e95,2024-02-21_21h29.02.505,kallum_motion_pilot,2023.2.2,Win32,59.88023952,616ae3f893864f417b704e95,65d6bb0e977760de756971f7,65d6bf11265c1952ee891fd3,0.1323,0.1326,1,81,243,39,1,fourthree,,,,,,,,,,,,,,,,,,,,,,,,,,,,,,,,,,,,,,,,,,,,,,,,,,,,,,,,,,,,,,,,,,,,,,,,,,,,,,,,,,,,,,,,,,,,,,,,,,,,,,,,,,,,,,,,,,,,,,,,,,,,,,,,,,,,,,,,,
,,616ae3f893864f417b704e95,2024-02-21_21h29.02.505,kallum_motion_pilot,2023.2.2,Win32,59.88023952,616ae3f893864f417b704e95,65d6bb0e977760de756971f7,65d6bf11265c1952ee891fd3,0.1328,0.1329,1,82,244,118,1,eightsix,,,,,,,,,,,,,,,,,,,,,,,,,,,,,,,,,,,,,,,,,,,,,,,,,,,,,,,,,,,,,,,,,,,,,,,,,,,,,,,,,,,,,,,,,,,,,,,,,,,,,,,,,,,,,,,,,,,,,,,,,,,,,,,,,,,,,,,,,
,,616ae3f893864f417b704e95,2024-02-21_21h29.02.505,kallum_motion_pilot,2023.2.2,Win32,59.88023952,616ae3f893864f417b704e95,65d6bb0e977760de756971f7,65d6bf11265c1952ee891fd3,0.1332,0.1332,1,83,245,137,1,fiveseven,,,,,,,,,,,,,,,,,,,,,,,,,,,,,,,,,,,,,,,,,,,,,,,,,,,,,,,,,,,,,,,,,,,,,,,,,,,,,,,,,,,,,,,,,,,,,,,,,,,,,,,,,,,,,,,,,,,,,,,,,,,,,,,,,,,,,,,,,
,,616ae3f893864f417b704e95,2024-02-21_21h29.02.505,kallum_motion_pilot,2023.2.2,Win32,59.88023952,616ae3f893864f417b704e95,65d6bb0e977760de756971f7,65d6bf11265c1952ee891fd3,0.1334,0.1335,1,84,246,54,1,fourtwo,,,,,,,,,,,,,,,,,,,,,,,,,,,,,,,,,,,,,,,,,,,,,,,,,,,,,,,,,,,,,,,,,,,,,,,,,,,,,,,,,,,,,,,,,,,,,,,,,,,,,,,,,,,,,,,,,,,,,,,,,,,,,,,,,,,,,,,,,
,,616ae3f893864f417b704e95,2024-02-21_21h29.02.505,kallum_motion_pilot,2023.2.2,Win32,59.88023952,616ae3f893864f417b704e95,65d6bb0e977760de756971f7,65d6bf11265c1952ee891fd3,0.1338,0.134,1,85,247,80,1,fivesix,,,,,,,,,,,,,,,,,,,,,,,,,,,,,,,,,,,,,,,,,,,,,,,,,,,,,,,,,,,,,,,,,,,,,,,,,,,,,,,,,,,,,,,,,,,,,,,,,,,,,,,,,,,,,,,,,,,,,,,,,,,,,,,,,,,,,,,,,
,,616ae3f893864f417b704e95,2024-02-21_21h29.02.505,kallum_motion_pilot,2023.2.2,Win32,59.88023952,616ae3f893864f417b704e95,65d6bb0e977760de756971f7,65d6bf11265c1952ee891fd3,0.1342,0.1343,1,86,248,58,1,twoone,,,,,,,,,,,,,,,,,,,,,,,,,,,,,,,,,,,,,,,,,,,,,,,,,,,,,,,,,,,,,,,,,,,,,,,,,,,,,,,,,,,,,,,,,,,,,,,,,,,,,,,,,,,,,,,,,,,,,,,,,,,,,,,,,,,,,,,,,
,,616ae3f893864f417b704e95,2024-02-21_21h29.02.505,kallum_motion_pilot,2023.2.2,Win32,59.88023952,616ae3f893864f417b704e95,65d6bb0e977760de756971f7,65d6bf11265c1952ee891fd3,0.1346,0.1347,1,87,249,32,1,onetwo,,,,,,,,,,,,,,,,,,,,,,,,,,,,,,,,,,,,,,,,,,,,,,,,,,,,,,,,,,,,,,,,,,,,,,,,,,,,,,,,,,,,,,,,,,,,,,,,,,,,,,,,,,,,,,,,,,,,,,,,,,,,,,,,,,,,,,,,,
,,616ae3f893864f417b704e95,2024-02-21_21h29.02.505,kallum_motion_pilot,2023.2.2,Win32,59.88023952,616ae3f893864f417b704e95,65d6bb0e977760de756971f7,65d6bf11265c1952ee891fd3,0.1349,0.1351,1,88,250,134,1,eightsix,,,,,,,,,,,,,,,,,,,,,,,,,,,,,,,,,,,,,,,,,,,,,,,,,,,,,,,,,,,,,,,,,,,,,,,,,,,,,,,,,,,,,,,,,,,,,,,,,,,,,,,,,,,,,,,,,,,,,,,,,,,,,,,,,,,,,,,,,
,,616ae3f893864f417b704e95,2024-02-21_21h29.02.505,kallum_motion_pilot,2023.2.2,Win32,59.88023952,616ae3f893864f417b704e95,65d6bb0e977760de756971f7,65d6bf11265c1952ee891fd3,0.1353,0.1354,1,89,251,29,1,threefour,,,,,,,,,,,,,,,,,,,,,,,,,,,,,,,,,,,,,,,,,,,,,,,,,,,,,,,,,,,,,,,,,,,,,,,,,,,,,,,,,,,,,,,,,,,,,,,,,,,,,,,,,,,,,,,,,,,,,,,,,,,,,,,,,,,,,,,,,
,,616ae3f893864f417b704e95,2024-02-21_21h29.02.505,kallum_motion_pilot,2023.2.2,Win32,59.88023952,616ae3f893864f417b704e95,65d6bb0e977760de756971f7,65d6bf11265c1952ee891fd3,0.1356,0.1359,1,90,252,43,1,twofour,,,,,,,,,,,,,,,,,,,,,,,,,,,,,,,,,,,,,,,,,,,,,,,,,,,,,,,,,,,,,,,,,,,,,,,,,,,,,,,,,,,,,,,,,,,,,,,,,,,,,,,,,,,,,,,,,,,,,,,,,,,,,,,,,,,,,,,,,
,,616ae3f893864f417b704e95,2024-02-21_21h29.02.505,kallum_motion_pilot,2023.2.2,Win32,59.88023952,616ae3f893864f417b704e95,65d6bb0e977760de756971f7,65d6bf11265c1952ee891fd3,0.136,0.1362,1,91,253,151,1,eightseven,,,,,,,,,,,,,,,,,,,,,,,,,,,,,,,,,,,,,,,,,,,,,,,,,,,,,,,,,,,,,,,,,,,,,,,,,,,,,,,,,,,,,,,,,,,,,,,,,,,,,,,,,,,,,,,,,,,,,,,,,,,,,,,,,,,,,,,,,
,,616ae3f893864f417b704e95,2024-02-21_21h29.02.505,kallum_motion_pilot,2023.2.2,Win32,59.88023952,616ae3f893864f417b704e95,65d6bb0e977760de756971f7,65d6bf11265c1952ee891fd3,0.1364,0.1366,1,92,254,94,1,eightsix,,,,,,,,,,,,,,,,,,,,,,,,,,,,,,,,,,,,,,,,,,,,,,,,,,,,,,,,,,,,,,,,,,,,,,,,,,,,,,,,,,,,,,,,,,,,,,,,,,,,,,,,,,,,,,,,,,,,,,,,,,,,,,,,,,,,,,,,,
,,616ae3f893864f417b704e95,2024-02-21_21h29.02.505,kallum_motion_pilot,2023.2.2,Win32,59.88023952,616ae3f893864f417b704e95,65d6bb0e977760de756971f7,65d6bf11265c1952ee891fd3,0.1369,0.1371,1,93,255,61,1,threefour,,,,,,,,,,,,,,,,,,,,,,,,,,,,,,,,,,,,,,,,,,,,,,,,,,,,,,,,,,,,,,,,,,,,,,,,,,,,,,,,,,,,,,,,,,,,,,,,,,,,,,,,,,,,,,,,,,,,,,,,,,,,,,,,,,,,,,,,,
,,616ae3f893864f417b704e95,2024-02-21_21h29.02.505,kallum_motion_pilot,2023.2.2,Win32,59.88023952,616ae3f893864f417b704e95,65d6bb0e977760de756971f7,65d6bf11265c1952ee891fd3,0.1375,0.1379,1,94,256,98,1,sixfive,,,,,,,,,,,,,,,,,,,,,,,,,,,,,,,,,,,,,,,,,,,,,,,,,,,,,,,,,,,,,,,,,,,,,,,,,,,,,,,,,,,,,,,,,,,,,,,,,,,,,,,,,,,,,,,,,,,,,,,,,,,,,,,,,,,,,,,,,
,,616ae3f893864f417b704e95,2024-02-21_21h29.02.505,kallum_motion_pilot,2023.2.2,Win32,59.88023952,616ae3f893864f417b704e95,65d6bb0e977760de756971f7,65d6bf11265c1952ee891fd3,0.1383,0.1386,1,95,257,157,1,seveneight,,,,,,,,,,,,,,,,,,,,,,,,,,,,,,,,,,,,,,,,,,,,,,,,,,,,,,,,,,,,,,,,,,,,,,,,,,,,,,,,,,,,,,,,,,,,,,,,,,,,,,,,,,,,,,,,,,,,,,,,,,,,,,,,,,,,,,,,,
,,616ae3f893864f417b704e95,2024-02-21_21h29.02.505,kallum_motion_pilot,2023.2.2,Win32,59.88023952,616ae3f893864f417b704e95,65d6bb0e977760de756971f7,65d6bf11265c1952ee891fd3,0.1388,0.1389,1,96,258,75,1,twofour,,,,,,,,,,,,,,,,,,,,,,,,,,,,,,,,,,,,,,,,,,,,,,,,,,,,,,,,,,,,,,,,,,,,,,,,,,,,,,,,,,,,,,,,,,,,,,,,,,,,,,,,,,,,,,,,,,,,,,,,,,,,,,,,,,,,,,,,,
,,616ae3f893864f417b704e95,2024-02-21_21h29.02.505,kallum_motion_pilot,2023.2.2,Win32,59.88023952,616ae3f893864f417b704e95,65d6bb0e977760de756971f7,65d6bf11265c1952ee891fd3,0.1392,0.1393,1,97,259,120,1,fivesix,,,,,,,,,,,,,,,,,,,,,,,,,,,,,,,,,,,,,,,,,,,,,,,,,,,,,,,,,,,,,,,,,,,,,,,,,,,,,,,,,,,,,,,,,,,,,,,,,,,,,,,,,,,,,,,,,,,,,,,,,,,,,,,,,,,,,,,,,
,,616ae3f893864f417b704e95,2024-02-21_21h29.02.505,kallum_motion_pilot,2023.2.2,Win32,59.88023952,616ae3f893864f417b704e95,65d6bb0e977760de756971f7,65d6bf11265c1952ee891fd3,0.1394,0.1396,1,98,260,23,1,fourthree,,,,,,,,,,,,,,,,,,,,,,,,,,,,,,,,,,,,,,,,,,,,,,,,,,,,,,,,,,,,,,,,,,,,,,,,,,,,,,,,,,,,,,,,,,,,,,,,,,,,,,,,,,,,,,,,,,,,,,,,,,,,,,,,,,,,,,,,,
,,616ae3f893864f417b704e95,2024-02-21_21h29.02.505,kallum_motion_pilot,2023.2.2,Win32,59.88023952,616ae3f893864f417b704e95,65d6bb0e977760de756971f7,65d6bf11265c1952ee891fd3,0.1398,0.1398,1,99,261,44,1,threeone,,,,,,,,,,,,,,,,,,,,,,,,,,,,,,,,,,,,,,,,,,,,,,,,,,,,,,,,,,,,,,,,,,,,,,,,,,,,,,,,,,,,,,,,,,,,,,,,,,,,,,,,,,,,,,,,,,,,,,,,,,,,,,,,,,,,,,,,,
,,616ae3f893864f417b704e95,2024-02-21_21h29.02.505,kallum_motion_pilot,2023.2.2,Win32,59.88023952,616ae3f893864f417b704e95,65d6bb0e977760de756971f7,65d6bf11265c1952ee891fd3,0.1401,0.1402,1,100,262,103,1,eightseven,,,,,,,,,,,,,,,,,,,,,,,,,,,,,,,,,,,,,,,,,,,,,,,,,,,,,,,,,,,,,,,,,,,,,,,,,,,,,,,,,,,,,,,,,,,,,,,,,,,,,,,,,,,,,,,,,,,,,,,,,,,,,,,,,,,,,,,,,
,,616ae3f893864f417b704e95,2024-02-21_21h29.02.505,kallum_motion_pilot,2023.2.2,Win32,59.88023952,616ae3f893864f417b704e95,65d6bb0e977760de756971f7,65d6bf11265c1952ee891fd3,0.1404,0.1405,1,101,263,69,1,threefour,,,,,,,,,,,,,,,,,,,,,,,,,,,,,,,,,,,,,,,,,,,,,,,,,,,,,,,,,,,,,,,,,,,,,,,,,,,,,,,,,,,,,,,,,,,,,,,,,,,,,,,,,,,,,,,,,,,,,,,,,,,,,,,,,,,,,,,,,
,,616ae3f893864f417b704e95,2024-02-21_21h29.02.505,kallum_motion_pilot,2023.2.2,Win32,59.88023952,616ae3f893864f417b704e95,65d6bb0e977760de756971f7,65d6bf11265c1952ee891fd3,0.1408,0.141,1,102,264,145,1,fiveseven,,,,,,,,,,,,,,,,,,,,,,,,,,,,,,,,,,,,,,,,,,,,,,,,,,,,,,,,,,,,,,,,,,,,,,,,,,,,,,,,,,,,,,,,,,,,,,,,,,,,,,,,,,,,,,,,,,,,,,,,,,,,,,,,,,,,,,,,,
,,616ae3f893864f417b704e95,2024-02-21_21h29.02.505,kallum_motion_pilot,2023.2.2,Win32,59.88023952,616ae3f893864f417b704e95,65d6bb0e977760de756971f7,65d6bf11265c1952ee891fd3,0.1413,0.1415,1,103,265,146,1,sixfive,,,,,,,,,,,,,,,,,,,,,,,,,,,,,,,,,,,,,,,,,,,,,,,,,,,,,,,,,,,,,,,,,,,,,,,,,,,,,,,,,,,,,,,,,,,,,,,,,,,,,,,,,,,,,,,,,,,,,,,,,,,,,,,,,,,,,,,,,
,,616ae3f893864f417b704e95,2024-02-21_21h29.02.505,kallum_motion_pilot,2023.2.2,Win32,59.88023952,616ae3f893864f417b704e95,65d6bb0e977760de756971f7,65d6bf11265c1952ee891fd3,0.1417,0.1419,1,104,266,135,1,eightseven,,,,,,,,,,,,,,,,,,,,,,,,,,,,,,,,,,,,,,,,,,,,,,,,,,,,,,,,,,,,,,,,,,,,,,,,,,,,,,,,,,,,,,,,,,,,,,,,,,,,,,,,,,,,,,,,,,,,,,,,,,,,,,,,,,,,,,,,,
,,616ae3f893864f417b704e95,2024-02-21_21h29.02.505,kallum_motion_pilot,2023.2.2,Win32,59.88023952,616ae3f893864f417b704e95,65d6bb0e977760de756971f7,65d6bf11265c1952ee891fd3,0.142,0.1423,1,105,267,116,1,sevenfive,,,,,,,,,,,,,,,,,,,,,,,,,,,,,,,,,,,,,,,,,,,,,,,,,,,,,,,,,,,,,,,,,,,,,,,,,,,,,,,,,,,,,,,,,,,,,,,,,,,,,,,,,,,,,,,,,,,,,,,,,,,,,,,,,,,,,,,,,
,,616ae3f893864f417b704e95,2024-02-21_21h29.02.505,kallum_motion_pilot,2023.2.2,Win32,59.88023952,616ae3f893864f417b704e95,65d6bb0e977760de756971f7,65d6bf11265c1952ee891fd3,0.1424,0.1425,1,106,268,31,1,fourthree,,,,,,,,,,,,,,,,,,,,,,,,,,,,,,,,,,,,,,,,,,,,,,,,,,,,,,,,,,,,,,,,,,,,,,,,,,,,,,,,,,,,,,,,,,,,,,,,,,,,,,,,,,,,,,,,,,,,,,,,,,,,,,,,,,,,,,,,,
,,616ae3f893864f417b704e95,2024-02-21_21h29.02.505,kallum_motion_pilot,2023.2.2,Win32,59.88023952,616ae3f893864f417b704e95,65d6bb0e977760de756971f7,65d6bf11265c1952ee891fd3,0.1426,0.1428,1,107,269,21,1,threefour,,,,,,,,,,,,,,,,,,,,,,,,,,,,,,,,,,,,,,,,,,,,,,,,,,,,,,,,,,,,,,,,,,,,,,,,,,,,,,,,,,,,,,,,,,,,,,,,,,,,,,,,,,,,,,,,,,,,,,,,,,,,,,,,,,,,,,,,,
,,616ae3f893864f417b704e95,2024-02-21_21h29.02.505,kallum_motion_pilot,2023.2.2,Win32,59.88023952,616ae3f893864f417b704e95,65d6bb0e977760de756971f7,65d6bf11265c1952ee891fd3,0.143,0.1432,1,108,270,70,1,fourtwo,,,,,,,,,,,,,,,,,,,,,,,,,,,,,,,,,,,,,,,,,,,,,,,,,,,,,,,,,,,,,,,,,,,,,,,,,,,,,,,,,,,,,,,,,,,,,,,,,,,,,,,,,,,,,,,,,,,,,,,,,,,,,,,,,,,,,,,,,
,,616ae3f893864f417b704e95,2024-02-21_21h29.02.505,kallum_motion_pilot,2023.2.2,Win32,59.88023952,616ae3f893864f417b704e95,65d6bb0e977760de756971f7,65d6bf11265c1952ee891fd3,0.1434,0.1436,1,109,271,77,1,threefour,,,,,,,,,,,,,,,,,,,,,,,,,,,,,,,,,,,,,,,,,,,,,,,,,,,,,,,,,,,,,,,,,,,,,,,,,,,,,,,,,,,,,,,,,,,,,,,,,,,,,,,,,,,,,,,,,,,,,,,,,,,,,,,,,,,,,,,,,
,,616ae3f893864f417b704e95,2024-02-21_21h29.02.505,kallum_motion_pilot,2023.2.2,Win32,59.88023952,616ae3f893864f417b704e95,65d6bb0e977760de756971f7,65d6bf11265c1952ee891fd3,0.1439,0.1441,1,110,272,71,1,fourthree,,,,,,,,,,,,,,,,,,,,,,,,,,,,,,,,,,,,,,,,,,,,,,,,,,,,,,,,,,,,,,,,,,,,,,,,,,,,,,,,,,,,,,,,,,,,,,,,,,,,,,,,,,,,,,,,,,,,,,,,,,,,,,,,,,,,,,,,,
,,616ae3f893864f417b704e95,2024-02-21_21h29.02.505,kallum_motion_pilot,2023.2.2,Win32,59.88023952,616ae3f893864f417b704e95,65d6bb0e977760de756971f7,65d6bf11265c1952ee891fd3,0.1443,0.1444,1,111,273,60,1,threeone,,,,,,,,,,,,,,,,,,,,,,,,,,,,,,,,,,,,,,,,,,,,,,,,,,,,,,,,,,,,,,,,,,,,,,,,,,,,,,,,,,,,,,,,,,,,,,,,,,,,,,,,,,,,,,,,,,,,,,,,,,,,,,,,,,,,,,,,,
,,616ae3f893864f417b704e95,2024-02-21_21h29.02.505,kallum_motion_pilot,2023.2.2,Win32,59.88023952,616ae3f893864f417b704e95,65d6bb0e977760de756971f7,65d6bf11265c1952ee891fd3,0.1446,0.1448,1,112,274,30,1,fourtwo,,,,,,,,,,,,,,,,,,,,,,,,,,,,,,,,,,,,,,,,,,,,,,,,,,,,,,,,,,,,,,,,,,,,,,,,,,,,,,,,,,,,,,,,,,,,,,,,,,,,,,,,,,,,,,,,,,,,,,,,,,,,,,,,,,,,,,,,,
,,616ae3f893864f417b704e95,2024-02-21_21h29.02.505,kallum_motion_pilot,2023.2.2,Win32,59.88023952,616ae3f893864f417b704e95,65d6bb0e977760de756971f7,65d6bf11265c1952ee891fd3,0.145,0.1453,1,113,275,150,1,eightsix,,,,,,,,,,,,,,,,,,,,,,,,,,,,,,,,,,,,,,,,,,,,,,,,,,,,,,,,,,,,,,,,,,,,,,,,,,,,,,,,,,,,,,,,,,,,,,,,,,,,,,,,,,,,,,,,,,,,,,,,,,,,,,,,,,,,,,,,,
,,616ae3f893864f417b704e95,2024-02-21_21h29.02.505,kallum_motion_pilot,2023.2.2,Win32,59.88023952,616ae3f893864f417b704e95,65d6bb0e977760de756971f7,65d6bf11265c1952ee891fd3,0.1458,0.146,1,114,276,107,1,sixeight,,,,,,,,,,,,,,,,,,,,,,,,,,,,,,,,,,,,,,,,,,,,,,,,,,,,,,,,,,,,,,,,,,,,,,,,,,,,,,,,,,,,,,,,,,,,,,,,,,,,,,,,,,,,,,,,,,,,,,,,,,,,,,,,,,,,,,,,,
,,616ae3f893864f417b704e95,2024-02-21_21h29.02.505,kallum_motion_pilot,2023.2.2,Win32,59.88023952,616ae3f893864f417b704e95,65d6bb0e977760de756971f7,65d6bf11265c1952ee891fd3,0.1464,0.1465,1,115,277,50,1,twoone,,,,,,,,,,,,,,,,,,,,,,,,,,,,,,,,,,,,,,,,,,,,,,,,,,,,,,,,,,,,,,,,,,,,,,,,,,,,,,,,,,,,,,,,,,,,,,,,,,,,,,,,,,,,,,,,,,,,,,,,,,,,,,,,,,,,,,,,,
