startup.started,startup.stopped,Prolific ID*,date,expName,psychopyVersion,OS,frameRate,participant,study_id,session,stimpositions.started,stimpositions.stopped,hardcoded_stimulus_positions.thisRepN,hardcoded_stimulus_positions.thisTrialN,hardcoded_stimulus_positions.thisN,hardcoded_stimulus_positions.thisIndex,hardcoded_stimulus_positions.ran,StimulusPos,stimorientation.started,stimorientation.stopped,prac_stimorientation_import_loop.thisRepN,prac_stimorientation_import_loop.thisTrialN,prac_stimorientation_import_loop.thisN,prac_stimorientation_import_loop.thisIndex,prac_stimorientation_import_loop.ran,Stimorientation,welcome_instr.started,welcome_instr.stopped,key_resp.keys,key_resp.rt,key_resp.duration,response_steppedout_1.started,response_steppedout_1.stopped,key_resp_20.keys,key_resp_20.rt,key_resp_20.duration,response_steppedout_2.started,response_steppedout_2.stopped,key_resp_19.keys,key_resp_19.rt,key_resp_19.duration,stim_response_instr.started,stim_response_instr.stopped,key_resp_15.keys,key_resp_15.rt,key_resp_15.duration,direction_instr_2.started,direction_instr_2.stopped,key_resp_9.keys,key_resp_9.rt,key_resp_9.duration,instr_prac.started,instr_prac.stopped,key_resp_10.keys,key_resp_10.rt,key_resp_10.duration,Stim1_display_prac.started,Stim1_display_prac.stopped,Ecc,Circle1_ori,Circle2_ori,response_prac.started,similarity,response_time,response_prac.stopped,mouse_5.x,mouse_5.y,mouse_5.leftButton,mouse_5.midButton,mouse_5.rightButton,mouse_5.clicked_name,responseprac_feedback.started,responseprac_feedback.stopped,summary2_prac.started,summary2_prac.stopped,mouse_6.x,mouse_6.y,mouse_6.leftButton,mouse_6.midButton,mouse_6.rightButton,mouse_6.clicked_name,duringprac.thisRepN,duringprac.thisTrialN,duringprac.thisN,duringprac.thisIndex,duringprac.ran,begin.started,begin.stopped,key_resp_22.keys,key_resp_22.rt,key_resp_22.duration,Stim1_display.started,Stim1_display.stopped,circle1_ori,circle2_ori,circle1_SF,circle2_SF,response.started,response.stopped,mouse.x,mouse.y,mouse.leftButton,mouse.midButton,mouse.rightButton,mouse.clicked_name,trialnumber,double_pass.thisRepN,double_pass.thisTrialN,double_pass.thisN,double_pass.thisIndex,double_pass.ran,double_pass.order,main_trial.thisRepN,main_trial.thisTrialN,main_trial.thisN,main_trial.thisIndex,main_trial.ran,main_trial.order,Trial_Counter,Catch,Frequencies,response_2.started,response_2.stopped,mouse_2.x,mouse_2.y,mouse_2.leftButton,mouse_2.midButton,mouse_2.rightButton,mouse_2.clicked_name,special_trial.started,special_trial.stopped,catch_1.started,catch_1.stopped,mouse_3.x,mouse_3.y,mouse_3.leftButton,mouse_3.midButton,mouse_3.rightButton,catchresponse,catchnumber,response_time_catch,response_sum.started,response_sum.stopped,mouse_11.x,mouse_11.y,mouse_11.leftButton,mouse_11.midButton,mouse_11.rightButton,flip_presentation_sequence_for_double_pass.started,flip_presentation_sequence_for_double_pass.stopped,goodbye.started,goodbye.stopped,key_resp_3.keys,key_resp_3.rt,key_resp_3.duration
0.0007,0.0009,616b06e97addc4a9a638909e,2024-02-18_20h10.27.967,kallum_motion_pilot,2023.2.2,Win32,59.88023952,616b06e97addc4a9a638909e,65d2b6c8f2eece985d8e374c,65d2b837b83178b7b14aecba,,,,,,,,,,,,,,,,,,,,,,,,,,,,,,,,,,,,,,,,,,,,,,,,,,,,,,,,,,,,,,,,,,,,,,,,,,,,,,,,,,,,,,,,,,,,,,,,,,,,,,,,,,,,,,,,,,,,,,,,,,,,,,,,,,,,,,,,,,,,,,,,,
,,616b06e97addc4a9a638909e,2024-02-18_20h10.27.967,kallum_motion_pilot,2023.2.2,Win32,59.88023952,616b06e97addc4a9a638909e,65d2b6c8f2eece985d8e374c,65d2b837b83178b7b14aecba,0.0298,0.03,0,0,0,7,1,fourthree,,,,,,,,,,,,,,,,,,,,,,,,,,,,,,,,,,,,,,,,,,,,,,,,,,,,,,,,,,,,,,,,,,,,,,,,,,,,,,,,,,,,,,,,,,,,,,,,,,,,,,,,,,,,,,,,,,,,,,,,,,,,,,,,,,,,,,,,,
,,616b06e97addc4a9a638909e,2024-02-18_20h10.27.967,kallum_motion_pilot,2023.2.2,Win32,59.88023952,616b06e97addc4a9a638909e,65d2b6c8f2eece985d8e374c,65d2b837b83178b7b14aecba,0.0303,0.0303,0,1,1,50,1,twoone,,,,,,,,,,,,,,,,,,,,,,,,,,,,,,,,,,,,,,,,,,,,,,,,,,,,,,,,,,,,,,,,,,,,,,,,,,,,,,,,,,,,,,,,,,,,,,,,,,,,,,,,,,,,,,,,,,,,,,,,,,,,,,,,,,,,,,,,,
,,616b06e97addc4a9a638909e,2024-02-18_20h10.27.967,kallum_motion_pilot,2023.2.2,Win32,59.88023952,616b06e97addc4a9a638909e,65d2b6c8f2eece985d8e374c,65d2b837b83178b7b14aecba,0.0305,0.0305,0,2,2,156,1,sevenfive,,,,,,,,,,,,,,,,,,,,,,,,,,,,,,,,,,,,,,,,,,,,,,,,,,,,,,,,,,,,,,,,,,,,,,,,,,,,,,,,,,,,,,,,,,,,,,,,,,,,,,,,,,,,,,,,,,,,,,,,,,,,,,,,,,,,,,,,,
,,616b06e97addc4a9a638909e,2024-02-18_20h10.27.967,kallum_motion_pilot,2023.2.2,Win32,59.88023952,616b06e97addc4a9a638909e,65d2b6c8f2eece985d8e374c,65d2b837b83178b7b14aecba,0.0307,0.0307,0,3,3,81,1,fiveseven,,,,,,,,,,,,,,,,,,,,,,,,,,,,,,,,,,,,,,,,,,,,,,,,,,,,,,,,,,,,,,,,,,,,,,,,,,,,,,,,,,,,,,,,,,,,,,,,,,,,,,,,,,,,,,,,,,,,,,,,,,,,,,,,,,,,,,,,,
,,616b06e97addc4a9a638909e,2024-02-18_20h10.27.967,kallum_motion_pilot,2023.2.2,Win32,59.88023952,616b06e97addc4a9a638909e,65d2b6c8f2eece985d8e374c,65d2b837b83178b7b14aecba,0.0308,0.0308,0,4,4,78,1,fourtwo,,,,,,,,,,,,,,,,,,,,,,,,,,,,,,,,,,,,,,,,,,,,,,,,,,,,,,,,,,,,,,,,,,,,,,,,,,,,,,,,,,,,,,,,,,,,,,,,,,,,,,,,,,,,,,,,,,,,,,,,,,,,,,,,,,,,,,,,,
,,616b06e97addc4a9a638909e,2024-02-18_20h10.27.967,kallum_motion_pilot,2023.2.2,Win32,59.88023952,616b06e97addc4a9a638909e,65d2b6c8f2eece985d8e374c,65d2b837b83178b7b14aecba,0.0309,0.031,0,5,5,48,1,onetwo,,,,,,,,,,,,,,,,,,,,,,,,,,,,,,,,,,,,,,,,,,,,,,,,,,,,,,,,,,,,,,,,,,,,,,,,,,,,,,,,,,,,,,,,,,,,,,,,,,,,,,,,,,,,,,,,,,,,,,,,,,,,,,,,,,,,,,,,,
,,616b06e97addc4a9a638909e,2024-02-18_20h10.27.967,kallum_motion_pilot,2023.2.2,Win32,59.88023952,616b06e97addc4a9a638909e,65d2b6c8f2eece985d8e374c,65d2b837b83178b7b14aecba,0.0311,0.0311,0,6,6,85,1,seveneight,,,,,,,,,,,,,,,,,,,,,,,,,,,,,,,,,,,,,,,,,,,,,,,,,,,,,,,,,,,,,,,,,,,,,,,,,,,,,,,,,,,,,,,,,,,,,,,,,,,,,,,,,,,,,,,,,,,,,,,,,,,,,,,,,,,,,,,,,
,,616b06e97addc4a9a638909e,2024-02-18_20h10.27.967,kallum_motion_pilot,2023.2.2,Win32,59.88023952,616b06e97addc4a9a638909e,65d2b6c8f2eece985d8e374c,65d2b837b83178b7b14aecba,0.0312,0.0312,0,7,7,72,1,onetwo,,,,,,,,,,,,,,,,,,,,,,,,,,,,,,,,,,,,,,,,,,,,,,,,,,,,,,,,,,,,,,,,,,,,,,,,,,,,,,,,,,,,,,,,,,,,,,,,,,,,,,,,,,,,,,,,,,,,,,,,,,,,,,,,,,,,,,,,,
,,616b06e97addc4a9a638909e,2024-02-18_20h10.27.967,kallum_motion_pilot,2023.2.2,Win32,59.88023952,616b06e97addc4a9a638909e,65d2b6c8f2eece985d8e374c,65d2b837b83178b7b14aecba,0.0314,0.0314,0,8,8,52,1,threeone,,,,,,,,,,,,,,,,,,,,,,,,,,,,,,,,,,,,,,,,,,,,,,,,,,,,,,,,,,,,,,,,,,,,,,,,,,,,,,,,,,,,,,,,,,,,,,,,,,,,,,,,,,,,,,,,,,,,,,,,,,,,,,,,,,,,,,,,,
,,616b06e97addc4a9a638909e,2024-02-18_20h10.27.967,kallum_motion_pilot,2023.2.2,Win32,59.88023952,616b06e97addc4a9a638909e,65d2b6c8f2eece985d8e374c,65d2b837b83178b7b14aecba,0.0316,0.0316,0,9,9,73,1,onethree,,,,,,,,,,,,,,,,,,,,,,,,,,,,,,,,,,,,,,,,,,,,,,,,,,,,,,,,,,,,,,,,,,,,,,,,,,,,,,,,,,,,,,,,,,,,,,,,,,,,,,,,,,,,,,,,,,,,,,,,,,,,,,,,,,,,,,,,,
,,616b06e97addc4a9a638909e,2024-02-18_20h10.27.967,kallum_motion_pilot,2023.2.2,Win32,59.88023952,616b06e97addc4a9a638909e,65d2b6c8f2eece985d8e374c,65d2b837b83178b7b14aecba,0.0318,0.0318,0,10,10,141,1,seveneight,,,,,,,,,,,,,,,,,,,,,,,,,,,,,,,,,,,,,,,,,,,,,,,,,,,,,,,,,,,,,,,,,,,,,,,,,,,,,,,,,,,,,,,,,,,,,,,,,,,,,,,,,,,,,,,,,,,,,,,,,,,,,,,,,,,,,,,,,
,,616b06e97addc4a9a638909e,2024-02-18_20h10.27.967,kallum_motion_pilot,2023.2.2,Win32,59.88023952,616b06e97addc4a9a638909e,65d2b6c8f2eece985d8e374c,65d2b837b83178b7b14aecba,0.0319,0.0319,0,11,11,100,1,sevenfive,,,,,,,,,,,,,,,,,,,,,,,,,,,,,,,,,,,,,,,,,,,,,,,,,,,,,,,,,,,,,,,,,,,,,,,,,,,,,,,,,,,,,,,,,,,,,,,,,,,,,,,,,,,,,,,,,,,,,,,,,,,,,,,,,,,,,,,,,
,,616b06e97addc4a9a638909e,2024-02-18_20h10.27.967,kallum_motion_pilot,2023.2.2,Win32,59.88023952,616b06e97addc4a9a638909e,65d2b6c8f2eece985d8e374c,65d2b837b83178b7b14aecba,0.032,0.032,0,12,12,27,1,twofour,,,,,,,,,,,,,,,,,,,,,,,,,,,,,,,,,,,,,,,,,,,,,,,,,,,,,,,,,,,,,,,,,,,,,,,,,,,,,,,,,,,,,,,,,,,,,,,,,,,,,,,,,,,,,,,,,,,,,,,,,,,,,,,,,,,,,,,,,
,,616b06e97addc4a9a638909e,2024-02-18_20h10.27.967,kallum_motion_pilot,2023.2.2,Win32,59.88023952,616b06e97addc4a9a638909e,65d2b6c8f2eece985d8e374c,65d2b837b83178b7b14aecba,0.0322,0.0322,0,13,13,10,1,twoone,,,,,,,,,,,,,,,,,,,,,,,,,,,,,,,,,,,,,,,,,,,,,,,,,,,,,,,,,,,,,,,,,,,,,,,,,,,,,,,,,,,,,,,,,,,,,,,,,,,,,,,,,,,,,,,,,,,,,,,,,,,,,,,,,,,,,,,,,
,,616b06e97addc4a9a638909e,2024-02-18_20h10.27.967,kallum_motion_pilot,2023.2.2,Win32,59.88023952,616b06e97addc4a9a638909e,65d2b6c8f2eece985d8e374c,65d2b837b83178b7b14aecba,0.0323,0.0324,0,14,14,58,1,twoone,,,,,,,,,,,,,,,,,,,,,,,,,,,,,,,,,,,,,,,,,,,,,,,,,,,,,,,,,,,,,,,,,,,,,,,,,,,,,,,,,,,,,,,,,,,,,,,,,,,,,,,,,,,,,,,,,,,,,,,,,,,,,,,,,,,,,,,,,
,,616b06e97addc4a9a638909e,2024-02-18_20h10.27.967,kallum_motion_pilot,2023.2.2,Win32,59.88023952,616b06e97addc4a9a638909e,65d2b6c8f2eece985d8e374c,65d2b837b83178b7b14aecba,0.0324,0.0324,0,15,15,60,1,threeone,,,,,,,,,,,,,,,,,,,,,,,,,,,,,,,,,,,,,,,,,,,,,,,,,,,,,,,,,,,,,,,,,,,,,,,,,,,,,,,,,,,,,,,,,,,,,,,,,,,,,,,,,,,,,,,,,,,,,,,,,,,,,,,,,,,,,,,,,
,,616b06e97addc4a9a638909e,2024-02-18_20h10.27.967,kallum_motion_pilot,2023.2.2,Win32,59.88023952,616b06e97addc4a9a638909e,65d2b6c8f2eece985d8e374c,65d2b837b83178b7b14aecba,0.0326,0.0326,0,16,16,21,1,threefour,,,,,,,,,,,,,,,,,,,,,,,,,,,,,,,,,,,,,,,,,,,,,,,,,,,,,,,,,,,,,,,,,,,,,,,,,,,,,,,,,,,,,,,,,,,,,,,,,,,,,,,,,,,,,,,,,,,,,,,,,,,,,,,,,,,,,,,,,
,,616b06e97addc4a9a638909e,2024-02-18_20h10.27.967,kallum_motion_pilot,2023.2.2,Win32,59.88023952,616b06e97addc4a9a638909e,65d2b6c8f2eece985d8e374c,65d2b837b83178b7b14aecba,0.0327,0.0327,0,17,17,129,1,fiveseven,,,,,,,,,,,,,,,,,,,,,,,,,,,,,,,,,,,,,,,,,,,,,,,,,,,,,,,,,,,,,,,,,,,,,,,,,,,,,,,,,,,,,,,,,,,,,,,,,,,,,,,,,,,,,,,,,,,,,,,,,,,,,,,,,,,,,,,,,
,,616b06e97addc4a9a638909e,2024-02-18_20h10.27.967,kallum_motion_pilot,2023.2.2,Win32,59.88023952,616b06e97addc4a9a638909e,65d2b6c8f2eece985d8e374c,65d2b837b83178b7b14aecba,0.0328,0.0328,0,18,18,103,1,eightseven,,,,,,,,,,,,,,,,,,,,,,,,,,,,,,,,,,,,,,,,,,,,,,,,,,,,,,,,,,,,,,,,,,,,,,,,,,,,,,,,,,,,,,,,,,,,,,,,,,,,,,,,,,,,,,,,,,,,,,,,,,,,,,,,,,,,,,,,,
,,616b06e97addc4a9a638909e,2024-02-18_20h10.27.967,kallum_motion_pilot,2023.2.2,Win32,59.88023952,616b06e97addc4a9a638909e,65d2b6c8f2eece985d8e374c,65d2b837b83178b7b14aecba,0.0329,0.0329,0,19,19,161,1,fiveseven,,,,,,,,,,,,,,,,,,,,,,,,,,,,,,,,,,,,,,,,,,,,,,,,,,,,,,,,,,,,,,,,,,,,,,,,,,,,,,,,,,,,,,,,,,,,,,,,,,,,,,,,,,,,,,,,,,,,,,,,,,,,,,,,,,,,,,,,,
,,616b06e97addc4a9a638909e,2024-02-18_20h10.27.967,kallum_motion_pilot,2023.2.2,Win32,59.88023952,616b06e97addc4a9a638909e,65d2b6c8f2eece985d8e374c,65d2b837b83178b7b14aecba,0.033,0.033,0,20,20,99,1,sixeight,,,,,,,,,,,,,,,,,,,,,,,,,,,,,,,,,,,,,,,,,,,,,,,,,,,,,,,,,,,,,,,,,,,,,,,,,,,,,,,,,,,,,,,,,,,,,,,,,,,,,,,,,,,,,,,,,,,,,,,,,,,,,,,,,,,,,,,,,
,,616b06e97addc4a9a638909e,2024-02-18_20h10.27.967,kallum_motion_pilot,2023.2.2,Win32,59.88023952,616b06e97addc4a9a638909e,65d2b6c8f2eece985d8e374c,65d2b837b83178b7b14aecba,0.0332,0.0332,0,21,21,142,1,eightsix,,,,,,,,,,,,,,,,,,,,,,,,,,,,,,,,,,,,,,,,,,,,,,,,,,,,,,,,,,,,,,,,,,,,,,,,,,,,,,,,,,,,,,,,,,,,,,,,,,,,,,,,,,,,,,,,,,,,,,,,,,,,,,,,,,,,,,,,,
,,616b06e97addc4a9a638909e,2024-02-18_20h10.27.967,kallum_motion_pilot,2023.2.2,Win32,59.88023952,616b06e97addc4a9a638909e,65d2b6c8f2eece985d8e374c,65d2b837b83178b7b14aecba,0.0333,0.0333,0,22,22,34,1,twoone,,,,,,,,,,,,,,,,,,,,,,,,,,,,,,,,,,,,,,,,,,,,,,,,,,,,,,,,,,,,,,,,,,,,,,,,,,,,,,,,,,,,,,,,,,,,,,,,,,,,,,,,,,,,,,,,,,,,,,,,,,,,,,,,,,,,,,,,,
,,616b06e97addc4a9a638909e,2024-02-18_20h10.27.967,kallum_motion_pilot,2023.2.2,Win32,59.88023952,616b06e97addc4a9a638909e,65d2b6c8f2eece985d8e374c,65d2b837b83178b7b14aecba,0.0334,0.0335,0,23,23,44,1,threeone,,,,,,,,,,,,,,,,,,,,,,,,,,,,,,,,,,,,,,,,,,,,,,,,,,,,,,,,,,,,,,,,,,,,,,,,,,,,,,,,,,,,,,,,,,,,,,,,,,,,,,,,,,,,,,,,,,,,,,,,,,,,,,,,,,,,,,,,,
,,616b06e97addc4a9a638909e,2024-02-18_20h10.27.967,kallum_motion_pilot,2023.2.2,Win32,59.88023952,616b06e97addc4a9a638909e,65d2b6c8f2eece985d8e374c,65d2b837b83178b7b14aecba,0.0336,0.0336,0,24,24,62,1,fourtwo,,,,,,,,,,,,,,,,,,,,,,,,,,,,,,,,,,,,,,,,,,,,,,,,,,,,,,,,,,,,,,,,,,,,,,,,,,,,,,,,,,,,,,,,,,,,,,,,,,,,,,,,,,,,,,,,,,,,,,,,,,,,,,,,,,,,,,,,,
,,616b06e97addc4a9a638909e,2024-02-18_20h10.27.967,kallum_motion_pilot,2023.2.2,Win32,59.88023952,616b06e97addc4a9a638909e,65d2b6c8f2eece985d8e374c,65d2b837b83178b7b14aecba,0.0338,0.0338,0,25,25,119,1,eightseven,,,,,,,,,,,,,,,,,,,,,,,,,,,,,,,,,,,,,,,,,,,,,,,,,,,,,,,,,,,,,,,,,,,,,,,,,,,,,,,,,,,,,,,,,,,,,,,,,,,,,,,,,,,,,,,,,,,,,,,,,,,,,,,,,,,,,,,,,
,,616b06e97addc4a9a638909e,2024-02-18_20h10.27.967,kallum_motion_pilot,2023.2.2,Win32,59.88023952,616b06e97addc4a9a638909e,65d2b6c8f2eece985d8e374c,65d2b837b83178b7b14aecba,0.0339,0.0339,0,26,26,135,1,eightseven,,,,,,,,,,,,,,,,,,,,,,,,,,,,,,,,,,,,,,,,,,,,,,,,,,,,,,,,,,,,,,,,,,,,,,,,,,,,,,,,,,,,,,,,,,,,,,,,,,,,,,,,,,,,,,,,,,,,,,,,,,,,,,,,,,,,,,,,,
,,616b06e97addc4a9a638909e,2024-02-18_20h10.27.967,kallum_motion_pilot,2023.2.2,Win32,59.88023952,616b06e97addc4a9a638909e,65d2b6c8f2eece985d8e374c,65d2b837b83178b7b14aecba,0.034,0.034,0,27,27,71,1,fourthree,,,,,,,,,,,,,,,,,,,,,,,,,,,,,,,,,,,,,,,,,,,,,,,,,,,,,,,,,,,,,,,,,,,,,,,,,,,,,,,,,,,,,,,,,,,,,,,,,,,,,,,,,,,,,,,,,,,,,,,,,,,,,,,,,,,,,,,,,
,,616b06e97addc4a9a638909e,2024-02-18_20h10.27.967,kallum_motion_pilot,2023.2.2,Win32,59.88023952,616b06e97addc4a9a638909e,65d2b6c8f2eece985d8e374c,65d2b837b83178b7b14aecba,0.0343,0.0343,0,28,28,47,1,fourthree,,,,,,,,,,,,,,,,,,,,,,,,,,,,,,,,,,,,,,,,,,,,,,,,,,,,,,,,,,,,,,,,,,,,,,,,,,,,,,,,,,,,,,,,,,,,,,,,,,,,,,,,,,,,,,,,,,,,,,,,,,,,,,,,,,,,,,,,,
,,616b06e97addc4a9a638909e,2024-02-18_20h10.27.967,kallum_motion_pilot,2023.2.2,Win32,59.88023952,616b06e97addc4a9a638909e,65d2b6c8f2eece985d8e374c,65d2b837b83178b7b14aecba,0.0345,0.0345,0,29,29,132,1,sevenfive,,,,,,,,,,,,,,,,,,,,,,,,,,,,,,,,,,,,,,,,,,,,,,,,,,,,,,,,,,,,,,,,,,,,,,,,,,,,,,,,,,,,,,,,,,,,,,,,,,,,,,,,,,,,,,,,,,,,,,,,,,,,,,,,,,,,,,,,,
,,616b06e97addc4a9a638909e,2024-02-18_20h10.27.967,kallum_motion_pilot,2023.2.2,Win32,59.88023952,616b06e97addc4a9a638909e,65d2b6c8f2eece985d8e374c,65d2b837b83178b7b14aecba,0.0346,0.0346,0,30,30,111,1,eightseven,,,,,,,,,,,,,,,,,,,,,,,,,,,,,,,,,,,,,,,,,,,,,,,,,,,,,,,,,,,,,,,,,,,,,,,,,,,,,,,,,,,,,,,,,,,,,,,,,,,,,,,,,,,,,,,,,,,,,,,,,,,,,,,,,,,,,,,,,
,,616b06e97addc4a9a638909e,2024-02-18_20h10.27.967,kallum_motion_pilot,2023.2.2,Win32,59.88023952,616b06e97addc4a9a638909e,65d2b6c8f2eece985d8e374c,65d2b837b83178b7b14aecba,0.0347,0.0348,0,31,31,140,1,sevenfive,,,,,,,,,,,,,,,,,,,,,,,,,,,,,,,,,,,,,,,,,,,,,,,,,,,,,,,,,,,,,,,,,,,,,,,,,,,,,,,,,,,,,,,,,,,,,,,,,,,,,,,,,,,,,,,,,,,,,,,,,,,,,,,,,,,,,,,,,
,,616b06e97addc4a9a638909e,2024-02-18_20h10.27.967,kallum_motion_pilot,2023.2.2,Win32,59.88023952,616b06e97addc4a9a638909e,65d2b6c8f2eece985d8e374c,65d2b837b83178b7b14aecba,0.035,0.035,0,32,32,8,1,onetwo,,,,,,,,,,,,,,,,,,,,,,,,,,,,,,,,,,,,,,,,,,,,,,,,,,,,,,,,,,,,,,,,,,,,,,,,,,,,,,,,,,,,,,,,,,,,,,,,,,,,,,,,,,,,,,,,,,,,,,,,,,,,,,,,,,,,,,,,,
,,616b06e97addc4a9a638909e,2024-02-18_20h10.27.967,kallum_motion_pilot,2023.2.2,Win32,59.88023952,616b06e97addc4a9a638909e,65d2b6c8f2eece985d8e374c,65d2b837b83178b7b14aecba,0.0351,0.0351,0,33,33,157,1,seveneight,,,,,,,,,,,,,,,,,,,,,,,,,,,,,,,,,,,,,,,,,,,,,,,,,,,,,,,,,,,,,,,,,,,,,,,,,,,,,,,,,,,,,,,,,,,,,,,,,,,,,,,,,,,,,,,,,,,,,,,,,,,,,,,,,,,,,,,,,
,,616b06e97addc4a9a638909e,2024-02-18_20h10.27.967,kallum_motion_pilot,2023.2.2,Win32,59.88023952,616b06e97addc4a9a638909e,65d2b6c8f2eece985d8e374c,65d2b837b83178b7b14aecba,0.0352,0.0353,0,34,34,96,1,fivesix,,,,,,,,,,,,,,,,,,,,,,,,,,,,,,,,,,,,,,,,,,,,,,,,,,,,,,,,,,,,,,,,,,,,,,,,,,,,,,,,,,,,,,,,,,,,,,,,,,,,,,,,,,,,,,,,,,,,,,,,,,,,,,,,,,,,,,,,,
,,616b06e97addc4a9a638909e,2024-02-18_20h10.27.967,kallum_motion_pilot,2023.2.2,Win32,59.88023952,616b06e97addc4a9a638909e,65d2b6c8f2eece985d8e374c,65d2b837b83178b7b14aecba,0.0353,0.0354,0,35,35,136,1,fivesix,,,,,,,,,,,,,,,,,,,,,,,,,,,,,,,,,,,,,,,,,,,,,,,,,,,,,,,,,,,,,,,,,,,,,,,,,,,,,,,,,,,,,,,,,,,,,,,,,,,,,,,,,,,,,,,,,,,,,,,,,,,,,,,,,,,,,,,,,
,,616b06e97addc4a9a638909e,2024-02-18_20h10.27.967,kallum_motion_pilot,2023.2.2,Win32,59.88023952,616b06e97addc4a9a638909e,65d2b6c8f2eece985d8e374c,65d2b837b83178b7b14aecba,0.0355,0.0355,0,36,36,74,1,twoone,,,,,,,,,,,,,,,,,,,,,,,,,,,,,,,,,,,,,,,,,,,,,,,,,,,,,,,,,,,,,,,,,,,,,,,,,,,,,,,,,,,,,,,,,,,,,,,,,,,,,,,,,,,,,,,,,,,,,,,,,,,,,,,,,,,,,,,,,
,,616b06e97addc4a9a638909e,2024-02-18_20h10.27.967,kallum_motion_pilot,2023.2.2,Win32,59.88023952,616b06e97addc4a9a638909e,65d2b6c8f2eece985d8e374c,65d2b837b83178b7b14aecba,0.0356,0.0357,0,37,37,101,1,seveneight,,,,,,,,,,,,,,,,,,,,,,,,,,,,,,,,,,,,,,,,,,,,,,,,,,,,,,,,,,,,,,,,,,,,,,,,,,,,,,,,,,,,,,,,,,,,,,,,,,,,,,,,,,,,,,,,,,,,,,,,,,,,,,,,,,,,,,,,,
,,616b06e97addc4a9a638909e,2024-02-18_20h10.27.967,kallum_motion_pilot,2023.2.2,Win32,59.88023952,616b06e97addc4a9a638909e,65d2b6c8f2eece985d8e374c,65d2b837b83178b7b14aecba,0.0358,0.0358,0,38,38,16,1,onetwo,,,,,,,,,,,,,,,,,,,,,,,,,,,,,,,,,,,,,,,,,,,,,,,,,,,,,,,,,,,,,,,,,,,,,,,,,,,,,,,,,,,,,,,,,,,,,,,,,,,,,,,,,,,,,,,,,,,,,,,,,,,,,,,,,,,,,,,,,
,,616b06e97addc4a9a638909e,2024-02-18_20h10.27.967,kallum_motion_pilot,2023.2.2,Win32,59.88023952,616b06e97addc4a9a638909e,65d2b6c8f2eece985d8e374c,65d2b837b83178b7b14aecba,0.0358,0.036,0,39,39,95,1,eightseven,,,,,,,,,,,,,,,,,,,,,,,,,,,,,,,,,,,,,,,,,,,,,,,,,,,,,,,,,,,,,,,,,,,,,,,,,,,,,,,,,,,,,,,,,,,,,,,,,,,,,,,,,,,,,,,,,,,,,,,,,,,,,,,,,,,,,,,,,
,,616b06e97addc4a9a638909e,2024-02-18_20h10.27.967,kallum_motion_pilot,2023.2.2,Win32,59.88023952,616b06e97addc4a9a638909e,65d2b6c8f2eece985d8e374c,65d2b837b83178b7b14aecba,0.0361,0.0361,0,40,40,126,1,eightsix,,,,,,,,,,,,,,,,,,,,,,,,,,,,,,,,,,,,,,,,,,,,,,,,,,,,,,,,,,,,,,,,,,,,,,,,,,,,,,,,,,,,,,,,,,,,,,,,,,,,,,,,,,,,,,,,,,,,,,,,,,,,,,,,,,,,,,,,,
,,616b06e97addc4a9a638909e,2024-02-18_20h10.27.967,kallum_motion_pilot,2023.2.2,Win32,59.88023952,616b06e97addc4a9a638909e,65d2b6c8f2eece985d8e374c,65d2b837b83178b7b14aecba,0.0362,0.0363,0,41,41,79,1,eightseven,,,,,,,,,,,,,,,,,,,,,,,,,,,,,,,,,,,,,,,,,,,,,,,,,,,,,,,,,,,,,,,,,,,,,,,,,,,,,,,,,,,,,,,,,,,,,,,,,,,,,,,,,,,,,,,,,,,,,,,,,,,,,,,,,,,,,,,,,
,,616b06e97addc4a9a638909e,2024-02-18_20h10.27.967,kallum_motion_pilot,2023.2.2,Win32,59.88023952,616b06e97addc4a9a638909e,65d2b6c8f2eece985d8e374c,65d2b837b83178b7b14aecba,0.0364,0.0365,0,42,42,37,1,threefour,,,,,,,,,,,,,,,,,,,,,,,,,,,,,,,,,,,,,,,,,,,,,,,,,,,,,,,,,,,,,,,,,,,,,,,,,,,,,,,,,,,,,,,,,,,,,,,,,,,,,,,,,,,,,,,,,,,,,,,,,,,,,,,,,,,,,,,,,
,,616b06e97addc4a9a638909e,2024-02-18_20h10.27.967,kallum_motion_pilot,2023.2.2,Win32,59.88023952,616b06e97addc4a9a638909e,65d2b6c8f2eece985d8e374c,65d2b837b83178b7b14aecba,0.0367,0.0367,0,43,43,28,1,threeone,,,,,,,,,,,,,,,,,,,,,,,,,,,,,,,,,,,,,,,,,,,,,,,,,,,,,,,,,,,,,,,,,,,,,,,,,,,,,,,,,,,,,,,,,,,,,,,,,,,,,,,,,,,,,,,,,,,,,,,,,,,,,,,,,,,,,,,,,
,,616b06e97addc4a9a638909e,2024-02-18_20h10.27.967,kallum_motion_pilot,2023.2.2,Win32,59.88023952,616b06e97addc4a9a638909e,65d2b6c8f2eece985d8e374c,65d2b837b83178b7b14aecba,0.0369,0.0369,0,44,44,94,1,eightsix,,,,,,,,,,,,,,,,,,,,,,,,,,,,,,,,,,,,,,,,,,,,,,,,,,,,,,,,,,,,,,,,,,,,,,,,,,,,,,,,,,,,,,,,,,,,,,,,,,,,,,,,,,,,,,,,,,,,,,,,,,,,,,,,,,,,,,,,,
,,616b06e97addc4a9a638909e,2024-02-18_20h10.27.967,kallum_motion_pilot,2023.2.2,Win32,59.88023952,616b06e97addc4a9a638909e,65d2b6c8f2eece985d8e374c,65d2b837b83178b7b14aecba,0.0371,0.0371,0,45,45,86,1,eightsix,,,,,,,,,,,,,,,,,,,,,,,,,,,,,,,,,,,,,,,,,,,,,,,,,,,,,,,,,,,,,,,,,,,,,,,,,,,,,,,,,,,,,,,,,,,,,,,,,,,,,,,,,,,,,,,,,,,,,,,,,,,,,,,,,,,,,,,,,
,,616b06e97addc4a9a638909e,2024-02-18_20h10.27.967,kallum_motion_pilot,2023.2.2,Win32,59.88023952,616b06e97addc4a9a638909e,65d2b6c8f2eece985d8e374c,65d2b837b83178b7b14aecba,0.0372,0.0372,0,46,46,6,1,fourtwo,,,,,,,,,,,,,,,,,,,,,,,,,,,,,,,,,,,,,,,,,,,,,,,,,,,,,,,,,,,,,,,,,,,,,,,,,,,,,,,,,,,,,,,,,,,,,,,,,,,,,,,,,,,,,,,,,,,,,,,,,,,,,,,,,,,,,,,,,
,,616b06e97addc4a9a638909e,2024-02-18_20h10.27.967,kallum_motion_pilot,2023.2.2,Win32,59.88023952,616b06e97addc4a9a638909e,65d2b6c8f2eece985d8e374c,65d2b837b83178b7b14aecba,0.0373,0.0374,0,47,47,68,1,threeone,,,,,,,,,,,,,,,,,,,,,,,,,,,,,,,,,,,,,,,,,,,,,,,,,,,,,,,,,,,,,,,,,,,,,,,,,,,,,,,,,,,,,,,,,,,,,,,,,,,,,,,,,,,,,,,,,,,,,,,,,,,,,,,,,,,,,,,,,
,,616b06e97addc4a9a638909e,2024-02-18_20h10.27.967,kallum_motion_pilot,2023.2.2,Win32,59.88023952,616b06e97addc4a9a638909e,65d2b6c8f2eece985d8e374c,65d2b837b83178b7b14aecba,0.0374,0.0376,0,48,48,0,1,onetwo,,,,,,,,,,,,,,,,,,,,,,,,,,,,,,,,,,,,,,,,,,,,,,,,,,,,,,,,,,,,,,,,,,,,,,,,,,,,,,,,,,,,,,,,,,,,,,,,,,,,,,,,,,,,,,,,,,,,,,,,,,,,,,,,,,,,,,,,,
,,616b06e97addc4a9a638909e,2024-02-18_20h10.27.967,kallum_motion_pilot,2023.2.2,Win32,59.88023952,616b06e97addc4a9a638909e,65d2b6c8f2eece985d8e374c,65d2b837b83178b7b14aecba,0.0377,0.0377,0,49,49,65,1,onethree,,,,,,,,,,,,,,,,,,,,,,,,,,,,,,,,,,,,,,,,,,,,,,,,,,,,,,,,,,,,,,,,,,,,,,,,,,,,,,,,,,,,,,,,,,,,,,,,,,,,,,,,,,,,,,,,,,,,,,,,,,,,,,,,,,,,,,,,,
,,616b06e97addc4a9a638909e,2024-02-18_20h10.27.967,kallum_motion_pilot,2023.2.2,Win32,59.88023952,616b06e97addc4a9a638909e,65d2b6c8f2eece985d8e374c,65d2b837b83178b7b14aecba,0.0378,0.0378,0,50,50,76,1,threeone,,,,,,,,,,,,,,,,,,,,,,,,,,,,,,,,,,,,,,,,,,,,,,,,,,,,,,,,,,,,,,,,,,,,,,,,,,,,,,,,,,,,,,,,,,,,,,,,,,,,,,,,,,,,,,,,,,,,,,,,,,,,,,,,,,,,,,,,,
,,616b06e97addc4a9a638909e,2024-02-18_20h10.27.967,kallum_motion_pilot,2023.2.2,Win32,59.88023952,616b06e97addc4a9a638909e,65d2b6c8f2eece985d8e374c,65d2b837b83178b7b14aecba,0.0379,0.0379,0,51,51,154,1,sixfive,,,,,,,,,,,,,,,,,,,,,,,,,,,,,,,,,,,,,,,,,,,,,,,,,,,,,,,,,,,,,,,,,,,,,,,,,,,,,,,,,,,,,,,,,,,,,,,,,,,,,,,,,,,,,,,,,,,,,,,,,,,,,,,,,,,,,,,,,
,,616b06e97addc4a9a638909e,2024-02-18_20h10.27.967,kallum_motion_pilot,2023.2.2,Win32,59.88023952,616b06e97addc4a9a638909e,65d2b6c8f2eece985d8e374c,65d2b837b83178b7b14aecba,0.0384,0.0385,0,52,52,36,1,threeone,,,,,,,,,,,,,,,,,,,,,,,,,,,,,,,,,,,,,,,,,,,,,,,,,,,,,,,,,,,,,,,,,,,,,,,,,,,,,,,,,,,,,,,,,,,,,,,,,,,,,,,,,,,,,,,,,,,,,,,,,,,,,,,,,,,,,,,,,
,,616b06e97addc4a9a638909e,2024-02-18_20h10.27.967,kallum_motion_pilot,2023.2.2,Win32,59.88023952,616b06e97addc4a9a638909e,65d2b6c8f2eece985d8e374c,65d2b837b83178b7b14aecba,0.0387,0.0389,0,53,53,105,1,fiveseven,,,,,,,,,,,,,,,,,,,,,,,,,,,,,,,,,,,,,,,,,,,,,,,,,,,,,,,,,,,,,,,,,,,,,,,,,,,,,,,,,,,,,,,,,,,,,,,,,,,,,,,,,,,,,,,,,,,,,,,,,,,,,,,,,,,,,,,,,
,,616b06e97addc4a9a638909e,2024-02-18_20h10.27.967,kallum_motion_pilot,2023.2.2,Win32,59.88023952,616b06e97addc4a9a638909e,65d2b6c8f2eece985d8e374c,65d2b837b83178b7b14aecba,0.0391,0.0392,0,54,54,128,1,fivesix,,,,,,,,,,,,,,,,,,,,,,,,,,,,,,,,,,,,,,,,,,,,,,,,,,,,,,,,,,,,,,,,,,,,,,,,,,,,,,,,,,,,,,,,,,,,,,,,,,,,,,,,,,,,,,,,,,,,,,,,,,,,,,,,,,,,,,,,,
,,616b06e97addc4a9a638909e,2024-02-18_20h10.27.967,kallum_motion_pilot,2023.2.2,Win32,59.88023952,616b06e97addc4a9a638909e,65d2b6c8f2eece985d8e374c,65d2b837b83178b7b14aecba,0.0394,0.0396,0,55,55,56,1,onetwo,,,,,,,,,,,,,,,,,,,,,,,,,,,,,,,,,,,,,,,,,,,,,,,,,,,,,,,,,,,,,,,,,,,,,,,,,,,,,,,,,,,,,,,,,,,,,,,,,,,,,,,,,,,,,,,,,,,,,,,,,,,,,,,,,,,,,,,,,
,,616b06e97addc4a9a638909e,2024-02-18_20h10.27.967,kallum_motion_pilot,2023.2.2,Win32,59.88023952,616b06e97addc4a9a638909e,65d2b6c8f2eece985d8e374c,65d2b837b83178b7b14aecba,0.0399,0.0399,0,56,56,139,1,sixeight,,,,,,,,,,,,,,,,,,,,,,,,,,,,,,,,,,,,,,,,,,,,,,,,,,,,,,,,,,,,,,,,,,,,,,,,,,,,,,,,,,,,,,,,,,,,,,,,,,,,,,,,,,,,,,,,,,,,,,,,,,,,,,,,,,,,,,,,,
,,616b06e97addc4a9a638909e,2024-02-18_20h10.27.967,kallum_motion_pilot,2023.2.2,Win32,59.88023952,616b06e97addc4a9a638909e,65d2b6c8f2eece985d8e374c,65d2b837b83178b7b14aecba,0.0401,0.0401,0,57,57,110,1,eightsix,,,,,,,,,,,,,,,,,,,,,,,,,,,,,,,,,,,,,,,,,,,,,,,,,,,,,,,,,,,,,,,,,,,,,,,,,,,,,,,,,,,,,,,,,,,,,,,,,,,,,,,,,,,,,,,,,,,,,,,,,,,,,,,,,,,,,,,,,
,,616b06e97addc4a9a638909e,2024-02-18_20h10.27.967,kallum_motion_pilot,2023.2.2,Win32,59.88023952,616b06e97addc4a9a638909e,65d2b6c8f2eece985d8e374c,65d2b837b83178b7b14aecba,0.0402,0.0403,0,58,58,108,1,sevenfive,,,,,,,,,,,,,,,,,,,,,,,,,,,,,,,,,,,,,,,,,,,,,,,,,,,,,,,,,,,,,,,,,,,,,,,,,,,,,,,,,,,,,,,,,,,,,,,,,,,,,,,,,,,,,,,,,,,,,,,,,,,,,,,,,,,,,,,,,
,,616b06e97addc4a9a638909e,2024-02-18_20h10.27.967,kallum_motion_pilot,2023.2.2,Win32,59.88023952,616b06e97addc4a9a638909e,65d2b6c8f2eece985d8e374c,65d2b837b83178b7b14aecba,0.0404,0.0404,0,59,59,145,1,fiveseven,,,,,,,,,,,,,,,,,,,,,,,,,,,,,,,,,,,,,,,,,,,,,,,,,,,,,,,,,,,,,,,,,,,,,,,,,,,,,,,,,,,,,,,,,,,,,,,,,,,,,,,,,,,,,,,,,,,,,,,,,,,,,,,,,,,,,,,,,
,,616b06e97addc4a9a638909e,2024-02-18_20h10.27.967,kallum_motion_pilot,2023.2.2,Win32,59.88023952,616b06e97addc4a9a638909e,65d2b6c8f2eece985d8e374c,65d2b837b83178b7b14aecba,0.0406,0.0407,0,60,60,106,1,sixfive,,,,,,,,,,,,,,,,,,,,,,,,,,,,,,,,,,,,,,,,,,,,,,,,,,,,,,,,,,,,,,,,,,,,,,,,,,,,,,,,,,,,,,,,,,,,,,,,,,,,,,,,,,,,,,,,,,,,,,,,,,,,,,,,,,,,,,,,,
,,616b06e97addc4a9a638909e,2024-02-18_20h10.27.967,kallum_motion_pilot,2023.2.2,Win32,59.88023952,616b06e97addc4a9a638909e,65d2b6c8f2eece985d8e374c,65d2b837b83178b7b14aecba,0.0408,0.0408,0,61,61,3,1,twofour,,,,,,,,,,,,,,,,,,,,,,,,,,,,,,,,,,,,,,,,,,,,,,,,,,,,,,,,,,,,,,,,,,,,,,,,,,,,,,,,,,,,,,,,,,,,,,,,,,,,,,,,,,,,,,,,,,,,,,,,,,,,,,,,,,,,,,,,,
,,616b06e97addc4a9a638909e,2024-02-18_20h10.27.967,kallum_motion_pilot,2023.2.2,Win32,59.88023952,616b06e97addc4a9a638909e,65d2b6c8f2eece985d8e374c,65d2b837b83178b7b14aecba,0.0409,0.041,0,62,62,121,1,fiveseven,,,,,,,,,,,,,,,,,,,,,,,,,,,,,,,,,,,,,,,,,,,,,,,,,,,,,,,,,,,,,,,,,,,,,,,,,,,,,,,,,,,,,,,,,,,,,,,,,,,,,,,,,,,,,,,,,,,,,,,,,,,,,,,,,,,,,,,,,
,,616b06e97addc4a9a638909e,2024-02-18_20h10.27.967,kallum_motion_pilot,2023.2.2,Win32,59.88023952,616b06e97addc4a9a638909e,65d2b6c8f2eece985d8e374c,65d2b837b83178b7b14aecba,0.0412,0.0413,0,63,63,9,1,onethree,,,,,,,,,,,,,,,,,,,,,,,,,,,,,,,,,,,,,,,,,,,,,,,,,,,,,,,,,,,,,,,,,,,,,,,,,,,,,,,,,,,,,,,,,,,,,,,,,,,,,,,,,,,,,,,,,,,,,,,,,,,,,,,,,,,,,,,,,
,,616b06e97addc4a9a638909e,2024-02-18_20h10.27.967,kallum_motion_pilot,2023.2.2,Win32,59.88023952,616b06e97addc4a9a638909e,65d2b6c8f2eece985d8e374c,65d2b837b83178b7b14aecba,0.0415,0.0416,0,64,64,115,1,sixeight,,,,,,,,,,,,,,,,,,,,,,,,,,,,,,,,,,,,,,,,,,,,,,,,,,,,,,,,,,,,,,,,,,,,,,,,,,,,,,,,,,,,,,,,,,,,,,,,,,,,,,,,,,,,,,,,,,,,,,,,,,,,,,,,,,,,,,,,,
,,616b06e97addc4a9a638909e,2024-02-18_20h10.27.967,kallum_motion_pilot,2023.2.2,Win32,59.88023952,616b06e97addc4a9a638909e,65d2b6c8f2eece985d8e374c,65d2b837b83178b7b14aecba,0.0417,0.0417,0,65,65,14,1,fourtwo,,,,,,,,,,,,,,,,,,,,,,,,,,,,,,,,,,,,,,,,,,,,,,,,,,,,,,,,,,,,,,,,,,,,,,,,,,,,,,,,,,,,,,,,,,,,,,,,,,,,,,,,,,,,,,,,,,,,,,,,,,,,,,,,,,,,,,,,,
,,616b06e97addc4a9a638909e,2024-02-18_20h10.27.967,kallum_motion_pilot,2023.2.2,Win32,59.88023952,616b06e97addc4a9a638909e,65d2b6c8f2eece985d8e374c,65d2b837b83178b7b14aecba,0.0418,0.0419,0,66,66,11,1,twofour,,,,,,,,,,,,,,,,,,,,,,,,,,,,,,,,,,,,,,,,,,,,,,,,,,,,,,,,,,,,,,,,,,,,,,,,,,,,,,,,,,,,,,,,,,,,,,,,,,,,,,,,,,,,,,,,,,,,,,,,,,,,,,,,,,,,,,,,,
,,616b06e97addc4a9a638909e,2024-02-18_20h10.27.967,kallum_motion_pilot,2023.2.2,Win32,59.88023952,616b06e97addc4a9a638909e,65d2b6c8f2eece985d8e374c,65d2b837b83178b7b14aecba,0.042,0.0421,0,67,67,122,1,sixfive,,,,,,,,,,,,,,,,,,,,,,,,,,,,,,,,,,,,,,,,,,,,,,,,,,,,,,,,,,,,,,,,,,,,,,,,,,,,,,,,,,,,,,,,,,,,,,,,,,,,,,,,,,,,,,,,,,,,,,,,,,,,,,,,,,,,,,,,,
,,616b06e97addc4a9a638909e,2024-02-18_20h10.27.967,kallum_motion_pilot,2023.2.2,Win32,59.88023952,616b06e97addc4a9a638909e,65d2b6c8f2eece985d8e374c,65d2b837b83178b7b14aecba,0.0422,0.0431,0,68,68,51,1,twofour,,,,,,,,,,,,,,,,,,,,,,,,,,,,,,,,,,,,,,,,,,,,,,,,,,,,,,,,,,,,,,,,,,,,,,,,,,,,,,,,,,,,,,,,,,,,,,,,,,,,,,,,,,,,,,,,,,,,,,,,,,,,,,,,,,,,,,,,,
,,616b06e97addc4a9a638909e,2024-02-18_20h10.27.967,kallum_motion_pilot,2023.2.2,Win32,59.88023952,616b06e97addc4a9a638909e,65d2b6c8f2eece985d8e374c,65d2b837b83178b7b14aecba,0.0434,0.0434,0,69,69,63,1,fourthree,,,,,,,,,,,,,,,,,,,,,,,,,,,,,,,,,,,,,,,,,,,,,,,,,,,,,,,,,,,,,,,,,,,,,,,,,,,,,,,,,,,,,,,,,,,,,,,,,,,,,,,,,,,,,,,,,,,,,,,,,,,,,,,,,,,,,,,,,
,,616b06e97addc4a9a638909e,2024-02-18_20h10.27.967,kallum_motion_pilot,2023.2.2,Win32,59.88023952,616b06e97addc4a9a638909e,65d2b6c8f2eece985d8e374c,65d2b837b83178b7b14aecba,0.0435,0.0436,0,70,70,80,1,fivesix,,,,,,,,,,,,,,,,,,,,,,,,,,,,,,,,,,,,,,,,,,,,,,,,,,,,,,,,,,,,,,,,,,,,,,,,,,,,,,,,,,,,,,,,,,,,,,,,,,,,,,,,,,,,,,,,,,,,,,,,,,,,,,,,,,,,,,,,,
,,616b06e97addc4a9a638909e,2024-02-18_20h10.27.967,kallum_motion_pilot,2023.2.2,Win32,59.88023952,616b06e97addc4a9a638909e,65d2b6c8f2eece985d8e374c,65d2b837b83178b7b14aecba,0.0437,0.0437,0,71,71,88,1,fivesix,,,,,,,,,,,,,,,,,,,,,,,,,,,,,,,,,,,,,,,,,,,,,,,,,,,,,,,,,,,,,,,,,,,,,,,,,,,,,,,,,,,,,,,,,,,,,,,,,,,,,,,,,,,,,,,,,,,,,,,,,,,,,,,,,,,,,,,,,
,,616b06e97addc4a9a638909e,2024-02-18_20h10.27.967,kallum_motion_pilot,2023.2.2,Win32,59.88023952,616b06e97addc4a9a638909e,65d2b6c8f2eece985d8e374c,65d2b837b83178b7b14aecba,0.0438,0.0438,0,72,72,93,1,seveneight,,,,,,,,,,,,,,,,,,,,,,,,,,,,,,,,,,,,,,,,,,,,,,,,,,,,,,,,,,,,,,,,,,,,,,,,,,,,,,,,,,,,,,,,,,,,,,,,,,,,,,,,,,,,,,,,,,,,,,,,,,,,,,,,,,,,,,,,,
,,616b06e97addc4a9a638909e,2024-02-18_20h10.27.967,kallum_motion_pilot,2023.2.2,Win32,59.88023952,616b06e97addc4a9a638909e,65d2b6c8f2eece985d8e374c,65d2b837b83178b7b14aecba,0.0439,0.044,0,73,73,87,1,eightseven,,,,,,,,,,,,,,,,,,,,,,,,,,,,,,,,,,,,,,,,,,,,,,,,,,,,,,,,,,,,,,,,,,,,,,,,,,,,,,,,,,,,,,,,,,,,,,,,,,,,,,,,,,,,,,,,,,,,,,,,,,,,,,,,,,,,,,,,,
,,616b06e97addc4a9a638909e,2024-02-18_20h10.27.967,kallum_motion_pilot,2023.2.2,Win32,59.88023952,616b06e97addc4a9a638909e,65d2b6c8f2eece985d8e374c,65d2b837b83178b7b14aecba,0.0441,0.0442,0,74,74,40,1,onetwo,,,,,,,,,,,,,,,,,,,,,,,,,,,,,,,,,,,,,,,,,,,,,,,,,,,,,,,,,,,,,,,,,,,,,,,,,,,,,,,,,,,,,,,,,,,,,,,,,,,,,,,,,,,,,,,,,,,,,,,,,,,,,,,,,,,,,,,,,
,,616b06e97addc4a9a638909e,2024-02-18_20h10.27.967,kallum_motion_pilot,2023.2.2,Win32,59.88023952,616b06e97addc4a9a638909e,65d2b6c8f2eece985d8e374c,65d2b837b83178b7b14aecba,0.0443,0.0444,0,75,75,131,1,sixeight,,,,,,,,,,,,,,,,,,,,,,,,,,,,,,,,,,,,,,,,,,,,,,,,,,,,,,,,,,,,,,,,,,,,,,,,,,,,,,,,,,,,,,,,,,,,,,,,,,,,,,,,,,,,,,,,,,,,,,,,,,,,,,,,,,,,,,,,,
,,616b06e97addc4a9a638909e,2024-02-18_20h10.27.967,kallum_motion_pilot,2023.2.2,Win32,59.88023952,616b06e97addc4a9a638909e,65d2b6c8f2eece985d8e374c,65d2b837b83178b7b14aecba,0.0445,0.0446,0,76,76,160,1,fivesix,,,,,,,,,,,,,,,,,,,,,,,,,,,,,,,,,,,,,,,,,,,,,,,,,,,,,,,,,,,,,,,,,,,,,,,,,,,,,,,,,,,,,,,,,,,,,,,,,,,,,,,,,,,,,,,,,,,,,,,,,,,,,,,,,,,,,,,,,
,,616b06e97addc4a9a638909e,2024-02-18_20h10.27.967,kallum_motion_pilot,2023.2.2,Win32,59.88023952,616b06e97addc4a9a638909e,65d2b6c8f2eece985d8e374c,65d2b837b83178b7b14aecba,0.0447,0.0448,0,77,77,127,1,eightseven,,,,,,,,,,,,,,,,,,,,,,,,,,,,,,,,,,,,,,,,,,,,,,,,,,,,,,,,,,,,,,,,,,,,,,,,,,,,,,,,,,,,,,,,,,,,,,,,,,,,,,,,,,,,,,,,,,,,,,,,,,,,,,,,,,,,,,,,,
,,616b06e97addc4a9a638909e,2024-02-18_20h10.27.967,kallum_motion_pilot,2023.2.2,Win32,59.88023952,616b06e97addc4a9a638909e,65d2b6c8f2eece985d8e374c,65d2b837b83178b7b14aecba,0.0448,0.0449,0,78,78,158,1,eightsix,,,,,,,,,,,,,,,,,,,,,,,,,,,,,,,,,,,,,,,,,,,,,,,,,,,,,,,,,,,,,,,,,,,,,,,,,,,,,,,,,,,,,,,,,,,,,,,,,,,,,,,,,,,,,,,,,,,,,,,,,,,,,,,,,,,,,,,,,
,,616b06e97addc4a9a638909e,2024-02-18_20h10.27.967,kallum_motion_pilot,2023.2.2,Win32,59.88023952,616b06e97addc4a9a638909e,65d2b6c8f2eece985d8e374c,65d2b837b83178b7b14aecba,0.045,0.045,0,79,79,134,1,eightsix,,,,,,,,,,,,,,,,,,,,,,,,,,,,,,,,,,,,,,,,,,,,,,,,,,,,,,,,,,,,,,,,,,,,,,,,,,,,,,,,,,,,,,,,,,,,,,,,,,,,,,,,,,,,,,,,,,,,,,,,,,,,,,,,,,,,,,,,,
,,616b06e97addc4a9a638909e,2024-02-18_20h10.27.967,kallum_motion_pilot,2023.2.2,Win32,59.88023952,616b06e97addc4a9a638909e,65d2b6c8f2eece985d8e374c,65d2b837b83178b7b14aecba,0.0451,0.0451,0,80,80,70,1,fourtwo,,,,,,,,,,,,,,,,,,,,,,,,,,,,,,,,,,,,,,,,,,,,,,,,,,,,,,,,,,,,,,,,,,,,,,,,,,,,,,,,,,,,,,,,,,,,,,,,,,,,,,,,,,,,,,,,,,,,,,,,,,,,,,,,,,,,,,,,,
,,616b06e97addc4a9a638909e,2024-02-18_20h10.27.967,kallum_motion_pilot,2023.2.2,Win32,59.88023952,616b06e97addc4a9a638909e,65d2b6c8f2eece985d8e374c,65d2b837b83178b7b14aecba,0.0453,0.0453,0,81,81,2,1,twoone,,,,,,,,,,,,,,,,,,,,,,,,,,,,,,,,,,,,,,,,,,,,,,,,,,,,,,,,,,,,,,,,,,,,,,,,,,,,,,,,,,,,,,,,,,,,,,,,,,,,,,,,,,,,,,,,,,,,,,,,,,,,,,,,,,,,,,,,,
,,616b06e97addc4a9a638909e,2024-02-18_20h10.27.967,kallum_motion_pilot,2023.2.2,Win32,59.88023952,616b06e97addc4a9a638909e,65d2b6c8f2eece985d8e374c,65d2b837b83178b7b14aecba,0.0454,0.0455,0,82,82,89,1,fiveseven,,,,,,,,,,,,,,,,,,,,,,,,,,,,,,,,,,,,,,,,,,,,,,,,,,,,,,,,,,,,,,,,,,,,,,,,,,,,,,,,,,,,,,,,,,,,,,,,,,,,,,,,,,,,,,,,,,,,,,,,,,,,,,,,,,,,,,,,,
,,616b06e97addc4a9a638909e,2024-02-18_20h10.27.967,kallum_motion_pilot,2023.2.2,Win32,59.88023952,616b06e97addc4a9a638909e,65d2b6c8f2eece985d8e374c,65d2b837b83178b7b14aecba,0.0456,0.0456,0,83,83,12,1,threeone,,,,,,,,,,,,,,,,,,,,,,,,,,,,,,,,,,,,,,,,,,,,,,,,,,,,,,,,,,,,,,,,,,,,,,,,,,,,,,,,,,,,,,,,,,,,,,,,,,,,,,,,,,,,,,,,,,,,,,,,,,,,,,,,,,,,,,,,,
,,616b06e97addc4a9a638909e,2024-02-18_20h10.27.967,kallum_motion_pilot,2023.2.2,Win32,59.88023952,616b06e97addc4a9a638909e,65d2b6c8f2eece985d8e374c,65d2b837b83178b7b14aecba,0.0457,0.0458,0,84,84,112,1,fivesix,,,,,,,,,,,,,,,,,,,,,,,,,,,,,,,,,,,,,,,,,,,,,,,,,,,,,,,,,,,,,,,,,,,,,,,,,,,,,,,,,,,,,,,,,,,,,,,,,,,,,,,,,,,,,,,,,,,,,,,,,,,,,,,,,,,,,,,,,
,,616b06e97addc4a9a638909e,2024-02-18_20h10.27.967,kallum_motion_pilot,2023.2.2,Win32,59.88023952,616b06e97addc4a9a638909e,65d2b6c8f2eece985d8e374c,65d2b837b83178b7b14aecba,0.0458,0.0458,0,85,85,133,1,seveneight,,,,,,,,,,,,,,,,,,,,,,,,,,,,,,,,,,,,,,,,,,,,,,,,,,,,,,,,,,,,,,,,,,,,,,,,,,,,,,,,,,,,,,,,,,,,,,,,,,,,,,,,,,,,,,,,,,,,,,,,,,,,,,,,,,,,,,,,,
,,616b06e97addc4a9a638909e,2024-02-18_20h10.27.967,kallum_motion_pilot,2023.2.2,Win32,59.88023952,616b06e97addc4a9a638909e,65d2b6c8f2eece985d8e374c,65d2b837b83178b7b14aecba,0.046,0.046,0,86,86,33,1,onethree,,,,,,,,,,,,,,,,,,,,,,,,,,,,,,,,,,,,,,,,,,,,,,,,,,,,,,,,,,,,,,,,,,,,,,,,,,,,,,,,,,,,,,,,,,,,,,,,,,,,,,,,,,,,,,,,,,,,,,,,,,,,,,,,,,,,,,,,,
,,616b06e97addc4a9a638909e,2024-02-18_20h10.27.967,kallum_motion_pilot,2023.2.2,Win32,59.88023952,616b06e97addc4a9a638909e,65d2b6c8f2eece985d8e374c,65d2b837b83178b7b14aecba,0.0462,0.0462,0,87,87,146,1,sixfive,,,,,,,,,,,,,,,,,,,,,,,,,,,,,,,,,,,,,,,,,,,,,,,,,,,,,,,,,,,,,,,,,,,,,,,,,,,,,,,,,,,,,,,,,,,,,,,,,,,,,,,,,,,,,,,,,,,,,,,,,,,,,,,,,,,,,,,,,
,,616b06e97addc4a9a638909e,2024-02-18_20h10.27.967,kallum_motion_pilot,2023.2.2,Win32,59.88023952,616b06e97addc4a9a638909e,65d2b6c8f2eece985d8e374c,65d2b837b83178b7b14aecba,0.0462,0.0463,0,88,88,150,1,eightsix,,,,,,,,,,,,,,,,,,,,,,,,,,,,,,,,,,,,,,,,,,,,,,,,,,,,,,,,,,,,,,,,,,,,,,,,,,,,,,,,,,,,,,,,,,,,,,,,,,,,,,,,,,,,,,,,,,,,,,,,,,,,,,,,,,,,,,,,,
,,616b06e97addc4a9a638909e,2024-02-18_20h10.27.967,kallum_motion_pilot,2023.2.2,Win32,59.88023952,616b06e97addc4a9a638909e,65d2b6c8f2eece985d8e374c,65d2b837b83178b7b14aecba,0.0464,0.0464,0,89,89,24,1,onetwo,,,,,,,,,,,,,,,,,,,,,,,,,,,,,,,,,,,,,,,,,,,,,,,,,,,,,,,,,,,,,,,,,,,,,,,,,,,,,,,,,,,,,,,,,,,,,,,,,,,,,,,,,,,,,,,,,,,,,,,,,,,,,,,,,,,,,,,,,
,,616b06e97addc4a9a638909e,2024-02-18_20h10.27.967,kallum_motion_pilot,2023.2.2,Win32,59.88023952,616b06e97addc4a9a638909e,65d2b6c8f2eece985d8e374c,65d2b837b83178b7b14aecba,0.0465,0.0466,0,90,90,107,1,sixeight,,,,,,,,,,,,,,,,,,,,,,,,,,,,,,,,,,,,,,,,,,,,,,,,,,,,,,,,,,,,,,,,,,,,,,,,,,,,,,,,,,,,,,,,,,,,,,,,,,,,,,,,,,,,,,,,,,,,,,,,,,,,,,,,,,,,,,,,,
,,616b06e97addc4a9a638909e,2024-02-18_20h10.27.967,kallum_motion_pilot,2023.2.2,Win32,59.88023952,616b06e97addc4a9a638909e,65d2b6c8f2eece985d8e374c,65d2b837b83178b7b14aecba,0.0467,0.0468,0,91,91,26,1,twoone,,,,,,,,,,,,,,,,,,,,,,,,,,,,,,,,,,,,,,,,,,,,,,,,,,,,,,,,,,,,,,,,,,,,,,,,,,,,,,,,,,,,,,,,,,,,,,,,,,,,,,,,,,,,,,,,,,,,,,,,,,,,,,,,,,,,,,,,,
,,616b06e97addc4a9a638909e,2024-02-18_20h10.27.967,kallum_motion_pilot,2023.2.2,Win32,59.88023952,616b06e97addc4a9a638909e,65d2b6c8f2eece985d8e374c,65d2b837b83178b7b14aecba,0.0469,0.0469,0,92,92,98,1,sixfive,,,,,,,,,,,,,,,,,,,,,,,,,,,,,,,,,,,,,,,,,,,,,,,,,,,,,,,,,,,,,,,,,,,,,,,,,,,,,,,,,,,,,,,,,,,,,,,,,,,,,,,,,,,,,,,,,,,,,,,,,,,,,,,,,,,,,,,,,
,,616b06e97addc4a9a638909e,2024-02-18_20h10.27.967,kallum_motion_pilot,2023.2.2,Win32,59.88023952,616b06e97addc4a9a638909e,65d2b6c8f2eece985d8e374c,65d2b837b83178b7b14aecba,0.047,0.0471,0,93,93,61,1,threefour,,,,,,,,,,,,,,,,,,,,,,,,,,,,,,,,,,,,,,,,,,,,,,,,,,,,,,,,,,,,,,,,,,,,,,,,,,,,,,,,,,,,,,,,,,,,,,,,,,,,,,,,,,,,,,,,,,,,,,,,,,,,,,,,,,,,,,,,,
,,616b06e97addc4a9a638909e,2024-02-18_20h10.27.967,kallum_motion_pilot,2023.2.2,Win32,59.88023952,616b06e97addc4a9a638909e,65d2b6c8f2eece985d8e374c,65d2b837b83178b7b14aecba,0.0471,0.0472,0,94,94,90,1,sixfive,,,,,,,,,,,,,,,,,,,,,,,,,,,,,,,,,,,,,,,,,,,,,,,,,,,,,,,,,,,,,,,,,,,,,,,,,,,,,,,,,,,,,,,,,,,,,,,,,,,,,,,,,,,,,,,,,,,,,,,,,,,,,,,,,,,,,,,,,
,,616b06e97addc4a9a638909e,2024-02-18_20h10.27.967,kallum_motion_pilot,2023.2.2,Win32,59.88023952,616b06e97addc4a9a638909e,65d2b6c8f2eece985d8e374c,65d2b837b83178b7b14aecba,0.0473,0.0473,0,95,95,38,1,fourtwo,,,,,,,,,,,,,,,,,,,,,,,,,,,,,,,,,,,,,,,,,,,,,,,,,,,,,,,,,,,,,,,,,,,,,,,,,,,,,,,,,,,,,,,,,,,,,,,,,,,,,,,,,,,,,,,,,,,,,,,,,,,,,,,,,,,,,,,,,
,,616b06e97addc4a9a638909e,2024-02-18_20h10.27.967,kallum_motion_pilot,2023.2.2,Win32,59.88023952,616b06e97addc4a9a638909e,65d2b6c8f2eece985d8e374c,65d2b837b83178b7b14aecba,0.0474,0.0475,0,96,96,92,1,sevenfive,,,,,,,,,,,,,,,,,,,,,,,,,,,,,,,,,,,,,,,,,,,,,,,,,,,,,,,,,,,,,,,,,,,,,,,,,,,,,,,,,,,,,,,,,,,,,,,,,,,,,,,,,,,,,,,,,,,,,,,,,,,,,,,,,,,,,,,,,
,,616b06e97addc4a9a638909e,2024-02-18_20h10.27.967,kallum_motion_pilot,2023.2.2,Win32,59.88023952,616b06e97addc4a9a638909e,65d2b6c8f2eece985d8e374c,65d2b837b83178b7b14aecba,0.0475,0.0476,0,97,97,151,1,eightseven,,,,,,,,,,,,,,,,,,,,,,,,,,,,,,,,,,,,,,,,,,,,,,,,,,,,,,,,,,,,,,,,,,,,,,,,,,,,,,,,,,,,,,,,,,,,,,,,,,,,,,,,,,,,,,,,,,,,,,,,,,,,,,,,,,,,,,,,,
,,616b06e97addc4a9a638909e,2024-02-18_20h10.27.967,kallum_motion_pilot,2023.2.2,Win32,59.88023952,616b06e97addc4a9a638909e,65d2b6c8f2eece985d8e374c,65d2b837b83178b7b14aecba,0.0478,0.0478,0,98,98,45,1,threefour,,,,,,,,,,,,,,,,,,,,,,,,,,,,,,,,,,,,,,,,,,,,,,,,,,,,,,,,,,,,,,,,,,,,,,,,,,,,,,,,,,,,,,,,,,,,,,,,,,,,,,,,,,,,,,,,,,,,,,,,,,,,,,,,,,,,,,,,,
,,616b06e97addc4a9a638909e,2024-02-18_20h10.27.967,kallum_motion_pilot,2023.2.2,Win32,59.88023952,616b06e97addc4a9a638909e,65d2b6c8f2eece985d8e374c,65d2b837b83178b7b14aecba,0.0479,0.0479,0,99,99,13,1,threefour,,,,,,,,,,,,,,,,,,,,,,,,,,,,,,,,,,,,,,,,,,,,,,,,,,,,,,,,,,,,,,,,,,,,,,,,,,,,,,,,,,,,,,,,,,,,,,,,,,,,,,,,,,,,,,,,,,,,,,,,,,,,,,,,,,,,,,,,,
,,616b06e97addc4a9a638909e,2024-02-18_20h10.27.967,kallum_motion_pilot,2023.2.2,Win32,59.88023952,616b06e97addc4a9a638909e,65d2b6c8f2eece985d8e374c,65d2b837b83178b7b14aecba,0.0481,0.0481,0,100,100,97,1,fiveseven,,,,,,,,,,,,,,,,,,,,,,,,,,,,,,,,,,,,,,,,,,,,,,,,,,,,,,,,,,,,,,,,,,,,,,,,,,,,,,,,,,,,,,,,,,,,,,,,,,,,,,,,,,,,,,,,,,,,,,,,,,,,,,,,,,,,,,,,,
,,616b06e97addc4a9a638909e,2024-02-18_20h10.27.967,kallum_motion_pilot,2023.2.2,Win32,59.88023952,616b06e97addc4a9a638909e,65d2b6c8f2eece985d8e374c,65d2b837b83178b7b14aecba,0.0482,0.0483,0,101,101,125,1,seveneight,,,,,,,,,,,,,,,,,,,,,,,,,,,,,,,,,,,,,,,,,,,,,,,,,,,,,,,,,,,,,,,,,,,,,,,,,,,,,,,,,,,,,,,,,,,,,,,,,,,,,,,,,,,,,,,,,,,,,,,,,,,,,,,,,,,,,,,,,
,,616b06e97addc4a9a638909e,2024-02-18_20h10.27.967,kallum_motion_pilot,2023.2.2,Win32,59.88023952,616b06e97addc4a9a638909e,65d2b6c8f2eece985d8e374c,65d2b837b83178b7b14aecba,0.0484,0.0485,0,102,102,1,1,onethree,,,,,,,,,,,,,,,,,,,,,,,,,,,,,,,,,,,,,,,,,,,,,,,,,,,,,,,,,,,,,,,,,,,,,,,,,,,,,,,,,,,,,,,,,,,,,,,,,,,,,,,,,,,,,,,,,,,,,,,,,,,,,,,,,,,,,,,,,
,,616b06e97addc4a9a638909e,2024-02-18_20h10.27.967,kallum_motion_pilot,2023.2.2,Win32,59.88023952,616b06e97addc4a9a638909e,65d2b6c8f2eece985d8e374c,65d2b837b83178b7b14aecba,0.0486,0.0486,0,103,103,23,1,fourthree,,,,,,,,,,,,,,,,,,,,,,,,,,,,,,,,,,,,,,,,,,,,,,,,,,,,,,,,,,,,,,,,,,,,,,,,,,,,,,,,,,,,,,,,,,,,,,,,,,,,,,,,,,,,,,,,,,,,,,,,,,,,,,,,,,,,,,,,,
,,616b06e97addc4a9a638909e,2024-02-18_20h10.27.967,kallum_motion_pilot,2023.2.2,Win32,59.88023952,616b06e97addc4a9a638909e,65d2b6c8f2eece985d8e374c,65d2b837b83178b7b14aecba,0.0488,0.0488,0,104,104,124,1,sevenfive,,,,,,,,,,,,,,,,,,,,,,,,,,,,,,,,,,,,,,,,,,,,,,,,,,,,,,,,,,,,,,,,,,,,,,,,,,,,,,,,,,,,,,,,,,,,,,,,,,,,,,,,,,,,,,,,,,,,,,,,,,,,,,,,,,,,,,,,,
,,616b06e97addc4a9a638909e,2024-02-18_20h10.27.967,kallum_motion_pilot,2023.2.2,Win32,59.88023952,616b06e97addc4a9a638909e,65d2b6c8f2eece985d8e374c,65d2b837b83178b7b14aecba,0.0489,0.049,0,105,105,148,1,sevenfive,,,,,,,,,,,,,,,,,,,,,,,,,,,,,,,,,,,,,,,,,,,,,,,,,,,,,,,,,,,,,,,,,,,,,,,,,,,,,,,,,,,,,,,,,,,,,,,,,,,,,,,,,,,,,,,,,,,,,,,,,,,,,,,,,,,,,,,,,
,,616b06e97addc4a9a638909e,2024-02-18_20h10.27.967,kallum_motion_pilot,2023.2.2,Win32,59.88023952,616b06e97addc4a9a638909e,65d2b6c8f2eece985d8e374c,65d2b837b83178b7b14aecba,0.0491,0.0492,0,106,106,49,1,onethree,,,,,,,,,,,,,,,,,,,,,,,,,,,,,,,,,,,,,,,,,,,,,,,,,,,,,,,,,,,,,,,,,,,,,,,,,,,,,,,,,,,,,,,,,,,,,,,,,,,,,,,,,,,,,,,,,,,,,,,,,,,,,,,,,,,,,,,,,
,,616b06e97addc4a9a638909e,2024-02-18_20h10.27.967,kallum_motion_pilot,2023.2.2,Win32,59.88023952,616b06e97addc4a9a638909e,65d2b6c8f2eece985d8e374c,65d2b837b83178b7b14aecba,0.0493,0.0494,0,107,107,159,1,eightseven,,,,,,,,,,,,,,,,,,,,,,,,,,,,,,,,,,,,,,,,,,,,,,,,,,,,,,,,,,,,,,,,,,,,,,,,,,,,,,,,,,,,,,,,,,,,,,,,,,,,,,,,,,,,,,,,,,,,,,,,,,,,,,,,,,,,,,,,,
,,616b06e97addc4a9a638909e,2024-02-18_20h10.27.967,kallum_motion_pilot,2023.2.2,Win32,59.88023952,616b06e97addc4a9a638909e,65d2b6c8f2eece985d8e374c,65d2b837b83178b7b14aecba,0.0495,0.0496,0,108,108,25,1,onethree,,,,,,,,,,,,,,,,,,,,,,,,,,,,,,,,,,,,,,,,,,,,,,,,,,,,,,,,,,,,,,,,,,,,,,,,,,,,,,,,,,,,,,,,,,,,,,,,,,,,,,,,,,,,,,,,,,,,,,,,,,,,,,,,,,,,,,,,,
,,616b06e97addc4a9a638909e,2024-02-18_20h10.27.967,kallum_motion_pilot,2023.2.2,Win32,59.88023952,616b06e97addc4a9a638909e,65d2b6c8f2eece985d8e374c,65d2b837b83178b7b14aecba,0.0496,0.0497,0,109,109,53,1,threefour,,,,,,,,,,,,,,,,,,,,,,,,,,,,,,,,,,,,,,,,,,,,,,,,,,,,,,,,,,,,,,,,,,,,,,,,,,,,,,,,,,,,,,,,,,,,,,,,,,,,,,,,,,,,,,,,,,,,,,,,,,,,,,,,,,,,,,,,,
,,616b06e97addc4a9a638909e,2024-02-18_20h10.27.967,kallum_motion_pilot,2023.2.2,Win32,59.88023952,616b06e97addc4a9a638909e,65d2b6c8f2eece985d8e374c,65d2b837b83178b7b14aecba,0.0498,0.0499,0,110,110,152,1,fivesix,,,,,,,,,,,,,,,,,,,,,,,,,,,,,,,,,,,,,,,,,,,,,,,,,,,,,,,,,,,,,,,,,,,,,,,,,,,,,,,,,,,,,,,,,,,,,,,,,,,,,,,,,,,,,,,,,,,,,,,,,,,,,,,,,,,,,,,,,
,,616b06e97addc4a9a638909e,2024-02-18_20h10.27.967,kallum_motion_pilot,2023.2.2,Win32,59.88023952,616b06e97addc4a9a638909e,65d2b6c8f2eece985d8e374c,65d2b837b83178b7b14aecba,0.05,0.0501,0,111,111,43,1,twofour,,,,,,,,,,,,,,,,,,,,,,,,,,,,,,,,,,,,,,,,,,,,,,,,,,,,,,,,,,,,,,,,,,,,,,,,,,,,,,,,,,,,,,,,,,,,,,,,,,,,,,,,,,,,,,,,,,,,,,,,,,,,,,,,,,,,,,,,,
,,616b06e97addc4a9a638909e,2024-02-18_20h10.27.967,kallum_motion_pilot,2023.2.2,Win32,59.88023952,616b06e97addc4a9a638909e,65d2b6c8f2eece985d8e374c,65d2b837b83178b7b14aecba,0.0503,0.0503,0,112,112,153,1,fiveseven,,,,,,,,,,,,,,,,,,,,,,,,,,,,,,,,,,,,,,,,,,,,,,,,,,,,,,,,,,,,,,,,,,,,,,,,,,,,,,,,,,,,,,,,,,,,,,,,,,,,,,,,,,,,,,,,,,,,,,,,,,,,,,,,,,,,,,,,,
,,616b06e97addc4a9a638909e,2024-02-18_20h10.27.967,kallum_motion_pilot,2023.2.2,Win32,59.88023952,616b06e97addc4a9a638909e,65d2b6c8f2eece985d8e374c,65d2b837b83178b7b14aecba,0.0504,0.0505,0,113,113,41,1,onethree,,,,,,,,,,,,,,,,,,,,,,,,,,,,,,,,,,,,,,,,,,,,,,,,,,,,,,,,,,,,,,,,,,,,,,,,,,,,,,,,,,,,,,,,,,,,,,,,,,,,,,,,,,,,,,,,,,,,,,,,,,,,,,,,,,,,,,,,,
,,616b06e97addc4a9a638909e,2024-02-18_20h10.27.967,kallum_motion_pilot,2023.2.2,Win32,59.88023952,616b06e97addc4a9a638909e,65d2b6c8f2eece985d8e374c,65d2b837b83178b7b14aecba,0.0505,0.0506,0,114,114,29,1,threefour,,,,,,,,,,,,,,,,,,,,,,,,,,,,,,,,,,,,,,,,,,,,,,,,,,,,,,,,,,,,,,,,,,,,,,,,,,,,,,,,,,,,,,,,,,,,,,,,,,,,,,,,,,,,,,,,,,,,,,,,,,,,,,,,,,,,,,,,,
,,616b06e97addc4a9a638909e,2024-02-18_20h10.27.967,kallum_motion_pilot,2023.2.2,Win32,59.88023952,616b06e97addc4a9a638909e,65d2b6c8f2eece985d8e374c,65d2b837b83178b7b14aecba,0.0508,0.0508,0,115,115,54,1,fourtwo,,,,,,,,,,,,,,,,,,,,,,,,,,,,,,,,,,,,,,,,,,,,,,,,,,,,,,,,,,,,,,,,,,,,,,,,,,,,,,,,,,,,,,,,,,,,,,,,,,,,,,,,,,,,,,,,,,,,,,,,,,,,,,,,,,,,,,,,,
,,616b06e97addc4a9a638909e,2024-02-18_20h10.27.967,kallum_motion_pilot,2023.2.2,Win32,59.88023952,616b06e97addc4a9a638909e,65d2b6c8f2eece985d8e374c,65d2b837b83178b7b14aecba,0.0509,0.0509,0,116,116,102,1,eightsix,,,,,,,,,,,,,,,,,,,,,,,,,,,,,,,,,,,,,,,,,,,,,,,,,,,,,,,,,,,,,,,,,,,,,,,,,,,,,,,,,,,,,,,,,,,,,,,,,,,,,,,,,,,,,,,,,,,,,,,,,,,,,,,,,,,,,,,,,
,,616b06e97addc4a9a638909e,2024-02-18_20h10.27.967,kallum_motion_pilot,2023.2.2,Win32,59.88023952,616b06e97addc4a9a638909e,65d2b6c8f2eece985d8e374c,65d2b837b83178b7b14aecba,0.051,0.0511,0,117,117,109,1,seveneight,,,,,,,,,,,,,,,,,,,,,,,,,,,,,,,,,,,,,,,,,,,,,,,,,,,,,,,,,,,,,,,,,,,,,,,,,,,,,,,,,,,,,,,,,,,,,,,,,,,,,,,,,,,,,,,,,,,,,,,,,,,,,,,,,,,,,,,,,
,,616b06e97addc4a9a638909e,2024-02-18_20h10.27.967,kallum_motion_pilot,2023.2.2,Win32,59.88023952,616b06e97addc4a9a638909e,65d2b6c8f2eece985d8e374c,65d2b837b83178b7b14aecba,0.0512,0.0512,0,118,118,120,1,fivesix,,,,,,,,,,,,,,,,,,,,,,,,,,,,,,,,,,,,,,,,,,,,,,,,,,,,,,,,,,,,,,,,,,,,,,,,,,,,,,,,,,,,,,,,,,,,,,,,,,,,,,,,,,,,,,,,,,,,,,,,,,,,,,,,,,,,,,,,,
,,616b06e97addc4a9a638909e,2024-02-18_20h10.27.967,kallum_motion_pilot,2023.2.2,Win32,59.88023952,616b06e97addc4a9a638909e,65d2b6c8f2eece985d8e374c,65d2b837b83178b7b14aecba,0.0513,0.0514,0,119,119,30,1,fourtwo,,,,,,,,,,,,,,,,,,,,,,,,,,,,,,,,,,,,,,,,,,,,,,,,,,,,,,,,,,,,,,,,,,,,,,,,,,,,,,,,,,,,,,,,,,,,,,,,,,,,,,,,,,,,,,,,,,,,,,,,,,,,,,,,,,,,,,,,,
,,616b06e97addc4a9a638909e,2024-02-18_20h10.27.967,kallum_motion_pilot,2023.2.2,Win32,59.88023952,616b06e97addc4a9a638909e,65d2b6c8f2eece985d8e374c,65d2b837b83178b7b14aecba,0.0516,0.0516,0,120,120,82,1,sixfive,,,,,,,,,,,,,,,,,,,,,,,,,,,,,,,,,,,,,,,,,,,,,,,,,,,,,,,,,,,,,,,,,,,,,,,,,,,,,,,,,,,,,,,,,,,,,,,,,,,,,,,,,,,,,,,,,,,,,,,,,,,,,,,,,,,,,,,,,
,,616b06e97addc4a9a638909e,2024-02-18_20h10.27.967,kallum_motion_pilot,2023.2.2,Win32,59.88023952,616b06e97addc4a9a638909e,65d2b6c8f2eece985d8e374c,65d2b837b83178b7b14aecba,0.0517,0.0518,0,121,121,77,1,threefour,,,,,,,,,,,,,,,,,,,,,,,,,,,,,,,,,,,,,,,,,,,,,,,,,,,,,,,,,,,,,,,,,,,,,,,,,,,,,,,,,,,,,,,,,,,,,,,,,,,,,,,,,,,,,,,,,,,,,,,,,,,,,,,,,,,,,,,,,
,,616b06e97addc4a9a638909e,2024-02-18_20h10.27.967,kallum_motion_pilot,2023.2.2,Win32,59.88023952,616b06e97addc4a9a638909e,65d2b6c8f2eece985d8e374c,65d2b837b83178b7b14aecba,0.0518,0.052,0,122,122,114,1,sixfive,,,,,,,,,,,,,,,,,,,,,,,,,,,,,,,,,,,,,,,,,,,,,,,,,,,,,,,,,,,,,,,,,,,,,,,,,,,,,,,,,,,,,,,,,,,,,,,,,,,,,,,,,,,,,,,,,,,,,,,,,,,,,,,,,,,,,,,,,
,,616b06e97addc4a9a638909e,2024-02-18_20h10.27.967,kallum_motion_pilot,2023.2.2,Win32,59.88023952,616b06e97addc4a9a638909e,65d2b6c8f2eece985d8e374c,65d2b837b83178b7b14aecba,0.0521,0.0521,0,123,123,137,1,fiveseven,,,,,,,,,,,,,,,,,,,,,,,,,,,,,,,,,,,,,,,,,,,,,,,,,,,,,,,,,,,,,,,,,,,,,,,,,,,,,,,,,,,,,,,,,,,,,,,,,,,,,,,,,,,,,,,,,,,,,,,,,,,,,,,,,,,,,,,,,
,,616b06e97addc4a9a638909e,2024-02-18_20h10.27.967,kallum_motion_pilot,2023.2.2,Win32,59.88023952,616b06e97addc4a9a638909e,65d2b6c8f2eece985d8e374c,65d2b837b83178b7b14aecba,0.0522,0.0523,0,124,124,64,1,onetwo,,,,,,,,,,,,,,,,,,,,,,,,,,,,,,,,,,,,,,,,,,,,,,,,,,,,,,,,,,,,,,,,,,,,,,,,,,,,,,,,,,,,,,,,,,,,,,,,,,,,,,,,,,,,,,,,,,,,,,,,,,,,,,,,,,,,,,,,,
,,616b06e97addc4a9a638909e,2024-02-18_20h10.27.967,kallum_motion_pilot,2023.2.2,Win32,59.88023952,616b06e97addc4a9a638909e,65d2b6c8f2eece985d8e374c,65d2b837b83178b7b14aecba,0.0524,0.0525,0,125,125,35,1,twofour,,,,,,,,,,,,,,,,,,,,,,,,,,,,,,,,,,,,,,,,,,,,,,,,,,,,,,,,,,,,,,,,,,,,,,,,,,,,,,,,,,,,,,,,,,,,,,,,,,,,,,,,,,,,,,,,,,,,,,,,,,,,,,,,,,,,,,,,,
,,616b06e97addc4a9a638909e,2024-02-18_20h10.27.967,kallum_motion_pilot,2023.2.2,Win32,59.88023952,616b06e97addc4a9a638909e,65d2b6c8f2eece985d8e374c,65d2b837b83178b7b14aecba,0.0526,0.0526,0,126,126,116,1,sevenfive,,,,,,,,,,,,,,,,,,,,,,,,,,,,,,,,,,,,,,,,,,,,,,,,,,,,,,,,,,,,,,,,,,,,,,,,,,,,,,,,,,,,,,,,,,,,,,,,,,,,,,,,,,,,,,,,,,,,,,,,,,,,,,,,,,,,,,,,,
,,616b06e97addc4a9a638909e,2024-02-18_20h10.27.967,kallum_motion_pilot,2023.2.2,Win32,59.88023952,616b06e97addc4a9a638909e,65d2b6c8f2eece985d8e374c,65d2b837b83178b7b14aecba,0.0528,0.0528,0,127,127,117,1,seveneight,,,,,,,,,,,,,,,,,,,,,,,,,,,,,,,,,,,,,,,,,,,,,,,,,,,,,,,,,,,,,,,,,,,,,,,,,,,,,,,,,,,,,,,,,,,,,,,,,,,,,,,,,,,,,,,,,,,,,,,,,,,,,,,,,,,,,,,,,
,,616b06e97addc4a9a638909e,2024-02-18_20h10.27.967,kallum_motion_pilot,2023.2.2,Win32,59.88023952,616b06e97addc4a9a638909e,65d2b6c8f2eece985d8e374c,65d2b837b83178b7b14aecba,0.053,0.053,0,128,128,118,1,eightsix,,,,,,,,,,,,,,,,,,,,,,,,,,,,,,,,,,,,,,,,,,,,,,,,,,,,,,,,,,,,,,,,,,,,,,,,,,,,,,,,,,,,,,,,,,,,,,,,,,,,,,,,,,,,,,,,,,,,,,,,,,,,,,,,,,,,,,,,,
,,616b06e97addc4a9a638909e,2024-02-18_20h10.27.967,kallum_motion_pilot,2023.2.2,Win32,59.88023952,616b06e97addc4a9a638909e,65d2b6c8f2eece985d8e374c,65d2b837b83178b7b14aecba,0.0531,0.0533,0,129,129,69,1,threefour,,,,,,,,,,,,,,,,,,,,,,,,,,,,,,,,,,,,,,,,,,,,,,,,,,,,,,,,,,,,,,,,,,,,,,,,,,,,,,,,,,,,,,,,,,,,,,,,,,,,,,,,,,,,,,,,,,,,,,,,,,,,,,,,,,,,,,,,,
,,616b06e97addc4a9a638909e,2024-02-18_20h10.27.967,kallum_motion_pilot,2023.2.2,Win32,59.88023952,616b06e97addc4a9a638909e,65d2b6c8f2eece985d8e374c,65d2b837b83178b7b14aecba,0.0534,0.0534,0,130,130,138,1,sixfive,,,,,,,,,,,,,,,,,,,,,,,,,,,,,,,,,,,,,,,,,,,,,,,,,,,,,,,,,,,,,,,,,,,,,,,,,,,,,,,,,,,,,,,,,,,,,,,,,,,,,,,,,,,,,,,,,,,,,,,,,,,,,,,,,,,,,,,,,
,,616b06e97addc4a9a638909e,2024-02-18_20h10.27.967,kallum_motion_pilot,2023.2.2,Win32,59.88023952,616b06e97addc4a9a638909e,65d2b6c8f2eece985d8e374c,65d2b837b83178b7b14aecba,0.0535,0.0536,0,131,131,155,1,sixeight,,,,,,,,,,,,,,,,,,,,,,,,,,,,,,,,,,,,,,,,,,,,,,,,,,,,,,,,,,,,,,,,,,,,,,,,,,,,,,,,,,,,,,,,,,,,,,,,,,,,,,,,,,,,,,,,,,,,,,,,,,,,,,,,,,,,,,,,,
,,616b06e97addc4a9a638909e,2024-02-18_20h10.27.967,kallum_motion_pilot,2023.2.2,Win32,59.88023952,616b06e97addc4a9a638909e,65d2b6c8f2eece985d8e374c,65d2b837b83178b7b14aecba,0.0537,0.0538,0,132,132,104,1,fivesix,,,,,,,,,,,,,,,,,,,,,,,,,,,,,,,,,,,,,,,,,,,,,,,,,,,,,,,,,,,,,,,,,,,,,,,,,,,,,,,,,,,,,,,,,,,,,,,,,,,,,,,,,,,,,,,,,,,,,,,,,,,,,,,,,,,,,,,,,
,,616b06e97addc4a9a638909e,2024-02-18_20h10.27.967,kallum_motion_pilot,2023.2.2,Win32,59.88023952,616b06e97addc4a9a638909e,65d2b6c8f2eece985d8e374c,65d2b837b83178b7b14aecba,0.0539,0.0539,0,133,133,32,1,onetwo,,,,,,,,,,,,,,,,,,,,,,,,,,,,,,,,,,,,,,,,,,,,,,,,,,,,,,,,,,,,,,,,,,,,,,,,,,,,,,,,,,,,,,,,,,,,,,,,,,,,,,,,,,,,,,,,,,,,,,,,,,,,,,,,,,,,,,,,,
,,616b06e97addc4a9a638909e,2024-02-18_20h10.27.967,kallum_motion_pilot,2023.2.2,Win32,59.88023952,616b06e97addc4a9a638909e,65d2b6c8f2eece985d8e374c,65d2b837b83178b7b14aecba,0.0541,0.0541,0,134,134,113,1,fiveseven,,,,,,,,,,,,,,,,,,,,,,,,,,,,,,,,,,,,,,,,,,,,,,,,,,,,,,,,,,,,,,,,,,,,,,,,,,,,,,,,,,,,,,,,,,,,,,,,,,,,,,,,,,,,,,,,,,,,,,,,,,,,,,,,,,,,,,,,,
,,616b06e97addc4a9a638909e,2024-02-18_20h10.27.967,kallum_motion_pilot,2023.2.2,Win32,59.88023952,616b06e97addc4a9a638909e,65d2b6c8f2eece985d8e374c,65d2b837b83178b7b14aecba,0.0542,0.0542,0,135,135,42,1,twoone,,,,,,,,,,,,,,,,,,,,,,,,,,,,,,,,,,,,,,,,,,,,,,,,,,,,,,,,,,,,,,,,,,,,,,,,,,,,,,,,,,,,,,,,,,,,,,,,,,,,,,,,,,,,,,,,,,,,,,,,,,,,,,,,,,,,,,,,,
,,616b06e97addc4a9a638909e,2024-02-18_20h10.27.967,kallum_motion_pilot,2023.2.2,Win32,59.88023952,616b06e97addc4a9a638909e,65d2b6c8f2eece985d8e374c,65d2b837b83178b7b14aecba,0.0544,0.0546,0,136,136,59,1,twofour,,,,,,,,,,,,,,,,,,,,,,,,,,,,,,,,,,,,,,,,,,,,,,,,,,,,,,,,,,,,,,,,,,,,,,,,,,,,,,,,,,,,,,,,,,,,,,,,,,,,,,,,,,,,,,,,,,,,,,,,,,,,,,,,,,,,,,,,,
,,616b06e97addc4a9a638909e,2024-02-18_20h10.27.967,kallum_motion_pilot,2023.2.2,Win32,59.88023952,616b06e97addc4a9a638909e,65d2b6c8f2eece985d8e374c,65d2b837b83178b7b14aecba,0.0547,0.055,0,137,137,130,1,sixfive,,,,,,,,,,,,,,,,,,,,,,,,,,,,,,,,,,,,,,,,,,,,,,,,,,,,,,,,,,,,,,,,,,,,,,,,,,,,,,,,,,,,,,,,,,,,,,,,,,,,,,,,,,,,,,,,,,,,,,,,,,,,,,,,,,,,,,,,,
,,616b06e97addc4a9a638909e,2024-02-18_20h10.27.967,kallum_motion_pilot,2023.2.2,Win32,59.88023952,616b06e97addc4a9a638909e,65d2b6c8f2eece985d8e374c,65d2b837b83178b7b14aecba,0.0555,0.0555,0,138,138,57,1,onethree,,,,,,,,,,,,,,,,,,,,,,,,,,,,,,,,,,,,,,,,,,,,,,,,,,,,,,,,,,,,,,,,,,,,,,,,,,,,,,,,,,,,,,,,,,,,,,,,,,,,,,,,,,,,,,,,,,,,,,,,,,,,,,,,,,,,,,,,,
,,616b06e97addc4a9a638909e,2024-02-18_20h10.27.967,kallum_motion_pilot,2023.2.2,Win32,59.88023952,616b06e97addc4a9a638909e,65d2b6c8f2eece985d8e374c,65d2b837b83178b7b14aecba,0.0558,0.0559,0,139,139,15,1,fourthree,,,,,,,,,,,,,,,,,,,,,,,,,,,,,,,,,,,,,,,,,,,,,,,,,,,,,,,,,,,,,,,,,,,,,,,,,,,,,,,,,,,,,,,,,,,,,,,,,,,,,,,,,,,,,,,,,,,,,,,,,,,,,,,,,,,,,,,,,
,,616b06e97addc4a9a638909e,2024-02-18_20h10.27.967,kallum_motion_pilot,2023.2.2,Win32,59.88023952,616b06e97addc4a9a638909e,65d2b6c8f2eece985d8e374c,65d2b837b83178b7b14aecba,0.0562,0.0564,0,140,140,39,1,fourthree,,,,,,,,,,,,,,,,,,,,,,,,,,,,,,,,,,,,,,,,,,,,,,,,,,,,,,,,,,,,,,,,,,,,,,,,,,,,,,,,,,,,,,,,,,,,,,,,,,,,,,,,,,,,,,,,,,,,,,,,,,,,,,,,,,,,,,,,,
,,616b06e97addc4a9a638909e,2024-02-18_20h10.27.967,kallum_motion_pilot,2023.2.2,Win32,59.88023952,616b06e97addc4a9a638909e,65d2b6c8f2eece985d8e374c,65d2b837b83178b7b14aecba,0.0566,0.0567,0,141,141,46,1,fourtwo,,,,,,,,,,,,,,,,,,,,,,,,,,,,,,,,,,,,,,,,,,,,,,,,,,,,,,,,,,,,,,,,,,,,,,,,,,,,,,,,,,,,,,,,,,,,,,,,,,,,,,,,,,,,,,,,,,,,,,,,,,,,,,,,,,,,,,,,,
,,616b06e97addc4a9a638909e,2024-02-18_20h10.27.967,kallum_motion_pilot,2023.2.2,Win32,59.88023952,616b06e97addc4a9a638909e,65d2b6c8f2eece985d8e374c,65d2b837b83178b7b14aecba,0.0569,0.0569,0,142,142,31,1,fourthree,,,,,,,,,,,,,,,,,,,,,,,,,,,,,,,,,,,,,,,,,,,,,,,,,,,,,,,,,,,,,,,,,,,,,,,,,,,,,,,,,,,,,,,,,,,,,,,,,,,,,,,,,,,,,,,,,,,,,,,,,,,,,,,,,,,,,,,,,
,,616b06e97addc4a9a638909e,2024-02-18_20h10.27.967,kallum_motion_pilot,2023.2.2,Win32,59.88023952,616b06e97addc4a9a638909e,65d2b6c8f2eece985d8e374c,65d2b837b83178b7b14aecba,0.0572,0.0572,0,143,143,149,1,seveneight,,,,,,,,,,,,,,,,,,,,,,,,,,,,,,,,,,,,,,,,,,,,,,,,,,,,,,,,,,,,,,,,,,,,,,,,,,,,,,,,,,,,,,,,,,,,,,,,,,,,,,,,,,,,,,,,,,,,,,,,,,,,,,,,,,,,,,,,,
,,616b06e97addc4a9a638909e,2024-02-18_20h10.27.967,kallum_motion_pilot,2023.2.2,Win32,59.88023952,616b06e97addc4a9a638909e,65d2b6c8f2eece985d8e374c,65d2b837b83178b7b14aecba,0.0574,0.0574,0,144,144,147,1,sixeight,,,,,,,,,,,,,,,,,,,,,,,,,,,,,,,,,,,,,,,,,,,,,,,,,,,,,,,,,,,,,,,,,,,,,,,,,,,,,,,,,,,,,,,,,,,,,,,,,,,,,,,,,,,,,,,,,,,,,,,,,,,,,,,,,,,,,,,,,
,,616b06e97addc4a9a638909e,2024-02-18_20h10.27.967,kallum_motion_pilot,2023.2.2,Win32,59.88023952,616b06e97addc4a9a638909e,65d2b6c8f2eece985d8e374c,65d2b837b83178b7b14aecba,0.0575,0.0577,0,145,145,84,1,sevenfive,,,,,,,,,,,,,,,,,,,,,,,,,,,,,,,,,,,,,,,,,,,,,,,,,,,,,,,,,,,,,,,,,,,,,,,,,,,,,,,,,,,,,,,,,,,,,,,,,,,,,,,,,,,,,,,,,,,,,,,,,,,,,,,,,,,,,,,,,
,,616b06e97addc4a9a638909e,2024-02-18_20h10.27.967,kallum_motion_pilot,2023.2.2,Win32,59.88023952,616b06e97addc4a9a638909e,65d2b6c8f2eece985d8e374c,65d2b837b83178b7b14aecba,0.0577,0.0578,0,146,146,17,1,onethree,,,,,,,,,,,,,,,,,,,,,,,,,,,,,,,,,,,,,,,,,,,,,,,,,,,,,,,,,,,,,,,,,,,,,,,,,,,,,,,,,,,,,,,,,,,,,,,,,,,,,,,,,,,,,,,,,,,,,,,,,,,,,,,,,,,,,,,,,
,,616b06e97addc4a9a638909e,2024-02-18_20h10.27.967,kallum_motion_pilot,2023.2.2,Win32,59.88023952,616b06e97addc4a9a638909e,65d2b6c8f2eece985d8e374c,65d2b837b83178b7b14aecba,0.058,0.058,0,147,147,144,1,fivesix,,,,,,,,,,,,,,,,,,,,,,,,,,,,,,,,,,,,,,,,,,,,,,,,,,,,,,,,,,,,,,,,,,,,,,,,,,,,,,,,,,,,,,,,,,,,,,,,,,,,,,,,,,,,,,,,,,,,,,,,,,,,,,,,,,,,,,,,,
,,616b06e97addc4a9a638909e,2024-02-18_20h10.27.967,kallum_motion_pilot,2023.2.2,Win32,59.88023952,616b06e97addc4a9a638909e,65d2b6c8f2eece985d8e374c,65d2b837b83178b7b14aecba,0.0582,0.0583,0,148,148,5,1,threefour,,,,,,,,,,,,,,,,,,,,,,,,,,,,,,,,,,,,,,,,,,,,,,,,,,,,,,,,,,,,,,,,,,,,,,,,,,,,,,,,,,,,,,,,,,,,,,,,,,,,,,,,,,,,,,,,,,,,,,,,,,,,,,,,,,,,,,,,,
,,616b06e97addc4a9a638909e,2024-02-18_20h10.27.967,kallum_motion_pilot,2023.2.2,Win32,59.88023952,616b06e97addc4a9a638909e,65d2b6c8f2eece985d8e374c,65d2b837b83178b7b14aecba,0.0584,0.0585,0,149,149,4,1,threeone,,,,,,,,,,,,,,,,,,,,,,,,,,,,,,,,,,,,,,,,,,,,,,,,,,,,,,,,,,,,,,,,,,,,,,,,,,,,,,,,,,,,,,,,,,,,,,,,,,,,,,,,,,,,,,,,,,,,,,,,,,,,,,,,,,,,,,,,,
,,616b06e97addc4a9a638909e,2024-02-18_20h10.27.967,kallum_motion_pilot,2023.2.2,Win32,59.88023952,616b06e97addc4a9a638909e,65d2b6c8f2eece985d8e374c,65d2b837b83178b7b14aecba,0.0586,0.0587,0,150,150,67,1,twofour,,,,,,,,,,,,,,,,,,,,,,,,,,,,,,,,,,,,,,,,,,,,,,,,,,,,,,,,,,,,,,,,,,,,,,,,,,,,,,,,,,,,,,,,,,,,,,,,,,,,,,,,,,,,,,,,,,,,,,,,,,,,,,,,,,,,,,,,,
,,616b06e97addc4a9a638909e,2024-02-18_20h10.27.967,kallum_motion_pilot,2023.2.2,Win32,59.88023952,616b06e97addc4a9a638909e,65d2b6c8f2eece985d8e374c,65d2b837b83178b7b14aecba,0.0588,0.0589,0,151,151,66,1,twoone,,,,,,,,,,,,,,,,,,,,,,,,,,,,,,,,,,,,,,,,,,,,,,,,,,,,,,,,,,,,,,,,,,,,,,,,,,,,,,,,,,,,,,,,,,,,,,,,,,,,,,,,,,,,,,,,,,,,,,,,,,,,,,,,,,,,,,,,,
,,616b06e97addc4a9a638909e,2024-02-18_20h10.27.967,kallum_motion_pilot,2023.2.2,Win32,59.88023952,616b06e97addc4a9a638909e,65d2b6c8f2eece985d8e374c,65d2b837b83178b7b14aecba,0.0591,0.0591,0,152,152,83,1,sixeight,,,,,,,,,,,,,,,,,,,,,,,,,,,,,,,,,,,,,,,,,,,,,,,,,,,,,,,,,,,,,,,,,,,,,,,,,,,,,,,,,,,,,,,,,,,,,,,,,,,,,,,,,,,,,,,,,,,,,,,,,,,,,,,,,,,,,,,,,
,,616b06e97addc4a9a638909e,2024-02-18_20h10.27.967,kallum_motion_pilot,2023.2.2,Win32,59.88023952,616b06e97addc4a9a638909e,65d2b6c8f2eece985d8e374c,65d2b837b83178b7b14aecba,0.0592,0.0593,0,153,153,20,1,threeone,,,,,,,,,,,,,,,,,,,,,,,,,,,,,,,,,,,,,,,,,,,,,,,,,,,,,,,,,,,,,,,,,,,,,,,,,,,,,,,,,,,,,,,,,,,,,,,,,,,,,,,,,,,,,,,,,,,,,,,,,,,,,,,,,,,,,,,,,
,,616b06e97addc4a9a638909e,2024-02-18_20h10.27.967,kallum_motion_pilot,2023.2.2,Win32,59.88023952,616b06e97addc4a9a638909e,65d2b6c8f2eece985d8e374c,65d2b837b83178b7b14aecba,0.0594,0.0594,0,154,154,18,1,twoone,,,,,,,,,,,,,,,,,,,,,,,,,,,,,,,,,,,,,,,,,,,,,,,,,,,,,,,,,,,,,,,,,,,,,,,,,,,,,,,,,,,,,,,,,,,,,,,,,,,,,,,,,,,,,,,,,,,,,,,,,,,,,,,,,,,,,,,,,
,,616b06e97addc4a9a638909e,2024-02-18_20h10.27.967,kallum_motion_pilot,2023.2.2,Win32,59.88023952,616b06e97addc4a9a638909e,65d2b6c8f2eece985d8e374c,65d2b837b83178b7b14aecba,0.0596,0.0596,0,155,155,123,1,sixeight,,,,,,,,,,,,,,,,,,,,,,,,,,,,,,,,,,,,,,,,,,,,,,,,,,,,,,,,,,,,,,,,,,,,,,,,,,,,,,,,,,,,,,,,,,,,,,,,,,,,,,,,,,,,,,,,,,,,,,,,,,,,,,,,,,,,,,,,,
,,616b06e97addc4a9a638909e,2024-02-18_20h10.27.967,kallum_motion_pilot,2023.2.2,Win32,59.88023952,616b06e97addc4a9a638909e,65d2b6c8f2eece985d8e374c,65d2b837b83178b7b14aecba,0.0597,0.0598,0,156,156,19,1,twofour,,,,,,,,,,,,,,,,,,,,,,,,,,,,,,,,,,,,,,,,,,,,,,,,,,,,,,,,,,,,,,,,,,,,,,,,,,,,,,,,,,,,,,,,,,,,,,,,,,,,,,,,,,,,,,,,,,,,,,,,,,,,,,,,,,,,,,,,,
,,616b06e97addc4a9a638909e,2024-02-18_20h10.27.967,kallum_motion_pilot,2023.2.2,Win32,59.88023952,616b06e97addc4a9a638909e,65d2b6c8f2eece985d8e374c,65d2b837b83178b7b14aecba,0.0599,0.06,0,157,157,22,1,fourtwo,,,,,,,,,,,,,,,,,,,,,,,,,,,,,,,,,,,,,,,,,,,,,,,,,,,,,,,,,,,,,,,,,,,,,,,,,,,,,,,,,,,,,,,,,,,,,,,,,,,,,,,,,,,,,,,,,,,,,,,,,,,,,,,,,,,,,,,,,
,,616b06e97addc4a9a638909e,2024-02-18_20h10.27.967,kallum_motion_pilot,2023.2.2,Win32,59.88023952,616b06e97addc4a9a638909e,65d2b6c8f2eece985d8e374c,65d2b837b83178b7b14aecba,0.0601,0.0601,0,158,158,75,1,twofour,,,,,,,,,,,,,,,,,,,,,,,,,,,,,,,,,,,,,,,,,,,,,,,,,,,,,,,,,,,,,,,,,,,,,,,,,,,,,,,,,,,,,,,,,,,,,,,,,,,,,,,,,,,,,,,,,,,,,,,,,,,,,,,,,,,,,,,,,
,,616b06e97addc4a9a638909e,2024-02-18_20h10.27.967,kallum_motion_pilot,2023.2.2,Win32,59.88023952,616b06e97addc4a9a638909e,65d2b6c8f2eece985d8e374c,65d2b837b83178b7b14aecba,0.0602,0.0603,0,159,159,91,1,sixeight,,,,,,,,,,,,,,,,,,,,,,,,,,,,,,,,,,,,,,,,,,,,,,,,,,,,,,,,,,,,,,,,,,,,,,,,,,,,,,,,,,,,,,,,,,,,,,,,,,,,,,,,,,,,,,,,,,,,,,,,,,,,,,,,,,,,,,,,,
,,616b06e97addc4a9a638909e,2024-02-18_20h10.27.967,kallum_motion_pilot,2023.2.2,Win32,59.88023952,616b06e97addc4a9a638909e,65d2b6c8f2eece985d8e374c,65d2b837b83178b7b14aecba,0.0604,0.0605,0,160,160,55,1,fourthree,,,,,,,,,,,,,,,,,,,,,,,,,,,,,,,,,,,,,,,,,,,,,,,,,,,,,,,,,,,,,,,,,,,,,,,,,,,,,,,,,,,,,,,,,,,,,,,,,,,,,,,,,,,,,,,,,,,,,,,,,,,,,,,,,,,,,,,,,
,,616b06e97addc4a9a638909e,2024-02-18_20h10.27.967,kallum_motion_pilot,2023.2.2,Win32,59.88023952,616b06e97addc4a9a638909e,65d2b6c8f2eece985d8e374c,65d2b837b83178b7b14aecba,0.0606,0.0607,0,161,161,143,1,eightseven,,,,,,,,,,,,,,,,,,,,,,,,,,,,,,,,,,,,,,,,,,,,,,,,,,,,,,,,,,,,,,,,,,,,,,,,,,,,,,,,,,,,,,,,,,,,,,,,,,,,,,,,,,,,,,,,,,,,,,,,,,,,,,,,,,,,,,,,,
,,616b06e97addc4a9a638909e,2024-02-18_20h10.27.967,kallum_motion_pilot,2023.2.2,Win32,59.88023952,616b06e97addc4a9a638909e,65d2b6c8f2eece985d8e374c,65d2b837b83178b7b14aecba,0.0608,0.0609,1,0,162,148,1,sevenfive,,,,,,,,,,,,,,,,,,,,,,,,,,,,,,,,,,,,,,,,,,,,,,,,,,,,,,,,,,,,,,,,,,,,,,,,,,,,,,,,,,,,,,,,,,,,,,,,,,,,,,,,,,,,,,,,,,,,,,,,,,,,,,,,,,,,,,,,,
,,616b06e97addc4a9a638909e,2024-02-18_20h10.27.967,kallum_motion_pilot,2023.2.2,Win32,59.88023952,616b06e97addc4a9a638909e,65d2b6c8f2eece985d8e374c,65d2b837b83178b7b14aecba,0.0609,0.0611,1,1,163,66,1,twoone,,,,,,,,,,,,,,,,,,,,,,,,,,,,,,,,,,,,,,,,,,,,,,,,,,,,,,,,,,,,,,,,,,,,,,,,,,,,,,,,,,,,,,,,,,,,,,,,,,,,,,,,,,,,,,,,,,,,,,,,,,,,,,,,,,,,,,,,,
,,616b06e97addc4a9a638909e,2024-02-18_20h10.27.967,kallum_motion_pilot,2023.2.2,Win32,59.88023952,616b06e97addc4a9a638909e,65d2b6c8f2eece985d8e374c,65d2b837b83178b7b14aecba,0.0612,0.0612,1,2,164,106,1,sixfive,,,,,,,,,,,,,,,,,,,,,,,,,,,,,,,,,,,,,,,,,,,,,,,,,,,,,,,,,,,,,,,,,,,,,,,,,,,,,,,,,,,,,,,,,,,,,,,,,,,,,,,,,,,,,,,,,,,,,,,,,,,,,,,,,,,,,,,,,
,,616b06e97addc4a9a638909e,2024-02-18_20h10.27.967,kallum_motion_pilot,2023.2.2,Win32,59.88023952,616b06e97addc4a9a638909e,65d2b6c8f2eece985d8e374c,65d2b837b83178b7b14aecba,0.0615,0.0615,1,3,165,115,1,sixeight,,,,,,,,,,,,,,,,,,,,,,,,,,,,,,,,,,,,,,,,,,,,,,,,,,,,,,,,,,,,,,,,,,,,,,,,,,,,,,,,,,,,,,,,,,,,,,,,,,,,,,,,,,,,,,,,,,,,,,,,,,,,,,,,,,,,,,,,,
,,616b06e97addc4a9a638909e,2024-02-18_20h10.27.967,kallum_motion_pilot,2023.2.2,Win32,59.88023952,616b06e97addc4a9a638909e,65d2b6c8f2eece985d8e374c,65d2b837b83178b7b14aecba,0.0616,0.0617,1,4,166,87,1,eightseven,,,,,,,,,,,,,,,,,,,,,,,,,,,,,,,,,,,,,,,,,,,,,,,,,,,,,,,,,,,,,,,,,,,,,,,,,,,,,,,,,,,,,,,,,,,,,,,,,,,,,,,,,,,,,,,,,,,,,,,,,,,,,,,,,,,,,,,,,
,,616b06e97addc4a9a638909e,2024-02-18_20h10.27.967,kallum_motion_pilot,2023.2.2,Win32,59.88023952,616b06e97addc4a9a638909e,65d2b6c8f2eece985d8e374c,65d2b837b83178b7b14aecba,0.0618,0.0619,1,5,167,8,1,onetwo,,,,,,,,,,,,,,,,,,,,,,,,,,,,,,,,,,,,,,,,,,,,,,,,,,,,,,,,,,,,,,,,,,,,,,,,,,,,,,,,,,,,,,,,,,,,,,,,,,,,,,,,,,,,,,,,,,,,,,,,,,,,,,,,,,,,,,,,,
,,616b06e97addc4a9a638909e,2024-02-18_20h10.27.967,kallum_motion_pilot,2023.2.2,Win32,59.88023952,616b06e97addc4a9a638909e,65d2b6c8f2eece985d8e374c,65d2b837b83178b7b14aecba,0.062,0.0621,1,6,168,43,1,twofour,,,,,,,,,,,,,,,,,,,,,,,,,,,,,,,,,,,,,,,,,,,,,,,,,,,,,,,,,,,,,,,,,,,,,,,,,,,,,,,,,,,,,,,,,,,,,,,,,,,,,,,,,,,,,,,,,,,,,,,,,,,,,,,,,,,,,,,,,
,,616b06e97addc4a9a638909e,2024-02-18_20h10.27.967,kallum_motion_pilot,2023.2.2,Win32,59.88023952,616b06e97addc4a9a638909e,65d2b6c8f2eece985d8e374c,65d2b837b83178b7b14aecba,0.0622,0.0623,1,7,169,153,1,fiveseven,,,,,,,,,,,,,,,,,,,,,,,,,,,,,,,,,,,,,,,,,,,,,,,,,,,,,,,,,,,,,,,,,,,,,,,,,,,,,,,,,,,,,,,,,,,,,,,,,,,,,,,,,,,,,,,,,,,,,,,,,,,,,,,,,,,,,,,,,
,,616b06e97addc4a9a638909e,2024-02-18_20h10.27.967,kallum_motion_pilot,2023.2.2,Win32,59.88023952,616b06e97addc4a9a638909e,65d2b6c8f2eece985d8e374c,65d2b837b83178b7b14aecba,0.0624,0.0624,1,8,170,99,1,sixeight,,,,,,,,,,,,,,,,,,,,,,,,,,,,,,,,,,,,,,,,,,,,,,,,,,,,,,,,,,,,,,,,,,,,,,,,,,,,,,,,,,,,,,,,,,,,,,,,,,,,,,,,,,,,,,,,,,,,,,,,,,,,,,,,,,,,,,,,,
,,616b06e97addc4a9a638909e,2024-02-18_20h10.27.967,kallum_motion_pilot,2023.2.2,Win32,59.88023952,616b06e97addc4a9a638909e,65d2b6c8f2eece985d8e374c,65d2b837b83178b7b14aecba,0.0626,0.0627,1,9,171,69,1,threefour,,,,,,,,,,,,,,,,,,,,,,,,,,,,,,,,,,,,,,,,,,,,,,,,,,,,,,,,,,,,,,,,,,,,,,,,,,,,,,,,,,,,,,,,,,,,,,,,,,,,,,,,,,,,,,,,,,,,,,,,,,,,,,,,,,,,,,,,,
,,616b06e97addc4a9a638909e,2024-02-18_20h10.27.967,kallum_motion_pilot,2023.2.2,Win32,59.88023952,616b06e97addc4a9a638909e,65d2b6c8f2eece985d8e374c,65d2b837b83178b7b14aecba,0.0628,0.0628,1,10,172,88,1,fivesix,,,,,,,,,,,,,,,,,,,,,,,,,,,,,,,,,,,,,,,,,,,,,,,,,,,,,,,,,,,,,,,,,,,,,,,,,,,,,,,,,,,,,,,,,,,,,,,,,,,,,,,,,,,,,,,,,,,,,,,,,,,,,,,,,,,,,,,,,
,,616b06e97addc4a9a638909e,2024-02-18_20h10.27.967,kallum_motion_pilot,2023.2.2,Win32,59.88023952,616b06e97addc4a9a638909e,65d2b6c8f2eece985d8e374c,65d2b837b83178b7b14aecba,0.063,0.063,1,11,173,107,1,sixeight,,,,,,,,,,,,,,,,,,,,,,,,,,,,,,,,,,,,,,,,,,,,,,,,,,,,,,,,,,,,,,,,,,,,,,,,,,,,,,,,,,,,,,,,,,,,,,,,,,,,,,,,,,,,,,,,,,,,,,,,,,,,,,,,,,,,,,,,,
,,616b06e97addc4a9a638909e,2024-02-18_20h10.27.967,kallum_motion_pilot,2023.2.2,Win32,59.88023952,616b06e97addc4a9a638909e,65d2b6c8f2eece985d8e374c,65d2b837b83178b7b14aecba,0.0631,0.0632,1,12,174,80,1,fivesix,,,,,,,,,,,,,,,,,,,,,,,,,,,,,,,,,,,,,,,,,,,,,,,,,,,,,,,,,,,,,,,,,,,,,,,,,,,,,,,,,,,,,,,,,,,,,,,,,,,,,,,,,,,,,,,,,,,,,,,,,,,,,,,,,,,,,,,,,
,,616b06e97addc4a9a638909e,2024-02-18_20h10.27.967,kallum_motion_pilot,2023.2.2,Win32,59.88023952,616b06e97addc4a9a638909e,65d2b6c8f2eece985d8e374c,65d2b837b83178b7b14aecba,0.0634,0.0635,1,13,175,77,1,threefour,,,,,,,,,,,,,,,,,,,,,,,,,,,,,,,,,,,,,,,,,,,,,,,,,,,,,,,,,,,,,,,,,,,,,,,,,,,,,,,,,,,,,,,,,,,,,,,,,,,,,,,,,,,,,,,,,,,,,,,,,,,,,,,,,,,,,,,,,
,,616b06e97addc4a9a638909e,2024-02-18_20h10.27.967,kallum_motion_pilot,2023.2.2,Win32,59.88023952,616b06e97addc4a9a638909e,65d2b6c8f2eece985d8e374c,65d2b837b83178b7b14aecba,0.0635,0.0636,1,14,176,42,1,twoone,,,,,,,,,,,,,,,,,,,,,,,,,,,,,,,,,,,,,,,,,,,,,,,,,,,,,,,,,,,,,,,,,,,,,,,,,,,,,,,,,,,,,,,,,,,,,,,,,,,,,,,,,,,,,,,,,,,,,,,,,,,,,,,,,,,,,,,,,
,,616b06e97addc4a9a638909e,2024-02-18_20h10.27.967,kallum_motion_pilot,2023.2.2,Win32,59.88023952,616b06e97addc4a9a638909e,65d2b6c8f2eece985d8e374c,65d2b837b83178b7b14aecba,0.0637,0.0638,1,15,177,11,1,twofour,,,,,,,,,,,,,,,,,,,,,,,,,,,,,,,,,,,,,,,,,,,,,,,,,,,,,,,,,,,,,,,,,,,,,,,,,,,,,,,,,,,,,,,,,,,,,,,,,,,,,,,,,,,,,,,,,,,,,,,,,,,,,,,,,,,,,,,,,
,,616b06e97addc4a9a638909e,2024-02-18_20h10.27.967,kallum_motion_pilot,2023.2.2,Win32,59.88023952,616b06e97addc4a9a638909e,65d2b6c8f2eece985d8e374c,65d2b837b83178b7b14aecba,0.0639,0.064,1,16,178,109,1,seveneight,,,,,,,,,,,,,,,,,,,,,,,,,,,,,,,,,,,,,,,,,,,,,,,,,,,,,,,,,,,,,,,,,,,,,,,,,,,,,,,,,,,,,,,,,,,,,,,,,,,,,,,,,,,,,,,,,,,,,,,,,,,,,,,,,,,,,,,,,
,,616b06e97addc4a9a638909e,2024-02-18_20h10.27.967,kallum_motion_pilot,2023.2.2,Win32,59.88023952,616b06e97addc4a9a638909e,65d2b6c8f2eece985d8e374c,65d2b837b83178b7b14aecba,0.0641,0.0642,1,17,179,83,1,sixeight,,,,,,,,,,,,,,,,,,,,,,,,,,,,,,,,,,,,,,,,,,,,,,,,,,,,,,,,,,,,,,,,,,,,,,,,,,,,,,,,,,,,,,,,,,,,,,,,,,,,,,,,,,,,,,,,,,,,,,,,,,,,,,,,,,,,,,,,,
,,616b06e97addc4a9a638909e,2024-02-18_20h10.27.967,kallum_motion_pilot,2023.2.2,Win32,59.88023952,616b06e97addc4a9a638909e,65d2b6c8f2eece985d8e374c,65d2b837b83178b7b14aecba,0.0643,0.0644,1,18,180,33,1,onethree,,,,,,,,,,,,,,,,,,,,,,,,,,,,,,,,,,,,,,,,,,,,,,,,,,,,,,,,,,,,,,,,,,,,,,,,,,,,,,,,,,,,,,,,,,,,,,,,,,,,,,,,,,,,,,,,,,,,,,,,,,,,,,,,,,,,,,,,,
,,616b06e97addc4a9a638909e,2024-02-18_20h10.27.967,kallum_motion_pilot,2023.2.2,Win32,59.88023952,616b06e97addc4a9a638909e,65d2b6c8f2eece985d8e374c,65d2b837b83178b7b14aecba,0.0645,0.0646,1,19,181,160,1,fivesix,,,,,,,,,,,,,,,,,,,,,,,,,,,,,,,,,,,,,,,,,,,,,,,,,,,,,,,,,,,,,,,,,,,,,,,,,,,,,,,,,,,,,,,,,,,,,,,,,,,,,,,,,,,,,,,,,,,,,,,,,,,,,,,,,,,,,,,,,
,,616b06e97addc4a9a638909e,2024-02-18_20h10.27.967,kallum_motion_pilot,2023.2.2,Win32,59.88023952,616b06e97addc4a9a638909e,65d2b6c8f2eece985d8e374c,65d2b837b83178b7b14aecba,0.0647,0.0648,1,20,182,131,1,sixeight,,,,,,,,,,,,,,,,,,,,,,,,,,,,,,,,,,,,,,,,,,,,,,,,,,,,,,,,,,,,,,,,,,,,,,,,,,,,,,,,,,,,,,,,,,,,,,,,,,,,,,,,,,,,,,,,,,,,,,,,,,,,,,,,,,,,,,,,,
,,616b06e97addc4a9a638909e,2024-02-18_20h10.27.967,kallum_motion_pilot,2023.2.2,Win32,59.88023952,616b06e97addc4a9a638909e,65d2b6c8f2eece985d8e374c,65d2b837b83178b7b14aecba,0.0649,0.065,1,21,183,86,1,eightsix,,,,,,,,,,,,,,,,,,,,,,,,,,,,,,,,,,,,,,,,,,,,,,,,,,,,,,,,,,,,,,,,,,,,,,,,,,,,,,,,,,,,,,,,,,,,,,,,,,,,,,,,,,,,,,,,,,,,,,,,,,,,,,,,,,,,,,,,,
,,616b06e97addc4a9a638909e,2024-02-18_20h10.27.967,kallum_motion_pilot,2023.2.2,Win32,59.88023952,616b06e97addc4a9a638909e,65d2b6c8f2eece985d8e374c,65d2b837b83178b7b14aecba,0.0651,0.0652,1,22,184,47,1,fourthree,,,,,,,,,,,,,,,,,,,,,,,,,,,,,,,,,,,,,,,,,,,,,,,,,,,,,,,,,,,,,,,,,,,,,,,,,,,,,,,,,,,,,,,,,,,,,,,,,,,,,,,,,,,,,,,,,,,,,,,,,,,,,,,,,,,,,,,,,
,,616b06e97addc4a9a638909e,2024-02-18_20h10.27.967,kallum_motion_pilot,2023.2.2,Win32,59.88023952,616b06e97addc4a9a638909e,65d2b6c8f2eece985d8e374c,65d2b837b83178b7b14aecba,0.0654,0.0654,1,23,185,13,1,threefour,,,,,,,,,,,,,,,,,,,,,,,,,,,,,,,,,,,,,,,,,,,,,,,,,,,,,,,,,,,,,,,,,,,,,,,,,,,,,,,,,,,,,,,,,,,,,,,,,,,,,,,,,,,,,,,,,,,,,,,,,,,,,,,,,,,,,,,,,
,,616b06e97addc4a9a638909e,2024-02-18_20h10.27.967,kallum_motion_pilot,2023.2.2,Win32,59.88023952,616b06e97addc4a9a638909e,65d2b6c8f2eece985d8e374c,65d2b837b83178b7b14aecba,0.0656,0.0656,1,24,186,44,1,threeone,,,,,,,,,,,,,,,,,,,,,,,,,,,,,,,,,,,,,,,,,,,,,,,,,,,,,,,,,,,,,,,,,,,,,,,,,,,,,,,,,,,,,,,,,,,,,,,,,,,,,,,,,,,,,,,,,,,,,,,,,,,,,,,,,,,,,,,,,
,,616b06e97addc4a9a638909e,2024-02-18_20h10.27.967,kallum_motion_pilot,2023.2.2,Win32,59.88023952,616b06e97addc4a9a638909e,65d2b6c8f2eece985d8e374c,65d2b837b83178b7b14aecba,0.0658,0.0659,1,25,187,125,1,seveneight,,,,,,,,,,,,,,,,,,,,,,,,,,,,,,,,,,,,,,,,,,,,,,,,,,,,,,,,,,,,,,,,,,,,,,,,,,,,,,,,,,,,,,,,,,,,,,,,,,,,,,,,,,,,,,,,,,,,,,,,,,,,,,,,,,,,,,,,,
,,616b06e97addc4a9a638909e,2024-02-18_20h10.27.967,kallum_motion_pilot,2023.2.2,Win32,59.88023952,616b06e97addc4a9a638909e,65d2b6c8f2eece985d8e374c,65d2b837b83178b7b14aecba,0.066,0.0661,1,26,188,32,1,onetwo,,,,,,,,,,,,,,,,,,,,,,,,,,,,,,,,,,,,,,,,,,,,,,,,,,,,,,,,,,,,,,,,,,,,,,,,,,,,,,,,,,,,,,,,,,,,,,,,,,,,,,,,,,,,,,,,,,,,,,,,,,,,,,,,,,,,,,,,,
,,616b06e97addc4a9a638909e,2024-02-18_20h10.27.967,kallum_motion_pilot,2023.2.2,Win32,59.88023952,616b06e97addc4a9a638909e,65d2b6c8f2eece985d8e374c,65d2b837b83178b7b14aecba,0.0661,0.0662,1,27,189,64,1,onetwo,,,,,,,,,,,,,,,,,,,,,,,,,,,,,,,,,,,,,,,,,,,,,,,,,,,,,,,,,,,,,,,,,,,,,,,,,,,,,,,,,,,,,,,,,,,,,,,,,,,,,,,,,,,,,,,,,,,,,,,,,,,,,,,,,,,,,,,,,
,,616b06e97addc4a9a638909e,2024-02-18_20h10.27.967,kallum_motion_pilot,2023.2.2,Win32,59.88023952,616b06e97addc4a9a638909e,65d2b6c8f2eece985d8e374c,65d2b837b83178b7b14aecba,0.0664,0.0665,1,28,190,24,1,onetwo,,,,,,,,,,,,,,,,,,,,,,,,,,,,,,,,,,,,,,,,,,,,,,,,,,,,,,,,,,,,,,,,,,,,,,,,,,,,,,,,,,,,,,,,,,,,,,,,,,,,,,,,,,,,,,,,,,,,,,,,,,,,,,,,,,,,,,,,,
,,616b06e97addc4a9a638909e,2024-02-18_20h10.27.967,kallum_motion_pilot,2023.2.2,Win32,59.88023952,616b06e97addc4a9a638909e,65d2b6c8f2eece985d8e374c,65d2b837b83178b7b14aecba,0.0668,0.0668,1,29,191,7,1,fourthree,,,,,,,,,,,,,,,,,,,,,,,,,,,,,,,,,,,,,,,,,,,,,,,,,,,,,,,,,,,,,,,,,,,,,,,,,,,,,,,,,,,,,,,,,,,,,,,,,,,,,,,,,,,,,,,,,,,,,,,,,,,,,,,,,,,,,,,,,
,,616b06e97addc4a9a638909e,2024-02-18_20h10.27.967,kallum_motion_pilot,2023.2.2,Win32,59.88023952,616b06e97addc4a9a638909e,65d2b6c8f2eece985d8e374c,65d2b837b83178b7b14aecba,0.067,0.0672,1,30,192,98,1,sixfive,,,,,,,,,,,,,,,,,,,,,,,,,,,,,,,,,,,,,,,,,,,,,,,,,,,,,,,,,,,,,,,,,,,,,,,,,,,,,,,,,,,,,,,,,,,,,,,,,,,,,,,,,,,,,,,,,,,,,,,,,,,,,,,,,,,,,,,,,
,,616b06e97addc4a9a638909e,2024-02-18_20h10.27.967,kallum_motion_pilot,2023.2.2,Win32,59.88023952,616b06e97addc4a9a638909e,65d2b6c8f2eece985d8e374c,65d2b837b83178b7b14aecba,0.0673,0.0675,1,31,193,46,1,fourtwo,,,,,,,,,,,,,,,,,,,,,,,,,,,,,,,,,,,,,,,,,,,,,,,,,,,,,,,,,,,,,,,,,,,,,,,,,,,,,,,,,,,,,,,,,,,,,,,,,,,,,,,,,,,,,,,,,,,,,,,,,,,,,,,,,,,,,,,,,
,,616b06e97addc4a9a638909e,2024-02-18_20h10.27.967,kallum_motion_pilot,2023.2.2,Win32,59.88023952,616b06e97addc4a9a638909e,65d2b6c8f2eece985d8e374c,65d2b837b83178b7b14aecba,0.0676,0.0678,1,32,194,30,1,fourtwo,,,,,,,,,,,,,,,,,,,,,,,,,,,,,,,,,,,,,,,,,,,,,,,,,,,,,,,,,,,,,,,,,,,,,,,,,,,,,,,,,,,,,,,,,,,,,,,,,,,,,,,,,,,,,,,,,,,,,,,,,,,,,,,,,,,,,,,,,
,,616b06e97addc4a9a638909e,2024-02-18_20h10.27.967,kallum_motion_pilot,2023.2.2,Win32,59.88023952,616b06e97addc4a9a638909e,65d2b6c8f2eece985d8e374c,65d2b837b83178b7b14aecba,0.0678,0.068,1,33,195,62,1,fourtwo,,,,,,,,,,,,,,,,,,,,,,,,,,,,,,,,,,,,,,,,,,,,,,,,,,,,,,,,,,,,,,,,,,,,,,,,,,,,,,,,,,,,,,,,,,,,,,,,,,,,,,,,,,,,,,,,,,,,,,,,,,,,,,,,,,,,,,,,,
,,616b06e97addc4a9a638909e,2024-02-18_20h10.27.967,kallum_motion_pilot,2023.2.2,Win32,59.88023952,616b06e97addc4a9a638909e,65d2b6c8f2eece985d8e374c,65d2b837b83178b7b14aecba,0.068,0.0682,1,34,196,154,1,sixfive,,,,,,,,,,,,,,,,,,,,,,,,,,,,,,,,,,,,,,,,,,,,,,,,,,,,,,,,,,,,,,,,,,,,,,,,,,,,,,,,,,,,,,,,,,,,,,,,,,,,,,,,,,,,,,,,,,,,,,,,,,,,,,,,,,,,,,,,,
,,616b06e97addc4a9a638909e,2024-02-18_20h10.27.967,kallum_motion_pilot,2023.2.2,Win32,59.88023952,616b06e97addc4a9a638909e,65d2b6c8f2eece985d8e374c,65d2b837b83178b7b14aecba,0.0683,0.0684,1,35,197,20,1,threeone,,,,,,,,,,,,,,,,,,,,,,,,,,,,,,,,,,,,,,,,,,,,,,,,,,,,,,,,,,,,,,,,,,,,,,,,,,,,,,,,,,,,,,,,,,,,,,,,,,,,,,,,,,,,,,,,,,,,,,,,,,,,,,,,,,,,,,,,,
,,616b06e97addc4a9a638909e,2024-02-18_20h10.27.967,kallum_motion_pilot,2023.2.2,Win32,59.88023952,616b06e97addc4a9a638909e,65d2b6c8f2eece985d8e374c,65d2b837b83178b7b14aecba,0.0686,0.0687,1,36,198,22,1,fourtwo,,,,,,,,,,,,,,,,,,,,,,,,,,,,,,,,,,,,,,,,,,,,,,,,,,,,,,,,,,,,,,,,,,,,,,,,,,,,,,,,,,,,,,,,,,,,,,,,,,,,,,,,,,,,,,,,,,,,,,,,,,,,,,,,,,,,,,,,,
,,616b06e97addc4a9a638909e,2024-02-18_20h10.27.967,kallum_motion_pilot,2023.2.2,Win32,59.88023952,616b06e97addc4a9a638909e,65d2b6c8f2eece985d8e374c,65d2b837b83178b7b14aecba,0.0689,0.0689,1,37,199,138,1,sixfive,,,,,,,,,,,,,,,,,,,,,,,,,,,,,,,,,,,,,,,,,,,,,,,,,,,,,,,,,,,,,,,,,,,,,,,,,,,,,,,,,,,,,,,,,,,,,,,,,,,,,,,,,,,,,,,,,,,,,,,,,,,,,,,,,,,,,,,,,
,,616b06e97addc4a9a638909e,2024-02-18_20h10.27.967,kallum_motion_pilot,2023.2.2,Win32,59.88023952,616b06e97addc4a9a638909e,65d2b6c8f2eece985d8e374c,65d2b837b83178b7b14aecba,0.0691,0.0692,1,38,200,79,1,eightseven,,,,,,,,,,,,,,,,,,,,,,,,,,,,,,,,,,,,,,,,,,,,,,,,,,,,,,,,,,,,,,,,,,,,,,,,,,,,,,,,,,,,,,,,,,,,,,,,,,,,,,,,,,,,,,,,,,,,,,,,,,,,,,,,,,,,,,,,,
,,616b06e97addc4a9a638909e,2024-02-18_20h10.27.967,kallum_motion_pilot,2023.2.2,Win32,59.88023952,616b06e97addc4a9a638909e,65d2b6c8f2eece985d8e374c,65d2b837b83178b7b14aecba,0.0694,0.0694,1,39,201,101,1,seveneight,,,,,,,,,,,,,,,,,,,,,,,,,,,,,,,,,,,,,,,,,,,,,,,,,,,,,,,,,,,,,,,,,,,,,,,,,,,,,,,,,,,,,,,,,,,,,,,,,,,,,,,,,,,,,,,,,,,,,,,,,,,,,,,,,,,,,,,,,
,,616b06e97addc4a9a638909e,2024-02-18_20h10.27.967,kallum_motion_pilot,2023.2.2,Win32,59.88023952,616b06e97addc4a9a638909e,65d2b6c8f2eece985d8e374c,65d2b837b83178b7b14aecba,0.0696,0.0697,1,40,202,145,1,fiveseven,,,,,,,,,,,,,,,,,,,,,,,,,,,,,,,,,,,,,,,,,,,,,,,,,,,,,,,,,,,,,,,,,,,,,,,,,,,,,,,,,,,,,,,,,,,,,,,,,,,,,,,,,,,,,,,,,,,,,,,,,,,,,,,,,,,,,,,,,
,,616b06e97addc4a9a638909e,2024-02-18_20h10.27.967,kallum_motion_pilot,2023.2.2,Win32,59.88023952,616b06e97addc4a9a638909e,65d2b6c8f2eece985d8e374c,65d2b837b83178b7b14aecba,0.0698,0.0699,1,41,203,122,1,sixfive,,,,,,,,,,,,,,,,,,,,,,,,,,,,,,,,,,,,,,,,,,,,,,,,,,,,,,,,,,,,,,,,,,,,,,,,,,,,,,,,,,,,,,,,,,,,,,,,,,,,,,,,,,,,,,,,,,,,,,,,,,,,,,,,,,,,,,,,,
,,616b06e97addc4a9a638909e,2024-02-18_20h10.27.967,kallum_motion_pilot,2023.2.2,Win32,59.88023952,616b06e97addc4a9a638909e,65d2b6c8f2eece985d8e374c,65d2b837b83178b7b14aecba,0.07,0.0701,1,42,204,60,1,threeone,,,,,,,,,,,,,,,,,,,,,,,,,,,,,,,,,,,,,,,,,,,,,,,,,,,,,,,,,,,,,,,,,,,,,,,,,,,,,,,,,,,,,,,,,,,,,,,,,,,,,,,,,,,,,,,,,,,,,,,,,,,,,,,,,,,,,,,,,
,,616b06e97addc4a9a638909e,2024-02-18_20h10.27.967,kallum_motion_pilot,2023.2.2,Win32,59.88023952,616b06e97addc4a9a638909e,65d2b6c8f2eece985d8e374c,65d2b837b83178b7b14aecba,0.0702,0.0703,1,43,205,29,1,threefour,,,,,,,,,,,,,,,,,,,,,,,,,,,,,,,,,,,,,,,,,,,,,,,,,,,,,,,,,,,,,,,,,,,,,,,,,,,,,,,,,,,,,,,,,,,,,,,,,,,,,,,,,,,,,,,,,,,,,,,,,,,,,,,,,,,,,,,,,
,,616b06e97addc4a9a638909e,2024-02-18_20h10.27.967,kallum_motion_pilot,2023.2.2,Win32,59.88023952,616b06e97addc4a9a638909e,65d2b6c8f2eece985d8e374c,65d2b837b83178b7b14aecba,0.0705,0.0706,1,44,206,147,1,sixeight,,,,,,,,,,,,,,,,,,,,,,,,,,,,,,,,,,,,,,,,,,,,,,,,,,,,,,,,,,,,,,,,,,,,,,,,,,,,,,,,,,,,,,,,,,,,,,,,,,,,,,,,,,,,,,,,,,,,,,,,,,,,,,,,,,,,,,,,,
,,616b06e97addc4a9a638909e,2024-02-18_20h10.27.967,kallum_motion_pilot,2023.2.2,Win32,59.88023952,616b06e97addc4a9a638909e,65d2b6c8f2eece985d8e374c,65d2b837b83178b7b14aecba,0.0707,0.0708,1,45,207,2,1,twoone,,,,,,,,,,,,,,,,,,,,,,,,,,,,,,,,,,,,,,,,,,,,,,,,,,,,,,,,,,,,,,,,,,,,,,,,,,,,,,,,,,,,,,,,,,,,,,,,,,,,,,,,,,,,,,,,,,,,,,,,,,,,,,,,,,,,,,,,,
,,616b06e97addc4a9a638909e,2024-02-18_20h10.27.967,kallum_motion_pilot,2023.2.2,Win32,59.88023952,616b06e97addc4a9a638909e,65d2b6c8f2eece985d8e374c,65d2b837b83178b7b14aecba,0.071,0.071,1,46,208,0,1,onetwo,,,,,,,,,,,,,,,,,,,,,,,,,,,,,,,,,,,,,,,,,,,,,,,,,,,,,,,,,,,,,,,,,,,,,,,,,,,,,,,,,,,,,,,,,,,,,,,,,,,,,,,,,,,,,,,,,,,,,,,,,,,,,,,,,,,,,,,,,
,,616b06e97addc4a9a638909e,2024-02-18_20h10.27.967,kallum_motion_pilot,2023.2.2,Win32,59.88023952,616b06e97addc4a9a638909e,65d2b6c8f2eece985d8e374c,65d2b837b83178b7b14aecba,0.0711,0.0712,1,47,209,21,1,threefour,,,,,,,,,,,,,,,,,,,,,,,,,,,,,,,,,,,,,,,,,,,,,,,,,,,,,,,,,,,,,,,,,,,,,,,,,,,,,,,,,,,,,,,,,,,,,,,,,,,,,,,,,,,,,,,,,,,,,,,,,,,,,,,,,,,,,,,,,
,,616b06e97addc4a9a638909e,2024-02-18_20h10.27.967,kallum_motion_pilot,2023.2.2,Win32,59.88023952,616b06e97addc4a9a638909e,65d2b6c8f2eece985d8e374c,65d2b837b83178b7b14aecba,0.0713,0.0716,1,48,210,14,1,fourtwo,,,,,,,,,,,,,,,,,,,,,,,,,,,,,,,,,,,,,,,,,,,,,,,,,,,,,,,,,,,,,,,,,,,,,,,,,,,,,,,,,,,,,,,,,,,,,,,,,,,,,,,,,,,,,,,,,,,,,,,,,,,,,,,,,,,,,,,,,
,,616b06e97addc4a9a638909e,2024-02-18_20h10.27.967,kallum_motion_pilot,2023.2.2,Win32,59.88023952,616b06e97addc4a9a638909e,65d2b6c8f2eece985d8e374c,65d2b837b83178b7b14aecba,0.0719,0.0721,1,49,211,48,1,onetwo,,,,,,,,,,,,,,,,,,,,,,,,,,,,,,,,,,,,,,,,,,,,,,,,,,,,,,,,,,,,,,,,,,,,,,,,,,,,,,,,,,,,,,,,,,,,,,,,,,,,,,,,,,,,,,,,,,,,,,,,,,,,,,,,,,,,,,,,,
,,616b06e97addc4a9a638909e,2024-02-18_20h10.27.967,kallum_motion_pilot,2023.2.2,Win32,59.88023952,616b06e97addc4a9a638909e,65d2b6c8f2eece985d8e374c,65d2b837b83178b7b14aecba,0.0724,0.0725,1,50,212,73,1,onethree,,,,,,,,,,,,,,,,,,,,,,,,,,,,,,,,,,,,,,,,,,,,,,,,,,,,,,,,,,,,,,,,,,,,,,,,,,,,,,,,,,,,,,,,,,,,,,,,,,,,,,,,,,,,,,,,,,,,,,,,,,,,,,,,,,,,,,,,,
,,616b06e97addc4a9a638909e,2024-02-18_20h10.27.967,kallum_motion_pilot,2023.2.2,Win32,59.88023952,616b06e97addc4a9a638909e,65d2b6c8f2eece985d8e374c,65d2b837b83178b7b14aecba,0.0729,0.0729,1,51,213,72,1,onetwo,,,,,,,,,,,,,,,,,,,,,,,,,,,,,,,,,,,,,,,,,,,,,,,,,,,,,,,,,,,,,,,,,,,,,,,,,,,,,,,,,,,,,,,,,,,,,,,,,,,,,,,,,,,,,,,,,,,,,,,,,,,,,,,,,,,,,,,,,
,,616b06e97addc4a9a638909e,2024-02-18_20h10.27.967,kallum_motion_pilot,2023.2.2,Win32,59.88023952,616b06e97addc4a9a638909e,65d2b6c8f2eece985d8e374c,65d2b837b83178b7b14aecba,0.0731,0.0732,1,52,214,133,1,seveneight,,,,,,,,,,,,,,,,,,,,,,,,,,,,,,,,,,,,,,,,,,,,,,,,,,,,,,,,,,,,,,,,,,,,,,,,,,,,,,,,,,,,,,,,,,,,,,,,,,,,,,,,,,,,,,,,,,,,,,,,,,,,,,,,,,,,,,,,,
,,616b06e97addc4a9a638909e,2024-02-18_20h10.27.967,kallum_motion_pilot,2023.2.2,Win32,59.88023952,616b06e97addc4a9a638909e,65d2b6c8f2eece985d8e374c,65d2b837b83178b7b14aecba,0.0733,0.0734,1,53,215,59,1,twofour,,,,,,,,,,,,,,,,,,,,,,,,,,,,,,,,,,,,,,,,,,,,,,,,,,,,,,,,,,,,,,,,,,,,,,,,,,,,,,,,,,,,,,,,,,,,,,,,,,,,,,,,,,,,,,,,,,,,,,,,,,,,,,,,,,,,,,,,,
,,616b06e97addc4a9a638909e,2024-02-18_20h10.27.967,kallum_motion_pilot,2023.2.2,Win32,59.88023952,616b06e97addc4a9a638909e,65d2b6c8f2eece985d8e374c,65d2b837b83178b7b14aecba,0.0736,0.0737,1,54,216,25,1,onethree,,,,,,,,,,,,,,,,,,,,,,,,,,,,,,,,,,,,,,,,,,,,,,,,,,,,,,,,,,,,,,,,,,,,,,,,,,,,,,,,,,,,,,,,,,,,,,,,,,,,,,,,,,,,,,,,,,,,,,,,,,,,,,,,,,,,,,,,,
,,616b06e97addc4a9a638909e,2024-02-18_20h10.27.967,kallum_motion_pilot,2023.2.2,Win32,59.88023952,616b06e97addc4a9a638909e,65d2b6c8f2eece985d8e374c,65d2b837b83178b7b14aecba,0.0737,0.0739,1,55,217,124,1,sevenfive,,,,,,,,,,,,,,,,,,,,,,,,,,,,,,,,,,,,,,,,,,,,,,,,,,,,,,,,,,,,,,,,,,,,,,,,,,,,,,,,,,,,,,,,,,,,,,,,,,,,,,,,,,,,,,,,,,,,,,,,,,,,,,,,,,,,,,,,,
,,616b06e97addc4a9a638909e,2024-02-18_20h10.27.967,kallum_motion_pilot,2023.2.2,Win32,59.88023952,616b06e97addc4a9a638909e,65d2b6c8f2eece985d8e374c,65d2b837b83178b7b14aecba,0.074,0.0741,1,56,218,27,1,twofour,,,,,,,,,,,,,,,,,,,,,,,,,,,,,,,,,,,,,,,,,,,,,,,,,,,,,,,,,,,,,,,,,,,,,,,,,,,,,,,,,,,,,,,,,,,,,,,,,,,,,,,,,,,,,,,,,,,,,,,,,,,,,,,,,,,,,,,,,
,,616b06e97addc4a9a638909e,2024-02-18_20h10.27.967,kallum_motion_pilot,2023.2.2,Win32,59.88023952,616b06e97addc4a9a638909e,65d2b6c8f2eece985d8e374c,65d2b837b83178b7b14aecba,0.0742,0.0742,1,57,219,85,1,seveneight,,,,,,,,,,,,,,,,,,,,,,,,,,,,,,,,,,,,,,,,,,,,,,,,,,,,,,,,,,,,,,,,,,,,,,,,,,,,,,,,,,,,,,,,,,,,,,,,,,,,,,,,,,,,,,,,,,,,,,,,,,,,,,,,,,,,,,,,,
,,616b06e97addc4a9a638909e,2024-02-18_20h10.27.967,kallum_motion_pilot,2023.2.2,Win32,59.88023952,616b06e97addc4a9a638909e,65d2b6c8f2eece985d8e374c,65d2b837b83178b7b14aecba,0.0744,0.0744,1,58,220,23,1,fourthree,,,,,,,,,,,,,,,,,,,,,,,,,,,,,,,,,,,,,,,,,,,,,,,,,,,,,,,,,,,,,,,,,,,,,,,,,,,,,,,,,,,,,,,,,,,,,,,,,,,,,,,,,,,,,,,,,,,,,,,,,,,,,,,,,,,,,,,,,
,,616b06e97addc4a9a638909e,2024-02-18_20h10.27.967,kallum_motion_pilot,2023.2.2,Win32,59.88023952,616b06e97addc4a9a638909e,65d2b6c8f2eece985d8e374c,65d2b837b83178b7b14aecba,0.0746,0.0747,1,59,221,76,1,threeone,,,,,,,,,,,,,,,,,,,,,,,,,,,,,,,,,,,,,,,,,,,,,,,,,,,,,,,,,,,,,,,,,,,,,,,,,,,,,,,,,,,,,,,,,,,,,,,,,,,,,,,,,,,,,,,,,,,,,,,,,,,,,,,,,,,,,,,,,
,,616b06e97addc4a9a638909e,2024-02-18_20h10.27.967,kallum_motion_pilot,2023.2.2,Win32,59.88023952,616b06e97addc4a9a638909e,65d2b6c8f2eece985d8e374c,65d2b837b83178b7b14aecba,0.0748,0.0749,1,60,222,104,1,fivesix,,,,,,,,,,,,,,,,,,,,,,,,,,,,,,,,,,,,,,,,,,,,,,,,,,,,,,,,,,,,,,,,,,,,,,,,,,,,,,,,,,,,,,,,,,,,,,,,,,,,,,,,,,,,,,,,,,,,,,,,,,,,,,,,,,,,,,,,,
,,616b06e97addc4a9a638909e,2024-02-18_20h10.27.967,kallum_motion_pilot,2023.2.2,Win32,59.88023952,616b06e97addc4a9a638909e,65d2b6c8f2eece985d8e374c,65d2b837b83178b7b14aecba,0.075,0.0751,1,61,223,139,1,sixeight,,,,,,,,,,,,,,,,,,,,,,,,,,,,,,,,,,,,,,,,,,,,,,,,,,,,,,,,,,,,,,,,,,,,,,,,,,,,,,,,,,,,,,,,,,,,,,,,,,,,,,,,,,,,,,,,,,,,,,,,,,,,,,,,,,,,,,,,,
,,616b06e97addc4a9a638909e,2024-02-18_20h10.27.967,kallum_motion_pilot,2023.2.2,Win32,59.88023952,616b06e97addc4a9a638909e,65d2b6c8f2eece985d8e374c,65d2b837b83178b7b14aecba,0.0752,0.0753,1,62,224,81,1,fiveseven,,,,,,,,,,,,,,,,,,,,,,,,,,,,,,,,,,,,,,,,,,,,,,,,,,,,,,,,,,,,,,,,,,,,,,,,,,,,,,,,,,,,,,,,,,,,,,,,,,,,,,,,,,,,,,,,,,,,,,,,,,,,,,,,,,,,,,,,,
,,616b06e97addc4a9a638909e,2024-02-18_20h10.27.967,kallum_motion_pilot,2023.2.2,Win32,59.88023952,616b06e97addc4a9a638909e,65d2b6c8f2eece985d8e374c,65d2b837b83178b7b14aecba,0.0755,0.0756,1,63,225,89,1,fiveseven,,,,,,,,,,,,,,,,,,,,,,,,,,,,,,,,,,,,,,,,,,,,,,,,,,,,,,,,,,,,,,,,,,,,,,,,,,,,,,,,,,,,,,,,,,,,,,,,,,,,,,,,,,,,,,,,,,,,,,,,,,,,,,,,,,,,,,,,,
,,616b06e97addc4a9a638909e,2024-02-18_20h10.27.967,kallum_motion_pilot,2023.2.2,Win32,59.88023952,616b06e97addc4a9a638909e,65d2b6c8f2eece985d8e374c,65d2b837b83178b7b14aecba,0.0756,0.0757,1,64,226,159,1,eightseven,,,,,,,,,,,,,,,,,,,,,,,,,,,,,,,,,,,,,,,,,,,,,,,,,,,,,,,,,,,,,,,,,,,,,,,,,,,,,,,,,,,,,,,,,,,,,,,,,,,,,,,,,,,,,,,,,,,,,,,,,,,,,,,,,,,,,,,,,
,,616b06e97addc4a9a638909e,2024-02-18_20h10.27.967,kallum_motion_pilot,2023.2.2,Win32,59.88023952,616b06e97addc4a9a638909e,65d2b6c8f2eece985d8e374c,65d2b837b83178b7b14aecba,0.0759,0.076,1,65,227,55,1,fourthree,,,,,,,,,,,,,,,,,,,,,,,,,,,,,,,,,,,,,,,,,,,,,,,,,,,,,,,,,,,,,,,,,,,,,,,,,,,,,,,,,,,,,,,,,,,,,,,,,,,,,,,,,,,,,,,,,,,,,,,,,,,,,,,,,,,,,,,,,
,,616b06e97addc4a9a638909e,2024-02-18_20h10.27.967,kallum_motion_pilot,2023.2.2,Win32,59.88023952,616b06e97addc4a9a638909e,65d2b6c8f2eece985d8e374c,65d2b837b83178b7b14aecba,0.0762,0.0762,1,66,228,4,1,threeone,,,,,,,,,,,,,,,,,,,,,,,,,,,,,,,,,,,,,,,,,,,,,,,,,,,,,,,,,,,,,,,,,,,,,,,,,,,,,,,,,,,,,,,,,,,,,,,,,,,,,,,,,,,,,,,,,,,,,,,,,,,,,,,,,,,,,,,,,
,,616b06e97addc4a9a638909e,2024-02-18_20h10.27.967,kallum_motion_pilot,2023.2.2,Win32,59.88023952,616b06e97addc4a9a638909e,65d2b6c8f2eece985d8e374c,65d2b837b83178b7b14aecba,0.0763,0.0765,1,67,229,103,1,eightseven,,,,,,,,,,,,,,,,,,,,,,,,,,,,,,,,,,,,,,,,,,,,,,,,,,,,,,,,,,,,,,,,,,,,,,,,,,,,,,,,,,,,,,,,,,,,,,,,,,,,,,,,,,,,,,,,,,,,,,,,,,,,,,,,,,,,,,,,,
,,616b06e97addc4a9a638909e,2024-02-18_20h10.27.967,kallum_motion_pilot,2023.2.2,Win32,59.88023952,616b06e97addc4a9a638909e,65d2b6c8f2eece985d8e374c,65d2b837b83178b7b14aecba,0.0766,0.0766,1,68,230,118,1,eightsix,,,,,,,,,,,,,,,,,,,,,,,,,,,,,,,,,,,,,,,,,,,,,,,,,,,,,,,,,,,,,,,,,,,,,,,,,,,,,,,,,,,,,,,,,,,,,,,,,,,,,,,,,,,,,,,,,,,,,,,,,,,,,,,,,,,,,,,,,
,,616b06e97addc4a9a638909e,2024-02-18_20h10.27.967,kallum_motion_pilot,2023.2.2,Win32,59.88023952,616b06e97addc4a9a638909e,65d2b6c8f2eece985d8e374c,65d2b837b83178b7b14aecba,0.0768,0.0769,1,69,231,15,1,fourthree,,,,,,,,,,,,,,,,,,,,,,,,,,,,,,,,,,,,,,,,,,,,,,,,,,,,,,,,,,,,,,,,,,,,,,,,,,,,,,,,,,,,,,,,,,,,,,,,,,,,,,,,,,,,,,,,,,,,,,,,,,,,,,,,,,,,,,,,,
,,616b06e97addc4a9a638909e,2024-02-18_20h10.27.967,kallum_motion_pilot,2023.2.2,Win32,59.88023952,616b06e97addc4a9a638909e,65d2b6c8f2eece985d8e374c,65d2b837b83178b7b14aecba,0.077,0.0771,1,70,232,17,1,onethree,,,,,,,,,,,,,,,,,,,,,,,,,,,,,,,,,,,,,,,,,,,,,,,,,,,,,,,,,,,,,,,,,,,,,,,,,,,,,,,,,,,,,,,,,,,,,,,,,,,,,,,,,,,,,,,,,,,,,,,,,,,,,,,,,,,,,,,,,
,,616b06e97addc4a9a638909e,2024-02-18_20h10.27.967,kallum_motion_pilot,2023.2.2,Win32,59.88023952,616b06e97addc4a9a638909e,65d2b6c8f2eece985d8e374c,65d2b837b83178b7b14aecba,0.0772,0.0773,1,71,233,6,1,fourtwo,,,,,,,,,,,,,,,,,,,,,,,,,,,,,,,,,,,,,,,,,,,,,,,,,,,,,,,,,,,,,,,,,,,,,,,,,,,,,,,,,,,,,,,,,,,,,,,,,,,,,,,,,,,,,,,,,,,,,,,,,,,,,,,,,,,,,,,,,
,,616b06e97addc4a9a638909e,2024-02-18_20h10.27.967,kallum_motion_pilot,2023.2.2,Win32,59.88023952,616b06e97addc4a9a638909e,65d2b6c8f2eece985d8e374c,65d2b837b83178b7b14aecba,0.0774,0.0776,1,72,234,112,1,fivesix,,,,,,,,,,,,,,,,,,,,,,,,,,,,,,,,,,,,,,,,,,,,,,,,,,,,,,,,,,,,,,,,,,,,,,,,,,,,,,,,,,,,,,,,,,,,,,,,,,,,,,,,,,,,,,,,,,,,,,,,,,,,,,,,,,,,,,,,,
,,616b06e97addc4a9a638909e,2024-02-18_20h10.27.967,kallum_motion_pilot,2023.2.2,Win32,59.88023952,616b06e97addc4a9a638909e,65d2b6c8f2eece985d8e374c,65d2b837b83178b7b14aecba,0.0777,0.0778,1,73,235,144,1,fivesix,,,,,,,,,,,,,,,,,,,,,,,,,,,,,,,,,,,,,,,,,,,,,,,,,,,,,,,,,,,,,,,,,,,,,,,,,,,,,,,,,,,,,,,,,,,,,,,,,,,,,,,,,,,,,,,,,,,,,,,,,,,,,,,,,,,,,,,,,
,,616b06e97addc4a9a638909e,2024-02-18_20h10.27.967,kallum_motion_pilot,2023.2.2,Win32,59.88023952,616b06e97addc4a9a638909e,65d2b6c8f2eece985d8e374c,65d2b837b83178b7b14aecba,0.0779,0.078,1,74,236,129,1,fiveseven,,,,,,,,,,,,,,,,,,,,,,,,,,,,,,,,,,,,,,,,,,,,,,,,,,,,,,,,,,,,,,,,,,,,,,,,,,,,,,,,,,,,,,,,,,,,,,,,,,,,,,,,,,,,,,,,,,,,,,,,,,,,,,,,,,,,,,,,,
,,616b06e97addc4a9a638909e,2024-02-18_20h10.27.967,kallum_motion_pilot,2023.2.2,Win32,59.88023952,616b06e97addc4a9a638909e,65d2b6c8f2eece985d8e374c,65d2b837b83178b7b14aecba,0.0781,0.0782,1,75,237,65,1,onethree,,,,,,,,,,,,,,,,,,,,,,,,,,,,,,,,,,,,,,,,,,,,,,,,,,,,,,,,,,,,,,,,,,,,,,,,,,,,,,,,,,,,,,,,,,,,,,,,,,,,,,,,,,,,,,,,,,,,,,,,,,,,,,,,,,,,,,,,,
,,616b06e97addc4a9a638909e,2024-02-18_20h10.27.967,kallum_motion_pilot,2023.2.2,Win32,59.88023952,616b06e97addc4a9a638909e,65d2b6c8f2eece985d8e374c,65d2b837b83178b7b14aecba,0.079,0.0791,1,76,238,102,1,eightsix,,,,,,,,,,,,,,,,,,,,,,,,,,,,,,,,,,,,,,,,,,,,,,,,,,,,,,,,,,,,,,,,,,,,,,,,,,,,,,,,,,,,,,,,,,,,,,,,,,,,,,,,,,,,,,,,,,,,,,,,,,,,,,,,,,,,,,,,,
,,616b06e97addc4a9a638909e,2024-02-18_20h10.27.967,kallum_motion_pilot,2023.2.2,Win32,59.88023952,616b06e97addc4a9a638909e,65d2b6c8f2eece985d8e374c,65d2b837b83178b7b14aecba,0.0792,0.0793,1,77,239,142,1,eightsix,,,,,,,,,,,,,,,,,,,,,,,,,,,,,,,,,,,,,,,,,,,,,,,,,,,,,,,,,,,,,,,,,,,,,,,,,,,,,,,,,,,,,,,,,,,,,,,,,,,,,,,,,,,,,,,,,,,,,,,,,,,,,,,,,,,,,,,,,
,,616b06e97addc4a9a638909e,2024-02-18_20h10.27.967,kallum_motion_pilot,2023.2.2,Win32,59.88023952,616b06e97addc4a9a638909e,65d2b6c8f2eece985d8e374c,65d2b837b83178b7b14aecba,0.0794,0.0795,1,78,240,151,1,eightseven,,,,,,,,,,,,,,,,,,,,,,,,,,,,,,,,,,,,,,,,,,,,,,,,,,,,,,,,,,,,,,,,,,,,,,,,,,,,,,,,,,,,,,,,,,,,,,,,,,,,,,,,,,,,,,,,,,,,,,,,,,,,,,,,,,,,,,,,,
,,616b06e97addc4a9a638909e,2024-02-18_20h10.27.967,kallum_motion_pilot,2023.2.2,Win32,59.88023952,616b06e97addc4a9a638909e,65d2b6c8f2eece985d8e374c,65d2b837b83178b7b14aecba,0.0796,0.0796,1,79,241,50,1,twoone,,,,,,,,,,,,,,,,,,,,,,,,,,,,,,,,,,,,,,,,,,,,,,,,,,,,,,,,,,,,,,,,,,,,,,,,,,,,,,,,,,,,,,,,,,,,,,,,,,,,,,,,,,,,,,,,,,,,,,,,,,,,,,,,,,,,,,,,,
,,616b06e97addc4a9a638909e,2024-02-18_20h10.27.967,kallum_motion_pilot,2023.2.2,Win32,59.88023952,616b06e97addc4a9a638909e,65d2b6c8f2eece985d8e374c,65d2b837b83178b7b14aecba,0.0797,0.0799,1,80,242,119,1,eightseven,,,,,,,,,,,,,,,,,,,,,,,,,,,,,,,,,,,,,,,,,,,,,,,,,,,,,,,,,,,,,,,,,,,,,,,,,,,,,,,,,,,,,,,,,,,,,,,,,,,,,,,,,,,,,,,,,,,,,,,,,,,,,,,,,,,,,,,,,
,,616b06e97addc4a9a638909e,2024-02-18_20h10.27.967,kallum_motion_pilot,2023.2.2,Win32,59.88023952,616b06e97addc4a9a638909e,65d2b6c8f2eece985d8e374c,65d2b837b83178b7b14aecba,0.0799,0.08,1,81,243,19,1,twofour,,,,,,,,,,,,,,,,,,,,,,,,,,,,,,,,,,,,,,,,,,,,,,,,,,,,,,,,,,,,,,,,,,,,,,,,,,,,,,,,,,,,,,,,,,,,,,,,,,,,,,,,,,,,,,,,,,,,,,,,,,,,,,,,,,,,,,,,,
,,616b06e97addc4a9a638909e,2024-02-18_20h10.27.967,kallum_motion_pilot,2023.2.2,Win32,59.88023952,616b06e97addc4a9a638909e,65d2b6c8f2eece985d8e374c,65d2b837b83178b7b14aecba,0.0801,0.0802,1,82,244,105,1,fiveseven,,,,,,,,,,,,,,,,,,,,,,,,,,,,,,,,,,,,,,,,,,,,,,,,,,,,,,,,,,,,,,,,,,,,,,,,,,,,,,,,,,,,,,,,,,,,,,,,,,,,,,,,,,,,,,,,,,,,,,,,,,,,,,,,,,,,,,,,,
,,616b06e97addc4a9a638909e,2024-02-18_20h10.27.967,kallum_motion_pilot,2023.2.2,Win32,59.88023952,616b06e97addc4a9a638909e,65d2b6c8f2eece985d8e374c,65d2b837b83178b7b14aecba,0.0803,0.0804,1,83,245,70,1,fourtwo,,,,,,,,,,,,,,,,,,,,,,,,,,,,,,,,,,,,,,,,,,,,,,,,,,,,,,,,,,,,,,,,,,,,,,,,,,,,,,,,,,,,,,,,,,,,,,,,,,,,,,,,,,,,,,,,,,,,,,,,,,,,,,,,,,,,,,,,,
,,616b06e97addc4a9a638909e,2024-02-18_20h10.27.967,kallum_motion_pilot,2023.2.2,Win32,59.88023952,616b06e97addc4a9a638909e,65d2b6c8f2eece985d8e374c,65d2b837b83178b7b14aecba,0.0805,0.0806,1,84,246,126,1,eightsix,,,,,,,,,,,,,,,,,,,,,,,,,,,,,,,,,,,,,,,,,,,,,,,,,,,,,,,,,,,,,,,,,,,,,,,,,,,,,,,,,,,,,,,,,,,,,,,,,,,,,,,,,,,,,,,,,,,,,,,,,,,,,,,,,,,,,,,,,
,,616b06e97addc4a9a638909e,2024-02-18_20h10.27.967,kallum_motion_pilot,2023.2.2,Win32,59.88023952,616b06e97addc4a9a638909e,65d2b6c8f2eece985d8e374c,65d2b837b83178b7b14aecba,0.0806,0.0807,1,85,247,134,1,eightsix,,,,,,,,,,,,,,,,,,,,,,,,,,,,,,,,,,,,,,,,,,,,,,,,,,,,,,,,,,,,,,,,,,,,,,,,,,,,,,,,,,,,,,,,,,,,,,,,,,,,,,,,,,,,,,,,,,,,,,,,,,,,,,,,,,,,,,,,,
,,616b06e97addc4a9a638909e,2024-02-18_20h10.27.967,kallum_motion_pilot,2023.2.2,Win32,59.88023952,616b06e97addc4a9a638909e,65d2b6c8f2eece985d8e374c,65d2b837b83178b7b14aecba,0.0808,0.0809,1,86,248,92,1,sevenfive,,,,,,,,,,,,,,,,,,,,,,,,,,,,,,,,,,,,,,,,,,,,,,,,,,,,,,,,,,,,,,,,,,,,,,,,,,,,,,,,,,,,,,,,,,,,,,,,,,,,,,,,,,,,,,,,,,,,,,,,,,,,,,,,,,,,,,,,,
,,616b06e97addc4a9a638909e,2024-02-18_20h10.27.967,kallum_motion_pilot,2023.2.2,Win32,59.88023952,616b06e97addc4a9a638909e,65d2b6c8f2eece985d8e374c,65d2b837b83178b7b14aecba,0.081,0.0811,1,87,249,1,1,onethree,,,,,,,,,,,,,,,,,,,,,,,,,,,,,,,,,,,,,,,,,,,,,,,,,,,,,,,,,,,,,,,,,,,,,,,,,,,,,,,,,,,,,,,,,,,,,,,,,,,,,,,,,,,,,,,,,,,,,,,,,,,,,,,,,,,,,,,,,
,,616b06e97addc4a9a638909e,2024-02-18_20h10.27.967,kallum_motion_pilot,2023.2.2,Win32,59.88023952,616b06e97addc4a9a638909e,65d2b6c8f2eece985d8e374c,65d2b837b83178b7b14aecba,0.0812,0.0812,1,88,250,150,1,eightsix,,,,,,,,,,,,,,,,,,,,,,,,,,,,,,,,,,,,,,,,,,,,,,,,,,,,,,,,,,,,,,,,,,,,,,,,,,,,,,,,,,,,,,,,,,,,,,,,,,,,,,,,,,,,,,,,,,,,,,,,,,,,,,,,,,,,,,,,,
,,616b06e97addc4a9a638909e,2024-02-18_20h10.27.967,kallum_motion_pilot,2023.2.2,Win32,59.88023952,616b06e97addc4a9a638909e,65d2b6c8f2eece985d8e374c,65d2b837b83178b7b14aecba,0.0814,0.0815,1,89,251,10,1,twoone,,,,,,,,,,,,,,,,,,,,,,,,,,,,,,,,,,,,,,,,,,,,,,,,,,,,,,,,,,,,,,,,,,,,,,,,,,,,,,,,,,,,,,,,,,,,,,,,,,,,,,,,,,,,,,,,,,,,,,,,,,,,,,,,,,,,,,,,,
,,616b06e97addc4a9a638909e,2024-02-18_20h10.27.967,kallum_motion_pilot,2023.2.2,Win32,59.88023952,616b06e97addc4a9a638909e,65d2b6c8f2eece985d8e374c,65d2b837b83178b7b14aecba,0.0816,0.0816,1,90,252,78,1,fourtwo,,,,,,,,,,,,,,,,,,,,,,,,,,,,,,,,,,,,,,,,,,,,,,,,,,,,,,,,,,,,,,,,,,,,,,,,,,,,,,,,,,,,,,,,,,,,,,,,,,,,,,,,,,,,,,,,,,,,,,,,,,,,,,,,,,,,,,,,,
,,616b06e97addc4a9a638909e,2024-02-18_20h10.27.967,kallum_motion_pilot,2023.2.2,Win32,59.88023952,616b06e97addc4a9a638909e,65d2b6c8f2eece985d8e374c,65d2b837b83178b7b14aecba,0.0817,0.0818,1,91,253,31,1,fourthree,,,,,,,,,,,,,,,,,,,,,,,,,,,,,,,,,,,,,,,,,,,,,,,,,,,,,,,,,,,,,,,,,,,,,,,,,,,,,,,,,,,,,,,,,,,,,,,,,,,,,,,,,,,,,,,,,,,,,,,,,,,,,,,,,,,,,,,,,
,,616b06e97addc4a9a638909e,2024-02-18_20h10.27.967,kallum_motion_pilot,2023.2.2,Win32,59.88023952,616b06e97addc4a9a638909e,65d2b6c8f2eece985d8e374c,65d2b837b83178b7b14aecba,0.0819,0.082,1,92,254,97,1,fiveseven,,,,,,,,,,,,,,,,,,,,,,,,,,,,,,,,,,,,,,,,,,,,,,,,,,,,,,,,,,,,,,,,,,,,,,,,,,,,,,,,,,,,,,,,,,,,,,,,,,,,,,,,,,,,,,,,,,,,,,,,,,,,,,,,,,,,,,,,,
,,616b06e97addc4a9a638909e,2024-02-18_20h10.27.967,kallum_motion_pilot,2023.2.2,Win32,59.88023952,616b06e97addc4a9a638909e,65d2b6c8f2eece985d8e374c,65d2b837b83178b7b14aecba,0.0821,0.0822,1,93,255,57,1,onethree,,,,,,,,,,,,,,,,,,,,,,,,,,,,,,,,,,,,,,,,,,,,,,,,,,,,,,,,,,,,,,,,,,,,,,,,,,,,,,,,,,,,,,,,,,,,,,,,,,,,,,,,,,,,,,,,,,,,,,,,,,,,,,,,,,,,,,,,,
,,616b06e97addc4a9a638909e,2024-02-18_20h10.27.967,kallum_motion_pilot,2023.2.2,Win32,59.88023952,616b06e97addc4a9a638909e,65d2b6c8f2eece985d8e374c,65d2b837b83178b7b14aecba,0.0823,0.0824,1,94,256,26,1,twoone,,,,,,,,,,,,,,,,,,,,,,,,,,,,,,,,,,,,,,,,,,,,,,,,,,,,,,,,,,,,,,,,,,,,,,,,,,,,,,,,,,,,,,,,,,,,,,,,,,,,,,,,,,,,,,,,,,,,,,,,,,,,,,,,,,,,,,,,,
,,616b06e97addc4a9a638909e,2024-02-18_20h10.27.967,kallum_motion_pilot,2023.2.2,Win32,59.88023952,616b06e97addc4a9a638909e,65d2b6c8f2eece985d8e374c,65d2b837b83178b7b14aecba,0.0825,0.0826,1,95,257,143,1,eightseven,,,,,,,,,,,,,,,,,,,,,,,,,,,,,,,,,,,,,,,,,,,,,,,,,,,,,,,,,,,,,,,,,,,,,,,,,,,,,,,,,,,,,,,,,,,,,,,,,,,,,,,,,,,,,,,,,,,,,,,,,,,,,,,,,,,,,,,,,
,,616b06e97addc4a9a638909e,2024-02-18_20h10.27.967,kallum_motion_pilot,2023.2.2,Win32,59.88023952,616b06e97addc4a9a638909e,65d2b6c8f2eece985d8e374c,65d2b837b83178b7b14aecba,0.0827,0.0828,1,96,258,54,1,fourtwo,,,,,,,,,,,,,,,,,,,,,,,,,,,,,,,,,,,,,,,,,,,,,,,,,,,,,,,,,,,,,,,,,,,,,,,,,,,,,,,,,,,,,,,,,,,,,,,,,,,,,,,,,,,,,,,,,,,,,,,,,,,,,,,,,,,,,,,,,
,,616b06e97addc4a9a638909e,2024-02-18_20h10.27.967,kallum_motion_pilot,2023.2.2,Win32,59.88023952,616b06e97addc4a9a638909e,65d2b6c8f2eece985d8e374c,65d2b837b83178b7b14aecba,0.0829,0.0829,1,97,259,127,1,eightseven,,,,,,,,,,,,,,,,,,,,,,,,,,,,,,,,,,,,,,,,,,,,,,,,,,,,,,,,,,,,,,,,,,,,,,,,,,,,,,,,,,,,,,,,,,,,,,,,,,,,,,,,,,,,,,,,,,,,,,,,,,,,,,,,,,,,,,,,,
,,616b06e97addc4a9a638909e,2024-02-18_20h10.27.967,kallum_motion_pilot,2023.2.2,Win32,59.88023952,616b06e97addc4a9a638909e,65d2b6c8f2eece985d8e374c,65d2b837b83178b7b14aecba,0.083,0.0831,1,98,260,110,1,eightsix,,,,,,,,,,,,,,,,,,,,,,,,,,,,,,,,,,,,,,,,,,,,,,,,,,,,,,,,,,,,,,,,,,,,,,,,,,,,,,,,,,,,,,,,,,,,,,,,,,,,,,,,,,,,,,,,,,,,,,,,,,,,,,,,,,,,,,,,,
,,616b06e97addc4a9a638909e,2024-02-18_20h10.27.967,kallum_motion_pilot,2023.2.2,Win32,59.88023952,616b06e97addc4a9a638909e,65d2b6c8f2eece985d8e374c,65d2b837b83178b7b14aecba,0.0832,0.0833,1,99,261,121,1,fiveseven,,,,,,,,,,,,,,,,,,,,,,,,,,,,,,,,,,,,,,,,,,,,,,,,,,,,,,,,,,,,,,,,,,,,,,,,,,,,,,,,,,,,,,,,,,,,,,,,,,,,,,,,,,,,,,,,,,,,,,,,,,,,,,,,,,,,,,,,,
,,616b06e97addc4a9a638909e,2024-02-18_20h10.27.967,kallum_motion_pilot,2023.2.2,Win32,59.88023952,616b06e97addc4a9a638909e,65d2b6c8f2eece985d8e374c,65d2b837b83178b7b14aecba,0.0834,0.0835,1,100,262,100,1,sevenfive,,,,,,,,,,,,,,,,,,,,,,,,,,,,,,,,,,,,,,,,,,,,,,,,,,,,,,,,,,,,,,,,,,,,,,,,,,,,,,,,,,,,,,,,,,,,,,,,,,,,,,,,,,,,,,,,,,,,,,,,,,,,,,,,,,,,,,,,,
,,616b06e97addc4a9a638909e,2024-02-18_20h10.27.967,kallum_motion_pilot,2023.2.2,Win32,59.88023952,616b06e97addc4a9a638909e,65d2b6c8f2eece985d8e374c,65d2b837b83178b7b14aecba,0.0835,0.0837,1,101,263,95,1,eightseven,,,,,,,,,,,,,,,,,,,,,,,,,,,,,,,,,,,,,,,,,,,,,,,,,,,,,,,,,,,,,,,,,,,,,,,,,,,,,,,,,,,,,,,,,,,,,,,,,,,,,,,,,,,,,,,,,,,,,,,,,,,,,,,,,,,,,,,,,
,,616b06e97addc4a9a638909e,2024-02-18_20h10.27.967,kallum_motion_pilot,2023.2.2,Win32,59.88023952,616b06e97addc4a9a638909e,65d2b6c8f2eece985d8e374c,65d2b837b83178b7b14aecba,0.0837,0.0839,1,102,264,108,1,sevenfive,,,,,,,,,,,,,,,,,,,,,,,,,,,,,,,,,,,,,,,,,,,,,,,,,,,,,,,,,,,,,,,,,,,,,,,,,,,,,,,,,,,,,,,,,,,,,,,,,,,,,,,,,,,,,,,,,,,,,,,,,,,,,,,,,,,,,,,,,
,,616b06e97addc4a9a638909e,2024-02-18_20h10.27.967,kallum_motion_pilot,2023.2.2,Win32,59.88023952,616b06e97addc4a9a638909e,65d2b6c8f2eece985d8e374c,65d2b837b83178b7b14aecba,0.084,0.0841,1,103,265,41,1,onethree,,,,,,,,,,,,,,,,,,,,,,,,,,,,,,,,,,,,,,,,,,,,,,,,,,,,,,,,,,,,,,,,,,,,,,,,,,,,,,,,,,,,,,,,,,,,,,,,,,,,,,,,,,,,,,,,,,,,,,,,,,,,,,,,,,,,,,,,,
,,616b06e97addc4a9a638909e,2024-02-18_20h10.27.967,kallum_motion_pilot,2023.2.2,Win32,59.88023952,616b06e97addc4a9a638909e,65d2b6c8f2eece985d8e374c,65d2b837b83178b7b14aecba,0.0842,0.0843,1,104,266,84,1,sevenfive,,,,,,,,,,,,,,,,,,,,,,,,,,,,,,,,,,,,,,,,,,,,,,,,,,,,,,,,,,,,,,,,,,,,,,,,,,,,,,,,,,,,,,,,,,,,,,,,,,,,,,,,,,,,,,,,,,,,,,,,,,,,,,,,,,,,,,,,,
,,616b06e97addc4a9a638909e,2024-02-18_20h10.27.967,kallum_motion_pilot,2023.2.2,Win32,59.88023952,616b06e97addc4a9a638909e,65d2b6c8f2eece985d8e374c,65d2b837b83178b7b14aecba,0.0844,0.0845,1,105,267,117,1,seveneight,,,,,,,,,,,,,,,,,,,,,,,,,,,,,,,,,,,,,,,,,,,,,,,,,,,,,,,,,,,,,,,,,,,,,,,,,,,,,,,,,,,,,,,,,,,,,,,,,,,,,,,,,,,,,,,,,,,,,,,,,,,,,,,,,,,,,,,,,
,,616b06e97addc4a9a638909e,2024-02-18_20h10.27.967,kallum_motion_pilot,2023.2.2,Win32,59.88023952,616b06e97addc4a9a638909e,65d2b6c8f2eece985d8e374c,65d2b837b83178b7b14aecba,0.0846,0.0847,1,106,268,16,1,onetwo,,,,,,,,,,,,,,,,,,,,,,,,,,,,,,,,,,,,,,,,,,,,,,,,,,,,,,,,,,,,,,,,,,,,,,,,,,,,,,,,,,,,,,,,,,,,,,,,,,,,,,,,,,,,,,,,,,,,,,,,,,,,,,,,,,,,,,,,,
,,616b06e97addc4a9a638909e,2024-02-18_20h10.27.967,kallum_motion_pilot,2023.2.2,Win32,59.88023952,616b06e97addc4a9a638909e,65d2b6c8f2eece985d8e374c,65d2b837b83178b7b14aecba,0.0848,0.0849,1,107,269,90,1,sixfive,,,,,,,,,,,,,,,,,,,,,,,,,,,,,,,,,,,,,,,,,,,,,,,,,,,,,,,,,,,,,,,,,,,,,,,,,,,,,,,,,,,,,,,,,,,,,,,,,,,,,,,,,,,,,,,,,,,,,,,,,,,,,,,,,,,,,,,,,
,,616b06e97addc4a9a638909e,2024-02-18_20h10.27.967,kallum_motion_pilot,2023.2.2,Win32,59.88023952,616b06e97addc4a9a638909e,65d2b6c8f2eece985d8e374c,65d2b837b83178b7b14aecba,0.0849,0.0851,1,108,270,135,1,eightseven,,,,,,,,,,,,,,,,,,,,,,,,,,,,,,,,,,,,,,,,,,,,,,,,,,,,,,,,,,,,,,,,,,,,,,,,,,,,,,,,,,,,,,,,,,,,,,,,,,,,,,,,,,,,,,,,,,,,,,,,,,,,,,,,,,,,,,,,,
,,616b06e97addc4a9a638909e,2024-02-18_20h10.27.967,kallum_motion_pilot,2023.2.2,Win32,59.88023952,616b06e97addc4a9a638909e,65d2b6c8f2eece985d8e374c,65d2b837b83178b7b14aecba,0.0851,0.0853,1,109,271,71,1,fourthree,,,,,,,,,,,,,,,,,,,,,,,,,,,,,,,,,,,,,,,,,,,,,,,,,,,,,,,,,,,,,,,,,,,,,,,,,,,,,,,,,,,,,,,,,,,,,,,,,,,,,,,,,,,,,,,,,,,,,,,,,,,,,,,,,,,,,,,,,
,,616b06e97addc4a9a638909e,2024-02-18_20h10.27.967,kallum_motion_pilot,2023.2.2,Win32,59.88023952,616b06e97addc4a9a638909e,65d2b6c8f2eece985d8e374c,65d2b837b83178b7b14aecba,0.0853,0.0854,1,110,272,161,1,fiveseven,,,,,,,,,,,,,,,,,,,,,,,,,,,,,,,,,,,,,,,,,,,,,,,,,,,,,,,,,,,,,,,,,,,,,,,,,,,,,,,,,,,,,,,,,,,,,,,,,,,,,,,,,,,,,,,,,,,,,,,,,,,,,,,,,,,,,,,,,
,,616b06e97addc4a9a638909e,2024-02-18_20h10.27.967,kallum_motion_pilot,2023.2.2,Win32,59.88023952,616b06e97addc4a9a638909e,65d2b6c8f2eece985d8e374c,65d2b837b83178b7b14aecba,0.0855,0.0855,1,111,273,114,1,sixfive,,,,,,,,,,,,,,,,,,,,,,,,,,,,,,,,,,,,,,,,,,,,,,,,,,,,,,,,,,,,,,,,,,,,,,,,,,,,,,,,,,,,,,,,,,,,,,,,,,,,,,,,,,,,,,,,,,,,,,,,,,,,,,,,,,,,,,,,,
,,616b06e97addc4a9a638909e,2024-02-18_20h10.27.967,kallum_motion_pilot,2023.2.2,Win32,59.88023952,616b06e97addc4a9a638909e,65d2b6c8f2eece985d8e374c,65d2b837b83178b7b14aecba,0.0857,0.0858,1,112,274,51,1,twofour,,,,,,,,,,,,,,,,,,,,,,,,,,,,,,,,,,,,,,,,,,,,,,,,,,,,,,,,,,,,,,,,,,,,,,,,,,,,,,,,,,,,,,,,,,,,,,,,,,,,,,,,,,,,,,,,,,,,,,,,,,,,,,,,,,,,,,,,,
,,616b06e97addc4a9a638909e,2024-02-18_20h10.27.967,kallum_motion_pilot,2023.2.2,Win32,59.88023952,616b06e97addc4a9a638909e,65d2b6c8f2eece985d8e374c,65d2b837b83178b7b14aecba,0.0859,0.0859,1,113,275,132,1,sevenfive,,,,,,,,,,,,,,,,,,,,,,,,,,,,,,,,,,,,,,,,,,,,,,,,,,,,,,,,,,,,,,,,,,,,,,,,,,,,,,,,,,,,,,,,,,,,,,,,,,,,,,,,,,,,,,,,,,,,,,,,,,,,,,,,,,,,,,,,,
,,616b06e97addc4a9a638909e,2024-02-18_20h10.27.967,kallum_motion_pilot,2023.2.2,Win32,59.88023952,616b06e97addc4a9a638909e,65d2b6c8f2eece985d8e374c,65d2b837b83178b7b14aecba,0.086,0.0861,1,114,276,40,1,onetwo,,,,,,,,,,,,,,,,,,,,,,,,,,,,,,,,,,,,,,,,,,,,,,,,,,,,,,,,,,,,,,,,,,,,,,,,,,,,,,,,,,,,,,,,,,,,,,,,,,,,,,,,,,,,,,,,,,,,,,,,,,,,,,,,,,,,,,,,,
,,616b06e97addc4a9a638909e,2024-02-18_20h10.27.967,kallum_motion_pilot,2023.2.2,Win32,59.88023952,616b06e97addc4a9a638909e,65d2b6c8f2eece985d8e374c,65d2b837b83178b7b14aecba,0.0861,0.0863,1,115,277,75,1,twofour,,,,,,,,,,,,,,,,,,,,,,,,,,,,,,,,,,,,,,,,,,,,,,,,,,,,,,,,,,,,,,,,,,,,,,,,,,,,,,,,,,,,,,,,,,,,,,,,,,,,,,,,,,,,,,,,,,,,,,,,,,,,,,,,,,,,,,,,,
