startup.started,startup.stopped,Prolific ID*,date,expName,psychopyVersion,OS,frameRate,participant,study_id,session,stimpositions.started,stimpositions.stopped,hardcoded_stimulus_positions.thisRepN,hardcoded_stimulus_positions.thisTrialN,hardcoded_stimulus_positions.thisN,hardcoded_stimulus_positions.thisIndex,hardcoded_stimulus_positions.ran,StimulusPos,stimorientation.started,stimorientation.stopped,prac_stimorientation_import_loop.thisRepN,prac_stimorientation_import_loop.thisTrialN,prac_stimorientation_import_loop.thisN,prac_stimorientation_import_loop.thisIndex,prac_stimorientation_import_loop.ran,Stimorientation,welcome_instr.started,welcome_instr.stopped,key_resp.keys,key_resp.rt,key_resp.duration,response_steppedout_1.started,response_steppedout_1.stopped,key_resp_20.keys,key_resp_20.rt,key_resp_20.duration,response_steppedout_2.started,response_steppedout_2.stopped,key_resp_19.keys,key_resp_19.rt,key_resp_19.duration,stim_response_instr.started,stim_response_instr.stopped,key_resp_15.keys,key_resp_15.rt,key_resp_15.duration,direction_instr_2.started,direction_instr_2.stopped,key_resp_9.keys,key_resp_9.rt,key_resp_9.duration,instr_prac.started,instr_prac.stopped,key_resp_10.keys,key_resp_10.rt,key_resp_10.duration,Stim1_display_prac.started,Stim1_display_prac.stopped,Ecc,Circle1_ori,Circle2_ori,response_prac.started,similarity,response_time,response_prac.stopped,mouse_5.x,mouse_5.y,mouse_5.leftButton,mouse_5.midButton,mouse_5.rightButton,mouse_5.clicked_name,responseprac_feedback.started,responseprac_feedback.stopped,summary2_prac.started,summary2_prac.stopped,mouse_6.x,mouse_6.y,mouse_6.leftButton,mouse_6.midButton,mouse_6.rightButton,mouse_6.clicked_name,duringprac.thisRepN,duringprac.thisTrialN,duringprac.thisN,duringprac.thisIndex,duringprac.ran,begin.started,begin.stopped,key_resp_22.keys,key_resp_22.rt,key_resp_22.duration,Stim1_display.started,Stim1_display.stopped,circle1_ori,circle2_ori,circle1_SF,circle2_SF,response.started,response.stopped,mouse.x,mouse.y,mouse.leftButton,mouse.midButton,mouse.rightButton,mouse.clicked_name,trialnumber,double_pass.thisRepN,double_pass.thisTrialN,double_pass.thisN,double_pass.thisIndex,double_pass.ran,double_pass.order,main_trial.thisRepN,main_trial.thisTrialN,main_trial.thisN,main_trial.thisIndex,main_trial.ran,main_trial.order,Trial_Counter,Catch,Frequencies,response_2.started,response_2.stopped,mouse_2.x,mouse_2.y,mouse_2.leftButton,mouse_2.midButton,mouse_2.rightButton,mouse_2.clicked_name,special_trial.started,special_trial.stopped,catch_1.started,catch_1.stopped,mouse_3.x,mouse_3.y,mouse_3.leftButton,mouse_3.midButton,mouse_3.rightButton,catchresponse,catchnumber,response_time_catch,response_sum.started,response_sum.stopped,mouse_11.x,mouse_11.y,mouse_11.leftButton,mouse_11.midButton,mouse_11.rightButton,flip_presentation_sequence_for_double_pass.started,flip_presentation_sequence_for_double_pass.stopped,goodbye.started,goodbye.stopped,key_resp_3.keys,key_resp_3.rt,key_resp_3.duration
0.0005,0.0006,61719c5bd60f7885fceb4699,2024-02-18_20h47.03.254,kallum_motion_pilot,2023.2.2,Win32,59.52380952,61719c5bd60f7885fceb4699,65d2b6c8f2eece985d8e374c,65d2b88bc365b86d27d1c6eb,,,,,,,,,,,,,,,,,,,,,,,,,,,,,,,,,,,,,,,,,,,,,,,,,,,,,,,,,,,,,,,,,,,,,,,,,,,,,,,,,,,,,,,,,,,,,,,,,,,,,,,,,,,,,,,,,,,,,,,,,,,,,,,,,,,,,,,,,,,,,,,,,
,,61719c5bd60f7885fceb4699,2024-02-18_20h47.03.254,kallum_motion_pilot,2023.2.2,Win32,59.52380952,61719c5bd60f7885fceb4699,65d2b6c8f2eece985d8e374c,65d2b88bc365b86d27d1c6eb,0.0241,0.0242,0,0,0,63,1,fourthree,,,,,,,,,,,,,,,,,,,,,,,,,,,,,,,,,,,,,,,,,,,,,,,,,,,,,,,,,,,,,,,,,,,,,,,,,,,,,,,,,,,,,,,,,,,,,,,,,,,,,,,,,,,,,,,,,,,,,,,,,,,,,,,,,,,,,,,,,
,,61719c5bd60f7885fceb4699,2024-02-18_20h47.03.254,kallum_motion_pilot,2023.2.2,Win32,59.52380952,61719c5bd60f7885fceb4699,65d2b6c8f2eece985d8e374c,65d2b88bc365b86d27d1c6eb,0.0244,0.0245,0,1,1,59,1,twofour,,,,,,,,,,,,,,,,,,,,,,,,,,,,,,,,,,,,,,,,,,,,,,,,,,,,,,,,,,,,,,,,,,,,,,,,,,,,,,,,,,,,,,,,,,,,,,,,,,,,,,,,,,,,,,,,,,,,,,,,,,,,,,,,,,,,,,,,,
,,61719c5bd60f7885fceb4699,2024-02-18_20h47.03.254,kallum_motion_pilot,2023.2.2,Win32,59.52380952,61719c5bd60f7885fceb4699,65d2b6c8f2eece985d8e374c,65d2b88bc365b86d27d1c6eb,0.0246,0.0246,0,2,2,13,1,threefour,,,,,,,,,,,,,,,,,,,,,,,,,,,,,,,,,,,,,,,,,,,,,,,,,,,,,,,,,,,,,,,,,,,,,,,,,,,,,,,,,,,,,,,,,,,,,,,,,,,,,,,,,,,,,,,,,,,,,,,,,,,,,,,,,,,,,,,,,
,,61719c5bd60f7885fceb4699,2024-02-18_20h47.03.254,kallum_motion_pilot,2023.2.2,Win32,59.52380952,61719c5bd60f7885fceb4699,65d2b6c8f2eece985d8e374c,65d2b88bc365b86d27d1c6eb,0.0247,0.0248,0,3,3,37,1,threefour,,,,,,,,,,,,,,,,,,,,,,,,,,,,,,,,,,,,,,,,,,,,,,,,,,,,,,,,,,,,,,,,,,,,,,,,,,,,,,,,,,,,,,,,,,,,,,,,,,,,,,,,,,,,,,,,,,,,,,,,,,,,,,,,,,,,,,,,,
,,61719c5bd60f7885fceb4699,2024-02-18_20h47.03.254,kallum_motion_pilot,2023.2.2,Win32,59.52380952,61719c5bd60f7885fceb4699,65d2b6c8f2eece985d8e374c,65d2b88bc365b86d27d1c6eb,0.0248,0.0248,0,4,4,72,1,onetwo,,,,,,,,,,,,,,,,,,,,,,,,,,,,,,,,,,,,,,,,,,,,,,,,,,,,,,,,,,,,,,,,,,,,,,,,,,,,,,,,,,,,,,,,,,,,,,,,,,,,,,,,,,,,,,,,,,,,,,,,,,,,,,,,,,,,,,,,,
,,61719c5bd60f7885fceb4699,2024-02-18_20h47.03.254,kallum_motion_pilot,2023.2.2,Win32,59.52380952,61719c5bd60f7885fceb4699,65d2b6c8f2eece985d8e374c,65d2b88bc365b86d27d1c6eb,0.0249,0.0249,0,5,5,29,1,threefour,,,,,,,,,,,,,,,,,,,,,,,,,,,,,,,,,,,,,,,,,,,,,,,,,,,,,,,,,,,,,,,,,,,,,,,,,,,,,,,,,,,,,,,,,,,,,,,,,,,,,,,,,,,,,,,,,,,,,,,,,,,,,,,,,,,,,,,,,
,,61719c5bd60f7885fceb4699,2024-02-18_20h47.03.254,kallum_motion_pilot,2023.2.2,Win32,59.52380952,61719c5bd60f7885fceb4699,65d2b6c8f2eece985d8e374c,65d2b88bc365b86d27d1c6eb,0.025,0.0251,0,6,6,16,1,onetwo,,,,,,,,,,,,,,,,,,,,,,,,,,,,,,,,,,,,,,,,,,,,,,,,,,,,,,,,,,,,,,,,,,,,,,,,,,,,,,,,,,,,,,,,,,,,,,,,,,,,,,,,,,,,,,,,,,,,,,,,,,,,,,,,,,,,,,,,,
,,61719c5bd60f7885fceb4699,2024-02-18_20h47.03.254,kallum_motion_pilot,2023.2.2,Win32,59.52380952,61719c5bd60f7885fceb4699,65d2b6c8f2eece985d8e374c,65d2b88bc365b86d27d1c6eb,0.0251,0.0251,0,7,7,121,1,fiveseven,,,,,,,,,,,,,,,,,,,,,,,,,,,,,,,,,,,,,,,,,,,,,,,,,,,,,,,,,,,,,,,,,,,,,,,,,,,,,,,,,,,,,,,,,,,,,,,,,,,,,,,,,,,,,,,,,,,,,,,,,,,,,,,,,,,,,,,,,
,,61719c5bd60f7885fceb4699,2024-02-18_20h47.03.254,kallum_motion_pilot,2023.2.2,Win32,59.52380952,61719c5bd60f7885fceb4699,65d2b6c8f2eece985d8e374c,65d2b88bc365b86d27d1c6eb,0.0253,0.0253,0,8,8,33,1,onethree,,,,,,,,,,,,,,,,,,,,,,,,,,,,,,,,,,,,,,,,,,,,,,,,,,,,,,,,,,,,,,,,,,,,,,,,,,,,,,,,,,,,,,,,,,,,,,,,,,,,,,,,,,,,,,,,,,,,,,,,,,,,,,,,,,,,,,,,,
,,61719c5bd60f7885fceb4699,2024-02-18_20h47.03.254,kallum_motion_pilot,2023.2.2,Win32,59.52380952,61719c5bd60f7885fceb4699,65d2b6c8f2eece985d8e374c,65d2b88bc365b86d27d1c6eb,0.0255,0.0255,0,9,9,70,1,fourtwo,,,,,,,,,,,,,,,,,,,,,,,,,,,,,,,,,,,,,,,,,,,,,,,,,,,,,,,,,,,,,,,,,,,,,,,,,,,,,,,,,,,,,,,,,,,,,,,,,,,,,,,,,,,,,,,,,,,,,,,,,,,,,,,,,,,,,,,,,
,,61719c5bd60f7885fceb4699,2024-02-18_20h47.03.254,kallum_motion_pilot,2023.2.2,Win32,59.52380952,61719c5bd60f7885fceb4699,65d2b6c8f2eece985d8e374c,65d2b88bc365b86d27d1c6eb,0.0255,0.0255,0,10,10,126,1,eightsix,,,,,,,,,,,,,,,,,,,,,,,,,,,,,,,,,,,,,,,,,,,,,,,,,,,,,,,,,,,,,,,,,,,,,,,,,,,,,,,,,,,,,,,,,,,,,,,,,,,,,,,,,,,,,,,,,,,,,,,,,,,,,,,,,,,,,,,,,
,,61719c5bd60f7885fceb4699,2024-02-18_20h47.03.254,kallum_motion_pilot,2023.2.2,Win32,59.52380952,61719c5bd60f7885fceb4699,65d2b6c8f2eece985d8e374c,65d2b88bc365b86d27d1c6eb,0.0256,0.0256,0,11,11,35,1,twofour,,,,,,,,,,,,,,,,,,,,,,,,,,,,,,,,,,,,,,,,,,,,,,,,,,,,,,,,,,,,,,,,,,,,,,,,,,,,,,,,,,,,,,,,,,,,,,,,,,,,,,,,,,,,,,,,,,,,,,,,,,,,,,,,,,,,,,,,,
,,61719c5bd60f7885fceb4699,2024-02-18_20h47.03.254,kallum_motion_pilot,2023.2.2,Win32,59.52380952,61719c5bd60f7885fceb4699,65d2b6c8f2eece985d8e374c,65d2b88bc365b86d27d1c6eb,0.0257,0.0258,0,12,12,7,1,fourthree,,,,,,,,,,,,,,,,,,,,,,,,,,,,,,,,,,,,,,,,,,,,,,,,,,,,,,,,,,,,,,,,,,,,,,,,,,,,,,,,,,,,,,,,,,,,,,,,,,,,,,,,,,,,,,,,,,,,,,,,,,,,,,,,,,,,,,,,,
,,61719c5bd60f7885fceb4699,2024-02-18_20h47.03.254,kallum_motion_pilot,2023.2.2,Win32,59.52380952,61719c5bd60f7885fceb4699,65d2b6c8f2eece985d8e374c,65d2b88bc365b86d27d1c6eb,0.0258,0.0258,0,13,13,45,1,threefour,,,,,,,,,,,,,,,,,,,,,,,,,,,,,,,,,,,,,,,,,,,,,,,,,,,,,,,,,,,,,,,,,,,,,,,,,,,,,,,,,,,,,,,,,,,,,,,,,,,,,,,,,,,,,,,,,,,,,,,,,,,,,,,,,,,,,,,,,
,,61719c5bd60f7885fceb4699,2024-02-18_20h47.03.254,kallum_motion_pilot,2023.2.2,Win32,59.52380952,61719c5bd60f7885fceb4699,65d2b6c8f2eece985d8e374c,65d2b88bc365b86d27d1c6eb,0.026,0.026,0,14,14,112,1,fivesix,,,,,,,,,,,,,,,,,,,,,,,,,,,,,,,,,,,,,,,,,,,,,,,,,,,,,,,,,,,,,,,,,,,,,,,,,,,,,,,,,,,,,,,,,,,,,,,,,,,,,,,,,,,,,,,,,,,,,,,,,,,,,,,,,,,,,,,,,
,,61719c5bd60f7885fceb4699,2024-02-18_20h47.03.254,kallum_motion_pilot,2023.2.2,Win32,59.52380952,61719c5bd60f7885fceb4699,65d2b6c8f2eece985d8e374c,65d2b88bc365b86d27d1c6eb,0.026,0.026,0,15,15,102,1,eightsix,,,,,,,,,,,,,,,,,,,,,,,,,,,,,,,,,,,,,,,,,,,,,,,,,,,,,,,,,,,,,,,,,,,,,,,,,,,,,,,,,,,,,,,,,,,,,,,,,,,,,,,,,,,,,,,,,,,,,,,,,,,,,,,,,,,,,,,,,
,,61719c5bd60f7885fceb4699,2024-02-18_20h47.03.254,kallum_motion_pilot,2023.2.2,Win32,59.52380952,61719c5bd60f7885fceb4699,65d2b6c8f2eece985d8e374c,65d2b88bc365b86d27d1c6eb,0.0261,0.0262,0,16,16,118,1,eightsix,,,,,,,,,,,,,,,,,,,,,,,,,,,,,,,,,,,,,,,,,,,,,,,,,,,,,,,,,,,,,,,,,,,,,,,,,,,,,,,,,,,,,,,,,,,,,,,,,,,,,,,,,,,,,,,,,,,,,,,,,,,,,,,,,,,,,,,,,
,,61719c5bd60f7885fceb4699,2024-02-18_20h47.03.254,kallum_motion_pilot,2023.2.2,Win32,59.52380952,61719c5bd60f7885fceb4699,65d2b6c8f2eece985d8e374c,65d2b88bc365b86d27d1c6eb,0.0262,0.0262,0,17,17,86,1,eightsix,,,,,,,,,,,,,,,,,,,,,,,,,,,,,,,,,,,,,,,,,,,,,,,,,,,,,,,,,,,,,,,,,,,,,,,,,,,,,,,,,,,,,,,,,,,,,,,,,,,,,,,,,,,,,,,,,,,,,,,,,,,,,,,,,,,,,,,,,
,,61719c5bd60f7885fceb4699,2024-02-18_20h47.03.254,kallum_motion_pilot,2023.2.2,Win32,59.52380952,61719c5bd60f7885fceb4699,65d2b6c8f2eece985d8e374c,65d2b88bc365b86d27d1c6eb,0.0263,0.0264,0,18,18,65,1,onethree,,,,,,,,,,,,,,,,,,,,,,,,,,,,,,,,,,,,,,,,,,,,,,,,,,,,,,,,,,,,,,,,,,,,,,,,,,,,,,,,,,,,,,,,,,,,,,,,,,,,,,,,,,,,,,,,,,,,,,,,,,,,,,,,,,,,,,,,,
,,61719c5bd60f7885fceb4699,2024-02-18_20h47.03.254,kallum_motion_pilot,2023.2.2,Win32,59.52380952,61719c5bd60f7885fceb4699,65d2b6c8f2eece985d8e374c,65d2b88bc365b86d27d1c6eb,0.0264,0.0264,0,19,19,46,1,fourtwo,,,,,,,,,,,,,,,,,,,,,,,,,,,,,,,,,,,,,,,,,,,,,,,,,,,,,,,,,,,,,,,,,,,,,,,,,,,,,,,,,,,,,,,,,,,,,,,,,,,,,,,,,,,,,,,,,,,,,,,,,,,,,,,,,,,,,,,,,
,,61719c5bd60f7885fceb4699,2024-02-18_20h47.03.254,kallum_motion_pilot,2023.2.2,Win32,59.52380952,61719c5bd60f7885fceb4699,65d2b6c8f2eece985d8e374c,65d2b88bc365b86d27d1c6eb,0.0265,0.0265,0,20,20,50,1,twoone,,,,,,,,,,,,,,,,,,,,,,,,,,,,,,,,,,,,,,,,,,,,,,,,,,,,,,,,,,,,,,,,,,,,,,,,,,,,,,,,,,,,,,,,,,,,,,,,,,,,,,,,,,,,,,,,,,,,,,,,,,,,,,,,,,,,,,,,,
,,61719c5bd60f7885fceb4699,2024-02-18_20h47.03.254,kallum_motion_pilot,2023.2.2,Win32,59.52380952,61719c5bd60f7885fceb4699,65d2b6c8f2eece985d8e374c,65d2b88bc365b86d27d1c6eb,0.0266,0.0266,0,21,21,137,1,fiveseven,,,,,,,,,,,,,,,,,,,,,,,,,,,,,,,,,,,,,,,,,,,,,,,,,,,,,,,,,,,,,,,,,,,,,,,,,,,,,,,,,,,,,,,,,,,,,,,,,,,,,,,,,,,,,,,,,,,,,,,,,,,,,,,,,,,,,,,,,
,,61719c5bd60f7885fceb4699,2024-02-18_20h47.03.254,kallum_motion_pilot,2023.2.2,Win32,59.52380952,61719c5bd60f7885fceb4699,65d2b6c8f2eece985d8e374c,65d2b88bc365b86d27d1c6eb,0.0267,0.0267,0,22,22,155,1,sixeight,,,,,,,,,,,,,,,,,,,,,,,,,,,,,,,,,,,,,,,,,,,,,,,,,,,,,,,,,,,,,,,,,,,,,,,,,,,,,,,,,,,,,,,,,,,,,,,,,,,,,,,,,,,,,,,,,,,,,,,,,,,,,,,,,,,,,,,,,
,,61719c5bd60f7885fceb4699,2024-02-18_20h47.03.254,kallum_motion_pilot,2023.2.2,Win32,59.52380952,61719c5bd60f7885fceb4699,65d2b6c8f2eece985d8e374c,65d2b88bc365b86d27d1c6eb,0.0267,0.0268,0,23,23,67,1,twofour,,,,,,,,,,,,,,,,,,,,,,,,,,,,,,,,,,,,,,,,,,,,,,,,,,,,,,,,,,,,,,,,,,,,,,,,,,,,,,,,,,,,,,,,,,,,,,,,,,,,,,,,,,,,,,,,,,,,,,,,,,,,,,,,,,,,,,,,,
,,61719c5bd60f7885fceb4699,2024-02-18_20h47.03.254,kallum_motion_pilot,2023.2.2,Win32,59.52380952,61719c5bd60f7885fceb4699,65d2b6c8f2eece985d8e374c,65d2b88bc365b86d27d1c6eb,0.0269,0.0269,0,24,24,142,1,eightsix,,,,,,,,,,,,,,,,,,,,,,,,,,,,,,,,,,,,,,,,,,,,,,,,,,,,,,,,,,,,,,,,,,,,,,,,,,,,,,,,,,,,,,,,,,,,,,,,,,,,,,,,,,,,,,,,,,,,,,,,,,,,,,,,,,,,,,,,,
,,61719c5bd60f7885fceb4699,2024-02-18_20h47.03.254,kallum_motion_pilot,2023.2.2,Win32,59.52380952,61719c5bd60f7885fceb4699,65d2b6c8f2eece985d8e374c,65d2b88bc365b86d27d1c6eb,0.027,0.027,0,25,25,147,1,sixeight,,,,,,,,,,,,,,,,,,,,,,,,,,,,,,,,,,,,,,,,,,,,,,,,,,,,,,,,,,,,,,,,,,,,,,,,,,,,,,,,,,,,,,,,,,,,,,,,,,,,,,,,,,,,,,,,,,,,,,,,,,,,,,,,,,,,,,,,,
,,61719c5bd60f7885fceb4699,2024-02-18_20h47.03.254,kallum_motion_pilot,2023.2.2,Win32,59.52380952,61719c5bd60f7885fceb4699,65d2b6c8f2eece985d8e374c,65d2b88bc365b86d27d1c6eb,0.0271,0.0271,0,26,26,111,1,eightseven,,,,,,,,,,,,,,,,,,,,,,,,,,,,,,,,,,,,,,,,,,,,,,,,,,,,,,,,,,,,,,,,,,,,,,,,,,,,,,,,,,,,,,,,,,,,,,,,,,,,,,,,,,,,,,,,,,,,,,,,,,,,,,,,,,,,,,,,,
,,61719c5bd60f7885fceb4699,2024-02-18_20h47.03.254,kallum_motion_pilot,2023.2.2,Win32,59.52380952,61719c5bd60f7885fceb4699,65d2b6c8f2eece985d8e374c,65d2b88bc365b86d27d1c6eb,0.0272,0.0272,0,27,27,20,1,threeone,,,,,,,,,,,,,,,,,,,,,,,,,,,,,,,,,,,,,,,,,,,,,,,,,,,,,,,,,,,,,,,,,,,,,,,,,,,,,,,,,,,,,,,,,,,,,,,,,,,,,,,,,,,,,,,,,,,,,,,,,,,,,,,,,,,,,,,,,
,,61719c5bd60f7885fceb4699,2024-02-18_20h47.03.254,kallum_motion_pilot,2023.2.2,Win32,59.52380952,61719c5bd60f7885fceb4699,65d2b6c8f2eece985d8e374c,65d2b88bc365b86d27d1c6eb,0.0273,0.0273,0,28,28,30,1,fourtwo,,,,,,,,,,,,,,,,,,,,,,,,,,,,,,,,,,,,,,,,,,,,,,,,,,,,,,,,,,,,,,,,,,,,,,,,,,,,,,,,,,,,,,,,,,,,,,,,,,,,,,,,,,,,,,,,,,,,,,,,,,,,,,,,,,,,,,,,,
,,61719c5bd60f7885fceb4699,2024-02-18_20h47.03.254,kallum_motion_pilot,2023.2.2,Win32,59.52380952,61719c5bd60f7885fceb4699,65d2b6c8f2eece985d8e374c,65d2b88bc365b86d27d1c6eb,0.0274,0.0274,0,29,29,152,1,fivesix,,,,,,,,,,,,,,,,,,,,,,,,,,,,,,,,,,,,,,,,,,,,,,,,,,,,,,,,,,,,,,,,,,,,,,,,,,,,,,,,,,,,,,,,,,,,,,,,,,,,,,,,,,,,,,,,,,,,,,,,,,,,,,,,,,,,,,,,,
,,61719c5bd60f7885fceb4699,2024-02-18_20h47.03.254,kallum_motion_pilot,2023.2.2,Win32,59.52380952,61719c5bd60f7885fceb4699,65d2b6c8f2eece985d8e374c,65d2b88bc365b86d27d1c6eb,0.0275,0.0275,0,30,30,68,1,threeone,,,,,,,,,,,,,,,,,,,,,,,,,,,,,,,,,,,,,,,,,,,,,,,,,,,,,,,,,,,,,,,,,,,,,,,,,,,,,,,,,,,,,,,,,,,,,,,,,,,,,,,,,,,,,,,,,,,,,,,,,,,,,,,,,,,,,,,,,
,,61719c5bd60f7885fceb4699,2024-02-18_20h47.03.254,kallum_motion_pilot,2023.2.2,Win32,59.52380952,61719c5bd60f7885fceb4699,65d2b6c8f2eece985d8e374c,65d2b88bc365b86d27d1c6eb,0.0275,0.0276,0,31,31,160,1,fivesix,,,,,,,,,,,,,,,,,,,,,,,,,,,,,,,,,,,,,,,,,,,,,,,,,,,,,,,,,,,,,,,,,,,,,,,,,,,,,,,,,,,,,,,,,,,,,,,,,,,,,,,,,,,,,,,,,,,,,,,,,,,,,,,,,,,,,,,,,
,,61719c5bd60f7885fceb4699,2024-02-18_20h47.03.254,kallum_motion_pilot,2023.2.2,Win32,59.52380952,61719c5bd60f7885fceb4699,65d2b6c8f2eece985d8e374c,65d2b88bc365b86d27d1c6eb,0.0276,0.0277,0,32,32,14,1,fourtwo,,,,,,,,,,,,,,,,,,,,,,,,,,,,,,,,,,,,,,,,,,,,,,,,,,,,,,,,,,,,,,,,,,,,,,,,,,,,,,,,,,,,,,,,,,,,,,,,,,,,,,,,,,,,,,,,,,,,,,,,,,,,,,,,,,,,,,,,,
,,61719c5bd60f7885fceb4699,2024-02-18_20h47.03.254,kallum_motion_pilot,2023.2.2,Win32,59.52380952,61719c5bd60f7885fceb4699,65d2b6c8f2eece985d8e374c,65d2b88bc365b86d27d1c6eb,0.0277,0.0278,0,33,33,54,1,fourtwo,,,,,,,,,,,,,,,,,,,,,,,,,,,,,,,,,,,,,,,,,,,,,,,,,,,,,,,,,,,,,,,,,,,,,,,,,,,,,,,,,,,,,,,,,,,,,,,,,,,,,,,,,,,,,,,,,,,,,,,,,,,,,,,,,,,,,,,,,
,,61719c5bd60f7885fceb4699,2024-02-18_20h47.03.254,kallum_motion_pilot,2023.2.2,Win32,59.52380952,61719c5bd60f7885fceb4699,65d2b6c8f2eece985d8e374c,65d2b88bc365b86d27d1c6eb,0.0279,0.0279,0,34,34,124,1,sevenfive,,,,,,,,,,,,,,,,,,,,,,,,,,,,,,,,,,,,,,,,,,,,,,,,,,,,,,,,,,,,,,,,,,,,,,,,,,,,,,,,,,,,,,,,,,,,,,,,,,,,,,,,,,,,,,,,,,,,,,,,,,,,,,,,,,,,,,,,,
,,61719c5bd60f7885fceb4699,2024-02-18_20h47.03.254,kallum_motion_pilot,2023.2.2,Win32,59.52380952,61719c5bd60f7885fceb4699,65d2b6c8f2eece985d8e374c,65d2b88bc365b86d27d1c6eb,0.0279,0.028,0,35,35,136,1,fivesix,,,,,,,,,,,,,,,,,,,,,,,,,,,,,,,,,,,,,,,,,,,,,,,,,,,,,,,,,,,,,,,,,,,,,,,,,,,,,,,,,,,,,,,,,,,,,,,,,,,,,,,,,,,,,,,,,,,,,,,,,,,,,,,,,,,,,,,,,
,,61719c5bd60f7885fceb4699,2024-02-18_20h47.03.254,kallum_motion_pilot,2023.2.2,Win32,59.52380952,61719c5bd60f7885fceb4699,65d2b6c8f2eece985d8e374c,65d2b88bc365b86d27d1c6eb,0.028,0.0281,0,36,36,0,1,onetwo,,,,,,,,,,,,,,,,,,,,,,,,,,,,,,,,,,,,,,,,,,,,,,,,,,,,,,,,,,,,,,,,,,,,,,,,,,,,,,,,,,,,,,,,,,,,,,,,,,,,,,,,,,,,,,,,,,,,,,,,,,,,,,,,,,,,,,,,,
,,61719c5bd60f7885fceb4699,2024-02-18_20h47.03.254,kallum_motion_pilot,2023.2.2,Win32,59.52380952,61719c5bd60f7885fceb4699,65d2b6c8f2eece985d8e374c,65d2b88bc365b86d27d1c6eb,0.0281,0.0281,0,37,37,79,1,eightseven,,,,,,,,,,,,,,,,,,,,,,,,,,,,,,,,,,,,,,,,,,,,,,,,,,,,,,,,,,,,,,,,,,,,,,,,,,,,,,,,,,,,,,,,,,,,,,,,,,,,,,,,,,,,,,,,,,,,,,,,,,,,,,,,,,,,,,,,,
,,61719c5bd60f7885fceb4699,2024-02-18_20h47.03.254,kallum_motion_pilot,2023.2.2,Win32,59.52380952,61719c5bd60f7885fceb4699,65d2b6c8f2eece985d8e374c,65d2b88bc365b86d27d1c6eb,0.0283,0.0283,0,38,38,91,1,sixeight,,,,,,,,,,,,,,,,,,,,,,,,,,,,,,,,,,,,,,,,,,,,,,,,,,,,,,,,,,,,,,,,,,,,,,,,,,,,,,,,,,,,,,,,,,,,,,,,,,,,,,,,,,,,,,,,,,,,,,,,,,,,,,,,,,,,,,,,,
,,61719c5bd60f7885fceb4699,2024-02-18_20h47.03.254,kallum_motion_pilot,2023.2.2,Win32,59.52380952,61719c5bd60f7885fceb4699,65d2b6c8f2eece985d8e374c,65d2b88bc365b86d27d1c6eb,0.0284,0.0284,0,39,39,104,1,fivesix,,,,,,,,,,,,,,,,,,,,,,,,,,,,,,,,,,,,,,,,,,,,,,,,,,,,,,,,,,,,,,,,,,,,,,,,,,,,,,,,,,,,,,,,,,,,,,,,,,,,,,,,,,,,,,,,,,,,,,,,,,,,,,,,,,,,,,,,,
,,61719c5bd60f7885fceb4699,2024-02-18_20h47.03.254,kallum_motion_pilot,2023.2.2,Win32,59.52380952,61719c5bd60f7885fceb4699,65d2b6c8f2eece985d8e374c,65d2b88bc365b86d27d1c6eb,0.0285,0.0285,0,40,40,84,1,sevenfive,,,,,,,,,,,,,,,,,,,,,,,,,,,,,,,,,,,,,,,,,,,,,,,,,,,,,,,,,,,,,,,,,,,,,,,,,,,,,,,,,,,,,,,,,,,,,,,,,,,,,,,,,,,,,,,,,,,,,,,,,,,,,,,,,,,,,,,,,
,,61719c5bd60f7885fceb4699,2024-02-18_20h47.03.254,kallum_motion_pilot,2023.2.2,Win32,59.52380952,61719c5bd60f7885fceb4699,65d2b6c8f2eece985d8e374c,65d2b88bc365b86d27d1c6eb,0.0285,0.0285,0,41,41,10,1,twoone,,,,,,,,,,,,,,,,,,,,,,,,,,,,,,,,,,,,,,,,,,,,,,,,,,,,,,,,,,,,,,,,,,,,,,,,,,,,,,,,,,,,,,,,,,,,,,,,,,,,,,,,,,,,,,,,,,,,,,,,,,,,,,,,,,,,,,,,,
,,61719c5bd60f7885fceb4699,2024-02-18_20h47.03.254,kallum_motion_pilot,2023.2.2,Win32,59.52380952,61719c5bd60f7885fceb4699,65d2b6c8f2eece985d8e374c,65d2b88bc365b86d27d1c6eb,0.0287,0.0287,0,42,42,1,1,onethree,,,,,,,,,,,,,,,,,,,,,,,,,,,,,,,,,,,,,,,,,,,,,,,,,,,,,,,,,,,,,,,,,,,,,,,,,,,,,,,,,,,,,,,,,,,,,,,,,,,,,,,,,,,,,,,,,,,,,,,,,,,,,,,,,,,,,,,,,
,,61719c5bd60f7885fceb4699,2024-02-18_20h47.03.254,kallum_motion_pilot,2023.2.2,Win32,59.52380952,61719c5bd60f7885fceb4699,65d2b6c8f2eece985d8e374c,65d2b88bc365b86d27d1c6eb,0.0288,0.0288,0,43,43,127,1,eightseven,,,,,,,,,,,,,,,,,,,,,,,,,,,,,,,,,,,,,,,,,,,,,,,,,,,,,,,,,,,,,,,,,,,,,,,,,,,,,,,,,,,,,,,,,,,,,,,,,,,,,,,,,,,,,,,,,,,,,,,,,,,,,,,,,,,,,,,,,
,,61719c5bd60f7885fceb4699,2024-02-18_20h47.03.254,kallum_motion_pilot,2023.2.2,Win32,59.52380952,61719c5bd60f7885fceb4699,65d2b6c8f2eece985d8e374c,65d2b88bc365b86d27d1c6eb,0.0289,0.0289,0,44,44,134,1,eightsix,,,,,,,,,,,,,,,,,,,,,,,,,,,,,,,,,,,,,,,,,,,,,,,,,,,,,,,,,,,,,,,,,,,,,,,,,,,,,,,,,,,,,,,,,,,,,,,,,,,,,,,,,,,,,,,,,,,,,,,,,,,,,,,,,,,,,,,,,
,,61719c5bd60f7885fceb4699,2024-02-18_20h47.03.254,kallum_motion_pilot,2023.2.2,Win32,59.52380952,61719c5bd60f7885fceb4699,65d2b6c8f2eece985d8e374c,65d2b88bc365b86d27d1c6eb,0.029,0.029,0,45,45,77,1,threefour,,,,,,,,,,,,,,,,,,,,,,,,,,,,,,,,,,,,,,,,,,,,,,,,,,,,,,,,,,,,,,,,,,,,,,,,,,,,,,,,,,,,,,,,,,,,,,,,,,,,,,,,,,,,,,,,,,,,,,,,,,,,,,,,,,,,,,,,,
,,61719c5bd60f7885fceb4699,2024-02-18_20h47.03.254,kallum_motion_pilot,2023.2.2,Win32,59.52380952,61719c5bd60f7885fceb4699,65d2b6c8f2eece985d8e374c,65d2b88bc365b86d27d1c6eb,0.029,0.029,0,46,46,151,1,eightseven,,,,,,,,,,,,,,,,,,,,,,,,,,,,,,,,,,,,,,,,,,,,,,,,,,,,,,,,,,,,,,,,,,,,,,,,,,,,,,,,,,,,,,,,,,,,,,,,,,,,,,,,,,,,,,,,,,,,,,,,,,,,,,,,,,,,,,,,,
,,61719c5bd60f7885fceb4699,2024-02-18_20h47.03.254,kallum_motion_pilot,2023.2.2,Win32,59.52380952,61719c5bd60f7885fceb4699,65d2b6c8f2eece985d8e374c,65d2b88bc365b86d27d1c6eb,0.0291,0.0291,0,47,47,115,1,sixeight,,,,,,,,,,,,,,,,,,,,,,,,,,,,,,,,,,,,,,,,,,,,,,,,,,,,,,,,,,,,,,,,,,,,,,,,,,,,,,,,,,,,,,,,,,,,,,,,,,,,,,,,,,,,,,,,,,,,,,,,,,,,,,,,,,,,,,,,,
,,61719c5bd60f7885fceb4699,2024-02-18_20h47.03.254,kallum_motion_pilot,2023.2.2,Win32,59.52380952,61719c5bd60f7885fceb4699,65d2b6c8f2eece985d8e374c,65d2b88bc365b86d27d1c6eb,0.0292,0.0293,0,48,48,66,1,twoone,,,,,,,,,,,,,,,,,,,,,,,,,,,,,,,,,,,,,,,,,,,,,,,,,,,,,,,,,,,,,,,,,,,,,,,,,,,,,,,,,,,,,,,,,,,,,,,,,,,,,,,,,,,,,,,,,,,,,,,,,,,,,,,,,,,,,,,,,
,,61719c5bd60f7885fceb4699,2024-02-18_20h47.03.254,kallum_motion_pilot,2023.2.2,Win32,59.52380952,61719c5bd60f7885fceb4699,65d2b6c8f2eece985d8e374c,65d2b88bc365b86d27d1c6eb,0.0294,0.0294,0,49,49,149,1,seveneight,,,,,,,,,,,,,,,,,,,,,,,,,,,,,,,,,,,,,,,,,,,,,,,,,,,,,,,,,,,,,,,,,,,,,,,,,,,,,,,,,,,,,,,,,,,,,,,,,,,,,,,,,,,,,,,,,,,,,,,,,,,,,,,,,,,,,,,,,
,,61719c5bd60f7885fceb4699,2024-02-18_20h47.03.254,kallum_motion_pilot,2023.2.2,Win32,59.52380952,61719c5bd60f7885fceb4699,65d2b6c8f2eece985d8e374c,65d2b88bc365b86d27d1c6eb,0.0295,0.0295,0,50,50,89,1,fiveseven,,,,,,,,,,,,,,,,,,,,,,,,,,,,,,,,,,,,,,,,,,,,,,,,,,,,,,,,,,,,,,,,,,,,,,,,,,,,,,,,,,,,,,,,,,,,,,,,,,,,,,,,,,,,,,,,,,,,,,,,,,,,,,,,,,,,,,,,,
,,61719c5bd60f7885fceb4699,2024-02-18_20h47.03.254,kallum_motion_pilot,2023.2.2,Win32,59.52380952,61719c5bd60f7885fceb4699,65d2b6c8f2eece985d8e374c,65d2b88bc365b86d27d1c6eb,0.0296,0.0296,0,51,51,109,1,seveneight,,,,,,,,,,,,,,,,,,,,,,,,,,,,,,,,,,,,,,,,,,,,,,,,,,,,,,,,,,,,,,,,,,,,,,,,,,,,,,,,,,,,,,,,,,,,,,,,,,,,,,,,,,,,,,,,,,,,,,,,,,,,,,,,,,,,,,,,,
,,61719c5bd60f7885fceb4699,2024-02-18_20h47.03.254,kallum_motion_pilot,2023.2.2,Win32,59.52380952,61719c5bd60f7885fceb4699,65d2b6c8f2eece985d8e374c,65d2b88bc365b86d27d1c6eb,0.0296,0.0296,0,52,52,40,1,onetwo,,,,,,,,,,,,,,,,,,,,,,,,,,,,,,,,,,,,,,,,,,,,,,,,,,,,,,,,,,,,,,,,,,,,,,,,,,,,,,,,,,,,,,,,,,,,,,,,,,,,,,,,,,,,,,,,,,,,,,,,,,,,,,,,,,,,,,,,,
,,61719c5bd60f7885fceb4699,2024-02-18_20h47.03.254,kallum_motion_pilot,2023.2.2,Win32,59.52380952,61719c5bd60f7885fceb4699,65d2b6c8f2eece985d8e374c,65d2b88bc365b86d27d1c6eb,0.0297,0.0298,0,53,53,97,1,fiveseven,,,,,,,,,,,,,,,,,,,,,,,,,,,,,,,,,,,,,,,,,,,,,,,,,,,,,,,,,,,,,,,,,,,,,,,,,,,,,,,,,,,,,,,,,,,,,,,,,,,,,,,,,,,,,,,,,,,,,,,,,,,,,,,,,,,,,,,,,
,,61719c5bd60f7885fceb4699,2024-02-18_20h47.03.254,kallum_motion_pilot,2023.2.2,Win32,59.52380952,61719c5bd60f7885fceb4699,65d2b6c8f2eece985d8e374c,65d2b88bc365b86d27d1c6eb,0.0306,0.0306,0,54,54,150,1,eightsix,,,,,,,,,,,,,,,,,,,,,,,,,,,,,,,,,,,,,,,,,,,,,,,,,,,,,,,,,,,,,,,,,,,,,,,,,,,,,,,,,,,,,,,,,,,,,,,,,,,,,,,,,,,,,,,,,,,,,,,,,,,,,,,,,,,,,,,,,
,,61719c5bd60f7885fceb4699,2024-02-18_20h47.03.254,kallum_motion_pilot,2023.2.2,Win32,59.52380952,61719c5bd60f7885fceb4699,65d2b6c8f2eece985d8e374c,65d2b88bc365b86d27d1c6eb,0.0307,0.0308,0,55,55,87,1,eightseven,,,,,,,,,,,,,,,,,,,,,,,,,,,,,,,,,,,,,,,,,,,,,,,,,,,,,,,,,,,,,,,,,,,,,,,,,,,,,,,,,,,,,,,,,,,,,,,,,,,,,,,,,,,,,,,,,,,,,,,,,,,,,,,,,,,,,,,,,
,,61719c5bd60f7885fceb4699,2024-02-18_20h47.03.254,kallum_motion_pilot,2023.2.2,Win32,59.52380952,61719c5bd60f7885fceb4699,65d2b6c8f2eece985d8e374c,65d2b88bc365b86d27d1c6eb,0.0308,0.0308,0,56,56,153,1,fiveseven,,,,,,,,,,,,,,,,,,,,,,,,,,,,,,,,,,,,,,,,,,,,,,,,,,,,,,,,,,,,,,,,,,,,,,,,,,,,,,,,,,,,,,,,,,,,,,,,,,,,,,,,,,,,,,,,,,,,,,,,,,,,,,,,,,,,,,,,,
,,61719c5bd60f7885fceb4699,2024-02-18_20h47.03.254,kallum_motion_pilot,2023.2.2,Win32,59.52380952,61719c5bd60f7885fceb4699,65d2b6c8f2eece985d8e374c,65d2b88bc365b86d27d1c6eb,0.0309,0.031,0,57,57,22,1,fourtwo,,,,,,,,,,,,,,,,,,,,,,,,,,,,,,,,,,,,,,,,,,,,,,,,,,,,,,,,,,,,,,,,,,,,,,,,,,,,,,,,,,,,,,,,,,,,,,,,,,,,,,,,,,,,,,,,,,,,,,,,,,,,,,,,,,,,,,,,,
,,61719c5bd60f7885fceb4699,2024-02-18_20h47.03.254,kallum_motion_pilot,2023.2.2,Win32,59.52380952,61719c5bd60f7885fceb4699,65d2b6c8f2eece985d8e374c,65d2b88bc365b86d27d1c6eb,0.0311,0.0311,0,58,58,75,1,twofour,,,,,,,,,,,,,,,,,,,,,,,,,,,,,,,,,,,,,,,,,,,,,,,,,,,,,,,,,,,,,,,,,,,,,,,,,,,,,,,,,,,,,,,,,,,,,,,,,,,,,,,,,,,,,,,,,,,,,,,,,,,,,,,,,,,,,,,,,
,,61719c5bd60f7885fceb4699,2024-02-18_20h47.03.254,kallum_motion_pilot,2023.2.2,Win32,59.52380952,61719c5bd60f7885fceb4699,65d2b6c8f2eece985d8e374c,65d2b88bc365b86d27d1c6eb,0.0312,0.0312,0,59,59,144,1,fivesix,,,,,,,,,,,,,,,,,,,,,,,,,,,,,,,,,,,,,,,,,,,,,,,,,,,,,,,,,,,,,,,,,,,,,,,,,,,,,,,,,,,,,,,,,,,,,,,,,,,,,,,,,,,,,,,,,,,,,,,,,,,,,,,,,,,,,,,,,
,,61719c5bd60f7885fceb4699,2024-02-18_20h47.03.254,kallum_motion_pilot,2023.2.2,Win32,59.52380952,61719c5bd60f7885fceb4699,65d2b6c8f2eece985d8e374c,65d2b88bc365b86d27d1c6eb,0.0313,0.0313,0,60,60,47,1,fourthree,,,,,,,,,,,,,,,,,,,,,,,,,,,,,,,,,,,,,,,,,,,,,,,,,,,,,,,,,,,,,,,,,,,,,,,,,,,,,,,,,,,,,,,,,,,,,,,,,,,,,,,,,,,,,,,,,,,,,,,,,,,,,,,,,,,,,,,,,
,,61719c5bd60f7885fceb4699,2024-02-18_20h47.03.254,kallum_motion_pilot,2023.2.2,Win32,59.52380952,61719c5bd60f7885fceb4699,65d2b6c8f2eece985d8e374c,65d2b88bc365b86d27d1c6eb,0.0314,0.0314,0,61,61,157,1,seveneight,,,,,,,,,,,,,,,,,,,,,,,,,,,,,,,,,,,,,,,,,,,,,,,,,,,,,,,,,,,,,,,,,,,,,,,,,,,,,,,,,,,,,,,,,,,,,,,,,,,,,,,,,,,,,,,,,,,,,,,,,,,,,,,,,,,,,,,,,
,,61719c5bd60f7885fceb4699,2024-02-18_20h47.03.254,kallum_motion_pilot,2023.2.2,Win32,59.52380952,61719c5bd60f7885fceb4699,65d2b6c8f2eece985d8e374c,65d2b88bc365b86d27d1c6eb,0.0315,0.0316,0,62,62,4,1,threeone,,,,,,,,,,,,,,,,,,,,,,,,,,,,,,,,,,,,,,,,,,,,,,,,,,,,,,,,,,,,,,,,,,,,,,,,,,,,,,,,,,,,,,,,,,,,,,,,,,,,,,,,,,,,,,,,,,,,,,,,,,,,,,,,,,,,,,,,,
,,61719c5bd60f7885fceb4699,2024-02-18_20h47.03.254,kallum_motion_pilot,2023.2.2,Win32,59.52380952,61719c5bd60f7885fceb4699,65d2b6c8f2eece985d8e374c,65d2b88bc365b86d27d1c6eb,0.0316,0.0316,0,63,63,5,1,threefour,,,,,,,,,,,,,,,,,,,,,,,,,,,,,,,,,,,,,,,,,,,,,,,,,,,,,,,,,,,,,,,,,,,,,,,,,,,,,,,,,,,,,,,,,,,,,,,,,,,,,,,,,,,,,,,,,,,,,,,,,,,,,,,,,,,,,,,,,
,,61719c5bd60f7885fceb4699,2024-02-18_20h47.03.254,kallum_motion_pilot,2023.2.2,Win32,59.52380952,61719c5bd60f7885fceb4699,65d2b6c8f2eece985d8e374c,65d2b88bc365b86d27d1c6eb,0.0318,0.0318,0,64,64,146,1,sixfive,,,,,,,,,,,,,,,,,,,,,,,,,,,,,,,,,,,,,,,,,,,,,,,,,,,,,,,,,,,,,,,,,,,,,,,,,,,,,,,,,,,,,,,,,,,,,,,,,,,,,,,,,,,,,,,,,,,,,,,,,,,,,,,,,,,,,,,,,
,,61719c5bd60f7885fceb4699,2024-02-18_20h47.03.254,kallum_motion_pilot,2023.2.2,Win32,59.52380952,61719c5bd60f7885fceb4699,65d2b6c8f2eece985d8e374c,65d2b88bc365b86d27d1c6eb,0.0319,0.032,0,65,65,148,1,sevenfive,,,,,,,,,,,,,,,,,,,,,,,,,,,,,,,,,,,,,,,,,,,,,,,,,,,,,,,,,,,,,,,,,,,,,,,,,,,,,,,,,,,,,,,,,,,,,,,,,,,,,,,,,,,,,,,,,,,,,,,,,,,,,,,,,,,,,,,,,
,,61719c5bd60f7885fceb4699,2024-02-18_20h47.03.254,kallum_motion_pilot,2023.2.2,Win32,59.52380952,61719c5bd60f7885fceb4699,65d2b6c8f2eece985d8e374c,65d2b88bc365b86d27d1c6eb,0.032,0.032,0,66,66,116,1,sevenfive,,,,,,,,,,,,,,,,,,,,,,,,,,,,,,,,,,,,,,,,,,,,,,,,,,,,,,,,,,,,,,,,,,,,,,,,,,,,,,,,,,,,,,,,,,,,,,,,,,,,,,,,,,,,,,,,,,,,,,,,,,,,,,,,,,,,,,,,,
,,61719c5bd60f7885fceb4699,2024-02-18_20h47.03.254,kallum_motion_pilot,2023.2.2,Win32,59.52380952,61719c5bd60f7885fceb4699,65d2b6c8f2eece985d8e374c,65d2b88bc365b86d27d1c6eb,0.0321,0.0322,0,67,67,80,1,fivesix,,,,,,,,,,,,,,,,,,,,,,,,,,,,,,,,,,,,,,,,,,,,,,,,,,,,,,,,,,,,,,,,,,,,,,,,,,,,,,,,,,,,,,,,,,,,,,,,,,,,,,,,,,,,,,,,,,,,,,,,,,,,,,,,,,,,,,,,,
,,61719c5bd60f7885fceb4699,2024-02-18_20h47.03.254,kallum_motion_pilot,2023.2.2,Win32,59.52380952,61719c5bd60f7885fceb4699,65d2b6c8f2eece985d8e374c,65d2b88bc365b86d27d1c6eb,0.0323,0.0323,0,68,68,100,1,sevenfive,,,,,,,,,,,,,,,,,,,,,,,,,,,,,,,,,,,,,,,,,,,,,,,,,,,,,,,,,,,,,,,,,,,,,,,,,,,,,,,,,,,,,,,,,,,,,,,,,,,,,,,,,,,,,,,,,,,,,,,,,,,,,,,,,,,,,,,,,
,,61719c5bd60f7885fceb4699,2024-02-18_20h47.03.254,kallum_motion_pilot,2023.2.2,Win32,59.52380952,61719c5bd60f7885fceb4699,65d2b6c8f2eece985d8e374c,65d2b88bc365b86d27d1c6eb,0.0324,0.0324,0,69,69,11,1,twofour,,,,,,,,,,,,,,,,,,,,,,,,,,,,,,,,,,,,,,,,,,,,,,,,,,,,,,,,,,,,,,,,,,,,,,,,,,,,,,,,,,,,,,,,,,,,,,,,,,,,,,,,,,,,,,,,,,,,,,,,,,,,,,,,,,,,,,,,,
,,61719c5bd60f7885fceb4699,2024-02-18_20h47.03.254,kallum_motion_pilot,2023.2.2,Win32,59.52380952,61719c5bd60f7885fceb4699,65d2b6c8f2eece985d8e374c,65d2b88bc365b86d27d1c6eb,0.0325,0.0326,0,70,70,135,1,eightseven,,,,,,,,,,,,,,,,,,,,,,,,,,,,,,,,,,,,,,,,,,,,,,,,,,,,,,,,,,,,,,,,,,,,,,,,,,,,,,,,,,,,,,,,,,,,,,,,,,,,,,,,,,,,,,,,,,,,,,,,,,,,,,,,,,,,,,,,,
,,61719c5bd60f7885fceb4699,2024-02-18_20h47.03.254,kallum_motion_pilot,2023.2.2,Win32,59.52380952,61719c5bd60f7885fceb4699,65d2b6c8f2eece985d8e374c,65d2b88bc365b86d27d1c6eb,0.0327,0.0327,0,71,71,44,1,threeone,,,,,,,,,,,,,,,,,,,,,,,,,,,,,,,,,,,,,,,,,,,,,,,,,,,,,,,,,,,,,,,,,,,,,,,,,,,,,,,,,,,,,,,,,,,,,,,,,,,,,,,,,,,,,,,,,,,,,,,,,,,,,,,,,,,,,,,,,
,,61719c5bd60f7885fceb4699,2024-02-18_20h47.03.254,kallum_motion_pilot,2023.2.2,Win32,59.52380952,61719c5bd60f7885fceb4699,65d2b6c8f2eece985d8e374c,65d2b88bc365b86d27d1c6eb,0.0328,0.0328,0,72,72,119,1,eightseven,,,,,,,,,,,,,,,,,,,,,,,,,,,,,,,,,,,,,,,,,,,,,,,,,,,,,,,,,,,,,,,,,,,,,,,,,,,,,,,,,,,,,,,,,,,,,,,,,,,,,,,,,,,,,,,,,,,,,,,,,,,,,,,,,,,,,,,,,
,,61719c5bd60f7885fceb4699,2024-02-18_20h47.03.254,kallum_motion_pilot,2023.2.2,Win32,59.52380952,61719c5bd60f7885fceb4699,65d2b6c8f2eece985d8e374c,65d2b88bc365b86d27d1c6eb,0.0329,0.0329,0,73,73,113,1,fiveseven,,,,,,,,,,,,,,,,,,,,,,,,,,,,,,,,,,,,,,,,,,,,,,,,,,,,,,,,,,,,,,,,,,,,,,,,,,,,,,,,,,,,,,,,,,,,,,,,,,,,,,,,,,,,,,,,,,,,,,,,,,,,,,,,,,,,,,,,,
,,61719c5bd60f7885fceb4699,2024-02-18_20h47.03.254,kallum_motion_pilot,2023.2.2,Win32,59.52380952,61719c5bd60f7885fceb4699,65d2b6c8f2eece985d8e374c,65d2b88bc365b86d27d1c6eb,0.0331,0.0331,0,74,74,107,1,sixeight,,,,,,,,,,,,,,,,,,,,,,,,,,,,,,,,,,,,,,,,,,,,,,,,,,,,,,,,,,,,,,,,,,,,,,,,,,,,,,,,,,,,,,,,,,,,,,,,,,,,,,,,,,,,,,,,,,,,,,,,,,,,,,,,,,,,,,,,,
,,61719c5bd60f7885fceb4699,2024-02-18_20h47.03.254,kallum_motion_pilot,2023.2.2,Win32,59.52380952,61719c5bd60f7885fceb4699,65d2b6c8f2eece985d8e374c,65d2b88bc365b86d27d1c6eb,0.0332,0.0332,0,75,75,8,1,onetwo,,,,,,,,,,,,,,,,,,,,,,,,,,,,,,,,,,,,,,,,,,,,,,,,,,,,,,,,,,,,,,,,,,,,,,,,,,,,,,,,,,,,,,,,,,,,,,,,,,,,,,,,,,,,,,,,,,,,,,,,,,,,,,,,,,,,,,,,,
,,61719c5bd60f7885fceb4699,2024-02-18_20h47.03.254,kallum_motion_pilot,2023.2.2,Win32,59.52380952,61719c5bd60f7885fceb4699,65d2b6c8f2eece985d8e374c,65d2b88bc365b86d27d1c6eb,0.0332,0.0332,0,76,76,131,1,sixeight,,,,,,,,,,,,,,,,,,,,,,,,,,,,,,,,,,,,,,,,,,,,,,,,,,,,,,,,,,,,,,,,,,,,,,,,,,,,,,,,,,,,,,,,,,,,,,,,,,,,,,,,,,,,,,,,,,,,,,,,,,,,,,,,,,,,,,,,,
,,61719c5bd60f7885fceb4699,2024-02-18_20h47.03.254,kallum_motion_pilot,2023.2.2,Win32,59.52380952,61719c5bd60f7885fceb4699,65d2b6c8f2eece985d8e374c,65d2b88bc365b86d27d1c6eb,0.0334,0.0334,0,77,77,101,1,seveneight,,,,,,,,,,,,,,,,,,,,,,,,,,,,,,,,,,,,,,,,,,,,,,,,,,,,,,,,,,,,,,,,,,,,,,,,,,,,,,,,,,,,,,,,,,,,,,,,,,,,,,,,,,,,,,,,,,,,,,,,,,,,,,,,,,,,,,,,,
,,61719c5bd60f7885fceb4699,2024-02-18_20h47.03.254,kallum_motion_pilot,2023.2.2,Win32,59.52380952,61719c5bd60f7885fceb4699,65d2b6c8f2eece985d8e374c,65d2b88bc365b86d27d1c6eb,0.0335,0.0335,0,78,78,108,1,sevenfive,,,,,,,,,,,,,,,,,,,,,,,,,,,,,,,,,,,,,,,,,,,,,,,,,,,,,,,,,,,,,,,,,,,,,,,,,,,,,,,,,,,,,,,,,,,,,,,,,,,,,,,,,,,,,,,,,,,,,,,,,,,,,,,,,,,,,,,,,
,,61719c5bd60f7885fceb4699,2024-02-18_20h47.03.254,kallum_motion_pilot,2023.2.2,Win32,59.52380952,61719c5bd60f7885fceb4699,65d2b6c8f2eece985d8e374c,65d2b88bc365b86d27d1c6eb,0.0337,0.0337,0,79,79,141,1,seveneight,,,,,,,,,,,,,,,,,,,,,,,,,,,,,,,,,,,,,,,,,,,,,,,,,,,,,,,,,,,,,,,,,,,,,,,,,,,,,,,,,,,,,,,,,,,,,,,,,,,,,,,,,,,,,,,,,,,,,,,,,,,,,,,,,,,,,,,,,
,,61719c5bd60f7885fceb4699,2024-02-18_20h47.03.254,kallum_motion_pilot,2023.2.2,Win32,59.52380952,61719c5bd60f7885fceb4699,65d2b6c8f2eece985d8e374c,65d2b88bc365b86d27d1c6eb,0.0337,0.0338,0,80,80,25,1,onethree,,,,,,,,,,,,,,,,,,,,,,,,,,,,,,,,,,,,,,,,,,,,,,,,,,,,,,,,,,,,,,,,,,,,,,,,,,,,,,,,,,,,,,,,,,,,,,,,,,,,,,,,,,,,,,,,,,,,,,,,,,,,,,,,,,,,,,,,,
,,61719c5bd60f7885fceb4699,2024-02-18_20h47.03.254,kallum_motion_pilot,2023.2.2,Win32,59.52380952,61719c5bd60f7885fceb4699,65d2b6c8f2eece985d8e374c,65d2b88bc365b86d27d1c6eb,0.0338,0.0338,0,81,81,81,1,fiveseven,,,,,,,,,,,,,,,,,,,,,,,,,,,,,,,,,,,,,,,,,,,,,,,,,,,,,,,,,,,,,,,,,,,,,,,,,,,,,,,,,,,,,,,,,,,,,,,,,,,,,,,,,,,,,,,,,,,,,,,,,,,,,,,,,,,,,,,,,
,,61719c5bd60f7885fceb4699,2024-02-18_20h47.03.254,kallum_motion_pilot,2023.2.2,Win32,59.52380952,61719c5bd60f7885fceb4699,65d2b6c8f2eece985d8e374c,65d2b88bc365b86d27d1c6eb,0.0339,0.034,0,82,82,82,1,sixfive,,,,,,,,,,,,,,,,,,,,,,,,,,,,,,,,,,,,,,,,,,,,,,,,,,,,,,,,,,,,,,,,,,,,,,,,,,,,,,,,,,,,,,,,,,,,,,,,,,,,,,,,,,,,,,,,,,,,,,,,,,,,,,,,,,,,,,,,,
,,61719c5bd60f7885fceb4699,2024-02-18_20h47.03.254,kallum_motion_pilot,2023.2.2,Win32,59.52380952,61719c5bd60f7885fceb4699,65d2b6c8f2eece985d8e374c,65d2b88bc365b86d27d1c6eb,0.0341,0.0341,0,83,83,123,1,sixeight,,,,,,,,,,,,,,,,,,,,,,,,,,,,,,,,,,,,,,,,,,,,,,,,,,,,,,,,,,,,,,,,,,,,,,,,,,,,,,,,,,,,,,,,,,,,,,,,,,,,,,,,,,,,,,,,,,,,,,,,,,,,,,,,,,,,,,,,,
,,61719c5bd60f7885fceb4699,2024-02-18_20h47.03.254,kallum_motion_pilot,2023.2.2,Win32,59.52380952,61719c5bd60f7885fceb4699,65d2b6c8f2eece985d8e374c,65d2b88bc365b86d27d1c6eb,0.0342,0.0343,0,84,84,55,1,fourthree,,,,,,,,,,,,,,,,,,,,,,,,,,,,,,,,,,,,,,,,,,,,,,,,,,,,,,,,,,,,,,,,,,,,,,,,,,,,,,,,,,,,,,,,,,,,,,,,,,,,,,,,,,,,,,,,,,,,,,,,,,,,,,,,,,,,,,,,,
,,61719c5bd60f7885fceb4699,2024-02-18_20h47.03.254,kallum_motion_pilot,2023.2.2,Win32,59.52380952,61719c5bd60f7885fceb4699,65d2b6c8f2eece985d8e374c,65d2b88bc365b86d27d1c6eb,0.0343,0.0343,0,85,85,24,1,onetwo,,,,,,,,,,,,,,,,,,,,,,,,,,,,,,,,,,,,,,,,,,,,,,,,,,,,,,,,,,,,,,,,,,,,,,,,,,,,,,,,,,,,,,,,,,,,,,,,,,,,,,,,,,,,,,,,,,,,,,,,,,,,,,,,,,,,,,,,,
,,61719c5bd60f7885fceb4699,2024-02-18_20h47.03.254,kallum_motion_pilot,2023.2.2,Win32,59.52380952,61719c5bd60f7885fceb4699,65d2b6c8f2eece985d8e374c,65d2b88bc365b86d27d1c6eb,0.0345,0.0345,0,86,86,130,1,sixfive,,,,,,,,,,,,,,,,,,,,,,,,,,,,,,,,,,,,,,,,,,,,,,,,,,,,,,,,,,,,,,,,,,,,,,,,,,,,,,,,,,,,,,,,,,,,,,,,,,,,,,,,,,,,,,,,,,,,,,,,,,,,,,,,,,,,,,,,,
,,61719c5bd60f7885fceb4699,2024-02-18_20h47.03.254,kallum_motion_pilot,2023.2.2,Win32,59.52380952,61719c5bd60f7885fceb4699,65d2b6c8f2eece985d8e374c,65d2b88bc365b86d27d1c6eb,0.0346,0.0346,0,87,87,154,1,sixfive,,,,,,,,,,,,,,,,,,,,,,,,,,,,,,,,,,,,,,,,,,,,,,,,,,,,,,,,,,,,,,,,,,,,,,,,,,,,,,,,,,,,,,,,,,,,,,,,,,,,,,,,,,,,,,,,,,,,,,,,,,,,,,,,,,,,,,,,,
,,61719c5bd60f7885fceb4699,2024-02-18_20h47.03.254,kallum_motion_pilot,2023.2.2,Win32,59.52380952,61719c5bd60f7885fceb4699,65d2b6c8f2eece985d8e374c,65d2b88bc365b86d27d1c6eb,0.0347,0.0347,0,88,88,58,1,twoone,,,,,,,,,,,,,,,,,,,,,,,,,,,,,,,,,,,,,,,,,,,,,,,,,,,,,,,,,,,,,,,,,,,,,,,,,,,,,,,,,,,,,,,,,,,,,,,,,,,,,,,,,,,,,,,,,,,,,,,,,,,,,,,,,,,,,,,,,
,,61719c5bd60f7885fceb4699,2024-02-18_20h47.03.254,kallum_motion_pilot,2023.2.2,Win32,59.52380952,61719c5bd60f7885fceb4699,65d2b6c8f2eece985d8e374c,65d2b88bc365b86d27d1c6eb,0.0348,0.0348,0,89,89,129,1,fiveseven,,,,,,,,,,,,,,,,,,,,,,,,,,,,,,,,,,,,,,,,,,,,,,,,,,,,,,,,,,,,,,,,,,,,,,,,,,,,,,,,,,,,,,,,,,,,,,,,,,,,,,,,,,,,,,,,,,,,,,,,,,,,,,,,,,,,,,,,,
,,61719c5bd60f7885fceb4699,2024-02-18_20h47.03.254,kallum_motion_pilot,2023.2.2,Win32,59.52380952,61719c5bd60f7885fceb4699,65d2b6c8f2eece985d8e374c,65d2b88bc365b86d27d1c6eb,0.0349,0.0349,0,90,90,92,1,sevenfive,,,,,,,,,,,,,,,,,,,,,,,,,,,,,,,,,,,,,,,,,,,,,,,,,,,,,,,,,,,,,,,,,,,,,,,,,,,,,,,,,,,,,,,,,,,,,,,,,,,,,,,,,,,,,,,,,,,,,,,,,,,,,,,,,,,,,,,,,
,,61719c5bd60f7885fceb4699,2024-02-18_20h47.03.254,kallum_motion_pilot,2023.2.2,Win32,59.52380952,61719c5bd60f7885fceb4699,65d2b6c8f2eece985d8e374c,65d2b88bc365b86d27d1c6eb,0.0351,0.0351,0,91,91,90,1,sixfive,,,,,,,,,,,,,,,,,,,,,,,,,,,,,,,,,,,,,,,,,,,,,,,,,,,,,,,,,,,,,,,,,,,,,,,,,,,,,,,,,,,,,,,,,,,,,,,,,,,,,,,,,,,,,,,,,,,,,,,,,,,,,,,,,,,,,,,,,
,,61719c5bd60f7885fceb4699,2024-02-18_20h47.03.254,kallum_motion_pilot,2023.2.2,Win32,59.52380952,61719c5bd60f7885fceb4699,65d2b6c8f2eece985d8e374c,65d2b88bc365b86d27d1c6eb,0.0352,0.0352,0,92,92,159,1,eightseven,,,,,,,,,,,,,,,,,,,,,,,,,,,,,,,,,,,,,,,,,,,,,,,,,,,,,,,,,,,,,,,,,,,,,,,,,,,,,,,,,,,,,,,,,,,,,,,,,,,,,,,,,,,,,,,,,,,,,,,,,,,,,,,,,,,,,,,,,
,,61719c5bd60f7885fceb4699,2024-02-18_20h47.03.254,kallum_motion_pilot,2023.2.2,Win32,59.52380952,61719c5bd60f7885fceb4699,65d2b6c8f2eece985d8e374c,65d2b88bc365b86d27d1c6eb,0.0353,0.0353,0,93,93,64,1,onetwo,,,,,,,,,,,,,,,,,,,,,,,,,,,,,,,,,,,,,,,,,,,,,,,,,,,,,,,,,,,,,,,,,,,,,,,,,,,,,,,,,,,,,,,,,,,,,,,,,,,,,,,,,,,,,,,,,,,,,,,,,,,,,,,,,,,,,,,,,
,,61719c5bd60f7885fceb4699,2024-02-18_20h47.03.254,kallum_motion_pilot,2023.2.2,Win32,59.52380952,61719c5bd60f7885fceb4699,65d2b6c8f2eece985d8e374c,65d2b88bc365b86d27d1c6eb,0.0354,0.0354,0,94,94,94,1,eightsix,,,,,,,,,,,,,,,,,,,,,,,,,,,,,,,,,,,,,,,,,,,,,,,,,,,,,,,,,,,,,,,,,,,,,,,,,,,,,,,,,,,,,,,,,,,,,,,,,,,,,,,,,,,,,,,,,,,,,,,,,,,,,,,,,,,,,,,,,
,,61719c5bd60f7885fceb4699,2024-02-18_20h47.03.254,kallum_motion_pilot,2023.2.2,Win32,59.52380952,61719c5bd60f7885fceb4699,65d2b6c8f2eece985d8e374c,65d2b88bc365b86d27d1c6eb,0.0355,0.0355,0,95,95,128,1,fivesix,,,,,,,,,,,,,,,,,,,,,,,,,,,,,,,,,,,,,,,,,,,,,,,,,,,,,,,,,,,,,,,,,,,,,,,,,,,,,,,,,,,,,,,,,,,,,,,,,,,,,,,,,,,,,,,,,,,,,,,,,,,,,,,,,,,,,,,,,
,,61719c5bd60f7885fceb4699,2024-02-18_20h47.03.254,kallum_motion_pilot,2023.2.2,Win32,59.52380952,61719c5bd60f7885fceb4699,65d2b6c8f2eece985d8e374c,65d2b88bc365b86d27d1c6eb,0.0357,0.0357,0,96,96,49,1,onethree,,,,,,,,,,,,,,,,,,,,,,,,,,,,,,,,,,,,,,,,,,,,,,,,,,,,,,,,,,,,,,,,,,,,,,,,,,,,,,,,,,,,,,,,,,,,,,,,,,,,,,,,,,,,,,,,,,,,,,,,,,,,,,,,,,,,,,,,,
,,61719c5bd60f7885fceb4699,2024-02-18_20h47.03.254,kallum_motion_pilot,2023.2.2,Win32,59.52380952,61719c5bd60f7885fceb4699,65d2b6c8f2eece985d8e374c,65d2b88bc365b86d27d1c6eb,0.0358,0.0358,0,97,97,96,1,fivesix,,,,,,,,,,,,,,,,,,,,,,,,,,,,,,,,,,,,,,,,,,,,,,,,,,,,,,,,,,,,,,,,,,,,,,,,,,,,,,,,,,,,,,,,,,,,,,,,,,,,,,,,,,,,,,,,,,,,,,,,,,,,,,,,,,,,,,,,,
,,61719c5bd60f7885fceb4699,2024-02-18_20h47.03.254,kallum_motion_pilot,2023.2.2,Win32,59.52380952,61719c5bd60f7885fceb4699,65d2b6c8f2eece985d8e374c,65d2b88bc365b86d27d1c6eb,0.0359,0.0359,0,98,98,2,1,twoone,,,,,,,,,,,,,,,,,,,,,,,,,,,,,,,,,,,,,,,,,,,,,,,,,,,,,,,,,,,,,,,,,,,,,,,,,,,,,,,,,,,,,,,,,,,,,,,,,,,,,,,,,,,,,,,,,,,,,,,,,,,,,,,,,,,,,,,,,
,,61719c5bd60f7885fceb4699,2024-02-18_20h47.03.254,kallum_motion_pilot,2023.2.2,Win32,59.52380952,61719c5bd60f7885fceb4699,65d2b6c8f2eece985d8e374c,65d2b88bc365b86d27d1c6eb,0.0359,0.0361,0,99,99,69,1,threefour,,,,,,,,,,,,,,,,,,,,,,,,,,,,,,,,,,,,,,,,,,,,,,,,,,,,,,,,,,,,,,,,,,,,,,,,,,,,,,,,,,,,,,,,,,,,,,,,,,,,,,,,,,,,,,,,,,,,,,,,,,,,,,,,,,,,,,,,,
,,61719c5bd60f7885fceb4699,2024-02-18_20h47.03.254,kallum_motion_pilot,2023.2.2,Win32,59.52380952,61719c5bd60f7885fceb4699,65d2b6c8f2eece985d8e374c,65d2b88bc365b86d27d1c6eb,0.0361,0.0361,0,100,100,27,1,twofour,,,,,,,,,,,,,,,,,,,,,,,,,,,,,,,,,,,,,,,,,,,,,,,,,,,,,,,,,,,,,,,,,,,,,,,,,,,,,,,,,,,,,,,,,,,,,,,,,,,,,,,,,,,,,,,,,,,,,,,,,,,,,,,,,,,,,,,,,
,,61719c5bd60f7885fceb4699,2024-02-18_20h47.03.254,kallum_motion_pilot,2023.2.2,Win32,59.52380952,61719c5bd60f7885fceb4699,65d2b6c8f2eece985d8e374c,65d2b88bc365b86d27d1c6eb,0.0363,0.0363,0,101,101,120,1,fivesix,,,,,,,,,,,,,,,,,,,,,,,,,,,,,,,,,,,,,,,,,,,,,,,,,,,,,,,,,,,,,,,,,,,,,,,,,,,,,,,,,,,,,,,,,,,,,,,,,,,,,,,,,,,,,,,,,,,,,,,,,,,,,,,,,,,,,,,,,
,,61719c5bd60f7885fceb4699,2024-02-18_20h47.03.254,kallum_motion_pilot,2023.2.2,Win32,59.52380952,61719c5bd60f7885fceb4699,65d2b6c8f2eece985d8e374c,65d2b88bc365b86d27d1c6eb,0.0364,0.0365,0,102,102,76,1,threeone,,,,,,,,,,,,,,,,,,,,,,,,,,,,,,,,,,,,,,,,,,,,,,,,,,,,,,,,,,,,,,,,,,,,,,,,,,,,,,,,,,,,,,,,,,,,,,,,,,,,,,,,,,,,,,,,,,,,,,,,,,,,,,,,,,,,,,,,,
,,61719c5bd60f7885fceb4699,2024-02-18_20h47.03.254,kallum_motion_pilot,2023.2.2,Win32,59.52380952,61719c5bd60f7885fceb4699,65d2b6c8f2eece985d8e374c,65d2b88bc365b86d27d1c6eb,0.0366,0.0366,0,103,103,51,1,twofour,,,,,,,,,,,,,,,,,,,,,,,,,,,,,,,,,,,,,,,,,,,,,,,,,,,,,,,,,,,,,,,,,,,,,,,,,,,,,,,,,,,,,,,,,,,,,,,,,,,,,,,,,,,,,,,,,,,,,,,,,,,,,,,,,,,,,,,,,
,,61719c5bd60f7885fceb4699,2024-02-18_20h47.03.254,kallum_motion_pilot,2023.2.2,Win32,59.52380952,61719c5bd60f7885fceb4699,65d2b6c8f2eece985d8e374c,65d2b88bc365b86d27d1c6eb,0.0368,0.0368,0,104,104,52,1,threeone,,,,,,,,,,,,,,,,,,,,,,,,,,,,,,,,,,,,,,,,,,,,,,,,,,,,,,,,,,,,,,,,,,,,,,,,,,,,,,,,,,,,,,,,,,,,,,,,,,,,,,,,,,,,,,,,,,,,,,,,,,,,,,,,,,,,,,,,,
,,61719c5bd60f7885fceb4699,2024-02-18_20h47.03.254,kallum_motion_pilot,2023.2.2,Win32,59.52380952,61719c5bd60f7885fceb4699,65d2b6c8f2eece985d8e374c,65d2b88bc365b86d27d1c6eb,0.0369,0.037,0,105,105,19,1,twofour,,,,,,,,,,,,,,,,,,,,,,,,,,,,,,,,,,,,,,,,,,,,,,,,,,,,,,,,,,,,,,,,,,,,,,,,,,,,,,,,,,,,,,,,,,,,,,,,,,,,,,,,,,,,,,,,,,,,,,,,,,,,,,,,,,,,,,,,,
,,61719c5bd60f7885fceb4699,2024-02-18_20h47.03.254,kallum_motion_pilot,2023.2.2,Win32,59.52380952,61719c5bd60f7885fceb4699,65d2b6c8f2eece985d8e374c,65d2b88bc365b86d27d1c6eb,0.037,0.0371,0,106,106,61,1,threefour,,,,,,,,,,,,,,,,,,,,,,,,,,,,,,,,,,,,,,,,,,,,,,,,,,,,,,,,,,,,,,,,,,,,,,,,,,,,,,,,,,,,,,,,,,,,,,,,,,,,,,,,,,,,,,,,,,,,,,,,,,,,,,,,,,,,,,,,,
,,61719c5bd60f7885fceb4699,2024-02-18_20h47.03.254,kallum_motion_pilot,2023.2.2,Win32,59.52380952,61719c5bd60f7885fceb4699,65d2b6c8f2eece985d8e374c,65d2b88bc365b86d27d1c6eb,0.0372,0.0373,0,107,107,21,1,threefour,,,,,,,,,,,,,,,,,,,,,,,,,,,,,,,,,,,,,,,,,,,,,,,,,,,,,,,,,,,,,,,,,,,,,,,,,,,,,,,,,,,,,,,,,,,,,,,,,,,,,,,,,,,,,,,,,,,,,,,,,,,,,,,,,,,,,,,,,
,,61719c5bd60f7885fceb4699,2024-02-18_20h47.03.254,kallum_motion_pilot,2023.2.2,Win32,59.52380952,61719c5bd60f7885fceb4699,65d2b6c8f2eece985d8e374c,65d2b88bc365b86d27d1c6eb,0.0374,0.0374,0,108,108,140,1,sevenfive,,,,,,,,,,,,,,,,,,,,,,,,,,,,,,,,,,,,,,,,,,,,,,,,,,,,,,,,,,,,,,,,,,,,,,,,,,,,,,,,,,,,,,,,,,,,,,,,,,,,,,,,,,,,,,,,,,,,,,,,,,,,,,,,,,,,,,,,,
,,61719c5bd60f7885fceb4699,2024-02-18_20h47.03.254,kallum_motion_pilot,2023.2.2,Win32,59.52380952,61719c5bd60f7885fceb4699,65d2b6c8f2eece985d8e374c,65d2b88bc365b86d27d1c6eb,0.0376,0.0376,0,109,109,62,1,fourtwo,,,,,,,,,,,,,,,,,,,,,,,,,,,,,,,,,,,,,,,,,,,,,,,,,,,,,,,,,,,,,,,,,,,,,,,,,,,,,,,,,,,,,,,,,,,,,,,,,,,,,,,,,,,,,,,,,,,,,,,,,,,,,,,,,,,,,,,,,
,,61719c5bd60f7885fceb4699,2024-02-18_20h47.03.254,kallum_motion_pilot,2023.2.2,Win32,59.52380952,61719c5bd60f7885fceb4699,65d2b6c8f2eece985d8e374c,65d2b88bc365b86d27d1c6eb,0.0376,0.0379,0,110,110,132,1,sevenfive,,,,,,,,,,,,,,,,,,,,,,,,,,,,,,,,,,,,,,,,,,,,,,,,,,,,,,,,,,,,,,,,,,,,,,,,,,,,,,,,,,,,,,,,,,,,,,,,,,,,,,,,,,,,,,,,,,,,,,,,,,,,,,,,,,,,,,,,,
,,61719c5bd60f7885fceb4699,2024-02-18_20h47.03.254,kallum_motion_pilot,2023.2.2,Win32,59.52380952,61719c5bd60f7885fceb4699,65d2b6c8f2eece985d8e374c,65d2b88bc365b86d27d1c6eb,0.038,0.0381,0,111,111,6,1,fourtwo,,,,,,,,,,,,,,,,,,,,,,,,,,,,,,,,,,,,,,,,,,,,,,,,,,,,,,,,,,,,,,,,,,,,,,,,,,,,,,,,,,,,,,,,,,,,,,,,,,,,,,,,,,,,,,,,,,,,,,,,,,,,,,,,,,,,,,,,,
,,61719c5bd60f7885fceb4699,2024-02-18_20h47.03.254,kallum_motion_pilot,2023.2.2,Win32,59.52380952,61719c5bd60f7885fceb4699,65d2b6c8f2eece985d8e374c,65d2b88bc365b86d27d1c6eb,0.0382,0.0382,0,112,112,145,1,fiveseven,,,,,,,,,,,,,,,,,,,,,,,,,,,,,,,,,,,,,,,,,,,,,,,,,,,,,,,,,,,,,,,,,,,,,,,,,,,,,,,,,,,,,,,,,,,,,,,,,,,,,,,,,,,,,,,,,,,,,,,,,,,,,,,,,,,,,,,,,
,,61719c5bd60f7885fceb4699,2024-02-18_20h47.03.254,kallum_motion_pilot,2023.2.2,Win32,59.52380952,61719c5bd60f7885fceb4699,65d2b6c8f2eece985d8e374c,65d2b88bc365b86d27d1c6eb,0.0383,0.0383,0,113,113,93,1,seveneight,,,,,,,,,,,,,,,,,,,,,,,,,,,,,,,,,,,,,,,,,,,,,,,,,,,,,,,,,,,,,,,,,,,,,,,,,,,,,,,,,,,,,,,,,,,,,,,,,,,,,,,,,,,,,,,,,,,,,,,,,,,,,,,,,,,,,,,,,
,,61719c5bd60f7885fceb4699,2024-02-18_20h47.03.254,kallum_motion_pilot,2023.2.2,Win32,59.52380952,61719c5bd60f7885fceb4699,65d2b6c8f2eece985d8e374c,65d2b88bc365b86d27d1c6eb,0.0384,0.0385,0,114,114,48,1,onetwo,,,,,,,,,,,,,,,,,,,,,,,,,,,,,,,,,,,,,,,,,,,,,,,,,,,,,,,,,,,,,,,,,,,,,,,,,,,,,,,,,,,,,,,,,,,,,,,,,,,,,,,,,,,,,,,,,,,,,,,,,,,,,,,,,,,,,,,,,
,,61719c5bd60f7885fceb4699,2024-02-18_20h47.03.254,kallum_motion_pilot,2023.2.2,Win32,59.52380952,61719c5bd60f7885fceb4699,65d2b6c8f2eece985d8e374c,65d2b88bc365b86d27d1c6eb,0.0387,0.0387,0,115,115,114,1,sixfive,,,,,,,,,,,,,,,,,,,,,,,,,,,,,,,,,,,,,,,,,,,,,,,,,,,,,,,,,,,,,,,,,,,,,,,,,,,,,,,,,,,,,,,,,,,,,,,,,,,,,,,,,,,,,,,,,,,,,,,,,,,,,,,,,,,,,,,,,
,,61719c5bd60f7885fceb4699,2024-02-18_20h47.03.254,kallum_motion_pilot,2023.2.2,Win32,59.52380952,61719c5bd60f7885fceb4699,65d2b6c8f2eece985d8e374c,65d2b88bc365b86d27d1c6eb,0.0388,0.0388,0,116,116,110,1,eightsix,,,,,,,,,,,,,,,,,,,,,,,,,,,,,,,,,,,,,,,,,,,,,,,,,,,,,,,,,,,,,,,,,,,,,,,,,,,,,,,,,,,,,,,,,,,,,,,,,,,,,,,,,,,,,,,,,,,,,,,,,,,,,,,,,,,,,,,,,
,,61719c5bd60f7885fceb4699,2024-02-18_20h47.03.254,kallum_motion_pilot,2023.2.2,Win32,59.52380952,61719c5bd60f7885fceb4699,65d2b6c8f2eece985d8e374c,65d2b88bc365b86d27d1c6eb,0.0389,0.039,0,117,117,3,1,twofour,,,,,,,,,,,,,,,,,,,,,,,,,,,,,,,,,,,,,,,,,,,,,,,,,,,,,,,,,,,,,,,,,,,,,,,,,,,,,,,,,,,,,,,,,,,,,,,,,,,,,,,,,,,,,,,,,,,,,,,,,,,,,,,,,,,,,,,,,
,,61719c5bd60f7885fceb4699,2024-02-18_20h47.03.254,kallum_motion_pilot,2023.2.2,Win32,59.52380952,61719c5bd60f7885fceb4699,65d2b6c8f2eece985d8e374c,65d2b88bc365b86d27d1c6eb,0.039,0.039,0,118,118,103,1,eightseven,,,,,,,,,,,,,,,,,,,,,,,,,,,,,,,,,,,,,,,,,,,,,,,,,,,,,,,,,,,,,,,,,,,,,,,,,,,,,,,,,,,,,,,,,,,,,,,,,,,,,,,,,,,,,,,,,,,,,,,,,,,,,,,,,,,,,,,,,
,,61719c5bd60f7885fceb4699,2024-02-18_20h47.03.254,kallum_motion_pilot,2023.2.2,Win32,59.52380952,61719c5bd60f7885fceb4699,65d2b6c8f2eece985d8e374c,65d2b88bc365b86d27d1c6eb,0.0392,0.0392,0,119,119,106,1,sixfive,,,,,,,,,,,,,,,,,,,,,,,,,,,,,,,,,,,,,,,,,,,,,,,,,,,,,,,,,,,,,,,,,,,,,,,,,,,,,,,,,,,,,,,,,,,,,,,,,,,,,,,,,,,,,,,,,,,,,,,,,,,,,,,,,,,,,,,,,
,,61719c5bd60f7885fceb4699,2024-02-18_20h47.03.254,kallum_motion_pilot,2023.2.2,Win32,59.52380952,61719c5bd60f7885fceb4699,65d2b6c8f2eece985d8e374c,65d2b88bc365b86d27d1c6eb,0.0393,0.0394,0,120,120,23,1,fourthree,,,,,,,,,,,,,,,,,,,,,,,,,,,,,,,,,,,,,,,,,,,,,,,,,,,,,,,,,,,,,,,,,,,,,,,,,,,,,,,,,,,,,,,,,,,,,,,,,,,,,,,,,,,,,,,,,,,,,,,,,,,,,,,,,,,,,,,,,
,,61719c5bd60f7885fceb4699,2024-02-18_20h47.03.254,kallum_motion_pilot,2023.2.2,Win32,59.52380952,61719c5bd60f7885fceb4699,65d2b6c8f2eece985d8e374c,65d2b88bc365b86d27d1c6eb,0.0394,0.0395,0,121,121,85,1,seveneight,,,,,,,,,,,,,,,,,,,,,,,,,,,,,,,,,,,,,,,,,,,,,,,,,,,,,,,,,,,,,,,,,,,,,,,,,,,,,,,,,,,,,,,,,,,,,,,,,,,,,,,,,,,,,,,,,,,,,,,,,,,,,,,,,,,,,,,,,
,,61719c5bd60f7885fceb4699,2024-02-18_20h47.03.254,kallum_motion_pilot,2023.2.2,Win32,59.52380952,61719c5bd60f7885fceb4699,65d2b6c8f2eece985d8e374c,65d2b88bc365b86d27d1c6eb,0.0396,0.0396,0,122,122,26,1,twoone,,,,,,,,,,,,,,,,,,,,,,,,,,,,,,,,,,,,,,,,,,,,,,,,,,,,,,,,,,,,,,,,,,,,,,,,,,,,,,,,,,,,,,,,,,,,,,,,,,,,,,,,,,,,,,,,,,,,,,,,,,,,,,,,,,,,,,,,,
,,61719c5bd60f7885fceb4699,2024-02-18_20h47.03.254,kallum_motion_pilot,2023.2.2,Win32,59.52380952,61719c5bd60f7885fceb4699,65d2b6c8f2eece985d8e374c,65d2b88bc365b86d27d1c6eb,0.0397,0.0397,0,123,123,78,1,fourtwo,,,,,,,,,,,,,,,,,,,,,,,,,,,,,,,,,,,,,,,,,,,,,,,,,,,,,,,,,,,,,,,,,,,,,,,,,,,,,,,,,,,,,,,,,,,,,,,,,,,,,,,,,,,,,,,,,,,,,,,,,,,,,,,,,,,,,,,,,
,,61719c5bd60f7885fceb4699,2024-02-18_20h47.03.254,kallum_motion_pilot,2023.2.2,Win32,59.52380952,61719c5bd60f7885fceb4699,65d2b6c8f2eece985d8e374c,65d2b88bc365b86d27d1c6eb,0.0399,0.0399,0,124,124,41,1,onethree,,,,,,,,,,,,,,,,,,,,,,,,,,,,,,,,,,,,,,,,,,,,,,,,,,,,,,,,,,,,,,,,,,,,,,,,,,,,,,,,,,,,,,,,,,,,,,,,,,,,,,,,,,,,,,,,,,,,,,,,,,,,,,,,,,,,,,,,,
,,61719c5bd60f7885fceb4699,2024-02-18_20h47.03.254,kallum_motion_pilot,2023.2.2,Win32,59.52380952,61719c5bd60f7885fceb4699,65d2b6c8f2eece985d8e374c,65d2b88bc365b86d27d1c6eb,0.04,0.0401,0,125,125,43,1,twofour,,,,,,,,,,,,,,,,,,,,,,,,,,,,,,,,,,,,,,,,,,,,,,,,,,,,,,,,,,,,,,,,,,,,,,,,,,,,,,,,,,,,,,,,,,,,,,,,,,,,,,,,,,,,,,,,,,,,,,,,,,,,,,,,,,,,,,,,,
,,61719c5bd60f7885fceb4699,2024-02-18_20h47.03.254,kallum_motion_pilot,2023.2.2,Win32,59.52380952,61719c5bd60f7885fceb4699,65d2b6c8f2eece985d8e374c,65d2b88bc365b86d27d1c6eb,0.0402,0.0402,0,126,126,117,1,seveneight,,,,,,,,,,,,,,,,,,,,,,,,,,,,,,,,,,,,,,,,,,,,,,,,,,,,,,,,,,,,,,,,,,,,,,,,,,,,,,,,,,,,,,,,,,,,,,,,,,,,,,,,,,,,,,,,,,,,,,,,,,,,,,,,,,,,,,,,,
,,61719c5bd60f7885fceb4699,2024-02-18_20h47.03.254,kallum_motion_pilot,2023.2.2,Win32,59.52380952,61719c5bd60f7885fceb4699,65d2b6c8f2eece985d8e374c,65d2b88bc365b86d27d1c6eb,0.0403,0.0403,0,127,127,88,1,fivesix,,,,,,,,,,,,,,,,,,,,,,,,,,,,,,,,,,,,,,,,,,,,,,,,,,,,,,,,,,,,,,,,,,,,,,,,,,,,,,,,,,,,,,,,,,,,,,,,,,,,,,,,,,,,,,,,,,,,,,,,,,,,,,,,,,,,,,,,,
,,61719c5bd60f7885fceb4699,2024-02-18_20h47.03.254,kallum_motion_pilot,2023.2.2,Win32,59.52380952,61719c5bd60f7885fceb4699,65d2b6c8f2eece985d8e374c,65d2b88bc365b86d27d1c6eb,0.0405,0.0405,0,128,128,42,1,twoone,,,,,,,,,,,,,,,,,,,,,,,,,,,,,,,,,,,,,,,,,,,,,,,,,,,,,,,,,,,,,,,,,,,,,,,,,,,,,,,,,,,,,,,,,,,,,,,,,,,,,,,,,,,,,,,,,,,,,,,,,,,,,,,,,,,,,,,,,
,,61719c5bd60f7885fceb4699,2024-02-18_20h47.03.254,kallum_motion_pilot,2023.2.2,Win32,59.52380952,61719c5bd60f7885fceb4699,65d2b6c8f2eece985d8e374c,65d2b88bc365b86d27d1c6eb,0.0406,0.0406,0,129,129,17,1,onethree,,,,,,,,,,,,,,,,,,,,,,,,,,,,,,,,,,,,,,,,,,,,,,,,,,,,,,,,,,,,,,,,,,,,,,,,,,,,,,,,,,,,,,,,,,,,,,,,,,,,,,,,,,,,,,,,,,,,,,,,,,,,,,,,,,,,,,,,,
,,61719c5bd60f7885fceb4699,2024-02-18_20h47.03.254,kallum_motion_pilot,2023.2.2,Win32,59.52380952,61719c5bd60f7885fceb4699,65d2b6c8f2eece985d8e374c,65d2b88bc365b86d27d1c6eb,0.0407,0.0407,0,130,130,31,1,fourthree,,,,,,,,,,,,,,,,,,,,,,,,,,,,,,,,,,,,,,,,,,,,,,,,,,,,,,,,,,,,,,,,,,,,,,,,,,,,,,,,,,,,,,,,,,,,,,,,,,,,,,,,,,,,,,,,,,,,,,,,,,,,,,,,,,,,,,,,,
,,61719c5bd60f7885fceb4699,2024-02-18_20h47.03.254,kallum_motion_pilot,2023.2.2,Win32,59.52380952,61719c5bd60f7885fceb4699,65d2b6c8f2eece985d8e374c,65d2b88bc365b86d27d1c6eb,0.0409,0.0409,0,131,131,139,1,sixeight,,,,,,,,,,,,,,,,,,,,,,,,,,,,,,,,,,,,,,,,,,,,,,,,,,,,,,,,,,,,,,,,,,,,,,,,,,,,,,,,,,,,,,,,,,,,,,,,,,,,,,,,,,,,,,,,,,,,,,,,,,,,,,,,,,,,,,,,,
,,61719c5bd60f7885fceb4699,2024-02-18_20h47.03.254,kallum_motion_pilot,2023.2.2,Win32,59.52380952,61719c5bd60f7885fceb4699,65d2b6c8f2eece985d8e374c,65d2b88bc365b86d27d1c6eb,0.0409,0.041,0,132,132,98,1,sixfive,,,,,,,,,,,,,,,,,,,,,,,,,,,,,,,,,,,,,,,,,,,,,,,,,,,,,,,,,,,,,,,,,,,,,,,,,,,,,,,,,,,,,,,,,,,,,,,,,,,,,,,,,,,,,,,,,,,,,,,,,,,,,,,,,,,,,,,,,
,,61719c5bd60f7885fceb4699,2024-02-18_20h47.03.254,kallum_motion_pilot,2023.2.2,Win32,59.52380952,61719c5bd60f7885fceb4699,65d2b6c8f2eece985d8e374c,65d2b88bc365b86d27d1c6eb,0.0411,0.0412,0,133,133,125,1,seveneight,,,,,,,,,,,,,,,,,,,,,,,,,,,,,,,,,,,,,,,,,,,,,,,,,,,,,,,,,,,,,,,,,,,,,,,,,,,,,,,,,,,,,,,,,,,,,,,,,,,,,,,,,,,,,,,,,,,,,,,,,,,,,,,,,,,,,,,,,
,,61719c5bd60f7885fceb4699,2024-02-18_20h47.03.254,kallum_motion_pilot,2023.2.2,Win32,59.52380952,61719c5bd60f7885fceb4699,65d2b6c8f2eece985d8e374c,65d2b88bc365b86d27d1c6eb,0.0413,0.0413,0,134,134,83,1,sixeight,,,,,,,,,,,,,,,,,,,,,,,,,,,,,,,,,,,,,,,,,,,,,,,,,,,,,,,,,,,,,,,,,,,,,,,,,,,,,,,,,,,,,,,,,,,,,,,,,,,,,,,,,,,,,,,,,,,,,,,,,,,,,,,,,,,,,,,,,
,,61719c5bd60f7885fceb4699,2024-02-18_20h47.03.254,kallum_motion_pilot,2023.2.2,Win32,59.52380952,61719c5bd60f7885fceb4699,65d2b6c8f2eece985d8e374c,65d2b88bc365b86d27d1c6eb,0.042,0.042,0,135,135,105,1,fiveseven,,,,,,,,,,,,,,,,,,,,,,,,,,,,,,,,,,,,,,,,,,,,,,,,,,,,,,,,,,,,,,,,,,,,,,,,,,,,,,,,,,,,,,,,,,,,,,,,,,,,,,,,,,,,,,,,,,,,,,,,,,,,,,,,,,,,,,,,,
,,61719c5bd60f7885fceb4699,2024-02-18_20h47.03.254,kallum_motion_pilot,2023.2.2,Win32,59.52380952,61719c5bd60f7885fceb4699,65d2b6c8f2eece985d8e374c,65d2b88bc365b86d27d1c6eb,0.0422,0.0422,0,136,136,39,1,fourthree,,,,,,,,,,,,,,,,,,,,,,,,,,,,,,,,,,,,,,,,,,,,,,,,,,,,,,,,,,,,,,,,,,,,,,,,,,,,,,,,,,,,,,,,,,,,,,,,,,,,,,,,,,,,,,,,,,,,,,,,,,,,,,,,,,,,,,,,,
,,61719c5bd60f7885fceb4699,2024-02-18_20h47.03.254,kallum_motion_pilot,2023.2.2,Win32,59.52380952,61719c5bd60f7885fceb4699,65d2b6c8f2eece985d8e374c,65d2b88bc365b86d27d1c6eb,0.0423,0.0424,0,137,137,161,1,fiveseven,,,,,,,,,,,,,,,,,,,,,,,,,,,,,,,,,,,,,,,,,,,,,,,,,,,,,,,,,,,,,,,,,,,,,,,,,,,,,,,,,,,,,,,,,,,,,,,,,,,,,,,,,,,,,,,,,,,,,,,,,,,,,,,,,,,,,,,,,
,,61719c5bd60f7885fceb4699,2024-02-18_20h47.03.254,kallum_motion_pilot,2023.2.2,Win32,59.52380952,61719c5bd60f7885fceb4699,65d2b6c8f2eece985d8e374c,65d2b88bc365b86d27d1c6eb,0.0425,0.0425,0,138,138,133,1,seveneight,,,,,,,,,,,,,,,,,,,,,,,,,,,,,,,,,,,,,,,,,,,,,,,,,,,,,,,,,,,,,,,,,,,,,,,,,,,,,,,,,,,,,,,,,,,,,,,,,,,,,,,,,,,,,,,,,,,,,,,,,,,,,,,,,,,,,,,,,
,,61719c5bd60f7885fceb4699,2024-02-18_20h47.03.254,kallum_motion_pilot,2023.2.2,Win32,59.52380952,61719c5bd60f7885fceb4699,65d2b6c8f2eece985d8e374c,65d2b88bc365b86d27d1c6eb,0.0426,0.0427,0,139,139,156,1,sevenfive,,,,,,,,,,,,,,,,,,,,,,,,,,,,,,,,,,,,,,,,,,,,,,,,,,,,,,,,,,,,,,,,,,,,,,,,,,,,,,,,,,,,,,,,,,,,,,,,,,,,,,,,,,,,,,,,,,,,,,,,,,,,,,,,,,,,,,,,,
,,61719c5bd60f7885fceb4699,2024-02-18_20h47.03.254,kallum_motion_pilot,2023.2.2,Win32,59.52380952,61719c5bd60f7885fceb4699,65d2b6c8f2eece985d8e374c,65d2b88bc365b86d27d1c6eb,0.0427,0.0427,0,140,140,9,1,onethree,,,,,,,,,,,,,,,,,,,,,,,,,,,,,,,,,,,,,,,,,,,,,,,,,,,,,,,,,,,,,,,,,,,,,,,,,,,,,,,,,,,,,,,,,,,,,,,,,,,,,,,,,,,,,,,,,,,,,,,,,,,,,,,,,,,,,,,,,
,,61719c5bd60f7885fceb4699,2024-02-18_20h47.03.254,kallum_motion_pilot,2023.2.2,Win32,59.52380952,61719c5bd60f7885fceb4699,65d2b6c8f2eece985d8e374c,65d2b88bc365b86d27d1c6eb,0.0428,0.0429,0,141,141,71,1,fourthree,,,,,,,,,,,,,,,,,,,,,,,,,,,,,,,,,,,,,,,,,,,,,,,,,,,,,,,,,,,,,,,,,,,,,,,,,,,,,,,,,,,,,,,,,,,,,,,,,,,,,,,,,,,,,,,,,,,,,,,,,,,,,,,,,,,,,,,,,
,,61719c5bd60f7885fceb4699,2024-02-18_20h47.03.254,kallum_motion_pilot,2023.2.2,Win32,59.52380952,61719c5bd60f7885fceb4699,65d2b6c8f2eece985d8e374c,65d2b88bc365b86d27d1c6eb,0.043,0.043,0,142,142,36,1,threeone,,,,,,,,,,,,,,,,,,,,,,,,,,,,,,,,,,,,,,,,,,,,,,,,,,,,,,,,,,,,,,,,,,,,,,,,,,,,,,,,,,,,,,,,,,,,,,,,,,,,,,,,,,,,,,,,,,,,,,,,,,,,,,,,,,,,,,,,,
,,61719c5bd60f7885fceb4699,2024-02-18_20h47.03.254,kallum_motion_pilot,2023.2.2,Win32,59.52380952,61719c5bd60f7885fceb4699,65d2b6c8f2eece985d8e374c,65d2b88bc365b86d27d1c6eb,0.0431,0.0431,0,143,143,57,1,onethree,,,,,,,,,,,,,,,,,,,,,,,,,,,,,,,,,,,,,,,,,,,,,,,,,,,,,,,,,,,,,,,,,,,,,,,,,,,,,,,,,,,,,,,,,,,,,,,,,,,,,,,,,,,,,,,,,,,,,,,,,,,,,,,,,,,,,,,,,
,,61719c5bd60f7885fceb4699,2024-02-18_20h47.03.254,kallum_motion_pilot,2023.2.2,Win32,59.52380952,61719c5bd60f7885fceb4699,65d2b6c8f2eece985d8e374c,65d2b88bc365b86d27d1c6eb,0.0432,0.0433,0,144,144,60,1,threeone,,,,,,,,,,,,,,,,,,,,,,,,,,,,,,,,,,,,,,,,,,,,,,,,,,,,,,,,,,,,,,,,,,,,,,,,,,,,,,,,,,,,,,,,,,,,,,,,,,,,,,,,,,,,,,,,,,,,,,,,,,,,,,,,,,,,,,,,,
,,61719c5bd60f7885fceb4699,2024-02-18_20h47.03.254,kallum_motion_pilot,2023.2.2,Win32,59.52380952,61719c5bd60f7885fceb4699,65d2b6c8f2eece985d8e374c,65d2b88bc365b86d27d1c6eb,0.0434,0.0434,0,145,145,143,1,eightseven,,,,,,,,,,,,,,,,,,,,,,,,,,,,,,,,,,,,,,,,,,,,,,,,,,,,,,,,,,,,,,,,,,,,,,,,,,,,,,,,,,,,,,,,,,,,,,,,,,,,,,,,,,,,,,,,,,,,,,,,,,,,,,,,,,,,,,,,,
,,61719c5bd60f7885fceb4699,2024-02-18_20h47.03.254,kallum_motion_pilot,2023.2.2,Win32,59.52380952,61719c5bd60f7885fceb4699,65d2b6c8f2eece985d8e374c,65d2b88bc365b86d27d1c6eb,0.0435,0.0436,0,146,146,12,1,threeone,,,,,,,,,,,,,,,,,,,,,,,,,,,,,,,,,,,,,,,,,,,,,,,,,,,,,,,,,,,,,,,,,,,,,,,,,,,,,,,,,,,,,,,,,,,,,,,,,,,,,,,,,,,,,,,,,,,,,,,,,,,,,,,,,,,,,,,,,
,,61719c5bd60f7885fceb4699,2024-02-18_20h47.03.254,kallum_motion_pilot,2023.2.2,Win32,59.52380952,61719c5bd60f7885fceb4699,65d2b6c8f2eece985d8e374c,65d2b88bc365b86d27d1c6eb,0.0437,0.0437,0,147,147,34,1,twoone,,,,,,,,,,,,,,,,,,,,,,,,,,,,,,,,,,,,,,,,,,,,,,,,,,,,,,,,,,,,,,,,,,,,,,,,,,,,,,,,,,,,,,,,,,,,,,,,,,,,,,,,,,,,,,,,,,,,,,,,,,,,,,,,,,,,,,,,,
,,61719c5bd60f7885fceb4699,2024-02-18_20h47.03.254,kallum_motion_pilot,2023.2.2,Win32,59.52380952,61719c5bd60f7885fceb4699,65d2b6c8f2eece985d8e374c,65d2b88bc365b86d27d1c6eb,0.0437,0.0439,0,148,148,15,1,fourthree,,,,,,,,,,,,,,,,,,,,,,,,,,,,,,,,,,,,,,,,,,,,,,,,,,,,,,,,,,,,,,,,,,,,,,,,,,,,,,,,,,,,,,,,,,,,,,,,,,,,,,,,,,,,,,,,,,,,,,,,,,,,,,,,,,,,,,,,,
,,61719c5bd60f7885fceb4699,2024-02-18_20h47.03.254,kallum_motion_pilot,2023.2.2,Win32,59.52380952,61719c5bd60f7885fceb4699,65d2b6c8f2eece985d8e374c,65d2b88bc365b86d27d1c6eb,0.0439,0.044,0,149,149,138,1,sixfive,,,,,,,,,,,,,,,,,,,,,,,,,,,,,,,,,,,,,,,,,,,,,,,,,,,,,,,,,,,,,,,,,,,,,,,,,,,,,,,,,,,,,,,,,,,,,,,,,,,,,,,,,,,,,,,,,,,,,,,,,,,,,,,,,,,,,,,,,
,,61719c5bd60f7885fceb4699,2024-02-18_20h47.03.254,kallum_motion_pilot,2023.2.2,Win32,59.52380952,61719c5bd60f7885fceb4699,65d2b6c8f2eece985d8e374c,65d2b88bc365b86d27d1c6eb,0.0441,0.0441,0,150,150,99,1,sixeight,,,,,,,,,,,,,,,,,,,,,,,,,,,,,,,,,,,,,,,,,,,,,,,,,,,,,,,,,,,,,,,,,,,,,,,,,,,,,,,,,,,,,,,,,,,,,,,,,,,,,,,,,,,,,,,,,,,,,,,,,,,,,,,,,,,,,,,,,
,,61719c5bd60f7885fceb4699,2024-02-18_20h47.03.254,kallum_motion_pilot,2023.2.2,Win32,59.52380952,61719c5bd60f7885fceb4699,65d2b6c8f2eece985d8e374c,65d2b88bc365b86d27d1c6eb,0.0442,0.0442,0,151,151,74,1,twoone,,,,,,,,,,,,,,,,,,,,,,,,,,,,,,,,,,,,,,,,,,,,,,,,,,,,,,,,,,,,,,,,,,,,,,,,,,,,,,,,,,,,,,,,,,,,,,,,,,,,,,,,,,,,,,,,,,,,,,,,,,,,,,,,,,,,,,,,,
,,61719c5bd60f7885fceb4699,2024-02-18_20h47.03.254,kallum_motion_pilot,2023.2.2,Win32,59.52380952,61719c5bd60f7885fceb4699,65d2b6c8f2eece985d8e374c,65d2b88bc365b86d27d1c6eb,0.0443,0.0444,0,152,152,32,1,onetwo,,,,,,,,,,,,,,,,,,,,,,,,,,,,,,,,,,,,,,,,,,,,,,,,,,,,,,,,,,,,,,,,,,,,,,,,,,,,,,,,,,,,,,,,,,,,,,,,,,,,,,,,,,,,,,,,,,,,,,,,,,,,,,,,,,,,,,,,,
,,61719c5bd60f7885fceb4699,2024-02-18_20h47.03.254,kallum_motion_pilot,2023.2.2,Win32,59.52380952,61719c5bd60f7885fceb4699,65d2b6c8f2eece985d8e374c,65d2b88bc365b86d27d1c6eb,0.0445,0.0445,0,153,153,53,1,threefour,,,,,,,,,,,,,,,,,,,,,,,,,,,,,,,,,,,,,,,,,,,,,,,,,,,,,,,,,,,,,,,,,,,,,,,,,,,,,,,,,,,,,,,,,,,,,,,,,,,,,,,,,,,,,,,,,,,,,,,,,,,,,,,,,,,,,,,,,
,,61719c5bd60f7885fceb4699,2024-02-18_20h47.03.254,kallum_motion_pilot,2023.2.2,Win32,59.52380952,61719c5bd60f7885fceb4699,65d2b6c8f2eece985d8e374c,65d2b88bc365b86d27d1c6eb,0.0446,0.0446,0,154,154,18,1,twoone,,,,,,,,,,,,,,,,,,,,,,,,,,,,,,,,,,,,,,,,,,,,,,,,,,,,,,,,,,,,,,,,,,,,,,,,,,,,,,,,,,,,,,,,,,,,,,,,,,,,,,,,,,,,,,,,,,,,,,,,,,,,,,,,,,,,,,,,,
,,61719c5bd60f7885fceb4699,2024-02-18_20h47.03.254,kallum_motion_pilot,2023.2.2,Win32,59.52380952,61719c5bd60f7885fceb4699,65d2b6c8f2eece985d8e374c,65d2b88bc365b86d27d1c6eb,0.0447,0.0448,0,155,155,56,1,onetwo,,,,,,,,,,,,,,,,,,,,,,,,,,,,,,,,,,,,,,,,,,,,,,,,,,,,,,,,,,,,,,,,,,,,,,,,,,,,,,,,,,,,,,,,,,,,,,,,,,,,,,,,,,,,,,,,,,,,,,,,,,,,,,,,,,,,,,,,,
,,61719c5bd60f7885fceb4699,2024-02-18_20h47.03.254,kallum_motion_pilot,2023.2.2,Win32,59.52380952,61719c5bd60f7885fceb4699,65d2b6c8f2eece985d8e374c,65d2b88bc365b86d27d1c6eb,0.0449,0.0449,0,156,156,122,1,sixfive,,,,,,,,,,,,,,,,,,,,,,,,,,,,,,,,,,,,,,,,,,,,,,,,,,,,,,,,,,,,,,,,,,,,,,,,,,,,,,,,,,,,,,,,,,,,,,,,,,,,,,,,,,,,,,,,,,,,,,,,,,,,,,,,,,,,,,,,,
,,61719c5bd60f7885fceb4699,2024-02-18_20h47.03.254,kallum_motion_pilot,2023.2.2,Win32,59.52380952,61719c5bd60f7885fceb4699,65d2b6c8f2eece985d8e374c,65d2b88bc365b86d27d1c6eb,0.0449,0.0451,0,157,157,95,1,eightseven,,,,,,,,,,,,,,,,,,,,,,,,,,,,,,,,,,,,,,,,,,,,,,,,,,,,,,,,,,,,,,,,,,,,,,,,,,,,,,,,,,,,,,,,,,,,,,,,,,,,,,,,,,,,,,,,,,,,,,,,,,,,,,,,,,,,,,,,,
,,61719c5bd60f7885fceb4699,2024-02-18_20h47.03.254,kallum_motion_pilot,2023.2.2,Win32,59.52380952,61719c5bd60f7885fceb4699,65d2b6c8f2eece985d8e374c,65d2b88bc365b86d27d1c6eb,0.0451,0.0452,0,158,158,73,1,onethree,,,,,,,,,,,,,,,,,,,,,,,,,,,,,,,,,,,,,,,,,,,,,,,,,,,,,,,,,,,,,,,,,,,,,,,,,,,,,,,,,,,,,,,,,,,,,,,,,,,,,,,,,,,,,,,,,,,,,,,,,,,,,,,,,,,,,,,,,
,,61719c5bd60f7885fceb4699,2024-02-18_20h47.03.254,kallum_motion_pilot,2023.2.2,Win32,59.52380952,61719c5bd60f7885fceb4699,65d2b6c8f2eece985d8e374c,65d2b88bc365b86d27d1c6eb,0.0453,0.0454,0,159,159,158,1,eightsix,,,,,,,,,,,,,,,,,,,,,,,,,,,,,,,,,,,,,,,,,,,,,,,,,,,,,,,,,,,,,,,,,,,,,,,,,,,,,,,,,,,,,,,,,,,,,,,,,,,,,,,,,,,,,,,,,,,,,,,,,,,,,,,,,,,,,,,,,
,,61719c5bd60f7885fceb4699,2024-02-18_20h47.03.254,kallum_motion_pilot,2023.2.2,Win32,59.52380952,61719c5bd60f7885fceb4699,65d2b6c8f2eece985d8e374c,65d2b88bc365b86d27d1c6eb,0.0454,0.0455,0,160,160,38,1,fourtwo,,,,,,,,,,,,,,,,,,,,,,,,,,,,,,,,,,,,,,,,,,,,,,,,,,,,,,,,,,,,,,,,,,,,,,,,,,,,,,,,,,,,,,,,,,,,,,,,,,,,,,,,,,,,,,,,,,,,,,,,,,,,,,,,,,,,,,,,,
,,61719c5bd60f7885fceb4699,2024-02-18_20h47.03.254,kallum_motion_pilot,2023.2.2,Win32,59.52380952,61719c5bd60f7885fceb4699,65d2b6c8f2eece985d8e374c,65d2b88bc365b86d27d1c6eb,0.0455,0.0455,0,161,161,28,1,threeone,,,,,,,,,,,,,,,,,,,,,,,,,,,,,,,,,,,,,,,,,,,,,,,,,,,,,,,,,,,,,,,,,,,,,,,,,,,,,,,,,,,,,,,,,,,,,,,,,,,,,,,,,,,,,,,,,,,,,,,,,,,,,,,,,,,,,,,,,
,,61719c5bd60f7885fceb4699,2024-02-18_20h47.03.254,kallum_motion_pilot,2023.2.2,Win32,59.52380952,61719c5bd60f7885fceb4699,65d2b6c8f2eece985d8e374c,65d2b88bc365b86d27d1c6eb,0.0457,0.0457,1,0,162,21,1,threefour,,,,,,,,,,,,,,,,,,,,,,,,,,,,,,,,,,,,,,,,,,,,,,,,,,,,,,,,,,,,,,,,,,,,,,,,,,,,,,,,,,,,,,,,,,,,,,,,,,,,,,,,,,,,,,,,,,,,,,,,,,,,,,,,,,,,,,,,,
,,61719c5bd60f7885fceb4699,2024-02-18_20h47.03.254,kallum_motion_pilot,2023.2.2,Win32,59.52380952,61719c5bd60f7885fceb4699,65d2b6c8f2eece985d8e374c,65d2b88bc365b86d27d1c6eb,0.0459,0.0459,1,1,163,114,1,sixfive,,,,,,,,,,,,,,,,,,,,,,,,,,,,,,,,,,,,,,,,,,,,,,,,,,,,,,,,,,,,,,,,,,,,,,,,,,,,,,,,,,,,,,,,,,,,,,,,,,,,,,,,,,,,,,,,,,,,,,,,,,,,,,,,,,,,,,,,,
,,61719c5bd60f7885fceb4699,2024-02-18_20h47.03.254,kallum_motion_pilot,2023.2.2,Win32,59.52380952,61719c5bd60f7885fceb4699,65d2b6c8f2eece985d8e374c,65d2b88bc365b86d27d1c6eb,0.0459,0.046,1,2,164,22,1,fourtwo,,,,,,,,,,,,,,,,,,,,,,,,,,,,,,,,,,,,,,,,,,,,,,,,,,,,,,,,,,,,,,,,,,,,,,,,,,,,,,,,,,,,,,,,,,,,,,,,,,,,,,,,,,,,,,,,,,,,,,,,,,,,,,,,,,,,,,,,,
,,61719c5bd60f7885fceb4699,2024-02-18_20h47.03.254,kallum_motion_pilot,2023.2.2,Win32,59.52380952,61719c5bd60f7885fceb4699,65d2b6c8f2eece985d8e374c,65d2b88bc365b86d27d1c6eb,0.0461,0.0462,1,3,165,11,1,twofour,,,,,,,,,,,,,,,,,,,,,,,,,,,,,,,,,,,,,,,,,,,,,,,,,,,,,,,,,,,,,,,,,,,,,,,,,,,,,,,,,,,,,,,,,,,,,,,,,,,,,,,,,,,,,,,,,,,,,,,,,,,,,,,,,,,,,,,,,
,,61719c5bd60f7885fceb4699,2024-02-18_20h47.03.254,kallum_motion_pilot,2023.2.2,Win32,59.52380952,61719c5bd60f7885fceb4699,65d2b6c8f2eece985d8e374c,65d2b88bc365b86d27d1c6eb,0.0462,0.0462,1,4,166,133,1,seveneight,,,,,,,,,,,,,,,,,,,,,,,,,,,,,,,,,,,,,,,,,,,,,,,,,,,,,,,,,,,,,,,,,,,,,,,,,,,,,,,,,,,,,,,,,,,,,,,,,,,,,,,,,,,,,,,,,,,,,,,,,,,,,,,,,,,,,,,,,
,,61719c5bd60f7885fceb4699,2024-02-18_20h47.03.254,kallum_motion_pilot,2023.2.2,Win32,59.52380952,61719c5bd60f7885fceb4699,65d2b6c8f2eece985d8e374c,65d2b88bc365b86d27d1c6eb,0.0464,0.0464,1,5,167,106,1,sixfive,,,,,,,,,,,,,,,,,,,,,,,,,,,,,,,,,,,,,,,,,,,,,,,,,,,,,,,,,,,,,,,,,,,,,,,,,,,,,,,,,,,,,,,,,,,,,,,,,,,,,,,,,,,,,,,,,,,,,,,,,,,,,,,,,,,,,,,,,
,,61719c5bd60f7885fceb4699,2024-02-18_20h47.03.254,kallum_motion_pilot,2023.2.2,Win32,59.52380952,61719c5bd60f7885fceb4699,65d2b6c8f2eece985d8e374c,65d2b88bc365b86d27d1c6eb,0.0465,0.0465,1,6,168,13,1,threefour,,,,,,,,,,,,,,,,,,,,,,,,,,,,,,,,,,,,,,,,,,,,,,,,,,,,,,,,,,,,,,,,,,,,,,,,,,,,,,,,,,,,,,,,,,,,,,,,,,,,,,,,,,,,,,,,,,,,,,,,,,,,,,,,,,,,,,,,,
,,61719c5bd60f7885fceb4699,2024-02-18_20h47.03.254,kallum_motion_pilot,2023.2.2,Win32,59.52380952,61719c5bd60f7885fceb4699,65d2b6c8f2eece985d8e374c,65d2b88bc365b86d27d1c6eb,0.0466,0.0467,1,7,169,156,1,sevenfive,,,,,,,,,,,,,,,,,,,,,,,,,,,,,,,,,,,,,,,,,,,,,,,,,,,,,,,,,,,,,,,,,,,,,,,,,,,,,,,,,,,,,,,,,,,,,,,,,,,,,,,,,,,,,,,,,,,,,,,,,,,,,,,,,,,,,,,,,
,,61719c5bd60f7885fceb4699,2024-02-18_20h47.03.254,kallum_motion_pilot,2023.2.2,Win32,59.52380952,61719c5bd60f7885fceb4699,65d2b6c8f2eece985d8e374c,65d2b88bc365b86d27d1c6eb,0.0468,0.0469,1,8,170,157,1,seveneight,,,,,,,,,,,,,,,,,,,,,,,,,,,,,,,,,,,,,,,,,,,,,,,,,,,,,,,,,,,,,,,,,,,,,,,,,,,,,,,,,,,,,,,,,,,,,,,,,,,,,,,,,,,,,,,,,,,,,,,,,,,,,,,,,,,,,,,,,
,,61719c5bd60f7885fceb4699,2024-02-18_20h47.03.254,kallum_motion_pilot,2023.2.2,Win32,59.52380952,61719c5bd60f7885fceb4699,65d2b6c8f2eece985d8e374c,65d2b88bc365b86d27d1c6eb,0.047,0.047,1,9,171,18,1,twoone,,,,,,,,,,,,,,,,,,,,,,,,,,,,,,,,,,,,,,,,,,,,,,,,,,,,,,,,,,,,,,,,,,,,,,,,,,,,,,,,,,,,,,,,,,,,,,,,,,,,,,,,,,,,,,,,,,,,,,,,,,,,,,,,,,,,,,,,,
,,61719c5bd60f7885fceb4699,2024-02-18_20h47.03.254,kallum_motion_pilot,2023.2.2,Win32,59.52380952,61719c5bd60f7885fceb4699,65d2b6c8f2eece985d8e374c,65d2b88bc365b86d27d1c6eb,0.0471,0.0471,1,10,172,4,1,threeone,,,,,,,,,,,,,,,,,,,,,,,,,,,,,,,,,,,,,,,,,,,,,,,,,,,,,,,,,,,,,,,,,,,,,,,,,,,,,,,,,,,,,,,,,,,,,,,,,,,,,,,,,,,,,,,,,,,,,,,,,,,,,,,,,,,,,,,,,
,,61719c5bd60f7885fceb4699,2024-02-18_20h47.03.254,kallum_motion_pilot,2023.2.2,Win32,59.52380952,61719c5bd60f7885fceb4699,65d2b6c8f2eece985d8e374c,65d2b88bc365b86d27d1c6eb,0.0472,0.0472,1,11,173,77,1,threefour,,,,,,,,,,,,,,,,,,,,,,,,,,,,,,,,,,,,,,,,,,,,,,,,,,,,,,,,,,,,,,,,,,,,,,,,,,,,,,,,,,,,,,,,,,,,,,,,,,,,,,,,,,,,,,,,,,,,,,,,,,,,,,,,,,,,,,,,,
,,61719c5bd60f7885fceb4699,2024-02-18_20h47.03.254,kallum_motion_pilot,2023.2.2,Win32,59.52380952,61719c5bd60f7885fceb4699,65d2b6c8f2eece985d8e374c,65d2b88bc365b86d27d1c6eb,0.0473,0.0474,1,12,174,109,1,seveneight,,,,,,,,,,,,,,,,,,,,,,,,,,,,,,,,,,,,,,,,,,,,,,,,,,,,,,,,,,,,,,,,,,,,,,,,,,,,,,,,,,,,,,,,,,,,,,,,,,,,,,,,,,,,,,,,,,,,,,,,,,,,,,,,,,,,,,,,,
,,61719c5bd60f7885fceb4699,2024-02-18_20h47.03.254,kallum_motion_pilot,2023.2.2,Win32,59.52380952,61719c5bd60f7885fceb4699,65d2b6c8f2eece985d8e374c,65d2b88bc365b86d27d1c6eb,0.0475,0.0475,1,13,175,122,1,sixfive,,,,,,,,,,,,,,,,,,,,,,,,,,,,,,,,,,,,,,,,,,,,,,,,,,,,,,,,,,,,,,,,,,,,,,,,,,,,,,,,,,,,,,,,,,,,,,,,,,,,,,,,,,,,,,,,,,,,,,,,,,,,,,,,,,,,,,,,,
,,61719c5bd60f7885fceb4699,2024-02-18_20h47.03.254,kallum_motion_pilot,2023.2.2,Win32,59.52380952,61719c5bd60f7885fceb4699,65d2b6c8f2eece985d8e374c,65d2b88bc365b86d27d1c6eb,0.0476,0.0477,1,14,176,10,1,twoone,,,,,,,,,,,,,,,,,,,,,,,,,,,,,,,,,,,,,,,,,,,,,,,,,,,,,,,,,,,,,,,,,,,,,,,,,,,,,,,,,,,,,,,,,,,,,,,,,,,,,,,,,,,,,,,,,,,,,,,,,,,,,,,,,,,,,,,,,
,,61719c5bd60f7885fceb4699,2024-02-18_20h47.03.254,kallum_motion_pilot,2023.2.2,Win32,59.52380952,61719c5bd60f7885fceb4699,65d2b6c8f2eece985d8e374c,65d2b88bc365b86d27d1c6eb,0.0478,0.0479,1,15,177,105,1,fiveseven,,,,,,,,,,,,,,,,,,,,,,,,,,,,,,,,,,,,,,,,,,,,,,,,,,,,,,,,,,,,,,,,,,,,,,,,,,,,,,,,,,,,,,,,,,,,,,,,,,,,,,,,,,,,,,,,,,,,,,,,,,,,,,,,,,,,,,,,,
,,61719c5bd60f7885fceb4699,2024-02-18_20h47.03.254,kallum_motion_pilot,2023.2.2,Win32,59.52380952,61719c5bd60f7885fceb4699,65d2b6c8f2eece985d8e374c,65d2b88bc365b86d27d1c6eb,0.0479,0.0479,1,16,178,58,1,twoone,,,,,,,,,,,,,,,,,,,,,,,,,,,,,,,,,,,,,,,,,,,,,,,,,,,,,,,,,,,,,,,,,,,,,,,,,,,,,,,,,,,,,,,,,,,,,,,,,,,,,,,,,,,,,,,,,,,,,,,,,,,,,,,,,,,,,,,,,
,,61719c5bd60f7885fceb4699,2024-02-18_20h47.03.254,kallum_motion_pilot,2023.2.2,Win32,59.52380952,61719c5bd60f7885fceb4699,65d2b6c8f2eece985d8e374c,65d2b88bc365b86d27d1c6eb,0.0481,0.0481,1,17,179,33,1,onethree,,,,,,,,,,,,,,,,,,,,,,,,,,,,,,,,,,,,,,,,,,,,,,,,,,,,,,,,,,,,,,,,,,,,,,,,,,,,,,,,,,,,,,,,,,,,,,,,,,,,,,,,,,,,,,,,,,,,,,,,,,,,,,,,,,,,,,,,,
,,61719c5bd60f7885fceb4699,2024-02-18_20h47.03.254,kallum_motion_pilot,2023.2.2,Win32,59.52380952,61719c5bd60f7885fceb4699,65d2b6c8f2eece985d8e374c,65d2b88bc365b86d27d1c6eb,0.0482,0.0483,1,18,180,149,1,seveneight,,,,,,,,,,,,,,,,,,,,,,,,,,,,,,,,,,,,,,,,,,,,,,,,,,,,,,,,,,,,,,,,,,,,,,,,,,,,,,,,,,,,,,,,,,,,,,,,,,,,,,,,,,,,,,,,,,,,,,,,,,,,,,,,,,,,,,,,,
,,61719c5bd60f7885fceb4699,2024-02-18_20h47.03.254,kallum_motion_pilot,2023.2.2,Win32,59.52380952,61719c5bd60f7885fceb4699,65d2b6c8f2eece985d8e374c,65d2b88bc365b86d27d1c6eb,0.0484,0.0484,1,19,181,81,1,fiveseven,,,,,,,,,,,,,,,,,,,,,,,,,,,,,,,,,,,,,,,,,,,,,,,,,,,,,,,,,,,,,,,,,,,,,,,,,,,,,,,,,,,,,,,,,,,,,,,,,,,,,,,,,,,,,,,,,,,,,,,,,,,,,,,,,,,,,,,,,
,,61719c5bd60f7885fceb4699,2024-02-18_20h47.03.254,kallum_motion_pilot,2023.2.2,Win32,59.52380952,61719c5bd60f7885fceb4699,65d2b6c8f2eece985d8e374c,65d2b88bc365b86d27d1c6eb,0.0486,0.0486,1,20,182,20,1,threeone,,,,,,,,,,,,,,,,,,,,,,,,,,,,,,,,,,,,,,,,,,,,,,,,,,,,,,,,,,,,,,,,,,,,,,,,,,,,,,,,,,,,,,,,,,,,,,,,,,,,,,,,,,,,,,,,,,,,,,,,,,,,,,,,,,,,,,,,,
,,61719c5bd60f7885fceb4699,2024-02-18_20h47.03.254,kallum_motion_pilot,2023.2.2,Win32,59.52380952,61719c5bd60f7885fceb4699,65d2b6c8f2eece985d8e374c,65d2b88bc365b86d27d1c6eb,0.0487,0.0487,1,21,183,19,1,twofour,,,,,,,,,,,,,,,,,,,,,,,,,,,,,,,,,,,,,,,,,,,,,,,,,,,,,,,,,,,,,,,,,,,,,,,,,,,,,,,,,,,,,,,,,,,,,,,,,,,,,,,,,,,,,,,,,,,,,,,,,,,,,,,,,,,,,,,,,
,,61719c5bd60f7885fceb4699,2024-02-18_20h47.03.254,kallum_motion_pilot,2023.2.2,Win32,59.52380952,61719c5bd60f7885fceb4699,65d2b6c8f2eece985d8e374c,65d2b88bc365b86d27d1c6eb,0.0488,0.0489,1,22,184,95,1,eightseven,,,,,,,,,,,,,,,,,,,,,,,,,,,,,,,,,,,,,,,,,,,,,,,,,,,,,,,,,,,,,,,,,,,,,,,,,,,,,,,,,,,,,,,,,,,,,,,,,,,,,,,,,,,,,,,,,,,,,,,,,,,,,,,,,,,,,,,,,
,,61719c5bd60f7885fceb4699,2024-02-18_20h47.03.254,kallum_motion_pilot,2023.2.2,Win32,59.52380952,61719c5bd60f7885fceb4699,65d2b6c8f2eece985d8e374c,65d2b88bc365b86d27d1c6eb,0.049,0.049,1,23,185,99,1,sixeight,,,,,,,,,,,,,,,,,,,,,,,,,,,,,,,,,,,,,,,,,,,,,,,,,,,,,,,,,,,,,,,,,,,,,,,,,,,,,,,,,,,,,,,,,,,,,,,,,,,,,,,,,,,,,,,,,,,,,,,,,,,,,,,,,,,,,,,,,
,,61719c5bd60f7885fceb4699,2024-02-18_20h47.03.254,kallum_motion_pilot,2023.2.2,Win32,59.52380952,61719c5bd60f7885fceb4699,65d2b6c8f2eece985d8e374c,65d2b88bc365b86d27d1c6eb,0.0491,0.0492,1,24,186,27,1,twofour,,,,,,,,,,,,,,,,,,,,,,,,,,,,,,,,,,,,,,,,,,,,,,,,,,,,,,,,,,,,,,,,,,,,,,,,,,,,,,,,,,,,,,,,,,,,,,,,,,,,,,,,,,,,,,,,,,,,,,,,,,,,,,,,,,,,,,,,,
,,61719c5bd60f7885fceb4699,2024-02-18_20h47.03.254,kallum_motion_pilot,2023.2.2,Win32,59.52380952,61719c5bd60f7885fceb4699,65d2b6c8f2eece985d8e374c,65d2b88bc365b86d27d1c6eb,0.0493,0.0493,1,25,187,111,1,eightseven,,,,,,,,,,,,,,,,,,,,,,,,,,,,,,,,,,,,,,,,,,,,,,,,,,,,,,,,,,,,,,,,,,,,,,,,,,,,,,,,,,,,,,,,,,,,,,,,,,,,,,,,,,,,,,,,,,,,,,,,,,,,,,,,,,,,,,,,,
,,61719c5bd60f7885fceb4699,2024-02-18_20h47.03.254,kallum_motion_pilot,2023.2.2,Win32,59.52380952,61719c5bd60f7885fceb4699,65d2b6c8f2eece985d8e374c,65d2b88bc365b86d27d1c6eb,0.0494,0.0495,1,26,188,96,1,fivesix,,,,,,,,,,,,,,,,,,,,,,,,,,,,,,,,,,,,,,,,,,,,,,,,,,,,,,,,,,,,,,,,,,,,,,,,,,,,,,,,,,,,,,,,,,,,,,,,,,,,,,,,,,,,,,,,,,,,,,,,,,,,,,,,,,,,,,,,,
,,61719c5bd60f7885fceb4699,2024-02-18_20h47.03.254,kallum_motion_pilot,2023.2.2,Win32,59.52380952,61719c5bd60f7885fceb4699,65d2b6c8f2eece985d8e374c,65d2b88bc365b86d27d1c6eb,0.0496,0.0496,1,27,189,53,1,threefour,,,,,,,,,,,,,,,,,,,,,,,,,,,,,,,,,,,,,,,,,,,,,,,,,,,,,,,,,,,,,,,,,,,,,,,,,,,,,,,,,,,,,,,,,,,,,,,,,,,,,,,,,,,,,,,,,,,,,,,,,,,,,,,,,,,,,,,,,
,,61719c5bd60f7885fceb4699,2024-02-18_20h47.03.254,kallum_motion_pilot,2023.2.2,Win32,59.52380952,61719c5bd60f7885fceb4699,65d2b6c8f2eece985d8e374c,65d2b88bc365b86d27d1c6eb,0.0497,0.0498,1,28,190,31,1,fourthree,,,,,,,,,,,,,,,,,,,,,,,,,,,,,,,,,,,,,,,,,,,,,,,,,,,,,,,,,,,,,,,,,,,,,,,,,,,,,,,,,,,,,,,,,,,,,,,,,,,,,,,,,,,,,,,,,,,,,,,,,,,,,,,,,,,,,,,,,
,,61719c5bd60f7885fceb4699,2024-02-18_20h47.03.254,kallum_motion_pilot,2023.2.2,Win32,59.52380952,61719c5bd60f7885fceb4699,65d2b6c8f2eece985d8e374c,65d2b88bc365b86d27d1c6eb,0.0499,0.0499,1,29,191,102,1,eightsix,,,,,,,,,,,,,,,,,,,,,,,,,,,,,,,,,,,,,,,,,,,,,,,,,,,,,,,,,,,,,,,,,,,,,,,,,,,,,,,,,,,,,,,,,,,,,,,,,,,,,,,,,,,,,,,,,,,,,,,,,,,,,,,,,,,,,,,,,
,,61719c5bd60f7885fceb4699,2024-02-18_20h47.03.254,kallum_motion_pilot,2023.2.2,Win32,59.52380952,61719c5bd60f7885fceb4699,65d2b6c8f2eece985d8e374c,65d2b88bc365b86d27d1c6eb,0.05,0.0501,1,30,192,52,1,threeone,,,,,,,,,,,,,,,,,,,,,,,,,,,,,,,,,,,,,,,,,,,,,,,,,,,,,,,,,,,,,,,,,,,,,,,,,,,,,,,,,,,,,,,,,,,,,,,,,,,,,,,,,,,,,,,,,,,,,,,,,,,,,,,,,,,,,,,,,
,,61719c5bd60f7885fceb4699,2024-02-18_20h47.03.254,kallum_motion_pilot,2023.2.2,Win32,59.52380952,61719c5bd60f7885fceb4699,65d2b6c8f2eece985d8e374c,65d2b88bc365b86d27d1c6eb,0.0501,0.0502,1,31,193,7,1,fourthree,,,,,,,,,,,,,,,,,,,,,,,,,,,,,,,,,,,,,,,,,,,,,,,,,,,,,,,,,,,,,,,,,,,,,,,,,,,,,,,,,,,,,,,,,,,,,,,,,,,,,,,,,,,,,,,,,,,,,,,,,,,,,,,,,,,,,,,,,
,,61719c5bd60f7885fceb4699,2024-02-18_20h47.03.254,kallum_motion_pilot,2023.2.2,Win32,59.52380952,61719c5bd60f7885fceb4699,65d2b6c8f2eece985d8e374c,65d2b88bc365b86d27d1c6eb,0.0503,0.0503,1,32,194,143,1,eightseven,,,,,,,,,,,,,,,,,,,,,,,,,,,,,,,,,,,,,,,,,,,,,,,,,,,,,,,,,,,,,,,,,,,,,,,,,,,,,,,,,,,,,,,,,,,,,,,,,,,,,,,,,,,,,,,,,,,,,,,,,,,,,,,,,,,,,,,,,
,,61719c5bd60f7885fceb4699,2024-02-18_20h47.03.254,kallum_motion_pilot,2023.2.2,Win32,59.52380952,61719c5bd60f7885fceb4699,65d2b6c8f2eece985d8e374c,65d2b88bc365b86d27d1c6eb,0.0505,0.0505,1,33,195,155,1,sixeight,,,,,,,,,,,,,,,,,,,,,,,,,,,,,,,,,,,,,,,,,,,,,,,,,,,,,,,,,,,,,,,,,,,,,,,,,,,,,,,,,,,,,,,,,,,,,,,,,,,,,,,,,,,,,,,,,,,,,,,,,,,,,,,,,,,,,,,,,
,,61719c5bd60f7885fceb4699,2024-02-18_20h47.03.254,kallum_motion_pilot,2023.2.2,Win32,59.52380952,61719c5bd60f7885fceb4699,65d2b6c8f2eece985d8e374c,65d2b88bc365b86d27d1c6eb,0.0506,0.0506,1,34,196,134,1,eightsix,,,,,,,,,,,,,,,,,,,,,,,,,,,,,,,,,,,,,,,,,,,,,,,,,,,,,,,,,,,,,,,,,,,,,,,,,,,,,,,,,,,,,,,,,,,,,,,,,,,,,,,,,,,,,,,,,,,,,,,,,,,,,,,,,,,,,,,,,
,,61719c5bd60f7885fceb4699,2024-02-18_20h47.03.254,kallum_motion_pilot,2023.2.2,Win32,59.52380952,61719c5bd60f7885fceb4699,65d2b6c8f2eece985d8e374c,65d2b88bc365b86d27d1c6eb,0.0507,0.0508,1,35,197,161,1,fiveseven,,,,,,,,,,,,,,,,,,,,,,,,,,,,,,,,,,,,,,,,,,,,,,,,,,,,,,,,,,,,,,,,,,,,,,,,,,,,,,,,,,,,,,,,,,,,,,,,,,,,,,,,,,,,,,,,,,,,,,,,,,,,,,,,,,,,,,,,,
,,61719c5bd60f7885fceb4699,2024-02-18_20h47.03.254,kallum_motion_pilot,2023.2.2,Win32,59.52380952,61719c5bd60f7885fceb4699,65d2b6c8f2eece985d8e374c,65d2b88bc365b86d27d1c6eb,0.0509,0.051,1,36,198,68,1,threeone,,,,,,,,,,,,,,,,,,,,,,,,,,,,,,,,,,,,,,,,,,,,,,,,,,,,,,,,,,,,,,,,,,,,,,,,,,,,,,,,,,,,,,,,,,,,,,,,,,,,,,,,,,,,,,,,,,,,,,,,,,,,,,,,,,,,,,,,,
,,61719c5bd60f7885fceb4699,2024-02-18_20h47.03.254,kallum_motion_pilot,2023.2.2,Win32,59.52380952,61719c5bd60f7885fceb4699,65d2b6c8f2eece985d8e374c,65d2b88bc365b86d27d1c6eb,0.051,0.0511,1,37,199,90,1,sixfive,,,,,,,,,,,,,,,,,,,,,,,,,,,,,,,,,,,,,,,,,,,,,,,,,,,,,,,,,,,,,,,,,,,,,,,,,,,,,,,,,,,,,,,,,,,,,,,,,,,,,,,,,,,,,,,,,,,,,,,,,,,,,,,,,,,,,,,,,
,,61719c5bd60f7885fceb4699,2024-02-18_20h47.03.254,kallum_motion_pilot,2023.2.2,Win32,59.52380952,61719c5bd60f7885fceb4699,65d2b6c8f2eece985d8e374c,65d2b88bc365b86d27d1c6eb,0.0512,0.0513,1,38,200,136,1,fivesix,,,,,,,,,,,,,,,,,,,,,,,,,,,,,,,,,,,,,,,,,,,,,,,,,,,,,,,,,,,,,,,,,,,,,,,,,,,,,,,,,,,,,,,,,,,,,,,,,,,,,,,,,,,,,,,,,,,,,,,,,,,,,,,,,,,,,,,,,
,,61719c5bd60f7885fceb4699,2024-02-18_20h47.03.254,kallum_motion_pilot,2023.2.2,Win32,59.52380952,61719c5bd60f7885fceb4699,65d2b6c8f2eece985d8e374c,65d2b88bc365b86d27d1c6eb,0.0513,0.0514,1,39,201,151,1,eightseven,,,,,,,,,,,,,,,,,,,,,,,,,,,,,,,,,,,,,,,,,,,,,,,,,,,,,,,,,,,,,,,,,,,,,,,,,,,,,,,,,,,,,,,,,,,,,,,,,,,,,,,,,,,,,,,,,,,,,,,,,,,,,,,,,,,,,,,,,
,,61719c5bd60f7885fceb4699,2024-02-18_20h47.03.254,kallum_motion_pilot,2023.2.2,Win32,59.52380952,61719c5bd60f7885fceb4699,65d2b6c8f2eece985d8e374c,65d2b88bc365b86d27d1c6eb,0.0515,0.0515,1,40,202,76,1,threeone,,,,,,,,,,,,,,,,,,,,,,,,,,,,,,,,,,,,,,,,,,,,,,,,,,,,,,,,,,,,,,,,,,,,,,,,,,,,,,,,,,,,,,,,,,,,,,,,,,,,,,,,,,,,,,,,,,,,,,,,,,,,,,,,,,,,,,,,,
,,61719c5bd60f7885fceb4699,2024-02-18_20h47.03.254,kallum_motion_pilot,2023.2.2,Win32,59.52380952,61719c5bd60f7885fceb4699,65d2b6c8f2eece985d8e374c,65d2b88bc365b86d27d1c6eb,0.0516,0.0517,1,41,203,67,1,twofour,,,,,,,,,,,,,,,,,,,,,,,,,,,,,,,,,,,,,,,,,,,,,,,,,,,,,,,,,,,,,,,,,,,,,,,,,,,,,,,,,,,,,,,,,,,,,,,,,,,,,,,,,,,,,,,,,,,,,,,,,,,,,,,,,,,,,,,,,
,,61719c5bd60f7885fceb4699,2024-02-18_20h47.03.254,kallum_motion_pilot,2023.2.2,Win32,59.52380952,61719c5bd60f7885fceb4699,65d2b6c8f2eece985d8e374c,65d2b88bc365b86d27d1c6eb,0.0518,0.0518,1,42,204,87,1,eightseven,,,,,,,,,,,,,,,,,,,,,,,,,,,,,,,,,,,,,,,,,,,,,,,,,,,,,,,,,,,,,,,,,,,,,,,,,,,,,,,,,,,,,,,,,,,,,,,,,,,,,,,,,,,,,,,,,,,,,,,,,,,,,,,,,,,,,,,,,
,,61719c5bd60f7885fceb4699,2024-02-18_20h47.03.254,kallum_motion_pilot,2023.2.2,Win32,59.52380952,61719c5bd60f7885fceb4699,65d2b6c8f2eece985d8e374c,65d2b88bc365b86d27d1c6eb,0.0519,0.0519,1,43,205,159,1,eightseven,,,,,,,,,,,,,,,,,,,,,,,,,,,,,,,,,,,,,,,,,,,,,,,,,,,,,,,,,,,,,,,,,,,,,,,,,,,,,,,,,,,,,,,,,,,,,,,,,,,,,,,,,,,,,,,,,,,,,,,,,,,,,,,,,,,,,,,,,
,,61719c5bd60f7885fceb4699,2024-02-18_20h47.03.254,kallum_motion_pilot,2023.2.2,Win32,59.52380952,61719c5bd60f7885fceb4699,65d2b6c8f2eece985d8e374c,65d2b88bc365b86d27d1c6eb,0.052,0.0521,1,44,206,104,1,fivesix,,,,,,,,,,,,,,,,,,,,,,,,,,,,,,,,,,,,,,,,,,,,,,,,,,,,,,,,,,,,,,,,,,,,,,,,,,,,,,,,,,,,,,,,,,,,,,,,,,,,,,,,,,,,,,,,,,,,,,,,,,,,,,,,,,,,,,,,,
,,61719c5bd60f7885fceb4699,2024-02-18_20h47.03.254,kallum_motion_pilot,2023.2.2,Win32,59.52380952,61719c5bd60f7885fceb4699,65d2b6c8f2eece985d8e374c,65d2b88bc365b86d27d1c6eb,0.0521,0.0523,1,45,207,148,1,sevenfive,,,,,,,,,,,,,,,,,,,,,,,,,,,,,,,,,,,,,,,,,,,,,,,,,,,,,,,,,,,,,,,,,,,,,,,,,,,,,,,,,,,,,,,,,,,,,,,,,,,,,,,,,,,,,,,,,,,,,,,,,,,,,,,,,,,,,,,,,
,,61719c5bd60f7885fceb4699,2024-02-18_20h47.03.254,kallum_motion_pilot,2023.2.2,Win32,59.52380952,61719c5bd60f7885fceb4699,65d2b6c8f2eece985d8e374c,65d2b88bc365b86d27d1c6eb,0.0523,0.0523,1,46,208,60,1,threeone,,,,,,,,,,,,,,,,,,,,,,,,,,,,,,,,,,,,,,,,,,,,,,,,,,,,,,,,,,,,,,,,,,,,,,,,,,,,,,,,,,,,,,,,,,,,,,,,,,,,,,,,,,,,,,,,,,,,,,,,,,,,,,,,,,,,,,,,,
,,61719c5bd60f7885fceb4699,2024-02-18_20h47.03.254,kallum_motion_pilot,2023.2.2,Win32,59.52380952,61719c5bd60f7885fceb4699,65d2b6c8f2eece985d8e374c,65d2b88bc365b86d27d1c6eb,0.0524,0.0526,1,47,209,140,1,sevenfive,,,,,,,,,,,,,,,,,,,,,,,,,,,,,,,,,,,,,,,,,,,,,,,,,,,,,,,,,,,,,,,,,,,,,,,,,,,,,,,,,,,,,,,,,,,,,,,,,,,,,,,,,,,,,,,,,,,,,,,,,,,,,,,,,,,,,,,,,
,,61719c5bd60f7885fceb4699,2024-02-18_20h47.03.254,kallum_motion_pilot,2023.2.2,Win32,59.52380952,61719c5bd60f7885fceb4699,65d2b6c8f2eece985d8e374c,65d2b88bc365b86d27d1c6eb,0.0526,0.0527,1,48,210,79,1,eightseven,,,,,,,,,,,,,,,,,,,,,,,,,,,,,,,,,,,,,,,,,,,,,,,,,,,,,,,,,,,,,,,,,,,,,,,,,,,,,,,,,,,,,,,,,,,,,,,,,,,,,,,,,,,,,,,,,,,,,,,,,,,,,,,,,,,,,,,,,
,,61719c5bd60f7885fceb4699,2024-02-18_20h47.03.254,kallum_motion_pilot,2023.2.2,Win32,59.52380952,61719c5bd60f7885fceb4699,65d2b6c8f2eece985d8e374c,65d2b88bc365b86d27d1c6eb,0.0527,0.0528,1,49,211,112,1,fivesix,,,,,,,,,,,,,,,,,,,,,,,,,,,,,,,,,,,,,,,,,,,,,,,,,,,,,,,,,,,,,,,,,,,,,,,,,,,,,,,,,,,,,,,,,,,,,,,,,,,,,,,,,,,,,,,,,,,,,,,,,,,,,,,,,,,,,,,,,
,,61719c5bd60f7885fceb4699,2024-02-18_20h47.03.254,kallum_motion_pilot,2023.2.2,Win32,59.52380952,61719c5bd60f7885fceb4699,65d2b6c8f2eece985d8e374c,65d2b88bc365b86d27d1c6eb,0.0529,0.053,1,50,212,153,1,fiveseven,,,,,,,,,,,,,,,,,,,,,,,,,,,,,,,,,,,,,,,,,,,,,,,,,,,,,,,,,,,,,,,,,,,,,,,,,,,,,,,,,,,,,,,,,,,,,,,,,,,,,,,,,,,,,,,,,,,,,,,,,,,,,,,,,,,,,,,,,
,,61719c5bd60f7885fceb4699,2024-02-18_20h47.03.254,kallum_motion_pilot,2023.2.2,Win32,59.52380952,61719c5bd60f7885fceb4699,65d2b6c8f2eece985d8e374c,65d2b88bc365b86d27d1c6eb,0.0531,0.0532,1,51,213,98,1,sixfive,,,,,,,,,,,,,,,,,,,,,,,,,,,,,,,,,,,,,,,,,,,,,,,,,,,,,,,,,,,,,,,,,,,,,,,,,,,,,,,,,,,,,,,,,,,,,,,,,,,,,,,,,,,,,,,,,,,,,,,,,,,,,,,,,,,,,,,,,
,,61719c5bd60f7885fceb4699,2024-02-18_20h47.03.254,kallum_motion_pilot,2023.2.2,Win32,59.52380952,61719c5bd60f7885fceb4699,65d2b6c8f2eece985d8e374c,65d2b88bc365b86d27d1c6eb,0.0533,0.0534,1,52,214,135,1,eightseven,,,,,,,,,,,,,,,,,,,,,,,,,,,,,,,,,,,,,,,,,,,,,,,,,,,,,,,,,,,,,,,,,,,,,,,,,,,,,,,,,,,,,,,,,,,,,,,,,,,,,,,,,,,,,,,,,,,,,,,,,,,,,,,,,,,,,,,,,
,,61719c5bd60f7885fceb4699,2024-02-18_20h47.03.254,kallum_motion_pilot,2023.2.2,Win32,59.52380952,61719c5bd60f7885fceb4699,65d2b6c8f2eece985d8e374c,65d2b88bc365b86d27d1c6eb,0.0535,0.0536,1,53,215,45,1,threefour,,,,,,,,,,,,,,,,,,,,,,,,,,,,,,,,,,,,,,,,,,,,,,,,,,,,,,,,,,,,,,,,,,,,,,,,,,,,,,,,,,,,,,,,,,,,,,,,,,,,,,,,,,,,,,,,,,,,,,,,,,,,,,,,,,,,,,,,,
,,61719c5bd60f7885fceb4699,2024-02-18_20h47.03.254,kallum_motion_pilot,2023.2.2,Win32,59.52380952,61719c5bd60f7885fceb4699,65d2b6c8f2eece985d8e374c,65d2b88bc365b86d27d1c6eb,0.0537,0.0538,1,54,216,85,1,seveneight,,,,,,,,,,,,,,,,,,,,,,,,,,,,,,,,,,,,,,,,,,,,,,,,,,,,,,,,,,,,,,,,,,,,,,,,,,,,,,,,,,,,,,,,,,,,,,,,,,,,,,,,,,,,,,,,,,,,,,,,,,,,,,,,,,,,,,,,,
,,61719c5bd60f7885fceb4699,2024-02-18_20h47.03.254,kallum_motion_pilot,2023.2.2,Win32,59.52380952,61719c5bd60f7885fceb4699,65d2b6c8f2eece985d8e374c,65d2b88bc365b86d27d1c6eb,0.054,0.054,1,55,217,145,1,fiveseven,,,,,,,,,,,,,,,,,,,,,,,,,,,,,,,,,,,,,,,,,,,,,,,,,,,,,,,,,,,,,,,,,,,,,,,,,,,,,,,,,,,,,,,,,,,,,,,,,,,,,,,,,,,,,,,,,,,,,,,,,,,,,,,,,,,,,,,,,
,,61719c5bd60f7885fceb4699,2024-02-18_20h47.03.254,kallum_motion_pilot,2023.2.2,Win32,59.52380952,61719c5bd60f7885fceb4699,65d2b6c8f2eece985d8e374c,65d2b88bc365b86d27d1c6eb,0.0542,0.0542,1,56,218,100,1,sevenfive,,,,,,,,,,,,,,,,,,,,,,,,,,,,,,,,,,,,,,,,,,,,,,,,,,,,,,,,,,,,,,,,,,,,,,,,,,,,,,,,,,,,,,,,,,,,,,,,,,,,,,,,,,,,,,,,,,,,,,,,,,,,,,,,,,,,,,,,,
,,61719c5bd60f7885fceb4699,2024-02-18_20h47.03.254,kallum_motion_pilot,2023.2.2,Win32,59.52380952,61719c5bd60f7885fceb4699,65d2b6c8f2eece985d8e374c,65d2b88bc365b86d27d1c6eb,0.0543,0.0543,1,57,219,144,1,fivesix,,,,,,,,,,,,,,,,,,,,,,,,,,,,,,,,,,,,,,,,,,,,,,,,,,,,,,,,,,,,,,,,,,,,,,,,,,,,,,,,,,,,,,,,,,,,,,,,,,,,,,,,,,,,,,,,,,,,,,,,,,,,,,,,,,,,,,,,,
,,61719c5bd60f7885fceb4699,2024-02-18_20h47.03.254,kallum_motion_pilot,2023.2.2,Win32,59.52380952,61719c5bd60f7885fceb4699,65d2b6c8f2eece985d8e374c,65d2b88bc365b86d27d1c6eb,0.0544,0.0545,1,58,220,46,1,fourtwo,,,,,,,,,,,,,,,,,,,,,,,,,,,,,,,,,,,,,,,,,,,,,,,,,,,,,,,,,,,,,,,,,,,,,,,,,,,,,,,,,,,,,,,,,,,,,,,,,,,,,,,,,,,,,,,,,,,,,,,,,,,,,,,,,,,,,,,,,
,,61719c5bd60f7885fceb4699,2024-02-18_20h47.03.254,kallum_motion_pilot,2023.2.2,Win32,59.52380952,61719c5bd60f7885fceb4699,65d2b6c8f2eece985d8e374c,65d2b88bc365b86d27d1c6eb,0.0546,0.0547,1,59,221,17,1,onethree,,,,,,,,,,,,,,,,,,,,,,,,,,,,,,,,,,,,,,,,,,,,,,,,,,,,,,,,,,,,,,,,,,,,,,,,,,,,,,,,,,,,,,,,,,,,,,,,,,,,,,,,,,,,,,,,,,,,,,,,,,,,,,,,,,,,,,,,,
,,61719c5bd60f7885fceb4699,2024-02-18_20h47.03.254,kallum_motion_pilot,2023.2.2,Win32,59.52380952,61719c5bd60f7885fceb4699,65d2b6c8f2eece985d8e374c,65d2b88bc365b86d27d1c6eb,0.0547,0.0548,1,60,222,88,1,fivesix,,,,,,,,,,,,,,,,,,,,,,,,,,,,,,,,,,,,,,,,,,,,,,,,,,,,,,,,,,,,,,,,,,,,,,,,,,,,,,,,,,,,,,,,,,,,,,,,,,,,,,,,,,,,,,,,,,,,,,,,,,,,,,,,,,,,,,,,,
,,61719c5bd60f7885fceb4699,2024-02-18_20h47.03.254,kallum_motion_pilot,2023.2.2,Win32,59.52380952,61719c5bd60f7885fceb4699,65d2b6c8f2eece985d8e374c,65d2b88bc365b86d27d1c6eb,0.0549,0.0549,1,61,223,84,1,sevenfive,,,,,,,,,,,,,,,,,,,,,,,,,,,,,,,,,,,,,,,,,,,,,,,,,,,,,,,,,,,,,,,,,,,,,,,,,,,,,,,,,,,,,,,,,,,,,,,,,,,,,,,,,,,,,,,,,,,,,,,,,,,,,,,,,,,,,,,,,
,,61719c5bd60f7885fceb4699,2024-02-18_20h47.03.254,kallum_motion_pilot,2023.2.2,Win32,59.52380952,61719c5bd60f7885fceb4699,65d2b6c8f2eece985d8e374c,65d2b88bc365b86d27d1c6eb,0.055,0.0551,1,62,224,75,1,twofour,,,,,,,,,,,,,,,,,,,,,,,,,,,,,,,,,,,,,,,,,,,,,,,,,,,,,,,,,,,,,,,,,,,,,,,,,,,,,,,,,,,,,,,,,,,,,,,,,,,,,,,,,,,,,,,,,,,,,,,,,,,,,,,,,,,,,,,,,
,,61719c5bd60f7885fceb4699,2024-02-18_20h47.03.254,kallum_motion_pilot,2023.2.2,Win32,59.52380952,61719c5bd60f7885fceb4699,65d2b6c8f2eece985d8e374c,65d2b88bc365b86d27d1c6eb,0.0552,0.0553,1,63,225,44,1,threeone,,,,,,,,,,,,,,,,,,,,,,,,,,,,,,,,,,,,,,,,,,,,,,,,,,,,,,,,,,,,,,,,,,,,,,,,,,,,,,,,,,,,,,,,,,,,,,,,,,,,,,,,,,,,,,,,,,,,,,,,,,,,,,,,,,,,,,,,,
,,61719c5bd60f7885fceb4699,2024-02-18_20h47.03.254,kallum_motion_pilot,2023.2.2,Win32,59.52380952,61719c5bd60f7885fceb4699,65d2b6c8f2eece985d8e374c,65d2b88bc365b86d27d1c6eb,0.0553,0.0554,1,64,226,24,1,onetwo,,,,,,,,,,,,,,,,,,,,,,,,,,,,,,,,,,,,,,,,,,,,,,,,,,,,,,,,,,,,,,,,,,,,,,,,,,,,,,,,,,,,,,,,,,,,,,,,,,,,,,,,,,,,,,,,,,,,,,,,,,,,,,,,,,,,,,,,,
,,61719c5bd60f7885fceb4699,2024-02-18_20h47.03.254,kallum_motion_pilot,2023.2.2,Win32,59.52380952,61719c5bd60f7885fceb4699,65d2b6c8f2eece985d8e374c,65d2b88bc365b86d27d1c6eb,0.0555,0.0556,1,65,227,152,1,fivesix,,,,,,,,,,,,,,,,,,,,,,,,,,,,,,,,,,,,,,,,,,,,,,,,,,,,,,,,,,,,,,,,,,,,,,,,,,,,,,,,,,,,,,,,,,,,,,,,,,,,,,,,,,,,,,,,,,,,,,,,,,,,,,,,,,,,,,,,,
,,61719c5bd60f7885fceb4699,2024-02-18_20h47.03.254,kallum_motion_pilot,2023.2.2,Win32,59.52380952,61719c5bd60f7885fceb4699,65d2b6c8f2eece985d8e374c,65d2b88bc365b86d27d1c6eb,0.0557,0.0557,1,66,228,120,1,fivesix,,,,,,,,,,,,,,,,,,,,,,,,,,,,,,,,,,,,,,,,,,,,,,,,,,,,,,,,,,,,,,,,,,,,,,,,,,,,,,,,,,,,,,,,,,,,,,,,,,,,,,,,,,,,,,,,,,,,,,,,,,,,,,,,,,,,,,,,,
,,61719c5bd60f7885fceb4699,2024-02-18_20h47.03.254,kallum_motion_pilot,2023.2.2,Win32,59.52380952,61719c5bd60f7885fceb4699,65d2b6c8f2eece985d8e374c,65d2b88bc365b86d27d1c6eb,0.0558,0.0559,1,67,229,34,1,twoone,,,,,,,,,,,,,,,,,,,,,,,,,,,,,,,,,,,,,,,,,,,,,,,,,,,,,,,,,,,,,,,,,,,,,,,,,,,,,,,,,,,,,,,,,,,,,,,,,,,,,,,,,,,,,,,,,,,,,,,,,,,,,,,,,,,,,,,,,
,,61719c5bd60f7885fceb4699,2024-02-18_20h47.03.254,kallum_motion_pilot,2023.2.2,Win32,59.52380952,61719c5bd60f7885fceb4699,65d2b6c8f2eece985d8e374c,65d2b88bc365b86d27d1c6eb,0.056,0.056,1,68,230,150,1,eightsix,,,,,,,,,,,,,,,,,,,,,,,,,,,,,,,,,,,,,,,,,,,,,,,,,,,,,,,,,,,,,,,,,,,,,,,,,,,,,,,,,,,,,,,,,,,,,,,,,,,,,,,,,,,,,,,,,,,,,,,,,,,,,,,,,,,,,,,,,
,,61719c5bd60f7885fceb4699,2024-02-18_20h47.03.254,kallum_motion_pilot,2023.2.2,Win32,59.52380952,61719c5bd60f7885fceb4699,65d2b6c8f2eece985d8e374c,65d2b88bc365b86d27d1c6eb,0.056,0.0561,1,69,231,32,1,onetwo,,,,,,,,,,,,,,,,,,,,,,,,,,,,,,,,,,,,,,,,,,,,,,,,,,,,,,,,,,,,,,,,,,,,,,,,,,,,,,,,,,,,,,,,,,,,,,,,,,,,,,,,,,,,,,,,,,,,,,,,,,,,,,,,,,,,,,,,,
,,61719c5bd60f7885fceb4699,2024-02-18_20h47.03.254,kallum_motion_pilot,2023.2.2,Win32,59.52380952,61719c5bd60f7885fceb4699,65d2b6c8f2eece985d8e374c,65d2b88bc365b86d27d1c6eb,0.0562,0.0563,1,70,232,80,1,fivesix,,,,,,,,,,,,,,,,,,,,,,,,,,,,,,,,,,,,,,,,,,,,,,,,,,,,,,,,,,,,,,,,,,,,,,,,,,,,,,,,,,,,,,,,,,,,,,,,,,,,,,,,,,,,,,,,,,,,,,,,,,,,,,,,,,,,,,,,,
,,61719c5bd60f7885fceb4699,2024-02-18_20h47.03.254,kallum_motion_pilot,2023.2.2,Win32,59.52380952,61719c5bd60f7885fceb4699,65d2b6c8f2eece985d8e374c,65d2b88bc365b86d27d1c6eb,0.0564,0.0565,1,71,233,71,1,fourthree,,,,,,,,,,,,,,,,,,,,,,,,,,,,,,,,,,,,,,,,,,,,,,,,,,,,,,,,,,,,,,,,,,,,,,,,,,,,,,,,,,,,,,,,,,,,,,,,,,,,,,,,,,,,,,,,,,,,,,,,,,,,,,,,,,,,,,,,,
,,61719c5bd60f7885fceb4699,2024-02-18_20h47.03.254,kallum_motion_pilot,2023.2.2,Win32,59.52380952,61719c5bd60f7885fceb4699,65d2b6c8f2eece985d8e374c,65d2b88bc365b86d27d1c6eb,0.0565,0.0566,1,72,234,57,1,onethree,,,,,,,,,,,,,,,,,,,,,,,,,,,,,,,,,,,,,,,,,,,,,,,,,,,,,,,,,,,,,,,,,,,,,,,,,,,,,,,,,,,,,,,,,,,,,,,,,,,,,,,,,,,,,,,,,,,,,,,,,,,,,,,,,,,,,,,,,
,,61719c5bd60f7885fceb4699,2024-02-18_20h47.03.254,kallum_motion_pilot,2023.2.2,Win32,59.52380952,61719c5bd60f7885fceb4699,65d2b6c8f2eece985d8e374c,65d2b88bc365b86d27d1c6eb,0.0567,0.0567,1,73,235,118,1,eightsix,,,,,,,,,,,,,,,,,,,,,,,,,,,,,,,,,,,,,,,,,,,,,,,,,,,,,,,,,,,,,,,,,,,,,,,,,,,,,,,,,,,,,,,,,,,,,,,,,,,,,,,,,,,,,,,,,,,,,,,,,,,,,,,,,,,,,,,,,
,,61719c5bd60f7885fceb4699,2024-02-18_20h47.03.254,kallum_motion_pilot,2023.2.2,Win32,59.52380952,61719c5bd60f7885fceb4699,65d2b6c8f2eece985d8e374c,65d2b88bc365b86d27d1c6eb,0.0568,0.0569,1,74,236,64,1,onetwo,,,,,,,,,,,,,,,,,,,,,,,,,,,,,,,,,,,,,,,,,,,,,,,,,,,,,,,,,,,,,,,,,,,,,,,,,,,,,,,,,,,,,,,,,,,,,,,,,,,,,,,,,,,,,,,,,,,,,,,,,,,,,,,,,,,,,,,,,
,,61719c5bd60f7885fceb4699,2024-02-18_20h47.03.254,kallum_motion_pilot,2023.2.2,Win32,59.52380952,61719c5bd60f7885fceb4699,65d2b6c8f2eece985d8e374c,65d2b88bc365b86d27d1c6eb,0.0572,0.0573,1,75,237,78,1,fourtwo,,,,,,,,,,,,,,,,,,,,,,,,,,,,,,,,,,,,,,,,,,,,,,,,,,,,,,,,,,,,,,,,,,,,,,,,,,,,,,,,,,,,,,,,,,,,,,,,,,,,,,,,,,,,,,,,,,,,,,,,,,,,,,,,,,,,,,,,,
,,61719c5bd60f7885fceb4699,2024-02-18_20h47.03.254,kallum_motion_pilot,2023.2.2,Win32,59.52380952,61719c5bd60f7885fceb4699,65d2b6c8f2eece985d8e374c,65d2b88bc365b86d27d1c6eb,0.0574,0.0575,1,76,238,0,1,onetwo,,,,,,,,,,,,,,,,,,,,,,,,,,,,,,,,,,,,,,,,,,,,,,,,,,,,,,,,,,,,,,,,,,,,,,,,,,,,,,,,,,,,,,,,,,,,,,,,,,,,,,,,,,,,,,,,,,,,,,,,,,,,,,,,,,,,,,,,,
,,61719c5bd60f7885fceb4699,2024-02-18_20h47.03.254,kallum_motion_pilot,2023.2.2,Win32,59.52380952,61719c5bd60f7885fceb4699,65d2b6c8f2eece985d8e374c,65d2b88bc365b86d27d1c6eb,0.0576,0.0576,1,77,239,137,1,fiveseven,,,,,,,,,,,,,,,,,,,,,,,,,,,,,,,,,,,,,,,,,,,,,,,,,,,,,,,,,,,,,,,,,,,,,,,,,,,,,,,,,,,,,,,,,,,,,,,,,,,,,,,,,,,,,,,,,,,,,,,,,,,,,,,,,,,,,,,,,
,,61719c5bd60f7885fceb4699,2024-02-18_20h47.03.254,kallum_motion_pilot,2023.2.2,Win32,59.52380952,61719c5bd60f7885fceb4699,65d2b6c8f2eece985d8e374c,65d2b88bc365b86d27d1c6eb,0.0576,0.0578,1,78,240,142,1,eightsix,,,,,,,,,,,,,,,,,,,,,,,,,,,,,,,,,,,,,,,,,,,,,,,,,,,,,,,,,,,,,,,,,,,,,,,,,,,,,,,,,,,,,,,,,,,,,,,,,,,,,,,,,,,,,,,,,,,,,,,,,,,,,,,,,,,,,,,,,
,,61719c5bd60f7885fceb4699,2024-02-18_20h47.03.254,kallum_motion_pilot,2023.2.2,Win32,59.52380952,61719c5bd60f7885fceb4699,65d2b6c8f2eece985d8e374c,65d2b88bc365b86d27d1c6eb,0.0578,0.0578,1,79,241,54,1,fourtwo,,,,,,,,,,,,,,,,,,,,,,,,,,,,,,,,,,,,,,,,,,,,,,,,,,,,,,,,,,,,,,,,,,,,,,,,,,,,,,,,,,,,,,,,,,,,,,,,,,,,,,,,,,,,,,,,,,,,,,,,,,,,,,,,,,,,,,,,,
,,61719c5bd60f7885fceb4699,2024-02-18_20h47.03.254,kallum_motion_pilot,2023.2.2,Win32,59.52380952,61719c5bd60f7885fceb4699,65d2b6c8f2eece985d8e374c,65d2b88bc365b86d27d1c6eb,0.0579,0.058,1,80,242,50,1,twoone,,,,,,,,,,,,,,,,,,,,,,,,,,,,,,,,,,,,,,,,,,,,,,,,,,,,,,,,,,,,,,,,,,,,,,,,,,,,,,,,,,,,,,,,,,,,,,,,,,,,,,,,,,,,,,,,,,,,,,,,,,,,,,,,,,,,,,,,,
,,61719c5bd60f7885fceb4699,2024-02-18_20h47.03.254,kallum_motion_pilot,2023.2.2,Win32,59.52380952,61719c5bd60f7885fceb4699,65d2b6c8f2eece985d8e374c,65d2b88bc365b86d27d1c6eb,0.0581,0.0582,1,81,243,119,1,eightseven,,,,,,,,,,,,,,,,,,,,,,,,,,,,,,,,,,,,,,,,,,,,,,,,,,,,,,,,,,,,,,,,,,,,,,,,,,,,,,,,,,,,,,,,,,,,,,,,,,,,,,,,,,,,,,,,,,,,,,,,,,,,,,,,,,,,,,,,,
,,61719c5bd60f7885fceb4699,2024-02-18_20h47.03.254,kallum_motion_pilot,2023.2.2,Win32,59.52380952,61719c5bd60f7885fceb4699,65d2b6c8f2eece985d8e374c,65d2b88bc365b86d27d1c6eb,0.0582,0.0583,1,82,244,12,1,threeone,,,,,,,,,,,,,,,,,,,,,,,,,,,,,,,,,,,,,,,,,,,,,,,,,,,,,,,,,,,,,,,,,,,,,,,,,,,,,,,,,,,,,,,,,,,,,,,,,,,,,,,,,,,,,,,,,,,,,,,,,,,,,,,,,,,,,,,,,
,,61719c5bd60f7885fceb4699,2024-02-18_20h47.03.254,kallum_motion_pilot,2023.2.2,Win32,59.52380952,61719c5bd60f7885fceb4699,65d2b6c8f2eece985d8e374c,65d2b88bc365b86d27d1c6eb,0.0584,0.0585,1,83,245,65,1,onethree,,,,,,,,,,,,,,,,,,,,,,,,,,,,,,,,,,,,,,,,,,,,,,,,,,,,,,,,,,,,,,,,,,,,,,,,,,,,,,,,,,,,,,,,,,,,,,,,,,,,,,,,,,,,,,,,,,,,,,,,,,,,,,,,,,,,,,,,,
,,61719c5bd60f7885fceb4699,2024-02-18_20h47.03.254,kallum_motion_pilot,2023.2.2,Win32,59.52380952,61719c5bd60f7885fceb4699,65d2b6c8f2eece985d8e374c,65d2b88bc365b86d27d1c6eb,0.0586,0.0586,1,84,246,129,1,fiveseven,,,,,,,,,,,,,,,,,,,,,,,,,,,,,,,,,,,,,,,,,,,,,,,,,,,,,,,,,,,,,,,,,,,,,,,,,,,,,,,,,,,,,,,,,,,,,,,,,,,,,,,,,,,,,,,,,,,,,,,,,,,,,,,,,,,,,,,,,
,,61719c5bd60f7885fceb4699,2024-02-18_20h47.03.254,kallum_motion_pilot,2023.2.2,Win32,59.52380952,61719c5bd60f7885fceb4699,65d2b6c8f2eece985d8e374c,65d2b88bc365b86d27d1c6eb,0.0587,0.0588,1,85,247,35,1,twofour,,,,,,,,,,,,,,,,,,,,,,,,,,,,,,,,,,,,,,,,,,,,,,,,,,,,,,,,,,,,,,,,,,,,,,,,,,,,,,,,,,,,,,,,,,,,,,,,,,,,,,,,,,,,,,,,,,,,,,,,,,,,,,,,,,,,,,,,,
,,61719c5bd60f7885fceb4699,2024-02-18_20h47.03.254,kallum_motion_pilot,2023.2.2,Win32,59.52380952,61719c5bd60f7885fceb4699,65d2b6c8f2eece985d8e374c,65d2b88bc365b86d27d1c6eb,0.0588,0.0589,1,86,248,49,1,onethree,,,,,,,,,,,,,,,,,,,,,,,,,,,,,,,,,,,,,,,,,,,,,,,,,,,,,,,,,,,,,,,,,,,,,,,,,,,,,,,,,,,,,,,,,,,,,,,,,,,,,,,,,,,,,,,,,,,,,,,,,,,,,,,,,,,,,,,,,
,,61719c5bd60f7885fceb4699,2024-02-18_20h47.03.254,kallum_motion_pilot,2023.2.2,Win32,59.52380952,61719c5bd60f7885fceb4699,65d2b6c8f2eece985d8e374c,65d2b88bc365b86d27d1c6eb,0.059,0.059,1,87,249,82,1,sixfive,,,,,,,,,,,,,,,,,,,,,,,,,,,,,,,,,,,,,,,,,,,,,,,,,,,,,,,,,,,,,,,,,,,,,,,,,,,,,,,,,,,,,,,,,,,,,,,,,,,,,,,,,,,,,,,,,,,,,,,,,,,,,,,,,,,,,,,,,
,,61719c5bd60f7885fceb4699,2024-02-18_20h47.03.254,kallum_motion_pilot,2023.2.2,Win32,59.52380952,61719c5bd60f7885fceb4699,65d2b6c8f2eece985d8e374c,65d2b88bc365b86d27d1c6eb,0.0591,0.0592,1,88,250,61,1,threefour,,,,,,,,,,,,,,,,,,,,,,,,,,,,,,,,,,,,,,,,,,,,,,,,,,,,,,,,,,,,,,,,,,,,,,,,,,,,,,,,,,,,,,,,,,,,,,,,,,,,,,,,,,,,,,,,,,,,,,,,,,,,,,,,,,,,,,,,,
,,61719c5bd60f7885fceb4699,2024-02-18_20h47.03.254,kallum_motion_pilot,2023.2.2,Win32,59.52380952,61719c5bd60f7885fceb4699,65d2b6c8f2eece985d8e374c,65d2b88bc365b86d27d1c6eb,0.0593,0.0593,1,89,251,117,1,seveneight,,,,,,,,,,,,,,,,,,,,,,,,,,,,,,,,,,,,,,,,,,,,,,,,,,,,,,,,,,,,,,,,,,,,,,,,,,,,,,,,,,,,,,,,,,,,,,,,,,,,,,,,,,,,,,,,,,,,,,,,,,,,,,,,,,,,,,,,,
,,61719c5bd60f7885fceb4699,2024-02-18_20h47.03.254,kallum_motion_pilot,2023.2.2,Win32,59.52380952,61719c5bd60f7885fceb4699,65d2b6c8f2eece985d8e374c,65d2b88bc365b86d27d1c6eb,0.0594,0.0594,1,90,252,94,1,eightsix,,,,,,,,,,,,,,,,,,,,,,,,,,,,,,,,,,,,,,,,,,,,,,,,,,,,,,,,,,,,,,,,,,,,,,,,,,,,,,,,,,,,,,,,,,,,,,,,,,,,,,,,,,,,,,,,,,,,,,,,,,,,,,,,,,,,,,,,,
,,61719c5bd60f7885fceb4699,2024-02-18_20h47.03.254,kallum_motion_pilot,2023.2.2,Win32,59.52380952,61719c5bd60f7885fceb4699,65d2b6c8f2eece985d8e374c,65d2b88bc365b86d27d1c6eb,0.0596,0.0596,1,91,253,6,1,fourtwo,,,,,,,,,,,,,,,,,,,,,,,,,,,,,,,,,,,,,,,,,,,,,,,,,,,,,,,,,,,,,,,,,,,,,,,,,,,,,,,,,,,,,,,,,,,,,,,,,,,,,,,,,,,,,,,,,,,,,,,,,,,,,,,,,,,,,,,,,
,,61719c5bd60f7885fceb4699,2024-02-18_20h47.03.254,kallum_motion_pilot,2023.2.2,Win32,59.52380952,61719c5bd60f7885fceb4699,65d2b6c8f2eece985d8e374c,65d2b88bc365b86d27d1c6eb,0.0597,0.0598,1,92,254,1,1,onethree,,,,,,,,,,,,,,,,,,,,,,,,,,,,,,,,,,,,,,,,,,,,,,,,,,,,,,,,,,,,,,,,,,,,,,,,,,,,,,,,,,,,,,,,,,,,,,,,,,,,,,,,,,,,,,,,,,,,,,,,,,,,,,,,,,,,,,,,,
,,61719c5bd60f7885fceb4699,2024-02-18_20h47.03.254,kallum_motion_pilot,2023.2.2,Win32,59.52380952,61719c5bd60f7885fceb4699,65d2b6c8f2eece985d8e374c,65d2b88bc365b86d27d1c6eb,0.0599,0.06,1,93,255,16,1,onetwo,,,,,,,,,,,,,,,,,,,,,,,,,,,,,,,,,,,,,,,,,,,,,,,,,,,,,,,,,,,,,,,,,,,,,,,,,,,,,,,,,,,,,,,,,,,,,,,,,,,,,,,,,,,,,,,,,,,,,,,,,,,,,,,,,,,,,,,,,
,,61719c5bd60f7885fceb4699,2024-02-18_20h47.03.254,kallum_motion_pilot,2023.2.2,Win32,59.52380952,61719c5bd60f7885fceb4699,65d2b6c8f2eece985d8e374c,65d2b88bc365b86d27d1c6eb,0.0602,0.0603,1,94,256,66,1,twoone,,,,,,,,,,,,,,,,,,,,,,,,,,,,,,,,,,,,,,,,,,,,,,,,,,,,,,,,,,,,,,,,,,,,,,,,,,,,,,,,,,,,,,,,,,,,,,,,,,,,,,,,,,,,,,,,,,,,,,,,,,,,,,,,,,,,,,,,,
,,61719c5bd60f7885fceb4699,2024-02-18_20h47.03.254,kallum_motion_pilot,2023.2.2,Win32,59.52380952,61719c5bd60f7885fceb4699,65d2b6c8f2eece985d8e374c,65d2b88bc365b86d27d1c6eb,0.0603,0.0604,1,95,257,131,1,sixeight,,,,,,,,,,,,,,,,,,,,,,,,,,,,,,,,,,,,,,,,,,,,,,,,,,,,,,,,,,,,,,,,,,,,,,,,,,,,,,,,,,,,,,,,,,,,,,,,,,,,,,,,,,,,,,,,,,,,,,,,,,,,,,,,,,,,,,,,,
,,61719c5bd60f7885fceb4699,2024-02-18_20h47.03.254,kallum_motion_pilot,2023.2.2,Win32,59.52380952,61719c5bd60f7885fceb4699,65d2b6c8f2eece985d8e374c,65d2b88bc365b86d27d1c6eb,0.0604,0.0605,1,96,258,48,1,onetwo,,,,,,,,,,,,,,,,,,,,,,,,,,,,,,,,,,,,,,,,,,,,,,,,,,,,,,,,,,,,,,,,,,,,,,,,,,,,,,,,,,,,,,,,,,,,,,,,,,,,,,,,,,,,,,,,,,,,,,,,,,,,,,,,,,,,,,,,,
,,61719c5bd60f7885fceb4699,2024-02-18_20h47.03.254,kallum_motion_pilot,2023.2.2,Win32,59.52380952,61719c5bd60f7885fceb4699,65d2b6c8f2eece985d8e374c,65d2b88bc365b86d27d1c6eb,0.0606,0.0607,1,97,259,70,1,fourtwo,,,,,,,,,,,,,,,,,,,,,,,,,,,,,,,,,,,,,,,,,,,,,,,,,,,,,,,,,,,,,,,,,,,,,,,,,,,,,,,,,,,,,,,,,,,,,,,,,,,,,,,,,,,,,,,,,,,,,,,,,,,,,,,,,,,,,,,,,
,,61719c5bd60f7885fceb4699,2024-02-18_20h47.03.254,kallum_motion_pilot,2023.2.2,Win32,59.52380952,61719c5bd60f7885fceb4699,65d2b6c8f2eece985d8e374c,65d2b88bc365b86d27d1c6eb,0.0607,0.0608,1,98,260,63,1,fourthree,,,,,,,,,,,,,,,,,,,,,,,,,,,,,,,,,,,,,,,,,,,,,,,,,,,,,,,,,,,,,,,,,,,,,,,,,,,,,,,,,,,,,,,,,,,,,,,,,,,,,,,,,,,,,,,,,,,,,,,,,,,,,,,,,,,,,,,,,
,,61719c5bd60f7885fceb4699,2024-02-18_20h47.03.254,kallum_motion_pilot,2023.2.2,Win32,59.52380952,61719c5bd60f7885fceb4699,65d2b6c8f2eece985d8e374c,65d2b88bc365b86d27d1c6eb,0.0609,0.0609,1,99,261,29,1,threefour,,,,,,,,,,,,,,,,,,,,,,,,,,,,,,,,,,,,,,,,,,,,,,,,,,,,,,,,,,,,,,,,,,,,,,,,,,,,,,,,,,,,,,,,,,,,,,,,,,,,,,,,,,,,,,,,,,,,,,,,,,,,,,,,,,,,,,,,,
,,61719c5bd60f7885fceb4699,2024-02-18_20h47.03.254,kallum_motion_pilot,2023.2.2,Win32,59.52380952,61719c5bd60f7885fceb4699,65d2b6c8f2eece985d8e374c,65d2b88bc365b86d27d1c6eb,0.061,0.0612,1,100,262,38,1,fourtwo,,,,,,,,,,,,,,,,,,,,,,,,,,,,,,,,,,,,,,,,,,,,,,,,,,,,,,,,,,,,,,,,,,,,,,,,,,,,,,,,,,,,,,,,,,,,,,,,,,,,,,,,,,,,,,,,,,,,,,,,,,,,,,,,,,,,,,,,,
,,61719c5bd60f7885fceb4699,2024-02-18_20h47.03.254,kallum_motion_pilot,2023.2.2,Win32,59.52380952,61719c5bd60f7885fceb4699,65d2b6c8f2eece985d8e374c,65d2b88bc365b86d27d1c6eb,0.0612,0.0612,1,101,263,39,1,fourthree,,,,,,,,,,,,,,,,,,,,,,,,,,,,,,,,,,,,,,,,,,,,,,,,,,,,,,,,,,,,,,,,,,,,,,,,,,,,,,,,,,,,,,,,,,,,,,,,,,,,,,,,,,,,,,,,,,,,,,,,,,,,,,,,,,,,,,,,,
,,61719c5bd60f7885fceb4699,2024-02-18_20h47.03.254,kallum_motion_pilot,2023.2.2,Win32,59.52380952,61719c5bd60f7885fceb4699,65d2b6c8f2eece985d8e374c,65d2b88bc365b86d27d1c6eb,0.0614,0.0615,1,102,264,108,1,sevenfive,,,,,,,,,,,,,,,,,,,,,,,,,,,,,,,,,,,,,,,,,,,,,,,,,,,,,,,,,,,,,,,,,,,,,,,,,,,,,,,,,,,,,,,,,,,,,,,,,,,,,,,,,,,,,,,,,,,,,,,,,,,,,,,,,,,,,,,,,
,,61719c5bd60f7885fceb4699,2024-02-18_20h47.03.254,kallum_motion_pilot,2023.2.2,Win32,59.52380952,61719c5bd60f7885fceb4699,65d2b6c8f2eece985d8e374c,65d2b88bc365b86d27d1c6eb,0.0616,0.0616,1,103,265,160,1,fivesix,,,,,,,,,,,,,,,,,,,,,,,,,,,,,,,,,,,,,,,,,,,,,,,,,,,,,,,,,,,,,,,,,,,,,,,,,,,,,,,,,,,,,,,,,,,,,,,,,,,,,,,,,,,,,,,,,,,,,,,,,,,,,,,,,,,,,,,,,
,,61719c5bd60f7885fceb4699,2024-02-18_20h47.03.254,kallum_motion_pilot,2023.2.2,Win32,59.52380952,61719c5bd60f7885fceb4699,65d2b6c8f2eece985d8e374c,65d2b88bc365b86d27d1c6eb,0.0617,0.0618,1,104,266,2,1,twoone,,,,,,,,,,,,,,,,,,,,,,,,,,,,,,,,,,,,,,,,,,,,,,,,,,,,,,,,,,,,,,,,,,,,,,,,,,,,,,,,,,,,,,,,,,,,,,,,,,,,,,,,,,,,,,,,,,,,,,,,,,,,,,,,,,,,,,,,,
,,61719c5bd60f7885fceb4699,2024-02-18_20h47.03.254,kallum_motion_pilot,2023.2.2,Win32,59.52380952,61719c5bd60f7885fceb4699,65d2b6c8f2eece985d8e374c,65d2b88bc365b86d27d1c6eb,0.0619,0.062,1,105,267,83,1,sixeight,,,,,,,,,,,,,,,,,,,,,,,,,,,,,,,,,,,,,,,,,,,,,,,,,,,,,,,,,,,,,,,,,,,,,,,,,,,,,,,,,,,,,,,,,,,,,,,,,,,,,,,,,,,,,,,,,,,,,,,,,,,,,,,,,,,,,,,,,
,,61719c5bd60f7885fceb4699,2024-02-18_20h47.03.254,kallum_motion_pilot,2023.2.2,Win32,59.52380952,61719c5bd60f7885fceb4699,65d2b6c8f2eece985d8e374c,65d2b88bc365b86d27d1c6eb,0.0621,0.0621,1,106,268,123,1,sixeight,,,,,,,,,,,,,,,,,,,,,,,,,,,,,,,,,,,,,,,,,,,,,,,,,,,,,,,,,,,,,,,,,,,,,,,,,,,,,,,,,,,,,,,,,,,,,,,,,,,,,,,,,,,,,,,,,,,,,,,,,,,,,,,,,,,,,,,,,
,,61719c5bd60f7885fceb4699,2024-02-18_20h47.03.254,kallum_motion_pilot,2023.2.2,Win32,59.52380952,61719c5bd60f7885fceb4699,65d2b6c8f2eece985d8e374c,65d2b88bc365b86d27d1c6eb,0.0622,0.0623,1,107,269,74,1,twoone,,,,,,,,,,,,,,,,,,,,,,,,,,,,,,,,,,,,,,,,,,,,,,,,,,,,,,,,,,,,,,,,,,,,,,,,,,,,,,,,,,,,,,,,,,,,,,,,,,,,,,,,,,,,,,,,,,,,,,,,,,,,,,,,,,,,,,,,,
,,61719c5bd60f7885fceb4699,2024-02-18_20h47.03.254,kallum_motion_pilot,2023.2.2,Win32,59.52380952,61719c5bd60f7885fceb4699,65d2b6c8f2eece985d8e374c,65d2b88bc365b86d27d1c6eb,0.0623,0.0624,1,108,270,107,1,sixeight,,,,,,,,,,,,,,,,,,,,,,,,,,,,,,,,,,,,,,,,,,,,,,,,,,,,,,,,,,,,,,,,,,,,,,,,,,,,,,,,,,,,,,,,,,,,,,,,,,,,,,,,,,,,,,,,,,,,,,,,,,,,,,,,,,,,,,,,,
,,61719c5bd60f7885fceb4699,2024-02-18_20h47.03.254,kallum_motion_pilot,2023.2.2,Win32,59.52380952,61719c5bd60f7885fceb4699,65d2b6c8f2eece985d8e374c,65d2b88bc365b86d27d1c6eb,0.0624,0.0625,1,109,271,128,1,fivesix,,,,,,,,,,,,,,,,,,,,,,,,,,,,,,,,,,,,,,,,,,,,,,,,,,,,,,,,,,,,,,,,,,,,,,,,,,,,,,,,,,,,,,,,,,,,,,,,,,,,,,,,,,,,,,,,,,,,,,,,,,,,,,,,,,,,,,,,,
,,61719c5bd60f7885fceb4699,2024-02-18_20h47.03.254,kallum_motion_pilot,2023.2.2,Win32,59.52380952,61719c5bd60f7885fceb4699,65d2b6c8f2eece985d8e374c,65d2b88bc365b86d27d1c6eb,0.0626,0.0627,1,110,272,36,1,threeone,,,,,,,,,,,,,,,,,,,,,,,,,,,,,,,,,,,,,,,,,,,,,,,,,,,,,,,,,,,,,,,,,,,,,,,,,,,,,,,,,,,,,,,,,,,,,,,,,,,,,,,,,,,,,,,,,,,,,,,,,,,,,,,,,,,,,,,,,
,,61719c5bd60f7885fceb4699,2024-02-18_20h47.03.254,kallum_motion_pilot,2023.2.2,Win32,59.52380952,61719c5bd60f7885fceb4699,65d2b6c8f2eece985d8e374c,65d2b88bc365b86d27d1c6eb,0.0628,0.0629,1,111,273,42,1,twoone,,,,,,,,,,,,,,,,,,,,,,,,,,,,,,,,,,,,,,,,,,,,,,,,,,,,,,,,,,,,,,,,,,,,,,,,,,,,,,,,,,,,,,,,,,,,,,,,,,,,,,,,,,,,,,,,,,,,,,,,,,,,,,,,,,,,,,,,,
,,61719c5bd60f7885fceb4699,2024-02-18_20h47.03.254,kallum_motion_pilot,2023.2.2,Win32,59.52380952,61719c5bd60f7885fceb4699,65d2b6c8f2eece985d8e374c,65d2b88bc365b86d27d1c6eb,0.0629,0.063,1,112,274,92,1,sevenfive,,,,,,,,,,,,,,,,,,,,,,,,,,,,,,,,,,,,,,,,,,,,,,,,,,,,,,,,,,,,,,,,,,,,,,,,,,,,,,,,,,,,,,,,,,,,,,,,,,,,,,,,,,,,,,,,,,,,,,,,,,,,,,,,,,,,,,,,,
,,61719c5bd60f7885fceb4699,2024-02-18_20h47.03.254,kallum_motion_pilot,2023.2.2,Win32,59.52380952,61719c5bd60f7885fceb4699,65d2b6c8f2eece985d8e374c,65d2b88bc365b86d27d1c6eb,0.0631,0.0631,1,113,275,43,1,twofour,,,,,,,,,,,,,,,,,,,,,,,,,,,,,,,,,,,,,,,,,,,,,,,,,,,,,,,,,,,,,,,,,,,,,,,,,,,,,,,,,,,,,,,,,,,,,,,,,,,,,,,,,,,,,,,,,,,,,,,,,,,,,,,,,,,,,,,,,
,,61719c5bd60f7885fceb4699,2024-02-18_20h47.03.254,kallum_motion_pilot,2023.2.2,Win32,59.52380952,61719c5bd60f7885fceb4699,65d2b6c8f2eece985d8e374c,65d2b88bc365b86d27d1c6eb,0.0632,0.0633,1,114,276,132,1,sevenfive,,,,,,,,,,,,,,,,,,,,,,,,,,,,,,,,,,,,,,,,,,,,,,,,,,,,,,,,,,,,,,,,,,,,,,,,,,,,,,,,,,,,,,,,,,,,,,,,,,,,,,,,,,,,,,,,,,,,,,,,,,,,,,,,,,,,,,,,,
,,61719c5bd60f7885fceb4699,2024-02-18_20h47.03.254,kallum_motion_pilot,2023.2.2,Win32,59.52380952,61719c5bd60f7885fceb4699,65d2b6c8f2eece985d8e374c,65d2b88bc365b86d27d1c6eb,0.0634,0.0635,1,115,277,91,1,sixeight,,,,,,,,,,,,,,,,,,,,,,,,,,,,,,,,,,,,,,,,,,,,,,,,,,,,,,,,,,,,,,,,,,,,,,,,,,,,,,,,,,,,,,,,,,,,,,,,,,,,,,,,,,,,,,,,,,,,,,,,,,,,,,,,,,,,,,,,,
