startup.started,startup.stopped,Prolific ID*,date,expName,psychopyVersion,OS,frameRate,participant,study_id,session,stimpositions.started,stimpositions.stopped,hardcoded_stimulus_positions.thisRepN,hardcoded_stimulus_positions.thisTrialN,hardcoded_stimulus_positions.thisN,hardcoded_stimulus_positions.thisIndex,hardcoded_stimulus_positions.ran,StimulusPos,stimorientation.started,stimorientation.stopped,prac_stimorientation_import_loop.thisRepN,prac_stimorientation_import_loop.thisTrialN,prac_stimorientation_import_loop.thisN,prac_stimorientation_import_loop.thisIndex,prac_stimorientation_import_loop.ran,Stimorientation,welcome_instr.started,welcome_instr.stopped,key_resp.keys,key_resp.rt,key_resp.duration,response_steppedout_1.started,response_steppedout_1.stopped,key_resp_20.keys,key_resp_20.rt,key_resp_20.duration,response_steppedout_2.started,response_steppedout_2.stopped,key_resp_19.keys,key_resp_19.rt,key_resp_19.duration,stim_response_instr.started,stim_response_instr.stopped,key_resp_15.keys,key_resp_15.rt,key_resp_15.duration,direction_instr_2.started,direction_instr_2.stopped,key_resp_9.keys,key_resp_9.rt,key_resp_9.duration,instr_prac.started,instr_prac.stopped,key_resp_10.keys,key_resp_10.rt,key_resp_10.duration,Stim1_display_prac.started,Stim1_display_prac.stopped,Ecc,Circle1_ori,Circle2_ori,response_prac.started,similarity,response_time,response_prac.stopped,mouse_5.x,mouse_5.y,mouse_5.leftButton,mouse_5.midButton,mouse_5.rightButton,mouse_5.clicked_name,responseprac_feedback.started,responseprac_feedback.stopped,summary2_prac.started,summary2_prac.stopped,mouse_6.x,mouse_6.y,mouse_6.leftButton,mouse_6.midButton,mouse_6.rightButton,mouse_6.clicked_name,duringprac.thisRepN,duringprac.thisTrialN,duringprac.thisN,duringprac.thisIndex,duringprac.ran,begin.started,begin.stopped,key_resp_22.keys,key_resp_22.rt,key_resp_22.duration,Stim1_display.started,Stim1_display.stopped,circle1_ori,circle2_ori,circle1_SF,circle2_SF,response.started,response.stopped,mouse.x,mouse.y,mouse.leftButton,mouse.midButton,mouse.rightButton,mouse.clicked_name,trialnumber,double_pass.thisRepN,double_pass.thisTrialN,double_pass.thisN,double_pass.thisIndex,double_pass.ran,double_pass.order,main_trial.thisRepN,main_trial.thisTrialN,main_trial.thisN,main_trial.thisIndex,main_trial.ran,main_trial.order,Trial_Counter,Catch,Frequencies,response_2.started,response_2.stopped,mouse_2.x,mouse_2.y,mouse_2.leftButton,mouse_2.midButton,mouse_2.rightButton,mouse_2.clicked_name,special_trial.started,special_trial.stopped,catch_1.started,catch_1.stopped,mouse_3.x,mouse_3.y,mouse_3.leftButton,mouse_3.midButton,mouse_3.rightButton,catchresponse,catchnumber,response_time_catch,response_sum.started,response_sum.stopped,mouse_11.x,mouse_11.y,mouse_11.leftButton,mouse_11.midButton,mouse_11.rightButton,flip_presentation_sequence_for_double_pass.started,flip_presentation_sequence_for_double_pass.stopped,goodbye.started,goodbye.stopped,key_resp_3.keys,key_resp_3.rt,key_resp_3.duration
0.0018,0.0019,617643296ef9b0d0e80e69a2,2024-02-19_04h12.58.432,kallum_motion_pilot,2023.2.2,Win32,60.24096386,617643296ef9b0d0e80e69a2,65d2b6c8f2eece985d8e374c,65d2b8c5021102d092193342,,,,,,,,,,,,,,,,,,,,,,,,,,,,,,,,,,,,,,,,,,,,,,,,,,,,,,,,,,,,,,,,,,,,,,,,,,,,,,,,,,,,,,,,,,,,,,,,,,,,,,,,,,,,,,,,,,,,,,,,,,,,,,,,,,,,,,,,,,,,,,,,,
,,617643296ef9b0d0e80e69a2,2024-02-19_04h12.58.432,kallum_motion_pilot,2023.2.2,Win32,60.24096386,617643296ef9b0d0e80e69a2,65d2b6c8f2eece985d8e374c,65d2b8c5021102d092193342,0.1712,0.1717,0,0,0,32,1,onetwo,,,,,,,,,,,,,,,,,,,,,,,,,,,,,,,,,,,,,,,,,,,,,,,,,,,,,,,,,,,,,,,,,,,,,,,,,,,,,,,,,,,,,,,,,,,,,,,,,,,,,,,,,,,,,,,,,,,,,,,,,,,,,,,,,,,,,,,,,
,,617643296ef9b0d0e80e69a2,2024-02-19_04h12.58.432,kallum_motion_pilot,2023.2.2,Win32,60.24096386,617643296ef9b0d0e80e69a2,65d2b6c8f2eece985d8e374c,65d2b8c5021102d092193342,0.1721,0.1723,0,1,1,116,1,sevenfive,,,,,,,,,,,,,,,,,,,,,,,,,,,,,,,,,,,,,,,,,,,,,,,,,,,,,,,,,,,,,,,,,,,,,,,,,,,,,,,,,,,,,,,,,,,,,,,,,,,,,,,,,,,,,,,,,,,,,,,,,,,,,,,,,,,,,,,,,
,,617643296ef9b0d0e80e69a2,2024-02-19_04h12.58.432,kallum_motion_pilot,2023.2.2,Win32,60.24096386,617643296ef9b0d0e80e69a2,65d2b6c8f2eece985d8e374c,65d2b8c5021102d092193342,0.1728,0.1728,0,2,2,8,1,onetwo,,,,,,,,,,,,,,,,,,,,,,,,,,,,,,,,,,,,,,,,,,,,,,,,,,,,,,,,,,,,,,,,,,,,,,,,,,,,,,,,,,,,,,,,,,,,,,,,,,,,,,,,,,,,,,,,,,,,,,,,,,,,,,,,,,,,,,,,,
,,617643296ef9b0d0e80e69a2,2024-02-19_04h12.58.432,kallum_motion_pilot,2023.2.2,Win32,60.24096386,617643296ef9b0d0e80e69a2,65d2b6c8f2eece985d8e374c,65d2b8c5021102d092193342,0.1732,0.1733,0,3,3,1,1,onethree,,,,,,,,,,,,,,,,,,,,,,,,,,,,,,,,,,,,,,,,,,,,,,,,,,,,,,,,,,,,,,,,,,,,,,,,,,,,,,,,,,,,,,,,,,,,,,,,,,,,,,,,,,,,,,,,,,,,,,,,,,,,,,,,,,,,,,,,,
,,617643296ef9b0d0e80e69a2,2024-02-19_04h12.58.432,kallum_motion_pilot,2023.2.2,Win32,60.24096386,617643296ef9b0d0e80e69a2,65d2b6c8f2eece985d8e374c,65d2b8c5021102d092193342,0.1736,0.1737,0,4,4,74,1,twoone,,,,,,,,,,,,,,,,,,,,,,,,,,,,,,,,,,,,,,,,,,,,,,,,,,,,,,,,,,,,,,,,,,,,,,,,,,,,,,,,,,,,,,,,,,,,,,,,,,,,,,,,,,,,,,,,,,,,,,,,,,,,,,,,,,,,,,,,,
,,617643296ef9b0d0e80e69a2,2024-02-19_04h12.58.432,kallum_motion_pilot,2023.2.2,Win32,60.24096386,617643296ef9b0d0e80e69a2,65d2b6c8f2eece985d8e374c,65d2b8c5021102d092193342,0.174,0.1741,0,5,5,155,1,sixeight,,,,,,,,,,,,,,,,,,,,,,,,,,,,,,,,,,,,,,,,,,,,,,,,,,,,,,,,,,,,,,,,,,,,,,,,,,,,,,,,,,,,,,,,,,,,,,,,,,,,,,,,,,,,,,,,,,,,,,,,,,,,,,,,,,,,,,,,,
,,617643296ef9b0d0e80e69a2,2024-02-19_04h12.58.432,kallum_motion_pilot,2023.2.2,Win32,60.24096386,617643296ef9b0d0e80e69a2,65d2b6c8f2eece985d8e374c,65d2b8c5021102d092193342,0.1743,0.1745,0,6,6,132,1,sevenfive,,,,,,,,,,,,,,,,,,,,,,,,,,,,,,,,,,,,,,,,,,,,,,,,,,,,,,,,,,,,,,,,,,,,,,,,,,,,,,,,,,,,,,,,,,,,,,,,,,,,,,,,,,,,,,,,,,,,,,,,,,,,,,,,,,,,,,,,,
,,617643296ef9b0d0e80e69a2,2024-02-19_04h12.58.432,kallum_motion_pilot,2023.2.2,Win32,60.24096386,617643296ef9b0d0e80e69a2,65d2b6c8f2eece985d8e374c,65d2b8c5021102d092193342,0.1748,0.175,0,7,7,85,1,seveneight,,,,,,,,,,,,,,,,,,,,,,,,,,,,,,,,,,,,,,,,,,,,,,,,,,,,,,,,,,,,,,,,,,,,,,,,,,,,,,,,,,,,,,,,,,,,,,,,,,,,,,,,,,,,,,,,,,,,,,,,,,,,,,,,,,,,,,,,,
,,617643296ef9b0d0e80e69a2,2024-02-19_04h12.58.432,kallum_motion_pilot,2023.2.2,Win32,60.24096386,617643296ef9b0d0e80e69a2,65d2b6c8f2eece985d8e374c,65d2b8c5021102d092193342,0.1753,0.1755,0,8,8,112,1,fivesix,,,,,,,,,,,,,,,,,,,,,,,,,,,,,,,,,,,,,,,,,,,,,,,,,,,,,,,,,,,,,,,,,,,,,,,,,,,,,,,,,,,,,,,,,,,,,,,,,,,,,,,,,,,,,,,,,,,,,,,,,,,,,,,,,,,,,,,,,
,,617643296ef9b0d0e80e69a2,2024-02-19_04h12.58.432,kallum_motion_pilot,2023.2.2,Win32,60.24096386,617643296ef9b0d0e80e69a2,65d2b6c8f2eece985d8e374c,65d2b8c5021102d092193342,0.1757,0.1758,0,9,9,43,1,twofour,,,,,,,,,,,,,,,,,,,,,,,,,,,,,,,,,,,,,,,,,,,,,,,,,,,,,,,,,,,,,,,,,,,,,,,,,,,,,,,,,,,,,,,,,,,,,,,,,,,,,,,,,,,,,,,,,,,,,,,,,,,,,,,,,,,,,,,,,
,,617643296ef9b0d0e80e69a2,2024-02-19_04h12.58.432,kallum_motion_pilot,2023.2.2,Win32,60.24096386,617643296ef9b0d0e80e69a2,65d2b6c8f2eece985d8e374c,65d2b8c5021102d092193342,0.1761,0.1761,0,10,10,42,1,twoone,,,,,,,,,,,,,,,,,,,,,,,,,,,,,,,,,,,,,,,,,,,,,,,,,,,,,,,,,,,,,,,,,,,,,,,,,,,,,,,,,,,,,,,,,,,,,,,,,,,,,,,,,,,,,,,,,,,,,,,,,,,,,,,,,,,,,,,,,
,,617643296ef9b0d0e80e69a2,2024-02-19_04h12.58.432,kallum_motion_pilot,2023.2.2,Win32,60.24096386,617643296ef9b0d0e80e69a2,65d2b6c8f2eece985d8e374c,65d2b8c5021102d092193342,0.1764,0.1765,0,11,11,105,1,fiveseven,,,,,,,,,,,,,,,,,,,,,,,,,,,,,,,,,,,,,,,,,,,,,,,,,,,,,,,,,,,,,,,,,,,,,,,,,,,,,,,,,,,,,,,,,,,,,,,,,,,,,,,,,,,,,,,,,,,,,,,,,,,,,,,,,,,,,,,,,
,,617643296ef9b0d0e80e69a2,2024-02-19_04h12.58.432,kallum_motion_pilot,2023.2.2,Win32,60.24096386,617643296ef9b0d0e80e69a2,65d2b6c8f2eece985d8e374c,65d2b8c5021102d092193342,0.1772,0.1772,0,12,12,137,1,fiveseven,,,,,,,,,,,,,,,,,,,,,,,,,,,,,,,,,,,,,,,,,,,,,,,,,,,,,,,,,,,,,,,,,,,,,,,,,,,,,,,,,,,,,,,,,,,,,,,,,,,,,,,,,,,,,,,,,,,,,,,,,,,,,,,,,,,,,,,,,
,,617643296ef9b0d0e80e69a2,2024-02-19_04h12.58.432,kallum_motion_pilot,2023.2.2,Win32,60.24096386,617643296ef9b0d0e80e69a2,65d2b6c8f2eece985d8e374c,65d2b8c5021102d092193342,0.1776,0.1777,0,13,13,130,1,sixfive,,,,,,,,,,,,,,,,,,,,,,,,,,,,,,,,,,,,,,,,,,,,,,,,,,,,,,,,,,,,,,,,,,,,,,,,,,,,,,,,,,,,,,,,,,,,,,,,,,,,,,,,,,,,,,,,,,,,,,,,,,,,,,,,,,,,,,,,,
,,617643296ef9b0d0e80e69a2,2024-02-19_04h12.58.432,kallum_motion_pilot,2023.2.2,Win32,60.24096386,617643296ef9b0d0e80e69a2,65d2b6c8f2eece985d8e374c,65d2b8c5021102d092193342,0.1779,0.178,0,14,14,21,1,threefour,,,,,,,,,,,,,,,,,,,,,,,,,,,,,,,,,,,,,,,,,,,,,,,,,,,,,,,,,,,,,,,,,,,,,,,,,,,,,,,,,,,,,,,,,,,,,,,,,,,,,,,,,,,,,,,,,,,,,,,,,,,,,,,,,,,,,,,,,
,,617643296ef9b0d0e80e69a2,2024-02-19_04h12.58.432,kallum_motion_pilot,2023.2.2,Win32,60.24096386,617643296ef9b0d0e80e69a2,65d2b6c8f2eece985d8e374c,65d2b8c5021102d092193342,0.1783,0.1783,0,15,15,111,1,eightseven,,,,,,,,,,,,,,,,,,,,,,,,,,,,,,,,,,,,,,,,,,,,,,,,,,,,,,,,,,,,,,,,,,,,,,,,,,,,,,,,,,,,,,,,,,,,,,,,,,,,,,,,,,,,,,,,,,,,,,,,,,,,,,,,,,,,,,,,,
,,617643296ef9b0d0e80e69a2,2024-02-19_04h12.58.432,kallum_motion_pilot,2023.2.2,Win32,60.24096386,617643296ef9b0d0e80e69a2,65d2b6c8f2eece985d8e374c,65d2b8c5021102d092193342,0.1786,0.1786,0,16,16,44,1,threeone,,,,,,,,,,,,,,,,,,,,,,,,,,,,,,,,,,,,,,,,,,,,,,,,,,,,,,,,,,,,,,,,,,,,,,,,,,,,,,,,,,,,,,,,,,,,,,,,,,,,,,,,,,,,,,,,,,,,,,,,,,,,,,,,,,,,,,,,,
,,617643296ef9b0d0e80e69a2,2024-02-19_04h12.58.432,kallum_motion_pilot,2023.2.2,Win32,60.24096386,617643296ef9b0d0e80e69a2,65d2b6c8f2eece985d8e374c,65d2b8c5021102d092193342,0.1789,0.179,0,17,17,110,1,eightsix,,,,,,,,,,,,,,,,,,,,,,,,,,,,,,,,,,,,,,,,,,,,,,,,,,,,,,,,,,,,,,,,,,,,,,,,,,,,,,,,,,,,,,,,,,,,,,,,,,,,,,,,,,,,,,,,,,,,,,,,,,,,,,,,,,,,,,,,,
,,617643296ef9b0d0e80e69a2,2024-02-19_04h12.58.432,kallum_motion_pilot,2023.2.2,Win32,60.24096386,617643296ef9b0d0e80e69a2,65d2b6c8f2eece985d8e374c,65d2b8c5021102d092193342,0.1792,0.1793,0,18,18,159,1,eightseven,,,,,,,,,,,,,,,,,,,,,,,,,,,,,,,,,,,,,,,,,,,,,,,,,,,,,,,,,,,,,,,,,,,,,,,,,,,,,,,,,,,,,,,,,,,,,,,,,,,,,,,,,,,,,,,,,,,,,,,,,,,,,,,,,,,,,,,,,
,,617643296ef9b0d0e80e69a2,2024-02-19_04h12.58.432,kallum_motion_pilot,2023.2.2,Win32,60.24096386,617643296ef9b0d0e80e69a2,65d2b6c8f2eece985d8e374c,65d2b8c5021102d092193342,0.1796,0.1797,0,19,19,147,1,sixeight,,,,,,,,,,,,,,,,,,,,,,,,,,,,,,,,,,,,,,,,,,,,,,,,,,,,,,,,,,,,,,,,,,,,,,,,,,,,,,,,,,,,,,,,,,,,,,,,,,,,,,,,,,,,,,,,,,,,,,,,,,,,,,,,,,,,,,,,,
,,617643296ef9b0d0e80e69a2,2024-02-19_04h12.58.432,kallum_motion_pilot,2023.2.2,Win32,60.24096386,617643296ef9b0d0e80e69a2,65d2b6c8f2eece985d8e374c,65d2b8c5021102d092193342,0.18,0.18,0,20,20,106,1,sixfive,,,,,,,,,,,,,,,,,,,,,,,,,,,,,,,,,,,,,,,,,,,,,,,,,,,,,,,,,,,,,,,,,,,,,,,,,,,,,,,,,,,,,,,,,,,,,,,,,,,,,,,,,,,,,,,,,,,,,,,,,,,,,,,,,,,,,,,,,
,,617643296ef9b0d0e80e69a2,2024-02-19_04h12.58.432,kallum_motion_pilot,2023.2.2,Win32,60.24096386,617643296ef9b0d0e80e69a2,65d2b6c8f2eece985d8e374c,65d2b8c5021102d092193342,0.1802,0.1803,0,21,21,65,1,onethree,,,,,,,,,,,,,,,,,,,,,,,,,,,,,,,,,,,,,,,,,,,,,,,,,,,,,,,,,,,,,,,,,,,,,,,,,,,,,,,,,,,,,,,,,,,,,,,,,,,,,,,,,,,,,,,,,,,,,,,,,,,,,,,,,,,,,,,,,
,,617643296ef9b0d0e80e69a2,2024-02-19_04h12.58.432,kallum_motion_pilot,2023.2.2,Win32,60.24096386,617643296ef9b0d0e80e69a2,65d2b6c8f2eece985d8e374c,65d2b8c5021102d092193342,0.1806,0.1806,0,22,22,0,1,onetwo,,,,,,,,,,,,,,,,,,,,,,,,,,,,,,,,,,,,,,,,,,,,,,,,,,,,,,,,,,,,,,,,,,,,,,,,,,,,,,,,,,,,,,,,,,,,,,,,,,,,,,,,,,,,,,,,,,,,,,,,,,,,,,,,,,,,,,,,,
,,617643296ef9b0d0e80e69a2,2024-02-19_04h12.58.432,kallum_motion_pilot,2023.2.2,Win32,60.24096386,617643296ef9b0d0e80e69a2,65d2b6c8f2eece985d8e374c,65d2b8c5021102d092193342,0.1809,0.181,0,23,23,64,1,onetwo,,,,,,,,,,,,,,,,,,,,,,,,,,,,,,,,,,,,,,,,,,,,,,,,,,,,,,,,,,,,,,,,,,,,,,,,,,,,,,,,,,,,,,,,,,,,,,,,,,,,,,,,,,,,,,,,,,,,,,,,,,,,,,,,,,,,,,,,,
,,617643296ef9b0d0e80e69a2,2024-02-19_04h12.58.432,kallum_motion_pilot,2023.2.2,Win32,60.24096386,617643296ef9b0d0e80e69a2,65d2b6c8f2eece985d8e374c,65d2b8c5021102d092193342,0.1814,0.1814,0,24,24,23,1,fourthree,,,,,,,,,,,,,,,,,,,,,,,,,,,,,,,,,,,,,,,,,,,,,,,,,,,,,,,,,,,,,,,,,,,,,,,,,,,,,,,,,,,,,,,,,,,,,,,,,,,,,,,,,,,,,,,,,,,,,,,,,,,,,,,,,,,,,,,,,
,,617643296ef9b0d0e80e69a2,2024-02-19_04h12.58.432,kallum_motion_pilot,2023.2.2,Win32,60.24096386,617643296ef9b0d0e80e69a2,65d2b6c8f2eece985d8e374c,65d2b8c5021102d092193342,0.1817,0.1818,0,25,25,124,1,sevenfive,,,,,,,,,,,,,,,,,,,,,,,,,,,,,,,,,,,,,,,,,,,,,,,,,,,,,,,,,,,,,,,,,,,,,,,,,,,,,,,,,,,,,,,,,,,,,,,,,,,,,,,,,,,,,,,,,,,,,,,,,,,,,,,,,,,,,,,,,
,,617643296ef9b0d0e80e69a2,2024-02-19_04h12.58.432,kallum_motion_pilot,2023.2.2,Win32,60.24096386,617643296ef9b0d0e80e69a2,65d2b6c8f2eece985d8e374c,65d2b8c5021102d092193342,0.1821,0.1821,0,26,26,115,1,sixeight,,,,,,,,,,,,,,,,,,,,,,,,,,,,,,,,,,,,,,,,,,,,,,,,,,,,,,,,,,,,,,,,,,,,,,,,,,,,,,,,,,,,,,,,,,,,,,,,,,,,,,,,,,,,,,,,,,,,,,,,,,,,,,,,,,,,,,,,,
,,617643296ef9b0d0e80e69a2,2024-02-19_04h12.58.432,kallum_motion_pilot,2023.2.2,Win32,60.24096386,617643296ef9b0d0e80e69a2,65d2b6c8f2eece985d8e374c,65d2b8c5021102d092193342,0.183,0.1831,0,27,27,48,1,onetwo,,,,,,,,,,,,,,,,,,,,,,,,,,,,,,,,,,,,,,,,,,,,,,,,,,,,,,,,,,,,,,,,,,,,,,,,,,,,,,,,,,,,,,,,,,,,,,,,,,,,,,,,,,,,,,,,,,,,,,,,,,,,,,,,,,,,,,,,,
,,617643296ef9b0d0e80e69a2,2024-02-19_04h12.58.432,kallum_motion_pilot,2023.2.2,Win32,60.24096386,617643296ef9b0d0e80e69a2,65d2b6c8f2eece985d8e374c,65d2b8c5021102d092193342,0.1835,0.1837,0,28,28,121,1,fiveseven,,,,,,,,,,,,,,,,,,,,,,,,,,,,,,,,,,,,,,,,,,,,,,,,,,,,,,,,,,,,,,,,,,,,,,,,,,,,,,,,,,,,,,,,,,,,,,,,,,,,,,,,,,,,,,,,,,,,,,,,,,,,,,,,,,,,,,,,,
,,617643296ef9b0d0e80e69a2,2024-02-19_04h12.58.432,kallum_motion_pilot,2023.2.2,Win32,60.24096386,617643296ef9b0d0e80e69a2,65d2b6c8f2eece985d8e374c,65d2b8c5021102d092193342,0.184,0.1842,0,29,29,5,1,threefour,,,,,,,,,,,,,,,,,,,,,,,,,,,,,,,,,,,,,,,,,,,,,,,,,,,,,,,,,,,,,,,,,,,,,,,,,,,,,,,,,,,,,,,,,,,,,,,,,,,,,,,,,,,,,,,,,,,,,,,,,,,,,,,,,,,,,,,,,
,,617643296ef9b0d0e80e69a2,2024-02-19_04h12.58.432,kallum_motion_pilot,2023.2.2,Win32,60.24096386,617643296ef9b0d0e80e69a2,65d2b6c8f2eece985d8e374c,65d2b8c5021102d092193342,0.1849,0.185,0,30,30,119,1,eightseven,,,,,,,,,,,,,,,,,,,,,,,,,,,,,,,,,,,,,,,,,,,,,,,,,,,,,,,,,,,,,,,,,,,,,,,,,,,,,,,,,,,,,,,,,,,,,,,,,,,,,,,,,,,,,,,,,,,,,,,,,,,,,,,,,,,,,,,,,
,,617643296ef9b0d0e80e69a2,2024-02-19_04h12.58.432,kallum_motion_pilot,2023.2.2,Win32,60.24096386,617643296ef9b0d0e80e69a2,65d2b6c8f2eece985d8e374c,65d2b8c5021102d092193342,0.1855,0.1856,0,31,31,54,1,fourtwo,,,,,,,,,,,,,,,,,,,,,,,,,,,,,,,,,,,,,,,,,,,,,,,,,,,,,,,,,,,,,,,,,,,,,,,,,,,,,,,,,,,,,,,,,,,,,,,,,,,,,,,,,,,,,,,,,,,,,,,,,,,,,,,,,,,,,,,,,
,,617643296ef9b0d0e80e69a2,2024-02-19_04h12.58.432,kallum_motion_pilot,2023.2.2,Win32,60.24096386,617643296ef9b0d0e80e69a2,65d2b6c8f2eece985d8e374c,65d2b8c5021102d092193342,0.1858,0.1859,0,32,32,86,1,eightsix,,,,,,,,,,,,,,,,,,,,,,,,,,,,,,,,,,,,,,,,,,,,,,,,,,,,,,,,,,,,,,,,,,,,,,,,,,,,,,,,,,,,,,,,,,,,,,,,,,,,,,,,,,,,,,,,,,,,,,,,,,,,,,,,,,,,,,,,,
,,617643296ef9b0d0e80e69a2,2024-02-19_04h12.58.432,kallum_motion_pilot,2023.2.2,Win32,60.24096386,617643296ef9b0d0e80e69a2,65d2b6c8f2eece985d8e374c,65d2b8c5021102d092193342,0.1862,0.1866,0,33,33,68,1,threeone,,,,,,,,,,,,,,,,,,,,,,,,,,,,,,,,,,,,,,,,,,,,,,,,,,,,,,,,,,,,,,,,,,,,,,,,,,,,,,,,,,,,,,,,,,,,,,,,,,,,,,,,,,,,,,,,,,,,,,,,,,,,,,,,,,,,,,,,,
,,617643296ef9b0d0e80e69a2,2024-02-19_04h12.58.432,kallum_motion_pilot,2023.2.2,Win32,60.24096386,617643296ef9b0d0e80e69a2,65d2b6c8f2eece985d8e374c,65d2b8c5021102d092193342,0.1869,0.187,0,34,34,160,1,fivesix,,,,,,,,,,,,,,,,,,,,,,,,,,,,,,,,,,,,,,,,,,,,,,,,,,,,,,,,,,,,,,,,,,,,,,,,,,,,,,,,,,,,,,,,,,,,,,,,,,,,,,,,,,,,,,,,,,,,,,,,,,,,,,,,,,,,,,,,,
,,617643296ef9b0d0e80e69a2,2024-02-19_04h12.58.432,kallum_motion_pilot,2023.2.2,Win32,60.24096386,617643296ef9b0d0e80e69a2,65d2b6c8f2eece985d8e374c,65d2b8c5021102d092193342,0.1874,0.1874,0,35,35,113,1,fiveseven,,,,,,,,,,,,,,,,,,,,,,,,,,,,,,,,,,,,,,,,,,,,,,,,,,,,,,,,,,,,,,,,,,,,,,,,,,,,,,,,,,,,,,,,,,,,,,,,,,,,,,,,,,,,,,,,,,,,,,,,,,,,,,,,,,,,,,,,,
,,617643296ef9b0d0e80e69a2,2024-02-19_04h12.58.432,kallum_motion_pilot,2023.2.2,Win32,60.24096386,617643296ef9b0d0e80e69a2,65d2b6c8f2eece985d8e374c,65d2b8c5021102d092193342,0.1877,0.1877,0,36,36,87,1,eightseven,,,,,,,,,,,,,,,,,,,,,,,,,,,,,,,,,,,,,,,,,,,,,,,,,,,,,,,,,,,,,,,,,,,,,,,,,,,,,,,,,,,,,,,,,,,,,,,,,,,,,,,,,,,,,,,,,,,,,,,,,,,,,,,,,,,,,,,,,
,,617643296ef9b0d0e80e69a2,2024-02-19_04h12.58.432,kallum_motion_pilot,2023.2.2,Win32,60.24096386,617643296ef9b0d0e80e69a2,65d2b6c8f2eece985d8e374c,65d2b8c5021102d092193342,0.1881,0.1882,0,37,37,78,1,fourtwo,,,,,,,,,,,,,,,,,,,,,,,,,,,,,,,,,,,,,,,,,,,,,,,,,,,,,,,,,,,,,,,,,,,,,,,,,,,,,,,,,,,,,,,,,,,,,,,,,,,,,,,,,,,,,,,,,,,,,,,,,,,,,,,,,,,,,,,,,
,,617643296ef9b0d0e80e69a2,2024-02-19_04h12.58.432,kallum_motion_pilot,2023.2.2,Win32,60.24096386,617643296ef9b0d0e80e69a2,65d2b6c8f2eece985d8e374c,65d2b8c5021102d092193342,0.1884,0.1886,0,38,38,91,1,sixeight,,,,,,,,,,,,,,,,,,,,,,,,,,,,,,,,,,,,,,,,,,,,,,,,,,,,,,,,,,,,,,,,,,,,,,,,,,,,,,,,,,,,,,,,,,,,,,,,,,,,,,,,,,,,,,,,,,,,,,,,,,,,,,,,,,,,,,,,,
,,617643296ef9b0d0e80e69a2,2024-02-19_04h12.58.432,kallum_motion_pilot,2023.2.2,Win32,60.24096386,617643296ef9b0d0e80e69a2,65d2b6c8f2eece985d8e374c,65d2b8c5021102d092193342,0.1888,0.1888,0,39,39,84,1,sevenfive,,,,,,,,,,,,,,,,,,,,,,,,,,,,,,,,,,,,,,,,,,,,,,,,,,,,,,,,,,,,,,,,,,,,,,,,,,,,,,,,,,,,,,,,,,,,,,,,,,,,,,,,,,,,,,,,,,,,,,,,,,,,,,,,,,,,,,,,,
,,617643296ef9b0d0e80e69a2,2024-02-19_04h12.58.432,kallum_motion_pilot,2023.2.2,Win32,60.24096386,617643296ef9b0d0e80e69a2,65d2b6c8f2eece985d8e374c,65d2b8c5021102d092193342,0.1891,0.1891,0,40,40,6,1,fourtwo,,,,,,,,,,,,,,,,,,,,,,,,,,,,,,,,,,,,,,,,,,,,,,,,,,,,,,,,,,,,,,,,,,,,,,,,,,,,,,,,,,,,,,,,,,,,,,,,,,,,,,,,,,,,,,,,,,,,,,,,,,,,,,,,,,,,,,,,,
,,617643296ef9b0d0e80e69a2,2024-02-19_04h12.58.432,kallum_motion_pilot,2023.2.2,Win32,60.24096386,617643296ef9b0d0e80e69a2,65d2b6c8f2eece985d8e374c,65d2b8c5021102d092193342,0.1894,0.1895,0,41,41,123,1,sixeight,,,,,,,,,,,,,,,,,,,,,,,,,,,,,,,,,,,,,,,,,,,,,,,,,,,,,,,,,,,,,,,,,,,,,,,,,,,,,,,,,,,,,,,,,,,,,,,,,,,,,,,,,,,,,,,,,,,,,,,,,,,,,,,,,,,,,,,,,
,,617643296ef9b0d0e80e69a2,2024-02-19_04h12.58.432,kallum_motion_pilot,2023.2.2,Win32,60.24096386,617643296ef9b0d0e80e69a2,65d2b6c8f2eece985d8e374c,65d2b8c5021102d092193342,0.1898,0.1899,0,42,42,7,1,fourthree,,,,,,,,,,,,,,,,,,,,,,,,,,,,,,,,,,,,,,,,,,,,,,,,,,,,,,,,,,,,,,,,,,,,,,,,,,,,,,,,,,,,,,,,,,,,,,,,,,,,,,,,,,,,,,,,,,,,,,,,,,,,,,,,,,,,,,,,,
,,617643296ef9b0d0e80e69a2,2024-02-19_04h12.58.432,kallum_motion_pilot,2023.2.2,Win32,60.24096386,617643296ef9b0d0e80e69a2,65d2b6c8f2eece985d8e374c,65d2b8c5021102d092193342,0.1902,0.1902,0,43,43,104,1,fivesix,,,,,,,,,,,,,,,,,,,,,,,,,,,,,,,,,,,,,,,,,,,,,,,,,,,,,,,,,,,,,,,,,,,,,,,,,,,,,,,,,,,,,,,,,,,,,,,,,,,,,,,,,,,,,,,,,,,,,,,,,,,,,,,,,,,,,,,,,
,,617643296ef9b0d0e80e69a2,2024-02-19_04h12.58.432,kallum_motion_pilot,2023.2.2,Win32,60.24096386,617643296ef9b0d0e80e69a2,65d2b6c8f2eece985d8e374c,65d2b8c5021102d092193342,0.1905,0.1906,0,44,44,98,1,sixfive,,,,,,,,,,,,,,,,,,,,,,,,,,,,,,,,,,,,,,,,,,,,,,,,,,,,,,,,,,,,,,,,,,,,,,,,,,,,,,,,,,,,,,,,,,,,,,,,,,,,,,,,,,,,,,,,,,,,,,,,,,,,,,,,,,,,,,,,,
,,617643296ef9b0d0e80e69a2,2024-02-19_04h12.58.432,kallum_motion_pilot,2023.2.2,Win32,60.24096386,617643296ef9b0d0e80e69a2,65d2b6c8f2eece985d8e374c,65d2b8c5021102d092193342,0.1908,0.1909,0,45,45,90,1,sixfive,,,,,,,,,,,,,,,,,,,,,,,,,,,,,,,,,,,,,,,,,,,,,,,,,,,,,,,,,,,,,,,,,,,,,,,,,,,,,,,,,,,,,,,,,,,,,,,,,,,,,,,,,,,,,,,,,,,,,,,,,,,,,,,,,,,,,,,,,
,,617643296ef9b0d0e80e69a2,2024-02-19_04h12.58.432,kallum_motion_pilot,2023.2.2,Win32,60.24096386,617643296ef9b0d0e80e69a2,65d2b6c8f2eece985d8e374c,65d2b8c5021102d092193342,0.1911,0.1912,0,46,46,37,1,threefour,,,,,,,,,,,,,,,,,,,,,,,,,,,,,,,,,,,,,,,,,,,,,,,,,,,,,,,,,,,,,,,,,,,,,,,,,,,,,,,,,,,,,,,,,,,,,,,,,,,,,,,,,,,,,,,,,,,,,,,,,,,,,,,,,,,,,,,,,
,,617643296ef9b0d0e80e69a2,2024-02-19_04h12.58.432,kallum_motion_pilot,2023.2.2,Win32,60.24096386,617643296ef9b0d0e80e69a2,65d2b6c8f2eece985d8e374c,65d2b8c5021102d092193342,0.1915,0.1915,0,47,47,3,1,twofour,,,,,,,,,,,,,,,,,,,,,,,,,,,,,,,,,,,,,,,,,,,,,,,,,,,,,,,,,,,,,,,,,,,,,,,,,,,,,,,,,,,,,,,,,,,,,,,,,,,,,,,,,,,,,,,,,,,,,,,,,,,,,,,,,,,,,,,,,
,,617643296ef9b0d0e80e69a2,2024-02-19_04h12.58.432,kallum_motion_pilot,2023.2.2,Win32,60.24096386,617643296ef9b0d0e80e69a2,65d2b6c8f2eece985d8e374c,65d2b8c5021102d092193342,0.1917,0.1919,0,48,48,146,1,sixfive,,,,,,,,,,,,,,,,,,,,,,,,,,,,,,,,,,,,,,,,,,,,,,,,,,,,,,,,,,,,,,,,,,,,,,,,,,,,,,,,,,,,,,,,,,,,,,,,,,,,,,,,,,,,,,,,,,,,,,,,,,,,,,,,,,,,,,,,,
,,617643296ef9b0d0e80e69a2,2024-02-19_04h12.58.432,kallum_motion_pilot,2023.2.2,Win32,60.24096386,617643296ef9b0d0e80e69a2,65d2b6c8f2eece985d8e374c,65d2b8c5021102d092193342,0.1922,0.1923,0,49,49,13,1,threefour,,,,,,,,,,,,,,,,,,,,,,,,,,,,,,,,,,,,,,,,,,,,,,,,,,,,,,,,,,,,,,,,,,,,,,,,,,,,,,,,,,,,,,,,,,,,,,,,,,,,,,,,,,,,,,,,,,,,,,,,,,,,,,,,,,,,,,,,,
,,617643296ef9b0d0e80e69a2,2024-02-19_04h12.58.432,kallum_motion_pilot,2023.2.2,Win32,60.24096386,617643296ef9b0d0e80e69a2,65d2b6c8f2eece985d8e374c,65d2b8c5021102d092193342,0.1925,0.1926,0,50,50,94,1,eightsix,,,,,,,,,,,,,,,,,,,,,,,,,,,,,,,,,,,,,,,,,,,,,,,,,,,,,,,,,,,,,,,,,,,,,,,,,,,,,,,,,,,,,,,,,,,,,,,,,,,,,,,,,,,,,,,,,,,,,,,,,,,,,,,,,,,,,,,,,
,,617643296ef9b0d0e80e69a2,2024-02-19_04h12.58.432,kallum_motion_pilot,2023.2.2,Win32,60.24096386,617643296ef9b0d0e80e69a2,65d2b6c8f2eece985d8e374c,65d2b8c5021102d092193342,0.1928,0.193,0,51,51,29,1,threefour,,,,,,,,,,,,,,,,,,,,,,,,,,,,,,,,,,,,,,,,,,,,,,,,,,,,,,,,,,,,,,,,,,,,,,,,,,,,,,,,,,,,,,,,,,,,,,,,,,,,,,,,,,,,,,,,,,,,,,,,,,,,,,,,,,,,,,,,,
,,617643296ef9b0d0e80e69a2,2024-02-19_04h12.58.432,kallum_motion_pilot,2023.2.2,Win32,60.24096386,617643296ef9b0d0e80e69a2,65d2b6c8f2eece985d8e374c,65d2b8c5021102d092193342,0.1932,0.1933,0,52,52,128,1,fivesix,,,,,,,,,,,,,,,,,,,,,,,,,,,,,,,,,,,,,,,,,,,,,,,,,,,,,,,,,,,,,,,,,,,,,,,,,,,,,,,,,,,,,,,,,,,,,,,,,,,,,,,,,,,,,,,,,,,,,,,,,,,,,,,,,,,,,,,,,
,,617643296ef9b0d0e80e69a2,2024-02-19_04h12.58.432,kallum_motion_pilot,2023.2.2,Win32,60.24096386,617643296ef9b0d0e80e69a2,65d2b6c8f2eece985d8e374c,65d2b8c5021102d092193342,0.1936,0.1937,0,53,53,120,1,fivesix,,,,,,,,,,,,,,,,,,,,,,,,,,,,,,,,,,,,,,,,,,,,,,,,,,,,,,,,,,,,,,,,,,,,,,,,,,,,,,,,,,,,,,,,,,,,,,,,,,,,,,,,,,,,,,,,,,,,,,,,,,,,,,,,,,,,,,,,,
,,617643296ef9b0d0e80e69a2,2024-02-19_04h12.58.432,kallum_motion_pilot,2023.2.2,Win32,60.24096386,617643296ef9b0d0e80e69a2,65d2b6c8f2eece985d8e374c,65d2b8c5021102d092193342,0.1939,0.194,0,54,54,25,1,onethree,,,,,,,,,,,,,,,,,,,,,,,,,,,,,,,,,,,,,,,,,,,,,,,,,,,,,,,,,,,,,,,,,,,,,,,,,,,,,,,,,,,,,,,,,,,,,,,,,,,,,,,,,,,,,,,,,,,,,,,,,,,,,,,,,,,,,,,,,
,,617643296ef9b0d0e80e69a2,2024-02-19_04h12.58.432,kallum_motion_pilot,2023.2.2,Win32,60.24096386,617643296ef9b0d0e80e69a2,65d2b6c8f2eece985d8e374c,65d2b8c5021102d092193342,0.1942,0.1943,0,55,55,108,1,sevenfive,,,,,,,,,,,,,,,,,,,,,,,,,,,,,,,,,,,,,,,,,,,,,,,,,,,,,,,,,,,,,,,,,,,,,,,,,,,,,,,,,,,,,,,,,,,,,,,,,,,,,,,,,,,,,,,,,,,,,,,,,,,,,,,,,,,,,,,,,
,,617643296ef9b0d0e80e69a2,2024-02-19_04h12.58.432,kallum_motion_pilot,2023.2.2,Win32,60.24096386,617643296ef9b0d0e80e69a2,65d2b6c8f2eece985d8e374c,65d2b8c5021102d092193342,0.1946,0.1948,0,56,56,82,1,sixfive,,,,,,,,,,,,,,,,,,,,,,,,,,,,,,,,,,,,,,,,,,,,,,,,,,,,,,,,,,,,,,,,,,,,,,,,,,,,,,,,,,,,,,,,,,,,,,,,,,,,,,,,,,,,,,,,,,,,,,,,,,,,,,,,,,,,,,,,,
,,617643296ef9b0d0e80e69a2,2024-02-19_04h12.58.432,kallum_motion_pilot,2023.2.2,Win32,60.24096386,617643296ef9b0d0e80e69a2,65d2b6c8f2eece985d8e374c,65d2b8c5021102d092193342,0.1949,0.1951,0,57,57,101,1,seveneight,,,,,,,,,,,,,,,,,,,,,,,,,,,,,,,,,,,,,,,,,,,,,,,,,,,,,,,,,,,,,,,,,,,,,,,,,,,,,,,,,,,,,,,,,,,,,,,,,,,,,,,,,,,,,,,,,,,,,,,,,,,,,,,,,,,,,,,,,
,,617643296ef9b0d0e80e69a2,2024-02-19_04h12.58.432,kallum_motion_pilot,2023.2.2,Win32,60.24096386,617643296ef9b0d0e80e69a2,65d2b6c8f2eece985d8e374c,65d2b8c5021102d092193342,0.1953,0.1954,0,58,58,22,1,fourtwo,,,,,,,,,,,,,,,,,,,,,,,,,,,,,,,,,,,,,,,,,,,,,,,,,,,,,,,,,,,,,,,,,,,,,,,,,,,,,,,,,,,,,,,,,,,,,,,,,,,,,,,,,,,,,,,,,,,,,,,,,,,,,,,,,,,,,,,,,
,,617643296ef9b0d0e80e69a2,2024-02-19_04h12.58.432,kallum_motion_pilot,2023.2.2,Win32,60.24096386,617643296ef9b0d0e80e69a2,65d2b6c8f2eece985d8e374c,65d2b8c5021102d092193342,0.1956,0.1957,0,59,59,142,1,eightsix,,,,,,,,,,,,,,,,,,,,,,,,,,,,,,,,,,,,,,,,,,,,,,,,,,,,,,,,,,,,,,,,,,,,,,,,,,,,,,,,,,,,,,,,,,,,,,,,,,,,,,,,,,,,,,,,,,,,,,,,,,,,,,,,,,,,,,,,,
,,617643296ef9b0d0e80e69a2,2024-02-19_04h12.58.432,kallum_motion_pilot,2023.2.2,Win32,60.24096386,617643296ef9b0d0e80e69a2,65d2b6c8f2eece985d8e374c,65d2b8c5021102d092193342,0.196,0.196,0,60,60,161,1,fiveseven,,,,,,,,,,,,,,,,,,,,,,,,,,,,,,,,,,,,,,,,,,,,,,,,,,,,,,,,,,,,,,,,,,,,,,,,,,,,,,,,,,,,,,,,,,,,,,,,,,,,,,,,,,,,,,,,,,,,,,,,,,,,,,,,,,,,,,,,,
,,617643296ef9b0d0e80e69a2,2024-02-19_04h12.58.432,kallum_motion_pilot,2023.2.2,Win32,60.24096386,617643296ef9b0d0e80e69a2,65d2b6c8f2eece985d8e374c,65d2b8c5021102d092193342,0.1964,0.1965,0,61,61,97,1,fiveseven,,,,,,,,,,,,,,,,,,,,,,,,,,,,,,,,,,,,,,,,,,,,,,,,,,,,,,,,,,,,,,,,,,,,,,,,,,,,,,,,,,,,,,,,,,,,,,,,,,,,,,,,,,,,,,,,,,,,,,,,,,,,,,,,,,,,,,,,,
,,617643296ef9b0d0e80e69a2,2024-02-19_04h12.58.432,kallum_motion_pilot,2023.2.2,Win32,60.24096386,617643296ef9b0d0e80e69a2,65d2b6c8f2eece985d8e374c,65d2b8c5021102d092193342,0.1967,0.1968,0,62,62,12,1,threeone,,,,,,,,,,,,,,,,,,,,,,,,,,,,,,,,,,,,,,,,,,,,,,,,,,,,,,,,,,,,,,,,,,,,,,,,,,,,,,,,,,,,,,,,,,,,,,,,,,,,,,,,,,,,,,,,,,,,,,,,,,,,,,,,,,,,,,,,,
,,617643296ef9b0d0e80e69a2,2024-02-19_04h12.58.432,kallum_motion_pilot,2023.2.2,Win32,60.24096386,617643296ef9b0d0e80e69a2,65d2b6c8f2eece985d8e374c,65d2b8c5021102d092193342,0.1971,0.1975,0,63,63,30,1,fourtwo,,,,,,,,,,,,,,,,,,,,,,,,,,,,,,,,,,,,,,,,,,,,,,,,,,,,,,,,,,,,,,,,,,,,,,,,,,,,,,,,,,,,,,,,,,,,,,,,,,,,,,,,,,,,,,,,,,,,,,,,,,,,,,,,,,,,,,,,,
,,617643296ef9b0d0e80e69a2,2024-02-19_04h12.58.432,kallum_motion_pilot,2023.2.2,Win32,60.24096386,617643296ef9b0d0e80e69a2,65d2b6c8f2eece985d8e374c,65d2b8c5021102d092193342,0.1978,0.1978,0,64,64,34,1,twoone,,,,,,,,,,,,,,,,,,,,,,,,,,,,,,,,,,,,,,,,,,,,,,,,,,,,,,,,,,,,,,,,,,,,,,,,,,,,,,,,,,,,,,,,,,,,,,,,,,,,,,,,,,,,,,,,,,,,,,,,,,,,,,,,,,,,,,,,,
,,617643296ef9b0d0e80e69a2,2024-02-19_04h12.58.432,kallum_motion_pilot,2023.2.2,Win32,60.24096386,617643296ef9b0d0e80e69a2,65d2b6c8f2eece985d8e374c,65d2b8c5021102d092193342,0.1981,0.1982,0,65,65,69,1,threefour,,,,,,,,,,,,,,,,,,,,,,,,,,,,,,,,,,,,,,,,,,,,,,,,,,,,,,,,,,,,,,,,,,,,,,,,,,,,,,,,,,,,,,,,,,,,,,,,,,,,,,,,,,,,,,,,,,,,,,,,,,,,,,,,,,,,,,,,,
,,617643296ef9b0d0e80e69a2,2024-02-19_04h12.58.432,kallum_motion_pilot,2023.2.2,Win32,60.24096386,617643296ef9b0d0e80e69a2,65d2b6c8f2eece985d8e374c,65d2b8c5021102d092193342,0.1984,0.1985,0,66,66,39,1,fourthree,,,,,,,,,,,,,,,,,,,,,,,,,,,,,,,,,,,,,,,,,,,,,,,,,,,,,,,,,,,,,,,,,,,,,,,,,,,,,,,,,,,,,,,,,,,,,,,,,,,,,,,,,,,,,,,,,,,,,,,,,,,,,,,,,,,,,,,,,
,,617643296ef9b0d0e80e69a2,2024-02-19_04h12.58.432,kallum_motion_pilot,2023.2.2,Win32,60.24096386,617643296ef9b0d0e80e69a2,65d2b6c8f2eece985d8e374c,65d2b8c5021102d092193342,0.1991,0.1994,0,67,67,40,1,onetwo,,,,,,,,,,,,,,,,,,,,,,,,,,,,,,,,,,,,,,,,,,,,,,,,,,,,,,,,,,,,,,,,,,,,,,,,,,,,,,,,,,,,,,,,,,,,,,,,,,,,,,,,,,,,,,,,,,,,,,,,,,,,,,,,,,,,,,,,,
,,617643296ef9b0d0e80e69a2,2024-02-19_04h12.58.432,kallum_motion_pilot,2023.2.2,Win32,60.24096386,617643296ef9b0d0e80e69a2,65d2b6c8f2eece985d8e374c,65d2b8c5021102d092193342,0.1997,0.2,0,68,68,140,1,sevenfive,,,,,,,,,,,,,,,,,,,,,,,,,,,,,,,,,,,,,,,,,,,,,,,,,,,,,,,,,,,,,,,,,,,,,,,,,,,,,,,,,,,,,,,,,,,,,,,,,,,,,,,,,,,,,,,,,,,,,,,,,,,,,,,,,,,,,,,,,
,,617643296ef9b0d0e80e69a2,2024-02-19_04h12.58.432,kallum_motion_pilot,2023.2.2,Win32,60.24096386,617643296ef9b0d0e80e69a2,65d2b6c8f2eece985d8e374c,65d2b8c5021102d092193342,0.2002,0.2004,0,69,69,158,1,eightsix,,,,,,,,,,,,,,,,,,,,,,,,,,,,,,,,,,,,,,,,,,,,,,,,,,,,,,,,,,,,,,,,,,,,,,,,,,,,,,,,,,,,,,,,,,,,,,,,,,,,,,,,,,,,,,,,,,,,,,,,,,,,,,,,,,,,,,,,,
,,617643296ef9b0d0e80e69a2,2024-02-19_04h12.58.432,kallum_motion_pilot,2023.2.2,Win32,60.24096386,617643296ef9b0d0e80e69a2,65d2b6c8f2eece985d8e374c,65d2b8c5021102d092193342,0.2007,0.2008,0,70,70,99,1,sixeight,,,,,,,,,,,,,,,,,,,,,,,,,,,,,,,,,,,,,,,,,,,,,,,,,,,,,,,,,,,,,,,,,,,,,,,,,,,,,,,,,,,,,,,,,,,,,,,,,,,,,,,,,,,,,,,,,,,,,,,,,,,,,,,,,,,,,,,,,
,,617643296ef9b0d0e80e69a2,2024-02-19_04h12.58.432,kallum_motion_pilot,2023.2.2,Win32,60.24096386,617643296ef9b0d0e80e69a2,65d2b6c8f2eece985d8e374c,65d2b8c5021102d092193342,0.2011,0.2012,0,71,71,28,1,threeone,,,,,,,,,,,,,,,,,,,,,,,,,,,,,,,,,,,,,,,,,,,,,,,,,,,,,,,,,,,,,,,,,,,,,,,,,,,,,,,,,,,,,,,,,,,,,,,,,,,,,,,,,,,,,,,,,,,,,,,,,,,,,,,,,,,,,,,,,
,,617643296ef9b0d0e80e69a2,2024-02-19_04h12.58.432,kallum_motion_pilot,2023.2.2,Win32,60.24096386,617643296ef9b0d0e80e69a2,65d2b6c8f2eece985d8e374c,65d2b8c5021102d092193342,0.2017,0.2018,0,72,72,81,1,fiveseven,,,,,,,,,,,,,,,,,,,,,,,,,,,,,,,,,,,,,,,,,,,,,,,,,,,,,,,,,,,,,,,,,,,,,,,,,,,,,,,,,,,,,,,,,,,,,,,,,,,,,,,,,,,,,,,,,,,,,,,,,,,,,,,,,,,,,,,,,
,,617643296ef9b0d0e80e69a2,2024-02-19_04h12.58.432,kallum_motion_pilot,2023.2.2,Win32,60.24096386,617643296ef9b0d0e80e69a2,65d2b6c8f2eece985d8e374c,65d2b8c5021102d092193342,0.2021,0.2022,0,73,73,9,1,onethree,,,,,,,,,,,,,,,,,,,,,,,,,,,,,,,,,,,,,,,,,,,,,,,,,,,,,,,,,,,,,,,,,,,,,,,,,,,,,,,,,,,,,,,,,,,,,,,,,,,,,,,,,,,,,,,,,,,,,,,,,,,,,,,,,,,,,,,,,
,,617643296ef9b0d0e80e69a2,2024-02-19_04h12.58.432,kallum_motion_pilot,2023.2.2,Win32,60.24096386,617643296ef9b0d0e80e69a2,65d2b6c8f2eece985d8e374c,65d2b8c5021102d092193342,0.2025,0.2026,0,74,74,151,1,eightseven,,,,,,,,,,,,,,,,,,,,,,,,,,,,,,,,,,,,,,,,,,,,,,,,,,,,,,,,,,,,,,,,,,,,,,,,,,,,,,,,,,,,,,,,,,,,,,,,,,,,,,,,,,,,,,,,,,,,,,,,,,,,,,,,,,,,,,,,,
,,617643296ef9b0d0e80e69a2,2024-02-19_04h12.58.432,kallum_motion_pilot,2023.2.2,Win32,60.24096386,617643296ef9b0d0e80e69a2,65d2b6c8f2eece985d8e374c,65d2b8c5021102d092193342,0.203,0.203,0,75,75,71,1,fourthree,,,,,,,,,,,,,,,,,,,,,,,,,,,,,,,,,,,,,,,,,,,,,,,,,,,,,,,,,,,,,,,,,,,,,,,,,,,,,,,,,,,,,,,,,,,,,,,,,,,,,,,,,,,,,,,,,,,,,,,,,,,,,,,,,,,,,,,,,
,,617643296ef9b0d0e80e69a2,2024-02-19_04h12.58.432,kallum_motion_pilot,2023.2.2,Win32,60.24096386,617643296ef9b0d0e80e69a2,65d2b6c8f2eece985d8e374c,65d2b8c5021102d092193342,0.2033,0.2034,0,76,76,38,1,fourtwo,,,,,,,,,,,,,,,,,,,,,,,,,,,,,,,,,,,,,,,,,,,,,,,,,,,,,,,,,,,,,,,,,,,,,,,,,,,,,,,,,,,,,,,,,,,,,,,,,,,,,,,,,,,,,,,,,,,,,,,,,,,,,,,,,,,,,,,,,
,,617643296ef9b0d0e80e69a2,2024-02-19_04h12.58.432,kallum_motion_pilot,2023.2.2,Win32,60.24096386,617643296ef9b0d0e80e69a2,65d2b6c8f2eece985d8e374c,65d2b8c5021102d092193342,0.2037,0.2037,0,77,77,135,1,eightseven,,,,,,,,,,,,,,,,,,,,,,,,,,,,,,,,,,,,,,,,,,,,,,,,,,,,,,,,,,,,,,,,,,,,,,,,,,,,,,,,,,,,,,,,,,,,,,,,,,,,,,,,,,,,,,,,,,,,,,,,,,,,,,,,,,,,,,,,,
,,617643296ef9b0d0e80e69a2,2024-02-19_04h12.58.432,kallum_motion_pilot,2023.2.2,Win32,60.24096386,617643296ef9b0d0e80e69a2,65d2b6c8f2eece985d8e374c,65d2b8c5021102d092193342,0.2055,0.2056,0,78,78,109,1,seveneight,,,,,,,,,,,,,,,,,,,,,,,,,,,,,,,,,,,,,,,,,,,,,,,,,,,,,,,,,,,,,,,,,,,,,,,,,,,,,,,,,,,,,,,,,,,,,,,,,,,,,,,,,,,,,,,,,,,,,,,,,,,,,,,,,,,,,,,,,
,,617643296ef9b0d0e80e69a2,2024-02-19_04h12.58.432,kallum_motion_pilot,2023.2.2,Win32,60.24096386,617643296ef9b0d0e80e69a2,65d2b6c8f2eece985d8e374c,65d2b8c5021102d092193342,0.2059,0.206,0,79,79,66,1,twoone,,,,,,,,,,,,,,,,,,,,,,,,,,,,,,,,,,,,,,,,,,,,,,,,,,,,,,,,,,,,,,,,,,,,,,,,,,,,,,,,,,,,,,,,,,,,,,,,,,,,,,,,,,,,,,,,,,,,,,,,,,,,,,,,,,,,,,,,,
,,617643296ef9b0d0e80e69a2,2024-02-19_04h12.58.432,kallum_motion_pilot,2023.2.2,Win32,60.24096386,617643296ef9b0d0e80e69a2,65d2b6c8f2eece985d8e374c,65d2b8c5021102d092193342,0.2062,0.2062,0,80,80,148,1,sevenfive,,,,,,,,,,,,,,,,,,,,,,,,,,,,,,,,,,,,,,,,,,,,,,,,,,,,,,,,,,,,,,,,,,,,,,,,,,,,,,,,,,,,,,,,,,,,,,,,,,,,,,,,,,,,,,,,,,,,,,,,,,,,,,,,,,,,,,,,,
,,617643296ef9b0d0e80e69a2,2024-02-19_04h12.58.432,kallum_motion_pilot,2023.2.2,Win32,60.24096386,617643296ef9b0d0e80e69a2,65d2b6c8f2eece985d8e374c,65d2b8c5021102d092193342,0.2066,0.2066,0,81,81,152,1,fivesix,,,,,,,,,,,,,,,,,,,,,,,,,,,,,,,,,,,,,,,,,,,,,,,,,,,,,,,,,,,,,,,,,,,,,,,,,,,,,,,,,,,,,,,,,,,,,,,,,,,,,,,,,,,,,,,,,,,,,,,,,,,,,,,,,,,,,,,,,
,,617643296ef9b0d0e80e69a2,2024-02-19_04h12.58.432,kallum_motion_pilot,2023.2.2,Win32,60.24096386,617643296ef9b0d0e80e69a2,65d2b6c8f2eece985d8e374c,65d2b8c5021102d092193342,0.2069,0.207,0,82,82,14,1,fourtwo,,,,,,,,,,,,,,,,,,,,,,,,,,,,,,,,,,,,,,,,,,,,,,,,,,,,,,,,,,,,,,,,,,,,,,,,,,,,,,,,,,,,,,,,,,,,,,,,,,,,,,,,,,,,,,,,,,,,,,,,,,,,,,,,,,,,,,,,,
,,617643296ef9b0d0e80e69a2,2024-02-19_04h12.58.432,kallum_motion_pilot,2023.2.2,Win32,60.24096386,617643296ef9b0d0e80e69a2,65d2b6c8f2eece985d8e374c,65d2b8c5021102d092193342,0.2073,0.2074,0,83,83,117,1,seveneight,,,,,,,,,,,,,,,,,,,,,,,,,,,,,,,,,,,,,,,,,,,,,,,,,,,,,,,,,,,,,,,,,,,,,,,,,,,,,,,,,,,,,,,,,,,,,,,,,,,,,,,,,,,,,,,,,,,,,,,,,,,,,,,,,,,,,,,,,
,,617643296ef9b0d0e80e69a2,2024-02-19_04h12.58.432,kallum_motion_pilot,2023.2.2,Win32,60.24096386,617643296ef9b0d0e80e69a2,65d2b6c8f2eece985d8e374c,65d2b8c5021102d092193342,0.2076,0.2077,0,84,84,77,1,threefour,,,,,,,,,,,,,,,,,,,,,,,,,,,,,,,,,,,,,,,,,,,,,,,,,,,,,,,,,,,,,,,,,,,,,,,,,,,,,,,,,,,,,,,,,,,,,,,,,,,,,,,,,,,,,,,,,,,,,,,,,,,,,,,,,,,,,,,,,
,,617643296ef9b0d0e80e69a2,2024-02-19_04h12.58.432,kallum_motion_pilot,2023.2.2,Win32,60.24096386,617643296ef9b0d0e80e69a2,65d2b6c8f2eece985d8e374c,65d2b8c5021102d092193342,0.208,0.2081,0,85,85,62,1,fourtwo,,,,,,,,,,,,,,,,,,,,,,,,,,,,,,,,,,,,,,,,,,,,,,,,,,,,,,,,,,,,,,,,,,,,,,,,,,,,,,,,,,,,,,,,,,,,,,,,,,,,,,,,,,,,,,,,,,,,,,,,,,,,,,,,,,,,,,,,,
,,617643296ef9b0d0e80e69a2,2024-02-19_04h12.58.432,kallum_motion_pilot,2023.2.2,Win32,60.24096386,617643296ef9b0d0e80e69a2,65d2b6c8f2eece985d8e374c,65d2b8c5021102d092193342,0.2084,0.2085,0,86,86,16,1,onetwo,,,,,,,,,,,,,,,,,,,,,,,,,,,,,,,,,,,,,,,,,,,,,,,,,,,,,,,,,,,,,,,,,,,,,,,,,,,,,,,,,,,,,,,,,,,,,,,,,,,,,,,,,,,,,,,,,,,,,,,,,,,,,,,,,,,,,,,,,
,,617643296ef9b0d0e80e69a2,2024-02-19_04h12.58.432,kallum_motion_pilot,2023.2.2,Win32,60.24096386,617643296ef9b0d0e80e69a2,65d2b6c8f2eece985d8e374c,65d2b8c5021102d092193342,0.2087,0.2088,0,87,87,93,1,seveneight,,,,,,,,,,,,,,,,,,,,,,,,,,,,,,,,,,,,,,,,,,,,,,,,,,,,,,,,,,,,,,,,,,,,,,,,,,,,,,,,,,,,,,,,,,,,,,,,,,,,,,,,,,,,,,,,,,,,,,,,,,,,,,,,,,,,,,,,,
,,617643296ef9b0d0e80e69a2,2024-02-19_04h12.58.432,kallum_motion_pilot,2023.2.2,Win32,60.24096386,617643296ef9b0d0e80e69a2,65d2b6c8f2eece985d8e374c,65d2b8c5021102d092193342,0.2091,0.2092,0,88,88,15,1,fourthree,,,,,,,,,,,,,,,,,,,,,,,,,,,,,,,,,,,,,,,,,,,,,,,,,,,,,,,,,,,,,,,,,,,,,,,,,,,,,,,,,,,,,,,,,,,,,,,,,,,,,,,,,,,,,,,,,,,,,,,,,,,,,,,,,,,,,,,,,
,,617643296ef9b0d0e80e69a2,2024-02-19_04h12.58.432,kallum_motion_pilot,2023.2.2,Win32,60.24096386,617643296ef9b0d0e80e69a2,65d2b6c8f2eece985d8e374c,65d2b8c5021102d092193342,0.2094,0.2095,0,89,89,100,1,sevenfive,,,,,,,,,,,,,,,,,,,,,,,,,,,,,,,,,,,,,,,,,,,,,,,,,,,,,,,,,,,,,,,,,,,,,,,,,,,,,,,,,,,,,,,,,,,,,,,,,,,,,,,,,,,,,,,,,,,,,,,,,,,,,,,,,,,,,,,,,
,,617643296ef9b0d0e80e69a2,2024-02-19_04h12.58.432,kallum_motion_pilot,2023.2.2,Win32,60.24096386,617643296ef9b0d0e80e69a2,65d2b6c8f2eece985d8e374c,65d2b8c5021102d092193342,0.2098,0.2098,0,90,90,58,1,twoone,,,,,,,,,,,,,,,,,,,,,,,,,,,,,,,,,,,,,,,,,,,,,,,,,,,,,,,,,,,,,,,,,,,,,,,,,,,,,,,,,,,,,,,,,,,,,,,,,,,,,,,,,,,,,,,,,,,,,,,,,,,,,,,,,,,,,,,,,
,,617643296ef9b0d0e80e69a2,2024-02-19_04h12.58.432,kallum_motion_pilot,2023.2.2,Win32,60.24096386,617643296ef9b0d0e80e69a2,65d2b6c8f2eece985d8e374c,65d2b8c5021102d092193342,0.2102,0.2103,0,91,91,73,1,onethree,,,,,,,,,,,,,,,,,,,,,,,,,,,,,,,,,,,,,,,,,,,,,,,,,,,,,,,,,,,,,,,,,,,,,,,,,,,,,,,,,,,,,,,,,,,,,,,,,,,,,,,,,,,,,,,,,,,,,,,,,,,,,,,,,,,,,,,,,
,,617643296ef9b0d0e80e69a2,2024-02-19_04h12.58.432,kallum_motion_pilot,2023.2.2,Win32,60.24096386,617643296ef9b0d0e80e69a2,65d2b6c8f2eece985d8e374c,65d2b8c5021102d092193342,0.2105,0.2105,0,92,92,131,1,sixeight,,,,,,,,,,,,,,,,,,,,,,,,,,,,,,,,,,,,,,,,,,,,,,,,,,,,,,,,,,,,,,,,,,,,,,,,,,,,,,,,,,,,,,,,,,,,,,,,,,,,,,,,,,,,,,,,,,,,,,,,,,,,,,,,,,,,,,,,,
,,617643296ef9b0d0e80e69a2,2024-02-19_04h12.58.432,kallum_motion_pilot,2023.2.2,Win32,60.24096386,617643296ef9b0d0e80e69a2,65d2b6c8f2eece985d8e374c,65d2b8c5021102d092193342,0.2107,0.2108,0,93,93,153,1,fiveseven,,,,,,,,,,,,,,,,,,,,,,,,,,,,,,,,,,,,,,,,,,,,,,,,,,,,,,,,,,,,,,,,,,,,,,,,,,,,,,,,,,,,,,,,,,,,,,,,,,,,,,,,,,,,,,,,,,,,,,,,,,,,,,,,,,,,,,,,,
,,617643296ef9b0d0e80e69a2,2024-02-19_04h12.58.432,kallum_motion_pilot,2023.2.2,Win32,60.24096386,617643296ef9b0d0e80e69a2,65d2b6c8f2eece985d8e374c,65d2b8c5021102d092193342,0.2109,0.2111,0,94,94,61,1,threefour,,,,,,,,,,,,,,,,,,,,,,,,,,,,,,,,,,,,,,,,,,,,,,,,,,,,,,,,,,,,,,,,,,,,,,,,,,,,,,,,,,,,,,,,,,,,,,,,,,,,,,,,,,,,,,,,,,,,,,,,,,,,,,,,,,,,,,,,,
,,617643296ef9b0d0e80e69a2,2024-02-19_04h12.58.432,kallum_motion_pilot,2023.2.2,Win32,60.24096386,617643296ef9b0d0e80e69a2,65d2b6c8f2eece985d8e374c,65d2b8c5021102d092193342,0.2111,0.2112,0,95,95,19,1,twofour,,,,,,,,,,,,,,,,,,,,,,,,,,,,,,,,,,,,,,,,,,,,,,,,,,,,,,,,,,,,,,,,,,,,,,,,,,,,,,,,,,,,,,,,,,,,,,,,,,,,,,,,,,,,,,,,,,,,,,,,,,,,,,,,,,,,,,,,,
,,617643296ef9b0d0e80e69a2,2024-02-19_04h12.58.432,kallum_motion_pilot,2023.2.2,Win32,60.24096386,617643296ef9b0d0e80e69a2,65d2b6c8f2eece985d8e374c,65d2b8c5021102d092193342,0.2113,0.2114,0,96,96,144,1,fivesix,,,,,,,,,,,,,,,,,,,,,,,,,,,,,,,,,,,,,,,,,,,,,,,,,,,,,,,,,,,,,,,,,,,,,,,,,,,,,,,,,,,,,,,,,,,,,,,,,,,,,,,,,,,,,,,,,,,,,,,,,,,,,,,,,,,,,,,,,
,,617643296ef9b0d0e80e69a2,2024-02-19_04h12.58.432,kallum_motion_pilot,2023.2.2,Win32,60.24096386,617643296ef9b0d0e80e69a2,65d2b6c8f2eece985d8e374c,65d2b8c5021102d092193342,0.2115,0.2116,0,97,97,20,1,threeone,,,,,,,,,,,,,,,,,,,,,,,,,,,,,,,,,,,,,,,,,,,,,,,,,,,,,,,,,,,,,,,,,,,,,,,,,,,,,,,,,,,,,,,,,,,,,,,,,,,,,,,,,,,,,,,,,,,,,,,,,,,,,,,,,,,,,,,,,
,,617643296ef9b0d0e80e69a2,2024-02-19_04h12.58.432,kallum_motion_pilot,2023.2.2,Win32,60.24096386,617643296ef9b0d0e80e69a2,65d2b6c8f2eece985d8e374c,65d2b8c5021102d092193342,0.2117,0.2117,0,98,98,50,1,twoone,,,,,,,,,,,,,,,,,,,,,,,,,,,,,,,,,,,,,,,,,,,,,,,,,,,,,,,,,,,,,,,,,,,,,,,,,,,,,,,,,,,,,,,,,,,,,,,,,,,,,,,,,,,,,,,,,,,,,,,,,,,,,,,,,,,,,,,,,
,,617643296ef9b0d0e80e69a2,2024-02-19_04h12.58.432,kallum_motion_pilot,2023.2.2,Win32,60.24096386,617643296ef9b0d0e80e69a2,65d2b6c8f2eece985d8e374c,65d2b8c5021102d092193342,0.2119,0.2119,0,99,99,56,1,onetwo,,,,,,,,,,,,,,,,,,,,,,,,,,,,,,,,,,,,,,,,,,,,,,,,,,,,,,,,,,,,,,,,,,,,,,,,,,,,,,,,,,,,,,,,,,,,,,,,,,,,,,,,,,,,,,,,,,,,,,,,,,,,,,,,,,,,,,,,,
,,617643296ef9b0d0e80e69a2,2024-02-19_04h12.58.432,kallum_motion_pilot,2023.2.2,Win32,60.24096386,617643296ef9b0d0e80e69a2,65d2b6c8f2eece985d8e374c,65d2b8c5021102d092193342,0.2121,0.2122,0,100,100,10,1,twoone,,,,,,,,,,,,,,,,,,,,,,,,,,,,,,,,,,,,,,,,,,,,,,,,,,,,,,,,,,,,,,,,,,,,,,,,,,,,,,,,,,,,,,,,,,,,,,,,,,,,,,,,,,,,,,,,,,,,,,,,,,,,,,,,,,,,,,,,,
,,617643296ef9b0d0e80e69a2,2024-02-19_04h12.58.432,kallum_motion_pilot,2023.2.2,Win32,60.24096386,617643296ef9b0d0e80e69a2,65d2b6c8f2eece985d8e374c,65d2b8c5021102d092193342,0.2123,0.2124,0,101,101,141,1,seveneight,,,,,,,,,,,,,,,,,,,,,,,,,,,,,,,,,,,,,,,,,,,,,,,,,,,,,,,,,,,,,,,,,,,,,,,,,,,,,,,,,,,,,,,,,,,,,,,,,,,,,,,,,,,,,,,,,,,,,,,,,,,,,,,,,,,,,,,,,
,,617643296ef9b0d0e80e69a2,2024-02-19_04h12.58.432,kallum_motion_pilot,2023.2.2,Win32,60.24096386,617643296ef9b0d0e80e69a2,65d2b6c8f2eece985d8e374c,65d2b8c5021102d092193342,0.2125,0.2125,0,102,102,79,1,eightseven,,,,,,,,,,,,,,,,,,,,,,,,,,,,,,,,,,,,,,,,,,,,,,,,,,,,,,,,,,,,,,,,,,,,,,,,,,,,,,,,,,,,,,,,,,,,,,,,,,,,,,,,,,,,,,,,,,,,,,,,,,,,,,,,,,,,,,,,,
,,617643296ef9b0d0e80e69a2,2024-02-19_04h12.58.432,kallum_motion_pilot,2023.2.2,Win32,60.24096386,617643296ef9b0d0e80e69a2,65d2b6c8f2eece985d8e374c,65d2b8c5021102d092193342,0.2127,0.2127,0,103,103,33,1,onethree,,,,,,,,,,,,,,,,,,,,,,,,,,,,,,,,,,,,,,,,,,,,,,,,,,,,,,,,,,,,,,,,,,,,,,,,,,,,,,,,,,,,,,,,,,,,,,,,,,,,,,,,,,,,,,,,,,,,,,,,,,,,,,,,,,,,,,,,,
,,617643296ef9b0d0e80e69a2,2024-02-19_04h12.58.432,kallum_motion_pilot,2023.2.2,Win32,60.24096386,617643296ef9b0d0e80e69a2,65d2b6c8f2eece985d8e374c,65d2b8c5021102d092193342,0.2128,0.2129,0,104,104,51,1,twofour,,,,,,,,,,,,,,,,,,,,,,,,,,,,,,,,,,,,,,,,,,,,,,,,,,,,,,,,,,,,,,,,,,,,,,,,,,,,,,,,,,,,,,,,,,,,,,,,,,,,,,,,,,,,,,,,,,,,,,,,,,,,,,,,,,,,,,,,,
,,617643296ef9b0d0e80e69a2,2024-02-19_04h12.58.432,kallum_motion_pilot,2023.2.2,Win32,60.24096386,617643296ef9b0d0e80e69a2,65d2b6c8f2eece985d8e374c,65d2b8c5021102d092193342,0.2145,0.2145,0,105,105,129,1,fiveseven,,,,,,,,,,,,,,,,,,,,,,,,,,,,,,,,,,,,,,,,,,,,,,,,,,,,,,,,,,,,,,,,,,,,,,,,,,,,,,,,,,,,,,,,,,,,,,,,,,,,,,,,,,,,,,,,,,,,,,,,,,,,,,,,,,,,,,,,,
,,617643296ef9b0d0e80e69a2,2024-02-19_04h12.58.432,kallum_motion_pilot,2023.2.2,Win32,60.24096386,617643296ef9b0d0e80e69a2,65d2b6c8f2eece985d8e374c,65d2b8c5021102d092193342,0.2148,0.2149,0,106,106,17,1,onethree,,,,,,,,,,,,,,,,,,,,,,,,,,,,,,,,,,,,,,,,,,,,,,,,,,,,,,,,,,,,,,,,,,,,,,,,,,,,,,,,,,,,,,,,,,,,,,,,,,,,,,,,,,,,,,,,,,,,,,,,,,,,,,,,,,,,,,,,,
,,617643296ef9b0d0e80e69a2,2024-02-19_04h12.58.432,kallum_motion_pilot,2023.2.2,Win32,60.24096386,617643296ef9b0d0e80e69a2,65d2b6c8f2eece985d8e374c,65d2b8c5021102d092193342,0.2151,0.2152,0,107,107,41,1,onethree,,,,,,,,,,,,,,,,,,,,,,,,,,,,,,,,,,,,,,,,,,,,,,,,,,,,,,,,,,,,,,,,,,,,,,,,,,,,,,,,,,,,,,,,,,,,,,,,,,,,,,,,,,,,,,,,,,,,,,,,,,,,,,,,,,,,,,,,,
,,617643296ef9b0d0e80e69a2,2024-02-19_04h12.58.432,kallum_motion_pilot,2023.2.2,Win32,60.24096386,617643296ef9b0d0e80e69a2,65d2b6c8f2eece985d8e374c,65d2b8c5021102d092193342,0.2154,0.2154,0,108,108,26,1,twoone,,,,,,,,,,,,,,,,,,,,,,,,,,,,,,,,,,,,,,,,,,,,,,,,,,,,,,,,,,,,,,,,,,,,,,,,,,,,,,,,,,,,,,,,,,,,,,,,,,,,,,,,,,,,,,,,,,,,,,,,,,,,,,,,,,,,,,,,,
,,617643296ef9b0d0e80e69a2,2024-02-19_04h12.58.432,kallum_motion_pilot,2023.2.2,Win32,60.24096386,617643296ef9b0d0e80e69a2,65d2b6c8f2eece985d8e374c,65d2b8c5021102d092193342,0.2156,0.216,0,109,109,70,1,fourtwo,,,,,,,,,,,,,,,,,,,,,,,,,,,,,,,,,,,,,,,,,,,,,,,,,,,,,,,,,,,,,,,,,,,,,,,,,,,,,,,,,,,,,,,,,,,,,,,,,,,,,,,,,,,,,,,,,,,,,,,,,,,,,,,,,,,,,,,,,
,,617643296ef9b0d0e80e69a2,2024-02-19_04h12.58.432,kallum_motion_pilot,2023.2.2,Win32,60.24096386,617643296ef9b0d0e80e69a2,65d2b6c8f2eece985d8e374c,65d2b8c5021102d092193342,0.2167,0.2169,0,110,110,80,1,fivesix,,,,,,,,,,,,,,,,,,,,,,,,,,,,,,,,,,,,,,,,,,,,,,,,,,,,,,,,,,,,,,,,,,,,,,,,,,,,,,,,,,,,,,,,,,,,,,,,,,,,,,,,,,,,,,,,,,,,,,,,,,,,,,,,,,,,,,,,,
,,617643296ef9b0d0e80e69a2,2024-02-19_04h12.58.432,kallum_motion_pilot,2023.2.2,Win32,60.24096386,617643296ef9b0d0e80e69a2,65d2b6c8f2eece985d8e374c,65d2b8c5021102d092193342,0.2171,0.2171,0,111,111,156,1,sevenfive,,,,,,,,,,,,,,,,,,,,,,,,,,,,,,,,,,,,,,,,,,,,,,,,,,,,,,,,,,,,,,,,,,,,,,,,,,,,,,,,,,,,,,,,,,,,,,,,,,,,,,,,,,,,,,,,,,,,,,,,,,,,,,,,,,,,,,,,,
,,617643296ef9b0d0e80e69a2,2024-02-19_04h12.58.432,kallum_motion_pilot,2023.2.2,Win32,60.24096386,617643296ef9b0d0e80e69a2,65d2b6c8f2eece985d8e374c,65d2b8c5021102d092193342,0.2172,0.2174,0,112,112,46,1,fourtwo,,,,,,,,,,,,,,,,,,,,,,,,,,,,,,,,,,,,,,,,,,,,,,,,,,,,,,,,,,,,,,,,,,,,,,,,,,,,,,,,,,,,,,,,,,,,,,,,,,,,,,,,,,,,,,,,,,,,,,,,,,,,,,,,,,,,,,,,,
,,617643296ef9b0d0e80e69a2,2024-02-19_04h12.58.432,kallum_motion_pilot,2023.2.2,Win32,60.24096386,617643296ef9b0d0e80e69a2,65d2b6c8f2eece985d8e374c,65d2b8c5021102d092193342,0.2175,0.2176,0,113,113,18,1,twoone,,,,,,,,,,,,,,,,,,,,,,,,,,,,,,,,,,,,,,,,,,,,,,,,,,,,,,,,,,,,,,,,,,,,,,,,,,,,,,,,,,,,,,,,,,,,,,,,,,,,,,,,,,,,,,,,,,,,,,,,,,,,,,,,,,,,,,,,,
,,617643296ef9b0d0e80e69a2,2024-02-19_04h12.58.432,kallum_motion_pilot,2023.2.2,Win32,60.24096386,617643296ef9b0d0e80e69a2,65d2b6c8f2eece985d8e374c,65d2b8c5021102d092193342,0.2178,0.2178,0,114,114,134,1,eightsix,,,,,,,,,,,,,,,,,,,,,,,,,,,,,,,,,,,,,,,,,,,,,,,,,,,,,,,,,,,,,,,,,,,,,,,,,,,,,,,,,,,,,,,,,,,,,,,,,,,,,,,,,,,,,,,,,,,,,,,,,,,,,,,,,,,,,,,,,
,,617643296ef9b0d0e80e69a2,2024-02-19_04h12.58.432,kallum_motion_pilot,2023.2.2,Win32,60.24096386,617643296ef9b0d0e80e69a2,65d2b6c8f2eece985d8e374c,65d2b8c5021102d092193342,0.2179,0.2181,0,115,115,36,1,threeone,,,,,,,,,,,,,,,,,,,,,,,,,,,,,,,,,,,,,,,,,,,,,,,,,,,,,,,,,,,,,,,,,,,,,,,,,,,,,,,,,,,,,,,,,,,,,,,,,,,,,,,,,,,,,,,,,,,,,,,,,,,,,,,,,,,,,,,,,
,,617643296ef9b0d0e80e69a2,2024-02-19_04h12.58.432,kallum_motion_pilot,2023.2.2,Win32,60.24096386,617643296ef9b0d0e80e69a2,65d2b6c8f2eece985d8e374c,65d2b8c5021102d092193342,0.2181,0.2182,0,116,116,11,1,twofour,,,,,,,,,,,,,,,,,,,,,,,,,,,,,,,,,,,,,,,,,,,,,,,,,,,,,,,,,,,,,,,,,,,,,,,,,,,,,,,,,,,,,,,,,,,,,,,,,,,,,,,,,,,,,,,,,,,,,,,,,,,,,,,,,,,,,,,,,
,,617643296ef9b0d0e80e69a2,2024-02-19_04h12.58.432,kallum_motion_pilot,2023.2.2,Win32,60.24096386,617643296ef9b0d0e80e69a2,65d2b6c8f2eece985d8e374c,65d2b8c5021102d092193342,0.2183,0.2184,0,117,117,27,1,twofour,,,,,,,,,,,,,,,,,,,,,,,,,,,,,,,,,,,,,,,,,,,,,,,,,,,,,,,,,,,,,,,,,,,,,,,,,,,,,,,,,,,,,,,,,,,,,,,,,,,,,,,,,,,,,,,,,,,,,,,,,,,,,,,,,,,,,,,,,
,,617643296ef9b0d0e80e69a2,2024-02-19_04h12.58.432,kallum_motion_pilot,2023.2.2,Win32,60.24096386,617643296ef9b0d0e80e69a2,65d2b6c8f2eece985d8e374c,65d2b8c5021102d092193342,0.2186,0.2186,0,118,118,92,1,sevenfive,,,,,,,,,,,,,,,,,,,,,,,,,,,,,,,,,,,,,,,,,,,,,,,,,,,,,,,,,,,,,,,,,,,,,,,,,,,,,,,,,,,,,,,,,,,,,,,,,,,,,,,,,,,,,,,,,,,,,,,,,,,,,,,,,,,,,,,,,
,,617643296ef9b0d0e80e69a2,2024-02-19_04h12.58.432,kallum_motion_pilot,2023.2.2,Win32,60.24096386,617643296ef9b0d0e80e69a2,65d2b6c8f2eece985d8e374c,65d2b8c5021102d092193342,0.2188,0.2188,0,119,119,72,1,onetwo,,,,,,,,,,,,,,,,,,,,,,,,,,,,,,,,,,,,,,,,,,,,,,,,,,,,,,,,,,,,,,,,,,,,,,,,,,,,,,,,,,,,,,,,,,,,,,,,,,,,,,,,,,,,,,,,,,,,,,,,,,,,,,,,,,,,,,,,,
,,617643296ef9b0d0e80e69a2,2024-02-19_04h12.58.432,kallum_motion_pilot,2023.2.2,Win32,60.24096386,617643296ef9b0d0e80e69a2,65d2b6c8f2eece985d8e374c,65d2b8c5021102d092193342,0.2189,0.219,0,120,120,49,1,onethree,,,,,,,,,,,,,,,,,,,,,,,,,,,,,,,,,,,,,,,,,,,,,,,,,,,,,,,,,,,,,,,,,,,,,,,,,,,,,,,,,,,,,,,,,,,,,,,,,,,,,,,,,,,,,,,,,,,,,,,,,,,,,,,,,,,,,,,,,
,,617643296ef9b0d0e80e69a2,2024-02-19_04h12.58.432,kallum_motion_pilot,2023.2.2,Win32,60.24096386,617643296ef9b0d0e80e69a2,65d2b6c8f2eece985d8e374c,65d2b8c5021102d092193342,0.2192,0.2193,0,121,121,55,1,fourthree,,,,,,,,,,,,,,,,,,,,,,,,,,,,,,,,,,,,,,,,,,,,,,,,,,,,,,,,,,,,,,,,,,,,,,,,,,,,,,,,,,,,,,,,,,,,,,,,,,,,,,,,,,,,,,,,,,,,,,,,,,,,,,,,,,,,,,,,,
,,617643296ef9b0d0e80e69a2,2024-02-19_04h12.58.432,kallum_motion_pilot,2023.2.2,Win32,60.24096386,617643296ef9b0d0e80e69a2,65d2b6c8f2eece985d8e374c,65d2b8c5021102d092193342,0.2194,0.2195,0,122,122,125,1,seveneight,,,,,,,,,,,,,,,,,,,,,,,,,,,,,,,,,,,,,,,,,,,,,,,,,,,,,,,,,,,,,,,,,,,,,,,,,,,,,,,,,,,,,,,,,,,,,,,,,,,,,,,,,,,,,,,,,,,,,,,,,,,,,,,,,,,,,,,,,
,,617643296ef9b0d0e80e69a2,2024-02-19_04h12.58.432,kallum_motion_pilot,2023.2.2,Win32,60.24096386,617643296ef9b0d0e80e69a2,65d2b6c8f2eece985d8e374c,65d2b8c5021102d092193342,0.2196,0.2196,0,123,123,118,1,eightsix,,,,,,,,,,,,,,,,,,,,,,,,,,,,,,,,,,,,,,,,,,,,,,,,,,,,,,,,,,,,,,,,,,,,,,,,,,,,,,,,,,,,,,,,,,,,,,,,,,,,,,,,,,,,,,,,,,,,,,,,,,,,,,,,,,,,,,,,,
,,617643296ef9b0d0e80e69a2,2024-02-19_04h12.58.432,kallum_motion_pilot,2023.2.2,Win32,60.24096386,617643296ef9b0d0e80e69a2,65d2b6c8f2eece985d8e374c,65d2b8c5021102d092193342,0.2198,0.2199,0,124,124,4,1,threeone,,,,,,,,,,,,,,,,,,,,,,,,,,,,,,,,,,,,,,,,,,,,,,,,,,,,,,,,,,,,,,,,,,,,,,,,,,,,,,,,,,,,,,,,,,,,,,,,,,,,,,,,,,,,,,,,,,,,,,,,,,,,,,,,,,,,,,,,,
,,617643296ef9b0d0e80e69a2,2024-02-19_04h12.58.432,kallum_motion_pilot,2023.2.2,Win32,60.24096386,617643296ef9b0d0e80e69a2,65d2b6c8f2eece985d8e374c,65d2b8c5021102d092193342,0.22,0.2202,0,125,125,122,1,sixfive,,,,,,,,,,,,,,,,,,,,,,,,,,,,,,,,,,,,,,,,,,,,,,,,,,,,,,,,,,,,,,,,,,,,,,,,,,,,,,,,,,,,,,,,,,,,,,,,,,,,,,,,,,,,,,,,,,,,,,,,,,,,,,,,,,,,,,,,,
,,617643296ef9b0d0e80e69a2,2024-02-19_04h12.58.432,kallum_motion_pilot,2023.2.2,Win32,60.24096386,617643296ef9b0d0e80e69a2,65d2b6c8f2eece985d8e374c,65d2b8c5021102d092193342,0.2203,0.2203,0,126,126,96,1,fivesix,,,,,,,,,,,,,,,,,,,,,,,,,,,,,,,,,,,,,,,,,,,,,,,,,,,,,,,,,,,,,,,,,,,,,,,,,,,,,,,,,,,,,,,,,,,,,,,,,,,,,,,,,,,,,,,,,,,,,,,,,,,,,,,,,,,,,,,,,
,,617643296ef9b0d0e80e69a2,2024-02-19_04h12.58.432,kallum_motion_pilot,2023.2.2,Win32,60.24096386,617643296ef9b0d0e80e69a2,65d2b6c8f2eece985d8e374c,65d2b8c5021102d092193342,0.2204,0.2206,0,127,127,150,1,eightsix,,,,,,,,,,,,,,,,,,,,,,,,,,,,,,,,,,,,,,,,,,,,,,,,,,,,,,,,,,,,,,,,,,,,,,,,,,,,,,,,,,,,,,,,,,,,,,,,,,,,,,,,,,,,,,,,,,,,,,,,,,,,,,,,,,,,,,,,,
,,617643296ef9b0d0e80e69a2,2024-02-19_04h12.58.432,kallum_motion_pilot,2023.2.2,Win32,60.24096386,617643296ef9b0d0e80e69a2,65d2b6c8f2eece985d8e374c,65d2b8c5021102d092193342,0.2206,0.2207,0,128,128,138,1,sixfive,,,,,,,,,,,,,,,,,,,,,,,,,,,,,,,,,,,,,,,,,,,,,,,,,,,,,,,,,,,,,,,,,,,,,,,,,,,,,,,,,,,,,,,,,,,,,,,,,,,,,,,,,,,,,,,,,,,,,,,,,,,,,,,,,,,,,,,,,
,,617643296ef9b0d0e80e69a2,2024-02-19_04h12.58.432,kallum_motion_pilot,2023.2.2,Win32,60.24096386,617643296ef9b0d0e80e69a2,65d2b6c8f2eece985d8e374c,65d2b8c5021102d092193342,0.2208,0.2209,0,129,129,127,1,eightseven,,,,,,,,,,,,,,,,,,,,,,,,,,,,,,,,,,,,,,,,,,,,,,,,,,,,,,,,,,,,,,,,,,,,,,,,,,,,,,,,,,,,,,,,,,,,,,,,,,,,,,,,,,,,,,,,,,,,,,,,,,,,,,,,,,,,,,,,,
,,617643296ef9b0d0e80e69a2,2024-02-19_04h12.58.432,kallum_motion_pilot,2023.2.2,Win32,60.24096386,617643296ef9b0d0e80e69a2,65d2b6c8f2eece985d8e374c,65d2b8c5021102d092193342,0.2211,0.2211,0,130,130,45,1,threefour,,,,,,,,,,,,,,,,,,,,,,,,,,,,,,,,,,,,,,,,,,,,,,,,,,,,,,,,,,,,,,,,,,,,,,,,,,,,,,,,,,,,,,,,,,,,,,,,,,,,,,,,,,,,,,,,,,,,,,,,,,,,,,,,,,,,,,,,,
,,617643296ef9b0d0e80e69a2,2024-02-19_04h12.58.432,kallum_motion_pilot,2023.2.2,Win32,60.24096386,617643296ef9b0d0e80e69a2,65d2b6c8f2eece985d8e374c,65d2b8c5021102d092193342,0.2213,0.2213,0,131,131,126,1,eightsix,,,,,,,,,,,,,,,,,,,,,,,,,,,,,,,,,,,,,,,,,,,,,,,,,,,,,,,,,,,,,,,,,,,,,,,,,,,,,,,,,,,,,,,,,,,,,,,,,,,,,,,,,,,,,,,,,,,,,,,,,,,,,,,,,,,,,,,,,
,,617643296ef9b0d0e80e69a2,2024-02-19_04h12.58.432,kallum_motion_pilot,2023.2.2,Win32,60.24096386,617643296ef9b0d0e80e69a2,65d2b6c8f2eece985d8e374c,65d2b8c5021102d092193342,0.2214,0.2215,0,132,132,103,1,eightseven,,,,,,,,,,,,,,,,,,,,,,,,,,,,,,,,,,,,,,,,,,,,,,,,,,,,,,,,,,,,,,,,,,,,,,,,,,,,,,,,,,,,,,,,,,,,,,,,,,,,,,,,,,,,,,,,,,,,,,,,,,,,,,,,,,,,,,,,,
,,617643296ef9b0d0e80e69a2,2024-02-19_04h12.58.432,kallum_motion_pilot,2023.2.2,Win32,60.24096386,617643296ef9b0d0e80e69a2,65d2b6c8f2eece985d8e374c,65d2b8c5021102d092193342,0.2222,0.2225,0,133,133,157,1,seveneight,,,,,,,,,,,,,,,,,,,,,,,,,,,,,,,,,,,,,,,,,,,,,,,,,,,,,,,,,,,,,,,,,,,,,,,,,,,,,,,,,,,,,,,,,,,,,,,,,,,,,,,,,,,,,,,,,,,,,,,,,,,,,,,,,,,,,,,,,
,,617643296ef9b0d0e80e69a2,2024-02-19_04h12.58.432,kallum_motion_pilot,2023.2.2,Win32,60.24096386,617643296ef9b0d0e80e69a2,65d2b6c8f2eece985d8e374c,65d2b8c5021102d092193342,0.2228,0.223,0,134,134,102,1,eightsix,,,,,,,,,,,,,,,,,,,,,,,,,,,,,,,,,,,,,,,,,,,,,,,,,,,,,,,,,,,,,,,,,,,,,,,,,,,,,,,,,,,,,,,,,,,,,,,,,,,,,,,,,,,,,,,,,,,,,,,,,,,,,,,,,,,,,,,,,
,,617643296ef9b0d0e80e69a2,2024-02-19_04h12.58.432,kallum_motion_pilot,2023.2.2,Win32,60.24096386,617643296ef9b0d0e80e69a2,65d2b6c8f2eece985d8e374c,65d2b8c5021102d092193342,0.2232,0.2235,0,135,135,31,1,fourthree,,,,,,,,,,,,,,,,,,,,,,,,,,,,,,,,,,,,,,,,,,,,,,,,,,,,,,,,,,,,,,,,,,,,,,,,,,,,,,,,,,,,,,,,,,,,,,,,,,,,,,,,,,,,,,,,,,,,,,,,,,,,,,,,,,,,,,,,,
,,617643296ef9b0d0e80e69a2,2024-02-19_04h12.58.432,kallum_motion_pilot,2023.2.2,Win32,60.24096386,617643296ef9b0d0e80e69a2,65d2b6c8f2eece985d8e374c,65d2b8c5021102d092193342,0.2237,0.2238,0,136,136,76,1,threeone,,,,,,,,,,,,,,,,,,,,,,,,,,,,,,,,,,,,,,,,,,,,,,,,,,,,,,,,,,,,,,,,,,,,,,,,,,,,,,,,,,,,,,,,,,,,,,,,,,,,,,,,,,,,,,,,,,,,,,,,,,,,,,,,,,,,,,,,,
,,617643296ef9b0d0e80e69a2,2024-02-19_04h12.58.432,kallum_motion_pilot,2023.2.2,Win32,60.24096386,617643296ef9b0d0e80e69a2,65d2b6c8f2eece985d8e374c,65d2b8c5021102d092193342,0.224,0.2242,0,137,137,53,1,threefour,,,,,,,,,,,,,,,,,,,,,,,,,,,,,,,,,,,,,,,,,,,,,,,,,,,,,,,,,,,,,,,,,,,,,,,,,,,,,,,,,,,,,,,,,,,,,,,,,,,,,,,,,,,,,,,,,,,,,,,,,,,,,,,,,,,,,,,,,
,,617643296ef9b0d0e80e69a2,2024-02-19_04h12.58.432,kallum_motion_pilot,2023.2.2,Win32,60.24096386,617643296ef9b0d0e80e69a2,65d2b6c8f2eece985d8e374c,65d2b8c5021102d092193342,0.2245,0.2246,0,138,138,139,1,sixeight,,,,,,,,,,,,,,,,,,,,,,,,,,,,,,,,,,,,,,,,,,,,,,,,,,,,,,,,,,,,,,,,,,,,,,,,,,,,,,,,,,,,,,,,,,,,,,,,,,,,,,,,,,,,,,,,,,,,,,,,,,,,,,,,,,,,,,,,,
,,617643296ef9b0d0e80e69a2,2024-02-19_04h12.58.432,kallum_motion_pilot,2023.2.2,Win32,60.24096386,617643296ef9b0d0e80e69a2,65d2b6c8f2eece985d8e374c,65d2b8c5021102d092193342,0.2248,0.225,0,139,139,107,1,sixeight,,,,,,,,,,,,,,,,,,,,,,,,,,,,,,,,,,,,,,,,,,,,,,,,,,,,,,,,,,,,,,,,,,,,,,,,,,,,,,,,,,,,,,,,,,,,,,,,,,,,,,,,,,,,,,,,,,,,,,,,,,,,,,,,,,,,,,,,,
,,617643296ef9b0d0e80e69a2,2024-02-19_04h12.58.432,kallum_motion_pilot,2023.2.2,Win32,60.24096386,617643296ef9b0d0e80e69a2,65d2b6c8f2eece985d8e374c,65d2b8c5021102d092193342,0.2252,0.2253,0,140,140,75,1,twofour,,,,,,,,,,,,,,,,,,,,,,,,,,,,,,,,,,,,,,,,,,,,,,,,,,,,,,,,,,,,,,,,,,,,,,,,,,,,,,,,,,,,,,,,,,,,,,,,,,,,,,,,,,,,,,,,,,,,,,,,,,,,,,,,,,,,,,,,,
,,617643296ef9b0d0e80e69a2,2024-02-19_04h12.58.432,kallum_motion_pilot,2023.2.2,Win32,60.24096386,617643296ef9b0d0e80e69a2,65d2b6c8f2eece985d8e374c,65d2b8c5021102d092193342,0.2256,0.2257,0,141,141,89,1,fiveseven,,,,,,,,,,,,,,,,,,,,,,,,,,,,,,,,,,,,,,,,,,,,,,,,,,,,,,,,,,,,,,,,,,,,,,,,,,,,,,,,,,,,,,,,,,,,,,,,,,,,,,,,,,,,,,,,,,,,,,,,,,,,,,,,,,,,,,,,,
,,617643296ef9b0d0e80e69a2,2024-02-19_04h12.58.432,kallum_motion_pilot,2023.2.2,Win32,60.24096386,617643296ef9b0d0e80e69a2,65d2b6c8f2eece985d8e374c,65d2b8c5021102d092193342,0.2259,0.2261,0,142,142,52,1,threeone,,,,,,,,,,,,,,,,,,,,,,,,,,,,,,,,,,,,,,,,,,,,,,,,,,,,,,,,,,,,,,,,,,,,,,,,,,,,,,,,,,,,,,,,,,,,,,,,,,,,,,,,,,,,,,,,,,,,,,,,,,,,,,,,,,,,,,,,,
,,617643296ef9b0d0e80e69a2,2024-02-19_04h12.58.432,kallum_motion_pilot,2023.2.2,Win32,60.24096386,617643296ef9b0d0e80e69a2,65d2b6c8f2eece985d8e374c,65d2b8c5021102d092193342,0.2263,0.2264,0,143,143,2,1,twoone,,,,,,,,,,,,,,,,,,,,,,,,,,,,,,,,,,,,,,,,,,,,,,,,,,,,,,,,,,,,,,,,,,,,,,,,,,,,,,,,,,,,,,,,,,,,,,,,,,,,,,,,,,,,,,,,,,,,,,,,,,,,,,,,,,,,,,,,,
,,617643296ef9b0d0e80e69a2,2024-02-19_04h12.58.432,kallum_motion_pilot,2023.2.2,Win32,60.24096386,617643296ef9b0d0e80e69a2,65d2b6c8f2eece985d8e374c,65d2b8c5021102d092193342,0.2267,0.2269,0,144,144,145,1,fiveseven,,,,,,,,,,,,,,,,,,,,,,,,,,,,,,,,,,,,,,,,,,,,,,,,,,,,,,,,,,,,,,,,,,,,,,,,,,,,,,,,,,,,,,,,,,,,,,,,,,,,,,,,,,,,,,,,,,,,,,,,,,,,,,,,,,,,,,,,,
,,617643296ef9b0d0e80e69a2,2024-02-19_04h12.58.432,kallum_motion_pilot,2023.2.2,Win32,60.24096386,617643296ef9b0d0e80e69a2,65d2b6c8f2eece985d8e374c,65d2b8c5021102d092193342,0.2271,0.2272,0,145,145,143,1,eightseven,,,,,,,,,,,,,,,,,,,,,,,,,,,,,,,,,,,,,,,,,,,,,,,,,,,,,,,,,,,,,,,,,,,,,,,,,,,,,,,,,,,,,,,,,,,,,,,,,,,,,,,,,,,,,,,,,,,,,,,,,,,,,,,,,,,,,,,,,
,,617643296ef9b0d0e80e69a2,2024-02-19_04h12.58.432,kallum_motion_pilot,2023.2.2,Win32,60.24096386,617643296ef9b0d0e80e69a2,65d2b6c8f2eece985d8e374c,65d2b8c5021102d092193342,0.2275,0.2276,0,146,146,57,1,onethree,,,,,,,,,,,,,,,,,,,,,,,,,,,,,,,,,,,,,,,,,,,,,,,,,,,,,,,,,,,,,,,,,,,,,,,,,,,,,,,,,,,,,,,,,,,,,,,,,,,,,,,,,,,,,,,,,,,,,,,,,,,,,,,,,,,,,,,,,
,,617643296ef9b0d0e80e69a2,2024-02-19_04h12.58.432,kallum_motion_pilot,2023.2.2,Win32,60.24096386,617643296ef9b0d0e80e69a2,65d2b6c8f2eece985d8e374c,65d2b8c5021102d092193342,0.2279,0.2279,0,147,147,88,1,fivesix,,,,,,,,,,,,,,,,,,,,,,,,,,,,,,,,,,,,,,,,,,,,,,,,,,,,,,,,,,,,,,,,,,,,,,,,,,,,,,,,,,,,,,,,,,,,,,,,,,,,,,,,,,,,,,,,,,,,,,,,,,,,,,,,,,,,,,,,,
,,617643296ef9b0d0e80e69a2,2024-02-19_04h12.58.432,kallum_motion_pilot,2023.2.2,Win32,60.24096386,617643296ef9b0d0e80e69a2,65d2b6c8f2eece985d8e374c,65d2b8c5021102d092193342,0.2283,0.2284,0,148,148,95,1,eightseven,,,,,,,,,,,,,,,,,,,,,,,,,,,,,,,,,,,,,,,,,,,,,,,,,,,,,,,,,,,,,,,,,,,,,,,,,,,,,,,,,,,,,,,,,,,,,,,,,,,,,,,,,,,,,,,,,,,,,,,,,,,,,,,,,,,,,,,,,
,,617643296ef9b0d0e80e69a2,2024-02-19_04h12.58.432,kallum_motion_pilot,2023.2.2,Win32,60.24096386,617643296ef9b0d0e80e69a2,65d2b6c8f2eece985d8e374c,65d2b8c5021102d092193342,0.2286,0.2288,0,149,149,60,1,threeone,,,,,,,,,,,,,,,,,,,,,,,,,,,,,,,,,,,,,,,,,,,,,,,,,,,,,,,,,,,,,,,,,,,,,,,,,,,,,,,,,,,,,,,,,,,,,,,,,,,,,,,,,,,,,,,,,,,,,,,,,,,,,,,,,,,,,,,,,
,,617643296ef9b0d0e80e69a2,2024-02-19_04h12.58.432,kallum_motion_pilot,2023.2.2,Win32,60.24096386,617643296ef9b0d0e80e69a2,65d2b6c8f2eece985d8e374c,65d2b8c5021102d092193342,0.229,0.2292,0,150,150,149,1,seveneight,,,,,,,,,,,,,,,,,,,,,,,,,,,,,,,,,,,,,,,,,,,,,,,,,,,,,,,,,,,,,,,,,,,,,,,,,,,,,,,,,,,,,,,,,,,,,,,,,,,,,,,,,,,,,,,,,,,,,,,,,,,,,,,,,,,,,,,,,
,,617643296ef9b0d0e80e69a2,2024-02-19_04h12.58.432,kallum_motion_pilot,2023.2.2,Win32,60.24096386,617643296ef9b0d0e80e69a2,65d2b6c8f2eece985d8e374c,65d2b8c5021102d092193342,0.2294,0.2295,0,151,151,24,1,onetwo,,,,,,,,,,,,,,,,,,,,,,,,,,,,,,,,,,,,,,,,,,,,,,,,,,,,,,,,,,,,,,,,,,,,,,,,,,,,,,,,,,,,,,,,,,,,,,,,,,,,,,,,,,,,,,,,,,,,,,,,,,,,,,,,,,,,,,,,,
,,617643296ef9b0d0e80e69a2,2024-02-19_04h12.58.432,kallum_motion_pilot,2023.2.2,Win32,60.24096386,617643296ef9b0d0e80e69a2,65d2b6c8f2eece985d8e374c,65d2b8c5021102d092193342,0.2298,0.2299,0,152,152,136,1,fivesix,,,,,,,,,,,,,,,,,,,,,,,,,,,,,,,,,,,,,,,,,,,,,,,,,,,,,,,,,,,,,,,,,,,,,,,,,,,,,,,,,,,,,,,,,,,,,,,,,,,,,,,,,,,,,,,,,,,,,,,,,,,,,,,,,,,,,,,,,
,,617643296ef9b0d0e80e69a2,2024-02-19_04h12.58.432,kallum_motion_pilot,2023.2.2,Win32,60.24096386,617643296ef9b0d0e80e69a2,65d2b6c8f2eece985d8e374c,65d2b8c5021102d092193342,0.2302,0.2303,0,153,153,59,1,twofour,,,,,,,,,,,,,,,,,,,,,,,,,,,,,,,,,,,,,,,,,,,,,,,,,,,,,,,,,,,,,,,,,,,,,,,,,,,,,,,,,,,,,,,,,,,,,,,,,,,,,,,,,,,,,,,,,,,,,,,,,,,,,,,,,,,,,,,,,
,,617643296ef9b0d0e80e69a2,2024-02-19_04h12.58.432,kallum_motion_pilot,2023.2.2,Win32,60.24096386,617643296ef9b0d0e80e69a2,65d2b6c8f2eece985d8e374c,65d2b8c5021102d092193342,0.2306,0.2309,0,154,154,63,1,fourthree,,,,,,,,,,,,,,,,,,,,,,,,,,,,,,,,,,,,,,,,,,,,,,,,,,,,,,,,,,,,,,,,,,,,,,,,,,,,,,,,,,,,,,,,,,,,,,,,,,,,,,,,,,,,,,,,,,,,,,,,,,,,,,,,,,,,,,,,,
,,617643296ef9b0d0e80e69a2,2024-02-19_04h12.58.432,kallum_motion_pilot,2023.2.2,Win32,60.24096386,617643296ef9b0d0e80e69a2,65d2b6c8f2eece985d8e374c,65d2b8c5021102d092193342,0.2312,0.2313,0,155,155,133,1,seveneight,,,,,,,,,,,,,,,,,,,,,,,,,,,,,,,,,,,,,,,,,,,,,,,,,,,,,,,,,,,,,,,,,,,,,,,,,,,,,,,,,,,,,,,,,,,,,,,,,,,,,,,,,,,,,,,,,,,,,,,,,,,,,,,,,,,,,,,,,
,,617643296ef9b0d0e80e69a2,2024-02-19_04h12.58.432,kallum_motion_pilot,2023.2.2,Win32,60.24096386,617643296ef9b0d0e80e69a2,65d2b6c8f2eece985d8e374c,65d2b8c5021102d092193342,0.2316,0.2318,0,156,156,154,1,sixfive,,,,,,,,,,,,,,,,,,,,,,,,,,,,,,,,,,,,,,,,,,,,,,,,,,,,,,,,,,,,,,,,,,,,,,,,,,,,,,,,,,,,,,,,,,,,,,,,,,,,,,,,,,,,,,,,,,,,,,,,,,,,,,,,,,,,,,,,,
,,617643296ef9b0d0e80e69a2,2024-02-19_04h12.58.432,kallum_motion_pilot,2023.2.2,Win32,60.24096386,617643296ef9b0d0e80e69a2,65d2b6c8f2eece985d8e374c,65d2b8c5021102d092193342,0.232,0.2322,0,157,157,47,1,fourthree,,,,,,,,,,,,,,,,,,,,,,,,,,,,,,,,,,,,,,,,,,,,,,,,,,,,,,,,,,,,,,,,,,,,,,,,,,,,,,,,,,,,,,,,,,,,,,,,,,,,,,,,,,,,,,,,,,,,,,,,,,,,,,,,,,,,,,,,,
,,617643296ef9b0d0e80e69a2,2024-02-19_04h12.58.432,kallum_motion_pilot,2023.2.2,Win32,60.24096386,617643296ef9b0d0e80e69a2,65d2b6c8f2eece985d8e374c,65d2b8c5021102d092193342,0.2328,0.2329,0,158,158,114,1,sixfive,,,,,,,,,,,,,,,,,,,,,,,,,,,,,,,,,,,,,,,,,,,,,,,,,,,,,,,,,,,,,,,,,,,,,,,,,,,,,,,,,,,,,,,,,,,,,,,,,,,,,,,,,,,,,,,,,,,,,,,,,,,,,,,,,,,,,,,,,
,,617643296ef9b0d0e80e69a2,2024-02-19_04h12.58.432,kallum_motion_pilot,2023.2.2,Win32,60.24096386,617643296ef9b0d0e80e69a2,65d2b6c8f2eece985d8e374c,65d2b8c5021102d092193342,0.2332,0.2334,0,159,159,83,1,sixeight,,,,,,,,,,,,,,,,,,,,,,,,,,,,,,,,,,,,,,,,,,,,,,,,,,,,,,,,,,,,,,,,,,,,,,,,,,,,,,,,,,,,,,,,,,,,,,,,,,,,,,,,,,,,,,,,,,,,,,,,,,,,,,,,,,,,,,,,,
,,617643296ef9b0d0e80e69a2,2024-02-19_04h12.58.432,kallum_motion_pilot,2023.2.2,Win32,60.24096386,617643296ef9b0d0e80e69a2,65d2b6c8f2eece985d8e374c,65d2b8c5021102d092193342,0.2337,0.2339,0,160,160,67,1,twofour,,,,,,,,,,,,,,,,,,,,,,,,,,,,,,,,,,,,,,,,,,,,,,,,,,,,,,,,,,,,,,,,,,,,,,,,,,,,,,,,,,,,,,,,,,,,,,,,,,,,,,,,,,,,,,,,,,,,,,,,,,,,,,,,,,,,,,,,,
,,617643296ef9b0d0e80e69a2,2024-02-19_04h12.58.432,kallum_motion_pilot,2023.2.2,Win32,60.24096386,617643296ef9b0d0e80e69a2,65d2b6c8f2eece985d8e374c,65d2b8c5021102d092193342,0.2341,0.2343,0,161,161,35,1,twofour,,,,,,,,,,,,,,,,,,,,,,,,,,,,,,,,,,,,,,,,,,,,,,,,,,,,,,,,,,,,,,,,,,,,,,,,,,,,,,,,,,,,,,,,,,,,,,,,,,,,,,,,,,,,,,,,,,,,,,,,,,,,,,,,,,,,,,,,,
,,617643296ef9b0d0e80e69a2,2024-02-19_04h12.58.432,kallum_motion_pilot,2023.2.2,Win32,60.24096386,617643296ef9b0d0e80e69a2,65d2b6c8f2eece985d8e374c,65d2b8c5021102d092193342,0.2346,0.2347,1,0,162,64,1,onetwo,,,,,,,,,,,,,,,,,,,,,,,,,,,,,,,,,,,,,,,,,,,,,,,,,,,,,,,,,,,,,,,,,,,,,,,,,,,,,,,,,,,,,,,,,,,,,,,,,,,,,,,,,,,,,,,,,,,,,,,,,,,,,,,,,,,,,,,,,
,,617643296ef9b0d0e80e69a2,2024-02-19_04h12.58.432,kallum_motion_pilot,2023.2.2,Win32,60.24096386,617643296ef9b0d0e80e69a2,65d2b6c8f2eece985d8e374c,65d2b8c5021102d092193342,0.235,0.235,1,1,163,110,1,eightsix,,,,,,,,,,,,,,,,,,,,,,,,,,,,,,,,,,,,,,,,,,,,,,,,,,,,,,,,,,,,,,,,,,,,,,,,,,,,,,,,,,,,,,,,,,,,,,,,,,,,,,,,,,,,,,,,,,,,,,,,,,,,,,,,,,,,,,,,,
,,617643296ef9b0d0e80e69a2,2024-02-19_04h12.58.432,kallum_motion_pilot,2023.2.2,Win32,60.24096386,617643296ef9b0d0e80e69a2,65d2b6c8f2eece985d8e374c,65d2b8c5021102d092193342,0.2355,0.2356,1,2,164,108,1,sevenfive,,,,,,,,,,,,,,,,,,,,,,,,,,,,,,,,,,,,,,,,,,,,,,,,,,,,,,,,,,,,,,,,,,,,,,,,,,,,,,,,,,,,,,,,,,,,,,,,,,,,,,,,,,,,,,,,,,,,,,,,,,,,,,,,,,,,,,,,,
,,617643296ef9b0d0e80e69a2,2024-02-19_04h12.58.432,kallum_motion_pilot,2023.2.2,Win32,60.24096386,617643296ef9b0d0e80e69a2,65d2b6c8f2eece985d8e374c,65d2b8c5021102d092193342,0.2363,0.2368,1,3,165,58,1,twoone,,,,,,,,,,,,,,,,,,,,,,,,,,,,,,,,,,,,,,,,,,,,,,,,,,,,,,,,,,,,,,,,,,,,,,,,,,,,,,,,,,,,,,,,,,,,,,,,,,,,,,,,,,,,,,,,,,,,,,,,,,,,,,,,,,,,,,,,,
,,617643296ef9b0d0e80e69a2,2024-02-19_04h12.58.432,kallum_motion_pilot,2023.2.2,Win32,60.24096386,617643296ef9b0d0e80e69a2,65d2b6c8f2eece985d8e374c,65d2b8c5021102d092193342,0.2376,0.238,1,4,166,19,1,twofour,,,,,,,,,,,,,,,,,,,,,,,,,,,,,,,,,,,,,,,,,,,,,,,,,,,,,,,,,,,,,,,,,,,,,,,,,,,,,,,,,,,,,,,,,,,,,,,,,,,,,,,,,,,,,,,,,,,,,,,,,,,,,,,,,,,,,,,,,
,,617643296ef9b0d0e80e69a2,2024-02-19_04h12.58.432,kallum_motion_pilot,2023.2.2,Win32,60.24096386,617643296ef9b0d0e80e69a2,65d2b6c8f2eece985d8e374c,65d2b8c5021102d092193342,0.2391,0.2394,1,5,167,154,1,sixfive,,,,,,,,,,,,,,,,,,,,,,,,,,,,,,,,,,,,,,,,,,,,,,,,,,,,,,,,,,,,,,,,,,,,,,,,,,,,,,,,,,,,,,,,,,,,,,,,,,,,,,,,,,,,,,,,,,,,,,,,,,,,,,,,,,,,,,,,,
,,617643296ef9b0d0e80e69a2,2024-02-19_04h12.58.432,kallum_motion_pilot,2023.2.2,Win32,60.24096386,617643296ef9b0d0e80e69a2,65d2b6c8f2eece985d8e374c,65d2b8c5021102d092193342,0.2398,0.24,1,6,168,101,1,seveneight,,,,,,,,,,,,,,,,,,,,,,,,,,,,,,,,,,,,,,,,,,,,,,,,,,,,,,,,,,,,,,,,,,,,,,,,,,,,,,,,,,,,,,,,,,,,,,,,,,,,,,,,,,,,,,,,,,,,,,,,,,,,,,,,,,,,,,,,,
,,617643296ef9b0d0e80e69a2,2024-02-19_04h12.58.432,kallum_motion_pilot,2023.2.2,Win32,60.24096386,617643296ef9b0d0e80e69a2,65d2b6c8f2eece985d8e374c,65d2b8c5021102d092193342,0.2404,0.2405,1,7,169,49,1,onethree,,,,,,,,,,,,,,,,,,,,,,,,,,,,,,,,,,,,,,,,,,,,,,,,,,,,,,,,,,,,,,,,,,,,,,,,,,,,,,,,,,,,,,,,,,,,,,,,,,,,,,,,,,,,,,,,,,,,,,,,,,,,,,,,,,,,,,,,,
,,617643296ef9b0d0e80e69a2,2024-02-19_04h12.58.432,kallum_motion_pilot,2023.2.2,Win32,60.24096386,617643296ef9b0d0e80e69a2,65d2b6c8f2eece985d8e374c,65d2b8c5021102d092193342,0.2409,0.2411,1,8,170,34,1,twoone,,,,,,,,,,,,,,,,,,,,,,,,,,,,,,,,,,,,,,,,,,,,,,,,,,,,,,,,,,,,,,,,,,,,,,,,,,,,,,,,,,,,,,,,,,,,,,,,,,,,,,,,,,,,,,,,,,,,,,,,,,,,,,,,,,,,,,,,,
,,617643296ef9b0d0e80e69a2,2024-02-19_04h12.58.432,kallum_motion_pilot,2023.2.2,Win32,60.24096386,617643296ef9b0d0e80e69a2,65d2b6c8f2eece985d8e374c,65d2b8c5021102d092193342,0.2414,0.2416,1,9,171,139,1,sixeight,,,,,,,,,,,,,,,,,,,,,,,,,,,,,,,,,,,,,,,,,,,,,,,,,,,,,,,,,,,,,,,,,,,,,,,,,,,,,,,,,,,,,,,,,,,,,,,,,,,,,,,,,,,,,,,,,,,,,,,,,,,,,,,,,,,,,,,,,
,,617643296ef9b0d0e80e69a2,2024-02-19_04h12.58.432,kallum_motion_pilot,2023.2.2,Win32,60.24096386,617643296ef9b0d0e80e69a2,65d2b6c8f2eece985d8e374c,65d2b8c5021102d092193342,0.2419,0.2422,1,10,172,115,1,sixeight,,,,,,,,,,,,,,,,,,,,,,,,,,,,,,,,,,,,,,,,,,,,,,,,,,,,,,,,,,,,,,,,,,,,,,,,,,,,,,,,,,,,,,,,,,,,,,,,,,,,,,,,,,,,,,,,,,,,,,,,,,,,,,,,,,,,,,,,,
,,617643296ef9b0d0e80e69a2,2024-02-19_04h12.58.432,kallum_motion_pilot,2023.2.2,Win32,60.24096386,617643296ef9b0d0e80e69a2,65d2b6c8f2eece985d8e374c,65d2b8c5021102d092193342,0.2424,0.2427,1,11,173,158,1,eightsix,,,,,,,,,,,,,,,,,,,,,,,,,,,,,,,,,,,,,,,,,,,,,,,,,,,,,,,,,,,,,,,,,,,,,,,,,,,,,,,,,,,,,,,,,,,,,,,,,,,,,,,,,,,,,,,,,,,,,,,,,,,,,,,,,,,,,,,,,
,,617643296ef9b0d0e80e69a2,2024-02-19_04h12.58.432,kallum_motion_pilot,2023.2.2,Win32,60.24096386,617643296ef9b0d0e80e69a2,65d2b6c8f2eece985d8e374c,65d2b8c5021102d092193342,0.243,0.2432,1,12,174,31,1,fourthree,,,,,,,,,,,,,,,,,,,,,,,,,,,,,,,,,,,,,,,,,,,,,,,,,,,,,,,,,,,,,,,,,,,,,,,,,,,,,,,,,,,,,,,,,,,,,,,,,,,,,,,,,,,,,,,,,,,,,,,,,,,,,,,,,,,,,,,,,
,,617643296ef9b0d0e80e69a2,2024-02-19_04h12.58.432,kallum_motion_pilot,2023.2.2,Win32,60.24096386,617643296ef9b0d0e80e69a2,65d2b6c8f2eece985d8e374c,65d2b8c5021102d092193342,0.2436,0.2438,1,13,175,84,1,sevenfive,,,,,,,,,,,,,,,,,,,,,,,,,,,,,,,,,,,,,,,,,,,,,,,,,,,,,,,,,,,,,,,,,,,,,,,,,,,,,,,,,,,,,,,,,,,,,,,,,,,,,,,,,,,,,,,,,,,,,,,,,,,,,,,,,,,,,,,,,
,,617643296ef9b0d0e80e69a2,2024-02-19_04h12.58.432,kallum_motion_pilot,2023.2.2,Win32,60.24096386,617643296ef9b0d0e80e69a2,65d2b6c8f2eece985d8e374c,65d2b8c5021102d092193342,0.2441,0.2444,1,14,176,90,1,sixfive,,,,,,,,,,,,,,,,,,,,,,,,,,,,,,,,,,,,,,,,,,,,,,,,,,,,,,,,,,,,,,,,,,,,,,,,,,,,,,,,,,,,,,,,,,,,,,,,,,,,,,,,,,,,,,,,,,,,,,,,,,,,,,,,,,,,,,,,,
,,617643296ef9b0d0e80e69a2,2024-02-19_04h12.58.432,kallum_motion_pilot,2023.2.2,Win32,60.24096386,617643296ef9b0d0e80e69a2,65d2b6c8f2eece985d8e374c,65d2b8c5021102d092193342,0.2447,0.2449,1,15,177,144,1,fivesix,,,,,,,,,,,,,,,,,,,,,,,,,,,,,,,,,,,,,,,,,,,,,,,,,,,,,,,,,,,,,,,,,,,,,,,,,,,,,,,,,,,,,,,,,,,,,,,,,,,,,,,,,,,,,,,,,,,,,,,,,,,,,,,,,,,,,,,,,
,,617643296ef9b0d0e80e69a2,2024-02-19_04h12.58.432,kallum_motion_pilot,2023.2.2,Win32,60.24096386,617643296ef9b0d0e80e69a2,65d2b6c8f2eece985d8e374c,65d2b8c5021102d092193342,0.2452,0.2455,1,16,178,38,1,fourtwo,,,,,,,,,,,,,,,,,,,,,,,,,,,,,,,,,,,,,,,,,,,,,,,,,,,,,,,,,,,,,,,,,,,,,,,,,,,,,,,,,,,,,,,,,,,,,,,,,,,,,,,,,,,,,,,,,,,,,,,,,,,,,,,,,,,,,,,,,
,,617643296ef9b0d0e80e69a2,2024-02-19_04h12.58.432,kallum_motion_pilot,2023.2.2,Win32,60.24096386,617643296ef9b0d0e80e69a2,65d2b6c8f2eece985d8e374c,65d2b8c5021102d092193342,0.2458,0.2459,1,17,179,151,1,eightseven,,,,,,,,,,,,,,,,,,,,,,,,,,,,,,,,,,,,,,,,,,,,,,,,,,,,,,,,,,,,,,,,,,,,,,,,,,,,,,,,,,,,,,,,,,,,,,,,,,,,,,,,,,,,,,,,,,,,,,,,,,,,,,,,,,,,,,,,,
,,617643296ef9b0d0e80e69a2,2024-02-19_04h12.58.432,kallum_motion_pilot,2023.2.2,Win32,60.24096386,617643296ef9b0d0e80e69a2,65d2b6c8f2eece985d8e374c,65d2b8c5021102d092193342,0.2461,0.2463,1,18,180,160,1,fivesix,,,,,,,,,,,,,,,,,,,,,,,,,,,,,,,,,,,,,,,,,,,,,,,,,,,,,,,,,,,,,,,,,,,,,,,,,,,,,,,,,,,,,,,,,,,,,,,,,,,,,,,,,,,,,,,,,,,,,,,,,,,,,,,,,,,,,,,,,
,,617643296ef9b0d0e80e69a2,2024-02-19_04h12.58.432,kallum_motion_pilot,2023.2.2,Win32,60.24096386,617643296ef9b0d0e80e69a2,65d2b6c8f2eece985d8e374c,65d2b8c5021102d092193342,0.2466,0.2468,1,19,181,118,1,eightsix,,,,,,,,,,,,,,,,,,,,,,,,,,,,,,,,,,,,,,,,,,,,,,,,,,,,,,,,,,,,,,,,,,,,,,,,,,,,,,,,,,,,,,,,,,,,,,,,,,,,,,,,,,,,,,,,,,,,,,,,,,,,,,,,,,,,,,,,,
,,617643296ef9b0d0e80e69a2,2024-02-19_04h12.58.432,kallum_motion_pilot,2023.2.2,Win32,60.24096386,617643296ef9b0d0e80e69a2,65d2b6c8f2eece985d8e374c,65d2b8c5021102d092193342,0.247,0.2472,1,20,182,35,1,twofour,,,,,,,,,,,,,,,,,,,,,,,,,,,,,,,,,,,,,,,,,,,,,,,,,,,,,,,,,,,,,,,,,,,,,,,,,,,,,,,,,,,,,,,,,,,,,,,,,,,,,,,,,,,,,,,,,,,,,,,,,,,,,,,,,,,,,,,,,
,,617643296ef9b0d0e80e69a2,2024-02-19_04h12.58.432,kallum_motion_pilot,2023.2.2,Win32,60.24096386,617643296ef9b0d0e80e69a2,65d2b6c8f2eece985d8e374c,65d2b8c5021102d092193342,0.2475,0.2477,1,21,183,40,1,onetwo,,,,,,,,,,,,,,,,,,,,,,,,,,,,,,,,,,,,,,,,,,,,,,,,,,,,,,,,,,,,,,,,,,,,,,,,,,,,,,,,,,,,,,,,,,,,,,,,,,,,,,,,,,,,,,,,,,,,,,,,,,,,,,,,,,,,,,,,,
,,617643296ef9b0d0e80e69a2,2024-02-19_04h12.58.432,kallum_motion_pilot,2023.2.2,Win32,60.24096386,617643296ef9b0d0e80e69a2,65d2b6c8f2eece985d8e374c,65d2b8c5021102d092193342,0.248,0.2482,1,22,184,15,1,fourthree,,,,,,,,,,,,,,,,,,,,,,,,,,,,,,,,,,,,,,,,,,,,,,,,,,,,,,,,,,,,,,,,,,,,,,,,,,,,,,,,,,,,,,,,,,,,,,,,,,,,,,,,,,,,,,,,,,,,,,,,,,,,,,,,,,,,,,,,,
,,617643296ef9b0d0e80e69a2,2024-02-19_04h12.58.432,kallum_motion_pilot,2023.2.2,Win32,60.24096386,617643296ef9b0d0e80e69a2,65d2b6c8f2eece985d8e374c,65d2b8c5021102d092193342,0.2485,0.2487,1,23,185,27,1,twofour,,,,,,,,,,,,,,,,,,,,,,,,,,,,,,,,,,,,,,,,,,,,,,,,,,,,,,,,,,,,,,,,,,,,,,,,,,,,,,,,,,,,,,,,,,,,,,,,,,,,,,,,,,,,,,,,,,,,,,,,,,,,,,,,,,,,,,,,,
,,617643296ef9b0d0e80e69a2,2024-02-19_04h12.58.432,kallum_motion_pilot,2023.2.2,Win32,60.24096386,617643296ef9b0d0e80e69a2,65d2b6c8f2eece985d8e374c,65d2b8c5021102d092193342,0.2505,0.2507,1,24,186,111,1,eightseven,,,,,,,,,,,,,,,,,,,,,,,,,,,,,,,,,,,,,,,,,,,,,,,,,,,,,,,,,,,,,,,,,,,,,,,,,,,,,,,,,,,,,,,,,,,,,,,,,,,,,,,,,,,,,,,,,,,,,,,,,,,,,,,,,,,,,,,,,
,,617643296ef9b0d0e80e69a2,2024-02-19_04h12.58.432,kallum_motion_pilot,2023.2.2,Win32,60.24096386,617643296ef9b0d0e80e69a2,65d2b6c8f2eece985d8e374c,65d2b8c5021102d092193342,0.2509,0.2511,1,25,187,85,1,seveneight,,,,,,,,,,,,,,,,,,,,,,,,,,,,,,,,,,,,,,,,,,,,,,,,,,,,,,,,,,,,,,,,,,,,,,,,,,,,,,,,,,,,,,,,,,,,,,,,,,,,,,,,,,,,,,,,,,,,,,,,,,,,,,,,,,,,,,,,,
,,617643296ef9b0d0e80e69a2,2024-02-19_04h12.58.432,kallum_motion_pilot,2023.2.2,Win32,60.24096386,617643296ef9b0d0e80e69a2,65d2b6c8f2eece985d8e374c,65d2b8c5021102d092193342,0.2514,0.2516,1,26,188,91,1,sixeight,,,,,,,,,,,,,,,,,,,,,,,,,,,,,,,,,,,,,,,,,,,,,,,,,,,,,,,,,,,,,,,,,,,,,,,,,,,,,,,,,,,,,,,,,,,,,,,,,,,,,,,,,,,,,,,,,,,,,,,,,,,,,,,,,,,,,,,,,
,,617643296ef9b0d0e80e69a2,2024-02-19_04h12.58.432,kallum_motion_pilot,2023.2.2,Win32,60.24096386,617643296ef9b0d0e80e69a2,65d2b6c8f2eece985d8e374c,65d2b8c5021102d092193342,0.2518,0.252,1,27,189,5,1,threefour,,,,,,,,,,,,,,,,,,,,,,,,,,,,,,,,,,,,,,,,,,,,,,,,,,,,,,,,,,,,,,,,,,,,,,,,,,,,,,,,,,,,,,,,,,,,,,,,,,,,,,,,,,,,,,,,,,,,,,,,,,,,,,,,,,,,,,,,,
,,617643296ef9b0d0e80e69a2,2024-02-19_04h12.58.432,kallum_motion_pilot,2023.2.2,Win32,60.24096386,617643296ef9b0d0e80e69a2,65d2b6c8f2eece985d8e374c,65d2b8c5021102d092193342,0.2522,0.2524,1,28,190,54,1,fourtwo,,,,,,,,,,,,,,,,,,,,,,,,,,,,,,,,,,,,,,,,,,,,,,,,,,,,,,,,,,,,,,,,,,,,,,,,,,,,,,,,,,,,,,,,,,,,,,,,,,,,,,,,,,,,,,,,,,,,,,,,,,,,,,,,,,,,,,,,,
,,617643296ef9b0d0e80e69a2,2024-02-19_04h12.58.432,kallum_motion_pilot,2023.2.2,Win32,60.24096386,617643296ef9b0d0e80e69a2,65d2b6c8f2eece985d8e374c,65d2b8c5021102d092193342,0.2526,0.2528,1,29,191,89,1,fiveseven,,,,,,,,,,,,,,,,,,,,,,,,,,,,,,,,,,,,,,,,,,,,,,,,,,,,,,,,,,,,,,,,,,,,,,,,,,,,,,,,,,,,,,,,,,,,,,,,,,,,,,,,,,,,,,,,,,,,,,,,,,,,,,,,,,,,,,,,,
,,617643296ef9b0d0e80e69a2,2024-02-19_04h12.58.432,kallum_motion_pilot,2023.2.2,Win32,60.24096386,617643296ef9b0d0e80e69a2,65d2b6c8f2eece985d8e374c,65d2b8c5021102d092193342,0.253,0.2531,1,30,192,140,1,sevenfive,,,,,,,,,,,,,,,,,,,,,,,,,,,,,,,,,,,,,,,,,,,,,,,,,,,,,,,,,,,,,,,,,,,,,,,,,,,,,,,,,,,,,,,,,,,,,,,,,,,,,,,,,,,,,,,,,,,,,,,,,,,,,,,,,,,,,,,,,
,,617643296ef9b0d0e80e69a2,2024-02-19_04h12.58.432,kallum_motion_pilot,2023.2.2,Win32,60.24096386,617643296ef9b0d0e80e69a2,65d2b6c8f2eece985d8e374c,65d2b8c5021102d092193342,0.2534,0.2535,1,31,193,117,1,seveneight,,,,,,,,,,,,,,,,,,,,,,,,,,,,,,,,,,,,,,,,,,,,,,,,,,,,,,,,,,,,,,,,,,,,,,,,,,,,,,,,,,,,,,,,,,,,,,,,,,,,,,,,,,,,,,,,,,,,,,,,,,,,,,,,,,,,,,,,,
,,617643296ef9b0d0e80e69a2,2024-02-19_04h12.58.432,kallum_motion_pilot,2023.2.2,Win32,60.24096386,617643296ef9b0d0e80e69a2,65d2b6c8f2eece985d8e374c,65d2b8c5021102d092193342,0.2539,0.2541,1,32,194,127,1,eightseven,,,,,,,,,,,,,,,,,,,,,,,,,,,,,,,,,,,,,,,,,,,,,,,,,,,,,,,,,,,,,,,,,,,,,,,,,,,,,,,,,,,,,,,,,,,,,,,,,,,,,,,,,,,,,,,,,,,,,,,,,,,,,,,,,,,,,,,,,
,,617643296ef9b0d0e80e69a2,2024-02-19_04h12.58.432,kallum_motion_pilot,2023.2.2,Win32,60.24096386,617643296ef9b0d0e80e69a2,65d2b6c8f2eece985d8e374c,65d2b8c5021102d092193342,0.2544,0.2545,1,33,195,102,1,eightsix,,,,,,,,,,,,,,,,,,,,,,,,,,,,,,,,,,,,,,,,,,,,,,,,,,,,,,,,,,,,,,,,,,,,,,,,,,,,,,,,,,,,,,,,,,,,,,,,,,,,,,,,,,,,,,,,,,,,,,,,,,,,,,,,,,,,,,,,,
,,617643296ef9b0d0e80e69a2,2024-02-19_04h12.58.432,kallum_motion_pilot,2023.2.2,Win32,60.24096386,617643296ef9b0d0e80e69a2,65d2b6c8f2eece985d8e374c,65d2b8c5021102d092193342,0.2548,0.255,1,34,196,28,1,threeone,,,,,,,,,,,,,,,,,,,,,,,,,,,,,,,,,,,,,,,,,,,,,,,,,,,,,,,,,,,,,,,,,,,,,,,,,,,,,,,,,,,,,,,,,,,,,,,,,,,,,,,,,,,,,,,,,,,,,,,,,,,,,,,,,,,,,,,,,
,,617643296ef9b0d0e80e69a2,2024-02-19_04h12.58.432,kallum_motion_pilot,2023.2.2,Win32,60.24096386,617643296ef9b0d0e80e69a2,65d2b6c8f2eece985d8e374c,65d2b8c5021102d092193342,0.2553,0.2555,1,35,197,99,1,sixeight,,,,,,,,,,,,,,,,,,,,,,,,,,,,,,,,,,,,,,,,,,,,,,,,,,,,,,,,,,,,,,,,,,,,,,,,,,,,,,,,,,,,,,,,,,,,,,,,,,,,,,,,,,,,,,,,,,,,,,,,,,,,,,,,,,,,,,,,,
,,617643296ef9b0d0e80e69a2,2024-02-19_04h12.58.432,kallum_motion_pilot,2023.2.2,Win32,60.24096386,617643296ef9b0d0e80e69a2,65d2b6c8f2eece985d8e374c,65d2b8c5021102d092193342,0.2558,0.256,1,36,198,70,1,fourtwo,,,,,,,,,,,,,,,,,,,,,,,,,,,,,,,,,,,,,,,,,,,,,,,,,,,,,,,,,,,,,,,,,,,,,,,,,,,,,,,,,,,,,,,,,,,,,,,,,,,,,,,,,,,,,,,,,,,,,,,,,,,,,,,,,,,,,,,,,
,,617643296ef9b0d0e80e69a2,2024-02-19_04h12.58.432,kallum_motion_pilot,2023.2.2,Win32,60.24096386,617643296ef9b0d0e80e69a2,65d2b6c8f2eece985d8e374c,65d2b8c5021102d092193342,0.2562,0.2564,1,37,199,18,1,twoone,,,,,,,,,,,,,,,,,,,,,,,,,,,,,,,,,,,,,,,,,,,,,,,,,,,,,,,,,,,,,,,,,,,,,,,,,,,,,,,,,,,,,,,,,,,,,,,,,,,,,,,,,,,,,,,,,,,,,,,,,,,,,,,,,,,,,,,,,
,,617643296ef9b0d0e80e69a2,2024-02-19_04h12.58.432,kallum_motion_pilot,2023.2.2,Win32,60.24096386,617643296ef9b0d0e80e69a2,65d2b6c8f2eece985d8e374c,65d2b8c5021102d092193342,0.2567,0.2569,1,38,200,82,1,sixfive,,,,,,,,,,,,,,,,,,,,,,,,,,,,,,,,,,,,,,,,,,,,,,,,,,,,,,,,,,,,,,,,,,,,,,,,,,,,,,,,,,,,,,,,,,,,,,,,,,,,,,,,,,,,,,,,,,,,,,,,,,,,,,,,,,,,,,,,,
,,617643296ef9b0d0e80e69a2,2024-02-19_04h12.58.432,kallum_motion_pilot,2023.2.2,Win32,60.24096386,617643296ef9b0d0e80e69a2,65d2b6c8f2eece985d8e374c,65d2b8c5021102d092193342,0.257,0.2572,1,39,201,128,1,fivesix,,,,,,,,,,,,,,,,,,,,,,,,,,,,,,,,,,,,,,,,,,,,,,,,,,,,,,,,,,,,,,,,,,,,,,,,,,,,,,,,,,,,,,,,,,,,,,,,,,,,,,,,,,,,,,,,,,,,,,,,,,,,,,,,,,,,,,,,,
,,617643296ef9b0d0e80e69a2,2024-02-19_04h12.58.432,kallum_motion_pilot,2023.2.2,Win32,60.24096386,617643296ef9b0d0e80e69a2,65d2b6c8f2eece985d8e374c,65d2b8c5021102d092193342,0.2575,0.2577,1,40,202,157,1,seveneight,,,,,,,,,,,,,,,,,,,,,,,,,,,,,,,,,,,,,,,,,,,,,,,,,,,,,,,,,,,,,,,,,,,,,,,,,,,,,,,,,,,,,,,,,,,,,,,,,,,,,,,,,,,,,,,,,,,,,,,,,,,,,,,,,,,,,,,,,
,,617643296ef9b0d0e80e69a2,2024-02-19_04h12.58.432,kallum_motion_pilot,2023.2.2,Win32,60.24096386,617643296ef9b0d0e80e69a2,65d2b6c8f2eece985d8e374c,65d2b8c5021102d092193342,0.2578,0.258,1,41,203,17,1,onethree,,,,,,,,,,,,,,,,,,,,,,,,,,,,,,,,,,,,,,,,,,,,,,,,,,,,,,,,,,,,,,,,,,,,,,,,,,,,,,,,,,,,,,,,,,,,,,,,,,,,,,,,,,,,,,,,,,,,,,,,,,,,,,,,,,,,,,,,,
,,617643296ef9b0d0e80e69a2,2024-02-19_04h12.58.432,kallum_motion_pilot,2023.2.2,Win32,60.24096386,617643296ef9b0d0e80e69a2,65d2b6c8f2eece985d8e374c,65d2b8c5021102d092193342,0.2583,0.2584,1,42,204,29,1,threefour,,,,,,,,,,,,,,,,,,,,,,,,,,,,,,,,,,,,,,,,,,,,,,,,,,,,,,,,,,,,,,,,,,,,,,,,,,,,,,,,,,,,,,,,,,,,,,,,,,,,,,,,,,,,,,,,,,,,,,,,,,,,,,,,,,,,,,,,,
,,617643296ef9b0d0e80e69a2,2024-02-19_04h12.58.432,kallum_motion_pilot,2023.2.2,Win32,60.24096386,617643296ef9b0d0e80e69a2,65d2b6c8f2eece985d8e374c,65d2b8c5021102d092193342,0.2587,0.2588,1,43,205,149,1,seveneight,,,,,,,,,,,,,,,,,,,,,,,,,,,,,,,,,,,,,,,,,,,,,,,,,,,,,,,,,,,,,,,,,,,,,,,,,,,,,,,,,,,,,,,,,,,,,,,,,,,,,,,,,,,,,,,,,,,,,,,,,,,,,,,,,,,,,,,,,
,,617643296ef9b0d0e80e69a2,2024-02-19_04h12.58.432,kallum_motion_pilot,2023.2.2,Win32,60.24096386,617643296ef9b0d0e80e69a2,65d2b6c8f2eece985d8e374c,65d2b8c5021102d092193342,0.259,0.2592,1,44,206,93,1,seveneight,,,,,,,,,,,,,,,,,,,,,,,,,,,,,,,,,,,,,,,,,,,,,,,,,,,,,,,,,,,,,,,,,,,,,,,,,,,,,,,,,,,,,,,,,,,,,,,,,,,,,,,,,,,,,,,,,,,,,,,,,,,,,,,,,,,,,,,,,
,,617643296ef9b0d0e80e69a2,2024-02-19_04h12.58.432,kallum_motion_pilot,2023.2.2,Win32,60.24096386,617643296ef9b0d0e80e69a2,65d2b6c8f2eece985d8e374c,65d2b8c5021102d092193342,0.2594,0.2596,1,45,207,152,1,fivesix,,,,,,,,,,,,,,,,,,,,,,,,,,,,,,,,,,,,,,,,,,,,,,,,,,,,,,,,,,,,,,,,,,,,,,,,,,,,,,,,,,,,,,,,,,,,,,,,,,,,,,,,,,,,,,,,,,,,,,,,,,,,,,,,,,,,,,,,,
,,617643296ef9b0d0e80e69a2,2024-02-19_04h12.58.432,kallum_motion_pilot,2023.2.2,Win32,60.24096386,617643296ef9b0d0e80e69a2,65d2b6c8f2eece985d8e374c,65d2b8c5021102d092193342,0.2598,0.26,1,46,208,36,1,threeone,,,,,,,,,,,,,,,,,,,,,,,,,,,,,,,,,,,,,,,,,,,,,,,,,,,,,,,,,,,,,,,,,,,,,,,,,,,,,,,,,,,,,,,,,,,,,,,,,,,,,,,,,,,,,,,,,,,,,,,,,,,,,,,,,,,,,,,,,
,,617643296ef9b0d0e80e69a2,2024-02-19_04h12.58.432,kallum_motion_pilot,2023.2.2,Win32,60.24096386,617643296ef9b0d0e80e69a2,65d2b6c8f2eece985d8e374c,65d2b8c5021102d092193342,0.2602,0.2604,1,47,209,39,1,fourthree,,,,,,,,,,,,,,,,,,,,,,,,,,,,,,,,,,,,,,,,,,,,,,,,,,,,,,,,,,,,,,,,,,,,,,,,,,,,,,,,,,,,,,,,,,,,,,,,,,,,,,,,,,,,,,,,,,,,,,,,,,,,,,,,,,,,,,,,,
,,617643296ef9b0d0e80e69a2,2024-02-19_04h12.58.432,kallum_motion_pilot,2023.2.2,Win32,60.24096386,617643296ef9b0d0e80e69a2,65d2b6c8f2eece985d8e374c,65d2b8c5021102d092193342,0.2606,0.2607,1,48,210,113,1,fiveseven,,,,,,,,,,,,,,,,,,,,,,,,,,,,,,,,,,,,,,,,,,,,,,,,,,,,,,,,,,,,,,,,,,,,,,,,,,,,,,,,,,,,,,,,,,,,,,,,,,,,,,,,,,,,,,,,,,,,,,,,,,,,,,,,,,,,,,,,,
,,617643296ef9b0d0e80e69a2,2024-02-19_04h12.58.432,kallum_motion_pilot,2023.2.2,Win32,60.24096386,617643296ef9b0d0e80e69a2,65d2b6c8f2eece985d8e374c,65d2b8c5021102d092193342,0.261,0.2611,1,49,211,0,1,onetwo,,,,,,,,,,,,,,,,,,,,,,,,,,,,,,,,,,,,,,,,,,,,,,,,,,,,,,,,,,,,,,,,,,,,,,,,,,,,,,,,,,,,,,,,,,,,,,,,,,,,,,,,,,,,,,,,,,,,,,,,,,,,,,,,,,,,,,,,,
,,617643296ef9b0d0e80e69a2,2024-02-19_04h12.58.432,kallum_motion_pilot,2023.2.2,Win32,60.24096386,617643296ef9b0d0e80e69a2,65d2b6c8f2eece985d8e374c,65d2b8c5021102d092193342,0.2614,0.2615,1,50,212,123,1,sixeight,,,,,,,,,,,,,,,,,,,,,,,,,,,,,,,,,,,,,,,,,,,,,,,,,,,,,,,,,,,,,,,,,,,,,,,,,,,,,,,,,,,,,,,,,,,,,,,,,,,,,,,,,,,,,,,,,,,,,,,,,,,,,,,,,,,,,,,,,
,,617643296ef9b0d0e80e69a2,2024-02-19_04h12.58.432,kallum_motion_pilot,2023.2.2,Win32,60.24096386,617643296ef9b0d0e80e69a2,65d2b6c8f2eece985d8e374c,65d2b8c5021102d092193342,0.2618,0.2619,1,51,213,126,1,eightsix,,,,,,,,,,,,,,,,,,,,,,,,,,,,,,,,,,,,,,,,,,,,,,,,,,,,,,,,,,,,,,,,,,,,,,,,,,,,,,,,,,,,,,,,,,,,,,,,,,,,,,,,,,,,,,,,,,,,,,,,,,,,,,,,,,,,,,,,,
,,617643296ef9b0d0e80e69a2,2024-02-19_04h12.58.432,kallum_motion_pilot,2023.2.2,Win32,60.24096386,617643296ef9b0d0e80e69a2,65d2b6c8f2eece985d8e374c,65d2b8c5021102d092193342,0.2622,0.2623,1,52,214,22,1,fourtwo,,,,,,,,,,,,,,,,,,,,,,,,,,,,,,,,,,,,,,,,,,,,,,,,,,,,,,,,,,,,,,,,,,,,,,,,,,,,,,,,,,,,,,,,,,,,,,,,,,,,,,,,,,,,,,,,,,,,,,,,,,,,,,,,,,,,,,,,,
,,617643296ef9b0d0e80e69a2,2024-02-19_04h12.58.432,kallum_motion_pilot,2023.2.2,Win32,60.24096386,617643296ef9b0d0e80e69a2,65d2b6c8f2eece985d8e374c,65d2b8c5021102d092193342,0.2625,0.2627,1,53,215,42,1,twoone,,,,,,,,,,,,,,,,,,,,,,,,,,,,,,,,,,,,,,,,,,,,,,,,,,,,,,,,,,,,,,,,,,,,,,,,,,,,,,,,,,,,,,,,,,,,,,,,,,,,,,,,,,,,,,,,,,,,,,,,,,,,,,,,,,,,,,,,,
,,617643296ef9b0d0e80e69a2,2024-02-19_04h12.58.432,kallum_motion_pilot,2023.2.2,Win32,60.24096386,617643296ef9b0d0e80e69a2,65d2b6c8f2eece985d8e374c,65d2b8c5021102d092193342,0.263,0.2631,1,54,216,20,1,threeone,,,,,,,,,,,,,,,,,,,,,,,,,,,,,,,,,,,,,,,,,,,,,,,,,,,,,,,,,,,,,,,,,,,,,,,,,,,,,,,,,,,,,,,,,,,,,,,,,,,,,,,,,,,,,,,,,,,,,,,,,,,,,,,,,,,,,,,,,
,,617643296ef9b0d0e80e69a2,2024-02-19_04h12.58.432,kallum_motion_pilot,2023.2.2,Win32,60.24096386,617643296ef9b0d0e80e69a2,65d2b6c8f2eece985d8e374c,65d2b8c5021102d092193342,0.2633,0.2635,1,55,217,131,1,sixeight,,,,,,,,,,,,,,,,,,,,,,,,,,,,,,,,,,,,,,,,,,,,,,,,,,,,,,,,,,,,,,,,,,,,,,,,,,,,,,,,,,,,,,,,,,,,,,,,,,,,,,,,,,,,,,,,,,,,,,,,,,,,,,,,,,,,,,,,,
,,617643296ef9b0d0e80e69a2,2024-02-19_04h12.58.432,kallum_motion_pilot,2023.2.2,Win32,60.24096386,617643296ef9b0d0e80e69a2,65d2b6c8f2eece985d8e374c,65d2b8c5021102d092193342,0.2638,0.264,1,56,218,45,1,threefour,,,,,,,,,,,,,,,,,,,,,,,,,,,,,,,,,,,,,,,,,,,,,,,,,,,,,,,,,,,,,,,,,,,,,,,,,,,,,,,,,,,,,,,,,,,,,,,,,,,,,,,,,,,,,,,,,,,,,,,,,,,,,,,,,,,,,,,,,
,,617643296ef9b0d0e80e69a2,2024-02-19_04h12.58.432,kallum_motion_pilot,2023.2.2,Win32,60.24096386,617643296ef9b0d0e80e69a2,65d2b6c8f2eece985d8e374c,65d2b8c5021102d092193342,0.2641,0.2643,1,57,219,153,1,fiveseven,,,,,,,,,,,,,,,,,,,,,,,,,,,,,,,,,,,,,,,,,,,,,,,,,,,,,,,,,,,,,,,,,,,,,,,,,,,,,,,,,,,,,,,,,,,,,,,,,,,,,,,,,,,,,,,,,,,,,,,,,,,,,,,,,,,,,,,,,
,,617643296ef9b0d0e80e69a2,2024-02-19_04h12.58.432,kallum_motion_pilot,2023.2.2,Win32,60.24096386,617643296ef9b0d0e80e69a2,65d2b6c8f2eece985d8e374c,65d2b8c5021102d092193342,0.2646,0.2648,1,58,220,55,1,fourthree,,,,,,,,,,,,,,,,,,,,,,,,,,,,,,,,,,,,,,,,,,,,,,,,,,,,,,,,,,,,,,,,,,,,,,,,,,,,,,,,,,,,,,,,,,,,,,,,,,,,,,,,,,,,,,,,,,,,,,,,,,,,,,,,,,,,,,,,,
,,617643296ef9b0d0e80e69a2,2024-02-19_04h12.58.432,kallum_motion_pilot,2023.2.2,Win32,60.24096386,617643296ef9b0d0e80e69a2,65d2b6c8f2eece985d8e374c,65d2b8c5021102d092193342,0.2652,0.2654,1,59,221,145,1,fiveseven,,,,,,,,,,,,,,,,,,,,,,,,,,,,,,,,,,,,,,,,,,,,,,,,,,,,,,,,,,,,,,,,,,,,,,,,,,,,,,,,,,,,,,,,,,,,,,,,,,,,,,,,,,,,,,,,,,,,,,,,,,,,,,,,,,,,,,,,,
,,617643296ef9b0d0e80e69a2,2024-02-19_04h12.58.432,kallum_motion_pilot,2023.2.2,Win32,60.24096386,617643296ef9b0d0e80e69a2,65d2b6c8f2eece985d8e374c,65d2b8c5021102d092193342,0.2663,0.2666,1,60,222,125,1,seveneight,,,,,,,,,,,,,,,,,,,,,,,,,,,,,,,,,,,,,,,,,,,,,,,,,,,,,,,,,,,,,,,,,,,,,,,,,,,,,,,,,,,,,,,,,,,,,,,,,,,,,,,,,,,,,,,,,,,,,,,,,,,,,,,,,,,,,,,,,
,,617643296ef9b0d0e80e69a2,2024-02-19_04h12.58.432,kallum_motion_pilot,2023.2.2,Win32,60.24096386,617643296ef9b0d0e80e69a2,65d2b6c8f2eece985d8e374c,65d2b8c5021102d092193342,0.267,0.2673,1,61,223,62,1,fourtwo,,,,,,,,,,,,,,,,,,,,,,,,,,,,,,,,,,,,,,,,,,,,,,,,,,,,,,,,,,,,,,,,,,,,,,,,,,,,,,,,,,,,,,,,,,,,,,,,,,,,,,,,,,,,,,,,,,,,,,,,,,,,,,,,,,,,,,,,,
,,617643296ef9b0d0e80e69a2,2024-02-19_04h12.58.432,kallum_motion_pilot,2023.2.2,Win32,60.24096386,617643296ef9b0d0e80e69a2,65d2b6c8f2eece985d8e374c,65d2b8c5021102d092193342,0.2677,0.268,1,62,224,3,1,twofour,,,,,,,,,,,,,,,,,,,,,,,,,,,,,,,,,,,,,,,,,,,,,,,,,,,,,,,,,,,,,,,,,,,,,,,,,,,,,,,,,,,,,,,,,,,,,,,,,,,,,,,,,,,,,,,,,,,,,,,,,,,,,,,,,,,,,,,,,
,,617643296ef9b0d0e80e69a2,2024-02-19_04h12.58.432,kallum_motion_pilot,2023.2.2,Win32,60.24096386,617643296ef9b0d0e80e69a2,65d2b6c8f2eece985d8e374c,65d2b8c5021102d092193342,0.2686,0.2688,1,63,225,23,1,fourthree,,,,,,,,,,,,,,,,,,,,,,,,,,,,,,,,,,,,,,,,,,,,,,,,,,,,,,,,,,,,,,,,,,,,,,,,,,,,,,,,,,,,,,,,,,,,,,,,,,,,,,,,,,,,,,,,,,,,,,,,,,,,,,,,,,,,,,,,,
,,617643296ef9b0d0e80e69a2,2024-02-19_04h12.58.432,kallum_motion_pilot,2023.2.2,Win32,60.24096386,617643296ef9b0d0e80e69a2,65d2b6c8f2eece985d8e374c,65d2b8c5021102d092193342,0.2693,0.2695,1,64,226,9,1,onethree,,,,,,,,,,,,,,,,,,,,,,,,,,,,,,,,,,,,,,,,,,,,,,,,,,,,,,,,,,,,,,,,,,,,,,,,,,,,,,,,,,,,,,,,,,,,,,,,,,,,,,,,,,,,,,,,,,,,,,,,,,,,,,,,,,,,,,,,,
,,617643296ef9b0d0e80e69a2,2024-02-19_04h12.58.432,kallum_motion_pilot,2023.2.2,Win32,60.24096386,617643296ef9b0d0e80e69a2,65d2b6c8f2eece985d8e374c,65d2b8c5021102d092193342,0.2697,0.27,1,65,227,95,1,eightseven,,,,,,,,,,,,,,,,,,,,,,,,,,,,,,,,,,,,,,,,,,,,,,,,,,,,,,,,,,,,,,,,,,,,,,,,,,,,,,,,,,,,,,,,,,,,,,,,,,,,,,,,,,,,,,,,,,,,,,,,,,,,,,,,,,,,,,,,,
,,617643296ef9b0d0e80e69a2,2024-02-19_04h12.58.432,kallum_motion_pilot,2023.2.2,Win32,60.24096386,617643296ef9b0d0e80e69a2,65d2b6c8f2eece985d8e374c,65d2b8c5021102d092193342,0.2703,0.2704,1,66,228,57,1,onethree,,,,,,,,,,,,,,,,,,,,,,,,,,,,,,,,,,,,,,,,,,,,,,,,,,,,,,,,,,,,,,,,,,,,,,,,,,,,,,,,,,,,,,,,,,,,,,,,,,,,,,,,,,,,,,,,,,,,,,,,,,,,,,,,,,,,,,,,,
,,617643296ef9b0d0e80e69a2,2024-02-19_04h12.58.432,kallum_motion_pilot,2023.2.2,Win32,60.24096386,617643296ef9b0d0e80e69a2,65d2b6c8f2eece985d8e374c,65d2b8c5021102d092193342,0.2707,0.2708,1,67,229,119,1,eightseven,,,,,,,,,,,,,,,,,,,,,,,,,,,,,,,,,,,,,,,,,,,,,,,,,,,,,,,,,,,,,,,,,,,,,,,,,,,,,,,,,,,,,,,,,,,,,,,,,,,,,,,,,,,,,,,,,,,,,,,,,,,,,,,,,,,,,,,,,
,,617643296ef9b0d0e80e69a2,2024-02-19_04h12.58.432,kallum_motion_pilot,2023.2.2,Win32,60.24096386,617643296ef9b0d0e80e69a2,65d2b6c8f2eece985d8e374c,65d2b8c5021102d092193342,0.2711,0.2713,1,68,230,132,1,sevenfive,,,,,,,,,,,,,,,,,,,,,,,,,,,,,,,,,,,,,,,,,,,,,,,,,,,,,,,,,,,,,,,,,,,,,,,,,,,,,,,,,,,,,,,,,,,,,,,,,,,,,,,,,,,,,,,,,,,,,,,,,,,,,,,,,,,,,,,,,
,,617643296ef9b0d0e80e69a2,2024-02-19_04h12.58.432,kallum_motion_pilot,2023.2.2,Win32,60.24096386,617643296ef9b0d0e80e69a2,65d2b6c8f2eece985d8e374c,65d2b8c5021102d092193342,0.2716,0.2717,1,69,231,159,1,eightseven,,,,,,,,,,,,,,,,,,,,,,,,,,,,,,,,,,,,,,,,,,,,,,,,,,,,,,,,,,,,,,,,,,,,,,,,,,,,,,,,,,,,,,,,,,,,,,,,,,,,,,,,,,,,,,,,,,,,,,,,,,,,,,,,,,,,,,,,,
,,617643296ef9b0d0e80e69a2,2024-02-19_04h12.58.432,kallum_motion_pilot,2023.2.2,Win32,60.24096386,617643296ef9b0d0e80e69a2,65d2b6c8f2eece985d8e374c,65d2b8c5021102d092193342,0.272,0.2722,1,70,232,73,1,onethree,,,,,,,,,,,,,,,,,,,,,,,,,,,,,,,,,,,,,,,,,,,,,,,,,,,,,,,,,,,,,,,,,,,,,,,,,,,,,,,,,,,,,,,,,,,,,,,,,,,,,,,,,,,,,,,,,,,,,,,,,,,,,,,,,,,,,,,,,
,,617643296ef9b0d0e80e69a2,2024-02-19_04h12.58.432,kallum_motion_pilot,2023.2.2,Win32,60.24096386,617643296ef9b0d0e80e69a2,65d2b6c8f2eece985d8e374c,65d2b8c5021102d092193342,0.2724,0.2727,1,71,233,97,1,fiveseven,,,,,,,,,,,,,,,,,,,,,,,,,,,,,,,,,,,,,,,,,,,,,,,,,,,,,,,,,,,,,,,,,,,,,,,,,,,,,,,,,,,,,,,,,,,,,,,,,,,,,,,,,,,,,,,,,,,,,,,,,,,,,,,,,,,,,,,,,
,,617643296ef9b0d0e80e69a2,2024-02-19_04h12.58.432,kallum_motion_pilot,2023.2.2,Win32,60.24096386,617643296ef9b0d0e80e69a2,65d2b6c8f2eece985d8e374c,65d2b8c5021102d092193342,0.273,0.2732,1,72,234,92,1,sevenfive,,,,,,,,,,,,,,,,,,,,,,,,,,,,,,,,,,,,,,,,,,,,,,,,,,,,,,,,,,,,,,,,,,,,,,,,,,,,,,,,,,,,,,,,,,,,,,,,,,,,,,,,,,,,,,,,,,,,,,,,,,,,,,,,,,,,,,,,,
,,617643296ef9b0d0e80e69a2,2024-02-19_04h12.58.432,kallum_motion_pilot,2023.2.2,Win32,60.24096386,617643296ef9b0d0e80e69a2,65d2b6c8f2eece985d8e374c,65d2b8c5021102d092193342,0.2735,0.2736,1,73,235,24,1,onetwo,,,,,,,,,,,,,,,,,,,,,,,,,,,,,,,,,,,,,,,,,,,,,,,,,,,,,,,,,,,,,,,,,,,,,,,,,,,,,,,,,,,,,,,,,,,,,,,,,,,,,,,,,,,,,,,,,,,,,,,,,,,,,,,,,,,,,,,,,
,,617643296ef9b0d0e80e69a2,2024-02-19_04h12.58.432,kallum_motion_pilot,2023.2.2,Win32,60.24096386,617643296ef9b0d0e80e69a2,65d2b6c8f2eece985d8e374c,65d2b8c5021102d092193342,0.2739,0.274,1,74,236,66,1,twoone,,,,,,,,,,,,,,,,,,,,,,,,,,,,,,,,,,,,,,,,,,,,,,,,,,,,,,,,,,,,,,,,,,,,,,,,,,,,,,,,,,,,,,,,,,,,,,,,,,,,,,,,,,,,,,,,,,,,,,,,,,,,,,,,,,,,,,,,,
,,617643296ef9b0d0e80e69a2,2024-02-19_04h12.58.432,kallum_motion_pilot,2023.2.2,Win32,60.24096386,617643296ef9b0d0e80e69a2,65d2b6c8f2eece985d8e374c,65d2b8c5021102d092193342,0.2743,0.2745,1,75,237,47,1,fourthree,,,,,,,,,,,,,,,,,,,,,,,,,,,,,,,,,,,,,,,,,,,,,,,,,,,,,,,,,,,,,,,,,,,,,,,,,,,,,,,,,,,,,,,,,,,,,,,,,,,,,,,,,,,,,,,,,,,,,,,,,,,,,,,,,,,,,,,,,
,,617643296ef9b0d0e80e69a2,2024-02-19_04h12.58.432,kallum_motion_pilot,2023.2.2,Win32,60.24096386,617643296ef9b0d0e80e69a2,65d2b6c8f2eece985d8e374c,65d2b8c5021102d092193342,0.2748,0.2749,1,76,238,86,1,eightsix,,,,,,,,,,,,,,,,,,,,,,,,,,,,,,,,,,,,,,,,,,,,,,,,,,,,,,,,,,,,,,,,,,,,,,,,,,,,,,,,,,,,,,,,,,,,,,,,,,,,,,,,,,,,,,,,,,,,,,,,,,,,,,,,,,,,,,,,,
,,617643296ef9b0d0e80e69a2,2024-02-19_04h12.58.432,kallum_motion_pilot,2023.2.2,Win32,60.24096386,617643296ef9b0d0e80e69a2,65d2b6c8f2eece985d8e374c,65d2b8c5021102d092193342,0.2751,0.2753,1,77,239,6,1,fourtwo,,,,,,,,,,,,,,,,,,,,,,,,,,,,,,,,,,,,,,,,,,,,,,,,,,,,,,,,,,,,,,,,,,,,,,,,,,,,,,,,,,,,,,,,,,,,,,,,,,,,,,,,,,,,,,,,,,,,,,,,,,,,,,,,,,,,,,,,,
,,617643296ef9b0d0e80e69a2,2024-02-19_04h12.58.432,kallum_motion_pilot,2023.2.2,Win32,60.24096386,617643296ef9b0d0e80e69a2,65d2b6c8f2eece985d8e374c,65d2b8c5021102d092193342,0.2756,0.2757,1,78,240,147,1,sixeight,,,,,,,,,,,,,,,,,,,,,,,,,,,,,,,,,,,,,,,,,,,,,,,,,,,,,,,,,,,,,,,,,,,,,,,,,,,,,,,,,,,,,,,,,,,,,,,,,,,,,,,,,,,,,,,,,,,,,,,,,,,,,,,,,,,,,,,,,
,,617643296ef9b0d0e80e69a2,2024-02-19_04h12.58.432,kallum_motion_pilot,2023.2.2,Win32,60.24096386,617643296ef9b0d0e80e69a2,65d2b6c8f2eece985d8e374c,65d2b8c5021102d092193342,0.2758,0.276,1,79,241,12,1,threeone,,,,,,,,,,,,,,,,,,,,,,,,,,,,,,,,,,,,,,,,,,,,,,,,,,,,,,,,,,,,,,,,,,,,,,,,,,,,,,,,,,,,,,,,,,,,,,,,,,,,,,,,,,,,,,,,,,,,,,,,,,,,,,,,,,,,,,,,,
,,617643296ef9b0d0e80e69a2,2024-02-19_04h12.58.432,kallum_motion_pilot,2023.2.2,Win32,60.24096386,617643296ef9b0d0e80e69a2,65d2b6c8f2eece985d8e374c,65d2b8c5021102d092193342,0.2761,0.2763,1,80,242,116,1,sevenfive,,,,,,,,,,,,,,,,,,,,,,,,,,,,,,,,,,,,,,,,,,,,,,,,,,,,,,,,,,,,,,,,,,,,,,,,,,,,,,,,,,,,,,,,,,,,,,,,,,,,,,,,,,,,,,,,,,,,,,,,,,,,,,,,,,,,,,,,,
,,617643296ef9b0d0e80e69a2,2024-02-19_04h12.58.432,kallum_motion_pilot,2023.2.2,Win32,60.24096386,617643296ef9b0d0e80e69a2,65d2b6c8f2eece985d8e374c,65d2b8c5021102d092193342,0.2764,0.2765,1,81,243,106,1,sixfive,,,,,,,,,,,,,,,,,,,,,,,,,,,,,,,,,,,,,,,,,,,,,,,,,,,,,,,,,,,,,,,,,,,,,,,,,,,,,,,,,,,,,,,,,,,,,,,,,,,,,,,,,,,,,,,,,,,,,,,,,,,,,,,,,,,,,,,,,
,,617643296ef9b0d0e80e69a2,2024-02-19_04h12.58.432,kallum_motion_pilot,2023.2.2,Win32,60.24096386,617643296ef9b0d0e80e69a2,65d2b6c8f2eece985d8e374c,65d2b8c5021102d092193342,0.2767,0.2769,1,82,244,146,1,sixfive,,,,,,,,,,,,,,,,,,,,,,,,,,,,,,,,,,,,,,,,,,,,,,,,,,,,,,,,,,,,,,,,,,,,,,,,,,,,,,,,,,,,,,,,,,,,,,,,,,,,,,,,,,,,,,,,,,,,,,,,,,,,,,,,,,,,,,,,,
,,617643296ef9b0d0e80e69a2,2024-02-19_04h12.58.432,kallum_motion_pilot,2023.2.2,Win32,60.24096386,617643296ef9b0d0e80e69a2,65d2b6c8f2eece985d8e374c,65d2b8c5021102d092193342,0.277,0.2771,1,83,245,32,1,onetwo,,,,,,,,,,,,,,,,,,,,,,,,,,,,,,,,,,,,,,,,,,,,,,,,,,,,,,,,,,,,,,,,,,,,,,,,,,,,,,,,,,,,,,,,,,,,,,,,,,,,,,,,,,,,,,,,,,,,,,,,,,,,,,,,,,,,,,,,,
,,617643296ef9b0d0e80e69a2,2024-02-19_04h12.58.432,kallum_motion_pilot,2023.2.2,Win32,60.24096386,617643296ef9b0d0e80e69a2,65d2b6c8f2eece985d8e374c,65d2b8c5021102d092193342,0.2773,0.2773,1,84,246,61,1,threefour,,,,,,,,,,,,,,,,,,,,,,,,,,,,,,,,,,,,,,,,,,,,,,,,,,,,,,,,,,,,,,,,,,,,,,,,,,,,,,,,,,,,,,,,,,,,,,,,,,,,,,,,,,,,,,,,,,,,,,,,,,,,,,,,,,,,,,,,,
,,617643296ef9b0d0e80e69a2,2024-02-19_04h12.58.432,kallum_motion_pilot,2023.2.2,Win32,60.24096386,617643296ef9b0d0e80e69a2,65d2b6c8f2eece985d8e374c,65d2b8c5021102d092193342,0.2775,0.2776,1,85,247,21,1,threefour,,,,,,,,,,,,,,,,,,,,,,,,,,,,,,,,,,,,,,,,,,,,,,,,,,,,,,,,,,,,,,,,,,,,,,,,,,,,,,,,,,,,,,,,,,,,,,,,,,,,,,,,,,,,,,,,,,,,,,,,,,,,,,,,,,,,,,,,,
,,617643296ef9b0d0e80e69a2,2024-02-19_04h12.58.432,kallum_motion_pilot,2023.2.2,Win32,60.24096386,617643296ef9b0d0e80e69a2,65d2b6c8f2eece985d8e374c,65d2b8c5021102d092193342,0.2778,0.2779,1,86,248,143,1,eightseven,,,,,,,,,,,,,,,,,,,,,,,,,,,,,,,,,,,,,,,,,,,,,,,,,,,,,,,,,,,,,,,,,,,,,,,,,,,,,,,,,,,,,,,,,,,,,,,,,,,,,,,,,,,,,,,,,,,,,,,,,,,,,,,,,,,,,,,,,
,,617643296ef9b0d0e80e69a2,2024-02-19_04h12.58.432,kallum_motion_pilot,2023.2.2,Win32,60.24096386,617643296ef9b0d0e80e69a2,65d2b6c8f2eece985d8e374c,65d2b8c5021102d092193342,0.2792,0.2793,1,87,249,133,1,seveneight,,,,,,,,,,,,,,,,,,,,,,,,,,,,,,,,,,,,,,,,,,,,,,,,,,,,,,,,,,,,,,,,,,,,,,,,,,,,,,,,,,,,,,,,,,,,,,,,,,,,,,,,,,,,,,,,,,,,,,,,,,,,,,,,,,,,,,,,,
,,617643296ef9b0d0e80e69a2,2024-02-19_04h12.58.432,kallum_motion_pilot,2023.2.2,Win32,60.24096386,617643296ef9b0d0e80e69a2,65d2b6c8f2eece985d8e374c,65d2b8c5021102d092193342,0.2795,0.2796,1,88,250,150,1,eightsix,,,,,,,,,,,,,,,,,,,,,,,,,,,,,,,,,,,,,,,,,,,,,,,,,,,,,,,,,,,,,,,,,,,,,,,,,,,,,,,,,,,,,,,,,,,,,,,,,,,,,,,,,,,,,,,,,,,,,,,,,,,,,,,,,,,,,,,,,
,,617643296ef9b0d0e80e69a2,2024-02-19_04h12.58.432,kallum_motion_pilot,2023.2.2,Win32,60.24096386,617643296ef9b0d0e80e69a2,65d2b6c8f2eece985d8e374c,65d2b8c5021102d092193342,0.2798,0.2799,1,89,251,68,1,threeone,,,,,,,,,,,,,,,,,,,,,,,,,,,,,,,,,,,,,,,,,,,,,,,,,,,,,,,,,,,,,,,,,,,,,,,,,,,,,,,,,,,,,,,,,,,,,,,,,,,,,,,,,,,,,,,,,,,,,,,,,,,,,,,,,,,,,,,,,
,,617643296ef9b0d0e80e69a2,2024-02-19_04h12.58.432,kallum_motion_pilot,2023.2.2,Win32,60.24096386,617643296ef9b0d0e80e69a2,65d2b6c8f2eece985d8e374c,65d2b8c5021102d092193342,0.28,0.2802,1,90,252,87,1,eightseven,,,,,,,,,,,,,,,,,,,,,,,,,,,,,,,,,,,,,,,,,,,,,,,,,,,,,,,,,,,,,,,,,,,,,,,,,,,,,,,,,,,,,,,,,,,,,,,,,,,,,,,,,,,,,,,,,,,,,,,,,,,,,,,,,,,,,,,,,
,,617643296ef9b0d0e80e69a2,2024-02-19_04h12.58.432,kallum_motion_pilot,2023.2.2,Win32,60.24096386,617643296ef9b0d0e80e69a2,65d2b6c8f2eece985d8e374c,65d2b8c5021102d092193342,0.2803,0.2804,1,91,253,60,1,threeone,,,,,,,,,,,,,,,,,,,,,,,,,,,,,,,,,,,,,,,,,,,,,,,,,,,,,,,,,,,,,,,,,,,,,,,,,,,,,,,,,,,,,,,,,,,,,,,,,,,,,,,,,,,,,,,,,,,,,,,,,,,,,,,,,,,,,,,,,
,,617643296ef9b0d0e80e69a2,2024-02-19_04h12.58.432,kallum_motion_pilot,2023.2.2,Win32,60.24096386,617643296ef9b0d0e80e69a2,65d2b6c8f2eece985d8e374c,65d2b8c5021102d092193342,0.2806,0.2807,1,92,254,56,1,onetwo,,,,,,,,,,,,,,,,,,,,,,,,,,,,,,,,,,,,,,,,,,,,,,,,,,,,,,,,,,,,,,,,,,,,,,,,,,,,,,,,,,,,,,,,,,,,,,,,,,,,,,,,,,,,,,,,,,,,,,,,,,,,,,,,,,,,,,,,,
,,617643296ef9b0d0e80e69a2,2024-02-19_04h12.58.432,kallum_motion_pilot,2023.2.2,Win32,60.24096386,617643296ef9b0d0e80e69a2,65d2b6c8f2eece985d8e374c,65d2b8c5021102d092193342,0.2811,0.2812,1,93,255,30,1,fourtwo,,,,,,,,,,,,,,,,,,,,,,,,,,,,,,,,,,,,,,,,,,,,,,,,,,,,,,,,,,,,,,,,,,,,,,,,,,,,,,,,,,,,,,,,,,,,,,,,,,,,,,,,,,,,,,,,,,,,,,,,,,,,,,,,,,,,,,,,,
,,617643296ef9b0d0e80e69a2,2024-02-19_04h12.58.432,kallum_motion_pilot,2023.2.2,Win32,60.24096386,617643296ef9b0d0e80e69a2,65d2b6c8f2eece985d8e374c,65d2b8c5021102d092193342,0.2813,0.2815,1,94,256,51,1,twofour,,,,,,,,,,,,,,,,,,,,,,,,,,,,,,,,,,,,,,,,,,,,,,,,,,,,,,,,,,,,,,,,,,,,,,,,,,,,,,,,,,,,,,,,,,,,,,,,,,,,,,,,,,,,,,,,,,,,,,,,,,,,,,,,,,,,,,,,,
,,617643296ef9b0d0e80e69a2,2024-02-19_04h12.58.432,kallum_motion_pilot,2023.2.2,Win32,60.24096386,617643296ef9b0d0e80e69a2,65d2b6c8f2eece985d8e374c,65d2b8c5021102d092193342,0.2816,0.2817,1,95,257,8,1,onetwo,,,,,,,,,,,,,,,,,,,,,,,,,,,,,,,,,,,,,,,,,,,,,,,,,,,,,,,,,,,,,,,,,,,,,,,,,,,,,,,,,,,,,,,,,,,,,,,,,,,,,,,,,,,,,,,,,,,,,,,,,,,,,,,,,,,,,,,,,
,,617643296ef9b0d0e80e69a2,2024-02-19_04h12.58.432,kallum_motion_pilot,2023.2.2,Win32,60.24096386,617643296ef9b0d0e80e69a2,65d2b6c8f2eece985d8e374c,65d2b8c5021102d092193342,0.2818,0.282,1,96,258,78,1,fourtwo,,,,,,,,,,,,,,,,,,,,,,,,,,,,,,,,,,,,,,,,,,,,,,,,,,,,,,,,,,,,,,,,,,,,,,,,,,,,,,,,,,,,,,,,,,,,,,,,,,,,,,,,,,,,,,,,,,,,,,,,,,,,,,,,,,,,,,,,,
,,617643296ef9b0d0e80e69a2,2024-02-19_04h12.58.432,kallum_motion_pilot,2023.2.2,Win32,60.24096386,617643296ef9b0d0e80e69a2,65d2b6c8f2eece985d8e374c,65d2b8c5021102d092193342,0.2821,0.2826,1,97,259,77,1,threefour,,,,,,,,,,,,,,,,,,,,,,,,,,,,,,,,,,,,,,,,,,,,,,,,,,,,,,,,,,,,,,,,,,,,,,,,,,,,,,,,,,,,,,,,,,,,,,,,,,,,,,,,,,,,,,,,,,,,,,,,,,,,,,,,,,,,,,,,,
,,617643296ef9b0d0e80e69a2,2024-02-19_04h12.58.432,kallum_motion_pilot,2023.2.2,Win32,60.24096386,617643296ef9b0d0e80e69a2,65d2b6c8f2eece985d8e374c,65d2b8c5021102d092193342,0.2828,0.283,1,98,260,156,1,sevenfive,,,,,,,,,,,,,,,,,,,,,,,,,,,,,,,,,,,,,,,,,,,,,,,,,,,,,,,,,,,,,,,,,,,,,,,,,,,,,,,,,,,,,,,,,,,,,,,,,,,,,,,,,,,,,,,,,,,,,,,,,,,,,,,,,,,,,,,,,
,,617643296ef9b0d0e80e69a2,2024-02-19_04h12.58.432,kallum_motion_pilot,2023.2.2,Win32,60.24096386,617643296ef9b0d0e80e69a2,65d2b6c8f2eece985d8e374c,65d2b8c5021102d092193342,0.2832,0.2833,1,99,261,1,1,onethree,,,,,,,,,,,,,,,,,,,,,,,,,,,,,,,,,,,,,,,,,,,,,,,,,,,,,,,,,,,,,,,,,,,,,,,,,,,,,,,,,,,,,,,,,,,,,,,,,,,,,,,,,,,,,,,,,,,,,,,,,,,,,,,,,,,,,,,,,
,,617643296ef9b0d0e80e69a2,2024-02-19_04h12.58.432,kallum_motion_pilot,2023.2.2,Win32,60.24096386,617643296ef9b0d0e80e69a2,65d2b6c8f2eece985d8e374c,65d2b8c5021102d092193342,0.2834,0.2835,1,100,262,53,1,threefour,,,,,,,,,,,,,,,,,,,,,,,,,,,,,,,,,,,,,,,,,,,,,,,,,,,,,,,,,,,,,,,,,,,,,,,,,,,,,,,,,,,,,,,,,,,,,,,,,,,,,,,,,,,,,,,,,,,,,,,,,,,,,,,,,,,,,,,,,
,,617643296ef9b0d0e80e69a2,2024-02-19_04h12.58.432,kallum_motion_pilot,2023.2.2,Win32,60.24096386,617643296ef9b0d0e80e69a2,65d2b6c8f2eece985d8e374c,65d2b8c5021102d092193342,0.2837,0.2839,1,101,263,81,1,fiveseven,,,,,,,,,,,,,,,,,,,,,,,,,,,,,,,,,,,,,,,,,,,,,,,,,,,,,,,,,,,,,,,,,,,,,,,,,,,,,,,,,,,,,,,,,,,,,,,,,,,,,,,,,,,,,,,,,,,,,,,,,,,,,,,,,,,,,,,,,
,,617643296ef9b0d0e80e69a2,2024-02-19_04h12.58.432,kallum_motion_pilot,2023.2.2,Win32,60.24096386,617643296ef9b0d0e80e69a2,65d2b6c8f2eece985d8e374c,65d2b8c5021102d092193342,0.2842,0.2845,1,102,264,148,1,sevenfive,,,,,,,,,,,,,,,,,,,,,,,,,,,,,,,,,,,,,,,,,,,,,,,,,,,,,,,,,,,,,,,,,,,,,,,,,,,,,,,,,,,,,,,,,,,,,,,,,,,,,,,,,,,,,,,,,,,,,,,,,,,,,,,,,,,,,,,,,
,,617643296ef9b0d0e80e69a2,2024-02-19_04h12.58.432,kallum_motion_pilot,2023.2.2,Win32,60.24096386,617643296ef9b0d0e80e69a2,65d2b6c8f2eece985d8e374c,65d2b8c5021102d092193342,0.2848,0.285,1,103,265,10,1,twoone,,,,,,,,,,,,,,,,,,,,,,,,,,,,,,,,,,,,,,,,,,,,,,,,,,,,,,,,,,,,,,,,,,,,,,,,,,,,,,,,,,,,,,,,,,,,,,,,,,,,,,,,,,,,,,,,,,,,,,,,,,,,,,,,,,,,,,,,,
,,617643296ef9b0d0e80e69a2,2024-02-19_04h12.58.432,kallum_motion_pilot,2023.2.2,Win32,60.24096386,617643296ef9b0d0e80e69a2,65d2b6c8f2eece985d8e374c,65d2b8c5021102d092193342,0.2852,0.2853,1,104,266,79,1,eightseven,,,,,,,,,,,,,,,,,,,,,,,,,,,,,,,,,,,,,,,,,,,,,,,,,,,,,,,,,,,,,,,,,,,,,,,,,,,,,,,,,,,,,,,,,,,,,,,,,,,,,,,,,,,,,,,,,,,,,,,,,,,,,,,,,,,,,,,,,
,,617643296ef9b0d0e80e69a2,2024-02-19_04h12.58.432,kallum_motion_pilot,2023.2.2,Win32,60.24096386,617643296ef9b0d0e80e69a2,65d2b6c8f2eece985d8e374c,65d2b8c5021102d092193342,0.2855,0.2856,1,105,267,83,1,sixeight,,,,,,,,,,,,,,,,,,,,,,,,,,,,,,,,,,,,,,,,,,,,,,,,,,,,,,,,,,,,,,,,,,,,,,,,,,,,,,,,,,,,,,,,,,,,,,,,,,,,,,,,,,,,,,,,,,,,,,,,,,,,,,,,,,,,,,,,,
,,617643296ef9b0d0e80e69a2,2024-02-19_04h12.58.432,kallum_motion_pilot,2023.2.2,Win32,60.24096386,617643296ef9b0d0e80e69a2,65d2b6c8f2eece985d8e374c,65d2b8c5021102d092193342,0.2858,0.2859,1,106,268,25,1,onethree,,,,,,,,,,,,,,,,,,,,,,,,,,,,,,,,,,,,,,,,,,,,,,,,,,,,,,,,,,,,,,,,,,,,,,,,,,,,,,,,,,,,,,,,,,,,,,,,,,,,,,,,,,,,,,,,,,,,,,,,,,,,,,,,,,,,,,,,,
,,617643296ef9b0d0e80e69a2,2024-02-19_04h12.58.432,kallum_motion_pilot,2023.2.2,Win32,60.24096386,617643296ef9b0d0e80e69a2,65d2b6c8f2eece985d8e374c,65d2b8c5021102d092193342,0.2861,0.2862,1,107,269,114,1,sixfive,,,,,,,,,,,,,,,,,,,,,,,,,,,,,,,,,,,,,,,,,,,,,,,,,,,,,,,,,,,,,,,,,,,,,,,,,,,,,,,,,,,,,,,,,,,,,,,,,,,,,,,,,,,,,,,,,,,,,,,,,,,,,,,,,,,,,,,,,
,,617643296ef9b0d0e80e69a2,2024-02-19_04h12.58.432,kallum_motion_pilot,2023.2.2,Win32,60.24096386,617643296ef9b0d0e80e69a2,65d2b6c8f2eece985d8e374c,65d2b8c5021102d092193342,0.2864,0.2865,1,108,270,130,1,sixfive,,,,,,,,,,,,,,,,,,,,,,,,,,,,,,,,,,,,,,,,,,,,,,,,,,,,,,,,,,,,,,,,,,,,,,,,,,,,,,,,,,,,,,,,,,,,,,,,,,,,,,,,,,,,,,,,,,,,,,,,,,,,,,,,,,,,,,,,,
,,617643296ef9b0d0e80e69a2,2024-02-19_04h12.58.432,kallum_motion_pilot,2023.2.2,Win32,60.24096386,617643296ef9b0d0e80e69a2,65d2b6c8f2eece985d8e374c,65d2b8c5021102d092193342,0.2867,0.2868,1,109,271,98,1,sixfive,,,,,,,,,,,,,,,,,,,,,,,,,,,,,,,,,,,,,,,,,,,,,,,,,,,,,,,,,,,,,,,,,,,,,,,,,,,,,,,,,,,,,,,,,,,,,,,,,,,,,,,,,,,,,,,,,,,,,,,,,,,,,,,,,,,,,,,,,
,,617643296ef9b0d0e80e69a2,2024-02-19_04h12.58.432,kallum_motion_pilot,2023.2.2,Win32,60.24096386,617643296ef9b0d0e80e69a2,65d2b6c8f2eece985d8e374c,65d2b8c5021102d092193342,0.2869,0.2872,1,110,272,105,1,fiveseven,,,,,,,,,,,,,,,,,,,,,,,,,,,,,,,,,,,,,,,,,,,,,,,,,,,,,,,,,,,,,,,,,,,,,,,,,,,,,,,,,,,,,,,,,,,,,,,,,,,,,,,,,,,,,,,,,,,,,,,,,,,,,,,,,,,,,,,,,
,,617643296ef9b0d0e80e69a2,2024-02-19_04h12.58.432,kallum_motion_pilot,2023.2.2,Win32,60.24096386,617643296ef9b0d0e80e69a2,65d2b6c8f2eece985d8e374c,65d2b8c5021102d092193342,0.2872,0.2874,1,111,273,63,1,fourthree,,,,,,,,,,,,,,,,,,,,,,,,,,,,,,,,,,,,,,,,,,,,,,,,,,,,,,,,,,,,,,,,,,,,,,,,,,,,,,,,,,,,,,,,,,,,,,,,,,,,,,,,,,,,,,,,,,,,,,,,,,,,,,,,,,,,,,,,,
,,617643296ef9b0d0e80e69a2,2024-02-19_04h12.58.432,kallum_motion_pilot,2023.2.2,Win32,60.24096386,617643296ef9b0d0e80e69a2,65d2b6c8f2eece985d8e374c,65d2b8c5021102d092193342,0.2875,0.2877,1,112,274,112,1,fivesix,,,,,,,,,,,,,,,,,,,,,,,,,,,,,,,,,,,,,,,,,,,,,,,,,,,,,,,,,,,,,,,,,,,,,,,,,,,,,,,,,,,,,,,,,,,,,,,,,,,,,,,,,,,,,,,,,,,,,,,,,,,,,,,,,,,,,,,,,
,,617643296ef9b0d0e80e69a2,2024-02-19_04h12.58.432,kallum_motion_pilot,2023.2.2,Win32,60.24096386,617643296ef9b0d0e80e69a2,65d2b6c8f2eece985d8e374c,65d2b8c5021102d092193342,0.2879,0.288,1,113,275,26,1,twoone,,,,,,,,,,,,,,,,,,,,,,,,,,,,,,,,,,,,,,,,,,,,,,,,,,,,,,,,,,,,,,,,,,,,,,,,,,,,,,,,,,,,,,,,,,,,,,,,,,,,,,,,,,,,,,,,,,,,,,,,,,,,,,,,,,,,,,,,,
,,617643296ef9b0d0e80e69a2,2024-02-19_04h12.58.432,kallum_motion_pilot,2023.2.2,Win32,60.24096386,617643296ef9b0d0e80e69a2,65d2b6c8f2eece985d8e374c,65d2b8c5021102d092193342,0.2881,0.2883,1,114,276,96,1,fivesix,,,,,,,,,,,,,,,,,,,,,,,,,,,,,,,,,,,,,,,,,,,,,,,,,,,,,,,,,,,,,,,,,,,,,,,,,,,,,,,,,,,,,,,,,,,,,,,,,,,,,,,,,,,,,,,,,,,,,,,,,,,,,,,,,,,,,,,,,
,,617643296ef9b0d0e80e69a2,2024-02-19_04h12.58.432,kallum_motion_pilot,2023.2.2,Win32,60.24096386,617643296ef9b0d0e80e69a2,65d2b6c8f2eece985d8e374c,65d2b8c5021102d092193342,0.2884,0.2886,1,115,277,48,1,onetwo,,,,,,,,,,,,,,,,,,,,,,,,,,,,,,,,,,,,,,,,,,,,,,,,,,,,,,,,,,,,,,,,,,,,,,,,,,,,,,,,,,,,,,,,,,,,,,,,,,,,,,,,,,,,,,,,,,,,,,,,,,,,,,,,,,,,,,,,,
