startup.started,startup.stopped,Prolific ID*,date,expName,psychopyVersion,OS,frameRate,participant,study_id,session,stimpositions.started,stimpositions.stopped,hardcoded_stimulus_positions.thisRepN,hardcoded_stimulus_positions.thisTrialN,hardcoded_stimulus_positions.thisN,hardcoded_stimulus_positions.thisIndex,hardcoded_stimulus_positions.ran,StimulusPos,stimorientation.started,stimorientation.stopped,prac_stimorientation_import_loop.thisRepN,prac_stimorientation_import_loop.thisTrialN,prac_stimorientation_import_loop.thisN,prac_stimorientation_import_loop.thisIndex,prac_stimorientation_import_loop.ran,Stimorientation,welcome_instr.started,welcome_instr.stopped,key_resp.keys,key_resp.rt,key_resp.duration,response_steppedout_1.started,response_steppedout_1.stopped,key_resp_20.keys,key_resp_20.rt,key_resp_20.duration,response_steppedout_2.started,response_steppedout_2.stopped,key_resp_19.keys,key_resp_19.rt,key_resp_19.duration,stim_response_instr.started,stim_response_instr.stopped,key_resp_15.keys,key_resp_15.rt,key_resp_15.duration,direction_instr_2.started,direction_instr_2.stopped,key_resp_9.keys,key_resp_9.rt,key_resp_9.duration,instr_prac.started,instr_prac.stopped,key_resp_10.keys,key_resp_10.rt,key_resp_10.duration,Stim1_display_prac.started,Stim1_display_prac.stopped,Ecc,Circle1_ori,Circle2_ori,response_prac.started,similarity,response_time,response_prac.stopped,mouse_5.x,mouse_5.y,mouse_5.leftButton,mouse_5.midButton,mouse_5.rightButton,mouse_5.clicked_name,responseprac_feedback.started,responseprac_feedback.stopped,summary2_prac.started,summary2_prac.stopped,mouse_6.x,mouse_6.y,mouse_6.leftButton,mouse_6.midButton,mouse_6.rightButton,mouse_6.clicked_name,duringprac.thisRepN,duringprac.thisTrialN,duringprac.thisN,duringprac.thisIndex,duringprac.ran,begin.started,begin.stopped,key_resp_22.keys,key_resp_22.rt,key_resp_22.duration,Stim1_display.started,Stim1_display.stopped,circle1_ori,circle2_ori,circle1_SF,circle2_SF,response.started,response.stopped,mouse.x,mouse.y,mouse.leftButton,mouse.midButton,mouse.rightButton,mouse.clicked_name,trialnumber,double_pass.thisRepN,double_pass.thisTrialN,double_pass.thisN,double_pass.thisIndex,double_pass.ran,double_pass.order,main_trial.thisRepN,main_trial.thisTrialN,main_trial.thisN,main_trial.thisIndex,main_trial.ran,main_trial.order,Trial_Counter,Catch,Frequencies,response_2.started,response_2.stopped,mouse_2.x,mouse_2.y,mouse_2.leftButton,mouse_2.midButton,mouse_2.rightButton,mouse_2.clicked_name,special_trial.started,special_trial.stopped,catch_1.started,catch_1.stopped,mouse_3.x,mouse_3.y,mouse_3.leftButton,mouse_3.midButton,mouse_3.rightButton,catchresponse,catchnumber,response_time_catch,response_sum.started,response_sum.stopped,mouse_11.x,mouse_11.y,mouse_11.leftButton,mouse_11.midButton,mouse_11.rightButton,flip_presentation_sequence_for_double_pass.started,flip_presentation_sequence_for_double_pass.stopped,goodbye.started,goodbye.stopped,key_resp_3.keys,key_resp_3.rt,key_resp_3.duration
0.0002,0.0003,6346d9fda71cffd6c403c4a2,2024-02-22_04h31.13.493,kallum_motion_pilot,2023.2.2,Win32,31.74603175,6346d9fda71cffd6c403c4a2,65d6bb0e977760de756971f7,65d6be8ee75a8a6ae4a0618a,,,,,,,,,,,,,,,,,,,,,,,,,,,,,,,,,,,,,,,,,,,,,,,,,,,,,,,,,,,,,,,,,,,,,,,,,,,,,,,,,,,,,,,,,,,,,,,,,,,,,,,,,,,,,,,,,,,,,,,,,,,,,,,,,,,,,,,,,,,,,,,,,
,,6346d9fda71cffd6c403c4a2,2024-02-22_04h31.13.493,kallum_motion_pilot,2023.2.2,Win32,31.74603175,6346d9fda71cffd6c403c4a2,65d6bb0e977760de756971f7,65d6be8ee75a8a6ae4a0618a,0.0194,0.0196,0,0,0,15,1,fourthree,,,,,,,,,,,,,,,,,,,,,,,,,,,,,,,,,,,,,,,,,,,,,,,,,,,,,,,,,,,,,,,,,,,,,,,,,,,,,,,,,,,,,,,,,,,,,,,,,,,,,,,,,,,,,,,,,,,,,,,,,,,,,,,,,,,,,,,,,
,,6346d9fda71cffd6c403c4a2,2024-02-22_04h31.13.493,kallum_motion_pilot,2023.2.2,Win32,31.74603175,6346d9fda71cffd6c403c4a2,65d6bb0e977760de756971f7,65d6be8ee75a8a6ae4a0618a,0.0199,0.0201,0,1,1,123,1,sixeight,,,,,,,,,,,,,,,,,,,,,,,,,,,,,,,,,,,,,,,,,,,,,,,,,,,,,,,,,,,,,,,,,,,,,,,,,,,,,,,,,,,,,,,,,,,,,,,,,,,,,,,,,,,,,,,,,,,,,,,,,,,,,,,,,,,,,,,,,
,,6346d9fda71cffd6c403c4a2,2024-02-22_04h31.13.493,kallum_motion_pilot,2023.2.2,Win32,31.74603175,6346d9fda71cffd6c403c4a2,65d6bb0e977760de756971f7,65d6be8ee75a8a6ae4a0618a,0.0204,0.0204,0,2,2,161,1,fiveseven,,,,,,,,,,,,,,,,,,,,,,,,,,,,,,,,,,,,,,,,,,,,,,,,,,,,,,,,,,,,,,,,,,,,,,,,,,,,,,,,,,,,,,,,,,,,,,,,,,,,,,,,,,,,,,,,,,,,,,,,,,,,,,,,,,,,,,,,,
,,6346d9fda71cffd6c403c4a2,2024-02-22_04h31.13.493,kallum_motion_pilot,2023.2.2,Win32,31.74603175,6346d9fda71cffd6c403c4a2,65d6bb0e977760de756971f7,65d6be8ee75a8a6ae4a0618a,0.0206,0.0207,0,3,3,30,1,fourtwo,,,,,,,,,,,,,,,,,,,,,,,,,,,,,,,,,,,,,,,,,,,,,,,,,,,,,,,,,,,,,,,,,,,,,,,,,,,,,,,,,,,,,,,,,,,,,,,,,,,,,,,,,,,,,,,,,,,,,,,,,,,,,,,,,,,,,,,,,
,,6346d9fda71cffd6c403c4a2,2024-02-22_04h31.13.493,kallum_motion_pilot,2023.2.2,Win32,31.74603175,6346d9fda71cffd6c403c4a2,65d6bb0e977760de756971f7,65d6be8ee75a8a6ae4a0618a,0.0209,0.021,0,4,4,31,1,fourthree,,,,,,,,,,,,,,,,,,,,,,,,,,,,,,,,,,,,,,,,,,,,,,,,,,,,,,,,,,,,,,,,,,,,,,,,,,,,,,,,,,,,,,,,,,,,,,,,,,,,,,,,,,,,,,,,,,,,,,,,,,,,,,,,,,,,,,,,,
,,6346d9fda71cffd6c403c4a2,2024-02-22_04h31.13.493,kallum_motion_pilot,2023.2.2,Win32,31.74603175,6346d9fda71cffd6c403c4a2,65d6bb0e977760de756971f7,65d6be8ee75a8a6ae4a0618a,0.0212,0.0214,0,5,5,76,1,threeone,,,,,,,,,,,,,,,,,,,,,,,,,,,,,,,,,,,,,,,,,,,,,,,,,,,,,,,,,,,,,,,,,,,,,,,,,,,,,,,,,,,,,,,,,,,,,,,,,,,,,,,,,,,,,,,,,,,,,,,,,,,,,,,,,,,,,,,,,
,,6346d9fda71cffd6c403c4a2,2024-02-22_04h31.13.493,kallum_motion_pilot,2023.2.2,Win32,31.74603175,6346d9fda71cffd6c403c4a2,65d6bb0e977760de756971f7,65d6be8ee75a8a6ae4a0618a,0.0217,0.0219,0,6,6,1,1,onethree,,,,,,,,,,,,,,,,,,,,,,,,,,,,,,,,,,,,,,,,,,,,,,,,,,,,,,,,,,,,,,,,,,,,,,,,,,,,,,,,,,,,,,,,,,,,,,,,,,,,,,,,,,,,,,,,,,,,,,,,,,,,,,,,,,,,,,,,,
,,6346d9fda71cffd6c403c4a2,2024-02-22_04h31.13.493,kallum_motion_pilot,2023.2.2,Win32,31.74603175,6346d9fda71cffd6c403c4a2,65d6bb0e977760de756971f7,65d6be8ee75a8a6ae4a0618a,0.0222,0.0222,0,7,7,20,1,threeone,,,,,,,,,,,,,,,,,,,,,,,,,,,,,,,,,,,,,,,,,,,,,,,,,,,,,,,,,,,,,,,,,,,,,,,,,,,,,,,,,,,,,,,,,,,,,,,,,,,,,,,,,,,,,,,,,,,,,,,,,,,,,,,,,,,,,,,,,
,,6346d9fda71cffd6c403c4a2,2024-02-22_04h31.13.493,kallum_motion_pilot,2023.2.2,Win32,31.74603175,6346d9fda71cffd6c403c4a2,65d6bb0e977760de756971f7,65d6be8ee75a8a6ae4a0618a,0.0225,0.0226,0,8,8,136,1,fivesix,,,,,,,,,,,,,,,,,,,,,,,,,,,,,,,,,,,,,,,,,,,,,,,,,,,,,,,,,,,,,,,,,,,,,,,,,,,,,,,,,,,,,,,,,,,,,,,,,,,,,,,,,,,,,,,,,,,,,,,,,,,,,,,,,,,,,,,,,
,,6346d9fda71cffd6c403c4a2,2024-02-22_04h31.13.493,kallum_motion_pilot,2023.2.2,Win32,31.74603175,6346d9fda71cffd6c403c4a2,65d6bb0e977760de756971f7,65d6be8ee75a8a6ae4a0618a,0.0229,0.023,0,9,9,120,1,fivesix,,,,,,,,,,,,,,,,,,,,,,,,,,,,,,,,,,,,,,,,,,,,,,,,,,,,,,,,,,,,,,,,,,,,,,,,,,,,,,,,,,,,,,,,,,,,,,,,,,,,,,,,,,,,,,,,,,,,,,,,,,,,,,,,,,,,,,,,,
,,6346d9fda71cffd6c403c4a2,2024-02-22_04h31.13.493,kallum_motion_pilot,2023.2.2,Win32,31.74603175,6346d9fda71cffd6c403c4a2,65d6bb0e977760de756971f7,65d6be8ee75a8a6ae4a0618a,0.0233,0.0234,0,10,10,105,1,fiveseven,,,,,,,,,,,,,,,,,,,,,,,,,,,,,,,,,,,,,,,,,,,,,,,,,,,,,,,,,,,,,,,,,,,,,,,,,,,,,,,,,,,,,,,,,,,,,,,,,,,,,,,,,,,,,,,,,,,,,,,,,,,,,,,,,,,,,,,,,
,,6346d9fda71cffd6c403c4a2,2024-02-22_04h31.13.493,kallum_motion_pilot,2023.2.2,Win32,31.74603175,6346d9fda71cffd6c403c4a2,65d6bb0e977760de756971f7,65d6be8ee75a8a6ae4a0618a,0.0236,0.0237,0,11,11,84,1,sevenfive,,,,,,,,,,,,,,,,,,,,,,,,,,,,,,,,,,,,,,,,,,,,,,,,,,,,,,,,,,,,,,,,,,,,,,,,,,,,,,,,,,,,,,,,,,,,,,,,,,,,,,,,,,,,,,,,,,,,,,,,,,,,,,,,,,,,,,,,,
,,6346d9fda71cffd6c403c4a2,2024-02-22_04h31.13.493,kallum_motion_pilot,2023.2.2,Win32,31.74603175,6346d9fda71cffd6c403c4a2,65d6bb0e977760de756971f7,65d6be8ee75a8a6ae4a0618a,0.0266,0.0267,0,12,12,87,1,eightseven,,,,,,,,,,,,,,,,,,,,,,,,,,,,,,,,,,,,,,,,,,,,,,,,,,,,,,,,,,,,,,,,,,,,,,,,,,,,,,,,,,,,,,,,,,,,,,,,,,,,,,,,,,,,,,,,,,,,,,,,,,,,,,,,,,,,,,,,,
,,6346d9fda71cffd6c403c4a2,2024-02-22_04h31.13.493,kallum_motion_pilot,2023.2.2,Win32,31.74603175,6346d9fda71cffd6c403c4a2,65d6bb0e977760de756971f7,65d6be8ee75a8a6ae4a0618a,0.0268,0.0269,0,13,13,69,1,threefour,,,,,,,,,,,,,,,,,,,,,,,,,,,,,,,,,,,,,,,,,,,,,,,,,,,,,,,,,,,,,,,,,,,,,,,,,,,,,,,,,,,,,,,,,,,,,,,,,,,,,,,,,,,,,,,,,,,,,,,,,,,,,,,,,,,,,,,,,
,,6346d9fda71cffd6c403c4a2,2024-02-22_04h31.13.493,kallum_motion_pilot,2023.2.2,Win32,31.74603175,6346d9fda71cffd6c403c4a2,65d6bb0e977760de756971f7,65d6be8ee75a8a6ae4a0618a,0.0269,0.027,0,14,14,121,1,fiveseven,,,,,,,,,,,,,,,,,,,,,,,,,,,,,,,,,,,,,,,,,,,,,,,,,,,,,,,,,,,,,,,,,,,,,,,,,,,,,,,,,,,,,,,,,,,,,,,,,,,,,,,,,,,,,,,,,,,,,,,,,,,,,,,,,,,,,,,,,
,,6346d9fda71cffd6c403c4a2,2024-02-22_04h31.13.493,kallum_motion_pilot,2023.2.2,Win32,31.74603175,6346d9fda71cffd6c403c4a2,65d6bb0e977760de756971f7,65d6be8ee75a8a6ae4a0618a,0.0273,0.0273,0,15,15,128,1,fivesix,,,,,,,,,,,,,,,,,,,,,,,,,,,,,,,,,,,,,,,,,,,,,,,,,,,,,,,,,,,,,,,,,,,,,,,,,,,,,,,,,,,,,,,,,,,,,,,,,,,,,,,,,,,,,,,,,,,,,,,,,,,,,,,,,,,,,,,,,
,,6346d9fda71cffd6c403c4a2,2024-02-22_04h31.13.493,kallum_motion_pilot,2023.2.2,Win32,31.74603175,6346d9fda71cffd6c403c4a2,65d6bb0e977760de756971f7,65d6be8ee75a8a6ae4a0618a,0.0275,0.0275,0,16,16,65,1,onethree,,,,,,,,,,,,,,,,,,,,,,,,,,,,,,,,,,,,,,,,,,,,,,,,,,,,,,,,,,,,,,,,,,,,,,,,,,,,,,,,,,,,,,,,,,,,,,,,,,,,,,,,,,,,,,,,,,,,,,,,,,,,,,,,,,,,,,,,,
,,6346d9fda71cffd6c403c4a2,2024-02-22_04h31.13.493,kallum_motion_pilot,2023.2.2,Win32,31.74603175,6346d9fda71cffd6c403c4a2,65d6bb0e977760de756971f7,65d6be8ee75a8a6ae4a0618a,0.0276,0.0277,0,17,17,142,1,eightsix,,,,,,,,,,,,,,,,,,,,,,,,,,,,,,,,,,,,,,,,,,,,,,,,,,,,,,,,,,,,,,,,,,,,,,,,,,,,,,,,,,,,,,,,,,,,,,,,,,,,,,,,,,,,,,,,,,,,,,,,,,,,,,,,,,,,,,,,,
,,6346d9fda71cffd6c403c4a2,2024-02-22_04h31.13.493,kallum_motion_pilot,2023.2.2,Win32,31.74603175,6346d9fda71cffd6c403c4a2,65d6bb0e977760de756971f7,65d6be8ee75a8a6ae4a0618a,0.0278,0.0278,0,18,18,106,1,sixfive,,,,,,,,,,,,,,,,,,,,,,,,,,,,,,,,,,,,,,,,,,,,,,,,,,,,,,,,,,,,,,,,,,,,,,,,,,,,,,,,,,,,,,,,,,,,,,,,,,,,,,,,,,,,,,,,,,,,,,,,,,,,,,,,,,,,,,,,,
,,6346d9fda71cffd6c403c4a2,2024-02-22_04h31.13.493,kallum_motion_pilot,2023.2.2,Win32,31.74603175,6346d9fda71cffd6c403c4a2,65d6bb0e977760de756971f7,65d6be8ee75a8a6ae4a0618a,0.0279,0.028,0,19,19,89,1,fiveseven,,,,,,,,,,,,,,,,,,,,,,,,,,,,,,,,,,,,,,,,,,,,,,,,,,,,,,,,,,,,,,,,,,,,,,,,,,,,,,,,,,,,,,,,,,,,,,,,,,,,,,,,,,,,,,,,,,,,,,,,,,,,,,,,,,,,,,,,,
,,6346d9fda71cffd6c403c4a2,2024-02-22_04h31.13.493,kallum_motion_pilot,2023.2.2,Win32,31.74603175,6346d9fda71cffd6c403c4a2,65d6bb0e977760de756971f7,65d6be8ee75a8a6ae4a0618a,0.028,0.028,0,20,20,133,1,seveneight,,,,,,,,,,,,,,,,,,,,,,,,,,,,,,,,,,,,,,,,,,,,,,,,,,,,,,,,,,,,,,,,,,,,,,,,,,,,,,,,,,,,,,,,,,,,,,,,,,,,,,,,,,,,,,,,,,,,,,,,,,,,,,,,,,,,,,,,,
,,6346d9fda71cffd6c403c4a2,2024-02-22_04h31.13.493,kallum_motion_pilot,2023.2.2,Win32,31.74603175,6346d9fda71cffd6c403c4a2,65d6bb0e977760de756971f7,65d6be8ee75a8a6ae4a0618a,0.0282,0.0282,0,21,21,116,1,sevenfive,,,,,,,,,,,,,,,,,,,,,,,,,,,,,,,,,,,,,,,,,,,,,,,,,,,,,,,,,,,,,,,,,,,,,,,,,,,,,,,,,,,,,,,,,,,,,,,,,,,,,,,,,,,,,,,,,,,,,,,,,,,,,,,,,,,,,,,,,
,,6346d9fda71cffd6c403c4a2,2024-02-22_04h31.13.493,kallum_motion_pilot,2023.2.2,Win32,31.74603175,6346d9fda71cffd6c403c4a2,65d6bb0e977760de756971f7,65d6be8ee75a8a6ae4a0618a,0.0283,0.0283,0,22,22,19,1,twofour,,,,,,,,,,,,,,,,,,,,,,,,,,,,,,,,,,,,,,,,,,,,,,,,,,,,,,,,,,,,,,,,,,,,,,,,,,,,,,,,,,,,,,,,,,,,,,,,,,,,,,,,,,,,,,,,,,,,,,,,,,,,,,,,,,,,,,,,,
,,6346d9fda71cffd6c403c4a2,2024-02-22_04h31.13.493,kallum_motion_pilot,2023.2.2,Win32,31.74603175,6346d9fda71cffd6c403c4a2,65d6bb0e977760de756971f7,65d6be8ee75a8a6ae4a0618a,0.0284,0.0284,0,23,23,41,1,onethree,,,,,,,,,,,,,,,,,,,,,,,,,,,,,,,,,,,,,,,,,,,,,,,,,,,,,,,,,,,,,,,,,,,,,,,,,,,,,,,,,,,,,,,,,,,,,,,,,,,,,,,,,,,,,,,,,,,,,,,,,,,,,,,,,,,,,,,,,
,,6346d9fda71cffd6c403c4a2,2024-02-22_04h31.13.493,kallum_motion_pilot,2023.2.2,Win32,31.74603175,6346d9fda71cffd6c403c4a2,65d6bb0e977760de756971f7,65d6be8ee75a8a6ae4a0618a,0.0285,0.0285,0,24,24,16,1,onetwo,,,,,,,,,,,,,,,,,,,,,,,,,,,,,,,,,,,,,,,,,,,,,,,,,,,,,,,,,,,,,,,,,,,,,,,,,,,,,,,,,,,,,,,,,,,,,,,,,,,,,,,,,,,,,,,,,,,,,,,,,,,,,,,,,,,,,,,,,
,,6346d9fda71cffd6c403c4a2,2024-02-22_04h31.13.493,kallum_motion_pilot,2023.2.2,Win32,31.74603175,6346d9fda71cffd6c403c4a2,65d6bb0e977760de756971f7,65d6be8ee75a8a6ae4a0618a,0.0285,0.0285,0,25,25,21,1,threefour,,,,,,,,,,,,,,,,,,,,,,,,,,,,,,,,,,,,,,,,,,,,,,,,,,,,,,,,,,,,,,,,,,,,,,,,,,,,,,,,,,,,,,,,,,,,,,,,,,,,,,,,,,,,,,,,,,,,,,,,,,,,,,,,,,,,,,,,,
,,6346d9fda71cffd6c403c4a2,2024-02-22_04h31.13.493,kallum_motion_pilot,2023.2.2,Win32,31.74603175,6346d9fda71cffd6c403c4a2,65d6bb0e977760de756971f7,65d6be8ee75a8a6ae4a0618a,0.0286,0.0286,0,26,26,129,1,fiveseven,,,,,,,,,,,,,,,,,,,,,,,,,,,,,,,,,,,,,,,,,,,,,,,,,,,,,,,,,,,,,,,,,,,,,,,,,,,,,,,,,,,,,,,,,,,,,,,,,,,,,,,,,,,,,,,,,,,,,,,,,,,,,,,,,,,,,,,,,
,,6346d9fda71cffd6c403c4a2,2024-02-22_04h31.13.493,kallum_motion_pilot,2023.2.2,Win32,31.74603175,6346d9fda71cffd6c403c4a2,65d6bb0e977760de756971f7,65d6be8ee75a8a6ae4a0618a,0.0287,0.0287,0,27,27,131,1,sixeight,,,,,,,,,,,,,,,,,,,,,,,,,,,,,,,,,,,,,,,,,,,,,,,,,,,,,,,,,,,,,,,,,,,,,,,,,,,,,,,,,,,,,,,,,,,,,,,,,,,,,,,,,,,,,,,,,,,,,,,,,,,,,,,,,,,,,,,,,
,,6346d9fda71cffd6c403c4a2,2024-02-22_04h31.13.493,kallum_motion_pilot,2023.2.2,Win32,31.74603175,6346d9fda71cffd6c403c4a2,65d6bb0e977760de756971f7,65d6be8ee75a8a6ae4a0618a,0.0288,0.0288,0,28,28,143,1,eightseven,,,,,,,,,,,,,,,,,,,,,,,,,,,,,,,,,,,,,,,,,,,,,,,,,,,,,,,,,,,,,,,,,,,,,,,,,,,,,,,,,,,,,,,,,,,,,,,,,,,,,,,,,,,,,,,,,,,,,,,,,,,,,,,,,,,,,,,,,
,,6346d9fda71cffd6c403c4a2,2024-02-22_04h31.13.493,kallum_motion_pilot,2023.2.2,Win32,31.74603175,6346d9fda71cffd6c403c4a2,65d6bb0e977760de756971f7,65d6be8ee75a8a6ae4a0618a,0.0288,0.0288,0,29,29,88,1,fivesix,,,,,,,,,,,,,,,,,,,,,,,,,,,,,,,,,,,,,,,,,,,,,,,,,,,,,,,,,,,,,,,,,,,,,,,,,,,,,,,,,,,,,,,,,,,,,,,,,,,,,,,,,,,,,,,,,,,,,,,,,,,,,,,,,,,,,,,,,
,,6346d9fda71cffd6c403c4a2,2024-02-22_04h31.13.493,kallum_motion_pilot,2023.2.2,Win32,31.74603175,6346d9fda71cffd6c403c4a2,65d6bb0e977760de756971f7,65d6be8ee75a8a6ae4a0618a,0.0289,0.029,0,30,30,4,1,threeone,,,,,,,,,,,,,,,,,,,,,,,,,,,,,,,,,,,,,,,,,,,,,,,,,,,,,,,,,,,,,,,,,,,,,,,,,,,,,,,,,,,,,,,,,,,,,,,,,,,,,,,,,,,,,,,,,,,,,,,,,,,,,,,,,,,,,,,,,
,,6346d9fda71cffd6c403c4a2,2024-02-22_04h31.13.493,kallum_motion_pilot,2023.2.2,Win32,31.74603175,6346d9fda71cffd6c403c4a2,65d6bb0e977760de756971f7,65d6be8ee75a8a6ae4a0618a,0.029,0.0291,0,31,31,100,1,sevenfive,,,,,,,,,,,,,,,,,,,,,,,,,,,,,,,,,,,,,,,,,,,,,,,,,,,,,,,,,,,,,,,,,,,,,,,,,,,,,,,,,,,,,,,,,,,,,,,,,,,,,,,,,,,,,,,,,,,,,,,,,,,,,,,,,,,,,,,,,
,,6346d9fda71cffd6c403c4a2,2024-02-22_04h31.13.493,kallum_motion_pilot,2023.2.2,Win32,31.74603175,6346d9fda71cffd6c403c4a2,65d6bb0e977760de756971f7,65d6be8ee75a8a6ae4a0618a,0.0292,0.0292,0,32,32,11,1,twofour,,,,,,,,,,,,,,,,,,,,,,,,,,,,,,,,,,,,,,,,,,,,,,,,,,,,,,,,,,,,,,,,,,,,,,,,,,,,,,,,,,,,,,,,,,,,,,,,,,,,,,,,,,,,,,,,,,,,,,,,,,,,,,,,,,,,,,,,,
,,6346d9fda71cffd6c403c4a2,2024-02-22_04h31.13.493,kallum_motion_pilot,2023.2.2,Win32,31.74603175,6346d9fda71cffd6c403c4a2,65d6bb0e977760de756971f7,65d6be8ee75a8a6ae4a0618a,0.0292,0.0293,0,33,33,62,1,fourtwo,,,,,,,,,,,,,,,,,,,,,,,,,,,,,,,,,,,,,,,,,,,,,,,,,,,,,,,,,,,,,,,,,,,,,,,,,,,,,,,,,,,,,,,,,,,,,,,,,,,,,,,,,,,,,,,,,,,,,,,,,,,,,,,,,,,,,,,,,
,,6346d9fda71cffd6c403c4a2,2024-02-22_04h31.13.493,kallum_motion_pilot,2023.2.2,Win32,31.74603175,6346d9fda71cffd6c403c4a2,65d6bb0e977760de756971f7,65d6be8ee75a8a6ae4a0618a,0.0294,0.0294,0,34,34,146,1,sixfive,,,,,,,,,,,,,,,,,,,,,,,,,,,,,,,,,,,,,,,,,,,,,,,,,,,,,,,,,,,,,,,,,,,,,,,,,,,,,,,,,,,,,,,,,,,,,,,,,,,,,,,,,,,,,,,,,,,,,,,,,,,,,,,,,,,,,,,,,
,,6346d9fda71cffd6c403c4a2,2024-02-22_04h31.13.493,kallum_motion_pilot,2023.2.2,Win32,31.74603175,6346d9fda71cffd6c403c4a2,65d6bb0e977760de756971f7,65d6be8ee75a8a6ae4a0618a,0.0295,0.0295,0,35,35,37,1,threefour,,,,,,,,,,,,,,,,,,,,,,,,,,,,,,,,,,,,,,,,,,,,,,,,,,,,,,,,,,,,,,,,,,,,,,,,,,,,,,,,,,,,,,,,,,,,,,,,,,,,,,,,,,,,,,,,,,,,,,,,,,,,,,,,,,,,,,,,,
,,6346d9fda71cffd6c403c4a2,2024-02-22_04h31.13.493,kallum_motion_pilot,2023.2.2,Win32,31.74603175,6346d9fda71cffd6c403c4a2,65d6bb0e977760de756971f7,65d6be8ee75a8a6ae4a0618a,0.0296,0.0296,0,36,36,52,1,threeone,,,,,,,,,,,,,,,,,,,,,,,,,,,,,,,,,,,,,,,,,,,,,,,,,,,,,,,,,,,,,,,,,,,,,,,,,,,,,,,,,,,,,,,,,,,,,,,,,,,,,,,,,,,,,,,,,,,,,,,,,,,,,,,,,,,,,,,,,
,,6346d9fda71cffd6c403c4a2,2024-02-22_04h31.13.493,kallum_motion_pilot,2023.2.2,Win32,31.74603175,6346d9fda71cffd6c403c4a2,65d6bb0e977760de756971f7,65d6be8ee75a8a6ae4a0618a,0.0296,0.0296,0,37,37,130,1,sixfive,,,,,,,,,,,,,,,,,,,,,,,,,,,,,,,,,,,,,,,,,,,,,,,,,,,,,,,,,,,,,,,,,,,,,,,,,,,,,,,,,,,,,,,,,,,,,,,,,,,,,,,,,,,,,,,,,,,,,,,,,,,,,,,,,,,,,,,,,
,,6346d9fda71cffd6c403c4a2,2024-02-22_04h31.13.493,kallum_motion_pilot,2023.2.2,Win32,31.74603175,6346d9fda71cffd6c403c4a2,65d6bb0e977760de756971f7,65d6be8ee75a8a6ae4a0618a,0.0297,0.0298,0,38,38,8,1,onetwo,,,,,,,,,,,,,,,,,,,,,,,,,,,,,,,,,,,,,,,,,,,,,,,,,,,,,,,,,,,,,,,,,,,,,,,,,,,,,,,,,,,,,,,,,,,,,,,,,,,,,,,,,,,,,,,,,,,,,,,,,,,,,,,,,,,,,,,,,
,,6346d9fda71cffd6c403c4a2,2024-02-22_04h31.13.493,kallum_motion_pilot,2023.2.2,Win32,31.74603175,6346d9fda71cffd6c403c4a2,65d6bb0e977760de756971f7,65d6be8ee75a8a6ae4a0618a,0.0298,0.0298,0,39,39,148,1,sevenfive,,,,,,,,,,,,,,,,,,,,,,,,,,,,,,,,,,,,,,,,,,,,,,,,,,,,,,,,,,,,,,,,,,,,,,,,,,,,,,,,,,,,,,,,,,,,,,,,,,,,,,,,,,,,,,,,,,,,,,,,,,,,,,,,,,,,,,,,,
,,6346d9fda71cffd6c403c4a2,2024-02-22_04h31.13.493,kallum_motion_pilot,2023.2.2,Win32,31.74603175,6346d9fda71cffd6c403c4a2,65d6bb0e977760de756971f7,65d6be8ee75a8a6ae4a0618a,0.03,0.03,0,40,40,151,1,eightseven,,,,,,,,,,,,,,,,,,,,,,,,,,,,,,,,,,,,,,,,,,,,,,,,,,,,,,,,,,,,,,,,,,,,,,,,,,,,,,,,,,,,,,,,,,,,,,,,,,,,,,,,,,,,,,,,,,,,,,,,,,,,,,,,,,,,,,,,,
,,6346d9fda71cffd6c403c4a2,2024-02-22_04h31.13.493,kallum_motion_pilot,2023.2.2,Win32,31.74603175,6346d9fda71cffd6c403c4a2,65d6bb0e977760de756971f7,65d6be8ee75a8a6ae4a0618a,0.0301,0.0301,0,41,41,32,1,onetwo,,,,,,,,,,,,,,,,,,,,,,,,,,,,,,,,,,,,,,,,,,,,,,,,,,,,,,,,,,,,,,,,,,,,,,,,,,,,,,,,,,,,,,,,,,,,,,,,,,,,,,,,,,,,,,,,,,,,,,,,,,,,,,,,,,,,,,,,,
,,6346d9fda71cffd6c403c4a2,2024-02-22_04h31.13.493,kallum_motion_pilot,2023.2.2,Win32,31.74603175,6346d9fda71cffd6c403c4a2,65d6bb0e977760de756971f7,65d6be8ee75a8a6ae4a0618a,0.0302,0.0302,0,42,42,0,1,onetwo,,,,,,,,,,,,,,,,,,,,,,,,,,,,,,,,,,,,,,,,,,,,,,,,,,,,,,,,,,,,,,,,,,,,,,,,,,,,,,,,,,,,,,,,,,,,,,,,,,,,,,,,,,,,,,,,,,,,,,,,,,,,,,,,,,,,,,,,,
,,6346d9fda71cffd6c403c4a2,2024-02-22_04h31.13.493,kallum_motion_pilot,2023.2.2,Win32,31.74603175,6346d9fda71cffd6c403c4a2,65d6bb0e977760de756971f7,65d6be8ee75a8a6ae4a0618a,0.0302,0.0303,0,43,43,138,1,sixfive,,,,,,,,,,,,,,,,,,,,,,,,,,,,,,,,,,,,,,,,,,,,,,,,,,,,,,,,,,,,,,,,,,,,,,,,,,,,,,,,,,,,,,,,,,,,,,,,,,,,,,,,,,,,,,,,,,,,,,,,,,,,,,,,,,,,,,,,,
,,6346d9fda71cffd6c403c4a2,2024-02-22_04h31.13.493,kallum_motion_pilot,2023.2.2,Win32,31.74603175,6346d9fda71cffd6c403c4a2,65d6bb0e977760de756971f7,65d6be8ee75a8a6ae4a0618a,0.0303,0.0304,0,44,44,38,1,fourtwo,,,,,,,,,,,,,,,,,,,,,,,,,,,,,,,,,,,,,,,,,,,,,,,,,,,,,,,,,,,,,,,,,,,,,,,,,,,,,,,,,,,,,,,,,,,,,,,,,,,,,,,,,,,,,,,,,,,,,,,,,,,,,,,,,,,,,,,,,
,,6346d9fda71cffd6c403c4a2,2024-02-22_04h31.13.493,kallum_motion_pilot,2023.2.2,Win32,31.74603175,6346d9fda71cffd6c403c4a2,65d6bb0e977760de756971f7,65d6be8ee75a8a6ae4a0618a,0.0305,0.0305,0,45,45,57,1,onethree,,,,,,,,,,,,,,,,,,,,,,,,,,,,,,,,,,,,,,,,,,,,,,,,,,,,,,,,,,,,,,,,,,,,,,,,,,,,,,,,,,,,,,,,,,,,,,,,,,,,,,,,,,,,,,,,,,,,,,,,,,,,,,,,,,,,,,,,,
,,6346d9fda71cffd6c403c4a2,2024-02-22_04h31.13.493,kallum_motion_pilot,2023.2.2,Win32,31.74603175,6346d9fda71cffd6c403c4a2,65d6bb0e977760de756971f7,65d6be8ee75a8a6ae4a0618a,0.0305,0.0306,0,46,46,60,1,threeone,,,,,,,,,,,,,,,,,,,,,,,,,,,,,,,,,,,,,,,,,,,,,,,,,,,,,,,,,,,,,,,,,,,,,,,,,,,,,,,,,,,,,,,,,,,,,,,,,,,,,,,,,,,,,,,,,,,,,,,,,,,,,,,,,,,,,,,,,
,,6346d9fda71cffd6c403c4a2,2024-02-22_04h31.13.493,kallum_motion_pilot,2023.2.2,Win32,31.74603175,6346d9fda71cffd6c403c4a2,65d6bb0e977760de756971f7,65d6be8ee75a8a6ae4a0618a,0.0307,0.0307,0,47,47,5,1,threefour,,,,,,,,,,,,,,,,,,,,,,,,,,,,,,,,,,,,,,,,,,,,,,,,,,,,,,,,,,,,,,,,,,,,,,,,,,,,,,,,,,,,,,,,,,,,,,,,,,,,,,,,,,,,,,,,,,,,,,,,,,,,,,,,,,,,,,,,,
,,6346d9fda71cffd6c403c4a2,2024-02-22_04h31.13.493,kallum_motion_pilot,2023.2.2,Win32,31.74603175,6346d9fda71cffd6c403c4a2,65d6bb0e977760de756971f7,65d6be8ee75a8a6ae4a0618a,0.0308,0.0308,0,48,48,145,1,fiveseven,,,,,,,,,,,,,,,,,,,,,,,,,,,,,,,,,,,,,,,,,,,,,,,,,,,,,,,,,,,,,,,,,,,,,,,,,,,,,,,,,,,,,,,,,,,,,,,,,,,,,,,,,,,,,,,,,,,,,,,,,,,,,,,,,,,,,,,,,
,,6346d9fda71cffd6c403c4a2,2024-02-22_04h31.13.493,kallum_motion_pilot,2023.2.2,Win32,31.74603175,6346d9fda71cffd6c403c4a2,65d6bb0e977760de756971f7,65d6be8ee75a8a6ae4a0618a,0.0309,0.0309,0,49,49,110,1,eightsix,,,,,,,,,,,,,,,,,,,,,,,,,,,,,,,,,,,,,,,,,,,,,,,,,,,,,,,,,,,,,,,,,,,,,,,,,,,,,,,,,,,,,,,,,,,,,,,,,,,,,,,,,,,,,,,,,,,,,,,,,,,,,,,,,,,,,,,,,
,,6346d9fda71cffd6c403c4a2,2024-02-22_04h31.13.493,kallum_motion_pilot,2023.2.2,Win32,31.74603175,6346d9fda71cffd6c403c4a2,65d6bb0e977760de756971f7,65d6be8ee75a8a6ae4a0618a,0.0309,0.031,0,50,50,36,1,threeone,,,,,,,,,,,,,,,,,,,,,,,,,,,,,,,,,,,,,,,,,,,,,,,,,,,,,,,,,,,,,,,,,,,,,,,,,,,,,,,,,,,,,,,,,,,,,,,,,,,,,,,,,,,,,,,,,,,,,,,,,,,,,,,,,,,,,,,,,
,,6346d9fda71cffd6c403c4a2,2024-02-22_04h31.13.493,kallum_motion_pilot,2023.2.2,Win32,31.74603175,6346d9fda71cffd6c403c4a2,65d6bb0e977760de756971f7,65d6be8ee75a8a6ae4a0618a,0.0311,0.0311,0,51,51,90,1,sixfive,,,,,,,,,,,,,,,,,,,,,,,,,,,,,,,,,,,,,,,,,,,,,,,,,,,,,,,,,,,,,,,,,,,,,,,,,,,,,,,,,,,,,,,,,,,,,,,,,,,,,,,,,,,,,,,,,,,,,,,,,,,,,,,,,,,,,,,,,
,,6346d9fda71cffd6c403c4a2,2024-02-22_04h31.13.493,kallum_motion_pilot,2023.2.2,Win32,31.74603175,6346d9fda71cffd6c403c4a2,65d6bb0e977760de756971f7,65d6be8ee75a8a6ae4a0618a,0.0312,0.0312,0,52,52,70,1,fourtwo,,,,,,,,,,,,,,,,,,,,,,,,,,,,,,,,,,,,,,,,,,,,,,,,,,,,,,,,,,,,,,,,,,,,,,,,,,,,,,,,,,,,,,,,,,,,,,,,,,,,,,,,,,,,,,,,,,,,,,,,,,,,,,,,,,,,,,,,,
,,6346d9fda71cffd6c403c4a2,2024-02-22_04h31.13.493,kallum_motion_pilot,2023.2.2,Win32,31.74603175,6346d9fda71cffd6c403c4a2,65d6bb0e977760de756971f7,65d6be8ee75a8a6ae4a0618a,0.0313,0.0313,0,53,53,104,1,fivesix,,,,,,,,,,,,,,,,,,,,,,,,,,,,,,,,,,,,,,,,,,,,,,,,,,,,,,,,,,,,,,,,,,,,,,,,,,,,,,,,,,,,,,,,,,,,,,,,,,,,,,,,,,,,,,,,,,,,,,,,,,,,,,,,,,,,,,,,,
,,6346d9fda71cffd6c403c4a2,2024-02-22_04h31.13.493,kallum_motion_pilot,2023.2.2,Win32,31.74603175,6346d9fda71cffd6c403c4a2,65d6bb0e977760de756971f7,65d6be8ee75a8a6ae4a0618a,0.0314,0.0314,0,54,54,124,1,sevenfive,,,,,,,,,,,,,,,,,,,,,,,,,,,,,,,,,,,,,,,,,,,,,,,,,,,,,,,,,,,,,,,,,,,,,,,,,,,,,,,,,,,,,,,,,,,,,,,,,,,,,,,,,,,,,,,,,,,,,,,,,,,,,,,,,,,,,,,,,
,,6346d9fda71cffd6c403c4a2,2024-02-22_04h31.13.493,kallum_motion_pilot,2023.2.2,Win32,31.74603175,6346d9fda71cffd6c403c4a2,65d6bb0e977760de756971f7,65d6be8ee75a8a6ae4a0618a,0.0315,0.0315,0,55,55,42,1,twoone,,,,,,,,,,,,,,,,,,,,,,,,,,,,,,,,,,,,,,,,,,,,,,,,,,,,,,,,,,,,,,,,,,,,,,,,,,,,,,,,,,,,,,,,,,,,,,,,,,,,,,,,,,,,,,,,,,,,,,,,,,,,,,,,,,,,,,,,,
,,6346d9fda71cffd6c403c4a2,2024-02-22_04h31.13.493,kallum_motion_pilot,2023.2.2,Win32,31.74603175,6346d9fda71cffd6c403c4a2,65d6bb0e977760de756971f7,65d6be8ee75a8a6ae4a0618a,0.0315,0.0316,0,56,56,98,1,sixfive,,,,,,,,,,,,,,,,,,,,,,,,,,,,,,,,,,,,,,,,,,,,,,,,,,,,,,,,,,,,,,,,,,,,,,,,,,,,,,,,,,,,,,,,,,,,,,,,,,,,,,,,,,,,,,,,,,,,,,,,,,,,,,,,,,,,,,,,,
,,6346d9fda71cffd6c403c4a2,2024-02-22_04h31.13.493,kallum_motion_pilot,2023.2.2,Win32,31.74603175,6346d9fda71cffd6c403c4a2,65d6bb0e977760de756971f7,65d6be8ee75a8a6ae4a0618a,0.0317,0.0317,0,57,57,17,1,onethree,,,,,,,,,,,,,,,,,,,,,,,,,,,,,,,,,,,,,,,,,,,,,,,,,,,,,,,,,,,,,,,,,,,,,,,,,,,,,,,,,,,,,,,,,,,,,,,,,,,,,,,,,,,,,,,,,,,,,,,,,,,,,,,,,,,,,,,,,
,,6346d9fda71cffd6c403c4a2,2024-02-22_04h31.13.493,kallum_motion_pilot,2023.2.2,Win32,31.74603175,6346d9fda71cffd6c403c4a2,65d6bb0e977760de756971f7,65d6be8ee75a8a6ae4a0618a,0.0318,0.0318,0,58,58,122,1,sixfive,,,,,,,,,,,,,,,,,,,,,,,,,,,,,,,,,,,,,,,,,,,,,,,,,,,,,,,,,,,,,,,,,,,,,,,,,,,,,,,,,,,,,,,,,,,,,,,,,,,,,,,,,,,,,,,,,,,,,,,,,,,,,,,,,,,,,,,,,
,,6346d9fda71cffd6c403c4a2,2024-02-22_04h31.13.493,kallum_motion_pilot,2023.2.2,Win32,31.74603175,6346d9fda71cffd6c403c4a2,65d6bb0e977760de756971f7,65d6be8ee75a8a6ae4a0618a,0.0319,0.0319,0,59,59,45,1,threefour,,,,,,,,,,,,,,,,,,,,,,,,,,,,,,,,,,,,,,,,,,,,,,,,,,,,,,,,,,,,,,,,,,,,,,,,,,,,,,,,,,,,,,,,,,,,,,,,,,,,,,,,,,,,,,,,,,,,,,,,,,,,,,,,,,,,,,,,,
,,6346d9fda71cffd6c403c4a2,2024-02-22_04h31.13.493,kallum_motion_pilot,2023.2.2,Win32,31.74603175,6346d9fda71cffd6c403c4a2,65d6bb0e977760de756971f7,65d6be8ee75a8a6ae4a0618a,0.032,0.032,0,60,60,134,1,eightsix,,,,,,,,,,,,,,,,,,,,,,,,,,,,,,,,,,,,,,,,,,,,,,,,,,,,,,,,,,,,,,,,,,,,,,,,,,,,,,,,,,,,,,,,,,,,,,,,,,,,,,,,,,,,,,,,,,,,,,,,,,,,,,,,,,,,,,,,,
,,6346d9fda71cffd6c403c4a2,2024-02-22_04h31.13.493,kallum_motion_pilot,2023.2.2,Win32,31.74603175,6346d9fda71cffd6c403c4a2,65d6bb0e977760de756971f7,65d6be8ee75a8a6ae4a0618a,0.0322,0.0322,0,61,61,6,1,fourtwo,,,,,,,,,,,,,,,,,,,,,,,,,,,,,,,,,,,,,,,,,,,,,,,,,,,,,,,,,,,,,,,,,,,,,,,,,,,,,,,,,,,,,,,,,,,,,,,,,,,,,,,,,,,,,,,,,,,,,,,,,,,,,,,,,,,,,,,,,
,,6346d9fda71cffd6c403c4a2,2024-02-22_04h31.13.493,kallum_motion_pilot,2023.2.2,Win32,31.74603175,6346d9fda71cffd6c403c4a2,65d6bb0e977760de756971f7,65d6be8ee75a8a6ae4a0618a,0.0322,0.0322,0,62,62,10,1,twoone,,,,,,,,,,,,,,,,,,,,,,,,,,,,,,,,,,,,,,,,,,,,,,,,,,,,,,,,,,,,,,,,,,,,,,,,,,,,,,,,,,,,,,,,,,,,,,,,,,,,,,,,,,,,,,,,,,,,,,,,,,,,,,,,,,,,,,,,,
,,6346d9fda71cffd6c403c4a2,2024-02-22_04h31.13.493,kallum_motion_pilot,2023.2.2,Win32,31.74603175,6346d9fda71cffd6c403c4a2,65d6bb0e977760de756971f7,65d6be8ee75a8a6ae4a0618a,0.0323,0.0324,0,63,63,80,1,fivesix,,,,,,,,,,,,,,,,,,,,,,,,,,,,,,,,,,,,,,,,,,,,,,,,,,,,,,,,,,,,,,,,,,,,,,,,,,,,,,,,,,,,,,,,,,,,,,,,,,,,,,,,,,,,,,,,,,,,,,,,,,,,,,,,,,,,,,,,,
,,6346d9fda71cffd6c403c4a2,2024-02-22_04h31.13.493,kallum_motion_pilot,2023.2.2,Win32,31.74603175,6346d9fda71cffd6c403c4a2,65d6bb0e977760de756971f7,65d6be8ee75a8a6ae4a0618a,0.0324,0.0325,0,64,64,64,1,onetwo,,,,,,,,,,,,,,,,,,,,,,,,,,,,,,,,,,,,,,,,,,,,,,,,,,,,,,,,,,,,,,,,,,,,,,,,,,,,,,,,,,,,,,,,,,,,,,,,,,,,,,,,,,,,,,,,,,,,,,,,,,,,,,,,,,,,,,,,,
,,6346d9fda71cffd6c403c4a2,2024-02-22_04h31.13.493,kallum_motion_pilot,2023.2.2,Win32,31.74603175,6346d9fda71cffd6c403c4a2,65d6bb0e977760de756971f7,65d6be8ee75a8a6ae4a0618a,0.0326,0.0326,0,65,65,71,1,fourthree,,,,,,,,,,,,,,,,,,,,,,,,,,,,,,,,,,,,,,,,,,,,,,,,,,,,,,,,,,,,,,,,,,,,,,,,,,,,,,,,,,,,,,,,,,,,,,,,,,,,,,,,,,,,,,,,,,,,,,,,,,,,,,,,,,,,,,,,,
,,6346d9fda71cffd6c403c4a2,2024-02-22_04h31.13.493,kallum_motion_pilot,2023.2.2,Win32,31.74603175,6346d9fda71cffd6c403c4a2,65d6bb0e977760de756971f7,65d6be8ee75a8a6ae4a0618a,0.0327,0.0327,0,66,66,35,1,twofour,,,,,,,,,,,,,,,,,,,,,,,,,,,,,,,,,,,,,,,,,,,,,,,,,,,,,,,,,,,,,,,,,,,,,,,,,,,,,,,,,,,,,,,,,,,,,,,,,,,,,,,,,,,,,,,,,,,,,,,,,,,,,,,,,,,,,,,,,
,,6346d9fda71cffd6c403c4a2,2024-02-22_04h31.13.493,kallum_motion_pilot,2023.2.2,Win32,31.74603175,6346d9fda71cffd6c403c4a2,65d6bb0e977760de756971f7,65d6be8ee75a8a6ae4a0618a,0.0328,0.0329,0,67,67,81,1,fiveseven,,,,,,,,,,,,,,,,,,,,,,,,,,,,,,,,,,,,,,,,,,,,,,,,,,,,,,,,,,,,,,,,,,,,,,,,,,,,,,,,,,,,,,,,,,,,,,,,,,,,,,,,,,,,,,,,,,,,,,,,,,,,,,,,,,,,,,,,,
,,6346d9fda71cffd6c403c4a2,2024-02-22_04h31.13.493,kallum_motion_pilot,2023.2.2,Win32,31.74603175,6346d9fda71cffd6c403c4a2,65d6bb0e977760de756971f7,65d6be8ee75a8a6ae4a0618a,0.0329,0.0329,0,68,68,152,1,fivesix,,,,,,,,,,,,,,,,,,,,,,,,,,,,,,,,,,,,,,,,,,,,,,,,,,,,,,,,,,,,,,,,,,,,,,,,,,,,,,,,,,,,,,,,,,,,,,,,,,,,,,,,,,,,,,,,,,,,,,,,,,,,,,,,,,,,,,,,,
,,6346d9fda71cffd6c403c4a2,2024-02-22_04h31.13.493,kallum_motion_pilot,2023.2.2,Win32,31.74603175,6346d9fda71cffd6c403c4a2,65d6bb0e977760de756971f7,65d6be8ee75a8a6ae4a0618a,0.033,0.033,0,69,69,77,1,threefour,,,,,,,,,,,,,,,,,,,,,,,,,,,,,,,,,,,,,,,,,,,,,,,,,,,,,,,,,,,,,,,,,,,,,,,,,,,,,,,,,,,,,,,,,,,,,,,,,,,,,,,,,,,,,,,,,,,,,,,,,,,,,,,,,,,,,,,,,
,,6346d9fda71cffd6c403c4a2,2024-02-22_04h31.13.493,kallum_motion_pilot,2023.2.2,Win32,31.74603175,6346d9fda71cffd6c403c4a2,65d6bb0e977760de756971f7,65d6be8ee75a8a6ae4a0618a,0.0331,0.0331,0,70,70,97,1,fiveseven,,,,,,,,,,,,,,,,,,,,,,,,,,,,,,,,,,,,,,,,,,,,,,,,,,,,,,,,,,,,,,,,,,,,,,,,,,,,,,,,,,,,,,,,,,,,,,,,,,,,,,,,,,,,,,,,,,,,,,,,,,,,,,,,,,,,,,,,,
,,6346d9fda71cffd6c403c4a2,2024-02-22_04h31.13.493,kallum_motion_pilot,2023.2.2,Win32,31.74603175,6346d9fda71cffd6c403c4a2,65d6bb0e977760de756971f7,65d6be8ee75a8a6ae4a0618a,0.0331,0.0332,0,71,71,78,1,fourtwo,,,,,,,,,,,,,,,,,,,,,,,,,,,,,,,,,,,,,,,,,,,,,,,,,,,,,,,,,,,,,,,,,,,,,,,,,,,,,,,,,,,,,,,,,,,,,,,,,,,,,,,,,,,,,,,,,,,,,,,,,,,,,,,,,,,,,,,,,
,,6346d9fda71cffd6c403c4a2,2024-02-22_04h31.13.493,kallum_motion_pilot,2023.2.2,Win32,31.74603175,6346d9fda71cffd6c403c4a2,65d6bb0e977760de756971f7,65d6be8ee75a8a6ae4a0618a,0.0332,0.0333,0,72,72,147,1,sixeight,,,,,,,,,,,,,,,,,,,,,,,,,,,,,,,,,,,,,,,,,,,,,,,,,,,,,,,,,,,,,,,,,,,,,,,,,,,,,,,,,,,,,,,,,,,,,,,,,,,,,,,,,,,,,,,,,,,,,,,,,,,,,,,,,,,,,,,,,
,,6346d9fda71cffd6c403c4a2,2024-02-22_04h31.13.493,kallum_motion_pilot,2023.2.2,Win32,31.74603175,6346d9fda71cffd6c403c4a2,65d6bb0e977760de756971f7,65d6be8ee75a8a6ae4a0618a,0.0333,0.0333,0,73,73,50,1,twoone,,,,,,,,,,,,,,,,,,,,,,,,,,,,,,,,,,,,,,,,,,,,,,,,,,,,,,,,,,,,,,,,,,,,,,,,,,,,,,,,,,,,,,,,,,,,,,,,,,,,,,,,,,,,,,,,,,,,,,,,,,,,,,,,,,,,,,,,,
,,6346d9fda71cffd6c403c4a2,2024-02-22_04h31.13.493,kallum_motion_pilot,2023.2.2,Win32,31.74603175,6346d9fda71cffd6c403c4a2,65d6bb0e977760de756971f7,65d6be8ee75a8a6ae4a0618a,0.0335,0.0335,0,74,74,109,1,seveneight,,,,,,,,,,,,,,,,,,,,,,,,,,,,,,,,,,,,,,,,,,,,,,,,,,,,,,,,,,,,,,,,,,,,,,,,,,,,,,,,,,,,,,,,,,,,,,,,,,,,,,,,,,,,,,,,,,,,,,,,,,,,,,,,,,,,,,,,,
,,6346d9fda71cffd6c403c4a2,2024-02-22_04h31.13.493,kallum_motion_pilot,2023.2.2,Win32,31.74603175,6346d9fda71cffd6c403c4a2,65d6bb0e977760de756971f7,65d6be8ee75a8a6ae4a0618a,0.0335,0.0336,0,75,75,150,1,eightsix,,,,,,,,,,,,,,,,,,,,,,,,,,,,,,,,,,,,,,,,,,,,,,,,,,,,,,,,,,,,,,,,,,,,,,,,,,,,,,,,,,,,,,,,,,,,,,,,,,,,,,,,,,,,,,,,,,,,,,,,,,,,,,,,,,,,,,,,,
,,6346d9fda71cffd6c403c4a2,2024-02-22_04h31.13.493,kallum_motion_pilot,2023.2.2,Win32,31.74603175,6346d9fda71cffd6c403c4a2,65d6bb0e977760de756971f7,65d6be8ee75a8a6ae4a0618a,0.0336,0.0336,0,76,76,83,1,sixeight,,,,,,,,,,,,,,,,,,,,,,,,,,,,,,,,,,,,,,,,,,,,,,,,,,,,,,,,,,,,,,,,,,,,,,,,,,,,,,,,,,,,,,,,,,,,,,,,,,,,,,,,,,,,,,,,,,,,,,,,,,,,,,,,,,,,,,,,,
,,6346d9fda71cffd6c403c4a2,2024-02-22_04h31.13.493,kallum_motion_pilot,2023.2.2,Win32,31.74603175,6346d9fda71cffd6c403c4a2,65d6bb0e977760de756971f7,65d6be8ee75a8a6ae4a0618a,0.0337,0.0337,0,77,77,160,1,fivesix,,,,,,,,,,,,,,,,,,,,,,,,,,,,,,,,,,,,,,,,,,,,,,,,,,,,,,,,,,,,,,,,,,,,,,,,,,,,,,,,,,,,,,,,,,,,,,,,,,,,,,,,,,,,,,,,,,,,,,,,,,,,,,,,,,,,,,,,,
,,6346d9fda71cffd6c403c4a2,2024-02-22_04h31.13.493,kallum_motion_pilot,2023.2.2,Win32,31.74603175,6346d9fda71cffd6c403c4a2,65d6bb0e977760de756971f7,65d6be8ee75a8a6ae4a0618a,0.0338,0.0338,0,78,78,86,1,eightsix,,,,,,,,,,,,,,,,,,,,,,,,,,,,,,,,,,,,,,,,,,,,,,,,,,,,,,,,,,,,,,,,,,,,,,,,,,,,,,,,,,,,,,,,,,,,,,,,,,,,,,,,,,,,,,,,,,,,,,,,,,,,,,,,,,,,,,,,,
,,6346d9fda71cffd6c403c4a2,2024-02-22_04h31.13.493,kallum_motion_pilot,2023.2.2,Win32,31.74603175,6346d9fda71cffd6c403c4a2,65d6bb0e977760de756971f7,65d6be8ee75a8a6ae4a0618a,0.0339,0.0339,0,79,79,117,1,seveneight,,,,,,,,,,,,,,,,,,,,,,,,,,,,,,,,,,,,,,,,,,,,,,,,,,,,,,,,,,,,,,,,,,,,,,,,,,,,,,,,,,,,,,,,,,,,,,,,,,,,,,,,,,,,,,,,,,,,,,,,,,,,,,,,,,,,,,,,,
,,6346d9fda71cffd6c403c4a2,2024-02-22_04h31.13.493,kallum_motion_pilot,2023.2.2,Win32,31.74603175,6346d9fda71cffd6c403c4a2,65d6bb0e977760de756971f7,65d6be8ee75a8a6ae4a0618a,0.034,0.034,0,80,80,113,1,fiveseven,,,,,,,,,,,,,,,,,,,,,,,,,,,,,,,,,,,,,,,,,,,,,,,,,,,,,,,,,,,,,,,,,,,,,,,,,,,,,,,,,,,,,,,,,,,,,,,,,,,,,,,,,,,,,,,,,,,,,,,,,,,,,,,,,,,,,,,,,
,,6346d9fda71cffd6c403c4a2,2024-02-22_04h31.13.493,kallum_motion_pilot,2023.2.2,Win32,31.74603175,6346d9fda71cffd6c403c4a2,65d6bb0e977760de756971f7,65d6be8ee75a8a6ae4a0618a,0.034,0.0341,0,81,81,74,1,twoone,,,,,,,,,,,,,,,,,,,,,,,,,,,,,,,,,,,,,,,,,,,,,,,,,,,,,,,,,,,,,,,,,,,,,,,,,,,,,,,,,,,,,,,,,,,,,,,,,,,,,,,,,,,,,,,,,,,,,,,,,,,,,,,,,,,,,,,,,
,,6346d9fda71cffd6c403c4a2,2024-02-22_04h31.13.493,kallum_motion_pilot,2023.2.2,Win32,31.74603175,6346d9fda71cffd6c403c4a2,65d6bb0e977760de756971f7,65d6be8ee75a8a6ae4a0618a,0.0342,0.0342,0,82,82,115,1,sixeight,,,,,,,,,,,,,,,,,,,,,,,,,,,,,,,,,,,,,,,,,,,,,,,,,,,,,,,,,,,,,,,,,,,,,,,,,,,,,,,,,,,,,,,,,,,,,,,,,,,,,,,,,,,,,,,,,,,,,,,,,,,,,,,,,,,,,,,,,
,,6346d9fda71cffd6c403c4a2,2024-02-22_04h31.13.493,kallum_motion_pilot,2023.2.2,Win32,31.74603175,6346d9fda71cffd6c403c4a2,65d6bb0e977760de756971f7,65d6be8ee75a8a6ae4a0618a,0.0343,0.0343,0,83,83,68,1,threeone,,,,,,,,,,,,,,,,,,,,,,,,,,,,,,,,,,,,,,,,,,,,,,,,,,,,,,,,,,,,,,,,,,,,,,,,,,,,,,,,,,,,,,,,,,,,,,,,,,,,,,,,,,,,,,,,,,,,,,,,,,,,,,,,,,,,,,,,,
,,6346d9fda71cffd6c403c4a2,2024-02-22_04h31.13.493,kallum_motion_pilot,2023.2.2,Win32,31.74603175,6346d9fda71cffd6c403c4a2,65d6bb0e977760de756971f7,65d6be8ee75a8a6ae4a0618a,0.0343,0.0344,0,84,84,58,1,twoone,,,,,,,,,,,,,,,,,,,,,,,,,,,,,,,,,,,,,,,,,,,,,,,,,,,,,,,,,,,,,,,,,,,,,,,,,,,,,,,,,,,,,,,,,,,,,,,,,,,,,,,,,,,,,,,,,,,,,,,,,,,,,,,,,,,,,,,,,
,,6346d9fda71cffd6c403c4a2,2024-02-22_04h31.13.493,kallum_motion_pilot,2023.2.2,Win32,31.74603175,6346d9fda71cffd6c403c4a2,65d6bb0e977760de756971f7,65d6be8ee75a8a6ae4a0618a,0.0344,0.0345,0,85,85,103,1,eightseven,,,,,,,,,,,,,,,,,,,,,,,,,,,,,,,,,,,,,,,,,,,,,,,,,,,,,,,,,,,,,,,,,,,,,,,,,,,,,,,,,,,,,,,,,,,,,,,,,,,,,,,,,,,,,,,,,,,,,,,,,,,,,,,,,,,,,,,,,
,,6346d9fda71cffd6c403c4a2,2024-02-22_04h31.13.493,kallum_motion_pilot,2023.2.2,Win32,31.74603175,6346d9fda71cffd6c403c4a2,65d6bb0e977760de756971f7,65d6be8ee75a8a6ae4a0618a,0.0345,0.0345,0,86,86,34,1,twoone,,,,,,,,,,,,,,,,,,,,,,,,,,,,,,,,,,,,,,,,,,,,,,,,,,,,,,,,,,,,,,,,,,,,,,,,,,,,,,,,,,,,,,,,,,,,,,,,,,,,,,,,,,,,,,,,,,,,,,,,,,,,,,,,,,,,,,,,,
,,6346d9fda71cffd6c403c4a2,2024-02-22_04h31.13.493,kallum_motion_pilot,2023.2.2,Win32,31.74603175,6346d9fda71cffd6c403c4a2,65d6bb0e977760de756971f7,65d6be8ee75a8a6ae4a0618a,0.0346,0.0346,0,87,87,137,1,fiveseven,,,,,,,,,,,,,,,,,,,,,,,,,,,,,,,,,,,,,,,,,,,,,,,,,,,,,,,,,,,,,,,,,,,,,,,,,,,,,,,,,,,,,,,,,,,,,,,,,,,,,,,,,,,,,,,,,,,,,,,,,,,,,,,,,,,,,,,,,
,,6346d9fda71cffd6c403c4a2,2024-02-22_04h31.13.493,kallum_motion_pilot,2023.2.2,Win32,31.74603175,6346d9fda71cffd6c403c4a2,65d6bb0e977760de756971f7,65d6be8ee75a8a6ae4a0618a,0.0347,0.0347,0,88,88,24,1,onetwo,,,,,,,,,,,,,,,,,,,,,,,,,,,,,,,,,,,,,,,,,,,,,,,,,,,,,,,,,,,,,,,,,,,,,,,,,,,,,,,,,,,,,,,,,,,,,,,,,,,,,,,,,,,,,,,,,,,,,,,,,,,,,,,,,,,,,,,,,
,,6346d9fda71cffd6c403c4a2,2024-02-22_04h31.13.493,kallum_motion_pilot,2023.2.2,Win32,31.74603175,6346d9fda71cffd6c403c4a2,65d6bb0e977760de756971f7,65d6be8ee75a8a6ae4a0618a,0.0347,0.0348,0,89,89,157,1,seveneight,,,,,,,,,,,,,,,,,,,,,,,,,,,,,,,,,,,,,,,,,,,,,,,,,,,,,,,,,,,,,,,,,,,,,,,,,,,,,,,,,,,,,,,,,,,,,,,,,,,,,,,,,,,,,,,,,,,,,,,,,,,,,,,,,,,,,,,,,
,,6346d9fda71cffd6c403c4a2,2024-02-22_04h31.13.493,kallum_motion_pilot,2023.2.2,Win32,31.74603175,6346d9fda71cffd6c403c4a2,65d6bb0e977760de756971f7,65d6be8ee75a8a6ae4a0618a,0.0349,0.0349,0,90,90,127,1,eightseven,,,,,,,,,,,,,,,,,,,,,,,,,,,,,,,,,,,,,,,,,,,,,,,,,,,,,,,,,,,,,,,,,,,,,,,,,,,,,,,,,,,,,,,,,,,,,,,,,,,,,,,,,,,,,,,,,,,,,,,,,,,,,,,,,,,,,,,,,
,,6346d9fda71cffd6c403c4a2,2024-02-22_04h31.13.493,kallum_motion_pilot,2023.2.2,Win32,31.74603175,6346d9fda71cffd6c403c4a2,65d6bb0e977760de756971f7,65d6be8ee75a8a6ae4a0618a,0.035,0.035,0,91,91,39,1,fourthree,,,,,,,,,,,,,,,,,,,,,,,,,,,,,,,,,,,,,,,,,,,,,,,,,,,,,,,,,,,,,,,,,,,,,,,,,,,,,,,,,,,,,,,,,,,,,,,,,,,,,,,,,,,,,,,,,,,,,,,,,,,,,,,,,,,,,,,,,
,,6346d9fda71cffd6c403c4a2,2024-02-22_04h31.13.493,kallum_motion_pilot,2023.2.2,Win32,31.74603175,6346d9fda71cffd6c403c4a2,65d6bb0e977760de756971f7,65d6be8ee75a8a6ae4a0618a,0.035,0.0351,0,92,92,51,1,twofour,,,,,,,,,,,,,,,,,,,,,,,,,,,,,,,,,,,,,,,,,,,,,,,,,,,,,,,,,,,,,,,,,,,,,,,,,,,,,,,,,,,,,,,,,,,,,,,,,,,,,,,,,,,,,,,,,,,,,,,,,,,,,,,,,,,,,,,,,
,,6346d9fda71cffd6c403c4a2,2024-02-22_04h31.13.493,kallum_motion_pilot,2023.2.2,Win32,31.74603175,6346d9fda71cffd6c403c4a2,65d6bb0e977760de756971f7,65d6be8ee75a8a6ae4a0618a,0.0352,0.0352,0,93,93,114,1,sixfive,,,,,,,,,,,,,,,,,,,,,,,,,,,,,,,,,,,,,,,,,,,,,,,,,,,,,,,,,,,,,,,,,,,,,,,,,,,,,,,,,,,,,,,,,,,,,,,,,,,,,,,,,,,,,,,,,,,,,,,,,,,,,,,,,,,,,,,,,
,,6346d9fda71cffd6c403c4a2,2024-02-22_04h31.13.493,kallum_motion_pilot,2023.2.2,Win32,31.74603175,6346d9fda71cffd6c403c4a2,65d6bb0e977760de756971f7,65d6be8ee75a8a6ae4a0618a,0.0353,0.0353,0,94,94,53,1,threefour,,,,,,,,,,,,,,,,,,,,,,,,,,,,,,,,,,,,,,,,,,,,,,,,,,,,,,,,,,,,,,,,,,,,,,,,,,,,,,,,,,,,,,,,,,,,,,,,,,,,,,,,,,,,,,,,,,,,,,,,,,,,,,,,,,,,,,,,,
,,6346d9fda71cffd6c403c4a2,2024-02-22_04h31.13.493,kallum_motion_pilot,2023.2.2,Win32,31.74603175,6346d9fda71cffd6c403c4a2,65d6bb0e977760de756971f7,65d6be8ee75a8a6ae4a0618a,0.0354,0.0354,0,95,95,93,1,seveneight,,,,,,,,,,,,,,,,,,,,,,,,,,,,,,,,,,,,,,,,,,,,,,,,,,,,,,,,,,,,,,,,,,,,,,,,,,,,,,,,,,,,,,,,,,,,,,,,,,,,,,,,,,,,,,,,,,,,,,,,,,,,,,,,,,,,,,,,,
,,6346d9fda71cffd6c403c4a2,2024-02-22_04h31.13.493,kallum_motion_pilot,2023.2.2,Win32,31.74603175,6346d9fda71cffd6c403c4a2,65d6bb0e977760de756971f7,65d6be8ee75a8a6ae4a0618a,0.0354,0.0355,0,96,96,66,1,twoone,,,,,,,,,,,,,,,,,,,,,,,,,,,,,,,,,,,,,,,,,,,,,,,,,,,,,,,,,,,,,,,,,,,,,,,,,,,,,,,,,,,,,,,,,,,,,,,,,,,,,,,,,,,,,,,,,,,,,,,,,,,,,,,,,,,,,,,,,
,,6346d9fda71cffd6c403c4a2,2024-02-22_04h31.13.493,kallum_motion_pilot,2023.2.2,Win32,31.74603175,6346d9fda71cffd6c403c4a2,65d6bb0e977760de756971f7,65d6be8ee75a8a6ae4a0618a,0.0356,0.0356,0,97,97,140,1,sevenfive,,,,,,,,,,,,,,,,,,,,,,,,,,,,,,,,,,,,,,,,,,,,,,,,,,,,,,,,,,,,,,,,,,,,,,,,,,,,,,,,,,,,,,,,,,,,,,,,,,,,,,,,,,,,,,,,,,,,,,,,,,,,,,,,,,,,,,,,,
,,6346d9fda71cffd6c403c4a2,2024-02-22_04h31.13.493,kallum_motion_pilot,2023.2.2,Win32,31.74603175,6346d9fda71cffd6c403c4a2,65d6bb0e977760de756971f7,65d6be8ee75a8a6ae4a0618a,0.0357,0.0357,0,98,98,107,1,sixeight,,,,,,,,,,,,,,,,,,,,,,,,,,,,,,,,,,,,,,,,,,,,,,,,,,,,,,,,,,,,,,,,,,,,,,,,,,,,,,,,,,,,,,,,,,,,,,,,,,,,,,,,,,,,,,,,,,,,,,,,,,,,,,,,,,,,,,,,,
,,6346d9fda71cffd6c403c4a2,2024-02-22_04h31.13.493,kallum_motion_pilot,2023.2.2,Win32,31.74603175,6346d9fda71cffd6c403c4a2,65d6bb0e977760de756971f7,65d6be8ee75a8a6ae4a0618a,0.0357,0.0358,0,99,99,91,1,sixeight,,,,,,,,,,,,,,,,,,,,,,,,,,,,,,,,,,,,,,,,,,,,,,,,,,,,,,,,,,,,,,,,,,,,,,,,,,,,,,,,,,,,,,,,,,,,,,,,,,,,,,,,,,,,,,,,,,,,,,,,,,,,,,,,,,,,,,,,,
,,6346d9fda71cffd6c403c4a2,2024-02-22_04h31.13.493,kallum_motion_pilot,2023.2.2,Win32,31.74603175,6346d9fda71cffd6c403c4a2,65d6bb0e977760de756971f7,65d6be8ee75a8a6ae4a0618a,0.0358,0.0359,0,100,100,119,1,eightseven,,,,,,,,,,,,,,,,,,,,,,,,,,,,,,,,,,,,,,,,,,,,,,,,,,,,,,,,,,,,,,,,,,,,,,,,,,,,,,,,,,,,,,,,,,,,,,,,,,,,,,,,,,,,,,,,,,,,,,,,,,,,,,,,,,,,,,,,,
,,6346d9fda71cffd6c403c4a2,2024-02-22_04h31.13.493,kallum_motion_pilot,2023.2.2,Win32,31.74603175,6346d9fda71cffd6c403c4a2,65d6bb0e977760de756971f7,65d6be8ee75a8a6ae4a0618a,0.0359,0.036,0,101,101,111,1,eightseven,,,,,,,,,,,,,,,,,,,,,,,,,,,,,,,,,,,,,,,,,,,,,,,,,,,,,,,,,,,,,,,,,,,,,,,,,,,,,,,,,,,,,,,,,,,,,,,,,,,,,,,,,,,,,,,,,,,,,,,,,,,,,,,,,,,,,,,,,
,,6346d9fda71cffd6c403c4a2,2024-02-22_04h31.13.493,kallum_motion_pilot,2023.2.2,Win32,31.74603175,6346d9fda71cffd6c403c4a2,65d6bb0e977760de756971f7,65d6be8ee75a8a6ae4a0618a,0.036,0.0361,0,102,102,33,1,onethree,,,,,,,,,,,,,,,,,,,,,,,,,,,,,,,,,,,,,,,,,,,,,,,,,,,,,,,,,,,,,,,,,,,,,,,,,,,,,,,,,,,,,,,,,,,,,,,,,,,,,,,,,,,,,,,,,,,,,,,,,,,,,,,,,,,,,,,,,
,,6346d9fda71cffd6c403c4a2,2024-02-22_04h31.13.493,kallum_motion_pilot,2023.2.2,Win32,31.74603175,6346d9fda71cffd6c403c4a2,65d6bb0e977760de756971f7,65d6be8ee75a8a6ae4a0618a,0.0361,0.0362,0,103,103,125,1,seveneight,,,,,,,,,,,,,,,,,,,,,,,,,,,,,,,,,,,,,,,,,,,,,,,,,,,,,,,,,,,,,,,,,,,,,,,,,,,,,,,,,,,,,,,,,,,,,,,,,,,,,,,,,,,,,,,,,,,,,,,,,,,,,,,,,,,,,,,,,
,,6346d9fda71cffd6c403c4a2,2024-02-22_04h31.13.493,kallum_motion_pilot,2023.2.2,Win32,31.74603175,6346d9fda71cffd6c403c4a2,65d6bb0e977760de756971f7,65d6be8ee75a8a6ae4a0618a,0.0362,0.0362,0,104,104,139,1,sixeight,,,,,,,,,,,,,,,,,,,,,,,,,,,,,,,,,,,,,,,,,,,,,,,,,,,,,,,,,,,,,,,,,,,,,,,,,,,,,,,,,,,,,,,,,,,,,,,,,,,,,,,,,,,,,,,,,,,,,,,,,,,,,,,,,,,,,,,,,
,,6346d9fda71cffd6c403c4a2,2024-02-22_04h31.13.493,kallum_motion_pilot,2023.2.2,Win32,31.74603175,6346d9fda71cffd6c403c4a2,65d6bb0e977760de756971f7,65d6be8ee75a8a6ae4a0618a,0.0363,0.0363,0,105,105,72,1,onetwo,,,,,,,,,,,,,,,,,,,,,,,,,,,,,,,,,,,,,,,,,,,,,,,,,,,,,,,,,,,,,,,,,,,,,,,,,,,,,,,,,,,,,,,,,,,,,,,,,,,,,,,,,,,,,,,,,,,,,,,,,,,,,,,,,,,,,,,,,
,,6346d9fda71cffd6c403c4a2,2024-02-22_04h31.13.493,kallum_motion_pilot,2023.2.2,Win32,31.74603175,6346d9fda71cffd6c403c4a2,65d6bb0e977760de756971f7,65d6be8ee75a8a6ae4a0618a,0.0364,0.0364,0,106,106,79,1,eightseven,,,,,,,,,,,,,,,,,,,,,,,,,,,,,,,,,,,,,,,,,,,,,,,,,,,,,,,,,,,,,,,,,,,,,,,,,,,,,,,,,,,,,,,,,,,,,,,,,,,,,,,,,,,,,,,,,,,,,,,,,,,,,,,,,,,,,,,,,
,,6346d9fda71cffd6c403c4a2,2024-02-22_04h31.13.493,kallum_motion_pilot,2023.2.2,Win32,31.74603175,6346d9fda71cffd6c403c4a2,65d6bb0e977760de756971f7,65d6be8ee75a8a6ae4a0618a,0.0364,0.0364,0,107,107,29,1,threefour,,,,,,,,,,,,,,,,,,,,,,,,,,,,,,,,,,,,,,,,,,,,,,,,,,,,,,,,,,,,,,,,,,,,,,,,,,,,,,,,,,,,,,,,,,,,,,,,,,,,,,,,,,,,,,,,,,,,,,,,,,,,,,,,,,,,,,,,,
,,6346d9fda71cffd6c403c4a2,2024-02-22_04h31.13.493,kallum_motion_pilot,2023.2.2,Win32,31.74603175,6346d9fda71cffd6c403c4a2,65d6bb0e977760de756971f7,65d6be8ee75a8a6ae4a0618a,0.0365,0.0365,0,108,108,63,1,fourthree,,,,,,,,,,,,,,,,,,,,,,,,,,,,,,,,,,,,,,,,,,,,,,,,,,,,,,,,,,,,,,,,,,,,,,,,,,,,,,,,,,,,,,,,,,,,,,,,,,,,,,,,,,,,,,,,,,,,,,,,,,,,,,,,,,,,,,,,,
,,6346d9fda71cffd6c403c4a2,2024-02-22_04h31.13.493,kallum_motion_pilot,2023.2.2,Win32,31.74603175,6346d9fda71cffd6c403c4a2,65d6bb0e977760de756971f7,65d6be8ee75a8a6ae4a0618a,0.0366,0.0366,0,109,109,23,1,fourthree,,,,,,,,,,,,,,,,,,,,,,,,,,,,,,,,,,,,,,,,,,,,,,,,,,,,,,,,,,,,,,,,,,,,,,,,,,,,,,,,,,,,,,,,,,,,,,,,,,,,,,,,,,,,,,,,,,,,,,,,,,,,,,,,,,,,,,,,,
,,6346d9fda71cffd6c403c4a2,2024-02-22_04h31.13.493,kallum_motion_pilot,2023.2.2,Win32,31.74603175,6346d9fda71cffd6c403c4a2,65d6bb0e977760de756971f7,65d6be8ee75a8a6ae4a0618a,0.0367,0.0367,0,110,110,92,1,sevenfive,,,,,,,,,,,,,,,,,,,,,,,,,,,,,,,,,,,,,,,,,,,,,,,,,,,,,,,,,,,,,,,,,,,,,,,,,,,,,,,,,,,,,,,,,,,,,,,,,,,,,,,,,,,,,,,,,,,,,,,,,,,,,,,,,,,,,,,,,
,,6346d9fda71cffd6c403c4a2,2024-02-22_04h31.13.493,kallum_motion_pilot,2023.2.2,Win32,31.74603175,6346d9fda71cffd6c403c4a2,65d6bb0e977760de756971f7,65d6be8ee75a8a6ae4a0618a,0.0368,0.0368,0,111,111,75,1,twofour,,,,,,,,,,,,,,,,,,,,,,,,,,,,,,,,,,,,,,,,,,,,,,,,,,,,,,,,,,,,,,,,,,,,,,,,,,,,,,,,,,,,,,,,,,,,,,,,,,,,,,,,,,,,,,,,,,,,,,,,,,,,,,,,,,,,,,,,,
,,6346d9fda71cffd6c403c4a2,2024-02-22_04h31.13.493,kallum_motion_pilot,2023.2.2,Win32,31.74603175,6346d9fda71cffd6c403c4a2,65d6bb0e977760de756971f7,65d6be8ee75a8a6ae4a0618a,0.0369,0.0369,0,112,112,141,1,seveneight,,,,,,,,,,,,,,,,,,,,,,,,,,,,,,,,,,,,,,,,,,,,,,,,,,,,,,,,,,,,,,,,,,,,,,,,,,,,,,,,,,,,,,,,,,,,,,,,,,,,,,,,,,,,,,,,,,,,,,,,,,,,,,,,,,,,,,,,,
,,6346d9fda71cffd6c403c4a2,2024-02-22_04h31.13.493,kallum_motion_pilot,2023.2.2,Win32,31.74603175,6346d9fda71cffd6c403c4a2,65d6bb0e977760de756971f7,65d6be8ee75a8a6ae4a0618a,0.0369,0.037,0,113,113,3,1,twofour,,,,,,,,,,,,,,,,,,,,,,,,,,,,,,,,,,,,,,,,,,,,,,,,,,,,,,,,,,,,,,,,,,,,,,,,,,,,,,,,,,,,,,,,,,,,,,,,,,,,,,,,,,,,,,,,,,,,,,,,,,,,,,,,,,,,,,,,,
,,6346d9fda71cffd6c403c4a2,2024-02-22_04h31.13.493,kallum_motion_pilot,2023.2.2,Win32,31.74603175,6346d9fda71cffd6c403c4a2,65d6bb0e977760de756971f7,65d6be8ee75a8a6ae4a0618a,0.0371,0.0371,0,114,114,112,1,fivesix,,,,,,,,,,,,,,,,,,,,,,,,,,,,,,,,,,,,,,,,,,,,,,,,,,,,,,,,,,,,,,,,,,,,,,,,,,,,,,,,,,,,,,,,,,,,,,,,,,,,,,,,,,,,,,,,,,,,,,,,,,,,,,,,,,,,,,,,,
,,6346d9fda71cffd6c403c4a2,2024-02-22_04h31.13.493,kallum_motion_pilot,2023.2.2,Win32,31.74603175,6346d9fda71cffd6c403c4a2,65d6bb0e977760de756971f7,65d6be8ee75a8a6ae4a0618a,0.0372,0.0372,0,115,115,43,1,twofour,,,,,,,,,,,,,,,,,,,,,,,,,,,,,,,,,,,,,,,,,,,,,,,,,,,,,,,,,,,,,,,,,,,,,,,,,,,,,,,,,,,,,,,,,,,,,,,,,,,,,,,,,,,,,,,,,,,,,,,,,,,,,,,,,,,,,,,,,
,,6346d9fda71cffd6c403c4a2,2024-02-22_04h31.13.493,kallum_motion_pilot,2023.2.2,Win32,31.74603175,6346d9fda71cffd6c403c4a2,65d6bb0e977760de756971f7,65d6be8ee75a8a6ae4a0618a,0.0373,0.0373,0,116,116,40,1,onetwo,,,,,,,,,,,,,,,,,,,,,,,,,,,,,,,,,,,,,,,,,,,,,,,,,,,,,,,,,,,,,,,,,,,,,,,,,,,,,,,,,,,,,,,,,,,,,,,,,,,,,,,,,,,,,,,,,,,,,,,,,,,,,,,,,,,,,,,,,
,,6346d9fda71cffd6c403c4a2,2024-02-22_04h31.13.493,kallum_motion_pilot,2023.2.2,Win32,31.74603175,6346d9fda71cffd6c403c4a2,65d6bb0e977760de756971f7,65d6be8ee75a8a6ae4a0618a,0.0373,0.0373,0,117,117,44,1,threeone,,,,,,,,,,,,,,,,,,,,,,,,,,,,,,,,,,,,,,,,,,,,,,,,,,,,,,,,,,,,,,,,,,,,,,,,,,,,,,,,,,,,,,,,,,,,,,,,,,,,,,,,,,,,,,,,,,,,,,,,,,,,,,,,,,,,,,,,,
,,6346d9fda71cffd6c403c4a2,2024-02-22_04h31.13.493,kallum_motion_pilot,2023.2.2,Win32,31.74603175,6346d9fda71cffd6c403c4a2,65d6bb0e977760de756971f7,65d6be8ee75a8a6ae4a0618a,0.0395,0.0395,0,118,118,149,1,seveneight,,,,,,,,,,,,,,,,,,,,,,,,,,,,,,,,,,,,,,,,,,,,,,,,,,,,,,,,,,,,,,,,,,,,,,,,,,,,,,,,,,,,,,,,,,,,,,,,,,,,,,,,,,,,,,,,,,,,,,,,,,,,,,,,,,,,,,,,,
,,6346d9fda71cffd6c403c4a2,2024-02-22_04h31.13.493,kallum_motion_pilot,2023.2.2,Win32,31.74603175,6346d9fda71cffd6c403c4a2,65d6bb0e977760de756971f7,65d6be8ee75a8a6ae4a0618a,0.0396,0.0396,0,119,119,9,1,onethree,,,,,,,,,,,,,,,,,,,,,,,,,,,,,,,,,,,,,,,,,,,,,,,,,,,,,,,,,,,,,,,,,,,,,,,,,,,,,,,,,,,,,,,,,,,,,,,,,,,,,,,,,,,,,,,,,,,,,,,,,,,,,,,,,,,,,,,,,
,,6346d9fda71cffd6c403c4a2,2024-02-22_04h31.13.493,kallum_motion_pilot,2023.2.2,Win32,31.74603175,6346d9fda71cffd6c403c4a2,65d6bb0e977760de756971f7,65d6be8ee75a8a6ae4a0618a,0.0397,0.0397,0,120,120,158,1,eightsix,,,,,,,,,,,,,,,,,,,,,,,,,,,,,,,,,,,,,,,,,,,,,,,,,,,,,,,,,,,,,,,,,,,,,,,,,,,,,,,,,,,,,,,,,,,,,,,,,,,,,,,,,,,,,,,,,,,,,,,,,,,,,,,,,,,,,,,,,
,,6346d9fda71cffd6c403c4a2,2024-02-22_04h31.13.493,kallum_motion_pilot,2023.2.2,Win32,31.74603175,6346d9fda71cffd6c403c4a2,65d6bb0e977760de756971f7,65d6be8ee75a8a6ae4a0618a,0.0398,0.0398,0,121,121,155,1,sixeight,,,,,,,,,,,,,,,,,,,,,,,,,,,,,,,,,,,,,,,,,,,,,,,,,,,,,,,,,,,,,,,,,,,,,,,,,,,,,,,,,,,,,,,,,,,,,,,,,,,,,,,,,,,,,,,,,,,,,,,,,,,,,,,,,,,,,,,,,
,,6346d9fda71cffd6c403c4a2,2024-02-22_04h31.13.493,kallum_motion_pilot,2023.2.2,Win32,31.74603175,6346d9fda71cffd6c403c4a2,65d6bb0e977760de756971f7,65d6be8ee75a8a6ae4a0618a,0.0399,0.0399,0,122,122,61,1,threefour,,,,,,,,,,,,,,,,,,,,,,,,,,,,,,,,,,,,,,,,,,,,,,,,,,,,,,,,,,,,,,,,,,,,,,,,,,,,,,,,,,,,,,,,,,,,,,,,,,,,,,,,,,,,,,,,,,,,,,,,,,,,,,,,,,,,,,,,,
,,6346d9fda71cffd6c403c4a2,2024-02-22_04h31.13.493,kallum_motion_pilot,2023.2.2,Win32,31.74603175,6346d9fda71cffd6c403c4a2,65d6bb0e977760de756971f7,65d6be8ee75a8a6ae4a0618a,0.04,0.04,0,123,123,67,1,twofour,,,,,,,,,,,,,,,,,,,,,,,,,,,,,,,,,,,,,,,,,,,,,,,,,,,,,,,,,,,,,,,,,,,,,,,,,,,,,,,,,,,,,,,,,,,,,,,,,,,,,,,,,,,,,,,,,,,,,,,,,,,,,,,,,,,,,,,,,
,,6346d9fda71cffd6c403c4a2,2024-02-22_04h31.13.493,kallum_motion_pilot,2023.2.2,Win32,31.74603175,6346d9fda71cffd6c403c4a2,65d6bb0e977760de756971f7,65d6be8ee75a8a6ae4a0618a,0.0401,0.0401,0,124,124,99,1,sixeight,,,,,,,,,,,,,,,,,,,,,,,,,,,,,,,,,,,,,,,,,,,,,,,,,,,,,,,,,,,,,,,,,,,,,,,,,,,,,,,,,,,,,,,,,,,,,,,,,,,,,,,,,,,,,,,,,,,,,,,,,,,,,,,,,,,,,,,,,
,,6346d9fda71cffd6c403c4a2,2024-02-22_04h31.13.493,kallum_motion_pilot,2023.2.2,Win32,31.74603175,6346d9fda71cffd6c403c4a2,65d6bb0e977760de756971f7,65d6be8ee75a8a6ae4a0618a,0.0402,0.0403,0,125,125,153,1,fiveseven,,,,,,,,,,,,,,,,,,,,,,,,,,,,,,,,,,,,,,,,,,,,,,,,,,,,,,,,,,,,,,,,,,,,,,,,,,,,,,,,,,,,,,,,,,,,,,,,,,,,,,,,,,,,,,,,,,,,,,,,,,,,,,,,,,,,,,,,,
,,6346d9fda71cffd6c403c4a2,2024-02-22_04h31.13.493,kallum_motion_pilot,2023.2.2,Win32,31.74603175,6346d9fda71cffd6c403c4a2,65d6bb0e977760de756971f7,65d6be8ee75a8a6ae4a0618a,0.0403,0.0405,0,126,126,13,1,threefour,,,,,,,,,,,,,,,,,,,,,,,,,,,,,,,,,,,,,,,,,,,,,,,,,,,,,,,,,,,,,,,,,,,,,,,,,,,,,,,,,,,,,,,,,,,,,,,,,,,,,,,,,,,,,,,,,,,,,,,,,,,,,,,,,,,,,,,,,
,,6346d9fda71cffd6c403c4a2,2024-02-22_04h31.13.493,kallum_motion_pilot,2023.2.2,Win32,31.74603175,6346d9fda71cffd6c403c4a2,65d6bb0e977760de756971f7,65d6be8ee75a8a6ae4a0618a,0.0405,0.0405,0,127,127,126,1,eightsix,,,,,,,,,,,,,,,,,,,,,,,,,,,,,,,,,,,,,,,,,,,,,,,,,,,,,,,,,,,,,,,,,,,,,,,,,,,,,,,,,,,,,,,,,,,,,,,,,,,,,,,,,,,,,,,,,,,,,,,,,,,,,,,,,,,,,,,,,
,,6346d9fda71cffd6c403c4a2,2024-02-22_04h31.13.493,kallum_motion_pilot,2023.2.2,Win32,31.74603175,6346d9fda71cffd6c403c4a2,65d6bb0e977760de756971f7,65d6be8ee75a8a6ae4a0618a,0.0406,0.0406,0,128,128,7,1,fourthree,,,,,,,,,,,,,,,,,,,,,,,,,,,,,,,,,,,,,,,,,,,,,,,,,,,,,,,,,,,,,,,,,,,,,,,,,,,,,,,,,,,,,,,,,,,,,,,,,,,,,,,,,,,,,,,,,,,,,,,,,,,,,,,,,,,,,,,,,
,,6346d9fda71cffd6c403c4a2,2024-02-22_04h31.13.493,kallum_motion_pilot,2023.2.2,Win32,31.74603175,6346d9fda71cffd6c403c4a2,65d6bb0e977760de756971f7,65d6be8ee75a8a6ae4a0618a,0.0407,0.0407,0,129,129,26,1,twoone,,,,,,,,,,,,,,,,,,,,,,,,,,,,,,,,,,,,,,,,,,,,,,,,,,,,,,,,,,,,,,,,,,,,,,,,,,,,,,,,,,,,,,,,,,,,,,,,,,,,,,,,,,,,,,,,,,,,,,,,,,,,,,,,,,,,,,,,,
,,6346d9fda71cffd6c403c4a2,2024-02-22_04h31.13.493,kallum_motion_pilot,2023.2.2,Win32,31.74603175,6346d9fda71cffd6c403c4a2,65d6bb0e977760de756971f7,65d6be8ee75a8a6ae4a0618a,0.0408,0.0408,0,130,130,156,1,sevenfive,,,,,,,,,,,,,,,,,,,,,,,,,,,,,,,,,,,,,,,,,,,,,,,,,,,,,,,,,,,,,,,,,,,,,,,,,,,,,,,,,,,,,,,,,,,,,,,,,,,,,,,,,,,,,,,,,,,,,,,,,,,,,,,,,,,,,,,,,
,,6346d9fda71cffd6c403c4a2,2024-02-22_04h31.13.493,kallum_motion_pilot,2023.2.2,Win32,31.74603175,6346d9fda71cffd6c403c4a2,65d6bb0e977760de756971f7,65d6be8ee75a8a6ae4a0618a,0.0408,0.0408,0,131,131,73,1,onethree,,,,,,,,,,,,,,,,,,,,,,,,,,,,,,,,,,,,,,,,,,,,,,,,,,,,,,,,,,,,,,,,,,,,,,,,,,,,,,,,,,,,,,,,,,,,,,,,,,,,,,,,,,,,,,,,,,,,,,,,,,,,,,,,,,,,,,,,,
,,6346d9fda71cffd6c403c4a2,2024-02-22_04h31.13.493,kallum_motion_pilot,2023.2.2,Win32,31.74603175,6346d9fda71cffd6c403c4a2,65d6bb0e977760de756971f7,65d6be8ee75a8a6ae4a0618a,0.0409,0.0409,0,132,132,54,1,fourtwo,,,,,,,,,,,,,,,,,,,,,,,,,,,,,,,,,,,,,,,,,,,,,,,,,,,,,,,,,,,,,,,,,,,,,,,,,,,,,,,,,,,,,,,,,,,,,,,,,,,,,,,,,,,,,,,,,,,,,,,,,,,,,,,,,,,,,,,,,
,,6346d9fda71cffd6c403c4a2,2024-02-22_04h31.13.493,kallum_motion_pilot,2023.2.2,Win32,31.74603175,6346d9fda71cffd6c403c4a2,65d6bb0e977760de756971f7,65d6be8ee75a8a6ae4a0618a,0.041,0.0411,0,133,133,102,1,eightsix,,,,,,,,,,,,,,,,,,,,,,,,,,,,,,,,,,,,,,,,,,,,,,,,,,,,,,,,,,,,,,,,,,,,,,,,,,,,,,,,,,,,,,,,,,,,,,,,,,,,,,,,,,,,,,,,,,,,,,,,,,,,,,,,,,,,,,,,,
,,6346d9fda71cffd6c403c4a2,2024-02-22_04h31.13.493,kallum_motion_pilot,2023.2.2,Win32,31.74603175,6346d9fda71cffd6c403c4a2,65d6bb0e977760de756971f7,65d6be8ee75a8a6ae4a0618a,0.0411,0.0411,0,134,134,101,1,seveneight,,,,,,,,,,,,,,,,,,,,,,,,,,,,,,,,,,,,,,,,,,,,,,,,,,,,,,,,,,,,,,,,,,,,,,,,,,,,,,,,,,,,,,,,,,,,,,,,,,,,,,,,,,,,,,,,,,,,,,,,,,,,,,,,,,,,,,,,,
,,6346d9fda71cffd6c403c4a2,2024-02-22_04h31.13.493,kallum_motion_pilot,2023.2.2,Win32,31.74603175,6346d9fda71cffd6c403c4a2,65d6bb0e977760de756971f7,65d6be8ee75a8a6ae4a0618a,0.0412,0.0412,0,135,135,49,1,onethree,,,,,,,,,,,,,,,,,,,,,,,,,,,,,,,,,,,,,,,,,,,,,,,,,,,,,,,,,,,,,,,,,,,,,,,,,,,,,,,,,,,,,,,,,,,,,,,,,,,,,,,,,,,,,,,,,,,,,,,,,,,,,,,,,,,,,,,,,
,,6346d9fda71cffd6c403c4a2,2024-02-22_04h31.13.493,kallum_motion_pilot,2023.2.2,Win32,31.74603175,6346d9fda71cffd6c403c4a2,65d6bb0e977760de756971f7,65d6be8ee75a8a6ae4a0618a,0.0413,0.0413,0,136,136,47,1,fourthree,,,,,,,,,,,,,,,,,,,,,,,,,,,,,,,,,,,,,,,,,,,,,,,,,,,,,,,,,,,,,,,,,,,,,,,,,,,,,,,,,,,,,,,,,,,,,,,,,,,,,,,,,,,,,,,,,,,,,,,,,,,,,,,,,,,,,,,,,
,,6346d9fda71cffd6c403c4a2,2024-02-22_04h31.13.493,kallum_motion_pilot,2023.2.2,Win32,31.74603175,6346d9fda71cffd6c403c4a2,65d6bb0e977760de756971f7,65d6be8ee75a8a6ae4a0618a,0.0414,0.0415,0,137,137,27,1,twofour,,,,,,,,,,,,,,,,,,,,,,,,,,,,,,,,,,,,,,,,,,,,,,,,,,,,,,,,,,,,,,,,,,,,,,,,,,,,,,,,,,,,,,,,,,,,,,,,,,,,,,,,,,,,,,,,,,,,,,,,,,,,,,,,,,,,,,,,,
,,6346d9fda71cffd6c403c4a2,2024-02-22_04h31.13.493,kallum_motion_pilot,2023.2.2,Win32,31.74603175,6346d9fda71cffd6c403c4a2,65d6bb0e977760de756971f7,65d6be8ee75a8a6ae4a0618a,0.0415,0.0416,0,138,138,55,1,fourthree,,,,,,,,,,,,,,,,,,,,,,,,,,,,,,,,,,,,,,,,,,,,,,,,,,,,,,,,,,,,,,,,,,,,,,,,,,,,,,,,,,,,,,,,,,,,,,,,,,,,,,,,,,,,,,,,,,,,,,,,,,,,,,,,,,,,,,,,,
,,6346d9fda71cffd6c403c4a2,2024-02-22_04h31.13.493,kallum_motion_pilot,2023.2.2,Win32,31.74603175,6346d9fda71cffd6c403c4a2,65d6bb0e977760de756971f7,65d6be8ee75a8a6ae4a0618a,0.0417,0.0417,0,139,139,94,1,eightsix,,,,,,,,,,,,,,,,,,,,,,,,,,,,,,,,,,,,,,,,,,,,,,,,,,,,,,,,,,,,,,,,,,,,,,,,,,,,,,,,,,,,,,,,,,,,,,,,,,,,,,,,,,,,,,,,,,,,,,,,,,,,,,,,,,,,,,,,,
,,6346d9fda71cffd6c403c4a2,2024-02-22_04h31.13.493,kallum_motion_pilot,2023.2.2,Win32,31.74603175,6346d9fda71cffd6c403c4a2,65d6bb0e977760de756971f7,65d6be8ee75a8a6ae4a0618a,0.0418,0.0418,0,140,140,85,1,seveneight,,,,,,,,,,,,,,,,,,,,,,,,,,,,,,,,,,,,,,,,,,,,,,,,,,,,,,,,,,,,,,,,,,,,,,,,,,,,,,,,,,,,,,,,,,,,,,,,,,,,,,,,,,,,,,,,,,,,,,,,,,,,,,,,,,,,,,,,,
,,6346d9fda71cffd6c403c4a2,2024-02-22_04h31.13.493,kallum_motion_pilot,2023.2.2,Win32,31.74603175,6346d9fda71cffd6c403c4a2,65d6bb0e977760de756971f7,65d6be8ee75a8a6ae4a0618a,0.0418,0.0419,0,141,141,132,1,sevenfive,,,,,,,,,,,,,,,,,,,,,,,,,,,,,,,,,,,,,,,,,,,,,,,,,,,,,,,,,,,,,,,,,,,,,,,,,,,,,,,,,,,,,,,,,,,,,,,,,,,,,,,,,,,,,,,,,,,,,,,,,,,,,,,,,,,,,,,,,
,,6346d9fda71cffd6c403c4a2,2024-02-22_04h31.13.493,kallum_motion_pilot,2023.2.2,Win32,31.74603175,6346d9fda71cffd6c403c4a2,65d6bb0e977760de756971f7,65d6be8ee75a8a6ae4a0618a,0.042,0.042,0,142,142,46,1,fourtwo,,,,,,,,,,,,,,,,,,,,,,,,,,,,,,,,,,,,,,,,,,,,,,,,,,,,,,,,,,,,,,,,,,,,,,,,,,,,,,,,,,,,,,,,,,,,,,,,,,,,,,,,,,,,,,,,,,,,,,,,,,,,,,,,,,,,,,,,,
,,6346d9fda71cffd6c403c4a2,2024-02-22_04h31.13.493,kallum_motion_pilot,2023.2.2,Win32,31.74603175,6346d9fda71cffd6c403c4a2,65d6bb0e977760de756971f7,65d6be8ee75a8a6ae4a0618a,0.042,0.042,0,143,143,12,1,threeone,,,,,,,,,,,,,,,,,,,,,,,,,,,,,,,,,,,,,,,,,,,,,,,,,,,,,,,,,,,,,,,,,,,,,,,,,,,,,,,,,,,,,,,,,,,,,,,,,,,,,,,,,,,,,,,,,,,,,,,,,,,,,,,,,,,,,,,,,
,,6346d9fda71cffd6c403c4a2,2024-02-22_04h31.13.493,kallum_motion_pilot,2023.2.2,Win32,31.74603175,6346d9fda71cffd6c403c4a2,65d6bb0e977760de756971f7,65d6be8ee75a8a6ae4a0618a,0.0421,0.0421,0,144,144,2,1,twoone,,,,,,,,,,,,,,,,,,,,,,,,,,,,,,,,,,,,,,,,,,,,,,,,,,,,,,,,,,,,,,,,,,,,,,,,,,,,,,,,,,,,,,,,,,,,,,,,,,,,,,,,,,,,,,,,,,,,,,,,,,,,,,,,,,,,,,,,,
,,6346d9fda71cffd6c403c4a2,2024-02-22_04h31.13.493,kallum_motion_pilot,2023.2.2,Win32,31.74603175,6346d9fda71cffd6c403c4a2,65d6bb0e977760de756971f7,65d6be8ee75a8a6ae4a0618a,0.0421,0.0422,0,145,145,48,1,onetwo,,,,,,,,,,,,,,,,,,,,,,,,,,,,,,,,,,,,,,,,,,,,,,,,,,,,,,,,,,,,,,,,,,,,,,,,,,,,,,,,,,,,,,,,,,,,,,,,,,,,,,,,,,,,,,,,,,,,,,,,,,,,,,,,,,,,,,,,,
,,6346d9fda71cffd6c403c4a2,2024-02-22_04h31.13.493,kallum_motion_pilot,2023.2.2,Win32,31.74603175,6346d9fda71cffd6c403c4a2,65d6bb0e977760de756971f7,65d6be8ee75a8a6ae4a0618a,0.0422,0.0423,0,146,146,96,1,fivesix,,,,,,,,,,,,,,,,,,,,,,,,,,,,,,,,,,,,,,,,,,,,,,,,,,,,,,,,,,,,,,,,,,,,,,,,,,,,,,,,,,,,,,,,,,,,,,,,,,,,,,,,,,,,,,,,,,,,,,,,,,,,,,,,,,,,,,,,,
,,6346d9fda71cffd6c403c4a2,2024-02-22_04h31.13.493,kallum_motion_pilot,2023.2.2,Win32,31.74603175,6346d9fda71cffd6c403c4a2,65d6bb0e977760de756971f7,65d6be8ee75a8a6ae4a0618a,0.0424,0.0424,0,147,147,118,1,eightsix,,,,,,,,,,,,,,,,,,,,,,,,,,,,,,,,,,,,,,,,,,,,,,,,,,,,,,,,,,,,,,,,,,,,,,,,,,,,,,,,,,,,,,,,,,,,,,,,,,,,,,,,,,,,,,,,,,,,,,,,,,,,,,,,,,,,,,,,,
,,6346d9fda71cffd6c403c4a2,2024-02-22_04h31.13.493,kallum_motion_pilot,2023.2.2,Win32,31.74603175,6346d9fda71cffd6c403c4a2,65d6bb0e977760de756971f7,65d6be8ee75a8a6ae4a0618a,0.0425,0.0425,0,148,148,154,1,sixfive,,,,,,,,,,,,,,,,,,,,,,,,,,,,,,,,,,,,,,,,,,,,,,,,,,,,,,,,,,,,,,,,,,,,,,,,,,,,,,,,,,,,,,,,,,,,,,,,,,,,,,,,,,,,,,,,,,,,,,,,,,,,,,,,,,,,,,,,,
,,6346d9fda71cffd6c403c4a2,2024-02-22_04h31.13.493,kallum_motion_pilot,2023.2.2,Win32,31.74603175,6346d9fda71cffd6c403c4a2,65d6bb0e977760de756971f7,65d6be8ee75a8a6ae4a0618a,0.0425,0.0426,0,149,149,108,1,sevenfive,,,,,,,,,,,,,,,,,,,,,,,,,,,,,,,,,,,,,,,,,,,,,,,,,,,,,,,,,,,,,,,,,,,,,,,,,,,,,,,,,,,,,,,,,,,,,,,,,,,,,,,,,,,,,,,,,,,,,,,,,,,,,,,,,,,,,,,,,
,,6346d9fda71cffd6c403c4a2,2024-02-22_04h31.13.493,kallum_motion_pilot,2023.2.2,Win32,31.74603175,6346d9fda71cffd6c403c4a2,65d6bb0e977760de756971f7,65d6be8ee75a8a6ae4a0618a,0.0426,0.0427,0,150,150,144,1,fivesix,,,,,,,,,,,,,,,,,,,,,,,,,,,,,,,,,,,,,,,,,,,,,,,,,,,,,,,,,,,,,,,,,,,,,,,,,,,,,,,,,,,,,,,,,,,,,,,,,,,,,,,,,,,,,,,,,,,,,,,,,,,,,,,,,,,,,,,,,
,,6346d9fda71cffd6c403c4a2,2024-02-22_04h31.13.493,kallum_motion_pilot,2023.2.2,Win32,31.74603175,6346d9fda71cffd6c403c4a2,65d6bb0e977760de756971f7,65d6be8ee75a8a6ae4a0618a,0.0427,0.0427,0,151,151,56,1,onetwo,,,,,,,,,,,,,,,,,,,,,,,,,,,,,,,,,,,,,,,,,,,,,,,,,,,,,,,,,,,,,,,,,,,,,,,,,,,,,,,,,,,,,,,,,,,,,,,,,,,,,,,,,,,,,,,,,,,,,,,,,,,,,,,,,,,,,,,,,
,,6346d9fda71cffd6c403c4a2,2024-02-22_04h31.13.493,kallum_motion_pilot,2023.2.2,Win32,31.74603175,6346d9fda71cffd6c403c4a2,65d6bb0e977760de756971f7,65d6be8ee75a8a6ae4a0618a,0.0428,0.0429,0,152,152,135,1,eightseven,,,,,,,,,,,,,,,,,,,,,,,,,,,,,,,,,,,,,,,,,,,,,,,,,,,,,,,,,,,,,,,,,,,,,,,,,,,,,,,,,,,,,,,,,,,,,,,,,,,,,,,,,,,,,,,,,,,,,,,,,,,,,,,,,,,,,,,,,
,,6346d9fda71cffd6c403c4a2,2024-02-22_04h31.13.493,kallum_motion_pilot,2023.2.2,Win32,31.74603175,6346d9fda71cffd6c403c4a2,65d6bb0e977760de756971f7,65d6be8ee75a8a6ae4a0618a,0.043,0.043,0,153,153,95,1,eightseven,,,,,,,,,,,,,,,,,,,,,,,,,,,,,,,,,,,,,,,,,,,,,,,,,,,,,,,,,,,,,,,,,,,,,,,,,,,,,,,,,,,,,,,,,,,,,,,,,,,,,,,,,,,,,,,,,,,,,,,,,,,,,,,,,,,,,,,,,
,,6346d9fda71cffd6c403c4a2,2024-02-22_04h31.13.493,kallum_motion_pilot,2023.2.2,Win32,31.74603175,6346d9fda71cffd6c403c4a2,65d6bb0e977760de756971f7,65d6be8ee75a8a6ae4a0618a,0.043,0.043,0,154,154,22,1,fourtwo,,,,,,,,,,,,,,,,,,,,,,,,,,,,,,,,,,,,,,,,,,,,,,,,,,,,,,,,,,,,,,,,,,,,,,,,,,,,,,,,,,,,,,,,,,,,,,,,,,,,,,,,,,,,,,,,,,,,,,,,,,,,,,,,,,,,,,,,,
,,6346d9fda71cffd6c403c4a2,2024-02-22_04h31.13.493,kallum_motion_pilot,2023.2.2,Win32,31.74603175,6346d9fda71cffd6c403c4a2,65d6bb0e977760de756971f7,65d6be8ee75a8a6ae4a0618a,0.0431,0.0432,0,155,155,25,1,onethree,,,,,,,,,,,,,,,,,,,,,,,,,,,,,,,,,,,,,,,,,,,,,,,,,,,,,,,,,,,,,,,,,,,,,,,,,,,,,,,,,,,,,,,,,,,,,,,,,,,,,,,,,,,,,,,,,,,,,,,,,,,,,,,,,,,,,,,,,
,,6346d9fda71cffd6c403c4a2,2024-02-22_04h31.13.493,kallum_motion_pilot,2023.2.2,Win32,31.74603175,6346d9fda71cffd6c403c4a2,65d6bb0e977760de756971f7,65d6be8ee75a8a6ae4a0618a,0.0432,0.0432,0,156,156,28,1,threeone,,,,,,,,,,,,,,,,,,,,,,,,,,,,,,,,,,,,,,,,,,,,,,,,,,,,,,,,,,,,,,,,,,,,,,,,,,,,,,,,,,,,,,,,,,,,,,,,,,,,,,,,,,,,,,,,,,,,,,,,,,,,,,,,,,,,,,,,,
,,6346d9fda71cffd6c403c4a2,2024-02-22_04h31.13.493,kallum_motion_pilot,2023.2.2,Win32,31.74603175,6346d9fda71cffd6c403c4a2,65d6bb0e977760de756971f7,65d6be8ee75a8a6ae4a0618a,0.0433,0.0434,0,157,157,59,1,twofour,,,,,,,,,,,,,,,,,,,,,,,,,,,,,,,,,,,,,,,,,,,,,,,,,,,,,,,,,,,,,,,,,,,,,,,,,,,,,,,,,,,,,,,,,,,,,,,,,,,,,,,,,,,,,,,,,,,,,,,,,,,,,,,,,,,,,,,,,
,,6346d9fda71cffd6c403c4a2,2024-02-22_04h31.13.493,kallum_motion_pilot,2023.2.2,Win32,31.74603175,6346d9fda71cffd6c403c4a2,65d6bb0e977760de756971f7,65d6be8ee75a8a6ae4a0618a,0.0434,0.0434,0,158,158,14,1,fourtwo,,,,,,,,,,,,,,,,,,,,,,,,,,,,,,,,,,,,,,,,,,,,,,,,,,,,,,,,,,,,,,,,,,,,,,,,,,,,,,,,,,,,,,,,,,,,,,,,,,,,,,,,,,,,,,,,,,,,,,,,,,,,,,,,,,,,,,,,,
,,6346d9fda71cffd6c403c4a2,2024-02-22_04h31.13.493,kallum_motion_pilot,2023.2.2,Win32,31.74603175,6346d9fda71cffd6c403c4a2,65d6bb0e977760de756971f7,65d6be8ee75a8a6ae4a0618a,0.0434,0.0435,0,159,159,18,1,twoone,,,,,,,,,,,,,,,,,,,,,,,,,,,,,,,,,,,,,,,,,,,,,,,,,,,,,,,,,,,,,,,,,,,,,,,,,,,,,,,,,,,,,,,,,,,,,,,,,,,,,,,,,,,,,,,,,,,,,,,,,,,,,,,,,,,,,,,,,
,,6346d9fda71cffd6c403c4a2,2024-02-22_04h31.13.493,kallum_motion_pilot,2023.2.2,Win32,31.74603175,6346d9fda71cffd6c403c4a2,65d6bb0e977760de756971f7,65d6be8ee75a8a6ae4a0618a,0.0435,0.0435,0,160,160,82,1,sixfive,,,,,,,,,,,,,,,,,,,,,,,,,,,,,,,,,,,,,,,,,,,,,,,,,,,,,,,,,,,,,,,,,,,,,,,,,,,,,,,,,,,,,,,,,,,,,,,,,,,,,,,,,,,,,,,,,,,,,,,,,,,,,,,,,,,,,,,,,
,,6346d9fda71cffd6c403c4a2,2024-02-22_04h31.13.493,kallum_motion_pilot,2023.2.2,Win32,31.74603175,6346d9fda71cffd6c403c4a2,65d6bb0e977760de756971f7,65d6be8ee75a8a6ae4a0618a,0.0437,0.0437,0,161,161,159,1,eightseven,,,,,,,,,,,,,,,,,,,,,,,,,,,,,,,,,,,,,,,,,,,,,,,,,,,,,,,,,,,,,,,,,,,,,,,,,,,,,,,,,,,,,,,,,,,,,,,,,,,,,,,,,,,,,,,,,,,,,,,,,,,,,,,,,,,,,,,,,
,,6346d9fda71cffd6c403c4a2,2024-02-22_04h31.13.493,kallum_motion_pilot,2023.2.2,Win32,31.74603175,6346d9fda71cffd6c403c4a2,65d6bb0e977760de756971f7,65d6be8ee75a8a6ae4a0618a,0.0438,0.0438,1,0,162,128,1,fivesix,,,,,,,,,,,,,,,,,,,,,,,,,,,,,,,,,,,,,,,,,,,,,,,,,,,,,,,,,,,,,,,,,,,,,,,,,,,,,,,,,,,,,,,,,,,,,,,,,,,,,,,,,,,,,,,,,,,,,,,,,,,,,,,,,,,,,,,,,
,,6346d9fda71cffd6c403c4a2,2024-02-22_04h31.13.493,kallum_motion_pilot,2023.2.2,Win32,31.74603175,6346d9fda71cffd6c403c4a2,65d6bb0e977760de756971f7,65d6be8ee75a8a6ae4a0618a,0.0438,0.0439,1,1,163,21,1,threefour,,,,,,,,,,,,,,,,,,,,,,,,,,,,,,,,,,,,,,,,,,,,,,,,,,,,,,,,,,,,,,,,,,,,,,,,,,,,,,,,,,,,,,,,,,,,,,,,,,,,,,,,,,,,,,,,,,,,,,,,,,,,,,,,,,,,,,,,,
,,6346d9fda71cffd6c403c4a2,2024-02-22_04h31.13.493,kallum_motion_pilot,2023.2.2,Win32,31.74603175,6346d9fda71cffd6c403c4a2,65d6bb0e977760de756971f7,65d6be8ee75a8a6ae4a0618a,0.044,0.044,1,2,164,130,1,sixfive,,,,,,,,,,,,,,,,,,,,,,,,,,,,,,,,,,,,,,,,,,,,,,,,,,,,,,,,,,,,,,,,,,,,,,,,,,,,,,,,,,,,,,,,,,,,,,,,,,,,,,,,,,,,,,,,,,,,,,,,,,,,,,,,,,,,,,,,,
,,6346d9fda71cffd6c403c4a2,2024-02-22_04h31.13.493,kallum_motion_pilot,2023.2.2,Win32,31.74603175,6346d9fda71cffd6c403c4a2,65d6bb0e977760de756971f7,65d6be8ee75a8a6ae4a0618a,0.044,0.044,1,3,165,49,1,onethree,,,,,,,,,,,,,,,,,,,,,,,,,,,,,,,,,,,,,,,,,,,,,,,,,,,,,,,,,,,,,,,,,,,,,,,,,,,,,,,,,,,,,,,,,,,,,,,,,,,,,,,,,,,,,,,,,,,,,,,,,,,,,,,,,,,,,,,,,
,,6346d9fda71cffd6c403c4a2,2024-02-22_04h31.13.493,kallum_motion_pilot,2023.2.2,Win32,31.74603175,6346d9fda71cffd6c403c4a2,65d6bb0e977760de756971f7,65d6be8ee75a8a6ae4a0618a,0.0441,0.0441,1,4,166,134,1,eightsix,,,,,,,,,,,,,,,,,,,,,,,,,,,,,,,,,,,,,,,,,,,,,,,,,,,,,,,,,,,,,,,,,,,,,,,,,,,,,,,,,,,,,,,,,,,,,,,,,,,,,,,,,,,,,,,,,,,,,,,,,,,,,,,,,,,,,,,,,
,,6346d9fda71cffd6c403c4a2,2024-02-22_04h31.13.493,kallum_motion_pilot,2023.2.2,Win32,31.74603175,6346d9fda71cffd6c403c4a2,65d6bb0e977760de756971f7,65d6be8ee75a8a6ae4a0618a,0.0443,0.0443,1,5,167,20,1,threeone,,,,,,,,,,,,,,,,,,,,,,,,,,,,,,,,,,,,,,,,,,,,,,,,,,,,,,,,,,,,,,,,,,,,,,,,,,,,,,,,,,,,,,,,,,,,,,,,,,,,,,,,,,,,,,,,,,,,,,,,,,,,,,,,,,,,,,,,,
,,6346d9fda71cffd6c403c4a2,2024-02-22_04h31.13.493,kallum_motion_pilot,2023.2.2,Win32,31.74603175,6346d9fda71cffd6c403c4a2,65d6bb0e977760de756971f7,65d6be8ee75a8a6ae4a0618a,0.0443,0.0443,1,6,168,68,1,threeone,,,,,,,,,,,,,,,,,,,,,,,,,,,,,,,,,,,,,,,,,,,,,,,,,,,,,,,,,,,,,,,,,,,,,,,,,,,,,,,,,,,,,,,,,,,,,,,,,,,,,,,,,,,,,,,,,,,,,,,,,,,,,,,,,,,,,,,,,
,,6346d9fda71cffd6c403c4a2,2024-02-22_04h31.13.493,kallum_motion_pilot,2023.2.2,Win32,31.74603175,6346d9fda71cffd6c403c4a2,65d6bb0e977760de756971f7,65d6be8ee75a8a6ae4a0618a,0.0444,0.0444,1,7,169,147,1,sixeight,,,,,,,,,,,,,,,,,,,,,,,,,,,,,,,,,,,,,,,,,,,,,,,,,,,,,,,,,,,,,,,,,,,,,,,,,,,,,,,,,,,,,,,,,,,,,,,,,,,,,,,,,,,,,,,,,,,,,,,,,,,,,,,,,,,,,,,,,
,,6346d9fda71cffd6c403c4a2,2024-02-22_04h31.13.493,kallum_motion_pilot,2023.2.2,Win32,31.74603175,6346d9fda71cffd6c403c4a2,65d6bb0e977760de756971f7,65d6be8ee75a8a6ae4a0618a,0.0445,0.0446,1,8,170,98,1,sixfive,,,,,,,,,,,,,,,,,,,,,,,,,,,,,,,,,,,,,,,,,,,,,,,,,,,,,,,,,,,,,,,,,,,,,,,,,,,,,,,,,,,,,,,,,,,,,,,,,,,,,,,,,,,,,,,,,,,,,,,,,,,,,,,,,,,,,,,,,
,,6346d9fda71cffd6c403c4a2,2024-02-22_04h31.13.493,kallum_motion_pilot,2023.2.2,Win32,31.74603175,6346d9fda71cffd6c403c4a2,65d6bb0e977760de756971f7,65d6be8ee75a8a6ae4a0618a,0.0447,0.0447,1,9,171,120,1,fivesix,,,,,,,,,,,,,,,,,,,,,,,,,,,,,,,,,,,,,,,,,,,,,,,,,,,,,,,,,,,,,,,,,,,,,,,,,,,,,,,,,,,,,,,,,,,,,,,,,,,,,,,,,,,,,,,,,,,,,,,,,,,,,,,,,,,,,,,,,
,,6346d9fda71cffd6c403c4a2,2024-02-22_04h31.13.493,kallum_motion_pilot,2023.2.2,Win32,31.74603175,6346d9fda71cffd6c403c4a2,65d6bb0e977760de756971f7,65d6be8ee75a8a6ae4a0618a,0.0448,0.0448,1,10,172,41,1,onethree,,,,,,,,,,,,,,,,,,,,,,,,,,,,,,,,,,,,,,,,,,,,,,,,,,,,,,,,,,,,,,,,,,,,,,,,,,,,,,,,,,,,,,,,,,,,,,,,,,,,,,,,,,,,,,,,,,,,,,,,,,,,,,,,,,,,,,,,,
,,6346d9fda71cffd6c403c4a2,2024-02-22_04h31.13.493,kallum_motion_pilot,2023.2.2,Win32,31.74603175,6346d9fda71cffd6c403c4a2,65d6bb0e977760de756971f7,65d6be8ee75a8a6ae4a0618a,0.0448,0.0448,1,11,173,48,1,onetwo,,,,,,,,,,,,,,,,,,,,,,,,,,,,,,,,,,,,,,,,,,,,,,,,,,,,,,,,,,,,,,,,,,,,,,,,,,,,,,,,,,,,,,,,,,,,,,,,,,,,,,,,,,,,,,,,,,,,,,,,,,,,,,,,,,,,,,,,,
,,6346d9fda71cffd6c403c4a2,2024-02-22_04h31.13.493,kallum_motion_pilot,2023.2.2,Win32,31.74603175,6346d9fda71cffd6c403c4a2,65d6bb0e977760de756971f7,65d6be8ee75a8a6ae4a0618a,0.0449,0.0449,1,12,174,54,1,fourtwo,,,,,,,,,,,,,,,,,,,,,,,,,,,,,,,,,,,,,,,,,,,,,,,,,,,,,,,,,,,,,,,,,,,,,,,,,,,,,,,,,,,,,,,,,,,,,,,,,,,,,,,,,,,,,,,,,,,,,,,,,,,,,,,,,,,,,,,,,
,,6346d9fda71cffd6c403c4a2,2024-02-22_04h31.13.493,kallum_motion_pilot,2023.2.2,Win32,31.74603175,6346d9fda71cffd6c403c4a2,65d6bb0e977760de756971f7,65d6be8ee75a8a6ae4a0618a,0.045,0.045,1,13,175,19,1,twofour,,,,,,,,,,,,,,,,,,,,,,,,,,,,,,,,,,,,,,,,,,,,,,,,,,,,,,,,,,,,,,,,,,,,,,,,,,,,,,,,,,,,,,,,,,,,,,,,,,,,,,,,,,,,,,,,,,,,,,,,,,,,,,,,,,,,,,,,,
,,6346d9fda71cffd6c403c4a2,2024-02-22_04h31.13.493,kallum_motion_pilot,2023.2.2,Win32,31.74603175,6346d9fda71cffd6c403c4a2,65d6bb0e977760de756971f7,65d6be8ee75a8a6ae4a0618a,0.0452,0.0452,1,14,176,129,1,fiveseven,,,,,,,,,,,,,,,,,,,,,,,,,,,,,,,,,,,,,,,,,,,,,,,,,,,,,,,,,,,,,,,,,,,,,,,,,,,,,,,,,,,,,,,,,,,,,,,,,,,,,,,,,,,,,,,,,,,,,,,,,,,,,,,,,,,,,,,,,
,,6346d9fda71cffd6c403c4a2,2024-02-22_04h31.13.493,kallum_motion_pilot,2023.2.2,Win32,31.74603175,6346d9fda71cffd6c403c4a2,65d6bb0e977760de756971f7,65d6be8ee75a8a6ae4a0618a,0.0453,0.0453,1,15,177,22,1,fourtwo,,,,,,,,,,,,,,,,,,,,,,,,,,,,,,,,,,,,,,,,,,,,,,,,,,,,,,,,,,,,,,,,,,,,,,,,,,,,,,,,,,,,,,,,,,,,,,,,,,,,,,,,,,,,,,,,,,,,,,,,,,,,,,,,,,,,,,,,,
,,6346d9fda71cffd6c403c4a2,2024-02-22_04h31.13.493,kallum_motion_pilot,2023.2.2,Win32,31.74603175,6346d9fda71cffd6c403c4a2,65d6bb0e977760de756971f7,65d6be8ee75a8a6ae4a0618a,0.0453,0.0453,1,16,178,94,1,eightsix,,,,,,,,,,,,,,,,,,,,,,,,,,,,,,,,,,,,,,,,,,,,,,,,,,,,,,,,,,,,,,,,,,,,,,,,,,,,,,,,,,,,,,,,,,,,,,,,,,,,,,,,,,,,,,,,,,,,,,,,,,,,,,,,,,,,,,,,,
,,6346d9fda71cffd6c403c4a2,2024-02-22_04h31.13.493,kallum_motion_pilot,2023.2.2,Win32,31.74603175,6346d9fda71cffd6c403c4a2,65d6bb0e977760de756971f7,65d6be8ee75a8a6ae4a0618a,0.0454,0.0455,1,17,179,16,1,onetwo,,,,,,,,,,,,,,,,,,,,,,,,,,,,,,,,,,,,,,,,,,,,,,,,,,,,,,,,,,,,,,,,,,,,,,,,,,,,,,,,,,,,,,,,,,,,,,,,,,,,,,,,,,,,,,,,,,,,,,,,,,,,,,,,,,,,,,,,,
,,6346d9fda71cffd6c403c4a2,2024-02-22_04h31.13.493,kallum_motion_pilot,2023.2.2,Win32,31.74603175,6346d9fda71cffd6c403c4a2,65d6bb0e977760de756971f7,65d6be8ee75a8a6ae4a0618a,0.0455,0.0455,1,18,180,90,1,sixfive,,,,,,,,,,,,,,,,,,,,,,,,,,,,,,,,,,,,,,,,,,,,,,,,,,,,,,,,,,,,,,,,,,,,,,,,,,,,,,,,,,,,,,,,,,,,,,,,,,,,,,,,,,,,,,,,,,,,,,,,,,,,,,,,,,,,,,,,,
,,6346d9fda71cffd6c403c4a2,2024-02-22_04h31.13.493,kallum_motion_pilot,2023.2.2,Win32,31.74603175,6346d9fda71cffd6c403c4a2,65d6bb0e977760de756971f7,65d6be8ee75a8a6ae4a0618a,0.0456,0.0456,1,19,181,83,1,sixeight,,,,,,,,,,,,,,,,,,,,,,,,,,,,,,,,,,,,,,,,,,,,,,,,,,,,,,,,,,,,,,,,,,,,,,,,,,,,,,,,,,,,,,,,,,,,,,,,,,,,,,,,,,,,,,,,,,,,,,,,,,,,,,,,,,,,,,,,,
,,6346d9fda71cffd6c403c4a2,2024-02-22_04h31.13.493,kallum_motion_pilot,2023.2.2,Win32,31.74603175,6346d9fda71cffd6c403c4a2,65d6bb0e977760de756971f7,65d6be8ee75a8a6ae4a0618a,0.0457,0.0457,1,20,182,104,1,fivesix,,,,,,,,,,,,,,,,,,,,,,,,,,,,,,,,,,,,,,,,,,,,,,,,,,,,,,,,,,,,,,,,,,,,,,,,,,,,,,,,,,,,,,,,,,,,,,,,,,,,,,,,,,,,,,,,,,,,,,,,,,,,,,,,,,,,,,,,,
,,6346d9fda71cffd6c403c4a2,2024-02-22_04h31.13.493,kallum_motion_pilot,2023.2.2,Win32,31.74603175,6346d9fda71cffd6c403c4a2,65d6bb0e977760de756971f7,65d6be8ee75a8a6ae4a0618a,0.0458,0.0458,1,21,183,38,1,fourtwo,,,,,,,,,,,,,,,,,,,,,,,,,,,,,,,,,,,,,,,,,,,,,,,,,,,,,,,,,,,,,,,,,,,,,,,,,,,,,,,,,,,,,,,,,,,,,,,,,,,,,,,,,,,,,,,,,,,,,,,,,,,,,,,,,,,,,,,,,
,,6346d9fda71cffd6c403c4a2,2024-02-22_04h31.13.493,kallum_motion_pilot,2023.2.2,Win32,31.74603175,6346d9fda71cffd6c403c4a2,65d6bb0e977760de756971f7,65d6be8ee75a8a6ae4a0618a,0.0458,0.0459,1,22,184,91,1,sixeight,,,,,,,,,,,,,,,,,,,,,,,,,,,,,,,,,,,,,,,,,,,,,,,,,,,,,,,,,,,,,,,,,,,,,,,,,,,,,,,,,,,,,,,,,,,,,,,,,,,,,,,,,,,,,,,,,,,,,,,,,,,,,,,,,,,,,,,,,
,,6346d9fda71cffd6c403c4a2,2024-02-22_04h31.13.493,kallum_motion_pilot,2023.2.2,Win32,31.74603175,6346d9fda71cffd6c403c4a2,65d6bb0e977760de756971f7,65d6be8ee75a8a6ae4a0618a,0.046,0.0461,1,23,185,88,1,fivesix,,,,,,,,,,,,,,,,,,,,,,,,,,,,,,,,,,,,,,,,,,,,,,,,,,,,,,,,,,,,,,,,,,,,,,,,,,,,,,,,,,,,,,,,,,,,,,,,,,,,,,,,,,,,,,,,,,,,,,,,,,,,,,,,,,,,,,,,,
,,6346d9fda71cffd6c403c4a2,2024-02-22_04h31.13.493,kallum_motion_pilot,2023.2.2,Win32,31.74603175,6346d9fda71cffd6c403c4a2,65d6bb0e977760de756971f7,65d6be8ee75a8a6ae4a0618a,0.0461,0.0461,1,24,186,40,1,onetwo,,,,,,,,,,,,,,,,,,,,,,,,,,,,,,,,,,,,,,,,,,,,,,,,,,,,,,,,,,,,,,,,,,,,,,,,,,,,,,,,,,,,,,,,,,,,,,,,,,,,,,,,,,,,,,,,,,,,,,,,,,,,,,,,,,,,,,,,,
,,6346d9fda71cffd6c403c4a2,2024-02-22_04h31.13.493,kallum_motion_pilot,2023.2.2,Win32,31.74603175,6346d9fda71cffd6c403c4a2,65d6bb0e977760de756971f7,65d6be8ee75a8a6ae4a0618a,0.0462,0.0462,1,25,187,30,1,fourtwo,,,,,,,,,,,,,,,,,,,,,,,,,,,,,,,,,,,,,,,,,,,,,,,,,,,,,,,,,,,,,,,,,,,,,,,,,,,,,,,,,,,,,,,,,,,,,,,,,,,,,,,,,,,,,,,,,,,,,,,,,,,,,,,,,,,,,,,,,
,,6346d9fda71cffd6c403c4a2,2024-02-22_04h31.13.493,kallum_motion_pilot,2023.2.2,Win32,31.74603175,6346d9fda71cffd6c403c4a2,65d6bb0e977760de756971f7,65d6be8ee75a8a6ae4a0618a,0.0463,0.0463,1,26,188,44,1,threeone,,,,,,,,,,,,,,,,,,,,,,,,,,,,,,,,,,,,,,,,,,,,,,,,,,,,,,,,,,,,,,,,,,,,,,,,,,,,,,,,,,,,,,,,,,,,,,,,,,,,,,,,,,,,,,,,,,,,,,,,,,,,,,,,,,,,,,,,,
,,6346d9fda71cffd6c403c4a2,2024-02-22_04h31.13.493,kallum_motion_pilot,2023.2.2,Win32,31.74603175,6346d9fda71cffd6c403c4a2,65d6bb0e977760de756971f7,65d6be8ee75a8a6ae4a0618a,0.0464,0.0465,1,27,189,85,1,seveneight,,,,,,,,,,,,,,,,,,,,,,,,,,,,,,,,,,,,,,,,,,,,,,,,,,,,,,,,,,,,,,,,,,,,,,,,,,,,,,,,,,,,,,,,,,,,,,,,,,,,,,,,,,,,,,,,,,,,,,,,,,,,,,,,,,,,,,,,,
,,6346d9fda71cffd6c403c4a2,2024-02-22_04h31.13.493,kallum_motion_pilot,2023.2.2,Win32,31.74603175,6346d9fda71cffd6c403c4a2,65d6bb0e977760de756971f7,65d6be8ee75a8a6ae4a0618a,0.0466,0.0466,1,28,190,131,1,sixeight,,,,,,,,,,,,,,,,,,,,,,,,,,,,,,,,,,,,,,,,,,,,,,,,,,,,,,,,,,,,,,,,,,,,,,,,,,,,,,,,,,,,,,,,,,,,,,,,,,,,,,,,,,,,,,,,,,,,,,,,,,,,,,,,,,,,,,,,,
,,6346d9fda71cffd6c403c4a2,2024-02-22_04h31.13.493,kallum_motion_pilot,2023.2.2,Win32,31.74603175,6346d9fda71cffd6c403c4a2,65d6bb0e977760de756971f7,65d6be8ee75a8a6ae4a0618a,0.0466,0.0467,1,29,191,113,1,fiveseven,,,,,,,,,,,,,,,,,,,,,,,,,,,,,,,,,,,,,,,,,,,,,,,,,,,,,,,,,,,,,,,,,,,,,,,,,,,,,,,,,,,,,,,,,,,,,,,,,,,,,,,,,,,,,,,,,,,,,,,,,,,,,,,,,,,,,,,,,
,,6346d9fda71cffd6c403c4a2,2024-02-22_04h31.13.493,kallum_motion_pilot,2023.2.2,Win32,31.74603175,6346d9fda71cffd6c403c4a2,65d6bb0e977760de756971f7,65d6be8ee75a8a6ae4a0618a,0.0469,0.047,1,30,192,135,1,eightseven,,,,,,,,,,,,,,,,,,,,,,,,,,,,,,,,,,,,,,,,,,,,,,,,,,,,,,,,,,,,,,,,,,,,,,,,,,,,,,,,,,,,,,,,,,,,,,,,,,,,,,,,,,,,,,,,,,,,,,,,,,,,,,,,,,,,,,,,,
,,6346d9fda71cffd6c403c4a2,2024-02-22_04h31.13.493,kallum_motion_pilot,2023.2.2,Win32,31.74603175,6346d9fda71cffd6c403c4a2,65d6bb0e977760de756971f7,65d6be8ee75a8a6ae4a0618a,0.047,0.047,1,31,193,13,1,threefour,,,,,,,,,,,,,,,,,,,,,,,,,,,,,,,,,,,,,,,,,,,,,,,,,,,,,,,,,,,,,,,,,,,,,,,,,,,,,,,,,,,,,,,,,,,,,,,,,,,,,,,,,,,,,,,,,,,,,,,,,,,,,,,,,,,,,,,,,
,,6346d9fda71cffd6c403c4a2,2024-02-22_04h31.13.493,kallum_motion_pilot,2023.2.2,Win32,31.74603175,6346d9fda71cffd6c403c4a2,65d6bb0e977760de756971f7,65d6be8ee75a8a6ae4a0618a,0.0472,0.0473,1,32,194,108,1,sevenfive,,,,,,,,,,,,,,,,,,,,,,,,,,,,,,,,,,,,,,,,,,,,,,,,,,,,,,,,,,,,,,,,,,,,,,,,,,,,,,,,,,,,,,,,,,,,,,,,,,,,,,,,,,,,,,,,,,,,,,,,,,,,,,,,,,,,,,,,,
,,6346d9fda71cffd6c403c4a2,2024-02-22_04h31.13.493,kallum_motion_pilot,2023.2.2,Win32,31.74603175,6346d9fda71cffd6c403c4a2,65d6bb0e977760de756971f7,65d6be8ee75a8a6ae4a0618a,0.0474,0.0474,1,33,195,76,1,threeone,,,,,,,,,,,,,,,,,,,,,,,,,,,,,,,,,,,,,,,,,,,,,,,,,,,,,,,,,,,,,,,,,,,,,,,,,,,,,,,,,,,,,,,,,,,,,,,,,,,,,,,,,,,,,,,,,,,,,,,,,,,,,,,,,,,,,,,,,
,,6346d9fda71cffd6c403c4a2,2024-02-22_04h31.13.493,kallum_motion_pilot,2023.2.2,Win32,31.74603175,6346d9fda71cffd6c403c4a2,65d6bb0e977760de756971f7,65d6be8ee75a8a6ae4a0618a,0.0475,0.0477,1,34,196,43,1,twofour,,,,,,,,,,,,,,,,,,,,,,,,,,,,,,,,,,,,,,,,,,,,,,,,,,,,,,,,,,,,,,,,,,,,,,,,,,,,,,,,,,,,,,,,,,,,,,,,,,,,,,,,,,,,,,,,,,,,,,,,,,,,,,,,,,,,,,,,,
,,6346d9fda71cffd6c403c4a2,2024-02-22_04h31.13.493,kallum_motion_pilot,2023.2.2,Win32,31.74603175,6346d9fda71cffd6c403c4a2,65d6bb0e977760de756971f7,65d6be8ee75a8a6ae4a0618a,0.0478,0.0479,1,35,197,70,1,fourtwo,,,,,,,,,,,,,,,,,,,,,,,,,,,,,,,,,,,,,,,,,,,,,,,,,,,,,,,,,,,,,,,,,,,,,,,,,,,,,,,,,,,,,,,,,,,,,,,,,,,,,,,,,,,,,,,,,,,,,,,,,,,,,,,,,,,,,,,,,
,,6346d9fda71cffd6c403c4a2,2024-02-22_04h31.13.493,kallum_motion_pilot,2023.2.2,Win32,31.74603175,6346d9fda71cffd6c403c4a2,65d6bb0e977760de756971f7,65d6be8ee75a8a6ae4a0618a,0.048,0.0481,1,36,198,31,1,fourthree,,,,,,,,,,,,,,,,,,,,,,,,,,,,,,,,,,,,,,,,,,,,,,,,,,,,,,,,,,,,,,,,,,,,,,,,,,,,,,,,,,,,,,,,,,,,,,,,,,,,,,,,,,,,,,,,,,,,,,,,,,,,,,,,,,,,,,,,,
,,6346d9fda71cffd6c403c4a2,2024-02-22_04h31.13.493,kallum_motion_pilot,2023.2.2,Win32,31.74603175,6346d9fda71cffd6c403c4a2,65d6bb0e977760de756971f7,65d6be8ee75a8a6ae4a0618a,0.0481,0.0482,1,37,199,133,1,seveneight,,,,,,,,,,,,,,,,,,,,,,,,,,,,,,,,,,,,,,,,,,,,,,,,,,,,,,,,,,,,,,,,,,,,,,,,,,,,,,,,,,,,,,,,,,,,,,,,,,,,,,,,,,,,,,,,,,,,,,,,,,,,,,,,,,,,,,,,,
,,6346d9fda71cffd6c403c4a2,2024-02-22_04h31.13.493,kallum_motion_pilot,2023.2.2,Win32,31.74603175,6346d9fda71cffd6c403c4a2,65d6bb0e977760de756971f7,65d6be8ee75a8a6ae4a0618a,0.0483,0.0484,1,38,200,157,1,seveneight,,,,,,,,,,,,,,,,,,,,,,,,,,,,,,,,,,,,,,,,,,,,,,,,,,,,,,,,,,,,,,,,,,,,,,,,,,,,,,,,,,,,,,,,,,,,,,,,,,,,,,,,,,,,,,,,,,,,,,,,,,,,,,,,,,,,,,,,,
,,6346d9fda71cffd6c403c4a2,2024-02-22_04h31.13.493,kallum_motion_pilot,2023.2.2,Win32,31.74603175,6346d9fda71cffd6c403c4a2,65d6bb0e977760de756971f7,65d6be8ee75a8a6ae4a0618a,0.0485,0.0486,1,39,201,35,1,twofour,,,,,,,,,,,,,,,,,,,,,,,,,,,,,,,,,,,,,,,,,,,,,,,,,,,,,,,,,,,,,,,,,,,,,,,,,,,,,,,,,,,,,,,,,,,,,,,,,,,,,,,,,,,,,,,,,,,,,,,,,,,,,,,,,,,,,,,,,
,,6346d9fda71cffd6c403c4a2,2024-02-22_04h31.13.493,kallum_motion_pilot,2023.2.2,Win32,31.74603175,6346d9fda71cffd6c403c4a2,65d6bb0e977760de756971f7,65d6be8ee75a8a6ae4a0618a,0.0486,0.0487,1,40,202,146,1,sixfive,,,,,,,,,,,,,,,,,,,,,,,,,,,,,,,,,,,,,,,,,,,,,,,,,,,,,,,,,,,,,,,,,,,,,,,,,,,,,,,,,,,,,,,,,,,,,,,,,,,,,,,,,,,,,,,,,,,,,,,,,,,,,,,,,,,,,,,,,
,,6346d9fda71cffd6c403c4a2,2024-02-22_04h31.13.493,kallum_motion_pilot,2023.2.2,Win32,31.74603175,6346d9fda71cffd6c403c4a2,65d6bb0e977760de756971f7,65d6be8ee75a8a6ae4a0618a,0.0488,0.0488,1,41,203,18,1,twoone,,,,,,,,,,,,,,,,,,,,,,,,,,,,,,,,,,,,,,,,,,,,,,,,,,,,,,,,,,,,,,,,,,,,,,,,,,,,,,,,,,,,,,,,,,,,,,,,,,,,,,,,,,,,,,,,,,,,,,,,,,,,,,,,,,,,,,,,,
,,6346d9fda71cffd6c403c4a2,2024-02-22_04h31.13.493,kallum_motion_pilot,2023.2.2,Win32,31.74603175,6346d9fda71cffd6c403c4a2,65d6bb0e977760de756971f7,65d6be8ee75a8a6ae4a0618a,0.0489,0.049,1,42,204,103,1,eightseven,,,,,,,,,,,,,,,,,,,,,,,,,,,,,,,,,,,,,,,,,,,,,,,,,,,,,,,,,,,,,,,,,,,,,,,,,,,,,,,,,,,,,,,,,,,,,,,,,,,,,,,,,,,,,,,,,,,,,,,,,,,,,,,,,,,,,,,,,
,,6346d9fda71cffd6c403c4a2,2024-02-22_04h31.13.493,kallum_motion_pilot,2023.2.2,Win32,31.74603175,6346d9fda71cffd6c403c4a2,65d6bb0e977760de756971f7,65d6be8ee75a8a6ae4a0618a,0.049,0.0491,1,43,205,4,1,threeone,,,,,,,,,,,,,,,,,,,,,,,,,,,,,,,,,,,,,,,,,,,,,,,,,,,,,,,,,,,,,,,,,,,,,,,,,,,,,,,,,,,,,,,,,,,,,,,,,,,,,,,,,,,,,,,,,,,,,,,,,,,,,,,,,,,,,,,,,
,,6346d9fda71cffd6c403c4a2,2024-02-22_04h31.13.493,kallum_motion_pilot,2023.2.2,Win32,31.74603175,6346d9fda71cffd6c403c4a2,65d6bb0e977760de756971f7,65d6be8ee75a8a6ae4a0618a,0.0491,0.0492,1,44,206,99,1,sixeight,,,,,,,,,,,,,,,,,,,,,,,,,,,,,,,,,,,,,,,,,,,,,,,,,,,,,,,,,,,,,,,,,,,,,,,,,,,,,,,,,,,,,,,,,,,,,,,,,,,,,,,,,,,,,,,,,,,,,,,,,,,,,,,,,,,,,,,,,
,,6346d9fda71cffd6c403c4a2,2024-02-22_04h31.13.493,kallum_motion_pilot,2023.2.2,Win32,31.74603175,6346d9fda71cffd6c403c4a2,65d6bb0e977760de756971f7,65d6be8ee75a8a6ae4a0618a,0.0493,0.0494,1,45,207,140,1,sevenfive,,,,,,,,,,,,,,,,,,,,,,,,,,,,,,,,,,,,,,,,,,,,,,,,,,,,,,,,,,,,,,,,,,,,,,,,,,,,,,,,,,,,,,,,,,,,,,,,,,,,,,,,,,,,,,,,,,,,,,,,,,,,,,,,,,,,,,,,,
,,6346d9fda71cffd6c403c4a2,2024-02-22_04h31.13.493,kallum_motion_pilot,2023.2.2,Win32,31.74603175,6346d9fda71cffd6c403c4a2,65d6bb0e977760de756971f7,65d6be8ee75a8a6ae4a0618a,0.0494,0.0495,1,46,208,161,1,fiveseven,,,,,,,,,,,,,,,,,,,,,,,,,,,,,,,,,,,,,,,,,,,,,,,,,,,,,,,,,,,,,,,,,,,,,,,,,,,,,,,,,,,,,,,,,,,,,,,,,,,,,,,,,,,,,,,,,,,,,,,,,,,,,,,,,,,,,,,,,
,,6346d9fda71cffd6c403c4a2,2024-02-22_04h31.13.493,kallum_motion_pilot,2023.2.2,Win32,31.74603175,6346d9fda71cffd6c403c4a2,65d6bb0e977760de756971f7,65d6be8ee75a8a6ae4a0618a,0.0496,0.0496,1,47,209,112,1,fivesix,,,,,,,,,,,,,,,,,,,,,,,,,,,,,,,,,,,,,,,,,,,,,,,,,,,,,,,,,,,,,,,,,,,,,,,,,,,,,,,,,,,,,,,,,,,,,,,,,,,,,,,,,,,,,,,,,,,,,,,,,,,,,,,,,,,,,,,,,
,,6346d9fda71cffd6c403c4a2,2024-02-22_04h31.13.493,kallum_motion_pilot,2023.2.2,Win32,31.74603175,6346d9fda71cffd6c403c4a2,65d6bb0e977760de756971f7,65d6be8ee75a8a6ae4a0618a,0.0497,0.0497,1,48,210,28,1,threeone,,,,,,,,,,,,,,,,,,,,,,,,,,,,,,,,,,,,,,,,,,,,,,,,,,,,,,,,,,,,,,,,,,,,,,,,,,,,,,,,,,,,,,,,,,,,,,,,,,,,,,,,,,,,,,,,,,,,,,,,,,,,,,,,,,,,,,,,,
,,6346d9fda71cffd6c403c4a2,2024-02-22_04h31.13.493,kallum_motion_pilot,2023.2.2,Win32,31.74603175,6346d9fda71cffd6c403c4a2,65d6bb0e977760de756971f7,65d6be8ee75a8a6ae4a0618a,0.0497,0.0499,1,49,211,12,1,threeone,,,,,,,,,,,,,,,,,,,,,,,,,,,,,,,,,,,,,,,,,,,,,,,,,,,,,,,,,,,,,,,,,,,,,,,,,,,,,,,,,,,,,,,,,,,,,,,,,,,,,,,,,,,,,,,,,,,,,,,,,,,,,,,,,,,,,,,,,
,,6346d9fda71cffd6c403c4a2,2024-02-22_04h31.13.493,kallum_motion_pilot,2023.2.2,Win32,31.74603175,6346d9fda71cffd6c403c4a2,65d6bb0e977760de756971f7,65d6be8ee75a8a6ae4a0618a,0.0499,0.05,1,50,212,37,1,threefour,,,,,,,,,,,,,,,,,,,,,,,,,,,,,,,,,,,,,,,,,,,,,,,,,,,,,,,,,,,,,,,,,,,,,,,,,,,,,,,,,,,,,,,,,,,,,,,,,,,,,,,,,,,,,,,,,,,,,,,,,,,,,,,,,,,,,,,,,
,,6346d9fda71cffd6c403c4a2,2024-02-22_04h31.13.493,kallum_motion_pilot,2023.2.2,Win32,31.74603175,6346d9fda71cffd6c403c4a2,65d6bb0e977760de756971f7,65d6be8ee75a8a6ae4a0618a,0.0501,0.0501,1,51,213,17,1,onethree,,,,,,,,,,,,,,,,,,,,,,,,,,,,,,,,,,,,,,,,,,,,,,,,,,,,,,,,,,,,,,,,,,,,,,,,,,,,,,,,,,,,,,,,,,,,,,,,,,,,,,,,,,,,,,,,,,,,,,,,,,,,,,,,,,,,,,,,,
,,6346d9fda71cffd6c403c4a2,2024-02-22_04h31.13.493,kallum_motion_pilot,2023.2.2,Win32,31.74603175,6346d9fda71cffd6c403c4a2,65d6bb0e977760de756971f7,65d6be8ee75a8a6ae4a0618a,0.0502,0.0502,1,52,214,96,1,fivesix,,,,,,,,,,,,,,,,,,,,,,,,,,,,,,,,,,,,,,,,,,,,,,,,,,,,,,,,,,,,,,,,,,,,,,,,,,,,,,,,,,,,,,,,,,,,,,,,,,,,,,,,,,,,,,,,,,,,,,,,,,,,,,,,,,,,,,,,,
,,6346d9fda71cffd6c403c4a2,2024-02-22_04h31.13.493,kallum_motion_pilot,2023.2.2,Win32,31.74603175,6346d9fda71cffd6c403c4a2,65d6bb0e977760de756971f7,65d6be8ee75a8a6ae4a0618a,0.0503,0.0504,1,53,215,64,1,onetwo,,,,,,,,,,,,,,,,,,,,,,,,,,,,,,,,,,,,,,,,,,,,,,,,,,,,,,,,,,,,,,,,,,,,,,,,,,,,,,,,,,,,,,,,,,,,,,,,,,,,,,,,,,,,,,,,,,,,,,,,,,,,,,,,,,,,,,,,,
,,6346d9fda71cffd6c403c4a2,2024-02-22_04h31.13.493,kallum_motion_pilot,2023.2.2,Win32,31.74603175,6346d9fda71cffd6c403c4a2,65d6bb0e977760de756971f7,65d6be8ee75a8a6ae4a0618a,0.0504,0.0505,1,54,216,93,1,seveneight,,,,,,,,,,,,,,,,,,,,,,,,,,,,,,,,,,,,,,,,,,,,,,,,,,,,,,,,,,,,,,,,,,,,,,,,,,,,,,,,,,,,,,,,,,,,,,,,,,,,,,,,,,,,,,,,,,,,,,,,,,,,,,,,,,,,,,,,,
,,6346d9fda71cffd6c403c4a2,2024-02-22_04h31.13.493,kallum_motion_pilot,2023.2.2,Win32,31.74603175,6346d9fda71cffd6c403c4a2,65d6bb0e977760de756971f7,65d6be8ee75a8a6ae4a0618a,0.0506,0.0506,1,55,217,87,1,eightseven,,,,,,,,,,,,,,,,,,,,,,,,,,,,,,,,,,,,,,,,,,,,,,,,,,,,,,,,,,,,,,,,,,,,,,,,,,,,,,,,,,,,,,,,,,,,,,,,,,,,,,,,,,,,,,,,,,,,,,,,,,,,,,,,,,,,,,,,,
,,6346d9fda71cffd6c403c4a2,2024-02-22_04h31.13.493,kallum_motion_pilot,2023.2.2,Win32,31.74603175,6346d9fda71cffd6c403c4a2,65d6bb0e977760de756971f7,65d6be8ee75a8a6ae4a0618a,0.0507,0.0508,1,56,218,0,1,onetwo,,,,,,,,,,,,,,,,,,,,,,,,,,,,,,,,,,,,,,,,,,,,,,,,,,,,,,,,,,,,,,,,,,,,,,,,,,,,,,,,,,,,,,,,,,,,,,,,,,,,,,,,,,,,,,,,,,,,,,,,,,,,,,,,,,,,,,,,,
,,6346d9fda71cffd6c403c4a2,2024-02-22_04h31.13.493,kallum_motion_pilot,2023.2.2,Win32,31.74603175,6346d9fda71cffd6c403c4a2,65d6bb0e977760de756971f7,65d6be8ee75a8a6ae4a0618a,0.0508,0.0509,1,57,219,34,1,twoone,,,,,,,,,,,,,,,,,,,,,,,,,,,,,,,,,,,,,,,,,,,,,,,,,,,,,,,,,,,,,,,,,,,,,,,,,,,,,,,,,,,,,,,,,,,,,,,,,,,,,,,,,,,,,,,,,,,,,,,,,,,,,,,,,,,,,,,,,
,,6346d9fda71cffd6c403c4a2,2024-02-22_04h31.13.493,kallum_motion_pilot,2023.2.2,Win32,31.74603175,6346d9fda71cffd6c403c4a2,65d6bb0e977760de756971f7,65d6be8ee75a8a6ae4a0618a,0.0512,0.0512,1,58,220,57,1,onethree,,,,,,,,,,,,,,,,,,,,,,,,,,,,,,,,,,,,,,,,,,,,,,,,,,,,,,,,,,,,,,,,,,,,,,,,,,,,,,,,,,,,,,,,,,,,,,,,,,,,,,,,,,,,,,,,,,,,,,,,,,,,,,,,,,,,,,,,,
,,6346d9fda71cffd6c403c4a2,2024-02-22_04h31.13.493,kallum_motion_pilot,2023.2.2,Win32,31.74603175,6346d9fda71cffd6c403c4a2,65d6bb0e977760de756971f7,65d6be8ee75a8a6ae4a0618a,0.0514,0.0514,1,59,221,59,1,twofour,,,,,,,,,,,,,,,,,,,,,,,,,,,,,,,,,,,,,,,,,,,,,,,,,,,,,,,,,,,,,,,,,,,,,,,,,,,,,,,,,,,,,,,,,,,,,,,,,,,,,,,,,,,,,,,,,,,,,,,,,,,,,,,,,,,,,,,,,
,,6346d9fda71cffd6c403c4a2,2024-02-22_04h31.13.493,kallum_motion_pilot,2023.2.2,Win32,31.74603175,6346d9fda71cffd6c403c4a2,65d6bb0e977760de756971f7,65d6be8ee75a8a6ae4a0618a,0.0514,0.0514,1,60,222,149,1,seveneight,,,,,,,,,,,,,,,,,,,,,,,,,,,,,,,,,,,,,,,,,,,,,,,,,,,,,,,,,,,,,,,,,,,,,,,,,,,,,,,,,,,,,,,,,,,,,,,,,,,,,,,,,,,,,,,,,,,,,,,,,,,,,,,,,,,,,,,,,
,,6346d9fda71cffd6c403c4a2,2024-02-22_04h31.13.493,kallum_motion_pilot,2023.2.2,Win32,31.74603175,6346d9fda71cffd6c403c4a2,65d6bb0e977760de756971f7,65d6be8ee75a8a6ae4a0618a,0.0515,0.0516,1,61,223,148,1,sevenfive,,,,,,,,,,,,,,,,,,,,,,,,,,,,,,,,,,,,,,,,,,,,,,,,,,,,,,,,,,,,,,,,,,,,,,,,,,,,,,,,,,,,,,,,,,,,,,,,,,,,,,,,,,,,,,,,,,,,,,,,,,,,,,,,,,,,,,,,,
,,6346d9fda71cffd6c403c4a2,2024-02-22_04h31.13.493,kallum_motion_pilot,2023.2.2,Win32,31.74603175,6346d9fda71cffd6c403c4a2,65d6bb0e977760de756971f7,65d6be8ee75a8a6ae4a0618a,0.0516,0.0517,1,62,224,69,1,threefour,,,,,,,,,,,,,,,,,,,,,,,,,,,,,,,,,,,,,,,,,,,,,,,,,,,,,,,,,,,,,,,,,,,,,,,,,,,,,,,,,,,,,,,,,,,,,,,,,,,,,,,,,,,,,,,,,,,,,,,,,,,,,,,,,,,,,,,,,
,,6346d9fda71cffd6c403c4a2,2024-02-22_04h31.13.493,kallum_motion_pilot,2023.2.2,Win32,31.74603175,6346d9fda71cffd6c403c4a2,65d6bb0e977760de756971f7,65d6be8ee75a8a6ae4a0618a,0.0517,0.0518,1,63,225,154,1,sixfive,,,,,,,,,,,,,,,,,,,,,,,,,,,,,,,,,,,,,,,,,,,,,,,,,,,,,,,,,,,,,,,,,,,,,,,,,,,,,,,,,,,,,,,,,,,,,,,,,,,,,,,,,,,,,,,,,,,,,,,,,,,,,,,,,,,,,,,,,
,,6346d9fda71cffd6c403c4a2,2024-02-22_04h31.13.493,kallum_motion_pilot,2023.2.2,Win32,31.74603175,6346d9fda71cffd6c403c4a2,65d6bb0e977760de756971f7,65d6be8ee75a8a6ae4a0618a,0.0518,0.0519,1,64,226,123,1,sixeight,,,,,,,,,,,,,,,,,,,,,,,,,,,,,,,,,,,,,,,,,,,,,,,,,,,,,,,,,,,,,,,,,,,,,,,,,,,,,,,,,,,,,,,,,,,,,,,,,,,,,,,,,,,,,,,,,,,,,,,,,,,,,,,,,,,,,,,,,
,,6346d9fda71cffd6c403c4a2,2024-02-22_04h31.13.493,kallum_motion_pilot,2023.2.2,Win32,31.74603175,6346d9fda71cffd6c403c4a2,65d6bb0e977760de756971f7,65d6be8ee75a8a6ae4a0618a,0.052,0.052,1,65,227,144,1,fivesix,,,,,,,,,,,,,,,,,,,,,,,,,,,,,,,,,,,,,,,,,,,,,,,,,,,,,,,,,,,,,,,,,,,,,,,,,,,,,,,,,,,,,,,,,,,,,,,,,,,,,,,,,,,,,,,,,,,,,,,,,,,,,,,,,,,,,,,,,
,,6346d9fda71cffd6c403c4a2,2024-02-22_04h31.13.493,kallum_motion_pilot,2023.2.2,Win32,31.74603175,6346d9fda71cffd6c403c4a2,65d6bb0e977760de756971f7,65d6be8ee75a8a6ae4a0618a,0.0521,0.0521,1,66,228,10,1,twoone,,,,,,,,,,,,,,,,,,,,,,,,,,,,,,,,,,,,,,,,,,,,,,,,,,,,,,,,,,,,,,,,,,,,,,,,,,,,,,,,,,,,,,,,,,,,,,,,,,,,,,,,,,,,,,,,,,,,,,,,,,,,,,,,,,,,,,,,,
,,6346d9fda71cffd6c403c4a2,2024-02-22_04h31.13.493,kallum_motion_pilot,2023.2.2,Win32,31.74603175,6346d9fda71cffd6c403c4a2,65d6bb0e977760de756971f7,65d6be8ee75a8a6ae4a0618a,0.0522,0.0523,1,67,229,67,1,twofour,,,,,,,,,,,,,,,,,,,,,,,,,,,,,,,,,,,,,,,,,,,,,,,,,,,,,,,,,,,,,,,,,,,,,,,,,,,,,,,,,,,,,,,,,,,,,,,,,,,,,,,,,,,,,,,,,,,,,,,,,,,,,,,,,,,,,,,,,
,,6346d9fda71cffd6c403c4a2,2024-02-22_04h31.13.493,kallum_motion_pilot,2023.2.2,Win32,31.74603175,6346d9fda71cffd6c403c4a2,65d6bb0e977760de756971f7,65d6be8ee75a8a6ae4a0618a,0.0523,0.0524,1,68,230,39,1,fourthree,,,,,,,,,,,,,,,,,,,,,,,,,,,,,,,,,,,,,,,,,,,,,,,,,,,,,,,,,,,,,,,,,,,,,,,,,,,,,,,,,,,,,,,,,,,,,,,,,,,,,,,,,,,,,,,,,,,,,,,,,,,,,,,,,,,,,,,,,
,,6346d9fda71cffd6c403c4a2,2024-02-22_04h31.13.493,kallum_motion_pilot,2023.2.2,Win32,31.74603175,6346d9fda71cffd6c403c4a2,65d6bb0e977760de756971f7,65d6be8ee75a8a6ae4a0618a,0.0525,0.0525,1,69,231,32,1,onetwo,,,,,,,,,,,,,,,,,,,,,,,,,,,,,,,,,,,,,,,,,,,,,,,,,,,,,,,,,,,,,,,,,,,,,,,,,,,,,,,,,,,,,,,,,,,,,,,,,,,,,,,,,,,,,,,,,,,,,,,,,,,,,,,,,,,,,,,,,
,,6346d9fda71cffd6c403c4a2,2024-02-22_04h31.13.493,kallum_motion_pilot,2023.2.2,Win32,31.74603175,6346d9fda71cffd6c403c4a2,65d6bb0e977760de756971f7,65d6be8ee75a8a6ae4a0618a,0.0526,0.0527,1,70,232,79,1,eightseven,,,,,,,,,,,,,,,,,,,,,,,,,,,,,,,,,,,,,,,,,,,,,,,,,,,,,,,,,,,,,,,,,,,,,,,,,,,,,,,,,,,,,,,,,,,,,,,,,,,,,,,,,,,,,,,,,,,,,,,,,,,,,,,,,,,,,,,,,
,,6346d9fda71cffd6c403c4a2,2024-02-22_04h31.13.493,kallum_motion_pilot,2023.2.2,Win32,31.74603175,6346d9fda71cffd6c403c4a2,65d6bb0e977760de756971f7,65d6be8ee75a8a6ae4a0618a,0.0528,0.0529,1,71,233,132,1,sevenfive,,,,,,,,,,,,,,,,,,,,,,,,,,,,,,,,,,,,,,,,,,,,,,,,,,,,,,,,,,,,,,,,,,,,,,,,,,,,,,,,,,,,,,,,,,,,,,,,,,,,,,,,,,,,,,,,,,,,,,,,,,,,,,,,,,,,,,,,,
,,6346d9fda71cffd6c403c4a2,2024-02-22_04h31.13.493,kallum_motion_pilot,2023.2.2,Win32,31.74603175,6346d9fda71cffd6c403c4a2,65d6bb0e977760de756971f7,65d6be8ee75a8a6ae4a0618a,0.053,0.0531,1,72,234,158,1,eightsix,,,,,,,,,,,,,,,,,,,,,,,,,,,,,,,,,,,,,,,,,,,,,,,,,,,,,,,,,,,,,,,,,,,,,,,,,,,,,,,,,,,,,,,,,,,,,,,,,,,,,,,,,,,,,,,,,,,,,,,,,,,,,,,,,,,,,,,,,
,,6346d9fda71cffd6c403c4a2,2024-02-22_04h31.13.493,kallum_motion_pilot,2023.2.2,Win32,31.74603175,6346d9fda71cffd6c403c4a2,65d6bb0e977760de756971f7,65d6be8ee75a8a6ae4a0618a,0.0531,0.0532,1,73,235,25,1,onethree,,,,,,,,,,,,,,,,,,,,,,,,,,,,,,,,,,,,,,,,,,,,,,,,,,,,,,,,,,,,,,,,,,,,,,,,,,,,,,,,,,,,,,,,,,,,,,,,,,,,,,,,,,,,,,,,,,,,,,,,,,,,,,,,,,,,,,,,,
,,6346d9fda71cffd6c403c4a2,2024-02-22_04h31.13.493,kallum_motion_pilot,2023.2.2,Win32,31.74603175,6346d9fda71cffd6c403c4a2,65d6bb0e977760de756971f7,65d6be8ee75a8a6ae4a0618a,0.0534,0.0534,1,74,236,7,1,fourthree,,,,,,,,,,,,,,,,,,,,,,,,,,,,,,,,,,,,,,,,,,,,,,,,,,,,,,,,,,,,,,,,,,,,,,,,,,,,,,,,,,,,,,,,,,,,,,,,,,,,,,,,,,,,,,,,,,,,,,,,,,,,,,,,,,,,,,,,,
,,6346d9fda71cffd6c403c4a2,2024-02-22_04h31.13.493,kallum_motion_pilot,2023.2.2,Win32,31.74603175,6346d9fda71cffd6c403c4a2,65d6bb0e977760de756971f7,65d6be8ee75a8a6ae4a0618a,0.0535,0.0536,1,75,237,52,1,threeone,,,,,,,,,,,,,,,,,,,,,,,,,,,,,,,,,,,,,,,,,,,,,,,,,,,,,,,,,,,,,,,,,,,,,,,,,,,,,,,,,,,,,,,,,,,,,,,,,,,,,,,,,,,,,,,,,,,,,,,,,,,,,,,,,,,,,,,,,
,,6346d9fda71cffd6c403c4a2,2024-02-22_04h31.13.493,kallum_motion_pilot,2023.2.2,Win32,31.74603175,6346d9fda71cffd6c403c4a2,65d6bb0e977760de756971f7,65d6be8ee75a8a6ae4a0618a,0.0537,0.0537,1,76,238,119,1,eightseven,,,,,,,,,,,,,,,,,,,,,,,,,,,,,,,,,,,,,,,,,,,,,,,,,,,,,,,,,,,,,,,,,,,,,,,,,,,,,,,,,,,,,,,,,,,,,,,,,,,,,,,,,,,,,,,,,,,,,,,,,,,,,,,,,,,,,,,,,
,,6346d9fda71cffd6c403c4a2,2024-02-22_04h31.13.493,kallum_motion_pilot,2023.2.2,Win32,31.74603175,6346d9fda71cffd6c403c4a2,65d6bb0e977760de756971f7,65d6be8ee75a8a6ae4a0618a,0.0538,0.0539,1,77,239,47,1,fourthree,,,,,,,,,,,,,,,,,,,,,,,,,,,,,,,,,,,,,,,,,,,,,,,,,,,,,,,,,,,,,,,,,,,,,,,,,,,,,,,,,,,,,,,,,,,,,,,,,,,,,,,,,,,,,,,,,,,,,,,,,,,,,,,,,,,,,,,,,
,,6346d9fda71cffd6c403c4a2,2024-02-22_04h31.13.493,kallum_motion_pilot,2023.2.2,Win32,31.74603175,6346d9fda71cffd6c403c4a2,65d6bb0e977760de756971f7,65d6be8ee75a8a6ae4a0618a,0.0539,0.054,1,78,240,29,1,threefour,,,,,,,,,,,,,,,,,,,,,,,,,,,,,,,,,,,,,,,,,,,,,,,,,,,,,,,,,,,,,,,,,,,,,,,,,,,,,,,,,,,,,,,,,,,,,,,,,,,,,,,,,,,,,,,,,,,,,,,,,,,,,,,,,,,,,,,,,
,,6346d9fda71cffd6c403c4a2,2024-02-22_04h31.13.493,kallum_motion_pilot,2023.2.2,Win32,31.74603175,6346d9fda71cffd6c403c4a2,65d6bb0e977760de756971f7,65d6be8ee75a8a6ae4a0618a,0.054,0.0541,1,79,241,118,1,eightsix,,,,,,,,,,,,,,,,,,,,,,,,,,,,,,,,,,,,,,,,,,,,,,,,,,,,,,,,,,,,,,,,,,,,,,,,,,,,,,,,,,,,,,,,,,,,,,,,,,,,,,,,,,,,,,,,,,,,,,,,,,,,,,,,,,,,,,,,,
,,6346d9fda71cffd6c403c4a2,2024-02-22_04h31.13.493,kallum_motion_pilot,2023.2.2,Win32,31.74603175,6346d9fda71cffd6c403c4a2,65d6bb0e977760de756971f7,65d6be8ee75a8a6ae4a0618a,0.0541,0.0542,1,80,242,95,1,eightseven,,,,,,,,,,,,,,,,,,,,,,,,,,,,,,,,,,,,,,,,,,,,,,,,,,,,,,,,,,,,,,,,,,,,,,,,,,,,,,,,,,,,,,,,,,,,,,,,,,,,,,,,,,,,,,,,,,,,,,,,,,,,,,,,,,,,,,,,,
,,6346d9fda71cffd6c403c4a2,2024-02-22_04h31.13.493,kallum_motion_pilot,2023.2.2,Win32,31.74603175,6346d9fda71cffd6c403c4a2,65d6bb0e977760de756971f7,65d6be8ee75a8a6ae4a0618a,0.0542,0.0543,1,81,243,106,1,sixfive,,,,,,,,,,,,,,,,,,,,,,,,,,,,,,,,,,,,,,,,,,,,,,,,,,,,,,,,,,,,,,,,,,,,,,,,,,,,,,,,,,,,,,,,,,,,,,,,,,,,,,,,,,,,,,,,,,,,,,,,,,,,,,,,,,,,,,,,,
,,6346d9fda71cffd6c403c4a2,2024-02-22_04h31.13.493,kallum_motion_pilot,2023.2.2,Win32,31.74603175,6346d9fda71cffd6c403c4a2,65d6bb0e977760de756971f7,65d6be8ee75a8a6ae4a0618a,0.0544,0.0544,1,82,244,116,1,sevenfive,,,,,,,,,,,,,,,,,,,,,,,,,,,,,,,,,,,,,,,,,,,,,,,,,,,,,,,,,,,,,,,,,,,,,,,,,,,,,,,,,,,,,,,,,,,,,,,,,,,,,,,,,,,,,,,,,,,,,,,,,,,,,,,,,,,,,,,,,
,,6346d9fda71cffd6c403c4a2,2024-02-22_04h31.13.493,kallum_motion_pilot,2023.2.2,Win32,31.74603175,6346d9fda71cffd6c403c4a2,65d6bb0e977760de756971f7,65d6be8ee75a8a6ae4a0618a,0.0544,0.0545,1,83,245,45,1,threefour,,,,,,,,,,,,,,,,,,,,,,,,,,,,,,,,,,,,,,,,,,,,,,,,,,,,,,,,,,,,,,,,,,,,,,,,,,,,,,,,,,,,,,,,,,,,,,,,,,,,,,,,,,,,,,,,,,,,,,,,,,,,,,,,,,,,,,,,,
,,6346d9fda71cffd6c403c4a2,2024-02-22_04h31.13.493,kallum_motion_pilot,2023.2.2,Win32,31.74603175,6346d9fda71cffd6c403c4a2,65d6bb0e977760de756971f7,65d6be8ee75a8a6ae4a0618a,0.0546,0.0546,1,84,246,36,1,threeone,,,,,,,,,,,,,,,,,,,,,,,,,,,,,,,,,,,,,,,,,,,,,,,,,,,,,,,,,,,,,,,,,,,,,,,,,,,,,,,,,,,,,,,,,,,,,,,,,,,,,,,,,,,,,,,,,,,,,,,,,,,,,,,,,,,,,,,,,
,,6346d9fda71cffd6c403c4a2,2024-02-22_04h31.13.493,kallum_motion_pilot,2023.2.2,Win32,31.74603175,6346d9fda71cffd6c403c4a2,65d6bb0e977760de756971f7,65d6be8ee75a8a6ae4a0618a,0.0547,0.0547,1,85,247,75,1,twofour,,,,,,,,,,,,,,,,,,,,,,,,,,,,,,,,,,,,,,,,,,,,,,,,,,,,,,,,,,,,,,,,,,,,,,,,,,,,,,,,,,,,,,,,,,,,,,,,,,,,,,,,,,,,,,,,,,,,,,,,,,,,,,,,,,,,,,,,,
,,6346d9fda71cffd6c403c4a2,2024-02-22_04h31.13.493,kallum_motion_pilot,2023.2.2,Win32,31.74603175,6346d9fda71cffd6c403c4a2,65d6bb0e977760de756971f7,65d6be8ee75a8a6ae4a0618a,0.0547,0.0548,1,86,248,46,1,fourtwo,,,,,,,,,,,,,,,,,,,,,,,,,,,,,,,,,,,,,,,,,,,,,,,,,,,,,,,,,,,,,,,,,,,,,,,,,,,,,,,,,,,,,,,,,,,,,,,,,,,,,,,,,,,,,,,,,,,,,,,,,,,,,,,,,,,,,,,,,
,,6346d9fda71cffd6c403c4a2,2024-02-22_04h31.13.493,kallum_motion_pilot,2023.2.2,Win32,31.74603175,6346d9fda71cffd6c403c4a2,65d6bb0e977760de756971f7,65d6be8ee75a8a6ae4a0618a,0.0549,0.0549,1,87,249,100,1,sevenfive,,,,,,,,,,,,,,,,,,,,,,,,,,,,,,,,,,,,,,,,,,,,,,,,,,,,,,,,,,,,,,,,,,,,,,,,,,,,,,,,,,,,,,,,,,,,,,,,,,,,,,,,,,,,,,,,,,,,,,,,,,,,,,,,,,,,,,,,,
,,6346d9fda71cffd6c403c4a2,2024-02-22_04h31.13.493,kallum_motion_pilot,2023.2.2,Win32,31.74603175,6346d9fda71cffd6c403c4a2,65d6bb0e977760de756971f7,65d6be8ee75a8a6ae4a0618a,0.0549,0.055,1,88,250,127,1,eightseven,,,,,,,,,,,,,,,,,,,,,,,,,,,,,,,,,,,,,,,,,,,,,,,,,,,,,,,,,,,,,,,,,,,,,,,,,,,,,,,,,,,,,,,,,,,,,,,,,,,,,,,,,,,,,,,,,,,,,,,,,,,,,,,,,,,,,,,,,
,,6346d9fda71cffd6c403c4a2,2024-02-22_04h31.13.493,kallum_motion_pilot,2023.2.2,Win32,31.74603175,6346d9fda71cffd6c403c4a2,65d6bb0e977760de756971f7,65d6be8ee75a8a6ae4a0618a,0.055,0.0551,1,89,251,11,1,twofour,,,,,,,,,,,,,,,,,,,,,,,,,,,,,,,,,,,,,,,,,,,,,,,,,,,,,,,,,,,,,,,,,,,,,,,,,,,,,,,,,,,,,,,,,,,,,,,,,,,,,,,,,,,,,,,,,,,,,,,,,,,,,,,,,,,,,,,,,
,,6346d9fda71cffd6c403c4a2,2024-02-22_04h31.13.493,kallum_motion_pilot,2023.2.2,Win32,31.74603175,6346d9fda71cffd6c403c4a2,65d6bb0e977760de756971f7,65d6be8ee75a8a6ae4a0618a,0.0551,0.0552,1,90,252,109,1,seveneight,,,,,,,,,,,,,,,,,,,,,,,,,,,,,,,,,,,,,,,,,,,,,,,,,,,,,,,,,,,,,,,,,,,,,,,,,,,,,,,,,,,,,,,,,,,,,,,,,,,,,,,,,,,,,,,,,,,,,,,,,,,,,,,,,,,,,,,,,
,,6346d9fda71cffd6c403c4a2,2024-02-22_04h31.13.493,kallum_motion_pilot,2023.2.2,Win32,31.74603175,6346d9fda71cffd6c403c4a2,65d6bb0e977760de756971f7,65d6be8ee75a8a6ae4a0618a,0.0553,0.0554,1,91,253,107,1,sixeight,,,,,,,,,,,,,,,,,,,,,,,,,,,,,,,,,,,,,,,,,,,,,,,,,,,,,,,,,,,,,,,,,,,,,,,,,,,,,,,,,,,,,,,,,,,,,,,,,,,,,,,,,,,,,,,,,,,,,,,,,,,,,,,,,,,,,,,,,
,,6346d9fda71cffd6c403c4a2,2024-02-22_04h31.13.493,kallum_motion_pilot,2023.2.2,Win32,31.74603175,6346d9fda71cffd6c403c4a2,65d6bb0e977760de756971f7,65d6be8ee75a8a6ae4a0618a,0.0554,0.0554,1,92,254,1,1,onethree,,,,,,,,,,,,,,,,,,,,,,,,,,,,,,,,,,,,,,,,,,,,,,,,,,,,,,,,,,,,,,,,,,,,,,,,,,,,,,,,,,,,,,,,,,,,,,,,,,,,,,,,,,,,,,,,,,,,,,,,,,,,,,,,,,,,,,,,,
,,6346d9fda71cffd6c403c4a2,2024-02-22_04h31.13.493,kallum_motion_pilot,2023.2.2,Win32,31.74603175,6346d9fda71cffd6c403c4a2,65d6bb0e977760de756971f7,65d6be8ee75a8a6ae4a0618a,0.0555,0.0556,1,93,255,27,1,twofour,,,,,,,,,,,,,,,,,,,,,,,,,,,,,,,,,,,,,,,,,,,,,,,,,,,,,,,,,,,,,,,,,,,,,,,,,,,,,,,,,,,,,,,,,,,,,,,,,,,,,,,,,,,,,,,,,,,,,,,,,,,,,,,,,,,,,,,,,
,,6346d9fda71cffd6c403c4a2,2024-02-22_04h31.13.493,kallum_motion_pilot,2023.2.2,Win32,31.74603175,6346d9fda71cffd6c403c4a2,65d6bb0e977760de756971f7,65d6be8ee75a8a6ae4a0618a,0.0556,0.0557,1,94,256,8,1,onetwo,,,,,,,,,,,,,,,,,,,,,,,,,,,,,,,,,,,,,,,,,,,,,,,,,,,,,,,,,,,,,,,,,,,,,,,,,,,,,,,,,,,,,,,,,,,,,,,,,,,,,,,,,,,,,,,,,,,,,,,,,,,,,,,,,,,,,,,,,
,,6346d9fda71cffd6c403c4a2,2024-02-22_04h31.13.493,kallum_motion_pilot,2023.2.2,Win32,31.74603175,6346d9fda71cffd6c403c4a2,65d6bb0e977760de756971f7,65d6be8ee75a8a6ae4a0618a,0.0557,0.0558,1,95,257,73,1,onethree,,,,,,,,,,,,,,,,,,,,,,,,,,,,,,,,,,,,,,,,,,,,,,,,,,,,,,,,,,,,,,,,,,,,,,,,,,,,,,,,,,,,,,,,,,,,,,,,,,,,,,,,,,,,,,,,,,,,,,,,,,,,,,,,,,,,,,,,,
,,6346d9fda71cffd6c403c4a2,2024-02-22_04h31.13.493,kallum_motion_pilot,2023.2.2,Win32,31.74603175,6346d9fda71cffd6c403c4a2,65d6bb0e977760de756971f7,65d6be8ee75a8a6ae4a0618a,0.0559,0.0559,1,96,258,137,1,fiveseven,,,,,,,,,,,,,,,,,,,,,,,,,,,,,,,,,,,,,,,,,,,,,,,,,,,,,,,,,,,,,,,,,,,,,,,,,,,,,,,,,,,,,,,,,,,,,,,,,,,,,,,,,,,,,,,,,,,,,,,,,,,,,,,,,,,,,,,,,
,,6346d9fda71cffd6c403c4a2,2024-02-22_04h31.13.493,kallum_motion_pilot,2023.2.2,Win32,31.74603175,6346d9fda71cffd6c403c4a2,65d6bb0e977760de756971f7,65d6be8ee75a8a6ae4a0618a,0.056,0.056,1,97,259,24,1,onetwo,,,,,,,,,,,,,,,,,,,,,,,,,,,,,,,,,,,,,,,,,,,,,,,,,,,,,,,,,,,,,,,,,,,,,,,,,,,,,,,,,,,,,,,,,,,,,,,,,,,,,,,,,,,,,,,,,,,,,,,,,,,,,,,,,,,,,,,,,
,,6346d9fda71cffd6c403c4a2,2024-02-22_04h31.13.493,kallum_motion_pilot,2023.2.2,Win32,31.74603175,6346d9fda71cffd6c403c4a2,65d6bb0e977760de756971f7,65d6be8ee75a8a6ae4a0618a,0.056,0.0561,1,98,260,125,1,seveneight,,,,,,,,,,,,,,,,,,,,,,,,,,,,,,,,,,,,,,,,,,,,,,,,,,,,,,,,,,,,,,,,,,,,,,,,,,,,,,,,,,,,,,,,,,,,,,,,,,,,,,,,,,,,,,,,,,,,,,,,,,,,,,,,,,,,,,,,,
,,6346d9fda71cffd6c403c4a2,2024-02-22_04h31.13.493,kallum_motion_pilot,2023.2.2,Win32,31.74603175,6346d9fda71cffd6c403c4a2,65d6bb0e977760de756971f7,65d6be8ee75a8a6ae4a0618a,0.0562,0.0563,1,99,261,42,1,twoone,,,,,,,,,,,,,,,,,,,,,,,,,,,,,,,,,,,,,,,,,,,,,,,,,,,,,,,,,,,,,,,,,,,,,,,,,,,,,,,,,,,,,,,,,,,,,,,,,,,,,,,,,,,,,,,,,,,,,,,,,,,,,,,,,,,,,,,,,
,,6346d9fda71cffd6c403c4a2,2024-02-22_04h31.13.493,kallum_motion_pilot,2023.2.2,Win32,31.74603175,6346d9fda71cffd6c403c4a2,65d6bb0e977760de756971f7,65d6be8ee75a8a6ae4a0618a,0.0563,0.0563,1,100,262,124,1,sevenfive,,,,,,,,,,,,,,,,,,,,,,,,,,,,,,,,,,,,,,,,,,,,,,,,,,,,,,,,,,,,,,,,,,,,,,,,,,,,,,,,,,,,,,,,,,,,,,,,,,,,,,,,,,,,,,,,,,,,,,,,,,,,,,,,,,,,,,,,,
,,6346d9fda71cffd6c403c4a2,2024-02-22_04h31.13.493,kallum_motion_pilot,2023.2.2,Win32,31.74603175,6346d9fda71cffd6c403c4a2,65d6bb0e977760de756971f7,65d6be8ee75a8a6ae4a0618a,0.0565,0.0565,1,101,263,115,1,sixeight,,,,,,,,,,,,,,,,,,,,,,,,,,,,,,,,,,,,,,,,,,,,,,,,,,,,,,,,,,,,,,,,,,,,,,,,,,,,,,,,,,,,,,,,,,,,,,,,,,,,,,,,,,,,,,,,,,,,,,,,,,,,,,,,,,,,,,,,,
,,6346d9fda71cffd6c403c4a2,2024-02-22_04h31.13.493,kallum_motion_pilot,2023.2.2,Win32,31.74603175,6346d9fda71cffd6c403c4a2,65d6bb0e977760de756971f7,65d6be8ee75a8a6ae4a0618a,0.0566,0.0567,1,102,264,82,1,sixfive,,,,,,,,,,,,,,,,,,,,,,,,,,,,,,,,,,,,,,,,,,,,,,,,,,,,,,,,,,,,,,,,,,,,,,,,,,,,,,,,,,,,,,,,,,,,,,,,,,,,,,,,,,,,,,,,,,,,,,,,,,,,,,,,,,,,,,,,,
,,6346d9fda71cffd6c403c4a2,2024-02-22_04h31.13.493,kallum_motion_pilot,2023.2.2,Win32,31.74603175,6346d9fda71cffd6c403c4a2,65d6bb0e977760de756971f7,65d6be8ee75a8a6ae4a0618a,0.0567,0.0568,1,103,265,56,1,onetwo,,,,,,,,,,,,,,,,,,,,,,,,,,,,,,,,,,,,,,,,,,,,,,,,,,,,,,,,,,,,,,,,,,,,,,,,,,,,,,,,,,,,,,,,,,,,,,,,,,,,,,,,,,,,,,,,,,,,,,,,,,,,,,,,,,,,,,,,,
,,6346d9fda71cffd6c403c4a2,2024-02-22_04h31.13.493,kallum_motion_pilot,2023.2.2,Win32,31.74603175,6346d9fda71cffd6c403c4a2,65d6bb0e977760de756971f7,65d6be8ee75a8a6ae4a0618a,0.0568,0.0569,1,104,266,58,1,twoone,,,,,,,,,,,,,,,,,,,,,,,,,,,,,,,,,,,,,,,,,,,,,,,,,,,,,,,,,,,,,,,,,,,,,,,,,,,,,,,,,,,,,,,,,,,,,,,,,,,,,,,,,,,,,,,,,,,,,,,,,,,,,,,,,,,,,,,,,
,,6346d9fda71cffd6c403c4a2,2024-02-22_04h31.13.493,kallum_motion_pilot,2023.2.2,Win32,31.74603175,6346d9fda71cffd6c403c4a2,65d6bb0e977760de756971f7,65d6be8ee75a8a6ae4a0618a,0.0569,0.057,1,105,267,63,1,fourthree,,,,,,,,,,,,,,,,,,,,,,,,,,,,,,,,,,,,,,,,,,,,,,,,,,,,,,,,,,,,,,,,,,,,,,,,,,,,,,,,,,,,,,,,,,,,,,,,,,,,,,,,,,,,,,,,,,,,,,,,,,,,,,,,,,,,,,,,,
,,6346d9fda71cffd6c403c4a2,2024-02-22_04h31.13.493,kallum_motion_pilot,2023.2.2,Win32,31.74603175,6346d9fda71cffd6c403c4a2,65d6bb0e977760de756971f7,65d6be8ee75a8a6ae4a0618a,0.0571,0.0571,1,106,268,51,1,twofour,,,,,,,,,,,,,,,,,,,,,,,,,,,,,,,,,,,,,,,,,,,,,,,,,,,,,,,,,,,,,,,,,,,,,,,,,,,,,,,,,,,,,,,,,,,,,,,,,,,,,,,,,,,,,,,,,,,,,,,,,,,,,,,,,,,,,,,,,
,,6346d9fda71cffd6c403c4a2,2024-02-22_04h31.13.493,kallum_motion_pilot,2023.2.2,Win32,31.74603175,6346d9fda71cffd6c403c4a2,65d6bb0e977760de756971f7,65d6be8ee75a8a6ae4a0618a,0.0571,0.0572,1,107,269,102,1,eightsix,,,,,,,,,,,,,,,,,,,,,,,,,,,,,,,,,,,,,,,,,,,,,,,,,,,,,,,,,,,,,,,,,,,,,,,,,,,,,,,,,,,,,,,,,,,,,,,,,,,,,,,,,,,,,,,,,,,,,,,,,,,,,,,,,,,,,,,,,
,,6346d9fda71cffd6c403c4a2,2024-02-22_04h31.13.493,kallum_motion_pilot,2023.2.2,Win32,31.74603175,6346d9fda71cffd6c403c4a2,65d6bb0e977760de756971f7,65d6be8ee75a8a6ae4a0618a,0.0572,0.0573,1,108,270,50,1,twoone,,,,,,,,,,,,,,,,,,,,,,,,,,,,,,,,,,,,,,,,,,,,,,,,,,,,,,,,,,,,,,,,,,,,,,,,,,,,,,,,,,,,,,,,,,,,,,,,,,,,,,,,,,,,,,,,,,,,,,,,,,,,,,,,,,,,,,,,,
,,6346d9fda71cffd6c403c4a2,2024-02-22_04h31.13.493,kallum_motion_pilot,2023.2.2,Win32,31.74603175,6346d9fda71cffd6c403c4a2,65d6bb0e977760de756971f7,65d6be8ee75a8a6ae4a0618a,0.0574,0.0574,1,109,271,84,1,sevenfive,,,,,,,,,,,,,,,,,,,,,,,,,,,,,,,,,,,,,,,,,,,,,,,,,,,,,,,,,,,,,,,,,,,,,,,,,,,,,,,,,,,,,,,,,,,,,,,,,,,,,,,,,,,,,,,,,,,,,,,,,,,,,,,,,,,,,,,,,
,,6346d9fda71cffd6c403c4a2,2024-02-22_04h31.13.493,kallum_motion_pilot,2023.2.2,Win32,31.74603175,6346d9fda71cffd6c403c4a2,65d6bb0e977760de756971f7,65d6be8ee75a8a6ae4a0618a,0.0574,0.0576,1,110,272,114,1,sixfive,,,,,,,,,,,,,,,,,,,,,,,,,,,,,,,,,,,,,,,,,,,,,,,,,,,,,,,,,,,,,,,,,,,,,,,,,,,,,,,,,,,,,,,,,,,,,,,,,,,,,,,,,,,,,,,,,,,,,,,,,,,,,,,,,,,,,,,,,
,,6346d9fda71cffd6c403c4a2,2024-02-22_04h31.13.493,kallum_motion_pilot,2023.2.2,Win32,31.74603175,6346d9fda71cffd6c403c4a2,65d6bb0e977760de756971f7,65d6be8ee75a8a6ae4a0618a,0.0576,0.0576,1,111,273,151,1,eightseven,,,,,,,,,,,,,,,,,,,,,,,,,,,,,,,,,,,,,,,,,,,,,,,,,,,,,,,,,,,,,,,,,,,,,,,,,,,,,,,,,,,,,,,,,,,,,,,,,,,,,,,,,,,,,,,,,,,,,,,,,,,,,,,,,,,,,,,,,
,,6346d9fda71cffd6c403c4a2,2024-02-22_04h31.13.493,kallum_motion_pilot,2023.2.2,Win32,31.74603175,6346d9fda71cffd6c403c4a2,65d6bb0e977760de756971f7,65d6be8ee75a8a6ae4a0618a,0.0577,0.0577,1,112,274,152,1,fivesix,,,,,,,,,,,,,,,,,,,,,,,,,,,,,,,,,,,,,,,,,,,,,,,,,,,,,,,,,,,,,,,,,,,,,,,,,,,,,,,,,,,,,,,,,,,,,,,,,,,,,,,,,,,,,,,,,,,,,,,,,,,,,,,,,,,,,,,,,
,,6346d9fda71cffd6c403c4a2,2024-02-22_04h31.13.493,kallum_motion_pilot,2023.2.2,Win32,31.74603175,6346d9fda71cffd6c403c4a2,65d6bb0e977760de756971f7,65d6be8ee75a8a6ae4a0618a,0.0578,0.0578,1,113,275,110,1,eightsix,,,,,,,,,,,,,,,,,,,,,,,,,,,,,,,,,,,,,,,,,,,,,,,,,,,,,,,,,,,,,,,,,,,,,,,,,,,,,,,,,,,,,,,,,,,,,,,,,,,,,,,,,,,,,,,,,,,,,,,,,,,,,,,,,,,,,,,,,
,,6346d9fda71cffd6c403c4a2,2024-02-22_04h31.13.493,kallum_motion_pilot,2023.2.2,Win32,31.74603175,6346d9fda71cffd6c403c4a2,65d6bb0e977760de756971f7,65d6be8ee75a8a6ae4a0618a,0.0579,0.058,1,114,276,5,1,threefour,,,,,,,,,,,,,,,,,,,,,,,,,,,,,,,,,,,,,,,,,,,,,,,,,,,,,,,,,,,,,,,,,,,,,,,,,,,,,,,,,,,,,,,,,,,,,,,,,,,,,,,,,,,,,,,,,,,,,,,,,,,,,,,,,,,,,,,,,
,,6346d9fda71cffd6c403c4a2,2024-02-22_04h31.13.493,kallum_motion_pilot,2023.2.2,Win32,31.74603175,6346d9fda71cffd6c403c4a2,65d6bb0e977760de756971f7,65d6be8ee75a8a6ae4a0618a,0.0581,0.0581,1,115,277,81,1,fiveseven,,,,,,,,,,,,,,,,,,,,,,,,,,,,,,,,,,,,,,,,,,,,,,,,,,,,,,,,,,,,,,,,,,,,,,,,,,,,,,,,,,,,,,,,,,,,,,,,,,,,,,,,,,,,,,,,,,,,,,,,,,,,,,,,,,,,,,,,,
