startup.started,startup.stopped,Prolific ID*,date,expName,psychopyVersion,OS,frameRate,participant,study_id,session,stimpositions.started,stimpositions.stopped,hardcoded_stimulus_positions.thisRepN,hardcoded_stimulus_positions.thisTrialN,hardcoded_stimulus_positions.thisN,hardcoded_stimulus_positions.thisIndex,hardcoded_stimulus_positions.ran,StimulusPos,stimorientation.started,stimorientation.stopped,prac_stimorientation_import_loop.thisRepN,prac_stimorientation_import_loop.thisTrialN,prac_stimorientation_import_loop.thisN,prac_stimorientation_import_loop.thisIndex,prac_stimorientation_import_loop.ran,Stimorientation,welcome_instr.started,welcome_instr.stopped,key_resp.keys,key_resp.rt,key_resp.duration,response_steppedout_1.started,response_steppedout_1.stopped,key_resp_20.keys,key_resp_20.rt,key_resp_20.duration,response_steppedout_2.started,response_steppedout_2.stopped,key_resp_19.keys,key_resp_19.rt,key_resp_19.duration,stim_response_instr.started,stim_response_instr.stopped,key_resp_15.keys,key_resp_15.rt,key_resp_15.duration,direction_instr_2.started,direction_instr_2.stopped,key_resp_9.keys,key_resp_9.rt,key_resp_9.duration,instr_prac.started,instr_prac.stopped,key_resp_10.keys,key_resp_10.rt,key_resp_10.duration,Stim1_display_prac.started,Stim1_display_prac.stopped,Ecc,Circle1_ori,Circle2_ori,response_prac.started,similarity,response_time,response_prac.stopped,mouse_5.x,mouse_5.y,mouse_5.leftButton,mouse_5.midButton,mouse_5.rightButton,mouse_5.clicked_name,responseprac_feedback.started,responseprac_feedback.stopped,summary2_prac.started,summary2_prac.stopped,mouse_6.x,mouse_6.y,mouse_6.leftButton,mouse_6.midButton,mouse_6.rightButton,mouse_6.clicked_name,duringprac.thisRepN,duringprac.thisTrialN,duringprac.thisN,duringprac.thisIndex,duringprac.ran,begin.started,begin.stopped,key_resp_22.keys,key_resp_22.rt,key_resp_22.duration,Stim1_display.started,Stim1_display.stopped,circle1_ori,circle2_ori,circle1_SF,circle2_SF,response.started,response.stopped,mouse.x,mouse.y,mouse.leftButton,mouse.midButton,mouse.rightButton,mouse.clicked_name,trialnumber,double_pass.thisRepN,double_pass.thisTrialN,double_pass.thisN,double_pass.thisIndex,double_pass.ran,double_pass.order,main_trial.thisRepN,main_trial.thisTrialN,main_trial.thisN,main_trial.thisIndex,main_trial.ran,main_trial.order,Trial_Counter,Catch,Frequencies,response_2.started,response_2.stopped,mouse_2.x,mouse_2.y,mouse_2.leftButton,mouse_2.midButton,mouse_2.rightButton,mouse_2.clicked_name,special_trial.started,special_trial.stopped,catch_1.started,catch_1.stopped,mouse_3.x,mouse_3.y,mouse_3.leftButton,mouse_3.midButton,mouse_3.rightButton,catchresponse,catchnumber,response_time_catch,response_sum.started,response_sum.stopped,mouse_11.x,mouse_11.y,mouse_11.leftButton,mouse_11.midButton,mouse_11.rightButton,flip_presentation_sequence_for_double_pass.started,flip_presentation_sequence_for_double_pass.stopped,goodbye.started,goodbye.stopped,key_resp_3.keys,key_resp_3.rt,key_resp_3.duration
0.0002,0.0003,636688ae3dba27a43013baeb,2024-02-19_02h16.10.504,kallum_motion_pilot,2023.2.2,Win32,60.24096386,636688ae3dba27a43013baeb,65d2b6c8f2eece985d8e374c,65d2b9d76c39a6d844a8d030,,,,,,,,,,,,,,,,,,,,,,,,,,,,,,,,,,,,,,,,,,,,,,,,,,,,,,,,,,,,,,,,,,,,,,,,,,,,,,,,,,,,,,,,,,,,,,,,,,,,,,,,,,,,,,,,,,,,,,,,,,,,,,,,,,,,,,,,,,,,,,,,,
,,636688ae3dba27a43013baeb,2024-02-19_02h16.10.504,kallum_motion_pilot,2023.2.2,Win32,60.24096386,636688ae3dba27a43013baeb,65d2b6c8f2eece985d8e374c,65d2b9d76c39a6d844a8d030,0.0103,0.0104,0,0,0,0,1,onetwo,,,,,,,,,,,,,,,,,,,,,,,,,,,,,,,,,,,,,,,,,,,,,,,,,,,,,,,,,,,,,,,,,,,,,,,,,,,,,,,,,,,,,,,,,,,,,,,,,,,,,,,,,,,,,,,,,,,,,,,,,,,,,,,,,,,,,,,,,
,,636688ae3dba27a43013baeb,2024-02-19_02h16.10.504,kallum_motion_pilot,2023.2.2,Win32,60.24096386,636688ae3dba27a43013baeb,65d2b6c8f2eece985d8e374c,65d2b9d76c39a6d844a8d030,0.0104,0.0104,0,1,1,50,1,twoone,,,,,,,,,,,,,,,,,,,,,,,,,,,,,,,,,,,,,,,,,,,,,,,,,,,,,,,,,,,,,,,,,,,,,,,,,,,,,,,,,,,,,,,,,,,,,,,,,,,,,,,,,,,,,,,,,,,,,,,,,,,,,,,,,,,,,,,,,
,,636688ae3dba27a43013baeb,2024-02-19_02h16.10.504,kallum_motion_pilot,2023.2.2,Win32,60.24096386,636688ae3dba27a43013baeb,65d2b6c8f2eece985d8e374c,65d2b9d76c39a6d844a8d030,0.0106,0.0106,0,2,2,133,1,seveneight,,,,,,,,,,,,,,,,,,,,,,,,,,,,,,,,,,,,,,,,,,,,,,,,,,,,,,,,,,,,,,,,,,,,,,,,,,,,,,,,,,,,,,,,,,,,,,,,,,,,,,,,,,,,,,,,,,,,,,,,,,,,,,,,,,,,,,,,,
,,636688ae3dba27a43013baeb,2024-02-19_02h16.10.504,kallum_motion_pilot,2023.2.2,Win32,60.24096386,636688ae3dba27a43013baeb,65d2b6c8f2eece985d8e374c,65d2b9d76c39a6d844a8d030,0.0106,0.0106,0,3,3,160,1,fivesix,,,,,,,,,,,,,,,,,,,,,,,,,,,,,,,,,,,,,,,,,,,,,,,,,,,,,,,,,,,,,,,,,,,,,,,,,,,,,,,,,,,,,,,,,,,,,,,,,,,,,,,,,,,,,,,,,,,,,,,,,,,,,,,,,,,,,,,,,
,,636688ae3dba27a43013baeb,2024-02-19_02h16.10.504,kallum_motion_pilot,2023.2.2,Win32,60.24096386,636688ae3dba27a43013baeb,65d2b6c8f2eece985d8e374c,65d2b9d76c39a6d844a8d030,0.0106,0.0106,0,4,4,48,1,onetwo,,,,,,,,,,,,,,,,,,,,,,,,,,,,,,,,,,,,,,,,,,,,,,,,,,,,,,,,,,,,,,,,,,,,,,,,,,,,,,,,,,,,,,,,,,,,,,,,,,,,,,,,,,,,,,,,,,,,,,,,,,,,,,,,,,,,,,,,,
,,636688ae3dba27a43013baeb,2024-02-19_02h16.10.504,kallum_motion_pilot,2023.2.2,Win32,60.24096386,636688ae3dba27a43013baeb,65d2b6c8f2eece985d8e374c,65d2b9d76c39a6d844a8d030,0.0106,0.0106,0,5,5,155,1,sixeight,,,,,,,,,,,,,,,,,,,,,,,,,,,,,,,,,,,,,,,,,,,,,,,,,,,,,,,,,,,,,,,,,,,,,,,,,,,,,,,,,,,,,,,,,,,,,,,,,,,,,,,,,,,,,,,,,,,,,,,,,,,,,,,,,,,,,,,,,
,,636688ae3dba27a43013baeb,2024-02-19_02h16.10.504,kallum_motion_pilot,2023.2.2,Win32,60.24096386,636688ae3dba27a43013baeb,65d2b6c8f2eece985d8e374c,65d2b9d76c39a6d844a8d030,0.0106,0.0106,0,6,6,109,1,seveneight,,,,,,,,,,,,,,,,,,,,,,,,,,,,,,,,,,,,,,,,,,,,,,,,,,,,,,,,,,,,,,,,,,,,,,,,,,,,,,,,,,,,,,,,,,,,,,,,,,,,,,,,,,,,,,,,,,,,,,,,,,,,,,,,,,,,,,,,,
,,636688ae3dba27a43013baeb,2024-02-19_02h16.10.504,kallum_motion_pilot,2023.2.2,Win32,60.24096386,636688ae3dba27a43013baeb,65d2b6c8f2eece985d8e374c,65d2b9d76c39a6d844a8d030,0.0107,0.0107,0,7,7,3,1,twofour,,,,,,,,,,,,,,,,,,,,,,,,,,,,,,,,,,,,,,,,,,,,,,,,,,,,,,,,,,,,,,,,,,,,,,,,,,,,,,,,,,,,,,,,,,,,,,,,,,,,,,,,,,,,,,,,,,,,,,,,,,,,,,,,,,,,,,,,,
,,636688ae3dba27a43013baeb,2024-02-19_02h16.10.504,kallum_motion_pilot,2023.2.2,Win32,60.24096386,636688ae3dba27a43013baeb,65d2b6c8f2eece985d8e374c,65d2b9d76c39a6d844a8d030,0.0107,0.0108,0,8,8,74,1,twoone,,,,,,,,,,,,,,,,,,,,,,,,,,,,,,,,,,,,,,,,,,,,,,,,,,,,,,,,,,,,,,,,,,,,,,,,,,,,,,,,,,,,,,,,,,,,,,,,,,,,,,,,,,,,,,,,,,,,,,,,,,,,,,,,,,,,,,,,,
,,636688ae3dba27a43013baeb,2024-02-19_02h16.10.504,kallum_motion_pilot,2023.2.2,Win32,60.24096386,636688ae3dba27a43013baeb,65d2b6c8f2eece985d8e374c,65d2b9d76c39a6d844a8d030,0.0108,0.0108,0,9,9,150,1,eightsix,,,,,,,,,,,,,,,,,,,,,,,,,,,,,,,,,,,,,,,,,,,,,,,,,,,,,,,,,,,,,,,,,,,,,,,,,,,,,,,,,,,,,,,,,,,,,,,,,,,,,,,,,,,,,,,,,,,,,,,,,,,,,,,,,,,,,,,,,
,,636688ae3dba27a43013baeb,2024-02-19_02h16.10.504,kallum_motion_pilot,2023.2.2,Win32,60.24096386,636688ae3dba27a43013baeb,65d2b6c8f2eece985d8e374c,65d2b9d76c39a6d844a8d030,0.0109,0.0109,0,10,10,61,1,threefour,,,,,,,,,,,,,,,,,,,,,,,,,,,,,,,,,,,,,,,,,,,,,,,,,,,,,,,,,,,,,,,,,,,,,,,,,,,,,,,,,,,,,,,,,,,,,,,,,,,,,,,,,,,,,,,,,,,,,,,,,,,,,,,,,,,,,,,,,
,,636688ae3dba27a43013baeb,2024-02-19_02h16.10.504,kallum_motion_pilot,2023.2.2,Win32,60.24096386,636688ae3dba27a43013baeb,65d2b6c8f2eece985d8e374c,65d2b9d76c39a6d844a8d030,0.0109,0.0109,0,11,11,84,1,sevenfive,,,,,,,,,,,,,,,,,,,,,,,,,,,,,,,,,,,,,,,,,,,,,,,,,,,,,,,,,,,,,,,,,,,,,,,,,,,,,,,,,,,,,,,,,,,,,,,,,,,,,,,,,,,,,,,,,,,,,,,,,,,,,,,,,,,,,,,,,
,,636688ae3dba27a43013baeb,2024-02-19_02h16.10.504,kallum_motion_pilot,2023.2.2,Win32,60.24096386,636688ae3dba27a43013baeb,65d2b6c8f2eece985d8e374c,65d2b9d76c39a6d844a8d030,0.0109,0.0109,0,12,12,134,1,eightsix,,,,,,,,,,,,,,,,,,,,,,,,,,,,,,,,,,,,,,,,,,,,,,,,,,,,,,,,,,,,,,,,,,,,,,,,,,,,,,,,,,,,,,,,,,,,,,,,,,,,,,,,,,,,,,,,,,,,,,,,,,,,,,,,,,,,,,,,,
,,636688ae3dba27a43013baeb,2024-02-19_02h16.10.504,kallum_motion_pilot,2023.2.2,Win32,60.24096386,636688ae3dba27a43013baeb,65d2b6c8f2eece985d8e374c,65d2b9d76c39a6d844a8d030,0.0109,0.0109,0,13,13,101,1,seveneight,,,,,,,,,,,,,,,,,,,,,,,,,,,,,,,,,,,,,,,,,,,,,,,,,,,,,,,,,,,,,,,,,,,,,,,,,,,,,,,,,,,,,,,,,,,,,,,,,,,,,,,,,,,,,,,,,,,,,,,,,,,,,,,,,,,,,,,,,
,,636688ae3dba27a43013baeb,2024-02-19_02h16.10.504,kallum_motion_pilot,2023.2.2,Win32,60.24096386,636688ae3dba27a43013baeb,65d2b6c8f2eece985d8e374c,65d2b9d76c39a6d844a8d030,0.0109,0.0109,0,14,14,99,1,sixeight,,,,,,,,,,,,,,,,,,,,,,,,,,,,,,,,,,,,,,,,,,,,,,,,,,,,,,,,,,,,,,,,,,,,,,,,,,,,,,,,,,,,,,,,,,,,,,,,,,,,,,,,,,,,,,,,,,,,,,,,,,,,,,,,,,,,,,,,,
,,636688ae3dba27a43013baeb,2024-02-19_02h16.10.504,kallum_motion_pilot,2023.2.2,Win32,60.24096386,636688ae3dba27a43013baeb,65d2b6c8f2eece985d8e374c,65d2b9d76c39a6d844a8d030,0.0109,0.0109,0,15,15,141,1,seveneight,,,,,,,,,,,,,,,,,,,,,,,,,,,,,,,,,,,,,,,,,,,,,,,,,,,,,,,,,,,,,,,,,,,,,,,,,,,,,,,,,,,,,,,,,,,,,,,,,,,,,,,,,,,,,,,,,,,,,,,,,,,,,,,,,,,,,,,,,
,,636688ae3dba27a43013baeb,2024-02-19_02h16.10.504,kallum_motion_pilot,2023.2.2,Win32,60.24096386,636688ae3dba27a43013baeb,65d2b6c8f2eece985d8e374c,65d2b9d76c39a6d844a8d030,0.011,0.011,0,16,16,16,1,onetwo,,,,,,,,,,,,,,,,,,,,,,,,,,,,,,,,,,,,,,,,,,,,,,,,,,,,,,,,,,,,,,,,,,,,,,,,,,,,,,,,,,,,,,,,,,,,,,,,,,,,,,,,,,,,,,,,,,,,,,,,,,,,,,,,,,,,,,,,,
,,636688ae3dba27a43013baeb,2024-02-19_02h16.10.504,kallum_motion_pilot,2023.2.2,Win32,60.24096386,636688ae3dba27a43013baeb,65d2b6c8f2eece985d8e374c,65d2b9d76c39a6d844a8d030,0.011,0.0111,0,17,17,2,1,twoone,,,,,,,,,,,,,,,,,,,,,,,,,,,,,,,,,,,,,,,,,,,,,,,,,,,,,,,,,,,,,,,,,,,,,,,,,,,,,,,,,,,,,,,,,,,,,,,,,,,,,,,,,,,,,,,,,,,,,,,,,,,,,,,,,,,,,,,,,
,,636688ae3dba27a43013baeb,2024-02-19_02h16.10.504,kallum_motion_pilot,2023.2.2,Win32,60.24096386,636688ae3dba27a43013baeb,65d2b6c8f2eece985d8e374c,65d2b9d76c39a6d844a8d030,0.0111,0.0111,0,18,18,149,1,seveneight,,,,,,,,,,,,,,,,,,,,,,,,,,,,,,,,,,,,,,,,,,,,,,,,,,,,,,,,,,,,,,,,,,,,,,,,,,,,,,,,,,,,,,,,,,,,,,,,,,,,,,,,,,,,,,,,,,,,,,,,,,,,,,,,,,,,,,,,,
,,636688ae3dba27a43013baeb,2024-02-19_02h16.10.504,kallum_motion_pilot,2023.2.2,Win32,60.24096386,636688ae3dba27a43013baeb,65d2b6c8f2eece985d8e374c,65d2b9d76c39a6d844a8d030,0.0111,0.0111,0,19,19,122,1,sixfive,,,,,,,,,,,,,,,,,,,,,,,,,,,,,,,,,,,,,,,,,,,,,,,,,,,,,,,,,,,,,,,,,,,,,,,,,,,,,,,,,,,,,,,,,,,,,,,,,,,,,,,,,,,,,,,,,,,,,,,,,,,,,,,,,,,,,,,,,
,,636688ae3dba27a43013baeb,2024-02-19_02h16.10.504,kallum_motion_pilot,2023.2.2,Win32,60.24096386,636688ae3dba27a43013baeb,65d2b6c8f2eece985d8e374c,65d2b9d76c39a6d844a8d030,0.0112,0.0112,0,20,20,142,1,eightsix,,,,,,,,,,,,,,,,,,,,,,,,,,,,,,,,,,,,,,,,,,,,,,,,,,,,,,,,,,,,,,,,,,,,,,,,,,,,,,,,,,,,,,,,,,,,,,,,,,,,,,,,,,,,,,,,,,,,,,,,,,,,,,,,,,,,,,,,,
,,636688ae3dba27a43013baeb,2024-02-19_02h16.10.504,kallum_motion_pilot,2023.2.2,Win32,60.24096386,636688ae3dba27a43013baeb,65d2b6c8f2eece985d8e374c,65d2b9d76c39a6d844a8d030,0.0112,0.0112,0,21,21,21,1,threefour,,,,,,,,,,,,,,,,,,,,,,,,,,,,,,,,,,,,,,,,,,,,,,,,,,,,,,,,,,,,,,,,,,,,,,,,,,,,,,,,,,,,,,,,,,,,,,,,,,,,,,,,,,,,,,,,,,,,,,,,,,,,,,,,,,,,,,,,,
,,636688ae3dba27a43013baeb,2024-02-19_02h16.10.504,kallum_motion_pilot,2023.2.2,Win32,60.24096386,636688ae3dba27a43013baeb,65d2b6c8f2eece985d8e374c,65d2b9d76c39a6d844a8d030,0.0112,0.0112,0,22,22,114,1,sixfive,,,,,,,,,,,,,,,,,,,,,,,,,,,,,,,,,,,,,,,,,,,,,,,,,,,,,,,,,,,,,,,,,,,,,,,,,,,,,,,,,,,,,,,,,,,,,,,,,,,,,,,,,,,,,,,,,,,,,,,,,,,,,,,,,,,,,,,,,
,,636688ae3dba27a43013baeb,2024-02-19_02h16.10.504,kallum_motion_pilot,2023.2.2,Win32,60.24096386,636688ae3dba27a43013baeb,65d2b6c8f2eece985d8e374c,65d2b9d76c39a6d844a8d030,0.0112,0.0112,0,23,23,31,1,fourthree,,,,,,,,,,,,,,,,,,,,,,,,,,,,,,,,,,,,,,,,,,,,,,,,,,,,,,,,,,,,,,,,,,,,,,,,,,,,,,,,,,,,,,,,,,,,,,,,,,,,,,,,,,,,,,,,,,,,,,,,,,,,,,,,,,,,,,,,,
,,636688ae3dba27a43013baeb,2024-02-19_02h16.10.504,kallum_motion_pilot,2023.2.2,Win32,60.24096386,636688ae3dba27a43013baeb,65d2b6c8f2eece985d8e374c,65d2b9d76c39a6d844a8d030,0.0112,0.0113,0,24,24,63,1,fourthree,,,,,,,,,,,,,,,,,,,,,,,,,,,,,,,,,,,,,,,,,,,,,,,,,,,,,,,,,,,,,,,,,,,,,,,,,,,,,,,,,,,,,,,,,,,,,,,,,,,,,,,,,,,,,,,,,,,,,,,,,,,,,,,,,,,,,,,,,
,,636688ae3dba27a43013baeb,2024-02-19_02h16.10.504,kallum_motion_pilot,2023.2.2,Win32,60.24096386,636688ae3dba27a43013baeb,65d2b6c8f2eece985d8e374c,65d2b9d76c39a6d844a8d030,0.0113,0.0113,0,25,25,153,1,fiveseven,,,,,,,,,,,,,,,,,,,,,,,,,,,,,,,,,,,,,,,,,,,,,,,,,,,,,,,,,,,,,,,,,,,,,,,,,,,,,,,,,,,,,,,,,,,,,,,,,,,,,,,,,,,,,,,,,,,,,,,,,,,,,,,,,,,,,,,,,
,,636688ae3dba27a43013baeb,2024-02-19_02h16.10.504,kallum_motion_pilot,2023.2.2,Win32,60.24096386,636688ae3dba27a43013baeb,65d2b6c8f2eece985d8e374c,65d2b9d76c39a6d844a8d030,0.0113,0.0114,0,26,26,73,1,onethree,,,,,,,,,,,,,,,,,,,,,,,,,,,,,,,,,,,,,,,,,,,,,,,,,,,,,,,,,,,,,,,,,,,,,,,,,,,,,,,,,,,,,,,,,,,,,,,,,,,,,,,,,,,,,,,,,,,,,,,,,,,,,,,,,,,,,,,,,
,,636688ae3dba27a43013baeb,2024-02-19_02h16.10.504,kallum_motion_pilot,2023.2.2,Win32,60.24096386,636688ae3dba27a43013baeb,65d2b6c8f2eece985d8e374c,65d2b9d76c39a6d844a8d030,0.0114,0.0114,0,27,27,98,1,sixfive,,,,,,,,,,,,,,,,,,,,,,,,,,,,,,,,,,,,,,,,,,,,,,,,,,,,,,,,,,,,,,,,,,,,,,,,,,,,,,,,,,,,,,,,,,,,,,,,,,,,,,,,,,,,,,,,,,,,,,,,,,,,,,,,,,,,,,,,,
,,636688ae3dba27a43013baeb,2024-02-19_02h16.10.504,kallum_motion_pilot,2023.2.2,Win32,60.24096386,636688ae3dba27a43013baeb,65d2b6c8f2eece985d8e374c,65d2b9d76c39a6d844a8d030,0.0114,0.0114,0,28,28,17,1,onethree,,,,,,,,,,,,,,,,,,,,,,,,,,,,,,,,,,,,,,,,,,,,,,,,,,,,,,,,,,,,,,,,,,,,,,,,,,,,,,,,,,,,,,,,,,,,,,,,,,,,,,,,,,,,,,,,,,,,,,,,,,,,,,,,,,,,,,,,,
,,636688ae3dba27a43013baeb,2024-02-19_02h16.10.504,kallum_motion_pilot,2023.2.2,Win32,60.24096386,636688ae3dba27a43013baeb,65d2b6c8f2eece985d8e374c,65d2b9d76c39a6d844a8d030,0.0114,0.0114,0,29,29,102,1,eightsix,,,,,,,,,,,,,,,,,,,,,,,,,,,,,,,,,,,,,,,,,,,,,,,,,,,,,,,,,,,,,,,,,,,,,,,,,,,,,,,,,,,,,,,,,,,,,,,,,,,,,,,,,,,,,,,,,,,,,,,,,,,,,,,,,,,,,,,,,
,,636688ae3dba27a43013baeb,2024-02-19_02h16.10.504,kallum_motion_pilot,2023.2.2,Win32,60.24096386,636688ae3dba27a43013baeb,65d2b6c8f2eece985d8e374c,65d2b9d76c39a6d844a8d030,0.0114,0.0114,0,30,30,157,1,seveneight,,,,,,,,,,,,,,,,,,,,,,,,,,,,,,,,,,,,,,,,,,,,,,,,,,,,,,,,,,,,,,,,,,,,,,,,,,,,,,,,,,,,,,,,,,,,,,,,,,,,,,,,,,,,,,,,,,,,,,,,,,,,,,,,,,,,,,,,,
,,636688ae3dba27a43013baeb,2024-02-19_02h16.10.504,kallum_motion_pilot,2023.2.2,Win32,60.24096386,636688ae3dba27a43013baeb,65d2b6c8f2eece985d8e374c,65d2b9d76c39a6d844a8d030,0.0114,0.0114,0,31,31,79,1,eightseven,,,,,,,,,,,,,,,,,,,,,,,,,,,,,,,,,,,,,,,,,,,,,,,,,,,,,,,,,,,,,,,,,,,,,,,,,,,,,,,,,,,,,,,,,,,,,,,,,,,,,,,,,,,,,,,,,,,,,,,,,,,,,,,,,,,,,,,,,
,,636688ae3dba27a43013baeb,2024-02-19_02h16.10.504,kallum_motion_pilot,2023.2.2,Win32,60.24096386,636688ae3dba27a43013baeb,65d2b6c8f2eece985d8e374c,65d2b9d76c39a6d844a8d030,0.0114,0.0114,0,32,32,127,1,eightseven,,,,,,,,,,,,,,,,,,,,,,,,,,,,,,,,,,,,,,,,,,,,,,,,,,,,,,,,,,,,,,,,,,,,,,,,,,,,,,,,,,,,,,,,,,,,,,,,,,,,,,,,,,,,,,,,,,,,,,,,,,,,,,,,,,,,,,,,,
,,636688ae3dba27a43013baeb,2024-02-19_02h16.10.504,kallum_motion_pilot,2023.2.2,Win32,60.24096386,636688ae3dba27a43013baeb,65d2b6c8f2eece985d8e374c,65d2b9d76c39a6d844a8d030,0.0115,0.0115,0,33,33,137,1,fiveseven,,,,,,,,,,,,,,,,,,,,,,,,,,,,,,,,,,,,,,,,,,,,,,,,,,,,,,,,,,,,,,,,,,,,,,,,,,,,,,,,,,,,,,,,,,,,,,,,,,,,,,,,,,,,,,,,,,,,,,,,,,,,,,,,,,,,,,,,,
,,636688ae3dba27a43013baeb,2024-02-19_02h16.10.504,kallum_motion_pilot,2023.2.2,Win32,60.24096386,636688ae3dba27a43013baeb,65d2b6c8f2eece985d8e374c,65d2b9d76c39a6d844a8d030,0.0115,0.0115,0,34,34,78,1,fourtwo,,,,,,,,,,,,,,,,,,,,,,,,,,,,,,,,,,,,,,,,,,,,,,,,,,,,,,,,,,,,,,,,,,,,,,,,,,,,,,,,,,,,,,,,,,,,,,,,,,,,,,,,,,,,,,,,,,,,,,,,,,,,,,,,,,,,,,,,,
,,636688ae3dba27a43013baeb,2024-02-19_02h16.10.504,kallum_motion_pilot,2023.2.2,Win32,60.24096386,636688ae3dba27a43013baeb,65d2b6c8f2eece985d8e374c,65d2b9d76c39a6d844a8d030,0.0115,0.0115,0,35,35,60,1,threeone,,,,,,,,,,,,,,,,,,,,,,,,,,,,,,,,,,,,,,,,,,,,,,,,,,,,,,,,,,,,,,,,,,,,,,,,,,,,,,,,,,,,,,,,,,,,,,,,,,,,,,,,,,,,,,,,,,,,,,,,,,,,,,,,,,,,,,,,,
,,636688ae3dba27a43013baeb,2024-02-19_02h16.10.504,kallum_motion_pilot,2023.2.2,Win32,60.24096386,636688ae3dba27a43013baeb,65d2b6c8f2eece985d8e374c,65d2b9d76c39a6d844a8d030,0.0116,0.0116,0,36,36,19,1,twofour,,,,,,,,,,,,,,,,,,,,,,,,,,,,,,,,,,,,,,,,,,,,,,,,,,,,,,,,,,,,,,,,,,,,,,,,,,,,,,,,,,,,,,,,,,,,,,,,,,,,,,,,,,,,,,,,,,,,,,,,,,,,,,,,,,,,,,,,,
,,636688ae3dba27a43013baeb,2024-02-19_02h16.10.504,kallum_motion_pilot,2023.2.2,Win32,60.24096386,636688ae3dba27a43013baeb,65d2b6c8f2eece985d8e374c,65d2b9d76c39a6d844a8d030,0.0116,0.0116,0,37,37,44,1,threeone,,,,,,,,,,,,,,,,,,,,,,,,,,,,,,,,,,,,,,,,,,,,,,,,,,,,,,,,,,,,,,,,,,,,,,,,,,,,,,,,,,,,,,,,,,,,,,,,,,,,,,,,,,,,,,,,,,,,,,,,,,,,,,,,,,,,,,,,,
,,636688ae3dba27a43013baeb,2024-02-19_02h16.10.504,kallum_motion_pilot,2023.2.2,Win32,60.24096386,636688ae3dba27a43013baeb,65d2b6c8f2eece985d8e374c,65d2b9d76c39a6d844a8d030,0.0117,0.0117,0,38,38,71,1,fourthree,,,,,,,,,,,,,,,,,,,,,,,,,,,,,,,,,,,,,,,,,,,,,,,,,,,,,,,,,,,,,,,,,,,,,,,,,,,,,,,,,,,,,,,,,,,,,,,,,,,,,,,,,,,,,,,,,,,,,,,,,,,,,,,,,,,,,,,,,
,,636688ae3dba27a43013baeb,2024-02-19_02h16.10.504,kallum_motion_pilot,2023.2.2,Win32,60.24096386,636688ae3dba27a43013baeb,65d2b6c8f2eece985d8e374c,65d2b9d76c39a6d844a8d030,0.0117,0.0117,0,39,39,138,1,sixfive,,,,,,,,,,,,,,,,,,,,,,,,,,,,,,,,,,,,,,,,,,,,,,,,,,,,,,,,,,,,,,,,,,,,,,,,,,,,,,,,,,,,,,,,,,,,,,,,,,,,,,,,,,,,,,,,,,,,,,,,,,,,,,,,,,,,,,,,,
,,636688ae3dba27a43013baeb,2024-02-19_02h16.10.504,kallum_motion_pilot,2023.2.2,Win32,60.24096386,636688ae3dba27a43013baeb,65d2b6c8f2eece985d8e374c,65d2b9d76c39a6d844a8d030,0.0117,0.0117,0,40,40,86,1,eightsix,,,,,,,,,,,,,,,,,,,,,,,,,,,,,,,,,,,,,,,,,,,,,,,,,,,,,,,,,,,,,,,,,,,,,,,,,,,,,,,,,,,,,,,,,,,,,,,,,,,,,,,,,,,,,,,,,,,,,,,,,,,,,,,,,,,,,,,,,
,,636688ae3dba27a43013baeb,2024-02-19_02h16.10.504,kallum_motion_pilot,2023.2.2,Win32,60.24096386,636688ae3dba27a43013baeb,65d2b6c8f2eece985d8e374c,65d2b9d76c39a6d844a8d030,0.0117,0.0118,0,41,41,24,1,onetwo,,,,,,,,,,,,,,,,,,,,,,,,,,,,,,,,,,,,,,,,,,,,,,,,,,,,,,,,,,,,,,,,,,,,,,,,,,,,,,,,,,,,,,,,,,,,,,,,,,,,,,,,,,,,,,,,,,,,,,,,,,,,,,,,,,,,,,,,,
,,636688ae3dba27a43013baeb,2024-02-19_02h16.10.504,kallum_motion_pilot,2023.2.2,Win32,60.24096386,636688ae3dba27a43013baeb,65d2b6c8f2eece985d8e374c,65d2b9d76c39a6d844a8d030,0.0118,0.0118,0,42,42,29,1,threefour,,,,,,,,,,,,,,,,,,,,,,,,,,,,,,,,,,,,,,,,,,,,,,,,,,,,,,,,,,,,,,,,,,,,,,,,,,,,,,,,,,,,,,,,,,,,,,,,,,,,,,,,,,,,,,,,,,,,,,,,,,,,,,,,,,,,,,,,,
,,636688ae3dba27a43013baeb,2024-02-19_02h16.10.504,kallum_motion_pilot,2023.2.2,Win32,60.24096386,636688ae3dba27a43013baeb,65d2b6c8f2eece985d8e374c,65d2b9d76c39a6d844a8d030,0.0118,0.0118,0,43,43,70,1,fourtwo,,,,,,,,,,,,,,,,,,,,,,,,,,,,,,,,,,,,,,,,,,,,,,,,,,,,,,,,,,,,,,,,,,,,,,,,,,,,,,,,,,,,,,,,,,,,,,,,,,,,,,,,,,,,,,,,,,,,,,,,,,,,,,,,,,,,,,,,,
,,636688ae3dba27a43013baeb,2024-02-19_02h16.10.504,kallum_motion_pilot,2023.2.2,Win32,60.24096386,636688ae3dba27a43013baeb,65d2b6c8f2eece985d8e374c,65d2b9d76c39a6d844a8d030,0.0118,0.0118,0,44,44,43,1,twofour,,,,,,,,,,,,,,,,,,,,,,,,,,,,,,,,,,,,,,,,,,,,,,,,,,,,,,,,,,,,,,,,,,,,,,,,,,,,,,,,,,,,,,,,,,,,,,,,,,,,,,,,,,,,,,,,,,,,,,,,,,,,,,,,,,,,,,,,,
,,636688ae3dba27a43013baeb,2024-02-19_02h16.10.504,kallum_motion_pilot,2023.2.2,Win32,60.24096386,636688ae3dba27a43013baeb,65d2b6c8f2eece985d8e374c,65d2b9d76c39a6d844a8d030,0.012,0.012,0,45,45,107,1,sixeight,,,,,,,,,,,,,,,,,,,,,,,,,,,,,,,,,,,,,,,,,,,,,,,,,,,,,,,,,,,,,,,,,,,,,,,,,,,,,,,,,,,,,,,,,,,,,,,,,,,,,,,,,,,,,,,,,,,,,,,,,,,,,,,,,,,,,,,,,
,,636688ae3dba27a43013baeb,2024-02-19_02h16.10.504,kallum_motion_pilot,2023.2.2,Win32,60.24096386,636688ae3dba27a43013baeb,65d2b6c8f2eece985d8e374c,65d2b9d76c39a6d844a8d030,0.012,0.012,0,46,46,120,1,fivesix,,,,,,,,,,,,,,,,,,,,,,,,,,,,,,,,,,,,,,,,,,,,,,,,,,,,,,,,,,,,,,,,,,,,,,,,,,,,,,,,,,,,,,,,,,,,,,,,,,,,,,,,,,,,,,,,,,,,,,,,,,,,,,,,,,,,,,,,,
,,636688ae3dba27a43013baeb,2024-02-19_02h16.10.504,kallum_motion_pilot,2023.2.2,Win32,60.24096386,636688ae3dba27a43013baeb,65d2b6c8f2eece985d8e374c,65d2b9d76c39a6d844a8d030,0.012,0.012,0,47,47,147,1,sixeight,,,,,,,,,,,,,,,,,,,,,,,,,,,,,,,,,,,,,,,,,,,,,,,,,,,,,,,,,,,,,,,,,,,,,,,,,,,,,,,,,,,,,,,,,,,,,,,,,,,,,,,,,,,,,,,,,,,,,,,,,,,,,,,,,,,,,,,,,
,,636688ae3dba27a43013baeb,2024-02-19_02h16.10.504,kallum_motion_pilot,2023.2.2,Win32,60.24096386,636688ae3dba27a43013baeb,65d2b6c8f2eece985d8e374c,65d2b9d76c39a6d844a8d030,0.0121,0.0122,0,48,48,47,1,fourthree,,,,,,,,,,,,,,,,,,,,,,,,,,,,,,,,,,,,,,,,,,,,,,,,,,,,,,,,,,,,,,,,,,,,,,,,,,,,,,,,,,,,,,,,,,,,,,,,,,,,,,,,,,,,,,,,,,,,,,,,,,,,,,,,,,,,,,,,,
,,636688ae3dba27a43013baeb,2024-02-19_02h16.10.504,kallum_motion_pilot,2023.2.2,Win32,60.24096386,636688ae3dba27a43013baeb,65d2b6c8f2eece985d8e374c,65d2b9d76c39a6d844a8d030,0.0122,0.0122,0,49,49,75,1,twofour,,,,,,,,,,,,,,,,,,,,,,,,,,,,,,,,,,,,,,,,,,,,,,,,,,,,,,,,,,,,,,,,,,,,,,,,,,,,,,,,,,,,,,,,,,,,,,,,,,,,,,,,,,,,,,,,,,,,,,,,,,,,,,,,,,,,,,,,,
,,636688ae3dba27a43013baeb,2024-02-19_02h16.10.504,kallum_motion_pilot,2023.2.2,Win32,60.24096386,636688ae3dba27a43013baeb,65d2b6c8f2eece985d8e374c,65d2b9d76c39a6d844a8d030,0.0122,0.0122,0,50,50,143,1,eightseven,,,,,,,,,,,,,,,,,,,,,,,,,,,,,,,,,,,,,,,,,,,,,,,,,,,,,,,,,,,,,,,,,,,,,,,,,,,,,,,,,,,,,,,,,,,,,,,,,,,,,,,,,,,,,,,,,,,,,,,,,,,,,,,,,,,,,,,,,
,,636688ae3dba27a43013baeb,2024-02-19_02h16.10.504,kallum_motion_pilot,2023.2.2,Win32,60.24096386,636688ae3dba27a43013baeb,65d2b6c8f2eece985d8e374c,65d2b9d76c39a6d844a8d030,0.0122,0.0122,0,51,51,22,1,fourtwo,,,,,,,,,,,,,,,,,,,,,,,,,,,,,,,,,,,,,,,,,,,,,,,,,,,,,,,,,,,,,,,,,,,,,,,,,,,,,,,,,,,,,,,,,,,,,,,,,,,,,,,,,,,,,,,,,,,,,,,,,,,,,,,,,,,,,,,,,
,,636688ae3dba27a43013baeb,2024-02-19_02h16.10.504,kallum_motion_pilot,2023.2.2,Win32,60.24096386,636688ae3dba27a43013baeb,65d2b6c8f2eece985d8e374c,65d2b9d76c39a6d844a8d030,0.0122,0.0122,0,52,52,95,1,eightseven,,,,,,,,,,,,,,,,,,,,,,,,,,,,,,,,,,,,,,,,,,,,,,,,,,,,,,,,,,,,,,,,,,,,,,,,,,,,,,,,,,,,,,,,,,,,,,,,,,,,,,,,,,,,,,,,,,,,,,,,,,,,,,,,,,,,,,,,,
,,636688ae3dba27a43013baeb,2024-02-19_02h16.10.504,kallum_motion_pilot,2023.2.2,Win32,60.24096386,636688ae3dba27a43013baeb,65d2b6c8f2eece985d8e374c,65d2b9d76c39a6d844a8d030,0.0123,0.0123,0,53,53,126,1,eightsix,,,,,,,,,,,,,,,,,,,,,,,,,,,,,,,,,,,,,,,,,,,,,,,,,,,,,,,,,,,,,,,,,,,,,,,,,,,,,,,,,,,,,,,,,,,,,,,,,,,,,,,,,,,,,,,,,,,,,,,,,,,,,,,,,,,,,,,,,
,,636688ae3dba27a43013baeb,2024-02-19_02h16.10.504,kallum_motion_pilot,2023.2.2,Win32,60.24096386,636688ae3dba27a43013baeb,65d2b6c8f2eece985d8e374c,65d2b9d76c39a6d844a8d030,0.0123,0.0123,0,54,54,104,1,fivesix,,,,,,,,,,,,,,,,,,,,,,,,,,,,,,,,,,,,,,,,,,,,,,,,,,,,,,,,,,,,,,,,,,,,,,,,,,,,,,,,,,,,,,,,,,,,,,,,,,,,,,,,,,,,,,,,,,,,,,,,,,,,,,,,,,,,,,,,,
,,636688ae3dba27a43013baeb,2024-02-19_02h16.10.504,kallum_motion_pilot,2023.2.2,Win32,60.24096386,636688ae3dba27a43013baeb,65d2b6c8f2eece985d8e374c,65d2b9d76c39a6d844a8d030,0.0123,0.0123,0,55,55,10,1,twoone,,,,,,,,,,,,,,,,,,,,,,,,,,,,,,,,,,,,,,,,,,,,,,,,,,,,,,,,,,,,,,,,,,,,,,,,,,,,,,,,,,,,,,,,,,,,,,,,,,,,,,,,,,,,,,,,,,,,,,,,,,,,,,,,,,,,,,,,,
,,636688ae3dba27a43013baeb,2024-02-19_02h16.10.504,kallum_motion_pilot,2023.2.2,Win32,60.24096386,636688ae3dba27a43013baeb,65d2b6c8f2eece985d8e374c,65d2b9d76c39a6d844a8d030,0.0123,0.0123,0,56,56,117,1,seveneight,,,,,,,,,,,,,,,,,,,,,,,,,,,,,,,,,,,,,,,,,,,,,,,,,,,,,,,,,,,,,,,,,,,,,,,,,,,,,,,,,,,,,,,,,,,,,,,,,,,,,,,,,,,,,,,,,,,,,,,,,,,,,,,,,,,,,,,,,
,,636688ae3dba27a43013baeb,2024-02-19_02h16.10.504,kallum_motion_pilot,2023.2.2,Win32,60.24096386,636688ae3dba27a43013baeb,65d2b6c8f2eece985d8e374c,65d2b9d76c39a6d844a8d030,0.0123,0.0124,0,57,57,77,1,threefour,,,,,,,,,,,,,,,,,,,,,,,,,,,,,,,,,,,,,,,,,,,,,,,,,,,,,,,,,,,,,,,,,,,,,,,,,,,,,,,,,,,,,,,,,,,,,,,,,,,,,,,,,,,,,,,,,,,,,,,,,,,,,,,,,,,,,,,,,
,,636688ae3dba27a43013baeb,2024-02-19_02h16.10.504,kallum_motion_pilot,2023.2.2,Win32,60.24096386,636688ae3dba27a43013baeb,65d2b6c8f2eece985d8e374c,65d2b9d76c39a6d844a8d030,0.0124,0.0124,0,58,58,38,1,fourtwo,,,,,,,,,,,,,,,,,,,,,,,,,,,,,,,,,,,,,,,,,,,,,,,,,,,,,,,,,,,,,,,,,,,,,,,,,,,,,,,,,,,,,,,,,,,,,,,,,,,,,,,,,,,,,,,,,,,,,,,,,,,,,,,,,,,,,,,,,
,,636688ae3dba27a43013baeb,2024-02-19_02h16.10.504,kallum_motion_pilot,2023.2.2,Win32,60.24096386,636688ae3dba27a43013baeb,65d2b6c8f2eece985d8e374c,65d2b9d76c39a6d844a8d030,0.0125,0.0125,0,59,59,97,1,fiveseven,,,,,,,,,,,,,,,,,,,,,,,,,,,,,,,,,,,,,,,,,,,,,,,,,,,,,,,,,,,,,,,,,,,,,,,,,,,,,,,,,,,,,,,,,,,,,,,,,,,,,,,,,,,,,,,,,,,,,,,,,,,,,,,,,,,,,,,,,
,,636688ae3dba27a43013baeb,2024-02-19_02h16.10.504,kallum_motion_pilot,2023.2.2,Win32,60.24096386,636688ae3dba27a43013baeb,65d2b6c8f2eece985d8e374c,65d2b9d76c39a6d844a8d030,0.0125,0.0125,0,60,60,92,1,sevenfive,,,,,,,,,,,,,,,,,,,,,,,,,,,,,,,,,,,,,,,,,,,,,,,,,,,,,,,,,,,,,,,,,,,,,,,,,,,,,,,,,,,,,,,,,,,,,,,,,,,,,,,,,,,,,,,,,,,,,,,,,,,,,,,,,,,,,,,,,
,,636688ae3dba27a43013baeb,2024-02-19_02h16.10.504,kallum_motion_pilot,2023.2.2,Win32,60.24096386,636688ae3dba27a43013baeb,65d2b6c8f2eece985d8e374c,65d2b9d76c39a6d844a8d030,0.0125,0.0125,0,61,61,119,1,eightseven,,,,,,,,,,,,,,,,,,,,,,,,,,,,,,,,,,,,,,,,,,,,,,,,,,,,,,,,,,,,,,,,,,,,,,,,,,,,,,,,,,,,,,,,,,,,,,,,,,,,,,,,,,,,,,,,,,,,,,,,,,,,,,,,,,,,,,,,,
,,636688ae3dba27a43013baeb,2024-02-19_02h16.10.504,kallum_motion_pilot,2023.2.2,Win32,60.24096386,636688ae3dba27a43013baeb,65d2b6c8f2eece985d8e374c,65d2b9d76c39a6d844a8d030,0.0125,0.0125,0,62,62,62,1,fourtwo,,,,,,,,,,,,,,,,,,,,,,,,,,,,,,,,,,,,,,,,,,,,,,,,,,,,,,,,,,,,,,,,,,,,,,,,,,,,,,,,,,,,,,,,,,,,,,,,,,,,,,,,,,,,,,,,,,,,,,,,,,,,,,,,,,,,,,,,,
,,636688ae3dba27a43013baeb,2024-02-19_02h16.10.504,kallum_motion_pilot,2023.2.2,Win32,60.24096386,636688ae3dba27a43013baeb,65d2b6c8f2eece985d8e374c,65d2b9d76c39a6d844a8d030,0.0126,0.0126,0,63,63,116,1,sevenfive,,,,,,,,,,,,,,,,,,,,,,,,,,,,,,,,,,,,,,,,,,,,,,,,,,,,,,,,,,,,,,,,,,,,,,,,,,,,,,,,,,,,,,,,,,,,,,,,,,,,,,,,,,,,,,,,,,,,,,,,,,,,,,,,,,,,,,,,,
,,636688ae3dba27a43013baeb,2024-02-19_02h16.10.504,kallum_motion_pilot,2023.2.2,Win32,60.24096386,636688ae3dba27a43013baeb,65d2b6c8f2eece985d8e374c,65d2b9d76c39a6d844a8d030,0.0126,0.0126,0,64,64,28,1,threeone,,,,,,,,,,,,,,,,,,,,,,,,,,,,,,,,,,,,,,,,,,,,,,,,,,,,,,,,,,,,,,,,,,,,,,,,,,,,,,,,,,,,,,,,,,,,,,,,,,,,,,,,,,,,,,,,,,,,,,,,,,,,,,,,,,,,,,,,,
,,636688ae3dba27a43013baeb,2024-02-19_02h16.10.504,kallum_motion_pilot,2023.2.2,Win32,60.24096386,636688ae3dba27a43013baeb,65d2b6c8f2eece985d8e374c,65d2b9d76c39a6d844a8d030,0.0126,0.0126,0,65,65,139,1,sixeight,,,,,,,,,,,,,,,,,,,,,,,,,,,,,,,,,,,,,,,,,,,,,,,,,,,,,,,,,,,,,,,,,,,,,,,,,,,,,,,,,,,,,,,,,,,,,,,,,,,,,,,,,,,,,,,,,,,,,,,,,,,,,,,,,,,,,,,,,
,,636688ae3dba27a43013baeb,2024-02-19_02h16.10.504,kallum_motion_pilot,2023.2.2,Win32,60.24096386,636688ae3dba27a43013baeb,65d2b6c8f2eece985d8e374c,65d2b9d76c39a6d844a8d030,0.0127,0.0127,0,66,66,106,1,sixfive,,,,,,,,,,,,,,,,,,,,,,,,,,,,,,,,,,,,,,,,,,,,,,,,,,,,,,,,,,,,,,,,,,,,,,,,,,,,,,,,,,,,,,,,,,,,,,,,,,,,,,,,,,,,,,,,,,,,,,,,,,,,,,,,,,,,,,,,,
,,636688ae3dba27a43013baeb,2024-02-19_02h16.10.504,kallum_motion_pilot,2023.2.2,Win32,60.24096386,636688ae3dba27a43013baeb,65d2b6c8f2eece985d8e374c,65d2b9d76c39a6d844a8d030,0.0127,0.0127,0,67,67,18,1,twoone,,,,,,,,,,,,,,,,,,,,,,,,,,,,,,,,,,,,,,,,,,,,,,,,,,,,,,,,,,,,,,,,,,,,,,,,,,,,,,,,,,,,,,,,,,,,,,,,,,,,,,,,,,,,,,,,,,,,,,,,,,,,,,,,,,,,,,,,,
,,636688ae3dba27a43013baeb,2024-02-19_02h16.10.504,kallum_motion_pilot,2023.2.2,Win32,60.24096386,636688ae3dba27a43013baeb,65d2b6c8f2eece985d8e374c,65d2b9d76c39a6d844a8d030,0.0128,0.0128,0,68,68,159,1,eightseven,,,,,,,,,,,,,,,,,,,,,,,,,,,,,,,,,,,,,,,,,,,,,,,,,,,,,,,,,,,,,,,,,,,,,,,,,,,,,,,,,,,,,,,,,,,,,,,,,,,,,,,,,,,,,,,,,,,,,,,,,,,,,,,,,,,,,,,,,
,,636688ae3dba27a43013baeb,2024-02-19_02h16.10.504,kallum_motion_pilot,2023.2.2,Win32,60.24096386,636688ae3dba27a43013baeb,65d2b6c8f2eece985d8e374c,65d2b9d76c39a6d844a8d030,0.0128,0.0128,0,69,69,148,1,sevenfive,,,,,,,,,,,,,,,,,,,,,,,,,,,,,,,,,,,,,,,,,,,,,,,,,,,,,,,,,,,,,,,,,,,,,,,,,,,,,,,,,,,,,,,,,,,,,,,,,,,,,,,,,,,,,,,,,,,,,,,,,,,,,,,,,,,,,,,,,
,,636688ae3dba27a43013baeb,2024-02-19_02h16.10.504,kallum_motion_pilot,2023.2.2,Win32,60.24096386,636688ae3dba27a43013baeb,65d2b6c8f2eece985d8e374c,65d2b9d76c39a6d844a8d030,0.0129,0.0129,0,70,70,56,1,onetwo,,,,,,,,,,,,,,,,,,,,,,,,,,,,,,,,,,,,,,,,,,,,,,,,,,,,,,,,,,,,,,,,,,,,,,,,,,,,,,,,,,,,,,,,,,,,,,,,,,,,,,,,,,,,,,,,,,,,,,,,,,,,,,,,,,,,,,,,,
,,636688ae3dba27a43013baeb,2024-02-19_02h16.10.504,kallum_motion_pilot,2023.2.2,Win32,60.24096386,636688ae3dba27a43013baeb,65d2b6c8f2eece985d8e374c,65d2b9d76c39a6d844a8d030,0.0129,0.013,0,71,71,37,1,threefour,,,,,,,,,,,,,,,,,,,,,,,,,,,,,,,,,,,,,,,,,,,,,,,,,,,,,,,,,,,,,,,,,,,,,,,,,,,,,,,,,,,,,,,,,,,,,,,,,,,,,,,,,,,,,,,,,,,,,,,,,,,,,,,,,,,,,,,,,
,,636688ae3dba27a43013baeb,2024-02-19_02h16.10.504,kallum_motion_pilot,2023.2.2,Win32,60.24096386,636688ae3dba27a43013baeb,65d2b6c8f2eece985d8e374c,65d2b9d76c39a6d844a8d030,0.013,0.013,0,72,72,46,1,fourtwo,,,,,,,,,,,,,,,,,,,,,,,,,,,,,,,,,,,,,,,,,,,,,,,,,,,,,,,,,,,,,,,,,,,,,,,,,,,,,,,,,,,,,,,,,,,,,,,,,,,,,,,,,,,,,,,,,,,,,,,,,,,,,,,,,,,,,,,,,
,,636688ae3dba27a43013baeb,2024-02-19_02h16.10.504,kallum_motion_pilot,2023.2.2,Win32,60.24096386,636688ae3dba27a43013baeb,65d2b6c8f2eece985d8e374c,65d2b9d76c39a6d844a8d030,0.013,0.013,0,73,73,42,1,twoone,,,,,,,,,,,,,,,,,,,,,,,,,,,,,,,,,,,,,,,,,,,,,,,,,,,,,,,,,,,,,,,,,,,,,,,,,,,,,,,,,,,,,,,,,,,,,,,,,,,,,,,,,,,,,,,,,,,,,,,,,,,,,,,,,,,,,,,,,
,,636688ae3dba27a43013baeb,2024-02-19_02h16.10.504,kallum_motion_pilot,2023.2.2,Win32,60.24096386,636688ae3dba27a43013baeb,65d2b6c8f2eece985d8e374c,65d2b9d76c39a6d844a8d030,0.013,0.013,0,74,74,113,1,fiveseven,,,,,,,,,,,,,,,,,,,,,,,,,,,,,,,,,,,,,,,,,,,,,,,,,,,,,,,,,,,,,,,,,,,,,,,,,,,,,,,,,,,,,,,,,,,,,,,,,,,,,,,,,,,,,,,,,,,,,,,,,,,,,,,,,,,,,,,,,
,,636688ae3dba27a43013baeb,2024-02-19_02h16.10.504,kallum_motion_pilot,2023.2.2,Win32,60.24096386,636688ae3dba27a43013baeb,65d2b6c8f2eece985d8e374c,65d2b9d76c39a6d844a8d030,0.013,0.013,0,75,75,45,1,threefour,,,,,,,,,,,,,,,,,,,,,,,,,,,,,,,,,,,,,,,,,,,,,,,,,,,,,,,,,,,,,,,,,,,,,,,,,,,,,,,,,,,,,,,,,,,,,,,,,,,,,,,,,,,,,,,,,,,,,,,,,,,,,,,,,,,,,,,,,
,,636688ae3dba27a43013baeb,2024-02-19_02h16.10.504,kallum_motion_pilot,2023.2.2,Win32,60.24096386,636688ae3dba27a43013baeb,65d2b6c8f2eece985d8e374c,65d2b9d76c39a6d844a8d030,0.0131,0.0131,0,76,76,5,1,threefour,,,,,,,,,,,,,,,,,,,,,,,,,,,,,,,,,,,,,,,,,,,,,,,,,,,,,,,,,,,,,,,,,,,,,,,,,,,,,,,,,,,,,,,,,,,,,,,,,,,,,,,,,,,,,,,,,,,,,,,,,,,,,,,,,,,,,,,,,
,,636688ae3dba27a43013baeb,2024-02-19_02h16.10.504,kallum_motion_pilot,2023.2.2,Win32,60.24096386,636688ae3dba27a43013baeb,65d2b6c8f2eece985d8e374c,65d2b9d76c39a6d844a8d030,0.0131,0.0131,0,77,77,52,1,threeone,,,,,,,,,,,,,,,,,,,,,,,,,,,,,,,,,,,,,,,,,,,,,,,,,,,,,,,,,,,,,,,,,,,,,,,,,,,,,,,,,,,,,,,,,,,,,,,,,,,,,,,,,,,,,,,,,,,,,,,,,,,,,,,,,,,,,,,,,
,,636688ae3dba27a43013baeb,2024-02-19_02h16.10.504,kallum_motion_pilot,2023.2.2,Win32,60.24096386,636688ae3dba27a43013baeb,65d2b6c8f2eece985d8e374c,65d2b9d76c39a6d844a8d030,0.0132,0.0132,0,78,78,72,1,onetwo,,,,,,,,,,,,,,,,,,,,,,,,,,,,,,,,,,,,,,,,,,,,,,,,,,,,,,,,,,,,,,,,,,,,,,,,,,,,,,,,,,,,,,,,,,,,,,,,,,,,,,,,,,,,,,,,,,,,,,,,,,,,,,,,,,,,,,,,,
,,636688ae3dba27a43013baeb,2024-02-19_02h16.10.504,kallum_motion_pilot,2023.2.2,Win32,60.24096386,636688ae3dba27a43013baeb,65d2b6c8f2eece985d8e374c,65d2b9d76c39a6d844a8d030,0.0132,0.0132,0,79,79,115,1,sixeight,,,,,,,,,,,,,,,,,,,,,,,,,,,,,,,,,,,,,,,,,,,,,,,,,,,,,,,,,,,,,,,,,,,,,,,,,,,,,,,,,,,,,,,,,,,,,,,,,,,,,,,,,,,,,,,,,,,,,,,,,,,,,,,,,,,,,,,,,
,,636688ae3dba27a43013baeb,2024-02-19_02h16.10.504,kallum_motion_pilot,2023.2.2,Win32,60.24096386,636688ae3dba27a43013baeb,65d2b6c8f2eece985d8e374c,65d2b9d76c39a6d844a8d030,0.0132,0.0132,0,80,80,49,1,onethree,,,,,,,,,,,,,,,,,,,,,,,,,,,,,,,,,,,,,,,,,,,,,,,,,,,,,,,,,,,,,,,,,,,,,,,,,,,,,,,,,,,,,,,,,,,,,,,,,,,,,,,,,,,,,,,,,,,,,,,,,,,,,,,,,,,,,,,,,
,,636688ae3dba27a43013baeb,2024-02-19_02h16.10.504,kallum_motion_pilot,2023.2.2,Win32,60.24096386,636688ae3dba27a43013baeb,65d2b6c8f2eece985d8e374c,65d2b9d76c39a6d844a8d030,0.0132,0.0133,0,81,81,108,1,sevenfive,,,,,,,,,,,,,,,,,,,,,,,,,,,,,,,,,,,,,,,,,,,,,,,,,,,,,,,,,,,,,,,,,,,,,,,,,,,,,,,,,,,,,,,,,,,,,,,,,,,,,,,,,,,,,,,,,,,,,,,,,,,,,,,,,,,,,,,,,
,,636688ae3dba27a43013baeb,2024-02-19_02h16.10.504,kallum_motion_pilot,2023.2.2,Win32,60.24096386,636688ae3dba27a43013baeb,65d2b6c8f2eece985d8e374c,65d2b9d76c39a6d844a8d030,0.0133,0.0133,0,82,82,158,1,eightsix,,,,,,,,,,,,,,,,,,,,,,,,,,,,,,,,,,,,,,,,,,,,,,,,,,,,,,,,,,,,,,,,,,,,,,,,,,,,,,,,,,,,,,,,,,,,,,,,,,,,,,,,,,,,,,,,,,,,,,,,,,,,,,,,,,,,,,,,,
,,636688ae3dba27a43013baeb,2024-02-19_02h16.10.504,kallum_motion_pilot,2023.2.2,Win32,60.24096386,636688ae3dba27a43013baeb,65d2b6c8f2eece985d8e374c,65d2b9d76c39a6d844a8d030,0.0134,0.0134,0,83,83,69,1,threefour,,,,,,,,,,,,,,,,,,,,,,,,,,,,,,,,,,,,,,,,,,,,,,,,,,,,,,,,,,,,,,,,,,,,,,,,,,,,,,,,,,,,,,,,,,,,,,,,,,,,,,,,,,,,,,,,,,,,,,,,,,,,,,,,,,,,,,,,,
,,636688ae3dba27a43013baeb,2024-02-19_02h16.10.504,kallum_motion_pilot,2023.2.2,Win32,60.24096386,636688ae3dba27a43013baeb,65d2b6c8f2eece985d8e374c,65d2b9d76c39a6d844a8d030,0.0134,0.0134,0,84,84,135,1,eightseven,,,,,,,,,,,,,,,,,,,,,,,,,,,,,,,,,,,,,,,,,,,,,,,,,,,,,,,,,,,,,,,,,,,,,,,,,,,,,,,,,,,,,,,,,,,,,,,,,,,,,,,,,,,,,,,,,,,,,,,,,,,,,,,,,,,,,,,,,
,,636688ae3dba27a43013baeb,2024-02-19_02h16.10.504,kallum_motion_pilot,2023.2.2,Win32,60.24096386,636688ae3dba27a43013baeb,65d2b6c8f2eece985d8e374c,65d2b9d76c39a6d844a8d030,0.0134,0.0135,0,85,85,20,1,threeone,,,,,,,,,,,,,,,,,,,,,,,,,,,,,,,,,,,,,,,,,,,,,,,,,,,,,,,,,,,,,,,,,,,,,,,,,,,,,,,,,,,,,,,,,,,,,,,,,,,,,,,,,,,,,,,,,,,,,,,,,,,,,,,,,,,,,,,,,
,,636688ae3dba27a43013baeb,2024-02-19_02h16.10.504,kallum_motion_pilot,2023.2.2,Win32,60.24096386,636688ae3dba27a43013baeb,65d2b6c8f2eece985d8e374c,65d2b9d76c39a6d844a8d030,0.0135,0.0135,0,86,86,59,1,twofour,,,,,,,,,,,,,,,,,,,,,,,,,,,,,,,,,,,,,,,,,,,,,,,,,,,,,,,,,,,,,,,,,,,,,,,,,,,,,,,,,,,,,,,,,,,,,,,,,,,,,,,,,,,,,,,,,,,,,,,,,,,,,,,,,,,,,,,,,
,,636688ae3dba27a43013baeb,2024-02-19_02h16.10.504,kallum_motion_pilot,2023.2.2,Win32,60.24096386,636688ae3dba27a43013baeb,65d2b6c8f2eece985d8e374c,65d2b9d76c39a6d844a8d030,0.0135,0.0135,0,87,87,118,1,eightsix,,,,,,,,,,,,,,,,,,,,,,,,,,,,,,,,,,,,,,,,,,,,,,,,,,,,,,,,,,,,,,,,,,,,,,,,,,,,,,,,,,,,,,,,,,,,,,,,,,,,,,,,,,,,,,,,,,,,,,,,,,,,,,,,,,,,,,,,,
,,636688ae3dba27a43013baeb,2024-02-19_02h16.10.504,kallum_motion_pilot,2023.2.2,Win32,60.24096386,636688ae3dba27a43013baeb,65d2b6c8f2eece985d8e374c,65d2b9d76c39a6d844a8d030,0.0135,0.0135,0,88,88,32,1,onetwo,,,,,,,,,,,,,,,,,,,,,,,,,,,,,,,,,,,,,,,,,,,,,,,,,,,,,,,,,,,,,,,,,,,,,,,,,,,,,,,,,,,,,,,,,,,,,,,,,,,,,,,,,,,,,,,,,,,,,,,,,,,,,,,,,,,,,,,,,
,,636688ae3dba27a43013baeb,2024-02-19_02h16.10.504,kallum_motion_pilot,2023.2.2,Win32,60.24096386,636688ae3dba27a43013baeb,65d2b6c8f2eece985d8e374c,65d2b9d76c39a6d844a8d030,0.0136,0.0136,0,89,89,57,1,onethree,,,,,,,,,,,,,,,,,,,,,,,,,,,,,,,,,,,,,,,,,,,,,,,,,,,,,,,,,,,,,,,,,,,,,,,,,,,,,,,,,,,,,,,,,,,,,,,,,,,,,,,,,,,,,,,,,,,,,,,,,,,,,,,,,,,,,,,,,
,,636688ae3dba27a43013baeb,2024-02-19_02h16.10.504,kallum_motion_pilot,2023.2.2,Win32,60.24096386,636688ae3dba27a43013baeb,65d2b6c8f2eece985d8e374c,65d2b9d76c39a6d844a8d030,0.0136,0.0136,0,90,90,53,1,threefour,,,,,,,,,,,,,,,,,,,,,,,,,,,,,,,,,,,,,,,,,,,,,,,,,,,,,,,,,,,,,,,,,,,,,,,,,,,,,,,,,,,,,,,,,,,,,,,,,,,,,,,,,,,,,,,,,,,,,,,,,,,,,,,,,,,,,,,,,
,,636688ae3dba27a43013baeb,2024-02-19_02h16.10.504,kallum_motion_pilot,2023.2.2,Win32,60.24096386,636688ae3dba27a43013baeb,65d2b6c8f2eece985d8e374c,65d2b9d76c39a6d844a8d030,0.0136,0.0136,0,91,91,36,1,threeone,,,,,,,,,,,,,,,,,,,,,,,,,,,,,,,,,,,,,,,,,,,,,,,,,,,,,,,,,,,,,,,,,,,,,,,,,,,,,,,,,,,,,,,,,,,,,,,,,,,,,,,,,,,,,,,,,,,,,,,,,,,,,,,,,,,,,,,,,
,,636688ae3dba27a43013baeb,2024-02-19_02h16.10.504,kallum_motion_pilot,2023.2.2,Win32,60.24096386,636688ae3dba27a43013baeb,65d2b6c8f2eece985d8e374c,65d2b9d76c39a6d844a8d030,0.0136,0.0136,0,92,92,145,1,fiveseven,,,,,,,,,,,,,,,,,,,,,,,,,,,,,,,,,,,,,,,,,,,,,,,,,,,,,,,,,,,,,,,,,,,,,,,,,,,,,,,,,,,,,,,,,,,,,,,,,,,,,,,,,,,,,,,,,,,,,,,,,,,,,,,,,,,,,,,,,
,,636688ae3dba27a43013baeb,2024-02-19_02h16.10.504,kallum_motion_pilot,2023.2.2,Win32,60.24096386,636688ae3dba27a43013baeb,65d2b6c8f2eece985d8e374c,65d2b9d76c39a6d844a8d030,0.0137,0.0137,0,93,93,11,1,twofour,,,,,,,,,,,,,,,,,,,,,,,,,,,,,,,,,,,,,,,,,,,,,,,,,,,,,,,,,,,,,,,,,,,,,,,,,,,,,,,,,,,,,,,,,,,,,,,,,,,,,,,,,,,,,,,,,,,,,,,,,,,,,,,,,,,,,,,,,
,,636688ae3dba27a43013baeb,2024-02-19_02h16.10.504,kallum_motion_pilot,2023.2.2,Win32,60.24096386,636688ae3dba27a43013baeb,65d2b6c8f2eece985d8e374c,65d2b9d76c39a6d844a8d030,0.0137,0.0138,0,94,94,91,1,sixeight,,,,,,,,,,,,,,,,,,,,,,,,,,,,,,,,,,,,,,,,,,,,,,,,,,,,,,,,,,,,,,,,,,,,,,,,,,,,,,,,,,,,,,,,,,,,,,,,,,,,,,,,,,,,,,,,,,,,,,,,,,,,,,,,,,,,,,,,,
,,636688ae3dba27a43013baeb,2024-02-19_02h16.10.504,kallum_motion_pilot,2023.2.2,Win32,60.24096386,636688ae3dba27a43013baeb,65d2b6c8f2eece985d8e374c,65d2b9d76c39a6d844a8d030,0.0138,0.0138,0,95,95,51,1,twofour,,,,,,,,,,,,,,,,,,,,,,,,,,,,,,,,,,,,,,,,,,,,,,,,,,,,,,,,,,,,,,,,,,,,,,,,,,,,,,,,,,,,,,,,,,,,,,,,,,,,,,,,,,,,,,,,,,,,,,,,,,,,,,,,,,,,,,,,,
,,636688ae3dba27a43013baeb,2024-02-19_02h16.10.504,kallum_motion_pilot,2023.2.2,Win32,60.24096386,636688ae3dba27a43013baeb,65d2b6c8f2eece985d8e374c,65d2b9d76c39a6d844a8d030,0.0138,0.0138,0,96,96,4,1,threeone,,,,,,,,,,,,,,,,,,,,,,,,,,,,,,,,,,,,,,,,,,,,,,,,,,,,,,,,,,,,,,,,,,,,,,,,,,,,,,,,,,,,,,,,,,,,,,,,,,,,,,,,,,,,,,,,,,,,,,,,,,,,,,,,,,,,,,,,,
,,636688ae3dba27a43013baeb,2024-02-19_02h16.10.504,kallum_motion_pilot,2023.2.2,Win32,60.24096386,636688ae3dba27a43013baeb,65d2b6c8f2eece985d8e374c,65d2b9d76c39a6d844a8d030,0.0139,0.0139,0,97,97,26,1,twoone,,,,,,,,,,,,,,,,,,,,,,,,,,,,,,,,,,,,,,,,,,,,,,,,,,,,,,,,,,,,,,,,,,,,,,,,,,,,,,,,,,,,,,,,,,,,,,,,,,,,,,,,,,,,,,,,,,,,,,,,,,,,,,,,,,,,,,,,,
,,636688ae3dba27a43013baeb,2024-02-19_02h16.10.504,kallum_motion_pilot,2023.2.2,Win32,60.24096386,636688ae3dba27a43013baeb,65d2b6c8f2eece985d8e374c,65d2b9d76c39a6d844a8d030,0.0139,0.0139,0,98,98,146,1,sixfive,,,,,,,,,,,,,,,,,,,,,,,,,,,,,,,,,,,,,,,,,,,,,,,,,,,,,,,,,,,,,,,,,,,,,,,,,,,,,,,,,,,,,,,,,,,,,,,,,,,,,,,,,,,,,,,,,,,,,,,,,,,,,,,,,,,,,,,,,
,,636688ae3dba27a43013baeb,2024-02-19_02h16.10.504,kallum_motion_pilot,2023.2.2,Win32,60.24096386,636688ae3dba27a43013baeb,65d2b6c8f2eece985d8e374c,65d2b9d76c39a6d844a8d030,0.0139,0.0139,0,99,99,34,1,twoone,,,,,,,,,,,,,,,,,,,,,,,,,,,,,,,,,,,,,,,,,,,,,,,,,,,,,,,,,,,,,,,,,,,,,,,,,,,,,,,,,,,,,,,,,,,,,,,,,,,,,,,,,,,,,,,,,,,,,,,,,,,,,,,,,,,,,,,,,
,,636688ae3dba27a43013baeb,2024-02-19_02h16.10.504,kallum_motion_pilot,2023.2.2,Win32,60.24096386,636688ae3dba27a43013baeb,65d2b6c8f2eece985d8e374c,65d2b9d76c39a6d844a8d030,0.0139,0.014,0,100,100,12,1,threeone,,,,,,,,,,,,,,,,,,,,,,,,,,,,,,,,,,,,,,,,,,,,,,,,,,,,,,,,,,,,,,,,,,,,,,,,,,,,,,,,,,,,,,,,,,,,,,,,,,,,,,,,,,,,,,,,,,,,,,,,,,,,,,,,,,,,,,,,,
,,636688ae3dba27a43013baeb,2024-02-19_02h16.10.504,kallum_motion_pilot,2023.2.2,Win32,60.24096386,636688ae3dba27a43013baeb,65d2b6c8f2eece985d8e374c,65d2b9d76c39a6d844a8d030,0.014,0.014,0,101,101,54,1,fourtwo,,,,,,,,,,,,,,,,,,,,,,,,,,,,,,,,,,,,,,,,,,,,,,,,,,,,,,,,,,,,,,,,,,,,,,,,,,,,,,,,,,,,,,,,,,,,,,,,,,,,,,,,,,,,,,,,,,,,,,,,,,,,,,,,,,,,,,,,,
,,636688ae3dba27a43013baeb,2024-02-19_02h16.10.504,kallum_motion_pilot,2023.2.2,Win32,60.24096386,636688ae3dba27a43013baeb,65d2b6c8f2eece985d8e374c,65d2b9d76c39a6d844a8d030,0.014,0.014,0,102,102,103,1,eightseven,,,,,,,,,,,,,,,,,,,,,,,,,,,,,,,,,,,,,,,,,,,,,,,,,,,,,,,,,,,,,,,,,,,,,,,,,,,,,,,,,,,,,,,,,,,,,,,,,,,,,,,,,,,,,,,,,,,,,,,,,,,,,,,,,,,,,,,,,
,,636688ae3dba27a43013baeb,2024-02-19_02h16.10.504,kallum_motion_pilot,2023.2.2,Win32,60.24096386,636688ae3dba27a43013baeb,65d2b6c8f2eece985d8e374c,65d2b9d76c39a6d844a8d030,0.014,0.0141,0,103,103,66,1,twoone,,,,,,,,,,,,,,,,,,,,,,,,,,,,,,,,,,,,,,,,,,,,,,,,,,,,,,,,,,,,,,,,,,,,,,,,,,,,,,,,,,,,,,,,,,,,,,,,,,,,,,,,,,,,,,,,,,,,,,,,,,,,,,,,,,,,,,,,,
,,636688ae3dba27a43013baeb,2024-02-19_02h16.10.504,kallum_motion_pilot,2023.2.2,Win32,60.24096386,636688ae3dba27a43013baeb,65d2b6c8f2eece985d8e374c,65d2b9d76c39a6d844a8d030,0.0142,0.0142,0,104,104,136,1,fivesix,,,,,,,,,,,,,,,,,,,,,,,,,,,,,,,,,,,,,,,,,,,,,,,,,,,,,,,,,,,,,,,,,,,,,,,,,,,,,,,,,,,,,,,,,,,,,,,,,,,,,,,,,,,,,,,,,,,,,,,,,,,,,,,,,,,,,,,,,
,,636688ae3dba27a43013baeb,2024-02-19_02h16.10.504,kallum_motion_pilot,2023.2.2,Win32,60.24096386,636688ae3dba27a43013baeb,65d2b6c8f2eece985d8e374c,65d2b9d76c39a6d844a8d030,0.0142,0.0142,0,105,105,156,1,sevenfive,,,,,,,,,,,,,,,,,,,,,,,,,,,,,,,,,,,,,,,,,,,,,,,,,,,,,,,,,,,,,,,,,,,,,,,,,,,,,,,,,,,,,,,,,,,,,,,,,,,,,,,,,,,,,,,,,,,,,,,,,,,,,,,,,,,,,,,,,
,,636688ae3dba27a43013baeb,2024-02-19_02h16.10.504,kallum_motion_pilot,2023.2.2,Win32,60.24096386,636688ae3dba27a43013baeb,65d2b6c8f2eece985d8e374c,65d2b9d76c39a6d844a8d030,0.0142,0.0142,0,106,106,154,1,sixfive,,,,,,,,,,,,,,,,,,,,,,,,,,,,,,,,,,,,,,,,,,,,,,,,,,,,,,,,,,,,,,,,,,,,,,,,,,,,,,,,,,,,,,,,,,,,,,,,,,,,,,,,,,,,,,,,,,,,,,,,,,,,,,,,,,,,,,,,,
,,636688ae3dba27a43013baeb,2024-02-19_02h16.10.504,kallum_motion_pilot,2023.2.2,Win32,60.24096386,636688ae3dba27a43013baeb,65d2b6c8f2eece985d8e374c,65d2b9d76c39a6d844a8d030,0.0142,0.0143,0,107,107,64,1,onetwo,,,,,,,,,,,,,,,,,,,,,,,,,,,,,,,,,,,,,,,,,,,,,,,,,,,,,,,,,,,,,,,,,,,,,,,,,,,,,,,,,,,,,,,,,,,,,,,,,,,,,,,,,,,,,,,,,,,,,,,,,,,,,,,,,,,,,,,,,
,,636688ae3dba27a43013baeb,2024-02-19_02h16.10.504,kallum_motion_pilot,2023.2.2,Win32,60.24096386,636688ae3dba27a43013baeb,65d2b6c8f2eece985d8e374c,65d2b9d76c39a6d844a8d030,0.0143,0.0143,0,108,108,82,1,sixfive,,,,,,,,,,,,,,,,,,,,,,,,,,,,,,,,,,,,,,,,,,,,,,,,,,,,,,,,,,,,,,,,,,,,,,,,,,,,,,,,,,,,,,,,,,,,,,,,,,,,,,,,,,,,,,,,,,,,,,,,,,,,,,,,,,,,,,,,,
,,636688ae3dba27a43013baeb,2024-02-19_02h16.10.504,kallum_motion_pilot,2023.2.2,Win32,60.24096386,636688ae3dba27a43013baeb,65d2b6c8f2eece985d8e374c,65d2b9d76c39a6d844a8d030,0.0144,0.0144,0,109,109,25,1,onethree,,,,,,,,,,,,,,,,,,,,,,,,,,,,,,,,,,,,,,,,,,,,,,,,,,,,,,,,,,,,,,,,,,,,,,,,,,,,,,,,,,,,,,,,,,,,,,,,,,,,,,,,,,,,,,,,,,,,,,,,,,,,,,,,,,,,,,,,,
,,636688ae3dba27a43013baeb,2024-02-19_02h16.10.504,kallum_motion_pilot,2023.2.2,Win32,60.24096386,636688ae3dba27a43013baeb,65d2b6c8f2eece985d8e374c,65d2b9d76c39a6d844a8d030,0.0144,0.0144,0,110,110,123,1,sixeight,,,,,,,,,,,,,,,,,,,,,,,,,,,,,,,,,,,,,,,,,,,,,,,,,,,,,,,,,,,,,,,,,,,,,,,,,,,,,,,,,,,,,,,,,,,,,,,,,,,,,,,,,,,,,,,,,,,,,,,,,,,,,,,,,,,,,,,,,
,,636688ae3dba27a43013baeb,2024-02-19_02h16.10.504,kallum_motion_pilot,2023.2.2,Win32,60.24096386,636688ae3dba27a43013baeb,65d2b6c8f2eece985d8e374c,65d2b9d76c39a6d844a8d030,0.0144,0.0144,0,111,111,90,1,sixfive,,,,,,,,,,,,,,,,,,,,,,,,,,,,,,,,,,,,,,,,,,,,,,,,,,,,,,,,,,,,,,,,,,,,,,,,,,,,,,,,,,,,,,,,,,,,,,,,,,,,,,,,,,,,,,,,,,,,,,,,,,,,,,,,,,,,,,,,,
,,636688ae3dba27a43013baeb,2024-02-19_02h16.10.504,kallum_motion_pilot,2023.2.2,Win32,60.24096386,636688ae3dba27a43013baeb,65d2b6c8f2eece985d8e374c,65d2b9d76c39a6d844a8d030,0.0144,0.0144,0,112,112,83,1,sixeight,,,,,,,,,,,,,,,,,,,,,,,,,,,,,,,,,,,,,,,,,,,,,,,,,,,,,,,,,,,,,,,,,,,,,,,,,,,,,,,,,,,,,,,,,,,,,,,,,,,,,,,,,,,,,,,,,,,,,,,,,,,,,,,,,,,,,,,,,
,,636688ae3dba27a43013baeb,2024-02-19_02h16.10.504,kallum_motion_pilot,2023.2.2,Win32,60.24096386,636688ae3dba27a43013baeb,65d2b6c8f2eece985d8e374c,65d2b9d76c39a6d844a8d030,0.0145,0.0145,0,113,113,6,1,fourtwo,,,,,,,,,,,,,,,,,,,,,,,,,,,,,,,,,,,,,,,,,,,,,,,,,,,,,,,,,,,,,,,,,,,,,,,,,,,,,,,,,,,,,,,,,,,,,,,,,,,,,,,,,,,,,,,,,,,,,,,,,,,,,,,,,,,,,,,,,
,,636688ae3dba27a43013baeb,2024-02-19_02h16.10.504,kallum_motion_pilot,2023.2.2,Win32,60.24096386,636688ae3dba27a43013baeb,65d2b6c8f2eece985d8e374c,65d2b9d76c39a6d844a8d030,0.0145,0.0145,0,114,114,30,1,fourtwo,,,,,,,,,,,,,,,,,,,,,,,,,,,,,,,,,,,,,,,,,,,,,,,,,,,,,,,,,,,,,,,,,,,,,,,,,,,,,,,,,,,,,,,,,,,,,,,,,,,,,,,,,,,,,,,,,,,,,,,,,,,,,,,,,,,,,,,,,
,,636688ae3dba27a43013baeb,2024-02-19_02h16.10.504,kallum_motion_pilot,2023.2.2,Win32,60.24096386,636688ae3dba27a43013baeb,65d2b6c8f2eece985d8e374c,65d2b9d76c39a6d844a8d030,0.0146,0.0146,0,115,115,39,1,fourthree,,,,,,,,,,,,,,,,,,,,,,,,,,,,,,,,,,,,,,,,,,,,,,,,,,,,,,,,,,,,,,,,,,,,,,,,,,,,,,,,,,,,,,,,,,,,,,,,,,,,,,,,,,,,,,,,,,,,,,,,,,,,,,,,,,,,,,,,,
,,636688ae3dba27a43013baeb,2024-02-19_02h16.10.504,kallum_motion_pilot,2023.2.2,Win32,60.24096386,636688ae3dba27a43013baeb,65d2b6c8f2eece985d8e374c,65d2b9d76c39a6d844a8d030,0.0146,0.0146,0,116,116,15,1,fourthree,,,,,,,,,,,,,,,,,,,,,,,,,,,,,,,,,,,,,,,,,,,,,,,,,,,,,,,,,,,,,,,,,,,,,,,,,,,,,,,,,,,,,,,,,,,,,,,,,,,,,,,,,,,,,,,,,,,,,,,,,,,,,,,,,,,,,,,,,
,,636688ae3dba27a43013baeb,2024-02-19_02h16.10.504,kallum_motion_pilot,2023.2.2,Win32,60.24096386,636688ae3dba27a43013baeb,65d2b6c8f2eece985d8e374c,65d2b9d76c39a6d844a8d030,0.0146,0.0146,0,117,117,87,1,eightseven,,,,,,,,,,,,,,,,,,,,,,,,,,,,,,,,,,,,,,,,,,,,,,,,,,,,,,,,,,,,,,,,,,,,,,,,,,,,,,,,,,,,,,,,,,,,,,,,,,,,,,,,,,,,,,,,,,,,,,,,,,,,,,,,,,,,,,,,,
,,636688ae3dba27a43013baeb,2024-02-19_02h16.10.504,kallum_motion_pilot,2023.2.2,Win32,60.24096386,636688ae3dba27a43013baeb,65d2b6c8f2eece985d8e374c,65d2b9d76c39a6d844a8d030,0.0146,0.0147,0,118,118,140,1,sevenfive,,,,,,,,,,,,,,,,,,,,,,,,,,,,,,,,,,,,,,,,,,,,,,,,,,,,,,,,,,,,,,,,,,,,,,,,,,,,,,,,,,,,,,,,,,,,,,,,,,,,,,,,,,,,,,,,,,,,,,,,,,,,,,,,,,,,,,,,,
,,636688ae3dba27a43013baeb,2024-02-19_02h16.10.504,kallum_motion_pilot,2023.2.2,Win32,60.24096386,636688ae3dba27a43013baeb,65d2b6c8f2eece985d8e374c,65d2b9d76c39a6d844a8d030,0.0147,0.0148,0,119,119,152,1,fivesix,,,,,,,,,,,,,,,,,,,,,,,,,,,,,,,,,,,,,,,,,,,,,,,,,,,,,,,,,,,,,,,,,,,,,,,,,,,,,,,,,,,,,,,,,,,,,,,,,,,,,,,,,,,,,,,,,,,,,,,,,,,,,,,,,,,,,,,,,
,,636688ae3dba27a43013baeb,2024-02-19_02h16.10.504,kallum_motion_pilot,2023.2.2,Win32,60.24096386,636688ae3dba27a43013baeb,65d2b6c8f2eece985d8e374c,65d2b9d76c39a6d844a8d030,0.0148,0.0148,0,120,120,14,1,fourtwo,,,,,,,,,,,,,,,,,,,,,,,,,,,,,,,,,,,,,,,,,,,,,,,,,,,,,,,,,,,,,,,,,,,,,,,,,,,,,,,,,,,,,,,,,,,,,,,,,,,,,,,,,,,,,,,,,,,,,,,,,,,,,,,,,,,,,,,,,
,,636688ae3dba27a43013baeb,2024-02-19_02h16.10.504,kallum_motion_pilot,2023.2.2,Win32,60.24096386,636688ae3dba27a43013baeb,65d2b6c8f2eece985d8e374c,65d2b9d76c39a6d844a8d030,0.0148,0.0148,0,121,121,1,1,onethree,,,,,,,,,,,,,,,,,,,,,,,,,,,,,,,,,,,,,,,,,,,,,,,,,,,,,,,,,,,,,,,,,,,,,,,,,,,,,,,,,,,,,,,,,,,,,,,,,,,,,,,,,,,,,,,,,,,,,,,,,,,,,,,,,,,,,,,,,
,,636688ae3dba27a43013baeb,2024-02-19_02h16.10.504,kallum_motion_pilot,2023.2.2,Win32,60.24096386,636688ae3dba27a43013baeb,65d2b6c8f2eece985d8e374c,65d2b9d76c39a6d844a8d030,0.0149,0.0149,0,122,122,85,1,seveneight,,,,,,,,,,,,,,,,,,,,,,,,,,,,,,,,,,,,,,,,,,,,,,,,,,,,,,,,,,,,,,,,,,,,,,,,,,,,,,,,,,,,,,,,,,,,,,,,,,,,,,,,,,,,,,,,,,,,,,,,,,,,,,,,,,,,,,,,,
,,636688ae3dba27a43013baeb,2024-02-19_02h16.10.504,kallum_motion_pilot,2023.2.2,Win32,60.24096386,636688ae3dba27a43013baeb,65d2b6c8f2eece985d8e374c,65d2b9d76c39a6d844a8d030,0.0149,0.0149,0,123,123,27,1,twofour,,,,,,,,,,,,,,,,,,,,,,,,,,,,,,,,,,,,,,,,,,,,,,,,,,,,,,,,,,,,,,,,,,,,,,,,,,,,,,,,,,,,,,,,,,,,,,,,,,,,,,,,,,,,,,,,,,,,,,,,,,,,,,,,,,,,,,,,,
,,636688ae3dba27a43013baeb,2024-02-19_02h16.10.504,kallum_motion_pilot,2023.2.2,Win32,60.24096386,636688ae3dba27a43013baeb,65d2b6c8f2eece985d8e374c,65d2b9d76c39a6d844a8d030,0.0149,0.0149,0,124,124,65,1,onethree,,,,,,,,,,,,,,,,,,,,,,,,,,,,,,,,,,,,,,,,,,,,,,,,,,,,,,,,,,,,,,,,,,,,,,,,,,,,,,,,,,,,,,,,,,,,,,,,,,,,,,,,,,,,,,,,,,,,,,,,,,,,,,,,,,,,,,,,,
,,636688ae3dba27a43013baeb,2024-02-19_02h16.10.504,kallum_motion_pilot,2023.2.2,Win32,60.24096386,636688ae3dba27a43013baeb,65d2b6c8f2eece985d8e374c,65d2b9d76c39a6d844a8d030,0.015,0.015,0,125,125,23,1,fourthree,,,,,,,,,,,,,,,,,,,,,,,,,,,,,,,,,,,,,,,,,,,,,,,,,,,,,,,,,,,,,,,,,,,,,,,,,,,,,,,,,,,,,,,,,,,,,,,,,,,,,,,,,,,,,,,,,,,,,,,,,,,,,,,,,,,,,,,,,
,,636688ae3dba27a43013baeb,2024-02-19_02h16.10.504,kallum_motion_pilot,2023.2.2,Win32,60.24096386,636688ae3dba27a43013baeb,65d2b6c8f2eece985d8e374c,65d2b9d76c39a6d844a8d030,0.015,0.015,0,126,126,130,1,sixfive,,,,,,,,,,,,,,,,,,,,,,,,,,,,,,,,,,,,,,,,,,,,,,,,,,,,,,,,,,,,,,,,,,,,,,,,,,,,,,,,,,,,,,,,,,,,,,,,,,,,,,,,,,,,,,,,,,,,,,,,,,,,,,,,,,,,,,,,,
,,636688ae3dba27a43013baeb,2024-02-19_02h16.10.504,kallum_motion_pilot,2023.2.2,Win32,60.24096386,636688ae3dba27a43013baeb,65d2b6c8f2eece985d8e374c,65d2b9d76c39a6d844a8d030,0.0151,0.0151,0,127,127,13,1,threefour,,,,,,,,,,,,,,,,,,,,,,,,,,,,,,,,,,,,,,,,,,,,,,,,,,,,,,,,,,,,,,,,,,,,,,,,,,,,,,,,,,,,,,,,,,,,,,,,,,,,,,,,,,,,,,,,,,,,,,,,,,,,,,,,,,,,,,,,,
,,636688ae3dba27a43013baeb,2024-02-19_02h16.10.504,kallum_motion_pilot,2023.2.2,Win32,60.24096386,636688ae3dba27a43013baeb,65d2b6c8f2eece985d8e374c,65d2b9d76c39a6d844a8d030,0.0151,0.0151,0,128,128,41,1,onethree,,,,,,,,,,,,,,,,,,,,,,,,,,,,,,,,,,,,,,,,,,,,,,,,,,,,,,,,,,,,,,,,,,,,,,,,,,,,,,,,,,,,,,,,,,,,,,,,,,,,,,,,,,,,,,,,,,,,,,,,,,,,,,,,,,,,,,,,,
,,636688ae3dba27a43013baeb,2024-02-19_02h16.10.504,kallum_motion_pilot,2023.2.2,Win32,60.24096386,636688ae3dba27a43013baeb,65d2b6c8f2eece985d8e374c,65d2b9d76c39a6d844a8d030,0.0151,0.0151,0,129,129,110,1,eightsix,,,,,,,,,,,,,,,,,,,,,,,,,,,,,,,,,,,,,,,,,,,,,,,,,,,,,,,,,,,,,,,,,,,,,,,,,,,,,,,,,,,,,,,,,,,,,,,,,,,,,,,,,,,,,,,,,,,,,,,,,,,,,,,,,,,,,,,,,
,,636688ae3dba27a43013baeb,2024-02-19_02h16.10.504,kallum_motion_pilot,2023.2.2,Win32,60.24096386,636688ae3dba27a43013baeb,65d2b6c8f2eece985d8e374c,65d2b9d76c39a6d844a8d030,0.0151,0.0152,0,130,130,161,1,fiveseven,,,,,,,,,,,,,,,,,,,,,,,,,,,,,,,,,,,,,,,,,,,,,,,,,,,,,,,,,,,,,,,,,,,,,,,,,,,,,,,,,,,,,,,,,,,,,,,,,,,,,,,,,,,,,,,,,,,,,,,,,,,,,,,,,,,,,,,,,
,,636688ae3dba27a43013baeb,2024-02-19_02h16.10.504,kallum_motion_pilot,2023.2.2,Win32,60.24096386,636688ae3dba27a43013baeb,65d2b6c8f2eece985d8e374c,65d2b9d76c39a6d844a8d030,0.0152,0.0152,0,131,131,33,1,onethree,,,,,,,,,,,,,,,,,,,,,,,,,,,,,,,,,,,,,,,,,,,,,,,,,,,,,,,,,,,,,,,,,,,,,,,,,,,,,,,,,,,,,,,,,,,,,,,,,,,,,,,,,,,,,,,,,,,,,,,,,,,,,,,,,,,,,,,,,
,,636688ae3dba27a43013baeb,2024-02-19_02h16.10.504,kallum_motion_pilot,2023.2.2,Win32,60.24096386,636688ae3dba27a43013baeb,65d2b6c8f2eece985d8e374c,65d2b9d76c39a6d844a8d030,0.0153,0.0153,0,132,132,81,1,fiveseven,,,,,,,,,,,,,,,,,,,,,,,,,,,,,,,,,,,,,,,,,,,,,,,,,,,,,,,,,,,,,,,,,,,,,,,,,,,,,,,,,,,,,,,,,,,,,,,,,,,,,,,,,,,,,,,,,,,,,,,,,,,,,,,,,,,,,,,,,
,,636688ae3dba27a43013baeb,2024-02-19_02h16.10.504,kallum_motion_pilot,2023.2.2,Win32,60.24096386,636688ae3dba27a43013baeb,65d2b6c8f2eece985d8e374c,65d2b9d76c39a6d844a8d030,0.0153,0.0153,0,133,133,76,1,threeone,,,,,,,,,,,,,,,,,,,,,,,,,,,,,,,,,,,,,,,,,,,,,,,,,,,,,,,,,,,,,,,,,,,,,,,,,,,,,,,,,,,,,,,,,,,,,,,,,,,,,,,,,,,,,,,,,,,,,,,,,,,,,,,,,,,,,,,,,
,,636688ae3dba27a43013baeb,2024-02-19_02h16.10.504,kallum_motion_pilot,2023.2.2,Win32,60.24096386,636688ae3dba27a43013baeb,65d2b6c8f2eece985d8e374c,65d2b9d76c39a6d844a8d030,0.0153,0.0153,0,134,134,67,1,twofour,,,,,,,,,,,,,,,,,,,,,,,,,,,,,,,,,,,,,,,,,,,,,,,,,,,,,,,,,,,,,,,,,,,,,,,,,,,,,,,,,,,,,,,,,,,,,,,,,,,,,,,,,,,,,,,,,,,,,,,,,,,,,,,,,,,,,,,,,
,,636688ae3dba27a43013baeb,2024-02-19_02h16.10.504,kallum_motion_pilot,2023.2.2,Win32,60.24096386,636688ae3dba27a43013baeb,65d2b6c8f2eece985d8e374c,65d2b9d76c39a6d844a8d030,0.0154,0.0154,0,135,135,58,1,twoone,,,,,,,,,,,,,,,,,,,,,,,,,,,,,,,,,,,,,,,,,,,,,,,,,,,,,,,,,,,,,,,,,,,,,,,,,,,,,,,,,,,,,,,,,,,,,,,,,,,,,,,,,,,,,,,,,,,,,,,,,,,,,,,,,,,,,,,,,
,,636688ae3dba27a43013baeb,2024-02-19_02h16.10.504,kallum_motion_pilot,2023.2.2,Win32,60.24096386,636688ae3dba27a43013baeb,65d2b6c8f2eece985d8e374c,65d2b9d76c39a6d844a8d030,0.0154,0.0154,0,136,136,112,1,fivesix,,,,,,,,,,,,,,,,,,,,,,,,,,,,,,,,,,,,,,,,,,,,,,,,,,,,,,,,,,,,,,,,,,,,,,,,,,,,,,,,,,,,,,,,,,,,,,,,,,,,,,,,,,,,,,,,,,,,,,,,,,,,,,,,,,,,,,,,,
,,636688ae3dba27a43013baeb,2024-02-19_02h16.10.504,kallum_motion_pilot,2023.2.2,Win32,60.24096386,636688ae3dba27a43013baeb,65d2b6c8f2eece985d8e374c,65d2b9d76c39a6d844a8d030,0.0155,0.0155,0,137,137,9,1,onethree,,,,,,,,,,,,,,,,,,,,,,,,,,,,,,,,,,,,,,,,,,,,,,,,,,,,,,,,,,,,,,,,,,,,,,,,,,,,,,,,,,,,,,,,,,,,,,,,,,,,,,,,,,,,,,,,,,,,,,,,,,,,,,,,,,,,,,,,,
,,636688ae3dba27a43013baeb,2024-02-19_02h16.10.504,kallum_motion_pilot,2023.2.2,Win32,60.24096386,636688ae3dba27a43013baeb,65d2b6c8f2eece985d8e374c,65d2b9d76c39a6d844a8d030,0.0155,0.0155,0,138,138,89,1,fiveseven,,,,,,,,,,,,,,,,,,,,,,,,,,,,,,,,,,,,,,,,,,,,,,,,,,,,,,,,,,,,,,,,,,,,,,,,,,,,,,,,,,,,,,,,,,,,,,,,,,,,,,,,,,,,,,,,,,,,,,,,,,,,,,,,,,,,,,,,,
,,636688ae3dba27a43013baeb,2024-02-19_02h16.10.504,kallum_motion_pilot,2023.2.2,Win32,60.24096386,636688ae3dba27a43013baeb,65d2b6c8f2eece985d8e374c,65d2b9d76c39a6d844a8d030,0.0159,0.0159,0,139,139,88,1,fivesix,,,,,,,,,,,,,,,,,,,,,,,,,,,,,,,,,,,,,,,,,,,,,,,,,,,,,,,,,,,,,,,,,,,,,,,,,,,,,,,,,,,,,,,,,,,,,,,,,,,,,,,,,,,,,,,,,,,,,,,,,,,,,,,,,,,,,,,,,
,,636688ae3dba27a43013baeb,2024-02-19_02h16.10.504,kallum_motion_pilot,2023.2.2,Win32,60.24096386,636688ae3dba27a43013baeb,65d2b6c8f2eece985d8e374c,65d2b9d76c39a6d844a8d030,0.0159,0.0159,0,140,140,131,1,sixeight,,,,,,,,,,,,,,,,,,,,,,,,,,,,,,,,,,,,,,,,,,,,,,,,,,,,,,,,,,,,,,,,,,,,,,,,,,,,,,,,,,,,,,,,,,,,,,,,,,,,,,,,,,,,,,,,,,,,,,,,,,,,,,,,,,,,,,,,,
,,636688ae3dba27a43013baeb,2024-02-19_02h16.10.504,kallum_motion_pilot,2023.2.2,Win32,60.24096386,636688ae3dba27a43013baeb,65d2b6c8f2eece985d8e374c,65d2b9d76c39a6d844a8d030,0.0159,0.0159,0,141,141,151,1,eightseven,,,,,,,,,,,,,,,,,,,,,,,,,,,,,,,,,,,,,,,,,,,,,,,,,,,,,,,,,,,,,,,,,,,,,,,,,,,,,,,,,,,,,,,,,,,,,,,,,,,,,,,,,,,,,,,,,,,,,,,,,,,,,,,,,,,,,,,,,
,,636688ae3dba27a43013baeb,2024-02-19_02h16.10.504,kallum_motion_pilot,2023.2.2,Win32,60.24096386,636688ae3dba27a43013baeb,65d2b6c8f2eece985d8e374c,65d2b9d76c39a6d844a8d030,0.016,0.016,0,142,142,100,1,sevenfive,,,,,,,,,,,,,,,,,,,,,,,,,,,,,,,,,,,,,,,,,,,,,,,,,,,,,,,,,,,,,,,,,,,,,,,,,,,,,,,,,,,,,,,,,,,,,,,,,,,,,,,,,,,,,,,,,,,,,,,,,,,,,,,,,,,,,,,,,
,,636688ae3dba27a43013baeb,2024-02-19_02h16.10.504,kallum_motion_pilot,2023.2.2,Win32,60.24096386,636688ae3dba27a43013baeb,65d2b6c8f2eece985d8e374c,65d2b9d76c39a6d844a8d030,0.0161,0.0161,0,143,143,132,1,sevenfive,,,,,,,,,,,,,,,,,,,,,,,,,,,,,,,,,,,,,,,,,,,,,,,,,,,,,,,,,,,,,,,,,,,,,,,,,,,,,,,,,,,,,,,,,,,,,,,,,,,,,,,,,,,,,,,,,,,,,,,,,,,,,,,,,,,,,,,,,
,,636688ae3dba27a43013baeb,2024-02-19_02h16.10.504,kallum_motion_pilot,2023.2.2,Win32,60.24096386,636688ae3dba27a43013baeb,65d2b6c8f2eece985d8e374c,65d2b9d76c39a6d844a8d030,0.0161,0.0161,0,144,144,35,1,twofour,,,,,,,,,,,,,,,,,,,,,,,,,,,,,,,,,,,,,,,,,,,,,,,,,,,,,,,,,,,,,,,,,,,,,,,,,,,,,,,,,,,,,,,,,,,,,,,,,,,,,,,,,,,,,,,,,,,,,,,,,,,,,,,,,,,,,,,,,
,,636688ae3dba27a43013baeb,2024-02-19_02h16.10.504,kallum_motion_pilot,2023.2.2,Win32,60.24096386,636688ae3dba27a43013baeb,65d2b6c8f2eece985d8e374c,65d2b9d76c39a6d844a8d030,0.0162,0.0162,0,145,145,144,1,fivesix,,,,,,,,,,,,,,,,,,,,,,,,,,,,,,,,,,,,,,,,,,,,,,,,,,,,,,,,,,,,,,,,,,,,,,,,,,,,,,,,,,,,,,,,,,,,,,,,,,,,,,,,,,,,,,,,,,,,,,,,,,,,,,,,,,,,,,,,,
,,636688ae3dba27a43013baeb,2024-02-19_02h16.10.504,kallum_motion_pilot,2023.2.2,Win32,60.24096386,636688ae3dba27a43013baeb,65d2b6c8f2eece985d8e374c,65d2b9d76c39a6d844a8d030,0.0162,0.0162,0,146,146,68,1,threeone,,,,,,,,,,,,,,,,,,,,,,,,,,,,,,,,,,,,,,,,,,,,,,,,,,,,,,,,,,,,,,,,,,,,,,,,,,,,,,,,,,,,,,,,,,,,,,,,,,,,,,,,,,,,,,,,,,,,,,,,,,,,,,,,,,,,,,,,,
,,636688ae3dba27a43013baeb,2024-02-19_02h16.10.504,kallum_motion_pilot,2023.2.2,Win32,60.24096386,636688ae3dba27a43013baeb,65d2b6c8f2eece985d8e374c,65d2b9d76c39a6d844a8d030,0.0162,0.0162,0,147,147,55,1,fourthree,,,,,,,,,,,,,,,,,,,,,,,,,,,,,,,,,,,,,,,,,,,,,,,,,,,,,,,,,,,,,,,,,,,,,,,,,,,,,,,,,,,,,,,,,,,,,,,,,,,,,,,,,,,,,,,,,,,,,,,,,,,,,,,,,,,,,,,,,
,,636688ae3dba27a43013baeb,2024-02-19_02h16.10.504,kallum_motion_pilot,2023.2.2,Win32,60.24096386,636688ae3dba27a43013baeb,65d2b6c8f2eece985d8e374c,65d2b9d76c39a6d844a8d030,0.0162,0.0162,0,148,148,94,1,eightsix,,,,,,,,,,,,,,,,,,,,,,,,,,,,,,,,,,,,,,,,,,,,,,,,,,,,,,,,,,,,,,,,,,,,,,,,,,,,,,,,,,,,,,,,,,,,,,,,,,,,,,,,,,,,,,,,,,,,,,,,,,,,,,,,,,,,,,,,,
,,636688ae3dba27a43013baeb,2024-02-19_02h16.10.504,kallum_motion_pilot,2023.2.2,Win32,60.24096386,636688ae3dba27a43013baeb,65d2b6c8f2eece985d8e374c,65d2b9d76c39a6d844a8d030,0.0163,0.0163,0,149,149,105,1,fiveseven,,,,,,,,,,,,,,,,,,,,,,,,,,,,,,,,,,,,,,,,,,,,,,,,,,,,,,,,,,,,,,,,,,,,,,,,,,,,,,,,,,,,,,,,,,,,,,,,,,,,,,,,,,,,,,,,,,,,,,,,,,,,,,,,,,,,,,,,,
,,636688ae3dba27a43013baeb,2024-02-19_02h16.10.504,kallum_motion_pilot,2023.2.2,Win32,60.24096386,636688ae3dba27a43013baeb,65d2b6c8f2eece985d8e374c,65d2b9d76c39a6d844a8d030,0.0163,0.0164,0,150,150,80,1,fivesix,,,,,,,,,,,,,,,,,,,,,,,,,,,,,,,,,,,,,,,,,,,,,,,,,,,,,,,,,,,,,,,,,,,,,,,,,,,,,,,,,,,,,,,,,,,,,,,,,,,,,,,,,,,,,,,,,,,,,,,,,,,,,,,,,,,,,,,,,
,,636688ae3dba27a43013baeb,2024-02-19_02h16.10.504,kallum_motion_pilot,2023.2.2,Win32,60.24096386,636688ae3dba27a43013baeb,65d2b6c8f2eece985d8e374c,65d2b9d76c39a6d844a8d030,0.0164,0.0164,0,151,151,96,1,fivesix,,,,,,,,,,,,,,,,,,,,,,,,,,,,,,,,,,,,,,,,,,,,,,,,,,,,,,,,,,,,,,,,,,,,,,,,,,,,,,,,,,,,,,,,,,,,,,,,,,,,,,,,,,,,,,,,,,,,,,,,,,,,,,,,,,,,,,,,,
,,636688ae3dba27a43013baeb,2024-02-19_02h16.10.504,kallum_motion_pilot,2023.2.2,Win32,60.24096386,636688ae3dba27a43013baeb,65d2b6c8f2eece985d8e374c,65d2b9d76c39a6d844a8d030,0.0164,0.0164,0,152,152,129,1,fiveseven,,,,,,,,,,,,,,,,,,,,,,,,,,,,,,,,,,,,,,,,,,,,,,,,,,,,,,,,,,,,,,,,,,,,,,,,,,,,,,,,,,,,,,,,,,,,,,,,,,,,,,,,,,,,,,,,,,,,,,,,,,,,,,,,,,,,,,,,,
,,636688ae3dba27a43013baeb,2024-02-19_02h16.10.504,kallum_motion_pilot,2023.2.2,Win32,60.24096386,636688ae3dba27a43013baeb,65d2b6c8f2eece985d8e374c,65d2b9d76c39a6d844a8d030,0.0164,0.0164,0,153,153,121,1,fiveseven,,,,,,,,,,,,,,,,,,,,,,,,,,,,,,,,,,,,,,,,,,,,,,,,,,,,,,,,,,,,,,,,,,,,,,,,,,,,,,,,,,,,,,,,,,,,,,,,,,,,,,,,,,,,,,,,,,,,,,,,,,,,,,,,,,,,,,,,,
,,636688ae3dba27a43013baeb,2024-02-19_02h16.10.504,kallum_motion_pilot,2023.2.2,Win32,60.24096386,636688ae3dba27a43013baeb,65d2b6c8f2eece985d8e374c,65d2b9d76c39a6d844a8d030,0.0165,0.0165,0,154,154,93,1,seveneight,,,,,,,,,,,,,,,,,,,,,,,,,,,,,,,,,,,,,,,,,,,,,,,,,,,,,,,,,,,,,,,,,,,,,,,,,,,,,,,,,,,,,,,,,,,,,,,,,,,,,,,,,,,,,,,,,,,,,,,,,,,,,,,,,,,,,,,,,
,,636688ae3dba27a43013baeb,2024-02-19_02h16.10.504,kallum_motion_pilot,2023.2.2,Win32,60.24096386,636688ae3dba27a43013baeb,65d2b6c8f2eece985d8e374c,65d2b9d76c39a6d844a8d030,0.0165,0.0165,0,155,155,111,1,eightseven,,,,,,,,,,,,,,,,,,,,,,,,,,,,,,,,,,,,,,,,,,,,,,,,,,,,,,,,,,,,,,,,,,,,,,,,,,,,,,,,,,,,,,,,,,,,,,,,,,,,,,,,,,,,,,,,,,,,,,,,,,,,,,,,,,,,,,,,,
,,636688ae3dba27a43013baeb,2024-02-19_02h16.10.504,kallum_motion_pilot,2023.2.2,Win32,60.24096386,636688ae3dba27a43013baeb,65d2b6c8f2eece985d8e374c,65d2b9d76c39a6d844a8d030,0.0165,0.0165,0,156,156,7,1,fourthree,,,,,,,,,,,,,,,,,,,,,,,,,,,,,,,,,,,,,,,,,,,,,,,,,,,,,,,,,,,,,,,,,,,,,,,,,,,,,,,,,,,,,,,,,,,,,,,,,,,,,,,,,,,,,,,,,,,,,,,,,,,,,,,,,,,,,,,,,
,,636688ae3dba27a43013baeb,2024-02-19_02h16.10.504,kallum_motion_pilot,2023.2.2,Win32,60.24096386,636688ae3dba27a43013baeb,65d2b6c8f2eece985d8e374c,65d2b9d76c39a6d844a8d030,0.0165,0.0166,0,157,157,125,1,seveneight,,,,,,,,,,,,,,,,,,,,,,,,,,,,,,,,,,,,,,,,,,,,,,,,,,,,,,,,,,,,,,,,,,,,,,,,,,,,,,,,,,,,,,,,,,,,,,,,,,,,,,,,,,,,,,,,,,,,,,,,,,,,,,,,,,,,,,,,,
,,636688ae3dba27a43013baeb,2024-02-19_02h16.10.504,kallum_motion_pilot,2023.2.2,Win32,60.24096386,636688ae3dba27a43013baeb,65d2b6c8f2eece985d8e374c,65d2b9d76c39a6d844a8d030,0.0166,0.0167,0,158,158,40,1,onetwo,,,,,,,,,,,,,,,,,,,,,,,,,,,,,,,,,,,,,,,,,,,,,,,,,,,,,,,,,,,,,,,,,,,,,,,,,,,,,,,,,,,,,,,,,,,,,,,,,,,,,,,,,,,,,,,,,,,,,,,,,,,,,,,,,,,,,,,,,
,,636688ae3dba27a43013baeb,2024-02-19_02h16.10.504,kallum_motion_pilot,2023.2.2,Win32,60.24096386,636688ae3dba27a43013baeb,65d2b6c8f2eece985d8e374c,65d2b9d76c39a6d844a8d030,0.0167,0.0167,0,159,159,8,1,onetwo,,,,,,,,,,,,,,,,,,,,,,,,,,,,,,,,,,,,,,,,,,,,,,,,,,,,,,,,,,,,,,,,,,,,,,,,,,,,,,,,,,,,,,,,,,,,,,,,,,,,,,,,,,,,,,,,,,,,,,,,,,,,,,,,,,,,,,,,,
,,636688ae3dba27a43013baeb,2024-02-19_02h16.10.504,kallum_motion_pilot,2023.2.2,Win32,60.24096386,636688ae3dba27a43013baeb,65d2b6c8f2eece985d8e374c,65d2b9d76c39a6d844a8d030,0.0168,0.0168,0,160,160,128,1,fivesix,,,,,,,,,,,,,,,,,,,,,,,,,,,,,,,,,,,,,,,,,,,,,,,,,,,,,,,,,,,,,,,,,,,,,,,,,,,,,,,,,,,,,,,,,,,,,,,,,,,,,,,,,,,,,,,,,,,,,,,,,,,,,,,,,,,,,,,,,
,,636688ae3dba27a43013baeb,2024-02-19_02h16.10.504,kallum_motion_pilot,2023.2.2,Win32,60.24096386,636688ae3dba27a43013baeb,65d2b6c8f2eece985d8e374c,65d2b9d76c39a6d844a8d030,0.0168,0.0168,0,161,161,124,1,sevenfive,,,,,,,,,,,,,,,,,,,,,,,,,,,,,,,,,,,,,,,,,,,,,,,,,,,,,,,,,,,,,,,,,,,,,,,,,,,,,,,,,,,,,,,,,,,,,,,,,,,,,,,,,,,,,,,,,,,,,,,,,,,,,,,,,,,,,,,,,
,,636688ae3dba27a43013baeb,2024-02-19_02h16.10.504,kallum_motion_pilot,2023.2.2,Win32,60.24096386,636688ae3dba27a43013baeb,65d2b6c8f2eece985d8e374c,65d2b9d76c39a6d844a8d030,0.0168,0.0168,1,0,162,107,1,sixeight,,,,,,,,,,,,,,,,,,,,,,,,,,,,,,,,,,,,,,,,,,,,,,,,,,,,,,,,,,,,,,,,,,,,,,,,,,,,,,,,,,,,,,,,,,,,,,,,,,,,,,,,,,,,,,,,,,,,,,,,,,,,,,,,,,,,,,,,,
,,636688ae3dba27a43013baeb,2024-02-19_02h16.10.504,kallum_motion_pilot,2023.2.2,Win32,60.24096386,636688ae3dba27a43013baeb,65d2b6c8f2eece985d8e374c,65d2b9d76c39a6d844a8d030,0.0168,0.0169,1,1,163,157,1,seveneight,,,,,,,,,,,,,,,,,,,,,,,,,,,,,,,,,,,,,,,,,,,,,,,,,,,,,,,,,,,,,,,,,,,,,,,,,,,,,,,,,,,,,,,,,,,,,,,,,,,,,,,,,,,,,,,,,,,,,,,,,,,,,,,,,,,,,,,,,
,,636688ae3dba27a43013baeb,2024-02-19_02h16.10.504,kallum_motion_pilot,2023.2.2,Win32,60.24096386,636688ae3dba27a43013baeb,65d2b6c8f2eece985d8e374c,65d2b9d76c39a6d844a8d030,0.0169,0.0169,1,2,164,143,1,eightseven,,,,,,,,,,,,,,,,,,,,,,,,,,,,,,,,,,,,,,,,,,,,,,,,,,,,,,,,,,,,,,,,,,,,,,,,,,,,,,,,,,,,,,,,,,,,,,,,,,,,,,,,,,,,,,,,,,,,,,,,,,,,,,,,,,,,,,,,,
,,636688ae3dba27a43013baeb,2024-02-19_02h16.10.504,kallum_motion_pilot,2023.2.2,Win32,60.24096386,636688ae3dba27a43013baeb,65d2b6c8f2eece985d8e374c,65d2b9d76c39a6d844a8d030,0.0169,0.0169,1,3,165,70,1,fourtwo,,,,,,,,,,,,,,,,,,,,,,,,,,,,,,,,,,,,,,,,,,,,,,,,,,,,,,,,,,,,,,,,,,,,,,,,,,,,,,,,,,,,,,,,,,,,,,,,,,,,,,,,,,,,,,,,,,,,,,,,,,,,,,,,,,,,,,,,,
,,636688ae3dba27a43013baeb,2024-02-19_02h16.10.504,kallum_motion_pilot,2023.2.2,Win32,60.24096386,636688ae3dba27a43013baeb,65d2b6c8f2eece985d8e374c,65d2b9d76c39a6d844a8d030,0.0169,0.017,1,4,166,141,1,seveneight,,,,,,,,,,,,,,,,,,,,,,,,,,,,,,,,,,,,,,,,,,,,,,,,,,,,,,,,,,,,,,,,,,,,,,,,,,,,,,,,,,,,,,,,,,,,,,,,,,,,,,,,,,,,,,,,,,,,,,,,,,,,,,,,,,,,,,,,,
,,636688ae3dba27a43013baeb,2024-02-19_02h16.10.504,kallum_motion_pilot,2023.2.2,Win32,60.24096386,636688ae3dba27a43013baeb,65d2b6c8f2eece985d8e374c,65d2b9d76c39a6d844a8d030,0.017,0.017,1,5,167,2,1,twoone,,,,,,,,,,,,,,,,,,,,,,,,,,,,,,,,,,,,,,,,,,,,,,,,,,,,,,,,,,,,,,,,,,,,,,,,,,,,,,,,,,,,,,,,,,,,,,,,,,,,,,,,,,,,,,,,,,,,,,,,,,,,,,,,,,,,,,,,,
,,636688ae3dba27a43013baeb,2024-02-19_02h16.10.504,kallum_motion_pilot,2023.2.2,Win32,60.24096386,636688ae3dba27a43013baeb,65d2b6c8f2eece985d8e374c,65d2b9d76c39a6d844a8d030,0.017,0.017,1,6,168,19,1,twofour,,,,,,,,,,,,,,,,,,,,,,,,,,,,,,,,,,,,,,,,,,,,,,,,,,,,,,,,,,,,,,,,,,,,,,,,,,,,,,,,,,,,,,,,,,,,,,,,,,,,,,,,,,,,,,,,,,,,,,,,,,,,,,,,,,,,,,,,,
,,636688ae3dba27a43013baeb,2024-02-19_02h16.10.504,kallum_motion_pilot,2023.2.2,Win32,60.24096386,636688ae3dba27a43013baeb,65d2b6c8f2eece985d8e374c,65d2b9d76c39a6d844a8d030,0.0171,0.0171,1,7,169,61,1,threefour,,,,,,,,,,,,,,,,,,,,,,,,,,,,,,,,,,,,,,,,,,,,,,,,,,,,,,,,,,,,,,,,,,,,,,,,,,,,,,,,,,,,,,,,,,,,,,,,,,,,,,,,,,,,,,,,,,,,,,,,,,,,,,,,,,,,,,,,,
,,636688ae3dba27a43013baeb,2024-02-19_02h16.10.504,kallum_motion_pilot,2023.2.2,Win32,60.24096386,636688ae3dba27a43013baeb,65d2b6c8f2eece985d8e374c,65d2b9d76c39a6d844a8d030,0.0172,0.0172,1,8,170,47,1,fourthree,,,,,,,,,,,,,,,,,,,,,,,,,,,,,,,,,,,,,,,,,,,,,,,,,,,,,,,,,,,,,,,,,,,,,,,,,,,,,,,,,,,,,,,,,,,,,,,,,,,,,,,,,,,,,,,,,,,,,,,,,,,,,,,,,,,,,,,,,
,,636688ae3dba27a43013baeb,2024-02-19_02h16.10.504,kallum_motion_pilot,2023.2.2,Win32,60.24096386,636688ae3dba27a43013baeb,65d2b6c8f2eece985d8e374c,65d2b9d76c39a6d844a8d030,0.0172,0.0172,1,9,171,152,1,fivesix,,,,,,,,,,,,,,,,,,,,,,,,,,,,,,,,,,,,,,,,,,,,,,,,,,,,,,,,,,,,,,,,,,,,,,,,,,,,,,,,,,,,,,,,,,,,,,,,,,,,,,,,,,,,,,,,,,,,,,,,,,,,,,,,,,,,,,,,,
,,636688ae3dba27a43013baeb,2024-02-19_02h16.10.504,kallum_motion_pilot,2023.2.2,Win32,60.24096386,636688ae3dba27a43013baeb,65d2b6c8f2eece985d8e374c,65d2b9d76c39a6d844a8d030,0.0173,0.0173,1,10,172,48,1,onetwo,,,,,,,,,,,,,,,,,,,,,,,,,,,,,,,,,,,,,,,,,,,,,,,,,,,,,,,,,,,,,,,,,,,,,,,,,,,,,,,,,,,,,,,,,,,,,,,,,,,,,,,,,,,,,,,,,,,,,,,,,,,,,,,,,,,,,,,,,
,,636688ae3dba27a43013baeb,2024-02-19_02h16.10.504,kallum_motion_pilot,2023.2.2,Win32,60.24096386,636688ae3dba27a43013baeb,65d2b6c8f2eece985d8e374c,65d2b9d76c39a6d844a8d030,0.0173,0.0173,1,11,173,100,1,sevenfive,,,,,,,,,,,,,,,,,,,,,,,,,,,,,,,,,,,,,,,,,,,,,,,,,,,,,,,,,,,,,,,,,,,,,,,,,,,,,,,,,,,,,,,,,,,,,,,,,,,,,,,,,,,,,,,,,,,,,,,,,,,,,,,,,,,,,,,,,
,,636688ae3dba27a43013baeb,2024-02-19_02h16.10.504,kallum_motion_pilot,2023.2.2,Win32,60.24096386,636688ae3dba27a43013baeb,65d2b6c8f2eece985d8e374c,65d2b9d76c39a6d844a8d030,0.0173,0.0173,1,12,174,96,1,fivesix,,,,,,,,,,,,,,,,,,,,,,,,,,,,,,,,,,,,,,,,,,,,,,,,,,,,,,,,,,,,,,,,,,,,,,,,,,,,,,,,,,,,,,,,,,,,,,,,,,,,,,,,,,,,,,,,,,,,,,,,,,,,,,,,,,,,,,,,,
,,636688ae3dba27a43013baeb,2024-02-19_02h16.10.504,kallum_motion_pilot,2023.2.2,Win32,60.24096386,636688ae3dba27a43013baeb,65d2b6c8f2eece985d8e374c,65d2b9d76c39a6d844a8d030,0.0173,0.0174,1,13,175,147,1,sixeight,,,,,,,,,,,,,,,,,,,,,,,,,,,,,,,,,,,,,,,,,,,,,,,,,,,,,,,,,,,,,,,,,,,,,,,,,,,,,,,,,,,,,,,,,,,,,,,,,,,,,,,,,,,,,,,,,,,,,,,,,,,,,,,,,,,,,,,,,
,,636688ae3dba27a43013baeb,2024-02-19_02h16.10.504,kallum_motion_pilot,2023.2.2,Win32,60.24096386,636688ae3dba27a43013baeb,65d2b6c8f2eece985d8e374c,65d2b9d76c39a6d844a8d030,0.0174,0.0174,1,14,176,144,1,fivesix,,,,,,,,,,,,,,,,,,,,,,,,,,,,,,,,,,,,,,,,,,,,,,,,,,,,,,,,,,,,,,,,,,,,,,,,,,,,,,,,,,,,,,,,,,,,,,,,,,,,,,,,,,,,,,,,,,,,,,,,,,,,,,,,,,,,,,,,,
,,636688ae3dba27a43013baeb,2024-02-19_02h16.10.504,kallum_motion_pilot,2023.2.2,Win32,60.24096386,636688ae3dba27a43013baeb,65d2b6c8f2eece985d8e374c,65d2b9d76c39a6d844a8d030,0.0174,0.0175,1,15,177,94,1,eightsix,,,,,,,,,,,,,,,,,,,,,,,,,,,,,,,,,,,,,,,,,,,,,,,,,,,,,,,,,,,,,,,,,,,,,,,,,,,,,,,,,,,,,,,,,,,,,,,,,,,,,,,,,,,,,,,,,,,,,,,,,,,,,,,,,,,,,,,,,
,,636688ae3dba27a43013baeb,2024-02-19_02h16.10.504,kallum_motion_pilot,2023.2.2,Win32,60.24096386,636688ae3dba27a43013baeb,65d2b6c8f2eece985d8e374c,65d2b9d76c39a6d844a8d030,0.0175,0.0175,1,16,178,134,1,eightsix,,,,,,,,,,,,,,,,,,,,,,,,,,,,,,,,,,,,,,,,,,,,,,,,,,,,,,,,,,,,,,,,,,,,,,,,,,,,,,,,,,,,,,,,,,,,,,,,,,,,,,,,,,,,,,,,,,,,,,,,,,,,,,,,,,,,,,,,,
,,636688ae3dba27a43013baeb,2024-02-19_02h16.10.504,kallum_motion_pilot,2023.2.2,Win32,60.24096386,636688ae3dba27a43013baeb,65d2b6c8f2eece985d8e374c,65d2b9d76c39a6d844a8d030,0.0175,0.0175,1,17,179,146,1,sixfive,,,,,,,,,,,,,,,,,,,,,,,,,,,,,,,,,,,,,,,,,,,,,,,,,,,,,,,,,,,,,,,,,,,,,,,,,,,,,,,,,,,,,,,,,,,,,,,,,,,,,,,,,,,,,,,,,,,,,,,,,,,,,,,,,,,,,,,,,
,,636688ae3dba27a43013baeb,2024-02-19_02h16.10.504,kallum_motion_pilot,2023.2.2,Win32,60.24096386,636688ae3dba27a43013baeb,65d2b6c8f2eece985d8e374c,65d2b9d76c39a6d844a8d030,0.0176,0.0176,1,18,180,125,1,seveneight,,,,,,,,,,,,,,,,,,,,,,,,,,,,,,,,,,,,,,,,,,,,,,,,,,,,,,,,,,,,,,,,,,,,,,,,,,,,,,,,,,,,,,,,,,,,,,,,,,,,,,,,,,,,,,,,,,,,,,,,,,,,,,,,,,,,,,,,,
,,636688ae3dba27a43013baeb,2024-02-19_02h16.10.504,kallum_motion_pilot,2023.2.2,Win32,60.24096386,636688ae3dba27a43013baeb,65d2b6c8f2eece985d8e374c,65d2b9d76c39a6d844a8d030,0.0176,0.0176,1,19,181,67,1,twofour,,,,,,,,,,,,,,,,,,,,,,,,,,,,,,,,,,,,,,,,,,,,,,,,,,,,,,,,,,,,,,,,,,,,,,,,,,,,,,,,,,,,,,,,,,,,,,,,,,,,,,,,,,,,,,,,,,,,,,,,,,,,,,,,,,,,,,,,,
,,636688ae3dba27a43013baeb,2024-02-19_02h16.10.504,kallum_motion_pilot,2023.2.2,Win32,60.24096386,636688ae3dba27a43013baeb,65d2b6c8f2eece985d8e374c,65d2b9d76c39a6d844a8d030,0.0176,0.0176,1,20,182,154,1,sixfive,,,,,,,,,,,,,,,,,,,,,,,,,,,,,,,,,,,,,,,,,,,,,,,,,,,,,,,,,,,,,,,,,,,,,,,,,,,,,,,,,,,,,,,,,,,,,,,,,,,,,,,,,,,,,,,,,,,,,,,,,,,,,,,,,,,,,,,,,
,,636688ae3dba27a43013baeb,2024-02-19_02h16.10.504,kallum_motion_pilot,2023.2.2,Win32,60.24096386,636688ae3dba27a43013baeb,65d2b6c8f2eece985d8e374c,65d2b9d76c39a6d844a8d030,0.0177,0.0177,1,21,183,145,1,fiveseven,,,,,,,,,,,,,,,,,,,,,,,,,,,,,,,,,,,,,,,,,,,,,,,,,,,,,,,,,,,,,,,,,,,,,,,,,,,,,,,,,,,,,,,,,,,,,,,,,,,,,,,,,,,,,,,,,,,,,,,,,,,,,,,,,,,,,,,,,
,,636688ae3dba27a43013baeb,2024-02-19_02h16.10.504,kallum_motion_pilot,2023.2.2,Win32,60.24096386,636688ae3dba27a43013baeb,65d2b6c8f2eece985d8e374c,65d2b9d76c39a6d844a8d030,0.0177,0.0177,1,22,184,115,1,sixeight,,,,,,,,,,,,,,,,,,,,,,,,,,,,,,,,,,,,,,,,,,,,,,,,,,,,,,,,,,,,,,,,,,,,,,,,,,,,,,,,,,,,,,,,,,,,,,,,,,,,,,,,,,,,,,,,,,,,,,,,,,,,,,,,,,,,,,,,,
,,636688ae3dba27a43013baeb,2024-02-19_02h16.10.504,kallum_motion_pilot,2023.2.2,Win32,60.24096386,636688ae3dba27a43013baeb,65d2b6c8f2eece985d8e374c,65d2b9d76c39a6d844a8d030,0.0177,0.0178,1,23,185,131,1,sixeight,,,,,,,,,,,,,,,,,,,,,,,,,,,,,,,,,,,,,,,,,,,,,,,,,,,,,,,,,,,,,,,,,,,,,,,,,,,,,,,,,,,,,,,,,,,,,,,,,,,,,,,,,,,,,,,,,,,,,,,,,,,,,,,,,,,,,,,,,
,,636688ae3dba27a43013baeb,2024-02-19_02h16.10.504,kallum_motion_pilot,2023.2.2,Win32,60.24096386,636688ae3dba27a43013baeb,65d2b6c8f2eece985d8e374c,65d2b9d76c39a6d844a8d030,0.0178,0.0178,1,24,186,81,1,fiveseven,,,,,,,,,,,,,,,,,,,,,,,,,,,,,,,,,,,,,,,,,,,,,,,,,,,,,,,,,,,,,,,,,,,,,,,,,,,,,,,,,,,,,,,,,,,,,,,,,,,,,,,,,,,,,,,,,,,,,,,,,,,,,,,,,,,,,,,,,
,,636688ae3dba27a43013baeb,2024-02-19_02h16.10.504,kallum_motion_pilot,2023.2.2,Win32,60.24096386,636688ae3dba27a43013baeb,65d2b6c8f2eece985d8e374c,65d2b9d76c39a6d844a8d030,0.0179,0.0179,1,25,187,104,1,fivesix,,,,,,,,,,,,,,,,,,,,,,,,,,,,,,,,,,,,,,,,,,,,,,,,,,,,,,,,,,,,,,,,,,,,,,,,,,,,,,,,,,,,,,,,,,,,,,,,,,,,,,,,,,,,,,,,,,,,,,,,,,,,,,,,,,,,,,,,,
,,636688ae3dba27a43013baeb,2024-02-19_02h16.10.504,kallum_motion_pilot,2023.2.2,Win32,60.24096386,636688ae3dba27a43013baeb,65d2b6c8f2eece985d8e374c,65d2b9d76c39a6d844a8d030,0.0179,0.0179,1,26,188,69,1,threefour,,,,,,,,,,,,,,,,,,,,,,,,,,,,,,,,,,,,,,,,,,,,,,,,,,,,,,,,,,,,,,,,,,,,,,,,,,,,,,,,,,,,,,,,,,,,,,,,,,,,,,,,,,,,,,,,,,,,,,,,,,,,,,,,,,,,,,,,,
,,636688ae3dba27a43013baeb,2024-02-19_02h16.10.504,kallum_motion_pilot,2023.2.2,Win32,60.24096386,636688ae3dba27a43013baeb,65d2b6c8f2eece985d8e374c,65d2b9d76c39a6d844a8d030,0.018,0.018,1,27,189,57,1,onethree,,,,,,,,,,,,,,,,,,,,,,,,,,,,,,,,,,,,,,,,,,,,,,,,,,,,,,,,,,,,,,,,,,,,,,,,,,,,,,,,,,,,,,,,,,,,,,,,,,,,,,,,,,,,,,,,,,,,,,,,,,,,,,,,,,,,,,,,,
,,636688ae3dba27a43013baeb,2024-02-19_02h16.10.504,kallum_motion_pilot,2023.2.2,Win32,60.24096386,636688ae3dba27a43013baeb,65d2b6c8f2eece985d8e374c,65d2b9d76c39a6d844a8d030,0.018,0.018,1,28,190,3,1,twofour,,,,,,,,,,,,,,,,,,,,,,,,,,,,,,,,,,,,,,,,,,,,,,,,,,,,,,,,,,,,,,,,,,,,,,,,,,,,,,,,,,,,,,,,,,,,,,,,,,,,,,,,,,,,,,,,,,,,,,,,,,,,,,,,,,,,,,,,,
,,636688ae3dba27a43013baeb,2024-02-19_02h16.10.504,kallum_motion_pilot,2023.2.2,Win32,60.24096386,636688ae3dba27a43013baeb,65d2b6c8f2eece985d8e374c,65d2b9d76c39a6d844a8d030,0.018,0.0181,1,29,191,36,1,threeone,,,,,,,,,,,,,,,,,,,,,,,,,,,,,,,,,,,,,,,,,,,,,,,,,,,,,,,,,,,,,,,,,,,,,,,,,,,,,,,,,,,,,,,,,,,,,,,,,,,,,,,,,,,,,,,,,,,,,,,,,,,,,,,,,,,,,,,,,
,,636688ae3dba27a43013baeb,2024-02-19_02h16.10.504,kallum_motion_pilot,2023.2.2,Win32,60.24096386,636688ae3dba27a43013baeb,65d2b6c8f2eece985d8e374c,65d2b9d76c39a6d844a8d030,0.0181,0.0181,1,30,192,1,1,onethree,,,,,,,,,,,,,,,,,,,,,,,,,,,,,,,,,,,,,,,,,,,,,,,,,,,,,,,,,,,,,,,,,,,,,,,,,,,,,,,,,,,,,,,,,,,,,,,,,,,,,,,,,,,,,,,,,,,,,,,,,,,,,,,,,,,,,,,,,
,,636688ae3dba27a43013baeb,2024-02-19_02h16.10.504,kallum_motion_pilot,2023.2.2,Win32,60.24096386,636688ae3dba27a43013baeb,65d2b6c8f2eece985d8e374c,65d2b9d76c39a6d844a8d030,0.0181,0.0181,1,31,193,42,1,twoone,,,,,,,,,,,,,,,,,,,,,,,,,,,,,,,,,,,,,,,,,,,,,,,,,,,,,,,,,,,,,,,,,,,,,,,,,,,,,,,,,,,,,,,,,,,,,,,,,,,,,,,,,,,,,,,,,,,,,,,,,,,,,,,,,,,,,,,,,
,,636688ae3dba27a43013baeb,2024-02-19_02h16.10.504,kallum_motion_pilot,2023.2.2,Win32,60.24096386,636688ae3dba27a43013baeb,65d2b6c8f2eece985d8e374c,65d2b9d76c39a6d844a8d030,0.0182,0.0183,1,32,194,76,1,threeone,,,,,,,,,,,,,,,,,,,,,,,,,,,,,,,,,,,,,,,,,,,,,,,,,,,,,,,,,,,,,,,,,,,,,,,,,,,,,,,,,,,,,,,,,,,,,,,,,,,,,,,,,,,,,,,,,,,,,,,,,,,,,,,,,,,,,,,,,
,,636688ae3dba27a43013baeb,2024-02-19_02h16.10.504,kallum_motion_pilot,2023.2.2,Win32,60.24096386,636688ae3dba27a43013baeb,65d2b6c8f2eece985d8e374c,65d2b9d76c39a6d844a8d030,0.0183,0.0183,1,33,195,27,1,twofour,,,,,,,,,,,,,,,,,,,,,,,,,,,,,,,,,,,,,,,,,,,,,,,,,,,,,,,,,,,,,,,,,,,,,,,,,,,,,,,,,,,,,,,,,,,,,,,,,,,,,,,,,,,,,,,,,,,,,,,,,,,,,,,,,,,,,,,,,
,,636688ae3dba27a43013baeb,2024-02-19_02h16.10.504,kallum_motion_pilot,2023.2.2,Win32,60.24096386,636688ae3dba27a43013baeb,65d2b6c8f2eece985d8e374c,65d2b9d76c39a6d844a8d030,0.0183,0.0183,1,34,196,85,1,seveneight,,,,,,,,,,,,,,,,,,,,,,,,,,,,,,,,,,,,,,,,,,,,,,,,,,,,,,,,,,,,,,,,,,,,,,,,,,,,,,,,,,,,,,,,,,,,,,,,,,,,,,,,,,,,,,,,,,,,,,,,,,,,,,,,,,,,,,,,,
,,636688ae3dba27a43013baeb,2024-02-19_02h16.10.504,kallum_motion_pilot,2023.2.2,Win32,60.24096386,636688ae3dba27a43013baeb,65d2b6c8f2eece985d8e374c,65d2b9d76c39a6d844a8d030,0.0183,0.0184,1,35,197,74,1,twoone,,,,,,,,,,,,,,,,,,,,,,,,,,,,,,,,,,,,,,,,,,,,,,,,,,,,,,,,,,,,,,,,,,,,,,,,,,,,,,,,,,,,,,,,,,,,,,,,,,,,,,,,,,,,,,,,,,,,,,,,,,,,,,,,,,,,,,,,,
,,636688ae3dba27a43013baeb,2024-02-19_02h16.10.504,kallum_motion_pilot,2023.2.2,Win32,60.24096386,636688ae3dba27a43013baeb,65d2b6c8f2eece985d8e374c,65d2b9d76c39a6d844a8d030,0.0184,0.0184,1,36,198,121,1,fiveseven,,,,,,,,,,,,,,,,,,,,,,,,,,,,,,,,,,,,,,,,,,,,,,,,,,,,,,,,,,,,,,,,,,,,,,,,,,,,,,,,,,,,,,,,,,,,,,,,,,,,,,,,,,,,,,,,,,,,,,,,,,,,,,,,,,,,,,,,,
,,636688ae3dba27a43013baeb,2024-02-19_02h16.10.504,kallum_motion_pilot,2023.2.2,Win32,60.24096386,636688ae3dba27a43013baeb,65d2b6c8f2eece985d8e374c,65d2b9d76c39a6d844a8d030,0.0184,0.0184,1,37,199,60,1,threeone,,,,,,,,,,,,,,,,,,,,,,,,,,,,,,,,,,,,,,,,,,,,,,,,,,,,,,,,,,,,,,,,,,,,,,,,,,,,,,,,,,,,,,,,,,,,,,,,,,,,,,,,,,,,,,,,,,,,,,,,,,,,,,,,,,,,,,,,,
,,636688ae3dba27a43013baeb,2024-02-19_02h16.10.504,kallum_motion_pilot,2023.2.2,Win32,60.24096386,636688ae3dba27a43013baeb,65d2b6c8f2eece985d8e374c,65d2b9d76c39a6d844a8d030,0.0185,0.0185,1,38,200,25,1,onethree,,,,,,,,,,,,,,,,,,,,,,,,,,,,,,,,,,,,,,,,,,,,,,,,,,,,,,,,,,,,,,,,,,,,,,,,,,,,,,,,,,,,,,,,,,,,,,,,,,,,,,,,,,,,,,,,,,,,,,,,,,,,,,,,,,,,,,,,,
,,636688ae3dba27a43013baeb,2024-02-19_02h16.10.504,kallum_motion_pilot,2023.2.2,Win32,60.24096386,636688ae3dba27a43013baeb,65d2b6c8f2eece985d8e374c,65d2b9d76c39a6d844a8d030,0.0185,0.0185,1,39,201,51,1,twofour,,,,,,,,,,,,,,,,,,,,,,,,,,,,,,,,,,,,,,,,,,,,,,,,,,,,,,,,,,,,,,,,,,,,,,,,,,,,,,,,,,,,,,,,,,,,,,,,,,,,,,,,,,,,,,,,,,,,,,,,,,,,,,,,,,,,,,,,,
,,636688ae3dba27a43013baeb,2024-02-19_02h16.10.504,kallum_motion_pilot,2023.2.2,Win32,60.24096386,636688ae3dba27a43013baeb,65d2b6c8f2eece985d8e374c,65d2b9d76c39a6d844a8d030,0.0185,0.0185,1,40,202,72,1,onetwo,,,,,,,,,,,,,,,,,,,,,,,,,,,,,,,,,,,,,,,,,,,,,,,,,,,,,,,,,,,,,,,,,,,,,,,,,,,,,,,,,,,,,,,,,,,,,,,,,,,,,,,,,,,,,,,,,,,,,,,,,,,,,,,,,,,,,,,,,
,,636688ae3dba27a43013baeb,2024-02-19_02h16.10.504,kallum_motion_pilot,2023.2.2,Win32,60.24096386,636688ae3dba27a43013baeb,65d2b6c8f2eece985d8e374c,65d2b9d76c39a6d844a8d030,0.0186,0.0186,1,41,203,73,1,onethree,,,,,,,,,,,,,,,,,,,,,,,,,,,,,,,,,,,,,,,,,,,,,,,,,,,,,,,,,,,,,,,,,,,,,,,,,,,,,,,,,,,,,,,,,,,,,,,,,,,,,,,,,,,,,,,,,,,,,,,,,,,,,,,,,,,,,,,,,
,,636688ae3dba27a43013baeb,2024-02-19_02h16.10.504,kallum_motion_pilot,2023.2.2,Win32,60.24096386,636688ae3dba27a43013baeb,65d2b6c8f2eece985d8e374c,65d2b9d76c39a6d844a8d030,0.0186,0.0186,1,42,204,158,1,eightsix,,,,,,,,,,,,,,,,,,,,,,,,,,,,,,,,,,,,,,,,,,,,,,,,,,,,,,,,,,,,,,,,,,,,,,,,,,,,,,,,,,,,,,,,,,,,,,,,,,,,,,,,,,,,,,,,,,,,,,,,,,,,,,,,,,,,,,,,,
,,636688ae3dba27a43013baeb,2024-02-19_02h16.10.504,kallum_motion_pilot,2023.2.2,Win32,60.24096386,636688ae3dba27a43013baeb,65d2b6c8f2eece985d8e374c,65d2b9d76c39a6d844a8d030,0.0187,0.0187,1,43,205,43,1,twofour,,,,,,,,,,,,,,,,,,,,,,,,,,,,,,,,,,,,,,,,,,,,,,,,,,,,,,,,,,,,,,,,,,,,,,,,,,,,,,,,,,,,,,,,,,,,,,,,,,,,,,,,,,,,,,,,,,,,,,,,,,,,,,,,,,,,,,,,,
,,636688ae3dba27a43013baeb,2024-02-19_02h16.10.504,kallum_motion_pilot,2023.2.2,Win32,60.24096386,636688ae3dba27a43013baeb,65d2b6c8f2eece985d8e374c,65d2b9d76c39a6d844a8d030,0.0187,0.0188,1,44,206,84,1,sevenfive,,,,,,,,,,,,,,,,,,,,,,,,,,,,,,,,,,,,,,,,,,,,,,,,,,,,,,,,,,,,,,,,,,,,,,,,,,,,,,,,,,,,,,,,,,,,,,,,,,,,,,,,,,,,,,,,,,,,,,,,,,,,,,,,,,,,,,,,,
,,636688ae3dba27a43013baeb,2024-02-19_02h16.10.504,kallum_motion_pilot,2023.2.2,Win32,60.24096386,636688ae3dba27a43013baeb,65d2b6c8f2eece985d8e374c,65d2b9d76c39a6d844a8d030,0.0188,0.0188,1,45,207,138,1,sixfive,,,,,,,,,,,,,,,,,,,,,,,,,,,,,,,,,,,,,,,,,,,,,,,,,,,,,,,,,,,,,,,,,,,,,,,,,,,,,,,,,,,,,,,,,,,,,,,,,,,,,,,,,,,,,,,,,,,,,,,,,,,,,,,,,,,,,,,,,
,,636688ae3dba27a43013baeb,2024-02-19_02h16.10.504,kallum_motion_pilot,2023.2.2,Win32,60.24096386,636688ae3dba27a43013baeb,65d2b6c8f2eece985d8e374c,65d2b9d76c39a6d844a8d030,0.0188,0.0188,1,46,208,34,1,twoone,,,,,,,,,,,,,,,,,,,,,,,,,,,,,,,,,,,,,,,,,,,,,,,,,,,,,,,,,,,,,,,,,,,,,,,,,,,,,,,,,,,,,,,,,,,,,,,,,,,,,,,,,,,,,,,,,,,,,,,,,,,,,,,,,,,,,,,,,
,,636688ae3dba27a43013baeb,2024-02-19_02h16.10.504,kallum_motion_pilot,2023.2.2,Win32,60.24096386,636688ae3dba27a43013baeb,65d2b6c8f2eece985d8e374c,65d2b9d76c39a6d844a8d030,0.0189,0.0189,1,47,209,108,1,sevenfive,,,,,,,,,,,,,,,,,,,,,,,,,,,,,,,,,,,,,,,,,,,,,,,,,,,,,,,,,,,,,,,,,,,,,,,,,,,,,,,,,,,,,,,,,,,,,,,,,,,,,,,,,,,,,,,,,,,,,,,,,,,,,,,,,,,,,,,,,
,,636688ae3dba27a43013baeb,2024-02-19_02h16.10.504,kallum_motion_pilot,2023.2.2,Win32,60.24096386,636688ae3dba27a43013baeb,65d2b6c8f2eece985d8e374c,65d2b9d76c39a6d844a8d030,0.0189,0.019,1,48,210,21,1,threefour,,,,,,,,,,,,,,,,,,,,,,,,,,,,,,,,,,,,,,,,,,,,,,,,,,,,,,,,,,,,,,,,,,,,,,,,,,,,,,,,,,,,,,,,,,,,,,,,,,,,,,,,,,,,,,,,,,,,,,,,,,,,,,,,,,,,,,,,,
,,636688ae3dba27a43013baeb,2024-02-19_02h16.10.504,kallum_motion_pilot,2023.2.2,Win32,60.24096386,636688ae3dba27a43013baeb,65d2b6c8f2eece985d8e374c,65d2b9d76c39a6d844a8d030,0.019,0.019,1,49,211,90,1,sixfive,,,,,,,,,,,,,,,,,,,,,,,,,,,,,,,,,,,,,,,,,,,,,,,,,,,,,,,,,,,,,,,,,,,,,,,,,,,,,,,,,,,,,,,,,,,,,,,,,,,,,,,,,,,,,,,,,,,,,,,,,,,,,,,,,,,,,,,,,
,,636688ae3dba27a43013baeb,2024-02-19_02h16.10.504,kallum_motion_pilot,2023.2.2,Win32,60.24096386,636688ae3dba27a43013baeb,65d2b6c8f2eece985d8e374c,65d2b9d76c39a6d844a8d030,0.019,0.019,1,50,212,55,1,fourthree,,,,,,,,,,,,,,,,,,,,,,,,,,,,,,,,,,,,,,,,,,,,,,,,,,,,,,,,,,,,,,,,,,,,,,,,,,,,,,,,,,,,,,,,,,,,,,,,,,,,,,,,,,,,,,,,,,,,,,,,,,,,,,,,,,,,,,,,,
,,636688ae3dba27a43013baeb,2024-02-19_02h16.10.504,kallum_motion_pilot,2023.2.2,Win32,60.24096386,636688ae3dba27a43013baeb,65d2b6c8f2eece985d8e374c,65d2b9d76c39a6d844a8d030,0.0191,0.0191,1,51,213,75,1,twofour,,,,,,,,,,,,,,,,,,,,,,,,,,,,,,,,,,,,,,,,,,,,,,,,,,,,,,,,,,,,,,,,,,,,,,,,,,,,,,,,,,,,,,,,,,,,,,,,,,,,,,,,,,,,,,,,,,,,,,,,,,,,,,,,,,,,,,,,,
,,636688ae3dba27a43013baeb,2024-02-19_02h16.10.504,kallum_motion_pilot,2023.2.2,Win32,60.24096386,636688ae3dba27a43013baeb,65d2b6c8f2eece985d8e374c,65d2b9d76c39a6d844a8d030,0.0191,0.0191,1,52,214,155,1,sixeight,,,,,,,,,,,,,,,,,,,,,,,,,,,,,,,,,,,,,,,,,,,,,,,,,,,,,,,,,,,,,,,,,,,,,,,,,,,,,,,,,,,,,,,,,,,,,,,,,,,,,,,,,,,,,,,,,,,,,,,,,,,,,,,,,,,,,,,,,
,,636688ae3dba27a43013baeb,2024-02-19_02h16.10.504,kallum_motion_pilot,2023.2.2,Win32,60.24096386,636688ae3dba27a43013baeb,65d2b6c8f2eece985d8e374c,65d2b9d76c39a6d844a8d030,0.0191,0.0192,1,53,215,109,1,seveneight,,,,,,,,,,,,,,,,,,,,,,,,,,,,,,,,,,,,,,,,,,,,,,,,,,,,,,,,,,,,,,,,,,,,,,,,,,,,,,,,,,,,,,,,,,,,,,,,,,,,,,,,,,,,,,,,,,,,,,,,,,,,,,,,,,,,,,,,,
,,636688ae3dba27a43013baeb,2024-02-19_02h16.10.504,kallum_motion_pilot,2023.2.2,Win32,60.24096386,636688ae3dba27a43013baeb,65d2b6c8f2eece985d8e374c,65d2b9d76c39a6d844a8d030,0.0192,0.0192,1,54,216,0,1,onetwo,,,,,,,,,,,,,,,,,,,,,,,,,,,,,,,,,,,,,,,,,,,,,,,,,,,,,,,,,,,,,,,,,,,,,,,,,,,,,,,,,,,,,,,,,,,,,,,,,,,,,,,,,,,,,,,,,,,,,,,,,,,,,,,,,,,,,,,,,
,,636688ae3dba27a43013baeb,2024-02-19_02h16.10.504,kallum_motion_pilot,2023.2.2,Win32,60.24096386,636688ae3dba27a43013baeb,65d2b6c8f2eece985d8e374c,65d2b9d76c39a6d844a8d030,0.0192,0.0193,1,55,217,151,1,eightseven,,,,,,,,,,,,,,,,,,,,,,,,,,,,,,,,,,,,,,,,,,,,,,,,,,,,,,,,,,,,,,,,,,,,,,,,,,,,,,,,,,,,,,,,,,,,,,,,,,,,,,,,,,,,,,,,,,,,,,,,,,,,,,,,,,,,,,,,,
,,636688ae3dba27a43013baeb,2024-02-19_02h16.10.504,kallum_motion_pilot,2023.2.2,Win32,60.24096386,636688ae3dba27a43013baeb,65d2b6c8f2eece985d8e374c,65d2b9d76c39a6d844a8d030,0.0193,0.0193,1,56,218,111,1,eightseven,,,,,,,,,,,,,,,,,,,,,,,,,,,,,,,,,,,,,,,,,,,,,,,,,,,,,,,,,,,,,,,,,,,,,,,,,,,,,,,,,,,,,,,,,,,,,,,,,,,,,,,,,,,,,,,,,,,,,,,,,,,,,,,,,,,,,,,,,
,,636688ae3dba27a43013baeb,2024-02-19_02h16.10.504,kallum_motion_pilot,2023.2.2,Win32,60.24096386,636688ae3dba27a43013baeb,65d2b6c8f2eece985d8e374c,65d2b9d76c39a6d844a8d030,0.0194,0.0194,1,57,219,127,1,eightseven,,,,,,,,,,,,,,,,,,,,,,,,,,,,,,,,,,,,,,,,,,,,,,,,,,,,,,,,,,,,,,,,,,,,,,,,,,,,,,,,,,,,,,,,,,,,,,,,,,,,,,,,,,,,,,,,,,,,,,,,,,,,,,,,,,,,,,,,,
,,636688ae3dba27a43013baeb,2024-02-19_02h16.10.504,kallum_motion_pilot,2023.2.2,Win32,60.24096386,636688ae3dba27a43013baeb,65d2b6c8f2eece985d8e374c,65d2b9d76c39a6d844a8d030,0.0194,0.0194,1,58,220,20,1,threeone,,,,,,,,,,,,,,,,,,,,,,,,,,,,,,,,,,,,,,,,,,,,,,,,,,,,,,,,,,,,,,,,,,,,,,,,,,,,,,,,,,,,,,,,,,,,,,,,,,,,,,,,,,,,,,,,,,,,,,,,,,,,,,,,,,,,,,,,,
,,636688ae3dba27a43013baeb,2024-02-19_02h16.10.504,kallum_motion_pilot,2023.2.2,Win32,60.24096386,636688ae3dba27a43013baeb,65d2b6c8f2eece985d8e374c,65d2b9d76c39a6d844a8d030,0.0194,0.0194,1,59,221,124,1,sevenfive,,,,,,,,,,,,,,,,,,,,,,,,,,,,,,,,,,,,,,,,,,,,,,,,,,,,,,,,,,,,,,,,,,,,,,,,,,,,,,,,,,,,,,,,,,,,,,,,,,,,,,,,,,,,,,,,,,,,,,,,,,,,,,,,,,,,,,,,,
,,636688ae3dba27a43013baeb,2024-02-19_02h16.10.504,kallum_motion_pilot,2023.2.2,Win32,60.24096386,636688ae3dba27a43013baeb,65d2b6c8f2eece985d8e374c,65d2b9d76c39a6d844a8d030,0.0195,0.0195,1,60,222,130,1,sixfive,,,,,,,,,,,,,,,,,,,,,,,,,,,,,,,,,,,,,,,,,,,,,,,,,,,,,,,,,,,,,,,,,,,,,,,,,,,,,,,,,,,,,,,,,,,,,,,,,,,,,,,,,,,,,,,,,,,,,,,,,,,,,,,,,,,,,,,,,
,,636688ae3dba27a43013baeb,2024-02-19_02h16.10.504,kallum_motion_pilot,2023.2.2,Win32,60.24096386,636688ae3dba27a43013baeb,65d2b6c8f2eece985d8e374c,65d2b9d76c39a6d844a8d030,0.0195,0.0195,1,61,223,113,1,fiveseven,,,,,,,,,,,,,,,,,,,,,,,,,,,,,,,,,,,,,,,,,,,,,,,,,,,,,,,,,,,,,,,,,,,,,,,,,,,,,,,,,,,,,,,,,,,,,,,,,,,,,,,,,,,,,,,,,,,,,,,,,,,,,,,,,,,,,,,,,
,,636688ae3dba27a43013baeb,2024-02-19_02h16.10.504,kallum_motion_pilot,2023.2.2,Win32,60.24096386,636688ae3dba27a43013baeb,65d2b6c8f2eece985d8e374c,65d2b9d76c39a6d844a8d030,0.0195,0.0196,1,62,224,86,1,eightsix,,,,,,,,,,,,,,,,,,,,,,,,,,,,,,,,,,,,,,,,,,,,,,,,,,,,,,,,,,,,,,,,,,,,,,,,,,,,,,,,,,,,,,,,,,,,,,,,,,,,,,,,,,,,,,,,,,,,,,,,,,,,,,,,,,,,,,,,,
,,636688ae3dba27a43013baeb,2024-02-19_02h16.10.504,kallum_motion_pilot,2023.2.2,Win32,60.24096386,636688ae3dba27a43013baeb,65d2b6c8f2eece985d8e374c,65d2b9d76c39a6d844a8d030,0.0196,0.0196,1,63,225,49,1,onethree,,,,,,,,,,,,,,,,,,,,,,,,,,,,,,,,,,,,,,,,,,,,,,,,,,,,,,,,,,,,,,,,,,,,,,,,,,,,,,,,,,,,,,,,,,,,,,,,,,,,,,,,,,,,,,,,,,,,,,,,,,,,,,,,,,,,,,,,,
,,636688ae3dba27a43013baeb,2024-02-19_02h16.10.504,kallum_motion_pilot,2023.2.2,Win32,60.24096386,636688ae3dba27a43013baeb,65d2b6c8f2eece985d8e374c,65d2b9d76c39a6d844a8d030,0.0196,0.0197,1,64,226,77,1,threefour,,,,,,,,,,,,,,,,,,,,,,,,,,,,,,,,,,,,,,,,,,,,,,,,,,,,,,,,,,,,,,,,,,,,,,,,,,,,,,,,,,,,,,,,,,,,,,,,,,,,,,,,,,,,,,,,,,,,,,,,,,,,,,,,,,,,,,,,,
,,636688ae3dba27a43013baeb,2024-02-19_02h16.10.504,kallum_motion_pilot,2023.2.2,Win32,60.24096386,636688ae3dba27a43013baeb,65d2b6c8f2eece985d8e374c,65d2b9d76c39a6d844a8d030,0.0197,0.0197,1,65,227,9,1,onethree,,,,,,,,,,,,,,,,,,,,,,,,,,,,,,,,,,,,,,,,,,,,,,,,,,,,,,,,,,,,,,,,,,,,,,,,,,,,,,,,,,,,,,,,,,,,,,,,,,,,,,,,,,,,,,,,,,,,,,,,,,,,,,,,,,,,,,,,,
,,636688ae3dba27a43013baeb,2024-02-19_02h16.10.504,kallum_motion_pilot,2023.2.2,Win32,60.24096386,636688ae3dba27a43013baeb,65d2b6c8f2eece985d8e374c,65d2b9d76c39a6d844a8d030,0.0198,0.0198,1,66,228,128,1,fivesix,,,,,,,,,,,,,,,,,,,,,,,,,,,,,,,,,,,,,,,,,,,,,,,,,,,,,,,,,,,,,,,,,,,,,,,,,,,,,,,,,,,,,,,,,,,,,,,,,,,,,,,,,,,,,,,,,,,,,,,,,,,,,,,,,,,,,,,,,
,,636688ae3dba27a43013baeb,2024-02-19_02h16.10.504,kallum_motion_pilot,2023.2.2,Win32,60.24096386,636688ae3dba27a43013baeb,65d2b6c8f2eece985d8e374c,65d2b9d76c39a6d844a8d030,0.0198,0.0198,1,67,229,148,1,sevenfive,,,,,,,,,,,,,,,,,,,,,,,,,,,,,,,,,,,,,,,,,,,,,,,,,,,,,,,,,,,,,,,,,,,,,,,,,,,,,,,,,,,,,,,,,,,,,,,,,,,,,,,,,,,,,,,,,,,,,,,,,,,,,,,,,,,,,,,,,
,,636688ae3dba27a43013baeb,2024-02-19_02h16.10.504,kallum_motion_pilot,2023.2.2,Win32,60.24096386,636688ae3dba27a43013baeb,65d2b6c8f2eece985d8e374c,65d2b9d76c39a6d844a8d030,0.0198,0.0199,1,68,230,37,1,threefour,,,,,,,,,,,,,,,,,,,,,,,,,,,,,,,,,,,,,,,,,,,,,,,,,,,,,,,,,,,,,,,,,,,,,,,,,,,,,,,,,,,,,,,,,,,,,,,,,,,,,,,,,,,,,,,,,,,,,,,,,,,,,,,,,,,,,,,,,
,,636688ae3dba27a43013baeb,2024-02-19_02h16.10.504,kallum_motion_pilot,2023.2.2,Win32,60.24096386,636688ae3dba27a43013baeb,65d2b6c8f2eece985d8e374c,65d2b9d76c39a6d844a8d030,0.02,0.02,1,69,231,136,1,fivesix,,,,,,,,,,,,,,,,,,,,,,,,,,,,,,,,,,,,,,,,,,,,,,,,,,,,,,,,,,,,,,,,,,,,,,,,,,,,,,,,,,,,,,,,,,,,,,,,,,,,,,,,,,,,,,,,,,,,,,,,,,,,,,,,,,,,,,,,,
,,636688ae3dba27a43013baeb,2024-02-19_02h16.10.504,kallum_motion_pilot,2023.2.2,Win32,60.24096386,636688ae3dba27a43013baeb,65d2b6c8f2eece985d8e374c,65d2b9d76c39a6d844a8d030,0.02,0.02,1,70,232,4,1,threeone,,,,,,,,,,,,,,,,,,,,,,,,,,,,,,,,,,,,,,,,,,,,,,,,,,,,,,,,,,,,,,,,,,,,,,,,,,,,,,,,,,,,,,,,,,,,,,,,,,,,,,,,,,,,,,,,,,,,,,,,,,,,,,,,,,,,,,,,,
,,636688ae3dba27a43013baeb,2024-02-19_02h16.10.504,kallum_motion_pilot,2023.2.2,Win32,60.24096386,636688ae3dba27a43013baeb,65d2b6c8f2eece985d8e374c,65d2b9d76c39a6d844a8d030,0.02,0.0201,1,71,233,106,1,sixfive,,,,,,,,,,,,,,,,,,,,,,,,,,,,,,,,,,,,,,,,,,,,,,,,,,,,,,,,,,,,,,,,,,,,,,,,,,,,,,,,,,,,,,,,,,,,,,,,,,,,,,,,,,,,,,,,,,,,,,,,,,,,,,,,,,,,,,,,,
,,636688ae3dba27a43013baeb,2024-02-19_02h16.10.504,kallum_motion_pilot,2023.2.2,Win32,60.24096386,636688ae3dba27a43013baeb,65d2b6c8f2eece985d8e374c,65d2b9d76c39a6d844a8d030,0.0201,0.0201,1,72,234,26,1,twoone,,,,,,,,,,,,,,,,,,,,,,,,,,,,,,,,,,,,,,,,,,,,,,,,,,,,,,,,,,,,,,,,,,,,,,,,,,,,,,,,,,,,,,,,,,,,,,,,,,,,,,,,,,,,,,,,,,,,,,,,,,,,,,,,,,,,,,,,,
,,636688ae3dba27a43013baeb,2024-02-19_02h16.10.504,kallum_motion_pilot,2023.2.2,Win32,60.24096386,636688ae3dba27a43013baeb,65d2b6c8f2eece985d8e374c,65d2b9d76c39a6d844a8d030,0.0201,0.0201,1,73,235,150,1,eightsix,,,,,,,,,,,,,,,,,,,,,,,,,,,,,,,,,,,,,,,,,,,,,,,,,,,,,,,,,,,,,,,,,,,,,,,,,,,,,,,,,,,,,,,,,,,,,,,,,,,,,,,,,,,,,,,,,,,,,,,,,,,,,,,,,,,,,,,,,
,,636688ae3dba27a43013baeb,2024-02-19_02h16.10.504,kallum_motion_pilot,2023.2.2,Win32,60.24096386,636688ae3dba27a43013baeb,65d2b6c8f2eece985d8e374c,65d2b9d76c39a6d844a8d030,0.0201,0.0202,1,74,236,45,1,threefour,,,,,,,,,,,,,,,,,,,,,,,,,,,,,,,,,,,,,,,,,,,,,,,,,,,,,,,,,,,,,,,,,,,,,,,,,,,,,,,,,,,,,,,,,,,,,,,,,,,,,,,,,,,,,,,,,,,,,,,,,,,,,,,,,,,,,,,,,
,,636688ae3dba27a43013baeb,2024-02-19_02h16.10.504,kallum_motion_pilot,2023.2.2,Win32,60.24096386,636688ae3dba27a43013baeb,65d2b6c8f2eece985d8e374c,65d2b9d76c39a6d844a8d030,0.0202,0.0202,1,75,237,30,1,fourtwo,,,,,,,,,,,,,,,,,,,,,,,,,,,,,,,,,,,,,,,,,,,,,,,,,,,,,,,,,,,,,,,,,,,,,,,,,,,,,,,,,,,,,,,,,,,,,,,,,,,,,,,,,,,,,,,,,,,,,,,,,,,,,,,,,,,,,,,,,
,,636688ae3dba27a43013baeb,2024-02-19_02h16.10.504,kallum_motion_pilot,2023.2.2,Win32,60.24096386,636688ae3dba27a43013baeb,65d2b6c8f2eece985d8e374c,65d2b9d76c39a6d844a8d030,0.0202,0.0202,1,76,238,7,1,fourthree,,,,,,,,,,,,,,,,,,,,,,,,,,,,,,,,,,,,,,,,,,,,,,,,,,,,,,,,,,,,,,,,,,,,,,,,,,,,,,,,,,,,,,,,,,,,,,,,,,,,,,,,,,,,,,,,,,,,,,,,,,,,,,,,,,,,,,,,,
,,636688ae3dba27a43013baeb,2024-02-19_02h16.10.504,kallum_motion_pilot,2023.2.2,Win32,60.24096386,636688ae3dba27a43013baeb,65d2b6c8f2eece985d8e374c,65d2b9d76c39a6d844a8d030,0.0203,0.0203,1,77,239,132,1,sevenfive,,,,,,,,,,,,,,,,,,,,,,,,,,,,,,,,,,,,,,,,,,,,,,,,,,,,,,,,,,,,,,,,,,,,,,,,,,,,,,,,,,,,,,,,,,,,,,,,,,,,,,,,,,,,,,,,,,,,,,,,,,,,,,,,,,,,,,,,,
,,636688ae3dba27a43013baeb,2024-02-19_02h16.10.504,kallum_motion_pilot,2023.2.2,Win32,60.24096386,636688ae3dba27a43013baeb,65d2b6c8f2eece985d8e374c,65d2b9d76c39a6d844a8d030,0.0203,0.0203,1,78,240,5,1,threefour,,,,,,,,,,,,,,,,,,,,,,,,,,,,,,,,,,,,,,,,,,,,,,,,,,,,,,,,,,,,,,,,,,,,,,,,,,,,,,,,,,,,,,,,,,,,,,,,,,,,,,,,,,,,,,,,,,,,,,,,,,,,,,,,,,,,,,,,,
,,636688ae3dba27a43013baeb,2024-02-19_02h16.10.504,kallum_motion_pilot,2023.2.2,Win32,60.24096386,636688ae3dba27a43013baeb,65d2b6c8f2eece985d8e374c,65d2b9d76c39a6d844a8d030,0.0204,0.0204,1,79,241,53,1,threefour,,,,,,,,,,,,,,,,,,,,,,,,,,,,,,,,,,,,,,,,,,,,,,,,,,,,,,,,,,,,,,,,,,,,,,,,,,,,,,,,,,,,,,,,,,,,,,,,,,,,,,,,,,,,,,,,,,,,,,,,,,,,,,,,,,,,,,,,,
,,636688ae3dba27a43013baeb,2024-02-19_02h16.10.504,kallum_motion_pilot,2023.2.2,Win32,60.24096386,636688ae3dba27a43013baeb,65d2b6c8f2eece985d8e374c,65d2b9d76c39a6d844a8d030,0.0205,0.0205,1,80,242,71,1,fourthree,,,,,,,,,,,,,,,,,,,,,,,,,,,,,,,,,,,,,,,,,,,,,,,,,,,,,,,,,,,,,,,,,,,,,,,,,,,,,,,,,,,,,,,,,,,,,,,,,,,,,,,,,,,,,,,,,,,,,,,,,,,,,,,,,,,,,,,,,
,,636688ae3dba27a43013baeb,2024-02-19_02h16.10.504,kallum_motion_pilot,2023.2.2,Win32,60.24096386,636688ae3dba27a43013baeb,65d2b6c8f2eece985d8e374c,65d2b9d76c39a6d844a8d030,0.0205,0.0205,1,81,243,101,1,seveneight,,,,,,,,,,,,,,,,,,,,,,,,,,,,,,,,,,,,,,,,,,,,,,,,,,,,,,,,,,,,,,,,,,,,,,,,,,,,,,,,,,,,,,,,,,,,,,,,,,,,,,,,,,,,,,,,,,,,,,,,,,,,,,,,,,,,,,,,,
,,636688ae3dba27a43013baeb,2024-02-19_02h16.10.504,kallum_motion_pilot,2023.2.2,Win32,60.24096386,636688ae3dba27a43013baeb,65d2b6c8f2eece985d8e374c,65d2b9d76c39a6d844a8d030,0.0205,0.0206,1,82,244,64,1,onetwo,,,,,,,,,,,,,,,,,,,,,,,,,,,,,,,,,,,,,,,,,,,,,,,,,,,,,,,,,,,,,,,,,,,,,,,,,,,,,,,,,,,,,,,,,,,,,,,,,,,,,,,,,,,,,,,,,,,,,,,,,,,,,,,,,,,,,,,,,
,,636688ae3dba27a43013baeb,2024-02-19_02h16.10.504,kallum_motion_pilot,2023.2.2,Win32,60.24096386,636688ae3dba27a43013baeb,65d2b6c8f2eece985d8e374c,65d2b9d76c39a6d844a8d030,0.0206,0.0206,1,83,245,110,1,eightsix,,,,,,,,,,,,,,,,,,,,,,,,,,,,,,,,,,,,,,,,,,,,,,,,,,,,,,,,,,,,,,,,,,,,,,,,,,,,,,,,,,,,,,,,,,,,,,,,,,,,,,,,,,,,,,,,,,,,,,,,,,,,,,,,,,,,,,,,,
,,636688ae3dba27a43013baeb,2024-02-19_02h16.10.504,kallum_motion_pilot,2023.2.2,Win32,60.24096386,636688ae3dba27a43013baeb,65d2b6c8f2eece985d8e374c,65d2b9d76c39a6d844a8d030,0.0206,0.0207,1,84,246,16,1,onetwo,,,,,,,,,,,,,,,,,,,,,,,,,,,,,,,,,,,,,,,,,,,,,,,,,,,,,,,,,,,,,,,,,,,,,,,,,,,,,,,,,,,,,,,,,,,,,,,,,,,,,,,,,,,,,,,,,,,,,,,,,,,,,,,,,,,,,,,,,
,,636688ae3dba27a43013baeb,2024-02-19_02h16.10.504,kallum_motion_pilot,2023.2.2,Win32,60.24096386,636688ae3dba27a43013baeb,65d2b6c8f2eece985d8e374c,65d2b9d76c39a6d844a8d030,0.0207,0.0208,1,85,247,14,1,fourtwo,,,,,,,,,,,,,,,,,,,,,,,,,,,,,,,,,,,,,,,,,,,,,,,,,,,,,,,,,,,,,,,,,,,,,,,,,,,,,,,,,,,,,,,,,,,,,,,,,,,,,,,,,,,,,,,,,,,,,,,,,,,,,,,,,,,,,,,,,
,,636688ae3dba27a43013baeb,2024-02-19_02h16.10.504,kallum_motion_pilot,2023.2.2,Win32,60.24096386,636688ae3dba27a43013baeb,65d2b6c8f2eece985d8e374c,65d2b9d76c39a6d844a8d030,0.0208,0.0208,1,86,248,13,1,threefour,,,,,,,,,,,,,,,,,,,,,,,,,,,,,,,,,,,,,,,,,,,,,,,,,,,,,,,,,,,,,,,,,,,,,,,,,,,,,,,,,,,,,,,,,,,,,,,,,,,,,,,,,,,,,,,,,,,,,,,,,,,,,,,,,,,,,,,,,
,,636688ae3dba27a43013baeb,2024-02-19_02h16.10.504,kallum_motion_pilot,2023.2.2,Win32,60.24096386,636688ae3dba27a43013baeb,65d2b6c8f2eece985d8e374c,65d2b9d76c39a6d844a8d030,0.0208,0.0208,1,87,249,97,1,fiveseven,,,,,,,,,,,,,,,,,,,,,,,,,,,,,,,,,,,,,,,,,,,,,,,,,,,,,,,,,,,,,,,,,,,,,,,,,,,,,,,,,,,,,,,,,,,,,,,,,,,,,,,,,,,,,,,,,,,,,,,,,,,,,,,,,,,,,,,,,
,,636688ae3dba27a43013baeb,2024-02-19_02h16.10.504,kallum_motion_pilot,2023.2.2,Win32,60.24096386,636688ae3dba27a43013baeb,65d2b6c8f2eece985d8e374c,65d2b9d76c39a6d844a8d030,0.0208,0.0208,1,88,250,63,1,fourthree,,,,,,,,,,,,,,,,,,,,,,,,,,,,,,,,,,,,,,,,,,,,,,,,,,,,,,,,,,,,,,,,,,,,,,,,,,,,,,,,,,,,,,,,,,,,,,,,,,,,,,,,,,,,,,,,,,,,,,,,,,,,,,,,,,,,,,,,,
,,636688ae3dba27a43013baeb,2024-02-19_02h16.10.504,kallum_motion_pilot,2023.2.2,Win32,60.24096386,636688ae3dba27a43013baeb,65d2b6c8f2eece985d8e374c,65d2b9d76c39a6d844a8d030,0.0208,0.0209,1,89,251,10,1,twoone,,,,,,,,,,,,,,,,,,,,,,,,,,,,,,,,,,,,,,,,,,,,,,,,,,,,,,,,,,,,,,,,,,,,,,,,,,,,,,,,,,,,,,,,,,,,,,,,,,,,,,,,,,,,,,,,,,,,,,,,,,,,,,,,,,,,,,,,,
,,636688ae3dba27a43013baeb,2024-02-19_02h16.10.504,kallum_motion_pilot,2023.2.2,Win32,60.24096386,636688ae3dba27a43013baeb,65d2b6c8f2eece985d8e374c,65d2b9d76c39a6d844a8d030,0.021,0.021,1,90,252,78,1,fourtwo,,,,,,,,,,,,,,,,,,,,,,,,,,,,,,,,,,,,,,,,,,,,,,,,,,,,,,,,,,,,,,,,,,,,,,,,,,,,,,,,,,,,,,,,,,,,,,,,,,,,,,,,,,,,,,,,,,,,,,,,,,,,,,,,,,,,,,,,,
,,636688ae3dba27a43013baeb,2024-02-19_02h16.10.504,kallum_motion_pilot,2023.2.2,Win32,60.24096386,636688ae3dba27a43013baeb,65d2b6c8f2eece985d8e374c,65d2b9d76c39a6d844a8d030,0.021,0.0211,1,91,253,44,1,threeone,,,,,,,,,,,,,,,,,,,,,,,,,,,,,,,,,,,,,,,,,,,,,,,,,,,,,,,,,,,,,,,,,,,,,,,,,,,,,,,,,,,,,,,,,,,,,,,,,,,,,,,,,,,,,,,,,,,,,,,,,,,,,,,,,,,,,,,,,
,,636688ae3dba27a43013baeb,2024-02-19_02h16.10.504,kallum_motion_pilot,2023.2.2,Win32,60.24096386,636688ae3dba27a43013baeb,65d2b6c8f2eece985d8e374c,65d2b9d76c39a6d844a8d030,0.0211,0.0211,1,92,254,28,1,threeone,,,,,,,,,,,,,,,,,,,,,,,,,,,,,,,,,,,,,,,,,,,,,,,,,,,,,,,,,,,,,,,,,,,,,,,,,,,,,,,,,,,,,,,,,,,,,,,,,,,,,,,,,,,,,,,,,,,,,,,,,,,,,,,,,,,,,,,,,
,,636688ae3dba27a43013baeb,2024-02-19_02h16.10.504,kallum_motion_pilot,2023.2.2,Win32,60.24096386,636688ae3dba27a43013baeb,65d2b6c8f2eece985d8e374c,65d2b9d76c39a6d844a8d030,0.0211,0.0211,1,93,255,102,1,eightsix,,,,,,,,,,,,,,,,,,,,,,,,,,,,,,,,,,,,,,,,,,,,,,,,,,,,,,,,,,,,,,,,,,,,,,,,,,,,,,,,,,,,,,,,,,,,,,,,,,,,,,,,,,,,,,,,,,,,,,,,,,,,,,,,,,,,,,,,,
,,636688ae3dba27a43013baeb,2024-02-19_02h16.10.504,kallum_motion_pilot,2023.2.2,Win32,60.24096386,636688ae3dba27a43013baeb,65d2b6c8f2eece985d8e374c,65d2b9d76c39a6d844a8d030,0.0211,0.0212,1,94,256,23,1,fourthree,,,,,,,,,,,,,,,,,,,,,,,,,,,,,,,,,,,,,,,,,,,,,,,,,,,,,,,,,,,,,,,,,,,,,,,,,,,,,,,,,,,,,,,,,,,,,,,,,,,,,,,,,,,,,,,,,,,,,,,,,,,,,,,,,,,,,,,,,
,,636688ae3dba27a43013baeb,2024-02-19_02h16.10.504,kallum_motion_pilot,2023.2.2,Win32,60.24096386,636688ae3dba27a43013baeb,65d2b6c8f2eece985d8e374c,65d2b9d76c39a6d844a8d030,0.0212,0.0212,1,95,257,156,1,sevenfive,,,,,,,,,,,,,,,,,,,,,,,,,,,,,,,,,,,,,,,,,,,,,,,,,,,,,,,,,,,,,,,,,,,,,,,,,,,,,,,,,,,,,,,,,,,,,,,,,,,,,,,,,,,,,,,,,,,,,,,,,,,,,,,,,,,,,,,,,
,,636688ae3dba27a43013baeb,2024-02-19_02h16.10.504,kallum_motion_pilot,2023.2.2,Win32,60.24096386,636688ae3dba27a43013baeb,65d2b6c8f2eece985d8e374c,65d2b9d76c39a6d844a8d030,0.0213,0.0213,1,96,258,161,1,fiveseven,,,,,,,,,,,,,,,,,,,,,,,,,,,,,,,,,,,,,,,,,,,,,,,,,,,,,,,,,,,,,,,,,,,,,,,,,,,,,,,,,,,,,,,,,,,,,,,,,,,,,,,,,,,,,,,,,,,,,,,,,,,,,,,,,,,,,,,,,
,,636688ae3dba27a43013baeb,2024-02-19_02h16.10.504,kallum_motion_pilot,2023.2.2,Win32,60.24096386,636688ae3dba27a43013baeb,65d2b6c8f2eece985d8e374c,65d2b9d76c39a6d844a8d030,0.0213,0.0213,1,97,259,38,1,fourtwo,,,,,,,,,,,,,,,,,,,,,,,,,,,,,,,,,,,,,,,,,,,,,,,,,,,,,,,,,,,,,,,,,,,,,,,,,,,,,,,,,,,,,,,,,,,,,,,,,,,,,,,,,,,,,,,,,,,,,,,,,,,,,,,,,,,,,,,,,
,,636688ae3dba27a43013baeb,2024-02-19_02h16.10.504,kallum_motion_pilot,2023.2.2,Win32,60.24096386,636688ae3dba27a43013baeb,65d2b6c8f2eece985d8e374c,65d2b9d76c39a6d844a8d030,0.0214,0.0214,1,98,260,116,1,sevenfive,,,,,,,,,,,,,,,,,,,,,,,,,,,,,,,,,,,,,,,,,,,,,,,,,,,,,,,,,,,,,,,,,,,,,,,,,,,,,,,,,,,,,,,,,,,,,,,,,,,,,,,,,,,,,,,,,,,,,,,,,,,,,,,,,,,,,,,,,
,,636688ae3dba27a43013baeb,2024-02-19_02h16.10.504,kallum_motion_pilot,2023.2.2,Win32,60.24096386,636688ae3dba27a43013baeb,65d2b6c8f2eece985d8e374c,65d2b9d76c39a6d844a8d030,0.0214,0.0214,1,99,261,117,1,seveneight,,,,,,,,,,,,,,,,,,,,,,,,,,,,,,,,,,,,,,,,,,,,,,,,,,,,,,,,,,,,,,,,,,,,,,,,,,,,,,,,,,,,,,,,,,,,,,,,,,,,,,,,,,,,,,,,,,,,,,,,,,,,,,,,,,,,,,,,,
,,636688ae3dba27a43013baeb,2024-02-19_02h16.10.504,kallum_motion_pilot,2023.2.2,Win32,60.24096386,636688ae3dba27a43013baeb,65d2b6c8f2eece985d8e374c,65d2b9d76c39a6d844a8d030,0.0214,0.0215,1,100,262,95,1,eightseven,,,,,,,,,,,,,,,,,,,,,,,,,,,,,,,,,,,,,,,,,,,,,,,,,,,,,,,,,,,,,,,,,,,,,,,,,,,,,,,,,,,,,,,,,,,,,,,,,,,,,,,,,,,,,,,,,,,,,,,,,,,,,,,,,,,,,,,,,
,,636688ae3dba27a43013baeb,2024-02-19_02h16.10.504,kallum_motion_pilot,2023.2.2,Win32,60.24096386,636688ae3dba27a43013baeb,65d2b6c8f2eece985d8e374c,65d2b9d76c39a6d844a8d030,0.0215,0.0216,1,101,263,31,1,fourthree,,,,,,,,,,,,,,,,,,,,,,,,,,,,,,,,,,,,,,,,,,,,,,,,,,,,,,,,,,,,,,,,,,,,,,,,,,,,,,,,,,,,,,,,,,,,,,,,,,,,,,,,,,,,,,,,,,,,,,,,,,,,,,,,,,,,,,,,,
,,636688ae3dba27a43013baeb,2024-02-19_02h16.10.504,kallum_motion_pilot,2023.2.2,Win32,60.24096386,636688ae3dba27a43013baeb,65d2b6c8f2eece985d8e374c,65d2b9d76c39a6d844a8d030,0.0216,0.0216,1,102,264,122,1,sixfive,,,,,,,,,,,,,,,,,,,,,,,,,,,,,,,,,,,,,,,,,,,,,,,,,,,,,,,,,,,,,,,,,,,,,,,,,,,,,,,,,,,,,,,,,,,,,,,,,,,,,,,,,,,,,,,,,,,,,,,,,,,,,,,,,,,,,,,,,
,,636688ae3dba27a43013baeb,2024-02-19_02h16.10.504,kallum_motion_pilot,2023.2.2,Win32,60.24096386,636688ae3dba27a43013baeb,65d2b6c8f2eece985d8e374c,65d2b9d76c39a6d844a8d030,0.0217,0.0217,1,103,265,32,1,onetwo,,,,,,,,,,,,,,,,,,,,,,,,,,,,,,,,,,,,,,,,,,,,,,,,,,,,,,,,,,,,,,,,,,,,,,,,,,,,,,,,,,,,,,,,,,,,,,,,,,,,,,,,,,,,,,,,,,,,,,,,,,,,,,,,,,,,,,,,,
,,636688ae3dba27a43013baeb,2024-02-19_02h16.10.504,kallum_motion_pilot,2023.2.2,Win32,60.24096386,636688ae3dba27a43013baeb,65d2b6c8f2eece985d8e374c,65d2b9d76c39a6d844a8d030,0.0217,0.0217,1,104,266,140,1,sevenfive,,,,,,,,,,,,,,,,,,,,,,,,,,,,,,,,,,,,,,,,,,,,,,,,,,,,,,,,,,,,,,,,,,,,,,,,,,,,,,,,,,,,,,,,,,,,,,,,,,,,,,,,,,,,,,,,,,,,,,,,,,,,,,,,,,,,,,,,,
,,636688ae3dba27a43013baeb,2024-02-19_02h16.10.504,kallum_motion_pilot,2023.2.2,Win32,60.24096386,636688ae3dba27a43013baeb,65d2b6c8f2eece985d8e374c,65d2b9d76c39a6d844a8d030,0.0217,0.0218,1,105,267,39,1,fourthree,,,,,,,,,,,,,,,,,,,,,,,,,,,,,,,,,,,,,,,,,,,,,,,,,,,,,,,,,,,,,,,,,,,,,,,,,,,,,,,,,,,,,,,,,,,,,,,,,,,,,,,,,,,,,,,,,,,,,,,,,,,,,,,,,,,,,,,,,
,,636688ae3dba27a43013baeb,2024-02-19_02h16.10.504,kallum_motion_pilot,2023.2.2,Win32,60.24096386,636688ae3dba27a43013baeb,65d2b6c8f2eece985d8e374c,65d2b9d76c39a6d844a8d030,0.0218,0.0218,1,106,268,52,1,threeone,,,,,,,,,,,,,,,,,,,,,,,,,,,,,,,,,,,,,,,,,,,,,,,,,,,,,,,,,,,,,,,,,,,,,,,,,,,,,,,,,,,,,,,,,,,,,,,,,,,,,,,,,,,,,,,,,,,,,,,,,,,,,,,,,,,,,,,,,
,,636688ae3dba27a43013baeb,2024-02-19_02h16.10.504,kallum_motion_pilot,2023.2.2,Win32,60.24096386,636688ae3dba27a43013baeb,65d2b6c8f2eece985d8e374c,65d2b9d76c39a6d844a8d030,0.0219,0.0219,1,107,269,12,1,threeone,,,,,,,,,,,,,,,,,,,,,,,,,,,,,,,,,,,,,,,,,,,,,,,,,,,,,,,,,,,,,,,,,,,,,,,,,,,,,,,,,,,,,,,,,,,,,,,,,,,,,,,,,,,,,,,,,,,,,,,,,,,,,,,,,,,,,,,,,
,,636688ae3dba27a43013baeb,2024-02-19_02h16.10.504,kallum_motion_pilot,2023.2.2,Win32,60.24096386,636688ae3dba27a43013baeb,65d2b6c8f2eece985d8e374c,65d2b9d76c39a6d844a8d030,0.0219,0.0219,1,108,270,40,1,onetwo,,,,,,,,,,,,,,,,,,,,,,,,,,,,,,,,,,,,,,,,,,,,,,,,,,,,,,,,,,,,,,,,,,,,,,,,,,,,,,,,,,,,,,,,,,,,,,,,,,,,,,,,,,,,,,,,,,,,,,,,,,,,,,,,,,,,,,,,,
,,636688ae3dba27a43013baeb,2024-02-19_02h16.10.504,kallum_motion_pilot,2023.2.2,Win32,60.24096386,636688ae3dba27a43013baeb,65d2b6c8f2eece985d8e374c,65d2b9d76c39a6d844a8d030,0.0219,0.0221,1,109,271,112,1,fivesix,,,,,,,,,,,,,,,,,,,,,,,,,,,,,,,,,,,,,,,,,,,,,,,,,,,,,,,,,,,,,,,,,,,,,,,,,,,,,,,,,,,,,,,,,,,,,,,,,,,,,,,,,,,,,,,,,,,,,,,,,,,,,,,,,,,,,,,,,
,,636688ae3dba27a43013baeb,2024-02-19_02h16.10.504,kallum_motion_pilot,2023.2.2,Win32,60.24096386,636688ae3dba27a43013baeb,65d2b6c8f2eece985d8e374c,65d2b9d76c39a6d844a8d030,0.0221,0.0221,1,110,272,120,1,fivesix,,,,,,,,,,,,,,,,,,,,,,,,,,,,,,,,,,,,,,,,,,,,,,,,,,,,,,,,,,,,,,,,,,,,,,,,,,,,,,,,,,,,,,,,,,,,,,,,,,,,,,,,,,,,,,,,,,,,,,,,,,,,,,,,,,,,,,,,,
,,636688ae3dba27a43013baeb,2024-02-19_02h16.10.504,kallum_motion_pilot,2023.2.2,Win32,60.24096386,636688ae3dba27a43013baeb,65d2b6c8f2eece985d8e374c,65d2b9d76c39a6d844a8d030,0.0221,0.0221,1,111,273,68,1,threeone,,,,,,,,,,,,,,,,,,,,,,,,,,,,,,,,,,,,,,,,,,,,,,,,,,,,,,,,,,,,,,,,,,,,,,,,,,,,,,,,,,,,,,,,,,,,,,,,,,,,,,,,,,,,,,,,,,,,,,,,,,,,,,,,,,,,,,,,,
,,636688ae3dba27a43013baeb,2024-02-19_02h16.10.504,kallum_motion_pilot,2023.2.2,Win32,60.24096386,636688ae3dba27a43013baeb,65d2b6c8f2eece985d8e374c,65d2b9d76c39a6d844a8d030,0.0222,0.0222,1,112,274,159,1,eightseven,,,,,,,,,,,,,,,,,,,,,,,,,,,,,,,,,,,,,,,,,,,,,,,,,,,,,,,,,,,,,,,,,,,,,,,,,,,,,,,,,,,,,,,,,,,,,,,,,,,,,,,,,,,,,,,,,,,,,,,,,,,,,,,,,,,,,,,,,
,,636688ae3dba27a43013baeb,2024-02-19_02h16.10.504,kallum_motion_pilot,2023.2.2,Win32,60.24096386,636688ae3dba27a43013baeb,65d2b6c8f2eece985d8e374c,65d2b9d76c39a6d844a8d030,0.0222,0.0222,1,113,275,118,1,eightsix,,,,,,,,,,,,,,,,,,,,,,,,,,,,,,,,,,,,,,,,,,,,,,,,,,,,,,,,,,,,,,,,,,,,,,,,,,,,,,,,,,,,,,,,,,,,,,,,,,,,,,,,,,,,,,,,,,,,,,,,,,,,,,,,,,,,,,,,,
,,636688ae3dba27a43013baeb,2024-02-19_02h16.10.504,kallum_motion_pilot,2023.2.2,Win32,60.24096386,636688ae3dba27a43013baeb,65d2b6c8f2eece985d8e374c,65d2b9d76c39a6d844a8d030,0.0223,0.0223,1,114,276,15,1,fourthree,,,,,,,,,,,,,,,,,,,,,,,,,,,,,,,,,,,,,,,,,,,,,,,,,,,,,,,,,,,,,,,,,,,,,,,,,,,,,,,,,,,,,,,,,,,,,,,,,,,,,,,,,,,,,,,,,,,,,,,,,,,,,,,,,,,,,,,,,
,,636688ae3dba27a43013baeb,2024-02-19_02h16.10.504,kallum_motion_pilot,2023.2.2,Win32,60.24096386,636688ae3dba27a43013baeb,65d2b6c8f2eece985d8e374c,65d2b9d76c39a6d844a8d030,0.0223,0.0223,1,115,277,129,1,fiveseven,,,,,,,,,,,,,,,,,,,,,,,,,,,,,,,,,,,,,,,,,,,,,,,,,,,,,,,,,,,,,,,,,,,,,,,,,,,,,,,,,,,,,,,,,,,,,,,,,,,,,,,,,,,,,,,,,,,,,,,,,,,,,,,,,,,,,,,,,
