startup.started,startup.stopped,Prolific ID*,date,expName,psychopyVersion,OS,frameRate,participant,study_id,session,stimpositions.started,stimpositions.stopped,hardcoded_stimulus_positions.thisRepN,hardcoded_stimulus_positions.thisTrialN,hardcoded_stimulus_positions.thisN,hardcoded_stimulus_positions.thisIndex,hardcoded_stimulus_positions.ran,StimulusPos,stimorientation.started,stimorientation.stopped,prac_stimorientation_import_loop.thisRepN,prac_stimorientation_import_loop.thisTrialN,prac_stimorientation_import_loop.thisN,prac_stimorientation_import_loop.thisIndex,prac_stimorientation_import_loop.ran,Stimorientation,welcome_instr.started,welcome_instr.stopped,key_resp.keys,key_resp.rt,key_resp.duration,response_steppedout_1.started,response_steppedout_1.stopped,key_resp_20.keys,key_resp_20.rt,key_resp_20.duration,response_steppedout_2.started,response_steppedout_2.stopped,key_resp_19.keys,key_resp_19.rt,key_resp_19.duration,stim_response_instr.started,stim_response_instr.stopped,key_resp_15.keys,key_resp_15.rt,key_resp_15.duration,direction_instr_2.started,direction_instr_2.stopped,key_resp_9.keys,key_resp_9.rt,key_resp_9.duration,instr_prac.started,instr_prac.stopped,key_resp_10.keys,key_resp_10.rt,key_resp_10.duration,Stim1_display_prac.started,Stim1_display_prac.stopped,Ecc,Circle1_ori,Circle2_ori,response_prac.started,similarity,response_time,response_prac.stopped,mouse_5.x,mouse_5.y,mouse_5.leftButton,mouse_5.midButton,mouse_5.rightButton,mouse_5.clicked_name,responseprac_feedback.started,responseprac_feedback.stopped,summary2_prac.started,summary2_prac.stopped,mouse_6.x,mouse_6.y,mouse_6.leftButton,mouse_6.midButton,mouse_6.rightButton,mouse_6.clicked_name,duringprac.thisRepN,duringprac.thisTrialN,duringprac.thisN,duringprac.thisIndex,duringprac.ran,begin.started,begin.stopped,key_resp_22.keys,key_resp_22.rt,key_resp_22.duration,Stim1_display.started,Stim1_display.stopped,circle1_ori,circle2_ori,circle1_SF,circle2_SF,response.started,response.stopped,mouse.x,mouse.y,mouse.leftButton,mouse.midButton,mouse.rightButton,mouse.clicked_name,trialnumber,double_pass.thisRepN,double_pass.thisTrialN,double_pass.thisN,double_pass.thisIndex,double_pass.ran,double_pass.order,main_trial.thisRepN,main_trial.thisTrialN,main_trial.thisN,main_trial.thisIndex,main_trial.ran,main_trial.order,Trial_Counter,Catch,Frequencies,response_2.started,response_2.stopped,mouse_2.x,mouse_2.y,mouse_2.leftButton,mouse_2.midButton,mouse_2.rightButton,mouse_2.clicked_name,special_trial.started,special_trial.stopped,catch_1.started,catch_1.stopped,mouse_3.x,mouse_3.y,mouse_3.leftButton,mouse_3.midButton,mouse_3.rightButton,catchresponse,catchnumber,response_time_catch,response_sum.started,response_sum.stopped,mouse_11.x,mouse_11.y,mouse_11.leftButton,mouse_11.midButton,mouse_11.rightButton,flip_presentation_sequence_for_double_pass.started,flip_presentation_sequence_for_double_pass.stopped,goodbye.started,goodbye.stopped,key_resp_3.keys,key_resp_3.rt,key_resp_3.duration
0.0003,0.0004,641864aab32516db86d5077d,2024-02-19_02h09.48.196,kallum_motion_pilot,2023.2.2,Win32,15.97444089,641864aab32516db86d5077d,65d2b6c8f2eece985d8e374c,65d2b85f76587dd967e01ec2,,,,,,,,,,,,,,,,,,,,,,,,,,,,,,,,,,,,,,,,,,,,,,,,,,,,,,,,,,,,,,,,,,,,,,,,,,,,,,,,,,,,,,,,,,,,,,,,,,,,,,,,,,,,,,,,,,,,,,,,,,,,,,,,,,,,,,,,,,,,,,,,,
,,641864aab32516db86d5077d,2024-02-19_02h09.48.196,kallum_motion_pilot,2023.2.2,Win32,15.97444089,641864aab32516db86d5077d,65d2b6c8f2eece985d8e374c,65d2b85f76587dd967e01ec2,0.0187,0.0189,0,0,0,57,1,onethree,,,,,,,,,,,,,,,,,,,,,,,,,,,,,,,,,,,,,,,,,,,,,,,,,,,,,,,,,,,,,,,,,,,,,,,,,,,,,,,,,,,,,,,,,,,,,,,,,,,,,,,,,,,,,,,,,,,,,,,,,,,,,,,,,,,,,,,,,
,,641864aab32516db86d5077d,2024-02-19_02h09.48.196,kallum_motion_pilot,2023.2.2,Win32,15.97444089,641864aab32516db86d5077d,65d2b6c8f2eece985d8e374c,65d2b85f76587dd967e01ec2,0.0192,0.0192,0,1,1,23,1,fourthree,,,,,,,,,,,,,,,,,,,,,,,,,,,,,,,,,,,,,,,,,,,,,,,,,,,,,,,,,,,,,,,,,,,,,,,,,,,,,,,,,,,,,,,,,,,,,,,,,,,,,,,,,,,,,,,,,,,,,,,,,,,,,,,,,,,,,,,,,
,,641864aab32516db86d5077d,2024-02-19_02h09.48.196,kallum_motion_pilot,2023.2.2,Win32,15.97444089,641864aab32516db86d5077d,65d2b6c8f2eece985d8e374c,65d2b85f76587dd967e01ec2,0.0193,0.0194,0,2,2,104,1,fivesix,,,,,,,,,,,,,,,,,,,,,,,,,,,,,,,,,,,,,,,,,,,,,,,,,,,,,,,,,,,,,,,,,,,,,,,,,,,,,,,,,,,,,,,,,,,,,,,,,,,,,,,,,,,,,,,,,,,,,,,,,,,,,,,,,,,,,,,,,
,,641864aab32516db86d5077d,2024-02-19_02h09.48.196,kallum_motion_pilot,2023.2.2,Win32,15.97444089,641864aab32516db86d5077d,65d2b6c8f2eece985d8e374c,65d2b85f76587dd967e01ec2,0.0195,0.0196,0,3,3,127,1,eightseven,,,,,,,,,,,,,,,,,,,,,,,,,,,,,,,,,,,,,,,,,,,,,,,,,,,,,,,,,,,,,,,,,,,,,,,,,,,,,,,,,,,,,,,,,,,,,,,,,,,,,,,,,,,,,,,,,,,,,,,,,,,,,,,,,,,,,,,,,
,,641864aab32516db86d5077d,2024-02-19_02h09.48.196,kallum_motion_pilot,2023.2.2,Win32,15.97444089,641864aab32516db86d5077d,65d2b6c8f2eece985d8e374c,65d2b85f76587dd967e01ec2,0.0197,0.0197,0,4,4,161,1,fiveseven,,,,,,,,,,,,,,,,,,,,,,,,,,,,,,,,,,,,,,,,,,,,,,,,,,,,,,,,,,,,,,,,,,,,,,,,,,,,,,,,,,,,,,,,,,,,,,,,,,,,,,,,,,,,,,,,,,,,,,,,,,,,,,,,,,,,,,,,,
,,641864aab32516db86d5077d,2024-02-19_02h09.48.196,kallum_motion_pilot,2023.2.2,Win32,15.97444089,641864aab32516db86d5077d,65d2b6c8f2eece985d8e374c,65d2b85f76587dd967e01ec2,0.0198,0.0198,0,5,5,91,1,sixeight,,,,,,,,,,,,,,,,,,,,,,,,,,,,,,,,,,,,,,,,,,,,,,,,,,,,,,,,,,,,,,,,,,,,,,,,,,,,,,,,,,,,,,,,,,,,,,,,,,,,,,,,,,,,,,,,,,,,,,,,,,,,,,,,,,,,,,,,,
,,641864aab32516db86d5077d,2024-02-19_02h09.48.196,kallum_motion_pilot,2023.2.2,Win32,15.97444089,641864aab32516db86d5077d,65d2b6c8f2eece985d8e374c,65d2b85f76587dd967e01ec2,0.02,0.02,0,6,6,141,1,seveneight,,,,,,,,,,,,,,,,,,,,,,,,,,,,,,,,,,,,,,,,,,,,,,,,,,,,,,,,,,,,,,,,,,,,,,,,,,,,,,,,,,,,,,,,,,,,,,,,,,,,,,,,,,,,,,,,,,,,,,,,,,,,,,,,,,,,,,,,,
,,641864aab32516db86d5077d,2024-02-19_02h09.48.196,kallum_motion_pilot,2023.2.2,Win32,15.97444089,641864aab32516db86d5077d,65d2b6c8f2eece985d8e374c,65d2b85f76587dd967e01ec2,0.0201,0.0201,0,7,7,33,1,onethree,,,,,,,,,,,,,,,,,,,,,,,,,,,,,,,,,,,,,,,,,,,,,,,,,,,,,,,,,,,,,,,,,,,,,,,,,,,,,,,,,,,,,,,,,,,,,,,,,,,,,,,,,,,,,,,,,,,,,,,,,,,,,,,,,,,,,,,,,
,,641864aab32516db86d5077d,2024-02-19_02h09.48.196,kallum_motion_pilot,2023.2.2,Win32,15.97444089,641864aab32516db86d5077d,65d2b6c8f2eece985d8e374c,65d2b85f76587dd967e01ec2,0.0203,0.0204,0,8,8,82,1,sixfive,,,,,,,,,,,,,,,,,,,,,,,,,,,,,,,,,,,,,,,,,,,,,,,,,,,,,,,,,,,,,,,,,,,,,,,,,,,,,,,,,,,,,,,,,,,,,,,,,,,,,,,,,,,,,,,,,,,,,,,,,,,,,,,,,,,,,,,,,
,,641864aab32516db86d5077d,2024-02-19_02h09.48.196,kallum_motion_pilot,2023.2.2,Win32,15.97444089,641864aab32516db86d5077d,65d2b6c8f2eece985d8e374c,65d2b85f76587dd967e01ec2,0.0204,0.0205,0,9,9,87,1,eightseven,,,,,,,,,,,,,,,,,,,,,,,,,,,,,,,,,,,,,,,,,,,,,,,,,,,,,,,,,,,,,,,,,,,,,,,,,,,,,,,,,,,,,,,,,,,,,,,,,,,,,,,,,,,,,,,,,,,,,,,,,,,,,,,,,,,,,,,,,
,,641864aab32516db86d5077d,2024-02-19_02h09.48.196,kallum_motion_pilot,2023.2.2,Win32,15.97444089,641864aab32516db86d5077d,65d2b6c8f2eece985d8e374c,65d2b85f76587dd967e01ec2,0.0206,0.0206,0,10,10,49,1,onethree,,,,,,,,,,,,,,,,,,,,,,,,,,,,,,,,,,,,,,,,,,,,,,,,,,,,,,,,,,,,,,,,,,,,,,,,,,,,,,,,,,,,,,,,,,,,,,,,,,,,,,,,,,,,,,,,,,,,,,,,,,,,,,,,,,,,,,,,,
,,641864aab32516db86d5077d,2024-02-19_02h09.48.196,kallum_motion_pilot,2023.2.2,Win32,15.97444089,641864aab32516db86d5077d,65d2b6c8f2eece985d8e374c,65d2b85f76587dd967e01ec2,0.0207,0.0208,0,11,11,24,1,onetwo,,,,,,,,,,,,,,,,,,,,,,,,,,,,,,,,,,,,,,,,,,,,,,,,,,,,,,,,,,,,,,,,,,,,,,,,,,,,,,,,,,,,,,,,,,,,,,,,,,,,,,,,,,,,,,,,,,,,,,,,,,,,,,,,,,,,,,,,,
,,641864aab32516db86d5077d,2024-02-19_02h09.48.196,kallum_motion_pilot,2023.2.2,Win32,15.97444089,641864aab32516db86d5077d,65d2b6c8f2eece985d8e374c,65d2b85f76587dd967e01ec2,0.0208,0.0209,0,12,12,144,1,fivesix,,,,,,,,,,,,,,,,,,,,,,,,,,,,,,,,,,,,,,,,,,,,,,,,,,,,,,,,,,,,,,,,,,,,,,,,,,,,,,,,,,,,,,,,,,,,,,,,,,,,,,,,,,,,,,,,,,,,,,,,,,,,,,,,,,,,,,,,,
,,641864aab32516db86d5077d,2024-02-19_02h09.48.196,kallum_motion_pilot,2023.2.2,Win32,15.97444089,641864aab32516db86d5077d,65d2b6c8f2eece985d8e374c,65d2b85f76587dd967e01ec2,0.021,0.021,0,13,13,7,1,fourthree,,,,,,,,,,,,,,,,,,,,,,,,,,,,,,,,,,,,,,,,,,,,,,,,,,,,,,,,,,,,,,,,,,,,,,,,,,,,,,,,,,,,,,,,,,,,,,,,,,,,,,,,,,,,,,,,,,,,,,,,,,,,,,,,,,,,,,,,,
,,641864aab32516db86d5077d,2024-02-19_02h09.48.196,kallum_motion_pilot,2023.2.2,Win32,15.97444089,641864aab32516db86d5077d,65d2b6c8f2eece985d8e374c,65d2b85f76587dd967e01ec2,0.0211,0.0211,0,14,14,66,1,twoone,,,,,,,,,,,,,,,,,,,,,,,,,,,,,,,,,,,,,,,,,,,,,,,,,,,,,,,,,,,,,,,,,,,,,,,,,,,,,,,,,,,,,,,,,,,,,,,,,,,,,,,,,,,,,,,,,,,,,,,,,,,,,,,,,,,,,,,,,
,,641864aab32516db86d5077d,2024-02-19_02h09.48.196,kallum_motion_pilot,2023.2.2,Win32,15.97444089,641864aab32516db86d5077d,65d2b6c8f2eece985d8e374c,65d2b85f76587dd967e01ec2,0.0212,0.0213,0,15,15,90,1,sixfive,,,,,,,,,,,,,,,,,,,,,,,,,,,,,,,,,,,,,,,,,,,,,,,,,,,,,,,,,,,,,,,,,,,,,,,,,,,,,,,,,,,,,,,,,,,,,,,,,,,,,,,,,,,,,,,,,,,,,,,,,,,,,,,,,,,,,,,,,
,,641864aab32516db86d5077d,2024-02-19_02h09.48.196,kallum_motion_pilot,2023.2.2,Win32,15.97444089,641864aab32516db86d5077d,65d2b6c8f2eece985d8e374c,65d2b85f76587dd967e01ec2,0.0213,0.0213,0,16,16,46,1,fourtwo,,,,,,,,,,,,,,,,,,,,,,,,,,,,,,,,,,,,,,,,,,,,,,,,,,,,,,,,,,,,,,,,,,,,,,,,,,,,,,,,,,,,,,,,,,,,,,,,,,,,,,,,,,,,,,,,,,,,,,,,,,,,,,,,,,,,,,,,,
,,641864aab32516db86d5077d,2024-02-19_02h09.48.196,kallum_motion_pilot,2023.2.2,Win32,15.97444089,641864aab32516db86d5077d,65d2b6c8f2eece985d8e374c,65d2b85f76587dd967e01ec2,0.0214,0.0215,0,17,17,105,1,fiveseven,,,,,,,,,,,,,,,,,,,,,,,,,,,,,,,,,,,,,,,,,,,,,,,,,,,,,,,,,,,,,,,,,,,,,,,,,,,,,,,,,,,,,,,,,,,,,,,,,,,,,,,,,,,,,,,,,,,,,,,,,,,,,,,,,,,,,,,,,
,,641864aab32516db86d5077d,2024-02-19_02h09.48.196,kallum_motion_pilot,2023.2.2,Win32,15.97444089,641864aab32516db86d5077d,65d2b6c8f2eece985d8e374c,65d2b85f76587dd967e01ec2,0.0216,0.0216,0,18,18,35,1,twofour,,,,,,,,,,,,,,,,,,,,,,,,,,,,,,,,,,,,,,,,,,,,,,,,,,,,,,,,,,,,,,,,,,,,,,,,,,,,,,,,,,,,,,,,,,,,,,,,,,,,,,,,,,,,,,,,,,,,,,,,,,,,,,,,,,,,,,,,,
,,641864aab32516db86d5077d,2024-02-19_02h09.48.196,kallum_motion_pilot,2023.2.2,Win32,15.97444089,641864aab32516db86d5077d,65d2b6c8f2eece985d8e374c,65d2b85f76587dd967e01ec2,0.0217,0.0218,0,19,19,95,1,eightseven,,,,,,,,,,,,,,,,,,,,,,,,,,,,,,,,,,,,,,,,,,,,,,,,,,,,,,,,,,,,,,,,,,,,,,,,,,,,,,,,,,,,,,,,,,,,,,,,,,,,,,,,,,,,,,,,,,,,,,,,,,,,,,,,,,,,,,,,,
,,641864aab32516db86d5077d,2024-02-19_02h09.48.196,kallum_motion_pilot,2023.2.2,Win32,15.97444089,641864aab32516db86d5077d,65d2b6c8f2eece985d8e374c,65d2b85f76587dd967e01ec2,0.0219,0.0219,0,20,20,71,1,fourthree,,,,,,,,,,,,,,,,,,,,,,,,,,,,,,,,,,,,,,,,,,,,,,,,,,,,,,,,,,,,,,,,,,,,,,,,,,,,,,,,,,,,,,,,,,,,,,,,,,,,,,,,,,,,,,,,,,,,,,,,,,,,,,,,,,,,,,,,,
,,641864aab32516db86d5077d,2024-02-19_02h09.48.196,kallum_motion_pilot,2023.2.2,Win32,15.97444089,641864aab32516db86d5077d,65d2b6c8f2eece985d8e374c,65d2b85f76587dd967e01ec2,0.0219,0.022,0,21,21,54,1,fourtwo,,,,,,,,,,,,,,,,,,,,,,,,,,,,,,,,,,,,,,,,,,,,,,,,,,,,,,,,,,,,,,,,,,,,,,,,,,,,,,,,,,,,,,,,,,,,,,,,,,,,,,,,,,,,,,,,,,,,,,,,,,,,,,,,,,,,,,,,,
,,641864aab32516db86d5077d,2024-02-19_02h09.48.196,kallum_motion_pilot,2023.2.2,Win32,15.97444089,641864aab32516db86d5077d,65d2b6c8f2eece985d8e374c,65d2b85f76587dd967e01ec2,0.0221,0.0222,0,22,22,148,1,sevenfive,,,,,,,,,,,,,,,,,,,,,,,,,,,,,,,,,,,,,,,,,,,,,,,,,,,,,,,,,,,,,,,,,,,,,,,,,,,,,,,,,,,,,,,,,,,,,,,,,,,,,,,,,,,,,,,,,,,,,,,,,,,,,,,,,,,,,,,,,
,,641864aab32516db86d5077d,2024-02-19_02h09.48.196,kallum_motion_pilot,2023.2.2,Win32,15.97444089,641864aab32516db86d5077d,65d2b6c8f2eece985d8e374c,65d2b85f76587dd967e01ec2,0.0223,0.0224,0,23,23,78,1,fourtwo,,,,,,,,,,,,,,,,,,,,,,,,,,,,,,,,,,,,,,,,,,,,,,,,,,,,,,,,,,,,,,,,,,,,,,,,,,,,,,,,,,,,,,,,,,,,,,,,,,,,,,,,,,,,,,,,,,,,,,,,,,,,,,,,,,,,,,,,,
,,641864aab32516db86d5077d,2024-02-19_02h09.48.196,kallum_motion_pilot,2023.2.2,Win32,15.97444089,641864aab32516db86d5077d,65d2b6c8f2eece985d8e374c,65d2b85f76587dd967e01ec2,0.0225,0.0226,0,24,24,12,1,threeone,,,,,,,,,,,,,,,,,,,,,,,,,,,,,,,,,,,,,,,,,,,,,,,,,,,,,,,,,,,,,,,,,,,,,,,,,,,,,,,,,,,,,,,,,,,,,,,,,,,,,,,,,,,,,,,,,,,,,,,,,,,,,,,,,,,,,,,,,
,,641864aab32516db86d5077d,2024-02-19_02h09.48.196,kallum_motion_pilot,2023.2.2,Win32,15.97444089,641864aab32516db86d5077d,65d2b6c8f2eece985d8e374c,65d2b85f76587dd967e01ec2,0.0227,0.0227,0,25,25,150,1,eightsix,,,,,,,,,,,,,,,,,,,,,,,,,,,,,,,,,,,,,,,,,,,,,,,,,,,,,,,,,,,,,,,,,,,,,,,,,,,,,,,,,,,,,,,,,,,,,,,,,,,,,,,,,,,,,,,,,,,,,,,,,,,,,,,,,,,,,,,,,
,,641864aab32516db86d5077d,2024-02-19_02h09.48.196,kallum_motion_pilot,2023.2.2,Win32,15.97444089,641864aab32516db86d5077d,65d2b6c8f2eece985d8e374c,65d2b85f76587dd967e01ec2,0.0229,0.0229,0,26,26,26,1,twoone,,,,,,,,,,,,,,,,,,,,,,,,,,,,,,,,,,,,,,,,,,,,,,,,,,,,,,,,,,,,,,,,,,,,,,,,,,,,,,,,,,,,,,,,,,,,,,,,,,,,,,,,,,,,,,,,,,,,,,,,,,,,,,,,,,,,,,,,,
,,641864aab32516db86d5077d,2024-02-19_02h09.48.196,kallum_motion_pilot,2023.2.2,Win32,15.97444089,641864aab32516db86d5077d,65d2b6c8f2eece985d8e374c,65d2b85f76587dd967e01ec2,0.023,0.0231,0,27,27,22,1,fourtwo,,,,,,,,,,,,,,,,,,,,,,,,,,,,,,,,,,,,,,,,,,,,,,,,,,,,,,,,,,,,,,,,,,,,,,,,,,,,,,,,,,,,,,,,,,,,,,,,,,,,,,,,,,,,,,,,,,,,,,,,,,,,,,,,,,,,,,,,,
,,641864aab32516db86d5077d,2024-02-19_02h09.48.196,kallum_motion_pilot,2023.2.2,Win32,15.97444089,641864aab32516db86d5077d,65d2b6c8f2eece985d8e374c,65d2b85f76587dd967e01ec2,0.0231,0.0231,0,28,28,39,1,fourthree,,,,,,,,,,,,,,,,,,,,,,,,,,,,,,,,,,,,,,,,,,,,,,,,,,,,,,,,,,,,,,,,,,,,,,,,,,,,,,,,,,,,,,,,,,,,,,,,,,,,,,,,,,,,,,,,,,,,,,,,,,,,,,,,,,,,,,,,,
,,641864aab32516db86d5077d,2024-02-19_02h09.48.196,kallum_motion_pilot,2023.2.2,Win32,15.97444089,641864aab32516db86d5077d,65d2b6c8f2eece985d8e374c,65d2b85f76587dd967e01ec2,0.0232,0.0234,0,29,29,119,1,eightseven,,,,,,,,,,,,,,,,,,,,,,,,,,,,,,,,,,,,,,,,,,,,,,,,,,,,,,,,,,,,,,,,,,,,,,,,,,,,,,,,,,,,,,,,,,,,,,,,,,,,,,,,,,,,,,,,,,,,,,,,,,,,,,,,,,,,,,,,,
,,641864aab32516db86d5077d,2024-02-19_02h09.48.196,kallum_motion_pilot,2023.2.2,Win32,15.97444089,641864aab32516db86d5077d,65d2b6c8f2eece985d8e374c,65d2b85f76587dd967e01ec2,0.0234,0.0234,0,30,30,88,1,fivesix,,,,,,,,,,,,,,,,,,,,,,,,,,,,,,,,,,,,,,,,,,,,,,,,,,,,,,,,,,,,,,,,,,,,,,,,,,,,,,,,,,,,,,,,,,,,,,,,,,,,,,,,,,,,,,,,,,,,,,,,,,,,,,,,,,,,,,,,,
,,641864aab32516db86d5077d,2024-02-19_02h09.48.196,kallum_motion_pilot,2023.2.2,Win32,15.97444089,641864aab32516db86d5077d,65d2b6c8f2eece985d8e374c,65d2b85f76587dd967e01ec2,0.0236,0.0236,0,31,31,110,1,eightsix,,,,,,,,,,,,,,,,,,,,,,,,,,,,,,,,,,,,,,,,,,,,,,,,,,,,,,,,,,,,,,,,,,,,,,,,,,,,,,,,,,,,,,,,,,,,,,,,,,,,,,,,,,,,,,,,,,,,,,,,,,,,,,,,,,,,,,,,,
,,641864aab32516db86d5077d,2024-02-19_02h09.48.196,kallum_motion_pilot,2023.2.2,Win32,15.97444089,641864aab32516db86d5077d,65d2b6c8f2eece985d8e374c,65d2b85f76587dd967e01ec2,0.0237,0.0238,0,32,32,0,1,onetwo,,,,,,,,,,,,,,,,,,,,,,,,,,,,,,,,,,,,,,,,,,,,,,,,,,,,,,,,,,,,,,,,,,,,,,,,,,,,,,,,,,,,,,,,,,,,,,,,,,,,,,,,,,,,,,,,,,,,,,,,,,,,,,,,,,,,,,,,,
,,641864aab32516db86d5077d,2024-02-19_02h09.48.196,kallum_motion_pilot,2023.2.2,Win32,15.97444089,641864aab32516db86d5077d,65d2b6c8f2eece985d8e374c,65d2b85f76587dd967e01ec2,0.0238,0.0239,0,33,33,41,1,onethree,,,,,,,,,,,,,,,,,,,,,,,,,,,,,,,,,,,,,,,,,,,,,,,,,,,,,,,,,,,,,,,,,,,,,,,,,,,,,,,,,,,,,,,,,,,,,,,,,,,,,,,,,,,,,,,,,,,,,,,,,,,,,,,,,,,,,,,,,
,,641864aab32516db86d5077d,2024-02-19_02h09.48.196,kallum_motion_pilot,2023.2.2,Win32,15.97444089,641864aab32516db86d5077d,65d2b6c8f2eece985d8e374c,65d2b85f76587dd967e01ec2,0.0249,0.025,0,34,34,27,1,twofour,,,,,,,,,,,,,,,,,,,,,,,,,,,,,,,,,,,,,,,,,,,,,,,,,,,,,,,,,,,,,,,,,,,,,,,,,,,,,,,,,,,,,,,,,,,,,,,,,,,,,,,,,,,,,,,,,,,,,,,,,,,,,,,,,,,,,,,,,
,,641864aab32516db86d5077d,2024-02-19_02h09.48.196,kallum_motion_pilot,2023.2.2,Win32,15.97444089,641864aab32516db86d5077d,65d2b6c8f2eece985d8e374c,65d2b85f76587dd967e01ec2,0.025,0.025,0,35,35,18,1,twoone,,,,,,,,,,,,,,,,,,,,,,,,,,,,,,,,,,,,,,,,,,,,,,,,,,,,,,,,,,,,,,,,,,,,,,,,,,,,,,,,,,,,,,,,,,,,,,,,,,,,,,,,,,,,,,,,,,,,,,,,,,,,,,,,,,,,,,,,,
,,641864aab32516db86d5077d,2024-02-19_02h09.48.196,kallum_motion_pilot,2023.2.2,Win32,15.97444089,641864aab32516db86d5077d,65d2b6c8f2eece985d8e374c,65d2b85f76587dd967e01ec2,0.0252,0.0252,0,36,36,143,1,eightseven,,,,,,,,,,,,,,,,,,,,,,,,,,,,,,,,,,,,,,,,,,,,,,,,,,,,,,,,,,,,,,,,,,,,,,,,,,,,,,,,,,,,,,,,,,,,,,,,,,,,,,,,,,,,,,,,,,,,,,,,,,,,,,,,,,,,,,,,,
,,641864aab32516db86d5077d,2024-02-19_02h09.48.196,kallum_motion_pilot,2023.2.2,Win32,15.97444089,641864aab32516db86d5077d,65d2b6c8f2eece985d8e374c,65d2b85f76587dd967e01ec2,0.0252,0.0253,0,37,37,50,1,twoone,,,,,,,,,,,,,,,,,,,,,,,,,,,,,,,,,,,,,,,,,,,,,,,,,,,,,,,,,,,,,,,,,,,,,,,,,,,,,,,,,,,,,,,,,,,,,,,,,,,,,,,,,,,,,,,,,,,,,,,,,,,,,,,,,,,,,,,,,
,,641864aab32516db86d5077d,2024-02-19_02h09.48.196,kallum_motion_pilot,2023.2.2,Win32,15.97444089,641864aab32516db86d5077d,65d2b6c8f2eece985d8e374c,65d2b85f76587dd967e01ec2,0.0254,0.0254,0,38,38,84,1,sevenfive,,,,,,,,,,,,,,,,,,,,,,,,,,,,,,,,,,,,,,,,,,,,,,,,,,,,,,,,,,,,,,,,,,,,,,,,,,,,,,,,,,,,,,,,,,,,,,,,,,,,,,,,,,,,,,,,,,,,,,,,,,,,,,,,,,,,,,,,,
,,641864aab32516db86d5077d,2024-02-19_02h09.48.196,kallum_motion_pilot,2023.2.2,Win32,15.97444089,641864aab32516db86d5077d,65d2b6c8f2eece985d8e374c,65d2b85f76587dd967e01ec2,0.0255,0.0256,0,39,39,89,1,fiveseven,,,,,,,,,,,,,,,,,,,,,,,,,,,,,,,,,,,,,,,,,,,,,,,,,,,,,,,,,,,,,,,,,,,,,,,,,,,,,,,,,,,,,,,,,,,,,,,,,,,,,,,,,,,,,,,,,,,,,,,,,,,,,,,,,,,,,,,,,
,,641864aab32516db86d5077d,2024-02-19_02h09.48.196,kallum_motion_pilot,2023.2.2,Win32,15.97444089,641864aab32516db86d5077d,65d2b6c8f2eece985d8e374c,65d2b85f76587dd967e01ec2,0.0256,0.0257,0,40,40,30,1,fourtwo,,,,,,,,,,,,,,,,,,,,,,,,,,,,,,,,,,,,,,,,,,,,,,,,,,,,,,,,,,,,,,,,,,,,,,,,,,,,,,,,,,,,,,,,,,,,,,,,,,,,,,,,,,,,,,,,,,,,,,,,,,,,,,,,,,,,,,,,,
,,641864aab32516db86d5077d,2024-02-19_02h09.48.196,kallum_motion_pilot,2023.2.2,Win32,15.97444089,641864aab32516db86d5077d,65d2b6c8f2eece985d8e374c,65d2b85f76587dd967e01ec2,0.0258,0.0258,0,41,41,76,1,threeone,,,,,,,,,,,,,,,,,,,,,,,,,,,,,,,,,,,,,,,,,,,,,,,,,,,,,,,,,,,,,,,,,,,,,,,,,,,,,,,,,,,,,,,,,,,,,,,,,,,,,,,,,,,,,,,,,,,,,,,,,,,,,,,,,,,,,,,,,
,,641864aab32516db86d5077d,2024-02-19_02h09.48.196,kallum_motion_pilot,2023.2.2,Win32,15.97444089,641864aab32516db86d5077d,65d2b6c8f2eece985d8e374c,65d2b85f76587dd967e01ec2,0.0259,0.0259,0,42,42,142,1,eightsix,,,,,,,,,,,,,,,,,,,,,,,,,,,,,,,,,,,,,,,,,,,,,,,,,,,,,,,,,,,,,,,,,,,,,,,,,,,,,,,,,,,,,,,,,,,,,,,,,,,,,,,,,,,,,,,,,,,,,,,,,,,,,,,,,,,,,,,,,
,,641864aab32516db86d5077d,2024-02-19_02h09.48.196,kallum_motion_pilot,2023.2.2,Win32,15.97444089,641864aab32516db86d5077d,65d2b6c8f2eece985d8e374c,65d2b85f76587dd967e01ec2,0.0259,0.0261,0,43,43,109,1,seveneight,,,,,,,,,,,,,,,,,,,,,,,,,,,,,,,,,,,,,,,,,,,,,,,,,,,,,,,,,,,,,,,,,,,,,,,,,,,,,,,,,,,,,,,,,,,,,,,,,,,,,,,,,,,,,,,,,,,,,,,,,,,,,,,,,,,,,,,,,
,,641864aab32516db86d5077d,2024-02-19_02h09.48.196,kallum_motion_pilot,2023.2.2,Win32,15.97444089,641864aab32516db86d5077d,65d2b6c8f2eece985d8e374c,65d2b85f76587dd967e01ec2,0.0261,0.0262,0,44,44,74,1,twoone,,,,,,,,,,,,,,,,,,,,,,,,,,,,,,,,,,,,,,,,,,,,,,,,,,,,,,,,,,,,,,,,,,,,,,,,,,,,,,,,,,,,,,,,,,,,,,,,,,,,,,,,,,,,,,,,,,,,,,,,,,,,,,,,,,,,,,,,,
,,641864aab32516db86d5077d,2024-02-19_02h09.48.196,kallum_motion_pilot,2023.2.2,Win32,15.97444089,641864aab32516db86d5077d,65d2b6c8f2eece985d8e374c,65d2b85f76587dd967e01ec2,0.0262,0.0262,0,45,45,52,1,threeone,,,,,,,,,,,,,,,,,,,,,,,,,,,,,,,,,,,,,,,,,,,,,,,,,,,,,,,,,,,,,,,,,,,,,,,,,,,,,,,,,,,,,,,,,,,,,,,,,,,,,,,,,,,,,,,,,,,,,,,,,,,,,,,,,,,,,,,,,
,,641864aab32516db86d5077d,2024-02-19_02h09.48.196,kallum_motion_pilot,2023.2.2,Win32,15.97444089,641864aab32516db86d5077d,65d2b6c8f2eece985d8e374c,65d2b85f76587dd967e01ec2,0.0263,0.0263,0,46,46,38,1,fourtwo,,,,,,,,,,,,,,,,,,,,,,,,,,,,,,,,,,,,,,,,,,,,,,,,,,,,,,,,,,,,,,,,,,,,,,,,,,,,,,,,,,,,,,,,,,,,,,,,,,,,,,,,,,,,,,,,,,,,,,,,,,,,,,,,,,,,,,,,,
,,641864aab32516db86d5077d,2024-02-19_02h09.48.196,kallum_motion_pilot,2023.2.2,Win32,15.97444089,641864aab32516db86d5077d,65d2b6c8f2eece985d8e374c,65d2b85f76587dd967e01ec2,0.0264,0.0265,0,47,47,101,1,seveneight,,,,,,,,,,,,,,,,,,,,,,,,,,,,,,,,,,,,,,,,,,,,,,,,,,,,,,,,,,,,,,,,,,,,,,,,,,,,,,,,,,,,,,,,,,,,,,,,,,,,,,,,,,,,,,,,,,,,,,,,,,,,,,,,,,,,,,,,,
,,641864aab32516db86d5077d,2024-02-19_02h09.48.196,kallum_motion_pilot,2023.2.2,Win32,15.97444089,641864aab32516db86d5077d,65d2b6c8f2eece985d8e374c,65d2b85f76587dd967e01ec2,0.0265,0.0266,0,48,48,72,1,onetwo,,,,,,,,,,,,,,,,,,,,,,,,,,,,,,,,,,,,,,,,,,,,,,,,,,,,,,,,,,,,,,,,,,,,,,,,,,,,,,,,,,,,,,,,,,,,,,,,,,,,,,,,,,,,,,,,,,,,,,,,,,,,,,,,,,,,,,,,,
,,641864aab32516db86d5077d,2024-02-19_02h09.48.196,kallum_motion_pilot,2023.2.2,Win32,15.97444089,641864aab32516db86d5077d,65d2b6c8f2eece985d8e374c,65d2b85f76587dd967e01ec2,0.0267,0.0267,0,49,49,34,1,twoone,,,,,,,,,,,,,,,,,,,,,,,,,,,,,,,,,,,,,,,,,,,,,,,,,,,,,,,,,,,,,,,,,,,,,,,,,,,,,,,,,,,,,,,,,,,,,,,,,,,,,,,,,,,,,,,,,,,,,,,,,,,,,,,,,,,,,,,,,
,,641864aab32516db86d5077d,2024-02-19_02h09.48.196,kallum_motion_pilot,2023.2.2,Win32,15.97444089,641864aab32516db86d5077d,65d2b6c8f2eece985d8e374c,65d2b85f76587dd967e01ec2,0.0268,0.0268,0,50,50,36,1,threeone,,,,,,,,,,,,,,,,,,,,,,,,,,,,,,,,,,,,,,,,,,,,,,,,,,,,,,,,,,,,,,,,,,,,,,,,,,,,,,,,,,,,,,,,,,,,,,,,,,,,,,,,,,,,,,,,,,,,,,,,,,,,,,,,,,,,,,,,,
,,641864aab32516db86d5077d,2024-02-19_02h09.48.196,kallum_motion_pilot,2023.2.2,Win32,15.97444089,641864aab32516db86d5077d,65d2b6c8f2eece985d8e374c,65d2b85f76587dd967e01ec2,0.0269,0.0269,0,51,51,131,1,sixeight,,,,,,,,,,,,,,,,,,,,,,,,,,,,,,,,,,,,,,,,,,,,,,,,,,,,,,,,,,,,,,,,,,,,,,,,,,,,,,,,,,,,,,,,,,,,,,,,,,,,,,,,,,,,,,,,,,,,,,,,,,,,,,,,,,,,,,,,,
,,641864aab32516db86d5077d,2024-02-19_02h09.48.196,kallum_motion_pilot,2023.2.2,Win32,15.97444089,641864aab32516db86d5077d,65d2b6c8f2eece985d8e374c,65d2b85f76587dd967e01ec2,0.027,0.027,0,52,52,13,1,threefour,,,,,,,,,,,,,,,,,,,,,,,,,,,,,,,,,,,,,,,,,,,,,,,,,,,,,,,,,,,,,,,,,,,,,,,,,,,,,,,,,,,,,,,,,,,,,,,,,,,,,,,,,,,,,,,,,,,,,,,,,,,,,,,,,,,,,,,,,
,,641864aab32516db86d5077d,2024-02-19_02h09.48.196,kallum_motion_pilot,2023.2.2,Win32,15.97444089,641864aab32516db86d5077d,65d2b6c8f2eece985d8e374c,65d2b85f76587dd967e01ec2,0.0271,0.0271,0,53,53,60,1,threeone,,,,,,,,,,,,,,,,,,,,,,,,,,,,,,,,,,,,,,,,,,,,,,,,,,,,,,,,,,,,,,,,,,,,,,,,,,,,,,,,,,,,,,,,,,,,,,,,,,,,,,,,,,,,,,,,,,,,,,,,,,,,,,,,,,,,,,,,,
,,641864aab32516db86d5077d,2024-02-19_02h09.48.196,kallum_motion_pilot,2023.2.2,Win32,15.97444089,641864aab32516db86d5077d,65d2b6c8f2eece985d8e374c,65d2b85f76587dd967e01ec2,0.0273,0.0273,0,54,54,118,1,eightsix,,,,,,,,,,,,,,,,,,,,,,,,,,,,,,,,,,,,,,,,,,,,,,,,,,,,,,,,,,,,,,,,,,,,,,,,,,,,,,,,,,,,,,,,,,,,,,,,,,,,,,,,,,,,,,,,,,,,,,,,,,,,,,,,,,,,,,,,,
,,641864aab32516db86d5077d,2024-02-19_02h09.48.196,kallum_motion_pilot,2023.2.2,Win32,15.97444089,641864aab32516db86d5077d,65d2b6c8f2eece985d8e374c,65d2b85f76587dd967e01ec2,0.0274,0.0274,0,55,55,93,1,seveneight,,,,,,,,,,,,,,,,,,,,,,,,,,,,,,,,,,,,,,,,,,,,,,,,,,,,,,,,,,,,,,,,,,,,,,,,,,,,,,,,,,,,,,,,,,,,,,,,,,,,,,,,,,,,,,,,,,,,,,,,,,,,,,,,,,,,,,,,,
,,641864aab32516db86d5077d,2024-02-19_02h09.48.196,kallum_motion_pilot,2023.2.2,Win32,15.97444089,641864aab32516db86d5077d,65d2b6c8f2eece985d8e374c,65d2b85f76587dd967e01ec2,0.0275,0.0275,0,56,56,79,1,eightseven,,,,,,,,,,,,,,,,,,,,,,,,,,,,,,,,,,,,,,,,,,,,,,,,,,,,,,,,,,,,,,,,,,,,,,,,,,,,,,,,,,,,,,,,,,,,,,,,,,,,,,,,,,,,,,,,,,,,,,,,,,,,,,,,,,,,,,,,,
,,641864aab32516db86d5077d,2024-02-19_02h09.48.196,kallum_motion_pilot,2023.2.2,Win32,15.97444089,641864aab32516db86d5077d,65d2b6c8f2eece985d8e374c,65d2b85f76587dd967e01ec2,0.0276,0.0277,0,57,57,155,1,sixeight,,,,,,,,,,,,,,,,,,,,,,,,,,,,,,,,,,,,,,,,,,,,,,,,,,,,,,,,,,,,,,,,,,,,,,,,,,,,,,,,,,,,,,,,,,,,,,,,,,,,,,,,,,,,,,,,,,,,,,,,,,,,,,,,,,,,,,,,,
,,641864aab32516db86d5077d,2024-02-19_02h09.48.196,kallum_motion_pilot,2023.2.2,Win32,15.97444089,641864aab32516db86d5077d,65d2b6c8f2eece985d8e374c,65d2b85f76587dd967e01ec2,0.0277,0.0277,0,58,58,129,1,fiveseven,,,,,,,,,,,,,,,,,,,,,,,,,,,,,,,,,,,,,,,,,,,,,,,,,,,,,,,,,,,,,,,,,,,,,,,,,,,,,,,,,,,,,,,,,,,,,,,,,,,,,,,,,,,,,,,,,,,,,,,,,,,,,,,,,,,,,,,,,
,,641864aab32516db86d5077d,2024-02-19_02h09.48.196,kallum_motion_pilot,2023.2.2,Win32,15.97444089,641864aab32516db86d5077d,65d2b6c8f2eece985d8e374c,65d2b85f76587dd967e01ec2,0.0278,0.0278,0,59,59,136,1,fivesix,,,,,,,,,,,,,,,,,,,,,,,,,,,,,,,,,,,,,,,,,,,,,,,,,,,,,,,,,,,,,,,,,,,,,,,,,,,,,,,,,,,,,,,,,,,,,,,,,,,,,,,,,,,,,,,,,,,,,,,,,,,,,,,,,,,,,,,,,
,,641864aab32516db86d5077d,2024-02-19_02h09.48.196,kallum_motion_pilot,2023.2.2,Win32,15.97444089,641864aab32516db86d5077d,65d2b6c8f2eece985d8e374c,65d2b85f76587dd967e01ec2,0.0299,0.03,0,60,60,140,1,sevenfive,,,,,,,,,,,,,,,,,,,,,,,,,,,,,,,,,,,,,,,,,,,,,,,,,,,,,,,,,,,,,,,,,,,,,,,,,,,,,,,,,,,,,,,,,,,,,,,,,,,,,,,,,,,,,,,,,,,,,,,,,,,,,,,,,,,,,,,,,
,,641864aab32516db86d5077d,2024-02-19_02h09.48.196,kallum_motion_pilot,2023.2.2,Win32,15.97444089,641864aab32516db86d5077d,65d2b6c8f2eece985d8e374c,65d2b85f76587dd967e01ec2,0.0302,0.0302,0,61,61,20,1,threeone,,,,,,,,,,,,,,,,,,,,,,,,,,,,,,,,,,,,,,,,,,,,,,,,,,,,,,,,,,,,,,,,,,,,,,,,,,,,,,,,,,,,,,,,,,,,,,,,,,,,,,,,,,,,,,,,,,,,,,,,,,,,,,,,,,,,,,,,,
,,641864aab32516db86d5077d,2024-02-19_02h09.48.196,kallum_motion_pilot,2023.2.2,Win32,15.97444089,641864aab32516db86d5077d,65d2b6c8f2eece985d8e374c,65d2b85f76587dd967e01ec2,0.0302,0.0302,0,62,62,153,1,fiveseven,,,,,,,,,,,,,,,,,,,,,,,,,,,,,,,,,,,,,,,,,,,,,,,,,,,,,,,,,,,,,,,,,,,,,,,,,,,,,,,,,,,,,,,,,,,,,,,,,,,,,,,,,,,,,,,,,,,,,,,,,,,,,,,,,,,,,,,,,
,,641864aab32516db86d5077d,2024-02-19_02h09.48.196,kallum_motion_pilot,2023.2.2,Win32,15.97444089,641864aab32516db86d5077d,65d2b6c8f2eece985d8e374c,65d2b85f76587dd967e01ec2,0.0304,0.0304,0,63,63,117,1,seveneight,,,,,,,,,,,,,,,,,,,,,,,,,,,,,,,,,,,,,,,,,,,,,,,,,,,,,,,,,,,,,,,,,,,,,,,,,,,,,,,,,,,,,,,,,,,,,,,,,,,,,,,,,,,,,,,,,,,,,,,,,,,,,,,,,,,,,,,,,
,,641864aab32516db86d5077d,2024-02-19_02h09.48.196,kallum_motion_pilot,2023.2.2,Win32,15.97444089,641864aab32516db86d5077d,65d2b6c8f2eece985d8e374c,65d2b85f76587dd967e01ec2,0.0304,0.0305,0,64,64,8,1,onetwo,,,,,,,,,,,,,,,,,,,,,,,,,,,,,,,,,,,,,,,,,,,,,,,,,,,,,,,,,,,,,,,,,,,,,,,,,,,,,,,,,,,,,,,,,,,,,,,,,,,,,,,,,,,,,,,,,,,,,,,,,,,,,,,,,,,,,,,,,
,,641864aab32516db86d5077d,2024-02-19_02h09.48.196,kallum_motion_pilot,2023.2.2,Win32,15.97444089,641864aab32516db86d5077d,65d2b6c8f2eece985d8e374c,65d2b85f76587dd967e01ec2,0.0305,0.0305,0,65,65,159,1,eightseven,,,,,,,,,,,,,,,,,,,,,,,,,,,,,,,,,,,,,,,,,,,,,,,,,,,,,,,,,,,,,,,,,,,,,,,,,,,,,,,,,,,,,,,,,,,,,,,,,,,,,,,,,,,,,,,,,,,,,,,,,,,,,,,,,,,,,,,,,
,,641864aab32516db86d5077d,2024-02-19_02h09.48.196,kallum_motion_pilot,2023.2.2,Win32,15.97444089,641864aab32516db86d5077d,65d2b6c8f2eece985d8e374c,65d2b85f76587dd967e01ec2,0.0306,0.0306,0,66,66,25,1,onethree,,,,,,,,,,,,,,,,,,,,,,,,,,,,,,,,,,,,,,,,,,,,,,,,,,,,,,,,,,,,,,,,,,,,,,,,,,,,,,,,,,,,,,,,,,,,,,,,,,,,,,,,,,,,,,,,,,,,,,,,,,,,,,,,,,,,,,,,,
,,641864aab32516db86d5077d,2024-02-19_02h09.48.196,kallum_motion_pilot,2023.2.2,Win32,15.97444089,641864aab32516db86d5077d,65d2b6c8f2eece985d8e374c,65d2b85f76587dd967e01ec2,0.0307,0.0307,0,67,67,1,1,onethree,,,,,,,,,,,,,,,,,,,,,,,,,,,,,,,,,,,,,,,,,,,,,,,,,,,,,,,,,,,,,,,,,,,,,,,,,,,,,,,,,,,,,,,,,,,,,,,,,,,,,,,,,,,,,,,,,,,,,,,,,,,,,,,,,,,,,,,,,
,,641864aab32516db86d5077d,2024-02-19_02h09.48.196,kallum_motion_pilot,2023.2.2,Win32,15.97444089,641864aab32516db86d5077d,65d2b6c8f2eece985d8e374c,65d2b85f76587dd967e01ec2,0.0308,0.0309,0,68,68,56,1,onetwo,,,,,,,,,,,,,,,,,,,,,,,,,,,,,,,,,,,,,,,,,,,,,,,,,,,,,,,,,,,,,,,,,,,,,,,,,,,,,,,,,,,,,,,,,,,,,,,,,,,,,,,,,,,,,,,,,,,,,,,,,,,,,,,,,,,,,,,,,
,,641864aab32516db86d5077d,2024-02-19_02h09.48.196,kallum_motion_pilot,2023.2.2,Win32,15.97444089,641864aab32516db86d5077d,65d2b6c8f2eece985d8e374c,65d2b85f76587dd967e01ec2,0.0309,0.0309,0,69,69,139,1,sixeight,,,,,,,,,,,,,,,,,,,,,,,,,,,,,,,,,,,,,,,,,,,,,,,,,,,,,,,,,,,,,,,,,,,,,,,,,,,,,,,,,,,,,,,,,,,,,,,,,,,,,,,,,,,,,,,,,,,,,,,,,,,,,,,,,,,,,,,,,
,,641864aab32516db86d5077d,2024-02-19_02h09.48.196,kallum_motion_pilot,2023.2.2,Win32,15.97444089,641864aab32516db86d5077d,65d2b6c8f2eece985d8e374c,65d2b85f76587dd967e01ec2,0.031,0.031,0,70,70,99,1,sixeight,,,,,,,,,,,,,,,,,,,,,,,,,,,,,,,,,,,,,,,,,,,,,,,,,,,,,,,,,,,,,,,,,,,,,,,,,,,,,,,,,,,,,,,,,,,,,,,,,,,,,,,,,,,,,,,,,,,,,,,,,,,,,,,,,,,,,,,,,
,,641864aab32516db86d5077d,2024-02-19_02h09.48.196,kallum_motion_pilot,2023.2.2,Win32,15.97444089,641864aab32516db86d5077d,65d2b6c8f2eece985d8e374c,65d2b85f76587dd967e01ec2,0.031,0.0311,0,71,71,70,1,fourtwo,,,,,,,,,,,,,,,,,,,,,,,,,,,,,,,,,,,,,,,,,,,,,,,,,,,,,,,,,,,,,,,,,,,,,,,,,,,,,,,,,,,,,,,,,,,,,,,,,,,,,,,,,,,,,,,,,,,,,,,,,,,,,,,,,,,,,,,,,
,,641864aab32516db86d5077d,2024-02-19_02h09.48.196,kallum_motion_pilot,2023.2.2,Win32,15.97444089,641864aab32516db86d5077d,65d2b6c8f2eece985d8e374c,65d2b85f76587dd967e01ec2,0.0311,0.0311,0,72,72,152,1,fivesix,,,,,,,,,,,,,,,,,,,,,,,,,,,,,,,,,,,,,,,,,,,,,,,,,,,,,,,,,,,,,,,,,,,,,,,,,,,,,,,,,,,,,,,,,,,,,,,,,,,,,,,,,,,,,,,,,,,,,,,,,,,,,,,,,,,,,,,,,
,,641864aab32516db86d5077d,2024-02-19_02h09.48.196,kallum_motion_pilot,2023.2.2,Win32,15.97444089,641864aab32516db86d5077d,65d2b6c8f2eece985d8e374c,65d2b85f76587dd967e01ec2,0.0311,0.0312,0,73,73,55,1,fourthree,,,,,,,,,,,,,,,,,,,,,,,,,,,,,,,,,,,,,,,,,,,,,,,,,,,,,,,,,,,,,,,,,,,,,,,,,,,,,,,,,,,,,,,,,,,,,,,,,,,,,,,,,,,,,,,,,,,,,,,,,,,,,,,,,,,,,,,,,
,,641864aab32516db86d5077d,2024-02-19_02h09.48.196,kallum_motion_pilot,2023.2.2,Win32,15.97444089,641864aab32516db86d5077d,65d2b6c8f2eece985d8e374c,65d2b85f76587dd967e01ec2,0.0312,0.0312,0,74,74,120,1,fivesix,,,,,,,,,,,,,,,,,,,,,,,,,,,,,,,,,,,,,,,,,,,,,,,,,,,,,,,,,,,,,,,,,,,,,,,,,,,,,,,,,,,,,,,,,,,,,,,,,,,,,,,,,,,,,,,,,,,,,,,,,,,,,,,,,,,,,,,,,
,,641864aab32516db86d5077d,2024-02-19_02h09.48.196,kallum_motion_pilot,2023.2.2,Win32,15.97444089,641864aab32516db86d5077d,65d2b6c8f2eece985d8e374c,65d2b85f76587dd967e01ec2,0.0313,0.0313,0,75,75,122,1,sixfive,,,,,,,,,,,,,,,,,,,,,,,,,,,,,,,,,,,,,,,,,,,,,,,,,,,,,,,,,,,,,,,,,,,,,,,,,,,,,,,,,,,,,,,,,,,,,,,,,,,,,,,,,,,,,,,,,,,,,,,,,,,,,,,,,,,,,,,,,
,,641864aab32516db86d5077d,2024-02-19_02h09.48.196,kallum_motion_pilot,2023.2.2,Win32,15.97444089,641864aab32516db86d5077d,65d2b6c8f2eece985d8e374c,65d2b85f76587dd967e01ec2,0.0313,0.0314,0,76,76,77,1,threefour,,,,,,,,,,,,,,,,,,,,,,,,,,,,,,,,,,,,,,,,,,,,,,,,,,,,,,,,,,,,,,,,,,,,,,,,,,,,,,,,,,,,,,,,,,,,,,,,,,,,,,,,,,,,,,,,,,,,,,,,,,,,,,,,,,,,,,,,,
,,641864aab32516db86d5077d,2024-02-19_02h09.48.196,kallum_motion_pilot,2023.2.2,Win32,15.97444089,641864aab32516db86d5077d,65d2b6c8f2eece985d8e374c,65d2b85f76587dd967e01ec2,0.0315,0.0315,0,77,77,160,1,fivesix,,,,,,,,,,,,,,,,,,,,,,,,,,,,,,,,,,,,,,,,,,,,,,,,,,,,,,,,,,,,,,,,,,,,,,,,,,,,,,,,,,,,,,,,,,,,,,,,,,,,,,,,,,,,,,,,,,,,,,,,,,,,,,,,,,,,,,,,,
,,641864aab32516db86d5077d,2024-02-19_02h09.48.196,kallum_motion_pilot,2023.2.2,Win32,15.97444089,641864aab32516db86d5077d,65d2b6c8f2eece985d8e374c,65d2b85f76587dd967e01ec2,0.0315,0.0315,0,78,78,98,1,sixfive,,,,,,,,,,,,,,,,,,,,,,,,,,,,,,,,,,,,,,,,,,,,,,,,,,,,,,,,,,,,,,,,,,,,,,,,,,,,,,,,,,,,,,,,,,,,,,,,,,,,,,,,,,,,,,,,,,,,,,,,,,,,,,,,,,,,,,,,,
,,641864aab32516db86d5077d,2024-02-19_02h09.48.196,kallum_motion_pilot,2023.2.2,Win32,15.97444089,641864aab32516db86d5077d,65d2b6c8f2eece985d8e374c,65d2b85f76587dd967e01ec2,0.0316,0.0316,0,79,79,157,1,seveneight,,,,,,,,,,,,,,,,,,,,,,,,,,,,,,,,,,,,,,,,,,,,,,,,,,,,,,,,,,,,,,,,,,,,,,,,,,,,,,,,,,,,,,,,,,,,,,,,,,,,,,,,,,,,,,,,,,,,,,,,,,,,,,,,,,,,,,,,,
,,641864aab32516db86d5077d,2024-02-19_02h09.48.196,kallum_motion_pilot,2023.2.2,Win32,15.97444089,641864aab32516db86d5077d,65d2b6c8f2eece985d8e374c,65d2b85f76587dd967e01ec2,0.0317,0.0317,0,80,80,29,1,threefour,,,,,,,,,,,,,,,,,,,,,,,,,,,,,,,,,,,,,,,,,,,,,,,,,,,,,,,,,,,,,,,,,,,,,,,,,,,,,,,,,,,,,,,,,,,,,,,,,,,,,,,,,,,,,,,,,,,,,,,,,,,,,,,,,,,,,,,,,
,,641864aab32516db86d5077d,2024-02-19_02h09.48.196,kallum_motion_pilot,2023.2.2,Win32,15.97444089,641864aab32516db86d5077d,65d2b6c8f2eece985d8e374c,65d2b85f76587dd967e01ec2,0.0318,0.0318,0,81,81,123,1,sixeight,,,,,,,,,,,,,,,,,,,,,,,,,,,,,,,,,,,,,,,,,,,,,,,,,,,,,,,,,,,,,,,,,,,,,,,,,,,,,,,,,,,,,,,,,,,,,,,,,,,,,,,,,,,,,,,,,,,,,,,,,,,,,,,,,,,,,,,,,
,,641864aab32516db86d5077d,2024-02-19_02h09.48.196,kallum_motion_pilot,2023.2.2,Win32,15.97444089,641864aab32516db86d5077d,65d2b6c8f2eece985d8e374c,65d2b85f76587dd967e01ec2,0.0318,0.0319,0,82,82,135,1,eightseven,,,,,,,,,,,,,,,,,,,,,,,,,,,,,,,,,,,,,,,,,,,,,,,,,,,,,,,,,,,,,,,,,,,,,,,,,,,,,,,,,,,,,,,,,,,,,,,,,,,,,,,,,,,,,,,,,,,,,,,,,,,,,,,,,,,,,,,,,
,,641864aab32516db86d5077d,2024-02-19_02h09.48.196,kallum_motion_pilot,2023.2.2,Win32,15.97444089,641864aab32516db86d5077d,65d2b6c8f2eece985d8e374c,65d2b85f76587dd967e01ec2,0.0319,0.0319,0,83,83,6,1,fourtwo,,,,,,,,,,,,,,,,,,,,,,,,,,,,,,,,,,,,,,,,,,,,,,,,,,,,,,,,,,,,,,,,,,,,,,,,,,,,,,,,,,,,,,,,,,,,,,,,,,,,,,,,,,,,,,,,,,,,,,,,,,,,,,,,,,,,,,,,,
,,641864aab32516db86d5077d,2024-02-19_02h09.48.196,kallum_motion_pilot,2023.2.2,Win32,15.97444089,641864aab32516db86d5077d,65d2b6c8f2eece985d8e374c,65d2b85f76587dd967e01ec2,0.032,0.032,0,84,84,28,1,threeone,,,,,,,,,,,,,,,,,,,,,,,,,,,,,,,,,,,,,,,,,,,,,,,,,,,,,,,,,,,,,,,,,,,,,,,,,,,,,,,,,,,,,,,,,,,,,,,,,,,,,,,,,,,,,,,,,,,,,,,,,,,,,,,,,,,,,,,,,
,,641864aab32516db86d5077d,2024-02-19_02h09.48.196,kallum_motion_pilot,2023.2.2,Win32,15.97444089,641864aab32516db86d5077d,65d2b6c8f2eece985d8e374c,65d2b85f76587dd967e01ec2,0.032,0.032,0,85,85,92,1,sevenfive,,,,,,,,,,,,,,,,,,,,,,,,,,,,,,,,,,,,,,,,,,,,,,,,,,,,,,,,,,,,,,,,,,,,,,,,,,,,,,,,,,,,,,,,,,,,,,,,,,,,,,,,,,,,,,,,,,,,,,,,,,,,,,,,,,,,,,,,,
,,641864aab32516db86d5077d,2024-02-19_02h09.48.196,kallum_motion_pilot,2023.2.2,Win32,15.97444089,641864aab32516db86d5077d,65d2b6c8f2eece985d8e374c,65d2b85f76587dd967e01ec2,0.0321,0.0321,0,86,86,85,1,seveneight,,,,,,,,,,,,,,,,,,,,,,,,,,,,,,,,,,,,,,,,,,,,,,,,,,,,,,,,,,,,,,,,,,,,,,,,,,,,,,,,,,,,,,,,,,,,,,,,,,,,,,,,,,,,,,,,,,,,,,,,,,,,,,,,,,,,,,,,,
,,641864aab32516db86d5077d,2024-02-19_02h09.48.196,kallum_motion_pilot,2023.2.2,Win32,15.97444089,641864aab32516db86d5077d,65d2b6c8f2eece985d8e374c,65d2b85f76587dd967e01ec2,0.0322,0.0322,0,87,87,47,1,fourthree,,,,,,,,,,,,,,,,,,,,,,,,,,,,,,,,,,,,,,,,,,,,,,,,,,,,,,,,,,,,,,,,,,,,,,,,,,,,,,,,,,,,,,,,,,,,,,,,,,,,,,,,,,,,,,,,,,,,,,,,,,,,,,,,,,,,,,,,,
,,641864aab32516db86d5077d,2024-02-19_02h09.48.196,kallum_motion_pilot,2023.2.2,Win32,15.97444089,641864aab32516db86d5077d,65d2b6c8f2eece985d8e374c,65d2b85f76587dd967e01ec2,0.0322,0.0322,0,88,88,96,1,fivesix,,,,,,,,,,,,,,,,,,,,,,,,,,,,,,,,,,,,,,,,,,,,,,,,,,,,,,,,,,,,,,,,,,,,,,,,,,,,,,,,,,,,,,,,,,,,,,,,,,,,,,,,,,,,,,,,,,,,,,,,,,,,,,,,,,,,,,,,,
,,641864aab32516db86d5077d,2024-02-19_02h09.48.196,kallum_motion_pilot,2023.2.2,Win32,15.97444089,641864aab32516db86d5077d,65d2b6c8f2eece985d8e374c,65d2b85f76587dd967e01ec2,0.0322,0.0323,0,89,89,42,1,twoone,,,,,,,,,,,,,,,,,,,,,,,,,,,,,,,,,,,,,,,,,,,,,,,,,,,,,,,,,,,,,,,,,,,,,,,,,,,,,,,,,,,,,,,,,,,,,,,,,,,,,,,,,,,,,,,,,,,,,,,,,,,,,,,,,,,,,,,,,
,,641864aab32516db86d5077d,2024-02-19_02h09.48.196,kallum_motion_pilot,2023.2.2,Win32,15.97444089,641864aab32516db86d5077d,65d2b6c8f2eece985d8e374c,65d2b85f76587dd967e01ec2,0.0324,0.0324,0,90,90,83,1,sixeight,,,,,,,,,,,,,,,,,,,,,,,,,,,,,,,,,,,,,,,,,,,,,,,,,,,,,,,,,,,,,,,,,,,,,,,,,,,,,,,,,,,,,,,,,,,,,,,,,,,,,,,,,,,,,,,,,,,,,,,,,,,,,,,,,,,,,,,,,
,,641864aab32516db86d5077d,2024-02-19_02h09.48.196,kallum_motion_pilot,2023.2.2,Win32,15.97444089,641864aab32516db86d5077d,65d2b6c8f2eece985d8e374c,65d2b85f76587dd967e01ec2,0.0324,0.0324,0,91,91,4,1,threeone,,,,,,,,,,,,,,,,,,,,,,,,,,,,,,,,,,,,,,,,,,,,,,,,,,,,,,,,,,,,,,,,,,,,,,,,,,,,,,,,,,,,,,,,,,,,,,,,,,,,,,,,,,,,,,,,,,,,,,,,,,,,,,,,,,,,,,,,,
,,641864aab32516db86d5077d,2024-02-19_02h09.48.196,kallum_motion_pilot,2023.2.2,Win32,15.97444089,641864aab32516db86d5077d,65d2b6c8f2eece985d8e374c,65d2b85f76587dd967e01ec2,0.0325,0.0325,0,92,92,146,1,sixfive,,,,,,,,,,,,,,,,,,,,,,,,,,,,,,,,,,,,,,,,,,,,,,,,,,,,,,,,,,,,,,,,,,,,,,,,,,,,,,,,,,,,,,,,,,,,,,,,,,,,,,,,,,,,,,,,,,,,,,,,,,,,,,,,,,,,,,,,,
,,641864aab32516db86d5077d,2024-02-19_02h09.48.196,kallum_motion_pilot,2023.2.2,Win32,15.97444089,641864aab32516db86d5077d,65d2b6c8f2eece985d8e374c,65d2b85f76587dd967e01ec2,0.0326,0.0326,0,93,93,151,1,eightseven,,,,,,,,,,,,,,,,,,,,,,,,,,,,,,,,,,,,,,,,,,,,,,,,,,,,,,,,,,,,,,,,,,,,,,,,,,,,,,,,,,,,,,,,,,,,,,,,,,,,,,,,,,,,,,,,,,,,,,,,,,,,,,,,,,,,,,,,,
,,641864aab32516db86d5077d,2024-02-19_02h09.48.196,kallum_motion_pilot,2023.2.2,Win32,15.97444089,641864aab32516db86d5077d,65d2b6c8f2eece985d8e374c,65d2b85f76587dd967e01ec2,0.0326,0.0327,0,94,94,69,1,threefour,,,,,,,,,,,,,,,,,,,,,,,,,,,,,,,,,,,,,,,,,,,,,,,,,,,,,,,,,,,,,,,,,,,,,,,,,,,,,,,,,,,,,,,,,,,,,,,,,,,,,,,,,,,,,,,,,,,,,,,,,,,,,,,,,,,,,,,,,
,,641864aab32516db86d5077d,2024-02-19_02h09.48.196,kallum_motion_pilot,2023.2.2,Win32,15.97444089,641864aab32516db86d5077d,65d2b6c8f2eece985d8e374c,65d2b85f76587dd967e01ec2,0.0327,0.0327,0,95,95,97,1,fiveseven,,,,,,,,,,,,,,,,,,,,,,,,,,,,,,,,,,,,,,,,,,,,,,,,,,,,,,,,,,,,,,,,,,,,,,,,,,,,,,,,,,,,,,,,,,,,,,,,,,,,,,,,,,,,,,,,,,,,,,,,,,,,,,,,,,,,,,,,,
,,641864aab32516db86d5077d,2024-02-19_02h09.48.196,kallum_motion_pilot,2023.2.2,Win32,15.97444089,641864aab32516db86d5077d,65d2b6c8f2eece985d8e374c,65d2b85f76587dd967e01ec2,0.0327,0.0328,0,96,96,124,1,sevenfive,,,,,,,,,,,,,,,,,,,,,,,,,,,,,,,,,,,,,,,,,,,,,,,,,,,,,,,,,,,,,,,,,,,,,,,,,,,,,,,,,,,,,,,,,,,,,,,,,,,,,,,,,,,,,,,,,,,,,,,,,,,,,,,,,,,,,,,,,
,,641864aab32516db86d5077d,2024-02-19_02h09.48.196,kallum_motion_pilot,2023.2.2,Win32,15.97444089,641864aab32516db86d5077d,65d2b6c8f2eece985d8e374c,65d2b85f76587dd967e01ec2,0.0328,0.0329,0,97,97,134,1,eightsix,,,,,,,,,,,,,,,,,,,,,,,,,,,,,,,,,,,,,,,,,,,,,,,,,,,,,,,,,,,,,,,,,,,,,,,,,,,,,,,,,,,,,,,,,,,,,,,,,,,,,,,,,,,,,,,,,,,,,,,,,,,,,,,,,,,,,,,,,
,,641864aab32516db86d5077d,2024-02-19_02h09.48.196,kallum_motion_pilot,2023.2.2,Win32,15.97444089,641864aab32516db86d5077d,65d2b6c8f2eece985d8e374c,65d2b85f76587dd967e01ec2,0.0329,0.0329,0,98,98,19,1,twofour,,,,,,,,,,,,,,,,,,,,,,,,,,,,,,,,,,,,,,,,,,,,,,,,,,,,,,,,,,,,,,,,,,,,,,,,,,,,,,,,,,,,,,,,,,,,,,,,,,,,,,,,,,,,,,,,,,,,,,,,,,,,,,,,,,,,,,,,,
,,641864aab32516db86d5077d,2024-02-19_02h09.48.196,kallum_motion_pilot,2023.2.2,Win32,15.97444089,641864aab32516db86d5077d,65d2b6c8f2eece985d8e374c,65d2b85f76587dd967e01ec2,0.033,0.033,0,99,99,102,1,eightsix,,,,,,,,,,,,,,,,,,,,,,,,,,,,,,,,,,,,,,,,,,,,,,,,,,,,,,,,,,,,,,,,,,,,,,,,,,,,,,,,,,,,,,,,,,,,,,,,,,,,,,,,,,,,,,,,,,,,,,,,,,,,,,,,,,,,,,,,,
,,641864aab32516db86d5077d,2024-02-19_02h09.48.196,kallum_motion_pilot,2023.2.2,Win32,15.97444089,641864aab32516db86d5077d,65d2b6c8f2eece985d8e374c,65d2b85f76587dd967e01ec2,0.033,0.033,0,100,100,65,1,onethree,,,,,,,,,,,,,,,,,,,,,,,,,,,,,,,,,,,,,,,,,,,,,,,,,,,,,,,,,,,,,,,,,,,,,,,,,,,,,,,,,,,,,,,,,,,,,,,,,,,,,,,,,,,,,,,,,,,,,,,,,,,,,,,,,,,,,,,,,
,,641864aab32516db86d5077d,2024-02-19_02h09.48.196,kallum_motion_pilot,2023.2.2,Win32,15.97444089,641864aab32516db86d5077d,65d2b6c8f2eece985d8e374c,65d2b85f76587dd967e01ec2,0.0331,0.0332,0,101,101,62,1,fourtwo,,,,,,,,,,,,,,,,,,,,,,,,,,,,,,,,,,,,,,,,,,,,,,,,,,,,,,,,,,,,,,,,,,,,,,,,,,,,,,,,,,,,,,,,,,,,,,,,,,,,,,,,,,,,,,,,,,,,,,,,,,,,,,,,,,,,,,,,,
,,641864aab32516db86d5077d,2024-02-19_02h09.48.196,kallum_motion_pilot,2023.2.2,Win32,15.97444089,641864aab32516db86d5077d,65d2b6c8f2eece985d8e374c,65d2b85f76587dd967e01ec2,0.0332,0.0332,0,102,102,16,1,onetwo,,,,,,,,,,,,,,,,,,,,,,,,,,,,,,,,,,,,,,,,,,,,,,,,,,,,,,,,,,,,,,,,,,,,,,,,,,,,,,,,,,,,,,,,,,,,,,,,,,,,,,,,,,,,,,,,,,,,,,,,,,,,,,,,,,,,,,,,,
,,641864aab32516db86d5077d,2024-02-19_02h09.48.196,kallum_motion_pilot,2023.2.2,Win32,15.97444089,641864aab32516db86d5077d,65d2b6c8f2eece985d8e374c,65d2b85f76587dd967e01ec2,0.0333,0.0333,0,103,103,158,1,eightsix,,,,,,,,,,,,,,,,,,,,,,,,,,,,,,,,,,,,,,,,,,,,,,,,,,,,,,,,,,,,,,,,,,,,,,,,,,,,,,,,,,,,,,,,,,,,,,,,,,,,,,,,,,,,,,,,,,,,,,,,,,,,,,,,,,,,,,,,,
,,641864aab32516db86d5077d,2024-02-19_02h09.48.196,kallum_motion_pilot,2023.2.2,Win32,15.97444089,641864aab32516db86d5077d,65d2b6c8f2eece985d8e374c,65d2b85f76587dd967e01ec2,0.0334,0.0334,0,104,104,113,1,fiveseven,,,,,,,,,,,,,,,,,,,,,,,,,,,,,,,,,,,,,,,,,,,,,,,,,,,,,,,,,,,,,,,,,,,,,,,,,,,,,,,,,,,,,,,,,,,,,,,,,,,,,,,,,,,,,,,,,,,,,,,,,,,,,,,,,,,,,,,,,
,,641864aab32516db86d5077d,2024-02-19_02h09.48.196,kallum_motion_pilot,2023.2.2,Win32,15.97444089,641864aab32516db86d5077d,65d2b6c8f2eece985d8e374c,65d2b85f76587dd967e01ec2,0.0334,0.0334,0,105,105,114,1,sixfive,,,,,,,,,,,,,,,,,,,,,,,,,,,,,,,,,,,,,,,,,,,,,,,,,,,,,,,,,,,,,,,,,,,,,,,,,,,,,,,,,,,,,,,,,,,,,,,,,,,,,,,,,,,,,,,,,,,,,,,,,,,,,,,,,,,,,,,,,
,,641864aab32516db86d5077d,2024-02-19_02h09.48.196,kallum_motion_pilot,2023.2.2,Win32,15.97444089,641864aab32516db86d5077d,65d2b6c8f2eece985d8e374c,65d2b85f76587dd967e01ec2,0.0335,0.0335,0,106,106,44,1,threeone,,,,,,,,,,,,,,,,,,,,,,,,,,,,,,,,,,,,,,,,,,,,,,,,,,,,,,,,,,,,,,,,,,,,,,,,,,,,,,,,,,,,,,,,,,,,,,,,,,,,,,,,,,,,,,,,,,,,,,,,,,,,,,,,,,,,,,,,,
,,641864aab32516db86d5077d,2024-02-19_02h09.48.196,kallum_motion_pilot,2023.2.2,Win32,15.97444089,641864aab32516db86d5077d,65d2b6c8f2eece985d8e374c,65d2b85f76587dd967e01ec2,0.0336,0.0336,0,107,107,132,1,sevenfive,,,,,,,,,,,,,,,,,,,,,,,,,,,,,,,,,,,,,,,,,,,,,,,,,,,,,,,,,,,,,,,,,,,,,,,,,,,,,,,,,,,,,,,,,,,,,,,,,,,,,,,,,,,,,,,,,,,,,,,,,,,,,,,,,,,,,,,,,
,,641864aab32516db86d5077d,2024-02-19_02h09.48.196,kallum_motion_pilot,2023.2.2,Win32,15.97444089,641864aab32516db86d5077d,65d2b6c8f2eece985d8e374c,65d2b85f76587dd967e01ec2,0.0336,0.0336,0,108,108,106,1,sixfive,,,,,,,,,,,,,,,,,,,,,,,,,,,,,,,,,,,,,,,,,,,,,,,,,,,,,,,,,,,,,,,,,,,,,,,,,,,,,,,,,,,,,,,,,,,,,,,,,,,,,,,,,,,,,,,,,,,,,,,,,,,,,,,,,,,,,,,,,
,,641864aab32516db86d5077d,2024-02-19_02h09.48.196,kallum_motion_pilot,2023.2.2,Win32,15.97444089,641864aab32516db86d5077d,65d2b6c8f2eece985d8e374c,65d2b85f76587dd967e01ec2,0.0337,0.0337,0,109,109,5,1,threefour,,,,,,,,,,,,,,,,,,,,,,,,,,,,,,,,,,,,,,,,,,,,,,,,,,,,,,,,,,,,,,,,,,,,,,,,,,,,,,,,,,,,,,,,,,,,,,,,,,,,,,,,,,,,,,,,,,,,,,,,,,,,,,,,,,,,,,,,,
,,641864aab32516db86d5077d,2024-02-19_02h09.48.196,kallum_motion_pilot,2023.2.2,Win32,15.97444089,641864aab32516db86d5077d,65d2b6c8f2eece985d8e374c,65d2b85f76587dd967e01ec2,0.0337,0.0338,0,110,110,31,1,fourthree,,,,,,,,,,,,,,,,,,,,,,,,,,,,,,,,,,,,,,,,,,,,,,,,,,,,,,,,,,,,,,,,,,,,,,,,,,,,,,,,,,,,,,,,,,,,,,,,,,,,,,,,,,,,,,,,,,,,,,,,,,,,,,,,,,,,,,,,,
,,641864aab32516db86d5077d,2024-02-19_02h09.48.196,kallum_motion_pilot,2023.2.2,Win32,15.97444089,641864aab32516db86d5077d,65d2b6c8f2eece985d8e374c,65d2b85f76587dd967e01ec2,0.0338,0.0339,0,111,111,94,1,eightsix,,,,,,,,,,,,,,,,,,,,,,,,,,,,,,,,,,,,,,,,,,,,,,,,,,,,,,,,,,,,,,,,,,,,,,,,,,,,,,,,,,,,,,,,,,,,,,,,,,,,,,,,,,,,,,,,,,,,,,,,,,,,,,,,,,,,,,,,,
,,641864aab32516db86d5077d,2024-02-19_02h09.48.196,kallum_motion_pilot,2023.2.2,Win32,15.97444089,641864aab32516db86d5077d,65d2b6c8f2eece985d8e374c,65d2b85f76587dd967e01ec2,0.0339,0.0339,0,112,112,156,1,sevenfive,,,,,,,,,,,,,,,,,,,,,,,,,,,,,,,,,,,,,,,,,,,,,,,,,,,,,,,,,,,,,,,,,,,,,,,,,,,,,,,,,,,,,,,,,,,,,,,,,,,,,,,,,,,,,,,,,,,,,,,,,,,,,,,,,,,,,,,,,
,,641864aab32516db86d5077d,2024-02-19_02h09.48.196,kallum_motion_pilot,2023.2.2,Win32,15.97444089,641864aab32516db86d5077d,65d2b6c8f2eece985d8e374c,65d2b85f76587dd967e01ec2,0.034,0.034,0,113,113,75,1,twofour,,,,,,,,,,,,,,,,,,,,,,,,,,,,,,,,,,,,,,,,,,,,,,,,,,,,,,,,,,,,,,,,,,,,,,,,,,,,,,,,,,,,,,,,,,,,,,,,,,,,,,,,,,,,,,,,,,,,,,,,,,,,,,,,,,,,,,,,,
,,641864aab32516db86d5077d,2024-02-19_02h09.48.196,kallum_motion_pilot,2023.2.2,Win32,15.97444089,641864aab32516db86d5077d,65d2b6c8f2eece985d8e374c,65d2b85f76587dd967e01ec2,0.0341,0.0341,0,114,114,145,1,fiveseven,,,,,,,,,,,,,,,,,,,,,,,,,,,,,,,,,,,,,,,,,,,,,,,,,,,,,,,,,,,,,,,,,,,,,,,,,,,,,,,,,,,,,,,,,,,,,,,,,,,,,,,,,,,,,,,,,,,,,,,,,,,,,,,,,,,,,,,,,
,,641864aab32516db86d5077d,2024-02-19_02h09.48.196,kallum_motion_pilot,2023.2.2,Win32,15.97444089,641864aab32516db86d5077d,65d2b6c8f2eece985d8e374c,65d2b85f76587dd967e01ec2,0.0342,0.0342,0,115,115,32,1,onetwo,,,,,,,,,,,,,,,,,,,,,,,,,,,,,,,,,,,,,,,,,,,,,,,,,,,,,,,,,,,,,,,,,,,,,,,,,,,,,,,,,,,,,,,,,,,,,,,,,,,,,,,,,,,,,,,,,,,,,,,,,,,,,,,,,,,,,,,,,
,,641864aab32516db86d5077d,2024-02-19_02h09.48.196,kallum_motion_pilot,2023.2.2,Win32,15.97444089,641864aab32516db86d5077d,65d2b6c8f2eece985d8e374c,65d2b85f76587dd967e01ec2,0.0342,0.0342,0,116,116,40,1,onetwo,,,,,,,,,,,,,,,,,,,,,,,,,,,,,,,,,,,,,,,,,,,,,,,,,,,,,,,,,,,,,,,,,,,,,,,,,,,,,,,,,,,,,,,,,,,,,,,,,,,,,,,,,,,,,,,,,,,,,,,,,,,,,,,,,,,,,,,,,
,,641864aab32516db86d5077d,2024-02-19_02h09.48.196,kallum_motion_pilot,2023.2.2,Win32,15.97444089,641864aab32516db86d5077d,65d2b6c8f2eece985d8e374c,65d2b85f76587dd967e01ec2,0.0343,0.0344,0,117,117,48,1,onetwo,,,,,,,,,,,,,,,,,,,,,,,,,,,,,,,,,,,,,,,,,,,,,,,,,,,,,,,,,,,,,,,,,,,,,,,,,,,,,,,,,,,,,,,,,,,,,,,,,,,,,,,,,,,,,,,,,,,,,,,,,,,,,,,,,,,,,,,,,
,,641864aab32516db86d5077d,2024-02-19_02h09.48.196,kallum_motion_pilot,2023.2.2,Win32,15.97444089,641864aab32516db86d5077d,65d2b6c8f2eece985d8e374c,65d2b85f76587dd967e01ec2,0.0344,0.0344,0,118,118,121,1,fiveseven,,,,,,,,,,,,,,,,,,,,,,,,,,,,,,,,,,,,,,,,,,,,,,,,,,,,,,,,,,,,,,,,,,,,,,,,,,,,,,,,,,,,,,,,,,,,,,,,,,,,,,,,,,,,,,,,,,,,,,,,,,,,,,,,,,,,,,,,,
,,641864aab32516db86d5077d,2024-02-19_02h09.48.196,kallum_motion_pilot,2023.2.2,Win32,15.97444089,641864aab32516db86d5077d,65d2b6c8f2eece985d8e374c,65d2b85f76587dd967e01ec2,0.0344,0.0344,0,119,119,126,1,eightsix,,,,,,,,,,,,,,,,,,,,,,,,,,,,,,,,,,,,,,,,,,,,,,,,,,,,,,,,,,,,,,,,,,,,,,,,,,,,,,,,,,,,,,,,,,,,,,,,,,,,,,,,,,,,,,,,,,,,,,,,,,,,,,,,,,,,,,,,,
,,641864aab32516db86d5077d,2024-02-19_02h09.48.196,kallum_motion_pilot,2023.2.2,Win32,15.97444089,641864aab32516db86d5077d,65d2b6c8f2eece985d8e374c,65d2b85f76587dd967e01ec2,0.0345,0.0345,0,120,120,61,1,threefour,,,,,,,,,,,,,,,,,,,,,,,,,,,,,,,,,,,,,,,,,,,,,,,,,,,,,,,,,,,,,,,,,,,,,,,,,,,,,,,,,,,,,,,,,,,,,,,,,,,,,,,,,,,,,,,,,,,,,,,,,,,,,,,,,,,,,,,,,
,,641864aab32516db86d5077d,2024-02-19_02h09.48.196,kallum_motion_pilot,2023.2.2,Win32,15.97444089,641864aab32516db86d5077d,65d2b6c8f2eece985d8e374c,65d2b85f76587dd967e01ec2,0.0345,0.0346,0,121,121,73,1,onethree,,,,,,,,,,,,,,,,,,,,,,,,,,,,,,,,,,,,,,,,,,,,,,,,,,,,,,,,,,,,,,,,,,,,,,,,,,,,,,,,,,,,,,,,,,,,,,,,,,,,,,,,,,,,,,,,,,,,,,,,,,,,,,,,,,,,,,,,,
,,641864aab32516db86d5077d,2024-02-19_02h09.48.196,kallum_motion_pilot,2023.2.2,Win32,15.97444089,641864aab32516db86d5077d,65d2b6c8f2eece985d8e374c,65d2b85f76587dd967e01ec2,0.0347,0.0347,0,122,122,116,1,sevenfive,,,,,,,,,,,,,,,,,,,,,,,,,,,,,,,,,,,,,,,,,,,,,,,,,,,,,,,,,,,,,,,,,,,,,,,,,,,,,,,,,,,,,,,,,,,,,,,,,,,,,,,,,,,,,,,,,,,,,,,,,,,,,,,,,,,,,,,,,
,,641864aab32516db86d5077d,2024-02-19_02h09.48.196,kallum_motion_pilot,2023.2.2,Win32,15.97444089,641864aab32516db86d5077d,65d2b6c8f2eece985d8e374c,65d2b85f76587dd967e01ec2,0.0347,0.0347,0,123,123,81,1,fiveseven,,,,,,,,,,,,,,,,,,,,,,,,,,,,,,,,,,,,,,,,,,,,,,,,,,,,,,,,,,,,,,,,,,,,,,,,,,,,,,,,,,,,,,,,,,,,,,,,,,,,,,,,,,,,,,,,,,,,,,,,,,,,,,,,,,,,,,,,,
,,641864aab32516db86d5077d,2024-02-19_02h09.48.196,kallum_motion_pilot,2023.2.2,Win32,15.97444089,641864aab32516db86d5077d,65d2b6c8f2eece985d8e374c,65d2b85f76587dd967e01ec2,0.0349,0.0349,0,124,124,21,1,threefour,,,,,,,,,,,,,,,,,,,,,,,,,,,,,,,,,,,,,,,,,,,,,,,,,,,,,,,,,,,,,,,,,,,,,,,,,,,,,,,,,,,,,,,,,,,,,,,,,,,,,,,,,,,,,,,,,,,,,,,,,,,,,,,,,,,,,,,,,
,,641864aab32516db86d5077d,2024-02-19_02h09.48.196,kallum_motion_pilot,2023.2.2,Win32,15.97444089,641864aab32516db86d5077d,65d2b6c8f2eece985d8e374c,65d2b85f76587dd967e01ec2,0.0349,0.0351,0,125,125,80,1,fivesix,,,,,,,,,,,,,,,,,,,,,,,,,,,,,,,,,,,,,,,,,,,,,,,,,,,,,,,,,,,,,,,,,,,,,,,,,,,,,,,,,,,,,,,,,,,,,,,,,,,,,,,,,,,,,,,,,,,,,,,,,,,,,,,,,,,,,,,,,
,,641864aab32516db86d5077d,2024-02-19_02h09.48.196,kallum_motion_pilot,2023.2.2,Win32,15.97444089,641864aab32516db86d5077d,65d2b6c8f2eece985d8e374c,65d2b85f76587dd967e01ec2,0.0351,0.0351,0,126,126,100,1,sevenfive,,,,,,,,,,,,,,,,,,,,,,,,,,,,,,,,,,,,,,,,,,,,,,,,,,,,,,,,,,,,,,,,,,,,,,,,,,,,,,,,,,,,,,,,,,,,,,,,,,,,,,,,,,,,,,,,,,,,,,,,,,,,,,,,,,,,,,,,,
,,641864aab32516db86d5077d,2024-02-19_02h09.48.196,kallum_motion_pilot,2023.2.2,Win32,15.97444089,641864aab32516db86d5077d,65d2b6c8f2eece985d8e374c,65d2b85f76587dd967e01ec2,0.0352,0.0353,0,127,127,17,1,onethree,,,,,,,,,,,,,,,,,,,,,,,,,,,,,,,,,,,,,,,,,,,,,,,,,,,,,,,,,,,,,,,,,,,,,,,,,,,,,,,,,,,,,,,,,,,,,,,,,,,,,,,,,,,,,,,,,,,,,,,,,,,,,,,,,,,,,,,,,
,,641864aab32516db86d5077d,2024-02-19_02h09.48.196,kallum_motion_pilot,2023.2.2,Win32,15.97444089,641864aab32516db86d5077d,65d2b6c8f2eece985d8e374c,65d2b85f76587dd967e01ec2,0.0353,0.0354,0,128,128,149,1,seveneight,,,,,,,,,,,,,,,,,,,,,,,,,,,,,,,,,,,,,,,,,,,,,,,,,,,,,,,,,,,,,,,,,,,,,,,,,,,,,,,,,,,,,,,,,,,,,,,,,,,,,,,,,,,,,,,,,,,,,,,,,,,,,,,,,,,,,,,,,
,,641864aab32516db86d5077d,2024-02-19_02h09.48.196,kallum_motion_pilot,2023.2.2,Win32,15.97444089,641864aab32516db86d5077d,65d2b6c8f2eece985d8e374c,65d2b85f76587dd967e01ec2,0.0354,0.0354,0,129,129,37,1,threefour,,,,,,,,,,,,,,,,,,,,,,,,,,,,,,,,,,,,,,,,,,,,,,,,,,,,,,,,,,,,,,,,,,,,,,,,,,,,,,,,,,,,,,,,,,,,,,,,,,,,,,,,,,,,,,,,,,,,,,,,,,,,,,,,,,,,,,,,,
,,641864aab32516db86d5077d,2024-02-19_02h09.48.196,kallum_motion_pilot,2023.2.2,Win32,15.97444089,641864aab32516db86d5077d,65d2b6c8f2eece985d8e374c,65d2b85f76587dd967e01ec2,0.0355,0.0355,0,130,130,111,1,eightseven,,,,,,,,,,,,,,,,,,,,,,,,,,,,,,,,,,,,,,,,,,,,,,,,,,,,,,,,,,,,,,,,,,,,,,,,,,,,,,,,,,,,,,,,,,,,,,,,,,,,,,,,,,,,,,,,,,,,,,,,,,,,,,,,,,,,,,,,,
,,641864aab32516db86d5077d,2024-02-19_02h09.48.196,kallum_motion_pilot,2023.2.2,Win32,15.97444089,641864aab32516db86d5077d,65d2b6c8f2eece985d8e374c,65d2b85f76587dd967e01ec2,0.0355,0.0355,0,131,131,3,1,twofour,,,,,,,,,,,,,,,,,,,,,,,,,,,,,,,,,,,,,,,,,,,,,,,,,,,,,,,,,,,,,,,,,,,,,,,,,,,,,,,,,,,,,,,,,,,,,,,,,,,,,,,,,,,,,,,,,,,,,,,,,,,,,,,,,,,,,,,,,
,,641864aab32516db86d5077d,2024-02-19_02h09.48.196,kallum_motion_pilot,2023.2.2,Win32,15.97444089,641864aab32516db86d5077d,65d2b6c8f2eece985d8e374c,65d2b85f76587dd967e01ec2,0.0356,0.0356,0,132,132,58,1,twoone,,,,,,,,,,,,,,,,,,,,,,,,,,,,,,,,,,,,,,,,,,,,,,,,,,,,,,,,,,,,,,,,,,,,,,,,,,,,,,,,,,,,,,,,,,,,,,,,,,,,,,,,,,,,,,,,,,,,,,,,,,,,,,,,,,,,,,,,,
,,641864aab32516db86d5077d,2024-02-19_02h09.48.196,kallum_motion_pilot,2023.2.2,Win32,15.97444089,641864aab32516db86d5077d,65d2b6c8f2eece985d8e374c,65d2b85f76587dd967e01ec2,0.0357,0.0357,0,133,133,43,1,twofour,,,,,,,,,,,,,,,,,,,,,,,,,,,,,,,,,,,,,,,,,,,,,,,,,,,,,,,,,,,,,,,,,,,,,,,,,,,,,,,,,,,,,,,,,,,,,,,,,,,,,,,,,,,,,,,,,,,,,,,,,,,,,,,,,,,,,,,,,
,,641864aab32516db86d5077d,2024-02-19_02h09.48.196,kallum_motion_pilot,2023.2.2,Win32,15.97444089,641864aab32516db86d5077d,65d2b6c8f2eece985d8e374c,65d2b85f76587dd967e01ec2,0.0357,0.0358,0,134,134,11,1,twofour,,,,,,,,,,,,,,,,,,,,,,,,,,,,,,,,,,,,,,,,,,,,,,,,,,,,,,,,,,,,,,,,,,,,,,,,,,,,,,,,,,,,,,,,,,,,,,,,,,,,,,,,,,,,,,,,,,,,,,,,,,,,,,,,,,,,,,,,,
,,641864aab32516db86d5077d,2024-02-19_02h09.48.196,kallum_motion_pilot,2023.2.2,Win32,15.97444089,641864aab32516db86d5077d,65d2b6c8f2eece985d8e374c,65d2b85f76587dd967e01ec2,0.0359,0.0359,0,135,135,112,1,fivesix,,,,,,,,,,,,,,,,,,,,,,,,,,,,,,,,,,,,,,,,,,,,,,,,,,,,,,,,,,,,,,,,,,,,,,,,,,,,,,,,,,,,,,,,,,,,,,,,,,,,,,,,,,,,,,,,,,,,,,,,,,,,,,,,,,,,,,,,,
,,641864aab32516db86d5077d,2024-02-19_02h09.48.196,kallum_motion_pilot,2023.2.2,Win32,15.97444089,641864aab32516db86d5077d,65d2b6c8f2eece985d8e374c,65d2b85f76587dd967e01ec2,0.0359,0.036,0,136,136,86,1,eightsix,,,,,,,,,,,,,,,,,,,,,,,,,,,,,,,,,,,,,,,,,,,,,,,,,,,,,,,,,,,,,,,,,,,,,,,,,,,,,,,,,,,,,,,,,,,,,,,,,,,,,,,,,,,,,,,,,,,,,,,,,,,,,,,,,,,,,,,,,
,,641864aab32516db86d5077d,2024-02-19_02h09.48.196,kallum_motion_pilot,2023.2.2,Win32,15.97444089,641864aab32516db86d5077d,65d2b6c8f2eece985d8e374c,65d2b85f76587dd967e01ec2,0.036,0.036,0,137,137,53,1,threefour,,,,,,,,,,,,,,,,,,,,,,,,,,,,,,,,,,,,,,,,,,,,,,,,,,,,,,,,,,,,,,,,,,,,,,,,,,,,,,,,,,,,,,,,,,,,,,,,,,,,,,,,,,,,,,,,,,,,,,,,,,,,,,,,,,,,,,,,,
,,641864aab32516db86d5077d,2024-02-19_02h09.48.196,kallum_motion_pilot,2023.2.2,Win32,15.97444089,641864aab32516db86d5077d,65d2b6c8f2eece985d8e374c,65d2b85f76587dd967e01ec2,0.0361,0.0362,0,138,138,103,1,eightseven,,,,,,,,,,,,,,,,,,,,,,,,,,,,,,,,,,,,,,,,,,,,,,,,,,,,,,,,,,,,,,,,,,,,,,,,,,,,,,,,,,,,,,,,,,,,,,,,,,,,,,,,,,,,,,,,,,,,,,,,,,,,,,,,,,,,,,,,,
,,641864aab32516db86d5077d,2024-02-19_02h09.48.196,kallum_motion_pilot,2023.2.2,Win32,15.97444089,641864aab32516db86d5077d,65d2b6c8f2eece985d8e374c,65d2b85f76587dd967e01ec2,0.0362,0.0362,0,139,139,10,1,twoone,,,,,,,,,,,,,,,,,,,,,,,,,,,,,,,,,,,,,,,,,,,,,,,,,,,,,,,,,,,,,,,,,,,,,,,,,,,,,,,,,,,,,,,,,,,,,,,,,,,,,,,,,,,,,,,,,,,,,,,,,,,,,,,,,,,,,,,,,
,,641864aab32516db86d5077d,2024-02-19_02h09.48.196,kallum_motion_pilot,2023.2.2,Win32,15.97444089,641864aab32516db86d5077d,65d2b6c8f2eece985d8e374c,65d2b85f76587dd967e01ec2,0.0363,0.0363,0,140,140,108,1,sevenfive,,,,,,,,,,,,,,,,,,,,,,,,,,,,,,,,,,,,,,,,,,,,,,,,,,,,,,,,,,,,,,,,,,,,,,,,,,,,,,,,,,,,,,,,,,,,,,,,,,,,,,,,,,,,,,,,,,,,,,,,,,,,,,,,,,,,,,,,,
,,641864aab32516db86d5077d,2024-02-19_02h09.48.196,kallum_motion_pilot,2023.2.2,Win32,15.97444089,641864aab32516db86d5077d,65d2b6c8f2eece985d8e374c,65d2b85f76587dd967e01ec2,0.0364,0.0364,0,141,141,45,1,threefour,,,,,,,,,,,,,,,,,,,,,,,,,,,,,,,,,,,,,,,,,,,,,,,,,,,,,,,,,,,,,,,,,,,,,,,,,,,,,,,,,,,,,,,,,,,,,,,,,,,,,,,,,,,,,,,,,,,,,,,,,,,,,,,,,,,,,,,,,
,,641864aab32516db86d5077d,2024-02-19_02h09.48.196,kallum_motion_pilot,2023.2.2,Win32,15.97444089,641864aab32516db86d5077d,65d2b6c8f2eece985d8e374c,65d2b85f76587dd967e01ec2,0.0364,0.0364,0,142,142,137,1,fiveseven,,,,,,,,,,,,,,,,,,,,,,,,,,,,,,,,,,,,,,,,,,,,,,,,,,,,,,,,,,,,,,,,,,,,,,,,,,,,,,,,,,,,,,,,,,,,,,,,,,,,,,,,,,,,,,,,,,,,,,,,,,,,,,,,,,,,,,,,,
,,641864aab32516db86d5077d,2024-02-19_02h09.48.196,kallum_motion_pilot,2023.2.2,Win32,15.97444089,641864aab32516db86d5077d,65d2b6c8f2eece985d8e374c,65d2b85f76587dd967e01ec2,0.0365,0.0366,0,143,143,115,1,sixeight,,,,,,,,,,,,,,,,,,,,,,,,,,,,,,,,,,,,,,,,,,,,,,,,,,,,,,,,,,,,,,,,,,,,,,,,,,,,,,,,,,,,,,,,,,,,,,,,,,,,,,,,,,,,,,,,,,,,,,,,,,,,,,,,,,,,,,,,,
,,641864aab32516db86d5077d,2024-02-19_02h09.48.196,kallum_motion_pilot,2023.2.2,Win32,15.97444089,641864aab32516db86d5077d,65d2b6c8f2eece985d8e374c,65d2b85f76587dd967e01ec2,0.0366,0.0366,0,144,144,64,1,onetwo,,,,,,,,,,,,,,,,,,,,,,,,,,,,,,,,,,,,,,,,,,,,,,,,,,,,,,,,,,,,,,,,,,,,,,,,,,,,,,,,,,,,,,,,,,,,,,,,,,,,,,,,,,,,,,,,,,,,,,,,,,,,,,,,,,,,,,,,,
,,641864aab32516db86d5077d,2024-02-19_02h09.48.196,kallum_motion_pilot,2023.2.2,Win32,15.97444089,641864aab32516db86d5077d,65d2b6c8f2eece985d8e374c,65d2b85f76587dd967e01ec2,0.0367,0.0367,0,145,145,68,1,threeone,,,,,,,,,,,,,,,,,,,,,,,,,,,,,,,,,,,,,,,,,,,,,,,,,,,,,,,,,,,,,,,,,,,,,,,,,,,,,,,,,,,,,,,,,,,,,,,,,,,,,,,,,,,,,,,,,,,,,,,,,,,,,,,,,,,,,,,,,
,,641864aab32516db86d5077d,2024-02-19_02h09.48.196,kallum_motion_pilot,2023.2.2,Win32,15.97444089,641864aab32516db86d5077d,65d2b6c8f2eece985d8e374c,65d2b85f76587dd967e01ec2,0.0368,0.0368,0,146,146,51,1,twofour,,,,,,,,,,,,,,,,,,,,,,,,,,,,,,,,,,,,,,,,,,,,,,,,,,,,,,,,,,,,,,,,,,,,,,,,,,,,,,,,,,,,,,,,,,,,,,,,,,,,,,,,,,,,,,,,,,,,,,,,,,,,,,,,,,,,,,,,,
,,641864aab32516db86d5077d,2024-02-19_02h09.48.196,kallum_motion_pilot,2023.2.2,Win32,15.97444089,641864aab32516db86d5077d,65d2b6c8f2eece985d8e374c,65d2b85f76587dd967e01ec2,0.0368,0.0369,0,147,147,130,1,sixfive,,,,,,,,,,,,,,,,,,,,,,,,,,,,,,,,,,,,,,,,,,,,,,,,,,,,,,,,,,,,,,,,,,,,,,,,,,,,,,,,,,,,,,,,,,,,,,,,,,,,,,,,,,,,,,,,,,,,,,,,,,,,,,,,,,,,,,,,,
,,641864aab32516db86d5077d,2024-02-19_02h09.48.196,kallum_motion_pilot,2023.2.2,Win32,15.97444089,641864aab32516db86d5077d,65d2b6c8f2eece985d8e374c,65d2b85f76587dd967e01ec2,0.0369,0.0369,0,148,148,125,1,seveneight,,,,,,,,,,,,,,,,,,,,,,,,,,,,,,,,,,,,,,,,,,,,,,,,,,,,,,,,,,,,,,,,,,,,,,,,,,,,,,,,,,,,,,,,,,,,,,,,,,,,,,,,,,,,,,,,,,,,,,,,,,,,,,,,,,,,,,,,,
,,641864aab32516db86d5077d,2024-02-19_02h09.48.196,kallum_motion_pilot,2023.2.2,Win32,15.97444089,641864aab32516db86d5077d,65d2b6c8f2eece985d8e374c,65d2b85f76587dd967e01ec2,0.037,0.037,0,149,149,154,1,sixfive,,,,,,,,,,,,,,,,,,,,,,,,,,,,,,,,,,,,,,,,,,,,,,,,,,,,,,,,,,,,,,,,,,,,,,,,,,,,,,,,,,,,,,,,,,,,,,,,,,,,,,,,,,,,,,,,,,,,,,,,,,,,,,,,,,,,,,,,,
,,641864aab32516db86d5077d,2024-02-19_02h09.48.196,kallum_motion_pilot,2023.2.2,Win32,15.97444089,641864aab32516db86d5077d,65d2b6c8f2eece985d8e374c,65d2b85f76587dd967e01ec2,0.0371,0.0371,0,150,150,133,1,seveneight,,,,,,,,,,,,,,,,,,,,,,,,,,,,,,,,,,,,,,,,,,,,,,,,,,,,,,,,,,,,,,,,,,,,,,,,,,,,,,,,,,,,,,,,,,,,,,,,,,,,,,,,,,,,,,,,,,,,,,,,,,,,,,,,,,,,,,,,,
,,641864aab32516db86d5077d,2024-02-19_02h09.48.196,kallum_motion_pilot,2023.2.2,Win32,15.97444089,641864aab32516db86d5077d,65d2b6c8f2eece985d8e374c,65d2b85f76587dd967e01ec2,0.0372,0.0372,0,151,151,59,1,twofour,,,,,,,,,,,,,,,,,,,,,,,,,,,,,,,,,,,,,,,,,,,,,,,,,,,,,,,,,,,,,,,,,,,,,,,,,,,,,,,,,,,,,,,,,,,,,,,,,,,,,,,,,,,,,,,,,,,,,,,,,,,,,,,,,,,,,,,,,
,,641864aab32516db86d5077d,2024-02-19_02h09.48.196,kallum_motion_pilot,2023.2.2,Win32,15.97444089,641864aab32516db86d5077d,65d2b6c8f2eece985d8e374c,65d2b85f76587dd967e01ec2,0.0372,0.0372,0,152,152,63,1,fourthree,,,,,,,,,,,,,,,,,,,,,,,,,,,,,,,,,,,,,,,,,,,,,,,,,,,,,,,,,,,,,,,,,,,,,,,,,,,,,,,,,,,,,,,,,,,,,,,,,,,,,,,,,,,,,,,,,,,,,,,,,,,,,,,,,,,,,,,,,
,,641864aab32516db86d5077d,2024-02-19_02h09.48.196,kallum_motion_pilot,2023.2.2,Win32,15.97444089,641864aab32516db86d5077d,65d2b6c8f2eece985d8e374c,65d2b85f76587dd967e01ec2,0.0373,0.0374,0,153,153,138,1,sixfive,,,,,,,,,,,,,,,,,,,,,,,,,,,,,,,,,,,,,,,,,,,,,,,,,,,,,,,,,,,,,,,,,,,,,,,,,,,,,,,,,,,,,,,,,,,,,,,,,,,,,,,,,,,,,,,,,,,,,,,,,,,,,,,,,,,,,,,,,
,,641864aab32516db86d5077d,2024-02-19_02h09.48.196,kallum_motion_pilot,2023.2.2,Win32,15.97444089,641864aab32516db86d5077d,65d2b6c8f2eece985d8e374c,65d2b85f76587dd967e01ec2,0.0374,0.0374,0,154,154,14,1,fourtwo,,,,,,,,,,,,,,,,,,,,,,,,,,,,,,,,,,,,,,,,,,,,,,,,,,,,,,,,,,,,,,,,,,,,,,,,,,,,,,,,,,,,,,,,,,,,,,,,,,,,,,,,,,,,,,,,,,,,,,,,,,,,,,,,,,,,,,,,,
,,641864aab32516db86d5077d,2024-02-19_02h09.48.196,kallum_motion_pilot,2023.2.2,Win32,15.97444089,641864aab32516db86d5077d,65d2b6c8f2eece985d8e374c,65d2b85f76587dd967e01ec2,0.0375,0.0375,0,155,155,128,1,fivesix,,,,,,,,,,,,,,,,,,,,,,,,,,,,,,,,,,,,,,,,,,,,,,,,,,,,,,,,,,,,,,,,,,,,,,,,,,,,,,,,,,,,,,,,,,,,,,,,,,,,,,,,,,,,,,,,,,,,,,,,,,,,,,,,,,,,,,,,,
,,641864aab32516db86d5077d,2024-02-19_02h09.48.196,kallum_motion_pilot,2023.2.2,Win32,15.97444089,641864aab32516db86d5077d,65d2b6c8f2eece985d8e374c,65d2b85f76587dd967e01ec2,0.0376,0.0376,0,156,156,2,1,twoone,,,,,,,,,,,,,,,,,,,,,,,,,,,,,,,,,,,,,,,,,,,,,,,,,,,,,,,,,,,,,,,,,,,,,,,,,,,,,,,,,,,,,,,,,,,,,,,,,,,,,,,,,,,,,,,,,,,,,,,,,,,,,,,,,,,,,,,,,
,,641864aab32516db86d5077d,2024-02-19_02h09.48.196,kallum_motion_pilot,2023.2.2,Win32,15.97444089,641864aab32516db86d5077d,65d2b6c8f2eece985d8e374c,65d2b85f76587dd967e01ec2,0.0376,0.0377,0,157,157,9,1,onethree,,,,,,,,,,,,,,,,,,,,,,,,,,,,,,,,,,,,,,,,,,,,,,,,,,,,,,,,,,,,,,,,,,,,,,,,,,,,,,,,,,,,,,,,,,,,,,,,,,,,,,,,,,,,,,,,,,,,,,,,,,,,,,,,,,,,,,,,,
,,641864aab32516db86d5077d,2024-02-19_02h09.48.196,kallum_motion_pilot,2023.2.2,Win32,15.97444089,641864aab32516db86d5077d,65d2b6c8f2eece985d8e374c,65d2b85f76587dd967e01ec2,0.0377,0.0377,0,158,158,147,1,sixeight,,,,,,,,,,,,,,,,,,,,,,,,,,,,,,,,,,,,,,,,,,,,,,,,,,,,,,,,,,,,,,,,,,,,,,,,,,,,,,,,,,,,,,,,,,,,,,,,,,,,,,,,,,,,,,,,,,,,,,,,,,,,,,,,,,,,,,,,,
,,641864aab32516db86d5077d,2024-02-19_02h09.48.196,kallum_motion_pilot,2023.2.2,Win32,15.97444089,641864aab32516db86d5077d,65d2b6c8f2eece985d8e374c,65d2b85f76587dd967e01ec2,0.0377,0.0379,0,159,159,67,1,twofour,,,,,,,,,,,,,,,,,,,,,,,,,,,,,,,,,,,,,,,,,,,,,,,,,,,,,,,,,,,,,,,,,,,,,,,,,,,,,,,,,,,,,,,,,,,,,,,,,,,,,,,,,,,,,,,,,,,,,,,,,,,,,,,,,,,,,,,,,
,,641864aab32516db86d5077d,2024-02-19_02h09.48.196,kallum_motion_pilot,2023.2.2,Win32,15.97444089,641864aab32516db86d5077d,65d2b6c8f2eece985d8e374c,65d2b85f76587dd967e01ec2,0.0379,0.0379,0,160,160,107,1,sixeight,,,,,,,,,,,,,,,,,,,,,,,,,,,,,,,,,,,,,,,,,,,,,,,,,,,,,,,,,,,,,,,,,,,,,,,,,,,,,,,,,,,,,,,,,,,,,,,,,,,,,,,,,,,,,,,,,,,,,,,,,,,,,,,,,,,,,,,,,
,,641864aab32516db86d5077d,2024-02-19_02h09.48.196,kallum_motion_pilot,2023.2.2,Win32,15.97444089,641864aab32516db86d5077d,65d2b6c8f2eece985d8e374c,65d2b85f76587dd967e01ec2,0.038,0.038,0,161,161,15,1,fourthree,,,,,,,,,,,,,,,,,,,,,,,,,,,,,,,,,,,,,,,,,,,,,,,,,,,,,,,,,,,,,,,,,,,,,,,,,,,,,,,,,,,,,,,,,,,,,,,,,,,,,,,,,,,,,,,,,,,,,,,,,,,,,,,,,,,,,,,,,
,,641864aab32516db86d5077d,2024-02-19_02h09.48.196,kallum_motion_pilot,2023.2.2,Win32,15.97444089,641864aab32516db86d5077d,65d2b6c8f2eece985d8e374c,65d2b85f76587dd967e01ec2,0.038,0.0381,1,0,162,114,1,sixfive,,,,,,,,,,,,,,,,,,,,,,,,,,,,,,,,,,,,,,,,,,,,,,,,,,,,,,,,,,,,,,,,,,,,,,,,,,,,,,,,,,,,,,,,,,,,,,,,,,,,,,,,,,,,,,,,,,,,,,,,,,,,,,,,,,,,,,,,,
,,641864aab32516db86d5077d,2024-02-19_02h09.48.196,kallum_motion_pilot,2023.2.2,Win32,15.97444089,641864aab32516db86d5077d,65d2b6c8f2eece985d8e374c,65d2b85f76587dd967e01ec2,0.0382,0.0382,1,1,163,126,1,eightsix,,,,,,,,,,,,,,,,,,,,,,,,,,,,,,,,,,,,,,,,,,,,,,,,,,,,,,,,,,,,,,,,,,,,,,,,,,,,,,,,,,,,,,,,,,,,,,,,,,,,,,,,,,,,,,,,,,,,,,,,,,,,,,,,,,,,,,,,,
,,641864aab32516db86d5077d,2024-02-19_02h09.48.196,kallum_motion_pilot,2023.2.2,Win32,15.97444089,641864aab32516db86d5077d,65d2b6c8f2eece985d8e374c,65d2b85f76587dd967e01ec2,0.0382,0.0382,1,2,164,30,1,fourtwo,,,,,,,,,,,,,,,,,,,,,,,,,,,,,,,,,,,,,,,,,,,,,,,,,,,,,,,,,,,,,,,,,,,,,,,,,,,,,,,,,,,,,,,,,,,,,,,,,,,,,,,,,,,,,,,,,,,,,,,,,,,,,,,,,,,,,,,,,
,,641864aab32516db86d5077d,2024-02-19_02h09.48.196,kallum_motion_pilot,2023.2.2,Win32,15.97444089,641864aab32516db86d5077d,65d2b6c8f2eece985d8e374c,65d2b85f76587dd967e01ec2,0.0383,0.0383,1,3,165,84,1,sevenfive,,,,,,,,,,,,,,,,,,,,,,,,,,,,,,,,,,,,,,,,,,,,,,,,,,,,,,,,,,,,,,,,,,,,,,,,,,,,,,,,,,,,,,,,,,,,,,,,,,,,,,,,,,,,,,,,,,,,,,,,,,,,,,,,,,,,,,,,,
,,641864aab32516db86d5077d,2024-02-19_02h09.48.196,kallum_motion_pilot,2023.2.2,Win32,15.97444089,641864aab32516db86d5077d,65d2b6c8f2eece985d8e374c,65d2b85f76587dd967e01ec2,0.0383,0.0384,1,4,166,161,1,fiveseven,,,,,,,,,,,,,,,,,,,,,,,,,,,,,,,,,,,,,,,,,,,,,,,,,,,,,,,,,,,,,,,,,,,,,,,,,,,,,,,,,,,,,,,,,,,,,,,,,,,,,,,,,,,,,,,,,,,,,,,,,,,,,,,,,,,,,,,,,
,,641864aab32516db86d5077d,2024-02-19_02h09.48.196,kallum_motion_pilot,2023.2.2,Win32,15.97444089,641864aab32516db86d5077d,65d2b6c8f2eece985d8e374c,65d2b85f76587dd967e01ec2,0.0384,0.0384,1,5,167,133,1,seveneight,,,,,,,,,,,,,,,,,,,,,,,,,,,,,,,,,,,,,,,,,,,,,,,,,,,,,,,,,,,,,,,,,,,,,,,,,,,,,,,,,,,,,,,,,,,,,,,,,,,,,,,,,,,,,,,,,,,,,,,,,,,,,,,,,,,,,,,,,
,,641864aab32516db86d5077d,2024-02-19_02h09.48.196,kallum_motion_pilot,2023.2.2,Win32,15.97444089,641864aab32516db86d5077d,65d2b6c8f2eece985d8e374c,65d2b85f76587dd967e01ec2,0.0385,0.0386,1,6,168,134,1,eightsix,,,,,,,,,,,,,,,,,,,,,,,,,,,,,,,,,,,,,,,,,,,,,,,,,,,,,,,,,,,,,,,,,,,,,,,,,,,,,,,,,,,,,,,,,,,,,,,,,,,,,,,,,,,,,,,,,,,,,,,,,,,,,,,,,,,,,,,,,
,,641864aab32516db86d5077d,2024-02-19_02h09.48.196,kallum_motion_pilot,2023.2.2,Win32,15.97444089,641864aab32516db86d5077d,65d2b6c8f2eece985d8e374c,65d2b85f76587dd967e01ec2,0.0386,0.0387,1,7,169,78,1,fourtwo,,,,,,,,,,,,,,,,,,,,,,,,,,,,,,,,,,,,,,,,,,,,,,,,,,,,,,,,,,,,,,,,,,,,,,,,,,,,,,,,,,,,,,,,,,,,,,,,,,,,,,,,,,,,,,,,,,,,,,,,,,,,,,,,,,,,,,,,,
,,641864aab32516db86d5077d,2024-02-19_02h09.48.196,kallum_motion_pilot,2023.2.2,Win32,15.97444089,641864aab32516db86d5077d,65d2b6c8f2eece985d8e374c,65d2b85f76587dd967e01ec2,0.0387,0.0388,1,8,170,93,1,seveneight,,,,,,,,,,,,,,,,,,,,,,,,,,,,,,,,,,,,,,,,,,,,,,,,,,,,,,,,,,,,,,,,,,,,,,,,,,,,,,,,,,,,,,,,,,,,,,,,,,,,,,,,,,,,,,,,,,,,,,,,,,,,,,,,,,,,,,,,,
,,641864aab32516db86d5077d,2024-02-19_02h09.48.196,kallum_motion_pilot,2023.2.2,Win32,15.97444089,641864aab32516db86d5077d,65d2b6c8f2eece985d8e374c,65d2b85f76587dd967e01ec2,0.0388,0.0388,1,9,171,86,1,eightsix,,,,,,,,,,,,,,,,,,,,,,,,,,,,,,,,,,,,,,,,,,,,,,,,,,,,,,,,,,,,,,,,,,,,,,,,,,,,,,,,,,,,,,,,,,,,,,,,,,,,,,,,,,,,,,,,,,,,,,,,,,,,,,,,,,,,,,,,,
,,641864aab32516db86d5077d,2024-02-19_02h09.48.196,kallum_motion_pilot,2023.2.2,Win32,15.97444089,641864aab32516db86d5077d,65d2b6c8f2eece985d8e374c,65d2b85f76587dd967e01ec2,0.0388,0.0389,1,10,172,53,1,threefour,,,,,,,,,,,,,,,,,,,,,,,,,,,,,,,,,,,,,,,,,,,,,,,,,,,,,,,,,,,,,,,,,,,,,,,,,,,,,,,,,,,,,,,,,,,,,,,,,,,,,,,,,,,,,,,,,,,,,,,,,,,,,,,,,,,,,,,,,
,,641864aab32516db86d5077d,2024-02-19_02h09.48.196,kallum_motion_pilot,2023.2.2,Win32,15.97444089,641864aab32516db86d5077d,65d2b6c8f2eece985d8e374c,65d2b85f76587dd967e01ec2,0.0389,0.039,1,11,173,40,1,onetwo,,,,,,,,,,,,,,,,,,,,,,,,,,,,,,,,,,,,,,,,,,,,,,,,,,,,,,,,,,,,,,,,,,,,,,,,,,,,,,,,,,,,,,,,,,,,,,,,,,,,,,,,,,,,,,,,,,,,,,,,,,,,,,,,,,,,,,,,,
,,641864aab32516db86d5077d,2024-02-19_02h09.48.196,kallum_motion_pilot,2023.2.2,Win32,15.97444089,641864aab32516db86d5077d,65d2b6c8f2eece985d8e374c,65d2b85f76587dd967e01ec2,0.0391,0.0391,1,12,174,61,1,threefour,,,,,,,,,,,,,,,,,,,,,,,,,,,,,,,,,,,,,,,,,,,,,,,,,,,,,,,,,,,,,,,,,,,,,,,,,,,,,,,,,,,,,,,,,,,,,,,,,,,,,,,,,,,,,,,,,,,,,,,,,,,,,,,,,,,,,,,,,
,,641864aab32516db86d5077d,2024-02-19_02h09.48.196,kallum_motion_pilot,2023.2.2,Win32,15.97444089,641864aab32516db86d5077d,65d2b6c8f2eece985d8e374c,65d2b85f76587dd967e01ec2,0.0392,0.0392,1,13,175,27,1,twofour,,,,,,,,,,,,,,,,,,,,,,,,,,,,,,,,,,,,,,,,,,,,,,,,,,,,,,,,,,,,,,,,,,,,,,,,,,,,,,,,,,,,,,,,,,,,,,,,,,,,,,,,,,,,,,,,,,,,,,,,,,,,,,,,,,,,,,,,,
,,641864aab32516db86d5077d,2024-02-19_02h09.48.196,kallum_motion_pilot,2023.2.2,Win32,15.97444089,641864aab32516db86d5077d,65d2b6c8f2eece985d8e374c,65d2b85f76587dd967e01ec2,0.0392,0.0393,1,14,176,136,1,fivesix,,,,,,,,,,,,,,,,,,,,,,,,,,,,,,,,,,,,,,,,,,,,,,,,,,,,,,,,,,,,,,,,,,,,,,,,,,,,,,,,,,,,,,,,,,,,,,,,,,,,,,,,,,,,,,,,,,,,,,,,,,,,,,,,,,,,,,,,,
,,641864aab32516db86d5077d,2024-02-19_02h09.48.196,kallum_motion_pilot,2023.2.2,Win32,15.97444089,641864aab32516db86d5077d,65d2b6c8f2eece985d8e374c,65d2b85f76587dd967e01ec2,0.0394,0.0394,1,15,177,43,1,twofour,,,,,,,,,,,,,,,,,,,,,,,,,,,,,,,,,,,,,,,,,,,,,,,,,,,,,,,,,,,,,,,,,,,,,,,,,,,,,,,,,,,,,,,,,,,,,,,,,,,,,,,,,,,,,,,,,,,,,,,,,,,,,,,,,,,,,,,,,
,,641864aab32516db86d5077d,2024-02-19_02h09.48.196,kallum_motion_pilot,2023.2.2,Win32,15.97444089,641864aab32516db86d5077d,65d2b6c8f2eece985d8e374c,65d2b85f76587dd967e01ec2,0.0395,0.0395,1,16,178,45,1,threefour,,,,,,,,,,,,,,,,,,,,,,,,,,,,,,,,,,,,,,,,,,,,,,,,,,,,,,,,,,,,,,,,,,,,,,,,,,,,,,,,,,,,,,,,,,,,,,,,,,,,,,,,,,,,,,,,,,,,,,,,,,,,,,,,,,,,,,,,,
,,641864aab32516db86d5077d,2024-02-19_02h09.48.196,kallum_motion_pilot,2023.2.2,Win32,15.97444089,641864aab32516db86d5077d,65d2b6c8f2eece985d8e374c,65d2b85f76587dd967e01ec2,0.0395,0.0396,1,17,179,118,1,eightsix,,,,,,,,,,,,,,,,,,,,,,,,,,,,,,,,,,,,,,,,,,,,,,,,,,,,,,,,,,,,,,,,,,,,,,,,,,,,,,,,,,,,,,,,,,,,,,,,,,,,,,,,,,,,,,,,,,,,,,,,,,,,,,,,,,,,,,,,,
,,641864aab32516db86d5077d,2024-02-19_02h09.48.196,kallum_motion_pilot,2023.2.2,Win32,15.97444089,641864aab32516db86d5077d,65d2b6c8f2eece985d8e374c,65d2b85f76587dd967e01ec2,0.0396,0.0397,1,18,180,144,1,fivesix,,,,,,,,,,,,,,,,,,,,,,,,,,,,,,,,,,,,,,,,,,,,,,,,,,,,,,,,,,,,,,,,,,,,,,,,,,,,,,,,,,,,,,,,,,,,,,,,,,,,,,,,,,,,,,,,,,,,,,,,,,,,,,,,,,,,,,,,,
,,641864aab32516db86d5077d,2024-02-19_02h09.48.196,kallum_motion_pilot,2023.2.2,Win32,15.97444089,641864aab32516db86d5077d,65d2b6c8f2eece985d8e374c,65d2b85f76587dd967e01ec2,0.0397,0.0398,1,19,181,52,1,threeone,,,,,,,,,,,,,,,,,,,,,,,,,,,,,,,,,,,,,,,,,,,,,,,,,,,,,,,,,,,,,,,,,,,,,,,,,,,,,,,,,,,,,,,,,,,,,,,,,,,,,,,,,,,,,,,,,,,,,,,,,,,,,,,,,,,,,,,,,
,,641864aab32516db86d5077d,2024-02-19_02h09.48.196,kallum_motion_pilot,2023.2.2,Win32,15.97444089,641864aab32516db86d5077d,65d2b6c8f2eece985d8e374c,65d2b85f76587dd967e01ec2,0.0398,0.0398,1,20,182,75,1,twofour,,,,,,,,,,,,,,,,,,,,,,,,,,,,,,,,,,,,,,,,,,,,,,,,,,,,,,,,,,,,,,,,,,,,,,,,,,,,,,,,,,,,,,,,,,,,,,,,,,,,,,,,,,,,,,,,,,,,,,,,,,,,,,,,,,,,,,,,,
,,641864aab32516db86d5077d,2024-02-19_02h09.48.196,kallum_motion_pilot,2023.2.2,Win32,15.97444089,641864aab32516db86d5077d,65d2b6c8f2eece985d8e374c,65d2b85f76587dd967e01ec2,0.0399,0.0399,1,21,183,32,1,onetwo,,,,,,,,,,,,,,,,,,,,,,,,,,,,,,,,,,,,,,,,,,,,,,,,,,,,,,,,,,,,,,,,,,,,,,,,,,,,,,,,,,,,,,,,,,,,,,,,,,,,,,,,,,,,,,,,,,,,,,,,,,,,,,,,,,,,,,,,,
,,641864aab32516db86d5077d,2024-02-19_02h09.48.196,kallum_motion_pilot,2023.2.2,Win32,15.97444089,641864aab32516db86d5077d,65d2b6c8f2eece985d8e374c,65d2b85f76587dd967e01ec2,0.04,0.04,1,22,184,90,1,sixfive,,,,,,,,,,,,,,,,,,,,,,,,,,,,,,,,,,,,,,,,,,,,,,,,,,,,,,,,,,,,,,,,,,,,,,,,,,,,,,,,,,,,,,,,,,,,,,,,,,,,,,,,,,,,,,,,,,,,,,,,,,,,,,,,,,,,,,,,,
,,641864aab32516db86d5077d,2024-02-19_02h09.48.196,kallum_motion_pilot,2023.2.2,Win32,15.97444089,641864aab32516db86d5077d,65d2b6c8f2eece985d8e374c,65d2b85f76587dd967e01ec2,0.0401,0.0401,1,23,185,96,1,fivesix,,,,,,,,,,,,,,,,,,,,,,,,,,,,,,,,,,,,,,,,,,,,,,,,,,,,,,,,,,,,,,,,,,,,,,,,,,,,,,,,,,,,,,,,,,,,,,,,,,,,,,,,,,,,,,,,,,,,,,,,,,,,,,,,,,,,,,,,,
,,641864aab32516db86d5077d,2024-02-19_02h09.48.196,kallum_motion_pilot,2023.2.2,Win32,15.97444089,641864aab32516db86d5077d,65d2b6c8f2eece985d8e374c,65d2b85f76587dd967e01ec2,0.0401,0.0402,1,24,186,120,1,fivesix,,,,,,,,,,,,,,,,,,,,,,,,,,,,,,,,,,,,,,,,,,,,,,,,,,,,,,,,,,,,,,,,,,,,,,,,,,,,,,,,,,,,,,,,,,,,,,,,,,,,,,,,,,,,,,,,,,,,,,,,,,,,,,,,,,,,,,,,,
,,641864aab32516db86d5077d,2024-02-19_02h09.48.196,kallum_motion_pilot,2023.2.2,Win32,15.97444089,641864aab32516db86d5077d,65d2b6c8f2eece985d8e374c,65d2b85f76587dd967e01ec2,0.0402,0.0403,1,25,187,112,1,fivesix,,,,,,,,,,,,,,,,,,,,,,,,,,,,,,,,,,,,,,,,,,,,,,,,,,,,,,,,,,,,,,,,,,,,,,,,,,,,,,,,,,,,,,,,,,,,,,,,,,,,,,,,,,,,,,,,,,,,,,,,,,,,,,,,,,,,,,,,,
,,641864aab32516db86d5077d,2024-02-19_02h09.48.196,kallum_motion_pilot,2023.2.2,Win32,15.97444089,641864aab32516db86d5077d,65d2b6c8f2eece985d8e374c,65d2b85f76587dd967e01ec2,0.0404,0.0404,1,26,188,60,1,threeone,,,,,,,,,,,,,,,,,,,,,,,,,,,,,,,,,,,,,,,,,,,,,,,,,,,,,,,,,,,,,,,,,,,,,,,,,,,,,,,,,,,,,,,,,,,,,,,,,,,,,,,,,,,,,,,,,,,,,,,,,,,,,,,,,,,,,,,,,
,,641864aab32516db86d5077d,2024-02-19_02h09.48.196,kallum_motion_pilot,2023.2.2,Win32,15.97444089,641864aab32516db86d5077d,65d2b6c8f2eece985d8e374c,65d2b85f76587dd967e01ec2,0.0405,0.0405,1,27,189,17,1,onethree,,,,,,,,,,,,,,,,,,,,,,,,,,,,,,,,,,,,,,,,,,,,,,,,,,,,,,,,,,,,,,,,,,,,,,,,,,,,,,,,,,,,,,,,,,,,,,,,,,,,,,,,,,,,,,,,,,,,,,,,,,,,,,,,,,,,,,,,,
,,641864aab32516db86d5077d,2024-02-19_02h09.48.196,kallum_motion_pilot,2023.2.2,Win32,15.97444089,641864aab32516db86d5077d,65d2b6c8f2eece985d8e374c,65d2b85f76587dd967e01ec2,0.0406,0.0406,1,28,190,42,1,twoone,,,,,,,,,,,,,,,,,,,,,,,,,,,,,,,,,,,,,,,,,,,,,,,,,,,,,,,,,,,,,,,,,,,,,,,,,,,,,,,,,,,,,,,,,,,,,,,,,,,,,,,,,,,,,,,,,,,,,,,,,,,,,,,,,,,,,,,,,
,,641864aab32516db86d5077d,2024-02-19_02h09.48.196,kallum_motion_pilot,2023.2.2,Win32,15.97444089,641864aab32516db86d5077d,65d2b6c8f2eece985d8e374c,65d2b85f76587dd967e01ec2,0.0407,0.0407,1,29,191,142,1,eightsix,,,,,,,,,,,,,,,,,,,,,,,,,,,,,,,,,,,,,,,,,,,,,,,,,,,,,,,,,,,,,,,,,,,,,,,,,,,,,,,,,,,,,,,,,,,,,,,,,,,,,,,,,,,,,,,,,,,,,,,,,,,,,,,,,,,,,,,,,
,,641864aab32516db86d5077d,2024-02-19_02h09.48.196,kallum_motion_pilot,2023.2.2,Win32,15.97444089,641864aab32516db86d5077d,65d2b6c8f2eece985d8e374c,65d2b85f76587dd967e01ec2,0.0408,0.0408,1,30,192,55,1,fourthree,,,,,,,,,,,,,,,,,,,,,,,,,,,,,,,,,,,,,,,,,,,,,,,,,,,,,,,,,,,,,,,,,,,,,,,,,,,,,,,,,,,,,,,,,,,,,,,,,,,,,,,,,,,,,,,,,,,,,,,,,,,,,,,,,,,,,,,,,
,,641864aab32516db86d5077d,2024-02-19_02h09.48.196,kallum_motion_pilot,2023.2.2,Win32,15.97444089,641864aab32516db86d5077d,65d2b6c8f2eece985d8e374c,65d2b85f76587dd967e01ec2,0.0409,0.0409,1,31,193,128,1,fivesix,,,,,,,,,,,,,,,,,,,,,,,,,,,,,,,,,,,,,,,,,,,,,,,,,,,,,,,,,,,,,,,,,,,,,,,,,,,,,,,,,,,,,,,,,,,,,,,,,,,,,,,,,,,,,,,,,,,,,,,,,,,,,,,,,,,,,,,,,
,,641864aab32516db86d5077d,2024-02-19_02h09.48.196,kallum_motion_pilot,2023.2.2,Win32,15.97444089,641864aab32516db86d5077d,65d2b6c8f2eece985d8e374c,65d2b85f76587dd967e01ec2,0.0409,0.041,1,32,194,57,1,onethree,,,,,,,,,,,,,,,,,,,,,,,,,,,,,,,,,,,,,,,,,,,,,,,,,,,,,,,,,,,,,,,,,,,,,,,,,,,,,,,,,,,,,,,,,,,,,,,,,,,,,,,,,,,,,,,,,,,,,,,,,,,,,,,,,,,,,,,,,
,,641864aab32516db86d5077d,2024-02-19_02h09.48.196,kallum_motion_pilot,2023.2.2,Win32,15.97444089,641864aab32516db86d5077d,65d2b6c8f2eece985d8e374c,65d2b85f76587dd967e01ec2,0.0411,0.0411,1,33,195,66,1,twoone,,,,,,,,,,,,,,,,,,,,,,,,,,,,,,,,,,,,,,,,,,,,,,,,,,,,,,,,,,,,,,,,,,,,,,,,,,,,,,,,,,,,,,,,,,,,,,,,,,,,,,,,,,,,,,,,,,,,,,,,,,,,,,,,,,,,,,,,,
,,641864aab32516db86d5077d,2024-02-19_02h09.48.196,kallum_motion_pilot,2023.2.2,Win32,15.97444089,641864aab32516db86d5077d,65d2b6c8f2eece985d8e374c,65d2b85f76587dd967e01ec2,0.0412,0.0412,1,34,196,12,1,threeone,,,,,,,,,,,,,,,,,,,,,,,,,,,,,,,,,,,,,,,,,,,,,,,,,,,,,,,,,,,,,,,,,,,,,,,,,,,,,,,,,,,,,,,,,,,,,,,,,,,,,,,,,,,,,,,,,,,,,,,,,,,,,,,,,,,,,,,,,
,,641864aab32516db86d5077d,2024-02-19_02h09.48.196,kallum_motion_pilot,2023.2.2,Win32,15.97444089,641864aab32516db86d5077d,65d2b6c8f2eece985d8e374c,65d2b85f76587dd967e01ec2,0.0413,0.0413,1,35,197,72,1,onetwo,,,,,,,,,,,,,,,,,,,,,,,,,,,,,,,,,,,,,,,,,,,,,,,,,,,,,,,,,,,,,,,,,,,,,,,,,,,,,,,,,,,,,,,,,,,,,,,,,,,,,,,,,,,,,,,,,,,,,,,,,,,,,,,,,,,,,,,,,
,,641864aab32516db86d5077d,2024-02-19_02h09.48.196,kallum_motion_pilot,2023.2.2,Win32,15.97444089,641864aab32516db86d5077d,65d2b6c8f2eece985d8e374c,65d2b85f76587dd967e01ec2,0.0413,0.0414,1,36,198,10,1,twoone,,,,,,,,,,,,,,,,,,,,,,,,,,,,,,,,,,,,,,,,,,,,,,,,,,,,,,,,,,,,,,,,,,,,,,,,,,,,,,,,,,,,,,,,,,,,,,,,,,,,,,,,,,,,,,,,,,,,,,,,,,,,,,,,,,,,,,,,,
,,641864aab32516db86d5077d,2024-02-19_02h09.48.196,kallum_motion_pilot,2023.2.2,Win32,15.97444089,641864aab32516db86d5077d,65d2b6c8f2eece985d8e374c,65d2b85f76587dd967e01ec2,0.0414,0.0415,1,37,199,49,1,onethree,,,,,,,,,,,,,,,,,,,,,,,,,,,,,,,,,,,,,,,,,,,,,,,,,,,,,,,,,,,,,,,,,,,,,,,,,,,,,,,,,,,,,,,,,,,,,,,,,,,,,,,,,,,,,,,,,,,,,,,,,,,,,,,,,,,,,,,,,
,,641864aab32516db86d5077d,2024-02-19_02h09.48.196,kallum_motion_pilot,2023.2.2,Win32,15.97444089,641864aab32516db86d5077d,65d2b6c8f2eece985d8e374c,65d2b85f76587dd967e01ec2,0.0416,0.0416,1,38,200,119,1,eightseven,,,,,,,,,,,,,,,,,,,,,,,,,,,,,,,,,,,,,,,,,,,,,,,,,,,,,,,,,,,,,,,,,,,,,,,,,,,,,,,,,,,,,,,,,,,,,,,,,,,,,,,,,,,,,,,,,,,,,,,,,,,,,,,,,,,,,,,,,
,,641864aab32516db86d5077d,2024-02-19_02h09.48.196,kallum_motion_pilot,2023.2.2,Win32,15.97444089,641864aab32516db86d5077d,65d2b6c8f2eece985d8e374c,65d2b85f76587dd967e01ec2,0.0416,0.0417,1,39,201,107,1,sixeight,,,,,,,,,,,,,,,,,,,,,,,,,,,,,,,,,,,,,,,,,,,,,,,,,,,,,,,,,,,,,,,,,,,,,,,,,,,,,,,,,,,,,,,,,,,,,,,,,,,,,,,,,,,,,,,,,,,,,,,,,,,,,,,,,,,,,,,,,
,,641864aab32516db86d5077d,2024-02-19_02h09.48.196,kallum_motion_pilot,2023.2.2,Win32,15.97444089,641864aab32516db86d5077d,65d2b6c8f2eece985d8e374c,65d2b85f76587dd967e01ec2,0.0417,0.0418,1,40,202,152,1,fivesix,,,,,,,,,,,,,,,,,,,,,,,,,,,,,,,,,,,,,,,,,,,,,,,,,,,,,,,,,,,,,,,,,,,,,,,,,,,,,,,,,,,,,,,,,,,,,,,,,,,,,,,,,,,,,,,,,,,,,,,,,,,,,,,,,,,,,,,,,
,,641864aab32516db86d5077d,2024-02-19_02h09.48.196,kallum_motion_pilot,2023.2.2,Win32,15.97444089,641864aab32516db86d5077d,65d2b6c8f2eece985d8e374c,65d2b85f76587dd967e01ec2,0.0419,0.0419,1,41,203,2,1,twoone,,,,,,,,,,,,,,,,,,,,,,,,,,,,,,,,,,,,,,,,,,,,,,,,,,,,,,,,,,,,,,,,,,,,,,,,,,,,,,,,,,,,,,,,,,,,,,,,,,,,,,,,,,,,,,,,,,,,,,,,,,,,,,,,,,,,,,,,,
,,641864aab32516db86d5077d,2024-02-19_02h09.48.196,kallum_motion_pilot,2023.2.2,Win32,15.97444089,641864aab32516db86d5077d,65d2b6c8f2eece985d8e374c,65d2b85f76587dd967e01ec2,0.0419,0.0419,1,42,204,1,1,onethree,,,,,,,,,,,,,,,,,,,,,,,,,,,,,,,,,,,,,,,,,,,,,,,,,,,,,,,,,,,,,,,,,,,,,,,,,,,,,,,,,,,,,,,,,,,,,,,,,,,,,,,,,,,,,,,,,,,,,,,,,,,,,,,,,,,,,,,,,
,,641864aab32516db86d5077d,2024-02-19_02h09.48.196,kallum_motion_pilot,2023.2.2,Win32,15.97444089,641864aab32516db86d5077d,65d2b6c8f2eece985d8e374c,65d2b85f76587dd967e01ec2,0.042,0.0421,1,43,205,108,1,sevenfive,,,,,,,,,,,,,,,,,,,,,,,,,,,,,,,,,,,,,,,,,,,,,,,,,,,,,,,,,,,,,,,,,,,,,,,,,,,,,,,,,,,,,,,,,,,,,,,,,,,,,,,,,,,,,,,,,,,,,,,,,,,,,,,,,,,,,,,,,
,,641864aab32516db86d5077d,2024-02-19_02h09.48.196,kallum_motion_pilot,2023.2.2,Win32,15.97444089,641864aab32516db86d5077d,65d2b6c8f2eece985d8e374c,65d2b85f76587dd967e01ec2,0.0421,0.0422,1,44,206,54,1,fourtwo,,,,,,,,,,,,,,,,,,,,,,,,,,,,,,,,,,,,,,,,,,,,,,,,,,,,,,,,,,,,,,,,,,,,,,,,,,,,,,,,,,,,,,,,,,,,,,,,,,,,,,,,,,,,,,,,,,,,,,,,,,,,,,,,,,,,,,,,,
,,641864aab32516db86d5077d,2024-02-19_02h09.48.196,kallum_motion_pilot,2023.2.2,Win32,15.97444089,641864aab32516db86d5077d,65d2b6c8f2eece985d8e374c,65d2b85f76587dd967e01ec2,0.0422,0.0422,1,45,207,106,1,sixfive,,,,,,,,,,,,,,,,,,,,,,,,,,,,,,,,,,,,,,,,,,,,,,,,,,,,,,,,,,,,,,,,,,,,,,,,,,,,,,,,,,,,,,,,,,,,,,,,,,,,,,,,,,,,,,,,,,,,,,,,,,,,,,,,,,,,,,,,,
,,641864aab32516db86d5077d,2024-02-19_02h09.48.196,kallum_motion_pilot,2023.2.2,Win32,15.97444089,641864aab32516db86d5077d,65d2b6c8f2eece985d8e374c,65d2b85f76587dd967e01ec2,0.0422,0.0424,1,46,208,56,1,onetwo,,,,,,,,,,,,,,,,,,,,,,,,,,,,,,,,,,,,,,,,,,,,,,,,,,,,,,,,,,,,,,,,,,,,,,,,,,,,,,,,,,,,,,,,,,,,,,,,,,,,,,,,,,,,,,,,,,,,,,,,,,,,,,,,,,,,,,,,,
,,641864aab32516db86d5077d,2024-02-19_02h09.48.196,kallum_motion_pilot,2023.2.2,Win32,15.97444089,641864aab32516db86d5077d,65d2b6c8f2eece985d8e374c,65d2b85f76587dd967e01ec2,0.0424,0.0424,1,47,209,123,1,sixeight,,,,,,,,,,,,,,,,,,,,,,,,,,,,,,,,,,,,,,,,,,,,,,,,,,,,,,,,,,,,,,,,,,,,,,,,,,,,,,,,,,,,,,,,,,,,,,,,,,,,,,,,,,,,,,,,,,,,,,,,,,,,,,,,,,,,,,,,,
,,641864aab32516db86d5077d,2024-02-19_02h09.48.196,kallum_motion_pilot,2023.2.2,Win32,15.97444089,641864aab32516db86d5077d,65d2b6c8f2eece985d8e374c,65d2b85f76587dd967e01ec2,0.0425,0.0425,1,48,210,135,1,eightseven,,,,,,,,,,,,,,,,,,,,,,,,,,,,,,,,,,,,,,,,,,,,,,,,,,,,,,,,,,,,,,,,,,,,,,,,,,,,,,,,,,,,,,,,,,,,,,,,,,,,,,,,,,,,,,,,,,,,,,,,,,,,,,,,,,,,,,,,,
,,641864aab32516db86d5077d,2024-02-19_02h09.48.196,kallum_motion_pilot,2023.2.2,Win32,15.97444089,641864aab32516db86d5077d,65d2b6c8f2eece985d8e374c,65d2b85f76587dd967e01ec2,0.0426,0.0426,1,49,211,94,1,eightsix,,,,,,,,,,,,,,,,,,,,,,,,,,,,,,,,,,,,,,,,,,,,,,,,,,,,,,,,,,,,,,,,,,,,,,,,,,,,,,,,,,,,,,,,,,,,,,,,,,,,,,,,,,,,,,,,,,,,,,,,,,,,,,,,,,,,,,,,,
,,641864aab32516db86d5077d,2024-02-19_02h09.48.196,kallum_motion_pilot,2023.2.2,Win32,15.97444089,641864aab32516db86d5077d,65d2b6c8f2eece985d8e374c,65d2b85f76587dd967e01ec2,0.0426,0.0427,1,50,212,138,1,sixfive,,,,,,,,,,,,,,,,,,,,,,,,,,,,,,,,,,,,,,,,,,,,,,,,,,,,,,,,,,,,,,,,,,,,,,,,,,,,,,,,,,,,,,,,,,,,,,,,,,,,,,,,,,,,,,,,,,,,,,,,,,,,,,,,,,,,,,,,,
,,641864aab32516db86d5077d,2024-02-19_02h09.48.196,kallum_motion_pilot,2023.2.2,Win32,15.97444089,641864aab32516db86d5077d,65d2b6c8f2eece985d8e374c,65d2b85f76587dd967e01ec2,0.0428,0.0428,1,51,213,3,1,twofour,,,,,,,,,,,,,,,,,,,,,,,,,,,,,,,,,,,,,,,,,,,,,,,,,,,,,,,,,,,,,,,,,,,,,,,,,,,,,,,,,,,,,,,,,,,,,,,,,,,,,,,,,,,,,,,,,,,,,,,,,,,,,,,,,,,,,,,,,
,,641864aab32516db86d5077d,2024-02-19_02h09.48.196,kallum_motion_pilot,2023.2.2,Win32,15.97444089,641864aab32516db86d5077d,65d2b6c8f2eece985d8e374c,65d2b85f76587dd967e01ec2,0.0428,0.0429,1,52,214,68,1,threeone,,,,,,,,,,,,,,,,,,,,,,,,,,,,,,,,,,,,,,,,,,,,,,,,,,,,,,,,,,,,,,,,,,,,,,,,,,,,,,,,,,,,,,,,,,,,,,,,,,,,,,,,,,,,,,,,,,,,,,,,,,,,,,,,,,,,,,,,,
,,641864aab32516db86d5077d,2024-02-19_02h09.48.196,kallum_motion_pilot,2023.2.2,Win32,15.97444089,641864aab32516db86d5077d,65d2b6c8f2eece985d8e374c,65d2b85f76587dd967e01ec2,0.043,0.043,1,53,215,147,1,sixeight,,,,,,,,,,,,,,,,,,,,,,,,,,,,,,,,,,,,,,,,,,,,,,,,,,,,,,,,,,,,,,,,,,,,,,,,,,,,,,,,,,,,,,,,,,,,,,,,,,,,,,,,,,,,,,,,,,,,,,,,,,,,,,,,,,,,,,,,,
,,641864aab32516db86d5077d,2024-02-19_02h09.48.196,kallum_motion_pilot,2023.2.2,Win32,15.97444089,641864aab32516db86d5077d,65d2b6c8f2eece985d8e374c,65d2b85f76587dd967e01ec2,0.0431,0.0431,1,54,216,71,1,fourthree,,,,,,,,,,,,,,,,,,,,,,,,,,,,,,,,,,,,,,,,,,,,,,,,,,,,,,,,,,,,,,,,,,,,,,,,,,,,,,,,,,,,,,,,,,,,,,,,,,,,,,,,,,,,,,,,,,,,,,,,,,,,,,,,,,,,,,,,,
,,641864aab32516db86d5077d,2024-02-19_02h09.48.196,kallum_motion_pilot,2023.2.2,Win32,15.97444089,641864aab32516db86d5077d,65d2b6c8f2eece985d8e374c,65d2b85f76587dd967e01ec2,0.0431,0.0433,1,55,217,150,1,eightsix,,,,,,,,,,,,,,,,,,,,,,,,,,,,,,,,,,,,,,,,,,,,,,,,,,,,,,,,,,,,,,,,,,,,,,,,,,,,,,,,,,,,,,,,,,,,,,,,,,,,,,,,,,,,,,,,,,,,,,,,,,,,,,,,,,,,,,,,,
,,641864aab32516db86d5077d,2024-02-19_02h09.48.196,kallum_motion_pilot,2023.2.2,Win32,15.97444089,641864aab32516db86d5077d,65d2b6c8f2eece985d8e374c,65d2b85f76587dd967e01ec2,0.0433,0.0433,1,56,218,20,1,threeone,,,,,,,,,,,,,,,,,,,,,,,,,,,,,,,,,,,,,,,,,,,,,,,,,,,,,,,,,,,,,,,,,,,,,,,,,,,,,,,,,,,,,,,,,,,,,,,,,,,,,,,,,,,,,,,,,,,,,,,,,,,,,,,,,,,,,,,,,
,,641864aab32516db86d5077d,2024-02-19_02h09.48.196,kallum_motion_pilot,2023.2.2,Win32,15.97444089,641864aab32516db86d5077d,65d2b6c8f2eece985d8e374c,65d2b85f76587dd967e01ec2,0.0435,0.0435,1,57,219,31,1,fourthree,,,,,,,,,,,,,,,,,,,,,,,,,,,,,,,,,,,,,,,,,,,,,,,,,,,,,,,,,,,,,,,,,,,,,,,,,,,,,,,,,,,,,,,,,,,,,,,,,,,,,,,,,,,,,,,,,,,,,,,,,,,,,,,,,,,,,,,,,
,,641864aab32516db86d5077d,2024-02-19_02h09.48.196,kallum_motion_pilot,2023.2.2,Win32,15.97444089,641864aab32516db86d5077d,65d2b6c8f2eece985d8e374c,65d2b85f76587dd967e01ec2,0.0436,0.0436,1,58,220,4,1,threeone,,,,,,,,,,,,,,,,,,,,,,,,,,,,,,,,,,,,,,,,,,,,,,,,,,,,,,,,,,,,,,,,,,,,,,,,,,,,,,,,,,,,,,,,,,,,,,,,,,,,,,,,,,,,,,,,,,,,,,,,,,,,,,,,,,,,,,,,,
,,641864aab32516db86d5077d,2024-02-19_02h09.48.196,kallum_motion_pilot,2023.2.2,Win32,15.97444089,641864aab32516db86d5077d,65d2b6c8f2eece985d8e374c,65d2b85f76587dd967e01ec2,0.0437,0.0437,1,59,221,153,1,fiveseven,,,,,,,,,,,,,,,,,,,,,,,,,,,,,,,,,,,,,,,,,,,,,,,,,,,,,,,,,,,,,,,,,,,,,,,,,,,,,,,,,,,,,,,,,,,,,,,,,,,,,,,,,,,,,,,,,,,,,,,,,,,,,,,,,,,,,,,,,
,,641864aab32516db86d5077d,2024-02-19_02h09.48.196,kallum_motion_pilot,2023.2.2,Win32,15.97444089,641864aab32516db86d5077d,65d2b6c8f2eece985d8e374c,65d2b85f76587dd967e01ec2,0.0438,0.0439,1,60,222,11,1,twofour,,,,,,,,,,,,,,,,,,,,,,,,,,,,,,,,,,,,,,,,,,,,,,,,,,,,,,,,,,,,,,,,,,,,,,,,,,,,,,,,,,,,,,,,,,,,,,,,,,,,,,,,,,,,,,,,,,,,,,,,,,,,,,,,,,,,,,,,,
,,641864aab32516db86d5077d,2024-02-19_02h09.48.196,kallum_motion_pilot,2023.2.2,Win32,15.97444089,641864aab32516db86d5077d,65d2b6c8f2eece985d8e374c,65d2b85f76587dd967e01ec2,0.0439,0.0439,1,61,223,44,1,threeone,,,,,,,,,,,,,,,,,,,,,,,,,,,,,,,,,,,,,,,,,,,,,,,,,,,,,,,,,,,,,,,,,,,,,,,,,,,,,,,,,,,,,,,,,,,,,,,,,,,,,,,,,,,,,,,,,,,,,,,,,,,,,,,,,,,,,,,,,
,,641864aab32516db86d5077d,2024-02-19_02h09.48.196,kallum_motion_pilot,2023.2.2,Win32,15.97444089,641864aab32516db86d5077d,65d2b6c8f2eece985d8e374c,65d2b85f76587dd967e01ec2,0.044,0.0441,1,62,224,121,1,fiveseven,,,,,,,,,,,,,,,,,,,,,,,,,,,,,,,,,,,,,,,,,,,,,,,,,,,,,,,,,,,,,,,,,,,,,,,,,,,,,,,,,,,,,,,,,,,,,,,,,,,,,,,,,,,,,,,,,,,,,,,,,,,,,,,,,,,,,,,,,
,,641864aab32516db86d5077d,2024-02-19_02h09.48.196,kallum_motion_pilot,2023.2.2,Win32,15.97444089,641864aab32516db86d5077d,65d2b6c8f2eece985d8e374c,65d2b85f76587dd967e01ec2,0.0442,0.0442,1,63,225,24,1,onetwo,,,,,,,,,,,,,,,,,,,,,,,,,,,,,,,,,,,,,,,,,,,,,,,,,,,,,,,,,,,,,,,,,,,,,,,,,,,,,,,,,,,,,,,,,,,,,,,,,,,,,,,,,,,,,,,,,,,,,,,,,,,,,,,,,,,,,,,,,
,,641864aab32516db86d5077d,2024-02-19_02h09.48.196,kallum_motion_pilot,2023.2.2,Win32,15.97444089,641864aab32516db86d5077d,65d2b6c8f2eece985d8e374c,65d2b85f76587dd967e01ec2,0.0443,0.0443,1,64,226,101,1,seveneight,,,,,,,,,,,,,,,,,,,,,,,,,,,,,,,,,,,,,,,,,,,,,,,,,,,,,,,,,,,,,,,,,,,,,,,,,,,,,,,,,,,,,,,,,,,,,,,,,,,,,,,,,,,,,,,,,,,,,,,,,,,,,,,,,,,,,,,,,
,,641864aab32516db86d5077d,2024-02-19_02h09.48.196,kallum_motion_pilot,2023.2.2,Win32,15.97444089,641864aab32516db86d5077d,65d2b6c8f2eece985d8e374c,65d2b85f76587dd967e01ec2,0.0443,0.0444,1,65,227,111,1,eightseven,,,,,,,,,,,,,,,,,,,,,,,,,,,,,,,,,,,,,,,,,,,,,,,,,,,,,,,,,,,,,,,,,,,,,,,,,,,,,,,,,,,,,,,,,,,,,,,,,,,,,,,,,,,,,,,,,,,,,,,,,,,,,,,,,,,,,,,,,
,,641864aab32516db86d5077d,2024-02-19_02h09.48.196,kallum_motion_pilot,2023.2.2,Win32,15.97444089,641864aab32516db86d5077d,65d2b6c8f2eece985d8e374c,65d2b85f76587dd967e01ec2,0.0444,0.0445,1,66,228,26,1,twoone,,,,,,,,,,,,,,,,,,,,,,,,,,,,,,,,,,,,,,,,,,,,,,,,,,,,,,,,,,,,,,,,,,,,,,,,,,,,,,,,,,,,,,,,,,,,,,,,,,,,,,,,,,,,,,,,,,,,,,,,,,,,,,,,,,,,,,,,,
,,641864aab32516db86d5077d,2024-02-19_02h09.48.196,kallum_motion_pilot,2023.2.2,Win32,15.97444089,641864aab32516db86d5077d,65d2b6c8f2eece985d8e374c,65d2b85f76587dd967e01ec2,0.0446,0.0447,1,67,229,95,1,eightseven,,,,,,,,,,,,,,,,,,,,,,,,,,,,,,,,,,,,,,,,,,,,,,,,,,,,,,,,,,,,,,,,,,,,,,,,,,,,,,,,,,,,,,,,,,,,,,,,,,,,,,,,,,,,,,,,,,,,,,,,,,,,,,,,,,,,,,,,,
,,641864aab32516db86d5077d,2024-02-19_02h09.48.196,kallum_motion_pilot,2023.2.2,Win32,15.97444089,641864aab32516db86d5077d,65d2b6c8f2eece985d8e374c,65d2b85f76587dd967e01ec2,0.0447,0.0447,1,68,230,146,1,sixfive,,,,,,,,,,,,,,,,,,,,,,,,,,,,,,,,,,,,,,,,,,,,,,,,,,,,,,,,,,,,,,,,,,,,,,,,,,,,,,,,,,,,,,,,,,,,,,,,,,,,,,,,,,,,,,,,,,,,,,,,,,,,,,,,,,,,,,,,,
,,641864aab32516db86d5077d,2024-02-19_02h09.48.196,kallum_motion_pilot,2023.2.2,Win32,15.97444089,641864aab32516db86d5077d,65d2b6c8f2eece985d8e374c,65d2b85f76587dd967e01ec2,0.0447,0.0448,1,69,231,62,1,fourtwo,,,,,,,,,,,,,,,,,,,,,,,,,,,,,,,,,,,,,,,,,,,,,,,,,,,,,,,,,,,,,,,,,,,,,,,,,,,,,,,,,,,,,,,,,,,,,,,,,,,,,,,,,,,,,,,,,,,,,,,,,,,,,,,,,,,,,,,,,
,,641864aab32516db86d5077d,2024-02-19_02h09.48.196,kallum_motion_pilot,2023.2.2,Win32,15.97444089,641864aab32516db86d5077d,65d2b6c8f2eece985d8e374c,65d2b85f76587dd967e01ec2,0.0449,0.0449,1,70,232,131,1,sixeight,,,,,,,,,,,,,,,,,,,,,,,,,,,,,,,,,,,,,,,,,,,,,,,,,,,,,,,,,,,,,,,,,,,,,,,,,,,,,,,,,,,,,,,,,,,,,,,,,,,,,,,,,,,,,,,,,,,,,,,,,,,,,,,,,,,,,,,,,
,,641864aab32516db86d5077d,2024-02-19_02h09.48.196,kallum_motion_pilot,2023.2.2,Win32,15.97444089,641864aab32516db86d5077d,65d2b6c8f2eece985d8e374c,65d2b85f76587dd967e01ec2,0.045,0.045,1,71,233,149,1,seveneight,,,,,,,,,,,,,,,,,,,,,,,,,,,,,,,,,,,,,,,,,,,,,,,,,,,,,,,,,,,,,,,,,,,,,,,,,,,,,,,,,,,,,,,,,,,,,,,,,,,,,,,,,,,,,,,,,,,,,,,,,,,,,,,,,,,,,,,,,
,,641864aab32516db86d5077d,2024-02-19_02h09.48.196,kallum_motion_pilot,2023.2.2,Win32,15.97444089,641864aab32516db86d5077d,65d2b6c8f2eece985d8e374c,65d2b85f76587dd967e01ec2,0.0451,0.0451,1,72,234,69,1,threefour,,,,,,,,,,,,,,,,,,,,,,,,,,,,,,,,,,,,,,,,,,,,,,,,,,,,,,,,,,,,,,,,,,,,,,,,,,,,,,,,,,,,,,,,,,,,,,,,,,,,,,,,,,,,,,,,,,,,,,,,,,,,,,,,,,,,,,,,,
,,641864aab32516db86d5077d,2024-02-19_02h09.48.196,kallum_motion_pilot,2023.2.2,Win32,15.97444089,641864aab32516db86d5077d,65d2b6c8f2eece985d8e374c,65d2b85f76587dd967e01ec2,0.0452,0.0452,1,73,235,116,1,sevenfive,,,,,,,,,,,,,,,,,,,,,,,,,,,,,,,,,,,,,,,,,,,,,,,,,,,,,,,,,,,,,,,,,,,,,,,,,,,,,,,,,,,,,,,,,,,,,,,,,,,,,,,,,,,,,,,,,,,,,,,,,,,,,,,,,,,,,,,,,
,,641864aab32516db86d5077d,2024-02-19_02h09.48.196,kallum_motion_pilot,2023.2.2,Win32,15.97444089,641864aab32516db86d5077d,65d2b6c8f2eece985d8e374c,65d2b85f76587dd967e01ec2,0.0453,0.0453,1,74,236,51,1,twofour,,,,,,,,,,,,,,,,,,,,,,,,,,,,,,,,,,,,,,,,,,,,,,,,,,,,,,,,,,,,,,,,,,,,,,,,,,,,,,,,,,,,,,,,,,,,,,,,,,,,,,,,,,,,,,,,,,,,,,,,,,,,,,,,,,,,,,,,,
,,641864aab32516db86d5077d,2024-02-19_02h09.48.196,kallum_motion_pilot,2023.2.2,Win32,15.97444089,641864aab32516db86d5077d,65d2b6c8f2eece985d8e374c,65d2b85f76587dd967e01ec2,0.0454,0.0454,1,75,237,38,1,fourtwo,,,,,,,,,,,,,,,,,,,,,,,,,,,,,,,,,,,,,,,,,,,,,,,,,,,,,,,,,,,,,,,,,,,,,,,,,,,,,,,,,,,,,,,,,,,,,,,,,,,,,,,,,,,,,,,,,,,,,,,,,,,,,,,,,,,,,,,,,
,,641864aab32516db86d5077d,2024-02-19_02h09.48.196,kallum_motion_pilot,2023.2.2,Win32,15.97444089,641864aab32516db86d5077d,65d2b6c8f2eece985d8e374c,65d2b85f76587dd967e01ec2,0.0455,0.0455,1,76,238,129,1,fiveseven,,,,,,,,,,,,,,,,,,,,,,,,,,,,,,,,,,,,,,,,,,,,,,,,,,,,,,,,,,,,,,,,,,,,,,,,,,,,,,,,,,,,,,,,,,,,,,,,,,,,,,,,,,,,,,,,,,,,,,,,,,,,,,,,,,,,,,,,,
,,641864aab32516db86d5077d,2024-02-19_02h09.48.196,kallum_motion_pilot,2023.2.2,Win32,15.97444089,641864aab32516db86d5077d,65d2b6c8f2eece985d8e374c,65d2b85f76587dd967e01ec2,0.0455,0.0456,1,77,239,65,1,onethree,,,,,,,,,,,,,,,,,,,,,,,,,,,,,,,,,,,,,,,,,,,,,,,,,,,,,,,,,,,,,,,,,,,,,,,,,,,,,,,,,,,,,,,,,,,,,,,,,,,,,,,,,,,,,,,,,,,,,,,,,,,,,,,,,,,,,,,,,
,,641864aab32516db86d5077d,2024-02-19_02h09.48.196,kallum_motion_pilot,2023.2.2,Win32,15.97444089,641864aab32516db86d5077d,65d2b6c8f2eece985d8e374c,65d2b85f76587dd967e01ec2,0.0456,0.0457,1,78,240,145,1,fiveseven,,,,,,,,,,,,,,,,,,,,,,,,,,,,,,,,,,,,,,,,,,,,,,,,,,,,,,,,,,,,,,,,,,,,,,,,,,,,,,,,,,,,,,,,,,,,,,,,,,,,,,,,,,,,,,,,,,,,,,,,,,,,,,,,,,,,,,,,,
,,641864aab32516db86d5077d,2024-02-19_02h09.48.196,kallum_motion_pilot,2023.2.2,Win32,15.97444089,641864aab32516db86d5077d,65d2b6c8f2eece985d8e374c,65d2b85f76587dd967e01ec2,0.0458,0.0458,1,79,241,139,1,sixeight,,,,,,,,,,,,,,,,,,,,,,,,,,,,,,,,,,,,,,,,,,,,,,,,,,,,,,,,,,,,,,,,,,,,,,,,,,,,,,,,,,,,,,,,,,,,,,,,,,,,,,,,,,,,,,,,,,,,,,,,,,,,,,,,,,,,,,,,,
,,641864aab32516db86d5077d,2024-02-19_02h09.48.196,kallum_motion_pilot,2023.2.2,Win32,15.97444089,641864aab32516db86d5077d,65d2b6c8f2eece985d8e374c,65d2b85f76587dd967e01ec2,0.0459,0.0459,1,80,242,92,1,sevenfive,,,,,,,,,,,,,,,,,,,,,,,,,,,,,,,,,,,,,,,,,,,,,,,,,,,,,,,,,,,,,,,,,,,,,,,,,,,,,,,,,,,,,,,,,,,,,,,,,,,,,,,,,,,,,,,,,,,,,,,,,,,,,,,,,,,,,,,,,
,,641864aab32516db86d5077d,2024-02-19_02h09.48.196,kallum_motion_pilot,2023.2.2,Win32,15.97444089,641864aab32516db86d5077d,65d2b6c8f2eece985d8e374c,65d2b85f76587dd967e01ec2,0.046,0.046,1,81,243,46,1,fourtwo,,,,,,,,,,,,,,,,,,,,,,,,,,,,,,,,,,,,,,,,,,,,,,,,,,,,,,,,,,,,,,,,,,,,,,,,,,,,,,,,,,,,,,,,,,,,,,,,,,,,,,,,,,,,,,,,,,,,,,,,,,,,,,,,,,,,,,,,,
,,641864aab32516db86d5077d,2024-02-19_02h09.48.196,kallum_motion_pilot,2023.2.2,Win32,15.97444089,641864aab32516db86d5077d,65d2b6c8f2eece985d8e374c,65d2b85f76587dd967e01ec2,0.0461,0.0461,1,82,244,103,1,eightseven,,,,,,,,,,,,,,,,,,,,,,,,,,,,,,,,,,,,,,,,,,,,,,,,,,,,,,,,,,,,,,,,,,,,,,,,,,,,,,,,,,,,,,,,,,,,,,,,,,,,,,,,,,,,,,,,,,,,,,,,,,,,,,,,,,,,,,,,,
,,641864aab32516db86d5077d,2024-02-19_02h09.48.196,kallum_motion_pilot,2023.2.2,Win32,15.97444089,641864aab32516db86d5077d,65d2b6c8f2eece985d8e374c,65d2b85f76587dd967e01ec2,0.0461,0.0461,1,83,245,88,1,fivesix,,,,,,,,,,,,,,,,,,,,,,,,,,,,,,,,,,,,,,,,,,,,,,,,,,,,,,,,,,,,,,,,,,,,,,,,,,,,,,,,,,,,,,,,,,,,,,,,,,,,,,,,,,,,,,,,,,,,,,,,,,,,,,,,,,,,,,,,,
,,641864aab32516db86d5077d,2024-02-19_02h09.48.196,kallum_motion_pilot,2023.2.2,Win32,15.97444089,641864aab32516db86d5077d,65d2b6c8f2eece985d8e374c,65d2b85f76587dd967e01ec2,0.0462,0.0463,1,84,246,137,1,fiveseven,,,,,,,,,,,,,,,,,,,,,,,,,,,,,,,,,,,,,,,,,,,,,,,,,,,,,,,,,,,,,,,,,,,,,,,,,,,,,,,,,,,,,,,,,,,,,,,,,,,,,,,,,,,,,,,,,,,,,,,,,,,,,,,,,,,,,,,,,
,,641864aab32516db86d5077d,2024-02-19_02h09.48.196,kallum_motion_pilot,2023.2.2,Win32,15.97444089,641864aab32516db86d5077d,65d2b6c8f2eece985d8e374c,65d2b85f76587dd967e01ec2,0.0463,0.0464,1,85,247,15,1,fourthree,,,,,,,,,,,,,,,,,,,,,,,,,,,,,,,,,,,,,,,,,,,,,,,,,,,,,,,,,,,,,,,,,,,,,,,,,,,,,,,,,,,,,,,,,,,,,,,,,,,,,,,,,,,,,,,,,,,,,,,,,,,,,,,,,,,,,,,,,
,,641864aab32516db86d5077d,2024-02-19_02h09.48.196,kallum_motion_pilot,2023.2.2,Win32,15.97444089,641864aab32516db86d5077d,65d2b6c8f2eece985d8e374c,65d2b85f76587dd967e01ec2,0.0464,0.0465,1,86,248,59,1,twofour,,,,,,,,,,,,,,,,,,,,,,,,,,,,,,,,,,,,,,,,,,,,,,,,,,,,,,,,,,,,,,,,,,,,,,,,,,,,,,,,,,,,,,,,,,,,,,,,,,,,,,,,,,,,,,,,,,,,,,,,,,,,,,,,,,,,,,,,,
,,641864aab32516db86d5077d,2024-02-19_02h09.48.196,kallum_motion_pilot,2023.2.2,Win32,15.97444089,641864aab32516db86d5077d,65d2b6c8f2eece985d8e374c,65d2b85f76587dd967e01ec2,0.0465,0.0466,1,87,249,18,1,twoone,,,,,,,,,,,,,,,,,,,,,,,,,,,,,,,,,,,,,,,,,,,,,,,,,,,,,,,,,,,,,,,,,,,,,,,,,,,,,,,,,,,,,,,,,,,,,,,,,,,,,,,,,,,,,,,,,,,,,,,,,,,,,,,,,,,,,,,,,
,,641864aab32516db86d5077d,2024-02-19_02h09.48.196,kallum_motion_pilot,2023.2.2,Win32,15.97444089,641864aab32516db86d5077d,65d2b6c8f2eece985d8e374c,65d2b85f76587dd967e01ec2,0.0466,0.0467,1,88,250,7,1,fourthree,,,,,,,,,,,,,,,,,,,,,,,,,,,,,,,,,,,,,,,,,,,,,,,,,,,,,,,,,,,,,,,,,,,,,,,,,,,,,,,,,,,,,,,,,,,,,,,,,,,,,,,,,,,,,,,,,,,,,,,,,,,,,,,,,,,,,,,,,
,,641864aab32516db86d5077d,2024-02-19_02h09.48.196,kallum_motion_pilot,2023.2.2,Win32,15.97444089,641864aab32516db86d5077d,65d2b6c8f2eece985d8e374c,65d2b85f76587dd967e01ec2,0.0467,0.0468,1,89,251,73,1,onethree,,,,,,,,,,,,,,,,,,,,,,,,,,,,,,,,,,,,,,,,,,,,,,,,,,,,,,,,,,,,,,,,,,,,,,,,,,,,,,,,,,,,,,,,,,,,,,,,,,,,,,,,,,,,,,,,,,,,,,,,,,,,,,,,,,,,,,,,,
,,641864aab32516db86d5077d,2024-02-19_02h09.48.196,kallum_motion_pilot,2023.2.2,Win32,15.97444089,641864aab32516db86d5077d,65d2b6c8f2eece985d8e374c,65d2b85f76587dd967e01ec2,0.0468,0.0468,1,90,252,36,1,threeone,,,,,,,,,,,,,,,,,,,,,,,,,,,,,,,,,,,,,,,,,,,,,,,,,,,,,,,,,,,,,,,,,,,,,,,,,,,,,,,,,,,,,,,,,,,,,,,,,,,,,,,,,,,,,,,,,,,,,,,,,,,,,,,,,,,,,,,,,
,,641864aab32516db86d5077d,2024-02-19_02h09.48.196,kallum_motion_pilot,2023.2.2,Win32,15.97444089,641864aab32516db86d5077d,65d2b6c8f2eece985d8e374c,65d2b85f76587dd967e01ec2,0.0469,0.0471,1,91,253,102,1,eightsix,,,,,,,,,,,,,,,,,,,,,,,,,,,,,,,,,,,,,,,,,,,,,,,,,,,,,,,,,,,,,,,,,,,,,,,,,,,,,,,,,,,,,,,,,,,,,,,,,,,,,,,,,,,,,,,,,,,,,,,,,,,,,,,,,,,,,,,,,
,,641864aab32516db86d5077d,2024-02-19_02h09.48.196,kallum_motion_pilot,2023.2.2,Win32,15.97444089,641864aab32516db86d5077d,65d2b6c8f2eece985d8e374c,65d2b85f76587dd967e01ec2,0.0471,0.0472,1,92,254,39,1,fourthree,,,,,,,,,,,,,,,,,,,,,,,,,,,,,,,,,,,,,,,,,,,,,,,,,,,,,,,,,,,,,,,,,,,,,,,,,,,,,,,,,,,,,,,,,,,,,,,,,,,,,,,,,,,,,,,,,,,,,,,,,,,,,,,,,,,,,,,,,
,,641864aab32516db86d5077d,2024-02-19_02h09.48.196,kallum_motion_pilot,2023.2.2,Win32,15.97444089,641864aab32516db86d5077d,65d2b6c8f2eece985d8e374c,65d2b85f76587dd967e01ec2,0.0472,0.0474,1,93,255,160,1,fivesix,,,,,,,,,,,,,,,,,,,,,,,,,,,,,,,,,,,,,,,,,,,,,,,,,,,,,,,,,,,,,,,,,,,,,,,,,,,,,,,,,,,,,,,,,,,,,,,,,,,,,,,,,,,,,,,,,,,,,,,,,,,,,,,,,,,,,,,,,
,,641864aab32516db86d5077d,2024-02-19_02h09.48.196,kallum_motion_pilot,2023.2.2,Win32,15.97444089,641864aab32516db86d5077d,65d2b6c8f2eece985d8e374c,65d2b85f76587dd967e01ec2,0.0474,0.0475,1,94,256,25,1,onethree,,,,,,,,,,,,,,,,,,,,,,,,,,,,,,,,,,,,,,,,,,,,,,,,,,,,,,,,,,,,,,,,,,,,,,,,,,,,,,,,,,,,,,,,,,,,,,,,,,,,,,,,,,,,,,,,,,,,,,,,,,,,,,,,,,,,,,,,,
,,641864aab32516db86d5077d,2024-02-19_02h09.48.196,kallum_motion_pilot,2023.2.2,Win32,15.97444089,641864aab32516db86d5077d,65d2b6c8f2eece985d8e374c,65d2b85f76587dd967e01ec2,0.0476,0.0477,1,95,257,132,1,sevenfive,,,,,,,,,,,,,,,,,,,,,,,,,,,,,,,,,,,,,,,,,,,,,,,,,,,,,,,,,,,,,,,,,,,,,,,,,,,,,,,,,,,,,,,,,,,,,,,,,,,,,,,,,,,,,,,,,,,,,,,,,,,,,,,,,,,,,,,,,
,,641864aab32516db86d5077d,2024-02-19_02h09.48.196,kallum_motion_pilot,2023.2.2,Win32,15.97444089,641864aab32516db86d5077d,65d2b6c8f2eece985d8e374c,65d2b85f76587dd967e01ec2,0.0478,0.0478,1,96,258,115,1,sixeight,,,,,,,,,,,,,,,,,,,,,,,,,,,,,,,,,,,,,,,,,,,,,,,,,,,,,,,,,,,,,,,,,,,,,,,,,,,,,,,,,,,,,,,,,,,,,,,,,,,,,,,,,,,,,,,,,,,,,,,,,,,,,,,,,,,,,,,,,
,,641864aab32516db86d5077d,2024-02-19_02h09.48.196,kallum_motion_pilot,2023.2.2,Win32,15.97444089,641864aab32516db86d5077d,65d2b6c8f2eece985d8e374c,65d2b85f76587dd967e01ec2,0.0479,0.048,1,97,259,158,1,eightsix,,,,,,,,,,,,,,,,,,,,,,,,,,,,,,,,,,,,,,,,,,,,,,,,,,,,,,,,,,,,,,,,,,,,,,,,,,,,,,,,,,,,,,,,,,,,,,,,,,,,,,,,,,,,,,,,,,,,,,,,,,,,,,,,,,,,,,,,,
,,641864aab32516db86d5077d,2024-02-19_02h09.48.196,kallum_motion_pilot,2023.2.2,Win32,15.97444089,641864aab32516db86d5077d,65d2b6c8f2eece985d8e374c,65d2b85f76587dd967e01ec2,0.0481,0.0481,1,98,260,99,1,sixeight,,,,,,,,,,,,,,,,,,,,,,,,,,,,,,,,,,,,,,,,,,,,,,,,,,,,,,,,,,,,,,,,,,,,,,,,,,,,,,,,,,,,,,,,,,,,,,,,,,,,,,,,,,,,,,,,,,,,,,,,,,,,,,,,,,,,,,,,,
,,641864aab32516db86d5077d,2024-02-19_02h09.48.196,kallum_motion_pilot,2023.2.2,Win32,15.97444089,641864aab32516db86d5077d,65d2b6c8f2eece985d8e374c,65d2b85f76587dd967e01ec2,0.0482,0.0483,1,99,261,70,1,fourtwo,,,,,,,,,,,,,,,,,,,,,,,,,,,,,,,,,,,,,,,,,,,,,,,,,,,,,,,,,,,,,,,,,,,,,,,,,,,,,,,,,,,,,,,,,,,,,,,,,,,,,,,,,,,,,,,,,,,,,,,,,,,,,,,,,,,,,,,,,
,,641864aab32516db86d5077d,2024-02-19_02h09.48.196,kallum_motion_pilot,2023.2.2,Win32,15.97444089,641864aab32516db86d5077d,65d2b6c8f2eece985d8e374c,65d2b85f76587dd967e01ec2,0.0484,0.0484,1,100,262,77,1,threefour,,,,,,,,,,,,,,,,,,,,,,,,,,,,,,,,,,,,,,,,,,,,,,,,,,,,,,,,,,,,,,,,,,,,,,,,,,,,,,,,,,,,,,,,,,,,,,,,,,,,,,,,,,,,,,,,,,,,,,,,,,,,,,,,,,,,,,,,,
,,641864aab32516db86d5077d,2024-02-19_02h09.48.196,kallum_motion_pilot,2023.2.2,Win32,15.97444089,641864aab32516db86d5077d,65d2b6c8f2eece985d8e374c,65d2b85f76587dd967e01ec2,0.0485,0.0485,1,101,263,83,1,sixeight,,,,,,,,,,,,,,,,,,,,,,,,,,,,,,,,,,,,,,,,,,,,,,,,,,,,,,,,,,,,,,,,,,,,,,,,,,,,,,,,,,,,,,,,,,,,,,,,,,,,,,,,,,,,,,,,,,,,,,,,,,,,,,,,,,,,,,,,,
,,641864aab32516db86d5077d,2024-02-19_02h09.48.196,kallum_motion_pilot,2023.2.2,Win32,15.97444089,641864aab32516db86d5077d,65d2b6c8f2eece985d8e374c,65d2b85f76587dd967e01ec2,0.0487,0.0488,1,102,264,29,1,threefour,,,,,,,,,,,,,,,,,,,,,,,,,,,,,,,,,,,,,,,,,,,,,,,,,,,,,,,,,,,,,,,,,,,,,,,,,,,,,,,,,,,,,,,,,,,,,,,,,,,,,,,,,,,,,,,,,,,,,,,,,,,,,,,,,,,,,,,,,
,,641864aab32516db86d5077d,2024-02-19_02h09.48.196,kallum_motion_pilot,2023.2.2,Win32,15.97444089,641864aab32516db86d5077d,65d2b6c8f2eece985d8e374c,65d2b85f76587dd967e01ec2,0.0489,0.0489,1,103,265,67,1,twofour,,,,,,,,,,,,,,,,,,,,,,,,,,,,,,,,,,,,,,,,,,,,,,,,,,,,,,,,,,,,,,,,,,,,,,,,,,,,,,,,,,,,,,,,,,,,,,,,,,,,,,,,,,,,,,,,,,,,,,,,,,,,,,,,,,,,,,,,,
,,641864aab32516db86d5077d,2024-02-19_02h09.48.196,kallum_motion_pilot,2023.2.2,Win32,15.97444089,641864aab32516db86d5077d,65d2b6c8f2eece985d8e374c,65d2b85f76587dd967e01ec2,0.049,0.049,1,104,266,140,1,sevenfive,,,,,,,,,,,,,,,,,,,,,,,,,,,,,,,,,,,,,,,,,,,,,,,,,,,,,,,,,,,,,,,,,,,,,,,,,,,,,,,,,,,,,,,,,,,,,,,,,,,,,,,,,,,,,,,,,,,,,,,,,,,,,,,,,,,,,,,,,
,,641864aab32516db86d5077d,2024-02-19_02h09.48.196,kallum_motion_pilot,2023.2.2,Win32,15.97444089,641864aab32516db86d5077d,65d2b6c8f2eece985d8e374c,65d2b85f76587dd967e01ec2,0.049,0.0492,1,105,267,155,1,sixeight,,,,,,,,,,,,,,,,,,,,,,,,,,,,,,,,,,,,,,,,,,,,,,,,,,,,,,,,,,,,,,,,,,,,,,,,,,,,,,,,,,,,,,,,,,,,,,,,,,,,,,,,,,,,,,,,,,,,,,,,,,,,,,,,,,,,,,,,,
,,641864aab32516db86d5077d,2024-02-19_02h09.48.196,kallum_motion_pilot,2023.2.2,Win32,15.97444089,641864aab32516db86d5077d,65d2b6c8f2eece985d8e374c,65d2b85f76587dd967e01ec2,0.0492,0.0492,1,106,268,143,1,eightseven,,,,,,,,,,,,,,,,,,,,,,,,,,,,,,,,,,,,,,,,,,,,,,,,,,,,,,,,,,,,,,,,,,,,,,,,,,,,,,,,,,,,,,,,,,,,,,,,,,,,,,,,,,,,,,,,,,,,,,,,,,,,,,,,,,,,,,,,,
,,641864aab32516db86d5077d,2024-02-19_02h09.48.196,kallum_motion_pilot,2023.2.2,Win32,15.97444089,641864aab32516db86d5077d,65d2b6c8f2eece985d8e374c,65d2b85f76587dd967e01ec2,0.0493,0.0494,1,107,269,81,1,fiveseven,,,,,,,,,,,,,,,,,,,,,,,,,,,,,,,,,,,,,,,,,,,,,,,,,,,,,,,,,,,,,,,,,,,,,,,,,,,,,,,,,,,,,,,,,,,,,,,,,,,,,,,,,,,,,,,,,,,,,,,,,,,,,,,,,,,,,,,,,
,,641864aab32516db86d5077d,2024-02-19_02h09.48.196,kallum_motion_pilot,2023.2.2,Win32,15.97444089,641864aab32516db86d5077d,65d2b6c8f2eece985d8e374c,65d2b85f76587dd967e01ec2,0.0494,0.0494,1,108,270,74,1,twoone,,,,,,,,,,,,,,,,,,,,,,,,,,,,,,,,,,,,,,,,,,,,,,,,,,,,,,,,,,,,,,,,,,,,,,,,,,,,,,,,,,,,,,,,,,,,,,,,,,,,,,,,,,,,,,,,,,,,,,,,,,,,,,,,,,,,,,,,,
,,641864aab32516db86d5077d,2024-02-19_02h09.48.196,kallum_motion_pilot,2023.2.2,Win32,15.97444089,641864aab32516db86d5077d,65d2b6c8f2eece985d8e374c,65d2b85f76587dd967e01ec2,0.0495,0.0495,1,109,271,9,1,onethree,,,,,,,,,,,,,,,,,,,,,,,,,,,,,,,,,,,,,,,,,,,,,,,,,,,,,,,,,,,,,,,,,,,,,,,,,,,,,,,,,,,,,,,,,,,,,,,,,,,,,,,,,,,,,,,,,,,,,,,,,,,,,,,,,,,,,,,,,
,,641864aab32516db86d5077d,2024-02-19_02h09.48.196,kallum_motion_pilot,2023.2.2,Win32,15.97444089,641864aab32516db86d5077d,65d2b6c8f2eece985d8e374c,65d2b85f76587dd967e01ec2,0.0496,0.0497,1,110,272,13,1,threefour,,,,,,,,,,,,,,,,,,,,,,,,,,,,,,,,,,,,,,,,,,,,,,,,,,,,,,,,,,,,,,,,,,,,,,,,,,,,,,,,,,,,,,,,,,,,,,,,,,,,,,,,,,,,,,,,,,,,,,,,,,,,,,,,,,,,,,,,,
,,641864aab32516db86d5077d,2024-02-19_02h09.48.196,kallum_motion_pilot,2023.2.2,Win32,15.97444089,641864aab32516db86d5077d,65d2b6c8f2eece985d8e374c,65d2b85f76587dd967e01ec2,0.0504,0.0504,1,111,273,154,1,sixfive,,,,,,,,,,,,,,,,,,,,,,,,,,,,,,,,,,,,,,,,,,,,,,,,,,,,,,,,,,,,,,,,,,,,,,,,,,,,,,,,,,,,,,,,,,,,,,,,,,,,,,,,,,,,,,,,,,,,,,,,,,,,,,,,,,,,,,,,,
,,641864aab32516db86d5077d,2024-02-19_02h09.48.196,kallum_motion_pilot,2023.2.2,Win32,15.97444089,641864aab32516db86d5077d,65d2b6c8f2eece985d8e374c,65d2b85f76587dd967e01ec2,0.0504,0.0506,1,112,274,104,1,fivesix,,,,,,,,,,,,,,,,,,,,,,,,,,,,,,,,,,,,,,,,,,,,,,,,,,,,,,,,,,,,,,,,,,,,,,,,,,,,,,,,,,,,,,,,,,,,,,,,,,,,,,,,,,,,,,,,,,,,,,,,,,,,,,,,,,,,,,,,,
,,641864aab32516db86d5077d,2024-02-19_02h09.48.196,kallum_motion_pilot,2023.2.2,Win32,15.97444089,641864aab32516db86d5077d,65d2b6c8f2eece985d8e374c,65d2b85f76587dd967e01ec2,0.0506,0.0507,1,113,275,79,1,eightseven,,,,,,,,,,,,,,,,,,,,,,,,,,,,,,,,,,,,,,,,,,,,,,,,,,,,,,,,,,,,,,,,,,,,,,,,,,,,,,,,,,,,,,,,,,,,,,,,,,,,,,,,,,,,,,,,,,,,,,,,,,,,,,,,,,,,,,,,,
,,641864aab32516db86d5077d,2024-02-19_02h09.48.196,kallum_motion_pilot,2023.2.2,Win32,15.97444089,641864aab32516db86d5077d,65d2b6c8f2eece985d8e374c,65d2b85f76587dd967e01ec2,0.0507,0.0508,1,114,276,98,1,sixfive,,,,,,,,,,,,,,,,,,,,,,,,,,,,,,,,,,,,,,,,,,,,,,,,,,,,,,,,,,,,,,,,,,,,,,,,,,,,,,,,,,,,,,,,,,,,,,,,,,,,,,,,,,,,,,,,,,,,,,,,,,,,,,,,,,,,,,,,,
,,641864aab32516db86d5077d,2024-02-19_02h09.48.196,kallum_motion_pilot,2023.2.2,Win32,15.97444089,641864aab32516db86d5077d,65d2b6c8f2eece985d8e374c,65d2b85f76587dd967e01ec2,0.0508,0.0508,1,115,277,91,1,sixeight,,,,,,,,,,,,,,,,,,,,,,,,,,,,,,,,,,,,,,,,,,,,,,,,,,,,,,,,,,,,,,,,,,,,,,,,,,,,,,,,,,,,,,,,,,,,,,,,,,,,,,,,,,,,,,,,,,,,,,,,,,,,,,,,,,,,,,,,,
