startup.started,startup.stopped,Prolific ID*,date,expName,psychopyVersion,OS,frameRate,participant,study_id,session,stimpositions.started,stimpositions.stopped,hardcoded_stimulus_positions.thisRepN,hardcoded_stimulus_positions.thisTrialN,hardcoded_stimulus_positions.thisN,hardcoded_stimulus_positions.thisIndex,hardcoded_stimulus_positions.ran,StimulusPos,stimorientation.started,stimorientation.stopped,prac_stimorientation_import_loop.thisRepN,prac_stimorientation_import_loop.thisTrialN,prac_stimorientation_import_loop.thisN,prac_stimorientation_import_loop.thisIndex,prac_stimorientation_import_loop.ran,Stimorientation,welcome_instr.started,welcome_instr.stopped,key_resp.keys,key_resp.rt,key_resp.duration,response_steppedout_1.started,response_steppedout_1.stopped,key_resp_20.keys,key_resp_20.rt,key_resp_20.duration,response_steppedout_2.started,response_steppedout_2.stopped,key_resp_19.keys,key_resp_19.rt,key_resp_19.duration,stim_response_instr.started,stim_response_instr.stopped,key_resp_15.keys,key_resp_15.rt,key_resp_15.duration,direction_instr_2.started,direction_instr_2.stopped,key_resp_9.keys,key_resp_9.rt,key_resp_9.duration,instr_prac.started,instr_prac.stopped,key_resp_10.keys,key_resp_10.rt,key_resp_10.duration,Stim1_display_prac.started,Stim1_display_prac.stopped,Ecc,Circle1_ori,Circle2_ori,response_prac.started,similarity,response_time,response_prac.stopped,mouse_5.x,mouse_5.y,mouse_5.leftButton,mouse_5.midButton,mouse_5.rightButton,mouse_5.clicked_name,responseprac_feedback.started,responseprac_feedback.stopped,summary2_prac.started,summary2_prac.stopped,mouse_6.x,mouse_6.y,mouse_6.leftButton,mouse_6.midButton,mouse_6.rightButton,mouse_6.clicked_name,duringprac.thisRepN,duringprac.thisTrialN,duringprac.thisN,duringprac.thisIndex,duringprac.ran,begin.started,begin.stopped,key_resp_22.keys,key_resp_22.rt,key_resp_22.duration,Stim1_display.started,Stim1_display.stopped,circle1_ori,circle2_ori,circle1_SF,circle2_SF,response.started,response.stopped,mouse.x,mouse.y,mouse.leftButton,mouse.midButton,mouse.rightButton,mouse.clicked_name,trialnumber,double_pass.thisRepN,double_pass.thisTrialN,double_pass.thisN,double_pass.thisIndex,double_pass.ran,double_pass.order,main_trial.thisRepN,main_trial.thisTrialN,main_trial.thisN,main_trial.thisIndex,main_trial.ran,main_trial.order,Trial_Counter,Catch,Frequencies,response_2.started,response_2.stopped,mouse_2.x,mouse_2.y,mouse_2.leftButton,mouse_2.midButton,mouse_2.rightButton,mouse_2.clicked_name,special_trial.started,special_trial.stopped,catch_1.started,catch_1.stopped,mouse_3.x,mouse_3.y,mouse_3.leftButton,mouse_3.midButton,mouse_3.rightButton,catchresponse,catchnumber,response_time_catch,response_sum.started,response_sum.stopped,mouse_11.x,mouse_11.y,mouse_11.leftButton,mouse_11.midButton,mouse_11.rightButton,flip_presentation_sequence_for_double_pass.started,flip_presentation_sequence_for_double_pass.stopped,goodbye.started,goodbye.stopped,key_resp_3.keys,key_resp_3.rt,key_resp_3.duration
0.0003,0.0003,64581c19e5e95ab59f07be23,2024-02-19_03h15.49.765,kallum_motion_pilot,2023.2.2,Win32,142.8571429,64581c19e5e95ab59f07be23,65d2b6c8f2eece985d8e374c,65d2b9cfa5bc04f3723f825e,,,,,,,,,,,,,,,,,,,,,,,,,,,,,,,,,,,,,,,,,,,,,,,,,,,,,,,,,,,,,,,,,,,,,,,,,,,,,,,,,,,,,,,,,,,,,,,,,,,,,,,,,,,,,,,,,,,,,,,,,,,,,,,,,,,,,,,,,,,,,,,,,
,,64581c19e5e95ab59f07be23,2024-02-19_03h15.49.765,kallum_motion_pilot,2023.2.2,Win32,142.8571429,64581c19e5e95ab59f07be23,65d2b6c8f2eece985d8e374c,65d2b9cfa5bc04f3723f825e,0.0172,0.0173,0,0,0,71,1,fourthree,,,,,,,,,,,,,,,,,,,,,,,,,,,,,,,,,,,,,,,,,,,,,,,,,,,,,,,,,,,,,,,,,,,,,,,,,,,,,,,,,,,,,,,,,,,,,,,,,,,,,,,,,,,,,,,,,,,,,,,,,,,,,,,,,,,,,,,,,
,,64581c19e5e95ab59f07be23,2024-02-19_03h15.49.765,kallum_motion_pilot,2023.2.2,Win32,142.8571429,64581c19e5e95ab59f07be23,65d2b6c8f2eece985d8e374c,65d2b9cfa5bc04f3723f825e,0.0174,0.0174,0,1,1,130,1,sixfive,,,,,,,,,,,,,,,,,,,,,,,,,,,,,,,,,,,,,,,,,,,,,,,,,,,,,,,,,,,,,,,,,,,,,,,,,,,,,,,,,,,,,,,,,,,,,,,,,,,,,,,,,,,,,,,,,,,,,,,,,,,,,,,,,,,,,,,,,
,,64581c19e5e95ab59f07be23,2024-02-19_03h15.49.765,kallum_motion_pilot,2023.2.2,Win32,142.8571429,64581c19e5e95ab59f07be23,65d2b6c8f2eece985d8e374c,65d2b9cfa5bc04f3723f825e,0.0175,0.0175,0,2,2,68,1,threeone,,,,,,,,,,,,,,,,,,,,,,,,,,,,,,,,,,,,,,,,,,,,,,,,,,,,,,,,,,,,,,,,,,,,,,,,,,,,,,,,,,,,,,,,,,,,,,,,,,,,,,,,,,,,,,,,,,,,,,,,,,,,,,,,,,,,,,,,,
,,64581c19e5e95ab59f07be23,2024-02-19_03h15.49.765,kallum_motion_pilot,2023.2.2,Win32,142.8571429,64581c19e5e95ab59f07be23,65d2b6c8f2eece985d8e374c,65d2b9cfa5bc04f3723f825e,0.0176,0.0176,0,3,3,108,1,sevenfive,,,,,,,,,,,,,,,,,,,,,,,,,,,,,,,,,,,,,,,,,,,,,,,,,,,,,,,,,,,,,,,,,,,,,,,,,,,,,,,,,,,,,,,,,,,,,,,,,,,,,,,,,,,,,,,,,,,,,,,,,,,,,,,,,,,,,,,,,
,,64581c19e5e95ab59f07be23,2024-02-19_03h15.49.765,kallum_motion_pilot,2023.2.2,Win32,142.8571429,64581c19e5e95ab59f07be23,65d2b6c8f2eece985d8e374c,65d2b9cfa5bc04f3723f825e,0.0177,0.0177,0,4,4,43,1,twofour,,,,,,,,,,,,,,,,,,,,,,,,,,,,,,,,,,,,,,,,,,,,,,,,,,,,,,,,,,,,,,,,,,,,,,,,,,,,,,,,,,,,,,,,,,,,,,,,,,,,,,,,,,,,,,,,,,,,,,,,,,,,,,,,,,,,,,,,,
,,64581c19e5e95ab59f07be23,2024-02-19_03h15.49.765,kallum_motion_pilot,2023.2.2,Win32,142.8571429,64581c19e5e95ab59f07be23,65d2b6c8f2eece985d8e374c,65d2b9cfa5bc04f3723f825e,0.0178,0.0178,0,5,5,52,1,threeone,,,,,,,,,,,,,,,,,,,,,,,,,,,,,,,,,,,,,,,,,,,,,,,,,,,,,,,,,,,,,,,,,,,,,,,,,,,,,,,,,,,,,,,,,,,,,,,,,,,,,,,,,,,,,,,,,,,,,,,,,,,,,,,,,,,,,,,,,
,,64581c19e5e95ab59f07be23,2024-02-19_03h15.49.765,kallum_motion_pilot,2023.2.2,Win32,142.8571429,64581c19e5e95ab59f07be23,65d2b6c8f2eece985d8e374c,65d2b9cfa5bc04f3723f825e,0.0179,0.0179,0,6,6,48,1,onetwo,,,,,,,,,,,,,,,,,,,,,,,,,,,,,,,,,,,,,,,,,,,,,,,,,,,,,,,,,,,,,,,,,,,,,,,,,,,,,,,,,,,,,,,,,,,,,,,,,,,,,,,,,,,,,,,,,,,,,,,,,,,,,,,,,,,,,,,,,
,,64581c19e5e95ab59f07be23,2024-02-19_03h15.49.765,kallum_motion_pilot,2023.2.2,Win32,142.8571429,64581c19e5e95ab59f07be23,65d2b6c8f2eece985d8e374c,65d2b9cfa5bc04f3723f825e,0.0179,0.0179,0,7,7,82,1,sixfive,,,,,,,,,,,,,,,,,,,,,,,,,,,,,,,,,,,,,,,,,,,,,,,,,,,,,,,,,,,,,,,,,,,,,,,,,,,,,,,,,,,,,,,,,,,,,,,,,,,,,,,,,,,,,,,,,,,,,,,,,,,,,,,,,,,,,,,,,
,,64581c19e5e95ab59f07be23,2024-02-19_03h15.49.765,kallum_motion_pilot,2023.2.2,Win32,142.8571429,64581c19e5e95ab59f07be23,65d2b6c8f2eece985d8e374c,65d2b9cfa5bc04f3723f825e,0.018,0.018,0,8,8,6,1,fourtwo,,,,,,,,,,,,,,,,,,,,,,,,,,,,,,,,,,,,,,,,,,,,,,,,,,,,,,,,,,,,,,,,,,,,,,,,,,,,,,,,,,,,,,,,,,,,,,,,,,,,,,,,,,,,,,,,,,,,,,,,,,,,,,,,,,,,,,,,,
,,64581c19e5e95ab59f07be23,2024-02-19_03h15.49.765,kallum_motion_pilot,2023.2.2,Win32,142.8571429,64581c19e5e95ab59f07be23,65d2b6c8f2eece985d8e374c,65d2b9cfa5bc04f3723f825e,0.018,0.0181,0,9,9,114,1,sixfive,,,,,,,,,,,,,,,,,,,,,,,,,,,,,,,,,,,,,,,,,,,,,,,,,,,,,,,,,,,,,,,,,,,,,,,,,,,,,,,,,,,,,,,,,,,,,,,,,,,,,,,,,,,,,,,,,,,,,,,,,,,,,,,,,,,,,,,,,
,,64581c19e5e95ab59f07be23,2024-02-19_03h15.49.765,kallum_motion_pilot,2023.2.2,Win32,142.8571429,64581c19e5e95ab59f07be23,65d2b6c8f2eece985d8e374c,65d2b9cfa5bc04f3723f825e,0.0181,0.0182,0,10,10,111,1,eightseven,,,,,,,,,,,,,,,,,,,,,,,,,,,,,,,,,,,,,,,,,,,,,,,,,,,,,,,,,,,,,,,,,,,,,,,,,,,,,,,,,,,,,,,,,,,,,,,,,,,,,,,,,,,,,,,,,,,,,,,,,,,,,,,,,,,,,,,,,
,,64581c19e5e95ab59f07be23,2024-02-19_03h15.49.765,kallum_motion_pilot,2023.2.2,Win32,142.8571429,64581c19e5e95ab59f07be23,65d2b6c8f2eece985d8e374c,65d2b9cfa5bc04f3723f825e,0.0182,0.0182,0,11,11,104,1,fivesix,,,,,,,,,,,,,,,,,,,,,,,,,,,,,,,,,,,,,,,,,,,,,,,,,,,,,,,,,,,,,,,,,,,,,,,,,,,,,,,,,,,,,,,,,,,,,,,,,,,,,,,,,,,,,,,,,,,,,,,,,,,,,,,,,,,,,,,,,
,,64581c19e5e95ab59f07be23,2024-02-19_03h15.49.765,kallum_motion_pilot,2023.2.2,Win32,142.8571429,64581c19e5e95ab59f07be23,65d2b6c8f2eece985d8e374c,65d2b9cfa5bc04f3723f825e,0.0182,0.0182,0,12,12,65,1,onethree,,,,,,,,,,,,,,,,,,,,,,,,,,,,,,,,,,,,,,,,,,,,,,,,,,,,,,,,,,,,,,,,,,,,,,,,,,,,,,,,,,,,,,,,,,,,,,,,,,,,,,,,,,,,,,,,,,,,,,,,,,,,,,,,,,,,,,,,,
,,64581c19e5e95ab59f07be23,2024-02-19_03h15.49.765,kallum_motion_pilot,2023.2.2,Win32,142.8571429,64581c19e5e95ab59f07be23,65d2b6c8f2eece985d8e374c,65d2b9cfa5bc04f3723f825e,0.0183,0.0183,0,13,13,33,1,onethree,,,,,,,,,,,,,,,,,,,,,,,,,,,,,,,,,,,,,,,,,,,,,,,,,,,,,,,,,,,,,,,,,,,,,,,,,,,,,,,,,,,,,,,,,,,,,,,,,,,,,,,,,,,,,,,,,,,,,,,,,,,,,,,,,,,,,,,,,
,,64581c19e5e95ab59f07be23,2024-02-19_03h15.49.765,kallum_motion_pilot,2023.2.2,Win32,142.8571429,64581c19e5e95ab59f07be23,65d2b6c8f2eece985d8e374c,65d2b9cfa5bc04f3723f825e,0.0183,0.0184,0,14,14,159,1,eightseven,,,,,,,,,,,,,,,,,,,,,,,,,,,,,,,,,,,,,,,,,,,,,,,,,,,,,,,,,,,,,,,,,,,,,,,,,,,,,,,,,,,,,,,,,,,,,,,,,,,,,,,,,,,,,,,,,,,,,,,,,,,,,,,,,,,,,,,,,
,,64581c19e5e95ab59f07be23,2024-02-19_03h15.49.765,kallum_motion_pilot,2023.2.2,Win32,142.8571429,64581c19e5e95ab59f07be23,65d2b6c8f2eece985d8e374c,65d2b9cfa5bc04f3723f825e,0.0184,0.0184,0,15,15,98,1,sixfive,,,,,,,,,,,,,,,,,,,,,,,,,,,,,,,,,,,,,,,,,,,,,,,,,,,,,,,,,,,,,,,,,,,,,,,,,,,,,,,,,,,,,,,,,,,,,,,,,,,,,,,,,,,,,,,,,,,,,,,,,,,,,,,,,,,,,,,,,
,,64581c19e5e95ab59f07be23,2024-02-19_03h15.49.765,kallum_motion_pilot,2023.2.2,Win32,142.8571429,64581c19e5e95ab59f07be23,65d2b6c8f2eece985d8e374c,65d2b9cfa5bc04f3723f825e,0.0184,0.0184,0,16,16,86,1,eightsix,,,,,,,,,,,,,,,,,,,,,,,,,,,,,,,,,,,,,,,,,,,,,,,,,,,,,,,,,,,,,,,,,,,,,,,,,,,,,,,,,,,,,,,,,,,,,,,,,,,,,,,,,,,,,,,,,,,,,,,,,,,,,,,,,,,,,,,,,
,,64581c19e5e95ab59f07be23,2024-02-19_03h15.49.765,kallum_motion_pilot,2023.2.2,Win32,142.8571429,64581c19e5e95ab59f07be23,65d2b6c8f2eece985d8e374c,65d2b9cfa5bc04f3723f825e,0.0184,0.0184,0,17,17,15,1,fourthree,,,,,,,,,,,,,,,,,,,,,,,,,,,,,,,,,,,,,,,,,,,,,,,,,,,,,,,,,,,,,,,,,,,,,,,,,,,,,,,,,,,,,,,,,,,,,,,,,,,,,,,,,,,,,,,,,,,,,,,,,,,,,,,,,,,,,,,,,
,,64581c19e5e95ab59f07be23,2024-02-19_03h15.49.765,kallum_motion_pilot,2023.2.2,Win32,142.8571429,64581c19e5e95ab59f07be23,65d2b6c8f2eece985d8e374c,65d2b9cfa5bc04f3723f825e,0.0185,0.0185,0,18,18,131,1,sixeight,,,,,,,,,,,,,,,,,,,,,,,,,,,,,,,,,,,,,,,,,,,,,,,,,,,,,,,,,,,,,,,,,,,,,,,,,,,,,,,,,,,,,,,,,,,,,,,,,,,,,,,,,,,,,,,,,,,,,,,,,,,,,,,,,,,,,,,,,
,,64581c19e5e95ab59f07be23,2024-02-19_03h15.49.765,kallum_motion_pilot,2023.2.2,Win32,142.8571429,64581c19e5e95ab59f07be23,65d2b6c8f2eece985d8e374c,65d2b9cfa5bc04f3723f825e,0.0185,0.0185,0,19,19,18,1,twoone,,,,,,,,,,,,,,,,,,,,,,,,,,,,,,,,,,,,,,,,,,,,,,,,,,,,,,,,,,,,,,,,,,,,,,,,,,,,,,,,,,,,,,,,,,,,,,,,,,,,,,,,,,,,,,,,,,,,,,,,,,,,,,,,,,,,,,,,,
,,64581c19e5e95ab59f07be23,2024-02-19_03h15.49.765,kallum_motion_pilot,2023.2.2,Win32,142.8571429,64581c19e5e95ab59f07be23,65d2b6c8f2eece985d8e374c,65d2b9cfa5bc04f3723f825e,0.0186,0.0186,0,20,20,19,1,twofour,,,,,,,,,,,,,,,,,,,,,,,,,,,,,,,,,,,,,,,,,,,,,,,,,,,,,,,,,,,,,,,,,,,,,,,,,,,,,,,,,,,,,,,,,,,,,,,,,,,,,,,,,,,,,,,,,,,,,,,,,,,,,,,,,,,,,,,,,
,,64581c19e5e95ab59f07be23,2024-02-19_03h15.49.765,kallum_motion_pilot,2023.2.2,Win32,142.8571429,64581c19e5e95ab59f07be23,65d2b6c8f2eece985d8e374c,65d2b9cfa5bc04f3723f825e,0.0193,0.0193,0,21,21,135,1,eightseven,,,,,,,,,,,,,,,,,,,,,,,,,,,,,,,,,,,,,,,,,,,,,,,,,,,,,,,,,,,,,,,,,,,,,,,,,,,,,,,,,,,,,,,,,,,,,,,,,,,,,,,,,,,,,,,,,,,,,,,,,,,,,,,,,,,,,,,,,
,,64581c19e5e95ab59f07be23,2024-02-19_03h15.49.765,kallum_motion_pilot,2023.2.2,Win32,142.8571429,64581c19e5e95ab59f07be23,65d2b6c8f2eece985d8e374c,65d2b9cfa5bc04f3723f825e,0.0194,0.0194,0,22,22,4,1,threeone,,,,,,,,,,,,,,,,,,,,,,,,,,,,,,,,,,,,,,,,,,,,,,,,,,,,,,,,,,,,,,,,,,,,,,,,,,,,,,,,,,,,,,,,,,,,,,,,,,,,,,,,,,,,,,,,,,,,,,,,,,,,,,,,,,,,,,,,,
,,64581c19e5e95ab59f07be23,2024-02-19_03h15.49.765,kallum_motion_pilot,2023.2.2,Win32,142.8571429,64581c19e5e95ab59f07be23,65d2b6c8f2eece985d8e374c,65d2b9cfa5bc04f3723f825e,0.0194,0.0194,0,23,23,132,1,sevenfive,,,,,,,,,,,,,,,,,,,,,,,,,,,,,,,,,,,,,,,,,,,,,,,,,,,,,,,,,,,,,,,,,,,,,,,,,,,,,,,,,,,,,,,,,,,,,,,,,,,,,,,,,,,,,,,,,,,,,,,,,,,,,,,,,,,,,,,,,
,,64581c19e5e95ab59f07be23,2024-02-19_03h15.49.765,kallum_motion_pilot,2023.2.2,Win32,142.8571429,64581c19e5e95ab59f07be23,65d2b6c8f2eece985d8e374c,65d2b9cfa5bc04f3723f825e,0.0194,0.0194,0,24,24,110,1,eightsix,,,,,,,,,,,,,,,,,,,,,,,,,,,,,,,,,,,,,,,,,,,,,,,,,,,,,,,,,,,,,,,,,,,,,,,,,,,,,,,,,,,,,,,,,,,,,,,,,,,,,,,,,,,,,,,,,,,,,,,,,,,,,,,,,,,,,,,,,
,,64581c19e5e95ab59f07be23,2024-02-19_03h15.49.765,kallum_motion_pilot,2023.2.2,Win32,142.8571429,64581c19e5e95ab59f07be23,65d2b6c8f2eece985d8e374c,65d2b9cfa5bc04f3723f825e,0.0195,0.0196,0,25,25,116,1,sevenfive,,,,,,,,,,,,,,,,,,,,,,,,,,,,,,,,,,,,,,,,,,,,,,,,,,,,,,,,,,,,,,,,,,,,,,,,,,,,,,,,,,,,,,,,,,,,,,,,,,,,,,,,,,,,,,,,,,,,,,,,,,,,,,,,,,,,,,,,,
,,64581c19e5e95ab59f07be23,2024-02-19_03h15.49.765,kallum_motion_pilot,2023.2.2,Win32,142.8571429,64581c19e5e95ab59f07be23,65d2b6c8f2eece985d8e374c,65d2b9cfa5bc04f3723f825e,0.0196,0.0196,0,26,26,153,1,fiveseven,,,,,,,,,,,,,,,,,,,,,,,,,,,,,,,,,,,,,,,,,,,,,,,,,,,,,,,,,,,,,,,,,,,,,,,,,,,,,,,,,,,,,,,,,,,,,,,,,,,,,,,,,,,,,,,,,,,,,,,,,,,,,,,,,,,,,,,,,
,,64581c19e5e95ab59f07be23,2024-02-19_03h15.49.765,kallum_motion_pilot,2023.2.2,Win32,142.8571429,64581c19e5e95ab59f07be23,65d2b6c8f2eece985d8e374c,65d2b9cfa5bc04f3723f825e,0.0196,0.0196,0,27,27,11,1,twofour,,,,,,,,,,,,,,,,,,,,,,,,,,,,,,,,,,,,,,,,,,,,,,,,,,,,,,,,,,,,,,,,,,,,,,,,,,,,,,,,,,,,,,,,,,,,,,,,,,,,,,,,,,,,,,,,,,,,,,,,,,,,,,,,,,,,,,,,,
,,64581c19e5e95ab59f07be23,2024-02-19_03h15.49.765,kallum_motion_pilot,2023.2.2,Win32,142.8571429,64581c19e5e95ab59f07be23,65d2b6c8f2eece985d8e374c,65d2b9cfa5bc04f3723f825e,0.0196,0.0196,0,28,28,102,1,eightsix,,,,,,,,,,,,,,,,,,,,,,,,,,,,,,,,,,,,,,,,,,,,,,,,,,,,,,,,,,,,,,,,,,,,,,,,,,,,,,,,,,,,,,,,,,,,,,,,,,,,,,,,,,,,,,,,,,,,,,,,,,,,,,,,,,,,,,,,,
,,64581c19e5e95ab59f07be23,2024-02-19_03h15.49.765,kallum_motion_pilot,2023.2.2,Win32,142.8571429,64581c19e5e95ab59f07be23,65d2b6c8f2eece985d8e374c,65d2b9cfa5bc04f3723f825e,0.0197,0.0197,0,29,29,93,1,seveneight,,,,,,,,,,,,,,,,,,,,,,,,,,,,,,,,,,,,,,,,,,,,,,,,,,,,,,,,,,,,,,,,,,,,,,,,,,,,,,,,,,,,,,,,,,,,,,,,,,,,,,,,,,,,,,,,,,,,,,,,,,,,,,,,,,,,,,,,,
,,64581c19e5e95ab59f07be23,2024-02-19_03h15.49.765,kallum_motion_pilot,2023.2.2,Win32,142.8571429,64581c19e5e95ab59f07be23,65d2b6c8f2eece985d8e374c,65d2b9cfa5bc04f3723f825e,0.0198,0.0198,0,30,30,34,1,twoone,,,,,,,,,,,,,,,,,,,,,,,,,,,,,,,,,,,,,,,,,,,,,,,,,,,,,,,,,,,,,,,,,,,,,,,,,,,,,,,,,,,,,,,,,,,,,,,,,,,,,,,,,,,,,,,,,,,,,,,,,,,,,,,,,,,,,,,,,
,,64581c19e5e95ab59f07be23,2024-02-19_03h15.49.765,kallum_motion_pilot,2023.2.2,Win32,142.8571429,64581c19e5e95ab59f07be23,65d2b6c8f2eece985d8e374c,65d2b9cfa5bc04f3723f825e,0.0199,0.0199,0,31,31,121,1,fiveseven,,,,,,,,,,,,,,,,,,,,,,,,,,,,,,,,,,,,,,,,,,,,,,,,,,,,,,,,,,,,,,,,,,,,,,,,,,,,,,,,,,,,,,,,,,,,,,,,,,,,,,,,,,,,,,,,,,,,,,,,,,,,,,,,,,,,,,,,,
,,64581c19e5e95ab59f07be23,2024-02-19_03h15.49.765,kallum_motion_pilot,2023.2.2,Win32,142.8571429,64581c19e5e95ab59f07be23,65d2b6c8f2eece985d8e374c,65d2b9cfa5bc04f3723f825e,0.0199,0.0199,0,32,32,133,1,seveneight,,,,,,,,,,,,,,,,,,,,,,,,,,,,,,,,,,,,,,,,,,,,,,,,,,,,,,,,,,,,,,,,,,,,,,,,,,,,,,,,,,,,,,,,,,,,,,,,,,,,,,,,,,,,,,,,,,,,,,,,,,,,,,,,,,,,,,,,,
,,64581c19e5e95ab59f07be23,2024-02-19_03h15.49.765,kallum_motion_pilot,2023.2.2,Win32,142.8571429,64581c19e5e95ab59f07be23,65d2b6c8f2eece985d8e374c,65d2b9cfa5bc04f3723f825e,0.0199,0.02,0,33,33,144,1,fivesix,,,,,,,,,,,,,,,,,,,,,,,,,,,,,,,,,,,,,,,,,,,,,,,,,,,,,,,,,,,,,,,,,,,,,,,,,,,,,,,,,,,,,,,,,,,,,,,,,,,,,,,,,,,,,,,,,,,,,,,,,,,,,,,,,,,,,,,,,
,,64581c19e5e95ab59f07be23,2024-02-19_03h15.49.765,kallum_motion_pilot,2023.2.2,Win32,142.8571429,64581c19e5e95ab59f07be23,65d2b6c8f2eece985d8e374c,65d2b9cfa5bc04f3723f825e,0.02,0.02,0,34,34,3,1,twofour,,,,,,,,,,,,,,,,,,,,,,,,,,,,,,,,,,,,,,,,,,,,,,,,,,,,,,,,,,,,,,,,,,,,,,,,,,,,,,,,,,,,,,,,,,,,,,,,,,,,,,,,,,,,,,,,,,,,,,,,,,,,,,,,,,,,,,,,,
,,64581c19e5e95ab59f07be23,2024-02-19_03h15.49.765,kallum_motion_pilot,2023.2.2,Win32,142.8571429,64581c19e5e95ab59f07be23,65d2b6c8f2eece985d8e374c,65d2b9cfa5bc04f3723f825e,0.02,0.02,0,35,35,74,1,twoone,,,,,,,,,,,,,,,,,,,,,,,,,,,,,,,,,,,,,,,,,,,,,,,,,,,,,,,,,,,,,,,,,,,,,,,,,,,,,,,,,,,,,,,,,,,,,,,,,,,,,,,,,,,,,,,,,,,,,,,,,,,,,,,,,,,,,,,,,
,,64581c19e5e95ab59f07be23,2024-02-19_03h15.49.765,kallum_motion_pilot,2023.2.2,Win32,142.8571429,64581c19e5e95ab59f07be23,65d2b6c8f2eece985d8e374c,65d2b9cfa5bc04f3723f825e,0.0201,0.0201,0,36,36,75,1,twofour,,,,,,,,,,,,,,,,,,,,,,,,,,,,,,,,,,,,,,,,,,,,,,,,,,,,,,,,,,,,,,,,,,,,,,,,,,,,,,,,,,,,,,,,,,,,,,,,,,,,,,,,,,,,,,,,,,,,,,,,,,,,,,,,,,,,,,,,,
,,64581c19e5e95ab59f07be23,2024-02-19_03h15.49.765,kallum_motion_pilot,2023.2.2,Win32,142.8571429,64581c19e5e95ab59f07be23,65d2b6c8f2eece985d8e374c,65d2b9cfa5bc04f3723f825e,0.0201,0.0201,0,37,37,9,1,onethree,,,,,,,,,,,,,,,,,,,,,,,,,,,,,,,,,,,,,,,,,,,,,,,,,,,,,,,,,,,,,,,,,,,,,,,,,,,,,,,,,,,,,,,,,,,,,,,,,,,,,,,,,,,,,,,,,,,,,,,,,,,,,,,,,,,,,,,,,
,,64581c19e5e95ab59f07be23,2024-02-19_03h15.49.765,kallum_motion_pilot,2023.2.2,Win32,142.8571429,64581c19e5e95ab59f07be23,65d2b6c8f2eece985d8e374c,65d2b9cfa5bc04f3723f825e,0.0202,0.0203,0,38,38,61,1,threefour,,,,,,,,,,,,,,,,,,,,,,,,,,,,,,,,,,,,,,,,,,,,,,,,,,,,,,,,,,,,,,,,,,,,,,,,,,,,,,,,,,,,,,,,,,,,,,,,,,,,,,,,,,,,,,,,,,,,,,,,,,,,,,,,,,,,,,,,,
,,64581c19e5e95ab59f07be23,2024-02-19_03h15.49.765,kallum_motion_pilot,2023.2.2,Win32,142.8571429,64581c19e5e95ab59f07be23,65d2b6c8f2eece985d8e374c,65d2b9cfa5bc04f3723f825e,0.0203,0.0203,0,39,39,100,1,sevenfive,,,,,,,,,,,,,,,,,,,,,,,,,,,,,,,,,,,,,,,,,,,,,,,,,,,,,,,,,,,,,,,,,,,,,,,,,,,,,,,,,,,,,,,,,,,,,,,,,,,,,,,,,,,,,,,,,,,,,,,,,,,,,,,,,,,,,,,,,
,,64581c19e5e95ab59f07be23,2024-02-19_03h15.49.765,kallum_motion_pilot,2023.2.2,Win32,142.8571429,64581c19e5e95ab59f07be23,65d2b6c8f2eece985d8e374c,65d2b9cfa5bc04f3723f825e,0.0203,0.0203,0,40,40,115,1,sixeight,,,,,,,,,,,,,,,,,,,,,,,,,,,,,,,,,,,,,,,,,,,,,,,,,,,,,,,,,,,,,,,,,,,,,,,,,,,,,,,,,,,,,,,,,,,,,,,,,,,,,,,,,,,,,,,,,,,,,,,,,,,,,,,,,,,,,,,,,
,,64581c19e5e95ab59f07be23,2024-02-19_03h15.49.765,kallum_motion_pilot,2023.2.2,Win32,142.8571429,64581c19e5e95ab59f07be23,65d2b6c8f2eece985d8e374c,65d2b9cfa5bc04f3723f825e,0.0204,0.0204,0,41,41,37,1,threefour,,,,,,,,,,,,,,,,,,,,,,,,,,,,,,,,,,,,,,,,,,,,,,,,,,,,,,,,,,,,,,,,,,,,,,,,,,,,,,,,,,,,,,,,,,,,,,,,,,,,,,,,,,,,,,,,,,,,,,,,,,,,,,,,,,,,,,,,,
,,64581c19e5e95ab59f07be23,2024-02-19_03h15.49.765,kallum_motion_pilot,2023.2.2,Win32,142.8571429,64581c19e5e95ab59f07be23,65d2b6c8f2eece985d8e374c,65d2b9cfa5bc04f3723f825e,0.0205,0.0205,0,42,42,140,1,sevenfive,,,,,,,,,,,,,,,,,,,,,,,,,,,,,,,,,,,,,,,,,,,,,,,,,,,,,,,,,,,,,,,,,,,,,,,,,,,,,,,,,,,,,,,,,,,,,,,,,,,,,,,,,,,,,,,,,,,,,,,,,,,,,,,,,,,,,,,,,
,,64581c19e5e95ab59f07be23,2024-02-19_03h15.49.765,kallum_motion_pilot,2023.2.2,Win32,142.8571429,64581c19e5e95ab59f07be23,65d2b6c8f2eece985d8e374c,65d2b9cfa5bc04f3723f825e,0.0205,0.0205,0,43,43,51,1,twofour,,,,,,,,,,,,,,,,,,,,,,,,,,,,,,,,,,,,,,,,,,,,,,,,,,,,,,,,,,,,,,,,,,,,,,,,,,,,,,,,,,,,,,,,,,,,,,,,,,,,,,,,,,,,,,,,,,,,,,,,,,,,,,,,,,,,,,,,,
,,64581c19e5e95ab59f07be23,2024-02-19_03h15.49.765,kallum_motion_pilot,2023.2.2,Win32,142.8571429,64581c19e5e95ab59f07be23,65d2b6c8f2eece985d8e374c,65d2b9cfa5bc04f3723f825e,0.0205,0.0205,0,44,44,157,1,seveneight,,,,,,,,,,,,,,,,,,,,,,,,,,,,,,,,,,,,,,,,,,,,,,,,,,,,,,,,,,,,,,,,,,,,,,,,,,,,,,,,,,,,,,,,,,,,,,,,,,,,,,,,,,,,,,,,,,,,,,,,,,,,,,,,,,,,,,,,,
,,64581c19e5e95ab59f07be23,2024-02-19_03h15.49.765,kallum_motion_pilot,2023.2.2,Win32,142.8571429,64581c19e5e95ab59f07be23,65d2b6c8f2eece985d8e374c,65d2b9cfa5bc04f3723f825e,0.0206,0.0206,0,45,45,155,1,sixeight,,,,,,,,,,,,,,,,,,,,,,,,,,,,,,,,,,,,,,,,,,,,,,,,,,,,,,,,,,,,,,,,,,,,,,,,,,,,,,,,,,,,,,,,,,,,,,,,,,,,,,,,,,,,,,,,,,,,,,,,,,,,,,,,,,,,,,,,,
,,64581c19e5e95ab59f07be23,2024-02-19_03h15.49.765,kallum_motion_pilot,2023.2.2,Win32,142.8571429,64581c19e5e95ab59f07be23,65d2b6c8f2eece985d8e374c,65d2b9cfa5bc04f3723f825e,0.0207,0.0207,0,46,46,58,1,twoone,,,,,,,,,,,,,,,,,,,,,,,,,,,,,,,,,,,,,,,,,,,,,,,,,,,,,,,,,,,,,,,,,,,,,,,,,,,,,,,,,,,,,,,,,,,,,,,,,,,,,,,,,,,,,,,,,,,,,,,,,,,,,,,,,,,,,,,,,
,,64581c19e5e95ab59f07be23,2024-02-19_03h15.49.765,kallum_motion_pilot,2023.2.2,Win32,142.8571429,64581c19e5e95ab59f07be23,65d2b6c8f2eece985d8e374c,65d2b9cfa5bc04f3723f825e,0.0207,0.0207,0,47,47,62,1,fourtwo,,,,,,,,,,,,,,,,,,,,,,,,,,,,,,,,,,,,,,,,,,,,,,,,,,,,,,,,,,,,,,,,,,,,,,,,,,,,,,,,,,,,,,,,,,,,,,,,,,,,,,,,,,,,,,,,,,,,,,,,,,,,,,,,,,,,,,,,,
,,64581c19e5e95ab59f07be23,2024-02-19_03h15.49.765,kallum_motion_pilot,2023.2.2,Win32,142.8571429,64581c19e5e95ab59f07be23,65d2b6c8f2eece985d8e374c,65d2b9cfa5bc04f3723f825e,0.0208,0.0208,0,48,48,94,1,eightsix,,,,,,,,,,,,,,,,,,,,,,,,,,,,,,,,,,,,,,,,,,,,,,,,,,,,,,,,,,,,,,,,,,,,,,,,,,,,,,,,,,,,,,,,,,,,,,,,,,,,,,,,,,,,,,,,,,,,,,,,,,,,,,,,,,,,,,,,,
,,64581c19e5e95ab59f07be23,2024-02-19_03h15.49.765,kallum_motion_pilot,2023.2.2,Win32,142.8571429,64581c19e5e95ab59f07be23,65d2b6c8f2eece985d8e374c,65d2b9cfa5bc04f3723f825e,0.0208,0.0208,0,49,49,44,1,threeone,,,,,,,,,,,,,,,,,,,,,,,,,,,,,,,,,,,,,,,,,,,,,,,,,,,,,,,,,,,,,,,,,,,,,,,,,,,,,,,,,,,,,,,,,,,,,,,,,,,,,,,,,,,,,,,,,,,,,,,,,,,,,,,,,,,,,,,,,
,,64581c19e5e95ab59f07be23,2024-02-19_03h15.49.765,kallum_motion_pilot,2023.2.2,Win32,142.8571429,64581c19e5e95ab59f07be23,65d2b6c8f2eece985d8e374c,65d2b9cfa5bc04f3723f825e,0.0208,0.0208,0,50,50,23,1,fourthree,,,,,,,,,,,,,,,,,,,,,,,,,,,,,,,,,,,,,,,,,,,,,,,,,,,,,,,,,,,,,,,,,,,,,,,,,,,,,,,,,,,,,,,,,,,,,,,,,,,,,,,,,,,,,,,,,,,,,,,,,,,,,,,,,,,,,,,,,
,,64581c19e5e95ab59f07be23,2024-02-19_03h15.49.765,kallum_motion_pilot,2023.2.2,Win32,142.8571429,64581c19e5e95ab59f07be23,65d2b6c8f2eece985d8e374c,65d2b9cfa5bc04f3723f825e,0.021,0.021,0,51,51,150,1,eightsix,,,,,,,,,,,,,,,,,,,,,,,,,,,,,,,,,,,,,,,,,,,,,,,,,,,,,,,,,,,,,,,,,,,,,,,,,,,,,,,,,,,,,,,,,,,,,,,,,,,,,,,,,,,,,,,,,,,,,,,,,,,,,,,,,,,,,,,,,
,,64581c19e5e95ab59f07be23,2024-02-19_03h15.49.765,kallum_motion_pilot,2023.2.2,Win32,142.8571429,64581c19e5e95ab59f07be23,65d2b6c8f2eece985d8e374c,65d2b9cfa5bc04f3723f825e,0.021,0.021,0,52,52,38,1,fourtwo,,,,,,,,,,,,,,,,,,,,,,,,,,,,,,,,,,,,,,,,,,,,,,,,,,,,,,,,,,,,,,,,,,,,,,,,,,,,,,,,,,,,,,,,,,,,,,,,,,,,,,,,,,,,,,,,,,,,,,,,,,,,,,,,,,,,,,,,,
,,64581c19e5e95ab59f07be23,2024-02-19_03h15.49.765,kallum_motion_pilot,2023.2.2,Win32,142.8571429,64581c19e5e95ab59f07be23,65d2b6c8f2eece985d8e374c,65d2b9cfa5bc04f3723f825e,0.021,0.021,0,53,53,79,1,eightseven,,,,,,,,,,,,,,,,,,,,,,,,,,,,,,,,,,,,,,,,,,,,,,,,,,,,,,,,,,,,,,,,,,,,,,,,,,,,,,,,,,,,,,,,,,,,,,,,,,,,,,,,,,,,,,,,,,,,,,,,,,,,,,,,,,,,,,,,,
,,64581c19e5e95ab59f07be23,2024-02-19_03h15.49.765,kallum_motion_pilot,2023.2.2,Win32,142.8571429,64581c19e5e95ab59f07be23,65d2b6c8f2eece985d8e374c,65d2b9cfa5bc04f3723f825e,0.0211,0.0211,0,54,54,158,1,eightsix,,,,,,,,,,,,,,,,,,,,,,,,,,,,,,,,,,,,,,,,,,,,,,,,,,,,,,,,,,,,,,,,,,,,,,,,,,,,,,,,,,,,,,,,,,,,,,,,,,,,,,,,,,,,,,,,,,,,,,,,,,,,,,,,,,,,,,,,,
,,64581c19e5e95ab59f07be23,2024-02-19_03h15.49.765,kallum_motion_pilot,2023.2.2,Win32,142.8571429,64581c19e5e95ab59f07be23,65d2b6c8f2eece985d8e374c,65d2b9cfa5bc04f3723f825e,0.0212,0.0212,0,55,55,66,1,twoone,,,,,,,,,,,,,,,,,,,,,,,,,,,,,,,,,,,,,,,,,,,,,,,,,,,,,,,,,,,,,,,,,,,,,,,,,,,,,,,,,,,,,,,,,,,,,,,,,,,,,,,,,,,,,,,,,,,,,,,,,,,,,,,,,,,,,,,,,
,,64581c19e5e95ab59f07be23,2024-02-19_03h15.49.765,kallum_motion_pilot,2023.2.2,Win32,142.8571429,64581c19e5e95ab59f07be23,65d2b6c8f2eece985d8e374c,65d2b9cfa5bc04f3723f825e,0.0212,0.0212,0,56,56,90,1,sixfive,,,,,,,,,,,,,,,,,,,,,,,,,,,,,,,,,,,,,,,,,,,,,,,,,,,,,,,,,,,,,,,,,,,,,,,,,,,,,,,,,,,,,,,,,,,,,,,,,,,,,,,,,,,,,,,,,,,,,,,,,,,,,,,,,,,,,,,,,
,,64581c19e5e95ab59f07be23,2024-02-19_03h15.49.765,kallum_motion_pilot,2023.2.2,Win32,142.8571429,64581c19e5e95ab59f07be23,65d2b6c8f2eece985d8e374c,65d2b9cfa5bc04f3723f825e,0.0213,0.0213,0,57,57,63,1,fourthree,,,,,,,,,,,,,,,,,,,,,,,,,,,,,,,,,,,,,,,,,,,,,,,,,,,,,,,,,,,,,,,,,,,,,,,,,,,,,,,,,,,,,,,,,,,,,,,,,,,,,,,,,,,,,,,,,,,,,,,,,,,,,,,,,,,,,,,,,
,,64581c19e5e95ab59f07be23,2024-02-19_03h15.49.765,kallum_motion_pilot,2023.2.2,Win32,142.8571429,64581c19e5e95ab59f07be23,65d2b6c8f2eece985d8e374c,65d2b9cfa5bc04f3723f825e,0.0214,0.0214,0,58,58,21,1,threefour,,,,,,,,,,,,,,,,,,,,,,,,,,,,,,,,,,,,,,,,,,,,,,,,,,,,,,,,,,,,,,,,,,,,,,,,,,,,,,,,,,,,,,,,,,,,,,,,,,,,,,,,,,,,,,,,,,,,,,,,,,,,,,,,,,,,,,,,,
,,64581c19e5e95ab59f07be23,2024-02-19_03h15.49.765,kallum_motion_pilot,2023.2.2,Win32,142.8571429,64581c19e5e95ab59f07be23,65d2b6c8f2eece985d8e374c,65d2b9cfa5bc04f3723f825e,0.0214,0.0214,0,59,59,88,1,fivesix,,,,,,,,,,,,,,,,,,,,,,,,,,,,,,,,,,,,,,,,,,,,,,,,,,,,,,,,,,,,,,,,,,,,,,,,,,,,,,,,,,,,,,,,,,,,,,,,,,,,,,,,,,,,,,,,,,,,,,,,,,,,,,,,,,,,,,,,,
,,64581c19e5e95ab59f07be23,2024-02-19_03h15.49.765,kallum_motion_pilot,2023.2.2,Win32,142.8571429,64581c19e5e95ab59f07be23,65d2b6c8f2eece985d8e374c,65d2b9cfa5bc04f3723f825e,0.0215,0.0215,0,60,60,7,1,fourthree,,,,,,,,,,,,,,,,,,,,,,,,,,,,,,,,,,,,,,,,,,,,,,,,,,,,,,,,,,,,,,,,,,,,,,,,,,,,,,,,,,,,,,,,,,,,,,,,,,,,,,,,,,,,,,,,,,,,,,,,,,,,,,,,,,,,,,,,,
,,64581c19e5e95ab59f07be23,2024-02-19_03h15.49.765,kallum_motion_pilot,2023.2.2,Win32,142.8571429,64581c19e5e95ab59f07be23,65d2b6c8f2eece985d8e374c,65d2b9cfa5bc04f3723f825e,0.0216,0.0216,0,61,61,22,1,fourtwo,,,,,,,,,,,,,,,,,,,,,,,,,,,,,,,,,,,,,,,,,,,,,,,,,,,,,,,,,,,,,,,,,,,,,,,,,,,,,,,,,,,,,,,,,,,,,,,,,,,,,,,,,,,,,,,,,,,,,,,,,,,,,,,,,,,,,,,,,
,,64581c19e5e95ab59f07be23,2024-02-19_03h15.49.765,kallum_motion_pilot,2023.2.2,Win32,142.8571429,64581c19e5e95ab59f07be23,65d2b6c8f2eece985d8e374c,65d2b9cfa5bc04f3723f825e,0.0216,0.0216,0,62,62,89,1,fiveseven,,,,,,,,,,,,,,,,,,,,,,,,,,,,,,,,,,,,,,,,,,,,,,,,,,,,,,,,,,,,,,,,,,,,,,,,,,,,,,,,,,,,,,,,,,,,,,,,,,,,,,,,,,,,,,,,,,,,,,,,,,,,,,,,,,,,,,,,,
,,64581c19e5e95ab59f07be23,2024-02-19_03h15.49.765,kallum_motion_pilot,2023.2.2,Win32,142.8571429,64581c19e5e95ab59f07be23,65d2b6c8f2eece985d8e374c,65d2b9cfa5bc04f3723f825e,0.0217,0.0217,0,63,63,97,1,fiveseven,,,,,,,,,,,,,,,,,,,,,,,,,,,,,,,,,,,,,,,,,,,,,,,,,,,,,,,,,,,,,,,,,,,,,,,,,,,,,,,,,,,,,,,,,,,,,,,,,,,,,,,,,,,,,,,,,,,,,,,,,,,,,,,,,,,,,,,,,
,,64581c19e5e95ab59f07be23,2024-02-19_03h15.49.765,kallum_motion_pilot,2023.2.2,Win32,142.8571429,64581c19e5e95ab59f07be23,65d2b6c8f2eece985d8e374c,65d2b9cfa5bc04f3723f825e,0.0217,0.0217,0,64,64,29,1,threefour,,,,,,,,,,,,,,,,,,,,,,,,,,,,,,,,,,,,,,,,,,,,,,,,,,,,,,,,,,,,,,,,,,,,,,,,,,,,,,,,,,,,,,,,,,,,,,,,,,,,,,,,,,,,,,,,,,,,,,,,,,,,,,,,,,,,,,,,,
,,64581c19e5e95ab59f07be23,2024-02-19_03h15.49.765,kallum_motion_pilot,2023.2.2,Win32,142.8571429,64581c19e5e95ab59f07be23,65d2b6c8f2eece985d8e374c,65d2b9cfa5bc04f3723f825e,0.0218,0.0218,0,65,65,148,1,sevenfive,,,,,,,,,,,,,,,,,,,,,,,,,,,,,,,,,,,,,,,,,,,,,,,,,,,,,,,,,,,,,,,,,,,,,,,,,,,,,,,,,,,,,,,,,,,,,,,,,,,,,,,,,,,,,,,,,,,,,,,,,,,,,,,,,,,,,,,,,
,,64581c19e5e95ab59f07be23,2024-02-19_03h15.49.765,kallum_motion_pilot,2023.2.2,Win32,142.8571429,64581c19e5e95ab59f07be23,65d2b6c8f2eece985d8e374c,65d2b9cfa5bc04f3723f825e,0.0218,0.0218,0,66,66,120,1,fivesix,,,,,,,,,,,,,,,,,,,,,,,,,,,,,,,,,,,,,,,,,,,,,,,,,,,,,,,,,,,,,,,,,,,,,,,,,,,,,,,,,,,,,,,,,,,,,,,,,,,,,,,,,,,,,,,,,,,,,,,,,,,,,,,,,,,,,,,,,
,,64581c19e5e95ab59f07be23,2024-02-19_03h15.49.765,kallum_motion_pilot,2023.2.2,Win32,142.8571429,64581c19e5e95ab59f07be23,65d2b6c8f2eece985d8e374c,65d2b9cfa5bc04f3723f825e,0.0218,0.0219,0,67,67,67,1,twofour,,,,,,,,,,,,,,,,,,,,,,,,,,,,,,,,,,,,,,,,,,,,,,,,,,,,,,,,,,,,,,,,,,,,,,,,,,,,,,,,,,,,,,,,,,,,,,,,,,,,,,,,,,,,,,,,,,,,,,,,,,,,,,,,,,,,,,,,,
,,64581c19e5e95ab59f07be23,2024-02-19_03h15.49.765,kallum_motion_pilot,2023.2.2,Win32,142.8571429,64581c19e5e95ab59f07be23,65d2b6c8f2eece985d8e374c,65d2b9cfa5bc04f3723f825e,0.022,0.022,0,68,68,143,1,eightseven,,,,,,,,,,,,,,,,,,,,,,,,,,,,,,,,,,,,,,,,,,,,,,,,,,,,,,,,,,,,,,,,,,,,,,,,,,,,,,,,,,,,,,,,,,,,,,,,,,,,,,,,,,,,,,,,,,,,,,,,,,,,,,,,,,,,,,,,,
,,64581c19e5e95ab59f07be23,2024-02-19_03h15.49.765,kallum_motion_pilot,2023.2.2,Win32,142.8571429,64581c19e5e95ab59f07be23,65d2b6c8f2eece985d8e374c,65d2b9cfa5bc04f3723f825e,0.022,0.022,0,69,69,105,1,fiveseven,,,,,,,,,,,,,,,,,,,,,,,,,,,,,,,,,,,,,,,,,,,,,,,,,,,,,,,,,,,,,,,,,,,,,,,,,,,,,,,,,,,,,,,,,,,,,,,,,,,,,,,,,,,,,,,,,,,,,,,,,,,,,,,,,,,,,,,,,
,,64581c19e5e95ab59f07be23,2024-02-19_03h15.49.765,kallum_motion_pilot,2023.2.2,Win32,142.8571429,64581c19e5e95ab59f07be23,65d2b6c8f2eece985d8e374c,65d2b9cfa5bc04f3723f825e,0.022,0.0221,0,70,70,145,1,fiveseven,,,,,,,,,,,,,,,,,,,,,,,,,,,,,,,,,,,,,,,,,,,,,,,,,,,,,,,,,,,,,,,,,,,,,,,,,,,,,,,,,,,,,,,,,,,,,,,,,,,,,,,,,,,,,,,,,,,,,,,,,,,,,,,,,,,,,,,,,
,,64581c19e5e95ab59f07be23,2024-02-19_03h15.49.765,kallum_motion_pilot,2023.2.2,Win32,142.8571429,64581c19e5e95ab59f07be23,65d2b6c8f2eece985d8e374c,65d2b9cfa5bc04f3723f825e,0.0222,0.0222,0,71,71,136,1,fivesix,,,,,,,,,,,,,,,,,,,,,,,,,,,,,,,,,,,,,,,,,,,,,,,,,,,,,,,,,,,,,,,,,,,,,,,,,,,,,,,,,,,,,,,,,,,,,,,,,,,,,,,,,,,,,,,,,,,,,,,,,,,,,,,,,,,,,,,,,
,,64581c19e5e95ab59f07be23,2024-02-19_03h15.49.765,kallum_motion_pilot,2023.2.2,Win32,142.8571429,64581c19e5e95ab59f07be23,65d2b6c8f2eece985d8e374c,65d2b9cfa5bc04f3723f825e,0.0222,0.0222,0,72,72,151,1,eightseven,,,,,,,,,,,,,,,,,,,,,,,,,,,,,,,,,,,,,,,,,,,,,,,,,,,,,,,,,,,,,,,,,,,,,,,,,,,,,,,,,,,,,,,,,,,,,,,,,,,,,,,,,,,,,,,,,,,,,,,,,,,,,,,,,,,,,,,,,
,,64581c19e5e95ab59f07be23,2024-02-19_03h15.49.765,kallum_motion_pilot,2023.2.2,Win32,142.8571429,64581c19e5e95ab59f07be23,65d2b6c8f2eece985d8e374c,65d2b9cfa5bc04f3723f825e,0.0223,0.0223,0,73,73,30,1,fourtwo,,,,,,,,,,,,,,,,,,,,,,,,,,,,,,,,,,,,,,,,,,,,,,,,,,,,,,,,,,,,,,,,,,,,,,,,,,,,,,,,,,,,,,,,,,,,,,,,,,,,,,,,,,,,,,,,,,,,,,,,,,,,,,,,,,,,,,,,,
,,64581c19e5e95ab59f07be23,2024-02-19_03h15.49.765,kallum_motion_pilot,2023.2.2,Win32,142.8571429,64581c19e5e95ab59f07be23,65d2b6c8f2eece985d8e374c,65d2b9cfa5bc04f3723f825e,0.0223,0.0223,0,74,74,59,1,twofour,,,,,,,,,,,,,,,,,,,,,,,,,,,,,,,,,,,,,,,,,,,,,,,,,,,,,,,,,,,,,,,,,,,,,,,,,,,,,,,,,,,,,,,,,,,,,,,,,,,,,,,,,,,,,,,,,,,,,,,,,,,,,,,,,,,,,,,,,
,,64581c19e5e95ab59f07be23,2024-02-19_03h15.49.765,kallum_motion_pilot,2023.2.2,Win32,142.8571429,64581c19e5e95ab59f07be23,65d2b6c8f2eece985d8e374c,65d2b9cfa5bc04f3723f825e,0.0224,0.0224,0,75,75,127,1,eightseven,,,,,,,,,,,,,,,,,,,,,,,,,,,,,,,,,,,,,,,,,,,,,,,,,,,,,,,,,,,,,,,,,,,,,,,,,,,,,,,,,,,,,,,,,,,,,,,,,,,,,,,,,,,,,,,,,,,,,,,,,,,,,,,,,,,,,,,,,
,,64581c19e5e95ab59f07be23,2024-02-19_03h15.49.765,kallum_motion_pilot,2023.2.2,Win32,142.8571429,64581c19e5e95ab59f07be23,65d2b6c8f2eece985d8e374c,65d2b9cfa5bc04f3723f825e,0.0225,0.0225,0,76,76,113,1,fiveseven,,,,,,,,,,,,,,,,,,,,,,,,,,,,,,,,,,,,,,,,,,,,,,,,,,,,,,,,,,,,,,,,,,,,,,,,,,,,,,,,,,,,,,,,,,,,,,,,,,,,,,,,,,,,,,,,,,,,,,,,,,,,,,,,,,,,,,,,,
,,64581c19e5e95ab59f07be23,2024-02-19_03h15.49.765,kallum_motion_pilot,2023.2.2,Win32,142.8571429,64581c19e5e95ab59f07be23,65d2b6c8f2eece985d8e374c,65d2b9cfa5bc04f3723f825e,0.0225,0.0225,0,77,77,20,1,threeone,,,,,,,,,,,,,,,,,,,,,,,,,,,,,,,,,,,,,,,,,,,,,,,,,,,,,,,,,,,,,,,,,,,,,,,,,,,,,,,,,,,,,,,,,,,,,,,,,,,,,,,,,,,,,,,,,,,,,,,,,,,,,,,,,,,,,,,,,
,,64581c19e5e95ab59f07be23,2024-02-19_03h15.49.765,kallum_motion_pilot,2023.2.2,Win32,142.8571429,64581c19e5e95ab59f07be23,65d2b6c8f2eece985d8e374c,65d2b9cfa5bc04f3723f825e,0.0225,0.0226,0,78,78,42,1,twoone,,,,,,,,,,,,,,,,,,,,,,,,,,,,,,,,,,,,,,,,,,,,,,,,,,,,,,,,,,,,,,,,,,,,,,,,,,,,,,,,,,,,,,,,,,,,,,,,,,,,,,,,,,,,,,,,,,,,,,,,,,,,,,,,,,,,,,,,,
,,64581c19e5e95ab59f07be23,2024-02-19_03h15.49.765,kallum_motion_pilot,2023.2.2,Win32,142.8571429,64581c19e5e95ab59f07be23,65d2b6c8f2eece985d8e374c,65d2b9cfa5bc04f3723f825e,0.0227,0.0227,0,79,79,1,1,onethree,,,,,,,,,,,,,,,,,,,,,,,,,,,,,,,,,,,,,,,,,,,,,,,,,,,,,,,,,,,,,,,,,,,,,,,,,,,,,,,,,,,,,,,,,,,,,,,,,,,,,,,,,,,,,,,,,,,,,,,,,,,,,,,,,,,,,,,,,
,,64581c19e5e95ab59f07be23,2024-02-19_03h15.49.765,kallum_motion_pilot,2023.2.2,Win32,142.8571429,64581c19e5e95ab59f07be23,65d2b6c8f2eece985d8e374c,65d2b9cfa5bc04f3723f825e,0.0227,0.0227,0,80,80,32,1,onetwo,,,,,,,,,,,,,,,,,,,,,,,,,,,,,,,,,,,,,,,,,,,,,,,,,,,,,,,,,,,,,,,,,,,,,,,,,,,,,,,,,,,,,,,,,,,,,,,,,,,,,,,,,,,,,,,,,,,,,,,,,,,,,,,,,,,,,,,,,
,,64581c19e5e95ab59f07be23,2024-02-19_03h15.49.765,kallum_motion_pilot,2023.2.2,Win32,142.8571429,64581c19e5e95ab59f07be23,65d2b6c8f2eece985d8e374c,65d2b9cfa5bc04f3723f825e,0.0228,0.0228,0,81,81,138,1,sixfive,,,,,,,,,,,,,,,,,,,,,,,,,,,,,,,,,,,,,,,,,,,,,,,,,,,,,,,,,,,,,,,,,,,,,,,,,,,,,,,,,,,,,,,,,,,,,,,,,,,,,,,,,,,,,,,,,,,,,,,,,,,,,,,,,,,,,,,,,
,,64581c19e5e95ab59f07be23,2024-02-19_03h15.49.765,kallum_motion_pilot,2023.2.2,Win32,142.8571429,64581c19e5e95ab59f07be23,65d2b6c8f2eece985d8e374c,65d2b9cfa5bc04f3723f825e,0.0228,0.0229,0,82,82,49,1,onethree,,,,,,,,,,,,,,,,,,,,,,,,,,,,,,,,,,,,,,,,,,,,,,,,,,,,,,,,,,,,,,,,,,,,,,,,,,,,,,,,,,,,,,,,,,,,,,,,,,,,,,,,,,,,,,,,,,,,,,,,,,,,,,,,,,,,,,,,,
,,64581c19e5e95ab59f07be23,2024-02-19_03h15.49.765,kallum_motion_pilot,2023.2.2,Win32,142.8571429,64581c19e5e95ab59f07be23,65d2b6c8f2eece985d8e374c,65d2b9cfa5bc04f3723f825e,0.0229,0.0229,0,83,83,53,1,threefour,,,,,,,,,,,,,,,,,,,,,,,,,,,,,,,,,,,,,,,,,,,,,,,,,,,,,,,,,,,,,,,,,,,,,,,,,,,,,,,,,,,,,,,,,,,,,,,,,,,,,,,,,,,,,,,,,,,,,,,,,,,,,,,,,,,,,,,,,
,,64581c19e5e95ab59f07be23,2024-02-19_03h15.49.765,kallum_motion_pilot,2023.2.2,Win32,142.8571429,64581c19e5e95ab59f07be23,65d2b6c8f2eece985d8e374c,65d2b9cfa5bc04f3723f825e,0.023,0.023,0,84,84,78,1,fourtwo,,,,,,,,,,,,,,,,,,,,,,,,,,,,,,,,,,,,,,,,,,,,,,,,,,,,,,,,,,,,,,,,,,,,,,,,,,,,,,,,,,,,,,,,,,,,,,,,,,,,,,,,,,,,,,,,,,,,,,,,,,,,,,,,,,,,,,,,,
,,64581c19e5e95ab59f07be23,2024-02-19_03h15.49.765,kallum_motion_pilot,2023.2.2,Win32,142.8571429,64581c19e5e95ab59f07be23,65d2b6c8f2eece985d8e374c,65d2b9cfa5bc04f3723f825e,0.0231,0.0231,0,85,85,85,1,seveneight,,,,,,,,,,,,,,,,,,,,,,,,,,,,,,,,,,,,,,,,,,,,,,,,,,,,,,,,,,,,,,,,,,,,,,,,,,,,,,,,,,,,,,,,,,,,,,,,,,,,,,,,,,,,,,,,,,,,,,,,,,,,,,,,,,,,,,,,,
,,64581c19e5e95ab59f07be23,2024-02-19_03h15.49.765,kallum_motion_pilot,2023.2.2,Win32,142.8571429,64581c19e5e95ab59f07be23,65d2b6c8f2eece985d8e374c,65d2b9cfa5bc04f3723f825e,0.0231,0.0232,0,86,86,50,1,twoone,,,,,,,,,,,,,,,,,,,,,,,,,,,,,,,,,,,,,,,,,,,,,,,,,,,,,,,,,,,,,,,,,,,,,,,,,,,,,,,,,,,,,,,,,,,,,,,,,,,,,,,,,,,,,,,,,,,,,,,,,,,,,,,,,,,,,,,,,
,,64581c19e5e95ab59f07be23,2024-02-19_03h15.49.765,kallum_motion_pilot,2023.2.2,Win32,142.8571429,64581c19e5e95ab59f07be23,65d2b6c8f2eece985d8e374c,65d2b9cfa5bc04f3723f825e,0.0232,0.0232,0,87,87,28,1,threeone,,,,,,,,,,,,,,,,,,,,,,,,,,,,,,,,,,,,,,,,,,,,,,,,,,,,,,,,,,,,,,,,,,,,,,,,,,,,,,,,,,,,,,,,,,,,,,,,,,,,,,,,,,,,,,,,,,,,,,,,,,,,,,,,,,,,,,,,,
,,64581c19e5e95ab59f07be23,2024-02-19_03h15.49.765,kallum_motion_pilot,2023.2.2,Win32,142.8571429,64581c19e5e95ab59f07be23,65d2b6c8f2eece985d8e374c,65d2b9cfa5bc04f3723f825e,0.0233,0.0233,0,88,88,152,1,fivesix,,,,,,,,,,,,,,,,,,,,,,,,,,,,,,,,,,,,,,,,,,,,,,,,,,,,,,,,,,,,,,,,,,,,,,,,,,,,,,,,,,,,,,,,,,,,,,,,,,,,,,,,,,,,,,,,,,,,,,,,,,,,,,,,,,,,,,,,,
,,64581c19e5e95ab59f07be23,2024-02-19_03h15.49.765,kallum_motion_pilot,2023.2.2,Win32,142.8571429,64581c19e5e95ab59f07be23,65d2b6c8f2eece985d8e374c,65d2b9cfa5bc04f3723f825e,0.0233,0.0233,0,89,89,70,1,fourtwo,,,,,,,,,,,,,,,,,,,,,,,,,,,,,,,,,,,,,,,,,,,,,,,,,,,,,,,,,,,,,,,,,,,,,,,,,,,,,,,,,,,,,,,,,,,,,,,,,,,,,,,,,,,,,,,,,,,,,,,,,,,,,,,,,,,,,,,,,
,,64581c19e5e95ab59f07be23,2024-02-19_03h15.49.765,kallum_motion_pilot,2023.2.2,Win32,142.8571429,64581c19e5e95ab59f07be23,65d2b6c8f2eece985d8e374c,65d2b9cfa5bc04f3723f825e,0.0233,0.0234,0,90,90,147,1,sixeight,,,,,,,,,,,,,,,,,,,,,,,,,,,,,,,,,,,,,,,,,,,,,,,,,,,,,,,,,,,,,,,,,,,,,,,,,,,,,,,,,,,,,,,,,,,,,,,,,,,,,,,,,,,,,,,,,,,,,,,,,,,,,,,,,,,,,,,,,
,,64581c19e5e95ab59f07be23,2024-02-19_03h15.49.765,kallum_motion_pilot,2023.2.2,Win32,142.8571429,64581c19e5e95ab59f07be23,65d2b6c8f2eece985d8e374c,65d2b9cfa5bc04f3723f825e,0.0235,0.0235,0,91,91,92,1,sevenfive,,,,,,,,,,,,,,,,,,,,,,,,,,,,,,,,,,,,,,,,,,,,,,,,,,,,,,,,,,,,,,,,,,,,,,,,,,,,,,,,,,,,,,,,,,,,,,,,,,,,,,,,,,,,,,,,,,,,,,,,,,,,,,,,,,,,,,,,,
,,64581c19e5e95ab59f07be23,2024-02-19_03h15.49.765,kallum_motion_pilot,2023.2.2,Win32,142.8571429,64581c19e5e95ab59f07be23,65d2b6c8f2eece985d8e374c,65d2b9cfa5bc04f3723f825e,0.0235,0.0235,0,92,92,134,1,eightsix,,,,,,,,,,,,,,,,,,,,,,,,,,,,,,,,,,,,,,,,,,,,,,,,,,,,,,,,,,,,,,,,,,,,,,,,,,,,,,,,,,,,,,,,,,,,,,,,,,,,,,,,,,,,,,,,,,,,,,,,,,,,,,,,,,,,,,,,,
,,64581c19e5e95ab59f07be23,2024-02-19_03h15.49.765,kallum_motion_pilot,2023.2.2,Win32,142.8571429,64581c19e5e95ab59f07be23,65d2b6c8f2eece985d8e374c,65d2b9cfa5bc04f3723f825e,0.0236,0.0236,0,93,93,16,1,onetwo,,,,,,,,,,,,,,,,,,,,,,,,,,,,,,,,,,,,,,,,,,,,,,,,,,,,,,,,,,,,,,,,,,,,,,,,,,,,,,,,,,,,,,,,,,,,,,,,,,,,,,,,,,,,,,,,,,,,,,,,,,,,,,,,,,,,,,,,,
,,64581c19e5e95ab59f07be23,2024-02-19_03h15.49.765,kallum_motion_pilot,2023.2.2,Win32,142.8571429,64581c19e5e95ab59f07be23,65d2b6c8f2eece985d8e374c,65d2b9cfa5bc04f3723f825e,0.0236,0.0236,0,94,94,103,1,eightseven,,,,,,,,,,,,,,,,,,,,,,,,,,,,,,,,,,,,,,,,,,,,,,,,,,,,,,,,,,,,,,,,,,,,,,,,,,,,,,,,,,,,,,,,,,,,,,,,,,,,,,,,,,,,,,,,,,,,,,,,,,,,,,,,,,,,,,,,,
,,64581c19e5e95ab59f07be23,2024-02-19_03h15.49.765,kallum_motion_pilot,2023.2.2,Win32,142.8571429,64581c19e5e95ab59f07be23,65d2b6c8f2eece985d8e374c,65d2b9cfa5bc04f3723f825e,0.0243,0.0244,0,95,95,106,1,sixfive,,,,,,,,,,,,,,,,,,,,,,,,,,,,,,,,,,,,,,,,,,,,,,,,,,,,,,,,,,,,,,,,,,,,,,,,,,,,,,,,,,,,,,,,,,,,,,,,,,,,,,,,,,,,,,,,,,,,,,,,,,,,,,,,,,,,,,,,,
,,64581c19e5e95ab59f07be23,2024-02-19_03h15.49.765,kallum_motion_pilot,2023.2.2,Win32,142.8571429,64581c19e5e95ab59f07be23,65d2b6c8f2eece985d8e374c,65d2b9cfa5bc04f3723f825e,0.0245,0.0245,0,96,96,125,1,seveneight,,,,,,,,,,,,,,,,,,,,,,,,,,,,,,,,,,,,,,,,,,,,,,,,,,,,,,,,,,,,,,,,,,,,,,,,,,,,,,,,,,,,,,,,,,,,,,,,,,,,,,,,,,,,,,,,,,,,,,,,,,,,,,,,,,,,,,,,,
,,64581c19e5e95ab59f07be23,2024-02-19_03h15.49.765,kallum_motion_pilot,2023.2.2,Win32,142.8571429,64581c19e5e95ab59f07be23,65d2b6c8f2eece985d8e374c,65d2b9cfa5bc04f3723f825e,0.0246,0.0246,0,97,97,119,1,eightseven,,,,,,,,,,,,,,,,,,,,,,,,,,,,,,,,,,,,,,,,,,,,,,,,,,,,,,,,,,,,,,,,,,,,,,,,,,,,,,,,,,,,,,,,,,,,,,,,,,,,,,,,,,,,,,,,,,,,,,,,,,,,,,,,,,,,,,,,,
,,64581c19e5e95ab59f07be23,2024-02-19_03h15.49.765,kallum_motion_pilot,2023.2.2,Win32,142.8571429,64581c19e5e95ab59f07be23,65d2b6c8f2eece985d8e374c,65d2b9cfa5bc04f3723f825e,0.0247,0.0247,0,98,98,112,1,fivesix,,,,,,,,,,,,,,,,,,,,,,,,,,,,,,,,,,,,,,,,,,,,,,,,,,,,,,,,,,,,,,,,,,,,,,,,,,,,,,,,,,,,,,,,,,,,,,,,,,,,,,,,,,,,,,,,,,,,,,,,,,,,,,,,,,,,,,,,,
,,64581c19e5e95ab59f07be23,2024-02-19_03h15.49.765,kallum_motion_pilot,2023.2.2,Win32,142.8571429,64581c19e5e95ab59f07be23,65d2b6c8f2eece985d8e374c,65d2b9cfa5bc04f3723f825e,0.0248,0.0248,0,99,99,13,1,threefour,,,,,,,,,,,,,,,,,,,,,,,,,,,,,,,,,,,,,,,,,,,,,,,,,,,,,,,,,,,,,,,,,,,,,,,,,,,,,,,,,,,,,,,,,,,,,,,,,,,,,,,,,,,,,,,,,,,,,,,,,,,,,,,,,,,,,,,,,
,,64581c19e5e95ab59f07be23,2024-02-19_03h15.49.765,kallum_motion_pilot,2023.2.2,Win32,142.8571429,64581c19e5e95ab59f07be23,65d2b6c8f2eece985d8e374c,65d2b9cfa5bc04f3723f825e,0.0248,0.0249,0,100,100,76,1,threeone,,,,,,,,,,,,,,,,,,,,,,,,,,,,,,,,,,,,,,,,,,,,,,,,,,,,,,,,,,,,,,,,,,,,,,,,,,,,,,,,,,,,,,,,,,,,,,,,,,,,,,,,,,,,,,,,,,,,,,,,,,,,,,,,,,,,,,,,,
,,64581c19e5e95ab59f07be23,2024-02-19_03h15.49.765,kallum_motion_pilot,2023.2.2,Win32,142.8571429,64581c19e5e95ab59f07be23,65d2b6c8f2eece985d8e374c,65d2b9cfa5bc04f3723f825e,0.0249,0.0249,0,101,101,24,1,onetwo,,,,,,,,,,,,,,,,,,,,,,,,,,,,,,,,,,,,,,,,,,,,,,,,,,,,,,,,,,,,,,,,,,,,,,,,,,,,,,,,,,,,,,,,,,,,,,,,,,,,,,,,,,,,,,,,,,,,,,,,,,,,,,,,,,,,,,,,,
,,64581c19e5e95ab59f07be23,2024-02-19_03h15.49.765,kallum_motion_pilot,2023.2.2,Win32,142.8571429,64581c19e5e95ab59f07be23,65d2b6c8f2eece985d8e374c,65d2b9cfa5bc04f3723f825e,0.0249,0.025,0,102,102,73,1,onethree,,,,,,,,,,,,,,,,,,,,,,,,,,,,,,,,,,,,,,,,,,,,,,,,,,,,,,,,,,,,,,,,,,,,,,,,,,,,,,,,,,,,,,,,,,,,,,,,,,,,,,,,,,,,,,,,,,,,,,,,,,,,,,,,,,,,,,,,,
,,64581c19e5e95ab59f07be23,2024-02-19_03h15.49.765,kallum_motion_pilot,2023.2.2,Win32,142.8571429,64581c19e5e95ab59f07be23,65d2b6c8f2eece985d8e374c,65d2b9cfa5bc04f3723f825e,0.025,0.0251,0,103,103,57,1,onethree,,,,,,,,,,,,,,,,,,,,,,,,,,,,,,,,,,,,,,,,,,,,,,,,,,,,,,,,,,,,,,,,,,,,,,,,,,,,,,,,,,,,,,,,,,,,,,,,,,,,,,,,,,,,,,,,,,,,,,,,,,,,,,,,,,,,,,,,,
,,64581c19e5e95ab59f07be23,2024-02-19_03h15.49.765,kallum_motion_pilot,2023.2.2,Win32,142.8571429,64581c19e5e95ab59f07be23,65d2b6c8f2eece985d8e374c,65d2b9cfa5bc04f3723f825e,0.0251,0.0251,0,104,104,95,1,eightseven,,,,,,,,,,,,,,,,,,,,,,,,,,,,,,,,,,,,,,,,,,,,,,,,,,,,,,,,,,,,,,,,,,,,,,,,,,,,,,,,,,,,,,,,,,,,,,,,,,,,,,,,,,,,,,,,,,,,,,,,,,,,,,,,,,,,,,,,,
,,64581c19e5e95ab59f07be23,2024-02-19_03h15.49.765,kallum_motion_pilot,2023.2.2,Win32,142.8571429,64581c19e5e95ab59f07be23,65d2b6c8f2eece985d8e374c,65d2b9cfa5bc04f3723f825e,0.0252,0.0252,0,105,105,118,1,eightsix,,,,,,,,,,,,,,,,,,,,,,,,,,,,,,,,,,,,,,,,,,,,,,,,,,,,,,,,,,,,,,,,,,,,,,,,,,,,,,,,,,,,,,,,,,,,,,,,,,,,,,,,,,,,,,,,,,,,,,,,,,,,,,,,,,,,,,,,,
,,64581c19e5e95ab59f07be23,2024-02-19_03h15.49.765,kallum_motion_pilot,2023.2.2,Win32,142.8571429,64581c19e5e95ab59f07be23,65d2b6c8f2eece985d8e374c,65d2b9cfa5bc04f3723f825e,0.0252,0.0252,0,106,106,41,1,onethree,,,,,,,,,,,,,,,,,,,,,,,,,,,,,,,,,,,,,,,,,,,,,,,,,,,,,,,,,,,,,,,,,,,,,,,,,,,,,,,,,,,,,,,,,,,,,,,,,,,,,,,,,,,,,,,,,,,,,,,,,,,,,,,,,,,,,,,,,
,,64581c19e5e95ab59f07be23,2024-02-19_03h15.49.765,kallum_motion_pilot,2023.2.2,Win32,142.8571429,64581c19e5e95ab59f07be23,65d2b6c8f2eece985d8e374c,65d2b9cfa5bc04f3723f825e,0.0253,0.0253,0,107,107,27,1,twofour,,,,,,,,,,,,,,,,,,,,,,,,,,,,,,,,,,,,,,,,,,,,,,,,,,,,,,,,,,,,,,,,,,,,,,,,,,,,,,,,,,,,,,,,,,,,,,,,,,,,,,,,,,,,,,,,,,,,,,,,,,,,,,,,,,,,,,,,,
,,64581c19e5e95ab59f07be23,2024-02-19_03h15.49.765,kallum_motion_pilot,2023.2.2,Win32,142.8571429,64581c19e5e95ab59f07be23,65d2b6c8f2eece985d8e374c,65d2b9cfa5bc04f3723f825e,0.0253,0.0254,0,108,108,39,1,fourthree,,,,,,,,,,,,,,,,,,,,,,,,,,,,,,,,,,,,,,,,,,,,,,,,,,,,,,,,,,,,,,,,,,,,,,,,,,,,,,,,,,,,,,,,,,,,,,,,,,,,,,,,,,,,,,,,,,,,,,,,,,,,,,,,,,,,,,,,,
,,64581c19e5e95ab59f07be23,2024-02-19_03h15.49.765,kallum_motion_pilot,2023.2.2,Win32,142.8571429,64581c19e5e95ab59f07be23,65d2b6c8f2eece985d8e374c,65d2b9cfa5bc04f3723f825e,0.0254,0.0255,0,109,109,25,1,onethree,,,,,,,,,,,,,,,,,,,,,,,,,,,,,,,,,,,,,,,,,,,,,,,,,,,,,,,,,,,,,,,,,,,,,,,,,,,,,,,,,,,,,,,,,,,,,,,,,,,,,,,,,,,,,,,,,,,,,,,,,,,,,,,,,,,,,,,,,
,,64581c19e5e95ab59f07be23,2024-02-19_03h15.49.765,kallum_motion_pilot,2023.2.2,Win32,142.8571429,64581c19e5e95ab59f07be23,65d2b6c8f2eece985d8e374c,65d2b9cfa5bc04f3723f825e,0.0255,0.0256,0,110,110,55,1,fourthree,,,,,,,,,,,,,,,,,,,,,,,,,,,,,,,,,,,,,,,,,,,,,,,,,,,,,,,,,,,,,,,,,,,,,,,,,,,,,,,,,,,,,,,,,,,,,,,,,,,,,,,,,,,,,,,,,,,,,,,,,,,,,,,,,,,,,,,,,
,,64581c19e5e95ab59f07be23,2024-02-19_03h15.49.765,kallum_motion_pilot,2023.2.2,Win32,142.8571429,64581c19e5e95ab59f07be23,65d2b6c8f2eece985d8e374c,65d2b9cfa5bc04f3723f825e,0.0256,0.0257,0,111,111,96,1,fivesix,,,,,,,,,,,,,,,,,,,,,,,,,,,,,,,,,,,,,,,,,,,,,,,,,,,,,,,,,,,,,,,,,,,,,,,,,,,,,,,,,,,,,,,,,,,,,,,,,,,,,,,,,,,,,,,,,,,,,,,,,,,,,,,,,,,,,,,,,
,,64581c19e5e95ab59f07be23,2024-02-19_03h15.49.765,kallum_motion_pilot,2023.2.2,Win32,142.8571429,64581c19e5e95ab59f07be23,65d2b6c8f2eece985d8e374c,65d2b9cfa5bc04f3723f825e,0.0257,0.0257,0,112,112,40,1,onetwo,,,,,,,,,,,,,,,,,,,,,,,,,,,,,,,,,,,,,,,,,,,,,,,,,,,,,,,,,,,,,,,,,,,,,,,,,,,,,,,,,,,,,,,,,,,,,,,,,,,,,,,,,,,,,,,,,,,,,,,,,,,,,,,,,,,,,,,,,
,,64581c19e5e95ab59f07be23,2024-02-19_03h15.49.765,kallum_motion_pilot,2023.2.2,Win32,142.8571429,64581c19e5e95ab59f07be23,65d2b6c8f2eece985d8e374c,65d2b9cfa5bc04f3723f825e,0.0257,0.0258,0,113,113,60,1,threeone,,,,,,,,,,,,,,,,,,,,,,,,,,,,,,,,,,,,,,,,,,,,,,,,,,,,,,,,,,,,,,,,,,,,,,,,,,,,,,,,,,,,,,,,,,,,,,,,,,,,,,,,,,,,,,,,,,,,,,,,,,,,,,,,,,,,,,,,,
,,64581c19e5e95ab59f07be23,2024-02-19_03h15.49.765,kallum_motion_pilot,2023.2.2,Win32,142.8571429,64581c19e5e95ab59f07be23,65d2b6c8f2eece985d8e374c,65d2b9cfa5bc04f3723f825e,0.0258,0.0258,0,114,114,101,1,seveneight,,,,,,,,,,,,,,,,,,,,,,,,,,,,,,,,,,,,,,,,,,,,,,,,,,,,,,,,,,,,,,,,,,,,,,,,,,,,,,,,,,,,,,,,,,,,,,,,,,,,,,,,,,,,,,,,,,,,,,,,,,,,,,,,,,,,,,,,,
,,64581c19e5e95ab59f07be23,2024-02-19_03h15.49.765,kallum_motion_pilot,2023.2.2,Win32,142.8571429,64581c19e5e95ab59f07be23,65d2b6c8f2eece985d8e374c,65d2b9cfa5bc04f3723f825e,0.0258,0.0259,0,115,115,83,1,sixeight,,,,,,,,,,,,,,,,,,,,,,,,,,,,,,,,,,,,,,,,,,,,,,,,,,,,,,,,,,,,,,,,,,,,,,,,,,,,,,,,,,,,,,,,,,,,,,,,,,,,,,,,,,,,,,,,,,,,,,,,,,,,,,,,,,,,,,,,,
,,64581c19e5e95ab59f07be23,2024-02-19_03h15.49.765,kallum_motion_pilot,2023.2.2,Win32,142.8571429,64581c19e5e95ab59f07be23,65d2b6c8f2eece985d8e374c,65d2b9cfa5bc04f3723f825e,0.0259,0.0259,0,116,116,77,1,threefour,,,,,,,,,,,,,,,,,,,,,,,,,,,,,,,,,,,,,,,,,,,,,,,,,,,,,,,,,,,,,,,,,,,,,,,,,,,,,,,,,,,,,,,,,,,,,,,,,,,,,,,,,,,,,,,,,,,,,,,,,,,,,,,,,,,,,,,,,
,,64581c19e5e95ab59f07be23,2024-02-19_03h15.49.765,kallum_motion_pilot,2023.2.2,Win32,142.8571429,64581c19e5e95ab59f07be23,65d2b6c8f2eece985d8e374c,65d2b9cfa5bc04f3723f825e,0.026,0.026,0,117,117,149,1,seveneight,,,,,,,,,,,,,,,,,,,,,,,,,,,,,,,,,,,,,,,,,,,,,,,,,,,,,,,,,,,,,,,,,,,,,,,,,,,,,,,,,,,,,,,,,,,,,,,,,,,,,,,,,,,,,,,,,,,,,,,,,,,,,,,,,,,,,,,,,
,,64581c19e5e95ab59f07be23,2024-02-19_03h15.49.765,kallum_motion_pilot,2023.2.2,Win32,142.8571429,64581c19e5e95ab59f07be23,65d2b6c8f2eece985d8e374c,65d2b9cfa5bc04f3723f825e,0.026,0.0261,0,118,118,17,1,onethree,,,,,,,,,,,,,,,,,,,,,,,,,,,,,,,,,,,,,,,,,,,,,,,,,,,,,,,,,,,,,,,,,,,,,,,,,,,,,,,,,,,,,,,,,,,,,,,,,,,,,,,,,,,,,,,,,,,,,,,,,,,,,,,,,,,,,,,,,
,,64581c19e5e95ab59f07be23,2024-02-19_03h15.49.765,kallum_motion_pilot,2023.2.2,Win32,142.8571429,64581c19e5e95ab59f07be23,65d2b6c8f2eece985d8e374c,65d2b9cfa5bc04f3723f825e,0.0261,0.0262,0,119,119,117,1,seveneight,,,,,,,,,,,,,,,,,,,,,,,,,,,,,,,,,,,,,,,,,,,,,,,,,,,,,,,,,,,,,,,,,,,,,,,,,,,,,,,,,,,,,,,,,,,,,,,,,,,,,,,,,,,,,,,,,,,,,,,,,,,,,,,,,,,,,,,,,
,,64581c19e5e95ab59f07be23,2024-02-19_03h15.49.765,kallum_motion_pilot,2023.2.2,Win32,142.8571429,64581c19e5e95ab59f07be23,65d2b6c8f2eece985d8e374c,65d2b9cfa5bc04f3723f825e,0.0262,0.0262,0,120,120,146,1,sixfive,,,,,,,,,,,,,,,,,,,,,,,,,,,,,,,,,,,,,,,,,,,,,,,,,,,,,,,,,,,,,,,,,,,,,,,,,,,,,,,,,,,,,,,,,,,,,,,,,,,,,,,,,,,,,,,,,,,,,,,,,,,,,,,,,,,,,,,,,
,,64581c19e5e95ab59f07be23,2024-02-19_03h15.49.765,kallum_motion_pilot,2023.2.2,Win32,142.8571429,64581c19e5e95ab59f07be23,65d2b6c8f2eece985d8e374c,65d2b9cfa5bc04f3723f825e,0.0262,0.0263,0,121,121,72,1,onetwo,,,,,,,,,,,,,,,,,,,,,,,,,,,,,,,,,,,,,,,,,,,,,,,,,,,,,,,,,,,,,,,,,,,,,,,,,,,,,,,,,,,,,,,,,,,,,,,,,,,,,,,,,,,,,,,,,,,,,,,,,,,,,,,,,,,,,,,,,
,,64581c19e5e95ab59f07be23,2024-02-19_03h15.49.765,kallum_motion_pilot,2023.2.2,Win32,142.8571429,64581c19e5e95ab59f07be23,65d2b6c8f2eece985d8e374c,65d2b9cfa5bc04f3723f825e,0.0263,0.0263,0,122,122,123,1,sixeight,,,,,,,,,,,,,,,,,,,,,,,,,,,,,,,,,,,,,,,,,,,,,,,,,,,,,,,,,,,,,,,,,,,,,,,,,,,,,,,,,,,,,,,,,,,,,,,,,,,,,,,,,,,,,,,,,,,,,,,,,,,,,,,,,,,,,,,,,
,,64581c19e5e95ab59f07be23,2024-02-19_03h15.49.765,kallum_motion_pilot,2023.2.2,Win32,142.8571429,64581c19e5e95ab59f07be23,65d2b6c8f2eece985d8e374c,65d2b9cfa5bc04f3723f825e,0.0265,0.0265,0,123,123,5,1,threefour,,,,,,,,,,,,,,,,,,,,,,,,,,,,,,,,,,,,,,,,,,,,,,,,,,,,,,,,,,,,,,,,,,,,,,,,,,,,,,,,,,,,,,,,,,,,,,,,,,,,,,,,,,,,,,,,,,,,,,,,,,,,,,,,,,,,,,,,,
,,64581c19e5e95ab59f07be23,2024-02-19_03h15.49.765,kallum_motion_pilot,2023.2.2,Win32,142.8571429,64581c19e5e95ab59f07be23,65d2b6c8f2eece985d8e374c,65d2b9cfa5bc04f3723f825e,0.0265,0.0266,0,124,124,107,1,sixeight,,,,,,,,,,,,,,,,,,,,,,,,,,,,,,,,,,,,,,,,,,,,,,,,,,,,,,,,,,,,,,,,,,,,,,,,,,,,,,,,,,,,,,,,,,,,,,,,,,,,,,,,,,,,,,,,,,,,,,,,,,,,,,,,,,,,,,,,,
,,64581c19e5e95ab59f07be23,2024-02-19_03h15.49.765,kallum_motion_pilot,2023.2.2,Win32,142.8571429,64581c19e5e95ab59f07be23,65d2b6c8f2eece985d8e374c,65d2b9cfa5bc04f3723f825e,0.0266,0.0267,0,125,125,10,1,twoone,,,,,,,,,,,,,,,,,,,,,,,,,,,,,,,,,,,,,,,,,,,,,,,,,,,,,,,,,,,,,,,,,,,,,,,,,,,,,,,,,,,,,,,,,,,,,,,,,,,,,,,,,,,,,,,,,,,,,,,,,,,,,,,,,,,,,,,,,
,,64581c19e5e95ab59f07be23,2024-02-19_03h15.49.765,kallum_motion_pilot,2023.2.2,Win32,142.8571429,64581c19e5e95ab59f07be23,65d2b6c8f2eece985d8e374c,65d2b9cfa5bc04f3723f825e,0.0267,0.0267,0,126,126,80,1,fivesix,,,,,,,,,,,,,,,,,,,,,,,,,,,,,,,,,,,,,,,,,,,,,,,,,,,,,,,,,,,,,,,,,,,,,,,,,,,,,,,,,,,,,,,,,,,,,,,,,,,,,,,,,,,,,,,,,,,,,,,,,,,,,,,,,,,,,,,,,
,,64581c19e5e95ab59f07be23,2024-02-19_03h15.49.765,kallum_motion_pilot,2023.2.2,Win32,142.8571429,64581c19e5e95ab59f07be23,65d2b6c8f2eece985d8e374c,65d2b9cfa5bc04f3723f825e,0.0268,0.0268,0,127,127,109,1,seveneight,,,,,,,,,,,,,,,,,,,,,,,,,,,,,,,,,,,,,,,,,,,,,,,,,,,,,,,,,,,,,,,,,,,,,,,,,,,,,,,,,,,,,,,,,,,,,,,,,,,,,,,,,,,,,,,,,,,,,,,,,,,,,,,,,,,,,,,,,
,,64581c19e5e95ab59f07be23,2024-02-19_03h15.49.765,kallum_motion_pilot,2023.2.2,Win32,142.8571429,64581c19e5e95ab59f07be23,65d2b6c8f2eece985d8e374c,65d2b9cfa5bc04f3723f825e,0.0269,0.027,0,128,128,2,1,twoone,,,,,,,,,,,,,,,,,,,,,,,,,,,,,,,,,,,,,,,,,,,,,,,,,,,,,,,,,,,,,,,,,,,,,,,,,,,,,,,,,,,,,,,,,,,,,,,,,,,,,,,,,,,,,,,,,,,,,,,,,,,,,,,,,,,,,,,,,
,,64581c19e5e95ab59f07be23,2024-02-19_03h15.49.765,kallum_motion_pilot,2023.2.2,Win32,142.8571429,64581c19e5e95ab59f07be23,65d2b6c8f2eece985d8e374c,65d2b9cfa5bc04f3723f825e,0.0271,0.0271,0,129,129,14,1,fourtwo,,,,,,,,,,,,,,,,,,,,,,,,,,,,,,,,,,,,,,,,,,,,,,,,,,,,,,,,,,,,,,,,,,,,,,,,,,,,,,,,,,,,,,,,,,,,,,,,,,,,,,,,,,,,,,,,,,,,,,,,,,,,,,,,,,,,,,,,,
,,64581c19e5e95ab59f07be23,2024-02-19_03h15.49.765,kallum_motion_pilot,2023.2.2,Win32,142.8571429,64581c19e5e95ab59f07be23,65d2b6c8f2eece985d8e374c,65d2b9cfa5bc04f3723f825e,0.0272,0.0272,0,130,130,91,1,sixeight,,,,,,,,,,,,,,,,,,,,,,,,,,,,,,,,,,,,,,,,,,,,,,,,,,,,,,,,,,,,,,,,,,,,,,,,,,,,,,,,,,,,,,,,,,,,,,,,,,,,,,,,,,,,,,,,,,,,,,,,,,,,,,,,,,,,,,,,,
,,64581c19e5e95ab59f07be23,2024-02-19_03h15.49.765,kallum_motion_pilot,2023.2.2,Win32,142.8571429,64581c19e5e95ab59f07be23,65d2b6c8f2eece985d8e374c,65d2b9cfa5bc04f3723f825e,0.0272,0.0272,0,131,131,54,1,fourtwo,,,,,,,,,,,,,,,,,,,,,,,,,,,,,,,,,,,,,,,,,,,,,,,,,,,,,,,,,,,,,,,,,,,,,,,,,,,,,,,,,,,,,,,,,,,,,,,,,,,,,,,,,,,,,,,,,,,,,,,,,,,,,,,,,,,,,,,,,
,,64581c19e5e95ab59f07be23,2024-02-19_03h15.49.765,kallum_motion_pilot,2023.2.2,Win32,142.8571429,64581c19e5e95ab59f07be23,65d2b6c8f2eece985d8e374c,65d2b9cfa5bc04f3723f825e,0.0272,0.0273,0,132,132,156,1,sevenfive,,,,,,,,,,,,,,,,,,,,,,,,,,,,,,,,,,,,,,,,,,,,,,,,,,,,,,,,,,,,,,,,,,,,,,,,,,,,,,,,,,,,,,,,,,,,,,,,,,,,,,,,,,,,,,,,,,,,,,,,,,,,,,,,,,,,,,,,,
,,64581c19e5e95ab59f07be23,2024-02-19_03h15.49.765,kallum_motion_pilot,2023.2.2,Win32,142.8571429,64581c19e5e95ab59f07be23,65d2b6c8f2eece985d8e374c,65d2b9cfa5bc04f3723f825e,0.0274,0.0274,0,133,133,35,1,twofour,,,,,,,,,,,,,,,,,,,,,,,,,,,,,,,,,,,,,,,,,,,,,,,,,,,,,,,,,,,,,,,,,,,,,,,,,,,,,,,,,,,,,,,,,,,,,,,,,,,,,,,,,,,,,,,,,,,,,,,,,,,,,,,,,,,,,,,,,
,,64581c19e5e95ab59f07be23,2024-02-19_03h15.49.765,kallum_motion_pilot,2023.2.2,Win32,142.8571429,64581c19e5e95ab59f07be23,65d2b6c8f2eece985d8e374c,65d2b9cfa5bc04f3723f825e,0.0275,0.0275,0,134,134,122,1,sixfive,,,,,,,,,,,,,,,,,,,,,,,,,,,,,,,,,,,,,,,,,,,,,,,,,,,,,,,,,,,,,,,,,,,,,,,,,,,,,,,,,,,,,,,,,,,,,,,,,,,,,,,,,,,,,,,,,,,,,,,,,,,,,,,,,,,,,,,,,
,,64581c19e5e95ab59f07be23,2024-02-19_03h15.49.765,kallum_motion_pilot,2023.2.2,Win32,142.8571429,64581c19e5e95ab59f07be23,65d2b6c8f2eece985d8e374c,65d2b9cfa5bc04f3723f825e,0.0275,0.0276,0,135,135,26,1,twoone,,,,,,,,,,,,,,,,,,,,,,,,,,,,,,,,,,,,,,,,,,,,,,,,,,,,,,,,,,,,,,,,,,,,,,,,,,,,,,,,,,,,,,,,,,,,,,,,,,,,,,,,,,,,,,,,,,,,,,,,,,,,,,,,,,,,,,,,,
,,64581c19e5e95ab59f07be23,2024-02-19_03h15.49.765,kallum_motion_pilot,2023.2.2,Win32,142.8571429,64581c19e5e95ab59f07be23,65d2b6c8f2eece985d8e374c,65d2b9cfa5bc04f3723f825e,0.0276,0.0276,0,136,136,139,1,sixeight,,,,,,,,,,,,,,,,,,,,,,,,,,,,,,,,,,,,,,,,,,,,,,,,,,,,,,,,,,,,,,,,,,,,,,,,,,,,,,,,,,,,,,,,,,,,,,,,,,,,,,,,,,,,,,,,,,,,,,,,,,,,,,,,,,,,,,,,,
,,64581c19e5e95ab59f07be23,2024-02-19_03h15.49.765,kallum_motion_pilot,2023.2.2,Win32,142.8571429,64581c19e5e95ab59f07be23,65d2b6c8f2eece985d8e374c,65d2b9cfa5bc04f3723f825e,0.0277,0.0277,0,137,137,36,1,threeone,,,,,,,,,,,,,,,,,,,,,,,,,,,,,,,,,,,,,,,,,,,,,,,,,,,,,,,,,,,,,,,,,,,,,,,,,,,,,,,,,,,,,,,,,,,,,,,,,,,,,,,,,,,,,,,,,,,,,,,,,,,,,,,,,,,,,,,,,
,,64581c19e5e95ab59f07be23,2024-02-19_03h15.49.765,kallum_motion_pilot,2023.2.2,Win32,142.8571429,64581c19e5e95ab59f07be23,65d2b6c8f2eece985d8e374c,65d2b9cfa5bc04f3723f825e,0.0277,0.0277,0,138,138,81,1,fiveseven,,,,,,,,,,,,,,,,,,,,,,,,,,,,,,,,,,,,,,,,,,,,,,,,,,,,,,,,,,,,,,,,,,,,,,,,,,,,,,,,,,,,,,,,,,,,,,,,,,,,,,,,,,,,,,,,,,,,,,,,,,,,,,,,,,,,,,,,,
,,64581c19e5e95ab59f07be23,2024-02-19_03h15.49.765,kallum_motion_pilot,2023.2.2,Win32,142.8571429,64581c19e5e95ab59f07be23,65d2b6c8f2eece985d8e374c,65d2b9cfa5bc04f3723f825e,0.0278,0.0278,0,139,139,56,1,onetwo,,,,,,,,,,,,,,,,,,,,,,,,,,,,,,,,,,,,,,,,,,,,,,,,,,,,,,,,,,,,,,,,,,,,,,,,,,,,,,,,,,,,,,,,,,,,,,,,,,,,,,,,,,,,,,,,,,,,,,,,,,,,,,,,,,,,,,,,,
,,64581c19e5e95ab59f07be23,2024-02-19_03h15.49.765,kallum_motion_pilot,2023.2.2,Win32,142.8571429,64581c19e5e95ab59f07be23,65d2b6c8f2eece985d8e374c,65d2b9cfa5bc04f3723f825e,0.0278,0.0279,0,140,140,142,1,eightsix,,,,,,,,,,,,,,,,,,,,,,,,,,,,,,,,,,,,,,,,,,,,,,,,,,,,,,,,,,,,,,,,,,,,,,,,,,,,,,,,,,,,,,,,,,,,,,,,,,,,,,,,,,,,,,,,,,,,,,,,,,,,,,,,,,,,,,,,,
,,64581c19e5e95ab59f07be23,2024-02-19_03h15.49.765,kallum_motion_pilot,2023.2.2,Win32,142.8571429,64581c19e5e95ab59f07be23,65d2b6c8f2eece985d8e374c,65d2b9cfa5bc04f3723f825e,0.028,0.028,0,141,141,137,1,fiveseven,,,,,,,,,,,,,,,,,,,,,,,,,,,,,,,,,,,,,,,,,,,,,,,,,,,,,,,,,,,,,,,,,,,,,,,,,,,,,,,,,,,,,,,,,,,,,,,,,,,,,,,,,,,,,,,,,,,,,,,,,,,,,,,,,,,,,,,,,
,,64581c19e5e95ab59f07be23,2024-02-19_03h15.49.765,kallum_motion_pilot,2023.2.2,Win32,142.8571429,64581c19e5e95ab59f07be23,65d2b6c8f2eece985d8e374c,65d2b9cfa5bc04f3723f825e,0.028,0.0281,0,142,142,69,1,threefour,,,,,,,,,,,,,,,,,,,,,,,,,,,,,,,,,,,,,,,,,,,,,,,,,,,,,,,,,,,,,,,,,,,,,,,,,,,,,,,,,,,,,,,,,,,,,,,,,,,,,,,,,,,,,,,,,,,,,,,,,,,,,,,,,,,,,,,,,
,,64581c19e5e95ab59f07be23,2024-02-19_03h15.49.765,kallum_motion_pilot,2023.2.2,Win32,142.8571429,64581c19e5e95ab59f07be23,65d2b6c8f2eece985d8e374c,65d2b9cfa5bc04f3723f825e,0.0281,0.0281,0,143,143,47,1,fourthree,,,,,,,,,,,,,,,,,,,,,,,,,,,,,,,,,,,,,,,,,,,,,,,,,,,,,,,,,,,,,,,,,,,,,,,,,,,,,,,,,,,,,,,,,,,,,,,,,,,,,,,,,,,,,,,,,,,,,,,,,,,,,,,,,,,,,,,,,
,,64581c19e5e95ab59f07be23,2024-02-19_03h15.49.765,kallum_motion_pilot,2023.2.2,Win32,142.8571429,64581c19e5e95ab59f07be23,65d2b6c8f2eece985d8e374c,65d2b9cfa5bc04f3723f825e,0.0281,0.0283,0,144,144,8,1,onetwo,,,,,,,,,,,,,,,,,,,,,,,,,,,,,,,,,,,,,,,,,,,,,,,,,,,,,,,,,,,,,,,,,,,,,,,,,,,,,,,,,,,,,,,,,,,,,,,,,,,,,,,,,,,,,,,,,,,,,,,,,,,,,,,,,,,,,,,,,
,,64581c19e5e95ab59f07be23,2024-02-19_03h15.49.765,kallum_motion_pilot,2023.2.2,Win32,142.8571429,64581c19e5e95ab59f07be23,65d2b6c8f2eece985d8e374c,65d2b9cfa5bc04f3723f825e,0.0283,0.0283,0,145,145,126,1,eightsix,,,,,,,,,,,,,,,,,,,,,,,,,,,,,,,,,,,,,,,,,,,,,,,,,,,,,,,,,,,,,,,,,,,,,,,,,,,,,,,,,,,,,,,,,,,,,,,,,,,,,,,,,,,,,,,,,,,,,,,,,,,,,,,,,,,,,,,,,
,,64581c19e5e95ab59f07be23,2024-02-19_03h15.49.765,kallum_motion_pilot,2023.2.2,Win32,142.8571429,64581c19e5e95ab59f07be23,65d2b6c8f2eece985d8e374c,65d2b9cfa5bc04f3723f825e,0.0284,0.0284,0,146,146,45,1,threefour,,,,,,,,,,,,,,,,,,,,,,,,,,,,,,,,,,,,,,,,,,,,,,,,,,,,,,,,,,,,,,,,,,,,,,,,,,,,,,,,,,,,,,,,,,,,,,,,,,,,,,,,,,,,,,,,,,,,,,,,,,,,,,,,,,,,,,,,,
,,64581c19e5e95ab59f07be23,2024-02-19_03h15.49.765,kallum_motion_pilot,2023.2.2,Win32,142.8571429,64581c19e5e95ab59f07be23,65d2b6c8f2eece985d8e374c,65d2b9cfa5bc04f3723f825e,0.0284,0.0285,0,147,147,31,1,fourthree,,,,,,,,,,,,,,,,,,,,,,,,,,,,,,,,,,,,,,,,,,,,,,,,,,,,,,,,,,,,,,,,,,,,,,,,,,,,,,,,,,,,,,,,,,,,,,,,,,,,,,,,,,,,,,,,,,,,,,,,,,,,,,,,,,,,,,,,,
,,64581c19e5e95ab59f07be23,2024-02-19_03h15.49.765,kallum_motion_pilot,2023.2.2,Win32,142.8571429,64581c19e5e95ab59f07be23,65d2b6c8f2eece985d8e374c,65d2b9cfa5bc04f3723f825e,0.0285,0.0285,0,148,148,84,1,sevenfive,,,,,,,,,,,,,,,,,,,,,,,,,,,,,,,,,,,,,,,,,,,,,,,,,,,,,,,,,,,,,,,,,,,,,,,,,,,,,,,,,,,,,,,,,,,,,,,,,,,,,,,,,,,,,,,,,,,,,,,,,,,,,,,,,,,,,,,,,
,,64581c19e5e95ab59f07be23,2024-02-19_03h15.49.765,kallum_motion_pilot,2023.2.2,Win32,142.8571429,64581c19e5e95ab59f07be23,65d2b6c8f2eece985d8e374c,65d2b9cfa5bc04f3723f825e,0.0285,0.0285,0,149,149,124,1,sevenfive,,,,,,,,,,,,,,,,,,,,,,,,,,,,,,,,,,,,,,,,,,,,,,,,,,,,,,,,,,,,,,,,,,,,,,,,,,,,,,,,,,,,,,,,,,,,,,,,,,,,,,,,,,,,,,,,,,,,,,,,,,,,,,,,,,,,,,,,,
,,64581c19e5e95ab59f07be23,2024-02-19_03h15.49.765,kallum_motion_pilot,2023.2.2,Win32,142.8571429,64581c19e5e95ab59f07be23,65d2b6c8f2eece985d8e374c,65d2b9cfa5bc04f3723f825e,0.0286,0.0286,0,150,150,128,1,fivesix,,,,,,,,,,,,,,,,,,,,,,,,,,,,,,,,,,,,,,,,,,,,,,,,,,,,,,,,,,,,,,,,,,,,,,,,,,,,,,,,,,,,,,,,,,,,,,,,,,,,,,,,,,,,,,,,,,,,,,,,,,,,,,,,,,,,,,,,,
,,64581c19e5e95ab59f07be23,2024-02-19_03h15.49.765,kallum_motion_pilot,2023.2.2,Win32,142.8571429,64581c19e5e95ab59f07be23,65d2b6c8f2eece985d8e374c,65d2b9cfa5bc04f3723f825e,0.0287,0.0287,0,151,151,46,1,fourtwo,,,,,,,,,,,,,,,,,,,,,,,,,,,,,,,,,,,,,,,,,,,,,,,,,,,,,,,,,,,,,,,,,,,,,,,,,,,,,,,,,,,,,,,,,,,,,,,,,,,,,,,,,,,,,,,,,,,,,,,,,,,,,,,,,,,,,,,,,
,,64581c19e5e95ab59f07be23,2024-02-19_03h15.49.765,kallum_motion_pilot,2023.2.2,Win32,142.8571429,64581c19e5e95ab59f07be23,65d2b6c8f2eece985d8e374c,65d2b9cfa5bc04f3723f825e,0.0287,0.0289,0,152,152,154,1,sixfive,,,,,,,,,,,,,,,,,,,,,,,,,,,,,,,,,,,,,,,,,,,,,,,,,,,,,,,,,,,,,,,,,,,,,,,,,,,,,,,,,,,,,,,,,,,,,,,,,,,,,,,,,,,,,,,,,,,,,,,,,,,,,,,,,,,,,,,,,
,,64581c19e5e95ab59f07be23,2024-02-19_03h15.49.765,kallum_motion_pilot,2023.2.2,Win32,142.8571429,64581c19e5e95ab59f07be23,65d2b6c8f2eece985d8e374c,65d2b9cfa5bc04f3723f825e,0.0289,0.0289,0,153,153,64,1,onetwo,,,,,,,,,,,,,,,,,,,,,,,,,,,,,,,,,,,,,,,,,,,,,,,,,,,,,,,,,,,,,,,,,,,,,,,,,,,,,,,,,,,,,,,,,,,,,,,,,,,,,,,,,,,,,,,,,,,,,,,,,,,,,,,,,,,,,,,,,
,,64581c19e5e95ab59f07be23,2024-02-19_03h15.49.765,kallum_motion_pilot,2023.2.2,Win32,142.8571429,64581c19e5e95ab59f07be23,65d2b6c8f2eece985d8e374c,65d2b9cfa5bc04f3723f825e,0.0289,0.0289,0,154,154,161,1,fiveseven,,,,,,,,,,,,,,,,,,,,,,,,,,,,,,,,,,,,,,,,,,,,,,,,,,,,,,,,,,,,,,,,,,,,,,,,,,,,,,,,,,,,,,,,,,,,,,,,,,,,,,,,,,,,,,,,,,,,,,,,,,,,,,,,,,,,,,,,,
,,64581c19e5e95ab59f07be23,2024-02-19_03h15.49.765,kallum_motion_pilot,2023.2.2,Win32,142.8571429,64581c19e5e95ab59f07be23,65d2b6c8f2eece985d8e374c,65d2b9cfa5bc04f3723f825e,0.029,0.0291,0,155,155,141,1,seveneight,,,,,,,,,,,,,,,,,,,,,,,,,,,,,,,,,,,,,,,,,,,,,,,,,,,,,,,,,,,,,,,,,,,,,,,,,,,,,,,,,,,,,,,,,,,,,,,,,,,,,,,,,,,,,,,,,,,,,,,,,,,,,,,,,,,,,,,,,
,,64581c19e5e95ab59f07be23,2024-02-19_03h15.49.765,kallum_motion_pilot,2023.2.2,Win32,142.8571429,64581c19e5e95ab59f07be23,65d2b6c8f2eece985d8e374c,65d2b9cfa5bc04f3723f825e,0.0291,0.0291,0,156,156,129,1,fiveseven,,,,,,,,,,,,,,,,,,,,,,,,,,,,,,,,,,,,,,,,,,,,,,,,,,,,,,,,,,,,,,,,,,,,,,,,,,,,,,,,,,,,,,,,,,,,,,,,,,,,,,,,,,,,,,,,,,,,,,,,,,,,,,,,,,,,,,,,,
,,64581c19e5e95ab59f07be23,2024-02-19_03h15.49.765,kallum_motion_pilot,2023.2.2,Win32,142.8571429,64581c19e5e95ab59f07be23,65d2b6c8f2eece985d8e374c,65d2b9cfa5bc04f3723f825e,0.0292,0.0292,0,157,157,87,1,eightseven,,,,,,,,,,,,,,,,,,,,,,,,,,,,,,,,,,,,,,,,,,,,,,,,,,,,,,,,,,,,,,,,,,,,,,,,,,,,,,,,,,,,,,,,,,,,,,,,,,,,,,,,,,,,,,,,,,,,,,,,,,,,,,,,,,,,,,,,,
,,64581c19e5e95ab59f07be23,2024-02-19_03h15.49.765,kallum_motion_pilot,2023.2.2,Win32,142.8571429,64581c19e5e95ab59f07be23,65d2b6c8f2eece985d8e374c,65d2b9cfa5bc04f3723f825e,0.0292,0.0293,0,158,158,99,1,sixeight,,,,,,,,,,,,,,,,,,,,,,,,,,,,,,,,,,,,,,,,,,,,,,,,,,,,,,,,,,,,,,,,,,,,,,,,,,,,,,,,,,,,,,,,,,,,,,,,,,,,,,,,,,,,,,,,,,,,,,,,,,,,,,,,,,,,,,,,,
,,64581c19e5e95ab59f07be23,2024-02-19_03h15.49.765,kallum_motion_pilot,2023.2.2,Win32,142.8571429,64581c19e5e95ab59f07be23,65d2b6c8f2eece985d8e374c,65d2b9cfa5bc04f3723f825e,0.0293,0.0293,0,159,159,160,1,fivesix,,,,,,,,,,,,,,,,,,,,,,,,,,,,,,,,,,,,,,,,,,,,,,,,,,,,,,,,,,,,,,,,,,,,,,,,,,,,,,,,,,,,,,,,,,,,,,,,,,,,,,,,,,,,,,,,,,,,,,,,,,,,,,,,,,,,,,,,,
,,64581c19e5e95ab59f07be23,2024-02-19_03h15.49.765,kallum_motion_pilot,2023.2.2,Win32,142.8571429,64581c19e5e95ab59f07be23,65d2b6c8f2eece985d8e374c,65d2b9cfa5bc04f3723f825e,0.0294,0.0294,0,160,160,0,1,onetwo,,,,,,,,,,,,,,,,,,,,,,,,,,,,,,,,,,,,,,,,,,,,,,,,,,,,,,,,,,,,,,,,,,,,,,,,,,,,,,,,,,,,,,,,,,,,,,,,,,,,,,,,,,,,,,,,,,,,,,,,,,,,,,,,,,,,,,,,,
,,64581c19e5e95ab59f07be23,2024-02-19_03h15.49.765,kallum_motion_pilot,2023.2.2,Win32,142.8571429,64581c19e5e95ab59f07be23,65d2b6c8f2eece985d8e374c,65d2b9cfa5bc04f3723f825e,0.0295,0.0295,0,161,161,12,1,threeone,,,,,,,,,,,,,,,,,,,,,,,,,,,,,,,,,,,,,,,,,,,,,,,,,,,,,,,,,,,,,,,,,,,,,,,,,,,,,,,,,,,,,,,,,,,,,,,,,,,,,,,,,,,,,,,,,,,,,,,,,,,,,,,,,,,,,,,,,
,,64581c19e5e95ab59f07be23,2024-02-19_03h15.49.765,kallum_motion_pilot,2023.2.2,Win32,142.8571429,64581c19e5e95ab59f07be23,65d2b6c8f2eece985d8e374c,65d2b9cfa5bc04f3723f825e,0.0295,0.0296,1,0,162,120,1,fivesix,,,,,,,,,,,,,,,,,,,,,,,,,,,,,,,,,,,,,,,,,,,,,,,,,,,,,,,,,,,,,,,,,,,,,,,,,,,,,,,,,,,,,,,,,,,,,,,,,,,,,,,,,,,,,,,,,,,,,,,,,,,,,,,,,,,,,,,,,
,,64581c19e5e95ab59f07be23,2024-02-19_03h15.49.765,kallum_motion_pilot,2023.2.2,Win32,142.8571429,64581c19e5e95ab59f07be23,65d2b6c8f2eece985d8e374c,65d2b9cfa5bc04f3723f825e,0.0296,0.0297,1,1,163,124,1,sevenfive,,,,,,,,,,,,,,,,,,,,,,,,,,,,,,,,,,,,,,,,,,,,,,,,,,,,,,,,,,,,,,,,,,,,,,,,,,,,,,,,,,,,,,,,,,,,,,,,,,,,,,,,,,,,,,,,,,,,,,,,,,,,,,,,,,,,,,,,,
,,64581c19e5e95ab59f07be23,2024-02-19_03h15.49.765,kallum_motion_pilot,2023.2.2,Win32,142.8571429,64581c19e5e95ab59f07be23,65d2b6c8f2eece985d8e374c,65d2b9cfa5bc04f3723f825e,0.0297,0.0298,1,2,164,52,1,threeone,,,,,,,,,,,,,,,,,,,,,,,,,,,,,,,,,,,,,,,,,,,,,,,,,,,,,,,,,,,,,,,,,,,,,,,,,,,,,,,,,,,,,,,,,,,,,,,,,,,,,,,,,,,,,,,,,,,,,,,,,,,,,,,,,,,,,,,,,
,,64581c19e5e95ab59f07be23,2024-02-19_03h15.49.765,kallum_motion_pilot,2023.2.2,Win32,142.8571429,64581c19e5e95ab59f07be23,65d2b6c8f2eece985d8e374c,65d2b9cfa5bc04f3723f825e,0.0298,0.0298,1,3,165,1,1,onethree,,,,,,,,,,,,,,,,,,,,,,,,,,,,,,,,,,,,,,,,,,,,,,,,,,,,,,,,,,,,,,,,,,,,,,,,,,,,,,,,,,,,,,,,,,,,,,,,,,,,,,,,,,,,,,,,,,,,,,,,,,,,,,,,,,,,,,,,,
,,64581c19e5e95ab59f07be23,2024-02-19_03h15.49.765,kallum_motion_pilot,2023.2.2,Win32,142.8571429,64581c19e5e95ab59f07be23,65d2b6c8f2eece985d8e374c,65d2b9cfa5bc04f3723f825e,0.0298,0.0299,1,4,166,48,1,onetwo,,,,,,,,,,,,,,,,,,,,,,,,,,,,,,,,,,,,,,,,,,,,,,,,,,,,,,,,,,,,,,,,,,,,,,,,,,,,,,,,,,,,,,,,,,,,,,,,,,,,,,,,,,,,,,,,,,,,,,,,,,,,,,,,,,,,,,,,,
,,64581c19e5e95ab59f07be23,2024-02-19_03h15.49.765,kallum_motion_pilot,2023.2.2,Win32,142.8571429,64581c19e5e95ab59f07be23,65d2b6c8f2eece985d8e374c,65d2b9cfa5bc04f3723f825e,0.0299,0.0299,1,5,167,20,1,threeone,,,,,,,,,,,,,,,,,,,,,,,,,,,,,,,,,,,,,,,,,,,,,,,,,,,,,,,,,,,,,,,,,,,,,,,,,,,,,,,,,,,,,,,,,,,,,,,,,,,,,,,,,,,,,,,,,,,,,,,,,,,,,,,,,,,,,,,,,
,,64581c19e5e95ab59f07be23,2024-02-19_03h15.49.765,kallum_motion_pilot,2023.2.2,Win32,142.8571429,64581c19e5e95ab59f07be23,65d2b6c8f2eece985d8e374c,65d2b9cfa5bc04f3723f825e,0.0301,0.0301,1,6,168,55,1,fourthree,,,,,,,,,,,,,,,,,,,,,,,,,,,,,,,,,,,,,,,,,,,,,,,,,,,,,,,,,,,,,,,,,,,,,,,,,,,,,,,,,,,,,,,,,,,,,,,,,,,,,,,,,,,,,,,,,,,,,,,,,,,,,,,,,,,,,,,,,
,,64581c19e5e95ab59f07be23,2024-02-19_03h15.49.765,kallum_motion_pilot,2023.2.2,Win32,142.8571429,64581c19e5e95ab59f07be23,65d2b6c8f2eece985d8e374c,65d2b9cfa5bc04f3723f825e,0.0301,0.0302,1,7,169,71,1,fourthree,,,,,,,,,,,,,,,,,,,,,,,,,,,,,,,,,,,,,,,,,,,,,,,,,,,,,,,,,,,,,,,,,,,,,,,,,,,,,,,,,,,,,,,,,,,,,,,,,,,,,,,,,,,,,,,,,,,,,,,,,,,,,,,,,,,,,,,,,
,,64581c19e5e95ab59f07be23,2024-02-19_03h15.49.765,kallum_motion_pilot,2023.2.2,Win32,142.8571429,64581c19e5e95ab59f07be23,65d2b6c8f2eece985d8e374c,65d2b9cfa5bc04f3723f825e,0.0302,0.0302,1,8,170,117,1,seveneight,,,,,,,,,,,,,,,,,,,,,,,,,,,,,,,,,,,,,,,,,,,,,,,,,,,,,,,,,,,,,,,,,,,,,,,,,,,,,,,,,,,,,,,,,,,,,,,,,,,,,,,,,,,,,,,,,,,,,,,,,,,,,,,,,,,,,,,,,
,,64581c19e5e95ab59f07be23,2024-02-19_03h15.49.765,kallum_motion_pilot,2023.2.2,Win32,142.8571429,64581c19e5e95ab59f07be23,65d2b6c8f2eece985d8e374c,65d2b9cfa5bc04f3723f825e,0.0302,0.0303,1,9,171,50,1,twoone,,,,,,,,,,,,,,,,,,,,,,,,,,,,,,,,,,,,,,,,,,,,,,,,,,,,,,,,,,,,,,,,,,,,,,,,,,,,,,,,,,,,,,,,,,,,,,,,,,,,,,,,,,,,,,,,,,,,,,,,,,,,,,,,,,,,,,,,,
,,64581c19e5e95ab59f07be23,2024-02-19_03h15.49.765,kallum_motion_pilot,2023.2.2,Win32,142.8571429,64581c19e5e95ab59f07be23,65d2b6c8f2eece985d8e374c,65d2b9cfa5bc04f3723f825e,0.0304,0.0304,1,10,172,142,1,eightsix,,,,,,,,,,,,,,,,,,,,,,,,,,,,,,,,,,,,,,,,,,,,,,,,,,,,,,,,,,,,,,,,,,,,,,,,,,,,,,,,,,,,,,,,,,,,,,,,,,,,,,,,,,,,,,,,,,,,,,,,,,,,,,,,,,,,,,,,,
,,64581c19e5e95ab59f07be23,2024-02-19_03h15.49.765,kallum_motion_pilot,2023.2.2,Win32,142.8571429,64581c19e5e95ab59f07be23,65d2b6c8f2eece985d8e374c,65d2b9cfa5bc04f3723f825e,0.0304,0.0304,1,11,173,157,1,seveneight,,,,,,,,,,,,,,,,,,,,,,,,,,,,,,,,,,,,,,,,,,,,,,,,,,,,,,,,,,,,,,,,,,,,,,,,,,,,,,,,,,,,,,,,,,,,,,,,,,,,,,,,,,,,,,,,,,,,,,,,,,,,,,,,,,,,,,,,,
,,64581c19e5e95ab59f07be23,2024-02-19_03h15.49.765,kallum_motion_pilot,2023.2.2,Win32,142.8571429,64581c19e5e95ab59f07be23,65d2b6c8f2eece985d8e374c,65d2b9cfa5bc04f3723f825e,0.0305,0.0305,1,12,174,75,1,twofour,,,,,,,,,,,,,,,,,,,,,,,,,,,,,,,,,,,,,,,,,,,,,,,,,,,,,,,,,,,,,,,,,,,,,,,,,,,,,,,,,,,,,,,,,,,,,,,,,,,,,,,,,,,,,,,,,,,,,,,,,,,,,,,,,,,,,,,,,
,,64581c19e5e95ab59f07be23,2024-02-19_03h15.49.765,kallum_motion_pilot,2023.2.2,Win32,142.8571429,64581c19e5e95ab59f07be23,65d2b6c8f2eece985d8e374c,65d2b9cfa5bc04f3723f825e,0.0305,0.0306,1,13,175,99,1,sixeight,,,,,,,,,,,,,,,,,,,,,,,,,,,,,,,,,,,,,,,,,,,,,,,,,,,,,,,,,,,,,,,,,,,,,,,,,,,,,,,,,,,,,,,,,,,,,,,,,,,,,,,,,,,,,,,,,,,,,,,,,,,,,,,,,,,,,,,,,
,,64581c19e5e95ab59f07be23,2024-02-19_03h15.49.765,kallum_motion_pilot,2023.2.2,Win32,142.8571429,64581c19e5e95ab59f07be23,65d2b6c8f2eece985d8e374c,65d2b9cfa5bc04f3723f825e,0.0306,0.0307,1,14,176,115,1,sixeight,,,,,,,,,,,,,,,,,,,,,,,,,,,,,,,,,,,,,,,,,,,,,,,,,,,,,,,,,,,,,,,,,,,,,,,,,,,,,,,,,,,,,,,,,,,,,,,,,,,,,,,,,,,,,,,,,,,,,,,,,,,,,,,,,,,,,,,,,
,,64581c19e5e95ab59f07be23,2024-02-19_03h15.49.765,kallum_motion_pilot,2023.2.2,Win32,142.8571429,64581c19e5e95ab59f07be23,65d2b6c8f2eece985d8e374c,65d2b9cfa5bc04f3723f825e,0.0308,0.0308,1,15,177,24,1,onetwo,,,,,,,,,,,,,,,,,,,,,,,,,,,,,,,,,,,,,,,,,,,,,,,,,,,,,,,,,,,,,,,,,,,,,,,,,,,,,,,,,,,,,,,,,,,,,,,,,,,,,,,,,,,,,,,,,,,,,,,,,,,,,,,,,,,,,,,,,
,,64581c19e5e95ab59f07be23,2024-02-19_03h15.49.765,kallum_motion_pilot,2023.2.2,Win32,142.8571429,64581c19e5e95ab59f07be23,65d2b6c8f2eece985d8e374c,65d2b9cfa5bc04f3723f825e,0.0308,0.0308,1,16,178,40,1,onetwo,,,,,,,,,,,,,,,,,,,,,,,,,,,,,,,,,,,,,,,,,,,,,,,,,,,,,,,,,,,,,,,,,,,,,,,,,,,,,,,,,,,,,,,,,,,,,,,,,,,,,,,,,,,,,,,,,,,,,,,,,,,,,,,,,,,,,,,,,
,,64581c19e5e95ab59f07be23,2024-02-19_03h15.49.765,kallum_motion_pilot,2023.2.2,Win32,142.8571429,64581c19e5e95ab59f07be23,65d2b6c8f2eece985d8e374c,65d2b9cfa5bc04f3723f825e,0.0309,0.0309,1,17,179,61,1,threefour,,,,,,,,,,,,,,,,,,,,,,,,,,,,,,,,,,,,,,,,,,,,,,,,,,,,,,,,,,,,,,,,,,,,,,,,,,,,,,,,,,,,,,,,,,,,,,,,,,,,,,,,,,,,,,,,,,,,,,,,,,,,,,,,,,,,,,,,,
,,64581c19e5e95ab59f07be23,2024-02-19_03h15.49.765,kallum_motion_pilot,2023.2.2,Win32,142.8571429,64581c19e5e95ab59f07be23,65d2b6c8f2eece985d8e374c,65d2b9cfa5bc04f3723f825e,0.031,0.031,1,18,180,144,1,fivesix,,,,,,,,,,,,,,,,,,,,,,,,,,,,,,,,,,,,,,,,,,,,,,,,,,,,,,,,,,,,,,,,,,,,,,,,,,,,,,,,,,,,,,,,,,,,,,,,,,,,,,,,,,,,,,,,,,,,,,,,,,,,,,,,,,,,,,,,,
,,64581c19e5e95ab59f07be23,2024-02-19_03h15.49.765,kallum_motion_pilot,2023.2.2,Win32,142.8571429,64581c19e5e95ab59f07be23,65d2b6c8f2eece985d8e374c,65d2b9cfa5bc04f3723f825e,0.031,0.031,1,19,181,29,1,threefour,,,,,,,,,,,,,,,,,,,,,,,,,,,,,,,,,,,,,,,,,,,,,,,,,,,,,,,,,,,,,,,,,,,,,,,,,,,,,,,,,,,,,,,,,,,,,,,,,,,,,,,,,,,,,,,,,,,,,,,,,,,,,,,,,,,,,,,,,
,,64581c19e5e95ab59f07be23,2024-02-19_03h15.49.765,kallum_motion_pilot,2023.2.2,Win32,142.8571429,64581c19e5e95ab59f07be23,65d2b6c8f2eece985d8e374c,65d2b9cfa5bc04f3723f825e,0.0311,0.0312,1,20,182,66,1,twoone,,,,,,,,,,,,,,,,,,,,,,,,,,,,,,,,,,,,,,,,,,,,,,,,,,,,,,,,,,,,,,,,,,,,,,,,,,,,,,,,,,,,,,,,,,,,,,,,,,,,,,,,,,,,,,,,,,,,,,,,,,,,,,,,,,,,,,,,,
,,64581c19e5e95ab59f07be23,2024-02-19_03h15.49.765,kallum_motion_pilot,2023.2.2,Win32,142.8571429,64581c19e5e95ab59f07be23,65d2b6c8f2eece985d8e374c,65d2b9cfa5bc04f3723f825e,0.0312,0.0312,1,21,183,28,1,threeone,,,,,,,,,,,,,,,,,,,,,,,,,,,,,,,,,,,,,,,,,,,,,,,,,,,,,,,,,,,,,,,,,,,,,,,,,,,,,,,,,,,,,,,,,,,,,,,,,,,,,,,,,,,,,,,,,,,,,,,,,,,,,,,,,,,,,,,,,
,,64581c19e5e95ab59f07be23,2024-02-19_03h15.49.765,kallum_motion_pilot,2023.2.2,Win32,142.8571429,64581c19e5e95ab59f07be23,65d2b6c8f2eece985d8e374c,65d2b9cfa5bc04f3723f825e,0.0313,0.0313,1,22,184,46,1,fourtwo,,,,,,,,,,,,,,,,,,,,,,,,,,,,,,,,,,,,,,,,,,,,,,,,,,,,,,,,,,,,,,,,,,,,,,,,,,,,,,,,,,,,,,,,,,,,,,,,,,,,,,,,,,,,,,,,,,,,,,,,,,,,,,,,,,,,,,,,,
,,64581c19e5e95ab59f07be23,2024-02-19_03h15.49.765,kallum_motion_pilot,2023.2.2,Win32,142.8571429,64581c19e5e95ab59f07be23,65d2b6c8f2eece985d8e374c,65d2b9cfa5bc04f3723f825e,0.0314,0.0314,1,23,185,78,1,fourtwo,,,,,,,,,,,,,,,,,,,,,,,,,,,,,,,,,,,,,,,,,,,,,,,,,,,,,,,,,,,,,,,,,,,,,,,,,,,,,,,,,,,,,,,,,,,,,,,,,,,,,,,,,,,,,,,,,,,,,,,,,,,,,,,,,,,,,,,,,
,,64581c19e5e95ab59f07be23,2024-02-19_03h15.49.765,kallum_motion_pilot,2023.2.2,Win32,142.8571429,64581c19e5e95ab59f07be23,65d2b6c8f2eece985d8e374c,65d2b9cfa5bc04f3723f825e,0.0314,0.0314,1,24,186,16,1,onetwo,,,,,,,,,,,,,,,,,,,,,,,,,,,,,,,,,,,,,,,,,,,,,,,,,,,,,,,,,,,,,,,,,,,,,,,,,,,,,,,,,,,,,,,,,,,,,,,,,,,,,,,,,,,,,,,,,,,,,,,,,,,,,,,,,,,,,,,,,
,,64581c19e5e95ab59f07be23,2024-02-19_03h15.49.765,kallum_motion_pilot,2023.2.2,Win32,142.8571429,64581c19e5e95ab59f07be23,65d2b6c8f2eece985d8e374c,65d2b9cfa5bc04f3723f825e,0.0315,0.0315,1,25,187,82,1,sixfive,,,,,,,,,,,,,,,,,,,,,,,,,,,,,,,,,,,,,,,,,,,,,,,,,,,,,,,,,,,,,,,,,,,,,,,,,,,,,,,,,,,,,,,,,,,,,,,,,,,,,,,,,,,,,,,,,,,,,,,,,,,,,,,,,,,,,,,,,
,,64581c19e5e95ab59f07be23,2024-02-19_03h15.49.765,kallum_motion_pilot,2023.2.2,Win32,142.8571429,64581c19e5e95ab59f07be23,65d2b6c8f2eece985d8e374c,65d2b9cfa5bc04f3723f825e,0.0316,0.0316,1,26,188,116,1,sevenfive,,,,,,,,,,,,,,,,,,,,,,,,,,,,,,,,,,,,,,,,,,,,,,,,,,,,,,,,,,,,,,,,,,,,,,,,,,,,,,,,,,,,,,,,,,,,,,,,,,,,,,,,,,,,,,,,,,,,,,,,,,,,,,,,,,,,,,,,,
,,64581c19e5e95ab59f07be23,2024-02-19_03h15.49.765,kallum_motion_pilot,2023.2.2,Win32,142.8571429,64581c19e5e95ab59f07be23,65d2b6c8f2eece985d8e374c,65d2b9cfa5bc04f3723f825e,0.0317,0.0317,1,27,189,136,1,fivesix,,,,,,,,,,,,,,,,,,,,,,,,,,,,,,,,,,,,,,,,,,,,,,,,,,,,,,,,,,,,,,,,,,,,,,,,,,,,,,,,,,,,,,,,,,,,,,,,,,,,,,,,,,,,,,,,,,,,,,,,,,,,,,,,,,,,,,,,,
,,64581c19e5e95ab59f07be23,2024-02-19_03h15.49.765,kallum_motion_pilot,2023.2.2,Win32,142.8571429,64581c19e5e95ab59f07be23,65d2b6c8f2eece985d8e374c,65d2b9cfa5bc04f3723f825e,0.0318,0.0319,1,28,190,114,1,sixfive,,,,,,,,,,,,,,,,,,,,,,,,,,,,,,,,,,,,,,,,,,,,,,,,,,,,,,,,,,,,,,,,,,,,,,,,,,,,,,,,,,,,,,,,,,,,,,,,,,,,,,,,,,,,,,,,,,,,,,,,,,,,,,,,,,,,,,,,,
,,64581c19e5e95ab59f07be23,2024-02-19_03h15.49.765,kallum_motion_pilot,2023.2.2,Win32,142.8571429,64581c19e5e95ab59f07be23,65d2b6c8f2eece985d8e374c,65d2b9cfa5bc04f3723f825e,0.0319,0.0319,1,29,191,68,1,threeone,,,,,,,,,,,,,,,,,,,,,,,,,,,,,,,,,,,,,,,,,,,,,,,,,,,,,,,,,,,,,,,,,,,,,,,,,,,,,,,,,,,,,,,,,,,,,,,,,,,,,,,,,,,,,,,,,,,,,,,,,,,,,,,,,,,,,,,,,
,,64581c19e5e95ab59f07be23,2024-02-19_03h15.49.765,kallum_motion_pilot,2023.2.2,Win32,142.8571429,64581c19e5e95ab59f07be23,65d2b6c8f2eece985d8e374c,65d2b9cfa5bc04f3723f825e,0.032,0.032,1,30,192,139,1,sixeight,,,,,,,,,,,,,,,,,,,,,,,,,,,,,,,,,,,,,,,,,,,,,,,,,,,,,,,,,,,,,,,,,,,,,,,,,,,,,,,,,,,,,,,,,,,,,,,,,,,,,,,,,,,,,,,,,,,,,,,,,,,,,,,,,,,,,,,,,
,,64581c19e5e95ab59f07be23,2024-02-19_03h15.49.765,kallum_motion_pilot,2023.2.2,Win32,142.8571429,64581c19e5e95ab59f07be23,65d2b6c8f2eece985d8e374c,65d2b9cfa5bc04f3723f825e,0.032,0.032,1,31,193,159,1,eightseven,,,,,,,,,,,,,,,,,,,,,,,,,,,,,,,,,,,,,,,,,,,,,,,,,,,,,,,,,,,,,,,,,,,,,,,,,,,,,,,,,,,,,,,,,,,,,,,,,,,,,,,,,,,,,,,,,,,,,,,,,,,,,,,,,,,,,,,,,
,,64581c19e5e95ab59f07be23,2024-02-19_03h15.49.765,kallum_motion_pilot,2023.2.2,Win32,142.8571429,64581c19e5e95ab59f07be23,65d2b6c8f2eece985d8e374c,65d2b9cfa5bc04f3723f825e,0.0321,0.0321,1,32,194,30,1,fourtwo,,,,,,,,,,,,,,,,,,,,,,,,,,,,,,,,,,,,,,,,,,,,,,,,,,,,,,,,,,,,,,,,,,,,,,,,,,,,,,,,,,,,,,,,,,,,,,,,,,,,,,,,,,,,,,,,,,,,,,,,,,,,,,,,,,,,,,,,,
,,64581c19e5e95ab59f07be23,2024-02-19_03h15.49.765,kallum_motion_pilot,2023.2.2,Win32,142.8571429,64581c19e5e95ab59f07be23,65d2b6c8f2eece985d8e374c,65d2b9cfa5bc04f3723f825e,0.0322,0.0323,1,33,195,98,1,sixfive,,,,,,,,,,,,,,,,,,,,,,,,,,,,,,,,,,,,,,,,,,,,,,,,,,,,,,,,,,,,,,,,,,,,,,,,,,,,,,,,,,,,,,,,,,,,,,,,,,,,,,,,,,,,,,,,,,,,,,,,,,,,,,,,,,,,,,,,,
,,64581c19e5e95ab59f07be23,2024-02-19_03h15.49.765,kallum_motion_pilot,2023.2.2,Win32,142.8571429,64581c19e5e95ab59f07be23,65d2b6c8f2eece985d8e374c,65d2b9cfa5bc04f3723f825e,0.0323,0.0323,1,34,196,133,1,seveneight,,,,,,,,,,,,,,,,,,,,,,,,,,,,,,,,,,,,,,,,,,,,,,,,,,,,,,,,,,,,,,,,,,,,,,,,,,,,,,,,,,,,,,,,,,,,,,,,,,,,,,,,,,,,,,,,,,,,,,,,,,,,,,,,,,,,,,,,,
,,64581c19e5e95ab59f07be23,2024-02-19_03h15.49.765,kallum_motion_pilot,2023.2.2,Win32,142.8571429,64581c19e5e95ab59f07be23,65d2b6c8f2eece985d8e374c,65d2b9cfa5bc04f3723f825e,0.0324,0.0324,1,35,197,84,1,sevenfive,,,,,,,,,,,,,,,,,,,,,,,,,,,,,,,,,,,,,,,,,,,,,,,,,,,,,,,,,,,,,,,,,,,,,,,,,,,,,,,,,,,,,,,,,,,,,,,,,,,,,,,,,,,,,,,,,,,,,,,,,,,,,,,,,,,,,,,,,
,,64581c19e5e95ab59f07be23,2024-02-19_03h15.49.765,kallum_motion_pilot,2023.2.2,Win32,142.8571429,64581c19e5e95ab59f07be23,65d2b6c8f2eece985d8e374c,65d2b9cfa5bc04f3723f825e,0.0324,0.0325,1,36,198,0,1,onetwo,,,,,,,,,,,,,,,,,,,,,,,,,,,,,,,,,,,,,,,,,,,,,,,,,,,,,,,,,,,,,,,,,,,,,,,,,,,,,,,,,,,,,,,,,,,,,,,,,,,,,,,,,,,,,,,,,,,,,,,,,,,,,,,,,,,,,,,,,
,,64581c19e5e95ab59f07be23,2024-02-19_03h15.49.765,kallum_motion_pilot,2023.2.2,Win32,142.8571429,64581c19e5e95ab59f07be23,65d2b6c8f2eece985d8e374c,65d2b9cfa5bc04f3723f825e,0.0325,0.0326,1,37,199,149,1,seveneight,,,,,,,,,,,,,,,,,,,,,,,,,,,,,,,,,,,,,,,,,,,,,,,,,,,,,,,,,,,,,,,,,,,,,,,,,,,,,,,,,,,,,,,,,,,,,,,,,,,,,,,,,,,,,,,,,,,,,,,,,,,,,,,,,,,,,,,,,
,,64581c19e5e95ab59f07be23,2024-02-19_03h15.49.765,kallum_motion_pilot,2023.2.2,Win32,142.8571429,64581c19e5e95ab59f07be23,65d2b6c8f2eece985d8e374c,65d2b9cfa5bc04f3723f825e,0.0326,0.0327,1,38,200,69,1,threefour,,,,,,,,,,,,,,,,,,,,,,,,,,,,,,,,,,,,,,,,,,,,,,,,,,,,,,,,,,,,,,,,,,,,,,,,,,,,,,,,,,,,,,,,,,,,,,,,,,,,,,,,,,,,,,,,,,,,,,,,,,,,,,,,,,,,,,,,,
,,64581c19e5e95ab59f07be23,2024-02-19_03h15.49.765,kallum_motion_pilot,2023.2.2,Win32,142.8571429,64581c19e5e95ab59f07be23,65d2b6c8f2eece985d8e374c,65d2b9cfa5bc04f3723f825e,0.0327,0.0328,1,39,201,74,1,twoone,,,,,,,,,,,,,,,,,,,,,,,,,,,,,,,,,,,,,,,,,,,,,,,,,,,,,,,,,,,,,,,,,,,,,,,,,,,,,,,,,,,,,,,,,,,,,,,,,,,,,,,,,,,,,,,,,,,,,,,,,,,,,,,,,,,,,,,,,
,,64581c19e5e95ab59f07be23,2024-02-19_03h15.49.765,kallum_motion_pilot,2023.2.2,Win32,142.8571429,64581c19e5e95ab59f07be23,65d2b6c8f2eece985d8e374c,65d2b9cfa5bc04f3723f825e,0.0328,0.0328,1,40,202,121,1,fiveseven,,,,,,,,,,,,,,,,,,,,,,,,,,,,,,,,,,,,,,,,,,,,,,,,,,,,,,,,,,,,,,,,,,,,,,,,,,,,,,,,,,,,,,,,,,,,,,,,,,,,,,,,,,,,,,,,,,,,,,,,,,,,,,,,,,,,,,,,,
,,64581c19e5e95ab59f07be23,2024-02-19_03h15.49.765,kallum_motion_pilot,2023.2.2,Win32,142.8571429,64581c19e5e95ab59f07be23,65d2b6c8f2eece985d8e374c,65d2b9cfa5bc04f3723f825e,0.033,0.033,1,41,203,23,1,fourthree,,,,,,,,,,,,,,,,,,,,,,,,,,,,,,,,,,,,,,,,,,,,,,,,,,,,,,,,,,,,,,,,,,,,,,,,,,,,,,,,,,,,,,,,,,,,,,,,,,,,,,,,,,,,,,,,,,,,,,,,,,,,,,,,,,,,,,,,,
,,64581c19e5e95ab59f07be23,2024-02-19_03h15.49.765,kallum_motion_pilot,2023.2.2,Win32,142.8571429,64581c19e5e95ab59f07be23,65d2b6c8f2eece985d8e374c,65d2b9cfa5bc04f3723f825e,0.0331,0.0331,1,42,204,77,1,threefour,,,,,,,,,,,,,,,,,,,,,,,,,,,,,,,,,,,,,,,,,,,,,,,,,,,,,,,,,,,,,,,,,,,,,,,,,,,,,,,,,,,,,,,,,,,,,,,,,,,,,,,,,,,,,,,,,,,,,,,,,,,,,,,,,,,,,,,,,
,,64581c19e5e95ab59f07be23,2024-02-19_03h15.49.765,kallum_motion_pilot,2023.2.2,Win32,142.8571429,64581c19e5e95ab59f07be23,65d2b6c8f2eece985d8e374c,65d2b9cfa5bc04f3723f825e,0.0332,0.0332,1,43,205,76,1,threeone,,,,,,,,,,,,,,,,,,,,,,,,,,,,,,,,,,,,,,,,,,,,,,,,,,,,,,,,,,,,,,,,,,,,,,,,,,,,,,,,,,,,,,,,,,,,,,,,,,,,,,,,,,,,,,,,,,,,,,,,,,,,,,,,,,,,,,,,,
,,64581c19e5e95ab59f07be23,2024-02-19_03h15.49.765,kallum_motion_pilot,2023.2.2,Win32,142.8571429,64581c19e5e95ab59f07be23,65d2b6c8f2eece985d8e374c,65d2b9cfa5bc04f3723f825e,0.0332,0.0332,1,44,206,137,1,fiveseven,,,,,,,,,,,,,,,,,,,,,,,,,,,,,,,,,,,,,,,,,,,,,,,,,,,,,,,,,,,,,,,,,,,,,,,,,,,,,,,,,,,,,,,,,,,,,,,,,,,,,,,,,,,,,,,,,,,,,,,,,,,,,,,,,,,,,,,,,
,,64581c19e5e95ab59f07be23,2024-02-19_03h15.49.765,kallum_motion_pilot,2023.2.2,Win32,142.8571429,64581c19e5e95ab59f07be23,65d2b6c8f2eece985d8e374c,65d2b9cfa5bc04f3723f825e,0.0333,0.0334,1,45,207,17,1,onethree,,,,,,,,,,,,,,,,,,,,,,,,,,,,,,,,,,,,,,,,,,,,,,,,,,,,,,,,,,,,,,,,,,,,,,,,,,,,,,,,,,,,,,,,,,,,,,,,,,,,,,,,,,,,,,,,,,,,,,,,,,,,,,,,,,,,,,,,,
,,64581c19e5e95ab59f07be23,2024-02-19_03h15.49.765,kallum_motion_pilot,2023.2.2,Win32,142.8571429,64581c19e5e95ab59f07be23,65d2b6c8f2eece985d8e374c,65d2b9cfa5bc04f3723f825e,0.0334,0.0334,1,46,208,161,1,fiveseven,,,,,,,,,,,,,,,,,,,,,,,,,,,,,,,,,,,,,,,,,,,,,,,,,,,,,,,,,,,,,,,,,,,,,,,,,,,,,,,,,,,,,,,,,,,,,,,,,,,,,,,,,,,,,,,,,,,,,,,,,,,,,,,,,,,,,,,,,
,,64581c19e5e95ab59f07be23,2024-02-19_03h15.49.765,kallum_motion_pilot,2023.2.2,Win32,142.8571429,64581c19e5e95ab59f07be23,65d2b6c8f2eece985d8e374c,65d2b9cfa5bc04f3723f825e,0.0335,0.0335,1,47,209,38,1,fourtwo,,,,,,,,,,,,,,,,,,,,,,,,,,,,,,,,,,,,,,,,,,,,,,,,,,,,,,,,,,,,,,,,,,,,,,,,,,,,,,,,,,,,,,,,,,,,,,,,,,,,,,,,,,,,,,,,,,,,,,,,,,,,,,,,,,,,,,,,,
,,64581c19e5e95ab59f07be23,2024-02-19_03h15.49.765,kallum_motion_pilot,2023.2.2,Win32,142.8571429,64581c19e5e95ab59f07be23,65d2b6c8f2eece985d8e374c,65d2b9cfa5bc04f3723f825e,0.0335,0.0336,1,48,210,4,1,threeone,,,,,,,,,,,,,,,,,,,,,,,,,,,,,,,,,,,,,,,,,,,,,,,,,,,,,,,,,,,,,,,,,,,,,,,,,,,,,,,,,,,,,,,,,,,,,,,,,,,,,,,,,,,,,,,,,,,,,,,,,,,,,,,,,,,,,,,,,
,,64581c19e5e95ab59f07be23,2024-02-19_03h15.49.765,kallum_motion_pilot,2023.2.2,Win32,142.8571429,64581c19e5e95ab59f07be23,65d2b6c8f2eece985d8e374c,65d2b9cfa5bc04f3723f825e,0.0336,0.0337,1,49,211,112,1,fivesix,,,,,,,,,,,,,,,,,,,,,,,,,,,,,,,,,,,,,,,,,,,,,,,,,,,,,,,,,,,,,,,,,,,,,,,,,,,,,,,,,,,,,,,,,,,,,,,,,,,,,,,,,,,,,,,,,,,,,,,,,,,,,,,,,,,,,,,,,
,,64581c19e5e95ab59f07be23,2024-02-19_03h15.49.765,kallum_motion_pilot,2023.2.2,Win32,142.8571429,64581c19e5e95ab59f07be23,65d2b6c8f2eece985d8e374c,65d2b9cfa5bc04f3723f825e,0.0337,0.0338,1,50,212,152,1,fivesix,,,,,,,,,,,,,,,,,,,,,,,,,,,,,,,,,,,,,,,,,,,,,,,,,,,,,,,,,,,,,,,,,,,,,,,,,,,,,,,,,,,,,,,,,,,,,,,,,,,,,,,,,,,,,,,,,,,,,,,,,,,,,,,,,,,,,,,,,
,,64581c19e5e95ab59f07be23,2024-02-19_03h15.49.765,kallum_motion_pilot,2023.2.2,Win32,142.8571429,64581c19e5e95ab59f07be23,65d2b6c8f2eece985d8e374c,65d2b9cfa5bc04f3723f825e,0.0338,0.0338,1,51,213,39,1,fourthree,,,,,,,,,,,,,,,,,,,,,,,,,,,,,,,,,,,,,,,,,,,,,,,,,,,,,,,,,,,,,,,,,,,,,,,,,,,,,,,,,,,,,,,,,,,,,,,,,,,,,,,,,,,,,,,,,,,,,,,,,,,,,,,,,,,,,,,,,
,,64581c19e5e95ab59f07be23,2024-02-19_03h15.49.765,kallum_motion_pilot,2023.2.2,Win32,142.8571429,64581c19e5e95ab59f07be23,65d2b6c8f2eece985d8e374c,65d2b9cfa5bc04f3723f825e,0.0338,0.0339,1,52,214,44,1,threeone,,,,,,,,,,,,,,,,,,,,,,,,,,,,,,,,,,,,,,,,,,,,,,,,,,,,,,,,,,,,,,,,,,,,,,,,,,,,,,,,,,,,,,,,,,,,,,,,,,,,,,,,,,,,,,,,,,,,,,,,,,,,,,,,,,,,,,,,,
,,64581c19e5e95ab59f07be23,2024-02-19_03h15.49.765,kallum_motion_pilot,2023.2.2,Win32,142.8571429,64581c19e5e95ab59f07be23,65d2b6c8f2eece985d8e374c,65d2b9cfa5bc04f3723f825e,0.0339,0.0339,1,53,215,12,1,threeone,,,,,,,,,,,,,,,,,,,,,,,,,,,,,,,,,,,,,,,,,,,,,,,,,,,,,,,,,,,,,,,,,,,,,,,,,,,,,,,,,,,,,,,,,,,,,,,,,,,,,,,,,,,,,,,,,,,,,,,,,,,,,,,,,,,,,,,,,
,,64581c19e5e95ab59f07be23,2024-02-19_03h15.49.765,kallum_motion_pilot,2023.2.2,Win32,142.8571429,64581c19e5e95ab59f07be23,65d2b6c8f2eece985d8e374c,65d2b9cfa5bc04f3723f825e,0.034,0.0341,1,54,216,79,1,eightseven,,,,,,,,,,,,,,,,,,,,,,,,,,,,,,,,,,,,,,,,,,,,,,,,,,,,,,,,,,,,,,,,,,,,,,,,,,,,,,,,,,,,,,,,,,,,,,,,,,,,,,,,,,,,,,,,,,,,,,,,,,,,,,,,,,,,,,,,,
,,64581c19e5e95ab59f07be23,2024-02-19_03h15.49.765,kallum_motion_pilot,2023.2.2,Win32,142.8571429,64581c19e5e95ab59f07be23,65d2b6c8f2eece985d8e374c,65d2b9cfa5bc04f3723f825e,0.0341,0.0341,1,55,217,123,1,sixeight,,,,,,,,,,,,,,,,,,,,,,,,,,,,,,,,,,,,,,,,,,,,,,,,,,,,,,,,,,,,,,,,,,,,,,,,,,,,,,,,,,,,,,,,,,,,,,,,,,,,,,,,,,,,,,,,,,,,,,,,,,,,,,,,,,,,,,,,,
,,64581c19e5e95ab59f07be23,2024-02-19_03h15.49.765,kallum_motion_pilot,2023.2.2,Win32,142.8571429,64581c19e5e95ab59f07be23,65d2b6c8f2eece985d8e374c,65d2b9cfa5bc04f3723f825e,0.0342,0.0342,1,56,218,105,1,fiveseven,,,,,,,,,,,,,,,,,,,,,,,,,,,,,,,,,,,,,,,,,,,,,,,,,,,,,,,,,,,,,,,,,,,,,,,,,,,,,,,,,,,,,,,,,,,,,,,,,,,,,,,,,,,,,,,,,,,,,,,,,,,,,,,,,,,,,,,,,
,,64581c19e5e95ab59f07be23,2024-02-19_03h15.49.765,kallum_motion_pilot,2023.2.2,Win32,142.8571429,64581c19e5e95ab59f07be23,65d2b6c8f2eece985d8e374c,65d2b9cfa5bc04f3723f825e,0.0342,0.0343,1,57,219,18,1,twoone,,,,,,,,,,,,,,,,,,,,,,,,,,,,,,,,,,,,,,,,,,,,,,,,,,,,,,,,,,,,,,,,,,,,,,,,,,,,,,,,,,,,,,,,,,,,,,,,,,,,,,,,,,,,,,,,,,,,,,,,,,,,,,,,,,,,,,,,,
,,64581c19e5e95ab59f07be23,2024-02-19_03h15.49.765,kallum_motion_pilot,2023.2.2,Win32,142.8571429,64581c19e5e95ab59f07be23,65d2b6c8f2eece985d8e374c,65d2b9cfa5bc04f3723f825e,0.0344,0.0344,1,58,220,65,1,onethree,,,,,,,,,,,,,,,,,,,,,,,,,,,,,,,,,,,,,,,,,,,,,,,,,,,,,,,,,,,,,,,,,,,,,,,,,,,,,,,,,,,,,,,,,,,,,,,,,,,,,,,,,,,,,,,,,,,,,,,,,,,,,,,,,,,,,,,,,
,,64581c19e5e95ab59f07be23,2024-02-19_03h15.49.765,kallum_motion_pilot,2023.2.2,Win32,142.8571429,64581c19e5e95ab59f07be23,65d2b6c8f2eece985d8e374c,65d2b9cfa5bc04f3723f825e,0.0344,0.0345,1,59,221,100,1,sevenfive,,,,,,,,,,,,,,,,,,,,,,,,,,,,,,,,,,,,,,,,,,,,,,,,,,,,,,,,,,,,,,,,,,,,,,,,,,,,,,,,,,,,,,,,,,,,,,,,,,,,,,,,,,,,,,,,,,,,,,,,,,,,,,,,,,,,,,,,,
,,64581c19e5e95ab59f07be23,2024-02-19_03h15.49.765,kallum_motion_pilot,2023.2.2,Win32,142.8571429,64581c19e5e95ab59f07be23,65d2b6c8f2eece985d8e374c,65d2b9cfa5bc04f3723f825e,0.0345,0.0345,1,60,222,108,1,sevenfive,,,,,,,,,,,,,,,,,,,,,,,,,,,,,,,,,,,,,,,,,,,,,,,,,,,,,,,,,,,,,,,,,,,,,,,,,,,,,,,,,,,,,,,,,,,,,,,,,,,,,,,,,,,,,,,,,,,,,,,,,,,,,,,,,,,,,,,,,
,,64581c19e5e95ab59f07be23,2024-02-19_03h15.49.765,kallum_motion_pilot,2023.2.2,Win32,142.8571429,64581c19e5e95ab59f07be23,65d2b6c8f2eece985d8e374c,65d2b9cfa5bc04f3723f825e,0.0345,0.0346,1,61,223,80,1,fivesix,,,,,,,,,,,,,,,,,,,,,,,,,,,,,,,,,,,,,,,,,,,,,,,,,,,,,,,,,,,,,,,,,,,,,,,,,,,,,,,,,,,,,,,,,,,,,,,,,,,,,,,,,,,,,,,,,,,,,,,,,,,,,,,,,,,,,,,,,
,,64581c19e5e95ab59f07be23,2024-02-19_03h15.49.765,kallum_motion_pilot,2023.2.2,Win32,142.8571429,64581c19e5e95ab59f07be23,65d2b6c8f2eece985d8e374c,65d2b9cfa5bc04f3723f825e,0.0346,0.0347,1,62,224,148,1,sevenfive,,,,,,,,,,,,,,,,,,,,,,,,,,,,,,,,,,,,,,,,,,,,,,,,,,,,,,,,,,,,,,,,,,,,,,,,,,,,,,,,,,,,,,,,,,,,,,,,,,,,,,,,,,,,,,,,,,,,,,,,,,,,,,,,,,,,,,,,,
,,64581c19e5e95ab59f07be23,2024-02-19_03h15.49.765,kallum_motion_pilot,2023.2.2,Win32,142.8571429,64581c19e5e95ab59f07be23,65d2b6c8f2eece985d8e374c,65d2b9cfa5bc04f3723f825e,0.0347,0.0348,1,63,225,73,1,onethree,,,,,,,,,,,,,,,,,,,,,,,,,,,,,,,,,,,,,,,,,,,,,,,,,,,,,,,,,,,,,,,,,,,,,,,,,,,,,,,,,,,,,,,,,,,,,,,,,,,,,,,,,,,,,,,,,,,,,,,,,,,,,,,,,,,,,,,,,
,,64581c19e5e95ab59f07be23,2024-02-19_03h15.49.765,kallum_motion_pilot,2023.2.2,Win32,142.8571429,64581c19e5e95ab59f07be23,65d2b6c8f2eece985d8e374c,65d2b9cfa5bc04f3723f825e,0.0349,0.0349,1,64,226,51,1,twofour,,,,,,,,,,,,,,,,,,,,,,,,,,,,,,,,,,,,,,,,,,,,,,,,,,,,,,,,,,,,,,,,,,,,,,,,,,,,,,,,,,,,,,,,,,,,,,,,,,,,,,,,,,,,,,,,,,,,,,,,,,,,,,,,,,,,,,,,,
,,64581c19e5e95ab59f07be23,2024-02-19_03h15.49.765,kallum_motion_pilot,2023.2.2,Win32,142.8571429,64581c19e5e95ab59f07be23,65d2b6c8f2eece985d8e374c,65d2b9cfa5bc04f3723f825e,0.0349,0.035,1,65,227,134,1,eightsix,,,,,,,,,,,,,,,,,,,,,,,,,,,,,,,,,,,,,,,,,,,,,,,,,,,,,,,,,,,,,,,,,,,,,,,,,,,,,,,,,,,,,,,,,,,,,,,,,,,,,,,,,,,,,,,,,,,,,,,,,,,,,,,,,,,,,,,,,
,,64581c19e5e95ab59f07be23,2024-02-19_03h15.49.765,kallum_motion_pilot,2023.2.2,Win32,142.8571429,64581c19e5e95ab59f07be23,65d2b6c8f2eece985d8e374c,65d2b9cfa5bc04f3723f825e,0.035,0.0351,1,66,228,135,1,eightseven,,,,,,,,,,,,,,,,,,,,,,,,,,,,,,,,,,,,,,,,,,,,,,,,,,,,,,,,,,,,,,,,,,,,,,,,,,,,,,,,,,,,,,,,,,,,,,,,,,,,,,,,,,,,,,,,,,,,,,,,,,,,,,,,,,,,,,,,,
,,64581c19e5e95ab59f07be23,2024-02-19_03h15.49.765,kallum_motion_pilot,2023.2.2,Win32,142.8571429,64581c19e5e95ab59f07be23,65d2b6c8f2eece985d8e374c,65d2b9cfa5bc04f3723f825e,0.0351,0.0352,1,67,229,143,1,eightseven,,,,,,,,,,,,,,,,,,,,,,,,,,,,,,,,,,,,,,,,,,,,,,,,,,,,,,,,,,,,,,,,,,,,,,,,,,,,,,,,,,,,,,,,,,,,,,,,,,,,,,,,,,,,,,,,,,,,,,,,,,,,,,,,,,,,,,,,,
,,64581c19e5e95ab59f07be23,2024-02-19_03h15.49.765,kallum_motion_pilot,2023.2.2,Win32,142.8571429,64581c19e5e95ab59f07be23,65d2b6c8f2eece985d8e374c,65d2b9cfa5bc04f3723f825e,0.0352,0.0352,1,68,230,15,1,fourthree,,,,,,,,,,,,,,,,,,,,,,,,,,,,,,,,,,,,,,,,,,,,,,,,,,,,,,,,,,,,,,,,,,,,,,,,,,,,,,,,,,,,,,,,,,,,,,,,,,,,,,,,,,,,,,,,,,,,,,,,,,,,,,,,,,,,,,,,,
,,64581c19e5e95ab59f07be23,2024-02-19_03h15.49.765,kallum_motion_pilot,2023.2.2,Win32,142.8571429,64581c19e5e95ab59f07be23,65d2b6c8f2eece985d8e374c,65d2b9cfa5bc04f3723f825e,0.0353,0.0353,1,69,231,10,1,twoone,,,,,,,,,,,,,,,,,,,,,,,,,,,,,,,,,,,,,,,,,,,,,,,,,,,,,,,,,,,,,,,,,,,,,,,,,,,,,,,,,,,,,,,,,,,,,,,,,,,,,,,,,,,,,,,,,,,,,,,,,,,,,,,,,,,,,,,,,
,,64581c19e5e95ab59f07be23,2024-02-19_03h15.49.765,kallum_motion_pilot,2023.2.2,Win32,142.8571429,64581c19e5e95ab59f07be23,65d2b6c8f2eece985d8e374c,65d2b9cfa5bc04f3723f825e,0.0353,0.0354,1,70,232,90,1,sixfive,,,,,,,,,,,,,,,,,,,,,,,,,,,,,,,,,,,,,,,,,,,,,,,,,,,,,,,,,,,,,,,,,,,,,,,,,,,,,,,,,,,,,,,,,,,,,,,,,,,,,,,,,,,,,,,,,,,,,,,,,,,,,,,,,,,,,,,,,
,,64581c19e5e95ab59f07be23,2024-02-19_03h15.49.765,kallum_motion_pilot,2023.2.2,Win32,142.8571429,64581c19e5e95ab59f07be23,65d2b6c8f2eece985d8e374c,65d2b9cfa5bc04f3723f825e,0.0355,0.0355,1,71,233,31,1,fourthree,,,,,,,,,,,,,,,,,,,,,,,,,,,,,,,,,,,,,,,,,,,,,,,,,,,,,,,,,,,,,,,,,,,,,,,,,,,,,,,,,,,,,,,,,,,,,,,,,,,,,,,,,,,,,,,,,,,,,,,,,,,,,,,,,,,,,,,,,
,,64581c19e5e95ab59f07be23,2024-02-19_03h15.49.765,kallum_motion_pilot,2023.2.2,Win32,142.8571429,64581c19e5e95ab59f07be23,65d2b6c8f2eece985d8e374c,65d2b9cfa5bc04f3723f825e,0.0356,0.0356,1,72,234,49,1,onethree,,,,,,,,,,,,,,,,,,,,,,,,,,,,,,,,,,,,,,,,,,,,,,,,,,,,,,,,,,,,,,,,,,,,,,,,,,,,,,,,,,,,,,,,,,,,,,,,,,,,,,,,,,,,,,,,,,,,,,,,,,,,,,,,,,,,,,,,,
,,64581c19e5e95ab59f07be23,2024-02-19_03h15.49.765,kallum_motion_pilot,2023.2.2,Win32,142.8571429,64581c19e5e95ab59f07be23,65d2b6c8f2eece985d8e374c,65d2b9cfa5bc04f3723f825e,0.0357,0.0357,1,73,235,62,1,fourtwo,,,,,,,,,,,,,,,,,,,,,,,,,,,,,,,,,,,,,,,,,,,,,,,,,,,,,,,,,,,,,,,,,,,,,,,,,,,,,,,,,,,,,,,,,,,,,,,,,,,,,,,,,,,,,,,,,,,,,,,,,,,,,,,,,,,,,,,,,
,,64581c19e5e95ab59f07be23,2024-02-19_03h15.49.765,kallum_motion_pilot,2023.2.2,Win32,142.8571429,64581c19e5e95ab59f07be23,65d2b6c8f2eece985d8e374c,65d2b9cfa5bc04f3723f825e,0.0357,0.0358,1,74,236,87,1,eightseven,,,,,,,,,,,,,,,,,,,,,,,,,,,,,,,,,,,,,,,,,,,,,,,,,,,,,,,,,,,,,,,,,,,,,,,,,,,,,,,,,,,,,,,,,,,,,,,,,,,,,,,,,,,,,,,,,,,,,,,,,,,,,,,,,,,,,,,,,
,,64581c19e5e95ab59f07be23,2024-02-19_03h15.49.765,kallum_motion_pilot,2023.2.2,Win32,142.8571429,64581c19e5e95ab59f07be23,65d2b6c8f2eece985d8e374c,65d2b9cfa5bc04f3723f825e,0.0358,0.0358,1,75,237,35,1,twofour,,,,,,,,,,,,,,,,,,,,,,,,,,,,,,,,,,,,,,,,,,,,,,,,,,,,,,,,,,,,,,,,,,,,,,,,,,,,,,,,,,,,,,,,,,,,,,,,,,,,,,,,,,,,,,,,,,,,,,,,,,,,,,,,,,,,,,,,,
,,64581c19e5e95ab59f07be23,2024-02-19_03h15.49.765,kallum_motion_pilot,2023.2.2,Win32,142.8571429,64581c19e5e95ab59f07be23,65d2b6c8f2eece985d8e374c,65d2b9cfa5bc04f3723f825e,0.0359,0.0359,1,76,238,91,1,sixeight,,,,,,,,,,,,,,,,,,,,,,,,,,,,,,,,,,,,,,,,,,,,,,,,,,,,,,,,,,,,,,,,,,,,,,,,,,,,,,,,,,,,,,,,,,,,,,,,,,,,,,,,,,,,,,,,,,,,,,,,,,,,,,,,,,,,,,,,,
,,64581c19e5e95ab59f07be23,2024-02-19_03h15.49.765,kallum_motion_pilot,2023.2.2,Win32,142.8571429,64581c19e5e95ab59f07be23,65d2b6c8f2eece985d8e374c,65d2b9cfa5bc04f3723f825e,0.0359,0.0359,1,77,239,126,1,eightsix,,,,,,,,,,,,,,,,,,,,,,,,,,,,,,,,,,,,,,,,,,,,,,,,,,,,,,,,,,,,,,,,,,,,,,,,,,,,,,,,,,,,,,,,,,,,,,,,,,,,,,,,,,,,,,,,,,,,,,,,,,,,,,,,,,,,,,,,,
,,64581c19e5e95ab59f07be23,2024-02-19_03h15.49.765,kallum_motion_pilot,2023.2.2,Win32,142.8571429,64581c19e5e95ab59f07be23,65d2b6c8f2eece985d8e374c,65d2b9cfa5bc04f3723f825e,0.036,0.0361,1,78,240,3,1,twofour,,,,,,,,,,,,,,,,,,,,,,,,,,,,,,,,,,,,,,,,,,,,,,,,,,,,,,,,,,,,,,,,,,,,,,,,,,,,,,,,,,,,,,,,,,,,,,,,,,,,,,,,,,,,,,,,,,,,,,,,,,,,,,,,,,,,,,,,,
,,64581c19e5e95ab59f07be23,2024-02-19_03h15.49.765,kallum_motion_pilot,2023.2.2,Win32,142.8571429,64581c19e5e95ab59f07be23,65d2b6c8f2eece985d8e374c,65d2b9cfa5bc04f3723f825e,0.0361,0.0361,1,79,241,64,1,onetwo,,,,,,,,,,,,,,,,,,,,,,,,,,,,,,,,,,,,,,,,,,,,,,,,,,,,,,,,,,,,,,,,,,,,,,,,,,,,,,,,,,,,,,,,,,,,,,,,,,,,,,,,,,,,,,,,,,,,,,,,,,,,,,,,,,,,,,,,,
,,64581c19e5e95ab59f07be23,2024-02-19_03h15.49.765,kallum_motion_pilot,2023.2.2,Win32,142.8571429,64581c19e5e95ab59f07be23,65d2b6c8f2eece985d8e374c,65d2b9cfa5bc04f3723f825e,0.0362,0.0362,1,80,242,158,1,eightsix,,,,,,,,,,,,,,,,,,,,,,,,,,,,,,,,,,,,,,,,,,,,,,,,,,,,,,,,,,,,,,,,,,,,,,,,,,,,,,,,,,,,,,,,,,,,,,,,,,,,,,,,,,,,,,,,,,,,,,,,,,,,,,,,,,,,,,,,,
,,64581c19e5e95ab59f07be23,2024-02-19_03h15.49.765,kallum_motion_pilot,2023.2.2,Win32,142.8571429,64581c19e5e95ab59f07be23,65d2b6c8f2eece985d8e374c,65d2b9cfa5bc04f3723f825e,0.0362,0.0363,1,81,243,45,1,threefour,,,,,,,,,,,,,,,,,,,,,,,,,,,,,,,,,,,,,,,,,,,,,,,,,,,,,,,,,,,,,,,,,,,,,,,,,,,,,,,,,,,,,,,,,,,,,,,,,,,,,,,,,,,,,,,,,,,,,,,,,,,,,,,,,,,,,,,,,
,,64581c19e5e95ab59f07be23,2024-02-19_03h15.49.765,kallum_motion_pilot,2023.2.2,Win32,142.8571429,64581c19e5e95ab59f07be23,65d2b6c8f2eece985d8e374c,65d2b9cfa5bc04f3723f825e,0.0363,0.0364,1,82,244,127,1,eightseven,,,,,,,,,,,,,,,,,,,,,,,,,,,,,,,,,,,,,,,,,,,,,,,,,,,,,,,,,,,,,,,,,,,,,,,,,,,,,,,,,,,,,,,,,,,,,,,,,,,,,,,,,,,,,,,,,,,,,,,,,,,,,,,,,,,,,,,,,
,,64581c19e5e95ab59f07be23,2024-02-19_03h15.49.765,kallum_motion_pilot,2023.2.2,Win32,142.8571429,64581c19e5e95ab59f07be23,65d2b6c8f2eece985d8e374c,65d2b9cfa5bc04f3723f825e,0.0364,0.0365,1,83,245,131,1,sixeight,,,,,,,,,,,,,,,,,,,,,,,,,,,,,,,,,,,,,,,,,,,,,,,,,,,,,,,,,,,,,,,,,,,,,,,,,,,,,,,,,,,,,,,,,,,,,,,,,,,,,,,,,,,,,,,,,,,,,,,,,,,,,,,,,,,,,,,,,
,,64581c19e5e95ab59f07be23,2024-02-19_03h15.49.765,kallum_motion_pilot,2023.2.2,Win32,142.8571429,64581c19e5e95ab59f07be23,65d2b6c8f2eece985d8e374c,65d2b9cfa5bc04f3723f825e,0.0365,0.0365,1,84,246,81,1,fiveseven,,,,,,,,,,,,,,,,,,,,,,,,,,,,,,,,,,,,,,,,,,,,,,,,,,,,,,,,,,,,,,,,,,,,,,,,,,,,,,,,,,,,,,,,,,,,,,,,,,,,,,,,,,,,,,,,,,,,,,,,,,,,,,,,,,,,,,,,,
,,64581c19e5e95ab59f07be23,2024-02-19_03h15.49.765,kallum_motion_pilot,2023.2.2,Win32,142.8571429,64581c19e5e95ab59f07be23,65d2b6c8f2eece985d8e374c,65d2b9cfa5bc04f3723f825e,0.0366,0.0367,1,85,247,25,1,onethree,,,,,,,,,,,,,,,,,,,,,,,,,,,,,,,,,,,,,,,,,,,,,,,,,,,,,,,,,,,,,,,,,,,,,,,,,,,,,,,,,,,,,,,,,,,,,,,,,,,,,,,,,,,,,,,,,,,,,,,,,,,,,,,,,,,,,,,,,
,,64581c19e5e95ab59f07be23,2024-02-19_03h15.49.765,kallum_motion_pilot,2023.2.2,Win32,142.8571429,64581c19e5e95ab59f07be23,65d2b6c8f2eece985d8e374c,65d2b9cfa5bc04f3723f825e,0.0367,0.0367,1,86,248,2,1,twoone,,,,,,,,,,,,,,,,,,,,,,,,,,,,,,,,,,,,,,,,,,,,,,,,,,,,,,,,,,,,,,,,,,,,,,,,,,,,,,,,,,,,,,,,,,,,,,,,,,,,,,,,,,,,,,,,,,,,,,,,,,,,,,,,,,,,,,,,,
,,64581c19e5e95ab59f07be23,2024-02-19_03h15.49.765,kallum_motion_pilot,2023.2.2,Win32,142.8571429,64581c19e5e95ab59f07be23,65d2b6c8f2eece985d8e374c,65d2b9cfa5bc04f3723f825e,0.0368,0.0368,1,87,249,129,1,fiveseven,,,,,,,,,,,,,,,,,,,,,,,,,,,,,,,,,,,,,,,,,,,,,,,,,,,,,,,,,,,,,,,,,,,,,,,,,,,,,,,,,,,,,,,,,,,,,,,,,,,,,,,,,,,,,,,,,,,,,,,,,,,,,,,,,,,,,,,,,
,,64581c19e5e95ab59f07be23,2024-02-19_03h15.49.765,kallum_motion_pilot,2023.2.2,Win32,142.8571429,64581c19e5e95ab59f07be23,65d2b6c8f2eece985d8e374c,65d2b9cfa5bc04f3723f825e,0.0369,0.0369,1,88,250,70,1,fourtwo,,,,,,,,,,,,,,,,,,,,,,,,,,,,,,,,,,,,,,,,,,,,,,,,,,,,,,,,,,,,,,,,,,,,,,,,,,,,,,,,,,,,,,,,,,,,,,,,,,,,,,,,,,,,,,,,,,,,,,,,,,,,,,,,,,,,,,,,,
,,64581c19e5e95ab59f07be23,2024-02-19_03h15.49.765,kallum_motion_pilot,2023.2.2,Win32,142.8571429,64581c19e5e95ab59f07be23,65d2b6c8f2eece985d8e374c,65d2b9cfa5bc04f3723f825e,0.0369,0.037,1,89,251,5,1,threefour,,,,,,,,,,,,,,,,,,,,,,,,,,,,,,,,,,,,,,,,,,,,,,,,,,,,,,,,,,,,,,,,,,,,,,,,,,,,,,,,,,,,,,,,,,,,,,,,,,,,,,,,,,,,,,,,,,,,,,,,,,,,,,,,,,,,,,,,,
,,64581c19e5e95ab59f07be23,2024-02-19_03h15.49.765,kallum_motion_pilot,2023.2.2,Win32,142.8571429,64581c19e5e95ab59f07be23,65d2b6c8f2eece985d8e374c,65d2b9cfa5bc04f3723f825e,0.037,0.0371,1,90,252,94,1,eightsix,,,,,,,,,,,,,,,,,,,,,,,,,,,,,,,,,,,,,,,,,,,,,,,,,,,,,,,,,,,,,,,,,,,,,,,,,,,,,,,,,,,,,,,,,,,,,,,,,,,,,,,,,,,,,,,,,,,,,,,,,,,,,,,,,,,,,,,,,
,,64581c19e5e95ab59f07be23,2024-02-19_03h15.49.765,kallum_motion_pilot,2023.2.2,Win32,142.8571429,64581c19e5e95ab59f07be23,65d2b6c8f2eece985d8e374c,65d2b9cfa5bc04f3723f825e,0.0371,0.0372,1,91,253,132,1,sevenfive,,,,,,,,,,,,,,,,,,,,,,,,,,,,,,,,,,,,,,,,,,,,,,,,,,,,,,,,,,,,,,,,,,,,,,,,,,,,,,,,,,,,,,,,,,,,,,,,,,,,,,,,,,,,,,,,,,,,,,,,,,,,,,,,,,,,,,,,,
,,64581c19e5e95ab59f07be23,2024-02-19_03h15.49.765,kallum_motion_pilot,2023.2.2,Win32,142.8571429,64581c19e5e95ab59f07be23,65d2b6c8f2eece985d8e374c,65d2b9cfa5bc04f3723f825e,0.0372,0.0373,1,92,254,92,1,sevenfive,,,,,,,,,,,,,,,,,,,,,,,,,,,,,,,,,,,,,,,,,,,,,,,,,,,,,,,,,,,,,,,,,,,,,,,,,,,,,,,,,,,,,,,,,,,,,,,,,,,,,,,,,,,,,,,,,,,,,,,,,,,,,,,,,,,,,,,,,
,,64581c19e5e95ab59f07be23,2024-02-19_03h15.49.765,kallum_motion_pilot,2023.2.2,Win32,142.8571429,64581c19e5e95ab59f07be23,65d2b6c8f2eece985d8e374c,65d2b9cfa5bc04f3723f825e,0.0373,0.0373,1,93,255,43,1,twofour,,,,,,,,,,,,,,,,,,,,,,,,,,,,,,,,,,,,,,,,,,,,,,,,,,,,,,,,,,,,,,,,,,,,,,,,,,,,,,,,,,,,,,,,,,,,,,,,,,,,,,,,,,,,,,,,,,,,,,,,,,,,,,,,,,,,,,,,,
,,64581c19e5e95ab59f07be23,2024-02-19_03h15.49.765,kallum_motion_pilot,2023.2.2,Win32,142.8571429,64581c19e5e95ab59f07be23,65d2b6c8f2eece985d8e374c,65d2b9cfa5bc04f3723f825e,0.0374,0.0375,1,94,256,119,1,eightseven,,,,,,,,,,,,,,,,,,,,,,,,,,,,,,,,,,,,,,,,,,,,,,,,,,,,,,,,,,,,,,,,,,,,,,,,,,,,,,,,,,,,,,,,,,,,,,,,,,,,,,,,,,,,,,,,,,,,,,,,,,,,,,,,,,,,,,,,,
,,64581c19e5e95ab59f07be23,2024-02-19_03h15.49.765,kallum_motion_pilot,2023.2.2,Win32,142.8571429,64581c19e5e95ab59f07be23,65d2b6c8f2eece985d8e374c,65d2b9cfa5bc04f3723f825e,0.0375,0.0376,1,95,257,89,1,fiveseven,,,,,,,,,,,,,,,,,,,,,,,,,,,,,,,,,,,,,,,,,,,,,,,,,,,,,,,,,,,,,,,,,,,,,,,,,,,,,,,,,,,,,,,,,,,,,,,,,,,,,,,,,,,,,,,,,,,,,,,,,,,,,,,,,,,,,,,,,
,,64581c19e5e95ab59f07be23,2024-02-19_03h15.49.765,kallum_motion_pilot,2023.2.2,Win32,142.8571429,64581c19e5e95ab59f07be23,65d2b6c8f2eece985d8e374c,65d2b9cfa5bc04f3723f825e,0.0376,0.0376,1,96,258,96,1,fivesix,,,,,,,,,,,,,,,,,,,,,,,,,,,,,,,,,,,,,,,,,,,,,,,,,,,,,,,,,,,,,,,,,,,,,,,,,,,,,,,,,,,,,,,,,,,,,,,,,,,,,,,,,,,,,,,,,,,,,,,,,,,,,,,,,,,,,,,,,
,,64581c19e5e95ab59f07be23,2024-02-19_03h15.49.765,kallum_motion_pilot,2023.2.2,Win32,142.8571429,64581c19e5e95ab59f07be23,65d2b6c8f2eece985d8e374c,65d2b9cfa5bc04f3723f825e,0.0377,0.0377,1,97,259,140,1,sevenfive,,,,,,,,,,,,,,,,,,,,,,,,,,,,,,,,,,,,,,,,,,,,,,,,,,,,,,,,,,,,,,,,,,,,,,,,,,,,,,,,,,,,,,,,,,,,,,,,,,,,,,,,,,,,,,,,,,,,,,,,,,,,,,,,,,,,,,,,,
,,64581c19e5e95ab59f07be23,2024-02-19_03h15.49.765,kallum_motion_pilot,2023.2.2,Win32,142.8571429,64581c19e5e95ab59f07be23,65d2b6c8f2eece985d8e374c,65d2b9cfa5bc04f3723f825e,0.0378,0.0378,1,98,260,156,1,sevenfive,,,,,,,,,,,,,,,,,,,,,,,,,,,,,,,,,,,,,,,,,,,,,,,,,,,,,,,,,,,,,,,,,,,,,,,,,,,,,,,,,,,,,,,,,,,,,,,,,,,,,,,,,,,,,,,,,,,,,,,,,,,,,,,,,,,,,,,,,
,,64581c19e5e95ab59f07be23,2024-02-19_03h15.49.765,kallum_motion_pilot,2023.2.2,Win32,142.8571429,64581c19e5e95ab59f07be23,65d2b6c8f2eece985d8e374c,65d2b9cfa5bc04f3723f825e,0.0379,0.0379,1,99,261,93,1,seveneight,,,,,,,,,,,,,,,,,,,,,,,,,,,,,,,,,,,,,,,,,,,,,,,,,,,,,,,,,,,,,,,,,,,,,,,,,,,,,,,,,,,,,,,,,,,,,,,,,,,,,,,,,,,,,,,,,,,,,,,,,,,,,,,,,,,,,,,,,
,,64581c19e5e95ab59f07be23,2024-02-19_03h15.49.765,kallum_motion_pilot,2023.2.2,Win32,142.8571429,64581c19e5e95ab59f07be23,65d2b6c8f2eece985d8e374c,65d2b9cfa5bc04f3723f825e,0.0379,0.0379,1,100,262,107,1,sixeight,,,,,,,,,,,,,,,,,,,,,,,,,,,,,,,,,,,,,,,,,,,,,,,,,,,,,,,,,,,,,,,,,,,,,,,,,,,,,,,,,,,,,,,,,,,,,,,,,,,,,,,,,,,,,,,,,,,,,,,,,,,,,,,,,,,,,,,,,
,,64581c19e5e95ab59f07be23,2024-02-19_03h15.49.765,kallum_motion_pilot,2023.2.2,Win32,142.8571429,64581c19e5e95ab59f07be23,65d2b6c8f2eece985d8e374c,65d2b9cfa5bc04f3723f825e,0.038,0.0381,1,101,263,103,1,eightseven,,,,,,,,,,,,,,,,,,,,,,,,,,,,,,,,,,,,,,,,,,,,,,,,,,,,,,,,,,,,,,,,,,,,,,,,,,,,,,,,,,,,,,,,,,,,,,,,,,,,,,,,,,,,,,,,,,,,,,,,,,,,,,,,,,,,,,,,,
,,64581c19e5e95ab59f07be23,2024-02-19_03h15.49.765,kallum_motion_pilot,2023.2.2,Win32,142.8571429,64581c19e5e95ab59f07be23,65d2b6c8f2eece985d8e374c,65d2b9cfa5bc04f3723f825e,0.0382,0.0382,1,102,264,128,1,fivesix,,,,,,,,,,,,,,,,,,,,,,,,,,,,,,,,,,,,,,,,,,,,,,,,,,,,,,,,,,,,,,,,,,,,,,,,,,,,,,,,,,,,,,,,,,,,,,,,,,,,,,,,,,,,,,,,,,,,,,,,,,,,,,,,,,,,,,,,,
,,64581c19e5e95ab59f07be23,2024-02-19_03h15.49.765,kallum_motion_pilot,2023.2.2,Win32,142.8571429,64581c19e5e95ab59f07be23,65d2b6c8f2eece985d8e374c,65d2b9cfa5bc04f3723f825e,0.0383,0.0384,1,103,265,141,1,seveneight,,,,,,,,,,,,,,,,,,,,,,,,,,,,,,,,,,,,,,,,,,,,,,,,,,,,,,,,,,,,,,,,,,,,,,,,,,,,,,,,,,,,,,,,,,,,,,,,,,,,,,,,,,,,,,,,,,,,,,,,,,,,,,,,,,,,,,,,,
,,64581c19e5e95ab59f07be23,2024-02-19_03h15.49.765,kallum_motion_pilot,2023.2.2,Win32,142.8571429,64581c19e5e95ab59f07be23,65d2b6c8f2eece985d8e374c,65d2b9cfa5bc04f3723f825e,0.0384,0.0385,1,104,266,102,1,eightsix,,,,,,,,,,,,,,,,,,,,,,,,,,,,,,,,,,,,,,,,,,,,,,,,,,,,,,,,,,,,,,,,,,,,,,,,,,,,,,,,,,,,,,,,,,,,,,,,,,,,,,,,,,,,,,,,,,,,,,,,,,,,,,,,,,,,,,,,,
,,64581c19e5e95ab59f07be23,2024-02-19_03h15.49.765,kallum_motion_pilot,2023.2.2,Win32,142.8571429,64581c19e5e95ab59f07be23,65d2b6c8f2eece985d8e374c,65d2b9cfa5bc04f3723f825e,0.0385,0.0385,1,105,267,11,1,twofour,,,,,,,,,,,,,,,,,,,,,,,,,,,,,,,,,,,,,,,,,,,,,,,,,,,,,,,,,,,,,,,,,,,,,,,,,,,,,,,,,,,,,,,,,,,,,,,,,,,,,,,,,,,,,,,,,,,,,,,,,,,,,,,,,,,,,,,,,
,,64581c19e5e95ab59f07be23,2024-02-19_03h15.49.765,kallum_motion_pilot,2023.2.2,Win32,142.8571429,64581c19e5e95ab59f07be23,65d2b6c8f2eece985d8e374c,65d2b9cfa5bc04f3723f825e,0.0386,0.0386,1,106,268,60,1,threeone,,,,,,,,,,,,,,,,,,,,,,,,,,,,,,,,,,,,,,,,,,,,,,,,,,,,,,,,,,,,,,,,,,,,,,,,,,,,,,,,,,,,,,,,,,,,,,,,,,,,,,,,,,,,,,,,,,,,,,,,,,,,,,,,,,,,,,,,,
,,64581c19e5e95ab59f07be23,2024-02-19_03h15.49.765,kallum_motion_pilot,2023.2.2,Win32,142.8571429,64581c19e5e95ab59f07be23,65d2b6c8f2eece985d8e374c,65d2b9cfa5bc04f3723f825e,0.0387,0.0387,1,107,269,106,1,sixfive,,,,,,,,,,,,,,,,,,,,,,,,,,,,,,,,,,,,,,,,,,,,,,,,,,,,,,,,,,,,,,,,,,,,,,,,,,,,,,,,,,,,,,,,,,,,,,,,,,,,,,,,,,,,,,,,,,,,,,,,,,,,,,,,,,,,,,,,,
,,64581c19e5e95ab59f07be23,2024-02-19_03h15.49.765,kallum_motion_pilot,2023.2.2,Win32,142.8571429,64581c19e5e95ab59f07be23,65d2b6c8f2eece985d8e374c,65d2b9cfa5bc04f3723f825e,0.0387,0.0387,1,108,270,63,1,fourthree,,,,,,,,,,,,,,,,,,,,,,,,,,,,,,,,,,,,,,,,,,,,,,,,,,,,,,,,,,,,,,,,,,,,,,,,,,,,,,,,,,,,,,,,,,,,,,,,,,,,,,,,,,,,,,,,,,,,,,,,,,,,,,,,,,,,,,,,,
,,64581c19e5e95ab59f07be23,2024-02-19_03h15.49.765,kallum_motion_pilot,2023.2.2,Win32,142.8571429,64581c19e5e95ab59f07be23,65d2b6c8f2eece985d8e374c,65d2b9cfa5bc04f3723f825e,0.0388,0.0388,1,109,271,101,1,seveneight,,,,,,,,,,,,,,,,,,,,,,,,,,,,,,,,,,,,,,,,,,,,,,,,,,,,,,,,,,,,,,,,,,,,,,,,,,,,,,,,,,,,,,,,,,,,,,,,,,,,,,,,,,,,,,,,,,,,,,,,,,,,,,,,,,,,,,,,,
,,64581c19e5e95ab59f07be23,2024-02-19_03h15.49.765,kallum_motion_pilot,2023.2.2,Win32,142.8571429,64581c19e5e95ab59f07be23,65d2b6c8f2eece985d8e374c,65d2b9cfa5bc04f3723f825e,0.0389,0.0389,1,110,272,147,1,sixeight,,,,,,,,,,,,,,,,,,,,,,,,,,,,,,,,,,,,,,,,,,,,,,,,,,,,,,,,,,,,,,,,,,,,,,,,,,,,,,,,,,,,,,,,,,,,,,,,,,,,,,,,,,,,,,,,,,,,,,,,,,,,,,,,,,,,,,,,,
,,64581c19e5e95ab59f07be23,2024-02-19_03h15.49.765,kallum_motion_pilot,2023.2.2,Win32,142.8571429,64581c19e5e95ab59f07be23,65d2b6c8f2eece985d8e374c,65d2b9cfa5bc04f3723f825e,0.039,0.039,1,111,273,110,1,eightsix,,,,,,,,,,,,,,,,,,,,,,,,,,,,,,,,,,,,,,,,,,,,,,,,,,,,,,,,,,,,,,,,,,,,,,,,,,,,,,,,,,,,,,,,,,,,,,,,,,,,,,,,,,,,,,,,,,,,,,,,,,,,,,,,,,,,,,,,,
,,64581c19e5e95ab59f07be23,2024-02-19_03h15.49.765,kallum_motion_pilot,2023.2.2,Win32,142.8571429,64581c19e5e95ab59f07be23,65d2b6c8f2eece985d8e374c,65d2b9cfa5bc04f3723f825e,0.0391,0.0391,1,112,274,59,1,twofour,,,,,,,,,,,,,,,,,,,,,,,,,,,,,,,,,,,,,,,,,,,,,,,,,,,,,,,,,,,,,,,,,,,,,,,,,,,,,,,,,,,,,,,,,,,,,,,,,,,,,,,,,,,,,,,,,,,,,,,,,,,,,,,,,,,,,,,,,
,,64581c19e5e95ab59f07be23,2024-02-19_03h15.49.765,kallum_motion_pilot,2023.2.2,Win32,142.8571429,64581c19e5e95ab59f07be23,65d2b6c8f2eece985d8e374c,65d2b9cfa5bc04f3723f825e,0.0392,0.0392,1,113,275,122,1,sixfive,,,,,,,,,,,,,,,,,,,,,,,,,,,,,,,,,,,,,,,,,,,,,,,,,,,,,,,,,,,,,,,,,,,,,,,,,,,,,,,,,,,,,,,,,,,,,,,,,,,,,,,,,,,,,,,,,,,,,,,,,,,,,,,,,,,,,,,,,
,,64581c19e5e95ab59f07be23,2024-02-19_03h15.49.765,kallum_motion_pilot,2023.2.2,Win32,142.8571429,64581c19e5e95ab59f07be23,65d2b6c8f2eece985d8e374c,65d2b9cfa5bc04f3723f825e,0.0393,0.0393,1,114,276,67,1,twofour,,,,,,,,,,,,,,,,,,,,,,,,,,,,,,,,,,,,,,,,,,,,,,,,,,,,,,,,,,,,,,,,,,,,,,,,,,,,,,,,,,,,,,,,,,,,,,,,,,,,,,,,,,,,,,,,,,,,,,,,,,,,,,,,,,,,,,,,,
,,64581c19e5e95ab59f07be23,2024-02-19_03h15.49.765,kallum_motion_pilot,2023.2.2,Win32,142.8571429,64581c19e5e95ab59f07be23,65d2b6c8f2eece985d8e374c,65d2b9cfa5bc04f3723f825e,0.0393,0.0394,1,115,277,9,1,onethree,,,,,,,,,,,,,,,,,,,,,,,,,,,,,,,,,,,,,,,,,,,,,,,,,,,,,,,,,,,,,,,,,,,,,,,,,,,,,,,,,,,,,,,,,,,,,,,,,,,,,,,,,,,,,,,,,,,,,,,,,,,,,,,,,,,,,,,,,
