startup.started,startup.stopped,Prolific ID*,date,expName,psychopyVersion,OS,frameRate,participant,study_id,session,stimpositions.started,stimpositions.stopped,hardcoded_stimulus_positions.thisRepN,hardcoded_stimulus_positions.thisTrialN,hardcoded_stimulus_positions.thisN,hardcoded_stimulus_positions.thisIndex,hardcoded_stimulus_positions.ran,StimulusPos,stimorientation.started,stimorientation.stopped,prac_stimorientation_import_loop.thisRepN,prac_stimorientation_import_loop.thisTrialN,prac_stimorientation_import_loop.thisN,prac_stimorientation_import_loop.thisIndex,prac_stimorientation_import_loop.ran,Stimorientation,welcome_instr.started,welcome_instr.stopped,key_resp.keys,key_resp.rt,key_resp.duration,response_steppedout_1.started,response_steppedout_1.stopped,key_resp_20.keys,key_resp_20.rt,key_resp_20.duration,response_steppedout_2.started,response_steppedout_2.stopped,key_resp_19.keys,key_resp_19.rt,key_resp_19.duration,stim_response_instr.started,stim_response_instr.stopped,key_resp_15.keys,key_resp_15.rt,key_resp_15.duration,direction_instr_2.started,direction_instr_2.stopped,key_resp_9.keys,key_resp_9.rt,key_resp_9.duration,instr_prac.started,instr_prac.stopped,key_resp_10.keys,key_resp_10.rt,key_resp_10.duration,Stim1_display_prac.started,Stim1_display_prac.stopped,Ecc,Circle1_ori,Circle2_ori,response_prac.started,similarity,response_time,response_prac.stopped,mouse_5.x,mouse_5.y,mouse_5.leftButton,mouse_5.midButton,mouse_5.rightButton,mouse_5.clicked_name,responseprac_feedback.started,responseprac_feedback.stopped,summary2_prac.started,summary2_prac.stopped,mouse_6.x,mouse_6.y,mouse_6.leftButton,mouse_6.midButton,mouse_6.rightButton,mouse_6.clicked_name,duringprac.thisRepN,duringprac.thisTrialN,duringprac.thisN,duringprac.thisIndex,duringprac.ran,begin.started,begin.stopped,key_resp_22.keys,key_resp_22.rt,key_resp_22.duration,Stim1_display.started,Stim1_display.stopped,circle1_ori,circle2_ori,circle1_SF,circle2_SF,response.started,response.stopped,mouse.x,mouse.y,mouse.leftButton,mouse.midButton,mouse.rightButton,mouse.clicked_name,trialnumber,double_pass.thisRepN,double_pass.thisTrialN,double_pass.thisN,double_pass.thisIndex,double_pass.ran,double_pass.order,main_trial.thisRepN,main_trial.thisTrialN,main_trial.thisN,main_trial.thisIndex,main_trial.ran,main_trial.order,Trial_Counter,Catch,Frequencies,response_2.started,response_2.stopped,mouse_2.x,mouse_2.y,mouse_2.leftButton,mouse_2.midButton,mouse_2.rightButton,mouse_2.clicked_name,special_trial.started,special_trial.stopped,catch_1.started,catch_1.stopped,mouse_3.x,mouse_3.y,mouse_3.leftButton,mouse_3.midButton,mouse_3.rightButton,catchresponse,catchnumber,response_time_catch,response_sum.started,response_sum.stopped,mouse_11.x,mouse_11.y,mouse_11.leftButton,mouse_11.midButton,mouse_11.rightButton,flip_presentation_sequence_for_double_pass.started,flip_presentation_sequence_for_double_pass.stopped,goodbye.started,goodbye.stopped,key_resp_3.keys,key_resp_3.rt,key_resp_3.duration
0.0008,0.0009,6458435bcc30319132bb5664,2024-02-22_13h26.10.520,kallum_motion_pilot,2023.2.2,Win32,166.6666667,6458435bcc30319132bb5664,65d6bb0e977760de756971f7,65d6bebcc7c0f830c49a8d90,,,,,,,,,,,,,,,,,,,,,,,,,,,,,,,,,,,,,,,,,,,,,,,,,,,,,,,,,,,,,,,,,,,,,,,,,,,,,,,,,,,,,,,,,,,,,,,,,,,,,,,,,,,,,,,,,,,,,,,,,,,,,,,,,,,,,,,,,,,,,,,,,
,,6458435bcc30319132bb5664,2024-02-22_13h26.10.520,kallum_motion_pilot,2023.2.2,Win32,166.6666667,6458435bcc30319132bb5664,65d6bb0e977760de756971f7,65d6bebcc7c0f830c49a8d90,0.0165,0.0166,0,0,0,99,1,sixeight,,,,,,,,,,,,,,,,,,,,,,,,,,,,,,,,,,,,,,,,,,,,,,,,,,,,,,,,,,,,,,,,,,,,,,,,,,,,,,,,,,,,,,,,,,,,,,,,,,,,,,,,,,,,,,,,,,,,,,,,,,,,,,,,,,,,,,,,,
,,6458435bcc30319132bb5664,2024-02-22_13h26.10.520,kallum_motion_pilot,2023.2.2,Win32,166.6666667,6458435bcc30319132bb5664,65d6bb0e977760de756971f7,65d6bebcc7c0f830c49a8d90,0.0167,0.0167,0,1,1,130,1,sixfive,,,,,,,,,,,,,,,,,,,,,,,,,,,,,,,,,,,,,,,,,,,,,,,,,,,,,,,,,,,,,,,,,,,,,,,,,,,,,,,,,,,,,,,,,,,,,,,,,,,,,,,,,,,,,,,,,,,,,,,,,,,,,,,,,,,,,,,,,
,,6458435bcc30319132bb5664,2024-02-22_13h26.10.520,kallum_motion_pilot,2023.2.2,Win32,166.6666667,6458435bcc30319132bb5664,65d6bb0e977760de756971f7,65d6bebcc7c0f830c49a8d90,0.0168,0.0168,0,2,2,22,1,fourtwo,,,,,,,,,,,,,,,,,,,,,,,,,,,,,,,,,,,,,,,,,,,,,,,,,,,,,,,,,,,,,,,,,,,,,,,,,,,,,,,,,,,,,,,,,,,,,,,,,,,,,,,,,,,,,,,,,,,,,,,,,,,,,,,,,,,,,,,,,
,,6458435bcc30319132bb5664,2024-02-22_13h26.10.520,kallum_motion_pilot,2023.2.2,Win32,166.6666667,6458435bcc30319132bb5664,65d6bb0e977760de756971f7,65d6bebcc7c0f830c49a8d90,0.0169,0.0169,0,3,3,69,1,threefour,,,,,,,,,,,,,,,,,,,,,,,,,,,,,,,,,,,,,,,,,,,,,,,,,,,,,,,,,,,,,,,,,,,,,,,,,,,,,,,,,,,,,,,,,,,,,,,,,,,,,,,,,,,,,,,,,,,,,,,,,,,,,,,,,,,,,,,,,
,,6458435bcc30319132bb5664,2024-02-22_13h26.10.520,kallum_motion_pilot,2023.2.2,Win32,166.6666667,6458435bcc30319132bb5664,65d6bb0e977760de756971f7,65d6bebcc7c0f830c49a8d90,0.017,0.017,0,4,4,138,1,sixfive,,,,,,,,,,,,,,,,,,,,,,,,,,,,,,,,,,,,,,,,,,,,,,,,,,,,,,,,,,,,,,,,,,,,,,,,,,,,,,,,,,,,,,,,,,,,,,,,,,,,,,,,,,,,,,,,,,,,,,,,,,,,,,,,,,,,,,,,,
,,6458435bcc30319132bb5664,2024-02-22_13h26.10.520,kallum_motion_pilot,2023.2.2,Win32,166.6666667,6458435bcc30319132bb5664,65d6bb0e977760de756971f7,65d6bebcc7c0f830c49a8d90,0.0171,0.0171,0,5,5,117,1,seveneight,,,,,,,,,,,,,,,,,,,,,,,,,,,,,,,,,,,,,,,,,,,,,,,,,,,,,,,,,,,,,,,,,,,,,,,,,,,,,,,,,,,,,,,,,,,,,,,,,,,,,,,,,,,,,,,,,,,,,,,,,,,,,,,,,,,,,,,,,
,,6458435bcc30319132bb5664,2024-02-22_13h26.10.520,kallum_motion_pilot,2023.2.2,Win32,166.6666667,6458435bcc30319132bb5664,65d6bb0e977760de756971f7,65d6bebcc7c0f830c49a8d90,0.0171,0.0171,0,6,6,10,1,twoone,,,,,,,,,,,,,,,,,,,,,,,,,,,,,,,,,,,,,,,,,,,,,,,,,,,,,,,,,,,,,,,,,,,,,,,,,,,,,,,,,,,,,,,,,,,,,,,,,,,,,,,,,,,,,,,,,,,,,,,,,,,,,,,,,,,,,,,,,
,,6458435bcc30319132bb5664,2024-02-22_13h26.10.520,kallum_motion_pilot,2023.2.2,Win32,166.6666667,6458435bcc30319132bb5664,65d6bb0e977760de756971f7,65d6bebcc7c0f830c49a8d90,0.0172,0.0172,0,7,7,72,1,onetwo,,,,,,,,,,,,,,,,,,,,,,,,,,,,,,,,,,,,,,,,,,,,,,,,,,,,,,,,,,,,,,,,,,,,,,,,,,,,,,,,,,,,,,,,,,,,,,,,,,,,,,,,,,,,,,,,,,,,,,,,,,,,,,,,,,,,,,,,,
,,6458435bcc30319132bb5664,2024-02-22_13h26.10.520,kallum_motion_pilot,2023.2.2,Win32,166.6666667,6458435bcc30319132bb5664,65d6bb0e977760de756971f7,65d6bebcc7c0f830c49a8d90,0.0173,0.0173,0,8,8,139,1,sixeight,,,,,,,,,,,,,,,,,,,,,,,,,,,,,,,,,,,,,,,,,,,,,,,,,,,,,,,,,,,,,,,,,,,,,,,,,,,,,,,,,,,,,,,,,,,,,,,,,,,,,,,,,,,,,,,,,,,,,,,,,,,,,,,,,,,,,,,,,
,,6458435bcc30319132bb5664,2024-02-22_13h26.10.520,kallum_motion_pilot,2023.2.2,Win32,166.6666667,6458435bcc30319132bb5664,65d6bb0e977760de756971f7,65d6bebcc7c0f830c49a8d90,0.0174,0.0174,0,9,9,108,1,sevenfive,,,,,,,,,,,,,,,,,,,,,,,,,,,,,,,,,,,,,,,,,,,,,,,,,,,,,,,,,,,,,,,,,,,,,,,,,,,,,,,,,,,,,,,,,,,,,,,,,,,,,,,,,,,,,,,,,,,,,,,,,,,,,,,,,,,,,,,,,
,,6458435bcc30319132bb5664,2024-02-22_13h26.10.520,kallum_motion_pilot,2023.2.2,Win32,166.6666667,6458435bcc30319132bb5664,65d6bb0e977760de756971f7,65d6bebcc7c0f830c49a8d90,0.0175,0.0175,0,10,10,53,1,threefour,,,,,,,,,,,,,,,,,,,,,,,,,,,,,,,,,,,,,,,,,,,,,,,,,,,,,,,,,,,,,,,,,,,,,,,,,,,,,,,,,,,,,,,,,,,,,,,,,,,,,,,,,,,,,,,,,,,,,,,,,,,,,,,,,,,,,,,,,
,,6458435bcc30319132bb5664,2024-02-22_13h26.10.520,kallum_motion_pilot,2023.2.2,Win32,166.6666667,6458435bcc30319132bb5664,65d6bb0e977760de756971f7,65d6bebcc7c0f830c49a8d90,0.0176,0.0176,0,11,11,93,1,seveneight,,,,,,,,,,,,,,,,,,,,,,,,,,,,,,,,,,,,,,,,,,,,,,,,,,,,,,,,,,,,,,,,,,,,,,,,,,,,,,,,,,,,,,,,,,,,,,,,,,,,,,,,,,,,,,,,,,,,,,,,,,,,,,,,,,,,,,,,,
,,6458435bcc30319132bb5664,2024-02-22_13h26.10.520,kallum_motion_pilot,2023.2.2,Win32,166.6666667,6458435bcc30319132bb5664,65d6bb0e977760de756971f7,65d6bebcc7c0f830c49a8d90,0.0176,0.0176,0,12,12,51,1,twofour,,,,,,,,,,,,,,,,,,,,,,,,,,,,,,,,,,,,,,,,,,,,,,,,,,,,,,,,,,,,,,,,,,,,,,,,,,,,,,,,,,,,,,,,,,,,,,,,,,,,,,,,,,,,,,,,,,,,,,,,,,,,,,,,,,,,,,,,,
,,6458435bcc30319132bb5664,2024-02-22_13h26.10.520,kallum_motion_pilot,2023.2.2,Win32,166.6666667,6458435bcc30319132bb5664,65d6bb0e977760de756971f7,65d6bebcc7c0f830c49a8d90,0.0176,0.0177,0,13,13,24,1,onetwo,,,,,,,,,,,,,,,,,,,,,,,,,,,,,,,,,,,,,,,,,,,,,,,,,,,,,,,,,,,,,,,,,,,,,,,,,,,,,,,,,,,,,,,,,,,,,,,,,,,,,,,,,,,,,,,,,,,,,,,,,,,,,,,,,,,,,,,,,
,,6458435bcc30319132bb5664,2024-02-22_13h26.10.520,kallum_motion_pilot,2023.2.2,Win32,166.6666667,6458435bcc30319132bb5664,65d6bb0e977760de756971f7,65d6bebcc7c0f830c49a8d90,0.0178,0.0178,0,14,14,8,1,onetwo,,,,,,,,,,,,,,,,,,,,,,,,,,,,,,,,,,,,,,,,,,,,,,,,,,,,,,,,,,,,,,,,,,,,,,,,,,,,,,,,,,,,,,,,,,,,,,,,,,,,,,,,,,,,,,,,,,,,,,,,,,,,,,,,,,,,,,,,,
,,6458435bcc30319132bb5664,2024-02-22_13h26.10.520,kallum_motion_pilot,2023.2.2,Win32,166.6666667,6458435bcc30319132bb5664,65d6bb0e977760de756971f7,65d6bebcc7c0f830c49a8d90,0.0178,0.0178,0,15,15,134,1,eightsix,,,,,,,,,,,,,,,,,,,,,,,,,,,,,,,,,,,,,,,,,,,,,,,,,,,,,,,,,,,,,,,,,,,,,,,,,,,,,,,,,,,,,,,,,,,,,,,,,,,,,,,,,,,,,,,,,,,,,,,,,,,,,,,,,,,,,,,,,
,,6458435bcc30319132bb5664,2024-02-22_13h26.10.520,kallum_motion_pilot,2023.2.2,Win32,166.6666667,6458435bcc30319132bb5664,65d6bb0e977760de756971f7,65d6bebcc7c0f830c49a8d90,0.0178,0.0178,0,16,16,153,1,fiveseven,,,,,,,,,,,,,,,,,,,,,,,,,,,,,,,,,,,,,,,,,,,,,,,,,,,,,,,,,,,,,,,,,,,,,,,,,,,,,,,,,,,,,,,,,,,,,,,,,,,,,,,,,,,,,,,,,,,,,,,,,,,,,,,,,,,,,,,,,
,,6458435bcc30319132bb5664,2024-02-22_13h26.10.520,kallum_motion_pilot,2023.2.2,Win32,166.6666667,6458435bcc30319132bb5664,65d6bb0e977760de756971f7,65d6bebcc7c0f830c49a8d90,0.0179,0.0179,0,17,17,14,1,fourtwo,,,,,,,,,,,,,,,,,,,,,,,,,,,,,,,,,,,,,,,,,,,,,,,,,,,,,,,,,,,,,,,,,,,,,,,,,,,,,,,,,,,,,,,,,,,,,,,,,,,,,,,,,,,,,,,,,,,,,,,,,,,,,,,,,,,,,,,,,
,,6458435bcc30319132bb5664,2024-02-22_13h26.10.520,kallum_motion_pilot,2023.2.2,Win32,166.6666667,6458435bcc30319132bb5664,65d6bb0e977760de756971f7,65d6bebcc7c0f830c49a8d90,0.018,0.018,0,18,18,50,1,twoone,,,,,,,,,,,,,,,,,,,,,,,,,,,,,,,,,,,,,,,,,,,,,,,,,,,,,,,,,,,,,,,,,,,,,,,,,,,,,,,,,,,,,,,,,,,,,,,,,,,,,,,,,,,,,,,,,,,,,,,,,,,,,,,,,,,,,,,,,
,,6458435bcc30319132bb5664,2024-02-22_13h26.10.520,kallum_motion_pilot,2023.2.2,Win32,166.6666667,6458435bcc30319132bb5664,65d6bb0e977760de756971f7,65d6bebcc7c0f830c49a8d90,0.018,0.018,0,19,19,48,1,onetwo,,,,,,,,,,,,,,,,,,,,,,,,,,,,,,,,,,,,,,,,,,,,,,,,,,,,,,,,,,,,,,,,,,,,,,,,,,,,,,,,,,,,,,,,,,,,,,,,,,,,,,,,,,,,,,,,,,,,,,,,,,,,,,,,,,,,,,,,,
,,6458435bcc30319132bb5664,2024-02-22_13h26.10.520,kallum_motion_pilot,2023.2.2,Win32,166.6666667,6458435bcc30319132bb5664,65d6bb0e977760de756971f7,65d6bebcc7c0f830c49a8d90,0.0181,0.0181,0,20,20,119,1,eightseven,,,,,,,,,,,,,,,,,,,,,,,,,,,,,,,,,,,,,,,,,,,,,,,,,,,,,,,,,,,,,,,,,,,,,,,,,,,,,,,,,,,,,,,,,,,,,,,,,,,,,,,,,,,,,,,,,,,,,,,,,,,,,,,,,,,,,,,,,
,,6458435bcc30319132bb5664,2024-02-22_13h26.10.520,kallum_motion_pilot,2023.2.2,Win32,166.6666667,6458435bcc30319132bb5664,65d6bb0e977760de756971f7,65d6bebcc7c0f830c49a8d90,0.0182,0.0182,0,21,21,15,1,fourthree,,,,,,,,,,,,,,,,,,,,,,,,,,,,,,,,,,,,,,,,,,,,,,,,,,,,,,,,,,,,,,,,,,,,,,,,,,,,,,,,,,,,,,,,,,,,,,,,,,,,,,,,,,,,,,,,,,,,,,,,,,,,,,,,,,,,,,,,,
,,6458435bcc30319132bb5664,2024-02-22_13h26.10.520,kallum_motion_pilot,2023.2.2,Win32,166.6666667,6458435bcc30319132bb5664,65d6bb0e977760de756971f7,65d6bebcc7c0f830c49a8d90,0.0182,0.0182,0,22,22,146,1,sixfive,,,,,,,,,,,,,,,,,,,,,,,,,,,,,,,,,,,,,,,,,,,,,,,,,,,,,,,,,,,,,,,,,,,,,,,,,,,,,,,,,,,,,,,,,,,,,,,,,,,,,,,,,,,,,,,,,,,,,,,,,,,,,,,,,,,,,,,,,
,,6458435bcc30319132bb5664,2024-02-22_13h26.10.520,kallum_motion_pilot,2023.2.2,Win32,166.6666667,6458435bcc30319132bb5664,65d6bb0e977760de756971f7,65d6bebcc7c0f830c49a8d90,0.0183,0.0183,0,23,23,45,1,threefour,,,,,,,,,,,,,,,,,,,,,,,,,,,,,,,,,,,,,,,,,,,,,,,,,,,,,,,,,,,,,,,,,,,,,,,,,,,,,,,,,,,,,,,,,,,,,,,,,,,,,,,,,,,,,,,,,,,,,,,,,,,,,,,,,,,,,,,,,
,,6458435bcc30319132bb5664,2024-02-22_13h26.10.520,kallum_motion_pilot,2023.2.2,Win32,166.6666667,6458435bcc30319132bb5664,65d6bb0e977760de756971f7,65d6bebcc7c0f830c49a8d90,0.0183,0.0183,0,24,24,37,1,threefour,,,,,,,,,,,,,,,,,,,,,,,,,,,,,,,,,,,,,,,,,,,,,,,,,,,,,,,,,,,,,,,,,,,,,,,,,,,,,,,,,,,,,,,,,,,,,,,,,,,,,,,,,,,,,,,,,,,,,,,,,,,,,,,,,,,,,,,,,
,,6458435bcc30319132bb5664,2024-02-22_13h26.10.520,kallum_motion_pilot,2023.2.2,Win32,166.6666667,6458435bcc30319132bb5664,65d6bb0e977760de756971f7,65d6bebcc7c0f830c49a8d90,0.0185,0.0185,0,25,25,55,1,fourthree,,,,,,,,,,,,,,,,,,,,,,,,,,,,,,,,,,,,,,,,,,,,,,,,,,,,,,,,,,,,,,,,,,,,,,,,,,,,,,,,,,,,,,,,,,,,,,,,,,,,,,,,,,,,,,,,,,,,,,,,,,,,,,,,,,,,,,,,,
,,6458435bcc30319132bb5664,2024-02-22_13h26.10.520,kallum_motion_pilot,2023.2.2,Win32,166.6666667,6458435bcc30319132bb5664,65d6bb0e977760de756971f7,65d6bebcc7c0f830c49a8d90,0.0186,0.0186,0,26,26,30,1,fourtwo,,,,,,,,,,,,,,,,,,,,,,,,,,,,,,,,,,,,,,,,,,,,,,,,,,,,,,,,,,,,,,,,,,,,,,,,,,,,,,,,,,,,,,,,,,,,,,,,,,,,,,,,,,,,,,,,,,,,,,,,,,,,,,,,,,,,,,,,,
,,6458435bcc30319132bb5664,2024-02-22_13h26.10.520,kallum_motion_pilot,2023.2.2,Win32,166.6666667,6458435bcc30319132bb5664,65d6bb0e977760de756971f7,65d6bebcc7c0f830c49a8d90,0.0187,0.0187,0,27,27,116,1,sevenfive,,,,,,,,,,,,,,,,,,,,,,,,,,,,,,,,,,,,,,,,,,,,,,,,,,,,,,,,,,,,,,,,,,,,,,,,,,,,,,,,,,,,,,,,,,,,,,,,,,,,,,,,,,,,,,,,,,,,,,,,,,,,,,,,,,,,,,,,,
,,6458435bcc30319132bb5664,2024-02-22_13h26.10.520,kallum_motion_pilot,2023.2.2,Win32,166.6666667,6458435bcc30319132bb5664,65d6bb0e977760de756971f7,65d6bebcc7c0f830c49a8d90,0.0187,0.0188,0,28,28,39,1,fourthree,,,,,,,,,,,,,,,,,,,,,,,,,,,,,,,,,,,,,,,,,,,,,,,,,,,,,,,,,,,,,,,,,,,,,,,,,,,,,,,,,,,,,,,,,,,,,,,,,,,,,,,,,,,,,,,,,,,,,,,,,,,,,,,,,,,,,,,,,
,,6458435bcc30319132bb5664,2024-02-22_13h26.10.520,kallum_motion_pilot,2023.2.2,Win32,166.6666667,6458435bcc30319132bb5664,65d6bb0e977760de756971f7,65d6bebcc7c0f830c49a8d90,0.0189,0.0189,0,29,29,17,1,onethree,,,,,,,,,,,,,,,,,,,,,,,,,,,,,,,,,,,,,,,,,,,,,,,,,,,,,,,,,,,,,,,,,,,,,,,,,,,,,,,,,,,,,,,,,,,,,,,,,,,,,,,,,,,,,,,,,,,,,,,,,,,,,,,,,,,,,,,,,
,,6458435bcc30319132bb5664,2024-02-22_13h26.10.520,kallum_motion_pilot,2023.2.2,Win32,166.6666667,6458435bcc30319132bb5664,65d6bb0e977760de756971f7,65d6bebcc7c0f830c49a8d90,0.0189,0.0189,0,30,30,136,1,fivesix,,,,,,,,,,,,,,,,,,,,,,,,,,,,,,,,,,,,,,,,,,,,,,,,,,,,,,,,,,,,,,,,,,,,,,,,,,,,,,,,,,,,,,,,,,,,,,,,,,,,,,,,,,,,,,,,,,,,,,,,,,,,,,,,,,,,,,,,,
,,6458435bcc30319132bb5664,2024-02-22_13h26.10.520,kallum_motion_pilot,2023.2.2,Win32,166.6666667,6458435bcc30319132bb5664,65d6bb0e977760de756971f7,65d6bebcc7c0f830c49a8d90,0.019,0.019,0,31,31,123,1,sixeight,,,,,,,,,,,,,,,,,,,,,,,,,,,,,,,,,,,,,,,,,,,,,,,,,,,,,,,,,,,,,,,,,,,,,,,,,,,,,,,,,,,,,,,,,,,,,,,,,,,,,,,,,,,,,,,,,,,,,,,,,,,,,,,,,,,,,,,,,
,,6458435bcc30319132bb5664,2024-02-22_13h26.10.520,kallum_motion_pilot,2023.2.2,Win32,166.6666667,6458435bcc30319132bb5664,65d6bb0e977760de756971f7,65d6bebcc7c0f830c49a8d90,0.019,0.019,0,32,32,79,1,eightseven,,,,,,,,,,,,,,,,,,,,,,,,,,,,,,,,,,,,,,,,,,,,,,,,,,,,,,,,,,,,,,,,,,,,,,,,,,,,,,,,,,,,,,,,,,,,,,,,,,,,,,,,,,,,,,,,,,,,,,,,,,,,,,,,,,,,,,,,,
,,6458435bcc30319132bb5664,2024-02-22_13h26.10.520,kallum_motion_pilot,2023.2.2,Win32,166.6666667,6458435bcc30319132bb5664,65d6bb0e977760de756971f7,65d6bebcc7c0f830c49a8d90,0.0191,0.0191,0,33,33,64,1,onetwo,,,,,,,,,,,,,,,,,,,,,,,,,,,,,,,,,,,,,,,,,,,,,,,,,,,,,,,,,,,,,,,,,,,,,,,,,,,,,,,,,,,,,,,,,,,,,,,,,,,,,,,,,,,,,,,,,,,,,,,,,,,,,,,,,,,,,,,,,
,,6458435bcc30319132bb5664,2024-02-22_13h26.10.520,kallum_motion_pilot,2023.2.2,Win32,166.6666667,6458435bcc30319132bb5664,65d6bb0e977760de756971f7,65d6bebcc7c0f830c49a8d90,0.0192,0.0192,0,34,34,12,1,threeone,,,,,,,,,,,,,,,,,,,,,,,,,,,,,,,,,,,,,,,,,,,,,,,,,,,,,,,,,,,,,,,,,,,,,,,,,,,,,,,,,,,,,,,,,,,,,,,,,,,,,,,,,,,,,,,,,,,,,,,,,,,,,,,,,,,,,,,,,
,,6458435bcc30319132bb5664,2024-02-22_13h26.10.520,kallum_motion_pilot,2023.2.2,Win32,166.6666667,6458435bcc30319132bb5664,65d6bb0e977760de756971f7,65d6bebcc7c0f830c49a8d90,0.0194,0.0194,0,35,35,44,1,threeone,,,,,,,,,,,,,,,,,,,,,,,,,,,,,,,,,,,,,,,,,,,,,,,,,,,,,,,,,,,,,,,,,,,,,,,,,,,,,,,,,,,,,,,,,,,,,,,,,,,,,,,,,,,,,,,,,,,,,,,,,,,,,,,,,,,,,,,,,
,,6458435bcc30319132bb5664,2024-02-22_13h26.10.520,kallum_motion_pilot,2023.2.2,Win32,166.6666667,6458435bcc30319132bb5664,65d6bb0e977760de756971f7,65d6bebcc7c0f830c49a8d90,0.0195,0.0195,0,36,36,26,1,twoone,,,,,,,,,,,,,,,,,,,,,,,,,,,,,,,,,,,,,,,,,,,,,,,,,,,,,,,,,,,,,,,,,,,,,,,,,,,,,,,,,,,,,,,,,,,,,,,,,,,,,,,,,,,,,,,,,,,,,,,,,,,,,,,,,,,,,,,,,
,,6458435bcc30319132bb5664,2024-02-22_13h26.10.520,kallum_motion_pilot,2023.2.2,Win32,166.6666667,6458435bcc30319132bb5664,65d6bb0e977760de756971f7,65d6bebcc7c0f830c49a8d90,0.0196,0.0196,0,37,37,161,1,fiveseven,,,,,,,,,,,,,,,,,,,,,,,,,,,,,,,,,,,,,,,,,,,,,,,,,,,,,,,,,,,,,,,,,,,,,,,,,,,,,,,,,,,,,,,,,,,,,,,,,,,,,,,,,,,,,,,,,,,,,,,,,,,,,,,,,,,,,,,,,
,,6458435bcc30319132bb5664,2024-02-22_13h26.10.520,kallum_motion_pilot,2023.2.2,Win32,166.6666667,6458435bcc30319132bb5664,65d6bb0e977760de756971f7,65d6bebcc7c0f830c49a8d90,0.0196,0.0197,0,38,38,73,1,onethree,,,,,,,,,,,,,,,,,,,,,,,,,,,,,,,,,,,,,,,,,,,,,,,,,,,,,,,,,,,,,,,,,,,,,,,,,,,,,,,,,,,,,,,,,,,,,,,,,,,,,,,,,,,,,,,,,,,,,,,,,,,,,,,,,,,,,,,,,
,,6458435bcc30319132bb5664,2024-02-22_13h26.10.520,kallum_motion_pilot,2023.2.2,Win32,166.6666667,6458435bcc30319132bb5664,65d6bb0e977760de756971f7,65d6bebcc7c0f830c49a8d90,0.0198,0.0198,0,39,39,40,1,onetwo,,,,,,,,,,,,,,,,,,,,,,,,,,,,,,,,,,,,,,,,,,,,,,,,,,,,,,,,,,,,,,,,,,,,,,,,,,,,,,,,,,,,,,,,,,,,,,,,,,,,,,,,,,,,,,,,,,,,,,,,,,,,,,,,,,,,,,,,,
,,6458435bcc30319132bb5664,2024-02-22_13h26.10.520,kallum_motion_pilot,2023.2.2,Win32,166.6666667,6458435bcc30319132bb5664,65d6bb0e977760de756971f7,65d6bebcc7c0f830c49a8d90,0.0199,0.0199,0,40,40,102,1,eightsix,,,,,,,,,,,,,,,,,,,,,,,,,,,,,,,,,,,,,,,,,,,,,,,,,,,,,,,,,,,,,,,,,,,,,,,,,,,,,,,,,,,,,,,,,,,,,,,,,,,,,,,,,,,,,,,,,,,,,,,,,,,,,,,,,,,,,,,,,
,,6458435bcc30319132bb5664,2024-02-22_13h26.10.520,kallum_motion_pilot,2023.2.2,Win32,166.6666667,6458435bcc30319132bb5664,65d6bb0e977760de756971f7,65d6bebcc7c0f830c49a8d90,0.0199,0.0199,0,41,41,63,1,fourthree,,,,,,,,,,,,,,,,,,,,,,,,,,,,,,,,,,,,,,,,,,,,,,,,,,,,,,,,,,,,,,,,,,,,,,,,,,,,,,,,,,,,,,,,,,,,,,,,,,,,,,,,,,,,,,,,,,,,,,,,,,,,,,,,,,,,,,,,,
,,6458435bcc30319132bb5664,2024-02-22_13h26.10.520,kallum_motion_pilot,2023.2.2,Win32,166.6666667,6458435bcc30319132bb5664,65d6bb0e977760de756971f7,65d6bebcc7c0f830c49a8d90,0.02,0.02,0,42,42,105,1,fiveseven,,,,,,,,,,,,,,,,,,,,,,,,,,,,,,,,,,,,,,,,,,,,,,,,,,,,,,,,,,,,,,,,,,,,,,,,,,,,,,,,,,,,,,,,,,,,,,,,,,,,,,,,,,,,,,,,,,,,,,,,,,,,,,,,,,,,,,,,,
,,6458435bcc30319132bb5664,2024-02-22_13h26.10.520,kallum_motion_pilot,2023.2.2,Win32,166.6666667,6458435bcc30319132bb5664,65d6bb0e977760de756971f7,65d6bebcc7c0f830c49a8d90,0.0201,0.0201,0,43,43,76,1,threeone,,,,,,,,,,,,,,,,,,,,,,,,,,,,,,,,,,,,,,,,,,,,,,,,,,,,,,,,,,,,,,,,,,,,,,,,,,,,,,,,,,,,,,,,,,,,,,,,,,,,,,,,,,,,,,,,,,,,,,,,,,,,,,,,,,,,,,,,,
,,6458435bcc30319132bb5664,2024-02-22_13h26.10.520,kallum_motion_pilot,2023.2.2,Win32,166.6666667,6458435bcc30319132bb5664,65d6bb0e977760de756971f7,65d6bebcc7c0f830c49a8d90,0.0201,0.0202,0,44,44,2,1,twoone,,,,,,,,,,,,,,,,,,,,,,,,,,,,,,,,,,,,,,,,,,,,,,,,,,,,,,,,,,,,,,,,,,,,,,,,,,,,,,,,,,,,,,,,,,,,,,,,,,,,,,,,,,,,,,,,,,,,,,,,,,,,,,,,,,,,,,,,,
,,6458435bcc30319132bb5664,2024-02-22_13h26.10.520,kallum_motion_pilot,2023.2.2,Win32,166.6666667,6458435bcc30319132bb5664,65d6bb0e977760de756971f7,65d6bebcc7c0f830c49a8d90,0.0202,0.0202,0,45,45,110,1,eightsix,,,,,,,,,,,,,,,,,,,,,,,,,,,,,,,,,,,,,,,,,,,,,,,,,,,,,,,,,,,,,,,,,,,,,,,,,,,,,,,,,,,,,,,,,,,,,,,,,,,,,,,,,,,,,,,,,,,,,,,,,,,,,,,,,,,,,,,,,
,,6458435bcc30319132bb5664,2024-02-22_13h26.10.520,kallum_motion_pilot,2023.2.2,Win32,166.6666667,6458435bcc30319132bb5664,65d6bb0e977760de756971f7,65d6bebcc7c0f830c49a8d90,0.0202,0.0202,0,46,46,42,1,twoone,,,,,,,,,,,,,,,,,,,,,,,,,,,,,,,,,,,,,,,,,,,,,,,,,,,,,,,,,,,,,,,,,,,,,,,,,,,,,,,,,,,,,,,,,,,,,,,,,,,,,,,,,,,,,,,,,,,,,,,,,,,,,,,,,,,,,,,,,
,,6458435bcc30319132bb5664,2024-02-22_13h26.10.520,kallum_motion_pilot,2023.2.2,Win32,166.6666667,6458435bcc30319132bb5664,65d6bb0e977760de756971f7,65d6bebcc7c0f830c49a8d90,0.0203,0.0204,0,47,47,0,1,onetwo,,,,,,,,,,,,,,,,,,,,,,,,,,,,,,,,,,,,,,,,,,,,,,,,,,,,,,,,,,,,,,,,,,,,,,,,,,,,,,,,,,,,,,,,,,,,,,,,,,,,,,,,,,,,,,,,,,,,,,,,,,,,,,,,,,,,,,,,,
,,6458435bcc30319132bb5664,2024-02-22_13h26.10.520,kallum_motion_pilot,2023.2.2,Win32,166.6666667,6458435bcc30319132bb5664,65d6bb0e977760de756971f7,65d6bebcc7c0f830c49a8d90,0.0204,0.0204,0,48,48,100,1,sevenfive,,,,,,,,,,,,,,,,,,,,,,,,,,,,,,,,,,,,,,,,,,,,,,,,,,,,,,,,,,,,,,,,,,,,,,,,,,,,,,,,,,,,,,,,,,,,,,,,,,,,,,,,,,,,,,,,,,,,,,,,,,,,,,,,,,,,,,,,,
,,6458435bcc30319132bb5664,2024-02-22_13h26.10.520,kallum_motion_pilot,2023.2.2,Win32,166.6666667,6458435bcc30319132bb5664,65d6bb0e977760de756971f7,65d6bebcc7c0f830c49a8d90,0.0204,0.0204,0,49,49,52,1,threeone,,,,,,,,,,,,,,,,,,,,,,,,,,,,,,,,,,,,,,,,,,,,,,,,,,,,,,,,,,,,,,,,,,,,,,,,,,,,,,,,,,,,,,,,,,,,,,,,,,,,,,,,,,,,,,,,,,,,,,,,,,,,,,,,,,,,,,,,,
,,6458435bcc30319132bb5664,2024-02-22_13h26.10.520,kallum_motion_pilot,2023.2.2,Win32,166.6666667,6458435bcc30319132bb5664,65d6bb0e977760de756971f7,65d6bebcc7c0f830c49a8d90,0.0205,0.0205,0,50,50,111,1,eightseven,,,,,,,,,,,,,,,,,,,,,,,,,,,,,,,,,,,,,,,,,,,,,,,,,,,,,,,,,,,,,,,,,,,,,,,,,,,,,,,,,,,,,,,,,,,,,,,,,,,,,,,,,,,,,,,,,,,,,,,,,,,,,,,,,,,,,,,,,
,,6458435bcc30319132bb5664,2024-02-22_13h26.10.520,kallum_motion_pilot,2023.2.2,Win32,166.6666667,6458435bcc30319132bb5664,65d6bb0e977760de756971f7,65d6bebcc7c0f830c49a8d90,0.0205,0.0206,0,51,51,114,1,sixfive,,,,,,,,,,,,,,,,,,,,,,,,,,,,,,,,,,,,,,,,,,,,,,,,,,,,,,,,,,,,,,,,,,,,,,,,,,,,,,,,,,,,,,,,,,,,,,,,,,,,,,,,,,,,,,,,,,,,,,,,,,,,,,,,,,,,,,,,,
,,6458435bcc30319132bb5664,2024-02-22_13h26.10.520,kallum_motion_pilot,2023.2.2,Win32,166.6666667,6458435bcc30319132bb5664,65d6bb0e977760de756971f7,65d6bebcc7c0f830c49a8d90,0.0206,0.0206,0,52,52,147,1,sixeight,,,,,,,,,,,,,,,,,,,,,,,,,,,,,,,,,,,,,,,,,,,,,,,,,,,,,,,,,,,,,,,,,,,,,,,,,,,,,,,,,,,,,,,,,,,,,,,,,,,,,,,,,,,,,,,,,,,,,,,,,,,,,,,,,,,,,,,,,
,,6458435bcc30319132bb5664,2024-02-22_13h26.10.520,kallum_motion_pilot,2023.2.2,Win32,166.6666667,6458435bcc30319132bb5664,65d6bb0e977760de756971f7,65d6bebcc7c0f830c49a8d90,0.0207,0.0207,0,53,53,131,1,sixeight,,,,,,,,,,,,,,,,,,,,,,,,,,,,,,,,,,,,,,,,,,,,,,,,,,,,,,,,,,,,,,,,,,,,,,,,,,,,,,,,,,,,,,,,,,,,,,,,,,,,,,,,,,,,,,,,,,,,,,,,,,,,,,,,,,,,,,,,,
,,6458435bcc30319132bb5664,2024-02-22_13h26.10.520,kallum_motion_pilot,2023.2.2,Win32,166.6666667,6458435bcc30319132bb5664,65d6bb0e977760de756971f7,65d6bebcc7c0f830c49a8d90,0.0208,0.0208,0,54,54,67,1,twofour,,,,,,,,,,,,,,,,,,,,,,,,,,,,,,,,,,,,,,,,,,,,,,,,,,,,,,,,,,,,,,,,,,,,,,,,,,,,,,,,,,,,,,,,,,,,,,,,,,,,,,,,,,,,,,,,,,,,,,,,,,,,,,,,,,,,,,,,,
,,6458435bcc30319132bb5664,2024-02-22_13h26.10.520,kallum_motion_pilot,2023.2.2,Win32,166.6666667,6458435bcc30319132bb5664,65d6bb0e977760de756971f7,65d6bebcc7c0f830c49a8d90,0.0209,0.0209,0,55,55,78,1,fourtwo,,,,,,,,,,,,,,,,,,,,,,,,,,,,,,,,,,,,,,,,,,,,,,,,,,,,,,,,,,,,,,,,,,,,,,,,,,,,,,,,,,,,,,,,,,,,,,,,,,,,,,,,,,,,,,,,,,,,,,,,,,,,,,,,,,,,,,,,,
,,6458435bcc30319132bb5664,2024-02-22_13h26.10.520,kallum_motion_pilot,2023.2.2,Win32,166.6666667,6458435bcc30319132bb5664,65d6bb0e977760de756971f7,65d6bebcc7c0f830c49a8d90,0.0209,0.0209,0,56,56,86,1,eightsix,,,,,,,,,,,,,,,,,,,,,,,,,,,,,,,,,,,,,,,,,,,,,,,,,,,,,,,,,,,,,,,,,,,,,,,,,,,,,,,,,,,,,,,,,,,,,,,,,,,,,,,,,,,,,,,,,,,,,,,,,,,,,,,,,,,,,,,,,
,,6458435bcc30319132bb5664,2024-02-22_13h26.10.520,kallum_motion_pilot,2023.2.2,Win32,166.6666667,6458435bcc30319132bb5664,65d6bb0e977760de756971f7,65d6bebcc7c0f830c49a8d90,0.021,0.021,0,57,57,155,1,sixeight,,,,,,,,,,,,,,,,,,,,,,,,,,,,,,,,,,,,,,,,,,,,,,,,,,,,,,,,,,,,,,,,,,,,,,,,,,,,,,,,,,,,,,,,,,,,,,,,,,,,,,,,,,,,,,,,,,,,,,,,,,,,,,,,,,,,,,,,,
,,6458435bcc30319132bb5664,2024-02-22_13h26.10.520,kallum_motion_pilot,2023.2.2,Win32,166.6666667,6458435bcc30319132bb5664,65d6bb0e977760de756971f7,65d6bebcc7c0f830c49a8d90,0.021,0.0211,0,58,58,143,1,eightseven,,,,,,,,,,,,,,,,,,,,,,,,,,,,,,,,,,,,,,,,,,,,,,,,,,,,,,,,,,,,,,,,,,,,,,,,,,,,,,,,,,,,,,,,,,,,,,,,,,,,,,,,,,,,,,,,,,,,,,,,,,,,,,,,,,,,,,,,,
,,6458435bcc30319132bb5664,2024-02-22_13h26.10.520,kallum_motion_pilot,2023.2.2,Win32,166.6666667,6458435bcc30319132bb5664,65d6bb0e977760de756971f7,65d6bebcc7c0f830c49a8d90,0.0212,0.0212,0,59,59,160,1,fivesix,,,,,,,,,,,,,,,,,,,,,,,,,,,,,,,,,,,,,,,,,,,,,,,,,,,,,,,,,,,,,,,,,,,,,,,,,,,,,,,,,,,,,,,,,,,,,,,,,,,,,,,,,,,,,,,,,,,,,,,,,,,,,,,,,,,,,,,,,
,,6458435bcc30319132bb5664,2024-02-22_13h26.10.520,kallum_motion_pilot,2023.2.2,Win32,166.6666667,6458435bcc30319132bb5664,65d6bb0e977760de756971f7,65d6bebcc7c0f830c49a8d90,0.0212,0.0212,0,60,60,128,1,fivesix,,,,,,,,,,,,,,,,,,,,,,,,,,,,,,,,,,,,,,,,,,,,,,,,,,,,,,,,,,,,,,,,,,,,,,,,,,,,,,,,,,,,,,,,,,,,,,,,,,,,,,,,,,,,,,,,,,,,,,,,,,,,,,,,,,,,,,,,,
,,6458435bcc30319132bb5664,2024-02-22_13h26.10.520,kallum_motion_pilot,2023.2.2,Win32,166.6666667,6458435bcc30319132bb5664,65d6bb0e977760de756971f7,65d6bebcc7c0f830c49a8d90,0.0213,0.0213,0,61,61,94,1,eightsix,,,,,,,,,,,,,,,,,,,,,,,,,,,,,,,,,,,,,,,,,,,,,,,,,,,,,,,,,,,,,,,,,,,,,,,,,,,,,,,,,,,,,,,,,,,,,,,,,,,,,,,,,,,,,,,,,,,,,,,,,,,,,,,,,,,,,,,,,
,,6458435bcc30319132bb5664,2024-02-22_13h26.10.520,kallum_motion_pilot,2023.2.2,Win32,166.6666667,6458435bcc30319132bb5664,65d6bb0e977760de756971f7,65d6bebcc7c0f830c49a8d90,0.0213,0.0214,0,62,62,80,1,fivesix,,,,,,,,,,,,,,,,,,,,,,,,,,,,,,,,,,,,,,,,,,,,,,,,,,,,,,,,,,,,,,,,,,,,,,,,,,,,,,,,,,,,,,,,,,,,,,,,,,,,,,,,,,,,,,,,,,,,,,,,,,,,,,,,,,,,,,,,,
,,6458435bcc30319132bb5664,2024-02-22_13h26.10.520,kallum_motion_pilot,2023.2.2,Win32,166.6666667,6458435bcc30319132bb5664,65d6bb0e977760de756971f7,65d6bebcc7c0f830c49a8d90,0.0214,0.0214,0,63,63,31,1,fourthree,,,,,,,,,,,,,,,,,,,,,,,,,,,,,,,,,,,,,,,,,,,,,,,,,,,,,,,,,,,,,,,,,,,,,,,,,,,,,,,,,,,,,,,,,,,,,,,,,,,,,,,,,,,,,,,,,,,,,,,,,,,,,,,,,,,,,,,,,
,,6458435bcc30319132bb5664,2024-02-22_13h26.10.520,kallum_motion_pilot,2023.2.2,Win32,166.6666667,6458435bcc30319132bb5664,65d6bb0e977760de756971f7,65d6bebcc7c0f830c49a8d90,0.0215,0.0216,0,64,64,57,1,onethree,,,,,,,,,,,,,,,,,,,,,,,,,,,,,,,,,,,,,,,,,,,,,,,,,,,,,,,,,,,,,,,,,,,,,,,,,,,,,,,,,,,,,,,,,,,,,,,,,,,,,,,,,,,,,,,,,,,,,,,,,,,,,,,,,,,,,,,,,
,,6458435bcc30319132bb5664,2024-02-22_13h26.10.520,kallum_motion_pilot,2023.2.2,Win32,166.6666667,6458435bcc30319132bb5664,65d6bb0e977760de756971f7,65d6bebcc7c0f830c49a8d90,0.0216,0.0216,0,65,65,132,1,sevenfive,,,,,,,,,,,,,,,,,,,,,,,,,,,,,,,,,,,,,,,,,,,,,,,,,,,,,,,,,,,,,,,,,,,,,,,,,,,,,,,,,,,,,,,,,,,,,,,,,,,,,,,,,,,,,,,,,,,,,,,,,,,,,,,,,,,,,,,,,
,,6458435bcc30319132bb5664,2024-02-22_13h26.10.520,kallum_motion_pilot,2023.2.2,Win32,166.6666667,6458435bcc30319132bb5664,65d6bb0e977760de756971f7,65d6bebcc7c0f830c49a8d90,0.0216,0.0216,0,66,66,135,1,eightseven,,,,,,,,,,,,,,,,,,,,,,,,,,,,,,,,,,,,,,,,,,,,,,,,,,,,,,,,,,,,,,,,,,,,,,,,,,,,,,,,,,,,,,,,,,,,,,,,,,,,,,,,,,,,,,,,,,,,,,,,,,,,,,,,,,,,,,,,,
,,6458435bcc30319132bb5664,2024-02-22_13h26.10.520,kallum_motion_pilot,2023.2.2,Win32,166.6666667,6458435bcc30319132bb5664,65d6bb0e977760de756971f7,65d6bebcc7c0f830c49a8d90,0.0217,0.0218,0,67,67,5,1,threefour,,,,,,,,,,,,,,,,,,,,,,,,,,,,,,,,,,,,,,,,,,,,,,,,,,,,,,,,,,,,,,,,,,,,,,,,,,,,,,,,,,,,,,,,,,,,,,,,,,,,,,,,,,,,,,,,,,,,,,,,,,,,,,,,,,,,,,,,,
,,6458435bcc30319132bb5664,2024-02-22_13h26.10.520,kallum_motion_pilot,2023.2.2,Win32,166.6666667,6458435bcc30319132bb5664,65d6bb0e977760de756971f7,65d6bebcc7c0f830c49a8d90,0.0218,0.0218,0,68,68,98,1,sixfive,,,,,,,,,,,,,,,,,,,,,,,,,,,,,,,,,,,,,,,,,,,,,,,,,,,,,,,,,,,,,,,,,,,,,,,,,,,,,,,,,,,,,,,,,,,,,,,,,,,,,,,,,,,,,,,,,,,,,,,,,,,,,,,,,,,,,,,,,
,,6458435bcc30319132bb5664,2024-02-22_13h26.10.520,kallum_motion_pilot,2023.2.2,Win32,166.6666667,6458435bcc30319132bb5664,65d6bb0e977760de756971f7,65d6bebcc7c0f830c49a8d90,0.0219,0.0219,0,69,69,88,1,fivesix,,,,,,,,,,,,,,,,,,,,,,,,,,,,,,,,,,,,,,,,,,,,,,,,,,,,,,,,,,,,,,,,,,,,,,,,,,,,,,,,,,,,,,,,,,,,,,,,,,,,,,,,,,,,,,,,,,,,,,,,,,,,,,,,,,,,,,,,,
,,6458435bcc30319132bb5664,2024-02-22_13h26.10.520,kallum_motion_pilot,2023.2.2,Win32,166.6666667,6458435bcc30319132bb5664,65d6bb0e977760de756971f7,65d6bebcc7c0f830c49a8d90,0.0219,0.022,0,70,70,158,1,eightsix,,,,,,,,,,,,,,,,,,,,,,,,,,,,,,,,,,,,,,,,,,,,,,,,,,,,,,,,,,,,,,,,,,,,,,,,,,,,,,,,,,,,,,,,,,,,,,,,,,,,,,,,,,,,,,,,,,,,,,,,,,,,,,,,,,,,,,,,,
,,6458435bcc30319132bb5664,2024-02-22_13h26.10.520,kallum_motion_pilot,2023.2.2,Win32,166.6666667,6458435bcc30319132bb5664,65d6bb0e977760de756971f7,65d6bebcc7c0f830c49a8d90,0.0221,0.0221,0,71,71,6,1,fourtwo,,,,,,,,,,,,,,,,,,,,,,,,,,,,,,,,,,,,,,,,,,,,,,,,,,,,,,,,,,,,,,,,,,,,,,,,,,,,,,,,,,,,,,,,,,,,,,,,,,,,,,,,,,,,,,,,,,,,,,,,,,,,,,,,,,,,,,,,,
,,6458435bcc30319132bb5664,2024-02-22_13h26.10.520,kallum_motion_pilot,2023.2.2,Win32,166.6666667,6458435bcc30319132bb5664,65d6bb0e977760de756971f7,65d6bebcc7c0f830c49a8d90,0.0222,0.0222,0,72,72,149,1,seveneight,,,,,,,,,,,,,,,,,,,,,,,,,,,,,,,,,,,,,,,,,,,,,,,,,,,,,,,,,,,,,,,,,,,,,,,,,,,,,,,,,,,,,,,,,,,,,,,,,,,,,,,,,,,,,,,,,,,,,,,,,,,,,,,,,,,,,,,,,
,,6458435bcc30319132bb5664,2024-02-22_13h26.10.520,kallum_motion_pilot,2023.2.2,Win32,166.6666667,6458435bcc30319132bb5664,65d6bb0e977760de756971f7,65d6bebcc7c0f830c49a8d90,0.0222,0.0222,0,73,73,148,1,sevenfive,,,,,,,,,,,,,,,,,,,,,,,,,,,,,,,,,,,,,,,,,,,,,,,,,,,,,,,,,,,,,,,,,,,,,,,,,,,,,,,,,,,,,,,,,,,,,,,,,,,,,,,,,,,,,,,,,,,,,,,,,,,,,,,,,,,,,,,,,
,,6458435bcc30319132bb5664,2024-02-22_13h26.10.520,kallum_motion_pilot,2023.2.2,Win32,166.6666667,6458435bcc30319132bb5664,65d6bb0e977760de756971f7,65d6bebcc7c0f830c49a8d90,0.0223,0.0224,0,74,74,84,1,sevenfive,,,,,,,,,,,,,,,,,,,,,,,,,,,,,,,,,,,,,,,,,,,,,,,,,,,,,,,,,,,,,,,,,,,,,,,,,,,,,,,,,,,,,,,,,,,,,,,,,,,,,,,,,,,,,,,,,,,,,,,,,,,,,,,,,,,,,,,,,
,,6458435bcc30319132bb5664,2024-02-22_13h26.10.520,kallum_motion_pilot,2023.2.2,Win32,166.6666667,6458435bcc30319132bb5664,65d6bb0e977760de756971f7,65d6bebcc7c0f830c49a8d90,0.0224,0.0224,0,75,75,16,1,onetwo,,,,,,,,,,,,,,,,,,,,,,,,,,,,,,,,,,,,,,,,,,,,,,,,,,,,,,,,,,,,,,,,,,,,,,,,,,,,,,,,,,,,,,,,,,,,,,,,,,,,,,,,,,,,,,,,,,,,,,,,,,,,,,,,,,,,,,,,,
,,6458435bcc30319132bb5664,2024-02-22_13h26.10.520,kallum_motion_pilot,2023.2.2,Win32,166.6666667,6458435bcc30319132bb5664,65d6bb0e977760de756971f7,65d6bebcc7c0f830c49a8d90,0.0225,0.0225,0,76,76,20,1,threeone,,,,,,,,,,,,,,,,,,,,,,,,,,,,,,,,,,,,,,,,,,,,,,,,,,,,,,,,,,,,,,,,,,,,,,,,,,,,,,,,,,,,,,,,,,,,,,,,,,,,,,,,,,,,,,,,,,,,,,,,,,,,,,,,,,,,,,,,,
,,6458435bcc30319132bb5664,2024-02-22_13h26.10.520,kallum_motion_pilot,2023.2.2,Win32,166.6666667,6458435bcc30319132bb5664,65d6bb0e977760de756971f7,65d6bebcc7c0f830c49a8d90,0.0225,0.0226,0,77,77,96,1,fivesix,,,,,,,,,,,,,,,,,,,,,,,,,,,,,,,,,,,,,,,,,,,,,,,,,,,,,,,,,,,,,,,,,,,,,,,,,,,,,,,,,,,,,,,,,,,,,,,,,,,,,,,,,,,,,,,,,,,,,,,,,,,,,,,,,,,,,,,,,
,,6458435bcc30319132bb5664,2024-02-22_13h26.10.520,kallum_motion_pilot,2023.2.2,Win32,166.6666667,6458435bcc30319132bb5664,65d6bb0e977760de756971f7,65d6bebcc7c0f830c49a8d90,0.0226,0.0226,0,78,78,85,1,seveneight,,,,,,,,,,,,,,,,,,,,,,,,,,,,,,,,,,,,,,,,,,,,,,,,,,,,,,,,,,,,,,,,,,,,,,,,,,,,,,,,,,,,,,,,,,,,,,,,,,,,,,,,,,,,,,,,,,,,,,,,,,,,,,,,,,,,,,,,,
,,6458435bcc30319132bb5664,2024-02-22_13h26.10.520,kallum_motion_pilot,2023.2.2,Win32,166.6666667,6458435bcc30319132bb5664,65d6bb0e977760de756971f7,65d6bebcc7c0f830c49a8d90,0.0227,0.0227,0,79,79,4,1,threeone,,,,,,,,,,,,,,,,,,,,,,,,,,,,,,,,,,,,,,,,,,,,,,,,,,,,,,,,,,,,,,,,,,,,,,,,,,,,,,,,,,,,,,,,,,,,,,,,,,,,,,,,,,,,,,,,,,,,,,,,,,,,,,,,,,,,,,,,,
,,6458435bcc30319132bb5664,2024-02-22_13h26.10.520,kallum_motion_pilot,2023.2.2,Win32,166.6666667,6458435bcc30319132bb5664,65d6bb0e977760de756971f7,65d6bebcc7c0f830c49a8d90,0.0227,0.0227,0,80,80,109,1,seveneight,,,,,,,,,,,,,,,,,,,,,,,,,,,,,,,,,,,,,,,,,,,,,,,,,,,,,,,,,,,,,,,,,,,,,,,,,,,,,,,,,,,,,,,,,,,,,,,,,,,,,,,,,,,,,,,,,,,,,,,,,,,,,,,,,,,,,,,,,
,,6458435bcc30319132bb5664,2024-02-22_13h26.10.520,kallum_motion_pilot,2023.2.2,Win32,166.6666667,6458435bcc30319132bb5664,65d6bb0e977760de756971f7,65d6bebcc7c0f830c49a8d90,0.0228,0.0228,0,81,81,95,1,eightseven,,,,,,,,,,,,,,,,,,,,,,,,,,,,,,,,,,,,,,,,,,,,,,,,,,,,,,,,,,,,,,,,,,,,,,,,,,,,,,,,,,,,,,,,,,,,,,,,,,,,,,,,,,,,,,,,,,,,,,,,,,,,,,,,,,,,,,,,,
,,6458435bcc30319132bb5664,2024-02-22_13h26.10.520,kallum_motion_pilot,2023.2.2,Win32,166.6666667,6458435bcc30319132bb5664,65d6bb0e977760de756971f7,65d6bebcc7c0f830c49a8d90,0.0229,0.0229,0,82,82,124,1,sevenfive,,,,,,,,,,,,,,,,,,,,,,,,,,,,,,,,,,,,,,,,,,,,,,,,,,,,,,,,,,,,,,,,,,,,,,,,,,,,,,,,,,,,,,,,,,,,,,,,,,,,,,,,,,,,,,,,,,,,,,,,,,,,,,,,,,,,,,,,,
,,6458435bcc30319132bb5664,2024-02-22_13h26.10.520,kallum_motion_pilot,2023.2.2,Win32,166.6666667,6458435bcc30319132bb5664,65d6bb0e977760de756971f7,65d6bebcc7c0f830c49a8d90,0.0229,0.0229,0,83,83,35,1,twofour,,,,,,,,,,,,,,,,,,,,,,,,,,,,,,,,,,,,,,,,,,,,,,,,,,,,,,,,,,,,,,,,,,,,,,,,,,,,,,,,,,,,,,,,,,,,,,,,,,,,,,,,,,,,,,,,,,,,,,,,,,,,,,,,,,,,,,,,,
,,6458435bcc30319132bb5664,2024-02-22_13h26.10.520,kallum_motion_pilot,2023.2.2,Win32,166.6666667,6458435bcc30319132bb5664,65d6bb0e977760de756971f7,65d6bebcc7c0f830c49a8d90,0.023,0.023,0,84,84,106,1,sixfive,,,,,,,,,,,,,,,,,,,,,,,,,,,,,,,,,,,,,,,,,,,,,,,,,,,,,,,,,,,,,,,,,,,,,,,,,,,,,,,,,,,,,,,,,,,,,,,,,,,,,,,,,,,,,,,,,,,,,,,,,,,,,,,,,,,,,,,,,
,,6458435bcc30319132bb5664,2024-02-22_13h26.10.520,kallum_motion_pilot,2023.2.2,Win32,166.6666667,6458435bcc30319132bb5664,65d6bb0e977760de756971f7,65d6bebcc7c0f830c49a8d90,0.0231,0.0231,0,85,85,89,1,fiveseven,,,,,,,,,,,,,,,,,,,,,,,,,,,,,,,,,,,,,,,,,,,,,,,,,,,,,,,,,,,,,,,,,,,,,,,,,,,,,,,,,,,,,,,,,,,,,,,,,,,,,,,,,,,,,,,,,,,,,,,,,,,,,,,,,,,,,,,,,
,,6458435bcc30319132bb5664,2024-02-22_13h26.10.520,kallum_motion_pilot,2023.2.2,Win32,166.6666667,6458435bcc30319132bb5664,65d6bb0e977760de756971f7,65d6bebcc7c0f830c49a8d90,0.0231,0.0232,0,86,86,32,1,onetwo,,,,,,,,,,,,,,,,,,,,,,,,,,,,,,,,,,,,,,,,,,,,,,,,,,,,,,,,,,,,,,,,,,,,,,,,,,,,,,,,,,,,,,,,,,,,,,,,,,,,,,,,,,,,,,,,,,,,,,,,,,,,,,,,,,,,,,,,,
,,6458435bcc30319132bb5664,2024-02-22_13h26.10.520,kallum_motion_pilot,2023.2.2,Win32,166.6666667,6458435bcc30319132bb5664,65d6bb0e977760de756971f7,65d6bebcc7c0f830c49a8d90,0.0232,0.0233,0,87,87,81,1,fiveseven,,,,,,,,,,,,,,,,,,,,,,,,,,,,,,,,,,,,,,,,,,,,,,,,,,,,,,,,,,,,,,,,,,,,,,,,,,,,,,,,,,,,,,,,,,,,,,,,,,,,,,,,,,,,,,,,,,,,,,,,,,,,,,,,,,,,,,,,,
,,6458435bcc30319132bb5664,2024-02-22_13h26.10.520,kallum_motion_pilot,2023.2.2,Win32,166.6666667,6458435bcc30319132bb5664,65d6bb0e977760de756971f7,65d6bebcc7c0f830c49a8d90,0.0234,0.0234,0,88,88,82,1,sixfive,,,,,,,,,,,,,,,,,,,,,,,,,,,,,,,,,,,,,,,,,,,,,,,,,,,,,,,,,,,,,,,,,,,,,,,,,,,,,,,,,,,,,,,,,,,,,,,,,,,,,,,,,,,,,,,,,,,,,,,,,,,,,,,,,,,,,,,,,
,,6458435bcc30319132bb5664,2024-02-22_13h26.10.520,kallum_motion_pilot,2023.2.2,Win32,166.6666667,6458435bcc30319132bb5664,65d6bb0e977760de756971f7,65d6bebcc7c0f830c49a8d90,0.0234,0.0234,0,89,89,27,1,twofour,,,,,,,,,,,,,,,,,,,,,,,,,,,,,,,,,,,,,,,,,,,,,,,,,,,,,,,,,,,,,,,,,,,,,,,,,,,,,,,,,,,,,,,,,,,,,,,,,,,,,,,,,,,,,,,,,,,,,,,,,,,,,,,,,,,,,,,,,
,,6458435bcc30319132bb5664,2024-02-22_13h26.10.520,kallum_motion_pilot,2023.2.2,Win32,166.6666667,6458435bcc30319132bb5664,65d6bb0e977760de756971f7,65d6bebcc7c0f830c49a8d90,0.0235,0.0235,0,90,90,101,1,seveneight,,,,,,,,,,,,,,,,,,,,,,,,,,,,,,,,,,,,,,,,,,,,,,,,,,,,,,,,,,,,,,,,,,,,,,,,,,,,,,,,,,,,,,,,,,,,,,,,,,,,,,,,,,,,,,,,,,,,,,,,,,,,,,,,,,,,,,,,,
,,6458435bcc30319132bb5664,2024-02-22_13h26.10.520,kallum_motion_pilot,2023.2.2,Win32,166.6666667,6458435bcc30319132bb5664,65d6bb0e977760de756971f7,65d6bebcc7c0f830c49a8d90,0.0236,0.0236,0,91,91,47,1,fourthree,,,,,,,,,,,,,,,,,,,,,,,,,,,,,,,,,,,,,,,,,,,,,,,,,,,,,,,,,,,,,,,,,,,,,,,,,,,,,,,,,,,,,,,,,,,,,,,,,,,,,,,,,,,,,,,,,,,,,,,,,,,,,,,,,,,,,,,,,
,,6458435bcc30319132bb5664,2024-02-22_13h26.10.520,kallum_motion_pilot,2023.2.2,Win32,166.6666667,6458435bcc30319132bb5664,65d6bb0e977760de756971f7,65d6bebcc7c0f830c49a8d90,0.0237,0.0237,0,92,92,18,1,twoone,,,,,,,,,,,,,,,,,,,,,,,,,,,,,,,,,,,,,,,,,,,,,,,,,,,,,,,,,,,,,,,,,,,,,,,,,,,,,,,,,,,,,,,,,,,,,,,,,,,,,,,,,,,,,,,,,,,,,,,,,,,,,,,,,,,,,,,,,
,,6458435bcc30319132bb5664,2024-02-22_13h26.10.520,kallum_motion_pilot,2023.2.2,Win32,166.6666667,6458435bcc30319132bb5664,65d6bb0e977760de756971f7,65d6bebcc7c0f830c49a8d90,0.0237,0.0238,0,93,93,65,1,onethree,,,,,,,,,,,,,,,,,,,,,,,,,,,,,,,,,,,,,,,,,,,,,,,,,,,,,,,,,,,,,,,,,,,,,,,,,,,,,,,,,,,,,,,,,,,,,,,,,,,,,,,,,,,,,,,,,,,,,,,,,,,,,,,,,,,,,,,,,
,,6458435bcc30319132bb5664,2024-02-22_13h26.10.520,kallum_motion_pilot,2023.2.2,Win32,166.6666667,6458435bcc30319132bb5664,65d6bb0e977760de756971f7,65d6bebcc7c0f830c49a8d90,0.0238,0.0238,0,94,94,126,1,eightsix,,,,,,,,,,,,,,,,,,,,,,,,,,,,,,,,,,,,,,,,,,,,,,,,,,,,,,,,,,,,,,,,,,,,,,,,,,,,,,,,,,,,,,,,,,,,,,,,,,,,,,,,,,,,,,,,,,,,,,,,,,,,,,,,,,,,,,,,,
,,6458435bcc30319132bb5664,2024-02-22_13h26.10.520,kallum_motion_pilot,2023.2.2,Win32,166.6666667,6458435bcc30319132bb5664,65d6bb0e977760de756971f7,65d6bebcc7c0f830c49a8d90,0.0239,0.0239,0,95,95,59,1,twofour,,,,,,,,,,,,,,,,,,,,,,,,,,,,,,,,,,,,,,,,,,,,,,,,,,,,,,,,,,,,,,,,,,,,,,,,,,,,,,,,,,,,,,,,,,,,,,,,,,,,,,,,,,,,,,,,,,,,,,,,,,,,,,,,,,,,,,,,,
,,6458435bcc30319132bb5664,2024-02-22_13h26.10.520,kallum_motion_pilot,2023.2.2,Win32,166.6666667,6458435bcc30319132bb5664,65d6bb0e977760de756971f7,65d6bebcc7c0f830c49a8d90,0.024,0.024,0,96,96,23,1,fourthree,,,,,,,,,,,,,,,,,,,,,,,,,,,,,,,,,,,,,,,,,,,,,,,,,,,,,,,,,,,,,,,,,,,,,,,,,,,,,,,,,,,,,,,,,,,,,,,,,,,,,,,,,,,,,,,,,,,,,,,,,,,,,,,,,,,,,,,,,
,,6458435bcc30319132bb5664,2024-02-22_13h26.10.520,kallum_motion_pilot,2023.2.2,Win32,166.6666667,6458435bcc30319132bb5664,65d6bb0e977760de756971f7,65d6bebcc7c0f830c49a8d90,0.0241,0.0241,0,97,97,7,1,fourthree,,,,,,,,,,,,,,,,,,,,,,,,,,,,,,,,,,,,,,,,,,,,,,,,,,,,,,,,,,,,,,,,,,,,,,,,,,,,,,,,,,,,,,,,,,,,,,,,,,,,,,,,,,,,,,,,,,,,,,,,,,,,,,,,,,,,,,,,,
,,6458435bcc30319132bb5664,2024-02-22_13h26.10.520,kallum_motion_pilot,2023.2.2,Win32,166.6666667,6458435bcc30319132bb5664,65d6bb0e977760de756971f7,65d6bebcc7c0f830c49a8d90,0.0242,0.0242,0,98,98,157,1,seveneight,,,,,,,,,,,,,,,,,,,,,,,,,,,,,,,,,,,,,,,,,,,,,,,,,,,,,,,,,,,,,,,,,,,,,,,,,,,,,,,,,,,,,,,,,,,,,,,,,,,,,,,,,,,,,,,,,,,,,,,,,,,,,,,,,,,,,,,,,
,,6458435bcc30319132bb5664,2024-02-22_13h26.10.520,kallum_motion_pilot,2023.2.2,Win32,166.6666667,6458435bcc30319132bb5664,65d6bb0e977760de756971f7,65d6bebcc7c0f830c49a8d90,0.0242,0.0242,0,99,99,58,1,twoone,,,,,,,,,,,,,,,,,,,,,,,,,,,,,,,,,,,,,,,,,,,,,,,,,,,,,,,,,,,,,,,,,,,,,,,,,,,,,,,,,,,,,,,,,,,,,,,,,,,,,,,,,,,,,,,,,,,,,,,,,,,,,,,,,,,,,,,,,
,,6458435bcc30319132bb5664,2024-02-22_13h26.10.520,kallum_motion_pilot,2023.2.2,Win32,166.6666667,6458435bcc30319132bb5664,65d6bb0e977760de756971f7,65d6bebcc7c0f830c49a8d90,0.0243,0.0243,0,100,100,137,1,fiveseven,,,,,,,,,,,,,,,,,,,,,,,,,,,,,,,,,,,,,,,,,,,,,,,,,,,,,,,,,,,,,,,,,,,,,,,,,,,,,,,,,,,,,,,,,,,,,,,,,,,,,,,,,,,,,,,,,,,,,,,,,,,,,,,,,,,,,,,,,
,,6458435bcc30319132bb5664,2024-02-22_13h26.10.520,kallum_motion_pilot,2023.2.2,Win32,166.6666667,6458435bcc30319132bb5664,65d6bb0e977760de756971f7,65d6bebcc7c0f830c49a8d90,0.0243,0.0244,0,101,101,140,1,sevenfive,,,,,,,,,,,,,,,,,,,,,,,,,,,,,,,,,,,,,,,,,,,,,,,,,,,,,,,,,,,,,,,,,,,,,,,,,,,,,,,,,,,,,,,,,,,,,,,,,,,,,,,,,,,,,,,,,,,,,,,,,,,,,,,,,,,,,,,,,
,,6458435bcc30319132bb5664,2024-02-22_13h26.10.520,kallum_motion_pilot,2023.2.2,Win32,166.6666667,6458435bcc30319132bb5664,65d6bb0e977760de756971f7,65d6bebcc7c0f830c49a8d90,0.0246,0.0246,0,102,102,129,1,fiveseven,,,,,,,,,,,,,,,,,,,,,,,,,,,,,,,,,,,,,,,,,,,,,,,,,,,,,,,,,,,,,,,,,,,,,,,,,,,,,,,,,,,,,,,,,,,,,,,,,,,,,,,,,,,,,,,,,,,,,,,,,,,,,,,,,,,,,,,,,
,,6458435bcc30319132bb5664,2024-02-22_13h26.10.520,kallum_motion_pilot,2023.2.2,Win32,166.6666667,6458435bcc30319132bb5664,65d6bb0e977760de756971f7,65d6bebcc7c0f830c49a8d90,0.0247,0.0247,0,103,103,60,1,threeone,,,,,,,,,,,,,,,,,,,,,,,,,,,,,,,,,,,,,,,,,,,,,,,,,,,,,,,,,,,,,,,,,,,,,,,,,,,,,,,,,,,,,,,,,,,,,,,,,,,,,,,,,,,,,,,,,,,,,,,,,,,,,,,,,,,,,,,,,
,,6458435bcc30319132bb5664,2024-02-22_13h26.10.520,kallum_motion_pilot,2023.2.2,Win32,166.6666667,6458435bcc30319132bb5664,65d6bb0e977760de756971f7,65d6bebcc7c0f830c49a8d90,0.0248,0.0248,0,104,104,113,1,fiveseven,,,,,,,,,,,,,,,,,,,,,,,,,,,,,,,,,,,,,,,,,,,,,,,,,,,,,,,,,,,,,,,,,,,,,,,,,,,,,,,,,,,,,,,,,,,,,,,,,,,,,,,,,,,,,,,,,,,,,,,,,,,,,,,,,,,,,,,,,
,,6458435bcc30319132bb5664,2024-02-22_13h26.10.520,kallum_motion_pilot,2023.2.2,Win32,166.6666667,6458435bcc30319132bb5664,65d6bb0e977760de756971f7,65d6bebcc7c0f830c49a8d90,0.0248,0.0249,0,105,105,141,1,seveneight,,,,,,,,,,,,,,,,,,,,,,,,,,,,,,,,,,,,,,,,,,,,,,,,,,,,,,,,,,,,,,,,,,,,,,,,,,,,,,,,,,,,,,,,,,,,,,,,,,,,,,,,,,,,,,,,,,,,,,,,,,,,,,,,,,,,,,,,,
,,6458435bcc30319132bb5664,2024-02-22_13h26.10.520,kallum_motion_pilot,2023.2.2,Win32,166.6666667,6458435bcc30319132bb5664,65d6bb0e977760de756971f7,65d6bebcc7c0f830c49a8d90,0.025,0.025,0,106,106,36,1,threeone,,,,,,,,,,,,,,,,,,,,,,,,,,,,,,,,,,,,,,,,,,,,,,,,,,,,,,,,,,,,,,,,,,,,,,,,,,,,,,,,,,,,,,,,,,,,,,,,,,,,,,,,,,,,,,,,,,,,,,,,,,,,,,,,,,,,,,,,,
,,6458435bcc30319132bb5664,2024-02-22_13h26.10.520,kallum_motion_pilot,2023.2.2,Win32,166.6666667,6458435bcc30319132bb5664,65d6bb0e977760de756971f7,65d6bebcc7c0f830c49a8d90,0.025,0.025,0,107,107,34,1,twoone,,,,,,,,,,,,,,,,,,,,,,,,,,,,,,,,,,,,,,,,,,,,,,,,,,,,,,,,,,,,,,,,,,,,,,,,,,,,,,,,,,,,,,,,,,,,,,,,,,,,,,,,,,,,,,,,,,,,,,,,,,,,,,,,,,,,,,,,,
,,6458435bcc30319132bb5664,2024-02-22_13h26.10.520,kallum_motion_pilot,2023.2.2,Win32,166.6666667,6458435bcc30319132bb5664,65d6bb0e977760de756971f7,65d6bebcc7c0f830c49a8d90,0.0253,0.0253,0,108,108,28,1,threeone,,,,,,,,,,,,,,,,,,,,,,,,,,,,,,,,,,,,,,,,,,,,,,,,,,,,,,,,,,,,,,,,,,,,,,,,,,,,,,,,,,,,,,,,,,,,,,,,,,,,,,,,,,,,,,,,,,,,,,,,,,,,,,,,,,,,,,,,,
,,6458435bcc30319132bb5664,2024-02-22_13h26.10.520,kallum_motion_pilot,2023.2.2,Win32,166.6666667,6458435bcc30319132bb5664,65d6bb0e977760de756971f7,65d6bebcc7c0f830c49a8d90,0.0253,0.0254,0,109,109,1,1,onethree,,,,,,,,,,,,,,,,,,,,,,,,,,,,,,,,,,,,,,,,,,,,,,,,,,,,,,,,,,,,,,,,,,,,,,,,,,,,,,,,,,,,,,,,,,,,,,,,,,,,,,,,,,,,,,,,,,,,,,,,,,,,,,,,,,,,,,,,,
,,6458435bcc30319132bb5664,2024-02-22_13h26.10.520,kallum_motion_pilot,2023.2.2,Win32,166.6666667,6458435bcc30319132bb5664,65d6bb0e977760de756971f7,65d6bebcc7c0f830c49a8d90,0.0254,0.0254,0,110,110,9,1,onethree,,,,,,,,,,,,,,,,,,,,,,,,,,,,,,,,,,,,,,,,,,,,,,,,,,,,,,,,,,,,,,,,,,,,,,,,,,,,,,,,,,,,,,,,,,,,,,,,,,,,,,,,,,,,,,,,,,,,,,,,,,,,,,,,,,,,,,,,,
,,6458435bcc30319132bb5664,2024-02-22_13h26.10.520,kallum_motion_pilot,2023.2.2,Win32,166.6666667,6458435bcc30319132bb5664,65d6bb0e977760de756971f7,65d6bebcc7c0f830c49a8d90,0.0255,0.0255,0,111,111,62,1,fourtwo,,,,,,,,,,,,,,,,,,,,,,,,,,,,,,,,,,,,,,,,,,,,,,,,,,,,,,,,,,,,,,,,,,,,,,,,,,,,,,,,,,,,,,,,,,,,,,,,,,,,,,,,,,,,,,,,,,,,,,,,,,,,,,,,,,,,,,,,,
,,6458435bcc30319132bb5664,2024-02-22_13h26.10.520,kallum_motion_pilot,2023.2.2,Win32,166.6666667,6458435bcc30319132bb5664,65d6bb0e977760de756971f7,65d6bebcc7c0f830c49a8d90,0.0257,0.0257,0,112,112,120,1,fivesix,,,,,,,,,,,,,,,,,,,,,,,,,,,,,,,,,,,,,,,,,,,,,,,,,,,,,,,,,,,,,,,,,,,,,,,,,,,,,,,,,,,,,,,,,,,,,,,,,,,,,,,,,,,,,,,,,,,,,,,,,,,,,,,,,,,,,,,,,
,,6458435bcc30319132bb5664,2024-02-22_13h26.10.520,kallum_motion_pilot,2023.2.2,Win32,166.6666667,6458435bcc30319132bb5664,65d6bb0e977760de756971f7,65d6bebcc7c0f830c49a8d90,0.0257,0.0257,0,113,113,43,1,twofour,,,,,,,,,,,,,,,,,,,,,,,,,,,,,,,,,,,,,,,,,,,,,,,,,,,,,,,,,,,,,,,,,,,,,,,,,,,,,,,,,,,,,,,,,,,,,,,,,,,,,,,,,,,,,,,,,,,,,,,,,,,,,,,,,,,,,,,,,
,,6458435bcc30319132bb5664,2024-02-22_13h26.10.520,kallum_motion_pilot,2023.2.2,Win32,166.6666667,6458435bcc30319132bb5664,65d6bb0e977760de756971f7,65d6bebcc7c0f830c49a8d90,0.0258,0.0258,0,114,114,77,1,threefour,,,,,,,,,,,,,,,,,,,,,,,,,,,,,,,,,,,,,,,,,,,,,,,,,,,,,,,,,,,,,,,,,,,,,,,,,,,,,,,,,,,,,,,,,,,,,,,,,,,,,,,,,,,,,,,,,,,,,,,,,,,,,,,,,,,,,,,,,
,,6458435bcc30319132bb5664,2024-02-22_13h26.10.520,kallum_motion_pilot,2023.2.2,Win32,166.6666667,6458435bcc30319132bb5664,65d6bb0e977760de756971f7,65d6bebcc7c0f830c49a8d90,0.0259,0.026,0,115,115,68,1,threeone,,,,,,,,,,,,,,,,,,,,,,,,,,,,,,,,,,,,,,,,,,,,,,,,,,,,,,,,,,,,,,,,,,,,,,,,,,,,,,,,,,,,,,,,,,,,,,,,,,,,,,,,,,,,,,,,,,,,,,,,,,,,,,,,,,,,,,,,,
,,6458435bcc30319132bb5664,2024-02-22_13h26.10.520,kallum_motion_pilot,2023.2.2,Win32,166.6666667,6458435bcc30319132bb5664,65d6bb0e977760de756971f7,65d6bebcc7c0f830c49a8d90,0.026,0.026,0,116,116,41,1,onethree,,,,,,,,,,,,,,,,,,,,,,,,,,,,,,,,,,,,,,,,,,,,,,,,,,,,,,,,,,,,,,,,,,,,,,,,,,,,,,,,,,,,,,,,,,,,,,,,,,,,,,,,,,,,,,,,,,,,,,,,,,,,,,,,,,,,,,,,,
,,6458435bcc30319132bb5664,2024-02-22_13h26.10.520,kallum_motion_pilot,2023.2.2,Win32,166.6666667,6458435bcc30319132bb5664,65d6bb0e977760de756971f7,65d6bebcc7c0f830c49a8d90,0.0261,0.0261,0,117,117,122,1,sixfive,,,,,,,,,,,,,,,,,,,,,,,,,,,,,,,,,,,,,,,,,,,,,,,,,,,,,,,,,,,,,,,,,,,,,,,,,,,,,,,,,,,,,,,,,,,,,,,,,,,,,,,,,,,,,,,,,,,,,,,,,,,,,,,,,,,,,,,,,
,,6458435bcc30319132bb5664,2024-02-22_13h26.10.520,kallum_motion_pilot,2023.2.2,Win32,166.6666667,6458435bcc30319132bb5664,65d6bb0e977760de756971f7,65d6bebcc7c0f830c49a8d90,0.0262,0.0262,0,118,118,125,1,seveneight,,,,,,,,,,,,,,,,,,,,,,,,,,,,,,,,,,,,,,,,,,,,,,,,,,,,,,,,,,,,,,,,,,,,,,,,,,,,,,,,,,,,,,,,,,,,,,,,,,,,,,,,,,,,,,,,,,,,,,,,,,,,,,,,,,,,,,,,,
,,6458435bcc30319132bb5664,2024-02-22_13h26.10.520,kallum_motion_pilot,2023.2.2,Win32,166.6666667,6458435bcc30319132bb5664,65d6bb0e977760de756971f7,65d6bebcc7c0f830c49a8d90,0.0262,0.0262,0,119,119,21,1,threefour,,,,,,,,,,,,,,,,,,,,,,,,,,,,,,,,,,,,,,,,,,,,,,,,,,,,,,,,,,,,,,,,,,,,,,,,,,,,,,,,,,,,,,,,,,,,,,,,,,,,,,,,,,,,,,,,,,,,,,,,,,,,,,,,,,,,,,,,,
,,6458435bcc30319132bb5664,2024-02-22_13h26.10.520,kallum_motion_pilot,2023.2.2,Win32,166.6666667,6458435bcc30319132bb5664,65d6bb0e977760de756971f7,65d6bebcc7c0f830c49a8d90,0.0263,0.0264,0,120,120,56,1,onetwo,,,,,,,,,,,,,,,,,,,,,,,,,,,,,,,,,,,,,,,,,,,,,,,,,,,,,,,,,,,,,,,,,,,,,,,,,,,,,,,,,,,,,,,,,,,,,,,,,,,,,,,,,,,,,,,,,,,,,,,,,,,,,,,,,,,,,,,,,
,,6458435bcc30319132bb5664,2024-02-22_13h26.10.520,kallum_motion_pilot,2023.2.2,Win32,166.6666667,6458435bcc30319132bb5664,65d6bb0e977760de756971f7,65d6bebcc7c0f830c49a8d90,0.0264,0.0264,0,121,121,144,1,fivesix,,,,,,,,,,,,,,,,,,,,,,,,,,,,,,,,,,,,,,,,,,,,,,,,,,,,,,,,,,,,,,,,,,,,,,,,,,,,,,,,,,,,,,,,,,,,,,,,,,,,,,,,,,,,,,,,,,,,,,,,,,,,,,,,,,,,,,,,,
,,6458435bcc30319132bb5664,2024-02-22_13h26.10.520,kallum_motion_pilot,2023.2.2,Win32,166.6666667,6458435bcc30319132bb5664,65d6bb0e977760de756971f7,65d6bebcc7c0f830c49a8d90,0.0265,0.0265,0,122,122,156,1,sevenfive,,,,,,,,,,,,,,,,,,,,,,,,,,,,,,,,,,,,,,,,,,,,,,,,,,,,,,,,,,,,,,,,,,,,,,,,,,,,,,,,,,,,,,,,,,,,,,,,,,,,,,,,,,,,,,,,,,,,,,,,,,,,,,,,,,,,,,,,,
,,6458435bcc30319132bb5664,2024-02-22_13h26.10.520,kallum_motion_pilot,2023.2.2,Win32,166.6666667,6458435bcc30319132bb5664,65d6bb0e977760de756971f7,65d6bebcc7c0f830c49a8d90,0.0266,0.0266,0,123,123,29,1,threefour,,,,,,,,,,,,,,,,,,,,,,,,,,,,,,,,,,,,,,,,,,,,,,,,,,,,,,,,,,,,,,,,,,,,,,,,,,,,,,,,,,,,,,,,,,,,,,,,,,,,,,,,,,,,,,,,,,,,,,,,,,,,,,,,,,,,,,,,,
,,6458435bcc30319132bb5664,2024-02-22_13h26.10.520,kallum_motion_pilot,2023.2.2,Win32,166.6666667,6458435bcc30319132bb5664,65d6bb0e977760de756971f7,65d6bebcc7c0f830c49a8d90,0.0267,0.0267,0,124,124,142,1,eightsix,,,,,,,,,,,,,,,,,,,,,,,,,,,,,,,,,,,,,,,,,,,,,,,,,,,,,,,,,,,,,,,,,,,,,,,,,,,,,,,,,,,,,,,,,,,,,,,,,,,,,,,,,,,,,,,,,,,,,,,,,,,,,,,,,,,,,,,,,
,,6458435bcc30319132bb5664,2024-02-22_13h26.10.520,kallum_motion_pilot,2023.2.2,Win32,166.6666667,6458435bcc30319132bb5664,65d6bb0e977760de756971f7,65d6bebcc7c0f830c49a8d90,0.0268,0.0268,0,125,125,83,1,sixeight,,,,,,,,,,,,,,,,,,,,,,,,,,,,,,,,,,,,,,,,,,,,,,,,,,,,,,,,,,,,,,,,,,,,,,,,,,,,,,,,,,,,,,,,,,,,,,,,,,,,,,,,,,,,,,,,,,,,,,,,,,,,,,,,,,,,,,,,,
,,6458435bcc30319132bb5664,2024-02-22_13h26.10.520,kallum_motion_pilot,2023.2.2,Win32,166.6666667,6458435bcc30319132bb5664,65d6bb0e977760de756971f7,65d6bebcc7c0f830c49a8d90,0.0268,0.0269,0,126,126,46,1,fourtwo,,,,,,,,,,,,,,,,,,,,,,,,,,,,,,,,,,,,,,,,,,,,,,,,,,,,,,,,,,,,,,,,,,,,,,,,,,,,,,,,,,,,,,,,,,,,,,,,,,,,,,,,,,,,,,,,,,,,,,,,,,,,,,,,,,,,,,,,,
,,6458435bcc30319132bb5664,2024-02-22_13h26.10.520,kallum_motion_pilot,2023.2.2,Win32,166.6666667,6458435bcc30319132bb5664,65d6bb0e977760de756971f7,65d6bebcc7c0f830c49a8d90,0.0269,0.027,0,127,127,33,1,onethree,,,,,,,,,,,,,,,,,,,,,,,,,,,,,,,,,,,,,,,,,,,,,,,,,,,,,,,,,,,,,,,,,,,,,,,,,,,,,,,,,,,,,,,,,,,,,,,,,,,,,,,,,,,,,,,,,,,,,,,,,,,,,,,,,,,,,,,,,
,,6458435bcc30319132bb5664,2024-02-22_13h26.10.520,kallum_motion_pilot,2023.2.2,Win32,166.6666667,6458435bcc30319132bb5664,65d6bb0e977760de756971f7,65d6bebcc7c0f830c49a8d90,0.027,0.0271,0,128,128,154,1,sixfive,,,,,,,,,,,,,,,,,,,,,,,,,,,,,,,,,,,,,,,,,,,,,,,,,,,,,,,,,,,,,,,,,,,,,,,,,,,,,,,,,,,,,,,,,,,,,,,,,,,,,,,,,,,,,,,,,,,,,,,,,,,,,,,,,,,,,,,,,
,,6458435bcc30319132bb5664,2024-02-22_13h26.10.520,kallum_motion_pilot,2023.2.2,Win32,166.6666667,6458435bcc30319132bb5664,65d6bb0e977760de756971f7,65d6bebcc7c0f830c49a8d90,0.0271,0.0272,0,129,129,121,1,fiveseven,,,,,,,,,,,,,,,,,,,,,,,,,,,,,,,,,,,,,,,,,,,,,,,,,,,,,,,,,,,,,,,,,,,,,,,,,,,,,,,,,,,,,,,,,,,,,,,,,,,,,,,,,,,,,,,,,,,,,,,,,,,,,,,,,,,,,,,,,
,,6458435bcc30319132bb5664,2024-02-22_13h26.10.520,kallum_motion_pilot,2023.2.2,Win32,166.6666667,6458435bcc30319132bb5664,65d6bb0e977760de756971f7,65d6bebcc7c0f830c49a8d90,0.0272,0.0272,0,130,130,91,1,sixeight,,,,,,,,,,,,,,,,,,,,,,,,,,,,,,,,,,,,,,,,,,,,,,,,,,,,,,,,,,,,,,,,,,,,,,,,,,,,,,,,,,,,,,,,,,,,,,,,,,,,,,,,,,,,,,,,,,,,,,,,,,,,,,,,,,,,,,,,,
,,6458435bcc30319132bb5664,2024-02-22_13h26.10.520,kallum_motion_pilot,2023.2.2,Win32,166.6666667,6458435bcc30319132bb5664,65d6bb0e977760de756971f7,65d6bebcc7c0f830c49a8d90,0.0273,0.0274,0,131,131,107,1,sixeight,,,,,,,,,,,,,,,,,,,,,,,,,,,,,,,,,,,,,,,,,,,,,,,,,,,,,,,,,,,,,,,,,,,,,,,,,,,,,,,,,,,,,,,,,,,,,,,,,,,,,,,,,,,,,,,,,,,,,,,,,,,,,,,,,,,,,,,,,
,,6458435bcc30319132bb5664,2024-02-22_13h26.10.520,kallum_motion_pilot,2023.2.2,Win32,166.6666667,6458435bcc30319132bb5664,65d6bb0e977760de756971f7,65d6bebcc7c0f830c49a8d90,0.0274,0.0274,0,132,132,145,1,fiveseven,,,,,,,,,,,,,,,,,,,,,,,,,,,,,,,,,,,,,,,,,,,,,,,,,,,,,,,,,,,,,,,,,,,,,,,,,,,,,,,,,,,,,,,,,,,,,,,,,,,,,,,,,,,,,,,,,,,,,,,,,,,,,,,,,,,,,,,,,
,,6458435bcc30319132bb5664,2024-02-22_13h26.10.520,kallum_motion_pilot,2023.2.2,Win32,166.6666667,6458435bcc30319132bb5664,65d6bb0e977760de756971f7,65d6bebcc7c0f830c49a8d90,0.0281,0.0281,0,133,133,152,1,fivesix,,,,,,,,,,,,,,,,,,,,,,,,,,,,,,,,,,,,,,,,,,,,,,,,,,,,,,,,,,,,,,,,,,,,,,,,,,,,,,,,,,,,,,,,,,,,,,,,,,,,,,,,,,,,,,,,,,,,,,,,,,,,,,,,,,,,,,,,,
,,6458435bcc30319132bb5664,2024-02-22_13h26.10.520,kallum_motion_pilot,2023.2.2,Win32,166.6666667,6458435bcc30319132bb5664,65d6bb0e977760de756971f7,65d6bebcc7c0f830c49a8d90,0.0282,0.0283,0,134,134,97,1,fiveseven,,,,,,,,,,,,,,,,,,,,,,,,,,,,,,,,,,,,,,,,,,,,,,,,,,,,,,,,,,,,,,,,,,,,,,,,,,,,,,,,,,,,,,,,,,,,,,,,,,,,,,,,,,,,,,,,,,,,,,,,,,,,,,,,,,,,,,,,,
,,6458435bcc30319132bb5664,2024-02-22_13h26.10.520,kallum_motion_pilot,2023.2.2,Win32,166.6666667,6458435bcc30319132bb5664,65d6bb0e977760de756971f7,65d6bebcc7c0f830c49a8d90,0.0283,0.0283,0,135,135,103,1,eightseven,,,,,,,,,,,,,,,,,,,,,,,,,,,,,,,,,,,,,,,,,,,,,,,,,,,,,,,,,,,,,,,,,,,,,,,,,,,,,,,,,,,,,,,,,,,,,,,,,,,,,,,,,,,,,,,,,,,,,,,,,,,,,,,,,,,,,,,,,
,,6458435bcc30319132bb5664,2024-02-22_13h26.10.520,kallum_motion_pilot,2023.2.2,Win32,166.6666667,6458435bcc30319132bb5664,65d6bb0e977760de756971f7,65d6bebcc7c0f830c49a8d90,0.0284,0.0284,0,136,136,74,1,twoone,,,,,,,,,,,,,,,,,,,,,,,,,,,,,,,,,,,,,,,,,,,,,,,,,,,,,,,,,,,,,,,,,,,,,,,,,,,,,,,,,,,,,,,,,,,,,,,,,,,,,,,,,,,,,,,,,,,,,,,,,,,,,,,,,,,,,,,,,
,,6458435bcc30319132bb5664,2024-02-22_13h26.10.520,kallum_motion_pilot,2023.2.2,Win32,166.6666667,6458435bcc30319132bb5664,65d6bb0e977760de756971f7,65d6bebcc7c0f830c49a8d90,0.0284,0.0285,0,137,137,150,1,eightsix,,,,,,,,,,,,,,,,,,,,,,,,,,,,,,,,,,,,,,,,,,,,,,,,,,,,,,,,,,,,,,,,,,,,,,,,,,,,,,,,,,,,,,,,,,,,,,,,,,,,,,,,,,,,,,,,,,,,,,,,,,,,,,,,,,,,,,,,,
,,6458435bcc30319132bb5664,2024-02-22_13h26.10.520,kallum_motion_pilot,2023.2.2,Win32,166.6666667,6458435bcc30319132bb5664,65d6bb0e977760de756971f7,65d6bebcc7c0f830c49a8d90,0.0286,0.0286,0,138,138,133,1,seveneight,,,,,,,,,,,,,,,,,,,,,,,,,,,,,,,,,,,,,,,,,,,,,,,,,,,,,,,,,,,,,,,,,,,,,,,,,,,,,,,,,,,,,,,,,,,,,,,,,,,,,,,,,,,,,,,,,,,,,,,,,,,,,,,,,,,,,,,,,
,,6458435bcc30319132bb5664,2024-02-22_13h26.10.520,kallum_motion_pilot,2023.2.2,Win32,166.6666667,6458435bcc30319132bb5664,65d6bb0e977760de756971f7,65d6bebcc7c0f830c49a8d90,0.0286,0.0287,0,139,139,75,1,twofour,,,,,,,,,,,,,,,,,,,,,,,,,,,,,,,,,,,,,,,,,,,,,,,,,,,,,,,,,,,,,,,,,,,,,,,,,,,,,,,,,,,,,,,,,,,,,,,,,,,,,,,,,,,,,,,,,,,,,,,,,,,,,,,,,,,,,,,,,
,,6458435bcc30319132bb5664,2024-02-22_13h26.10.520,kallum_motion_pilot,2023.2.2,Win32,166.6666667,6458435bcc30319132bb5664,65d6bb0e977760de756971f7,65d6bebcc7c0f830c49a8d90,0.0288,0.0288,0,140,140,66,1,twoone,,,,,,,,,,,,,,,,,,,,,,,,,,,,,,,,,,,,,,,,,,,,,,,,,,,,,,,,,,,,,,,,,,,,,,,,,,,,,,,,,,,,,,,,,,,,,,,,,,,,,,,,,,,,,,,,,,,,,,,,,,,,,,,,,,,,,,,,,
,,6458435bcc30319132bb5664,2024-02-22_13h26.10.520,kallum_motion_pilot,2023.2.2,Win32,166.6666667,6458435bcc30319132bb5664,65d6bb0e977760de756971f7,65d6bebcc7c0f830c49a8d90,0.0289,0.0289,0,141,141,112,1,fivesix,,,,,,,,,,,,,,,,,,,,,,,,,,,,,,,,,,,,,,,,,,,,,,,,,,,,,,,,,,,,,,,,,,,,,,,,,,,,,,,,,,,,,,,,,,,,,,,,,,,,,,,,,,,,,,,,,,,,,,,,,,,,,,,,,,,,,,,,,
,,6458435bcc30319132bb5664,2024-02-22_13h26.10.520,kallum_motion_pilot,2023.2.2,Win32,166.6666667,6458435bcc30319132bb5664,65d6bb0e977760de756971f7,65d6bebcc7c0f830c49a8d90,0.0289,0.0289,0,142,142,127,1,eightseven,,,,,,,,,,,,,,,,,,,,,,,,,,,,,,,,,,,,,,,,,,,,,,,,,,,,,,,,,,,,,,,,,,,,,,,,,,,,,,,,,,,,,,,,,,,,,,,,,,,,,,,,,,,,,,,,,,,,,,,,,,,,,,,,,,,,,,,,,
,,6458435bcc30319132bb5664,2024-02-22_13h26.10.520,kallum_motion_pilot,2023.2.2,Win32,166.6666667,6458435bcc30319132bb5664,65d6bb0e977760de756971f7,65d6bebcc7c0f830c49a8d90,0.0289,0.029,0,143,143,151,1,eightseven,,,,,,,,,,,,,,,,,,,,,,,,,,,,,,,,,,,,,,,,,,,,,,,,,,,,,,,,,,,,,,,,,,,,,,,,,,,,,,,,,,,,,,,,,,,,,,,,,,,,,,,,,,,,,,,,,,,,,,,,,,,,,,,,,,,,,,,,,
,,6458435bcc30319132bb5664,2024-02-22_13h26.10.520,kallum_motion_pilot,2023.2.2,Win32,166.6666667,6458435bcc30319132bb5664,65d6bb0e977760de756971f7,65d6bebcc7c0f830c49a8d90,0.0291,0.0291,0,144,144,11,1,twofour,,,,,,,,,,,,,,,,,,,,,,,,,,,,,,,,,,,,,,,,,,,,,,,,,,,,,,,,,,,,,,,,,,,,,,,,,,,,,,,,,,,,,,,,,,,,,,,,,,,,,,,,,,,,,,,,,,,,,,,,,,,,,,,,,,,,,,,,,
,,6458435bcc30319132bb5664,2024-02-22_13h26.10.520,kallum_motion_pilot,2023.2.2,Win32,166.6666667,6458435bcc30319132bb5664,65d6bb0e977760de756971f7,65d6bebcc7c0f830c49a8d90,0.0291,0.0291,0,145,145,87,1,eightseven,,,,,,,,,,,,,,,,,,,,,,,,,,,,,,,,,,,,,,,,,,,,,,,,,,,,,,,,,,,,,,,,,,,,,,,,,,,,,,,,,,,,,,,,,,,,,,,,,,,,,,,,,,,,,,,,,,,,,,,,,,,,,,,,,,,,,,,,,
,,6458435bcc30319132bb5664,2024-02-22_13h26.10.520,kallum_motion_pilot,2023.2.2,Win32,166.6666667,6458435bcc30319132bb5664,65d6bb0e977760de756971f7,65d6bebcc7c0f830c49a8d90,0.0292,0.0293,0,146,146,38,1,fourtwo,,,,,,,,,,,,,,,,,,,,,,,,,,,,,,,,,,,,,,,,,,,,,,,,,,,,,,,,,,,,,,,,,,,,,,,,,,,,,,,,,,,,,,,,,,,,,,,,,,,,,,,,,,,,,,,,,,,,,,,,,,,,,,,,,,,,,,,,,
,,6458435bcc30319132bb5664,2024-02-22_13h26.10.520,kallum_motion_pilot,2023.2.2,Win32,166.6666667,6458435bcc30319132bb5664,65d6bb0e977760de756971f7,65d6bebcc7c0f830c49a8d90,0.0293,0.0294,0,147,147,118,1,eightsix,,,,,,,,,,,,,,,,,,,,,,,,,,,,,,,,,,,,,,,,,,,,,,,,,,,,,,,,,,,,,,,,,,,,,,,,,,,,,,,,,,,,,,,,,,,,,,,,,,,,,,,,,,,,,,,,,,,,,,,,,,,,,,,,,,,,,,,,,
,,6458435bcc30319132bb5664,2024-02-22_13h26.10.520,kallum_motion_pilot,2023.2.2,Win32,166.6666667,6458435bcc30319132bb5664,65d6bb0e977760de756971f7,65d6bebcc7c0f830c49a8d90,0.0294,0.0295,0,148,148,90,1,sixfive,,,,,,,,,,,,,,,,,,,,,,,,,,,,,,,,,,,,,,,,,,,,,,,,,,,,,,,,,,,,,,,,,,,,,,,,,,,,,,,,,,,,,,,,,,,,,,,,,,,,,,,,,,,,,,,,,,,,,,,,,,,,,,,,,,,,,,,,,
,,6458435bcc30319132bb5664,2024-02-22_13h26.10.520,kallum_motion_pilot,2023.2.2,Win32,166.6666667,6458435bcc30319132bb5664,65d6bb0e977760de756971f7,65d6bebcc7c0f830c49a8d90,0.0295,0.0295,0,149,149,49,1,onethree,,,,,,,,,,,,,,,,,,,,,,,,,,,,,,,,,,,,,,,,,,,,,,,,,,,,,,,,,,,,,,,,,,,,,,,,,,,,,,,,,,,,,,,,,,,,,,,,,,,,,,,,,,,,,,,,,,,,,,,,,,,,,,,,,,,,,,,,,
,,6458435bcc30319132bb5664,2024-02-22_13h26.10.520,kallum_motion_pilot,2023.2.2,Win32,166.6666667,6458435bcc30319132bb5664,65d6bb0e977760de756971f7,65d6bebcc7c0f830c49a8d90,0.0295,0.0296,0,150,150,61,1,threefour,,,,,,,,,,,,,,,,,,,,,,,,,,,,,,,,,,,,,,,,,,,,,,,,,,,,,,,,,,,,,,,,,,,,,,,,,,,,,,,,,,,,,,,,,,,,,,,,,,,,,,,,,,,,,,,,,,,,,,,,,,,,,,,,,,,,,,,,,
,,6458435bcc30319132bb5664,2024-02-22_13h26.10.520,kallum_motion_pilot,2023.2.2,Win32,166.6666667,6458435bcc30319132bb5664,65d6bb0e977760de756971f7,65d6bebcc7c0f830c49a8d90,0.0296,0.0297,0,151,151,70,1,fourtwo,,,,,,,,,,,,,,,,,,,,,,,,,,,,,,,,,,,,,,,,,,,,,,,,,,,,,,,,,,,,,,,,,,,,,,,,,,,,,,,,,,,,,,,,,,,,,,,,,,,,,,,,,,,,,,,,,,,,,,,,,,,,,,,,,,,,,,,,,
,,6458435bcc30319132bb5664,2024-02-22_13h26.10.520,kallum_motion_pilot,2023.2.2,Win32,166.6666667,6458435bcc30319132bb5664,65d6bb0e977760de756971f7,65d6bebcc7c0f830c49a8d90,0.0297,0.0297,0,152,152,104,1,fivesix,,,,,,,,,,,,,,,,,,,,,,,,,,,,,,,,,,,,,,,,,,,,,,,,,,,,,,,,,,,,,,,,,,,,,,,,,,,,,,,,,,,,,,,,,,,,,,,,,,,,,,,,,,,,,,,,,,,,,,,,,,,,,,,,,,,,,,,,,
,,6458435bcc30319132bb5664,2024-02-22_13h26.10.520,kallum_motion_pilot,2023.2.2,Win32,166.6666667,6458435bcc30319132bb5664,65d6bb0e977760de756971f7,65d6bebcc7c0f830c49a8d90,0.0298,0.0299,0,153,153,92,1,sevenfive,,,,,,,,,,,,,,,,,,,,,,,,,,,,,,,,,,,,,,,,,,,,,,,,,,,,,,,,,,,,,,,,,,,,,,,,,,,,,,,,,,,,,,,,,,,,,,,,,,,,,,,,,,,,,,,,,,,,,,,,,,,,,,,,,,,,,,,,,
,,6458435bcc30319132bb5664,2024-02-22_13h26.10.520,kallum_motion_pilot,2023.2.2,Win32,166.6666667,6458435bcc30319132bb5664,65d6bb0e977760de756971f7,65d6bebcc7c0f830c49a8d90,0.0299,0.03,0,154,154,13,1,threefour,,,,,,,,,,,,,,,,,,,,,,,,,,,,,,,,,,,,,,,,,,,,,,,,,,,,,,,,,,,,,,,,,,,,,,,,,,,,,,,,,,,,,,,,,,,,,,,,,,,,,,,,,,,,,,,,,,,,,,,,,,,,,,,,,,,,,,,,,
,,6458435bcc30319132bb5664,2024-02-22_13h26.10.520,kallum_motion_pilot,2023.2.2,Win32,166.6666667,6458435bcc30319132bb5664,65d6bb0e977760de756971f7,65d6bebcc7c0f830c49a8d90,0.03,0.0301,0,155,155,159,1,eightseven,,,,,,,,,,,,,,,,,,,,,,,,,,,,,,,,,,,,,,,,,,,,,,,,,,,,,,,,,,,,,,,,,,,,,,,,,,,,,,,,,,,,,,,,,,,,,,,,,,,,,,,,,,,,,,,,,,,,,,,,,,,,,,,,,,,,,,,,,
,,6458435bcc30319132bb5664,2024-02-22_13h26.10.520,kallum_motion_pilot,2023.2.2,Win32,166.6666667,6458435bcc30319132bb5664,65d6bb0e977760de756971f7,65d6bebcc7c0f830c49a8d90,0.0301,0.0301,0,156,156,115,1,sixeight,,,,,,,,,,,,,,,,,,,,,,,,,,,,,,,,,,,,,,,,,,,,,,,,,,,,,,,,,,,,,,,,,,,,,,,,,,,,,,,,,,,,,,,,,,,,,,,,,,,,,,,,,,,,,,,,,,,,,,,,,,,,,,,,,,,,,,,,,
,,6458435bcc30319132bb5664,2024-02-22_13h26.10.520,kallum_motion_pilot,2023.2.2,Win32,166.6666667,6458435bcc30319132bb5664,65d6bb0e977760de756971f7,65d6bebcc7c0f830c49a8d90,0.0301,0.0302,0,157,157,71,1,fourthree,,,,,,,,,,,,,,,,,,,,,,,,,,,,,,,,,,,,,,,,,,,,,,,,,,,,,,,,,,,,,,,,,,,,,,,,,,,,,,,,,,,,,,,,,,,,,,,,,,,,,,,,,,,,,,,,,,,,,,,,,,,,,,,,,,,,,,,,,
,,6458435bcc30319132bb5664,2024-02-22_13h26.10.520,kallum_motion_pilot,2023.2.2,Win32,166.6666667,6458435bcc30319132bb5664,65d6bb0e977760de756971f7,65d6bebcc7c0f830c49a8d90,0.0303,0.0303,0,158,158,3,1,twofour,,,,,,,,,,,,,,,,,,,,,,,,,,,,,,,,,,,,,,,,,,,,,,,,,,,,,,,,,,,,,,,,,,,,,,,,,,,,,,,,,,,,,,,,,,,,,,,,,,,,,,,,,,,,,,,,,,,,,,,,,,,,,,,,,,,,,,,,,
,,6458435bcc30319132bb5664,2024-02-22_13h26.10.520,kallum_motion_pilot,2023.2.2,Win32,166.6666667,6458435bcc30319132bb5664,65d6bb0e977760de756971f7,65d6bebcc7c0f830c49a8d90,0.0303,0.0304,0,159,159,54,1,fourtwo,,,,,,,,,,,,,,,,,,,,,,,,,,,,,,,,,,,,,,,,,,,,,,,,,,,,,,,,,,,,,,,,,,,,,,,,,,,,,,,,,,,,,,,,,,,,,,,,,,,,,,,,,,,,,,,,,,,,,,,,,,,,,,,,,,,,,,,,,
,,6458435bcc30319132bb5664,2024-02-22_13h26.10.520,kallum_motion_pilot,2023.2.2,Win32,166.6666667,6458435bcc30319132bb5664,65d6bb0e977760de756971f7,65d6bebcc7c0f830c49a8d90,0.0304,0.0304,0,160,160,19,1,twofour,,,,,,,,,,,,,,,,,,,,,,,,,,,,,,,,,,,,,,,,,,,,,,,,,,,,,,,,,,,,,,,,,,,,,,,,,,,,,,,,,,,,,,,,,,,,,,,,,,,,,,,,,,,,,,,,,,,,,,,,,,,,,,,,,,,,,,,,,
,,6458435bcc30319132bb5664,2024-02-22_13h26.10.520,kallum_motion_pilot,2023.2.2,Win32,166.6666667,6458435bcc30319132bb5664,65d6bb0e977760de756971f7,65d6bebcc7c0f830c49a8d90,0.0307,0.0307,0,161,161,25,1,onethree,,,,,,,,,,,,,,,,,,,,,,,,,,,,,,,,,,,,,,,,,,,,,,,,,,,,,,,,,,,,,,,,,,,,,,,,,,,,,,,,,,,,,,,,,,,,,,,,,,,,,,,,,,,,,,,,,,,,,,,,,,,,,,,,,,,,,,,,,
,,6458435bcc30319132bb5664,2024-02-22_13h26.10.520,kallum_motion_pilot,2023.2.2,Win32,166.6666667,6458435bcc30319132bb5664,65d6bb0e977760de756971f7,65d6bebcc7c0f830c49a8d90,0.0307,0.0308,1,0,162,117,1,seveneight,,,,,,,,,,,,,,,,,,,,,,,,,,,,,,,,,,,,,,,,,,,,,,,,,,,,,,,,,,,,,,,,,,,,,,,,,,,,,,,,,,,,,,,,,,,,,,,,,,,,,,,,,,,,,,,,,,,,,,,,,,,,,,,,,,,,,,,,,
,,6458435bcc30319132bb5664,2024-02-22_13h26.10.520,kallum_motion_pilot,2023.2.2,Win32,166.6666667,6458435bcc30319132bb5664,65d6bb0e977760de756971f7,65d6bebcc7c0f830c49a8d90,0.0309,0.031,1,1,163,2,1,twoone,,,,,,,,,,,,,,,,,,,,,,,,,,,,,,,,,,,,,,,,,,,,,,,,,,,,,,,,,,,,,,,,,,,,,,,,,,,,,,,,,,,,,,,,,,,,,,,,,,,,,,,,,,,,,,,,,,,,,,,,,,,,,,,,,,,,,,,,,
,,6458435bcc30319132bb5664,2024-02-22_13h26.10.520,kallum_motion_pilot,2023.2.2,Win32,166.6666667,6458435bcc30319132bb5664,65d6bb0e977760de756971f7,65d6bebcc7c0f830c49a8d90,0.031,0.0311,1,2,164,161,1,fiveseven,,,,,,,,,,,,,,,,,,,,,,,,,,,,,,,,,,,,,,,,,,,,,,,,,,,,,,,,,,,,,,,,,,,,,,,,,,,,,,,,,,,,,,,,,,,,,,,,,,,,,,,,,,,,,,,,,,,,,,,,,,,,,,,,,,,,,,,,,
,,6458435bcc30319132bb5664,2024-02-22_13h26.10.520,kallum_motion_pilot,2023.2.2,Win32,166.6666667,6458435bcc30319132bb5664,65d6bb0e977760de756971f7,65d6bebcc7c0f830c49a8d90,0.0311,0.0311,1,3,165,138,1,sixfive,,,,,,,,,,,,,,,,,,,,,,,,,,,,,,,,,,,,,,,,,,,,,,,,,,,,,,,,,,,,,,,,,,,,,,,,,,,,,,,,,,,,,,,,,,,,,,,,,,,,,,,,,,,,,,,,,,,,,,,,,,,,,,,,,,,,,,,,,
,,6458435bcc30319132bb5664,2024-02-22_13h26.10.520,kallum_motion_pilot,2023.2.2,Win32,166.6666667,6458435bcc30319132bb5664,65d6bb0e977760de756971f7,65d6bebcc7c0f830c49a8d90,0.0313,0.0314,1,4,166,125,1,seveneight,,,,,,,,,,,,,,,,,,,,,,,,,,,,,,,,,,,,,,,,,,,,,,,,,,,,,,,,,,,,,,,,,,,,,,,,,,,,,,,,,,,,,,,,,,,,,,,,,,,,,,,,,,,,,,,,,,,,,,,,,,,,,,,,,,,,,,,,,
,,6458435bcc30319132bb5664,2024-02-22_13h26.10.520,kallum_motion_pilot,2023.2.2,Win32,166.6666667,6458435bcc30319132bb5664,65d6bb0e977760de756971f7,65d6bebcc7c0f830c49a8d90,0.0314,0.0315,1,5,167,71,1,fourthree,,,,,,,,,,,,,,,,,,,,,,,,,,,,,,,,,,,,,,,,,,,,,,,,,,,,,,,,,,,,,,,,,,,,,,,,,,,,,,,,,,,,,,,,,,,,,,,,,,,,,,,,,,,,,,,,,,,,,,,,,,,,,,,,,,,,,,,,,
,,6458435bcc30319132bb5664,2024-02-22_13h26.10.520,kallum_motion_pilot,2023.2.2,Win32,166.6666667,6458435bcc30319132bb5664,65d6bb0e977760de756971f7,65d6bebcc7c0f830c49a8d90,0.0315,0.0316,1,6,168,155,1,sixeight,,,,,,,,,,,,,,,,,,,,,,,,,,,,,,,,,,,,,,,,,,,,,,,,,,,,,,,,,,,,,,,,,,,,,,,,,,,,,,,,,,,,,,,,,,,,,,,,,,,,,,,,,,,,,,,,,,,,,,,,,,,,,,,,,,,,,,,,,
,,6458435bcc30319132bb5664,2024-02-22_13h26.10.520,kallum_motion_pilot,2023.2.2,Win32,166.6666667,6458435bcc30319132bb5664,65d6bb0e977760de756971f7,65d6bebcc7c0f830c49a8d90,0.0316,0.0317,1,7,169,60,1,threeone,,,,,,,,,,,,,,,,,,,,,,,,,,,,,,,,,,,,,,,,,,,,,,,,,,,,,,,,,,,,,,,,,,,,,,,,,,,,,,,,,,,,,,,,,,,,,,,,,,,,,,,,,,,,,,,,,,,,,,,,,,,,,,,,,,,,,,,,,
,,6458435bcc30319132bb5664,2024-02-22_13h26.10.520,kallum_motion_pilot,2023.2.2,Win32,166.6666667,6458435bcc30319132bb5664,65d6bb0e977760de756971f7,65d6bebcc7c0f830c49a8d90,0.0318,0.0319,1,8,170,62,1,fourtwo,,,,,,,,,,,,,,,,,,,,,,,,,,,,,,,,,,,,,,,,,,,,,,,,,,,,,,,,,,,,,,,,,,,,,,,,,,,,,,,,,,,,,,,,,,,,,,,,,,,,,,,,,,,,,,,,,,,,,,,,,,,,,,,,,,,,,,,,,
,,6458435bcc30319132bb5664,2024-02-22_13h26.10.520,kallum_motion_pilot,2023.2.2,Win32,166.6666667,6458435bcc30319132bb5664,65d6bb0e977760de756971f7,65d6bebcc7c0f830c49a8d90,0.0319,0.0319,1,9,171,13,1,threefour,,,,,,,,,,,,,,,,,,,,,,,,,,,,,,,,,,,,,,,,,,,,,,,,,,,,,,,,,,,,,,,,,,,,,,,,,,,,,,,,,,,,,,,,,,,,,,,,,,,,,,,,,,,,,,,,,,,,,,,,,,,,,,,,,,,,,,,,,
,,6458435bcc30319132bb5664,2024-02-22_13h26.10.520,kallum_motion_pilot,2023.2.2,Win32,166.6666667,6458435bcc30319132bb5664,65d6bb0e977760de756971f7,65d6bebcc7c0f830c49a8d90,0.032,0.032,1,10,172,132,1,sevenfive,,,,,,,,,,,,,,,,,,,,,,,,,,,,,,,,,,,,,,,,,,,,,,,,,,,,,,,,,,,,,,,,,,,,,,,,,,,,,,,,,,,,,,,,,,,,,,,,,,,,,,,,,,,,,,,,,,,,,,,,,,,,,,,,,,,,,,,,,
,,6458435bcc30319132bb5664,2024-02-22_13h26.10.520,kallum_motion_pilot,2023.2.2,Win32,166.6666667,6458435bcc30319132bb5664,65d6bb0e977760de756971f7,65d6bebcc7c0f830c49a8d90,0.0321,0.0321,1,11,173,68,1,threeone,,,,,,,,,,,,,,,,,,,,,,,,,,,,,,,,,,,,,,,,,,,,,,,,,,,,,,,,,,,,,,,,,,,,,,,,,,,,,,,,,,,,,,,,,,,,,,,,,,,,,,,,,,,,,,,,,,,,,,,,,,,,,,,,,,,,,,,,,
,,6458435bcc30319132bb5664,2024-02-22_13h26.10.520,kallum_motion_pilot,2023.2.2,Win32,166.6666667,6458435bcc30319132bb5664,65d6bb0e977760de756971f7,65d6bebcc7c0f830c49a8d90,0.0321,0.0322,1,12,174,149,1,seveneight,,,,,,,,,,,,,,,,,,,,,,,,,,,,,,,,,,,,,,,,,,,,,,,,,,,,,,,,,,,,,,,,,,,,,,,,,,,,,,,,,,,,,,,,,,,,,,,,,,,,,,,,,,,,,,,,,,,,,,,,,,,,,,,,,,,,,,,,,
,,6458435bcc30319132bb5664,2024-02-22_13h26.10.520,kallum_motion_pilot,2023.2.2,Win32,166.6666667,6458435bcc30319132bb5664,65d6bb0e977760de756971f7,65d6bebcc7c0f830c49a8d90,0.0323,0.0323,1,13,175,72,1,onetwo,,,,,,,,,,,,,,,,,,,,,,,,,,,,,,,,,,,,,,,,,,,,,,,,,,,,,,,,,,,,,,,,,,,,,,,,,,,,,,,,,,,,,,,,,,,,,,,,,,,,,,,,,,,,,,,,,,,,,,,,,,,,,,,,,,,,,,,,,
,,6458435bcc30319132bb5664,2024-02-22_13h26.10.520,kallum_motion_pilot,2023.2.2,Win32,166.6666667,6458435bcc30319132bb5664,65d6bb0e977760de756971f7,65d6bebcc7c0f830c49a8d90,0.0324,0.0324,1,14,176,47,1,fourthree,,,,,,,,,,,,,,,,,,,,,,,,,,,,,,,,,,,,,,,,,,,,,,,,,,,,,,,,,,,,,,,,,,,,,,,,,,,,,,,,,,,,,,,,,,,,,,,,,,,,,,,,,,,,,,,,,,,,,,,,,,,,,,,,,,,,,,,,,
,,6458435bcc30319132bb5664,2024-02-22_13h26.10.520,kallum_motion_pilot,2023.2.2,Win32,166.6666667,6458435bcc30319132bb5664,65d6bb0e977760de756971f7,65d6bebcc7c0f830c49a8d90,0.0324,0.0325,1,15,177,134,1,eightsix,,,,,,,,,,,,,,,,,,,,,,,,,,,,,,,,,,,,,,,,,,,,,,,,,,,,,,,,,,,,,,,,,,,,,,,,,,,,,,,,,,,,,,,,,,,,,,,,,,,,,,,,,,,,,,,,,,,,,,,,,,,,,,,,,,,,,,,,,
,,6458435bcc30319132bb5664,2024-02-22_13h26.10.520,kallum_motion_pilot,2023.2.2,Win32,166.6666667,6458435bcc30319132bb5664,65d6bb0e977760de756971f7,65d6bebcc7c0f830c49a8d90,0.0325,0.0325,1,16,178,80,1,fivesix,,,,,,,,,,,,,,,,,,,,,,,,,,,,,,,,,,,,,,,,,,,,,,,,,,,,,,,,,,,,,,,,,,,,,,,,,,,,,,,,,,,,,,,,,,,,,,,,,,,,,,,,,,,,,,,,,,,,,,,,,,,,,,,,,,,,,,,,,
,,6458435bcc30319132bb5664,2024-02-22_13h26.10.520,kallum_motion_pilot,2023.2.2,Win32,166.6666667,6458435bcc30319132bb5664,65d6bb0e977760de756971f7,65d6bebcc7c0f830c49a8d90,0.0326,0.0326,1,17,179,44,1,threeone,,,,,,,,,,,,,,,,,,,,,,,,,,,,,,,,,,,,,,,,,,,,,,,,,,,,,,,,,,,,,,,,,,,,,,,,,,,,,,,,,,,,,,,,,,,,,,,,,,,,,,,,,,,,,,,,,,,,,,,,,,,,,,,,,,,,,,,,,
,,6458435bcc30319132bb5664,2024-02-22_13h26.10.520,kallum_motion_pilot,2023.2.2,Win32,166.6666667,6458435bcc30319132bb5664,65d6bb0e977760de756971f7,65d6bebcc7c0f830c49a8d90,0.0327,0.0327,1,18,180,156,1,sevenfive,,,,,,,,,,,,,,,,,,,,,,,,,,,,,,,,,,,,,,,,,,,,,,,,,,,,,,,,,,,,,,,,,,,,,,,,,,,,,,,,,,,,,,,,,,,,,,,,,,,,,,,,,,,,,,,,,,,,,,,,,,,,,,,,,,,,,,,,,
,,6458435bcc30319132bb5664,2024-02-22_13h26.10.520,kallum_motion_pilot,2023.2.2,Win32,166.6666667,6458435bcc30319132bb5664,65d6bb0e977760de756971f7,65d6bebcc7c0f830c49a8d90,0.0328,0.0328,1,19,181,77,1,threefour,,,,,,,,,,,,,,,,,,,,,,,,,,,,,,,,,,,,,,,,,,,,,,,,,,,,,,,,,,,,,,,,,,,,,,,,,,,,,,,,,,,,,,,,,,,,,,,,,,,,,,,,,,,,,,,,,,,,,,,,,,,,,,,,,,,,,,,,,
,,6458435bcc30319132bb5664,2024-02-22_13h26.10.520,kallum_motion_pilot,2023.2.2,Win32,166.6666667,6458435bcc30319132bb5664,65d6bb0e977760de756971f7,65d6bebcc7c0f830c49a8d90,0.0328,0.0329,1,20,182,127,1,eightseven,,,,,,,,,,,,,,,,,,,,,,,,,,,,,,,,,,,,,,,,,,,,,,,,,,,,,,,,,,,,,,,,,,,,,,,,,,,,,,,,,,,,,,,,,,,,,,,,,,,,,,,,,,,,,,,,,,,,,,,,,,,,,,,,,,,,,,,,,
,,6458435bcc30319132bb5664,2024-02-22_13h26.10.520,kallum_motion_pilot,2023.2.2,Win32,166.6666667,6458435bcc30319132bb5664,65d6bb0e977760de756971f7,65d6bebcc7c0f830c49a8d90,0.0329,0.033,1,21,183,101,1,seveneight,,,,,,,,,,,,,,,,,,,,,,,,,,,,,,,,,,,,,,,,,,,,,,,,,,,,,,,,,,,,,,,,,,,,,,,,,,,,,,,,,,,,,,,,,,,,,,,,,,,,,,,,,,,,,,,,,,,,,,,,,,,,,,,,,,,,,,,,,
,,6458435bcc30319132bb5664,2024-02-22_13h26.10.520,kallum_motion_pilot,2023.2.2,Win32,166.6666667,6458435bcc30319132bb5664,65d6bb0e977760de756971f7,65d6bebcc7c0f830c49a8d90,0.0331,0.0331,1,22,184,29,1,threefour,,,,,,,,,,,,,,,,,,,,,,,,,,,,,,,,,,,,,,,,,,,,,,,,,,,,,,,,,,,,,,,,,,,,,,,,,,,,,,,,,,,,,,,,,,,,,,,,,,,,,,,,,,,,,,,,,,,,,,,,,,,,,,,,,,,,,,,,,
,,6458435bcc30319132bb5664,2024-02-22_13h26.10.520,kallum_motion_pilot,2023.2.2,Win32,166.6666667,6458435bcc30319132bb5664,65d6bb0e977760de756971f7,65d6bebcc7c0f830c49a8d90,0.0331,0.0332,1,23,185,83,1,sixeight,,,,,,,,,,,,,,,,,,,,,,,,,,,,,,,,,,,,,,,,,,,,,,,,,,,,,,,,,,,,,,,,,,,,,,,,,,,,,,,,,,,,,,,,,,,,,,,,,,,,,,,,,,,,,,,,,,,,,,,,,,,,,,,,,,,,,,,,,
,,6458435bcc30319132bb5664,2024-02-22_13h26.10.520,kallum_motion_pilot,2023.2.2,Win32,166.6666667,6458435bcc30319132bb5664,65d6bb0e977760de756971f7,65d6bebcc7c0f830c49a8d90,0.0333,0.0333,1,24,186,67,1,twofour,,,,,,,,,,,,,,,,,,,,,,,,,,,,,,,,,,,,,,,,,,,,,,,,,,,,,,,,,,,,,,,,,,,,,,,,,,,,,,,,,,,,,,,,,,,,,,,,,,,,,,,,,,,,,,,,,,,,,,,,,,,,,,,,,,,,,,,,,
,,6458435bcc30319132bb5664,2024-02-22_13h26.10.520,kallum_motion_pilot,2023.2.2,Win32,166.6666667,6458435bcc30319132bb5664,65d6bb0e977760de756971f7,65d6bebcc7c0f830c49a8d90,0.0334,0.0334,1,25,187,24,1,onetwo,,,,,,,,,,,,,,,,,,,,,,,,,,,,,,,,,,,,,,,,,,,,,,,,,,,,,,,,,,,,,,,,,,,,,,,,,,,,,,,,,,,,,,,,,,,,,,,,,,,,,,,,,,,,,,,,,,,,,,,,,,,,,,,,,,,,,,,,,
,,6458435bcc30319132bb5664,2024-02-22_13h26.10.520,kallum_motion_pilot,2023.2.2,Win32,166.6666667,6458435bcc30319132bb5664,65d6bb0e977760de756971f7,65d6bebcc7c0f830c49a8d90,0.0335,0.0335,1,26,188,59,1,twofour,,,,,,,,,,,,,,,,,,,,,,,,,,,,,,,,,,,,,,,,,,,,,,,,,,,,,,,,,,,,,,,,,,,,,,,,,,,,,,,,,,,,,,,,,,,,,,,,,,,,,,,,,,,,,,,,,,,,,,,,,,,,,,,,,,,,,,,,,
,,6458435bcc30319132bb5664,2024-02-22_13h26.10.520,kallum_motion_pilot,2023.2.2,Win32,166.6666667,6458435bcc30319132bb5664,65d6bb0e977760de756971f7,65d6bebcc7c0f830c49a8d90,0.0335,0.0336,1,27,189,3,1,twofour,,,,,,,,,,,,,,,,,,,,,,,,,,,,,,,,,,,,,,,,,,,,,,,,,,,,,,,,,,,,,,,,,,,,,,,,,,,,,,,,,,,,,,,,,,,,,,,,,,,,,,,,,,,,,,,,,,,,,,,,,,,,,,,,,,,,,,,,,
,,6458435bcc30319132bb5664,2024-02-22_13h26.10.520,kallum_motion_pilot,2023.2.2,Win32,166.6666667,6458435bcc30319132bb5664,65d6bb0e977760de756971f7,65d6bebcc7c0f830c49a8d90,0.0336,0.0337,1,28,190,90,1,sixfive,,,,,,,,,,,,,,,,,,,,,,,,,,,,,,,,,,,,,,,,,,,,,,,,,,,,,,,,,,,,,,,,,,,,,,,,,,,,,,,,,,,,,,,,,,,,,,,,,,,,,,,,,,,,,,,,,,,,,,,,,,,,,,,,,,,,,,,,,
,,6458435bcc30319132bb5664,2024-02-22_13h26.10.520,kallum_motion_pilot,2023.2.2,Win32,166.6666667,6458435bcc30319132bb5664,65d6bb0e977760de756971f7,65d6bebcc7c0f830c49a8d90,0.0337,0.0338,1,29,191,105,1,fiveseven,,,,,,,,,,,,,,,,,,,,,,,,,,,,,,,,,,,,,,,,,,,,,,,,,,,,,,,,,,,,,,,,,,,,,,,,,,,,,,,,,,,,,,,,,,,,,,,,,,,,,,,,,,,,,,,,,,,,,,,,,,,,,,,,,,,,,,,,,
,,6458435bcc30319132bb5664,2024-02-22_13h26.10.520,kallum_motion_pilot,2023.2.2,Win32,166.6666667,6458435bcc30319132bb5664,65d6bb0e977760de756971f7,65d6bebcc7c0f830c49a8d90,0.0338,0.0338,1,30,192,122,1,sixfive,,,,,,,,,,,,,,,,,,,,,,,,,,,,,,,,,,,,,,,,,,,,,,,,,,,,,,,,,,,,,,,,,,,,,,,,,,,,,,,,,,,,,,,,,,,,,,,,,,,,,,,,,,,,,,,,,,,,,,,,,,,,,,,,,,,,,,,,,
,,6458435bcc30319132bb5664,2024-02-22_13h26.10.520,kallum_motion_pilot,2023.2.2,Win32,166.6666667,6458435bcc30319132bb5664,65d6bb0e977760de756971f7,65d6bebcc7c0f830c49a8d90,0.0339,0.0339,1,31,193,85,1,seveneight,,,,,,,,,,,,,,,,,,,,,,,,,,,,,,,,,,,,,,,,,,,,,,,,,,,,,,,,,,,,,,,,,,,,,,,,,,,,,,,,,,,,,,,,,,,,,,,,,,,,,,,,,,,,,,,,,,,,,,,,,,,,,,,,,,,,,,,,,
,,6458435bcc30319132bb5664,2024-02-22_13h26.10.520,kallum_motion_pilot,2023.2.2,Win32,166.6666667,6458435bcc30319132bb5664,65d6bb0e977760de756971f7,65d6bebcc7c0f830c49a8d90,0.034,0.0341,1,32,194,28,1,threeone,,,,,,,,,,,,,,,,,,,,,,,,,,,,,,,,,,,,,,,,,,,,,,,,,,,,,,,,,,,,,,,,,,,,,,,,,,,,,,,,,,,,,,,,,,,,,,,,,,,,,,,,,,,,,,,,,,,,,,,,,,,,,,,,,,,,,,,,,
,,6458435bcc30319132bb5664,2024-02-22_13h26.10.520,kallum_motion_pilot,2023.2.2,Win32,166.6666667,6458435bcc30319132bb5664,65d6bb0e977760de756971f7,65d6bebcc7c0f830c49a8d90,0.0341,0.0342,1,33,195,41,1,onethree,,,,,,,,,,,,,,,,,,,,,,,,,,,,,,,,,,,,,,,,,,,,,,,,,,,,,,,,,,,,,,,,,,,,,,,,,,,,,,,,,,,,,,,,,,,,,,,,,,,,,,,,,,,,,,,,,,,,,,,,,,,,,,,,,,,,,,,,,
,,6458435bcc30319132bb5664,2024-02-22_13h26.10.520,kallum_motion_pilot,2023.2.2,Win32,166.6666667,6458435bcc30319132bb5664,65d6bb0e977760de756971f7,65d6bebcc7c0f830c49a8d90,0.0342,0.0343,1,34,196,20,1,threeone,,,,,,,,,,,,,,,,,,,,,,,,,,,,,,,,,,,,,,,,,,,,,,,,,,,,,,,,,,,,,,,,,,,,,,,,,,,,,,,,,,,,,,,,,,,,,,,,,,,,,,,,,,,,,,,,,,,,,,,,,,,,,,,,,,,,,,,,,
,,6458435bcc30319132bb5664,2024-02-22_13h26.10.520,kallum_motion_pilot,2023.2.2,Win32,166.6666667,6458435bcc30319132bb5664,65d6bb0e977760de756971f7,65d6bebcc7c0f830c49a8d90,0.0344,0.0344,1,35,197,139,1,sixeight,,,,,,,,,,,,,,,,,,,,,,,,,,,,,,,,,,,,,,,,,,,,,,,,,,,,,,,,,,,,,,,,,,,,,,,,,,,,,,,,,,,,,,,,,,,,,,,,,,,,,,,,,,,,,,,,,,,,,,,,,,,,,,,,,,,,,,,,,
,,6458435bcc30319132bb5664,2024-02-22_13h26.10.520,kallum_motion_pilot,2023.2.2,Win32,166.6666667,6458435bcc30319132bb5664,65d6bb0e977760de756971f7,65d6bebcc7c0f830c49a8d90,0.0345,0.0345,1,36,198,115,1,sixeight,,,,,,,,,,,,,,,,,,,,,,,,,,,,,,,,,,,,,,,,,,,,,,,,,,,,,,,,,,,,,,,,,,,,,,,,,,,,,,,,,,,,,,,,,,,,,,,,,,,,,,,,,,,,,,,,,,,,,,,,,,,,,,,,,,,,,,,,,
,,6458435bcc30319132bb5664,2024-02-22_13h26.10.520,kallum_motion_pilot,2023.2.2,Win32,166.6666667,6458435bcc30319132bb5664,65d6bb0e977760de756971f7,65d6bebcc7c0f830c49a8d90,0.0346,0.0346,1,37,199,1,1,onethree,,,,,,,,,,,,,,,,,,,,,,,,,,,,,,,,,,,,,,,,,,,,,,,,,,,,,,,,,,,,,,,,,,,,,,,,,,,,,,,,,,,,,,,,,,,,,,,,,,,,,,,,,,,,,,,,,,,,,,,,,,,,,,,,,,,,,,,,,
,,6458435bcc30319132bb5664,2024-02-22_13h26.10.520,kallum_motion_pilot,2023.2.2,Win32,166.6666667,6458435bcc30319132bb5664,65d6bb0e977760de756971f7,65d6bebcc7c0f830c49a8d90,0.0346,0.0347,1,38,200,114,1,sixfive,,,,,,,,,,,,,,,,,,,,,,,,,,,,,,,,,,,,,,,,,,,,,,,,,,,,,,,,,,,,,,,,,,,,,,,,,,,,,,,,,,,,,,,,,,,,,,,,,,,,,,,,,,,,,,,,,,,,,,,,,,,,,,,,,,,,,,,,,
,,6458435bcc30319132bb5664,2024-02-22_13h26.10.520,kallum_motion_pilot,2023.2.2,Win32,166.6666667,6458435bcc30319132bb5664,65d6bb0e977760de756971f7,65d6bebcc7c0f830c49a8d90,0.0347,0.0348,1,39,201,16,1,onetwo,,,,,,,,,,,,,,,,,,,,,,,,,,,,,,,,,,,,,,,,,,,,,,,,,,,,,,,,,,,,,,,,,,,,,,,,,,,,,,,,,,,,,,,,,,,,,,,,,,,,,,,,,,,,,,,,,,,,,,,,,,,,,,,,,,,,,,,,,
,,6458435bcc30319132bb5664,2024-02-22_13h26.10.520,kallum_motion_pilot,2023.2.2,Win32,166.6666667,6458435bcc30319132bb5664,65d6bb0e977760de756971f7,65d6bebcc7c0f830c49a8d90,0.0348,0.0349,1,40,202,94,1,eightsix,,,,,,,,,,,,,,,,,,,,,,,,,,,,,,,,,,,,,,,,,,,,,,,,,,,,,,,,,,,,,,,,,,,,,,,,,,,,,,,,,,,,,,,,,,,,,,,,,,,,,,,,,,,,,,,,,,,,,,,,,,,,,,,,,,,,,,,,,
,,6458435bcc30319132bb5664,2024-02-22_13h26.10.520,kallum_motion_pilot,2023.2.2,Win32,166.6666667,6458435bcc30319132bb5664,65d6bb0e977760de756971f7,65d6bebcc7c0f830c49a8d90,0.0349,0.0349,1,41,203,18,1,twoone,,,,,,,,,,,,,,,,,,,,,,,,,,,,,,,,,,,,,,,,,,,,,,,,,,,,,,,,,,,,,,,,,,,,,,,,,,,,,,,,,,,,,,,,,,,,,,,,,,,,,,,,,,,,,,,,,,,,,,,,,,,,,,,,,,,,,,,,,
,,6458435bcc30319132bb5664,2024-02-22_13h26.10.520,kallum_motion_pilot,2023.2.2,Win32,166.6666667,6458435bcc30319132bb5664,65d6bb0e977760de756971f7,65d6bebcc7c0f830c49a8d90,0.035,0.0351,1,42,204,159,1,eightseven,,,,,,,,,,,,,,,,,,,,,,,,,,,,,,,,,,,,,,,,,,,,,,,,,,,,,,,,,,,,,,,,,,,,,,,,,,,,,,,,,,,,,,,,,,,,,,,,,,,,,,,,,,,,,,,,,,,,,,,,,,,,,,,,,,,,,,,,,
,,6458435bcc30319132bb5664,2024-02-22_13h26.10.520,kallum_motion_pilot,2023.2.2,Win32,166.6666667,6458435bcc30319132bb5664,65d6bb0e977760de756971f7,65d6bebcc7c0f830c49a8d90,0.0351,0.0352,1,43,205,86,1,eightsix,,,,,,,,,,,,,,,,,,,,,,,,,,,,,,,,,,,,,,,,,,,,,,,,,,,,,,,,,,,,,,,,,,,,,,,,,,,,,,,,,,,,,,,,,,,,,,,,,,,,,,,,,,,,,,,,,,,,,,,,,,,,,,,,,,,,,,,,,
,,6458435bcc30319132bb5664,2024-02-22_13h26.10.520,kallum_motion_pilot,2023.2.2,Win32,166.6666667,6458435bcc30319132bb5664,65d6bb0e977760de756971f7,65d6bebcc7c0f830c49a8d90,0.0352,0.0353,1,44,206,19,1,twofour,,,,,,,,,,,,,,,,,,,,,,,,,,,,,,,,,,,,,,,,,,,,,,,,,,,,,,,,,,,,,,,,,,,,,,,,,,,,,,,,,,,,,,,,,,,,,,,,,,,,,,,,,,,,,,,,,,,,,,,,,,,,,,,,,,,,,,,,,
,,6458435bcc30319132bb5664,2024-02-22_13h26.10.520,kallum_motion_pilot,2023.2.2,Win32,166.6666667,6458435bcc30319132bb5664,65d6bb0e977760de756971f7,65d6bebcc7c0f830c49a8d90,0.0354,0.0354,1,45,207,106,1,sixfive,,,,,,,,,,,,,,,,,,,,,,,,,,,,,,,,,,,,,,,,,,,,,,,,,,,,,,,,,,,,,,,,,,,,,,,,,,,,,,,,,,,,,,,,,,,,,,,,,,,,,,,,,,,,,,,,,,,,,,,,,,,,,,,,,,,,,,,,,
,,6458435bcc30319132bb5664,2024-02-22_13h26.10.520,kallum_motion_pilot,2023.2.2,Win32,166.6666667,6458435bcc30319132bb5664,65d6bb0e977760de756971f7,65d6bebcc7c0f830c49a8d90,0.0355,0.0355,1,46,208,154,1,sixfive,,,,,,,,,,,,,,,,,,,,,,,,,,,,,,,,,,,,,,,,,,,,,,,,,,,,,,,,,,,,,,,,,,,,,,,,,,,,,,,,,,,,,,,,,,,,,,,,,,,,,,,,,,,,,,,,,,,,,,,,,,,,,,,,,,,,,,,,,
,,6458435bcc30319132bb5664,2024-02-22_13h26.10.520,kallum_motion_pilot,2023.2.2,Win32,166.6666667,6458435bcc30319132bb5664,65d6bb0e977760de756971f7,65d6bebcc7c0f830c49a8d90,0.0356,0.0356,1,47,209,93,1,seveneight,,,,,,,,,,,,,,,,,,,,,,,,,,,,,,,,,,,,,,,,,,,,,,,,,,,,,,,,,,,,,,,,,,,,,,,,,,,,,,,,,,,,,,,,,,,,,,,,,,,,,,,,,,,,,,,,,,,,,,,,,,,,,,,,,,,,,,,,,
,,6458435bcc30319132bb5664,2024-02-22_13h26.10.520,kallum_motion_pilot,2023.2.2,Win32,166.6666667,6458435bcc30319132bb5664,65d6bb0e977760de756971f7,65d6bebcc7c0f830c49a8d90,0.0357,0.0357,1,48,210,15,1,fourthree,,,,,,,,,,,,,,,,,,,,,,,,,,,,,,,,,,,,,,,,,,,,,,,,,,,,,,,,,,,,,,,,,,,,,,,,,,,,,,,,,,,,,,,,,,,,,,,,,,,,,,,,,,,,,,,,,,,,,,,,,,,,,,,,,,,,,,,,,
,,6458435bcc30319132bb5664,2024-02-22_13h26.10.520,kallum_motion_pilot,2023.2.2,Win32,166.6666667,6458435bcc30319132bb5664,65d6bb0e977760de756971f7,65d6bebcc7c0f830c49a8d90,0.0358,0.0358,1,49,211,137,1,fiveseven,,,,,,,,,,,,,,,,,,,,,,,,,,,,,,,,,,,,,,,,,,,,,,,,,,,,,,,,,,,,,,,,,,,,,,,,,,,,,,,,,,,,,,,,,,,,,,,,,,,,,,,,,,,,,,,,,,,,,,,,,,,,,,,,,,,,,,,,,
,,6458435bcc30319132bb5664,2024-02-22_13h26.10.520,kallum_motion_pilot,2023.2.2,Win32,166.6666667,6458435bcc30319132bb5664,65d6bb0e977760de756971f7,65d6bebcc7c0f830c49a8d90,0.0358,0.0359,1,50,212,104,1,fivesix,,,,,,,,,,,,,,,,,,,,,,,,,,,,,,,,,,,,,,,,,,,,,,,,,,,,,,,,,,,,,,,,,,,,,,,,,,,,,,,,,,,,,,,,,,,,,,,,,,,,,,,,,,,,,,,,,,,,,,,,,,,,,,,,,,,,,,,,,
,,6458435bcc30319132bb5664,2024-02-22_13h26.10.520,kallum_motion_pilot,2023.2.2,Win32,166.6666667,6458435bcc30319132bb5664,65d6bb0e977760de756971f7,65d6bebcc7c0f830c49a8d90,0.0359,0.036,1,51,213,5,1,threefour,,,,,,,,,,,,,,,,,,,,,,,,,,,,,,,,,,,,,,,,,,,,,,,,,,,,,,,,,,,,,,,,,,,,,,,,,,,,,,,,,,,,,,,,,,,,,,,,,,,,,,,,,,,,,,,,,,,,,,,,,,,,,,,,,,,,,,,,,
,,6458435bcc30319132bb5664,2024-02-22_13h26.10.520,kallum_motion_pilot,2023.2.2,Win32,166.6666667,6458435bcc30319132bb5664,65d6bb0e977760de756971f7,65d6bebcc7c0f830c49a8d90,0.036,0.0361,1,52,214,35,1,twofour,,,,,,,,,,,,,,,,,,,,,,,,,,,,,,,,,,,,,,,,,,,,,,,,,,,,,,,,,,,,,,,,,,,,,,,,,,,,,,,,,,,,,,,,,,,,,,,,,,,,,,,,,,,,,,,,,,,,,,,,,,,,,,,,,,,,,,,,,
,,6458435bcc30319132bb5664,2024-02-22_13h26.10.520,kallum_motion_pilot,2023.2.2,Win32,166.6666667,6458435bcc30319132bb5664,65d6bb0e977760de756971f7,65d6bebcc7c0f830c49a8d90,0.0361,0.0362,1,53,215,27,1,twofour,,,,,,,,,,,,,,,,,,,,,,,,,,,,,,,,,,,,,,,,,,,,,,,,,,,,,,,,,,,,,,,,,,,,,,,,,,,,,,,,,,,,,,,,,,,,,,,,,,,,,,,,,,,,,,,,,,,,,,,,,,,,,,,,,,,,,,,,,
,,6458435bcc30319132bb5664,2024-02-22_13h26.10.520,kallum_motion_pilot,2023.2.2,Win32,166.6666667,6458435bcc30319132bb5664,65d6bb0e977760de756971f7,65d6bebcc7c0f830c49a8d90,0.0363,0.0363,1,54,216,152,1,fivesix,,,,,,,,,,,,,,,,,,,,,,,,,,,,,,,,,,,,,,,,,,,,,,,,,,,,,,,,,,,,,,,,,,,,,,,,,,,,,,,,,,,,,,,,,,,,,,,,,,,,,,,,,,,,,,,,,,,,,,,,,,,,,,,,,,,,,,,,,
,,6458435bcc30319132bb5664,2024-02-22_13h26.10.520,kallum_motion_pilot,2023.2.2,Win32,166.6666667,6458435bcc30319132bb5664,65d6bb0e977760de756971f7,65d6bebcc7c0f830c49a8d90,0.0364,0.0364,1,55,217,61,1,threefour,,,,,,,,,,,,,,,,,,,,,,,,,,,,,,,,,,,,,,,,,,,,,,,,,,,,,,,,,,,,,,,,,,,,,,,,,,,,,,,,,,,,,,,,,,,,,,,,,,,,,,,,,,,,,,,,,,,,,,,,,,,,,,,,,,,,,,,,,
,,6458435bcc30319132bb5664,2024-02-22_13h26.10.520,kallum_motion_pilot,2023.2.2,Win32,166.6666667,6458435bcc30319132bb5664,65d6bb0e977760de756971f7,65d6bebcc7c0f830c49a8d90,0.0365,0.0365,1,56,218,118,1,eightsix,,,,,,,,,,,,,,,,,,,,,,,,,,,,,,,,,,,,,,,,,,,,,,,,,,,,,,,,,,,,,,,,,,,,,,,,,,,,,,,,,,,,,,,,,,,,,,,,,,,,,,,,,,,,,,,,,,,,,,,,,,,,,,,,,,,,,,,,,
,,6458435bcc30319132bb5664,2024-02-22_13h26.10.520,kallum_motion_pilot,2023.2.2,Win32,166.6666667,6458435bcc30319132bb5664,65d6bb0e977760de756971f7,65d6bebcc7c0f830c49a8d90,0.0365,0.0367,1,57,219,92,1,sevenfive,,,,,,,,,,,,,,,,,,,,,,,,,,,,,,,,,,,,,,,,,,,,,,,,,,,,,,,,,,,,,,,,,,,,,,,,,,,,,,,,,,,,,,,,,,,,,,,,,,,,,,,,,,,,,,,,,,,,,,,,,,,,,,,,,,,,,,,,,
,,6458435bcc30319132bb5664,2024-02-22_13h26.10.520,kallum_motion_pilot,2023.2.2,Win32,166.6666667,6458435bcc30319132bb5664,65d6bb0e977760de756971f7,65d6bebcc7c0f830c49a8d90,0.0368,0.0368,1,58,220,84,1,sevenfive,,,,,,,,,,,,,,,,,,,,,,,,,,,,,,,,,,,,,,,,,,,,,,,,,,,,,,,,,,,,,,,,,,,,,,,,,,,,,,,,,,,,,,,,,,,,,,,,,,,,,,,,,,,,,,,,,,,,,,,,,,,,,,,,,,,,,,,,,
,,6458435bcc30319132bb5664,2024-02-22_13h26.10.520,kallum_motion_pilot,2023.2.2,Win32,166.6666667,6458435bcc30319132bb5664,65d6bb0e977760de756971f7,65d6bebcc7c0f830c49a8d90,0.0369,0.037,1,59,221,95,1,eightseven,,,,,,,,,,,,,,,,,,,,,,,,,,,,,,,,,,,,,,,,,,,,,,,,,,,,,,,,,,,,,,,,,,,,,,,,,,,,,,,,,,,,,,,,,,,,,,,,,,,,,,,,,,,,,,,,,,,,,,,,,,,,,,,,,,,,,,,,,
,,6458435bcc30319132bb5664,2024-02-22_13h26.10.520,kallum_motion_pilot,2023.2.2,Win32,166.6666667,6458435bcc30319132bb5664,65d6bb0e977760de756971f7,65d6bebcc7c0f830c49a8d90,0.037,0.037,1,60,222,158,1,eightsix,,,,,,,,,,,,,,,,,,,,,,,,,,,,,,,,,,,,,,,,,,,,,,,,,,,,,,,,,,,,,,,,,,,,,,,,,,,,,,,,,,,,,,,,,,,,,,,,,,,,,,,,,,,,,,,,,,,,,,,,,,,,,,,,,,,,,,,,,
,,6458435bcc30319132bb5664,2024-02-22_13h26.10.520,kallum_motion_pilot,2023.2.2,Win32,166.6666667,6458435bcc30319132bb5664,65d6bb0e977760de756971f7,65d6bebcc7c0f830c49a8d90,0.0371,0.0372,1,61,223,112,1,fivesix,,,,,,,,,,,,,,,,,,,,,,,,,,,,,,,,,,,,,,,,,,,,,,,,,,,,,,,,,,,,,,,,,,,,,,,,,,,,,,,,,,,,,,,,,,,,,,,,,,,,,,,,,,,,,,,,,,,,,,,,,,,,,,,,,,,,,,,,,
,,6458435bcc30319132bb5664,2024-02-22_13h26.10.520,kallum_motion_pilot,2023.2.2,Win32,166.6666667,6458435bcc30319132bb5664,65d6bb0e977760de756971f7,65d6bebcc7c0f830c49a8d90,0.0372,0.0372,1,62,224,7,1,fourthree,,,,,,,,,,,,,,,,,,,,,,,,,,,,,,,,,,,,,,,,,,,,,,,,,,,,,,,,,,,,,,,,,,,,,,,,,,,,,,,,,,,,,,,,,,,,,,,,,,,,,,,,,,,,,,,,,,,,,,,,,,,,,,,,,,,,,,,,,
,,6458435bcc30319132bb5664,2024-02-22_13h26.10.520,kallum_motion_pilot,2023.2.2,Win32,166.6666667,6458435bcc30319132bb5664,65d6bb0e977760de756971f7,65d6bebcc7c0f830c49a8d90,0.0373,0.0374,1,63,225,75,1,twofour,,,,,,,,,,,,,,,,,,,,,,,,,,,,,,,,,,,,,,,,,,,,,,,,,,,,,,,,,,,,,,,,,,,,,,,,,,,,,,,,,,,,,,,,,,,,,,,,,,,,,,,,,,,,,,,,,,,,,,,,,,,,,,,,,,,,,,,,,
,,6458435bcc30319132bb5664,2024-02-22_13h26.10.520,kallum_motion_pilot,2023.2.2,Win32,166.6666667,6458435bcc30319132bb5664,65d6bb0e977760de756971f7,65d6bebcc7c0f830c49a8d90,0.0375,0.0376,1,64,226,30,1,fourtwo,,,,,,,,,,,,,,,,,,,,,,,,,,,,,,,,,,,,,,,,,,,,,,,,,,,,,,,,,,,,,,,,,,,,,,,,,,,,,,,,,,,,,,,,,,,,,,,,,,,,,,,,,,,,,,,,,,,,,,,,,,,,,,,,,,,,,,,,,
,,6458435bcc30319132bb5664,2024-02-22_13h26.10.520,kallum_motion_pilot,2023.2.2,Win32,166.6666667,6458435bcc30319132bb5664,65d6bb0e977760de756971f7,65d6bebcc7c0f830c49a8d90,0.0377,0.0377,1,65,227,22,1,fourtwo,,,,,,,,,,,,,,,,,,,,,,,,,,,,,,,,,,,,,,,,,,,,,,,,,,,,,,,,,,,,,,,,,,,,,,,,,,,,,,,,,,,,,,,,,,,,,,,,,,,,,,,,,,,,,,,,,,,,,,,,,,,,,,,,,,,,,,,,,
,,6458435bcc30319132bb5664,2024-02-22_13h26.10.520,kallum_motion_pilot,2023.2.2,Win32,166.6666667,6458435bcc30319132bb5664,65d6bb0e977760de756971f7,65d6bebcc7c0f830c49a8d90,0.0378,0.0378,1,66,228,12,1,threeone,,,,,,,,,,,,,,,,,,,,,,,,,,,,,,,,,,,,,,,,,,,,,,,,,,,,,,,,,,,,,,,,,,,,,,,,,,,,,,,,,,,,,,,,,,,,,,,,,,,,,,,,,,,,,,,,,,,,,,,,,,,,,,,,,,,,,,,,,
,,6458435bcc30319132bb5664,2024-02-22_13h26.10.520,kallum_motion_pilot,2023.2.2,Win32,166.6666667,6458435bcc30319132bb5664,65d6bb0e977760de756971f7,65d6bebcc7c0f830c49a8d90,0.0379,0.038,1,67,229,45,1,threefour,,,,,,,,,,,,,,,,,,,,,,,,,,,,,,,,,,,,,,,,,,,,,,,,,,,,,,,,,,,,,,,,,,,,,,,,,,,,,,,,,,,,,,,,,,,,,,,,,,,,,,,,,,,,,,,,,,,,,,,,,,,,,,,,,,,,,,,,,
,,6458435bcc30319132bb5664,2024-02-22_13h26.10.520,kallum_motion_pilot,2023.2.2,Win32,166.6666667,6458435bcc30319132bb5664,65d6bb0e977760de756971f7,65d6bebcc7c0f830c49a8d90,0.038,0.0381,1,68,230,33,1,onethree,,,,,,,,,,,,,,,,,,,,,,,,,,,,,,,,,,,,,,,,,,,,,,,,,,,,,,,,,,,,,,,,,,,,,,,,,,,,,,,,,,,,,,,,,,,,,,,,,,,,,,,,,,,,,,,,,,,,,,,,,,,,,,,,,,,,,,,,,
,,6458435bcc30319132bb5664,2024-02-22_13h26.10.520,kallum_motion_pilot,2023.2.2,Win32,166.6666667,6458435bcc30319132bb5664,65d6bb0e977760de756971f7,65d6bebcc7c0f830c49a8d90,0.0382,0.0382,1,69,231,130,1,sixfive,,,,,,,,,,,,,,,,,,,,,,,,,,,,,,,,,,,,,,,,,,,,,,,,,,,,,,,,,,,,,,,,,,,,,,,,,,,,,,,,,,,,,,,,,,,,,,,,,,,,,,,,,,,,,,,,,,,,,,,,,,,,,,,,,,,,,,,,,
,,6458435bcc30319132bb5664,2024-02-22_13h26.10.520,kallum_motion_pilot,2023.2.2,Win32,166.6666667,6458435bcc30319132bb5664,65d6bb0e977760de756971f7,65d6bebcc7c0f830c49a8d90,0.0382,0.0383,1,70,232,46,1,fourtwo,,,,,,,,,,,,,,,,,,,,,,,,,,,,,,,,,,,,,,,,,,,,,,,,,,,,,,,,,,,,,,,,,,,,,,,,,,,,,,,,,,,,,,,,,,,,,,,,,,,,,,,,,,,,,,,,,,,,,,,,,,,,,,,,,,,,,,,,,
,,6458435bcc30319132bb5664,2024-02-22_13h26.10.520,kallum_motion_pilot,2023.2.2,Win32,166.6666667,6458435bcc30319132bb5664,65d6bb0e977760de756971f7,65d6bebcc7c0f830c49a8d90,0.0383,0.0383,1,71,233,54,1,fourtwo,,,,,,,,,,,,,,,,,,,,,,,,,,,,,,,,,,,,,,,,,,,,,,,,,,,,,,,,,,,,,,,,,,,,,,,,,,,,,,,,,,,,,,,,,,,,,,,,,,,,,,,,,,,,,,,,,,,,,,,,,,,,,,,,,,,,,,,,,
,,6458435bcc30319132bb5664,2024-02-22_13h26.10.520,kallum_motion_pilot,2023.2.2,Win32,166.6666667,6458435bcc30319132bb5664,65d6bb0e977760de756971f7,65d6bebcc7c0f830c49a8d90,0.0384,0.0385,1,72,234,150,1,eightsix,,,,,,,,,,,,,,,,,,,,,,,,,,,,,,,,,,,,,,,,,,,,,,,,,,,,,,,,,,,,,,,,,,,,,,,,,,,,,,,,,,,,,,,,,,,,,,,,,,,,,,,,,,,,,,,,,,,,,,,,,,,,,,,,,,,,,,,,,
,,6458435bcc30319132bb5664,2024-02-22_13h26.10.520,kallum_motion_pilot,2023.2.2,Win32,166.6666667,6458435bcc30319132bb5664,65d6bb0e977760de756971f7,65d6bebcc7c0f830c49a8d90,0.0385,0.0385,1,73,235,111,1,eightseven,,,,,,,,,,,,,,,,,,,,,,,,,,,,,,,,,,,,,,,,,,,,,,,,,,,,,,,,,,,,,,,,,,,,,,,,,,,,,,,,,,,,,,,,,,,,,,,,,,,,,,,,,,,,,,,,,,,,,,,,,,,,,,,,,,,,,,,,,
,,6458435bcc30319132bb5664,2024-02-22_13h26.10.520,kallum_motion_pilot,2023.2.2,Win32,166.6666667,6458435bcc30319132bb5664,65d6bb0e977760de756971f7,65d6bebcc7c0f830c49a8d90,0.0386,0.0387,1,74,236,96,1,fivesix,,,,,,,,,,,,,,,,,,,,,,,,,,,,,,,,,,,,,,,,,,,,,,,,,,,,,,,,,,,,,,,,,,,,,,,,,,,,,,,,,,,,,,,,,,,,,,,,,,,,,,,,,,,,,,,,,,,,,,,,,,,,,,,,,,,,,,,,,
,,6458435bcc30319132bb5664,2024-02-22_13h26.10.520,kallum_motion_pilot,2023.2.2,Win32,166.6666667,6458435bcc30319132bb5664,65d6bb0e977760de756971f7,65d6bebcc7c0f830c49a8d90,0.0387,0.0388,1,75,237,100,1,sevenfive,,,,,,,,,,,,,,,,,,,,,,,,,,,,,,,,,,,,,,,,,,,,,,,,,,,,,,,,,,,,,,,,,,,,,,,,,,,,,,,,,,,,,,,,,,,,,,,,,,,,,,,,,,,,,,,,,,,,,,,,,,,,,,,,,,,,,,,,,
,,6458435bcc30319132bb5664,2024-02-22_13h26.10.520,kallum_motion_pilot,2023.2.2,Win32,166.6666667,6458435bcc30319132bb5664,65d6bb0e977760de756971f7,65d6bebcc7c0f830c49a8d90,0.0388,0.0388,1,76,238,63,1,fourthree,,,,,,,,,,,,,,,,,,,,,,,,,,,,,,,,,,,,,,,,,,,,,,,,,,,,,,,,,,,,,,,,,,,,,,,,,,,,,,,,,,,,,,,,,,,,,,,,,,,,,,,,,,,,,,,,,,,,,,,,,,,,,,,,,,,,,,,,,
,,6458435bcc30319132bb5664,2024-02-22_13h26.10.520,kallum_motion_pilot,2023.2.2,Win32,166.6666667,6458435bcc30319132bb5664,65d6bb0e977760de756971f7,65d6bebcc7c0f830c49a8d90,0.039,0.039,1,77,239,103,1,eightseven,,,,,,,,,,,,,,,,,,,,,,,,,,,,,,,,,,,,,,,,,,,,,,,,,,,,,,,,,,,,,,,,,,,,,,,,,,,,,,,,,,,,,,,,,,,,,,,,,,,,,,,,,,,,,,,,,,,,,,,,,,,,,,,,,,,,,,,,,
,,6458435bcc30319132bb5664,2024-02-22_13h26.10.520,kallum_motion_pilot,2023.2.2,Win32,166.6666667,6458435bcc30319132bb5664,65d6bb0e977760de756971f7,65d6bebcc7c0f830c49a8d90,0.039,0.0391,1,78,240,70,1,fourtwo,,,,,,,,,,,,,,,,,,,,,,,,,,,,,,,,,,,,,,,,,,,,,,,,,,,,,,,,,,,,,,,,,,,,,,,,,,,,,,,,,,,,,,,,,,,,,,,,,,,,,,,,,,,,,,,,,,,,,,,,,,,,,,,,,,,,,,,,,
,,6458435bcc30319132bb5664,2024-02-22_13h26.10.520,kallum_motion_pilot,2023.2.2,Win32,166.6666667,6458435bcc30319132bb5664,65d6bb0e977760de756971f7,65d6bebcc7c0f830c49a8d90,0.0391,0.0392,1,79,241,34,1,twoone,,,,,,,,,,,,,,,,,,,,,,,,,,,,,,,,,,,,,,,,,,,,,,,,,,,,,,,,,,,,,,,,,,,,,,,,,,,,,,,,,,,,,,,,,,,,,,,,,,,,,,,,,,,,,,,,,,,,,,,,,,,,,,,,,,,,,,,,,
,,6458435bcc30319132bb5664,2024-02-22_13h26.10.520,kallum_motion_pilot,2023.2.2,Win32,166.6666667,6458435bcc30319132bb5664,65d6bb0e977760de756971f7,65d6bebcc7c0f830c49a8d90,0.0393,0.0393,1,80,242,40,1,onetwo,,,,,,,,,,,,,,,,,,,,,,,,,,,,,,,,,,,,,,,,,,,,,,,,,,,,,,,,,,,,,,,,,,,,,,,,,,,,,,,,,,,,,,,,,,,,,,,,,,,,,,,,,,,,,,,,,,,,,,,,,,,,,,,,,,,,,,,,,
,,6458435bcc30319132bb5664,2024-02-22_13h26.10.520,kallum_motion_pilot,2023.2.2,Win32,166.6666667,6458435bcc30319132bb5664,65d6bb0e977760de756971f7,65d6bebcc7c0f830c49a8d90,0.0393,0.0394,1,81,243,69,1,threefour,,,,,,,,,,,,,,,,,,,,,,,,,,,,,,,,,,,,,,,,,,,,,,,,,,,,,,,,,,,,,,,,,,,,,,,,,,,,,,,,,,,,,,,,,,,,,,,,,,,,,,,,,,,,,,,,,,,,,,,,,,,,,,,,,,,,,,,,,
,,6458435bcc30319132bb5664,2024-02-22_13h26.10.520,kallum_motion_pilot,2023.2.2,Win32,166.6666667,6458435bcc30319132bb5664,65d6bb0e977760de756971f7,65d6bebcc7c0f830c49a8d90,0.0394,0.0395,1,82,244,145,1,fiveseven,,,,,,,,,,,,,,,,,,,,,,,,,,,,,,,,,,,,,,,,,,,,,,,,,,,,,,,,,,,,,,,,,,,,,,,,,,,,,,,,,,,,,,,,,,,,,,,,,,,,,,,,,,,,,,,,,,,,,,,,,,,,,,,,,,,,,,,,,
,,6458435bcc30319132bb5664,2024-02-22_13h26.10.520,kallum_motion_pilot,2023.2.2,Win32,166.6666667,6458435bcc30319132bb5664,65d6bb0e977760de756971f7,65d6bebcc7c0f830c49a8d90,0.0396,0.0396,1,83,245,157,1,seveneight,,,,,,,,,,,,,,,,,,,,,,,,,,,,,,,,,,,,,,,,,,,,,,,,,,,,,,,,,,,,,,,,,,,,,,,,,,,,,,,,,,,,,,,,,,,,,,,,,,,,,,,,,,,,,,,,,,,,,,,,,,,,,,,,,,,,,,,,,
,,6458435bcc30319132bb5664,2024-02-22_13h26.10.520,kallum_motion_pilot,2023.2.2,Win32,166.6666667,6458435bcc30319132bb5664,65d6bb0e977760de756971f7,65d6bebcc7c0f830c49a8d90,0.0397,0.0397,1,84,246,91,1,sixeight,,,,,,,,,,,,,,,,,,,,,,,,,,,,,,,,,,,,,,,,,,,,,,,,,,,,,,,,,,,,,,,,,,,,,,,,,,,,,,,,,,,,,,,,,,,,,,,,,,,,,,,,,,,,,,,,,,,,,,,,,,,,,,,,,,,,,,,,,
,,6458435bcc30319132bb5664,2024-02-22_13h26.10.520,kallum_motion_pilot,2023.2.2,Win32,166.6666667,6458435bcc30319132bb5664,65d6bb0e977760de756971f7,65d6bebcc7c0f830c49a8d90,0.0398,0.0398,1,85,247,113,1,fiveseven,,,,,,,,,,,,,,,,,,,,,,,,,,,,,,,,,,,,,,,,,,,,,,,,,,,,,,,,,,,,,,,,,,,,,,,,,,,,,,,,,,,,,,,,,,,,,,,,,,,,,,,,,,,,,,,,,,,,,,,,,,,,,,,,,,,,,,,,,
,,6458435bcc30319132bb5664,2024-02-22_13h26.10.520,kallum_motion_pilot,2023.2.2,Win32,166.6666667,6458435bcc30319132bb5664,65d6bb0e977760de756971f7,65d6bebcc7c0f830c49a8d90,0.0399,0.0399,1,86,248,124,1,sevenfive,,,,,,,,,,,,,,,,,,,,,,,,,,,,,,,,,,,,,,,,,,,,,,,,,,,,,,,,,,,,,,,,,,,,,,,,,,,,,,,,,,,,,,,,,,,,,,,,,,,,,,,,,,,,,,,,,,,,,,,,,,,,,,,,,,,,,,,,,
,,6458435bcc30319132bb5664,2024-02-22_13h26.10.520,kallum_motion_pilot,2023.2.2,Win32,166.6666667,6458435bcc30319132bb5664,65d6bb0e977760de756971f7,65d6bebcc7c0f830c49a8d90,0.04,0.0401,1,87,249,32,1,onetwo,,,,,,,,,,,,,,,,,,,,,,,,,,,,,,,,,,,,,,,,,,,,,,,,,,,,,,,,,,,,,,,,,,,,,,,,,,,,,,,,,,,,,,,,,,,,,,,,,,,,,,,,,,,,,,,,,,,,,,,,,,,,,,,,,,,,,,,,,
,,6458435bcc30319132bb5664,2024-02-22_13h26.10.520,kallum_motion_pilot,2023.2.2,Win32,166.6666667,6458435bcc30319132bb5664,65d6bb0e977760de756971f7,65d6bebcc7c0f830c49a8d90,0.0401,0.0402,1,88,250,141,1,seveneight,,,,,,,,,,,,,,,,,,,,,,,,,,,,,,,,,,,,,,,,,,,,,,,,,,,,,,,,,,,,,,,,,,,,,,,,,,,,,,,,,,,,,,,,,,,,,,,,,,,,,,,,,,,,,,,,,,,,,,,,,,,,,,,,,,,,,,,,,
,,6458435bcc30319132bb5664,2024-02-22_13h26.10.520,kallum_motion_pilot,2023.2.2,Win32,166.6666667,6458435bcc30319132bb5664,65d6bb0e977760de756971f7,65d6bebcc7c0f830c49a8d90,0.0402,0.0403,1,89,251,116,1,sevenfive,,,,,,,,,,,,,,,,,,,,,,,,,,,,,,,,,,,,,,,,,,,,,,,,,,,,,,,,,,,,,,,,,,,,,,,,,,,,,,,,,,,,,,,,,,,,,,,,,,,,,,,,,,,,,,,,,,,,,,,,,,,,,,,,,,,,,,,,,
,,6458435bcc30319132bb5664,2024-02-22_13h26.10.520,kallum_motion_pilot,2023.2.2,Win32,166.6666667,6458435bcc30319132bb5664,65d6bb0e977760de756971f7,65d6bebcc7c0f830c49a8d90,0.0403,0.0403,1,90,252,9,1,onethree,,,,,,,,,,,,,,,,,,,,,,,,,,,,,,,,,,,,,,,,,,,,,,,,,,,,,,,,,,,,,,,,,,,,,,,,,,,,,,,,,,,,,,,,,,,,,,,,,,,,,,,,,,,,,,,,,,,,,,,,,,,,,,,,,,,,,,,,,
,,6458435bcc30319132bb5664,2024-02-22_13h26.10.520,kallum_motion_pilot,2023.2.2,Win32,166.6666667,6458435bcc30319132bb5664,65d6bb0e977760de756971f7,65d6bebcc7c0f830c49a8d90,0.0404,0.0404,1,91,253,25,1,onethree,,,,,,,,,,,,,,,,,,,,,,,,,,,,,,,,,,,,,,,,,,,,,,,,,,,,,,,,,,,,,,,,,,,,,,,,,,,,,,,,,,,,,,,,,,,,,,,,,,,,,,,,,,,,,,,,,,,,,,,,,,,,,,,,,,,,,,,,,
,,6458435bcc30319132bb5664,2024-02-22_13h26.10.520,kallum_motion_pilot,2023.2.2,Win32,166.6666667,6458435bcc30319132bb5664,65d6bb0e977760de756971f7,65d6bebcc7c0f830c49a8d90,0.0405,0.0405,1,92,254,66,1,twoone,,,,,,,,,,,,,,,,,,,,,,,,,,,,,,,,,,,,,,,,,,,,,,,,,,,,,,,,,,,,,,,,,,,,,,,,,,,,,,,,,,,,,,,,,,,,,,,,,,,,,,,,,,,,,,,,,,,,,,,,,,,,,,,,,,,,,,,,,
,,6458435bcc30319132bb5664,2024-02-22_13h26.10.520,kallum_motion_pilot,2023.2.2,Win32,166.6666667,6458435bcc30319132bb5664,65d6bb0e977760de756971f7,65d6bebcc7c0f830c49a8d90,0.0406,0.0407,1,93,255,49,1,onethree,,,,,,,,,,,,,,,,,,,,,,,,,,,,,,,,,,,,,,,,,,,,,,,,,,,,,,,,,,,,,,,,,,,,,,,,,,,,,,,,,,,,,,,,,,,,,,,,,,,,,,,,,,,,,,,,,,,,,,,,,,,,,,,,,,,,,,,,,
,,6458435bcc30319132bb5664,2024-02-22_13h26.10.520,kallum_motion_pilot,2023.2.2,Win32,166.6666667,6458435bcc30319132bb5664,65d6bb0e977760de756971f7,65d6bebcc7c0f830c49a8d90,0.0407,0.0408,1,94,256,98,1,sixfive,,,,,,,,,,,,,,,,,,,,,,,,,,,,,,,,,,,,,,,,,,,,,,,,,,,,,,,,,,,,,,,,,,,,,,,,,,,,,,,,,,,,,,,,,,,,,,,,,,,,,,,,,,,,,,,,,,,,,,,,,,,,,,,,,,,,,,,,,
,,6458435bcc30319132bb5664,2024-02-22_13h26.10.520,kallum_motion_pilot,2023.2.2,Win32,166.6666667,6458435bcc30319132bb5664,65d6bb0e977760de756971f7,65d6bebcc7c0f830c49a8d90,0.0408,0.0409,1,95,257,73,1,onethree,,,,,,,,,,,,,,,,,,,,,,,,,,,,,,,,,,,,,,,,,,,,,,,,,,,,,,,,,,,,,,,,,,,,,,,,,,,,,,,,,,,,,,,,,,,,,,,,,,,,,,,,,,,,,,,,,,,,,,,,,,,,,,,,,,,,,,,,,
,,6458435bcc30319132bb5664,2024-02-22_13h26.10.520,kallum_motion_pilot,2023.2.2,Win32,166.6666667,6458435bcc30319132bb5664,65d6bb0e977760de756971f7,65d6bebcc7c0f830c49a8d90,0.0409,0.041,1,96,258,52,1,threeone,,,,,,,,,,,,,,,,,,,,,,,,,,,,,,,,,,,,,,,,,,,,,,,,,,,,,,,,,,,,,,,,,,,,,,,,,,,,,,,,,,,,,,,,,,,,,,,,,,,,,,,,,,,,,,,,,,,,,,,,,,,,,,,,,,,,,,,,,
,,6458435bcc30319132bb5664,2024-02-22_13h26.10.520,kallum_motion_pilot,2023.2.2,Win32,166.6666667,6458435bcc30319132bb5664,65d6bb0e977760de756971f7,65d6bebcc7c0f830c49a8d90,0.041,0.0411,1,97,259,36,1,threeone,,,,,,,,,,,,,,,,,,,,,,,,,,,,,,,,,,,,,,,,,,,,,,,,,,,,,,,,,,,,,,,,,,,,,,,,,,,,,,,,,,,,,,,,,,,,,,,,,,,,,,,,,,,,,,,,,,,,,,,,,,,,,,,,,,,,,,,,,
,,6458435bcc30319132bb5664,2024-02-22_13h26.10.520,kallum_motion_pilot,2023.2.2,Win32,166.6666667,6458435bcc30319132bb5664,65d6bb0e977760de756971f7,65d6bebcc7c0f830c49a8d90,0.0411,0.0412,1,98,260,146,1,sixfive,,,,,,,,,,,,,,,,,,,,,,,,,,,,,,,,,,,,,,,,,,,,,,,,,,,,,,,,,,,,,,,,,,,,,,,,,,,,,,,,,,,,,,,,,,,,,,,,,,,,,,,,,,,,,,,,,,,,,,,,,,,,,,,,,,,,,,,,,
,,6458435bcc30319132bb5664,2024-02-22_13h26.10.520,kallum_motion_pilot,2023.2.2,Win32,166.6666667,6458435bcc30319132bb5664,65d6bb0e977760de756971f7,65d6bebcc7c0f830c49a8d90,0.0412,0.0413,1,99,261,107,1,sixeight,,,,,,,,,,,,,,,,,,,,,,,,,,,,,,,,,,,,,,,,,,,,,,,,,,,,,,,,,,,,,,,,,,,,,,,,,,,,,,,,,,,,,,,,,,,,,,,,,,,,,,,,,,,,,,,,,,,,,,,,,,,,,,,,,,,,,,,,,
,,6458435bcc30319132bb5664,2024-02-22_13h26.10.520,kallum_motion_pilot,2023.2.2,Win32,166.6666667,6458435bcc30319132bb5664,65d6bb0e977760de756971f7,65d6bebcc7c0f830c49a8d90,0.0413,0.0414,1,100,262,10,1,twoone,,,,,,,,,,,,,,,,,,,,,,,,,,,,,,,,,,,,,,,,,,,,,,,,,,,,,,,,,,,,,,,,,,,,,,,,,,,,,,,,,,,,,,,,,,,,,,,,,,,,,,,,,,,,,,,,,,,,,,,,,,,,,,,,,,,,,,,,,
,,6458435bcc30319132bb5664,2024-02-22_13h26.10.520,kallum_motion_pilot,2023.2.2,Win32,166.6666667,6458435bcc30319132bb5664,65d6bb0e977760de756971f7,65d6bebcc7c0f830c49a8d90,0.0415,0.0415,1,101,263,135,1,eightseven,,,,,,,,,,,,,,,,,,,,,,,,,,,,,,,,,,,,,,,,,,,,,,,,,,,,,,,,,,,,,,,,,,,,,,,,,,,,,,,,,,,,,,,,,,,,,,,,,,,,,,,,,,,,,,,,,,,,,,,,,,,,,,,,,,,,,,,,,
,,6458435bcc30319132bb5664,2024-02-22_13h26.10.520,kallum_motion_pilot,2023.2.2,Win32,166.6666667,6458435bcc30319132bb5664,65d6bb0e977760de756971f7,65d6bebcc7c0f830c49a8d90,0.0416,0.0416,1,102,264,140,1,sevenfive,,,,,,,,,,,,,,,,,,,,,,,,,,,,,,,,,,,,,,,,,,,,,,,,,,,,,,,,,,,,,,,,,,,,,,,,,,,,,,,,,,,,,,,,,,,,,,,,,,,,,,,,,,,,,,,,,,,,,,,,,,,,,,,,,,,,,,,,,
,,6458435bcc30319132bb5664,2024-02-22_13h26.10.520,kallum_motion_pilot,2023.2.2,Win32,166.6666667,6458435bcc30319132bb5664,65d6bb0e977760de756971f7,65d6bebcc7c0f830c49a8d90,0.0418,0.0418,1,103,265,42,1,twoone,,,,,,,,,,,,,,,,,,,,,,,,,,,,,,,,,,,,,,,,,,,,,,,,,,,,,,,,,,,,,,,,,,,,,,,,,,,,,,,,,,,,,,,,,,,,,,,,,,,,,,,,,,,,,,,,,,,,,,,,,,,,,,,,,,,,,,,,,
,,6458435bcc30319132bb5664,2024-02-22_13h26.10.520,kallum_motion_pilot,2023.2.2,Win32,166.6666667,6458435bcc30319132bb5664,65d6bb0e977760de756971f7,65d6bebcc7c0f830c49a8d90,0.0418,0.0419,1,104,266,64,1,onetwo,,,,,,,,,,,,,,,,,,,,,,,,,,,,,,,,,,,,,,,,,,,,,,,,,,,,,,,,,,,,,,,,,,,,,,,,,,,,,,,,,,,,,,,,,,,,,,,,,,,,,,,,,,,,,,,,,,,,,,,,,,,,,,,,,,,,,,,,,
,,6458435bcc30319132bb5664,2024-02-22_13h26.10.520,kallum_motion_pilot,2023.2.2,Win32,166.6666667,6458435bcc30319132bb5664,65d6bb0e977760de756971f7,65d6bebcc7c0f830c49a8d90,0.042,0.042,1,105,267,97,1,fiveseven,,,,,,,,,,,,,,,,,,,,,,,,,,,,,,,,,,,,,,,,,,,,,,,,,,,,,,,,,,,,,,,,,,,,,,,,,,,,,,,,,,,,,,,,,,,,,,,,,,,,,,,,,,,,,,,,,,,,,,,,,,,,,,,,,,,,,,,,,
,,6458435bcc30319132bb5664,2024-02-22_13h26.10.520,kallum_motion_pilot,2023.2.2,Win32,166.6666667,6458435bcc30319132bb5664,65d6bb0e977760de756971f7,65d6bebcc7c0f830c49a8d90,0.042,0.0421,1,106,268,43,1,twofour,,,,,,,,,,,,,,,,,,,,,,,,,,,,,,,,,,,,,,,,,,,,,,,,,,,,,,,,,,,,,,,,,,,,,,,,,,,,,,,,,,,,,,,,,,,,,,,,,,,,,,,,,,,,,,,,,,,,,,,,,,,,,,,,,,,,,,,,,
,,6458435bcc30319132bb5664,2024-02-22_13h26.10.520,kallum_motion_pilot,2023.2.2,Win32,166.6666667,6458435bcc30319132bb5664,65d6bb0e977760de756971f7,65d6bebcc7c0f830c49a8d90,0.0421,0.0422,1,107,269,153,1,fiveseven,,,,,,,,,,,,,,,,,,,,,,,,,,,,,,,,,,,,,,,,,,,,,,,,,,,,,,,,,,,,,,,,,,,,,,,,,,,,,,,,,,,,,,,,,,,,,,,,,,,,,,,,,,,,,,,,,,,,,,,,,,,,,,,,,,,,,,,,,
,,6458435bcc30319132bb5664,2024-02-22_13h26.10.520,kallum_motion_pilot,2023.2.2,Win32,166.6666667,6458435bcc30319132bb5664,65d6bb0e977760de756971f7,65d6bebcc7c0f830c49a8d90,0.0423,0.0424,1,108,270,17,1,onethree,,,,,,,,,,,,,,,,,,,,,,,,,,,,,,,,,,,,,,,,,,,,,,,,,,,,,,,,,,,,,,,,,,,,,,,,,,,,,,,,,,,,,,,,,,,,,,,,,,,,,,,,,,,,,,,,,,,,,,,,,,,,,,,,,,,,,,,,,
,,6458435bcc30319132bb5664,2024-02-22_13h26.10.520,kallum_motion_pilot,2023.2.2,Win32,166.6666667,6458435bcc30319132bb5664,65d6bb0e977760de756971f7,65d6bebcc7c0f830c49a8d90,0.0424,0.0425,1,109,271,120,1,fivesix,,,,,,,,,,,,,,,,,,,,,,,,,,,,,,,,,,,,,,,,,,,,,,,,,,,,,,,,,,,,,,,,,,,,,,,,,,,,,,,,,,,,,,,,,,,,,,,,,,,,,,,,,,,,,,,,,,,,,,,,,,,,,,,,,,,,,,,,,
,,6458435bcc30319132bb5664,2024-02-22_13h26.10.520,kallum_motion_pilot,2023.2.2,Win32,166.6666667,6458435bcc30319132bb5664,65d6bb0e977760de756971f7,65d6bebcc7c0f830c49a8d90,0.0425,0.0426,1,110,272,4,1,threeone,,,,,,,,,,,,,,,,,,,,,,,,,,,,,,,,,,,,,,,,,,,,,,,,,,,,,,,,,,,,,,,,,,,,,,,,,,,,,,,,,,,,,,,,,,,,,,,,,,,,,,,,,,,,,,,,,,,,,,,,,,,,,,,,,,,,,,,,,
,,6458435bcc30319132bb5664,2024-02-22_13h26.10.520,kallum_motion_pilot,2023.2.2,Win32,166.6666667,6458435bcc30319132bb5664,65d6bb0e977760de756971f7,65d6bebcc7c0f830c49a8d90,0.0426,0.0427,1,111,273,131,1,sixeight,,,,,,,,,,,,,,,,,,,,,,,,,,,,,,,,,,,,,,,,,,,,,,,,,,,,,,,,,,,,,,,,,,,,,,,,,,,,,,,,,,,,,,,,,,,,,,,,,,,,,,,,,,,,,,,,,,,,,,,,,,,,,,,,,,,,,,,,,
,,6458435bcc30319132bb5664,2024-02-22_13h26.10.520,kallum_motion_pilot,2023.2.2,Win32,166.6666667,6458435bcc30319132bb5664,65d6bb0e977760de756971f7,65d6bebcc7c0f830c49a8d90,0.0427,0.0428,1,112,274,81,1,fiveseven,,,,,,,,,,,,,,,,,,,,,,,,,,,,,,,,,,,,,,,,,,,,,,,,,,,,,,,,,,,,,,,,,,,,,,,,,,,,,,,,,,,,,,,,,,,,,,,,,,,,,,,,,,,,,,,,,,,,,,,,,,,,,,,,,,,,,,,,,
,,6458435bcc30319132bb5664,2024-02-22_13h26.10.520,kallum_motion_pilot,2023.2.2,Win32,166.6666667,6458435bcc30319132bb5664,65d6bb0e977760de756971f7,65d6bebcc7c0f830c49a8d90,0.0428,0.0429,1,113,275,76,1,threeone,,,,,,,,,,,,,,,,,,,,,,,,,,,,,,,,,,,,,,,,,,,,,,,,,,,,,,,,,,,,,,,,,,,,,,,,,,,,,,,,,,,,,,,,,,,,,,,,,,,,,,,,,,,,,,,,,,,,,,,,,,,,,,,,,,,,,,,,,
,,6458435bcc30319132bb5664,2024-02-22_13h26.10.520,kallum_motion_pilot,2023.2.2,Win32,166.6666667,6458435bcc30319132bb5664,65d6bb0e977760de756971f7,65d6bebcc7c0f830c49a8d90,0.0429,0.0429,1,114,276,57,1,onethree,,,,,,,,,,,,,,,,,,,,,,,,,,,,,,,,,,,,,,,,,,,,,,,,,,,,,,,,,,,,,,,,,,,,,,,,,,,,,,,,,,,,,,,,,,,,,,,,,,,,,,,,,,,,,,,,,,,,,,,,,,,,,,,,,,,,,,,,,
,,6458435bcc30319132bb5664,2024-02-22_13h26.10.520,kallum_motion_pilot,2023.2.2,Win32,166.6666667,6458435bcc30319132bb5664,65d6bb0e977760de756971f7,65d6bebcc7c0f830c49a8d90,0.043,0.0431,1,115,277,74,1,twoone,,,,,,,,,,,,,,,,,,,,,,,,,,,,,,,,,,,,,,,,,,,,,,,,,,,,,,,,,,,,,,,,,,,,,,,,,,,,,,,,,,,,,,,,,,,,,,,,,,,,,,,,,,,,,,,,,,,,,,,,,,,,,,,,,,,,,,,,,
