startup.started,startup.stopped,Prolific ID*,date,expName,psychopyVersion,OS,frameRate,participant,study_id,session,stimpositions.started,stimpositions.stopped,hardcoded_stimulus_positions.thisRepN,hardcoded_stimulus_positions.thisTrialN,hardcoded_stimulus_positions.thisN,hardcoded_stimulus_positions.thisIndex,hardcoded_stimulus_positions.ran,StimulusPos,stimorientation.started,stimorientation.stopped,prac_stimorientation_import_loop.thisRepN,prac_stimorientation_import_loop.thisTrialN,prac_stimorientation_import_loop.thisN,prac_stimorientation_import_loop.thisIndex,prac_stimorientation_import_loop.ran,Stimorientation,welcome_instr.started,welcome_instr.stopped,key_resp.keys,key_resp.rt,key_resp.duration,response_steppedout_1.started,response_steppedout_1.stopped,key_resp_20.keys,key_resp_20.rt,key_resp_20.duration,response_steppedout_2.started,response_steppedout_2.stopped,key_resp_19.keys,key_resp_19.rt,key_resp_19.duration,stim_response_instr.started,stim_response_instr.stopped,key_resp_15.keys,key_resp_15.rt,key_resp_15.duration,direction_instr_2.started,direction_instr_2.stopped,key_resp_9.keys,key_resp_9.rt,key_resp_9.duration,instr_prac.started,instr_prac.stopped,key_resp_10.keys,key_resp_10.rt,key_resp_10.duration,Stim1_display_prac.started,Stim1_display_prac.stopped,Ecc,Circle1_ori,Circle2_ori,response_prac.started,similarity,response_time,response_prac.stopped,mouse_5.x,mouse_5.y,mouse_5.leftButton,mouse_5.midButton,mouse_5.rightButton,mouse_5.clicked_name,responseprac_feedback.started,responseprac_feedback.stopped,summary2_prac.started,summary2_prac.stopped,mouse_6.x,mouse_6.y,mouse_6.leftButton,mouse_6.midButton,mouse_6.rightButton,mouse_6.clicked_name,duringprac.thisRepN,duringprac.thisTrialN,duringprac.thisN,duringprac.thisIndex,duringprac.ran,begin.started,begin.stopped,key_resp_22.keys,key_resp_22.rt,key_resp_22.duration,Stim1_display.started,Stim1_display.stopped,circle1_ori,circle2_ori,circle1_SF,circle2_SF,response.started,response.stopped,mouse.x,mouse.y,mouse.leftButton,mouse.midButton,mouse.rightButton,mouse.clicked_name,trialnumber,double_pass.thisRepN,double_pass.thisTrialN,double_pass.thisN,double_pass.thisIndex,double_pass.ran,double_pass.order,main_trial.thisRepN,main_trial.thisTrialN,main_trial.thisN,main_trial.thisIndex,main_trial.ran,main_trial.order,Trial_Counter,Catch,Frequencies,response_2.started,response_2.stopped,mouse_2.x,mouse_2.y,mouse_2.leftButton,mouse_2.midButton,mouse_2.rightButton,mouse_2.clicked_name,special_trial.started,special_trial.stopped,catch_1.started,catch_1.stopped,mouse_3.x,mouse_3.y,mouse_3.leftButton,mouse_3.midButton,mouse_3.rightButton,catchresponse,catchnumber,response_time_catch,response_sum.started,response_sum.stopped,mouse_11.x,mouse_11.y,mouse_11.leftButton,mouse_11.midButton,mouse_11.rightButton,flip_presentation_sequence_for_double_pass.started,flip_presentation_sequence_for_double_pass.stopped,goodbye.started,goodbye.stopped,key_resp_3.keys,key_resp_3.rt,key_resp_3.duration
0.0003,0.0004,6463f56c88a5a54f57c01934,2024-02-19_15h16.31.163,kallum_motion_pilot,2023.2.2,Linux x86_64,60.24096386,6463f56c88a5a54f57c01934,65d2b6c8f2eece985d8e374c,65d2b9eb8ef7007ba45af97e,,,,,,,,,,,,,,,,,,,,,,,,,,,,,,,,,,,,,,,,,,,,,,,,,,,,,,,,,,,,,,,,,,,,,,,,,,,,,,,,,,,,,,,,,,,,,,,,,,,,,,,,,,,,,,,,,,,,,,,,,,,,,,,,,,,,,,,,,,,,,,,,,
,,6463f56c88a5a54f57c01934,2024-02-19_15h16.31.163,kallum_motion_pilot,2023.2.2,Linux x86_64,60.24096386,6463f56c88a5a54f57c01934,65d2b6c8f2eece985d8e374c,65d2b9eb8ef7007ba45af97e,0.0255,0.0258,0,0,0,131,1,sixeight,,,,,,,,,,,,,,,,,,,,,,,,,,,,,,,,,,,,,,,,,,,,,,,,,,,,,,,,,,,,,,,,,,,,,,,,,,,,,,,,,,,,,,,,,,,,,,,,,,,,,,,,,,,,,,,,,,,,,,,,,,,,,,,,,,,,,,,,,
,,6463f56c88a5a54f57c01934,2024-02-19_15h16.31.163,kallum_motion_pilot,2023.2.2,Linux x86_64,60.24096386,6463f56c88a5a54f57c01934,65d2b6c8f2eece985d8e374c,65d2b9eb8ef7007ba45af97e,0.026,0.026,0,1,1,145,1,fiveseven,,,,,,,,,,,,,,,,,,,,,,,,,,,,,,,,,,,,,,,,,,,,,,,,,,,,,,,,,,,,,,,,,,,,,,,,,,,,,,,,,,,,,,,,,,,,,,,,,,,,,,,,,,,,,,,,,,,,,,,,,,,,,,,,,,,,,,,,,
,,6463f56c88a5a54f57c01934,2024-02-19_15h16.31.163,kallum_motion_pilot,2023.2.2,Linux x86_64,60.24096386,6463f56c88a5a54f57c01934,65d2b6c8f2eece985d8e374c,65d2b9eb8ef7007ba45af97e,0.0262,0.0262,0,2,2,84,1,sevenfive,,,,,,,,,,,,,,,,,,,,,,,,,,,,,,,,,,,,,,,,,,,,,,,,,,,,,,,,,,,,,,,,,,,,,,,,,,,,,,,,,,,,,,,,,,,,,,,,,,,,,,,,,,,,,,,,,,,,,,,,,,,,,,,,,,,,,,,,,
,,6463f56c88a5a54f57c01934,2024-02-19_15h16.31.163,kallum_motion_pilot,2023.2.2,Linux x86_64,60.24096386,6463f56c88a5a54f57c01934,65d2b6c8f2eece985d8e374c,65d2b9eb8ef7007ba45af97e,0.0264,0.0264,0,3,3,48,1,onetwo,,,,,,,,,,,,,,,,,,,,,,,,,,,,,,,,,,,,,,,,,,,,,,,,,,,,,,,,,,,,,,,,,,,,,,,,,,,,,,,,,,,,,,,,,,,,,,,,,,,,,,,,,,,,,,,,,,,,,,,,,,,,,,,,,,,,,,,,,
,,6463f56c88a5a54f57c01934,2024-02-19_15h16.31.163,kallum_motion_pilot,2023.2.2,Linux x86_64,60.24096386,6463f56c88a5a54f57c01934,65d2b6c8f2eece985d8e374c,65d2b9eb8ef7007ba45af97e,0.0266,0.0266,0,4,4,64,1,onetwo,,,,,,,,,,,,,,,,,,,,,,,,,,,,,,,,,,,,,,,,,,,,,,,,,,,,,,,,,,,,,,,,,,,,,,,,,,,,,,,,,,,,,,,,,,,,,,,,,,,,,,,,,,,,,,,,,,,,,,,,,,,,,,,,,,,,,,,,,
,,6463f56c88a5a54f57c01934,2024-02-19_15h16.31.163,kallum_motion_pilot,2023.2.2,Linux x86_64,60.24096386,6463f56c88a5a54f57c01934,65d2b6c8f2eece985d8e374c,65d2b9eb8ef7007ba45af97e,0.0267,0.0267,0,5,5,63,1,fourthree,,,,,,,,,,,,,,,,,,,,,,,,,,,,,,,,,,,,,,,,,,,,,,,,,,,,,,,,,,,,,,,,,,,,,,,,,,,,,,,,,,,,,,,,,,,,,,,,,,,,,,,,,,,,,,,,,,,,,,,,,,,,,,,,,,,,,,,,,
,,6463f56c88a5a54f57c01934,2024-02-19_15h16.31.163,kallum_motion_pilot,2023.2.2,Linux x86_64,60.24096386,6463f56c88a5a54f57c01934,65d2b6c8f2eece985d8e374c,65d2b9eb8ef7007ba45af97e,0.0268,0.0268,0,6,6,116,1,sevenfive,,,,,,,,,,,,,,,,,,,,,,,,,,,,,,,,,,,,,,,,,,,,,,,,,,,,,,,,,,,,,,,,,,,,,,,,,,,,,,,,,,,,,,,,,,,,,,,,,,,,,,,,,,,,,,,,,,,,,,,,,,,,,,,,,,,,,,,,,
,,6463f56c88a5a54f57c01934,2024-02-19_15h16.31.163,kallum_motion_pilot,2023.2.2,Linux x86_64,60.24096386,6463f56c88a5a54f57c01934,65d2b6c8f2eece985d8e374c,65d2b9eb8ef7007ba45af97e,0.0269,0.027,0,7,7,102,1,eightsix,,,,,,,,,,,,,,,,,,,,,,,,,,,,,,,,,,,,,,,,,,,,,,,,,,,,,,,,,,,,,,,,,,,,,,,,,,,,,,,,,,,,,,,,,,,,,,,,,,,,,,,,,,,,,,,,,,,,,,,,,,,,,,,,,,,,,,,,,
,,6463f56c88a5a54f57c01934,2024-02-19_15h16.31.163,kallum_motion_pilot,2023.2.2,Linux x86_64,60.24096386,6463f56c88a5a54f57c01934,65d2b6c8f2eece985d8e374c,65d2b9eb8ef7007ba45af97e,0.027,0.0271,0,8,8,120,1,fivesix,,,,,,,,,,,,,,,,,,,,,,,,,,,,,,,,,,,,,,,,,,,,,,,,,,,,,,,,,,,,,,,,,,,,,,,,,,,,,,,,,,,,,,,,,,,,,,,,,,,,,,,,,,,,,,,,,,,,,,,,,,,,,,,,,,,,,,,,,
,,6463f56c88a5a54f57c01934,2024-02-19_15h16.31.163,kallum_motion_pilot,2023.2.2,Linux x86_64,60.24096386,6463f56c88a5a54f57c01934,65d2b6c8f2eece985d8e374c,65d2b9eb8ef7007ba45af97e,0.0273,0.0274,0,9,9,45,1,threefour,,,,,,,,,,,,,,,,,,,,,,,,,,,,,,,,,,,,,,,,,,,,,,,,,,,,,,,,,,,,,,,,,,,,,,,,,,,,,,,,,,,,,,,,,,,,,,,,,,,,,,,,,,,,,,,,,,,,,,,,,,,,,,,,,,,,,,,,,
,,6463f56c88a5a54f57c01934,2024-02-19_15h16.31.163,kallum_motion_pilot,2023.2.2,Linux x86_64,60.24096386,6463f56c88a5a54f57c01934,65d2b6c8f2eece985d8e374c,65d2b9eb8ef7007ba45af97e,0.0275,0.0276,0,10,10,123,1,sixeight,,,,,,,,,,,,,,,,,,,,,,,,,,,,,,,,,,,,,,,,,,,,,,,,,,,,,,,,,,,,,,,,,,,,,,,,,,,,,,,,,,,,,,,,,,,,,,,,,,,,,,,,,,,,,,,,,,,,,,,,,,,,,,,,,,,,,,,,,
,,6463f56c88a5a54f57c01934,2024-02-19_15h16.31.163,kallum_motion_pilot,2023.2.2,Linux x86_64,60.24096386,6463f56c88a5a54f57c01934,65d2b6c8f2eece985d8e374c,65d2b9eb8ef7007ba45af97e,0.0276,0.0276,0,11,11,44,1,threeone,,,,,,,,,,,,,,,,,,,,,,,,,,,,,,,,,,,,,,,,,,,,,,,,,,,,,,,,,,,,,,,,,,,,,,,,,,,,,,,,,,,,,,,,,,,,,,,,,,,,,,,,,,,,,,,,,,,,,,,,,,,,,,,,,,,,,,,,,
,,6463f56c88a5a54f57c01934,2024-02-19_15h16.31.163,kallum_motion_pilot,2023.2.2,Linux x86_64,60.24096386,6463f56c88a5a54f57c01934,65d2b6c8f2eece985d8e374c,65d2b9eb8ef7007ba45af97e,0.0277,0.0278,0,12,12,148,1,sevenfive,,,,,,,,,,,,,,,,,,,,,,,,,,,,,,,,,,,,,,,,,,,,,,,,,,,,,,,,,,,,,,,,,,,,,,,,,,,,,,,,,,,,,,,,,,,,,,,,,,,,,,,,,,,,,,,,,,,,,,,,,,,,,,,,,,,,,,,,,
,,6463f56c88a5a54f57c01934,2024-02-19_15h16.31.163,kallum_motion_pilot,2023.2.2,Linux x86_64,60.24096386,6463f56c88a5a54f57c01934,65d2b6c8f2eece985d8e374c,65d2b9eb8ef7007ba45af97e,0.0278,0.0279,0,13,13,101,1,seveneight,,,,,,,,,,,,,,,,,,,,,,,,,,,,,,,,,,,,,,,,,,,,,,,,,,,,,,,,,,,,,,,,,,,,,,,,,,,,,,,,,,,,,,,,,,,,,,,,,,,,,,,,,,,,,,,,,,,,,,,,,,,,,,,,,,,,,,,,,
,,6463f56c88a5a54f57c01934,2024-02-19_15h16.31.163,kallum_motion_pilot,2023.2.2,Linux x86_64,60.24096386,6463f56c88a5a54f57c01934,65d2b6c8f2eece985d8e374c,65d2b9eb8ef7007ba45af97e,0.0279,0.028,0,14,14,37,1,threefour,,,,,,,,,,,,,,,,,,,,,,,,,,,,,,,,,,,,,,,,,,,,,,,,,,,,,,,,,,,,,,,,,,,,,,,,,,,,,,,,,,,,,,,,,,,,,,,,,,,,,,,,,,,,,,,,,,,,,,,,,,,,,,,,,,,,,,,,,
,,6463f56c88a5a54f57c01934,2024-02-19_15h16.31.163,kallum_motion_pilot,2023.2.2,Linux x86_64,60.24096386,6463f56c88a5a54f57c01934,65d2b6c8f2eece985d8e374c,65d2b9eb8ef7007ba45af97e,0.028,0.028,0,15,15,36,1,threeone,,,,,,,,,,,,,,,,,,,,,,,,,,,,,,,,,,,,,,,,,,,,,,,,,,,,,,,,,,,,,,,,,,,,,,,,,,,,,,,,,,,,,,,,,,,,,,,,,,,,,,,,,,,,,,,,,,,,,,,,,,,,,,,,,,,,,,,,,
,,6463f56c88a5a54f57c01934,2024-02-19_15h16.31.163,kallum_motion_pilot,2023.2.2,Linux x86_64,60.24096386,6463f56c88a5a54f57c01934,65d2b6c8f2eece985d8e374c,65d2b9eb8ef7007ba45af97e,0.0281,0.0282,0,16,16,43,1,twofour,,,,,,,,,,,,,,,,,,,,,,,,,,,,,,,,,,,,,,,,,,,,,,,,,,,,,,,,,,,,,,,,,,,,,,,,,,,,,,,,,,,,,,,,,,,,,,,,,,,,,,,,,,,,,,,,,,,,,,,,,,,,,,,,,,,,,,,,,
,,6463f56c88a5a54f57c01934,2024-02-19_15h16.31.163,kallum_motion_pilot,2023.2.2,Linux x86_64,60.24096386,6463f56c88a5a54f57c01934,65d2b6c8f2eece985d8e374c,65d2b9eb8ef7007ba45af97e,0.0282,0.0282,0,17,17,70,1,fourtwo,,,,,,,,,,,,,,,,,,,,,,,,,,,,,,,,,,,,,,,,,,,,,,,,,,,,,,,,,,,,,,,,,,,,,,,,,,,,,,,,,,,,,,,,,,,,,,,,,,,,,,,,,,,,,,,,,,,,,,,,,,,,,,,,,,,,,,,,,
,,6463f56c88a5a54f57c01934,2024-02-19_15h16.31.163,kallum_motion_pilot,2023.2.2,Linux x86_64,60.24096386,6463f56c88a5a54f57c01934,65d2b6c8f2eece985d8e374c,65d2b9eb8ef7007ba45af97e,0.0283,0.0283,0,18,18,23,1,fourthree,,,,,,,,,,,,,,,,,,,,,,,,,,,,,,,,,,,,,,,,,,,,,,,,,,,,,,,,,,,,,,,,,,,,,,,,,,,,,,,,,,,,,,,,,,,,,,,,,,,,,,,,,,,,,,,,,,,,,,,,,,,,,,,,,,,,,,,,,
,,6463f56c88a5a54f57c01934,2024-02-19_15h16.31.163,kallum_motion_pilot,2023.2.2,Linux x86_64,60.24096386,6463f56c88a5a54f57c01934,65d2b6c8f2eece985d8e374c,65d2b9eb8ef7007ba45af97e,0.0283,0.0284,0,19,19,57,1,onethree,,,,,,,,,,,,,,,,,,,,,,,,,,,,,,,,,,,,,,,,,,,,,,,,,,,,,,,,,,,,,,,,,,,,,,,,,,,,,,,,,,,,,,,,,,,,,,,,,,,,,,,,,,,,,,,,,,,,,,,,,,,,,,,,,,,,,,,,,
,,6463f56c88a5a54f57c01934,2024-02-19_15h16.31.163,kallum_motion_pilot,2023.2.2,Linux x86_64,60.24096386,6463f56c88a5a54f57c01934,65d2b6c8f2eece985d8e374c,65d2b9eb8ef7007ba45af97e,0.0284,0.0285,0,20,20,134,1,eightsix,,,,,,,,,,,,,,,,,,,,,,,,,,,,,,,,,,,,,,,,,,,,,,,,,,,,,,,,,,,,,,,,,,,,,,,,,,,,,,,,,,,,,,,,,,,,,,,,,,,,,,,,,,,,,,,,,,,,,,,,,,,,,,,,,,,,,,,,,
,,6463f56c88a5a54f57c01934,2024-02-19_15h16.31.163,kallum_motion_pilot,2023.2.2,Linux x86_64,60.24096386,6463f56c88a5a54f57c01934,65d2b6c8f2eece985d8e374c,65d2b9eb8ef7007ba45af97e,0.0285,0.0285,0,21,21,24,1,onetwo,,,,,,,,,,,,,,,,,,,,,,,,,,,,,,,,,,,,,,,,,,,,,,,,,,,,,,,,,,,,,,,,,,,,,,,,,,,,,,,,,,,,,,,,,,,,,,,,,,,,,,,,,,,,,,,,,,,,,,,,,,,,,,,,,,,,,,,,,
,,6463f56c88a5a54f57c01934,2024-02-19_15h16.31.163,kallum_motion_pilot,2023.2.2,Linux x86_64,60.24096386,6463f56c88a5a54f57c01934,65d2b6c8f2eece985d8e374c,65d2b9eb8ef7007ba45af97e,0.0287,0.0287,0,22,22,60,1,threeone,,,,,,,,,,,,,,,,,,,,,,,,,,,,,,,,,,,,,,,,,,,,,,,,,,,,,,,,,,,,,,,,,,,,,,,,,,,,,,,,,,,,,,,,,,,,,,,,,,,,,,,,,,,,,,,,,,,,,,,,,,,,,,,,,,,,,,,,,
,,6463f56c88a5a54f57c01934,2024-02-19_15h16.31.163,kallum_motion_pilot,2023.2.2,Linux x86_64,60.24096386,6463f56c88a5a54f57c01934,65d2b6c8f2eece985d8e374c,65d2b9eb8ef7007ba45af97e,0.0288,0.0288,0,23,23,19,1,twofour,,,,,,,,,,,,,,,,,,,,,,,,,,,,,,,,,,,,,,,,,,,,,,,,,,,,,,,,,,,,,,,,,,,,,,,,,,,,,,,,,,,,,,,,,,,,,,,,,,,,,,,,,,,,,,,,,,,,,,,,,,,,,,,,,,,,,,,,,
,,6463f56c88a5a54f57c01934,2024-02-19_15h16.31.163,kallum_motion_pilot,2023.2.2,Linux x86_64,60.24096386,6463f56c88a5a54f57c01934,65d2b6c8f2eece985d8e374c,65d2b9eb8ef7007ba45af97e,0.0288,0.0288,0,24,24,20,1,threeone,,,,,,,,,,,,,,,,,,,,,,,,,,,,,,,,,,,,,,,,,,,,,,,,,,,,,,,,,,,,,,,,,,,,,,,,,,,,,,,,,,,,,,,,,,,,,,,,,,,,,,,,,,,,,,,,,,,,,,,,,,,,,,,,,,,,,,,,,
,,6463f56c88a5a54f57c01934,2024-02-19_15h16.31.163,kallum_motion_pilot,2023.2.2,Linux x86_64,60.24096386,6463f56c88a5a54f57c01934,65d2b6c8f2eece985d8e374c,65d2b9eb8ef7007ba45af97e,0.029,0.029,0,25,25,144,1,fivesix,,,,,,,,,,,,,,,,,,,,,,,,,,,,,,,,,,,,,,,,,,,,,,,,,,,,,,,,,,,,,,,,,,,,,,,,,,,,,,,,,,,,,,,,,,,,,,,,,,,,,,,,,,,,,,,,,,,,,,,,,,,,,,,,,,,,,,,,,
,,6463f56c88a5a54f57c01934,2024-02-19_15h16.31.163,kallum_motion_pilot,2023.2.2,Linux x86_64,60.24096386,6463f56c88a5a54f57c01934,65d2b6c8f2eece985d8e374c,65d2b9eb8ef7007ba45af97e,0.029,0.029,0,26,26,58,1,twoone,,,,,,,,,,,,,,,,,,,,,,,,,,,,,,,,,,,,,,,,,,,,,,,,,,,,,,,,,,,,,,,,,,,,,,,,,,,,,,,,,,,,,,,,,,,,,,,,,,,,,,,,,,,,,,,,,,,,,,,,,,,,,,,,,,,,,,,,,
,,6463f56c88a5a54f57c01934,2024-02-19_15h16.31.163,kallum_motion_pilot,2023.2.2,Linux x86_64,60.24096386,6463f56c88a5a54f57c01934,65d2b6c8f2eece985d8e374c,65d2b9eb8ef7007ba45af97e,0.0291,0.0291,0,27,27,49,1,onethree,,,,,,,,,,,,,,,,,,,,,,,,,,,,,,,,,,,,,,,,,,,,,,,,,,,,,,,,,,,,,,,,,,,,,,,,,,,,,,,,,,,,,,,,,,,,,,,,,,,,,,,,,,,,,,,,,,,,,,,,,,,,,,,,,,,,,,,,,
,,6463f56c88a5a54f57c01934,2024-02-19_15h16.31.163,kallum_motion_pilot,2023.2.2,Linux x86_64,60.24096386,6463f56c88a5a54f57c01934,65d2b6c8f2eece985d8e374c,65d2b9eb8ef7007ba45af97e,0.0292,0.0293,0,28,28,30,1,fourtwo,,,,,,,,,,,,,,,,,,,,,,,,,,,,,,,,,,,,,,,,,,,,,,,,,,,,,,,,,,,,,,,,,,,,,,,,,,,,,,,,,,,,,,,,,,,,,,,,,,,,,,,,,,,,,,,,,,,,,,,,,,,,,,,,,,,,,,,,,
,,6463f56c88a5a54f57c01934,2024-02-19_15h16.31.163,kallum_motion_pilot,2023.2.2,Linux x86_64,60.24096386,6463f56c88a5a54f57c01934,65d2b6c8f2eece985d8e374c,65d2b9eb8ef7007ba45af97e,0.0293,0.0293,0,29,29,114,1,sixfive,,,,,,,,,,,,,,,,,,,,,,,,,,,,,,,,,,,,,,,,,,,,,,,,,,,,,,,,,,,,,,,,,,,,,,,,,,,,,,,,,,,,,,,,,,,,,,,,,,,,,,,,,,,,,,,,,,,,,,,,,,,,,,,,,,,,,,,,,
,,6463f56c88a5a54f57c01934,2024-02-19_15h16.31.163,kallum_motion_pilot,2023.2.2,Linux x86_64,60.24096386,6463f56c88a5a54f57c01934,65d2b6c8f2eece985d8e374c,65d2b9eb8ef7007ba45af97e,0.0295,0.0295,0,30,30,16,1,onetwo,,,,,,,,,,,,,,,,,,,,,,,,,,,,,,,,,,,,,,,,,,,,,,,,,,,,,,,,,,,,,,,,,,,,,,,,,,,,,,,,,,,,,,,,,,,,,,,,,,,,,,,,,,,,,,,,,,,,,,,,,,,,,,,,,,,,,,,,,
,,6463f56c88a5a54f57c01934,2024-02-19_15h16.31.163,kallum_motion_pilot,2023.2.2,Linux x86_64,60.24096386,6463f56c88a5a54f57c01934,65d2b6c8f2eece985d8e374c,65d2b9eb8ef7007ba45af97e,0.0296,0.0296,0,31,31,56,1,onetwo,,,,,,,,,,,,,,,,,,,,,,,,,,,,,,,,,,,,,,,,,,,,,,,,,,,,,,,,,,,,,,,,,,,,,,,,,,,,,,,,,,,,,,,,,,,,,,,,,,,,,,,,,,,,,,,,,,,,,,,,,,,,,,,,,,,,,,,,,
,,6463f56c88a5a54f57c01934,2024-02-19_15h16.31.163,kallum_motion_pilot,2023.2.2,Linux x86_64,60.24096386,6463f56c88a5a54f57c01934,65d2b6c8f2eece985d8e374c,65d2b9eb8ef7007ba45af97e,0.0296,0.0296,0,32,32,130,1,sixfive,,,,,,,,,,,,,,,,,,,,,,,,,,,,,,,,,,,,,,,,,,,,,,,,,,,,,,,,,,,,,,,,,,,,,,,,,,,,,,,,,,,,,,,,,,,,,,,,,,,,,,,,,,,,,,,,,,,,,,,,,,,,,,,,,,,,,,,,,
,,6463f56c88a5a54f57c01934,2024-02-19_15h16.31.163,kallum_motion_pilot,2023.2.2,Linux x86_64,60.24096386,6463f56c88a5a54f57c01934,65d2b6c8f2eece985d8e374c,65d2b9eb8ef7007ba45af97e,0.0297,0.0298,0,33,33,81,1,fiveseven,,,,,,,,,,,,,,,,,,,,,,,,,,,,,,,,,,,,,,,,,,,,,,,,,,,,,,,,,,,,,,,,,,,,,,,,,,,,,,,,,,,,,,,,,,,,,,,,,,,,,,,,,,,,,,,,,,,,,,,,,,,,,,,,,,,,,,,,,
,,6463f56c88a5a54f57c01934,2024-02-19_15h16.31.163,kallum_motion_pilot,2023.2.2,Linux x86_64,60.24096386,6463f56c88a5a54f57c01934,65d2b6c8f2eece985d8e374c,65d2b9eb8ef7007ba45af97e,0.0298,0.0298,0,34,34,40,1,onetwo,,,,,,,,,,,,,,,,,,,,,,,,,,,,,,,,,,,,,,,,,,,,,,,,,,,,,,,,,,,,,,,,,,,,,,,,,,,,,,,,,,,,,,,,,,,,,,,,,,,,,,,,,,,,,,,,,,,,,,,,,,,,,,,,,,,,,,,,,
,,6463f56c88a5a54f57c01934,2024-02-19_15h16.31.163,kallum_motion_pilot,2023.2.2,Linux x86_64,60.24096386,6463f56c88a5a54f57c01934,65d2b6c8f2eece985d8e374c,65d2b9eb8ef7007ba45af97e,0.0299,0.03,0,35,35,128,1,fivesix,,,,,,,,,,,,,,,,,,,,,,,,,,,,,,,,,,,,,,,,,,,,,,,,,,,,,,,,,,,,,,,,,,,,,,,,,,,,,,,,,,,,,,,,,,,,,,,,,,,,,,,,,,,,,,,,,,,,,,,,,,,,,,,,,,,,,,,,,
,,6463f56c88a5a54f57c01934,2024-02-19_15h16.31.163,kallum_motion_pilot,2023.2.2,Linux x86_64,60.24096386,6463f56c88a5a54f57c01934,65d2b6c8f2eece985d8e374c,65d2b9eb8ef7007ba45af97e,0.0301,0.0301,0,36,36,155,1,sixeight,,,,,,,,,,,,,,,,,,,,,,,,,,,,,,,,,,,,,,,,,,,,,,,,,,,,,,,,,,,,,,,,,,,,,,,,,,,,,,,,,,,,,,,,,,,,,,,,,,,,,,,,,,,,,,,,,,,,,,,,,,,,,,,,,,,,,,,,,
,,6463f56c88a5a54f57c01934,2024-02-19_15h16.31.163,kallum_motion_pilot,2023.2.2,Linux x86_64,60.24096386,6463f56c88a5a54f57c01934,65d2b6c8f2eece985d8e374c,65d2b9eb8ef7007ba45af97e,0.0301,0.0301,0,37,37,68,1,threeone,,,,,,,,,,,,,,,,,,,,,,,,,,,,,,,,,,,,,,,,,,,,,,,,,,,,,,,,,,,,,,,,,,,,,,,,,,,,,,,,,,,,,,,,,,,,,,,,,,,,,,,,,,,,,,,,,,,,,,,,,,,,,,,,,,,,,,,,,
,,6463f56c88a5a54f57c01934,2024-02-19_15h16.31.163,kallum_motion_pilot,2023.2.2,Linux x86_64,60.24096386,6463f56c88a5a54f57c01934,65d2b6c8f2eece985d8e374c,65d2b9eb8ef7007ba45af97e,0.0303,0.0303,0,38,38,153,1,fiveseven,,,,,,,,,,,,,,,,,,,,,,,,,,,,,,,,,,,,,,,,,,,,,,,,,,,,,,,,,,,,,,,,,,,,,,,,,,,,,,,,,,,,,,,,,,,,,,,,,,,,,,,,,,,,,,,,,,,,,,,,,,,,,,,,,,,,,,,,,
,,6463f56c88a5a54f57c01934,2024-02-19_15h16.31.163,kallum_motion_pilot,2023.2.2,Linux x86_64,60.24096386,6463f56c88a5a54f57c01934,65d2b6c8f2eece985d8e374c,65d2b9eb8ef7007ba45af97e,0.0303,0.0303,0,39,39,50,1,twoone,,,,,,,,,,,,,,,,,,,,,,,,,,,,,,,,,,,,,,,,,,,,,,,,,,,,,,,,,,,,,,,,,,,,,,,,,,,,,,,,,,,,,,,,,,,,,,,,,,,,,,,,,,,,,,,,,,,,,,,,,,,,,,,,,,,,,,,,,
,,6463f56c88a5a54f57c01934,2024-02-19_15h16.31.163,kallum_motion_pilot,2023.2.2,Linux x86_64,60.24096386,6463f56c88a5a54f57c01934,65d2b6c8f2eece985d8e374c,65d2b9eb8ef7007ba45af97e,0.0303,0.0304,0,40,40,141,1,seveneight,,,,,,,,,,,,,,,,,,,,,,,,,,,,,,,,,,,,,,,,,,,,,,,,,,,,,,,,,,,,,,,,,,,,,,,,,,,,,,,,,,,,,,,,,,,,,,,,,,,,,,,,,,,,,,,,,,,,,,,,,,,,,,,,,,,,,,,,,
,,6463f56c88a5a54f57c01934,2024-02-19_15h16.31.163,kallum_motion_pilot,2023.2.2,Linux x86_64,60.24096386,6463f56c88a5a54f57c01934,65d2b6c8f2eece985d8e374c,65d2b9eb8ef7007ba45af97e,0.0304,0.0305,0,41,41,52,1,threeone,,,,,,,,,,,,,,,,,,,,,,,,,,,,,,,,,,,,,,,,,,,,,,,,,,,,,,,,,,,,,,,,,,,,,,,,,,,,,,,,,,,,,,,,,,,,,,,,,,,,,,,,,,,,,,,,,,,,,,,,,,,,,,,,,,,,,,,,,
,,6463f56c88a5a54f57c01934,2024-02-19_15h16.31.163,kallum_motion_pilot,2023.2.2,Linux x86_64,60.24096386,6463f56c88a5a54f57c01934,65d2b6c8f2eece985d8e374c,65d2b9eb8ef7007ba45af97e,0.0306,0.0306,0,42,42,108,1,sevenfive,,,,,,,,,,,,,,,,,,,,,,,,,,,,,,,,,,,,,,,,,,,,,,,,,,,,,,,,,,,,,,,,,,,,,,,,,,,,,,,,,,,,,,,,,,,,,,,,,,,,,,,,,,,,,,,,,,,,,,,,,,,,,,,,,,,,,,,,,
,,6463f56c88a5a54f57c01934,2024-02-19_15h16.31.163,kallum_motion_pilot,2023.2.2,Linux x86_64,60.24096386,6463f56c88a5a54f57c01934,65d2b6c8f2eece985d8e374c,65d2b9eb8ef7007ba45af97e,0.0307,0.0307,0,43,43,100,1,sevenfive,,,,,,,,,,,,,,,,,,,,,,,,,,,,,,,,,,,,,,,,,,,,,,,,,,,,,,,,,,,,,,,,,,,,,,,,,,,,,,,,,,,,,,,,,,,,,,,,,,,,,,,,,,,,,,,,,,,,,,,,,,,,,,,,,,,,,,,,,
,,6463f56c88a5a54f57c01934,2024-02-19_15h16.31.163,kallum_motion_pilot,2023.2.2,Linux x86_64,60.24096386,6463f56c88a5a54f57c01934,65d2b6c8f2eece985d8e374c,65d2b9eb8ef7007ba45af97e,0.0308,0.0309,0,44,44,39,1,fourthree,,,,,,,,,,,,,,,,,,,,,,,,,,,,,,,,,,,,,,,,,,,,,,,,,,,,,,,,,,,,,,,,,,,,,,,,,,,,,,,,,,,,,,,,,,,,,,,,,,,,,,,,,,,,,,,,,,,,,,,,,,,,,,,,,,,,,,,,,
,,6463f56c88a5a54f57c01934,2024-02-19_15h16.31.163,kallum_motion_pilot,2023.2.2,Linux x86_64,60.24096386,6463f56c88a5a54f57c01934,65d2b6c8f2eece985d8e374c,65d2b9eb8ef7007ba45af97e,0.0309,0.0309,0,45,45,47,1,fourthree,,,,,,,,,,,,,,,,,,,,,,,,,,,,,,,,,,,,,,,,,,,,,,,,,,,,,,,,,,,,,,,,,,,,,,,,,,,,,,,,,,,,,,,,,,,,,,,,,,,,,,,,,,,,,,,,,,,,,,,,,,,,,,,,,,,,,,,,,
,,6463f56c88a5a54f57c01934,2024-02-19_15h16.31.163,kallum_motion_pilot,2023.2.2,Linux x86_64,60.24096386,6463f56c88a5a54f57c01934,65d2b6c8f2eece985d8e374c,65d2b9eb8ef7007ba45af97e,0.031,0.0311,0,46,46,79,1,eightseven,,,,,,,,,,,,,,,,,,,,,,,,,,,,,,,,,,,,,,,,,,,,,,,,,,,,,,,,,,,,,,,,,,,,,,,,,,,,,,,,,,,,,,,,,,,,,,,,,,,,,,,,,,,,,,,,,,,,,,,,,,,,,,,,,,,,,,,,,
,,6463f56c88a5a54f57c01934,2024-02-19_15h16.31.163,kallum_motion_pilot,2023.2.2,Linux x86_64,60.24096386,6463f56c88a5a54f57c01934,65d2b6c8f2eece985d8e374c,65d2b9eb8ef7007ba45af97e,0.0311,0.0311,0,47,47,112,1,fivesix,,,,,,,,,,,,,,,,,,,,,,,,,,,,,,,,,,,,,,,,,,,,,,,,,,,,,,,,,,,,,,,,,,,,,,,,,,,,,,,,,,,,,,,,,,,,,,,,,,,,,,,,,,,,,,,,,,,,,,,,,,,,,,,,,,,,,,,,,
,,6463f56c88a5a54f57c01934,2024-02-19_15h16.31.163,kallum_motion_pilot,2023.2.2,Linux x86_64,60.24096386,6463f56c88a5a54f57c01934,65d2b6c8f2eece985d8e374c,65d2b9eb8ef7007ba45af97e,0.0312,0.0312,0,48,48,22,1,fourtwo,,,,,,,,,,,,,,,,,,,,,,,,,,,,,,,,,,,,,,,,,,,,,,,,,,,,,,,,,,,,,,,,,,,,,,,,,,,,,,,,,,,,,,,,,,,,,,,,,,,,,,,,,,,,,,,,,,,,,,,,,,,,,,,,,,,,,,,,,
,,6463f56c88a5a54f57c01934,2024-02-19_15h16.31.163,kallum_motion_pilot,2023.2.2,Linux x86_64,60.24096386,6463f56c88a5a54f57c01934,65d2b6c8f2eece985d8e374c,65d2b9eb8ef7007ba45af97e,0.0312,0.0313,0,49,49,97,1,fiveseven,,,,,,,,,,,,,,,,,,,,,,,,,,,,,,,,,,,,,,,,,,,,,,,,,,,,,,,,,,,,,,,,,,,,,,,,,,,,,,,,,,,,,,,,,,,,,,,,,,,,,,,,,,,,,,,,,,,,,,,,,,,,,,,,,,,,,,,,,
,,6463f56c88a5a54f57c01934,2024-02-19_15h16.31.163,kallum_motion_pilot,2023.2.2,Linux x86_64,60.24096386,6463f56c88a5a54f57c01934,65d2b6c8f2eece985d8e374c,65d2b9eb8ef7007ba45af97e,0.0314,0.0314,0,50,50,9,1,onethree,,,,,,,,,,,,,,,,,,,,,,,,,,,,,,,,,,,,,,,,,,,,,,,,,,,,,,,,,,,,,,,,,,,,,,,,,,,,,,,,,,,,,,,,,,,,,,,,,,,,,,,,,,,,,,,,,,,,,,,,,,,,,,,,,,,,,,,,,
,,6463f56c88a5a54f57c01934,2024-02-19_15h16.31.163,kallum_motion_pilot,2023.2.2,Linux x86_64,60.24096386,6463f56c88a5a54f57c01934,65d2b6c8f2eece985d8e374c,65d2b9eb8ef7007ba45af97e,0.0315,0.0315,0,51,51,104,1,fivesix,,,,,,,,,,,,,,,,,,,,,,,,,,,,,,,,,,,,,,,,,,,,,,,,,,,,,,,,,,,,,,,,,,,,,,,,,,,,,,,,,,,,,,,,,,,,,,,,,,,,,,,,,,,,,,,,,,,,,,,,,,,,,,,,,,,,,,,,,
,,6463f56c88a5a54f57c01934,2024-02-19_15h16.31.163,kallum_motion_pilot,2023.2.2,Linux x86_64,60.24096386,6463f56c88a5a54f57c01934,65d2b6c8f2eece985d8e374c,65d2b9eb8ef7007ba45af97e,0.0316,0.0316,0,52,52,75,1,twofour,,,,,,,,,,,,,,,,,,,,,,,,,,,,,,,,,,,,,,,,,,,,,,,,,,,,,,,,,,,,,,,,,,,,,,,,,,,,,,,,,,,,,,,,,,,,,,,,,,,,,,,,,,,,,,,,,,,,,,,,,,,,,,,,,,,,,,,,,
,,6463f56c88a5a54f57c01934,2024-02-19_15h16.31.163,kallum_motion_pilot,2023.2.2,Linux x86_64,60.24096386,6463f56c88a5a54f57c01934,65d2b6c8f2eece985d8e374c,65d2b9eb8ef7007ba45af97e,0.0316,0.0323,0,53,53,12,1,threeone,,,,,,,,,,,,,,,,,,,,,,,,,,,,,,,,,,,,,,,,,,,,,,,,,,,,,,,,,,,,,,,,,,,,,,,,,,,,,,,,,,,,,,,,,,,,,,,,,,,,,,,,,,,,,,,,,,,,,,,,,,,,,,,,,,,,,,,,,
,,6463f56c88a5a54f57c01934,2024-02-19_15h16.31.163,kallum_motion_pilot,2023.2.2,Linux x86_64,60.24096386,6463f56c88a5a54f57c01934,65d2b6c8f2eece985d8e374c,65d2b9eb8ef7007ba45af97e,0.0324,0.0324,0,54,54,31,1,fourthree,,,,,,,,,,,,,,,,,,,,,,,,,,,,,,,,,,,,,,,,,,,,,,,,,,,,,,,,,,,,,,,,,,,,,,,,,,,,,,,,,,,,,,,,,,,,,,,,,,,,,,,,,,,,,,,,,,,,,,,,,,,,,,,,,,,,,,,,,
,,6463f56c88a5a54f57c01934,2024-02-19_15h16.31.163,kallum_motion_pilot,2023.2.2,Linux x86_64,60.24096386,6463f56c88a5a54f57c01934,65d2b6c8f2eece985d8e374c,65d2b9eb8ef7007ba45af97e,0.0325,0.0325,0,55,55,105,1,fiveseven,,,,,,,,,,,,,,,,,,,,,,,,,,,,,,,,,,,,,,,,,,,,,,,,,,,,,,,,,,,,,,,,,,,,,,,,,,,,,,,,,,,,,,,,,,,,,,,,,,,,,,,,,,,,,,,,,,,,,,,,,,,,,,,,,,,,,,,,,
,,6463f56c88a5a54f57c01934,2024-02-19_15h16.31.163,kallum_motion_pilot,2023.2.2,Linux x86_64,60.24096386,6463f56c88a5a54f57c01934,65d2b6c8f2eece985d8e374c,65d2b9eb8ef7007ba45af97e,0.0326,0.0327,0,56,56,121,1,fiveseven,,,,,,,,,,,,,,,,,,,,,,,,,,,,,,,,,,,,,,,,,,,,,,,,,,,,,,,,,,,,,,,,,,,,,,,,,,,,,,,,,,,,,,,,,,,,,,,,,,,,,,,,,,,,,,,,,,,,,,,,,,,,,,,,,,,,,,,,,
,,6463f56c88a5a54f57c01934,2024-02-19_15h16.31.163,kallum_motion_pilot,2023.2.2,Linux x86_64,60.24096386,6463f56c88a5a54f57c01934,65d2b6c8f2eece985d8e374c,65d2b9eb8ef7007ba45af97e,0.0327,0.0329,0,57,57,18,1,twoone,,,,,,,,,,,,,,,,,,,,,,,,,,,,,,,,,,,,,,,,,,,,,,,,,,,,,,,,,,,,,,,,,,,,,,,,,,,,,,,,,,,,,,,,,,,,,,,,,,,,,,,,,,,,,,,,,,,,,,,,,,,,,,,,,,,,,,,,,
,,6463f56c88a5a54f57c01934,2024-02-19_15h16.31.163,kallum_motion_pilot,2023.2.2,Linux x86_64,60.24096386,6463f56c88a5a54f57c01934,65d2b6c8f2eece985d8e374c,65d2b9eb8ef7007ba45af97e,0.0331,0.0331,0,58,58,143,1,eightseven,,,,,,,,,,,,,,,,,,,,,,,,,,,,,,,,,,,,,,,,,,,,,,,,,,,,,,,,,,,,,,,,,,,,,,,,,,,,,,,,,,,,,,,,,,,,,,,,,,,,,,,,,,,,,,,,,,,,,,,,,,,,,,,,,,,,,,,,,
,,6463f56c88a5a54f57c01934,2024-02-19_15h16.31.163,kallum_motion_pilot,2023.2.2,Linux x86_64,60.24096386,6463f56c88a5a54f57c01934,65d2b6c8f2eece985d8e374c,65d2b9eb8ef7007ba45af97e,0.0332,0.0332,0,59,59,32,1,onetwo,,,,,,,,,,,,,,,,,,,,,,,,,,,,,,,,,,,,,,,,,,,,,,,,,,,,,,,,,,,,,,,,,,,,,,,,,,,,,,,,,,,,,,,,,,,,,,,,,,,,,,,,,,,,,,,,,,,,,,,,,,,,,,,,,,,,,,,,,
,,6463f56c88a5a54f57c01934,2024-02-19_15h16.31.163,kallum_motion_pilot,2023.2.2,Linux x86_64,60.24096386,6463f56c88a5a54f57c01934,65d2b6c8f2eece985d8e374c,65d2b9eb8ef7007ba45af97e,0.0333,0.0333,0,60,60,139,1,sixeight,,,,,,,,,,,,,,,,,,,,,,,,,,,,,,,,,,,,,,,,,,,,,,,,,,,,,,,,,,,,,,,,,,,,,,,,,,,,,,,,,,,,,,,,,,,,,,,,,,,,,,,,,,,,,,,,,,,,,,,,,,,,,,,,,,,,,,,,,
,,6463f56c88a5a54f57c01934,2024-02-19_15h16.31.163,kallum_motion_pilot,2023.2.2,Linux x86_64,60.24096386,6463f56c88a5a54f57c01934,65d2b6c8f2eece985d8e374c,65d2b9eb8ef7007ba45af97e,0.0334,0.0334,0,61,61,137,1,fiveseven,,,,,,,,,,,,,,,,,,,,,,,,,,,,,,,,,,,,,,,,,,,,,,,,,,,,,,,,,,,,,,,,,,,,,,,,,,,,,,,,,,,,,,,,,,,,,,,,,,,,,,,,,,,,,,,,,,,,,,,,,,,,,,,,,,,,,,,,,
,,6463f56c88a5a54f57c01934,2024-02-19_15h16.31.163,kallum_motion_pilot,2023.2.2,Linux x86_64,60.24096386,6463f56c88a5a54f57c01934,65d2b6c8f2eece985d8e374c,65d2b9eb8ef7007ba45af97e,0.0335,0.0335,0,62,62,110,1,eightsix,,,,,,,,,,,,,,,,,,,,,,,,,,,,,,,,,,,,,,,,,,,,,,,,,,,,,,,,,,,,,,,,,,,,,,,,,,,,,,,,,,,,,,,,,,,,,,,,,,,,,,,,,,,,,,,,,,,,,,,,,,,,,,,,,,,,,,,,,
,,6463f56c88a5a54f57c01934,2024-02-19_15h16.31.163,kallum_motion_pilot,2023.2.2,Linux x86_64,60.24096386,6463f56c88a5a54f57c01934,65d2b6c8f2eece985d8e374c,65d2b9eb8ef7007ba45af97e,0.0336,0.0337,0,63,63,132,1,sevenfive,,,,,,,,,,,,,,,,,,,,,,,,,,,,,,,,,,,,,,,,,,,,,,,,,,,,,,,,,,,,,,,,,,,,,,,,,,,,,,,,,,,,,,,,,,,,,,,,,,,,,,,,,,,,,,,,,,,,,,,,,,,,,,,,,,,,,,,,,
,,6463f56c88a5a54f57c01934,2024-02-19_15h16.31.163,kallum_motion_pilot,2023.2.2,Linux x86_64,60.24096386,6463f56c88a5a54f57c01934,65d2b6c8f2eece985d8e374c,65d2b9eb8ef7007ba45af97e,0.0337,0.0337,0,64,64,124,1,sevenfive,,,,,,,,,,,,,,,,,,,,,,,,,,,,,,,,,,,,,,,,,,,,,,,,,,,,,,,,,,,,,,,,,,,,,,,,,,,,,,,,,,,,,,,,,,,,,,,,,,,,,,,,,,,,,,,,,,,,,,,,,,,,,,,,,,,,,,,,,
,,6463f56c88a5a54f57c01934,2024-02-19_15h16.31.163,kallum_motion_pilot,2023.2.2,Linux x86_64,60.24096386,6463f56c88a5a54f57c01934,65d2b6c8f2eece985d8e374c,65d2b9eb8ef7007ba45af97e,0.0339,0.0339,0,65,65,147,1,sixeight,,,,,,,,,,,,,,,,,,,,,,,,,,,,,,,,,,,,,,,,,,,,,,,,,,,,,,,,,,,,,,,,,,,,,,,,,,,,,,,,,,,,,,,,,,,,,,,,,,,,,,,,,,,,,,,,,,,,,,,,,,,,,,,,,,,,,,,,,
,,6463f56c88a5a54f57c01934,2024-02-19_15h16.31.163,kallum_motion_pilot,2023.2.2,Linux x86_64,60.24096386,6463f56c88a5a54f57c01934,65d2b6c8f2eece985d8e374c,65d2b9eb8ef7007ba45af97e,0.034,0.0341,0,66,66,76,1,threeone,,,,,,,,,,,,,,,,,,,,,,,,,,,,,,,,,,,,,,,,,,,,,,,,,,,,,,,,,,,,,,,,,,,,,,,,,,,,,,,,,,,,,,,,,,,,,,,,,,,,,,,,,,,,,,,,,,,,,,,,,,,,,,,,,,,,,,,,,
,,6463f56c88a5a54f57c01934,2024-02-19_15h16.31.163,kallum_motion_pilot,2023.2.2,Linux x86_64,60.24096386,6463f56c88a5a54f57c01934,65d2b6c8f2eece985d8e374c,65d2b9eb8ef7007ba45af97e,0.0341,0.0341,0,67,67,122,1,sixfive,,,,,,,,,,,,,,,,,,,,,,,,,,,,,,,,,,,,,,,,,,,,,,,,,,,,,,,,,,,,,,,,,,,,,,,,,,,,,,,,,,,,,,,,,,,,,,,,,,,,,,,,,,,,,,,,,,,,,,,,,,,,,,,,,,,,,,,,,
,,6463f56c88a5a54f57c01934,2024-02-19_15h16.31.163,kallum_motion_pilot,2023.2.2,Linux x86_64,60.24096386,6463f56c88a5a54f57c01934,65d2b6c8f2eece985d8e374c,65d2b9eb8ef7007ba45af97e,0.0342,0.0343,0,68,68,126,1,eightsix,,,,,,,,,,,,,,,,,,,,,,,,,,,,,,,,,,,,,,,,,,,,,,,,,,,,,,,,,,,,,,,,,,,,,,,,,,,,,,,,,,,,,,,,,,,,,,,,,,,,,,,,,,,,,,,,,,,,,,,,,,,,,,,,,,,,,,,,,
,,6463f56c88a5a54f57c01934,2024-02-19_15h16.31.163,kallum_motion_pilot,2023.2.2,Linux x86_64,60.24096386,6463f56c88a5a54f57c01934,65d2b6c8f2eece985d8e374c,65d2b9eb8ef7007ba45af97e,0.0343,0.0344,0,69,69,146,1,sixfive,,,,,,,,,,,,,,,,,,,,,,,,,,,,,,,,,,,,,,,,,,,,,,,,,,,,,,,,,,,,,,,,,,,,,,,,,,,,,,,,,,,,,,,,,,,,,,,,,,,,,,,,,,,,,,,,,,,,,,,,,,,,,,,,,,,,,,,,,
,,6463f56c88a5a54f57c01934,2024-02-19_15h16.31.163,kallum_motion_pilot,2023.2.2,Linux x86_64,60.24096386,6463f56c88a5a54f57c01934,65d2b6c8f2eece985d8e374c,65d2b9eb8ef7007ba45af97e,0.0345,0.0345,0,70,70,142,1,eightsix,,,,,,,,,,,,,,,,,,,,,,,,,,,,,,,,,,,,,,,,,,,,,,,,,,,,,,,,,,,,,,,,,,,,,,,,,,,,,,,,,,,,,,,,,,,,,,,,,,,,,,,,,,,,,,,,,,,,,,,,,,,,,,,,,,,,,,,,,
,,6463f56c88a5a54f57c01934,2024-02-19_15h16.31.163,kallum_motion_pilot,2023.2.2,Linux x86_64,60.24096386,6463f56c88a5a54f57c01934,65d2b6c8f2eece985d8e374c,65d2b9eb8ef7007ba45af97e,0.0345,0.0346,0,71,71,95,1,eightseven,,,,,,,,,,,,,,,,,,,,,,,,,,,,,,,,,,,,,,,,,,,,,,,,,,,,,,,,,,,,,,,,,,,,,,,,,,,,,,,,,,,,,,,,,,,,,,,,,,,,,,,,,,,,,,,,,,,,,,,,,,,,,,,,,,,,,,,,,
,,6463f56c88a5a54f57c01934,2024-02-19_15h16.31.163,kallum_motion_pilot,2023.2.2,Linux x86_64,60.24096386,6463f56c88a5a54f57c01934,65d2b6c8f2eece985d8e374c,65d2b9eb8ef7007ba45af97e,0.0347,0.0347,0,72,72,34,1,twoone,,,,,,,,,,,,,,,,,,,,,,,,,,,,,,,,,,,,,,,,,,,,,,,,,,,,,,,,,,,,,,,,,,,,,,,,,,,,,,,,,,,,,,,,,,,,,,,,,,,,,,,,,,,,,,,,,,,,,,,,,,,,,,,,,,,,,,,,,
,,6463f56c88a5a54f57c01934,2024-02-19_15h16.31.163,kallum_motion_pilot,2023.2.2,Linux x86_64,60.24096386,6463f56c88a5a54f57c01934,65d2b6c8f2eece985d8e374c,65d2b9eb8ef7007ba45af97e,0.0348,0.0348,0,73,73,88,1,fivesix,,,,,,,,,,,,,,,,,,,,,,,,,,,,,,,,,,,,,,,,,,,,,,,,,,,,,,,,,,,,,,,,,,,,,,,,,,,,,,,,,,,,,,,,,,,,,,,,,,,,,,,,,,,,,,,,,,,,,,,,,,,,,,,,,,,,,,,,,
,,6463f56c88a5a54f57c01934,2024-02-19_15h16.31.163,kallum_motion_pilot,2023.2.2,Linux x86_64,60.24096386,6463f56c88a5a54f57c01934,65d2b6c8f2eece985d8e374c,65d2b9eb8ef7007ba45af97e,0.0349,0.035,0,74,74,86,1,eightsix,,,,,,,,,,,,,,,,,,,,,,,,,,,,,,,,,,,,,,,,,,,,,,,,,,,,,,,,,,,,,,,,,,,,,,,,,,,,,,,,,,,,,,,,,,,,,,,,,,,,,,,,,,,,,,,,,,,,,,,,,,,,,,,,,,,,,,,,,
,,6463f56c88a5a54f57c01934,2024-02-19_15h16.31.163,kallum_motion_pilot,2023.2.2,Linux x86_64,60.24096386,6463f56c88a5a54f57c01934,65d2b6c8f2eece985d8e374c,65d2b9eb8ef7007ba45af97e,0.035,0.035,0,75,75,28,1,threeone,,,,,,,,,,,,,,,,,,,,,,,,,,,,,,,,,,,,,,,,,,,,,,,,,,,,,,,,,,,,,,,,,,,,,,,,,,,,,,,,,,,,,,,,,,,,,,,,,,,,,,,,,,,,,,,,,,,,,,,,,,,,,,,,,,,,,,,,,
,,6463f56c88a5a54f57c01934,2024-02-19_15h16.31.163,kallum_motion_pilot,2023.2.2,Linux x86_64,60.24096386,6463f56c88a5a54f57c01934,65d2b6c8f2eece985d8e374c,65d2b9eb8ef7007ba45af97e,0.0351,0.0351,0,76,76,138,1,sixfive,,,,,,,,,,,,,,,,,,,,,,,,,,,,,,,,,,,,,,,,,,,,,,,,,,,,,,,,,,,,,,,,,,,,,,,,,,,,,,,,,,,,,,,,,,,,,,,,,,,,,,,,,,,,,,,,,,,,,,,,,,,,,,,,,,,,,,,,,
,,6463f56c88a5a54f57c01934,2024-02-19_15h16.31.163,kallum_motion_pilot,2023.2.2,Linux x86_64,60.24096386,6463f56c88a5a54f57c01934,65d2b6c8f2eece985d8e374c,65d2b9eb8ef7007ba45af97e,0.0352,0.0353,0,77,77,42,1,twoone,,,,,,,,,,,,,,,,,,,,,,,,,,,,,,,,,,,,,,,,,,,,,,,,,,,,,,,,,,,,,,,,,,,,,,,,,,,,,,,,,,,,,,,,,,,,,,,,,,,,,,,,,,,,,,,,,,,,,,,,,,,,,,,,,,,,,,,,,
,,6463f56c88a5a54f57c01934,2024-02-19_15h16.31.163,kallum_motion_pilot,2023.2.2,Linux x86_64,60.24096386,6463f56c88a5a54f57c01934,65d2b6c8f2eece985d8e374c,65d2b9eb8ef7007ba45af97e,0.0353,0.0354,0,78,78,98,1,sixfive,,,,,,,,,,,,,,,,,,,,,,,,,,,,,,,,,,,,,,,,,,,,,,,,,,,,,,,,,,,,,,,,,,,,,,,,,,,,,,,,,,,,,,,,,,,,,,,,,,,,,,,,,,,,,,,,,,,,,,,,,,,,,,,,,,,,,,,,,
,,6463f56c88a5a54f57c01934,2024-02-19_15h16.31.163,kallum_motion_pilot,2023.2.2,Linux x86_64,60.24096386,6463f56c88a5a54f57c01934,65d2b6c8f2eece985d8e374c,65d2b9eb8ef7007ba45af97e,0.0354,0.0354,0,79,79,14,1,fourtwo,,,,,,,,,,,,,,,,,,,,,,,,,,,,,,,,,,,,,,,,,,,,,,,,,,,,,,,,,,,,,,,,,,,,,,,,,,,,,,,,,,,,,,,,,,,,,,,,,,,,,,,,,,,,,,,,,,,,,,,,,,,,,,,,,,,,,,,,,
,,6463f56c88a5a54f57c01934,2024-02-19_15h16.31.163,kallum_motion_pilot,2023.2.2,Linux x86_64,60.24096386,6463f56c88a5a54f57c01934,65d2b6c8f2eece985d8e374c,65d2b9eb8ef7007ba45af97e,0.0356,0.0356,0,80,80,89,1,fiveseven,,,,,,,,,,,,,,,,,,,,,,,,,,,,,,,,,,,,,,,,,,,,,,,,,,,,,,,,,,,,,,,,,,,,,,,,,,,,,,,,,,,,,,,,,,,,,,,,,,,,,,,,,,,,,,,,,,,,,,,,,,,,,,,,,,,,,,,,,
,,6463f56c88a5a54f57c01934,2024-02-19_15h16.31.163,kallum_motion_pilot,2023.2.2,Linux x86_64,60.24096386,6463f56c88a5a54f57c01934,65d2b6c8f2eece985d8e374c,65d2b9eb8ef7007ba45af97e,0.0357,0.0357,0,81,81,72,1,onetwo,,,,,,,,,,,,,,,,,,,,,,,,,,,,,,,,,,,,,,,,,,,,,,,,,,,,,,,,,,,,,,,,,,,,,,,,,,,,,,,,,,,,,,,,,,,,,,,,,,,,,,,,,,,,,,,,,,,,,,,,,,,,,,,,,,,,,,,,,
,,6463f56c88a5a54f57c01934,2024-02-19_15h16.31.163,kallum_motion_pilot,2023.2.2,Linux x86_64,60.24096386,6463f56c88a5a54f57c01934,65d2b6c8f2eece985d8e374c,65d2b9eb8ef7007ba45af97e,0.0358,0.0358,0,82,82,150,1,eightsix,,,,,,,,,,,,,,,,,,,,,,,,,,,,,,,,,,,,,,,,,,,,,,,,,,,,,,,,,,,,,,,,,,,,,,,,,,,,,,,,,,,,,,,,,,,,,,,,,,,,,,,,,,,,,,,,,,,,,,,,,,,,,,,,,,,,,,,,,
,,6463f56c88a5a54f57c01934,2024-02-19_15h16.31.163,kallum_motion_pilot,2023.2.2,Linux x86_64,60.24096386,6463f56c88a5a54f57c01934,65d2b6c8f2eece985d8e374c,65d2b9eb8ef7007ba45af97e,0.0359,0.0359,0,83,83,149,1,seveneight,,,,,,,,,,,,,,,,,,,,,,,,,,,,,,,,,,,,,,,,,,,,,,,,,,,,,,,,,,,,,,,,,,,,,,,,,,,,,,,,,,,,,,,,,,,,,,,,,,,,,,,,,,,,,,,,,,,,,,,,,,,,,,,,,,,,,,,,,
,,6463f56c88a5a54f57c01934,2024-02-19_15h16.31.163,kallum_motion_pilot,2023.2.2,Linux x86_64,60.24096386,6463f56c88a5a54f57c01934,65d2b6c8f2eece985d8e374c,65d2b9eb8ef7007ba45af97e,0.036,0.036,0,84,84,4,1,threeone,,,,,,,,,,,,,,,,,,,,,,,,,,,,,,,,,,,,,,,,,,,,,,,,,,,,,,,,,,,,,,,,,,,,,,,,,,,,,,,,,,,,,,,,,,,,,,,,,,,,,,,,,,,,,,,,,,,,,,,,,,,,,,,,,,,,,,,,,
,,6463f56c88a5a54f57c01934,2024-02-19_15h16.31.163,kallum_motion_pilot,2023.2.2,Linux x86_64,60.24096386,6463f56c88a5a54f57c01934,65d2b6c8f2eece985d8e374c,65d2b9eb8ef7007ba45af97e,0.0361,0.0362,0,85,85,115,1,sixeight,,,,,,,,,,,,,,,,,,,,,,,,,,,,,,,,,,,,,,,,,,,,,,,,,,,,,,,,,,,,,,,,,,,,,,,,,,,,,,,,,,,,,,,,,,,,,,,,,,,,,,,,,,,,,,,,,,,,,,,,,,,,,,,,,,,,,,,,,
,,6463f56c88a5a54f57c01934,2024-02-19_15h16.31.163,kallum_motion_pilot,2023.2.2,Linux x86_64,60.24096386,6463f56c88a5a54f57c01934,65d2b6c8f2eece985d8e374c,65d2b9eb8ef7007ba45af97e,0.0362,0.0362,0,86,86,2,1,twoone,,,,,,,,,,,,,,,,,,,,,,,,,,,,,,,,,,,,,,,,,,,,,,,,,,,,,,,,,,,,,,,,,,,,,,,,,,,,,,,,,,,,,,,,,,,,,,,,,,,,,,,,,,,,,,,,,,,,,,,,,,,,,,,,,,,,,,,,,
,,6463f56c88a5a54f57c01934,2024-02-19_15h16.31.163,kallum_motion_pilot,2023.2.2,Linux x86_64,60.24096386,6463f56c88a5a54f57c01934,65d2b6c8f2eece985d8e374c,65d2b9eb8ef7007ba45af97e,0.0363,0.0364,0,87,87,5,1,threefour,,,,,,,,,,,,,,,,,,,,,,,,,,,,,,,,,,,,,,,,,,,,,,,,,,,,,,,,,,,,,,,,,,,,,,,,,,,,,,,,,,,,,,,,,,,,,,,,,,,,,,,,,,,,,,,,,,,,,,,,,,,,,,,,,,,,,,,,,
,,6463f56c88a5a54f57c01934,2024-02-19_15h16.31.163,kallum_motion_pilot,2023.2.2,Linux x86_64,60.24096386,6463f56c88a5a54f57c01934,65d2b6c8f2eece985d8e374c,65d2b9eb8ef7007ba45af97e,0.0365,0.0365,0,88,88,54,1,fourtwo,,,,,,,,,,,,,,,,,,,,,,,,,,,,,,,,,,,,,,,,,,,,,,,,,,,,,,,,,,,,,,,,,,,,,,,,,,,,,,,,,,,,,,,,,,,,,,,,,,,,,,,,,,,,,,,,,,,,,,,,,,,,,,,,,,,,,,,,,
,,6463f56c88a5a54f57c01934,2024-02-19_15h16.31.163,kallum_motion_pilot,2023.2.2,Linux x86_64,60.24096386,6463f56c88a5a54f57c01934,65d2b6c8f2eece985d8e374c,65d2b9eb8ef7007ba45af97e,0.0365,0.0366,0,89,89,13,1,threefour,,,,,,,,,,,,,,,,,,,,,,,,,,,,,,,,,,,,,,,,,,,,,,,,,,,,,,,,,,,,,,,,,,,,,,,,,,,,,,,,,,,,,,,,,,,,,,,,,,,,,,,,,,,,,,,,,,,,,,,,,,,,,,,,,,,,,,,,,
,,6463f56c88a5a54f57c01934,2024-02-19_15h16.31.163,kallum_motion_pilot,2023.2.2,Linux x86_64,60.24096386,6463f56c88a5a54f57c01934,65d2b6c8f2eece985d8e374c,65d2b9eb8ef7007ba45af97e,0.0367,0.0367,0,90,90,113,1,fiveseven,,,,,,,,,,,,,,,,,,,,,,,,,,,,,,,,,,,,,,,,,,,,,,,,,,,,,,,,,,,,,,,,,,,,,,,,,,,,,,,,,,,,,,,,,,,,,,,,,,,,,,,,,,,,,,,,,,,,,,,,,,,,,,,,,,,,,,,,,
,,6463f56c88a5a54f57c01934,2024-02-19_15h16.31.163,kallum_motion_pilot,2023.2.2,Linux x86_64,60.24096386,6463f56c88a5a54f57c01934,65d2b6c8f2eece985d8e374c,65d2b9eb8ef7007ba45af97e,0.0368,0.0369,0,91,91,1,1,onethree,,,,,,,,,,,,,,,,,,,,,,,,,,,,,,,,,,,,,,,,,,,,,,,,,,,,,,,,,,,,,,,,,,,,,,,,,,,,,,,,,,,,,,,,,,,,,,,,,,,,,,,,,,,,,,,,,,,,,,,,,,,,,,,,,,,,,,,,,
,,6463f56c88a5a54f57c01934,2024-02-19_15h16.31.163,kallum_motion_pilot,2023.2.2,Linux x86_64,60.24096386,6463f56c88a5a54f57c01934,65d2b6c8f2eece985d8e374c,65d2b9eb8ef7007ba45af97e,0.0369,0.037,0,92,92,92,1,sevenfive,,,,,,,,,,,,,,,,,,,,,,,,,,,,,,,,,,,,,,,,,,,,,,,,,,,,,,,,,,,,,,,,,,,,,,,,,,,,,,,,,,,,,,,,,,,,,,,,,,,,,,,,,,,,,,,,,,,,,,,,,,,,,,,,,,,,,,,,,
,,6463f56c88a5a54f57c01934,2024-02-19_15h16.31.163,kallum_motion_pilot,2023.2.2,Linux x86_64,60.24096386,6463f56c88a5a54f57c01934,65d2b6c8f2eece985d8e374c,65d2b9eb8ef7007ba45af97e,0.0371,0.0371,0,93,93,66,1,twoone,,,,,,,,,,,,,,,,,,,,,,,,,,,,,,,,,,,,,,,,,,,,,,,,,,,,,,,,,,,,,,,,,,,,,,,,,,,,,,,,,,,,,,,,,,,,,,,,,,,,,,,,,,,,,,,,,,,,,,,,,,,,,,,,,,,,,,,,,
,,6463f56c88a5a54f57c01934,2024-02-19_15h16.31.163,kallum_motion_pilot,2023.2.2,Linux x86_64,60.24096386,6463f56c88a5a54f57c01934,65d2b6c8f2eece985d8e374c,65d2b9eb8ef7007ba45af97e,0.0372,0.0372,0,94,94,151,1,eightseven,,,,,,,,,,,,,,,,,,,,,,,,,,,,,,,,,,,,,,,,,,,,,,,,,,,,,,,,,,,,,,,,,,,,,,,,,,,,,,,,,,,,,,,,,,,,,,,,,,,,,,,,,,,,,,,,,,,,,,,,,,,,,,,,,,,,,,,,,
,,6463f56c88a5a54f57c01934,2024-02-19_15h16.31.163,kallum_motion_pilot,2023.2.2,Linux x86_64,60.24096386,6463f56c88a5a54f57c01934,65d2b6c8f2eece985d8e374c,65d2b9eb8ef7007ba45af97e,0.0373,0.0373,0,95,95,6,1,fourtwo,,,,,,,,,,,,,,,,,,,,,,,,,,,,,,,,,,,,,,,,,,,,,,,,,,,,,,,,,,,,,,,,,,,,,,,,,,,,,,,,,,,,,,,,,,,,,,,,,,,,,,,,,,,,,,,,,,,,,,,,,,,,,,,,,,,,,,,,,
,,6463f56c88a5a54f57c01934,2024-02-19_15h16.31.163,kallum_motion_pilot,2023.2.2,Linux x86_64,60.24096386,6463f56c88a5a54f57c01934,65d2b6c8f2eece985d8e374c,65d2b9eb8ef7007ba45af97e,0.0374,0.0374,0,96,96,82,1,sixfive,,,,,,,,,,,,,,,,,,,,,,,,,,,,,,,,,,,,,,,,,,,,,,,,,,,,,,,,,,,,,,,,,,,,,,,,,,,,,,,,,,,,,,,,,,,,,,,,,,,,,,,,,,,,,,,,,,,,,,,,,,,,,,,,,,,,,,,,,
,,6463f56c88a5a54f57c01934,2024-02-19_15h16.31.163,kallum_motion_pilot,2023.2.2,Linux x86_64,60.24096386,6463f56c88a5a54f57c01934,65d2b6c8f2eece985d8e374c,65d2b9eb8ef7007ba45af97e,0.0375,0.0375,0,97,97,65,1,onethree,,,,,,,,,,,,,,,,,,,,,,,,,,,,,,,,,,,,,,,,,,,,,,,,,,,,,,,,,,,,,,,,,,,,,,,,,,,,,,,,,,,,,,,,,,,,,,,,,,,,,,,,,,,,,,,,,,,,,,,,,,,,,,,,,,,,,,,,,
,,6463f56c88a5a54f57c01934,2024-02-19_15h16.31.163,kallum_motion_pilot,2023.2.2,Linux x86_64,60.24096386,6463f56c88a5a54f57c01934,65d2b6c8f2eece985d8e374c,65d2b9eb8ef7007ba45af97e,0.0377,0.0377,0,98,98,129,1,fiveseven,,,,,,,,,,,,,,,,,,,,,,,,,,,,,,,,,,,,,,,,,,,,,,,,,,,,,,,,,,,,,,,,,,,,,,,,,,,,,,,,,,,,,,,,,,,,,,,,,,,,,,,,,,,,,,,,,,,,,,,,,,,,,,,,,,,,,,,,,
,,6463f56c88a5a54f57c01934,2024-02-19_15h16.31.163,kallum_motion_pilot,2023.2.2,Linux x86_64,60.24096386,6463f56c88a5a54f57c01934,65d2b6c8f2eece985d8e374c,65d2b9eb8ef7007ba45af97e,0.0378,0.0379,0,99,99,55,1,fourthree,,,,,,,,,,,,,,,,,,,,,,,,,,,,,,,,,,,,,,,,,,,,,,,,,,,,,,,,,,,,,,,,,,,,,,,,,,,,,,,,,,,,,,,,,,,,,,,,,,,,,,,,,,,,,,,,,,,,,,,,,,,,,,,,,,,,,,,,,
,,6463f56c88a5a54f57c01934,2024-02-19_15h16.31.163,kallum_motion_pilot,2023.2.2,Linux x86_64,60.24096386,6463f56c88a5a54f57c01934,65d2b6c8f2eece985d8e374c,65d2b9eb8ef7007ba45af97e,0.038,0.038,0,100,100,152,1,fivesix,,,,,,,,,,,,,,,,,,,,,,,,,,,,,,,,,,,,,,,,,,,,,,,,,,,,,,,,,,,,,,,,,,,,,,,,,,,,,,,,,,,,,,,,,,,,,,,,,,,,,,,,,,,,,,,,,,,,,,,,,,,,,,,,,,,,,,,,,
,,6463f56c88a5a54f57c01934,2024-02-19_15h16.31.163,kallum_motion_pilot,2023.2.2,Linux x86_64,60.24096386,6463f56c88a5a54f57c01934,65d2b6c8f2eece985d8e374c,65d2b9eb8ef7007ba45af97e,0.0381,0.0381,0,101,101,27,1,twofour,,,,,,,,,,,,,,,,,,,,,,,,,,,,,,,,,,,,,,,,,,,,,,,,,,,,,,,,,,,,,,,,,,,,,,,,,,,,,,,,,,,,,,,,,,,,,,,,,,,,,,,,,,,,,,,,,,,,,,,,,,,,,,,,,,,,,,,,,
,,6463f56c88a5a54f57c01934,2024-02-19_15h16.31.163,kallum_motion_pilot,2023.2.2,Linux x86_64,60.24096386,6463f56c88a5a54f57c01934,65d2b6c8f2eece985d8e374c,65d2b9eb8ef7007ba45af97e,0.0382,0.0383,0,102,102,93,1,seveneight,,,,,,,,,,,,,,,,,,,,,,,,,,,,,,,,,,,,,,,,,,,,,,,,,,,,,,,,,,,,,,,,,,,,,,,,,,,,,,,,,,,,,,,,,,,,,,,,,,,,,,,,,,,,,,,,,,,,,,,,,,,,,,,,,,,,,,,,,
,,6463f56c88a5a54f57c01934,2024-02-19_15h16.31.163,kallum_motion_pilot,2023.2.2,Linux x86_64,60.24096386,6463f56c88a5a54f57c01934,65d2b6c8f2eece985d8e374c,65d2b9eb8ef7007ba45af97e,0.0385,0.0385,0,103,103,157,1,seveneight,,,,,,,,,,,,,,,,,,,,,,,,,,,,,,,,,,,,,,,,,,,,,,,,,,,,,,,,,,,,,,,,,,,,,,,,,,,,,,,,,,,,,,,,,,,,,,,,,,,,,,,,,,,,,,,,,,,,,,,,,,,,,,,,,,,,,,,,,
,,6463f56c88a5a54f57c01934,2024-02-19_15h16.31.163,kallum_motion_pilot,2023.2.2,Linux x86_64,60.24096386,6463f56c88a5a54f57c01934,65d2b6c8f2eece985d8e374c,65d2b9eb8ef7007ba45af97e,0.0386,0.0387,0,104,104,38,1,fourtwo,,,,,,,,,,,,,,,,,,,,,,,,,,,,,,,,,,,,,,,,,,,,,,,,,,,,,,,,,,,,,,,,,,,,,,,,,,,,,,,,,,,,,,,,,,,,,,,,,,,,,,,,,,,,,,,,,,,,,,,,,,,,,,,,,,,,,,,,,
,,6463f56c88a5a54f57c01934,2024-02-19_15h16.31.163,kallum_motion_pilot,2023.2.2,Linux x86_64,60.24096386,6463f56c88a5a54f57c01934,65d2b6c8f2eece985d8e374c,65d2b9eb8ef7007ba45af97e,0.0387,0.0388,0,105,105,119,1,eightseven,,,,,,,,,,,,,,,,,,,,,,,,,,,,,,,,,,,,,,,,,,,,,,,,,,,,,,,,,,,,,,,,,,,,,,,,,,,,,,,,,,,,,,,,,,,,,,,,,,,,,,,,,,,,,,,,,,,,,,,,,,,,,,,,,,,,,,,,,
,,6463f56c88a5a54f57c01934,2024-02-19_15h16.31.163,kallum_motion_pilot,2023.2.2,Linux x86_64,60.24096386,6463f56c88a5a54f57c01934,65d2b6c8f2eece985d8e374c,65d2b9eb8ef7007ba45af97e,0.0388,0.0389,0,106,106,127,1,eightseven,,,,,,,,,,,,,,,,,,,,,,,,,,,,,,,,,,,,,,,,,,,,,,,,,,,,,,,,,,,,,,,,,,,,,,,,,,,,,,,,,,,,,,,,,,,,,,,,,,,,,,,,,,,,,,,,,,,,,,,,,,,,,,,,,,,,,,,,,
,,6463f56c88a5a54f57c01934,2024-02-19_15h16.31.163,kallum_motion_pilot,2023.2.2,Linux x86_64,60.24096386,6463f56c88a5a54f57c01934,65d2b6c8f2eece985d8e374c,65d2b9eb8ef7007ba45af97e,0.0391,0.0391,0,107,107,83,1,sixeight,,,,,,,,,,,,,,,,,,,,,,,,,,,,,,,,,,,,,,,,,,,,,,,,,,,,,,,,,,,,,,,,,,,,,,,,,,,,,,,,,,,,,,,,,,,,,,,,,,,,,,,,,,,,,,,,,,,,,,,,,,,,,,,,,,,,,,,,,
,,6463f56c88a5a54f57c01934,2024-02-19_15h16.31.163,kallum_motion_pilot,2023.2.2,Linux x86_64,60.24096386,6463f56c88a5a54f57c01934,65d2b6c8f2eece985d8e374c,65d2b9eb8ef7007ba45af97e,0.0392,0.0393,0,108,108,77,1,threefour,,,,,,,,,,,,,,,,,,,,,,,,,,,,,,,,,,,,,,,,,,,,,,,,,,,,,,,,,,,,,,,,,,,,,,,,,,,,,,,,,,,,,,,,,,,,,,,,,,,,,,,,,,,,,,,,,,,,,,,,,,,,,,,,,,,,,,,,,
,,6463f56c88a5a54f57c01934,2024-02-19_15h16.31.163,kallum_motion_pilot,2023.2.2,Linux x86_64,60.24096386,6463f56c88a5a54f57c01934,65d2b6c8f2eece985d8e374c,65d2b9eb8ef7007ba45af97e,0.0393,0.0394,0,109,109,7,1,fourthree,,,,,,,,,,,,,,,,,,,,,,,,,,,,,,,,,,,,,,,,,,,,,,,,,,,,,,,,,,,,,,,,,,,,,,,,,,,,,,,,,,,,,,,,,,,,,,,,,,,,,,,,,,,,,,,,,,,,,,,,,,,,,,,,,,,,,,,,,
,,6463f56c88a5a54f57c01934,2024-02-19_15h16.31.163,kallum_motion_pilot,2023.2.2,Linux x86_64,60.24096386,6463f56c88a5a54f57c01934,65d2b6c8f2eece985d8e374c,65d2b9eb8ef7007ba45af97e,0.0395,0.0396,0,110,110,161,1,fiveseven,,,,,,,,,,,,,,,,,,,,,,,,,,,,,,,,,,,,,,,,,,,,,,,,,,,,,,,,,,,,,,,,,,,,,,,,,,,,,,,,,,,,,,,,,,,,,,,,,,,,,,,,,,,,,,,,,,,,,,,,,,,,,,,,,,,,,,,,,
,,6463f56c88a5a54f57c01934,2024-02-19_15h16.31.163,kallum_motion_pilot,2023.2.2,Linux x86_64,60.24096386,6463f56c88a5a54f57c01934,65d2b6c8f2eece985d8e374c,65d2b9eb8ef7007ba45af97e,0.0396,0.0397,0,111,111,87,1,eightseven,,,,,,,,,,,,,,,,,,,,,,,,,,,,,,,,,,,,,,,,,,,,,,,,,,,,,,,,,,,,,,,,,,,,,,,,,,,,,,,,,,,,,,,,,,,,,,,,,,,,,,,,,,,,,,,,,,,,,,,,,,,,,,,,,,,,,,,,,
,,6463f56c88a5a54f57c01934,2024-02-19_15h16.31.163,kallum_motion_pilot,2023.2.2,Linux x86_64,60.24096386,6463f56c88a5a54f57c01934,65d2b6c8f2eece985d8e374c,65d2b9eb8ef7007ba45af97e,0.0398,0.0398,0,112,112,135,1,eightseven,,,,,,,,,,,,,,,,,,,,,,,,,,,,,,,,,,,,,,,,,,,,,,,,,,,,,,,,,,,,,,,,,,,,,,,,,,,,,,,,,,,,,,,,,,,,,,,,,,,,,,,,,,,,,,,,,,,,,,,,,,,,,,,,,,,,,,,,,
,,6463f56c88a5a54f57c01934,2024-02-19_15h16.31.163,kallum_motion_pilot,2023.2.2,Linux x86_64,60.24096386,6463f56c88a5a54f57c01934,65d2b6c8f2eece985d8e374c,65d2b9eb8ef7007ba45af97e,0.0399,0.04,0,113,113,99,1,sixeight,,,,,,,,,,,,,,,,,,,,,,,,,,,,,,,,,,,,,,,,,,,,,,,,,,,,,,,,,,,,,,,,,,,,,,,,,,,,,,,,,,,,,,,,,,,,,,,,,,,,,,,,,,,,,,,,,,,,,,,,,,,,,,,,,,,,,,,,,
,,6463f56c88a5a54f57c01934,2024-02-19_15h16.31.163,kallum_motion_pilot,2023.2.2,Linux x86_64,60.24096386,6463f56c88a5a54f57c01934,65d2b6c8f2eece985d8e374c,65d2b9eb8ef7007ba45af97e,0.04,0.0402,0,114,114,62,1,fourtwo,,,,,,,,,,,,,,,,,,,,,,,,,,,,,,,,,,,,,,,,,,,,,,,,,,,,,,,,,,,,,,,,,,,,,,,,,,,,,,,,,,,,,,,,,,,,,,,,,,,,,,,,,,,,,,,,,,,,,,,,,,,,,,,,,,,,,,,,,
,,6463f56c88a5a54f57c01934,2024-02-19_15h16.31.163,kallum_motion_pilot,2023.2.2,Linux x86_64,60.24096386,6463f56c88a5a54f57c01934,65d2b6c8f2eece985d8e374c,65d2b9eb8ef7007ba45af97e,0.0402,0.0403,0,115,115,80,1,fivesix,,,,,,,,,,,,,,,,,,,,,,,,,,,,,,,,,,,,,,,,,,,,,,,,,,,,,,,,,,,,,,,,,,,,,,,,,,,,,,,,,,,,,,,,,,,,,,,,,,,,,,,,,,,,,,,,,,,,,,,,,,,,,,,,,,,,,,,,,
,,6463f56c88a5a54f57c01934,2024-02-19_15h16.31.163,kallum_motion_pilot,2023.2.2,Linux x86_64,60.24096386,6463f56c88a5a54f57c01934,65d2b6c8f2eece985d8e374c,65d2b9eb8ef7007ba45af97e,0.0403,0.0404,0,116,116,74,1,twoone,,,,,,,,,,,,,,,,,,,,,,,,,,,,,,,,,,,,,,,,,,,,,,,,,,,,,,,,,,,,,,,,,,,,,,,,,,,,,,,,,,,,,,,,,,,,,,,,,,,,,,,,,,,,,,,,,,,,,,,,,,,,,,,,,,,,,,,,,
,,6463f56c88a5a54f57c01934,2024-02-19_15h16.31.163,kallum_motion_pilot,2023.2.2,Linux x86_64,60.24096386,6463f56c88a5a54f57c01934,65d2b6c8f2eece985d8e374c,65d2b9eb8ef7007ba45af97e,0.0405,0.0405,0,117,117,96,1,fivesix,,,,,,,,,,,,,,,,,,,,,,,,,,,,,,,,,,,,,,,,,,,,,,,,,,,,,,,,,,,,,,,,,,,,,,,,,,,,,,,,,,,,,,,,,,,,,,,,,,,,,,,,,,,,,,,,,,,,,,,,,,,,,,,,,,,,,,,,,
,,6463f56c88a5a54f57c01934,2024-02-19_15h16.31.163,kallum_motion_pilot,2023.2.2,Linux x86_64,60.24096386,6463f56c88a5a54f57c01934,65d2b6c8f2eece985d8e374c,65d2b9eb8ef7007ba45af97e,0.0406,0.0406,0,118,118,21,1,threefour,,,,,,,,,,,,,,,,,,,,,,,,,,,,,,,,,,,,,,,,,,,,,,,,,,,,,,,,,,,,,,,,,,,,,,,,,,,,,,,,,,,,,,,,,,,,,,,,,,,,,,,,,,,,,,,,,,,,,,,,,,,,,,,,,,,,,,,,,
,,6463f56c88a5a54f57c01934,2024-02-19_15h16.31.163,kallum_motion_pilot,2023.2.2,Linux x86_64,60.24096386,6463f56c88a5a54f57c01934,65d2b6c8f2eece985d8e374c,65d2b9eb8ef7007ba45af97e,0.0407,0.0408,0,119,119,26,1,twoone,,,,,,,,,,,,,,,,,,,,,,,,,,,,,,,,,,,,,,,,,,,,,,,,,,,,,,,,,,,,,,,,,,,,,,,,,,,,,,,,,,,,,,,,,,,,,,,,,,,,,,,,,,,,,,,,,,,,,,,,,,,,,,,,,,,,,,,,,
,,6463f56c88a5a54f57c01934,2024-02-19_15h16.31.163,kallum_motion_pilot,2023.2.2,Linux x86_64,60.24096386,6463f56c88a5a54f57c01934,65d2b6c8f2eece985d8e374c,65d2b9eb8ef7007ba45af97e,0.0408,0.0409,0,120,120,29,1,threefour,,,,,,,,,,,,,,,,,,,,,,,,,,,,,,,,,,,,,,,,,,,,,,,,,,,,,,,,,,,,,,,,,,,,,,,,,,,,,,,,,,,,,,,,,,,,,,,,,,,,,,,,,,,,,,,,,,,,,,,,,,,,,,,,,,,,,,,,,
,,6463f56c88a5a54f57c01934,2024-02-19_15h16.31.163,kallum_motion_pilot,2023.2.2,Linux x86_64,60.24096386,6463f56c88a5a54f57c01934,65d2b6c8f2eece985d8e374c,65d2b9eb8ef7007ba45af97e,0.041,0.041,0,121,121,41,1,onethree,,,,,,,,,,,,,,,,,,,,,,,,,,,,,,,,,,,,,,,,,,,,,,,,,,,,,,,,,,,,,,,,,,,,,,,,,,,,,,,,,,,,,,,,,,,,,,,,,,,,,,,,,,,,,,,,,,,,,,,,,,,,,,,,,,,,,,,,,
,,6463f56c88a5a54f57c01934,2024-02-19_15h16.31.163,kallum_motion_pilot,2023.2.2,Linux x86_64,60.24096386,6463f56c88a5a54f57c01934,65d2b6c8f2eece985d8e374c,65d2b9eb8ef7007ba45af97e,0.0411,0.0411,0,122,122,136,1,fivesix,,,,,,,,,,,,,,,,,,,,,,,,,,,,,,,,,,,,,,,,,,,,,,,,,,,,,,,,,,,,,,,,,,,,,,,,,,,,,,,,,,,,,,,,,,,,,,,,,,,,,,,,,,,,,,,,,,,,,,,,,,,,,,,,,,,,,,,,,
,,6463f56c88a5a54f57c01934,2024-02-19_15h16.31.163,kallum_motion_pilot,2023.2.2,Linux x86_64,60.24096386,6463f56c88a5a54f57c01934,65d2b6c8f2eece985d8e374c,65d2b9eb8ef7007ba45af97e,0.0412,0.0413,0,123,123,17,1,onethree,,,,,,,,,,,,,,,,,,,,,,,,,,,,,,,,,,,,,,,,,,,,,,,,,,,,,,,,,,,,,,,,,,,,,,,,,,,,,,,,,,,,,,,,,,,,,,,,,,,,,,,,,,,,,,,,,,,,,,,,,,,,,,,,,,,,,,,,,
,,6463f56c88a5a54f57c01934,2024-02-19_15h16.31.163,kallum_motion_pilot,2023.2.2,Linux x86_64,60.24096386,6463f56c88a5a54f57c01934,65d2b6c8f2eece985d8e374c,65d2b9eb8ef7007ba45af97e,0.0414,0.0414,0,124,124,140,1,sevenfive,,,,,,,,,,,,,,,,,,,,,,,,,,,,,,,,,,,,,,,,,,,,,,,,,,,,,,,,,,,,,,,,,,,,,,,,,,,,,,,,,,,,,,,,,,,,,,,,,,,,,,,,,,,,,,,,,,,,,,,,,,,,,,,,,,,,,,,,,
,,6463f56c88a5a54f57c01934,2024-02-19_15h16.31.163,kallum_motion_pilot,2023.2.2,Linux x86_64,60.24096386,6463f56c88a5a54f57c01934,65d2b6c8f2eece985d8e374c,65d2b9eb8ef7007ba45af97e,0.0415,0.0416,0,125,125,8,1,onetwo,,,,,,,,,,,,,,,,,,,,,,,,,,,,,,,,,,,,,,,,,,,,,,,,,,,,,,,,,,,,,,,,,,,,,,,,,,,,,,,,,,,,,,,,,,,,,,,,,,,,,,,,,,,,,,,,,,,,,,,,,,,,,,,,,,,,,,,,,
,,6463f56c88a5a54f57c01934,2024-02-19_15h16.31.163,kallum_motion_pilot,2023.2.2,Linux x86_64,60.24096386,6463f56c88a5a54f57c01934,65d2b6c8f2eece985d8e374c,65d2b9eb8ef7007ba45af97e,0.0416,0.0417,0,126,126,159,1,eightseven,,,,,,,,,,,,,,,,,,,,,,,,,,,,,,,,,,,,,,,,,,,,,,,,,,,,,,,,,,,,,,,,,,,,,,,,,,,,,,,,,,,,,,,,,,,,,,,,,,,,,,,,,,,,,,,,,,,,,,,,,,,,,,,,,,,,,,,,,
,,6463f56c88a5a54f57c01934,2024-02-19_15h16.31.163,kallum_motion_pilot,2023.2.2,Linux x86_64,60.24096386,6463f56c88a5a54f57c01934,65d2b6c8f2eece985d8e374c,65d2b9eb8ef7007ba45af97e,0.0418,0.0419,0,127,127,85,1,seveneight,,,,,,,,,,,,,,,,,,,,,,,,,,,,,,,,,,,,,,,,,,,,,,,,,,,,,,,,,,,,,,,,,,,,,,,,,,,,,,,,,,,,,,,,,,,,,,,,,,,,,,,,,,,,,,,,,,,,,,,,,,,,,,,,,,,,,,,,,
,,6463f56c88a5a54f57c01934,2024-02-19_15h16.31.163,kallum_motion_pilot,2023.2.2,Linux x86_64,60.24096386,6463f56c88a5a54f57c01934,65d2b6c8f2eece985d8e374c,65d2b9eb8ef7007ba45af97e,0.042,0.042,0,128,128,10,1,twoone,,,,,,,,,,,,,,,,,,,,,,,,,,,,,,,,,,,,,,,,,,,,,,,,,,,,,,,,,,,,,,,,,,,,,,,,,,,,,,,,,,,,,,,,,,,,,,,,,,,,,,,,,,,,,,,,,,,,,,,,,,,,,,,,,,,,,,,,,
,,6463f56c88a5a54f57c01934,2024-02-19_15h16.31.163,kallum_motion_pilot,2023.2.2,Linux x86_64,60.24096386,6463f56c88a5a54f57c01934,65d2b6c8f2eece985d8e374c,65d2b9eb8ef7007ba45af97e,0.0421,0.0422,0,129,129,109,1,seveneight,,,,,,,,,,,,,,,,,,,,,,,,,,,,,,,,,,,,,,,,,,,,,,,,,,,,,,,,,,,,,,,,,,,,,,,,,,,,,,,,,,,,,,,,,,,,,,,,,,,,,,,,,,,,,,,,,,,,,,,,,,,,,,,,,,,,,,,,,
,,6463f56c88a5a54f57c01934,2024-02-19_15h16.31.163,kallum_motion_pilot,2023.2.2,Linux x86_64,60.24096386,6463f56c88a5a54f57c01934,65d2b6c8f2eece985d8e374c,65d2b9eb8ef7007ba45af97e,0.0423,0.0423,0,130,130,90,1,sixfive,,,,,,,,,,,,,,,,,,,,,,,,,,,,,,,,,,,,,,,,,,,,,,,,,,,,,,,,,,,,,,,,,,,,,,,,,,,,,,,,,,,,,,,,,,,,,,,,,,,,,,,,,,,,,,,,,,,,,,,,,,,,,,,,,,,,,,,,,
,,6463f56c88a5a54f57c01934,2024-02-19_15h16.31.163,kallum_motion_pilot,2023.2.2,Linux x86_64,60.24096386,6463f56c88a5a54f57c01934,65d2b6c8f2eece985d8e374c,65d2b9eb8ef7007ba45af97e,0.0425,0.0425,0,131,131,69,1,threefour,,,,,,,,,,,,,,,,,,,,,,,,,,,,,,,,,,,,,,,,,,,,,,,,,,,,,,,,,,,,,,,,,,,,,,,,,,,,,,,,,,,,,,,,,,,,,,,,,,,,,,,,,,,,,,,,,,,,,,,,,,,,,,,,,,,,,,,,,
,,6463f56c88a5a54f57c01934,2024-02-19_15h16.31.163,kallum_motion_pilot,2023.2.2,Linux x86_64,60.24096386,6463f56c88a5a54f57c01934,65d2b6c8f2eece985d8e374c,65d2b9eb8ef7007ba45af97e,0.0426,0.0426,0,132,132,107,1,sixeight,,,,,,,,,,,,,,,,,,,,,,,,,,,,,,,,,,,,,,,,,,,,,,,,,,,,,,,,,,,,,,,,,,,,,,,,,,,,,,,,,,,,,,,,,,,,,,,,,,,,,,,,,,,,,,,,,,,,,,,,,,,,,,,,,,,,,,,,,
,,6463f56c88a5a54f57c01934,2024-02-19_15h16.31.163,kallum_motion_pilot,2023.2.2,Linux x86_64,60.24096386,6463f56c88a5a54f57c01934,65d2b6c8f2eece985d8e374c,65d2b9eb8ef7007ba45af97e,0.0427,0.0428,0,133,133,158,1,eightsix,,,,,,,,,,,,,,,,,,,,,,,,,,,,,,,,,,,,,,,,,,,,,,,,,,,,,,,,,,,,,,,,,,,,,,,,,,,,,,,,,,,,,,,,,,,,,,,,,,,,,,,,,,,,,,,,,,,,,,,,,,,,,,,,,,,,,,,,,
,,6463f56c88a5a54f57c01934,2024-02-19_15h16.31.163,kallum_motion_pilot,2023.2.2,Linux x86_64,60.24096386,6463f56c88a5a54f57c01934,65d2b6c8f2eece985d8e374c,65d2b9eb8ef7007ba45af97e,0.0429,0.043,0,134,134,59,1,twofour,,,,,,,,,,,,,,,,,,,,,,,,,,,,,,,,,,,,,,,,,,,,,,,,,,,,,,,,,,,,,,,,,,,,,,,,,,,,,,,,,,,,,,,,,,,,,,,,,,,,,,,,,,,,,,,,,,,,,,,,,,,,,,,,,,,,,,,,,
,,6463f56c88a5a54f57c01934,2024-02-19_15h16.31.163,kallum_motion_pilot,2023.2.2,Linux x86_64,60.24096386,6463f56c88a5a54f57c01934,65d2b6c8f2eece985d8e374c,65d2b9eb8ef7007ba45af97e,0.043,0.0432,0,135,135,94,1,eightsix,,,,,,,,,,,,,,,,,,,,,,,,,,,,,,,,,,,,,,,,,,,,,,,,,,,,,,,,,,,,,,,,,,,,,,,,,,,,,,,,,,,,,,,,,,,,,,,,,,,,,,,,,,,,,,,,,,,,,,,,,,,,,,,,,,,,,,,,,
,,6463f56c88a5a54f57c01934,2024-02-19_15h16.31.163,kallum_motion_pilot,2023.2.2,Linux x86_64,60.24096386,6463f56c88a5a54f57c01934,65d2b6c8f2eece985d8e374c,65d2b9eb8ef7007ba45af97e,0.0432,0.0433,0,136,136,111,1,eightseven,,,,,,,,,,,,,,,,,,,,,,,,,,,,,,,,,,,,,,,,,,,,,,,,,,,,,,,,,,,,,,,,,,,,,,,,,,,,,,,,,,,,,,,,,,,,,,,,,,,,,,,,,,,,,,,,,,,,,,,,,,,,,,,,,,,,,,,,,
,,6463f56c88a5a54f57c01934,2024-02-19_15h16.31.163,kallum_motion_pilot,2023.2.2,Linux x86_64,60.24096386,6463f56c88a5a54f57c01934,65d2b6c8f2eece985d8e374c,65d2b9eb8ef7007ba45af97e,0.0434,0.0435,0,137,137,35,1,twofour,,,,,,,,,,,,,,,,,,,,,,,,,,,,,,,,,,,,,,,,,,,,,,,,,,,,,,,,,,,,,,,,,,,,,,,,,,,,,,,,,,,,,,,,,,,,,,,,,,,,,,,,,,,,,,,,,,,,,,,,,,,,,,,,,,,,,,,,,
,,6463f56c88a5a54f57c01934,2024-02-19_15h16.31.163,kallum_motion_pilot,2023.2.2,Linux x86_64,60.24096386,6463f56c88a5a54f57c01934,65d2b6c8f2eece985d8e374c,65d2b9eb8ef7007ba45af97e,0.0436,0.0436,0,138,138,15,1,fourthree,,,,,,,,,,,,,,,,,,,,,,,,,,,,,,,,,,,,,,,,,,,,,,,,,,,,,,,,,,,,,,,,,,,,,,,,,,,,,,,,,,,,,,,,,,,,,,,,,,,,,,,,,,,,,,,,,,,,,,,,,,,,,,,,,,,,,,,,,
,,6463f56c88a5a54f57c01934,2024-02-19_15h16.31.163,kallum_motion_pilot,2023.2.2,Linux x86_64,60.24096386,6463f56c88a5a54f57c01934,65d2b6c8f2eece985d8e374c,65d2b9eb8ef7007ba45af97e,0.0437,0.0439,0,139,139,61,1,threefour,,,,,,,,,,,,,,,,,,,,,,,,,,,,,,,,,,,,,,,,,,,,,,,,,,,,,,,,,,,,,,,,,,,,,,,,,,,,,,,,,,,,,,,,,,,,,,,,,,,,,,,,,,,,,,,,,,,,,,,,,,,,,,,,,,,,,,,,,
,,6463f56c88a5a54f57c01934,2024-02-19_15h16.31.163,kallum_motion_pilot,2023.2.2,Linux x86_64,60.24096386,6463f56c88a5a54f57c01934,65d2b6c8f2eece985d8e374c,65d2b9eb8ef7007ba45af97e,0.0441,0.0443,0,140,140,156,1,sevenfive,,,,,,,,,,,,,,,,,,,,,,,,,,,,,,,,,,,,,,,,,,,,,,,,,,,,,,,,,,,,,,,,,,,,,,,,,,,,,,,,,,,,,,,,,,,,,,,,,,,,,,,,,,,,,,,,,,,,,,,,,,,,,,,,,,,,,,,,,
,,6463f56c88a5a54f57c01934,2024-02-19_15h16.31.163,kallum_motion_pilot,2023.2.2,Linux x86_64,60.24096386,6463f56c88a5a54f57c01934,65d2b6c8f2eece985d8e374c,65d2b9eb8ef7007ba45af97e,0.0443,0.0444,0,141,141,33,1,onethree,,,,,,,,,,,,,,,,,,,,,,,,,,,,,,,,,,,,,,,,,,,,,,,,,,,,,,,,,,,,,,,,,,,,,,,,,,,,,,,,,,,,,,,,,,,,,,,,,,,,,,,,,,,,,,,,,,,,,,,,,,,,,,,,,,,,,,,,,
,,6463f56c88a5a54f57c01934,2024-02-19_15h16.31.163,kallum_motion_pilot,2023.2.2,Linux x86_64,60.24096386,6463f56c88a5a54f57c01934,65d2b6c8f2eece985d8e374c,65d2b9eb8ef7007ba45af97e,0.0445,0.0445,0,142,142,125,1,seveneight,,,,,,,,,,,,,,,,,,,,,,,,,,,,,,,,,,,,,,,,,,,,,,,,,,,,,,,,,,,,,,,,,,,,,,,,,,,,,,,,,,,,,,,,,,,,,,,,,,,,,,,,,,,,,,,,,,,,,,,,,,,,,,,,,,,,,,,,,
,,6463f56c88a5a54f57c01934,2024-02-19_15h16.31.163,kallum_motion_pilot,2023.2.2,Linux x86_64,60.24096386,6463f56c88a5a54f57c01934,65d2b6c8f2eece985d8e374c,65d2b9eb8ef7007ba45af97e,0.0447,0.0447,0,143,143,78,1,fourtwo,,,,,,,,,,,,,,,,,,,,,,,,,,,,,,,,,,,,,,,,,,,,,,,,,,,,,,,,,,,,,,,,,,,,,,,,,,,,,,,,,,,,,,,,,,,,,,,,,,,,,,,,,,,,,,,,,,,,,,,,,,,,,,,,,,,,,,,,,
,,6463f56c88a5a54f57c01934,2024-02-19_15h16.31.163,kallum_motion_pilot,2023.2.2,Linux x86_64,60.24096386,6463f56c88a5a54f57c01934,65d2b6c8f2eece985d8e374c,65d2b9eb8ef7007ba45af97e,0.0448,0.0449,0,144,144,71,1,fourthree,,,,,,,,,,,,,,,,,,,,,,,,,,,,,,,,,,,,,,,,,,,,,,,,,,,,,,,,,,,,,,,,,,,,,,,,,,,,,,,,,,,,,,,,,,,,,,,,,,,,,,,,,,,,,,,,,,,,,,,,,,,,,,,,,,,,,,,,,
,,6463f56c88a5a54f57c01934,2024-02-19_15h16.31.163,kallum_motion_pilot,2023.2.2,Linux x86_64,60.24096386,6463f56c88a5a54f57c01934,65d2b6c8f2eece985d8e374c,65d2b9eb8ef7007ba45af97e,0.045,0.0451,0,145,145,46,1,fourtwo,,,,,,,,,,,,,,,,,,,,,,,,,,,,,,,,,,,,,,,,,,,,,,,,,,,,,,,,,,,,,,,,,,,,,,,,,,,,,,,,,,,,,,,,,,,,,,,,,,,,,,,,,,,,,,,,,,,,,,,,,,,,,,,,,,,,,,,,,
,,6463f56c88a5a54f57c01934,2024-02-19_15h16.31.163,kallum_motion_pilot,2023.2.2,Linux x86_64,60.24096386,6463f56c88a5a54f57c01934,65d2b6c8f2eece985d8e374c,65d2b9eb8ef7007ba45af97e,0.0452,0.0452,0,146,146,154,1,sixfive,,,,,,,,,,,,,,,,,,,,,,,,,,,,,,,,,,,,,,,,,,,,,,,,,,,,,,,,,,,,,,,,,,,,,,,,,,,,,,,,,,,,,,,,,,,,,,,,,,,,,,,,,,,,,,,,,,,,,,,,,,,,,,,,,,,,,,,,,
,,6463f56c88a5a54f57c01934,2024-02-19_15h16.31.163,kallum_motion_pilot,2023.2.2,Linux x86_64,60.24096386,6463f56c88a5a54f57c01934,65d2b6c8f2eece985d8e374c,65d2b9eb8ef7007ba45af97e,0.0452,0.0453,0,147,147,133,1,seveneight,,,,,,,,,,,,,,,,,,,,,,,,,,,,,,,,,,,,,,,,,,,,,,,,,,,,,,,,,,,,,,,,,,,,,,,,,,,,,,,,,,,,,,,,,,,,,,,,,,,,,,,,,,,,,,,,,,,,,,,,,,,,,,,,,,,,,,,,,
,,6463f56c88a5a54f57c01934,2024-02-19_15h16.31.163,kallum_motion_pilot,2023.2.2,Linux x86_64,60.24096386,6463f56c88a5a54f57c01934,65d2b6c8f2eece985d8e374c,65d2b9eb8ef7007ba45af97e,0.0454,0.0455,0,148,148,51,1,twofour,,,,,,,,,,,,,,,,,,,,,,,,,,,,,,,,,,,,,,,,,,,,,,,,,,,,,,,,,,,,,,,,,,,,,,,,,,,,,,,,,,,,,,,,,,,,,,,,,,,,,,,,,,,,,,,,,,,,,,,,,,,,,,,,,,,,,,,,,
,,6463f56c88a5a54f57c01934,2024-02-19_15h16.31.163,kallum_motion_pilot,2023.2.2,Linux x86_64,60.24096386,6463f56c88a5a54f57c01934,65d2b6c8f2eece985d8e374c,65d2b9eb8ef7007ba45af97e,0.0455,0.0456,0,149,149,160,1,fivesix,,,,,,,,,,,,,,,,,,,,,,,,,,,,,,,,,,,,,,,,,,,,,,,,,,,,,,,,,,,,,,,,,,,,,,,,,,,,,,,,,,,,,,,,,,,,,,,,,,,,,,,,,,,,,,,,,,,,,,,,,,,,,,,,,,,,,,,,,
,,6463f56c88a5a54f57c01934,2024-02-19_15h16.31.163,kallum_motion_pilot,2023.2.2,Linux x86_64,60.24096386,6463f56c88a5a54f57c01934,65d2b6c8f2eece985d8e374c,65d2b9eb8ef7007ba45af97e,0.0457,0.0457,0,150,150,25,1,onethree,,,,,,,,,,,,,,,,,,,,,,,,,,,,,,,,,,,,,,,,,,,,,,,,,,,,,,,,,,,,,,,,,,,,,,,,,,,,,,,,,,,,,,,,,,,,,,,,,,,,,,,,,,,,,,,,,,,,,,,,,,,,,,,,,,,,,,,,,
,,6463f56c88a5a54f57c01934,2024-02-19_15h16.31.163,kallum_motion_pilot,2023.2.2,Linux x86_64,60.24096386,6463f56c88a5a54f57c01934,65d2b6c8f2eece985d8e374c,65d2b9eb8ef7007ba45af97e,0.0458,0.0459,0,151,151,67,1,twofour,,,,,,,,,,,,,,,,,,,,,,,,,,,,,,,,,,,,,,,,,,,,,,,,,,,,,,,,,,,,,,,,,,,,,,,,,,,,,,,,,,,,,,,,,,,,,,,,,,,,,,,,,,,,,,,,,,,,,,,,,,,,,,,,,,,,,,,,,
,,6463f56c88a5a54f57c01934,2024-02-19_15h16.31.163,kallum_motion_pilot,2023.2.2,Linux x86_64,60.24096386,6463f56c88a5a54f57c01934,65d2b6c8f2eece985d8e374c,65d2b9eb8ef7007ba45af97e,0.046,0.0461,0,152,152,106,1,sixfive,,,,,,,,,,,,,,,,,,,,,,,,,,,,,,,,,,,,,,,,,,,,,,,,,,,,,,,,,,,,,,,,,,,,,,,,,,,,,,,,,,,,,,,,,,,,,,,,,,,,,,,,,,,,,,,,,,,,,,,,,,,,,,,,,,,,,,,,,
,,6463f56c88a5a54f57c01934,2024-02-19_15h16.31.163,kallum_motion_pilot,2023.2.2,Linux x86_64,60.24096386,6463f56c88a5a54f57c01934,65d2b6c8f2eece985d8e374c,65d2b9eb8ef7007ba45af97e,0.0461,0.0463,0,153,153,53,1,threefour,,,,,,,,,,,,,,,,,,,,,,,,,,,,,,,,,,,,,,,,,,,,,,,,,,,,,,,,,,,,,,,,,,,,,,,,,,,,,,,,,,,,,,,,,,,,,,,,,,,,,,,,,,,,,,,,,,,,,,,,,,,,,,,,,,,,,,,,,
,,6463f56c88a5a54f57c01934,2024-02-19_15h16.31.163,kallum_motion_pilot,2023.2.2,Linux x86_64,60.24096386,6463f56c88a5a54f57c01934,65d2b6c8f2eece985d8e374c,65d2b9eb8ef7007ba45af97e,0.0463,0.0464,0,154,154,117,1,seveneight,,,,,,,,,,,,,,,,,,,,,,,,,,,,,,,,,,,,,,,,,,,,,,,,,,,,,,,,,,,,,,,,,,,,,,,,,,,,,,,,,,,,,,,,,,,,,,,,,,,,,,,,,,,,,,,,,,,,,,,,,,,,,,,,,,,,,,,,,
,,6463f56c88a5a54f57c01934,2024-02-19_15h16.31.163,kallum_motion_pilot,2023.2.2,Linux x86_64,60.24096386,6463f56c88a5a54f57c01934,65d2b6c8f2eece985d8e374c,65d2b9eb8ef7007ba45af97e,0.0466,0.0466,0,155,155,0,1,onetwo,,,,,,,,,,,,,,,,,,,,,,,,,,,,,,,,,,,,,,,,,,,,,,,,,,,,,,,,,,,,,,,,,,,,,,,,,,,,,,,,,,,,,,,,,,,,,,,,,,,,,,,,,,,,,,,,,,,,,,,,,,,,,,,,,,,,,,,,,
,,6463f56c88a5a54f57c01934,2024-02-19_15h16.31.163,kallum_motion_pilot,2023.2.2,Linux x86_64,60.24096386,6463f56c88a5a54f57c01934,65d2b6c8f2eece985d8e374c,65d2b9eb8ef7007ba45af97e,0.0467,0.0467,0,156,156,103,1,eightseven,,,,,,,,,,,,,,,,,,,,,,,,,,,,,,,,,,,,,,,,,,,,,,,,,,,,,,,,,,,,,,,,,,,,,,,,,,,,,,,,,,,,,,,,,,,,,,,,,,,,,,,,,,,,,,,,,,,,,,,,,,,,,,,,,,,,,,,,,
,,6463f56c88a5a54f57c01934,2024-02-19_15h16.31.163,kallum_motion_pilot,2023.2.2,Linux x86_64,60.24096386,6463f56c88a5a54f57c01934,65d2b6c8f2eece985d8e374c,65d2b9eb8ef7007ba45af97e,0.0469,0.047,0,157,157,118,1,eightsix,,,,,,,,,,,,,,,,,,,,,,,,,,,,,,,,,,,,,,,,,,,,,,,,,,,,,,,,,,,,,,,,,,,,,,,,,,,,,,,,,,,,,,,,,,,,,,,,,,,,,,,,,,,,,,,,,,,,,,,,,,,,,,,,,,,,,,,,,
,,6463f56c88a5a54f57c01934,2024-02-19_15h16.31.163,kallum_motion_pilot,2023.2.2,Linux x86_64,60.24096386,6463f56c88a5a54f57c01934,65d2b6c8f2eece985d8e374c,65d2b9eb8ef7007ba45af97e,0.047,0.0472,0,158,158,3,1,twofour,,,,,,,,,,,,,,,,,,,,,,,,,,,,,,,,,,,,,,,,,,,,,,,,,,,,,,,,,,,,,,,,,,,,,,,,,,,,,,,,,,,,,,,,,,,,,,,,,,,,,,,,,,,,,,,,,,,,,,,,,,,,,,,,,,,,,,,,,
,,6463f56c88a5a54f57c01934,2024-02-19_15h16.31.163,kallum_motion_pilot,2023.2.2,Linux x86_64,60.24096386,6463f56c88a5a54f57c01934,65d2b6c8f2eece985d8e374c,65d2b9eb8ef7007ba45af97e,0.0473,0.0473,0,159,159,73,1,onethree,,,,,,,,,,,,,,,,,,,,,,,,,,,,,,,,,,,,,,,,,,,,,,,,,,,,,,,,,,,,,,,,,,,,,,,,,,,,,,,,,,,,,,,,,,,,,,,,,,,,,,,,,,,,,,,,,,,,,,,,,,,,,,,,,,,,,,,,,
,,6463f56c88a5a54f57c01934,2024-02-19_15h16.31.163,kallum_motion_pilot,2023.2.2,Linux x86_64,60.24096386,6463f56c88a5a54f57c01934,65d2b6c8f2eece985d8e374c,65d2b9eb8ef7007ba45af97e,0.0474,0.0475,0,160,160,11,1,twofour,,,,,,,,,,,,,,,,,,,,,,,,,,,,,,,,,,,,,,,,,,,,,,,,,,,,,,,,,,,,,,,,,,,,,,,,,,,,,,,,,,,,,,,,,,,,,,,,,,,,,,,,,,,,,,,,,,,,,,,,,,,,,,,,,,,,,,,,,
,,6463f56c88a5a54f57c01934,2024-02-19_15h16.31.163,kallum_motion_pilot,2023.2.2,Linux x86_64,60.24096386,6463f56c88a5a54f57c01934,65d2b6c8f2eece985d8e374c,65d2b9eb8ef7007ba45af97e,0.0475,0.0476,0,161,161,91,1,sixeight,,,,,,,,,,,,,,,,,,,,,,,,,,,,,,,,,,,,,,,,,,,,,,,,,,,,,,,,,,,,,,,,,,,,,,,,,,,,,,,,,,,,,,,,,,,,,,,,,,,,,,,,,,,,,,,,,,,,,,,,,,,,,,,,,,,,,,,,,
,,6463f56c88a5a54f57c01934,2024-02-19_15h16.31.163,kallum_motion_pilot,2023.2.2,Linux x86_64,60.24096386,6463f56c88a5a54f57c01934,65d2b6c8f2eece985d8e374c,65d2b9eb8ef7007ba45af97e,0.0477,0.0477,1,0,162,155,1,sixeight,,,,,,,,,,,,,,,,,,,,,,,,,,,,,,,,,,,,,,,,,,,,,,,,,,,,,,,,,,,,,,,,,,,,,,,,,,,,,,,,,,,,,,,,,,,,,,,,,,,,,,,,,,,,,,,,,,,,,,,,,,,,,,,,,,,,,,,,,
,,6463f56c88a5a54f57c01934,2024-02-19_15h16.31.163,kallum_motion_pilot,2023.2.2,Linux x86_64,60.24096386,6463f56c88a5a54f57c01934,65d2b6c8f2eece985d8e374c,65d2b9eb8ef7007ba45af97e,0.0479,0.0481,1,1,163,95,1,eightseven,,,,,,,,,,,,,,,,,,,,,,,,,,,,,,,,,,,,,,,,,,,,,,,,,,,,,,,,,,,,,,,,,,,,,,,,,,,,,,,,,,,,,,,,,,,,,,,,,,,,,,,,,,,,,,,,,,,,,,,,,,,,,,,,,,,,,,,,,
,,6463f56c88a5a54f57c01934,2024-02-19_15h16.31.163,kallum_motion_pilot,2023.2.2,Linux x86_64,60.24096386,6463f56c88a5a54f57c01934,65d2b6c8f2eece985d8e374c,65d2b9eb8ef7007ba45af97e,0.0482,0.0482,1,2,164,0,1,onetwo,,,,,,,,,,,,,,,,,,,,,,,,,,,,,,,,,,,,,,,,,,,,,,,,,,,,,,,,,,,,,,,,,,,,,,,,,,,,,,,,,,,,,,,,,,,,,,,,,,,,,,,,,,,,,,,,,,,,,,,,,,,,,,,,,,,,,,,,,
,,6463f56c88a5a54f57c01934,2024-02-19_15h16.31.163,kallum_motion_pilot,2023.2.2,Linux x86_64,60.24096386,6463f56c88a5a54f57c01934,65d2b6c8f2eece985d8e374c,65d2b9eb8ef7007ba45af97e,0.0484,0.0485,1,3,165,87,1,eightseven,,,,,,,,,,,,,,,,,,,,,,,,,,,,,,,,,,,,,,,,,,,,,,,,,,,,,,,,,,,,,,,,,,,,,,,,,,,,,,,,,,,,,,,,,,,,,,,,,,,,,,,,,,,,,,,,,,,,,,,,,,,,,,,,,,,,,,,,,
,,6463f56c88a5a54f57c01934,2024-02-19_15h16.31.163,kallum_motion_pilot,2023.2.2,Linux x86_64,60.24096386,6463f56c88a5a54f57c01934,65d2b6c8f2eece985d8e374c,65d2b9eb8ef7007ba45af97e,0.0485,0.0486,1,4,166,66,1,twoone,,,,,,,,,,,,,,,,,,,,,,,,,,,,,,,,,,,,,,,,,,,,,,,,,,,,,,,,,,,,,,,,,,,,,,,,,,,,,,,,,,,,,,,,,,,,,,,,,,,,,,,,,,,,,,,,,,,,,,,,,,,,,,,,,,,,,,,,,
,,6463f56c88a5a54f57c01934,2024-02-19_15h16.31.163,kallum_motion_pilot,2023.2.2,Linux x86_64,60.24096386,6463f56c88a5a54f57c01934,65d2b6c8f2eece985d8e374c,65d2b9eb8ef7007ba45af97e,0.0487,0.0488,1,5,167,84,1,sevenfive,,,,,,,,,,,,,,,,,,,,,,,,,,,,,,,,,,,,,,,,,,,,,,,,,,,,,,,,,,,,,,,,,,,,,,,,,,,,,,,,,,,,,,,,,,,,,,,,,,,,,,,,,,,,,,,,,,,,,,,,,,,,,,,,,,,,,,,,,
,,6463f56c88a5a54f57c01934,2024-02-19_15h16.31.163,kallum_motion_pilot,2023.2.2,Linux x86_64,60.24096386,6463f56c88a5a54f57c01934,65d2b6c8f2eece985d8e374c,65d2b9eb8ef7007ba45af97e,0.0488,0.0489,1,6,168,77,1,threefour,,,,,,,,,,,,,,,,,,,,,,,,,,,,,,,,,,,,,,,,,,,,,,,,,,,,,,,,,,,,,,,,,,,,,,,,,,,,,,,,,,,,,,,,,,,,,,,,,,,,,,,,,,,,,,,,,,,,,,,,,,,,,,,,,,,,,,,,,
,,6463f56c88a5a54f57c01934,2024-02-19_15h16.31.163,kallum_motion_pilot,2023.2.2,Linux x86_64,60.24096386,6463f56c88a5a54f57c01934,65d2b6c8f2eece985d8e374c,65d2b9eb8ef7007ba45af97e,0.0489,0.0491,1,7,169,35,1,twofour,,,,,,,,,,,,,,,,,,,,,,,,,,,,,,,,,,,,,,,,,,,,,,,,,,,,,,,,,,,,,,,,,,,,,,,,,,,,,,,,,,,,,,,,,,,,,,,,,,,,,,,,,,,,,,,,,,,,,,,,,,,,,,,,,,,,,,,,,
,,6463f56c88a5a54f57c01934,2024-02-19_15h16.31.163,kallum_motion_pilot,2023.2.2,Linux x86_64,60.24096386,6463f56c88a5a54f57c01934,65d2b6c8f2eece985d8e374c,65d2b9eb8ef7007ba45af97e,0.0491,0.0492,1,8,170,68,1,threeone,,,,,,,,,,,,,,,,,,,,,,,,,,,,,,,,,,,,,,,,,,,,,,,,,,,,,,,,,,,,,,,,,,,,,,,,,,,,,,,,,,,,,,,,,,,,,,,,,,,,,,,,,,,,,,,,,,,,,,,,,,,,,,,,,,,,,,,,,
,,6463f56c88a5a54f57c01934,2024-02-19_15h16.31.163,kallum_motion_pilot,2023.2.2,Linux x86_64,60.24096386,6463f56c88a5a54f57c01934,65d2b6c8f2eece985d8e374c,65d2b9eb8ef7007ba45af97e,0.0495,0.0496,1,9,171,151,1,eightseven,,,,,,,,,,,,,,,,,,,,,,,,,,,,,,,,,,,,,,,,,,,,,,,,,,,,,,,,,,,,,,,,,,,,,,,,,,,,,,,,,,,,,,,,,,,,,,,,,,,,,,,,,,,,,,,,,,,,,,,,,,,,,,,,,,,,,,,,,
,,6463f56c88a5a54f57c01934,2024-02-19_15h16.31.163,kallum_motion_pilot,2023.2.2,Linux x86_64,60.24096386,6463f56c88a5a54f57c01934,65d2b6c8f2eece985d8e374c,65d2b9eb8ef7007ba45af97e,0.0496,0.0497,1,10,172,97,1,fiveseven,,,,,,,,,,,,,,,,,,,,,,,,,,,,,,,,,,,,,,,,,,,,,,,,,,,,,,,,,,,,,,,,,,,,,,,,,,,,,,,,,,,,,,,,,,,,,,,,,,,,,,,,,,,,,,,,,,,,,,,,,,,,,,,,,,,,,,,,,
,,6463f56c88a5a54f57c01934,2024-02-19_15h16.31.163,kallum_motion_pilot,2023.2.2,Linux x86_64,60.24096386,6463f56c88a5a54f57c01934,65d2b6c8f2eece985d8e374c,65d2b9eb8ef7007ba45af97e,0.0498,0.0499,1,11,173,126,1,eightsix,,,,,,,,,,,,,,,,,,,,,,,,,,,,,,,,,,,,,,,,,,,,,,,,,,,,,,,,,,,,,,,,,,,,,,,,,,,,,,,,,,,,,,,,,,,,,,,,,,,,,,,,,,,,,,,,,,,,,,,,,,,,,,,,,,,,,,,,,
,,6463f56c88a5a54f57c01934,2024-02-19_15h16.31.163,kallum_motion_pilot,2023.2.2,Linux x86_64,60.24096386,6463f56c88a5a54f57c01934,65d2b6c8f2eece985d8e374c,65d2b9eb8ef7007ba45af97e,0.05,0.05,1,12,174,56,1,onetwo,,,,,,,,,,,,,,,,,,,,,,,,,,,,,,,,,,,,,,,,,,,,,,,,,,,,,,,,,,,,,,,,,,,,,,,,,,,,,,,,,,,,,,,,,,,,,,,,,,,,,,,,,,,,,,,,,,,,,,,,,,,,,,,,,,,,,,,,,
,,6463f56c88a5a54f57c01934,2024-02-19_15h16.31.163,kallum_motion_pilot,2023.2.2,Linux x86_64,60.24096386,6463f56c88a5a54f57c01934,65d2b6c8f2eece985d8e374c,65d2b9eb8ef7007ba45af97e,0.0502,0.0502,1,13,175,150,1,eightsix,,,,,,,,,,,,,,,,,,,,,,,,,,,,,,,,,,,,,,,,,,,,,,,,,,,,,,,,,,,,,,,,,,,,,,,,,,,,,,,,,,,,,,,,,,,,,,,,,,,,,,,,,,,,,,,,,,,,,,,,,,,,,,,,,,,,,,,,,
,,6463f56c88a5a54f57c01934,2024-02-19_15h16.31.163,kallum_motion_pilot,2023.2.2,Linux x86_64,60.24096386,6463f56c88a5a54f57c01934,65d2b6c8f2eece985d8e374c,65d2b9eb8ef7007ba45af97e,0.0504,0.0505,1,14,176,69,1,threefour,,,,,,,,,,,,,,,,,,,,,,,,,,,,,,,,,,,,,,,,,,,,,,,,,,,,,,,,,,,,,,,,,,,,,,,,,,,,,,,,,,,,,,,,,,,,,,,,,,,,,,,,,,,,,,,,,,,,,,,,,,,,,,,,,,,,,,,,,
,,6463f56c88a5a54f57c01934,2024-02-19_15h16.31.163,kallum_motion_pilot,2023.2.2,Linux x86_64,60.24096386,6463f56c88a5a54f57c01934,65d2b6c8f2eece985d8e374c,65d2b9eb8ef7007ba45af97e,0.0506,0.0507,1,15,177,93,1,seveneight,,,,,,,,,,,,,,,,,,,,,,,,,,,,,,,,,,,,,,,,,,,,,,,,,,,,,,,,,,,,,,,,,,,,,,,,,,,,,,,,,,,,,,,,,,,,,,,,,,,,,,,,,,,,,,,,,,,,,,,,,,,,,,,,,,,,,,,,,
,,6463f56c88a5a54f57c01934,2024-02-19_15h16.31.163,kallum_motion_pilot,2023.2.2,Linux x86_64,60.24096386,6463f56c88a5a54f57c01934,65d2b6c8f2eece985d8e374c,65d2b9eb8ef7007ba45af97e,0.0508,0.0509,1,16,178,157,1,seveneight,,,,,,,,,,,,,,,,,,,,,,,,,,,,,,,,,,,,,,,,,,,,,,,,,,,,,,,,,,,,,,,,,,,,,,,,,,,,,,,,,,,,,,,,,,,,,,,,,,,,,,,,,,,,,,,,,,,,,,,,,,,,,,,,,,,,,,,,,
,,6463f56c88a5a54f57c01934,2024-02-19_15h16.31.163,kallum_motion_pilot,2023.2.2,Linux x86_64,60.24096386,6463f56c88a5a54f57c01934,65d2b6c8f2eece985d8e374c,65d2b9eb8ef7007ba45af97e,0.0511,0.0511,1,17,179,4,1,threeone,,,,,,,,,,,,,,,,,,,,,,,,,,,,,,,,,,,,,,,,,,,,,,,,,,,,,,,,,,,,,,,,,,,,,,,,,,,,,,,,,,,,,,,,,,,,,,,,,,,,,,,,,,,,,,,,,,,,,,,,,,,,,,,,,,,,,,,,,
,,6463f56c88a5a54f57c01934,2024-02-19_15h16.31.163,kallum_motion_pilot,2023.2.2,Linux x86_64,60.24096386,6463f56c88a5a54f57c01934,65d2b6c8f2eece985d8e374c,65d2b9eb8ef7007ba45af97e,0.0512,0.0513,1,18,180,105,1,fiveseven,,,,,,,,,,,,,,,,,,,,,,,,,,,,,,,,,,,,,,,,,,,,,,,,,,,,,,,,,,,,,,,,,,,,,,,,,,,,,,,,,,,,,,,,,,,,,,,,,,,,,,,,,,,,,,,,,,,,,,,,,,,,,,,,,,,,,,,,,
,,6463f56c88a5a54f57c01934,2024-02-19_15h16.31.163,kallum_motion_pilot,2023.2.2,Linux x86_64,60.24096386,6463f56c88a5a54f57c01934,65d2b6c8f2eece985d8e374c,65d2b9eb8ef7007ba45af97e,0.0514,0.0515,1,19,181,143,1,eightseven,,,,,,,,,,,,,,,,,,,,,,,,,,,,,,,,,,,,,,,,,,,,,,,,,,,,,,,,,,,,,,,,,,,,,,,,,,,,,,,,,,,,,,,,,,,,,,,,,,,,,,,,,,,,,,,,,,,,,,,,,,,,,,,,,,,,,,,,,
,,6463f56c88a5a54f57c01934,2024-02-19_15h16.31.163,kallum_motion_pilot,2023.2.2,Linux x86_64,60.24096386,6463f56c88a5a54f57c01934,65d2b6c8f2eece985d8e374c,65d2b9eb8ef7007ba45af97e,0.0516,0.0516,1,20,182,136,1,fivesix,,,,,,,,,,,,,,,,,,,,,,,,,,,,,,,,,,,,,,,,,,,,,,,,,,,,,,,,,,,,,,,,,,,,,,,,,,,,,,,,,,,,,,,,,,,,,,,,,,,,,,,,,,,,,,,,,,,,,,,,,,,,,,,,,,,,,,,,,
,,6463f56c88a5a54f57c01934,2024-02-19_15h16.31.163,kallum_motion_pilot,2023.2.2,Linux x86_64,60.24096386,6463f56c88a5a54f57c01934,65d2b6c8f2eece985d8e374c,65d2b9eb8ef7007ba45af97e,0.0518,0.0518,1,21,183,10,1,twoone,,,,,,,,,,,,,,,,,,,,,,,,,,,,,,,,,,,,,,,,,,,,,,,,,,,,,,,,,,,,,,,,,,,,,,,,,,,,,,,,,,,,,,,,,,,,,,,,,,,,,,,,,,,,,,,,,,,,,,,,,,,,,,,,,,,,,,,,,
,,6463f56c88a5a54f57c01934,2024-02-19_15h16.31.163,kallum_motion_pilot,2023.2.2,Linux x86_64,60.24096386,6463f56c88a5a54f57c01934,65d2b6c8f2eece985d8e374c,65d2b9eb8ef7007ba45af97e,0.0519,0.0521,1,22,184,2,1,twoone,,,,,,,,,,,,,,,,,,,,,,,,,,,,,,,,,,,,,,,,,,,,,,,,,,,,,,,,,,,,,,,,,,,,,,,,,,,,,,,,,,,,,,,,,,,,,,,,,,,,,,,,,,,,,,,,,,,,,,,,,,,,,,,,,,,,,,,,,
,,6463f56c88a5a54f57c01934,2024-02-19_15h16.31.163,kallum_motion_pilot,2023.2.2,Linux x86_64,60.24096386,6463f56c88a5a54f57c01934,65d2b6c8f2eece985d8e374c,65d2b9eb8ef7007ba45af97e,0.0521,0.0522,1,23,185,146,1,sixfive,,,,,,,,,,,,,,,,,,,,,,,,,,,,,,,,,,,,,,,,,,,,,,,,,,,,,,,,,,,,,,,,,,,,,,,,,,,,,,,,,,,,,,,,,,,,,,,,,,,,,,,,,,,,,,,,,,,,,,,,,,,,,,,,,,,,,,,,,
,,6463f56c88a5a54f57c01934,2024-02-19_15h16.31.163,kallum_motion_pilot,2023.2.2,Linux x86_64,60.24096386,6463f56c88a5a54f57c01934,65d2b6c8f2eece985d8e374c,65d2b9eb8ef7007ba45af97e,0.0523,0.0524,1,24,186,22,1,fourtwo,,,,,,,,,,,,,,,,,,,,,,,,,,,,,,,,,,,,,,,,,,,,,,,,,,,,,,,,,,,,,,,,,,,,,,,,,,,,,,,,,,,,,,,,,,,,,,,,,,,,,,,,,,,,,,,,,,,,,,,,,,,,,,,,,,,,,,,,,
,,6463f56c88a5a54f57c01934,2024-02-19_15h16.31.163,kallum_motion_pilot,2023.2.2,Linux x86_64,60.24096386,6463f56c88a5a54f57c01934,65d2b6c8f2eece985d8e374c,65d2b9eb8ef7007ba45af97e,0.0524,0.0525,1,25,187,72,1,onetwo,,,,,,,,,,,,,,,,,,,,,,,,,,,,,,,,,,,,,,,,,,,,,,,,,,,,,,,,,,,,,,,,,,,,,,,,,,,,,,,,,,,,,,,,,,,,,,,,,,,,,,,,,,,,,,,,,,,,,,,,,,,,,,,,,,,,,,,,,
,,6463f56c88a5a54f57c01934,2024-02-19_15h16.31.163,kallum_motion_pilot,2023.2.2,Linux x86_64,60.24096386,6463f56c88a5a54f57c01934,65d2b6c8f2eece985d8e374c,65d2b9eb8ef7007ba45af97e,0.0526,0.0527,1,26,188,73,1,onethree,,,,,,,,,,,,,,,,,,,,,,,,,,,,,,,,,,,,,,,,,,,,,,,,,,,,,,,,,,,,,,,,,,,,,,,,,,,,,,,,,,,,,,,,,,,,,,,,,,,,,,,,,,,,,,,,,,,,,,,,,,,,,,,,,,,,,,,,,
,,6463f56c88a5a54f57c01934,2024-02-19_15h16.31.163,kallum_motion_pilot,2023.2.2,Linux x86_64,60.24096386,6463f56c88a5a54f57c01934,65d2b6c8f2eece985d8e374c,65d2b9eb8ef7007ba45af97e,0.0528,0.0529,1,27,189,145,1,fiveseven,,,,,,,,,,,,,,,,,,,,,,,,,,,,,,,,,,,,,,,,,,,,,,,,,,,,,,,,,,,,,,,,,,,,,,,,,,,,,,,,,,,,,,,,,,,,,,,,,,,,,,,,,,,,,,,,,,,,,,,,,,,,,,,,,,,,,,,,,
,,6463f56c88a5a54f57c01934,2024-02-19_15h16.31.163,kallum_motion_pilot,2023.2.2,Linux x86_64,60.24096386,6463f56c88a5a54f57c01934,65d2b6c8f2eece985d8e374c,65d2b9eb8ef7007ba45af97e,0.053,0.053,1,28,190,78,1,fourtwo,,,,,,,,,,,,,,,,,,,,,,,,,,,,,,,,,,,,,,,,,,,,,,,,,,,,,,,,,,,,,,,,,,,,,,,,,,,,,,,,,,,,,,,,,,,,,,,,,,,,,,,,,,,,,,,,,,,,,,,,,,,,,,,,,,,,,,,,,
,,6463f56c88a5a54f57c01934,2024-02-19_15h16.31.163,kallum_motion_pilot,2023.2.2,Linux x86_64,60.24096386,6463f56c88a5a54f57c01934,65d2b6c8f2eece985d8e374c,65d2b9eb8ef7007ba45af97e,0.0532,0.0533,1,29,191,70,1,fourtwo,,,,,,,,,,,,,,,,,,,,,,,,,,,,,,,,,,,,,,,,,,,,,,,,,,,,,,,,,,,,,,,,,,,,,,,,,,,,,,,,,,,,,,,,,,,,,,,,,,,,,,,,,,,,,,,,,,,,,,,,,,,,,,,,,,,,,,,,,
,,6463f56c88a5a54f57c01934,2024-02-19_15h16.31.163,kallum_motion_pilot,2023.2.2,Linux x86_64,60.24096386,6463f56c88a5a54f57c01934,65d2b6c8f2eece985d8e374c,65d2b9eb8ef7007ba45af97e,0.0533,0.0534,1,30,192,117,1,seveneight,,,,,,,,,,,,,,,,,,,,,,,,,,,,,,,,,,,,,,,,,,,,,,,,,,,,,,,,,,,,,,,,,,,,,,,,,,,,,,,,,,,,,,,,,,,,,,,,,,,,,,,,,,,,,,,,,,,,,,,,,,,,,,,,,,,,,,,,,
,,6463f56c88a5a54f57c01934,2024-02-19_15h16.31.163,kallum_motion_pilot,2023.2.2,Linux x86_64,60.24096386,6463f56c88a5a54f57c01934,65d2b6c8f2eece985d8e374c,65d2b9eb8ef7007ba45af97e,0.0535,0.0536,1,31,193,26,1,twoone,,,,,,,,,,,,,,,,,,,,,,,,,,,,,,,,,,,,,,,,,,,,,,,,,,,,,,,,,,,,,,,,,,,,,,,,,,,,,,,,,,,,,,,,,,,,,,,,,,,,,,,,,,,,,,,,,,,,,,,,,,,,,,,,,,,,,,,,,
,,6463f56c88a5a54f57c01934,2024-02-19_15h16.31.163,kallum_motion_pilot,2023.2.2,Linux x86_64,60.24096386,6463f56c88a5a54f57c01934,65d2b6c8f2eece985d8e374c,65d2b9eb8ef7007ba45af97e,0.0537,0.0538,1,32,194,125,1,seveneight,,,,,,,,,,,,,,,,,,,,,,,,,,,,,,,,,,,,,,,,,,,,,,,,,,,,,,,,,,,,,,,,,,,,,,,,,,,,,,,,,,,,,,,,,,,,,,,,,,,,,,,,,,,,,,,,,,,,,,,,,,,,,,,,,,,,,,,,,
,,6463f56c88a5a54f57c01934,2024-02-19_15h16.31.163,kallum_motion_pilot,2023.2.2,Linux x86_64,60.24096386,6463f56c88a5a54f57c01934,65d2b6c8f2eece985d8e374c,65d2b9eb8ef7007ba45af97e,0.0538,0.0539,1,33,195,100,1,sevenfive,,,,,,,,,,,,,,,,,,,,,,,,,,,,,,,,,,,,,,,,,,,,,,,,,,,,,,,,,,,,,,,,,,,,,,,,,,,,,,,,,,,,,,,,,,,,,,,,,,,,,,,,,,,,,,,,,,,,,,,,,,,,,,,,,,,,,,,,,
,,6463f56c88a5a54f57c01934,2024-02-19_15h16.31.163,kallum_motion_pilot,2023.2.2,Linux x86_64,60.24096386,6463f56c88a5a54f57c01934,65d2b6c8f2eece985d8e374c,65d2b9eb8ef7007ba45af97e,0.054,0.054,1,34,196,50,1,twoone,,,,,,,,,,,,,,,,,,,,,,,,,,,,,,,,,,,,,,,,,,,,,,,,,,,,,,,,,,,,,,,,,,,,,,,,,,,,,,,,,,,,,,,,,,,,,,,,,,,,,,,,,,,,,,,,,,,,,,,,,,,,,,,,,,,,,,,,,
,,6463f56c88a5a54f57c01934,2024-02-19_15h16.31.163,kallum_motion_pilot,2023.2.2,Linux x86_64,60.24096386,6463f56c88a5a54f57c01934,65d2b6c8f2eece985d8e374c,65d2b9eb8ef7007ba45af97e,0.0541,0.0542,1,35,197,62,1,fourtwo,,,,,,,,,,,,,,,,,,,,,,,,,,,,,,,,,,,,,,,,,,,,,,,,,,,,,,,,,,,,,,,,,,,,,,,,,,,,,,,,,,,,,,,,,,,,,,,,,,,,,,,,,,,,,,,,,,,,,,,,,,,,,,,,,,,,,,,,,
,,6463f56c88a5a54f57c01934,2024-02-19_15h16.31.163,kallum_motion_pilot,2023.2.2,Linux x86_64,60.24096386,6463f56c88a5a54f57c01934,65d2b6c8f2eece985d8e374c,65d2b9eb8ef7007ba45af97e,0.0543,0.0544,1,36,198,20,1,threeone,,,,,,,,,,,,,,,,,,,,,,,,,,,,,,,,,,,,,,,,,,,,,,,,,,,,,,,,,,,,,,,,,,,,,,,,,,,,,,,,,,,,,,,,,,,,,,,,,,,,,,,,,,,,,,,,,,,,,,,,,,,,,,,,,,,,,,,,,
,,6463f56c88a5a54f57c01934,2024-02-19_15h16.31.163,kallum_motion_pilot,2023.2.2,Linux x86_64,60.24096386,6463f56c88a5a54f57c01934,65d2b6c8f2eece985d8e374c,65d2b9eb8ef7007ba45af97e,0.0545,0.0546,1,37,199,119,1,eightseven,,,,,,,,,,,,,,,,,,,,,,,,,,,,,,,,,,,,,,,,,,,,,,,,,,,,,,,,,,,,,,,,,,,,,,,,,,,,,,,,,,,,,,,,,,,,,,,,,,,,,,,,,,,,,,,,,,,,,,,,,,,,,,,,,,,,,,,,,
,,6463f56c88a5a54f57c01934,2024-02-19_15h16.31.163,kallum_motion_pilot,2023.2.2,Linux x86_64,60.24096386,6463f56c88a5a54f57c01934,65d2b6c8f2eece985d8e374c,65d2b9eb8ef7007ba45af97e,0.0546,0.0547,1,38,200,71,1,fourthree,,,,,,,,,,,,,,,,,,,,,,,,,,,,,,,,,,,,,,,,,,,,,,,,,,,,,,,,,,,,,,,,,,,,,,,,,,,,,,,,,,,,,,,,,,,,,,,,,,,,,,,,,,,,,,,,,,,,,,,,,,,,,,,,,,,,,,,,,
,,6463f56c88a5a54f57c01934,2024-02-19_15h16.31.163,kallum_motion_pilot,2023.2.2,Linux x86_64,60.24096386,6463f56c88a5a54f57c01934,65d2b6c8f2eece985d8e374c,65d2b9eb8ef7007ba45af97e,0.0548,0.0549,1,39,201,144,1,fivesix,,,,,,,,,,,,,,,,,,,,,,,,,,,,,,,,,,,,,,,,,,,,,,,,,,,,,,,,,,,,,,,,,,,,,,,,,,,,,,,,,,,,,,,,,,,,,,,,,,,,,,,,,,,,,,,,,,,,,,,,,,,,,,,,,,,,,,,,,
,,6463f56c88a5a54f57c01934,2024-02-19_15h16.31.163,kallum_motion_pilot,2023.2.2,Linux x86_64,60.24096386,6463f56c88a5a54f57c01934,65d2b6c8f2eece985d8e374c,65d2b9eb8ef7007ba45af97e,0.055,0.0551,1,40,202,15,1,fourthree,,,,,,,,,,,,,,,,,,,,,,,,,,,,,,,,,,,,,,,,,,,,,,,,,,,,,,,,,,,,,,,,,,,,,,,,,,,,,,,,,,,,,,,,,,,,,,,,,,,,,,,,,,,,,,,,,,,,,,,,,,,,,,,,,,,,,,,,,
,,6463f56c88a5a54f57c01934,2024-02-19_15h16.31.163,kallum_motion_pilot,2023.2.2,Linux x86_64,60.24096386,6463f56c88a5a54f57c01934,65d2b6c8f2eece985d8e374c,65d2b9eb8ef7007ba45af97e,0.0552,0.0553,1,41,203,129,1,fiveseven,,,,,,,,,,,,,,,,,,,,,,,,,,,,,,,,,,,,,,,,,,,,,,,,,,,,,,,,,,,,,,,,,,,,,,,,,,,,,,,,,,,,,,,,,,,,,,,,,,,,,,,,,,,,,,,,,,,,,,,,,,,,,,,,,,,,,,,,,
,,6463f56c88a5a54f57c01934,2024-02-19_15h16.31.163,kallum_motion_pilot,2023.2.2,Linux x86_64,60.24096386,6463f56c88a5a54f57c01934,65d2b6c8f2eece985d8e374c,65d2b9eb8ef7007ba45af97e,0.0554,0.0555,1,42,204,142,1,eightsix,,,,,,,,,,,,,,,,,,,,,,,,,,,,,,,,,,,,,,,,,,,,,,,,,,,,,,,,,,,,,,,,,,,,,,,,,,,,,,,,,,,,,,,,,,,,,,,,,,,,,,,,,,,,,,,,,,,,,,,,,,,,,,,,,,,,,,,,,
,,6463f56c88a5a54f57c01934,2024-02-19_15h16.31.163,kallum_motion_pilot,2023.2.2,Linux x86_64,60.24096386,6463f56c88a5a54f57c01934,65d2b6c8f2eece985d8e374c,65d2b9eb8ef7007ba45af97e,0.0556,0.0557,1,43,205,109,1,seveneight,,,,,,,,,,,,,,,,,,,,,,,,,,,,,,,,,,,,,,,,,,,,,,,,,,,,,,,,,,,,,,,,,,,,,,,,,,,,,,,,,,,,,,,,,,,,,,,,,,,,,,,,,,,,,,,,,,,,,,,,,,,,,,,,,,,,,,,,,
,,6463f56c88a5a54f57c01934,2024-02-19_15h16.31.163,kallum_motion_pilot,2023.2.2,Linux x86_64,60.24096386,6463f56c88a5a54f57c01934,65d2b6c8f2eece985d8e374c,65d2b9eb8ef7007ba45af97e,0.0557,0.0559,1,44,206,33,1,onethree,,,,,,,,,,,,,,,,,,,,,,,,,,,,,,,,,,,,,,,,,,,,,,,,,,,,,,,,,,,,,,,,,,,,,,,,,,,,,,,,,,,,,,,,,,,,,,,,,,,,,,,,,,,,,,,,,,,,,,,,,,,,,,,,,,,,,,,,,
,,6463f56c88a5a54f57c01934,2024-02-19_15h16.31.163,kallum_motion_pilot,2023.2.2,Linux x86_64,60.24096386,6463f56c88a5a54f57c01934,65d2b6c8f2eece985d8e374c,65d2b9eb8ef7007ba45af97e,0.0559,0.056,1,45,207,112,1,fivesix,,,,,,,,,,,,,,,,,,,,,,,,,,,,,,,,,,,,,,,,,,,,,,,,,,,,,,,,,,,,,,,,,,,,,,,,,,,,,,,,,,,,,,,,,,,,,,,,,,,,,,,,,,,,,,,,,,,,,,,,,,,,,,,,,,,,,,,,,
,,6463f56c88a5a54f57c01934,2024-02-19_15h16.31.163,kallum_motion_pilot,2023.2.2,Linux x86_64,60.24096386,6463f56c88a5a54f57c01934,65d2b6c8f2eece985d8e374c,65d2b9eb8ef7007ba45af97e,0.0561,0.0563,1,46,208,118,1,eightsix,,,,,,,,,,,,,,,,,,,,,,,,,,,,,,,,,,,,,,,,,,,,,,,,,,,,,,,,,,,,,,,,,,,,,,,,,,,,,,,,,,,,,,,,,,,,,,,,,,,,,,,,,,,,,,,,,,,,,,,,,,,,,,,,,,,,,,,,,
,,6463f56c88a5a54f57c01934,2024-02-19_15h16.31.163,kallum_motion_pilot,2023.2.2,Linux x86_64,60.24096386,6463f56c88a5a54f57c01934,65d2b6c8f2eece985d8e374c,65d2b9eb8ef7007ba45af97e,0.0564,0.0564,1,47,209,123,1,sixeight,,,,,,,,,,,,,,,,,,,,,,,,,,,,,,,,,,,,,,,,,,,,,,,,,,,,,,,,,,,,,,,,,,,,,,,,,,,,,,,,,,,,,,,,,,,,,,,,,,,,,,,,,,,,,,,,,,,,,,,,,,,,,,,,,,,,,,,,,
,,6463f56c88a5a54f57c01934,2024-02-19_15h16.31.163,kallum_motion_pilot,2023.2.2,Linux x86_64,60.24096386,6463f56c88a5a54f57c01934,65d2b6c8f2eece985d8e374c,65d2b9eb8ef7007ba45af97e,0.0566,0.0567,1,48,210,55,1,fourthree,,,,,,,,,,,,,,,,,,,,,,,,,,,,,,,,,,,,,,,,,,,,,,,,,,,,,,,,,,,,,,,,,,,,,,,,,,,,,,,,,,,,,,,,,,,,,,,,,,,,,,,,,,,,,,,,,,,,,,,,,,,,,,,,,,,,,,,,,
,,6463f56c88a5a54f57c01934,2024-02-19_15h16.31.163,kallum_motion_pilot,2023.2.2,Linux x86_64,60.24096386,6463f56c88a5a54f57c01934,65d2b6c8f2eece985d8e374c,65d2b9eb8ef7007ba45af97e,0.0567,0.0568,1,49,211,115,1,sixeight,,,,,,,,,,,,,,,,,,,,,,,,,,,,,,,,,,,,,,,,,,,,,,,,,,,,,,,,,,,,,,,,,,,,,,,,,,,,,,,,,,,,,,,,,,,,,,,,,,,,,,,,,,,,,,,,,,,,,,,,,,,,,,,,,,,,,,,,,
,,6463f56c88a5a54f57c01934,2024-02-19_15h16.31.163,kallum_motion_pilot,2023.2.2,Linux x86_64,60.24096386,6463f56c88a5a54f57c01934,65d2b6c8f2eece985d8e374c,65d2b9eb8ef7007ba45af97e,0.0569,0.057,1,50,212,21,1,threefour,,,,,,,,,,,,,,,,,,,,,,,,,,,,,,,,,,,,,,,,,,,,,,,,,,,,,,,,,,,,,,,,,,,,,,,,,,,,,,,,,,,,,,,,,,,,,,,,,,,,,,,,,,,,,,,,,,,,,,,,,,,,,,,,,,,,,,,,,
,,6463f56c88a5a54f57c01934,2024-02-19_15h16.31.163,kallum_motion_pilot,2023.2.2,Linux x86_64,60.24096386,6463f56c88a5a54f57c01934,65d2b6c8f2eece985d8e374c,65d2b9eb8ef7007ba45af97e,0.0571,0.0572,1,51,213,113,1,fiveseven,,,,,,,,,,,,,,,,,,,,,,,,,,,,,,,,,,,,,,,,,,,,,,,,,,,,,,,,,,,,,,,,,,,,,,,,,,,,,,,,,,,,,,,,,,,,,,,,,,,,,,,,,,,,,,,,,,,,,,,,,,,,,,,,,,,,,,,,,
,,6463f56c88a5a54f57c01934,2024-02-19_15h16.31.163,kallum_motion_pilot,2023.2.2,Linux x86_64,60.24096386,6463f56c88a5a54f57c01934,65d2b6c8f2eece985d8e374c,65d2b9eb8ef7007ba45af97e,0.0573,0.0574,1,52,214,57,1,onethree,,,,,,,,,,,,,,,,,,,,,,,,,,,,,,,,,,,,,,,,,,,,,,,,,,,,,,,,,,,,,,,,,,,,,,,,,,,,,,,,,,,,,,,,,,,,,,,,,,,,,,,,,,,,,,,,,,,,,,,,,,,,,,,,,,,,,,,,,
,,6463f56c88a5a54f57c01934,2024-02-19_15h16.31.163,kallum_motion_pilot,2023.2.2,Linux x86_64,60.24096386,6463f56c88a5a54f57c01934,65d2b6c8f2eece985d8e374c,65d2b9eb8ef7007ba45af97e,0.0576,0.0576,1,53,215,19,1,twofour,,,,,,,,,,,,,,,,,,,,,,,,,,,,,,,,,,,,,,,,,,,,,,,,,,,,,,,,,,,,,,,,,,,,,,,,,,,,,,,,,,,,,,,,,,,,,,,,,,,,,,,,,,,,,,,,,,,,,,,,,,,,,,,,,,,,,,,,,
,,6463f56c88a5a54f57c01934,2024-02-19_15h16.31.163,kallum_motion_pilot,2023.2.2,Linux x86_64,60.24096386,6463f56c88a5a54f57c01934,65d2b6c8f2eece985d8e374c,65d2b9eb8ef7007ba45af97e,0.0577,0.0577,1,54,216,92,1,sevenfive,,,,,,,,,,,,,,,,,,,,,,,,,,,,,,,,,,,,,,,,,,,,,,,,,,,,,,,,,,,,,,,,,,,,,,,,,,,,,,,,,,,,,,,,,,,,,,,,,,,,,,,,,,,,,,,,,,,,,,,,,,,,,,,,,,,,,,,,,
,,6463f56c88a5a54f57c01934,2024-02-19_15h16.31.163,kallum_motion_pilot,2023.2.2,Linux x86_64,60.24096386,6463f56c88a5a54f57c01934,65d2b6c8f2eece985d8e374c,65d2b9eb8ef7007ba45af97e,0.0579,0.058,1,55,217,76,1,threeone,,,,,,,,,,,,,,,,,,,,,,,,,,,,,,,,,,,,,,,,,,,,,,,,,,,,,,,,,,,,,,,,,,,,,,,,,,,,,,,,,,,,,,,,,,,,,,,,,,,,,,,,,,,,,,,,,,,,,,,,,,,,,,,,,,,,,,,,,
,,6463f56c88a5a54f57c01934,2024-02-19_15h16.31.163,kallum_motion_pilot,2023.2.2,Linux x86_64,60.24096386,6463f56c88a5a54f57c01934,65d2b6c8f2eece985d8e374c,65d2b9eb8ef7007ba45af97e,0.0582,0.0583,1,56,218,34,1,twoone,,,,,,,,,,,,,,,,,,,,,,,,,,,,,,,,,,,,,,,,,,,,,,,,,,,,,,,,,,,,,,,,,,,,,,,,,,,,,,,,,,,,,,,,,,,,,,,,,,,,,,,,,,,,,,,,,,,,,,,,,,,,,,,,,,,,,,,,,
,,6463f56c88a5a54f57c01934,2024-02-19_15h16.31.163,kallum_motion_pilot,2023.2.2,Linux x86_64,60.24096386,6463f56c88a5a54f57c01934,65d2b6c8f2eece985d8e374c,65d2b9eb8ef7007ba45af97e,0.0583,0.0584,1,57,219,83,1,sixeight,,,,,,,,,,,,,,,,,,,,,,,,,,,,,,,,,,,,,,,,,,,,,,,,,,,,,,,,,,,,,,,,,,,,,,,,,,,,,,,,,,,,,,,,,,,,,,,,,,,,,,,,,,,,,,,,,,,,,,,,,,,,,,,,,,,,,,,,,
,,6463f56c88a5a54f57c01934,2024-02-19_15h16.31.163,kallum_motion_pilot,2023.2.2,Linux x86_64,60.24096386,6463f56c88a5a54f57c01934,65d2b6c8f2eece985d8e374c,65d2b9eb8ef7007ba45af97e,0.0585,0.0586,1,58,220,18,1,twoone,,,,,,,,,,,,,,,,,,,,,,,,,,,,,,,,,,,,,,,,,,,,,,,,,,,,,,,,,,,,,,,,,,,,,,,,,,,,,,,,,,,,,,,,,,,,,,,,,,,,,,,,,,,,,,,,,,,,,,,,,,,,,,,,,,,,,,,,,
,,6463f56c88a5a54f57c01934,2024-02-19_15h16.31.163,kallum_motion_pilot,2023.2.2,Linux x86_64,60.24096386,6463f56c88a5a54f57c01934,65d2b6c8f2eece985d8e374c,65d2b9eb8ef7007ba45af97e,0.0587,0.0588,1,59,221,159,1,eightseven,,,,,,,,,,,,,,,,,,,,,,,,,,,,,,,,,,,,,,,,,,,,,,,,,,,,,,,,,,,,,,,,,,,,,,,,,,,,,,,,,,,,,,,,,,,,,,,,,,,,,,,,,,,,,,,,,,,,,,,,,,,,,,,,,,,,,,,,,
,,6463f56c88a5a54f57c01934,2024-02-19_15h16.31.163,kallum_motion_pilot,2023.2.2,Linux x86_64,60.24096386,6463f56c88a5a54f57c01934,65d2b6c8f2eece985d8e374c,65d2b9eb8ef7007ba45af97e,0.0588,0.059,1,60,222,16,1,onetwo,,,,,,,,,,,,,,,,,,,,,,,,,,,,,,,,,,,,,,,,,,,,,,,,,,,,,,,,,,,,,,,,,,,,,,,,,,,,,,,,,,,,,,,,,,,,,,,,,,,,,,,,,,,,,,,,,,,,,,,,,,,,,,,,,,,,,,,,,
,,6463f56c88a5a54f57c01934,2024-02-19_15h16.31.163,kallum_motion_pilot,2023.2.2,Linux x86_64,60.24096386,6463f56c88a5a54f57c01934,65d2b6c8f2eece985d8e374c,65d2b9eb8ef7007ba45af97e,0.059,0.0592,1,61,223,89,1,fiveseven,,,,,,,,,,,,,,,,,,,,,,,,,,,,,,,,,,,,,,,,,,,,,,,,,,,,,,,,,,,,,,,,,,,,,,,,,,,,,,,,,,,,,,,,,,,,,,,,,,,,,,,,,,,,,,,,,,,,,,,,,,,,,,,,,,,,,,,,,
,,6463f56c88a5a54f57c01934,2024-02-19_15h16.31.163,kallum_motion_pilot,2023.2.2,Linux x86_64,60.24096386,6463f56c88a5a54f57c01934,65d2b6c8f2eece985d8e374c,65d2b9eb8ef7007ba45af97e,0.0593,0.0594,1,62,224,96,1,fivesix,,,,,,,,,,,,,,,,,,,,,,,,,,,,,,,,,,,,,,,,,,,,,,,,,,,,,,,,,,,,,,,,,,,,,,,,,,,,,,,,,,,,,,,,,,,,,,,,,,,,,,,,,,,,,,,,,,,,,,,,,,,,,,,,,,,,,,,,,
,,6463f56c88a5a54f57c01934,2024-02-19_15h16.31.163,kallum_motion_pilot,2023.2.2,Linux x86_64,60.24096386,6463f56c88a5a54f57c01934,65d2b6c8f2eece985d8e374c,65d2b9eb8ef7007ba45af97e,0.0595,0.0596,1,63,225,103,1,eightseven,,,,,,,,,,,,,,,,,,,,,,,,,,,,,,,,,,,,,,,,,,,,,,,,,,,,,,,,,,,,,,,,,,,,,,,,,,,,,,,,,,,,,,,,,,,,,,,,,,,,,,,,,,,,,,,,,,,,,,,,,,,,,,,,,,,,,,,,,
,,6463f56c88a5a54f57c01934,2024-02-19_15h16.31.163,kallum_motion_pilot,2023.2.2,Linux x86_64,60.24096386,6463f56c88a5a54f57c01934,65d2b6c8f2eece985d8e374c,65d2b9eb8ef7007ba45af97e,0.0598,0.0598,1,64,226,44,1,threeone,,,,,,,,,,,,,,,,,,,,,,,,,,,,,,,,,,,,,,,,,,,,,,,,,,,,,,,,,,,,,,,,,,,,,,,,,,,,,,,,,,,,,,,,,,,,,,,,,,,,,,,,,,,,,,,,,,,,,,,,,,,,,,,,,,,,,,,,,
,,6463f56c88a5a54f57c01934,2024-02-19_15h16.31.163,kallum_motion_pilot,2023.2.2,Linux x86_64,60.24096386,6463f56c88a5a54f57c01934,65d2b6c8f2eece985d8e374c,65d2b9eb8ef7007ba45af97e,0.0599,0.06,1,65,227,147,1,sixeight,,,,,,,,,,,,,,,,,,,,,,,,,,,,,,,,,,,,,,,,,,,,,,,,,,,,,,,,,,,,,,,,,,,,,,,,,,,,,,,,,,,,,,,,,,,,,,,,,,,,,,,,,,,,,,,,,,,,,,,,,,,,,,,,,,,,,,,,,
,,6463f56c88a5a54f57c01934,2024-02-19_15h16.31.163,kallum_motion_pilot,2023.2.2,Linux x86_64,60.24096386,6463f56c88a5a54f57c01934,65d2b6c8f2eece985d8e374c,65d2b9eb8ef7007ba45af97e,0.0601,0.0602,1,66,228,31,1,fourthree,,,,,,,,,,,,,,,,,,,,,,,,,,,,,,,,,,,,,,,,,,,,,,,,,,,,,,,,,,,,,,,,,,,,,,,,,,,,,,,,,,,,,,,,,,,,,,,,,,,,,,,,,,,,,,,,,,,,,,,,,,,,,,,,,,,,,,,,,
,,6463f56c88a5a54f57c01934,2024-02-19_15h16.31.163,kallum_motion_pilot,2023.2.2,Linux x86_64,60.24096386,6463f56c88a5a54f57c01934,65d2b6c8f2eece985d8e374c,65d2b9eb8ef7007ba45af97e,0.0603,0.0604,1,67,229,59,1,twofour,,,,,,,,,,,,,,,,,,,,,,,,,,,,,,,,,,,,,,,,,,,,,,,,,,,,,,,,,,,,,,,,,,,,,,,,,,,,,,,,,,,,,,,,,,,,,,,,,,,,,,,,,,,,,,,,,,,,,,,,,,,,,,,,,,,,,,,,,
,,6463f56c88a5a54f57c01934,2024-02-19_15h16.31.163,kallum_motion_pilot,2023.2.2,Linux x86_64,60.24096386,6463f56c88a5a54f57c01934,65d2b6c8f2eece985d8e374c,65d2b9eb8ef7007ba45af97e,0.0607,0.0607,1,68,230,110,1,eightsix,,,,,,,,,,,,,,,,,,,,,,,,,,,,,,,,,,,,,,,,,,,,,,,,,,,,,,,,,,,,,,,,,,,,,,,,,,,,,,,,,,,,,,,,,,,,,,,,,,,,,,,,,,,,,,,,,,,,,,,,,,,,,,,,,,,,,,,,,
,,6463f56c88a5a54f57c01934,2024-02-19_15h16.31.163,kallum_motion_pilot,2023.2.2,Linux x86_64,60.24096386,6463f56c88a5a54f57c01934,65d2b6c8f2eece985d8e374c,65d2b9eb8ef7007ba45af97e,0.0608,0.0609,1,69,231,149,1,seveneight,,,,,,,,,,,,,,,,,,,,,,,,,,,,,,,,,,,,,,,,,,,,,,,,,,,,,,,,,,,,,,,,,,,,,,,,,,,,,,,,,,,,,,,,,,,,,,,,,,,,,,,,,,,,,,,,,,,,,,,,,,,,,,,,,,,,,,,,,
,,6463f56c88a5a54f57c01934,2024-02-19_15h16.31.163,kallum_motion_pilot,2023.2.2,Linux x86_64,60.24096386,6463f56c88a5a54f57c01934,65d2b6c8f2eece985d8e374c,65d2b9eb8ef7007ba45af97e,0.061,0.0611,1,70,232,43,1,twofour,,,,,,,,,,,,,,,,,,,,,,,,,,,,,,,,,,,,,,,,,,,,,,,,,,,,,,,,,,,,,,,,,,,,,,,,,,,,,,,,,,,,,,,,,,,,,,,,,,,,,,,,,,,,,,,,,,,,,,,,,,,,,,,,,,,,,,,,,
,,6463f56c88a5a54f57c01934,2024-02-19_15h16.31.163,kallum_motion_pilot,2023.2.2,Linux x86_64,60.24096386,6463f56c88a5a54f57c01934,65d2b6c8f2eece985d8e374c,65d2b9eb8ef7007ba45af97e,0.0612,0.0614,1,71,233,127,1,eightseven,,,,,,,,,,,,,,,,,,,,,,,,,,,,,,,,,,,,,,,,,,,,,,,,,,,,,,,,,,,,,,,,,,,,,,,,,,,,,,,,,,,,,,,,,,,,,,,,,,,,,,,,,,,,,,,,,,,,,,,,,,,,,,,,,,,,,,,,,
,,6463f56c88a5a54f57c01934,2024-02-19_15h16.31.163,kallum_motion_pilot,2023.2.2,Linux x86_64,60.24096386,6463f56c88a5a54f57c01934,65d2b6c8f2eece985d8e374c,65d2b9eb8ef7007ba45af97e,0.0615,0.0615,1,72,234,30,1,fourtwo,,,,,,,,,,,,,,,,,,,,,,,,,,,,,,,,,,,,,,,,,,,,,,,,,,,,,,,,,,,,,,,,,,,,,,,,,,,,,,,,,,,,,,,,,,,,,,,,,,,,,,,,,,,,,,,,,,,,,,,,,,,,,,,,,,,,,,,,,
,,6463f56c88a5a54f57c01934,2024-02-19_15h16.31.163,kallum_motion_pilot,2023.2.2,Linux x86_64,60.24096386,6463f56c88a5a54f57c01934,65d2b6c8f2eece985d8e374c,65d2b9eb8ef7007ba45af97e,0.0616,0.0617,1,73,235,80,1,fivesix,,,,,,,,,,,,,,,,,,,,,,,,,,,,,,,,,,,,,,,,,,,,,,,,,,,,,,,,,,,,,,,,,,,,,,,,,,,,,,,,,,,,,,,,,,,,,,,,,,,,,,,,,,,,,,,,,,,,,,,,,,,,,,,,,,,,,,,,,
,,6463f56c88a5a54f57c01934,2024-02-19_15h16.31.163,kallum_motion_pilot,2023.2.2,Linux x86_64,60.24096386,6463f56c88a5a54f57c01934,65d2b6c8f2eece985d8e374c,65d2b9eb8ef7007ba45af97e,0.0624,0.0625,1,74,236,5,1,threefour,,,,,,,,,,,,,,,,,,,,,,,,,,,,,,,,,,,,,,,,,,,,,,,,,,,,,,,,,,,,,,,,,,,,,,,,,,,,,,,,,,,,,,,,,,,,,,,,,,,,,,,,,,,,,,,,,,,,,,,,,,,,,,,,,,,,,,,,,
,,6463f56c88a5a54f57c01934,2024-02-19_15h16.31.163,kallum_motion_pilot,2023.2.2,Linux x86_64,60.24096386,6463f56c88a5a54f57c01934,65d2b6c8f2eece985d8e374c,65d2b9eb8ef7007ba45af97e,0.0626,0.0627,1,75,237,130,1,sixfive,,,,,,,,,,,,,,,,,,,,,,,,,,,,,,,,,,,,,,,,,,,,,,,,,,,,,,,,,,,,,,,,,,,,,,,,,,,,,,,,,,,,,,,,,,,,,,,,,,,,,,,,,,,,,,,,,,,,,,,,,,,,,,,,,,,,,,,,,
,,6463f56c88a5a54f57c01934,2024-02-19_15h16.31.163,kallum_motion_pilot,2023.2.2,Linux x86_64,60.24096386,6463f56c88a5a54f57c01934,65d2b6c8f2eece985d8e374c,65d2b9eb8ef7007ba45af97e,0.0628,0.0629,1,76,238,52,1,threeone,,,,,,,,,,,,,,,,,,,,,,,,,,,,,,,,,,,,,,,,,,,,,,,,,,,,,,,,,,,,,,,,,,,,,,,,,,,,,,,,,,,,,,,,,,,,,,,,,,,,,,,,,,,,,,,,,,,,,,,,,,,,,,,,,,,,,,,,,
,,6463f56c88a5a54f57c01934,2024-02-19_15h16.31.163,kallum_motion_pilot,2023.2.2,Linux x86_64,60.24096386,6463f56c88a5a54f57c01934,65d2b6c8f2eece985d8e374c,65d2b9eb8ef7007ba45af97e,0.063,0.0631,1,77,239,58,1,twoone,,,,,,,,,,,,,,,,,,,,,,,,,,,,,,,,,,,,,,,,,,,,,,,,,,,,,,,,,,,,,,,,,,,,,,,,,,,,,,,,,,,,,,,,,,,,,,,,,,,,,,,,,,,,,,,,,,,,,,,,,,,,,,,,,,,,,,,,,
,,6463f56c88a5a54f57c01934,2024-02-19_15h16.31.163,kallum_motion_pilot,2023.2.2,Linux x86_64,60.24096386,6463f56c88a5a54f57c01934,65d2b6c8f2eece985d8e374c,65d2b9eb8ef7007ba45af97e,0.0632,0.0632,1,78,240,156,1,sevenfive,,,,,,,,,,,,,,,,,,,,,,,,,,,,,,,,,,,,,,,,,,,,,,,,,,,,,,,,,,,,,,,,,,,,,,,,,,,,,,,,,,,,,,,,,,,,,,,,,,,,,,,,,,,,,,,,,,,,,,,,,,,,,,,,,,,,,,,,,
,,6463f56c88a5a54f57c01934,2024-02-19_15h16.31.163,kallum_motion_pilot,2023.2.2,Linux x86_64,60.24096386,6463f56c88a5a54f57c01934,65d2b6c8f2eece985d8e374c,65d2b9eb8ef7007ba45af97e,0.0633,0.0635,1,79,241,134,1,eightsix,,,,,,,,,,,,,,,,,,,,,,,,,,,,,,,,,,,,,,,,,,,,,,,,,,,,,,,,,,,,,,,,,,,,,,,,,,,,,,,,,,,,,,,,,,,,,,,,,,,,,,,,,,,,,,,,,,,,,,,,,,,,,,,,,,,,,,,,,
,,6463f56c88a5a54f57c01934,2024-02-19_15h16.31.163,kallum_motion_pilot,2023.2.2,Linux x86_64,60.24096386,6463f56c88a5a54f57c01934,65d2b6c8f2eece985d8e374c,65d2b9eb8ef7007ba45af97e,0.0636,0.0636,1,80,242,24,1,onetwo,,,,,,,,,,,,,,,,,,,,,,,,,,,,,,,,,,,,,,,,,,,,,,,,,,,,,,,,,,,,,,,,,,,,,,,,,,,,,,,,,,,,,,,,,,,,,,,,,,,,,,,,,,,,,,,,,,,,,,,,,,,,,,,,,,,,,,,,,
,,6463f56c88a5a54f57c01934,2024-02-19_15h16.31.163,kallum_motion_pilot,2023.2.2,Linux x86_64,60.24096386,6463f56c88a5a54f57c01934,65d2b6c8f2eece985d8e374c,65d2b9eb8ef7007ba45af97e,0.0637,0.0638,1,81,243,108,1,sevenfive,,,,,,,,,,,,,,,,,,,,,,,,,,,,,,,,,,,,,,,,,,,,,,,,,,,,,,,,,,,,,,,,,,,,,,,,,,,,,,,,,,,,,,,,,,,,,,,,,,,,,,,,,,,,,,,,,,,,,,,,,,,,,,,,,,,,,,,,,
,,6463f56c88a5a54f57c01934,2024-02-19_15h16.31.163,kallum_motion_pilot,2023.2.2,Linux x86_64,60.24096386,6463f56c88a5a54f57c01934,65d2b6c8f2eece985d8e374c,65d2b9eb8ef7007ba45af97e,0.0639,0.0639,1,82,244,12,1,threeone,,,,,,,,,,,,,,,,,,,,,,,,,,,,,,,,,,,,,,,,,,,,,,,,,,,,,,,,,,,,,,,,,,,,,,,,,,,,,,,,,,,,,,,,,,,,,,,,,,,,,,,,,,,,,,,,,,,,,,,,,,,,,,,,,,,,,,,,,
,,6463f56c88a5a54f57c01934,2024-02-19_15h16.31.163,kallum_motion_pilot,2023.2.2,Linux x86_64,60.24096386,6463f56c88a5a54f57c01934,65d2b6c8f2eece985d8e374c,65d2b9eb8ef7007ba45af97e,0.0641,0.0642,1,83,245,138,1,sixfive,,,,,,,,,,,,,,,,,,,,,,,,,,,,,,,,,,,,,,,,,,,,,,,,,,,,,,,,,,,,,,,,,,,,,,,,,,,,,,,,,,,,,,,,,,,,,,,,,,,,,,,,,,,,,,,,,,,,,,,,,,,,,,,,,,,,,,,,,
,,6463f56c88a5a54f57c01934,2024-02-19_15h16.31.163,kallum_motion_pilot,2023.2.2,Linux x86_64,60.24096386,6463f56c88a5a54f57c01934,65d2b6c8f2eece985d8e374c,65d2b9eb8ef7007ba45af97e,0.0642,0.0643,1,84,246,29,1,threefour,,,,,,,,,,,,,,,,,,,,,,,,,,,,,,,,,,,,,,,,,,,,,,,,,,,,,,,,,,,,,,,,,,,,,,,,,,,,,,,,,,,,,,,,,,,,,,,,,,,,,,,,,,,,,,,,,,,,,,,,,,,,,,,,,,,,,,,,,
,,6463f56c88a5a54f57c01934,2024-02-19_15h16.31.163,kallum_motion_pilot,2023.2.2,Linux x86_64,60.24096386,6463f56c88a5a54f57c01934,65d2b6c8f2eece985d8e374c,65d2b9eb8ef7007ba45af97e,0.0644,0.0645,1,85,247,27,1,twofour,,,,,,,,,,,,,,,,,,,,,,,,,,,,,,,,,,,,,,,,,,,,,,,,,,,,,,,,,,,,,,,,,,,,,,,,,,,,,,,,,,,,,,,,,,,,,,,,,,,,,,,,,,,,,,,,,,,,,,,,,,,,,,,,,,,,,,,,,
,,6463f56c88a5a54f57c01934,2024-02-19_15h16.31.163,kallum_motion_pilot,2023.2.2,Linux x86_64,60.24096386,6463f56c88a5a54f57c01934,65d2b6c8f2eece985d8e374c,65d2b9eb8ef7007ba45af97e,0.0646,0.0647,1,86,248,11,1,twofour,,,,,,,,,,,,,,,,,,,,,,,,,,,,,,,,,,,,,,,,,,,,,,,,,,,,,,,,,,,,,,,,,,,,,,,,,,,,,,,,,,,,,,,,,,,,,,,,,,,,,,,,,,,,,,,,,,,,,,,,,,,,,,,,,,,,,,,,,
,,6463f56c88a5a54f57c01934,2024-02-19_15h16.31.163,kallum_motion_pilot,2023.2.2,Linux x86_64,60.24096386,6463f56c88a5a54f57c01934,65d2b6c8f2eece985d8e374c,65d2b9eb8ef7007ba45af97e,0.0648,0.0649,1,87,249,106,1,sixfive,,,,,,,,,,,,,,,,,,,,,,,,,,,,,,,,,,,,,,,,,,,,,,,,,,,,,,,,,,,,,,,,,,,,,,,,,,,,,,,,,,,,,,,,,,,,,,,,,,,,,,,,,,,,,,,,,,,,,,,,,,,,,,,,,,,,,,,,,
,,6463f56c88a5a54f57c01934,2024-02-19_15h16.31.163,kallum_motion_pilot,2023.2.2,Linux x86_64,60.24096386,6463f56c88a5a54f57c01934,65d2b6c8f2eece985d8e374c,65d2b9eb8ef7007ba45af97e,0.065,0.0651,1,88,250,46,1,fourtwo,,,,,,,,,,,,,,,,,,,,,,,,,,,,,,,,,,,,,,,,,,,,,,,,,,,,,,,,,,,,,,,,,,,,,,,,,,,,,,,,,,,,,,,,,,,,,,,,,,,,,,,,,,,,,,,,,,,,,,,,,,,,,,,,,,,,,,,,,
,,6463f56c88a5a54f57c01934,2024-02-19_15h16.31.163,kallum_motion_pilot,2023.2.2,Linux x86_64,60.24096386,6463f56c88a5a54f57c01934,65d2b6c8f2eece985d8e374c,65d2b9eb8ef7007ba45af97e,0.0652,0.0652,1,89,251,133,1,seveneight,,,,,,,,,,,,,,,,,,,,,,,,,,,,,,,,,,,,,,,,,,,,,,,,,,,,,,,,,,,,,,,,,,,,,,,,,,,,,,,,,,,,,,,,,,,,,,,,,,,,,,,,,,,,,,,,,,,,,,,,,,,,,,,,,,,,,,,,,
,,6463f56c88a5a54f57c01934,2024-02-19_15h16.31.163,kallum_motion_pilot,2023.2.2,Linux x86_64,60.24096386,6463f56c88a5a54f57c01934,65d2b6c8f2eece985d8e374c,65d2b9eb8ef7007ba45af97e,0.0654,0.0654,1,90,252,148,1,sevenfive,,,,,,,,,,,,,,,,,,,,,,,,,,,,,,,,,,,,,,,,,,,,,,,,,,,,,,,,,,,,,,,,,,,,,,,,,,,,,,,,,,,,,,,,,,,,,,,,,,,,,,,,,,,,,,,,,,,,,,,,,,,,,,,,,,,,,,,,,
,,6463f56c88a5a54f57c01934,2024-02-19_15h16.31.163,kallum_motion_pilot,2023.2.2,Linux x86_64,60.24096386,6463f56c88a5a54f57c01934,65d2b6c8f2eece985d8e374c,65d2b9eb8ef7007ba45af97e,0.0655,0.0655,1,91,253,99,1,sixeight,,,,,,,,,,,,,,,,,,,,,,,,,,,,,,,,,,,,,,,,,,,,,,,,,,,,,,,,,,,,,,,,,,,,,,,,,,,,,,,,,,,,,,,,,,,,,,,,,,,,,,,,,,,,,,,,,,,,,,,,,,,,,,,,,,,,,,,,,
,,6463f56c88a5a54f57c01934,2024-02-19_15h16.31.163,kallum_motion_pilot,2023.2.2,Linux x86_64,60.24096386,6463f56c88a5a54f57c01934,65d2b6c8f2eece985d8e374c,65d2b9eb8ef7007ba45af97e,0.0657,0.0658,1,92,254,140,1,sevenfive,,,,,,,,,,,,,,,,,,,,,,,,,,,,,,,,,,,,,,,,,,,,,,,,,,,,,,,,,,,,,,,,,,,,,,,,,,,,,,,,,,,,,,,,,,,,,,,,,,,,,,,,,,,,,,,,,,,,,,,,,,,,,,,,,,,,,,,,,
,,6463f56c88a5a54f57c01934,2024-02-19_15h16.31.163,kallum_motion_pilot,2023.2.2,Linux x86_64,60.24096386,6463f56c88a5a54f57c01934,65d2b6c8f2eece985d8e374c,65d2b9eb8ef7007ba45af97e,0.0659,0.066,1,93,255,131,1,sixeight,,,,,,,,,,,,,,,,,,,,,,,,,,,,,,,,,,,,,,,,,,,,,,,,,,,,,,,,,,,,,,,,,,,,,,,,,,,,,,,,,,,,,,,,,,,,,,,,,,,,,,,,,,,,,,,,,,,,,,,,,,,,,,,,,,,,,,,,,
,,6463f56c88a5a54f57c01934,2024-02-19_15h16.31.163,kallum_motion_pilot,2023.2.2,Linux x86_64,60.24096386,6463f56c88a5a54f57c01934,65d2b6c8f2eece985d8e374c,65d2b9eb8ef7007ba45af97e,0.0661,0.0662,1,94,256,104,1,fivesix,,,,,,,,,,,,,,,,,,,,,,,,,,,,,,,,,,,,,,,,,,,,,,,,,,,,,,,,,,,,,,,,,,,,,,,,,,,,,,,,,,,,,,,,,,,,,,,,,,,,,,,,,,,,,,,,,,,,,,,,,,,,,,,,,,,,,,,,,
,,6463f56c88a5a54f57c01934,2024-02-19_15h16.31.163,kallum_motion_pilot,2023.2.2,Linux x86_64,60.24096386,6463f56c88a5a54f57c01934,65d2b6c8f2eece985d8e374c,65d2b9eb8ef7007ba45af97e,0.0663,0.0665,1,95,257,3,1,twofour,,,,,,,,,,,,,,,,,,,,,,,,,,,,,,,,,,,,,,,,,,,,,,,,,,,,,,,,,,,,,,,,,,,,,,,,,,,,,,,,,,,,,,,,,,,,,,,,,,,,,,,,,,,,,,,,,,,,,,,,,,,,,,,,,,,,,,,,,
,,6463f56c88a5a54f57c01934,2024-02-19_15h16.31.163,kallum_motion_pilot,2023.2.2,Linux x86_64,60.24096386,6463f56c88a5a54f57c01934,65d2b6c8f2eece985d8e374c,65d2b9eb8ef7007ba45af97e,0.0666,0.0668,1,96,258,82,1,sixfive,,,,,,,,,,,,,,,,,,,,,,,,,,,,,,,,,,,,,,,,,,,,,,,,,,,,,,,,,,,,,,,,,,,,,,,,,,,,,,,,,,,,,,,,,,,,,,,,,,,,,,,,,,,,,,,,,,,,,,,,,,,,,,,,,,,,,,,,,
,,6463f56c88a5a54f57c01934,2024-02-19_15h16.31.163,kallum_motion_pilot,2023.2.2,Linux x86_64,60.24096386,6463f56c88a5a54f57c01934,65d2b6c8f2eece985d8e374c,65d2b9eb8ef7007ba45af97e,0.0668,0.067,1,97,259,137,1,fiveseven,,,,,,,,,,,,,,,,,,,,,,,,,,,,,,,,,,,,,,,,,,,,,,,,,,,,,,,,,,,,,,,,,,,,,,,,,,,,,,,,,,,,,,,,,,,,,,,,,,,,,,,,,,,,,,,,,,,,,,,,,,,,,,,,,,,,,,,,,
,,6463f56c88a5a54f57c01934,2024-02-19_15h16.31.163,kallum_motion_pilot,2023.2.2,Linux x86_64,60.24096386,6463f56c88a5a54f57c01934,65d2b6c8f2eece985d8e374c,65d2b9eb8ef7007ba45af97e,0.0671,0.0672,1,98,260,114,1,sixfive,,,,,,,,,,,,,,,,,,,,,,,,,,,,,,,,,,,,,,,,,,,,,,,,,,,,,,,,,,,,,,,,,,,,,,,,,,,,,,,,,,,,,,,,,,,,,,,,,,,,,,,,,,,,,,,,,,,,,,,,,,,,,,,,,,,,,,,,,
,,6463f56c88a5a54f57c01934,2024-02-19_15h16.31.163,kallum_motion_pilot,2023.2.2,Linux x86_64,60.24096386,6463f56c88a5a54f57c01934,65d2b6c8f2eece985d8e374c,65d2b9eb8ef7007ba45af97e,0.0674,0.0674,1,99,261,60,1,threeone,,,,,,,,,,,,,,,,,,,,,,,,,,,,,,,,,,,,,,,,,,,,,,,,,,,,,,,,,,,,,,,,,,,,,,,,,,,,,,,,,,,,,,,,,,,,,,,,,,,,,,,,,,,,,,,,,,,,,,,,,,,,,,,,,,,,,,,,,
,,6463f56c88a5a54f57c01934,2024-02-19_15h16.31.163,kallum_motion_pilot,2023.2.2,Linux x86_64,60.24096386,6463f56c88a5a54f57c01934,65d2b6c8f2eece985d8e374c,65d2b9eb8ef7007ba45af97e,0.0676,0.0677,1,100,262,17,1,onethree,,,,,,,,,,,,,,,,,,,,,,,,,,,,,,,,,,,,,,,,,,,,,,,,,,,,,,,,,,,,,,,,,,,,,,,,,,,,,,,,,,,,,,,,,,,,,,,,,,,,,,,,,,,,,,,,,,,,,,,,,,,,,,,,,,,,,,,,,
,,6463f56c88a5a54f57c01934,2024-02-19_15h16.31.163,kallum_motion_pilot,2023.2.2,Linux x86_64,60.24096386,6463f56c88a5a54f57c01934,65d2b6c8f2eece985d8e374c,65d2b9eb8ef7007ba45af97e,0.0679,0.0679,1,101,263,7,1,fourthree,,,,,,,,,,,,,,,,,,,,,,,,,,,,,,,,,,,,,,,,,,,,,,,,,,,,,,,,,,,,,,,,,,,,,,,,,,,,,,,,,,,,,,,,,,,,,,,,,,,,,,,,,,,,,,,,,,,,,,,,,,,,,,,,,,,,,,,,,
,,6463f56c88a5a54f57c01934,2024-02-19_15h16.31.163,kallum_motion_pilot,2023.2.2,Linux x86_64,60.24096386,6463f56c88a5a54f57c01934,65d2b6c8f2eece985d8e374c,65d2b9eb8ef7007ba45af97e,0.068,0.0682,1,102,264,37,1,threefour,,,,,,,,,,,,,,,,,,,,,,,,,,,,,,,,,,,,,,,,,,,,,,,,,,,,,,,,,,,,,,,,,,,,,,,,,,,,,,,,,,,,,,,,,,,,,,,,,,,,,,,,,,,,,,,,,,,,,,,,,,,,,,,,,,,,,,,,,
,,6463f56c88a5a54f57c01934,2024-02-19_15h16.31.163,kallum_motion_pilot,2023.2.2,Linux x86_64,60.24096386,6463f56c88a5a54f57c01934,65d2b6c8f2eece985d8e374c,65d2b9eb8ef7007ba45af97e,0.0683,0.0683,1,103,265,88,1,fivesix,,,,,,,,,,,,,,,,,,,,,,,,,,,,,,,,,,,,,,,,,,,,,,,,,,,,,,,,,,,,,,,,,,,,,,,,,,,,,,,,,,,,,,,,,,,,,,,,,,,,,,,,,,,,,,,,,,,,,,,,,,,,,,,,,,,,,,,,,
,,6463f56c88a5a54f57c01934,2024-02-19_15h16.31.163,kallum_motion_pilot,2023.2.2,Linux x86_64,60.24096386,6463f56c88a5a54f57c01934,65d2b6c8f2eece985d8e374c,65d2b9eb8ef7007ba45af97e,0.0685,0.0686,1,104,266,85,1,seveneight,,,,,,,,,,,,,,,,,,,,,,,,,,,,,,,,,,,,,,,,,,,,,,,,,,,,,,,,,,,,,,,,,,,,,,,,,,,,,,,,,,,,,,,,,,,,,,,,,,,,,,,,,,,,,,,,,,,,,,,,,,,,,,,,,,,,,,,,,
,,6463f56c88a5a54f57c01934,2024-02-19_15h16.31.163,kallum_motion_pilot,2023.2.2,Linux x86_64,60.24096386,6463f56c88a5a54f57c01934,65d2b6c8f2eece985d8e374c,65d2b9eb8ef7007ba45af97e,0.0687,0.0687,1,105,267,45,1,threefour,,,,,,,,,,,,,,,,,,,,,,,,,,,,,,,,,,,,,,,,,,,,,,,,,,,,,,,,,,,,,,,,,,,,,,,,,,,,,,,,,,,,,,,,,,,,,,,,,,,,,,,,,,,,,,,,,,,,,,,,,,,,,,,,,,,,,,,,,
,,6463f56c88a5a54f57c01934,2024-02-19_15h16.31.163,kallum_motion_pilot,2023.2.2,Linux x86_64,60.24096386,6463f56c88a5a54f57c01934,65d2b6c8f2eece985d8e374c,65d2b9eb8ef7007ba45af97e,0.0688,0.0689,1,106,268,111,1,eightseven,,,,,,,,,,,,,,,,,,,,,,,,,,,,,,,,,,,,,,,,,,,,,,,,,,,,,,,,,,,,,,,,,,,,,,,,,,,,,,,,,,,,,,,,,,,,,,,,,,,,,,,,,,,,,,,,,,,,,,,,,,,,,,,,,,,,,,,,,
,,6463f56c88a5a54f57c01934,2024-02-19_15h16.31.163,kallum_motion_pilot,2023.2.2,Linux x86_64,60.24096386,6463f56c88a5a54f57c01934,65d2b6c8f2eece985d8e374c,65d2b9eb8ef7007ba45af97e,0.069,0.0691,1,107,269,75,1,twofour,,,,,,,,,,,,,,,,,,,,,,,,,,,,,,,,,,,,,,,,,,,,,,,,,,,,,,,,,,,,,,,,,,,,,,,,,,,,,,,,,,,,,,,,,,,,,,,,,,,,,,,,,,,,,,,,,,,,,,,,,,,,,,,,,,,,,,,,,
,,6463f56c88a5a54f57c01934,2024-02-19_15h16.31.163,kallum_motion_pilot,2023.2.2,Linux x86_64,60.24096386,6463f56c88a5a54f57c01934,65d2b6c8f2eece985d8e374c,65d2b9eb8ef7007ba45af97e,0.0692,0.0692,1,108,270,63,1,fourthree,,,,,,,,,,,,,,,,,,,,,,,,,,,,,,,,,,,,,,,,,,,,,,,,,,,,,,,,,,,,,,,,,,,,,,,,,,,,,,,,,,,,,,,,,,,,,,,,,,,,,,,,,,,,,,,,,,,,,,,,,,,,,,,,,,,,,,,,,
,,6463f56c88a5a54f57c01934,2024-02-19_15h16.31.163,kallum_motion_pilot,2023.2.2,Linux x86_64,60.24096386,6463f56c88a5a54f57c01934,65d2b6c8f2eece985d8e374c,65d2b9eb8ef7007ba45af97e,0.0694,0.0695,1,109,271,53,1,threefour,,,,,,,,,,,,,,,,,,,,,,,,,,,,,,,,,,,,,,,,,,,,,,,,,,,,,,,,,,,,,,,,,,,,,,,,,,,,,,,,,,,,,,,,,,,,,,,,,,,,,,,,,,,,,,,,,,,,,,,,,,,,,,,,,,,,,,,,,
,,6463f56c88a5a54f57c01934,2024-02-19_15h16.31.163,kallum_motion_pilot,2023.2.2,Linux x86_64,60.24096386,6463f56c88a5a54f57c01934,65d2b6c8f2eece985d8e374c,65d2b9eb8ef7007ba45af97e,0.0696,0.0696,1,110,272,160,1,fivesix,,,,,,,,,,,,,,,,,,,,,,,,,,,,,,,,,,,,,,,,,,,,,,,,,,,,,,,,,,,,,,,,,,,,,,,,,,,,,,,,,,,,,,,,,,,,,,,,,,,,,,,,,,,,,,,,,,,,,,,,,,,,,,,,,,,,,,,,,
