startup.started,startup.stopped,Prolific ID*,date,expName,psychopyVersion,OS,frameRate,participant,study_id,session,stimpositions.started,stimpositions.stopped,hardcoded_stimulus_positions.thisRepN,hardcoded_stimulus_positions.thisTrialN,hardcoded_stimulus_positions.thisN,hardcoded_stimulus_positions.thisIndex,hardcoded_stimulus_positions.ran,StimulusPos,stimorientation.started,stimorientation.stopped,prac_stimorientation_import_loop.thisRepN,prac_stimorientation_import_loop.thisTrialN,prac_stimorientation_import_loop.thisN,prac_stimorientation_import_loop.thisIndex,prac_stimorientation_import_loop.ran,Stimorientation,welcome_instr.started,welcome_instr.stopped,key_resp.keys,key_resp.rt,key_resp.duration,response_steppedout_1.started,response_steppedout_1.stopped,key_resp_20.keys,key_resp_20.rt,key_resp_20.duration,response_steppedout_2.started,response_steppedout_2.stopped,key_resp_19.keys,key_resp_19.rt,key_resp_19.duration,stim_response_instr.started,stim_response_instr.stopped,key_resp_15.keys,key_resp_15.rt,key_resp_15.duration,direction_instr_2.started,direction_instr_2.stopped,key_resp_9.keys,key_resp_9.rt,key_resp_9.duration,instr_prac.started,instr_prac.stopped,key_resp_10.keys,key_resp_10.rt,key_resp_10.duration,Stim1_display_prac.started,Stim1_display_prac.stopped,Ecc,Circle1_ori,Circle2_ori,response_prac.started,similarity,response_time,response_prac.stopped,mouse_5.x,mouse_5.y,mouse_5.leftButton,mouse_5.midButton,mouse_5.rightButton,mouse_5.clicked_name,responseprac_feedback.started,responseprac_feedback.stopped,summary2_prac.started,summary2_prac.stopped,mouse_6.x,mouse_6.y,mouse_6.leftButton,mouse_6.midButton,mouse_6.rightButton,mouse_6.clicked_name,duringprac.thisRepN,duringprac.thisTrialN,duringprac.thisN,duringprac.thisIndex,duringprac.ran,begin.started,begin.stopped,key_resp_22.keys,key_resp_22.rt,key_resp_22.duration,Stim1_display.started,Stim1_display.stopped,circle1_ori,circle2_ori,circle1_SF,circle2_SF,response.started,response.stopped,mouse.x,mouse.y,mouse.leftButton,mouse.midButton,mouse.rightButton,mouse.clicked_name,trialnumber,double_pass.thisRepN,double_pass.thisTrialN,double_pass.thisN,double_pass.thisIndex,double_pass.ran,double_pass.order,main_trial.thisRepN,main_trial.thisTrialN,main_trial.thisN,main_trial.thisIndex,main_trial.ran,main_trial.order,Trial_Counter,Catch,Frequencies,response_2.started,response_2.stopped,mouse_2.x,mouse_2.y,mouse_2.leftButton,mouse_2.midButton,mouse_2.rightButton,mouse_2.clicked_name,special_trial.started,special_trial.stopped,catch_1.started,catch_1.stopped,mouse_3.x,mouse_3.y,mouse_3.leftButton,mouse_3.midButton,mouse_3.rightButton,catchresponse,catchnumber,response_time_catch,response_sum.started,response_sum.stopped,mouse_11.x,mouse_11.y,mouse_11.leftButton,mouse_11.midButton,mouse_11.rightButton,flip_presentation_sequence_for_double_pass.started,flip_presentation_sequence_for_double_pass.stopped,goodbye.started,goodbye.stopped,key_resp_3.keys,key_resp_3.rt,key_resp_3.duration
0.0005,0.0007,646b6c82f2828954c3456fb2,2024-02-19_03h14.03.784,kallum_motion_pilot,2023.2.2,Win32,60.24096386,646b6c82f2828954c3456fb2,65d2b6c8f2eece985d8e374c,65d2b9587c0ea4d16a30e578,,,,,,,,,,,,,,,,,,,,,,,,,,,,,,,,,,,,,,,,,,,,,,,,,,,,,,,,,,,,,,,,,,,,,,,,,,,,,,,,,,,,,,,,,,,,,,,,,,,,,,,,,,,,,,,,,,,,,,,,,,,,,,,,,,,,,,,,,,,,,,,,,
,,646b6c82f2828954c3456fb2,2024-02-19_03h14.03.784,kallum_motion_pilot,2023.2.2,Win32,60.24096386,646b6c82f2828954c3456fb2,65d2b6c8f2eece985d8e374c,65d2b9587c0ea4d16a30e578,0.0197,0.0198,0,0,0,129,1,fiveseven,,,,,,,,,,,,,,,,,,,,,,,,,,,,,,,,,,,,,,,,,,,,,,,,,,,,,,,,,,,,,,,,,,,,,,,,,,,,,,,,,,,,,,,,,,,,,,,,,,,,,,,,,,,,,,,,,,,,,,,,,,,,,,,,,,,,,,,,,
,,646b6c82f2828954c3456fb2,2024-02-19_03h14.03.784,kallum_motion_pilot,2023.2.2,Win32,60.24096386,646b6c82f2828954c3456fb2,65d2b6c8f2eece985d8e374c,65d2b9587c0ea4d16a30e578,0.02,0.0201,0,1,1,46,1,fourtwo,,,,,,,,,,,,,,,,,,,,,,,,,,,,,,,,,,,,,,,,,,,,,,,,,,,,,,,,,,,,,,,,,,,,,,,,,,,,,,,,,,,,,,,,,,,,,,,,,,,,,,,,,,,,,,,,,,,,,,,,,,,,,,,,,,,,,,,,,
,,646b6c82f2828954c3456fb2,2024-02-19_03h14.03.784,kallum_motion_pilot,2023.2.2,Win32,60.24096386,646b6c82f2828954c3456fb2,65d2b6c8f2eece985d8e374c,65d2b9587c0ea4d16a30e578,0.0202,0.0202,0,2,2,98,1,sixfive,,,,,,,,,,,,,,,,,,,,,,,,,,,,,,,,,,,,,,,,,,,,,,,,,,,,,,,,,,,,,,,,,,,,,,,,,,,,,,,,,,,,,,,,,,,,,,,,,,,,,,,,,,,,,,,,,,,,,,,,,,,,,,,,,,,,,,,,,
,,646b6c82f2828954c3456fb2,2024-02-19_03h14.03.784,kallum_motion_pilot,2023.2.2,Win32,60.24096386,646b6c82f2828954c3456fb2,65d2b6c8f2eece985d8e374c,65d2b9587c0ea4d16a30e578,0.0202,0.0203,0,3,3,22,1,fourtwo,,,,,,,,,,,,,,,,,,,,,,,,,,,,,,,,,,,,,,,,,,,,,,,,,,,,,,,,,,,,,,,,,,,,,,,,,,,,,,,,,,,,,,,,,,,,,,,,,,,,,,,,,,,,,,,,,,,,,,,,,,,,,,,,,,,,,,,,,
,,646b6c82f2828954c3456fb2,2024-02-19_03h14.03.784,kallum_motion_pilot,2023.2.2,Win32,60.24096386,646b6c82f2828954c3456fb2,65d2b6c8f2eece985d8e374c,65d2b9587c0ea4d16a30e578,0.0204,0.0204,0,4,4,38,1,fourtwo,,,,,,,,,,,,,,,,,,,,,,,,,,,,,,,,,,,,,,,,,,,,,,,,,,,,,,,,,,,,,,,,,,,,,,,,,,,,,,,,,,,,,,,,,,,,,,,,,,,,,,,,,,,,,,,,,,,,,,,,,,,,,,,,,,,,,,,,,
,,646b6c82f2828954c3456fb2,2024-02-19_03h14.03.784,kallum_motion_pilot,2023.2.2,Win32,60.24096386,646b6c82f2828954c3456fb2,65d2b6c8f2eece985d8e374c,65d2b9587c0ea4d16a30e578,0.0205,0.0206,0,5,5,118,1,eightsix,,,,,,,,,,,,,,,,,,,,,,,,,,,,,,,,,,,,,,,,,,,,,,,,,,,,,,,,,,,,,,,,,,,,,,,,,,,,,,,,,,,,,,,,,,,,,,,,,,,,,,,,,,,,,,,,,,,,,,,,,,,,,,,,,,,,,,,,,
,,646b6c82f2828954c3456fb2,2024-02-19_03h14.03.784,kallum_motion_pilot,2023.2.2,Win32,60.24096386,646b6c82f2828954c3456fb2,65d2b6c8f2eece985d8e374c,65d2b9587c0ea4d16a30e578,0.0207,0.0207,0,6,6,125,1,seveneight,,,,,,,,,,,,,,,,,,,,,,,,,,,,,,,,,,,,,,,,,,,,,,,,,,,,,,,,,,,,,,,,,,,,,,,,,,,,,,,,,,,,,,,,,,,,,,,,,,,,,,,,,,,,,,,,,,,,,,,,,,,,,,,,,,,,,,,,,
,,646b6c82f2828954c3456fb2,2024-02-19_03h14.03.784,kallum_motion_pilot,2023.2.2,Win32,60.24096386,646b6c82f2828954c3456fb2,65d2b6c8f2eece985d8e374c,65d2b9587c0ea4d16a30e578,0.0208,0.0208,0,7,7,1,1,onethree,,,,,,,,,,,,,,,,,,,,,,,,,,,,,,,,,,,,,,,,,,,,,,,,,,,,,,,,,,,,,,,,,,,,,,,,,,,,,,,,,,,,,,,,,,,,,,,,,,,,,,,,,,,,,,,,,,,,,,,,,,,,,,,,,,,,,,,,,
,,646b6c82f2828954c3456fb2,2024-02-19_03h14.03.784,kallum_motion_pilot,2023.2.2,Win32,60.24096386,646b6c82f2828954c3456fb2,65d2b6c8f2eece985d8e374c,65d2b9587c0ea4d16a30e578,0.0209,0.021,0,8,8,3,1,twofour,,,,,,,,,,,,,,,,,,,,,,,,,,,,,,,,,,,,,,,,,,,,,,,,,,,,,,,,,,,,,,,,,,,,,,,,,,,,,,,,,,,,,,,,,,,,,,,,,,,,,,,,,,,,,,,,,,,,,,,,,,,,,,,,,,,,,,,,,
,,646b6c82f2828954c3456fb2,2024-02-19_03h14.03.784,kallum_motion_pilot,2023.2.2,Win32,60.24096386,646b6c82f2828954c3456fb2,65d2b6c8f2eece985d8e374c,65d2b9587c0ea4d16a30e578,0.021,0.021,0,9,9,68,1,threeone,,,,,,,,,,,,,,,,,,,,,,,,,,,,,,,,,,,,,,,,,,,,,,,,,,,,,,,,,,,,,,,,,,,,,,,,,,,,,,,,,,,,,,,,,,,,,,,,,,,,,,,,,,,,,,,,,,,,,,,,,,,,,,,,,,,,,,,,,
,,646b6c82f2828954c3456fb2,2024-02-19_03h14.03.784,kallum_motion_pilot,2023.2.2,Win32,60.24096386,646b6c82f2828954c3456fb2,65d2b6c8f2eece985d8e374c,65d2b9587c0ea4d16a30e578,0.0212,0.0212,0,10,10,9,1,onethree,,,,,,,,,,,,,,,,,,,,,,,,,,,,,,,,,,,,,,,,,,,,,,,,,,,,,,,,,,,,,,,,,,,,,,,,,,,,,,,,,,,,,,,,,,,,,,,,,,,,,,,,,,,,,,,,,,,,,,,,,,,,,,,,,,,,,,,,,
,,646b6c82f2828954c3456fb2,2024-02-19_03h14.03.784,kallum_motion_pilot,2023.2.2,Win32,60.24096386,646b6c82f2828954c3456fb2,65d2b6c8f2eece985d8e374c,65d2b9587c0ea4d16a30e578,0.0213,0.0213,0,11,11,130,1,sixfive,,,,,,,,,,,,,,,,,,,,,,,,,,,,,,,,,,,,,,,,,,,,,,,,,,,,,,,,,,,,,,,,,,,,,,,,,,,,,,,,,,,,,,,,,,,,,,,,,,,,,,,,,,,,,,,,,,,,,,,,,,,,,,,,,,,,,,,,,
,,646b6c82f2828954c3456fb2,2024-02-19_03h14.03.784,kallum_motion_pilot,2023.2.2,Win32,60.24096386,646b6c82f2828954c3456fb2,65d2b6c8f2eece985d8e374c,65d2b9587c0ea4d16a30e578,0.0214,0.0214,0,12,12,75,1,twofour,,,,,,,,,,,,,,,,,,,,,,,,,,,,,,,,,,,,,,,,,,,,,,,,,,,,,,,,,,,,,,,,,,,,,,,,,,,,,,,,,,,,,,,,,,,,,,,,,,,,,,,,,,,,,,,,,,,,,,,,,,,,,,,,,,,,,,,,,
,,646b6c82f2828954c3456fb2,2024-02-19_03h14.03.784,kallum_motion_pilot,2023.2.2,Win32,60.24096386,646b6c82f2828954c3456fb2,65d2b6c8f2eece985d8e374c,65d2b9587c0ea4d16a30e578,0.0215,0.0215,0,13,13,104,1,fivesix,,,,,,,,,,,,,,,,,,,,,,,,,,,,,,,,,,,,,,,,,,,,,,,,,,,,,,,,,,,,,,,,,,,,,,,,,,,,,,,,,,,,,,,,,,,,,,,,,,,,,,,,,,,,,,,,,,,,,,,,,,,,,,,,,,,,,,,,,
,,646b6c82f2828954c3456fb2,2024-02-19_03h14.03.784,kallum_motion_pilot,2023.2.2,Win32,60.24096386,646b6c82f2828954c3456fb2,65d2b6c8f2eece985d8e374c,65d2b9587c0ea4d16a30e578,0.0215,0.0216,0,14,14,19,1,twofour,,,,,,,,,,,,,,,,,,,,,,,,,,,,,,,,,,,,,,,,,,,,,,,,,,,,,,,,,,,,,,,,,,,,,,,,,,,,,,,,,,,,,,,,,,,,,,,,,,,,,,,,,,,,,,,,,,,,,,,,,,,,,,,,,,,,,,,,,
,,646b6c82f2828954c3456fb2,2024-02-19_03h14.03.784,kallum_motion_pilot,2023.2.2,Win32,60.24096386,646b6c82f2828954c3456fb2,65d2b6c8f2eece985d8e374c,65d2b9587c0ea4d16a30e578,0.0216,0.0216,0,15,15,61,1,threefour,,,,,,,,,,,,,,,,,,,,,,,,,,,,,,,,,,,,,,,,,,,,,,,,,,,,,,,,,,,,,,,,,,,,,,,,,,,,,,,,,,,,,,,,,,,,,,,,,,,,,,,,,,,,,,,,,,,,,,,,,,,,,,,,,,,,,,,,,
,,646b6c82f2828954c3456fb2,2024-02-19_03h14.03.784,kallum_motion_pilot,2023.2.2,Win32,60.24096386,646b6c82f2828954c3456fb2,65d2b6c8f2eece985d8e374c,65d2b9587c0ea4d16a30e578,0.0217,0.0217,0,16,16,57,1,onethree,,,,,,,,,,,,,,,,,,,,,,,,,,,,,,,,,,,,,,,,,,,,,,,,,,,,,,,,,,,,,,,,,,,,,,,,,,,,,,,,,,,,,,,,,,,,,,,,,,,,,,,,,,,,,,,,,,,,,,,,,,,,,,,,,,,,,,,,,
,,646b6c82f2828954c3456fb2,2024-02-19_03h14.03.784,kallum_motion_pilot,2023.2.2,Win32,60.24096386,646b6c82f2828954c3456fb2,65d2b6c8f2eece985d8e374c,65d2b9587c0ea4d16a30e578,0.0217,0.0218,0,17,17,39,1,fourthree,,,,,,,,,,,,,,,,,,,,,,,,,,,,,,,,,,,,,,,,,,,,,,,,,,,,,,,,,,,,,,,,,,,,,,,,,,,,,,,,,,,,,,,,,,,,,,,,,,,,,,,,,,,,,,,,,,,,,,,,,,,,,,,,,,,,,,,,,
,,646b6c82f2828954c3456fb2,2024-02-19_03h14.03.784,kallum_motion_pilot,2023.2.2,Win32,60.24096386,646b6c82f2828954c3456fb2,65d2b6c8f2eece985d8e374c,65d2b9587c0ea4d16a30e578,0.0218,0.0219,0,18,18,124,1,sevenfive,,,,,,,,,,,,,,,,,,,,,,,,,,,,,,,,,,,,,,,,,,,,,,,,,,,,,,,,,,,,,,,,,,,,,,,,,,,,,,,,,,,,,,,,,,,,,,,,,,,,,,,,,,,,,,,,,,,,,,,,,,,,,,,,,,,,,,,,,
,,646b6c82f2828954c3456fb2,2024-02-19_03h14.03.784,kallum_motion_pilot,2023.2.2,Win32,60.24096386,646b6c82f2828954c3456fb2,65d2b6c8f2eece985d8e374c,65d2b9587c0ea4d16a30e578,0.022,0.022,0,19,19,2,1,twoone,,,,,,,,,,,,,,,,,,,,,,,,,,,,,,,,,,,,,,,,,,,,,,,,,,,,,,,,,,,,,,,,,,,,,,,,,,,,,,,,,,,,,,,,,,,,,,,,,,,,,,,,,,,,,,,,,,,,,,,,,,,,,,,,,,,,,,,,,
,,646b6c82f2828954c3456fb2,2024-02-19_03h14.03.784,kallum_motion_pilot,2023.2.2,Win32,60.24096386,646b6c82f2828954c3456fb2,65d2b6c8f2eece985d8e374c,65d2b9587c0ea4d16a30e578,0.0222,0.0222,0,20,20,15,1,fourthree,,,,,,,,,,,,,,,,,,,,,,,,,,,,,,,,,,,,,,,,,,,,,,,,,,,,,,,,,,,,,,,,,,,,,,,,,,,,,,,,,,,,,,,,,,,,,,,,,,,,,,,,,,,,,,,,,,,,,,,,,,,,,,,,,,,,,,,,,
,,646b6c82f2828954c3456fb2,2024-02-19_03h14.03.784,kallum_motion_pilot,2023.2.2,Win32,60.24096386,646b6c82f2828954c3456fb2,65d2b6c8f2eece985d8e374c,65d2b9587c0ea4d16a30e578,0.0222,0.0222,0,21,21,87,1,eightseven,,,,,,,,,,,,,,,,,,,,,,,,,,,,,,,,,,,,,,,,,,,,,,,,,,,,,,,,,,,,,,,,,,,,,,,,,,,,,,,,,,,,,,,,,,,,,,,,,,,,,,,,,,,,,,,,,,,,,,,,,,,,,,,,,,,,,,,,,
,,646b6c82f2828954c3456fb2,2024-02-19_03h14.03.784,kallum_motion_pilot,2023.2.2,Win32,60.24096386,646b6c82f2828954c3456fb2,65d2b6c8f2eece985d8e374c,65d2b9587c0ea4d16a30e578,0.0223,0.0223,0,22,22,149,1,seveneight,,,,,,,,,,,,,,,,,,,,,,,,,,,,,,,,,,,,,,,,,,,,,,,,,,,,,,,,,,,,,,,,,,,,,,,,,,,,,,,,,,,,,,,,,,,,,,,,,,,,,,,,,,,,,,,,,,,,,,,,,,,,,,,,,,,,,,,,,
,,646b6c82f2828954c3456fb2,2024-02-19_03h14.03.784,kallum_motion_pilot,2023.2.2,Win32,60.24096386,646b6c82f2828954c3456fb2,65d2b6c8f2eece985d8e374c,65d2b9587c0ea4d16a30e578,0.0224,0.0224,0,23,23,151,1,eightseven,,,,,,,,,,,,,,,,,,,,,,,,,,,,,,,,,,,,,,,,,,,,,,,,,,,,,,,,,,,,,,,,,,,,,,,,,,,,,,,,,,,,,,,,,,,,,,,,,,,,,,,,,,,,,,,,,,,,,,,,,,,,,,,,,,,,,,,,,
,,646b6c82f2828954c3456fb2,2024-02-19_03h14.03.784,kallum_motion_pilot,2023.2.2,Win32,60.24096386,646b6c82f2828954c3456fb2,65d2b6c8f2eece985d8e374c,65d2b9587c0ea4d16a30e578,0.0225,0.0226,0,24,24,157,1,seveneight,,,,,,,,,,,,,,,,,,,,,,,,,,,,,,,,,,,,,,,,,,,,,,,,,,,,,,,,,,,,,,,,,,,,,,,,,,,,,,,,,,,,,,,,,,,,,,,,,,,,,,,,,,,,,,,,,,,,,,,,,,,,,,,,,,,,,,,,,
,,646b6c82f2828954c3456fb2,2024-02-19_03h14.03.784,kallum_motion_pilot,2023.2.2,Win32,60.24096386,646b6c82f2828954c3456fb2,65d2b6c8f2eece985d8e374c,65d2b9587c0ea4d16a30e578,0.0226,0.0226,0,25,25,89,1,fiveseven,,,,,,,,,,,,,,,,,,,,,,,,,,,,,,,,,,,,,,,,,,,,,,,,,,,,,,,,,,,,,,,,,,,,,,,,,,,,,,,,,,,,,,,,,,,,,,,,,,,,,,,,,,,,,,,,,,,,,,,,,,,,,,,,,,,,,,,,,
,,646b6c82f2828954c3456fb2,2024-02-19_03h14.03.784,kallum_motion_pilot,2023.2.2,Win32,60.24096386,646b6c82f2828954c3456fb2,65d2b6c8f2eece985d8e374c,65d2b9587c0ea4d16a30e578,0.0227,0.0227,0,26,26,161,1,fiveseven,,,,,,,,,,,,,,,,,,,,,,,,,,,,,,,,,,,,,,,,,,,,,,,,,,,,,,,,,,,,,,,,,,,,,,,,,,,,,,,,,,,,,,,,,,,,,,,,,,,,,,,,,,,,,,,,,,,,,,,,,,,,,,,,,,,,,,,,,
,,646b6c82f2828954c3456fb2,2024-02-19_03h14.03.784,kallum_motion_pilot,2023.2.2,Win32,60.24096386,646b6c82f2828954c3456fb2,65d2b6c8f2eece985d8e374c,65d2b9587c0ea4d16a30e578,0.0228,0.0228,0,27,27,114,1,sixfive,,,,,,,,,,,,,,,,,,,,,,,,,,,,,,,,,,,,,,,,,,,,,,,,,,,,,,,,,,,,,,,,,,,,,,,,,,,,,,,,,,,,,,,,,,,,,,,,,,,,,,,,,,,,,,,,,,,,,,,,,,,,,,,,,,,,,,,,,
,,646b6c82f2828954c3456fb2,2024-02-19_03h14.03.784,kallum_motion_pilot,2023.2.2,Win32,60.24096386,646b6c82f2828954c3456fb2,65d2b6c8f2eece985d8e374c,65d2b9587c0ea4d16a30e578,0.0229,0.0229,0,28,28,58,1,twoone,,,,,,,,,,,,,,,,,,,,,,,,,,,,,,,,,,,,,,,,,,,,,,,,,,,,,,,,,,,,,,,,,,,,,,,,,,,,,,,,,,,,,,,,,,,,,,,,,,,,,,,,,,,,,,,,,,,,,,,,,,,,,,,,,,,,,,,,,
,,646b6c82f2828954c3456fb2,2024-02-19_03h14.03.784,kallum_motion_pilot,2023.2.2,Win32,60.24096386,646b6c82f2828954c3456fb2,65d2b6c8f2eece985d8e374c,65d2b9587c0ea4d16a30e578,0.023,0.023,0,29,29,113,1,fiveseven,,,,,,,,,,,,,,,,,,,,,,,,,,,,,,,,,,,,,,,,,,,,,,,,,,,,,,,,,,,,,,,,,,,,,,,,,,,,,,,,,,,,,,,,,,,,,,,,,,,,,,,,,,,,,,,,,,,,,,,,,,,,,,,,,,,,,,,,,
,,646b6c82f2828954c3456fb2,2024-02-19_03h14.03.784,kallum_motion_pilot,2023.2.2,Win32,60.24096386,646b6c82f2828954c3456fb2,65d2b6c8f2eece985d8e374c,65d2b9587c0ea4d16a30e578,0.0231,0.0231,0,30,30,120,1,fivesix,,,,,,,,,,,,,,,,,,,,,,,,,,,,,,,,,,,,,,,,,,,,,,,,,,,,,,,,,,,,,,,,,,,,,,,,,,,,,,,,,,,,,,,,,,,,,,,,,,,,,,,,,,,,,,,,,,,,,,,,,,,,,,,,,,,,,,,,,
,,646b6c82f2828954c3456fb2,2024-02-19_03h14.03.784,kallum_motion_pilot,2023.2.2,Win32,60.24096386,646b6c82f2828954c3456fb2,65d2b6c8f2eece985d8e374c,65d2b9587c0ea4d16a30e578,0.0231,0.0231,0,31,31,101,1,seveneight,,,,,,,,,,,,,,,,,,,,,,,,,,,,,,,,,,,,,,,,,,,,,,,,,,,,,,,,,,,,,,,,,,,,,,,,,,,,,,,,,,,,,,,,,,,,,,,,,,,,,,,,,,,,,,,,,,,,,,,,,,,,,,,,,,,,,,,,,
,,646b6c82f2828954c3456fb2,2024-02-19_03h14.03.784,kallum_motion_pilot,2023.2.2,Win32,60.24096386,646b6c82f2828954c3456fb2,65d2b6c8f2eece985d8e374c,65d2b9587c0ea4d16a30e578,0.0233,0.0233,0,32,32,64,1,onetwo,,,,,,,,,,,,,,,,,,,,,,,,,,,,,,,,,,,,,,,,,,,,,,,,,,,,,,,,,,,,,,,,,,,,,,,,,,,,,,,,,,,,,,,,,,,,,,,,,,,,,,,,,,,,,,,,,,,,,,,,,,,,,,,,,,,,,,,,,
,,646b6c82f2828954c3456fb2,2024-02-19_03h14.03.784,kallum_motion_pilot,2023.2.2,Win32,60.24096386,646b6c82f2828954c3456fb2,65d2b6c8f2eece985d8e374c,65d2b9587c0ea4d16a30e578,0.0233,0.0233,0,33,33,56,1,onetwo,,,,,,,,,,,,,,,,,,,,,,,,,,,,,,,,,,,,,,,,,,,,,,,,,,,,,,,,,,,,,,,,,,,,,,,,,,,,,,,,,,,,,,,,,,,,,,,,,,,,,,,,,,,,,,,,,,,,,,,,,,,,,,,,,,,,,,,,,
,,646b6c82f2828954c3456fb2,2024-02-19_03h14.03.784,kallum_motion_pilot,2023.2.2,Win32,60.24096386,646b6c82f2828954c3456fb2,65d2b6c8f2eece985d8e374c,65d2b9587c0ea4d16a30e578,0.0234,0.0234,0,34,34,28,1,threeone,,,,,,,,,,,,,,,,,,,,,,,,,,,,,,,,,,,,,,,,,,,,,,,,,,,,,,,,,,,,,,,,,,,,,,,,,,,,,,,,,,,,,,,,,,,,,,,,,,,,,,,,,,,,,,,,,,,,,,,,,,,,,,,,,,,,,,,,,
,,646b6c82f2828954c3456fb2,2024-02-19_03h14.03.784,kallum_motion_pilot,2023.2.2,Win32,60.24096386,646b6c82f2828954c3456fb2,65d2b6c8f2eece985d8e374c,65d2b9587c0ea4d16a30e578,0.0234,0.0234,0,35,35,11,1,twofour,,,,,,,,,,,,,,,,,,,,,,,,,,,,,,,,,,,,,,,,,,,,,,,,,,,,,,,,,,,,,,,,,,,,,,,,,,,,,,,,,,,,,,,,,,,,,,,,,,,,,,,,,,,,,,,,,,,,,,,,,,,,,,,,,,,,,,,,,
,,646b6c82f2828954c3456fb2,2024-02-19_03h14.03.784,kallum_motion_pilot,2023.2.2,Win32,60.24096386,646b6c82f2828954c3456fb2,65d2b6c8f2eece985d8e374c,65d2b9587c0ea4d16a30e578,0.0236,0.0236,0,36,36,131,1,sixeight,,,,,,,,,,,,,,,,,,,,,,,,,,,,,,,,,,,,,,,,,,,,,,,,,,,,,,,,,,,,,,,,,,,,,,,,,,,,,,,,,,,,,,,,,,,,,,,,,,,,,,,,,,,,,,,,,,,,,,,,,,,,,,,,,,,,,,,,,
,,646b6c82f2828954c3456fb2,2024-02-19_03h14.03.784,kallum_motion_pilot,2023.2.2,Win32,60.24096386,646b6c82f2828954c3456fb2,65d2b6c8f2eece985d8e374c,65d2b9587c0ea4d16a30e578,0.0236,0.0237,0,37,37,6,1,fourtwo,,,,,,,,,,,,,,,,,,,,,,,,,,,,,,,,,,,,,,,,,,,,,,,,,,,,,,,,,,,,,,,,,,,,,,,,,,,,,,,,,,,,,,,,,,,,,,,,,,,,,,,,,,,,,,,,,,,,,,,,,,,,,,,,,,,,,,,,,
,,646b6c82f2828954c3456fb2,2024-02-19_03h14.03.784,kallum_motion_pilot,2023.2.2,Win32,60.24096386,646b6c82f2828954c3456fb2,65d2b6c8f2eece985d8e374c,65d2b9587c0ea4d16a30e578,0.0238,0.0238,0,38,38,146,1,sixfive,,,,,,,,,,,,,,,,,,,,,,,,,,,,,,,,,,,,,,,,,,,,,,,,,,,,,,,,,,,,,,,,,,,,,,,,,,,,,,,,,,,,,,,,,,,,,,,,,,,,,,,,,,,,,,,,,,,,,,,,,,,,,,,,,,,,,,,,,
,,646b6c82f2828954c3456fb2,2024-02-19_03h14.03.784,kallum_motion_pilot,2023.2.2,Win32,60.24096386,646b6c82f2828954c3456fb2,65d2b6c8f2eece985d8e374c,65d2b9587c0ea4d16a30e578,0.0239,0.0239,0,39,39,55,1,fourthree,,,,,,,,,,,,,,,,,,,,,,,,,,,,,,,,,,,,,,,,,,,,,,,,,,,,,,,,,,,,,,,,,,,,,,,,,,,,,,,,,,,,,,,,,,,,,,,,,,,,,,,,,,,,,,,,,,,,,,,,,,,,,,,,,,,,,,,,,
,,646b6c82f2828954c3456fb2,2024-02-19_03h14.03.784,kallum_motion_pilot,2023.2.2,Win32,60.24096386,646b6c82f2828954c3456fb2,65d2b6c8f2eece985d8e374c,65d2b9587c0ea4d16a30e578,0.0239,0.0239,0,40,40,94,1,eightsix,,,,,,,,,,,,,,,,,,,,,,,,,,,,,,,,,,,,,,,,,,,,,,,,,,,,,,,,,,,,,,,,,,,,,,,,,,,,,,,,,,,,,,,,,,,,,,,,,,,,,,,,,,,,,,,,,,,,,,,,,,,,,,,,,,,,,,,,,
,,646b6c82f2828954c3456fb2,2024-02-19_03h14.03.784,kallum_motion_pilot,2023.2.2,Win32,60.24096386,646b6c82f2828954c3456fb2,65d2b6c8f2eece985d8e374c,65d2b9587c0ea4d16a30e578,0.024,0.024,0,41,41,42,1,twoone,,,,,,,,,,,,,,,,,,,,,,,,,,,,,,,,,,,,,,,,,,,,,,,,,,,,,,,,,,,,,,,,,,,,,,,,,,,,,,,,,,,,,,,,,,,,,,,,,,,,,,,,,,,,,,,,,,,,,,,,,,,,,,,,,,,,,,,,,
,,646b6c82f2828954c3456fb2,2024-02-19_03h14.03.784,kallum_motion_pilot,2023.2.2,Win32,60.24096386,646b6c82f2828954c3456fb2,65d2b6c8f2eece985d8e374c,65d2b9587c0ea4d16a30e578,0.0242,0.0242,0,42,42,86,1,eightsix,,,,,,,,,,,,,,,,,,,,,,,,,,,,,,,,,,,,,,,,,,,,,,,,,,,,,,,,,,,,,,,,,,,,,,,,,,,,,,,,,,,,,,,,,,,,,,,,,,,,,,,,,,,,,,,,,,,,,,,,,,,,,,,,,,,,,,,,,
,,646b6c82f2828954c3456fb2,2024-02-19_03h14.03.784,kallum_motion_pilot,2023.2.2,Win32,60.24096386,646b6c82f2828954c3456fb2,65d2b6c8f2eece985d8e374c,65d2b9587c0ea4d16a30e578,0.0243,0.0243,0,43,43,78,1,fourtwo,,,,,,,,,,,,,,,,,,,,,,,,,,,,,,,,,,,,,,,,,,,,,,,,,,,,,,,,,,,,,,,,,,,,,,,,,,,,,,,,,,,,,,,,,,,,,,,,,,,,,,,,,,,,,,,,,,,,,,,,,,,,,,,,,,,,,,,,,
,,646b6c82f2828954c3456fb2,2024-02-19_03h14.03.784,kallum_motion_pilot,2023.2.2,Win32,60.24096386,646b6c82f2828954c3456fb2,65d2b6c8f2eece985d8e374c,65d2b9587c0ea4d16a30e578,0.0244,0.0244,0,44,44,59,1,twofour,,,,,,,,,,,,,,,,,,,,,,,,,,,,,,,,,,,,,,,,,,,,,,,,,,,,,,,,,,,,,,,,,,,,,,,,,,,,,,,,,,,,,,,,,,,,,,,,,,,,,,,,,,,,,,,,,,,,,,,,,,,,,,,,,,,,,,,,,
,,646b6c82f2828954c3456fb2,2024-02-19_03h14.03.784,kallum_motion_pilot,2023.2.2,Win32,60.24096386,646b6c82f2828954c3456fb2,65d2b6c8f2eece985d8e374c,65d2b9587c0ea4d16a30e578,0.0245,0.0245,0,45,45,62,1,fourtwo,,,,,,,,,,,,,,,,,,,,,,,,,,,,,,,,,,,,,,,,,,,,,,,,,,,,,,,,,,,,,,,,,,,,,,,,,,,,,,,,,,,,,,,,,,,,,,,,,,,,,,,,,,,,,,,,,,,,,,,,,,,,,,,,,,,,,,,,,
,,646b6c82f2828954c3456fb2,2024-02-19_03h14.03.784,kallum_motion_pilot,2023.2.2,Win32,60.24096386,646b6c82f2828954c3456fb2,65d2b6c8f2eece985d8e374c,65d2b9587c0ea4d16a30e578,0.0246,0.0246,0,46,46,44,1,threeone,,,,,,,,,,,,,,,,,,,,,,,,,,,,,,,,,,,,,,,,,,,,,,,,,,,,,,,,,,,,,,,,,,,,,,,,,,,,,,,,,,,,,,,,,,,,,,,,,,,,,,,,,,,,,,,,,,,,,,,,,,,,,,,,,,,,,,,,,
,,646b6c82f2828954c3456fb2,2024-02-19_03h14.03.784,kallum_motion_pilot,2023.2.2,Win32,60.24096386,646b6c82f2828954c3456fb2,65d2b6c8f2eece985d8e374c,65d2b9587c0ea4d16a30e578,0.0247,0.0248,0,47,47,7,1,fourthree,,,,,,,,,,,,,,,,,,,,,,,,,,,,,,,,,,,,,,,,,,,,,,,,,,,,,,,,,,,,,,,,,,,,,,,,,,,,,,,,,,,,,,,,,,,,,,,,,,,,,,,,,,,,,,,,,,,,,,,,,,,,,,,,,,,,,,,,,
,,646b6c82f2828954c3456fb2,2024-02-19_03h14.03.784,kallum_motion_pilot,2023.2.2,Win32,60.24096386,646b6c82f2828954c3456fb2,65d2b6c8f2eece985d8e374c,65d2b9587c0ea4d16a30e578,0.0248,0.0248,0,48,48,150,1,eightsix,,,,,,,,,,,,,,,,,,,,,,,,,,,,,,,,,,,,,,,,,,,,,,,,,,,,,,,,,,,,,,,,,,,,,,,,,,,,,,,,,,,,,,,,,,,,,,,,,,,,,,,,,,,,,,,,,,,,,,,,,,,,,,,,,,,,,,,,,
,,646b6c82f2828954c3456fb2,2024-02-19_03h14.03.784,kallum_motion_pilot,2023.2.2,Win32,60.24096386,646b6c82f2828954c3456fb2,65d2b6c8f2eece985d8e374c,65d2b9587c0ea4d16a30e578,0.0249,0.0249,0,49,49,60,1,threeone,,,,,,,,,,,,,,,,,,,,,,,,,,,,,,,,,,,,,,,,,,,,,,,,,,,,,,,,,,,,,,,,,,,,,,,,,,,,,,,,,,,,,,,,,,,,,,,,,,,,,,,,,,,,,,,,,,,,,,,,,,,,,,,,,,,,,,,,,
,,646b6c82f2828954c3456fb2,2024-02-19_03h14.03.784,kallum_motion_pilot,2023.2.2,Win32,60.24096386,646b6c82f2828954c3456fb2,65d2b6c8f2eece985d8e374c,65d2b9587c0ea4d16a30e578,0.0249,0.025,0,50,50,18,1,twoone,,,,,,,,,,,,,,,,,,,,,,,,,,,,,,,,,,,,,,,,,,,,,,,,,,,,,,,,,,,,,,,,,,,,,,,,,,,,,,,,,,,,,,,,,,,,,,,,,,,,,,,,,,,,,,,,,,,,,,,,,,,,,,,,,,,,,,,,,
,,646b6c82f2828954c3456fb2,2024-02-19_03h14.03.784,kallum_motion_pilot,2023.2.2,Win32,60.24096386,646b6c82f2828954c3456fb2,65d2b6c8f2eece985d8e374c,65d2b9587c0ea4d16a30e578,0.0252,0.0254,0,51,51,71,1,fourthree,,,,,,,,,,,,,,,,,,,,,,,,,,,,,,,,,,,,,,,,,,,,,,,,,,,,,,,,,,,,,,,,,,,,,,,,,,,,,,,,,,,,,,,,,,,,,,,,,,,,,,,,,,,,,,,,,,,,,,,,,,,,,,,,,,,,,,,,,
,,646b6c82f2828954c3456fb2,2024-02-19_03h14.03.784,kallum_motion_pilot,2023.2.2,Win32,60.24096386,646b6c82f2828954c3456fb2,65d2b6c8f2eece985d8e374c,65d2b9587c0ea4d16a30e578,0.0256,0.0256,0,52,52,106,1,sixfive,,,,,,,,,,,,,,,,,,,,,,,,,,,,,,,,,,,,,,,,,,,,,,,,,,,,,,,,,,,,,,,,,,,,,,,,,,,,,,,,,,,,,,,,,,,,,,,,,,,,,,,,,,,,,,,,,,,,,,,,,,,,,,,,,,,,,,,,,
,,646b6c82f2828954c3456fb2,2024-02-19_03h14.03.784,kallum_motion_pilot,2023.2.2,Win32,60.24096386,646b6c82f2828954c3456fb2,65d2b6c8f2eece985d8e374c,65d2b9587c0ea4d16a30e578,0.0259,0.0259,0,53,53,34,1,twoone,,,,,,,,,,,,,,,,,,,,,,,,,,,,,,,,,,,,,,,,,,,,,,,,,,,,,,,,,,,,,,,,,,,,,,,,,,,,,,,,,,,,,,,,,,,,,,,,,,,,,,,,,,,,,,,,,,,,,,,,,,,,,,,,,,,,,,,,,
,,646b6c82f2828954c3456fb2,2024-02-19_03h14.03.784,kallum_motion_pilot,2023.2.2,Win32,60.24096386,646b6c82f2828954c3456fb2,65d2b6c8f2eece985d8e374c,65d2b9587c0ea4d16a30e578,0.026,0.0261,0,54,54,81,1,fiveseven,,,,,,,,,,,,,,,,,,,,,,,,,,,,,,,,,,,,,,,,,,,,,,,,,,,,,,,,,,,,,,,,,,,,,,,,,,,,,,,,,,,,,,,,,,,,,,,,,,,,,,,,,,,,,,,,,,,,,,,,,,,,,,,,,,,,,,,,,
,,646b6c82f2828954c3456fb2,2024-02-19_03h14.03.784,kallum_motion_pilot,2023.2.2,Win32,60.24096386,646b6c82f2828954c3456fb2,65d2b6c8f2eece985d8e374c,65d2b9587c0ea4d16a30e578,0.0261,0.0262,0,55,55,100,1,sevenfive,,,,,,,,,,,,,,,,,,,,,,,,,,,,,,,,,,,,,,,,,,,,,,,,,,,,,,,,,,,,,,,,,,,,,,,,,,,,,,,,,,,,,,,,,,,,,,,,,,,,,,,,,,,,,,,,,,,,,,,,,,,,,,,,,,,,,,,,,
,,646b6c82f2828954c3456fb2,2024-02-19_03h14.03.784,kallum_motion_pilot,2023.2.2,Win32,60.24096386,646b6c82f2828954c3456fb2,65d2b6c8f2eece985d8e374c,65d2b9587c0ea4d16a30e578,0.0263,0.0263,0,56,56,123,1,sixeight,,,,,,,,,,,,,,,,,,,,,,,,,,,,,,,,,,,,,,,,,,,,,,,,,,,,,,,,,,,,,,,,,,,,,,,,,,,,,,,,,,,,,,,,,,,,,,,,,,,,,,,,,,,,,,,,,,,,,,,,,,,,,,,,,,,,,,,,,
,,646b6c82f2828954c3456fb2,2024-02-19_03h14.03.784,kallum_motion_pilot,2023.2.2,Win32,60.24096386,646b6c82f2828954c3456fb2,65d2b6c8f2eece985d8e374c,65d2b9587c0ea4d16a30e578,0.0264,0.0264,0,57,57,136,1,fivesix,,,,,,,,,,,,,,,,,,,,,,,,,,,,,,,,,,,,,,,,,,,,,,,,,,,,,,,,,,,,,,,,,,,,,,,,,,,,,,,,,,,,,,,,,,,,,,,,,,,,,,,,,,,,,,,,,,,,,,,,,,,,,,,,,,,,,,,,,
,,646b6c82f2828954c3456fb2,2024-02-19_03h14.03.784,kallum_motion_pilot,2023.2.2,Win32,60.24096386,646b6c82f2828954c3456fb2,65d2b6c8f2eece985d8e374c,65d2b9587c0ea4d16a30e578,0.0264,0.0264,0,58,58,33,1,onethree,,,,,,,,,,,,,,,,,,,,,,,,,,,,,,,,,,,,,,,,,,,,,,,,,,,,,,,,,,,,,,,,,,,,,,,,,,,,,,,,,,,,,,,,,,,,,,,,,,,,,,,,,,,,,,,,,,,,,,,,,,,,,,,,,,,,,,,,,
,,646b6c82f2828954c3456fb2,2024-02-19_03h14.03.784,kallum_motion_pilot,2023.2.2,Win32,60.24096386,646b6c82f2828954c3456fb2,65d2b6c8f2eece985d8e374c,65d2b9587c0ea4d16a30e578,0.0265,0.0265,0,59,59,160,1,fivesix,,,,,,,,,,,,,,,,,,,,,,,,,,,,,,,,,,,,,,,,,,,,,,,,,,,,,,,,,,,,,,,,,,,,,,,,,,,,,,,,,,,,,,,,,,,,,,,,,,,,,,,,,,,,,,,,,,,,,,,,,,,,,,,,,,,,,,,,,
,,646b6c82f2828954c3456fb2,2024-02-19_03h14.03.784,kallum_motion_pilot,2023.2.2,Win32,60.24096386,646b6c82f2828954c3456fb2,65d2b6c8f2eece985d8e374c,65d2b9587c0ea4d16a30e578,0.0266,0.0267,0,60,60,31,1,fourthree,,,,,,,,,,,,,,,,,,,,,,,,,,,,,,,,,,,,,,,,,,,,,,,,,,,,,,,,,,,,,,,,,,,,,,,,,,,,,,,,,,,,,,,,,,,,,,,,,,,,,,,,,,,,,,,,,,,,,,,,,,,,,,,,,,,,,,,,,
,,646b6c82f2828954c3456fb2,2024-02-19_03h14.03.784,kallum_motion_pilot,2023.2.2,Win32,60.24096386,646b6c82f2828954c3456fb2,65d2b6c8f2eece985d8e374c,65d2b9587c0ea4d16a30e578,0.0267,0.0268,0,61,61,126,1,eightsix,,,,,,,,,,,,,,,,,,,,,,,,,,,,,,,,,,,,,,,,,,,,,,,,,,,,,,,,,,,,,,,,,,,,,,,,,,,,,,,,,,,,,,,,,,,,,,,,,,,,,,,,,,,,,,,,,,,,,,,,,,,,,,,,,,,,,,,,,
,,646b6c82f2828954c3456fb2,2024-02-19_03h14.03.784,kallum_motion_pilot,2023.2.2,Win32,60.24096386,646b6c82f2828954c3456fb2,65d2b6c8f2eece985d8e374c,65d2b9587c0ea4d16a30e578,0.0268,0.0269,0,62,62,36,1,threeone,,,,,,,,,,,,,,,,,,,,,,,,,,,,,,,,,,,,,,,,,,,,,,,,,,,,,,,,,,,,,,,,,,,,,,,,,,,,,,,,,,,,,,,,,,,,,,,,,,,,,,,,,,,,,,,,,,,,,,,,,,,,,,,,,,,,,,,,,
,,646b6c82f2828954c3456fb2,2024-02-19_03h14.03.784,kallum_motion_pilot,2023.2.2,Win32,60.24096386,646b6c82f2828954c3456fb2,65d2b6c8f2eece985d8e374c,65d2b9587c0ea4d16a30e578,0.0269,0.0269,0,63,63,47,1,fourthree,,,,,,,,,,,,,,,,,,,,,,,,,,,,,,,,,,,,,,,,,,,,,,,,,,,,,,,,,,,,,,,,,,,,,,,,,,,,,,,,,,,,,,,,,,,,,,,,,,,,,,,,,,,,,,,,,,,,,,,,,,,,,,,,,,,,,,,,,
,,646b6c82f2828954c3456fb2,2024-02-19_03h14.03.784,kallum_motion_pilot,2023.2.2,Win32,60.24096386,646b6c82f2828954c3456fb2,65d2b6c8f2eece985d8e374c,65d2b9587c0ea4d16a30e578,0.027,0.0271,0,64,64,147,1,sixeight,,,,,,,,,,,,,,,,,,,,,,,,,,,,,,,,,,,,,,,,,,,,,,,,,,,,,,,,,,,,,,,,,,,,,,,,,,,,,,,,,,,,,,,,,,,,,,,,,,,,,,,,,,,,,,,,,,,,,,,,,,,,,,,,,,,,,,,,,
,,646b6c82f2828954c3456fb2,2024-02-19_03h14.03.784,kallum_motion_pilot,2023.2.2,Win32,60.24096386,646b6c82f2828954c3456fb2,65d2b6c8f2eece985d8e374c,65d2b9587c0ea4d16a30e578,0.0278,0.0278,0,65,65,83,1,sixeight,,,,,,,,,,,,,,,,,,,,,,,,,,,,,,,,,,,,,,,,,,,,,,,,,,,,,,,,,,,,,,,,,,,,,,,,,,,,,,,,,,,,,,,,,,,,,,,,,,,,,,,,,,,,,,,,,,,,,,,,,,,,,,,,,,,,,,,,,
,,646b6c82f2828954c3456fb2,2024-02-19_03h14.03.784,kallum_motion_pilot,2023.2.2,Win32,60.24096386,646b6c82f2828954c3456fb2,65d2b6c8f2eece985d8e374c,65d2b9587c0ea4d16a30e578,0.0279,0.0279,0,66,66,148,1,sevenfive,,,,,,,,,,,,,,,,,,,,,,,,,,,,,,,,,,,,,,,,,,,,,,,,,,,,,,,,,,,,,,,,,,,,,,,,,,,,,,,,,,,,,,,,,,,,,,,,,,,,,,,,,,,,,,,,,,,,,,,,,,,,,,,,,,,,,,,,,
,,646b6c82f2828954c3456fb2,2024-02-19_03h14.03.784,kallum_motion_pilot,2023.2.2,Win32,60.24096386,646b6c82f2828954c3456fb2,65d2b6c8f2eece985d8e374c,65d2b9587c0ea4d16a30e578,0.028,0.028,0,67,67,142,1,eightsix,,,,,,,,,,,,,,,,,,,,,,,,,,,,,,,,,,,,,,,,,,,,,,,,,,,,,,,,,,,,,,,,,,,,,,,,,,,,,,,,,,,,,,,,,,,,,,,,,,,,,,,,,,,,,,,,,,,,,,,,,,,,,,,,,,,,,,,,,
,,646b6c82f2828954c3456fb2,2024-02-19_03h14.03.784,kallum_motion_pilot,2023.2.2,Win32,60.24096386,646b6c82f2828954c3456fb2,65d2b6c8f2eece985d8e374c,65d2b9587c0ea4d16a30e578,0.0281,0.0281,0,68,68,54,1,fourtwo,,,,,,,,,,,,,,,,,,,,,,,,,,,,,,,,,,,,,,,,,,,,,,,,,,,,,,,,,,,,,,,,,,,,,,,,,,,,,,,,,,,,,,,,,,,,,,,,,,,,,,,,,,,,,,,,,,,,,,,,,,,,,,,,,,,,,,,,,
,,646b6c82f2828954c3456fb2,2024-02-19_03h14.03.784,kallum_motion_pilot,2023.2.2,Win32,60.24096386,646b6c82f2828954c3456fb2,65d2b6c8f2eece985d8e374c,65d2b9587c0ea4d16a30e578,0.0282,0.0282,0,69,69,25,1,onethree,,,,,,,,,,,,,,,,,,,,,,,,,,,,,,,,,,,,,,,,,,,,,,,,,,,,,,,,,,,,,,,,,,,,,,,,,,,,,,,,,,,,,,,,,,,,,,,,,,,,,,,,,,,,,,,,,,,,,,,,,,,,,,,,,,,,,,,,,
,,646b6c82f2828954c3456fb2,2024-02-19_03h14.03.784,kallum_motion_pilot,2023.2.2,Win32,60.24096386,646b6c82f2828954c3456fb2,65d2b6c8f2eece985d8e374c,65d2b9587c0ea4d16a30e578,0.0282,0.0283,0,70,70,138,1,sixfive,,,,,,,,,,,,,,,,,,,,,,,,,,,,,,,,,,,,,,,,,,,,,,,,,,,,,,,,,,,,,,,,,,,,,,,,,,,,,,,,,,,,,,,,,,,,,,,,,,,,,,,,,,,,,,,,,,,,,,,,,,,,,,,,,,,,,,,,,
,,646b6c82f2828954c3456fb2,2024-02-19_03h14.03.784,kallum_motion_pilot,2023.2.2,Win32,60.24096386,646b6c82f2828954c3456fb2,65d2b6c8f2eece985d8e374c,65d2b9587c0ea4d16a30e578,0.0284,0.0285,0,71,71,127,1,eightseven,,,,,,,,,,,,,,,,,,,,,,,,,,,,,,,,,,,,,,,,,,,,,,,,,,,,,,,,,,,,,,,,,,,,,,,,,,,,,,,,,,,,,,,,,,,,,,,,,,,,,,,,,,,,,,,,,,,,,,,,,,,,,,,,,,,,,,,,,
,,646b6c82f2828954c3456fb2,2024-02-19_03h14.03.784,kallum_motion_pilot,2023.2.2,Win32,60.24096386,646b6c82f2828954c3456fb2,65d2b6c8f2eece985d8e374c,65d2b9587c0ea4d16a30e578,0.0285,0.0285,0,72,72,21,1,threefour,,,,,,,,,,,,,,,,,,,,,,,,,,,,,,,,,,,,,,,,,,,,,,,,,,,,,,,,,,,,,,,,,,,,,,,,,,,,,,,,,,,,,,,,,,,,,,,,,,,,,,,,,,,,,,,,,,,,,,,,,,,,,,,,,,,,,,,,,
,,646b6c82f2828954c3456fb2,2024-02-19_03h14.03.784,kallum_motion_pilot,2023.2.2,Win32,60.24096386,646b6c82f2828954c3456fb2,65d2b6c8f2eece985d8e374c,65d2b9587c0ea4d16a30e578,0.0286,0.0286,0,73,73,53,1,threefour,,,,,,,,,,,,,,,,,,,,,,,,,,,,,,,,,,,,,,,,,,,,,,,,,,,,,,,,,,,,,,,,,,,,,,,,,,,,,,,,,,,,,,,,,,,,,,,,,,,,,,,,,,,,,,,,,,,,,,,,,,,,,,,,,,,,,,,,,
,,646b6c82f2828954c3456fb2,2024-02-19_03h14.03.784,kallum_motion_pilot,2023.2.2,Win32,60.24096386,646b6c82f2828954c3456fb2,65d2b6c8f2eece985d8e374c,65d2b9587c0ea4d16a30e578,0.0287,0.0288,0,74,74,40,1,onetwo,,,,,,,,,,,,,,,,,,,,,,,,,,,,,,,,,,,,,,,,,,,,,,,,,,,,,,,,,,,,,,,,,,,,,,,,,,,,,,,,,,,,,,,,,,,,,,,,,,,,,,,,,,,,,,,,,,,,,,,,,,,,,,,,,,,,,,,,,
,,646b6c82f2828954c3456fb2,2024-02-19_03h14.03.784,kallum_motion_pilot,2023.2.2,Win32,60.24096386,646b6c82f2828954c3456fb2,65d2b6c8f2eece985d8e374c,65d2b9587c0ea4d16a30e578,0.0288,0.0289,0,75,75,88,1,fivesix,,,,,,,,,,,,,,,,,,,,,,,,,,,,,,,,,,,,,,,,,,,,,,,,,,,,,,,,,,,,,,,,,,,,,,,,,,,,,,,,,,,,,,,,,,,,,,,,,,,,,,,,,,,,,,,,,,,,,,,,,,,,,,,,,,,,,,,,,
,,646b6c82f2828954c3456fb2,2024-02-19_03h14.03.784,kallum_motion_pilot,2023.2.2,Win32,60.24096386,646b6c82f2828954c3456fb2,65d2b6c8f2eece985d8e374c,65d2b9587c0ea4d16a30e578,0.0289,0.0289,0,76,76,137,1,fiveseven,,,,,,,,,,,,,,,,,,,,,,,,,,,,,,,,,,,,,,,,,,,,,,,,,,,,,,,,,,,,,,,,,,,,,,,,,,,,,,,,,,,,,,,,,,,,,,,,,,,,,,,,,,,,,,,,,,,,,,,,,,,,,,,,,,,,,,,,,
,,646b6c82f2828954c3456fb2,2024-02-19_03h14.03.784,kallum_motion_pilot,2023.2.2,Win32,60.24096386,646b6c82f2828954c3456fb2,65d2b6c8f2eece985d8e374c,65d2b9587c0ea4d16a30e578,0.0289,0.0291,0,77,77,14,1,fourtwo,,,,,,,,,,,,,,,,,,,,,,,,,,,,,,,,,,,,,,,,,,,,,,,,,,,,,,,,,,,,,,,,,,,,,,,,,,,,,,,,,,,,,,,,,,,,,,,,,,,,,,,,,,,,,,,,,,,,,,,,,,,,,,,,,,,,,,,,,
,,646b6c82f2828954c3456fb2,2024-02-19_03h14.03.784,kallum_motion_pilot,2023.2.2,Win32,60.24096386,646b6c82f2828954c3456fb2,65d2b6c8f2eece985d8e374c,65d2b9587c0ea4d16a30e578,0.0291,0.0291,0,78,78,49,1,onethree,,,,,,,,,,,,,,,,,,,,,,,,,,,,,,,,,,,,,,,,,,,,,,,,,,,,,,,,,,,,,,,,,,,,,,,,,,,,,,,,,,,,,,,,,,,,,,,,,,,,,,,,,,,,,,,,,,,,,,,,,,,,,,,,,,,,,,,,,
,,646b6c82f2828954c3456fb2,2024-02-19_03h14.03.784,kallum_motion_pilot,2023.2.2,Win32,60.24096386,646b6c82f2828954c3456fb2,65d2b6c8f2eece985d8e374c,65d2b9587c0ea4d16a30e578,0.0292,0.0292,0,79,79,8,1,onetwo,,,,,,,,,,,,,,,,,,,,,,,,,,,,,,,,,,,,,,,,,,,,,,,,,,,,,,,,,,,,,,,,,,,,,,,,,,,,,,,,,,,,,,,,,,,,,,,,,,,,,,,,,,,,,,,,,,,,,,,,,,,,,,,,,,,,,,,,,
,,646b6c82f2828954c3456fb2,2024-02-19_03h14.03.784,kallum_motion_pilot,2023.2.2,Win32,60.24096386,646b6c82f2828954c3456fb2,65d2b6c8f2eece985d8e374c,65d2b9587c0ea4d16a30e578,0.0293,0.0293,0,80,80,69,1,threefour,,,,,,,,,,,,,,,,,,,,,,,,,,,,,,,,,,,,,,,,,,,,,,,,,,,,,,,,,,,,,,,,,,,,,,,,,,,,,,,,,,,,,,,,,,,,,,,,,,,,,,,,,,,,,,,,,,,,,,,,,,,,,,,,,,,,,,,,,
,,646b6c82f2828954c3456fb2,2024-02-19_03h14.03.784,kallum_motion_pilot,2023.2.2,Win32,60.24096386,646b6c82f2828954c3456fb2,65d2b6c8f2eece985d8e374c,65d2b9587c0ea4d16a30e578,0.0294,0.0294,0,81,81,115,1,sixeight,,,,,,,,,,,,,,,,,,,,,,,,,,,,,,,,,,,,,,,,,,,,,,,,,,,,,,,,,,,,,,,,,,,,,,,,,,,,,,,,,,,,,,,,,,,,,,,,,,,,,,,,,,,,,,,,,,,,,,,,,,,,,,,,,,,,,,,,,
,,646b6c82f2828954c3456fb2,2024-02-19_03h14.03.784,kallum_motion_pilot,2023.2.2,Win32,60.24096386,646b6c82f2828954c3456fb2,65d2b6c8f2eece985d8e374c,65d2b9587c0ea4d16a30e578,0.0294,0.0294,0,82,82,50,1,twoone,,,,,,,,,,,,,,,,,,,,,,,,,,,,,,,,,,,,,,,,,,,,,,,,,,,,,,,,,,,,,,,,,,,,,,,,,,,,,,,,,,,,,,,,,,,,,,,,,,,,,,,,,,,,,,,,,,,,,,,,,,,,,,,,,,,,,,,,,
,,646b6c82f2828954c3456fb2,2024-02-19_03h14.03.784,kallum_motion_pilot,2023.2.2,Win32,60.24096386,646b6c82f2828954c3456fb2,65d2b6c8f2eece985d8e374c,65d2b9587c0ea4d16a30e578,0.0295,0.0296,0,83,83,0,1,onetwo,,,,,,,,,,,,,,,,,,,,,,,,,,,,,,,,,,,,,,,,,,,,,,,,,,,,,,,,,,,,,,,,,,,,,,,,,,,,,,,,,,,,,,,,,,,,,,,,,,,,,,,,,,,,,,,,,,,,,,,,,,,,,,,,,,,,,,,,,
,,646b6c82f2828954c3456fb2,2024-02-19_03h14.03.784,kallum_motion_pilot,2023.2.2,Win32,60.24096386,646b6c82f2828954c3456fb2,65d2b6c8f2eece985d8e374c,65d2b9587c0ea4d16a30e578,0.0297,0.0297,0,84,84,70,1,fourtwo,,,,,,,,,,,,,,,,,,,,,,,,,,,,,,,,,,,,,,,,,,,,,,,,,,,,,,,,,,,,,,,,,,,,,,,,,,,,,,,,,,,,,,,,,,,,,,,,,,,,,,,,,,,,,,,,,,,,,,,,,,,,,,,,,,,,,,,,,
,,646b6c82f2828954c3456fb2,2024-02-19_03h14.03.784,kallum_motion_pilot,2023.2.2,Win32,60.24096386,646b6c82f2828954c3456fb2,65d2b6c8f2eece985d8e374c,65d2b9587c0ea4d16a30e578,0.0298,0.0298,0,85,85,107,1,sixeight,,,,,,,,,,,,,,,,,,,,,,,,,,,,,,,,,,,,,,,,,,,,,,,,,,,,,,,,,,,,,,,,,,,,,,,,,,,,,,,,,,,,,,,,,,,,,,,,,,,,,,,,,,,,,,,,,,,,,,,,,,,,,,,,,,,,,,,,,
,,646b6c82f2828954c3456fb2,2024-02-19_03h14.03.784,kallum_motion_pilot,2023.2.2,Win32,60.24096386,646b6c82f2828954c3456fb2,65d2b6c8f2eece985d8e374c,65d2b9587c0ea4d16a30e578,0.0299,0.0299,0,86,86,10,1,twoone,,,,,,,,,,,,,,,,,,,,,,,,,,,,,,,,,,,,,,,,,,,,,,,,,,,,,,,,,,,,,,,,,,,,,,,,,,,,,,,,,,,,,,,,,,,,,,,,,,,,,,,,,,,,,,,,,,,,,,,,,,,,,,,,,,,,,,,,,
,,646b6c82f2828954c3456fb2,2024-02-19_03h14.03.784,kallum_motion_pilot,2023.2.2,Win32,60.24096386,646b6c82f2828954c3456fb2,65d2b6c8f2eece985d8e374c,65d2b9587c0ea4d16a30e578,0.03,0.03,0,87,87,52,1,threeone,,,,,,,,,,,,,,,,,,,,,,,,,,,,,,,,,,,,,,,,,,,,,,,,,,,,,,,,,,,,,,,,,,,,,,,,,,,,,,,,,,,,,,,,,,,,,,,,,,,,,,,,,,,,,,,,,,,,,,,,,,,,,,,,,,,,,,,,,
,,646b6c82f2828954c3456fb2,2024-02-19_03h14.03.784,kallum_motion_pilot,2023.2.2,Win32,60.24096386,646b6c82f2828954c3456fb2,65d2b6c8f2eece985d8e374c,65d2b9587c0ea4d16a30e578,0.0301,0.0301,0,88,88,103,1,eightseven,,,,,,,,,,,,,,,,,,,,,,,,,,,,,,,,,,,,,,,,,,,,,,,,,,,,,,,,,,,,,,,,,,,,,,,,,,,,,,,,,,,,,,,,,,,,,,,,,,,,,,,,,,,,,,,,,,,,,,,,,,,,,,,,,,,,,,,,,
,,646b6c82f2828954c3456fb2,2024-02-19_03h14.03.784,kallum_motion_pilot,2023.2.2,Win32,60.24096386,646b6c82f2828954c3456fb2,65d2b6c8f2eece985d8e374c,65d2b9587c0ea4d16a30e578,0.0302,0.0302,0,89,89,5,1,threefour,,,,,,,,,,,,,,,,,,,,,,,,,,,,,,,,,,,,,,,,,,,,,,,,,,,,,,,,,,,,,,,,,,,,,,,,,,,,,,,,,,,,,,,,,,,,,,,,,,,,,,,,,,,,,,,,,,,,,,,,,,,,,,,,,,,,,,,,,
,,646b6c82f2828954c3456fb2,2024-02-19_03h14.03.784,kallum_motion_pilot,2023.2.2,Win32,60.24096386,646b6c82f2828954c3456fb2,65d2b6c8f2eece985d8e374c,65d2b9587c0ea4d16a30e578,0.0302,0.0304,0,90,90,144,1,fivesix,,,,,,,,,,,,,,,,,,,,,,,,,,,,,,,,,,,,,,,,,,,,,,,,,,,,,,,,,,,,,,,,,,,,,,,,,,,,,,,,,,,,,,,,,,,,,,,,,,,,,,,,,,,,,,,,,,,,,,,,,,,,,,,,,,,,,,,,,
,,646b6c82f2828954c3456fb2,2024-02-19_03h14.03.784,kallum_motion_pilot,2023.2.2,Win32,60.24096386,646b6c82f2828954c3456fb2,65d2b6c8f2eece985d8e374c,65d2b9587c0ea4d16a30e578,0.0304,0.0304,0,91,91,132,1,sevenfive,,,,,,,,,,,,,,,,,,,,,,,,,,,,,,,,,,,,,,,,,,,,,,,,,,,,,,,,,,,,,,,,,,,,,,,,,,,,,,,,,,,,,,,,,,,,,,,,,,,,,,,,,,,,,,,,,,,,,,,,,,,,,,,,,,,,,,,,,
,,646b6c82f2828954c3456fb2,2024-02-19_03h14.03.784,kallum_motion_pilot,2023.2.2,Win32,60.24096386,646b6c82f2828954c3456fb2,65d2b6c8f2eece985d8e374c,65d2b9587c0ea4d16a30e578,0.0304,0.0305,0,92,92,84,1,sevenfive,,,,,,,,,,,,,,,,,,,,,,,,,,,,,,,,,,,,,,,,,,,,,,,,,,,,,,,,,,,,,,,,,,,,,,,,,,,,,,,,,,,,,,,,,,,,,,,,,,,,,,,,,,,,,,,,,,,,,,,,,,,,,,,,,,,,,,,,,
,,646b6c82f2828954c3456fb2,2024-02-19_03h14.03.784,kallum_motion_pilot,2023.2.2,Win32,60.24096386,646b6c82f2828954c3456fb2,65d2b6c8f2eece985d8e374c,65d2b9587c0ea4d16a30e578,0.0306,0.0306,0,93,93,30,1,fourtwo,,,,,,,,,,,,,,,,,,,,,,,,,,,,,,,,,,,,,,,,,,,,,,,,,,,,,,,,,,,,,,,,,,,,,,,,,,,,,,,,,,,,,,,,,,,,,,,,,,,,,,,,,,,,,,,,,,,,,,,,,,,,,,,,,,,,,,,,,
,,646b6c82f2828954c3456fb2,2024-02-19_03h14.03.784,kallum_motion_pilot,2023.2.2,Win32,60.24096386,646b6c82f2828954c3456fb2,65d2b6c8f2eece985d8e374c,65d2b9587c0ea4d16a30e578,0.0306,0.0307,0,94,94,37,1,threefour,,,,,,,,,,,,,,,,,,,,,,,,,,,,,,,,,,,,,,,,,,,,,,,,,,,,,,,,,,,,,,,,,,,,,,,,,,,,,,,,,,,,,,,,,,,,,,,,,,,,,,,,,,,,,,,,,,,,,,,,,,,,,,,,,,,,,,,,,
,,646b6c82f2828954c3456fb2,2024-02-19_03h14.03.784,kallum_motion_pilot,2023.2.2,Win32,60.24096386,646b6c82f2828954c3456fb2,65d2b6c8f2eece985d8e374c,65d2b9587c0ea4d16a30e578,0.0307,0.0308,0,95,95,159,1,eightseven,,,,,,,,,,,,,,,,,,,,,,,,,,,,,,,,,,,,,,,,,,,,,,,,,,,,,,,,,,,,,,,,,,,,,,,,,,,,,,,,,,,,,,,,,,,,,,,,,,,,,,,,,,,,,,,,,,,,,,,,,,,,,,,,,,,,,,,,,
,,646b6c82f2828954c3456fb2,2024-02-19_03h14.03.784,kallum_motion_pilot,2023.2.2,Win32,60.24096386,646b6c82f2828954c3456fb2,65d2b6c8f2eece985d8e374c,65d2b9587c0ea4d16a30e578,0.0308,0.0309,0,96,96,67,1,twofour,,,,,,,,,,,,,,,,,,,,,,,,,,,,,,,,,,,,,,,,,,,,,,,,,,,,,,,,,,,,,,,,,,,,,,,,,,,,,,,,,,,,,,,,,,,,,,,,,,,,,,,,,,,,,,,,,,,,,,,,,,,,,,,,,,,,,,,,,
,,646b6c82f2828954c3456fb2,2024-02-19_03h14.03.784,kallum_motion_pilot,2023.2.2,Win32,60.24096386,646b6c82f2828954c3456fb2,65d2b6c8f2eece985d8e374c,65d2b9587c0ea4d16a30e578,0.0309,0.0309,0,97,97,105,1,fiveseven,,,,,,,,,,,,,,,,,,,,,,,,,,,,,,,,,,,,,,,,,,,,,,,,,,,,,,,,,,,,,,,,,,,,,,,,,,,,,,,,,,,,,,,,,,,,,,,,,,,,,,,,,,,,,,,,,,,,,,,,,,,,,,,,,,,,,,,,,
,,646b6c82f2828954c3456fb2,2024-02-19_03h14.03.784,kallum_motion_pilot,2023.2.2,Win32,60.24096386,646b6c82f2828954c3456fb2,65d2b6c8f2eece985d8e374c,65d2b9587c0ea4d16a30e578,0.0311,0.0311,0,98,98,152,1,fivesix,,,,,,,,,,,,,,,,,,,,,,,,,,,,,,,,,,,,,,,,,,,,,,,,,,,,,,,,,,,,,,,,,,,,,,,,,,,,,,,,,,,,,,,,,,,,,,,,,,,,,,,,,,,,,,,,,,,,,,,,,,,,,,,,,,,,,,,,,
,,646b6c82f2828954c3456fb2,2024-02-19_03h14.03.784,kallum_motion_pilot,2023.2.2,Win32,60.24096386,646b6c82f2828954c3456fb2,65d2b6c8f2eece985d8e374c,65d2b9587c0ea4d16a30e578,0.0311,0.0312,0,99,99,26,1,twoone,,,,,,,,,,,,,,,,,,,,,,,,,,,,,,,,,,,,,,,,,,,,,,,,,,,,,,,,,,,,,,,,,,,,,,,,,,,,,,,,,,,,,,,,,,,,,,,,,,,,,,,,,,,,,,,,,,,,,,,,,,,,,,,,,,,,,,,,,
,,646b6c82f2828954c3456fb2,2024-02-19_03h14.03.784,kallum_motion_pilot,2023.2.2,Win32,60.24096386,646b6c82f2828954c3456fb2,65d2b6c8f2eece985d8e374c,65d2b9587c0ea4d16a30e578,0.0312,0.0312,0,100,100,35,1,twofour,,,,,,,,,,,,,,,,,,,,,,,,,,,,,,,,,,,,,,,,,,,,,,,,,,,,,,,,,,,,,,,,,,,,,,,,,,,,,,,,,,,,,,,,,,,,,,,,,,,,,,,,,,,,,,,,,,,,,,,,,,,,,,,,,,,,,,,,,
,,646b6c82f2828954c3456fb2,2024-02-19_03h14.03.784,kallum_motion_pilot,2023.2.2,Win32,60.24096386,646b6c82f2828954c3456fb2,65d2b6c8f2eece985d8e374c,65d2b9587c0ea4d16a30e578,0.0313,0.0314,0,101,101,13,1,threefour,,,,,,,,,,,,,,,,,,,,,,,,,,,,,,,,,,,,,,,,,,,,,,,,,,,,,,,,,,,,,,,,,,,,,,,,,,,,,,,,,,,,,,,,,,,,,,,,,,,,,,,,,,,,,,,,,,,,,,,,,,,,,,,,,,,,,,,,,
,,646b6c82f2828954c3456fb2,2024-02-19_03h14.03.784,kallum_motion_pilot,2023.2.2,Win32,60.24096386,646b6c82f2828954c3456fb2,65d2b6c8f2eece985d8e374c,65d2b9587c0ea4d16a30e578,0.0314,0.0315,0,102,102,156,1,sevenfive,,,,,,,,,,,,,,,,,,,,,,,,,,,,,,,,,,,,,,,,,,,,,,,,,,,,,,,,,,,,,,,,,,,,,,,,,,,,,,,,,,,,,,,,,,,,,,,,,,,,,,,,,,,,,,,,,,,,,,,,,,,,,,,,,,,,,,,,,
,,646b6c82f2828954c3456fb2,2024-02-19_03h14.03.784,kallum_motion_pilot,2023.2.2,Win32,60.24096386,646b6c82f2828954c3456fb2,65d2b6c8f2eece985d8e374c,65d2b9587c0ea4d16a30e578,0.0316,0.0316,0,103,103,82,1,sixfive,,,,,,,,,,,,,,,,,,,,,,,,,,,,,,,,,,,,,,,,,,,,,,,,,,,,,,,,,,,,,,,,,,,,,,,,,,,,,,,,,,,,,,,,,,,,,,,,,,,,,,,,,,,,,,,,,,,,,,,,,,,,,,,,,,,,,,,,,
,,646b6c82f2828954c3456fb2,2024-02-19_03h14.03.784,kallum_motion_pilot,2023.2.2,Win32,60.24096386,646b6c82f2828954c3456fb2,65d2b6c8f2eece985d8e374c,65d2b9587c0ea4d16a30e578,0.0316,0.0317,0,104,104,109,1,seveneight,,,,,,,,,,,,,,,,,,,,,,,,,,,,,,,,,,,,,,,,,,,,,,,,,,,,,,,,,,,,,,,,,,,,,,,,,,,,,,,,,,,,,,,,,,,,,,,,,,,,,,,,,,,,,,,,,,,,,,,,,,,,,,,,,,,,,,,,,
,,646b6c82f2828954c3456fb2,2024-02-19_03h14.03.784,kallum_motion_pilot,2023.2.2,Win32,60.24096386,646b6c82f2828954c3456fb2,65d2b6c8f2eece985d8e374c,65d2b9587c0ea4d16a30e578,0.0317,0.0317,0,105,105,102,1,eightsix,,,,,,,,,,,,,,,,,,,,,,,,,,,,,,,,,,,,,,,,,,,,,,,,,,,,,,,,,,,,,,,,,,,,,,,,,,,,,,,,,,,,,,,,,,,,,,,,,,,,,,,,,,,,,,,,,,,,,,,,,,,,,,,,,,,,,,,,,
,,646b6c82f2828954c3456fb2,2024-02-19_03h14.03.784,kallum_motion_pilot,2023.2.2,Win32,60.24096386,646b6c82f2828954c3456fb2,65d2b6c8f2eece985d8e374c,65d2b9587c0ea4d16a30e578,0.0318,0.0319,0,106,106,90,1,sixfive,,,,,,,,,,,,,,,,,,,,,,,,,,,,,,,,,,,,,,,,,,,,,,,,,,,,,,,,,,,,,,,,,,,,,,,,,,,,,,,,,,,,,,,,,,,,,,,,,,,,,,,,,,,,,,,,,,,,,,,,,,,,,,,,,,,,,,,,,
,,646b6c82f2828954c3456fb2,2024-02-19_03h14.03.784,kallum_motion_pilot,2023.2.2,Win32,60.24096386,646b6c82f2828954c3456fb2,65d2b6c8f2eece985d8e374c,65d2b9587c0ea4d16a30e578,0.0319,0.0319,0,107,107,85,1,seveneight,,,,,,,,,,,,,,,,,,,,,,,,,,,,,,,,,,,,,,,,,,,,,,,,,,,,,,,,,,,,,,,,,,,,,,,,,,,,,,,,,,,,,,,,,,,,,,,,,,,,,,,,,,,,,,,,,,,,,,,,,,,,,,,,,,,,,,,,,
,,646b6c82f2828954c3456fb2,2024-02-19_03h14.03.784,kallum_motion_pilot,2023.2.2,Win32,60.24096386,646b6c82f2828954c3456fb2,65d2b6c8f2eece985d8e374c,65d2b9587c0ea4d16a30e578,0.0321,0.0322,0,108,108,20,1,threeone,,,,,,,,,,,,,,,,,,,,,,,,,,,,,,,,,,,,,,,,,,,,,,,,,,,,,,,,,,,,,,,,,,,,,,,,,,,,,,,,,,,,,,,,,,,,,,,,,,,,,,,,,,,,,,,,,,,,,,,,,,,,,,,,,,,,,,,,,
,,646b6c82f2828954c3456fb2,2024-02-19_03h14.03.784,kallum_motion_pilot,2023.2.2,Win32,60.24096386,646b6c82f2828954c3456fb2,65d2b6c8f2eece985d8e374c,65d2b9587c0ea4d16a30e578,0.0323,0.0323,0,109,109,153,1,fiveseven,,,,,,,,,,,,,,,,,,,,,,,,,,,,,,,,,,,,,,,,,,,,,,,,,,,,,,,,,,,,,,,,,,,,,,,,,,,,,,,,,,,,,,,,,,,,,,,,,,,,,,,,,,,,,,,,,,,,,,,,,,,,,,,,,,,,,,,,,
,,646b6c82f2828954c3456fb2,2024-02-19_03h14.03.784,kallum_motion_pilot,2023.2.2,Win32,60.24096386,646b6c82f2828954c3456fb2,65d2b6c8f2eece985d8e374c,65d2b9587c0ea4d16a30e578,0.0324,0.0324,0,110,110,91,1,sixeight,,,,,,,,,,,,,,,,,,,,,,,,,,,,,,,,,,,,,,,,,,,,,,,,,,,,,,,,,,,,,,,,,,,,,,,,,,,,,,,,,,,,,,,,,,,,,,,,,,,,,,,,,,,,,,,,,,,,,,,,,,,,,,,,,,,,,,,,,
,,646b6c82f2828954c3456fb2,2024-02-19_03h14.03.784,kallum_motion_pilot,2023.2.2,Win32,60.24096386,646b6c82f2828954c3456fb2,65d2b6c8f2eece985d8e374c,65d2b9587c0ea4d16a30e578,0.0325,0.0325,0,111,111,29,1,threefour,,,,,,,,,,,,,,,,,,,,,,,,,,,,,,,,,,,,,,,,,,,,,,,,,,,,,,,,,,,,,,,,,,,,,,,,,,,,,,,,,,,,,,,,,,,,,,,,,,,,,,,,,,,,,,,,,,,,,,,,,,,,,,,,,,,,,,,,,
,,646b6c82f2828954c3456fb2,2024-02-19_03h14.03.784,kallum_motion_pilot,2023.2.2,Win32,60.24096386,646b6c82f2828954c3456fb2,65d2b6c8f2eece985d8e374c,65d2b9587c0ea4d16a30e578,0.0326,0.0327,0,112,112,112,1,fivesix,,,,,,,,,,,,,,,,,,,,,,,,,,,,,,,,,,,,,,,,,,,,,,,,,,,,,,,,,,,,,,,,,,,,,,,,,,,,,,,,,,,,,,,,,,,,,,,,,,,,,,,,,,,,,,,,,,,,,,,,,,,,,,,,,,,,,,,,,
,,646b6c82f2828954c3456fb2,2024-02-19_03h14.03.784,kallum_motion_pilot,2023.2.2,Win32,60.24096386,646b6c82f2828954c3456fb2,65d2b6c8f2eece985d8e374c,65d2b9587c0ea4d16a30e578,0.0327,0.0327,0,113,113,92,1,sevenfive,,,,,,,,,,,,,,,,,,,,,,,,,,,,,,,,,,,,,,,,,,,,,,,,,,,,,,,,,,,,,,,,,,,,,,,,,,,,,,,,,,,,,,,,,,,,,,,,,,,,,,,,,,,,,,,,,,,,,,,,,,,,,,,,,,,,,,,,,
,,646b6c82f2828954c3456fb2,2024-02-19_03h14.03.784,kallum_motion_pilot,2023.2.2,Win32,60.24096386,646b6c82f2828954c3456fb2,65d2b6c8f2eece985d8e374c,65d2b9587c0ea4d16a30e578,0.0327,0.0328,0,114,114,41,1,onethree,,,,,,,,,,,,,,,,,,,,,,,,,,,,,,,,,,,,,,,,,,,,,,,,,,,,,,,,,,,,,,,,,,,,,,,,,,,,,,,,,,,,,,,,,,,,,,,,,,,,,,,,,,,,,,,,,,,,,,,,,,,,,,,,,,,,,,,,,
,,646b6c82f2828954c3456fb2,2024-02-19_03h14.03.784,kallum_motion_pilot,2023.2.2,Win32,60.24096386,646b6c82f2828954c3456fb2,65d2b6c8f2eece985d8e374c,65d2b9587c0ea4d16a30e578,0.0328,0.033,0,115,115,145,1,fiveseven,,,,,,,,,,,,,,,,,,,,,,,,,,,,,,,,,,,,,,,,,,,,,,,,,,,,,,,,,,,,,,,,,,,,,,,,,,,,,,,,,,,,,,,,,,,,,,,,,,,,,,,,,,,,,,,,,,,,,,,,,,,,,,,,,,,,,,,,,
,,646b6c82f2828954c3456fb2,2024-02-19_03h14.03.784,kallum_motion_pilot,2023.2.2,Win32,60.24096386,646b6c82f2828954c3456fb2,65d2b6c8f2eece985d8e374c,65d2b9587c0ea4d16a30e578,0.033,0.033,0,116,116,12,1,threeone,,,,,,,,,,,,,,,,,,,,,,,,,,,,,,,,,,,,,,,,,,,,,,,,,,,,,,,,,,,,,,,,,,,,,,,,,,,,,,,,,,,,,,,,,,,,,,,,,,,,,,,,,,,,,,,,,,,,,,,,,,,,,,,,,,,,,,,,,
,,646b6c82f2828954c3456fb2,2024-02-19_03h14.03.784,kallum_motion_pilot,2023.2.2,Win32,60.24096386,646b6c82f2828954c3456fb2,65d2b6c8f2eece985d8e374c,65d2b9587c0ea4d16a30e578,0.0331,0.0331,0,117,117,79,1,eightseven,,,,,,,,,,,,,,,,,,,,,,,,,,,,,,,,,,,,,,,,,,,,,,,,,,,,,,,,,,,,,,,,,,,,,,,,,,,,,,,,,,,,,,,,,,,,,,,,,,,,,,,,,,,,,,,,,,,,,,,,,,,,,,,,,,,,,,,,,
,,646b6c82f2828954c3456fb2,2024-02-19_03h14.03.784,kallum_motion_pilot,2023.2.2,Win32,60.24096386,646b6c82f2828954c3456fb2,65d2b6c8f2eece985d8e374c,65d2b9587c0ea4d16a30e578,0.0331,0.0332,0,118,118,99,1,sixeight,,,,,,,,,,,,,,,,,,,,,,,,,,,,,,,,,,,,,,,,,,,,,,,,,,,,,,,,,,,,,,,,,,,,,,,,,,,,,,,,,,,,,,,,,,,,,,,,,,,,,,,,,,,,,,,,,,,,,,,,,,,,,,,,,,,,,,,,,
,,646b6c82f2828954c3456fb2,2024-02-19_03h14.03.784,kallum_motion_pilot,2023.2.2,Win32,60.24096386,646b6c82f2828954c3456fb2,65d2b6c8f2eece985d8e374c,65d2b9587c0ea4d16a30e578,0.0333,0.0333,0,119,119,95,1,eightseven,,,,,,,,,,,,,,,,,,,,,,,,,,,,,,,,,,,,,,,,,,,,,,,,,,,,,,,,,,,,,,,,,,,,,,,,,,,,,,,,,,,,,,,,,,,,,,,,,,,,,,,,,,,,,,,,,,,,,,,,,,,,,,,,,,,,,,,,,
,,646b6c82f2828954c3456fb2,2024-02-19_03h14.03.784,kallum_motion_pilot,2023.2.2,Win32,60.24096386,646b6c82f2828954c3456fb2,65d2b6c8f2eece985d8e374c,65d2b9587c0ea4d16a30e578,0.0333,0.0334,0,120,120,45,1,threefour,,,,,,,,,,,,,,,,,,,,,,,,,,,,,,,,,,,,,,,,,,,,,,,,,,,,,,,,,,,,,,,,,,,,,,,,,,,,,,,,,,,,,,,,,,,,,,,,,,,,,,,,,,,,,,,,,,,,,,,,,,,,,,,,,,,,,,,,,
,,646b6c82f2828954c3456fb2,2024-02-19_03h14.03.784,kallum_motion_pilot,2023.2.2,Win32,60.24096386,646b6c82f2828954c3456fb2,65d2b6c8f2eece985d8e374c,65d2b9587c0ea4d16a30e578,0.0334,0.0335,0,121,121,135,1,eightseven,,,,,,,,,,,,,,,,,,,,,,,,,,,,,,,,,,,,,,,,,,,,,,,,,,,,,,,,,,,,,,,,,,,,,,,,,,,,,,,,,,,,,,,,,,,,,,,,,,,,,,,,,,,,,,,,,,,,,,,,,,,,,,,,,,,,,,,,,
,,646b6c82f2828954c3456fb2,2024-02-19_03h14.03.784,kallum_motion_pilot,2023.2.2,Win32,60.24096386,646b6c82f2828954c3456fb2,65d2b6c8f2eece985d8e374c,65d2b9587c0ea4d16a30e578,0.0336,0.0336,0,122,122,108,1,sevenfive,,,,,,,,,,,,,,,,,,,,,,,,,,,,,,,,,,,,,,,,,,,,,,,,,,,,,,,,,,,,,,,,,,,,,,,,,,,,,,,,,,,,,,,,,,,,,,,,,,,,,,,,,,,,,,,,,,,,,,,,,,,,,,,,,,,,,,,,,
,,646b6c82f2828954c3456fb2,2024-02-19_03h14.03.784,kallum_motion_pilot,2023.2.2,Win32,60.24096386,646b6c82f2828954c3456fb2,65d2b6c8f2eece985d8e374c,65d2b9587c0ea4d16a30e578,0.0337,0.0337,0,123,123,158,1,eightsix,,,,,,,,,,,,,,,,,,,,,,,,,,,,,,,,,,,,,,,,,,,,,,,,,,,,,,,,,,,,,,,,,,,,,,,,,,,,,,,,,,,,,,,,,,,,,,,,,,,,,,,,,,,,,,,,,,,,,,,,,,,,,,,,,,,,,,,,,
,,646b6c82f2828954c3456fb2,2024-02-19_03h14.03.784,kallum_motion_pilot,2023.2.2,Win32,60.24096386,646b6c82f2828954c3456fb2,65d2b6c8f2eece985d8e374c,65d2b9587c0ea4d16a30e578,0.0338,0.0338,0,124,124,32,1,onetwo,,,,,,,,,,,,,,,,,,,,,,,,,,,,,,,,,,,,,,,,,,,,,,,,,,,,,,,,,,,,,,,,,,,,,,,,,,,,,,,,,,,,,,,,,,,,,,,,,,,,,,,,,,,,,,,,,,,,,,,,,,,,,,,,,,,,,,,,,
,,646b6c82f2828954c3456fb2,2024-02-19_03h14.03.784,kallum_motion_pilot,2023.2.2,Win32,60.24096386,646b6c82f2828954c3456fb2,65d2b6c8f2eece985d8e374c,65d2b9587c0ea4d16a30e578,0.0338,0.0339,0,125,125,23,1,fourthree,,,,,,,,,,,,,,,,,,,,,,,,,,,,,,,,,,,,,,,,,,,,,,,,,,,,,,,,,,,,,,,,,,,,,,,,,,,,,,,,,,,,,,,,,,,,,,,,,,,,,,,,,,,,,,,,,,,,,,,,,,,,,,,,,,,,,,,,,
,,646b6c82f2828954c3456fb2,2024-02-19_03h14.03.784,kallum_motion_pilot,2023.2.2,Win32,60.24096386,646b6c82f2828954c3456fb2,65d2b6c8f2eece985d8e374c,65d2b9587c0ea4d16a30e578,0.034,0.0341,0,126,126,128,1,fivesix,,,,,,,,,,,,,,,,,,,,,,,,,,,,,,,,,,,,,,,,,,,,,,,,,,,,,,,,,,,,,,,,,,,,,,,,,,,,,,,,,,,,,,,,,,,,,,,,,,,,,,,,,,,,,,,,,,,,,,,,,,,,,,,,,,,,,,,,,
,,646b6c82f2828954c3456fb2,2024-02-19_03h14.03.784,kallum_motion_pilot,2023.2.2,Win32,60.24096386,646b6c82f2828954c3456fb2,65d2b6c8f2eece985d8e374c,65d2b9587c0ea4d16a30e578,0.0342,0.0342,0,127,127,141,1,seveneight,,,,,,,,,,,,,,,,,,,,,,,,,,,,,,,,,,,,,,,,,,,,,,,,,,,,,,,,,,,,,,,,,,,,,,,,,,,,,,,,,,,,,,,,,,,,,,,,,,,,,,,,,,,,,,,,,,,,,,,,,,,,,,,,,,,,,,,,,
,,646b6c82f2828954c3456fb2,2024-02-19_03h14.03.784,kallum_motion_pilot,2023.2.2,Win32,60.24096386,646b6c82f2828954c3456fb2,65d2b6c8f2eece985d8e374c,65d2b9587c0ea4d16a30e578,0.0342,0.0342,0,128,128,74,1,twoone,,,,,,,,,,,,,,,,,,,,,,,,,,,,,,,,,,,,,,,,,,,,,,,,,,,,,,,,,,,,,,,,,,,,,,,,,,,,,,,,,,,,,,,,,,,,,,,,,,,,,,,,,,,,,,,,,,,,,,,,,,,,,,,,,,,,,,,,,
,,646b6c82f2828954c3456fb2,2024-02-19_03h14.03.784,kallum_motion_pilot,2023.2.2,Win32,60.24096386,646b6c82f2828954c3456fb2,65d2b6c8f2eece985d8e374c,65d2b9587c0ea4d16a30e578,0.0344,0.0344,0,129,129,43,1,twofour,,,,,,,,,,,,,,,,,,,,,,,,,,,,,,,,,,,,,,,,,,,,,,,,,,,,,,,,,,,,,,,,,,,,,,,,,,,,,,,,,,,,,,,,,,,,,,,,,,,,,,,,,,,,,,,,,,,,,,,,,,,,,,,,,,,,,,,,,
,,646b6c82f2828954c3456fb2,2024-02-19_03h14.03.784,kallum_motion_pilot,2023.2.2,Win32,60.24096386,646b6c82f2828954c3456fb2,65d2b6c8f2eece985d8e374c,65d2b9587c0ea4d16a30e578,0.0345,0.0345,0,130,130,111,1,eightseven,,,,,,,,,,,,,,,,,,,,,,,,,,,,,,,,,,,,,,,,,,,,,,,,,,,,,,,,,,,,,,,,,,,,,,,,,,,,,,,,,,,,,,,,,,,,,,,,,,,,,,,,,,,,,,,,,,,,,,,,,,,,,,,,,,,,,,,,,
,,646b6c82f2828954c3456fb2,2024-02-19_03h14.03.784,kallum_motion_pilot,2023.2.2,Win32,60.24096386,646b6c82f2828954c3456fb2,65d2b6c8f2eece985d8e374c,65d2b9587c0ea4d16a30e578,0.0346,0.0346,0,131,131,139,1,sixeight,,,,,,,,,,,,,,,,,,,,,,,,,,,,,,,,,,,,,,,,,,,,,,,,,,,,,,,,,,,,,,,,,,,,,,,,,,,,,,,,,,,,,,,,,,,,,,,,,,,,,,,,,,,,,,,,,,,,,,,,,,,,,,,,,,,,,,,,,
,,646b6c82f2828954c3456fb2,2024-02-19_03h14.03.784,kallum_motion_pilot,2023.2.2,Win32,60.24096386,646b6c82f2828954c3456fb2,65d2b6c8f2eece985d8e374c,65d2b9587c0ea4d16a30e578,0.0347,0.0347,0,132,132,80,1,fivesix,,,,,,,,,,,,,,,,,,,,,,,,,,,,,,,,,,,,,,,,,,,,,,,,,,,,,,,,,,,,,,,,,,,,,,,,,,,,,,,,,,,,,,,,,,,,,,,,,,,,,,,,,,,,,,,,,,,,,,,,,,,,,,,,,,,,,,,,,
,,646b6c82f2828954c3456fb2,2024-02-19_03h14.03.784,kallum_motion_pilot,2023.2.2,Win32,60.24096386,646b6c82f2828954c3456fb2,65d2b6c8f2eece985d8e374c,65d2b9587c0ea4d16a30e578,0.0348,0.0348,0,133,133,73,1,onethree,,,,,,,,,,,,,,,,,,,,,,,,,,,,,,,,,,,,,,,,,,,,,,,,,,,,,,,,,,,,,,,,,,,,,,,,,,,,,,,,,,,,,,,,,,,,,,,,,,,,,,,,,,,,,,,,,,,,,,,,,,,,,,,,,,,,,,,,,
,,646b6c82f2828954c3456fb2,2024-02-19_03h14.03.784,kallum_motion_pilot,2023.2.2,Win32,60.24096386,646b6c82f2828954c3456fb2,65d2b6c8f2eece985d8e374c,65d2b9587c0ea4d16a30e578,0.0349,0.0349,0,134,134,143,1,eightseven,,,,,,,,,,,,,,,,,,,,,,,,,,,,,,,,,,,,,,,,,,,,,,,,,,,,,,,,,,,,,,,,,,,,,,,,,,,,,,,,,,,,,,,,,,,,,,,,,,,,,,,,,,,,,,,,,,,,,,,,,,,,,,,,,,,,,,,,,
,,646b6c82f2828954c3456fb2,2024-02-19_03h14.03.784,kallum_motion_pilot,2023.2.2,Win32,60.24096386,646b6c82f2828954c3456fb2,65d2b6c8f2eece985d8e374c,65d2b9587c0ea4d16a30e578,0.035,0.035,0,135,135,16,1,onetwo,,,,,,,,,,,,,,,,,,,,,,,,,,,,,,,,,,,,,,,,,,,,,,,,,,,,,,,,,,,,,,,,,,,,,,,,,,,,,,,,,,,,,,,,,,,,,,,,,,,,,,,,,,,,,,,,,,,,,,,,,,,,,,,,,,,,,,,,,
,,646b6c82f2828954c3456fb2,2024-02-19_03h14.03.784,kallum_motion_pilot,2023.2.2,Win32,60.24096386,646b6c82f2828954c3456fb2,65d2b6c8f2eece985d8e374c,65d2b9587c0ea4d16a30e578,0.035,0.0351,0,136,136,27,1,twofour,,,,,,,,,,,,,,,,,,,,,,,,,,,,,,,,,,,,,,,,,,,,,,,,,,,,,,,,,,,,,,,,,,,,,,,,,,,,,,,,,,,,,,,,,,,,,,,,,,,,,,,,,,,,,,,,,,,,,,,,,,,,,,,,,,,,,,,,,
,,646b6c82f2828954c3456fb2,2024-02-19_03h14.03.784,kallum_motion_pilot,2023.2.2,Win32,60.24096386,646b6c82f2828954c3456fb2,65d2b6c8f2eece985d8e374c,65d2b9587c0ea4d16a30e578,0.0352,0.0352,0,137,137,140,1,sevenfive,,,,,,,,,,,,,,,,,,,,,,,,,,,,,,,,,,,,,,,,,,,,,,,,,,,,,,,,,,,,,,,,,,,,,,,,,,,,,,,,,,,,,,,,,,,,,,,,,,,,,,,,,,,,,,,,,,,,,,,,,,,,,,,,,,,,,,,,,
,,646b6c82f2828954c3456fb2,2024-02-19_03h14.03.784,kallum_motion_pilot,2023.2.2,Win32,60.24096386,646b6c82f2828954c3456fb2,65d2b6c8f2eece985d8e374c,65d2b9587c0ea4d16a30e578,0.0353,0.0353,0,138,138,66,1,twoone,,,,,,,,,,,,,,,,,,,,,,,,,,,,,,,,,,,,,,,,,,,,,,,,,,,,,,,,,,,,,,,,,,,,,,,,,,,,,,,,,,,,,,,,,,,,,,,,,,,,,,,,,,,,,,,,,,,,,,,,,,,,,,,,,,,,,,,,,
,,646b6c82f2828954c3456fb2,2024-02-19_03h14.03.784,kallum_motion_pilot,2023.2.2,Win32,60.24096386,646b6c82f2828954c3456fb2,65d2b6c8f2eece985d8e374c,65d2b9587c0ea4d16a30e578,0.0354,0.0354,0,139,139,134,1,eightsix,,,,,,,,,,,,,,,,,,,,,,,,,,,,,,,,,,,,,,,,,,,,,,,,,,,,,,,,,,,,,,,,,,,,,,,,,,,,,,,,,,,,,,,,,,,,,,,,,,,,,,,,,,,,,,,,,,,,,,,,,,,,,,,,,,,,,,,,,
,,646b6c82f2828954c3456fb2,2024-02-19_03h14.03.784,kallum_motion_pilot,2023.2.2,Win32,60.24096386,646b6c82f2828954c3456fb2,65d2b6c8f2eece985d8e374c,65d2b9587c0ea4d16a30e578,0.0355,0.0355,0,140,140,51,1,twofour,,,,,,,,,,,,,,,,,,,,,,,,,,,,,,,,,,,,,,,,,,,,,,,,,,,,,,,,,,,,,,,,,,,,,,,,,,,,,,,,,,,,,,,,,,,,,,,,,,,,,,,,,,,,,,,,,,,,,,,,,,,,,,,,,,,,,,,,,
,,646b6c82f2828954c3456fb2,2024-02-19_03h14.03.784,kallum_motion_pilot,2023.2.2,Win32,60.24096386,646b6c82f2828954c3456fb2,65d2b6c8f2eece985d8e374c,65d2b9587c0ea4d16a30e578,0.0356,0.0356,0,141,141,4,1,threeone,,,,,,,,,,,,,,,,,,,,,,,,,,,,,,,,,,,,,,,,,,,,,,,,,,,,,,,,,,,,,,,,,,,,,,,,,,,,,,,,,,,,,,,,,,,,,,,,,,,,,,,,,,,,,,,,,,,,,,,,,,,,,,,,,,,,,,,,,
,,646b6c82f2828954c3456fb2,2024-02-19_03h14.03.784,kallum_motion_pilot,2023.2.2,Win32,60.24096386,646b6c82f2828954c3456fb2,65d2b6c8f2eece985d8e374c,65d2b9587c0ea4d16a30e578,0.0357,0.0358,0,142,142,77,1,threefour,,,,,,,,,,,,,,,,,,,,,,,,,,,,,,,,,,,,,,,,,,,,,,,,,,,,,,,,,,,,,,,,,,,,,,,,,,,,,,,,,,,,,,,,,,,,,,,,,,,,,,,,,,,,,,,,,,,,,,,,,,,,,,,,,,,,,,,,,
,,646b6c82f2828954c3456fb2,2024-02-19_03h14.03.784,kallum_motion_pilot,2023.2.2,Win32,60.24096386,646b6c82f2828954c3456fb2,65d2b6c8f2eece985d8e374c,65d2b9587c0ea4d16a30e578,0.0358,0.0359,0,143,143,76,1,threeone,,,,,,,,,,,,,,,,,,,,,,,,,,,,,,,,,,,,,,,,,,,,,,,,,,,,,,,,,,,,,,,,,,,,,,,,,,,,,,,,,,,,,,,,,,,,,,,,,,,,,,,,,,,,,,,,,,,,,,,,,,,,,,,,,,,,,,,,,
,,646b6c82f2828954c3456fb2,2024-02-19_03h14.03.784,kallum_motion_pilot,2023.2.2,Win32,60.24096386,646b6c82f2828954c3456fb2,65d2b6c8f2eece985d8e374c,65d2b9587c0ea4d16a30e578,0.0359,0.036,0,144,144,48,1,onetwo,,,,,,,,,,,,,,,,,,,,,,,,,,,,,,,,,,,,,,,,,,,,,,,,,,,,,,,,,,,,,,,,,,,,,,,,,,,,,,,,,,,,,,,,,,,,,,,,,,,,,,,,,,,,,,,,,,,,,,,,,,,,,,,,,,,,,,,,,
,,646b6c82f2828954c3456fb2,2024-02-19_03h14.03.784,kallum_motion_pilot,2023.2.2,Win32,60.24096386,646b6c82f2828954c3456fb2,65d2b6c8f2eece985d8e374c,65d2b9587c0ea4d16a30e578,0.0361,0.0361,0,145,145,65,1,onethree,,,,,,,,,,,,,,,,,,,,,,,,,,,,,,,,,,,,,,,,,,,,,,,,,,,,,,,,,,,,,,,,,,,,,,,,,,,,,,,,,,,,,,,,,,,,,,,,,,,,,,,,,,,,,,,,,,,,,,,,,,,,,,,,,,,,,,,,,
,,646b6c82f2828954c3456fb2,2024-02-19_03h14.03.784,kallum_motion_pilot,2023.2.2,Win32,60.24096386,646b6c82f2828954c3456fb2,65d2b6c8f2eece985d8e374c,65d2b9587c0ea4d16a30e578,0.0361,0.0362,0,146,146,63,1,fourthree,,,,,,,,,,,,,,,,,,,,,,,,,,,,,,,,,,,,,,,,,,,,,,,,,,,,,,,,,,,,,,,,,,,,,,,,,,,,,,,,,,,,,,,,,,,,,,,,,,,,,,,,,,,,,,,,,,,,,,,,,,,,,,,,,,,,,,,,,
,,646b6c82f2828954c3456fb2,2024-02-19_03h14.03.784,kallum_motion_pilot,2023.2.2,Win32,60.24096386,646b6c82f2828954c3456fb2,65d2b6c8f2eece985d8e374c,65d2b9587c0ea4d16a30e578,0.0363,0.0363,0,147,147,119,1,eightseven,,,,,,,,,,,,,,,,,,,,,,,,,,,,,,,,,,,,,,,,,,,,,,,,,,,,,,,,,,,,,,,,,,,,,,,,,,,,,,,,,,,,,,,,,,,,,,,,,,,,,,,,,,,,,,,,,,,,,,,,,,,,,,,,,,,,,,,,,
,,646b6c82f2828954c3456fb2,2024-02-19_03h14.03.784,kallum_motion_pilot,2023.2.2,Win32,60.24096386,646b6c82f2828954c3456fb2,65d2b6c8f2eece985d8e374c,65d2b9587c0ea4d16a30e578,0.0363,0.0364,0,148,148,122,1,sixfive,,,,,,,,,,,,,,,,,,,,,,,,,,,,,,,,,,,,,,,,,,,,,,,,,,,,,,,,,,,,,,,,,,,,,,,,,,,,,,,,,,,,,,,,,,,,,,,,,,,,,,,,,,,,,,,,,,,,,,,,,,,,,,,,,,,,,,,,,
,,646b6c82f2828954c3456fb2,2024-02-19_03h14.03.784,kallum_motion_pilot,2023.2.2,Win32,60.24096386,646b6c82f2828954c3456fb2,65d2b6c8f2eece985d8e374c,65d2b9587c0ea4d16a30e578,0.0365,0.0365,0,149,149,116,1,sevenfive,,,,,,,,,,,,,,,,,,,,,,,,,,,,,,,,,,,,,,,,,,,,,,,,,,,,,,,,,,,,,,,,,,,,,,,,,,,,,,,,,,,,,,,,,,,,,,,,,,,,,,,,,,,,,,,,,,,,,,,,,,,,,,,,,,,,,,,,,
,,646b6c82f2828954c3456fb2,2024-02-19_03h14.03.784,kallum_motion_pilot,2023.2.2,Win32,60.24096386,646b6c82f2828954c3456fb2,65d2b6c8f2eece985d8e374c,65d2b9587c0ea4d16a30e578,0.0366,0.0366,0,150,150,17,1,onethree,,,,,,,,,,,,,,,,,,,,,,,,,,,,,,,,,,,,,,,,,,,,,,,,,,,,,,,,,,,,,,,,,,,,,,,,,,,,,,,,,,,,,,,,,,,,,,,,,,,,,,,,,,,,,,,,,,,,,,,,,,,,,,,,,,,,,,,,,
,,646b6c82f2828954c3456fb2,2024-02-19_03h14.03.784,kallum_motion_pilot,2023.2.2,Win32,60.24096386,646b6c82f2828954c3456fb2,65d2b6c8f2eece985d8e374c,65d2b9587c0ea4d16a30e578,0.0367,0.0368,0,151,151,133,1,seveneight,,,,,,,,,,,,,,,,,,,,,,,,,,,,,,,,,,,,,,,,,,,,,,,,,,,,,,,,,,,,,,,,,,,,,,,,,,,,,,,,,,,,,,,,,,,,,,,,,,,,,,,,,,,,,,,,,,,,,,,,,,,,,,,,,,,,,,,,,
,,646b6c82f2828954c3456fb2,2024-02-19_03h14.03.784,kallum_motion_pilot,2023.2.2,Win32,60.24096386,646b6c82f2828954c3456fb2,65d2b6c8f2eece985d8e374c,65d2b9587c0ea4d16a30e578,0.0368,0.0368,0,152,152,155,1,sixeight,,,,,,,,,,,,,,,,,,,,,,,,,,,,,,,,,,,,,,,,,,,,,,,,,,,,,,,,,,,,,,,,,,,,,,,,,,,,,,,,,,,,,,,,,,,,,,,,,,,,,,,,,,,,,,,,,,,,,,,,,,,,,,,,,,,,,,,,,
,,646b6c82f2828954c3456fb2,2024-02-19_03h14.03.784,kallum_motion_pilot,2023.2.2,Win32,60.24096386,646b6c82f2828954c3456fb2,65d2b6c8f2eece985d8e374c,65d2b9587c0ea4d16a30e578,0.0368,0.037,0,153,153,96,1,fivesix,,,,,,,,,,,,,,,,,,,,,,,,,,,,,,,,,,,,,,,,,,,,,,,,,,,,,,,,,,,,,,,,,,,,,,,,,,,,,,,,,,,,,,,,,,,,,,,,,,,,,,,,,,,,,,,,,,,,,,,,,,,,,,,,,,,,,,,,,
,,646b6c82f2828954c3456fb2,2024-02-19_03h14.03.784,kallum_motion_pilot,2023.2.2,Win32,60.24096386,646b6c82f2828954c3456fb2,65d2b6c8f2eece985d8e374c,65d2b9587c0ea4d16a30e578,0.037,0.037,0,154,154,117,1,seveneight,,,,,,,,,,,,,,,,,,,,,,,,,,,,,,,,,,,,,,,,,,,,,,,,,,,,,,,,,,,,,,,,,,,,,,,,,,,,,,,,,,,,,,,,,,,,,,,,,,,,,,,,,,,,,,,,,,,,,,,,,,,,,,,,,,,,,,,,,
,,646b6c82f2828954c3456fb2,2024-02-19_03h14.03.784,kallum_motion_pilot,2023.2.2,Win32,60.24096386,646b6c82f2828954c3456fb2,65d2b6c8f2eece985d8e374c,65d2b9587c0ea4d16a30e578,0.0371,0.0371,0,155,155,97,1,fiveseven,,,,,,,,,,,,,,,,,,,,,,,,,,,,,,,,,,,,,,,,,,,,,,,,,,,,,,,,,,,,,,,,,,,,,,,,,,,,,,,,,,,,,,,,,,,,,,,,,,,,,,,,,,,,,,,,,,,,,,,,,,,,,,,,,,,,,,,,,
,,646b6c82f2828954c3456fb2,2024-02-19_03h14.03.784,kallum_motion_pilot,2023.2.2,Win32,60.24096386,646b6c82f2828954c3456fb2,65d2b6c8f2eece985d8e374c,65d2b9587c0ea4d16a30e578,0.0372,0.0372,0,156,156,24,1,onetwo,,,,,,,,,,,,,,,,,,,,,,,,,,,,,,,,,,,,,,,,,,,,,,,,,,,,,,,,,,,,,,,,,,,,,,,,,,,,,,,,,,,,,,,,,,,,,,,,,,,,,,,,,,,,,,,,,,,,,,,,,,,,,,,,,,,,,,,,,
,,646b6c82f2828954c3456fb2,2024-02-19_03h14.03.784,kallum_motion_pilot,2023.2.2,Win32,60.24096386,646b6c82f2828954c3456fb2,65d2b6c8f2eece985d8e374c,65d2b9587c0ea4d16a30e578,0.0374,0.0374,0,157,157,72,1,onetwo,,,,,,,,,,,,,,,,,,,,,,,,,,,,,,,,,,,,,,,,,,,,,,,,,,,,,,,,,,,,,,,,,,,,,,,,,,,,,,,,,,,,,,,,,,,,,,,,,,,,,,,,,,,,,,,,,,,,,,,,,,,,,,,,,,,,,,,,,
,,646b6c82f2828954c3456fb2,2024-02-19_03h14.03.784,kallum_motion_pilot,2023.2.2,Win32,60.24096386,646b6c82f2828954c3456fb2,65d2b6c8f2eece985d8e374c,65d2b9587c0ea4d16a30e578,0.0374,0.0375,0,158,158,93,1,seveneight,,,,,,,,,,,,,,,,,,,,,,,,,,,,,,,,,,,,,,,,,,,,,,,,,,,,,,,,,,,,,,,,,,,,,,,,,,,,,,,,,,,,,,,,,,,,,,,,,,,,,,,,,,,,,,,,,,,,,,,,,,,,,,,,,,,,,,,,,
,,646b6c82f2828954c3456fb2,2024-02-19_03h14.03.784,kallum_motion_pilot,2023.2.2,Win32,60.24096386,646b6c82f2828954c3456fb2,65d2b6c8f2eece985d8e374c,65d2b9587c0ea4d16a30e578,0.0376,0.0376,0,159,159,154,1,sixfive,,,,,,,,,,,,,,,,,,,,,,,,,,,,,,,,,,,,,,,,,,,,,,,,,,,,,,,,,,,,,,,,,,,,,,,,,,,,,,,,,,,,,,,,,,,,,,,,,,,,,,,,,,,,,,,,,,,,,,,,,,,,,,,,,,,,,,,,,
,,646b6c82f2828954c3456fb2,2024-02-19_03h14.03.784,kallum_motion_pilot,2023.2.2,Win32,60.24096386,646b6c82f2828954c3456fb2,65d2b6c8f2eece985d8e374c,65d2b9587c0ea4d16a30e578,0.0376,0.0377,0,160,160,110,1,eightsix,,,,,,,,,,,,,,,,,,,,,,,,,,,,,,,,,,,,,,,,,,,,,,,,,,,,,,,,,,,,,,,,,,,,,,,,,,,,,,,,,,,,,,,,,,,,,,,,,,,,,,,,,,,,,,,,,,,,,,,,,,,,,,,,,,,,,,,,,
,,646b6c82f2828954c3456fb2,2024-02-19_03h14.03.784,kallum_motion_pilot,2023.2.2,Win32,60.24096386,646b6c82f2828954c3456fb2,65d2b6c8f2eece985d8e374c,65d2b9587c0ea4d16a30e578,0.0378,0.0378,0,161,161,121,1,fiveseven,,,,,,,,,,,,,,,,,,,,,,,,,,,,,,,,,,,,,,,,,,,,,,,,,,,,,,,,,,,,,,,,,,,,,,,,,,,,,,,,,,,,,,,,,,,,,,,,,,,,,,,,,,,,,,,,,,,,,,,,,,,,,,,,,,,,,,,,,
,,646b6c82f2828954c3456fb2,2024-02-19_03h14.03.784,kallum_motion_pilot,2023.2.2,Win32,60.24096386,646b6c82f2828954c3456fb2,65d2b6c8f2eece985d8e374c,65d2b9587c0ea4d16a30e578,0.0379,0.0379,1,0,162,28,1,threeone,,,,,,,,,,,,,,,,,,,,,,,,,,,,,,,,,,,,,,,,,,,,,,,,,,,,,,,,,,,,,,,,,,,,,,,,,,,,,,,,,,,,,,,,,,,,,,,,,,,,,,,,,,,,,,,,,,,,,,,,,,,,,,,,,,,,,,,,,
,,646b6c82f2828954c3456fb2,2024-02-19_03h14.03.784,kallum_motion_pilot,2023.2.2,Win32,60.24096386,646b6c82f2828954c3456fb2,65d2b6c8f2eece985d8e374c,65d2b9587c0ea4d16a30e578,0.038,0.038,1,1,163,13,1,threefour,,,,,,,,,,,,,,,,,,,,,,,,,,,,,,,,,,,,,,,,,,,,,,,,,,,,,,,,,,,,,,,,,,,,,,,,,,,,,,,,,,,,,,,,,,,,,,,,,,,,,,,,,,,,,,,,,,,,,,,,,,,,,,,,,,,,,,,,,
,,646b6c82f2828954c3456fb2,2024-02-19_03h14.03.784,kallum_motion_pilot,2023.2.2,Win32,60.24096386,646b6c82f2828954c3456fb2,65d2b6c8f2eece985d8e374c,65d2b9587c0ea4d16a30e578,0.0381,0.0382,1,2,164,144,1,fivesix,,,,,,,,,,,,,,,,,,,,,,,,,,,,,,,,,,,,,,,,,,,,,,,,,,,,,,,,,,,,,,,,,,,,,,,,,,,,,,,,,,,,,,,,,,,,,,,,,,,,,,,,,,,,,,,,,,,,,,,,,,,,,,,,,,,,,,,,,
,,646b6c82f2828954c3456fb2,2024-02-19_03h14.03.784,kallum_motion_pilot,2023.2.2,Win32,60.24096386,646b6c82f2828954c3456fb2,65d2b6c8f2eece985d8e374c,65d2b9587c0ea4d16a30e578,0.0382,0.0382,1,3,165,149,1,seveneight,,,,,,,,,,,,,,,,,,,,,,,,,,,,,,,,,,,,,,,,,,,,,,,,,,,,,,,,,,,,,,,,,,,,,,,,,,,,,,,,,,,,,,,,,,,,,,,,,,,,,,,,,,,,,,,,,,,,,,,,,,,,,,,,,,,,,,,,,
,,646b6c82f2828954c3456fb2,2024-02-19_03h14.03.784,kallum_motion_pilot,2023.2.2,Win32,60.24096386,646b6c82f2828954c3456fb2,65d2b6c8f2eece985d8e374c,65d2b9587c0ea4d16a30e578,0.0384,0.0384,1,4,166,56,1,onetwo,,,,,,,,,,,,,,,,,,,,,,,,,,,,,,,,,,,,,,,,,,,,,,,,,,,,,,,,,,,,,,,,,,,,,,,,,,,,,,,,,,,,,,,,,,,,,,,,,,,,,,,,,,,,,,,,,,,,,,,,,,,,,,,,,,,,,,,,,
,,646b6c82f2828954c3456fb2,2024-02-19_03h14.03.784,kallum_motion_pilot,2023.2.2,Win32,60.24096386,646b6c82f2828954c3456fb2,65d2b6c8f2eece985d8e374c,65d2b9587c0ea4d16a30e578,0.0384,0.0384,1,5,167,7,1,fourthree,,,,,,,,,,,,,,,,,,,,,,,,,,,,,,,,,,,,,,,,,,,,,,,,,,,,,,,,,,,,,,,,,,,,,,,,,,,,,,,,,,,,,,,,,,,,,,,,,,,,,,,,,,,,,,,,,,,,,,,,,,,,,,,,,,,,,,,,,
,,646b6c82f2828954c3456fb2,2024-02-19_03h14.03.784,kallum_motion_pilot,2023.2.2,Win32,60.24096386,646b6c82f2828954c3456fb2,65d2b6c8f2eece985d8e374c,65d2b9587c0ea4d16a30e578,0.0385,0.0386,1,6,168,145,1,fiveseven,,,,,,,,,,,,,,,,,,,,,,,,,,,,,,,,,,,,,,,,,,,,,,,,,,,,,,,,,,,,,,,,,,,,,,,,,,,,,,,,,,,,,,,,,,,,,,,,,,,,,,,,,,,,,,,,,,,,,,,,,,,,,,,,,,,,,,,,,
,,646b6c82f2828954c3456fb2,2024-02-19_03h14.03.784,kallum_motion_pilot,2023.2.2,Win32,60.24096386,646b6c82f2828954c3456fb2,65d2b6c8f2eece985d8e374c,65d2b9587c0ea4d16a30e578,0.0387,0.0388,1,7,169,134,1,eightsix,,,,,,,,,,,,,,,,,,,,,,,,,,,,,,,,,,,,,,,,,,,,,,,,,,,,,,,,,,,,,,,,,,,,,,,,,,,,,,,,,,,,,,,,,,,,,,,,,,,,,,,,,,,,,,,,,,,,,,,,,,,,,,,,,,,,,,,,,
,,646b6c82f2828954c3456fb2,2024-02-19_03h14.03.784,kallum_motion_pilot,2023.2.2,Win32,60.24096386,646b6c82f2828954c3456fb2,65d2b6c8f2eece985d8e374c,65d2b9587c0ea4d16a30e578,0.0389,0.039,1,8,170,99,1,sixeight,,,,,,,,,,,,,,,,,,,,,,,,,,,,,,,,,,,,,,,,,,,,,,,,,,,,,,,,,,,,,,,,,,,,,,,,,,,,,,,,,,,,,,,,,,,,,,,,,,,,,,,,,,,,,,,,,,,,,,,,,,,,,,,,,,,,,,,,,
,,646b6c82f2828954c3456fb2,2024-02-19_03h14.03.784,kallum_motion_pilot,2023.2.2,Win32,60.24096386,646b6c82f2828954c3456fb2,65d2b6c8f2eece985d8e374c,65d2b9587c0ea4d16a30e578,0.0391,0.0392,1,9,171,108,1,sevenfive,,,,,,,,,,,,,,,,,,,,,,,,,,,,,,,,,,,,,,,,,,,,,,,,,,,,,,,,,,,,,,,,,,,,,,,,,,,,,,,,,,,,,,,,,,,,,,,,,,,,,,,,,,,,,,,,,,,,,,,,,,,,,,,,,,,,,,,,,
,,646b6c82f2828954c3456fb2,2024-02-19_03h14.03.784,kallum_motion_pilot,2023.2.2,Win32,60.24096386,646b6c82f2828954c3456fb2,65d2b6c8f2eece985d8e374c,65d2b9587c0ea4d16a30e578,0.0392,0.0393,1,10,172,10,1,twoone,,,,,,,,,,,,,,,,,,,,,,,,,,,,,,,,,,,,,,,,,,,,,,,,,,,,,,,,,,,,,,,,,,,,,,,,,,,,,,,,,,,,,,,,,,,,,,,,,,,,,,,,,,,,,,,,,,,,,,,,,,,,,,,,,,,,,,,,,
,,646b6c82f2828954c3456fb2,2024-02-19_03h14.03.784,kallum_motion_pilot,2023.2.2,Win32,60.24096386,646b6c82f2828954c3456fb2,65d2b6c8f2eece985d8e374c,65d2b9587c0ea4d16a30e578,0.0394,0.0394,1,11,173,86,1,eightsix,,,,,,,,,,,,,,,,,,,,,,,,,,,,,,,,,,,,,,,,,,,,,,,,,,,,,,,,,,,,,,,,,,,,,,,,,,,,,,,,,,,,,,,,,,,,,,,,,,,,,,,,,,,,,,,,,,,,,,,,,,,,,,,,,,,,,,,,,
,,646b6c82f2828954c3456fb2,2024-02-19_03h14.03.784,kallum_motion_pilot,2023.2.2,Win32,60.24096386,646b6c82f2828954c3456fb2,65d2b6c8f2eece985d8e374c,65d2b9587c0ea4d16a30e578,0.0394,0.0395,1,12,174,94,1,eightsix,,,,,,,,,,,,,,,,,,,,,,,,,,,,,,,,,,,,,,,,,,,,,,,,,,,,,,,,,,,,,,,,,,,,,,,,,,,,,,,,,,,,,,,,,,,,,,,,,,,,,,,,,,,,,,,,,,,,,,,,,,,,,,,,,,,,,,,,,
,,646b6c82f2828954c3456fb2,2024-02-19_03h14.03.784,kallum_motion_pilot,2023.2.2,Win32,60.24096386,646b6c82f2828954c3456fb2,65d2b6c8f2eece985d8e374c,65d2b9587c0ea4d16a30e578,0.0396,0.0396,1,13,175,51,1,twofour,,,,,,,,,,,,,,,,,,,,,,,,,,,,,,,,,,,,,,,,,,,,,,,,,,,,,,,,,,,,,,,,,,,,,,,,,,,,,,,,,,,,,,,,,,,,,,,,,,,,,,,,,,,,,,,,,,,,,,,,,,,,,,,,,,,,,,,,,
,,646b6c82f2828954c3456fb2,2024-02-19_03h14.03.784,kallum_motion_pilot,2023.2.2,Win32,60.24096386,646b6c82f2828954c3456fb2,65d2b6c8f2eece985d8e374c,65d2b9587c0ea4d16a30e578,0.0397,0.0398,1,14,176,36,1,threeone,,,,,,,,,,,,,,,,,,,,,,,,,,,,,,,,,,,,,,,,,,,,,,,,,,,,,,,,,,,,,,,,,,,,,,,,,,,,,,,,,,,,,,,,,,,,,,,,,,,,,,,,,,,,,,,,,,,,,,,,,,,,,,,,,,,,,,,,,
,,646b6c82f2828954c3456fb2,2024-02-19_03h14.03.784,kallum_motion_pilot,2023.2.2,Win32,60.24096386,646b6c82f2828954c3456fb2,65d2b6c8f2eece985d8e374c,65d2b9587c0ea4d16a30e578,0.0399,0.0399,1,15,177,12,1,threeone,,,,,,,,,,,,,,,,,,,,,,,,,,,,,,,,,,,,,,,,,,,,,,,,,,,,,,,,,,,,,,,,,,,,,,,,,,,,,,,,,,,,,,,,,,,,,,,,,,,,,,,,,,,,,,,,,,,,,,,,,,,,,,,,,,,,,,,,,
,,646b6c82f2828954c3456fb2,2024-02-19_03h14.03.784,kallum_motion_pilot,2023.2.2,Win32,60.24096386,646b6c82f2828954c3456fb2,65d2b6c8f2eece985d8e374c,65d2b9587c0ea4d16a30e578,0.04,0.04,1,16,178,73,1,onethree,,,,,,,,,,,,,,,,,,,,,,,,,,,,,,,,,,,,,,,,,,,,,,,,,,,,,,,,,,,,,,,,,,,,,,,,,,,,,,,,,,,,,,,,,,,,,,,,,,,,,,,,,,,,,,,,,,,,,,,,,,,,,,,,,,,,,,,,,
,,646b6c82f2828954c3456fb2,2024-02-19_03h14.03.784,kallum_motion_pilot,2023.2.2,Win32,60.24096386,646b6c82f2828954c3456fb2,65d2b6c8f2eece985d8e374c,65d2b9587c0ea4d16a30e578,0.0401,0.0401,1,17,179,155,1,sixeight,,,,,,,,,,,,,,,,,,,,,,,,,,,,,,,,,,,,,,,,,,,,,,,,,,,,,,,,,,,,,,,,,,,,,,,,,,,,,,,,,,,,,,,,,,,,,,,,,,,,,,,,,,,,,,,,,,,,,,,,,,,,,,,,,,,,,,,,,
,,646b6c82f2828954c3456fb2,2024-02-19_03h14.03.784,kallum_motion_pilot,2023.2.2,Win32,60.24096386,646b6c82f2828954c3456fb2,65d2b6c8f2eece985d8e374c,65d2b9587c0ea4d16a30e578,0.0402,0.0402,1,18,180,117,1,seveneight,,,,,,,,,,,,,,,,,,,,,,,,,,,,,,,,,,,,,,,,,,,,,,,,,,,,,,,,,,,,,,,,,,,,,,,,,,,,,,,,,,,,,,,,,,,,,,,,,,,,,,,,,,,,,,,,,,,,,,,,,,,,,,,,,,,,,,,,,
,,646b6c82f2828954c3456fb2,2024-02-19_03h14.03.784,kallum_motion_pilot,2023.2.2,Win32,60.24096386,646b6c82f2828954c3456fb2,65d2b6c8f2eece985d8e374c,65d2b9587c0ea4d16a30e578,0.0404,0.0404,1,19,181,126,1,eightsix,,,,,,,,,,,,,,,,,,,,,,,,,,,,,,,,,,,,,,,,,,,,,,,,,,,,,,,,,,,,,,,,,,,,,,,,,,,,,,,,,,,,,,,,,,,,,,,,,,,,,,,,,,,,,,,,,,,,,,,,,,,,,,,,,,,,,,,,,
,,646b6c82f2828954c3456fb2,2024-02-19_03h14.03.784,kallum_motion_pilot,2023.2.2,Win32,60.24096386,646b6c82f2828954c3456fb2,65d2b6c8f2eece985d8e374c,65d2b9587c0ea4d16a30e578,0.0405,0.0405,1,20,182,61,1,threefour,,,,,,,,,,,,,,,,,,,,,,,,,,,,,,,,,,,,,,,,,,,,,,,,,,,,,,,,,,,,,,,,,,,,,,,,,,,,,,,,,,,,,,,,,,,,,,,,,,,,,,,,,,,,,,,,,,,,,,,,,,,,,,,,,,,,,,,,,
,,646b6c82f2828954c3456fb2,2024-02-19_03h14.03.784,kallum_motion_pilot,2023.2.2,Win32,60.24096386,646b6c82f2828954c3456fb2,65d2b6c8f2eece985d8e374c,65d2b9587c0ea4d16a30e578,0.0407,0.0407,1,21,183,24,1,onetwo,,,,,,,,,,,,,,,,,,,,,,,,,,,,,,,,,,,,,,,,,,,,,,,,,,,,,,,,,,,,,,,,,,,,,,,,,,,,,,,,,,,,,,,,,,,,,,,,,,,,,,,,,,,,,,,,,,,,,,,,,,,,,,,,,,,,,,,,,
,,646b6c82f2828954c3456fb2,2024-02-19_03h14.03.784,kallum_motion_pilot,2023.2.2,Win32,60.24096386,646b6c82f2828954c3456fb2,65d2b6c8f2eece985d8e374c,65d2b9587c0ea4d16a30e578,0.0408,0.0408,1,22,184,152,1,fivesix,,,,,,,,,,,,,,,,,,,,,,,,,,,,,,,,,,,,,,,,,,,,,,,,,,,,,,,,,,,,,,,,,,,,,,,,,,,,,,,,,,,,,,,,,,,,,,,,,,,,,,,,,,,,,,,,,,,,,,,,,,,,,,,,,,,,,,,,,
,,646b6c82f2828954c3456fb2,2024-02-19_03h14.03.784,kallum_motion_pilot,2023.2.2,Win32,60.24096386,646b6c82f2828954c3456fb2,65d2b6c8f2eece985d8e374c,65d2b9587c0ea4d16a30e578,0.041,0.041,1,23,185,38,1,fourtwo,,,,,,,,,,,,,,,,,,,,,,,,,,,,,,,,,,,,,,,,,,,,,,,,,,,,,,,,,,,,,,,,,,,,,,,,,,,,,,,,,,,,,,,,,,,,,,,,,,,,,,,,,,,,,,,,,,,,,,,,,,,,,,,,,,,,,,,,,
,,646b6c82f2828954c3456fb2,2024-02-19_03h14.03.784,kallum_motion_pilot,2023.2.2,Win32,60.24096386,646b6c82f2828954c3456fb2,65d2b6c8f2eece985d8e374c,65d2b9587c0ea4d16a30e578,0.0411,0.0412,1,24,186,17,1,onethree,,,,,,,,,,,,,,,,,,,,,,,,,,,,,,,,,,,,,,,,,,,,,,,,,,,,,,,,,,,,,,,,,,,,,,,,,,,,,,,,,,,,,,,,,,,,,,,,,,,,,,,,,,,,,,,,,,,,,,,,,,,,,,,,,,,,,,,,,
,,646b6c82f2828954c3456fb2,2024-02-19_03h14.03.784,kallum_motion_pilot,2023.2.2,Win32,60.24096386,646b6c82f2828954c3456fb2,65d2b6c8f2eece985d8e374c,65d2b9587c0ea4d16a30e578,0.0413,0.0414,1,25,187,107,1,sixeight,,,,,,,,,,,,,,,,,,,,,,,,,,,,,,,,,,,,,,,,,,,,,,,,,,,,,,,,,,,,,,,,,,,,,,,,,,,,,,,,,,,,,,,,,,,,,,,,,,,,,,,,,,,,,,,,,,,,,,,,,,,,,,,,,,,,,,,,,
,,646b6c82f2828954c3456fb2,2024-02-19_03h14.03.784,kallum_motion_pilot,2023.2.2,Win32,60.24096386,646b6c82f2828954c3456fb2,65d2b6c8f2eece985d8e374c,65d2b9587c0ea4d16a30e578,0.0414,0.0414,1,26,188,6,1,fourtwo,,,,,,,,,,,,,,,,,,,,,,,,,,,,,,,,,,,,,,,,,,,,,,,,,,,,,,,,,,,,,,,,,,,,,,,,,,,,,,,,,,,,,,,,,,,,,,,,,,,,,,,,,,,,,,,,,,,,,,,,,,,,,,,,,,,,,,,,,
,,646b6c82f2828954c3456fb2,2024-02-19_03h14.03.784,kallum_motion_pilot,2023.2.2,Win32,60.24096386,646b6c82f2828954c3456fb2,65d2b6c8f2eece985d8e374c,65d2b9587c0ea4d16a30e578,0.0415,0.0416,1,27,189,55,1,fourthree,,,,,,,,,,,,,,,,,,,,,,,,,,,,,,,,,,,,,,,,,,,,,,,,,,,,,,,,,,,,,,,,,,,,,,,,,,,,,,,,,,,,,,,,,,,,,,,,,,,,,,,,,,,,,,,,,,,,,,,,,,,,,,,,,,,,,,,,,
,,646b6c82f2828954c3456fb2,2024-02-19_03h14.03.784,kallum_motion_pilot,2023.2.2,Win32,60.24096386,646b6c82f2828954c3456fb2,65d2b6c8f2eece985d8e374c,65d2b9587c0ea4d16a30e578,0.0417,0.0417,1,28,190,96,1,fivesix,,,,,,,,,,,,,,,,,,,,,,,,,,,,,,,,,,,,,,,,,,,,,,,,,,,,,,,,,,,,,,,,,,,,,,,,,,,,,,,,,,,,,,,,,,,,,,,,,,,,,,,,,,,,,,,,,,,,,,,,,,,,,,,,,,,,,,,,,
,,646b6c82f2828954c3456fb2,2024-02-19_03h14.03.784,kallum_motion_pilot,2023.2.2,Win32,60.24096386,646b6c82f2828954c3456fb2,65d2b6c8f2eece985d8e374c,65d2b9587c0ea4d16a30e578,0.0426,0.0427,1,29,191,18,1,twoone,,,,,,,,,,,,,,,,,,,,,,,,,,,,,,,,,,,,,,,,,,,,,,,,,,,,,,,,,,,,,,,,,,,,,,,,,,,,,,,,,,,,,,,,,,,,,,,,,,,,,,,,,,,,,,,,,,,,,,,,,,,,,,,,,,,,,,,,,
,,646b6c82f2828954c3456fb2,2024-02-19_03h14.03.784,kallum_motion_pilot,2023.2.2,Win32,60.24096386,646b6c82f2828954c3456fb2,65d2b6c8f2eece985d8e374c,65d2b9587c0ea4d16a30e578,0.0429,0.0429,1,30,192,139,1,sixeight,,,,,,,,,,,,,,,,,,,,,,,,,,,,,,,,,,,,,,,,,,,,,,,,,,,,,,,,,,,,,,,,,,,,,,,,,,,,,,,,,,,,,,,,,,,,,,,,,,,,,,,,,,,,,,,,,,,,,,,,,,,,,,,,,,,,,,,,,
,,646b6c82f2828954c3456fb2,2024-02-19_03h14.03.784,kallum_motion_pilot,2023.2.2,Win32,60.24096386,646b6c82f2828954c3456fb2,65d2b6c8f2eece985d8e374c,65d2b9587c0ea4d16a30e578,0.043,0.0431,1,31,193,66,1,twoone,,,,,,,,,,,,,,,,,,,,,,,,,,,,,,,,,,,,,,,,,,,,,,,,,,,,,,,,,,,,,,,,,,,,,,,,,,,,,,,,,,,,,,,,,,,,,,,,,,,,,,,,,,,,,,,,,,,,,,,,,,,,,,,,,,,,,,,,,
,,646b6c82f2828954c3456fb2,2024-02-19_03h14.03.784,kallum_motion_pilot,2023.2.2,Win32,60.24096386,646b6c82f2828954c3456fb2,65d2b6c8f2eece985d8e374c,65d2b9587c0ea4d16a30e578,0.0431,0.0431,1,32,194,156,1,sevenfive,,,,,,,,,,,,,,,,,,,,,,,,,,,,,,,,,,,,,,,,,,,,,,,,,,,,,,,,,,,,,,,,,,,,,,,,,,,,,,,,,,,,,,,,,,,,,,,,,,,,,,,,,,,,,,,,,,,,,,,,,,,,,,,,,,,,,,,,,
,,646b6c82f2828954c3456fb2,2024-02-19_03h14.03.784,kallum_motion_pilot,2023.2.2,Win32,60.24096386,646b6c82f2828954c3456fb2,65d2b6c8f2eece985d8e374c,65d2b9587c0ea4d16a30e578,0.0433,0.0433,1,33,195,90,1,sixfive,,,,,,,,,,,,,,,,,,,,,,,,,,,,,,,,,,,,,,,,,,,,,,,,,,,,,,,,,,,,,,,,,,,,,,,,,,,,,,,,,,,,,,,,,,,,,,,,,,,,,,,,,,,,,,,,,,,,,,,,,,,,,,,,,,,,,,,,,
,,646b6c82f2828954c3456fb2,2024-02-19_03h14.03.784,kallum_motion_pilot,2023.2.2,Win32,60.24096386,646b6c82f2828954c3456fb2,65d2b6c8f2eece985d8e374c,65d2b9587c0ea4d16a30e578,0.0434,0.0435,1,34,196,120,1,fivesix,,,,,,,,,,,,,,,,,,,,,,,,,,,,,,,,,,,,,,,,,,,,,,,,,,,,,,,,,,,,,,,,,,,,,,,,,,,,,,,,,,,,,,,,,,,,,,,,,,,,,,,,,,,,,,,,,,,,,,,,,,,,,,,,,,,,,,,,,
,,646b6c82f2828954c3456fb2,2024-02-19_03h14.03.784,kallum_motion_pilot,2023.2.2,Win32,60.24096386,646b6c82f2828954c3456fb2,65d2b6c8f2eece985d8e374c,65d2b9587c0ea4d16a30e578,0.0436,0.0437,1,35,197,81,1,fiveseven,,,,,,,,,,,,,,,,,,,,,,,,,,,,,,,,,,,,,,,,,,,,,,,,,,,,,,,,,,,,,,,,,,,,,,,,,,,,,,,,,,,,,,,,,,,,,,,,,,,,,,,,,,,,,,,,,,,,,,,,,,,,,,,,,,,,,,,,,
,,646b6c82f2828954c3456fb2,2024-02-19_03h14.03.784,kallum_motion_pilot,2023.2.2,Win32,60.24096386,646b6c82f2828954c3456fb2,65d2b6c8f2eece985d8e374c,65d2b9587c0ea4d16a30e578,0.0438,0.0438,1,36,198,110,1,eightsix,,,,,,,,,,,,,,,,,,,,,,,,,,,,,,,,,,,,,,,,,,,,,,,,,,,,,,,,,,,,,,,,,,,,,,,,,,,,,,,,,,,,,,,,,,,,,,,,,,,,,,,,,,,,,,,,,,,,,,,,,,,,,,,,,,,,,,,,,
,,646b6c82f2828954c3456fb2,2024-02-19_03h14.03.784,kallum_motion_pilot,2023.2.2,Win32,60.24096386,646b6c82f2828954c3456fb2,65d2b6c8f2eece985d8e374c,65d2b9587c0ea4d16a30e578,0.0439,0.0439,1,37,199,91,1,sixeight,,,,,,,,,,,,,,,,,,,,,,,,,,,,,,,,,,,,,,,,,,,,,,,,,,,,,,,,,,,,,,,,,,,,,,,,,,,,,,,,,,,,,,,,,,,,,,,,,,,,,,,,,,,,,,,,,,,,,,,,,,,,,,,,,,,,,,,,,
,,646b6c82f2828954c3456fb2,2024-02-19_03h14.03.784,kallum_motion_pilot,2023.2.2,Win32,60.24096386,646b6c82f2828954c3456fb2,65d2b6c8f2eece985d8e374c,65d2b9587c0ea4d16a30e578,0.044,0.044,1,38,200,141,1,seveneight,,,,,,,,,,,,,,,,,,,,,,,,,,,,,,,,,,,,,,,,,,,,,,,,,,,,,,,,,,,,,,,,,,,,,,,,,,,,,,,,,,,,,,,,,,,,,,,,,,,,,,,,,,,,,,,,,,,,,,,,,,,,,,,,,,,,,,,,,
,,646b6c82f2828954c3456fb2,2024-02-19_03h14.03.784,kallum_motion_pilot,2023.2.2,Win32,60.24096386,646b6c82f2828954c3456fb2,65d2b6c8f2eece985d8e374c,65d2b9587c0ea4d16a30e578,0.0441,0.0442,1,39,201,46,1,fourtwo,,,,,,,,,,,,,,,,,,,,,,,,,,,,,,,,,,,,,,,,,,,,,,,,,,,,,,,,,,,,,,,,,,,,,,,,,,,,,,,,,,,,,,,,,,,,,,,,,,,,,,,,,,,,,,,,,,,,,,,,,,,,,,,,,,,,,,,,,
,,646b6c82f2828954c3456fb2,2024-02-19_03h14.03.784,kallum_motion_pilot,2023.2.2,Win32,60.24096386,646b6c82f2828954c3456fb2,65d2b6c8f2eece985d8e374c,65d2b9587c0ea4d16a30e578,0.0443,0.0443,1,40,202,115,1,sixeight,,,,,,,,,,,,,,,,,,,,,,,,,,,,,,,,,,,,,,,,,,,,,,,,,,,,,,,,,,,,,,,,,,,,,,,,,,,,,,,,,,,,,,,,,,,,,,,,,,,,,,,,,,,,,,,,,,,,,,,,,,,,,,,,,,,,,,,,,
,,646b6c82f2828954c3456fb2,2024-02-19_03h14.03.784,kallum_motion_pilot,2023.2.2,Win32,60.24096386,646b6c82f2828954c3456fb2,65d2b6c8f2eece985d8e374c,65d2b9587c0ea4d16a30e578,0.0443,0.0444,1,41,203,98,1,sixfive,,,,,,,,,,,,,,,,,,,,,,,,,,,,,,,,,,,,,,,,,,,,,,,,,,,,,,,,,,,,,,,,,,,,,,,,,,,,,,,,,,,,,,,,,,,,,,,,,,,,,,,,,,,,,,,,,,,,,,,,,,,,,,,,,,,,,,,,,
,,646b6c82f2828954c3456fb2,2024-02-19_03h14.03.784,kallum_motion_pilot,2023.2.2,Win32,60.24096386,646b6c82f2828954c3456fb2,65d2b6c8f2eece985d8e374c,65d2b9587c0ea4d16a30e578,0.0445,0.0445,1,42,204,0,1,onetwo,,,,,,,,,,,,,,,,,,,,,,,,,,,,,,,,,,,,,,,,,,,,,,,,,,,,,,,,,,,,,,,,,,,,,,,,,,,,,,,,,,,,,,,,,,,,,,,,,,,,,,,,,,,,,,,,,,,,,,,,,,,,,,,,,,,,,,,,,
,,646b6c82f2828954c3456fb2,2024-02-19_03h14.03.784,kallum_motion_pilot,2023.2.2,Win32,60.24096386,646b6c82f2828954c3456fb2,65d2b6c8f2eece985d8e374c,65d2b9587c0ea4d16a30e578,0.0446,0.0447,1,43,205,43,1,twofour,,,,,,,,,,,,,,,,,,,,,,,,,,,,,,,,,,,,,,,,,,,,,,,,,,,,,,,,,,,,,,,,,,,,,,,,,,,,,,,,,,,,,,,,,,,,,,,,,,,,,,,,,,,,,,,,,,,,,,,,,,,,,,,,,,,,,,,,,
,,646b6c82f2828954c3456fb2,2024-02-19_03h14.03.784,kallum_motion_pilot,2023.2.2,Win32,60.24096386,646b6c82f2828954c3456fb2,65d2b6c8f2eece985d8e374c,65d2b9587c0ea4d16a30e578,0.0447,0.0448,1,44,206,77,1,threefour,,,,,,,,,,,,,,,,,,,,,,,,,,,,,,,,,,,,,,,,,,,,,,,,,,,,,,,,,,,,,,,,,,,,,,,,,,,,,,,,,,,,,,,,,,,,,,,,,,,,,,,,,,,,,,,,,,,,,,,,,,,,,,,,,,,,,,,,,
,,646b6c82f2828954c3456fb2,2024-02-19_03h14.03.784,kallum_motion_pilot,2023.2.2,Win32,60.24096386,646b6c82f2828954c3456fb2,65d2b6c8f2eece985d8e374c,65d2b9587c0ea4d16a30e578,0.0448,0.0449,1,45,207,104,1,fivesix,,,,,,,,,,,,,,,,,,,,,,,,,,,,,,,,,,,,,,,,,,,,,,,,,,,,,,,,,,,,,,,,,,,,,,,,,,,,,,,,,,,,,,,,,,,,,,,,,,,,,,,,,,,,,,,,,,,,,,,,,,,,,,,,,,,,,,,,,
,,646b6c82f2828954c3456fb2,2024-02-19_03h14.03.784,kallum_motion_pilot,2023.2.2,Win32,60.24096386,646b6c82f2828954c3456fb2,65d2b6c8f2eece985d8e374c,65d2b9587c0ea4d16a30e578,0.045,0.045,1,46,208,8,1,onetwo,,,,,,,,,,,,,,,,,,,,,,,,,,,,,,,,,,,,,,,,,,,,,,,,,,,,,,,,,,,,,,,,,,,,,,,,,,,,,,,,,,,,,,,,,,,,,,,,,,,,,,,,,,,,,,,,,,,,,,,,,,,,,,,,,,,,,,,,,
,,646b6c82f2828954c3456fb2,2024-02-19_03h14.03.784,kallum_motion_pilot,2023.2.2,Win32,60.24096386,646b6c82f2828954c3456fb2,65d2b6c8f2eece985d8e374c,65d2b9587c0ea4d16a30e578,0.0451,0.0452,1,47,209,57,1,onethree,,,,,,,,,,,,,,,,,,,,,,,,,,,,,,,,,,,,,,,,,,,,,,,,,,,,,,,,,,,,,,,,,,,,,,,,,,,,,,,,,,,,,,,,,,,,,,,,,,,,,,,,,,,,,,,,,,,,,,,,,,,,,,,,,,,,,,,,,
,,646b6c82f2828954c3456fb2,2024-02-19_03h14.03.784,kallum_motion_pilot,2023.2.2,Win32,60.24096386,646b6c82f2828954c3456fb2,65d2b6c8f2eece985d8e374c,65d2b9587c0ea4d16a30e578,0.0452,0.0452,1,48,210,3,1,twofour,,,,,,,,,,,,,,,,,,,,,,,,,,,,,,,,,,,,,,,,,,,,,,,,,,,,,,,,,,,,,,,,,,,,,,,,,,,,,,,,,,,,,,,,,,,,,,,,,,,,,,,,,,,,,,,,,,,,,,,,,,,,,,,,,,,,,,,,,
,,646b6c82f2828954c3456fb2,2024-02-19_03h14.03.784,kallum_motion_pilot,2023.2.2,Win32,60.24096386,646b6c82f2828954c3456fb2,65d2b6c8f2eece985d8e374c,65d2b9587c0ea4d16a30e578,0.0453,0.0454,1,49,211,82,1,sixfive,,,,,,,,,,,,,,,,,,,,,,,,,,,,,,,,,,,,,,,,,,,,,,,,,,,,,,,,,,,,,,,,,,,,,,,,,,,,,,,,,,,,,,,,,,,,,,,,,,,,,,,,,,,,,,,,,,,,,,,,,,,,,,,,,,,,,,,,,
,,646b6c82f2828954c3456fb2,2024-02-19_03h14.03.784,kallum_motion_pilot,2023.2.2,Win32,60.24096386,646b6c82f2828954c3456fb2,65d2b6c8f2eece985d8e374c,65d2b9587c0ea4d16a30e578,0.0454,0.0455,1,50,212,1,1,onethree,,,,,,,,,,,,,,,,,,,,,,,,,,,,,,,,,,,,,,,,,,,,,,,,,,,,,,,,,,,,,,,,,,,,,,,,,,,,,,,,,,,,,,,,,,,,,,,,,,,,,,,,,,,,,,,,,,,,,,,,,,,,,,,,,,,,,,,,,
,,646b6c82f2828954c3456fb2,2024-02-19_03h14.03.784,kallum_motion_pilot,2023.2.2,Win32,60.24096386,646b6c82f2828954c3456fb2,65d2b6c8f2eece985d8e374c,65d2b9587c0ea4d16a30e578,0.0456,0.0456,1,51,213,148,1,sevenfive,,,,,,,,,,,,,,,,,,,,,,,,,,,,,,,,,,,,,,,,,,,,,,,,,,,,,,,,,,,,,,,,,,,,,,,,,,,,,,,,,,,,,,,,,,,,,,,,,,,,,,,,,,,,,,,,,,,,,,,,,,,,,,,,,,,,,,,,,
,,646b6c82f2828954c3456fb2,2024-02-19_03h14.03.784,kallum_motion_pilot,2023.2.2,Win32,60.24096386,646b6c82f2828954c3456fb2,65d2b6c8f2eece985d8e374c,65d2b9587c0ea4d16a30e578,0.0456,0.0457,1,52,214,78,1,fourtwo,,,,,,,,,,,,,,,,,,,,,,,,,,,,,,,,,,,,,,,,,,,,,,,,,,,,,,,,,,,,,,,,,,,,,,,,,,,,,,,,,,,,,,,,,,,,,,,,,,,,,,,,,,,,,,,,,,,,,,,,,,,,,,,,,,,,,,,,,
,,646b6c82f2828954c3456fb2,2024-02-19_03h14.03.784,kallum_motion_pilot,2023.2.2,Win32,60.24096386,646b6c82f2828954c3456fb2,65d2b6c8f2eece985d8e374c,65d2b9587c0ea4d16a30e578,0.0457,0.0458,1,53,215,9,1,onethree,,,,,,,,,,,,,,,,,,,,,,,,,,,,,,,,,,,,,,,,,,,,,,,,,,,,,,,,,,,,,,,,,,,,,,,,,,,,,,,,,,,,,,,,,,,,,,,,,,,,,,,,,,,,,,,,,,,,,,,,,,,,,,,,,,,,,,,,,
,,646b6c82f2828954c3456fb2,2024-02-19_03h14.03.784,kallum_motion_pilot,2023.2.2,Win32,60.24096386,646b6c82f2828954c3456fb2,65d2b6c8f2eece985d8e374c,65d2b9587c0ea4d16a30e578,0.0459,0.0459,1,54,216,127,1,eightseven,,,,,,,,,,,,,,,,,,,,,,,,,,,,,,,,,,,,,,,,,,,,,,,,,,,,,,,,,,,,,,,,,,,,,,,,,,,,,,,,,,,,,,,,,,,,,,,,,,,,,,,,,,,,,,,,,,,,,,,,,,,,,,,,,,,,,,,,,
,,646b6c82f2828954c3456fb2,2024-02-19_03h14.03.784,kallum_motion_pilot,2023.2.2,Win32,60.24096386,646b6c82f2828954c3456fb2,65d2b6c8f2eece985d8e374c,65d2b9587c0ea4d16a30e578,0.046,0.0461,1,55,217,65,1,onethree,,,,,,,,,,,,,,,,,,,,,,,,,,,,,,,,,,,,,,,,,,,,,,,,,,,,,,,,,,,,,,,,,,,,,,,,,,,,,,,,,,,,,,,,,,,,,,,,,,,,,,,,,,,,,,,,,,,,,,,,,,,,,,,,,,,,,,,,,
,,646b6c82f2828954c3456fb2,2024-02-19_03h14.03.784,kallum_motion_pilot,2023.2.2,Win32,60.24096386,646b6c82f2828954c3456fb2,65d2b6c8f2eece985d8e374c,65d2b9587c0ea4d16a30e578,0.0461,0.0461,1,56,218,58,1,twoone,,,,,,,,,,,,,,,,,,,,,,,,,,,,,,,,,,,,,,,,,,,,,,,,,,,,,,,,,,,,,,,,,,,,,,,,,,,,,,,,,,,,,,,,,,,,,,,,,,,,,,,,,,,,,,,,,,,,,,,,,,,,,,,,,,,,,,,,,
,,646b6c82f2828954c3456fb2,2024-02-19_03h14.03.784,kallum_motion_pilot,2023.2.2,Win32,60.24096386,646b6c82f2828954c3456fb2,65d2b6c8f2eece985d8e374c,65d2b9587c0ea4d16a30e578,0.0462,0.0463,1,57,219,111,1,eightseven,,,,,,,,,,,,,,,,,,,,,,,,,,,,,,,,,,,,,,,,,,,,,,,,,,,,,,,,,,,,,,,,,,,,,,,,,,,,,,,,,,,,,,,,,,,,,,,,,,,,,,,,,,,,,,,,,,,,,,,,,,,,,,,,,,,,,,,,,
,,646b6c82f2828954c3456fb2,2024-02-19_03h14.03.784,kallum_motion_pilot,2023.2.2,Win32,60.24096386,646b6c82f2828954c3456fb2,65d2b6c8f2eece985d8e374c,65d2b9587c0ea4d16a30e578,0.0463,0.0464,1,58,220,159,1,eightseven,,,,,,,,,,,,,,,,,,,,,,,,,,,,,,,,,,,,,,,,,,,,,,,,,,,,,,,,,,,,,,,,,,,,,,,,,,,,,,,,,,,,,,,,,,,,,,,,,,,,,,,,,,,,,,,,,,,,,,,,,,,,,,,,,,,,,,,,,
,,646b6c82f2828954c3456fb2,2024-02-19_03h14.03.784,kallum_motion_pilot,2023.2.2,Win32,60.24096386,646b6c82f2828954c3456fb2,65d2b6c8f2eece985d8e374c,65d2b9587c0ea4d16a30e578,0.0465,0.0465,1,59,221,87,1,eightseven,,,,,,,,,,,,,,,,,,,,,,,,,,,,,,,,,,,,,,,,,,,,,,,,,,,,,,,,,,,,,,,,,,,,,,,,,,,,,,,,,,,,,,,,,,,,,,,,,,,,,,,,,,,,,,,,,,,,,,,,,,,,,,,,,,,,,,,,,
,,646b6c82f2828954c3456fb2,2024-02-19_03h14.03.784,kallum_motion_pilot,2023.2.2,Win32,60.24096386,646b6c82f2828954c3456fb2,65d2b6c8f2eece985d8e374c,65d2b9587c0ea4d16a30e578,0.0466,0.0467,1,60,222,85,1,seveneight,,,,,,,,,,,,,,,,,,,,,,,,,,,,,,,,,,,,,,,,,,,,,,,,,,,,,,,,,,,,,,,,,,,,,,,,,,,,,,,,,,,,,,,,,,,,,,,,,,,,,,,,,,,,,,,,,,,,,,,,,,,,,,,,,,,,,,,,,
,,646b6c82f2828954c3456fb2,2024-02-19_03h14.03.784,kallum_motion_pilot,2023.2.2,Win32,60.24096386,646b6c82f2828954c3456fb2,65d2b6c8f2eece985d8e374c,65d2b9587c0ea4d16a30e578,0.0467,0.0468,1,61,223,47,1,fourthree,,,,,,,,,,,,,,,,,,,,,,,,,,,,,,,,,,,,,,,,,,,,,,,,,,,,,,,,,,,,,,,,,,,,,,,,,,,,,,,,,,,,,,,,,,,,,,,,,,,,,,,,,,,,,,,,,,,,,,,,,,,,,,,,,,,,,,,,,
,,646b6c82f2828954c3456fb2,2024-02-19_03h14.03.784,kallum_motion_pilot,2023.2.2,Win32,60.24096386,646b6c82f2828954c3456fb2,65d2b6c8f2eece985d8e374c,65d2b9587c0ea4d16a30e578,0.0469,0.0469,1,62,224,50,1,twoone,,,,,,,,,,,,,,,,,,,,,,,,,,,,,,,,,,,,,,,,,,,,,,,,,,,,,,,,,,,,,,,,,,,,,,,,,,,,,,,,,,,,,,,,,,,,,,,,,,,,,,,,,,,,,,,,,,,,,,,,,,,,,,,,,,,,,,,,,
,,646b6c82f2828954c3456fb2,2024-02-19_03h14.03.784,kallum_motion_pilot,2023.2.2,Win32,60.24096386,646b6c82f2828954c3456fb2,65d2b6c8f2eece985d8e374c,65d2b9587c0ea4d16a30e578,0.0469,0.047,1,63,225,92,1,sevenfive,,,,,,,,,,,,,,,,,,,,,,,,,,,,,,,,,,,,,,,,,,,,,,,,,,,,,,,,,,,,,,,,,,,,,,,,,,,,,,,,,,,,,,,,,,,,,,,,,,,,,,,,,,,,,,,,,,,,,,,,,,,,,,,,,,,,,,,,,
,,646b6c82f2828954c3456fb2,2024-02-19_03h14.03.784,kallum_motion_pilot,2023.2.2,Win32,60.24096386,646b6c82f2828954c3456fb2,65d2b6c8f2eece985d8e374c,65d2b9587c0ea4d16a30e578,0.047,0.0471,1,64,226,34,1,twoone,,,,,,,,,,,,,,,,,,,,,,,,,,,,,,,,,,,,,,,,,,,,,,,,,,,,,,,,,,,,,,,,,,,,,,,,,,,,,,,,,,,,,,,,,,,,,,,,,,,,,,,,,,,,,,,,,,,,,,,,,,,,,,,,,,,,,,,,,
,,646b6c82f2828954c3456fb2,2024-02-19_03h14.03.784,kallum_motion_pilot,2023.2.2,Win32,60.24096386,646b6c82f2828954c3456fb2,65d2b6c8f2eece985d8e374c,65d2b9587c0ea4d16a30e578,0.0472,0.0472,1,65,227,31,1,fourthree,,,,,,,,,,,,,,,,,,,,,,,,,,,,,,,,,,,,,,,,,,,,,,,,,,,,,,,,,,,,,,,,,,,,,,,,,,,,,,,,,,,,,,,,,,,,,,,,,,,,,,,,,,,,,,,,,,,,,,,,,,,,,,,,,,,,,,,,,
,,646b6c82f2828954c3456fb2,2024-02-19_03h14.03.784,kallum_motion_pilot,2023.2.2,Win32,60.24096386,646b6c82f2828954c3456fb2,65d2b6c8f2eece985d8e374c,65d2b9587c0ea4d16a30e578,0.0473,0.0473,1,66,228,23,1,fourthree,,,,,,,,,,,,,,,,,,,,,,,,,,,,,,,,,,,,,,,,,,,,,,,,,,,,,,,,,,,,,,,,,,,,,,,,,,,,,,,,,,,,,,,,,,,,,,,,,,,,,,,,,,,,,,,,,,,,,,,,,,,,,,,,,,,,,,,,,
,,646b6c82f2828954c3456fb2,2024-02-19_03h14.03.784,kallum_motion_pilot,2023.2.2,Win32,60.24096386,646b6c82f2828954c3456fb2,65d2b6c8f2eece985d8e374c,65d2b9587c0ea4d16a30e578,0.0474,0.0474,1,67,229,137,1,fiveseven,,,,,,,,,,,,,,,,,,,,,,,,,,,,,,,,,,,,,,,,,,,,,,,,,,,,,,,,,,,,,,,,,,,,,,,,,,,,,,,,,,,,,,,,,,,,,,,,,,,,,,,,,,,,,,,,,,,,,,,,,,,,,,,,,,,,,,,,,
,,646b6c82f2828954c3456fb2,2024-02-19_03h14.03.784,kallum_motion_pilot,2023.2.2,Win32,60.24096386,646b6c82f2828954c3456fb2,65d2b6c8f2eece985d8e374c,65d2b9587c0ea4d16a30e578,0.0475,0.0477,1,68,230,79,1,eightseven,,,,,,,,,,,,,,,,,,,,,,,,,,,,,,,,,,,,,,,,,,,,,,,,,,,,,,,,,,,,,,,,,,,,,,,,,,,,,,,,,,,,,,,,,,,,,,,,,,,,,,,,,,,,,,,,,,,,,,,,,,,,,,,,,,,,,,,,,
,,646b6c82f2828954c3456fb2,2024-02-19_03h14.03.784,kallum_motion_pilot,2023.2.2,Win32,60.24096386,646b6c82f2828954c3456fb2,65d2b6c8f2eece985d8e374c,65d2b9587c0ea4d16a30e578,0.0477,0.0477,1,69,231,161,1,fiveseven,,,,,,,,,,,,,,,,,,,,,,,,,,,,,,,,,,,,,,,,,,,,,,,,,,,,,,,,,,,,,,,,,,,,,,,,,,,,,,,,,,,,,,,,,,,,,,,,,,,,,,,,,,,,,,,,,,,,,,,,,,,,,,,,,,,,,,,,,
,,646b6c82f2828954c3456fb2,2024-02-19_03h14.03.784,kallum_motion_pilot,2023.2.2,Win32,60.24096386,646b6c82f2828954c3456fb2,65d2b6c8f2eece985d8e374c,65d2b9587c0ea4d16a30e578,0.0478,0.0479,1,70,232,60,1,threeone,,,,,,,,,,,,,,,,,,,,,,,,,,,,,,,,,,,,,,,,,,,,,,,,,,,,,,,,,,,,,,,,,,,,,,,,,,,,,,,,,,,,,,,,,,,,,,,,,,,,,,,,,,,,,,,,,,,,,,,,,,,,,,,,,,,,,,,,,
,,646b6c82f2828954c3456fb2,2024-02-19_03h14.03.784,kallum_motion_pilot,2023.2.2,Win32,60.24096386,646b6c82f2828954c3456fb2,65d2b6c8f2eece985d8e374c,65d2b9587c0ea4d16a30e578,0.0479,0.048,1,71,233,151,1,eightseven,,,,,,,,,,,,,,,,,,,,,,,,,,,,,,,,,,,,,,,,,,,,,,,,,,,,,,,,,,,,,,,,,,,,,,,,,,,,,,,,,,,,,,,,,,,,,,,,,,,,,,,,,,,,,,,,,,,,,,,,,,,,,,,,,,,,,,,,,
,,646b6c82f2828954c3456fb2,2024-02-19_03h14.03.784,kallum_motion_pilot,2023.2.2,Win32,60.24096386,646b6c82f2828954c3456fb2,65d2b6c8f2eece985d8e374c,65d2b9587c0ea4d16a30e578,0.048,0.0481,1,72,234,42,1,twoone,,,,,,,,,,,,,,,,,,,,,,,,,,,,,,,,,,,,,,,,,,,,,,,,,,,,,,,,,,,,,,,,,,,,,,,,,,,,,,,,,,,,,,,,,,,,,,,,,,,,,,,,,,,,,,,,,,,,,,,,,,,,,,,,,,,,,,,,,
,,646b6c82f2828954c3456fb2,2024-02-19_03h14.03.784,kallum_motion_pilot,2023.2.2,Win32,60.24096386,646b6c82f2828954c3456fb2,65d2b6c8f2eece985d8e374c,65d2b9587c0ea4d16a30e578,0.0481,0.0482,1,73,235,15,1,fourthree,,,,,,,,,,,,,,,,,,,,,,,,,,,,,,,,,,,,,,,,,,,,,,,,,,,,,,,,,,,,,,,,,,,,,,,,,,,,,,,,,,,,,,,,,,,,,,,,,,,,,,,,,,,,,,,,,,,,,,,,,,,,,,,,,,,,,,,,,
,,646b6c82f2828954c3456fb2,2024-02-19_03h14.03.784,kallum_motion_pilot,2023.2.2,Win32,60.24096386,646b6c82f2828954c3456fb2,65d2b6c8f2eece985d8e374c,65d2b9587c0ea4d16a30e578,0.0483,0.0484,1,74,236,29,1,threefour,,,,,,,,,,,,,,,,,,,,,,,,,,,,,,,,,,,,,,,,,,,,,,,,,,,,,,,,,,,,,,,,,,,,,,,,,,,,,,,,,,,,,,,,,,,,,,,,,,,,,,,,,,,,,,,,,,,,,,,,,,,,,,,,,,,,,,,,,
,,646b6c82f2828954c3456fb2,2024-02-19_03h14.03.784,kallum_motion_pilot,2023.2.2,Win32,60.24096386,646b6c82f2828954c3456fb2,65d2b6c8f2eece985d8e374c,65d2b9587c0ea4d16a30e578,0.0484,0.0485,1,75,237,122,1,sixfive,,,,,,,,,,,,,,,,,,,,,,,,,,,,,,,,,,,,,,,,,,,,,,,,,,,,,,,,,,,,,,,,,,,,,,,,,,,,,,,,,,,,,,,,,,,,,,,,,,,,,,,,,,,,,,,,,,,,,,,,,,,,,,,,,,,,,,,,,
,,646b6c82f2828954c3456fb2,2024-02-19_03h14.03.784,kallum_motion_pilot,2023.2.2,Win32,60.24096386,646b6c82f2828954c3456fb2,65d2b6c8f2eece985d8e374c,65d2b9587c0ea4d16a30e578,0.0485,0.0486,1,76,238,83,1,sixeight,,,,,,,,,,,,,,,,,,,,,,,,,,,,,,,,,,,,,,,,,,,,,,,,,,,,,,,,,,,,,,,,,,,,,,,,,,,,,,,,,,,,,,,,,,,,,,,,,,,,,,,,,,,,,,,,,,,,,,,,,,,,,,,,,,,,,,,,,
,,646b6c82f2828954c3456fb2,2024-02-19_03h14.03.784,kallum_motion_pilot,2023.2.2,Win32,60.24096386,646b6c82f2828954c3456fb2,65d2b6c8f2eece985d8e374c,65d2b9587c0ea4d16a30e578,0.0487,0.0487,1,77,239,76,1,threeone,,,,,,,,,,,,,,,,,,,,,,,,,,,,,,,,,,,,,,,,,,,,,,,,,,,,,,,,,,,,,,,,,,,,,,,,,,,,,,,,,,,,,,,,,,,,,,,,,,,,,,,,,,,,,,,,,,,,,,,,,,,,,,,,,,,,,,,,,
,,646b6c82f2828954c3456fb2,2024-02-19_03h14.03.784,kallum_motion_pilot,2023.2.2,Win32,60.24096386,646b6c82f2828954c3456fb2,65d2b6c8f2eece985d8e374c,65d2b9587c0ea4d16a30e578,0.0488,0.0489,1,78,240,119,1,eightseven,,,,,,,,,,,,,,,,,,,,,,,,,,,,,,,,,,,,,,,,,,,,,,,,,,,,,,,,,,,,,,,,,,,,,,,,,,,,,,,,,,,,,,,,,,,,,,,,,,,,,,,,,,,,,,,,,,,,,,,,,,,,,,,,,,,,,,,,,
,,646b6c82f2828954c3456fb2,2024-02-19_03h14.03.784,kallum_motion_pilot,2023.2.2,Win32,60.24096386,646b6c82f2828954c3456fb2,65d2b6c8f2eece985d8e374c,65d2b9587c0ea4d16a30e578,0.0489,0.049,1,79,241,4,1,threeone,,,,,,,,,,,,,,,,,,,,,,,,,,,,,,,,,,,,,,,,,,,,,,,,,,,,,,,,,,,,,,,,,,,,,,,,,,,,,,,,,,,,,,,,,,,,,,,,,,,,,,,,,,,,,,,,,,,,,,,,,,,,,,,,,,,,,,,,,
,,646b6c82f2828954c3456fb2,2024-02-19_03h14.03.784,kallum_motion_pilot,2023.2.2,Win32,60.24096386,646b6c82f2828954c3456fb2,65d2b6c8f2eece985d8e374c,65d2b9587c0ea4d16a30e578,0.0496,0.0496,1,80,242,131,1,sixeight,,,,,,,,,,,,,,,,,,,,,,,,,,,,,,,,,,,,,,,,,,,,,,,,,,,,,,,,,,,,,,,,,,,,,,,,,,,,,,,,,,,,,,,,,,,,,,,,,,,,,,,,,,,,,,,,,,,,,,,,,,,,,,,,,,,,,,,,,
,,646b6c82f2828954c3456fb2,2024-02-19_03h14.03.784,kallum_motion_pilot,2023.2.2,Win32,60.24096386,646b6c82f2828954c3456fb2,65d2b6c8f2eece985d8e374c,65d2b9587c0ea4d16a30e578,0.0496,0.0497,1,81,243,160,1,fivesix,,,,,,,,,,,,,,,,,,,,,,,,,,,,,,,,,,,,,,,,,,,,,,,,,,,,,,,,,,,,,,,,,,,,,,,,,,,,,,,,,,,,,,,,,,,,,,,,,,,,,,,,,,,,,,,,,,,,,,,,,,,,,,,,,,,,,,,,,
,,646b6c82f2828954c3456fb2,2024-02-19_03h14.03.784,kallum_motion_pilot,2023.2.2,Win32,60.24096386,646b6c82f2828954c3456fb2,65d2b6c8f2eece985d8e374c,65d2b9587c0ea4d16a30e578,0.0497,0.0498,1,82,244,54,1,fourtwo,,,,,,,,,,,,,,,,,,,,,,,,,,,,,,,,,,,,,,,,,,,,,,,,,,,,,,,,,,,,,,,,,,,,,,,,,,,,,,,,,,,,,,,,,,,,,,,,,,,,,,,,,,,,,,,,,,,,,,,,,,,,,,,,,,,,,,,,,
,,646b6c82f2828954c3456fb2,2024-02-19_03h14.03.784,kallum_motion_pilot,2023.2.2,Win32,60.24096386,646b6c82f2828954c3456fb2,65d2b6c8f2eece985d8e374c,65d2b9587c0ea4d16a30e578,0.0499,0.05,1,83,245,35,1,twofour,,,,,,,,,,,,,,,,,,,,,,,,,,,,,,,,,,,,,,,,,,,,,,,,,,,,,,,,,,,,,,,,,,,,,,,,,,,,,,,,,,,,,,,,,,,,,,,,,,,,,,,,,,,,,,,,,,,,,,,,,,,,,,,,,,,,,,,,,
,,646b6c82f2828954c3456fb2,2024-02-19_03h14.03.784,kallum_motion_pilot,2023.2.2,Win32,60.24096386,646b6c82f2828954c3456fb2,65d2b6c8f2eece985d8e374c,65d2b9587c0ea4d16a30e578,0.05,0.0501,1,84,246,100,1,sevenfive,,,,,,,,,,,,,,,,,,,,,,,,,,,,,,,,,,,,,,,,,,,,,,,,,,,,,,,,,,,,,,,,,,,,,,,,,,,,,,,,,,,,,,,,,,,,,,,,,,,,,,,,,,,,,,,,,,,,,,,,,,,,,,,,,,,,,,,,,
,,646b6c82f2828954c3456fb2,2024-02-19_03h14.03.784,kallum_motion_pilot,2023.2.2,Win32,60.24096386,646b6c82f2828954c3456fb2,65d2b6c8f2eece985d8e374c,65d2b9587c0ea4d16a30e578,0.0501,0.0501,1,85,247,103,1,eightseven,,,,,,,,,,,,,,,,,,,,,,,,,,,,,,,,,,,,,,,,,,,,,,,,,,,,,,,,,,,,,,,,,,,,,,,,,,,,,,,,,,,,,,,,,,,,,,,,,,,,,,,,,,,,,,,,,,,,,,,,,,,,,,,,,,,,,,,,,
,,646b6c82f2828954c3456fb2,2024-02-19_03h14.03.784,kallum_motion_pilot,2023.2.2,Win32,60.24096386,646b6c82f2828954c3456fb2,65d2b6c8f2eece985d8e374c,65d2b9587c0ea4d16a30e578,0.0502,0.0503,1,86,248,69,1,threefour,,,,,,,,,,,,,,,,,,,,,,,,,,,,,,,,,,,,,,,,,,,,,,,,,,,,,,,,,,,,,,,,,,,,,,,,,,,,,,,,,,,,,,,,,,,,,,,,,,,,,,,,,,,,,,,,,,,,,,,,,,,,,,,,,,,,,,,,,
,,646b6c82f2828954c3456fb2,2024-02-19_03h14.03.784,kallum_motion_pilot,2023.2.2,Win32,60.24096386,646b6c82f2828954c3456fb2,65d2b6c8f2eece985d8e374c,65d2b9587c0ea4d16a30e578,0.0503,0.0504,1,87,249,49,1,onethree,,,,,,,,,,,,,,,,,,,,,,,,,,,,,,,,,,,,,,,,,,,,,,,,,,,,,,,,,,,,,,,,,,,,,,,,,,,,,,,,,,,,,,,,,,,,,,,,,,,,,,,,,,,,,,,,,,,,,,,,,,,,,,,,,,,,,,,,,
,,646b6c82f2828954c3456fb2,2024-02-19_03h14.03.784,kallum_motion_pilot,2023.2.2,Win32,60.24096386,646b6c82f2828954c3456fb2,65d2b6c8f2eece985d8e374c,65d2b9587c0ea4d16a30e578,0.0504,0.0505,1,88,250,64,1,onetwo,,,,,,,,,,,,,,,,,,,,,,,,,,,,,,,,,,,,,,,,,,,,,,,,,,,,,,,,,,,,,,,,,,,,,,,,,,,,,,,,,,,,,,,,,,,,,,,,,,,,,,,,,,,,,,,,,,,,,,,,,,,,,,,,,,,,,,,,,
,,646b6c82f2828954c3456fb2,2024-02-19_03h14.03.784,kallum_motion_pilot,2023.2.2,Win32,60.24096386,646b6c82f2828954c3456fb2,65d2b6c8f2eece985d8e374c,65d2b9587c0ea4d16a30e578,0.0506,0.0507,1,89,251,71,1,fourthree,,,,,,,,,,,,,,,,,,,,,,,,,,,,,,,,,,,,,,,,,,,,,,,,,,,,,,,,,,,,,,,,,,,,,,,,,,,,,,,,,,,,,,,,,,,,,,,,,,,,,,,,,,,,,,,,,,,,,,,,,,,,,,,,,,,,,,,,,
,,646b6c82f2828954c3456fb2,2024-02-19_03h14.03.784,kallum_motion_pilot,2023.2.2,Win32,60.24096386,646b6c82f2828954c3456fb2,65d2b6c8f2eece985d8e374c,65d2b9587c0ea4d16a30e578,0.0507,0.0508,1,90,252,128,1,fivesix,,,,,,,,,,,,,,,,,,,,,,,,,,,,,,,,,,,,,,,,,,,,,,,,,,,,,,,,,,,,,,,,,,,,,,,,,,,,,,,,,,,,,,,,,,,,,,,,,,,,,,,,,,,,,,,,,,,,,,,,,,,,,,,,,,,,,,,,,
,,646b6c82f2828954c3456fb2,2024-02-19_03h14.03.784,kallum_motion_pilot,2023.2.2,Win32,60.24096386,646b6c82f2828954c3456fb2,65d2b6c8f2eece985d8e374c,65d2b9587c0ea4d16a30e578,0.0508,0.0509,1,91,253,26,1,twoone,,,,,,,,,,,,,,,,,,,,,,,,,,,,,,,,,,,,,,,,,,,,,,,,,,,,,,,,,,,,,,,,,,,,,,,,,,,,,,,,,,,,,,,,,,,,,,,,,,,,,,,,,,,,,,,,,,,,,,,,,,,,,,,,,,,,,,,,,
,,646b6c82f2828954c3456fb2,2024-02-19_03h14.03.784,kallum_motion_pilot,2023.2.2,Win32,60.24096386,646b6c82f2828954c3456fb2,65d2b6c8f2eece985d8e374c,65d2b9587c0ea4d16a30e578,0.051,0.051,1,92,254,95,1,eightseven,,,,,,,,,,,,,,,,,,,,,,,,,,,,,,,,,,,,,,,,,,,,,,,,,,,,,,,,,,,,,,,,,,,,,,,,,,,,,,,,,,,,,,,,,,,,,,,,,,,,,,,,,,,,,,,,,,,,,,,,,,,,,,,,,,,,,,,,,
,,646b6c82f2828954c3456fb2,2024-02-19_03h14.03.784,kallum_motion_pilot,2023.2.2,Win32,60.24096386,646b6c82f2828954c3456fb2,65d2b6c8f2eece985d8e374c,65d2b9587c0ea4d16a30e578,0.0511,0.0512,1,93,255,133,1,seveneight,,,,,,,,,,,,,,,,,,,,,,,,,,,,,,,,,,,,,,,,,,,,,,,,,,,,,,,,,,,,,,,,,,,,,,,,,,,,,,,,,,,,,,,,,,,,,,,,,,,,,,,,,,,,,,,,,,,,,,,,,,,,,,,,,,,,,,,,,
,,646b6c82f2828954c3456fb2,2024-02-19_03h14.03.784,kallum_motion_pilot,2023.2.2,Win32,60.24096386,646b6c82f2828954c3456fb2,65d2b6c8f2eece985d8e374c,65d2b9587c0ea4d16a30e578,0.0513,0.0514,1,94,256,52,1,threeone,,,,,,,,,,,,,,,,,,,,,,,,,,,,,,,,,,,,,,,,,,,,,,,,,,,,,,,,,,,,,,,,,,,,,,,,,,,,,,,,,,,,,,,,,,,,,,,,,,,,,,,,,,,,,,,,,,,,,,,,,,,,,,,,,,,,,,,,,
,,646b6c82f2828954c3456fb2,2024-02-19_03h14.03.784,kallum_motion_pilot,2023.2.2,Win32,60.24096386,646b6c82f2828954c3456fb2,65d2b6c8f2eece985d8e374c,65d2b9587c0ea4d16a30e578,0.0514,0.0514,1,95,257,39,1,fourthree,,,,,,,,,,,,,,,,,,,,,,,,,,,,,,,,,,,,,,,,,,,,,,,,,,,,,,,,,,,,,,,,,,,,,,,,,,,,,,,,,,,,,,,,,,,,,,,,,,,,,,,,,,,,,,,,,,,,,,,,,,,,,,,,,,,,,,,,,
,,646b6c82f2828954c3456fb2,2024-02-19_03h14.03.784,kallum_motion_pilot,2023.2.2,Win32,60.24096386,646b6c82f2828954c3456fb2,65d2b6c8f2eece985d8e374c,65d2b9587c0ea4d16a30e578,0.0515,0.0515,1,96,258,40,1,onetwo,,,,,,,,,,,,,,,,,,,,,,,,,,,,,,,,,,,,,,,,,,,,,,,,,,,,,,,,,,,,,,,,,,,,,,,,,,,,,,,,,,,,,,,,,,,,,,,,,,,,,,,,,,,,,,,,,,,,,,,,,,,,,,,,,,,,,,,,,
,,646b6c82f2828954c3456fb2,2024-02-19_03h14.03.784,kallum_motion_pilot,2023.2.2,Win32,60.24096386,646b6c82f2828954c3456fb2,65d2b6c8f2eece985d8e374c,65d2b9587c0ea4d16a30e578,0.0517,0.0517,1,97,259,70,1,fourtwo,,,,,,,,,,,,,,,,,,,,,,,,,,,,,,,,,,,,,,,,,,,,,,,,,,,,,,,,,,,,,,,,,,,,,,,,,,,,,,,,,,,,,,,,,,,,,,,,,,,,,,,,,,,,,,,,,,,,,,,,,,,,,,,,,,,,,,,,,
,,646b6c82f2828954c3456fb2,2024-02-19_03h14.03.784,kallum_motion_pilot,2023.2.2,Win32,60.24096386,646b6c82f2828954c3456fb2,65d2b6c8f2eece985d8e374c,65d2b9587c0ea4d16a30e578,0.0517,0.0519,1,98,260,21,1,threefour,,,,,,,,,,,,,,,,,,,,,,,,,,,,,,,,,,,,,,,,,,,,,,,,,,,,,,,,,,,,,,,,,,,,,,,,,,,,,,,,,,,,,,,,,,,,,,,,,,,,,,,,,,,,,,,,,,,,,,,,,,,,,,,,,,,,,,,,,
,,646b6c82f2828954c3456fb2,2024-02-19_03h14.03.784,kallum_motion_pilot,2023.2.2,Win32,60.24096386,646b6c82f2828954c3456fb2,65d2b6c8f2eece985d8e374c,65d2b9587c0ea4d16a30e578,0.0519,0.052,1,99,261,106,1,sixfive,,,,,,,,,,,,,,,,,,,,,,,,,,,,,,,,,,,,,,,,,,,,,,,,,,,,,,,,,,,,,,,,,,,,,,,,,,,,,,,,,,,,,,,,,,,,,,,,,,,,,,,,,,,,,,,,,,,,,,,,,,,,,,,,,,,,,,,,,
,,646b6c82f2828954c3456fb2,2024-02-19_03h14.03.784,kallum_motion_pilot,2023.2.2,Win32,60.24096386,646b6c82f2828954c3456fb2,65d2b6c8f2eece985d8e374c,65d2b9587c0ea4d16a30e578,0.052,0.0521,1,100,262,89,1,fiveseven,,,,,,,,,,,,,,,,,,,,,,,,,,,,,,,,,,,,,,,,,,,,,,,,,,,,,,,,,,,,,,,,,,,,,,,,,,,,,,,,,,,,,,,,,,,,,,,,,,,,,,,,,,,,,,,,,,,,,,,,,,,,,,,,,,,,,,,,,
,,646b6c82f2828954c3456fb2,2024-02-19_03h14.03.784,kallum_motion_pilot,2023.2.2,Win32,60.24096386,646b6c82f2828954c3456fb2,65d2b6c8f2eece985d8e374c,65d2b9587c0ea4d16a30e578,0.0522,0.0523,1,101,263,22,1,fourtwo,,,,,,,,,,,,,,,,,,,,,,,,,,,,,,,,,,,,,,,,,,,,,,,,,,,,,,,,,,,,,,,,,,,,,,,,,,,,,,,,,,,,,,,,,,,,,,,,,,,,,,,,,,,,,,,,,,,,,,,,,,,,,,,,,,,,,,,,,
,,646b6c82f2828954c3456fb2,2024-02-19_03h14.03.784,kallum_motion_pilot,2023.2.2,Win32,60.24096386,646b6c82f2828954c3456fb2,65d2b6c8f2eece985d8e374c,65d2b9587c0ea4d16a30e578,0.0524,0.0525,1,102,264,45,1,threefour,,,,,,,,,,,,,,,,,,,,,,,,,,,,,,,,,,,,,,,,,,,,,,,,,,,,,,,,,,,,,,,,,,,,,,,,,,,,,,,,,,,,,,,,,,,,,,,,,,,,,,,,,,,,,,,,,,,,,,,,,,,,,,,,,,,,,,,,,
,,646b6c82f2828954c3456fb2,2024-02-19_03h14.03.784,kallum_motion_pilot,2023.2.2,Win32,60.24096386,646b6c82f2828954c3456fb2,65d2b6c8f2eece985d8e374c,65d2b9587c0ea4d16a30e578,0.0525,0.0526,1,103,265,20,1,threeone,,,,,,,,,,,,,,,,,,,,,,,,,,,,,,,,,,,,,,,,,,,,,,,,,,,,,,,,,,,,,,,,,,,,,,,,,,,,,,,,,,,,,,,,,,,,,,,,,,,,,,,,,,,,,,,,,,,,,,,,,,,,,,,,,,,,,,,,,
,,646b6c82f2828954c3456fb2,2024-02-19_03h14.03.784,kallum_motion_pilot,2023.2.2,Win32,60.24096386,646b6c82f2828954c3456fb2,65d2b6c8f2eece985d8e374c,65d2b9587c0ea4d16a30e578,0.0527,0.0527,1,104,266,97,1,fiveseven,,,,,,,,,,,,,,,,,,,,,,,,,,,,,,,,,,,,,,,,,,,,,,,,,,,,,,,,,,,,,,,,,,,,,,,,,,,,,,,,,,,,,,,,,,,,,,,,,,,,,,,,,,,,,,,,,,,,,,,,,,,,,,,,,,,,,,,,,
,,646b6c82f2828954c3456fb2,2024-02-19_03h14.03.784,kallum_motion_pilot,2023.2.2,Win32,60.24096386,646b6c82f2828954c3456fb2,65d2b6c8f2eece985d8e374c,65d2b9587c0ea4d16a30e578,0.0528,0.0529,1,105,267,27,1,twofour,,,,,,,,,,,,,,,,,,,,,,,,,,,,,,,,,,,,,,,,,,,,,,,,,,,,,,,,,,,,,,,,,,,,,,,,,,,,,,,,,,,,,,,,,,,,,,,,,,,,,,,,,,,,,,,,,,,,,,,,,,,,,,,,,,,,,,,,,
,,646b6c82f2828954c3456fb2,2024-02-19_03h14.03.784,kallum_motion_pilot,2023.2.2,Win32,60.24096386,646b6c82f2828954c3456fb2,65d2b6c8f2eece985d8e374c,65d2b9587c0ea4d16a30e578,0.0529,0.053,1,106,268,33,1,onethree,,,,,,,,,,,,,,,,,,,,,,,,,,,,,,,,,,,,,,,,,,,,,,,,,,,,,,,,,,,,,,,,,,,,,,,,,,,,,,,,,,,,,,,,,,,,,,,,,,,,,,,,,,,,,,,,,,,,,,,,,,,,,,,,,,,,,,,,,
,,646b6c82f2828954c3456fb2,2024-02-19_03h14.03.784,kallum_motion_pilot,2023.2.2,Win32,60.24096386,646b6c82f2828954c3456fb2,65d2b6c8f2eece985d8e374c,65d2b9587c0ea4d16a30e578,0.053,0.0531,1,107,269,67,1,twofour,,,,,,,,,,,,,,,,,,,,,,,,,,,,,,,,,,,,,,,,,,,,,,,,,,,,,,,,,,,,,,,,,,,,,,,,,,,,,,,,,,,,,,,,,,,,,,,,,,,,,,,,,,,,,,,,,,,,,,,,,,,,,,,,,,,,,,,,,
,,646b6c82f2828954c3456fb2,2024-02-19_03h14.03.784,kallum_motion_pilot,2023.2.2,Win32,60.24096386,646b6c82f2828954c3456fb2,65d2b6c8f2eece985d8e374c,65d2b9587c0ea4d16a30e578,0.0532,0.0533,1,108,270,112,1,fivesix,,,,,,,,,,,,,,,,,,,,,,,,,,,,,,,,,,,,,,,,,,,,,,,,,,,,,,,,,,,,,,,,,,,,,,,,,,,,,,,,,,,,,,,,,,,,,,,,,,,,,,,,,,,,,,,,,,,,,,,,,,,,,,,,,,,,,,,,,
,,646b6c82f2828954c3456fb2,2024-02-19_03h14.03.784,kallum_motion_pilot,2023.2.2,Win32,60.24096386,646b6c82f2828954c3456fb2,65d2b6c8f2eece985d8e374c,65d2b9587c0ea4d16a30e578,0.0534,0.0534,1,109,271,142,1,eightsix,,,,,,,,,,,,,,,,,,,,,,,,,,,,,,,,,,,,,,,,,,,,,,,,,,,,,,,,,,,,,,,,,,,,,,,,,,,,,,,,,,,,,,,,,,,,,,,,,,,,,,,,,,,,,,,,,,,,,,,,,,,,,,,,,,,,,,,,,
,,646b6c82f2828954c3456fb2,2024-02-19_03h14.03.784,kallum_motion_pilot,2023.2.2,Win32,60.24096386,646b6c82f2828954c3456fb2,65d2b6c8f2eece985d8e374c,65d2b9587c0ea4d16a30e578,0.0534,0.0536,1,110,272,62,1,fourtwo,,,,,,,,,,,,,,,,,,,,,,,,,,,,,,,,,,,,,,,,,,,,,,,,,,,,,,,,,,,,,,,,,,,,,,,,,,,,,,,,,,,,,,,,,,,,,,,,,,,,,,,,,,,,,,,,,,,,,,,,,,,,,,,,,,,,,,,,,
,,646b6c82f2828954c3456fb2,2024-02-19_03h14.03.784,kallum_motion_pilot,2023.2.2,Win32,60.24096386,646b6c82f2828954c3456fb2,65d2b6c8f2eece985d8e374c,65d2b9587c0ea4d16a30e578,0.0536,0.0536,1,111,273,32,1,onetwo,,,,,,,,,,,,,,,,,,,,,,,,,,,,,,,,,,,,,,,,,,,,,,,,,,,,,,,,,,,,,,,,,,,,,,,,,,,,,,,,,,,,,,,,,,,,,,,,,,,,,,,,,,,,,,,,,,,,,,,,,,,,,,,,,,,,,,,,,
,,646b6c82f2828954c3456fb2,2024-02-19_03h14.03.784,kallum_motion_pilot,2023.2.2,Win32,60.24096386,646b6c82f2828954c3456fb2,65d2b6c8f2eece985d8e374c,65d2b9587c0ea4d16a30e578,0.0537,0.0537,1,112,274,143,1,eightseven,,,,,,,,,,,,,,,,,,,,,,,,,,,,,,,,,,,,,,,,,,,,,,,,,,,,,,,,,,,,,,,,,,,,,,,,,,,,,,,,,,,,,,,,,,,,,,,,,,,,,,,,,,,,,,,,,,,,,,,,,,,,,,,,,,,,,,,,,
,,646b6c82f2828954c3456fb2,2024-02-19_03h14.03.784,kallum_motion_pilot,2023.2.2,Win32,60.24096386,646b6c82f2828954c3456fb2,65d2b6c8f2eece985d8e374c,65d2b9587c0ea4d16a30e578,0.0538,0.0539,1,113,275,113,1,fiveseven,,,,,,,,,,,,,,,,,,,,,,,,,,,,,,,,,,,,,,,,,,,,,,,,,,,,,,,,,,,,,,,,,,,,,,,,,,,,,,,,,,,,,,,,,,,,,,,,,,,,,,,,,,,,,,,,,,,,,,,,,,,,,,,,,,,,,,,,,
,,646b6c82f2828954c3456fb2,2024-02-19_03h14.03.784,kallum_motion_pilot,2023.2.2,Win32,60.24096386,646b6c82f2828954c3456fb2,65d2b6c8f2eece985d8e374c,65d2b9587c0ea4d16a30e578,0.0539,0.054,1,114,276,114,1,sixfive,,,,,,,,,,,,,,,,,,,,,,,,,,,,,,,,,,,,,,,,,,,,,,,,,,,,,,,,,,,,,,,,,,,,,,,,,,,,,,,,,,,,,,,,,,,,,,,,,,,,,,,,,,,,,,,,,,,,,,,,,,,,,,,,,,,,,,,,,
,,646b6c82f2828954c3456fb2,2024-02-19_03h14.03.784,kallum_motion_pilot,2023.2.2,Win32,60.24096386,646b6c82f2828954c3456fb2,65d2b6c8f2eece985d8e374c,65d2b9587c0ea4d16a30e578,0.054,0.0541,1,115,277,80,1,fivesix,,,,,,,,,,,,,,,,,,,,,,,,,,,,,,,,,,,,,,,,,,,,,,,,,,,,,,,,,,,,,,,,,,,,,,,,,,,,,,,,,,,,,,,,,,,,,,,,,,,,,,,,,,,,,,,,,,,,,,,,,,,,,,,,,,,,,,,,,
