startup.started,startup.stopped,Prolific ID*,date,expName,psychopyVersion,OS,frameRate,participant,study_id,session,stimpositions.started,stimpositions.stopped,hardcoded_stimulus_positions.thisRepN,hardcoded_stimulus_positions.thisTrialN,hardcoded_stimulus_positions.thisN,hardcoded_stimulus_positions.thisIndex,hardcoded_stimulus_positions.ran,StimulusPos,stimorientation.started,stimorientation.stopped,prac_stimorientation_import_loop.thisRepN,prac_stimorientation_import_loop.thisTrialN,prac_stimorientation_import_loop.thisN,prac_stimorientation_import_loop.thisIndex,prac_stimorientation_import_loop.ran,Stimorientation,welcome_instr.started,welcome_instr.stopped,key_resp.keys,key_resp.rt,key_resp.duration,response_steppedout_1.started,response_steppedout_1.stopped,key_resp_20.keys,key_resp_20.rt,key_resp_20.duration,response_steppedout_2.started,response_steppedout_2.stopped,key_resp_19.keys,key_resp_19.rt,key_resp_19.duration,stim_response_instr.started,stim_response_instr.stopped,key_resp_15.keys,key_resp_15.rt,key_resp_15.duration,direction_instr_2.started,direction_instr_2.stopped,key_resp_9.keys,key_resp_9.rt,key_resp_9.duration,instr_prac.started,instr_prac.stopped,key_resp_10.keys,key_resp_10.rt,key_resp_10.duration,Stim1_display_prac.started,Stim1_display_prac.stopped,Ecc,Circle1_ori,Circle2_ori,response_prac.started,similarity,response_time,response_prac.stopped,mouse_5.x,mouse_5.y,mouse_5.leftButton,mouse_5.midButton,mouse_5.rightButton,mouse_5.clicked_name,responseprac_feedback.started,responseprac_feedback.stopped,summary2_prac.started,summary2_prac.stopped,mouse_6.x,mouse_6.y,mouse_6.leftButton,mouse_6.midButton,mouse_6.rightButton,mouse_6.clicked_name,duringprac.thisRepN,duringprac.thisTrialN,duringprac.thisN,duringprac.thisIndex,duringprac.ran,begin.started,begin.stopped,key_resp_22.keys,key_resp_22.rt,key_resp_22.duration,Stim1_display.started,Stim1_display.stopped,circle1_ori,circle2_ori,circle1_SF,circle2_SF,response.started,response.stopped,mouse.x,mouse.y,mouse.leftButton,mouse.midButton,mouse.rightButton,mouse.clicked_name,trialnumber,double_pass.thisRepN,double_pass.thisTrialN,double_pass.thisN,double_pass.thisIndex,double_pass.ran,double_pass.order,main_trial.thisRepN,main_trial.thisTrialN,main_trial.thisN,main_trial.thisIndex,main_trial.ran,main_trial.order,Trial_Counter,Catch,Frequencies,response_2.started,response_2.stopped,mouse_2.x,mouse_2.y,mouse_2.leftButton,mouse_2.midButton,mouse_2.rightButton,mouse_2.clicked_name,special_trial.started,special_trial.stopped,catch_1.started,catch_1.stopped,mouse_3.x,mouse_3.y,mouse_3.leftButton,mouse_3.midButton,mouse_3.rightButton,catchresponse,catchnumber,response_time_catch,response_sum.started,response_sum.stopped,mouse_11.x,mouse_11.y,mouse_11.leftButton,mouse_11.midButton,mouse_11.rightButton,flip_presentation_sequence_for_double_pass.started,flip_presentation_sequence_for_double_pass.stopped,goodbye.started,goodbye.stopped,key_resp_3.keys,key_resp_3.rt,key_resp_3.duration
0.0003,0.0004,648251f5f13f3cab9a86e5cc,2024-02-22_16h24.29.974,kallum_motion_pilot,2023.2.2,Win32,59.88023952,648251f5f13f3cab9a86e5cc,65d6bb0e977760de756971f7,65d6be55972c1d2144b7f504,,,,,,,,,,,,,,,,,,,,,,,,,,,,,,,,,,,,,,,,,,,,,,,,,,,,,,,,,,,,,,,,,,,,,,,,,,,,,,,,,,,,,,,,,,,,,,,,,,,,,,,,,,,,,,,,,,,,,,,,,,,,,,,,,,,,,,,,,,,,,,,,,
,,648251f5f13f3cab9a86e5cc,2024-02-22_16h24.29.974,kallum_motion_pilot,2023.2.2,Win32,59.88023952,648251f5f13f3cab9a86e5cc,65d6bb0e977760de756971f7,65d6be55972c1d2144b7f504,0.0173,0.0174,0,0,0,134,1,eightsix,,,,,,,,,,,,,,,,,,,,,,,,,,,,,,,,,,,,,,,,,,,,,,,,,,,,,,,,,,,,,,,,,,,,,,,,,,,,,,,,,,,,,,,,,,,,,,,,,,,,,,,,,,,,,,,,,,,,,,,,,,,,,,,,,,,,,,,,,
,,648251f5f13f3cab9a86e5cc,2024-02-22_16h24.29.974,kallum_motion_pilot,2023.2.2,Win32,59.88023952,648251f5f13f3cab9a86e5cc,65d6bb0e977760de756971f7,65d6be55972c1d2144b7f504,0.0177,0.0177,0,1,1,84,1,sevenfive,,,,,,,,,,,,,,,,,,,,,,,,,,,,,,,,,,,,,,,,,,,,,,,,,,,,,,,,,,,,,,,,,,,,,,,,,,,,,,,,,,,,,,,,,,,,,,,,,,,,,,,,,,,,,,,,,,,,,,,,,,,,,,,,,,,,,,,,,
,,648251f5f13f3cab9a86e5cc,2024-02-22_16h24.29.974,kallum_motion_pilot,2023.2.2,Win32,59.88023952,648251f5f13f3cab9a86e5cc,65d6bb0e977760de756971f7,65d6be55972c1d2144b7f504,0.0178,0.0178,0,2,2,105,1,fiveseven,,,,,,,,,,,,,,,,,,,,,,,,,,,,,,,,,,,,,,,,,,,,,,,,,,,,,,,,,,,,,,,,,,,,,,,,,,,,,,,,,,,,,,,,,,,,,,,,,,,,,,,,,,,,,,,,,,,,,,,,,,,,,,,,,,,,,,,,,
,,648251f5f13f3cab9a86e5cc,2024-02-22_16h24.29.974,kallum_motion_pilot,2023.2.2,Win32,59.88023952,648251f5f13f3cab9a86e5cc,65d6bb0e977760de756971f7,65d6be55972c1d2144b7f504,0.0179,0.0179,0,3,3,126,1,eightsix,,,,,,,,,,,,,,,,,,,,,,,,,,,,,,,,,,,,,,,,,,,,,,,,,,,,,,,,,,,,,,,,,,,,,,,,,,,,,,,,,,,,,,,,,,,,,,,,,,,,,,,,,,,,,,,,,,,,,,,,,,,,,,,,,,,,,,,,,
,,648251f5f13f3cab9a86e5cc,2024-02-22_16h24.29.974,kallum_motion_pilot,2023.2.2,Win32,59.88023952,648251f5f13f3cab9a86e5cc,65d6bb0e977760de756971f7,65d6be55972c1d2144b7f504,0.018,0.0181,0,4,4,110,1,eightsix,,,,,,,,,,,,,,,,,,,,,,,,,,,,,,,,,,,,,,,,,,,,,,,,,,,,,,,,,,,,,,,,,,,,,,,,,,,,,,,,,,,,,,,,,,,,,,,,,,,,,,,,,,,,,,,,,,,,,,,,,,,,,,,,,,,,,,,,,
,,648251f5f13f3cab9a86e5cc,2024-02-22_16h24.29.974,kallum_motion_pilot,2023.2.2,Win32,59.88023952,648251f5f13f3cab9a86e5cc,65d6bb0e977760de756971f7,65d6be55972c1d2144b7f504,0.0181,0.0181,0,5,5,69,1,threefour,,,,,,,,,,,,,,,,,,,,,,,,,,,,,,,,,,,,,,,,,,,,,,,,,,,,,,,,,,,,,,,,,,,,,,,,,,,,,,,,,,,,,,,,,,,,,,,,,,,,,,,,,,,,,,,,,,,,,,,,,,,,,,,,,,,,,,,,,
,,648251f5f13f3cab9a86e5cc,2024-02-22_16h24.29.974,kallum_motion_pilot,2023.2.2,Win32,59.88023952,648251f5f13f3cab9a86e5cc,65d6bb0e977760de756971f7,65d6be55972c1d2144b7f504,0.0182,0.0182,0,6,6,111,1,eightseven,,,,,,,,,,,,,,,,,,,,,,,,,,,,,,,,,,,,,,,,,,,,,,,,,,,,,,,,,,,,,,,,,,,,,,,,,,,,,,,,,,,,,,,,,,,,,,,,,,,,,,,,,,,,,,,,,,,,,,,,,,,,,,,,,,,,,,,,,
,,648251f5f13f3cab9a86e5cc,2024-02-22_16h24.29.974,kallum_motion_pilot,2023.2.2,Win32,59.88023952,648251f5f13f3cab9a86e5cc,65d6bb0e977760de756971f7,65d6be55972c1d2144b7f504,0.0184,0.0184,0,7,7,97,1,fiveseven,,,,,,,,,,,,,,,,,,,,,,,,,,,,,,,,,,,,,,,,,,,,,,,,,,,,,,,,,,,,,,,,,,,,,,,,,,,,,,,,,,,,,,,,,,,,,,,,,,,,,,,,,,,,,,,,,,,,,,,,,,,,,,,,,,,,,,,,,
,,648251f5f13f3cab9a86e5cc,2024-02-22_16h24.29.974,kallum_motion_pilot,2023.2.2,Win32,59.88023952,648251f5f13f3cab9a86e5cc,65d6bb0e977760de756971f7,65d6be55972c1d2144b7f504,0.0185,0.0185,0,8,8,14,1,fourtwo,,,,,,,,,,,,,,,,,,,,,,,,,,,,,,,,,,,,,,,,,,,,,,,,,,,,,,,,,,,,,,,,,,,,,,,,,,,,,,,,,,,,,,,,,,,,,,,,,,,,,,,,,,,,,,,,,,,,,,,,,,,,,,,,,,,,,,,,,
,,648251f5f13f3cab9a86e5cc,2024-02-22_16h24.29.974,kallum_motion_pilot,2023.2.2,Win32,59.88023952,648251f5f13f3cab9a86e5cc,65d6bb0e977760de756971f7,65d6be55972c1d2144b7f504,0.0185,0.0186,0,9,9,19,1,twofour,,,,,,,,,,,,,,,,,,,,,,,,,,,,,,,,,,,,,,,,,,,,,,,,,,,,,,,,,,,,,,,,,,,,,,,,,,,,,,,,,,,,,,,,,,,,,,,,,,,,,,,,,,,,,,,,,,,,,,,,,,,,,,,,,,,,,,,,,
,,648251f5f13f3cab9a86e5cc,2024-02-22_16h24.29.974,kallum_motion_pilot,2023.2.2,Win32,59.88023952,648251f5f13f3cab9a86e5cc,65d6bb0e977760de756971f7,65d6be55972c1d2144b7f504,0.0187,0.0187,0,10,10,31,1,fourthree,,,,,,,,,,,,,,,,,,,,,,,,,,,,,,,,,,,,,,,,,,,,,,,,,,,,,,,,,,,,,,,,,,,,,,,,,,,,,,,,,,,,,,,,,,,,,,,,,,,,,,,,,,,,,,,,,,,,,,,,,,,,,,,,,,,,,,,,,
,,648251f5f13f3cab9a86e5cc,2024-02-22_16h24.29.974,kallum_motion_pilot,2023.2.2,Win32,59.88023952,648251f5f13f3cab9a86e5cc,65d6bb0e977760de756971f7,65d6be55972c1d2144b7f504,0.0188,0.0188,0,11,11,45,1,threefour,,,,,,,,,,,,,,,,,,,,,,,,,,,,,,,,,,,,,,,,,,,,,,,,,,,,,,,,,,,,,,,,,,,,,,,,,,,,,,,,,,,,,,,,,,,,,,,,,,,,,,,,,,,,,,,,,,,,,,,,,,,,,,,,,,,,,,,,,
,,648251f5f13f3cab9a86e5cc,2024-02-22_16h24.29.974,kallum_motion_pilot,2023.2.2,Win32,59.88023952,648251f5f13f3cab9a86e5cc,65d6bb0e977760de756971f7,65d6be55972c1d2144b7f504,0.0188,0.0188,0,12,12,7,1,fourthree,,,,,,,,,,,,,,,,,,,,,,,,,,,,,,,,,,,,,,,,,,,,,,,,,,,,,,,,,,,,,,,,,,,,,,,,,,,,,,,,,,,,,,,,,,,,,,,,,,,,,,,,,,,,,,,,,,,,,,,,,,,,,,,,,,,,,,,,,
,,648251f5f13f3cab9a86e5cc,2024-02-22_16h24.29.974,kallum_motion_pilot,2023.2.2,Win32,59.88023952,648251f5f13f3cab9a86e5cc,65d6bb0e977760de756971f7,65d6be55972c1d2144b7f504,0.0189,0.0189,0,13,13,103,1,eightseven,,,,,,,,,,,,,,,,,,,,,,,,,,,,,,,,,,,,,,,,,,,,,,,,,,,,,,,,,,,,,,,,,,,,,,,,,,,,,,,,,,,,,,,,,,,,,,,,,,,,,,,,,,,,,,,,,,,,,,,,,,,,,,,,,,,,,,,,,
,,648251f5f13f3cab9a86e5cc,2024-02-22_16h24.29.974,kallum_motion_pilot,2023.2.2,Win32,59.88023952,648251f5f13f3cab9a86e5cc,65d6bb0e977760de756971f7,65d6be55972c1d2144b7f504,0.019,0.019,0,14,14,48,1,onetwo,,,,,,,,,,,,,,,,,,,,,,,,,,,,,,,,,,,,,,,,,,,,,,,,,,,,,,,,,,,,,,,,,,,,,,,,,,,,,,,,,,,,,,,,,,,,,,,,,,,,,,,,,,,,,,,,,,,,,,,,,,,,,,,,,,,,,,,,,
,,648251f5f13f3cab9a86e5cc,2024-02-22_16h24.29.974,kallum_motion_pilot,2023.2.2,Win32,59.88023952,648251f5f13f3cab9a86e5cc,65d6bb0e977760de756971f7,65d6be55972c1d2144b7f504,0.0191,0.0191,0,15,15,154,1,sixfive,,,,,,,,,,,,,,,,,,,,,,,,,,,,,,,,,,,,,,,,,,,,,,,,,,,,,,,,,,,,,,,,,,,,,,,,,,,,,,,,,,,,,,,,,,,,,,,,,,,,,,,,,,,,,,,,,,,,,,,,,,,,,,,,,,,,,,,,,
,,648251f5f13f3cab9a86e5cc,2024-02-22_16h24.29.974,kallum_motion_pilot,2023.2.2,Win32,59.88023952,648251f5f13f3cab9a86e5cc,65d6bb0e977760de756971f7,65d6be55972c1d2144b7f504,0.0192,0.0192,0,16,16,127,1,eightseven,,,,,,,,,,,,,,,,,,,,,,,,,,,,,,,,,,,,,,,,,,,,,,,,,,,,,,,,,,,,,,,,,,,,,,,,,,,,,,,,,,,,,,,,,,,,,,,,,,,,,,,,,,,,,,,,,,,,,,,,,,,,,,,,,,,,,,,,,
,,648251f5f13f3cab9a86e5cc,2024-02-22_16h24.29.974,kallum_motion_pilot,2023.2.2,Win32,59.88023952,648251f5f13f3cab9a86e5cc,65d6bb0e977760de756971f7,65d6be55972c1d2144b7f504,0.0193,0.0193,0,17,17,138,1,sixfive,,,,,,,,,,,,,,,,,,,,,,,,,,,,,,,,,,,,,,,,,,,,,,,,,,,,,,,,,,,,,,,,,,,,,,,,,,,,,,,,,,,,,,,,,,,,,,,,,,,,,,,,,,,,,,,,,,,,,,,,,,,,,,,,,,,,,,,,,
,,648251f5f13f3cab9a86e5cc,2024-02-22_16h24.29.974,kallum_motion_pilot,2023.2.2,Win32,59.88023952,648251f5f13f3cab9a86e5cc,65d6bb0e977760de756971f7,65d6be55972c1d2144b7f504,0.0194,0.0194,0,18,18,82,1,sixfive,,,,,,,,,,,,,,,,,,,,,,,,,,,,,,,,,,,,,,,,,,,,,,,,,,,,,,,,,,,,,,,,,,,,,,,,,,,,,,,,,,,,,,,,,,,,,,,,,,,,,,,,,,,,,,,,,,,,,,,,,,,,,,,,,,,,,,,,,
,,648251f5f13f3cab9a86e5cc,2024-02-22_16h24.29.974,kallum_motion_pilot,2023.2.2,Win32,59.88023952,648251f5f13f3cab9a86e5cc,65d6bb0e977760de756971f7,65d6be55972c1d2144b7f504,0.0194,0.0194,0,19,19,9,1,onethree,,,,,,,,,,,,,,,,,,,,,,,,,,,,,,,,,,,,,,,,,,,,,,,,,,,,,,,,,,,,,,,,,,,,,,,,,,,,,,,,,,,,,,,,,,,,,,,,,,,,,,,,,,,,,,,,,,,,,,,,,,,,,,,,,,,,,,,,,
,,648251f5f13f3cab9a86e5cc,2024-02-22_16h24.29.974,kallum_motion_pilot,2023.2.2,Win32,59.88023952,648251f5f13f3cab9a86e5cc,65d6bb0e977760de756971f7,65d6be55972c1d2144b7f504,0.0195,0.0195,0,20,20,81,1,fiveseven,,,,,,,,,,,,,,,,,,,,,,,,,,,,,,,,,,,,,,,,,,,,,,,,,,,,,,,,,,,,,,,,,,,,,,,,,,,,,,,,,,,,,,,,,,,,,,,,,,,,,,,,,,,,,,,,,,,,,,,,,,,,,,,,,,,,,,,,,
,,648251f5f13f3cab9a86e5cc,2024-02-22_16h24.29.974,kallum_motion_pilot,2023.2.2,Win32,59.88023952,648251f5f13f3cab9a86e5cc,65d6bb0e977760de756971f7,65d6be55972c1d2144b7f504,0.0196,0.0196,0,21,21,75,1,twofour,,,,,,,,,,,,,,,,,,,,,,,,,,,,,,,,,,,,,,,,,,,,,,,,,,,,,,,,,,,,,,,,,,,,,,,,,,,,,,,,,,,,,,,,,,,,,,,,,,,,,,,,,,,,,,,,,,,,,,,,,,,,,,,,,,,,,,,,,
,,648251f5f13f3cab9a86e5cc,2024-02-22_16h24.29.974,kallum_motion_pilot,2023.2.2,Win32,59.88023952,648251f5f13f3cab9a86e5cc,65d6bb0e977760de756971f7,65d6be55972c1d2144b7f504,0.0196,0.0196,0,22,22,107,1,sixeight,,,,,,,,,,,,,,,,,,,,,,,,,,,,,,,,,,,,,,,,,,,,,,,,,,,,,,,,,,,,,,,,,,,,,,,,,,,,,,,,,,,,,,,,,,,,,,,,,,,,,,,,,,,,,,,,,,,,,,,,,,,,,,,,,,,,,,,,,
,,648251f5f13f3cab9a86e5cc,2024-02-22_16h24.29.974,kallum_motion_pilot,2023.2.2,Win32,59.88023952,648251f5f13f3cab9a86e5cc,65d6bb0e977760de756971f7,65d6be55972c1d2144b7f504,0.0197,0.0198,0,23,23,109,1,seveneight,,,,,,,,,,,,,,,,,,,,,,,,,,,,,,,,,,,,,,,,,,,,,,,,,,,,,,,,,,,,,,,,,,,,,,,,,,,,,,,,,,,,,,,,,,,,,,,,,,,,,,,,,,,,,,,,,,,,,,,,,,,,,,,,,,,,,,,,,
,,648251f5f13f3cab9a86e5cc,2024-02-22_16h24.29.974,kallum_motion_pilot,2023.2.2,Win32,59.88023952,648251f5f13f3cab9a86e5cc,65d6bb0e977760de756971f7,65d6be55972c1d2144b7f504,0.0198,0.0198,0,24,24,17,1,onethree,,,,,,,,,,,,,,,,,,,,,,,,,,,,,,,,,,,,,,,,,,,,,,,,,,,,,,,,,,,,,,,,,,,,,,,,,,,,,,,,,,,,,,,,,,,,,,,,,,,,,,,,,,,,,,,,,,,,,,,,,,,,,,,,,,,,,,,,,
,,648251f5f13f3cab9a86e5cc,2024-02-22_16h24.29.974,kallum_motion_pilot,2023.2.2,Win32,59.88023952,648251f5f13f3cab9a86e5cc,65d6bb0e977760de756971f7,65d6be55972c1d2144b7f504,0.02,0.02,0,25,25,135,1,eightseven,,,,,,,,,,,,,,,,,,,,,,,,,,,,,,,,,,,,,,,,,,,,,,,,,,,,,,,,,,,,,,,,,,,,,,,,,,,,,,,,,,,,,,,,,,,,,,,,,,,,,,,,,,,,,,,,,,,,,,,,,,,,,,,,,,,,,,,,,
,,648251f5f13f3cab9a86e5cc,2024-02-22_16h24.29.974,kallum_motion_pilot,2023.2.2,Win32,59.88023952,648251f5f13f3cab9a86e5cc,65d6bb0e977760de756971f7,65d6be55972c1d2144b7f504,0.02,0.02,0,26,26,102,1,eightsix,,,,,,,,,,,,,,,,,,,,,,,,,,,,,,,,,,,,,,,,,,,,,,,,,,,,,,,,,,,,,,,,,,,,,,,,,,,,,,,,,,,,,,,,,,,,,,,,,,,,,,,,,,,,,,,,,,,,,,,,,,,,,,,,,,,,,,,,,
,,648251f5f13f3cab9a86e5cc,2024-02-22_16h24.29.974,kallum_motion_pilot,2023.2.2,Win32,59.88023952,648251f5f13f3cab9a86e5cc,65d6bb0e977760de756971f7,65d6be55972c1d2144b7f504,0.0201,0.0202,0,27,27,86,1,eightsix,,,,,,,,,,,,,,,,,,,,,,,,,,,,,,,,,,,,,,,,,,,,,,,,,,,,,,,,,,,,,,,,,,,,,,,,,,,,,,,,,,,,,,,,,,,,,,,,,,,,,,,,,,,,,,,,,,,,,,,,,,,,,,,,,,,,,,,,,
,,648251f5f13f3cab9a86e5cc,2024-02-22_16h24.29.974,kallum_motion_pilot,2023.2.2,Win32,59.88023952,648251f5f13f3cab9a86e5cc,65d6bb0e977760de756971f7,65d6be55972c1d2144b7f504,0.0202,0.0202,0,28,28,33,1,onethree,,,,,,,,,,,,,,,,,,,,,,,,,,,,,,,,,,,,,,,,,,,,,,,,,,,,,,,,,,,,,,,,,,,,,,,,,,,,,,,,,,,,,,,,,,,,,,,,,,,,,,,,,,,,,,,,,,,,,,,,,,,,,,,,,,,,,,,,,
,,648251f5f13f3cab9a86e5cc,2024-02-22_16h24.29.974,kallum_motion_pilot,2023.2.2,Win32,59.88023952,648251f5f13f3cab9a86e5cc,65d6bb0e977760de756971f7,65d6be55972c1d2144b7f504,0.0202,0.0203,0,29,29,37,1,threefour,,,,,,,,,,,,,,,,,,,,,,,,,,,,,,,,,,,,,,,,,,,,,,,,,,,,,,,,,,,,,,,,,,,,,,,,,,,,,,,,,,,,,,,,,,,,,,,,,,,,,,,,,,,,,,,,,,,,,,,,,,,,,,,,,,,,,,,,,
,,648251f5f13f3cab9a86e5cc,2024-02-22_16h24.29.974,kallum_motion_pilot,2023.2.2,Win32,59.88023952,648251f5f13f3cab9a86e5cc,65d6bb0e977760de756971f7,65d6be55972c1d2144b7f504,0.0203,0.0203,0,30,30,115,1,sixeight,,,,,,,,,,,,,,,,,,,,,,,,,,,,,,,,,,,,,,,,,,,,,,,,,,,,,,,,,,,,,,,,,,,,,,,,,,,,,,,,,,,,,,,,,,,,,,,,,,,,,,,,,,,,,,,,,,,,,,,,,,,,,,,,,,,,,,,,,
,,648251f5f13f3cab9a86e5cc,2024-02-22_16h24.29.974,kallum_motion_pilot,2023.2.2,Win32,59.88023952,648251f5f13f3cab9a86e5cc,65d6bb0e977760de756971f7,65d6be55972c1d2144b7f504,0.0204,0.0204,0,31,31,29,1,threefour,,,,,,,,,,,,,,,,,,,,,,,,,,,,,,,,,,,,,,,,,,,,,,,,,,,,,,,,,,,,,,,,,,,,,,,,,,,,,,,,,,,,,,,,,,,,,,,,,,,,,,,,,,,,,,,,,,,,,,,,,,,,,,,,,,,,,,,,,
,,648251f5f13f3cab9a86e5cc,2024-02-22_16h24.29.974,kallum_motion_pilot,2023.2.2,Win32,59.88023952,648251f5f13f3cab9a86e5cc,65d6bb0e977760de756971f7,65d6be55972c1d2144b7f504,0.0205,0.0205,0,32,32,54,1,fourtwo,,,,,,,,,,,,,,,,,,,,,,,,,,,,,,,,,,,,,,,,,,,,,,,,,,,,,,,,,,,,,,,,,,,,,,,,,,,,,,,,,,,,,,,,,,,,,,,,,,,,,,,,,,,,,,,,,,,,,,,,,,,,,,,,,,,,,,,,,
,,648251f5f13f3cab9a86e5cc,2024-02-22_16h24.29.974,kallum_motion_pilot,2023.2.2,Win32,59.88023952,648251f5f13f3cab9a86e5cc,65d6bb0e977760de756971f7,65d6be55972c1d2144b7f504,0.0214,0.0215,0,33,33,28,1,threeone,,,,,,,,,,,,,,,,,,,,,,,,,,,,,,,,,,,,,,,,,,,,,,,,,,,,,,,,,,,,,,,,,,,,,,,,,,,,,,,,,,,,,,,,,,,,,,,,,,,,,,,,,,,,,,,,,,,,,,,,,,,,,,,,,,,,,,,,,
,,648251f5f13f3cab9a86e5cc,2024-02-22_16h24.29.974,kallum_motion_pilot,2023.2.2,Win32,59.88023952,648251f5f13f3cab9a86e5cc,65d6bb0e977760de756971f7,65d6be55972c1d2144b7f504,0.0215,0.0215,0,34,34,35,1,twofour,,,,,,,,,,,,,,,,,,,,,,,,,,,,,,,,,,,,,,,,,,,,,,,,,,,,,,,,,,,,,,,,,,,,,,,,,,,,,,,,,,,,,,,,,,,,,,,,,,,,,,,,,,,,,,,,,,,,,,,,,,,,,,,,,,,,,,,,,
,,648251f5f13f3cab9a86e5cc,2024-02-22_16h24.29.974,kallum_motion_pilot,2023.2.2,Win32,59.88023952,648251f5f13f3cab9a86e5cc,65d6bb0e977760de756971f7,65d6be55972c1d2144b7f504,0.0217,0.0217,0,35,35,30,1,fourtwo,,,,,,,,,,,,,,,,,,,,,,,,,,,,,,,,,,,,,,,,,,,,,,,,,,,,,,,,,,,,,,,,,,,,,,,,,,,,,,,,,,,,,,,,,,,,,,,,,,,,,,,,,,,,,,,,,,,,,,,,,,,,,,,,,,,,,,,,,
,,648251f5f13f3cab9a86e5cc,2024-02-22_16h24.29.974,kallum_motion_pilot,2023.2.2,Win32,59.88023952,648251f5f13f3cab9a86e5cc,65d6bb0e977760de756971f7,65d6be55972c1d2144b7f504,0.0217,0.0217,0,36,36,18,1,twoone,,,,,,,,,,,,,,,,,,,,,,,,,,,,,,,,,,,,,,,,,,,,,,,,,,,,,,,,,,,,,,,,,,,,,,,,,,,,,,,,,,,,,,,,,,,,,,,,,,,,,,,,,,,,,,,,,,,,,,,,,,,,,,,,,,,,,,,,,
,,648251f5f13f3cab9a86e5cc,2024-02-22_16h24.29.974,kallum_motion_pilot,2023.2.2,Win32,59.88023952,648251f5f13f3cab9a86e5cc,65d6bb0e977760de756971f7,65d6be55972c1d2144b7f504,0.0218,0.0218,0,37,37,157,1,seveneight,,,,,,,,,,,,,,,,,,,,,,,,,,,,,,,,,,,,,,,,,,,,,,,,,,,,,,,,,,,,,,,,,,,,,,,,,,,,,,,,,,,,,,,,,,,,,,,,,,,,,,,,,,,,,,,,,,,,,,,,,,,,,,,,,,,,,,,,,
,,648251f5f13f3cab9a86e5cc,2024-02-22_16h24.29.974,kallum_motion_pilot,2023.2.2,Win32,59.88023952,648251f5f13f3cab9a86e5cc,65d6bb0e977760de756971f7,65d6be55972c1d2144b7f504,0.0219,0.0219,0,38,38,68,1,threeone,,,,,,,,,,,,,,,,,,,,,,,,,,,,,,,,,,,,,,,,,,,,,,,,,,,,,,,,,,,,,,,,,,,,,,,,,,,,,,,,,,,,,,,,,,,,,,,,,,,,,,,,,,,,,,,,,,,,,,,,,,,,,,,,,,,,,,,,,
,,648251f5f13f3cab9a86e5cc,2024-02-22_16h24.29.974,kallum_motion_pilot,2023.2.2,Win32,59.88023952,648251f5f13f3cab9a86e5cc,65d6bb0e977760de756971f7,65d6be55972c1d2144b7f504,0.022,0.022,0,39,39,90,1,sixfive,,,,,,,,,,,,,,,,,,,,,,,,,,,,,,,,,,,,,,,,,,,,,,,,,,,,,,,,,,,,,,,,,,,,,,,,,,,,,,,,,,,,,,,,,,,,,,,,,,,,,,,,,,,,,,,,,,,,,,,,,,,,,,,,,,,,,,,,,
,,648251f5f13f3cab9a86e5cc,2024-02-22_16h24.29.974,kallum_motion_pilot,2023.2.2,Win32,59.88023952,648251f5f13f3cab9a86e5cc,65d6bb0e977760de756971f7,65d6be55972c1d2144b7f504,0.022,0.022,0,40,40,59,1,twofour,,,,,,,,,,,,,,,,,,,,,,,,,,,,,,,,,,,,,,,,,,,,,,,,,,,,,,,,,,,,,,,,,,,,,,,,,,,,,,,,,,,,,,,,,,,,,,,,,,,,,,,,,,,,,,,,,,,,,,,,,,,,,,,,,,,,,,,,,
,,648251f5f13f3cab9a86e5cc,2024-02-22_16h24.29.974,kallum_motion_pilot,2023.2.2,Win32,59.88023952,648251f5f13f3cab9a86e5cc,65d6bb0e977760de756971f7,65d6be55972c1d2144b7f504,0.0221,0.0221,0,41,41,161,1,fiveseven,,,,,,,,,,,,,,,,,,,,,,,,,,,,,,,,,,,,,,,,,,,,,,,,,,,,,,,,,,,,,,,,,,,,,,,,,,,,,,,,,,,,,,,,,,,,,,,,,,,,,,,,,,,,,,,,,,,,,,,,,,,,,,,,,,,,,,,,,
,,648251f5f13f3cab9a86e5cc,2024-02-22_16h24.29.974,kallum_motion_pilot,2023.2.2,Win32,59.88023952,648251f5f13f3cab9a86e5cc,65d6bb0e977760de756971f7,65d6be55972c1d2144b7f504,0.0222,0.0222,0,42,42,146,1,sixfive,,,,,,,,,,,,,,,,,,,,,,,,,,,,,,,,,,,,,,,,,,,,,,,,,,,,,,,,,,,,,,,,,,,,,,,,,,,,,,,,,,,,,,,,,,,,,,,,,,,,,,,,,,,,,,,,,,,,,,,,,,,,,,,,,,,,,,,,,
,,648251f5f13f3cab9a86e5cc,2024-02-22_16h24.29.974,kallum_motion_pilot,2023.2.2,Win32,59.88023952,648251f5f13f3cab9a86e5cc,65d6bb0e977760de756971f7,65d6be55972c1d2144b7f504,0.0222,0.0223,0,43,43,63,1,fourthree,,,,,,,,,,,,,,,,,,,,,,,,,,,,,,,,,,,,,,,,,,,,,,,,,,,,,,,,,,,,,,,,,,,,,,,,,,,,,,,,,,,,,,,,,,,,,,,,,,,,,,,,,,,,,,,,,,,,,,,,,,,,,,,,,,,,,,,,,
,,648251f5f13f3cab9a86e5cc,2024-02-22_16h24.29.974,kallum_motion_pilot,2023.2.2,Win32,59.88023952,648251f5f13f3cab9a86e5cc,65d6bb0e977760de756971f7,65d6be55972c1d2144b7f504,0.0223,0.0223,0,44,44,125,1,seveneight,,,,,,,,,,,,,,,,,,,,,,,,,,,,,,,,,,,,,,,,,,,,,,,,,,,,,,,,,,,,,,,,,,,,,,,,,,,,,,,,,,,,,,,,,,,,,,,,,,,,,,,,,,,,,,,,,,,,,,,,,,,,,,,,,,,,,,,,,
,,648251f5f13f3cab9a86e5cc,2024-02-22_16h24.29.974,kallum_motion_pilot,2023.2.2,Win32,59.88023952,648251f5f13f3cab9a86e5cc,65d6bb0e977760de756971f7,65d6be55972c1d2144b7f504,0.0224,0.0224,0,45,45,133,1,seveneight,,,,,,,,,,,,,,,,,,,,,,,,,,,,,,,,,,,,,,,,,,,,,,,,,,,,,,,,,,,,,,,,,,,,,,,,,,,,,,,,,,,,,,,,,,,,,,,,,,,,,,,,,,,,,,,,,,,,,,,,,,,,,,,,,,,,,,,,,
,,648251f5f13f3cab9a86e5cc,2024-02-22_16h24.29.974,kallum_motion_pilot,2023.2.2,Win32,59.88023952,648251f5f13f3cab9a86e5cc,65d6bb0e977760de756971f7,65d6be55972c1d2144b7f504,0.0225,0.0225,0,46,46,51,1,twofour,,,,,,,,,,,,,,,,,,,,,,,,,,,,,,,,,,,,,,,,,,,,,,,,,,,,,,,,,,,,,,,,,,,,,,,,,,,,,,,,,,,,,,,,,,,,,,,,,,,,,,,,,,,,,,,,,,,,,,,,,,,,,,,,,,,,,,,,,
,,648251f5f13f3cab9a86e5cc,2024-02-22_16h24.29.974,kallum_motion_pilot,2023.2.2,Win32,59.88023952,648251f5f13f3cab9a86e5cc,65d6bb0e977760de756971f7,65d6be55972c1d2144b7f504,0.0226,0.0226,0,47,47,78,1,fourtwo,,,,,,,,,,,,,,,,,,,,,,,,,,,,,,,,,,,,,,,,,,,,,,,,,,,,,,,,,,,,,,,,,,,,,,,,,,,,,,,,,,,,,,,,,,,,,,,,,,,,,,,,,,,,,,,,,,,,,,,,,,,,,,,,,,,,,,,,,
,,648251f5f13f3cab9a86e5cc,2024-02-22_16h24.29.974,kallum_motion_pilot,2023.2.2,Win32,59.88023952,648251f5f13f3cab9a86e5cc,65d6bb0e977760de756971f7,65d6be55972c1d2144b7f504,0.0227,0.0227,0,48,48,129,1,fiveseven,,,,,,,,,,,,,,,,,,,,,,,,,,,,,,,,,,,,,,,,,,,,,,,,,,,,,,,,,,,,,,,,,,,,,,,,,,,,,,,,,,,,,,,,,,,,,,,,,,,,,,,,,,,,,,,,,,,,,,,,,,,,,,,,,,,,,,,,,
,,648251f5f13f3cab9a86e5cc,2024-02-22_16h24.29.974,kallum_motion_pilot,2023.2.2,Win32,59.88023952,648251f5f13f3cab9a86e5cc,65d6bb0e977760de756971f7,65d6be55972c1d2144b7f504,0.0228,0.0228,0,49,49,85,1,seveneight,,,,,,,,,,,,,,,,,,,,,,,,,,,,,,,,,,,,,,,,,,,,,,,,,,,,,,,,,,,,,,,,,,,,,,,,,,,,,,,,,,,,,,,,,,,,,,,,,,,,,,,,,,,,,,,,,,,,,,,,,,,,,,,,,,,,,,,,,
,,648251f5f13f3cab9a86e5cc,2024-02-22_16h24.29.974,kallum_motion_pilot,2023.2.2,Win32,59.88023952,648251f5f13f3cab9a86e5cc,65d6bb0e977760de756971f7,65d6be55972c1d2144b7f504,0.0229,0.0229,0,50,50,128,1,fivesix,,,,,,,,,,,,,,,,,,,,,,,,,,,,,,,,,,,,,,,,,,,,,,,,,,,,,,,,,,,,,,,,,,,,,,,,,,,,,,,,,,,,,,,,,,,,,,,,,,,,,,,,,,,,,,,,,,,,,,,,,,,,,,,,,,,,,,,,,
,,648251f5f13f3cab9a86e5cc,2024-02-22_16h24.29.974,kallum_motion_pilot,2023.2.2,Win32,59.88023952,648251f5f13f3cab9a86e5cc,65d6bb0e977760de756971f7,65d6be55972c1d2144b7f504,0.0229,0.023,0,51,51,119,1,eightseven,,,,,,,,,,,,,,,,,,,,,,,,,,,,,,,,,,,,,,,,,,,,,,,,,,,,,,,,,,,,,,,,,,,,,,,,,,,,,,,,,,,,,,,,,,,,,,,,,,,,,,,,,,,,,,,,,,,,,,,,,,,,,,,,,,,,,,,,,
,,648251f5f13f3cab9a86e5cc,2024-02-22_16h24.29.974,kallum_motion_pilot,2023.2.2,Win32,59.88023952,648251f5f13f3cab9a86e5cc,65d6bb0e977760de756971f7,65d6be55972c1d2144b7f504,0.0231,0.0231,0,52,52,152,1,fivesix,,,,,,,,,,,,,,,,,,,,,,,,,,,,,,,,,,,,,,,,,,,,,,,,,,,,,,,,,,,,,,,,,,,,,,,,,,,,,,,,,,,,,,,,,,,,,,,,,,,,,,,,,,,,,,,,,,,,,,,,,,,,,,,,,,,,,,,,,
,,648251f5f13f3cab9a86e5cc,2024-02-22_16h24.29.974,kallum_motion_pilot,2023.2.2,Win32,59.88023952,648251f5f13f3cab9a86e5cc,65d6bb0e977760de756971f7,65d6be55972c1d2144b7f504,0.0231,0.0231,0,53,53,42,1,twoone,,,,,,,,,,,,,,,,,,,,,,,,,,,,,,,,,,,,,,,,,,,,,,,,,,,,,,,,,,,,,,,,,,,,,,,,,,,,,,,,,,,,,,,,,,,,,,,,,,,,,,,,,,,,,,,,,,,,,,,,,,,,,,,,,,,,,,,,,
,,648251f5f13f3cab9a86e5cc,2024-02-22_16h24.29.974,kallum_motion_pilot,2023.2.2,Win32,59.88023952,648251f5f13f3cab9a86e5cc,65d6bb0e977760de756971f7,65d6be55972c1d2144b7f504,0.0232,0.0233,0,54,54,15,1,fourthree,,,,,,,,,,,,,,,,,,,,,,,,,,,,,,,,,,,,,,,,,,,,,,,,,,,,,,,,,,,,,,,,,,,,,,,,,,,,,,,,,,,,,,,,,,,,,,,,,,,,,,,,,,,,,,,,,,,,,,,,,,,,,,,,,,,,,,,,,
,,648251f5f13f3cab9a86e5cc,2024-02-22_16h24.29.974,kallum_motion_pilot,2023.2.2,Win32,59.88023952,648251f5f13f3cab9a86e5cc,65d6bb0e977760de756971f7,65d6be55972c1d2144b7f504,0.0233,0.0234,0,55,55,156,1,sevenfive,,,,,,,,,,,,,,,,,,,,,,,,,,,,,,,,,,,,,,,,,,,,,,,,,,,,,,,,,,,,,,,,,,,,,,,,,,,,,,,,,,,,,,,,,,,,,,,,,,,,,,,,,,,,,,,,,,,,,,,,,,,,,,,,,,,,,,,,,
,,648251f5f13f3cab9a86e5cc,2024-02-22_16h24.29.974,kallum_motion_pilot,2023.2.2,Win32,59.88023952,648251f5f13f3cab9a86e5cc,65d6bb0e977760de756971f7,65d6be55972c1d2144b7f504,0.0234,0.0234,0,56,56,74,1,twoone,,,,,,,,,,,,,,,,,,,,,,,,,,,,,,,,,,,,,,,,,,,,,,,,,,,,,,,,,,,,,,,,,,,,,,,,,,,,,,,,,,,,,,,,,,,,,,,,,,,,,,,,,,,,,,,,,,,,,,,,,,,,,,,,,,,,,,,,,
,,648251f5f13f3cab9a86e5cc,2024-02-22_16h24.29.974,kallum_motion_pilot,2023.2.2,Win32,59.88023952,648251f5f13f3cab9a86e5cc,65d6bb0e977760de756971f7,65d6be55972c1d2144b7f504,0.0235,0.0235,0,57,57,94,1,eightsix,,,,,,,,,,,,,,,,,,,,,,,,,,,,,,,,,,,,,,,,,,,,,,,,,,,,,,,,,,,,,,,,,,,,,,,,,,,,,,,,,,,,,,,,,,,,,,,,,,,,,,,,,,,,,,,,,,,,,,,,,,,,,,,,,,,,,,,,,
,,648251f5f13f3cab9a86e5cc,2024-02-22_16h24.29.974,kallum_motion_pilot,2023.2.2,Win32,59.88023952,648251f5f13f3cab9a86e5cc,65d6bb0e977760de756971f7,65d6be55972c1d2144b7f504,0.0236,0.0236,0,58,58,149,1,seveneight,,,,,,,,,,,,,,,,,,,,,,,,,,,,,,,,,,,,,,,,,,,,,,,,,,,,,,,,,,,,,,,,,,,,,,,,,,,,,,,,,,,,,,,,,,,,,,,,,,,,,,,,,,,,,,,,,,,,,,,,,,,,,,,,,,,,,,,,,
,,648251f5f13f3cab9a86e5cc,2024-02-22_16h24.29.974,kallum_motion_pilot,2023.2.2,Win32,59.88023952,648251f5f13f3cab9a86e5cc,65d6bb0e977760de756971f7,65d6be55972c1d2144b7f504,0.0237,0.0237,0,59,59,104,1,fivesix,,,,,,,,,,,,,,,,,,,,,,,,,,,,,,,,,,,,,,,,,,,,,,,,,,,,,,,,,,,,,,,,,,,,,,,,,,,,,,,,,,,,,,,,,,,,,,,,,,,,,,,,,,,,,,,,,,,,,,,,,,,,,,,,,,,,,,,,,
,,648251f5f13f3cab9a86e5cc,2024-02-22_16h24.29.974,kallum_motion_pilot,2023.2.2,Win32,59.88023952,648251f5f13f3cab9a86e5cc,65d6bb0e977760de756971f7,65d6be55972c1d2144b7f504,0.0237,0.0237,0,60,60,117,1,seveneight,,,,,,,,,,,,,,,,,,,,,,,,,,,,,,,,,,,,,,,,,,,,,,,,,,,,,,,,,,,,,,,,,,,,,,,,,,,,,,,,,,,,,,,,,,,,,,,,,,,,,,,,,,,,,,,,,,,,,,,,,,,,,,,,,,,,,,,,,
,,648251f5f13f3cab9a86e5cc,2024-02-22_16h24.29.974,kallum_motion_pilot,2023.2.2,Win32,59.88023952,648251f5f13f3cab9a86e5cc,65d6bb0e977760de756971f7,65d6be55972c1d2144b7f504,0.0238,0.0238,0,61,61,21,1,threefour,,,,,,,,,,,,,,,,,,,,,,,,,,,,,,,,,,,,,,,,,,,,,,,,,,,,,,,,,,,,,,,,,,,,,,,,,,,,,,,,,,,,,,,,,,,,,,,,,,,,,,,,,,,,,,,,,,,,,,,,,,,,,,,,,,,,,,,,,
,,648251f5f13f3cab9a86e5cc,2024-02-22_16h24.29.974,kallum_motion_pilot,2023.2.2,Win32,59.88023952,648251f5f13f3cab9a86e5cc,65d6bb0e977760de756971f7,65d6be55972c1d2144b7f504,0.0239,0.0239,0,62,62,120,1,fivesix,,,,,,,,,,,,,,,,,,,,,,,,,,,,,,,,,,,,,,,,,,,,,,,,,,,,,,,,,,,,,,,,,,,,,,,,,,,,,,,,,,,,,,,,,,,,,,,,,,,,,,,,,,,,,,,,,,,,,,,,,,,,,,,,,,,,,,,,,
,,648251f5f13f3cab9a86e5cc,2024-02-22_16h24.29.974,kallum_motion_pilot,2023.2.2,Win32,59.88023952,648251f5f13f3cab9a86e5cc,65d6bb0e977760de756971f7,65d6be55972c1d2144b7f504,0.024,0.0241,0,63,63,22,1,fourtwo,,,,,,,,,,,,,,,,,,,,,,,,,,,,,,,,,,,,,,,,,,,,,,,,,,,,,,,,,,,,,,,,,,,,,,,,,,,,,,,,,,,,,,,,,,,,,,,,,,,,,,,,,,,,,,,,,,,,,,,,,,,,,,,,,,,,,,,,,
,,648251f5f13f3cab9a86e5cc,2024-02-22_16h24.29.974,kallum_motion_pilot,2023.2.2,Win32,59.88023952,648251f5f13f3cab9a86e5cc,65d6bb0e977760de756971f7,65d6be55972c1d2144b7f504,0.0241,0.0242,0,64,64,80,1,fivesix,,,,,,,,,,,,,,,,,,,,,,,,,,,,,,,,,,,,,,,,,,,,,,,,,,,,,,,,,,,,,,,,,,,,,,,,,,,,,,,,,,,,,,,,,,,,,,,,,,,,,,,,,,,,,,,,,,,,,,,,,,,,,,,,,,,,,,,,,
,,648251f5f13f3cab9a86e5cc,2024-02-22_16h24.29.974,kallum_motion_pilot,2023.2.2,Win32,59.88023952,648251f5f13f3cab9a86e5cc,65d6bb0e977760de756971f7,65d6be55972c1d2144b7f504,0.0243,0.0243,0,65,65,67,1,twofour,,,,,,,,,,,,,,,,,,,,,,,,,,,,,,,,,,,,,,,,,,,,,,,,,,,,,,,,,,,,,,,,,,,,,,,,,,,,,,,,,,,,,,,,,,,,,,,,,,,,,,,,,,,,,,,,,,,,,,,,,,,,,,,,,,,,,,,,,
,,648251f5f13f3cab9a86e5cc,2024-02-22_16h24.29.974,kallum_motion_pilot,2023.2.2,Win32,59.88023952,648251f5f13f3cab9a86e5cc,65d6bb0e977760de756971f7,65d6be55972c1d2144b7f504,0.0244,0.0244,0,66,66,26,1,twoone,,,,,,,,,,,,,,,,,,,,,,,,,,,,,,,,,,,,,,,,,,,,,,,,,,,,,,,,,,,,,,,,,,,,,,,,,,,,,,,,,,,,,,,,,,,,,,,,,,,,,,,,,,,,,,,,,,,,,,,,,,,,,,,,,,,,,,,,,
,,648251f5f13f3cab9a86e5cc,2024-02-22_16h24.29.974,kallum_motion_pilot,2023.2.2,Win32,59.88023952,648251f5f13f3cab9a86e5cc,65d6bb0e977760de756971f7,65d6be55972c1d2144b7f504,0.0245,0.0246,0,67,67,41,1,onethree,,,,,,,,,,,,,,,,,,,,,,,,,,,,,,,,,,,,,,,,,,,,,,,,,,,,,,,,,,,,,,,,,,,,,,,,,,,,,,,,,,,,,,,,,,,,,,,,,,,,,,,,,,,,,,,,,,,,,,,,,,,,,,,,,,,,,,,,,
,,648251f5f13f3cab9a86e5cc,2024-02-22_16h24.29.974,kallum_motion_pilot,2023.2.2,Win32,59.88023952,648251f5f13f3cab9a86e5cc,65d6bb0e977760de756971f7,65d6be55972c1d2144b7f504,0.0246,0.0246,0,68,68,132,1,sevenfive,,,,,,,,,,,,,,,,,,,,,,,,,,,,,,,,,,,,,,,,,,,,,,,,,,,,,,,,,,,,,,,,,,,,,,,,,,,,,,,,,,,,,,,,,,,,,,,,,,,,,,,,,,,,,,,,,,,,,,,,,,,,,,,,,,,,,,,,,
,,648251f5f13f3cab9a86e5cc,2024-02-22_16h24.29.974,kallum_motion_pilot,2023.2.2,Win32,59.88023952,648251f5f13f3cab9a86e5cc,65d6bb0e977760de756971f7,65d6be55972c1d2144b7f504,0.0247,0.0247,0,69,69,1,1,onethree,,,,,,,,,,,,,,,,,,,,,,,,,,,,,,,,,,,,,,,,,,,,,,,,,,,,,,,,,,,,,,,,,,,,,,,,,,,,,,,,,,,,,,,,,,,,,,,,,,,,,,,,,,,,,,,,,,,,,,,,,,,,,,,,,,,,,,,,,
,,648251f5f13f3cab9a86e5cc,2024-02-22_16h24.29.974,kallum_motion_pilot,2023.2.2,Win32,59.88023952,648251f5f13f3cab9a86e5cc,65d6bb0e977760de756971f7,65d6be55972c1d2144b7f504,0.0248,0.0248,0,70,70,141,1,seveneight,,,,,,,,,,,,,,,,,,,,,,,,,,,,,,,,,,,,,,,,,,,,,,,,,,,,,,,,,,,,,,,,,,,,,,,,,,,,,,,,,,,,,,,,,,,,,,,,,,,,,,,,,,,,,,,,,,,,,,,,,,,,,,,,,,,,,,,,,
,,648251f5f13f3cab9a86e5cc,2024-02-22_16h24.29.974,kallum_motion_pilot,2023.2.2,Win32,59.88023952,648251f5f13f3cab9a86e5cc,65d6bb0e977760de756971f7,65d6be55972c1d2144b7f504,0.0249,0.025,0,71,71,66,1,twoone,,,,,,,,,,,,,,,,,,,,,,,,,,,,,,,,,,,,,,,,,,,,,,,,,,,,,,,,,,,,,,,,,,,,,,,,,,,,,,,,,,,,,,,,,,,,,,,,,,,,,,,,,,,,,,,,,,,,,,,,,,,,,,,,,,,,,,,,,
,,648251f5f13f3cab9a86e5cc,2024-02-22_16h24.29.974,kallum_motion_pilot,2023.2.2,Win32,59.88023952,648251f5f13f3cab9a86e5cc,65d6bb0e977760de756971f7,65d6be55972c1d2144b7f504,0.025,0.025,0,72,72,130,1,sixfive,,,,,,,,,,,,,,,,,,,,,,,,,,,,,,,,,,,,,,,,,,,,,,,,,,,,,,,,,,,,,,,,,,,,,,,,,,,,,,,,,,,,,,,,,,,,,,,,,,,,,,,,,,,,,,,,,,,,,,,,,,,,,,,,,,,,,,,,,
,,648251f5f13f3cab9a86e5cc,2024-02-22_16h24.29.974,kallum_motion_pilot,2023.2.2,Win32,59.88023952,648251f5f13f3cab9a86e5cc,65d6bb0e977760de756971f7,65d6be55972c1d2144b7f504,0.0251,0.0251,0,73,73,92,1,sevenfive,,,,,,,,,,,,,,,,,,,,,,,,,,,,,,,,,,,,,,,,,,,,,,,,,,,,,,,,,,,,,,,,,,,,,,,,,,,,,,,,,,,,,,,,,,,,,,,,,,,,,,,,,,,,,,,,,,,,,,,,,,,,,,,,,,,,,,,,,
,,648251f5f13f3cab9a86e5cc,2024-02-22_16h24.29.974,kallum_motion_pilot,2023.2.2,Win32,59.88023952,648251f5f13f3cab9a86e5cc,65d6bb0e977760de756971f7,65d6be55972c1d2144b7f504,0.0251,0.0252,0,74,74,87,1,eightseven,,,,,,,,,,,,,,,,,,,,,,,,,,,,,,,,,,,,,,,,,,,,,,,,,,,,,,,,,,,,,,,,,,,,,,,,,,,,,,,,,,,,,,,,,,,,,,,,,,,,,,,,,,,,,,,,,,,,,,,,,,,,,,,,,,,,,,,,,
,,648251f5f13f3cab9a86e5cc,2024-02-22_16h24.29.974,kallum_motion_pilot,2023.2.2,Win32,59.88023952,648251f5f13f3cab9a86e5cc,65d6bb0e977760de756971f7,65d6be55972c1d2144b7f504,0.0252,0.0253,0,75,75,43,1,twofour,,,,,,,,,,,,,,,,,,,,,,,,,,,,,,,,,,,,,,,,,,,,,,,,,,,,,,,,,,,,,,,,,,,,,,,,,,,,,,,,,,,,,,,,,,,,,,,,,,,,,,,,,,,,,,,,,,,,,,,,,,,,,,,,,,,,,,,,,
,,648251f5f13f3cab9a86e5cc,2024-02-22_16h24.29.974,kallum_motion_pilot,2023.2.2,Win32,59.88023952,648251f5f13f3cab9a86e5cc,65d6bb0e977760de756971f7,65d6be55972c1d2144b7f504,0.0253,0.0254,0,76,76,47,1,fourthree,,,,,,,,,,,,,,,,,,,,,,,,,,,,,,,,,,,,,,,,,,,,,,,,,,,,,,,,,,,,,,,,,,,,,,,,,,,,,,,,,,,,,,,,,,,,,,,,,,,,,,,,,,,,,,,,,,,,,,,,,,,,,,,,,,,,,,,,,
,,648251f5f13f3cab9a86e5cc,2024-02-22_16h24.29.974,kallum_motion_pilot,2023.2.2,Win32,59.88023952,648251f5f13f3cab9a86e5cc,65d6bb0e977760de756971f7,65d6be55972c1d2144b7f504,0.0255,0.0255,0,77,77,155,1,sixeight,,,,,,,,,,,,,,,,,,,,,,,,,,,,,,,,,,,,,,,,,,,,,,,,,,,,,,,,,,,,,,,,,,,,,,,,,,,,,,,,,,,,,,,,,,,,,,,,,,,,,,,,,,,,,,,,,,,,,,,,,,,,,,,,,,,,,,,,,
,,648251f5f13f3cab9a86e5cc,2024-02-22_16h24.29.974,kallum_motion_pilot,2023.2.2,Win32,59.88023952,648251f5f13f3cab9a86e5cc,65d6bb0e977760de756971f7,65d6be55972c1d2144b7f504,0.0255,0.0256,0,78,78,114,1,sixfive,,,,,,,,,,,,,,,,,,,,,,,,,,,,,,,,,,,,,,,,,,,,,,,,,,,,,,,,,,,,,,,,,,,,,,,,,,,,,,,,,,,,,,,,,,,,,,,,,,,,,,,,,,,,,,,,,,,,,,,,,,,,,,,,,,,,,,,,,
,,648251f5f13f3cab9a86e5cc,2024-02-22_16h24.29.974,kallum_motion_pilot,2023.2.2,Win32,59.88023952,648251f5f13f3cab9a86e5cc,65d6bb0e977760de756971f7,65d6be55972c1d2144b7f504,0.0256,0.0257,0,79,79,101,1,seveneight,,,,,,,,,,,,,,,,,,,,,,,,,,,,,,,,,,,,,,,,,,,,,,,,,,,,,,,,,,,,,,,,,,,,,,,,,,,,,,,,,,,,,,,,,,,,,,,,,,,,,,,,,,,,,,,,,,,,,,,,,,,,,,,,,,,,,,,,,
,,648251f5f13f3cab9a86e5cc,2024-02-22_16h24.29.974,kallum_motion_pilot,2023.2.2,Win32,59.88023952,648251f5f13f3cab9a86e5cc,65d6bb0e977760de756971f7,65d6be55972c1d2144b7f504,0.0257,0.0257,0,80,80,89,1,fiveseven,,,,,,,,,,,,,,,,,,,,,,,,,,,,,,,,,,,,,,,,,,,,,,,,,,,,,,,,,,,,,,,,,,,,,,,,,,,,,,,,,,,,,,,,,,,,,,,,,,,,,,,,,,,,,,,,,,,,,,,,,,,,,,,,,,,,,,,,,
,,648251f5f13f3cab9a86e5cc,2024-02-22_16h24.29.974,kallum_motion_pilot,2023.2.2,Win32,59.88023952,648251f5f13f3cab9a86e5cc,65d6bb0e977760de756971f7,65d6be55972c1d2144b7f504,0.0258,0.0258,0,81,81,3,1,twofour,,,,,,,,,,,,,,,,,,,,,,,,,,,,,,,,,,,,,,,,,,,,,,,,,,,,,,,,,,,,,,,,,,,,,,,,,,,,,,,,,,,,,,,,,,,,,,,,,,,,,,,,,,,,,,,,,,,,,,,,,,,,,,,,,,,,,,,,,
,,648251f5f13f3cab9a86e5cc,2024-02-22_16h24.29.974,kallum_motion_pilot,2023.2.2,Win32,59.88023952,648251f5f13f3cab9a86e5cc,65d6bb0e977760de756971f7,65d6be55972c1d2144b7f504,0.0259,0.0259,0,82,82,16,1,onetwo,,,,,,,,,,,,,,,,,,,,,,,,,,,,,,,,,,,,,,,,,,,,,,,,,,,,,,,,,,,,,,,,,,,,,,,,,,,,,,,,,,,,,,,,,,,,,,,,,,,,,,,,,,,,,,,,,,,,,,,,,,,,,,,,,,,,,,,,,
,,648251f5f13f3cab9a86e5cc,2024-02-22_16h24.29.974,kallum_motion_pilot,2023.2.2,Win32,59.88023952,648251f5f13f3cab9a86e5cc,65d6bb0e977760de756971f7,65d6be55972c1d2144b7f504,0.026,0.0261,0,83,83,93,1,seveneight,,,,,,,,,,,,,,,,,,,,,,,,,,,,,,,,,,,,,,,,,,,,,,,,,,,,,,,,,,,,,,,,,,,,,,,,,,,,,,,,,,,,,,,,,,,,,,,,,,,,,,,,,,,,,,,,,,,,,,,,,,,,,,,,,,,,,,,,,
,,648251f5f13f3cab9a86e5cc,2024-02-22_16h24.29.974,kallum_motion_pilot,2023.2.2,Win32,59.88023952,648251f5f13f3cab9a86e5cc,65d6bb0e977760de756971f7,65d6be55972c1d2144b7f504,0.0261,0.0262,0,84,84,144,1,fivesix,,,,,,,,,,,,,,,,,,,,,,,,,,,,,,,,,,,,,,,,,,,,,,,,,,,,,,,,,,,,,,,,,,,,,,,,,,,,,,,,,,,,,,,,,,,,,,,,,,,,,,,,,,,,,,,,,,,,,,,,,,,,,,,,,,,,,,,,,
,,648251f5f13f3cab9a86e5cc,2024-02-22_16h24.29.974,kallum_motion_pilot,2023.2.2,Win32,59.88023952,648251f5f13f3cab9a86e5cc,65d6bb0e977760de756971f7,65d6be55972c1d2144b7f504,0.0262,0.0262,0,85,85,2,1,twoone,,,,,,,,,,,,,,,,,,,,,,,,,,,,,,,,,,,,,,,,,,,,,,,,,,,,,,,,,,,,,,,,,,,,,,,,,,,,,,,,,,,,,,,,,,,,,,,,,,,,,,,,,,,,,,,,,,,,,,,,,,,,,,,,,,,,,,,,,
,,648251f5f13f3cab9a86e5cc,2024-02-22_16h24.29.974,kallum_motion_pilot,2023.2.2,Win32,59.88023952,648251f5f13f3cab9a86e5cc,65d6bb0e977760de756971f7,65d6be55972c1d2144b7f504,0.0264,0.0264,0,86,86,148,1,sevenfive,,,,,,,,,,,,,,,,,,,,,,,,,,,,,,,,,,,,,,,,,,,,,,,,,,,,,,,,,,,,,,,,,,,,,,,,,,,,,,,,,,,,,,,,,,,,,,,,,,,,,,,,,,,,,,,,,,,,,,,,,,,,,,,,,,,,,,,,,
,,648251f5f13f3cab9a86e5cc,2024-02-22_16h24.29.974,kallum_motion_pilot,2023.2.2,Win32,59.88023952,648251f5f13f3cab9a86e5cc,65d6bb0e977760de756971f7,65d6be55972c1d2144b7f504,0.0265,0.0265,0,87,87,76,1,threeone,,,,,,,,,,,,,,,,,,,,,,,,,,,,,,,,,,,,,,,,,,,,,,,,,,,,,,,,,,,,,,,,,,,,,,,,,,,,,,,,,,,,,,,,,,,,,,,,,,,,,,,,,,,,,,,,,,,,,,,,,,,,,,,,,,,,,,,,,
,,648251f5f13f3cab9a86e5cc,2024-02-22_16h24.29.974,kallum_motion_pilot,2023.2.2,Win32,59.88023952,648251f5f13f3cab9a86e5cc,65d6bb0e977760de756971f7,65d6be55972c1d2144b7f504,0.0265,0.0266,0,88,88,73,1,onethree,,,,,,,,,,,,,,,,,,,,,,,,,,,,,,,,,,,,,,,,,,,,,,,,,,,,,,,,,,,,,,,,,,,,,,,,,,,,,,,,,,,,,,,,,,,,,,,,,,,,,,,,,,,,,,,,,,,,,,,,,,,,,,,,,,,,,,,,,
,,648251f5f13f3cab9a86e5cc,2024-02-22_16h24.29.974,kallum_motion_pilot,2023.2.2,Win32,59.88023952,648251f5f13f3cab9a86e5cc,65d6bb0e977760de756971f7,65d6be55972c1d2144b7f504,0.0266,0.0266,0,89,89,38,1,fourtwo,,,,,,,,,,,,,,,,,,,,,,,,,,,,,,,,,,,,,,,,,,,,,,,,,,,,,,,,,,,,,,,,,,,,,,,,,,,,,,,,,,,,,,,,,,,,,,,,,,,,,,,,,,,,,,,,,,,,,,,,,,,,,,,,,,,,,,,,,
,,648251f5f13f3cab9a86e5cc,2024-02-22_16h24.29.974,kallum_motion_pilot,2023.2.2,Win32,59.88023952,648251f5f13f3cab9a86e5cc,65d6bb0e977760de756971f7,65d6be55972c1d2144b7f504,0.0267,0.0267,0,90,90,139,1,sixeight,,,,,,,,,,,,,,,,,,,,,,,,,,,,,,,,,,,,,,,,,,,,,,,,,,,,,,,,,,,,,,,,,,,,,,,,,,,,,,,,,,,,,,,,,,,,,,,,,,,,,,,,,,,,,,,,,,,,,,,,,,,,,,,,,,,,,,,,,
,,648251f5f13f3cab9a86e5cc,2024-02-22_16h24.29.974,kallum_motion_pilot,2023.2.2,Win32,59.88023952,648251f5f13f3cab9a86e5cc,65d6bb0e977760de756971f7,65d6be55972c1d2144b7f504,0.0268,0.0268,0,91,91,11,1,twofour,,,,,,,,,,,,,,,,,,,,,,,,,,,,,,,,,,,,,,,,,,,,,,,,,,,,,,,,,,,,,,,,,,,,,,,,,,,,,,,,,,,,,,,,,,,,,,,,,,,,,,,,,,,,,,,,,,,,,,,,,,,,,,,,,,,,,,,,,
,,648251f5f13f3cab9a86e5cc,2024-02-22_16h24.29.974,kallum_motion_pilot,2023.2.2,Win32,59.88023952,648251f5f13f3cab9a86e5cc,65d6bb0e977760de756971f7,65d6be55972c1d2144b7f504,0.0269,0.027,0,92,92,34,1,twoone,,,,,,,,,,,,,,,,,,,,,,,,,,,,,,,,,,,,,,,,,,,,,,,,,,,,,,,,,,,,,,,,,,,,,,,,,,,,,,,,,,,,,,,,,,,,,,,,,,,,,,,,,,,,,,,,,,,,,,,,,,,,,,,,,,,,,,,,,
,,648251f5f13f3cab9a86e5cc,2024-02-22_16h24.29.974,kallum_motion_pilot,2023.2.2,Win32,59.88023952,648251f5f13f3cab9a86e5cc,65d6bb0e977760de756971f7,65d6be55972c1d2144b7f504,0.027,0.027,0,93,93,158,1,eightsix,,,,,,,,,,,,,,,,,,,,,,,,,,,,,,,,,,,,,,,,,,,,,,,,,,,,,,,,,,,,,,,,,,,,,,,,,,,,,,,,,,,,,,,,,,,,,,,,,,,,,,,,,,,,,,,,,,,,,,,,,,,,,,,,,,,,,,,,,
,,648251f5f13f3cab9a86e5cc,2024-02-22_16h24.29.974,kallum_motion_pilot,2023.2.2,Win32,59.88023952,648251f5f13f3cab9a86e5cc,65d6bb0e977760de756971f7,65d6be55972c1d2144b7f504,0.0271,0.0271,0,94,94,44,1,threeone,,,,,,,,,,,,,,,,,,,,,,,,,,,,,,,,,,,,,,,,,,,,,,,,,,,,,,,,,,,,,,,,,,,,,,,,,,,,,,,,,,,,,,,,,,,,,,,,,,,,,,,,,,,,,,,,,,,,,,,,,,,,,,,,,,,,,,,,,
,,648251f5f13f3cab9a86e5cc,2024-02-22_16h24.29.974,kallum_motion_pilot,2023.2.2,Win32,59.88023952,648251f5f13f3cab9a86e5cc,65d6bb0e977760de756971f7,65d6be55972c1d2144b7f504,0.0271,0.0272,0,95,95,58,1,twoone,,,,,,,,,,,,,,,,,,,,,,,,,,,,,,,,,,,,,,,,,,,,,,,,,,,,,,,,,,,,,,,,,,,,,,,,,,,,,,,,,,,,,,,,,,,,,,,,,,,,,,,,,,,,,,,,,,,,,,,,,,,,,,,,,,,,,,,,,
,,648251f5f13f3cab9a86e5cc,2024-02-22_16h24.29.974,kallum_motion_pilot,2023.2.2,Win32,59.88023952,648251f5f13f3cab9a86e5cc,65d6bb0e977760de756971f7,65d6be55972c1d2144b7f504,0.0272,0.0273,0,96,96,116,1,sevenfive,,,,,,,,,,,,,,,,,,,,,,,,,,,,,,,,,,,,,,,,,,,,,,,,,,,,,,,,,,,,,,,,,,,,,,,,,,,,,,,,,,,,,,,,,,,,,,,,,,,,,,,,,,,,,,,,,,,,,,,,,,,,,,,,,,,,,,,,,
,,648251f5f13f3cab9a86e5cc,2024-02-22_16h24.29.974,kallum_motion_pilot,2023.2.2,Win32,59.88023952,648251f5f13f3cab9a86e5cc,65d6bb0e977760de756971f7,65d6be55972c1d2144b7f504,0.0273,0.0273,0,97,97,106,1,sixfive,,,,,,,,,,,,,,,,,,,,,,,,,,,,,,,,,,,,,,,,,,,,,,,,,,,,,,,,,,,,,,,,,,,,,,,,,,,,,,,,,,,,,,,,,,,,,,,,,,,,,,,,,,,,,,,,,,,,,,,,,,,,,,,,,,,,,,,,,
,,648251f5f13f3cab9a86e5cc,2024-02-22_16h24.29.974,kallum_motion_pilot,2023.2.2,Win32,59.88023952,648251f5f13f3cab9a86e5cc,65d6bb0e977760de756971f7,65d6be55972c1d2144b7f504,0.0275,0.0275,0,98,98,60,1,threeone,,,,,,,,,,,,,,,,,,,,,,,,,,,,,,,,,,,,,,,,,,,,,,,,,,,,,,,,,,,,,,,,,,,,,,,,,,,,,,,,,,,,,,,,,,,,,,,,,,,,,,,,,,,,,,,,,,,,,,,,,,,,,,,,,,,,,,,,,
,,648251f5f13f3cab9a86e5cc,2024-02-22_16h24.29.974,kallum_motion_pilot,2023.2.2,Win32,59.88023952,648251f5f13f3cab9a86e5cc,65d6bb0e977760de756971f7,65d6be55972c1d2144b7f504,0.0276,0.0276,0,99,99,12,1,threeone,,,,,,,,,,,,,,,,,,,,,,,,,,,,,,,,,,,,,,,,,,,,,,,,,,,,,,,,,,,,,,,,,,,,,,,,,,,,,,,,,,,,,,,,,,,,,,,,,,,,,,,,,,,,,,,,,,,,,,,,,,,,,,,,,,,,,,,,,
,,648251f5f13f3cab9a86e5cc,2024-02-22_16h24.29.974,kallum_motion_pilot,2023.2.2,Win32,59.88023952,648251f5f13f3cab9a86e5cc,65d6bb0e977760de756971f7,65d6be55972c1d2144b7f504,0.0277,0.0277,0,100,100,55,1,fourthree,,,,,,,,,,,,,,,,,,,,,,,,,,,,,,,,,,,,,,,,,,,,,,,,,,,,,,,,,,,,,,,,,,,,,,,,,,,,,,,,,,,,,,,,,,,,,,,,,,,,,,,,,,,,,,,,,,,,,,,,,,,,,,,,,,,,,,,,,
,,648251f5f13f3cab9a86e5cc,2024-02-22_16h24.29.974,kallum_motion_pilot,2023.2.2,Win32,59.88023952,648251f5f13f3cab9a86e5cc,65d6bb0e977760de756971f7,65d6be55972c1d2144b7f504,0.0278,0.0278,0,101,101,62,1,fourtwo,,,,,,,,,,,,,,,,,,,,,,,,,,,,,,,,,,,,,,,,,,,,,,,,,,,,,,,,,,,,,,,,,,,,,,,,,,,,,,,,,,,,,,,,,,,,,,,,,,,,,,,,,,,,,,,,,,,,,,,,,,,,,,,,,,,,,,,,,
,,648251f5f13f3cab9a86e5cc,2024-02-22_16h24.29.974,kallum_motion_pilot,2023.2.2,Win32,59.88023952,648251f5f13f3cab9a86e5cc,65d6bb0e977760de756971f7,65d6be55972c1d2144b7f504,0.0278,0.0279,0,102,102,112,1,fivesix,,,,,,,,,,,,,,,,,,,,,,,,,,,,,,,,,,,,,,,,,,,,,,,,,,,,,,,,,,,,,,,,,,,,,,,,,,,,,,,,,,,,,,,,,,,,,,,,,,,,,,,,,,,,,,,,,,,,,,,,,,,,,,,,,,,,,,,,,
,,648251f5f13f3cab9a86e5cc,2024-02-22_16h24.29.974,kallum_motion_pilot,2023.2.2,Win32,59.88023952,648251f5f13f3cab9a86e5cc,65d6bb0e977760de756971f7,65d6be55972c1d2144b7f504,0.028,0.028,0,103,103,143,1,eightseven,,,,,,,,,,,,,,,,,,,,,,,,,,,,,,,,,,,,,,,,,,,,,,,,,,,,,,,,,,,,,,,,,,,,,,,,,,,,,,,,,,,,,,,,,,,,,,,,,,,,,,,,,,,,,,,,,,,,,,,,,,,,,,,,,,,,,,,,,
,,648251f5f13f3cab9a86e5cc,2024-02-22_16h24.29.974,kallum_motion_pilot,2023.2.2,Win32,59.88023952,648251f5f13f3cab9a86e5cc,65d6bb0e977760de756971f7,65d6be55972c1d2144b7f504,0.0281,0.0282,0,104,104,53,1,threefour,,,,,,,,,,,,,,,,,,,,,,,,,,,,,,,,,,,,,,,,,,,,,,,,,,,,,,,,,,,,,,,,,,,,,,,,,,,,,,,,,,,,,,,,,,,,,,,,,,,,,,,,,,,,,,,,,,,,,,,,,,,,,,,,,,,,,,,,,
,,648251f5f13f3cab9a86e5cc,2024-02-22_16h24.29.974,kallum_motion_pilot,2023.2.2,Win32,59.88023952,648251f5f13f3cab9a86e5cc,65d6bb0e977760de756971f7,65d6be55972c1d2144b7f504,0.0282,0.0282,0,105,105,83,1,sixeight,,,,,,,,,,,,,,,,,,,,,,,,,,,,,,,,,,,,,,,,,,,,,,,,,,,,,,,,,,,,,,,,,,,,,,,,,,,,,,,,,,,,,,,,,,,,,,,,,,,,,,,,,,,,,,,,,,,,,,,,,,,,,,,,,,,,,,,,,
,,648251f5f13f3cab9a86e5cc,2024-02-22_16h24.29.974,kallum_motion_pilot,2023.2.2,Win32,59.88023952,648251f5f13f3cab9a86e5cc,65d6bb0e977760de756971f7,65d6be55972c1d2144b7f504,0.0283,0.0284,0,106,106,56,1,onetwo,,,,,,,,,,,,,,,,,,,,,,,,,,,,,,,,,,,,,,,,,,,,,,,,,,,,,,,,,,,,,,,,,,,,,,,,,,,,,,,,,,,,,,,,,,,,,,,,,,,,,,,,,,,,,,,,,,,,,,,,,,,,,,,,,,,,,,,,,
,,648251f5f13f3cab9a86e5cc,2024-02-22_16h24.29.974,kallum_motion_pilot,2023.2.2,Win32,59.88023952,648251f5f13f3cab9a86e5cc,65d6bb0e977760de756971f7,65d6be55972c1d2144b7f504,0.0284,0.0285,0,107,107,140,1,sevenfive,,,,,,,,,,,,,,,,,,,,,,,,,,,,,,,,,,,,,,,,,,,,,,,,,,,,,,,,,,,,,,,,,,,,,,,,,,,,,,,,,,,,,,,,,,,,,,,,,,,,,,,,,,,,,,,,,,,,,,,,,,,,,,,,,,,,,,,,,
,,648251f5f13f3cab9a86e5cc,2024-02-22_16h24.29.974,kallum_motion_pilot,2023.2.2,Win32,59.88023952,648251f5f13f3cab9a86e5cc,65d6bb0e977760de756971f7,65d6be55972c1d2144b7f504,0.0285,0.0286,0,108,108,123,1,sixeight,,,,,,,,,,,,,,,,,,,,,,,,,,,,,,,,,,,,,,,,,,,,,,,,,,,,,,,,,,,,,,,,,,,,,,,,,,,,,,,,,,,,,,,,,,,,,,,,,,,,,,,,,,,,,,,,,,,,,,,,,,,,,,,,,,,,,,,,,
,,648251f5f13f3cab9a86e5cc,2024-02-22_16h24.29.974,kallum_motion_pilot,2023.2.2,Win32,59.88023952,648251f5f13f3cab9a86e5cc,65d6bb0e977760de756971f7,65d6be55972c1d2144b7f504,0.0287,0.0287,0,109,109,64,1,onetwo,,,,,,,,,,,,,,,,,,,,,,,,,,,,,,,,,,,,,,,,,,,,,,,,,,,,,,,,,,,,,,,,,,,,,,,,,,,,,,,,,,,,,,,,,,,,,,,,,,,,,,,,,,,,,,,,,,,,,,,,,,,,,,,,,,,,,,,,,
,,648251f5f13f3cab9a86e5cc,2024-02-22_16h24.29.974,kallum_motion_pilot,2023.2.2,Win32,59.88023952,648251f5f13f3cab9a86e5cc,65d6bb0e977760de756971f7,65d6be55972c1d2144b7f504,0.0287,0.0288,0,110,110,100,1,sevenfive,,,,,,,,,,,,,,,,,,,,,,,,,,,,,,,,,,,,,,,,,,,,,,,,,,,,,,,,,,,,,,,,,,,,,,,,,,,,,,,,,,,,,,,,,,,,,,,,,,,,,,,,,,,,,,,,,,,,,,,,,,,,,,,,,,,,,,,,,
,,648251f5f13f3cab9a86e5cc,2024-02-22_16h24.29.974,kallum_motion_pilot,2023.2.2,Win32,59.88023952,648251f5f13f3cab9a86e5cc,65d6bb0e977760de756971f7,65d6be55972c1d2144b7f504,0.0288,0.0289,0,111,111,160,1,fivesix,,,,,,,,,,,,,,,,,,,,,,,,,,,,,,,,,,,,,,,,,,,,,,,,,,,,,,,,,,,,,,,,,,,,,,,,,,,,,,,,,,,,,,,,,,,,,,,,,,,,,,,,,,,,,,,,,,,,,,,,,,,,,,,,,,,,,,,,,
,,648251f5f13f3cab9a86e5cc,2024-02-22_16h24.29.974,kallum_motion_pilot,2023.2.2,Win32,59.88023952,648251f5f13f3cab9a86e5cc,65d6bb0e977760de756971f7,65d6be55972c1d2144b7f504,0.0289,0.0289,0,112,112,159,1,eightseven,,,,,,,,,,,,,,,,,,,,,,,,,,,,,,,,,,,,,,,,,,,,,,,,,,,,,,,,,,,,,,,,,,,,,,,,,,,,,,,,,,,,,,,,,,,,,,,,,,,,,,,,,,,,,,,,,,,,,,,,,,,,,,,,,,,,,,,,,
,,648251f5f13f3cab9a86e5cc,2024-02-22_16h24.29.974,kallum_motion_pilot,2023.2.2,Win32,59.88023952,648251f5f13f3cab9a86e5cc,65d6bb0e977760de756971f7,65d6be55972c1d2144b7f504,0.029,0.029,0,113,113,122,1,sixfive,,,,,,,,,,,,,,,,,,,,,,,,,,,,,,,,,,,,,,,,,,,,,,,,,,,,,,,,,,,,,,,,,,,,,,,,,,,,,,,,,,,,,,,,,,,,,,,,,,,,,,,,,,,,,,,,,,,,,,,,,,,,,,,,,,,,,,,,,
,,648251f5f13f3cab9a86e5cc,2024-02-22_16h24.29.974,kallum_motion_pilot,2023.2.2,Win32,59.88023952,648251f5f13f3cab9a86e5cc,65d6bb0e977760de756971f7,65d6be55972c1d2144b7f504,0.0292,0.0292,0,114,114,91,1,sixeight,,,,,,,,,,,,,,,,,,,,,,,,,,,,,,,,,,,,,,,,,,,,,,,,,,,,,,,,,,,,,,,,,,,,,,,,,,,,,,,,,,,,,,,,,,,,,,,,,,,,,,,,,,,,,,,,,,,,,,,,,,,,,,,,,,,,,,,,,
,,648251f5f13f3cab9a86e5cc,2024-02-22_16h24.29.974,kallum_motion_pilot,2023.2.2,Win32,59.88023952,648251f5f13f3cab9a86e5cc,65d6bb0e977760de756971f7,65d6be55972c1d2144b7f504,0.0292,0.0293,0,115,115,147,1,sixeight,,,,,,,,,,,,,,,,,,,,,,,,,,,,,,,,,,,,,,,,,,,,,,,,,,,,,,,,,,,,,,,,,,,,,,,,,,,,,,,,,,,,,,,,,,,,,,,,,,,,,,,,,,,,,,,,,,,,,,,,,,,,,,,,,,,,,,,,,
,,648251f5f13f3cab9a86e5cc,2024-02-22_16h24.29.974,kallum_motion_pilot,2023.2.2,Win32,59.88023952,648251f5f13f3cab9a86e5cc,65d6bb0e977760de756971f7,65d6be55972c1d2144b7f504,0.0293,0.0294,0,116,116,36,1,threeone,,,,,,,,,,,,,,,,,,,,,,,,,,,,,,,,,,,,,,,,,,,,,,,,,,,,,,,,,,,,,,,,,,,,,,,,,,,,,,,,,,,,,,,,,,,,,,,,,,,,,,,,,,,,,,,,,,,,,,,,,,,,,,,,,,,,,,,,,
,,648251f5f13f3cab9a86e5cc,2024-02-22_16h24.29.974,kallum_motion_pilot,2023.2.2,Win32,59.88023952,648251f5f13f3cab9a86e5cc,65d6bb0e977760de756971f7,65d6be55972c1d2144b7f504,0.0294,0.0294,0,117,117,49,1,onethree,,,,,,,,,,,,,,,,,,,,,,,,,,,,,,,,,,,,,,,,,,,,,,,,,,,,,,,,,,,,,,,,,,,,,,,,,,,,,,,,,,,,,,,,,,,,,,,,,,,,,,,,,,,,,,,,,,,,,,,,,,,,,,,,,,,,,,,,,
,,648251f5f13f3cab9a86e5cc,2024-02-22_16h24.29.974,kallum_motion_pilot,2023.2.2,Win32,59.88023952,648251f5f13f3cab9a86e5cc,65d6bb0e977760de756971f7,65d6be55972c1d2144b7f504,0.0295,0.0296,0,118,118,142,1,eightsix,,,,,,,,,,,,,,,,,,,,,,,,,,,,,,,,,,,,,,,,,,,,,,,,,,,,,,,,,,,,,,,,,,,,,,,,,,,,,,,,,,,,,,,,,,,,,,,,,,,,,,,,,,,,,,,,,,,,,,,,,,,,,,,,,,,,,,,,,
,,648251f5f13f3cab9a86e5cc,2024-02-22_16h24.29.974,kallum_motion_pilot,2023.2.2,Win32,59.88023952,648251f5f13f3cab9a86e5cc,65d6bb0e977760de756971f7,65d6be55972c1d2144b7f504,0.0297,0.0297,0,119,119,145,1,fiveseven,,,,,,,,,,,,,,,,,,,,,,,,,,,,,,,,,,,,,,,,,,,,,,,,,,,,,,,,,,,,,,,,,,,,,,,,,,,,,,,,,,,,,,,,,,,,,,,,,,,,,,,,,,,,,,,,,,,,,,,,,,,,,,,,,,,,,,,,,
,,648251f5f13f3cab9a86e5cc,2024-02-22_16h24.29.974,kallum_motion_pilot,2023.2.2,Win32,59.88023952,648251f5f13f3cab9a86e5cc,65d6bb0e977760de756971f7,65d6be55972c1d2144b7f504,0.0297,0.0298,0,120,120,4,1,threeone,,,,,,,,,,,,,,,,,,,,,,,,,,,,,,,,,,,,,,,,,,,,,,,,,,,,,,,,,,,,,,,,,,,,,,,,,,,,,,,,,,,,,,,,,,,,,,,,,,,,,,,,,,,,,,,,,,,,,,,,,,,,,,,,,,,,,,,,,
,,648251f5f13f3cab9a86e5cc,2024-02-22_16h24.29.974,kallum_motion_pilot,2023.2.2,Win32,59.88023952,648251f5f13f3cab9a86e5cc,65d6bb0e977760de756971f7,65d6be55972c1d2144b7f504,0.0298,0.0298,0,121,121,98,1,sixfive,,,,,,,,,,,,,,,,,,,,,,,,,,,,,,,,,,,,,,,,,,,,,,,,,,,,,,,,,,,,,,,,,,,,,,,,,,,,,,,,,,,,,,,,,,,,,,,,,,,,,,,,,,,,,,,,,,,,,,,,,,,,,,,,,,,,,,,,,
,,648251f5f13f3cab9a86e5cc,2024-02-22_16h24.29.974,kallum_motion_pilot,2023.2.2,Win32,59.88023952,648251f5f13f3cab9a86e5cc,65d6bb0e977760de756971f7,65d6be55972c1d2144b7f504,0.03,0.03,0,122,122,113,1,fiveseven,,,,,,,,,,,,,,,,,,,,,,,,,,,,,,,,,,,,,,,,,,,,,,,,,,,,,,,,,,,,,,,,,,,,,,,,,,,,,,,,,,,,,,,,,,,,,,,,,,,,,,,,,,,,,,,,,,,,,,,,,,,,,,,,,,,,,,,,,
,,648251f5f13f3cab9a86e5cc,2024-02-22_16h24.29.974,kallum_motion_pilot,2023.2.2,Win32,59.88023952,648251f5f13f3cab9a86e5cc,65d6bb0e977760de756971f7,65d6be55972c1d2144b7f504,0.03,0.03,0,123,123,23,1,fourthree,,,,,,,,,,,,,,,,,,,,,,,,,,,,,,,,,,,,,,,,,,,,,,,,,,,,,,,,,,,,,,,,,,,,,,,,,,,,,,,,,,,,,,,,,,,,,,,,,,,,,,,,,,,,,,,,,,,,,,,,,,,,,,,,,,,,,,,,,
,,648251f5f13f3cab9a86e5cc,2024-02-22_16h24.29.974,kallum_motion_pilot,2023.2.2,Win32,59.88023952,648251f5f13f3cab9a86e5cc,65d6bb0e977760de756971f7,65d6be55972c1d2144b7f504,0.0302,0.0302,0,124,124,88,1,fivesix,,,,,,,,,,,,,,,,,,,,,,,,,,,,,,,,,,,,,,,,,,,,,,,,,,,,,,,,,,,,,,,,,,,,,,,,,,,,,,,,,,,,,,,,,,,,,,,,,,,,,,,,,,,,,,,,,,,,,,,,,,,,,,,,,,,,,,,,,
,,648251f5f13f3cab9a86e5cc,2024-02-22_16h24.29.974,kallum_motion_pilot,2023.2.2,Win32,59.88023952,648251f5f13f3cab9a86e5cc,65d6bb0e977760de756971f7,65d6be55972c1d2144b7f504,0.0303,0.0303,0,125,125,46,1,fourtwo,,,,,,,,,,,,,,,,,,,,,,,,,,,,,,,,,,,,,,,,,,,,,,,,,,,,,,,,,,,,,,,,,,,,,,,,,,,,,,,,,,,,,,,,,,,,,,,,,,,,,,,,,,,,,,,,,,,,,,,,,,,,,,,,,,,,,,,,,
,,648251f5f13f3cab9a86e5cc,2024-02-22_16h24.29.974,kallum_motion_pilot,2023.2.2,Win32,59.88023952,648251f5f13f3cab9a86e5cc,65d6bb0e977760de756971f7,65d6be55972c1d2144b7f504,0.0305,0.0305,0,126,126,57,1,onethree,,,,,,,,,,,,,,,,,,,,,,,,,,,,,,,,,,,,,,,,,,,,,,,,,,,,,,,,,,,,,,,,,,,,,,,,,,,,,,,,,,,,,,,,,,,,,,,,,,,,,,,,,,,,,,,,,,,,,,,,,,,,,,,,,,,,,,,,,
,,648251f5f13f3cab9a86e5cc,2024-02-22_16h24.29.974,kallum_motion_pilot,2023.2.2,Win32,59.88023952,648251f5f13f3cab9a86e5cc,65d6bb0e977760de756971f7,65d6be55972c1d2144b7f504,0.0306,0.0306,0,127,127,65,1,onethree,,,,,,,,,,,,,,,,,,,,,,,,,,,,,,,,,,,,,,,,,,,,,,,,,,,,,,,,,,,,,,,,,,,,,,,,,,,,,,,,,,,,,,,,,,,,,,,,,,,,,,,,,,,,,,,,,,,,,,,,,,,,,,,,,,,,,,,,,
,,648251f5f13f3cab9a86e5cc,2024-02-22_16h24.29.974,kallum_motion_pilot,2023.2.2,Win32,59.88023952,648251f5f13f3cab9a86e5cc,65d6bb0e977760de756971f7,65d6be55972c1d2144b7f504,0.0307,0.0307,0,128,128,136,1,fivesix,,,,,,,,,,,,,,,,,,,,,,,,,,,,,,,,,,,,,,,,,,,,,,,,,,,,,,,,,,,,,,,,,,,,,,,,,,,,,,,,,,,,,,,,,,,,,,,,,,,,,,,,,,,,,,,,,,,,,,,,,,,,,,,,,,,,,,,,,
,,648251f5f13f3cab9a86e5cc,2024-02-22_16h24.29.974,kallum_motion_pilot,2023.2.2,Win32,59.88023952,648251f5f13f3cab9a86e5cc,65d6bb0e977760de756971f7,65d6be55972c1d2144b7f504,0.0308,0.0308,0,129,129,0,1,onetwo,,,,,,,,,,,,,,,,,,,,,,,,,,,,,,,,,,,,,,,,,,,,,,,,,,,,,,,,,,,,,,,,,,,,,,,,,,,,,,,,,,,,,,,,,,,,,,,,,,,,,,,,,,,,,,,,,,,,,,,,,,,,,,,,,,,,,,,,,
,,648251f5f13f3cab9a86e5cc,2024-02-22_16h24.29.974,kallum_motion_pilot,2023.2.2,Win32,59.88023952,648251f5f13f3cab9a86e5cc,65d6bb0e977760de756971f7,65d6be55972c1d2144b7f504,0.0308,0.0309,0,130,130,137,1,fiveseven,,,,,,,,,,,,,,,,,,,,,,,,,,,,,,,,,,,,,,,,,,,,,,,,,,,,,,,,,,,,,,,,,,,,,,,,,,,,,,,,,,,,,,,,,,,,,,,,,,,,,,,,,,,,,,,,,,,,,,,,,,,,,,,,,,,,,,,,,
,,648251f5f13f3cab9a86e5cc,2024-02-22_16h24.29.974,kallum_motion_pilot,2023.2.2,Win32,59.88023952,648251f5f13f3cab9a86e5cc,65d6bb0e977760de756971f7,65d6be55972c1d2144b7f504,0.0309,0.031,0,131,131,52,1,threeone,,,,,,,,,,,,,,,,,,,,,,,,,,,,,,,,,,,,,,,,,,,,,,,,,,,,,,,,,,,,,,,,,,,,,,,,,,,,,,,,,,,,,,,,,,,,,,,,,,,,,,,,,,,,,,,,,,,,,,,,,,,,,,,,,,,,,,,,,
,,648251f5f13f3cab9a86e5cc,2024-02-22_16h24.29.974,kallum_motion_pilot,2023.2.2,Win32,59.88023952,648251f5f13f3cab9a86e5cc,65d6bb0e977760de756971f7,65d6be55972c1d2144b7f504,0.031,0.0311,0,132,132,39,1,fourthree,,,,,,,,,,,,,,,,,,,,,,,,,,,,,,,,,,,,,,,,,,,,,,,,,,,,,,,,,,,,,,,,,,,,,,,,,,,,,,,,,,,,,,,,,,,,,,,,,,,,,,,,,,,,,,,,,,,,,,,,,,,,,,,,,,,,,,,,,
,,648251f5f13f3cab9a86e5cc,2024-02-22_16h24.29.974,kallum_motion_pilot,2023.2.2,Win32,59.88023952,648251f5f13f3cab9a86e5cc,65d6bb0e977760de756971f7,65d6be55972c1d2144b7f504,0.0311,0.0312,0,133,133,13,1,threefour,,,,,,,,,,,,,,,,,,,,,,,,,,,,,,,,,,,,,,,,,,,,,,,,,,,,,,,,,,,,,,,,,,,,,,,,,,,,,,,,,,,,,,,,,,,,,,,,,,,,,,,,,,,,,,,,,,,,,,,,,,,,,,,,,,,,,,,,,
,,648251f5f13f3cab9a86e5cc,2024-02-22_16h24.29.974,kallum_motion_pilot,2023.2.2,Win32,59.88023952,648251f5f13f3cab9a86e5cc,65d6bb0e977760de756971f7,65d6be55972c1d2144b7f504,0.0313,0.0313,0,134,134,24,1,onetwo,,,,,,,,,,,,,,,,,,,,,,,,,,,,,,,,,,,,,,,,,,,,,,,,,,,,,,,,,,,,,,,,,,,,,,,,,,,,,,,,,,,,,,,,,,,,,,,,,,,,,,,,,,,,,,,,,,,,,,,,,,,,,,,,,,,,,,,,,
,,648251f5f13f3cab9a86e5cc,2024-02-22_16h24.29.974,kallum_motion_pilot,2023.2.2,Win32,59.88023952,648251f5f13f3cab9a86e5cc,65d6bb0e977760de756971f7,65d6be55972c1d2144b7f504,0.0313,0.0314,0,135,135,25,1,onethree,,,,,,,,,,,,,,,,,,,,,,,,,,,,,,,,,,,,,,,,,,,,,,,,,,,,,,,,,,,,,,,,,,,,,,,,,,,,,,,,,,,,,,,,,,,,,,,,,,,,,,,,,,,,,,,,,,,,,,,,,,,,,,,,,,,,,,,,,
,,648251f5f13f3cab9a86e5cc,2024-02-22_16h24.29.974,kallum_motion_pilot,2023.2.2,Win32,59.88023952,648251f5f13f3cab9a86e5cc,65d6bb0e977760de756971f7,65d6be55972c1d2144b7f504,0.0315,0.0315,0,136,136,131,1,sixeight,,,,,,,,,,,,,,,,,,,,,,,,,,,,,,,,,,,,,,,,,,,,,,,,,,,,,,,,,,,,,,,,,,,,,,,,,,,,,,,,,,,,,,,,,,,,,,,,,,,,,,,,,,,,,,,,,,,,,,,,,,,,,,,,,,,,,,,,,
,,648251f5f13f3cab9a86e5cc,2024-02-22_16h24.29.974,kallum_motion_pilot,2023.2.2,Win32,59.88023952,648251f5f13f3cab9a86e5cc,65d6bb0e977760de756971f7,65d6be55972c1d2144b7f504,0.0316,0.0316,0,137,137,96,1,fivesix,,,,,,,,,,,,,,,,,,,,,,,,,,,,,,,,,,,,,,,,,,,,,,,,,,,,,,,,,,,,,,,,,,,,,,,,,,,,,,,,,,,,,,,,,,,,,,,,,,,,,,,,,,,,,,,,,,,,,,,,,,,,,,,,,,,,,,,,,
,,648251f5f13f3cab9a86e5cc,2024-02-22_16h24.29.974,kallum_motion_pilot,2023.2.2,Win32,59.88023952,648251f5f13f3cab9a86e5cc,65d6bb0e977760de756971f7,65d6be55972c1d2144b7f504,0.0316,0.0317,0,138,138,121,1,fiveseven,,,,,,,,,,,,,,,,,,,,,,,,,,,,,,,,,,,,,,,,,,,,,,,,,,,,,,,,,,,,,,,,,,,,,,,,,,,,,,,,,,,,,,,,,,,,,,,,,,,,,,,,,,,,,,,,,,,,,,,,,,,,,,,,,,,,,,,,,
,,648251f5f13f3cab9a86e5cc,2024-02-22_16h24.29.974,kallum_motion_pilot,2023.2.2,Win32,59.88023952,648251f5f13f3cab9a86e5cc,65d6bb0e977760de756971f7,65d6be55972c1d2144b7f504,0.0317,0.0318,0,139,139,5,1,threefour,,,,,,,,,,,,,,,,,,,,,,,,,,,,,,,,,,,,,,,,,,,,,,,,,,,,,,,,,,,,,,,,,,,,,,,,,,,,,,,,,,,,,,,,,,,,,,,,,,,,,,,,,,,,,,,,,,,,,,,,,,,,,,,,,,,,,,,,,
,,648251f5f13f3cab9a86e5cc,2024-02-22_16h24.29.974,kallum_motion_pilot,2023.2.2,Win32,59.88023952,648251f5f13f3cab9a86e5cc,65d6bb0e977760de756971f7,65d6be55972c1d2144b7f504,0.0318,0.0318,0,140,140,150,1,eightsix,,,,,,,,,,,,,,,,,,,,,,,,,,,,,,,,,,,,,,,,,,,,,,,,,,,,,,,,,,,,,,,,,,,,,,,,,,,,,,,,,,,,,,,,,,,,,,,,,,,,,,,,,,,,,,,,,,,,,,,,,,,,,,,,,,,,,,,,,
,,648251f5f13f3cab9a86e5cc,2024-02-22_16h24.29.974,kallum_motion_pilot,2023.2.2,Win32,59.88023952,648251f5f13f3cab9a86e5cc,65d6bb0e977760de756971f7,65d6be55972c1d2144b7f504,0.032,0.032,0,141,141,118,1,eightsix,,,,,,,,,,,,,,,,,,,,,,,,,,,,,,,,,,,,,,,,,,,,,,,,,,,,,,,,,,,,,,,,,,,,,,,,,,,,,,,,,,,,,,,,,,,,,,,,,,,,,,,,,,,,,,,,,,,,,,,,,,,,,,,,,,,,,,,,,
,,648251f5f13f3cab9a86e5cc,2024-02-22_16h24.29.974,kallum_motion_pilot,2023.2.2,Win32,59.88023952,648251f5f13f3cab9a86e5cc,65d6bb0e977760de756971f7,65d6be55972c1d2144b7f504,0.0321,0.0321,0,142,142,6,1,fourtwo,,,,,,,,,,,,,,,,,,,,,,,,,,,,,,,,,,,,,,,,,,,,,,,,,,,,,,,,,,,,,,,,,,,,,,,,,,,,,,,,,,,,,,,,,,,,,,,,,,,,,,,,,,,,,,,,,,,,,,,,,,,,,,,,,,,,,,,,,
,,648251f5f13f3cab9a86e5cc,2024-02-22_16h24.29.974,kallum_motion_pilot,2023.2.2,Win32,59.88023952,648251f5f13f3cab9a86e5cc,65d6bb0e977760de756971f7,65d6be55972c1d2144b7f504,0.0322,0.0322,0,143,143,79,1,eightseven,,,,,,,,,,,,,,,,,,,,,,,,,,,,,,,,,,,,,,,,,,,,,,,,,,,,,,,,,,,,,,,,,,,,,,,,,,,,,,,,,,,,,,,,,,,,,,,,,,,,,,,,,,,,,,,,,,,,,,,,,,,,,,,,,,,,,,,,,
,,648251f5f13f3cab9a86e5cc,2024-02-22_16h24.29.974,kallum_motion_pilot,2023.2.2,Win32,59.88023952,648251f5f13f3cab9a86e5cc,65d6bb0e977760de756971f7,65d6be55972c1d2144b7f504,0.0323,0.0323,0,144,144,99,1,sixeight,,,,,,,,,,,,,,,,,,,,,,,,,,,,,,,,,,,,,,,,,,,,,,,,,,,,,,,,,,,,,,,,,,,,,,,,,,,,,,,,,,,,,,,,,,,,,,,,,,,,,,,,,,,,,,,,,,,,,,,,,,,,,,,,,,,,,,,,,
,,648251f5f13f3cab9a86e5cc,2024-02-22_16h24.29.974,kallum_motion_pilot,2023.2.2,Win32,59.88023952,648251f5f13f3cab9a86e5cc,65d6bb0e977760de756971f7,65d6be55972c1d2144b7f504,0.0324,0.0324,0,145,145,10,1,twoone,,,,,,,,,,,,,,,,,,,,,,,,,,,,,,,,,,,,,,,,,,,,,,,,,,,,,,,,,,,,,,,,,,,,,,,,,,,,,,,,,,,,,,,,,,,,,,,,,,,,,,,,,,,,,,,,,,,,,,,,,,,,,,,,,,,,,,,,,
,,648251f5f13f3cab9a86e5cc,2024-02-22_16h24.29.974,kallum_motion_pilot,2023.2.2,Win32,59.88023952,648251f5f13f3cab9a86e5cc,65d6bb0e977760de756971f7,65d6be55972c1d2144b7f504,0.0325,0.0326,0,146,146,27,1,twofour,,,,,,,,,,,,,,,,,,,,,,,,,,,,,,,,,,,,,,,,,,,,,,,,,,,,,,,,,,,,,,,,,,,,,,,,,,,,,,,,,,,,,,,,,,,,,,,,,,,,,,,,,,,,,,,,,,,,,,,,,,,,,,,,,,,,,,,,,
,,648251f5f13f3cab9a86e5cc,2024-02-22_16h24.29.974,kallum_motion_pilot,2023.2.2,Win32,59.88023952,648251f5f13f3cab9a86e5cc,65d6bb0e977760de756971f7,65d6be55972c1d2144b7f504,0.0326,0.0326,0,147,147,108,1,sevenfive,,,,,,,,,,,,,,,,,,,,,,,,,,,,,,,,,,,,,,,,,,,,,,,,,,,,,,,,,,,,,,,,,,,,,,,,,,,,,,,,,,,,,,,,,,,,,,,,,,,,,,,,,,,,,,,,,,,,,,,,,,,,,,,,,,,,,,,,,
,,648251f5f13f3cab9a86e5cc,2024-02-22_16h24.29.974,kallum_motion_pilot,2023.2.2,Win32,59.88023952,648251f5f13f3cab9a86e5cc,65d6bb0e977760de756971f7,65d6be55972c1d2144b7f504,0.0327,0.0327,0,148,148,71,1,fourthree,,,,,,,,,,,,,,,,,,,,,,,,,,,,,,,,,,,,,,,,,,,,,,,,,,,,,,,,,,,,,,,,,,,,,,,,,,,,,,,,,,,,,,,,,,,,,,,,,,,,,,,,,,,,,,,,,,,,,,,,,,,,,,,,,,,,,,,,,
,,648251f5f13f3cab9a86e5cc,2024-02-22_16h24.29.974,kallum_motion_pilot,2023.2.2,Win32,59.88023952,648251f5f13f3cab9a86e5cc,65d6bb0e977760de756971f7,65d6be55972c1d2144b7f504,0.0328,0.0328,0,149,149,77,1,threefour,,,,,,,,,,,,,,,,,,,,,,,,,,,,,,,,,,,,,,,,,,,,,,,,,,,,,,,,,,,,,,,,,,,,,,,,,,,,,,,,,,,,,,,,,,,,,,,,,,,,,,,,,,,,,,,,,,,,,,,,,,,,,,,,,,,,,,,,,
,,648251f5f13f3cab9a86e5cc,2024-02-22_16h24.29.974,kallum_motion_pilot,2023.2.2,Win32,59.88023952,648251f5f13f3cab9a86e5cc,65d6bb0e977760de756971f7,65d6be55972c1d2144b7f504,0.0329,0.0329,0,150,150,50,1,twoone,,,,,,,,,,,,,,,,,,,,,,,,,,,,,,,,,,,,,,,,,,,,,,,,,,,,,,,,,,,,,,,,,,,,,,,,,,,,,,,,,,,,,,,,,,,,,,,,,,,,,,,,,,,,,,,,,,,,,,,,,,,,,,,,,,,,,,,,,
,,648251f5f13f3cab9a86e5cc,2024-02-22_16h24.29.974,kallum_motion_pilot,2023.2.2,Win32,59.88023952,648251f5f13f3cab9a86e5cc,65d6bb0e977760de756971f7,65d6be55972c1d2144b7f504,0.033,0.033,0,151,151,124,1,sevenfive,,,,,,,,,,,,,,,,,,,,,,,,,,,,,,,,,,,,,,,,,,,,,,,,,,,,,,,,,,,,,,,,,,,,,,,,,,,,,,,,,,,,,,,,,,,,,,,,,,,,,,,,,,,,,,,,,,,,,,,,,,,,,,,,,,,,,,,,,
,,648251f5f13f3cab9a86e5cc,2024-02-22_16h24.29.974,kallum_motion_pilot,2023.2.2,Win32,59.88023952,648251f5f13f3cab9a86e5cc,65d6bb0e977760de756971f7,65d6be55972c1d2144b7f504,0.0331,0.0331,0,152,152,32,1,onetwo,,,,,,,,,,,,,,,,,,,,,,,,,,,,,,,,,,,,,,,,,,,,,,,,,,,,,,,,,,,,,,,,,,,,,,,,,,,,,,,,,,,,,,,,,,,,,,,,,,,,,,,,,,,,,,,,,,,,,,,,,,,,,,,,,,,,,,,,,
,,648251f5f13f3cab9a86e5cc,2024-02-22_16h24.29.974,kallum_motion_pilot,2023.2.2,Win32,59.88023952,648251f5f13f3cab9a86e5cc,65d6bb0e977760de756971f7,65d6be55972c1d2144b7f504,0.0332,0.0333,0,153,153,8,1,onetwo,,,,,,,,,,,,,,,,,,,,,,,,,,,,,,,,,,,,,,,,,,,,,,,,,,,,,,,,,,,,,,,,,,,,,,,,,,,,,,,,,,,,,,,,,,,,,,,,,,,,,,,,,,,,,,,,,,,,,,,,,,,,,,,,,,,,,,,,,
,,648251f5f13f3cab9a86e5cc,2024-02-22_16h24.29.974,kallum_motion_pilot,2023.2.2,Win32,59.88023952,648251f5f13f3cab9a86e5cc,65d6bb0e977760de756971f7,65d6be55972c1d2144b7f504,0.0333,0.0333,0,154,154,61,1,threefour,,,,,,,,,,,,,,,,,,,,,,,,,,,,,,,,,,,,,,,,,,,,,,,,,,,,,,,,,,,,,,,,,,,,,,,,,,,,,,,,,,,,,,,,,,,,,,,,,,,,,,,,,,,,,,,,,,,,,,,,,,,,,,,,,,,,,,,,,
,,648251f5f13f3cab9a86e5cc,2024-02-22_16h24.29.974,kallum_motion_pilot,2023.2.2,Win32,59.88023952,648251f5f13f3cab9a86e5cc,65d6bb0e977760de756971f7,65d6be55972c1d2144b7f504,0.0334,0.0334,0,155,155,40,1,onetwo,,,,,,,,,,,,,,,,,,,,,,,,,,,,,,,,,,,,,,,,,,,,,,,,,,,,,,,,,,,,,,,,,,,,,,,,,,,,,,,,,,,,,,,,,,,,,,,,,,,,,,,,,,,,,,,,,,,,,,,,,,,,,,,,,,,,,,,,,
,,648251f5f13f3cab9a86e5cc,2024-02-22_16h24.29.974,kallum_motion_pilot,2023.2.2,Win32,59.88023952,648251f5f13f3cab9a86e5cc,65d6bb0e977760de756971f7,65d6be55972c1d2144b7f504,0.0336,0.0336,0,156,156,70,1,fourtwo,,,,,,,,,,,,,,,,,,,,,,,,,,,,,,,,,,,,,,,,,,,,,,,,,,,,,,,,,,,,,,,,,,,,,,,,,,,,,,,,,,,,,,,,,,,,,,,,,,,,,,,,,,,,,,,,,,,,,,,,,,,,,,,,,,,,,,,,,
,,648251f5f13f3cab9a86e5cc,2024-02-22_16h24.29.974,kallum_motion_pilot,2023.2.2,Win32,59.88023952,648251f5f13f3cab9a86e5cc,65d6bb0e977760de756971f7,65d6be55972c1d2144b7f504,0.0336,0.0336,0,157,157,20,1,threeone,,,,,,,,,,,,,,,,,,,,,,,,,,,,,,,,,,,,,,,,,,,,,,,,,,,,,,,,,,,,,,,,,,,,,,,,,,,,,,,,,,,,,,,,,,,,,,,,,,,,,,,,,,,,,,,,,,,,,,,,,,,,,,,,,,,,,,,,,
,,648251f5f13f3cab9a86e5cc,2024-02-22_16h24.29.974,kallum_motion_pilot,2023.2.2,Win32,59.88023952,648251f5f13f3cab9a86e5cc,65d6bb0e977760de756971f7,65d6be55972c1d2144b7f504,0.0337,0.0338,0,158,158,151,1,eightseven,,,,,,,,,,,,,,,,,,,,,,,,,,,,,,,,,,,,,,,,,,,,,,,,,,,,,,,,,,,,,,,,,,,,,,,,,,,,,,,,,,,,,,,,,,,,,,,,,,,,,,,,,,,,,,,,,,,,,,,,,,,,,,,,,,,,,,,,,
,,648251f5f13f3cab9a86e5cc,2024-02-22_16h24.29.974,kallum_motion_pilot,2023.2.2,Win32,59.88023952,648251f5f13f3cab9a86e5cc,65d6bb0e977760de756971f7,65d6be55972c1d2144b7f504,0.0338,0.0339,0,159,159,153,1,fiveseven,,,,,,,,,,,,,,,,,,,,,,,,,,,,,,,,,,,,,,,,,,,,,,,,,,,,,,,,,,,,,,,,,,,,,,,,,,,,,,,,,,,,,,,,,,,,,,,,,,,,,,,,,,,,,,,,,,,,,,,,,,,,,,,,,,,,,,,,,
,,648251f5f13f3cab9a86e5cc,2024-02-22_16h24.29.974,kallum_motion_pilot,2023.2.2,Win32,59.88023952,648251f5f13f3cab9a86e5cc,65d6bb0e977760de756971f7,65d6be55972c1d2144b7f504,0.0339,0.0339,0,160,160,72,1,onetwo,,,,,,,,,,,,,,,,,,,,,,,,,,,,,,,,,,,,,,,,,,,,,,,,,,,,,,,,,,,,,,,,,,,,,,,,,,,,,,,,,,,,,,,,,,,,,,,,,,,,,,,,,,,,,,,,,,,,,,,,,,,,,,,,,,,,,,,,,
,,648251f5f13f3cab9a86e5cc,2024-02-22_16h24.29.974,kallum_motion_pilot,2023.2.2,Win32,59.88023952,648251f5f13f3cab9a86e5cc,65d6bb0e977760de756971f7,65d6be55972c1d2144b7f504,0.0341,0.0342,0,161,161,95,1,eightseven,,,,,,,,,,,,,,,,,,,,,,,,,,,,,,,,,,,,,,,,,,,,,,,,,,,,,,,,,,,,,,,,,,,,,,,,,,,,,,,,,,,,,,,,,,,,,,,,,,,,,,,,,,,,,,,,,,,,,,,,,,,,,,,,,,,,,,,,,
,,648251f5f13f3cab9a86e5cc,2024-02-22_16h24.29.974,kallum_motion_pilot,2023.2.2,Win32,59.88023952,648251f5f13f3cab9a86e5cc,65d6bb0e977760de756971f7,65d6be55972c1d2144b7f504,0.0343,0.0343,1,0,162,133,1,seveneight,,,,,,,,,,,,,,,,,,,,,,,,,,,,,,,,,,,,,,,,,,,,,,,,,,,,,,,,,,,,,,,,,,,,,,,,,,,,,,,,,,,,,,,,,,,,,,,,,,,,,,,,,,,,,,,,,,,,,,,,,,,,,,,,,,,,,,,,,
,,648251f5f13f3cab9a86e5cc,2024-02-22_16h24.29.974,kallum_motion_pilot,2023.2.2,Win32,59.88023952,648251f5f13f3cab9a86e5cc,65d6bb0e977760de756971f7,65d6be55972c1d2144b7f504,0.0344,0.0344,1,1,163,1,1,onethree,,,,,,,,,,,,,,,,,,,,,,,,,,,,,,,,,,,,,,,,,,,,,,,,,,,,,,,,,,,,,,,,,,,,,,,,,,,,,,,,,,,,,,,,,,,,,,,,,,,,,,,,,,,,,,,,,,,,,,,,,,,,,,,,,,,,,,,,,
,,648251f5f13f3cab9a86e5cc,2024-02-22_16h24.29.974,kallum_motion_pilot,2023.2.2,Win32,59.88023952,648251f5f13f3cab9a86e5cc,65d6bb0e977760de756971f7,65d6be55972c1d2144b7f504,0.0345,0.0345,1,2,164,155,1,sixeight,,,,,,,,,,,,,,,,,,,,,,,,,,,,,,,,,,,,,,,,,,,,,,,,,,,,,,,,,,,,,,,,,,,,,,,,,,,,,,,,,,,,,,,,,,,,,,,,,,,,,,,,,,,,,,,,,,,,,,,,,,,,,,,,,,,,,,,,,
,,648251f5f13f3cab9a86e5cc,2024-02-22_16h24.29.974,kallum_motion_pilot,2023.2.2,Win32,59.88023952,648251f5f13f3cab9a86e5cc,65d6bb0e977760de756971f7,65d6be55972c1d2144b7f504,0.0346,0.0347,1,3,165,156,1,sevenfive,,,,,,,,,,,,,,,,,,,,,,,,,,,,,,,,,,,,,,,,,,,,,,,,,,,,,,,,,,,,,,,,,,,,,,,,,,,,,,,,,,,,,,,,,,,,,,,,,,,,,,,,,,,,,,,,,,,,,,,,,,,,,,,,,,,,,,,,,
,,648251f5f13f3cab9a86e5cc,2024-02-22_16h24.29.974,kallum_motion_pilot,2023.2.2,Win32,59.88023952,648251f5f13f3cab9a86e5cc,65d6bb0e977760de756971f7,65d6be55972c1d2144b7f504,0.0347,0.0347,1,4,166,102,1,eightsix,,,,,,,,,,,,,,,,,,,,,,,,,,,,,,,,,,,,,,,,,,,,,,,,,,,,,,,,,,,,,,,,,,,,,,,,,,,,,,,,,,,,,,,,,,,,,,,,,,,,,,,,,,,,,,,,,,,,,,,,,,,,,,,,,,,,,,,,,
,,648251f5f13f3cab9a86e5cc,2024-02-22_16h24.29.974,kallum_motion_pilot,2023.2.2,Win32,59.88023952,648251f5f13f3cab9a86e5cc,65d6bb0e977760de756971f7,65d6be55972c1d2144b7f504,0.0348,0.0348,1,5,167,30,1,fourtwo,,,,,,,,,,,,,,,,,,,,,,,,,,,,,,,,,,,,,,,,,,,,,,,,,,,,,,,,,,,,,,,,,,,,,,,,,,,,,,,,,,,,,,,,,,,,,,,,,,,,,,,,,,,,,,,,,,,,,,,,,,,,,,,,,,,,,,,,,
,,648251f5f13f3cab9a86e5cc,2024-02-22_16h24.29.974,kallum_motion_pilot,2023.2.2,Win32,59.88023952,648251f5f13f3cab9a86e5cc,65d6bb0e977760de756971f7,65d6be55972c1d2144b7f504,0.0349,0.0349,1,6,168,77,1,threefour,,,,,,,,,,,,,,,,,,,,,,,,,,,,,,,,,,,,,,,,,,,,,,,,,,,,,,,,,,,,,,,,,,,,,,,,,,,,,,,,,,,,,,,,,,,,,,,,,,,,,,,,,,,,,,,,,,,,,,,,,,,,,,,,,,,,,,,,,
,,648251f5f13f3cab9a86e5cc,2024-02-22_16h24.29.974,kallum_motion_pilot,2023.2.2,Win32,59.88023952,648251f5f13f3cab9a86e5cc,65d6bb0e977760de756971f7,65d6be55972c1d2144b7f504,0.035,0.035,1,7,169,145,1,fiveseven,,,,,,,,,,,,,,,,,,,,,,,,,,,,,,,,,,,,,,,,,,,,,,,,,,,,,,,,,,,,,,,,,,,,,,,,,,,,,,,,,,,,,,,,,,,,,,,,,,,,,,,,,,,,,,,,,,,,,,,,,,,,,,,,,,,,,,,,,
,,648251f5f13f3cab9a86e5cc,2024-02-22_16h24.29.974,kallum_motion_pilot,2023.2.2,Win32,59.88023952,648251f5f13f3cab9a86e5cc,65d6bb0e977760de756971f7,65d6be55972c1d2144b7f504,0.0351,0.0352,1,8,170,16,1,onetwo,,,,,,,,,,,,,,,,,,,,,,,,,,,,,,,,,,,,,,,,,,,,,,,,,,,,,,,,,,,,,,,,,,,,,,,,,,,,,,,,,,,,,,,,,,,,,,,,,,,,,,,,,,,,,,,,,,,,,,,,,,,,,,,,,,,,,,,,,
,,648251f5f13f3cab9a86e5cc,2024-02-22_16h24.29.974,kallum_motion_pilot,2023.2.2,Win32,59.88023952,648251f5f13f3cab9a86e5cc,65d6bb0e977760de756971f7,65d6be55972c1d2144b7f504,0.0353,0.0353,1,9,171,57,1,onethree,,,,,,,,,,,,,,,,,,,,,,,,,,,,,,,,,,,,,,,,,,,,,,,,,,,,,,,,,,,,,,,,,,,,,,,,,,,,,,,,,,,,,,,,,,,,,,,,,,,,,,,,,,,,,,,,,,,,,,,,,,,,,,,,,,,,,,,,,
,,648251f5f13f3cab9a86e5cc,2024-02-22_16h24.29.974,kallum_motion_pilot,2023.2.2,Win32,59.88023952,648251f5f13f3cab9a86e5cc,65d6bb0e977760de756971f7,65d6be55972c1d2144b7f504,0.0353,0.0354,1,10,172,12,1,threeone,,,,,,,,,,,,,,,,,,,,,,,,,,,,,,,,,,,,,,,,,,,,,,,,,,,,,,,,,,,,,,,,,,,,,,,,,,,,,,,,,,,,,,,,,,,,,,,,,,,,,,,,,,,,,,,,,,,,,,,,,,,,,,,,,,,,,,,,,
,,648251f5f13f3cab9a86e5cc,2024-02-22_16h24.29.974,kallum_motion_pilot,2023.2.2,Win32,59.88023952,648251f5f13f3cab9a86e5cc,65d6bb0e977760de756971f7,65d6be55972c1d2144b7f504,0.0355,0.0355,1,11,173,127,1,eightseven,,,,,,,,,,,,,,,,,,,,,,,,,,,,,,,,,,,,,,,,,,,,,,,,,,,,,,,,,,,,,,,,,,,,,,,,,,,,,,,,,,,,,,,,,,,,,,,,,,,,,,,,,,,,,,,,,,,,,,,,,,,,,,,,,,,,,,,,,
,,648251f5f13f3cab9a86e5cc,2024-02-22_16h24.29.974,kallum_motion_pilot,2023.2.2,Win32,59.88023952,648251f5f13f3cab9a86e5cc,65d6bb0e977760de756971f7,65d6be55972c1d2144b7f504,0.0355,0.0356,1,12,174,47,1,fourthree,,,,,,,,,,,,,,,,,,,,,,,,,,,,,,,,,,,,,,,,,,,,,,,,,,,,,,,,,,,,,,,,,,,,,,,,,,,,,,,,,,,,,,,,,,,,,,,,,,,,,,,,,,,,,,,,,,,,,,,,,,,,,,,,,,,,,,,,,
,,648251f5f13f3cab9a86e5cc,2024-02-22_16h24.29.974,kallum_motion_pilot,2023.2.2,Win32,59.88023952,648251f5f13f3cab9a86e5cc,65d6bb0e977760de756971f7,65d6be55972c1d2144b7f504,0.0357,0.0358,1,13,175,151,1,eightseven,,,,,,,,,,,,,,,,,,,,,,,,,,,,,,,,,,,,,,,,,,,,,,,,,,,,,,,,,,,,,,,,,,,,,,,,,,,,,,,,,,,,,,,,,,,,,,,,,,,,,,,,,,,,,,,,,,,,,,,,,,,,,,,,,,,,,,,,,
,,648251f5f13f3cab9a86e5cc,2024-02-22_16h24.29.974,kallum_motion_pilot,2023.2.2,Win32,59.88023952,648251f5f13f3cab9a86e5cc,65d6bb0e977760de756971f7,65d6be55972c1d2144b7f504,0.0358,0.0359,1,14,176,13,1,threefour,,,,,,,,,,,,,,,,,,,,,,,,,,,,,,,,,,,,,,,,,,,,,,,,,,,,,,,,,,,,,,,,,,,,,,,,,,,,,,,,,,,,,,,,,,,,,,,,,,,,,,,,,,,,,,,,,,,,,,,,,,,,,,,,,,,,,,,,,
,,648251f5f13f3cab9a86e5cc,2024-02-22_16h24.29.974,kallum_motion_pilot,2023.2.2,Win32,59.88023952,648251f5f13f3cab9a86e5cc,65d6bb0e977760de756971f7,65d6be55972c1d2144b7f504,0.0359,0.0359,1,15,177,154,1,sixfive,,,,,,,,,,,,,,,,,,,,,,,,,,,,,,,,,,,,,,,,,,,,,,,,,,,,,,,,,,,,,,,,,,,,,,,,,,,,,,,,,,,,,,,,,,,,,,,,,,,,,,,,,,,,,,,,,,,,,,,,,,,,,,,,,,,,,,,,,
,,648251f5f13f3cab9a86e5cc,2024-02-22_16h24.29.974,kallum_motion_pilot,2023.2.2,Win32,59.88023952,648251f5f13f3cab9a86e5cc,65d6bb0e977760de756971f7,65d6be55972c1d2144b7f504,0.036,0.0361,1,16,178,17,1,onethree,,,,,,,,,,,,,,,,,,,,,,,,,,,,,,,,,,,,,,,,,,,,,,,,,,,,,,,,,,,,,,,,,,,,,,,,,,,,,,,,,,,,,,,,,,,,,,,,,,,,,,,,,,,,,,,,,,,,,,,,,,,,,,,,,,,,,,,,,
,,648251f5f13f3cab9a86e5cc,2024-02-22_16h24.29.974,kallum_motion_pilot,2023.2.2,Win32,59.88023952,648251f5f13f3cab9a86e5cc,65d6bb0e977760de756971f7,65d6be55972c1d2144b7f504,0.0362,0.0362,1,17,179,42,1,twoone,,,,,,,,,,,,,,,,,,,,,,,,,,,,,,,,,,,,,,,,,,,,,,,,,,,,,,,,,,,,,,,,,,,,,,,,,,,,,,,,,,,,,,,,,,,,,,,,,,,,,,,,,,,,,,,,,,,,,,,,,,,,,,,,,,,,,,,,,
,,648251f5f13f3cab9a86e5cc,2024-02-22_16h24.29.974,kallum_motion_pilot,2023.2.2,Win32,59.88023952,648251f5f13f3cab9a86e5cc,65d6bb0e977760de756971f7,65d6be55972c1d2144b7f504,0.0363,0.0363,1,18,180,79,1,eightseven,,,,,,,,,,,,,,,,,,,,,,,,,,,,,,,,,,,,,,,,,,,,,,,,,,,,,,,,,,,,,,,,,,,,,,,,,,,,,,,,,,,,,,,,,,,,,,,,,,,,,,,,,,,,,,,,,,,,,,,,,,,,,,,,,,,,,,,,,
,,648251f5f13f3cab9a86e5cc,2024-02-22_16h24.29.974,kallum_motion_pilot,2023.2.2,Win32,59.88023952,648251f5f13f3cab9a86e5cc,65d6bb0e977760de756971f7,65d6be55972c1d2144b7f504,0.0364,0.0364,1,19,181,54,1,fourtwo,,,,,,,,,,,,,,,,,,,,,,,,,,,,,,,,,,,,,,,,,,,,,,,,,,,,,,,,,,,,,,,,,,,,,,,,,,,,,,,,,,,,,,,,,,,,,,,,,,,,,,,,,,,,,,,,,,,,,,,,,,,,,,,,,,,,,,,,,
,,648251f5f13f3cab9a86e5cc,2024-02-22_16h24.29.974,kallum_motion_pilot,2023.2.2,Win32,59.88023952,648251f5f13f3cab9a86e5cc,65d6bb0e977760de756971f7,65d6be55972c1d2144b7f504,0.0365,0.0366,1,20,182,64,1,onetwo,,,,,,,,,,,,,,,,,,,,,,,,,,,,,,,,,,,,,,,,,,,,,,,,,,,,,,,,,,,,,,,,,,,,,,,,,,,,,,,,,,,,,,,,,,,,,,,,,,,,,,,,,,,,,,,,,,,,,,,,,,,,,,,,,,,,,,,,,
,,648251f5f13f3cab9a86e5cc,2024-02-22_16h24.29.974,kallum_motion_pilot,2023.2.2,Win32,59.88023952,648251f5f13f3cab9a86e5cc,65d6bb0e977760de756971f7,65d6be55972c1d2144b7f504,0.0366,0.0366,1,21,183,139,1,sixeight,,,,,,,,,,,,,,,,,,,,,,,,,,,,,,,,,,,,,,,,,,,,,,,,,,,,,,,,,,,,,,,,,,,,,,,,,,,,,,,,,,,,,,,,,,,,,,,,,,,,,,,,,,,,,,,,,,,,,,,,,,,,,,,,,,,,,,,,,
,,648251f5f13f3cab9a86e5cc,2024-02-22_16h24.29.974,kallum_motion_pilot,2023.2.2,Win32,59.88023952,648251f5f13f3cab9a86e5cc,65d6bb0e977760de756971f7,65d6be55972c1d2144b7f504,0.0368,0.0368,1,22,184,46,1,fourtwo,,,,,,,,,,,,,,,,,,,,,,,,,,,,,,,,,,,,,,,,,,,,,,,,,,,,,,,,,,,,,,,,,,,,,,,,,,,,,,,,,,,,,,,,,,,,,,,,,,,,,,,,,,,,,,,,,,,,,,,,,,,,,,,,,,,,,,,,,
,,648251f5f13f3cab9a86e5cc,2024-02-22_16h24.29.974,kallum_motion_pilot,2023.2.2,Win32,59.88023952,648251f5f13f3cab9a86e5cc,65d6bb0e977760de756971f7,65d6be55972c1d2144b7f504,0.0368,0.0369,1,23,185,83,1,sixeight,,,,,,,,,,,,,,,,,,,,,,,,,,,,,,,,,,,,,,,,,,,,,,,,,,,,,,,,,,,,,,,,,,,,,,,,,,,,,,,,,,,,,,,,,,,,,,,,,,,,,,,,,,,,,,,,,,,,,,,,,,,,,,,,,,,,,,,,,
,,648251f5f13f3cab9a86e5cc,2024-02-22_16h24.29.974,kallum_motion_pilot,2023.2.2,Win32,59.88023952,648251f5f13f3cab9a86e5cc,65d6bb0e977760de756971f7,65d6be55972c1d2144b7f504,0.037,0.037,1,24,186,61,1,threefour,,,,,,,,,,,,,,,,,,,,,,,,,,,,,,,,,,,,,,,,,,,,,,,,,,,,,,,,,,,,,,,,,,,,,,,,,,,,,,,,,,,,,,,,,,,,,,,,,,,,,,,,,,,,,,,,,,,,,,,,,,,,,,,,,,,,,,,,,
,,648251f5f13f3cab9a86e5cc,2024-02-22_16h24.29.974,kallum_motion_pilot,2023.2.2,Win32,59.88023952,648251f5f13f3cab9a86e5cc,65d6bb0e977760de756971f7,65d6be55972c1d2144b7f504,0.037,0.0371,1,25,187,36,1,threeone,,,,,,,,,,,,,,,,,,,,,,,,,,,,,,,,,,,,,,,,,,,,,,,,,,,,,,,,,,,,,,,,,,,,,,,,,,,,,,,,,,,,,,,,,,,,,,,,,,,,,,,,,,,,,,,,,,,,,,,,,,,,,,,,,,,,,,,,,
,,648251f5f13f3cab9a86e5cc,2024-02-22_16h24.29.974,kallum_motion_pilot,2023.2.2,Win32,59.88023952,648251f5f13f3cab9a86e5cc,65d6bb0e977760de756971f7,65d6be55972c1d2144b7f504,0.0371,0.0373,1,26,188,117,1,seveneight,,,,,,,,,,,,,,,,,,,,,,,,,,,,,,,,,,,,,,,,,,,,,,,,,,,,,,,,,,,,,,,,,,,,,,,,,,,,,,,,,,,,,,,,,,,,,,,,,,,,,,,,,,,,,,,,,,,,,,,,,,,,,,,,,,,,,,,,,
,,648251f5f13f3cab9a86e5cc,2024-02-22_16h24.29.974,kallum_motion_pilot,2023.2.2,Win32,59.88023952,648251f5f13f3cab9a86e5cc,65d6bb0e977760de756971f7,65d6be55972c1d2144b7f504,0.0373,0.0374,1,27,189,73,1,onethree,,,,,,,,,,,,,,,,,,,,,,,,,,,,,,,,,,,,,,,,,,,,,,,,,,,,,,,,,,,,,,,,,,,,,,,,,,,,,,,,,,,,,,,,,,,,,,,,,,,,,,,,,,,,,,,,,,,,,,,,,,,,,,,,,,,,,,,,,
,,648251f5f13f3cab9a86e5cc,2024-02-22_16h24.29.974,kallum_motion_pilot,2023.2.2,Win32,59.88023952,648251f5f13f3cab9a86e5cc,65d6bb0e977760de756971f7,65d6be55972c1d2144b7f504,0.0374,0.0375,1,28,190,51,1,twofour,,,,,,,,,,,,,,,,,,,,,,,,,,,,,,,,,,,,,,,,,,,,,,,,,,,,,,,,,,,,,,,,,,,,,,,,,,,,,,,,,,,,,,,,,,,,,,,,,,,,,,,,,,,,,,,,,,,,,,,,,,,,,,,,,,,,,,,,,
,,648251f5f13f3cab9a86e5cc,2024-02-22_16h24.29.974,kallum_motion_pilot,2023.2.2,Win32,59.88023952,648251f5f13f3cab9a86e5cc,65d6bb0e977760de756971f7,65d6be55972c1d2144b7f504,0.0375,0.0375,1,29,191,44,1,threeone,,,,,,,,,,,,,,,,,,,,,,,,,,,,,,,,,,,,,,,,,,,,,,,,,,,,,,,,,,,,,,,,,,,,,,,,,,,,,,,,,,,,,,,,,,,,,,,,,,,,,,,,,,,,,,,,,,,,,,,,,,,,,,,,,,,,,,,,,
,,648251f5f13f3cab9a86e5cc,2024-02-22_16h24.29.974,kallum_motion_pilot,2023.2.2,Win32,59.88023952,648251f5f13f3cab9a86e5cc,65d6bb0e977760de756971f7,65d6be55972c1d2144b7f504,0.0377,0.0377,1,30,192,3,1,twofour,,,,,,,,,,,,,,,,,,,,,,,,,,,,,,,,,,,,,,,,,,,,,,,,,,,,,,,,,,,,,,,,,,,,,,,,,,,,,,,,,,,,,,,,,,,,,,,,,,,,,,,,,,,,,,,,,,,,,,,,,,,,,,,,,,,,,,,,,
,,648251f5f13f3cab9a86e5cc,2024-02-22_16h24.29.974,kallum_motion_pilot,2023.2.2,Win32,59.88023952,648251f5f13f3cab9a86e5cc,65d6bb0e977760de756971f7,65d6be55972c1d2144b7f504,0.0377,0.0377,1,31,193,129,1,fiveseven,,,,,,,,,,,,,,,,,,,,,,,,,,,,,,,,,,,,,,,,,,,,,,,,,,,,,,,,,,,,,,,,,,,,,,,,,,,,,,,,,,,,,,,,,,,,,,,,,,,,,,,,,,,,,,,,,,,,,,,,,,,,,,,,,,,,,,,,,
,,648251f5f13f3cab9a86e5cc,2024-02-22_16h24.29.974,kallum_motion_pilot,2023.2.2,Win32,59.88023952,648251f5f13f3cab9a86e5cc,65d6bb0e977760de756971f7,65d6be55972c1d2144b7f504,0.0378,0.0379,1,32,194,19,1,twofour,,,,,,,,,,,,,,,,,,,,,,,,,,,,,,,,,,,,,,,,,,,,,,,,,,,,,,,,,,,,,,,,,,,,,,,,,,,,,,,,,,,,,,,,,,,,,,,,,,,,,,,,,,,,,,,,,,,,,,,,,,,,,,,,,,,,,,,,,
,,648251f5f13f3cab9a86e5cc,2024-02-22_16h24.29.974,kallum_motion_pilot,2023.2.2,Win32,59.88023952,648251f5f13f3cab9a86e5cc,65d6bb0e977760de756971f7,65d6be55972c1d2144b7f504,0.0379,0.038,1,33,195,98,1,sixfive,,,,,,,,,,,,,,,,,,,,,,,,,,,,,,,,,,,,,,,,,,,,,,,,,,,,,,,,,,,,,,,,,,,,,,,,,,,,,,,,,,,,,,,,,,,,,,,,,,,,,,,,,,,,,,,,,,,,,,,,,,,,,,,,,,,,,,,,,
,,648251f5f13f3cab9a86e5cc,2024-02-22_16h24.29.974,kallum_motion_pilot,2023.2.2,Win32,59.88023952,648251f5f13f3cab9a86e5cc,65d6bb0e977760de756971f7,65d6be55972c1d2144b7f504,0.038,0.0381,1,34,196,90,1,sixfive,,,,,,,,,,,,,,,,,,,,,,,,,,,,,,,,,,,,,,,,,,,,,,,,,,,,,,,,,,,,,,,,,,,,,,,,,,,,,,,,,,,,,,,,,,,,,,,,,,,,,,,,,,,,,,,,,,,,,,,,,,,,,,,,,,,,,,,,,
,,648251f5f13f3cab9a86e5cc,2024-02-22_16h24.29.974,kallum_motion_pilot,2023.2.2,Win32,59.88023952,648251f5f13f3cab9a86e5cc,65d6bb0e977760de756971f7,65d6be55972c1d2144b7f504,0.0382,0.0382,1,35,197,93,1,seveneight,,,,,,,,,,,,,,,,,,,,,,,,,,,,,,,,,,,,,,,,,,,,,,,,,,,,,,,,,,,,,,,,,,,,,,,,,,,,,,,,,,,,,,,,,,,,,,,,,,,,,,,,,,,,,,,,,,,,,,,,,,,,,,,,,,,,,,,,,
,,648251f5f13f3cab9a86e5cc,2024-02-22_16h24.29.974,kallum_motion_pilot,2023.2.2,Win32,59.88023952,648251f5f13f3cab9a86e5cc,65d6bb0e977760de756971f7,65d6be55972c1d2144b7f504,0.0383,0.0383,1,36,198,87,1,eightseven,,,,,,,,,,,,,,,,,,,,,,,,,,,,,,,,,,,,,,,,,,,,,,,,,,,,,,,,,,,,,,,,,,,,,,,,,,,,,,,,,,,,,,,,,,,,,,,,,,,,,,,,,,,,,,,,,,,,,,,,,,,,,,,,,,,,,,,,,
,,648251f5f13f3cab9a86e5cc,2024-02-22_16h24.29.974,kallum_motion_pilot,2023.2.2,Win32,59.88023952,648251f5f13f3cab9a86e5cc,65d6bb0e977760de756971f7,65d6be55972c1d2144b7f504,0.0389,0.039,1,37,199,84,1,sevenfive,,,,,,,,,,,,,,,,,,,,,,,,,,,,,,,,,,,,,,,,,,,,,,,,,,,,,,,,,,,,,,,,,,,,,,,,,,,,,,,,,,,,,,,,,,,,,,,,,,,,,,,,,,,,,,,,,,,,,,,,,,,,,,,,,,,,,,,,,
,,648251f5f13f3cab9a86e5cc,2024-02-22_16h24.29.974,kallum_motion_pilot,2023.2.2,Win32,59.88023952,648251f5f13f3cab9a86e5cc,65d6bb0e977760de756971f7,65d6be55972c1d2144b7f504,0.0391,0.0391,1,38,200,59,1,twofour,,,,,,,,,,,,,,,,,,,,,,,,,,,,,,,,,,,,,,,,,,,,,,,,,,,,,,,,,,,,,,,,,,,,,,,,,,,,,,,,,,,,,,,,,,,,,,,,,,,,,,,,,,,,,,,,,,,,,,,,,,,,,,,,,,,,,,,,,
,,648251f5f13f3cab9a86e5cc,2024-02-22_16h24.29.974,kallum_motion_pilot,2023.2.2,Win32,59.88023952,648251f5f13f3cab9a86e5cc,65d6bb0e977760de756971f7,65d6be55972c1d2144b7f504,0.0391,0.0392,1,39,201,108,1,sevenfive,,,,,,,,,,,,,,,,,,,,,,,,,,,,,,,,,,,,,,,,,,,,,,,,,,,,,,,,,,,,,,,,,,,,,,,,,,,,,,,,,,,,,,,,,,,,,,,,,,,,,,,,,,,,,,,,,,,,,,,,,,,,,,,,,,,,,,,,,
,,648251f5f13f3cab9a86e5cc,2024-02-22_16h24.29.974,kallum_motion_pilot,2023.2.2,Win32,59.88023952,648251f5f13f3cab9a86e5cc,65d6bb0e977760de756971f7,65d6be55972c1d2144b7f504,0.0392,0.0394,1,40,202,56,1,onetwo,,,,,,,,,,,,,,,,,,,,,,,,,,,,,,,,,,,,,,,,,,,,,,,,,,,,,,,,,,,,,,,,,,,,,,,,,,,,,,,,,,,,,,,,,,,,,,,,,,,,,,,,,,,,,,,,,,,,,,,,,,,,,,,,,,,,,,,,,
,,648251f5f13f3cab9a86e5cc,2024-02-22_16h24.29.974,kallum_motion_pilot,2023.2.2,Win32,59.88023952,648251f5f13f3cab9a86e5cc,65d6bb0e977760de756971f7,65d6be55972c1d2144b7f504,0.0394,0.0395,1,41,203,8,1,onetwo,,,,,,,,,,,,,,,,,,,,,,,,,,,,,,,,,,,,,,,,,,,,,,,,,,,,,,,,,,,,,,,,,,,,,,,,,,,,,,,,,,,,,,,,,,,,,,,,,,,,,,,,,,,,,,,,,,,,,,,,,,,,,,,,,,,,,,,,,
,,648251f5f13f3cab9a86e5cc,2024-02-22_16h24.29.974,kallum_motion_pilot,2023.2.2,Win32,59.88023952,648251f5f13f3cab9a86e5cc,65d6bb0e977760de756971f7,65d6be55972c1d2144b7f504,0.0395,0.0396,1,42,204,92,1,sevenfive,,,,,,,,,,,,,,,,,,,,,,,,,,,,,,,,,,,,,,,,,,,,,,,,,,,,,,,,,,,,,,,,,,,,,,,,,,,,,,,,,,,,,,,,,,,,,,,,,,,,,,,,,,,,,,,,,,,,,,,,,,,,,,,,,,,,,,,,,
,,648251f5f13f3cab9a86e5cc,2024-02-22_16h24.29.974,kallum_motion_pilot,2023.2.2,Win32,59.88023952,648251f5f13f3cab9a86e5cc,65d6bb0e977760de756971f7,65d6be55972c1d2144b7f504,0.0397,0.0397,1,43,205,65,1,onethree,,,,,,,,,,,,,,,,,,,,,,,,,,,,,,,,,,,,,,,,,,,,,,,,,,,,,,,,,,,,,,,,,,,,,,,,,,,,,,,,,,,,,,,,,,,,,,,,,,,,,,,,,,,,,,,,,,,,,,,,,,,,,,,,,,,,,,,,,
,,648251f5f13f3cab9a86e5cc,2024-02-22_16h24.29.974,kallum_motion_pilot,2023.2.2,Win32,59.88023952,648251f5f13f3cab9a86e5cc,65d6bb0e977760de756971f7,65d6be55972c1d2144b7f504,0.0398,0.0398,1,44,206,136,1,fivesix,,,,,,,,,,,,,,,,,,,,,,,,,,,,,,,,,,,,,,,,,,,,,,,,,,,,,,,,,,,,,,,,,,,,,,,,,,,,,,,,,,,,,,,,,,,,,,,,,,,,,,,,,,,,,,,,,,,,,,,,,,,,,,,,,,,,,,,,,
,,648251f5f13f3cab9a86e5cc,2024-02-22_16h24.29.974,kallum_motion_pilot,2023.2.2,Win32,59.88023952,648251f5f13f3cab9a86e5cc,65d6bb0e977760de756971f7,65d6be55972c1d2144b7f504,0.0399,0.0399,1,45,207,40,1,onetwo,,,,,,,,,,,,,,,,,,,,,,,,,,,,,,,,,,,,,,,,,,,,,,,,,,,,,,,,,,,,,,,,,,,,,,,,,,,,,,,,,,,,,,,,,,,,,,,,,,,,,,,,,,,,,,,,,,,,,,,,,,,,,,,,,,,,,,,,,
,,648251f5f13f3cab9a86e5cc,2024-02-22_16h24.29.974,kallum_motion_pilot,2023.2.2,Win32,59.88023952,648251f5f13f3cab9a86e5cc,65d6bb0e977760de756971f7,65d6be55972c1d2144b7f504,0.0399,0.04,1,46,208,35,1,twofour,,,,,,,,,,,,,,,,,,,,,,,,,,,,,,,,,,,,,,,,,,,,,,,,,,,,,,,,,,,,,,,,,,,,,,,,,,,,,,,,,,,,,,,,,,,,,,,,,,,,,,,,,,,,,,,,,,,,,,,,,,,,,,,,,,,,,,,,,
,,648251f5f13f3cab9a86e5cc,2024-02-22_16h24.29.974,kallum_motion_pilot,2023.2.2,Win32,59.88023952,648251f5f13f3cab9a86e5cc,65d6bb0e977760de756971f7,65d6be55972c1d2144b7f504,0.0401,0.0402,1,47,209,111,1,eightseven,,,,,,,,,,,,,,,,,,,,,,,,,,,,,,,,,,,,,,,,,,,,,,,,,,,,,,,,,,,,,,,,,,,,,,,,,,,,,,,,,,,,,,,,,,,,,,,,,,,,,,,,,,,,,,,,,,,,,,,,,,,,,,,,,,,,,,,,,
,,648251f5f13f3cab9a86e5cc,2024-02-22_16h24.29.974,kallum_motion_pilot,2023.2.2,Win32,59.88023952,648251f5f13f3cab9a86e5cc,65d6bb0e977760de756971f7,65d6be55972c1d2144b7f504,0.0402,0.0402,1,48,210,128,1,fivesix,,,,,,,,,,,,,,,,,,,,,,,,,,,,,,,,,,,,,,,,,,,,,,,,,,,,,,,,,,,,,,,,,,,,,,,,,,,,,,,,,,,,,,,,,,,,,,,,,,,,,,,,,,,,,,,,,,,,,,,,,,,,,,,,,,,,,,,,,
,,648251f5f13f3cab9a86e5cc,2024-02-22_16h24.29.974,kallum_motion_pilot,2023.2.2,Win32,59.88023952,648251f5f13f3cab9a86e5cc,65d6bb0e977760de756971f7,65d6be55972c1d2144b7f504,0.0403,0.0403,1,49,211,91,1,sixeight,,,,,,,,,,,,,,,,,,,,,,,,,,,,,,,,,,,,,,,,,,,,,,,,,,,,,,,,,,,,,,,,,,,,,,,,,,,,,,,,,,,,,,,,,,,,,,,,,,,,,,,,,,,,,,,,,,,,,,,,,,,,,,,,,,,,,,,,,
,,648251f5f13f3cab9a86e5cc,2024-02-22_16h24.29.974,kallum_motion_pilot,2023.2.2,Win32,59.88023952,648251f5f13f3cab9a86e5cc,65d6bb0e977760de756971f7,65d6be55972c1d2144b7f504,0.0404,0.0405,1,50,212,15,1,fourthree,,,,,,,,,,,,,,,,,,,,,,,,,,,,,,,,,,,,,,,,,,,,,,,,,,,,,,,,,,,,,,,,,,,,,,,,,,,,,,,,,,,,,,,,,,,,,,,,,,,,,,,,,,,,,,,,,,,,,,,,,,,,,,,,,,,,,,,,,
,,648251f5f13f3cab9a86e5cc,2024-02-22_16h24.29.974,kallum_motion_pilot,2023.2.2,Win32,59.88023952,648251f5f13f3cab9a86e5cc,65d6bb0e977760de756971f7,65d6be55972c1d2144b7f504,0.0406,0.0406,1,51,213,78,1,fourtwo,,,,,,,,,,,,,,,,,,,,,,,,,,,,,,,,,,,,,,,,,,,,,,,,,,,,,,,,,,,,,,,,,,,,,,,,,,,,,,,,,,,,,,,,,,,,,,,,,,,,,,,,,,,,,,,,,,,,,,,,,,,,,,,,,,,,,,,,,
,,648251f5f13f3cab9a86e5cc,2024-02-22_16h24.29.974,kallum_motion_pilot,2023.2.2,Win32,59.88023952,648251f5f13f3cab9a86e5cc,65d6bb0e977760de756971f7,65d6be55972c1d2144b7f504,0.0406,0.0406,1,52,214,55,1,fourthree,,,,,,,,,,,,,,,,,,,,,,,,,,,,,,,,,,,,,,,,,,,,,,,,,,,,,,,,,,,,,,,,,,,,,,,,,,,,,,,,,,,,,,,,,,,,,,,,,,,,,,,,,,,,,,,,,,,,,,,,,,,,,,,,,,,,,,,,,
,,648251f5f13f3cab9a86e5cc,2024-02-22_16h24.29.974,kallum_motion_pilot,2023.2.2,Win32,59.88023952,648251f5f13f3cab9a86e5cc,65d6bb0e977760de756971f7,65d6be55972c1d2144b7f504,0.0407,0.0408,1,53,215,159,1,eightseven,,,,,,,,,,,,,,,,,,,,,,,,,,,,,,,,,,,,,,,,,,,,,,,,,,,,,,,,,,,,,,,,,,,,,,,,,,,,,,,,,,,,,,,,,,,,,,,,,,,,,,,,,,,,,,,,,,,,,,,,,,,,,,,,,,,,,,,,,
,,648251f5f13f3cab9a86e5cc,2024-02-22_16h24.29.974,kallum_motion_pilot,2023.2.2,Win32,59.88023952,648251f5f13f3cab9a86e5cc,65d6bb0e977760de756971f7,65d6be55972c1d2144b7f504,0.0408,0.0409,1,54,216,107,1,sixeight,,,,,,,,,,,,,,,,,,,,,,,,,,,,,,,,,,,,,,,,,,,,,,,,,,,,,,,,,,,,,,,,,,,,,,,,,,,,,,,,,,,,,,,,,,,,,,,,,,,,,,,,,,,,,,,,,,,,,,,,,,,,,,,,,,,,,,,,,
,,648251f5f13f3cab9a86e5cc,2024-02-22_16h24.29.974,kallum_motion_pilot,2023.2.2,Win32,59.88023952,648251f5f13f3cab9a86e5cc,65d6bb0e977760de756971f7,65d6be55972c1d2144b7f504,0.0409,0.041,1,55,217,105,1,fiveseven,,,,,,,,,,,,,,,,,,,,,,,,,,,,,,,,,,,,,,,,,,,,,,,,,,,,,,,,,,,,,,,,,,,,,,,,,,,,,,,,,,,,,,,,,,,,,,,,,,,,,,,,,,,,,,,,,,,,,,,,,,,,,,,,,,,,,,,,,
,,648251f5f13f3cab9a86e5cc,2024-02-22_16h24.29.974,kallum_motion_pilot,2023.2.2,Win32,59.88023952,648251f5f13f3cab9a86e5cc,65d6bb0e977760de756971f7,65d6be55972c1d2144b7f504,0.0411,0.0411,1,56,218,62,1,fourtwo,,,,,,,,,,,,,,,,,,,,,,,,,,,,,,,,,,,,,,,,,,,,,,,,,,,,,,,,,,,,,,,,,,,,,,,,,,,,,,,,,,,,,,,,,,,,,,,,,,,,,,,,,,,,,,,,,,,,,,,,,,,,,,,,,,,,,,,,,
,,648251f5f13f3cab9a86e5cc,2024-02-22_16h24.29.974,kallum_motion_pilot,2023.2.2,Win32,59.88023952,648251f5f13f3cab9a86e5cc,65d6bb0e977760de756971f7,65d6be55972c1d2144b7f504,0.0412,0.0413,1,57,219,118,1,eightsix,,,,,,,,,,,,,,,,,,,,,,,,,,,,,,,,,,,,,,,,,,,,,,,,,,,,,,,,,,,,,,,,,,,,,,,,,,,,,,,,,,,,,,,,,,,,,,,,,,,,,,,,,,,,,,,,,,,,,,,,,,,,,,,,,,,,,,,,,
,,648251f5f13f3cab9a86e5cc,2024-02-22_16h24.29.974,kallum_motion_pilot,2023.2.2,Win32,59.88023952,648251f5f13f3cab9a86e5cc,65d6bb0e977760de756971f7,65d6be55972c1d2144b7f504,0.0413,0.0414,1,58,220,9,1,onethree,,,,,,,,,,,,,,,,,,,,,,,,,,,,,,,,,,,,,,,,,,,,,,,,,,,,,,,,,,,,,,,,,,,,,,,,,,,,,,,,,,,,,,,,,,,,,,,,,,,,,,,,,,,,,,,,,,,,,,,,,,,,,,,,,,,,,,,,,
,,648251f5f13f3cab9a86e5cc,2024-02-22_16h24.29.974,kallum_motion_pilot,2023.2.2,Win32,59.88023952,648251f5f13f3cab9a86e5cc,65d6bb0e977760de756971f7,65d6be55972c1d2144b7f504,0.0415,0.0415,1,59,221,23,1,fourthree,,,,,,,,,,,,,,,,,,,,,,,,,,,,,,,,,,,,,,,,,,,,,,,,,,,,,,,,,,,,,,,,,,,,,,,,,,,,,,,,,,,,,,,,,,,,,,,,,,,,,,,,,,,,,,,,,,,,,,,,,,,,,,,,,,,,,,,,,
,,648251f5f13f3cab9a86e5cc,2024-02-22_16h24.29.974,kallum_motion_pilot,2023.2.2,Win32,59.88023952,648251f5f13f3cab9a86e5cc,65d6bb0e977760de756971f7,65d6be55972c1d2144b7f504,0.0416,0.0416,1,60,222,0,1,onetwo,,,,,,,,,,,,,,,,,,,,,,,,,,,,,,,,,,,,,,,,,,,,,,,,,,,,,,,,,,,,,,,,,,,,,,,,,,,,,,,,,,,,,,,,,,,,,,,,,,,,,,,,,,,,,,,,,,,,,,,,,,,,,,,,,,,,,,,,,
,,648251f5f13f3cab9a86e5cc,2024-02-22_16h24.29.974,kallum_motion_pilot,2023.2.2,Win32,59.88023952,648251f5f13f3cab9a86e5cc,65d6bb0e977760de756971f7,65d6be55972c1d2144b7f504,0.0416,0.0417,1,61,223,71,1,fourthree,,,,,,,,,,,,,,,,,,,,,,,,,,,,,,,,,,,,,,,,,,,,,,,,,,,,,,,,,,,,,,,,,,,,,,,,,,,,,,,,,,,,,,,,,,,,,,,,,,,,,,,,,,,,,,,,,,,,,,,,,,,,,,,,,,,,,,,,,
,,648251f5f13f3cab9a86e5cc,2024-02-22_16h24.29.974,kallum_motion_pilot,2023.2.2,Win32,59.88023952,648251f5f13f3cab9a86e5cc,65d6bb0e977760de756971f7,65d6be55972c1d2144b7f504,0.0418,0.0418,1,62,224,69,1,threefour,,,,,,,,,,,,,,,,,,,,,,,,,,,,,,,,,,,,,,,,,,,,,,,,,,,,,,,,,,,,,,,,,,,,,,,,,,,,,,,,,,,,,,,,,,,,,,,,,,,,,,,,,,,,,,,,,,,,,,,,,,,,,,,,,,,,,,,,,
,,648251f5f13f3cab9a86e5cc,2024-02-22_16h24.29.974,kallum_motion_pilot,2023.2.2,Win32,59.88023952,648251f5f13f3cab9a86e5cc,65d6bb0e977760de756971f7,65d6be55972c1d2144b7f504,0.0419,0.042,1,63,225,32,1,onetwo,,,,,,,,,,,,,,,,,,,,,,,,,,,,,,,,,,,,,,,,,,,,,,,,,,,,,,,,,,,,,,,,,,,,,,,,,,,,,,,,,,,,,,,,,,,,,,,,,,,,,,,,,,,,,,,,,,,,,,,,,,,,,,,,,,,,,,,,,
,,648251f5f13f3cab9a86e5cc,2024-02-22_16h24.29.974,kallum_motion_pilot,2023.2.2,Win32,59.88023952,648251f5f13f3cab9a86e5cc,65d6bb0e977760de756971f7,65d6be55972c1d2144b7f504,0.042,0.0421,1,64,226,158,1,eightsix,,,,,,,,,,,,,,,,,,,,,,,,,,,,,,,,,,,,,,,,,,,,,,,,,,,,,,,,,,,,,,,,,,,,,,,,,,,,,,,,,,,,,,,,,,,,,,,,,,,,,,,,,,,,,,,,,,,,,,,,,,,,,,,,,,,,,,,,,
,,648251f5f13f3cab9a86e5cc,2024-02-22_16h24.29.974,kallum_motion_pilot,2023.2.2,Win32,59.88023952,648251f5f13f3cab9a86e5cc,65d6bb0e977760de756971f7,65d6be55972c1d2144b7f504,0.0422,0.0423,1,65,227,72,1,onetwo,,,,,,,,,,,,,,,,,,,,,,,,,,,,,,,,,,,,,,,,,,,,,,,,,,,,,,,,,,,,,,,,,,,,,,,,,,,,,,,,,,,,,,,,,,,,,,,,,,,,,,,,,,,,,,,,,,,,,,,,,,,,,,,,,,,,,,,,,
,,648251f5f13f3cab9a86e5cc,2024-02-22_16h24.29.974,kallum_motion_pilot,2023.2.2,Win32,59.88023952,648251f5f13f3cab9a86e5cc,65d6bb0e977760de756971f7,65d6be55972c1d2144b7f504,0.0424,0.0424,1,66,228,50,1,twoone,,,,,,,,,,,,,,,,,,,,,,,,,,,,,,,,,,,,,,,,,,,,,,,,,,,,,,,,,,,,,,,,,,,,,,,,,,,,,,,,,,,,,,,,,,,,,,,,,,,,,,,,,,,,,,,,,,,,,,,,,,,,,,,,,,,,,,,,,
,,648251f5f13f3cab9a86e5cc,2024-02-22_16h24.29.974,kallum_motion_pilot,2023.2.2,Win32,59.88023952,648251f5f13f3cab9a86e5cc,65d6bb0e977760de756971f7,65d6be55972c1d2144b7f504,0.0424,0.0425,1,67,229,81,1,fiveseven,,,,,,,,,,,,,,,,,,,,,,,,,,,,,,,,,,,,,,,,,,,,,,,,,,,,,,,,,,,,,,,,,,,,,,,,,,,,,,,,,,,,,,,,,,,,,,,,,,,,,,,,,,,,,,,,,,,,,,,,,,,,,,,,,,,,,,,,,
,,648251f5f13f3cab9a86e5cc,2024-02-22_16h24.29.974,kallum_motion_pilot,2023.2.2,Win32,59.88023952,648251f5f13f3cab9a86e5cc,65d6bb0e977760de756971f7,65d6be55972c1d2144b7f504,0.0426,0.0426,1,68,230,60,1,threeone,,,,,,,,,,,,,,,,,,,,,,,,,,,,,,,,,,,,,,,,,,,,,,,,,,,,,,,,,,,,,,,,,,,,,,,,,,,,,,,,,,,,,,,,,,,,,,,,,,,,,,,,,,,,,,,,,,,,,,,,,,,,,,,,,,,,,,,,,
,,648251f5f13f3cab9a86e5cc,2024-02-22_16h24.29.974,kallum_motion_pilot,2023.2.2,Win32,59.88023952,648251f5f13f3cab9a86e5cc,65d6bb0e977760de756971f7,65d6be55972c1d2144b7f504,0.0426,0.0427,1,69,231,149,1,seveneight,,,,,,,,,,,,,,,,,,,,,,,,,,,,,,,,,,,,,,,,,,,,,,,,,,,,,,,,,,,,,,,,,,,,,,,,,,,,,,,,,,,,,,,,,,,,,,,,,,,,,,,,,,,,,,,,,,,,,,,,,,,,,,,,,,,,,,,,,
,,648251f5f13f3cab9a86e5cc,2024-02-22_16h24.29.974,kallum_motion_pilot,2023.2.2,Win32,59.88023952,648251f5f13f3cab9a86e5cc,65d6bb0e977760de756971f7,65d6be55972c1d2144b7f504,0.0428,0.0428,1,70,232,53,1,threefour,,,,,,,,,,,,,,,,,,,,,,,,,,,,,,,,,,,,,,,,,,,,,,,,,,,,,,,,,,,,,,,,,,,,,,,,,,,,,,,,,,,,,,,,,,,,,,,,,,,,,,,,,,,,,,,,,,,,,,,,,,,,,,,,,,,,,,,,,
,,648251f5f13f3cab9a86e5cc,2024-02-22_16h24.29.974,kallum_motion_pilot,2023.2.2,Win32,59.88023952,648251f5f13f3cab9a86e5cc,65d6bb0e977760de756971f7,65d6be55972c1d2144b7f504,0.0429,0.043,1,71,233,7,1,fourthree,,,,,,,,,,,,,,,,,,,,,,,,,,,,,,,,,,,,,,,,,,,,,,,,,,,,,,,,,,,,,,,,,,,,,,,,,,,,,,,,,,,,,,,,,,,,,,,,,,,,,,,,,,,,,,,,,,,,,,,,,,,,,,,,,,,,,,,,,
,,648251f5f13f3cab9a86e5cc,2024-02-22_16h24.29.974,kallum_motion_pilot,2023.2.2,Win32,59.88023952,648251f5f13f3cab9a86e5cc,65d6bb0e977760de756971f7,65d6be55972c1d2144b7f504,0.0431,0.0431,1,72,234,80,1,fivesix,,,,,,,,,,,,,,,,,,,,,,,,,,,,,,,,,,,,,,,,,,,,,,,,,,,,,,,,,,,,,,,,,,,,,,,,,,,,,,,,,,,,,,,,,,,,,,,,,,,,,,,,,,,,,,,,,,,,,,,,,,,,,,,,,,,,,,,,,
,,648251f5f13f3cab9a86e5cc,2024-02-22_16h24.29.974,kallum_motion_pilot,2023.2.2,Win32,59.88023952,648251f5f13f3cab9a86e5cc,65d6bb0e977760de756971f7,65d6be55972c1d2144b7f504,0.0432,0.0432,1,73,235,138,1,sixfive,,,,,,,,,,,,,,,,,,,,,,,,,,,,,,,,,,,,,,,,,,,,,,,,,,,,,,,,,,,,,,,,,,,,,,,,,,,,,,,,,,,,,,,,,,,,,,,,,,,,,,,,,,,,,,,,,,,,,,,,,,,,,,,,,,,,,,,,,
,,648251f5f13f3cab9a86e5cc,2024-02-22_16h24.29.974,kallum_motion_pilot,2023.2.2,Win32,59.88023952,648251f5f13f3cab9a86e5cc,65d6bb0e977760de756971f7,65d6be55972c1d2144b7f504,0.0432,0.0434,1,74,236,67,1,twofour,,,,,,,,,,,,,,,,,,,,,,,,,,,,,,,,,,,,,,,,,,,,,,,,,,,,,,,,,,,,,,,,,,,,,,,,,,,,,,,,,,,,,,,,,,,,,,,,,,,,,,,,,,,,,,,,,,,,,,,,,,,,,,,,,,,,,,,,,
,,648251f5f13f3cab9a86e5cc,2024-02-22_16h24.29.974,kallum_motion_pilot,2023.2.2,Win32,59.88023952,648251f5f13f3cab9a86e5cc,65d6bb0e977760de756971f7,65d6be55972c1d2144b7f504,0.0434,0.0435,1,75,237,100,1,sevenfive,,,,,,,,,,,,,,,,,,,,,,,,,,,,,,,,,,,,,,,,,,,,,,,,,,,,,,,,,,,,,,,,,,,,,,,,,,,,,,,,,,,,,,,,,,,,,,,,,,,,,,,,,,,,,,,,,,,,,,,,,,,,,,,,,,,,,,,,,
,,648251f5f13f3cab9a86e5cc,2024-02-22_16h24.29.974,kallum_motion_pilot,2023.2.2,Win32,59.88023952,648251f5f13f3cab9a86e5cc,65d6bb0e977760de756971f7,65d6be55972c1d2144b7f504,0.0435,0.0436,1,76,238,144,1,fivesix,,,,,,,,,,,,,,,,,,,,,,,,,,,,,,,,,,,,,,,,,,,,,,,,,,,,,,,,,,,,,,,,,,,,,,,,,,,,,,,,,,,,,,,,,,,,,,,,,,,,,,,,,,,,,,,,,,,,,,,,,,,,,,,,,,,,,,,,,
,,648251f5f13f3cab9a86e5cc,2024-02-22_16h24.29.974,kallum_motion_pilot,2023.2.2,Win32,59.88023952,648251f5f13f3cab9a86e5cc,65d6bb0e977760de756971f7,65d6be55972c1d2144b7f504,0.0436,0.0437,1,77,239,14,1,fourtwo,,,,,,,,,,,,,,,,,,,,,,,,,,,,,,,,,,,,,,,,,,,,,,,,,,,,,,,,,,,,,,,,,,,,,,,,,,,,,,,,,,,,,,,,,,,,,,,,,,,,,,,,,,,,,,,,,,,,,,,,,,,,,,,,,,,,,,,,,
,,648251f5f13f3cab9a86e5cc,2024-02-22_16h24.29.974,kallum_motion_pilot,2023.2.2,Win32,59.88023952,648251f5f13f3cab9a86e5cc,65d6bb0e977760de756971f7,65d6be55972c1d2144b7f504,0.0437,0.0437,1,78,240,52,1,threeone,,,,,,,,,,,,,,,,,,,,,,,,,,,,,,,,,,,,,,,,,,,,,,,,,,,,,,,,,,,,,,,,,,,,,,,,,,,,,,,,,,,,,,,,,,,,,,,,,,,,,,,,,,,,,,,,,,,,,,,,,,,,,,,,,,,,,,,,,
,,648251f5f13f3cab9a86e5cc,2024-02-22_16h24.29.974,kallum_motion_pilot,2023.2.2,Win32,59.88023952,648251f5f13f3cab9a86e5cc,65d6bb0e977760de756971f7,65d6be55972c1d2144b7f504,0.0438,0.0439,1,79,241,132,1,sevenfive,,,,,,,,,,,,,,,,,,,,,,,,,,,,,,,,,,,,,,,,,,,,,,,,,,,,,,,,,,,,,,,,,,,,,,,,,,,,,,,,,,,,,,,,,,,,,,,,,,,,,,,,,,,,,,,,,,,,,,,,,,,,,,,,,,,,,,,,,
,,648251f5f13f3cab9a86e5cc,2024-02-22_16h24.29.974,kallum_motion_pilot,2023.2.2,Win32,59.88023952,648251f5f13f3cab9a86e5cc,65d6bb0e977760de756971f7,65d6be55972c1d2144b7f504,0.044,0.044,1,80,242,75,1,twofour,,,,,,,,,,,,,,,,,,,,,,,,,,,,,,,,,,,,,,,,,,,,,,,,,,,,,,,,,,,,,,,,,,,,,,,,,,,,,,,,,,,,,,,,,,,,,,,,,,,,,,,,,,,,,,,,,,,,,,,,,,,,,,,,,,,,,,,,,
,,648251f5f13f3cab9a86e5cc,2024-02-22_16h24.29.974,kallum_motion_pilot,2023.2.2,Win32,59.88023952,648251f5f13f3cab9a86e5cc,65d6bb0e977760de756971f7,65d6be55972c1d2144b7f504,0.0441,0.0442,1,81,243,157,1,seveneight,,,,,,,,,,,,,,,,,,,,,,,,,,,,,,,,,,,,,,,,,,,,,,,,,,,,,,,,,,,,,,,,,,,,,,,,,,,,,,,,,,,,,,,,,,,,,,,,,,,,,,,,,,,,,,,,,,,,,,,,,,,,,,,,,,,,,,,,,
,,648251f5f13f3cab9a86e5cc,2024-02-22_16h24.29.974,kallum_motion_pilot,2023.2.2,Win32,59.88023952,648251f5f13f3cab9a86e5cc,65d6bb0e977760de756971f7,65d6be55972c1d2144b7f504,0.0442,0.0444,1,82,244,146,1,sixfive,,,,,,,,,,,,,,,,,,,,,,,,,,,,,,,,,,,,,,,,,,,,,,,,,,,,,,,,,,,,,,,,,,,,,,,,,,,,,,,,,,,,,,,,,,,,,,,,,,,,,,,,,,,,,,,,,,,,,,,,,,,,,,,,,,,,,,,,,
,,648251f5f13f3cab9a86e5cc,2024-02-22_16h24.29.974,kallum_motion_pilot,2023.2.2,Win32,59.88023952,648251f5f13f3cab9a86e5cc,65d6bb0e977760de756971f7,65d6be55972c1d2144b7f504,0.0444,0.0445,1,83,245,131,1,sixeight,,,,,,,,,,,,,,,,,,,,,,,,,,,,,,,,,,,,,,,,,,,,,,,,,,,,,,,,,,,,,,,,,,,,,,,,,,,,,,,,,,,,,,,,,,,,,,,,,,,,,,,,,,,,,,,,,,,,,,,,,,,,,,,,,,,,,,,,,
,,648251f5f13f3cab9a86e5cc,2024-02-22_16h24.29.974,kallum_motion_pilot,2023.2.2,Win32,59.88023952,648251f5f13f3cab9a86e5cc,65d6bb0e977760de756971f7,65d6be55972c1d2144b7f504,0.0446,0.0446,1,84,246,135,1,eightseven,,,,,,,,,,,,,,,,,,,,,,,,,,,,,,,,,,,,,,,,,,,,,,,,,,,,,,,,,,,,,,,,,,,,,,,,,,,,,,,,,,,,,,,,,,,,,,,,,,,,,,,,,,,,,,,,,,,,,,,,,,,,,,,,,,,,,,,,,
,,648251f5f13f3cab9a86e5cc,2024-02-22_16h24.29.974,kallum_motion_pilot,2023.2.2,Win32,59.88023952,648251f5f13f3cab9a86e5cc,65d6bb0e977760de756971f7,65d6be55972c1d2144b7f504,0.0447,0.0448,1,85,247,6,1,fourtwo,,,,,,,,,,,,,,,,,,,,,,,,,,,,,,,,,,,,,,,,,,,,,,,,,,,,,,,,,,,,,,,,,,,,,,,,,,,,,,,,,,,,,,,,,,,,,,,,,,,,,,,,,,,,,,,,,,,,,,,,,,,,,,,,,,,,,,,,,
,,648251f5f13f3cab9a86e5cc,2024-02-22_16h24.29.974,kallum_motion_pilot,2023.2.2,Win32,59.88023952,648251f5f13f3cab9a86e5cc,65d6bb0e977760de756971f7,65d6be55972c1d2144b7f504,0.0448,0.0449,1,86,248,130,1,sixfive,,,,,,,,,,,,,,,,,,,,,,,,,,,,,,,,,,,,,,,,,,,,,,,,,,,,,,,,,,,,,,,,,,,,,,,,,,,,,,,,,,,,,,,,,,,,,,,,,,,,,,,,,,,,,,,,,,,,,,,,,,,,,,,,,,,,,,,,,
,,648251f5f13f3cab9a86e5cc,2024-02-22_16h24.29.974,kallum_motion_pilot,2023.2.2,Win32,59.88023952,648251f5f13f3cab9a86e5cc,65d6bb0e977760de756971f7,65d6be55972c1d2144b7f504,0.0449,0.045,1,87,249,25,1,onethree,,,,,,,,,,,,,,,,,,,,,,,,,,,,,,,,,,,,,,,,,,,,,,,,,,,,,,,,,,,,,,,,,,,,,,,,,,,,,,,,,,,,,,,,,,,,,,,,,,,,,,,,,,,,,,,,,,,,,,,,,,,,,,,,,,,,,,,,,
,,648251f5f13f3cab9a86e5cc,2024-02-22_16h24.29.974,kallum_motion_pilot,2023.2.2,Win32,59.88023952,648251f5f13f3cab9a86e5cc,65d6bb0e977760de756971f7,65d6be55972c1d2144b7f504,0.0451,0.0452,1,88,250,45,1,threefour,,,,,,,,,,,,,,,,,,,,,,,,,,,,,,,,,,,,,,,,,,,,,,,,,,,,,,,,,,,,,,,,,,,,,,,,,,,,,,,,,,,,,,,,,,,,,,,,,,,,,,,,,,,,,,,,,,,,,,,,,,,,,,,,,,,,,,,,,
,,648251f5f13f3cab9a86e5cc,2024-02-22_16h24.29.974,kallum_motion_pilot,2023.2.2,Win32,59.88023952,648251f5f13f3cab9a86e5cc,65d6bb0e977760de756971f7,65d6be55972c1d2144b7f504,0.0453,0.0454,1,89,251,152,1,fivesix,,,,,,,,,,,,,,,,,,,,,,,,,,,,,,,,,,,,,,,,,,,,,,,,,,,,,,,,,,,,,,,,,,,,,,,,,,,,,,,,,,,,,,,,,,,,,,,,,,,,,,,,,,,,,,,,,,,,,,,,,,,,,,,,,,,,,,,,,
,,648251f5f13f3cab9a86e5cc,2024-02-22_16h24.29.974,kallum_motion_pilot,2023.2.2,Win32,59.88023952,648251f5f13f3cab9a86e5cc,65d6bb0e977760de756971f7,65d6be55972c1d2144b7f504,0.0454,0.0455,1,90,252,115,1,sixeight,,,,,,,,,,,,,,,,,,,,,,,,,,,,,,,,,,,,,,,,,,,,,,,,,,,,,,,,,,,,,,,,,,,,,,,,,,,,,,,,,,,,,,,,,,,,,,,,,,,,,,,,,,,,,,,,,,,,,,,,,,,,,,,,,,,,,,,,,
,,648251f5f13f3cab9a86e5cc,2024-02-22_16h24.29.974,kallum_motion_pilot,2023.2.2,Win32,59.88023952,648251f5f13f3cab9a86e5cc,65d6bb0e977760de756971f7,65d6be55972c1d2144b7f504,0.0455,0.0456,1,91,253,97,1,fiveseven,,,,,,,,,,,,,,,,,,,,,,,,,,,,,,,,,,,,,,,,,,,,,,,,,,,,,,,,,,,,,,,,,,,,,,,,,,,,,,,,,,,,,,,,,,,,,,,,,,,,,,,,,,,,,,,,,,,,,,,,,,,,,,,,,,,,,,,,,
,,648251f5f13f3cab9a86e5cc,2024-02-22_16h24.29.974,kallum_motion_pilot,2023.2.2,Win32,59.88023952,648251f5f13f3cab9a86e5cc,65d6bb0e977760de756971f7,65d6be55972c1d2144b7f504,0.0457,0.0457,1,92,254,41,1,onethree,,,,,,,,,,,,,,,,,,,,,,,,,,,,,,,,,,,,,,,,,,,,,,,,,,,,,,,,,,,,,,,,,,,,,,,,,,,,,,,,,,,,,,,,,,,,,,,,,,,,,,,,,,,,,,,,,,,,,,,,,,,,,,,,,,,,,,,,,
,,648251f5f13f3cab9a86e5cc,2024-02-22_16h24.29.974,kallum_motion_pilot,2023.2.2,Win32,59.88023952,648251f5f13f3cab9a86e5cc,65d6bb0e977760de756971f7,65d6be55972c1d2144b7f504,0.0458,0.0459,1,93,255,147,1,sixeight,,,,,,,,,,,,,,,,,,,,,,,,,,,,,,,,,,,,,,,,,,,,,,,,,,,,,,,,,,,,,,,,,,,,,,,,,,,,,,,,,,,,,,,,,,,,,,,,,,,,,,,,,,,,,,,,,,,,,,,,,,,,,,,,,,,,,,,,,
,,648251f5f13f3cab9a86e5cc,2024-02-22_16h24.29.974,kallum_motion_pilot,2023.2.2,Win32,59.88023952,648251f5f13f3cab9a86e5cc,65d6bb0e977760de756971f7,65d6be55972c1d2144b7f504,0.0459,0.046,1,94,256,109,1,seveneight,,,,,,,,,,,,,,,,,,,,,,,,,,,,,,,,,,,,,,,,,,,,,,,,,,,,,,,,,,,,,,,,,,,,,,,,,,,,,,,,,,,,,,,,,,,,,,,,,,,,,,,,,,,,,,,,,,,,,,,,,,,,,,,,,,,,,,,,,
,,648251f5f13f3cab9a86e5cc,2024-02-22_16h24.29.974,kallum_motion_pilot,2023.2.2,Win32,59.88023952,648251f5f13f3cab9a86e5cc,65d6bb0e977760de756971f7,65d6be55972c1d2144b7f504,0.0461,0.0461,1,95,257,38,1,fourtwo,,,,,,,,,,,,,,,,,,,,,,,,,,,,,,,,,,,,,,,,,,,,,,,,,,,,,,,,,,,,,,,,,,,,,,,,,,,,,,,,,,,,,,,,,,,,,,,,,,,,,,,,,,,,,,,,,,,,,,,,,,,,,,,,,,,,,,,,,
,,648251f5f13f3cab9a86e5cc,2024-02-22_16h24.29.974,kallum_motion_pilot,2023.2.2,Win32,59.88023952,648251f5f13f3cab9a86e5cc,65d6bb0e977760de756971f7,65d6be55972c1d2144b7f504,0.0462,0.0463,1,96,258,113,1,fiveseven,,,,,,,,,,,,,,,,,,,,,,,,,,,,,,,,,,,,,,,,,,,,,,,,,,,,,,,,,,,,,,,,,,,,,,,,,,,,,,,,,,,,,,,,,,,,,,,,,,,,,,,,,,,,,,,,,,,,,,,,,,,,,,,,,,,,,,,,,
,,648251f5f13f3cab9a86e5cc,2024-02-22_16h24.29.974,kallum_motion_pilot,2023.2.2,Win32,59.88023952,648251f5f13f3cab9a86e5cc,65d6bb0e977760de756971f7,65d6be55972c1d2144b7f504,0.0464,0.0464,1,97,259,141,1,seveneight,,,,,,,,,,,,,,,,,,,,,,,,,,,,,,,,,,,,,,,,,,,,,,,,,,,,,,,,,,,,,,,,,,,,,,,,,,,,,,,,,,,,,,,,,,,,,,,,,,,,,,,,,,,,,,,,,,,,,,,,,,,,,,,,,,,,,,,,,
,,648251f5f13f3cab9a86e5cc,2024-02-22_16h24.29.974,kallum_motion_pilot,2023.2.2,Win32,59.88023952,648251f5f13f3cab9a86e5cc,65d6bb0e977760de756971f7,65d6be55972c1d2144b7f504,0.0465,0.0465,1,98,260,148,1,sevenfive,,,,,,,,,,,,,,,,,,,,,,,,,,,,,,,,,,,,,,,,,,,,,,,,,,,,,,,,,,,,,,,,,,,,,,,,,,,,,,,,,,,,,,,,,,,,,,,,,,,,,,,,,,,,,,,,,,,,,,,,,,,,,,,,,,,,,,,,,
,,648251f5f13f3cab9a86e5cc,2024-02-22_16h24.29.974,kallum_motion_pilot,2023.2.2,Win32,59.88023952,648251f5f13f3cab9a86e5cc,65d6bb0e977760de756971f7,65d6be55972c1d2144b7f504,0.0466,0.0467,1,99,261,20,1,threeone,,,,,,,,,,,,,,,,,,,,,,,,,,,,,,,,,,,,,,,,,,,,,,,,,,,,,,,,,,,,,,,,,,,,,,,,,,,,,,,,,,,,,,,,,,,,,,,,,,,,,,,,,,,,,,,,,,,,,,,,,,,,,,,,,,,,,,,,,
,,648251f5f13f3cab9a86e5cc,2024-02-22_16h24.29.974,kallum_motion_pilot,2023.2.2,Win32,59.88023952,648251f5f13f3cab9a86e5cc,65d6bb0e977760de756971f7,65d6be55972c1d2144b7f504,0.0467,0.0467,1,100,262,27,1,twofour,,,,,,,,,,,,,,,,,,,,,,,,,,,,,,,,,,,,,,,,,,,,,,,,,,,,,,,,,,,,,,,,,,,,,,,,,,,,,,,,,,,,,,,,,,,,,,,,,,,,,,,,,,,,,,,,,,,,,,,,,,,,,,,,,,,,,,,,,
,,648251f5f13f3cab9a86e5cc,2024-02-22_16h24.29.974,kallum_motion_pilot,2023.2.2,Win32,59.88023952,648251f5f13f3cab9a86e5cc,65d6bb0e977760de756971f7,65d6be55972c1d2144b7f504,0.0468,0.0469,1,101,263,116,1,sevenfive,,,,,,,,,,,,,,,,,,,,,,,,,,,,,,,,,,,,,,,,,,,,,,,,,,,,,,,,,,,,,,,,,,,,,,,,,,,,,,,,,,,,,,,,,,,,,,,,,,,,,,,,,,,,,,,,,,,,,,,,,,,,,,,,,,,,,,,,,
,,648251f5f13f3cab9a86e5cc,2024-02-22_16h24.29.974,kallum_motion_pilot,2023.2.2,Win32,59.88023952,648251f5f13f3cab9a86e5cc,65d6bb0e977760de756971f7,65d6be55972c1d2144b7f504,0.047,0.047,1,102,264,66,1,twoone,,,,,,,,,,,,,,,,,,,,,,,,,,,,,,,,,,,,,,,,,,,,,,,,,,,,,,,,,,,,,,,,,,,,,,,,,,,,,,,,,,,,,,,,,,,,,,,,,,,,,,,,,,,,,,,,,,,,,,,,,,,,,,,,,,,,,,,,,
,,648251f5f13f3cab9a86e5cc,2024-02-22_16h24.29.974,kallum_motion_pilot,2023.2.2,Win32,59.88023952,648251f5f13f3cab9a86e5cc,65d6bb0e977760de756971f7,65d6be55972c1d2144b7f504,0.0471,0.0472,1,103,265,119,1,eightseven,,,,,,,,,,,,,,,,,,,,,,,,,,,,,,,,,,,,,,,,,,,,,,,,,,,,,,,,,,,,,,,,,,,,,,,,,,,,,,,,,,,,,,,,,,,,,,,,,,,,,,,,,,,,,,,,,,,,,,,,,,,,,,,,,,,,,,,,,
,,648251f5f13f3cab9a86e5cc,2024-02-22_16h24.29.974,kallum_motion_pilot,2023.2.2,Win32,59.88023952,648251f5f13f3cab9a86e5cc,65d6bb0e977760de756971f7,65d6be55972c1d2144b7f504,0.0473,0.0473,1,104,266,89,1,fiveseven,,,,,,,,,,,,,,,,,,,,,,,,,,,,,,,,,,,,,,,,,,,,,,,,,,,,,,,,,,,,,,,,,,,,,,,,,,,,,,,,,,,,,,,,,,,,,,,,,,,,,,,,,,,,,,,,,,,,,,,,,,,,,,,,,,,,,,,,,
,,648251f5f13f3cab9a86e5cc,2024-02-22_16h24.29.974,kallum_motion_pilot,2023.2.2,Win32,59.88023952,648251f5f13f3cab9a86e5cc,65d6bb0e977760de756971f7,65d6be55972c1d2144b7f504,0.0474,0.0475,1,105,267,82,1,sixfive,,,,,,,,,,,,,,,,,,,,,,,,,,,,,,,,,,,,,,,,,,,,,,,,,,,,,,,,,,,,,,,,,,,,,,,,,,,,,,,,,,,,,,,,,,,,,,,,,,,,,,,,,,,,,,,,,,,,,,,,,,,,,,,,,,,,,,,,,
,,648251f5f13f3cab9a86e5cc,2024-02-22_16h24.29.974,kallum_motion_pilot,2023.2.2,Win32,59.88023952,648251f5f13f3cab9a86e5cc,65d6bb0e977760de756971f7,65d6be55972c1d2144b7f504,0.0475,0.0475,1,106,268,58,1,twoone,,,,,,,,,,,,,,,,,,,,,,,,,,,,,,,,,,,,,,,,,,,,,,,,,,,,,,,,,,,,,,,,,,,,,,,,,,,,,,,,,,,,,,,,,,,,,,,,,,,,,,,,,,,,,,,,,,,,,,,,,,,,,,,,,,,,,,,,,
,,648251f5f13f3cab9a86e5cc,2024-02-22_16h24.29.974,kallum_motion_pilot,2023.2.2,Win32,59.88023952,648251f5f13f3cab9a86e5cc,65d6bb0e977760de756971f7,65d6be55972c1d2144b7f504,0.0476,0.0477,1,107,269,48,1,onetwo,,,,,,,,,,,,,,,,,,,,,,,,,,,,,,,,,,,,,,,,,,,,,,,,,,,,,,,,,,,,,,,,,,,,,,,,,,,,,,,,,,,,,,,,,,,,,,,,,,,,,,,,,,,,,,,,,,,,,,,,,,,,,,,,,,,,,,,,,
,,648251f5f13f3cab9a86e5cc,2024-02-22_16h24.29.974,kallum_motion_pilot,2023.2.2,Win32,59.88023952,648251f5f13f3cab9a86e5cc,65d6bb0e977760de756971f7,65d6be55972c1d2144b7f504,0.0478,0.0478,1,108,270,5,1,threefour,,,,,,,,,,,,,,,,,,,,,,,,,,,,,,,,,,,,,,,,,,,,,,,,,,,,,,,,,,,,,,,,,,,,,,,,,,,,,,,,,,,,,,,,,,,,,,,,,,,,,,,,,,,,,,,,,,,,,,,,,,,,,,,,,,,,,,,,,
,,648251f5f13f3cab9a86e5cc,2024-02-22_16h24.29.974,kallum_motion_pilot,2023.2.2,Win32,59.88023952,648251f5f13f3cab9a86e5cc,65d6bb0e977760de756971f7,65d6be55972c1d2144b7f504,0.0479,0.0479,1,109,271,143,1,eightseven,,,,,,,,,,,,,,,,,,,,,,,,,,,,,,,,,,,,,,,,,,,,,,,,,,,,,,,,,,,,,,,,,,,,,,,,,,,,,,,,,,,,,,,,,,,,,,,,,,,,,,,,,,,,,,,,,,,,,,,,,,,,,,,,,,,,,,,,,
,,648251f5f13f3cab9a86e5cc,2024-02-22_16h24.29.974,kallum_motion_pilot,2023.2.2,Win32,59.88023952,648251f5f13f3cab9a86e5cc,65d6bb0e977760de756971f7,65d6be55972c1d2144b7f504,0.048,0.048,1,110,272,124,1,sevenfive,,,,,,,,,,,,,,,,,,,,,,,,,,,,,,,,,,,,,,,,,,,,,,,,,,,,,,,,,,,,,,,,,,,,,,,,,,,,,,,,,,,,,,,,,,,,,,,,,,,,,,,,,,,,,,,,,,,,,,,,,,,,,,,,,,,,,,,,,
,,648251f5f13f3cab9a86e5cc,2024-02-22_16h24.29.974,kallum_motion_pilot,2023.2.2,Win32,59.88023952,648251f5f13f3cab9a86e5cc,65d6bb0e977760de756971f7,65d6be55972c1d2144b7f504,0.0482,0.0482,1,111,273,88,1,fivesix,,,,,,,,,,,,,,,,,,,,,,,,,,,,,,,,,,,,,,,,,,,,,,,,,,,,,,,,,,,,,,,,,,,,,,,,,,,,,,,,,,,,,,,,,,,,,,,,,,,,,,,,,,,,,,,,,,,,,,,,,,,,,,,,,,,,,,,,,
,,648251f5f13f3cab9a86e5cc,2024-02-22_16h24.29.974,kallum_motion_pilot,2023.2.2,Win32,59.88023952,648251f5f13f3cab9a86e5cc,65d6bb0e977760de756971f7,65d6be55972c1d2144b7f504,0.0483,0.0484,1,112,274,4,1,threeone,,,,,,,,,,,,,,,,,,,,,,,,,,,,,,,,,,,,,,,,,,,,,,,,,,,,,,,,,,,,,,,,,,,,,,,,,,,,,,,,,,,,,,,,,,,,,,,,,,,,,,,,,,,,,,,,,,,,,,,,,,,,,,,,,,,,,,,,,
,,648251f5f13f3cab9a86e5cc,2024-02-22_16h24.29.974,kallum_motion_pilot,2023.2.2,Win32,59.88023952,648251f5f13f3cab9a86e5cc,65d6bb0e977760de756971f7,65d6be55972c1d2144b7f504,0.0484,0.0485,1,113,275,31,1,fourthree,,,,,,,,,,,,,,,,,,,,,,,,,,,,,,,,,,,,,,,,,,,,,,,,,,,,,,,,,,,,,,,,,,,,,,,,,,,,,,,,,,,,,,,,,,,,,,,,,,,,,,,,,,,,,,,,,,,,,,,,,,,,,,,,,,,,,,,,,
,,648251f5f13f3cab9a86e5cc,2024-02-22_16h24.29.974,kallum_motion_pilot,2023.2.2,Win32,59.88023952,648251f5f13f3cab9a86e5cc,65d6bb0e977760de756971f7,65d6be55972c1d2144b7f504,0.0485,0.0485,1,114,276,110,1,eightsix,,,,,,,,,,,,,,,,,,,,,,,,,,,,,,,,,,,,,,,,,,,,,,,,,,,,,,,,,,,,,,,,,,,,,,,,,,,,,,,,,,,,,,,,,,,,,,,,,,,,,,,,,,,,,,,,,,,,,,,,,,,,,,,,,,,,,,,,,
,,648251f5f13f3cab9a86e5cc,2024-02-22_16h24.29.974,kallum_motion_pilot,2023.2.2,Win32,59.88023952,648251f5f13f3cab9a86e5cc,65d6bb0e977760de756971f7,65d6be55972c1d2144b7f504,0.0486,0.0487,1,115,277,125,1,seveneight,,,,,,,,,,,,,,,,,,,,,,,,,,,,,,,,,,,,,,,,,,,,,,,,,,,,,,,,,,,,,,,,,,,,,,,,,,,,,,,,,,,,,,,,,,,,,,,,,,,,,,,,,,,,,,,,,,,,,,,,,,,,,,,,,,,,,,,,,
