startup.started,startup.stopped,Prolific ID*,date,expName,psychopyVersion,OS,frameRate,participant,study_id,session,stimpositions.started,stimpositions.stopped,hardcoded_stimulus_positions.thisRepN,hardcoded_stimulus_positions.thisTrialN,hardcoded_stimulus_positions.thisN,hardcoded_stimulus_positions.thisIndex,hardcoded_stimulus_positions.ran,StimulusPos,stimorientation.started,stimorientation.stopped,prac_stimorientation_import_loop.thisRepN,prac_stimorientation_import_loop.thisTrialN,prac_stimorientation_import_loop.thisN,prac_stimorientation_import_loop.thisIndex,prac_stimorientation_import_loop.ran,Stimorientation,welcome_instr.started,welcome_instr.stopped,key_resp.keys,key_resp.rt,key_resp.duration,response_steppedout_1.started,response_steppedout_1.stopped,key_resp_20.keys,key_resp_20.rt,key_resp_20.duration,response_steppedout_2.started,response_steppedout_2.stopped,key_resp_19.keys,key_resp_19.rt,key_resp_19.duration,stim_response_instr.started,stim_response_instr.stopped,key_resp_15.keys,key_resp_15.rt,key_resp_15.duration,direction_instr_2.started,direction_instr_2.stopped,key_resp_9.keys,key_resp_9.rt,key_resp_9.duration,instr_prac.started,instr_prac.stopped,key_resp_10.keys,key_resp_10.rt,key_resp_10.duration,Stim1_display_prac.started,Stim1_display_prac.stopped,Ecc,Circle1_ori,Circle2_ori,response_prac.started,similarity,response_time,response_prac.stopped,mouse_5.x,mouse_5.y,mouse_5.leftButton,mouse_5.midButton,mouse_5.rightButton,mouse_5.clicked_name,responseprac_feedback.started,responseprac_feedback.stopped,summary2_prac.started,summary2_prac.stopped,mouse_6.x,mouse_6.y,mouse_6.leftButton,mouse_6.midButton,mouse_6.rightButton,mouse_6.clicked_name,duringprac.thisRepN,duringprac.thisTrialN,duringprac.thisN,duringprac.thisIndex,duringprac.ran,begin.started,begin.stopped,key_resp_22.keys,key_resp_22.rt,key_resp_22.duration,Stim1_display.started,Stim1_display.stopped,circle1_ori,circle2_ori,circle1_SF,circle2_SF,response.started,response.stopped,mouse.x,mouse.y,mouse.leftButton,mouse.midButton,mouse.rightButton,mouse.clicked_name,trialnumber,double_pass.thisRepN,double_pass.thisTrialN,double_pass.thisN,double_pass.thisIndex,double_pass.ran,double_pass.order,main_trial.thisRepN,main_trial.thisTrialN,main_trial.thisN,main_trial.thisIndex,main_trial.ran,main_trial.order,Trial_Counter,Catch,Frequencies,response_2.started,response_2.stopped,mouse_2.x,mouse_2.y,mouse_2.leftButton,mouse_2.midButton,mouse_2.rightButton,mouse_2.clicked_name,special_trial.started,special_trial.stopped,catch_1.started,catch_1.stopped,mouse_3.x,mouse_3.y,mouse_3.leftButton,mouse_3.midButton,mouse_3.rightButton,catchresponse,catchnumber,response_time_catch,response_sum.started,response_sum.stopped,mouse_11.x,mouse_11.y,mouse_11.leftButton,mouse_11.midButton,mouse_11.rightButton,flip_presentation_sequence_for_double_pass.started,flip_presentation_sequence_for_double_pass.stopped,goodbye.started,goodbye.stopped,key_resp_3.keys,key_resp_3.rt,key_resp_3.duration
0.001,0.001,648b962b8fdb1fa686213ac1,2024-02-18_23h22.06.888,kallum_motion_pilot,2023.2.2,Win32,60.0240096,648b962b8fdb1fa686213ac1,65d2b6c8f2eece985d8e374c,65d2bb2baf359b430317dde7,,,,,,,,,,,,,,,,,,,,,,,,,,,,,,,,,,,,,,,,,,,,,,,,,,,,,,,,,,,,,,,,,,,,,,,,,,,,,,,,,,,,,,,,,,,,,,,,,,,,,,,,,,,,,,,,,,,,,,,,,,,,,,,,,,,,,,,,,,,,,,,,,
,,648b962b8fdb1fa686213ac1,2024-02-18_23h22.06.888,kallum_motion_pilot,2023.2.2,Win32,60.0240096,648b962b8fdb1fa686213ac1,65d2b6c8f2eece985d8e374c,65d2bb2baf359b430317dde7,0.044,0.044,0,0,0,17,1,onethree,,,,,,,,,,,,,,,,,,,,,,,,,,,,,,,,,,,,,,,,,,,,,,,,,,,,,,,,,,,,,,,,,,,,,,,,,,,,,,,,,,,,,,,,,,,,,,,,,,,,,,,,,,,,,,,,,,,,,,,,,,,,,,,,,,,,,,,,,
,,648b962b8fdb1fa686213ac1,2024-02-18_23h22.06.888,kallum_motion_pilot,2023.2.2,Win32,60.0240096,648b962b8fdb1fa686213ac1,65d2b6c8f2eece985d8e374c,65d2bb2baf359b430317dde7,0.044,0.044,0,1,1,23,1,fourthree,,,,,,,,,,,,,,,,,,,,,,,,,,,,,,,,,,,,,,,,,,,,,,,,,,,,,,,,,,,,,,,,,,,,,,,,,,,,,,,,,,,,,,,,,,,,,,,,,,,,,,,,,,,,,,,,,,,,,,,,,,,,,,,,,,,,,,,,,
,,648b962b8fdb1fa686213ac1,2024-02-18_23h22.06.888,kallum_motion_pilot,2023.2.2,Win32,60.0240096,648b962b8fdb1fa686213ac1,65d2b6c8f2eece985d8e374c,65d2bb2baf359b430317dde7,0.044,0.044,0,2,2,131,1,sixeight,,,,,,,,,,,,,,,,,,,,,,,,,,,,,,,,,,,,,,,,,,,,,,,,,,,,,,,,,,,,,,,,,,,,,,,,,,,,,,,,,,,,,,,,,,,,,,,,,,,,,,,,,,,,,,,,,,,,,,,,,,,,,,,,,,,,,,,,,
,,648b962b8fdb1fa686213ac1,2024-02-18_23h22.06.888,kallum_motion_pilot,2023.2.2,Win32,60.0240096,648b962b8fdb1fa686213ac1,65d2b6c8f2eece985d8e374c,65d2bb2baf359b430317dde7,0.044,0.045,0,3,3,93,1,seveneight,,,,,,,,,,,,,,,,,,,,,,,,,,,,,,,,,,,,,,,,,,,,,,,,,,,,,,,,,,,,,,,,,,,,,,,,,,,,,,,,,,,,,,,,,,,,,,,,,,,,,,,,,,,,,,,,,,,,,,,,,,,,,,,,,,,,,,,,,
,,648b962b8fdb1fa686213ac1,2024-02-18_23h22.06.888,kallum_motion_pilot,2023.2.2,Win32,60.0240096,648b962b8fdb1fa686213ac1,65d2b6c8f2eece985d8e374c,65d2bb2baf359b430317dde7,0.045,0.045,0,4,4,0,1,onetwo,,,,,,,,,,,,,,,,,,,,,,,,,,,,,,,,,,,,,,,,,,,,,,,,,,,,,,,,,,,,,,,,,,,,,,,,,,,,,,,,,,,,,,,,,,,,,,,,,,,,,,,,,,,,,,,,,,,,,,,,,,,,,,,,,,,,,,,,,
,,648b962b8fdb1fa686213ac1,2024-02-18_23h22.06.888,kallum_motion_pilot,2023.2.2,Win32,60.0240096,648b962b8fdb1fa686213ac1,65d2b6c8f2eece985d8e374c,65d2bb2baf359b430317dde7,0.045,0.045,0,5,5,148,1,sevenfive,,,,,,,,,,,,,,,,,,,,,,,,,,,,,,,,,,,,,,,,,,,,,,,,,,,,,,,,,,,,,,,,,,,,,,,,,,,,,,,,,,,,,,,,,,,,,,,,,,,,,,,,,,,,,,,,,,,,,,,,,,,,,,,,,,,,,,,,,
,,648b962b8fdb1fa686213ac1,2024-02-18_23h22.06.888,kallum_motion_pilot,2023.2.2,Win32,60.0240096,648b962b8fdb1fa686213ac1,65d2b6c8f2eece985d8e374c,65d2bb2baf359b430317dde7,0.045,0.045,0,6,6,149,1,seveneight,,,,,,,,,,,,,,,,,,,,,,,,,,,,,,,,,,,,,,,,,,,,,,,,,,,,,,,,,,,,,,,,,,,,,,,,,,,,,,,,,,,,,,,,,,,,,,,,,,,,,,,,,,,,,,,,,,,,,,,,,,,,,,,,,,,,,,,,,
,,648b962b8fdb1fa686213ac1,2024-02-18_23h22.06.888,kallum_motion_pilot,2023.2.2,Win32,60.0240096,648b962b8fdb1fa686213ac1,65d2b6c8f2eece985d8e374c,65d2bb2baf359b430317dde7,0.046,0.046,0,7,7,32,1,onetwo,,,,,,,,,,,,,,,,,,,,,,,,,,,,,,,,,,,,,,,,,,,,,,,,,,,,,,,,,,,,,,,,,,,,,,,,,,,,,,,,,,,,,,,,,,,,,,,,,,,,,,,,,,,,,,,,,,,,,,,,,,,,,,,,,,,,,,,,,
,,648b962b8fdb1fa686213ac1,2024-02-18_23h22.06.888,kallum_motion_pilot,2023.2.2,Win32,60.0240096,648b962b8fdb1fa686213ac1,65d2b6c8f2eece985d8e374c,65d2bb2baf359b430317dde7,0.046,0.046,0,8,8,117,1,seveneight,,,,,,,,,,,,,,,,,,,,,,,,,,,,,,,,,,,,,,,,,,,,,,,,,,,,,,,,,,,,,,,,,,,,,,,,,,,,,,,,,,,,,,,,,,,,,,,,,,,,,,,,,,,,,,,,,,,,,,,,,,,,,,,,,,,,,,,,,
,,648b962b8fdb1fa686213ac1,2024-02-18_23h22.06.888,kallum_motion_pilot,2023.2.2,Win32,60.0240096,648b962b8fdb1fa686213ac1,65d2b6c8f2eece985d8e374c,65d2bb2baf359b430317dde7,0.046,0.046,0,9,9,82,1,sixfive,,,,,,,,,,,,,,,,,,,,,,,,,,,,,,,,,,,,,,,,,,,,,,,,,,,,,,,,,,,,,,,,,,,,,,,,,,,,,,,,,,,,,,,,,,,,,,,,,,,,,,,,,,,,,,,,,,,,,,,,,,,,,,,,,,,,,,,,,
,,648b962b8fdb1fa686213ac1,2024-02-18_23h22.06.888,kallum_motion_pilot,2023.2.2,Win32,60.0240096,648b962b8fdb1fa686213ac1,65d2b6c8f2eece985d8e374c,65d2bb2baf359b430317dde7,0.046,0.046,0,10,10,48,1,onetwo,,,,,,,,,,,,,,,,,,,,,,,,,,,,,,,,,,,,,,,,,,,,,,,,,,,,,,,,,,,,,,,,,,,,,,,,,,,,,,,,,,,,,,,,,,,,,,,,,,,,,,,,,,,,,,,,,,,,,,,,,,,,,,,,,,,,,,,,,
,,648b962b8fdb1fa686213ac1,2024-02-18_23h22.06.888,kallum_motion_pilot,2023.2.2,Win32,60.0240096,648b962b8fdb1fa686213ac1,65d2b6c8f2eece985d8e374c,65d2bb2baf359b430317dde7,0.046,0.046,0,11,11,14,1,fourtwo,,,,,,,,,,,,,,,,,,,,,,,,,,,,,,,,,,,,,,,,,,,,,,,,,,,,,,,,,,,,,,,,,,,,,,,,,,,,,,,,,,,,,,,,,,,,,,,,,,,,,,,,,,,,,,,,,,,,,,,,,,,,,,,,,,,,,,,,,
,,648b962b8fdb1fa686213ac1,2024-02-18_23h22.06.888,kallum_motion_pilot,2023.2.2,Win32,60.0240096,648b962b8fdb1fa686213ac1,65d2b6c8f2eece985d8e374c,65d2bb2baf359b430317dde7,0.047,0.047,0,12,12,120,1,fivesix,,,,,,,,,,,,,,,,,,,,,,,,,,,,,,,,,,,,,,,,,,,,,,,,,,,,,,,,,,,,,,,,,,,,,,,,,,,,,,,,,,,,,,,,,,,,,,,,,,,,,,,,,,,,,,,,,,,,,,,,,,,,,,,,,,,,,,,,,
,,648b962b8fdb1fa686213ac1,2024-02-18_23h22.06.888,kallum_motion_pilot,2023.2.2,Win32,60.0240096,648b962b8fdb1fa686213ac1,65d2b6c8f2eece985d8e374c,65d2bb2baf359b430317dde7,0.047,0.047,0,13,13,102,1,eightsix,,,,,,,,,,,,,,,,,,,,,,,,,,,,,,,,,,,,,,,,,,,,,,,,,,,,,,,,,,,,,,,,,,,,,,,,,,,,,,,,,,,,,,,,,,,,,,,,,,,,,,,,,,,,,,,,,,,,,,,,,,,,,,,,,,,,,,,,,
,,648b962b8fdb1fa686213ac1,2024-02-18_23h22.06.888,kallum_motion_pilot,2023.2.2,Win32,60.0240096,648b962b8fdb1fa686213ac1,65d2b6c8f2eece985d8e374c,65d2bb2baf359b430317dde7,0.047,0.047,0,14,14,156,1,sevenfive,,,,,,,,,,,,,,,,,,,,,,,,,,,,,,,,,,,,,,,,,,,,,,,,,,,,,,,,,,,,,,,,,,,,,,,,,,,,,,,,,,,,,,,,,,,,,,,,,,,,,,,,,,,,,,,,,,,,,,,,,,,,,,,,,,,,,,,,,
,,648b962b8fdb1fa686213ac1,2024-02-18_23h22.06.888,kallum_motion_pilot,2023.2.2,Win32,60.0240096,648b962b8fdb1fa686213ac1,65d2b6c8f2eece985d8e374c,65d2bb2baf359b430317dde7,0.047,0.047,0,15,15,151,1,eightseven,,,,,,,,,,,,,,,,,,,,,,,,,,,,,,,,,,,,,,,,,,,,,,,,,,,,,,,,,,,,,,,,,,,,,,,,,,,,,,,,,,,,,,,,,,,,,,,,,,,,,,,,,,,,,,,,,,,,,,,,,,,,,,,,,,,,,,,,,
,,648b962b8fdb1fa686213ac1,2024-02-18_23h22.06.888,kallum_motion_pilot,2023.2.2,Win32,60.0240096,648b962b8fdb1fa686213ac1,65d2b6c8f2eece985d8e374c,65d2bb2baf359b430317dde7,0.048,0.048,0,16,16,97,1,fiveseven,,,,,,,,,,,,,,,,,,,,,,,,,,,,,,,,,,,,,,,,,,,,,,,,,,,,,,,,,,,,,,,,,,,,,,,,,,,,,,,,,,,,,,,,,,,,,,,,,,,,,,,,,,,,,,,,,,,,,,,,,,,,,,,,,,,,,,,,,
,,648b962b8fdb1fa686213ac1,2024-02-18_23h22.06.888,kallum_motion_pilot,2023.2.2,Win32,60.0240096,648b962b8fdb1fa686213ac1,65d2b6c8f2eece985d8e374c,65d2bb2baf359b430317dde7,0.048,0.048,0,17,17,63,1,fourthree,,,,,,,,,,,,,,,,,,,,,,,,,,,,,,,,,,,,,,,,,,,,,,,,,,,,,,,,,,,,,,,,,,,,,,,,,,,,,,,,,,,,,,,,,,,,,,,,,,,,,,,,,,,,,,,,,,,,,,,,,,,,,,,,,,,,,,,,,
,,648b962b8fdb1fa686213ac1,2024-02-18_23h22.06.888,kallum_motion_pilot,2023.2.2,Win32,60.0240096,648b962b8fdb1fa686213ac1,65d2b6c8f2eece985d8e374c,65d2bb2baf359b430317dde7,0.048,0.048,0,18,18,56,1,onetwo,,,,,,,,,,,,,,,,,,,,,,,,,,,,,,,,,,,,,,,,,,,,,,,,,,,,,,,,,,,,,,,,,,,,,,,,,,,,,,,,,,,,,,,,,,,,,,,,,,,,,,,,,,,,,,,,,,,,,,,,,,,,,,,,,,,,,,,,,
,,648b962b8fdb1fa686213ac1,2024-02-18_23h22.06.888,kallum_motion_pilot,2023.2.2,Win32,60.0240096,648b962b8fdb1fa686213ac1,65d2b6c8f2eece985d8e374c,65d2bb2baf359b430317dde7,0.049,0.049,0,19,19,28,1,threeone,,,,,,,,,,,,,,,,,,,,,,,,,,,,,,,,,,,,,,,,,,,,,,,,,,,,,,,,,,,,,,,,,,,,,,,,,,,,,,,,,,,,,,,,,,,,,,,,,,,,,,,,,,,,,,,,,,,,,,,,,,,,,,,,,,,,,,,,,
,,648b962b8fdb1fa686213ac1,2024-02-18_23h22.06.888,kallum_motion_pilot,2023.2.2,Win32,60.0240096,648b962b8fdb1fa686213ac1,65d2b6c8f2eece985d8e374c,65d2bb2baf359b430317dde7,0.049,0.049,0,20,20,39,1,fourthree,,,,,,,,,,,,,,,,,,,,,,,,,,,,,,,,,,,,,,,,,,,,,,,,,,,,,,,,,,,,,,,,,,,,,,,,,,,,,,,,,,,,,,,,,,,,,,,,,,,,,,,,,,,,,,,,,,,,,,,,,,,,,,,,,,,,,,,,,
,,648b962b8fdb1fa686213ac1,2024-02-18_23h22.06.888,kallum_motion_pilot,2023.2.2,Win32,60.0240096,648b962b8fdb1fa686213ac1,65d2b6c8f2eece985d8e374c,65d2bb2baf359b430317dde7,0.049,0.049,0,21,21,18,1,twoone,,,,,,,,,,,,,,,,,,,,,,,,,,,,,,,,,,,,,,,,,,,,,,,,,,,,,,,,,,,,,,,,,,,,,,,,,,,,,,,,,,,,,,,,,,,,,,,,,,,,,,,,,,,,,,,,,,,,,,,,,,,,,,,,,,,,,,,,,
,,648b962b8fdb1fa686213ac1,2024-02-18_23h22.06.888,kallum_motion_pilot,2023.2.2,Win32,60.0240096,648b962b8fdb1fa686213ac1,65d2b6c8f2eece985d8e374c,65d2bb2baf359b430317dde7,0.049,0.049,0,22,22,110,1,eightsix,,,,,,,,,,,,,,,,,,,,,,,,,,,,,,,,,,,,,,,,,,,,,,,,,,,,,,,,,,,,,,,,,,,,,,,,,,,,,,,,,,,,,,,,,,,,,,,,,,,,,,,,,,,,,,,,,,,,,,,,,,,,,,,,,,,,,,,,,
,,648b962b8fdb1fa686213ac1,2024-02-18_23h22.06.888,kallum_motion_pilot,2023.2.2,Win32,60.0240096,648b962b8fdb1fa686213ac1,65d2b6c8f2eece985d8e374c,65d2bb2baf359b430317dde7,0.049,0.05,0,23,23,71,1,fourthree,,,,,,,,,,,,,,,,,,,,,,,,,,,,,,,,,,,,,,,,,,,,,,,,,,,,,,,,,,,,,,,,,,,,,,,,,,,,,,,,,,,,,,,,,,,,,,,,,,,,,,,,,,,,,,,,,,,,,,,,,,,,,,,,,,,,,,,,,
,,648b962b8fdb1fa686213ac1,2024-02-18_23h22.06.888,kallum_motion_pilot,2023.2.2,Win32,60.0240096,648b962b8fdb1fa686213ac1,65d2b6c8f2eece985d8e374c,65d2bb2baf359b430317dde7,0.05,0.05,0,24,24,159,1,eightseven,,,,,,,,,,,,,,,,,,,,,,,,,,,,,,,,,,,,,,,,,,,,,,,,,,,,,,,,,,,,,,,,,,,,,,,,,,,,,,,,,,,,,,,,,,,,,,,,,,,,,,,,,,,,,,,,,,,,,,,,,,,,,,,,,,,,,,,,,
,,648b962b8fdb1fa686213ac1,2024-02-18_23h22.06.888,kallum_motion_pilot,2023.2.2,Win32,60.0240096,648b962b8fdb1fa686213ac1,65d2b6c8f2eece985d8e374c,65d2bb2baf359b430317dde7,0.05,0.05,0,25,25,1,1,onethree,,,,,,,,,,,,,,,,,,,,,,,,,,,,,,,,,,,,,,,,,,,,,,,,,,,,,,,,,,,,,,,,,,,,,,,,,,,,,,,,,,,,,,,,,,,,,,,,,,,,,,,,,,,,,,,,,,,,,,,,,,,,,,,,,,,,,,,,,
,,648b962b8fdb1fa686213ac1,2024-02-18_23h22.06.888,kallum_motion_pilot,2023.2.2,Win32,60.0240096,648b962b8fdb1fa686213ac1,65d2b6c8f2eece985d8e374c,65d2bb2baf359b430317dde7,0.05,0.05,0,26,26,66,1,twoone,,,,,,,,,,,,,,,,,,,,,,,,,,,,,,,,,,,,,,,,,,,,,,,,,,,,,,,,,,,,,,,,,,,,,,,,,,,,,,,,,,,,,,,,,,,,,,,,,,,,,,,,,,,,,,,,,,,,,,,,,,,,,,,,,,,,,,,,,
,,648b962b8fdb1fa686213ac1,2024-02-18_23h22.06.888,kallum_motion_pilot,2023.2.2,Win32,60.0240096,648b962b8fdb1fa686213ac1,65d2b6c8f2eece985d8e374c,65d2bb2baf359b430317dde7,0.051,0.051,0,27,27,61,1,threefour,,,,,,,,,,,,,,,,,,,,,,,,,,,,,,,,,,,,,,,,,,,,,,,,,,,,,,,,,,,,,,,,,,,,,,,,,,,,,,,,,,,,,,,,,,,,,,,,,,,,,,,,,,,,,,,,,,,,,,,,,,,,,,,,,,,,,,,,,
,,648b962b8fdb1fa686213ac1,2024-02-18_23h22.06.888,kallum_motion_pilot,2023.2.2,Win32,60.0240096,648b962b8fdb1fa686213ac1,65d2b6c8f2eece985d8e374c,65d2bb2baf359b430317dde7,0.051,0.051,0,28,28,4,1,threeone,,,,,,,,,,,,,,,,,,,,,,,,,,,,,,,,,,,,,,,,,,,,,,,,,,,,,,,,,,,,,,,,,,,,,,,,,,,,,,,,,,,,,,,,,,,,,,,,,,,,,,,,,,,,,,,,,,,,,,,,,,,,,,,,,,,,,,,,,
,,648b962b8fdb1fa686213ac1,2024-02-18_23h22.06.888,kallum_motion_pilot,2023.2.2,Win32,60.0240096,648b962b8fdb1fa686213ac1,65d2b6c8f2eece985d8e374c,65d2bb2baf359b430317dde7,0.051,0.051,0,29,29,139,1,sixeight,,,,,,,,,,,,,,,,,,,,,,,,,,,,,,,,,,,,,,,,,,,,,,,,,,,,,,,,,,,,,,,,,,,,,,,,,,,,,,,,,,,,,,,,,,,,,,,,,,,,,,,,,,,,,,,,,,,,,,,,,,,,,,,,,,,,,,,,,
,,648b962b8fdb1fa686213ac1,2024-02-18_23h22.06.888,kallum_motion_pilot,2023.2.2,Win32,60.0240096,648b962b8fdb1fa686213ac1,65d2b6c8f2eece985d8e374c,65d2bb2baf359b430317dde7,0.051,0.051,0,30,30,124,1,sevenfive,,,,,,,,,,,,,,,,,,,,,,,,,,,,,,,,,,,,,,,,,,,,,,,,,,,,,,,,,,,,,,,,,,,,,,,,,,,,,,,,,,,,,,,,,,,,,,,,,,,,,,,,,,,,,,,,,,,,,,,,,,,,,,,,,,,,,,,,,
,,648b962b8fdb1fa686213ac1,2024-02-18_23h22.06.888,kallum_motion_pilot,2023.2.2,Win32,60.0240096,648b962b8fdb1fa686213ac1,65d2b6c8f2eece985d8e374c,65d2bb2baf359b430317dde7,0.051,0.051,0,31,31,19,1,twofour,,,,,,,,,,,,,,,,,,,,,,,,,,,,,,,,,,,,,,,,,,,,,,,,,,,,,,,,,,,,,,,,,,,,,,,,,,,,,,,,,,,,,,,,,,,,,,,,,,,,,,,,,,,,,,,,,,,,,,,,,,,,,,,,,,,,,,,,,
,,648b962b8fdb1fa686213ac1,2024-02-18_23h22.06.888,kallum_motion_pilot,2023.2.2,Win32,60.0240096,648b962b8fdb1fa686213ac1,65d2b6c8f2eece985d8e374c,65d2bb2baf359b430317dde7,0.051,0.052,0,32,32,137,1,fiveseven,,,,,,,,,,,,,,,,,,,,,,,,,,,,,,,,,,,,,,,,,,,,,,,,,,,,,,,,,,,,,,,,,,,,,,,,,,,,,,,,,,,,,,,,,,,,,,,,,,,,,,,,,,,,,,,,,,,,,,,,,,,,,,,,,,,,,,,,,
,,648b962b8fdb1fa686213ac1,2024-02-18_23h22.06.888,kallum_motion_pilot,2023.2.2,Win32,60.0240096,648b962b8fdb1fa686213ac1,65d2b6c8f2eece985d8e374c,65d2bb2baf359b430317dde7,0.052,0.052,0,33,33,26,1,twoone,,,,,,,,,,,,,,,,,,,,,,,,,,,,,,,,,,,,,,,,,,,,,,,,,,,,,,,,,,,,,,,,,,,,,,,,,,,,,,,,,,,,,,,,,,,,,,,,,,,,,,,,,,,,,,,,,,,,,,,,,,,,,,,,,,,,,,,,,
,,648b962b8fdb1fa686213ac1,2024-02-18_23h22.06.888,kallum_motion_pilot,2023.2.2,Win32,60.0240096,648b962b8fdb1fa686213ac1,65d2b6c8f2eece985d8e374c,65d2bb2baf359b430317dde7,0.052,0.052,0,34,34,158,1,eightsix,,,,,,,,,,,,,,,,,,,,,,,,,,,,,,,,,,,,,,,,,,,,,,,,,,,,,,,,,,,,,,,,,,,,,,,,,,,,,,,,,,,,,,,,,,,,,,,,,,,,,,,,,,,,,,,,,,,,,,,,,,,,,,,,,,,,,,,,,
,,648b962b8fdb1fa686213ac1,2024-02-18_23h22.06.888,kallum_motion_pilot,2023.2.2,Win32,60.0240096,648b962b8fdb1fa686213ac1,65d2b6c8f2eece985d8e374c,65d2bb2baf359b430317dde7,0.052,0.052,0,35,35,88,1,fivesix,,,,,,,,,,,,,,,,,,,,,,,,,,,,,,,,,,,,,,,,,,,,,,,,,,,,,,,,,,,,,,,,,,,,,,,,,,,,,,,,,,,,,,,,,,,,,,,,,,,,,,,,,,,,,,,,,,,,,,,,,,,,,,,,,,,,,,,,,
,,648b962b8fdb1fa686213ac1,2024-02-18_23h22.06.888,kallum_motion_pilot,2023.2.2,Win32,60.0240096,648b962b8fdb1fa686213ac1,65d2b6c8f2eece985d8e374c,65d2bb2baf359b430317dde7,0.052,0.052,0,36,36,49,1,onethree,,,,,,,,,,,,,,,,,,,,,,,,,,,,,,,,,,,,,,,,,,,,,,,,,,,,,,,,,,,,,,,,,,,,,,,,,,,,,,,,,,,,,,,,,,,,,,,,,,,,,,,,,,,,,,,,,,,,,,,,,,,,,,,,,,,,,,,,,
,,648b962b8fdb1fa686213ac1,2024-02-18_23h22.06.888,kallum_motion_pilot,2023.2.2,Win32,60.0240096,648b962b8fdb1fa686213ac1,65d2b6c8f2eece985d8e374c,65d2bb2baf359b430317dde7,0.052,0.052,0,37,37,5,1,threefour,,,,,,,,,,,,,,,,,,,,,,,,,,,,,,,,,,,,,,,,,,,,,,,,,,,,,,,,,,,,,,,,,,,,,,,,,,,,,,,,,,,,,,,,,,,,,,,,,,,,,,,,,,,,,,,,,,,,,,,,,,,,,,,,,,,,,,,,,
,,648b962b8fdb1fa686213ac1,2024-02-18_23h22.06.888,kallum_motion_pilot,2023.2.2,Win32,60.0240096,648b962b8fdb1fa686213ac1,65d2b6c8f2eece985d8e374c,65d2bb2baf359b430317dde7,0.053,0.053,0,38,38,152,1,fivesix,,,,,,,,,,,,,,,,,,,,,,,,,,,,,,,,,,,,,,,,,,,,,,,,,,,,,,,,,,,,,,,,,,,,,,,,,,,,,,,,,,,,,,,,,,,,,,,,,,,,,,,,,,,,,,,,,,,,,,,,,,,,,,,,,,,,,,,,,
,,648b962b8fdb1fa686213ac1,2024-02-18_23h22.06.888,kallum_motion_pilot,2023.2.2,Win32,60.0240096,648b962b8fdb1fa686213ac1,65d2b6c8f2eece985d8e374c,65d2bb2baf359b430317dde7,0.053,0.053,0,39,39,122,1,sixfive,,,,,,,,,,,,,,,,,,,,,,,,,,,,,,,,,,,,,,,,,,,,,,,,,,,,,,,,,,,,,,,,,,,,,,,,,,,,,,,,,,,,,,,,,,,,,,,,,,,,,,,,,,,,,,,,,,,,,,,,,,,,,,,,,,,,,,,,,
,,648b962b8fdb1fa686213ac1,2024-02-18_23h22.06.888,kallum_motion_pilot,2023.2.2,Win32,60.0240096,648b962b8fdb1fa686213ac1,65d2b6c8f2eece985d8e374c,65d2bb2baf359b430317dde7,0.053,0.053,0,40,40,103,1,eightseven,,,,,,,,,,,,,,,,,,,,,,,,,,,,,,,,,,,,,,,,,,,,,,,,,,,,,,,,,,,,,,,,,,,,,,,,,,,,,,,,,,,,,,,,,,,,,,,,,,,,,,,,,,,,,,,,,,,,,,,,,,,,,,,,,,,,,,,,,
,,648b962b8fdb1fa686213ac1,2024-02-18_23h22.06.888,kallum_motion_pilot,2023.2.2,Win32,60.0240096,648b962b8fdb1fa686213ac1,65d2b6c8f2eece985d8e374c,65d2bb2baf359b430317dde7,0.053,0.053,0,41,41,76,1,threeone,,,,,,,,,,,,,,,,,,,,,,,,,,,,,,,,,,,,,,,,,,,,,,,,,,,,,,,,,,,,,,,,,,,,,,,,,,,,,,,,,,,,,,,,,,,,,,,,,,,,,,,,,,,,,,,,,,,,,,,,,,,,,,,,,,,,,,,,,
,,648b962b8fdb1fa686213ac1,2024-02-18_23h22.06.888,kallum_motion_pilot,2023.2.2,Win32,60.0240096,648b962b8fdb1fa686213ac1,65d2b6c8f2eece985d8e374c,65d2bb2baf359b430317dde7,0.053,0.053,0,42,42,79,1,eightseven,,,,,,,,,,,,,,,,,,,,,,,,,,,,,,,,,,,,,,,,,,,,,,,,,,,,,,,,,,,,,,,,,,,,,,,,,,,,,,,,,,,,,,,,,,,,,,,,,,,,,,,,,,,,,,,,,,,,,,,,,,,,,,,,,,,,,,,,,
,,648b962b8fdb1fa686213ac1,2024-02-18_23h22.06.888,kallum_motion_pilot,2023.2.2,Win32,60.0240096,648b962b8fdb1fa686213ac1,65d2b6c8f2eece985d8e374c,65d2bb2baf359b430317dde7,0.053,0.053,0,43,43,128,1,fivesix,,,,,,,,,,,,,,,,,,,,,,,,,,,,,,,,,,,,,,,,,,,,,,,,,,,,,,,,,,,,,,,,,,,,,,,,,,,,,,,,,,,,,,,,,,,,,,,,,,,,,,,,,,,,,,,,,,,,,,,,,,,,,,,,,,,,,,,,,
,,648b962b8fdb1fa686213ac1,2024-02-18_23h22.06.888,kallum_motion_pilot,2023.2.2,Win32,60.0240096,648b962b8fdb1fa686213ac1,65d2b6c8f2eece985d8e374c,65d2bb2baf359b430317dde7,0.054,0.054,0,44,44,111,1,eightseven,,,,,,,,,,,,,,,,,,,,,,,,,,,,,,,,,,,,,,,,,,,,,,,,,,,,,,,,,,,,,,,,,,,,,,,,,,,,,,,,,,,,,,,,,,,,,,,,,,,,,,,,,,,,,,,,,,,,,,,,,,,,,,,,,,,,,,,,,
,,648b962b8fdb1fa686213ac1,2024-02-18_23h22.06.888,kallum_motion_pilot,2023.2.2,Win32,60.0240096,648b962b8fdb1fa686213ac1,65d2b6c8f2eece985d8e374c,65d2bb2baf359b430317dde7,0.054,0.054,0,45,45,106,1,sixfive,,,,,,,,,,,,,,,,,,,,,,,,,,,,,,,,,,,,,,,,,,,,,,,,,,,,,,,,,,,,,,,,,,,,,,,,,,,,,,,,,,,,,,,,,,,,,,,,,,,,,,,,,,,,,,,,,,,,,,,,,,,,,,,,,,,,,,,,,
,,648b962b8fdb1fa686213ac1,2024-02-18_23h22.06.888,kallum_motion_pilot,2023.2.2,Win32,60.0240096,648b962b8fdb1fa686213ac1,65d2b6c8f2eece985d8e374c,65d2bb2baf359b430317dde7,0.054,0.054,0,46,46,155,1,sixeight,,,,,,,,,,,,,,,,,,,,,,,,,,,,,,,,,,,,,,,,,,,,,,,,,,,,,,,,,,,,,,,,,,,,,,,,,,,,,,,,,,,,,,,,,,,,,,,,,,,,,,,,,,,,,,,,,,,,,,,,,,,,,,,,,,,,,,,,,
,,648b962b8fdb1fa686213ac1,2024-02-18_23h22.06.888,kallum_motion_pilot,2023.2.2,Win32,60.0240096,648b962b8fdb1fa686213ac1,65d2b6c8f2eece985d8e374c,65d2bb2baf359b430317dde7,0.054,0.054,0,47,47,123,1,sixeight,,,,,,,,,,,,,,,,,,,,,,,,,,,,,,,,,,,,,,,,,,,,,,,,,,,,,,,,,,,,,,,,,,,,,,,,,,,,,,,,,,,,,,,,,,,,,,,,,,,,,,,,,,,,,,,,,,,,,,,,,,,,,,,,,,,,,,,,,
,,648b962b8fdb1fa686213ac1,2024-02-18_23h22.06.888,kallum_motion_pilot,2023.2.2,Win32,60.0240096,648b962b8fdb1fa686213ac1,65d2b6c8f2eece985d8e374c,65d2bb2baf359b430317dde7,0.054,0.054,0,48,48,12,1,threeone,,,,,,,,,,,,,,,,,,,,,,,,,,,,,,,,,,,,,,,,,,,,,,,,,,,,,,,,,,,,,,,,,,,,,,,,,,,,,,,,,,,,,,,,,,,,,,,,,,,,,,,,,,,,,,,,,,,,,,,,,,,,,,,,,,,,,,,,,
,,648b962b8fdb1fa686213ac1,2024-02-18_23h22.06.888,kallum_motion_pilot,2023.2.2,Win32,60.0240096,648b962b8fdb1fa686213ac1,65d2b6c8f2eece985d8e374c,65d2bb2baf359b430317dde7,0.055,0.055,0,49,49,7,1,fourthree,,,,,,,,,,,,,,,,,,,,,,,,,,,,,,,,,,,,,,,,,,,,,,,,,,,,,,,,,,,,,,,,,,,,,,,,,,,,,,,,,,,,,,,,,,,,,,,,,,,,,,,,,,,,,,,,,,,,,,,,,,,,,,,,,,,,,,,,,
,,648b962b8fdb1fa686213ac1,2024-02-18_23h22.06.888,kallum_motion_pilot,2023.2.2,Win32,60.0240096,648b962b8fdb1fa686213ac1,65d2b6c8f2eece985d8e374c,65d2bb2baf359b430317dde7,0.055,0.055,0,50,50,60,1,threeone,,,,,,,,,,,,,,,,,,,,,,,,,,,,,,,,,,,,,,,,,,,,,,,,,,,,,,,,,,,,,,,,,,,,,,,,,,,,,,,,,,,,,,,,,,,,,,,,,,,,,,,,,,,,,,,,,,,,,,,,,,,,,,,,,,,,,,,,,
,,648b962b8fdb1fa686213ac1,2024-02-18_23h22.06.888,kallum_motion_pilot,2023.2.2,Win32,60.0240096,648b962b8fdb1fa686213ac1,65d2b6c8f2eece985d8e374c,65d2bb2baf359b430317dde7,0.055,0.055,0,51,51,98,1,sixfive,,,,,,,,,,,,,,,,,,,,,,,,,,,,,,,,,,,,,,,,,,,,,,,,,,,,,,,,,,,,,,,,,,,,,,,,,,,,,,,,,,,,,,,,,,,,,,,,,,,,,,,,,,,,,,,,,,,,,,,,,,,,,,,,,,,,,,,,,
,,648b962b8fdb1fa686213ac1,2024-02-18_23h22.06.888,kallum_motion_pilot,2023.2.2,Win32,60.0240096,648b962b8fdb1fa686213ac1,65d2b6c8f2eece985d8e374c,65d2bb2baf359b430317dde7,0.055,0.055,0,52,52,126,1,eightsix,,,,,,,,,,,,,,,,,,,,,,,,,,,,,,,,,,,,,,,,,,,,,,,,,,,,,,,,,,,,,,,,,,,,,,,,,,,,,,,,,,,,,,,,,,,,,,,,,,,,,,,,,,,,,,,,,,,,,,,,,,,,,,,,,,,,,,,,,
,,648b962b8fdb1fa686213ac1,2024-02-18_23h22.06.888,kallum_motion_pilot,2023.2.2,Win32,60.0240096,648b962b8fdb1fa686213ac1,65d2b6c8f2eece985d8e374c,65d2bb2baf359b430317dde7,0.055,0.055,0,53,53,144,1,fivesix,,,,,,,,,,,,,,,,,,,,,,,,,,,,,,,,,,,,,,,,,,,,,,,,,,,,,,,,,,,,,,,,,,,,,,,,,,,,,,,,,,,,,,,,,,,,,,,,,,,,,,,,,,,,,,,,,,,,,,,,,,,,,,,,,,,,,,,,,
,,648b962b8fdb1fa686213ac1,2024-02-18_23h22.06.888,kallum_motion_pilot,2023.2.2,Win32,60.0240096,648b962b8fdb1fa686213ac1,65d2b6c8f2eece985d8e374c,65d2bb2baf359b430317dde7,0.056,0.056,0,54,54,6,1,fourtwo,,,,,,,,,,,,,,,,,,,,,,,,,,,,,,,,,,,,,,,,,,,,,,,,,,,,,,,,,,,,,,,,,,,,,,,,,,,,,,,,,,,,,,,,,,,,,,,,,,,,,,,,,,,,,,,,,,,,,,,,,,,,,,,,,,,,,,,,,
,,648b962b8fdb1fa686213ac1,2024-02-18_23h22.06.888,kallum_motion_pilot,2023.2.2,Win32,60.0240096,648b962b8fdb1fa686213ac1,65d2b6c8f2eece985d8e374c,65d2bb2baf359b430317dde7,0.056,0.056,0,55,55,105,1,fiveseven,,,,,,,,,,,,,,,,,,,,,,,,,,,,,,,,,,,,,,,,,,,,,,,,,,,,,,,,,,,,,,,,,,,,,,,,,,,,,,,,,,,,,,,,,,,,,,,,,,,,,,,,,,,,,,,,,,,,,,,,,,,,,,,,,,,,,,,,,
,,648b962b8fdb1fa686213ac1,2024-02-18_23h22.06.888,kallum_motion_pilot,2023.2.2,Win32,60.0240096,648b962b8fdb1fa686213ac1,65d2b6c8f2eece985d8e374c,65d2bb2baf359b430317dde7,0.056,0.056,0,56,56,113,1,fiveseven,,,,,,,,,,,,,,,,,,,,,,,,,,,,,,,,,,,,,,,,,,,,,,,,,,,,,,,,,,,,,,,,,,,,,,,,,,,,,,,,,,,,,,,,,,,,,,,,,,,,,,,,,,,,,,,,,,,,,,,,,,,,,,,,,,,,,,,,,
,,648b962b8fdb1fa686213ac1,2024-02-18_23h22.06.888,kallum_motion_pilot,2023.2.2,Win32,60.0240096,648b962b8fdb1fa686213ac1,65d2b6c8f2eece985d8e374c,65d2bb2baf359b430317dde7,0.056,0.056,0,57,57,147,1,sixeight,,,,,,,,,,,,,,,,,,,,,,,,,,,,,,,,,,,,,,,,,,,,,,,,,,,,,,,,,,,,,,,,,,,,,,,,,,,,,,,,,,,,,,,,,,,,,,,,,,,,,,,,,,,,,,,,,,,,,,,,,,,,,,,,,,,,,,,,,
,,648b962b8fdb1fa686213ac1,2024-02-18_23h22.06.888,kallum_motion_pilot,2023.2.2,Win32,60.0240096,648b962b8fdb1fa686213ac1,65d2b6c8f2eece985d8e374c,65d2bb2baf359b430317dde7,0.056,0.056,0,58,58,107,1,sixeight,,,,,,,,,,,,,,,,,,,,,,,,,,,,,,,,,,,,,,,,,,,,,,,,,,,,,,,,,,,,,,,,,,,,,,,,,,,,,,,,,,,,,,,,,,,,,,,,,,,,,,,,,,,,,,,,,,,,,,,,,,,,,,,,,,,,,,,,,
,,648b962b8fdb1fa686213ac1,2024-02-18_23h22.06.888,kallum_motion_pilot,2023.2.2,Win32,60.0240096,648b962b8fdb1fa686213ac1,65d2b6c8f2eece985d8e374c,65d2bb2baf359b430317dde7,0.056,0.056,0,59,59,37,1,threefour,,,,,,,,,,,,,,,,,,,,,,,,,,,,,,,,,,,,,,,,,,,,,,,,,,,,,,,,,,,,,,,,,,,,,,,,,,,,,,,,,,,,,,,,,,,,,,,,,,,,,,,,,,,,,,,,,,,,,,,,,,,,,,,,,,,,,,,,,
,,648b962b8fdb1fa686213ac1,2024-02-18_23h22.06.888,kallum_motion_pilot,2023.2.2,Win32,60.0240096,648b962b8fdb1fa686213ac1,65d2b6c8f2eece985d8e374c,65d2bb2baf359b430317dde7,0.057,0.057,0,60,60,53,1,threefour,,,,,,,,,,,,,,,,,,,,,,,,,,,,,,,,,,,,,,,,,,,,,,,,,,,,,,,,,,,,,,,,,,,,,,,,,,,,,,,,,,,,,,,,,,,,,,,,,,,,,,,,,,,,,,,,,,,,,,,,,,,,,,,,,,,,,,,,,
,,648b962b8fdb1fa686213ac1,2024-02-18_23h22.06.888,kallum_motion_pilot,2023.2.2,Win32,60.0240096,648b962b8fdb1fa686213ac1,65d2b6c8f2eece985d8e374c,65d2bb2baf359b430317dde7,0.057,0.057,0,61,61,87,1,eightseven,,,,,,,,,,,,,,,,,,,,,,,,,,,,,,,,,,,,,,,,,,,,,,,,,,,,,,,,,,,,,,,,,,,,,,,,,,,,,,,,,,,,,,,,,,,,,,,,,,,,,,,,,,,,,,,,,,,,,,,,,,,,,,,,,,,,,,,,,
,,648b962b8fdb1fa686213ac1,2024-02-18_23h22.06.888,kallum_motion_pilot,2023.2.2,Win32,60.0240096,648b962b8fdb1fa686213ac1,65d2b6c8f2eece985d8e374c,65d2bb2baf359b430317dde7,0.057,0.057,0,62,62,30,1,fourtwo,,,,,,,,,,,,,,,,,,,,,,,,,,,,,,,,,,,,,,,,,,,,,,,,,,,,,,,,,,,,,,,,,,,,,,,,,,,,,,,,,,,,,,,,,,,,,,,,,,,,,,,,,,,,,,,,,,,,,,,,,,,,,,,,,,,,,,,,,
,,648b962b8fdb1fa686213ac1,2024-02-18_23h22.06.888,kallum_motion_pilot,2023.2.2,Win32,60.0240096,648b962b8fdb1fa686213ac1,65d2b6c8f2eece985d8e374c,65d2bb2baf359b430317dde7,0.057,0.057,0,63,63,101,1,seveneight,,,,,,,,,,,,,,,,,,,,,,,,,,,,,,,,,,,,,,,,,,,,,,,,,,,,,,,,,,,,,,,,,,,,,,,,,,,,,,,,,,,,,,,,,,,,,,,,,,,,,,,,,,,,,,,,,,,,,,,,,,,,,,,,,,,,,,,,,
,,648b962b8fdb1fa686213ac1,2024-02-18_23h22.06.888,kallum_motion_pilot,2023.2.2,Win32,60.0240096,648b962b8fdb1fa686213ac1,65d2b6c8f2eece985d8e374c,65d2bb2baf359b430317dde7,0.057,0.057,0,64,64,86,1,eightsix,,,,,,,,,,,,,,,,,,,,,,,,,,,,,,,,,,,,,,,,,,,,,,,,,,,,,,,,,,,,,,,,,,,,,,,,,,,,,,,,,,,,,,,,,,,,,,,,,,,,,,,,,,,,,,,,,,,,,,,,,,,,,,,,,,,,,,,,,
,,648b962b8fdb1fa686213ac1,2024-02-18_23h22.06.888,kallum_motion_pilot,2023.2.2,Win32,60.0240096,648b962b8fdb1fa686213ac1,65d2b6c8f2eece985d8e374c,65d2bb2baf359b430317dde7,0.057,0.058,0,65,65,143,1,eightseven,,,,,,,,,,,,,,,,,,,,,,,,,,,,,,,,,,,,,,,,,,,,,,,,,,,,,,,,,,,,,,,,,,,,,,,,,,,,,,,,,,,,,,,,,,,,,,,,,,,,,,,,,,,,,,,,,,,,,,,,,,,,,,,,,,,,,,,,,
,,648b962b8fdb1fa686213ac1,2024-02-18_23h22.06.888,kallum_motion_pilot,2023.2.2,Win32,60.0240096,648b962b8fdb1fa686213ac1,65d2b6c8f2eece985d8e374c,65d2bb2baf359b430317dde7,0.058,0.058,0,66,66,85,1,seveneight,,,,,,,,,,,,,,,,,,,,,,,,,,,,,,,,,,,,,,,,,,,,,,,,,,,,,,,,,,,,,,,,,,,,,,,,,,,,,,,,,,,,,,,,,,,,,,,,,,,,,,,,,,,,,,,,,,,,,,,,,,,,,,,,,,,,,,,,,
,,648b962b8fdb1fa686213ac1,2024-02-18_23h22.06.888,kallum_motion_pilot,2023.2.2,Win32,60.0240096,648b962b8fdb1fa686213ac1,65d2b6c8f2eece985d8e374c,65d2bb2baf359b430317dde7,0.058,0.058,0,67,67,15,1,fourthree,,,,,,,,,,,,,,,,,,,,,,,,,,,,,,,,,,,,,,,,,,,,,,,,,,,,,,,,,,,,,,,,,,,,,,,,,,,,,,,,,,,,,,,,,,,,,,,,,,,,,,,,,,,,,,,,,,,,,,,,,,,,,,,,,,,,,,,,,
,,648b962b8fdb1fa686213ac1,2024-02-18_23h22.06.888,kallum_motion_pilot,2023.2.2,Win32,60.0240096,648b962b8fdb1fa686213ac1,65d2b6c8f2eece985d8e374c,65d2bb2baf359b430317dde7,0.058,0.058,0,68,68,65,1,onethree,,,,,,,,,,,,,,,,,,,,,,,,,,,,,,,,,,,,,,,,,,,,,,,,,,,,,,,,,,,,,,,,,,,,,,,,,,,,,,,,,,,,,,,,,,,,,,,,,,,,,,,,,,,,,,,,,,,,,,,,,,,,,,,,,,,,,,,,,
,,648b962b8fdb1fa686213ac1,2024-02-18_23h22.06.888,kallum_motion_pilot,2023.2.2,Win32,60.0240096,648b962b8fdb1fa686213ac1,65d2b6c8f2eece985d8e374c,65d2bb2baf359b430317dde7,0.058,0.058,0,69,69,130,1,sixfive,,,,,,,,,,,,,,,,,,,,,,,,,,,,,,,,,,,,,,,,,,,,,,,,,,,,,,,,,,,,,,,,,,,,,,,,,,,,,,,,,,,,,,,,,,,,,,,,,,,,,,,,,,,,,,,,,,,,,,,,,,,,,,,,,,,,,,,,,
,,648b962b8fdb1fa686213ac1,2024-02-18_23h22.06.888,kallum_motion_pilot,2023.2.2,Win32,60.0240096,648b962b8fdb1fa686213ac1,65d2b6c8f2eece985d8e374c,65d2bb2baf359b430317dde7,0.058,0.058,0,70,70,45,1,threefour,,,,,,,,,,,,,,,,,,,,,,,,,,,,,,,,,,,,,,,,,,,,,,,,,,,,,,,,,,,,,,,,,,,,,,,,,,,,,,,,,,,,,,,,,,,,,,,,,,,,,,,,,,,,,,,,,,,,,,,,,,,,,,,,,,,,,,,,,
,,648b962b8fdb1fa686213ac1,2024-02-18_23h22.06.888,kallum_motion_pilot,2023.2.2,Win32,60.0240096,648b962b8fdb1fa686213ac1,65d2b6c8f2eece985d8e374c,65d2bb2baf359b430317dde7,0.059,0.059,0,71,71,47,1,fourthree,,,,,,,,,,,,,,,,,,,,,,,,,,,,,,,,,,,,,,,,,,,,,,,,,,,,,,,,,,,,,,,,,,,,,,,,,,,,,,,,,,,,,,,,,,,,,,,,,,,,,,,,,,,,,,,,,,,,,,,,,,,,,,,,,,,,,,,,,
,,648b962b8fdb1fa686213ac1,2024-02-18_23h22.06.888,kallum_motion_pilot,2023.2.2,Win32,60.0240096,648b962b8fdb1fa686213ac1,65d2b6c8f2eece985d8e374c,65d2bb2baf359b430317dde7,0.059,0.059,0,72,72,36,1,threeone,,,,,,,,,,,,,,,,,,,,,,,,,,,,,,,,,,,,,,,,,,,,,,,,,,,,,,,,,,,,,,,,,,,,,,,,,,,,,,,,,,,,,,,,,,,,,,,,,,,,,,,,,,,,,,,,,,,,,,,,,,,,,,,,,,,,,,,,,
,,648b962b8fdb1fa686213ac1,2024-02-18_23h22.06.888,kallum_motion_pilot,2023.2.2,Win32,60.0240096,648b962b8fdb1fa686213ac1,65d2b6c8f2eece985d8e374c,65d2bb2baf359b430317dde7,0.059,0.059,0,73,73,33,1,onethree,,,,,,,,,,,,,,,,,,,,,,,,,,,,,,,,,,,,,,,,,,,,,,,,,,,,,,,,,,,,,,,,,,,,,,,,,,,,,,,,,,,,,,,,,,,,,,,,,,,,,,,,,,,,,,,,,,,,,,,,,,,,,,,,,,,,,,,,,
,,648b962b8fdb1fa686213ac1,2024-02-18_23h22.06.888,kallum_motion_pilot,2023.2.2,Win32,60.0240096,648b962b8fdb1fa686213ac1,65d2b6c8f2eece985d8e374c,65d2bb2baf359b430317dde7,0.059,0.059,0,74,74,146,1,sixfive,,,,,,,,,,,,,,,,,,,,,,,,,,,,,,,,,,,,,,,,,,,,,,,,,,,,,,,,,,,,,,,,,,,,,,,,,,,,,,,,,,,,,,,,,,,,,,,,,,,,,,,,,,,,,,,,,,,,,,,,,,,,,,,,,,,,,,,,,
,,648b962b8fdb1fa686213ac1,2024-02-18_23h22.06.888,kallum_motion_pilot,2023.2.2,Win32,60.0240096,648b962b8fdb1fa686213ac1,65d2b6c8f2eece985d8e374c,65d2bb2baf359b430317dde7,0.059,0.059,0,75,75,89,1,fiveseven,,,,,,,,,,,,,,,,,,,,,,,,,,,,,,,,,,,,,,,,,,,,,,,,,,,,,,,,,,,,,,,,,,,,,,,,,,,,,,,,,,,,,,,,,,,,,,,,,,,,,,,,,,,,,,,,,,,,,,,,,,,,,,,,,,,,,,,,,
,,648b962b8fdb1fa686213ac1,2024-02-18_23h22.06.888,kallum_motion_pilot,2023.2.2,Win32,60.0240096,648b962b8fdb1fa686213ac1,65d2b6c8f2eece985d8e374c,65d2bb2baf359b430317dde7,0.06,0.06,0,76,76,136,1,fivesix,,,,,,,,,,,,,,,,,,,,,,,,,,,,,,,,,,,,,,,,,,,,,,,,,,,,,,,,,,,,,,,,,,,,,,,,,,,,,,,,,,,,,,,,,,,,,,,,,,,,,,,,,,,,,,,,,,,,,,,,,,,,,,,,,,,,,,,,,
,,648b962b8fdb1fa686213ac1,2024-02-18_23h22.06.888,kallum_motion_pilot,2023.2.2,Win32,60.0240096,648b962b8fdb1fa686213ac1,65d2b6c8f2eece985d8e374c,65d2bb2baf359b430317dde7,0.06,0.06,0,77,77,40,1,onetwo,,,,,,,,,,,,,,,,,,,,,,,,,,,,,,,,,,,,,,,,,,,,,,,,,,,,,,,,,,,,,,,,,,,,,,,,,,,,,,,,,,,,,,,,,,,,,,,,,,,,,,,,,,,,,,,,,,,,,,,,,,,,,,,,,,,,,,,,,
,,648b962b8fdb1fa686213ac1,2024-02-18_23h22.06.888,kallum_motion_pilot,2023.2.2,Win32,60.0240096,648b962b8fdb1fa686213ac1,65d2b6c8f2eece985d8e374c,65d2bb2baf359b430317dde7,0.06,0.06,0,78,78,41,1,onethree,,,,,,,,,,,,,,,,,,,,,,,,,,,,,,,,,,,,,,,,,,,,,,,,,,,,,,,,,,,,,,,,,,,,,,,,,,,,,,,,,,,,,,,,,,,,,,,,,,,,,,,,,,,,,,,,,,,,,,,,,,,,,,,,,,,,,,,,,
,,648b962b8fdb1fa686213ac1,2024-02-18_23h22.06.888,kallum_motion_pilot,2023.2.2,Win32,60.0240096,648b962b8fdb1fa686213ac1,65d2b6c8f2eece985d8e374c,65d2bb2baf359b430317dde7,0.06,0.06,0,79,79,59,1,twofour,,,,,,,,,,,,,,,,,,,,,,,,,,,,,,,,,,,,,,,,,,,,,,,,,,,,,,,,,,,,,,,,,,,,,,,,,,,,,,,,,,,,,,,,,,,,,,,,,,,,,,,,,,,,,,,,,,,,,,,,,,,,,,,,,,,,,,,,,
,,648b962b8fdb1fa686213ac1,2024-02-18_23h22.06.888,kallum_motion_pilot,2023.2.2,Win32,60.0240096,648b962b8fdb1fa686213ac1,65d2b6c8f2eece985d8e374c,65d2bb2baf359b430317dde7,0.06,0.06,0,80,80,31,1,fourthree,,,,,,,,,,,,,,,,,,,,,,,,,,,,,,,,,,,,,,,,,,,,,,,,,,,,,,,,,,,,,,,,,,,,,,,,,,,,,,,,,,,,,,,,,,,,,,,,,,,,,,,,,,,,,,,,,,,,,,,,,,,,,,,,,,,,,,,,,
,,648b962b8fdb1fa686213ac1,2024-02-18_23h22.06.888,kallum_motion_pilot,2023.2.2,Win32,60.0240096,648b962b8fdb1fa686213ac1,65d2b6c8f2eece985d8e374c,65d2bb2baf359b430317dde7,0.06,0.06,0,81,81,108,1,sevenfive,,,,,,,,,,,,,,,,,,,,,,,,,,,,,,,,,,,,,,,,,,,,,,,,,,,,,,,,,,,,,,,,,,,,,,,,,,,,,,,,,,,,,,,,,,,,,,,,,,,,,,,,,,,,,,,,,,,,,,,,,,,,,,,,,,,,,,,,,
,,648b962b8fdb1fa686213ac1,2024-02-18_23h22.06.888,kallum_motion_pilot,2023.2.2,Win32,60.0240096,648b962b8fdb1fa686213ac1,65d2b6c8f2eece985d8e374c,65d2bb2baf359b430317dde7,0.06,0.06,0,82,82,161,1,fiveseven,,,,,,,,,,,,,,,,,,,,,,,,,,,,,,,,,,,,,,,,,,,,,,,,,,,,,,,,,,,,,,,,,,,,,,,,,,,,,,,,,,,,,,,,,,,,,,,,,,,,,,,,,,,,,,,,,,,,,,,,,,,,,,,,,,,,,,,,,
,,648b962b8fdb1fa686213ac1,2024-02-18_23h22.06.888,kallum_motion_pilot,2023.2.2,Win32,60.0240096,648b962b8fdb1fa686213ac1,65d2b6c8f2eece985d8e374c,65d2bb2baf359b430317dde7,0.06,0.06,0,83,83,70,1,fourtwo,,,,,,,,,,,,,,,,,,,,,,,,,,,,,,,,,,,,,,,,,,,,,,,,,,,,,,,,,,,,,,,,,,,,,,,,,,,,,,,,,,,,,,,,,,,,,,,,,,,,,,,,,,,,,,,,,,,,,,,,,,,,,,,,,,,,,,,,,
,,648b962b8fdb1fa686213ac1,2024-02-18_23h22.06.888,kallum_motion_pilot,2023.2.2,Win32,60.0240096,648b962b8fdb1fa686213ac1,65d2b6c8f2eece985d8e374c,65d2bb2baf359b430317dde7,0.061,0.061,0,84,84,51,1,twofour,,,,,,,,,,,,,,,,,,,,,,,,,,,,,,,,,,,,,,,,,,,,,,,,,,,,,,,,,,,,,,,,,,,,,,,,,,,,,,,,,,,,,,,,,,,,,,,,,,,,,,,,,,,,,,,,,,,,,,,,,,,,,,,,,,,,,,,,,
,,648b962b8fdb1fa686213ac1,2024-02-18_23h22.06.888,kallum_motion_pilot,2023.2.2,Win32,60.0240096,648b962b8fdb1fa686213ac1,65d2b6c8f2eece985d8e374c,65d2bb2baf359b430317dde7,0.061,0.061,0,85,85,133,1,seveneight,,,,,,,,,,,,,,,,,,,,,,,,,,,,,,,,,,,,,,,,,,,,,,,,,,,,,,,,,,,,,,,,,,,,,,,,,,,,,,,,,,,,,,,,,,,,,,,,,,,,,,,,,,,,,,,,,,,,,,,,,,,,,,,,,,,,,,,,,
,,648b962b8fdb1fa686213ac1,2024-02-18_23h22.06.888,kallum_motion_pilot,2023.2.2,Win32,60.0240096,648b962b8fdb1fa686213ac1,65d2b6c8f2eece985d8e374c,65d2bb2baf359b430317dde7,0.061,0.061,0,86,86,132,1,sevenfive,,,,,,,,,,,,,,,,,,,,,,,,,,,,,,,,,,,,,,,,,,,,,,,,,,,,,,,,,,,,,,,,,,,,,,,,,,,,,,,,,,,,,,,,,,,,,,,,,,,,,,,,,,,,,,,,,,,,,,,,,,,,,,,,,,,,,,,,,
,,648b962b8fdb1fa686213ac1,2024-02-18_23h22.06.888,kallum_motion_pilot,2023.2.2,Win32,60.0240096,648b962b8fdb1fa686213ac1,65d2b6c8f2eece985d8e374c,65d2bb2baf359b430317dde7,0.061,0.061,0,87,87,34,1,twoone,,,,,,,,,,,,,,,,,,,,,,,,,,,,,,,,,,,,,,,,,,,,,,,,,,,,,,,,,,,,,,,,,,,,,,,,,,,,,,,,,,,,,,,,,,,,,,,,,,,,,,,,,,,,,,,,,,,,,,,,,,,,,,,,,,,,,,,,,
,,648b962b8fdb1fa686213ac1,2024-02-18_23h22.06.888,kallum_motion_pilot,2023.2.2,Win32,60.0240096,648b962b8fdb1fa686213ac1,65d2b6c8f2eece985d8e374c,65d2bb2baf359b430317dde7,0.061,0.061,0,88,88,50,1,twoone,,,,,,,,,,,,,,,,,,,,,,,,,,,,,,,,,,,,,,,,,,,,,,,,,,,,,,,,,,,,,,,,,,,,,,,,,,,,,,,,,,,,,,,,,,,,,,,,,,,,,,,,,,,,,,,,,,,,,,,,,,,,,,,,,,,,,,,,,
,,648b962b8fdb1fa686213ac1,2024-02-18_23h22.06.888,kallum_motion_pilot,2023.2.2,Win32,60.0240096,648b962b8fdb1fa686213ac1,65d2b6c8f2eece985d8e374c,65d2bb2baf359b430317dde7,0.061,0.061,0,89,89,78,1,fourtwo,,,,,,,,,,,,,,,,,,,,,,,,,,,,,,,,,,,,,,,,,,,,,,,,,,,,,,,,,,,,,,,,,,,,,,,,,,,,,,,,,,,,,,,,,,,,,,,,,,,,,,,,,,,,,,,,,,,,,,,,,,,,,,,,,,,,,,,,,
,,648b962b8fdb1fa686213ac1,2024-02-18_23h22.06.888,kallum_motion_pilot,2023.2.2,Win32,60.0240096,648b962b8fdb1fa686213ac1,65d2b6c8f2eece985d8e374c,65d2bb2baf359b430317dde7,0.061,0.061,0,90,90,160,1,fivesix,,,,,,,,,,,,,,,,,,,,,,,,,,,,,,,,,,,,,,,,,,,,,,,,,,,,,,,,,,,,,,,,,,,,,,,,,,,,,,,,,,,,,,,,,,,,,,,,,,,,,,,,,,,,,,,,,,,,,,,,,,,,,,,,,,,,,,,,,
,,648b962b8fdb1fa686213ac1,2024-02-18_23h22.06.888,kallum_motion_pilot,2023.2.2,Win32,60.0240096,648b962b8fdb1fa686213ac1,65d2b6c8f2eece985d8e374c,65d2bb2baf359b430317dde7,0.062,0.062,0,91,91,157,1,seveneight,,,,,,,,,,,,,,,,,,,,,,,,,,,,,,,,,,,,,,,,,,,,,,,,,,,,,,,,,,,,,,,,,,,,,,,,,,,,,,,,,,,,,,,,,,,,,,,,,,,,,,,,,,,,,,,,,,,,,,,,,,,,,,,,,,,,,,,,,
,,648b962b8fdb1fa686213ac1,2024-02-18_23h22.06.888,kallum_motion_pilot,2023.2.2,Win32,60.0240096,648b962b8fdb1fa686213ac1,65d2b6c8f2eece985d8e374c,65d2bb2baf359b430317dde7,0.062,0.062,0,92,92,44,1,threeone,,,,,,,,,,,,,,,,,,,,,,,,,,,,,,,,,,,,,,,,,,,,,,,,,,,,,,,,,,,,,,,,,,,,,,,,,,,,,,,,,,,,,,,,,,,,,,,,,,,,,,,,,,,,,,,,,,,,,,,,,,,,,,,,,,,,,,,,,
,,648b962b8fdb1fa686213ac1,2024-02-18_23h22.06.888,kallum_motion_pilot,2023.2.2,Win32,60.0240096,648b962b8fdb1fa686213ac1,65d2b6c8f2eece985d8e374c,65d2bb2baf359b430317dde7,0.062,0.062,0,93,93,138,1,sixfive,,,,,,,,,,,,,,,,,,,,,,,,,,,,,,,,,,,,,,,,,,,,,,,,,,,,,,,,,,,,,,,,,,,,,,,,,,,,,,,,,,,,,,,,,,,,,,,,,,,,,,,,,,,,,,,,,,,,,,,,,,,,,,,,,,,,,,,,,
,,648b962b8fdb1fa686213ac1,2024-02-18_23h22.06.888,kallum_motion_pilot,2023.2.2,Win32,60.0240096,648b962b8fdb1fa686213ac1,65d2b6c8f2eece985d8e374c,65d2bb2baf359b430317dde7,0.062,0.062,0,94,94,52,1,threeone,,,,,,,,,,,,,,,,,,,,,,,,,,,,,,,,,,,,,,,,,,,,,,,,,,,,,,,,,,,,,,,,,,,,,,,,,,,,,,,,,,,,,,,,,,,,,,,,,,,,,,,,,,,,,,,,,,,,,,,,,,,,,,,,,,,,,,,,,
,,648b962b8fdb1fa686213ac1,2024-02-18_23h22.06.888,kallum_motion_pilot,2023.2.2,Win32,60.0240096,648b962b8fdb1fa686213ac1,65d2b6c8f2eece985d8e374c,65d2bb2baf359b430317dde7,0.062,0.062,0,95,95,38,1,fourtwo,,,,,,,,,,,,,,,,,,,,,,,,,,,,,,,,,,,,,,,,,,,,,,,,,,,,,,,,,,,,,,,,,,,,,,,,,,,,,,,,,,,,,,,,,,,,,,,,,,,,,,,,,,,,,,,,,,,,,,,,,,,,,,,,,,,,,,,,,
,,648b962b8fdb1fa686213ac1,2024-02-18_23h22.06.888,kallum_motion_pilot,2023.2.2,Win32,60.0240096,648b962b8fdb1fa686213ac1,65d2b6c8f2eece985d8e374c,65d2bb2baf359b430317dde7,0.062,0.062,0,96,96,99,1,sixeight,,,,,,,,,,,,,,,,,,,,,,,,,,,,,,,,,,,,,,,,,,,,,,,,,,,,,,,,,,,,,,,,,,,,,,,,,,,,,,,,,,,,,,,,,,,,,,,,,,,,,,,,,,,,,,,,,,,,,,,,,,,,,,,,,,,,,,,,,
,,648b962b8fdb1fa686213ac1,2024-02-18_23h22.06.888,kallum_motion_pilot,2023.2.2,Win32,60.0240096,648b962b8fdb1fa686213ac1,65d2b6c8f2eece985d8e374c,65d2bb2baf359b430317dde7,0.063,0.063,0,97,97,96,1,fivesix,,,,,,,,,,,,,,,,,,,,,,,,,,,,,,,,,,,,,,,,,,,,,,,,,,,,,,,,,,,,,,,,,,,,,,,,,,,,,,,,,,,,,,,,,,,,,,,,,,,,,,,,,,,,,,,,,,,,,,,,,,,,,,,,,,,,,,,,,
,,648b962b8fdb1fa686213ac1,2024-02-18_23h22.06.888,kallum_motion_pilot,2023.2.2,Win32,60.0240096,648b962b8fdb1fa686213ac1,65d2b6c8f2eece985d8e374c,65d2bb2baf359b430317dde7,0.063,0.063,0,98,98,57,1,onethree,,,,,,,,,,,,,,,,,,,,,,,,,,,,,,,,,,,,,,,,,,,,,,,,,,,,,,,,,,,,,,,,,,,,,,,,,,,,,,,,,,,,,,,,,,,,,,,,,,,,,,,,,,,,,,,,,,,,,,,,,,,,,,,,,,,,,,,,,
,,648b962b8fdb1fa686213ac1,2024-02-18_23h22.06.888,kallum_motion_pilot,2023.2.2,Win32,60.0240096,648b962b8fdb1fa686213ac1,65d2b6c8f2eece985d8e374c,65d2bb2baf359b430317dde7,0.063,0.063,0,99,99,55,1,fourthree,,,,,,,,,,,,,,,,,,,,,,,,,,,,,,,,,,,,,,,,,,,,,,,,,,,,,,,,,,,,,,,,,,,,,,,,,,,,,,,,,,,,,,,,,,,,,,,,,,,,,,,,,,,,,,,,,,,,,,,,,,,,,,,,,,,,,,,,,
,,648b962b8fdb1fa686213ac1,2024-02-18_23h22.06.888,kallum_motion_pilot,2023.2.2,Win32,60.0240096,648b962b8fdb1fa686213ac1,65d2b6c8f2eece985d8e374c,65d2bb2baf359b430317dde7,0.063,0.063,0,100,100,27,1,twofour,,,,,,,,,,,,,,,,,,,,,,,,,,,,,,,,,,,,,,,,,,,,,,,,,,,,,,,,,,,,,,,,,,,,,,,,,,,,,,,,,,,,,,,,,,,,,,,,,,,,,,,,,,,,,,,,,,,,,,,,,,,,,,,,,,,,,,,,,
,,648b962b8fdb1fa686213ac1,2024-02-18_23h22.06.888,kallum_motion_pilot,2023.2.2,Win32,60.0240096,648b962b8fdb1fa686213ac1,65d2b6c8f2eece985d8e374c,65d2bb2baf359b430317dde7,0.063,0.063,0,101,101,95,1,eightseven,,,,,,,,,,,,,,,,,,,,,,,,,,,,,,,,,,,,,,,,,,,,,,,,,,,,,,,,,,,,,,,,,,,,,,,,,,,,,,,,,,,,,,,,,,,,,,,,,,,,,,,,,,,,,,,,,,,,,,,,,,,,,,,,,,,,,,,,,
,,648b962b8fdb1fa686213ac1,2024-02-18_23h22.06.888,kallum_motion_pilot,2023.2.2,Win32,60.0240096,648b962b8fdb1fa686213ac1,65d2b6c8f2eece985d8e374c,65d2bb2baf359b430317dde7,0.063,0.063,0,102,102,142,1,eightsix,,,,,,,,,,,,,,,,,,,,,,,,,,,,,,,,,,,,,,,,,,,,,,,,,,,,,,,,,,,,,,,,,,,,,,,,,,,,,,,,,,,,,,,,,,,,,,,,,,,,,,,,,,,,,,,,,,,,,,,,,,,,,,,,,,,,,,,,,
,,648b962b8fdb1fa686213ac1,2024-02-18_23h22.06.888,kallum_motion_pilot,2023.2.2,Win32,60.0240096,648b962b8fdb1fa686213ac1,65d2b6c8f2eece985d8e374c,65d2bb2baf359b430317dde7,0.064,0.064,0,103,103,100,1,sevenfive,,,,,,,,,,,,,,,,,,,,,,,,,,,,,,,,,,,,,,,,,,,,,,,,,,,,,,,,,,,,,,,,,,,,,,,,,,,,,,,,,,,,,,,,,,,,,,,,,,,,,,,,,,,,,,,,,,,,,,,,,,,,,,,,,,,,,,,,,
,,648b962b8fdb1fa686213ac1,2024-02-18_23h22.06.888,kallum_motion_pilot,2023.2.2,Win32,60.0240096,648b962b8fdb1fa686213ac1,65d2b6c8f2eece985d8e374c,65d2bb2baf359b430317dde7,0.064,0.064,0,104,104,3,1,twofour,,,,,,,,,,,,,,,,,,,,,,,,,,,,,,,,,,,,,,,,,,,,,,,,,,,,,,,,,,,,,,,,,,,,,,,,,,,,,,,,,,,,,,,,,,,,,,,,,,,,,,,,,,,,,,,,,,,,,,,,,,,,,,,,,,,,,,,,,
,,648b962b8fdb1fa686213ac1,2024-02-18_23h22.06.888,kallum_motion_pilot,2023.2.2,Win32,60.0240096,648b962b8fdb1fa686213ac1,65d2b6c8f2eece985d8e374c,65d2bb2baf359b430317dde7,0.064,0.064,0,105,105,22,1,fourtwo,,,,,,,,,,,,,,,,,,,,,,,,,,,,,,,,,,,,,,,,,,,,,,,,,,,,,,,,,,,,,,,,,,,,,,,,,,,,,,,,,,,,,,,,,,,,,,,,,,,,,,,,,,,,,,,,,,,,,,,,,,,,,,,,,,,,,,,,,
,,648b962b8fdb1fa686213ac1,2024-02-18_23h22.06.888,kallum_motion_pilot,2023.2.2,Win32,60.0240096,648b962b8fdb1fa686213ac1,65d2b6c8f2eece985d8e374c,65d2bb2baf359b430317dde7,0.064,0.064,0,106,106,67,1,twofour,,,,,,,,,,,,,,,,,,,,,,,,,,,,,,,,,,,,,,,,,,,,,,,,,,,,,,,,,,,,,,,,,,,,,,,,,,,,,,,,,,,,,,,,,,,,,,,,,,,,,,,,,,,,,,,,,,,,,,,,,,,,,,,,,,,,,,,,,
,,648b962b8fdb1fa686213ac1,2024-02-18_23h22.06.888,kallum_motion_pilot,2023.2.2,Win32,60.0240096,648b962b8fdb1fa686213ac1,65d2b6c8f2eece985d8e374c,65d2bb2baf359b430317dde7,0.064,0.064,0,107,107,104,1,fivesix,,,,,,,,,,,,,,,,,,,,,,,,,,,,,,,,,,,,,,,,,,,,,,,,,,,,,,,,,,,,,,,,,,,,,,,,,,,,,,,,,,,,,,,,,,,,,,,,,,,,,,,,,,,,,,,,,,,,,,,,,,,,,,,,,,,,,,,,,
,,648b962b8fdb1fa686213ac1,2024-02-18_23h22.06.888,kallum_motion_pilot,2023.2.2,Win32,60.0240096,648b962b8fdb1fa686213ac1,65d2b6c8f2eece985d8e374c,65d2bb2baf359b430317dde7,0.064,0.064,0,108,108,141,1,seveneight,,,,,,,,,,,,,,,,,,,,,,,,,,,,,,,,,,,,,,,,,,,,,,,,,,,,,,,,,,,,,,,,,,,,,,,,,,,,,,,,,,,,,,,,,,,,,,,,,,,,,,,,,,,,,,,,,,,,,,,,,,,,,,,,,,,,,,,,,
,,648b962b8fdb1fa686213ac1,2024-02-18_23h22.06.888,kallum_motion_pilot,2023.2.2,Win32,60.0240096,648b962b8fdb1fa686213ac1,65d2b6c8f2eece985d8e374c,65d2bb2baf359b430317dde7,0.065,0.065,0,109,109,91,1,sixeight,,,,,,,,,,,,,,,,,,,,,,,,,,,,,,,,,,,,,,,,,,,,,,,,,,,,,,,,,,,,,,,,,,,,,,,,,,,,,,,,,,,,,,,,,,,,,,,,,,,,,,,,,,,,,,,,,,,,,,,,,,,,,,,,,,,,,,,,,
,,648b962b8fdb1fa686213ac1,2024-02-18_23h22.06.888,kallum_motion_pilot,2023.2.2,Win32,60.0240096,648b962b8fdb1fa686213ac1,65d2b6c8f2eece985d8e374c,65d2bb2baf359b430317dde7,0.065,0.065,0,110,110,112,1,fivesix,,,,,,,,,,,,,,,,,,,,,,,,,,,,,,,,,,,,,,,,,,,,,,,,,,,,,,,,,,,,,,,,,,,,,,,,,,,,,,,,,,,,,,,,,,,,,,,,,,,,,,,,,,,,,,,,,,,,,,,,,,,,,,,,,,,,,,,,,
,,648b962b8fdb1fa686213ac1,2024-02-18_23h22.06.888,kallum_motion_pilot,2023.2.2,Win32,60.0240096,648b962b8fdb1fa686213ac1,65d2b6c8f2eece985d8e374c,65d2bb2baf359b430317dde7,0.065,0.065,0,111,111,43,1,twofour,,,,,,,,,,,,,,,,,,,,,,,,,,,,,,,,,,,,,,,,,,,,,,,,,,,,,,,,,,,,,,,,,,,,,,,,,,,,,,,,,,,,,,,,,,,,,,,,,,,,,,,,,,,,,,,,,,,,,,,,,,,,,,,,,,,,,,,,,
,,648b962b8fdb1fa686213ac1,2024-02-18_23h22.06.888,kallum_motion_pilot,2023.2.2,Win32,60.0240096,648b962b8fdb1fa686213ac1,65d2b6c8f2eece985d8e374c,65d2bb2baf359b430317dde7,0.065,0.065,0,112,112,58,1,twoone,,,,,,,,,,,,,,,,,,,,,,,,,,,,,,,,,,,,,,,,,,,,,,,,,,,,,,,,,,,,,,,,,,,,,,,,,,,,,,,,,,,,,,,,,,,,,,,,,,,,,,,,,,,,,,,,,,,,,,,,,,,,,,,,,,,,,,,,,
,,648b962b8fdb1fa686213ac1,2024-02-18_23h22.06.888,kallum_motion_pilot,2023.2.2,Win32,60.0240096,648b962b8fdb1fa686213ac1,65d2b6c8f2eece985d8e374c,65d2bb2baf359b430317dde7,0.065,0.065,0,113,113,24,1,onetwo,,,,,,,,,,,,,,,,,,,,,,,,,,,,,,,,,,,,,,,,,,,,,,,,,,,,,,,,,,,,,,,,,,,,,,,,,,,,,,,,,,,,,,,,,,,,,,,,,,,,,,,,,,,,,,,,,,,,,,,,,,,,,,,,,,,,,,,,,
,,648b962b8fdb1fa686213ac1,2024-02-18_23h22.06.888,kallum_motion_pilot,2023.2.2,Win32,60.0240096,648b962b8fdb1fa686213ac1,65d2b6c8f2eece985d8e374c,65d2bb2baf359b430317dde7,0.065,0.065,0,114,114,115,1,sixeight,,,,,,,,,,,,,,,,,,,,,,,,,,,,,,,,,,,,,,,,,,,,,,,,,,,,,,,,,,,,,,,,,,,,,,,,,,,,,,,,,,,,,,,,,,,,,,,,,,,,,,,,,,,,,,,,,,,,,,,,,,,,,,,,,,,,,,,,,
,,648b962b8fdb1fa686213ac1,2024-02-18_23h22.06.888,kallum_motion_pilot,2023.2.2,Win32,60.0240096,648b962b8fdb1fa686213ac1,65d2b6c8f2eece985d8e374c,65d2bb2baf359b430317dde7,0.065,0.065,0,115,115,118,1,eightsix,,,,,,,,,,,,,,,,,,,,,,,,,,,,,,,,,,,,,,,,,,,,,,,,,,,,,,,,,,,,,,,,,,,,,,,,,,,,,,,,,,,,,,,,,,,,,,,,,,,,,,,,,,,,,,,,,,,,,,,,,,,,,,,,,,,,,,,,,
,,648b962b8fdb1fa686213ac1,2024-02-18_23h22.06.888,kallum_motion_pilot,2023.2.2,Win32,60.0240096,648b962b8fdb1fa686213ac1,65d2b6c8f2eece985d8e374c,65d2bb2baf359b430317dde7,0.066,0.066,0,116,116,42,1,twoone,,,,,,,,,,,,,,,,,,,,,,,,,,,,,,,,,,,,,,,,,,,,,,,,,,,,,,,,,,,,,,,,,,,,,,,,,,,,,,,,,,,,,,,,,,,,,,,,,,,,,,,,,,,,,,,,,,,,,,,,,,,,,,,,,,,,,,,,,
,,648b962b8fdb1fa686213ac1,2024-02-18_23h22.06.888,kallum_motion_pilot,2023.2.2,Win32,60.0240096,648b962b8fdb1fa686213ac1,65d2b6c8f2eece985d8e374c,65d2bb2baf359b430317dde7,0.066,0.066,0,117,117,83,1,sixeight,,,,,,,,,,,,,,,,,,,,,,,,,,,,,,,,,,,,,,,,,,,,,,,,,,,,,,,,,,,,,,,,,,,,,,,,,,,,,,,,,,,,,,,,,,,,,,,,,,,,,,,,,,,,,,,,,,,,,,,,,,,,,,,,,,,,,,,,,
,,648b962b8fdb1fa686213ac1,2024-02-18_23h22.06.888,kallum_motion_pilot,2023.2.2,Win32,60.0240096,648b962b8fdb1fa686213ac1,65d2b6c8f2eece985d8e374c,65d2bb2baf359b430317dde7,0.067,0.067,0,118,118,90,1,sixfive,,,,,,,,,,,,,,,,,,,,,,,,,,,,,,,,,,,,,,,,,,,,,,,,,,,,,,,,,,,,,,,,,,,,,,,,,,,,,,,,,,,,,,,,,,,,,,,,,,,,,,,,,,,,,,,,,,,,,,,,,,,,,,,,,,,,,,,,,
,,648b962b8fdb1fa686213ac1,2024-02-18_23h22.06.888,kallum_motion_pilot,2023.2.2,Win32,60.0240096,648b962b8fdb1fa686213ac1,65d2b6c8f2eece985d8e374c,65d2bb2baf359b430317dde7,0.067,0.067,0,119,119,11,1,twofour,,,,,,,,,,,,,,,,,,,,,,,,,,,,,,,,,,,,,,,,,,,,,,,,,,,,,,,,,,,,,,,,,,,,,,,,,,,,,,,,,,,,,,,,,,,,,,,,,,,,,,,,,,,,,,,,,,,,,,,,,,,,,,,,,,,,,,,,,
,,648b962b8fdb1fa686213ac1,2024-02-18_23h22.06.888,kallum_motion_pilot,2023.2.2,Win32,60.0240096,648b962b8fdb1fa686213ac1,65d2b6c8f2eece985d8e374c,65d2bb2baf359b430317dde7,0.067,0.067,0,120,120,134,1,eightsix,,,,,,,,,,,,,,,,,,,,,,,,,,,,,,,,,,,,,,,,,,,,,,,,,,,,,,,,,,,,,,,,,,,,,,,,,,,,,,,,,,,,,,,,,,,,,,,,,,,,,,,,,,,,,,,,,,,,,,,,,,,,,,,,,,,,,,,,,
,,648b962b8fdb1fa686213ac1,2024-02-18_23h22.06.888,kallum_motion_pilot,2023.2.2,Win32,60.0240096,648b962b8fdb1fa686213ac1,65d2b6c8f2eece985d8e374c,65d2bb2baf359b430317dde7,0.067,0.067,0,121,121,119,1,eightseven,,,,,,,,,,,,,,,,,,,,,,,,,,,,,,,,,,,,,,,,,,,,,,,,,,,,,,,,,,,,,,,,,,,,,,,,,,,,,,,,,,,,,,,,,,,,,,,,,,,,,,,,,,,,,,,,,,,,,,,,,,,,,,,,,,,,,,,,,
,,648b962b8fdb1fa686213ac1,2024-02-18_23h22.06.888,kallum_motion_pilot,2023.2.2,Win32,60.0240096,648b962b8fdb1fa686213ac1,65d2b6c8f2eece985d8e374c,65d2bb2baf359b430317dde7,0.067,0.067,0,122,122,150,1,eightsix,,,,,,,,,,,,,,,,,,,,,,,,,,,,,,,,,,,,,,,,,,,,,,,,,,,,,,,,,,,,,,,,,,,,,,,,,,,,,,,,,,,,,,,,,,,,,,,,,,,,,,,,,,,,,,,,,,,,,,,,,,,,,,,,,,,,,,,,,
,,648b962b8fdb1fa686213ac1,2024-02-18_23h22.06.888,kallum_motion_pilot,2023.2.2,Win32,60.0240096,648b962b8fdb1fa686213ac1,65d2b6c8f2eece985d8e374c,65d2bb2baf359b430317dde7,0.067,0.067,0,123,123,121,1,fiveseven,,,,,,,,,,,,,,,,,,,,,,,,,,,,,,,,,,,,,,,,,,,,,,,,,,,,,,,,,,,,,,,,,,,,,,,,,,,,,,,,,,,,,,,,,,,,,,,,,,,,,,,,,,,,,,,,,,,,,,,,,,,,,,,,,,,,,,,,,
,,648b962b8fdb1fa686213ac1,2024-02-18_23h22.06.888,kallum_motion_pilot,2023.2.2,Win32,60.0240096,648b962b8fdb1fa686213ac1,65d2b6c8f2eece985d8e374c,65d2bb2baf359b430317dde7,0.068,0.068,0,124,124,8,1,onetwo,,,,,,,,,,,,,,,,,,,,,,,,,,,,,,,,,,,,,,,,,,,,,,,,,,,,,,,,,,,,,,,,,,,,,,,,,,,,,,,,,,,,,,,,,,,,,,,,,,,,,,,,,,,,,,,,,,,,,,,,,,,,,,,,,,,,,,,,,
,,648b962b8fdb1fa686213ac1,2024-02-18_23h22.06.888,kallum_motion_pilot,2023.2.2,Win32,60.0240096,648b962b8fdb1fa686213ac1,65d2b6c8f2eece985d8e374c,65d2bb2baf359b430317dde7,0.068,0.068,0,125,125,153,1,fiveseven,,,,,,,,,,,,,,,,,,,,,,,,,,,,,,,,,,,,,,,,,,,,,,,,,,,,,,,,,,,,,,,,,,,,,,,,,,,,,,,,,,,,,,,,,,,,,,,,,,,,,,,,,,,,,,,,,,,,,,,,,,,,,,,,,,,,,,,,,
,,648b962b8fdb1fa686213ac1,2024-02-18_23h22.06.888,kallum_motion_pilot,2023.2.2,Win32,60.0240096,648b962b8fdb1fa686213ac1,65d2b6c8f2eece985d8e374c,65d2bb2baf359b430317dde7,0.068,0.068,0,126,126,64,1,onetwo,,,,,,,,,,,,,,,,,,,,,,,,,,,,,,,,,,,,,,,,,,,,,,,,,,,,,,,,,,,,,,,,,,,,,,,,,,,,,,,,,,,,,,,,,,,,,,,,,,,,,,,,,,,,,,,,,,,,,,,,,,,,,,,,,,,,,,,,,
,,648b962b8fdb1fa686213ac1,2024-02-18_23h22.06.888,kallum_motion_pilot,2023.2.2,Win32,60.0240096,648b962b8fdb1fa686213ac1,65d2b6c8f2eece985d8e374c,65d2bb2baf359b430317dde7,0.068,0.068,0,127,127,16,1,onetwo,,,,,,,,,,,,,,,,,,,,,,,,,,,,,,,,,,,,,,,,,,,,,,,,,,,,,,,,,,,,,,,,,,,,,,,,,,,,,,,,,,,,,,,,,,,,,,,,,,,,,,,,,,,,,,,,,,,,,,,,,,,,,,,,,,,,,,,,,
,,648b962b8fdb1fa686213ac1,2024-02-18_23h22.06.888,kallum_motion_pilot,2023.2.2,Win32,60.0240096,648b962b8fdb1fa686213ac1,65d2b6c8f2eece985d8e374c,65d2bb2baf359b430317dde7,0.068,0.068,0,128,128,2,1,twoone,,,,,,,,,,,,,,,,,,,,,,,,,,,,,,,,,,,,,,,,,,,,,,,,,,,,,,,,,,,,,,,,,,,,,,,,,,,,,,,,,,,,,,,,,,,,,,,,,,,,,,,,,,,,,,,,,,,,,,,,,,,,,,,,,,,,,,,,,
,,648b962b8fdb1fa686213ac1,2024-02-18_23h22.06.888,kallum_motion_pilot,2023.2.2,Win32,60.0240096,648b962b8fdb1fa686213ac1,65d2b6c8f2eece985d8e374c,65d2bb2baf359b430317dde7,0.068,0.068,0,129,129,73,1,onethree,,,,,,,,,,,,,,,,,,,,,,,,,,,,,,,,,,,,,,,,,,,,,,,,,,,,,,,,,,,,,,,,,,,,,,,,,,,,,,,,,,,,,,,,,,,,,,,,,,,,,,,,,,,,,,,,,,,,,,,,,,,,,,,,,,,,,,,,,
,,648b962b8fdb1fa686213ac1,2024-02-18_23h22.06.888,kallum_motion_pilot,2023.2.2,Win32,60.0240096,648b962b8fdb1fa686213ac1,65d2b6c8f2eece985d8e374c,65d2bb2baf359b430317dde7,0.068,0.068,0,130,130,140,1,sevenfive,,,,,,,,,,,,,,,,,,,,,,,,,,,,,,,,,,,,,,,,,,,,,,,,,,,,,,,,,,,,,,,,,,,,,,,,,,,,,,,,,,,,,,,,,,,,,,,,,,,,,,,,,,,,,,,,,,,,,,,,,,,,,,,,,,,,,,,,,
,,648b962b8fdb1fa686213ac1,2024-02-18_23h22.06.888,kallum_motion_pilot,2023.2.2,Win32,60.0240096,648b962b8fdb1fa686213ac1,65d2b6c8f2eece985d8e374c,65d2bb2baf359b430317dde7,0.069,0.069,0,131,131,9,1,onethree,,,,,,,,,,,,,,,,,,,,,,,,,,,,,,,,,,,,,,,,,,,,,,,,,,,,,,,,,,,,,,,,,,,,,,,,,,,,,,,,,,,,,,,,,,,,,,,,,,,,,,,,,,,,,,,,,,,,,,,,,,,,,,,,,,,,,,,,,
,,648b962b8fdb1fa686213ac1,2024-02-18_23h22.06.888,kallum_motion_pilot,2023.2.2,Win32,60.0240096,648b962b8fdb1fa686213ac1,65d2b6c8f2eece985d8e374c,65d2bb2baf359b430317dde7,0.069,0.069,0,132,132,69,1,threefour,,,,,,,,,,,,,,,,,,,,,,,,,,,,,,,,,,,,,,,,,,,,,,,,,,,,,,,,,,,,,,,,,,,,,,,,,,,,,,,,,,,,,,,,,,,,,,,,,,,,,,,,,,,,,,,,,,,,,,,,,,,,,,,,,,,,,,,,,
,,648b962b8fdb1fa686213ac1,2024-02-18_23h22.06.888,kallum_motion_pilot,2023.2.2,Win32,60.0240096,648b962b8fdb1fa686213ac1,65d2b6c8f2eece985d8e374c,65d2bb2baf359b430317dde7,0.069,0.069,0,133,133,125,1,seveneight,,,,,,,,,,,,,,,,,,,,,,,,,,,,,,,,,,,,,,,,,,,,,,,,,,,,,,,,,,,,,,,,,,,,,,,,,,,,,,,,,,,,,,,,,,,,,,,,,,,,,,,,,,,,,,,,,,,,,,,,,,,,,,,,,,,,,,,,,
,,648b962b8fdb1fa686213ac1,2024-02-18_23h22.06.888,kallum_motion_pilot,2023.2.2,Win32,60.0240096,648b962b8fdb1fa686213ac1,65d2b6c8f2eece985d8e374c,65d2bb2baf359b430317dde7,0.069,0.069,0,134,134,25,1,onethree,,,,,,,,,,,,,,,,,,,,,,,,,,,,,,,,,,,,,,,,,,,,,,,,,,,,,,,,,,,,,,,,,,,,,,,,,,,,,,,,,,,,,,,,,,,,,,,,,,,,,,,,,,,,,,,,,,,,,,,,,,,,,,,,,,,,,,,,,
,,648b962b8fdb1fa686213ac1,2024-02-18_23h22.06.888,kallum_motion_pilot,2023.2.2,Win32,60.0240096,648b962b8fdb1fa686213ac1,65d2b6c8f2eece985d8e374c,65d2bb2baf359b430317dde7,0.069,0.069,0,135,135,109,1,seveneight,,,,,,,,,,,,,,,,,,,,,,,,,,,,,,,,,,,,,,,,,,,,,,,,,,,,,,,,,,,,,,,,,,,,,,,,,,,,,,,,,,,,,,,,,,,,,,,,,,,,,,,,,,,,,,,,,,,,,,,,,,,,,,,,,,,,,,,,,
,,648b962b8fdb1fa686213ac1,2024-02-18_23h22.06.888,kallum_motion_pilot,2023.2.2,Win32,60.0240096,648b962b8fdb1fa686213ac1,65d2b6c8f2eece985d8e374c,65d2bb2baf359b430317dde7,0.069,0.069,0,136,136,94,1,eightsix,,,,,,,,,,,,,,,,,,,,,,,,,,,,,,,,,,,,,,,,,,,,,,,,,,,,,,,,,,,,,,,,,,,,,,,,,,,,,,,,,,,,,,,,,,,,,,,,,,,,,,,,,,,,,,,,,,,,,,,,,,,,,,,,,,,,,,,,,
,,648b962b8fdb1fa686213ac1,2024-02-18_23h22.06.888,kallum_motion_pilot,2023.2.2,Win32,60.0240096,648b962b8fdb1fa686213ac1,65d2b6c8f2eece985d8e374c,65d2bb2baf359b430317dde7,0.069,0.069,0,137,137,20,1,threeone,,,,,,,,,,,,,,,,,,,,,,,,,,,,,,,,,,,,,,,,,,,,,,,,,,,,,,,,,,,,,,,,,,,,,,,,,,,,,,,,,,,,,,,,,,,,,,,,,,,,,,,,,,,,,,,,,,,,,,,,,,,,,,,,,,,,,,,,,
,,648b962b8fdb1fa686213ac1,2024-02-18_23h22.06.888,kallum_motion_pilot,2023.2.2,Win32,60.0240096,648b962b8fdb1fa686213ac1,65d2b6c8f2eece985d8e374c,65d2bb2baf359b430317dde7,0.07,0.07,0,138,138,92,1,sevenfive,,,,,,,,,,,,,,,,,,,,,,,,,,,,,,,,,,,,,,,,,,,,,,,,,,,,,,,,,,,,,,,,,,,,,,,,,,,,,,,,,,,,,,,,,,,,,,,,,,,,,,,,,,,,,,,,,,,,,,,,,,,,,,,,,,,,,,,,,
,,648b962b8fdb1fa686213ac1,2024-02-18_23h22.06.888,kallum_motion_pilot,2023.2.2,Win32,60.0240096,648b962b8fdb1fa686213ac1,65d2b6c8f2eece985d8e374c,65d2bb2baf359b430317dde7,0.07,0.07,0,139,139,77,1,threefour,,,,,,,,,,,,,,,,,,,,,,,,,,,,,,,,,,,,,,,,,,,,,,,,,,,,,,,,,,,,,,,,,,,,,,,,,,,,,,,,,,,,,,,,,,,,,,,,,,,,,,,,,,,,,,,,,,,,,,,,,,,,,,,,,,,,,,,,,
,,648b962b8fdb1fa686213ac1,2024-02-18_23h22.06.888,kallum_motion_pilot,2023.2.2,Win32,60.0240096,648b962b8fdb1fa686213ac1,65d2b6c8f2eece985d8e374c,65d2bb2baf359b430317dde7,0.07,0.07,0,140,140,154,1,sixfive,,,,,,,,,,,,,,,,,,,,,,,,,,,,,,,,,,,,,,,,,,,,,,,,,,,,,,,,,,,,,,,,,,,,,,,,,,,,,,,,,,,,,,,,,,,,,,,,,,,,,,,,,,,,,,,,,,,,,,,,,,,,,,,,,,,,,,,,,
,,648b962b8fdb1fa686213ac1,2024-02-18_23h22.06.888,kallum_motion_pilot,2023.2.2,Win32,60.0240096,648b962b8fdb1fa686213ac1,65d2b6c8f2eece985d8e374c,65d2bb2baf359b430317dde7,0.07,0.07,0,141,141,13,1,threefour,,,,,,,,,,,,,,,,,,,,,,,,,,,,,,,,,,,,,,,,,,,,,,,,,,,,,,,,,,,,,,,,,,,,,,,,,,,,,,,,,,,,,,,,,,,,,,,,,,,,,,,,,,,,,,,,,,,,,,,,,,,,,,,,,,,,,,,,,
,,648b962b8fdb1fa686213ac1,2024-02-18_23h22.06.888,kallum_motion_pilot,2023.2.2,Win32,60.0240096,648b962b8fdb1fa686213ac1,65d2b6c8f2eece985d8e374c,65d2bb2baf359b430317dde7,0.07,0.07,0,142,142,74,1,twoone,,,,,,,,,,,,,,,,,,,,,,,,,,,,,,,,,,,,,,,,,,,,,,,,,,,,,,,,,,,,,,,,,,,,,,,,,,,,,,,,,,,,,,,,,,,,,,,,,,,,,,,,,,,,,,,,,,,,,,,,,,,,,,,,,,,,,,,,,
,,648b962b8fdb1fa686213ac1,2024-02-18_23h22.06.888,kallum_motion_pilot,2023.2.2,Win32,60.0240096,648b962b8fdb1fa686213ac1,65d2b6c8f2eece985d8e374c,65d2bb2baf359b430317dde7,0.07,0.07,0,143,143,116,1,sevenfive,,,,,,,,,,,,,,,,,,,,,,,,,,,,,,,,,,,,,,,,,,,,,,,,,,,,,,,,,,,,,,,,,,,,,,,,,,,,,,,,,,,,,,,,,,,,,,,,,,,,,,,,,,,,,,,,,,,,,,,,,,,,,,,,,,,,,,,,,
,,648b962b8fdb1fa686213ac1,2024-02-18_23h22.06.888,kallum_motion_pilot,2023.2.2,Win32,60.0240096,648b962b8fdb1fa686213ac1,65d2b6c8f2eece985d8e374c,65d2bb2baf359b430317dde7,0.07,0.071,0,144,144,62,1,fourtwo,,,,,,,,,,,,,,,,,,,,,,,,,,,,,,,,,,,,,,,,,,,,,,,,,,,,,,,,,,,,,,,,,,,,,,,,,,,,,,,,,,,,,,,,,,,,,,,,,,,,,,,,,,,,,,,,,,,,,,,,,,,,,,,,,,,,,,,,,
,,648b962b8fdb1fa686213ac1,2024-02-18_23h22.06.888,kallum_motion_pilot,2023.2.2,Win32,60.0240096,648b962b8fdb1fa686213ac1,65d2b6c8f2eece985d8e374c,65d2bb2baf359b430317dde7,0.071,0.071,0,145,145,127,1,eightseven,,,,,,,,,,,,,,,,,,,,,,,,,,,,,,,,,,,,,,,,,,,,,,,,,,,,,,,,,,,,,,,,,,,,,,,,,,,,,,,,,,,,,,,,,,,,,,,,,,,,,,,,,,,,,,,,,,,,,,,,,,,,,,,,,,,,,,,,,
,,648b962b8fdb1fa686213ac1,2024-02-18_23h22.06.888,kallum_motion_pilot,2023.2.2,Win32,60.0240096,648b962b8fdb1fa686213ac1,65d2b6c8f2eece985d8e374c,65d2bb2baf359b430317dde7,0.071,0.071,0,146,146,29,1,threefour,,,,,,,,,,,,,,,,,,,,,,,,,,,,,,,,,,,,,,,,,,,,,,,,,,,,,,,,,,,,,,,,,,,,,,,,,,,,,,,,,,,,,,,,,,,,,,,,,,,,,,,,,,,,,,,,,,,,,,,,,,,,,,,,,,,,,,,,,
,,648b962b8fdb1fa686213ac1,2024-02-18_23h22.06.888,kallum_motion_pilot,2023.2.2,Win32,60.0240096,648b962b8fdb1fa686213ac1,65d2b6c8f2eece985d8e374c,65d2bb2baf359b430317dde7,0.071,0.071,0,147,147,129,1,fiveseven,,,,,,,,,,,,,,,,,,,,,,,,,,,,,,,,,,,,,,,,,,,,,,,,,,,,,,,,,,,,,,,,,,,,,,,,,,,,,,,,,,,,,,,,,,,,,,,,,,,,,,,,,,,,,,,,,,,,,,,,,,,,,,,,,,,,,,,,,
,,648b962b8fdb1fa686213ac1,2024-02-18_23h22.06.888,kallum_motion_pilot,2023.2.2,Win32,60.0240096,648b962b8fdb1fa686213ac1,65d2b6c8f2eece985d8e374c,65d2bb2baf359b430317dde7,0.071,0.071,0,148,148,80,1,fivesix,,,,,,,,,,,,,,,,,,,,,,,,,,,,,,,,,,,,,,,,,,,,,,,,,,,,,,,,,,,,,,,,,,,,,,,,,,,,,,,,,,,,,,,,,,,,,,,,,,,,,,,,,,,,,,,,,,,,,,,,,,,,,,,,,,,,,,,,,
,,648b962b8fdb1fa686213ac1,2024-02-18_23h22.06.888,kallum_motion_pilot,2023.2.2,Win32,60.0240096,648b962b8fdb1fa686213ac1,65d2b6c8f2eece985d8e374c,65d2bb2baf359b430317dde7,0.071,0.071,0,149,149,21,1,threefour,,,,,,,,,,,,,,,,,,,,,,,,,,,,,,,,,,,,,,,,,,,,,,,,,,,,,,,,,,,,,,,,,,,,,,,,,,,,,,,,,,,,,,,,,,,,,,,,,,,,,,,,,,,,,,,,,,,,,,,,,,,,,,,,,,,,,,,,,
,,648b962b8fdb1fa686213ac1,2024-02-18_23h22.06.888,kallum_motion_pilot,2023.2.2,Win32,60.0240096,648b962b8fdb1fa686213ac1,65d2b6c8f2eece985d8e374c,65d2bb2baf359b430317dde7,0.071,0.071,0,150,150,10,1,twoone,,,,,,,,,,,,,,,,,,,,,,,,,,,,,,,,,,,,,,,,,,,,,,,,,,,,,,,,,,,,,,,,,,,,,,,,,,,,,,,,,,,,,,,,,,,,,,,,,,,,,,,,,,,,,,,,,,,,,,,,,,,,,,,,,,,,,,,,,
,,648b962b8fdb1fa686213ac1,2024-02-18_23h22.06.888,kallum_motion_pilot,2023.2.2,Win32,60.0240096,648b962b8fdb1fa686213ac1,65d2b6c8f2eece985d8e374c,65d2bb2baf359b430317dde7,0.071,0.071,0,151,151,72,1,onetwo,,,,,,,,,,,,,,,,,,,,,,,,,,,,,,,,,,,,,,,,,,,,,,,,,,,,,,,,,,,,,,,,,,,,,,,,,,,,,,,,,,,,,,,,,,,,,,,,,,,,,,,,,,,,,,,,,,,,,,,,,,,,,,,,,,,,,,,,,
,,648b962b8fdb1fa686213ac1,2024-02-18_23h22.06.888,kallum_motion_pilot,2023.2.2,Win32,60.0240096,648b962b8fdb1fa686213ac1,65d2b6c8f2eece985d8e374c,65d2bb2baf359b430317dde7,0.071,0.071,0,152,152,135,1,eightseven,,,,,,,,,,,,,,,,,,,,,,,,,,,,,,,,,,,,,,,,,,,,,,,,,,,,,,,,,,,,,,,,,,,,,,,,,,,,,,,,,,,,,,,,,,,,,,,,,,,,,,,,,,,,,,,,,,,,,,,,,,,,,,,,,,,,,,,,,
,,648b962b8fdb1fa686213ac1,2024-02-18_23h22.06.888,kallum_motion_pilot,2023.2.2,Win32,60.0240096,648b962b8fdb1fa686213ac1,65d2b6c8f2eece985d8e374c,65d2bb2baf359b430317dde7,0.071,0.071,0,153,153,35,1,twofour,,,,,,,,,,,,,,,,,,,,,,,,,,,,,,,,,,,,,,,,,,,,,,,,,,,,,,,,,,,,,,,,,,,,,,,,,,,,,,,,,,,,,,,,,,,,,,,,,,,,,,,,,,,,,,,,,,,,,,,,,,,,,,,,,,,,,,,,,
,,648b962b8fdb1fa686213ac1,2024-02-18_23h22.06.888,kallum_motion_pilot,2023.2.2,Win32,60.0240096,648b962b8fdb1fa686213ac1,65d2b6c8f2eece985d8e374c,65d2bb2baf359b430317dde7,0.071,0.071,0,154,154,114,1,sixfive,,,,,,,,,,,,,,,,,,,,,,,,,,,,,,,,,,,,,,,,,,,,,,,,,,,,,,,,,,,,,,,,,,,,,,,,,,,,,,,,,,,,,,,,,,,,,,,,,,,,,,,,,,,,,,,,,,,,,,,,,,,,,,,,,,,,,,,,,
,,648b962b8fdb1fa686213ac1,2024-02-18_23h22.06.888,kallum_motion_pilot,2023.2.2,Win32,60.0240096,648b962b8fdb1fa686213ac1,65d2b6c8f2eece985d8e374c,65d2bb2baf359b430317dde7,0.072,0.072,0,155,155,54,1,fourtwo,,,,,,,,,,,,,,,,,,,,,,,,,,,,,,,,,,,,,,,,,,,,,,,,,,,,,,,,,,,,,,,,,,,,,,,,,,,,,,,,,,,,,,,,,,,,,,,,,,,,,,,,,,,,,,,,,,,,,,,,,,,,,,,,,,,,,,,,,
,,648b962b8fdb1fa686213ac1,2024-02-18_23h22.06.888,kallum_motion_pilot,2023.2.2,Win32,60.0240096,648b962b8fdb1fa686213ac1,65d2b6c8f2eece985d8e374c,65d2bb2baf359b430317dde7,0.072,0.072,0,156,156,75,1,twofour,,,,,,,,,,,,,,,,,,,,,,,,,,,,,,,,,,,,,,,,,,,,,,,,,,,,,,,,,,,,,,,,,,,,,,,,,,,,,,,,,,,,,,,,,,,,,,,,,,,,,,,,,,,,,,,,,,,,,,,,,,,,,,,,,,,,,,,,,
,,648b962b8fdb1fa686213ac1,2024-02-18_23h22.06.888,kallum_motion_pilot,2023.2.2,Win32,60.0240096,648b962b8fdb1fa686213ac1,65d2b6c8f2eece985d8e374c,65d2bb2baf359b430317dde7,0.072,0.072,0,157,157,145,1,fiveseven,,,,,,,,,,,,,,,,,,,,,,,,,,,,,,,,,,,,,,,,,,,,,,,,,,,,,,,,,,,,,,,,,,,,,,,,,,,,,,,,,,,,,,,,,,,,,,,,,,,,,,,,,,,,,,,,,,,,,,,,,,,,,,,,,,,,,,,,,
,,648b962b8fdb1fa686213ac1,2024-02-18_23h22.06.888,kallum_motion_pilot,2023.2.2,Win32,60.0240096,648b962b8fdb1fa686213ac1,65d2b6c8f2eece985d8e374c,65d2bb2baf359b430317dde7,0.072,0.072,0,158,158,68,1,threeone,,,,,,,,,,,,,,,,,,,,,,,,,,,,,,,,,,,,,,,,,,,,,,,,,,,,,,,,,,,,,,,,,,,,,,,,,,,,,,,,,,,,,,,,,,,,,,,,,,,,,,,,,,,,,,,,,,,,,,,,,,,,,,,,,,,,,,,,,
,,648b962b8fdb1fa686213ac1,2024-02-18_23h22.06.888,kallum_motion_pilot,2023.2.2,Win32,60.0240096,648b962b8fdb1fa686213ac1,65d2b6c8f2eece985d8e374c,65d2bb2baf359b430317dde7,0.072,0.072,0,159,159,46,1,fourtwo,,,,,,,,,,,,,,,,,,,,,,,,,,,,,,,,,,,,,,,,,,,,,,,,,,,,,,,,,,,,,,,,,,,,,,,,,,,,,,,,,,,,,,,,,,,,,,,,,,,,,,,,,,,,,,,,,,,,,,,,,,,,,,,,,,,,,,,,,
,,648b962b8fdb1fa686213ac1,2024-02-18_23h22.06.888,kallum_motion_pilot,2023.2.2,Win32,60.0240096,648b962b8fdb1fa686213ac1,65d2b6c8f2eece985d8e374c,65d2bb2baf359b430317dde7,0.072,0.072,0,160,160,81,1,fiveseven,,,,,,,,,,,,,,,,,,,,,,,,,,,,,,,,,,,,,,,,,,,,,,,,,,,,,,,,,,,,,,,,,,,,,,,,,,,,,,,,,,,,,,,,,,,,,,,,,,,,,,,,,,,,,,,,,,,,,,,,,,,,,,,,,,,,,,,,,
,,648b962b8fdb1fa686213ac1,2024-02-18_23h22.06.888,kallum_motion_pilot,2023.2.2,Win32,60.0240096,648b962b8fdb1fa686213ac1,65d2b6c8f2eece985d8e374c,65d2bb2baf359b430317dde7,0.072,0.073,0,161,161,84,1,sevenfive,,,,,,,,,,,,,,,,,,,,,,,,,,,,,,,,,,,,,,,,,,,,,,,,,,,,,,,,,,,,,,,,,,,,,,,,,,,,,,,,,,,,,,,,,,,,,,,,,,,,,,,,,,,,,,,,,,,,,,,,,,,,,,,,,,,,,,,,,
,,648b962b8fdb1fa686213ac1,2024-02-18_23h22.06.888,kallum_motion_pilot,2023.2.2,Win32,60.0240096,648b962b8fdb1fa686213ac1,65d2b6c8f2eece985d8e374c,65d2bb2baf359b430317dde7,0.073,0.073,1,0,162,125,1,seveneight,,,,,,,,,,,,,,,,,,,,,,,,,,,,,,,,,,,,,,,,,,,,,,,,,,,,,,,,,,,,,,,,,,,,,,,,,,,,,,,,,,,,,,,,,,,,,,,,,,,,,,,,,,,,,,,,,,,,,,,,,,,,,,,,,,,,,,,,,
,,648b962b8fdb1fa686213ac1,2024-02-18_23h22.06.888,kallum_motion_pilot,2023.2.2,Win32,60.0240096,648b962b8fdb1fa686213ac1,65d2b6c8f2eece985d8e374c,65d2bb2baf359b430317dde7,0.073,0.073,1,1,163,65,1,onethree,,,,,,,,,,,,,,,,,,,,,,,,,,,,,,,,,,,,,,,,,,,,,,,,,,,,,,,,,,,,,,,,,,,,,,,,,,,,,,,,,,,,,,,,,,,,,,,,,,,,,,,,,,,,,,,,,,,,,,,,,,,,,,,,,,,,,,,,,
,,648b962b8fdb1fa686213ac1,2024-02-18_23h22.06.888,kallum_motion_pilot,2023.2.2,Win32,60.0240096,648b962b8fdb1fa686213ac1,65d2b6c8f2eece985d8e374c,65d2bb2baf359b430317dde7,0.073,0.073,1,2,164,1,1,onethree,,,,,,,,,,,,,,,,,,,,,,,,,,,,,,,,,,,,,,,,,,,,,,,,,,,,,,,,,,,,,,,,,,,,,,,,,,,,,,,,,,,,,,,,,,,,,,,,,,,,,,,,,,,,,,,,,,,,,,,,,,,,,,,,,,,,,,,,,
,,648b962b8fdb1fa686213ac1,2024-02-18_23h22.06.888,kallum_motion_pilot,2023.2.2,Win32,60.0240096,648b962b8fdb1fa686213ac1,65d2b6c8f2eece985d8e374c,65d2bb2baf359b430317dde7,0.073,0.073,1,3,165,11,1,twofour,,,,,,,,,,,,,,,,,,,,,,,,,,,,,,,,,,,,,,,,,,,,,,,,,,,,,,,,,,,,,,,,,,,,,,,,,,,,,,,,,,,,,,,,,,,,,,,,,,,,,,,,,,,,,,,,,,,,,,,,,,,,,,,,,,,,,,,,,
,,648b962b8fdb1fa686213ac1,2024-02-18_23h22.06.888,kallum_motion_pilot,2023.2.2,Win32,60.0240096,648b962b8fdb1fa686213ac1,65d2b6c8f2eece985d8e374c,65d2bb2baf359b430317dde7,0.073,0.073,1,4,166,150,1,eightsix,,,,,,,,,,,,,,,,,,,,,,,,,,,,,,,,,,,,,,,,,,,,,,,,,,,,,,,,,,,,,,,,,,,,,,,,,,,,,,,,,,,,,,,,,,,,,,,,,,,,,,,,,,,,,,,,,,,,,,,,,,,,,,,,,,,,,,,,,
,,648b962b8fdb1fa686213ac1,2024-02-18_23h22.06.888,kallum_motion_pilot,2023.2.2,Win32,60.0240096,648b962b8fdb1fa686213ac1,65d2b6c8f2eece985d8e374c,65d2bb2baf359b430317dde7,0.073,0.073,1,5,167,131,1,sixeight,,,,,,,,,,,,,,,,,,,,,,,,,,,,,,,,,,,,,,,,,,,,,,,,,,,,,,,,,,,,,,,,,,,,,,,,,,,,,,,,,,,,,,,,,,,,,,,,,,,,,,,,,,,,,,,,,,,,,,,,,,,,,,,,,,,,,,,,,
,,648b962b8fdb1fa686213ac1,2024-02-18_23h22.06.888,kallum_motion_pilot,2023.2.2,Win32,60.0240096,648b962b8fdb1fa686213ac1,65d2b6c8f2eece985d8e374c,65d2bb2baf359b430317dde7,0.074,0.074,1,6,168,138,1,sixfive,,,,,,,,,,,,,,,,,,,,,,,,,,,,,,,,,,,,,,,,,,,,,,,,,,,,,,,,,,,,,,,,,,,,,,,,,,,,,,,,,,,,,,,,,,,,,,,,,,,,,,,,,,,,,,,,,,,,,,,,,,,,,,,,,,,,,,,,,
,,648b962b8fdb1fa686213ac1,2024-02-18_23h22.06.888,kallum_motion_pilot,2023.2.2,Win32,60.0240096,648b962b8fdb1fa686213ac1,65d2b6c8f2eece985d8e374c,65d2bb2baf359b430317dde7,0.074,0.074,1,7,169,5,1,threefour,,,,,,,,,,,,,,,,,,,,,,,,,,,,,,,,,,,,,,,,,,,,,,,,,,,,,,,,,,,,,,,,,,,,,,,,,,,,,,,,,,,,,,,,,,,,,,,,,,,,,,,,,,,,,,,,,,,,,,,,,,,,,,,,,,,,,,,,,
,,648b962b8fdb1fa686213ac1,2024-02-18_23h22.06.888,kallum_motion_pilot,2023.2.2,Win32,60.0240096,648b962b8fdb1fa686213ac1,65d2b6c8f2eece985d8e374c,65d2bb2baf359b430317dde7,0.074,0.074,1,8,170,115,1,sixeight,,,,,,,,,,,,,,,,,,,,,,,,,,,,,,,,,,,,,,,,,,,,,,,,,,,,,,,,,,,,,,,,,,,,,,,,,,,,,,,,,,,,,,,,,,,,,,,,,,,,,,,,,,,,,,,,,,,,,,,,,,,,,,,,,,,,,,,,,
,,648b962b8fdb1fa686213ac1,2024-02-18_23h22.06.888,kallum_motion_pilot,2023.2.2,Win32,60.0240096,648b962b8fdb1fa686213ac1,65d2b6c8f2eece985d8e374c,65d2bb2baf359b430317dde7,0.074,0.074,1,9,171,102,1,eightsix,,,,,,,,,,,,,,,,,,,,,,,,,,,,,,,,,,,,,,,,,,,,,,,,,,,,,,,,,,,,,,,,,,,,,,,,,,,,,,,,,,,,,,,,,,,,,,,,,,,,,,,,,,,,,,,,,,,,,,,,,,,,,,,,,,,,,,,,,
,,648b962b8fdb1fa686213ac1,2024-02-18_23h22.06.888,kallum_motion_pilot,2023.2.2,Win32,60.0240096,648b962b8fdb1fa686213ac1,65d2b6c8f2eece985d8e374c,65d2bb2baf359b430317dde7,0.074,0.074,1,10,172,149,1,seveneight,,,,,,,,,,,,,,,,,,,,,,,,,,,,,,,,,,,,,,,,,,,,,,,,,,,,,,,,,,,,,,,,,,,,,,,,,,,,,,,,,,,,,,,,,,,,,,,,,,,,,,,,,,,,,,,,,,,,,,,,,,,,,,,,,,,,,,,,,
,,648b962b8fdb1fa686213ac1,2024-02-18_23h22.06.888,kallum_motion_pilot,2023.2.2,Win32,60.0240096,648b962b8fdb1fa686213ac1,65d2b6c8f2eece985d8e374c,65d2bb2baf359b430317dde7,0.074,0.074,1,11,173,10,1,twoone,,,,,,,,,,,,,,,,,,,,,,,,,,,,,,,,,,,,,,,,,,,,,,,,,,,,,,,,,,,,,,,,,,,,,,,,,,,,,,,,,,,,,,,,,,,,,,,,,,,,,,,,,,,,,,,,,,,,,,,,,,,,,,,,,,,,,,,,,
,,648b962b8fdb1fa686213ac1,2024-02-18_23h22.06.888,kallum_motion_pilot,2023.2.2,Win32,60.0240096,648b962b8fdb1fa686213ac1,65d2b6c8f2eece985d8e374c,65d2bb2baf359b430317dde7,0.075,0.075,1,12,174,15,1,fourthree,,,,,,,,,,,,,,,,,,,,,,,,,,,,,,,,,,,,,,,,,,,,,,,,,,,,,,,,,,,,,,,,,,,,,,,,,,,,,,,,,,,,,,,,,,,,,,,,,,,,,,,,,,,,,,,,,,,,,,,,,,,,,,,,,,,,,,,,,
,,648b962b8fdb1fa686213ac1,2024-02-18_23h22.06.888,kallum_motion_pilot,2023.2.2,Win32,60.0240096,648b962b8fdb1fa686213ac1,65d2b6c8f2eece985d8e374c,65d2bb2baf359b430317dde7,0.075,0.075,1,13,175,56,1,onetwo,,,,,,,,,,,,,,,,,,,,,,,,,,,,,,,,,,,,,,,,,,,,,,,,,,,,,,,,,,,,,,,,,,,,,,,,,,,,,,,,,,,,,,,,,,,,,,,,,,,,,,,,,,,,,,,,,,,,,,,,,,,,,,,,,,,,,,,,,
,,648b962b8fdb1fa686213ac1,2024-02-18_23h22.06.888,kallum_motion_pilot,2023.2.2,Win32,60.0240096,648b962b8fdb1fa686213ac1,65d2b6c8f2eece985d8e374c,65d2bb2baf359b430317dde7,0.075,0.075,1,14,176,135,1,eightseven,,,,,,,,,,,,,,,,,,,,,,,,,,,,,,,,,,,,,,,,,,,,,,,,,,,,,,,,,,,,,,,,,,,,,,,,,,,,,,,,,,,,,,,,,,,,,,,,,,,,,,,,,,,,,,,,,,,,,,,,,,,,,,,,,,,,,,,,,
,,648b962b8fdb1fa686213ac1,2024-02-18_23h22.06.888,kallum_motion_pilot,2023.2.2,Win32,60.0240096,648b962b8fdb1fa686213ac1,65d2b6c8f2eece985d8e374c,65d2bb2baf359b430317dde7,0.075,0.075,1,15,177,26,1,twoone,,,,,,,,,,,,,,,,,,,,,,,,,,,,,,,,,,,,,,,,,,,,,,,,,,,,,,,,,,,,,,,,,,,,,,,,,,,,,,,,,,,,,,,,,,,,,,,,,,,,,,,,,,,,,,,,,,,,,,,,,,,,,,,,,,,,,,,,,
,,648b962b8fdb1fa686213ac1,2024-02-18_23h22.06.888,kallum_motion_pilot,2023.2.2,Win32,60.0240096,648b962b8fdb1fa686213ac1,65d2b6c8f2eece985d8e374c,65d2bb2baf359b430317dde7,0.076,0.076,1,16,178,93,1,seveneight,,,,,,,,,,,,,,,,,,,,,,,,,,,,,,,,,,,,,,,,,,,,,,,,,,,,,,,,,,,,,,,,,,,,,,,,,,,,,,,,,,,,,,,,,,,,,,,,,,,,,,,,,,,,,,,,,,,,,,,,,,,,,,,,,,,,,,,,,
,,648b962b8fdb1fa686213ac1,2024-02-18_23h22.06.888,kallum_motion_pilot,2023.2.2,Win32,60.0240096,648b962b8fdb1fa686213ac1,65d2b6c8f2eece985d8e374c,65d2bb2baf359b430317dde7,0.076,0.076,1,17,179,160,1,fivesix,,,,,,,,,,,,,,,,,,,,,,,,,,,,,,,,,,,,,,,,,,,,,,,,,,,,,,,,,,,,,,,,,,,,,,,,,,,,,,,,,,,,,,,,,,,,,,,,,,,,,,,,,,,,,,,,,,,,,,,,,,,,,,,,,,,,,,,,,
,,648b962b8fdb1fa686213ac1,2024-02-18_23h22.06.888,kallum_motion_pilot,2023.2.2,Win32,60.0240096,648b962b8fdb1fa686213ac1,65d2b6c8f2eece985d8e374c,65d2bb2baf359b430317dde7,0.076,0.076,1,18,180,120,1,fivesix,,,,,,,,,,,,,,,,,,,,,,,,,,,,,,,,,,,,,,,,,,,,,,,,,,,,,,,,,,,,,,,,,,,,,,,,,,,,,,,,,,,,,,,,,,,,,,,,,,,,,,,,,,,,,,,,,,,,,,,,,,,,,,,,,,,,,,,,,
,,648b962b8fdb1fa686213ac1,2024-02-18_23h22.06.888,kallum_motion_pilot,2023.2.2,Win32,60.0240096,648b962b8fdb1fa686213ac1,65d2b6c8f2eece985d8e374c,65d2bb2baf359b430317dde7,0.076,0.076,1,19,181,140,1,sevenfive,,,,,,,,,,,,,,,,,,,,,,,,,,,,,,,,,,,,,,,,,,,,,,,,,,,,,,,,,,,,,,,,,,,,,,,,,,,,,,,,,,,,,,,,,,,,,,,,,,,,,,,,,,,,,,,,,,,,,,,,,,,,,,,,,,,,,,,,,
,,648b962b8fdb1fa686213ac1,2024-02-18_23h22.06.888,kallum_motion_pilot,2023.2.2,Win32,60.0240096,648b962b8fdb1fa686213ac1,65d2b6c8f2eece985d8e374c,65d2bb2baf359b430317dde7,0.076,0.076,1,20,182,133,1,seveneight,,,,,,,,,,,,,,,,,,,,,,,,,,,,,,,,,,,,,,,,,,,,,,,,,,,,,,,,,,,,,,,,,,,,,,,,,,,,,,,,,,,,,,,,,,,,,,,,,,,,,,,,,,,,,,,,,,,,,,,,,,,,,,,,,,,,,,,,,
,,648b962b8fdb1fa686213ac1,2024-02-18_23h22.06.888,kallum_motion_pilot,2023.2.2,Win32,60.0240096,648b962b8fdb1fa686213ac1,65d2b6c8f2eece985d8e374c,65d2bb2baf359b430317dde7,0.076,0.076,1,21,183,61,1,threefour,,,,,,,,,,,,,,,,,,,,,,,,,,,,,,,,,,,,,,,,,,,,,,,,,,,,,,,,,,,,,,,,,,,,,,,,,,,,,,,,,,,,,,,,,,,,,,,,,,,,,,,,,,,,,,,,,,,,,,,,,,,,,,,,,,,,,,,,,
,,648b962b8fdb1fa686213ac1,2024-02-18_23h22.06.888,kallum_motion_pilot,2023.2.2,Win32,60.0240096,648b962b8fdb1fa686213ac1,65d2b6c8f2eece985d8e374c,65d2bb2baf359b430317dde7,0.076,0.076,1,22,184,44,1,threeone,,,,,,,,,,,,,,,,,,,,,,,,,,,,,,,,,,,,,,,,,,,,,,,,,,,,,,,,,,,,,,,,,,,,,,,,,,,,,,,,,,,,,,,,,,,,,,,,,,,,,,,,,,,,,,,,,,,,,,,,,,,,,,,,,,,,,,,,,
,,648b962b8fdb1fa686213ac1,2024-02-18_23h22.06.888,kallum_motion_pilot,2023.2.2,Win32,60.0240096,648b962b8fdb1fa686213ac1,65d2b6c8f2eece985d8e374c,65d2bb2baf359b430317dde7,0.076,0.076,1,23,185,12,1,threeone,,,,,,,,,,,,,,,,,,,,,,,,,,,,,,,,,,,,,,,,,,,,,,,,,,,,,,,,,,,,,,,,,,,,,,,,,,,,,,,,,,,,,,,,,,,,,,,,,,,,,,,,,,,,,,,,,,,,,,,,,,,,,,,,,,,,,,,,,
,,648b962b8fdb1fa686213ac1,2024-02-18_23h22.06.888,kallum_motion_pilot,2023.2.2,Win32,60.0240096,648b962b8fdb1fa686213ac1,65d2b6c8f2eece985d8e374c,65d2bb2baf359b430317dde7,0.077,0.077,1,24,186,46,1,fourtwo,,,,,,,,,,,,,,,,,,,,,,,,,,,,,,,,,,,,,,,,,,,,,,,,,,,,,,,,,,,,,,,,,,,,,,,,,,,,,,,,,,,,,,,,,,,,,,,,,,,,,,,,,,,,,,,,,,,,,,,,,,,,,,,,,,,,,,,,,
,,648b962b8fdb1fa686213ac1,2024-02-18_23h22.06.888,kallum_motion_pilot,2023.2.2,Win32,60.0240096,648b962b8fdb1fa686213ac1,65d2b6c8f2eece985d8e374c,65d2bb2baf359b430317dde7,0.077,0.077,1,25,187,117,1,seveneight,,,,,,,,,,,,,,,,,,,,,,,,,,,,,,,,,,,,,,,,,,,,,,,,,,,,,,,,,,,,,,,,,,,,,,,,,,,,,,,,,,,,,,,,,,,,,,,,,,,,,,,,,,,,,,,,,,,,,,,,,,,,,,,,,,,,,,,,,
,,648b962b8fdb1fa686213ac1,2024-02-18_23h22.06.888,kallum_motion_pilot,2023.2.2,Win32,60.0240096,648b962b8fdb1fa686213ac1,65d2b6c8f2eece985d8e374c,65d2bb2baf359b430317dde7,0.077,0.077,1,26,188,30,1,fourtwo,,,,,,,,,,,,,,,,,,,,,,,,,,,,,,,,,,,,,,,,,,,,,,,,,,,,,,,,,,,,,,,,,,,,,,,,,,,,,,,,,,,,,,,,,,,,,,,,,,,,,,,,,,,,,,,,,,,,,,,,,,,,,,,,,,,,,,,,,
,,648b962b8fdb1fa686213ac1,2024-02-18_23h22.06.888,kallum_motion_pilot,2023.2.2,Win32,60.0240096,648b962b8fdb1fa686213ac1,65d2b6c8f2eece985d8e374c,65d2bb2baf359b430317dde7,0.077,0.077,1,27,189,161,1,fiveseven,,,,,,,,,,,,,,,,,,,,,,,,,,,,,,,,,,,,,,,,,,,,,,,,,,,,,,,,,,,,,,,,,,,,,,,,,,,,,,,,,,,,,,,,,,,,,,,,,,,,,,,,,,,,,,,,,,,,,,,,,,,,,,,,,,,,,,,,,
,,648b962b8fdb1fa686213ac1,2024-02-18_23h22.06.888,kallum_motion_pilot,2023.2.2,Win32,60.0240096,648b962b8fdb1fa686213ac1,65d2b6c8f2eece985d8e374c,65d2bb2baf359b430317dde7,0.077,0.077,1,28,190,60,1,threeone,,,,,,,,,,,,,,,,,,,,,,,,,,,,,,,,,,,,,,,,,,,,,,,,,,,,,,,,,,,,,,,,,,,,,,,,,,,,,,,,,,,,,,,,,,,,,,,,,,,,,,,,,,,,,,,,,,,,,,,,,,,,,,,,,,,,,,,,,
,,648b962b8fdb1fa686213ac1,2024-02-18_23h22.06.888,kallum_motion_pilot,2023.2.2,Win32,60.0240096,648b962b8fdb1fa686213ac1,65d2b6c8f2eece985d8e374c,65d2bb2baf359b430317dde7,0.077,0.077,1,29,191,105,1,fiveseven,,,,,,,,,,,,,,,,,,,,,,,,,,,,,,,,,,,,,,,,,,,,,,,,,,,,,,,,,,,,,,,,,,,,,,,,,,,,,,,,,,,,,,,,,,,,,,,,,,,,,,,,,,,,,,,,,,,,,,,,,,,,,,,,,,,,,,,,,
,,648b962b8fdb1fa686213ac1,2024-02-18_23h22.06.888,kallum_motion_pilot,2023.2.2,Win32,60.0240096,648b962b8fdb1fa686213ac1,65d2b6c8f2eece985d8e374c,65d2bb2baf359b430317dde7,0.077,0.078,1,30,192,118,1,eightsix,,,,,,,,,,,,,,,,,,,,,,,,,,,,,,,,,,,,,,,,,,,,,,,,,,,,,,,,,,,,,,,,,,,,,,,,,,,,,,,,,,,,,,,,,,,,,,,,,,,,,,,,,,,,,,,,,,,,,,,,,,,,,,,,,,,,,,,,,
,,648b962b8fdb1fa686213ac1,2024-02-18_23h22.06.888,kallum_motion_pilot,2023.2.2,Win32,60.0240096,648b962b8fdb1fa686213ac1,65d2b6c8f2eece985d8e374c,65d2bb2baf359b430317dde7,0.078,0.078,1,31,193,85,1,seveneight,,,,,,,,,,,,,,,,,,,,,,,,,,,,,,,,,,,,,,,,,,,,,,,,,,,,,,,,,,,,,,,,,,,,,,,,,,,,,,,,,,,,,,,,,,,,,,,,,,,,,,,,,,,,,,,,,,,,,,,,,,,,,,,,,,,,,,,,,
,,648b962b8fdb1fa686213ac1,2024-02-18_23h22.06.888,kallum_motion_pilot,2023.2.2,Win32,60.0240096,648b962b8fdb1fa686213ac1,65d2b6c8f2eece985d8e374c,65d2bb2baf359b430317dde7,0.078,0.078,1,32,194,32,1,onetwo,,,,,,,,,,,,,,,,,,,,,,,,,,,,,,,,,,,,,,,,,,,,,,,,,,,,,,,,,,,,,,,,,,,,,,,,,,,,,,,,,,,,,,,,,,,,,,,,,,,,,,,,,,,,,,,,,,,,,,,,,,,,,,,,,,,,,,,,,
,,648b962b8fdb1fa686213ac1,2024-02-18_23h22.06.888,kallum_motion_pilot,2023.2.2,Win32,60.0240096,648b962b8fdb1fa686213ac1,65d2b6c8f2eece985d8e374c,65d2bb2baf359b430317dde7,0.078,0.078,1,33,195,4,1,threeone,,,,,,,,,,,,,,,,,,,,,,,,,,,,,,,,,,,,,,,,,,,,,,,,,,,,,,,,,,,,,,,,,,,,,,,,,,,,,,,,,,,,,,,,,,,,,,,,,,,,,,,,,,,,,,,,,,,,,,,,,,,,,,,,,,,,,,,,,
,,648b962b8fdb1fa686213ac1,2024-02-18_23h22.06.888,kallum_motion_pilot,2023.2.2,Win32,60.0240096,648b962b8fdb1fa686213ac1,65d2b6c8f2eece985d8e374c,65d2bb2baf359b430317dde7,0.078,0.078,1,34,196,106,1,sixfive,,,,,,,,,,,,,,,,,,,,,,,,,,,,,,,,,,,,,,,,,,,,,,,,,,,,,,,,,,,,,,,,,,,,,,,,,,,,,,,,,,,,,,,,,,,,,,,,,,,,,,,,,,,,,,,,,,,,,,,,,,,,,,,,,,,,,,,,,
,,648b962b8fdb1fa686213ac1,2024-02-18_23h22.06.888,kallum_motion_pilot,2023.2.2,Win32,60.0240096,648b962b8fdb1fa686213ac1,65d2b6c8f2eece985d8e374c,65d2bb2baf359b430317dde7,0.078,0.078,1,35,197,34,1,twoone,,,,,,,,,,,,,,,,,,,,,,,,,,,,,,,,,,,,,,,,,,,,,,,,,,,,,,,,,,,,,,,,,,,,,,,,,,,,,,,,,,,,,,,,,,,,,,,,,,,,,,,,,,,,,,,,,,,,,,,,,,,,,,,,,,,,,,,,,
,,648b962b8fdb1fa686213ac1,2024-02-18_23h22.06.888,kallum_motion_pilot,2023.2.2,Win32,60.0240096,648b962b8fdb1fa686213ac1,65d2b6c8f2eece985d8e374c,65d2bb2baf359b430317dde7,0.078,0.078,1,36,198,128,1,fivesix,,,,,,,,,,,,,,,,,,,,,,,,,,,,,,,,,,,,,,,,,,,,,,,,,,,,,,,,,,,,,,,,,,,,,,,,,,,,,,,,,,,,,,,,,,,,,,,,,,,,,,,,,,,,,,,,,,,,,,,,,,,,,,,,,,,,,,,,,
,,648b962b8fdb1fa686213ac1,2024-02-18_23h22.06.888,kallum_motion_pilot,2023.2.2,Win32,60.0240096,648b962b8fdb1fa686213ac1,65d2b6c8f2eece985d8e374c,65d2bb2baf359b430317dde7,0.079,0.079,1,37,199,147,1,sixeight,,,,,,,,,,,,,,,,,,,,,,,,,,,,,,,,,,,,,,,,,,,,,,,,,,,,,,,,,,,,,,,,,,,,,,,,,,,,,,,,,,,,,,,,,,,,,,,,,,,,,,,,,,,,,,,,,,,,,,,,,,,,,,,,,,,,,,,,,
,,648b962b8fdb1fa686213ac1,2024-02-18_23h22.06.888,kallum_motion_pilot,2023.2.2,Win32,60.0240096,648b962b8fdb1fa686213ac1,65d2b6c8f2eece985d8e374c,65d2bb2baf359b430317dde7,0.079,0.079,1,38,200,103,1,eightseven,,,,,,,,,,,,,,,,,,,,,,,,,,,,,,,,,,,,,,,,,,,,,,,,,,,,,,,,,,,,,,,,,,,,,,,,,,,,,,,,,,,,,,,,,,,,,,,,,,,,,,,,,,,,,,,,,,,,,,,,,,,,,,,,,,,,,,,,,
,,648b962b8fdb1fa686213ac1,2024-02-18_23h22.06.888,kallum_motion_pilot,2023.2.2,Win32,60.0240096,648b962b8fdb1fa686213ac1,65d2b6c8f2eece985d8e374c,65d2bb2baf359b430317dde7,0.079,0.079,1,39,201,47,1,fourthree,,,,,,,,,,,,,,,,,,,,,,,,,,,,,,,,,,,,,,,,,,,,,,,,,,,,,,,,,,,,,,,,,,,,,,,,,,,,,,,,,,,,,,,,,,,,,,,,,,,,,,,,,,,,,,,,,,,,,,,,,,,,,,,,,,,,,,,,,
,,648b962b8fdb1fa686213ac1,2024-02-18_23h22.06.888,kallum_motion_pilot,2023.2.2,Win32,60.0240096,648b962b8fdb1fa686213ac1,65d2b6c8f2eece985d8e374c,65d2bb2baf359b430317dde7,0.079,0.079,1,40,202,101,1,seveneight,,,,,,,,,,,,,,,,,,,,,,,,,,,,,,,,,,,,,,,,,,,,,,,,,,,,,,,,,,,,,,,,,,,,,,,,,,,,,,,,,,,,,,,,,,,,,,,,,,,,,,,,,,,,,,,,,,,,,,,,,,,,,,,,,,,,,,,,,
,,648b962b8fdb1fa686213ac1,2024-02-18_23h22.06.888,kallum_motion_pilot,2023.2.2,Win32,60.0240096,648b962b8fdb1fa686213ac1,65d2b6c8f2eece985d8e374c,65d2bb2baf359b430317dde7,0.079,0.079,1,41,203,58,1,twoone,,,,,,,,,,,,,,,,,,,,,,,,,,,,,,,,,,,,,,,,,,,,,,,,,,,,,,,,,,,,,,,,,,,,,,,,,,,,,,,,,,,,,,,,,,,,,,,,,,,,,,,,,,,,,,,,,,,,,,,,,,,,,,,,,,,,,,,,,
,,648b962b8fdb1fa686213ac1,2024-02-18_23h22.06.888,kallum_motion_pilot,2023.2.2,Win32,60.0240096,648b962b8fdb1fa686213ac1,65d2b6c8f2eece985d8e374c,65d2bb2baf359b430317dde7,0.079,0.079,1,42,204,53,1,threefour,,,,,,,,,,,,,,,,,,,,,,,,,,,,,,,,,,,,,,,,,,,,,,,,,,,,,,,,,,,,,,,,,,,,,,,,,,,,,,,,,,,,,,,,,,,,,,,,,,,,,,,,,,,,,,,,,,,,,,,,,,,,,,,,,,,,,,,,,
,,648b962b8fdb1fa686213ac1,2024-02-18_23h22.06.888,kallum_motion_pilot,2023.2.2,Win32,60.0240096,648b962b8fdb1fa686213ac1,65d2b6c8f2eece985d8e374c,65d2bb2baf359b430317dde7,0.079,0.08,1,43,205,74,1,twoone,,,,,,,,,,,,,,,,,,,,,,,,,,,,,,,,,,,,,,,,,,,,,,,,,,,,,,,,,,,,,,,,,,,,,,,,,,,,,,,,,,,,,,,,,,,,,,,,,,,,,,,,,,,,,,,,,,,,,,,,,,,,,,,,,,,,,,,,,
,,648b962b8fdb1fa686213ac1,2024-02-18_23h22.06.888,kallum_motion_pilot,2023.2.2,Win32,60.0240096,648b962b8fdb1fa686213ac1,65d2b6c8f2eece985d8e374c,65d2bb2baf359b430317dde7,0.08,0.08,1,44,206,51,1,twofour,,,,,,,,,,,,,,,,,,,,,,,,,,,,,,,,,,,,,,,,,,,,,,,,,,,,,,,,,,,,,,,,,,,,,,,,,,,,,,,,,,,,,,,,,,,,,,,,,,,,,,,,,,,,,,,,,,,,,,,,,,,,,,,,,,,,,,,,,
,,648b962b8fdb1fa686213ac1,2024-02-18_23h22.06.888,kallum_motion_pilot,2023.2.2,Win32,60.0240096,648b962b8fdb1fa686213ac1,65d2b6c8f2eece985d8e374c,65d2bb2baf359b430317dde7,0.08,0.08,1,45,207,109,1,seveneight,,,,,,,,,,,,,,,,,,,,,,,,,,,,,,,,,,,,,,,,,,,,,,,,,,,,,,,,,,,,,,,,,,,,,,,,,,,,,,,,,,,,,,,,,,,,,,,,,,,,,,,,,,,,,,,,,,,,,,,,,,,,,,,,,,,,,,,,,
,,648b962b8fdb1fa686213ac1,2024-02-18_23h22.06.888,kallum_motion_pilot,2023.2.2,Win32,60.0240096,648b962b8fdb1fa686213ac1,65d2b6c8f2eece985d8e374c,65d2bb2baf359b430317dde7,0.08,0.08,1,46,208,8,1,onetwo,,,,,,,,,,,,,,,,,,,,,,,,,,,,,,,,,,,,,,,,,,,,,,,,,,,,,,,,,,,,,,,,,,,,,,,,,,,,,,,,,,,,,,,,,,,,,,,,,,,,,,,,,,,,,,,,,,,,,,,,,,,,,,,,,,,,,,,,,
,,648b962b8fdb1fa686213ac1,2024-02-18_23h22.06.888,kallum_motion_pilot,2023.2.2,Win32,60.0240096,648b962b8fdb1fa686213ac1,65d2b6c8f2eece985d8e374c,65d2bb2baf359b430317dde7,0.08,0.08,1,47,209,145,1,fiveseven,,,,,,,,,,,,,,,,,,,,,,,,,,,,,,,,,,,,,,,,,,,,,,,,,,,,,,,,,,,,,,,,,,,,,,,,,,,,,,,,,,,,,,,,,,,,,,,,,,,,,,,,,,,,,,,,,,,,,,,,,,,,,,,,,,,,,,,,,
,,648b962b8fdb1fa686213ac1,2024-02-18_23h22.06.888,kallum_motion_pilot,2023.2.2,Win32,60.0240096,648b962b8fdb1fa686213ac1,65d2b6c8f2eece985d8e374c,65d2bb2baf359b430317dde7,0.08,0.08,1,48,210,119,1,eightseven,,,,,,,,,,,,,,,,,,,,,,,,,,,,,,,,,,,,,,,,,,,,,,,,,,,,,,,,,,,,,,,,,,,,,,,,,,,,,,,,,,,,,,,,,,,,,,,,,,,,,,,,,,,,,,,,,,,,,,,,,,,,,,,,,,,,,,,,,
,,648b962b8fdb1fa686213ac1,2024-02-18_23h22.06.888,kallum_motion_pilot,2023.2.2,Win32,60.0240096,648b962b8fdb1fa686213ac1,65d2b6c8f2eece985d8e374c,65d2bb2baf359b430317dde7,0.08,0.08,1,49,211,76,1,threeone,,,,,,,,,,,,,,,,,,,,,,,,,,,,,,,,,,,,,,,,,,,,,,,,,,,,,,,,,,,,,,,,,,,,,,,,,,,,,,,,,,,,,,,,,,,,,,,,,,,,,,,,,,,,,,,,,,,,,,,,,,,,,,,,,,,,,,,,,
,,648b962b8fdb1fa686213ac1,2024-02-18_23h22.06.888,kallum_motion_pilot,2023.2.2,Win32,60.0240096,648b962b8fdb1fa686213ac1,65d2b6c8f2eece985d8e374c,65d2bb2baf359b430317dde7,0.081,0.081,1,50,212,52,1,threeone,,,,,,,,,,,,,,,,,,,,,,,,,,,,,,,,,,,,,,,,,,,,,,,,,,,,,,,,,,,,,,,,,,,,,,,,,,,,,,,,,,,,,,,,,,,,,,,,,,,,,,,,,,,,,,,,,,,,,,,,,,,,,,,,,,,,,,,,,
,,648b962b8fdb1fa686213ac1,2024-02-18_23h22.06.888,kallum_motion_pilot,2023.2.2,Win32,60.0240096,648b962b8fdb1fa686213ac1,65d2b6c8f2eece985d8e374c,65d2bb2baf359b430317dde7,0.081,0.081,1,51,213,130,1,sixfive,,,,,,,,,,,,,,,,,,,,,,,,,,,,,,,,,,,,,,,,,,,,,,,,,,,,,,,,,,,,,,,,,,,,,,,,,,,,,,,,,,,,,,,,,,,,,,,,,,,,,,,,,,,,,,,,,,,,,,,,,,,,,,,,,,,,,,,,,
,,648b962b8fdb1fa686213ac1,2024-02-18_23h22.06.888,kallum_motion_pilot,2023.2.2,Win32,60.0240096,648b962b8fdb1fa686213ac1,65d2b6c8f2eece985d8e374c,65d2bb2baf359b430317dde7,0.081,0.081,1,52,214,19,1,twofour,,,,,,,,,,,,,,,,,,,,,,,,,,,,,,,,,,,,,,,,,,,,,,,,,,,,,,,,,,,,,,,,,,,,,,,,,,,,,,,,,,,,,,,,,,,,,,,,,,,,,,,,,,,,,,,,,,,,,,,,,,,,,,,,,,,,,,,,,
,,648b962b8fdb1fa686213ac1,2024-02-18_23h22.06.888,kallum_motion_pilot,2023.2.2,Win32,60.0240096,648b962b8fdb1fa686213ac1,65d2b6c8f2eece985d8e374c,65d2bb2baf359b430317dde7,0.081,0.081,1,53,215,151,1,eightseven,,,,,,,,,,,,,,,,,,,,,,,,,,,,,,,,,,,,,,,,,,,,,,,,,,,,,,,,,,,,,,,,,,,,,,,,,,,,,,,,,,,,,,,,,,,,,,,,,,,,,,,,,,,,,,,,,,,,,,,,,,,,,,,,,,,,,,,,,
,,648b962b8fdb1fa686213ac1,2024-02-18_23h22.06.888,kallum_motion_pilot,2023.2.2,Win32,60.0240096,648b962b8fdb1fa686213ac1,65d2b6c8f2eece985d8e374c,65d2bb2baf359b430317dde7,0.081,0.081,1,54,216,50,1,twoone,,,,,,,,,,,,,,,,,,,,,,,,,,,,,,,,,,,,,,,,,,,,,,,,,,,,,,,,,,,,,,,,,,,,,,,,,,,,,,,,,,,,,,,,,,,,,,,,,,,,,,,,,,,,,,,,,,,,,,,,,,,,,,,,,,,,,,,,,
,,648b962b8fdb1fa686213ac1,2024-02-18_23h22.06.888,kallum_motion_pilot,2023.2.2,Win32,60.0240096,648b962b8fdb1fa686213ac1,65d2b6c8f2eece985d8e374c,65d2bb2baf359b430317dde7,0.081,0.081,1,55,217,110,1,eightsix,,,,,,,,,,,,,,,,,,,,,,,,,,,,,,,,,,,,,,,,,,,,,,,,,,,,,,,,,,,,,,,,,,,,,,,,,,,,,,,,,,,,,,,,,,,,,,,,,,,,,,,,,,,,,,,,,,,,,,,,,,,,,,,,,,,,,,,,,
,,648b962b8fdb1fa686213ac1,2024-02-18_23h22.06.888,kallum_motion_pilot,2023.2.2,Win32,60.0240096,648b962b8fdb1fa686213ac1,65d2b6c8f2eece985d8e374c,65d2bb2baf359b430317dde7,0.081,0.081,1,56,218,59,1,twofour,,,,,,,,,,,,,,,,,,,,,,,,,,,,,,,,,,,,,,,,,,,,,,,,,,,,,,,,,,,,,,,,,,,,,,,,,,,,,,,,,,,,,,,,,,,,,,,,,,,,,,,,,,,,,,,,,,,,,,,,,,,,,,,,,,,,,,,,,
,,648b962b8fdb1fa686213ac1,2024-02-18_23h22.06.888,kallum_motion_pilot,2023.2.2,Win32,60.0240096,648b962b8fdb1fa686213ac1,65d2b6c8f2eece985d8e374c,65d2bb2baf359b430317dde7,0.082,0.082,1,57,219,142,1,eightsix,,,,,,,,,,,,,,,,,,,,,,,,,,,,,,,,,,,,,,,,,,,,,,,,,,,,,,,,,,,,,,,,,,,,,,,,,,,,,,,,,,,,,,,,,,,,,,,,,,,,,,,,,,,,,,,,,,,,,,,,,,,,,,,,,,,,,,,,,
,,648b962b8fdb1fa686213ac1,2024-02-18_23h22.06.888,kallum_motion_pilot,2023.2.2,Win32,60.0240096,648b962b8fdb1fa686213ac1,65d2b6c8f2eece985d8e374c,65d2bb2baf359b430317dde7,0.082,0.082,1,58,220,114,1,sixfive,,,,,,,,,,,,,,,,,,,,,,,,,,,,,,,,,,,,,,,,,,,,,,,,,,,,,,,,,,,,,,,,,,,,,,,,,,,,,,,,,,,,,,,,,,,,,,,,,,,,,,,,,,,,,,,,,,,,,,,,,,,,,,,,,,,,,,,,,
,,648b962b8fdb1fa686213ac1,2024-02-18_23h22.06.888,kallum_motion_pilot,2023.2.2,Win32,60.0240096,648b962b8fdb1fa686213ac1,65d2b6c8f2eece985d8e374c,65d2bb2baf359b430317dde7,0.084,0.084,1,59,221,78,1,fourtwo,,,,,,,,,,,,,,,,,,,,,,,,,,,,,,,,,,,,,,,,,,,,,,,,,,,,,,,,,,,,,,,,,,,,,,,,,,,,,,,,,,,,,,,,,,,,,,,,,,,,,,,,,,,,,,,,,,,,,,,,,,,,,,,,,,,,,,,,,
,,648b962b8fdb1fa686213ac1,2024-02-18_23h22.06.888,kallum_motion_pilot,2023.2.2,Win32,60.0240096,648b962b8fdb1fa686213ac1,65d2b6c8f2eece985d8e374c,65d2bb2baf359b430317dde7,0.084,0.084,1,60,222,141,1,seveneight,,,,,,,,,,,,,,,,,,,,,,,,,,,,,,,,,,,,,,,,,,,,,,,,,,,,,,,,,,,,,,,,,,,,,,,,,,,,,,,,,,,,,,,,,,,,,,,,,,,,,,,,,,,,,,,,,,,,,,,,,,,,,,,,,,,,,,,,,
,,648b962b8fdb1fa686213ac1,2024-02-18_23h22.06.888,kallum_motion_pilot,2023.2.2,Win32,60.0240096,648b962b8fdb1fa686213ac1,65d2b6c8f2eece985d8e374c,65d2bb2baf359b430317dde7,0.084,0.084,1,61,223,28,1,threeone,,,,,,,,,,,,,,,,,,,,,,,,,,,,,,,,,,,,,,,,,,,,,,,,,,,,,,,,,,,,,,,,,,,,,,,,,,,,,,,,,,,,,,,,,,,,,,,,,,,,,,,,,,,,,,,,,,,,,,,,,,,,,,,,,,,,,,,,,
,,648b962b8fdb1fa686213ac1,2024-02-18_23h22.06.888,kallum_motion_pilot,2023.2.2,Win32,60.0240096,648b962b8fdb1fa686213ac1,65d2b6c8f2eece985d8e374c,65d2bb2baf359b430317dde7,0.084,0.084,1,62,224,72,1,onetwo,,,,,,,,,,,,,,,,,,,,,,,,,,,,,,,,,,,,,,,,,,,,,,,,,,,,,,,,,,,,,,,,,,,,,,,,,,,,,,,,,,,,,,,,,,,,,,,,,,,,,,,,,,,,,,,,,,,,,,,,,,,,,,,,,,,,,,,,,
,,648b962b8fdb1fa686213ac1,2024-02-18_23h22.06.888,kallum_motion_pilot,2023.2.2,Win32,60.0240096,648b962b8fdb1fa686213ac1,65d2b6c8f2eece985d8e374c,65d2bb2baf359b430317dde7,0.084,0.084,1,63,225,159,1,eightseven,,,,,,,,,,,,,,,,,,,,,,,,,,,,,,,,,,,,,,,,,,,,,,,,,,,,,,,,,,,,,,,,,,,,,,,,,,,,,,,,,,,,,,,,,,,,,,,,,,,,,,,,,,,,,,,,,,,,,,,,,,,,,,,,,,,,,,,,,
,,648b962b8fdb1fa686213ac1,2024-02-18_23h22.06.888,kallum_motion_pilot,2023.2.2,Win32,60.0240096,648b962b8fdb1fa686213ac1,65d2b6c8f2eece985d8e374c,65d2bb2baf359b430317dde7,0.085,0.085,1,64,226,24,1,onetwo,,,,,,,,,,,,,,,,,,,,,,,,,,,,,,,,,,,,,,,,,,,,,,,,,,,,,,,,,,,,,,,,,,,,,,,,,,,,,,,,,,,,,,,,,,,,,,,,,,,,,,,,,,,,,,,,,,,,,,,,,,,,,,,,,,,,,,,,,
,,648b962b8fdb1fa686213ac1,2024-02-18_23h22.06.888,kallum_motion_pilot,2023.2.2,Win32,60.0240096,648b962b8fdb1fa686213ac1,65d2b6c8f2eece985d8e374c,65d2bb2baf359b430317dde7,0.085,0.085,1,65,227,0,1,onetwo,,,,,,,,,,,,,,,,,,,,,,,,,,,,,,,,,,,,,,,,,,,,,,,,,,,,,,,,,,,,,,,,,,,,,,,,,,,,,,,,,,,,,,,,,,,,,,,,,,,,,,,,,,,,,,,,,,,,,,,,,,,,,,,,,,,,,,,,,
,,648b962b8fdb1fa686213ac1,2024-02-18_23h22.06.888,kallum_motion_pilot,2023.2.2,Win32,60.0240096,648b962b8fdb1fa686213ac1,65d2b6c8f2eece985d8e374c,65d2bb2baf359b430317dde7,0.085,0.085,1,66,228,62,1,fourtwo,,,,,,,,,,,,,,,,,,,,,,,,,,,,,,,,,,,,,,,,,,,,,,,,,,,,,,,,,,,,,,,,,,,,,,,,,,,,,,,,,,,,,,,,,,,,,,,,,,,,,,,,,,,,,,,,,,,,,,,,,,,,,,,,,,,,,,,,,
,,648b962b8fdb1fa686213ac1,2024-02-18_23h22.06.888,kallum_motion_pilot,2023.2.2,Win32,60.0240096,648b962b8fdb1fa686213ac1,65d2b6c8f2eece985d8e374c,65d2bb2baf359b430317dde7,0.085,0.085,1,67,229,84,1,sevenfive,,,,,,,,,,,,,,,,,,,,,,,,,,,,,,,,,,,,,,,,,,,,,,,,,,,,,,,,,,,,,,,,,,,,,,,,,,,,,,,,,,,,,,,,,,,,,,,,,,,,,,,,,,,,,,,,,,,,,,,,,,,,,,,,,,,,,,,,,
,,648b962b8fdb1fa686213ac1,2024-02-18_23h22.06.888,kallum_motion_pilot,2023.2.2,Win32,60.0240096,648b962b8fdb1fa686213ac1,65d2b6c8f2eece985d8e374c,65d2bb2baf359b430317dde7,0.085,0.085,1,68,230,134,1,eightsix,,,,,,,,,,,,,,,,,,,,,,,,,,,,,,,,,,,,,,,,,,,,,,,,,,,,,,,,,,,,,,,,,,,,,,,,,,,,,,,,,,,,,,,,,,,,,,,,,,,,,,,,,,,,,,,,,,,,,,,,,,,,,,,,,,,,,,,,,
,,648b962b8fdb1fa686213ac1,2024-02-18_23h22.06.888,kallum_motion_pilot,2023.2.2,Win32,60.0240096,648b962b8fdb1fa686213ac1,65d2b6c8f2eece985d8e374c,65d2bb2baf359b430317dde7,0.085,0.085,1,69,231,144,1,fivesix,,,,,,,,,,,,,,,,,,,,,,,,,,,,,,,,,,,,,,,,,,,,,,,,,,,,,,,,,,,,,,,,,,,,,,,,,,,,,,,,,,,,,,,,,,,,,,,,,,,,,,,,,,,,,,,,,,,,,,,,,,,,,,,,,,,,,,,,,
,,648b962b8fdb1fa686213ac1,2024-02-18_23h22.06.888,kallum_motion_pilot,2023.2.2,Win32,60.0240096,648b962b8fdb1fa686213ac1,65d2b6c8f2eece985d8e374c,65d2bb2baf359b430317dde7,0.085,0.085,1,70,232,129,1,fiveseven,,,,,,,,,,,,,,,,,,,,,,,,,,,,,,,,,,,,,,,,,,,,,,,,,,,,,,,,,,,,,,,,,,,,,,,,,,,,,,,,,,,,,,,,,,,,,,,,,,,,,,,,,,,,,,,,,,,,,,,,,,,,,,,,,,,,,,,,,
,,648b962b8fdb1fa686213ac1,2024-02-18_23h22.06.888,kallum_motion_pilot,2023.2.2,Win32,60.0240096,648b962b8fdb1fa686213ac1,65d2b6c8f2eece985d8e374c,65d2bb2baf359b430317dde7,0.086,0.086,1,71,233,40,1,onetwo,,,,,,,,,,,,,,,,,,,,,,,,,,,,,,,,,,,,,,,,,,,,,,,,,,,,,,,,,,,,,,,,,,,,,,,,,,,,,,,,,,,,,,,,,,,,,,,,,,,,,,,,,,,,,,,,,,,,,,,,,,,,,,,,,,,,,,,,,
,,648b962b8fdb1fa686213ac1,2024-02-18_23h22.06.888,kallum_motion_pilot,2023.2.2,Win32,60.0240096,648b962b8fdb1fa686213ac1,65d2b6c8f2eece985d8e374c,65d2bb2baf359b430317dde7,0.086,0.086,1,72,234,124,1,sevenfive,,,,,,,,,,,,,,,,,,,,,,,,,,,,,,,,,,,,,,,,,,,,,,,,,,,,,,,,,,,,,,,,,,,,,,,,,,,,,,,,,,,,,,,,,,,,,,,,,,,,,,,,,,,,,,,,,,,,,,,,,,,,,,,,,,,,,,,,,
,,648b962b8fdb1fa686213ac1,2024-02-18_23h22.06.888,kallum_motion_pilot,2023.2.2,Win32,60.0240096,648b962b8fdb1fa686213ac1,65d2b6c8f2eece985d8e374c,65d2bb2baf359b430317dde7,0.086,0.086,1,73,235,143,1,eightseven,,,,,,,,,,,,,,,,,,,,,,,,,,,,,,,,,,,,,,,,,,,,,,,,,,,,,,,,,,,,,,,,,,,,,,,,,,,,,,,,,,,,,,,,,,,,,,,,,,,,,,,,,,,,,,,,,,,,,,,,,,,,,,,,,,,,,,,,,
,,648b962b8fdb1fa686213ac1,2024-02-18_23h22.06.888,kallum_motion_pilot,2023.2.2,Win32,60.0240096,648b962b8fdb1fa686213ac1,65d2b6c8f2eece985d8e374c,65d2bb2baf359b430317dde7,0.086,0.086,1,74,236,123,1,sixeight,,,,,,,,,,,,,,,,,,,,,,,,,,,,,,,,,,,,,,,,,,,,,,,,,,,,,,,,,,,,,,,,,,,,,,,,,,,,,,,,,,,,,,,,,,,,,,,,,,,,,,,,,,,,,,,,,,,,,,,,,,,,,,,,,,,,,,,,,
,,648b962b8fdb1fa686213ac1,2024-02-18_23h22.06.888,kallum_motion_pilot,2023.2.2,Win32,60.0240096,648b962b8fdb1fa686213ac1,65d2b6c8f2eece985d8e374c,65d2bb2baf359b430317dde7,0.086,0.086,1,75,237,80,1,fivesix,,,,,,,,,,,,,,,,,,,,,,,,,,,,,,,,,,,,,,,,,,,,,,,,,,,,,,,,,,,,,,,,,,,,,,,,,,,,,,,,,,,,,,,,,,,,,,,,,,,,,,,,,,,,,,,,,,,,,,,,,,,,,,,,,,,,,,,,,
,,648b962b8fdb1fa686213ac1,2024-02-18_23h22.06.888,kallum_motion_pilot,2023.2.2,Win32,60.0240096,648b962b8fdb1fa686213ac1,65d2b6c8f2eece985d8e374c,65d2bb2baf359b430317dde7,0.087,0.087,1,76,238,112,1,fivesix,,,,,,,,,,,,,,,,,,,,,,,,,,,,,,,,,,,,,,,,,,,,,,,,,,,,,,,,,,,,,,,,,,,,,,,,,,,,,,,,,,,,,,,,,,,,,,,,,,,,,,,,,,,,,,,,,,,,,,,,,,,,,,,,,,,,,,,,,
,,648b962b8fdb1fa686213ac1,2024-02-18_23h22.06.888,kallum_motion_pilot,2023.2.2,Win32,60.0240096,648b962b8fdb1fa686213ac1,65d2b6c8f2eece985d8e374c,65d2bb2baf359b430317dde7,0.087,0.087,1,77,239,21,1,threefour,,,,,,,,,,,,,,,,,,,,,,,,,,,,,,,,,,,,,,,,,,,,,,,,,,,,,,,,,,,,,,,,,,,,,,,,,,,,,,,,,,,,,,,,,,,,,,,,,,,,,,,,,,,,,,,,,,,,,,,,,,,,,,,,,,,,,,,,,
,,648b962b8fdb1fa686213ac1,2024-02-18_23h22.06.888,kallum_motion_pilot,2023.2.2,Win32,60.0240096,648b962b8fdb1fa686213ac1,65d2b6c8f2eece985d8e374c,65d2bb2baf359b430317dde7,0.087,0.087,1,78,240,18,1,twoone,,,,,,,,,,,,,,,,,,,,,,,,,,,,,,,,,,,,,,,,,,,,,,,,,,,,,,,,,,,,,,,,,,,,,,,,,,,,,,,,,,,,,,,,,,,,,,,,,,,,,,,,,,,,,,,,,,,,,,,,,,,,,,,,,,,,,,,,,
,,648b962b8fdb1fa686213ac1,2024-02-18_23h22.06.888,kallum_motion_pilot,2023.2.2,Win32,60.0240096,648b962b8fdb1fa686213ac1,65d2b6c8f2eece985d8e374c,65d2bb2baf359b430317dde7,0.087,0.087,1,79,241,73,1,onethree,,,,,,,,,,,,,,,,,,,,,,,,,,,,,,,,,,,,,,,,,,,,,,,,,,,,,,,,,,,,,,,,,,,,,,,,,,,,,,,,,,,,,,,,,,,,,,,,,,,,,,,,,,,,,,,,,,,,,,,,,,,,,,,,,,,,,,,,,
,,648b962b8fdb1fa686213ac1,2024-02-18_23h22.06.888,kallum_motion_pilot,2023.2.2,Win32,60.0240096,648b962b8fdb1fa686213ac1,65d2b6c8f2eece985d8e374c,65d2bb2baf359b430317dde7,0.087,0.087,1,80,242,67,1,twofour,,,,,,,,,,,,,,,,,,,,,,,,,,,,,,,,,,,,,,,,,,,,,,,,,,,,,,,,,,,,,,,,,,,,,,,,,,,,,,,,,,,,,,,,,,,,,,,,,,,,,,,,,,,,,,,,,,,,,,,,,,,,,,,,,,,,,,,,,
,,648b962b8fdb1fa686213ac1,2024-02-18_23h22.06.888,kallum_motion_pilot,2023.2.2,Win32,60.0240096,648b962b8fdb1fa686213ac1,65d2b6c8f2eece985d8e374c,65d2bb2baf359b430317dde7,0.088,0.088,1,81,243,153,1,fiveseven,,,,,,,,,,,,,,,,,,,,,,,,,,,,,,,,,,,,,,,,,,,,,,,,,,,,,,,,,,,,,,,,,,,,,,,,,,,,,,,,,,,,,,,,,,,,,,,,,,,,,,,,,,,,,,,,,,,,,,,,,,,,,,,,,,,,,,,,,
,,648b962b8fdb1fa686213ac1,2024-02-18_23h22.06.888,kallum_motion_pilot,2023.2.2,Win32,60.0240096,648b962b8fdb1fa686213ac1,65d2b6c8f2eece985d8e374c,65d2bb2baf359b430317dde7,0.088,0.088,1,82,244,66,1,twoone,,,,,,,,,,,,,,,,,,,,,,,,,,,,,,,,,,,,,,,,,,,,,,,,,,,,,,,,,,,,,,,,,,,,,,,,,,,,,,,,,,,,,,,,,,,,,,,,,,,,,,,,,,,,,,,,,,,,,,,,,,,,,,,,,,,,,,,,,
,,648b962b8fdb1fa686213ac1,2024-02-18_23h22.06.888,kallum_motion_pilot,2023.2.2,Win32,60.0240096,648b962b8fdb1fa686213ac1,65d2b6c8f2eece985d8e374c,65d2bb2baf359b430317dde7,0.088,0.088,1,83,245,89,1,fiveseven,,,,,,,,,,,,,,,,,,,,,,,,,,,,,,,,,,,,,,,,,,,,,,,,,,,,,,,,,,,,,,,,,,,,,,,,,,,,,,,,,,,,,,,,,,,,,,,,,,,,,,,,,,,,,,,,,,,,,,,,,,,,,,,,,,,,,,,,,
,,648b962b8fdb1fa686213ac1,2024-02-18_23h22.06.888,kallum_motion_pilot,2023.2.2,Win32,60.0240096,648b962b8fdb1fa686213ac1,65d2b6c8f2eece985d8e374c,65d2bb2baf359b430317dde7,0.088,0.088,1,84,246,104,1,fivesix,,,,,,,,,,,,,,,,,,,,,,,,,,,,,,,,,,,,,,,,,,,,,,,,,,,,,,,,,,,,,,,,,,,,,,,,,,,,,,,,,,,,,,,,,,,,,,,,,,,,,,,,,,,,,,,,,,,,,,,,,,,,,,,,,,,,,,,,,
,,648b962b8fdb1fa686213ac1,2024-02-18_23h22.06.888,kallum_motion_pilot,2023.2.2,Win32,60.0240096,648b962b8fdb1fa686213ac1,65d2b6c8f2eece985d8e374c,65d2bb2baf359b430317dde7,0.089,0.089,1,85,247,36,1,threeone,,,,,,,,,,,,,,,,,,,,,,,,,,,,,,,,,,,,,,,,,,,,,,,,,,,,,,,,,,,,,,,,,,,,,,,,,,,,,,,,,,,,,,,,,,,,,,,,,,,,,,,,,,,,,,,,,,,,,,,,,,,,,,,,,,,,,,,,,
,,648b962b8fdb1fa686213ac1,2024-02-18_23h22.06.888,kallum_motion_pilot,2023.2.2,Win32,60.0240096,648b962b8fdb1fa686213ac1,65d2b6c8f2eece985d8e374c,65d2bb2baf359b430317dde7,0.089,0.089,1,86,248,64,1,onetwo,,,,,,,,,,,,,,,,,,,,,,,,,,,,,,,,,,,,,,,,,,,,,,,,,,,,,,,,,,,,,,,,,,,,,,,,,,,,,,,,,,,,,,,,,,,,,,,,,,,,,,,,,,,,,,,,,,,,,,,,,,,,,,,,,,,,,,,,,
,,648b962b8fdb1fa686213ac1,2024-02-18_23h22.06.888,kallum_motion_pilot,2023.2.2,Win32,60.0240096,648b962b8fdb1fa686213ac1,65d2b6c8f2eece985d8e374c,65d2bb2baf359b430317dde7,0.089,0.089,1,87,249,33,1,onethree,,,,,,,,,,,,,,,,,,,,,,,,,,,,,,,,,,,,,,,,,,,,,,,,,,,,,,,,,,,,,,,,,,,,,,,,,,,,,,,,,,,,,,,,,,,,,,,,,,,,,,,,,,,,,,,,,,,,,,,,,,,,,,,,,,,,,,,,,
,,648b962b8fdb1fa686213ac1,2024-02-18_23h22.06.888,kallum_motion_pilot,2023.2.2,Win32,60.0240096,648b962b8fdb1fa686213ac1,65d2b6c8f2eece985d8e374c,65d2bb2baf359b430317dde7,0.089,0.089,1,88,250,77,1,threefour,,,,,,,,,,,,,,,,,,,,,,,,,,,,,,,,,,,,,,,,,,,,,,,,,,,,,,,,,,,,,,,,,,,,,,,,,,,,,,,,,,,,,,,,,,,,,,,,,,,,,,,,,,,,,,,,,,,,,,,,,,,,,,,,,,,,,,,,,
,,648b962b8fdb1fa686213ac1,2024-02-18_23h22.06.888,kallum_motion_pilot,2023.2.2,Win32,60.0240096,648b962b8fdb1fa686213ac1,65d2b6c8f2eece985d8e374c,65d2bb2baf359b430317dde7,0.09,0.09,1,89,251,88,1,fivesix,,,,,,,,,,,,,,,,,,,,,,,,,,,,,,,,,,,,,,,,,,,,,,,,,,,,,,,,,,,,,,,,,,,,,,,,,,,,,,,,,,,,,,,,,,,,,,,,,,,,,,,,,,,,,,,,,,,,,,,,,,,,,,,,,,,,,,,,,
,,648b962b8fdb1fa686213ac1,2024-02-18_23h22.06.888,kallum_motion_pilot,2023.2.2,Win32,60.0240096,648b962b8fdb1fa686213ac1,65d2b6c8f2eece985d8e374c,65d2bb2baf359b430317dde7,0.09,0.09,1,90,252,27,1,twofour,,,,,,,,,,,,,,,,,,,,,,,,,,,,,,,,,,,,,,,,,,,,,,,,,,,,,,,,,,,,,,,,,,,,,,,,,,,,,,,,,,,,,,,,,,,,,,,,,,,,,,,,,,,,,,,,,,,,,,,,,,,,,,,,,,,,,,,,,
,,648b962b8fdb1fa686213ac1,2024-02-18_23h22.06.888,kallum_motion_pilot,2023.2.2,Win32,60.0240096,648b962b8fdb1fa686213ac1,65d2b6c8f2eece985d8e374c,65d2bb2baf359b430317dde7,0.09,0.09,1,91,253,20,1,threeone,,,,,,,,,,,,,,,,,,,,,,,,,,,,,,,,,,,,,,,,,,,,,,,,,,,,,,,,,,,,,,,,,,,,,,,,,,,,,,,,,,,,,,,,,,,,,,,,,,,,,,,,,,,,,,,,,,,,,,,,,,,,,,,,,,,,,,,,,
,,648b962b8fdb1fa686213ac1,2024-02-18_23h22.06.888,kallum_motion_pilot,2023.2.2,Win32,60.0240096,648b962b8fdb1fa686213ac1,65d2b6c8f2eece985d8e374c,65d2bb2baf359b430317dde7,0.09,0.09,1,92,254,68,1,threeone,,,,,,,,,,,,,,,,,,,,,,,,,,,,,,,,,,,,,,,,,,,,,,,,,,,,,,,,,,,,,,,,,,,,,,,,,,,,,,,,,,,,,,,,,,,,,,,,,,,,,,,,,,,,,,,,,,,,,,,,,,,,,,,,,,,,,,,,,
,,648b962b8fdb1fa686213ac1,2024-02-18_23h22.06.888,kallum_motion_pilot,2023.2.2,Win32,60.0240096,648b962b8fdb1fa686213ac1,65d2b6c8f2eece985d8e374c,65d2bb2baf359b430317dde7,0.09,0.09,1,93,255,63,1,fourthree,,,,,,,,,,,,,,,,,,,,,,,,,,,,,,,,,,,,,,,,,,,,,,,,,,,,,,,,,,,,,,,,,,,,,,,,,,,,,,,,,,,,,,,,,,,,,,,,,,,,,,,,,,,,,,,,,,,,,,,,,,,,,,,,,,,,,,,,,
,,648b962b8fdb1fa686213ac1,2024-02-18_23h22.06.888,kallum_motion_pilot,2023.2.2,Win32,60.0240096,648b962b8fdb1fa686213ac1,65d2b6c8f2eece985d8e374c,65d2bb2baf359b430317dde7,0.091,0.091,1,94,256,41,1,onethree,,,,,,,,,,,,,,,,,,,,,,,,,,,,,,,,,,,,,,,,,,,,,,,,,,,,,,,,,,,,,,,,,,,,,,,,,,,,,,,,,,,,,,,,,,,,,,,,,,,,,,,,,,,,,,,,,,,,,,,,,,,,,,,,,,,,,,,,,
,,648b962b8fdb1fa686213ac1,2024-02-18_23h22.06.888,kallum_motion_pilot,2023.2.2,Win32,60.0240096,648b962b8fdb1fa686213ac1,65d2b6c8f2eece985d8e374c,65d2bb2baf359b430317dde7,0.091,0.091,1,95,257,87,1,eightseven,,,,,,,,,,,,,,,,,,,,,,,,,,,,,,,,,,,,,,,,,,,,,,,,,,,,,,,,,,,,,,,,,,,,,,,,,,,,,,,,,,,,,,,,,,,,,,,,,,,,,,,,,,,,,,,,,,,,,,,,,,,,,,,,,,,,,,,,,
,,648b962b8fdb1fa686213ac1,2024-02-18_23h22.06.888,kallum_motion_pilot,2023.2.2,Win32,60.0240096,648b962b8fdb1fa686213ac1,65d2b6c8f2eece985d8e374c,65d2bb2baf359b430317dde7,0.091,0.091,1,96,258,126,1,eightsix,,,,,,,,,,,,,,,,,,,,,,,,,,,,,,,,,,,,,,,,,,,,,,,,,,,,,,,,,,,,,,,,,,,,,,,,,,,,,,,,,,,,,,,,,,,,,,,,,,,,,,,,,,,,,,,,,,,,,,,,,,,,,,,,,,,,,,,,,
,,648b962b8fdb1fa686213ac1,2024-02-18_23h22.06.888,kallum_motion_pilot,2023.2.2,Win32,60.0240096,648b962b8fdb1fa686213ac1,65d2b6c8f2eece985d8e374c,65d2bb2baf359b430317dde7,0.091,0.091,1,97,259,86,1,eightsix,,,,,,,,,,,,,,,,,,,,,,,,,,,,,,,,,,,,,,,,,,,,,,,,,,,,,,,,,,,,,,,,,,,,,,,,,,,,,,,,,,,,,,,,,,,,,,,,,,,,,,,,,,,,,,,,,,,,,,,,,,,,,,,,,,,,,,,,,
,,648b962b8fdb1fa686213ac1,2024-02-18_23h22.06.888,kallum_motion_pilot,2023.2.2,Win32,60.0240096,648b962b8fdb1fa686213ac1,65d2b6c8f2eece985d8e374c,65d2bb2baf359b430317dde7,0.091,0.091,1,98,260,22,1,fourtwo,,,,,,,,,,,,,,,,,,,,,,,,,,,,,,,,,,,,,,,,,,,,,,,,,,,,,,,,,,,,,,,,,,,,,,,,,,,,,,,,,,,,,,,,,,,,,,,,,,,,,,,,,,,,,,,,,,,,,,,,,,,,,,,,,,,,,,,,,
,,648b962b8fdb1fa686213ac1,2024-02-18_23h22.06.888,kallum_motion_pilot,2023.2.2,Win32,60.0240096,648b962b8fdb1fa686213ac1,65d2b6c8f2eece985d8e374c,65d2bb2baf359b430317dde7,0.092,0.092,1,99,261,82,1,sixfive,,,,,,,,,,,,,,,,,,,,,,,,,,,,,,,,,,,,,,,,,,,,,,,,,,,,,,,,,,,,,,,,,,,,,,,,,,,,,,,,,,,,,,,,,,,,,,,,,,,,,,,,,,,,,,,,,,,,,,,,,,,,,,,,,,,,,,,,,
,,648b962b8fdb1fa686213ac1,2024-02-18_23h22.06.888,kallum_motion_pilot,2023.2.2,Win32,60.0240096,648b962b8fdb1fa686213ac1,65d2b6c8f2eece985d8e374c,65d2bb2baf359b430317dde7,0.092,0.092,1,100,262,37,1,threefour,,,,,,,,,,,,,,,,,,,,,,,,,,,,,,,,,,,,,,,,,,,,,,,,,,,,,,,,,,,,,,,,,,,,,,,,,,,,,,,,,,,,,,,,,,,,,,,,,,,,,,,,,,,,,,,,,,,,,,,,,,,,,,,,,,,,,,,,,
,,648b962b8fdb1fa686213ac1,2024-02-18_23h22.06.888,kallum_motion_pilot,2023.2.2,Win32,60.0240096,648b962b8fdb1fa686213ac1,65d2b6c8f2eece985d8e374c,65d2bb2baf359b430317dde7,0.092,0.092,1,101,263,148,1,sevenfive,,,,,,,,,,,,,,,,,,,,,,,,,,,,,,,,,,,,,,,,,,,,,,,,,,,,,,,,,,,,,,,,,,,,,,,,,,,,,,,,,,,,,,,,,,,,,,,,,,,,,,,,,,,,,,,,,,,,,,,,,,,,,,,,,,,,,,,,,
,,648b962b8fdb1fa686213ac1,2024-02-18_23h22.06.888,kallum_motion_pilot,2023.2.2,Win32,60.0240096,648b962b8fdb1fa686213ac1,65d2b6c8f2eece985d8e374c,65d2bb2baf359b430317dde7,0.092,0.092,1,102,264,6,1,fourtwo,,,,,,,,,,,,,,,,,,,,,,,,,,,,,,,,,,,,,,,,,,,,,,,,,,,,,,,,,,,,,,,,,,,,,,,,,,,,,,,,,,,,,,,,,,,,,,,,,,,,,,,,,,,,,,,,,,,,,,,,,,,,,,,,,,,,,,,,,
,,648b962b8fdb1fa686213ac1,2024-02-18_23h22.06.888,kallum_motion_pilot,2023.2.2,Win32,60.0240096,648b962b8fdb1fa686213ac1,65d2b6c8f2eece985d8e374c,65d2bb2baf359b430317dde7,0.093,0.093,1,103,265,43,1,twofour,,,,,,,,,,,,,,,,,,,,,,,,,,,,,,,,,,,,,,,,,,,,,,,,,,,,,,,,,,,,,,,,,,,,,,,,,,,,,,,,,,,,,,,,,,,,,,,,,,,,,,,,,,,,,,,,,,,,,,,,,,,,,,,,,,,,,,,,,
,,648b962b8fdb1fa686213ac1,2024-02-18_23h22.06.888,kallum_motion_pilot,2023.2.2,Win32,60.0240096,648b962b8fdb1fa686213ac1,65d2b6c8f2eece985d8e374c,65d2bb2baf359b430317dde7,0.093,0.093,1,104,266,92,1,sevenfive,,,,,,,,,,,,,,,,,,,,,,,,,,,,,,,,,,,,,,,,,,,,,,,,,,,,,,,,,,,,,,,,,,,,,,,,,,,,,,,,,,,,,,,,,,,,,,,,,,,,,,,,,,,,,,,,,,,,,,,,,,,,,,,,,,,,,,,,,
,,648b962b8fdb1fa686213ac1,2024-02-18_23h22.06.888,kallum_motion_pilot,2023.2.2,Win32,60.0240096,648b962b8fdb1fa686213ac1,65d2b6c8f2eece985d8e374c,65d2bb2baf359b430317dde7,0.093,0.093,1,105,267,90,1,sixfive,,,,,,,,,,,,,,,,,,,,,,,,,,,,,,,,,,,,,,,,,,,,,,,,,,,,,,,,,,,,,,,,,,,,,,,,,,,,,,,,,,,,,,,,,,,,,,,,,,,,,,,,,,,,,,,,,,,,,,,,,,,,,,,,,,,,,,,,,
,,648b962b8fdb1fa686213ac1,2024-02-18_23h22.06.888,kallum_motion_pilot,2023.2.2,Win32,60.0240096,648b962b8fdb1fa686213ac1,65d2b6c8f2eece985d8e374c,65d2bb2baf359b430317dde7,0.093,0.093,1,106,268,139,1,sixeight,,,,,,,,,,,,,,,,,,,,,,,,,,,,,,,,,,,,,,,,,,,,,,,,,,,,,,,,,,,,,,,,,,,,,,,,,,,,,,,,,,,,,,,,,,,,,,,,,,,,,,,,,,,,,,,,,,,,,,,,,,,,,,,,,,,,,,,,,
,,648b962b8fdb1fa686213ac1,2024-02-18_23h22.06.888,kallum_motion_pilot,2023.2.2,Win32,60.0240096,648b962b8fdb1fa686213ac1,65d2b6c8f2eece985d8e374c,65d2bb2baf359b430317dde7,0.093,0.093,1,107,269,49,1,onethree,,,,,,,,,,,,,,,,,,,,,,,,,,,,,,,,,,,,,,,,,,,,,,,,,,,,,,,,,,,,,,,,,,,,,,,,,,,,,,,,,,,,,,,,,,,,,,,,,,,,,,,,,,,,,,,,,,,,,,,,,,,,,,,,,,,,,,,,,
,,648b962b8fdb1fa686213ac1,2024-02-18_23h22.06.888,kallum_motion_pilot,2023.2.2,Win32,60.0240096,648b962b8fdb1fa686213ac1,65d2b6c8f2eece985d8e374c,65d2bb2baf359b430317dde7,0.093,0.093,1,108,270,113,1,fiveseven,,,,,,,,,,,,,,,,,,,,,,,,,,,,,,,,,,,,,,,,,,,,,,,,,,,,,,,,,,,,,,,,,,,,,,,,,,,,,,,,,,,,,,,,,,,,,,,,,,,,,,,,,,,,,,,,,,,,,,,,,,,,,,,,,,,,,,,,,
,,648b962b8fdb1fa686213ac1,2024-02-18_23h22.06.888,kallum_motion_pilot,2023.2.2,Win32,60.0240096,648b962b8fdb1fa686213ac1,65d2b6c8f2eece985d8e374c,65d2bb2baf359b430317dde7,0.094,0.094,1,109,271,31,1,fourthree,,,,,,,,,,,,,,,,,,,,,,,,,,,,,,,,,,,,,,,,,,,,,,,,,,,,,,,,,,,,,,,,,,,,,,,,,,,,,,,,,,,,,,,,,,,,,,,,,,,,,,,,,,,,,,,,,,,,,,,,,,,,,,,,,,,,,,,,,
,,648b962b8fdb1fa686213ac1,2024-02-18_23h22.06.888,kallum_motion_pilot,2023.2.2,Win32,60.0240096,648b962b8fdb1fa686213ac1,65d2b6c8f2eece985d8e374c,65d2bb2baf359b430317dde7,0.094,0.094,1,110,272,152,1,fivesix,,,,,,,,,,,,,,,,,,,,,,,,,,,,,,,,,,,,,,,,,,,,,,,,,,,,,,,,,,,,,,,,,,,,,,,,,,,,,,,,,,,,,,,,,,,,,,,,,,,,,,,,,,,,,,,,,,,,,,,,,,,,,,,,,,,,,,,,,
,,648b962b8fdb1fa686213ac1,2024-02-18_23h22.06.888,kallum_motion_pilot,2023.2.2,Win32,60.0240096,648b962b8fdb1fa686213ac1,65d2b6c8f2eece985d8e374c,65d2bb2baf359b430317dde7,0.094,0.094,1,111,273,3,1,twofour,,,,,,,,,,,,,,,,,,,,,,,,,,,,,,,,,,,,,,,,,,,,,,,,,,,,,,,,,,,,,,,,,,,,,,,,,,,,,,,,,,,,,,,,,,,,,,,,,,,,,,,,,,,,,,,,,,,,,,,,,,,,,,,,,,,,,,,,,
,,648b962b8fdb1fa686213ac1,2024-02-18_23h22.06.888,kallum_motion_pilot,2023.2.2,Win32,60.0240096,648b962b8fdb1fa686213ac1,65d2b6c8f2eece985d8e374c,65d2bb2baf359b430317dde7,0.094,0.094,1,112,274,57,1,onethree,,,,,,,,,,,,,,,,,,,,,,,,,,,,,,,,,,,,,,,,,,,,,,,,,,,,,,,,,,,,,,,,,,,,,,,,,,,,,,,,,,,,,,,,,,,,,,,,,,,,,,,,,,,,,,,,,,,,,,,,,,,,,,,,,,,,,,,,,
,,648b962b8fdb1fa686213ac1,2024-02-18_23h22.06.888,kallum_motion_pilot,2023.2.2,Win32,60.0240096,648b962b8fdb1fa686213ac1,65d2b6c8f2eece985d8e374c,65d2bb2baf359b430317dde7,0.094,0.094,1,113,275,158,1,eightsix,,,,,,,,,,,,,,,,,,,,,,,,,,,,,,,,,,,,,,,,,,,,,,,,,,,,,,,,,,,,,,,,,,,,,,,,,,,,,,,,,,,,,,,,,,,,,,,,,,,,,,,,,,,,,,,,,,,,,,,,,,,,,,,,,,,,,,,,,
,,648b962b8fdb1fa686213ac1,2024-02-18_23h22.06.888,kallum_motion_pilot,2023.2.2,Win32,60.0240096,648b962b8fdb1fa686213ac1,65d2b6c8f2eece985d8e374c,65d2bb2baf359b430317dde7,0.094,0.094,1,114,276,96,1,fivesix,,,,,,,,,,,,,,,,,,,,,,,,,,,,,,,,,,,,,,,,,,,,,,,,,,,,,,,,,,,,,,,,,,,,,,,,,,,,,,,,,,,,,,,,,,,,,,,,,,,,,,,,,,,,,,,,,,,,,,,,,,,,,,,,,,,,,,,,,
,,648b962b8fdb1fa686213ac1,2024-02-18_23h22.06.888,kallum_motion_pilot,2023.2.2,Win32,60.0240096,648b962b8fdb1fa686213ac1,65d2b6c8f2eece985d8e374c,65d2bb2baf359b430317dde7,0.094,0.095,1,115,277,111,1,eightseven,,,,,,,,,,,,,,,,,,,,,,,,,,,,,,,,,,,,,,,,,,,,,,,,,,,,,,,,,,,,,,,,,,,,,,,,,,,,,,,,,,,,,,,,,,,,,,,,,,,,,,,,,,,,,,,,,,,,,,,,,,,,,,,,,,,,,,,,,
,,648b962b8fdb1fa686213ac1,2024-02-18_23h22.06.888,kallum_motion_pilot,2023.2.2,Win32,60.0240096,648b962b8fdb1fa686213ac1,65d2b6c8f2eece985d8e374c,65d2bb2baf359b430317dde7,0.095,0.095,1,116,278,54,1,fourtwo,,,,,,,,,,,,,,,,,,,,,,,,,,,,,,,,,,,,,,,,,,,,,,,,,,,,,,,,,,,,,,,,,,,,,,,,,,,,,,,,,,,,,,,,,,,,,,,,,,,,,,,,,,,,,,,,,,,,,,,,,,,,,,,,,,,,,,,,,
,,648b962b8fdb1fa686213ac1,2024-02-18_23h22.06.888,kallum_motion_pilot,2023.2.2,Win32,60.0240096,648b962b8fdb1fa686213ac1,65d2b6c8f2eece985d8e374c,65d2bb2baf359b430317dde7,0.095,0.095,1,117,279,155,1,sixeight,,,,,,,,,,,,,,,,,,,,,,,,,,,,,,,,,,,,,,,,,,,,,,,,,,,,,,,,,,,,,,,,,,,,,,,,,,,,,,,,,,,,,,,,,,,,,,,,,,,,,,,,,,,,,,,,,,,,,,,,,,,,,,,,,,,,,,,,,
,,648b962b8fdb1fa686213ac1,2024-02-18_23h22.06.888,kallum_motion_pilot,2023.2.2,Win32,60.0240096,648b962b8fdb1fa686213ac1,65d2b6c8f2eece985d8e374c,65d2bb2baf359b430317dde7,0.095,0.095,1,118,280,70,1,fourtwo,,,,,,,,,,,,,,,,,,,,,,,,,,,,,,,,,,,,,,,,,,,,,,,,,,,,,,,,,,,,,,,,,,,,,,,,,,,,,,,,,,,,,,,,,,,,,,,,,,,,,,,,,,,,,,,,,,,,,,,,,,,,,,,,,,,,,,,,,
