startup.started,startup.stopped,Prolific ID*,date,expName,psychopyVersion,OS,frameRate,participant,study_id,session,stimpositions.started,stimpositions.stopped,hardcoded_stimulus_positions.thisRepN,hardcoded_stimulus_positions.thisTrialN,hardcoded_stimulus_positions.thisN,hardcoded_stimulus_positions.thisIndex,hardcoded_stimulus_positions.ran,StimulusPos,stimorientation.started,stimorientation.stopped,prac_stimorientation_import_loop.thisRepN,prac_stimorientation_import_loop.thisTrialN,prac_stimorientation_import_loop.thisN,prac_stimorientation_import_loop.thisIndex,prac_stimorientation_import_loop.ran,Stimorientation,welcome_instr.started,welcome_instr.stopped,key_resp.keys,key_resp.rt,key_resp.duration,response_steppedout_1.started,response_steppedout_1.stopped,key_resp_20.keys,key_resp_20.rt,key_resp_20.duration,response_steppedout_2.started,response_steppedout_2.stopped,key_resp_19.keys,key_resp_19.rt,key_resp_19.duration,stim_response_instr.started,stim_response_instr.stopped,key_resp_15.keys,key_resp_15.rt,key_resp_15.duration,direction_instr_2.started,direction_instr_2.stopped,key_resp_9.keys,key_resp_9.rt,key_resp_9.duration,instr_prac.started,instr_prac.stopped,key_resp_10.keys,key_resp_10.rt,key_resp_10.duration,Stim1_display_prac.started,Stim1_display_prac.stopped,Ecc,Circle1_ori,Circle2_ori,response_prac.started,similarity,response_time,response_prac.stopped,mouse_5.x,mouse_5.y,mouse_5.leftButton,mouse_5.midButton,mouse_5.rightButton,mouse_5.clicked_name,responseprac_feedback.started,responseprac_feedback.stopped,summary2_prac.started,summary2_prac.stopped,mouse_6.x,mouse_6.y,mouse_6.leftButton,mouse_6.midButton,mouse_6.rightButton,mouse_6.clicked_name,duringprac.thisRepN,duringprac.thisTrialN,duringprac.thisN,duringprac.thisIndex,duringprac.ran,begin.started,begin.stopped,key_resp_22.keys,key_resp_22.rt,key_resp_22.duration,Stim1_display.started,Stim1_display.stopped,circle1_ori,circle2_ori,circle1_SF,circle2_SF,response.started,response.stopped,mouse.x,mouse.y,mouse.leftButton,mouse.midButton,mouse.rightButton,mouse.clicked_name,trialnumber,double_pass.thisRepN,double_pass.thisTrialN,double_pass.thisN,double_pass.thisIndex,double_pass.ran,double_pass.order,main_trial.thisRepN,main_trial.thisTrialN,main_trial.thisN,main_trial.thisIndex,main_trial.ran,main_trial.order,Trial_Counter,Catch,Frequencies,response_2.started,response_2.stopped,mouse_2.x,mouse_2.y,mouse_2.leftButton,mouse_2.midButton,mouse_2.rightButton,mouse_2.clicked_name,special_trial.started,special_trial.stopped,catch_1.started,catch_1.stopped,mouse_3.x,mouse_3.y,mouse_3.leftButton,mouse_3.midButton,mouse_3.rightButton,catchresponse,catchnumber,response_time_catch,response_sum.started,response_sum.stopped,mouse_11.x,mouse_11.y,mouse_11.leftButton,mouse_11.midButton,mouse_11.rightButton,flip_presentation_sequence_for_double_pass.started,flip_presentation_sequence_for_double_pass.stopped,goodbye.started,goodbye.stopped,key_resp_3.keys,key_resp_3.rt,key_resp_3.duration
0.0006,0.0008,64988510fe500ee3533884a8,2024-02-18_20h08.59.583,kallum_motion_pilot,2023.2.2,Win32,59.88023952,64988510fe500ee3533884a8,65d2b6c8f2eece985d8e374c,65d2b7cec67a654a5c71c239,,,,,,,,,,,,,,,,,,,,,,,,,,,,,,,,,,,,,,,,,,,,,,,,,,,,,,,,,,,,,,,,,,,,,,,,,,,,,,,,,,,,,,,,,,,,,,,,,,,,,,,,,,,,,,,,,,,,,,,,,,,,,,,,,,,,,,,,,,,,,,,,,
,,64988510fe500ee3533884a8,2024-02-18_20h08.59.583,kallum_motion_pilot,2023.2.2,Win32,59.88023952,64988510fe500ee3533884a8,65d2b6c8f2eece985d8e374c,65d2b7cec67a654a5c71c239,0.3513,0.3521,0,0,0,92,1,sevenfive,,,,,,,,,,,,,,,,,,,,,,,,,,,,,,,,,,,,,,,,,,,,,,,,,,,,,,,,,,,,,,,,,,,,,,,,,,,,,,,,,,,,,,,,,,,,,,,,,,,,,,,,,,,,,,,,,,,,,,,,,,,,,,,,,,,,,,,,,
,,64988510fe500ee3533884a8,2024-02-18_20h08.59.583,kallum_motion_pilot,2023.2.2,Win32,59.88023952,64988510fe500ee3533884a8,65d2b6c8f2eece985d8e374c,65d2b7cec67a654a5c71c239,0.3533,0.3537,0,1,1,13,1,threefour,,,,,,,,,,,,,,,,,,,,,,,,,,,,,,,,,,,,,,,,,,,,,,,,,,,,,,,,,,,,,,,,,,,,,,,,,,,,,,,,,,,,,,,,,,,,,,,,,,,,,,,,,,,,,,,,,,,,,,,,,,,,,,,,,,,,,,,,,
,,64988510fe500ee3533884a8,2024-02-18_20h08.59.583,kallum_motion_pilot,2023.2.2,Win32,59.88023952,64988510fe500ee3533884a8,65d2b6c8f2eece985d8e374c,65d2b7cec67a654a5c71c239,0.3544,0.3547,0,2,2,20,1,threeone,,,,,,,,,,,,,,,,,,,,,,,,,,,,,,,,,,,,,,,,,,,,,,,,,,,,,,,,,,,,,,,,,,,,,,,,,,,,,,,,,,,,,,,,,,,,,,,,,,,,,,,,,,,,,,,,,,,,,,,,,,,,,,,,,,,,,,,,,
,,64988510fe500ee3533884a8,2024-02-18_20h08.59.583,kallum_motion_pilot,2023.2.2,Win32,59.88023952,64988510fe500ee3533884a8,65d2b6c8f2eece985d8e374c,65d2b7cec67a654a5c71c239,0.3554,0.3558,0,3,3,57,1,onethree,,,,,,,,,,,,,,,,,,,,,,,,,,,,,,,,,,,,,,,,,,,,,,,,,,,,,,,,,,,,,,,,,,,,,,,,,,,,,,,,,,,,,,,,,,,,,,,,,,,,,,,,,,,,,,,,,,,,,,,,,,,,,,,,,,,,,,,,,
,,64988510fe500ee3533884a8,2024-02-18_20h08.59.583,kallum_motion_pilot,2023.2.2,Win32,59.88023952,64988510fe500ee3533884a8,65d2b6c8f2eece985d8e374c,65d2b7cec67a654a5c71c239,0.3565,0.3568,0,4,4,149,1,seveneight,,,,,,,,,,,,,,,,,,,,,,,,,,,,,,,,,,,,,,,,,,,,,,,,,,,,,,,,,,,,,,,,,,,,,,,,,,,,,,,,,,,,,,,,,,,,,,,,,,,,,,,,,,,,,,,,,,,,,,,,,,,,,,,,,,,,,,,,,
,,64988510fe500ee3533884a8,2024-02-18_20h08.59.583,kallum_motion_pilot,2023.2.2,Win32,59.88023952,64988510fe500ee3533884a8,65d2b6c8f2eece985d8e374c,65d2b7cec67a654a5c71c239,0.3575,0.3579,0,5,5,83,1,sixeight,,,,,,,,,,,,,,,,,,,,,,,,,,,,,,,,,,,,,,,,,,,,,,,,,,,,,,,,,,,,,,,,,,,,,,,,,,,,,,,,,,,,,,,,,,,,,,,,,,,,,,,,,,,,,,,,,,,,,,,,,,,,,,,,,,,,,,,,,
,,64988510fe500ee3533884a8,2024-02-18_20h08.59.583,kallum_motion_pilot,2023.2.2,Win32,59.88023952,64988510fe500ee3533884a8,65d2b6c8f2eece985d8e374c,65d2b7cec67a654a5c71c239,0.3592,0.3596,0,6,6,77,1,threefour,,,,,,,,,,,,,,,,,,,,,,,,,,,,,,,,,,,,,,,,,,,,,,,,,,,,,,,,,,,,,,,,,,,,,,,,,,,,,,,,,,,,,,,,,,,,,,,,,,,,,,,,,,,,,,,,,,,,,,,,,,,,,,,,,,,,,,,,,
,,64988510fe500ee3533884a8,2024-02-18_20h08.59.583,kallum_motion_pilot,2023.2.2,Win32,59.88023952,64988510fe500ee3533884a8,65d2b6c8f2eece985d8e374c,65d2b7cec67a654a5c71c239,0.3602,0.3605,0,7,7,93,1,seveneight,,,,,,,,,,,,,,,,,,,,,,,,,,,,,,,,,,,,,,,,,,,,,,,,,,,,,,,,,,,,,,,,,,,,,,,,,,,,,,,,,,,,,,,,,,,,,,,,,,,,,,,,,,,,,,,,,,,,,,,,,,,,,,,,,,,,,,,,,
,,64988510fe500ee3533884a8,2024-02-18_20h08.59.583,kallum_motion_pilot,2023.2.2,Win32,59.88023952,64988510fe500ee3533884a8,65d2b6c8f2eece985d8e374c,65d2b7cec67a654a5c71c239,0.3612,0.3615,0,8,8,86,1,eightsix,,,,,,,,,,,,,,,,,,,,,,,,,,,,,,,,,,,,,,,,,,,,,,,,,,,,,,,,,,,,,,,,,,,,,,,,,,,,,,,,,,,,,,,,,,,,,,,,,,,,,,,,,,,,,,,,,,,,,,,,,,,,,,,,,,,,,,,,,
,,64988510fe500ee3533884a8,2024-02-18_20h08.59.583,kallum_motion_pilot,2023.2.2,Win32,59.88023952,64988510fe500ee3533884a8,65d2b6c8f2eece985d8e374c,65d2b7cec67a654a5c71c239,0.3624,0.3628,0,9,9,58,1,twoone,,,,,,,,,,,,,,,,,,,,,,,,,,,,,,,,,,,,,,,,,,,,,,,,,,,,,,,,,,,,,,,,,,,,,,,,,,,,,,,,,,,,,,,,,,,,,,,,,,,,,,,,,,,,,,,,,,,,,,,,,,,,,,,,,,,,,,,,,
,,64988510fe500ee3533884a8,2024-02-18_20h08.59.583,kallum_motion_pilot,2023.2.2,Win32,59.88023952,64988510fe500ee3533884a8,65d2b6c8f2eece985d8e374c,65d2b7cec67a654a5c71c239,0.3634,0.3638,0,10,10,112,1,fivesix,,,,,,,,,,,,,,,,,,,,,,,,,,,,,,,,,,,,,,,,,,,,,,,,,,,,,,,,,,,,,,,,,,,,,,,,,,,,,,,,,,,,,,,,,,,,,,,,,,,,,,,,,,,,,,,,,,,,,,,,,,,,,,,,,,,,,,,,,
,,64988510fe500ee3533884a8,2024-02-18_20h08.59.583,kallum_motion_pilot,2023.2.2,Win32,59.88023952,64988510fe500ee3533884a8,65d2b6c8f2eece985d8e374c,65d2b7cec67a654a5c71c239,0.3644,0.3647,0,11,11,119,1,eightseven,,,,,,,,,,,,,,,,,,,,,,,,,,,,,,,,,,,,,,,,,,,,,,,,,,,,,,,,,,,,,,,,,,,,,,,,,,,,,,,,,,,,,,,,,,,,,,,,,,,,,,,,,,,,,,,,,,,,,,,,,,,,,,,,,,,,,,,,,
,,64988510fe500ee3533884a8,2024-02-18_20h08.59.583,kallum_motion_pilot,2023.2.2,Win32,59.88023952,64988510fe500ee3533884a8,65d2b6c8f2eece985d8e374c,65d2b7cec67a654a5c71c239,0.3653,0.3657,0,12,12,155,1,sixeight,,,,,,,,,,,,,,,,,,,,,,,,,,,,,,,,,,,,,,,,,,,,,,,,,,,,,,,,,,,,,,,,,,,,,,,,,,,,,,,,,,,,,,,,,,,,,,,,,,,,,,,,,,,,,,,,,,,,,,,,,,,,,,,,,,,,,,,,,
,,64988510fe500ee3533884a8,2024-02-18_20h08.59.583,kallum_motion_pilot,2023.2.2,Win32,59.88023952,64988510fe500ee3533884a8,65d2b6c8f2eece985d8e374c,65d2b7cec67a654a5c71c239,0.3664,0.3666,0,13,13,80,1,fivesix,,,,,,,,,,,,,,,,,,,,,,,,,,,,,,,,,,,,,,,,,,,,,,,,,,,,,,,,,,,,,,,,,,,,,,,,,,,,,,,,,,,,,,,,,,,,,,,,,,,,,,,,,,,,,,,,,,,,,,,,,,,,,,,,,,,,,,,,,
,,64988510fe500ee3533884a8,2024-02-18_20h08.59.583,kallum_motion_pilot,2023.2.2,Win32,59.88023952,64988510fe500ee3533884a8,65d2b6c8f2eece985d8e374c,65d2b7cec67a654a5c71c239,0.3672,0.3675,0,14,14,32,1,onetwo,,,,,,,,,,,,,,,,,,,,,,,,,,,,,,,,,,,,,,,,,,,,,,,,,,,,,,,,,,,,,,,,,,,,,,,,,,,,,,,,,,,,,,,,,,,,,,,,,,,,,,,,,,,,,,,,,,,,,,,,,,,,,,,,,,,,,,,,,
,,64988510fe500ee3533884a8,2024-02-18_20h08.59.583,kallum_motion_pilot,2023.2.2,Win32,59.88023952,64988510fe500ee3533884a8,65d2b6c8f2eece985d8e374c,65d2b7cec67a654a5c71c239,0.3681,0.3684,0,15,15,138,1,sixfive,,,,,,,,,,,,,,,,,,,,,,,,,,,,,,,,,,,,,,,,,,,,,,,,,,,,,,,,,,,,,,,,,,,,,,,,,,,,,,,,,,,,,,,,,,,,,,,,,,,,,,,,,,,,,,,,,,,,,,,,,,,,,,,,,,,,,,,,,
,,64988510fe500ee3533884a8,2024-02-18_20h08.59.583,kallum_motion_pilot,2023.2.2,Win32,59.88023952,64988510fe500ee3533884a8,65d2b6c8f2eece985d8e374c,65d2b7cec67a654a5c71c239,0.369,0.3692,0,16,16,85,1,seveneight,,,,,,,,,,,,,,,,,,,,,,,,,,,,,,,,,,,,,,,,,,,,,,,,,,,,,,,,,,,,,,,,,,,,,,,,,,,,,,,,,,,,,,,,,,,,,,,,,,,,,,,,,,,,,,,,,,,,,,,,,,,,,,,,,,,,,,,,,
,,64988510fe500ee3533884a8,2024-02-18_20h08.59.583,kallum_motion_pilot,2023.2.2,Win32,59.88023952,64988510fe500ee3533884a8,65d2b6c8f2eece985d8e374c,65d2b7cec67a654a5c71c239,0.3699,0.3701,0,17,17,115,1,sixeight,,,,,,,,,,,,,,,,,,,,,,,,,,,,,,,,,,,,,,,,,,,,,,,,,,,,,,,,,,,,,,,,,,,,,,,,,,,,,,,,,,,,,,,,,,,,,,,,,,,,,,,,,,,,,,,,,,,,,,,,,,,,,,,,,,,,,,,,,
,,64988510fe500ee3533884a8,2024-02-18_20h08.59.583,kallum_motion_pilot,2023.2.2,Win32,59.88023952,64988510fe500ee3533884a8,65d2b6c8f2eece985d8e374c,65d2b7cec67a654a5c71c239,0.3708,0.3711,0,18,18,84,1,sevenfive,,,,,,,,,,,,,,,,,,,,,,,,,,,,,,,,,,,,,,,,,,,,,,,,,,,,,,,,,,,,,,,,,,,,,,,,,,,,,,,,,,,,,,,,,,,,,,,,,,,,,,,,,,,,,,,,,,,,,,,,,,,,,,,,,,,,,,,,,
,,64988510fe500ee3533884a8,2024-02-18_20h08.59.583,kallum_motion_pilot,2023.2.2,Win32,59.88023952,64988510fe500ee3533884a8,65d2b6c8f2eece985d8e374c,65d2b7cec67a654a5c71c239,0.3717,0.372,0,19,19,122,1,sixfive,,,,,,,,,,,,,,,,,,,,,,,,,,,,,,,,,,,,,,,,,,,,,,,,,,,,,,,,,,,,,,,,,,,,,,,,,,,,,,,,,,,,,,,,,,,,,,,,,,,,,,,,,,,,,,,,,,,,,,,,,,,,,,,,,,,,,,,,,
,,64988510fe500ee3533884a8,2024-02-18_20h08.59.583,kallum_motion_pilot,2023.2.2,Win32,59.88023952,64988510fe500ee3533884a8,65d2b6c8f2eece985d8e374c,65d2b7cec67a654a5c71c239,0.3728,0.3731,0,20,20,143,1,eightseven,,,,,,,,,,,,,,,,,,,,,,,,,,,,,,,,,,,,,,,,,,,,,,,,,,,,,,,,,,,,,,,,,,,,,,,,,,,,,,,,,,,,,,,,,,,,,,,,,,,,,,,,,,,,,,,,,,,,,,,,,,,,,,,,,,,,,,,,,
,,64988510fe500ee3533884a8,2024-02-18_20h08.59.583,kallum_motion_pilot,2023.2.2,Win32,59.88023952,64988510fe500ee3533884a8,65d2b6c8f2eece985d8e374c,65d2b7cec67a654a5c71c239,0.3737,0.3739,0,21,21,126,1,eightsix,,,,,,,,,,,,,,,,,,,,,,,,,,,,,,,,,,,,,,,,,,,,,,,,,,,,,,,,,,,,,,,,,,,,,,,,,,,,,,,,,,,,,,,,,,,,,,,,,,,,,,,,,,,,,,,,,,,,,,,,,,,,,,,,,,,,,,,,,
,,64988510fe500ee3533884a8,2024-02-18_20h08.59.583,kallum_motion_pilot,2023.2.2,Win32,59.88023952,64988510fe500ee3533884a8,65d2b6c8f2eece985d8e374c,65d2b7cec67a654a5c71c239,0.3745,0.3748,0,22,22,103,1,eightseven,,,,,,,,,,,,,,,,,,,,,,,,,,,,,,,,,,,,,,,,,,,,,,,,,,,,,,,,,,,,,,,,,,,,,,,,,,,,,,,,,,,,,,,,,,,,,,,,,,,,,,,,,,,,,,,,,,,,,,,,,,,,,,,,,,,,,,,,,
,,64988510fe500ee3533884a8,2024-02-18_20h08.59.583,kallum_motion_pilot,2023.2.2,Win32,59.88023952,64988510fe500ee3533884a8,65d2b6c8f2eece985d8e374c,65d2b7cec67a654a5c71c239,0.3756,0.3759,0,23,23,135,1,eightseven,,,,,,,,,,,,,,,,,,,,,,,,,,,,,,,,,,,,,,,,,,,,,,,,,,,,,,,,,,,,,,,,,,,,,,,,,,,,,,,,,,,,,,,,,,,,,,,,,,,,,,,,,,,,,,,,,,,,,,,,,,,,,,,,,,,,,,,,,
,,64988510fe500ee3533884a8,2024-02-18_20h08.59.583,kallum_motion_pilot,2023.2.2,Win32,59.88023952,64988510fe500ee3533884a8,65d2b6c8f2eece985d8e374c,65d2b7cec67a654a5c71c239,0.3764,0.3767,0,24,24,76,1,threeone,,,,,,,,,,,,,,,,,,,,,,,,,,,,,,,,,,,,,,,,,,,,,,,,,,,,,,,,,,,,,,,,,,,,,,,,,,,,,,,,,,,,,,,,,,,,,,,,,,,,,,,,,,,,,,,,,,,,,,,,,,,,,,,,,,,,,,,,,
,,64988510fe500ee3533884a8,2024-02-18_20h08.59.583,kallum_motion_pilot,2023.2.2,Win32,59.88023952,64988510fe500ee3533884a8,65d2b6c8f2eece985d8e374c,65d2b7cec67a654a5c71c239,0.3771,0.3774,0,25,25,74,1,twoone,,,,,,,,,,,,,,,,,,,,,,,,,,,,,,,,,,,,,,,,,,,,,,,,,,,,,,,,,,,,,,,,,,,,,,,,,,,,,,,,,,,,,,,,,,,,,,,,,,,,,,,,,,,,,,,,,,,,,,,,,,,,,,,,,,,,,,,,,
,,64988510fe500ee3533884a8,2024-02-18_20h08.59.583,kallum_motion_pilot,2023.2.2,Win32,59.88023952,64988510fe500ee3533884a8,65d2b6c8f2eece985d8e374c,65d2b7cec67a654a5c71c239,0.3778,0.3781,0,26,26,4,1,threeone,,,,,,,,,,,,,,,,,,,,,,,,,,,,,,,,,,,,,,,,,,,,,,,,,,,,,,,,,,,,,,,,,,,,,,,,,,,,,,,,,,,,,,,,,,,,,,,,,,,,,,,,,,,,,,,,,,,,,,,,,,,,,,,,,,,,,,,,,
,,64988510fe500ee3533884a8,2024-02-18_20h08.59.583,kallum_motion_pilot,2023.2.2,Win32,59.88023952,64988510fe500ee3533884a8,65d2b6c8f2eece985d8e374c,65d2b7cec67a654a5c71c239,0.3784,0.3787,0,27,27,159,1,eightseven,,,,,,,,,,,,,,,,,,,,,,,,,,,,,,,,,,,,,,,,,,,,,,,,,,,,,,,,,,,,,,,,,,,,,,,,,,,,,,,,,,,,,,,,,,,,,,,,,,,,,,,,,,,,,,,,,,,,,,,,,,,,,,,,,,,,,,,,,
,,64988510fe500ee3533884a8,2024-02-18_20h08.59.583,kallum_motion_pilot,2023.2.2,Win32,59.88023952,64988510fe500ee3533884a8,65d2b6c8f2eece985d8e374c,65d2b7cec67a654a5c71c239,0.3792,0.3794,0,28,28,140,1,sevenfive,,,,,,,,,,,,,,,,,,,,,,,,,,,,,,,,,,,,,,,,,,,,,,,,,,,,,,,,,,,,,,,,,,,,,,,,,,,,,,,,,,,,,,,,,,,,,,,,,,,,,,,,,,,,,,,,,,,,,,,,,,,,,,,,,,,,,,,,,
,,64988510fe500ee3533884a8,2024-02-18_20h08.59.583,kallum_motion_pilot,2023.2.2,Win32,59.88023952,64988510fe500ee3533884a8,65d2b6c8f2eece985d8e374c,65d2b7cec67a654a5c71c239,0.3798,0.38,0,29,29,16,1,onetwo,,,,,,,,,,,,,,,,,,,,,,,,,,,,,,,,,,,,,,,,,,,,,,,,,,,,,,,,,,,,,,,,,,,,,,,,,,,,,,,,,,,,,,,,,,,,,,,,,,,,,,,,,,,,,,,,,,,,,,,,,,,,,,,,,,,,,,,,,
,,64988510fe500ee3533884a8,2024-02-18_20h08.59.583,kallum_motion_pilot,2023.2.2,Win32,59.88023952,64988510fe500ee3533884a8,65d2b6c8f2eece985d8e374c,65d2b7cec67a654a5c71c239,0.3804,0.3806,0,30,30,60,1,threeone,,,,,,,,,,,,,,,,,,,,,,,,,,,,,,,,,,,,,,,,,,,,,,,,,,,,,,,,,,,,,,,,,,,,,,,,,,,,,,,,,,,,,,,,,,,,,,,,,,,,,,,,,,,,,,,,,,,,,,,,,,,,,,,,,,,,,,,,,
,,64988510fe500ee3533884a8,2024-02-18_20h08.59.583,kallum_motion_pilot,2023.2.2,Win32,59.88023952,64988510fe500ee3533884a8,65d2b6c8f2eece985d8e374c,65d2b7cec67a654a5c71c239,0.3811,0.3813,0,31,31,10,1,twoone,,,,,,,,,,,,,,,,,,,,,,,,,,,,,,,,,,,,,,,,,,,,,,,,,,,,,,,,,,,,,,,,,,,,,,,,,,,,,,,,,,,,,,,,,,,,,,,,,,,,,,,,,,,,,,,,,,,,,,,,,,,,,,,,,,,,,,,,,
,,64988510fe500ee3533884a8,2024-02-18_20h08.59.583,kallum_motion_pilot,2023.2.2,Win32,59.88023952,64988510fe500ee3533884a8,65d2b6c8f2eece985d8e374c,65d2b7cec67a654a5c71c239,0.3816,0.3819,0,32,32,56,1,onetwo,,,,,,,,,,,,,,,,,,,,,,,,,,,,,,,,,,,,,,,,,,,,,,,,,,,,,,,,,,,,,,,,,,,,,,,,,,,,,,,,,,,,,,,,,,,,,,,,,,,,,,,,,,,,,,,,,,,,,,,,,,,,,,,,,,,,,,,,,
,,64988510fe500ee3533884a8,2024-02-18_20h08.59.583,kallum_motion_pilot,2023.2.2,Win32,59.88023952,64988510fe500ee3533884a8,65d2b6c8f2eece985d8e374c,65d2b7cec67a654a5c71c239,0.3829,0.3833,0,33,33,30,1,fourtwo,,,,,,,,,,,,,,,,,,,,,,,,,,,,,,,,,,,,,,,,,,,,,,,,,,,,,,,,,,,,,,,,,,,,,,,,,,,,,,,,,,,,,,,,,,,,,,,,,,,,,,,,,,,,,,,,,,,,,,,,,,,,,,,,,,,,,,,,,
,,64988510fe500ee3533884a8,2024-02-18_20h08.59.583,kallum_motion_pilot,2023.2.2,Win32,59.88023952,64988510fe500ee3533884a8,65d2b6c8f2eece985d8e374c,65d2b7cec67a654a5c71c239,0.3839,0.3842,0,34,34,99,1,sixeight,,,,,,,,,,,,,,,,,,,,,,,,,,,,,,,,,,,,,,,,,,,,,,,,,,,,,,,,,,,,,,,,,,,,,,,,,,,,,,,,,,,,,,,,,,,,,,,,,,,,,,,,,,,,,,,,,,,,,,,,,,,,,,,,,,,,,,,,,
,,64988510fe500ee3533884a8,2024-02-18_20h08.59.583,kallum_motion_pilot,2023.2.2,Win32,59.88023952,64988510fe500ee3533884a8,65d2b6c8f2eece985d8e374c,65d2b7cec67a654a5c71c239,0.3849,0.3852,0,35,35,34,1,twoone,,,,,,,,,,,,,,,,,,,,,,,,,,,,,,,,,,,,,,,,,,,,,,,,,,,,,,,,,,,,,,,,,,,,,,,,,,,,,,,,,,,,,,,,,,,,,,,,,,,,,,,,,,,,,,,,,,,,,,,,,,,,,,,,,,,,,,,,,
,,64988510fe500ee3533884a8,2024-02-18_20h08.59.583,kallum_motion_pilot,2023.2.2,Win32,59.88023952,64988510fe500ee3533884a8,65d2b6c8f2eece985d8e374c,65d2b7cec67a654a5c71c239,0.3857,0.3861,0,36,36,111,1,eightseven,,,,,,,,,,,,,,,,,,,,,,,,,,,,,,,,,,,,,,,,,,,,,,,,,,,,,,,,,,,,,,,,,,,,,,,,,,,,,,,,,,,,,,,,,,,,,,,,,,,,,,,,,,,,,,,,,,,,,,,,,,,,,,,,,,,,,,,,,
,,64988510fe500ee3533884a8,2024-02-18_20h08.59.583,kallum_motion_pilot,2023.2.2,Win32,59.88023952,64988510fe500ee3533884a8,65d2b6c8f2eece985d8e374c,65d2b7cec67a654a5c71c239,0.3866,0.387,0,37,37,98,1,sixfive,,,,,,,,,,,,,,,,,,,,,,,,,,,,,,,,,,,,,,,,,,,,,,,,,,,,,,,,,,,,,,,,,,,,,,,,,,,,,,,,,,,,,,,,,,,,,,,,,,,,,,,,,,,,,,,,,,,,,,,,,,,,,,,,,,,,,,,,,
,,64988510fe500ee3533884a8,2024-02-18_20h08.59.583,kallum_motion_pilot,2023.2.2,Win32,59.88023952,64988510fe500ee3533884a8,65d2b6c8f2eece985d8e374c,65d2b7cec67a654a5c71c239,0.3875,0.3879,0,38,38,42,1,twoone,,,,,,,,,,,,,,,,,,,,,,,,,,,,,,,,,,,,,,,,,,,,,,,,,,,,,,,,,,,,,,,,,,,,,,,,,,,,,,,,,,,,,,,,,,,,,,,,,,,,,,,,,,,,,,,,,,,,,,,,,,,,,,,,,,,,,,,,,
,,64988510fe500ee3533884a8,2024-02-18_20h08.59.583,kallum_motion_pilot,2023.2.2,Win32,59.88023952,64988510fe500ee3533884a8,65d2b6c8f2eece985d8e374c,65d2b7cec67a654a5c71c239,0.3884,0.3887,0,39,39,156,1,sevenfive,,,,,,,,,,,,,,,,,,,,,,,,,,,,,,,,,,,,,,,,,,,,,,,,,,,,,,,,,,,,,,,,,,,,,,,,,,,,,,,,,,,,,,,,,,,,,,,,,,,,,,,,,,,,,,,,,,,,,,,,,,,,,,,,,,,,,,,,,
,,64988510fe500ee3533884a8,2024-02-18_20h08.59.583,kallum_motion_pilot,2023.2.2,Win32,59.88023952,64988510fe500ee3533884a8,65d2b6c8f2eece985d8e374c,65d2b7cec67a654a5c71c239,0.3894,0.3897,0,40,40,91,1,sixeight,,,,,,,,,,,,,,,,,,,,,,,,,,,,,,,,,,,,,,,,,,,,,,,,,,,,,,,,,,,,,,,,,,,,,,,,,,,,,,,,,,,,,,,,,,,,,,,,,,,,,,,,,,,,,,,,,,,,,,,,,,,,,,,,,,,,,,,,,
,,64988510fe500ee3533884a8,2024-02-18_20h08.59.583,kallum_motion_pilot,2023.2.2,Win32,59.88023952,64988510fe500ee3533884a8,65d2b6c8f2eece985d8e374c,65d2b7cec67a654a5c71c239,0.3903,0.3907,0,41,41,18,1,twoone,,,,,,,,,,,,,,,,,,,,,,,,,,,,,,,,,,,,,,,,,,,,,,,,,,,,,,,,,,,,,,,,,,,,,,,,,,,,,,,,,,,,,,,,,,,,,,,,,,,,,,,,,,,,,,,,,,,,,,,,,,,,,,,,,,,,,,,,,
,,64988510fe500ee3533884a8,2024-02-18_20h08.59.583,kallum_motion_pilot,2023.2.2,Win32,59.88023952,64988510fe500ee3533884a8,65d2b6c8f2eece985d8e374c,65d2b7cec67a654a5c71c239,0.3912,0.3915,0,42,42,118,1,eightsix,,,,,,,,,,,,,,,,,,,,,,,,,,,,,,,,,,,,,,,,,,,,,,,,,,,,,,,,,,,,,,,,,,,,,,,,,,,,,,,,,,,,,,,,,,,,,,,,,,,,,,,,,,,,,,,,,,,,,,,,,,,,,,,,,,,,,,,,,
,,64988510fe500ee3533884a8,2024-02-18_20h08.59.583,kallum_motion_pilot,2023.2.2,Win32,59.88023952,64988510fe500ee3533884a8,65d2b6c8f2eece985d8e374c,65d2b7cec67a654a5c71c239,0.3919,0.3929,0,43,43,127,1,eightseven,,,,,,,,,,,,,,,,,,,,,,,,,,,,,,,,,,,,,,,,,,,,,,,,,,,,,,,,,,,,,,,,,,,,,,,,,,,,,,,,,,,,,,,,,,,,,,,,,,,,,,,,,,,,,,,,,,,,,,,,,,,,,,,,,,,,,,,,,
,,64988510fe500ee3533884a8,2024-02-18_20h08.59.583,kallum_motion_pilot,2023.2.2,Win32,59.88023952,64988510fe500ee3533884a8,65d2b6c8f2eece985d8e374c,65d2b7cec67a654a5c71c239,0.3936,0.394,0,44,44,96,1,fivesix,,,,,,,,,,,,,,,,,,,,,,,,,,,,,,,,,,,,,,,,,,,,,,,,,,,,,,,,,,,,,,,,,,,,,,,,,,,,,,,,,,,,,,,,,,,,,,,,,,,,,,,,,,,,,,,,,,,,,,,,,,,,,,,,,,,,,,,,,
,,64988510fe500ee3533884a8,2024-02-18_20h08.59.583,kallum_motion_pilot,2023.2.2,Win32,59.88023952,64988510fe500ee3533884a8,65d2b6c8f2eece985d8e374c,65d2b7cec67a654a5c71c239,0.3946,0.3951,0,45,45,158,1,eightsix,,,,,,,,,,,,,,,,,,,,,,,,,,,,,,,,,,,,,,,,,,,,,,,,,,,,,,,,,,,,,,,,,,,,,,,,,,,,,,,,,,,,,,,,,,,,,,,,,,,,,,,,,,,,,,,,,,,,,,,,,,,,,,,,,,,,,,,,,
,,64988510fe500ee3533884a8,2024-02-18_20h08.59.583,kallum_motion_pilot,2023.2.2,Win32,59.88023952,64988510fe500ee3533884a8,65d2b6c8f2eece985d8e374c,65d2b7cec67a654a5c71c239,0.3956,0.396,0,46,46,113,1,fiveseven,,,,,,,,,,,,,,,,,,,,,,,,,,,,,,,,,,,,,,,,,,,,,,,,,,,,,,,,,,,,,,,,,,,,,,,,,,,,,,,,,,,,,,,,,,,,,,,,,,,,,,,,,,,,,,,,,,,,,,,,,,,,,,,,,,,,,,,,,
,,64988510fe500ee3533884a8,2024-02-18_20h08.59.583,kallum_motion_pilot,2023.2.2,Win32,59.88023952,64988510fe500ee3533884a8,65d2b6c8f2eece985d8e374c,65d2b7cec67a654a5c71c239,0.3967,0.3971,0,47,47,45,1,threefour,,,,,,,,,,,,,,,,,,,,,,,,,,,,,,,,,,,,,,,,,,,,,,,,,,,,,,,,,,,,,,,,,,,,,,,,,,,,,,,,,,,,,,,,,,,,,,,,,,,,,,,,,,,,,,,,,,,,,,,,,,,,,,,,,,,,,,,,,
,,64988510fe500ee3533884a8,2024-02-18_20h08.59.583,kallum_motion_pilot,2023.2.2,Win32,59.88023952,64988510fe500ee3533884a8,65d2b6c8f2eece985d8e374c,65d2b7cec67a654a5c71c239,0.3976,0.398,0,48,48,47,1,fourthree,,,,,,,,,,,,,,,,,,,,,,,,,,,,,,,,,,,,,,,,,,,,,,,,,,,,,,,,,,,,,,,,,,,,,,,,,,,,,,,,,,,,,,,,,,,,,,,,,,,,,,,,,,,,,,,,,,,,,,,,,,,,,,,,,,,,,,,,,
,,64988510fe500ee3533884a8,2024-02-18_20h08.59.583,kallum_motion_pilot,2023.2.2,Win32,59.88023952,64988510fe500ee3533884a8,65d2b6c8f2eece985d8e374c,65d2b7cec67a654a5c71c239,0.3986,0.3989,0,49,49,25,1,onethree,,,,,,,,,,,,,,,,,,,,,,,,,,,,,,,,,,,,,,,,,,,,,,,,,,,,,,,,,,,,,,,,,,,,,,,,,,,,,,,,,,,,,,,,,,,,,,,,,,,,,,,,,,,,,,,,,,,,,,,,,,,,,,,,,,,,,,,,,
,,64988510fe500ee3533884a8,2024-02-18_20h08.59.583,kallum_motion_pilot,2023.2.2,Win32,59.88023952,64988510fe500ee3533884a8,65d2b6c8f2eece985d8e374c,65d2b7cec67a654a5c71c239,0.3997,0.4,0,50,50,9,1,onethree,,,,,,,,,,,,,,,,,,,,,,,,,,,,,,,,,,,,,,,,,,,,,,,,,,,,,,,,,,,,,,,,,,,,,,,,,,,,,,,,,,,,,,,,,,,,,,,,,,,,,,,,,,,,,,,,,,,,,,,,,,,,,,,,,,,,,,,,,
,,64988510fe500ee3533884a8,2024-02-18_20h08.59.583,kallum_motion_pilot,2023.2.2,Win32,59.88023952,64988510fe500ee3533884a8,65d2b6c8f2eece985d8e374c,65d2b7cec67a654a5c71c239,0.4007,0.4009,0,51,51,1,1,onethree,,,,,,,,,,,,,,,,,,,,,,,,,,,,,,,,,,,,,,,,,,,,,,,,,,,,,,,,,,,,,,,,,,,,,,,,,,,,,,,,,,,,,,,,,,,,,,,,,,,,,,,,,,,,,,,,,,,,,,,,,,,,,,,,,,,,,,,,,
,,64988510fe500ee3533884a8,2024-02-18_20h08.59.583,kallum_motion_pilot,2023.2.2,Win32,59.88023952,64988510fe500ee3533884a8,65d2b6c8f2eece985d8e374c,65d2b7cec67a654a5c71c239,0.4013,0.4016,0,52,52,69,1,threefour,,,,,,,,,,,,,,,,,,,,,,,,,,,,,,,,,,,,,,,,,,,,,,,,,,,,,,,,,,,,,,,,,,,,,,,,,,,,,,,,,,,,,,,,,,,,,,,,,,,,,,,,,,,,,,,,,,,,,,,,,,,,,,,,,,,,,,,,,
,,64988510fe500ee3533884a8,2024-02-18_20h08.59.583,kallum_motion_pilot,2023.2.2,Win32,59.88023952,64988510fe500ee3533884a8,65d2b6c8f2eece985d8e374c,65d2b7cec67a654a5c71c239,0.4671,0.4674,0,53,53,142,1,eightsix,,,,,,,,,,,,,,,,,,,,,,,,,,,,,,,,,,,,,,,,,,,,,,,,,,,,,,,,,,,,,,,,,,,,,,,,,,,,,,,,,,,,,,,,,,,,,,,,,,,,,,,,,,,,,,,,,,,,,,,,,,,,,,,,,,,,,,,,,
,,64988510fe500ee3533884a8,2024-02-18_20h08.59.583,kallum_motion_pilot,2023.2.2,Win32,59.88023952,64988510fe500ee3533884a8,65d2b6c8f2eece985d8e374c,65d2b7cec67a654a5c71c239,0.4683,0.4689,0,54,54,19,1,twofour,,,,,,,,,,,,,,,,,,,,,,,,,,,,,,,,,,,,,,,,,,,,,,,,,,,,,,,,,,,,,,,,,,,,,,,,,,,,,,,,,,,,,,,,,,,,,,,,,,,,,,,,,,,,,,,,,,,,,,,,,,,,,,,,,,,,,,,,,
,,64988510fe500ee3533884a8,2024-02-18_20h08.59.583,kallum_motion_pilot,2023.2.2,Win32,59.88023952,64988510fe500ee3533884a8,65d2b6c8f2eece985d8e374c,65d2b7cec67a654a5c71c239,0.4696,0.47,0,55,55,39,1,fourthree,,,,,,,,,,,,,,,,,,,,,,,,,,,,,,,,,,,,,,,,,,,,,,,,,,,,,,,,,,,,,,,,,,,,,,,,,,,,,,,,,,,,,,,,,,,,,,,,,,,,,,,,,,,,,,,,,,,,,,,,,,,,,,,,,,,,,,,,,
,,64988510fe500ee3533884a8,2024-02-18_20h08.59.583,kallum_motion_pilot,2023.2.2,Win32,59.88023952,64988510fe500ee3533884a8,65d2b6c8f2eece985d8e374c,65d2b7cec67a654a5c71c239,0.4707,0.4713,0,56,56,88,1,fivesix,,,,,,,,,,,,,,,,,,,,,,,,,,,,,,,,,,,,,,,,,,,,,,,,,,,,,,,,,,,,,,,,,,,,,,,,,,,,,,,,,,,,,,,,,,,,,,,,,,,,,,,,,,,,,,,,,,,,,,,,,,,,,,,,,,,,,,,,,
,,64988510fe500ee3533884a8,2024-02-18_20h08.59.583,kallum_motion_pilot,2023.2.2,Win32,59.88023952,64988510fe500ee3533884a8,65d2b6c8f2eece985d8e374c,65d2b7cec67a654a5c71c239,0.472,0.4726,0,57,57,31,1,fourthree,,,,,,,,,,,,,,,,,,,,,,,,,,,,,,,,,,,,,,,,,,,,,,,,,,,,,,,,,,,,,,,,,,,,,,,,,,,,,,,,,,,,,,,,,,,,,,,,,,,,,,,,,,,,,,,,,,,,,,,,,,,,,,,,,,,,,,,,,
,,64988510fe500ee3533884a8,2024-02-18_20h08.59.583,kallum_motion_pilot,2023.2.2,Win32,59.88023952,64988510fe500ee3533884a8,65d2b6c8f2eece985d8e374c,65d2b7cec67a654a5c71c239,0.4734,0.4739,0,58,58,153,1,fiveseven,,,,,,,,,,,,,,,,,,,,,,,,,,,,,,,,,,,,,,,,,,,,,,,,,,,,,,,,,,,,,,,,,,,,,,,,,,,,,,,,,,,,,,,,,,,,,,,,,,,,,,,,,,,,,,,,,,,,,,,,,,,,,,,,,,,,,,,,,
,,64988510fe500ee3533884a8,2024-02-18_20h08.59.583,kallum_motion_pilot,2023.2.2,Win32,59.88023952,64988510fe500ee3533884a8,65d2b6c8f2eece985d8e374c,65d2b7cec67a654a5c71c239,0.4745,0.4752,0,59,59,152,1,fivesix,,,,,,,,,,,,,,,,,,,,,,,,,,,,,,,,,,,,,,,,,,,,,,,,,,,,,,,,,,,,,,,,,,,,,,,,,,,,,,,,,,,,,,,,,,,,,,,,,,,,,,,,,,,,,,,,,,,,,,,,,,,,,,,,,,,,,,,,,
,,64988510fe500ee3533884a8,2024-02-18_20h08.59.583,kallum_motion_pilot,2023.2.2,Win32,59.88023952,64988510fe500ee3533884a8,65d2b6c8f2eece985d8e374c,65d2b7cec67a654a5c71c239,0.4759,0.4764,0,60,60,151,1,eightseven,,,,,,,,,,,,,,,,,,,,,,,,,,,,,,,,,,,,,,,,,,,,,,,,,,,,,,,,,,,,,,,,,,,,,,,,,,,,,,,,,,,,,,,,,,,,,,,,,,,,,,,,,,,,,,,,,,,,,,,,,,,,,,,,,,,,,,,,,
,,64988510fe500ee3533884a8,2024-02-18_20h08.59.583,kallum_motion_pilot,2023.2.2,Win32,59.88023952,64988510fe500ee3533884a8,65d2b6c8f2eece985d8e374c,65d2b7cec67a654a5c71c239,0.4771,0.4775,0,61,61,141,1,seveneight,,,,,,,,,,,,,,,,,,,,,,,,,,,,,,,,,,,,,,,,,,,,,,,,,,,,,,,,,,,,,,,,,,,,,,,,,,,,,,,,,,,,,,,,,,,,,,,,,,,,,,,,,,,,,,,,,,,,,,,,,,,,,,,,,,,,,,,,,
,,64988510fe500ee3533884a8,2024-02-18_20h08.59.583,kallum_motion_pilot,2023.2.2,Win32,59.88023952,64988510fe500ee3533884a8,65d2b6c8f2eece985d8e374c,65d2b7cec67a654a5c71c239,0.4782,0.4787,0,62,62,78,1,fourtwo,,,,,,,,,,,,,,,,,,,,,,,,,,,,,,,,,,,,,,,,,,,,,,,,,,,,,,,,,,,,,,,,,,,,,,,,,,,,,,,,,,,,,,,,,,,,,,,,,,,,,,,,,,,,,,,,,,,,,,,,,,,,,,,,,,,,,,,,,
,,64988510fe500ee3533884a8,2024-02-18_20h08.59.583,kallum_motion_pilot,2023.2.2,Win32,59.88023952,64988510fe500ee3533884a8,65d2b6c8f2eece985d8e374c,65d2b7cec67a654a5c71c239,0.4793,0.4797,0,63,63,101,1,seveneight,,,,,,,,,,,,,,,,,,,,,,,,,,,,,,,,,,,,,,,,,,,,,,,,,,,,,,,,,,,,,,,,,,,,,,,,,,,,,,,,,,,,,,,,,,,,,,,,,,,,,,,,,,,,,,,,,,,,,,,,,,,,,,,,,,,,,,,,,
,,64988510fe500ee3533884a8,2024-02-18_20h08.59.583,kallum_motion_pilot,2023.2.2,Win32,59.88023952,64988510fe500ee3533884a8,65d2b6c8f2eece985d8e374c,65d2b7cec67a654a5c71c239,0.4804,0.4808,0,64,64,8,1,onetwo,,,,,,,,,,,,,,,,,,,,,,,,,,,,,,,,,,,,,,,,,,,,,,,,,,,,,,,,,,,,,,,,,,,,,,,,,,,,,,,,,,,,,,,,,,,,,,,,,,,,,,,,,,,,,,,,,,,,,,,,,,,,,,,,,,,,,,,,,
,,64988510fe500ee3533884a8,2024-02-18_20h08.59.583,kallum_motion_pilot,2023.2.2,Win32,59.88023952,64988510fe500ee3533884a8,65d2b6c8f2eece985d8e374c,65d2b7cec67a654a5c71c239,0.4815,0.482,0,65,65,108,1,sevenfive,,,,,,,,,,,,,,,,,,,,,,,,,,,,,,,,,,,,,,,,,,,,,,,,,,,,,,,,,,,,,,,,,,,,,,,,,,,,,,,,,,,,,,,,,,,,,,,,,,,,,,,,,,,,,,,,,,,,,,,,,,,,,,,,,,,,,,,,,
,,64988510fe500ee3533884a8,2024-02-18_20h08.59.583,kallum_motion_pilot,2023.2.2,Win32,59.88023952,64988510fe500ee3533884a8,65d2b6c8f2eece985d8e374c,65d2b7cec67a654a5c71c239,0.483,0.4835,0,66,66,95,1,eightseven,,,,,,,,,,,,,,,,,,,,,,,,,,,,,,,,,,,,,,,,,,,,,,,,,,,,,,,,,,,,,,,,,,,,,,,,,,,,,,,,,,,,,,,,,,,,,,,,,,,,,,,,,,,,,,,,,,,,,,,,,,,,,,,,,,,,,,,,,
,,64988510fe500ee3533884a8,2024-02-18_20h08.59.583,kallum_motion_pilot,2023.2.2,Win32,59.88023952,64988510fe500ee3533884a8,65d2b6c8f2eece985d8e374c,65d2b7cec67a654a5c71c239,0.4842,0.4846,0,67,67,125,1,seveneight,,,,,,,,,,,,,,,,,,,,,,,,,,,,,,,,,,,,,,,,,,,,,,,,,,,,,,,,,,,,,,,,,,,,,,,,,,,,,,,,,,,,,,,,,,,,,,,,,,,,,,,,,,,,,,,,,,,,,,,,,,,,,,,,,,,,,,,,,
,,64988510fe500ee3533884a8,2024-02-18_20h08.59.583,kallum_motion_pilot,2023.2.2,Win32,59.88023952,64988510fe500ee3533884a8,65d2b6c8f2eece985d8e374c,65d2b7cec67a654a5c71c239,0.4854,0.4858,0,68,68,36,1,threeone,,,,,,,,,,,,,,,,,,,,,,,,,,,,,,,,,,,,,,,,,,,,,,,,,,,,,,,,,,,,,,,,,,,,,,,,,,,,,,,,,,,,,,,,,,,,,,,,,,,,,,,,,,,,,,,,,,,,,,,,,,,,,,,,,,,,,,,,,
,,64988510fe500ee3533884a8,2024-02-18_20h08.59.583,kallum_motion_pilot,2023.2.2,Win32,59.88023952,64988510fe500ee3533884a8,65d2b6c8f2eece985d8e374c,65d2b7cec67a654a5c71c239,0.4864,0.4869,0,69,69,148,1,sevenfive,,,,,,,,,,,,,,,,,,,,,,,,,,,,,,,,,,,,,,,,,,,,,,,,,,,,,,,,,,,,,,,,,,,,,,,,,,,,,,,,,,,,,,,,,,,,,,,,,,,,,,,,,,,,,,,,,,,,,,,,,,,,,,,,,,,,,,,,,
,,64988510fe500ee3533884a8,2024-02-18_20h08.59.583,kallum_motion_pilot,2023.2.2,Win32,59.88023952,64988510fe500ee3533884a8,65d2b6c8f2eece985d8e374c,65d2b7cec67a654a5c71c239,0.4876,0.4879,0,70,70,29,1,threefour,,,,,,,,,,,,,,,,,,,,,,,,,,,,,,,,,,,,,,,,,,,,,,,,,,,,,,,,,,,,,,,,,,,,,,,,,,,,,,,,,,,,,,,,,,,,,,,,,,,,,,,,,,,,,,,,,,,,,,,,,,,,,,,,,,,,,,,,,
,,64988510fe500ee3533884a8,2024-02-18_20h08.59.583,kallum_motion_pilot,2023.2.2,Win32,59.88023952,64988510fe500ee3533884a8,65d2b6c8f2eece985d8e374c,65d2b7cec67a654a5c71c239,0.4887,0.4892,0,71,71,33,1,onethree,,,,,,,,,,,,,,,,,,,,,,,,,,,,,,,,,,,,,,,,,,,,,,,,,,,,,,,,,,,,,,,,,,,,,,,,,,,,,,,,,,,,,,,,,,,,,,,,,,,,,,,,,,,,,,,,,,,,,,,,,,,,,,,,,,,,,,,,,
,,64988510fe500ee3533884a8,2024-02-18_20h08.59.583,kallum_motion_pilot,2023.2.2,Win32,59.88023952,64988510fe500ee3533884a8,65d2b6c8f2eece985d8e374c,65d2b7cec67a654a5c71c239,0.4898,0.4903,0,72,72,128,1,fivesix,,,,,,,,,,,,,,,,,,,,,,,,,,,,,,,,,,,,,,,,,,,,,,,,,,,,,,,,,,,,,,,,,,,,,,,,,,,,,,,,,,,,,,,,,,,,,,,,,,,,,,,,,,,,,,,,,,,,,,,,,,,,,,,,,,,,,,,,,
,,64988510fe500ee3533884a8,2024-02-18_20h08.59.583,kallum_motion_pilot,2023.2.2,Win32,59.88023952,64988510fe500ee3533884a8,65d2b6c8f2eece985d8e374c,65d2b7cec67a654a5c71c239,0.491,0.4914,0,73,73,106,1,sixfive,,,,,,,,,,,,,,,,,,,,,,,,,,,,,,,,,,,,,,,,,,,,,,,,,,,,,,,,,,,,,,,,,,,,,,,,,,,,,,,,,,,,,,,,,,,,,,,,,,,,,,,,,,,,,,,,,,,,,,,,,,,,,,,,,,,,,,,,,
,,64988510fe500ee3533884a8,2024-02-18_20h08.59.583,kallum_motion_pilot,2023.2.2,Win32,59.88023952,64988510fe500ee3533884a8,65d2b6c8f2eece985d8e374c,65d2b7cec67a654a5c71c239,0.4928,0.4931,0,74,74,121,1,fiveseven,,,,,,,,,,,,,,,,,,,,,,,,,,,,,,,,,,,,,,,,,,,,,,,,,,,,,,,,,,,,,,,,,,,,,,,,,,,,,,,,,,,,,,,,,,,,,,,,,,,,,,,,,,,,,,,,,,,,,,,,,,,,,,,,,,,,,,,,,
,,64988510fe500ee3533884a8,2024-02-18_20h08.59.583,kallum_motion_pilot,2023.2.2,Win32,59.88023952,64988510fe500ee3533884a8,65d2b6c8f2eece985d8e374c,65d2b7cec67a654a5c71c239,0.494,0.4944,0,75,75,130,1,sixfive,,,,,,,,,,,,,,,,,,,,,,,,,,,,,,,,,,,,,,,,,,,,,,,,,,,,,,,,,,,,,,,,,,,,,,,,,,,,,,,,,,,,,,,,,,,,,,,,,,,,,,,,,,,,,,,,,,,,,,,,,,,,,,,,,,,,,,,,,
,,64988510fe500ee3533884a8,2024-02-18_20h08.59.583,kallum_motion_pilot,2023.2.2,Win32,59.88023952,64988510fe500ee3533884a8,65d2b6c8f2eece985d8e374c,65d2b7cec67a654a5c71c239,0.4951,0.4955,0,76,76,22,1,fourtwo,,,,,,,,,,,,,,,,,,,,,,,,,,,,,,,,,,,,,,,,,,,,,,,,,,,,,,,,,,,,,,,,,,,,,,,,,,,,,,,,,,,,,,,,,,,,,,,,,,,,,,,,,,,,,,,,,,,,,,,,,,,,,,,,,,,,,,,,,
,,64988510fe500ee3533884a8,2024-02-18_20h08.59.583,kallum_motion_pilot,2023.2.2,Win32,59.88023952,64988510fe500ee3533884a8,65d2b6c8f2eece985d8e374c,65d2b7cec67a654a5c71c239,0.4961,0.4964,0,77,77,41,1,onethree,,,,,,,,,,,,,,,,,,,,,,,,,,,,,,,,,,,,,,,,,,,,,,,,,,,,,,,,,,,,,,,,,,,,,,,,,,,,,,,,,,,,,,,,,,,,,,,,,,,,,,,,,,,,,,,,,,,,,,,,,,,,,,,,,,,,,,,,,
,,64988510fe500ee3533884a8,2024-02-18_20h08.59.583,kallum_motion_pilot,2023.2.2,Win32,59.88023952,64988510fe500ee3533884a8,65d2b6c8f2eece985d8e374c,65d2b7cec67a654a5c71c239,0.4968,0.4971,0,78,78,114,1,sixfive,,,,,,,,,,,,,,,,,,,,,,,,,,,,,,,,,,,,,,,,,,,,,,,,,,,,,,,,,,,,,,,,,,,,,,,,,,,,,,,,,,,,,,,,,,,,,,,,,,,,,,,,,,,,,,,,,,,,,,,,,,,,,,,,,,,,,,,,,
,,64988510fe500ee3533884a8,2024-02-18_20h08.59.583,kallum_motion_pilot,2023.2.2,Win32,59.88023952,64988510fe500ee3533884a8,65d2b6c8f2eece985d8e374c,65d2b7cec67a654a5c71c239,0.4974,0.4977,0,79,79,117,1,seveneight,,,,,,,,,,,,,,,,,,,,,,,,,,,,,,,,,,,,,,,,,,,,,,,,,,,,,,,,,,,,,,,,,,,,,,,,,,,,,,,,,,,,,,,,,,,,,,,,,,,,,,,,,,,,,,,,,,,,,,,,,,,,,,,,,,,,,,,,,
,,64988510fe500ee3533884a8,2024-02-18_20h08.59.583,kallum_motion_pilot,2023.2.2,Win32,59.88023952,64988510fe500ee3533884a8,65d2b6c8f2eece985d8e374c,65d2b7cec67a654a5c71c239,0.4981,0.4984,0,80,80,147,1,sixeight,,,,,,,,,,,,,,,,,,,,,,,,,,,,,,,,,,,,,,,,,,,,,,,,,,,,,,,,,,,,,,,,,,,,,,,,,,,,,,,,,,,,,,,,,,,,,,,,,,,,,,,,,,,,,,,,,,,,,,,,,,,,,,,,,,,,,,,,,
,,64988510fe500ee3533884a8,2024-02-18_20h08.59.583,kallum_motion_pilot,2023.2.2,Win32,59.88023952,64988510fe500ee3533884a8,65d2b6c8f2eece985d8e374c,65d2b7cec67a654a5c71c239,0.4987,0.499,0,81,81,28,1,threeone,,,,,,,,,,,,,,,,,,,,,,,,,,,,,,,,,,,,,,,,,,,,,,,,,,,,,,,,,,,,,,,,,,,,,,,,,,,,,,,,,,,,,,,,,,,,,,,,,,,,,,,,,,,,,,,,,,,,,,,,,,,,,,,,,,,,,,,,,
,,64988510fe500ee3533884a8,2024-02-18_20h08.59.583,kallum_motion_pilot,2023.2.2,Win32,59.88023952,64988510fe500ee3533884a8,65d2b6c8f2eece985d8e374c,65d2b7cec67a654a5c71c239,0.4994,0.4997,0,82,82,14,1,fourtwo,,,,,,,,,,,,,,,,,,,,,,,,,,,,,,,,,,,,,,,,,,,,,,,,,,,,,,,,,,,,,,,,,,,,,,,,,,,,,,,,,,,,,,,,,,,,,,,,,,,,,,,,,,,,,,,,,,,,,,,,,,,,,,,,,,,,,,,,,
,,64988510fe500ee3533884a8,2024-02-18_20h08.59.583,kallum_motion_pilot,2023.2.2,Win32,59.88023952,64988510fe500ee3533884a8,65d2b6c8f2eece985d8e374c,65d2b7cec67a654a5c71c239,0.5,0.5002,0,83,83,133,1,seveneight,,,,,,,,,,,,,,,,,,,,,,,,,,,,,,,,,,,,,,,,,,,,,,,,,,,,,,,,,,,,,,,,,,,,,,,,,,,,,,,,,,,,,,,,,,,,,,,,,,,,,,,,,,,,,,,,,,,,,,,,,,,,,,,,,,,,,,,,,
,,64988510fe500ee3533884a8,2024-02-18_20h08.59.583,kallum_motion_pilot,2023.2.2,Win32,59.88023952,64988510fe500ee3533884a8,65d2b6c8f2eece985d8e374c,65d2b7cec67a654a5c71c239,0.5007,0.5039,0,84,84,11,1,twofour,,,,,,,,,,,,,,,,,,,,,,,,,,,,,,,,,,,,,,,,,,,,,,,,,,,,,,,,,,,,,,,,,,,,,,,,,,,,,,,,,,,,,,,,,,,,,,,,,,,,,,,,,,,,,,,,,,,,,,,,,,,,,,,,,,,,,,,,,
,,64988510fe500ee3533884a8,2024-02-18_20h08.59.583,kallum_motion_pilot,2023.2.2,Win32,59.88023952,64988510fe500ee3533884a8,65d2b6c8f2eece985d8e374c,65d2b7cec67a654a5c71c239,0.5045,0.5048,0,85,85,82,1,sixfive,,,,,,,,,,,,,,,,,,,,,,,,,,,,,,,,,,,,,,,,,,,,,,,,,,,,,,,,,,,,,,,,,,,,,,,,,,,,,,,,,,,,,,,,,,,,,,,,,,,,,,,,,,,,,,,,,,,,,,,,,,,,,,,,,,,,,,,,,
,,64988510fe500ee3533884a8,2024-02-18_20h08.59.583,kallum_motion_pilot,2023.2.2,Win32,59.88023952,64988510fe500ee3533884a8,65d2b6c8f2eece985d8e374c,65d2b7cec67a654a5c71c239,0.5052,0.5057,0,86,86,55,1,fourthree,,,,,,,,,,,,,,,,,,,,,,,,,,,,,,,,,,,,,,,,,,,,,,,,,,,,,,,,,,,,,,,,,,,,,,,,,,,,,,,,,,,,,,,,,,,,,,,,,,,,,,,,,,,,,,,,,,,,,,,,,,,,,,,,,,,,,,,,,
,,64988510fe500ee3533884a8,2024-02-18_20h08.59.583,kallum_motion_pilot,2023.2.2,Win32,59.88023952,64988510fe500ee3533884a8,65d2b6c8f2eece985d8e374c,65d2b7cec67a654a5c71c239,0.5059,0.5063,0,87,87,37,1,threefour,,,,,,,,,,,,,,,,,,,,,,,,,,,,,,,,,,,,,,,,,,,,,,,,,,,,,,,,,,,,,,,,,,,,,,,,,,,,,,,,,,,,,,,,,,,,,,,,,,,,,,,,,,,,,,,,,,,,,,,,,,,,,,,,,,,,,,,,,
,,64988510fe500ee3533884a8,2024-02-18_20h08.59.583,kallum_motion_pilot,2023.2.2,Win32,59.88023952,64988510fe500ee3533884a8,65d2b6c8f2eece985d8e374c,65d2b7cec67a654a5c71c239,0.5066,0.507,0,88,88,110,1,eightsix,,,,,,,,,,,,,,,,,,,,,,,,,,,,,,,,,,,,,,,,,,,,,,,,,,,,,,,,,,,,,,,,,,,,,,,,,,,,,,,,,,,,,,,,,,,,,,,,,,,,,,,,,,,,,,,,,,,,,,,,,,,,,,,,,,,,,,,,,
,,64988510fe500ee3533884a8,2024-02-18_20h08.59.583,kallum_motion_pilot,2023.2.2,Win32,59.88023952,64988510fe500ee3533884a8,65d2b6c8f2eece985d8e374c,65d2b7cec67a654a5c71c239,0.5073,0.5077,0,89,89,100,1,sevenfive,,,,,,,,,,,,,,,,,,,,,,,,,,,,,,,,,,,,,,,,,,,,,,,,,,,,,,,,,,,,,,,,,,,,,,,,,,,,,,,,,,,,,,,,,,,,,,,,,,,,,,,,,,,,,,,,,,,,,,,,,,,,,,,,,,,,,,,,,
,,64988510fe500ee3533884a8,2024-02-18_20h08.59.583,kallum_motion_pilot,2023.2.2,Win32,59.88023952,64988510fe500ee3533884a8,65d2b6c8f2eece985d8e374c,65d2b7cec67a654a5c71c239,0.5084,0.5089,0,90,90,51,1,twofour,,,,,,,,,,,,,,,,,,,,,,,,,,,,,,,,,,,,,,,,,,,,,,,,,,,,,,,,,,,,,,,,,,,,,,,,,,,,,,,,,,,,,,,,,,,,,,,,,,,,,,,,,,,,,,,,,,,,,,,,,,,,,,,,,,,,,,,,,
,,64988510fe500ee3533884a8,2024-02-18_20h08.59.583,kallum_motion_pilot,2023.2.2,Win32,59.88023952,64988510fe500ee3533884a8,65d2b6c8f2eece985d8e374c,65d2b7cec67a654a5c71c239,0.5093,0.5096,0,91,91,139,1,sixeight,,,,,,,,,,,,,,,,,,,,,,,,,,,,,,,,,,,,,,,,,,,,,,,,,,,,,,,,,,,,,,,,,,,,,,,,,,,,,,,,,,,,,,,,,,,,,,,,,,,,,,,,,,,,,,,,,,,,,,,,,,,,,,,,,,,,,,,,,
,,64988510fe500ee3533884a8,2024-02-18_20h08.59.583,kallum_motion_pilot,2023.2.2,Win32,59.88023952,64988510fe500ee3533884a8,65d2b6c8f2eece985d8e374c,65d2b7cec67a654a5c71c239,0.5099,0.5103,0,92,92,124,1,sevenfive,,,,,,,,,,,,,,,,,,,,,,,,,,,,,,,,,,,,,,,,,,,,,,,,,,,,,,,,,,,,,,,,,,,,,,,,,,,,,,,,,,,,,,,,,,,,,,,,,,,,,,,,,,,,,,,,,,,,,,,,,,,,,,,,,,,,,,,,,
,,64988510fe500ee3533884a8,2024-02-18_20h08.59.583,kallum_motion_pilot,2023.2.2,Win32,59.88023952,64988510fe500ee3533884a8,65d2b6c8f2eece985d8e374c,65d2b7cec67a654a5c71c239,0.5106,0.511,0,93,93,67,1,twofour,,,,,,,,,,,,,,,,,,,,,,,,,,,,,,,,,,,,,,,,,,,,,,,,,,,,,,,,,,,,,,,,,,,,,,,,,,,,,,,,,,,,,,,,,,,,,,,,,,,,,,,,,,,,,,,,,,,,,,,,,,,,,,,,,,,,,,,,,
,,64988510fe500ee3533884a8,2024-02-18_20h08.59.583,kallum_motion_pilot,2023.2.2,Win32,59.88023952,64988510fe500ee3533884a8,65d2b6c8f2eece985d8e374c,65d2b7cec67a654a5c71c239,0.5114,0.5118,0,94,94,2,1,twoone,,,,,,,,,,,,,,,,,,,,,,,,,,,,,,,,,,,,,,,,,,,,,,,,,,,,,,,,,,,,,,,,,,,,,,,,,,,,,,,,,,,,,,,,,,,,,,,,,,,,,,,,,,,,,,,,,,,,,,,,,,,,,,,,,,,,,,,,,
,,64988510fe500ee3533884a8,2024-02-18_20h08.59.583,kallum_motion_pilot,2023.2.2,Win32,59.88023952,64988510fe500ee3533884a8,65d2b6c8f2eece985d8e374c,65d2b7cec67a654a5c71c239,0.5125,0.5126,0,95,95,161,1,fiveseven,,,,,,,,,,,,,,,,,,,,,,,,,,,,,,,,,,,,,,,,,,,,,,,,,,,,,,,,,,,,,,,,,,,,,,,,,,,,,,,,,,,,,,,,,,,,,,,,,,,,,,,,,,,,,,,,,,,,,,,,,,,,,,,,,,,,,,,,,
,,64988510fe500ee3533884a8,2024-02-18_20h08.59.583,kallum_motion_pilot,2023.2.2,Win32,59.88023952,64988510fe500ee3533884a8,65d2b6c8f2eece985d8e374c,65d2b7cec67a654a5c71c239,0.5132,0.5134,0,96,96,3,1,twofour,,,,,,,,,,,,,,,,,,,,,,,,,,,,,,,,,,,,,,,,,,,,,,,,,,,,,,,,,,,,,,,,,,,,,,,,,,,,,,,,,,,,,,,,,,,,,,,,,,,,,,,,,,,,,,,,,,,,,,,,,,,,,,,,,,,,,,,,,
,,64988510fe500ee3533884a8,2024-02-18_20h08.59.583,kallum_motion_pilot,2023.2.2,Win32,59.88023952,64988510fe500ee3533884a8,65d2b6c8f2eece985d8e374c,65d2b7cec67a654a5c71c239,0.5138,0.5141,0,97,97,0,1,onetwo,,,,,,,,,,,,,,,,,,,,,,,,,,,,,,,,,,,,,,,,,,,,,,,,,,,,,,,,,,,,,,,,,,,,,,,,,,,,,,,,,,,,,,,,,,,,,,,,,,,,,,,,,,,,,,,,,,,,,,,,,,,,,,,,,,,,,,,,,
,,64988510fe500ee3533884a8,2024-02-18_20h08.59.583,kallum_motion_pilot,2023.2.2,Win32,59.88023952,64988510fe500ee3533884a8,65d2b6c8f2eece985d8e374c,65d2b7cec67a654a5c71c239,0.5145,0.5148,0,98,98,70,1,fourtwo,,,,,,,,,,,,,,,,,,,,,,,,,,,,,,,,,,,,,,,,,,,,,,,,,,,,,,,,,,,,,,,,,,,,,,,,,,,,,,,,,,,,,,,,,,,,,,,,,,,,,,,,,,,,,,,,,,,,,,,,,,,,,,,,,,,,,,,,,
,,64988510fe500ee3533884a8,2024-02-18_20h08.59.583,kallum_motion_pilot,2023.2.2,Win32,59.88023952,64988510fe500ee3533884a8,65d2b6c8f2eece985d8e374c,65d2b7cec67a654a5c71c239,0.5152,0.5154,0,99,99,40,1,onetwo,,,,,,,,,,,,,,,,,,,,,,,,,,,,,,,,,,,,,,,,,,,,,,,,,,,,,,,,,,,,,,,,,,,,,,,,,,,,,,,,,,,,,,,,,,,,,,,,,,,,,,,,,,,,,,,,,,,,,,,,,,,,,,,,,,,,,,,,,
,,64988510fe500ee3533884a8,2024-02-18_20h08.59.583,kallum_motion_pilot,2023.2.2,Win32,59.88023952,64988510fe500ee3533884a8,65d2b6c8f2eece985d8e374c,65d2b7cec67a654a5c71c239,0.5158,0.5162,0,100,100,6,1,fourtwo,,,,,,,,,,,,,,,,,,,,,,,,,,,,,,,,,,,,,,,,,,,,,,,,,,,,,,,,,,,,,,,,,,,,,,,,,,,,,,,,,,,,,,,,,,,,,,,,,,,,,,,,,,,,,,,,,,,,,,,,,,,,,,,,,,,,,,,,,
,,64988510fe500ee3533884a8,2024-02-18_20h08.59.583,kallum_motion_pilot,2023.2.2,Win32,59.88023952,64988510fe500ee3533884a8,65d2b6c8f2eece985d8e374c,65d2b7cec67a654a5c71c239,0.5165,0.5168,0,101,101,145,1,fiveseven,,,,,,,,,,,,,,,,,,,,,,,,,,,,,,,,,,,,,,,,,,,,,,,,,,,,,,,,,,,,,,,,,,,,,,,,,,,,,,,,,,,,,,,,,,,,,,,,,,,,,,,,,,,,,,,,,,,,,,,,,,,,,,,,,,,,,,,,,
,,64988510fe500ee3533884a8,2024-02-18_20h08.59.583,kallum_motion_pilot,2023.2.2,Win32,59.88023952,64988510fe500ee3533884a8,65d2b6c8f2eece985d8e374c,65d2b7cec67a654a5c71c239,0.5172,0.5175,0,102,102,107,1,sixeight,,,,,,,,,,,,,,,,,,,,,,,,,,,,,,,,,,,,,,,,,,,,,,,,,,,,,,,,,,,,,,,,,,,,,,,,,,,,,,,,,,,,,,,,,,,,,,,,,,,,,,,,,,,,,,,,,,,,,,,,,,,,,,,,,,,,,,,,,
,,64988510fe500ee3533884a8,2024-02-18_20h08.59.583,kallum_motion_pilot,2023.2.2,Win32,59.88023952,64988510fe500ee3533884a8,65d2b6c8f2eece985d8e374c,65d2b7cec67a654a5c71c239,0.5179,0.5181,0,103,103,132,1,sevenfive,,,,,,,,,,,,,,,,,,,,,,,,,,,,,,,,,,,,,,,,,,,,,,,,,,,,,,,,,,,,,,,,,,,,,,,,,,,,,,,,,,,,,,,,,,,,,,,,,,,,,,,,,,,,,,,,,,,,,,,,,,,,,,,,,,,,,,,,,
,,64988510fe500ee3533884a8,2024-02-18_20h08.59.583,kallum_motion_pilot,2023.2.2,Win32,59.88023952,64988510fe500ee3533884a8,65d2b6c8f2eece985d8e374c,65d2b7cec67a654a5c71c239,0.5185,0.5188,0,104,104,150,1,eightsix,,,,,,,,,,,,,,,,,,,,,,,,,,,,,,,,,,,,,,,,,,,,,,,,,,,,,,,,,,,,,,,,,,,,,,,,,,,,,,,,,,,,,,,,,,,,,,,,,,,,,,,,,,,,,,,,,,,,,,,,,,,,,,,,,,,,,,,,,
,,64988510fe500ee3533884a8,2024-02-18_20h08.59.583,kallum_motion_pilot,2023.2.2,Win32,59.88023952,64988510fe500ee3533884a8,65d2b6c8f2eece985d8e374c,65d2b7cec67a654a5c71c239,0.5192,0.5194,0,105,105,89,1,fiveseven,,,,,,,,,,,,,,,,,,,,,,,,,,,,,,,,,,,,,,,,,,,,,,,,,,,,,,,,,,,,,,,,,,,,,,,,,,,,,,,,,,,,,,,,,,,,,,,,,,,,,,,,,,,,,,,,,,,,,,,,,,,,,,,,,,,,,,,,,
,,64988510fe500ee3533884a8,2024-02-18_20h08.59.583,kallum_motion_pilot,2023.2.2,Win32,59.88023952,64988510fe500ee3533884a8,65d2b6c8f2eece985d8e374c,65d2b7cec67a654a5c71c239,0.5199,0.5202,0,106,106,105,1,fiveseven,,,,,,,,,,,,,,,,,,,,,,,,,,,,,,,,,,,,,,,,,,,,,,,,,,,,,,,,,,,,,,,,,,,,,,,,,,,,,,,,,,,,,,,,,,,,,,,,,,,,,,,,,,,,,,,,,,,,,,,,,,,,,,,,,,,,,,,,,
,,64988510fe500ee3533884a8,2024-02-18_20h08.59.583,kallum_motion_pilot,2023.2.2,Win32,59.88023952,64988510fe500ee3533884a8,65d2b6c8f2eece985d8e374c,65d2b7cec67a654a5c71c239,0.5206,0.5208,0,107,107,62,1,fourtwo,,,,,,,,,,,,,,,,,,,,,,,,,,,,,,,,,,,,,,,,,,,,,,,,,,,,,,,,,,,,,,,,,,,,,,,,,,,,,,,,,,,,,,,,,,,,,,,,,,,,,,,,,,,,,,,,,,,,,,,,,,,,,,,,,,,,,,,,,
,,64988510fe500ee3533884a8,2024-02-18_20h08.59.583,kallum_motion_pilot,2023.2.2,Win32,59.88023952,64988510fe500ee3533884a8,65d2b6c8f2eece985d8e374c,65d2b7cec67a654a5c71c239,0.5212,0.5214,0,108,108,123,1,sixeight,,,,,,,,,,,,,,,,,,,,,,,,,,,,,,,,,,,,,,,,,,,,,,,,,,,,,,,,,,,,,,,,,,,,,,,,,,,,,,,,,,,,,,,,,,,,,,,,,,,,,,,,,,,,,,,,,,,,,,,,,,,,,,,,,,,,,,,,,
,,64988510fe500ee3533884a8,2024-02-18_20h08.59.583,kallum_motion_pilot,2023.2.2,Win32,59.88023952,64988510fe500ee3533884a8,65d2b6c8f2eece985d8e374c,65d2b7cec67a654a5c71c239,0.5219,0.5224,0,109,109,61,1,threefour,,,,,,,,,,,,,,,,,,,,,,,,,,,,,,,,,,,,,,,,,,,,,,,,,,,,,,,,,,,,,,,,,,,,,,,,,,,,,,,,,,,,,,,,,,,,,,,,,,,,,,,,,,,,,,,,,,,,,,,,,,,,,,,,,,,,,,,,,
,,64988510fe500ee3533884a8,2024-02-18_20h08.59.583,kallum_motion_pilot,2023.2.2,Win32,59.88023952,64988510fe500ee3533884a8,65d2b6c8f2eece985d8e374c,65d2b7cec67a654a5c71c239,0.5228,0.5231,0,110,110,73,1,onethree,,,,,,,,,,,,,,,,,,,,,,,,,,,,,,,,,,,,,,,,,,,,,,,,,,,,,,,,,,,,,,,,,,,,,,,,,,,,,,,,,,,,,,,,,,,,,,,,,,,,,,,,,,,,,,,,,,,,,,,,,,,,,,,,,,,,,,,,,
,,64988510fe500ee3533884a8,2024-02-18_20h08.59.583,kallum_motion_pilot,2023.2.2,Win32,59.88023952,64988510fe500ee3533884a8,65d2b6c8f2eece985d8e374c,65d2b7cec67a654a5c71c239,0.5235,0.5237,0,111,111,129,1,fiveseven,,,,,,,,,,,,,,,,,,,,,,,,,,,,,,,,,,,,,,,,,,,,,,,,,,,,,,,,,,,,,,,,,,,,,,,,,,,,,,,,,,,,,,,,,,,,,,,,,,,,,,,,,,,,,,,,,,,,,,,,,,,,,,,,,,,,,,,,,
,,64988510fe500ee3533884a8,2024-02-18_20h08.59.583,kallum_motion_pilot,2023.2.2,Win32,59.88023952,64988510fe500ee3533884a8,65d2b6c8f2eece985d8e374c,65d2b7cec67a654a5c71c239,0.5241,0.5244,0,112,112,120,1,fivesix,,,,,,,,,,,,,,,,,,,,,,,,,,,,,,,,,,,,,,,,,,,,,,,,,,,,,,,,,,,,,,,,,,,,,,,,,,,,,,,,,,,,,,,,,,,,,,,,,,,,,,,,,,,,,,,,,,,,,,,,,,,,,,,,,,,,,,,,,
,,64988510fe500ee3533884a8,2024-02-18_20h08.59.583,kallum_motion_pilot,2023.2.2,Win32,59.88023952,64988510fe500ee3533884a8,65d2b6c8f2eece985d8e374c,65d2b7cec67a654a5c71c239,0.5248,0.5251,0,113,113,7,1,fourthree,,,,,,,,,,,,,,,,,,,,,,,,,,,,,,,,,,,,,,,,,,,,,,,,,,,,,,,,,,,,,,,,,,,,,,,,,,,,,,,,,,,,,,,,,,,,,,,,,,,,,,,,,,,,,,,,,,,,,,,,,,,,,,,,,,,,,,,,,
,,64988510fe500ee3533884a8,2024-02-18_20h08.59.583,kallum_motion_pilot,2023.2.2,Win32,59.88023952,64988510fe500ee3533884a8,65d2b6c8f2eece985d8e374c,65d2b7cec67a654a5c71c239,0.5255,0.5257,0,114,114,65,1,onethree,,,,,,,,,,,,,,,,,,,,,,,,,,,,,,,,,,,,,,,,,,,,,,,,,,,,,,,,,,,,,,,,,,,,,,,,,,,,,,,,,,,,,,,,,,,,,,,,,,,,,,,,,,,,,,,,,,,,,,,,,,,,,,,,,,,,,,,,,
,,64988510fe500ee3533884a8,2024-02-18_20h08.59.583,kallum_motion_pilot,2023.2.2,Win32,59.88023952,64988510fe500ee3533884a8,65d2b6c8f2eece985d8e374c,65d2b7cec67a654a5c71c239,0.5264,0.5267,0,115,115,68,1,threeone,,,,,,,,,,,,,,,,,,,,,,,,,,,,,,,,,,,,,,,,,,,,,,,,,,,,,,,,,,,,,,,,,,,,,,,,,,,,,,,,,,,,,,,,,,,,,,,,,,,,,,,,,,,,,,,,,,,,,,,,,,,,,,,,,,,,,,,,,
,,64988510fe500ee3533884a8,2024-02-18_20h08.59.583,kallum_motion_pilot,2023.2.2,Win32,59.88023952,64988510fe500ee3533884a8,65d2b6c8f2eece985d8e374c,65d2b7cec67a654a5c71c239,0.5268,0.5271,0,116,116,66,1,twoone,,,,,,,,,,,,,,,,,,,,,,,,,,,,,,,,,,,,,,,,,,,,,,,,,,,,,,,,,,,,,,,,,,,,,,,,,,,,,,,,,,,,,,,,,,,,,,,,,,,,,,,,,,,,,,,,,,,,,,,,,,,,,,,,,,,,,,,,,
,,64988510fe500ee3533884a8,2024-02-18_20h08.59.583,kallum_motion_pilot,2023.2.2,Win32,59.88023952,64988510fe500ee3533884a8,65d2b6c8f2eece985d8e374c,65d2b7cec67a654a5c71c239,0.5273,0.5275,0,117,117,71,1,fourthree,,,,,,,,,,,,,,,,,,,,,,,,,,,,,,,,,,,,,,,,,,,,,,,,,,,,,,,,,,,,,,,,,,,,,,,,,,,,,,,,,,,,,,,,,,,,,,,,,,,,,,,,,,,,,,,,,,,,,,,,,,,,,,,,,,,,,,,,,
,,64988510fe500ee3533884a8,2024-02-18_20h08.59.583,kallum_motion_pilot,2023.2.2,Win32,59.88023952,64988510fe500ee3533884a8,65d2b6c8f2eece985d8e374c,65d2b7cec67a654a5c71c239,0.5278,0.5281,0,118,118,109,1,seveneight,,,,,,,,,,,,,,,,,,,,,,,,,,,,,,,,,,,,,,,,,,,,,,,,,,,,,,,,,,,,,,,,,,,,,,,,,,,,,,,,,,,,,,,,,,,,,,,,,,,,,,,,,,,,,,,,,,,,,,,,,,,,,,,,,,,,,,,,,
,,64988510fe500ee3533884a8,2024-02-18_20h08.59.583,kallum_motion_pilot,2023.2.2,Win32,59.88023952,64988510fe500ee3533884a8,65d2b6c8f2eece985d8e374c,65d2b7cec67a654a5c71c239,0.5283,0.5285,0,119,119,104,1,fivesix,,,,,,,,,,,,,,,,,,,,,,,,,,,,,,,,,,,,,,,,,,,,,,,,,,,,,,,,,,,,,,,,,,,,,,,,,,,,,,,,,,,,,,,,,,,,,,,,,,,,,,,,,,,,,,,,,,,,,,,,,,,,,,,,,,,,,,,,,
,,64988510fe500ee3533884a8,2024-02-18_20h08.59.583,kallum_motion_pilot,2023.2.2,Win32,59.88023952,64988510fe500ee3533884a8,65d2b6c8f2eece985d8e374c,65d2b7cec67a654a5c71c239,0.5288,0.5289,0,120,120,27,1,twofour,,,,,,,,,,,,,,,,,,,,,,,,,,,,,,,,,,,,,,,,,,,,,,,,,,,,,,,,,,,,,,,,,,,,,,,,,,,,,,,,,,,,,,,,,,,,,,,,,,,,,,,,,,,,,,,,,,,,,,,,,,,,,,,,,,,,,,,,,
,,64988510fe500ee3533884a8,2024-02-18_20h08.59.583,kallum_motion_pilot,2023.2.2,Win32,59.88023952,64988510fe500ee3533884a8,65d2b6c8f2eece985d8e374c,65d2b7cec67a654a5c71c239,0.5293,0.5296,0,121,121,90,1,sixfive,,,,,,,,,,,,,,,,,,,,,,,,,,,,,,,,,,,,,,,,,,,,,,,,,,,,,,,,,,,,,,,,,,,,,,,,,,,,,,,,,,,,,,,,,,,,,,,,,,,,,,,,,,,,,,,,,,,,,,,,,,,,,,,,,,,,,,,,,
,,64988510fe500ee3533884a8,2024-02-18_20h08.59.583,kallum_motion_pilot,2023.2.2,Win32,59.88023952,64988510fe500ee3533884a8,65d2b6c8f2eece985d8e374c,65d2b7cec67a654a5c71c239,0.5298,0.53,0,122,122,79,1,eightseven,,,,,,,,,,,,,,,,,,,,,,,,,,,,,,,,,,,,,,,,,,,,,,,,,,,,,,,,,,,,,,,,,,,,,,,,,,,,,,,,,,,,,,,,,,,,,,,,,,,,,,,,,,,,,,,,,,,,,,,,,,,,,,,,,,,,,,,,,
,,64988510fe500ee3533884a8,2024-02-18_20h08.59.583,kallum_motion_pilot,2023.2.2,Win32,59.88023952,64988510fe500ee3533884a8,65d2b6c8f2eece985d8e374c,65d2b7cec67a654a5c71c239,0.5303,0.5305,0,123,123,137,1,fiveseven,,,,,,,,,,,,,,,,,,,,,,,,,,,,,,,,,,,,,,,,,,,,,,,,,,,,,,,,,,,,,,,,,,,,,,,,,,,,,,,,,,,,,,,,,,,,,,,,,,,,,,,,,,,,,,,,,,,,,,,,,,,,,,,,,,,,,,,,,
,,64988510fe500ee3533884a8,2024-02-18_20h08.59.583,kallum_motion_pilot,2023.2.2,Win32,59.88023952,64988510fe500ee3533884a8,65d2b6c8f2eece985d8e374c,65d2b7cec67a654a5c71c239,0.5307,0.531,0,124,124,64,1,onetwo,,,,,,,,,,,,,,,,,,,,,,,,,,,,,,,,,,,,,,,,,,,,,,,,,,,,,,,,,,,,,,,,,,,,,,,,,,,,,,,,,,,,,,,,,,,,,,,,,,,,,,,,,,,,,,,,,,,,,,,,,,,,,,,,,,,,,,,,,
,,64988510fe500ee3533884a8,2024-02-18_20h08.59.583,kallum_motion_pilot,2023.2.2,Win32,59.88023952,64988510fe500ee3533884a8,65d2b6c8f2eece985d8e374c,65d2b7cec67a654a5c71c239,0.5312,0.5314,0,125,125,136,1,fivesix,,,,,,,,,,,,,,,,,,,,,,,,,,,,,,,,,,,,,,,,,,,,,,,,,,,,,,,,,,,,,,,,,,,,,,,,,,,,,,,,,,,,,,,,,,,,,,,,,,,,,,,,,,,,,,,,,,,,,,,,,,,,,,,,,,,,,,,,,
,,64988510fe500ee3533884a8,2024-02-18_20h08.59.583,kallum_motion_pilot,2023.2.2,Win32,59.88023952,64988510fe500ee3533884a8,65d2b6c8f2eece985d8e374c,65d2b7cec67a654a5c71c239,0.5316,0.532,0,126,126,53,1,threefour,,,,,,,,,,,,,,,,,,,,,,,,,,,,,,,,,,,,,,,,,,,,,,,,,,,,,,,,,,,,,,,,,,,,,,,,,,,,,,,,,,,,,,,,,,,,,,,,,,,,,,,,,,,,,,,,,,,,,,,,,,,,,,,,,,,,,,,,,
,,64988510fe500ee3533884a8,2024-02-18_20h08.59.583,kallum_motion_pilot,2023.2.2,Win32,59.88023952,64988510fe500ee3533884a8,65d2b6c8f2eece985d8e374c,65d2b7cec67a654a5c71c239,0.5324,0.5326,0,127,127,44,1,threeone,,,,,,,,,,,,,,,,,,,,,,,,,,,,,,,,,,,,,,,,,,,,,,,,,,,,,,,,,,,,,,,,,,,,,,,,,,,,,,,,,,,,,,,,,,,,,,,,,,,,,,,,,,,,,,,,,,,,,,,,,,,,,,,,,,,,,,,,,
,,64988510fe500ee3533884a8,2024-02-18_20h08.59.583,kallum_motion_pilot,2023.2.2,Win32,59.88023952,64988510fe500ee3533884a8,65d2b6c8f2eece985d8e374c,65d2b7cec67a654a5c71c239,0.5328,0.533,0,128,128,21,1,threefour,,,,,,,,,,,,,,,,,,,,,,,,,,,,,,,,,,,,,,,,,,,,,,,,,,,,,,,,,,,,,,,,,,,,,,,,,,,,,,,,,,,,,,,,,,,,,,,,,,,,,,,,,,,,,,,,,,,,,,,,,,,,,,,,,,,,,,,,,
,,64988510fe500ee3533884a8,2024-02-18_20h08.59.583,kallum_motion_pilot,2023.2.2,Win32,59.88023952,64988510fe500ee3533884a8,65d2b6c8f2eece985d8e374c,65d2b7cec67a654a5c71c239,0.5334,0.5336,0,129,129,75,1,twofour,,,,,,,,,,,,,,,,,,,,,,,,,,,,,,,,,,,,,,,,,,,,,,,,,,,,,,,,,,,,,,,,,,,,,,,,,,,,,,,,,,,,,,,,,,,,,,,,,,,,,,,,,,,,,,,,,,,,,,,,,,,,,,,,,,,,,,,,,
,,64988510fe500ee3533884a8,2024-02-18_20h08.59.583,kallum_motion_pilot,2023.2.2,Win32,59.88023952,64988510fe500ee3533884a8,65d2b6c8f2eece985d8e374c,65d2b7cec67a654a5c71c239,0.5341,0.5345,0,130,130,146,1,sixfive,,,,,,,,,,,,,,,,,,,,,,,,,,,,,,,,,,,,,,,,,,,,,,,,,,,,,,,,,,,,,,,,,,,,,,,,,,,,,,,,,,,,,,,,,,,,,,,,,,,,,,,,,,,,,,,,,,,,,,,,,,,,,,,,,,,,,,,,,
,,64988510fe500ee3533884a8,2024-02-18_20h08.59.583,kallum_motion_pilot,2023.2.2,Win32,59.88023952,64988510fe500ee3533884a8,65d2b6c8f2eece985d8e374c,65d2b7cec67a654a5c71c239,0.535,0.5354,0,131,131,97,1,fiveseven,,,,,,,,,,,,,,,,,,,,,,,,,,,,,,,,,,,,,,,,,,,,,,,,,,,,,,,,,,,,,,,,,,,,,,,,,,,,,,,,,,,,,,,,,,,,,,,,,,,,,,,,,,,,,,,,,,,,,,,,,,,,,,,,,,,,,,,,,
,,64988510fe500ee3533884a8,2024-02-18_20h08.59.583,kallum_motion_pilot,2023.2.2,Win32,59.88023952,64988510fe500ee3533884a8,65d2b6c8f2eece985d8e374c,65d2b7cec67a654a5c71c239,0.5359,0.5362,0,132,132,134,1,eightsix,,,,,,,,,,,,,,,,,,,,,,,,,,,,,,,,,,,,,,,,,,,,,,,,,,,,,,,,,,,,,,,,,,,,,,,,,,,,,,,,,,,,,,,,,,,,,,,,,,,,,,,,,,,,,,,,,,,,,,,,,,,,,,,,,,,,,,,,,
,,64988510fe500ee3533884a8,2024-02-18_20h08.59.583,kallum_motion_pilot,2023.2.2,Win32,59.88023952,64988510fe500ee3533884a8,65d2b6c8f2eece985d8e374c,65d2b7cec67a654a5c71c239,0.5368,0.5371,0,133,133,102,1,eightsix,,,,,,,,,,,,,,,,,,,,,,,,,,,,,,,,,,,,,,,,,,,,,,,,,,,,,,,,,,,,,,,,,,,,,,,,,,,,,,,,,,,,,,,,,,,,,,,,,,,,,,,,,,,,,,,,,,,,,,,,,,,,,,,,,,,,,,,,,
,,64988510fe500ee3533884a8,2024-02-18_20h08.59.583,kallum_motion_pilot,2023.2.2,Win32,59.88023952,64988510fe500ee3533884a8,65d2b6c8f2eece985d8e374c,65d2b7cec67a654a5c71c239,0.5377,0.538,0,134,134,81,1,fiveseven,,,,,,,,,,,,,,,,,,,,,,,,,,,,,,,,,,,,,,,,,,,,,,,,,,,,,,,,,,,,,,,,,,,,,,,,,,,,,,,,,,,,,,,,,,,,,,,,,,,,,,,,,,,,,,,,,,,,,,,,,,,,,,,,,,,,,,,,,
,,64988510fe500ee3533884a8,2024-02-18_20h08.59.583,kallum_motion_pilot,2023.2.2,Win32,59.88023952,64988510fe500ee3533884a8,65d2b6c8f2eece985d8e374c,65d2b7cec67a654a5c71c239,0.5385,0.539,0,135,135,38,1,fourtwo,,,,,,,,,,,,,,,,,,,,,,,,,,,,,,,,,,,,,,,,,,,,,,,,,,,,,,,,,,,,,,,,,,,,,,,,,,,,,,,,,,,,,,,,,,,,,,,,,,,,,,,,,,,,,,,,,,,,,,,,,,,,,,,,,,,,,,,,,
,,64988510fe500ee3533884a8,2024-02-18_20h08.59.583,kallum_motion_pilot,2023.2.2,Win32,59.88023952,64988510fe500ee3533884a8,65d2b6c8f2eece985d8e374c,65d2b7cec67a654a5c71c239,0.5395,0.5397,0,136,136,154,1,sixfive,,,,,,,,,,,,,,,,,,,,,,,,,,,,,,,,,,,,,,,,,,,,,,,,,,,,,,,,,,,,,,,,,,,,,,,,,,,,,,,,,,,,,,,,,,,,,,,,,,,,,,,,,,,,,,,,,,,,,,,,,,,,,,,,,,,,,,,,,
,,64988510fe500ee3533884a8,2024-02-18_20h08.59.583,kallum_motion_pilot,2023.2.2,Win32,59.88023952,64988510fe500ee3533884a8,65d2b6c8f2eece985d8e374c,65d2b7cec67a654a5c71c239,0.5401,0.5403,0,137,137,26,1,twoone,,,,,,,,,,,,,,,,,,,,,,,,,,,,,,,,,,,,,,,,,,,,,,,,,,,,,,,,,,,,,,,,,,,,,,,,,,,,,,,,,,,,,,,,,,,,,,,,,,,,,,,,,,,,,,,,,,,,,,,,,,,,,,,,,,,,,,,,,
,,64988510fe500ee3533884a8,2024-02-18_20h08.59.583,kallum_motion_pilot,2023.2.2,Win32,59.88023952,64988510fe500ee3533884a8,65d2b6c8f2eece985d8e374c,65d2b7cec67a654a5c71c239,0.5407,0.5409,0,138,138,35,1,twofour,,,,,,,,,,,,,,,,,,,,,,,,,,,,,,,,,,,,,,,,,,,,,,,,,,,,,,,,,,,,,,,,,,,,,,,,,,,,,,,,,,,,,,,,,,,,,,,,,,,,,,,,,,,,,,,,,,,,,,,,,,,,,,,,,,,,,,,,,
,,64988510fe500ee3533884a8,2024-02-18_20h08.59.583,kallum_motion_pilot,2023.2.2,Win32,59.88023952,64988510fe500ee3533884a8,65d2b6c8f2eece985d8e374c,65d2b7cec67a654a5c71c239,0.5412,0.5414,0,139,139,50,1,twoone,,,,,,,,,,,,,,,,,,,,,,,,,,,,,,,,,,,,,,,,,,,,,,,,,,,,,,,,,,,,,,,,,,,,,,,,,,,,,,,,,,,,,,,,,,,,,,,,,,,,,,,,,,,,,,,,,,,,,,,,,,,,,,,,,,,,,,,,,
,,64988510fe500ee3533884a8,2024-02-18_20h08.59.583,kallum_motion_pilot,2023.2.2,Win32,59.88023952,64988510fe500ee3533884a8,65d2b6c8f2eece985d8e374c,65d2b7cec67a654a5c71c239,0.5417,0.5424,0,140,140,157,1,seveneight,,,,,,,,,,,,,,,,,,,,,,,,,,,,,,,,,,,,,,,,,,,,,,,,,,,,,,,,,,,,,,,,,,,,,,,,,,,,,,,,,,,,,,,,,,,,,,,,,,,,,,,,,,,,,,,,,,,,,,,,,,,,,,,,,,,,,,,,,
,,64988510fe500ee3533884a8,2024-02-18_20h08.59.583,kallum_motion_pilot,2023.2.2,Win32,59.88023952,64988510fe500ee3533884a8,65d2b6c8f2eece985d8e374c,65d2b7cec67a654a5c71c239,0.5427,0.543,0,141,141,23,1,fourthree,,,,,,,,,,,,,,,,,,,,,,,,,,,,,,,,,,,,,,,,,,,,,,,,,,,,,,,,,,,,,,,,,,,,,,,,,,,,,,,,,,,,,,,,,,,,,,,,,,,,,,,,,,,,,,,,,,,,,,,,,,,,,,,,,,,,,,,,,
,,64988510fe500ee3533884a8,2024-02-18_20h08.59.583,kallum_motion_pilot,2023.2.2,Win32,59.88023952,64988510fe500ee3533884a8,65d2b6c8f2eece985d8e374c,65d2b7cec67a654a5c71c239,0.5432,0.5435,0,142,142,48,1,onetwo,,,,,,,,,,,,,,,,,,,,,,,,,,,,,,,,,,,,,,,,,,,,,,,,,,,,,,,,,,,,,,,,,,,,,,,,,,,,,,,,,,,,,,,,,,,,,,,,,,,,,,,,,,,,,,,,,,,,,,,,,,,,,,,,,,,,,,,,,
,,64988510fe500ee3533884a8,2024-02-18_20h08.59.583,kallum_motion_pilot,2023.2.2,Win32,59.88023952,64988510fe500ee3533884a8,65d2b6c8f2eece985d8e374c,65d2b7cec67a654a5c71c239,0.5438,0.5441,0,143,143,46,1,fourtwo,,,,,,,,,,,,,,,,,,,,,,,,,,,,,,,,,,,,,,,,,,,,,,,,,,,,,,,,,,,,,,,,,,,,,,,,,,,,,,,,,,,,,,,,,,,,,,,,,,,,,,,,,,,,,,,,,,,,,,,,,,,,,,,,,,,,,,,,,
,,64988510fe500ee3533884a8,2024-02-18_20h08.59.583,kallum_motion_pilot,2023.2.2,Win32,59.88023952,64988510fe500ee3533884a8,65d2b6c8f2eece985d8e374c,65d2b7cec67a654a5c71c239,0.5443,0.5446,0,144,144,63,1,fourthree,,,,,,,,,,,,,,,,,,,,,,,,,,,,,,,,,,,,,,,,,,,,,,,,,,,,,,,,,,,,,,,,,,,,,,,,,,,,,,,,,,,,,,,,,,,,,,,,,,,,,,,,,,,,,,,,,,,,,,,,,,,,,,,,,,,,,,,,,
,,64988510fe500ee3533884a8,2024-02-18_20h08.59.583,kallum_motion_pilot,2023.2.2,Win32,59.88023952,64988510fe500ee3533884a8,65d2b6c8f2eece985d8e374c,65d2b7cec67a654a5c71c239,0.5451,0.5534,0,145,145,144,1,fivesix,,,,,,,,,,,,,,,,,,,,,,,,,,,,,,,,,,,,,,,,,,,,,,,,,,,,,,,,,,,,,,,,,,,,,,,,,,,,,,,,,,,,,,,,,,,,,,,,,,,,,,,,,,,,,,,,,,,,,,,,,,,,,,,,,,,,,,,,,
,,64988510fe500ee3533884a8,2024-02-18_20h08.59.583,kallum_motion_pilot,2023.2.2,Win32,59.88023952,64988510fe500ee3533884a8,65d2b6c8f2eece985d8e374c,65d2b7cec67a654a5c71c239,0.554,0.5544,0,146,146,131,1,sixeight,,,,,,,,,,,,,,,,,,,,,,,,,,,,,,,,,,,,,,,,,,,,,,,,,,,,,,,,,,,,,,,,,,,,,,,,,,,,,,,,,,,,,,,,,,,,,,,,,,,,,,,,,,,,,,,,,,,,,,,,,,,,,,,,,,,,,,,,,
,,64988510fe500ee3533884a8,2024-02-18_20h08.59.583,kallum_motion_pilot,2023.2.2,Win32,59.88023952,64988510fe500ee3533884a8,65d2b6c8f2eece985d8e374c,65d2b7cec67a654a5c71c239,0.5549,0.5553,0,147,147,52,1,threeone,,,,,,,,,,,,,,,,,,,,,,,,,,,,,,,,,,,,,,,,,,,,,,,,,,,,,,,,,,,,,,,,,,,,,,,,,,,,,,,,,,,,,,,,,,,,,,,,,,,,,,,,,,,,,,,,,,,,,,,,,,,,,,,,,,,,,,,,,
,,64988510fe500ee3533884a8,2024-02-18_20h08.59.583,kallum_motion_pilot,2023.2.2,Win32,59.88023952,64988510fe500ee3533884a8,65d2b6c8f2eece985d8e374c,65d2b7cec67a654a5c71c239,0.5558,0.5561,0,148,148,49,1,onethree,,,,,,,,,,,,,,,,,,,,,,,,,,,,,,,,,,,,,,,,,,,,,,,,,,,,,,,,,,,,,,,,,,,,,,,,,,,,,,,,,,,,,,,,,,,,,,,,,,,,,,,,,,,,,,,,,,,,,,,,,,,,,,,,,,,,,,,,,
,,64988510fe500ee3533884a8,2024-02-18_20h08.59.583,kallum_motion_pilot,2023.2.2,Win32,59.88023952,64988510fe500ee3533884a8,65d2b6c8f2eece985d8e374c,65d2b7cec67a654a5c71c239,0.5565,0.5569,0,149,149,43,1,twofour,,,,,,,,,,,,,,,,,,,,,,,,,,,,,,,,,,,,,,,,,,,,,,,,,,,,,,,,,,,,,,,,,,,,,,,,,,,,,,,,,,,,,,,,,,,,,,,,,,,,,,,,,,,,,,,,,,,,,,,,,,,,,,,,,,,,,,,,,
,,64988510fe500ee3533884a8,2024-02-18_20h08.59.583,kallum_motion_pilot,2023.2.2,Win32,59.88023952,64988510fe500ee3533884a8,65d2b6c8f2eece985d8e374c,65d2b7cec67a654a5c71c239,0.5574,0.5577,0,150,150,5,1,threefour,,,,,,,,,,,,,,,,,,,,,,,,,,,,,,,,,,,,,,,,,,,,,,,,,,,,,,,,,,,,,,,,,,,,,,,,,,,,,,,,,,,,,,,,,,,,,,,,,,,,,,,,,,,,,,,,,,,,,,,,,,,,,,,,,,,,,,,,,
,,64988510fe500ee3533884a8,2024-02-18_20h08.59.583,kallum_motion_pilot,2023.2.2,Win32,59.88023952,64988510fe500ee3533884a8,65d2b6c8f2eece985d8e374c,65d2b7cec67a654a5c71c239,0.5581,0.5586,0,151,151,116,1,sevenfive,,,,,,,,,,,,,,,,,,,,,,,,,,,,,,,,,,,,,,,,,,,,,,,,,,,,,,,,,,,,,,,,,,,,,,,,,,,,,,,,,,,,,,,,,,,,,,,,,,,,,,,,,,,,,,,,,,,,,,,,,,,,,,,,,,,,,,,,,
,,64988510fe500ee3533884a8,2024-02-18_20h08.59.583,kallum_motion_pilot,2023.2.2,Win32,59.88023952,64988510fe500ee3533884a8,65d2b6c8f2eece985d8e374c,65d2b7cec67a654a5c71c239,0.5593,0.5597,0,152,152,160,1,fivesix,,,,,,,,,,,,,,,,,,,,,,,,,,,,,,,,,,,,,,,,,,,,,,,,,,,,,,,,,,,,,,,,,,,,,,,,,,,,,,,,,,,,,,,,,,,,,,,,,,,,,,,,,,,,,,,,,,,,,,,,,,,,,,,,,,,,,,,,,
,,64988510fe500ee3533884a8,2024-02-18_20h08.59.583,kallum_motion_pilot,2023.2.2,Win32,59.88023952,64988510fe500ee3533884a8,65d2b6c8f2eece985d8e374c,65d2b7cec67a654a5c71c239,0.5601,0.5604,0,153,153,94,1,eightsix,,,,,,,,,,,,,,,,,,,,,,,,,,,,,,,,,,,,,,,,,,,,,,,,,,,,,,,,,,,,,,,,,,,,,,,,,,,,,,,,,,,,,,,,,,,,,,,,,,,,,,,,,,,,,,,,,,,,,,,,,,,,,,,,,,,,,,,,,
,,64988510fe500ee3533884a8,2024-02-18_20h08.59.583,kallum_motion_pilot,2023.2.2,Win32,59.88023952,64988510fe500ee3533884a8,65d2b6c8f2eece985d8e374c,65d2b7cec67a654a5c71c239,0.5609,0.5612,0,154,154,87,1,eightseven,,,,,,,,,,,,,,,,,,,,,,,,,,,,,,,,,,,,,,,,,,,,,,,,,,,,,,,,,,,,,,,,,,,,,,,,,,,,,,,,,,,,,,,,,,,,,,,,,,,,,,,,,,,,,,,,,,,,,,,,,,,,,,,,,,,,,,,,,
,,64988510fe500ee3533884a8,2024-02-18_20h08.59.583,kallum_motion_pilot,2023.2.2,Win32,59.88023952,64988510fe500ee3533884a8,65d2b6c8f2eece985d8e374c,65d2b7cec67a654a5c71c239,0.5617,0.562,0,155,155,15,1,fourthree,,,,,,,,,,,,,,,,,,,,,,,,,,,,,,,,,,,,,,,,,,,,,,,,,,,,,,,,,,,,,,,,,,,,,,,,,,,,,,,,,,,,,,,,,,,,,,,,,,,,,,,,,,,,,,,,,,,,,,,,,,,,,,,,,,,,,,,,,
,,64988510fe500ee3533884a8,2024-02-18_20h08.59.583,kallum_motion_pilot,2023.2.2,Win32,59.88023952,64988510fe500ee3533884a8,65d2b6c8f2eece985d8e374c,65d2b7cec67a654a5c71c239,0.5628,0.5631,0,156,156,72,1,onetwo,,,,,,,,,,,,,,,,,,,,,,,,,,,,,,,,,,,,,,,,,,,,,,,,,,,,,,,,,,,,,,,,,,,,,,,,,,,,,,,,,,,,,,,,,,,,,,,,,,,,,,,,,,,,,,,,,,,,,,,,,,,,,,,,,,,,,,,,,
,,64988510fe500ee3533884a8,2024-02-18_20h08.59.583,kallum_motion_pilot,2023.2.2,Win32,59.88023952,64988510fe500ee3533884a8,65d2b6c8f2eece985d8e374c,65d2b7cec67a654a5c71c239,0.5635,0.5638,0,157,157,59,1,twofour,,,,,,,,,,,,,,,,,,,,,,,,,,,,,,,,,,,,,,,,,,,,,,,,,,,,,,,,,,,,,,,,,,,,,,,,,,,,,,,,,,,,,,,,,,,,,,,,,,,,,,,,,,,,,,,,,,,,,,,,,,,,,,,,,,,,,,,,,
,,64988510fe500ee3533884a8,2024-02-18_20h08.59.583,kallum_motion_pilot,2023.2.2,Win32,59.88023952,64988510fe500ee3533884a8,65d2b6c8f2eece985d8e374c,65d2b7cec67a654a5c71c239,0.5642,0.5646,0,158,158,12,1,threeone,,,,,,,,,,,,,,,,,,,,,,,,,,,,,,,,,,,,,,,,,,,,,,,,,,,,,,,,,,,,,,,,,,,,,,,,,,,,,,,,,,,,,,,,,,,,,,,,,,,,,,,,,,,,,,,,,,,,,,,,,,,,,,,,,,,,,,,,,
,,64988510fe500ee3533884a8,2024-02-18_20h08.59.583,kallum_motion_pilot,2023.2.2,Win32,59.88023952,64988510fe500ee3533884a8,65d2b6c8f2eece985d8e374c,65d2b7cec67a654a5c71c239,0.565,0.5654,0,159,159,17,1,onethree,,,,,,,,,,,,,,,,,,,,,,,,,,,,,,,,,,,,,,,,,,,,,,,,,,,,,,,,,,,,,,,,,,,,,,,,,,,,,,,,,,,,,,,,,,,,,,,,,,,,,,,,,,,,,,,,,,,,,,,,,,,,,,,,,,,,,,,,,
,,64988510fe500ee3533884a8,2024-02-18_20h08.59.583,kallum_motion_pilot,2023.2.2,Win32,59.88023952,64988510fe500ee3533884a8,65d2b6c8f2eece985d8e374c,65d2b7cec67a654a5c71c239,0.5659,0.5662,0,160,160,54,1,fourtwo,,,,,,,,,,,,,,,,,,,,,,,,,,,,,,,,,,,,,,,,,,,,,,,,,,,,,,,,,,,,,,,,,,,,,,,,,,,,,,,,,,,,,,,,,,,,,,,,,,,,,,,,,,,,,,,,,,,,,,,,,,,,,,,,,,,,,,,,,
,,64988510fe500ee3533884a8,2024-02-18_20h08.59.583,kallum_motion_pilot,2023.2.2,Win32,59.88023952,64988510fe500ee3533884a8,65d2b6c8f2eece985d8e374c,65d2b7cec67a654a5c71c239,0.5666,0.567,0,161,161,24,1,onetwo,,,,,,,,,,,,,,,,,,,,,,,,,,,,,,,,,,,,,,,,,,,,,,,,,,,,,,,,,,,,,,,,,,,,,,,,,,,,,,,,,,,,,,,,,,,,,,,,,,,,,,,,,,,,,,,,,,,,,,,,,,,,,,,,,,,,,,,,,
,,64988510fe500ee3533884a8,2024-02-18_20h08.59.583,kallum_motion_pilot,2023.2.2,Win32,59.88023952,64988510fe500ee3533884a8,65d2b6c8f2eece985d8e374c,65d2b7cec67a654a5c71c239,0.5674,0.5678,1,0,162,146,1,sixfive,,,,,,,,,,,,,,,,,,,,,,,,,,,,,,,,,,,,,,,,,,,,,,,,,,,,,,,,,,,,,,,,,,,,,,,,,,,,,,,,,,,,,,,,,,,,,,,,,,,,,,,,,,,,,,,,,,,,,,,,,,,,,,,,,,,,,,,,,
,,64988510fe500ee3533884a8,2024-02-18_20h08.59.583,kallum_motion_pilot,2023.2.2,Win32,59.88023952,64988510fe500ee3533884a8,65d2b6c8f2eece985d8e374c,65d2b7cec67a654a5c71c239,0.5682,0.5686,1,1,163,39,1,fourthree,,,,,,,,,,,,,,,,,,,,,,,,,,,,,,,,,,,,,,,,,,,,,,,,,,,,,,,,,,,,,,,,,,,,,,,,,,,,,,,,,,,,,,,,,,,,,,,,,,,,,,,,,,,,,,,,,,,,,,,,,,,,,,,,,,,,,,,,,
,,64988510fe500ee3533884a8,2024-02-18_20h08.59.583,kallum_motion_pilot,2023.2.2,Win32,59.88023952,64988510fe500ee3533884a8,65d2b6c8f2eece985d8e374c,65d2b7cec67a654a5c71c239,0.569,0.5693,1,2,164,94,1,eightsix,,,,,,,,,,,,,,,,,,,,,,,,,,,,,,,,,,,,,,,,,,,,,,,,,,,,,,,,,,,,,,,,,,,,,,,,,,,,,,,,,,,,,,,,,,,,,,,,,,,,,,,,,,,,,,,,,,,,,,,,,,,,,,,,,,,,,,,,,
,,64988510fe500ee3533884a8,2024-02-18_20h08.59.583,kallum_motion_pilot,2023.2.2,Win32,59.88023952,64988510fe500ee3533884a8,65d2b6c8f2eece985d8e374c,65d2b7cec67a654a5c71c239,0.5697,0.5701,1,3,165,50,1,twoone,,,,,,,,,,,,,,,,,,,,,,,,,,,,,,,,,,,,,,,,,,,,,,,,,,,,,,,,,,,,,,,,,,,,,,,,,,,,,,,,,,,,,,,,,,,,,,,,,,,,,,,,,,,,,,,,,,,,,,,,,,,,,,,,,,,,,,,,,
,,64988510fe500ee3533884a8,2024-02-18_20h08.59.583,kallum_motion_pilot,2023.2.2,Win32,59.88023952,64988510fe500ee3533884a8,65d2b6c8f2eece985d8e374c,65d2b7cec67a654a5c71c239,0.5705,0.5709,1,4,166,33,1,onethree,,,,,,,,,,,,,,,,,,,,,,,,,,,,,,,,,,,,,,,,,,,,,,,,,,,,,,,,,,,,,,,,,,,,,,,,,,,,,,,,,,,,,,,,,,,,,,,,,,,,,,,,,,,,,,,,,,,,,,,,,,,,,,,,,,,,,,,,,
,,64988510fe500ee3533884a8,2024-02-18_20h08.59.583,kallum_motion_pilot,2023.2.2,Win32,59.88023952,64988510fe500ee3533884a8,65d2b6c8f2eece985d8e374c,65d2b7cec67a654a5c71c239,0.5713,0.5717,1,5,167,79,1,eightseven,,,,,,,,,,,,,,,,,,,,,,,,,,,,,,,,,,,,,,,,,,,,,,,,,,,,,,,,,,,,,,,,,,,,,,,,,,,,,,,,,,,,,,,,,,,,,,,,,,,,,,,,,,,,,,,,,,,,,,,,,,,,,,,,,,,,,,,,,
,,64988510fe500ee3533884a8,2024-02-18_20h08.59.583,kallum_motion_pilot,2023.2.2,Win32,59.88023952,64988510fe500ee3533884a8,65d2b6c8f2eece985d8e374c,65d2b7cec67a654a5c71c239,0.5723,0.5727,1,6,168,145,1,fiveseven,,,,,,,,,,,,,,,,,,,,,,,,,,,,,,,,,,,,,,,,,,,,,,,,,,,,,,,,,,,,,,,,,,,,,,,,,,,,,,,,,,,,,,,,,,,,,,,,,,,,,,,,,,,,,,,,,,,,,,,,,,,,,,,,,,,,,,,,,
,,64988510fe500ee3533884a8,2024-02-18_20h08.59.583,kallum_motion_pilot,2023.2.2,Win32,59.88023952,64988510fe500ee3533884a8,65d2b6c8f2eece985d8e374c,65d2b7cec67a654a5c71c239,0.5733,0.5736,1,7,169,13,1,threefour,,,,,,,,,,,,,,,,,,,,,,,,,,,,,,,,,,,,,,,,,,,,,,,,,,,,,,,,,,,,,,,,,,,,,,,,,,,,,,,,,,,,,,,,,,,,,,,,,,,,,,,,,,,,,,,,,,,,,,,,,,,,,,,,,,,,,,,,,
,,64988510fe500ee3533884a8,2024-02-18_20h08.59.583,kallum_motion_pilot,2023.2.2,Win32,59.88023952,64988510fe500ee3533884a8,65d2b6c8f2eece985d8e374c,65d2b7cec67a654a5c71c239,0.574,0.5744,1,8,170,55,1,fourthree,,,,,,,,,,,,,,,,,,,,,,,,,,,,,,,,,,,,,,,,,,,,,,,,,,,,,,,,,,,,,,,,,,,,,,,,,,,,,,,,,,,,,,,,,,,,,,,,,,,,,,,,,,,,,,,,,,,,,,,,,,,,,,,,,,,,,,,,,
,,64988510fe500ee3533884a8,2024-02-18_20h08.59.583,kallum_motion_pilot,2023.2.2,Win32,59.88023952,64988510fe500ee3533884a8,65d2b6c8f2eece985d8e374c,65d2b7cec67a654a5c71c239,0.5748,0.5753,1,9,171,86,1,eightsix,,,,,,,,,,,,,,,,,,,,,,,,,,,,,,,,,,,,,,,,,,,,,,,,,,,,,,,,,,,,,,,,,,,,,,,,,,,,,,,,,,,,,,,,,,,,,,,,,,,,,,,,,,,,,,,,,,,,,,,,,,,,,,,,,,,,,,,,,
,,64988510fe500ee3533884a8,2024-02-18_20h08.59.583,kallum_motion_pilot,2023.2.2,Win32,59.88023952,64988510fe500ee3533884a8,65d2b6c8f2eece985d8e374c,65d2b7cec67a654a5c71c239,0.5757,0.5764,1,10,172,37,1,threefour,,,,,,,,,,,,,,,,,,,,,,,,,,,,,,,,,,,,,,,,,,,,,,,,,,,,,,,,,,,,,,,,,,,,,,,,,,,,,,,,,,,,,,,,,,,,,,,,,,,,,,,,,,,,,,,,,,,,,,,,,,,,,,,,,,,,,,,,,
,,64988510fe500ee3533884a8,2024-02-18_20h08.59.583,kallum_motion_pilot,2023.2.2,Win32,59.88023952,64988510fe500ee3533884a8,65d2b6c8f2eece985d8e374c,65d2b7cec67a654a5c71c239,0.5769,0.5774,1,11,173,17,1,onethree,,,,,,,,,,,,,,,,,,,,,,,,,,,,,,,,,,,,,,,,,,,,,,,,,,,,,,,,,,,,,,,,,,,,,,,,,,,,,,,,,,,,,,,,,,,,,,,,,,,,,,,,,,,,,,,,,,,,,,,,,,,,,,,,,,,,,,,,,
,,64988510fe500ee3533884a8,2024-02-18_20h08.59.583,kallum_motion_pilot,2023.2.2,Win32,59.88023952,64988510fe500ee3533884a8,65d2b6c8f2eece985d8e374c,65d2b7cec67a654a5c71c239,0.5777,0.5781,1,12,174,141,1,seveneight,,,,,,,,,,,,,,,,,,,,,,,,,,,,,,,,,,,,,,,,,,,,,,,,,,,,,,,,,,,,,,,,,,,,,,,,,,,,,,,,,,,,,,,,,,,,,,,,,,,,,,,,,,,,,,,,,,,,,,,,,,,,,,,,,,,,,,,,,
,,64988510fe500ee3533884a8,2024-02-18_20h08.59.583,kallum_motion_pilot,2023.2.2,Win32,59.88023952,64988510fe500ee3533884a8,65d2b6c8f2eece985d8e374c,65d2b7cec67a654a5c71c239,0.5785,0.579,1,13,175,114,1,sixfive,,,,,,,,,,,,,,,,,,,,,,,,,,,,,,,,,,,,,,,,,,,,,,,,,,,,,,,,,,,,,,,,,,,,,,,,,,,,,,,,,,,,,,,,,,,,,,,,,,,,,,,,,,,,,,,,,,,,,,,,,,,,,,,,,,,,,,,,,
,,64988510fe500ee3533884a8,2024-02-18_20h08.59.583,kallum_motion_pilot,2023.2.2,Win32,59.88023952,64988510fe500ee3533884a8,65d2b6c8f2eece985d8e374c,65d2b7cec67a654a5c71c239,0.5793,0.5796,1,14,176,138,1,sixfive,,,,,,,,,,,,,,,,,,,,,,,,,,,,,,,,,,,,,,,,,,,,,,,,,,,,,,,,,,,,,,,,,,,,,,,,,,,,,,,,,,,,,,,,,,,,,,,,,,,,,,,,,,,,,,,,,,,,,,,,,,,,,,,,,,,,,,,,,
,,64988510fe500ee3533884a8,2024-02-18_20h08.59.583,kallum_motion_pilot,2023.2.2,Win32,59.88023952,64988510fe500ee3533884a8,65d2b6c8f2eece985d8e374c,65d2b7cec67a654a5c71c239,0.5802,0.5806,1,15,177,97,1,fiveseven,,,,,,,,,,,,,,,,,,,,,,,,,,,,,,,,,,,,,,,,,,,,,,,,,,,,,,,,,,,,,,,,,,,,,,,,,,,,,,,,,,,,,,,,,,,,,,,,,,,,,,,,,,,,,,,,,,,,,,,,,,,,,,,,,,,,,,,,,
,,64988510fe500ee3533884a8,2024-02-18_20h08.59.583,kallum_motion_pilot,2023.2.2,Win32,59.88023952,64988510fe500ee3533884a8,65d2b6c8f2eece985d8e374c,65d2b7cec67a654a5c71c239,0.5812,0.5815,1,16,178,110,1,eightsix,,,,,,,,,,,,,,,,,,,,,,,,,,,,,,,,,,,,,,,,,,,,,,,,,,,,,,,,,,,,,,,,,,,,,,,,,,,,,,,,,,,,,,,,,,,,,,,,,,,,,,,,,,,,,,,,,,,,,,,,,,,,,,,,,,,,,,,,,
,,64988510fe500ee3533884a8,2024-02-18_20h08.59.583,kallum_motion_pilot,2023.2.2,Win32,59.88023952,64988510fe500ee3533884a8,65d2b6c8f2eece985d8e374c,65d2b7cec67a654a5c71c239,0.582,0.5826,1,17,179,21,1,threefour,,,,,,,,,,,,,,,,,,,,,,,,,,,,,,,,,,,,,,,,,,,,,,,,,,,,,,,,,,,,,,,,,,,,,,,,,,,,,,,,,,,,,,,,,,,,,,,,,,,,,,,,,,,,,,,,,,,,,,,,,,,,,,,,,,,,,,,,,
,,64988510fe500ee3533884a8,2024-02-18_20h08.59.583,kallum_motion_pilot,2023.2.2,Win32,59.88023952,64988510fe500ee3533884a8,65d2b6c8f2eece985d8e374c,65d2b7cec67a654a5c71c239,0.5831,0.5833,1,18,180,124,1,sevenfive,,,,,,,,,,,,,,,,,,,,,,,,,,,,,,,,,,,,,,,,,,,,,,,,,,,,,,,,,,,,,,,,,,,,,,,,,,,,,,,,,,,,,,,,,,,,,,,,,,,,,,,,,,,,,,,,,,,,,,,,,,,,,,,,,,,,,,,,,
,,64988510fe500ee3533884a8,2024-02-18_20h08.59.583,kallum_motion_pilot,2023.2.2,Win32,59.88023952,64988510fe500ee3533884a8,65d2b6c8f2eece985d8e374c,65d2b7cec67a654a5c71c239,0.5836,0.5839,1,19,181,139,1,sixeight,,,,,,,,,,,,,,,,,,,,,,,,,,,,,,,,,,,,,,,,,,,,,,,,,,,,,,,,,,,,,,,,,,,,,,,,,,,,,,,,,,,,,,,,,,,,,,,,,,,,,,,,,,,,,,,,,,,,,,,,,,,,,,,,,,,,,,,,,
,,64988510fe500ee3533884a8,2024-02-18_20h08.59.583,kallum_motion_pilot,2023.2.2,Win32,59.88023952,64988510fe500ee3533884a8,65d2b6c8f2eece985d8e374c,65d2b7cec67a654a5c71c239,0.5842,0.5844,1,20,182,61,1,threefour,,,,,,,,,,,,,,,,,,,,,,,,,,,,,,,,,,,,,,,,,,,,,,,,,,,,,,,,,,,,,,,,,,,,,,,,,,,,,,,,,,,,,,,,,,,,,,,,,,,,,,,,,,,,,,,,,,,,,,,,,,,,,,,,,,,,,,,,,
,,64988510fe500ee3533884a8,2024-02-18_20h08.59.583,kallum_motion_pilot,2023.2.2,Win32,59.88023952,64988510fe500ee3533884a8,65d2b6c8f2eece985d8e374c,65d2b7cec67a654a5c71c239,0.5847,0.5849,1,21,183,57,1,onethree,,,,,,,,,,,,,,,,,,,,,,,,,,,,,,,,,,,,,,,,,,,,,,,,,,,,,,,,,,,,,,,,,,,,,,,,,,,,,,,,,,,,,,,,,,,,,,,,,,,,,,,,,,,,,,,,,,,,,,,,,,,,,,,,,,,,,,,,,
,,64988510fe500ee3533884a8,2024-02-18_20h08.59.583,kallum_motion_pilot,2023.2.2,Win32,59.88023952,64988510fe500ee3533884a8,65d2b6c8f2eece985d8e374c,65d2b7cec67a654a5c71c239,0.5853,0.5855,1,22,184,2,1,twoone,,,,,,,,,,,,,,,,,,,,,,,,,,,,,,,,,,,,,,,,,,,,,,,,,,,,,,,,,,,,,,,,,,,,,,,,,,,,,,,,,,,,,,,,,,,,,,,,,,,,,,,,,,,,,,,,,,,,,,,,,,,,,,,,,,,,,,,,,
,,64988510fe500ee3533884a8,2024-02-18_20h08.59.583,kallum_motion_pilot,2023.2.2,Win32,59.88023952,64988510fe500ee3533884a8,65d2b6c8f2eece985d8e374c,65d2b7cec67a654a5c71c239,0.5858,0.586,1,23,185,98,1,sixfive,,,,,,,,,,,,,,,,,,,,,,,,,,,,,,,,,,,,,,,,,,,,,,,,,,,,,,,,,,,,,,,,,,,,,,,,,,,,,,,,,,,,,,,,,,,,,,,,,,,,,,,,,,,,,,,,,,,,,,,,,,,,,,,,,,,,,,,,,
,,64988510fe500ee3533884a8,2024-02-18_20h08.59.583,kallum_motion_pilot,2023.2.2,Win32,59.88023952,64988510fe500ee3533884a8,65d2b6c8f2eece985d8e374c,65d2b7cec67a654a5c71c239,0.5863,0.5865,1,24,186,157,1,seveneight,,,,,,,,,,,,,,,,,,,,,,,,,,,,,,,,,,,,,,,,,,,,,,,,,,,,,,,,,,,,,,,,,,,,,,,,,,,,,,,,,,,,,,,,,,,,,,,,,,,,,,,,,,,,,,,,,,,,,,,,,,,,,,,,,,,,,,,,,
,,64988510fe500ee3533884a8,2024-02-18_20h08.59.583,kallum_motion_pilot,2023.2.2,Win32,59.88023952,64988510fe500ee3533884a8,65d2b6c8f2eece985d8e374c,65d2b7cec67a654a5c71c239,0.5869,0.5871,1,25,187,49,1,onethree,,,,,,,,,,,,,,,,,,,,,,,,,,,,,,,,,,,,,,,,,,,,,,,,,,,,,,,,,,,,,,,,,,,,,,,,,,,,,,,,,,,,,,,,,,,,,,,,,,,,,,,,,,,,,,,,,,,,,,,,,,,,,,,,,,,,,,,,,
,,64988510fe500ee3533884a8,2024-02-18_20h08.59.583,kallum_motion_pilot,2023.2.2,Win32,59.88023952,64988510fe500ee3533884a8,65d2b6c8f2eece985d8e374c,65d2b7cec67a654a5c71c239,0.5874,0.5875,1,26,188,0,1,onetwo,,,,,,,,,,,,,,,,,,,,,,,,,,,,,,,,,,,,,,,,,,,,,,,,,,,,,,,,,,,,,,,,,,,,,,,,,,,,,,,,,,,,,,,,,,,,,,,,,,,,,,,,,,,,,,,,,,,,,,,,,,,,,,,,,,,,,,,,,
,,64988510fe500ee3533884a8,2024-02-18_20h08.59.583,kallum_motion_pilot,2023.2.2,Win32,59.88023952,64988510fe500ee3533884a8,65d2b6c8f2eece985d8e374c,65d2b7cec67a654a5c71c239,0.5879,0.5881,1,27,189,34,1,twoone,,,,,,,,,,,,,,,,,,,,,,,,,,,,,,,,,,,,,,,,,,,,,,,,,,,,,,,,,,,,,,,,,,,,,,,,,,,,,,,,,,,,,,,,,,,,,,,,,,,,,,,,,,,,,,,,,,,,,,,,,,,,,,,,,,,,,,,,,
,,64988510fe500ee3533884a8,2024-02-18_20h08.59.583,kallum_motion_pilot,2023.2.2,Win32,59.88023952,64988510fe500ee3533884a8,65d2b6c8f2eece985d8e374c,65d2b7cec67a654a5c71c239,0.5885,0.5886,1,28,190,15,1,fourthree,,,,,,,,,,,,,,,,,,,,,,,,,,,,,,,,,,,,,,,,,,,,,,,,,,,,,,,,,,,,,,,,,,,,,,,,,,,,,,,,,,,,,,,,,,,,,,,,,,,,,,,,,,,,,,,,,,,,,,,,,,,,,,,,,,,,,,,,,
,,64988510fe500ee3533884a8,2024-02-18_20h08.59.583,kallum_motion_pilot,2023.2.2,Win32,59.88023952,64988510fe500ee3533884a8,65d2b6c8f2eece985d8e374c,65d2b7cec67a654a5c71c239,0.5889,0.5892,1,29,191,159,1,eightseven,,,,,,,,,,,,,,,,,,,,,,,,,,,,,,,,,,,,,,,,,,,,,,,,,,,,,,,,,,,,,,,,,,,,,,,,,,,,,,,,,,,,,,,,,,,,,,,,,,,,,,,,,,,,,,,,,,,,,,,,,,,,,,,,,,,,,,,,,
,,64988510fe500ee3533884a8,2024-02-18_20h08.59.583,kallum_motion_pilot,2023.2.2,Win32,59.88023952,64988510fe500ee3533884a8,65d2b6c8f2eece985d8e374c,65d2b7cec67a654a5c71c239,0.5895,0.5897,1,30,192,129,1,fiveseven,,,,,,,,,,,,,,,,,,,,,,,,,,,,,,,,,,,,,,,,,,,,,,,,,,,,,,,,,,,,,,,,,,,,,,,,,,,,,,,,,,,,,,,,,,,,,,,,,,,,,,,,,,,,,,,,,,,,,,,,,,,,,,,,,,,,,,,,,
,,64988510fe500ee3533884a8,2024-02-18_20h08.59.583,kallum_motion_pilot,2023.2.2,Win32,59.88023952,64988510fe500ee3533884a8,65d2b6c8f2eece985d8e374c,65d2b7cec67a654a5c71c239,0.59,0.5902,1,31,193,12,1,threeone,,,,,,,,,,,,,,,,,,,,,,,,,,,,,,,,,,,,,,,,,,,,,,,,,,,,,,,,,,,,,,,,,,,,,,,,,,,,,,,,,,,,,,,,,,,,,,,,,,,,,,,,,,,,,,,,,,,,,,,,,,,,,,,,,,,,,,,,,
,,64988510fe500ee3533884a8,2024-02-18_20h08.59.583,kallum_motion_pilot,2023.2.2,Win32,59.88023952,64988510fe500ee3533884a8,65d2b6c8f2eece985d8e374c,65d2b7cec67a654a5c71c239,0.5905,0.5908,1,32,194,52,1,threeone,,,,,,,,,,,,,,,,,,,,,,,,,,,,,,,,,,,,,,,,,,,,,,,,,,,,,,,,,,,,,,,,,,,,,,,,,,,,,,,,,,,,,,,,,,,,,,,,,,,,,,,,,,,,,,,,,,,,,,,,,,,,,,,,,,,,,,,,,
,,64988510fe500ee3533884a8,2024-02-18_20h08.59.583,kallum_motion_pilot,2023.2.2,Win32,59.88023952,64988510fe500ee3533884a8,65d2b6c8f2eece985d8e374c,65d2b7cec67a654a5c71c239,0.591,0.5913,1,33,195,31,1,fourthree,,,,,,,,,,,,,,,,,,,,,,,,,,,,,,,,,,,,,,,,,,,,,,,,,,,,,,,,,,,,,,,,,,,,,,,,,,,,,,,,,,,,,,,,,,,,,,,,,,,,,,,,,,,,,,,,,,,,,,,,,,,,,,,,,,,,,,,,,
,,64988510fe500ee3533884a8,2024-02-18_20h08.59.583,kallum_motion_pilot,2023.2.2,Win32,59.88023952,64988510fe500ee3533884a8,65d2b6c8f2eece985d8e374c,65d2b7cec67a654a5c71c239,0.5916,0.592,1,34,196,35,1,twofour,,,,,,,,,,,,,,,,,,,,,,,,,,,,,,,,,,,,,,,,,,,,,,,,,,,,,,,,,,,,,,,,,,,,,,,,,,,,,,,,,,,,,,,,,,,,,,,,,,,,,,,,,,,,,,,,,,,,,,,,,,,,,,,,,,,,,,,,,
,,64988510fe500ee3533884a8,2024-02-18_20h08.59.583,kallum_motion_pilot,2023.2.2,Win32,59.88023952,64988510fe500ee3533884a8,65d2b6c8f2eece985d8e374c,65d2b7cec67a654a5c71c239,0.5924,0.5926,1,35,197,22,1,fourtwo,,,,,,,,,,,,,,,,,,,,,,,,,,,,,,,,,,,,,,,,,,,,,,,,,,,,,,,,,,,,,,,,,,,,,,,,,,,,,,,,,,,,,,,,,,,,,,,,,,,,,,,,,,,,,,,,,,,,,,,,,,,,,,,,,,,,,,,,,
,,64988510fe500ee3533884a8,2024-02-18_20h08.59.583,kallum_motion_pilot,2023.2.2,Win32,59.88023952,64988510fe500ee3533884a8,65d2b6c8f2eece985d8e374c,65d2b7cec67a654a5c71c239,0.593,0.5932,1,36,198,9,1,onethree,,,,,,,,,,,,,,,,,,,,,,,,,,,,,,,,,,,,,,,,,,,,,,,,,,,,,,,,,,,,,,,,,,,,,,,,,,,,,,,,,,,,,,,,,,,,,,,,,,,,,,,,,,,,,,,,,,,,,,,,,,,,,,,,,,,,,,,,,
,,64988510fe500ee3533884a8,2024-02-18_20h08.59.583,kallum_motion_pilot,2023.2.2,Win32,59.88023952,64988510fe500ee3533884a8,65d2b6c8f2eece985d8e374c,65d2b7cec67a654a5c71c239,0.5934,0.5937,1,37,199,46,1,fourtwo,,,,,,,,,,,,,,,,,,,,,,,,,,,,,,,,,,,,,,,,,,,,,,,,,,,,,,,,,,,,,,,,,,,,,,,,,,,,,,,,,,,,,,,,,,,,,,,,,,,,,,,,,,,,,,,,,,,,,,,,,,,,,,,,,,,,,,,,,
,,64988510fe500ee3533884a8,2024-02-18_20h08.59.583,kallum_motion_pilot,2023.2.2,Win32,59.88023952,64988510fe500ee3533884a8,65d2b6c8f2eece985d8e374c,65d2b7cec67a654a5c71c239,0.5942,0.5946,1,38,200,63,1,fourthree,,,,,,,,,,,,,,,,,,,,,,,,,,,,,,,,,,,,,,,,,,,,,,,,,,,,,,,,,,,,,,,,,,,,,,,,,,,,,,,,,,,,,,,,,,,,,,,,,,,,,,,,,,,,,,,,,,,,,,,,,,,,,,,,,,,,,,,,,
,,64988510fe500ee3533884a8,2024-02-18_20h08.59.583,kallum_motion_pilot,2023.2.2,Win32,59.88023952,64988510fe500ee3533884a8,65d2b6c8f2eece985d8e374c,65d2b7cec67a654a5c71c239,0.595,0.5954,1,39,201,41,1,onethree,,,,,,,,,,,,,,,,,,,,,,,,,,,,,,,,,,,,,,,,,,,,,,,,,,,,,,,,,,,,,,,,,,,,,,,,,,,,,,,,,,,,,,,,,,,,,,,,,,,,,,,,,,,,,,,,,,,,,,,,,,,,,,,,,,,,,,,,,
,,64988510fe500ee3533884a8,2024-02-18_20h08.59.583,kallum_motion_pilot,2023.2.2,Win32,59.88023952,64988510fe500ee3533884a8,65d2b6c8f2eece985d8e374c,65d2b7cec67a654a5c71c239,0.5959,0.5961,1,40,202,56,1,onetwo,,,,,,,,,,,,,,,,,,,,,,,,,,,,,,,,,,,,,,,,,,,,,,,,,,,,,,,,,,,,,,,,,,,,,,,,,,,,,,,,,,,,,,,,,,,,,,,,,,,,,,,,,,,,,,,,,,,,,,,,,,,,,,,,,,,,,,,,,
,,64988510fe500ee3533884a8,2024-02-18_20h08.59.583,kallum_motion_pilot,2023.2.2,Win32,59.88023952,64988510fe500ee3533884a8,65d2b6c8f2eece985d8e374c,65d2b7cec67a654a5c71c239,0.5964,0.5967,1,41,203,88,1,fivesix,,,,,,,,,,,,,,,,,,,,,,,,,,,,,,,,,,,,,,,,,,,,,,,,,,,,,,,,,,,,,,,,,,,,,,,,,,,,,,,,,,,,,,,,,,,,,,,,,,,,,,,,,,,,,,,,,,,,,,,,,,,,,,,,,,,,,,,,,
,,64988510fe500ee3533884a8,2024-02-18_20h08.59.583,kallum_motion_pilot,2023.2.2,Win32,59.88023952,64988510fe500ee3533884a8,65d2b6c8f2eece985d8e374c,65d2b7cec67a654a5c71c239,0.597,0.5972,1,42,204,104,1,fivesix,,,,,,,,,,,,,,,,,,,,,,,,,,,,,,,,,,,,,,,,,,,,,,,,,,,,,,,,,,,,,,,,,,,,,,,,,,,,,,,,,,,,,,,,,,,,,,,,,,,,,,,,,,,,,,,,,,,,,,,,,,,,,,,,,,,,,,,,,
,,64988510fe500ee3533884a8,2024-02-18_20h08.59.583,kallum_motion_pilot,2023.2.2,Win32,59.88023952,64988510fe500ee3533884a8,65d2b6c8f2eece985d8e374c,65d2b7cec67a654a5c71c239,0.5975,0.5977,1,43,205,44,1,threeone,,,,,,,,,,,,,,,,,,,,,,,,,,,,,,,,,,,,,,,,,,,,,,,,,,,,,,,,,,,,,,,,,,,,,,,,,,,,,,,,,,,,,,,,,,,,,,,,,,,,,,,,,,,,,,,,,,,,,,,,,,,,,,,,,,,,,,,,,
,,64988510fe500ee3533884a8,2024-02-18_20h08.59.583,kallum_motion_pilot,2023.2.2,Win32,59.88023952,64988510fe500ee3533884a8,65d2b6c8f2eece985d8e374c,65d2b7cec67a654a5c71c239,0.5981,0.5983,1,44,206,67,1,twofour,,,,,,,,,,,,,,,,,,,,,,,,,,,,,,,,,,,,,,,,,,,,,,,,,,,,,,,,,,,,,,,,,,,,,,,,,,,,,,,,,,,,,,,,,,,,,,,,,,,,,,,,,,,,,,,,,,,,,,,,,,,,,,,,,,,,,,,,,
,,64988510fe500ee3533884a8,2024-02-18_20h08.59.583,kallum_motion_pilot,2023.2.2,Win32,59.88023952,64988510fe500ee3533884a8,65d2b6c8f2eece985d8e374c,65d2b7cec67a654a5c71c239,0.5986,0.5988,1,45,207,3,1,twofour,,,,,,,,,,,,,,,,,,,,,,,,,,,,,,,,,,,,,,,,,,,,,,,,,,,,,,,,,,,,,,,,,,,,,,,,,,,,,,,,,,,,,,,,,,,,,,,,,,,,,,,,,,,,,,,,,,,,,,,,,,,,,,,,,,,,,,,,,
,,64988510fe500ee3533884a8,2024-02-18_20h08.59.583,kallum_motion_pilot,2023.2.2,Win32,59.88023952,64988510fe500ee3533884a8,65d2b6c8f2eece985d8e374c,65d2b7cec67a654a5c71c239,0.5991,0.5994,1,46,208,143,1,eightseven,,,,,,,,,,,,,,,,,,,,,,,,,,,,,,,,,,,,,,,,,,,,,,,,,,,,,,,,,,,,,,,,,,,,,,,,,,,,,,,,,,,,,,,,,,,,,,,,,,,,,,,,,,,,,,,,,,,,,,,,,,,,,,,,,,,,,,,,,
,,64988510fe500ee3533884a8,2024-02-18_20h08.59.583,kallum_motion_pilot,2023.2.2,Win32,59.88023952,64988510fe500ee3533884a8,65d2b6c8f2eece985d8e374c,65d2b7cec67a654a5c71c239,0.5996,0.5999,1,47,209,142,1,eightsix,,,,,,,,,,,,,,,,,,,,,,,,,,,,,,,,,,,,,,,,,,,,,,,,,,,,,,,,,,,,,,,,,,,,,,,,,,,,,,,,,,,,,,,,,,,,,,,,,,,,,,,,,,,,,,,,,,,,,,,,,,,,,,,,,,,,,,,,,
,,64988510fe500ee3533884a8,2024-02-18_20h08.59.583,kallum_motion_pilot,2023.2.2,Win32,59.88023952,64988510fe500ee3533884a8,65d2b6c8f2eece985d8e374c,65d2b7cec67a654a5c71c239,0.6002,0.6004,1,48,210,73,1,onethree,,,,,,,,,,,,,,,,,,,,,,,,,,,,,,,,,,,,,,,,,,,,,,,,,,,,,,,,,,,,,,,,,,,,,,,,,,,,,,,,,,,,,,,,,,,,,,,,,,,,,,,,,,,,,,,,,,,,,,,,,,,,,,,,,,,,,,,,,
,,64988510fe500ee3533884a8,2024-02-18_20h08.59.583,kallum_motion_pilot,2023.2.2,Win32,59.88023952,64988510fe500ee3533884a8,65d2b6c8f2eece985d8e374c,65d2b7cec67a654a5c71c239,0.6007,0.6009,1,49,211,6,1,fourtwo,,,,,,,,,,,,,,,,,,,,,,,,,,,,,,,,,,,,,,,,,,,,,,,,,,,,,,,,,,,,,,,,,,,,,,,,,,,,,,,,,,,,,,,,,,,,,,,,,,,,,,,,,,,,,,,,,,,,,,,,,,,,,,,,,,,,,,,,,
,,64988510fe500ee3533884a8,2024-02-18_20h08.59.583,kallum_motion_pilot,2023.2.2,Win32,59.88023952,64988510fe500ee3533884a8,65d2b6c8f2eece985d8e374c,65d2b7cec67a654a5c71c239,0.6012,0.6014,1,50,212,128,1,fivesix,,,,,,,,,,,,,,,,,,,,,,,,,,,,,,,,,,,,,,,,,,,,,,,,,,,,,,,,,,,,,,,,,,,,,,,,,,,,,,,,,,,,,,,,,,,,,,,,,,,,,,,,,,,,,,,,,,,,,,,,,,,,,,,,,,,,,,,,,
,,64988510fe500ee3533884a8,2024-02-18_20h08.59.583,kallum_motion_pilot,2023.2.2,Win32,59.88023952,64988510fe500ee3533884a8,65d2b6c8f2eece985d8e374c,65d2b7cec67a654a5c71c239,0.6024,0.6025,1,51,213,42,1,twoone,,,,,,,,,,,,,,,,,,,,,,,,,,,,,,,,,,,,,,,,,,,,,,,,,,,,,,,,,,,,,,,,,,,,,,,,,,,,,,,,,,,,,,,,,,,,,,,,,,,,,,,,,,,,,,,,,,,,,,,,,,,,,,,,,,,,,,,,,
,,64988510fe500ee3533884a8,2024-02-18_20h08.59.583,kallum_motion_pilot,2023.2.2,Win32,59.88023952,64988510fe500ee3533884a8,65d2b6c8f2eece985d8e374c,65d2b7cec67a654a5c71c239,0.603,0.6031,1,52,214,45,1,threefour,,,,,,,,,,,,,,,,,,,,,,,,,,,,,,,,,,,,,,,,,,,,,,,,,,,,,,,,,,,,,,,,,,,,,,,,,,,,,,,,,,,,,,,,,,,,,,,,,,,,,,,,,,,,,,,,,,,,,,,,,,,,,,,,,,,,,,,,,
,,64988510fe500ee3533884a8,2024-02-18_20h08.59.583,kallum_motion_pilot,2023.2.2,Win32,59.88023952,64988510fe500ee3533884a8,65d2b6c8f2eece985d8e374c,65d2b7cec67a654a5c71c239,0.6035,0.6036,1,53,215,130,1,sixfive,,,,,,,,,,,,,,,,,,,,,,,,,,,,,,,,,,,,,,,,,,,,,,,,,,,,,,,,,,,,,,,,,,,,,,,,,,,,,,,,,,,,,,,,,,,,,,,,,,,,,,,,,,,,,,,,,,,,,,,,,,,,,,,,,,,,,,,,,
,,64988510fe500ee3533884a8,2024-02-18_20h08.59.583,kallum_motion_pilot,2023.2.2,Win32,59.88023952,64988510fe500ee3533884a8,65d2b6c8f2eece985d8e374c,65d2b7cec67a654a5c71c239,0.604,0.6042,1,54,216,29,1,threefour,,,,,,,,,,,,,,,,,,,,,,,,,,,,,,,,,,,,,,,,,,,,,,,,,,,,,,,,,,,,,,,,,,,,,,,,,,,,,,,,,,,,,,,,,,,,,,,,,,,,,,,,,,,,,,,,,,,,,,,,,,,,,,,,,,,,,,,,,
,,64988510fe500ee3533884a8,2024-02-18_20h08.59.583,kallum_motion_pilot,2023.2.2,Win32,59.88023952,64988510fe500ee3533884a8,65d2b6c8f2eece985d8e374c,65d2b7cec67a654a5c71c239,0.6045,0.6047,1,55,217,40,1,onetwo,,,,,,,,,,,,,,,,,,,,,,,,,,,,,,,,,,,,,,,,,,,,,,,,,,,,,,,,,,,,,,,,,,,,,,,,,,,,,,,,,,,,,,,,,,,,,,,,,,,,,,,,,,,,,,,,,,,,,,,,,,,,,,,,,,,,,,,,,
,,64988510fe500ee3533884a8,2024-02-18_20h08.59.583,kallum_motion_pilot,2023.2.2,Win32,59.88023952,64988510fe500ee3533884a8,65d2b6c8f2eece985d8e374c,65d2b7cec67a654a5c71c239,0.605,0.6052,1,56,218,118,1,eightsix,,,,,,,,,,,,,,,,,,,,,,,,,,,,,,,,,,,,,,,,,,,,,,,,,,,,,,,,,,,,,,,,,,,,,,,,,,,,,,,,,,,,,,,,,,,,,,,,,,,,,,,,,,,,,,,,,,,,,,,,,,,,,,,,,,,,,,,,,
,,64988510fe500ee3533884a8,2024-02-18_20h08.59.583,kallum_motion_pilot,2023.2.2,Win32,59.88023952,64988510fe500ee3533884a8,65d2b6c8f2eece985d8e374c,65d2b7cec67a654a5c71c239,0.6056,0.6058,1,57,219,5,1,threefour,,,,,,,,,,,,,,,,,,,,,,,,,,,,,,,,,,,,,,,,,,,,,,,,,,,,,,,,,,,,,,,,,,,,,,,,,,,,,,,,,,,,,,,,,,,,,,,,,,,,,,,,,,,,,,,,,,,,,,,,,,,,,,,,,,,,,,,,,
,,64988510fe500ee3533884a8,2024-02-18_20h08.59.583,kallum_motion_pilot,2023.2.2,Win32,59.88023952,64988510fe500ee3533884a8,65d2b6c8f2eece985d8e374c,65d2b7cec67a654a5c71c239,0.6061,0.6063,1,58,220,119,1,eightseven,,,,,,,,,,,,,,,,,,,,,,,,,,,,,,,,,,,,,,,,,,,,,,,,,,,,,,,,,,,,,,,,,,,,,,,,,,,,,,,,,,,,,,,,,,,,,,,,,,,,,,,,,,,,,,,,,,,,,,,,,,,,,,,,,,,,,,,,,
,,64988510fe500ee3533884a8,2024-02-18_20h08.59.583,kallum_motion_pilot,2023.2.2,Win32,59.88023952,64988510fe500ee3533884a8,65d2b6c8f2eece985d8e374c,65d2b7cec67a654a5c71c239,0.6065,0.6069,1,59,221,7,1,fourthree,,,,,,,,,,,,,,,,,,,,,,,,,,,,,,,,,,,,,,,,,,,,,,,,,,,,,,,,,,,,,,,,,,,,,,,,,,,,,,,,,,,,,,,,,,,,,,,,,,,,,,,,,,,,,,,,,,,,,,,,,,,,,,,,,,,,,,,,,
,,64988510fe500ee3533884a8,2024-02-18_20h08.59.583,kallum_motion_pilot,2023.2.2,Win32,59.88023952,64988510fe500ee3533884a8,65d2b6c8f2eece985d8e374c,65d2b7cec67a654a5c71c239,0.6071,0.6074,1,60,222,105,1,fiveseven,,,,,,,,,,,,,,,,,,,,,,,,,,,,,,,,,,,,,,,,,,,,,,,,,,,,,,,,,,,,,,,,,,,,,,,,,,,,,,,,,,,,,,,,,,,,,,,,,,,,,,,,,,,,,,,,,,,,,,,,,,,,,,,,,,,,,,,,,
,,64988510fe500ee3533884a8,2024-02-18_20h08.59.583,kallum_motion_pilot,2023.2.2,Win32,59.88023952,64988510fe500ee3533884a8,65d2b6c8f2eece985d8e374c,65d2b7cec67a654a5c71c239,0.6076,0.6078,1,61,223,84,1,sevenfive,,,,,,,,,,,,,,,,,,,,,,,,,,,,,,,,,,,,,,,,,,,,,,,,,,,,,,,,,,,,,,,,,,,,,,,,,,,,,,,,,,,,,,,,,,,,,,,,,,,,,,,,,,,,,,,,,,,,,,,,,,,,,,,,,,,,,,,,,
,,64988510fe500ee3533884a8,2024-02-18_20h08.59.583,kallum_motion_pilot,2023.2.2,Win32,59.88023952,64988510fe500ee3533884a8,65d2b6c8f2eece985d8e374c,65d2b7cec67a654a5c71c239,0.6081,0.6083,1,62,224,72,1,onetwo,,,,,,,,,,,,,,,,,,,,,,,,,,,,,,,,,,,,,,,,,,,,,,,,,,,,,,,,,,,,,,,,,,,,,,,,,,,,,,,,,,,,,,,,,,,,,,,,,,,,,,,,,,,,,,,,,,,,,,,,,,,,,,,,,,,,,,,,,
,,64988510fe500ee3533884a8,2024-02-18_20h08.59.583,kallum_motion_pilot,2023.2.2,Win32,59.88023952,64988510fe500ee3533884a8,65d2b6c8f2eece985d8e374c,65d2b7cec67a654a5c71c239,0.6086,0.6093,1,63,225,78,1,fourtwo,,,,,,,,,,,,,,,,,,,,,,,,,,,,,,,,,,,,,,,,,,,,,,,,,,,,,,,,,,,,,,,,,,,,,,,,,,,,,,,,,,,,,,,,,,,,,,,,,,,,,,,,,,,,,,,,,,,,,,,,,,,,,,,,,,,,,,,,,
,,64988510fe500ee3533884a8,2024-02-18_20h08.59.583,kallum_motion_pilot,2023.2.2,Win32,59.88023952,64988510fe500ee3533884a8,65d2b6c8f2eece985d8e374c,65d2b7cec67a654a5c71c239,0.6098,0.6102,1,64,226,58,1,twoone,,,,,,,,,,,,,,,,,,,,,,,,,,,,,,,,,,,,,,,,,,,,,,,,,,,,,,,,,,,,,,,,,,,,,,,,,,,,,,,,,,,,,,,,,,,,,,,,,,,,,,,,,,,,,,,,,,,,,,,,,,,,,,,,,,,,,,,,,
,,64988510fe500ee3533884a8,2024-02-18_20h08.59.583,kallum_motion_pilot,2023.2.2,Win32,59.88023952,64988510fe500ee3533884a8,65d2b6c8f2eece985d8e374c,65d2b7cec67a654a5c71c239,0.6105,0.6107,1,65,227,8,1,onetwo,,,,,,,,,,,,,,,,,,,,,,,,,,,,,,,,,,,,,,,,,,,,,,,,,,,,,,,,,,,,,,,,,,,,,,,,,,,,,,,,,,,,,,,,,,,,,,,,,,,,,,,,,,,,,,,,,,,,,,,,,,,,,,,,,,,,,,,,,
,,64988510fe500ee3533884a8,2024-02-18_20h08.59.583,kallum_motion_pilot,2023.2.2,Win32,59.88023952,64988510fe500ee3533884a8,65d2b6c8f2eece985d8e374c,65d2b7cec67a654a5c71c239,0.6111,0.6113,1,66,228,131,1,sixeight,,,,,,,,,,,,,,,,,,,,,,,,,,,,,,,,,,,,,,,,,,,,,,,,,,,,,,,,,,,,,,,,,,,,,,,,,,,,,,,,,,,,,,,,,,,,,,,,,,,,,,,,,,,,,,,,,,,,,,,,,,,,,,,,,,,,,,,,,
,,64988510fe500ee3533884a8,2024-02-18_20h08.59.583,kallum_motion_pilot,2023.2.2,Win32,59.88023952,64988510fe500ee3533884a8,65d2b6c8f2eece985d8e374c,65d2b7cec67a654a5c71c239,0.6116,0.6119,1,67,229,54,1,fourtwo,,,,,,,,,,,,,,,,,,,,,,,,,,,,,,,,,,,,,,,,,,,,,,,,,,,,,,,,,,,,,,,,,,,,,,,,,,,,,,,,,,,,,,,,,,,,,,,,,,,,,,,,,,,,,,,,,,,,,,,,,,,,,,,,,,,,,,,,,
,,64988510fe500ee3533884a8,2024-02-18_20h08.59.583,kallum_motion_pilot,2023.2.2,Win32,59.88023952,64988510fe500ee3533884a8,65d2b6c8f2eece985d8e374c,65d2b7cec67a654a5c71c239,0.6123,0.6126,1,68,230,62,1,fourtwo,,,,,,,,,,,,,,,,,,,,,,,,,,,,,,,,,,,,,,,,,,,,,,,,,,,,,,,,,,,,,,,,,,,,,,,,,,,,,,,,,,,,,,,,,,,,,,,,,,,,,,,,,,,,,,,,,,,,,,,,,,,,,,,,,,,,,,,,,
,,64988510fe500ee3533884a8,2024-02-18_20h08.59.583,kallum_motion_pilot,2023.2.2,Win32,59.88023952,64988510fe500ee3533884a8,65d2b6c8f2eece985d8e374c,65d2b7cec67a654a5c71c239,0.6129,0.6131,1,69,231,117,1,seveneight,,,,,,,,,,,,,,,,,,,,,,,,,,,,,,,,,,,,,,,,,,,,,,,,,,,,,,,,,,,,,,,,,,,,,,,,,,,,,,,,,,,,,,,,,,,,,,,,,,,,,,,,,,,,,,,,,,,,,,,,,,,,,,,,,,,,,,,,,
,,64988510fe500ee3533884a8,2024-02-18_20h08.59.583,kallum_motion_pilot,2023.2.2,Win32,59.88023952,64988510fe500ee3533884a8,65d2b6c8f2eece985d8e374c,65d2b7cec67a654a5c71c239,0.6135,0.6137,1,70,232,115,1,sixeight,,,,,,,,,,,,,,,,,,,,,,,,,,,,,,,,,,,,,,,,,,,,,,,,,,,,,,,,,,,,,,,,,,,,,,,,,,,,,,,,,,,,,,,,,,,,,,,,,,,,,,,,,,,,,,,,,,,,,,,,,,,,,,,,,,,,,,,,,
,,64988510fe500ee3533884a8,2024-02-18_20h08.59.583,kallum_motion_pilot,2023.2.2,Win32,59.88023952,64988510fe500ee3533884a8,65d2b6c8f2eece985d8e374c,65d2b7cec67a654a5c71c239,0.614,0.6142,1,71,233,102,1,eightsix,,,,,,,,,,,,,,,,,,,,,,,,,,,,,,,,,,,,,,,,,,,,,,,,,,,,,,,,,,,,,,,,,,,,,,,,,,,,,,,,,,,,,,,,,,,,,,,,,,,,,,,,,,,,,,,,,,,,,,,,,,,,,,,,,,,,,,,,,
,,64988510fe500ee3533884a8,2024-02-18_20h08.59.583,kallum_motion_pilot,2023.2.2,Win32,59.88023952,64988510fe500ee3533884a8,65d2b6c8f2eece985d8e374c,65d2b7cec67a654a5c71c239,0.6146,0.6148,1,72,234,80,1,fivesix,,,,,,,,,,,,,,,,,,,,,,,,,,,,,,,,,,,,,,,,,,,,,,,,,,,,,,,,,,,,,,,,,,,,,,,,,,,,,,,,,,,,,,,,,,,,,,,,,,,,,,,,,,,,,,,,,,,,,,,,,,,,,,,,,,,,,,,,,
,,64988510fe500ee3533884a8,2024-02-18_20h08.59.583,kallum_motion_pilot,2023.2.2,Win32,59.88023952,64988510fe500ee3533884a8,65d2b6c8f2eece985d8e374c,65d2b7cec67a654a5c71c239,0.6151,0.6153,1,73,235,1,1,onethree,,,,,,,,,,,,,,,,,,,,,,,,,,,,,,,,,,,,,,,,,,,,,,,,,,,,,,,,,,,,,,,,,,,,,,,,,,,,,,,,,,,,,,,,,,,,,,,,,,,,,,,,,,,,,,,,,,,,,,,,,,,,,,,,,,,,,,,,,
,,64988510fe500ee3533884a8,2024-02-18_20h08.59.583,kallum_motion_pilot,2023.2.2,Win32,59.88023952,64988510fe500ee3533884a8,65d2b6c8f2eece985d8e374c,65d2b7cec67a654a5c71c239,0.6156,0.6158,1,74,236,77,1,threefour,,,,,,,,,,,,,,,,,,,,,,,,,,,,,,,,,,,,,,,,,,,,,,,,,,,,,,,,,,,,,,,,,,,,,,,,,,,,,,,,,,,,,,,,,,,,,,,,,,,,,,,,,,,,,,,,,,,,,,,,,,,,,,,,,,,,,,,,,
,,64988510fe500ee3533884a8,2024-02-18_20h08.59.583,kallum_motion_pilot,2023.2.2,Win32,59.88023952,64988510fe500ee3533884a8,65d2b6c8f2eece985d8e374c,65d2b7cec67a654a5c71c239,0.6161,0.6163,1,75,237,113,1,fiveseven,,,,,,,,,,,,,,,,,,,,,,,,,,,,,,,,,,,,,,,,,,,,,,,,,,,,,,,,,,,,,,,,,,,,,,,,,,,,,,,,,,,,,,,,,,,,,,,,,,,,,,,,,,,,,,,,,,,,,,,,,,,,,,,,,,,,,,,,,
,,64988510fe500ee3533884a8,2024-02-18_20h08.59.583,kallum_motion_pilot,2023.2.2,Win32,59.88023952,64988510fe500ee3533884a8,65d2b6c8f2eece985d8e374c,65d2b7cec67a654a5c71c239,0.6167,0.6169,1,76,238,14,1,fourtwo,,,,,,,,,,,,,,,,,,,,,,,,,,,,,,,,,,,,,,,,,,,,,,,,,,,,,,,,,,,,,,,,,,,,,,,,,,,,,,,,,,,,,,,,,,,,,,,,,,,,,,,,,,,,,,,,,,,,,,,,,,,,,,,,,,,,,,,,,
,,64988510fe500ee3533884a8,2024-02-18_20h08.59.583,kallum_motion_pilot,2023.2.2,Win32,59.88023952,64988510fe500ee3533884a8,65d2b6c8f2eece985d8e374c,65d2b7cec67a654a5c71c239,0.6172,0.6173,1,77,239,59,1,twofour,,,,,,,,,,,,,,,,,,,,,,,,,,,,,,,,,,,,,,,,,,,,,,,,,,,,,,,,,,,,,,,,,,,,,,,,,,,,,,,,,,,,,,,,,,,,,,,,,,,,,,,,,,,,,,,,,,,,,,,,,,,,,,,,,,,,,,,,,
,,64988510fe500ee3533884a8,2024-02-18_20h08.59.583,kallum_motion_pilot,2023.2.2,Win32,59.88023952,64988510fe500ee3533884a8,65d2b6c8f2eece985d8e374c,65d2b7cec67a654a5c71c239,0.6176,0.6178,1,78,240,95,1,eightseven,,,,,,,,,,,,,,,,,,,,,,,,,,,,,,,,,,,,,,,,,,,,,,,,,,,,,,,,,,,,,,,,,,,,,,,,,,,,,,,,,,,,,,,,,,,,,,,,,,,,,,,,,,,,,,,,,,,,,,,,,,,,,,,,,,,,,,,,,
,,64988510fe500ee3533884a8,2024-02-18_20h08.59.583,kallum_motion_pilot,2023.2.2,Win32,59.88023952,64988510fe500ee3533884a8,65d2b6c8f2eece985d8e374c,65d2b7cec67a654a5c71c239,0.6182,0.6184,1,79,241,99,1,sixeight,,,,,,,,,,,,,,,,,,,,,,,,,,,,,,,,,,,,,,,,,,,,,,,,,,,,,,,,,,,,,,,,,,,,,,,,,,,,,,,,,,,,,,,,,,,,,,,,,,,,,,,,,,,,,,,,,,,,,,,,,,,,,,,,,,,,,,,,,
,,64988510fe500ee3533884a8,2024-02-18_20h08.59.583,kallum_motion_pilot,2023.2.2,Win32,59.88023952,64988510fe500ee3533884a8,65d2b6c8f2eece985d8e374c,65d2b7cec67a654a5c71c239,0.6186,0.6189,1,80,242,103,1,eightseven,,,,,,,,,,,,,,,,,,,,,,,,,,,,,,,,,,,,,,,,,,,,,,,,,,,,,,,,,,,,,,,,,,,,,,,,,,,,,,,,,,,,,,,,,,,,,,,,,,,,,,,,,,,,,,,,,,,,,,,,,,,,,,,,,,,,,,,,,
,,64988510fe500ee3533884a8,2024-02-18_20h08.59.583,kallum_motion_pilot,2023.2.2,Win32,59.88023952,64988510fe500ee3533884a8,65d2b6c8f2eece985d8e374c,65d2b7cec67a654a5c71c239,0.6193,0.6195,1,81,243,135,1,eightseven,,,,,,,,,,,,,,,,,,,,,,,,,,,,,,,,,,,,,,,,,,,,,,,,,,,,,,,,,,,,,,,,,,,,,,,,,,,,,,,,,,,,,,,,,,,,,,,,,,,,,,,,,,,,,,,,,,,,,,,,,,,,,,,,,,,,,,,,,
,,64988510fe500ee3533884a8,2024-02-18_20h08.59.583,kallum_motion_pilot,2023.2.2,Win32,59.88023952,64988510fe500ee3533884a8,65d2b6c8f2eece985d8e374c,65d2b7cec67a654a5c71c239,0.6197,0.62,1,82,244,158,1,eightsix,,,,,,,,,,,,,,,,,,,,,,,,,,,,,,,,,,,,,,,,,,,,,,,,,,,,,,,,,,,,,,,,,,,,,,,,,,,,,,,,,,,,,,,,,,,,,,,,,,,,,,,,,,,,,,,,,,,,,,,,,,,,,,,,,,,,,,,,,
,,64988510fe500ee3533884a8,2024-02-18_20h08.59.583,kallum_motion_pilot,2023.2.2,Win32,59.88023952,64988510fe500ee3533884a8,65d2b6c8f2eece985d8e374c,65d2b7cec67a654a5c71c239,0.6202,0.6205,1,83,245,149,1,seveneight,,,,,,,,,,,,,,,,,,,,,,,,,,,,,,,,,,,,,,,,,,,,,,,,,,,,,,,,,,,,,,,,,,,,,,,,,,,,,,,,,,,,,,,,,,,,,,,,,,,,,,,,,,,,,,,,,,,,,,,,,,,,,,,,,,,,,,,,,
,,64988510fe500ee3533884a8,2024-02-18_20h08.59.583,kallum_motion_pilot,2023.2.2,Win32,59.88023952,64988510fe500ee3533884a8,65d2b6c8f2eece985d8e374c,65d2b7cec67a654a5c71c239,0.6208,0.621,1,84,246,53,1,threefour,,,,,,,,,,,,,,,,,,,,,,,,,,,,,,,,,,,,,,,,,,,,,,,,,,,,,,,,,,,,,,,,,,,,,,,,,,,,,,,,,,,,,,,,,,,,,,,,,,,,,,,,,,,,,,,,,,,,,,,,,,,,,,,,,,,,,,,,,
,,64988510fe500ee3533884a8,2024-02-18_20h08.59.583,kallum_motion_pilot,2023.2.2,Win32,59.88023952,64988510fe500ee3533884a8,65d2b6c8f2eece985d8e374c,65d2b7cec67a654a5c71c239,0.6213,0.6215,1,85,247,93,1,seveneight,,,,,,,,,,,,,,,,,,,,,,,,,,,,,,,,,,,,,,,,,,,,,,,,,,,,,,,,,,,,,,,,,,,,,,,,,,,,,,,,,,,,,,,,,,,,,,,,,,,,,,,,,,,,,,,,,,,,,,,,,,,,,,,,,,,,,,,,,
,,64988510fe500ee3533884a8,2024-02-18_20h08.59.583,kallum_motion_pilot,2023.2.2,Win32,59.88023952,64988510fe500ee3533884a8,65d2b6c8f2eece985d8e374c,65d2b7cec67a654a5c71c239,0.6219,0.622,1,86,248,140,1,sevenfive,,,,,,,,,,,,,,,,,,,,,,,,,,,,,,,,,,,,,,,,,,,,,,,,,,,,,,,,,,,,,,,,,,,,,,,,,,,,,,,,,,,,,,,,,,,,,,,,,,,,,,,,,,,,,,,,,,,,,,,,,,,,,,,,,,,,,,,,,
,,64988510fe500ee3533884a8,2024-02-18_20h08.59.583,kallum_motion_pilot,2023.2.2,Win32,59.88023952,64988510fe500ee3533884a8,65d2b6c8f2eece985d8e374c,65d2b7cec67a654a5c71c239,0.6226,0.6228,1,87,249,144,1,fivesix,,,,,,,,,,,,,,,,,,,,,,,,,,,,,,,,,,,,,,,,,,,,,,,,,,,,,,,,,,,,,,,,,,,,,,,,,,,,,,,,,,,,,,,,,,,,,,,,,,,,,,,,,,,,,,,,,,,,,,,,,,,,,,,,,,,,,,,,,
,,64988510fe500ee3533884a8,2024-02-18_20h08.59.583,kallum_motion_pilot,2023.2.2,Win32,59.88023952,64988510fe500ee3533884a8,65d2b6c8f2eece985d8e374c,65d2b7cec67a654a5c71c239,0.6231,0.6233,1,88,250,92,1,sevenfive,,,,,,,,,,,,,,,,,,,,,,,,,,,,,,,,,,,,,,,,,,,,,,,,,,,,,,,,,,,,,,,,,,,,,,,,,,,,,,,,,,,,,,,,,,,,,,,,,,,,,,,,,,,,,,,,,,,,,,,,,,,,,,,,,,,,,,,,,
,,64988510fe500ee3533884a8,2024-02-18_20h08.59.583,kallum_motion_pilot,2023.2.2,Win32,59.88023952,64988510fe500ee3533884a8,65d2b6c8f2eece985d8e374c,65d2b7cec67a654a5c71c239,0.6236,0.6238,1,89,251,47,1,fourthree,,,,,,,,,,,,,,,,,,,,,,,,,,,,,,,,,,,,,,,,,,,,,,,,,,,,,,,,,,,,,,,,,,,,,,,,,,,,,,,,,,,,,,,,,,,,,,,,,,,,,,,,,,,,,,,,,,,,,,,,,,,,,,,,,,,,,,,,,
,,64988510fe500ee3533884a8,2024-02-18_20h08.59.583,kallum_motion_pilot,2023.2.2,Win32,59.88023952,64988510fe500ee3533884a8,65d2b6c8f2eece985d8e374c,65d2b7cec67a654a5c71c239,0.6241,0.6243,1,90,252,19,1,twofour,,,,,,,,,,,,,,,,,,,,,,,,,,,,,,,,,,,,,,,,,,,,,,,,,,,,,,,,,,,,,,,,,,,,,,,,,,,,,,,,,,,,,,,,,,,,,,,,,,,,,,,,,,,,,,,,,,,,,,,,,,,,,,,,,,,,,,,,,
,,64988510fe500ee3533884a8,2024-02-18_20h08.59.583,kallum_motion_pilot,2023.2.2,Win32,59.88023952,64988510fe500ee3533884a8,65d2b6c8f2eece985d8e374c,65d2b7cec67a654a5c71c239,0.6246,0.6248,1,91,253,24,1,onetwo,,,,,,,,,,,,,,,,,,,,,,,,,,,,,,,,,,,,,,,,,,,,,,,,,,,,,,,,,,,,,,,,,,,,,,,,,,,,,,,,,,,,,,,,,,,,,,,,,,,,,,,,,,,,,,,,,,,,,,,,,,,,,,,,,,,,,,,,,
,,64988510fe500ee3533884a8,2024-02-18_20h08.59.583,kallum_motion_pilot,2023.2.2,Win32,59.88023952,64988510fe500ee3533884a8,65d2b6c8f2eece985d8e374c,65d2b7cec67a654a5c71c239,0.6252,0.6254,1,92,254,160,1,fivesix,,,,,,,,,,,,,,,,,,,,,,,,,,,,,,,,,,,,,,,,,,,,,,,,,,,,,,,,,,,,,,,,,,,,,,,,,,,,,,,,,,,,,,,,,,,,,,,,,,,,,,,,,,,,,,,,,,,,,,,,,,,,,,,,,,,,,,,,,
,,64988510fe500ee3533884a8,2024-02-18_20h08.59.583,kallum_motion_pilot,2023.2.2,Win32,59.88023952,64988510fe500ee3533884a8,65d2b6c8f2eece985d8e374c,65d2b7cec67a654a5c71c239,0.6256,0.6264,1,93,255,71,1,fourthree,,,,,,,,,,,,,,,,,,,,,,,,,,,,,,,,,,,,,,,,,,,,,,,,,,,,,,,,,,,,,,,,,,,,,,,,,,,,,,,,,,,,,,,,,,,,,,,,,,,,,,,,,,,,,,,,,,,,,,,,,,,,,,,,,,,,,,,,,
,,64988510fe500ee3533884a8,2024-02-18_20h08.59.583,kallum_motion_pilot,2023.2.2,Win32,59.88023952,64988510fe500ee3533884a8,65d2b6c8f2eece985d8e374c,65d2b7cec67a654a5c71c239,0.6269,0.6278,1,94,256,89,1,fiveseven,,,,,,,,,,,,,,,,,,,,,,,,,,,,,,,,,,,,,,,,,,,,,,,,,,,,,,,,,,,,,,,,,,,,,,,,,,,,,,,,,,,,,,,,,,,,,,,,,,,,,,,,,,,,,,,,,,,,,,,,,,,,,,,,,,,,,,,,,
,,64988510fe500ee3533884a8,2024-02-18_20h08.59.583,kallum_motion_pilot,2023.2.2,Win32,59.88023952,64988510fe500ee3533884a8,65d2b6c8f2eece985d8e374c,65d2b7cec67a654a5c71c239,0.6284,0.6289,1,95,257,70,1,fourtwo,,,,,,,,,,,,,,,,,,,,,,,,,,,,,,,,,,,,,,,,,,,,,,,,,,,,,,,,,,,,,,,,,,,,,,,,,,,,,,,,,,,,,,,,,,,,,,,,,,,,,,,,,,,,,,,,,,,,,,,,,,,,,,,,,,,,,,,,,
,,64988510fe500ee3533884a8,2024-02-18_20h08.59.583,kallum_motion_pilot,2023.2.2,Win32,59.88023952,64988510fe500ee3533884a8,65d2b6c8f2eece985d8e374c,65d2b7cec67a654a5c71c239,0.6294,0.6297,1,96,258,156,1,sevenfive,,,,,,,,,,,,,,,,,,,,,,,,,,,,,,,,,,,,,,,,,,,,,,,,,,,,,,,,,,,,,,,,,,,,,,,,,,,,,,,,,,,,,,,,,,,,,,,,,,,,,,,,,,,,,,,,,,,,,,,,,,,,,,,,,,,,,,,,,
,,64988510fe500ee3533884a8,2024-02-18_20h08.59.583,kallum_motion_pilot,2023.2.2,Win32,59.88023952,64988510fe500ee3533884a8,65d2b6c8f2eece985d8e374c,65d2b7cec67a654a5c71c239,0.6301,0.6304,1,97,259,137,1,fiveseven,,,,,,,,,,,,,,,,,,,,,,,,,,,,,,,,,,,,,,,,,,,,,,,,,,,,,,,,,,,,,,,,,,,,,,,,,,,,,,,,,,,,,,,,,,,,,,,,,,,,,,,,,,,,,,,,,,,,,,,,,,,,,,,,,,,,,,,,,
,,64988510fe500ee3533884a8,2024-02-18_20h08.59.583,kallum_motion_pilot,2023.2.2,Win32,59.88023952,64988510fe500ee3533884a8,65d2b6c8f2eece985d8e374c,65d2b7cec67a654a5c71c239,0.6308,0.631,1,98,260,51,1,twofour,,,,,,,,,,,,,,,,,,,,,,,,,,,,,,,,,,,,,,,,,,,,,,,,,,,,,,,,,,,,,,,,,,,,,,,,,,,,,,,,,,,,,,,,,,,,,,,,,,,,,,,,,,,,,,,,,,,,,,,,,,,,,,,,,,,,,,,,,
,,64988510fe500ee3533884a8,2024-02-18_20h08.59.583,kallum_motion_pilot,2023.2.2,Win32,59.88023952,64988510fe500ee3533884a8,65d2b6c8f2eece985d8e374c,65d2b7cec67a654a5c71c239,0.6313,0.6316,1,99,261,100,1,sevenfive,,,,,,,,,,,,,,,,,,,,,,,,,,,,,,,,,,,,,,,,,,,,,,,,,,,,,,,,,,,,,,,,,,,,,,,,,,,,,,,,,,,,,,,,,,,,,,,,,,,,,,,,,,,,,,,,,,,,,,,,,,,,,,,,,,,,,,,,,
,,64988510fe500ee3533884a8,2024-02-18_20h08.59.583,kallum_motion_pilot,2023.2.2,Win32,59.88023952,64988510fe500ee3533884a8,65d2b6c8f2eece985d8e374c,65d2b7cec67a654a5c71c239,0.6319,0.6324,1,100,262,122,1,sixfive,,,,,,,,,,,,,,,,,,,,,,,,,,,,,,,,,,,,,,,,,,,,,,,,,,,,,,,,,,,,,,,,,,,,,,,,,,,,,,,,,,,,,,,,,,,,,,,,,,,,,,,,,,,,,,,,,,,,,,,,,,,,,,,,,,,,,,,,,
,,64988510fe500ee3533884a8,2024-02-18_20h08.59.583,kallum_motion_pilot,2023.2.2,Win32,59.88023952,64988510fe500ee3533884a8,65d2b6c8f2eece985d8e374c,65d2b7cec67a654a5c71c239,0.6326,0.6329,1,101,263,112,1,fivesix,,,,,,,,,,,,,,,,,,,,,,,,,,,,,,,,,,,,,,,,,,,,,,,,,,,,,,,,,,,,,,,,,,,,,,,,,,,,,,,,,,,,,,,,,,,,,,,,,,,,,,,,,,,,,,,,,,,,,,,,,,,,,,,,,,,,,,,,,
,,64988510fe500ee3533884a8,2024-02-18_20h08.59.583,kallum_motion_pilot,2023.2.2,Win32,59.88023952,64988510fe500ee3533884a8,65d2b6c8f2eece985d8e374c,65d2b7cec67a654a5c71c239,0.671,0.6713,1,102,264,116,1,sevenfive,,,,,,,,,,,,,,,,,,,,,,,,,,,,,,,,,,,,,,,,,,,,,,,,,,,,,,,,,,,,,,,,,,,,,,,,,,,,,,,,,,,,,,,,,,,,,,,,,,,,,,,,,,,,,,,,,,,,,,,,,,,,,,,,,,,,,,,,,
,,64988510fe500ee3533884a8,2024-02-18_20h08.59.583,kallum_motion_pilot,2023.2.2,Win32,59.88023952,64988510fe500ee3533884a8,65d2b6c8f2eece985d8e374c,65d2b7cec67a654a5c71c239,0.6717,0.6719,1,103,265,126,1,eightsix,,,,,,,,,,,,,,,,,,,,,,,,,,,,,,,,,,,,,,,,,,,,,,,,,,,,,,,,,,,,,,,,,,,,,,,,,,,,,,,,,,,,,,,,,,,,,,,,,,,,,,,,,,,,,,,,,,,,,,,,,,,,,,,,,,,,,,,,,
,,64988510fe500ee3533884a8,2024-02-18_20h08.59.583,kallum_motion_pilot,2023.2.2,Win32,59.88023952,64988510fe500ee3533884a8,65d2b6c8f2eece985d8e374c,65d2b7cec67a654a5c71c239,0.6724,0.6727,1,104,266,26,1,twoone,,,,,,,,,,,,,,,,,,,,,,,,,,,,,,,,,,,,,,,,,,,,,,,,,,,,,,,,,,,,,,,,,,,,,,,,,,,,,,,,,,,,,,,,,,,,,,,,,,,,,,,,,,,,,,,,,,,,,,,,,,,,,,,,,,,,,,,,,
,,64988510fe500ee3533884a8,2024-02-18_20h08.59.583,kallum_motion_pilot,2023.2.2,Win32,59.88023952,64988510fe500ee3533884a8,65d2b6c8f2eece985d8e374c,65d2b7cec67a654a5c71c239,0.673,0.6732,1,105,267,85,1,seveneight,,,,,,,,,,,,,,,,,,,,,,,,,,,,,,,,,,,,,,,,,,,,,,,,,,,,,,,,,,,,,,,,,,,,,,,,,,,,,,,,,,,,,,,,,,,,,,,,,,,,,,,,,,,,,,,,,,,,,,,,,,,,,,,,,,,,,,,,,
,,64988510fe500ee3533884a8,2024-02-18_20h08.59.583,kallum_motion_pilot,2023.2.2,Win32,59.88023952,64988510fe500ee3533884a8,65d2b6c8f2eece985d8e374c,65d2b7cec67a654a5c71c239,0.6735,0.6738,1,106,268,30,1,fourtwo,,,,,,,,,,,,,,,,,,,,,,,,,,,,,,,,,,,,,,,,,,,,,,,,,,,,,,,,,,,,,,,,,,,,,,,,,,,,,,,,,,,,,,,,,,,,,,,,,,,,,,,,,,,,,,,,,,,,,,,,,,,,,,,,,,,,,,,,,
,,64988510fe500ee3533884a8,2024-02-18_20h08.59.583,kallum_motion_pilot,2023.2.2,Win32,59.88023952,64988510fe500ee3533884a8,65d2b6c8f2eece985d8e374c,65d2b7cec67a654a5c71c239,0.674,0.6743,1,107,269,32,1,onetwo,,,,,,,,,,,,,,,,,,,,,,,,,,,,,,,,,,,,,,,,,,,,,,,,,,,,,,,,,,,,,,,,,,,,,,,,,,,,,,,,,,,,,,,,,,,,,,,,,,,,,,,,,,,,,,,,,,,,,,,,,,,,,,,,,,,,,,,,,
,,64988510fe500ee3533884a8,2024-02-18_20h08.59.583,kallum_motion_pilot,2023.2.2,Win32,59.88023952,64988510fe500ee3533884a8,65d2b6c8f2eece985d8e374c,65d2b7cec67a654a5c71c239,0.6745,0.6748,1,108,270,153,1,fiveseven,,,,,,,,,,,,,,,,,,,,,,,,,,,,,,,,,,,,,,,,,,,,,,,,,,,,,,,,,,,,,,,,,,,,,,,,,,,,,,,,,,,,,,,,,,,,,,,,,,,,,,,,,,,,,,,,,,,,,,,,,,,,,,,,,,,,,,,,,
,,64988510fe500ee3533884a8,2024-02-18_20h08.59.583,kallum_motion_pilot,2023.2.2,Win32,59.88023952,64988510fe500ee3533884a8,65d2b6c8f2eece985d8e374c,65d2b7cec67a654a5c71c239,0.6752,0.6755,1,109,271,148,1,sevenfive,,,,,,,,,,,,,,,,,,,,,,,,,,,,,,,,,,,,,,,,,,,,,,,,,,,,,,,,,,,,,,,,,,,,,,,,,,,,,,,,,,,,,,,,,,,,,,,,,,,,,,,,,,,,,,,,,,,,,,,,,,,,,,,,,,,,,,,,,
,,64988510fe500ee3533884a8,2024-02-18_20h08.59.583,kallum_motion_pilot,2023.2.2,Win32,59.88023952,64988510fe500ee3533884a8,65d2b6c8f2eece985d8e374c,65d2b7cec67a654a5c71c239,0.6758,0.6761,1,110,272,127,1,eightseven,,,,,,,,,,,,,,,,,,,,,,,,,,,,,,,,,,,,,,,,,,,,,,,,,,,,,,,,,,,,,,,,,,,,,,,,,,,,,,,,,,,,,,,,,,,,,,,,,,,,,,,,,,,,,,,,,,,,,,,,,,,,,,,,,,,,,,,,,
,,64988510fe500ee3533884a8,2024-02-18_20h08.59.583,kallum_motion_pilot,2023.2.2,Win32,59.88023952,64988510fe500ee3533884a8,65d2b6c8f2eece985d8e374c,65d2b7cec67a654a5c71c239,0.6763,0.6766,1,111,273,154,1,sixfive,,,,,,,,,,,,,,,,,,,,,,,,,,,,,,,,,,,,,,,,,,,,,,,,,,,,,,,,,,,,,,,,,,,,,,,,,,,,,,,,,,,,,,,,,,,,,,,,,,,,,,,,,,,,,,,,,,,,,,,,,,,,,,,,,,,,,,,,,
,,64988510fe500ee3533884a8,2024-02-18_20h08.59.583,kallum_motion_pilot,2023.2.2,Win32,59.88023952,64988510fe500ee3533884a8,65d2b6c8f2eece985d8e374c,65d2b7cec67a654a5c71c239,0.6769,0.6772,1,112,274,90,1,sixfive,,,,,,,,,,,,,,,,,,,,,,,,,,,,,,,,,,,,,,,,,,,,,,,,,,,,,,,,,,,,,,,,,,,,,,,,,,,,,,,,,,,,,,,,,,,,,,,,,,,,,,,,,,,,,,,,,,,,,,,,,,,,,,,,,,,,,,,,,
,,64988510fe500ee3533884a8,2024-02-18_20h08.59.583,kallum_motion_pilot,2023.2.2,Win32,59.88023952,64988510fe500ee3533884a8,65d2b6c8f2eece985d8e374c,65d2b7cec67a654a5c71c239,0.6774,0.6776,1,113,275,36,1,threeone,,,,,,,,,,,,,,,,,,,,,,,,,,,,,,,,,,,,,,,,,,,,,,,,,,,,,,,,,,,,,,,,,,,,,,,,,,,,,,,,,,,,,,,,,,,,,,,,,,,,,,,,,,,,,,,,,,,,,,,,,,,,,,,,,,,,,,,,,
,,64988510fe500ee3533884a8,2024-02-18_20h08.59.583,kallum_motion_pilot,2023.2.2,Win32,59.88023952,64988510fe500ee3533884a8,65d2b6c8f2eece985d8e374c,65d2b7cec67a654a5c71c239,0.6779,0.6781,1,114,276,83,1,sixeight,,,,,,,,,,,,,,,,,,,,,,,,,,,,,,,,,,,,,,,,,,,,,,,,,,,,,,,,,,,,,,,,,,,,,,,,,,,,,,,,,,,,,,,,,,,,,,,,,,,,,,,,,,,,,,,,,,,,,,,,,,,,,,,,,,,,,,,,,
,,64988510fe500ee3533884a8,2024-02-18_20h08.59.583,kallum_motion_pilot,2023.2.2,Win32,59.88023952,64988510fe500ee3533884a8,65d2b6c8f2eece985d8e374c,65d2b7cec67a654a5c71c239,0.6783,0.6786,1,115,277,152,1,fivesix,,,,,,,,,,,,,,,,,,,,,,,,,,,,,,,,,,,,,,,,,,,,,,,,,,,,,,,,,,,,,,,,,,,,,,,,,,,,,,,,,,,,,,,,,,,,,,,,,,,,,,,,,,,,,,,,,,,,,,,,,,,,,,,,,,,,,,,,,
