startup.started,startup.stopped,Prolific ID*,date,expName,psychopyVersion,OS,frameRate,participant,study_id,session,stimpositions.started,stimpositions.stopped,hardcoded_stimulus_positions.thisRepN,hardcoded_stimulus_positions.thisTrialN,hardcoded_stimulus_positions.thisN,hardcoded_stimulus_positions.thisIndex,hardcoded_stimulus_positions.ran,StimulusPos,stimorientation.started,stimorientation.stopped,prac_stimorientation_import_loop.thisRepN,prac_stimorientation_import_loop.thisTrialN,prac_stimorientation_import_loop.thisN,prac_stimorientation_import_loop.thisIndex,prac_stimorientation_import_loop.ran,Stimorientation,welcome_instr.started,welcome_instr.stopped,key_resp.keys,key_resp.rt,key_resp.duration,response_steppedout_1.started,response_steppedout_1.stopped,key_resp_20.keys,key_resp_20.rt,key_resp_20.duration,response_steppedout_2.started,response_steppedout_2.stopped,key_resp_19.keys,key_resp_19.rt,key_resp_19.duration,stim_response_instr.started,stim_response_instr.stopped,key_resp_15.keys,key_resp_15.rt,key_resp_15.duration,direction_instr_2.started,direction_instr_2.stopped,key_resp_9.keys,key_resp_9.rt,key_resp_9.duration,instr_prac.started,instr_prac.stopped,key_resp_10.keys,key_resp_10.rt,key_resp_10.duration,Stim1_display_prac.started,Stim1_display_prac.stopped,Ecc,Circle1_ori,Circle2_ori,response_prac.started,similarity,response_time,response_prac.stopped,mouse_5.x,mouse_5.y,mouse_5.leftButton,mouse_5.midButton,mouse_5.rightButton,mouse_5.clicked_name,responseprac_feedback.started,responseprac_feedback.stopped,summary2_prac.started,summary2_prac.stopped,mouse_6.x,mouse_6.y,mouse_6.leftButton,mouse_6.midButton,mouse_6.rightButton,mouse_6.clicked_name,duringprac.thisRepN,duringprac.thisTrialN,duringprac.thisN,duringprac.thisIndex,duringprac.ran,begin.started,begin.stopped,key_resp_22.keys,key_resp_22.rt,key_resp_22.duration,Stim1_display.started,Stim1_display.stopped,circle1_ori,circle2_ori,circle1_SF,circle2_SF,response.started,response.stopped,mouse.x,mouse.y,mouse.leftButton,mouse.midButton,mouse.rightButton,mouse.clicked_name,trialnumber,double_pass.thisRepN,double_pass.thisTrialN,double_pass.thisN,double_pass.thisIndex,double_pass.ran,double_pass.order,main_trial.thisRepN,main_trial.thisTrialN,main_trial.thisN,main_trial.thisIndex,main_trial.ran,main_trial.order,Trial_Counter,Catch,Frequencies,response_2.started,response_2.stopped,mouse_2.x,mouse_2.y,mouse_2.leftButton,mouse_2.midButton,mouse_2.rightButton,mouse_2.clicked_name,special_trial.started,special_trial.stopped,catch_1.started,catch_1.stopped,mouse_3.x,mouse_3.y,mouse_3.leftButton,mouse_3.midButton,mouse_3.rightButton,catchresponse,catchnumber,response_time_catch,response_sum.started,response_sum.stopped,mouse_11.x,mouse_11.y,mouse_11.leftButton,mouse_11.midButton,mouse_11.rightButton,flip_presentation_sequence_for_double_pass.started,flip_presentation_sequence_for_double_pass.stopped,goodbye.started,goodbye.stopped,key_resp_3.keys,key_resp_3.rt,key_resp_3.duration
0.0008,0.0009,64c9984d3675a555688f3c0f,2024-02-21_21h31.53.686,kallum_motion_pilot,2023.2.2,Win32,59.17159763,64c9984d3675a555688f3c0f,65d6bb0e977760de756971f7,65d6bfce994906782921cde2,,,,,,,,,,,,,,,,,,,,,,,,,,,,,,,,,,,,,,,,,,,,,,,,,,,,,,,,,,,,,,,,,,,,,,,,,,,,,,,,,,,,,,,,,,,,,,,,,,,,,,,,,,,,,,,,,,,,,,,,,,,,,,,,,,,,,,,,,,,,,,,,,
,,64c9984d3675a555688f3c0f,2024-02-21_21h31.53.686,kallum_motion_pilot,2023.2.2,Win32,59.17159763,64c9984d3675a555688f3c0f,65d6bb0e977760de756971f7,65d6bfce994906782921cde2,0.0586,0.0594,0,0,0,33,1,onethree,,,,,,,,,,,,,,,,,,,,,,,,,,,,,,,,,,,,,,,,,,,,,,,,,,,,,,,,,,,,,,,,,,,,,,,,,,,,,,,,,,,,,,,,,,,,,,,,,,,,,,,,,,,,,,,,,,,,,,,,,,,,,,,,,,,,,,,,,
,,64c9984d3675a555688f3c0f,2024-02-21_21h31.53.686,kallum_motion_pilot,2023.2.2,Win32,59.17159763,64c9984d3675a555688f3c0f,65d6bb0e977760de756971f7,65d6bfce994906782921cde2,0.0603,0.0606,0,1,1,54,1,fourtwo,,,,,,,,,,,,,,,,,,,,,,,,,,,,,,,,,,,,,,,,,,,,,,,,,,,,,,,,,,,,,,,,,,,,,,,,,,,,,,,,,,,,,,,,,,,,,,,,,,,,,,,,,,,,,,,,,,,,,,,,,,,,,,,,,,,,,,,,,
,,64c9984d3675a555688f3c0f,2024-02-21_21h31.53.686,kallum_motion_pilot,2023.2.2,Win32,59.17159763,64c9984d3675a555688f3c0f,65d6bb0e977760de756971f7,65d6bfce994906782921cde2,0.0612,0.0615,0,2,2,49,1,onethree,,,,,,,,,,,,,,,,,,,,,,,,,,,,,,,,,,,,,,,,,,,,,,,,,,,,,,,,,,,,,,,,,,,,,,,,,,,,,,,,,,,,,,,,,,,,,,,,,,,,,,,,,,,,,,,,,,,,,,,,,,,,,,,,,,,,,,,,,
,,64c9984d3675a555688f3c0f,2024-02-21_21h31.53.686,kallum_motion_pilot,2023.2.2,Win32,59.17159763,64c9984d3675a555688f3c0f,65d6bb0e977760de756971f7,65d6bfce994906782921cde2,0.0621,0.0628,0,3,3,157,1,seveneight,,,,,,,,,,,,,,,,,,,,,,,,,,,,,,,,,,,,,,,,,,,,,,,,,,,,,,,,,,,,,,,,,,,,,,,,,,,,,,,,,,,,,,,,,,,,,,,,,,,,,,,,,,,,,,,,,,,,,,,,,,,,,,,,,,,,,,,,,
,,64c9984d3675a555688f3c0f,2024-02-21_21h31.53.686,kallum_motion_pilot,2023.2.2,Win32,59.17159763,64c9984d3675a555688f3c0f,65d6bb0e977760de756971f7,65d6bfce994906782921cde2,0.0634,0.0637,0,4,4,104,1,fivesix,,,,,,,,,,,,,,,,,,,,,,,,,,,,,,,,,,,,,,,,,,,,,,,,,,,,,,,,,,,,,,,,,,,,,,,,,,,,,,,,,,,,,,,,,,,,,,,,,,,,,,,,,,,,,,,,,,,,,,,,,,,,,,,,,,,,,,,,,
,,64c9984d3675a555688f3c0f,2024-02-21_21h31.53.686,kallum_motion_pilot,2023.2.2,Win32,59.17159763,64c9984d3675a555688f3c0f,65d6bb0e977760de756971f7,65d6bfce994906782921cde2,0.0641,0.0644,0,5,5,17,1,onethree,,,,,,,,,,,,,,,,,,,,,,,,,,,,,,,,,,,,,,,,,,,,,,,,,,,,,,,,,,,,,,,,,,,,,,,,,,,,,,,,,,,,,,,,,,,,,,,,,,,,,,,,,,,,,,,,,,,,,,,,,,,,,,,,,,,,,,,,,
,,64c9984d3675a555688f3c0f,2024-02-21_21h31.53.686,kallum_motion_pilot,2023.2.2,Win32,59.17159763,64c9984d3675a555688f3c0f,65d6bb0e977760de756971f7,65d6bfce994906782921cde2,0.0648,0.0651,0,6,6,52,1,threeone,,,,,,,,,,,,,,,,,,,,,,,,,,,,,,,,,,,,,,,,,,,,,,,,,,,,,,,,,,,,,,,,,,,,,,,,,,,,,,,,,,,,,,,,,,,,,,,,,,,,,,,,,,,,,,,,,,,,,,,,,,,,,,,,,,,,,,,,,
,,64c9984d3675a555688f3c0f,2024-02-21_21h31.53.686,kallum_motion_pilot,2023.2.2,Win32,59.17159763,64c9984d3675a555688f3c0f,65d6bb0e977760de756971f7,65d6bfce994906782921cde2,0.0658,0.0665,0,7,7,72,1,onetwo,,,,,,,,,,,,,,,,,,,,,,,,,,,,,,,,,,,,,,,,,,,,,,,,,,,,,,,,,,,,,,,,,,,,,,,,,,,,,,,,,,,,,,,,,,,,,,,,,,,,,,,,,,,,,,,,,,,,,,,,,,,,,,,,,,,,,,,,,
,,64c9984d3675a555688f3c0f,2024-02-21_21h31.53.686,kallum_motion_pilot,2023.2.2,Win32,59.17159763,64c9984d3675a555688f3c0f,65d6bb0e977760de756971f7,65d6bfce994906782921cde2,0.0674,0.0677,0,8,8,59,1,twofour,,,,,,,,,,,,,,,,,,,,,,,,,,,,,,,,,,,,,,,,,,,,,,,,,,,,,,,,,,,,,,,,,,,,,,,,,,,,,,,,,,,,,,,,,,,,,,,,,,,,,,,,,,,,,,,,,,,,,,,,,,,,,,,,,,,,,,,,,
,,64c9984d3675a555688f3c0f,2024-02-21_21h31.53.686,kallum_motion_pilot,2023.2.2,Win32,59.17159763,64c9984d3675a555688f3c0f,65d6bb0e977760de756971f7,65d6bfce994906782921cde2,0.0681,0.0685,0,9,9,134,1,eightsix,,,,,,,,,,,,,,,,,,,,,,,,,,,,,,,,,,,,,,,,,,,,,,,,,,,,,,,,,,,,,,,,,,,,,,,,,,,,,,,,,,,,,,,,,,,,,,,,,,,,,,,,,,,,,,,,,,,,,,,,,,,,,,,,,,,,,,,,,
,,64c9984d3675a555688f3c0f,2024-02-21_21h31.53.686,kallum_motion_pilot,2023.2.2,Win32,59.17159763,64c9984d3675a555688f3c0f,65d6bb0e977760de756971f7,65d6bfce994906782921cde2,0.0688,0.0691,0,10,10,82,1,sixfive,,,,,,,,,,,,,,,,,,,,,,,,,,,,,,,,,,,,,,,,,,,,,,,,,,,,,,,,,,,,,,,,,,,,,,,,,,,,,,,,,,,,,,,,,,,,,,,,,,,,,,,,,,,,,,,,,,,,,,,,,,,,,,,,,,,,,,,,,
,,64c9984d3675a555688f3c0f,2024-02-21_21h31.53.686,kallum_motion_pilot,2023.2.2,Win32,59.17159763,64c9984d3675a555688f3c0f,65d6bb0e977760de756971f7,65d6bfce994906782921cde2,0.0695,0.0696,0,11,11,2,1,twoone,,,,,,,,,,,,,,,,,,,,,,,,,,,,,,,,,,,,,,,,,,,,,,,,,,,,,,,,,,,,,,,,,,,,,,,,,,,,,,,,,,,,,,,,,,,,,,,,,,,,,,,,,,,,,,,,,,,,,,,,,,,,,,,,,,,,,,,,,
,,64c9984d3675a555688f3c0f,2024-02-21_21h31.53.686,kallum_motion_pilot,2023.2.2,Win32,59.17159763,64c9984d3675a555688f3c0f,65d6bb0e977760de756971f7,65d6bfce994906782921cde2,0.07,0.0704,0,12,12,61,1,threefour,,,,,,,,,,,,,,,,,,,,,,,,,,,,,,,,,,,,,,,,,,,,,,,,,,,,,,,,,,,,,,,,,,,,,,,,,,,,,,,,,,,,,,,,,,,,,,,,,,,,,,,,,,,,,,,,,,,,,,,,,,,,,,,,,,,,,,,,,
,,64c9984d3675a555688f3c0f,2024-02-21_21h31.53.686,kallum_motion_pilot,2023.2.2,Win32,59.17159763,64c9984d3675a555688f3c0f,65d6bb0e977760de756971f7,65d6bfce994906782921cde2,0.0706,0.0709,0,13,13,62,1,fourtwo,,,,,,,,,,,,,,,,,,,,,,,,,,,,,,,,,,,,,,,,,,,,,,,,,,,,,,,,,,,,,,,,,,,,,,,,,,,,,,,,,,,,,,,,,,,,,,,,,,,,,,,,,,,,,,,,,,,,,,,,,,,,,,,,,,,,,,,,,
,,64c9984d3675a555688f3c0f,2024-02-21_21h31.53.686,kallum_motion_pilot,2023.2.2,Win32,59.17159763,64c9984d3675a555688f3c0f,65d6bb0e977760de756971f7,65d6bfce994906782921cde2,0.0713,0.0716,0,14,14,28,1,threeone,,,,,,,,,,,,,,,,,,,,,,,,,,,,,,,,,,,,,,,,,,,,,,,,,,,,,,,,,,,,,,,,,,,,,,,,,,,,,,,,,,,,,,,,,,,,,,,,,,,,,,,,,,,,,,,,,,,,,,,,,,,,,,,,,,,,,,,,,
,,64c9984d3675a555688f3c0f,2024-02-21_21h31.53.686,kallum_motion_pilot,2023.2.2,Win32,59.17159763,64c9984d3675a555688f3c0f,65d6bb0e977760de756971f7,65d6bfce994906782921cde2,0.0719,0.0721,0,15,15,19,1,twofour,,,,,,,,,,,,,,,,,,,,,,,,,,,,,,,,,,,,,,,,,,,,,,,,,,,,,,,,,,,,,,,,,,,,,,,,,,,,,,,,,,,,,,,,,,,,,,,,,,,,,,,,,,,,,,,,,,,,,,,,,,,,,,,,,,,,,,,,,
,,64c9984d3675a555688f3c0f,2024-02-21_21h31.53.686,kallum_motion_pilot,2023.2.2,Win32,59.17159763,64c9984d3675a555688f3c0f,65d6bb0e977760de756971f7,65d6bfce994906782921cde2,0.0729,0.073,0,16,16,150,1,eightsix,,,,,,,,,,,,,,,,,,,,,,,,,,,,,,,,,,,,,,,,,,,,,,,,,,,,,,,,,,,,,,,,,,,,,,,,,,,,,,,,,,,,,,,,,,,,,,,,,,,,,,,,,,,,,,,,,,,,,,,,,,,,,,,,,,,,,,,,,
,,64c9984d3675a555688f3c0f,2024-02-21_21h31.53.686,kallum_motion_pilot,2023.2.2,Win32,59.17159763,64c9984d3675a555688f3c0f,65d6bb0e977760de756971f7,65d6bfce994906782921cde2,0.0736,0.0739,0,17,17,21,1,threefour,,,,,,,,,,,,,,,,,,,,,,,,,,,,,,,,,,,,,,,,,,,,,,,,,,,,,,,,,,,,,,,,,,,,,,,,,,,,,,,,,,,,,,,,,,,,,,,,,,,,,,,,,,,,,,,,,,,,,,,,,,,,,,,,,,,,,,,,,
,,64c9984d3675a555688f3c0f,2024-02-21_21h31.53.686,kallum_motion_pilot,2023.2.2,Win32,59.17159763,64c9984d3675a555688f3c0f,65d6bb0e977760de756971f7,65d6bfce994906782921cde2,0.0742,0.0745,0,18,18,102,1,eightsix,,,,,,,,,,,,,,,,,,,,,,,,,,,,,,,,,,,,,,,,,,,,,,,,,,,,,,,,,,,,,,,,,,,,,,,,,,,,,,,,,,,,,,,,,,,,,,,,,,,,,,,,,,,,,,,,,,,,,,,,,,,,,,,,,,,,,,,,,
,,64c9984d3675a555688f3c0f,2024-02-21_21h31.53.686,kallum_motion_pilot,2023.2.2,Win32,59.17159763,64c9984d3675a555688f3c0f,65d6bb0e977760de756971f7,65d6bfce994906782921cde2,0.0749,0.0752,0,19,19,78,1,fourtwo,,,,,,,,,,,,,,,,,,,,,,,,,,,,,,,,,,,,,,,,,,,,,,,,,,,,,,,,,,,,,,,,,,,,,,,,,,,,,,,,,,,,,,,,,,,,,,,,,,,,,,,,,,,,,,,,,,,,,,,,,,,,,,,,,,,,,,,,,
,,64c9984d3675a555688f3c0f,2024-02-21_21h31.53.686,kallum_motion_pilot,2023.2.2,Win32,59.17159763,64c9984d3675a555688f3c0f,65d6bb0e977760de756971f7,65d6bfce994906782921cde2,0.0755,0.0757,0,20,20,42,1,twoone,,,,,,,,,,,,,,,,,,,,,,,,,,,,,,,,,,,,,,,,,,,,,,,,,,,,,,,,,,,,,,,,,,,,,,,,,,,,,,,,,,,,,,,,,,,,,,,,,,,,,,,,,,,,,,,,,,,,,,,,,,,,,,,,,,,,,,,,,
,,64c9984d3675a555688f3c0f,2024-02-21_21h31.53.686,kallum_motion_pilot,2023.2.2,Win32,59.17159763,64c9984d3675a555688f3c0f,65d6bb0e977760de756971f7,65d6bfce994906782921cde2,0.0761,0.0764,0,21,21,39,1,fourthree,,,,,,,,,,,,,,,,,,,,,,,,,,,,,,,,,,,,,,,,,,,,,,,,,,,,,,,,,,,,,,,,,,,,,,,,,,,,,,,,,,,,,,,,,,,,,,,,,,,,,,,,,,,,,,,,,,,,,,,,,,,,,,,,,,,,,,,,,
,,64c9984d3675a555688f3c0f,2024-02-21_21h31.53.686,kallum_motion_pilot,2023.2.2,Win32,59.17159763,64c9984d3675a555688f3c0f,65d6bb0e977760de756971f7,65d6bfce994906782921cde2,0.0767,0.077,0,22,22,60,1,threeone,,,,,,,,,,,,,,,,,,,,,,,,,,,,,,,,,,,,,,,,,,,,,,,,,,,,,,,,,,,,,,,,,,,,,,,,,,,,,,,,,,,,,,,,,,,,,,,,,,,,,,,,,,,,,,,,,,,,,,,,,,,,,,,,,,,,,,,,,
,,64c9984d3675a555688f3c0f,2024-02-21_21h31.53.686,kallum_motion_pilot,2023.2.2,Win32,59.17159763,64c9984d3675a555688f3c0f,65d6bb0e977760de756971f7,65d6bfce994906782921cde2,0.0774,0.0777,0,23,23,81,1,fiveseven,,,,,,,,,,,,,,,,,,,,,,,,,,,,,,,,,,,,,,,,,,,,,,,,,,,,,,,,,,,,,,,,,,,,,,,,,,,,,,,,,,,,,,,,,,,,,,,,,,,,,,,,,,,,,,,,,,,,,,,,,,,,,,,,,,,,,,,,,
,,64c9984d3675a555688f3c0f,2024-02-21_21h31.53.686,kallum_motion_pilot,2023.2.2,Win32,59.17159763,64c9984d3675a555688f3c0f,65d6bb0e977760de756971f7,65d6bfce994906782921cde2,0.0784,0.0786,0,24,24,87,1,eightseven,,,,,,,,,,,,,,,,,,,,,,,,,,,,,,,,,,,,,,,,,,,,,,,,,,,,,,,,,,,,,,,,,,,,,,,,,,,,,,,,,,,,,,,,,,,,,,,,,,,,,,,,,,,,,,,,,,,,,,,,,,,,,,,,,,,,,,,,,
,,64c9984d3675a555688f3c0f,2024-02-21_21h31.53.686,kallum_motion_pilot,2023.2.2,Win32,59.17159763,64c9984d3675a555688f3c0f,65d6bb0e977760de756971f7,65d6bfce994906782921cde2,0.0792,0.0795,0,25,25,132,1,sevenfive,,,,,,,,,,,,,,,,,,,,,,,,,,,,,,,,,,,,,,,,,,,,,,,,,,,,,,,,,,,,,,,,,,,,,,,,,,,,,,,,,,,,,,,,,,,,,,,,,,,,,,,,,,,,,,,,,,,,,,,,,,,,,,,,,,,,,,,,,
,,64c9984d3675a555688f3c0f,2024-02-21_21h31.53.686,kallum_motion_pilot,2023.2.2,Win32,59.17159763,64c9984d3675a555688f3c0f,65d6bb0e977760de756971f7,65d6bfce994906782921cde2,0.0799,0.0802,0,26,26,116,1,sevenfive,,,,,,,,,,,,,,,,,,,,,,,,,,,,,,,,,,,,,,,,,,,,,,,,,,,,,,,,,,,,,,,,,,,,,,,,,,,,,,,,,,,,,,,,,,,,,,,,,,,,,,,,,,,,,,,,,,,,,,,,,,,,,,,,,,,,,,,,,
,,64c9984d3675a555688f3c0f,2024-02-21_21h31.53.686,kallum_motion_pilot,2023.2.2,Win32,59.17159763,64c9984d3675a555688f3c0f,65d6bb0e977760de756971f7,65d6bfce994906782921cde2,0.0805,0.0807,0,27,27,135,1,eightseven,,,,,,,,,,,,,,,,,,,,,,,,,,,,,,,,,,,,,,,,,,,,,,,,,,,,,,,,,,,,,,,,,,,,,,,,,,,,,,,,,,,,,,,,,,,,,,,,,,,,,,,,,,,,,,,,,,,,,,,,,,,,,,,,,,,,,,,,,
,,64c9984d3675a555688f3c0f,2024-02-21_21h31.53.686,kallum_motion_pilot,2023.2.2,Win32,59.17159763,64c9984d3675a555688f3c0f,65d6bb0e977760de756971f7,65d6bfce994906782921cde2,0.0811,0.0814,0,28,28,77,1,threefour,,,,,,,,,,,,,,,,,,,,,,,,,,,,,,,,,,,,,,,,,,,,,,,,,,,,,,,,,,,,,,,,,,,,,,,,,,,,,,,,,,,,,,,,,,,,,,,,,,,,,,,,,,,,,,,,,,,,,,,,,,,,,,,,,,,,,,,,,
,,64c9984d3675a555688f3c0f,2024-02-21_21h31.53.686,kallum_motion_pilot,2023.2.2,Win32,59.17159763,64c9984d3675a555688f3c0f,65d6bb0e977760de756971f7,65d6bfce994906782921cde2,0.0818,0.082,0,29,29,111,1,eightseven,,,,,,,,,,,,,,,,,,,,,,,,,,,,,,,,,,,,,,,,,,,,,,,,,,,,,,,,,,,,,,,,,,,,,,,,,,,,,,,,,,,,,,,,,,,,,,,,,,,,,,,,,,,,,,,,,,,,,,,,,,,,,,,,,,,,,,,,,
,,64c9984d3675a555688f3c0f,2024-02-21_21h31.53.686,kallum_motion_pilot,2023.2.2,Win32,59.17159763,64c9984d3675a555688f3c0f,65d6bb0e977760de756971f7,65d6bfce994906782921cde2,0.0834,0.0837,0,30,30,18,1,twoone,,,,,,,,,,,,,,,,,,,,,,,,,,,,,,,,,,,,,,,,,,,,,,,,,,,,,,,,,,,,,,,,,,,,,,,,,,,,,,,,,,,,,,,,,,,,,,,,,,,,,,,,,,,,,,,,,,,,,,,,,,,,,,,,,,,,,,,,,
,,64c9984d3675a555688f3c0f,2024-02-21_21h31.53.686,kallum_motion_pilot,2023.2.2,Win32,59.17159763,64c9984d3675a555688f3c0f,65d6bb0e977760de756971f7,65d6bfce994906782921cde2,0.0843,0.0845,0,31,31,131,1,sixeight,,,,,,,,,,,,,,,,,,,,,,,,,,,,,,,,,,,,,,,,,,,,,,,,,,,,,,,,,,,,,,,,,,,,,,,,,,,,,,,,,,,,,,,,,,,,,,,,,,,,,,,,,,,,,,,,,,,,,,,,,,,,,,,,,,,,,,,,,
,,64c9984d3675a555688f3c0f,2024-02-21_21h31.53.686,kallum_motion_pilot,2023.2.2,Win32,59.17159763,64c9984d3675a555688f3c0f,65d6bb0e977760de756971f7,65d6bfce994906782921cde2,0.085,0.0853,0,32,32,58,1,twoone,,,,,,,,,,,,,,,,,,,,,,,,,,,,,,,,,,,,,,,,,,,,,,,,,,,,,,,,,,,,,,,,,,,,,,,,,,,,,,,,,,,,,,,,,,,,,,,,,,,,,,,,,,,,,,,,,,,,,,,,,,,,,,,,,,,,,,,,,
,,64c9984d3675a555688f3c0f,2024-02-21_21h31.53.686,kallum_motion_pilot,2023.2.2,Win32,59.17159763,64c9984d3675a555688f3c0f,65d6bb0e977760de756971f7,65d6bfce994906782921cde2,0.0857,0.0859,0,33,33,41,1,onethree,,,,,,,,,,,,,,,,,,,,,,,,,,,,,,,,,,,,,,,,,,,,,,,,,,,,,,,,,,,,,,,,,,,,,,,,,,,,,,,,,,,,,,,,,,,,,,,,,,,,,,,,,,,,,,,,,,,,,,,,,,,,,,,,,,,,,,,,,
,,64c9984d3675a555688f3c0f,2024-02-21_21h31.53.686,kallum_motion_pilot,2023.2.2,Win32,59.17159763,64c9984d3675a555688f3c0f,65d6bb0e977760de756971f7,65d6bfce994906782921cde2,0.0863,0.0865,0,34,34,121,1,fiveseven,,,,,,,,,,,,,,,,,,,,,,,,,,,,,,,,,,,,,,,,,,,,,,,,,,,,,,,,,,,,,,,,,,,,,,,,,,,,,,,,,,,,,,,,,,,,,,,,,,,,,,,,,,,,,,,,,,,,,,,,,,,,,,,,,,,,,,,,,
,,64c9984d3675a555688f3c0f,2024-02-21_21h31.53.686,kallum_motion_pilot,2023.2.2,Win32,59.17159763,64c9984d3675a555688f3c0f,65d6bb0e977760de756971f7,65d6bfce994906782921cde2,0.0869,0.0872,0,35,35,128,1,fivesix,,,,,,,,,,,,,,,,,,,,,,,,,,,,,,,,,,,,,,,,,,,,,,,,,,,,,,,,,,,,,,,,,,,,,,,,,,,,,,,,,,,,,,,,,,,,,,,,,,,,,,,,,,,,,,,,,,,,,,,,,,,,,,,,,,,,,,,,,
,,64c9984d3675a555688f3c0f,2024-02-21_21h31.53.686,kallum_motion_pilot,2023.2.2,Win32,59.17159763,64c9984d3675a555688f3c0f,65d6bb0e977760de756971f7,65d6bfce994906782921cde2,0.0876,0.0878,0,36,36,70,1,fourtwo,,,,,,,,,,,,,,,,,,,,,,,,,,,,,,,,,,,,,,,,,,,,,,,,,,,,,,,,,,,,,,,,,,,,,,,,,,,,,,,,,,,,,,,,,,,,,,,,,,,,,,,,,,,,,,,,,,,,,,,,,,,,,,,,,,,,,,,,,
,,64c9984d3675a555688f3c0f,2024-02-21_21h31.53.686,kallum_motion_pilot,2023.2.2,Win32,59.17159763,64c9984d3675a555688f3c0f,65d6bb0e977760de756971f7,65d6bfce994906782921cde2,0.0882,0.0884,0,37,37,114,1,sixfive,,,,,,,,,,,,,,,,,,,,,,,,,,,,,,,,,,,,,,,,,,,,,,,,,,,,,,,,,,,,,,,,,,,,,,,,,,,,,,,,,,,,,,,,,,,,,,,,,,,,,,,,,,,,,,,,,,,,,,,,,,,,,,,,,,,,,,,,,
,,64c9984d3675a555688f3c0f,2024-02-21_21h31.53.686,kallum_motion_pilot,2023.2.2,Win32,59.17159763,64c9984d3675a555688f3c0f,65d6bb0e977760de756971f7,65d6bfce994906782921cde2,0.0889,0.0891,0,38,38,108,1,sevenfive,,,,,,,,,,,,,,,,,,,,,,,,,,,,,,,,,,,,,,,,,,,,,,,,,,,,,,,,,,,,,,,,,,,,,,,,,,,,,,,,,,,,,,,,,,,,,,,,,,,,,,,,,,,,,,,,,,,,,,,,,,,,,,,,,,,,,,,,,
,,64c9984d3675a555688f3c0f,2024-02-21_21h31.53.686,kallum_motion_pilot,2023.2.2,Win32,59.17159763,64c9984d3675a555688f3c0f,65d6bb0e977760de756971f7,65d6bfce994906782921cde2,0.0895,0.0898,0,39,39,96,1,fivesix,,,,,,,,,,,,,,,,,,,,,,,,,,,,,,,,,,,,,,,,,,,,,,,,,,,,,,,,,,,,,,,,,,,,,,,,,,,,,,,,,,,,,,,,,,,,,,,,,,,,,,,,,,,,,,,,,,,,,,,,,,,,,,,,,,,,,,,,,
,,64c9984d3675a555688f3c0f,2024-02-21_21h31.53.686,kallum_motion_pilot,2023.2.2,Win32,59.17159763,64c9984d3675a555688f3c0f,65d6bb0e977760de756971f7,65d6bfce994906782921cde2,0.0902,0.0904,0,40,40,13,1,threefour,,,,,,,,,,,,,,,,,,,,,,,,,,,,,,,,,,,,,,,,,,,,,,,,,,,,,,,,,,,,,,,,,,,,,,,,,,,,,,,,,,,,,,,,,,,,,,,,,,,,,,,,,,,,,,,,,,,,,,,,,,,,,,,,,,,,,,,,,
,,64c9984d3675a555688f3c0f,2024-02-21_21h31.53.686,kallum_motion_pilot,2023.2.2,Win32,59.17159763,64c9984d3675a555688f3c0f,65d6bb0e977760de756971f7,65d6bfce994906782921cde2,0.0908,0.0911,0,41,41,79,1,eightseven,,,,,,,,,,,,,,,,,,,,,,,,,,,,,,,,,,,,,,,,,,,,,,,,,,,,,,,,,,,,,,,,,,,,,,,,,,,,,,,,,,,,,,,,,,,,,,,,,,,,,,,,,,,,,,,,,,,,,,,,,,,,,,,,,,,,,,,,,
,,64c9984d3675a555688f3c0f,2024-02-21_21h31.53.686,kallum_motion_pilot,2023.2.2,Win32,59.17159763,64c9984d3675a555688f3c0f,65d6bb0e977760de756971f7,65d6bfce994906782921cde2,0.0915,0.0918,0,42,42,133,1,seveneight,,,,,,,,,,,,,,,,,,,,,,,,,,,,,,,,,,,,,,,,,,,,,,,,,,,,,,,,,,,,,,,,,,,,,,,,,,,,,,,,,,,,,,,,,,,,,,,,,,,,,,,,,,,,,,,,,,,,,,,,,,,,,,,,,,,,,,,,,
,,64c9984d3675a555688f3c0f,2024-02-21_21h31.53.686,kallum_motion_pilot,2023.2.2,Win32,59.17159763,64c9984d3675a555688f3c0f,65d6bb0e977760de756971f7,65d6bfce994906782921cde2,0.0921,0.0928,0,43,43,122,1,sixfive,,,,,,,,,,,,,,,,,,,,,,,,,,,,,,,,,,,,,,,,,,,,,,,,,,,,,,,,,,,,,,,,,,,,,,,,,,,,,,,,,,,,,,,,,,,,,,,,,,,,,,,,,,,,,,,,,,,,,,,,,,,,,,,,,,,,,,,,,
,,64c9984d3675a555688f3c0f,2024-02-21_21h31.53.686,kallum_motion_pilot,2023.2.2,Win32,59.17159763,64c9984d3675a555688f3c0f,65d6bb0e977760de756971f7,65d6bfce994906782921cde2,0.0931,0.0934,0,44,44,85,1,seveneight,,,,,,,,,,,,,,,,,,,,,,,,,,,,,,,,,,,,,,,,,,,,,,,,,,,,,,,,,,,,,,,,,,,,,,,,,,,,,,,,,,,,,,,,,,,,,,,,,,,,,,,,,,,,,,,,,,,,,,,,,,,,,,,,,,,,,,,,,
,,64c9984d3675a555688f3c0f,2024-02-21_21h31.53.686,kallum_motion_pilot,2023.2.2,Win32,59.17159763,64c9984d3675a555688f3c0f,65d6bb0e977760de756971f7,65d6bfce994906782921cde2,0.0938,0.094,0,45,45,151,1,eightseven,,,,,,,,,,,,,,,,,,,,,,,,,,,,,,,,,,,,,,,,,,,,,,,,,,,,,,,,,,,,,,,,,,,,,,,,,,,,,,,,,,,,,,,,,,,,,,,,,,,,,,,,,,,,,,,,,,,,,,,,,,,,,,,,,,,,,,,,,
,,64c9984d3675a555688f3c0f,2024-02-21_21h31.53.686,kallum_motion_pilot,2023.2.2,Win32,59.17159763,64c9984d3675a555688f3c0f,65d6bb0e977760de756971f7,65d6bfce994906782921cde2,0.0944,0.0947,0,46,46,80,1,fivesix,,,,,,,,,,,,,,,,,,,,,,,,,,,,,,,,,,,,,,,,,,,,,,,,,,,,,,,,,,,,,,,,,,,,,,,,,,,,,,,,,,,,,,,,,,,,,,,,,,,,,,,,,,,,,,,,,,,,,,,,,,,,,,,,,,,,,,,,,
,,64c9984d3675a555688f3c0f,2024-02-21_21h31.53.686,kallum_motion_pilot,2023.2.2,Win32,59.17159763,64c9984d3675a555688f3c0f,65d6bb0e977760de756971f7,65d6bfce994906782921cde2,0.0952,0.0955,0,47,47,93,1,seveneight,,,,,,,,,,,,,,,,,,,,,,,,,,,,,,,,,,,,,,,,,,,,,,,,,,,,,,,,,,,,,,,,,,,,,,,,,,,,,,,,,,,,,,,,,,,,,,,,,,,,,,,,,,,,,,,,,,,,,,,,,,,,,,,,,,,,,,,,,
,,64c9984d3675a555688f3c0f,2024-02-21_21h31.53.686,kallum_motion_pilot,2023.2.2,Win32,59.17159763,64c9984d3675a555688f3c0f,65d6bb0e977760de756971f7,65d6bfce994906782921cde2,0.0959,0.0962,0,48,48,105,1,fiveseven,,,,,,,,,,,,,,,,,,,,,,,,,,,,,,,,,,,,,,,,,,,,,,,,,,,,,,,,,,,,,,,,,,,,,,,,,,,,,,,,,,,,,,,,,,,,,,,,,,,,,,,,,,,,,,,,,,,,,,,,,,,,,,,,,,,,,,,,,
,,64c9984d3675a555688f3c0f,2024-02-21_21h31.53.686,kallum_motion_pilot,2023.2.2,Win32,59.17159763,64c9984d3675a555688f3c0f,65d6bb0e977760de756971f7,65d6bfce994906782921cde2,0.0965,0.0968,0,49,49,9,1,onethree,,,,,,,,,,,,,,,,,,,,,,,,,,,,,,,,,,,,,,,,,,,,,,,,,,,,,,,,,,,,,,,,,,,,,,,,,,,,,,,,,,,,,,,,,,,,,,,,,,,,,,,,,,,,,,,,,,,,,,,,,,,,,,,,,,,,,,,,,
,,64c9984d3675a555688f3c0f,2024-02-21_21h31.53.686,kallum_motion_pilot,2023.2.2,Win32,59.17159763,64c9984d3675a555688f3c0f,65d6bb0e977760de756971f7,65d6bfce994906782921cde2,0.0972,0.0976,0,50,50,161,1,fiveseven,,,,,,,,,,,,,,,,,,,,,,,,,,,,,,,,,,,,,,,,,,,,,,,,,,,,,,,,,,,,,,,,,,,,,,,,,,,,,,,,,,,,,,,,,,,,,,,,,,,,,,,,,,,,,,,,,,,,,,,,,,,,,,,,,,,,,,,,,
,,64c9984d3675a555688f3c0f,2024-02-21_21h31.53.686,kallum_motion_pilot,2023.2.2,Win32,59.17159763,64c9984d3675a555688f3c0f,65d6bb0e977760de756971f7,65d6bfce994906782921cde2,0.0979,0.0981,0,51,51,16,1,onetwo,,,,,,,,,,,,,,,,,,,,,,,,,,,,,,,,,,,,,,,,,,,,,,,,,,,,,,,,,,,,,,,,,,,,,,,,,,,,,,,,,,,,,,,,,,,,,,,,,,,,,,,,,,,,,,,,,,,,,,,,,,,,,,,,,,,,,,,,,
,,64c9984d3675a555688f3c0f,2024-02-21_21h31.53.686,kallum_motion_pilot,2023.2.2,Win32,59.17159763,64c9984d3675a555688f3c0f,65d6bb0e977760de756971f7,65d6bfce994906782921cde2,0.0985,0.0988,0,52,52,155,1,sixeight,,,,,,,,,,,,,,,,,,,,,,,,,,,,,,,,,,,,,,,,,,,,,,,,,,,,,,,,,,,,,,,,,,,,,,,,,,,,,,,,,,,,,,,,,,,,,,,,,,,,,,,,,,,,,,,,,,,,,,,,,,,,,,,,,,,,,,,,,
,,64c9984d3675a555688f3c0f,2024-02-21_21h31.53.686,kallum_motion_pilot,2023.2.2,Win32,59.17159763,64c9984d3675a555688f3c0f,65d6bb0e977760de756971f7,65d6bfce994906782921cde2,0.1,0.1003,0,53,53,55,1,fourthree,,,,,,,,,,,,,,,,,,,,,,,,,,,,,,,,,,,,,,,,,,,,,,,,,,,,,,,,,,,,,,,,,,,,,,,,,,,,,,,,,,,,,,,,,,,,,,,,,,,,,,,,,,,,,,,,,,,,,,,,,,,,,,,,,,,,,,,,,
,,64c9984d3675a555688f3c0f,2024-02-21_21h31.53.686,kallum_motion_pilot,2023.2.2,Win32,59.17159763,64c9984d3675a555688f3c0f,65d6bb0e977760de756971f7,65d6bfce994906782921cde2,0.1007,0.101,0,54,54,6,1,fourtwo,,,,,,,,,,,,,,,,,,,,,,,,,,,,,,,,,,,,,,,,,,,,,,,,,,,,,,,,,,,,,,,,,,,,,,,,,,,,,,,,,,,,,,,,,,,,,,,,,,,,,,,,,,,,,,,,,,,,,,,,,,,,,,,,,,,,,,,,,
,,64c9984d3675a555688f3c0f,2024-02-21_21h31.53.686,kallum_motion_pilot,2023.2.2,Win32,59.17159763,64c9984d3675a555688f3c0f,65d6bb0e977760de756971f7,65d6bfce994906782921cde2,0.1013,0.1017,0,55,55,130,1,sixfive,,,,,,,,,,,,,,,,,,,,,,,,,,,,,,,,,,,,,,,,,,,,,,,,,,,,,,,,,,,,,,,,,,,,,,,,,,,,,,,,,,,,,,,,,,,,,,,,,,,,,,,,,,,,,,,,,,,,,,,,,,,,,,,,,,,,,,,,,
,,64c9984d3675a555688f3c0f,2024-02-21_21h31.53.686,kallum_motion_pilot,2023.2.2,Win32,59.17159763,64c9984d3675a555688f3c0f,65d6bb0e977760de756971f7,65d6bfce994906782921cde2,0.1021,0.1027,0,56,56,25,1,onethree,,,,,,,,,,,,,,,,,,,,,,,,,,,,,,,,,,,,,,,,,,,,,,,,,,,,,,,,,,,,,,,,,,,,,,,,,,,,,,,,,,,,,,,,,,,,,,,,,,,,,,,,,,,,,,,,,,,,,,,,,,,,,,,,,,,,,,,,,
,,64c9984d3675a555688f3c0f,2024-02-21_21h31.53.686,kallum_motion_pilot,2023.2.2,Win32,59.17159763,64c9984d3675a555688f3c0f,65d6bb0e977760de756971f7,65d6bfce994906782921cde2,0.103,0.1033,0,57,57,8,1,onetwo,,,,,,,,,,,,,,,,,,,,,,,,,,,,,,,,,,,,,,,,,,,,,,,,,,,,,,,,,,,,,,,,,,,,,,,,,,,,,,,,,,,,,,,,,,,,,,,,,,,,,,,,,,,,,,,,,,,,,,,,,,,,,,,,,,,,,,,,,
,,64c9984d3675a555688f3c0f,2024-02-21_21h31.53.686,kallum_motion_pilot,2023.2.2,Win32,59.17159763,64c9984d3675a555688f3c0f,65d6bb0e977760de756971f7,65d6bfce994906782921cde2,0.1037,0.104,0,58,58,36,1,threeone,,,,,,,,,,,,,,,,,,,,,,,,,,,,,,,,,,,,,,,,,,,,,,,,,,,,,,,,,,,,,,,,,,,,,,,,,,,,,,,,,,,,,,,,,,,,,,,,,,,,,,,,,,,,,,,,,,,,,,,,,,,,,,,,,,,,,,,,,
,,64c9984d3675a555688f3c0f,2024-02-21_21h31.53.686,kallum_motion_pilot,2023.2.2,Win32,59.17159763,64c9984d3675a555688f3c0f,65d6bb0e977760de756971f7,65d6bfce994906782921cde2,0.1043,0.1046,0,59,59,101,1,seveneight,,,,,,,,,,,,,,,,,,,,,,,,,,,,,,,,,,,,,,,,,,,,,,,,,,,,,,,,,,,,,,,,,,,,,,,,,,,,,,,,,,,,,,,,,,,,,,,,,,,,,,,,,,,,,,,,,,,,,,,,,,,,,,,,,,,,,,,,,
,,64c9984d3675a555688f3c0f,2024-02-21_21h31.53.686,kallum_motion_pilot,2023.2.2,Win32,59.17159763,64c9984d3675a555688f3c0f,65d6bb0e977760de756971f7,65d6bfce994906782921cde2,0.105,0.1053,0,60,60,37,1,threefour,,,,,,,,,,,,,,,,,,,,,,,,,,,,,,,,,,,,,,,,,,,,,,,,,,,,,,,,,,,,,,,,,,,,,,,,,,,,,,,,,,,,,,,,,,,,,,,,,,,,,,,,,,,,,,,,,,,,,,,,,,,,,,,,,,,,,,,,,
,,64c9984d3675a555688f3c0f,2024-02-21_21h31.53.686,kallum_motion_pilot,2023.2.2,Win32,59.17159763,64c9984d3675a555688f3c0f,65d6bb0e977760de756971f7,65d6bfce994906782921cde2,0.1057,0.106,0,61,61,27,1,twofour,,,,,,,,,,,,,,,,,,,,,,,,,,,,,,,,,,,,,,,,,,,,,,,,,,,,,,,,,,,,,,,,,,,,,,,,,,,,,,,,,,,,,,,,,,,,,,,,,,,,,,,,,,,,,,,,,,,,,,,,,,,,,,,,,,,,,,,,,
,,64c9984d3675a555688f3c0f,2024-02-21_21h31.53.686,kallum_motion_pilot,2023.2.2,Win32,59.17159763,64c9984d3675a555688f3c0f,65d6bb0e977760de756971f7,65d6bfce994906782921cde2,0.1064,0.1066,0,62,62,68,1,threeone,,,,,,,,,,,,,,,,,,,,,,,,,,,,,,,,,,,,,,,,,,,,,,,,,,,,,,,,,,,,,,,,,,,,,,,,,,,,,,,,,,,,,,,,,,,,,,,,,,,,,,,,,,,,,,,,,,,,,,,,,,,,,,,,,,,,,,,,,
,,64c9984d3675a555688f3c0f,2024-02-21_21h31.53.686,kallum_motion_pilot,2023.2.2,Win32,59.17159763,64c9984d3675a555688f3c0f,65d6bb0e977760de756971f7,65d6bfce994906782921cde2,0.1077,0.1078,0,63,63,107,1,sixeight,,,,,,,,,,,,,,,,,,,,,,,,,,,,,,,,,,,,,,,,,,,,,,,,,,,,,,,,,,,,,,,,,,,,,,,,,,,,,,,,,,,,,,,,,,,,,,,,,,,,,,,,,,,,,,,,,,,,,,,,,,,,,,,,,,,,,,,,,
,,64c9984d3675a555688f3c0f,2024-02-21_21h31.53.686,kallum_motion_pilot,2023.2.2,Win32,59.17159763,64c9984d3675a555688f3c0f,65d6bb0e977760de756971f7,65d6bfce994906782921cde2,0.1084,0.1087,0,64,64,46,1,fourtwo,,,,,,,,,,,,,,,,,,,,,,,,,,,,,,,,,,,,,,,,,,,,,,,,,,,,,,,,,,,,,,,,,,,,,,,,,,,,,,,,,,,,,,,,,,,,,,,,,,,,,,,,,,,,,,,,,,,,,,,,,,,,,,,,,,,,,,,,,
,,64c9984d3675a555688f3c0f,2024-02-21_21h31.53.686,kallum_motion_pilot,2023.2.2,Win32,59.17159763,64c9984d3675a555688f3c0f,65d6bb0e977760de756971f7,65d6bfce994906782921cde2,0.109,0.1094,0,65,65,84,1,sevenfive,,,,,,,,,,,,,,,,,,,,,,,,,,,,,,,,,,,,,,,,,,,,,,,,,,,,,,,,,,,,,,,,,,,,,,,,,,,,,,,,,,,,,,,,,,,,,,,,,,,,,,,,,,,,,,,,,,,,,,,,,,,,,,,,,,,,,,,,,
,,64c9984d3675a555688f3c0f,2024-02-21_21h31.53.686,kallum_motion_pilot,2023.2.2,Win32,59.17159763,64c9984d3675a555688f3c0f,65d6bb0e977760de756971f7,65d6bfce994906782921cde2,0.1099,0.1102,0,66,66,124,1,sevenfive,,,,,,,,,,,,,,,,,,,,,,,,,,,,,,,,,,,,,,,,,,,,,,,,,,,,,,,,,,,,,,,,,,,,,,,,,,,,,,,,,,,,,,,,,,,,,,,,,,,,,,,,,,,,,,,,,,,,,,,,,,,,,,,,,,,,,,,,,
,,64c9984d3675a555688f3c0f,2024-02-21_21h31.53.686,kallum_motion_pilot,2023.2.2,Win32,59.17159763,64c9984d3675a555688f3c0f,65d6bb0e977760de756971f7,65d6bfce994906782921cde2,0.1112,0.1113,0,67,67,90,1,sixfive,,,,,,,,,,,,,,,,,,,,,,,,,,,,,,,,,,,,,,,,,,,,,,,,,,,,,,,,,,,,,,,,,,,,,,,,,,,,,,,,,,,,,,,,,,,,,,,,,,,,,,,,,,,,,,,,,,,,,,,,,,,,,,,,,,,,,,,,,
,,64c9984d3675a555688f3c0f,2024-02-21_21h31.53.686,kallum_motion_pilot,2023.2.2,Win32,59.17159763,64c9984d3675a555688f3c0f,65d6bb0e977760de756971f7,65d6bfce994906782921cde2,0.1119,0.1122,0,68,68,5,1,threefour,,,,,,,,,,,,,,,,,,,,,,,,,,,,,,,,,,,,,,,,,,,,,,,,,,,,,,,,,,,,,,,,,,,,,,,,,,,,,,,,,,,,,,,,,,,,,,,,,,,,,,,,,,,,,,,,,,,,,,,,,,,,,,,,,,,,,,,,,
,,64c9984d3675a555688f3c0f,2024-02-21_21h31.53.686,kallum_motion_pilot,2023.2.2,Win32,59.17159763,64c9984d3675a555688f3c0f,65d6bb0e977760de756971f7,65d6bfce994906782921cde2,0.1128,0.1132,0,69,69,4,1,threeone,,,,,,,,,,,,,,,,,,,,,,,,,,,,,,,,,,,,,,,,,,,,,,,,,,,,,,,,,,,,,,,,,,,,,,,,,,,,,,,,,,,,,,,,,,,,,,,,,,,,,,,,,,,,,,,,,,,,,,,,,,,,,,,,,,,,,,,,,
,,64c9984d3675a555688f3c0f,2024-02-21_21h31.53.686,kallum_motion_pilot,2023.2.2,Win32,59.17159763,64c9984d3675a555688f3c0f,65d6bb0e977760de756971f7,65d6bfce994906782921cde2,0.1156,0.1164,0,70,70,50,1,twoone,,,,,,,,,,,,,,,,,,,,,,,,,,,,,,,,,,,,,,,,,,,,,,,,,,,,,,,,,,,,,,,,,,,,,,,,,,,,,,,,,,,,,,,,,,,,,,,,,,,,,,,,,,,,,,,,,,,,,,,,,,,,,,,,,,,,,,,,,
,,64c9984d3675a555688f3c0f,2024-02-21_21h31.53.686,kallum_motion_pilot,2023.2.2,Win32,59.17159763,64c9984d3675a555688f3c0f,65d6bb0e977760de756971f7,65d6bfce994906782921cde2,0.1169,0.1173,0,71,71,100,1,sevenfive,,,,,,,,,,,,,,,,,,,,,,,,,,,,,,,,,,,,,,,,,,,,,,,,,,,,,,,,,,,,,,,,,,,,,,,,,,,,,,,,,,,,,,,,,,,,,,,,,,,,,,,,,,,,,,,,,,,,,,,,,,,,,,,,,,,,,,,,,
,,64c9984d3675a555688f3c0f,2024-02-21_21h31.53.686,kallum_motion_pilot,2023.2.2,Win32,59.17159763,64c9984d3675a555688f3c0f,65d6bb0e977760de756971f7,65d6bfce994906782921cde2,0.1177,0.118,0,72,72,26,1,twoone,,,,,,,,,,,,,,,,,,,,,,,,,,,,,,,,,,,,,,,,,,,,,,,,,,,,,,,,,,,,,,,,,,,,,,,,,,,,,,,,,,,,,,,,,,,,,,,,,,,,,,,,,,,,,,,,,,,,,,,,,,,,,,,,,,,,,,,,,
,,64c9984d3675a555688f3c0f,2024-02-21_21h31.53.686,kallum_motion_pilot,2023.2.2,Win32,59.17159763,64c9984d3675a555688f3c0f,65d6bb0e977760de756971f7,65d6bfce994906782921cde2,0.1184,0.1187,0,73,73,138,1,sixfive,,,,,,,,,,,,,,,,,,,,,,,,,,,,,,,,,,,,,,,,,,,,,,,,,,,,,,,,,,,,,,,,,,,,,,,,,,,,,,,,,,,,,,,,,,,,,,,,,,,,,,,,,,,,,,,,,,,,,,,,,,,,,,,,,,,,,,,,,
,,64c9984d3675a555688f3c0f,2024-02-21_21h31.53.686,kallum_motion_pilot,2023.2.2,Win32,59.17159763,64c9984d3675a555688f3c0f,65d6bb0e977760de756971f7,65d6bfce994906782921cde2,0.1191,0.1195,0,74,74,88,1,fivesix,,,,,,,,,,,,,,,,,,,,,,,,,,,,,,,,,,,,,,,,,,,,,,,,,,,,,,,,,,,,,,,,,,,,,,,,,,,,,,,,,,,,,,,,,,,,,,,,,,,,,,,,,,,,,,,,,,,,,,,,,,,,,,,,,,,,,,,,,
,,64c9984d3675a555688f3c0f,2024-02-21_21h31.53.686,kallum_motion_pilot,2023.2.2,Win32,59.17159763,64c9984d3675a555688f3c0f,65d6bb0e977760de756971f7,65d6bfce994906782921cde2,0.1197,0.1201,0,75,75,86,1,eightsix,,,,,,,,,,,,,,,,,,,,,,,,,,,,,,,,,,,,,,,,,,,,,,,,,,,,,,,,,,,,,,,,,,,,,,,,,,,,,,,,,,,,,,,,,,,,,,,,,,,,,,,,,,,,,,,,,,,,,,,,,,,,,,,,,,,,,,,,,
,,64c9984d3675a555688f3c0f,2024-02-21_21h31.53.686,kallum_motion_pilot,2023.2.2,Win32,59.17159763,64c9984d3675a555688f3c0f,65d6bb0e977760de756971f7,65d6bfce994906782921cde2,0.1205,0.1207,0,76,76,112,1,fivesix,,,,,,,,,,,,,,,,,,,,,,,,,,,,,,,,,,,,,,,,,,,,,,,,,,,,,,,,,,,,,,,,,,,,,,,,,,,,,,,,,,,,,,,,,,,,,,,,,,,,,,,,,,,,,,,,,,,,,,,,,,,,,,,,,,,,,,,,,
,,64c9984d3675a555688f3c0f,2024-02-21_21h31.53.686,kallum_motion_pilot,2023.2.2,Win32,59.17159763,64c9984d3675a555688f3c0f,65d6bb0e977760de756971f7,65d6bfce994906782921cde2,0.1212,0.1215,0,77,77,29,1,threefour,,,,,,,,,,,,,,,,,,,,,,,,,,,,,,,,,,,,,,,,,,,,,,,,,,,,,,,,,,,,,,,,,,,,,,,,,,,,,,,,,,,,,,,,,,,,,,,,,,,,,,,,,,,,,,,,,,,,,,,,,,,,,,,,,,,,,,,,,
,,64c9984d3675a555688f3c0f,2024-02-21_21h31.53.686,kallum_motion_pilot,2023.2.2,Win32,59.17159763,64c9984d3675a555688f3c0f,65d6bb0e977760de756971f7,65d6bfce994906782921cde2,0.1219,0.1222,0,78,78,71,1,fourthree,,,,,,,,,,,,,,,,,,,,,,,,,,,,,,,,,,,,,,,,,,,,,,,,,,,,,,,,,,,,,,,,,,,,,,,,,,,,,,,,,,,,,,,,,,,,,,,,,,,,,,,,,,,,,,,,,,,,,,,,,,,,,,,,,,,,,,,,,
,,64c9984d3675a555688f3c0f,2024-02-21_21h31.53.686,kallum_motion_pilot,2023.2.2,Win32,59.17159763,64c9984d3675a555688f3c0f,65d6bb0e977760de756971f7,65d6bfce994906782921cde2,0.123,0.1233,0,79,79,120,1,fivesix,,,,,,,,,,,,,,,,,,,,,,,,,,,,,,,,,,,,,,,,,,,,,,,,,,,,,,,,,,,,,,,,,,,,,,,,,,,,,,,,,,,,,,,,,,,,,,,,,,,,,,,,,,,,,,,,,,,,,,,,,,,,,,,,,,,,,,,,,
,,64c9984d3675a555688f3c0f,2024-02-21_21h31.53.686,kallum_motion_pilot,2023.2.2,Win32,59.17159763,64c9984d3675a555688f3c0f,65d6bb0e977760de756971f7,65d6bfce994906782921cde2,0.1237,0.124,0,80,80,1,1,onethree,,,,,,,,,,,,,,,,,,,,,,,,,,,,,,,,,,,,,,,,,,,,,,,,,,,,,,,,,,,,,,,,,,,,,,,,,,,,,,,,,,,,,,,,,,,,,,,,,,,,,,,,,,,,,,,,,,,,,,,,,,,,,,,,,,,,,,,,,
,,64c9984d3675a555688f3c0f,2024-02-21_21h31.53.686,kallum_motion_pilot,2023.2.2,Win32,59.17159763,64c9984d3675a555688f3c0f,65d6bb0e977760de756971f7,65d6bfce994906782921cde2,0.1245,0.1247,0,81,81,65,1,onethree,,,,,,,,,,,,,,,,,,,,,,,,,,,,,,,,,,,,,,,,,,,,,,,,,,,,,,,,,,,,,,,,,,,,,,,,,,,,,,,,,,,,,,,,,,,,,,,,,,,,,,,,,,,,,,,,,,,,,,,,,,,,,,,,,,,,,,,,,
,,64c9984d3675a555688f3c0f,2024-02-21_21h31.53.686,kallum_motion_pilot,2023.2.2,Win32,59.17159763,64c9984d3675a555688f3c0f,65d6bb0e977760de756971f7,65d6bfce994906782921cde2,0.1251,0.1255,0,82,82,63,1,fourthree,,,,,,,,,,,,,,,,,,,,,,,,,,,,,,,,,,,,,,,,,,,,,,,,,,,,,,,,,,,,,,,,,,,,,,,,,,,,,,,,,,,,,,,,,,,,,,,,,,,,,,,,,,,,,,,,,,,,,,,,,,,,,,,,,,,,,,,,,
,,64c9984d3675a555688f3c0f,2024-02-21_21h31.53.686,kallum_motion_pilot,2023.2.2,Win32,59.17159763,64c9984d3675a555688f3c0f,65d6bb0e977760de756971f7,65d6bfce994906782921cde2,0.1259,0.1262,0,83,83,126,1,eightsix,,,,,,,,,,,,,,,,,,,,,,,,,,,,,,,,,,,,,,,,,,,,,,,,,,,,,,,,,,,,,,,,,,,,,,,,,,,,,,,,,,,,,,,,,,,,,,,,,,,,,,,,,,,,,,,,,,,,,,,,,,,,,,,,,,,,,,,,,
,,64c9984d3675a555688f3c0f,2024-02-21_21h31.53.686,kallum_motion_pilot,2023.2.2,Win32,59.17159763,64c9984d3675a555688f3c0f,65d6bb0e977760de756971f7,65d6bfce994906782921cde2,0.1265,0.1269,0,84,84,98,1,sixfive,,,,,,,,,,,,,,,,,,,,,,,,,,,,,,,,,,,,,,,,,,,,,,,,,,,,,,,,,,,,,,,,,,,,,,,,,,,,,,,,,,,,,,,,,,,,,,,,,,,,,,,,,,,,,,,,,,,,,,,,,,,,,,,,,,,,,,,,,
,,64c9984d3675a555688f3c0f,2024-02-21_21h31.53.686,kallum_motion_pilot,2023.2.2,Win32,59.17159763,64c9984d3675a555688f3c0f,65d6bb0e977760de756971f7,65d6bfce994906782921cde2,0.1273,0.1276,0,85,85,156,1,sevenfive,,,,,,,,,,,,,,,,,,,,,,,,,,,,,,,,,,,,,,,,,,,,,,,,,,,,,,,,,,,,,,,,,,,,,,,,,,,,,,,,,,,,,,,,,,,,,,,,,,,,,,,,,,,,,,,,,,,,,,,,,,,,,,,,,,,,,,,,,
,,64c9984d3675a555688f3c0f,2024-02-21_21h31.53.686,kallum_motion_pilot,2023.2.2,Win32,59.17159763,64c9984d3675a555688f3c0f,65d6bb0e977760de756971f7,65d6bfce994906782921cde2,0.128,0.1284,0,86,86,56,1,onetwo,,,,,,,,,,,,,,,,,,,,,,,,,,,,,,,,,,,,,,,,,,,,,,,,,,,,,,,,,,,,,,,,,,,,,,,,,,,,,,,,,,,,,,,,,,,,,,,,,,,,,,,,,,,,,,,,,,,,,,,,,,,,,,,,,,,,,,,,,
,,64c9984d3675a555688f3c0f,2024-02-21_21h31.53.686,kallum_motion_pilot,2023.2.2,Win32,59.17159763,64c9984d3675a555688f3c0f,65d6bb0e977760de756971f7,65d6bfce994906782921cde2,0.1287,0.1291,0,87,87,64,1,onetwo,,,,,,,,,,,,,,,,,,,,,,,,,,,,,,,,,,,,,,,,,,,,,,,,,,,,,,,,,,,,,,,,,,,,,,,,,,,,,,,,,,,,,,,,,,,,,,,,,,,,,,,,,,,,,,,,,,,,,,,,,,,,,,,,,,,,,,,,,
,,64c9984d3675a555688f3c0f,2024-02-21_21h31.53.686,kallum_motion_pilot,2023.2.2,Win32,59.17159763,64c9984d3675a555688f3c0f,65d6bb0e977760de756971f7,65d6bfce994906782921cde2,0.1299,0.1306,0,88,88,117,1,seveneight,,,,,,,,,,,,,,,,,,,,,,,,,,,,,,,,,,,,,,,,,,,,,,,,,,,,,,,,,,,,,,,,,,,,,,,,,,,,,,,,,,,,,,,,,,,,,,,,,,,,,,,,,,,,,,,,,,,,,,,,,,,,,,,,,,,,,,,,,
,,64c9984d3675a555688f3c0f,2024-02-21_21h31.53.686,kallum_motion_pilot,2023.2.2,Win32,59.17159763,64c9984d3675a555688f3c0f,65d6bb0e977760de756971f7,65d6bfce994906782921cde2,0.1311,0.1314,0,89,89,66,1,twoone,,,,,,,,,,,,,,,,,,,,,,,,,,,,,,,,,,,,,,,,,,,,,,,,,,,,,,,,,,,,,,,,,,,,,,,,,,,,,,,,,,,,,,,,,,,,,,,,,,,,,,,,,,,,,,,,,,,,,,,,,,,,,,,,,,,,,,,,,
,,64c9984d3675a555688f3c0f,2024-02-21_21h31.53.686,kallum_motion_pilot,2023.2.2,Win32,59.17159763,64c9984d3675a555688f3c0f,65d6bb0e977760de756971f7,65d6bfce994906782921cde2,0.1318,0.1322,0,90,90,44,1,threeone,,,,,,,,,,,,,,,,,,,,,,,,,,,,,,,,,,,,,,,,,,,,,,,,,,,,,,,,,,,,,,,,,,,,,,,,,,,,,,,,,,,,,,,,,,,,,,,,,,,,,,,,,,,,,,,,,,,,,,,,,,,,,,,,,,,,,,,,,
,,64c9984d3675a555688f3c0f,2024-02-21_21h31.53.686,kallum_motion_pilot,2023.2.2,Win32,59.17159763,64c9984d3675a555688f3c0f,65d6bb0e977760de756971f7,65d6bfce994906782921cde2,0.1335,0.1338,0,91,91,15,1,fourthree,,,,,,,,,,,,,,,,,,,,,,,,,,,,,,,,,,,,,,,,,,,,,,,,,,,,,,,,,,,,,,,,,,,,,,,,,,,,,,,,,,,,,,,,,,,,,,,,,,,,,,,,,,,,,,,,,,,,,,,,,,,,,,,,,,,,,,,,,
,,64c9984d3675a555688f3c0f,2024-02-21_21h31.53.686,kallum_motion_pilot,2023.2.2,Win32,59.17159763,64c9984d3675a555688f3c0f,65d6bb0e977760de756971f7,65d6bfce994906782921cde2,0.1342,0.1345,0,92,92,53,1,threefour,,,,,,,,,,,,,,,,,,,,,,,,,,,,,,,,,,,,,,,,,,,,,,,,,,,,,,,,,,,,,,,,,,,,,,,,,,,,,,,,,,,,,,,,,,,,,,,,,,,,,,,,,,,,,,,,,,,,,,,,,,,,,,,,,,,,,,,,,
,,64c9984d3675a555688f3c0f,2024-02-21_21h31.53.686,kallum_motion_pilot,2023.2.2,Win32,59.17159763,64c9984d3675a555688f3c0f,65d6bb0e977760de756971f7,65d6bfce994906782921cde2,0.1349,0.1353,0,93,93,47,1,fourthree,,,,,,,,,,,,,,,,,,,,,,,,,,,,,,,,,,,,,,,,,,,,,,,,,,,,,,,,,,,,,,,,,,,,,,,,,,,,,,,,,,,,,,,,,,,,,,,,,,,,,,,,,,,,,,,,,,,,,,,,,,,,,,,,,,,,,,,,,
,,64c9984d3675a555688f3c0f,2024-02-21_21h31.53.686,kallum_motion_pilot,2023.2.2,Win32,59.17159763,64c9984d3675a555688f3c0f,65d6bb0e977760de756971f7,65d6bfce994906782921cde2,0.1356,0.136,0,94,94,0,1,onetwo,,,,,,,,,,,,,,,,,,,,,,,,,,,,,,,,,,,,,,,,,,,,,,,,,,,,,,,,,,,,,,,,,,,,,,,,,,,,,,,,,,,,,,,,,,,,,,,,,,,,,,,,,,,,,,,,,,,,,,,,,,,,,,,,,,,,,,,,,
,,64c9984d3675a555688f3c0f,2024-02-21_21h31.53.686,kallum_motion_pilot,2023.2.2,Win32,59.17159763,64c9984d3675a555688f3c0f,65d6bb0e977760de756971f7,65d6bfce994906782921cde2,0.1363,0.1367,0,95,95,40,1,onetwo,,,,,,,,,,,,,,,,,,,,,,,,,,,,,,,,,,,,,,,,,,,,,,,,,,,,,,,,,,,,,,,,,,,,,,,,,,,,,,,,,,,,,,,,,,,,,,,,,,,,,,,,,,,,,,,,,,,,,,,,,,,,,,,,,,,,,,,,,
,,64c9984d3675a555688f3c0f,2024-02-21_21h31.53.686,kallum_motion_pilot,2023.2.2,Win32,59.17159763,64c9984d3675a555688f3c0f,65d6bb0e977760de756971f7,65d6bfce994906782921cde2,0.1371,0.1374,0,96,96,123,1,sixeight,,,,,,,,,,,,,,,,,,,,,,,,,,,,,,,,,,,,,,,,,,,,,,,,,,,,,,,,,,,,,,,,,,,,,,,,,,,,,,,,,,,,,,,,,,,,,,,,,,,,,,,,,,,,,,,,,,,,,,,,,,,,,,,,,,,,,,,,,
,,64c9984d3675a555688f3c0f,2024-02-21_21h31.53.686,kallum_motion_pilot,2023.2.2,Win32,59.17159763,64c9984d3675a555688f3c0f,65d6bb0e977760de756971f7,65d6bfce994906782921cde2,0.138,0.1382,0,97,97,137,1,fiveseven,,,,,,,,,,,,,,,,,,,,,,,,,,,,,,,,,,,,,,,,,,,,,,,,,,,,,,,,,,,,,,,,,,,,,,,,,,,,,,,,,,,,,,,,,,,,,,,,,,,,,,,,,,,,,,,,,,,,,,,,,,,,,,,,,,,,,,,,,
,,64c9984d3675a555688f3c0f,2024-02-21_21h31.53.686,kallum_motion_pilot,2023.2.2,Win32,59.17159763,64c9984d3675a555688f3c0f,65d6bb0e977760de756971f7,65d6bfce994906782921cde2,0.1386,0.1389,0,98,98,149,1,seveneight,,,,,,,,,,,,,,,,,,,,,,,,,,,,,,,,,,,,,,,,,,,,,,,,,,,,,,,,,,,,,,,,,,,,,,,,,,,,,,,,,,,,,,,,,,,,,,,,,,,,,,,,,,,,,,,,,,,,,,,,,,,,,,,,,,,,,,,,,
,,64c9984d3675a555688f3c0f,2024-02-21_21h31.53.686,kallum_motion_pilot,2023.2.2,Win32,59.17159763,64c9984d3675a555688f3c0f,65d6bb0e977760de756971f7,65d6bfce994906782921cde2,0.1393,0.1397,0,99,99,7,1,fourthree,,,,,,,,,,,,,,,,,,,,,,,,,,,,,,,,,,,,,,,,,,,,,,,,,,,,,,,,,,,,,,,,,,,,,,,,,,,,,,,,,,,,,,,,,,,,,,,,,,,,,,,,,,,,,,,,,,,,,,,,,,,,,,,,,,,,,,,,,
,,64c9984d3675a555688f3c0f,2024-02-21_21h31.53.686,kallum_motion_pilot,2023.2.2,Win32,59.17159763,64c9984d3675a555688f3c0f,65d6bb0e977760de756971f7,65d6bfce994906782921cde2,0.1401,0.1404,0,100,100,75,1,twofour,,,,,,,,,,,,,,,,,,,,,,,,,,,,,,,,,,,,,,,,,,,,,,,,,,,,,,,,,,,,,,,,,,,,,,,,,,,,,,,,,,,,,,,,,,,,,,,,,,,,,,,,,,,,,,,,,,,,,,,,,,,,,,,,,,,,,,,,,
,,64c9984d3675a555688f3c0f,2024-02-21_21h31.53.686,kallum_motion_pilot,2023.2.2,Win32,59.17159763,64c9984d3675a555688f3c0f,65d6bb0e977760de756971f7,65d6bfce994906782921cde2,0.1408,0.1411,0,101,101,20,1,threeone,,,,,,,,,,,,,,,,,,,,,,,,,,,,,,,,,,,,,,,,,,,,,,,,,,,,,,,,,,,,,,,,,,,,,,,,,,,,,,,,,,,,,,,,,,,,,,,,,,,,,,,,,,,,,,,,,,,,,,,,,,,,,,,,,,,,,,,,,
,,64c9984d3675a555688f3c0f,2024-02-21_21h31.53.686,kallum_motion_pilot,2023.2.2,Win32,59.17159763,64c9984d3675a555688f3c0f,65d6bb0e977760de756971f7,65d6bfce994906782921cde2,0.1416,0.1419,0,102,102,38,1,fourtwo,,,,,,,,,,,,,,,,,,,,,,,,,,,,,,,,,,,,,,,,,,,,,,,,,,,,,,,,,,,,,,,,,,,,,,,,,,,,,,,,,,,,,,,,,,,,,,,,,,,,,,,,,,,,,,,,,,,,,,,,,,,,,,,,,,,,,,,,,
,,64c9984d3675a555688f3c0f,2024-02-21_21h31.53.686,kallum_motion_pilot,2023.2.2,Win32,59.17159763,64c9984d3675a555688f3c0f,65d6bb0e977760de756971f7,65d6bfce994906782921cde2,0.1428,0.143,0,103,103,129,1,fiveseven,,,,,,,,,,,,,,,,,,,,,,,,,,,,,,,,,,,,,,,,,,,,,,,,,,,,,,,,,,,,,,,,,,,,,,,,,,,,,,,,,,,,,,,,,,,,,,,,,,,,,,,,,,,,,,,,,,,,,,,,,,,,,,,,,,,,,,,,,
,,64c9984d3675a555688f3c0f,2024-02-21_21h31.53.686,kallum_motion_pilot,2023.2.2,Win32,59.17159763,64c9984d3675a555688f3c0f,65d6bb0e977760de756971f7,65d6bfce994906782921cde2,0.1435,0.1438,0,104,104,106,1,sixfive,,,,,,,,,,,,,,,,,,,,,,,,,,,,,,,,,,,,,,,,,,,,,,,,,,,,,,,,,,,,,,,,,,,,,,,,,,,,,,,,,,,,,,,,,,,,,,,,,,,,,,,,,,,,,,,,,,,,,,,,,,,,,,,,,,,,,,,,,
,,64c9984d3675a555688f3c0f,2024-02-21_21h31.53.686,kallum_motion_pilot,2023.2.2,Win32,59.17159763,64c9984d3675a555688f3c0f,65d6bb0e977760de756971f7,65d6bfce994906782921cde2,0.1442,0.1446,0,105,105,119,1,eightseven,,,,,,,,,,,,,,,,,,,,,,,,,,,,,,,,,,,,,,,,,,,,,,,,,,,,,,,,,,,,,,,,,,,,,,,,,,,,,,,,,,,,,,,,,,,,,,,,,,,,,,,,,,,,,,,,,,,,,,,,,,,,,,,,,,,,,,,,,
,,64c9984d3675a555688f3c0f,2024-02-21_21h31.53.686,kallum_motion_pilot,2023.2.2,Win32,59.17159763,64c9984d3675a555688f3c0f,65d6bb0e977760de756971f7,65d6bfce994906782921cde2,0.145,0.1454,0,106,106,3,1,twofour,,,,,,,,,,,,,,,,,,,,,,,,,,,,,,,,,,,,,,,,,,,,,,,,,,,,,,,,,,,,,,,,,,,,,,,,,,,,,,,,,,,,,,,,,,,,,,,,,,,,,,,,,,,,,,,,,,,,,,,,,,,,,,,,,,,,,,,,,
,,64c9984d3675a555688f3c0f,2024-02-21_21h31.53.686,kallum_motion_pilot,2023.2.2,Win32,59.17159763,64c9984d3675a555688f3c0f,65d6bb0e977760de756971f7,65d6bfce994906782921cde2,0.1458,0.1462,0,107,107,99,1,sixeight,,,,,,,,,,,,,,,,,,,,,,,,,,,,,,,,,,,,,,,,,,,,,,,,,,,,,,,,,,,,,,,,,,,,,,,,,,,,,,,,,,,,,,,,,,,,,,,,,,,,,,,,,,,,,,,,,,,,,,,,,,,,,,,,,,,,,,,,,
,,64c9984d3675a555688f3c0f,2024-02-21_21h31.53.686,kallum_motion_pilot,2023.2.2,Win32,59.17159763,64c9984d3675a555688f3c0f,65d6bb0e977760de756971f7,65d6bfce994906782921cde2,0.1466,0.1469,0,108,108,103,1,eightseven,,,,,,,,,,,,,,,,,,,,,,,,,,,,,,,,,,,,,,,,,,,,,,,,,,,,,,,,,,,,,,,,,,,,,,,,,,,,,,,,,,,,,,,,,,,,,,,,,,,,,,,,,,,,,,,,,,,,,,,,,,,,,,,,,,,,,,,,,
,,64c9984d3675a555688f3c0f,2024-02-21_21h31.53.686,kallum_motion_pilot,2023.2.2,Win32,59.17159763,64c9984d3675a555688f3c0f,65d6bb0e977760de756971f7,65d6bfce994906782921cde2,0.1473,0.1476,0,109,109,154,1,sixfive,,,,,,,,,,,,,,,,,,,,,,,,,,,,,,,,,,,,,,,,,,,,,,,,,,,,,,,,,,,,,,,,,,,,,,,,,,,,,,,,,,,,,,,,,,,,,,,,,,,,,,,,,,,,,,,,,,,,,,,,,,,,,,,,,,,,,,,,,
,,64c9984d3675a555688f3c0f,2024-02-21_21h31.53.686,kallum_motion_pilot,2023.2.2,Win32,59.17159763,64c9984d3675a555688f3c0f,65d6bb0e977760de756971f7,65d6bfce994906782921cde2,0.148,0.1483,0,110,110,147,1,sixeight,,,,,,,,,,,,,,,,,,,,,,,,,,,,,,,,,,,,,,,,,,,,,,,,,,,,,,,,,,,,,,,,,,,,,,,,,,,,,,,,,,,,,,,,,,,,,,,,,,,,,,,,,,,,,,,,,,,,,,,,,,,,,,,,,,,,,,,,,
,,64c9984d3675a555688f3c0f,2024-02-21_21h31.53.686,kallum_motion_pilot,2023.2.2,Win32,59.17159763,64c9984d3675a555688f3c0f,65d6bb0e977760de756971f7,65d6bfce994906782921cde2,0.1488,0.1491,0,111,111,160,1,fivesix,,,,,,,,,,,,,,,,,,,,,,,,,,,,,,,,,,,,,,,,,,,,,,,,,,,,,,,,,,,,,,,,,,,,,,,,,,,,,,,,,,,,,,,,,,,,,,,,,,,,,,,,,,,,,,,,,,,,,,,,,,,,,,,,,,,,,,,,,
,,64c9984d3675a555688f3c0f,2024-02-21_21h31.53.686,kallum_motion_pilot,2023.2.2,Win32,59.17159763,64c9984d3675a555688f3c0f,65d6bb0e977760de756971f7,65d6bfce994906782921cde2,0.15,0.1504,0,112,112,30,1,fourtwo,,,,,,,,,,,,,,,,,,,,,,,,,,,,,,,,,,,,,,,,,,,,,,,,,,,,,,,,,,,,,,,,,,,,,,,,,,,,,,,,,,,,,,,,,,,,,,,,,,,,,,,,,,,,,,,,,,,,,,,,,,,,,,,,,,,,,,,,,
,,64c9984d3675a555688f3c0f,2024-02-21_21h31.53.686,kallum_motion_pilot,2023.2.2,Win32,59.17159763,64c9984d3675a555688f3c0f,65d6bb0e977760de756971f7,65d6bfce994906782921cde2,0.1508,0.1511,0,113,113,67,1,twofour,,,,,,,,,,,,,,,,,,,,,,,,,,,,,,,,,,,,,,,,,,,,,,,,,,,,,,,,,,,,,,,,,,,,,,,,,,,,,,,,,,,,,,,,,,,,,,,,,,,,,,,,,,,,,,,,,,,,,,,,,,,,,,,,,,,,,,,,,
,,64c9984d3675a555688f3c0f,2024-02-21_21h31.53.686,kallum_motion_pilot,2023.2.2,Win32,59.17159763,64c9984d3675a555688f3c0f,65d6bb0e977760de756971f7,65d6bfce994906782921cde2,0.1515,0.1519,0,114,114,110,1,eightsix,,,,,,,,,,,,,,,,,,,,,,,,,,,,,,,,,,,,,,,,,,,,,,,,,,,,,,,,,,,,,,,,,,,,,,,,,,,,,,,,,,,,,,,,,,,,,,,,,,,,,,,,,,,,,,,,,,,,,,,,,,,,,,,,,,,,,,,,,
,,64c9984d3675a555688f3c0f,2024-02-21_21h31.53.686,kallum_motion_pilot,2023.2.2,Win32,59.17159763,64c9984d3675a555688f3c0f,65d6bb0e977760de756971f7,65d6bfce994906782921cde2,0.1522,0.153,0,115,115,158,1,eightsix,,,,,,,,,,,,,,,,,,,,,,,,,,,,,,,,,,,,,,,,,,,,,,,,,,,,,,,,,,,,,,,,,,,,,,,,,,,,,,,,,,,,,,,,,,,,,,,,,,,,,,,,,,,,,,,,,,,,,,,,,,,,,,,,,,,,,,,,,
,,64c9984d3675a555688f3c0f,2024-02-21_21h31.53.686,kallum_motion_pilot,2023.2.2,Win32,59.17159763,64c9984d3675a555688f3c0f,65d6bb0e977760de756971f7,65d6bfce994906782921cde2,0.1535,0.1538,0,116,116,113,1,fiveseven,,,,,,,,,,,,,,,,,,,,,,,,,,,,,,,,,,,,,,,,,,,,,,,,,,,,,,,,,,,,,,,,,,,,,,,,,,,,,,,,,,,,,,,,,,,,,,,,,,,,,,,,,,,,,,,,,,,,,,,,,,,,,,,,,,,,,,,,,
,,64c9984d3675a555688f3c0f,2024-02-21_21h31.53.686,kallum_motion_pilot,2023.2.2,Win32,59.17159763,64c9984d3675a555688f3c0f,65d6bb0e977760de756971f7,65d6bfce994906782921cde2,0.1543,0.1547,0,117,117,74,1,twoone,,,,,,,,,,,,,,,,,,,,,,,,,,,,,,,,,,,,,,,,,,,,,,,,,,,,,,,,,,,,,,,,,,,,,,,,,,,,,,,,,,,,,,,,,,,,,,,,,,,,,,,,,,,,,,,,,,,,,,,,,,,,,,,,,,,,,,,,,
,,64c9984d3675a555688f3c0f,2024-02-21_21h31.53.686,kallum_motion_pilot,2023.2.2,Win32,59.17159763,64c9984d3675a555688f3c0f,65d6bb0e977760de756971f7,65d6bfce994906782921cde2,0.155,0.1553,0,118,118,73,1,onethree,,,,,,,,,,,,,,,,,,,,,,,,,,,,,,,,,,,,,,,,,,,,,,,,,,,,,,,,,,,,,,,,,,,,,,,,,,,,,,,,,,,,,,,,,,,,,,,,,,,,,,,,,,,,,,,,,,,,,,,,,,,,,,,,,,,,,,,,,
,,64c9984d3675a555688f3c0f,2024-02-21_21h31.53.686,kallum_motion_pilot,2023.2.2,Win32,59.17159763,64c9984d3675a555688f3c0f,65d6bb0e977760de756971f7,65d6bfce994906782921cde2,0.1557,0.1561,0,119,119,153,1,fiveseven,,,,,,,,,,,,,,,,,,,,,,,,,,,,,,,,,,,,,,,,,,,,,,,,,,,,,,,,,,,,,,,,,,,,,,,,,,,,,,,,,,,,,,,,,,,,,,,,,,,,,,,,,,,,,,,,,,,,,,,,,,,,,,,,,,,,,,,,,
,,64c9984d3675a555688f3c0f,2024-02-21_21h31.53.686,kallum_motion_pilot,2023.2.2,Win32,59.17159763,64c9984d3675a555688f3c0f,65d6bb0e977760de756971f7,65d6bfce994906782921cde2,0.1564,0.1568,0,120,120,125,1,seveneight,,,,,,,,,,,,,,,,,,,,,,,,,,,,,,,,,,,,,,,,,,,,,,,,,,,,,,,,,,,,,,,,,,,,,,,,,,,,,,,,,,,,,,,,,,,,,,,,,,,,,,,,,,,,,,,,,,,,,,,,,,,,,,,,,,,,,,,,,
,,64c9984d3675a555688f3c0f,2024-02-21_21h31.53.686,kallum_motion_pilot,2023.2.2,Win32,59.17159763,64c9984d3675a555688f3c0f,65d6bb0e977760de756971f7,65d6bfce994906782921cde2,0.1572,0.1577,0,121,121,118,1,eightsix,,,,,,,,,,,,,,,,,,,,,,,,,,,,,,,,,,,,,,,,,,,,,,,,,,,,,,,,,,,,,,,,,,,,,,,,,,,,,,,,,,,,,,,,,,,,,,,,,,,,,,,,,,,,,,,,,,,,,,,,,,,,,,,,,,,,,,,,,
,,64c9984d3675a555688f3c0f,2024-02-21_21h31.53.686,kallum_motion_pilot,2023.2.2,Win32,59.17159763,64c9984d3675a555688f3c0f,65d6bb0e977760de756971f7,65d6bfce994906782921cde2,0.1587,0.1592,0,122,122,115,1,sixeight,,,,,,,,,,,,,,,,,,,,,,,,,,,,,,,,,,,,,,,,,,,,,,,,,,,,,,,,,,,,,,,,,,,,,,,,,,,,,,,,,,,,,,,,,,,,,,,,,,,,,,,,,,,,,,,,,,,,,,,,,,,,,,,,,,,,,,,,,
,,64c9984d3675a555688f3c0f,2024-02-21_21h31.53.686,kallum_motion_pilot,2023.2.2,Win32,59.17159763,64c9984d3675a555688f3c0f,65d6bb0e977760de756971f7,65d6bfce994906782921cde2,0.16,0.1606,0,123,123,12,1,threeone,,,,,,,,,,,,,,,,,,,,,,,,,,,,,,,,,,,,,,,,,,,,,,,,,,,,,,,,,,,,,,,,,,,,,,,,,,,,,,,,,,,,,,,,,,,,,,,,,,,,,,,,,,,,,,,,,,,,,,,,,,,,,,,,,,,,,,,,,
,,64c9984d3675a555688f3c0f,2024-02-21_21h31.53.686,kallum_motion_pilot,2023.2.2,Win32,59.17159763,64c9984d3675a555688f3c0f,65d6bb0e977760de756971f7,65d6bfce994906782921cde2,0.1616,0.1628,0,124,124,92,1,sevenfive,,,,,,,,,,,,,,,,,,,,,,,,,,,,,,,,,,,,,,,,,,,,,,,,,,,,,,,,,,,,,,,,,,,,,,,,,,,,,,,,,,,,,,,,,,,,,,,,,,,,,,,,,,,,,,,,,,,,,,,,,,,,,,,,,,,,,,,,,
,,64c9984d3675a555688f3c0f,2024-02-21_21h31.53.686,kallum_motion_pilot,2023.2.2,Win32,59.17159763,64c9984d3675a555688f3c0f,65d6bb0e977760de756971f7,65d6bfce994906782921cde2,0.1638,0.1647,0,125,125,127,1,eightseven,,,,,,,,,,,,,,,,,,,,,,,,,,,,,,,,,,,,,,,,,,,,,,,,,,,,,,,,,,,,,,,,,,,,,,,,,,,,,,,,,,,,,,,,,,,,,,,,,,,,,,,,,,,,,,,,,,,,,,,,,,,,,,,,,,,,,,,,,
,,64c9984d3675a555688f3c0f,2024-02-21_21h31.53.686,kallum_motion_pilot,2023.2.2,Win32,59.17159763,64c9984d3675a555688f3c0f,65d6bb0e977760de756971f7,65d6bfce994906782921cde2,0.1657,0.1667,0,126,126,23,1,fourthree,,,,,,,,,,,,,,,,,,,,,,,,,,,,,,,,,,,,,,,,,,,,,,,,,,,,,,,,,,,,,,,,,,,,,,,,,,,,,,,,,,,,,,,,,,,,,,,,,,,,,,,,,,,,,,,,,,,,,,,,,,,,,,,,,,,,,,,,,
,,64c9984d3675a555688f3c0f,2024-02-21_21h31.53.686,kallum_motion_pilot,2023.2.2,Win32,59.17159763,64c9984d3675a555688f3c0f,65d6bb0e977760de756971f7,65d6bfce994906782921cde2,0.1674,0.1677,0,127,127,43,1,twofour,,,,,,,,,,,,,,,,,,,,,,,,,,,,,,,,,,,,,,,,,,,,,,,,,,,,,,,,,,,,,,,,,,,,,,,,,,,,,,,,,,,,,,,,,,,,,,,,,,,,,,,,,,,,,,,,,,,,,,,,,,,,,,,,,,,,,,,,,
,,64c9984d3675a555688f3c0f,2024-02-21_21h31.53.686,kallum_motion_pilot,2023.2.2,Win32,59.17159763,64c9984d3675a555688f3c0f,65d6bb0e977760de756971f7,65d6bfce994906782921cde2,0.1681,0.1685,0,128,128,69,1,threefour,,,,,,,,,,,,,,,,,,,,,,,,,,,,,,,,,,,,,,,,,,,,,,,,,,,,,,,,,,,,,,,,,,,,,,,,,,,,,,,,,,,,,,,,,,,,,,,,,,,,,,,,,,,,,,,,,,,,,,,,,,,,,,,,,,,,,,,,,
,,64c9984d3675a555688f3c0f,2024-02-21_21h31.53.686,kallum_motion_pilot,2023.2.2,Win32,59.17159763,64c9984d3675a555688f3c0f,65d6bb0e977760de756971f7,65d6bfce994906782921cde2,0.1689,0.1693,0,129,129,22,1,fourtwo,,,,,,,,,,,,,,,,,,,,,,,,,,,,,,,,,,,,,,,,,,,,,,,,,,,,,,,,,,,,,,,,,,,,,,,,,,,,,,,,,,,,,,,,,,,,,,,,,,,,,,,,,,,,,,,,,,,,,,,,,,,,,,,,,,,,,,,,,
,,64c9984d3675a555688f3c0f,2024-02-21_21h31.53.686,kallum_motion_pilot,2023.2.2,Win32,59.17159763,64c9984d3675a555688f3c0f,65d6bb0e977760de756971f7,65d6bfce994906782921cde2,0.1698,0.1701,0,130,130,48,1,onetwo,,,,,,,,,,,,,,,,,,,,,,,,,,,,,,,,,,,,,,,,,,,,,,,,,,,,,,,,,,,,,,,,,,,,,,,,,,,,,,,,,,,,,,,,,,,,,,,,,,,,,,,,,,,,,,,,,,,,,,,,,,,,,,,,,,,,,,,,,
,,64c9984d3675a555688f3c0f,2024-02-21_21h31.53.686,kallum_motion_pilot,2023.2.2,Win32,59.17159763,64c9984d3675a555688f3c0f,65d6bb0e977760de756971f7,65d6bfce994906782921cde2,0.1706,0.1709,0,131,131,139,1,sixeight,,,,,,,,,,,,,,,,,,,,,,,,,,,,,,,,,,,,,,,,,,,,,,,,,,,,,,,,,,,,,,,,,,,,,,,,,,,,,,,,,,,,,,,,,,,,,,,,,,,,,,,,,,,,,,,,,,,,,,,,,,,,,,,,,,,,,,,,,
,,64c9984d3675a555688f3c0f,2024-02-21_21h31.53.686,kallum_motion_pilot,2023.2.2,Win32,59.17159763,64c9984d3675a555688f3c0f,65d6bb0e977760de756971f7,65d6bfce994906782921cde2,0.1714,0.1717,0,132,132,145,1,fiveseven,,,,,,,,,,,,,,,,,,,,,,,,,,,,,,,,,,,,,,,,,,,,,,,,,,,,,,,,,,,,,,,,,,,,,,,,,,,,,,,,,,,,,,,,,,,,,,,,,,,,,,,,,,,,,,,,,,,,,,,,,,,,,,,,,,,,,,,,,
,,64c9984d3675a555688f3c0f,2024-02-21_21h31.53.686,kallum_motion_pilot,2023.2.2,Win32,59.17159763,64c9984d3675a555688f3c0f,65d6bb0e977760de756971f7,65d6bfce994906782921cde2,0.1721,0.1732,0,133,133,159,1,eightseven,,,,,,,,,,,,,,,,,,,,,,,,,,,,,,,,,,,,,,,,,,,,,,,,,,,,,,,,,,,,,,,,,,,,,,,,,,,,,,,,,,,,,,,,,,,,,,,,,,,,,,,,,,,,,,,,,,,,,,,,,,,,,,,,,,,,,,,,,
,,64c9984d3675a555688f3c0f,2024-02-21_21h31.53.686,kallum_motion_pilot,2023.2.2,Win32,59.17159763,64c9984d3675a555688f3c0f,65d6bb0e977760de756971f7,65d6bfce994906782921cde2,0.1745,0.1751,0,134,134,95,1,eightseven,,,,,,,,,,,,,,,,,,,,,,,,,,,,,,,,,,,,,,,,,,,,,,,,,,,,,,,,,,,,,,,,,,,,,,,,,,,,,,,,,,,,,,,,,,,,,,,,,,,,,,,,,,,,,,,,,,,,,,,,,,,,,,,,,,,,,,,,,
,,64c9984d3675a555688f3c0f,2024-02-21_21h31.53.686,kallum_motion_pilot,2023.2.2,Win32,59.17159763,64c9984d3675a555688f3c0f,65d6bb0e977760de756971f7,65d6bfce994906782921cde2,0.176,0.1765,0,135,135,141,1,seveneight,,,,,,,,,,,,,,,,,,,,,,,,,,,,,,,,,,,,,,,,,,,,,,,,,,,,,,,,,,,,,,,,,,,,,,,,,,,,,,,,,,,,,,,,,,,,,,,,,,,,,,,,,,,,,,,,,,,,,,,,,,,,,,,,,,,,,,,,,
,,64c9984d3675a555688f3c0f,2024-02-21_21h31.53.686,kallum_motion_pilot,2023.2.2,Win32,59.17159763,64c9984d3675a555688f3c0f,65d6bb0e977760de756971f7,65d6bfce994906782921cde2,0.1776,0.1781,0,136,136,10,1,twoone,,,,,,,,,,,,,,,,,,,,,,,,,,,,,,,,,,,,,,,,,,,,,,,,,,,,,,,,,,,,,,,,,,,,,,,,,,,,,,,,,,,,,,,,,,,,,,,,,,,,,,,,,,,,,,,,,,,,,,,,,,,,,,,,,,,,,,,,,
,,64c9984d3675a555688f3c0f,2024-02-21_21h31.53.686,kallum_motion_pilot,2023.2.2,Win32,59.17159763,64c9984d3675a555688f3c0f,65d6bb0e977760de756971f7,65d6bfce994906782921cde2,0.1788,0.1794,0,137,137,146,1,sixfive,,,,,,,,,,,,,,,,,,,,,,,,,,,,,,,,,,,,,,,,,,,,,,,,,,,,,,,,,,,,,,,,,,,,,,,,,,,,,,,,,,,,,,,,,,,,,,,,,,,,,,,,,,,,,,,,,,,,,,,,,,,,,,,,,,,,,,,,,
,,64c9984d3675a555688f3c0f,2024-02-21_21h31.53.686,kallum_motion_pilot,2023.2.2,Win32,59.17159763,64c9984d3675a555688f3c0f,65d6bb0e977760de756971f7,65d6bfce994906782921cde2,0.1802,0.1808,0,138,138,35,1,twofour,,,,,,,,,,,,,,,,,,,,,,,,,,,,,,,,,,,,,,,,,,,,,,,,,,,,,,,,,,,,,,,,,,,,,,,,,,,,,,,,,,,,,,,,,,,,,,,,,,,,,,,,,,,,,,,,,,,,,,,,,,,,,,,,,,,,,,,,,
,,64c9984d3675a555688f3c0f,2024-02-21_21h31.53.686,kallum_motion_pilot,2023.2.2,Win32,59.17159763,64c9984d3675a555688f3c0f,65d6bb0e977760de756971f7,65d6bfce994906782921cde2,0.1815,0.1819,0,139,139,97,1,fiveseven,,,,,,,,,,,,,,,,,,,,,,,,,,,,,,,,,,,,,,,,,,,,,,,,,,,,,,,,,,,,,,,,,,,,,,,,,,,,,,,,,,,,,,,,,,,,,,,,,,,,,,,,,,,,,,,,,,,,,,,,,,,,,,,,,,,,,,,,,
,,64c9984d3675a555688f3c0f,2024-02-21_21h31.53.686,kallum_motion_pilot,2023.2.2,Win32,59.17159763,64c9984d3675a555688f3c0f,65d6bb0e977760de756971f7,65d6bfce994906782921cde2,0.1834,0.184,0,140,140,83,1,sixeight,,,,,,,,,,,,,,,,,,,,,,,,,,,,,,,,,,,,,,,,,,,,,,,,,,,,,,,,,,,,,,,,,,,,,,,,,,,,,,,,,,,,,,,,,,,,,,,,,,,,,,,,,,,,,,,,,,,,,,,,,,,,,,,,,,,,,,,,,
,,64c9984d3675a555688f3c0f,2024-02-21_21h31.53.686,kallum_motion_pilot,2023.2.2,Win32,59.17159763,64c9984d3675a555688f3c0f,65d6bb0e977760de756971f7,65d6bfce994906782921cde2,0.1845,0.1849,0,141,141,94,1,eightsix,,,,,,,,,,,,,,,,,,,,,,,,,,,,,,,,,,,,,,,,,,,,,,,,,,,,,,,,,,,,,,,,,,,,,,,,,,,,,,,,,,,,,,,,,,,,,,,,,,,,,,,,,,,,,,,,,,,,,,,,,,,,,,,,,,,,,,,,,
,,64c9984d3675a555688f3c0f,2024-02-21_21h31.53.686,kallum_motion_pilot,2023.2.2,Win32,59.17159763,64c9984d3675a555688f3c0f,65d6bb0e977760de756971f7,65d6bfce994906782921cde2,0.1853,0.1857,0,142,142,45,1,threefour,,,,,,,,,,,,,,,,,,,,,,,,,,,,,,,,,,,,,,,,,,,,,,,,,,,,,,,,,,,,,,,,,,,,,,,,,,,,,,,,,,,,,,,,,,,,,,,,,,,,,,,,,,,,,,,,,,,,,,,,,,,,,,,,,,,,,,,,,
,,64c9984d3675a555688f3c0f,2024-02-21_21h31.53.686,kallum_motion_pilot,2023.2.2,Win32,59.17159763,64c9984d3675a555688f3c0f,65d6bb0e977760de756971f7,65d6bfce994906782921cde2,0.1861,0.1864,0,143,143,34,1,twoone,,,,,,,,,,,,,,,,,,,,,,,,,,,,,,,,,,,,,,,,,,,,,,,,,,,,,,,,,,,,,,,,,,,,,,,,,,,,,,,,,,,,,,,,,,,,,,,,,,,,,,,,,,,,,,,,,,,,,,,,,,,,,,,,,,,,,,,,,
,,64c9984d3675a555688f3c0f,2024-02-21_21h31.53.686,kallum_motion_pilot,2023.2.2,Win32,59.17159763,64c9984d3675a555688f3c0f,65d6bb0e977760de756971f7,65d6bfce994906782921cde2,0.1869,0.1873,0,144,144,140,1,sevenfive,,,,,,,,,,,,,,,,,,,,,,,,,,,,,,,,,,,,,,,,,,,,,,,,,,,,,,,,,,,,,,,,,,,,,,,,,,,,,,,,,,,,,,,,,,,,,,,,,,,,,,,,,,,,,,,,,,,,,,,,,,,,,,,,,,,,,,,,,
,,64c9984d3675a555688f3c0f,2024-02-21_21h31.53.686,kallum_motion_pilot,2023.2.2,Win32,59.17159763,64c9984d3675a555688f3c0f,65d6bb0e977760de756971f7,65d6bfce994906782921cde2,0.1876,0.188,0,145,145,32,1,onetwo,,,,,,,,,,,,,,,,,,,,,,,,,,,,,,,,,,,,,,,,,,,,,,,,,,,,,,,,,,,,,,,,,,,,,,,,,,,,,,,,,,,,,,,,,,,,,,,,,,,,,,,,,,,,,,,,,,,,,,,,,,,,,,,,,,,,,,,,,
,,64c9984d3675a555688f3c0f,2024-02-21_21h31.53.686,kallum_motion_pilot,2023.2.2,Win32,59.17159763,64c9984d3675a555688f3c0f,65d6bb0e977760de756971f7,65d6bfce994906782921cde2,0.1884,0.1887,0,146,146,144,1,fivesix,,,,,,,,,,,,,,,,,,,,,,,,,,,,,,,,,,,,,,,,,,,,,,,,,,,,,,,,,,,,,,,,,,,,,,,,,,,,,,,,,,,,,,,,,,,,,,,,,,,,,,,,,,,,,,,,,,,,,,,,,,,,,,,,,,,,,,,,,
,,64c9984d3675a555688f3c0f,2024-02-21_21h31.53.686,kallum_motion_pilot,2023.2.2,Win32,59.17159763,64c9984d3675a555688f3c0f,65d6bb0e977760de756971f7,65d6bfce994906782921cde2,0.1891,0.1896,0,147,147,142,1,eightsix,,,,,,,,,,,,,,,,,,,,,,,,,,,,,,,,,,,,,,,,,,,,,,,,,,,,,,,,,,,,,,,,,,,,,,,,,,,,,,,,,,,,,,,,,,,,,,,,,,,,,,,,,,,,,,,,,,,,,,,,,,,,,,,,,,,,,,,,,
,,64c9984d3675a555688f3c0f,2024-02-21_21h31.53.686,kallum_motion_pilot,2023.2.2,Win32,59.17159763,64c9984d3675a555688f3c0f,65d6bb0e977760de756971f7,65d6bfce994906782921cde2,0.1901,0.1904,0,148,148,143,1,eightseven,,,,,,,,,,,,,,,,,,,,,,,,,,,,,,,,,,,,,,,,,,,,,,,,,,,,,,,,,,,,,,,,,,,,,,,,,,,,,,,,,,,,,,,,,,,,,,,,,,,,,,,,,,,,,,,,,,,,,,,,,,,,,,,,,,,,,,,,,
,,64c9984d3675a555688f3c0f,2024-02-21_21h31.53.686,kallum_motion_pilot,2023.2.2,Win32,59.17159763,64c9984d3675a555688f3c0f,65d6bb0e977760de756971f7,65d6bfce994906782921cde2,0.1908,0.1912,0,149,149,14,1,fourtwo,,,,,,,,,,,,,,,,,,,,,,,,,,,,,,,,,,,,,,,,,,,,,,,,,,,,,,,,,,,,,,,,,,,,,,,,,,,,,,,,,,,,,,,,,,,,,,,,,,,,,,,,,,,,,,,,,,,,,,,,,,,,,,,,,,,,,,,,,
,,64c9984d3675a555688f3c0f,2024-02-21_21h31.53.686,kallum_motion_pilot,2023.2.2,Win32,59.17159763,64c9984d3675a555688f3c0f,65d6bb0e977760de756971f7,65d6bfce994906782921cde2,0.1915,0.1919,0,150,150,136,1,fivesix,,,,,,,,,,,,,,,,,,,,,,,,,,,,,,,,,,,,,,,,,,,,,,,,,,,,,,,,,,,,,,,,,,,,,,,,,,,,,,,,,,,,,,,,,,,,,,,,,,,,,,,,,,,,,,,,,,,,,,,,,,,,,,,,,,,,,,,,,
,,64c9984d3675a555688f3c0f,2024-02-21_21h31.53.686,kallum_motion_pilot,2023.2.2,Win32,59.17159763,64c9984d3675a555688f3c0f,65d6bb0e977760de756971f7,65d6bfce994906782921cde2,0.1923,0.193,0,151,151,31,1,fourthree,,,,,,,,,,,,,,,,,,,,,,,,,,,,,,,,,,,,,,,,,,,,,,,,,,,,,,,,,,,,,,,,,,,,,,,,,,,,,,,,,,,,,,,,,,,,,,,,,,,,,,,,,,,,,,,,,,,,,,,,,,,,,,,,,,,,,,,,,
,,64c9984d3675a555688f3c0f,2024-02-21_21h31.53.686,kallum_motion_pilot,2023.2.2,Win32,59.17159763,64c9984d3675a555688f3c0f,65d6bb0e977760de756971f7,65d6bfce994906782921cde2,0.1935,0.194,0,152,152,76,1,threeone,,,,,,,,,,,,,,,,,,,,,,,,,,,,,,,,,,,,,,,,,,,,,,,,,,,,,,,,,,,,,,,,,,,,,,,,,,,,,,,,,,,,,,,,,,,,,,,,,,,,,,,,,,,,,,,,,,,,,,,,,,,,,,,,,,,,,,,,,
,,64c9984d3675a555688f3c0f,2024-02-21_21h31.53.686,kallum_motion_pilot,2023.2.2,Win32,59.17159763,64c9984d3675a555688f3c0f,65d6bb0e977760de756971f7,65d6bfce994906782921cde2,0.1944,0.1948,0,153,153,91,1,sixeight,,,,,,,,,,,,,,,,,,,,,,,,,,,,,,,,,,,,,,,,,,,,,,,,,,,,,,,,,,,,,,,,,,,,,,,,,,,,,,,,,,,,,,,,,,,,,,,,,,,,,,,,,,,,,,,,,,,,,,,,,,,,,,,,,,,,,,,,,
,,64c9984d3675a555688f3c0f,2024-02-21_21h31.53.686,kallum_motion_pilot,2023.2.2,Win32,59.17159763,64c9984d3675a555688f3c0f,65d6bb0e977760de756971f7,65d6bfce994906782921cde2,0.1952,0.1956,0,154,154,57,1,onethree,,,,,,,,,,,,,,,,,,,,,,,,,,,,,,,,,,,,,,,,,,,,,,,,,,,,,,,,,,,,,,,,,,,,,,,,,,,,,,,,,,,,,,,,,,,,,,,,,,,,,,,,,,,,,,,,,,,,,,,,,,,,,,,,,,,,,,,,,
,,64c9984d3675a555688f3c0f,2024-02-21_21h31.53.686,kallum_motion_pilot,2023.2.2,Win32,59.17159763,64c9984d3675a555688f3c0f,65d6bb0e977760de756971f7,65d6bfce994906782921cde2,0.196,0.1963,0,155,155,152,1,fivesix,,,,,,,,,,,,,,,,,,,,,,,,,,,,,,,,,,,,,,,,,,,,,,,,,,,,,,,,,,,,,,,,,,,,,,,,,,,,,,,,,,,,,,,,,,,,,,,,,,,,,,,,,,,,,,,,,,,,,,,,,,,,,,,,,,,,,,,,,
,,64c9984d3675a555688f3c0f,2024-02-21_21h31.53.686,kallum_motion_pilot,2023.2.2,Win32,59.17159763,64c9984d3675a555688f3c0f,65d6bb0e977760de756971f7,65d6bfce994906782921cde2,0.1967,0.1971,0,156,156,148,1,sevenfive,,,,,,,,,,,,,,,,,,,,,,,,,,,,,,,,,,,,,,,,,,,,,,,,,,,,,,,,,,,,,,,,,,,,,,,,,,,,,,,,,,,,,,,,,,,,,,,,,,,,,,,,,,,,,,,,,,,,,,,,,,,,,,,,,,,,,,,,,
,,64c9984d3675a555688f3c0f,2024-02-21_21h31.53.686,kallum_motion_pilot,2023.2.2,Win32,59.17159763,64c9984d3675a555688f3c0f,65d6bb0e977760de756971f7,65d6bfce994906782921cde2,0.1975,0.1978,0,157,157,24,1,onetwo,,,,,,,,,,,,,,,,,,,,,,,,,,,,,,,,,,,,,,,,,,,,,,,,,,,,,,,,,,,,,,,,,,,,,,,,,,,,,,,,,,,,,,,,,,,,,,,,,,,,,,,,,,,,,,,,,,,,,,,,,,,,,,,,,,,,,,,,,
,,64c9984d3675a555688f3c0f,2024-02-21_21h31.53.686,kallum_motion_pilot,2023.2.2,Win32,59.17159763,64c9984d3675a555688f3c0f,65d6bb0e977760de756971f7,65d6bfce994906782921cde2,0.1982,0.1986,0,158,158,89,1,fiveseven,,,,,,,,,,,,,,,,,,,,,,,,,,,,,,,,,,,,,,,,,,,,,,,,,,,,,,,,,,,,,,,,,,,,,,,,,,,,,,,,,,,,,,,,,,,,,,,,,,,,,,,,,,,,,,,,,,,,,,,,,,,,,,,,,,,,,,,,,
,,64c9984d3675a555688f3c0f,2024-02-21_21h31.53.686,kallum_motion_pilot,2023.2.2,Win32,59.17159763,64c9984d3675a555688f3c0f,65d6bb0e977760de756971f7,65d6bfce994906782921cde2,0.1991,0.1999,0,159,159,109,1,seveneight,,,,,,,,,,,,,,,,,,,,,,,,,,,,,,,,,,,,,,,,,,,,,,,,,,,,,,,,,,,,,,,,,,,,,,,,,,,,,,,,,,,,,,,,,,,,,,,,,,,,,,,,,,,,,,,,,,,,,,,,,,,,,,,,,,,,,,,,,
,,64c9984d3675a555688f3c0f,2024-02-21_21h31.53.686,kallum_motion_pilot,2023.2.2,Win32,59.17159763,64c9984d3675a555688f3c0f,65d6bb0e977760de756971f7,65d6bfce994906782921cde2,0.2005,0.201,0,160,160,51,1,twofour,,,,,,,,,,,,,,,,,,,,,,,,,,,,,,,,,,,,,,,,,,,,,,,,,,,,,,,,,,,,,,,,,,,,,,,,,,,,,,,,,,,,,,,,,,,,,,,,,,,,,,,,,,,,,,,,,,,,,,,,,,,,,,,,,,,,,,,,,
,,64c9984d3675a555688f3c0f,2024-02-21_21h31.53.686,kallum_motion_pilot,2023.2.2,Win32,59.17159763,64c9984d3675a555688f3c0f,65d6bb0e977760de756971f7,65d6bfce994906782921cde2,0.2014,0.2019,0,161,161,11,1,twofour,,,,,,,,,,,,,,,,,,,,,,,,,,,,,,,,,,,,,,,,,,,,,,,,,,,,,,,,,,,,,,,,,,,,,,,,,,,,,,,,,,,,,,,,,,,,,,,,,,,,,,,,,,,,,,,,,,,,,,,,,,,,,,,,,,,,,,,,,
,,64c9984d3675a555688f3c0f,2024-02-21_21h31.53.686,kallum_motion_pilot,2023.2.2,Win32,59.17159763,64c9984d3675a555688f3c0f,65d6bb0e977760de756971f7,65d6bfce994906782921cde2,0.2023,0.203,1,0,162,31,1,fourthree,,,,,,,,,,,,,,,,,,,,,,,,,,,,,,,,,,,,,,,,,,,,,,,,,,,,,,,,,,,,,,,,,,,,,,,,,,,,,,,,,,,,,,,,,,,,,,,,,,,,,,,,,,,,,,,,,,,,,,,,,,,,,,,,,,,,,,,,,
,,64c9984d3675a555688f3c0f,2024-02-21_21h31.53.686,kallum_motion_pilot,2023.2.2,Win32,59.17159763,64c9984d3675a555688f3c0f,65d6bb0e977760de756971f7,65d6bfce994906782921cde2,0.2036,0.2039,1,1,163,2,1,twoone,,,,,,,,,,,,,,,,,,,,,,,,,,,,,,,,,,,,,,,,,,,,,,,,,,,,,,,,,,,,,,,,,,,,,,,,,,,,,,,,,,,,,,,,,,,,,,,,,,,,,,,,,,,,,,,,,,,,,,,,,,,,,,,,,,,,,,,,,
,,64c9984d3675a555688f3c0f,2024-02-21_21h31.53.686,kallum_motion_pilot,2023.2.2,Win32,59.17159763,64c9984d3675a555688f3c0f,65d6bb0e977760de756971f7,65d6bfce994906782921cde2,0.2044,0.2047,1,2,164,161,1,fiveseven,,,,,,,,,,,,,,,,,,,,,,,,,,,,,,,,,,,,,,,,,,,,,,,,,,,,,,,,,,,,,,,,,,,,,,,,,,,,,,,,,,,,,,,,,,,,,,,,,,,,,,,,,,,,,,,,,,,,,,,,,,,,,,,,,,,,,,,,,
,,64c9984d3675a555688f3c0f,2024-02-21_21h31.53.686,kallum_motion_pilot,2023.2.2,Win32,59.17159763,64c9984d3675a555688f3c0f,65d6bb0e977760de756971f7,65d6bfce994906782921cde2,0.2051,0.2054,1,3,165,20,1,threeone,,,,,,,,,,,,,,,,,,,,,,,,,,,,,,,,,,,,,,,,,,,,,,,,,,,,,,,,,,,,,,,,,,,,,,,,,,,,,,,,,,,,,,,,,,,,,,,,,,,,,,,,,,,,,,,,,,,,,,,,,,,,,,,,,,,,,,,,,
,,64c9984d3675a555688f3c0f,2024-02-21_21h31.53.686,kallum_motion_pilot,2023.2.2,Win32,59.17159763,64c9984d3675a555688f3c0f,65d6bb0e977760de756971f7,65d6bfce994906782921cde2,0.2058,0.2063,1,4,166,140,1,sevenfive,,,,,,,,,,,,,,,,,,,,,,,,,,,,,,,,,,,,,,,,,,,,,,,,,,,,,,,,,,,,,,,,,,,,,,,,,,,,,,,,,,,,,,,,,,,,,,,,,,,,,,,,,,,,,,,,,,,,,,,,,,,,,,,,,,,,,,,,,
,,64c9984d3675a555688f3c0f,2024-02-21_21h31.53.686,kallum_motion_pilot,2023.2.2,Win32,59.17159763,64c9984d3675a555688f3c0f,65d6bb0e977760de756971f7,65d6bfce994906782921cde2,0.2067,0.2072,1,5,167,92,1,sevenfive,,,,,,,,,,,,,,,,,,,,,,,,,,,,,,,,,,,,,,,,,,,,,,,,,,,,,,,,,,,,,,,,,,,,,,,,,,,,,,,,,,,,,,,,,,,,,,,,,,,,,,,,,,,,,,,,,,,,,,,,,,,,,,,,,,,,,,,,,
,,64c9984d3675a555688f3c0f,2024-02-21_21h31.53.686,kallum_motion_pilot,2023.2.2,Win32,59.17159763,64c9984d3675a555688f3c0f,65d6bb0e977760de756971f7,65d6bfce994906782921cde2,0.2076,0.2081,1,6,168,141,1,seveneight,,,,,,,,,,,,,,,,,,,,,,,,,,,,,,,,,,,,,,,,,,,,,,,,,,,,,,,,,,,,,,,,,,,,,,,,,,,,,,,,,,,,,,,,,,,,,,,,,,,,,,,,,,,,,,,,,,,,,,,,,,,,,,,,,,,,,,,,,
,,64c9984d3675a555688f3c0f,2024-02-21_21h31.53.686,kallum_motion_pilot,2023.2.2,Win32,59.17159763,64c9984d3675a555688f3c0f,65d6bb0e977760de756971f7,65d6bfce994906782921cde2,0.2085,0.2089,1,7,169,14,1,fourtwo,,,,,,,,,,,,,,,,,,,,,,,,,,,,,,,,,,,,,,,,,,,,,,,,,,,,,,,,,,,,,,,,,,,,,,,,,,,,,,,,,,,,,,,,,,,,,,,,,,,,,,,,,,,,,,,,,,,,,,,,,,,,,,,,,,,,,,,,,
,,64c9984d3675a555688f3c0f,2024-02-21_21h31.53.686,kallum_motion_pilot,2023.2.2,Win32,59.17159763,64c9984d3675a555688f3c0f,65d6bb0e977760de756971f7,65d6bfce994906782921cde2,0.2093,0.2097,1,8,170,93,1,seveneight,,,,,,,,,,,,,,,,,,,,,,,,,,,,,,,,,,,,,,,,,,,,,,,,,,,,,,,,,,,,,,,,,,,,,,,,,,,,,,,,,,,,,,,,,,,,,,,,,,,,,,,,,,,,,,,,,,,,,,,,,,,,,,,,,,,,,,,,,
,,64c9984d3675a555688f3c0f,2024-02-21_21h31.53.686,kallum_motion_pilot,2023.2.2,Win32,59.17159763,64c9984d3675a555688f3c0f,65d6bb0e977760de756971f7,65d6bfce994906782921cde2,0.211,0.2114,1,9,171,130,1,sixfive,,,,,,,,,,,,,,,,,,,,,,,,,,,,,,,,,,,,,,,,,,,,,,,,,,,,,,,,,,,,,,,,,,,,,,,,,,,,,,,,,,,,,,,,,,,,,,,,,,,,,,,,,,,,,,,,,,,,,,,,,,,,,,,,,,,,,,,,,
,,64c9984d3675a555688f3c0f,2024-02-21_21h31.53.686,kallum_motion_pilot,2023.2.2,Win32,59.17159763,64c9984d3675a555688f3c0f,65d6bb0e977760de756971f7,65d6bfce994906782921cde2,0.2118,0.2122,1,10,172,86,1,eightsix,,,,,,,,,,,,,,,,,,,,,,,,,,,,,,,,,,,,,,,,,,,,,,,,,,,,,,,,,,,,,,,,,,,,,,,,,,,,,,,,,,,,,,,,,,,,,,,,,,,,,,,,,,,,,,,,,,,,,,,,,,,,,,,,,,,,,,,,,
,,64c9984d3675a555688f3c0f,2024-02-21_21h31.53.686,kallum_motion_pilot,2023.2.2,Win32,59.17159763,64c9984d3675a555688f3c0f,65d6bb0e977760de756971f7,65d6bfce994906782921cde2,0.2129,0.2132,1,11,173,125,1,seveneight,,,,,,,,,,,,,,,,,,,,,,,,,,,,,,,,,,,,,,,,,,,,,,,,,,,,,,,,,,,,,,,,,,,,,,,,,,,,,,,,,,,,,,,,,,,,,,,,,,,,,,,,,,,,,,,,,,,,,,,,,,,,,,,,,,,,,,,,,
,,64c9984d3675a555688f3c0f,2024-02-21_21h31.53.686,kallum_motion_pilot,2023.2.2,Win32,59.17159763,64c9984d3675a555688f3c0f,65d6bb0e977760de756971f7,65d6bfce994906782921cde2,0.2137,0.2141,1,12,174,149,1,seveneight,,,,,,,,,,,,,,,,,,,,,,,,,,,,,,,,,,,,,,,,,,,,,,,,,,,,,,,,,,,,,,,,,,,,,,,,,,,,,,,,,,,,,,,,,,,,,,,,,,,,,,,,,,,,,,,,,,,,,,,,,,,,,,,,,,,,,,,,,
,,64c9984d3675a555688f3c0f,2024-02-21_21h31.53.686,kallum_motion_pilot,2023.2.2,Win32,59.17159763,64c9984d3675a555688f3c0f,65d6bb0e977760de756971f7,65d6bfce994906782921cde2,0.2145,0.2149,1,13,175,142,1,eightsix,,,,,,,,,,,,,,,,,,,,,,,,,,,,,,,,,,,,,,,,,,,,,,,,,,,,,,,,,,,,,,,,,,,,,,,,,,,,,,,,,,,,,,,,,,,,,,,,,,,,,,,,,,,,,,,,,,,,,,,,,,,,,,,,,,,,,,,,,
,,64c9984d3675a555688f3c0f,2024-02-21_21h31.53.686,kallum_motion_pilot,2023.2.2,Win32,59.17159763,64c9984d3675a555688f3c0f,65d6bb0e977760de756971f7,65d6bfce994906782921cde2,0.2153,0.2157,1,14,176,60,1,threeone,,,,,,,,,,,,,,,,,,,,,,,,,,,,,,,,,,,,,,,,,,,,,,,,,,,,,,,,,,,,,,,,,,,,,,,,,,,,,,,,,,,,,,,,,,,,,,,,,,,,,,,,,,,,,,,,,,,,,,,,,,,,,,,,,,,,,,,,,
,,64c9984d3675a555688f3c0f,2024-02-21_21h31.53.686,kallum_motion_pilot,2023.2.2,Win32,59.17159763,64c9984d3675a555688f3c0f,65d6bb0e977760de756971f7,65d6bfce994906782921cde2,0.2169,0.2172,1,15,177,160,1,fivesix,,,,,,,,,,,,,,,,,,,,,,,,,,,,,,,,,,,,,,,,,,,,,,,,,,,,,,,,,,,,,,,,,,,,,,,,,,,,,,,,,,,,,,,,,,,,,,,,,,,,,,,,,,,,,,,,,,,,,,,,,,,,,,,,,,,,,,,,,
,,64c9984d3675a555688f3c0f,2024-02-21_21h31.53.686,kallum_motion_pilot,2023.2.2,Win32,59.17159763,64c9984d3675a555688f3c0f,65d6bb0e977760de756971f7,65d6bfce994906782921cde2,0.2177,0.2181,1,16,178,156,1,sevenfive,,,,,,,,,,,,,,,,,,,,,,,,,,,,,,,,,,,,,,,,,,,,,,,,,,,,,,,,,,,,,,,,,,,,,,,,,,,,,,,,,,,,,,,,,,,,,,,,,,,,,,,,,,,,,,,,,,,,,,,,,,,,,,,,,,,,,,,,,
,,64c9984d3675a555688f3c0f,2024-02-21_21h31.53.686,kallum_motion_pilot,2023.2.2,Win32,59.17159763,64c9984d3675a555688f3c0f,65d6bb0e977760de756971f7,65d6bfce994906782921cde2,0.2185,0.2189,1,17,179,104,1,fivesix,,,,,,,,,,,,,,,,,,,,,,,,,,,,,,,,,,,,,,,,,,,,,,,,,,,,,,,,,,,,,,,,,,,,,,,,,,,,,,,,,,,,,,,,,,,,,,,,,,,,,,,,,,,,,,,,,,,,,,,,,,,,,,,,,,,,,,,,,
,,64c9984d3675a555688f3c0f,2024-02-21_21h31.53.686,kallum_motion_pilot,2023.2.2,Win32,59.17159763,64c9984d3675a555688f3c0f,65d6bb0e977760de756971f7,65d6bfce994906782921cde2,0.2194,0.2197,1,18,180,18,1,twoone,,,,,,,,,,,,,,,,,,,,,,,,,,,,,,,,,,,,,,,,,,,,,,,,,,,,,,,,,,,,,,,,,,,,,,,,,,,,,,,,,,,,,,,,,,,,,,,,,,,,,,,,,,,,,,,,,,,,,,,,,,,,,,,,,,,,,,,,,
,,64c9984d3675a555688f3c0f,2024-02-21_21h31.53.686,kallum_motion_pilot,2023.2.2,Win32,59.17159763,64c9984d3675a555688f3c0f,65d6bb0e977760de756971f7,65d6bfce994906782921cde2,0.2201,0.2205,1,19,181,123,1,sixeight,,,,,,,,,,,,,,,,,,,,,,,,,,,,,,,,,,,,,,,,,,,,,,,,,,,,,,,,,,,,,,,,,,,,,,,,,,,,,,,,,,,,,,,,,,,,,,,,,,,,,,,,,,,,,,,,,,,,,,,,,,,,,,,,,,,,,,,,,
,,64c9984d3675a555688f3c0f,2024-02-21_21h31.53.686,kallum_motion_pilot,2023.2.2,Win32,59.17159763,64c9984d3675a555688f3c0f,65d6bb0e977760de756971f7,65d6bfce994906782921cde2,0.2209,0.2214,1,20,182,133,1,seveneight,,,,,,,,,,,,,,,,,,,,,,,,,,,,,,,,,,,,,,,,,,,,,,,,,,,,,,,,,,,,,,,,,,,,,,,,,,,,,,,,,,,,,,,,,,,,,,,,,,,,,,,,,,,,,,,,,,,,,,,,,,,,,,,,,,,,,,,,,
,,64c9984d3675a555688f3c0f,2024-02-21_21h31.53.686,kallum_motion_pilot,2023.2.2,Win32,59.17159763,64c9984d3675a555688f3c0f,65d6bb0e977760de756971f7,65d6bfce994906782921cde2,0.2217,0.222,1,21,183,102,1,eightsix,,,,,,,,,,,,,,,,,,,,,,,,,,,,,,,,,,,,,,,,,,,,,,,,,,,,,,,,,,,,,,,,,,,,,,,,,,,,,,,,,,,,,,,,,,,,,,,,,,,,,,,,,,,,,,,,,,,,,,,,,,,,,,,,,,,,,,,,,
,,64c9984d3675a555688f3c0f,2024-02-21_21h31.53.686,kallum_motion_pilot,2023.2.2,Win32,59.17159763,64c9984d3675a555688f3c0f,65d6bb0e977760de756971f7,65d6bfce994906782921cde2,0.2228,0.2236,1,22,184,152,1,fivesix,,,,,,,,,,,,,,,,,,,,,,,,,,,,,,,,,,,,,,,,,,,,,,,,,,,,,,,,,,,,,,,,,,,,,,,,,,,,,,,,,,,,,,,,,,,,,,,,,,,,,,,,,,,,,,,,,,,,,,,,,,,,,,,,,,,,,,,,,
,,64c9984d3675a555688f3c0f,2024-02-21_21h31.53.686,kallum_motion_pilot,2023.2.2,Win32,59.17159763,64c9984d3675a555688f3c0f,65d6bb0e977760de756971f7,65d6bfce994906782921cde2,0.2244,0.2246,1,23,185,57,1,onethree,,,,,,,,,,,,,,,,,,,,,,,,,,,,,,,,,,,,,,,,,,,,,,,,,,,,,,,,,,,,,,,,,,,,,,,,,,,,,,,,,,,,,,,,,,,,,,,,,,,,,,,,,,,,,,,,,,,,,,,,,,,,,,,,,,,,,,,,,
,,64c9984d3675a555688f3c0f,2024-02-21_21h31.53.686,kallum_motion_pilot,2023.2.2,Win32,59.17159763,64c9984d3675a555688f3c0f,65d6bb0e977760de756971f7,65d6bfce994906782921cde2,0.2253,0.2256,1,24,186,64,1,onetwo,,,,,,,,,,,,,,,,,,,,,,,,,,,,,,,,,,,,,,,,,,,,,,,,,,,,,,,,,,,,,,,,,,,,,,,,,,,,,,,,,,,,,,,,,,,,,,,,,,,,,,,,,,,,,,,,,,,,,,,,,,,,,,,,,,,,,,,,,
,,64c9984d3675a555688f3c0f,2024-02-21_21h31.53.686,kallum_motion_pilot,2023.2.2,Win32,59.17159763,64c9984d3675a555688f3c0f,65d6bb0e977760de756971f7,65d6bfce994906782921cde2,0.2262,0.2265,1,25,187,146,1,sixfive,,,,,,,,,,,,,,,,,,,,,,,,,,,,,,,,,,,,,,,,,,,,,,,,,,,,,,,,,,,,,,,,,,,,,,,,,,,,,,,,,,,,,,,,,,,,,,,,,,,,,,,,,,,,,,,,,,,,,,,,,,,,,,,,,,,,,,,,,
,,64c9984d3675a555688f3c0f,2024-02-21_21h31.53.686,kallum_motion_pilot,2023.2.2,Win32,59.17159763,64c9984d3675a555688f3c0f,65d6bb0e977760de756971f7,65d6bfce994906782921cde2,0.2268,0.2273,1,26,188,134,1,eightsix,,,,,,,,,,,,,,,,,,,,,,,,,,,,,,,,,,,,,,,,,,,,,,,,,,,,,,,,,,,,,,,,,,,,,,,,,,,,,,,,,,,,,,,,,,,,,,,,,,,,,,,,,,,,,,,,,,,,,,,,,,,,,,,,,,,,,,,,,
,,64c9984d3675a555688f3c0f,2024-02-21_21h31.53.686,kallum_motion_pilot,2023.2.2,Win32,59.17159763,64c9984d3675a555688f3c0f,65d6bb0e977760de756971f7,65d6bfce994906782921cde2,0.2277,0.2281,1,27,189,75,1,twofour,,,,,,,,,,,,,,,,,,,,,,,,,,,,,,,,,,,,,,,,,,,,,,,,,,,,,,,,,,,,,,,,,,,,,,,,,,,,,,,,,,,,,,,,,,,,,,,,,,,,,,,,,,,,,,,,,,,,,,,,,,,,,,,,,,,,,,,,,
,,64c9984d3675a555688f3c0f,2024-02-21_21h31.53.686,kallum_motion_pilot,2023.2.2,Win32,59.17159763,64c9984d3675a555688f3c0f,65d6bb0e977760de756971f7,65d6bfce994906782921cde2,0.2285,0.2289,1,28,190,59,1,twofour,,,,,,,,,,,,,,,,,,,,,,,,,,,,,,,,,,,,,,,,,,,,,,,,,,,,,,,,,,,,,,,,,,,,,,,,,,,,,,,,,,,,,,,,,,,,,,,,,,,,,,,,,,,,,,,,,,,,,,,,,,,,,,,,,,,,,,,,,
,,64c9984d3675a555688f3c0f,2024-02-21_21h31.53.686,kallum_motion_pilot,2023.2.2,Win32,59.17159763,64c9984d3675a555688f3c0f,65d6bb0e977760de756971f7,65d6bfce994906782921cde2,0.2295,0.2299,1,29,191,114,1,sixfive,,,,,,,,,,,,,,,,,,,,,,,,,,,,,,,,,,,,,,,,,,,,,,,,,,,,,,,,,,,,,,,,,,,,,,,,,,,,,,,,,,,,,,,,,,,,,,,,,,,,,,,,,,,,,,,,,,,,,,,,,,,,,,,,,,,,,,,,,
,,64c9984d3675a555688f3c0f,2024-02-21_21h31.53.686,kallum_motion_pilot,2023.2.2,Win32,59.17159763,64c9984d3675a555688f3c0f,65d6bb0e977760de756971f7,65d6bfce994906782921cde2,0.2304,0.2308,1,30,192,37,1,threefour,,,,,,,,,,,,,,,,,,,,,,,,,,,,,,,,,,,,,,,,,,,,,,,,,,,,,,,,,,,,,,,,,,,,,,,,,,,,,,,,,,,,,,,,,,,,,,,,,,,,,,,,,,,,,,,,,,,,,,,,,,,,,,,,,,,,,,,,,
,,64c9984d3675a555688f3c0f,2024-02-21_21h31.53.686,kallum_motion_pilot,2023.2.2,Win32,59.17159763,64c9984d3675a555688f3c0f,65d6bb0e977760de756971f7,65d6bfce994906782921cde2,0.2314,0.2317,1,31,193,7,1,fourthree,,,,,,,,,,,,,,,,,,,,,,,,,,,,,,,,,,,,,,,,,,,,,,,,,,,,,,,,,,,,,,,,,,,,,,,,,,,,,,,,,,,,,,,,,,,,,,,,,,,,,,,,,,,,,,,,,,,,,,,,,,,,,,,,,,,,,,,,,
,,64c9984d3675a555688f3c0f,2024-02-21_21h31.53.686,kallum_motion_pilot,2023.2.2,Win32,59.17159763,64c9984d3675a555688f3c0f,65d6bb0e977760de756971f7,65d6bfce994906782921cde2,0.2331,0.2336,1,32,194,73,1,onethree,,,,,,,,,,,,,,,,,,,,,,,,,,,,,,,,,,,,,,,,,,,,,,,,,,,,,,,,,,,,,,,,,,,,,,,,,,,,,,,,,,,,,,,,,,,,,,,,,,,,,,,,,,,,,,,,,,,,,,,,,,,,,,,,,,,,,,,,,
,,64c9984d3675a555688f3c0f,2024-02-21_21h31.53.686,kallum_motion_pilot,2023.2.2,Win32,59.17159763,64c9984d3675a555688f3c0f,65d6bb0e977760de756971f7,65d6bfce994906782921cde2,0.2342,0.2347,1,33,195,42,1,twoone,,,,,,,,,,,,,,,,,,,,,,,,,,,,,,,,,,,,,,,,,,,,,,,,,,,,,,,,,,,,,,,,,,,,,,,,,,,,,,,,,,,,,,,,,,,,,,,,,,,,,,,,,,,,,,,,,,,,,,,,,,,,,,,,,,,,,,,,,
,,64c9984d3675a555688f3c0f,2024-02-21_21h31.53.686,kallum_motion_pilot,2023.2.2,Win32,59.17159763,64c9984d3675a555688f3c0f,65d6bb0e977760de756971f7,65d6bfce994906782921cde2,0.2356,0.236,1,34,196,131,1,sixeight,,,,,,,,,,,,,,,,,,,,,,,,,,,,,,,,,,,,,,,,,,,,,,,,,,,,,,,,,,,,,,,,,,,,,,,,,,,,,,,,,,,,,,,,,,,,,,,,,,,,,,,,,,,,,,,,,,,,,,,,,,,,,,,,,,,,,,,,,
,,64c9984d3675a555688f3c0f,2024-02-21_21h31.53.686,kallum_motion_pilot,2023.2.2,Win32,59.17159763,64c9984d3675a555688f3c0f,65d6bb0e977760de756971f7,65d6bfce994906782921cde2,0.2367,0.237,1,35,197,95,1,eightseven,,,,,,,,,,,,,,,,,,,,,,,,,,,,,,,,,,,,,,,,,,,,,,,,,,,,,,,,,,,,,,,,,,,,,,,,,,,,,,,,,,,,,,,,,,,,,,,,,,,,,,,,,,,,,,,,,,,,,,,,,,,,,,,,,,,,,,,,,
,,64c9984d3675a555688f3c0f,2024-02-21_21h31.53.686,kallum_motion_pilot,2023.2.2,Win32,59.17159763,64c9984d3675a555688f3c0f,65d6bb0e977760de756971f7,65d6bfce994906782921cde2,0.2376,0.238,1,36,198,147,1,sixeight,,,,,,,,,,,,,,,,,,,,,,,,,,,,,,,,,,,,,,,,,,,,,,,,,,,,,,,,,,,,,,,,,,,,,,,,,,,,,,,,,,,,,,,,,,,,,,,,,,,,,,,,,,,,,,,,,,,,,,,,,,,,,,,,,,,,,,,,,
,,64c9984d3675a555688f3c0f,2024-02-21_21h31.53.686,kallum_motion_pilot,2023.2.2,Win32,59.17159763,64c9984d3675a555688f3c0f,65d6bb0e977760de756971f7,65d6bfce994906782921cde2,0.2384,0.2388,1,37,199,120,1,fivesix,,,,,,,,,,,,,,,,,,,,,,,,,,,,,,,,,,,,,,,,,,,,,,,,,,,,,,,,,,,,,,,,,,,,,,,,,,,,,,,,,,,,,,,,,,,,,,,,,,,,,,,,,,,,,,,,,,,,,,,,,,,,,,,,,,,,,,,,,
,,64c9984d3675a555688f3c0f,2024-02-21_21h31.53.686,kallum_motion_pilot,2023.2.2,Win32,59.17159763,64c9984d3675a555688f3c0f,65d6bb0e977760de756971f7,65d6bfce994906782921cde2,0.2396,0.2399,1,38,200,148,1,sevenfive,,,,,,,,,,,,,,,,,,,,,,,,,,,,,,,,,,,,,,,,,,,,,,,,,,,,,,,,,,,,,,,,,,,,,,,,,,,,,,,,,,,,,,,,,,,,,,,,,,,,,,,,,,,,,,,,,,,,,,,,,,,,,,,,,,,,,,,,,
,,64c9984d3675a555688f3c0f,2024-02-21_21h31.53.686,kallum_motion_pilot,2023.2.2,Win32,59.17159763,64c9984d3675a555688f3c0f,65d6bb0e977760de756971f7,65d6bfce994906782921cde2,0.2405,0.2408,1,39,201,105,1,fiveseven,,,,,,,,,,,,,,,,,,,,,,,,,,,,,,,,,,,,,,,,,,,,,,,,,,,,,,,,,,,,,,,,,,,,,,,,,,,,,,,,,,,,,,,,,,,,,,,,,,,,,,,,,,,,,,,,,,,,,,,,,,,,,,,,,,,,,,,,,
,,64c9984d3675a555688f3c0f,2024-02-21_21h31.53.686,kallum_motion_pilot,2023.2.2,Win32,59.17159763,64c9984d3675a555688f3c0f,65d6bb0e977760de756971f7,65d6bfce994906782921cde2,0.2414,0.2418,1,40,202,85,1,seveneight,,,,,,,,,,,,,,,,,,,,,,,,,,,,,,,,,,,,,,,,,,,,,,,,,,,,,,,,,,,,,,,,,,,,,,,,,,,,,,,,,,,,,,,,,,,,,,,,,,,,,,,,,,,,,,,,,,,,,,,,,,,,,,,,,,,,,,,,,
,,64c9984d3675a555688f3c0f,2024-02-21_21h31.53.686,kallum_motion_pilot,2023.2.2,Win32,59.17159763,64c9984d3675a555688f3c0f,65d6bb0e977760de756971f7,65d6bfce994906782921cde2,0.2422,0.243,1,41,203,158,1,eightsix,,,,,,,,,,,,,,,,,,,,,,,,,,,,,,,,,,,,,,,,,,,,,,,,,,,,,,,,,,,,,,,,,,,,,,,,,,,,,,,,,,,,,,,,,,,,,,,,,,,,,,,,,,,,,,,,,,,,,,,,,,,,,,,,,,,,,,,,,
,,64c9984d3675a555688f3c0f,2024-02-21_21h31.53.686,kallum_motion_pilot,2023.2.2,Win32,59.17159763,64c9984d3675a555688f3c0f,65d6bb0e977760de756971f7,65d6bfce994906782921cde2,0.2435,0.2439,1,42,204,144,1,fivesix,,,,,,,,,,,,,,,,,,,,,,,,,,,,,,,,,,,,,,,,,,,,,,,,,,,,,,,,,,,,,,,,,,,,,,,,,,,,,,,,,,,,,,,,,,,,,,,,,,,,,,,,,,,,,,,,,,,,,,,,,,,,,,,,,,,,,,,,,
,,64c9984d3675a555688f3c0f,2024-02-21_21h31.53.686,kallum_motion_pilot,2023.2.2,Win32,59.17159763,64c9984d3675a555688f3c0f,65d6bb0e977760de756971f7,65d6bfce994906782921cde2,0.2442,0.2447,1,43,205,87,1,eightseven,,,,,,,,,,,,,,,,,,,,,,,,,,,,,,,,,,,,,,,,,,,,,,,,,,,,,,,,,,,,,,,,,,,,,,,,,,,,,,,,,,,,,,,,,,,,,,,,,,,,,,,,,,,,,,,,,,,,,,,,,,,,,,,,,,,,,,,,,
,,64c9984d3675a555688f3c0f,2024-02-21_21h31.53.686,kallum_motion_pilot,2023.2.2,Win32,59.17159763,64c9984d3675a555688f3c0f,65d6bb0e977760de756971f7,65d6bfce994906782921cde2,0.245,0.2455,1,44,206,19,1,twofour,,,,,,,,,,,,,,,,,,,,,,,,,,,,,,,,,,,,,,,,,,,,,,,,,,,,,,,,,,,,,,,,,,,,,,,,,,,,,,,,,,,,,,,,,,,,,,,,,,,,,,,,,,,,,,,,,,,,,,,,,,,,,,,,,,,,,,,,,
,,64c9984d3675a555688f3c0f,2024-02-21_21h31.53.686,kallum_motion_pilot,2023.2.2,Win32,59.17159763,64c9984d3675a555688f3c0f,65d6bb0e977760de756971f7,65d6bfce994906782921cde2,0.2458,0.2463,1,45,207,126,1,eightsix,,,,,,,,,,,,,,,,,,,,,,,,,,,,,,,,,,,,,,,,,,,,,,,,,,,,,,,,,,,,,,,,,,,,,,,,,,,,,,,,,,,,,,,,,,,,,,,,,,,,,,,,,,,,,,,,,,,,,,,,,,,,,,,,,,,,,,,,,
,,64c9984d3675a555688f3c0f,2024-02-21_21h31.53.686,kallum_motion_pilot,2023.2.2,Win32,59.17159763,64c9984d3675a555688f3c0f,65d6bb0e977760de756971f7,65d6bfce994906782921cde2,0.2466,0.2472,1,46,208,129,1,fiveseven,,,,,,,,,,,,,,,,,,,,,,,,,,,,,,,,,,,,,,,,,,,,,,,,,,,,,,,,,,,,,,,,,,,,,,,,,,,,,,,,,,,,,,,,,,,,,,,,,,,,,,,,,,,,,,,,,,,,,,,,,,,,,,,,,,,,,,,,,
,,64c9984d3675a555688f3c0f,2024-02-21_21h31.53.686,kallum_motion_pilot,2023.2.2,Win32,59.17159763,64c9984d3675a555688f3c0f,65d6bb0e977760de756971f7,65d6bfce994906782921cde2,0.2477,0.2481,1,47,209,13,1,threefour,,,,,,,,,,,,,,,,,,,,,,,,,,,,,,,,,,,,,,,,,,,,,,,,,,,,,,,,,,,,,,,,,,,,,,,,,,,,,,,,,,,,,,,,,,,,,,,,,,,,,,,,,,,,,,,,,,,,,,,,,,,,,,,,,,,,,,,,,
,,64c9984d3675a555688f3c0f,2024-02-21_21h31.53.686,kallum_motion_pilot,2023.2.2,Win32,59.17159763,64c9984d3675a555688f3c0f,65d6bb0e977760de756971f7,65d6bfce994906782921cde2,0.2484,0.2488,1,48,210,22,1,fourtwo,,,,,,,,,,,,,,,,,,,,,,,,,,,,,,,,,,,,,,,,,,,,,,,,,,,,,,,,,,,,,,,,,,,,,,,,,,,,,,,,,,,,,,,,,,,,,,,,,,,,,,,,,,,,,,,,,,,,,,,,,,,,,,,,,,,,,,,,,
,,64c9984d3675a555688f3c0f,2024-02-21_21h31.53.686,kallum_motion_pilot,2023.2.2,Win32,59.17159763,64c9984d3675a555688f3c0f,65d6bb0e977760de756971f7,65d6bfce994906782921cde2,0.25,0.2502,1,49,211,61,1,threefour,,,,,,,,,,,,,,,,,,,,,,,,,,,,,,,,,,,,,,,,,,,,,,,,,,,,,,,,,,,,,,,,,,,,,,,,,,,,,,,,,,,,,,,,,,,,,,,,,,,,,,,,,,,,,,,,,,,,,,,,,,,,,,,,,,,,,,,,,
,,64c9984d3675a555688f3c0f,2024-02-21_21h31.53.686,kallum_motion_pilot,2023.2.2,Win32,59.17159763,64c9984d3675a555688f3c0f,65d6bb0e977760de756971f7,65d6bfce994906782921cde2,0.2508,0.2512,1,50,212,128,1,fivesix,,,,,,,,,,,,,,,,,,,,,,,,,,,,,,,,,,,,,,,,,,,,,,,,,,,,,,,,,,,,,,,,,,,,,,,,,,,,,,,,,,,,,,,,,,,,,,,,,,,,,,,,,,,,,,,,,,,,,,,,,,,,,,,,,,,,,,,,,
,,64c9984d3675a555688f3c0f,2024-02-21_21h31.53.686,kallum_motion_pilot,2023.2.2,Win32,59.17159763,64c9984d3675a555688f3c0f,65d6bb0e977760de756971f7,65d6bfce994906782921cde2,0.2517,0.2521,1,51,213,44,1,threeone,,,,,,,,,,,,,,,,,,,,,,,,,,,,,,,,,,,,,,,,,,,,,,,,,,,,,,,,,,,,,,,,,,,,,,,,,,,,,,,,,,,,,,,,,,,,,,,,,,,,,,,,,,,,,,,,,,,,,,,,,,,,,,,,,,,,,,,,,
,,64c9984d3675a555688f3c0f,2024-02-21_21h31.53.686,kallum_motion_pilot,2023.2.2,Win32,59.17159763,64c9984d3675a555688f3c0f,65d6bb0e977760de756971f7,65d6bfce994906782921cde2,0.2528,0.2533,1,52,214,54,1,fourtwo,,,,,,,,,,,,,,,,,,,,,,,,,,,,,,,,,,,,,,,,,,,,,,,,,,,,,,,,,,,,,,,,,,,,,,,,,,,,,,,,,,,,,,,,,,,,,,,,,,,,,,,,,,,,,,,,,,,,,,,,,,,,,,,,,,,,,,,,,
,,64c9984d3675a555688f3c0f,2024-02-21_21h31.53.686,kallum_motion_pilot,2023.2.2,Win32,59.17159763,64c9984d3675a555688f3c0f,65d6bb0e977760de756971f7,65d6bfce994906782921cde2,0.2537,0.2542,1,53,215,8,1,onetwo,,,,,,,,,,,,,,,,,,,,,,,,,,,,,,,,,,,,,,,,,,,,,,,,,,,,,,,,,,,,,,,,,,,,,,,,,,,,,,,,,,,,,,,,,,,,,,,,,,,,,,,,,,,,,,,,,,,,,,,,,,,,,,,,,,,,,,,,,
,,64c9984d3675a555688f3c0f,2024-02-21_21h31.53.686,kallum_motion_pilot,2023.2.2,Win32,59.17159763,64c9984d3675a555688f3c0f,65d6bb0e977760de756971f7,65d6bfce994906782921cde2,0.2547,0.2553,1,54,216,17,1,onethree,,,,,,,,,,,,,,,,,,,,,,,,,,,,,,,,,,,,,,,,,,,,,,,,,,,,,,,,,,,,,,,,,,,,,,,,,,,,,,,,,,,,,,,,,,,,,,,,,,,,,,,,,,,,,,,,,,,,,,,,,,,,,,,,,,,,,,,,,
,,64c9984d3675a555688f3c0f,2024-02-21_21h31.53.686,kallum_motion_pilot,2023.2.2,Win32,59.17159763,64c9984d3675a555688f3c0f,65d6bb0e977760de756971f7,65d6bfce994906782921cde2,0.2563,0.2566,1,55,217,96,1,fivesix,,,,,,,,,,,,,,,,,,,,,,,,,,,,,,,,,,,,,,,,,,,,,,,,,,,,,,,,,,,,,,,,,,,,,,,,,,,,,,,,,,,,,,,,,,,,,,,,,,,,,,,,,,,,,,,,,,,,,,,,,,,,,,,,,,,,,,,,,
,,64c9984d3675a555688f3c0f,2024-02-21_21h31.53.686,kallum_motion_pilot,2023.2.2,Win32,59.17159763,64c9984d3675a555688f3c0f,65d6bb0e977760de756971f7,65d6bfce994906782921cde2,0.2571,0.2574,1,56,218,29,1,threefour,,,,,,,,,,,,,,,,,,,,,,,,,,,,,,,,,,,,,,,,,,,,,,,,,,,,,,,,,,,,,,,,,,,,,,,,,,,,,,,,,,,,,,,,,,,,,,,,,,,,,,,,,,,,,,,,,,,,,,,,,,,,,,,,,,,,,,,,,
,,64c9984d3675a555688f3c0f,2024-02-21_21h31.53.686,kallum_motion_pilot,2023.2.2,Win32,59.17159763,64c9984d3675a555688f3c0f,65d6bb0e977760de756971f7,65d6bfce994906782921cde2,0.258,0.2583,1,57,219,52,1,threeone,,,,,,,,,,,,,,,,,,,,,,,,,,,,,,,,,,,,,,,,,,,,,,,,,,,,,,,,,,,,,,,,,,,,,,,,,,,,,,,,,,,,,,,,,,,,,,,,,,,,,,,,,,,,,,,,,,,,,,,,,,,,,,,,,,,,,,,,,
,,64c9984d3675a555688f3c0f,2024-02-21_21h31.53.686,kallum_motion_pilot,2023.2.2,Win32,59.17159763,64c9984d3675a555688f3c0f,65d6bb0e977760de756971f7,65d6bfce994906782921cde2,0.2588,0.2592,1,58,220,151,1,eightseven,,,,,,,,,,,,,,,,,,,,,,,,,,,,,,,,,,,,,,,,,,,,,,,,,,,,,,,,,,,,,,,,,,,,,,,,,,,,,,,,,,,,,,,,,,,,,,,,,,,,,,,,,,,,,,,,,,,,,,,,,,,,,,,,,,,,,,,,,
,,64c9984d3675a555688f3c0f,2024-02-21_21h31.53.686,kallum_motion_pilot,2023.2.2,Win32,59.17159763,64c9984d3675a555688f3c0f,65d6bb0e977760de756971f7,65d6bfce994906782921cde2,0.2598,0.2601,1,59,221,97,1,fiveseven,,,,,,,,,,,,,,,,,,,,,,,,,,,,,,,,,,,,,,,,,,,,,,,,,,,,,,,,,,,,,,,,,,,,,,,,,,,,,,,,,,,,,,,,,,,,,,,,,,,,,,,,,,,,,,,,,,,,,,,,,,,,,,,,,,,,,,,,,
,,64c9984d3675a555688f3c0f,2024-02-21_21h31.53.686,kallum_motion_pilot,2023.2.2,Win32,59.17159763,64c9984d3675a555688f3c0f,65d6bb0e977760de756971f7,65d6bfce994906782921cde2,0.2606,0.261,1,60,222,27,1,twofour,,,,,,,,,,,,,,,,,,,,,,,,,,,,,,,,,,,,,,,,,,,,,,,,,,,,,,,,,,,,,,,,,,,,,,,,,,,,,,,,,,,,,,,,,,,,,,,,,,,,,,,,,,,,,,,,,,,,,,,,,,,,,,,,,,,,,,,,,
,,64c9984d3675a555688f3c0f,2024-02-21_21h31.53.686,kallum_motion_pilot,2023.2.2,Win32,59.17159763,64c9984d3675a555688f3c0f,65d6bb0e977760de756971f7,65d6bfce994906782921cde2,0.2615,0.2619,1,61,223,53,1,threefour,,,,,,,,,,,,,,,,,,,,,,,,,,,,,,,,,,,,,,,,,,,,,,,,,,,,,,,,,,,,,,,,,,,,,,,,,,,,,,,,,,,,,,,,,,,,,,,,,,,,,,,,,,,,,,,,,,,,,,,,,,,,,,,,,,,,,,,,,
,,64c9984d3675a555688f3c0f,2024-02-21_21h31.53.686,kallum_motion_pilot,2023.2.2,Win32,59.17159763,64c9984d3675a555688f3c0f,65d6bb0e977760de756971f7,65d6bfce994906782921cde2,0.2629,0.2631,1,62,224,159,1,eightseven,,,,,,,,,,,,,,,,,,,,,,,,,,,,,,,,,,,,,,,,,,,,,,,,,,,,,,,,,,,,,,,,,,,,,,,,,,,,,,,,,,,,,,,,,,,,,,,,,,,,,,,,,,,,,,,,,,,,,,,,,,,,,,,,,,,,,,,,,
,,64c9984d3675a555688f3c0f,2024-02-21_21h31.53.686,kallum_motion_pilot,2023.2.2,Win32,59.17159763,64c9984d3675a555688f3c0f,65d6bb0e977760de756971f7,65d6bfce994906782921cde2,0.2637,0.264,1,63,225,70,1,fourtwo,,,,,,,,,,,,,,,,,,,,,,,,,,,,,,,,,,,,,,,,,,,,,,,,,,,,,,,,,,,,,,,,,,,,,,,,,,,,,,,,,,,,,,,,,,,,,,,,,,,,,,,,,,,,,,,,,,,,,,,,,,,,,,,,,,,,,,,,,
,,64c9984d3675a555688f3c0f,2024-02-21_21h31.53.686,kallum_motion_pilot,2023.2.2,Win32,59.17159763,64c9984d3675a555688f3c0f,65d6bb0e977760de756971f7,65d6bfce994906782921cde2,0.2646,0.2649,1,64,226,36,1,threeone,,,,,,,,,,,,,,,,,,,,,,,,,,,,,,,,,,,,,,,,,,,,,,,,,,,,,,,,,,,,,,,,,,,,,,,,,,,,,,,,,,,,,,,,,,,,,,,,,,,,,,,,,,,,,,,,,,,,,,,,,,,,,,,,,,,,,,,,,
,,64c9984d3675a555688f3c0f,2024-02-21_21h31.53.686,kallum_motion_pilot,2023.2.2,Win32,59.17159763,64c9984d3675a555688f3c0f,65d6bb0e977760de756971f7,65d6bfce994906782921cde2,0.2655,0.2665,1,65,227,76,1,threeone,,,,,,,,,,,,,,,,,,,,,,,,,,,,,,,,,,,,,,,,,,,,,,,,,,,,,,,,,,,,,,,,,,,,,,,,,,,,,,,,,,,,,,,,,,,,,,,,,,,,,,,,,,,,,,,,,,,,,,,,,,,,,,,,,,,,,,,,,
,,64c9984d3675a555688f3c0f,2024-02-21_21h31.53.686,kallum_motion_pilot,2023.2.2,Win32,59.17159763,64c9984d3675a555688f3c0f,65d6bb0e977760de756971f7,65d6bfce994906782921cde2,0.2669,0.2674,1,66,228,115,1,sixeight,,,,,,,,,,,,,,,,,,,,,,,,,,,,,,,,,,,,,,,,,,,,,,,,,,,,,,,,,,,,,,,,,,,,,,,,,,,,,,,,,,,,,,,,,,,,,,,,,,,,,,,,,,,,,,,,,,,,,,,,,,,,,,,,,,,,,,,,,
,,64c9984d3675a555688f3c0f,2024-02-21_21h31.53.686,kallum_motion_pilot,2023.2.2,Win32,59.17159763,64c9984d3675a555688f3c0f,65d6bb0e977760de756971f7,65d6bfce994906782921cde2,0.2678,0.2683,1,67,229,1,1,onethree,,,,,,,,,,,,,,,,,,,,,,,,,,,,,,,,,,,,,,,,,,,,,,,,,,,,,,,,,,,,,,,,,,,,,,,,,,,,,,,,,,,,,,,,,,,,,,,,,,,,,,,,,,,,,,,,,,,,,,,,,,,,,,,,,,,,,,,,,
,,64c9984d3675a555688f3c0f,2024-02-21_21h31.53.686,kallum_motion_pilot,2023.2.2,Win32,59.17159763,64c9984d3675a555688f3c0f,65d6bb0e977760de756971f7,65d6bfce994906782921cde2,0.2688,0.2691,1,68,230,28,1,threeone,,,,,,,,,,,,,,,,,,,,,,,,,,,,,,,,,,,,,,,,,,,,,,,,,,,,,,,,,,,,,,,,,,,,,,,,,,,,,,,,,,,,,,,,,,,,,,,,,,,,,,,,,,,,,,,,,,,,,,,,,,,,,,,,,,,,,,,,,
,,64c9984d3675a555688f3c0f,2024-02-21_21h31.53.686,kallum_motion_pilot,2023.2.2,Win32,59.17159763,64c9984d3675a555688f3c0f,65d6bb0e977760de756971f7,65d6bfce994906782921cde2,0.2697,0.27,1,69,231,41,1,onethree,,,,,,,,,,,,,,,,,,,,,,,,,,,,,,,,,,,,,,,,,,,,,,,,,,,,,,,,,,,,,,,,,,,,,,,,,,,,,,,,,,,,,,,,,,,,,,,,,,,,,,,,,,,,,,,,,,,,,,,,,,,,,,,,,,,,,,,,,
,,64c9984d3675a555688f3c0f,2024-02-21_21h31.53.686,kallum_motion_pilot,2023.2.2,Win32,59.17159763,64c9984d3675a555688f3c0f,65d6bb0e977760de756971f7,65d6bfce994906782921cde2,0.2705,0.2709,1,70,232,62,1,fourtwo,,,,,,,,,,,,,,,,,,,,,,,,,,,,,,,,,,,,,,,,,,,,,,,,,,,,,,,,,,,,,,,,,,,,,,,,,,,,,,,,,,,,,,,,,,,,,,,,,,,,,,,,,,,,,,,,,,,,,,,,,,,,,,,,,,,,,,,,,
,,64c9984d3675a555688f3c0f,2024-02-21_21h31.53.686,kallum_motion_pilot,2023.2.2,Win32,59.17159763,64c9984d3675a555688f3c0f,65d6bb0e977760de756971f7,65d6bfce994906782921cde2,0.2721,0.2728,1,71,233,66,1,twoone,,,,,,,,,,,,,,,,,,,,,,,,,,,,,,,,,,,,,,,,,,,,,,,,,,,,,,,,,,,,,,,,,,,,,,,,,,,,,,,,,,,,,,,,,,,,,,,,,,,,,,,,,,,,,,,,,,,,,,,,,,,,,,,,,,,,,,,,,
,,64c9984d3675a555688f3c0f,2024-02-21_21h31.53.686,kallum_motion_pilot,2023.2.2,Win32,59.17159763,64c9984d3675a555688f3c0f,65d6bb0e977760de756971f7,65d6bfce994906782921cde2,0.2734,0.2738,1,72,234,100,1,sevenfive,,,,,,,,,,,,,,,,,,,,,,,,,,,,,,,,,,,,,,,,,,,,,,,,,,,,,,,,,,,,,,,,,,,,,,,,,,,,,,,,,,,,,,,,,,,,,,,,,,,,,,,,,,,,,,,,,,,,,,,,,,,,,,,,,,,,,,,,,
,,64c9984d3675a555688f3c0f,2024-02-21_21h31.53.686,kallum_motion_pilot,2023.2.2,Win32,59.17159763,64c9984d3675a555688f3c0f,65d6bb0e977760de756971f7,65d6bfce994906782921cde2,0.2743,0.2747,1,73,235,137,1,fiveseven,,,,,,,,,,,,,,,,,,,,,,,,,,,,,,,,,,,,,,,,,,,,,,,,,,,,,,,,,,,,,,,,,,,,,,,,,,,,,,,,,,,,,,,,,,,,,,,,,,,,,,,,,,,,,,,,,,,,,,,,,,,,,,,,,,,,,,,,,
,,64c9984d3675a555688f3c0f,2024-02-21_21h31.53.686,kallum_motion_pilot,2023.2.2,Win32,59.17159763,64c9984d3675a555688f3c0f,65d6bb0e977760de756971f7,65d6bfce994906782921cde2,0.2753,0.2755,1,74,236,143,1,eightseven,,,,,,,,,,,,,,,,,,,,,,,,,,,,,,,,,,,,,,,,,,,,,,,,,,,,,,,,,,,,,,,,,,,,,,,,,,,,,,,,,,,,,,,,,,,,,,,,,,,,,,,,,,,,,,,,,,,,,,,,,,,,,,,,,,,,,,,,,
,,64c9984d3675a555688f3c0f,2024-02-21_21h31.53.686,kallum_motion_pilot,2023.2.2,Win32,59.17159763,64c9984d3675a555688f3c0f,65d6bb0e977760de756971f7,65d6bfce994906782921cde2,0.2762,0.2765,1,75,237,15,1,fourthree,,,,,,,,,,,,,,,,,,,,,,,,,,,,,,,,,,,,,,,,,,,,,,,,,,,,,,,,,,,,,,,,,,,,,,,,,,,,,,,,,,,,,,,,,,,,,,,,,,,,,,,,,,,,,,,,,,,,,,,,,,,,,,,,,,,,,,,,,
,,64c9984d3675a555688f3c0f,2024-02-21_21h31.53.686,kallum_motion_pilot,2023.2.2,Win32,59.17159763,64c9984d3675a555688f3c0f,65d6bb0e977760de756971f7,65d6bfce994906782921cde2,0.277,0.2773,1,76,238,122,1,sixfive,,,,,,,,,,,,,,,,,,,,,,,,,,,,,,,,,,,,,,,,,,,,,,,,,,,,,,,,,,,,,,,,,,,,,,,,,,,,,,,,,,,,,,,,,,,,,,,,,,,,,,,,,,,,,,,,,,,,,,,,,,,,,,,,,,,,,,,,,
,,64c9984d3675a555688f3c0f,2024-02-21_21h31.53.686,kallum_motion_pilot,2023.2.2,Win32,59.17159763,64c9984d3675a555688f3c0f,65d6bb0e977760de756971f7,65d6bfce994906782921cde2,0.2779,0.2782,1,77,239,88,1,fivesix,,,,,,,,,,,,,,,,,,,,,,,,,,,,,,,,,,,,,,,,,,,,,,,,,,,,,,,,,,,,,,,,,,,,,,,,,,,,,,,,,,,,,,,,,,,,,,,,,,,,,,,,,,,,,,,,,,,,,,,,,,,,,,,,,,,,,,,,,
,,64c9984d3675a555688f3c0f,2024-02-21_21h31.53.686,kallum_motion_pilot,2023.2.2,Win32,59.17159763,64c9984d3675a555688f3c0f,65d6bb0e977760de756971f7,65d6bfce994906782921cde2,0.2788,0.2791,1,78,240,79,1,eightseven,,,,,,,,,,,,,,,,,,,,,,,,,,,,,,,,,,,,,,,,,,,,,,,,,,,,,,,,,,,,,,,,,,,,,,,,,,,,,,,,,,,,,,,,,,,,,,,,,,,,,,,,,,,,,,,,,,,,,,,,,,,,,,,,,,,,,,,,,
,,64c9984d3675a555688f3c0f,2024-02-21_21h31.53.686,kallum_motion_pilot,2023.2.2,Win32,59.17159763,64c9984d3675a555688f3c0f,65d6bb0e977760de756971f7,65d6bfce994906782921cde2,0.2797,0.28,1,79,241,124,1,sevenfive,,,,,,,,,,,,,,,,,,,,,,,,,,,,,,,,,,,,,,,,,,,,,,,,,,,,,,,,,,,,,,,,,,,,,,,,,,,,,,,,,,,,,,,,,,,,,,,,,,,,,,,,,,,,,,,,,,,,,,,,,,,,,,,,,,,,,,,,,
,,64c9984d3675a555688f3c0f,2024-02-21_21h31.53.686,kallum_motion_pilot,2023.2.2,Win32,59.17159763,64c9984d3675a555688f3c0f,65d6bb0e977760de756971f7,65d6bfce994906782921cde2,0.2805,0.2808,1,80,242,154,1,sixfive,,,,,,,,,,,,,,,,,,,,,,,,,,,,,,,,,,,,,,,,,,,,,,,,,,,,,,,,,,,,,,,,,,,,,,,,,,,,,,,,,,,,,,,,,,,,,,,,,,,,,,,,,,,,,,,,,,,,,,,,,,,,,,,,,,,,,,,,,
,,64c9984d3675a555688f3c0f,2024-02-21_21h31.53.686,kallum_motion_pilot,2023.2.2,Win32,59.17159763,64c9984d3675a555688f3c0f,65d6bb0e977760de756971f7,65d6bfce994906782921cde2,0.2814,0.2818,1,81,243,155,1,sixeight,,,,,,,,,,,,,,,,,,,,,,,,,,,,,,,,,,,,,,,,,,,,,,,,,,,,,,,,,,,,,,,,,,,,,,,,,,,,,,,,,,,,,,,,,,,,,,,,,,,,,,,,,,,,,,,,,,,,,,,,,,,,,,,,,,,,,,,,,
,,64c9984d3675a555688f3c0f,2024-02-21_21h31.53.686,kallum_motion_pilot,2023.2.2,Win32,59.17159763,64c9984d3675a555688f3c0f,65d6bb0e977760de756971f7,65d6bfce994906782921cde2,0.2823,0.2835,1,82,244,56,1,onetwo,,,,,,,,,,,,,,,,,,,,,,,,,,,,,,,,,,,,,,,,,,,,,,,,,,,,,,,,,,,,,,,,,,,,,,,,,,,,,,,,,,,,,,,,,,,,,,,,,,,,,,,,,,,,,,,,,,,,,,,,,,,,,,,,,,,,,,,,,
,,64c9984d3675a555688f3c0f,2024-02-21_21h31.53.686,kallum_motion_pilot,2023.2.2,Win32,59.17159763,64c9984d3675a555688f3c0f,65d6bb0e977760de756971f7,65d6bfce994906782921cde2,0.2841,0.2845,1,83,245,112,1,fivesix,,,,,,,,,,,,,,,,,,,,,,,,,,,,,,,,,,,,,,,,,,,,,,,,,,,,,,,,,,,,,,,,,,,,,,,,,,,,,,,,,,,,,,,,,,,,,,,,,,,,,,,,,,,,,,,,,,,,,,,,,,,,,,,,,,,,,,,,,
,,64c9984d3675a555688f3c0f,2024-02-21_21h31.53.686,kallum_motion_pilot,2023.2.2,Win32,59.17159763,64c9984d3675a555688f3c0f,65d6bb0e977760de756971f7,65d6bfce994906782921cde2,0.285,0.2854,1,84,246,6,1,fourtwo,,,,,,,,,,,,,,,,,,,,,,,,,,,,,,,,,,,,,,,,,,,,,,,,,,,,,,,,,,,,,,,,,,,,,,,,,,,,,,,,,,,,,,,,,,,,,,,,,,,,,,,,,,,,,,,,,,,,,,,,,,,,,,,,,,,,,,,,,
,,64c9984d3675a555688f3c0f,2024-02-21_21h31.53.686,kallum_motion_pilot,2023.2.2,Win32,59.17159763,64c9984d3675a555688f3c0f,65d6bb0e977760de756971f7,65d6bfce994906782921cde2,0.286,0.2863,1,85,247,24,1,onetwo,,,,,,,,,,,,,,,,,,,,,,,,,,,,,,,,,,,,,,,,,,,,,,,,,,,,,,,,,,,,,,,,,,,,,,,,,,,,,,,,,,,,,,,,,,,,,,,,,,,,,,,,,,,,,,,,,,,,,,,,,,,,,,,,,,,,,,,,,
,,64c9984d3675a555688f3c0f,2024-02-21_21h31.53.686,kallum_motion_pilot,2023.2.2,Win32,59.17159763,64c9984d3675a555688f3c0f,65d6bb0e977760de756971f7,65d6bfce994906782921cde2,0.2868,0.2873,1,86,248,145,1,fiveseven,,,,,,,,,,,,,,,,,,,,,,,,,,,,,,,,,,,,,,,,,,,,,,,,,,,,,,,,,,,,,,,,,,,,,,,,,,,,,,,,,,,,,,,,,,,,,,,,,,,,,,,,,,,,,,,,,,,,,,,,,,,,,,,,,,,,,,,,,
,,64c9984d3675a555688f3c0f,2024-02-21_21h31.53.686,kallum_motion_pilot,2023.2.2,Win32,59.17159763,64c9984d3675a555688f3c0f,65d6bb0e977760de756971f7,65d6bfce994906782921cde2,0.2878,0.2881,1,87,249,117,1,seveneight,,,,,,,,,,,,,,,,,,,,,,,,,,,,,,,,,,,,,,,,,,,,,,,,,,,,,,,,,,,,,,,,,,,,,,,,,,,,,,,,,,,,,,,,,,,,,,,,,,,,,,,,,,,,,,,,,,,,,,,,,,,,,,,,,,,,,,,,,
,,64c9984d3675a555688f3c0f,2024-02-21_21h31.53.686,kallum_motion_pilot,2023.2.2,Win32,59.17159763,64c9984d3675a555688f3c0f,65d6bb0e977760de756971f7,65d6bfce994906782921cde2,0.2887,0.289,1,88,250,63,1,fourthree,,,,,,,,,,,,,,,,,,,,,,,,,,,,,,,,,,,,,,,,,,,,,,,,,,,,,,,,,,,,,,,,,,,,,,,,,,,,,,,,,,,,,,,,,,,,,,,,,,,,,,,,,,,,,,,,,,,,,,,,,,,,,,,,,,,,,,,,,
,,64c9984d3675a555688f3c0f,2024-02-21_21h31.53.686,kallum_motion_pilot,2023.2.2,Win32,59.17159763,64c9984d3675a555688f3c0f,65d6bb0e977760de756971f7,65d6bfce994906782921cde2,0.2895,0.2898,1,89,251,69,1,threefour,,,,,,,,,,,,,,,,,,,,,,,,,,,,,,,,,,,,,,,,,,,,,,,,,,,,,,,,,,,,,,,,,,,,,,,,,,,,,,,,,,,,,,,,,,,,,,,,,,,,,,,,,,,,,,,,,,,,,,,,,,,,,,,,,,,,,,,,,
,,64c9984d3675a555688f3c0f,2024-02-21_21h31.53.686,kallum_motion_pilot,2023.2.2,Win32,59.17159763,64c9984d3675a555688f3c0f,65d6bb0e977760de756971f7,65d6bfce994906782921cde2,0.2904,0.2908,1,90,252,157,1,seveneight,,,,,,,,,,,,,,,,,,,,,,,,,,,,,,,,,,,,,,,,,,,,,,,,,,,,,,,,,,,,,,,,,,,,,,,,,,,,,,,,,,,,,,,,,,,,,,,,,,,,,,,,,,,,,,,,,,,,,,,,,,,,,,,,,,,,,,,,,
,,64c9984d3675a555688f3c0f,2024-02-21_21h31.53.686,kallum_motion_pilot,2023.2.2,Win32,59.17159763,64c9984d3675a555688f3c0f,65d6bb0e977760de756971f7,65d6bfce994906782921cde2,0.2914,0.2918,1,91,253,108,1,sevenfive,,,,,,,,,,,,,,,,,,,,,,,,,,,,,,,,,,,,,,,,,,,,,,,,,,,,,,,,,,,,,,,,,,,,,,,,,,,,,,,,,,,,,,,,,,,,,,,,,,,,,,,,,,,,,,,,,,,,,,,,,,,,,,,,,,,,,,,,,
,,64c9984d3675a555688f3c0f,2024-02-21_21h31.53.686,kallum_motion_pilot,2023.2.2,Win32,59.17159763,64c9984d3675a555688f3c0f,65d6bb0e977760de756971f7,65d6bfce994906782921cde2,0.2923,0.293,1,92,254,109,1,seveneight,,,,,,,,,,,,,,,,,,,,,,,,,,,,,,,,,,,,,,,,,,,,,,,,,,,,,,,,,,,,,,,,,,,,,,,,,,,,,,,,,,,,,,,,,,,,,,,,,,,,,,,,,,,,,,,,,,,,,,,,,,,,,,,,,,,,,,,,,
,,64c9984d3675a555688f3c0f,2024-02-21_21h31.53.686,kallum_motion_pilot,2023.2.2,Win32,59.17159763,64c9984d3675a555688f3c0f,65d6bb0e977760de756971f7,65d6bfce994906782921cde2,0.2941,0.2944,1,93,255,153,1,fiveseven,,,,,,,,,,,,,,,,,,,,,,,,,,,,,,,,,,,,,,,,,,,,,,,,,,,,,,,,,,,,,,,,,,,,,,,,,,,,,,,,,,,,,,,,,,,,,,,,,,,,,,,,,,,,,,,,,,,,,,,,,,,,,,,,,,,,,,,,,
,,64c9984d3675a555688f3c0f,2024-02-21_21h31.53.686,kallum_motion_pilot,2023.2.2,Win32,59.17159763,64c9984d3675a555688f3c0f,65d6bb0e977760de756971f7,65d6bfce994906782921cde2,0.295,0.2954,1,94,256,43,1,twofour,,,,,,,,,,,,,,,,,,,,,,,,,,,,,,,,,,,,,,,,,,,,,,,,,,,,,,,,,,,,,,,,,,,,,,,,,,,,,,,,,,,,,,,,,,,,,,,,,,,,,,,,,,,,,,,,,,,,,,,,,,,,,,,,,,,,,,,,,
,,64c9984d3675a555688f3c0f,2024-02-21_21h31.53.686,kallum_motion_pilot,2023.2.2,Win32,59.17159763,64c9984d3675a555688f3c0f,65d6bb0e977760de756971f7,65d6bfce994906782921cde2,0.296,0.2963,1,95,257,12,1,threeone,,,,,,,,,,,,,,,,,,,,,,,,,,,,,,,,,,,,,,,,,,,,,,,,,,,,,,,,,,,,,,,,,,,,,,,,,,,,,,,,,,,,,,,,,,,,,,,,,,,,,,,,,,,,,,,,,,,,,,,,,,,,,,,,,,,,,,,,,
,,64c9984d3675a555688f3c0f,2024-02-21_21h31.53.686,kallum_motion_pilot,2023.2.2,Win32,59.17159763,64c9984d3675a555688f3c0f,65d6bb0e977760de756971f7,65d6bfce994906782921cde2,0.2968,0.2971,1,96,258,68,1,threeone,,,,,,,,,,,,,,,,,,,,,,,,,,,,,,,,,,,,,,,,,,,,,,,,,,,,,,,,,,,,,,,,,,,,,,,,,,,,,,,,,,,,,,,,,,,,,,,,,,,,,,,,,,,,,,,,,,,,,,,,,,,,,,,,,,,,,,,,,
,,64c9984d3675a555688f3c0f,2024-02-21_21h31.53.686,kallum_motion_pilot,2023.2.2,Win32,59.17159763,64c9984d3675a555688f3c0f,65d6bb0e977760de756971f7,65d6bfce994906782921cde2,0.2977,0.298,1,97,259,51,1,twofour,,,,,,,,,,,,,,,,,,,,,,,,,,,,,,,,,,,,,,,,,,,,,,,,,,,,,,,,,,,,,,,,,,,,,,,,,,,,,,,,,,,,,,,,,,,,,,,,,,,,,,,,,,,,,,,,,,,,,,,,,,,,,,,,,,,,,,,,,
,,64c9984d3675a555688f3c0f,2024-02-21_21h31.53.686,kallum_motion_pilot,2023.2.2,Win32,59.17159763,64c9984d3675a555688f3c0f,65d6bb0e977760de756971f7,65d6bfce994906782921cde2,0.2986,0.2989,1,98,260,50,1,twoone,,,,,,,,,,,,,,,,,,,,,,,,,,,,,,,,,,,,,,,,,,,,,,,,,,,,,,,,,,,,,,,,,,,,,,,,,,,,,,,,,,,,,,,,,,,,,,,,,,,,,,,,,,,,,,,,,,,,,,,,,,,,,,,,,,,,,,,,,
,,64c9984d3675a555688f3c0f,2024-02-21_21h31.53.686,kallum_motion_pilot,2023.2.2,Win32,59.17159763,64c9984d3675a555688f3c0f,65d6bb0e977760de756971f7,65d6bfce994906782921cde2,0.3001,0.3004,1,99,261,83,1,sixeight,,,,,,,,,,,,,,,,,,,,,,,,,,,,,,,,,,,,,,,,,,,,,,,,,,,,,,,,,,,,,,,,,,,,,,,,,,,,,,,,,,,,,,,,,,,,,,,,,,,,,,,,,,,,,,,,,,,,,,,,,,,,,,,,,,,,,,,,,
,,64c9984d3675a555688f3c0f,2024-02-21_21h31.53.686,kallum_motion_pilot,2023.2.2,Win32,59.17159763,64c9984d3675a555688f3c0f,65d6bb0e977760de756971f7,65d6bfce994906782921cde2,0.3011,0.3013,1,100,262,26,1,twoone,,,,,,,,,,,,,,,,,,,,,,,,,,,,,,,,,,,,,,,,,,,,,,,,,,,,,,,,,,,,,,,,,,,,,,,,,,,,,,,,,,,,,,,,,,,,,,,,,,,,,,,,,,,,,,,,,,,,,,,,,,,,,,,,,,,,,,,,,
,,64c9984d3675a555688f3c0f,2024-02-21_21h31.53.686,kallum_motion_pilot,2023.2.2,Win32,59.17159763,64c9984d3675a555688f3c0f,65d6bb0e977760de756971f7,65d6bfce994906782921cde2,0.3019,0.3023,1,101,263,3,1,twofour,,,,,,,,,,,,,,,,,,,,,,,,,,,,,,,,,,,,,,,,,,,,,,,,,,,,,,,,,,,,,,,,,,,,,,,,,,,,,,,,,,,,,,,,,,,,,,,,,,,,,,,,,,,,,,,,,,,,,,,,,,,,,,,,,,,,,,,,,
,,64c9984d3675a555688f3c0f,2024-02-21_21h31.53.686,kallum_motion_pilot,2023.2.2,Win32,59.17159763,64c9984d3675a555688f3c0f,65d6bb0e977760de756971f7,65d6bfce994906782921cde2,0.3037,0.304,1,102,264,150,1,eightsix,,,,,,,,,,,,,,,,,,,,,,,,,,,,,,,,,,,,,,,,,,,,,,,,,,,,,,,,,,,,,,,,,,,,,,,,,,,,,,,,,,,,,,,,,,,,,,,,,,,,,,,,,,,,,,,,,,,,,,,,,,,,,,,,,,,,,,,,,
,,64c9984d3675a555688f3c0f,2024-02-21_21h31.53.686,kallum_motion_pilot,2023.2.2,Win32,59.17159763,64c9984d3675a555688f3c0f,65d6bb0e977760de756971f7,65d6bfce994906782921cde2,0.3049,0.3053,1,103,265,90,1,sixfive,,,,,,,,,,,,,,,,,,,,,,,,,,,,,,,,,,,,,,,,,,,,,,,,,,,,,,,,,,,,,,,,,,,,,,,,,,,,,,,,,,,,,,,,,,,,,,,,,,,,,,,,,,,,,,,,,,,,,,,,,,,,,,,,,,,,,,,,,
,,64c9984d3675a555688f3c0f,2024-02-21_21h31.53.686,kallum_motion_pilot,2023.2.2,Win32,59.17159763,64c9984d3675a555688f3c0f,65d6bb0e977760de756971f7,65d6bfce994906782921cde2,0.3061,0.3065,1,104,266,106,1,sixfive,,,,,,,,,,,,,,,,,,,,,,,,,,,,,,,,,,,,,,,,,,,,,,,,,,,,,,,,,,,,,,,,,,,,,,,,,,,,,,,,,,,,,,,,,,,,,,,,,,,,,,,,,,,,,,,,,,,,,,,,,,,,,,,,,,,,,,,,,
,,64c9984d3675a555688f3c0f,2024-02-21_21h31.53.686,kallum_motion_pilot,2023.2.2,Win32,59.17159763,64c9984d3675a555688f3c0f,65d6bb0e977760de756971f7,65d6bfce994906782921cde2,0.307,0.3073,1,105,267,71,1,fourthree,,,,,,,,,,,,,,,,,,,,,,,,,,,,,,,,,,,,,,,,,,,,,,,,,,,,,,,,,,,,,,,,,,,,,,,,,,,,,,,,,,,,,,,,,,,,,,,,,,,,,,,,,,,,,,,,,,,,,,,,,,,,,,,,,,,,,,,,,
,,64c9984d3675a555688f3c0f,2024-02-21_21h31.53.686,kallum_motion_pilot,2023.2.2,Win32,59.17159763,64c9984d3675a555688f3c0f,65d6bb0e977760de756971f7,65d6bfce994906782921cde2,0.3079,0.3083,1,106,268,32,1,onetwo,,,,,,,,,,,,,,,,,,,,,,,,,,,,,,,,,,,,,,,,,,,,,,,,,,,,,,,,,,,,,,,,,,,,,,,,,,,,,,,,,,,,,,,,,,,,,,,,,,,,,,,,,,,,,,,,,,,,,,,,,,,,,,,,,,,,,,,,,
,,64c9984d3675a555688f3c0f,2024-02-21_21h31.53.686,kallum_motion_pilot,2023.2.2,Win32,59.17159763,64c9984d3675a555688f3c0f,65d6bb0e977760de756971f7,65d6bfce994906782921cde2,0.3088,0.3091,1,107,269,113,1,fiveseven,,,,,,,,,,,,,,,,,,,,,,,,,,,,,,,,,,,,,,,,,,,,,,,,,,,,,,,,,,,,,,,,,,,,,,,,,,,,,,,,,,,,,,,,,,,,,,,,,,,,,,,,,,,,,,,,,,,,,,,,,,,,,,,,,,,,,,,,,
,,64c9984d3675a555688f3c0f,2024-02-21_21h31.53.686,kallum_motion_pilot,2023.2.2,Win32,59.17159763,64c9984d3675a555688f3c0f,65d6bb0e977760de756971f7,65d6bfce994906782921cde2,0.3099,0.3101,1,108,270,110,1,eightsix,,,,,,,,,,,,,,,,,,,,,,,,,,,,,,,,,,,,,,,,,,,,,,,,,,,,,,,,,,,,,,,,,,,,,,,,,,,,,,,,,,,,,,,,,,,,,,,,,,,,,,,,,,,,,,,,,,,,,,,,,,,,,,,,,,,,,,,,,
,,64c9984d3675a555688f3c0f,2024-02-21_21h31.53.686,kallum_motion_pilot,2023.2.2,Win32,59.17159763,64c9984d3675a555688f3c0f,65d6bb0e977760de756971f7,65d6bfce994906782921cde2,0.3107,0.311,1,109,271,38,1,fourtwo,,,,,,,,,,,,,,,,,,,,,,,,,,,,,,,,,,,,,,,,,,,,,,,,,,,,,,,,,,,,,,,,,,,,,,,,,,,,,,,,,,,,,,,,,,,,,,,,,,,,,,,,,,,,,,,,,,,,,,,,,,,,,,,,,,,,,,,,,
,,64c9984d3675a555688f3c0f,2024-02-21_21h31.53.686,kallum_motion_pilot,2023.2.2,Win32,59.17159763,64c9984d3675a555688f3c0f,65d6bb0e977760de756971f7,65d6bfce994906782921cde2,0.3117,0.312,1,110,272,116,1,sevenfive,,,,,,,,,,,,,,,,,,,,,,,,,,,,,,,,,,,,,,,,,,,,,,,,,,,,,,,,,,,,,,,,,,,,,,,,,,,,,,,,,,,,,,,,,,,,,,,,,,,,,,,,,,,,,,,,,,,,,,,,,,,,,,,,,,,,,,,,,
,,64c9984d3675a555688f3c0f,2024-02-21_21h31.53.686,kallum_motion_pilot,2023.2.2,Win32,59.17159763,64c9984d3675a555688f3c0f,65d6bb0e977760de756971f7,65d6bfce994906782921cde2,0.3129,0.3138,1,111,273,132,1,sevenfive,,,,,,,,,,,,,,,,,,,,,,,,,,,,,,,,,,,,,,,,,,,,,,,,,,,,,,,,,,,,,,,,,,,,,,,,,,,,,,,,,,,,,,,,,,,,,,,,,,,,,,,,,,,,,,,,,,,,,,,,,,,,,,,,,,,,,,,,,
,,64c9984d3675a555688f3c0f,2024-02-21_21h31.53.686,kallum_motion_pilot,2023.2.2,Win32,59.17159763,64c9984d3675a555688f3c0f,65d6bb0e977760de756971f7,65d6bfce994906782921cde2,0.3142,0.3147,1,112,274,91,1,sixeight,,,,,,,,,,,,,,,,,,,,,,,,,,,,,,,,,,,,,,,,,,,,,,,,,,,,,,,,,,,,,,,,,,,,,,,,,,,,,,,,,,,,,,,,,,,,,,,,,,,,,,,,,,,,,,,,,,,,,,,,,,,,,,,,,,,,,,,,,
,,64c9984d3675a555688f3c0f,2024-02-21_21h31.53.686,kallum_motion_pilot,2023.2.2,Win32,59.17159763,64c9984d3675a555688f3c0f,65d6bb0e977760de756971f7,65d6bfce994906782921cde2,0.3151,0.3154,1,113,275,89,1,fiveseven,,,,,,,,,,,,,,,,,,,,,,,,,,,,,,,,,,,,,,,,,,,,,,,,,,,,,,,,,,,,,,,,,,,,,,,,,,,,,,,,,,,,,,,,,,,,,,,,,,,,,,,,,,,,,,,,,,,,,,,,,,,,,,,,,,,,,,,,,
,,64c9984d3675a555688f3c0f,2024-02-21_21h31.53.686,kallum_motion_pilot,2023.2.2,Win32,59.17159763,64c9984d3675a555688f3c0f,65d6bb0e977760de756971f7,65d6bfce994906782921cde2,0.3167,0.3169,1,114,276,55,1,fourthree,,,,,,,,,,,,,,,,,,,,,,,,,,,,,,,,,,,,,,,,,,,,,,,,,,,,,,,,,,,,,,,,,,,,,,,,,,,,,,,,,,,,,,,,,,,,,,,,,,,,,,,,,,,,,,,,,,,,,,,,,,,,,,,,,,,,,,,,,
,,64c9984d3675a555688f3c0f,2024-02-21_21h31.53.686,kallum_motion_pilot,2023.2.2,Win32,59.17159763,64c9984d3675a555688f3c0f,65d6bb0e977760de756971f7,65d6bfce994906782921cde2,0.3175,0.3178,1,115,277,30,1,fourtwo,,,,,,,,,,,,,,,,,,,,,,,,,,,,,,,,,,,,,,,,,,,,,,,,,,,,,,,,,,,,,,,,,,,,,,,,,,,,,,,,,,,,,,,,,,,,,,,,,,,,,,,,,,,,,,,,,,,,,,,,,,,,,,,,,,,,,,,,,
