startup.started,startup.stopped,Prolific ID*,date,expName,psychopyVersion,OS,frameRate,participant,study_id,session,stimpositions.started,stimpositions.stopped,hardcoded_stimulus_positions.thisRepN,hardcoded_stimulus_positions.thisTrialN,hardcoded_stimulus_positions.thisN,hardcoded_stimulus_positions.thisIndex,hardcoded_stimulus_positions.ran,StimulusPos,stimorientation.started,stimorientation.stopped,prac_stimorientation_import_loop.thisRepN,prac_stimorientation_import_loop.thisTrialN,prac_stimorientation_import_loop.thisN,prac_stimorientation_import_loop.thisIndex,prac_stimorientation_import_loop.ran,Stimorientation,welcome_instr.started,welcome_instr.stopped,key_resp.keys,key_resp.rt,key_resp.duration,response_steppedout_1.started,response_steppedout_1.stopped,key_resp_20.keys,key_resp_20.rt,key_resp_20.duration,response_steppedout_2.started,response_steppedout_2.stopped,key_resp_19.keys,key_resp_19.rt,key_resp_19.duration,stim_response_instr.started,stim_response_instr.stopped,key_resp_15.keys,key_resp_15.rt,key_resp_15.duration,direction_instr_2.started,direction_instr_2.stopped,key_resp_9.keys,key_resp_9.rt,key_resp_9.duration,instr_prac.started,instr_prac.stopped,key_resp_10.keys,key_resp_10.rt,key_resp_10.duration,Stim1_display_prac.started,Stim1_display_prac.stopped,Ecc,Circle1_ori,Circle2_ori,response_prac.started,similarity,response_time,response_prac.stopped,mouse_5.x,mouse_5.y,mouse_5.leftButton,mouse_5.midButton,mouse_5.rightButton,mouse_5.clicked_name,responseprac_feedback.started,responseprac_feedback.stopped,summary2_prac.started,summary2_prac.stopped,mouse_6.x,mouse_6.y,mouse_6.leftButton,mouse_6.midButton,mouse_6.rightButton,mouse_6.clicked_name,duringprac.thisRepN,duringprac.thisTrialN,duringprac.thisN,duringprac.thisIndex,duringprac.ran,begin.started,begin.stopped,key_resp_22.keys,key_resp_22.rt,key_resp_22.duration,Stim1_display.started,Stim1_display.stopped,circle1_ori,circle2_ori,circle1_SF,circle2_SF,response.started,response.stopped,mouse.x,mouse.y,mouse.leftButton,mouse.midButton,mouse.rightButton,mouse.clicked_name,trialnumber,double_pass.thisRepN,double_pass.thisTrialN,double_pass.thisN,double_pass.thisIndex,double_pass.ran,double_pass.order,main_trial.thisRepN,main_trial.thisTrialN,main_trial.thisN,main_trial.thisIndex,main_trial.ran,main_trial.order,Trial_Counter,Catch,Frequencies,response_2.started,response_2.stopped,mouse_2.x,mouse_2.y,mouse_2.leftButton,mouse_2.midButton,mouse_2.rightButton,mouse_2.clicked_name,special_trial.started,special_trial.stopped,catch_1.started,catch_1.stopped,mouse_3.x,mouse_3.y,mouse_3.leftButton,mouse_3.midButton,mouse_3.rightButton,catchresponse,catchnumber,response_time_catch,response_sum.started,response_sum.stopped,mouse_11.x,mouse_11.y,mouse_11.leftButton,mouse_11.midButton,mouse_11.rightButton,flip_presentation_sequence_for_double_pass.started,flip_presentation_sequence_for_double_pass.stopped,goodbye.started,goodbye.stopped,key_resp_3.keys,key_resp_3.rt,key_resp_3.duration
0.0003,0.0004,64ebe91c18cc1f529f56b458,2024-02-19_04h22.15.028,kallum_motion_pilot,2023.2.2,Win32,144.9275362,64ebe91c18cc1f529f56b458,65d2b6c8f2eece985d8e374c,65d2bb3880b5775321caba42,,,,,,,,,,,,,,,,,,,,,,,,,,,,,,,,,,,,,,,,,,,,,,,,,,,,,,,,,,,,,,,,,,,,,,,,,,,,,,,,,,,,,,,,,,,,,,,,,,,,,,,,,,,,,,,,,,,,,,,,,,,,,,,,,,,,,,,,,,,,,,,,,
,,64ebe91c18cc1f529f56b458,2024-02-19_04h22.15.028,kallum_motion_pilot,2023.2.2,Win32,144.9275362,64ebe91c18cc1f529f56b458,65d2b6c8f2eece985d8e374c,65d2bb3880b5775321caba42,0.0185,0.0186,0,0,0,27,1,twofour,,,,,,,,,,,,,,,,,,,,,,,,,,,,,,,,,,,,,,,,,,,,,,,,,,,,,,,,,,,,,,,,,,,,,,,,,,,,,,,,,,,,,,,,,,,,,,,,,,,,,,,,,,,,,,,,,,,,,,,,,,,,,,,,,,,,,,,,,
,,64ebe91c18cc1f529f56b458,2024-02-19_04h22.15.028,kallum_motion_pilot,2023.2.2,Win32,144.9275362,64ebe91c18cc1f529f56b458,65d2b6c8f2eece985d8e374c,65d2bb3880b5775321caba42,0.0188,0.0189,0,1,1,76,1,threeone,,,,,,,,,,,,,,,,,,,,,,,,,,,,,,,,,,,,,,,,,,,,,,,,,,,,,,,,,,,,,,,,,,,,,,,,,,,,,,,,,,,,,,,,,,,,,,,,,,,,,,,,,,,,,,,,,,,,,,,,,,,,,,,,,,,,,,,,,
,,64ebe91c18cc1f529f56b458,2024-02-19_04h22.15.028,kallum_motion_pilot,2023.2.2,Win32,144.9275362,64ebe91c18cc1f529f56b458,65d2b6c8f2eece985d8e374c,65d2bb3880b5775321caba42,0.019,0.0191,0,2,2,127,1,eightseven,,,,,,,,,,,,,,,,,,,,,,,,,,,,,,,,,,,,,,,,,,,,,,,,,,,,,,,,,,,,,,,,,,,,,,,,,,,,,,,,,,,,,,,,,,,,,,,,,,,,,,,,,,,,,,,,,,,,,,,,,,,,,,,,,,,,,,,,,
,,64ebe91c18cc1f529f56b458,2024-02-19_04h22.15.028,kallum_motion_pilot,2023.2.2,Win32,144.9275362,64ebe91c18cc1f529f56b458,65d2b6c8f2eece985d8e374c,65d2bb3880b5775321caba42,0.0191,0.0191,0,3,3,143,1,eightseven,,,,,,,,,,,,,,,,,,,,,,,,,,,,,,,,,,,,,,,,,,,,,,,,,,,,,,,,,,,,,,,,,,,,,,,,,,,,,,,,,,,,,,,,,,,,,,,,,,,,,,,,,,,,,,,,,,,,,,,,,,,,,,,,,,,,,,,,,
,,64ebe91c18cc1f529f56b458,2024-02-19_04h22.15.028,kallum_motion_pilot,2023.2.2,Win32,144.9275362,64ebe91c18cc1f529f56b458,65d2b6c8f2eece985d8e374c,65d2bb3880b5775321caba42,0.0192,0.0192,0,4,4,149,1,seveneight,,,,,,,,,,,,,,,,,,,,,,,,,,,,,,,,,,,,,,,,,,,,,,,,,,,,,,,,,,,,,,,,,,,,,,,,,,,,,,,,,,,,,,,,,,,,,,,,,,,,,,,,,,,,,,,,,,,,,,,,,,,,,,,,,,,,,,,,,
,,64ebe91c18cc1f529f56b458,2024-02-19_04h22.15.028,kallum_motion_pilot,2023.2.2,Win32,144.9275362,64ebe91c18cc1f529f56b458,65d2b6c8f2eece985d8e374c,65d2bb3880b5775321caba42,0.0193,0.0194,0,5,5,66,1,twoone,,,,,,,,,,,,,,,,,,,,,,,,,,,,,,,,,,,,,,,,,,,,,,,,,,,,,,,,,,,,,,,,,,,,,,,,,,,,,,,,,,,,,,,,,,,,,,,,,,,,,,,,,,,,,,,,,,,,,,,,,,,,,,,,,,,,,,,,,
,,64ebe91c18cc1f529f56b458,2024-02-19_04h22.15.028,kallum_motion_pilot,2023.2.2,Win32,144.9275362,64ebe91c18cc1f529f56b458,65d2b6c8f2eece985d8e374c,65d2bb3880b5775321caba42,0.0194,0.0195,0,6,6,3,1,twofour,,,,,,,,,,,,,,,,,,,,,,,,,,,,,,,,,,,,,,,,,,,,,,,,,,,,,,,,,,,,,,,,,,,,,,,,,,,,,,,,,,,,,,,,,,,,,,,,,,,,,,,,,,,,,,,,,,,,,,,,,,,,,,,,,,,,,,,,,
,,64ebe91c18cc1f529f56b458,2024-02-19_04h22.15.028,kallum_motion_pilot,2023.2.2,Win32,144.9275362,64ebe91c18cc1f529f56b458,65d2b6c8f2eece985d8e374c,65d2bb3880b5775321caba42,0.0195,0.0195,0,7,7,139,1,sixeight,,,,,,,,,,,,,,,,,,,,,,,,,,,,,,,,,,,,,,,,,,,,,,,,,,,,,,,,,,,,,,,,,,,,,,,,,,,,,,,,,,,,,,,,,,,,,,,,,,,,,,,,,,,,,,,,,,,,,,,,,,,,,,,,,,,,,,,,,
,,64ebe91c18cc1f529f56b458,2024-02-19_04h22.15.028,kallum_motion_pilot,2023.2.2,Win32,144.9275362,64ebe91c18cc1f529f56b458,65d2b6c8f2eece985d8e374c,65d2bb3880b5775321caba42,0.0196,0.0197,0,8,8,121,1,fiveseven,,,,,,,,,,,,,,,,,,,,,,,,,,,,,,,,,,,,,,,,,,,,,,,,,,,,,,,,,,,,,,,,,,,,,,,,,,,,,,,,,,,,,,,,,,,,,,,,,,,,,,,,,,,,,,,,,,,,,,,,,,,,,,,,,,,,,,,,,
,,64ebe91c18cc1f529f56b458,2024-02-19_04h22.15.028,kallum_motion_pilot,2023.2.2,Win32,144.9275362,64ebe91c18cc1f529f56b458,65d2b6c8f2eece985d8e374c,65d2bb3880b5775321caba42,0.0197,0.0198,0,9,9,87,1,eightseven,,,,,,,,,,,,,,,,,,,,,,,,,,,,,,,,,,,,,,,,,,,,,,,,,,,,,,,,,,,,,,,,,,,,,,,,,,,,,,,,,,,,,,,,,,,,,,,,,,,,,,,,,,,,,,,,,,,,,,,,,,,,,,,,,,,,,,,,,
,,64ebe91c18cc1f529f56b458,2024-02-19_04h22.15.028,kallum_motion_pilot,2023.2.2,Win32,144.9275362,64ebe91c18cc1f529f56b458,65d2b6c8f2eece985d8e374c,65d2bb3880b5775321caba42,0.0198,0.0198,0,10,10,151,1,eightseven,,,,,,,,,,,,,,,,,,,,,,,,,,,,,,,,,,,,,,,,,,,,,,,,,,,,,,,,,,,,,,,,,,,,,,,,,,,,,,,,,,,,,,,,,,,,,,,,,,,,,,,,,,,,,,,,,,,,,,,,,,,,,,,,,,,,,,,,,
,,64ebe91c18cc1f529f56b458,2024-02-19_04h22.15.028,kallum_motion_pilot,2023.2.2,Win32,144.9275362,64ebe91c18cc1f529f56b458,65d2b6c8f2eece985d8e374c,65d2bb3880b5775321caba42,0.0199,0.0199,0,11,11,48,1,onetwo,,,,,,,,,,,,,,,,,,,,,,,,,,,,,,,,,,,,,,,,,,,,,,,,,,,,,,,,,,,,,,,,,,,,,,,,,,,,,,,,,,,,,,,,,,,,,,,,,,,,,,,,,,,,,,,,,,,,,,,,,,,,,,,,,,,,,,,,,
,,64ebe91c18cc1f529f56b458,2024-02-19_04h22.15.028,kallum_motion_pilot,2023.2.2,Win32,144.9275362,64ebe91c18cc1f529f56b458,65d2b6c8f2eece985d8e374c,65d2bb3880b5775321caba42,0.0199,0.0199,0,12,12,135,1,eightseven,,,,,,,,,,,,,,,,,,,,,,,,,,,,,,,,,,,,,,,,,,,,,,,,,,,,,,,,,,,,,,,,,,,,,,,,,,,,,,,,,,,,,,,,,,,,,,,,,,,,,,,,,,,,,,,,,,,,,,,,,,,,,,,,,,,,,,,,,
,,64ebe91c18cc1f529f56b458,2024-02-19_04h22.15.028,kallum_motion_pilot,2023.2.2,Win32,144.9275362,64ebe91c18cc1f529f56b458,65d2b6c8f2eece985d8e374c,65d2bb3880b5775321caba42,0.0201,0.0201,0,13,13,89,1,fiveseven,,,,,,,,,,,,,,,,,,,,,,,,,,,,,,,,,,,,,,,,,,,,,,,,,,,,,,,,,,,,,,,,,,,,,,,,,,,,,,,,,,,,,,,,,,,,,,,,,,,,,,,,,,,,,,,,,,,,,,,,,,,,,,,,,,,,,,,,,
,,64ebe91c18cc1f529f56b458,2024-02-19_04h22.15.028,kallum_motion_pilot,2023.2.2,Win32,144.9275362,64ebe91c18cc1f529f56b458,65d2b6c8f2eece985d8e374c,65d2bb3880b5775321caba42,0.0201,0.0201,0,14,14,134,1,eightsix,,,,,,,,,,,,,,,,,,,,,,,,,,,,,,,,,,,,,,,,,,,,,,,,,,,,,,,,,,,,,,,,,,,,,,,,,,,,,,,,,,,,,,,,,,,,,,,,,,,,,,,,,,,,,,,,,,,,,,,,,,,,,,,,,,,,,,,,,
,,64ebe91c18cc1f529f56b458,2024-02-19_04h22.15.028,kallum_motion_pilot,2023.2.2,Win32,144.9275362,64ebe91c18cc1f529f56b458,65d2b6c8f2eece985d8e374c,65d2bb3880b5775321caba42,0.0201,0.0202,0,15,15,44,1,threeone,,,,,,,,,,,,,,,,,,,,,,,,,,,,,,,,,,,,,,,,,,,,,,,,,,,,,,,,,,,,,,,,,,,,,,,,,,,,,,,,,,,,,,,,,,,,,,,,,,,,,,,,,,,,,,,,,,,,,,,,,,,,,,,,,,,,,,,,,
,,64ebe91c18cc1f529f56b458,2024-02-19_04h22.15.028,kallum_motion_pilot,2023.2.2,Win32,144.9275362,64ebe91c18cc1f529f56b458,65d2b6c8f2eece985d8e374c,65d2bb3880b5775321caba42,0.0202,0.0202,0,16,16,0,1,onetwo,,,,,,,,,,,,,,,,,,,,,,,,,,,,,,,,,,,,,,,,,,,,,,,,,,,,,,,,,,,,,,,,,,,,,,,,,,,,,,,,,,,,,,,,,,,,,,,,,,,,,,,,,,,,,,,,,,,,,,,,,,,,,,,,,,,,,,,,,
,,64ebe91c18cc1f529f56b458,2024-02-19_04h22.15.028,kallum_motion_pilot,2023.2.2,Win32,144.9275362,64ebe91c18cc1f529f56b458,65d2b6c8f2eece985d8e374c,65d2bb3880b5775321caba42,0.0203,0.0203,0,17,17,51,1,twofour,,,,,,,,,,,,,,,,,,,,,,,,,,,,,,,,,,,,,,,,,,,,,,,,,,,,,,,,,,,,,,,,,,,,,,,,,,,,,,,,,,,,,,,,,,,,,,,,,,,,,,,,,,,,,,,,,,,,,,,,,,,,,,,,,,,,,,,,,
,,64ebe91c18cc1f529f56b458,2024-02-19_04h22.15.028,kallum_motion_pilot,2023.2.2,Win32,144.9275362,64ebe91c18cc1f529f56b458,65d2b6c8f2eece985d8e374c,65d2bb3880b5775321caba42,0.0204,0.0204,0,18,18,58,1,twoone,,,,,,,,,,,,,,,,,,,,,,,,,,,,,,,,,,,,,,,,,,,,,,,,,,,,,,,,,,,,,,,,,,,,,,,,,,,,,,,,,,,,,,,,,,,,,,,,,,,,,,,,,,,,,,,,,,,,,,,,,,,,,,,,,,,,,,,,,
,,64ebe91c18cc1f529f56b458,2024-02-19_04h22.15.028,kallum_motion_pilot,2023.2.2,Win32,144.9275362,64ebe91c18cc1f529f56b458,65d2b6c8f2eece985d8e374c,65d2bb3880b5775321caba42,0.0204,0.0204,0,19,19,69,1,threefour,,,,,,,,,,,,,,,,,,,,,,,,,,,,,,,,,,,,,,,,,,,,,,,,,,,,,,,,,,,,,,,,,,,,,,,,,,,,,,,,,,,,,,,,,,,,,,,,,,,,,,,,,,,,,,,,,,,,,,,,,,,,,,,,,,,,,,,,,
,,64ebe91c18cc1f529f56b458,2024-02-19_04h22.15.028,kallum_motion_pilot,2023.2.2,Win32,144.9275362,64ebe91c18cc1f529f56b458,65d2b6c8f2eece985d8e374c,65d2bb3880b5775321caba42,0.0205,0.0205,0,20,20,145,1,fiveseven,,,,,,,,,,,,,,,,,,,,,,,,,,,,,,,,,,,,,,,,,,,,,,,,,,,,,,,,,,,,,,,,,,,,,,,,,,,,,,,,,,,,,,,,,,,,,,,,,,,,,,,,,,,,,,,,,,,,,,,,,,,,,,,,,,,,,,,,,
,,64ebe91c18cc1f529f56b458,2024-02-19_04h22.15.028,kallum_motion_pilot,2023.2.2,Win32,144.9275362,64ebe91c18cc1f529f56b458,65d2b6c8f2eece985d8e374c,65d2bb3880b5775321caba42,0.0206,0.0206,0,21,21,104,1,fivesix,,,,,,,,,,,,,,,,,,,,,,,,,,,,,,,,,,,,,,,,,,,,,,,,,,,,,,,,,,,,,,,,,,,,,,,,,,,,,,,,,,,,,,,,,,,,,,,,,,,,,,,,,,,,,,,,,,,,,,,,,,,,,,,,,,,,,,,,,
,,64ebe91c18cc1f529f56b458,2024-02-19_04h22.15.028,kallum_motion_pilot,2023.2.2,Win32,144.9275362,64ebe91c18cc1f529f56b458,65d2b6c8f2eece985d8e374c,65d2bb3880b5775321caba42,0.0207,0.0207,0,22,22,85,1,seveneight,,,,,,,,,,,,,,,,,,,,,,,,,,,,,,,,,,,,,,,,,,,,,,,,,,,,,,,,,,,,,,,,,,,,,,,,,,,,,,,,,,,,,,,,,,,,,,,,,,,,,,,,,,,,,,,,,,,,,,,,,,,,,,,,,,,,,,,,,
,,64ebe91c18cc1f529f56b458,2024-02-19_04h22.15.028,kallum_motion_pilot,2023.2.2,Win32,144.9275362,64ebe91c18cc1f529f56b458,65d2b6c8f2eece985d8e374c,65d2bb3880b5775321caba42,0.0207,0.0208,0,23,23,47,1,fourthree,,,,,,,,,,,,,,,,,,,,,,,,,,,,,,,,,,,,,,,,,,,,,,,,,,,,,,,,,,,,,,,,,,,,,,,,,,,,,,,,,,,,,,,,,,,,,,,,,,,,,,,,,,,,,,,,,,,,,,,,,,,,,,,,,,,,,,,,,
,,64ebe91c18cc1f529f56b458,2024-02-19_04h22.15.028,kallum_motion_pilot,2023.2.2,Win32,144.9275362,64ebe91c18cc1f529f56b458,65d2b6c8f2eece985d8e374c,65d2bb3880b5775321caba42,0.0208,0.0208,0,24,24,64,1,onetwo,,,,,,,,,,,,,,,,,,,,,,,,,,,,,,,,,,,,,,,,,,,,,,,,,,,,,,,,,,,,,,,,,,,,,,,,,,,,,,,,,,,,,,,,,,,,,,,,,,,,,,,,,,,,,,,,,,,,,,,,,,,,,,,,,,,,,,,,,
,,64ebe91c18cc1f529f56b458,2024-02-19_04h22.15.028,kallum_motion_pilot,2023.2.2,Win32,144.9275362,64ebe91c18cc1f529f56b458,65d2b6c8f2eece985d8e374c,65d2bb3880b5775321caba42,0.0209,0.0209,0,25,25,25,1,onethree,,,,,,,,,,,,,,,,,,,,,,,,,,,,,,,,,,,,,,,,,,,,,,,,,,,,,,,,,,,,,,,,,,,,,,,,,,,,,,,,,,,,,,,,,,,,,,,,,,,,,,,,,,,,,,,,,,,,,,,,,,,,,,,,,,,,,,,,,
,,64ebe91c18cc1f529f56b458,2024-02-19_04h22.15.028,kallum_motion_pilot,2023.2.2,Win32,144.9275362,64ebe91c18cc1f529f56b458,65d2b6c8f2eece985d8e374c,65d2bb3880b5775321caba42,0.021,0.021,0,26,26,36,1,threeone,,,,,,,,,,,,,,,,,,,,,,,,,,,,,,,,,,,,,,,,,,,,,,,,,,,,,,,,,,,,,,,,,,,,,,,,,,,,,,,,,,,,,,,,,,,,,,,,,,,,,,,,,,,,,,,,,,,,,,,,,,,,,,,,,,,,,,,,,
,,64ebe91c18cc1f529f56b458,2024-02-19_04h22.15.028,kallum_motion_pilot,2023.2.2,Win32,144.9275362,64ebe91c18cc1f529f56b458,65d2b6c8f2eece985d8e374c,65d2bb3880b5775321caba42,0.0211,0.0211,0,27,27,120,1,fivesix,,,,,,,,,,,,,,,,,,,,,,,,,,,,,,,,,,,,,,,,,,,,,,,,,,,,,,,,,,,,,,,,,,,,,,,,,,,,,,,,,,,,,,,,,,,,,,,,,,,,,,,,,,,,,,,,,,,,,,,,,,,,,,,,,,,,,,,,,
,,64ebe91c18cc1f529f56b458,2024-02-19_04h22.15.028,kallum_motion_pilot,2023.2.2,Win32,144.9275362,64ebe91c18cc1f529f56b458,65d2b6c8f2eece985d8e374c,65d2bb3880b5775321caba42,0.0211,0.0211,0,28,28,155,1,sixeight,,,,,,,,,,,,,,,,,,,,,,,,,,,,,,,,,,,,,,,,,,,,,,,,,,,,,,,,,,,,,,,,,,,,,,,,,,,,,,,,,,,,,,,,,,,,,,,,,,,,,,,,,,,,,,,,,,,,,,,,,,,,,,,,,,,,,,,,,
,,64ebe91c18cc1f529f56b458,2024-02-19_04h22.15.028,kallum_motion_pilot,2023.2.2,Win32,144.9275362,64ebe91c18cc1f529f56b458,65d2b6c8f2eece985d8e374c,65d2bb3880b5775321caba42,0.0211,0.0212,0,29,29,33,1,onethree,,,,,,,,,,,,,,,,,,,,,,,,,,,,,,,,,,,,,,,,,,,,,,,,,,,,,,,,,,,,,,,,,,,,,,,,,,,,,,,,,,,,,,,,,,,,,,,,,,,,,,,,,,,,,,,,,,,,,,,,,,,,,,,,,,,,,,,,,
,,64ebe91c18cc1f529f56b458,2024-02-19_04h22.15.028,kallum_motion_pilot,2023.2.2,Win32,144.9275362,64ebe91c18cc1f529f56b458,65d2b6c8f2eece985d8e374c,65d2bb3880b5775321caba42,0.0212,0.0213,0,30,30,82,1,sixfive,,,,,,,,,,,,,,,,,,,,,,,,,,,,,,,,,,,,,,,,,,,,,,,,,,,,,,,,,,,,,,,,,,,,,,,,,,,,,,,,,,,,,,,,,,,,,,,,,,,,,,,,,,,,,,,,,,,,,,,,,,,,,,,,,,,,,,,,,
,,64ebe91c18cc1f529f56b458,2024-02-19_04h22.15.028,kallum_motion_pilot,2023.2.2,Win32,144.9275362,64ebe91c18cc1f529f56b458,65d2b6c8f2eece985d8e374c,65d2bb3880b5775321caba42,0.0213,0.0214,0,31,31,147,1,sixeight,,,,,,,,,,,,,,,,,,,,,,,,,,,,,,,,,,,,,,,,,,,,,,,,,,,,,,,,,,,,,,,,,,,,,,,,,,,,,,,,,,,,,,,,,,,,,,,,,,,,,,,,,,,,,,,,,,,,,,,,,,,,,,,,,,,,,,,,,
,,64ebe91c18cc1f529f56b458,2024-02-19_04h22.15.028,kallum_motion_pilot,2023.2.2,Win32,144.9275362,64ebe91c18cc1f529f56b458,65d2b6c8f2eece985d8e374c,65d2bb3880b5775321caba42,0.0214,0.0214,0,32,32,96,1,fivesix,,,,,,,,,,,,,,,,,,,,,,,,,,,,,,,,,,,,,,,,,,,,,,,,,,,,,,,,,,,,,,,,,,,,,,,,,,,,,,,,,,,,,,,,,,,,,,,,,,,,,,,,,,,,,,,,,,,,,,,,,,,,,,,,,,,,,,,,,
,,64ebe91c18cc1f529f56b458,2024-02-19_04h22.15.028,kallum_motion_pilot,2023.2.2,Win32,144.9275362,64ebe91c18cc1f529f56b458,65d2b6c8f2eece985d8e374c,65d2bb3880b5775321caba42,0.0215,0.0215,0,33,33,68,1,threeone,,,,,,,,,,,,,,,,,,,,,,,,,,,,,,,,,,,,,,,,,,,,,,,,,,,,,,,,,,,,,,,,,,,,,,,,,,,,,,,,,,,,,,,,,,,,,,,,,,,,,,,,,,,,,,,,,,,,,,,,,,,,,,,,,,,,,,,,,
,,64ebe91c18cc1f529f56b458,2024-02-19_04h22.15.028,kallum_motion_pilot,2023.2.2,Win32,144.9275362,64ebe91c18cc1f529f56b458,65d2b6c8f2eece985d8e374c,65d2bb3880b5775321caba42,0.0216,0.0216,0,34,34,130,1,sixfive,,,,,,,,,,,,,,,,,,,,,,,,,,,,,,,,,,,,,,,,,,,,,,,,,,,,,,,,,,,,,,,,,,,,,,,,,,,,,,,,,,,,,,,,,,,,,,,,,,,,,,,,,,,,,,,,,,,,,,,,,,,,,,,,,,,,,,,,,
,,64ebe91c18cc1f529f56b458,2024-02-19_04h22.15.028,kallum_motion_pilot,2023.2.2,Win32,144.9275362,64ebe91c18cc1f529f56b458,65d2b6c8f2eece985d8e374c,65d2bb3880b5775321caba42,0.0216,0.0216,0,35,35,97,1,fiveseven,,,,,,,,,,,,,,,,,,,,,,,,,,,,,,,,,,,,,,,,,,,,,,,,,,,,,,,,,,,,,,,,,,,,,,,,,,,,,,,,,,,,,,,,,,,,,,,,,,,,,,,,,,,,,,,,,,,,,,,,,,,,,,,,,,,,,,,,,
,,64ebe91c18cc1f529f56b458,2024-02-19_04h22.15.028,kallum_motion_pilot,2023.2.2,Win32,144.9275362,64ebe91c18cc1f529f56b458,65d2b6c8f2eece985d8e374c,65d2bb3880b5775321caba42,0.0217,0.0217,0,36,36,17,1,onethree,,,,,,,,,,,,,,,,,,,,,,,,,,,,,,,,,,,,,,,,,,,,,,,,,,,,,,,,,,,,,,,,,,,,,,,,,,,,,,,,,,,,,,,,,,,,,,,,,,,,,,,,,,,,,,,,,,,,,,,,,,,,,,,,,,,,,,,,,
,,64ebe91c18cc1f529f56b458,2024-02-19_04h22.15.028,kallum_motion_pilot,2023.2.2,Win32,144.9275362,64ebe91c18cc1f529f56b458,65d2b6c8f2eece985d8e374c,65d2bb3880b5775321caba42,0.0217,0.0218,0,37,37,37,1,threefour,,,,,,,,,,,,,,,,,,,,,,,,,,,,,,,,,,,,,,,,,,,,,,,,,,,,,,,,,,,,,,,,,,,,,,,,,,,,,,,,,,,,,,,,,,,,,,,,,,,,,,,,,,,,,,,,,,,,,,,,,,,,,,,,,,,,,,,,,
,,64ebe91c18cc1f529f56b458,2024-02-19_04h22.15.028,kallum_motion_pilot,2023.2.2,Win32,144.9275362,64ebe91c18cc1f529f56b458,65d2b6c8f2eece985d8e374c,65d2bb3880b5775321caba42,0.0218,0.0219,0,38,38,142,1,eightsix,,,,,,,,,,,,,,,,,,,,,,,,,,,,,,,,,,,,,,,,,,,,,,,,,,,,,,,,,,,,,,,,,,,,,,,,,,,,,,,,,,,,,,,,,,,,,,,,,,,,,,,,,,,,,,,,,,,,,,,,,,,,,,,,,,,,,,,,,
,,64ebe91c18cc1f529f56b458,2024-02-19_04h22.15.028,kallum_motion_pilot,2023.2.2,Win32,144.9275362,64ebe91c18cc1f529f56b458,65d2b6c8f2eece985d8e374c,65d2bb3880b5775321caba42,0.0219,0.0219,0,39,39,31,1,fourthree,,,,,,,,,,,,,,,,,,,,,,,,,,,,,,,,,,,,,,,,,,,,,,,,,,,,,,,,,,,,,,,,,,,,,,,,,,,,,,,,,,,,,,,,,,,,,,,,,,,,,,,,,,,,,,,,,,,,,,,,,,,,,,,,,,,,,,,,,
,,64ebe91c18cc1f529f56b458,2024-02-19_04h22.15.028,kallum_motion_pilot,2023.2.2,Win32,144.9275362,64ebe91c18cc1f529f56b458,65d2b6c8f2eece985d8e374c,65d2bb3880b5775321caba42,0.022,0.022,0,40,40,81,1,fiveseven,,,,,,,,,,,,,,,,,,,,,,,,,,,,,,,,,,,,,,,,,,,,,,,,,,,,,,,,,,,,,,,,,,,,,,,,,,,,,,,,,,,,,,,,,,,,,,,,,,,,,,,,,,,,,,,,,,,,,,,,,,,,,,,,,,,,,,,,,
,,64ebe91c18cc1f529f56b458,2024-02-19_04h22.15.028,kallum_motion_pilot,2023.2.2,Win32,144.9275362,64ebe91c18cc1f529f56b458,65d2b6c8f2eece985d8e374c,65d2bb3880b5775321caba42,0.0221,0.0221,0,41,41,65,1,onethree,,,,,,,,,,,,,,,,,,,,,,,,,,,,,,,,,,,,,,,,,,,,,,,,,,,,,,,,,,,,,,,,,,,,,,,,,,,,,,,,,,,,,,,,,,,,,,,,,,,,,,,,,,,,,,,,,,,,,,,,,,,,,,,,,,,,,,,,,
,,64ebe91c18cc1f529f56b458,2024-02-19_04h22.15.028,kallum_motion_pilot,2023.2.2,Win32,144.9275362,64ebe91c18cc1f529f56b458,65d2b6c8f2eece985d8e374c,65d2bb3880b5775321caba42,0.0222,0.0222,0,42,42,8,1,onetwo,,,,,,,,,,,,,,,,,,,,,,,,,,,,,,,,,,,,,,,,,,,,,,,,,,,,,,,,,,,,,,,,,,,,,,,,,,,,,,,,,,,,,,,,,,,,,,,,,,,,,,,,,,,,,,,,,,,,,,,,,,,,,,,,,,,,,,,,,
,,64ebe91c18cc1f529f56b458,2024-02-19_04h22.15.028,kallum_motion_pilot,2023.2.2,Win32,144.9275362,64ebe91c18cc1f529f56b458,65d2b6c8f2eece985d8e374c,65d2bb3880b5775321caba42,0.0222,0.0222,0,43,43,112,1,fivesix,,,,,,,,,,,,,,,,,,,,,,,,,,,,,,,,,,,,,,,,,,,,,,,,,,,,,,,,,,,,,,,,,,,,,,,,,,,,,,,,,,,,,,,,,,,,,,,,,,,,,,,,,,,,,,,,,,,,,,,,,,,,,,,,,,,,,,,,,
,,64ebe91c18cc1f529f56b458,2024-02-19_04h22.15.028,kallum_motion_pilot,2023.2.2,Win32,144.9275362,64ebe91c18cc1f529f56b458,65d2b6c8f2eece985d8e374c,65d2bb3880b5775321caba42,0.0223,0.0223,0,44,44,158,1,eightsix,,,,,,,,,,,,,,,,,,,,,,,,,,,,,,,,,,,,,,,,,,,,,,,,,,,,,,,,,,,,,,,,,,,,,,,,,,,,,,,,,,,,,,,,,,,,,,,,,,,,,,,,,,,,,,,,,,,,,,,,,,,,,,,,,,,,,,,,,
,,64ebe91c18cc1f529f56b458,2024-02-19_04h22.15.028,kallum_motion_pilot,2023.2.2,Win32,144.9275362,64ebe91c18cc1f529f56b458,65d2b6c8f2eece985d8e374c,65d2bb3880b5775321caba42,0.0224,0.0224,0,45,45,125,1,seveneight,,,,,,,,,,,,,,,,,,,,,,,,,,,,,,,,,,,,,,,,,,,,,,,,,,,,,,,,,,,,,,,,,,,,,,,,,,,,,,,,,,,,,,,,,,,,,,,,,,,,,,,,,,,,,,,,,,,,,,,,,,,,,,,,,,,,,,,,,
,,64ebe91c18cc1f529f56b458,2024-02-19_04h22.15.028,kallum_motion_pilot,2023.2.2,Win32,144.9275362,64ebe91c18cc1f529f56b458,65d2b6c8f2eece985d8e374c,65d2bb3880b5775321caba42,0.0224,0.0224,0,46,46,122,1,sixfive,,,,,,,,,,,,,,,,,,,,,,,,,,,,,,,,,,,,,,,,,,,,,,,,,,,,,,,,,,,,,,,,,,,,,,,,,,,,,,,,,,,,,,,,,,,,,,,,,,,,,,,,,,,,,,,,,,,,,,,,,,,,,,,,,,,,,,,,,
,,64ebe91c18cc1f529f56b458,2024-02-19_04h22.15.028,kallum_motion_pilot,2023.2.2,Win32,144.9275362,64ebe91c18cc1f529f56b458,65d2b6c8f2eece985d8e374c,65d2bb3880b5775321caba42,0.0225,0.0225,0,47,47,62,1,fourtwo,,,,,,,,,,,,,,,,,,,,,,,,,,,,,,,,,,,,,,,,,,,,,,,,,,,,,,,,,,,,,,,,,,,,,,,,,,,,,,,,,,,,,,,,,,,,,,,,,,,,,,,,,,,,,,,,,,,,,,,,,,,,,,,,,,,,,,,,,
,,64ebe91c18cc1f529f56b458,2024-02-19_04h22.15.028,kallum_motion_pilot,2023.2.2,Win32,144.9275362,64ebe91c18cc1f529f56b458,65d2b6c8f2eece985d8e374c,65d2bb3880b5775321caba42,0.0226,0.0227,0,48,48,2,1,twoone,,,,,,,,,,,,,,,,,,,,,,,,,,,,,,,,,,,,,,,,,,,,,,,,,,,,,,,,,,,,,,,,,,,,,,,,,,,,,,,,,,,,,,,,,,,,,,,,,,,,,,,,,,,,,,,,,,,,,,,,,,,,,,,,,,,,,,,,,
,,64ebe91c18cc1f529f56b458,2024-02-19_04h22.15.028,kallum_motion_pilot,2023.2.2,Win32,144.9275362,64ebe91c18cc1f529f56b458,65d2b6c8f2eece985d8e374c,65d2bb3880b5775321caba42,0.0227,0.0227,0,49,49,11,1,twofour,,,,,,,,,,,,,,,,,,,,,,,,,,,,,,,,,,,,,,,,,,,,,,,,,,,,,,,,,,,,,,,,,,,,,,,,,,,,,,,,,,,,,,,,,,,,,,,,,,,,,,,,,,,,,,,,,,,,,,,,,,,,,,,,,,,,,,,,,
,,64ebe91c18cc1f529f56b458,2024-02-19_04h22.15.028,kallum_motion_pilot,2023.2.2,Win32,144.9275362,64ebe91c18cc1f529f56b458,65d2b6c8f2eece985d8e374c,65d2bb3880b5775321caba42,0.0228,0.0228,0,50,50,113,1,fiveseven,,,,,,,,,,,,,,,,,,,,,,,,,,,,,,,,,,,,,,,,,,,,,,,,,,,,,,,,,,,,,,,,,,,,,,,,,,,,,,,,,,,,,,,,,,,,,,,,,,,,,,,,,,,,,,,,,,,,,,,,,,,,,,,,,,,,,,,,,
,,64ebe91c18cc1f529f56b458,2024-02-19_04h22.15.028,kallum_motion_pilot,2023.2.2,Win32,144.9275362,64ebe91c18cc1f529f56b458,65d2b6c8f2eece985d8e374c,65d2bb3880b5775321caba42,0.0229,0.0229,0,51,51,19,1,twofour,,,,,,,,,,,,,,,,,,,,,,,,,,,,,,,,,,,,,,,,,,,,,,,,,,,,,,,,,,,,,,,,,,,,,,,,,,,,,,,,,,,,,,,,,,,,,,,,,,,,,,,,,,,,,,,,,,,,,,,,,,,,,,,,,,,,,,,,,
,,64ebe91c18cc1f529f56b458,2024-02-19_04h22.15.028,kallum_motion_pilot,2023.2.2,Win32,144.9275362,64ebe91c18cc1f529f56b458,65d2b6c8f2eece985d8e374c,65d2bb3880b5775321caba42,0.023,0.023,0,52,52,26,1,twoone,,,,,,,,,,,,,,,,,,,,,,,,,,,,,,,,,,,,,,,,,,,,,,,,,,,,,,,,,,,,,,,,,,,,,,,,,,,,,,,,,,,,,,,,,,,,,,,,,,,,,,,,,,,,,,,,,,,,,,,,,,,,,,,,,,,,,,,,,
,,64ebe91c18cc1f529f56b458,2024-02-19_04h22.15.028,kallum_motion_pilot,2023.2.2,Win32,144.9275362,64ebe91c18cc1f529f56b458,65d2b6c8f2eece985d8e374c,65d2bb3880b5775321caba42,0.023,0.023,0,53,53,56,1,onetwo,,,,,,,,,,,,,,,,,,,,,,,,,,,,,,,,,,,,,,,,,,,,,,,,,,,,,,,,,,,,,,,,,,,,,,,,,,,,,,,,,,,,,,,,,,,,,,,,,,,,,,,,,,,,,,,,,,,,,,,,,,,,,,,,,,,,,,,,,
,,64ebe91c18cc1f529f56b458,2024-02-19_04h22.15.028,kallum_motion_pilot,2023.2.2,Win32,144.9275362,64ebe91c18cc1f529f56b458,65d2b6c8f2eece985d8e374c,65d2bb3880b5775321caba42,0.0231,0.0232,0,54,54,77,1,threefour,,,,,,,,,,,,,,,,,,,,,,,,,,,,,,,,,,,,,,,,,,,,,,,,,,,,,,,,,,,,,,,,,,,,,,,,,,,,,,,,,,,,,,,,,,,,,,,,,,,,,,,,,,,,,,,,,,,,,,,,,,,,,,,,,,,,,,,,,
,,64ebe91c18cc1f529f56b458,2024-02-19_04h22.15.028,kallum_motion_pilot,2023.2.2,Win32,144.9275362,64ebe91c18cc1f529f56b458,65d2b6c8f2eece985d8e374c,65d2bb3880b5775321caba42,0.0232,0.0232,0,55,55,14,1,fourtwo,,,,,,,,,,,,,,,,,,,,,,,,,,,,,,,,,,,,,,,,,,,,,,,,,,,,,,,,,,,,,,,,,,,,,,,,,,,,,,,,,,,,,,,,,,,,,,,,,,,,,,,,,,,,,,,,,,,,,,,,,,,,,,,,,,,,,,,,,
,,64ebe91c18cc1f529f56b458,2024-02-19_04h22.15.028,kallum_motion_pilot,2023.2.2,Win32,144.9275362,64ebe91c18cc1f529f56b458,65d2b6c8f2eece985d8e374c,65d2bb3880b5775321caba42,0.0233,0.0233,0,56,56,154,1,sixfive,,,,,,,,,,,,,,,,,,,,,,,,,,,,,,,,,,,,,,,,,,,,,,,,,,,,,,,,,,,,,,,,,,,,,,,,,,,,,,,,,,,,,,,,,,,,,,,,,,,,,,,,,,,,,,,,,,,,,,,,,,,,,,,,,,,,,,,,,
,,64ebe91c18cc1f529f56b458,2024-02-19_04h22.15.028,kallum_motion_pilot,2023.2.2,Win32,144.9275362,64ebe91c18cc1f529f56b458,65d2b6c8f2eece985d8e374c,65d2bb3880b5775321caba42,0.0233,0.0233,0,57,57,88,1,fivesix,,,,,,,,,,,,,,,,,,,,,,,,,,,,,,,,,,,,,,,,,,,,,,,,,,,,,,,,,,,,,,,,,,,,,,,,,,,,,,,,,,,,,,,,,,,,,,,,,,,,,,,,,,,,,,,,,,,,,,,,,,,,,,,,,,,,,,,,,
,,64ebe91c18cc1f529f56b458,2024-02-19_04h22.15.028,kallum_motion_pilot,2023.2.2,Win32,144.9275362,64ebe91c18cc1f529f56b458,65d2b6c8f2eece985d8e374c,65d2bb3880b5775321caba42,0.0234,0.0234,0,58,58,52,1,threeone,,,,,,,,,,,,,,,,,,,,,,,,,,,,,,,,,,,,,,,,,,,,,,,,,,,,,,,,,,,,,,,,,,,,,,,,,,,,,,,,,,,,,,,,,,,,,,,,,,,,,,,,,,,,,,,,,,,,,,,,,,,,,,,,,,,,,,,,,
,,64ebe91c18cc1f529f56b458,2024-02-19_04h22.15.028,kallum_motion_pilot,2023.2.2,Win32,144.9275362,64ebe91c18cc1f529f56b458,65d2b6c8f2eece985d8e374c,65d2bb3880b5775321caba42,0.0235,0.0236,0,59,59,75,1,twofour,,,,,,,,,,,,,,,,,,,,,,,,,,,,,,,,,,,,,,,,,,,,,,,,,,,,,,,,,,,,,,,,,,,,,,,,,,,,,,,,,,,,,,,,,,,,,,,,,,,,,,,,,,,,,,,,,,,,,,,,,,,,,,,,,,,,,,,,,
,,64ebe91c18cc1f529f56b458,2024-02-19_04h22.15.028,kallum_motion_pilot,2023.2.2,Win32,144.9275362,64ebe91c18cc1f529f56b458,65d2b6c8f2eece985d8e374c,65d2bb3880b5775321caba42,0.0236,0.0236,0,60,60,30,1,fourtwo,,,,,,,,,,,,,,,,,,,,,,,,,,,,,,,,,,,,,,,,,,,,,,,,,,,,,,,,,,,,,,,,,,,,,,,,,,,,,,,,,,,,,,,,,,,,,,,,,,,,,,,,,,,,,,,,,,,,,,,,,,,,,,,,,,,,,,,,,
,,64ebe91c18cc1f529f56b458,2024-02-19_04h22.15.028,kallum_motion_pilot,2023.2.2,Win32,144.9275362,64ebe91c18cc1f529f56b458,65d2b6c8f2eece985d8e374c,65d2bb3880b5775321caba42,0.0236,0.0237,0,61,61,144,1,fivesix,,,,,,,,,,,,,,,,,,,,,,,,,,,,,,,,,,,,,,,,,,,,,,,,,,,,,,,,,,,,,,,,,,,,,,,,,,,,,,,,,,,,,,,,,,,,,,,,,,,,,,,,,,,,,,,,,,,,,,,,,,,,,,,,,,,,,,,,,
,,64ebe91c18cc1f529f56b458,2024-02-19_04h22.15.028,kallum_motion_pilot,2023.2.2,Win32,144.9275362,64ebe91c18cc1f529f56b458,65d2b6c8f2eece985d8e374c,65d2bb3880b5775321caba42,0.0237,0.0238,0,62,62,132,1,sevenfive,,,,,,,,,,,,,,,,,,,,,,,,,,,,,,,,,,,,,,,,,,,,,,,,,,,,,,,,,,,,,,,,,,,,,,,,,,,,,,,,,,,,,,,,,,,,,,,,,,,,,,,,,,,,,,,,,,,,,,,,,,,,,,,,,,,,,,,,,
,,64ebe91c18cc1f529f56b458,2024-02-19_04h22.15.028,kallum_motion_pilot,2023.2.2,Win32,144.9275362,64ebe91c18cc1f529f56b458,65d2b6c8f2eece985d8e374c,65d2bb3880b5775321caba42,0.0239,0.0239,0,63,63,39,1,fourthree,,,,,,,,,,,,,,,,,,,,,,,,,,,,,,,,,,,,,,,,,,,,,,,,,,,,,,,,,,,,,,,,,,,,,,,,,,,,,,,,,,,,,,,,,,,,,,,,,,,,,,,,,,,,,,,,,,,,,,,,,,,,,,,,,,,,,,,,,
,,64ebe91c18cc1f529f56b458,2024-02-19_04h22.15.028,kallum_motion_pilot,2023.2.2,Win32,144.9275362,64ebe91c18cc1f529f56b458,65d2b6c8f2eece985d8e374c,65d2bb3880b5775321caba42,0.024,0.024,0,64,64,159,1,eightseven,,,,,,,,,,,,,,,,,,,,,,,,,,,,,,,,,,,,,,,,,,,,,,,,,,,,,,,,,,,,,,,,,,,,,,,,,,,,,,,,,,,,,,,,,,,,,,,,,,,,,,,,,,,,,,,,,,,,,,,,,,,,,,,,,,,,,,,,,
,,64ebe91c18cc1f529f56b458,2024-02-19_04h22.15.028,kallum_motion_pilot,2023.2.2,Win32,144.9275362,64ebe91c18cc1f529f56b458,65d2b6c8f2eece985d8e374c,65d2bb3880b5775321caba42,0.024,0.024,0,65,65,71,1,fourthree,,,,,,,,,,,,,,,,,,,,,,,,,,,,,,,,,,,,,,,,,,,,,,,,,,,,,,,,,,,,,,,,,,,,,,,,,,,,,,,,,,,,,,,,,,,,,,,,,,,,,,,,,,,,,,,,,,,,,,,,,,,,,,,,,,,,,,,,,
,,64ebe91c18cc1f529f56b458,2024-02-19_04h22.15.028,kallum_motion_pilot,2023.2.2,Win32,144.9275362,64ebe91c18cc1f529f56b458,65d2b6c8f2eece985d8e374c,65d2bb3880b5775321caba42,0.0241,0.0241,0,66,66,111,1,eightseven,,,,,,,,,,,,,,,,,,,,,,,,,,,,,,,,,,,,,,,,,,,,,,,,,,,,,,,,,,,,,,,,,,,,,,,,,,,,,,,,,,,,,,,,,,,,,,,,,,,,,,,,,,,,,,,,,,,,,,,,,,,,,,,,,,,,,,,,,
,,64ebe91c18cc1f529f56b458,2024-02-19_04h22.15.028,kallum_motion_pilot,2023.2.2,Win32,144.9275362,64ebe91c18cc1f529f56b458,65d2b6c8f2eece985d8e374c,65d2bb3880b5775321caba42,0.0242,0.0242,0,67,67,28,1,threeone,,,,,,,,,,,,,,,,,,,,,,,,,,,,,,,,,,,,,,,,,,,,,,,,,,,,,,,,,,,,,,,,,,,,,,,,,,,,,,,,,,,,,,,,,,,,,,,,,,,,,,,,,,,,,,,,,,,,,,,,,,,,,,,,,,,,,,,,,
,,64ebe91c18cc1f529f56b458,2024-02-19_04h22.15.028,kallum_motion_pilot,2023.2.2,Win32,144.9275362,64ebe91c18cc1f529f56b458,65d2b6c8f2eece985d8e374c,65d2bb3880b5775321caba42,0.0243,0.0244,0,68,68,123,1,sixeight,,,,,,,,,,,,,,,,,,,,,,,,,,,,,,,,,,,,,,,,,,,,,,,,,,,,,,,,,,,,,,,,,,,,,,,,,,,,,,,,,,,,,,,,,,,,,,,,,,,,,,,,,,,,,,,,,,,,,,,,,,,,,,,,,,,,,,,,,
,,64ebe91c18cc1f529f56b458,2024-02-19_04h22.15.028,kallum_motion_pilot,2023.2.2,Win32,144.9275362,64ebe91c18cc1f529f56b458,65d2b6c8f2eece985d8e374c,65d2bb3880b5775321caba42,0.0244,0.0244,0,69,69,79,1,eightseven,,,,,,,,,,,,,,,,,,,,,,,,,,,,,,,,,,,,,,,,,,,,,,,,,,,,,,,,,,,,,,,,,,,,,,,,,,,,,,,,,,,,,,,,,,,,,,,,,,,,,,,,,,,,,,,,,,,,,,,,,,,,,,,,,,,,,,,,,
,,64ebe91c18cc1f529f56b458,2024-02-19_04h22.15.028,kallum_motion_pilot,2023.2.2,Win32,144.9275362,64ebe91c18cc1f529f56b458,65d2b6c8f2eece985d8e374c,65d2bb3880b5775321caba42,0.0245,0.0245,0,70,70,118,1,eightsix,,,,,,,,,,,,,,,,,,,,,,,,,,,,,,,,,,,,,,,,,,,,,,,,,,,,,,,,,,,,,,,,,,,,,,,,,,,,,,,,,,,,,,,,,,,,,,,,,,,,,,,,,,,,,,,,,,,,,,,,,,,,,,,,,,,,,,,,,
,,64ebe91c18cc1f529f56b458,2024-02-19_04h22.15.028,kallum_motion_pilot,2023.2.2,Win32,144.9275362,64ebe91c18cc1f529f56b458,65d2b6c8f2eece985d8e374c,65d2bb3880b5775321caba42,0.0246,0.0246,0,71,71,131,1,sixeight,,,,,,,,,,,,,,,,,,,,,,,,,,,,,,,,,,,,,,,,,,,,,,,,,,,,,,,,,,,,,,,,,,,,,,,,,,,,,,,,,,,,,,,,,,,,,,,,,,,,,,,,,,,,,,,,,,,,,,,,,,,,,,,,,,,,,,,,,
,,64ebe91c18cc1f529f56b458,2024-02-19_04h22.15.028,kallum_motion_pilot,2023.2.2,Win32,144.9275362,64ebe91c18cc1f529f56b458,65d2b6c8f2eece985d8e374c,65d2bb3880b5775321caba42,0.0247,0.0247,0,72,72,160,1,fivesix,,,,,,,,,,,,,,,,,,,,,,,,,,,,,,,,,,,,,,,,,,,,,,,,,,,,,,,,,,,,,,,,,,,,,,,,,,,,,,,,,,,,,,,,,,,,,,,,,,,,,,,,,,,,,,,,,,,,,,,,,,,,,,,,,,,,,,,,,
,,64ebe91c18cc1f529f56b458,2024-02-19_04h22.15.028,kallum_motion_pilot,2023.2.2,Win32,144.9275362,64ebe91c18cc1f529f56b458,65d2b6c8f2eece985d8e374c,65d2bb3880b5775321caba42,0.0247,0.0247,0,73,73,12,1,threeone,,,,,,,,,,,,,,,,,,,,,,,,,,,,,,,,,,,,,,,,,,,,,,,,,,,,,,,,,,,,,,,,,,,,,,,,,,,,,,,,,,,,,,,,,,,,,,,,,,,,,,,,,,,,,,,,,,,,,,,,,,,,,,,,,,,,,,,,,
,,64ebe91c18cc1f529f56b458,2024-02-19_04h22.15.028,kallum_motion_pilot,2023.2.2,Win32,144.9275362,64ebe91c18cc1f529f56b458,65d2b6c8f2eece985d8e374c,65d2bb3880b5775321caba42,0.025,0.025,0,74,74,99,1,sixeight,,,,,,,,,,,,,,,,,,,,,,,,,,,,,,,,,,,,,,,,,,,,,,,,,,,,,,,,,,,,,,,,,,,,,,,,,,,,,,,,,,,,,,,,,,,,,,,,,,,,,,,,,,,,,,,,,,,,,,,,,,,,,,,,,,,,,,,,,
,,64ebe91c18cc1f529f56b458,2024-02-19_04h22.15.028,kallum_motion_pilot,2023.2.2,Win32,144.9275362,64ebe91c18cc1f529f56b458,65d2b6c8f2eece985d8e374c,65d2bb3880b5775321caba42,0.0252,0.0252,0,75,75,15,1,fourthree,,,,,,,,,,,,,,,,,,,,,,,,,,,,,,,,,,,,,,,,,,,,,,,,,,,,,,,,,,,,,,,,,,,,,,,,,,,,,,,,,,,,,,,,,,,,,,,,,,,,,,,,,,,,,,,,,,,,,,,,,,,,,,,,,,,,,,,,,
,,64ebe91c18cc1f529f56b458,2024-02-19_04h22.15.028,kallum_motion_pilot,2023.2.2,Win32,144.9275362,64ebe91c18cc1f529f56b458,65d2b6c8f2eece985d8e374c,65d2bb3880b5775321caba42,0.0253,0.0253,0,76,76,101,1,seveneight,,,,,,,,,,,,,,,,,,,,,,,,,,,,,,,,,,,,,,,,,,,,,,,,,,,,,,,,,,,,,,,,,,,,,,,,,,,,,,,,,,,,,,,,,,,,,,,,,,,,,,,,,,,,,,,,,,,,,,,,,,,,,,,,,,,,,,,,,
,,64ebe91c18cc1f529f56b458,2024-02-19_04h22.15.028,kallum_motion_pilot,2023.2.2,Win32,144.9275362,64ebe91c18cc1f529f56b458,65d2b6c8f2eece985d8e374c,65d2bb3880b5775321caba42,0.0254,0.0254,0,77,77,107,1,sixeight,,,,,,,,,,,,,,,,,,,,,,,,,,,,,,,,,,,,,,,,,,,,,,,,,,,,,,,,,,,,,,,,,,,,,,,,,,,,,,,,,,,,,,,,,,,,,,,,,,,,,,,,,,,,,,,,,,,,,,,,,,,,,,,,,,,,,,,,,
,,64ebe91c18cc1f529f56b458,2024-02-19_04h22.15.028,kallum_motion_pilot,2023.2.2,Win32,144.9275362,64ebe91c18cc1f529f56b458,65d2b6c8f2eece985d8e374c,65d2bb3880b5775321caba42,0.0257,0.0257,0,78,78,124,1,sevenfive,,,,,,,,,,,,,,,,,,,,,,,,,,,,,,,,,,,,,,,,,,,,,,,,,,,,,,,,,,,,,,,,,,,,,,,,,,,,,,,,,,,,,,,,,,,,,,,,,,,,,,,,,,,,,,,,,,,,,,,,,,,,,,,,,,,,,,,,,
,,64ebe91c18cc1f529f56b458,2024-02-19_04h22.15.028,kallum_motion_pilot,2023.2.2,Win32,144.9275362,64ebe91c18cc1f529f56b458,65d2b6c8f2eece985d8e374c,65d2bb3880b5775321caba42,0.0259,0.026,0,79,79,110,1,eightsix,,,,,,,,,,,,,,,,,,,,,,,,,,,,,,,,,,,,,,,,,,,,,,,,,,,,,,,,,,,,,,,,,,,,,,,,,,,,,,,,,,,,,,,,,,,,,,,,,,,,,,,,,,,,,,,,,,,,,,,,,,,,,,,,,,,,,,,,,
,,64ebe91c18cc1f529f56b458,2024-02-19_04h22.15.028,kallum_motion_pilot,2023.2.2,Win32,144.9275362,64ebe91c18cc1f529f56b458,65d2b6c8f2eece985d8e374c,65d2bb3880b5775321caba42,0.0261,0.0261,0,80,80,10,1,twoone,,,,,,,,,,,,,,,,,,,,,,,,,,,,,,,,,,,,,,,,,,,,,,,,,,,,,,,,,,,,,,,,,,,,,,,,,,,,,,,,,,,,,,,,,,,,,,,,,,,,,,,,,,,,,,,,,,,,,,,,,,,,,,,,,,,,,,,,,
,,64ebe91c18cc1f529f56b458,2024-02-19_04h22.15.028,kallum_motion_pilot,2023.2.2,Win32,144.9275362,64ebe91c18cc1f529f56b458,65d2b6c8f2eece985d8e374c,65d2bb3880b5775321caba42,0.0262,0.0262,0,81,81,9,1,onethree,,,,,,,,,,,,,,,,,,,,,,,,,,,,,,,,,,,,,,,,,,,,,,,,,,,,,,,,,,,,,,,,,,,,,,,,,,,,,,,,,,,,,,,,,,,,,,,,,,,,,,,,,,,,,,,,,,,,,,,,,,,,,,,,,,,,,,,,,
,,64ebe91c18cc1f529f56b458,2024-02-19_04h22.15.028,kallum_motion_pilot,2023.2.2,Win32,144.9275362,64ebe91c18cc1f529f56b458,65d2b6c8f2eece985d8e374c,65d2bb3880b5775321caba42,0.0262,0.0263,0,82,82,83,1,sixeight,,,,,,,,,,,,,,,,,,,,,,,,,,,,,,,,,,,,,,,,,,,,,,,,,,,,,,,,,,,,,,,,,,,,,,,,,,,,,,,,,,,,,,,,,,,,,,,,,,,,,,,,,,,,,,,,,,,,,,,,,,,,,,,,,,,,,,,,,
,,64ebe91c18cc1f529f56b458,2024-02-19_04h22.15.028,kallum_motion_pilot,2023.2.2,Win32,144.9275362,64ebe91c18cc1f529f56b458,65d2b6c8f2eece985d8e374c,65d2bb3880b5775321caba42,0.0263,0.0263,0,83,83,129,1,fiveseven,,,,,,,,,,,,,,,,,,,,,,,,,,,,,,,,,,,,,,,,,,,,,,,,,,,,,,,,,,,,,,,,,,,,,,,,,,,,,,,,,,,,,,,,,,,,,,,,,,,,,,,,,,,,,,,,,,,,,,,,,,,,,,,,,,,,,,,,,
,,64ebe91c18cc1f529f56b458,2024-02-19_04h22.15.028,kallum_motion_pilot,2023.2.2,Win32,144.9275362,64ebe91c18cc1f529f56b458,65d2b6c8f2eece985d8e374c,65d2bb3880b5775321caba42,0.0263,0.0264,0,84,84,60,1,threeone,,,,,,,,,,,,,,,,,,,,,,,,,,,,,,,,,,,,,,,,,,,,,,,,,,,,,,,,,,,,,,,,,,,,,,,,,,,,,,,,,,,,,,,,,,,,,,,,,,,,,,,,,,,,,,,,,,,,,,,,,,,,,,,,,,,,,,,,,
,,64ebe91c18cc1f529f56b458,2024-02-19_04h22.15.028,kallum_motion_pilot,2023.2.2,Win32,144.9275362,64ebe91c18cc1f529f56b458,65d2b6c8f2eece985d8e374c,65d2bb3880b5775321caba42,0.0265,0.0265,0,85,85,80,1,fivesix,,,,,,,,,,,,,,,,,,,,,,,,,,,,,,,,,,,,,,,,,,,,,,,,,,,,,,,,,,,,,,,,,,,,,,,,,,,,,,,,,,,,,,,,,,,,,,,,,,,,,,,,,,,,,,,,,,,,,,,,,,,,,,,,,,,,,,,,,
,,64ebe91c18cc1f529f56b458,2024-02-19_04h22.15.028,kallum_motion_pilot,2023.2.2,Win32,144.9275362,64ebe91c18cc1f529f56b458,65d2b6c8f2eece985d8e374c,65d2bb3880b5775321caba42,0.0265,0.0266,0,86,86,136,1,fivesix,,,,,,,,,,,,,,,,,,,,,,,,,,,,,,,,,,,,,,,,,,,,,,,,,,,,,,,,,,,,,,,,,,,,,,,,,,,,,,,,,,,,,,,,,,,,,,,,,,,,,,,,,,,,,,,,,,,,,,,,,,,,,,,,,,,,,,,,,
,,64ebe91c18cc1f529f56b458,2024-02-19_04h22.15.028,kallum_motion_pilot,2023.2.2,Win32,144.9275362,64ebe91c18cc1f529f56b458,65d2b6c8f2eece985d8e374c,65d2bb3880b5775321caba42,0.0266,0.0267,0,87,87,106,1,sixfive,,,,,,,,,,,,,,,,,,,,,,,,,,,,,,,,,,,,,,,,,,,,,,,,,,,,,,,,,,,,,,,,,,,,,,,,,,,,,,,,,,,,,,,,,,,,,,,,,,,,,,,,,,,,,,,,,,,,,,,,,,,,,,,,,,,,,,,,,
,,64ebe91c18cc1f529f56b458,2024-02-19_04h22.15.028,kallum_motion_pilot,2023.2.2,Win32,144.9275362,64ebe91c18cc1f529f56b458,65d2b6c8f2eece985d8e374c,65d2bb3880b5775321caba42,0.0268,0.0268,0,88,88,133,1,seveneight,,,,,,,,,,,,,,,,,,,,,,,,,,,,,,,,,,,,,,,,,,,,,,,,,,,,,,,,,,,,,,,,,,,,,,,,,,,,,,,,,,,,,,,,,,,,,,,,,,,,,,,,,,,,,,,,,,,,,,,,,,,,,,,,,,,,,,,,,
,,64ebe91c18cc1f529f56b458,2024-02-19_04h22.15.028,kallum_motion_pilot,2023.2.2,Win32,144.9275362,64ebe91c18cc1f529f56b458,65d2b6c8f2eece985d8e374c,65d2bb3880b5775321caba42,0.0269,0.0269,0,89,89,24,1,onetwo,,,,,,,,,,,,,,,,,,,,,,,,,,,,,,,,,,,,,,,,,,,,,,,,,,,,,,,,,,,,,,,,,,,,,,,,,,,,,,,,,,,,,,,,,,,,,,,,,,,,,,,,,,,,,,,,,,,,,,,,,,,,,,,,,,,,,,,,,
,,64ebe91c18cc1f529f56b458,2024-02-19_04h22.15.028,kallum_motion_pilot,2023.2.2,Win32,144.9275362,64ebe91c18cc1f529f56b458,65d2b6c8f2eece985d8e374c,65d2bb3880b5775321caba42,0.0269,0.0269,0,90,90,102,1,eightsix,,,,,,,,,,,,,,,,,,,,,,,,,,,,,,,,,,,,,,,,,,,,,,,,,,,,,,,,,,,,,,,,,,,,,,,,,,,,,,,,,,,,,,,,,,,,,,,,,,,,,,,,,,,,,,,,,,,,,,,,,,,,,,,,,,,,,,,,,
,,64ebe91c18cc1f529f56b458,2024-02-19_04h22.15.028,kallum_motion_pilot,2023.2.2,Win32,144.9275362,64ebe91c18cc1f529f56b458,65d2b6c8f2eece985d8e374c,65d2bb3880b5775321caba42,0.0271,0.0271,0,91,91,86,1,eightsix,,,,,,,,,,,,,,,,,,,,,,,,,,,,,,,,,,,,,,,,,,,,,,,,,,,,,,,,,,,,,,,,,,,,,,,,,,,,,,,,,,,,,,,,,,,,,,,,,,,,,,,,,,,,,,,,,,,,,,,,,,,,,,,,,,,,,,,,,
,,64ebe91c18cc1f529f56b458,2024-02-19_04h22.15.028,kallum_motion_pilot,2023.2.2,Win32,144.9275362,64ebe91c18cc1f529f56b458,65d2b6c8f2eece985d8e374c,65d2bb3880b5775321caba42,0.0272,0.0272,0,92,92,50,1,twoone,,,,,,,,,,,,,,,,,,,,,,,,,,,,,,,,,,,,,,,,,,,,,,,,,,,,,,,,,,,,,,,,,,,,,,,,,,,,,,,,,,,,,,,,,,,,,,,,,,,,,,,,,,,,,,,,,,,,,,,,,,,,,,,,,,,,,,,,,
,,64ebe91c18cc1f529f56b458,2024-02-19_04h22.15.028,kallum_motion_pilot,2023.2.2,Win32,144.9275362,64ebe91c18cc1f529f56b458,65d2b6c8f2eece985d8e374c,65d2bb3880b5775321caba42,0.0272,0.0272,0,93,93,16,1,onetwo,,,,,,,,,,,,,,,,,,,,,,,,,,,,,,,,,,,,,,,,,,,,,,,,,,,,,,,,,,,,,,,,,,,,,,,,,,,,,,,,,,,,,,,,,,,,,,,,,,,,,,,,,,,,,,,,,,,,,,,,,,,,,,,,,,,,,,,,,
,,64ebe91c18cc1f529f56b458,2024-02-19_04h22.15.028,kallum_motion_pilot,2023.2.2,Win32,144.9275362,64ebe91c18cc1f529f56b458,65d2b6c8f2eece985d8e374c,65d2bb3880b5775321caba42,0.0273,0.0273,0,94,94,116,1,sevenfive,,,,,,,,,,,,,,,,,,,,,,,,,,,,,,,,,,,,,,,,,,,,,,,,,,,,,,,,,,,,,,,,,,,,,,,,,,,,,,,,,,,,,,,,,,,,,,,,,,,,,,,,,,,,,,,,,,,,,,,,,,,,,,,,,,,,,,,,,
,,64ebe91c18cc1f529f56b458,2024-02-19_04h22.15.028,kallum_motion_pilot,2023.2.2,Win32,144.9275362,64ebe91c18cc1f529f56b458,65d2b6c8f2eece985d8e374c,65d2bb3880b5775321caba42,0.0273,0.0274,0,95,95,6,1,fourtwo,,,,,,,,,,,,,,,,,,,,,,,,,,,,,,,,,,,,,,,,,,,,,,,,,,,,,,,,,,,,,,,,,,,,,,,,,,,,,,,,,,,,,,,,,,,,,,,,,,,,,,,,,,,,,,,,,,,,,,,,,,,,,,,,,,,,,,,,,
,,64ebe91c18cc1f529f56b458,2024-02-19_04h22.15.028,kallum_motion_pilot,2023.2.2,Win32,144.9275362,64ebe91c18cc1f529f56b458,65d2b6c8f2eece985d8e374c,65d2bb3880b5775321caba42,0.0275,0.0275,0,96,96,95,1,eightseven,,,,,,,,,,,,,,,,,,,,,,,,,,,,,,,,,,,,,,,,,,,,,,,,,,,,,,,,,,,,,,,,,,,,,,,,,,,,,,,,,,,,,,,,,,,,,,,,,,,,,,,,,,,,,,,,,,,,,,,,,,,,,,,,,,,,,,,,,
,,64ebe91c18cc1f529f56b458,2024-02-19_04h22.15.028,kallum_motion_pilot,2023.2.2,Win32,144.9275362,64ebe91c18cc1f529f56b458,65d2b6c8f2eece985d8e374c,65d2bb3880b5775321caba42,0.0276,0.0276,0,97,97,13,1,threefour,,,,,,,,,,,,,,,,,,,,,,,,,,,,,,,,,,,,,,,,,,,,,,,,,,,,,,,,,,,,,,,,,,,,,,,,,,,,,,,,,,,,,,,,,,,,,,,,,,,,,,,,,,,,,,,,,,,,,,,,,,,,,,,,,,,,,,,,,
,,64ebe91c18cc1f529f56b458,2024-02-19_04h22.15.028,kallum_motion_pilot,2023.2.2,Win32,144.9275362,64ebe91c18cc1f529f56b458,65d2b6c8f2eece985d8e374c,65d2bb3880b5775321caba42,0.0277,0.0277,0,98,98,153,1,fiveseven,,,,,,,,,,,,,,,,,,,,,,,,,,,,,,,,,,,,,,,,,,,,,,,,,,,,,,,,,,,,,,,,,,,,,,,,,,,,,,,,,,,,,,,,,,,,,,,,,,,,,,,,,,,,,,,,,,,,,,,,,,,,,,,,,,,,,,,,,
,,64ebe91c18cc1f529f56b458,2024-02-19_04h22.15.028,kallum_motion_pilot,2023.2.2,Win32,144.9275362,64ebe91c18cc1f529f56b458,65d2b6c8f2eece985d8e374c,65d2bb3880b5775321caba42,0.0278,0.0278,0,99,99,103,1,eightseven,,,,,,,,,,,,,,,,,,,,,,,,,,,,,,,,,,,,,,,,,,,,,,,,,,,,,,,,,,,,,,,,,,,,,,,,,,,,,,,,,,,,,,,,,,,,,,,,,,,,,,,,,,,,,,,,,,,,,,,,,,,,,,,,,,,,,,,,,
,,64ebe91c18cc1f529f56b458,2024-02-19_04h22.15.028,kallum_motion_pilot,2023.2.2,Win32,144.9275362,64ebe91c18cc1f529f56b458,65d2b6c8f2eece985d8e374c,65d2bb3880b5775321caba42,0.0278,0.0279,0,100,100,29,1,threefour,,,,,,,,,,,,,,,,,,,,,,,,,,,,,,,,,,,,,,,,,,,,,,,,,,,,,,,,,,,,,,,,,,,,,,,,,,,,,,,,,,,,,,,,,,,,,,,,,,,,,,,,,,,,,,,,,,,,,,,,,,,,,,,,,,,,,,,,,
,,64ebe91c18cc1f529f56b458,2024-02-19_04h22.15.028,kallum_motion_pilot,2023.2.2,Win32,144.9275362,64ebe91c18cc1f529f56b458,65d2b6c8f2eece985d8e374c,65d2bb3880b5775321caba42,0.0279,0.028,0,101,101,67,1,twofour,,,,,,,,,,,,,,,,,,,,,,,,,,,,,,,,,,,,,,,,,,,,,,,,,,,,,,,,,,,,,,,,,,,,,,,,,,,,,,,,,,,,,,,,,,,,,,,,,,,,,,,,,,,,,,,,,,,,,,,,,,,,,,,,,,,,,,,,,
,,64ebe91c18cc1f529f56b458,2024-02-19_04h22.15.028,kallum_motion_pilot,2023.2.2,Win32,144.9275362,64ebe91c18cc1f529f56b458,65d2b6c8f2eece985d8e374c,65d2bb3880b5775321caba42,0.028,0.028,0,102,102,148,1,sevenfive,,,,,,,,,,,,,,,,,,,,,,,,,,,,,,,,,,,,,,,,,,,,,,,,,,,,,,,,,,,,,,,,,,,,,,,,,,,,,,,,,,,,,,,,,,,,,,,,,,,,,,,,,,,,,,,,,,,,,,,,,,,,,,,,,,,,,,,,,
,,64ebe91c18cc1f529f56b458,2024-02-19_04h22.15.028,kallum_motion_pilot,2023.2.2,Win32,144.9275362,64ebe91c18cc1f529f56b458,65d2b6c8f2eece985d8e374c,65d2bb3880b5775321caba42,0.0282,0.0282,0,103,103,138,1,sixfive,,,,,,,,,,,,,,,,,,,,,,,,,,,,,,,,,,,,,,,,,,,,,,,,,,,,,,,,,,,,,,,,,,,,,,,,,,,,,,,,,,,,,,,,,,,,,,,,,,,,,,,,,,,,,,,,,,,,,,,,,,,,,,,,,,,,,,,,,
,,64ebe91c18cc1f529f56b458,2024-02-19_04h22.15.028,kallum_motion_pilot,2023.2.2,Win32,144.9275362,64ebe91c18cc1f529f56b458,65d2b6c8f2eece985d8e374c,65d2bb3880b5775321caba42,0.0283,0.0283,0,104,104,42,1,twoone,,,,,,,,,,,,,,,,,,,,,,,,,,,,,,,,,,,,,,,,,,,,,,,,,,,,,,,,,,,,,,,,,,,,,,,,,,,,,,,,,,,,,,,,,,,,,,,,,,,,,,,,,,,,,,,,,,,,,,,,,,,,,,,,,,,,,,,,,
,,64ebe91c18cc1f529f56b458,2024-02-19_04h22.15.028,kallum_motion_pilot,2023.2.2,Win32,144.9275362,64ebe91c18cc1f529f56b458,65d2b6c8f2eece985d8e374c,65d2bb3880b5775321caba42,0.0284,0.0284,0,105,105,157,1,seveneight,,,,,,,,,,,,,,,,,,,,,,,,,,,,,,,,,,,,,,,,,,,,,,,,,,,,,,,,,,,,,,,,,,,,,,,,,,,,,,,,,,,,,,,,,,,,,,,,,,,,,,,,,,,,,,,,,,,,,,,,,,,,,,,,,,,,,,,,,
,,64ebe91c18cc1f529f56b458,2024-02-19_04h22.15.028,kallum_motion_pilot,2023.2.2,Win32,144.9275362,64ebe91c18cc1f529f56b458,65d2b6c8f2eece985d8e374c,65d2bb3880b5775321caba42,0.0284,0.0284,0,106,106,46,1,fourtwo,,,,,,,,,,,,,,,,,,,,,,,,,,,,,,,,,,,,,,,,,,,,,,,,,,,,,,,,,,,,,,,,,,,,,,,,,,,,,,,,,,,,,,,,,,,,,,,,,,,,,,,,,,,,,,,,,,,,,,,,,,,,,,,,,,,,,,,,,
,,64ebe91c18cc1f529f56b458,2024-02-19_04h22.15.028,kallum_motion_pilot,2023.2.2,Win32,144.9275362,64ebe91c18cc1f529f56b458,65d2b6c8f2eece985d8e374c,65d2bb3880b5775321caba42,0.0285,0.0285,0,107,107,137,1,fiveseven,,,,,,,,,,,,,,,,,,,,,,,,,,,,,,,,,,,,,,,,,,,,,,,,,,,,,,,,,,,,,,,,,,,,,,,,,,,,,,,,,,,,,,,,,,,,,,,,,,,,,,,,,,,,,,,,,,,,,,,,,,,,,,,,,,,,,,,,,
,,64ebe91c18cc1f529f56b458,2024-02-19_04h22.15.028,kallum_motion_pilot,2023.2.2,Win32,144.9275362,64ebe91c18cc1f529f56b458,65d2b6c8f2eece985d8e374c,65d2bb3880b5775321caba42,0.0286,0.0286,0,108,108,23,1,fourthree,,,,,,,,,,,,,,,,,,,,,,,,,,,,,,,,,,,,,,,,,,,,,,,,,,,,,,,,,,,,,,,,,,,,,,,,,,,,,,,,,,,,,,,,,,,,,,,,,,,,,,,,,,,,,,,,,,,,,,,,,,,,,,,,,,,,,,,,,
,,64ebe91c18cc1f529f56b458,2024-02-19_04h22.15.028,kallum_motion_pilot,2023.2.2,Win32,144.9275362,64ebe91c18cc1f529f56b458,65d2b6c8f2eece985d8e374c,65d2bb3880b5775321caba42,0.0287,0.0288,0,109,109,126,1,eightsix,,,,,,,,,,,,,,,,,,,,,,,,,,,,,,,,,,,,,,,,,,,,,,,,,,,,,,,,,,,,,,,,,,,,,,,,,,,,,,,,,,,,,,,,,,,,,,,,,,,,,,,,,,,,,,,,,,,,,,,,,,,,,,,,,,,,,,,,,
,,64ebe91c18cc1f529f56b458,2024-02-19_04h22.15.028,kallum_motion_pilot,2023.2.2,Win32,144.9275362,64ebe91c18cc1f529f56b458,65d2b6c8f2eece985d8e374c,65d2bb3880b5775321caba42,0.0288,0.0289,0,110,110,114,1,sixfive,,,,,,,,,,,,,,,,,,,,,,,,,,,,,,,,,,,,,,,,,,,,,,,,,,,,,,,,,,,,,,,,,,,,,,,,,,,,,,,,,,,,,,,,,,,,,,,,,,,,,,,,,,,,,,,,,,,,,,,,,,,,,,,,,,,,,,,,,
,,64ebe91c18cc1f529f56b458,2024-02-19_04h22.15.028,kallum_motion_pilot,2023.2.2,Win32,144.9275362,64ebe91c18cc1f529f56b458,65d2b6c8f2eece985d8e374c,65d2bb3880b5775321caba42,0.0289,0.029,0,111,111,1,1,onethree,,,,,,,,,,,,,,,,,,,,,,,,,,,,,,,,,,,,,,,,,,,,,,,,,,,,,,,,,,,,,,,,,,,,,,,,,,,,,,,,,,,,,,,,,,,,,,,,,,,,,,,,,,,,,,,,,,,,,,,,,,,,,,,,,,,,,,,,,
,,64ebe91c18cc1f529f56b458,2024-02-19_04h22.15.028,kallum_motion_pilot,2023.2.2,Win32,144.9275362,64ebe91c18cc1f529f56b458,65d2b6c8f2eece985d8e374c,65d2bb3880b5775321caba42,0.029,0.029,0,112,112,59,1,twofour,,,,,,,,,,,,,,,,,,,,,,,,,,,,,,,,,,,,,,,,,,,,,,,,,,,,,,,,,,,,,,,,,,,,,,,,,,,,,,,,,,,,,,,,,,,,,,,,,,,,,,,,,,,,,,,,,,,,,,,,,,,,,,,,,,,,,,,,,
,,64ebe91c18cc1f529f56b458,2024-02-19_04h22.15.028,kallum_motion_pilot,2023.2.2,Win32,144.9275362,64ebe91c18cc1f529f56b458,65d2b6c8f2eece985d8e374c,65d2bb3880b5775321caba42,0.0291,0.0291,0,113,113,7,1,fourthree,,,,,,,,,,,,,,,,,,,,,,,,,,,,,,,,,,,,,,,,,,,,,,,,,,,,,,,,,,,,,,,,,,,,,,,,,,,,,,,,,,,,,,,,,,,,,,,,,,,,,,,,,,,,,,,,,,,,,,,,,,,,,,,,,,,,,,,,,
,,64ebe91c18cc1f529f56b458,2024-02-19_04h22.15.028,kallum_motion_pilot,2023.2.2,Win32,144.9275362,64ebe91c18cc1f529f56b458,65d2b6c8f2eece985d8e374c,65d2bb3880b5775321caba42,0.0292,0.0292,0,114,114,150,1,eightsix,,,,,,,,,,,,,,,,,,,,,,,,,,,,,,,,,,,,,,,,,,,,,,,,,,,,,,,,,,,,,,,,,,,,,,,,,,,,,,,,,,,,,,,,,,,,,,,,,,,,,,,,,,,,,,,,,,,,,,,,,,,,,,,,,,,,,,,,,
,,64ebe91c18cc1f529f56b458,2024-02-19_04h22.15.028,kallum_motion_pilot,2023.2.2,Win32,144.9275362,64ebe91c18cc1f529f56b458,65d2b6c8f2eece985d8e374c,65d2bb3880b5775321caba42,0.0293,0.0293,0,115,115,119,1,eightseven,,,,,,,,,,,,,,,,,,,,,,,,,,,,,,,,,,,,,,,,,,,,,,,,,,,,,,,,,,,,,,,,,,,,,,,,,,,,,,,,,,,,,,,,,,,,,,,,,,,,,,,,,,,,,,,,,,,,,,,,,,,,,,,,,,,,,,,,,
,,64ebe91c18cc1f529f56b458,2024-02-19_04h22.15.028,kallum_motion_pilot,2023.2.2,Win32,144.9275362,64ebe91c18cc1f529f56b458,65d2b6c8f2eece985d8e374c,65d2bb3880b5775321caba42,0.0294,0.0294,0,116,116,18,1,twoone,,,,,,,,,,,,,,,,,,,,,,,,,,,,,,,,,,,,,,,,,,,,,,,,,,,,,,,,,,,,,,,,,,,,,,,,,,,,,,,,,,,,,,,,,,,,,,,,,,,,,,,,,,,,,,,,,,,,,,,,,,,,,,,,,,,,,,,,,
,,64ebe91c18cc1f529f56b458,2024-02-19_04h22.15.028,kallum_motion_pilot,2023.2.2,Win32,144.9275362,64ebe91c18cc1f529f56b458,65d2b6c8f2eece985d8e374c,65d2bb3880b5775321caba42,0.0295,0.0295,0,117,117,152,1,fivesix,,,,,,,,,,,,,,,,,,,,,,,,,,,,,,,,,,,,,,,,,,,,,,,,,,,,,,,,,,,,,,,,,,,,,,,,,,,,,,,,,,,,,,,,,,,,,,,,,,,,,,,,,,,,,,,,,,,,,,,,,,,,,,,,,,,,,,,,,
,,64ebe91c18cc1f529f56b458,2024-02-19_04h22.15.028,kallum_motion_pilot,2023.2.2,Win32,144.9275362,64ebe91c18cc1f529f56b458,65d2b6c8f2eece985d8e374c,65d2bb3880b5775321caba42,0.0295,0.0296,0,118,118,55,1,fourthree,,,,,,,,,,,,,,,,,,,,,,,,,,,,,,,,,,,,,,,,,,,,,,,,,,,,,,,,,,,,,,,,,,,,,,,,,,,,,,,,,,,,,,,,,,,,,,,,,,,,,,,,,,,,,,,,,,,,,,,,,,,,,,,,,,,,,,,,,
,,64ebe91c18cc1f529f56b458,2024-02-19_04h22.15.028,kallum_motion_pilot,2023.2.2,Win32,144.9275362,64ebe91c18cc1f529f56b458,65d2b6c8f2eece985d8e374c,65d2bb3880b5775321caba42,0.0297,0.0297,0,119,119,22,1,fourtwo,,,,,,,,,,,,,,,,,,,,,,,,,,,,,,,,,,,,,,,,,,,,,,,,,,,,,,,,,,,,,,,,,,,,,,,,,,,,,,,,,,,,,,,,,,,,,,,,,,,,,,,,,,,,,,,,,,,,,,,,,,,,,,,,,,,,,,,,,
,,64ebe91c18cc1f529f56b458,2024-02-19_04h22.15.028,kallum_motion_pilot,2023.2.2,Win32,144.9275362,64ebe91c18cc1f529f56b458,65d2b6c8f2eece985d8e374c,65d2bb3880b5775321caba42,0.0297,0.0298,0,120,120,32,1,onetwo,,,,,,,,,,,,,,,,,,,,,,,,,,,,,,,,,,,,,,,,,,,,,,,,,,,,,,,,,,,,,,,,,,,,,,,,,,,,,,,,,,,,,,,,,,,,,,,,,,,,,,,,,,,,,,,,,,,,,,,,,,,,,,,,,,,,,,,,,
,,64ebe91c18cc1f529f56b458,2024-02-19_04h22.15.028,kallum_motion_pilot,2023.2.2,Win32,144.9275362,64ebe91c18cc1f529f56b458,65d2b6c8f2eece985d8e374c,65d2bb3880b5775321caba42,0.0299,0.0299,0,121,121,161,1,fiveseven,,,,,,,,,,,,,,,,,,,,,,,,,,,,,,,,,,,,,,,,,,,,,,,,,,,,,,,,,,,,,,,,,,,,,,,,,,,,,,,,,,,,,,,,,,,,,,,,,,,,,,,,,,,,,,,,,,,,,,,,,,,,,,,,,,,,,,,,,
,,64ebe91c18cc1f529f56b458,2024-02-19_04h22.15.028,kallum_motion_pilot,2023.2.2,Win32,144.9275362,64ebe91c18cc1f529f56b458,65d2b6c8f2eece985d8e374c,65d2bb3880b5775321caba42,0.0299,0.0299,0,122,122,38,1,fourtwo,,,,,,,,,,,,,,,,,,,,,,,,,,,,,,,,,,,,,,,,,,,,,,,,,,,,,,,,,,,,,,,,,,,,,,,,,,,,,,,,,,,,,,,,,,,,,,,,,,,,,,,,,,,,,,,,,,,,,,,,,,,,,,,,,,,,,,,,,
,,64ebe91c18cc1f529f56b458,2024-02-19_04h22.15.028,kallum_motion_pilot,2023.2.2,Win32,144.9275362,64ebe91c18cc1f529f56b458,65d2b6c8f2eece985d8e374c,65d2bb3880b5775321caba42,0.03,0.0301,0,123,123,92,1,sevenfive,,,,,,,,,,,,,,,,,,,,,,,,,,,,,,,,,,,,,,,,,,,,,,,,,,,,,,,,,,,,,,,,,,,,,,,,,,,,,,,,,,,,,,,,,,,,,,,,,,,,,,,,,,,,,,,,,,,,,,,,,,,,,,,,,,,,,,,,,
,,64ebe91c18cc1f529f56b458,2024-02-19_04h22.15.028,kallum_motion_pilot,2023.2.2,Win32,144.9275362,64ebe91c18cc1f529f56b458,65d2b6c8f2eece985d8e374c,65d2bb3880b5775321caba42,0.0302,0.0302,0,124,124,93,1,seveneight,,,,,,,,,,,,,,,,,,,,,,,,,,,,,,,,,,,,,,,,,,,,,,,,,,,,,,,,,,,,,,,,,,,,,,,,,,,,,,,,,,,,,,,,,,,,,,,,,,,,,,,,,,,,,,,,,,,,,,,,,,,,,,,,,,,,,,,,,
,,64ebe91c18cc1f529f56b458,2024-02-19_04h22.15.028,kallum_motion_pilot,2023.2.2,Win32,144.9275362,64ebe91c18cc1f529f56b458,65d2b6c8f2eece985d8e374c,65d2bb3880b5775321caba42,0.0302,0.0303,0,125,125,34,1,twoone,,,,,,,,,,,,,,,,,,,,,,,,,,,,,,,,,,,,,,,,,,,,,,,,,,,,,,,,,,,,,,,,,,,,,,,,,,,,,,,,,,,,,,,,,,,,,,,,,,,,,,,,,,,,,,,,,,,,,,,,,,,,,,,,,,,,,,,,,
,,64ebe91c18cc1f529f56b458,2024-02-19_04h22.15.028,kallum_motion_pilot,2023.2.2,Win32,144.9275362,64ebe91c18cc1f529f56b458,65d2b6c8f2eece985d8e374c,65d2bb3880b5775321caba42,0.0304,0.0304,0,126,126,94,1,eightsix,,,,,,,,,,,,,,,,,,,,,,,,,,,,,,,,,,,,,,,,,,,,,,,,,,,,,,,,,,,,,,,,,,,,,,,,,,,,,,,,,,,,,,,,,,,,,,,,,,,,,,,,,,,,,,,,,,,,,,,,,,,,,,,,,,,,,,,,,
,,64ebe91c18cc1f529f56b458,2024-02-19_04h22.15.028,kallum_motion_pilot,2023.2.2,Win32,144.9275362,64ebe91c18cc1f529f56b458,65d2b6c8f2eece985d8e374c,65d2bb3880b5775321caba42,0.0305,0.0305,0,127,127,146,1,sixfive,,,,,,,,,,,,,,,,,,,,,,,,,,,,,,,,,,,,,,,,,,,,,,,,,,,,,,,,,,,,,,,,,,,,,,,,,,,,,,,,,,,,,,,,,,,,,,,,,,,,,,,,,,,,,,,,,,,,,,,,,,,,,,,,,,,,,,,,,
,,64ebe91c18cc1f529f56b458,2024-02-19_04h22.15.028,kallum_motion_pilot,2023.2.2,Win32,144.9275362,64ebe91c18cc1f529f56b458,65d2b6c8f2eece985d8e374c,65d2bb3880b5775321caba42,0.0306,0.0306,0,128,128,57,1,onethree,,,,,,,,,,,,,,,,,,,,,,,,,,,,,,,,,,,,,,,,,,,,,,,,,,,,,,,,,,,,,,,,,,,,,,,,,,,,,,,,,,,,,,,,,,,,,,,,,,,,,,,,,,,,,,,,,,,,,,,,,,,,,,,,,,,,,,,,,
,,64ebe91c18cc1f529f56b458,2024-02-19_04h22.15.028,kallum_motion_pilot,2023.2.2,Win32,144.9275362,64ebe91c18cc1f529f56b458,65d2b6c8f2eece985d8e374c,65d2bb3880b5775321caba42,0.0307,0.0307,0,129,129,49,1,onethree,,,,,,,,,,,,,,,,,,,,,,,,,,,,,,,,,,,,,,,,,,,,,,,,,,,,,,,,,,,,,,,,,,,,,,,,,,,,,,,,,,,,,,,,,,,,,,,,,,,,,,,,,,,,,,,,,,,,,,,,,,,,,,,,,,,,,,,,,
,,64ebe91c18cc1f529f56b458,2024-02-19_04h22.15.028,kallum_motion_pilot,2023.2.2,Win32,144.9275362,64ebe91c18cc1f529f56b458,65d2b6c8f2eece985d8e374c,65d2bb3880b5775321caba42,0.0308,0.0309,0,130,130,140,1,sevenfive,,,,,,,,,,,,,,,,,,,,,,,,,,,,,,,,,,,,,,,,,,,,,,,,,,,,,,,,,,,,,,,,,,,,,,,,,,,,,,,,,,,,,,,,,,,,,,,,,,,,,,,,,,,,,,,,,,,,,,,,,,,,,,,,,,,,,,,,,
,,64ebe91c18cc1f529f56b458,2024-02-19_04h22.15.028,kallum_motion_pilot,2023.2.2,Win32,144.9275362,64ebe91c18cc1f529f56b458,65d2b6c8f2eece985d8e374c,65d2bb3880b5775321caba42,0.0309,0.0309,0,131,131,21,1,threefour,,,,,,,,,,,,,,,,,,,,,,,,,,,,,,,,,,,,,,,,,,,,,,,,,,,,,,,,,,,,,,,,,,,,,,,,,,,,,,,,,,,,,,,,,,,,,,,,,,,,,,,,,,,,,,,,,,,,,,,,,,,,,,,,,,,,,,,,,
,,64ebe91c18cc1f529f56b458,2024-02-19_04h22.15.028,kallum_motion_pilot,2023.2.2,Win32,144.9275362,64ebe91c18cc1f529f56b458,65d2b6c8f2eece985d8e374c,65d2bb3880b5775321caba42,0.031,0.031,0,132,132,105,1,fiveseven,,,,,,,,,,,,,,,,,,,,,,,,,,,,,,,,,,,,,,,,,,,,,,,,,,,,,,,,,,,,,,,,,,,,,,,,,,,,,,,,,,,,,,,,,,,,,,,,,,,,,,,,,,,,,,,,,,,,,,,,,,,,,,,,,,,,,,,,,
,,64ebe91c18cc1f529f56b458,2024-02-19_04h22.15.028,kallum_motion_pilot,2023.2.2,Win32,144.9275362,64ebe91c18cc1f529f56b458,65d2b6c8f2eece985d8e374c,65d2bb3880b5775321caba42,0.0311,0.0311,0,133,133,54,1,fourtwo,,,,,,,,,,,,,,,,,,,,,,,,,,,,,,,,,,,,,,,,,,,,,,,,,,,,,,,,,,,,,,,,,,,,,,,,,,,,,,,,,,,,,,,,,,,,,,,,,,,,,,,,,,,,,,,,,,,,,,,,,,,,,,,,,,,,,,,,,
,,64ebe91c18cc1f529f56b458,2024-02-19_04h22.15.028,kallum_motion_pilot,2023.2.2,Win32,144.9275362,64ebe91c18cc1f529f56b458,65d2b6c8f2eece985d8e374c,65d2bb3880b5775321caba42,0.0312,0.0312,0,134,134,141,1,seveneight,,,,,,,,,,,,,,,,,,,,,,,,,,,,,,,,,,,,,,,,,,,,,,,,,,,,,,,,,,,,,,,,,,,,,,,,,,,,,,,,,,,,,,,,,,,,,,,,,,,,,,,,,,,,,,,,,,,,,,,,,,,,,,,,,,,,,,,,,
,,64ebe91c18cc1f529f56b458,2024-02-19_04h22.15.028,kallum_motion_pilot,2023.2.2,Win32,144.9275362,64ebe91c18cc1f529f56b458,65d2b6c8f2eece985d8e374c,65d2bb3880b5775321caba42,0.0313,0.0314,0,135,135,5,1,threefour,,,,,,,,,,,,,,,,,,,,,,,,,,,,,,,,,,,,,,,,,,,,,,,,,,,,,,,,,,,,,,,,,,,,,,,,,,,,,,,,,,,,,,,,,,,,,,,,,,,,,,,,,,,,,,,,,,,,,,,,,,,,,,,,,,,,,,,,,
,,64ebe91c18cc1f529f56b458,2024-02-19_04h22.15.028,kallum_motion_pilot,2023.2.2,Win32,144.9275362,64ebe91c18cc1f529f56b458,65d2b6c8f2eece985d8e374c,65d2bb3880b5775321caba42,0.0314,0.0314,0,136,136,91,1,sixeight,,,,,,,,,,,,,,,,,,,,,,,,,,,,,,,,,,,,,,,,,,,,,,,,,,,,,,,,,,,,,,,,,,,,,,,,,,,,,,,,,,,,,,,,,,,,,,,,,,,,,,,,,,,,,,,,,,,,,,,,,,,,,,,,,,,,,,,,,
,,64ebe91c18cc1f529f56b458,2024-02-19_04h22.15.028,kallum_motion_pilot,2023.2.2,Win32,144.9275362,64ebe91c18cc1f529f56b458,65d2b6c8f2eece985d8e374c,65d2bb3880b5775321caba42,0.0315,0.0315,0,137,137,156,1,sevenfive,,,,,,,,,,,,,,,,,,,,,,,,,,,,,,,,,,,,,,,,,,,,,,,,,,,,,,,,,,,,,,,,,,,,,,,,,,,,,,,,,,,,,,,,,,,,,,,,,,,,,,,,,,,,,,,,,,,,,,,,,,,,,,,,,,,,,,,,,
,,64ebe91c18cc1f529f56b458,2024-02-19_04h22.15.028,kallum_motion_pilot,2023.2.2,Win32,144.9275362,64ebe91c18cc1f529f56b458,65d2b6c8f2eece985d8e374c,65d2bb3880b5775321caba42,0.0316,0.0316,0,138,138,78,1,fourtwo,,,,,,,,,,,,,,,,,,,,,,,,,,,,,,,,,,,,,,,,,,,,,,,,,,,,,,,,,,,,,,,,,,,,,,,,,,,,,,,,,,,,,,,,,,,,,,,,,,,,,,,,,,,,,,,,,,,,,,,,,,,,,,,,,,,,,,,,,
,,64ebe91c18cc1f529f56b458,2024-02-19_04h22.15.028,kallum_motion_pilot,2023.2.2,Win32,144.9275362,64ebe91c18cc1f529f56b458,65d2b6c8f2eece985d8e374c,65d2bb3880b5775321caba42,0.0318,0.0319,0,139,139,108,1,sevenfive,,,,,,,,,,,,,,,,,,,,,,,,,,,,,,,,,,,,,,,,,,,,,,,,,,,,,,,,,,,,,,,,,,,,,,,,,,,,,,,,,,,,,,,,,,,,,,,,,,,,,,,,,,,,,,,,,,,,,,,,,,,,,,,,,,,,,,,,,
,,64ebe91c18cc1f529f56b458,2024-02-19_04h22.15.028,kallum_motion_pilot,2023.2.2,Win32,144.9275362,64ebe91c18cc1f529f56b458,65d2b6c8f2eece985d8e374c,65d2bb3880b5775321caba42,0.032,0.0321,0,140,140,41,1,onethree,,,,,,,,,,,,,,,,,,,,,,,,,,,,,,,,,,,,,,,,,,,,,,,,,,,,,,,,,,,,,,,,,,,,,,,,,,,,,,,,,,,,,,,,,,,,,,,,,,,,,,,,,,,,,,,,,,,,,,,,,,,,,,,,,,,,,,,,,
,,64ebe91c18cc1f529f56b458,2024-02-19_04h22.15.028,kallum_motion_pilot,2023.2.2,Win32,144.9275362,64ebe91c18cc1f529f56b458,65d2b6c8f2eece985d8e374c,65d2bb3880b5775321caba42,0.0322,0.0322,0,141,141,90,1,sixfive,,,,,,,,,,,,,,,,,,,,,,,,,,,,,,,,,,,,,,,,,,,,,,,,,,,,,,,,,,,,,,,,,,,,,,,,,,,,,,,,,,,,,,,,,,,,,,,,,,,,,,,,,,,,,,,,,,,,,,,,,,,,,,,,,,,,,,,,,
,,64ebe91c18cc1f529f56b458,2024-02-19_04h22.15.028,kallum_motion_pilot,2023.2.2,Win32,144.9275362,64ebe91c18cc1f529f56b458,65d2b6c8f2eece985d8e374c,65d2bb3880b5775321caba42,0.0323,0.0324,0,142,142,117,1,seveneight,,,,,,,,,,,,,,,,,,,,,,,,,,,,,,,,,,,,,,,,,,,,,,,,,,,,,,,,,,,,,,,,,,,,,,,,,,,,,,,,,,,,,,,,,,,,,,,,,,,,,,,,,,,,,,,,,,,,,,,,,,,,,,,,,,,,,,,,,
,,64ebe91c18cc1f529f56b458,2024-02-19_04h22.15.028,kallum_motion_pilot,2023.2.2,Win32,144.9275362,64ebe91c18cc1f529f56b458,65d2b6c8f2eece985d8e374c,65d2bb3880b5775321caba42,0.0324,0.0332,0,143,143,72,1,onetwo,,,,,,,,,,,,,,,,,,,,,,,,,,,,,,,,,,,,,,,,,,,,,,,,,,,,,,,,,,,,,,,,,,,,,,,,,,,,,,,,,,,,,,,,,,,,,,,,,,,,,,,,,,,,,,,,,,,,,,,,,,,,,,,,,,,,,,,,,
,,64ebe91c18cc1f529f56b458,2024-02-19_04h22.15.028,kallum_motion_pilot,2023.2.2,Win32,144.9275362,64ebe91c18cc1f529f56b458,65d2b6c8f2eece985d8e374c,65d2bb3880b5775321caba42,0.0333,0.0334,0,144,144,98,1,sixfive,,,,,,,,,,,,,,,,,,,,,,,,,,,,,,,,,,,,,,,,,,,,,,,,,,,,,,,,,,,,,,,,,,,,,,,,,,,,,,,,,,,,,,,,,,,,,,,,,,,,,,,,,,,,,,,,,,,,,,,,,,,,,,,,,,,,,,,,,
,,64ebe91c18cc1f529f56b458,2024-02-19_04h22.15.028,kallum_motion_pilot,2023.2.2,Win32,144.9275362,64ebe91c18cc1f529f56b458,65d2b6c8f2eece985d8e374c,65d2bb3880b5775321caba42,0.0334,0.0335,0,145,145,61,1,threefour,,,,,,,,,,,,,,,,,,,,,,,,,,,,,,,,,,,,,,,,,,,,,,,,,,,,,,,,,,,,,,,,,,,,,,,,,,,,,,,,,,,,,,,,,,,,,,,,,,,,,,,,,,,,,,,,,,,,,,,,,,,,,,,,,,,,,,,,,
,,64ebe91c18cc1f529f56b458,2024-02-19_04h22.15.028,kallum_motion_pilot,2023.2.2,Win32,144.9275362,64ebe91c18cc1f529f56b458,65d2b6c8f2eece985d8e374c,65d2bb3880b5775321caba42,0.0335,0.0336,0,146,146,109,1,seveneight,,,,,,,,,,,,,,,,,,,,,,,,,,,,,,,,,,,,,,,,,,,,,,,,,,,,,,,,,,,,,,,,,,,,,,,,,,,,,,,,,,,,,,,,,,,,,,,,,,,,,,,,,,,,,,,,,,,,,,,,,,,,,,,,,,,,,,,,,
,,64ebe91c18cc1f529f56b458,2024-02-19_04h22.15.028,kallum_motion_pilot,2023.2.2,Win32,144.9275362,64ebe91c18cc1f529f56b458,65d2b6c8f2eece985d8e374c,65d2bb3880b5775321caba42,0.0337,0.0337,0,147,147,45,1,threefour,,,,,,,,,,,,,,,,,,,,,,,,,,,,,,,,,,,,,,,,,,,,,,,,,,,,,,,,,,,,,,,,,,,,,,,,,,,,,,,,,,,,,,,,,,,,,,,,,,,,,,,,,,,,,,,,,,,,,,,,,,,,,,,,,,,,,,,,,
,,64ebe91c18cc1f529f56b458,2024-02-19_04h22.15.028,kallum_motion_pilot,2023.2.2,Win32,144.9275362,64ebe91c18cc1f529f56b458,65d2b6c8f2eece985d8e374c,65d2bb3880b5775321caba42,0.0338,0.0338,0,148,148,70,1,fourtwo,,,,,,,,,,,,,,,,,,,,,,,,,,,,,,,,,,,,,,,,,,,,,,,,,,,,,,,,,,,,,,,,,,,,,,,,,,,,,,,,,,,,,,,,,,,,,,,,,,,,,,,,,,,,,,,,,,,,,,,,,,,,,,,,,,,,,,,,,
,,64ebe91c18cc1f529f56b458,2024-02-19_04h22.15.028,kallum_motion_pilot,2023.2.2,Win32,144.9275362,64ebe91c18cc1f529f56b458,65d2b6c8f2eece985d8e374c,65d2bb3880b5775321caba42,0.0338,0.0339,0,149,149,4,1,threeone,,,,,,,,,,,,,,,,,,,,,,,,,,,,,,,,,,,,,,,,,,,,,,,,,,,,,,,,,,,,,,,,,,,,,,,,,,,,,,,,,,,,,,,,,,,,,,,,,,,,,,,,,,,,,,,,,,,,,,,,,,,,,,,,,,,,,,,,,
,,64ebe91c18cc1f529f56b458,2024-02-19_04h22.15.028,kallum_motion_pilot,2023.2.2,Win32,144.9275362,64ebe91c18cc1f529f56b458,65d2b6c8f2eece985d8e374c,65d2bb3880b5775321caba42,0.034,0.0341,0,150,150,40,1,onetwo,,,,,,,,,,,,,,,,,,,,,,,,,,,,,,,,,,,,,,,,,,,,,,,,,,,,,,,,,,,,,,,,,,,,,,,,,,,,,,,,,,,,,,,,,,,,,,,,,,,,,,,,,,,,,,,,,,,,,,,,,,,,,,,,,,,,,,,,,
,,64ebe91c18cc1f529f56b458,2024-02-19_04h22.15.028,kallum_motion_pilot,2023.2.2,Win32,144.9275362,64ebe91c18cc1f529f56b458,65d2b6c8f2eece985d8e374c,65d2bb3880b5775321caba42,0.0341,0.0341,0,151,151,74,1,twoone,,,,,,,,,,,,,,,,,,,,,,,,,,,,,,,,,,,,,,,,,,,,,,,,,,,,,,,,,,,,,,,,,,,,,,,,,,,,,,,,,,,,,,,,,,,,,,,,,,,,,,,,,,,,,,,,,,,,,,,,,,,,,,,,,,,,,,,,,
,,64ebe91c18cc1f529f56b458,2024-02-19_04h22.15.028,kallum_motion_pilot,2023.2.2,Win32,144.9275362,64ebe91c18cc1f529f56b458,65d2b6c8f2eece985d8e374c,65d2bb3880b5775321caba42,0.0341,0.0342,0,152,152,20,1,threeone,,,,,,,,,,,,,,,,,,,,,,,,,,,,,,,,,,,,,,,,,,,,,,,,,,,,,,,,,,,,,,,,,,,,,,,,,,,,,,,,,,,,,,,,,,,,,,,,,,,,,,,,,,,,,,,,,,,,,,,,,,,,,,,,,,,,,,,,,
,,64ebe91c18cc1f529f56b458,2024-02-19_04h22.15.028,kallum_motion_pilot,2023.2.2,Win32,144.9275362,64ebe91c18cc1f529f56b458,65d2b6c8f2eece985d8e374c,65d2bb3880b5775321caba42,0.0342,0.0343,0,153,153,53,1,threefour,,,,,,,,,,,,,,,,,,,,,,,,,,,,,,,,,,,,,,,,,,,,,,,,,,,,,,,,,,,,,,,,,,,,,,,,,,,,,,,,,,,,,,,,,,,,,,,,,,,,,,,,,,,,,,,,,,,,,,,,,,,,,,,,,,,,,,,,,
,,64ebe91c18cc1f529f56b458,2024-02-19_04h22.15.028,kallum_motion_pilot,2023.2.2,Win32,144.9275362,64ebe91c18cc1f529f56b458,65d2b6c8f2eece985d8e374c,65d2bb3880b5775321caba42,0.0344,0.0344,0,154,154,73,1,onethree,,,,,,,,,,,,,,,,,,,,,,,,,,,,,,,,,,,,,,,,,,,,,,,,,,,,,,,,,,,,,,,,,,,,,,,,,,,,,,,,,,,,,,,,,,,,,,,,,,,,,,,,,,,,,,,,,,,,,,,,,,,,,,,,,,,,,,,,,
,,64ebe91c18cc1f529f56b458,2024-02-19_04h22.15.028,kallum_motion_pilot,2023.2.2,Win32,144.9275362,64ebe91c18cc1f529f56b458,65d2b6c8f2eece985d8e374c,65d2bb3880b5775321caba42,0.0344,0.0345,0,155,155,43,1,twofour,,,,,,,,,,,,,,,,,,,,,,,,,,,,,,,,,,,,,,,,,,,,,,,,,,,,,,,,,,,,,,,,,,,,,,,,,,,,,,,,,,,,,,,,,,,,,,,,,,,,,,,,,,,,,,,,,,,,,,,,,,,,,,,,,,,,,,,,,
,,64ebe91c18cc1f529f56b458,2024-02-19_04h22.15.028,kallum_motion_pilot,2023.2.2,Win32,144.9275362,64ebe91c18cc1f529f56b458,65d2b6c8f2eece985d8e374c,65d2bb3880b5775321caba42,0.0346,0.0346,0,156,156,115,1,sixeight,,,,,,,,,,,,,,,,,,,,,,,,,,,,,,,,,,,,,,,,,,,,,,,,,,,,,,,,,,,,,,,,,,,,,,,,,,,,,,,,,,,,,,,,,,,,,,,,,,,,,,,,,,,,,,,,,,,,,,,,,,,,,,,,,,,,,,,,,
,,64ebe91c18cc1f529f56b458,2024-02-19_04h22.15.028,kallum_motion_pilot,2023.2.2,Win32,144.9275362,64ebe91c18cc1f529f56b458,65d2b6c8f2eece985d8e374c,65d2bb3880b5775321caba42,0.0346,0.0347,0,157,157,35,1,twofour,,,,,,,,,,,,,,,,,,,,,,,,,,,,,,,,,,,,,,,,,,,,,,,,,,,,,,,,,,,,,,,,,,,,,,,,,,,,,,,,,,,,,,,,,,,,,,,,,,,,,,,,,,,,,,,,,,,,,,,,,,,,,,,,,,,,,,,,,
,,64ebe91c18cc1f529f56b458,2024-02-19_04h22.15.028,kallum_motion_pilot,2023.2.2,Win32,144.9275362,64ebe91c18cc1f529f56b458,65d2b6c8f2eece985d8e374c,65d2bb3880b5775321caba42,0.0348,0.0348,0,158,158,128,1,fivesix,,,,,,,,,,,,,,,,,,,,,,,,,,,,,,,,,,,,,,,,,,,,,,,,,,,,,,,,,,,,,,,,,,,,,,,,,,,,,,,,,,,,,,,,,,,,,,,,,,,,,,,,,,,,,,,,,,,,,,,,,,,,,,,,,,,,,,,,,
,,64ebe91c18cc1f529f56b458,2024-02-19_04h22.15.028,kallum_motion_pilot,2023.2.2,Win32,144.9275362,64ebe91c18cc1f529f56b458,65d2b6c8f2eece985d8e374c,65d2bb3880b5775321caba42,0.0349,0.0349,0,159,159,84,1,sevenfive,,,,,,,,,,,,,,,,,,,,,,,,,,,,,,,,,,,,,,,,,,,,,,,,,,,,,,,,,,,,,,,,,,,,,,,,,,,,,,,,,,,,,,,,,,,,,,,,,,,,,,,,,,,,,,,,,,,,,,,,,,,,,,,,,,,,,,,,,
,,64ebe91c18cc1f529f56b458,2024-02-19_04h22.15.028,kallum_motion_pilot,2023.2.2,Win32,144.9275362,64ebe91c18cc1f529f56b458,65d2b6c8f2eece985d8e374c,65d2bb3880b5775321caba42,0.0349,0.0349,0,160,160,100,1,sevenfive,,,,,,,,,,,,,,,,,,,,,,,,,,,,,,,,,,,,,,,,,,,,,,,,,,,,,,,,,,,,,,,,,,,,,,,,,,,,,,,,,,,,,,,,,,,,,,,,,,,,,,,,,,,,,,,,,,,,,,,,,,,,,,,,,,,,,,,,,
,,64ebe91c18cc1f529f56b458,2024-02-19_04h22.15.028,kallum_motion_pilot,2023.2.2,Win32,144.9275362,64ebe91c18cc1f529f56b458,65d2b6c8f2eece985d8e374c,65d2bb3880b5775321caba42,0.035,0.0351,0,161,161,63,1,fourthree,,,,,,,,,,,,,,,,,,,,,,,,,,,,,,,,,,,,,,,,,,,,,,,,,,,,,,,,,,,,,,,,,,,,,,,,,,,,,,,,,,,,,,,,,,,,,,,,,,,,,,,,,,,,,,,,,,,,,,,,,,,,,,,,,,,,,,,,,
,,64ebe91c18cc1f529f56b458,2024-02-19_04h22.15.028,kallum_motion_pilot,2023.2.2,Win32,144.9275362,64ebe91c18cc1f529f56b458,65d2b6c8f2eece985d8e374c,65d2bb3880b5775321caba42,0.0352,0.0352,1,0,162,125,1,seveneight,,,,,,,,,,,,,,,,,,,,,,,,,,,,,,,,,,,,,,,,,,,,,,,,,,,,,,,,,,,,,,,,,,,,,,,,,,,,,,,,,,,,,,,,,,,,,,,,,,,,,,,,,,,,,,,,,,,,,,,,,,,,,,,,,,,,,,,,,
,,64ebe91c18cc1f529f56b458,2024-02-19_04h22.15.028,kallum_motion_pilot,2023.2.2,Win32,144.9275362,64ebe91c18cc1f529f56b458,65d2b6c8f2eece985d8e374c,65d2bb3880b5775321caba42,0.0352,0.0353,1,1,163,40,1,onetwo,,,,,,,,,,,,,,,,,,,,,,,,,,,,,,,,,,,,,,,,,,,,,,,,,,,,,,,,,,,,,,,,,,,,,,,,,,,,,,,,,,,,,,,,,,,,,,,,,,,,,,,,,,,,,,,,,,,,,,,,,,,,,,,,,,,,,,,,,
,,64ebe91c18cc1f529f56b458,2024-02-19_04h22.15.028,kallum_motion_pilot,2023.2.2,Win32,144.9275362,64ebe91c18cc1f529f56b458,65d2b6c8f2eece985d8e374c,65d2bb3880b5775321caba42,0.0353,0.0353,1,2,164,113,1,fiveseven,,,,,,,,,,,,,,,,,,,,,,,,,,,,,,,,,,,,,,,,,,,,,,,,,,,,,,,,,,,,,,,,,,,,,,,,,,,,,,,,,,,,,,,,,,,,,,,,,,,,,,,,,,,,,,,,,,,,,,,,,,,,,,,,,,,,,,,,,
,,64ebe91c18cc1f529f56b458,2024-02-19_04h22.15.028,kallum_motion_pilot,2023.2.2,Win32,144.9275362,64ebe91c18cc1f529f56b458,65d2b6c8f2eece985d8e374c,65d2bb3880b5775321caba42,0.0354,0.0355,1,3,165,91,1,sixeight,,,,,,,,,,,,,,,,,,,,,,,,,,,,,,,,,,,,,,,,,,,,,,,,,,,,,,,,,,,,,,,,,,,,,,,,,,,,,,,,,,,,,,,,,,,,,,,,,,,,,,,,,,,,,,,,,,,,,,,,,,,,,,,,,,,,,,,,,
,,64ebe91c18cc1f529f56b458,2024-02-19_04h22.15.028,kallum_motion_pilot,2023.2.2,Win32,144.9275362,64ebe91c18cc1f529f56b458,65d2b6c8f2eece985d8e374c,65d2bb3880b5775321caba42,0.0356,0.0356,1,4,166,129,1,fiveseven,,,,,,,,,,,,,,,,,,,,,,,,,,,,,,,,,,,,,,,,,,,,,,,,,,,,,,,,,,,,,,,,,,,,,,,,,,,,,,,,,,,,,,,,,,,,,,,,,,,,,,,,,,,,,,,,,,,,,,,,,,,,,,,,,,,,,,,,,
,,64ebe91c18cc1f529f56b458,2024-02-19_04h22.15.028,kallum_motion_pilot,2023.2.2,Win32,144.9275362,64ebe91c18cc1f529f56b458,65d2b6c8f2eece985d8e374c,65d2bb3880b5775321caba42,0.0357,0.0357,1,5,167,85,1,seveneight,,,,,,,,,,,,,,,,,,,,,,,,,,,,,,,,,,,,,,,,,,,,,,,,,,,,,,,,,,,,,,,,,,,,,,,,,,,,,,,,,,,,,,,,,,,,,,,,,,,,,,,,,,,,,,,,,,,,,,,,,,,,,,,,,,,,,,,,,
,,64ebe91c18cc1f529f56b458,2024-02-19_04h22.15.028,kallum_motion_pilot,2023.2.2,Win32,144.9275362,64ebe91c18cc1f529f56b458,65d2b6c8f2eece985d8e374c,65d2bb3880b5775321caba42,0.0358,0.0358,1,6,168,155,1,sixeight,,,,,,,,,,,,,,,,,,,,,,,,,,,,,,,,,,,,,,,,,,,,,,,,,,,,,,,,,,,,,,,,,,,,,,,,,,,,,,,,,,,,,,,,,,,,,,,,,,,,,,,,,,,,,,,,,,,,,,,,,,,,,,,,,,,,,,,,,
,,64ebe91c18cc1f529f56b458,2024-02-19_04h22.15.028,kallum_motion_pilot,2023.2.2,Win32,144.9275362,64ebe91c18cc1f529f56b458,65d2b6c8f2eece985d8e374c,65d2bb3880b5775321caba42,0.0358,0.0359,1,7,169,61,1,threefour,,,,,,,,,,,,,,,,,,,,,,,,,,,,,,,,,,,,,,,,,,,,,,,,,,,,,,,,,,,,,,,,,,,,,,,,,,,,,,,,,,,,,,,,,,,,,,,,,,,,,,,,,,,,,,,,,,,,,,,,,,,,,,,,,,,,,,,,,
,,64ebe91c18cc1f529f56b458,2024-02-19_04h22.15.028,kallum_motion_pilot,2023.2.2,Win32,144.9275362,64ebe91c18cc1f529f56b458,65d2b6c8f2eece985d8e374c,65d2bb3880b5775321caba42,0.0359,0.036,1,8,170,34,1,twoone,,,,,,,,,,,,,,,,,,,,,,,,,,,,,,,,,,,,,,,,,,,,,,,,,,,,,,,,,,,,,,,,,,,,,,,,,,,,,,,,,,,,,,,,,,,,,,,,,,,,,,,,,,,,,,,,,,,,,,,,,,,,,,,,,,,,,,,,,
,,64ebe91c18cc1f529f56b458,2024-02-19_04h22.15.028,kallum_motion_pilot,2023.2.2,Win32,144.9275362,64ebe91c18cc1f529f56b458,65d2b6c8f2eece985d8e374c,65d2bb3880b5775321caba42,0.0361,0.0361,1,9,171,69,1,threefour,,,,,,,,,,,,,,,,,,,,,,,,,,,,,,,,,,,,,,,,,,,,,,,,,,,,,,,,,,,,,,,,,,,,,,,,,,,,,,,,,,,,,,,,,,,,,,,,,,,,,,,,,,,,,,,,,,,,,,,,,,,,,,,,,,,,,,,,,
,,64ebe91c18cc1f529f56b458,2024-02-19_04h22.15.028,kallum_motion_pilot,2023.2.2,Win32,144.9275362,64ebe91c18cc1f529f56b458,65d2b6c8f2eece985d8e374c,65d2bb3880b5775321caba42,0.0361,0.0362,1,10,172,43,1,twofour,,,,,,,,,,,,,,,,,,,,,,,,,,,,,,,,,,,,,,,,,,,,,,,,,,,,,,,,,,,,,,,,,,,,,,,,,,,,,,,,,,,,,,,,,,,,,,,,,,,,,,,,,,,,,,,,,,,,,,,,,,,,,,,,,,,,,,,,,
,,64ebe91c18cc1f529f56b458,2024-02-19_04h22.15.028,kallum_motion_pilot,2023.2.2,Win32,144.9275362,64ebe91c18cc1f529f56b458,65d2b6c8f2eece985d8e374c,65d2bb3880b5775321caba42,0.0363,0.0363,1,11,173,64,1,onetwo,,,,,,,,,,,,,,,,,,,,,,,,,,,,,,,,,,,,,,,,,,,,,,,,,,,,,,,,,,,,,,,,,,,,,,,,,,,,,,,,,,,,,,,,,,,,,,,,,,,,,,,,,,,,,,,,,,,,,,,,,,,,,,,,,,,,,,,,,
,,64ebe91c18cc1f529f56b458,2024-02-19_04h22.15.028,kallum_motion_pilot,2023.2.2,Win32,144.9275362,64ebe91c18cc1f529f56b458,65d2b6c8f2eece985d8e374c,65d2bb3880b5775321caba42,0.0363,0.0364,1,12,174,100,1,sevenfive,,,,,,,,,,,,,,,,,,,,,,,,,,,,,,,,,,,,,,,,,,,,,,,,,,,,,,,,,,,,,,,,,,,,,,,,,,,,,,,,,,,,,,,,,,,,,,,,,,,,,,,,,,,,,,,,,,,,,,,,,,,,,,,,,,,,,,,,,
,,64ebe91c18cc1f529f56b458,2024-02-19_04h22.15.028,kallum_motion_pilot,2023.2.2,Win32,144.9275362,64ebe91c18cc1f529f56b458,65d2b6c8f2eece985d8e374c,65d2bb3880b5775321caba42,0.0365,0.0365,1,13,175,109,1,seveneight,,,,,,,,,,,,,,,,,,,,,,,,,,,,,,,,,,,,,,,,,,,,,,,,,,,,,,,,,,,,,,,,,,,,,,,,,,,,,,,,,,,,,,,,,,,,,,,,,,,,,,,,,,,,,,,,,,,,,,,,,,,,,,,,,,,,,,,,,
,,64ebe91c18cc1f529f56b458,2024-02-19_04h22.15.028,kallum_motion_pilot,2023.2.2,Win32,144.9275362,64ebe91c18cc1f529f56b458,65d2b6c8f2eece985d8e374c,65d2bb3880b5775321caba42,0.0365,0.0366,1,14,176,66,1,twoone,,,,,,,,,,,,,,,,,,,,,,,,,,,,,,,,,,,,,,,,,,,,,,,,,,,,,,,,,,,,,,,,,,,,,,,,,,,,,,,,,,,,,,,,,,,,,,,,,,,,,,,,,,,,,,,,,,,,,,,,,,,,,,,,,,,,,,,,,
,,64ebe91c18cc1f529f56b458,2024-02-19_04h22.15.028,kallum_motion_pilot,2023.2.2,Win32,144.9275362,64ebe91c18cc1f529f56b458,65d2b6c8f2eece985d8e374c,65d2bb3880b5775321caba42,0.0367,0.0367,1,15,177,68,1,threeone,,,,,,,,,,,,,,,,,,,,,,,,,,,,,,,,,,,,,,,,,,,,,,,,,,,,,,,,,,,,,,,,,,,,,,,,,,,,,,,,,,,,,,,,,,,,,,,,,,,,,,,,,,,,,,,,,,,,,,,,,,,,,,,,,,,,,,,,,
,,64ebe91c18cc1f529f56b458,2024-02-19_04h22.15.028,kallum_motion_pilot,2023.2.2,Win32,144.9275362,64ebe91c18cc1f529f56b458,65d2b6c8f2eece985d8e374c,65d2bb3880b5775321caba42,0.0367,0.0368,1,16,178,101,1,seveneight,,,,,,,,,,,,,,,,,,,,,,,,,,,,,,,,,,,,,,,,,,,,,,,,,,,,,,,,,,,,,,,,,,,,,,,,,,,,,,,,,,,,,,,,,,,,,,,,,,,,,,,,,,,,,,,,,,,,,,,,,,,,,,,,,,,,,,,,,
,,64ebe91c18cc1f529f56b458,2024-02-19_04h22.15.028,kallum_motion_pilot,2023.2.2,Win32,144.9275362,64ebe91c18cc1f529f56b458,65d2b6c8f2eece985d8e374c,65d2bb3880b5775321caba42,0.0368,0.0369,1,17,179,17,1,onethree,,,,,,,,,,,,,,,,,,,,,,,,,,,,,,,,,,,,,,,,,,,,,,,,,,,,,,,,,,,,,,,,,,,,,,,,,,,,,,,,,,,,,,,,,,,,,,,,,,,,,,,,,,,,,,,,,,,,,,,,,,,,,,,,,,,,,,,,,
,,64ebe91c18cc1f529f56b458,2024-02-19_04h22.15.028,kallum_motion_pilot,2023.2.2,Win32,144.9275362,64ebe91c18cc1f529f56b458,65d2b6c8f2eece985d8e374c,65d2bb3880b5775321caba42,0.037,0.037,1,18,180,16,1,onetwo,,,,,,,,,,,,,,,,,,,,,,,,,,,,,,,,,,,,,,,,,,,,,,,,,,,,,,,,,,,,,,,,,,,,,,,,,,,,,,,,,,,,,,,,,,,,,,,,,,,,,,,,,,,,,,,,,,,,,,,,,,,,,,,,,,,,,,,,,
,,64ebe91c18cc1f529f56b458,2024-02-19_04h22.15.028,kallum_motion_pilot,2023.2.2,Win32,144.9275362,64ebe91c18cc1f529f56b458,65d2b6c8f2eece985d8e374c,65d2bb3880b5775321caba42,0.0371,0.0372,1,19,181,41,1,onethree,,,,,,,,,,,,,,,,,,,,,,,,,,,,,,,,,,,,,,,,,,,,,,,,,,,,,,,,,,,,,,,,,,,,,,,,,,,,,,,,,,,,,,,,,,,,,,,,,,,,,,,,,,,,,,,,,,,,,,,,,,,,,,,,,,,,,,,,,
,,64ebe91c18cc1f529f56b458,2024-02-19_04h22.15.028,kallum_motion_pilot,2023.2.2,Win32,144.9275362,64ebe91c18cc1f529f56b458,65d2b6c8f2eece985d8e374c,65d2bb3880b5775321caba42,0.0372,0.0372,1,20,182,65,1,onethree,,,,,,,,,,,,,,,,,,,,,,,,,,,,,,,,,,,,,,,,,,,,,,,,,,,,,,,,,,,,,,,,,,,,,,,,,,,,,,,,,,,,,,,,,,,,,,,,,,,,,,,,,,,,,,,,,,,,,,,,,,,,,,,,,,,,,,,,,
,,64ebe91c18cc1f529f56b458,2024-02-19_04h22.15.028,kallum_motion_pilot,2023.2.2,Win32,144.9275362,64ebe91c18cc1f529f56b458,65d2b6c8f2eece985d8e374c,65d2bb3880b5775321caba42,0.0373,0.0373,1,21,183,67,1,twofour,,,,,,,,,,,,,,,,,,,,,,,,,,,,,,,,,,,,,,,,,,,,,,,,,,,,,,,,,,,,,,,,,,,,,,,,,,,,,,,,,,,,,,,,,,,,,,,,,,,,,,,,,,,,,,,,,,,,,,,,,,,,,,,,,,,,,,,,,
,,64ebe91c18cc1f529f56b458,2024-02-19_04h22.15.028,kallum_motion_pilot,2023.2.2,Win32,144.9275362,64ebe91c18cc1f529f56b458,65d2b6c8f2eece985d8e374c,65d2bb3880b5775321caba42,0.0374,0.0374,1,22,184,120,1,fivesix,,,,,,,,,,,,,,,,,,,,,,,,,,,,,,,,,,,,,,,,,,,,,,,,,,,,,,,,,,,,,,,,,,,,,,,,,,,,,,,,,,,,,,,,,,,,,,,,,,,,,,,,,,,,,,,,,,,,,,,,,,,,,,,,,,,,,,,,,
,,64ebe91c18cc1f529f56b458,2024-02-19_04h22.15.028,kallum_motion_pilot,2023.2.2,Win32,144.9275362,64ebe91c18cc1f529f56b458,65d2b6c8f2eece985d8e374c,65d2bb3880b5775321caba42,0.0375,0.0376,1,23,185,44,1,threeone,,,,,,,,,,,,,,,,,,,,,,,,,,,,,,,,,,,,,,,,,,,,,,,,,,,,,,,,,,,,,,,,,,,,,,,,,,,,,,,,,,,,,,,,,,,,,,,,,,,,,,,,,,,,,,,,,,,,,,,,,,,,,,,,,,,,,,,,,
,,64ebe91c18cc1f529f56b458,2024-02-19_04h22.15.028,kallum_motion_pilot,2023.2.2,Win32,144.9275362,64ebe91c18cc1f529f56b458,65d2b6c8f2eece985d8e374c,65d2bb3880b5775321caba42,0.0376,0.0376,1,24,186,118,1,eightsix,,,,,,,,,,,,,,,,,,,,,,,,,,,,,,,,,,,,,,,,,,,,,,,,,,,,,,,,,,,,,,,,,,,,,,,,,,,,,,,,,,,,,,,,,,,,,,,,,,,,,,,,,,,,,,,,,,,,,,,,,,,,,,,,,,,,,,,,,
,,64ebe91c18cc1f529f56b458,2024-02-19_04h22.15.028,kallum_motion_pilot,2023.2.2,Win32,144.9275362,64ebe91c18cc1f529f56b458,65d2b6c8f2eece985d8e374c,65d2bb3880b5775321caba42,0.0377,0.0377,1,25,187,112,1,fivesix,,,,,,,,,,,,,,,,,,,,,,,,,,,,,,,,,,,,,,,,,,,,,,,,,,,,,,,,,,,,,,,,,,,,,,,,,,,,,,,,,,,,,,,,,,,,,,,,,,,,,,,,,,,,,,,,,,,,,,,,,,,,,,,,,,,,,,,,,
,,64ebe91c18cc1f529f56b458,2024-02-19_04h22.15.028,kallum_motion_pilot,2023.2.2,Win32,144.9275362,64ebe91c18cc1f529f56b458,65d2b6c8f2eece985d8e374c,65d2bb3880b5775321caba42,0.0379,0.0379,1,26,188,115,1,sixeight,,,,,,,,,,,,,,,,,,,,,,,,,,,,,,,,,,,,,,,,,,,,,,,,,,,,,,,,,,,,,,,,,,,,,,,,,,,,,,,,,,,,,,,,,,,,,,,,,,,,,,,,,,,,,,,,,,,,,,,,,,,,,,,,,,,,,,,,,
,,64ebe91c18cc1f529f56b458,2024-02-19_04h22.15.028,kallum_motion_pilot,2023.2.2,Win32,144.9275362,64ebe91c18cc1f529f56b458,65d2b6c8f2eece985d8e374c,65d2bb3880b5775321caba42,0.0379,0.038,1,27,189,53,1,threefour,,,,,,,,,,,,,,,,,,,,,,,,,,,,,,,,,,,,,,,,,,,,,,,,,,,,,,,,,,,,,,,,,,,,,,,,,,,,,,,,,,,,,,,,,,,,,,,,,,,,,,,,,,,,,,,,,,,,,,,,,,,,,,,,,,,,,,,,,
,,64ebe91c18cc1f529f56b458,2024-02-19_04h22.15.028,kallum_motion_pilot,2023.2.2,Win32,144.9275362,64ebe91c18cc1f529f56b458,65d2b6c8f2eece985d8e374c,65d2bb3880b5775321caba42,0.038,0.0381,1,28,190,73,1,onethree,,,,,,,,,,,,,,,,,,,,,,,,,,,,,,,,,,,,,,,,,,,,,,,,,,,,,,,,,,,,,,,,,,,,,,,,,,,,,,,,,,,,,,,,,,,,,,,,,,,,,,,,,,,,,,,,,,,,,,,,,,,,,,,,,,,,,,,,,
,,64ebe91c18cc1f529f56b458,2024-02-19_04h22.15.028,kallum_motion_pilot,2023.2.2,Win32,144.9275362,64ebe91c18cc1f529f56b458,65d2b6c8f2eece985d8e374c,65d2bb3880b5775321caba42,0.0382,0.0382,1,29,191,93,1,seveneight,,,,,,,,,,,,,,,,,,,,,,,,,,,,,,,,,,,,,,,,,,,,,,,,,,,,,,,,,,,,,,,,,,,,,,,,,,,,,,,,,,,,,,,,,,,,,,,,,,,,,,,,,,,,,,,,,,,,,,,,,,,,,,,,,,,,,,,,,
,,64ebe91c18cc1f529f56b458,2024-02-19_04h22.15.028,kallum_motion_pilot,2023.2.2,Win32,144.9275362,64ebe91c18cc1f529f56b458,65d2b6c8f2eece985d8e374c,65d2bb3880b5775321caba42,0.0382,0.0382,1,30,192,99,1,sixeight,,,,,,,,,,,,,,,,,,,,,,,,,,,,,,,,,,,,,,,,,,,,,,,,,,,,,,,,,,,,,,,,,,,,,,,,,,,,,,,,,,,,,,,,,,,,,,,,,,,,,,,,,,,,,,,,,,,,,,,,,,,,,,,,,,,,,,,,,
,,64ebe91c18cc1f529f56b458,2024-02-19_04h22.15.028,kallum_motion_pilot,2023.2.2,Win32,144.9275362,64ebe91c18cc1f529f56b458,65d2b6c8f2eece985d8e374c,65d2bb3880b5775321caba42,0.0384,0.0384,1,31,193,30,1,fourtwo,,,,,,,,,,,,,,,,,,,,,,,,,,,,,,,,,,,,,,,,,,,,,,,,,,,,,,,,,,,,,,,,,,,,,,,,,,,,,,,,,,,,,,,,,,,,,,,,,,,,,,,,,,,,,,,,,,,,,,,,,,,,,,,,,,,,,,,,,
,,64ebe91c18cc1f529f56b458,2024-02-19_04h22.15.028,kallum_motion_pilot,2023.2.2,Win32,144.9275362,64ebe91c18cc1f529f56b458,65d2b6c8f2eece985d8e374c,65d2bb3880b5775321caba42,0.0384,0.0385,1,32,194,95,1,eightseven,,,,,,,,,,,,,,,,,,,,,,,,,,,,,,,,,,,,,,,,,,,,,,,,,,,,,,,,,,,,,,,,,,,,,,,,,,,,,,,,,,,,,,,,,,,,,,,,,,,,,,,,,,,,,,,,,,,,,,,,,,,,,,,,,,,,,,,,,
,,64ebe91c18cc1f529f56b458,2024-02-19_04h22.15.028,kallum_motion_pilot,2023.2.2,Win32,144.9275362,64ebe91c18cc1f529f56b458,65d2b6c8f2eece985d8e374c,65d2bb3880b5775321caba42,0.0386,0.0386,1,33,195,131,1,sixeight,,,,,,,,,,,,,,,,,,,,,,,,,,,,,,,,,,,,,,,,,,,,,,,,,,,,,,,,,,,,,,,,,,,,,,,,,,,,,,,,,,,,,,,,,,,,,,,,,,,,,,,,,,,,,,,,,,,,,,,,,,,,,,,,,,,,,,,,,
,,64ebe91c18cc1f529f56b458,2024-02-19_04h22.15.028,kallum_motion_pilot,2023.2.2,Win32,144.9275362,64ebe91c18cc1f529f56b458,65d2b6c8f2eece985d8e374c,65d2bb3880b5775321caba42,0.0387,0.0387,1,34,196,110,1,eightsix,,,,,,,,,,,,,,,,,,,,,,,,,,,,,,,,,,,,,,,,,,,,,,,,,,,,,,,,,,,,,,,,,,,,,,,,,,,,,,,,,,,,,,,,,,,,,,,,,,,,,,,,,,,,,,,,,,,,,,,,,,,,,,,,,,,,,,,,,
,,64ebe91c18cc1f529f56b458,2024-02-19_04h22.15.028,kallum_motion_pilot,2023.2.2,Win32,144.9275362,64ebe91c18cc1f529f56b458,65d2b6c8f2eece985d8e374c,65d2bb3880b5775321caba42,0.0389,0.039,1,35,197,158,1,eightsix,,,,,,,,,,,,,,,,,,,,,,,,,,,,,,,,,,,,,,,,,,,,,,,,,,,,,,,,,,,,,,,,,,,,,,,,,,,,,,,,,,,,,,,,,,,,,,,,,,,,,,,,,,,,,,,,,,,,,,,,,,,,,,,,,,,,,,,,,
,,64ebe91c18cc1f529f56b458,2024-02-19_04h22.15.028,kallum_motion_pilot,2023.2.2,Win32,144.9275362,64ebe91c18cc1f529f56b458,65d2b6c8f2eece985d8e374c,65d2bb3880b5775321caba42,0.0391,0.0392,1,36,198,22,1,fourtwo,,,,,,,,,,,,,,,,,,,,,,,,,,,,,,,,,,,,,,,,,,,,,,,,,,,,,,,,,,,,,,,,,,,,,,,,,,,,,,,,,,,,,,,,,,,,,,,,,,,,,,,,,,,,,,,,,,,,,,,,,,,,,,,,,,,,,,,,,
,,64ebe91c18cc1f529f56b458,2024-02-19_04h22.15.028,kallum_motion_pilot,2023.2.2,Win32,144.9275362,64ebe91c18cc1f529f56b458,65d2b6c8f2eece985d8e374c,65d2bb3880b5775321caba42,0.0393,0.0394,1,37,199,149,1,seveneight,,,,,,,,,,,,,,,,,,,,,,,,,,,,,,,,,,,,,,,,,,,,,,,,,,,,,,,,,,,,,,,,,,,,,,,,,,,,,,,,,,,,,,,,,,,,,,,,,,,,,,,,,,,,,,,,,,,,,,,,,,,,,,,,,,,,,,,,,
,,64ebe91c18cc1f529f56b458,2024-02-19_04h22.15.028,kallum_motion_pilot,2023.2.2,Win32,144.9275362,64ebe91c18cc1f529f56b458,65d2b6c8f2eece985d8e374c,65d2bb3880b5775321caba42,0.0394,0.0396,1,38,200,3,1,twofour,,,,,,,,,,,,,,,,,,,,,,,,,,,,,,,,,,,,,,,,,,,,,,,,,,,,,,,,,,,,,,,,,,,,,,,,,,,,,,,,,,,,,,,,,,,,,,,,,,,,,,,,,,,,,,,,,,,,,,,,,,,,,,,,,,,,,,,,,
,,64ebe91c18cc1f529f56b458,2024-02-19_04h22.15.028,kallum_motion_pilot,2023.2.2,Win32,144.9275362,64ebe91c18cc1f529f56b458,65d2b6c8f2eece985d8e374c,65d2bb3880b5775321caba42,0.0398,0.0399,1,39,201,56,1,onetwo,,,,,,,,,,,,,,,,,,,,,,,,,,,,,,,,,,,,,,,,,,,,,,,,,,,,,,,,,,,,,,,,,,,,,,,,,,,,,,,,,,,,,,,,,,,,,,,,,,,,,,,,,,,,,,,,,,,,,,,,,,,,,,,,,,,,,,,,,
,,64ebe91c18cc1f529f56b458,2024-02-19_04h22.15.028,kallum_motion_pilot,2023.2.2,Win32,144.9275362,64ebe91c18cc1f529f56b458,65d2b6c8f2eece985d8e374c,65d2bb3880b5775321caba42,0.04,0.04,1,40,202,89,1,fiveseven,,,,,,,,,,,,,,,,,,,,,,,,,,,,,,,,,,,,,,,,,,,,,,,,,,,,,,,,,,,,,,,,,,,,,,,,,,,,,,,,,,,,,,,,,,,,,,,,,,,,,,,,,,,,,,,,,,,,,,,,,,,,,,,,,,,,,,,,,
,,64ebe91c18cc1f529f56b458,2024-02-19_04h22.15.028,kallum_motion_pilot,2023.2.2,Win32,144.9275362,64ebe91c18cc1f529f56b458,65d2b6c8f2eece985d8e374c,65d2bb3880b5775321caba42,0.04,0.0401,1,41,203,127,1,eightseven,,,,,,,,,,,,,,,,,,,,,,,,,,,,,,,,,,,,,,,,,,,,,,,,,,,,,,,,,,,,,,,,,,,,,,,,,,,,,,,,,,,,,,,,,,,,,,,,,,,,,,,,,,,,,,,,,,,,,,,,,,,,,,,,,,,,,,,,,
,,64ebe91c18cc1f529f56b458,2024-02-19_04h22.15.028,kallum_motion_pilot,2023.2.2,Win32,144.9275362,64ebe91c18cc1f529f56b458,65d2b6c8f2eece985d8e374c,65d2bb3880b5775321caba42,0.0402,0.0403,1,42,204,86,1,eightsix,,,,,,,,,,,,,,,,,,,,,,,,,,,,,,,,,,,,,,,,,,,,,,,,,,,,,,,,,,,,,,,,,,,,,,,,,,,,,,,,,,,,,,,,,,,,,,,,,,,,,,,,,,,,,,,,,,,,,,,,,,,,,,,,,,,,,,,,,
,,64ebe91c18cc1f529f56b458,2024-02-19_04h22.15.028,kallum_motion_pilot,2023.2.2,Win32,144.9275362,64ebe91c18cc1f529f56b458,65d2b6c8f2eece985d8e374c,65d2bb3880b5775321caba42,0.0403,0.0404,1,43,205,45,1,threefour,,,,,,,,,,,,,,,,,,,,,,,,,,,,,,,,,,,,,,,,,,,,,,,,,,,,,,,,,,,,,,,,,,,,,,,,,,,,,,,,,,,,,,,,,,,,,,,,,,,,,,,,,,,,,,,,,,,,,,,,,,,,,,,,,,,,,,,,,
,,64ebe91c18cc1f529f56b458,2024-02-19_04h22.15.028,kallum_motion_pilot,2023.2.2,Win32,144.9275362,64ebe91c18cc1f529f56b458,65d2b6c8f2eece985d8e374c,65d2bb3880b5775321caba42,0.0404,0.0404,1,44,206,145,1,fiveseven,,,,,,,,,,,,,,,,,,,,,,,,,,,,,,,,,,,,,,,,,,,,,,,,,,,,,,,,,,,,,,,,,,,,,,,,,,,,,,,,,,,,,,,,,,,,,,,,,,,,,,,,,,,,,,,,,,,,,,,,,,,,,,,,,,,,,,,,,
,,64ebe91c18cc1f529f56b458,2024-02-19_04h22.15.028,kallum_motion_pilot,2023.2.2,Win32,144.9275362,64ebe91c18cc1f529f56b458,65d2b6c8f2eece985d8e374c,65d2bb3880b5775321caba42,0.0405,0.0406,1,45,207,13,1,threefour,,,,,,,,,,,,,,,,,,,,,,,,,,,,,,,,,,,,,,,,,,,,,,,,,,,,,,,,,,,,,,,,,,,,,,,,,,,,,,,,,,,,,,,,,,,,,,,,,,,,,,,,,,,,,,,,,,,,,,,,,,,,,,,,,,,,,,,,,
,,64ebe91c18cc1f529f56b458,2024-02-19_04h22.15.028,kallum_motion_pilot,2023.2.2,Win32,144.9275362,64ebe91c18cc1f529f56b458,65d2b6c8f2eece985d8e374c,65d2bb3880b5775321caba42,0.0406,0.0406,1,46,208,18,1,twoone,,,,,,,,,,,,,,,,,,,,,,,,,,,,,,,,,,,,,,,,,,,,,,,,,,,,,,,,,,,,,,,,,,,,,,,,,,,,,,,,,,,,,,,,,,,,,,,,,,,,,,,,,,,,,,,,,,,,,,,,,,,,,,,,,,,,,,,,,
,,64ebe91c18cc1f529f56b458,2024-02-19_04h22.15.028,kallum_motion_pilot,2023.2.2,Win32,144.9275362,64ebe91c18cc1f529f56b458,65d2b6c8f2eece985d8e374c,65d2bb3880b5775321caba42,0.0408,0.0408,1,47,209,57,1,onethree,,,,,,,,,,,,,,,,,,,,,,,,,,,,,,,,,,,,,,,,,,,,,,,,,,,,,,,,,,,,,,,,,,,,,,,,,,,,,,,,,,,,,,,,,,,,,,,,,,,,,,,,,,,,,,,,,,,,,,,,,,,,,,,,,,,,,,,,,
,,64ebe91c18cc1f529f56b458,2024-02-19_04h22.15.028,kallum_motion_pilot,2023.2.2,Win32,144.9275362,64ebe91c18cc1f529f56b458,65d2b6c8f2eece985d8e374c,65d2bb3880b5775321caba42,0.0408,0.0408,1,48,210,2,1,twoone,,,,,,,,,,,,,,,,,,,,,,,,,,,,,,,,,,,,,,,,,,,,,,,,,,,,,,,,,,,,,,,,,,,,,,,,,,,,,,,,,,,,,,,,,,,,,,,,,,,,,,,,,,,,,,,,,,,,,,,,,,,,,,,,,,,,,,,,,
,,64ebe91c18cc1f529f56b458,2024-02-19_04h22.15.028,kallum_motion_pilot,2023.2.2,Win32,144.9275362,64ebe91c18cc1f529f56b458,65d2b6c8f2eece985d8e374c,65d2bb3880b5775321caba42,0.0409,0.041,1,49,211,21,1,threefour,,,,,,,,,,,,,,,,,,,,,,,,,,,,,,,,,,,,,,,,,,,,,,,,,,,,,,,,,,,,,,,,,,,,,,,,,,,,,,,,,,,,,,,,,,,,,,,,,,,,,,,,,,,,,,,,,,,,,,,,,,,,,,,,,,,,,,,,,
,,64ebe91c18cc1f529f56b458,2024-02-19_04h22.15.028,kallum_motion_pilot,2023.2.2,Win32,144.9275362,64ebe91c18cc1f529f56b458,65d2b6c8f2eece985d8e374c,65d2bb3880b5775321caba42,0.0411,0.0411,1,50,212,132,1,sevenfive,,,,,,,,,,,,,,,,,,,,,,,,,,,,,,,,,,,,,,,,,,,,,,,,,,,,,,,,,,,,,,,,,,,,,,,,,,,,,,,,,,,,,,,,,,,,,,,,,,,,,,,,,,,,,,,,,,,,,,,,,,,,,,,,,,,,,,,,,
,,64ebe91c18cc1f529f56b458,2024-02-19_04h22.15.028,kallum_motion_pilot,2023.2.2,Win32,144.9275362,64ebe91c18cc1f529f56b458,65d2b6c8f2eece985d8e374c,65d2bb3880b5775321caba42,0.0412,0.0412,1,51,213,60,1,threeone,,,,,,,,,,,,,,,,,,,,,,,,,,,,,,,,,,,,,,,,,,,,,,,,,,,,,,,,,,,,,,,,,,,,,,,,,,,,,,,,,,,,,,,,,,,,,,,,,,,,,,,,,,,,,,,,,,,,,,,,,,,,,,,,,,,,,,,,,
,,64ebe91c18cc1f529f56b458,2024-02-19_04h22.15.028,kallum_motion_pilot,2023.2.2,Win32,144.9275362,64ebe91c18cc1f529f56b458,65d2b6c8f2eece985d8e374c,65d2bb3880b5775321caba42,0.0413,0.0413,1,52,214,11,1,twofour,,,,,,,,,,,,,,,,,,,,,,,,,,,,,,,,,,,,,,,,,,,,,,,,,,,,,,,,,,,,,,,,,,,,,,,,,,,,,,,,,,,,,,,,,,,,,,,,,,,,,,,,,,,,,,,,,,,,,,,,,,,,,,,,,,,,,,,,,
,,64ebe91c18cc1f529f56b458,2024-02-19_04h22.15.028,kallum_motion_pilot,2023.2.2,Win32,144.9275362,64ebe91c18cc1f529f56b458,65d2b6c8f2eece985d8e374c,65d2bb3880b5775321caba42,0.0413,0.0414,1,53,215,51,1,twofour,,,,,,,,,,,,,,,,,,,,,,,,,,,,,,,,,,,,,,,,,,,,,,,,,,,,,,,,,,,,,,,,,,,,,,,,,,,,,,,,,,,,,,,,,,,,,,,,,,,,,,,,,,,,,,,,,,,,,,,,,,,,,,,,,,,,,,,,,
,,64ebe91c18cc1f529f56b458,2024-02-19_04h22.15.028,kallum_motion_pilot,2023.2.2,Win32,144.9275362,64ebe91c18cc1f529f56b458,65d2b6c8f2eece985d8e374c,65d2bb3880b5775321caba42,0.0415,0.0415,1,54,216,146,1,sixfive,,,,,,,,,,,,,,,,,,,,,,,,,,,,,,,,,,,,,,,,,,,,,,,,,,,,,,,,,,,,,,,,,,,,,,,,,,,,,,,,,,,,,,,,,,,,,,,,,,,,,,,,,,,,,,,,,,,,,,,,,,,,,,,,,,,,,,,,,
,,64ebe91c18cc1f529f56b458,2024-02-19_04h22.15.028,kallum_motion_pilot,2023.2.2,Win32,144.9275362,64ebe91c18cc1f529f56b458,65d2b6c8f2eece985d8e374c,65d2bb3880b5775321caba42,0.0415,0.0416,1,55,217,130,1,sixfive,,,,,,,,,,,,,,,,,,,,,,,,,,,,,,,,,,,,,,,,,,,,,,,,,,,,,,,,,,,,,,,,,,,,,,,,,,,,,,,,,,,,,,,,,,,,,,,,,,,,,,,,,,,,,,,,,,,,,,,,,,,,,,,,,,,,,,,,,
,,64ebe91c18cc1f529f56b458,2024-02-19_04h22.15.028,kallum_motion_pilot,2023.2.2,Win32,144.9275362,64ebe91c18cc1f529f56b458,65d2b6c8f2eece985d8e374c,65d2bb3880b5775321caba42,0.0417,0.0417,1,56,218,128,1,fivesix,,,,,,,,,,,,,,,,,,,,,,,,,,,,,,,,,,,,,,,,,,,,,,,,,,,,,,,,,,,,,,,,,,,,,,,,,,,,,,,,,,,,,,,,,,,,,,,,,,,,,,,,,,,,,,,,,,,,,,,,,,,,,,,,,,,,,,,,,
,,64ebe91c18cc1f529f56b458,2024-02-19_04h22.15.028,kallum_motion_pilot,2023.2.2,Win32,144.9275362,64ebe91c18cc1f529f56b458,65d2b6c8f2eece985d8e374c,65d2bb3880b5775321caba42,0.0418,0.0419,1,57,219,6,1,fourtwo,,,,,,,,,,,,,,,,,,,,,,,,,,,,,,,,,,,,,,,,,,,,,,,,,,,,,,,,,,,,,,,,,,,,,,,,,,,,,,,,,,,,,,,,,,,,,,,,,,,,,,,,,,,,,,,,,,,,,,,,,,,,,,,,,,,,,,,,,
,,64ebe91c18cc1f529f56b458,2024-02-19_04h22.15.028,kallum_motion_pilot,2023.2.2,Win32,144.9275362,64ebe91c18cc1f529f56b458,65d2b6c8f2eece985d8e374c,65d2bb3880b5775321caba42,0.0419,0.0419,1,58,220,135,1,eightseven,,,,,,,,,,,,,,,,,,,,,,,,,,,,,,,,,,,,,,,,,,,,,,,,,,,,,,,,,,,,,,,,,,,,,,,,,,,,,,,,,,,,,,,,,,,,,,,,,,,,,,,,,,,,,,,,,,,,,,,,,,,,,,,,,,,,,,,,,
,,64ebe91c18cc1f529f56b458,2024-02-19_04h22.15.028,kallum_motion_pilot,2023.2.2,Win32,144.9275362,64ebe91c18cc1f529f56b458,65d2b6c8f2eece985d8e374c,65d2bb3880b5775321caba42,0.042,0.0421,1,59,221,90,1,sixfive,,,,,,,,,,,,,,,,,,,,,,,,,,,,,,,,,,,,,,,,,,,,,,,,,,,,,,,,,,,,,,,,,,,,,,,,,,,,,,,,,,,,,,,,,,,,,,,,,,,,,,,,,,,,,,,,,,,,,,,,,,,,,,,,,,,,,,,,,
,,64ebe91c18cc1f529f56b458,2024-02-19_04h22.15.028,kallum_motion_pilot,2023.2.2,Win32,144.9275362,64ebe91c18cc1f529f56b458,65d2b6c8f2eece985d8e374c,65d2bb3880b5775321caba42,0.0421,0.0422,1,60,222,24,1,onetwo,,,,,,,,,,,,,,,,,,,,,,,,,,,,,,,,,,,,,,,,,,,,,,,,,,,,,,,,,,,,,,,,,,,,,,,,,,,,,,,,,,,,,,,,,,,,,,,,,,,,,,,,,,,,,,,,,,,,,,,,,,,,,,,,,,,,,,,,,
,,64ebe91c18cc1f529f56b458,2024-02-19_04h22.15.028,kallum_motion_pilot,2023.2.2,Win32,144.9275362,64ebe91c18cc1f529f56b458,65d2b6c8f2eece985d8e374c,65d2bb3880b5775321caba42,0.0422,0.0423,1,61,223,80,1,fivesix,,,,,,,,,,,,,,,,,,,,,,,,,,,,,,,,,,,,,,,,,,,,,,,,,,,,,,,,,,,,,,,,,,,,,,,,,,,,,,,,,,,,,,,,,,,,,,,,,,,,,,,,,,,,,,,,,,,,,,,,,,,,,,,,,,,,,,,,,
,,64ebe91c18cc1f529f56b458,2024-02-19_04h22.15.028,kallum_motion_pilot,2023.2.2,Win32,144.9275362,64ebe91c18cc1f529f56b458,65d2b6c8f2eece985d8e374c,65d2bb3880b5775321caba42,0.0423,0.0425,1,62,224,159,1,eightseven,,,,,,,,,,,,,,,,,,,,,,,,,,,,,,,,,,,,,,,,,,,,,,,,,,,,,,,,,,,,,,,,,,,,,,,,,,,,,,,,,,,,,,,,,,,,,,,,,,,,,,,,,,,,,,,,,,,,,,,,,,,,,,,,,,,,,,,,,
,,64ebe91c18cc1f529f56b458,2024-02-19_04h22.15.028,kallum_motion_pilot,2023.2.2,Win32,144.9275362,64ebe91c18cc1f529f56b458,65d2b6c8f2eece985d8e374c,65d2bb3880b5775321caba42,0.0425,0.0426,1,63,225,19,1,twofour,,,,,,,,,,,,,,,,,,,,,,,,,,,,,,,,,,,,,,,,,,,,,,,,,,,,,,,,,,,,,,,,,,,,,,,,,,,,,,,,,,,,,,,,,,,,,,,,,,,,,,,,,,,,,,,,,,,,,,,,,,,,,,,,,,,,,,,,,
,,64ebe91c18cc1f529f56b458,2024-02-19_04h22.15.028,kallum_motion_pilot,2023.2.2,Win32,144.9275362,64ebe91c18cc1f529f56b458,65d2b6c8f2eece985d8e374c,65d2bb3880b5775321caba42,0.0426,0.0426,1,64,226,111,1,eightseven,,,,,,,,,,,,,,,,,,,,,,,,,,,,,,,,,,,,,,,,,,,,,,,,,,,,,,,,,,,,,,,,,,,,,,,,,,,,,,,,,,,,,,,,,,,,,,,,,,,,,,,,,,,,,,,,,,,,,,,,,,,,,,,,,,,,,,,,,
,,64ebe91c18cc1f529f56b458,2024-02-19_04h22.15.028,kallum_motion_pilot,2023.2.2,Win32,144.9275362,64ebe91c18cc1f529f56b458,65d2b6c8f2eece985d8e374c,65d2bb3880b5775321caba42,0.0427,0.0427,1,65,227,97,1,fiveseven,,,,,,,,,,,,,,,,,,,,,,,,,,,,,,,,,,,,,,,,,,,,,,,,,,,,,,,,,,,,,,,,,,,,,,,,,,,,,,,,,,,,,,,,,,,,,,,,,,,,,,,,,,,,,,,,,,,,,,,,,,,,,,,,,,,,,,,,,
,,64ebe91c18cc1f529f56b458,2024-02-19_04h22.15.028,kallum_motion_pilot,2023.2.2,Win32,144.9275362,64ebe91c18cc1f529f56b458,65d2b6c8f2eece985d8e374c,65d2bb3880b5775321caba42,0.0428,0.0429,1,66,228,20,1,threeone,,,,,,,,,,,,,,,,,,,,,,,,,,,,,,,,,,,,,,,,,,,,,,,,,,,,,,,,,,,,,,,,,,,,,,,,,,,,,,,,,,,,,,,,,,,,,,,,,,,,,,,,,,,,,,,,,,,,,,,,,,,,,,,,,,,,,,,,,
,,64ebe91c18cc1f529f56b458,2024-02-19_04h22.15.028,kallum_motion_pilot,2023.2.2,Win32,144.9275362,64ebe91c18cc1f529f56b458,65d2b6c8f2eece985d8e374c,65d2bb3880b5775321caba42,0.0429,0.043,1,67,229,31,1,fourthree,,,,,,,,,,,,,,,,,,,,,,,,,,,,,,,,,,,,,,,,,,,,,,,,,,,,,,,,,,,,,,,,,,,,,,,,,,,,,,,,,,,,,,,,,,,,,,,,,,,,,,,,,,,,,,,,,,,,,,,,,,,,,,,,,,,,,,,,,
,,64ebe91c18cc1f529f56b458,2024-02-19_04h22.15.028,kallum_motion_pilot,2023.2.2,Win32,144.9275362,64ebe91c18cc1f529f56b458,65d2b6c8f2eece985d8e374c,65d2bb3880b5775321caba42,0.0431,0.0431,1,68,230,63,1,fourthree,,,,,,,,,,,,,,,,,,,,,,,,,,,,,,,,,,,,,,,,,,,,,,,,,,,,,,,,,,,,,,,,,,,,,,,,,,,,,,,,,,,,,,,,,,,,,,,,,,,,,,,,,,,,,,,,,,,,,,,,,,,,,,,,,,,,,,,,,
,,64ebe91c18cc1f529f56b458,2024-02-19_04h22.15.028,kallum_motion_pilot,2023.2.2,Win32,144.9275362,64ebe91c18cc1f529f56b458,65d2b6c8f2eece985d8e374c,65d2bb3880b5775321caba42,0.0432,0.0433,1,69,231,9,1,onethree,,,,,,,,,,,,,,,,,,,,,,,,,,,,,,,,,,,,,,,,,,,,,,,,,,,,,,,,,,,,,,,,,,,,,,,,,,,,,,,,,,,,,,,,,,,,,,,,,,,,,,,,,,,,,,,,,,,,,,,,,,,,,,,,,,,,,,,,,
,,64ebe91c18cc1f529f56b458,2024-02-19_04h22.15.028,kallum_motion_pilot,2023.2.2,Win32,144.9275362,64ebe91c18cc1f529f56b458,65d2b6c8f2eece985d8e374c,65d2bb3880b5775321caba42,0.0433,0.0433,1,70,232,28,1,threeone,,,,,,,,,,,,,,,,,,,,,,,,,,,,,,,,,,,,,,,,,,,,,,,,,,,,,,,,,,,,,,,,,,,,,,,,,,,,,,,,,,,,,,,,,,,,,,,,,,,,,,,,,,,,,,,,,,,,,,,,,,,,,,,,,,,,,,,,,
,,64ebe91c18cc1f529f56b458,2024-02-19_04h22.15.028,kallum_motion_pilot,2023.2.2,Win32,144.9275362,64ebe91c18cc1f529f56b458,65d2b6c8f2eece985d8e374c,65d2bb3880b5775321caba42,0.0434,0.0435,1,71,233,42,1,twoone,,,,,,,,,,,,,,,,,,,,,,,,,,,,,,,,,,,,,,,,,,,,,,,,,,,,,,,,,,,,,,,,,,,,,,,,,,,,,,,,,,,,,,,,,,,,,,,,,,,,,,,,,,,,,,,,,,,,,,,,,,,,,,,,,,,,,,,,,
,,64ebe91c18cc1f529f56b458,2024-02-19_04h22.15.028,kallum_motion_pilot,2023.2.2,Win32,144.9275362,64ebe91c18cc1f529f56b458,65d2b6c8f2eece985d8e374c,65d2bb3880b5775321caba42,0.0435,0.0436,1,72,234,124,1,sevenfive,,,,,,,,,,,,,,,,,,,,,,,,,,,,,,,,,,,,,,,,,,,,,,,,,,,,,,,,,,,,,,,,,,,,,,,,,,,,,,,,,,,,,,,,,,,,,,,,,,,,,,,,,,,,,,,,,,,,,,,,,,,,,,,,,,,,,,,,,
,,64ebe91c18cc1f529f56b458,2024-02-19_04h22.15.028,kallum_motion_pilot,2023.2.2,Win32,144.9275362,64ebe91c18cc1f529f56b458,65d2b6c8f2eece985d8e374c,65d2bb3880b5775321caba42,0.0436,0.0436,1,73,235,12,1,threeone,,,,,,,,,,,,,,,,,,,,,,,,,,,,,,,,,,,,,,,,,,,,,,,,,,,,,,,,,,,,,,,,,,,,,,,,,,,,,,,,,,,,,,,,,,,,,,,,,,,,,,,,,,,,,,,,,,,,,,,,,,,,,,,,,,,,,,,,,
,,64ebe91c18cc1f529f56b458,2024-02-19_04h22.15.028,kallum_motion_pilot,2023.2.2,Win32,144.9275362,64ebe91c18cc1f529f56b458,65d2b6c8f2eece985d8e374c,65d2bb3880b5775321caba42,0.0437,0.0438,1,74,236,161,1,fiveseven,,,,,,,,,,,,,,,,,,,,,,,,,,,,,,,,,,,,,,,,,,,,,,,,,,,,,,,,,,,,,,,,,,,,,,,,,,,,,,,,,,,,,,,,,,,,,,,,,,,,,,,,,,,,,,,,,,,,,,,,,,,,,,,,,,,,,,,,,
,,64ebe91c18cc1f529f56b458,2024-02-19_04h22.15.028,kallum_motion_pilot,2023.2.2,Win32,144.9275362,64ebe91c18cc1f529f56b458,65d2b6c8f2eece985d8e374c,65d2bb3880b5775321caba42,0.0439,0.044,1,75,237,48,1,onetwo,,,,,,,,,,,,,,,,,,,,,,,,,,,,,,,,,,,,,,,,,,,,,,,,,,,,,,,,,,,,,,,,,,,,,,,,,,,,,,,,,,,,,,,,,,,,,,,,,,,,,,,,,,,,,,,,,,,,,,,,,,,,,,,,,,,,,,,,,
,,64ebe91c18cc1f529f56b458,2024-02-19_04h22.15.028,kallum_motion_pilot,2023.2.2,Win32,144.9275362,64ebe91c18cc1f529f56b458,65d2b6c8f2eece985d8e374c,65d2bb3880b5775321caba42,0.044,0.044,1,76,238,92,1,sevenfive,,,,,,,,,,,,,,,,,,,,,,,,,,,,,,,,,,,,,,,,,,,,,,,,,,,,,,,,,,,,,,,,,,,,,,,,,,,,,,,,,,,,,,,,,,,,,,,,,,,,,,,,,,,,,,,,,,,,,,,,,,,,,,,,,,,,,,,,,
,,64ebe91c18cc1f529f56b458,2024-02-19_04h22.15.028,kallum_motion_pilot,2023.2.2,Win32,144.9275362,64ebe91c18cc1f529f56b458,65d2b6c8f2eece985d8e374c,65d2bb3880b5775321caba42,0.0441,0.0441,1,77,239,81,1,fiveseven,,,,,,,,,,,,,,,,,,,,,,,,,,,,,,,,,,,,,,,,,,,,,,,,,,,,,,,,,,,,,,,,,,,,,,,,,,,,,,,,,,,,,,,,,,,,,,,,,,,,,,,,,,,,,,,,,,,,,,,,,,,,,,,,,,,,,,,,,
,,64ebe91c18cc1f529f56b458,2024-02-19_04h22.15.028,kallum_motion_pilot,2023.2.2,Win32,144.9275362,64ebe91c18cc1f529f56b458,65d2b6c8f2eece985d8e374c,65d2bb3880b5775321caba42,0.0441,0.0442,1,78,240,126,1,eightsix,,,,,,,,,,,,,,,,,,,,,,,,,,,,,,,,,,,,,,,,,,,,,,,,,,,,,,,,,,,,,,,,,,,,,,,,,,,,,,,,,,,,,,,,,,,,,,,,,,,,,,,,,,,,,,,,,,,,,,,,,,,,,,,,,,,,,,,,,
,,64ebe91c18cc1f529f56b458,2024-02-19_04h22.15.028,kallum_motion_pilot,2023.2.2,Win32,144.9275362,64ebe91c18cc1f529f56b458,65d2b6c8f2eece985d8e374c,65d2bb3880b5775321caba42,0.0443,0.0444,1,79,241,26,1,twoone,,,,,,,,,,,,,,,,,,,,,,,,,,,,,,,,,,,,,,,,,,,,,,,,,,,,,,,,,,,,,,,,,,,,,,,,,,,,,,,,,,,,,,,,,,,,,,,,,,,,,,,,,,,,,,,,,,,,,,,,,,,,,,,,,,,,,,,,,
,,64ebe91c18cc1f529f56b458,2024-02-19_04h22.15.028,kallum_motion_pilot,2023.2.2,Win32,144.9275362,64ebe91c18cc1f529f56b458,65d2b6c8f2eece985d8e374c,65d2bb3880b5775321caba42,0.0444,0.0445,1,80,242,106,1,sixfive,,,,,,,,,,,,,,,,,,,,,,,,,,,,,,,,,,,,,,,,,,,,,,,,,,,,,,,,,,,,,,,,,,,,,,,,,,,,,,,,,,,,,,,,,,,,,,,,,,,,,,,,,,,,,,,,,,,,,,,,,,,,,,,,,,,,,,,,,
,,64ebe91c18cc1f529f56b458,2024-02-19_04h22.15.028,kallum_motion_pilot,2023.2.2,Win32,144.9275362,64ebe91c18cc1f529f56b458,65d2b6c8f2eece985d8e374c,65d2bb3880b5775321caba42,0.0445,0.0446,1,81,243,79,1,eightseven,,,,,,,,,,,,,,,,,,,,,,,,,,,,,,,,,,,,,,,,,,,,,,,,,,,,,,,,,,,,,,,,,,,,,,,,,,,,,,,,,,,,,,,,,,,,,,,,,,,,,,,,,,,,,,,,,,,,,,,,,,,,,,,,,,,,,,,,,
,,64ebe91c18cc1f529f56b458,2024-02-19_04h22.15.028,kallum_motion_pilot,2023.2.2,Win32,144.9275362,64ebe91c18cc1f529f56b458,65d2b6c8f2eece985d8e374c,65d2bb3880b5775321caba42,0.0446,0.0447,1,82,244,76,1,threeone,,,,,,,,,,,,,,,,,,,,,,,,,,,,,,,,,,,,,,,,,,,,,,,,,,,,,,,,,,,,,,,,,,,,,,,,,,,,,,,,,,,,,,,,,,,,,,,,,,,,,,,,,,,,,,,,,,,,,,,,,,,,,,,,,,,,,,,,,
,,64ebe91c18cc1f529f56b458,2024-02-19_04h22.15.028,kallum_motion_pilot,2023.2.2,Win32,144.9275362,64ebe91c18cc1f529f56b458,65d2b6c8f2eece985d8e374c,65d2bb3880b5775321caba42,0.0448,0.0449,1,83,245,5,1,threefour,,,,,,,,,,,,,,,,,,,,,,,,,,,,,,,,,,,,,,,,,,,,,,,,,,,,,,,,,,,,,,,,,,,,,,,,,,,,,,,,,,,,,,,,,,,,,,,,,,,,,,,,,,,,,,,,,,,,,,,,,,,,,,,,,,,,,,,,,
,,64ebe91c18cc1f529f56b458,2024-02-19_04h22.15.028,kallum_motion_pilot,2023.2.2,Win32,144.9275362,64ebe91c18cc1f529f56b458,65d2b6c8f2eece985d8e374c,65d2bb3880b5775321caba42,0.0449,0.0449,1,84,246,27,1,twofour,,,,,,,,,,,,,,,,,,,,,,,,,,,,,,,,,,,,,,,,,,,,,,,,,,,,,,,,,,,,,,,,,,,,,,,,,,,,,,,,,,,,,,,,,,,,,,,,,,,,,,,,,,,,,,,,,,,,,,,,,,,,,,,,,,,,,,,,,
,,64ebe91c18cc1f529f56b458,2024-02-19_04h22.15.028,kallum_motion_pilot,2023.2.2,Win32,144.9275362,64ebe91c18cc1f529f56b458,65d2b6c8f2eece985d8e374c,65d2bb3880b5775321caba42,0.0449,0.045,1,85,247,37,1,threefour,,,,,,,,,,,,,,,,,,,,,,,,,,,,,,,,,,,,,,,,,,,,,,,,,,,,,,,,,,,,,,,,,,,,,,,,,,,,,,,,,,,,,,,,,,,,,,,,,,,,,,,,,,,,,,,,,,,,,,,,,,,,,,,,,,,,,,,,,
,,64ebe91c18cc1f529f56b458,2024-02-19_04h22.15.028,kallum_motion_pilot,2023.2.2,Win32,144.9275362,64ebe91c18cc1f529f56b458,65d2b6c8f2eece985d8e374c,65d2bb3880b5775321caba42,0.0451,0.0451,1,86,248,160,1,fivesix,,,,,,,,,,,,,,,,,,,,,,,,,,,,,,,,,,,,,,,,,,,,,,,,,,,,,,,,,,,,,,,,,,,,,,,,,,,,,,,,,,,,,,,,,,,,,,,,,,,,,,,,,,,,,,,,,,,,,,,,,,,,,,,,,,,,,,,,,
,,64ebe91c18cc1f529f56b458,2024-02-19_04h22.15.028,kallum_motion_pilot,2023.2.2,Win32,144.9275362,64ebe91c18cc1f529f56b458,65d2b6c8f2eece985d8e374c,65d2bb3880b5775321caba42,0.0453,0.0453,1,87,249,14,1,fourtwo,,,,,,,,,,,,,,,,,,,,,,,,,,,,,,,,,,,,,,,,,,,,,,,,,,,,,,,,,,,,,,,,,,,,,,,,,,,,,,,,,,,,,,,,,,,,,,,,,,,,,,,,,,,,,,,,,,,,,,,,,,,,,,,,,,,,,,,,,
,,64ebe91c18cc1f529f56b458,2024-02-19_04h22.15.028,kallum_motion_pilot,2023.2.2,Win32,144.9275362,64ebe91c18cc1f529f56b458,65d2b6c8f2eece985d8e374c,65d2bb3880b5775321caba42,0.0453,0.0453,1,88,250,15,1,fourthree,,,,,,,,,,,,,,,,,,,,,,,,,,,,,,,,,,,,,,,,,,,,,,,,,,,,,,,,,,,,,,,,,,,,,,,,,,,,,,,,,,,,,,,,,,,,,,,,,,,,,,,,,,,,,,,,,,,,,,,,,,,,,,,,,,,,,,,,,
,,64ebe91c18cc1f529f56b458,2024-02-19_04h22.15.028,kallum_motion_pilot,2023.2.2,Win32,144.9275362,64ebe91c18cc1f529f56b458,65d2b6c8f2eece985d8e374c,65d2bb3880b5775321caba42,0.0455,0.0455,1,89,251,83,1,sixeight,,,,,,,,,,,,,,,,,,,,,,,,,,,,,,,,,,,,,,,,,,,,,,,,,,,,,,,,,,,,,,,,,,,,,,,,,,,,,,,,,,,,,,,,,,,,,,,,,,,,,,,,,,,,,,,,,,,,,,,,,,,,,,,,,,,,,,,,,
,,64ebe91c18cc1f529f56b458,2024-02-19_04h22.15.028,kallum_motion_pilot,2023.2.2,Win32,144.9275362,64ebe91c18cc1f529f56b458,65d2b6c8f2eece985d8e374c,65d2bb3880b5775321caba42,0.0456,0.0456,1,90,252,59,1,twofour,,,,,,,,,,,,,,,,,,,,,,,,,,,,,,,,,,,,,,,,,,,,,,,,,,,,,,,,,,,,,,,,,,,,,,,,,,,,,,,,,,,,,,,,,,,,,,,,,,,,,,,,,,,,,,,,,,,,,,,,,,,,,,,,,,,,,,,,,
,,64ebe91c18cc1f529f56b458,2024-02-19_04h22.15.028,kallum_motion_pilot,2023.2.2,Win32,144.9275362,64ebe91c18cc1f529f56b458,65d2b6c8f2eece985d8e374c,65d2bb3880b5775321caba42,0.0458,0.0459,1,91,253,141,1,seveneight,,,,,,,,,,,,,,,,,,,,,,,,,,,,,,,,,,,,,,,,,,,,,,,,,,,,,,,,,,,,,,,,,,,,,,,,,,,,,,,,,,,,,,,,,,,,,,,,,,,,,,,,,,,,,,,,,,,,,,,,,,,,,,,,,,,,,,,,,
,,64ebe91c18cc1f529f56b458,2024-02-19_04h22.15.028,kallum_motion_pilot,2023.2.2,Win32,144.9275362,64ebe91c18cc1f529f56b458,65d2b6c8f2eece985d8e374c,65d2bb3880b5775321caba42,0.0461,0.0461,1,92,254,77,1,threefour,,,,,,,,,,,,,,,,,,,,,,,,,,,,,,,,,,,,,,,,,,,,,,,,,,,,,,,,,,,,,,,,,,,,,,,,,,,,,,,,,,,,,,,,,,,,,,,,,,,,,,,,,,,,,,,,,,,,,,,,,,,,,,,,,,,,,,,,,
,,64ebe91c18cc1f529f56b458,2024-02-19_04h22.15.028,kallum_motion_pilot,2023.2.2,Win32,144.9275362,64ebe91c18cc1f529f56b458,65d2b6c8f2eece985d8e374c,65d2bb3880b5775321caba42,0.0463,0.0464,1,93,255,62,1,fourtwo,,,,,,,,,,,,,,,,,,,,,,,,,,,,,,,,,,,,,,,,,,,,,,,,,,,,,,,,,,,,,,,,,,,,,,,,,,,,,,,,,,,,,,,,,,,,,,,,,,,,,,,,,,,,,,,,,,,,,,,,,,,,,,,,,,,,,,,,,
,,64ebe91c18cc1f529f56b458,2024-02-19_04h22.15.028,kallum_motion_pilot,2023.2.2,Win32,144.9275362,64ebe91c18cc1f529f56b458,65d2b6c8f2eece985d8e374c,65d2bb3880b5775321caba42,0.0464,0.0466,1,94,256,105,1,fiveseven,,,,,,,,,,,,,,,,,,,,,,,,,,,,,,,,,,,,,,,,,,,,,,,,,,,,,,,,,,,,,,,,,,,,,,,,,,,,,,,,,,,,,,,,,,,,,,,,,,,,,,,,,,,,,,,,,,,,,,,,,,,,,,,,,,,,,,,,,
,,64ebe91c18cc1f529f56b458,2024-02-19_04h22.15.028,kallum_motion_pilot,2023.2.2,Win32,144.9275362,64ebe91c18cc1f529f56b458,65d2b6c8f2eece985d8e374c,65d2bb3880b5775321caba42,0.0466,0.0467,1,95,257,151,1,eightseven,,,,,,,,,,,,,,,,,,,,,,,,,,,,,,,,,,,,,,,,,,,,,,,,,,,,,,,,,,,,,,,,,,,,,,,,,,,,,,,,,,,,,,,,,,,,,,,,,,,,,,,,,,,,,,,,,,,,,,,,,,,,,,,,,,,,,,,,,
,,64ebe91c18cc1f529f56b458,2024-02-19_04h22.15.028,kallum_motion_pilot,2023.2.2,Win32,144.9275362,64ebe91c18cc1f529f56b458,65d2b6c8f2eece985d8e374c,65d2bb3880b5775321caba42,0.0467,0.0468,1,96,258,103,1,eightseven,,,,,,,,,,,,,,,,,,,,,,,,,,,,,,,,,,,,,,,,,,,,,,,,,,,,,,,,,,,,,,,,,,,,,,,,,,,,,,,,,,,,,,,,,,,,,,,,,,,,,,,,,,,,,,,,,,,,,,,,,,,,,,,,,,,,,,,,,
,,64ebe91c18cc1f529f56b458,2024-02-19_04h22.15.028,kallum_motion_pilot,2023.2.2,Win32,144.9275362,64ebe91c18cc1f529f56b458,65d2b6c8f2eece985d8e374c,65d2bb3880b5775321caba42,0.0468,0.0469,1,97,259,39,1,fourthree,,,,,,,,,,,,,,,,,,,,,,,,,,,,,,,,,,,,,,,,,,,,,,,,,,,,,,,,,,,,,,,,,,,,,,,,,,,,,,,,,,,,,,,,,,,,,,,,,,,,,,,,,,,,,,,,,,,,,,,,,,,,,,,,,,,,,,,,,
,,64ebe91c18cc1f529f56b458,2024-02-19_04h22.15.028,kallum_motion_pilot,2023.2.2,Win32,144.9275362,64ebe91c18cc1f529f56b458,65d2b6c8f2eece985d8e374c,65d2bb3880b5775321caba42,0.0469,0.047,1,98,260,121,1,fiveseven,,,,,,,,,,,,,,,,,,,,,,,,,,,,,,,,,,,,,,,,,,,,,,,,,,,,,,,,,,,,,,,,,,,,,,,,,,,,,,,,,,,,,,,,,,,,,,,,,,,,,,,,,,,,,,,,,,,,,,,,,,,,,,,,,,,,,,,,,
,,64ebe91c18cc1f529f56b458,2024-02-19_04h22.15.028,kallum_motion_pilot,2023.2.2,Win32,144.9275362,64ebe91c18cc1f529f56b458,65d2b6c8f2eece985d8e374c,65d2bb3880b5775321caba42,0.0471,0.0472,1,99,261,47,1,fourthree,,,,,,,,,,,,,,,,,,,,,,,,,,,,,,,,,,,,,,,,,,,,,,,,,,,,,,,,,,,,,,,,,,,,,,,,,,,,,,,,,,,,,,,,,,,,,,,,,,,,,,,,,,,,,,,,,,,,,,,,,,,,,,,,,,,,,,,,,
,,64ebe91c18cc1f529f56b458,2024-02-19_04h22.15.028,kallum_motion_pilot,2023.2.2,Win32,144.9275362,64ebe91c18cc1f529f56b458,65d2b6c8f2eece985d8e374c,65d2bb3880b5775321caba42,0.0472,0.0472,1,100,262,70,1,fourtwo,,,,,,,,,,,,,,,,,,,,,,,,,,,,,,,,,,,,,,,,,,,,,,,,,,,,,,,,,,,,,,,,,,,,,,,,,,,,,,,,,,,,,,,,,,,,,,,,,,,,,,,,,,,,,,,,,,,,,,,,,,,,,,,,,,,,,,,,,
,,64ebe91c18cc1f529f56b458,2024-02-19_04h22.15.028,kallum_motion_pilot,2023.2.2,Win32,144.9275362,64ebe91c18cc1f529f56b458,65d2b6c8f2eece985d8e374c,65d2bb3880b5775321caba42,0.0474,0.0474,1,101,263,38,1,fourtwo,,,,,,,,,,,,,,,,,,,,,,,,,,,,,,,,,,,,,,,,,,,,,,,,,,,,,,,,,,,,,,,,,,,,,,,,,,,,,,,,,,,,,,,,,,,,,,,,,,,,,,,,,,,,,,,,,,,,,,,,,,,,,,,,,,,,,,,,,
,,64ebe91c18cc1f529f56b458,2024-02-19_04h22.15.028,kallum_motion_pilot,2023.2.2,Win32,144.9275362,64ebe91c18cc1f529f56b458,65d2b6c8f2eece985d8e374c,65d2bb3880b5775321caba42,0.0475,0.0475,1,102,264,157,1,seveneight,,,,,,,,,,,,,,,,,,,,,,,,,,,,,,,,,,,,,,,,,,,,,,,,,,,,,,,,,,,,,,,,,,,,,,,,,,,,,,,,,,,,,,,,,,,,,,,,,,,,,,,,,,,,,,,,,,,,,,,,,,,,,,,,,,,,,,,,,
,,64ebe91c18cc1f529f56b458,2024-02-19_04h22.15.028,kallum_motion_pilot,2023.2.2,Win32,144.9275362,64ebe91c18cc1f529f56b458,65d2b6c8f2eece985d8e374c,65d2bb3880b5775321caba42,0.0476,0.0477,1,103,265,36,1,threeone,,,,,,,,,,,,,,,,,,,,,,,,,,,,,,,,,,,,,,,,,,,,,,,,,,,,,,,,,,,,,,,,,,,,,,,,,,,,,,,,,,,,,,,,,,,,,,,,,,,,,,,,,,,,,,,,,,,,,,,,,,,,,,,,,,,,,,,,,
,,64ebe91c18cc1f529f56b458,2024-02-19_04h22.15.028,kallum_motion_pilot,2023.2.2,Win32,144.9275362,64ebe91c18cc1f529f56b458,65d2b6c8f2eece985d8e374c,65d2bb3880b5775321caba42,0.0478,0.0478,1,104,266,50,1,twoone,,,,,,,,,,,,,,,,,,,,,,,,,,,,,,,,,,,,,,,,,,,,,,,,,,,,,,,,,,,,,,,,,,,,,,,,,,,,,,,,,,,,,,,,,,,,,,,,,,,,,,,,,,,,,,,,,,,,,,,,,,,,,,,,,,,,,,,,,
,,64ebe91c18cc1f529f56b458,2024-02-19_04h22.15.028,kallum_motion_pilot,2023.2.2,Win32,144.9275362,64ebe91c18cc1f529f56b458,65d2b6c8f2eece985d8e374c,65d2bb3880b5775321caba42,0.0479,0.0479,1,105,267,107,1,sixeight,,,,,,,,,,,,,,,,,,,,,,,,,,,,,,,,,,,,,,,,,,,,,,,,,,,,,,,,,,,,,,,,,,,,,,,,,,,,,,,,,,,,,,,,,,,,,,,,,,,,,,,,,,,,,,,,,,,,,,,,,,,,,,,,,,,,,,,,,
,,64ebe91c18cc1f529f56b458,2024-02-19_04h22.15.028,kallum_motion_pilot,2023.2.2,Win32,144.9275362,64ebe91c18cc1f529f56b458,65d2b6c8f2eece985d8e374c,65d2bb3880b5775321caba42,0.0481,0.0481,1,106,268,123,1,sixeight,,,,,,,,,,,,,,,,,,,,,,,,,,,,,,,,,,,,,,,,,,,,,,,,,,,,,,,,,,,,,,,,,,,,,,,,,,,,,,,,,,,,,,,,,,,,,,,,,,,,,,,,,,,,,,,,,,,,,,,,,,,,,,,,,,,,,,,,,
,,64ebe91c18cc1f529f56b458,2024-02-19_04h22.15.028,kallum_motion_pilot,2023.2.2,Win32,144.9275362,64ebe91c18cc1f529f56b458,65d2b6c8f2eece985d8e374c,65d2bb3880b5775321caba42,0.0481,0.0482,1,107,269,1,1,onethree,,,,,,,,,,,,,,,,,,,,,,,,,,,,,,,,,,,,,,,,,,,,,,,,,,,,,,,,,,,,,,,,,,,,,,,,,,,,,,,,,,,,,,,,,,,,,,,,,,,,,,,,,,,,,,,,,,,,,,,,,,,,,,,,,,,,,,,,,
,,64ebe91c18cc1f529f56b458,2024-02-19_04h22.15.028,kallum_motion_pilot,2023.2.2,Win32,144.9275362,64ebe91c18cc1f529f56b458,65d2b6c8f2eece985d8e374c,65d2bb3880b5775321caba42,0.0483,0.0483,1,108,270,114,1,sixfive,,,,,,,,,,,,,,,,,,,,,,,,,,,,,,,,,,,,,,,,,,,,,,,,,,,,,,,,,,,,,,,,,,,,,,,,,,,,,,,,,,,,,,,,,,,,,,,,,,,,,,,,,,,,,,,,,,,,,,,,,,,,,,,,,,,,,,,,,
,,64ebe91c18cc1f529f56b458,2024-02-19_04h22.15.028,kallum_motion_pilot,2023.2.2,Win32,144.9275362,64ebe91c18cc1f529f56b458,65d2b6c8f2eece985d8e374c,65d2bb3880b5775321caba42,0.0483,0.0484,1,109,271,98,1,sixfive,,,,,,,,,,,,,,,,,,,,,,,,,,,,,,,,,,,,,,,,,,,,,,,,,,,,,,,,,,,,,,,,,,,,,,,,,,,,,,,,,,,,,,,,,,,,,,,,,,,,,,,,,,,,,,,,,,,,,,,,,,,,,,,,,,,,,,,,,
,,64ebe91c18cc1f529f56b458,2024-02-19_04h22.15.028,kallum_motion_pilot,2023.2.2,Win32,144.9275362,64ebe91c18cc1f529f56b458,65d2b6c8f2eece985d8e374c,65d2bb3880b5775321caba42,0.0485,0.0485,1,110,272,139,1,sixeight,,,,,,,,,,,,,,,,,,,,,,,,,,,,,,,,,,,,,,,,,,,,,,,,,,,,,,,,,,,,,,,,,,,,,,,,,,,,,,,,,,,,,,,,,,,,,,,,,,,,,,,,,,,,,,,,,,,,,,,,,,,,,,,,,,,,,,,,,
,,64ebe91c18cc1f529f56b458,2024-02-19_04h22.15.028,kallum_motion_pilot,2023.2.2,Win32,144.9275362,64ebe91c18cc1f529f56b458,65d2b6c8f2eece985d8e374c,65d2bb3880b5775321caba42,0.0486,0.0487,1,111,273,82,1,sixfive,,,,,,,,,,,,,,,,,,,,,,,,,,,,,,,,,,,,,,,,,,,,,,,,,,,,,,,,,,,,,,,,,,,,,,,,,,,,,,,,,,,,,,,,,,,,,,,,,,,,,,,,,,,,,,,,,,,,,,,,,,,,,,,,,,,,,,,,,
,,64ebe91c18cc1f529f56b458,2024-02-19_04h22.15.028,kallum_motion_pilot,2023.2.2,Win32,144.9275362,64ebe91c18cc1f529f56b458,65d2b6c8f2eece985d8e374c,65d2bb3880b5775321caba42,0.0487,0.0487,1,112,274,58,1,twoone,,,,,,,,,,,,,,,,,,,,,,,,,,,,,,,,,,,,,,,,,,,,,,,,,,,,,,,,,,,,,,,,,,,,,,,,,,,,,,,,,,,,,,,,,,,,,,,,,,,,,,,,,,,,,,,,,,,,,,,,,,,,,,,,,,,,,,,,,
,,64ebe91c18cc1f529f56b458,2024-02-19_04h22.15.028,kallum_motion_pilot,2023.2.2,Win32,144.9275362,64ebe91c18cc1f529f56b458,65d2b6c8f2eece985d8e374c,65d2bb3880b5775321caba42,0.0488,0.0488,1,113,275,54,1,fourtwo,,,,,,,,,,,,,,,,,,,,,,,,,,,,,,,,,,,,,,,,,,,,,,,,,,,,,,,,,,,,,,,,,,,,,,,,,,,,,,,,,,,,,,,,,,,,,,,,,,,,,,,,,,,,,,,,,,,,,,,,,,,,,,,,,,,,,,,,,
,,64ebe91c18cc1f529f56b458,2024-02-19_04h22.15.028,kallum_motion_pilot,2023.2.2,Win32,144.9275362,64ebe91c18cc1f529f56b458,65d2b6c8f2eece985d8e374c,65d2bb3880b5775321caba42,0.049,0.049,1,114,276,0,1,onetwo,,,,,,,,,,,,,,,,,,,,,,,,,,,,,,,,,,,,,,,,,,,,,,,,,,,,,,,,,,,,,,,,,,,,,,,,,,,,,,,,,,,,,,,,,,,,,,,,,,,,,,,,,,,,,,,,,,,,,,,,,,,,,,,,,,,,,,,,,
,,64ebe91c18cc1f529f56b458,2024-02-19_04h22.15.028,kallum_motion_pilot,2023.2.2,Win32,144.9275362,64ebe91c18cc1f529f56b458,65d2b6c8f2eece985d8e374c,65d2bb3880b5775321caba42,0.049,0.0491,1,115,277,23,1,fourthree,,,,,,,,,,,,,,,,,,,,,,,,,,,,,,,,,,,,,,,,,,,,,,,,,,,,,,,,,,,,,,,,,,,,,,,,,,,,,,,,,,,,,,,,,,,,,,,,,,,,,,,,,,,,,,,,,,,,,,,,,,,,,,,,,,,,,,,,,
