startup.started,startup.stopped,Prolific ID*,date,expName,psychopyVersion,OS,frameRate,participant,study_id,session,stimpositions.started,stimpositions.stopped,hardcoded_stimulus_positions.thisRepN,hardcoded_stimulus_positions.thisTrialN,hardcoded_stimulus_positions.thisN,hardcoded_stimulus_positions.thisIndex,hardcoded_stimulus_positions.ran,StimulusPos,stimorientation.started,stimorientation.stopped,prac_stimorientation_import_loop.thisRepN,prac_stimorientation_import_loop.thisTrialN,prac_stimorientation_import_loop.thisN,prac_stimorientation_import_loop.thisIndex,prac_stimorientation_import_loop.ran,Stimorientation,welcome_instr.started,welcome_instr.stopped,key_resp.keys,key_resp.rt,key_resp.duration,response_steppedout_1.started,response_steppedout_1.stopped,key_resp_20.keys,key_resp_20.rt,key_resp_20.duration,response_steppedout_2.started,response_steppedout_2.stopped,key_resp_19.keys,key_resp_19.rt,key_resp_19.duration,stim_response_instr.started,stim_response_instr.stopped,key_resp_15.keys,key_resp_15.rt,key_resp_15.duration,direction_instr_2.started,direction_instr_2.stopped,key_resp_9.keys,key_resp_9.rt,key_resp_9.duration,instr_prac.started,instr_prac.stopped,key_resp_10.keys,key_resp_10.rt,key_resp_10.duration,Stim1_display_prac.started,Stim1_display_prac.stopped,Ecc,Circle1_ori,Circle2_ori,response_prac.started,similarity,response_time,response_prac.stopped,mouse_5.x,mouse_5.y,mouse_5.leftButton,mouse_5.midButton,mouse_5.rightButton,mouse_5.clicked_name,responseprac_feedback.started,responseprac_feedback.stopped,summary2_prac.started,summary2_prac.stopped,mouse_6.x,mouse_6.y,mouse_6.leftButton,mouse_6.midButton,mouse_6.rightButton,mouse_6.clicked_name,duringprac.thisRepN,duringprac.thisTrialN,duringprac.thisN,duringprac.thisIndex,duringprac.ran,begin.started,begin.stopped,key_resp_22.keys,key_resp_22.rt,key_resp_22.duration,Stim1_display.started,Stim1_display.stopped,circle1_ori,circle2_ori,circle1_SF,circle2_SF,response.started,response.stopped,mouse.x,mouse.y,mouse.leftButton,mouse.midButton,mouse.rightButton,mouse.clicked_name,trialnumber,double_pass.thisRepN,double_pass.thisTrialN,double_pass.thisN,double_pass.thisIndex,double_pass.ran,double_pass.order,main_trial.thisRepN,main_trial.thisTrialN,main_trial.thisN,main_trial.thisIndex,main_trial.ran,main_trial.order,Trial_Counter,Catch,Frequencies,response_2.started,response_2.stopped,mouse_2.x,mouse_2.y,mouse_2.leftButton,mouse_2.midButton,mouse_2.rightButton,mouse_2.clicked_name,special_trial.started,special_trial.stopped,catch_1.started,catch_1.stopped,mouse_3.x,mouse_3.y,mouse_3.leftButton,mouse_3.midButton,mouse_3.rightButton,catchresponse,catchnumber,response_time_catch,response_sum.started,response_sum.stopped,mouse_11.x,mouse_11.y,mouse_11.leftButton,mouse_11.midButton,mouse_11.rightButton,flip_presentation_sequence_for_double_pass.started,flip_presentation_sequence_for_double_pass.stopped,goodbye.started,goodbye.stopped,key_resp_3.keys,key_resp_3.rt,key_resp_3.duration
0.0006,0.0007,6508518b906002118153f087,2024-02-19_15h19.31.979,kallum_motion_pilot,2023.2.2,Win32,20,6508518b906002118153f087,65d2b6c8f2eece985d8e374c,65d2b99dc4c930283d4b771d,,,,,,,,,,,,,,,,,,,,,,,,,,,,,,,,,,,,,,,,,,,,,,,,,,,,,,,,,,,,,,,,,,,,,,,,,,,,,,,,,,,,,,,,,,,,,,,,,,,,,,,,,,,,,,,,,,,,,,,,,,,,,,,,,,,,,,,,,,,,,,,,,
,,6508518b906002118153f087,2024-02-19_15h19.31.979,kallum_motion_pilot,2023.2.2,Win32,20,6508518b906002118153f087,65d2b6c8f2eece985d8e374c,65d2b99dc4c930283d4b771d,0.0126,0.0126,0,0,0,63,1,fourthree,,,,,,,,,,,,,,,,,,,,,,,,,,,,,,,,,,,,,,,,,,,,,,,,,,,,,,,,,,,,,,,,,,,,,,,,,,,,,,,,,,,,,,,,,,,,,,,,,,,,,,,,,,,,,,,,,,,,,,,,,,,,,,,,,,,,,,,,,
,,6508518b906002118153f087,2024-02-19_15h19.31.979,kallum_motion_pilot,2023.2.2,Win32,20,6508518b906002118153f087,65d2b6c8f2eece985d8e374c,65d2b99dc4c930283d4b771d,0.0129,0.0129,0,1,1,119,1,eightseven,,,,,,,,,,,,,,,,,,,,,,,,,,,,,,,,,,,,,,,,,,,,,,,,,,,,,,,,,,,,,,,,,,,,,,,,,,,,,,,,,,,,,,,,,,,,,,,,,,,,,,,,,,,,,,,,,,,,,,,,,,,,,,,,,,,,,,,,,
,,6508518b906002118153f087,2024-02-19_15h19.31.979,kallum_motion_pilot,2023.2.2,Win32,20,6508518b906002118153f087,65d2b6c8f2eece985d8e374c,65d2b99dc4c930283d4b771d,0.013,0.013,0,2,2,129,1,fiveseven,,,,,,,,,,,,,,,,,,,,,,,,,,,,,,,,,,,,,,,,,,,,,,,,,,,,,,,,,,,,,,,,,,,,,,,,,,,,,,,,,,,,,,,,,,,,,,,,,,,,,,,,,,,,,,,,,,,,,,,,,,,,,,,,,,,,,,,,,
,,6508518b906002118153f087,2024-02-19_15h19.31.979,kallum_motion_pilot,2023.2.2,Win32,20,6508518b906002118153f087,65d2b6c8f2eece985d8e374c,65d2b99dc4c930283d4b771d,0.013,0.013,0,3,3,103,1,eightseven,,,,,,,,,,,,,,,,,,,,,,,,,,,,,,,,,,,,,,,,,,,,,,,,,,,,,,,,,,,,,,,,,,,,,,,,,,,,,,,,,,,,,,,,,,,,,,,,,,,,,,,,,,,,,,,,,,,,,,,,,,,,,,,,,,,,,,,,,
,,6508518b906002118153f087,2024-02-19_15h19.31.979,kallum_motion_pilot,2023.2.2,Win32,20,6508518b906002118153f087,65d2b6c8f2eece985d8e374c,65d2b99dc4c930283d4b771d,0.0131,0.0131,0,4,4,80,1,fivesix,,,,,,,,,,,,,,,,,,,,,,,,,,,,,,,,,,,,,,,,,,,,,,,,,,,,,,,,,,,,,,,,,,,,,,,,,,,,,,,,,,,,,,,,,,,,,,,,,,,,,,,,,,,,,,,,,,,,,,,,,,,,,,,,,,,,,,,,,
,,6508518b906002118153f087,2024-02-19_15h19.31.979,kallum_motion_pilot,2023.2.2,Win32,20,6508518b906002118153f087,65d2b6c8f2eece985d8e374c,65d2b99dc4c930283d4b771d,0.0131,0.0131,0,5,5,72,1,onetwo,,,,,,,,,,,,,,,,,,,,,,,,,,,,,,,,,,,,,,,,,,,,,,,,,,,,,,,,,,,,,,,,,,,,,,,,,,,,,,,,,,,,,,,,,,,,,,,,,,,,,,,,,,,,,,,,,,,,,,,,,,,,,,,,,,,,,,,,,
,,6508518b906002118153f087,2024-02-19_15h19.31.979,kallum_motion_pilot,2023.2.2,Win32,20,6508518b906002118153f087,65d2b6c8f2eece985d8e374c,65d2b99dc4c930283d4b771d,0.0132,0.0132,0,6,6,140,1,sevenfive,,,,,,,,,,,,,,,,,,,,,,,,,,,,,,,,,,,,,,,,,,,,,,,,,,,,,,,,,,,,,,,,,,,,,,,,,,,,,,,,,,,,,,,,,,,,,,,,,,,,,,,,,,,,,,,,,,,,,,,,,,,,,,,,,,,,,,,,,
,,6508518b906002118153f087,2024-02-19_15h19.31.979,kallum_motion_pilot,2023.2.2,Win32,20,6508518b906002118153f087,65d2b6c8f2eece985d8e374c,65d2b99dc4c930283d4b771d,0.0132,0.0132,0,7,7,9,1,onethree,,,,,,,,,,,,,,,,,,,,,,,,,,,,,,,,,,,,,,,,,,,,,,,,,,,,,,,,,,,,,,,,,,,,,,,,,,,,,,,,,,,,,,,,,,,,,,,,,,,,,,,,,,,,,,,,,,,,,,,,,,,,,,,,,,,,,,,,,
,,6508518b906002118153f087,2024-02-19_15h19.31.979,kallum_motion_pilot,2023.2.2,Win32,20,6508518b906002118153f087,65d2b6c8f2eece985d8e374c,65d2b99dc4c930283d4b771d,0.0133,0.0133,0,8,8,76,1,threeone,,,,,,,,,,,,,,,,,,,,,,,,,,,,,,,,,,,,,,,,,,,,,,,,,,,,,,,,,,,,,,,,,,,,,,,,,,,,,,,,,,,,,,,,,,,,,,,,,,,,,,,,,,,,,,,,,,,,,,,,,,,,,,,,,,,,,,,,,
,,6508518b906002118153f087,2024-02-19_15h19.31.979,kallum_motion_pilot,2023.2.2,Win32,20,6508518b906002118153f087,65d2b6c8f2eece985d8e374c,65d2b99dc4c930283d4b771d,0.0138,0.0138,0,9,9,107,1,sixeight,,,,,,,,,,,,,,,,,,,,,,,,,,,,,,,,,,,,,,,,,,,,,,,,,,,,,,,,,,,,,,,,,,,,,,,,,,,,,,,,,,,,,,,,,,,,,,,,,,,,,,,,,,,,,,,,,,,,,,,,,,,,,,,,,,,,,,,,,
,,6508518b906002118153f087,2024-02-19_15h19.31.979,kallum_motion_pilot,2023.2.2,Win32,20,6508518b906002118153f087,65d2b6c8f2eece985d8e374c,65d2b99dc4c930283d4b771d,0.0138,0.0138,0,10,10,81,1,fiveseven,,,,,,,,,,,,,,,,,,,,,,,,,,,,,,,,,,,,,,,,,,,,,,,,,,,,,,,,,,,,,,,,,,,,,,,,,,,,,,,,,,,,,,,,,,,,,,,,,,,,,,,,,,,,,,,,,,,,,,,,,,,,,,,,,,,,,,,,,
,,6508518b906002118153f087,2024-02-19_15h19.31.979,kallum_motion_pilot,2023.2.2,Win32,20,6508518b906002118153f087,65d2b6c8f2eece985d8e374c,65d2b99dc4c930283d4b771d,0.0139,0.0139,0,11,11,10,1,twoone,,,,,,,,,,,,,,,,,,,,,,,,,,,,,,,,,,,,,,,,,,,,,,,,,,,,,,,,,,,,,,,,,,,,,,,,,,,,,,,,,,,,,,,,,,,,,,,,,,,,,,,,,,,,,,,,,,,,,,,,,,,,,,,,,,,,,,,,,
,,6508518b906002118153f087,2024-02-19_15h19.31.979,kallum_motion_pilot,2023.2.2,Win32,20,6508518b906002118153f087,65d2b6c8f2eece985d8e374c,65d2b99dc4c930283d4b771d,0.0139,0.0139,0,12,12,7,1,fourthree,,,,,,,,,,,,,,,,,,,,,,,,,,,,,,,,,,,,,,,,,,,,,,,,,,,,,,,,,,,,,,,,,,,,,,,,,,,,,,,,,,,,,,,,,,,,,,,,,,,,,,,,,,,,,,,,,,,,,,,,,,,,,,,,,,,,,,,,,
,,6508518b906002118153f087,2024-02-19_15h19.31.979,kallum_motion_pilot,2023.2.2,Win32,20,6508518b906002118153f087,65d2b6c8f2eece985d8e374c,65d2b99dc4c930283d4b771d,0.014,0.014,0,13,13,116,1,sevenfive,,,,,,,,,,,,,,,,,,,,,,,,,,,,,,,,,,,,,,,,,,,,,,,,,,,,,,,,,,,,,,,,,,,,,,,,,,,,,,,,,,,,,,,,,,,,,,,,,,,,,,,,,,,,,,,,,,,,,,,,,,,,,,,,,,,,,,,,,
,,6508518b906002118153f087,2024-02-19_15h19.31.979,kallum_motion_pilot,2023.2.2,Win32,20,6508518b906002118153f087,65d2b6c8f2eece985d8e374c,65d2b99dc4c930283d4b771d,0.014,0.014,0,14,14,142,1,eightsix,,,,,,,,,,,,,,,,,,,,,,,,,,,,,,,,,,,,,,,,,,,,,,,,,,,,,,,,,,,,,,,,,,,,,,,,,,,,,,,,,,,,,,,,,,,,,,,,,,,,,,,,,,,,,,,,,,,,,,,,,,,,,,,,,,,,,,,,,
,,6508518b906002118153f087,2024-02-19_15h19.31.979,kallum_motion_pilot,2023.2.2,Win32,20,6508518b906002118153f087,65d2b6c8f2eece985d8e374c,65d2b99dc4c930283d4b771d,0.014,0.014,0,15,15,84,1,sevenfive,,,,,,,,,,,,,,,,,,,,,,,,,,,,,,,,,,,,,,,,,,,,,,,,,,,,,,,,,,,,,,,,,,,,,,,,,,,,,,,,,,,,,,,,,,,,,,,,,,,,,,,,,,,,,,,,,,,,,,,,,,,,,,,,,,,,,,,,,
,,6508518b906002118153f087,2024-02-19_15h19.31.979,kallum_motion_pilot,2023.2.2,Win32,20,6508518b906002118153f087,65d2b6c8f2eece985d8e374c,65d2b99dc4c930283d4b771d,0.0141,0.0141,0,16,16,112,1,fivesix,,,,,,,,,,,,,,,,,,,,,,,,,,,,,,,,,,,,,,,,,,,,,,,,,,,,,,,,,,,,,,,,,,,,,,,,,,,,,,,,,,,,,,,,,,,,,,,,,,,,,,,,,,,,,,,,,,,,,,,,,,,,,,,,,,,,,,,,,
,,6508518b906002118153f087,2024-02-19_15h19.31.979,kallum_motion_pilot,2023.2.2,Win32,20,6508518b906002118153f087,65d2b6c8f2eece985d8e374c,65d2b99dc4c930283d4b771d,0.0141,0.0141,0,17,17,75,1,twofour,,,,,,,,,,,,,,,,,,,,,,,,,,,,,,,,,,,,,,,,,,,,,,,,,,,,,,,,,,,,,,,,,,,,,,,,,,,,,,,,,,,,,,,,,,,,,,,,,,,,,,,,,,,,,,,,,,,,,,,,,,,,,,,,,,,,,,,,,
,,6508518b906002118153f087,2024-02-19_15h19.31.979,kallum_motion_pilot,2023.2.2,Win32,20,6508518b906002118153f087,65d2b6c8f2eece985d8e374c,65d2b99dc4c930283d4b771d,0.0141,0.0141,0,18,18,92,1,sevenfive,,,,,,,,,,,,,,,,,,,,,,,,,,,,,,,,,,,,,,,,,,,,,,,,,,,,,,,,,,,,,,,,,,,,,,,,,,,,,,,,,,,,,,,,,,,,,,,,,,,,,,,,,,,,,,,,,,,,,,,,,,,,,,,,,,,,,,,,,
,,6508518b906002118153f087,2024-02-19_15h19.31.979,kallum_motion_pilot,2023.2.2,Win32,20,6508518b906002118153f087,65d2b6c8f2eece985d8e374c,65d2b99dc4c930283d4b771d,0.0141,0.0142,0,19,19,36,1,threeone,,,,,,,,,,,,,,,,,,,,,,,,,,,,,,,,,,,,,,,,,,,,,,,,,,,,,,,,,,,,,,,,,,,,,,,,,,,,,,,,,,,,,,,,,,,,,,,,,,,,,,,,,,,,,,,,,,,,,,,,,,,,,,,,,,,,,,,,,
,,6508518b906002118153f087,2024-02-19_15h19.31.979,kallum_motion_pilot,2023.2.2,Win32,20,6508518b906002118153f087,65d2b6c8f2eece985d8e374c,65d2b99dc4c930283d4b771d,0.0142,0.0142,0,20,20,105,1,fiveseven,,,,,,,,,,,,,,,,,,,,,,,,,,,,,,,,,,,,,,,,,,,,,,,,,,,,,,,,,,,,,,,,,,,,,,,,,,,,,,,,,,,,,,,,,,,,,,,,,,,,,,,,,,,,,,,,,,,,,,,,,,,,,,,,,,,,,,,,,
,,6508518b906002118153f087,2024-02-19_15h19.31.979,kallum_motion_pilot,2023.2.2,Win32,20,6508518b906002118153f087,65d2b6c8f2eece985d8e374c,65d2b99dc4c930283d4b771d,0.0142,0.0142,0,21,21,38,1,fourtwo,,,,,,,,,,,,,,,,,,,,,,,,,,,,,,,,,,,,,,,,,,,,,,,,,,,,,,,,,,,,,,,,,,,,,,,,,,,,,,,,,,,,,,,,,,,,,,,,,,,,,,,,,,,,,,,,,,,,,,,,,,,,,,,,,,,,,,,,,
,,6508518b906002118153f087,2024-02-19_15h19.31.979,kallum_motion_pilot,2023.2.2,Win32,20,6508518b906002118153f087,65d2b6c8f2eece985d8e374c,65d2b99dc4c930283d4b771d,0.0142,0.0142,0,22,22,74,1,twoone,,,,,,,,,,,,,,,,,,,,,,,,,,,,,,,,,,,,,,,,,,,,,,,,,,,,,,,,,,,,,,,,,,,,,,,,,,,,,,,,,,,,,,,,,,,,,,,,,,,,,,,,,,,,,,,,,,,,,,,,,,,,,,,,,,,,,,,,,
,,6508518b906002118153f087,2024-02-19_15h19.31.979,kallum_motion_pilot,2023.2.2,Win32,20,6508518b906002118153f087,65d2b6c8f2eece985d8e374c,65d2b99dc4c930283d4b771d,0.0143,0.0143,0,23,23,85,1,seveneight,,,,,,,,,,,,,,,,,,,,,,,,,,,,,,,,,,,,,,,,,,,,,,,,,,,,,,,,,,,,,,,,,,,,,,,,,,,,,,,,,,,,,,,,,,,,,,,,,,,,,,,,,,,,,,,,,,,,,,,,,,,,,,,,,,,,,,,,,
,,6508518b906002118153f087,2024-02-19_15h19.31.979,kallum_motion_pilot,2023.2.2,Win32,20,6508518b906002118153f087,65d2b6c8f2eece985d8e374c,65d2b99dc4c930283d4b771d,0.0144,0.0144,0,24,24,47,1,fourthree,,,,,,,,,,,,,,,,,,,,,,,,,,,,,,,,,,,,,,,,,,,,,,,,,,,,,,,,,,,,,,,,,,,,,,,,,,,,,,,,,,,,,,,,,,,,,,,,,,,,,,,,,,,,,,,,,,,,,,,,,,,,,,,,,,,,,,,,,
,,6508518b906002118153f087,2024-02-19_15h19.31.979,kallum_motion_pilot,2023.2.2,Win32,20,6508518b906002118153f087,65d2b6c8f2eece985d8e374c,65d2b99dc4c930283d4b771d,0.0144,0.0144,0,25,25,128,1,fivesix,,,,,,,,,,,,,,,,,,,,,,,,,,,,,,,,,,,,,,,,,,,,,,,,,,,,,,,,,,,,,,,,,,,,,,,,,,,,,,,,,,,,,,,,,,,,,,,,,,,,,,,,,,,,,,,,,,,,,,,,,,,,,,,,,,,,,,,,,
,,6508518b906002118153f087,2024-02-19_15h19.31.979,kallum_motion_pilot,2023.2.2,Win32,20,6508518b906002118153f087,65d2b6c8f2eece985d8e374c,65d2b99dc4c930283d4b771d,0.0145,0.0145,0,26,26,89,1,fiveseven,,,,,,,,,,,,,,,,,,,,,,,,,,,,,,,,,,,,,,,,,,,,,,,,,,,,,,,,,,,,,,,,,,,,,,,,,,,,,,,,,,,,,,,,,,,,,,,,,,,,,,,,,,,,,,,,,,,,,,,,,,,,,,,,,,,,,,,,,
,,6508518b906002118153f087,2024-02-19_15h19.31.979,kallum_motion_pilot,2023.2.2,Win32,20,6508518b906002118153f087,65d2b6c8f2eece985d8e374c,65d2b99dc4c930283d4b771d,0.0145,0.0145,0,27,27,71,1,fourthree,,,,,,,,,,,,,,,,,,,,,,,,,,,,,,,,,,,,,,,,,,,,,,,,,,,,,,,,,,,,,,,,,,,,,,,,,,,,,,,,,,,,,,,,,,,,,,,,,,,,,,,,,,,,,,,,,,,,,,,,,,,,,,,,,,,,,,,,,
,,6508518b906002118153f087,2024-02-19_15h19.31.979,kallum_motion_pilot,2023.2.2,Win32,20,6508518b906002118153f087,65d2b6c8f2eece985d8e374c,65d2b99dc4c930283d4b771d,0.0145,0.0145,0,28,28,98,1,sixfive,,,,,,,,,,,,,,,,,,,,,,,,,,,,,,,,,,,,,,,,,,,,,,,,,,,,,,,,,,,,,,,,,,,,,,,,,,,,,,,,,,,,,,,,,,,,,,,,,,,,,,,,,,,,,,,,,,,,,,,,,,,,,,,,,,,,,,,,,
,,6508518b906002118153f087,2024-02-19_15h19.31.979,kallum_motion_pilot,2023.2.2,Win32,20,6508518b906002118153f087,65d2b6c8f2eece985d8e374c,65d2b99dc4c930283d4b771d,0.0145,0.0146,0,29,29,58,1,twoone,,,,,,,,,,,,,,,,,,,,,,,,,,,,,,,,,,,,,,,,,,,,,,,,,,,,,,,,,,,,,,,,,,,,,,,,,,,,,,,,,,,,,,,,,,,,,,,,,,,,,,,,,,,,,,,,,,,,,,,,,,,,,,,,,,,,,,,,,
,,6508518b906002118153f087,2024-02-19_15h19.31.979,kallum_motion_pilot,2023.2.2,Win32,20,6508518b906002118153f087,65d2b6c8f2eece985d8e374c,65d2b99dc4c930283d4b771d,0.0146,0.0146,0,30,30,120,1,fivesix,,,,,,,,,,,,,,,,,,,,,,,,,,,,,,,,,,,,,,,,,,,,,,,,,,,,,,,,,,,,,,,,,,,,,,,,,,,,,,,,,,,,,,,,,,,,,,,,,,,,,,,,,,,,,,,,,,,,,,,,,,,,,,,,,,,,,,,,,
,,6508518b906002118153f087,2024-02-19_15h19.31.979,kallum_motion_pilot,2023.2.2,Win32,20,6508518b906002118153f087,65d2b6c8f2eece985d8e374c,65d2b99dc4c930283d4b771d,0.0146,0.0146,0,31,31,29,1,threefour,,,,,,,,,,,,,,,,,,,,,,,,,,,,,,,,,,,,,,,,,,,,,,,,,,,,,,,,,,,,,,,,,,,,,,,,,,,,,,,,,,,,,,,,,,,,,,,,,,,,,,,,,,,,,,,,,,,,,,,,,,,,,,,,,,,,,,,,,
,,6508518b906002118153f087,2024-02-19_15h19.31.979,kallum_motion_pilot,2023.2.2,Win32,20,6508518b906002118153f087,65d2b6c8f2eece985d8e374c,65d2b99dc4c930283d4b771d,0.0146,0.0146,0,32,32,95,1,eightseven,,,,,,,,,,,,,,,,,,,,,,,,,,,,,,,,,,,,,,,,,,,,,,,,,,,,,,,,,,,,,,,,,,,,,,,,,,,,,,,,,,,,,,,,,,,,,,,,,,,,,,,,,,,,,,,,,,,,,,,,,,,,,,,,,,,,,,,,,
,,6508518b906002118153f087,2024-02-19_15h19.31.979,kallum_motion_pilot,2023.2.2,Win32,20,6508518b906002118153f087,65d2b6c8f2eece985d8e374c,65d2b99dc4c930283d4b771d,0.0147,0.0147,0,33,33,65,1,onethree,,,,,,,,,,,,,,,,,,,,,,,,,,,,,,,,,,,,,,,,,,,,,,,,,,,,,,,,,,,,,,,,,,,,,,,,,,,,,,,,,,,,,,,,,,,,,,,,,,,,,,,,,,,,,,,,,,,,,,,,,,,,,,,,,,,,,,,,,
,,6508518b906002118153f087,2024-02-19_15h19.31.979,kallum_motion_pilot,2023.2.2,Win32,20,6508518b906002118153f087,65d2b6c8f2eece985d8e374c,65d2b99dc4c930283d4b771d,0.0147,0.0147,0,34,34,77,1,threefour,,,,,,,,,,,,,,,,,,,,,,,,,,,,,,,,,,,,,,,,,,,,,,,,,,,,,,,,,,,,,,,,,,,,,,,,,,,,,,,,,,,,,,,,,,,,,,,,,,,,,,,,,,,,,,,,,,,,,,,,,,,,,,,,,,,,,,,,,
,,6508518b906002118153f087,2024-02-19_15h19.31.979,kallum_motion_pilot,2023.2.2,Win32,20,6508518b906002118153f087,65d2b6c8f2eece985d8e374c,65d2b99dc4c930283d4b771d,0.0148,0.0148,0,35,35,155,1,sixeight,,,,,,,,,,,,,,,,,,,,,,,,,,,,,,,,,,,,,,,,,,,,,,,,,,,,,,,,,,,,,,,,,,,,,,,,,,,,,,,,,,,,,,,,,,,,,,,,,,,,,,,,,,,,,,,,,,,,,,,,,,,,,,,,,,,,,,,,,
,,6508518b906002118153f087,2024-02-19_15h19.31.979,kallum_motion_pilot,2023.2.2,Win32,20,6508518b906002118153f087,65d2b6c8f2eece985d8e374c,65d2b99dc4c930283d4b771d,0.0148,0.0148,0,36,36,32,1,onetwo,,,,,,,,,,,,,,,,,,,,,,,,,,,,,,,,,,,,,,,,,,,,,,,,,,,,,,,,,,,,,,,,,,,,,,,,,,,,,,,,,,,,,,,,,,,,,,,,,,,,,,,,,,,,,,,,,,,,,,,,,,,,,,,,,,,,,,,,,
,,6508518b906002118153f087,2024-02-19_15h19.31.979,kallum_motion_pilot,2023.2.2,Win32,20,6508518b906002118153f087,65d2b6c8f2eece985d8e374c,65d2b99dc4c930283d4b771d,0.0148,0.0148,0,37,37,151,1,eightseven,,,,,,,,,,,,,,,,,,,,,,,,,,,,,,,,,,,,,,,,,,,,,,,,,,,,,,,,,,,,,,,,,,,,,,,,,,,,,,,,,,,,,,,,,,,,,,,,,,,,,,,,,,,,,,,,,,,,,,,,,,,,,,,,,,,,,,,,,
,,6508518b906002118153f087,2024-02-19_15h19.31.979,kallum_motion_pilot,2023.2.2,Win32,20,6508518b906002118153f087,65d2b6c8f2eece985d8e374c,65d2b99dc4c930283d4b771d,0.0149,0.0149,0,38,38,27,1,twofour,,,,,,,,,,,,,,,,,,,,,,,,,,,,,,,,,,,,,,,,,,,,,,,,,,,,,,,,,,,,,,,,,,,,,,,,,,,,,,,,,,,,,,,,,,,,,,,,,,,,,,,,,,,,,,,,,,,,,,,,,,,,,,,,,,,,,,,,,
,,6508518b906002118153f087,2024-02-19_15h19.31.979,kallum_motion_pilot,2023.2.2,Win32,20,6508518b906002118153f087,65d2b6c8f2eece985d8e374c,65d2b99dc4c930283d4b771d,0.0149,0.0149,0,39,39,50,1,twoone,,,,,,,,,,,,,,,,,,,,,,,,,,,,,,,,,,,,,,,,,,,,,,,,,,,,,,,,,,,,,,,,,,,,,,,,,,,,,,,,,,,,,,,,,,,,,,,,,,,,,,,,,,,,,,,,,,,,,,,,,,,,,,,,,,,,,,,,,
,,6508518b906002118153f087,2024-02-19_15h19.31.979,kallum_motion_pilot,2023.2.2,Win32,20,6508518b906002118153f087,65d2b6c8f2eece985d8e374c,65d2b99dc4c930283d4b771d,0.015,0.015,0,40,40,111,1,eightseven,,,,,,,,,,,,,,,,,,,,,,,,,,,,,,,,,,,,,,,,,,,,,,,,,,,,,,,,,,,,,,,,,,,,,,,,,,,,,,,,,,,,,,,,,,,,,,,,,,,,,,,,,,,,,,,,,,,,,,,,,,,,,,,,,,,,,,,,,
,,6508518b906002118153f087,2024-02-19_15h19.31.979,kallum_motion_pilot,2023.2.2,Win32,20,6508518b906002118153f087,65d2b6c8f2eece985d8e374c,65d2b99dc4c930283d4b771d,0.015,0.015,0,41,41,33,1,onethree,,,,,,,,,,,,,,,,,,,,,,,,,,,,,,,,,,,,,,,,,,,,,,,,,,,,,,,,,,,,,,,,,,,,,,,,,,,,,,,,,,,,,,,,,,,,,,,,,,,,,,,,,,,,,,,,,,,,,,,,,,,,,,,,,,,,,,,,,
,,6508518b906002118153f087,2024-02-19_15h19.31.979,kallum_motion_pilot,2023.2.2,Win32,20,6508518b906002118153f087,65d2b6c8f2eece985d8e374c,65d2b99dc4c930283d4b771d,0.015,0.015,0,42,42,57,1,onethree,,,,,,,,,,,,,,,,,,,,,,,,,,,,,,,,,,,,,,,,,,,,,,,,,,,,,,,,,,,,,,,,,,,,,,,,,,,,,,,,,,,,,,,,,,,,,,,,,,,,,,,,,,,,,,,,,,,,,,,,,,,,,,,,,,,,,,,,,
,,6508518b906002118153f087,2024-02-19_15h19.31.979,kallum_motion_pilot,2023.2.2,Win32,20,6508518b906002118153f087,65d2b6c8f2eece985d8e374c,65d2b99dc4c930283d4b771d,0.0151,0.0151,0,43,43,121,1,fiveseven,,,,,,,,,,,,,,,,,,,,,,,,,,,,,,,,,,,,,,,,,,,,,,,,,,,,,,,,,,,,,,,,,,,,,,,,,,,,,,,,,,,,,,,,,,,,,,,,,,,,,,,,,,,,,,,,,,,,,,,,,,,,,,,,,,,,,,,,,
,,6508518b906002118153f087,2024-02-19_15h19.31.979,kallum_motion_pilot,2023.2.2,Win32,20,6508518b906002118153f087,65d2b6c8f2eece985d8e374c,65d2b99dc4c930283d4b771d,0.0152,0.0152,0,44,44,138,1,sixfive,,,,,,,,,,,,,,,,,,,,,,,,,,,,,,,,,,,,,,,,,,,,,,,,,,,,,,,,,,,,,,,,,,,,,,,,,,,,,,,,,,,,,,,,,,,,,,,,,,,,,,,,,,,,,,,,,,,,,,,,,,,,,,,,,,,,,,,,,
,,6508518b906002118153f087,2024-02-19_15h19.31.979,kallum_motion_pilot,2023.2.2,Win32,20,6508518b906002118153f087,65d2b6c8f2eece985d8e374c,65d2b99dc4c930283d4b771d,0.0152,0.0152,0,45,45,101,1,seveneight,,,,,,,,,,,,,,,,,,,,,,,,,,,,,,,,,,,,,,,,,,,,,,,,,,,,,,,,,,,,,,,,,,,,,,,,,,,,,,,,,,,,,,,,,,,,,,,,,,,,,,,,,,,,,,,,,,,,,,,,,,,,,,,,,,,,,,,,,
,,6508518b906002118153f087,2024-02-19_15h19.31.979,kallum_motion_pilot,2023.2.2,Win32,20,6508518b906002118153f087,65d2b6c8f2eece985d8e374c,65d2b99dc4c930283d4b771d,0.0152,0.0152,0,46,46,154,1,sixfive,,,,,,,,,,,,,,,,,,,,,,,,,,,,,,,,,,,,,,,,,,,,,,,,,,,,,,,,,,,,,,,,,,,,,,,,,,,,,,,,,,,,,,,,,,,,,,,,,,,,,,,,,,,,,,,,,,,,,,,,,,,,,,,,,,,,,,,,,
,,6508518b906002118153f087,2024-02-19_15h19.31.979,kallum_motion_pilot,2023.2.2,Win32,20,6508518b906002118153f087,65d2b6c8f2eece985d8e374c,65d2b99dc4c930283d4b771d,0.0153,0.0153,0,47,47,6,1,fourtwo,,,,,,,,,,,,,,,,,,,,,,,,,,,,,,,,,,,,,,,,,,,,,,,,,,,,,,,,,,,,,,,,,,,,,,,,,,,,,,,,,,,,,,,,,,,,,,,,,,,,,,,,,,,,,,,,,,,,,,,,,,,,,,,,,,,,,,,,,
,,6508518b906002118153f087,2024-02-19_15h19.31.979,kallum_motion_pilot,2023.2.2,Win32,20,6508518b906002118153f087,65d2b6c8f2eece985d8e374c,65d2b99dc4c930283d4b771d,0.0153,0.0154,0,48,48,35,1,twofour,,,,,,,,,,,,,,,,,,,,,,,,,,,,,,,,,,,,,,,,,,,,,,,,,,,,,,,,,,,,,,,,,,,,,,,,,,,,,,,,,,,,,,,,,,,,,,,,,,,,,,,,,,,,,,,,,,,,,,,,,,,,,,,,,,,,,,,,,
,,6508518b906002118153f087,2024-02-19_15h19.31.979,kallum_motion_pilot,2023.2.2,Win32,20,6508518b906002118153f087,65d2b6c8f2eece985d8e374c,65d2b99dc4c930283d4b771d,0.0154,0.0154,0,49,49,19,1,twofour,,,,,,,,,,,,,,,,,,,,,,,,,,,,,,,,,,,,,,,,,,,,,,,,,,,,,,,,,,,,,,,,,,,,,,,,,,,,,,,,,,,,,,,,,,,,,,,,,,,,,,,,,,,,,,,,,,,,,,,,,,,,,,,,,,,,,,,,,
,,6508518b906002118153f087,2024-02-19_15h19.31.979,kallum_motion_pilot,2023.2.2,Win32,20,6508518b906002118153f087,65d2b6c8f2eece985d8e374c,65d2b99dc4c930283d4b771d,0.0154,0.0154,0,50,50,160,1,fivesix,,,,,,,,,,,,,,,,,,,,,,,,,,,,,,,,,,,,,,,,,,,,,,,,,,,,,,,,,,,,,,,,,,,,,,,,,,,,,,,,,,,,,,,,,,,,,,,,,,,,,,,,,,,,,,,,,,,,,,,,,,,,,,,,,,,,,,,,,
,,6508518b906002118153f087,2024-02-19_15h19.31.979,kallum_motion_pilot,2023.2.2,Win32,20,6508518b906002118153f087,65d2b6c8f2eece985d8e374c,65d2b99dc4c930283d4b771d,0.0154,0.0154,0,51,51,126,1,eightsix,,,,,,,,,,,,,,,,,,,,,,,,,,,,,,,,,,,,,,,,,,,,,,,,,,,,,,,,,,,,,,,,,,,,,,,,,,,,,,,,,,,,,,,,,,,,,,,,,,,,,,,,,,,,,,,,,,,,,,,,,,,,,,,,,,,,,,,,,
,,6508518b906002118153f087,2024-02-19_15h19.31.979,kallum_motion_pilot,2023.2.2,Win32,20,6508518b906002118153f087,65d2b6c8f2eece985d8e374c,65d2b99dc4c930283d4b771d,0.0155,0.0155,0,52,52,125,1,seveneight,,,,,,,,,,,,,,,,,,,,,,,,,,,,,,,,,,,,,,,,,,,,,,,,,,,,,,,,,,,,,,,,,,,,,,,,,,,,,,,,,,,,,,,,,,,,,,,,,,,,,,,,,,,,,,,,,,,,,,,,,,,,,,,,,,,,,,,,,
,,6508518b906002118153f087,2024-02-19_15h19.31.979,kallum_motion_pilot,2023.2.2,Win32,20,6508518b906002118153f087,65d2b6c8f2eece985d8e374c,65d2b99dc4c930283d4b771d,0.0155,0.0155,0,53,53,26,1,twoone,,,,,,,,,,,,,,,,,,,,,,,,,,,,,,,,,,,,,,,,,,,,,,,,,,,,,,,,,,,,,,,,,,,,,,,,,,,,,,,,,,,,,,,,,,,,,,,,,,,,,,,,,,,,,,,,,,,,,,,,,,,,,,,,,,,,,,,,,
,,6508518b906002118153f087,2024-02-19_15h19.31.979,kallum_motion_pilot,2023.2.2,Win32,20,6508518b906002118153f087,65d2b6c8f2eece985d8e374c,65d2b99dc4c930283d4b771d,0.0155,0.0156,0,54,54,146,1,sixfive,,,,,,,,,,,,,,,,,,,,,,,,,,,,,,,,,,,,,,,,,,,,,,,,,,,,,,,,,,,,,,,,,,,,,,,,,,,,,,,,,,,,,,,,,,,,,,,,,,,,,,,,,,,,,,,,,,,,,,,,,,,,,,,,,,,,,,,,,
,,6508518b906002118153f087,2024-02-19_15h19.31.979,kallum_motion_pilot,2023.2.2,Win32,20,6508518b906002118153f087,65d2b6c8f2eece985d8e374c,65d2b99dc4c930283d4b771d,0.0156,0.0156,0,55,55,41,1,onethree,,,,,,,,,,,,,,,,,,,,,,,,,,,,,,,,,,,,,,,,,,,,,,,,,,,,,,,,,,,,,,,,,,,,,,,,,,,,,,,,,,,,,,,,,,,,,,,,,,,,,,,,,,,,,,,,,,,,,,,,,,,,,,,,,,,,,,,,,
,,6508518b906002118153f087,2024-02-19_15h19.31.979,kallum_motion_pilot,2023.2.2,Win32,20,6508518b906002118153f087,65d2b6c8f2eece985d8e374c,65d2b99dc4c930283d4b771d,0.0156,0.0156,0,56,56,23,1,fourthree,,,,,,,,,,,,,,,,,,,,,,,,,,,,,,,,,,,,,,,,,,,,,,,,,,,,,,,,,,,,,,,,,,,,,,,,,,,,,,,,,,,,,,,,,,,,,,,,,,,,,,,,,,,,,,,,,,,,,,,,,,,,,,,,,,,,,,,,,
,,6508518b906002118153f087,2024-02-19_15h19.31.979,kallum_motion_pilot,2023.2.2,Win32,20,6508518b906002118153f087,65d2b6c8f2eece985d8e374c,65d2b99dc4c930283d4b771d,0.0157,0.0157,0,57,57,99,1,sixeight,,,,,,,,,,,,,,,,,,,,,,,,,,,,,,,,,,,,,,,,,,,,,,,,,,,,,,,,,,,,,,,,,,,,,,,,,,,,,,,,,,,,,,,,,,,,,,,,,,,,,,,,,,,,,,,,,,,,,,,,,,,,,,,,,,,,,,,,,
,,6508518b906002118153f087,2024-02-19_15h19.31.979,kallum_motion_pilot,2023.2.2,Win32,20,6508518b906002118153f087,65d2b6c8f2eece985d8e374c,65d2b99dc4c930283d4b771d,0.0157,0.0157,0,58,58,108,1,sevenfive,,,,,,,,,,,,,,,,,,,,,,,,,,,,,,,,,,,,,,,,,,,,,,,,,,,,,,,,,,,,,,,,,,,,,,,,,,,,,,,,,,,,,,,,,,,,,,,,,,,,,,,,,,,,,,,,,,,,,,,,,,,,,,,,,,,,,,,,,
,,6508518b906002118153f087,2024-02-19_15h19.31.979,kallum_motion_pilot,2023.2.2,Win32,20,6508518b906002118153f087,65d2b6c8f2eece985d8e374c,65d2b99dc4c930283d4b771d,0.0157,0.0158,0,59,59,102,1,eightsix,,,,,,,,,,,,,,,,,,,,,,,,,,,,,,,,,,,,,,,,,,,,,,,,,,,,,,,,,,,,,,,,,,,,,,,,,,,,,,,,,,,,,,,,,,,,,,,,,,,,,,,,,,,,,,,,,,,,,,,,,,,,,,,,,,,,,,,,,
,,6508518b906002118153f087,2024-02-19_15h19.31.979,kallum_motion_pilot,2023.2.2,Win32,20,6508518b906002118153f087,65d2b6c8f2eece985d8e374c,65d2b99dc4c930283d4b771d,0.0158,0.0158,0,60,60,110,1,eightsix,,,,,,,,,,,,,,,,,,,,,,,,,,,,,,,,,,,,,,,,,,,,,,,,,,,,,,,,,,,,,,,,,,,,,,,,,,,,,,,,,,,,,,,,,,,,,,,,,,,,,,,,,,,,,,,,,,,,,,,,,,,,,,,,,,,,,,,,,
,,6508518b906002118153f087,2024-02-19_15h19.31.979,kallum_motion_pilot,2023.2.2,Win32,20,6508518b906002118153f087,65d2b6c8f2eece985d8e374c,65d2b99dc4c930283d4b771d,0.0158,0.0158,0,61,61,2,1,twoone,,,,,,,,,,,,,,,,,,,,,,,,,,,,,,,,,,,,,,,,,,,,,,,,,,,,,,,,,,,,,,,,,,,,,,,,,,,,,,,,,,,,,,,,,,,,,,,,,,,,,,,,,,,,,,,,,,,,,,,,,,,,,,,,,,,,,,,,,
,,6508518b906002118153f087,2024-02-19_15h19.31.979,kallum_motion_pilot,2023.2.2,Win32,20,6508518b906002118153f087,65d2b6c8f2eece985d8e374c,65d2b99dc4c930283d4b771d,0.0158,0.0158,0,62,62,31,1,fourthree,,,,,,,,,,,,,,,,,,,,,,,,,,,,,,,,,,,,,,,,,,,,,,,,,,,,,,,,,,,,,,,,,,,,,,,,,,,,,,,,,,,,,,,,,,,,,,,,,,,,,,,,,,,,,,,,,,,,,,,,,,,,,,,,,,,,,,,,,
,,6508518b906002118153f087,2024-02-19_15h19.31.979,kallum_motion_pilot,2023.2.2,Win32,20,6508518b906002118153f087,65d2b6c8f2eece985d8e374c,65d2b99dc4c930283d4b771d,0.0159,0.0159,0,63,63,62,1,fourtwo,,,,,,,,,,,,,,,,,,,,,,,,,,,,,,,,,,,,,,,,,,,,,,,,,,,,,,,,,,,,,,,,,,,,,,,,,,,,,,,,,,,,,,,,,,,,,,,,,,,,,,,,,,,,,,,,,,,,,,,,,,,,,,,,,,,,,,,,,
,,6508518b906002118153f087,2024-02-19_15h19.31.979,kallum_motion_pilot,2023.2.2,Win32,20,6508518b906002118153f087,65d2b6c8f2eece985d8e374c,65d2b99dc4c930283d4b771d,0.0159,0.0159,0,64,64,20,1,threeone,,,,,,,,,,,,,,,,,,,,,,,,,,,,,,,,,,,,,,,,,,,,,,,,,,,,,,,,,,,,,,,,,,,,,,,,,,,,,,,,,,,,,,,,,,,,,,,,,,,,,,,,,,,,,,,,,,,,,,,,,,,,,,,,,,,,,,,,,
,,6508518b906002118153f087,2024-02-19_15h19.31.979,kallum_motion_pilot,2023.2.2,Win32,20,6508518b906002118153f087,65d2b6c8f2eece985d8e374c,65d2b99dc4c930283d4b771d,0.016,0.016,0,65,65,48,1,onetwo,,,,,,,,,,,,,,,,,,,,,,,,,,,,,,,,,,,,,,,,,,,,,,,,,,,,,,,,,,,,,,,,,,,,,,,,,,,,,,,,,,,,,,,,,,,,,,,,,,,,,,,,,,,,,,,,,,,,,,,,,,,,,,,,,,,,,,,,,
,,6508518b906002118153f087,2024-02-19_15h19.31.979,kallum_motion_pilot,2023.2.2,Win32,20,6508518b906002118153f087,65d2b6c8f2eece985d8e374c,65d2b99dc4c930283d4b771d,0.016,0.0161,0,66,66,73,1,onethree,,,,,,,,,,,,,,,,,,,,,,,,,,,,,,,,,,,,,,,,,,,,,,,,,,,,,,,,,,,,,,,,,,,,,,,,,,,,,,,,,,,,,,,,,,,,,,,,,,,,,,,,,,,,,,,,,,,,,,,,,,,,,,,,,,,,,,,,,
,,6508518b906002118153f087,2024-02-19_15h19.31.979,kallum_motion_pilot,2023.2.2,Win32,20,6508518b906002118153f087,65d2b6c8f2eece985d8e374c,65d2b99dc4c930283d4b771d,0.0161,0.0161,0,67,67,114,1,sixfive,,,,,,,,,,,,,,,,,,,,,,,,,,,,,,,,,,,,,,,,,,,,,,,,,,,,,,,,,,,,,,,,,,,,,,,,,,,,,,,,,,,,,,,,,,,,,,,,,,,,,,,,,,,,,,,,,,,,,,,,,,,,,,,,,,,,,,,,,
,,6508518b906002118153f087,2024-02-19_15h19.31.979,kallum_motion_pilot,2023.2.2,Win32,20,6508518b906002118153f087,65d2b6c8f2eece985d8e374c,65d2b99dc4c930283d4b771d,0.0161,0.0161,0,68,68,59,1,twofour,,,,,,,,,,,,,,,,,,,,,,,,,,,,,,,,,,,,,,,,,,,,,,,,,,,,,,,,,,,,,,,,,,,,,,,,,,,,,,,,,,,,,,,,,,,,,,,,,,,,,,,,,,,,,,,,,,,,,,,,,,,,,,,,,,,,,,,,,
,,6508518b906002118153f087,2024-02-19_15h19.31.979,kallum_motion_pilot,2023.2.2,Win32,20,6508518b906002118153f087,65d2b6c8f2eece985d8e374c,65d2b99dc4c930283d4b771d,0.0162,0.0162,0,69,69,70,1,fourtwo,,,,,,,,,,,,,,,,,,,,,,,,,,,,,,,,,,,,,,,,,,,,,,,,,,,,,,,,,,,,,,,,,,,,,,,,,,,,,,,,,,,,,,,,,,,,,,,,,,,,,,,,,,,,,,,,,,,,,,,,,,,,,,,,,,,,,,,,,
,,6508518b906002118153f087,2024-02-19_15h19.31.979,kallum_motion_pilot,2023.2.2,Win32,20,6508518b906002118153f087,65d2b6c8f2eece985d8e374c,65d2b99dc4c930283d4b771d,0.0163,0.0163,0,70,70,25,1,onethree,,,,,,,,,,,,,,,,,,,,,,,,,,,,,,,,,,,,,,,,,,,,,,,,,,,,,,,,,,,,,,,,,,,,,,,,,,,,,,,,,,,,,,,,,,,,,,,,,,,,,,,,,,,,,,,,,,,,,,,,,,,,,,,,,,,,,,,,,
,,6508518b906002118153f087,2024-02-19_15h19.31.979,kallum_motion_pilot,2023.2.2,Win32,20,6508518b906002118153f087,65d2b6c8f2eece985d8e374c,65d2b99dc4c930283d4b771d,0.0163,0.0163,0,71,71,69,1,threefour,,,,,,,,,,,,,,,,,,,,,,,,,,,,,,,,,,,,,,,,,,,,,,,,,,,,,,,,,,,,,,,,,,,,,,,,,,,,,,,,,,,,,,,,,,,,,,,,,,,,,,,,,,,,,,,,,,,,,,,,,,,,,,,,,,,,,,,,,
,,6508518b906002118153f087,2024-02-19_15h19.31.979,kallum_motion_pilot,2023.2.2,Win32,20,6508518b906002118153f087,65d2b6c8f2eece985d8e374c,65d2b99dc4c930283d4b771d,0.0163,0.0164,0,72,72,115,1,sixeight,,,,,,,,,,,,,,,,,,,,,,,,,,,,,,,,,,,,,,,,,,,,,,,,,,,,,,,,,,,,,,,,,,,,,,,,,,,,,,,,,,,,,,,,,,,,,,,,,,,,,,,,,,,,,,,,,,,,,,,,,,,,,,,,,,,,,,,,,
,,6508518b906002118153f087,2024-02-19_15h19.31.979,kallum_motion_pilot,2023.2.2,Win32,20,6508518b906002118153f087,65d2b6c8f2eece985d8e374c,65d2b99dc4c930283d4b771d,0.0164,0.0164,0,73,73,88,1,fivesix,,,,,,,,,,,,,,,,,,,,,,,,,,,,,,,,,,,,,,,,,,,,,,,,,,,,,,,,,,,,,,,,,,,,,,,,,,,,,,,,,,,,,,,,,,,,,,,,,,,,,,,,,,,,,,,,,,,,,,,,,,,,,,,,,,,,,,,,,
,,6508518b906002118153f087,2024-02-19_15h19.31.979,kallum_motion_pilot,2023.2.2,Win32,20,6508518b906002118153f087,65d2b6c8f2eece985d8e374c,65d2b99dc4c930283d4b771d,0.0164,0.0164,0,74,74,11,1,twofour,,,,,,,,,,,,,,,,,,,,,,,,,,,,,,,,,,,,,,,,,,,,,,,,,,,,,,,,,,,,,,,,,,,,,,,,,,,,,,,,,,,,,,,,,,,,,,,,,,,,,,,,,,,,,,,,,,,,,,,,,,,,,,,,,,,,,,,,,
,,6508518b906002118153f087,2024-02-19_15h19.31.979,kallum_motion_pilot,2023.2.2,Win32,20,6508518b906002118153f087,65d2b6c8f2eece985d8e374c,65d2b99dc4c930283d4b771d,0.0164,0.0164,0,75,75,30,1,fourtwo,,,,,,,,,,,,,,,,,,,,,,,,,,,,,,,,,,,,,,,,,,,,,,,,,,,,,,,,,,,,,,,,,,,,,,,,,,,,,,,,,,,,,,,,,,,,,,,,,,,,,,,,,,,,,,,,,,,,,,,,,,,,,,,,,,,,,,,,,
,,6508518b906002118153f087,2024-02-19_15h19.31.979,kallum_motion_pilot,2023.2.2,Win32,20,6508518b906002118153f087,65d2b6c8f2eece985d8e374c,65d2b99dc4c930283d4b771d,0.0165,0.0165,0,76,76,149,1,seveneight,,,,,,,,,,,,,,,,,,,,,,,,,,,,,,,,,,,,,,,,,,,,,,,,,,,,,,,,,,,,,,,,,,,,,,,,,,,,,,,,,,,,,,,,,,,,,,,,,,,,,,,,,,,,,,,,,,,,,,,,,,,,,,,,,,,,,,,,,
,,6508518b906002118153f087,2024-02-19_15h19.31.979,kallum_motion_pilot,2023.2.2,Win32,20,6508518b906002118153f087,65d2b6c8f2eece985d8e374c,65d2b99dc4c930283d4b771d,0.0165,0.0166,0,77,77,132,1,sevenfive,,,,,,,,,,,,,,,,,,,,,,,,,,,,,,,,,,,,,,,,,,,,,,,,,,,,,,,,,,,,,,,,,,,,,,,,,,,,,,,,,,,,,,,,,,,,,,,,,,,,,,,,,,,,,,,,,,,,,,,,,,,,,,,,,,,,,,,,,
,,6508518b906002118153f087,2024-02-19_15h19.31.979,kallum_motion_pilot,2023.2.2,Win32,20,6508518b906002118153f087,65d2b6c8f2eece985d8e374c,65d2b99dc4c930283d4b771d,0.0166,0.0166,0,78,78,100,1,sevenfive,,,,,,,,,,,,,,,,,,,,,,,,,,,,,,,,,,,,,,,,,,,,,,,,,,,,,,,,,,,,,,,,,,,,,,,,,,,,,,,,,,,,,,,,,,,,,,,,,,,,,,,,,,,,,,,,,,,,,,,,,,,,,,,,,,,,,,,,,
,,6508518b906002118153f087,2024-02-19_15h19.31.979,kallum_motion_pilot,2023.2.2,Win32,20,6508518b906002118153f087,65d2b6c8f2eece985d8e374c,65d2b99dc4c930283d4b771d,0.0166,0.0166,0,79,79,42,1,twoone,,,,,,,,,,,,,,,,,,,,,,,,,,,,,,,,,,,,,,,,,,,,,,,,,,,,,,,,,,,,,,,,,,,,,,,,,,,,,,,,,,,,,,,,,,,,,,,,,,,,,,,,,,,,,,,,,,,,,,,,,,,,,,,,,,,,,,,,,
,,6508518b906002118153f087,2024-02-19_15h19.31.979,kallum_motion_pilot,2023.2.2,Win32,20,6508518b906002118153f087,65d2b6c8f2eece985d8e374c,65d2b99dc4c930283d4b771d,0.017,0.0171,0,80,80,28,1,threeone,,,,,,,,,,,,,,,,,,,,,,,,,,,,,,,,,,,,,,,,,,,,,,,,,,,,,,,,,,,,,,,,,,,,,,,,,,,,,,,,,,,,,,,,,,,,,,,,,,,,,,,,,,,,,,,,,,,,,,,,,,,,,,,,,,,,,,,,,
,,6508518b906002118153f087,2024-02-19_15h19.31.979,kallum_motion_pilot,2023.2.2,Win32,20,6508518b906002118153f087,65d2b6c8f2eece985d8e374c,65d2b99dc4c930283d4b771d,0.0171,0.0171,0,81,81,91,1,sixeight,,,,,,,,,,,,,,,,,,,,,,,,,,,,,,,,,,,,,,,,,,,,,,,,,,,,,,,,,,,,,,,,,,,,,,,,,,,,,,,,,,,,,,,,,,,,,,,,,,,,,,,,,,,,,,,,,,,,,,,,,,,,,,,,,,,,,,,,,
,,6508518b906002118153f087,2024-02-19_15h19.31.979,kallum_motion_pilot,2023.2.2,Win32,20,6508518b906002118153f087,65d2b6c8f2eece985d8e374c,65d2b99dc4c930283d4b771d,0.0172,0.0172,0,82,82,12,1,threeone,,,,,,,,,,,,,,,,,,,,,,,,,,,,,,,,,,,,,,,,,,,,,,,,,,,,,,,,,,,,,,,,,,,,,,,,,,,,,,,,,,,,,,,,,,,,,,,,,,,,,,,,,,,,,,,,,,,,,,,,,,,,,,,,,,,,,,,,,
,,6508518b906002118153f087,2024-02-19_15h19.31.979,kallum_motion_pilot,2023.2.2,Win32,20,6508518b906002118153f087,65d2b6c8f2eece985d8e374c,65d2b99dc4c930283d4b771d,0.0172,0.0173,0,83,83,118,1,eightsix,,,,,,,,,,,,,,,,,,,,,,,,,,,,,,,,,,,,,,,,,,,,,,,,,,,,,,,,,,,,,,,,,,,,,,,,,,,,,,,,,,,,,,,,,,,,,,,,,,,,,,,,,,,,,,,,,,,,,,,,,,,,,,,,,,,,,,,,,
,,6508518b906002118153f087,2024-02-19_15h19.31.979,kallum_motion_pilot,2023.2.2,Win32,20,6508518b906002118153f087,65d2b6c8f2eece985d8e374c,65d2b99dc4c930283d4b771d,0.0173,0.0173,0,84,84,150,1,eightsix,,,,,,,,,,,,,,,,,,,,,,,,,,,,,,,,,,,,,,,,,,,,,,,,,,,,,,,,,,,,,,,,,,,,,,,,,,,,,,,,,,,,,,,,,,,,,,,,,,,,,,,,,,,,,,,,,,,,,,,,,,,,,,,,,,,,,,,,,
,,6508518b906002118153f087,2024-02-19_15h19.31.979,kallum_motion_pilot,2023.2.2,Win32,20,6508518b906002118153f087,65d2b6c8f2eece985d8e374c,65d2b99dc4c930283d4b771d,0.0174,0.0174,0,85,85,79,1,eightseven,,,,,,,,,,,,,,,,,,,,,,,,,,,,,,,,,,,,,,,,,,,,,,,,,,,,,,,,,,,,,,,,,,,,,,,,,,,,,,,,,,,,,,,,,,,,,,,,,,,,,,,,,,,,,,,,,,,,,,,,,,,,,,,,,,,,,,,,,
,,6508518b906002118153f087,2024-02-19_15h19.31.979,kallum_motion_pilot,2023.2.2,Win32,20,6508518b906002118153f087,65d2b6c8f2eece985d8e374c,65d2b99dc4c930283d4b771d,0.0174,0.0174,0,86,86,14,1,fourtwo,,,,,,,,,,,,,,,,,,,,,,,,,,,,,,,,,,,,,,,,,,,,,,,,,,,,,,,,,,,,,,,,,,,,,,,,,,,,,,,,,,,,,,,,,,,,,,,,,,,,,,,,,,,,,,,,,,,,,,,,,,,,,,,,,,,,,,,,,
,,6508518b906002118153f087,2024-02-19_15h19.31.979,kallum_motion_pilot,2023.2.2,Win32,20,6508518b906002118153f087,65d2b6c8f2eece985d8e374c,65d2b99dc4c930283d4b771d,0.0174,0.0174,0,87,87,145,1,fiveseven,,,,,,,,,,,,,,,,,,,,,,,,,,,,,,,,,,,,,,,,,,,,,,,,,,,,,,,,,,,,,,,,,,,,,,,,,,,,,,,,,,,,,,,,,,,,,,,,,,,,,,,,,,,,,,,,,,,,,,,,,,,,,,,,,,,,,,,,,
,,6508518b906002118153f087,2024-02-19_15h19.31.979,kallum_motion_pilot,2023.2.2,Win32,20,6508518b906002118153f087,65d2b6c8f2eece985d8e374c,65d2b99dc4c930283d4b771d,0.0175,0.0175,0,88,88,34,1,twoone,,,,,,,,,,,,,,,,,,,,,,,,,,,,,,,,,,,,,,,,,,,,,,,,,,,,,,,,,,,,,,,,,,,,,,,,,,,,,,,,,,,,,,,,,,,,,,,,,,,,,,,,,,,,,,,,,,,,,,,,,,,,,,,,,,,,,,,,,
,,6508518b906002118153f087,2024-02-19_15h19.31.979,kallum_motion_pilot,2023.2.2,Win32,20,6508518b906002118153f087,65d2b6c8f2eece985d8e374c,65d2b99dc4c930283d4b771d,0.0176,0.0176,0,89,89,135,1,eightseven,,,,,,,,,,,,,,,,,,,,,,,,,,,,,,,,,,,,,,,,,,,,,,,,,,,,,,,,,,,,,,,,,,,,,,,,,,,,,,,,,,,,,,,,,,,,,,,,,,,,,,,,,,,,,,,,,,,,,,,,,,,,,,,,,,,,,,,,,
,,6508518b906002118153f087,2024-02-19_15h19.31.979,kallum_motion_pilot,2023.2.2,Win32,20,6508518b906002118153f087,65d2b6c8f2eece985d8e374c,65d2b99dc4c930283d4b771d,0.0176,0.0176,0,90,90,97,1,fiveseven,,,,,,,,,,,,,,,,,,,,,,,,,,,,,,,,,,,,,,,,,,,,,,,,,,,,,,,,,,,,,,,,,,,,,,,,,,,,,,,,,,,,,,,,,,,,,,,,,,,,,,,,,,,,,,,,,,,,,,,,,,,,,,,,,,,,,,,,,
,,6508518b906002118153f087,2024-02-19_15h19.31.979,kallum_motion_pilot,2023.2.2,Win32,20,6508518b906002118153f087,65d2b6c8f2eece985d8e374c,65d2b99dc4c930283d4b771d,0.0176,0.0177,0,91,91,61,1,threefour,,,,,,,,,,,,,,,,,,,,,,,,,,,,,,,,,,,,,,,,,,,,,,,,,,,,,,,,,,,,,,,,,,,,,,,,,,,,,,,,,,,,,,,,,,,,,,,,,,,,,,,,,,,,,,,,,,,,,,,,,,,,,,,,,,,,,,,,,
,,6508518b906002118153f087,2024-02-19_15h19.31.979,kallum_motion_pilot,2023.2.2,Win32,20,6508518b906002118153f087,65d2b6c8f2eece985d8e374c,65d2b99dc4c930283d4b771d,0.0177,0.0177,0,92,92,44,1,threeone,,,,,,,,,,,,,,,,,,,,,,,,,,,,,,,,,,,,,,,,,,,,,,,,,,,,,,,,,,,,,,,,,,,,,,,,,,,,,,,,,,,,,,,,,,,,,,,,,,,,,,,,,,,,,,,,,,,,,,,,,,,,,,,,,,,,,,,,,
,,6508518b906002118153f087,2024-02-19_15h19.31.979,kallum_motion_pilot,2023.2.2,Win32,20,6508518b906002118153f087,65d2b6c8f2eece985d8e374c,65d2b99dc4c930283d4b771d,0.0177,0.0178,0,93,93,37,1,threefour,,,,,,,,,,,,,,,,,,,,,,,,,,,,,,,,,,,,,,,,,,,,,,,,,,,,,,,,,,,,,,,,,,,,,,,,,,,,,,,,,,,,,,,,,,,,,,,,,,,,,,,,,,,,,,,,,,,,,,,,,,,,,,,,,,,,,,,,,
,,6508518b906002118153f087,2024-02-19_15h19.31.979,kallum_motion_pilot,2023.2.2,Win32,20,6508518b906002118153f087,65d2b6c8f2eece985d8e374c,65d2b99dc4c930283d4b771d,0.0178,0.0178,0,94,94,130,1,sixfive,,,,,,,,,,,,,,,,,,,,,,,,,,,,,,,,,,,,,,,,,,,,,,,,,,,,,,,,,,,,,,,,,,,,,,,,,,,,,,,,,,,,,,,,,,,,,,,,,,,,,,,,,,,,,,,,,,,,,,,,,,,,,,,,,,,,,,,,,
,,6508518b906002118153f087,2024-02-19_15h19.31.979,kallum_motion_pilot,2023.2.2,Win32,20,6508518b906002118153f087,65d2b6c8f2eece985d8e374c,65d2b99dc4c930283d4b771d,0.0178,0.0178,0,95,95,96,1,fivesix,,,,,,,,,,,,,,,,,,,,,,,,,,,,,,,,,,,,,,,,,,,,,,,,,,,,,,,,,,,,,,,,,,,,,,,,,,,,,,,,,,,,,,,,,,,,,,,,,,,,,,,,,,,,,,,,,,,,,,,,,,,,,,,,,,,,,,,,,
,,6508518b906002118153f087,2024-02-19_15h19.31.979,kallum_motion_pilot,2023.2.2,Win32,20,6508518b906002118153f087,65d2b6c8f2eece985d8e374c,65d2b99dc4c930283d4b771d,0.0179,0.0179,0,96,96,137,1,fiveseven,,,,,,,,,,,,,,,,,,,,,,,,,,,,,,,,,,,,,,,,,,,,,,,,,,,,,,,,,,,,,,,,,,,,,,,,,,,,,,,,,,,,,,,,,,,,,,,,,,,,,,,,,,,,,,,,,,,,,,,,,,,,,,,,,,,,,,,,,
,,6508518b906002118153f087,2024-02-19_15h19.31.979,kallum_motion_pilot,2023.2.2,Win32,20,6508518b906002118153f087,65d2b6c8f2eece985d8e374c,65d2b99dc4c930283d4b771d,0.018,0.018,0,97,97,86,1,eightsix,,,,,,,,,,,,,,,,,,,,,,,,,,,,,,,,,,,,,,,,,,,,,,,,,,,,,,,,,,,,,,,,,,,,,,,,,,,,,,,,,,,,,,,,,,,,,,,,,,,,,,,,,,,,,,,,,,,,,,,,,,,,,,,,,,,,,,,,,
,,6508518b906002118153f087,2024-02-19_15h19.31.979,kallum_motion_pilot,2023.2.2,Win32,20,6508518b906002118153f087,65d2b6c8f2eece985d8e374c,65d2b99dc4c930283d4b771d,0.018,0.018,0,98,98,60,1,threeone,,,,,,,,,,,,,,,,,,,,,,,,,,,,,,,,,,,,,,,,,,,,,,,,,,,,,,,,,,,,,,,,,,,,,,,,,,,,,,,,,,,,,,,,,,,,,,,,,,,,,,,,,,,,,,,,,,,,,,,,,,,,,,,,,,,,,,,,,
,,6508518b906002118153f087,2024-02-19_15h19.31.979,kallum_motion_pilot,2023.2.2,Win32,20,6508518b906002118153f087,65d2b6c8f2eece985d8e374c,65d2b99dc4c930283d4b771d,0.018,0.018,0,99,99,54,1,fourtwo,,,,,,,,,,,,,,,,,,,,,,,,,,,,,,,,,,,,,,,,,,,,,,,,,,,,,,,,,,,,,,,,,,,,,,,,,,,,,,,,,,,,,,,,,,,,,,,,,,,,,,,,,,,,,,,,,,,,,,,,,,,,,,,,,,,,,,,,,
,,6508518b906002118153f087,2024-02-19_15h19.31.979,kallum_motion_pilot,2023.2.2,Win32,20,6508518b906002118153f087,65d2b6c8f2eece985d8e374c,65d2b99dc4c930283d4b771d,0.0181,0.0181,0,100,100,0,1,onetwo,,,,,,,,,,,,,,,,,,,,,,,,,,,,,,,,,,,,,,,,,,,,,,,,,,,,,,,,,,,,,,,,,,,,,,,,,,,,,,,,,,,,,,,,,,,,,,,,,,,,,,,,,,,,,,,,,,,,,,,,,,,,,,,,,,,,,,,,,
,,6508518b906002118153f087,2024-02-19_15h19.31.979,kallum_motion_pilot,2023.2.2,Win32,20,6508518b906002118153f087,65d2b6c8f2eece985d8e374c,65d2b99dc4c930283d4b771d,0.0182,0.0182,0,101,101,148,1,sevenfive,,,,,,,,,,,,,,,,,,,,,,,,,,,,,,,,,,,,,,,,,,,,,,,,,,,,,,,,,,,,,,,,,,,,,,,,,,,,,,,,,,,,,,,,,,,,,,,,,,,,,,,,,,,,,,,,,,,,,,,,,,,,,,,,,,,,,,,,,
,,6508518b906002118153f087,2024-02-19_15h19.31.979,kallum_motion_pilot,2023.2.2,Win32,20,6508518b906002118153f087,65d2b6c8f2eece985d8e374c,65d2b99dc4c930283d4b771d,0.0182,0.0182,0,102,102,24,1,onetwo,,,,,,,,,,,,,,,,,,,,,,,,,,,,,,,,,,,,,,,,,,,,,,,,,,,,,,,,,,,,,,,,,,,,,,,,,,,,,,,,,,,,,,,,,,,,,,,,,,,,,,,,,,,,,,,,,,,,,,,,,,,,,,,,,,,,,,,,,
,,6508518b906002118153f087,2024-02-19_15h19.31.979,kallum_motion_pilot,2023.2.2,Win32,20,6508518b906002118153f087,65d2b6c8f2eece985d8e374c,65d2b99dc4c930283d4b771d,0.0183,0.0183,0,103,103,39,1,fourthree,,,,,,,,,,,,,,,,,,,,,,,,,,,,,,,,,,,,,,,,,,,,,,,,,,,,,,,,,,,,,,,,,,,,,,,,,,,,,,,,,,,,,,,,,,,,,,,,,,,,,,,,,,,,,,,,,,,,,,,,,,,,,,,,,,,,,,,,,
,,6508518b906002118153f087,2024-02-19_15h19.31.979,kallum_motion_pilot,2023.2.2,Win32,20,6508518b906002118153f087,65d2b6c8f2eece985d8e374c,65d2b99dc4c930283d4b771d,0.0183,0.0183,0,104,104,49,1,onethree,,,,,,,,,,,,,,,,,,,,,,,,,,,,,,,,,,,,,,,,,,,,,,,,,,,,,,,,,,,,,,,,,,,,,,,,,,,,,,,,,,,,,,,,,,,,,,,,,,,,,,,,,,,,,,,,,,,,,,,,,,,,,,,,,,,,,,,,,
,,6508518b906002118153f087,2024-02-19_15h19.31.979,kallum_motion_pilot,2023.2.2,Win32,20,6508518b906002118153f087,65d2b6c8f2eece985d8e374c,65d2b99dc4c930283d4b771d,0.0183,0.0183,0,105,105,13,1,threefour,,,,,,,,,,,,,,,,,,,,,,,,,,,,,,,,,,,,,,,,,,,,,,,,,,,,,,,,,,,,,,,,,,,,,,,,,,,,,,,,,,,,,,,,,,,,,,,,,,,,,,,,,,,,,,,,,,,,,,,,,,,,,,,,,,,,,,,,,
,,6508518b906002118153f087,2024-02-19_15h19.31.979,kallum_motion_pilot,2023.2.2,Win32,20,6508518b906002118153f087,65d2b6c8f2eece985d8e374c,65d2b99dc4c930283d4b771d,0.0183,0.0184,0,106,106,157,1,seveneight,,,,,,,,,,,,,,,,,,,,,,,,,,,,,,,,,,,,,,,,,,,,,,,,,,,,,,,,,,,,,,,,,,,,,,,,,,,,,,,,,,,,,,,,,,,,,,,,,,,,,,,,,,,,,,,,,,,,,,,,,,,,,,,,,,,,,,,,,
,,6508518b906002118153f087,2024-02-19_15h19.31.979,kallum_motion_pilot,2023.2.2,Win32,20,6508518b906002118153f087,65d2b6c8f2eece985d8e374c,65d2b99dc4c930283d4b771d,0.0184,0.0184,0,107,107,55,1,fourthree,,,,,,,,,,,,,,,,,,,,,,,,,,,,,,,,,,,,,,,,,,,,,,,,,,,,,,,,,,,,,,,,,,,,,,,,,,,,,,,,,,,,,,,,,,,,,,,,,,,,,,,,,,,,,,,,,,,,,,,,,,,,,,,,,,,,,,,,,
,,6508518b906002118153f087,2024-02-19_15h19.31.979,kallum_motion_pilot,2023.2.2,Win32,20,6508518b906002118153f087,65d2b6c8f2eece985d8e374c,65d2b99dc4c930283d4b771d,0.0184,0.0184,0,108,108,8,1,onetwo,,,,,,,,,,,,,,,,,,,,,,,,,,,,,,,,,,,,,,,,,,,,,,,,,,,,,,,,,,,,,,,,,,,,,,,,,,,,,,,,,,,,,,,,,,,,,,,,,,,,,,,,,,,,,,,,,,,,,,,,,,,,,,,,,,,,,,,,,
,,6508518b906002118153f087,2024-02-19_15h19.31.979,kallum_motion_pilot,2023.2.2,Win32,20,6508518b906002118153f087,65d2b6c8f2eece985d8e374c,65d2b99dc4c930283d4b771d,0.0184,0.0185,0,109,109,83,1,sixeight,,,,,,,,,,,,,,,,,,,,,,,,,,,,,,,,,,,,,,,,,,,,,,,,,,,,,,,,,,,,,,,,,,,,,,,,,,,,,,,,,,,,,,,,,,,,,,,,,,,,,,,,,,,,,,,,,,,,,,,,,,,,,,,,,,,,,,,,,
,,6508518b906002118153f087,2024-02-19_15h19.31.979,kallum_motion_pilot,2023.2.2,Win32,20,6508518b906002118153f087,65d2b6c8f2eece985d8e374c,65d2b99dc4c930283d4b771d,0.0186,0.0186,0,110,110,64,1,onetwo,,,,,,,,,,,,,,,,,,,,,,,,,,,,,,,,,,,,,,,,,,,,,,,,,,,,,,,,,,,,,,,,,,,,,,,,,,,,,,,,,,,,,,,,,,,,,,,,,,,,,,,,,,,,,,,,,,,,,,,,,,,,,,,,,,,,,,,,,
,,6508518b906002118153f087,2024-02-19_15h19.31.979,kallum_motion_pilot,2023.2.2,Win32,20,6508518b906002118153f087,65d2b6c8f2eece985d8e374c,65d2b99dc4c930283d4b771d,0.0186,0.0186,0,111,111,68,1,threeone,,,,,,,,,,,,,,,,,,,,,,,,,,,,,,,,,,,,,,,,,,,,,,,,,,,,,,,,,,,,,,,,,,,,,,,,,,,,,,,,,,,,,,,,,,,,,,,,,,,,,,,,,,,,,,,,,,,,,,,,,,,,,,,,,,,,,,,,,
,,6508518b906002118153f087,2024-02-19_15h19.31.979,kallum_motion_pilot,2023.2.2,Win32,20,6508518b906002118153f087,65d2b6c8f2eece985d8e374c,65d2b99dc4c930283d4b771d,0.0186,0.0186,0,112,112,66,1,twoone,,,,,,,,,,,,,,,,,,,,,,,,,,,,,,,,,,,,,,,,,,,,,,,,,,,,,,,,,,,,,,,,,,,,,,,,,,,,,,,,,,,,,,,,,,,,,,,,,,,,,,,,,,,,,,,,,,,,,,,,,,,,,,,,,,,,,,,,,
,,6508518b906002118153f087,2024-02-19_15h19.31.979,kallum_motion_pilot,2023.2.2,Win32,20,6508518b906002118153f087,65d2b6c8f2eece985d8e374c,65d2b99dc4c930283d4b771d,0.0186,0.0186,0,113,113,15,1,fourthree,,,,,,,,,,,,,,,,,,,,,,,,,,,,,,,,,,,,,,,,,,,,,,,,,,,,,,,,,,,,,,,,,,,,,,,,,,,,,,,,,,,,,,,,,,,,,,,,,,,,,,,,,,,,,,,,,,,,,,,,,,,,,,,,,,,,,,,,,
,,6508518b906002118153f087,2024-02-19_15h19.31.979,kallum_motion_pilot,2023.2.2,Win32,20,6508518b906002118153f087,65d2b6c8f2eece985d8e374c,65d2b99dc4c930283d4b771d,0.0188,0.0188,0,114,114,21,1,threefour,,,,,,,,,,,,,,,,,,,,,,,,,,,,,,,,,,,,,,,,,,,,,,,,,,,,,,,,,,,,,,,,,,,,,,,,,,,,,,,,,,,,,,,,,,,,,,,,,,,,,,,,,,,,,,,,,,,,,,,,,,,,,,,,,,,,,,,,,
,,6508518b906002118153f087,2024-02-19_15h19.31.979,kallum_motion_pilot,2023.2.2,Win32,20,6508518b906002118153f087,65d2b6c8f2eece985d8e374c,65d2b99dc4c930283d4b771d,0.0188,0.0188,0,115,115,161,1,fiveseven,,,,,,,,,,,,,,,,,,,,,,,,,,,,,,,,,,,,,,,,,,,,,,,,,,,,,,,,,,,,,,,,,,,,,,,,,,,,,,,,,,,,,,,,,,,,,,,,,,,,,,,,,,,,,,,,,,,,,,,,,,,,,,,,,,,,,,,,,
,,6508518b906002118153f087,2024-02-19_15h19.31.979,kallum_motion_pilot,2023.2.2,Win32,20,6508518b906002118153f087,65d2b6c8f2eece985d8e374c,65d2b99dc4c930283d4b771d,0.0188,0.0188,0,116,116,43,1,twofour,,,,,,,,,,,,,,,,,,,,,,,,,,,,,,,,,,,,,,,,,,,,,,,,,,,,,,,,,,,,,,,,,,,,,,,,,,,,,,,,,,,,,,,,,,,,,,,,,,,,,,,,,,,,,,,,,,,,,,,,,,,,,,,,,,,,,,,,,
,,6508518b906002118153f087,2024-02-19_15h19.31.979,kallum_motion_pilot,2023.2.2,Win32,20,6508518b906002118153f087,65d2b6c8f2eece985d8e374c,65d2b99dc4c930283d4b771d,0.0189,0.0189,0,117,117,67,1,twofour,,,,,,,,,,,,,,,,,,,,,,,,,,,,,,,,,,,,,,,,,,,,,,,,,,,,,,,,,,,,,,,,,,,,,,,,,,,,,,,,,,,,,,,,,,,,,,,,,,,,,,,,,,,,,,,,,,,,,,,,,,,,,,,,,,,,,,,,,
,,6508518b906002118153f087,2024-02-19_15h19.31.979,kallum_motion_pilot,2023.2.2,Win32,20,6508518b906002118153f087,65d2b6c8f2eece985d8e374c,65d2b99dc4c930283d4b771d,0.0189,0.019,0,118,118,106,1,sixfive,,,,,,,,,,,,,,,,,,,,,,,,,,,,,,,,,,,,,,,,,,,,,,,,,,,,,,,,,,,,,,,,,,,,,,,,,,,,,,,,,,,,,,,,,,,,,,,,,,,,,,,,,,,,,,,,,,,,,,,,,,,,,,,,,,,,,,,,,
,,6508518b906002118153f087,2024-02-19_15h19.31.979,kallum_motion_pilot,2023.2.2,Win32,20,6508518b906002118153f087,65d2b6c8f2eece985d8e374c,65d2b99dc4c930283d4b771d,0.019,0.019,0,119,119,134,1,eightsix,,,,,,,,,,,,,,,,,,,,,,,,,,,,,,,,,,,,,,,,,,,,,,,,,,,,,,,,,,,,,,,,,,,,,,,,,,,,,,,,,,,,,,,,,,,,,,,,,,,,,,,,,,,,,,,,,,,,,,,,,,,,,,,,,,,,,,,,,
,,6508518b906002118153f087,2024-02-19_15h19.31.979,kallum_motion_pilot,2023.2.2,Win32,20,6508518b906002118153f087,65d2b6c8f2eece985d8e374c,65d2b99dc4c930283d4b771d,0.019,0.019,0,120,120,153,1,fiveseven,,,,,,,,,,,,,,,,,,,,,,,,,,,,,,,,,,,,,,,,,,,,,,,,,,,,,,,,,,,,,,,,,,,,,,,,,,,,,,,,,,,,,,,,,,,,,,,,,,,,,,,,,,,,,,,,,,,,,,,,,,,,,,,,,,,,,,,,,
,,6508518b906002118153f087,2024-02-19_15h19.31.979,kallum_motion_pilot,2023.2.2,Win32,20,6508518b906002118153f087,65d2b6c8f2eece985d8e374c,65d2b99dc4c930283d4b771d,0.019,0.0191,0,121,121,45,1,threefour,,,,,,,,,,,,,,,,,,,,,,,,,,,,,,,,,,,,,,,,,,,,,,,,,,,,,,,,,,,,,,,,,,,,,,,,,,,,,,,,,,,,,,,,,,,,,,,,,,,,,,,,,,,,,,,,,,,,,,,,,,,,,,,,,,,,,,,,,
,,6508518b906002118153f087,2024-02-19_15h19.31.979,kallum_motion_pilot,2023.2.2,Win32,20,6508518b906002118153f087,65d2b6c8f2eece985d8e374c,65d2b99dc4c930283d4b771d,0.0191,0.0192,0,122,122,159,1,eightseven,,,,,,,,,,,,,,,,,,,,,,,,,,,,,,,,,,,,,,,,,,,,,,,,,,,,,,,,,,,,,,,,,,,,,,,,,,,,,,,,,,,,,,,,,,,,,,,,,,,,,,,,,,,,,,,,,,,,,,,,,,,,,,,,,,,,,,,,,
,,6508518b906002118153f087,2024-02-19_15h19.31.979,kallum_motion_pilot,2023.2.2,Win32,20,6508518b906002118153f087,65d2b6c8f2eece985d8e374c,65d2b99dc4c930283d4b771d,0.0192,0.0192,0,123,123,53,1,threefour,,,,,,,,,,,,,,,,,,,,,,,,,,,,,,,,,,,,,,,,,,,,,,,,,,,,,,,,,,,,,,,,,,,,,,,,,,,,,,,,,,,,,,,,,,,,,,,,,,,,,,,,,,,,,,,,,,,,,,,,,,,,,,,,,,,,,,,,,
,,6508518b906002118153f087,2024-02-19_15h19.31.979,kallum_motion_pilot,2023.2.2,Win32,20,6508518b906002118153f087,65d2b6c8f2eece985d8e374c,65d2b99dc4c930283d4b771d,0.0192,0.0192,0,124,124,139,1,sixeight,,,,,,,,,,,,,,,,,,,,,,,,,,,,,,,,,,,,,,,,,,,,,,,,,,,,,,,,,,,,,,,,,,,,,,,,,,,,,,,,,,,,,,,,,,,,,,,,,,,,,,,,,,,,,,,,,,,,,,,,,,,,,,,,,,,,,,,,,
,,6508518b906002118153f087,2024-02-19_15h19.31.979,kallum_motion_pilot,2023.2.2,Win32,20,6508518b906002118153f087,65d2b6c8f2eece985d8e374c,65d2b99dc4c930283d4b771d,0.0193,0.0193,0,125,125,133,1,seveneight,,,,,,,,,,,,,,,,,,,,,,,,,,,,,,,,,,,,,,,,,,,,,,,,,,,,,,,,,,,,,,,,,,,,,,,,,,,,,,,,,,,,,,,,,,,,,,,,,,,,,,,,,,,,,,,,,,,,,,,,,,,,,,,,,,,,,,,,,
,,6508518b906002118153f087,2024-02-19_15h19.31.979,kallum_motion_pilot,2023.2.2,Win32,20,6508518b906002118153f087,65d2b6c8f2eece985d8e374c,65d2b99dc4c930283d4b771d,0.0193,0.0193,0,126,126,78,1,fourtwo,,,,,,,,,,,,,,,,,,,,,,,,,,,,,,,,,,,,,,,,,,,,,,,,,,,,,,,,,,,,,,,,,,,,,,,,,,,,,,,,,,,,,,,,,,,,,,,,,,,,,,,,,,,,,,,,,,,,,,,,,,,,,,,,,,,,,,,,,
,,6508518b906002118153f087,2024-02-19_15h19.31.979,kallum_motion_pilot,2023.2.2,Win32,20,6508518b906002118153f087,65d2b6c8f2eece985d8e374c,65d2b99dc4c930283d4b771d,0.0194,0.0194,0,127,127,93,1,seveneight,,,,,,,,,,,,,,,,,,,,,,,,,,,,,,,,,,,,,,,,,,,,,,,,,,,,,,,,,,,,,,,,,,,,,,,,,,,,,,,,,,,,,,,,,,,,,,,,,,,,,,,,,,,,,,,,,,,,,,,,,,,,,,,,,,,,,,,,,
,,6508518b906002118153f087,2024-02-19_15h19.31.979,kallum_motion_pilot,2023.2.2,Win32,20,6508518b906002118153f087,65d2b6c8f2eece985d8e374c,65d2b99dc4c930283d4b771d,0.0194,0.0194,0,128,128,127,1,eightseven,,,,,,,,,,,,,,,,,,,,,,,,,,,,,,,,,,,,,,,,,,,,,,,,,,,,,,,,,,,,,,,,,,,,,,,,,,,,,,,,,,,,,,,,,,,,,,,,,,,,,,,,,,,,,,,,,,,,,,,,,,,,,,,,,,,,,,,,,
,,6508518b906002118153f087,2024-02-19_15h19.31.979,kallum_motion_pilot,2023.2.2,Win32,20,6508518b906002118153f087,65d2b6c8f2eece985d8e374c,65d2b99dc4c930283d4b771d,0.0195,0.0195,0,129,129,4,1,threeone,,,,,,,,,,,,,,,,,,,,,,,,,,,,,,,,,,,,,,,,,,,,,,,,,,,,,,,,,,,,,,,,,,,,,,,,,,,,,,,,,,,,,,,,,,,,,,,,,,,,,,,,,,,,,,,,,,,,,,,,,,,,,,,,,,,,,,,,,
,,6508518b906002118153f087,2024-02-19_15h19.31.979,kallum_motion_pilot,2023.2.2,Win32,20,6508518b906002118153f087,65d2b6c8f2eece985d8e374c,65d2b99dc4c930283d4b771d,0.0195,0.0195,0,130,130,113,1,fiveseven,,,,,,,,,,,,,,,,,,,,,,,,,,,,,,,,,,,,,,,,,,,,,,,,,,,,,,,,,,,,,,,,,,,,,,,,,,,,,,,,,,,,,,,,,,,,,,,,,,,,,,,,,,,,,,,,,,,,,,,,,,,,,,,,,,,,,,,,,
,,6508518b906002118153f087,2024-02-19_15h19.31.979,kallum_motion_pilot,2023.2.2,Win32,20,6508518b906002118153f087,65d2b6c8f2eece985d8e374c,65d2b99dc4c930283d4b771d,0.0196,0.0196,0,131,131,152,1,fivesix,,,,,,,,,,,,,,,,,,,,,,,,,,,,,,,,,,,,,,,,,,,,,,,,,,,,,,,,,,,,,,,,,,,,,,,,,,,,,,,,,,,,,,,,,,,,,,,,,,,,,,,,,,,,,,,,,,,,,,,,,,,,,,,,,,,,,,,,,
,,6508518b906002118153f087,2024-02-19_15h19.31.979,kallum_motion_pilot,2023.2.2,Win32,20,6508518b906002118153f087,65d2b6c8f2eece985d8e374c,65d2b99dc4c930283d4b771d,0.0196,0.0196,0,132,132,143,1,eightseven,,,,,,,,,,,,,,,,,,,,,,,,,,,,,,,,,,,,,,,,,,,,,,,,,,,,,,,,,,,,,,,,,,,,,,,,,,,,,,,,,,,,,,,,,,,,,,,,,,,,,,,,,,,,,,,,,,,,,,,,,,,,,,,,,,,,,,,,,
,,6508518b906002118153f087,2024-02-19_15h19.31.979,kallum_motion_pilot,2023.2.2,Win32,20,6508518b906002118153f087,65d2b6c8f2eece985d8e374c,65d2b99dc4c930283d4b771d,0.0196,0.0197,0,133,133,16,1,onetwo,,,,,,,,,,,,,,,,,,,,,,,,,,,,,,,,,,,,,,,,,,,,,,,,,,,,,,,,,,,,,,,,,,,,,,,,,,,,,,,,,,,,,,,,,,,,,,,,,,,,,,,,,,,,,,,,,,,,,,,,,,,,,,,,,,,,,,,,,
,,6508518b906002118153f087,2024-02-19_15h19.31.979,kallum_motion_pilot,2023.2.2,Win32,20,6508518b906002118153f087,65d2b6c8f2eece985d8e374c,65d2b99dc4c930283d4b771d,0.0197,0.0197,0,134,134,122,1,sixfive,,,,,,,,,,,,,,,,,,,,,,,,,,,,,,,,,,,,,,,,,,,,,,,,,,,,,,,,,,,,,,,,,,,,,,,,,,,,,,,,,,,,,,,,,,,,,,,,,,,,,,,,,,,,,,,,,,,,,,,,,,,,,,,,,,,,,,,,,
,,6508518b906002118153f087,2024-02-19_15h19.31.979,kallum_motion_pilot,2023.2.2,Win32,20,6508518b906002118153f087,65d2b6c8f2eece985d8e374c,65d2b99dc4c930283d4b771d,0.0197,0.0199,0,135,135,22,1,fourtwo,,,,,,,,,,,,,,,,,,,,,,,,,,,,,,,,,,,,,,,,,,,,,,,,,,,,,,,,,,,,,,,,,,,,,,,,,,,,,,,,,,,,,,,,,,,,,,,,,,,,,,,,,,,,,,,,,,,,,,,,,,,,,,,,,,,,,,,,,
,,6508518b906002118153f087,2024-02-19_15h19.31.979,kallum_motion_pilot,2023.2.2,Win32,20,6508518b906002118153f087,65d2b6c8f2eece985d8e374c,65d2b99dc4c930283d4b771d,0.0199,0.0199,0,136,136,40,1,onetwo,,,,,,,,,,,,,,,,,,,,,,,,,,,,,,,,,,,,,,,,,,,,,,,,,,,,,,,,,,,,,,,,,,,,,,,,,,,,,,,,,,,,,,,,,,,,,,,,,,,,,,,,,,,,,,,,,,,,,,,,,,,,,,,,,,,,,,,,,
,,6508518b906002118153f087,2024-02-19_15h19.31.979,kallum_motion_pilot,2023.2.2,Win32,20,6508518b906002118153f087,65d2b6c8f2eece985d8e374c,65d2b99dc4c930283d4b771d,0.0199,0.0199,0,137,137,136,1,fivesix,,,,,,,,,,,,,,,,,,,,,,,,,,,,,,,,,,,,,,,,,,,,,,,,,,,,,,,,,,,,,,,,,,,,,,,,,,,,,,,,,,,,,,,,,,,,,,,,,,,,,,,,,,,,,,,,,,,,,,,,,,,,,,,,,,,,,,,,,
,,6508518b906002118153f087,2024-02-19_15h19.31.979,kallum_motion_pilot,2023.2.2,Win32,20,6508518b906002118153f087,65d2b6c8f2eece985d8e374c,65d2b99dc4c930283d4b771d,0.02,0.02,0,138,138,158,1,eightsix,,,,,,,,,,,,,,,,,,,,,,,,,,,,,,,,,,,,,,,,,,,,,,,,,,,,,,,,,,,,,,,,,,,,,,,,,,,,,,,,,,,,,,,,,,,,,,,,,,,,,,,,,,,,,,,,,,,,,,,,,,,,,,,,,,,,,,,,,
,,6508518b906002118153f087,2024-02-19_15h19.31.979,kallum_motion_pilot,2023.2.2,Win32,20,6508518b906002118153f087,65d2b6c8f2eece985d8e374c,65d2b99dc4c930283d4b771d,0.02,0.02,0,139,139,104,1,fivesix,,,,,,,,,,,,,,,,,,,,,,,,,,,,,,,,,,,,,,,,,,,,,,,,,,,,,,,,,,,,,,,,,,,,,,,,,,,,,,,,,,,,,,,,,,,,,,,,,,,,,,,,,,,,,,,,,,,,,,,,,,,,,,,,,,,,,,,,,
,,6508518b906002118153f087,2024-02-19_15h19.31.979,kallum_motion_pilot,2023.2.2,Win32,20,6508518b906002118153f087,65d2b6c8f2eece985d8e374c,65d2b99dc4c930283d4b771d,0.02,0.02,0,140,140,56,1,onetwo,,,,,,,,,,,,,,,,,,,,,,,,,,,,,,,,,,,,,,,,,,,,,,,,,,,,,,,,,,,,,,,,,,,,,,,,,,,,,,,,,,,,,,,,,,,,,,,,,,,,,,,,,,,,,,,,,,,,,,,,,,,,,,,,,,,,,,,,,
,,6508518b906002118153f087,2024-02-19_15h19.31.979,kallum_motion_pilot,2023.2.2,Win32,20,6508518b906002118153f087,65d2b6c8f2eece985d8e374c,65d2b99dc4c930283d4b771d,0.02,0.0202,0,141,141,90,1,sixfive,,,,,,,,,,,,,,,,,,,,,,,,,,,,,,,,,,,,,,,,,,,,,,,,,,,,,,,,,,,,,,,,,,,,,,,,,,,,,,,,,,,,,,,,,,,,,,,,,,,,,,,,,,,,,,,,,,,,,,,,,,,,,,,,,,,,,,,,,
,,6508518b906002118153f087,2024-02-19_15h19.31.979,kallum_motion_pilot,2023.2.2,Win32,20,6508518b906002118153f087,65d2b6c8f2eece985d8e374c,65d2b99dc4c930283d4b771d,0.0202,0.0202,0,142,142,17,1,onethree,,,,,,,,,,,,,,,,,,,,,,,,,,,,,,,,,,,,,,,,,,,,,,,,,,,,,,,,,,,,,,,,,,,,,,,,,,,,,,,,,,,,,,,,,,,,,,,,,,,,,,,,,,,,,,,,,,,,,,,,,,,,,,,,,,,,,,,,,
,,6508518b906002118153f087,2024-02-19_15h19.31.979,kallum_motion_pilot,2023.2.2,Win32,20,6508518b906002118153f087,65d2b6c8f2eece985d8e374c,65d2b99dc4c930283d4b771d,0.0202,0.0202,0,143,143,144,1,fivesix,,,,,,,,,,,,,,,,,,,,,,,,,,,,,,,,,,,,,,,,,,,,,,,,,,,,,,,,,,,,,,,,,,,,,,,,,,,,,,,,,,,,,,,,,,,,,,,,,,,,,,,,,,,,,,,,,,,,,,,,,,,,,,,,,,,,,,,,,
,,6508518b906002118153f087,2024-02-19_15h19.31.979,kallum_motion_pilot,2023.2.2,Win32,20,6508518b906002118153f087,65d2b6c8f2eece985d8e374c,65d2b99dc4c930283d4b771d,0.0202,0.0203,0,144,144,131,1,sixeight,,,,,,,,,,,,,,,,,,,,,,,,,,,,,,,,,,,,,,,,,,,,,,,,,,,,,,,,,,,,,,,,,,,,,,,,,,,,,,,,,,,,,,,,,,,,,,,,,,,,,,,,,,,,,,,,,,,,,,,,,,,,,,,,,,,,,,,,,
,,6508518b906002118153f087,2024-02-19_15h19.31.979,kallum_motion_pilot,2023.2.2,Win32,20,6508518b906002118153f087,65d2b6c8f2eece985d8e374c,65d2b99dc4c930283d4b771d,0.0203,0.0203,0,145,145,87,1,eightseven,,,,,,,,,,,,,,,,,,,,,,,,,,,,,,,,,,,,,,,,,,,,,,,,,,,,,,,,,,,,,,,,,,,,,,,,,,,,,,,,,,,,,,,,,,,,,,,,,,,,,,,,,,,,,,,,,,,,,,,,,,,,,,,,,,,,,,,,,
,,6508518b906002118153f087,2024-02-19_15h19.31.979,kallum_motion_pilot,2023.2.2,Win32,20,6508518b906002118153f087,65d2b6c8f2eece985d8e374c,65d2b99dc4c930283d4b771d,0.0204,0.0204,0,146,146,46,1,fourtwo,,,,,,,,,,,,,,,,,,,,,,,,,,,,,,,,,,,,,,,,,,,,,,,,,,,,,,,,,,,,,,,,,,,,,,,,,,,,,,,,,,,,,,,,,,,,,,,,,,,,,,,,,,,,,,,,,,,,,,,,,,,,,,,,,,,,,,,,,
,,6508518b906002118153f087,2024-02-19_15h19.31.979,kallum_motion_pilot,2023.2.2,Win32,20,6508518b906002118153f087,65d2b6c8f2eece985d8e374c,65d2b99dc4c930283d4b771d,0.0204,0.0205,0,147,147,1,1,onethree,,,,,,,,,,,,,,,,,,,,,,,,,,,,,,,,,,,,,,,,,,,,,,,,,,,,,,,,,,,,,,,,,,,,,,,,,,,,,,,,,,,,,,,,,,,,,,,,,,,,,,,,,,,,,,,,,,,,,,,,,,,,,,,,,,,,,,,,,
,,6508518b906002118153f087,2024-02-19_15h19.31.979,kallum_motion_pilot,2023.2.2,Win32,20,6508518b906002118153f087,65d2b6c8f2eece985d8e374c,65d2b99dc4c930283d4b771d,0.0205,0.0205,0,148,148,109,1,seveneight,,,,,,,,,,,,,,,,,,,,,,,,,,,,,,,,,,,,,,,,,,,,,,,,,,,,,,,,,,,,,,,,,,,,,,,,,,,,,,,,,,,,,,,,,,,,,,,,,,,,,,,,,,,,,,,,,,,,,,,,,,,,,,,,,,,,,,,,,
,,6508518b906002118153f087,2024-02-19_15h19.31.979,kallum_motion_pilot,2023.2.2,Win32,20,6508518b906002118153f087,65d2b6c8f2eece985d8e374c,65d2b99dc4c930283d4b771d,0.0205,0.0205,0,149,149,52,1,threeone,,,,,,,,,,,,,,,,,,,,,,,,,,,,,,,,,,,,,,,,,,,,,,,,,,,,,,,,,,,,,,,,,,,,,,,,,,,,,,,,,,,,,,,,,,,,,,,,,,,,,,,,,,,,,,,,,,,,,,,,,,,,,,,,,,,,,,,,,
,,6508518b906002118153f087,2024-02-19_15h19.31.979,kallum_motion_pilot,2023.2.2,Win32,20,6508518b906002118153f087,65d2b6c8f2eece985d8e374c,65d2b99dc4c930283d4b771d,0.0206,0.0206,0,150,150,82,1,sixfive,,,,,,,,,,,,,,,,,,,,,,,,,,,,,,,,,,,,,,,,,,,,,,,,,,,,,,,,,,,,,,,,,,,,,,,,,,,,,,,,,,,,,,,,,,,,,,,,,,,,,,,,,,,,,,,,,,,,,,,,,,,,,,,,,,,,,,,,,
,,6508518b906002118153f087,2024-02-19_15h19.31.979,kallum_motion_pilot,2023.2.2,Win32,20,6508518b906002118153f087,65d2b6c8f2eece985d8e374c,65d2b99dc4c930283d4b771d,0.0206,0.0207,0,151,151,51,1,twofour,,,,,,,,,,,,,,,,,,,,,,,,,,,,,,,,,,,,,,,,,,,,,,,,,,,,,,,,,,,,,,,,,,,,,,,,,,,,,,,,,,,,,,,,,,,,,,,,,,,,,,,,,,,,,,,,,,,,,,,,,,,,,,,,,,,,,,,,,
,,6508518b906002118153f087,2024-02-19_15h19.31.979,kallum_motion_pilot,2023.2.2,Win32,20,6508518b906002118153f087,65d2b6c8f2eece985d8e374c,65d2b99dc4c930283d4b771d,0.0207,0.0207,0,152,152,18,1,twoone,,,,,,,,,,,,,,,,,,,,,,,,,,,,,,,,,,,,,,,,,,,,,,,,,,,,,,,,,,,,,,,,,,,,,,,,,,,,,,,,,,,,,,,,,,,,,,,,,,,,,,,,,,,,,,,,,,,,,,,,,,,,,,,,,,,,,,,,,
,,6508518b906002118153f087,2024-02-19_15h19.31.979,kallum_motion_pilot,2023.2.2,Win32,20,6508518b906002118153f087,65d2b6c8f2eece985d8e374c,65d2b99dc4c930283d4b771d,0.0208,0.0208,0,153,153,94,1,eightsix,,,,,,,,,,,,,,,,,,,,,,,,,,,,,,,,,,,,,,,,,,,,,,,,,,,,,,,,,,,,,,,,,,,,,,,,,,,,,,,,,,,,,,,,,,,,,,,,,,,,,,,,,,,,,,,,,,,,,,,,,,,,,,,,,,,,,,,,,
,,6508518b906002118153f087,2024-02-19_15h19.31.979,kallum_motion_pilot,2023.2.2,Win32,20,6508518b906002118153f087,65d2b6c8f2eece985d8e374c,65d2b99dc4c930283d4b771d,0.0208,0.0208,0,154,154,156,1,sevenfive,,,,,,,,,,,,,,,,,,,,,,,,,,,,,,,,,,,,,,,,,,,,,,,,,,,,,,,,,,,,,,,,,,,,,,,,,,,,,,,,,,,,,,,,,,,,,,,,,,,,,,,,,,,,,,,,,,,,,,,,,,,,,,,,,,,,,,,,,
,,6508518b906002118153f087,2024-02-19_15h19.31.979,kallum_motion_pilot,2023.2.2,Win32,20,6508518b906002118153f087,65d2b6c8f2eece985d8e374c,65d2b99dc4c930283d4b771d,0.0208,0.0208,0,155,155,5,1,threefour,,,,,,,,,,,,,,,,,,,,,,,,,,,,,,,,,,,,,,,,,,,,,,,,,,,,,,,,,,,,,,,,,,,,,,,,,,,,,,,,,,,,,,,,,,,,,,,,,,,,,,,,,,,,,,,,,,,,,,,,,,,,,,,,,,,,,,,,,
,,6508518b906002118153f087,2024-02-19_15h19.31.979,kallum_motion_pilot,2023.2.2,Win32,20,6508518b906002118153f087,65d2b6c8f2eece985d8e374c,65d2b99dc4c930283d4b771d,0.0208,0.0209,0,156,156,124,1,sevenfive,,,,,,,,,,,,,,,,,,,,,,,,,,,,,,,,,,,,,,,,,,,,,,,,,,,,,,,,,,,,,,,,,,,,,,,,,,,,,,,,,,,,,,,,,,,,,,,,,,,,,,,,,,,,,,,,,,,,,,,,,,,,,,,,,,,,,,,,,
,,6508518b906002118153f087,2024-02-19_15h19.31.979,kallum_motion_pilot,2023.2.2,Win32,20,6508518b906002118153f087,65d2b6c8f2eece985d8e374c,65d2b99dc4c930283d4b771d,0.021,0.021,0,157,157,147,1,sixeight,,,,,,,,,,,,,,,,,,,,,,,,,,,,,,,,,,,,,,,,,,,,,,,,,,,,,,,,,,,,,,,,,,,,,,,,,,,,,,,,,,,,,,,,,,,,,,,,,,,,,,,,,,,,,,,,,,,,,,,,,,,,,,,,,,,,,,,,,
,,6508518b906002118153f087,2024-02-19_15h19.31.979,kallum_motion_pilot,2023.2.2,Win32,20,6508518b906002118153f087,65d2b6c8f2eece985d8e374c,65d2b99dc4c930283d4b771d,0.021,0.0211,0,158,158,141,1,seveneight,,,,,,,,,,,,,,,,,,,,,,,,,,,,,,,,,,,,,,,,,,,,,,,,,,,,,,,,,,,,,,,,,,,,,,,,,,,,,,,,,,,,,,,,,,,,,,,,,,,,,,,,,,,,,,,,,,,,,,,,,,,,,,,,,,,,,,,,,
,,6508518b906002118153f087,2024-02-19_15h19.31.979,kallum_motion_pilot,2023.2.2,Win32,20,6508518b906002118153f087,65d2b6c8f2eece985d8e374c,65d2b99dc4c930283d4b771d,0.0211,0.0211,0,159,159,3,1,twofour,,,,,,,,,,,,,,,,,,,,,,,,,,,,,,,,,,,,,,,,,,,,,,,,,,,,,,,,,,,,,,,,,,,,,,,,,,,,,,,,,,,,,,,,,,,,,,,,,,,,,,,,,,,,,,,,,,,,,,,,,,,,,,,,,,,,,,,,,
,,6508518b906002118153f087,2024-02-19_15h19.31.979,kallum_motion_pilot,2023.2.2,Win32,20,6508518b906002118153f087,65d2b6c8f2eece985d8e374c,65d2b99dc4c930283d4b771d,0.0211,0.0212,0,160,160,123,1,sixeight,,,,,,,,,,,,,,,,,,,,,,,,,,,,,,,,,,,,,,,,,,,,,,,,,,,,,,,,,,,,,,,,,,,,,,,,,,,,,,,,,,,,,,,,,,,,,,,,,,,,,,,,,,,,,,,,,,,,,,,,,,,,,,,,,,,,,,,,,
,,6508518b906002118153f087,2024-02-19_15h19.31.979,kallum_motion_pilot,2023.2.2,Win32,20,6508518b906002118153f087,65d2b6c8f2eece985d8e374c,65d2b99dc4c930283d4b771d,0.0212,0.0212,0,161,161,117,1,seveneight,,,,,,,,,,,,,,,,,,,,,,,,,,,,,,,,,,,,,,,,,,,,,,,,,,,,,,,,,,,,,,,,,,,,,,,,,,,,,,,,,,,,,,,,,,,,,,,,,,,,,,,,,,,,,,,,,,,,,,,,,,,,,,,,,,,,,,,,,
,,6508518b906002118153f087,2024-02-19_15h19.31.979,kallum_motion_pilot,2023.2.2,Win32,20,6508518b906002118153f087,65d2b6c8f2eece985d8e374c,65d2b99dc4c930283d4b771d,0.0212,0.0212,1,0,162,96,1,fivesix,,,,,,,,,,,,,,,,,,,,,,,,,,,,,,,,,,,,,,,,,,,,,,,,,,,,,,,,,,,,,,,,,,,,,,,,,,,,,,,,,,,,,,,,,,,,,,,,,,,,,,,,,,,,,,,,,,,,,,,,,,,,,,,,,,,,,,,,,
,,6508518b906002118153f087,2024-02-19_15h19.31.979,kallum_motion_pilot,2023.2.2,Win32,20,6508518b906002118153f087,65d2b6c8f2eece985d8e374c,65d2b99dc4c930283d4b771d,0.0213,0.0213,1,1,163,35,1,twofour,,,,,,,,,,,,,,,,,,,,,,,,,,,,,,,,,,,,,,,,,,,,,,,,,,,,,,,,,,,,,,,,,,,,,,,,,,,,,,,,,,,,,,,,,,,,,,,,,,,,,,,,,,,,,,,,,,,,,,,,,,,,,,,,,,,,,,,,,
,,6508518b906002118153f087,2024-02-19_15h19.31.979,kallum_motion_pilot,2023.2.2,Win32,20,6508518b906002118153f087,65d2b6c8f2eece985d8e374c,65d2b99dc4c930283d4b771d,0.0214,0.0214,1,2,164,115,1,sixeight,,,,,,,,,,,,,,,,,,,,,,,,,,,,,,,,,,,,,,,,,,,,,,,,,,,,,,,,,,,,,,,,,,,,,,,,,,,,,,,,,,,,,,,,,,,,,,,,,,,,,,,,,,,,,,,,,,,,,,,,,,,,,,,,,,,,,,,,,
,,6508518b906002118153f087,2024-02-19_15h19.31.979,kallum_motion_pilot,2023.2.2,Win32,20,6508518b906002118153f087,65d2b6c8f2eece985d8e374c,65d2b99dc4c930283d4b771d,0.0214,0.0214,1,3,165,49,1,onethree,,,,,,,,,,,,,,,,,,,,,,,,,,,,,,,,,,,,,,,,,,,,,,,,,,,,,,,,,,,,,,,,,,,,,,,,,,,,,,,,,,,,,,,,,,,,,,,,,,,,,,,,,,,,,,,,,,,,,,,,,,,,,,,,,,,,,,,,,
,,6508518b906002118153f087,2024-02-19_15h19.31.979,kallum_motion_pilot,2023.2.2,Win32,20,6508518b906002118153f087,65d2b6c8f2eece985d8e374c,65d2b99dc4c930283d4b771d,0.0214,0.0214,1,4,166,71,1,fourthree,,,,,,,,,,,,,,,,,,,,,,,,,,,,,,,,,,,,,,,,,,,,,,,,,,,,,,,,,,,,,,,,,,,,,,,,,,,,,,,,,,,,,,,,,,,,,,,,,,,,,,,,,,,,,,,,,,,,,,,,,,,,,,,,,,,,,,,,,
,,6508518b906002118153f087,2024-02-19_15h19.31.979,kallum_motion_pilot,2023.2.2,Win32,20,6508518b906002118153f087,65d2b6c8f2eece985d8e374c,65d2b99dc4c930283d4b771d,0.0215,0.0215,1,5,167,26,1,twoone,,,,,,,,,,,,,,,,,,,,,,,,,,,,,,,,,,,,,,,,,,,,,,,,,,,,,,,,,,,,,,,,,,,,,,,,,,,,,,,,,,,,,,,,,,,,,,,,,,,,,,,,,,,,,,,,,,,,,,,,,,,,,,,,,,,,,,,,,
,,6508518b906002118153f087,2024-02-19_15h19.31.979,kallum_motion_pilot,2023.2.2,Win32,20,6508518b906002118153f087,65d2b6c8f2eece985d8e374c,65d2b99dc4c930283d4b771d,0.0215,0.0215,1,6,168,28,1,threeone,,,,,,,,,,,,,,,,,,,,,,,,,,,,,,,,,,,,,,,,,,,,,,,,,,,,,,,,,,,,,,,,,,,,,,,,,,,,,,,,,,,,,,,,,,,,,,,,,,,,,,,,,,,,,,,,,,,,,,,,,,,,,,,,,,,,,,,,,
,,6508518b906002118153f087,2024-02-19_15h19.31.979,kallum_motion_pilot,2023.2.2,Win32,20,6508518b906002118153f087,65d2b6c8f2eece985d8e374c,65d2b99dc4c930283d4b771d,0.0215,0.0216,1,7,169,25,1,onethree,,,,,,,,,,,,,,,,,,,,,,,,,,,,,,,,,,,,,,,,,,,,,,,,,,,,,,,,,,,,,,,,,,,,,,,,,,,,,,,,,,,,,,,,,,,,,,,,,,,,,,,,,,,,,,,,,,,,,,,,,,,,,,,,,,,,,,,,,
,,6508518b906002118153f087,2024-02-19_15h19.31.979,kallum_motion_pilot,2023.2.2,Win32,20,6508518b906002118153f087,65d2b6c8f2eece985d8e374c,65d2b99dc4c930283d4b771d,0.0217,0.0217,1,8,170,21,1,threefour,,,,,,,,,,,,,,,,,,,,,,,,,,,,,,,,,,,,,,,,,,,,,,,,,,,,,,,,,,,,,,,,,,,,,,,,,,,,,,,,,,,,,,,,,,,,,,,,,,,,,,,,,,,,,,,,,,,,,,,,,,,,,,,,,,,,,,,,,
,,6508518b906002118153f087,2024-02-19_15h19.31.979,kallum_motion_pilot,2023.2.2,Win32,20,6508518b906002118153f087,65d2b6c8f2eece985d8e374c,65d2b99dc4c930283d4b771d,0.0217,0.0217,1,9,171,112,1,fivesix,,,,,,,,,,,,,,,,,,,,,,,,,,,,,,,,,,,,,,,,,,,,,,,,,,,,,,,,,,,,,,,,,,,,,,,,,,,,,,,,,,,,,,,,,,,,,,,,,,,,,,,,,,,,,,,,,,,,,,,,,,,,,,,,,,,,,,,,,
,,6508518b906002118153f087,2024-02-19_15h19.31.979,kallum_motion_pilot,2023.2.2,Win32,20,6508518b906002118153f087,65d2b6c8f2eece985d8e374c,65d2b99dc4c930283d4b771d,0.0218,0.0218,1,10,172,107,1,sixeight,,,,,,,,,,,,,,,,,,,,,,,,,,,,,,,,,,,,,,,,,,,,,,,,,,,,,,,,,,,,,,,,,,,,,,,,,,,,,,,,,,,,,,,,,,,,,,,,,,,,,,,,,,,,,,,,,,,,,,,,,,,,,,,,,,,,,,,,,
,,6508518b906002118153f087,2024-02-19_15h19.31.979,kallum_motion_pilot,2023.2.2,Win32,20,6508518b906002118153f087,65d2b6c8f2eece985d8e374c,65d2b99dc4c930283d4b771d,0.0218,0.0219,1,11,173,63,1,fourthree,,,,,,,,,,,,,,,,,,,,,,,,,,,,,,,,,,,,,,,,,,,,,,,,,,,,,,,,,,,,,,,,,,,,,,,,,,,,,,,,,,,,,,,,,,,,,,,,,,,,,,,,,,,,,,,,,,,,,,,,,,,,,,,,,,,,,,,,,
,,6508518b906002118153f087,2024-02-19_15h19.31.979,kallum_motion_pilot,2023.2.2,Win32,20,6508518b906002118153f087,65d2b6c8f2eece985d8e374c,65d2b99dc4c930283d4b771d,0.0219,0.0219,1,12,174,146,1,sixfive,,,,,,,,,,,,,,,,,,,,,,,,,,,,,,,,,,,,,,,,,,,,,,,,,,,,,,,,,,,,,,,,,,,,,,,,,,,,,,,,,,,,,,,,,,,,,,,,,,,,,,,,,,,,,,,,,,,,,,,,,,,,,,,,,,,,,,,,,
,,6508518b906002118153f087,2024-02-19_15h19.31.979,kallum_motion_pilot,2023.2.2,Win32,20,6508518b906002118153f087,65d2b6c8f2eece985d8e374c,65d2b99dc4c930283d4b771d,0.0219,0.0219,1,13,175,73,1,onethree,,,,,,,,,,,,,,,,,,,,,,,,,,,,,,,,,,,,,,,,,,,,,,,,,,,,,,,,,,,,,,,,,,,,,,,,,,,,,,,,,,,,,,,,,,,,,,,,,,,,,,,,,,,,,,,,,,,,,,,,,,,,,,,,,,,,,,,,,
,,6508518b906002118153f087,2024-02-19_15h19.31.979,kallum_motion_pilot,2023.2.2,Win32,20,6508518b906002118153f087,65d2b6c8f2eece985d8e374c,65d2b99dc4c930283d4b771d,0.0219,0.0219,1,14,176,8,1,onetwo,,,,,,,,,,,,,,,,,,,,,,,,,,,,,,,,,,,,,,,,,,,,,,,,,,,,,,,,,,,,,,,,,,,,,,,,,,,,,,,,,,,,,,,,,,,,,,,,,,,,,,,,,,,,,,,,,,,,,,,,,,,,,,,,,,,,,,,,,
,,6508518b906002118153f087,2024-02-19_15h19.31.979,kallum_motion_pilot,2023.2.2,Win32,20,6508518b906002118153f087,65d2b6c8f2eece985d8e374c,65d2b99dc4c930283d4b771d,0.022,0.022,1,15,177,1,1,onethree,,,,,,,,,,,,,,,,,,,,,,,,,,,,,,,,,,,,,,,,,,,,,,,,,,,,,,,,,,,,,,,,,,,,,,,,,,,,,,,,,,,,,,,,,,,,,,,,,,,,,,,,,,,,,,,,,,,,,,,,,,,,,,,,,,,,,,,,,
,,6508518b906002118153f087,2024-02-19_15h19.31.979,kallum_motion_pilot,2023.2.2,Win32,20,6508518b906002118153f087,65d2b6c8f2eece985d8e374c,65d2b99dc4c930283d4b771d,0.022,0.0221,1,16,178,130,1,sixfive,,,,,,,,,,,,,,,,,,,,,,,,,,,,,,,,,,,,,,,,,,,,,,,,,,,,,,,,,,,,,,,,,,,,,,,,,,,,,,,,,,,,,,,,,,,,,,,,,,,,,,,,,,,,,,,,,,,,,,,,,,,,,,,,,,,,,,,,,
,,6508518b906002118153f087,2024-02-19_15h19.31.979,kallum_motion_pilot,2023.2.2,Win32,20,6508518b906002118153f087,65d2b6c8f2eece985d8e374c,65d2b99dc4c930283d4b771d,0.0221,0.0222,1,17,179,147,1,sixeight,,,,,,,,,,,,,,,,,,,,,,,,,,,,,,,,,,,,,,,,,,,,,,,,,,,,,,,,,,,,,,,,,,,,,,,,,,,,,,,,,,,,,,,,,,,,,,,,,,,,,,,,,,,,,,,,,,,,,,,,,,,,,,,,,,,,,,,,,
,,6508518b906002118153f087,2024-02-19_15h19.31.979,kallum_motion_pilot,2023.2.2,Win32,20,6508518b906002118153f087,65d2b6c8f2eece985d8e374c,65d2b99dc4c930283d4b771d,0.0222,0.0222,1,18,180,42,1,twoone,,,,,,,,,,,,,,,,,,,,,,,,,,,,,,,,,,,,,,,,,,,,,,,,,,,,,,,,,,,,,,,,,,,,,,,,,,,,,,,,,,,,,,,,,,,,,,,,,,,,,,,,,,,,,,,,,,,,,,,,,,,,,,,,,,,,,,,,,
,,6508518b906002118153f087,2024-02-19_15h19.31.979,kallum_motion_pilot,2023.2.2,Win32,20,6508518b906002118153f087,65d2b6c8f2eece985d8e374c,65d2b99dc4c930283d4b771d,0.0222,0.0223,1,19,181,160,1,fivesix,,,,,,,,,,,,,,,,,,,,,,,,,,,,,,,,,,,,,,,,,,,,,,,,,,,,,,,,,,,,,,,,,,,,,,,,,,,,,,,,,,,,,,,,,,,,,,,,,,,,,,,,,,,,,,,,,,,,,,,,,,,,,,,,,,,,,,,,,
,,6508518b906002118153f087,2024-02-19_15h19.31.979,kallum_motion_pilot,2023.2.2,Win32,20,6508518b906002118153f087,65d2b6c8f2eece985d8e374c,65d2b99dc4c930283d4b771d,0.0224,0.0225,1,20,182,140,1,sevenfive,,,,,,,,,,,,,,,,,,,,,,,,,,,,,,,,,,,,,,,,,,,,,,,,,,,,,,,,,,,,,,,,,,,,,,,,,,,,,,,,,,,,,,,,,,,,,,,,,,,,,,,,,,,,,,,,,,,,,,,,,,,,,,,,,,,,,,,,,
,,6508518b906002118153f087,2024-02-19_15h19.31.979,kallum_motion_pilot,2023.2.2,Win32,20,6508518b906002118153f087,65d2b6c8f2eece985d8e374c,65d2b99dc4c930283d4b771d,0.0225,0.0225,1,21,183,134,1,eightsix,,,,,,,,,,,,,,,,,,,,,,,,,,,,,,,,,,,,,,,,,,,,,,,,,,,,,,,,,,,,,,,,,,,,,,,,,,,,,,,,,,,,,,,,,,,,,,,,,,,,,,,,,,,,,,,,,,,,,,,,,,,,,,,,,,,,,,,,,
,,6508518b906002118153f087,2024-02-19_15h19.31.979,kallum_motion_pilot,2023.2.2,Win32,20,6508518b906002118153f087,65d2b6c8f2eece985d8e374c,65d2b99dc4c930283d4b771d,0.0225,0.0225,1,22,184,40,1,onetwo,,,,,,,,,,,,,,,,,,,,,,,,,,,,,,,,,,,,,,,,,,,,,,,,,,,,,,,,,,,,,,,,,,,,,,,,,,,,,,,,,,,,,,,,,,,,,,,,,,,,,,,,,,,,,,,,,,,,,,,,,,,,,,,,,,,,,,,,,
,,6508518b906002118153f087,2024-02-19_15h19.31.979,kallum_motion_pilot,2023.2.2,Win32,20,6508518b906002118153f087,65d2b6c8f2eece985d8e374c,65d2b99dc4c930283d4b771d,0.0225,0.0226,1,23,185,13,1,threefour,,,,,,,,,,,,,,,,,,,,,,,,,,,,,,,,,,,,,,,,,,,,,,,,,,,,,,,,,,,,,,,,,,,,,,,,,,,,,,,,,,,,,,,,,,,,,,,,,,,,,,,,,,,,,,,,,,,,,,,,,,,,,,,,,,,,,,,,,
,,6508518b906002118153f087,2024-02-19_15h19.31.979,kallum_motion_pilot,2023.2.2,Win32,20,6508518b906002118153f087,65d2b6c8f2eece985d8e374c,65d2b99dc4c930283d4b771d,0.0227,0.0227,1,24,186,80,1,fivesix,,,,,,,,,,,,,,,,,,,,,,,,,,,,,,,,,,,,,,,,,,,,,,,,,,,,,,,,,,,,,,,,,,,,,,,,,,,,,,,,,,,,,,,,,,,,,,,,,,,,,,,,,,,,,,,,,,,,,,,,,,,,,,,,,,,,,,,,,
,,6508518b906002118153f087,2024-02-19_15h19.31.979,kallum_motion_pilot,2023.2.2,Win32,20,6508518b906002118153f087,65d2b6c8f2eece985d8e374c,65d2b99dc4c930283d4b771d,0.0227,0.0228,1,25,187,4,1,threeone,,,,,,,,,,,,,,,,,,,,,,,,,,,,,,,,,,,,,,,,,,,,,,,,,,,,,,,,,,,,,,,,,,,,,,,,,,,,,,,,,,,,,,,,,,,,,,,,,,,,,,,,,,,,,,,,,,,,,,,,,,,,,,,,,,,,,,,,,
,,6508518b906002118153f087,2024-02-19_15h19.31.979,kallum_motion_pilot,2023.2.2,Win32,20,6508518b906002118153f087,65d2b6c8f2eece985d8e374c,65d2b99dc4c930283d4b771d,0.0228,0.0228,1,26,188,139,1,sixeight,,,,,,,,,,,,,,,,,,,,,,,,,,,,,,,,,,,,,,,,,,,,,,,,,,,,,,,,,,,,,,,,,,,,,,,,,,,,,,,,,,,,,,,,,,,,,,,,,,,,,,,,,,,,,,,,,,,,,,,,,,,,,,,,,,,,,,,,,
,,6508518b906002118153f087,2024-02-19_15h19.31.979,kallum_motion_pilot,2023.2.2,Win32,20,6508518b906002118153f087,65d2b6c8f2eece985d8e374c,65d2b99dc4c930283d4b771d,0.0228,0.0228,1,27,189,33,1,onethree,,,,,,,,,,,,,,,,,,,,,,,,,,,,,,,,,,,,,,,,,,,,,,,,,,,,,,,,,,,,,,,,,,,,,,,,,,,,,,,,,,,,,,,,,,,,,,,,,,,,,,,,,,,,,,,,,,,,,,,,,,,,,,,,,,,,,,,,,
,,6508518b906002118153f087,2024-02-19_15h19.31.979,kallum_motion_pilot,2023.2.2,Win32,20,6508518b906002118153f087,65d2b6c8f2eece985d8e374c,65d2b99dc4c930283d4b771d,0.0229,0.0229,1,28,190,60,1,threeone,,,,,,,,,,,,,,,,,,,,,,,,,,,,,,,,,,,,,,,,,,,,,,,,,,,,,,,,,,,,,,,,,,,,,,,,,,,,,,,,,,,,,,,,,,,,,,,,,,,,,,,,,,,,,,,,,,,,,,,,,,,,,,,,,,,,,,,,,
,,6508518b906002118153f087,2024-02-19_15h19.31.979,kallum_motion_pilot,2023.2.2,Win32,20,6508518b906002118153f087,65d2b6c8f2eece985d8e374c,65d2b99dc4c930283d4b771d,0.0229,0.023,1,29,191,11,1,twofour,,,,,,,,,,,,,,,,,,,,,,,,,,,,,,,,,,,,,,,,,,,,,,,,,,,,,,,,,,,,,,,,,,,,,,,,,,,,,,,,,,,,,,,,,,,,,,,,,,,,,,,,,,,,,,,,,,,,,,,,,,,,,,,,,,,,,,,,,
,,6508518b906002118153f087,2024-02-19_15h19.31.979,kallum_motion_pilot,2023.2.2,Win32,20,6508518b906002118153f087,65d2b6c8f2eece985d8e374c,65d2b99dc4c930283d4b771d,0.023,0.023,1,30,192,81,1,fiveseven,,,,,,,,,,,,,,,,,,,,,,,,,,,,,,,,,,,,,,,,,,,,,,,,,,,,,,,,,,,,,,,,,,,,,,,,,,,,,,,,,,,,,,,,,,,,,,,,,,,,,,,,,,,,,,,,,,,,,,,,,,,,,,,,,,,,,,,,,
,,6508518b906002118153f087,2024-02-19_15h19.31.979,kallum_motion_pilot,2023.2.2,Win32,20,6508518b906002118153f087,65d2b6c8f2eece985d8e374c,65d2b99dc4c930283d4b771d,0.023,0.023,1,31,193,142,1,eightsix,,,,,,,,,,,,,,,,,,,,,,,,,,,,,,,,,,,,,,,,,,,,,,,,,,,,,,,,,,,,,,,,,,,,,,,,,,,,,,,,,,,,,,,,,,,,,,,,,,,,,,,,,,,,,,,,,,,,,,,,,,,,,,,,,,,,,,,,,
,,6508518b906002118153f087,2024-02-19_15h19.31.979,kallum_motion_pilot,2023.2.2,Win32,20,6508518b906002118153f087,65d2b6c8f2eece985d8e374c,65d2b99dc4c930283d4b771d,0.0231,0.0231,1,32,194,5,1,threefour,,,,,,,,,,,,,,,,,,,,,,,,,,,,,,,,,,,,,,,,,,,,,,,,,,,,,,,,,,,,,,,,,,,,,,,,,,,,,,,,,,,,,,,,,,,,,,,,,,,,,,,,,,,,,,,,,,,,,,,,,,,,,,,,,,,,,,,,,
,,6508518b906002118153f087,2024-02-19_15h19.31.979,kallum_motion_pilot,2023.2.2,Win32,20,6508518b906002118153f087,65d2b6c8f2eece985d8e374c,65d2b99dc4c930283d4b771d,0.0231,0.0231,1,33,195,38,1,fourtwo,,,,,,,,,,,,,,,,,,,,,,,,,,,,,,,,,,,,,,,,,,,,,,,,,,,,,,,,,,,,,,,,,,,,,,,,,,,,,,,,,,,,,,,,,,,,,,,,,,,,,,,,,,,,,,,,,,,,,,,,,,,,,,,,,,,,,,,,,
,,6508518b906002118153f087,2024-02-19_15h19.31.979,kallum_motion_pilot,2023.2.2,Win32,20,6508518b906002118153f087,65d2b6c8f2eece985d8e374c,65d2b99dc4c930283d4b771d,0.0232,0.0232,1,34,196,48,1,onetwo,,,,,,,,,,,,,,,,,,,,,,,,,,,,,,,,,,,,,,,,,,,,,,,,,,,,,,,,,,,,,,,,,,,,,,,,,,,,,,,,,,,,,,,,,,,,,,,,,,,,,,,,,,,,,,,,,,,,,,,,,,,,,,,,,,,,,,,,,
,,6508518b906002118153f087,2024-02-19_15h19.31.979,kallum_motion_pilot,2023.2.2,Win32,20,6508518b906002118153f087,65d2b6c8f2eece985d8e374c,65d2b99dc4c930283d4b771d,0.0232,0.0233,1,35,197,132,1,sevenfive,,,,,,,,,,,,,,,,,,,,,,,,,,,,,,,,,,,,,,,,,,,,,,,,,,,,,,,,,,,,,,,,,,,,,,,,,,,,,,,,,,,,,,,,,,,,,,,,,,,,,,,,,,,,,,,,,,,,,,,,,,,,,,,,,,,,,,,,,
,,6508518b906002118153f087,2024-02-19_15h19.31.979,kallum_motion_pilot,2023.2.2,Win32,20,6508518b906002118153f087,65d2b6c8f2eece985d8e374c,65d2b99dc4c930283d4b771d,0.0234,0.0234,1,36,198,27,1,twofour,,,,,,,,,,,,,,,,,,,,,,,,,,,,,,,,,,,,,,,,,,,,,,,,,,,,,,,,,,,,,,,,,,,,,,,,,,,,,,,,,,,,,,,,,,,,,,,,,,,,,,,,,,,,,,,,,,,,,,,,,,,,,,,,,,,,,,,,,
,,6508518b906002118153f087,2024-02-19_15h19.31.979,kallum_motion_pilot,2023.2.2,Win32,20,6508518b906002118153f087,65d2b6c8f2eece985d8e374c,65d2b99dc4c930283d4b771d,0.0234,0.0235,1,37,199,95,1,eightseven,,,,,,,,,,,,,,,,,,,,,,,,,,,,,,,,,,,,,,,,,,,,,,,,,,,,,,,,,,,,,,,,,,,,,,,,,,,,,,,,,,,,,,,,,,,,,,,,,,,,,,,,,,,,,,,,,,,,,,,,,,,,,,,,,,,,,,,,,
,,6508518b906002118153f087,2024-02-19_15h19.31.979,kallum_motion_pilot,2023.2.2,Win32,20,6508518b906002118153f087,65d2b6c8f2eece985d8e374c,65d2b99dc4c930283d4b771d,0.0235,0.0235,1,38,200,87,1,eightseven,,,,,,,,,,,,,,,,,,,,,,,,,,,,,,,,,,,,,,,,,,,,,,,,,,,,,,,,,,,,,,,,,,,,,,,,,,,,,,,,,,,,,,,,,,,,,,,,,,,,,,,,,,,,,,,,,,,,,,,,,,,,,,,,,,,,,,,,,
,,6508518b906002118153f087,2024-02-19_15h19.31.979,kallum_motion_pilot,2023.2.2,Win32,20,6508518b906002118153f087,65d2b6c8f2eece985d8e374c,65d2b99dc4c930283d4b771d,0.0235,0.0236,1,39,201,105,1,fiveseven,,,,,,,,,,,,,,,,,,,,,,,,,,,,,,,,,,,,,,,,,,,,,,,,,,,,,,,,,,,,,,,,,,,,,,,,,,,,,,,,,,,,,,,,,,,,,,,,,,,,,,,,,,,,,,,,,,,,,,,,,,,,,,,,,,,,,,,,,
,,6508518b906002118153f087,2024-02-19_15h19.31.979,kallum_motion_pilot,2023.2.2,Win32,20,6508518b906002118153f087,65d2b6c8f2eece985d8e374c,65d2b99dc4c930283d4b771d,0.0236,0.0236,1,40,202,158,1,eightsix,,,,,,,,,,,,,,,,,,,,,,,,,,,,,,,,,,,,,,,,,,,,,,,,,,,,,,,,,,,,,,,,,,,,,,,,,,,,,,,,,,,,,,,,,,,,,,,,,,,,,,,,,,,,,,,,,,,,,,,,,,,,,,,,,,,,,,,,,
,,6508518b906002118153f087,2024-02-19_15h19.31.979,kallum_motion_pilot,2023.2.2,Win32,20,6508518b906002118153f087,65d2b6c8f2eece985d8e374c,65d2b99dc4c930283d4b771d,0.0236,0.0236,1,41,203,0,1,onetwo,,,,,,,,,,,,,,,,,,,,,,,,,,,,,,,,,,,,,,,,,,,,,,,,,,,,,,,,,,,,,,,,,,,,,,,,,,,,,,,,,,,,,,,,,,,,,,,,,,,,,,,,,,,,,,,,,,,,,,,,,,,,,,,,,,,,,,,,,
,,6508518b906002118153f087,2024-02-19_15h19.31.979,kallum_motion_pilot,2023.2.2,Win32,20,6508518b906002118153f087,65d2b6c8f2eece985d8e374c,65d2b99dc4c930283d4b771d,0.0236,0.0237,1,42,204,154,1,sixfive,,,,,,,,,,,,,,,,,,,,,,,,,,,,,,,,,,,,,,,,,,,,,,,,,,,,,,,,,,,,,,,,,,,,,,,,,,,,,,,,,,,,,,,,,,,,,,,,,,,,,,,,,,,,,,,,,,,,,,,,,,,,,,,,,,,,,,,,,
,,6508518b906002118153f087,2024-02-19_15h19.31.979,kallum_motion_pilot,2023.2.2,Win32,20,6508518b906002118153f087,65d2b6c8f2eece985d8e374c,65d2b99dc4c930283d4b771d,0.0237,0.0237,1,43,205,2,1,twoone,,,,,,,,,,,,,,,,,,,,,,,,,,,,,,,,,,,,,,,,,,,,,,,,,,,,,,,,,,,,,,,,,,,,,,,,,,,,,,,,,,,,,,,,,,,,,,,,,,,,,,,,,,,,,,,,,,,,,,,,,,,,,,,,,,,,,,,,,
,,6508518b906002118153f087,2024-02-19_15h19.31.979,kallum_motion_pilot,2023.2.2,Win32,20,6508518b906002118153f087,65d2b6c8f2eece985d8e374c,65d2b99dc4c930283d4b771d,0.0238,0.0238,1,44,206,85,1,seveneight,,,,,,,,,,,,,,,,,,,,,,,,,,,,,,,,,,,,,,,,,,,,,,,,,,,,,,,,,,,,,,,,,,,,,,,,,,,,,,,,,,,,,,,,,,,,,,,,,,,,,,,,,,,,,,,,,,,,,,,,,,,,,,,,,,,,,,,,,
,,6508518b906002118153f087,2024-02-19_15h19.31.979,kallum_motion_pilot,2023.2.2,Win32,20,6508518b906002118153f087,65d2b6c8f2eece985d8e374c,65d2b99dc4c930283d4b771d,0.0239,0.0239,1,45,207,57,1,onethree,,,,,,,,,,,,,,,,,,,,,,,,,,,,,,,,,,,,,,,,,,,,,,,,,,,,,,,,,,,,,,,,,,,,,,,,,,,,,,,,,,,,,,,,,,,,,,,,,,,,,,,,,,,,,,,,,,,,,,,,,,,,,,,,,,,,,,,,,
,,6508518b906002118153f087,2024-02-19_15h19.31.979,kallum_motion_pilot,2023.2.2,Win32,20,6508518b906002118153f087,65d2b6c8f2eece985d8e374c,65d2b99dc4c930283d4b771d,0.0239,0.0239,1,46,208,122,1,sixfive,,,,,,,,,,,,,,,,,,,,,,,,,,,,,,,,,,,,,,,,,,,,,,,,,,,,,,,,,,,,,,,,,,,,,,,,,,,,,,,,,,,,,,,,,,,,,,,,,,,,,,,,,,,,,,,,,,,,,,,,,,,,,,,,,,,,,,,,,
,,6508518b906002118153f087,2024-02-19_15h19.31.979,kallum_motion_pilot,2023.2.2,Win32,20,6508518b906002118153f087,65d2b6c8f2eece985d8e374c,65d2b99dc4c930283d4b771d,0.0239,0.0239,1,47,209,144,1,fivesix,,,,,,,,,,,,,,,,,,,,,,,,,,,,,,,,,,,,,,,,,,,,,,,,,,,,,,,,,,,,,,,,,,,,,,,,,,,,,,,,,,,,,,,,,,,,,,,,,,,,,,,,,,,,,,,,,,,,,,,,,,,,,,,,,,,,,,,,,
,,6508518b906002118153f087,2024-02-19_15h19.31.979,kallum_motion_pilot,2023.2.2,Win32,20,6508518b906002118153f087,65d2b6c8f2eece985d8e374c,65d2b99dc4c930283d4b771d,0.024,0.0241,1,48,210,128,1,fivesix,,,,,,,,,,,,,,,,,,,,,,,,,,,,,,,,,,,,,,,,,,,,,,,,,,,,,,,,,,,,,,,,,,,,,,,,,,,,,,,,,,,,,,,,,,,,,,,,,,,,,,,,,,,,,,,,,,,,,,,,,,,,,,,,,,,,,,,,,
,,6508518b906002118153f087,2024-02-19_15h19.31.979,kallum_motion_pilot,2023.2.2,Win32,20,6508518b906002118153f087,65d2b6c8f2eece985d8e374c,65d2b99dc4c930283d4b771d,0.0241,0.0241,1,49,211,143,1,eightseven,,,,,,,,,,,,,,,,,,,,,,,,,,,,,,,,,,,,,,,,,,,,,,,,,,,,,,,,,,,,,,,,,,,,,,,,,,,,,,,,,,,,,,,,,,,,,,,,,,,,,,,,,,,,,,,,,,,,,,,,,,,,,,,,,,,,,,,,,
,,6508518b906002118153f087,2024-02-19_15h19.31.979,kallum_motion_pilot,2023.2.2,Win32,20,6508518b906002118153f087,65d2b6c8f2eece985d8e374c,65d2b99dc4c930283d4b771d,0.0241,0.0242,1,50,212,151,1,eightseven,,,,,,,,,,,,,,,,,,,,,,,,,,,,,,,,,,,,,,,,,,,,,,,,,,,,,,,,,,,,,,,,,,,,,,,,,,,,,,,,,,,,,,,,,,,,,,,,,,,,,,,,,,,,,,,,,,,,,,,,,,,,,,,,,,,,,,,,,
,,6508518b906002118153f087,2024-02-19_15h19.31.979,kallum_motion_pilot,2023.2.2,Win32,20,6508518b906002118153f087,65d2b6c8f2eece985d8e374c,65d2b99dc4c930283d4b771d,0.0242,0.0242,1,51,213,117,1,seveneight,,,,,,,,,,,,,,,,,,,,,,,,,,,,,,,,,,,,,,,,,,,,,,,,,,,,,,,,,,,,,,,,,,,,,,,,,,,,,,,,,,,,,,,,,,,,,,,,,,,,,,,,,,,,,,,,,,,,,,,,,,,,,,,,,,,,,,,,,
,,6508518b906002118153f087,2024-02-19_15h19.31.979,kallum_motion_pilot,2023.2.2,Win32,20,6508518b906002118153f087,65d2b6c8f2eece985d8e374c,65d2b99dc4c930283d4b771d,0.0242,0.0243,1,52,214,97,1,fiveseven,,,,,,,,,,,,,,,,,,,,,,,,,,,,,,,,,,,,,,,,,,,,,,,,,,,,,,,,,,,,,,,,,,,,,,,,,,,,,,,,,,,,,,,,,,,,,,,,,,,,,,,,,,,,,,,,,,,,,,,,,,,,,,,,,,,,,,,,,
,,6508518b906002118153f087,2024-02-19_15h19.31.979,kallum_motion_pilot,2023.2.2,Win32,20,6508518b906002118153f087,65d2b6c8f2eece985d8e374c,65d2b99dc4c930283d4b771d,0.0243,0.0243,1,53,215,45,1,threefour,,,,,,,,,,,,,,,,,,,,,,,,,,,,,,,,,,,,,,,,,,,,,,,,,,,,,,,,,,,,,,,,,,,,,,,,,,,,,,,,,,,,,,,,,,,,,,,,,,,,,,,,,,,,,,,,,,,,,,,,,,,,,,,,,,,,,,,,,
,,6508518b906002118153f087,2024-02-19_15h19.31.979,kallum_motion_pilot,2023.2.2,Win32,20,6508518b906002118153f087,65d2b6c8f2eece985d8e374c,65d2b99dc4c930283d4b771d,0.0244,0.0244,1,54,216,150,1,eightsix,,,,,,,,,,,,,,,,,,,,,,,,,,,,,,,,,,,,,,,,,,,,,,,,,,,,,,,,,,,,,,,,,,,,,,,,,,,,,,,,,,,,,,,,,,,,,,,,,,,,,,,,,,,,,,,,,,,,,,,,,,,,,,,,,,,,,,,,,
,,6508518b906002118153f087,2024-02-19_15h19.31.979,kallum_motion_pilot,2023.2.2,Win32,20,6508518b906002118153f087,65d2b6c8f2eece985d8e374c,65d2b99dc4c930283d4b771d,0.0244,0.0244,1,55,217,109,1,seveneight,,,,,,,,,,,,,,,,,,,,,,,,,,,,,,,,,,,,,,,,,,,,,,,,,,,,,,,,,,,,,,,,,,,,,,,,,,,,,,,,,,,,,,,,,,,,,,,,,,,,,,,,,,,,,,,,,,,,,,,,,,,,,,,,,,,,,,,,,
,,6508518b906002118153f087,2024-02-19_15h19.31.979,kallum_motion_pilot,2023.2.2,Win32,20,6508518b906002118153f087,65d2b6c8f2eece985d8e374c,65d2b99dc4c930283d4b771d,0.0245,0.0245,1,56,218,52,1,threeone,,,,,,,,,,,,,,,,,,,,,,,,,,,,,,,,,,,,,,,,,,,,,,,,,,,,,,,,,,,,,,,,,,,,,,,,,,,,,,,,,,,,,,,,,,,,,,,,,,,,,,,,,,,,,,,,,,,,,,,,,,,,,,,,,,,,,,,,,
,,6508518b906002118153f087,2024-02-19_15h19.31.979,kallum_motion_pilot,2023.2.2,Win32,20,6508518b906002118153f087,65d2b6c8f2eece985d8e374c,65d2b99dc4c930283d4b771d,0.0245,0.0245,1,57,219,24,1,onetwo,,,,,,,,,,,,,,,,,,,,,,,,,,,,,,,,,,,,,,,,,,,,,,,,,,,,,,,,,,,,,,,,,,,,,,,,,,,,,,,,,,,,,,,,,,,,,,,,,,,,,,,,,,,,,,,,,,,,,,,,,,,,,,,,,,,,,,,,,
,,6508518b906002118153f087,2024-02-19_15h19.31.979,kallum_motion_pilot,2023.2.2,Win32,20,6508518b906002118153f087,65d2b6c8f2eece985d8e374c,65d2b99dc4c930283d4b771d,0.0246,0.0246,1,58,220,15,1,fourthree,,,,,,,,,,,,,,,,,,,,,,,,,,,,,,,,,,,,,,,,,,,,,,,,,,,,,,,,,,,,,,,,,,,,,,,,,,,,,,,,,,,,,,,,,,,,,,,,,,,,,,,,,,,,,,,,,,,,,,,,,,,,,,,,,,,,,,,,,
,,6508518b906002118153f087,2024-02-19_15h19.31.979,kallum_motion_pilot,2023.2.2,Win32,20,6508518b906002118153f087,65d2b6c8f2eece985d8e374c,65d2b99dc4c930283d4b771d,0.0247,0.0247,1,59,221,65,1,onethree,,,,,,,,,,,,,,,,,,,,,,,,,,,,,,,,,,,,,,,,,,,,,,,,,,,,,,,,,,,,,,,,,,,,,,,,,,,,,,,,,,,,,,,,,,,,,,,,,,,,,,,,,,,,,,,,,,,,,,,,,,,,,,,,,,,,,,,,,
,,6508518b906002118153f087,2024-02-19_15h19.31.979,kallum_motion_pilot,2023.2.2,Win32,20,6508518b906002118153f087,65d2b6c8f2eece985d8e374c,65d2b99dc4c930283d4b771d,0.0247,0.0248,1,60,222,7,1,fourthree,,,,,,,,,,,,,,,,,,,,,,,,,,,,,,,,,,,,,,,,,,,,,,,,,,,,,,,,,,,,,,,,,,,,,,,,,,,,,,,,,,,,,,,,,,,,,,,,,,,,,,,,,,,,,,,,,,,,,,,,,,,,,,,,,,,,,,,,,
,,6508518b906002118153f087,2024-02-19_15h19.31.979,kallum_motion_pilot,2023.2.2,Win32,20,6508518b906002118153f087,65d2b6c8f2eece985d8e374c,65d2b99dc4c930283d4b771d,0.0248,0.0248,1,61,223,131,1,sixeight,,,,,,,,,,,,,,,,,,,,,,,,,,,,,,,,,,,,,,,,,,,,,,,,,,,,,,,,,,,,,,,,,,,,,,,,,,,,,,,,,,,,,,,,,,,,,,,,,,,,,,,,,,,,,,,,,,,,,,,,,,,,,,,,,,,,,,,,,
,,6508518b906002118153f087,2024-02-19_15h19.31.979,kallum_motion_pilot,2023.2.2,Win32,20,6508518b906002118153f087,65d2b6c8f2eece985d8e374c,65d2b99dc4c930283d4b771d,0.0248,0.0248,1,62,224,110,1,eightsix,,,,,,,,,,,,,,,,,,,,,,,,,,,,,,,,,,,,,,,,,,,,,,,,,,,,,,,,,,,,,,,,,,,,,,,,,,,,,,,,,,,,,,,,,,,,,,,,,,,,,,,,,,,,,,,,,,,,,,,,,,,,,,,,,,,,,,,,,
,,6508518b906002118153f087,2024-02-19_15h19.31.979,kallum_motion_pilot,2023.2.2,Win32,20,6508518b906002118153f087,65d2b6c8f2eece985d8e374c,65d2b99dc4c930283d4b771d,0.0249,0.0249,1,63,225,153,1,fiveseven,,,,,,,,,,,,,,,,,,,,,,,,,,,,,,,,,,,,,,,,,,,,,,,,,,,,,,,,,,,,,,,,,,,,,,,,,,,,,,,,,,,,,,,,,,,,,,,,,,,,,,,,,,,,,,,,,,,,,,,,,,,,,,,,,,,,,,,,,
,,6508518b906002118153f087,2024-02-19_15h19.31.979,kallum_motion_pilot,2023.2.2,Win32,20,6508518b906002118153f087,65d2b6c8f2eece985d8e374c,65d2b99dc4c930283d4b771d,0.0249,0.0249,1,64,226,126,1,eightsix,,,,,,,,,,,,,,,,,,,,,,,,,,,,,,,,,,,,,,,,,,,,,,,,,,,,,,,,,,,,,,,,,,,,,,,,,,,,,,,,,,,,,,,,,,,,,,,,,,,,,,,,,,,,,,,,,,,,,,,,,,,,,,,,,,,,,,,,,
,,6508518b906002118153f087,2024-02-19_15h19.31.979,kallum_motion_pilot,2023.2.2,Win32,20,6508518b906002118153f087,65d2b6c8f2eece985d8e374c,65d2b99dc4c930283d4b771d,0.025,0.025,1,65,227,18,1,twoone,,,,,,,,,,,,,,,,,,,,,,,,,,,,,,,,,,,,,,,,,,,,,,,,,,,,,,,,,,,,,,,,,,,,,,,,,,,,,,,,,,,,,,,,,,,,,,,,,,,,,,,,,,,,,,,,,,,,,,,,,,,,,,,,,,,,,,,,,
,,6508518b906002118153f087,2024-02-19_15h19.31.979,kallum_motion_pilot,2023.2.2,Win32,20,6508518b906002118153f087,65d2b6c8f2eece985d8e374c,65d2b99dc4c930283d4b771d,0.025,0.025,1,66,228,17,1,onethree,,,,,,,,,,,,,,,,,,,,,,,,,,,,,,,,,,,,,,,,,,,,,,,,,,,,,,,,,,,,,,,,,,,,,,,,,,,,,,,,,,,,,,,,,,,,,,,,,,,,,,,,,,,,,,,,,,,,,,,,,,,,,,,,,,,,,,,,,
,,6508518b906002118153f087,2024-02-19_15h19.31.979,kallum_motion_pilot,2023.2.2,Win32,20,6508518b906002118153f087,65d2b6c8f2eece985d8e374c,65d2b99dc4c930283d4b771d,0.0251,0.0251,1,67,229,88,1,fivesix,,,,,,,,,,,,,,,,,,,,,,,,,,,,,,,,,,,,,,,,,,,,,,,,,,,,,,,,,,,,,,,,,,,,,,,,,,,,,,,,,,,,,,,,,,,,,,,,,,,,,,,,,,,,,,,,,,,,,,,,,,,,,,,,,,,,,,,,,
,,6508518b906002118153f087,2024-02-19_15h19.31.979,kallum_motion_pilot,2023.2.2,Win32,20,6508518b906002118153f087,65d2b6c8f2eece985d8e374c,65d2b99dc4c930283d4b771d,0.0251,0.0252,1,68,230,138,1,sixfive,,,,,,,,,,,,,,,,,,,,,,,,,,,,,,,,,,,,,,,,,,,,,,,,,,,,,,,,,,,,,,,,,,,,,,,,,,,,,,,,,,,,,,,,,,,,,,,,,,,,,,,,,,,,,,,,,,,,,,,,,,,,,,,,,,,,,,,,,
,,6508518b906002118153f087,2024-02-19_15h19.31.979,kallum_motion_pilot,2023.2.2,Win32,20,6508518b906002118153f087,65d2b6c8f2eece985d8e374c,65d2b99dc4c930283d4b771d,0.0252,0.0252,1,69,231,47,1,fourthree,,,,,,,,,,,,,,,,,,,,,,,,,,,,,,,,,,,,,,,,,,,,,,,,,,,,,,,,,,,,,,,,,,,,,,,,,,,,,,,,,,,,,,,,,,,,,,,,,,,,,,,,,,,,,,,,,,,,,,,,,,,,,,,,,,,,,,,,,
,,6508518b906002118153f087,2024-02-19_15h19.31.979,kallum_motion_pilot,2023.2.2,Win32,20,6508518b906002118153f087,65d2b6c8f2eece985d8e374c,65d2b99dc4c930283d4b771d,0.0253,0.0253,1,70,232,67,1,twofour,,,,,,,,,,,,,,,,,,,,,,,,,,,,,,,,,,,,,,,,,,,,,,,,,,,,,,,,,,,,,,,,,,,,,,,,,,,,,,,,,,,,,,,,,,,,,,,,,,,,,,,,,,,,,,,,,,,,,,,,,,,,,,,,,,,,,,,,,
,,6508518b906002118153f087,2024-02-19_15h19.31.979,kallum_motion_pilot,2023.2.2,Win32,20,6508518b906002118153f087,65d2b6c8f2eece985d8e374c,65d2b99dc4c930283d4b771d,0.0253,0.0254,1,71,233,31,1,fourthree,,,,,,,,,,,,,,,,,,,,,,,,,,,,,,,,,,,,,,,,,,,,,,,,,,,,,,,,,,,,,,,,,,,,,,,,,,,,,,,,,,,,,,,,,,,,,,,,,,,,,,,,,,,,,,,,,,,,,,,,,,,,,,,,,,,,,,,,,
,,6508518b906002118153f087,2024-02-19_15h19.31.979,kallum_motion_pilot,2023.2.2,Win32,20,6508518b906002118153f087,65d2b6c8f2eece985d8e374c,65d2b99dc4c930283d4b771d,0.0254,0.0254,1,72,234,121,1,fiveseven,,,,,,,,,,,,,,,,,,,,,,,,,,,,,,,,,,,,,,,,,,,,,,,,,,,,,,,,,,,,,,,,,,,,,,,,,,,,,,,,,,,,,,,,,,,,,,,,,,,,,,,,,,,,,,,,,,,,,,,,,,,,,,,,,,,,,,,,,
,,6508518b906002118153f087,2024-02-19_15h19.31.979,kallum_motion_pilot,2023.2.2,Win32,20,6508518b906002118153f087,65d2b6c8f2eece985d8e374c,65d2b99dc4c930283d4b771d,0.0255,0.0255,1,73,235,129,1,fiveseven,,,,,,,,,,,,,,,,,,,,,,,,,,,,,,,,,,,,,,,,,,,,,,,,,,,,,,,,,,,,,,,,,,,,,,,,,,,,,,,,,,,,,,,,,,,,,,,,,,,,,,,,,,,,,,,,,,,,,,,,,,,,,,,,,,,,,,,,,
,,6508518b906002118153f087,2024-02-19_15h19.31.979,kallum_motion_pilot,2023.2.2,Win32,20,6508518b906002118153f087,65d2b6c8f2eece985d8e374c,65d2b99dc4c930283d4b771d,0.0255,0.0255,1,74,236,54,1,fourtwo,,,,,,,,,,,,,,,,,,,,,,,,,,,,,,,,,,,,,,,,,,,,,,,,,,,,,,,,,,,,,,,,,,,,,,,,,,,,,,,,,,,,,,,,,,,,,,,,,,,,,,,,,,,,,,,,,,,,,,,,,,,,,,,,,,,,,,,,,
,,6508518b906002118153f087,2024-02-19_15h19.31.979,kallum_motion_pilot,2023.2.2,Win32,20,6508518b906002118153f087,65d2b6c8f2eece985d8e374c,65d2b99dc4c930283d4b771d,0.0255,0.0255,1,75,237,133,1,seveneight,,,,,,,,,,,,,,,,,,,,,,,,,,,,,,,,,,,,,,,,,,,,,,,,,,,,,,,,,,,,,,,,,,,,,,,,,,,,,,,,,,,,,,,,,,,,,,,,,,,,,,,,,,,,,,,,,,,,,,,,,,,,,,,,,,,,,,,,,
,,6508518b906002118153f087,2024-02-19_15h19.31.979,kallum_motion_pilot,2023.2.2,Win32,20,6508518b906002118153f087,65d2b6c8f2eece985d8e374c,65d2b99dc4c930283d4b771d,0.0256,0.0256,1,76,238,76,1,threeone,,,,,,,,,,,,,,,,,,,,,,,,,,,,,,,,,,,,,,,,,,,,,,,,,,,,,,,,,,,,,,,,,,,,,,,,,,,,,,,,,,,,,,,,,,,,,,,,,,,,,,,,,,,,,,,,,,,,,,,,,,,,,,,,,,,,,,,,,
,,6508518b906002118153f087,2024-02-19_15h19.31.979,kallum_motion_pilot,2023.2.2,Win32,20,6508518b906002118153f087,65d2b6c8f2eece985d8e374c,65d2b99dc4c930283d4b771d,0.0257,0.0257,1,77,239,19,1,twofour,,,,,,,,,,,,,,,,,,,,,,,,,,,,,,,,,,,,,,,,,,,,,,,,,,,,,,,,,,,,,,,,,,,,,,,,,,,,,,,,,,,,,,,,,,,,,,,,,,,,,,,,,,,,,,,,,,,,,,,,,,,,,,,,,,,,,,,,,
,,6508518b906002118153f087,2024-02-19_15h19.31.979,kallum_motion_pilot,2023.2.2,Win32,20,6508518b906002118153f087,65d2b6c8f2eece985d8e374c,65d2b99dc4c930283d4b771d,0.0258,0.0258,1,78,240,32,1,onetwo,,,,,,,,,,,,,,,,,,,,,,,,,,,,,,,,,,,,,,,,,,,,,,,,,,,,,,,,,,,,,,,,,,,,,,,,,,,,,,,,,,,,,,,,,,,,,,,,,,,,,,,,,,,,,,,,,,,,,,,,,,,,,,,,,,,,,,,,,
,,6508518b906002118153f087,2024-02-19_15h19.31.979,kallum_motion_pilot,2023.2.2,Win32,20,6508518b906002118153f087,65d2b6c8f2eece985d8e374c,65d2b99dc4c930283d4b771d,0.0258,0.0258,1,79,241,53,1,threefour,,,,,,,,,,,,,,,,,,,,,,,,,,,,,,,,,,,,,,,,,,,,,,,,,,,,,,,,,,,,,,,,,,,,,,,,,,,,,,,,,,,,,,,,,,,,,,,,,,,,,,,,,,,,,,,,,,,,,,,,,,,,,,,,,,,,,,,,,
,,6508518b906002118153f087,2024-02-19_15h19.31.979,kallum_motion_pilot,2023.2.2,Win32,20,6508518b906002118153f087,65d2b6c8f2eece985d8e374c,65d2b99dc4c930283d4b771d,0.0258,0.0258,1,80,242,148,1,sevenfive,,,,,,,,,,,,,,,,,,,,,,,,,,,,,,,,,,,,,,,,,,,,,,,,,,,,,,,,,,,,,,,,,,,,,,,,,,,,,,,,,,,,,,,,,,,,,,,,,,,,,,,,,,,,,,,,,,,,,,,,,,,,,,,,,,,,,,,,,
,,6508518b906002118153f087,2024-02-19_15h19.31.979,kallum_motion_pilot,2023.2.2,Win32,20,6508518b906002118153f087,65d2b6c8f2eece985d8e374c,65d2b99dc4c930283d4b771d,0.0259,0.026,1,81,243,62,1,fourtwo,,,,,,,,,,,,,,,,,,,,,,,,,,,,,,,,,,,,,,,,,,,,,,,,,,,,,,,,,,,,,,,,,,,,,,,,,,,,,,,,,,,,,,,,,,,,,,,,,,,,,,,,,,,,,,,,,,,,,,,,,,,,,,,,,,,,,,,,,
,,6508518b906002118153f087,2024-02-19_15h19.31.979,kallum_motion_pilot,2023.2.2,Win32,20,6508518b906002118153f087,65d2b6c8f2eece985d8e374c,65d2b99dc4c930283d4b771d,0.026,0.026,1,82,244,20,1,threeone,,,,,,,,,,,,,,,,,,,,,,,,,,,,,,,,,,,,,,,,,,,,,,,,,,,,,,,,,,,,,,,,,,,,,,,,,,,,,,,,,,,,,,,,,,,,,,,,,,,,,,,,,,,,,,,,,,,,,,,,,,,,,,,,,,,,,,,,,
,,6508518b906002118153f087,2024-02-19_15h19.31.979,kallum_motion_pilot,2023.2.2,Win32,20,6508518b906002118153f087,65d2b6c8f2eece985d8e374c,65d2b99dc4c930283d4b771d,0.026,0.0261,1,83,245,3,1,twofour,,,,,,,,,,,,,,,,,,,,,,,,,,,,,,,,,,,,,,,,,,,,,,,,,,,,,,,,,,,,,,,,,,,,,,,,,,,,,,,,,,,,,,,,,,,,,,,,,,,,,,,,,,,,,,,,,,,,,,,,,,,,,,,,,,,,,,,,,
,,6508518b906002118153f087,2024-02-19_15h19.31.979,kallum_motion_pilot,2023.2.2,Win32,20,6508518b906002118153f087,65d2b6c8f2eece985d8e374c,65d2b99dc4c930283d4b771d,0.0261,0.0261,1,84,246,157,1,seveneight,,,,,,,,,,,,,,,,,,,,,,,,,,,,,,,,,,,,,,,,,,,,,,,,,,,,,,,,,,,,,,,,,,,,,,,,,,,,,,,,,,,,,,,,,,,,,,,,,,,,,,,,,,,,,,,,,,,,,,,,,,,,,,,,,,,,,,,,,
,,6508518b906002118153f087,2024-02-19_15h19.31.979,kallum_motion_pilot,2023.2.2,Win32,20,6508518b906002118153f087,65d2b6c8f2eece985d8e374c,65d2b99dc4c930283d4b771d,0.0261,0.0261,1,85,247,155,1,sixeight,,,,,,,,,,,,,,,,,,,,,,,,,,,,,,,,,,,,,,,,,,,,,,,,,,,,,,,,,,,,,,,,,,,,,,,,,,,,,,,,,,,,,,,,,,,,,,,,,,,,,,,,,,,,,,,,,,,,,,,,,,,,,,,,,,,,,,,,,
,,6508518b906002118153f087,2024-02-19_15h19.31.979,kallum_motion_pilot,2023.2.2,Win32,20,6508518b906002118153f087,65d2b6c8f2eece985d8e374c,65d2b99dc4c930283d4b771d,0.0261,0.0263,1,86,248,98,1,sixfive,,,,,,,,,,,,,,,,,,,,,,,,,,,,,,,,,,,,,,,,,,,,,,,,,,,,,,,,,,,,,,,,,,,,,,,,,,,,,,,,,,,,,,,,,,,,,,,,,,,,,,,,,,,,,,,,,,,,,,,,,,,,,,,,,,,,,,,,,
,,6508518b906002118153f087,2024-02-19_15h19.31.979,kallum_motion_pilot,2023.2.2,Win32,20,6508518b906002118153f087,65d2b6c8f2eece985d8e374c,65d2b99dc4c930283d4b771d,0.0263,0.0263,1,87,249,93,1,seveneight,,,,,,,,,,,,,,,,,,,,,,,,,,,,,,,,,,,,,,,,,,,,,,,,,,,,,,,,,,,,,,,,,,,,,,,,,,,,,,,,,,,,,,,,,,,,,,,,,,,,,,,,,,,,,,,,,,,,,,,,,,,,,,,,,,,,,,,,,
,,6508518b906002118153f087,2024-02-19_15h19.31.979,kallum_motion_pilot,2023.2.2,Win32,20,6508518b906002118153f087,65d2b6c8f2eece985d8e374c,65d2b99dc4c930283d4b771d,0.0263,0.0263,1,88,250,113,1,fiveseven,,,,,,,,,,,,,,,,,,,,,,,,,,,,,,,,,,,,,,,,,,,,,,,,,,,,,,,,,,,,,,,,,,,,,,,,,,,,,,,,,,,,,,,,,,,,,,,,,,,,,,,,,,,,,,,,,,,,,,,,,,,,,,,,,,,,,,,,,
,,6508518b906002118153f087,2024-02-19_15h19.31.979,kallum_motion_pilot,2023.2.2,Win32,20,6508518b906002118153f087,65d2b6c8f2eece985d8e374c,65d2b99dc4c930283d4b771d,0.0263,0.0264,1,89,251,23,1,fourthree,,,,,,,,,,,,,,,,,,,,,,,,,,,,,,,,,,,,,,,,,,,,,,,,,,,,,,,,,,,,,,,,,,,,,,,,,,,,,,,,,,,,,,,,,,,,,,,,,,,,,,,,,,,,,,,,,,,,,,,,,,,,,,,,,,,,,,,,,
,,6508518b906002118153f087,2024-02-19_15h19.31.979,kallum_motion_pilot,2023.2.2,Win32,20,6508518b906002118153f087,65d2b6c8f2eece985d8e374c,65d2b99dc4c930283d4b771d,0.0264,0.0265,1,90,252,58,1,twoone,,,,,,,,,,,,,,,,,,,,,,,,,,,,,,,,,,,,,,,,,,,,,,,,,,,,,,,,,,,,,,,,,,,,,,,,,,,,,,,,,,,,,,,,,,,,,,,,,,,,,,,,,,,,,,,,,,,,,,,,,,,,,,,,,,,,,,,,,
,,6508518b906002118153f087,2024-02-19_15h19.31.979,kallum_motion_pilot,2023.2.2,Win32,20,6508518b906002118153f087,65d2b6c8f2eece985d8e374c,65d2b99dc4c930283d4b771d,0.0265,0.0266,1,91,253,136,1,fivesix,,,,,,,,,,,,,,,,,,,,,,,,,,,,,,,,,,,,,,,,,,,,,,,,,,,,,,,,,,,,,,,,,,,,,,,,,,,,,,,,,,,,,,,,,,,,,,,,,,,,,,,,,,,,,,,,,,,,,,,,,,,,,,,,,,,,,,,,,
,,6508518b906002118153f087,2024-02-19_15h19.31.979,kallum_motion_pilot,2023.2.2,Win32,20,6508518b906002118153f087,65d2b6c8f2eece985d8e374c,65d2b99dc4c930283d4b771d,0.0266,0.0266,1,92,254,64,1,onetwo,,,,,,,,,,,,,,,,,,,,,,,,,,,,,,,,,,,,,,,,,,,,,,,,,,,,,,,,,,,,,,,,,,,,,,,,,,,,,,,,,,,,,,,,,,,,,,,,,,,,,,,,,,,,,,,,,,,,,,,,,,,,,,,,,,,,,,,,,
,,6508518b906002118153f087,2024-02-19_15h19.31.979,kallum_motion_pilot,2023.2.2,Win32,20,6508518b906002118153f087,65d2b6c8f2eece985d8e374c,65d2b99dc4c930283d4b771d,0.0267,0.0267,1,93,255,90,1,sixfive,,,,,,,,,,,,,,,,,,,,,,,,,,,,,,,,,,,,,,,,,,,,,,,,,,,,,,,,,,,,,,,,,,,,,,,,,,,,,,,,,,,,,,,,,,,,,,,,,,,,,,,,,,,,,,,,,,,,,,,,,,,,,,,,,,,,,,,,,
,,6508518b906002118153f087,2024-02-19_15h19.31.979,kallum_motion_pilot,2023.2.2,Win32,20,6508518b906002118153f087,65d2b6c8f2eece985d8e374c,65d2b99dc4c930283d4b771d,0.0268,0.0268,1,94,256,72,1,onetwo,,,,,,,,,,,,,,,,,,,,,,,,,,,,,,,,,,,,,,,,,,,,,,,,,,,,,,,,,,,,,,,,,,,,,,,,,,,,,,,,,,,,,,,,,,,,,,,,,,,,,,,,,,,,,,,,,,,,,,,,,,,,,,,,,,,,,,,,,
,,6508518b906002118153f087,2024-02-19_15h19.31.979,kallum_motion_pilot,2023.2.2,Win32,20,6508518b906002118153f087,65d2b6c8f2eece985d8e374c,65d2b99dc4c930283d4b771d,0.0268,0.0268,1,95,257,100,1,sevenfive,,,,,,,,,,,,,,,,,,,,,,,,,,,,,,,,,,,,,,,,,,,,,,,,,,,,,,,,,,,,,,,,,,,,,,,,,,,,,,,,,,,,,,,,,,,,,,,,,,,,,,,,,,,,,,,,,,,,,,,,,,,,,,,,,,,,,,,,,
,,6508518b906002118153f087,2024-02-19_15h19.31.979,kallum_motion_pilot,2023.2.2,Win32,20,6508518b906002118153f087,65d2b6c8f2eece985d8e374c,65d2b99dc4c930283d4b771d,0.0268,0.0269,1,96,258,116,1,sevenfive,,,,,,,,,,,,,,,,,,,,,,,,,,,,,,,,,,,,,,,,,,,,,,,,,,,,,,,,,,,,,,,,,,,,,,,,,,,,,,,,,,,,,,,,,,,,,,,,,,,,,,,,,,,,,,,,,,,,,,,,,,,,,,,,,,,,,,,,,
,,6508518b906002118153f087,2024-02-19_15h19.31.979,kallum_motion_pilot,2023.2.2,Win32,20,6508518b906002118153f087,65d2b6c8f2eece985d8e374c,65d2b99dc4c930283d4b771d,0.027,0.027,1,97,259,141,1,seveneight,,,,,,,,,,,,,,,,,,,,,,,,,,,,,,,,,,,,,,,,,,,,,,,,,,,,,,,,,,,,,,,,,,,,,,,,,,,,,,,,,,,,,,,,,,,,,,,,,,,,,,,,,,,,,,,,,,,,,,,,,,,,,,,,,,,,,,,,,
,,6508518b906002118153f087,2024-02-19_15h19.31.979,kallum_motion_pilot,2023.2.2,Win32,20,6508518b906002118153f087,65d2b6c8f2eece985d8e374c,65d2b99dc4c930283d4b771d,0.027,0.027,1,98,260,82,1,sixfive,,,,,,,,,,,,,,,,,,,,,,,,,,,,,,,,,,,,,,,,,,,,,,,,,,,,,,,,,,,,,,,,,,,,,,,,,,,,,,,,,,,,,,,,,,,,,,,,,,,,,,,,,,,,,,,,,,,,,,,,,,,,,,,,,,,,,,,,,
,,6508518b906002118153f087,2024-02-19_15h19.31.979,kallum_motion_pilot,2023.2.2,Win32,20,6508518b906002118153f087,65d2b6c8f2eece985d8e374c,65d2b99dc4c930283d4b771d,0.0271,0.0271,1,99,261,77,1,threefour,,,,,,,,,,,,,,,,,,,,,,,,,,,,,,,,,,,,,,,,,,,,,,,,,,,,,,,,,,,,,,,,,,,,,,,,,,,,,,,,,,,,,,,,,,,,,,,,,,,,,,,,,,,,,,,,,,,,,,,,,,,,,,,,,,,,,,,,,
,,6508518b906002118153f087,2024-02-19_15h19.31.979,kallum_motion_pilot,2023.2.2,Win32,20,6508518b906002118153f087,65d2b6c8f2eece985d8e374c,65d2b99dc4c930283d4b771d,0.0271,0.0271,1,100,262,159,1,eightseven,,,,,,,,,,,,,,,,,,,,,,,,,,,,,,,,,,,,,,,,,,,,,,,,,,,,,,,,,,,,,,,,,,,,,,,,,,,,,,,,,,,,,,,,,,,,,,,,,,,,,,,,,,,,,,,,,,,,,,,,,,,,,,,,,,,,,,,,,
,,6508518b906002118153f087,2024-02-19_15h19.31.979,kallum_motion_pilot,2023.2.2,Win32,20,6508518b906002118153f087,65d2b6c8f2eece985d8e374c,65d2b99dc4c930283d4b771d,0.0271,0.0272,1,101,263,111,1,eightseven,,,,,,,,,,,,,,,,,,,,,,,,,,,,,,,,,,,,,,,,,,,,,,,,,,,,,,,,,,,,,,,,,,,,,,,,,,,,,,,,,,,,,,,,,,,,,,,,,,,,,,,,,,,,,,,,,,,,,,,,,,,,,,,,,,,,,,,,,
,,6508518b906002118153f087,2024-02-19_15h19.31.979,kallum_motion_pilot,2023.2.2,Win32,20,6508518b906002118153f087,65d2b6c8f2eece985d8e374c,65d2b99dc4c930283d4b771d,0.0273,0.0273,1,102,264,70,1,fourtwo,,,,,,,,,,,,,,,,,,,,,,,,,,,,,,,,,,,,,,,,,,,,,,,,,,,,,,,,,,,,,,,,,,,,,,,,,,,,,,,,,,,,,,,,,,,,,,,,,,,,,,,,,,,,,,,,,,,,,,,,,,,,,,,,,,,,,,,,,
,,6508518b906002118153f087,2024-02-19_15h19.31.979,kallum_motion_pilot,2023.2.2,Win32,20,6508518b906002118153f087,65d2b6c8f2eece985d8e374c,65d2b99dc4c930283d4b771d,0.0273,0.0274,1,103,265,68,1,threeone,,,,,,,,,,,,,,,,,,,,,,,,,,,,,,,,,,,,,,,,,,,,,,,,,,,,,,,,,,,,,,,,,,,,,,,,,,,,,,,,,,,,,,,,,,,,,,,,,,,,,,,,,,,,,,,,,,,,,,,,,,,,,,,,,,,,,,,,,
,,6508518b906002118153f087,2024-02-19_15h19.31.979,kallum_motion_pilot,2023.2.2,Win32,20,6508518b906002118153f087,65d2b6c8f2eece985d8e374c,65d2b99dc4c930283d4b771d,0.0274,0.0275,1,104,266,99,1,sixeight,,,,,,,,,,,,,,,,,,,,,,,,,,,,,,,,,,,,,,,,,,,,,,,,,,,,,,,,,,,,,,,,,,,,,,,,,,,,,,,,,,,,,,,,,,,,,,,,,,,,,,,,,,,,,,,,,,,,,,,,,,,,,,,,,,,,,,,,,
,,6508518b906002118153f087,2024-02-19_15h19.31.979,kallum_motion_pilot,2023.2.2,Win32,20,6508518b906002118153f087,65d2b6c8f2eece985d8e374c,65d2b99dc4c930283d4b771d,0.0275,0.0275,1,105,267,123,1,sixeight,,,,,,,,,,,,,,,,,,,,,,,,,,,,,,,,,,,,,,,,,,,,,,,,,,,,,,,,,,,,,,,,,,,,,,,,,,,,,,,,,,,,,,,,,,,,,,,,,,,,,,,,,,,,,,,,,,,,,,,,,,,,,,,,,,,,,,,,,
,,6508518b906002118153f087,2024-02-19_15h19.31.979,kallum_motion_pilot,2023.2.2,Win32,20,6508518b906002118153f087,65d2b6c8f2eece985d8e374c,65d2b99dc4c930283d4b771d,0.0276,0.0276,1,106,268,56,1,onetwo,,,,,,,,,,,,,,,,,,,,,,,,,,,,,,,,,,,,,,,,,,,,,,,,,,,,,,,,,,,,,,,,,,,,,,,,,,,,,,,,,,,,,,,,,,,,,,,,,,,,,,,,,,,,,,,,,,,,,,,,,,,,,,,,,,,,,,,,,
,,6508518b906002118153f087,2024-02-19_15h19.31.979,kallum_motion_pilot,2023.2.2,Win32,20,6508518b906002118153f087,65d2b6c8f2eece985d8e374c,65d2b99dc4c930283d4b771d,0.0276,0.0277,1,107,269,92,1,sevenfive,,,,,,,,,,,,,,,,,,,,,,,,,,,,,,,,,,,,,,,,,,,,,,,,,,,,,,,,,,,,,,,,,,,,,,,,,,,,,,,,,,,,,,,,,,,,,,,,,,,,,,,,,,,,,,,,,,,,,,,,,,,,,,,,,,,,,,,,,
,,6508518b906002118153f087,2024-02-19_15h19.31.979,kallum_motion_pilot,2023.2.2,Win32,20,6508518b906002118153f087,65d2b6c8f2eece985d8e374c,65d2b99dc4c930283d4b771d,0.0277,0.0277,1,108,270,16,1,onetwo,,,,,,,,,,,,,,,,,,,,,,,,,,,,,,,,,,,,,,,,,,,,,,,,,,,,,,,,,,,,,,,,,,,,,,,,,,,,,,,,,,,,,,,,,,,,,,,,,,,,,,,,,,,,,,,,,,,,,,,,,,,,,,,,,,,,,,,,,
,,6508518b906002118153f087,2024-02-19_15h19.31.979,kallum_motion_pilot,2023.2.2,Win32,20,6508518b906002118153f087,65d2b6c8f2eece985d8e374c,65d2b99dc4c930283d4b771d,0.0277,0.0277,1,109,271,86,1,eightsix,,,,,,,,,,,,,,,,,,,,,,,,,,,,,,,,,,,,,,,,,,,,,,,,,,,,,,,,,,,,,,,,,,,,,,,,,,,,,,,,,,,,,,,,,,,,,,,,,,,,,,,,,,,,,,,,,,,,,,,,,,,,,,,,,,,,,,,,,
,,6508518b906002118153f087,2024-02-19_15h19.31.979,kallum_motion_pilot,2023.2.2,Win32,20,6508518b906002118153f087,65d2b6c8f2eece985d8e374c,65d2b99dc4c930283d4b771d,0.0277,0.0278,1,110,272,106,1,sixfive,,,,,,,,,,,,,,,,,,,,,,,,,,,,,,,,,,,,,,,,,,,,,,,,,,,,,,,,,,,,,,,,,,,,,,,,,,,,,,,,,,,,,,,,,,,,,,,,,,,,,,,,,,,,,,,,,,,,,,,,,,,,,,,,,,,,,,,,,
,,6508518b906002118153f087,2024-02-19_15h19.31.979,kallum_motion_pilot,2023.2.2,Win32,20,6508518b906002118153f087,65d2b6c8f2eece985d8e374c,65d2b99dc4c930283d4b771d,0.0278,0.0278,1,111,273,66,1,twoone,,,,,,,,,,,,,,,,,,,,,,,,,,,,,,,,,,,,,,,,,,,,,,,,,,,,,,,,,,,,,,,,,,,,,,,,,,,,,,,,,,,,,,,,,,,,,,,,,,,,,,,,,,,,,,,,,,,,,,,,,,,,,,,,,,,,,,,,,
,,6508518b906002118153f087,2024-02-19_15h19.31.979,kallum_motion_pilot,2023.2.2,Win32,20,6508518b906002118153f087,65d2b6c8f2eece985d8e374c,65d2b99dc4c930283d4b771d,0.0279,0.028,1,112,274,119,1,eightseven,,,,,,,,,,,,,,,,,,,,,,,,,,,,,,,,,,,,,,,,,,,,,,,,,,,,,,,,,,,,,,,,,,,,,,,,,,,,,,,,,,,,,,,,,,,,,,,,,,,,,,,,,,,,,,,,,,,,,,,,,,,,,,,,,,,,,,,,,
,,6508518b906002118153f087,2024-02-19_15h19.31.979,kallum_motion_pilot,2023.2.2,Win32,20,6508518b906002118153f087,65d2b6c8f2eece985d8e374c,65d2b99dc4c930283d4b771d,0.028,0.028,1,113,275,39,1,fourthree,,,,,,,,,,,,,,,,,,,,,,,,,,,,,,,,,,,,,,,,,,,,,,,,,,,,,,,,,,,,,,,,,,,,,,,,,,,,,,,,,,,,,,,,,,,,,,,,,,,,,,,,,,,,,,,,,,,,,,,,,,,,,,,,,,,,,,,,,
,,6508518b906002118153f087,2024-02-19_15h19.31.979,kallum_motion_pilot,2023.2.2,Win32,20,6508518b906002118153f087,65d2b6c8f2eece985d8e374c,65d2b99dc4c930283d4b771d,0.028,0.0281,1,114,276,61,1,threefour,,,,,,,,,,,,,,,,,,,,,,,,,,,,,,,,,,,,,,,,,,,,,,,,,,,,,,,,,,,,,,,,,,,,,,,,,,,,,,,,,,,,,,,,,,,,,,,,,,,,,,,,,,,,,,,,,,,,,,,,,,,,,,,,,,,,,,,,,
,,6508518b906002118153f087,2024-02-19_15h19.31.979,kallum_motion_pilot,2023.2.2,Win32,20,6508518b906002118153f087,65d2b6c8f2eece985d8e374c,65d2b99dc4c930283d4b771d,0.0281,0.0282,1,115,277,104,1,fivesix,,,,,,,,,,,,,,,,,,,,,,,,,,,,,,,,,,,,,,,,,,,,,,,,,,,,,,,,,,,,,,,,,,,,,,,,,,,,,,,,,,,,,,,,,,,,,,,,,,,,,,,,,,,,,,,,,,,,,,,,,,,,,,,,,,,,,,,,,
,,6508518b906002118153f087,2024-02-19_15h19.31.979,kallum_motion_pilot,2023.2.2,Win32,20,6508518b906002118153f087,65d2b6c8f2eece985d8e374c,65d2b99dc4c930283d4b771d,0.0282,0.0282,1,116,278,137,1,fiveseven,,,,,,,,,,,,,,,,,,,,,,,,,,,,,,,,,,,,,,,,,,,,,,,,,,,,,,,,,,,,,,,,,,,,,,,,,,,,,,,,,,,,,,,,,,,,,,,,,,,,,,,,,,,,,,,,,,,,,,,,,,,,,,,,,,,,,,,,,
,,6508518b906002118153f087,2024-02-19_15h19.31.979,kallum_motion_pilot,2023.2.2,Win32,20,6508518b906002118153f087,65d2b6c8f2eece985d8e374c,65d2b99dc4c930283d4b771d,0.0282,0.0282,1,117,279,14,1,fourtwo,,,,,,,,,,,,,,,,,,,,,,,,,,,,,,,,,,,,,,,,,,,,,,,,,,,,,,,,,,,,,,,,,,,,,,,,,,,,,,,,,,,,,,,,,,,,,,,,,,,,,,,,,,,,,,,,,,,,,,,,,,,,,,,,,,,,,,,,,
,,6508518b906002118153f087,2024-02-19_15h19.31.979,kallum_motion_pilot,2023.2.2,Win32,20,6508518b906002118153f087,65d2b6c8f2eece985d8e374c,65d2b99dc4c930283d4b771d,0.0282,0.0283,1,118,280,6,1,fourtwo,,,,,,,,,,,,,,,,,,,,,,,,,,,,,,,,,,,,,,,,,,,,,,,,,,,,,,,,,,,,,,,,,,,,,,,,,,,,,,,,,,,,,,,,,,,,,,,,,,,,,,,,,,,,,,,,,,,,,,,,,,,,,,,,,,,,,,,,,
,,6508518b906002118153f087,2024-02-19_15h19.31.979,kallum_motion_pilot,2023.2.2,Win32,20,6508518b906002118153f087,65d2b6c8f2eece985d8e374c,65d2b99dc4c930283d4b771d,0.0284,0.0284,1,119,281,59,1,twofour,,,,,,,,,,,,,,,,,,,,,,,,,,,,,,,,,,,,,,,,,,,,,,,,,,,,,,,,,,,,,,,,,,,,,,,,,,,,,,,,,,,,,,,,,,,,,,,,,,,,,,,,,,,,,,,,,,,,,,,,,,,,,,,,,,,,,,,,,
,,6508518b906002118153f087,2024-02-19_15h19.31.979,kallum_motion_pilot,2023.2.2,Win32,20,6508518b906002118153f087,65d2b6c8f2eece985d8e374c,65d2b99dc4c930283d4b771d,0.0284,0.0284,1,120,282,84,1,sevenfive,,,,,,,,,,,,,,,,,,,,,,,,,,,,,,,,,,,,,,,,,,,,,,,,,,,,,,,,,,,,,,,,,,,,,,,,,,,,,,,,,,,,,,,,,,,,,,,,,,,,,,,,,,,,,,,,,,,,,,,,,,,,,,,,,,,,,,,,,
,,6508518b906002118153f087,2024-02-19_15h19.31.979,kallum_motion_pilot,2023.2.2,Win32,20,6508518b906002118153f087,65d2b6c8f2eece985d8e374c,65d2b99dc4c930283d4b771d,0.0284,0.0285,1,121,283,69,1,threefour,,,,,,,,,,,,,,,,,,,,,,,,,,,,,,,,,,,,,,,,,,,,,,,,,,,,,,,,,,,,,,,,,,,,,,,,,,,,,,,,,,,,,,,,,,,,,,,,,,,,,,,,,,,,,,,,,,,,,,,,,,,,,,,,,,,,,,,,,
,,6508518b906002118153f087,2024-02-19_15h19.31.979,kallum_motion_pilot,2023.2.2,Win32,20,6508518b906002118153f087,65d2b6c8f2eece985d8e374c,65d2b99dc4c930283d4b771d,0.0286,0.0287,1,122,284,37,1,threefour,,,,,,,,,,,,,,,,,,,,,,,,,,,,,,,,,,,,,,,,,,,,,,,,,,,,,,,,,,,,,,,,,,,,,,,,,,,,,,,,,,,,,,,,,,,,,,,,,,,,,,,,,,,,,,,,,,,,,,,,,,,,,,,,,,,,,,,,,
,,6508518b906002118153f087,2024-02-19_15h19.31.979,kallum_motion_pilot,2023.2.2,Win32,20,6508518b906002118153f087,65d2b6c8f2eece985d8e374c,65d2b99dc4c930283d4b771d,0.0288,0.0289,1,123,285,118,1,eightsix,,,,,,,,,,,,,,,,,,,,,,,,,,,,,,,,,,,,,,,,,,,,,,,,,,,,,,,,,,,,,,,,,,,,,,,,,,,,,,,,,,,,,,,,,,,,,,,,,,,,,,,,,,,,,,,,,,,,,,,,,,,,,,,,,,,,,,,,,
