startup.started,startup.stopped,Prolific ID*,date,expName,psychopyVersion,OS,frameRate,participant,study_id,session,stimpositions.started,stimpositions.stopped,hardcoded_stimulus_positions.thisRepN,hardcoded_stimulus_positions.thisTrialN,hardcoded_stimulus_positions.thisN,hardcoded_stimulus_positions.thisIndex,hardcoded_stimulus_positions.ran,StimulusPos,stimorientation.started,stimorientation.stopped,prac_stimorientation_import_loop.thisRepN,prac_stimorientation_import_loop.thisTrialN,prac_stimorientation_import_loop.thisN,prac_stimorientation_import_loop.thisIndex,prac_stimorientation_import_loop.ran,Stimorientation,welcome_instr.started,welcome_instr.stopped,key_resp.keys,key_resp.rt,key_resp.duration,response_steppedout_1.started,response_steppedout_1.stopped,key_resp_20.keys,key_resp_20.rt,key_resp_20.duration,response_steppedout_2.started,response_steppedout_2.stopped,key_resp_19.keys,key_resp_19.rt,key_resp_19.duration,stim_response_instr.started,stim_response_instr.stopped,key_resp_15.keys,key_resp_15.rt,key_resp_15.duration,direction_instr_2.started,direction_instr_2.stopped,key_resp_9.keys,key_resp_9.rt,key_resp_9.duration,instr_prac.started,instr_prac.stopped,key_resp_10.keys,key_resp_10.rt,key_resp_10.duration,Stim1_display_prac.started,Stim1_display_prac.stopped,Ecc,Circle1_ori,Circle2_ori,response_prac.started,similarity,response_time,response_prac.stopped,mouse_5.x,mouse_5.y,mouse_5.leftButton,mouse_5.midButton,mouse_5.rightButton,mouse_5.clicked_name,responseprac_feedback.started,responseprac_feedback.stopped,summary2_prac.started,summary2_prac.stopped,mouse_6.x,mouse_6.y,mouse_6.leftButton,mouse_6.midButton,mouse_6.rightButton,mouse_6.clicked_name,duringprac.thisRepN,duringprac.thisTrialN,duringprac.thisN,duringprac.thisIndex,duringprac.ran,begin.started,begin.stopped,key_resp_22.keys,key_resp_22.rt,key_resp_22.duration,Stim1_display.started,Stim1_display.stopped,circle1_ori,circle2_ori,circle1_SF,circle2_SF,response.started,response.stopped,mouse.x,mouse.y,mouse.leftButton,mouse.midButton,mouse.rightButton,mouse.clicked_name,trialnumber,double_pass.thisRepN,double_pass.thisTrialN,double_pass.thisN,double_pass.thisIndex,double_pass.ran,double_pass.order,main_trial.thisRepN,main_trial.thisTrialN,main_trial.thisN,main_trial.thisIndex,main_trial.ran,main_trial.order,Trial_Counter,Catch,Frequencies,response_2.started,response_2.stopped,mouse_2.x,mouse_2.y,mouse_2.leftButton,mouse_2.midButton,mouse_2.rightButton,mouse_2.clicked_name,special_trial.started,special_trial.stopped,catch_1.started,catch_1.stopped,mouse_3.x,mouse_3.y,mouse_3.leftButton,mouse_3.midButton,mouse_3.rightButton,catchresponse,catchnumber,response_time_catch,response_sum.started,response_sum.stopped,mouse_11.x,mouse_11.y,mouse_11.leftButton,mouse_11.midButton,mouse_11.rightButton,flip_presentation_sequence_for_double_pass.started,flip_presentation_sequence_for_double_pass.stopped,goodbye.started,goodbye.stopped,key_resp_3.keys,key_resp_3.rt,key_resp_3.duration
0.0035,0.0035,6509fe5bcfaa6c451f85d5a3,2024-02-21_22h30.04.503,kallum_motion_pilot,2023.2.2,Win32,59.88023952,6509fe5bcfaa6c451f85d5a3,65d6bb0e977760de756971f7,65d6bfa6ab610f7bb580d626,,,,,,,,,,,,,,,,,,,,,,,,,,,,,,,,,,,,,,,,,,,,,,,,,,,,,,,,,,,,,,,,,,,,,,,,,,,,,,,,,,,,,,,,,,,,,,,,,,,,,,,,,,,,,,,,,,,,,,,,,,,,,,,,,,,,,,,,,,,,,,,,,
,,6509fe5bcfaa6c451f85d5a3,2024-02-21_22h30.04.503,kallum_motion_pilot,2023.2.2,Win32,59.88023952,6509fe5bcfaa6c451f85d5a3,65d6bb0e977760de756971f7,65d6bfa6ab610f7bb580d626,0.0261,0.0263,0,0,0,70,1,fourtwo,,,,,,,,,,,,,,,,,,,,,,,,,,,,,,,,,,,,,,,,,,,,,,,,,,,,,,,,,,,,,,,,,,,,,,,,,,,,,,,,,,,,,,,,,,,,,,,,,,,,,,,,,,,,,,,,,,,,,,,,,,,,,,,,,,,,,,,,,
,,6509fe5bcfaa6c451f85d5a3,2024-02-21_22h30.04.503,kallum_motion_pilot,2023.2.2,Win32,59.88023952,6509fe5bcfaa6c451f85d5a3,65d6bb0e977760de756971f7,65d6bfa6ab610f7bb580d626,0.0264,0.0264,0,1,1,7,1,fourthree,,,,,,,,,,,,,,,,,,,,,,,,,,,,,,,,,,,,,,,,,,,,,,,,,,,,,,,,,,,,,,,,,,,,,,,,,,,,,,,,,,,,,,,,,,,,,,,,,,,,,,,,,,,,,,,,,,,,,,,,,,,,,,,,,,,,,,,,,
,,6509fe5bcfaa6c451f85d5a3,2024-02-21_22h30.04.503,kallum_motion_pilot,2023.2.2,Win32,59.88023952,6509fe5bcfaa6c451f85d5a3,65d6bb0e977760de756971f7,65d6bfa6ab610f7bb580d626,0.0265,0.0265,0,2,2,131,1,sixeight,,,,,,,,,,,,,,,,,,,,,,,,,,,,,,,,,,,,,,,,,,,,,,,,,,,,,,,,,,,,,,,,,,,,,,,,,,,,,,,,,,,,,,,,,,,,,,,,,,,,,,,,,,,,,,,,,,,,,,,,,,,,,,,,,,,,,,,,,
,,6509fe5bcfaa6c451f85d5a3,2024-02-21_22h30.04.503,kallum_motion_pilot,2023.2.2,Win32,59.88023952,6509fe5bcfaa6c451f85d5a3,65d6bb0e977760de756971f7,65d6bfa6ab610f7bb580d626,0.0267,0.0267,0,3,3,139,1,sixeight,,,,,,,,,,,,,,,,,,,,,,,,,,,,,,,,,,,,,,,,,,,,,,,,,,,,,,,,,,,,,,,,,,,,,,,,,,,,,,,,,,,,,,,,,,,,,,,,,,,,,,,,,,,,,,,,,,,,,,,,,,,,,,,,,,,,,,,,,
,,6509fe5bcfaa6c451f85d5a3,2024-02-21_22h30.04.503,kallum_motion_pilot,2023.2.2,Win32,59.88023952,6509fe5bcfaa6c451f85d5a3,65d6bb0e977760de756971f7,65d6bfa6ab610f7bb580d626,0.0268,0.0268,0,4,4,136,1,fivesix,,,,,,,,,,,,,,,,,,,,,,,,,,,,,,,,,,,,,,,,,,,,,,,,,,,,,,,,,,,,,,,,,,,,,,,,,,,,,,,,,,,,,,,,,,,,,,,,,,,,,,,,,,,,,,,,,,,,,,,,,,,,,,,,,,,,,,,,,
,,6509fe5bcfaa6c451f85d5a3,2024-02-21_22h30.04.503,kallum_motion_pilot,2023.2.2,Win32,59.88023952,6509fe5bcfaa6c451f85d5a3,65d6bb0e977760de756971f7,65d6bfa6ab610f7bb580d626,0.0268,0.0269,0,5,5,62,1,fourtwo,,,,,,,,,,,,,,,,,,,,,,,,,,,,,,,,,,,,,,,,,,,,,,,,,,,,,,,,,,,,,,,,,,,,,,,,,,,,,,,,,,,,,,,,,,,,,,,,,,,,,,,,,,,,,,,,,,,,,,,,,,,,,,,,,,,,,,,,,
,,6509fe5bcfaa6c451f85d5a3,2024-02-21_22h30.04.503,kallum_motion_pilot,2023.2.2,Win32,59.88023952,6509fe5bcfaa6c451f85d5a3,65d6bb0e977760de756971f7,65d6bfa6ab610f7bb580d626,0.0269,0.0269,0,6,6,124,1,sevenfive,,,,,,,,,,,,,,,,,,,,,,,,,,,,,,,,,,,,,,,,,,,,,,,,,,,,,,,,,,,,,,,,,,,,,,,,,,,,,,,,,,,,,,,,,,,,,,,,,,,,,,,,,,,,,,,,,,,,,,,,,,,,,,,,,,,,,,,,,
,,6509fe5bcfaa6c451f85d5a3,2024-02-21_22h30.04.503,kallum_motion_pilot,2023.2.2,Win32,59.88023952,6509fe5bcfaa6c451f85d5a3,65d6bb0e977760de756971f7,65d6bfa6ab610f7bb580d626,0.027,0.027,0,7,7,54,1,fourtwo,,,,,,,,,,,,,,,,,,,,,,,,,,,,,,,,,,,,,,,,,,,,,,,,,,,,,,,,,,,,,,,,,,,,,,,,,,,,,,,,,,,,,,,,,,,,,,,,,,,,,,,,,,,,,,,,,,,,,,,,,,,,,,,,,,,,,,,,,
,,6509fe5bcfaa6c451f85d5a3,2024-02-21_22h30.04.503,kallum_motion_pilot,2023.2.2,Win32,59.88023952,6509fe5bcfaa6c451f85d5a3,65d6bb0e977760de756971f7,65d6bfa6ab610f7bb580d626,0.0271,0.0271,0,8,8,51,1,twofour,,,,,,,,,,,,,,,,,,,,,,,,,,,,,,,,,,,,,,,,,,,,,,,,,,,,,,,,,,,,,,,,,,,,,,,,,,,,,,,,,,,,,,,,,,,,,,,,,,,,,,,,,,,,,,,,,,,,,,,,,,,,,,,,,,,,,,,,,
,,6509fe5bcfaa6c451f85d5a3,2024-02-21_22h30.04.503,kallum_motion_pilot,2023.2.2,Win32,59.88023952,6509fe5bcfaa6c451f85d5a3,65d6bb0e977760de756971f7,65d6bfa6ab610f7bb580d626,0.0272,0.0273,0,9,9,154,1,sixfive,,,,,,,,,,,,,,,,,,,,,,,,,,,,,,,,,,,,,,,,,,,,,,,,,,,,,,,,,,,,,,,,,,,,,,,,,,,,,,,,,,,,,,,,,,,,,,,,,,,,,,,,,,,,,,,,,,,,,,,,,,,,,,,,,,,,,,,,,
,,6509fe5bcfaa6c451f85d5a3,2024-02-21_22h30.04.503,kallum_motion_pilot,2023.2.2,Win32,59.88023952,6509fe5bcfaa6c451f85d5a3,65d6bb0e977760de756971f7,65d6bfa6ab610f7bb580d626,0.0273,0.0273,0,10,10,72,1,onetwo,,,,,,,,,,,,,,,,,,,,,,,,,,,,,,,,,,,,,,,,,,,,,,,,,,,,,,,,,,,,,,,,,,,,,,,,,,,,,,,,,,,,,,,,,,,,,,,,,,,,,,,,,,,,,,,,,,,,,,,,,,,,,,,,,,,,,,,,,
,,6509fe5bcfaa6c451f85d5a3,2024-02-21_22h30.04.503,kallum_motion_pilot,2023.2.2,Win32,59.88023952,6509fe5bcfaa6c451f85d5a3,65d6bb0e977760de756971f7,65d6bfa6ab610f7bb580d626,0.0274,0.0274,0,11,11,19,1,twofour,,,,,,,,,,,,,,,,,,,,,,,,,,,,,,,,,,,,,,,,,,,,,,,,,,,,,,,,,,,,,,,,,,,,,,,,,,,,,,,,,,,,,,,,,,,,,,,,,,,,,,,,,,,,,,,,,,,,,,,,,,,,,,,,,,,,,,,,,
,,6509fe5bcfaa6c451f85d5a3,2024-02-21_22h30.04.503,kallum_motion_pilot,2023.2.2,Win32,59.88023952,6509fe5bcfaa6c451f85d5a3,65d6bb0e977760de756971f7,65d6bfa6ab610f7bb580d626,0.0275,0.0275,0,12,12,52,1,threeone,,,,,,,,,,,,,,,,,,,,,,,,,,,,,,,,,,,,,,,,,,,,,,,,,,,,,,,,,,,,,,,,,,,,,,,,,,,,,,,,,,,,,,,,,,,,,,,,,,,,,,,,,,,,,,,,,,,,,,,,,,,,,,,,,,,,,,,,,
,,6509fe5bcfaa6c451f85d5a3,2024-02-21_22h30.04.503,kallum_motion_pilot,2023.2.2,Win32,59.88023952,6509fe5bcfaa6c451f85d5a3,65d6bb0e977760de756971f7,65d6bfa6ab610f7bb580d626,0.0275,0.0276,0,13,13,18,1,twoone,,,,,,,,,,,,,,,,,,,,,,,,,,,,,,,,,,,,,,,,,,,,,,,,,,,,,,,,,,,,,,,,,,,,,,,,,,,,,,,,,,,,,,,,,,,,,,,,,,,,,,,,,,,,,,,,,,,,,,,,,,,,,,,,,,,,,,,,,
,,6509fe5bcfaa6c451f85d5a3,2024-02-21_22h30.04.503,kallum_motion_pilot,2023.2.2,Win32,59.88023952,6509fe5bcfaa6c451f85d5a3,65d6bb0e977760de756971f7,65d6bfa6ab610f7bb580d626,0.0276,0.0276,0,14,14,118,1,eightsix,,,,,,,,,,,,,,,,,,,,,,,,,,,,,,,,,,,,,,,,,,,,,,,,,,,,,,,,,,,,,,,,,,,,,,,,,,,,,,,,,,,,,,,,,,,,,,,,,,,,,,,,,,,,,,,,,,,,,,,,,,,,,,,,,,,,,,,,,
,,6509fe5bcfaa6c451f85d5a3,2024-02-21_22h30.04.503,kallum_motion_pilot,2023.2.2,Win32,59.88023952,6509fe5bcfaa6c451f85d5a3,65d6bb0e977760de756971f7,65d6bfa6ab610f7bb580d626,0.0277,0.0277,0,15,15,123,1,sixeight,,,,,,,,,,,,,,,,,,,,,,,,,,,,,,,,,,,,,,,,,,,,,,,,,,,,,,,,,,,,,,,,,,,,,,,,,,,,,,,,,,,,,,,,,,,,,,,,,,,,,,,,,,,,,,,,,,,,,,,,,,,,,,,,,,,,,,,,,
,,6509fe5bcfaa6c451f85d5a3,2024-02-21_22h30.04.503,kallum_motion_pilot,2023.2.2,Win32,59.88023952,6509fe5bcfaa6c451f85d5a3,65d6bb0e977760de756971f7,65d6bfa6ab610f7bb580d626,0.0277,0.0277,0,16,16,129,1,fiveseven,,,,,,,,,,,,,,,,,,,,,,,,,,,,,,,,,,,,,,,,,,,,,,,,,,,,,,,,,,,,,,,,,,,,,,,,,,,,,,,,,,,,,,,,,,,,,,,,,,,,,,,,,,,,,,,,,,,,,,,,,,,,,,,,,,,,,,,,,
,,6509fe5bcfaa6c451f85d5a3,2024-02-21_22h30.04.503,kallum_motion_pilot,2023.2.2,Win32,59.88023952,6509fe5bcfaa6c451f85d5a3,65d6bb0e977760de756971f7,65d6bfa6ab610f7bb580d626,0.0277,0.0278,0,17,17,157,1,seveneight,,,,,,,,,,,,,,,,,,,,,,,,,,,,,,,,,,,,,,,,,,,,,,,,,,,,,,,,,,,,,,,,,,,,,,,,,,,,,,,,,,,,,,,,,,,,,,,,,,,,,,,,,,,,,,,,,,,,,,,,,,,,,,,,,,,,,,,,,
,,6509fe5bcfaa6c451f85d5a3,2024-02-21_22h30.04.503,kallum_motion_pilot,2023.2.2,Win32,59.88023952,6509fe5bcfaa6c451f85d5a3,65d6bb0e977760de756971f7,65d6bfa6ab610f7bb580d626,0.0278,0.0278,0,18,18,116,1,sevenfive,,,,,,,,,,,,,,,,,,,,,,,,,,,,,,,,,,,,,,,,,,,,,,,,,,,,,,,,,,,,,,,,,,,,,,,,,,,,,,,,,,,,,,,,,,,,,,,,,,,,,,,,,,,,,,,,,,,,,,,,,,,,,,,,,,,,,,,,,
,,6509fe5bcfaa6c451f85d5a3,2024-02-21_22h30.04.503,kallum_motion_pilot,2023.2.2,Win32,59.88023952,6509fe5bcfaa6c451f85d5a3,65d6bb0e977760de756971f7,65d6bfa6ab610f7bb580d626,0.0279,0.0279,0,19,19,114,1,sixfive,,,,,,,,,,,,,,,,,,,,,,,,,,,,,,,,,,,,,,,,,,,,,,,,,,,,,,,,,,,,,,,,,,,,,,,,,,,,,,,,,,,,,,,,,,,,,,,,,,,,,,,,,,,,,,,,,,,,,,,,,,,,,,,,,,,,,,,,,
,,6509fe5bcfaa6c451f85d5a3,2024-02-21_22h30.04.503,kallum_motion_pilot,2023.2.2,Win32,59.88023952,6509fe5bcfaa6c451f85d5a3,65d6bb0e977760de756971f7,65d6bfa6ab610f7bb580d626,0.0279,0.028,0,20,20,77,1,threefour,,,,,,,,,,,,,,,,,,,,,,,,,,,,,,,,,,,,,,,,,,,,,,,,,,,,,,,,,,,,,,,,,,,,,,,,,,,,,,,,,,,,,,,,,,,,,,,,,,,,,,,,,,,,,,,,,,,,,,,,,,,,,,,,,,,,,,,,,
,,6509fe5bcfaa6c451f85d5a3,2024-02-21_22h30.04.503,kallum_motion_pilot,2023.2.2,Win32,59.88023952,6509fe5bcfaa6c451f85d5a3,65d6bb0e977760de756971f7,65d6bfa6ab610f7bb580d626,0.028,0.028,0,21,21,149,1,seveneight,,,,,,,,,,,,,,,,,,,,,,,,,,,,,,,,,,,,,,,,,,,,,,,,,,,,,,,,,,,,,,,,,,,,,,,,,,,,,,,,,,,,,,,,,,,,,,,,,,,,,,,,,,,,,,,,,,,,,,,,,,,,,,,,,,,,,,,,,
,,6509fe5bcfaa6c451f85d5a3,2024-02-21_22h30.04.503,kallum_motion_pilot,2023.2.2,Win32,59.88023952,6509fe5bcfaa6c451f85d5a3,65d6bb0e977760de756971f7,65d6bfa6ab610f7bb580d626,0.0281,0.0282,0,22,22,6,1,fourtwo,,,,,,,,,,,,,,,,,,,,,,,,,,,,,,,,,,,,,,,,,,,,,,,,,,,,,,,,,,,,,,,,,,,,,,,,,,,,,,,,,,,,,,,,,,,,,,,,,,,,,,,,,,,,,,,,,,,,,,,,,,,,,,,,,,,,,,,,,
,,6509fe5bcfaa6c451f85d5a3,2024-02-21_22h30.04.503,kallum_motion_pilot,2023.2.2,Win32,59.88023952,6509fe5bcfaa6c451f85d5a3,65d6bb0e977760de756971f7,65d6bfa6ab610f7bb580d626,0.0282,0.0282,0,23,23,147,1,sixeight,,,,,,,,,,,,,,,,,,,,,,,,,,,,,,,,,,,,,,,,,,,,,,,,,,,,,,,,,,,,,,,,,,,,,,,,,,,,,,,,,,,,,,,,,,,,,,,,,,,,,,,,,,,,,,,,,,,,,,,,,,,,,,,,,,,,,,,,,
,,6509fe5bcfaa6c451f85d5a3,2024-02-21_22h30.04.503,kallum_motion_pilot,2023.2.2,Win32,59.88023952,6509fe5bcfaa6c451f85d5a3,65d6bb0e977760de756971f7,65d6bfa6ab610f7bb580d626,0.0283,0.0283,0,24,24,143,1,eightseven,,,,,,,,,,,,,,,,,,,,,,,,,,,,,,,,,,,,,,,,,,,,,,,,,,,,,,,,,,,,,,,,,,,,,,,,,,,,,,,,,,,,,,,,,,,,,,,,,,,,,,,,,,,,,,,,,,,,,,,,,,,,,,,,,,,,,,,,,
,,6509fe5bcfaa6c451f85d5a3,2024-02-21_22h30.04.503,kallum_motion_pilot,2023.2.2,Win32,59.88023952,6509fe5bcfaa6c451f85d5a3,65d6bb0e977760de756971f7,65d6bfa6ab610f7bb580d626,0.0283,0.0283,0,25,25,47,1,fourthree,,,,,,,,,,,,,,,,,,,,,,,,,,,,,,,,,,,,,,,,,,,,,,,,,,,,,,,,,,,,,,,,,,,,,,,,,,,,,,,,,,,,,,,,,,,,,,,,,,,,,,,,,,,,,,,,,,,,,,,,,,,,,,,,,,,,,,,,,
,,6509fe5bcfaa6c451f85d5a3,2024-02-21_22h30.04.503,kallum_motion_pilot,2023.2.2,Win32,59.88023952,6509fe5bcfaa6c451f85d5a3,65d6bb0e977760de756971f7,65d6bfa6ab610f7bb580d626,0.0284,0.0284,0,26,26,13,1,threefour,,,,,,,,,,,,,,,,,,,,,,,,,,,,,,,,,,,,,,,,,,,,,,,,,,,,,,,,,,,,,,,,,,,,,,,,,,,,,,,,,,,,,,,,,,,,,,,,,,,,,,,,,,,,,,,,,,,,,,,,,,,,,,,,,,,,,,,,,
,,6509fe5bcfaa6c451f85d5a3,2024-02-21_22h30.04.503,kallum_motion_pilot,2023.2.2,Win32,59.88023952,6509fe5bcfaa6c451f85d5a3,65d6bb0e977760de756971f7,65d6bfa6ab610f7bb580d626,0.0285,0.0285,0,27,27,90,1,sixfive,,,,,,,,,,,,,,,,,,,,,,,,,,,,,,,,,,,,,,,,,,,,,,,,,,,,,,,,,,,,,,,,,,,,,,,,,,,,,,,,,,,,,,,,,,,,,,,,,,,,,,,,,,,,,,,,,,,,,,,,,,,,,,,,,,,,,,,,,
,,6509fe5bcfaa6c451f85d5a3,2024-02-21_22h30.04.503,kallum_motion_pilot,2023.2.2,Win32,59.88023952,6509fe5bcfaa6c451f85d5a3,65d6bb0e977760de756971f7,65d6bfa6ab610f7bb580d626,0.0285,0.0285,0,28,28,50,1,twoone,,,,,,,,,,,,,,,,,,,,,,,,,,,,,,,,,,,,,,,,,,,,,,,,,,,,,,,,,,,,,,,,,,,,,,,,,,,,,,,,,,,,,,,,,,,,,,,,,,,,,,,,,,,,,,,,,,,,,,,,,,,,,,,,,,,,,,,,,
,,6509fe5bcfaa6c451f85d5a3,2024-02-21_22h30.04.503,kallum_motion_pilot,2023.2.2,Win32,59.88023952,6509fe5bcfaa6c451f85d5a3,65d6bb0e977760de756971f7,65d6bfa6ab610f7bb580d626,0.0286,0.0286,0,29,29,102,1,eightsix,,,,,,,,,,,,,,,,,,,,,,,,,,,,,,,,,,,,,,,,,,,,,,,,,,,,,,,,,,,,,,,,,,,,,,,,,,,,,,,,,,,,,,,,,,,,,,,,,,,,,,,,,,,,,,,,,,,,,,,,,,,,,,,,,,,,,,,,,
,,6509fe5bcfaa6c451f85d5a3,2024-02-21_22h30.04.503,kallum_motion_pilot,2023.2.2,Win32,59.88023952,6509fe5bcfaa6c451f85d5a3,65d6bb0e977760de756971f7,65d6bfa6ab610f7bb580d626,0.0287,0.0287,0,30,30,28,1,threeone,,,,,,,,,,,,,,,,,,,,,,,,,,,,,,,,,,,,,,,,,,,,,,,,,,,,,,,,,,,,,,,,,,,,,,,,,,,,,,,,,,,,,,,,,,,,,,,,,,,,,,,,,,,,,,,,,,,,,,,,,,,,,,,,,,,,,,,,,
,,6509fe5bcfaa6c451f85d5a3,2024-02-21_22h30.04.503,kallum_motion_pilot,2023.2.2,Win32,59.88023952,6509fe5bcfaa6c451f85d5a3,65d6bb0e977760de756971f7,65d6bfa6ab610f7bb580d626,0.0287,0.0287,0,31,31,41,1,onethree,,,,,,,,,,,,,,,,,,,,,,,,,,,,,,,,,,,,,,,,,,,,,,,,,,,,,,,,,,,,,,,,,,,,,,,,,,,,,,,,,,,,,,,,,,,,,,,,,,,,,,,,,,,,,,,,,,,,,,,,,,,,,,,,,,,,,,,,,
,,6509fe5bcfaa6c451f85d5a3,2024-02-21_22h30.04.503,kallum_motion_pilot,2023.2.2,Win32,59.88023952,6509fe5bcfaa6c451f85d5a3,65d6bb0e977760de756971f7,65d6bfa6ab610f7bb580d626,0.0289,0.0289,0,32,32,104,1,fivesix,,,,,,,,,,,,,,,,,,,,,,,,,,,,,,,,,,,,,,,,,,,,,,,,,,,,,,,,,,,,,,,,,,,,,,,,,,,,,,,,,,,,,,,,,,,,,,,,,,,,,,,,,,,,,,,,,,,,,,,,,,,,,,,,,,,,,,,,,
,,6509fe5bcfaa6c451f85d5a3,2024-02-21_22h30.04.503,kallum_motion_pilot,2023.2.2,Win32,59.88023952,6509fe5bcfaa6c451f85d5a3,65d6bb0e977760de756971f7,65d6bfa6ab610f7bb580d626,0.0289,0.0289,0,33,33,135,1,eightseven,,,,,,,,,,,,,,,,,,,,,,,,,,,,,,,,,,,,,,,,,,,,,,,,,,,,,,,,,,,,,,,,,,,,,,,,,,,,,,,,,,,,,,,,,,,,,,,,,,,,,,,,,,,,,,,,,,,,,,,,,,,,,,,,,,,,,,,,,
,,6509fe5bcfaa6c451f85d5a3,2024-02-21_22h30.04.503,kallum_motion_pilot,2023.2.2,Win32,59.88023952,6509fe5bcfaa6c451f85d5a3,65d6bb0e977760de756971f7,65d6bfa6ab610f7bb580d626,0.0289,0.0289,0,34,34,128,1,fivesix,,,,,,,,,,,,,,,,,,,,,,,,,,,,,,,,,,,,,,,,,,,,,,,,,,,,,,,,,,,,,,,,,,,,,,,,,,,,,,,,,,,,,,,,,,,,,,,,,,,,,,,,,,,,,,,,,,,,,,,,,,,,,,,,,,,,,,,,,
,,6509fe5bcfaa6c451f85d5a3,2024-02-21_22h30.04.503,kallum_motion_pilot,2023.2.2,Win32,59.88023952,6509fe5bcfaa6c451f85d5a3,65d6bb0e977760de756971f7,65d6bfa6ab610f7bb580d626,0.0291,0.0291,0,35,35,141,1,seveneight,,,,,,,,,,,,,,,,,,,,,,,,,,,,,,,,,,,,,,,,,,,,,,,,,,,,,,,,,,,,,,,,,,,,,,,,,,,,,,,,,,,,,,,,,,,,,,,,,,,,,,,,,,,,,,,,,,,,,,,,,,,,,,,,,,,,,,,,,
,,6509fe5bcfaa6c451f85d5a3,2024-02-21_22h30.04.503,kallum_motion_pilot,2023.2.2,Win32,59.88023952,6509fe5bcfaa6c451f85d5a3,65d6bb0e977760de756971f7,65d6bfa6ab610f7bb580d626,0.0291,0.0291,0,36,36,113,1,fiveseven,,,,,,,,,,,,,,,,,,,,,,,,,,,,,,,,,,,,,,,,,,,,,,,,,,,,,,,,,,,,,,,,,,,,,,,,,,,,,,,,,,,,,,,,,,,,,,,,,,,,,,,,,,,,,,,,,,,,,,,,,,,,,,,,,,,,,,,,,
,,6509fe5bcfaa6c451f85d5a3,2024-02-21_22h30.04.503,kallum_motion_pilot,2023.2.2,Win32,59.88023952,6509fe5bcfaa6c451f85d5a3,65d6bb0e977760de756971f7,65d6bfa6ab610f7bb580d626,0.0291,0.0292,0,37,37,158,1,eightsix,,,,,,,,,,,,,,,,,,,,,,,,,,,,,,,,,,,,,,,,,,,,,,,,,,,,,,,,,,,,,,,,,,,,,,,,,,,,,,,,,,,,,,,,,,,,,,,,,,,,,,,,,,,,,,,,,,,,,,,,,,,,,,,,,,,,,,,,,
,,6509fe5bcfaa6c451f85d5a3,2024-02-21_22h30.04.503,kallum_motion_pilot,2023.2.2,Win32,59.88023952,6509fe5bcfaa6c451f85d5a3,65d6bb0e977760de756971f7,65d6bfa6ab610f7bb580d626,0.0298,0.0298,0,38,38,82,1,sixfive,,,,,,,,,,,,,,,,,,,,,,,,,,,,,,,,,,,,,,,,,,,,,,,,,,,,,,,,,,,,,,,,,,,,,,,,,,,,,,,,,,,,,,,,,,,,,,,,,,,,,,,,,,,,,,,,,,,,,,,,,,,,,,,,,,,,,,,,,
,,6509fe5bcfaa6c451f85d5a3,2024-02-21_22h30.04.503,kallum_motion_pilot,2023.2.2,Win32,59.88023952,6509fe5bcfaa6c451f85d5a3,65d6bb0e977760de756971f7,65d6bfa6ab610f7bb580d626,0.0299,0.0299,0,39,39,98,1,sixfive,,,,,,,,,,,,,,,,,,,,,,,,,,,,,,,,,,,,,,,,,,,,,,,,,,,,,,,,,,,,,,,,,,,,,,,,,,,,,,,,,,,,,,,,,,,,,,,,,,,,,,,,,,,,,,,,,,,,,,,,,,,,,,,,,,,,,,,,,
,,6509fe5bcfaa6c451f85d5a3,2024-02-21_22h30.04.503,kallum_motion_pilot,2023.2.2,Win32,59.88023952,6509fe5bcfaa6c451f85d5a3,65d6bb0e977760de756971f7,65d6bfa6ab610f7bb580d626,0.03,0.03,0,40,40,130,1,sixfive,,,,,,,,,,,,,,,,,,,,,,,,,,,,,,,,,,,,,,,,,,,,,,,,,,,,,,,,,,,,,,,,,,,,,,,,,,,,,,,,,,,,,,,,,,,,,,,,,,,,,,,,,,,,,,,,,,,,,,,,,,,,,,,,,,,,,,,,,
,,6509fe5bcfaa6c451f85d5a3,2024-02-21_22h30.04.503,kallum_motion_pilot,2023.2.2,Win32,59.88023952,6509fe5bcfaa6c451f85d5a3,65d6bb0e977760de756971f7,65d6bfa6ab610f7bb580d626,0.0301,0.0301,0,41,41,65,1,onethree,,,,,,,,,,,,,,,,,,,,,,,,,,,,,,,,,,,,,,,,,,,,,,,,,,,,,,,,,,,,,,,,,,,,,,,,,,,,,,,,,,,,,,,,,,,,,,,,,,,,,,,,,,,,,,,,,,,,,,,,,,,,,,,,,,,,,,,,,
,,6509fe5bcfaa6c451f85d5a3,2024-02-21_22h30.04.503,kallum_motion_pilot,2023.2.2,Win32,59.88023952,6509fe5bcfaa6c451f85d5a3,65d6bb0e977760de756971f7,65d6bfa6ab610f7bb580d626,0.0301,0.0302,0,42,42,142,1,eightsix,,,,,,,,,,,,,,,,,,,,,,,,,,,,,,,,,,,,,,,,,,,,,,,,,,,,,,,,,,,,,,,,,,,,,,,,,,,,,,,,,,,,,,,,,,,,,,,,,,,,,,,,,,,,,,,,,,,,,,,,,,,,,,,,,,,,,,,,,
,,6509fe5bcfaa6c451f85d5a3,2024-02-21_22h30.04.503,kallum_motion_pilot,2023.2.2,Win32,59.88023952,6509fe5bcfaa6c451f85d5a3,65d6bb0e977760de756971f7,65d6bfa6ab610f7bb580d626,0.0302,0.0303,0,43,43,84,1,sevenfive,,,,,,,,,,,,,,,,,,,,,,,,,,,,,,,,,,,,,,,,,,,,,,,,,,,,,,,,,,,,,,,,,,,,,,,,,,,,,,,,,,,,,,,,,,,,,,,,,,,,,,,,,,,,,,,,,,,,,,,,,,,,,,,,,,,,,,,,,
,,6509fe5bcfaa6c451f85d5a3,2024-02-21_22h30.04.503,kallum_motion_pilot,2023.2.2,Win32,59.88023952,6509fe5bcfaa6c451f85d5a3,65d6bb0e977760de756971f7,65d6bfa6ab610f7bb580d626,0.0304,0.0304,0,44,44,63,1,fourthree,,,,,,,,,,,,,,,,,,,,,,,,,,,,,,,,,,,,,,,,,,,,,,,,,,,,,,,,,,,,,,,,,,,,,,,,,,,,,,,,,,,,,,,,,,,,,,,,,,,,,,,,,,,,,,,,,,,,,,,,,,,,,,,,,,,,,,,,,
,,6509fe5bcfaa6c451f85d5a3,2024-02-21_22h30.04.503,kallum_motion_pilot,2023.2.2,Win32,59.88023952,6509fe5bcfaa6c451f85d5a3,65d6bb0e977760de756971f7,65d6bfa6ab610f7bb580d626,0.0304,0.0304,0,45,45,75,1,twofour,,,,,,,,,,,,,,,,,,,,,,,,,,,,,,,,,,,,,,,,,,,,,,,,,,,,,,,,,,,,,,,,,,,,,,,,,,,,,,,,,,,,,,,,,,,,,,,,,,,,,,,,,,,,,,,,,,,,,,,,,,,,,,,,,,,,,,,,,
,,6509fe5bcfaa6c451f85d5a3,2024-02-21_22h30.04.503,kallum_motion_pilot,2023.2.2,Win32,59.88023952,6509fe5bcfaa6c451f85d5a3,65d6bb0e977760de756971f7,65d6bfa6ab610f7bb580d626,0.0305,0.0305,0,46,46,53,1,threefour,,,,,,,,,,,,,,,,,,,,,,,,,,,,,,,,,,,,,,,,,,,,,,,,,,,,,,,,,,,,,,,,,,,,,,,,,,,,,,,,,,,,,,,,,,,,,,,,,,,,,,,,,,,,,,,,,,,,,,,,,,,,,,,,,,,,,,,,,
,,6509fe5bcfaa6c451f85d5a3,2024-02-21_22h30.04.503,kallum_motion_pilot,2023.2.2,Win32,59.88023952,6509fe5bcfaa6c451f85d5a3,65d6bb0e977760de756971f7,65d6bfa6ab610f7bb580d626,0.0305,0.0306,0,47,47,103,1,eightseven,,,,,,,,,,,,,,,,,,,,,,,,,,,,,,,,,,,,,,,,,,,,,,,,,,,,,,,,,,,,,,,,,,,,,,,,,,,,,,,,,,,,,,,,,,,,,,,,,,,,,,,,,,,,,,,,,,,,,,,,,,,,,,,,,,,,,,,,,
,,6509fe5bcfaa6c451f85d5a3,2024-02-21_22h30.04.503,kallum_motion_pilot,2023.2.2,Win32,59.88023952,6509fe5bcfaa6c451f85d5a3,65d6bb0e977760de756971f7,65d6bfa6ab610f7bb580d626,0.0307,0.0307,0,48,48,25,1,onethree,,,,,,,,,,,,,,,,,,,,,,,,,,,,,,,,,,,,,,,,,,,,,,,,,,,,,,,,,,,,,,,,,,,,,,,,,,,,,,,,,,,,,,,,,,,,,,,,,,,,,,,,,,,,,,,,,,,,,,,,,,,,,,,,,,,,,,,,,
,,6509fe5bcfaa6c451f85d5a3,2024-02-21_22h30.04.503,kallum_motion_pilot,2023.2.2,Win32,59.88023952,6509fe5bcfaa6c451f85d5a3,65d6bb0e977760de756971f7,65d6bfa6ab610f7bb580d626,0.0307,0.0307,0,49,49,86,1,eightsix,,,,,,,,,,,,,,,,,,,,,,,,,,,,,,,,,,,,,,,,,,,,,,,,,,,,,,,,,,,,,,,,,,,,,,,,,,,,,,,,,,,,,,,,,,,,,,,,,,,,,,,,,,,,,,,,,,,,,,,,,,,,,,,,,,,,,,,,,
,,6509fe5bcfaa6c451f85d5a3,2024-02-21_22h30.04.503,kallum_motion_pilot,2023.2.2,Win32,59.88023952,6509fe5bcfaa6c451f85d5a3,65d6bb0e977760de756971f7,65d6bfa6ab610f7bb580d626,0.0307,0.0308,0,50,50,117,1,seveneight,,,,,,,,,,,,,,,,,,,,,,,,,,,,,,,,,,,,,,,,,,,,,,,,,,,,,,,,,,,,,,,,,,,,,,,,,,,,,,,,,,,,,,,,,,,,,,,,,,,,,,,,,,,,,,,,,,,,,,,,,,,,,,,,,,,,,,,,,
,,6509fe5bcfaa6c451f85d5a3,2024-02-21_22h30.04.503,kallum_motion_pilot,2023.2.2,Win32,59.88023952,6509fe5bcfaa6c451f85d5a3,65d6bb0e977760de756971f7,65d6bfa6ab610f7bb580d626,0.0308,0.0309,0,51,51,56,1,onetwo,,,,,,,,,,,,,,,,,,,,,,,,,,,,,,,,,,,,,,,,,,,,,,,,,,,,,,,,,,,,,,,,,,,,,,,,,,,,,,,,,,,,,,,,,,,,,,,,,,,,,,,,,,,,,,,,,,,,,,,,,,,,,,,,,,,,,,,,,
,,6509fe5bcfaa6c451f85d5a3,2024-02-21_22h30.04.503,kallum_motion_pilot,2023.2.2,Win32,59.88023952,6509fe5bcfaa6c451f85d5a3,65d6bb0e977760de756971f7,65d6bfa6ab610f7bb580d626,0.031,0.031,0,52,52,83,1,sixeight,,,,,,,,,,,,,,,,,,,,,,,,,,,,,,,,,,,,,,,,,,,,,,,,,,,,,,,,,,,,,,,,,,,,,,,,,,,,,,,,,,,,,,,,,,,,,,,,,,,,,,,,,,,,,,,,,,,,,,,,,,,,,,,,,,,,,,,,,
,,6509fe5bcfaa6c451f85d5a3,2024-02-21_22h30.04.503,kallum_motion_pilot,2023.2.2,Win32,59.88023952,6509fe5bcfaa6c451f85d5a3,65d6bb0e977760de756971f7,65d6bfa6ab610f7bb580d626,0.031,0.031,0,53,53,11,1,twofour,,,,,,,,,,,,,,,,,,,,,,,,,,,,,,,,,,,,,,,,,,,,,,,,,,,,,,,,,,,,,,,,,,,,,,,,,,,,,,,,,,,,,,,,,,,,,,,,,,,,,,,,,,,,,,,,,,,,,,,,,,,,,,,,,,,,,,,,,
,,6509fe5bcfaa6c451f85d5a3,2024-02-21_22h30.04.503,kallum_motion_pilot,2023.2.2,Win32,59.88023952,6509fe5bcfaa6c451f85d5a3,65d6bb0e977760de756971f7,65d6bfa6ab610f7bb580d626,0.0311,0.0312,0,54,54,125,1,seveneight,,,,,,,,,,,,,,,,,,,,,,,,,,,,,,,,,,,,,,,,,,,,,,,,,,,,,,,,,,,,,,,,,,,,,,,,,,,,,,,,,,,,,,,,,,,,,,,,,,,,,,,,,,,,,,,,,,,,,,,,,,,,,,,,,,,,,,,,,
,,6509fe5bcfaa6c451f85d5a3,2024-02-21_22h30.04.503,kallum_motion_pilot,2023.2.2,Win32,59.88023952,6509fe5bcfaa6c451f85d5a3,65d6bb0e977760de756971f7,65d6bfa6ab610f7bb580d626,0.0312,0.0312,0,55,55,153,1,fiveseven,,,,,,,,,,,,,,,,,,,,,,,,,,,,,,,,,,,,,,,,,,,,,,,,,,,,,,,,,,,,,,,,,,,,,,,,,,,,,,,,,,,,,,,,,,,,,,,,,,,,,,,,,,,,,,,,,,,,,,,,,,,,,,,,,,,,,,,,,
,,6509fe5bcfaa6c451f85d5a3,2024-02-21_22h30.04.503,kallum_motion_pilot,2023.2.2,Win32,59.88023952,6509fe5bcfaa6c451f85d5a3,65d6bb0e977760de756971f7,65d6bfa6ab610f7bb580d626,0.0313,0.0313,0,56,56,20,1,threeone,,,,,,,,,,,,,,,,,,,,,,,,,,,,,,,,,,,,,,,,,,,,,,,,,,,,,,,,,,,,,,,,,,,,,,,,,,,,,,,,,,,,,,,,,,,,,,,,,,,,,,,,,,,,,,,,,,,,,,,,,,,,,,,,,,,,,,,,,
,,6509fe5bcfaa6c451f85d5a3,2024-02-21_22h30.04.503,kallum_motion_pilot,2023.2.2,Win32,59.88023952,6509fe5bcfaa6c451f85d5a3,65d6bb0e977760de756971f7,65d6bfa6ab610f7bb580d626,0.0313,0.0314,0,57,57,30,1,fourtwo,,,,,,,,,,,,,,,,,,,,,,,,,,,,,,,,,,,,,,,,,,,,,,,,,,,,,,,,,,,,,,,,,,,,,,,,,,,,,,,,,,,,,,,,,,,,,,,,,,,,,,,,,,,,,,,,,,,,,,,,,,,,,,,,,,,,,,,,,
,,6509fe5bcfaa6c451f85d5a3,2024-02-21_22h30.04.503,kallum_motion_pilot,2023.2.2,Win32,59.88023952,6509fe5bcfaa6c451f85d5a3,65d6bb0e977760de756971f7,65d6bfa6ab610f7bb580d626,0.0314,0.0314,0,58,58,144,1,fivesix,,,,,,,,,,,,,,,,,,,,,,,,,,,,,,,,,,,,,,,,,,,,,,,,,,,,,,,,,,,,,,,,,,,,,,,,,,,,,,,,,,,,,,,,,,,,,,,,,,,,,,,,,,,,,,,,,,,,,,,,,,,,,,,,,,,,,,,,,
,,6509fe5bcfaa6c451f85d5a3,2024-02-21_22h30.04.503,kallum_motion_pilot,2023.2.2,Win32,59.88023952,6509fe5bcfaa6c451f85d5a3,65d6bb0e977760de756971f7,65d6bfa6ab610f7bb580d626,0.0315,0.0315,0,59,59,32,1,onetwo,,,,,,,,,,,,,,,,,,,,,,,,,,,,,,,,,,,,,,,,,,,,,,,,,,,,,,,,,,,,,,,,,,,,,,,,,,,,,,,,,,,,,,,,,,,,,,,,,,,,,,,,,,,,,,,,,,,,,,,,,,,,,,,,,,,,,,,,,
,,6509fe5bcfaa6c451f85d5a3,2024-02-21_22h30.04.503,kallum_motion_pilot,2023.2.2,Win32,59.88023952,6509fe5bcfaa6c451f85d5a3,65d6bb0e977760de756971f7,65d6bfa6ab610f7bb580d626,0.0316,0.0316,0,60,60,22,1,fourtwo,,,,,,,,,,,,,,,,,,,,,,,,,,,,,,,,,,,,,,,,,,,,,,,,,,,,,,,,,,,,,,,,,,,,,,,,,,,,,,,,,,,,,,,,,,,,,,,,,,,,,,,,,,,,,,,,,,,,,,,,,,,,,,,,,,,,,,,,,
,,6509fe5bcfaa6c451f85d5a3,2024-02-21_22h30.04.503,kallum_motion_pilot,2023.2.2,Win32,59.88023952,6509fe5bcfaa6c451f85d5a3,65d6bb0e977760de756971f7,65d6bfa6ab610f7bb580d626,0.0316,0.0316,0,61,61,9,1,onethree,,,,,,,,,,,,,,,,,,,,,,,,,,,,,,,,,,,,,,,,,,,,,,,,,,,,,,,,,,,,,,,,,,,,,,,,,,,,,,,,,,,,,,,,,,,,,,,,,,,,,,,,,,,,,,,,,,,,,,,,,,,,,,,,,,,,,,,,,
,,6509fe5bcfaa6c451f85d5a3,2024-02-21_22h30.04.503,kallum_motion_pilot,2023.2.2,Win32,59.88023952,6509fe5bcfaa6c451f85d5a3,65d6bb0e977760de756971f7,65d6bfa6ab610f7bb580d626,0.0317,0.0317,0,62,62,105,1,fiveseven,,,,,,,,,,,,,,,,,,,,,,,,,,,,,,,,,,,,,,,,,,,,,,,,,,,,,,,,,,,,,,,,,,,,,,,,,,,,,,,,,,,,,,,,,,,,,,,,,,,,,,,,,,,,,,,,,,,,,,,,,,,,,,,,,,,,,,,,,
,,6509fe5bcfaa6c451f85d5a3,2024-02-21_22h30.04.503,kallum_motion_pilot,2023.2.2,Win32,59.88023952,6509fe5bcfaa6c451f85d5a3,65d6bb0e977760de756971f7,65d6bfa6ab610f7bb580d626,0.0318,0.0319,0,63,63,55,1,fourthree,,,,,,,,,,,,,,,,,,,,,,,,,,,,,,,,,,,,,,,,,,,,,,,,,,,,,,,,,,,,,,,,,,,,,,,,,,,,,,,,,,,,,,,,,,,,,,,,,,,,,,,,,,,,,,,,,,,,,,,,,,,,,,,,,,,,,,,,,
,,6509fe5bcfaa6c451f85d5a3,2024-02-21_22h30.04.503,kallum_motion_pilot,2023.2.2,Win32,59.88023952,6509fe5bcfaa6c451f85d5a3,65d6bb0e977760de756971f7,65d6bfa6ab610f7bb580d626,0.0319,0.0319,0,64,64,127,1,eightseven,,,,,,,,,,,,,,,,,,,,,,,,,,,,,,,,,,,,,,,,,,,,,,,,,,,,,,,,,,,,,,,,,,,,,,,,,,,,,,,,,,,,,,,,,,,,,,,,,,,,,,,,,,,,,,,,,,,,,,,,,,,,,,,,,,,,,,,,,
,,6509fe5bcfaa6c451f85d5a3,2024-02-21_22h30.04.503,kallum_motion_pilot,2023.2.2,Win32,59.88023952,6509fe5bcfaa6c451f85d5a3,65d6bb0e977760de756971f7,65d6bfa6ab610f7bb580d626,0.032,0.0321,0,65,65,95,1,eightseven,,,,,,,,,,,,,,,,,,,,,,,,,,,,,,,,,,,,,,,,,,,,,,,,,,,,,,,,,,,,,,,,,,,,,,,,,,,,,,,,,,,,,,,,,,,,,,,,,,,,,,,,,,,,,,,,,,,,,,,,,,,,,,,,,,,,,,,,,
,,6509fe5bcfaa6c451f85d5a3,2024-02-21_22h30.04.503,kallum_motion_pilot,2023.2.2,Win32,59.88023952,6509fe5bcfaa6c451f85d5a3,65d6bb0e977760de756971f7,65d6bfa6ab610f7bb580d626,0.0321,0.0322,0,66,66,152,1,fivesix,,,,,,,,,,,,,,,,,,,,,,,,,,,,,,,,,,,,,,,,,,,,,,,,,,,,,,,,,,,,,,,,,,,,,,,,,,,,,,,,,,,,,,,,,,,,,,,,,,,,,,,,,,,,,,,,,,,,,,,,,,,,,,,,,,,,,,,,,
,,6509fe5bcfaa6c451f85d5a3,2024-02-21_22h30.04.503,kallum_motion_pilot,2023.2.2,Win32,59.88023952,6509fe5bcfaa6c451f85d5a3,65d6bb0e977760de756971f7,65d6bfa6ab610f7bb580d626,0.0322,0.0322,0,67,67,64,1,onetwo,,,,,,,,,,,,,,,,,,,,,,,,,,,,,,,,,,,,,,,,,,,,,,,,,,,,,,,,,,,,,,,,,,,,,,,,,,,,,,,,,,,,,,,,,,,,,,,,,,,,,,,,,,,,,,,,,,,,,,,,,,,,,,,,,,,,,,,,,
,,6509fe5bcfaa6c451f85d5a3,2024-02-21_22h30.04.503,kallum_motion_pilot,2023.2.2,Win32,59.88023952,6509fe5bcfaa6c451f85d5a3,65d6bb0e977760de756971f7,65d6bfa6ab610f7bb580d626,0.0322,0.0323,0,68,68,26,1,twoone,,,,,,,,,,,,,,,,,,,,,,,,,,,,,,,,,,,,,,,,,,,,,,,,,,,,,,,,,,,,,,,,,,,,,,,,,,,,,,,,,,,,,,,,,,,,,,,,,,,,,,,,,,,,,,,,,,,,,,,,,,,,,,,,,,,,,,,,,
,,6509fe5bcfaa6c451f85d5a3,2024-02-21_22h30.04.503,kallum_motion_pilot,2023.2.2,Win32,59.88023952,6509fe5bcfaa6c451f85d5a3,65d6bb0e977760de756971f7,65d6bfa6ab610f7bb580d626,0.0324,0.0324,0,69,69,85,1,seveneight,,,,,,,,,,,,,,,,,,,,,,,,,,,,,,,,,,,,,,,,,,,,,,,,,,,,,,,,,,,,,,,,,,,,,,,,,,,,,,,,,,,,,,,,,,,,,,,,,,,,,,,,,,,,,,,,,,,,,,,,,,,,,,,,,,,,,,,,,
,,6509fe5bcfaa6c451f85d5a3,2024-02-21_22h30.04.503,kallum_motion_pilot,2023.2.2,Win32,59.88023952,6509fe5bcfaa6c451f85d5a3,65d6bb0e977760de756971f7,65d6bfa6ab610f7bb580d626,0.0324,0.0324,0,70,70,97,1,fiveseven,,,,,,,,,,,,,,,,,,,,,,,,,,,,,,,,,,,,,,,,,,,,,,,,,,,,,,,,,,,,,,,,,,,,,,,,,,,,,,,,,,,,,,,,,,,,,,,,,,,,,,,,,,,,,,,,,,,,,,,,,,,,,,,,,,,,,,,,,
,,6509fe5bcfaa6c451f85d5a3,2024-02-21_22h30.04.503,kallum_motion_pilot,2023.2.2,Win32,59.88023952,6509fe5bcfaa6c451f85d5a3,65d6bb0e977760de756971f7,65d6bfa6ab610f7bb580d626,0.0325,0.0326,0,71,71,74,1,twoone,,,,,,,,,,,,,,,,,,,,,,,,,,,,,,,,,,,,,,,,,,,,,,,,,,,,,,,,,,,,,,,,,,,,,,,,,,,,,,,,,,,,,,,,,,,,,,,,,,,,,,,,,,,,,,,,,,,,,,,,,,,,,,,,,,,,,,,,,
,,6509fe5bcfaa6c451f85d5a3,2024-02-21_22h30.04.503,kallum_motion_pilot,2023.2.2,Win32,59.88023952,6509fe5bcfaa6c451f85d5a3,65d6bb0e977760de756971f7,65d6bfa6ab610f7bb580d626,0.0327,0.0327,0,72,72,93,1,seveneight,,,,,,,,,,,,,,,,,,,,,,,,,,,,,,,,,,,,,,,,,,,,,,,,,,,,,,,,,,,,,,,,,,,,,,,,,,,,,,,,,,,,,,,,,,,,,,,,,,,,,,,,,,,,,,,,,,,,,,,,,,,,,,,,,,,,,,,,,
,,6509fe5bcfaa6c451f85d5a3,2024-02-21_22h30.04.503,kallum_motion_pilot,2023.2.2,Win32,59.88023952,6509fe5bcfaa6c451f85d5a3,65d6bb0e977760de756971f7,65d6bfa6ab610f7bb580d626,0.0327,0.0327,0,73,73,81,1,fiveseven,,,,,,,,,,,,,,,,,,,,,,,,,,,,,,,,,,,,,,,,,,,,,,,,,,,,,,,,,,,,,,,,,,,,,,,,,,,,,,,,,,,,,,,,,,,,,,,,,,,,,,,,,,,,,,,,,,,,,,,,,,,,,,,,,,,,,,,,,
,,6509fe5bcfaa6c451f85d5a3,2024-02-21_22h30.04.503,kallum_motion_pilot,2023.2.2,Win32,59.88023952,6509fe5bcfaa6c451f85d5a3,65d6bb0e977760de756971f7,65d6bfa6ab610f7bb580d626,0.0328,0.0329,0,74,74,23,1,fourthree,,,,,,,,,,,,,,,,,,,,,,,,,,,,,,,,,,,,,,,,,,,,,,,,,,,,,,,,,,,,,,,,,,,,,,,,,,,,,,,,,,,,,,,,,,,,,,,,,,,,,,,,,,,,,,,,,,,,,,,,,,,,,,,,,,,,,,,,,
,,6509fe5bcfaa6c451f85d5a3,2024-02-21_22h30.04.503,kallum_motion_pilot,2023.2.2,Win32,59.88023952,6509fe5bcfaa6c451f85d5a3,65d6bb0e977760de756971f7,65d6bfa6ab610f7bb580d626,0.0329,0.0329,0,75,75,126,1,eightsix,,,,,,,,,,,,,,,,,,,,,,,,,,,,,,,,,,,,,,,,,,,,,,,,,,,,,,,,,,,,,,,,,,,,,,,,,,,,,,,,,,,,,,,,,,,,,,,,,,,,,,,,,,,,,,,,,,,,,,,,,,,,,,,,,,,,,,,,,
,,6509fe5bcfaa6c451f85d5a3,2024-02-21_22h30.04.503,kallum_motion_pilot,2023.2.2,Win32,59.88023952,6509fe5bcfaa6c451f85d5a3,65d6bb0e977760de756971f7,65d6bfa6ab610f7bb580d626,0.033,0.033,0,76,76,8,1,onetwo,,,,,,,,,,,,,,,,,,,,,,,,,,,,,,,,,,,,,,,,,,,,,,,,,,,,,,,,,,,,,,,,,,,,,,,,,,,,,,,,,,,,,,,,,,,,,,,,,,,,,,,,,,,,,,,,,,,,,,,,,,,,,,,,,,,,,,,,,
,,6509fe5bcfaa6c451f85d5a3,2024-02-21_22h30.04.503,kallum_motion_pilot,2023.2.2,Win32,59.88023952,6509fe5bcfaa6c451f85d5a3,65d6bb0e977760de756971f7,65d6bfa6ab610f7bb580d626,0.033,0.0331,0,77,77,27,1,twofour,,,,,,,,,,,,,,,,,,,,,,,,,,,,,,,,,,,,,,,,,,,,,,,,,,,,,,,,,,,,,,,,,,,,,,,,,,,,,,,,,,,,,,,,,,,,,,,,,,,,,,,,,,,,,,,,,,,,,,,,,,,,,,,,,,,,,,,,,
,,6509fe5bcfaa6c451f85d5a3,2024-02-21_22h30.04.503,kallum_motion_pilot,2023.2.2,Win32,59.88023952,6509fe5bcfaa6c451f85d5a3,65d6bb0e977760de756971f7,65d6bfa6ab610f7bb580d626,0.0331,0.0332,0,78,78,96,1,fivesix,,,,,,,,,,,,,,,,,,,,,,,,,,,,,,,,,,,,,,,,,,,,,,,,,,,,,,,,,,,,,,,,,,,,,,,,,,,,,,,,,,,,,,,,,,,,,,,,,,,,,,,,,,,,,,,,,,,,,,,,,,,,,,,,,,,,,,,,,
,,6509fe5bcfaa6c451f85d5a3,2024-02-21_22h30.04.503,kallum_motion_pilot,2023.2.2,Win32,59.88023952,6509fe5bcfaa6c451f85d5a3,65d6bb0e977760de756971f7,65d6bfa6ab610f7bb580d626,0.0332,0.0333,0,79,79,33,1,onethree,,,,,,,,,,,,,,,,,,,,,,,,,,,,,,,,,,,,,,,,,,,,,,,,,,,,,,,,,,,,,,,,,,,,,,,,,,,,,,,,,,,,,,,,,,,,,,,,,,,,,,,,,,,,,,,,,,,,,,,,,,,,,,,,,,,,,,,,,
,,6509fe5bcfaa6c451f85d5a3,2024-02-21_22h30.04.503,kallum_motion_pilot,2023.2.2,Win32,59.88023952,6509fe5bcfaa6c451f85d5a3,65d6bb0e977760de756971f7,65d6bfa6ab610f7bb580d626,0.0334,0.0334,0,80,80,34,1,twoone,,,,,,,,,,,,,,,,,,,,,,,,,,,,,,,,,,,,,,,,,,,,,,,,,,,,,,,,,,,,,,,,,,,,,,,,,,,,,,,,,,,,,,,,,,,,,,,,,,,,,,,,,,,,,,,,,,,,,,,,,,,,,,,,,,,,,,,,,
,,6509fe5bcfaa6c451f85d5a3,2024-02-21_22h30.04.503,kallum_motion_pilot,2023.2.2,Win32,59.88023952,6509fe5bcfaa6c451f85d5a3,65d6bb0e977760de756971f7,65d6bfa6ab610f7bb580d626,0.0334,0.0335,0,81,81,100,1,sevenfive,,,,,,,,,,,,,,,,,,,,,,,,,,,,,,,,,,,,,,,,,,,,,,,,,,,,,,,,,,,,,,,,,,,,,,,,,,,,,,,,,,,,,,,,,,,,,,,,,,,,,,,,,,,,,,,,,,,,,,,,,,,,,,,,,,,,,,,,,
,,6509fe5bcfaa6c451f85d5a3,2024-02-21_22h30.04.503,kallum_motion_pilot,2023.2.2,Win32,59.88023952,6509fe5bcfaa6c451f85d5a3,65d6bb0e977760de756971f7,65d6bfa6ab610f7bb580d626,0.0335,0.0335,0,82,82,109,1,seveneight,,,,,,,,,,,,,,,,,,,,,,,,,,,,,,,,,,,,,,,,,,,,,,,,,,,,,,,,,,,,,,,,,,,,,,,,,,,,,,,,,,,,,,,,,,,,,,,,,,,,,,,,,,,,,,,,,,,,,,,,,,,,,,,,,,,,,,,,,
,,6509fe5bcfaa6c451f85d5a3,2024-02-21_22h30.04.503,kallum_motion_pilot,2023.2.2,Win32,59.88023952,6509fe5bcfaa6c451f85d5a3,65d6bb0e977760de756971f7,65d6bfa6ab610f7bb580d626,0.0335,0.0336,0,83,83,57,1,onethree,,,,,,,,,,,,,,,,,,,,,,,,,,,,,,,,,,,,,,,,,,,,,,,,,,,,,,,,,,,,,,,,,,,,,,,,,,,,,,,,,,,,,,,,,,,,,,,,,,,,,,,,,,,,,,,,,,,,,,,,,,,,,,,,,,,,,,,,,
,,6509fe5bcfaa6c451f85d5a3,2024-02-21_22h30.04.503,kallum_motion_pilot,2023.2.2,Win32,59.88023952,6509fe5bcfaa6c451f85d5a3,65d6bb0e977760de756971f7,65d6bfa6ab610f7bb580d626,0.0336,0.0338,0,84,84,42,1,twoone,,,,,,,,,,,,,,,,,,,,,,,,,,,,,,,,,,,,,,,,,,,,,,,,,,,,,,,,,,,,,,,,,,,,,,,,,,,,,,,,,,,,,,,,,,,,,,,,,,,,,,,,,,,,,,,,,,,,,,,,,,,,,,,,,,,,,,,,,
,,6509fe5bcfaa6c451f85d5a3,2024-02-21_22h30.04.503,kallum_motion_pilot,2023.2.2,Win32,59.88023952,6509fe5bcfaa6c451f85d5a3,65d6bb0e977760de756971f7,65d6bfa6ab610f7bb580d626,0.0338,0.0338,0,85,85,73,1,onethree,,,,,,,,,,,,,,,,,,,,,,,,,,,,,,,,,,,,,,,,,,,,,,,,,,,,,,,,,,,,,,,,,,,,,,,,,,,,,,,,,,,,,,,,,,,,,,,,,,,,,,,,,,,,,,,,,,,,,,,,,,,,,,,,,,,,,,,,,
,,6509fe5bcfaa6c451f85d5a3,2024-02-21_22h30.04.503,kallum_motion_pilot,2023.2.2,Win32,59.88023952,6509fe5bcfaa6c451f85d5a3,65d6bb0e977760de756971f7,65d6bfa6ab610f7bb580d626,0.0339,0.0339,0,86,86,39,1,fourthree,,,,,,,,,,,,,,,,,,,,,,,,,,,,,,,,,,,,,,,,,,,,,,,,,,,,,,,,,,,,,,,,,,,,,,,,,,,,,,,,,,,,,,,,,,,,,,,,,,,,,,,,,,,,,,,,,,,,,,,,,,,,,,,,,,,,,,,,,
,,6509fe5bcfaa6c451f85d5a3,2024-02-21_22h30.04.503,kallum_motion_pilot,2023.2.2,Win32,59.88023952,6509fe5bcfaa6c451f85d5a3,65d6bb0e977760de756971f7,65d6bfa6ab610f7bb580d626,0.034,0.034,0,87,87,155,1,sixeight,,,,,,,,,,,,,,,,,,,,,,,,,,,,,,,,,,,,,,,,,,,,,,,,,,,,,,,,,,,,,,,,,,,,,,,,,,,,,,,,,,,,,,,,,,,,,,,,,,,,,,,,,,,,,,,,,,,,,,,,,,,,,,,,,,,,,,,,,
,,6509fe5bcfaa6c451f85d5a3,2024-02-21_22h30.04.503,kallum_motion_pilot,2023.2.2,Win32,59.88023952,6509fe5bcfaa6c451f85d5a3,65d6bb0e977760de756971f7,65d6bfa6ab610f7bb580d626,0.034,0.034,0,88,88,12,1,threeone,,,,,,,,,,,,,,,,,,,,,,,,,,,,,,,,,,,,,,,,,,,,,,,,,,,,,,,,,,,,,,,,,,,,,,,,,,,,,,,,,,,,,,,,,,,,,,,,,,,,,,,,,,,,,,,,,,,,,,,,,,,,,,,,,,,,,,,,,
,,6509fe5bcfaa6c451f85d5a3,2024-02-21_22h30.04.503,kallum_motion_pilot,2023.2.2,Win32,59.88023952,6509fe5bcfaa6c451f85d5a3,65d6bb0e977760de756971f7,65d6bfa6ab610f7bb580d626,0.0341,0.0342,0,89,89,16,1,onetwo,,,,,,,,,,,,,,,,,,,,,,,,,,,,,,,,,,,,,,,,,,,,,,,,,,,,,,,,,,,,,,,,,,,,,,,,,,,,,,,,,,,,,,,,,,,,,,,,,,,,,,,,,,,,,,,,,,,,,,,,,,,,,,,,,,,,,,,,,
,,6509fe5bcfaa6c451f85d5a3,2024-02-21_22h30.04.503,kallum_motion_pilot,2023.2.2,Win32,59.88023952,6509fe5bcfaa6c451f85d5a3,65d6bb0e977760de756971f7,65d6bfa6ab610f7bb580d626,0.0342,0.0343,0,90,90,140,1,sevenfive,,,,,,,,,,,,,,,,,,,,,,,,,,,,,,,,,,,,,,,,,,,,,,,,,,,,,,,,,,,,,,,,,,,,,,,,,,,,,,,,,,,,,,,,,,,,,,,,,,,,,,,,,,,,,,,,,,,,,,,,,,,,,,,,,,,,,,,,,
,,6509fe5bcfaa6c451f85d5a3,2024-02-21_22h30.04.503,kallum_motion_pilot,2023.2.2,Win32,59.88023952,6509fe5bcfaa6c451f85d5a3,65d6bb0e977760de756971f7,65d6bfa6ab610f7bb580d626,0.0343,0.0344,0,91,91,40,1,onetwo,,,,,,,,,,,,,,,,,,,,,,,,,,,,,,,,,,,,,,,,,,,,,,,,,,,,,,,,,,,,,,,,,,,,,,,,,,,,,,,,,,,,,,,,,,,,,,,,,,,,,,,,,,,,,,,,,,,,,,,,,,,,,,,,,,,,,,,,,
,,6509fe5bcfaa6c451f85d5a3,2024-02-21_22h30.04.503,kallum_motion_pilot,2023.2.2,Win32,59.88023952,6509fe5bcfaa6c451f85d5a3,65d6bb0e977760de756971f7,65d6bfa6ab610f7bb580d626,0.0344,0.0344,0,92,92,5,1,threefour,,,,,,,,,,,,,,,,,,,,,,,,,,,,,,,,,,,,,,,,,,,,,,,,,,,,,,,,,,,,,,,,,,,,,,,,,,,,,,,,,,,,,,,,,,,,,,,,,,,,,,,,,,,,,,,,,,,,,,,,,,,,,,,,,,,,,,,,,
,,6509fe5bcfaa6c451f85d5a3,2024-02-21_22h30.04.503,kallum_motion_pilot,2023.2.2,Win32,59.88023952,6509fe5bcfaa6c451f85d5a3,65d6bb0e977760de756971f7,65d6bfa6ab610f7bb580d626,0.0345,0.0345,0,93,93,137,1,fiveseven,,,,,,,,,,,,,,,,,,,,,,,,,,,,,,,,,,,,,,,,,,,,,,,,,,,,,,,,,,,,,,,,,,,,,,,,,,,,,,,,,,,,,,,,,,,,,,,,,,,,,,,,,,,,,,,,,,,,,,,,,,,,,,,,,,,,,,,,,
,,6509fe5bcfaa6c451f85d5a3,2024-02-21_22h30.04.503,kallum_motion_pilot,2023.2.2,Win32,59.88023952,6509fe5bcfaa6c451f85d5a3,65d6bb0e977760de756971f7,65d6bfa6ab610f7bb580d626,0.0346,0.0346,0,94,94,115,1,sixeight,,,,,,,,,,,,,,,,,,,,,,,,,,,,,,,,,,,,,,,,,,,,,,,,,,,,,,,,,,,,,,,,,,,,,,,,,,,,,,,,,,,,,,,,,,,,,,,,,,,,,,,,,,,,,,,,,,,,,,,,,,,,,,,,,,,,,,,,,
,,6509fe5bcfaa6c451f85d5a3,2024-02-21_22h30.04.503,kallum_motion_pilot,2023.2.2,Win32,59.88023952,6509fe5bcfaa6c451f85d5a3,65d6bb0e977760de756971f7,65d6bfa6ab610f7bb580d626,0.0346,0.0347,0,95,95,49,1,onethree,,,,,,,,,,,,,,,,,,,,,,,,,,,,,,,,,,,,,,,,,,,,,,,,,,,,,,,,,,,,,,,,,,,,,,,,,,,,,,,,,,,,,,,,,,,,,,,,,,,,,,,,,,,,,,,,,,,,,,,,,,,,,,,,,,,,,,,,,
,,6509fe5bcfaa6c451f85d5a3,2024-02-21_22h30.04.503,kallum_motion_pilot,2023.2.2,Win32,59.88023952,6509fe5bcfaa6c451f85d5a3,65d6bb0e977760de756971f7,65d6bfa6ab610f7bb580d626,0.0347,0.0347,0,96,96,60,1,threeone,,,,,,,,,,,,,,,,,,,,,,,,,,,,,,,,,,,,,,,,,,,,,,,,,,,,,,,,,,,,,,,,,,,,,,,,,,,,,,,,,,,,,,,,,,,,,,,,,,,,,,,,,,,,,,,,,,,,,,,,,,,,,,,,,,,,,,,,,
,,6509fe5bcfaa6c451f85d5a3,2024-02-21_22h30.04.503,kallum_motion_pilot,2023.2.2,Win32,59.88023952,6509fe5bcfaa6c451f85d5a3,65d6bb0e977760de756971f7,65d6bfa6ab610f7bb580d626,0.0348,0.0348,0,97,97,112,1,fivesix,,,,,,,,,,,,,,,,,,,,,,,,,,,,,,,,,,,,,,,,,,,,,,,,,,,,,,,,,,,,,,,,,,,,,,,,,,,,,,,,,,,,,,,,,,,,,,,,,,,,,,,,,,,,,,,,,,,,,,,,,,,,,,,,,,,,,,,,,
,,6509fe5bcfaa6c451f85d5a3,2024-02-21_22h30.04.503,kallum_motion_pilot,2023.2.2,Win32,59.88023952,6509fe5bcfaa6c451f85d5a3,65d6bb0e977760de756971f7,65d6bfa6ab610f7bb580d626,0.0349,0.0349,0,98,98,138,1,sixfive,,,,,,,,,,,,,,,,,,,,,,,,,,,,,,,,,,,,,,,,,,,,,,,,,,,,,,,,,,,,,,,,,,,,,,,,,,,,,,,,,,,,,,,,,,,,,,,,,,,,,,,,,,,,,,,,,,,,,,,,,,,,,,,,,,,,,,,,,
,,6509fe5bcfaa6c451f85d5a3,2024-02-21_22h30.04.503,kallum_motion_pilot,2023.2.2,Win32,59.88023952,6509fe5bcfaa6c451f85d5a3,65d6bb0e977760de756971f7,65d6bfa6ab610f7bb580d626,0.0349,0.035,0,99,99,146,1,sixfive,,,,,,,,,,,,,,,,,,,,,,,,,,,,,,,,,,,,,,,,,,,,,,,,,,,,,,,,,,,,,,,,,,,,,,,,,,,,,,,,,,,,,,,,,,,,,,,,,,,,,,,,,,,,,,,,,,,,,,,,,,,,,,,,,,,,,,,,,
,,6509fe5bcfaa6c451f85d5a3,2024-02-21_22h30.04.503,kallum_motion_pilot,2023.2.2,Win32,59.88023952,6509fe5bcfaa6c451f85d5a3,65d6bb0e977760de756971f7,65d6bfa6ab610f7bb580d626,0.0351,0.0351,0,100,100,87,1,eightseven,,,,,,,,,,,,,,,,,,,,,,,,,,,,,,,,,,,,,,,,,,,,,,,,,,,,,,,,,,,,,,,,,,,,,,,,,,,,,,,,,,,,,,,,,,,,,,,,,,,,,,,,,,,,,,,,,,,,,,,,,,,,,,,,,,,,,,,,,
,,6509fe5bcfaa6c451f85d5a3,2024-02-21_22h30.04.503,kallum_motion_pilot,2023.2.2,Win32,59.88023952,6509fe5bcfaa6c451f85d5a3,65d6bb0e977760de756971f7,65d6bfa6ab610f7bb580d626,0.0352,0.0352,0,101,101,68,1,threeone,,,,,,,,,,,,,,,,,,,,,,,,,,,,,,,,,,,,,,,,,,,,,,,,,,,,,,,,,,,,,,,,,,,,,,,,,,,,,,,,,,,,,,,,,,,,,,,,,,,,,,,,,,,,,,,,,,,,,,,,,,,,,,,,,,,,,,,,,
,,6509fe5bcfaa6c451f85d5a3,2024-02-21_22h30.04.503,kallum_motion_pilot,2023.2.2,Win32,59.88023952,6509fe5bcfaa6c451f85d5a3,65d6bb0e977760de756971f7,65d6bfa6ab610f7bb580d626,0.0352,0.0352,0,102,102,79,1,eightseven,,,,,,,,,,,,,,,,,,,,,,,,,,,,,,,,,,,,,,,,,,,,,,,,,,,,,,,,,,,,,,,,,,,,,,,,,,,,,,,,,,,,,,,,,,,,,,,,,,,,,,,,,,,,,,,,,,,,,,,,,,,,,,,,,,,,,,,,,
,,6509fe5bcfaa6c451f85d5a3,2024-02-21_22h30.04.503,kallum_motion_pilot,2023.2.2,Win32,59.88023952,6509fe5bcfaa6c451f85d5a3,65d6bb0e977760de756971f7,65d6bfa6ab610f7bb580d626,0.0354,0.0354,0,103,103,0,1,onetwo,,,,,,,,,,,,,,,,,,,,,,,,,,,,,,,,,,,,,,,,,,,,,,,,,,,,,,,,,,,,,,,,,,,,,,,,,,,,,,,,,,,,,,,,,,,,,,,,,,,,,,,,,,,,,,,,,,,,,,,,,,,,,,,,,,,,,,,,,
,,6509fe5bcfaa6c451f85d5a3,2024-02-21_22h30.04.503,kallum_motion_pilot,2023.2.2,Win32,59.88023952,6509fe5bcfaa6c451f85d5a3,65d6bb0e977760de756971f7,65d6bfa6ab610f7bb580d626,0.0354,0.0354,0,104,104,59,1,twofour,,,,,,,,,,,,,,,,,,,,,,,,,,,,,,,,,,,,,,,,,,,,,,,,,,,,,,,,,,,,,,,,,,,,,,,,,,,,,,,,,,,,,,,,,,,,,,,,,,,,,,,,,,,,,,,,,,,,,,,,,,,,,,,,,,,,,,,,,
,,6509fe5bcfaa6c451f85d5a3,2024-02-21_22h30.04.503,kallum_motion_pilot,2023.2.2,Win32,59.88023952,6509fe5bcfaa6c451f85d5a3,65d6bb0e977760de756971f7,65d6bfa6ab610f7bb580d626,0.0355,0.0356,0,105,105,45,1,threefour,,,,,,,,,,,,,,,,,,,,,,,,,,,,,,,,,,,,,,,,,,,,,,,,,,,,,,,,,,,,,,,,,,,,,,,,,,,,,,,,,,,,,,,,,,,,,,,,,,,,,,,,,,,,,,,,,,,,,,,,,,,,,,,,,,,,,,,,,
,,6509fe5bcfaa6c451f85d5a3,2024-02-21_22h30.04.503,kallum_motion_pilot,2023.2.2,Win32,59.88023952,6509fe5bcfaa6c451f85d5a3,65d6bb0e977760de756971f7,65d6bfa6ab610f7bb580d626,0.0362,0.0363,0,106,106,44,1,threeone,,,,,,,,,,,,,,,,,,,,,,,,,,,,,,,,,,,,,,,,,,,,,,,,,,,,,,,,,,,,,,,,,,,,,,,,,,,,,,,,,,,,,,,,,,,,,,,,,,,,,,,,,,,,,,,,,,,,,,,,,,,,,,,,,,,,,,,,,
,,6509fe5bcfaa6c451f85d5a3,2024-02-21_22h30.04.503,kallum_motion_pilot,2023.2.2,Win32,59.88023952,6509fe5bcfaa6c451f85d5a3,65d6bb0e977760de756971f7,65d6bfa6ab610f7bb580d626,0.0363,0.0363,0,107,107,92,1,sevenfive,,,,,,,,,,,,,,,,,,,,,,,,,,,,,,,,,,,,,,,,,,,,,,,,,,,,,,,,,,,,,,,,,,,,,,,,,,,,,,,,,,,,,,,,,,,,,,,,,,,,,,,,,,,,,,,,,,,,,,,,,,,,,,,,,,,,,,,,,
,,6509fe5bcfaa6c451f85d5a3,2024-02-21_22h30.04.503,kallum_motion_pilot,2023.2.2,Win32,59.88023952,6509fe5bcfaa6c451f85d5a3,65d6bb0e977760de756971f7,65d6bfa6ab610f7bb580d626,0.0364,0.0364,0,108,108,108,1,sevenfive,,,,,,,,,,,,,,,,,,,,,,,,,,,,,,,,,,,,,,,,,,,,,,,,,,,,,,,,,,,,,,,,,,,,,,,,,,,,,,,,,,,,,,,,,,,,,,,,,,,,,,,,,,,,,,,,,,,,,,,,,,,,,,,,,,,,,,,,,
,,6509fe5bcfaa6c451f85d5a3,2024-02-21_22h30.04.503,kallum_motion_pilot,2023.2.2,Win32,59.88023952,6509fe5bcfaa6c451f85d5a3,65d6bb0e977760de756971f7,65d6bfa6ab610f7bb580d626,0.0365,0.0365,0,109,109,156,1,sevenfive,,,,,,,,,,,,,,,,,,,,,,,,,,,,,,,,,,,,,,,,,,,,,,,,,,,,,,,,,,,,,,,,,,,,,,,,,,,,,,,,,,,,,,,,,,,,,,,,,,,,,,,,,,,,,,,,,,,,,,,,,,,,,,,,,,,,,,,,,
,,6509fe5bcfaa6c451f85d5a3,2024-02-21_22h30.04.503,kallum_motion_pilot,2023.2.2,Win32,59.88023952,6509fe5bcfaa6c451f85d5a3,65d6bb0e977760de756971f7,65d6bfa6ab610f7bb580d626,0.0367,0.0367,0,110,110,78,1,fourtwo,,,,,,,,,,,,,,,,,,,,,,,,,,,,,,,,,,,,,,,,,,,,,,,,,,,,,,,,,,,,,,,,,,,,,,,,,,,,,,,,,,,,,,,,,,,,,,,,,,,,,,,,,,,,,,,,,,,,,,,,,,,,,,,,,,,,,,,,,
,,6509fe5bcfaa6c451f85d5a3,2024-02-21_22h30.04.503,kallum_motion_pilot,2023.2.2,Win32,59.88023952,6509fe5bcfaa6c451f85d5a3,65d6bb0e977760de756971f7,65d6bfa6ab610f7bb580d626,0.0367,0.0367,0,111,111,120,1,fivesix,,,,,,,,,,,,,,,,,,,,,,,,,,,,,,,,,,,,,,,,,,,,,,,,,,,,,,,,,,,,,,,,,,,,,,,,,,,,,,,,,,,,,,,,,,,,,,,,,,,,,,,,,,,,,,,,,,,,,,,,,,,,,,,,,,,,,,,,,
,,6509fe5bcfaa6c451f85d5a3,2024-02-21_22h30.04.503,kallum_motion_pilot,2023.2.2,Win32,59.88023952,6509fe5bcfaa6c451f85d5a3,65d6bb0e977760de756971f7,65d6bfa6ab610f7bb580d626,0.0368,0.0369,0,112,112,121,1,fiveseven,,,,,,,,,,,,,,,,,,,,,,,,,,,,,,,,,,,,,,,,,,,,,,,,,,,,,,,,,,,,,,,,,,,,,,,,,,,,,,,,,,,,,,,,,,,,,,,,,,,,,,,,,,,,,,,,,,,,,,,,,,,,,,,,,,,,,,,,,
,,6509fe5bcfaa6c451f85d5a3,2024-02-21_22h30.04.503,kallum_motion_pilot,2023.2.2,Win32,59.88023952,6509fe5bcfaa6c451f85d5a3,65d6bb0e977760de756971f7,65d6bfa6ab610f7bb580d626,0.0369,0.037,0,113,113,89,1,fiveseven,,,,,,,,,,,,,,,,,,,,,,,,,,,,,,,,,,,,,,,,,,,,,,,,,,,,,,,,,,,,,,,,,,,,,,,,,,,,,,,,,,,,,,,,,,,,,,,,,,,,,,,,,,,,,,,,,,,,,,,,,,,,,,,,,,,,,,,,,
,,6509fe5bcfaa6c451f85d5a3,2024-02-21_22h30.04.503,kallum_motion_pilot,2023.2.2,Win32,59.88023952,6509fe5bcfaa6c451f85d5a3,65d6bb0e977760de756971f7,65d6bfa6ab610f7bb580d626,0.037,0.037,0,114,114,2,1,twoone,,,,,,,,,,,,,,,,,,,,,,,,,,,,,,,,,,,,,,,,,,,,,,,,,,,,,,,,,,,,,,,,,,,,,,,,,,,,,,,,,,,,,,,,,,,,,,,,,,,,,,,,,,,,,,,,,,,,,,,,,,,,,,,,,,,,,,,,,
,,6509fe5bcfaa6c451f85d5a3,2024-02-21_22h30.04.503,kallum_motion_pilot,2023.2.2,Win32,59.88023952,6509fe5bcfaa6c451f85d5a3,65d6bb0e977760de756971f7,65d6bfa6ab610f7bb580d626,0.0371,0.0372,0,115,115,94,1,eightsix,,,,,,,,,,,,,,,,,,,,,,,,,,,,,,,,,,,,,,,,,,,,,,,,,,,,,,,,,,,,,,,,,,,,,,,,,,,,,,,,,,,,,,,,,,,,,,,,,,,,,,,,,,,,,,,,,,,,,,,,,,,,,,,,,,,,,,,,,
,,6509fe5bcfaa6c451f85d5a3,2024-02-21_22h30.04.503,kallum_motion_pilot,2023.2.2,Win32,59.88023952,6509fe5bcfaa6c451f85d5a3,65d6bb0e977760de756971f7,65d6bfa6ab610f7bb580d626,0.0373,0.0373,0,116,116,61,1,threefour,,,,,,,,,,,,,,,,,,,,,,,,,,,,,,,,,,,,,,,,,,,,,,,,,,,,,,,,,,,,,,,,,,,,,,,,,,,,,,,,,,,,,,,,,,,,,,,,,,,,,,,,,,,,,,,,,,,,,,,,,,,,,,,,,,,,,,,,,
,,6509fe5bcfaa6c451f85d5a3,2024-02-21_22h30.04.503,kallum_motion_pilot,2023.2.2,Win32,59.88023952,6509fe5bcfaa6c451f85d5a3,65d6bb0e977760de756971f7,65d6bfa6ab610f7bb580d626,0.0374,0.0374,0,117,117,58,1,twoone,,,,,,,,,,,,,,,,,,,,,,,,,,,,,,,,,,,,,,,,,,,,,,,,,,,,,,,,,,,,,,,,,,,,,,,,,,,,,,,,,,,,,,,,,,,,,,,,,,,,,,,,,,,,,,,,,,,,,,,,,,,,,,,,,,,,,,,,,
,,6509fe5bcfaa6c451f85d5a3,2024-02-21_22h30.04.503,kallum_motion_pilot,2023.2.2,Win32,59.88023952,6509fe5bcfaa6c451f85d5a3,65d6bb0e977760de756971f7,65d6bfa6ab610f7bb580d626,0.0374,0.0375,0,118,118,106,1,sixfive,,,,,,,,,,,,,,,,,,,,,,,,,,,,,,,,,,,,,,,,,,,,,,,,,,,,,,,,,,,,,,,,,,,,,,,,,,,,,,,,,,,,,,,,,,,,,,,,,,,,,,,,,,,,,,,,,,,,,,,,,,,,,,,,,,,,,,,,,
,,6509fe5bcfaa6c451f85d5a3,2024-02-21_22h30.04.503,kallum_motion_pilot,2023.2.2,Win32,59.88023952,6509fe5bcfaa6c451f85d5a3,65d6bb0e977760de756971f7,65d6bfa6ab610f7bb580d626,0.0375,0.0376,0,119,119,15,1,fourthree,,,,,,,,,,,,,,,,,,,,,,,,,,,,,,,,,,,,,,,,,,,,,,,,,,,,,,,,,,,,,,,,,,,,,,,,,,,,,,,,,,,,,,,,,,,,,,,,,,,,,,,,,,,,,,,,,,,,,,,,,,,,,,,,,,,,,,,,,
,,6509fe5bcfaa6c451f85d5a3,2024-02-21_22h30.04.503,kallum_motion_pilot,2023.2.2,Win32,59.88023952,6509fe5bcfaa6c451f85d5a3,65d6bb0e977760de756971f7,65d6bfa6ab610f7bb580d626,0.0377,0.0377,0,120,120,1,1,onethree,,,,,,,,,,,,,,,,,,,,,,,,,,,,,,,,,,,,,,,,,,,,,,,,,,,,,,,,,,,,,,,,,,,,,,,,,,,,,,,,,,,,,,,,,,,,,,,,,,,,,,,,,,,,,,,,,,,,,,,,,,,,,,,,,,,,,,,,,
,,6509fe5bcfaa6c451f85d5a3,2024-02-21_22h30.04.503,kallum_motion_pilot,2023.2.2,Win32,59.88023952,6509fe5bcfaa6c451f85d5a3,65d6bb0e977760de756971f7,65d6bfa6ab610f7bb580d626,0.0377,0.0378,0,121,121,66,1,twoone,,,,,,,,,,,,,,,,,,,,,,,,,,,,,,,,,,,,,,,,,,,,,,,,,,,,,,,,,,,,,,,,,,,,,,,,,,,,,,,,,,,,,,,,,,,,,,,,,,,,,,,,,,,,,,,,,,,,,,,,,,,,,,,,,,,,,,,,,
,,6509fe5bcfaa6c451f85d5a3,2024-02-21_22h30.04.503,kallum_motion_pilot,2023.2.2,Win32,59.88023952,6509fe5bcfaa6c451f85d5a3,65d6bb0e977760de756971f7,65d6bfa6ab610f7bb580d626,0.0379,0.0379,0,122,122,107,1,sixeight,,,,,,,,,,,,,,,,,,,,,,,,,,,,,,,,,,,,,,,,,,,,,,,,,,,,,,,,,,,,,,,,,,,,,,,,,,,,,,,,,,,,,,,,,,,,,,,,,,,,,,,,,,,,,,,,,,,,,,,,,,,,,,,,,,,,,,,,,
,,6509fe5bcfaa6c451f85d5a3,2024-02-21_22h30.04.503,kallum_motion_pilot,2023.2.2,Win32,59.88023952,6509fe5bcfaa6c451f85d5a3,65d6bb0e977760de756971f7,65d6bfa6ab610f7bb580d626,0.038,0.0381,0,123,123,110,1,eightsix,,,,,,,,,,,,,,,,,,,,,,,,,,,,,,,,,,,,,,,,,,,,,,,,,,,,,,,,,,,,,,,,,,,,,,,,,,,,,,,,,,,,,,,,,,,,,,,,,,,,,,,,,,,,,,,,,,,,,,,,,,,,,,,,,,,,,,,,,
,,6509fe5bcfaa6c451f85d5a3,2024-02-21_22h30.04.503,kallum_motion_pilot,2023.2.2,Win32,59.88023952,6509fe5bcfaa6c451f85d5a3,65d6bb0e977760de756971f7,65d6bfa6ab610f7bb580d626,0.0382,0.0383,0,124,124,71,1,fourthree,,,,,,,,,,,,,,,,,,,,,,,,,,,,,,,,,,,,,,,,,,,,,,,,,,,,,,,,,,,,,,,,,,,,,,,,,,,,,,,,,,,,,,,,,,,,,,,,,,,,,,,,,,,,,,,,,,,,,,,,,,,,,,,,,,,,,,,,,
,,6509fe5bcfaa6c451f85d5a3,2024-02-21_22h30.04.503,kallum_motion_pilot,2023.2.2,Win32,59.88023952,6509fe5bcfaa6c451f85d5a3,65d6bb0e977760de756971f7,65d6bfa6ab610f7bb580d626,0.0384,0.0384,0,125,125,111,1,eightseven,,,,,,,,,,,,,,,,,,,,,,,,,,,,,,,,,,,,,,,,,,,,,,,,,,,,,,,,,,,,,,,,,,,,,,,,,,,,,,,,,,,,,,,,,,,,,,,,,,,,,,,,,,,,,,,,,,,,,,,,,,,,,,,,,,,,,,,,,
,,6509fe5bcfaa6c451f85d5a3,2024-02-21_22h30.04.503,kallum_motion_pilot,2023.2.2,Win32,59.88023952,6509fe5bcfaa6c451f85d5a3,65d6bb0e977760de756971f7,65d6bfa6ab610f7bb580d626,0.0385,0.0385,0,126,126,43,1,twofour,,,,,,,,,,,,,,,,,,,,,,,,,,,,,,,,,,,,,,,,,,,,,,,,,,,,,,,,,,,,,,,,,,,,,,,,,,,,,,,,,,,,,,,,,,,,,,,,,,,,,,,,,,,,,,,,,,,,,,,,,,,,,,,,,,,,,,,,,
,,6509fe5bcfaa6c451f85d5a3,2024-02-21_22h30.04.503,kallum_motion_pilot,2023.2.2,Win32,59.88023952,6509fe5bcfaa6c451f85d5a3,65d6bb0e977760de756971f7,65d6bfa6ab610f7bb580d626,0.0386,0.0387,0,127,127,46,1,fourtwo,,,,,,,,,,,,,,,,,,,,,,,,,,,,,,,,,,,,,,,,,,,,,,,,,,,,,,,,,,,,,,,,,,,,,,,,,,,,,,,,,,,,,,,,,,,,,,,,,,,,,,,,,,,,,,,,,,,,,,,,,,,,,,,,,,,,,,,,,
,,6509fe5bcfaa6c451f85d5a3,2024-02-21_22h30.04.503,kallum_motion_pilot,2023.2.2,Win32,59.88023952,6509fe5bcfaa6c451f85d5a3,65d6bb0e977760de756971f7,65d6bfa6ab610f7bb580d626,0.0388,0.0388,0,128,128,17,1,onethree,,,,,,,,,,,,,,,,,,,,,,,,,,,,,,,,,,,,,,,,,,,,,,,,,,,,,,,,,,,,,,,,,,,,,,,,,,,,,,,,,,,,,,,,,,,,,,,,,,,,,,,,,,,,,,,,,,,,,,,,,,,,,,,,,,,,,,,,,
,,6509fe5bcfaa6c451f85d5a3,2024-02-21_22h30.04.503,kallum_motion_pilot,2023.2.2,Win32,59.88023952,6509fe5bcfaa6c451f85d5a3,65d6bb0e977760de756971f7,65d6bfa6ab610f7bb580d626,0.0389,0.039,0,129,129,160,1,fivesix,,,,,,,,,,,,,,,,,,,,,,,,,,,,,,,,,,,,,,,,,,,,,,,,,,,,,,,,,,,,,,,,,,,,,,,,,,,,,,,,,,,,,,,,,,,,,,,,,,,,,,,,,,,,,,,,,,,,,,,,,,,,,,,,,,,,,,,,,
,,6509fe5bcfaa6c451f85d5a3,2024-02-21_22h30.04.503,kallum_motion_pilot,2023.2.2,Win32,59.88023952,6509fe5bcfaa6c451f85d5a3,65d6bb0e977760de756971f7,65d6bfa6ab610f7bb580d626,0.039,0.039,0,130,130,148,1,sevenfive,,,,,,,,,,,,,,,,,,,,,,,,,,,,,,,,,,,,,,,,,,,,,,,,,,,,,,,,,,,,,,,,,,,,,,,,,,,,,,,,,,,,,,,,,,,,,,,,,,,,,,,,,,,,,,,,,,,,,,,,,,,,,,,,,,,,,,,,,
,,6509fe5bcfaa6c451f85d5a3,2024-02-21_22h30.04.503,kallum_motion_pilot,2023.2.2,Win32,59.88023952,6509fe5bcfaa6c451f85d5a3,65d6bb0e977760de756971f7,65d6bfa6ab610f7bb580d626,0.0391,0.0391,0,131,131,150,1,eightsix,,,,,,,,,,,,,,,,,,,,,,,,,,,,,,,,,,,,,,,,,,,,,,,,,,,,,,,,,,,,,,,,,,,,,,,,,,,,,,,,,,,,,,,,,,,,,,,,,,,,,,,,,,,,,,,,,,,,,,,,,,,,,,,,,,,,,,,,,
,,6509fe5bcfaa6c451f85d5a3,2024-02-21_22h30.04.503,kallum_motion_pilot,2023.2.2,Win32,59.88023952,6509fe5bcfaa6c451f85d5a3,65d6bb0e977760de756971f7,65d6bfa6ab610f7bb580d626,0.0392,0.0393,0,132,132,151,1,eightseven,,,,,,,,,,,,,,,,,,,,,,,,,,,,,,,,,,,,,,,,,,,,,,,,,,,,,,,,,,,,,,,,,,,,,,,,,,,,,,,,,,,,,,,,,,,,,,,,,,,,,,,,,,,,,,,,,,,,,,,,,,,,,,,,,,,,,,,,,
,,6509fe5bcfaa6c451f85d5a3,2024-02-21_22h30.04.503,kallum_motion_pilot,2023.2.2,Win32,59.88023952,6509fe5bcfaa6c451f85d5a3,65d6bb0e977760de756971f7,65d6bfa6ab610f7bb580d626,0.0393,0.0393,0,133,133,91,1,sixeight,,,,,,,,,,,,,,,,,,,,,,,,,,,,,,,,,,,,,,,,,,,,,,,,,,,,,,,,,,,,,,,,,,,,,,,,,,,,,,,,,,,,,,,,,,,,,,,,,,,,,,,,,,,,,,,,,,,,,,,,,,,,,,,,,,,,,,,,,
,,6509fe5bcfaa6c451f85d5a3,2024-02-21_22h30.04.503,kallum_motion_pilot,2023.2.2,Win32,59.88023952,6509fe5bcfaa6c451f85d5a3,65d6bb0e977760de756971f7,65d6bfa6ab610f7bb580d626,0.0395,0.0395,0,134,134,37,1,threefour,,,,,,,,,,,,,,,,,,,,,,,,,,,,,,,,,,,,,,,,,,,,,,,,,,,,,,,,,,,,,,,,,,,,,,,,,,,,,,,,,,,,,,,,,,,,,,,,,,,,,,,,,,,,,,,,,,,,,,,,,,,,,,,,,,,,,,,,,
,,6509fe5bcfaa6c451f85d5a3,2024-02-21_22h30.04.503,kallum_motion_pilot,2023.2.2,Win32,59.88023952,6509fe5bcfaa6c451f85d5a3,65d6bb0e977760de756971f7,65d6bfa6ab610f7bb580d626,0.0396,0.0397,0,135,135,122,1,sixfive,,,,,,,,,,,,,,,,,,,,,,,,,,,,,,,,,,,,,,,,,,,,,,,,,,,,,,,,,,,,,,,,,,,,,,,,,,,,,,,,,,,,,,,,,,,,,,,,,,,,,,,,,,,,,,,,,,,,,,,,,,,,,,,,,,,,,,,,,
,,6509fe5bcfaa6c451f85d5a3,2024-02-21_22h30.04.503,kallum_motion_pilot,2023.2.2,Win32,59.88023952,6509fe5bcfaa6c451f85d5a3,65d6bb0e977760de756971f7,65d6bfa6ab610f7bb580d626,0.0397,0.0397,0,136,136,132,1,sevenfive,,,,,,,,,,,,,,,,,,,,,,,,,,,,,,,,,,,,,,,,,,,,,,,,,,,,,,,,,,,,,,,,,,,,,,,,,,,,,,,,,,,,,,,,,,,,,,,,,,,,,,,,,,,,,,,,,,,,,,,,,,,,,,,,,,,,,,,,,
,,6509fe5bcfaa6c451f85d5a3,2024-02-21_22h30.04.503,kallum_motion_pilot,2023.2.2,Win32,59.88023952,6509fe5bcfaa6c451f85d5a3,65d6bb0e977760de756971f7,65d6bfa6ab610f7bb580d626,0.0398,0.0398,0,137,137,161,1,fiveseven,,,,,,,,,,,,,,,,,,,,,,,,,,,,,,,,,,,,,,,,,,,,,,,,,,,,,,,,,,,,,,,,,,,,,,,,,,,,,,,,,,,,,,,,,,,,,,,,,,,,,,,,,,,,,,,,,,,,,,,,,,,,,,,,,,,,,,,,,
,,6509fe5bcfaa6c451f85d5a3,2024-02-21_22h30.04.503,kallum_motion_pilot,2023.2.2,Win32,59.88023952,6509fe5bcfaa6c451f85d5a3,65d6bb0e977760de756971f7,65d6bfa6ab610f7bb580d626,0.0399,0.0399,0,138,138,134,1,eightsix,,,,,,,,,,,,,,,,,,,,,,,,,,,,,,,,,,,,,,,,,,,,,,,,,,,,,,,,,,,,,,,,,,,,,,,,,,,,,,,,,,,,,,,,,,,,,,,,,,,,,,,,,,,,,,,,,,,,,,,,,,,,,,,,,,,,,,,,,
,,6509fe5bcfaa6c451f85d5a3,2024-02-21_22h30.04.503,kallum_motion_pilot,2023.2.2,Win32,59.88023952,6509fe5bcfaa6c451f85d5a3,65d6bb0e977760de756971f7,65d6bfa6ab610f7bb580d626,0.04,0.04,0,139,139,21,1,threefour,,,,,,,,,,,,,,,,,,,,,,,,,,,,,,,,,,,,,,,,,,,,,,,,,,,,,,,,,,,,,,,,,,,,,,,,,,,,,,,,,,,,,,,,,,,,,,,,,,,,,,,,,,,,,,,,,,,,,,,,,,,,,,,,,,,,,,,,,
,,6509fe5bcfaa6c451f85d5a3,2024-02-21_22h30.04.503,kallum_motion_pilot,2023.2.2,Win32,59.88023952,6509fe5bcfaa6c451f85d5a3,65d6bb0e977760de756971f7,65d6bfa6ab610f7bb580d626,0.0401,0.0402,0,140,140,29,1,threefour,,,,,,,,,,,,,,,,,,,,,,,,,,,,,,,,,,,,,,,,,,,,,,,,,,,,,,,,,,,,,,,,,,,,,,,,,,,,,,,,,,,,,,,,,,,,,,,,,,,,,,,,,,,,,,,,,,,,,,,,,,,,,,,,,,,,,,,,,
,,6509fe5bcfaa6c451f85d5a3,2024-02-21_22h30.04.503,kallum_motion_pilot,2023.2.2,Win32,59.88023952,6509fe5bcfaa6c451f85d5a3,65d6bb0e977760de756971f7,65d6bfa6ab610f7bb580d626,0.0402,0.0402,0,141,141,48,1,onetwo,,,,,,,,,,,,,,,,,,,,,,,,,,,,,,,,,,,,,,,,,,,,,,,,,,,,,,,,,,,,,,,,,,,,,,,,,,,,,,,,,,,,,,,,,,,,,,,,,,,,,,,,,,,,,,,,,,,,,,,,,,,,,,,,,,,,,,,,,
,,6509fe5bcfaa6c451f85d5a3,2024-02-21_22h30.04.503,kallum_motion_pilot,2023.2.2,Win32,59.88023952,6509fe5bcfaa6c451f85d5a3,65d6bb0e977760de756971f7,65d6bfa6ab610f7bb580d626,0.0403,0.0403,0,142,142,101,1,seveneight,,,,,,,,,,,,,,,,,,,,,,,,,,,,,,,,,,,,,,,,,,,,,,,,,,,,,,,,,,,,,,,,,,,,,,,,,,,,,,,,,,,,,,,,,,,,,,,,,,,,,,,,,,,,,,,,,,,,,,,,,,,,,,,,,,,,,,,,,
,,6509fe5bcfaa6c451f85d5a3,2024-02-21_22h30.04.503,kallum_motion_pilot,2023.2.2,Win32,59.88023952,6509fe5bcfaa6c451f85d5a3,65d6bb0e977760de756971f7,65d6bfa6ab610f7bb580d626,0.0404,0.0404,0,143,143,35,1,twofour,,,,,,,,,,,,,,,,,,,,,,,,,,,,,,,,,,,,,,,,,,,,,,,,,,,,,,,,,,,,,,,,,,,,,,,,,,,,,,,,,,,,,,,,,,,,,,,,,,,,,,,,,,,,,,,,,,,,,,,,,,,,,,,,,,,,,,,,,
,,6509fe5bcfaa6c451f85d5a3,2024-02-21_22h30.04.503,kallum_motion_pilot,2023.2.2,Win32,59.88023952,6509fe5bcfaa6c451f85d5a3,65d6bb0e977760de756971f7,65d6bfa6ab610f7bb580d626,0.0404,0.0405,0,144,144,67,1,twofour,,,,,,,,,,,,,,,,,,,,,,,,,,,,,,,,,,,,,,,,,,,,,,,,,,,,,,,,,,,,,,,,,,,,,,,,,,,,,,,,,,,,,,,,,,,,,,,,,,,,,,,,,,,,,,,,,,,,,,,,,,,,,,,,,,,,,,,,,
,,6509fe5bcfaa6c451f85d5a3,2024-02-21_22h30.04.503,kallum_motion_pilot,2023.2.2,Win32,59.88023952,6509fe5bcfaa6c451f85d5a3,65d6bb0e977760de756971f7,65d6bfa6ab610f7bb580d626,0.0406,0.0406,0,145,145,80,1,fivesix,,,,,,,,,,,,,,,,,,,,,,,,,,,,,,,,,,,,,,,,,,,,,,,,,,,,,,,,,,,,,,,,,,,,,,,,,,,,,,,,,,,,,,,,,,,,,,,,,,,,,,,,,,,,,,,,,,,,,,,,,,,,,,,,,,,,,,,,,
,,6509fe5bcfaa6c451f85d5a3,2024-02-21_22h30.04.503,kallum_motion_pilot,2023.2.2,Win32,59.88023952,6509fe5bcfaa6c451f85d5a3,65d6bb0e977760de756971f7,65d6bfa6ab610f7bb580d626,0.0406,0.0407,0,146,146,88,1,fivesix,,,,,,,,,,,,,,,,,,,,,,,,,,,,,,,,,,,,,,,,,,,,,,,,,,,,,,,,,,,,,,,,,,,,,,,,,,,,,,,,,,,,,,,,,,,,,,,,,,,,,,,,,,,,,,,,,,,,,,,,,,,,,,,,,,,,,,,,,
,,6509fe5bcfaa6c451f85d5a3,2024-02-21_22h30.04.503,kallum_motion_pilot,2023.2.2,Win32,59.88023952,6509fe5bcfaa6c451f85d5a3,65d6bb0e977760de756971f7,65d6bfa6ab610f7bb580d626,0.0408,0.0408,0,147,147,76,1,threeone,,,,,,,,,,,,,,,,,,,,,,,,,,,,,,,,,,,,,,,,,,,,,,,,,,,,,,,,,,,,,,,,,,,,,,,,,,,,,,,,,,,,,,,,,,,,,,,,,,,,,,,,,,,,,,,,,,,,,,,,,,,,,,,,,,,,,,,,,
,,6509fe5bcfaa6c451f85d5a3,2024-02-21_22h30.04.503,kallum_motion_pilot,2023.2.2,Win32,59.88023952,6509fe5bcfaa6c451f85d5a3,65d6bb0e977760de756971f7,65d6bfa6ab610f7bb580d626,0.0409,0.0409,0,148,148,4,1,threeone,,,,,,,,,,,,,,,,,,,,,,,,,,,,,,,,,,,,,,,,,,,,,,,,,,,,,,,,,,,,,,,,,,,,,,,,,,,,,,,,,,,,,,,,,,,,,,,,,,,,,,,,,,,,,,,,,,,,,,,,,,,,,,,,,,,,,,,,,
,,6509fe5bcfaa6c451f85d5a3,2024-02-21_22h30.04.503,kallum_motion_pilot,2023.2.2,Win32,59.88023952,6509fe5bcfaa6c451f85d5a3,65d6bb0e977760de756971f7,65d6bfa6ab610f7bb580d626,0.0409,0.041,0,149,149,36,1,threeone,,,,,,,,,,,,,,,,,,,,,,,,,,,,,,,,,,,,,,,,,,,,,,,,,,,,,,,,,,,,,,,,,,,,,,,,,,,,,,,,,,,,,,,,,,,,,,,,,,,,,,,,,,,,,,,,,,,,,,,,,,,,,,,,,,,,,,,,,
,,6509fe5bcfaa6c451f85d5a3,2024-02-21_22h30.04.503,kallum_motion_pilot,2023.2.2,Win32,59.88023952,6509fe5bcfaa6c451f85d5a3,65d6bb0e977760de756971f7,65d6bfa6ab610f7bb580d626,0.0411,0.0411,0,150,150,14,1,fourtwo,,,,,,,,,,,,,,,,,,,,,,,,,,,,,,,,,,,,,,,,,,,,,,,,,,,,,,,,,,,,,,,,,,,,,,,,,,,,,,,,,,,,,,,,,,,,,,,,,,,,,,,,,,,,,,,,,,,,,,,,,,,,,,,,,,,,,,,,,
,,6509fe5bcfaa6c451f85d5a3,2024-02-21_22h30.04.503,kallum_motion_pilot,2023.2.2,Win32,59.88023952,6509fe5bcfaa6c451f85d5a3,65d6bb0e977760de756971f7,65d6bfa6ab610f7bb580d626,0.0412,0.0413,0,151,151,159,1,eightseven,,,,,,,,,,,,,,,,,,,,,,,,,,,,,,,,,,,,,,,,,,,,,,,,,,,,,,,,,,,,,,,,,,,,,,,,,,,,,,,,,,,,,,,,,,,,,,,,,,,,,,,,,,,,,,,,,,,,,,,,,,,,,,,,,,,,,,,,,
,,6509fe5bcfaa6c451f85d5a3,2024-02-21_22h30.04.503,kallum_motion_pilot,2023.2.2,Win32,59.88023952,6509fe5bcfaa6c451f85d5a3,65d6bb0e977760de756971f7,65d6bfa6ab610f7bb580d626,0.0413,0.0413,0,152,152,145,1,fiveseven,,,,,,,,,,,,,,,,,,,,,,,,,,,,,,,,,,,,,,,,,,,,,,,,,,,,,,,,,,,,,,,,,,,,,,,,,,,,,,,,,,,,,,,,,,,,,,,,,,,,,,,,,,,,,,,,,,,,,,,,,,,,,,,,,,,,,,,,,
,,6509fe5bcfaa6c451f85d5a3,2024-02-21_22h30.04.503,kallum_motion_pilot,2023.2.2,Win32,59.88023952,6509fe5bcfaa6c451f85d5a3,65d6bb0e977760de756971f7,65d6bfa6ab610f7bb580d626,0.0414,0.0414,0,153,153,24,1,onetwo,,,,,,,,,,,,,,,,,,,,,,,,,,,,,,,,,,,,,,,,,,,,,,,,,,,,,,,,,,,,,,,,,,,,,,,,,,,,,,,,,,,,,,,,,,,,,,,,,,,,,,,,,,,,,,,,,,,,,,,,,,,,,,,,,,,,,,,,,
,,6509fe5bcfaa6c451f85d5a3,2024-02-21_22h30.04.503,kallum_motion_pilot,2023.2.2,Win32,59.88023952,6509fe5bcfaa6c451f85d5a3,65d6bb0e977760de756971f7,65d6bfa6ab610f7bb580d626,0.0415,0.0416,0,154,154,31,1,fourthree,,,,,,,,,,,,,,,,,,,,,,,,,,,,,,,,,,,,,,,,,,,,,,,,,,,,,,,,,,,,,,,,,,,,,,,,,,,,,,,,,,,,,,,,,,,,,,,,,,,,,,,,,,,,,,,,,,,,,,,,,,,,,,,,,,,,,,,,,
,,6509fe5bcfaa6c451f85d5a3,2024-02-21_22h30.04.503,kallum_motion_pilot,2023.2.2,Win32,59.88023952,6509fe5bcfaa6c451f85d5a3,65d6bb0e977760de756971f7,65d6bfa6ab610f7bb580d626,0.0416,0.0417,0,155,155,38,1,fourtwo,,,,,,,,,,,,,,,,,,,,,,,,,,,,,,,,,,,,,,,,,,,,,,,,,,,,,,,,,,,,,,,,,,,,,,,,,,,,,,,,,,,,,,,,,,,,,,,,,,,,,,,,,,,,,,,,,,,,,,,,,,,,,,,,,,,,,,,,,
,,6509fe5bcfaa6c451f85d5a3,2024-02-21_22h30.04.503,kallum_motion_pilot,2023.2.2,Win32,59.88023952,6509fe5bcfaa6c451f85d5a3,65d6bb0e977760de756971f7,65d6bfa6ab610f7bb580d626,0.0417,0.0417,0,156,156,119,1,eightseven,,,,,,,,,,,,,,,,,,,,,,,,,,,,,,,,,,,,,,,,,,,,,,,,,,,,,,,,,,,,,,,,,,,,,,,,,,,,,,,,,,,,,,,,,,,,,,,,,,,,,,,,,,,,,,,,,,,,,,,,,,,,,,,,,,,,,,,,,
,,6509fe5bcfaa6c451f85d5a3,2024-02-21_22h30.04.503,kallum_motion_pilot,2023.2.2,Win32,59.88023952,6509fe5bcfaa6c451f85d5a3,65d6bb0e977760de756971f7,65d6bfa6ab610f7bb580d626,0.0418,0.0418,0,157,157,69,1,threefour,,,,,,,,,,,,,,,,,,,,,,,,,,,,,,,,,,,,,,,,,,,,,,,,,,,,,,,,,,,,,,,,,,,,,,,,,,,,,,,,,,,,,,,,,,,,,,,,,,,,,,,,,,,,,,,,,,,,,,,,,,,,,,,,,,,,,,,,,
,,6509fe5bcfaa6c451f85d5a3,2024-02-21_22h30.04.503,kallum_motion_pilot,2023.2.2,Win32,59.88023952,6509fe5bcfaa6c451f85d5a3,65d6bb0e977760de756971f7,65d6bfa6ab610f7bb580d626,0.0419,0.0419,0,158,158,133,1,seveneight,,,,,,,,,,,,,,,,,,,,,,,,,,,,,,,,,,,,,,,,,,,,,,,,,,,,,,,,,,,,,,,,,,,,,,,,,,,,,,,,,,,,,,,,,,,,,,,,,,,,,,,,,,,,,,,,,,,,,,,,,,,,,,,,,,,,,,,,,
,,6509fe5bcfaa6c451f85d5a3,2024-02-21_22h30.04.503,kallum_motion_pilot,2023.2.2,Win32,59.88023952,6509fe5bcfaa6c451f85d5a3,65d6bb0e977760de756971f7,65d6bfa6ab610f7bb580d626,0.0419,0.042,0,159,159,99,1,sixeight,,,,,,,,,,,,,,,,,,,,,,,,,,,,,,,,,,,,,,,,,,,,,,,,,,,,,,,,,,,,,,,,,,,,,,,,,,,,,,,,,,,,,,,,,,,,,,,,,,,,,,,,,,,,,,,,,,,,,,,,,,,,,,,,,,,,,,,,,
,,6509fe5bcfaa6c451f85d5a3,2024-02-21_22h30.04.503,kallum_motion_pilot,2023.2.2,Win32,59.88023952,6509fe5bcfaa6c451f85d5a3,65d6bb0e977760de756971f7,65d6bfa6ab610f7bb580d626,0.0421,0.0421,0,160,160,3,1,twofour,,,,,,,,,,,,,,,,,,,,,,,,,,,,,,,,,,,,,,,,,,,,,,,,,,,,,,,,,,,,,,,,,,,,,,,,,,,,,,,,,,,,,,,,,,,,,,,,,,,,,,,,,,,,,,,,,,,,,,,,,,,,,,,,,,,,,,,,,
,,6509fe5bcfaa6c451f85d5a3,2024-02-21_22h30.04.503,kallum_motion_pilot,2023.2.2,Win32,59.88023952,6509fe5bcfaa6c451f85d5a3,65d6bb0e977760de756971f7,65d6bfa6ab610f7bb580d626,0.0421,0.0423,0,161,161,10,1,twoone,,,,,,,,,,,,,,,,,,,,,,,,,,,,,,,,,,,,,,,,,,,,,,,,,,,,,,,,,,,,,,,,,,,,,,,,,,,,,,,,,,,,,,,,,,,,,,,,,,,,,,,,,,,,,,,,,,,,,,,,,,,,,,,,,,,,,,,,,
,,6509fe5bcfaa6c451f85d5a3,2024-02-21_22h30.04.503,kallum_motion_pilot,2023.2.2,Win32,59.88023952,6509fe5bcfaa6c451f85d5a3,65d6bb0e977760de756971f7,65d6bfa6ab610f7bb580d626,0.0423,0.0423,1,0,162,38,1,fourtwo,,,,,,,,,,,,,,,,,,,,,,,,,,,,,,,,,,,,,,,,,,,,,,,,,,,,,,,,,,,,,,,,,,,,,,,,,,,,,,,,,,,,,,,,,,,,,,,,,,,,,,,,,,,,,,,,,,,,,,,,,,,,,,,,,,,,,,,,,
,,6509fe5bcfaa6c451f85d5a3,2024-02-21_22h30.04.503,kallum_motion_pilot,2023.2.2,Win32,59.88023952,6509fe5bcfaa6c451f85d5a3,65d6bb0e977760de756971f7,65d6bfa6ab610f7bb580d626,0.0424,0.0424,1,1,163,139,1,sixeight,,,,,,,,,,,,,,,,,,,,,,,,,,,,,,,,,,,,,,,,,,,,,,,,,,,,,,,,,,,,,,,,,,,,,,,,,,,,,,,,,,,,,,,,,,,,,,,,,,,,,,,,,,,,,,,,,,,,,,,,,,,,,,,,,,,,,,,,,
,,6509fe5bcfaa6c451f85d5a3,2024-02-21_22h30.04.503,kallum_motion_pilot,2023.2.2,Win32,59.88023952,6509fe5bcfaa6c451f85d5a3,65d6bb0e977760de756971f7,65d6bfa6ab610f7bb580d626,0.0425,0.0425,1,2,164,22,1,fourtwo,,,,,,,,,,,,,,,,,,,,,,,,,,,,,,,,,,,,,,,,,,,,,,,,,,,,,,,,,,,,,,,,,,,,,,,,,,,,,,,,,,,,,,,,,,,,,,,,,,,,,,,,,,,,,,,,,,,,,,,,,,,,,,,,,,,,,,,,,
,,6509fe5bcfaa6c451f85d5a3,2024-02-21_22h30.04.503,kallum_motion_pilot,2023.2.2,Win32,59.88023952,6509fe5bcfaa6c451f85d5a3,65d6bb0e977760de756971f7,65d6bfa6ab610f7bb580d626,0.0425,0.0426,1,3,165,62,1,fourtwo,,,,,,,,,,,,,,,,,,,,,,,,,,,,,,,,,,,,,,,,,,,,,,,,,,,,,,,,,,,,,,,,,,,,,,,,,,,,,,,,,,,,,,,,,,,,,,,,,,,,,,,,,,,,,,,,,,,,,,,,,,,,,,,,,,,,,,,,,
,,6509fe5bcfaa6c451f85d5a3,2024-02-21_22h30.04.503,kallum_motion_pilot,2023.2.2,Win32,59.88023952,6509fe5bcfaa6c451f85d5a3,65d6bb0e977760de756971f7,65d6bfa6ab610f7bb580d626,0.0426,0.0427,1,4,166,159,1,eightseven,,,,,,,,,,,,,,,,,,,,,,,,,,,,,,,,,,,,,,,,,,,,,,,,,,,,,,,,,,,,,,,,,,,,,,,,,,,,,,,,,,,,,,,,,,,,,,,,,,,,,,,,,,,,,,,,,,,,,,,,,,,,,,,,,,,,,,,,,
,,6509fe5bcfaa6c451f85d5a3,2024-02-21_22h30.04.503,kallum_motion_pilot,2023.2.2,Win32,59.88023952,6509fe5bcfaa6c451f85d5a3,65d6bb0e977760de756971f7,65d6bfa6ab610f7bb580d626,0.0427,0.0428,1,5,167,122,1,sixfive,,,,,,,,,,,,,,,,,,,,,,,,,,,,,,,,,,,,,,,,,,,,,,,,,,,,,,,,,,,,,,,,,,,,,,,,,,,,,,,,,,,,,,,,,,,,,,,,,,,,,,,,,,,,,,,,,,,,,,,,,,,,,,,,,,,,,,,,,
,,6509fe5bcfaa6c451f85d5a3,2024-02-21_22h30.04.503,kallum_motion_pilot,2023.2.2,Win32,59.88023952,6509fe5bcfaa6c451f85d5a3,65d6bb0e977760de756971f7,65d6bfa6ab610f7bb580d626,0.0429,0.0429,1,6,168,90,1,sixfive,,,,,,,,,,,,,,,,,,,,,,,,,,,,,,,,,,,,,,,,,,,,,,,,,,,,,,,,,,,,,,,,,,,,,,,,,,,,,,,,,,,,,,,,,,,,,,,,,,,,,,,,,,,,,,,,,,,,,,,,,,,,,,,,,,,,,,,,,
,,6509fe5bcfaa6c451f85d5a3,2024-02-21_22h30.04.503,kallum_motion_pilot,2023.2.2,Win32,59.88023952,6509fe5bcfaa6c451f85d5a3,65d6bb0e977760de756971f7,65d6bfa6ab610f7bb580d626,0.0429,0.043,1,7,169,26,1,twoone,,,,,,,,,,,,,,,,,,,,,,,,,,,,,,,,,,,,,,,,,,,,,,,,,,,,,,,,,,,,,,,,,,,,,,,,,,,,,,,,,,,,,,,,,,,,,,,,,,,,,,,,,,,,,,,,,,,,,,,,,,,,,,,,,,,,,,,,,
,,6509fe5bcfaa6c451f85d5a3,2024-02-21_22h30.04.503,kallum_motion_pilot,2023.2.2,Win32,59.88023952,6509fe5bcfaa6c451f85d5a3,65d6bb0e977760de756971f7,65d6bfa6ab610f7bb580d626,0.043,0.043,1,8,170,151,1,eightseven,,,,,,,,,,,,,,,,,,,,,,,,,,,,,,,,,,,,,,,,,,,,,,,,,,,,,,,,,,,,,,,,,,,,,,,,,,,,,,,,,,,,,,,,,,,,,,,,,,,,,,,,,,,,,,,,,,,,,,,,,,,,,,,,,,,,,,,,,
,,6509fe5bcfaa6c451f85d5a3,2024-02-21_22h30.04.503,kallum_motion_pilot,2023.2.2,Win32,59.88023952,6509fe5bcfaa6c451f85d5a3,65d6bb0e977760de756971f7,65d6bfa6ab610f7bb580d626,0.0431,0.0432,1,9,171,52,1,threeone,,,,,,,,,,,,,,,,,,,,,,,,,,,,,,,,,,,,,,,,,,,,,,,,,,,,,,,,,,,,,,,,,,,,,,,,,,,,,,,,,,,,,,,,,,,,,,,,,,,,,,,,,,,,,,,,,,,,,,,,,,,,,,,,,,,,,,,,,
,,6509fe5bcfaa6c451f85d5a3,2024-02-21_22h30.04.503,kallum_motion_pilot,2023.2.2,Win32,59.88023952,6509fe5bcfaa6c451f85d5a3,65d6bb0e977760de756971f7,65d6bfa6ab610f7bb580d626,0.0432,0.0433,1,10,172,157,1,seveneight,,,,,,,,,,,,,,,,,,,,,,,,,,,,,,,,,,,,,,,,,,,,,,,,,,,,,,,,,,,,,,,,,,,,,,,,,,,,,,,,,,,,,,,,,,,,,,,,,,,,,,,,,,,,,,,,,,,,,,,,,,,,,,,,,,,,,,,,,
,,6509fe5bcfaa6c451f85d5a3,2024-02-21_22h30.04.503,kallum_motion_pilot,2023.2.2,Win32,59.88023952,6509fe5bcfaa6c451f85d5a3,65d6bb0e977760de756971f7,65d6bfa6ab610f7bb580d626,0.0433,0.0434,1,11,173,86,1,eightsix,,,,,,,,,,,,,,,,,,,,,,,,,,,,,,,,,,,,,,,,,,,,,,,,,,,,,,,,,,,,,,,,,,,,,,,,,,,,,,,,,,,,,,,,,,,,,,,,,,,,,,,,,,,,,,,,,,,,,,,,,,,,,,,,,,,,,,,,,
,,6509fe5bcfaa6c451f85d5a3,2024-02-21_22h30.04.503,kallum_motion_pilot,2023.2.2,Win32,59.88023952,6509fe5bcfaa6c451f85d5a3,65d6bb0e977760de756971f7,65d6bfa6ab610f7bb580d626,0.0435,0.0435,1,12,174,138,1,sixfive,,,,,,,,,,,,,,,,,,,,,,,,,,,,,,,,,,,,,,,,,,,,,,,,,,,,,,,,,,,,,,,,,,,,,,,,,,,,,,,,,,,,,,,,,,,,,,,,,,,,,,,,,,,,,,,,,,,,,,,,,,,,,,,,,,,,,,,,,
,,6509fe5bcfaa6c451f85d5a3,2024-02-21_22h30.04.503,kallum_motion_pilot,2023.2.2,Win32,59.88023952,6509fe5bcfaa6c451f85d5a3,65d6bb0e977760de756971f7,65d6bfa6ab610f7bb580d626,0.0436,0.0436,1,13,175,109,1,seveneight,,,,,,,,,,,,,,,,,,,,,,,,,,,,,,,,,,,,,,,,,,,,,,,,,,,,,,,,,,,,,,,,,,,,,,,,,,,,,,,,,,,,,,,,,,,,,,,,,,,,,,,,,,,,,,,,,,,,,,,,,,,,,,,,,,,,,,,,,
,,6509fe5bcfaa6c451f85d5a3,2024-02-21_22h30.04.503,kallum_motion_pilot,2023.2.2,Win32,59.88023952,6509fe5bcfaa6c451f85d5a3,65d6bb0e977760de756971f7,65d6bfa6ab610f7bb580d626,0.0436,0.0437,1,14,176,126,1,eightsix,,,,,,,,,,,,,,,,,,,,,,,,,,,,,,,,,,,,,,,,,,,,,,,,,,,,,,,,,,,,,,,,,,,,,,,,,,,,,,,,,,,,,,,,,,,,,,,,,,,,,,,,,,,,,,,,,,,,,,,,,,,,,,,,,,,,,,,,,
,,6509fe5bcfaa6c451f85d5a3,2024-02-21_22h30.04.503,kallum_motion_pilot,2023.2.2,Win32,59.88023952,6509fe5bcfaa6c451f85d5a3,65d6bb0e977760de756971f7,65d6bfa6ab610f7bb580d626,0.0437,0.0437,1,15,177,14,1,fourtwo,,,,,,,,,,,,,,,,,,,,,,,,,,,,,,,,,,,,,,,,,,,,,,,,,,,,,,,,,,,,,,,,,,,,,,,,,,,,,,,,,,,,,,,,,,,,,,,,,,,,,,,,,,,,,,,,,,,,,,,,,,,,,,,,,,,,,,,,,
,,6509fe5bcfaa6c451f85d5a3,2024-02-21_22h30.04.503,kallum_motion_pilot,2023.2.2,Win32,59.88023952,6509fe5bcfaa6c451f85d5a3,65d6bb0e977760de756971f7,65d6bfa6ab610f7bb580d626,0.0438,0.0438,1,16,178,101,1,seveneight,,,,,,,,,,,,,,,,,,,,,,,,,,,,,,,,,,,,,,,,,,,,,,,,,,,,,,,,,,,,,,,,,,,,,,,,,,,,,,,,,,,,,,,,,,,,,,,,,,,,,,,,,,,,,,,,,,,,,,,,,,,,,,,,,,,,,,,,,
,,6509fe5bcfaa6c451f85d5a3,2024-02-21_22h30.04.503,kallum_motion_pilot,2023.2.2,Win32,59.88023952,6509fe5bcfaa6c451f85d5a3,65d6bb0e977760de756971f7,65d6bfa6ab610f7bb580d626,0.0439,0.0439,1,17,179,46,1,fourtwo,,,,,,,,,,,,,,,,,,,,,,,,,,,,,,,,,,,,,,,,,,,,,,,,,,,,,,,,,,,,,,,,,,,,,,,,,,,,,,,,,,,,,,,,,,,,,,,,,,,,,,,,,,,,,,,,,,,,,,,,,,,,,,,,,,,,,,,,,
,,6509fe5bcfaa6c451f85d5a3,2024-02-21_22h30.04.503,kallum_motion_pilot,2023.2.2,Win32,59.88023952,6509fe5bcfaa6c451f85d5a3,65d6bb0e977760de756971f7,65d6bfa6ab610f7bb580d626,0.044,0.0441,1,18,180,31,1,fourthree,,,,,,,,,,,,,,,,,,,,,,,,,,,,,,,,,,,,,,,,,,,,,,,,,,,,,,,,,,,,,,,,,,,,,,,,,,,,,,,,,,,,,,,,,,,,,,,,,,,,,,,,,,,,,,,,,,,,,,,,,,,,,,,,,,,,,,,,,
,,6509fe5bcfaa6c451f85d5a3,2024-02-21_22h30.04.503,kallum_motion_pilot,2023.2.2,Win32,59.88023952,6509fe5bcfaa6c451f85d5a3,65d6bb0e977760de756971f7,65d6bfa6ab610f7bb580d626,0.0441,0.0441,1,19,181,16,1,onetwo,,,,,,,,,,,,,,,,,,,,,,,,,,,,,,,,,,,,,,,,,,,,,,,,,,,,,,,,,,,,,,,,,,,,,,,,,,,,,,,,,,,,,,,,,,,,,,,,,,,,,,,,,,,,,,,,,,,,,,,,,,,,,,,,,,,,,,,,,
,,6509fe5bcfaa6c451f85d5a3,2024-02-21_22h30.04.503,kallum_motion_pilot,2023.2.2,Win32,59.88023952,6509fe5bcfaa6c451f85d5a3,65d6bb0e977760de756971f7,65d6bfa6ab610f7bb580d626,0.0442,0.0443,1,20,182,132,1,sevenfive,,,,,,,,,,,,,,,,,,,,,,,,,,,,,,,,,,,,,,,,,,,,,,,,,,,,,,,,,,,,,,,,,,,,,,,,,,,,,,,,,,,,,,,,,,,,,,,,,,,,,,,,,,,,,,,,,,,,,,,,,,,,,,,,,,,,,,,,,
,,6509fe5bcfaa6c451f85d5a3,2024-02-21_22h30.04.503,kallum_motion_pilot,2023.2.2,Win32,59.88023952,6509fe5bcfaa6c451f85d5a3,65d6bb0e977760de756971f7,65d6bfa6ab610f7bb580d626,0.0444,0.0444,1,21,183,88,1,fivesix,,,,,,,,,,,,,,,,,,,,,,,,,,,,,,,,,,,,,,,,,,,,,,,,,,,,,,,,,,,,,,,,,,,,,,,,,,,,,,,,,,,,,,,,,,,,,,,,,,,,,,,,,,,,,,,,,,,,,,,,,,,,,,,,,,,,,,,,,
,,6509fe5bcfaa6c451f85d5a3,2024-02-21_22h30.04.503,kallum_motion_pilot,2023.2.2,Win32,59.88023952,6509fe5bcfaa6c451f85d5a3,65d6bb0e977760de756971f7,65d6bfa6ab610f7bb580d626,0.0445,0.0445,1,22,184,71,1,fourthree,,,,,,,,,,,,,,,,,,,,,,,,,,,,,,,,,,,,,,,,,,,,,,,,,,,,,,,,,,,,,,,,,,,,,,,,,,,,,,,,,,,,,,,,,,,,,,,,,,,,,,,,,,,,,,,,,,,,,,,,,,,,,,,,,,,,,,,,,
,,6509fe5bcfaa6c451f85d5a3,2024-02-21_22h30.04.503,kallum_motion_pilot,2023.2.2,Win32,59.88023952,6509fe5bcfaa6c451f85d5a3,65d6bb0e977760de756971f7,65d6bfa6ab610f7bb580d626,0.0445,0.0446,1,23,185,53,1,threefour,,,,,,,,,,,,,,,,,,,,,,,,,,,,,,,,,,,,,,,,,,,,,,,,,,,,,,,,,,,,,,,,,,,,,,,,,,,,,,,,,,,,,,,,,,,,,,,,,,,,,,,,,,,,,,,,,,,,,,,,,,,,,,,,,,,,,,,,,
,,6509fe5bcfaa6c451f85d5a3,2024-02-21_22h30.04.503,kallum_motion_pilot,2023.2.2,Win32,59.88023952,6509fe5bcfaa6c451f85d5a3,65d6bb0e977760de756971f7,65d6bfa6ab610f7bb580d626,0.0447,0.0447,1,24,186,77,1,threefour,,,,,,,,,,,,,,,,,,,,,,,,,,,,,,,,,,,,,,,,,,,,,,,,,,,,,,,,,,,,,,,,,,,,,,,,,,,,,,,,,,,,,,,,,,,,,,,,,,,,,,,,,,,,,,,,,,,,,,,,,,,,,,,,,,,,,,,,,
,,6509fe5bcfaa6c451f85d5a3,2024-02-21_22h30.04.503,kallum_motion_pilot,2023.2.2,Win32,59.88023952,6509fe5bcfaa6c451f85d5a3,65d6bb0e977760de756971f7,65d6bfa6ab610f7bb580d626,0.0448,0.0448,1,25,187,119,1,eightseven,,,,,,,,,,,,,,,,,,,,,,,,,,,,,,,,,,,,,,,,,,,,,,,,,,,,,,,,,,,,,,,,,,,,,,,,,,,,,,,,,,,,,,,,,,,,,,,,,,,,,,,,,,,,,,,,,,,,,,,,,,,,,,,,,,,,,,,,,
,,6509fe5bcfaa6c451f85d5a3,2024-02-21_22h30.04.503,kallum_motion_pilot,2023.2.2,Win32,59.88023952,6509fe5bcfaa6c451f85d5a3,65d6bb0e977760de756971f7,65d6bfa6ab610f7bb580d626,0.0448,0.0449,1,26,188,105,1,fiveseven,,,,,,,,,,,,,,,,,,,,,,,,,,,,,,,,,,,,,,,,,,,,,,,,,,,,,,,,,,,,,,,,,,,,,,,,,,,,,,,,,,,,,,,,,,,,,,,,,,,,,,,,,,,,,,,,,,,,,,,,,,,,,,,,,,,,,,,,,
,,6509fe5bcfaa6c451f85d5a3,2024-02-21_22h30.04.503,kallum_motion_pilot,2023.2.2,Win32,59.88023952,6509fe5bcfaa6c451f85d5a3,65d6bb0e977760de756971f7,65d6bfa6ab610f7bb580d626,0.045,0.0451,1,27,189,55,1,fourthree,,,,,,,,,,,,,,,,,,,,,,,,,,,,,,,,,,,,,,,,,,,,,,,,,,,,,,,,,,,,,,,,,,,,,,,,,,,,,,,,,,,,,,,,,,,,,,,,,,,,,,,,,,,,,,,,,,,,,,,,,,,,,,,,,,,,,,,,,
,,6509fe5bcfaa6c451f85d5a3,2024-02-21_22h30.04.503,kallum_motion_pilot,2023.2.2,Win32,59.88023952,6509fe5bcfaa6c451f85d5a3,65d6bb0e977760de756971f7,65d6bfa6ab610f7bb580d626,0.0451,0.0451,1,28,190,74,1,twoone,,,,,,,,,,,,,,,,,,,,,,,,,,,,,,,,,,,,,,,,,,,,,,,,,,,,,,,,,,,,,,,,,,,,,,,,,,,,,,,,,,,,,,,,,,,,,,,,,,,,,,,,,,,,,,,,,,,,,,,,,,,,,,,,,,,,,,,,,
,,6509fe5bcfaa6c451f85d5a3,2024-02-21_22h30.04.503,kallum_motion_pilot,2023.2.2,Win32,59.88023952,6509fe5bcfaa6c451f85d5a3,65d6bb0e977760de756971f7,65d6bfa6ab610f7bb580d626,0.0452,0.0452,1,29,191,118,1,eightsix,,,,,,,,,,,,,,,,,,,,,,,,,,,,,,,,,,,,,,,,,,,,,,,,,,,,,,,,,,,,,,,,,,,,,,,,,,,,,,,,,,,,,,,,,,,,,,,,,,,,,,,,,,,,,,,,,,,,,,,,,,,,,,,,,,,,,,,,,
,,6509fe5bcfaa6c451f85d5a3,2024-02-21_22h30.04.503,kallum_motion_pilot,2023.2.2,Win32,59.88023952,6509fe5bcfaa6c451f85d5a3,65d6bb0e977760de756971f7,65d6bfa6ab610f7bb580d626,0.0452,0.0453,1,30,192,107,1,sixeight,,,,,,,,,,,,,,,,,,,,,,,,,,,,,,,,,,,,,,,,,,,,,,,,,,,,,,,,,,,,,,,,,,,,,,,,,,,,,,,,,,,,,,,,,,,,,,,,,,,,,,,,,,,,,,,,,,,,,,,,,,,,,,,,,,,,,,,,,
,,6509fe5bcfaa6c451f85d5a3,2024-02-21_22h30.04.503,kallum_motion_pilot,2023.2.2,Win32,59.88023952,6509fe5bcfaa6c451f85d5a3,65d6bb0e977760de756971f7,65d6bfa6ab610f7bb580d626,0.0453,0.0454,1,31,193,29,1,threefour,,,,,,,,,,,,,,,,,,,,,,,,,,,,,,,,,,,,,,,,,,,,,,,,,,,,,,,,,,,,,,,,,,,,,,,,,,,,,,,,,,,,,,,,,,,,,,,,,,,,,,,,,,,,,,,,,,,,,,,,,,,,,,,,,,,,,,,,,
,,6509fe5bcfaa6c451f85d5a3,2024-02-21_22h30.04.503,kallum_motion_pilot,2023.2.2,Win32,59.88023952,6509fe5bcfaa6c451f85d5a3,65d6bb0e977760de756971f7,65d6bfa6ab610f7bb580d626,0.0454,0.0455,1,32,194,80,1,fivesix,,,,,,,,,,,,,,,,,,,,,,,,,,,,,,,,,,,,,,,,,,,,,,,,,,,,,,,,,,,,,,,,,,,,,,,,,,,,,,,,,,,,,,,,,,,,,,,,,,,,,,,,,,,,,,,,,,,,,,,,,,,,,,,,,,,,,,,,,
,,6509fe5bcfaa6c451f85d5a3,2024-02-21_22h30.04.503,kallum_motion_pilot,2023.2.2,Win32,59.88023952,6509fe5bcfaa6c451f85d5a3,65d6bb0e977760de756971f7,65d6bfa6ab610f7bb580d626,0.0455,0.0456,1,33,195,48,1,onetwo,,,,,,,,,,,,,,,,,,,,,,,,,,,,,,,,,,,,,,,,,,,,,,,,,,,,,,,,,,,,,,,,,,,,,,,,,,,,,,,,,,,,,,,,,,,,,,,,,,,,,,,,,,,,,,,,,,,,,,,,,,,,,,,,,,,,,,,,,
,,6509fe5bcfaa6c451f85d5a3,2024-02-21_22h30.04.503,kallum_motion_pilot,2023.2.2,Win32,59.88023952,6509fe5bcfaa6c451f85d5a3,65d6bb0e977760de756971f7,65d6bfa6ab610f7bb580d626,0.0456,0.0457,1,34,196,110,1,eightsix,,,,,,,,,,,,,,,,,,,,,,,,,,,,,,,,,,,,,,,,,,,,,,,,,,,,,,,,,,,,,,,,,,,,,,,,,,,,,,,,,,,,,,,,,,,,,,,,,,,,,,,,,,,,,,,,,,,,,,,,,,,,,,,,,,,,,,,,,
,,6509fe5bcfaa6c451f85d5a3,2024-02-21_22h30.04.503,kallum_motion_pilot,2023.2.2,Win32,59.88023952,6509fe5bcfaa6c451f85d5a3,65d6bb0e977760de756971f7,65d6bfa6ab610f7bb580d626,0.0458,0.0458,1,35,197,92,1,sevenfive,,,,,,,,,,,,,,,,,,,,,,,,,,,,,,,,,,,,,,,,,,,,,,,,,,,,,,,,,,,,,,,,,,,,,,,,,,,,,,,,,,,,,,,,,,,,,,,,,,,,,,,,,,,,,,,,,,,,,,,,,,,,,,,,,,,,,,,,,
,,6509fe5bcfaa6c451f85d5a3,2024-02-21_22h30.04.503,kallum_motion_pilot,2023.2.2,Win32,59.88023952,6509fe5bcfaa6c451f85d5a3,65d6bb0e977760de756971f7,65d6bfa6ab610f7bb580d626,0.0459,0.0459,1,36,198,19,1,twofour,,,,,,,,,,,,,,,,,,,,,,,,,,,,,,,,,,,,,,,,,,,,,,,,,,,,,,,,,,,,,,,,,,,,,,,,,,,,,,,,,,,,,,,,,,,,,,,,,,,,,,,,,,,,,,,,,,,,,,,,,,,,,,,,,,,,,,,,,
,,6509fe5bcfaa6c451f85d5a3,2024-02-21_22h30.04.503,kallum_motion_pilot,2023.2.2,Win32,59.88023952,6509fe5bcfaa6c451f85d5a3,65d6bb0e977760de756971f7,65d6bfa6ab610f7bb580d626,0.0459,0.046,1,37,199,58,1,twoone,,,,,,,,,,,,,,,,,,,,,,,,,,,,,,,,,,,,,,,,,,,,,,,,,,,,,,,,,,,,,,,,,,,,,,,,,,,,,,,,,,,,,,,,,,,,,,,,,,,,,,,,,,,,,,,,,,,,,,,,,,,,,,,,,,,,,,,,,
,,6509fe5bcfaa6c451f85d5a3,2024-02-21_22h30.04.503,kallum_motion_pilot,2023.2.2,Win32,59.88023952,6509fe5bcfaa6c451f85d5a3,65d6bb0e977760de756971f7,65d6bfa6ab610f7bb580d626,0.0461,0.0461,1,38,200,149,1,seveneight,,,,,,,,,,,,,,,,,,,,,,,,,,,,,,,,,,,,,,,,,,,,,,,,,,,,,,,,,,,,,,,,,,,,,,,,,,,,,,,,,,,,,,,,,,,,,,,,,,,,,,,,,,,,,,,,,,,,,,,,,,,,,,,,,,,,,,,,,
,,6509fe5bcfaa6c451f85d5a3,2024-02-21_22h30.04.503,kallum_motion_pilot,2023.2.2,Win32,59.88023952,6509fe5bcfaa6c451f85d5a3,65d6bb0e977760de756971f7,65d6bfa6ab610f7bb580d626,0.0462,0.0462,1,39,201,63,1,fourthree,,,,,,,,,,,,,,,,,,,,,,,,,,,,,,,,,,,,,,,,,,,,,,,,,,,,,,,,,,,,,,,,,,,,,,,,,,,,,,,,,,,,,,,,,,,,,,,,,,,,,,,,,,,,,,,,,,,,,,,,,,,,,,,,,,,,,,,,,
,,6509fe5bcfaa6c451f85d5a3,2024-02-21_22h30.04.503,kallum_motion_pilot,2023.2.2,Win32,59.88023952,6509fe5bcfaa6c451f85d5a3,65d6bb0e977760de756971f7,65d6bfa6ab610f7bb580d626,0.0463,0.0463,1,40,202,8,1,onetwo,,,,,,,,,,,,,,,,,,,,,,,,,,,,,,,,,,,,,,,,,,,,,,,,,,,,,,,,,,,,,,,,,,,,,,,,,,,,,,,,,,,,,,,,,,,,,,,,,,,,,,,,,,,,,,,,,,,,,,,,,,,,,,,,,,,,,,,,,
,,6509fe5bcfaa6c451f85d5a3,2024-02-21_22h30.04.503,kallum_motion_pilot,2023.2.2,Win32,59.88023952,6509fe5bcfaa6c451f85d5a3,65d6bb0e977760de756971f7,65d6bfa6ab610f7bb580d626,0.0463,0.0464,1,41,203,82,1,sixfive,,,,,,,,,,,,,,,,,,,,,,,,,,,,,,,,,,,,,,,,,,,,,,,,,,,,,,,,,,,,,,,,,,,,,,,,,,,,,,,,,,,,,,,,,,,,,,,,,,,,,,,,,,,,,,,,,,,,,,,,,,,,,,,,,,,,,,,,,
,,6509fe5bcfaa6c451f85d5a3,2024-02-21_22h30.04.503,kallum_motion_pilot,2023.2.2,Win32,59.88023952,6509fe5bcfaa6c451f85d5a3,65d6bb0e977760de756971f7,65d6bfa6ab610f7bb580d626,0.0468,0.0468,1,42,204,146,1,sixfive,,,,,,,,,,,,,,,,,,,,,,,,,,,,,,,,,,,,,,,,,,,,,,,,,,,,,,,,,,,,,,,,,,,,,,,,,,,,,,,,,,,,,,,,,,,,,,,,,,,,,,,,,,,,,,,,,,,,,,,,,,,,,,,,,,,,,,,,,
,,6509fe5bcfaa6c451f85d5a3,2024-02-21_22h30.04.503,kallum_motion_pilot,2023.2.2,Win32,59.88023952,6509fe5bcfaa6c451f85d5a3,65d6bb0e977760de756971f7,65d6bfa6ab610f7bb580d626,0.0469,0.0469,1,43,205,134,1,eightsix,,,,,,,,,,,,,,,,,,,,,,,,,,,,,,,,,,,,,,,,,,,,,,,,,,,,,,,,,,,,,,,,,,,,,,,,,,,,,,,,,,,,,,,,,,,,,,,,,,,,,,,,,,,,,,,,,,,,,,,,,,,,,,,,,,,,,,,,,
,,6509fe5bcfaa6c451f85d5a3,2024-02-21_22h30.04.503,kallum_motion_pilot,2023.2.2,Win32,59.88023952,6509fe5bcfaa6c451f85d5a3,65d6bb0e977760de756971f7,65d6bfa6ab610f7bb580d626,0.047,0.047,1,44,206,20,1,threeone,,,,,,,,,,,,,,,,,,,,,,,,,,,,,,,,,,,,,,,,,,,,,,,,,,,,,,,,,,,,,,,,,,,,,,,,,,,,,,,,,,,,,,,,,,,,,,,,,,,,,,,,,,,,,,,,,,,,,,,,,,,,,,,,,,,,,,,,,
,,6509fe5bcfaa6c451f85d5a3,2024-02-21_22h30.04.503,kallum_motion_pilot,2023.2.2,Win32,59.88023952,6509fe5bcfaa6c451f85d5a3,65d6bb0e977760de756971f7,65d6bfa6ab610f7bb580d626,0.0471,0.0471,1,45,207,117,1,seveneight,,,,,,,,,,,,,,,,,,,,,,,,,,,,,,,,,,,,,,,,,,,,,,,,,,,,,,,,,,,,,,,,,,,,,,,,,,,,,,,,,,,,,,,,,,,,,,,,,,,,,,,,,,,,,,,,,,,,,,,,,,,,,,,,,,,,,,,,,
,,6509fe5bcfaa6c451f85d5a3,2024-02-21_22h30.04.503,kallum_motion_pilot,2023.2.2,Win32,59.88023952,6509fe5bcfaa6c451f85d5a3,65d6bb0e977760de756971f7,65d6bfa6ab610f7bb580d626,0.0471,0.0472,1,46,208,56,1,onetwo,,,,,,,,,,,,,,,,,,,,,,,,,,,,,,,,,,,,,,,,,,,,,,,,,,,,,,,,,,,,,,,,,,,,,,,,,,,,,,,,,,,,,,,,,,,,,,,,,,,,,,,,,,,,,,,,,,,,,,,,,,,,,,,,,,,,,,,,,
,,6509fe5bcfaa6c451f85d5a3,2024-02-21_22h30.04.503,kallum_motion_pilot,2023.2.2,Win32,59.88023952,6509fe5bcfaa6c451f85d5a3,65d6bb0e977760de756971f7,65d6bfa6ab610f7bb580d626,0.0473,0.0473,1,47,209,72,1,onetwo,,,,,,,,,,,,,,,,,,,,,,,,,,,,,,,,,,,,,,,,,,,,,,,,,,,,,,,,,,,,,,,,,,,,,,,,,,,,,,,,,,,,,,,,,,,,,,,,,,,,,,,,,,,,,,,,,,,,,,,,,,,,,,,,,,,,,,,,,
,,6509fe5bcfaa6c451f85d5a3,2024-02-21_22h30.04.503,kallum_motion_pilot,2023.2.2,Win32,59.88023952,6509fe5bcfaa6c451f85d5a3,65d6bb0e977760de756971f7,65d6bfa6ab610f7bb580d626,0.0474,0.0474,1,48,210,154,1,sixfive,,,,,,,,,,,,,,,,,,,,,,,,,,,,,,,,,,,,,,,,,,,,,,,,,,,,,,,,,,,,,,,,,,,,,,,,,,,,,,,,,,,,,,,,,,,,,,,,,,,,,,,,,,,,,,,,,,,,,,,,,,,,,,,,,,,,,,,,,
,,6509fe5bcfaa6c451f85d5a3,2024-02-21_22h30.04.503,kallum_motion_pilot,2023.2.2,Win32,59.88023952,6509fe5bcfaa6c451f85d5a3,65d6bb0e977760de756971f7,65d6bfa6ab610f7bb580d626,0.0475,0.0475,1,49,211,70,1,fourtwo,,,,,,,,,,,,,,,,,,,,,,,,,,,,,,,,,,,,,,,,,,,,,,,,,,,,,,,,,,,,,,,,,,,,,,,,,,,,,,,,,,,,,,,,,,,,,,,,,,,,,,,,,,,,,,,,,,,,,,,,,,,,,,,,,,,,,,,,,
,,6509fe5bcfaa6c451f85d5a3,2024-02-21_22h30.04.503,kallum_motion_pilot,2023.2.2,Win32,59.88023952,6509fe5bcfaa6c451f85d5a3,65d6bb0e977760de756971f7,65d6bfa6ab610f7bb580d626,0.0476,0.0477,1,50,212,85,1,seveneight,,,,,,,,,,,,,,,,,,,,,,,,,,,,,,,,,,,,,,,,,,,,,,,,,,,,,,,,,,,,,,,,,,,,,,,,,,,,,,,,,,,,,,,,,,,,,,,,,,,,,,,,,,,,,,,,,,,,,,,,,,,,,,,,,,,,,,,,,
,,6509fe5bcfaa6c451f85d5a3,2024-02-21_22h30.04.503,kallum_motion_pilot,2023.2.2,Win32,59.88023952,6509fe5bcfaa6c451f85d5a3,65d6bb0e977760de756971f7,65d6bfa6ab610f7bb580d626,0.0477,0.0477,1,51,213,25,1,onethree,,,,,,,,,,,,,,,,,,,,,,,,,,,,,,,,,,,,,,,,,,,,,,,,,,,,,,,,,,,,,,,,,,,,,,,,,,,,,,,,,,,,,,,,,,,,,,,,,,,,,,,,,,,,,,,,,,,,,,,,,,,,,,,,,,,,,,,,,
,,6509fe5bcfaa6c451f85d5a3,2024-02-21_22h30.04.503,kallum_motion_pilot,2023.2.2,Win32,59.88023952,6509fe5bcfaa6c451f85d5a3,65d6bb0e977760de756971f7,65d6bfa6ab610f7bb580d626,0.0478,0.0479,1,52,214,148,1,sevenfive,,,,,,,,,,,,,,,,,,,,,,,,,,,,,,,,,,,,,,,,,,,,,,,,,,,,,,,,,,,,,,,,,,,,,,,,,,,,,,,,,,,,,,,,,,,,,,,,,,,,,,,,,,,,,,,,,,,,,,,,,,,,,,,,,,,,,,,,,
,,6509fe5bcfaa6c451f85d5a3,2024-02-21_22h30.04.503,kallum_motion_pilot,2023.2.2,Win32,59.88023952,6509fe5bcfaa6c451f85d5a3,65d6bb0e977760de756971f7,65d6bfa6ab610f7bb580d626,0.048,0.048,1,53,215,44,1,threeone,,,,,,,,,,,,,,,,,,,,,,,,,,,,,,,,,,,,,,,,,,,,,,,,,,,,,,,,,,,,,,,,,,,,,,,,,,,,,,,,,,,,,,,,,,,,,,,,,,,,,,,,,,,,,,,,,,,,,,,,,,,,,,,,,,,,,,,,,
,,6509fe5bcfaa6c451f85d5a3,2024-02-21_22h30.04.503,kallum_motion_pilot,2023.2.2,Win32,59.88023952,6509fe5bcfaa6c451f85d5a3,65d6bb0e977760de756971f7,65d6bfa6ab610f7bb580d626,0.048,0.0481,1,54,216,91,1,sixeight,,,,,,,,,,,,,,,,,,,,,,,,,,,,,,,,,,,,,,,,,,,,,,,,,,,,,,,,,,,,,,,,,,,,,,,,,,,,,,,,,,,,,,,,,,,,,,,,,,,,,,,,,,,,,,,,,,,,,,,,,,,,,,,,,,,,,,,,,
,,6509fe5bcfaa6c451f85d5a3,2024-02-21_22h30.04.503,kallum_motion_pilot,2023.2.2,Win32,59.88023952,6509fe5bcfaa6c451f85d5a3,65d6bb0e977760de756971f7,65d6bfa6ab610f7bb580d626,0.0481,0.0481,1,55,217,43,1,twofour,,,,,,,,,,,,,,,,,,,,,,,,,,,,,,,,,,,,,,,,,,,,,,,,,,,,,,,,,,,,,,,,,,,,,,,,,,,,,,,,,,,,,,,,,,,,,,,,,,,,,,,,,,,,,,,,,,,,,,,,,,,,,,,,,,,,,,,,,
,,6509fe5bcfaa6c451f85d5a3,2024-02-21_22h30.04.503,kallum_motion_pilot,2023.2.2,Win32,59.88023952,6509fe5bcfaa6c451f85d5a3,65d6bb0e977760de756971f7,65d6bfa6ab610f7bb580d626,0.0482,0.0483,1,56,218,155,1,sixeight,,,,,,,,,,,,,,,,,,,,,,,,,,,,,,,,,,,,,,,,,,,,,,,,,,,,,,,,,,,,,,,,,,,,,,,,,,,,,,,,,,,,,,,,,,,,,,,,,,,,,,,,,,,,,,,,,,,,,,,,,,,,,,,,,,,,,,,,,
,,6509fe5bcfaa6c451f85d5a3,2024-02-21_22h30.04.503,kallum_motion_pilot,2023.2.2,Win32,59.88023952,6509fe5bcfaa6c451f85d5a3,65d6bb0e977760de756971f7,65d6bfa6ab610f7bb580d626,0.0483,0.0484,1,57,219,120,1,fivesix,,,,,,,,,,,,,,,,,,,,,,,,,,,,,,,,,,,,,,,,,,,,,,,,,,,,,,,,,,,,,,,,,,,,,,,,,,,,,,,,,,,,,,,,,,,,,,,,,,,,,,,,,,,,,,,,,,,,,,,,,,,,,,,,,,,,,,,,,
,,6509fe5bcfaa6c451f85d5a3,2024-02-21_22h30.04.503,kallum_motion_pilot,2023.2.2,Win32,59.88023952,6509fe5bcfaa6c451f85d5a3,65d6bb0e977760de756971f7,65d6bfa6ab610f7bb580d626,0.0485,0.0485,1,58,220,108,1,sevenfive,,,,,,,,,,,,,,,,,,,,,,,,,,,,,,,,,,,,,,,,,,,,,,,,,,,,,,,,,,,,,,,,,,,,,,,,,,,,,,,,,,,,,,,,,,,,,,,,,,,,,,,,,,,,,,,,,,,,,,,,,,,,,,,,,,,,,,,,,
,,6509fe5bcfaa6c451f85d5a3,2024-02-21_22h30.04.503,kallum_motion_pilot,2023.2.2,Win32,59.88023952,6509fe5bcfaa6c451f85d5a3,65d6bb0e977760de756971f7,65d6bfa6ab610f7bb580d626,0.0485,0.0486,1,59,221,141,1,seveneight,,,,,,,,,,,,,,,,,,,,,,,,,,,,,,,,,,,,,,,,,,,,,,,,,,,,,,,,,,,,,,,,,,,,,,,,,,,,,,,,,,,,,,,,,,,,,,,,,,,,,,,,,,,,,,,,,,,,,,,,,,,,,,,,,,,,,,,,,
,,6509fe5bcfaa6c451f85d5a3,2024-02-21_22h30.04.503,kallum_motion_pilot,2023.2.2,Win32,59.88023952,6509fe5bcfaa6c451f85d5a3,65d6bb0e977760de756971f7,65d6bfa6ab610f7bb580d626,0.0487,0.0487,1,60,222,42,1,twoone,,,,,,,,,,,,,,,,,,,,,,,,,,,,,,,,,,,,,,,,,,,,,,,,,,,,,,,,,,,,,,,,,,,,,,,,,,,,,,,,,,,,,,,,,,,,,,,,,,,,,,,,,,,,,,,,,,,,,,,,,,,,,,,,,,,,,,,,,
,,6509fe5bcfaa6c451f85d5a3,2024-02-21_22h30.04.503,kallum_motion_pilot,2023.2.2,Win32,59.88023952,6509fe5bcfaa6c451f85d5a3,65d6bb0e977760de756971f7,65d6bfa6ab610f7bb580d626,0.0488,0.0488,1,61,223,66,1,twoone,,,,,,,,,,,,,,,,,,,,,,,,,,,,,,,,,,,,,,,,,,,,,,,,,,,,,,,,,,,,,,,,,,,,,,,,,,,,,,,,,,,,,,,,,,,,,,,,,,,,,,,,,,,,,,,,,,,,,,,,,,,,,,,,,,,,,,,,,
,,6509fe5bcfaa6c451f85d5a3,2024-02-21_22h30.04.503,kallum_motion_pilot,2023.2.2,Win32,59.88023952,6509fe5bcfaa6c451f85d5a3,65d6bb0e977760de756971f7,65d6bfa6ab610f7bb580d626,0.0488,0.049,1,62,224,45,1,threefour,,,,,,,,,,,,,,,,,,,,,,,,,,,,,,,,,,,,,,,,,,,,,,,,,,,,,,,,,,,,,,,,,,,,,,,,,,,,,,,,,,,,,,,,,,,,,,,,,,,,,,,,,,,,,,,,,,,,,,,,,,,,,,,,,,,,,,,,,
,,6509fe5bcfaa6c451f85d5a3,2024-02-21_22h30.04.503,kallum_motion_pilot,2023.2.2,Win32,59.88023952,6509fe5bcfaa6c451f85d5a3,65d6bb0e977760de756971f7,65d6bfa6ab610f7bb580d626,0.049,0.049,1,63,225,6,1,fourtwo,,,,,,,,,,,,,,,,,,,,,,,,,,,,,,,,,,,,,,,,,,,,,,,,,,,,,,,,,,,,,,,,,,,,,,,,,,,,,,,,,,,,,,,,,,,,,,,,,,,,,,,,,,,,,,,,,,,,,,,,,,,,,,,,,,,,,,,,,
,,6509fe5bcfaa6c451f85d5a3,2024-02-21_22h30.04.503,kallum_motion_pilot,2023.2.2,Win32,59.88023952,6509fe5bcfaa6c451f85d5a3,65d6bb0e977760de756971f7,65d6bfa6ab610f7bb580d626,0.0491,0.0491,1,64,226,4,1,threeone,,,,,,,,,,,,,,,,,,,,,,,,,,,,,,,,,,,,,,,,,,,,,,,,,,,,,,,,,,,,,,,,,,,,,,,,,,,,,,,,,,,,,,,,,,,,,,,,,,,,,,,,,,,,,,,,,,,,,,,,,,,,,,,,,,,,,,,,,
,,6509fe5bcfaa6c451f85d5a3,2024-02-21_22h30.04.503,kallum_motion_pilot,2023.2.2,Win32,59.88023952,6509fe5bcfaa6c451f85d5a3,65d6bb0e977760de756971f7,65d6bfa6ab610f7bb580d626,0.0492,0.0492,1,65,227,142,1,eightsix,,,,,,,,,,,,,,,,,,,,,,,,,,,,,,,,,,,,,,,,,,,,,,,,,,,,,,,,,,,,,,,,,,,,,,,,,,,,,,,,,,,,,,,,,,,,,,,,,,,,,,,,,,,,,,,,,,,,,,,,,,,,,,,,,,,,,,,,,
,,6509fe5bcfaa6c451f85d5a3,2024-02-21_22h30.04.503,kallum_motion_pilot,2023.2.2,Win32,59.88023952,6509fe5bcfaa6c451f85d5a3,65d6bb0e977760de756971f7,65d6bfa6ab610f7bb580d626,0.0493,0.0493,1,66,228,54,1,fourtwo,,,,,,,,,,,,,,,,,,,,,,,,,,,,,,,,,,,,,,,,,,,,,,,,,,,,,,,,,,,,,,,,,,,,,,,,,,,,,,,,,,,,,,,,,,,,,,,,,,,,,,,,,,,,,,,,,,,,,,,,,,,,,,,,,,,,,,,,,
,,6509fe5bcfaa6c451f85d5a3,2024-02-21_22h30.04.503,kallum_motion_pilot,2023.2.2,Win32,59.88023952,6509fe5bcfaa6c451f85d5a3,65d6bb0e977760de756971f7,65d6bfa6ab610f7bb580d626,0.0494,0.0494,1,67,229,23,1,fourthree,,,,,,,,,,,,,,,,,,,,,,,,,,,,,,,,,,,,,,,,,,,,,,,,,,,,,,,,,,,,,,,,,,,,,,,,,,,,,,,,,,,,,,,,,,,,,,,,,,,,,,,,,,,,,,,,,,,,,,,,,,,,,,,,,,,,,,,,,
,,6509fe5bcfaa6c451f85d5a3,2024-02-21_22h30.04.503,kallum_motion_pilot,2023.2.2,Win32,59.88023952,6509fe5bcfaa6c451f85d5a3,65d6bb0e977760de756971f7,65d6bfa6ab610f7bb580d626,0.0496,0.0496,1,68,230,99,1,sixeight,,,,,,,,,,,,,,,,,,,,,,,,,,,,,,,,,,,,,,,,,,,,,,,,,,,,,,,,,,,,,,,,,,,,,,,,,,,,,,,,,,,,,,,,,,,,,,,,,,,,,,,,,,,,,,,,,,,,,,,,,,,,,,,,,,,,,,,,,
,,6509fe5bcfaa6c451f85d5a3,2024-02-21_22h30.04.503,kallum_motion_pilot,2023.2.2,Win32,59.88023952,6509fe5bcfaa6c451f85d5a3,65d6bb0e977760de756971f7,65d6bfa6ab610f7bb580d626,0.0497,0.0497,1,69,231,95,1,eightseven,,,,,,,,,,,,,,,,,,,,,,,,,,,,,,,,,,,,,,,,,,,,,,,,,,,,,,,,,,,,,,,,,,,,,,,,,,,,,,,,,,,,,,,,,,,,,,,,,,,,,,,,,,,,,,,,,,,,,,,,,,,,,,,,,,,,,,,,,
,,6509fe5bcfaa6c451f85d5a3,2024-02-21_22h30.04.503,kallum_motion_pilot,2023.2.2,Win32,59.88023952,6509fe5bcfaa6c451f85d5a3,65d6bb0e977760de756971f7,65d6bfa6ab610f7bb580d626,0.0497,0.0498,1,70,232,129,1,fiveseven,,,,,,,,,,,,,,,,,,,,,,,,,,,,,,,,,,,,,,,,,,,,,,,,,,,,,,,,,,,,,,,,,,,,,,,,,,,,,,,,,,,,,,,,,,,,,,,,,,,,,,,,,,,,,,,,,,,,,,,,,,,,,,,,,,,,,,,,,
,,6509fe5bcfaa6c451f85d5a3,2024-02-21_22h30.04.503,kallum_motion_pilot,2023.2.2,Win32,59.88023952,6509fe5bcfaa6c451f85d5a3,65d6bb0e977760de756971f7,65d6bfa6ab610f7bb580d626,0.0498,0.0498,1,71,233,78,1,fourtwo,,,,,,,,,,,,,,,,,,,,,,,,,,,,,,,,,,,,,,,,,,,,,,,,,,,,,,,,,,,,,,,,,,,,,,,,,,,,,,,,,,,,,,,,,,,,,,,,,,,,,,,,,,,,,,,,,,,,,,,,,,,,,,,,,,,,,,,,,
,,6509fe5bcfaa6c451f85d5a3,2024-02-21_22h30.04.503,kallum_motion_pilot,2023.2.2,Win32,59.88023952,6509fe5bcfaa6c451f85d5a3,65d6bb0e977760de756971f7,65d6bfa6ab610f7bb580d626,0.05,0.05,1,72,234,32,1,onetwo,,,,,,,,,,,,,,,,,,,,,,,,,,,,,,,,,,,,,,,,,,,,,,,,,,,,,,,,,,,,,,,,,,,,,,,,,,,,,,,,,,,,,,,,,,,,,,,,,,,,,,,,,,,,,,,,,,,,,,,,,,,,,,,,,,,,,,,,,
,,6509fe5bcfaa6c451f85d5a3,2024-02-21_22h30.04.503,kallum_motion_pilot,2023.2.2,Win32,59.88023952,6509fe5bcfaa6c451f85d5a3,65d6bb0e977760de756971f7,65d6bfa6ab610f7bb580d626,0.05,0.0501,1,73,235,161,1,fiveseven,,,,,,,,,,,,,,,,,,,,,,,,,,,,,,,,,,,,,,,,,,,,,,,,,,,,,,,,,,,,,,,,,,,,,,,,,,,,,,,,,,,,,,,,,,,,,,,,,,,,,,,,,,,,,,,,,,,,,,,,,,,,,,,,,,,,,,,,,
,,6509fe5bcfaa6c451f85d5a3,2024-02-21_22h30.04.503,kallum_motion_pilot,2023.2.2,Win32,59.88023952,6509fe5bcfaa6c451f85d5a3,65d6bb0e977760de756971f7,65d6bfa6ab610f7bb580d626,0.0501,0.0502,1,74,236,27,1,twofour,,,,,,,,,,,,,,,,,,,,,,,,,,,,,,,,,,,,,,,,,,,,,,,,,,,,,,,,,,,,,,,,,,,,,,,,,,,,,,,,,,,,,,,,,,,,,,,,,,,,,,,,,,,,,,,,,,,,,,,,,,,,,,,,,,,,,,,,,
,,6509fe5bcfaa6c451f85d5a3,2024-02-21_22h30.04.503,kallum_motion_pilot,2023.2.2,Win32,59.88023952,6509fe5bcfaa6c451f85d5a3,65d6bb0e977760de756971f7,65d6bfa6ab610f7bb580d626,0.0502,0.0503,1,75,237,160,1,fivesix,,,,,,,,,,,,,,,,,,,,,,,,,,,,,,,,,,,,,,,,,,,,,,,,,,,,,,,,,,,,,,,,,,,,,,,,,,,,,,,,,,,,,,,,,,,,,,,,,,,,,,,,,,,,,,,,,,,,,,,,,,,,,,,,,,,,,,,,,
,,6509fe5bcfaa6c451f85d5a3,2024-02-21_22h30.04.503,kallum_motion_pilot,2023.2.2,Win32,59.88023952,6509fe5bcfaa6c451f85d5a3,65d6bb0e977760de756971f7,65d6bfa6ab610f7bb580d626,0.0504,0.0505,1,76,238,34,1,twoone,,,,,,,,,,,,,,,,,,,,,,,,,,,,,,,,,,,,,,,,,,,,,,,,,,,,,,,,,,,,,,,,,,,,,,,,,,,,,,,,,,,,,,,,,,,,,,,,,,,,,,,,,,,,,,,,,,,,,,,,,,,,,,,,,,,,,,,,,
,,6509fe5bcfaa6c451f85d5a3,2024-02-21_22h30.04.503,kallum_motion_pilot,2023.2.2,Win32,59.88023952,6509fe5bcfaa6c451f85d5a3,65d6bb0e977760de756971f7,65d6bfa6ab610f7bb580d626,0.0505,0.0506,1,77,239,57,1,onethree,,,,,,,,,,,,,,,,,,,,,,,,,,,,,,,,,,,,,,,,,,,,,,,,,,,,,,,,,,,,,,,,,,,,,,,,,,,,,,,,,,,,,,,,,,,,,,,,,,,,,,,,,,,,,,,,,,,,,,,,,,,,,,,,,,,,,,,,,
,,6509fe5bcfaa6c451f85d5a3,2024-02-21_22h30.04.503,kallum_motion_pilot,2023.2.2,Win32,59.88023952,6509fe5bcfaa6c451f85d5a3,65d6bb0e977760de756971f7,65d6bfa6ab610f7bb580d626,0.0506,0.0506,1,78,240,84,1,sevenfive,,,,,,,,,,,,,,,,,,,,,,,,,,,,,,,,,,,,,,,,,,,,,,,,,,,,,,,,,,,,,,,,,,,,,,,,,,,,,,,,,,,,,,,,,,,,,,,,,,,,,,,,,,,,,,,,,,,,,,,,,,,,,,,,,,,,,,,,,
,,6509fe5bcfaa6c451f85d5a3,2024-02-21_22h30.04.503,kallum_motion_pilot,2023.2.2,Win32,59.88023952,6509fe5bcfaa6c451f85d5a3,65d6bb0e977760de756971f7,65d6bfa6ab610f7bb580d626,0.0507,0.0508,1,79,241,103,1,eightseven,,,,,,,,,,,,,,,,,,,,,,,,,,,,,,,,,,,,,,,,,,,,,,,,,,,,,,,,,,,,,,,,,,,,,,,,,,,,,,,,,,,,,,,,,,,,,,,,,,,,,,,,,,,,,,,,,,,,,,,,,,,,,,,,,,,,,,,,,
,,6509fe5bcfaa6c451f85d5a3,2024-02-21_22h30.04.503,kallum_motion_pilot,2023.2.2,Win32,59.88023952,6509fe5bcfaa6c451f85d5a3,65d6bb0e977760de756971f7,65d6bfa6ab610f7bb580d626,0.0508,0.0509,1,80,242,0,1,onetwo,,,,,,,,,,,,,,,,,,,,,,,,,,,,,,,,,,,,,,,,,,,,,,,,,,,,,,,,,,,,,,,,,,,,,,,,,,,,,,,,,,,,,,,,,,,,,,,,,,,,,,,,,,,,,,,,,,,,,,,,,,,,,,,,,,,,,,,,,
,,6509fe5bcfaa6c451f85d5a3,2024-02-21_22h30.04.503,kallum_motion_pilot,2023.2.2,Win32,59.88023952,6509fe5bcfaa6c451f85d5a3,65d6bb0e977760de756971f7,65d6bfa6ab610f7bb580d626,0.0509,0.0509,1,81,243,67,1,twofour,,,,,,,,,,,,,,,,,,,,,,,,,,,,,,,,,,,,,,,,,,,,,,,,,,,,,,,,,,,,,,,,,,,,,,,,,,,,,,,,,,,,,,,,,,,,,,,,,,,,,,,,,,,,,,,,,,,,,,,,,,,,,,,,,,,,,,,,,
,,6509fe5bcfaa6c451f85d5a3,2024-02-21_22h30.04.503,kallum_motion_pilot,2023.2.2,Win32,59.88023952,6509fe5bcfaa6c451f85d5a3,65d6bb0e977760de756971f7,65d6bfa6ab610f7bb580d626,0.051,0.0511,1,82,244,39,1,fourthree,,,,,,,,,,,,,,,,,,,,,,,,,,,,,,,,,,,,,,,,,,,,,,,,,,,,,,,,,,,,,,,,,,,,,,,,,,,,,,,,,,,,,,,,,,,,,,,,,,,,,,,,,,,,,,,,,,,,,,,,,,,,,,,,,,,,,,,,,
,,6509fe5bcfaa6c451f85d5a3,2024-02-21_22h30.04.503,kallum_motion_pilot,2023.2.2,Win32,59.88023952,6509fe5bcfaa6c451f85d5a3,65d6bb0e977760de756971f7,65d6bfa6ab610f7bb580d626,0.0511,0.0512,1,83,245,100,1,sevenfive,,,,,,,,,,,,,,,,,,,,,,,,,,,,,,,,,,,,,,,,,,,,,,,,,,,,,,,,,,,,,,,,,,,,,,,,,,,,,,,,,,,,,,,,,,,,,,,,,,,,,,,,,,,,,,,,,,,,,,,,,,,,,,,,,,,,,,,,,
,,6509fe5bcfaa6c451f85d5a3,2024-02-21_22h30.04.503,kallum_motion_pilot,2023.2.2,Win32,59.88023952,6509fe5bcfaa6c451f85d5a3,65d6bb0e977760de756971f7,65d6bfa6ab610f7bb580d626,0.0512,0.0512,1,84,246,111,1,eightseven,,,,,,,,,,,,,,,,,,,,,,,,,,,,,,,,,,,,,,,,,,,,,,,,,,,,,,,,,,,,,,,,,,,,,,,,,,,,,,,,,,,,,,,,,,,,,,,,,,,,,,,,,,,,,,,,,,,,,,,,,,,,,,,,,,,,,,,,,
,,6509fe5bcfaa6c451f85d5a3,2024-02-21_22h30.04.503,kallum_motion_pilot,2023.2.2,Win32,59.88023952,6509fe5bcfaa6c451f85d5a3,65d6bb0e977760de756971f7,65d6bfa6ab610f7bb580d626,0.0513,0.0513,1,85,247,81,1,fiveseven,,,,,,,,,,,,,,,,,,,,,,,,,,,,,,,,,,,,,,,,,,,,,,,,,,,,,,,,,,,,,,,,,,,,,,,,,,,,,,,,,,,,,,,,,,,,,,,,,,,,,,,,,,,,,,,,,,,,,,,,,,,,,,,,,,,,,,,,,
,,6509fe5bcfaa6c451f85d5a3,2024-02-21_22h30.04.503,kallum_motion_pilot,2023.2.2,Win32,59.88023952,6509fe5bcfaa6c451f85d5a3,65d6bb0e977760de756971f7,65d6bfa6ab610f7bb580d626,0.0514,0.0515,1,86,248,104,1,fivesix,,,,,,,,,,,,,,,,,,,,,,,,,,,,,,,,,,,,,,,,,,,,,,,,,,,,,,,,,,,,,,,,,,,,,,,,,,,,,,,,,,,,,,,,,,,,,,,,,,,,,,,,,,,,,,,,,,,,,,,,,,,,,,,,,,,,,,,,,
,,6509fe5bcfaa6c451f85d5a3,2024-02-21_22h30.04.503,kallum_motion_pilot,2023.2.2,Win32,59.88023952,6509fe5bcfaa6c451f85d5a3,65d6bb0e977760de756971f7,65d6bfa6ab610f7bb580d626,0.0515,0.0516,1,87,249,147,1,sixeight,,,,,,,,,,,,,,,,,,,,,,,,,,,,,,,,,,,,,,,,,,,,,,,,,,,,,,,,,,,,,,,,,,,,,,,,,,,,,,,,,,,,,,,,,,,,,,,,,,,,,,,,,,,,,,,,,,,,,,,,,,,,,,,,,,,,,,,,,
,,6509fe5bcfaa6c451f85d5a3,2024-02-21_22h30.04.503,kallum_motion_pilot,2023.2.2,Win32,59.88023952,6509fe5bcfaa6c451f85d5a3,65d6bb0e977760de756971f7,65d6bfa6ab610f7bb580d626,0.0517,0.0517,1,88,250,140,1,sevenfive,,,,,,,,,,,,,,,,,,,,,,,,,,,,,,,,,,,,,,,,,,,,,,,,,,,,,,,,,,,,,,,,,,,,,,,,,,,,,,,,,,,,,,,,,,,,,,,,,,,,,,,,,,,,,,,,,,,,,,,,,,,,,,,,,,,,,,,,,
,,6509fe5bcfaa6c451f85d5a3,2024-02-21_22h30.04.503,kallum_motion_pilot,2023.2.2,Win32,59.88023952,6509fe5bcfaa6c451f85d5a3,65d6bb0e977760de756971f7,65d6bfa6ab610f7bb580d626,0.0517,0.0518,1,89,251,94,1,eightsix,,,,,,,,,,,,,,,,,,,,,,,,,,,,,,,,,,,,,,,,,,,,,,,,,,,,,,,,,,,,,,,,,,,,,,,,,,,,,,,,,,,,,,,,,,,,,,,,,,,,,,,,,,,,,,,,,,,,,,,,,,,,,,,,,,,,,,,,,
,,6509fe5bcfaa6c451f85d5a3,2024-02-21_22h30.04.503,kallum_motion_pilot,2023.2.2,Win32,59.88023952,6509fe5bcfaa6c451f85d5a3,65d6bb0e977760de756971f7,65d6bfa6ab610f7bb580d626,0.0518,0.0519,1,90,252,127,1,eightseven,,,,,,,,,,,,,,,,,,,,,,,,,,,,,,,,,,,,,,,,,,,,,,,,,,,,,,,,,,,,,,,,,,,,,,,,,,,,,,,,,,,,,,,,,,,,,,,,,,,,,,,,,,,,,,,,,,,,,,,,,,,,,,,,,,,,,,,,,
,,6509fe5bcfaa6c451f85d5a3,2024-02-21_22h30.04.503,kallum_motion_pilot,2023.2.2,Win32,59.88023952,6509fe5bcfaa6c451f85d5a3,65d6bb0e977760de756971f7,65d6bfa6ab610f7bb580d626,0.052,0.052,1,91,253,69,1,threefour,,,,,,,,,,,,,,,,,,,,,,,,,,,,,,,,,,,,,,,,,,,,,,,,,,,,,,,,,,,,,,,,,,,,,,,,,,,,,,,,,,,,,,,,,,,,,,,,,,,,,,,,,,,,,,,,,,,,,,,,,,,,,,,,,,,,,,,,,
,,6509fe5bcfaa6c451f85d5a3,2024-02-21_22h30.04.503,kallum_motion_pilot,2023.2.2,Win32,59.88023952,6509fe5bcfaa6c451f85d5a3,65d6bb0e977760de756971f7,65d6bfa6ab610f7bb580d626,0.0521,0.0521,1,92,254,152,1,fivesix,,,,,,,,,,,,,,,,,,,,,,,,,,,,,,,,,,,,,,,,,,,,,,,,,,,,,,,,,,,,,,,,,,,,,,,,,,,,,,,,,,,,,,,,,,,,,,,,,,,,,,,,,,,,,,,,,,,,,,,,,,,,,,,,,,,,,,,,,
,,6509fe5bcfaa6c451f85d5a3,2024-02-21_22h30.04.503,kallum_motion_pilot,2023.2.2,Win32,59.88023952,6509fe5bcfaa6c451f85d5a3,65d6bb0e977760de756971f7,65d6bfa6ab610f7bb580d626,0.0522,0.0523,1,93,255,61,1,threefour,,,,,,,,,,,,,,,,,,,,,,,,,,,,,,,,,,,,,,,,,,,,,,,,,,,,,,,,,,,,,,,,,,,,,,,,,,,,,,,,,,,,,,,,,,,,,,,,,,,,,,,,,,,,,,,,,,,,,,,,,,,,,,,,,,,,,,,,,
,,6509fe5bcfaa6c451f85d5a3,2024-02-21_22h30.04.503,kallum_motion_pilot,2023.2.2,Win32,59.88023952,6509fe5bcfaa6c451f85d5a3,65d6bb0e977760de756971f7,65d6bfa6ab610f7bb580d626,0.0523,0.0524,1,94,256,3,1,twofour,,,,,,,,,,,,,,,,,,,,,,,,,,,,,,,,,,,,,,,,,,,,,,,,,,,,,,,,,,,,,,,,,,,,,,,,,,,,,,,,,,,,,,,,,,,,,,,,,,,,,,,,,,,,,,,,,,,,,,,,,,,,,,,,,,,,,,,,,
,,6509fe5bcfaa6c451f85d5a3,2024-02-21_22h30.04.503,kallum_motion_pilot,2023.2.2,Win32,59.88023952,6509fe5bcfaa6c451f85d5a3,65d6bb0e977760de756971f7,65d6bfa6ab610f7bb580d626,0.0524,0.0525,1,95,257,47,1,fourthree,,,,,,,,,,,,,,,,,,,,,,,,,,,,,,,,,,,,,,,,,,,,,,,,,,,,,,,,,,,,,,,,,,,,,,,,,,,,,,,,,,,,,,,,,,,,,,,,,,,,,,,,,,,,,,,,,,,,,,,,,,,,,,,,,,,,,,,,,
,,6509fe5bcfaa6c451f85d5a3,2024-02-21_22h30.04.503,kallum_motion_pilot,2023.2.2,Win32,59.88023952,6509fe5bcfaa6c451f85d5a3,65d6bb0e977760de756971f7,65d6bfa6ab610f7bb580d626,0.0525,0.0526,1,96,258,11,1,twofour,,,,,,,,,,,,,,,,,,,,,,,,,,,,,,,,,,,,,,,,,,,,,,,,,,,,,,,,,,,,,,,,,,,,,,,,,,,,,,,,,,,,,,,,,,,,,,,,,,,,,,,,,,,,,,,,,,,,,,,,,,,,,,,,,,,,,,,,,
,,6509fe5bcfaa6c451f85d5a3,2024-02-21_22h30.04.503,kallum_motion_pilot,2023.2.2,Win32,59.88023952,6509fe5bcfaa6c451f85d5a3,65d6bb0e977760de756971f7,65d6bfa6ab610f7bb580d626,0.0527,0.0527,1,97,259,13,1,threefour,,,,,,,,,,,,,,,,,,,,,,,,,,,,,,,,,,,,,,,,,,,,,,,,,,,,,,,,,,,,,,,,,,,,,,,,,,,,,,,,,,,,,,,,,,,,,,,,,,,,,,,,,,,,,,,,,,,,,,,,,,,,,,,,,,,,,,,,,
,,6509fe5bcfaa6c451f85d5a3,2024-02-21_22h30.04.503,kallum_motion_pilot,2023.2.2,Win32,59.88023952,6509fe5bcfaa6c451f85d5a3,65d6bb0e977760de756971f7,65d6bfa6ab610f7bb580d626,0.0527,0.0528,1,98,260,37,1,threefour,,,,,,,,,,,,,,,,,,,,,,,,,,,,,,,,,,,,,,,,,,,,,,,,,,,,,,,,,,,,,,,,,,,,,,,,,,,,,,,,,,,,,,,,,,,,,,,,,,,,,,,,,,,,,,,,,,,,,,,,,,,,,,,,,,,,,,,,,
,,6509fe5bcfaa6c451f85d5a3,2024-02-21_22h30.04.503,kallum_motion_pilot,2023.2.2,Win32,59.88023952,6509fe5bcfaa6c451f85d5a3,65d6bb0e977760de756971f7,65d6bfa6ab610f7bb580d626,0.0528,0.0529,1,99,261,5,1,threefour,,,,,,,,,,,,,,,,,,,,,,,,,,,,,,,,,,,,,,,,,,,,,,,,,,,,,,,,,,,,,,,,,,,,,,,,,,,,,,,,,,,,,,,,,,,,,,,,,,,,,,,,,,,,,,,,,,,,,,,,,,,,,,,,,,,,,,,,,
,,6509fe5bcfaa6c451f85d5a3,2024-02-21_22h30.04.503,kallum_motion_pilot,2023.2.2,Win32,59.88023952,6509fe5bcfaa6c451f85d5a3,65d6bb0e977760de756971f7,65d6bfa6ab610f7bb580d626,0.0529,0.053,1,100,262,135,1,eightseven,,,,,,,,,,,,,,,,,,,,,,,,,,,,,,,,,,,,,,,,,,,,,,,,,,,,,,,,,,,,,,,,,,,,,,,,,,,,,,,,,,,,,,,,,,,,,,,,,,,,,,,,,,,,,,,,,,,,,,,,,,,,,,,,,,,,,,,,,
,,6509fe5bcfaa6c451f85d5a3,2024-02-21_22h30.04.503,kallum_motion_pilot,2023.2.2,Win32,59.88023952,6509fe5bcfaa6c451f85d5a3,65d6bb0e977760de756971f7,65d6bfa6ab610f7bb580d626,0.0531,0.0532,1,101,263,153,1,fiveseven,,,,,,,,,,,,,,,,,,,,,,,,,,,,,,,,,,,,,,,,,,,,,,,,,,,,,,,,,,,,,,,,,,,,,,,,,,,,,,,,,,,,,,,,,,,,,,,,,,,,,,,,,,,,,,,,,,,,,,,,,,,,,,,,,,,,,,,,,
,,6509fe5bcfaa6c451f85d5a3,2024-02-21_22h30.04.503,kallum_motion_pilot,2023.2.2,Win32,59.88023952,6509fe5bcfaa6c451f85d5a3,65d6bb0e977760de756971f7,65d6bfa6ab610f7bb580d626,0.0532,0.0533,1,102,264,36,1,threeone,,,,,,,,,,,,,,,,,,,,,,,,,,,,,,,,,,,,,,,,,,,,,,,,,,,,,,,,,,,,,,,,,,,,,,,,,,,,,,,,,,,,,,,,,,,,,,,,,,,,,,,,,,,,,,,,,,,,,,,,,,,,,,,,,,,,,,,,,
,,6509fe5bcfaa6c451f85d5a3,2024-02-21_22h30.04.503,kallum_motion_pilot,2023.2.2,Win32,59.88023952,6509fe5bcfaa6c451f85d5a3,65d6bb0e977760de756971f7,65d6bfa6ab610f7bb580d626,0.0534,0.0534,1,103,265,143,1,eightseven,,,,,,,,,,,,,,,,,,,,,,,,,,,,,,,,,,,,,,,,,,,,,,,,,,,,,,,,,,,,,,,,,,,,,,,,,,,,,,,,,,,,,,,,,,,,,,,,,,,,,,,,,,,,,,,,,,,,,,,,,,,,,,,,,,,,,,,,,
,,6509fe5bcfaa6c451f85d5a3,2024-02-21_22h30.04.503,kallum_motion_pilot,2023.2.2,Win32,59.88023952,6509fe5bcfaa6c451f85d5a3,65d6bb0e977760de756971f7,65d6bfa6ab610f7bb580d626,0.0535,0.0536,1,104,266,158,1,eightsix,,,,,,,,,,,,,,,,,,,,,,,,,,,,,,,,,,,,,,,,,,,,,,,,,,,,,,,,,,,,,,,,,,,,,,,,,,,,,,,,,,,,,,,,,,,,,,,,,,,,,,,,,,,,,,,,,,,,,,,,,,,,,,,,,,,,,,,,,
,,6509fe5bcfaa6c451f85d5a3,2024-02-21_22h30.04.503,kallum_motion_pilot,2023.2.2,Win32,59.88023952,6509fe5bcfaa6c451f85d5a3,65d6bb0e977760de756971f7,65d6bfa6ab610f7bb580d626,0.0536,0.0536,1,105,267,93,1,seveneight,,,,,,,,,,,,,,,,,,,,,,,,,,,,,,,,,,,,,,,,,,,,,,,,,,,,,,,,,,,,,,,,,,,,,,,,,,,,,,,,,,,,,,,,,,,,,,,,,,,,,,,,,,,,,,,,,,,,,,,,,,,,,,,,,,,,,,,,,
,,6509fe5bcfaa6c451f85d5a3,2024-02-21_22h30.04.503,kallum_motion_pilot,2023.2.2,Win32,59.88023952,6509fe5bcfaa6c451f85d5a3,65d6bb0e977760de756971f7,65d6bfa6ab610f7bb580d626,0.0537,0.0539,1,106,268,18,1,twoone,,,,,,,,,,,,,,,,,,,,,,,,,,,,,,,,,,,,,,,,,,,,,,,,,,,,,,,,,,,,,,,,,,,,,,,,,,,,,,,,,,,,,,,,,,,,,,,,,,,,,,,,,,,,,,,,,,,,,,,,,,,,,,,,,,,,,,,,,
,,6509fe5bcfaa6c451f85d5a3,2024-02-21_22h30.04.503,kallum_motion_pilot,2023.2.2,Win32,59.88023952,6509fe5bcfaa6c451f85d5a3,65d6bb0e977760de756971f7,65d6bfa6ab610f7bb580d626,0.054,0.0541,1,107,269,68,1,threeone,,,,,,,,,,,,,,,,,,,,,,,,,,,,,,,,,,,,,,,,,,,,,,,,,,,,,,,,,,,,,,,,,,,,,,,,,,,,,,,,,,,,,,,,,,,,,,,,,,,,,,,,,,,,,,,,,,,,,,,,,,,,,,,,,,,,,,,,,
,,6509fe5bcfaa6c451f85d5a3,2024-02-21_22h30.04.503,kallum_motion_pilot,2023.2.2,Win32,59.88023952,6509fe5bcfaa6c451f85d5a3,65d6bb0e977760de756971f7,65d6bfa6ab610f7bb580d626,0.0542,0.0544,1,108,270,113,1,fiveseven,,,,,,,,,,,,,,,,,,,,,,,,,,,,,,,,,,,,,,,,,,,,,,,,,,,,,,,,,,,,,,,,,,,,,,,,,,,,,,,,,,,,,,,,,,,,,,,,,,,,,,,,,,,,,,,,,,,,,,,,,,,,,,,,,,,,,,,,,
,,6509fe5bcfaa6c451f85d5a3,2024-02-21_22h30.04.503,kallum_motion_pilot,2023.2.2,Win32,59.88023952,6509fe5bcfaa6c451f85d5a3,65d6bb0e977760de756971f7,65d6bfa6ab610f7bb580d626,0.0544,0.0545,1,109,271,64,1,onetwo,,,,,,,,,,,,,,,,,,,,,,,,,,,,,,,,,,,,,,,,,,,,,,,,,,,,,,,,,,,,,,,,,,,,,,,,,,,,,,,,,,,,,,,,,,,,,,,,,,,,,,,,,,,,,,,,,,,,,,,,,,,,,,,,,,,,,,,,,
,,6509fe5bcfaa6c451f85d5a3,2024-02-21_22h30.04.503,kallum_motion_pilot,2023.2.2,Win32,59.88023952,6509fe5bcfaa6c451f85d5a3,65d6bb0e977760de756971f7,65d6bfa6ab610f7bb580d626,0.0545,0.0547,1,110,272,73,1,onethree,,,,,,,,,,,,,,,,,,,,,,,,,,,,,,,,,,,,,,,,,,,,,,,,,,,,,,,,,,,,,,,,,,,,,,,,,,,,,,,,,,,,,,,,,,,,,,,,,,,,,,,,,,,,,,,,,,,,,,,,,,,,,,,,,,,,,,,,,
,,6509fe5bcfaa6c451f85d5a3,2024-02-21_22h30.04.503,kallum_motion_pilot,2023.2.2,Win32,59.88023952,6509fe5bcfaa6c451f85d5a3,65d6bb0e977760de756971f7,65d6bfa6ab610f7bb580d626,0.0548,0.0549,1,111,273,30,1,fourtwo,,,,,,,,,,,,,,,,,,,,,,,,,,,,,,,,,,,,,,,,,,,,,,,,,,,,,,,,,,,,,,,,,,,,,,,,,,,,,,,,,,,,,,,,,,,,,,,,,,,,,,,,,,,,,,,,,,,,,,,,,,,,,,,,,,,,,,,,,
,,6509fe5bcfaa6c451f85d5a3,2024-02-21_22h30.04.503,kallum_motion_pilot,2023.2.2,Win32,59.88023952,6509fe5bcfaa6c451f85d5a3,65d6bb0e977760de756971f7,65d6bfa6ab610f7bb580d626,0.055,0.0551,1,112,274,144,1,fivesix,,,,,,,,,,,,,,,,,,,,,,,,,,,,,,,,,,,,,,,,,,,,,,,,,,,,,,,,,,,,,,,,,,,,,,,,,,,,,,,,,,,,,,,,,,,,,,,,,,,,,,,,,,,,,,,,,,,,,,,,,,,,,,,,,,,,,,,,,
,,6509fe5bcfaa6c451f85d5a3,2024-02-21_22h30.04.503,kallum_motion_pilot,2023.2.2,Win32,59.88023952,6509fe5bcfaa6c451f85d5a3,65d6bb0e977760de756971f7,65d6bfa6ab610f7bb580d626,0.0552,0.0553,1,113,275,145,1,fiveseven,,,,,,,,,,,,,,,,,,,,,,,,,,,,,,,,,,,,,,,,,,,,,,,,,,,,,,,,,,,,,,,,,,,,,,,,,,,,,,,,,,,,,,,,,,,,,,,,,,,,,,,,,,,,,,,,,,,,,,,,,,,,,,,,,,,,,,,,,
,,6509fe5bcfaa6c451f85d5a3,2024-02-21_22h30.04.503,kallum_motion_pilot,2023.2.2,Win32,59.88023952,6509fe5bcfaa6c451f85d5a3,65d6bb0e977760de756971f7,65d6bfa6ab610f7bb580d626,0.0554,0.0555,1,114,276,50,1,twoone,,,,,,,,,,,,,,,,,,,,,,,,,,,,,,,,,,,,,,,,,,,,,,,,,,,,,,,,,,,,,,,,,,,,,,,,,,,,,,,,,,,,,,,,,,,,,,,,,,,,,,,,,,,,,,,,,,,,,,,,,,,,,,,,,,,,,,,,,
,,6509fe5bcfaa6c451f85d5a3,2024-02-21_22h30.04.503,kallum_motion_pilot,2023.2.2,Win32,59.88023952,6509fe5bcfaa6c451f85d5a3,65d6bb0e977760de756971f7,65d6bfa6ab610f7bb580d626,0.0556,0.0558,1,115,277,115,1,sixeight,,,,,,,,,,,,,,,,,,,,,,,,,,,,,,,,,,,,,,,,,,,,,,,,,,,,,,,,,,,,,,,,,,,,,,,,,,,,,,,,,,,,,,,,,,,,,,,,,,,,,,,,,,,,,,,,,,,,,,,,,,,,,,,,,,,,,,,,,
