startup.started,startup.stopped,Prolific ID*,date,expName,psychopyVersion,OS,frameRate,participant,study_id,session,stimpositions.started,stimpositions.stopped,hardcoded_stimulus_positions.thisRepN,hardcoded_stimulus_positions.thisTrialN,hardcoded_stimulus_positions.thisN,hardcoded_stimulus_positions.thisIndex,hardcoded_stimulus_positions.ran,StimulusPos,stimorientation.started,stimorientation.stopped,prac_stimorientation_import_loop.thisRepN,prac_stimorientation_import_loop.thisTrialN,prac_stimorientation_import_loop.thisN,prac_stimorientation_import_loop.thisIndex,prac_stimorientation_import_loop.ran,Stimorientation,welcome_instr.started,welcome_instr.stopped,key_resp.keys,key_resp.rt,key_resp.duration,response_steppedout_1.started,response_steppedout_1.stopped,key_resp_20.keys,key_resp_20.rt,key_resp_20.duration,response_steppedout_2.started,response_steppedout_2.stopped,key_resp_19.keys,key_resp_19.rt,key_resp_19.duration,stim_response_instr.started,stim_response_instr.stopped,key_resp_15.keys,key_resp_15.rt,key_resp_15.duration,direction_instr_2.started,direction_instr_2.stopped,key_resp_9.keys,key_resp_9.rt,key_resp_9.duration,instr_prac.started,instr_prac.stopped,key_resp_10.keys,key_resp_10.rt,key_resp_10.duration,Stim1_display_prac.started,Stim1_display_prac.stopped,Ecc,Circle1_ori,Circle2_ori,response_prac.started,similarity,response_time,response_prac.stopped,mouse_5.x,mouse_5.y,mouse_5.leftButton,mouse_5.midButton,mouse_5.rightButton,mouse_5.clicked_name,responseprac_feedback.started,responseprac_feedback.stopped,summary2_prac.started,summary2_prac.stopped,mouse_6.x,mouse_6.y,mouse_6.leftButton,mouse_6.midButton,mouse_6.rightButton,mouse_6.clicked_name,duringprac.thisRepN,duringprac.thisTrialN,duringprac.thisN,duringprac.thisIndex,duringprac.ran,begin.started,begin.stopped,key_resp_22.keys,key_resp_22.rt,key_resp_22.duration,Stim1_display.started,Stim1_display.stopped,circle1_ori,circle2_ori,circle1_SF,circle2_SF,response.started,response.stopped,mouse.x,mouse.y,mouse.leftButton,mouse.midButton,mouse.rightButton,mouse.clicked_name,trialnumber,double_pass.thisRepN,double_pass.thisTrialN,double_pass.thisN,double_pass.thisIndex,double_pass.ran,double_pass.order,main_trial.thisRepN,main_trial.thisTrialN,main_trial.thisN,main_trial.thisIndex,main_trial.ran,main_trial.order,Trial_Counter,Catch,Frequencies,response_2.started,response_2.stopped,mouse_2.x,mouse_2.y,mouse_2.leftButton,mouse_2.midButton,mouse_2.rightButton,mouse_2.clicked_name,special_trial.started,special_trial.stopped,catch_1.started,catch_1.stopped,mouse_3.x,mouse_3.y,mouse_3.leftButton,mouse_3.midButton,mouse_3.rightButton,catchresponse,catchnumber,response_time_catch,response_sum.started,response_sum.stopped,mouse_11.x,mouse_11.y,mouse_11.leftButton,mouse_11.midButton,mouse_11.rightButton,flip_presentation_sequence_for_double_pass.started,flip_presentation_sequence_for_double_pass.stopped,goodbye.started,goodbye.stopped,key_resp_3.keys,key_resp_3.rt,key_resp_3.duration
0.0009,0.001,650af764a14e318085b20747,2024-02-21_22h26.52.019,kallum_motion_pilot,2023.2.2,MacIntel,59.88023952,650af764a14e318085b20747,65d6bb0e977760de756971f7,65d6bed911081d3e25dfeeb6,,,,,,,,,,,,,,,,,,,,,,,,,,,,,,,,,,,,,,,,,,,,,,,,,,,,,,,,,,,,,,,,,,,,,,,,,,,,,,,,,,,,,,,,,,,,,,,,,,,,,,,,,,,,,,,,,,,,,,,,,,,,,,,,,,,,,,,,,,,,,,,,,
,,650af764a14e318085b20747,2024-02-21_22h26.52.019,kallum_motion_pilot,2023.2.2,MacIntel,59.88023952,650af764a14e318085b20747,65d6bb0e977760de756971f7,65d6bed911081d3e25dfeeb6,0.0278,0.0279,0,0,0,79,1,eightseven,,,,,,,,,,,,,,,,,,,,,,,,,,,,,,,,,,,,,,,,,,,,,,,,,,,,,,,,,,,,,,,,,,,,,,,,,,,,,,,,,,,,,,,,,,,,,,,,,,,,,,,,,,,,,,,,,,,,,,,,,,,,,,,,,,,,,,,,,
,,650af764a14e318085b20747,2024-02-21_22h26.52.019,kallum_motion_pilot,2023.2.2,MacIntel,59.88023952,650af764a14e318085b20747,65d6bb0e977760de756971f7,65d6bed911081d3e25dfeeb6,0.0282,0.0282,0,1,1,75,1,twofour,,,,,,,,,,,,,,,,,,,,,,,,,,,,,,,,,,,,,,,,,,,,,,,,,,,,,,,,,,,,,,,,,,,,,,,,,,,,,,,,,,,,,,,,,,,,,,,,,,,,,,,,,,,,,,,,,,,,,,,,,,,,,,,,,,,,,,,,,
,,650af764a14e318085b20747,2024-02-21_22h26.52.019,kallum_motion_pilot,2023.2.2,MacIntel,59.88023952,650af764a14e318085b20747,65d6bb0e977760de756971f7,65d6bed911081d3e25dfeeb6,0.0285,0.0285,0,2,2,85,1,seveneight,,,,,,,,,,,,,,,,,,,,,,,,,,,,,,,,,,,,,,,,,,,,,,,,,,,,,,,,,,,,,,,,,,,,,,,,,,,,,,,,,,,,,,,,,,,,,,,,,,,,,,,,,,,,,,,,,,,,,,,,,,,,,,,,,,,,,,,,,
,,650af764a14e318085b20747,2024-02-21_22h26.52.019,kallum_motion_pilot,2023.2.2,MacIntel,59.88023952,650af764a14e318085b20747,65d6bb0e977760de756971f7,65d6bed911081d3e25dfeeb6,0.0286,0.0286,0,3,3,121,1,fiveseven,,,,,,,,,,,,,,,,,,,,,,,,,,,,,,,,,,,,,,,,,,,,,,,,,,,,,,,,,,,,,,,,,,,,,,,,,,,,,,,,,,,,,,,,,,,,,,,,,,,,,,,,,,,,,,,,,,,,,,,,,,,,,,,,,,,,,,,,,
,,650af764a14e318085b20747,2024-02-21_22h26.52.019,kallum_motion_pilot,2023.2.2,MacIntel,59.88023952,650af764a14e318085b20747,65d6bb0e977760de756971f7,65d6bed911081d3e25dfeeb6,0.0288,0.0288,0,4,4,108,1,sevenfive,,,,,,,,,,,,,,,,,,,,,,,,,,,,,,,,,,,,,,,,,,,,,,,,,,,,,,,,,,,,,,,,,,,,,,,,,,,,,,,,,,,,,,,,,,,,,,,,,,,,,,,,,,,,,,,,,,,,,,,,,,,,,,,,,,,,,,,,,
,,650af764a14e318085b20747,2024-02-21_22h26.52.019,kallum_motion_pilot,2023.2.2,MacIntel,59.88023952,650af764a14e318085b20747,65d6bb0e977760de756971f7,65d6bed911081d3e25dfeeb6,0.0289,0.0289,0,5,5,29,1,threefour,,,,,,,,,,,,,,,,,,,,,,,,,,,,,,,,,,,,,,,,,,,,,,,,,,,,,,,,,,,,,,,,,,,,,,,,,,,,,,,,,,,,,,,,,,,,,,,,,,,,,,,,,,,,,,,,,,,,,,,,,,,,,,,,,,,,,,,,,
,,650af764a14e318085b20747,2024-02-21_22h26.52.019,kallum_motion_pilot,2023.2.2,MacIntel,59.88023952,650af764a14e318085b20747,65d6bb0e977760de756971f7,65d6bed911081d3e25dfeeb6,0.029,0.029,0,6,6,135,1,eightseven,,,,,,,,,,,,,,,,,,,,,,,,,,,,,,,,,,,,,,,,,,,,,,,,,,,,,,,,,,,,,,,,,,,,,,,,,,,,,,,,,,,,,,,,,,,,,,,,,,,,,,,,,,,,,,,,,,,,,,,,,,,,,,,,,,,,,,,,,
,,650af764a14e318085b20747,2024-02-21_22h26.52.019,kallum_motion_pilot,2023.2.2,MacIntel,59.88023952,650af764a14e318085b20747,65d6bb0e977760de756971f7,65d6bed911081d3e25dfeeb6,0.0291,0.0291,0,7,7,1,1,onethree,,,,,,,,,,,,,,,,,,,,,,,,,,,,,,,,,,,,,,,,,,,,,,,,,,,,,,,,,,,,,,,,,,,,,,,,,,,,,,,,,,,,,,,,,,,,,,,,,,,,,,,,,,,,,,,,,,,,,,,,,,,,,,,,,,,,,,,,,
,,650af764a14e318085b20747,2024-02-21_22h26.52.019,kallum_motion_pilot,2023.2.2,MacIntel,59.88023952,650af764a14e318085b20747,65d6bb0e977760de756971f7,65d6bed911081d3e25dfeeb6,0.0292,0.0292,0,8,8,50,1,twoone,,,,,,,,,,,,,,,,,,,,,,,,,,,,,,,,,,,,,,,,,,,,,,,,,,,,,,,,,,,,,,,,,,,,,,,,,,,,,,,,,,,,,,,,,,,,,,,,,,,,,,,,,,,,,,,,,,,,,,,,,,,,,,,,,,,,,,,,,
,,650af764a14e318085b20747,2024-02-21_22h26.52.019,kallum_motion_pilot,2023.2.2,MacIntel,59.88023952,650af764a14e318085b20747,65d6bb0e977760de756971f7,65d6bed911081d3e25dfeeb6,0.0293,0.0294,0,9,9,83,1,sixeight,,,,,,,,,,,,,,,,,,,,,,,,,,,,,,,,,,,,,,,,,,,,,,,,,,,,,,,,,,,,,,,,,,,,,,,,,,,,,,,,,,,,,,,,,,,,,,,,,,,,,,,,,,,,,,,,,,,,,,,,,,,,,,,,,,,,,,,,,
,,650af764a14e318085b20747,2024-02-21_22h26.52.019,kallum_motion_pilot,2023.2.2,MacIntel,59.88023952,650af764a14e318085b20747,65d6bb0e977760de756971f7,65d6bed911081d3e25dfeeb6,0.0294,0.0294,0,10,10,134,1,eightsix,,,,,,,,,,,,,,,,,,,,,,,,,,,,,,,,,,,,,,,,,,,,,,,,,,,,,,,,,,,,,,,,,,,,,,,,,,,,,,,,,,,,,,,,,,,,,,,,,,,,,,,,,,,,,,,,,,,,,,,,,,,,,,,,,,,,,,,,,
,,650af764a14e318085b20747,2024-02-21_22h26.52.019,kallum_motion_pilot,2023.2.2,MacIntel,59.88023952,650af764a14e318085b20747,65d6bb0e977760de756971f7,65d6bed911081d3e25dfeeb6,0.0294,0.0294,0,11,11,8,1,onetwo,,,,,,,,,,,,,,,,,,,,,,,,,,,,,,,,,,,,,,,,,,,,,,,,,,,,,,,,,,,,,,,,,,,,,,,,,,,,,,,,,,,,,,,,,,,,,,,,,,,,,,,,,,,,,,,,,,,,,,,,,,,,,,,,,,,,,,,,,
,,650af764a14e318085b20747,2024-02-21_22h26.52.019,kallum_motion_pilot,2023.2.2,MacIntel,59.88023952,650af764a14e318085b20747,65d6bb0e977760de756971f7,65d6bed911081d3e25dfeeb6,0.0296,0.0296,0,12,12,152,1,fivesix,,,,,,,,,,,,,,,,,,,,,,,,,,,,,,,,,,,,,,,,,,,,,,,,,,,,,,,,,,,,,,,,,,,,,,,,,,,,,,,,,,,,,,,,,,,,,,,,,,,,,,,,,,,,,,,,,,,,,,,,,,,,,,,,,,,,,,,,,
,,650af764a14e318085b20747,2024-02-21_22h26.52.019,kallum_motion_pilot,2023.2.2,MacIntel,59.88023952,650af764a14e318085b20747,65d6bb0e977760de756971f7,65d6bed911081d3e25dfeeb6,0.0296,0.0296,0,13,13,77,1,threefour,,,,,,,,,,,,,,,,,,,,,,,,,,,,,,,,,,,,,,,,,,,,,,,,,,,,,,,,,,,,,,,,,,,,,,,,,,,,,,,,,,,,,,,,,,,,,,,,,,,,,,,,,,,,,,,,,,,,,,,,,,,,,,,,,,,,,,,,,
,,650af764a14e318085b20747,2024-02-21_22h26.52.019,kallum_motion_pilot,2023.2.2,MacIntel,59.88023952,650af764a14e318085b20747,65d6bb0e977760de756971f7,65d6bed911081d3e25dfeeb6,0.0297,0.0297,0,14,14,10,1,twoone,,,,,,,,,,,,,,,,,,,,,,,,,,,,,,,,,,,,,,,,,,,,,,,,,,,,,,,,,,,,,,,,,,,,,,,,,,,,,,,,,,,,,,,,,,,,,,,,,,,,,,,,,,,,,,,,,,,,,,,,,,,,,,,,,,,,,,,,,
,,650af764a14e318085b20747,2024-02-21_22h26.52.019,kallum_motion_pilot,2023.2.2,MacIntel,59.88023952,650af764a14e318085b20747,65d6bb0e977760de756971f7,65d6bed911081d3e25dfeeb6,0.0297,0.0298,0,15,15,62,1,fourtwo,,,,,,,,,,,,,,,,,,,,,,,,,,,,,,,,,,,,,,,,,,,,,,,,,,,,,,,,,,,,,,,,,,,,,,,,,,,,,,,,,,,,,,,,,,,,,,,,,,,,,,,,,,,,,,,,,,,,,,,,,,,,,,,,,,,,,,,,,
,,650af764a14e318085b20747,2024-02-21_22h26.52.019,kallum_motion_pilot,2023.2.2,MacIntel,59.88023952,650af764a14e318085b20747,65d6bb0e977760de756971f7,65d6bed911081d3e25dfeeb6,0.0299,0.0299,0,16,16,24,1,onetwo,,,,,,,,,,,,,,,,,,,,,,,,,,,,,,,,,,,,,,,,,,,,,,,,,,,,,,,,,,,,,,,,,,,,,,,,,,,,,,,,,,,,,,,,,,,,,,,,,,,,,,,,,,,,,,,,,,,,,,,,,,,,,,,,,,,,,,,,,
,,650af764a14e318085b20747,2024-02-21_22h26.52.019,kallum_motion_pilot,2023.2.2,MacIntel,59.88023952,650af764a14e318085b20747,65d6bb0e977760de756971f7,65d6bed911081d3e25dfeeb6,0.03,0.03,0,17,17,103,1,eightseven,,,,,,,,,,,,,,,,,,,,,,,,,,,,,,,,,,,,,,,,,,,,,,,,,,,,,,,,,,,,,,,,,,,,,,,,,,,,,,,,,,,,,,,,,,,,,,,,,,,,,,,,,,,,,,,,,,,,,,,,,,,,,,,,,,,,,,,,,
,,650af764a14e318085b20747,2024-02-21_22h26.52.019,kallum_motion_pilot,2023.2.2,MacIntel,59.88023952,650af764a14e318085b20747,65d6bb0e977760de756971f7,65d6bed911081d3e25dfeeb6,0.0301,0.0301,0,18,18,51,1,twofour,,,,,,,,,,,,,,,,,,,,,,,,,,,,,,,,,,,,,,,,,,,,,,,,,,,,,,,,,,,,,,,,,,,,,,,,,,,,,,,,,,,,,,,,,,,,,,,,,,,,,,,,,,,,,,,,,,,,,,,,,,,,,,,,,,,,,,,,,
,,650af764a14e318085b20747,2024-02-21_22h26.52.019,kallum_motion_pilot,2023.2.2,MacIntel,59.88023952,650af764a14e318085b20747,65d6bb0e977760de756971f7,65d6bed911081d3e25dfeeb6,0.0301,0.0302,0,19,19,68,1,threeone,,,,,,,,,,,,,,,,,,,,,,,,,,,,,,,,,,,,,,,,,,,,,,,,,,,,,,,,,,,,,,,,,,,,,,,,,,,,,,,,,,,,,,,,,,,,,,,,,,,,,,,,,,,,,,,,,,,,,,,,,,,,,,,,,,,,,,,,,
,,650af764a14e318085b20747,2024-02-21_22h26.52.019,kallum_motion_pilot,2023.2.2,MacIntel,59.88023952,650af764a14e318085b20747,65d6bb0e977760de756971f7,65d6bed911081d3e25dfeeb6,0.0302,0.0302,0,20,20,28,1,threeone,,,,,,,,,,,,,,,,,,,,,,,,,,,,,,,,,,,,,,,,,,,,,,,,,,,,,,,,,,,,,,,,,,,,,,,,,,,,,,,,,,,,,,,,,,,,,,,,,,,,,,,,,,,,,,,,,,,,,,,,,,,,,,,,,,,,,,,,,
,,650af764a14e318085b20747,2024-02-21_22h26.52.019,kallum_motion_pilot,2023.2.2,MacIntel,59.88023952,650af764a14e318085b20747,65d6bb0e977760de756971f7,65d6bed911081d3e25dfeeb6,0.0302,0.0302,0,21,21,119,1,eightseven,,,,,,,,,,,,,,,,,,,,,,,,,,,,,,,,,,,,,,,,,,,,,,,,,,,,,,,,,,,,,,,,,,,,,,,,,,,,,,,,,,,,,,,,,,,,,,,,,,,,,,,,,,,,,,,,,,,,,,,,,,,,,,,,,,,,,,,,,
,,650af764a14e318085b20747,2024-02-21_22h26.52.019,kallum_motion_pilot,2023.2.2,MacIntel,59.88023952,650af764a14e318085b20747,65d6bb0e977760de756971f7,65d6bed911081d3e25dfeeb6,0.0303,0.0303,0,22,22,42,1,twoone,,,,,,,,,,,,,,,,,,,,,,,,,,,,,,,,,,,,,,,,,,,,,,,,,,,,,,,,,,,,,,,,,,,,,,,,,,,,,,,,,,,,,,,,,,,,,,,,,,,,,,,,,,,,,,,,,,,,,,,,,,,,,,,,,,,,,,,,,
,,650af764a14e318085b20747,2024-02-21_22h26.52.019,kallum_motion_pilot,2023.2.2,MacIntel,59.88023952,650af764a14e318085b20747,65d6bb0e977760de756971f7,65d6bed911081d3e25dfeeb6,0.0304,0.0304,0,23,23,115,1,sixeight,,,,,,,,,,,,,,,,,,,,,,,,,,,,,,,,,,,,,,,,,,,,,,,,,,,,,,,,,,,,,,,,,,,,,,,,,,,,,,,,,,,,,,,,,,,,,,,,,,,,,,,,,,,,,,,,,,,,,,,,,,,,,,,,,,,,,,,,,
,,650af764a14e318085b20747,2024-02-21_22h26.52.019,kallum_motion_pilot,2023.2.2,MacIntel,59.88023952,650af764a14e318085b20747,65d6bb0e977760de756971f7,65d6bed911081d3e25dfeeb6,0.0305,0.0305,0,24,24,107,1,sixeight,,,,,,,,,,,,,,,,,,,,,,,,,,,,,,,,,,,,,,,,,,,,,,,,,,,,,,,,,,,,,,,,,,,,,,,,,,,,,,,,,,,,,,,,,,,,,,,,,,,,,,,,,,,,,,,,,,,,,,,,,,,,,,,,,,,,,,,,,
,,650af764a14e318085b20747,2024-02-21_22h26.52.019,kallum_motion_pilot,2023.2.2,MacIntel,59.88023952,650af764a14e318085b20747,65d6bb0e977760de756971f7,65d6bed911081d3e25dfeeb6,0.0306,0.0306,0,25,25,69,1,threefour,,,,,,,,,,,,,,,,,,,,,,,,,,,,,,,,,,,,,,,,,,,,,,,,,,,,,,,,,,,,,,,,,,,,,,,,,,,,,,,,,,,,,,,,,,,,,,,,,,,,,,,,,,,,,,,,,,,,,,,,,,,,,,,,,,,,,,,,,
,,650af764a14e318085b20747,2024-02-21_22h26.52.019,kallum_motion_pilot,2023.2.2,MacIntel,59.88023952,650af764a14e318085b20747,65d6bb0e977760de756971f7,65d6bed911081d3e25dfeeb6,0.0306,0.0306,0,26,26,105,1,fiveseven,,,,,,,,,,,,,,,,,,,,,,,,,,,,,,,,,,,,,,,,,,,,,,,,,,,,,,,,,,,,,,,,,,,,,,,,,,,,,,,,,,,,,,,,,,,,,,,,,,,,,,,,,,,,,,,,,,,,,,,,,,,,,,,,,,,,,,,,,
,,650af764a14e318085b20747,2024-02-21_22h26.52.019,kallum_motion_pilot,2023.2.2,MacIntel,59.88023952,650af764a14e318085b20747,65d6bb0e977760de756971f7,65d6bed911081d3e25dfeeb6,0.0307,0.0311,0,27,27,94,1,eightsix,,,,,,,,,,,,,,,,,,,,,,,,,,,,,,,,,,,,,,,,,,,,,,,,,,,,,,,,,,,,,,,,,,,,,,,,,,,,,,,,,,,,,,,,,,,,,,,,,,,,,,,,,,,,,,,,,,,,,,,,,,,,,,,,,,,,,,,,,
,,650af764a14e318085b20747,2024-02-21_22h26.52.019,kallum_motion_pilot,2023.2.2,MacIntel,59.88023952,650af764a14e318085b20747,65d6bb0e977760de756971f7,65d6bed911081d3e25dfeeb6,0.0313,0.0313,0,28,28,161,1,fiveseven,,,,,,,,,,,,,,,,,,,,,,,,,,,,,,,,,,,,,,,,,,,,,,,,,,,,,,,,,,,,,,,,,,,,,,,,,,,,,,,,,,,,,,,,,,,,,,,,,,,,,,,,,,,,,,,,,,,,,,,,,,,,,,,,,,,,,,,,,
,,650af764a14e318085b20747,2024-02-21_22h26.52.019,kallum_motion_pilot,2023.2.2,MacIntel,59.88023952,650af764a14e318085b20747,65d6bb0e977760de756971f7,65d6bed911081d3e25dfeeb6,0.0313,0.0314,0,29,29,78,1,fourtwo,,,,,,,,,,,,,,,,,,,,,,,,,,,,,,,,,,,,,,,,,,,,,,,,,,,,,,,,,,,,,,,,,,,,,,,,,,,,,,,,,,,,,,,,,,,,,,,,,,,,,,,,,,,,,,,,,,,,,,,,,,,,,,,,,,,,,,,,,
,,650af764a14e318085b20747,2024-02-21_22h26.52.019,kallum_motion_pilot,2023.2.2,MacIntel,59.88023952,650af764a14e318085b20747,65d6bb0e977760de756971f7,65d6bed911081d3e25dfeeb6,0.0315,0.0315,0,30,30,153,1,fiveseven,,,,,,,,,,,,,,,,,,,,,,,,,,,,,,,,,,,,,,,,,,,,,,,,,,,,,,,,,,,,,,,,,,,,,,,,,,,,,,,,,,,,,,,,,,,,,,,,,,,,,,,,,,,,,,,,,,,,,,,,,,,,,,,,,,,,,,,,,
,,650af764a14e318085b20747,2024-02-21_22h26.52.019,kallum_motion_pilot,2023.2.2,MacIntel,59.88023952,650af764a14e318085b20747,65d6bb0e977760de756971f7,65d6bed911081d3e25dfeeb6,0.0315,0.0315,0,31,31,126,1,eightsix,,,,,,,,,,,,,,,,,,,,,,,,,,,,,,,,,,,,,,,,,,,,,,,,,,,,,,,,,,,,,,,,,,,,,,,,,,,,,,,,,,,,,,,,,,,,,,,,,,,,,,,,,,,,,,,,,,,,,,,,,,,,,,,,,,,,,,,,,
,,650af764a14e318085b20747,2024-02-21_22h26.52.019,kallum_motion_pilot,2023.2.2,MacIntel,59.88023952,650af764a14e318085b20747,65d6bb0e977760de756971f7,65d6bed911081d3e25dfeeb6,0.0315,0.0316,0,32,32,156,1,sevenfive,,,,,,,,,,,,,,,,,,,,,,,,,,,,,,,,,,,,,,,,,,,,,,,,,,,,,,,,,,,,,,,,,,,,,,,,,,,,,,,,,,,,,,,,,,,,,,,,,,,,,,,,,,,,,,,,,,,,,,,,,,,,,,,,,,,,,,,,,
,,650af764a14e318085b20747,2024-02-21_22h26.52.019,kallum_motion_pilot,2023.2.2,MacIntel,59.88023952,650af764a14e318085b20747,65d6bb0e977760de756971f7,65d6bed911081d3e25dfeeb6,0.0317,0.0317,0,33,33,116,1,sevenfive,,,,,,,,,,,,,,,,,,,,,,,,,,,,,,,,,,,,,,,,,,,,,,,,,,,,,,,,,,,,,,,,,,,,,,,,,,,,,,,,,,,,,,,,,,,,,,,,,,,,,,,,,,,,,,,,,,,,,,,,,,,,,,,,,,,,,,,,,
,,650af764a14e318085b20747,2024-02-21_22h26.52.019,kallum_motion_pilot,2023.2.2,MacIntel,59.88023952,650af764a14e318085b20747,65d6bb0e977760de756971f7,65d6bed911081d3e25dfeeb6,0.0317,0.0317,0,34,34,93,1,seveneight,,,,,,,,,,,,,,,,,,,,,,,,,,,,,,,,,,,,,,,,,,,,,,,,,,,,,,,,,,,,,,,,,,,,,,,,,,,,,,,,,,,,,,,,,,,,,,,,,,,,,,,,,,,,,,,,,,,,,,,,,,,,,,,,,,,,,,,,,
,,650af764a14e318085b20747,2024-02-21_22h26.52.019,kallum_motion_pilot,2023.2.2,MacIntel,59.88023952,650af764a14e318085b20747,65d6bb0e977760de756971f7,65d6bed911081d3e25dfeeb6,0.0318,0.0318,0,35,35,12,1,threeone,,,,,,,,,,,,,,,,,,,,,,,,,,,,,,,,,,,,,,,,,,,,,,,,,,,,,,,,,,,,,,,,,,,,,,,,,,,,,,,,,,,,,,,,,,,,,,,,,,,,,,,,,,,,,,,,,,,,,,,,,,,,,,,,,,,,,,,,,
,,650af764a14e318085b20747,2024-02-21_22h26.52.019,kallum_motion_pilot,2023.2.2,MacIntel,59.88023952,650af764a14e318085b20747,65d6bb0e977760de756971f7,65d6bed911081d3e25dfeeb6,0.0318,0.0318,0,36,36,154,1,sixfive,,,,,,,,,,,,,,,,,,,,,,,,,,,,,,,,,,,,,,,,,,,,,,,,,,,,,,,,,,,,,,,,,,,,,,,,,,,,,,,,,,,,,,,,,,,,,,,,,,,,,,,,,,,,,,,,,,,,,,,,,,,,,,,,,,,,,,,,,
,,650af764a14e318085b20747,2024-02-21_22h26.52.019,kallum_motion_pilot,2023.2.2,MacIntel,59.88023952,650af764a14e318085b20747,65d6bb0e977760de756971f7,65d6bed911081d3e25dfeeb6,0.0319,0.0319,0,37,37,160,1,fivesix,,,,,,,,,,,,,,,,,,,,,,,,,,,,,,,,,,,,,,,,,,,,,,,,,,,,,,,,,,,,,,,,,,,,,,,,,,,,,,,,,,,,,,,,,,,,,,,,,,,,,,,,,,,,,,,,,,,,,,,,,,,,,,,,,,,,,,,,,
,,650af764a14e318085b20747,2024-02-21_22h26.52.019,kallum_motion_pilot,2023.2.2,MacIntel,59.88023952,650af764a14e318085b20747,65d6bb0e977760de756971f7,65d6bed911081d3e25dfeeb6,0.032,0.0321,0,38,38,60,1,threeone,,,,,,,,,,,,,,,,,,,,,,,,,,,,,,,,,,,,,,,,,,,,,,,,,,,,,,,,,,,,,,,,,,,,,,,,,,,,,,,,,,,,,,,,,,,,,,,,,,,,,,,,,,,,,,,,,,,,,,,,,,,,,,,,,,,,,,,,,
,,650af764a14e318085b20747,2024-02-21_22h26.52.019,kallum_motion_pilot,2023.2.2,MacIntel,59.88023952,650af764a14e318085b20747,65d6bb0e977760de756971f7,65d6bed911081d3e25dfeeb6,0.0321,0.0321,0,39,39,149,1,seveneight,,,,,,,,,,,,,,,,,,,,,,,,,,,,,,,,,,,,,,,,,,,,,,,,,,,,,,,,,,,,,,,,,,,,,,,,,,,,,,,,,,,,,,,,,,,,,,,,,,,,,,,,,,,,,,,,,,,,,,,,,,,,,,,,,,,,,,,,,
,,650af764a14e318085b20747,2024-02-21_22h26.52.019,kallum_motion_pilot,2023.2.2,MacIntel,59.88023952,650af764a14e318085b20747,65d6bb0e977760de756971f7,65d6bed911081d3e25dfeeb6,0.0321,0.0322,0,40,40,38,1,fourtwo,,,,,,,,,,,,,,,,,,,,,,,,,,,,,,,,,,,,,,,,,,,,,,,,,,,,,,,,,,,,,,,,,,,,,,,,,,,,,,,,,,,,,,,,,,,,,,,,,,,,,,,,,,,,,,,,,,,,,,,,,,,,,,,,,,,,,,,,,
,,650af764a14e318085b20747,2024-02-21_22h26.52.019,kallum_motion_pilot,2023.2.2,MacIntel,59.88023952,650af764a14e318085b20747,65d6bb0e977760de756971f7,65d6bed911081d3e25dfeeb6,0.0322,0.0322,0,41,41,30,1,fourtwo,,,,,,,,,,,,,,,,,,,,,,,,,,,,,,,,,,,,,,,,,,,,,,,,,,,,,,,,,,,,,,,,,,,,,,,,,,,,,,,,,,,,,,,,,,,,,,,,,,,,,,,,,,,,,,,,,,,,,,,,,,,,,,,,,,,,,,,,,
,,650af764a14e318085b20747,2024-02-21_22h26.52.019,kallum_motion_pilot,2023.2.2,MacIntel,59.88023952,650af764a14e318085b20747,65d6bb0e977760de756971f7,65d6bed911081d3e25dfeeb6,0.0323,0.0323,0,42,42,118,1,eightsix,,,,,,,,,,,,,,,,,,,,,,,,,,,,,,,,,,,,,,,,,,,,,,,,,,,,,,,,,,,,,,,,,,,,,,,,,,,,,,,,,,,,,,,,,,,,,,,,,,,,,,,,,,,,,,,,,,,,,,,,,,,,,,,,,,,,,,,,,
,,650af764a14e318085b20747,2024-02-21_22h26.52.019,kallum_motion_pilot,2023.2.2,MacIntel,59.88023952,650af764a14e318085b20747,65d6bb0e977760de756971f7,65d6bed911081d3e25dfeeb6,0.0323,0.0323,0,43,43,159,1,eightseven,,,,,,,,,,,,,,,,,,,,,,,,,,,,,,,,,,,,,,,,,,,,,,,,,,,,,,,,,,,,,,,,,,,,,,,,,,,,,,,,,,,,,,,,,,,,,,,,,,,,,,,,,,,,,,,,,,,,,,,,,,,,,,,,,,,,,,,,,
,,650af764a14e318085b20747,2024-02-21_22h26.52.019,kallum_motion_pilot,2023.2.2,MacIntel,59.88023952,650af764a14e318085b20747,65d6bb0e977760de756971f7,65d6bed911081d3e25dfeeb6,0.0325,0.0325,0,44,44,45,1,threefour,,,,,,,,,,,,,,,,,,,,,,,,,,,,,,,,,,,,,,,,,,,,,,,,,,,,,,,,,,,,,,,,,,,,,,,,,,,,,,,,,,,,,,,,,,,,,,,,,,,,,,,,,,,,,,,,,,,,,,,,,,,,,,,,,,,,,,,,,
,,650af764a14e318085b20747,2024-02-21_22h26.52.019,kallum_motion_pilot,2023.2.2,MacIntel,59.88023952,650af764a14e318085b20747,65d6bb0e977760de756971f7,65d6bed911081d3e25dfeeb6,0.0325,0.0326,0,45,45,3,1,twofour,,,,,,,,,,,,,,,,,,,,,,,,,,,,,,,,,,,,,,,,,,,,,,,,,,,,,,,,,,,,,,,,,,,,,,,,,,,,,,,,,,,,,,,,,,,,,,,,,,,,,,,,,,,,,,,,,,,,,,,,,,,,,,,,,,,,,,,,,
,,650af764a14e318085b20747,2024-02-21_22h26.52.019,kallum_motion_pilot,2023.2.2,MacIntel,59.88023952,650af764a14e318085b20747,65d6bb0e977760de756971f7,65d6bed911081d3e25dfeeb6,0.0326,0.0326,0,46,46,73,1,onethree,,,,,,,,,,,,,,,,,,,,,,,,,,,,,,,,,,,,,,,,,,,,,,,,,,,,,,,,,,,,,,,,,,,,,,,,,,,,,,,,,,,,,,,,,,,,,,,,,,,,,,,,,,,,,,,,,,,,,,,,,,,,,,,,,,,,,,,,,
,,650af764a14e318085b20747,2024-02-21_22h26.52.019,kallum_motion_pilot,2023.2.2,MacIntel,59.88023952,650af764a14e318085b20747,65d6bb0e977760de756971f7,65d6bed911081d3e25dfeeb6,0.0326,0.0326,0,47,47,23,1,fourthree,,,,,,,,,,,,,,,,,,,,,,,,,,,,,,,,,,,,,,,,,,,,,,,,,,,,,,,,,,,,,,,,,,,,,,,,,,,,,,,,,,,,,,,,,,,,,,,,,,,,,,,,,,,,,,,,,,,,,,,,,,,,,,,,,,,,,,,,,
,,650af764a14e318085b20747,2024-02-21_22h26.52.019,kallum_motion_pilot,2023.2.2,MacIntel,59.88023952,650af764a14e318085b20747,65d6bb0e977760de756971f7,65d6bed911081d3e25dfeeb6,0.0327,0.0327,0,48,48,82,1,sixfive,,,,,,,,,,,,,,,,,,,,,,,,,,,,,,,,,,,,,,,,,,,,,,,,,,,,,,,,,,,,,,,,,,,,,,,,,,,,,,,,,,,,,,,,,,,,,,,,,,,,,,,,,,,,,,,,,,,,,,,,,,,,,,,,,,,,,,,,,
,,650af764a14e318085b20747,2024-02-21_22h26.52.019,kallum_motion_pilot,2023.2.2,MacIntel,59.88023952,650af764a14e318085b20747,65d6bb0e977760de756971f7,65d6bed911081d3e25dfeeb6,0.0328,0.0328,0,49,49,155,1,sixeight,,,,,,,,,,,,,,,,,,,,,,,,,,,,,,,,,,,,,,,,,,,,,,,,,,,,,,,,,,,,,,,,,,,,,,,,,,,,,,,,,,,,,,,,,,,,,,,,,,,,,,,,,,,,,,,,,,,,,,,,,,,,,,,,,,,,,,,,,
,,650af764a14e318085b20747,2024-02-21_22h26.52.019,kallum_motion_pilot,2023.2.2,MacIntel,59.88023952,650af764a14e318085b20747,65d6bb0e977760de756971f7,65d6bed911081d3e25dfeeb6,0.0328,0.0328,0,50,50,140,1,sevenfive,,,,,,,,,,,,,,,,,,,,,,,,,,,,,,,,,,,,,,,,,,,,,,,,,,,,,,,,,,,,,,,,,,,,,,,,,,,,,,,,,,,,,,,,,,,,,,,,,,,,,,,,,,,,,,,,,,,,,,,,,,,,,,,,,,,,,,,,,
,,650af764a14e318085b20747,2024-02-21_22h26.52.019,kallum_motion_pilot,2023.2.2,MacIntel,59.88023952,650af764a14e318085b20747,65d6bb0e977760de756971f7,65d6bed911081d3e25dfeeb6,0.0329,0.0329,0,51,51,144,1,fivesix,,,,,,,,,,,,,,,,,,,,,,,,,,,,,,,,,,,,,,,,,,,,,,,,,,,,,,,,,,,,,,,,,,,,,,,,,,,,,,,,,,,,,,,,,,,,,,,,,,,,,,,,,,,,,,,,,,,,,,,,,,,,,,,,,,,,,,,,,
,,650af764a14e318085b20747,2024-02-21_22h26.52.019,kallum_motion_pilot,2023.2.2,MacIntel,59.88023952,650af764a14e318085b20747,65d6bb0e977760de756971f7,65d6bed911081d3e25dfeeb6,0.033,0.033,0,52,52,71,1,fourthree,,,,,,,,,,,,,,,,,,,,,,,,,,,,,,,,,,,,,,,,,,,,,,,,,,,,,,,,,,,,,,,,,,,,,,,,,,,,,,,,,,,,,,,,,,,,,,,,,,,,,,,,,,,,,,,,,,,,,,,,,,,,,,,,,,,,,,,,,
,,650af764a14e318085b20747,2024-02-21_22h26.52.019,kallum_motion_pilot,2023.2.2,MacIntel,59.88023952,650af764a14e318085b20747,65d6bb0e977760de756971f7,65d6bed911081d3e25dfeeb6,0.033,0.0331,0,53,53,148,1,sevenfive,,,,,,,,,,,,,,,,,,,,,,,,,,,,,,,,,,,,,,,,,,,,,,,,,,,,,,,,,,,,,,,,,,,,,,,,,,,,,,,,,,,,,,,,,,,,,,,,,,,,,,,,,,,,,,,,,,,,,,,,,,,,,,,,,,,,,,,,,
,,650af764a14e318085b20747,2024-02-21_22h26.52.019,kallum_motion_pilot,2023.2.2,MacIntel,59.88023952,650af764a14e318085b20747,65d6bb0e977760de756971f7,65d6bed911081d3e25dfeeb6,0.0331,0.0331,0,54,54,41,1,onethree,,,,,,,,,,,,,,,,,,,,,,,,,,,,,,,,,,,,,,,,,,,,,,,,,,,,,,,,,,,,,,,,,,,,,,,,,,,,,,,,,,,,,,,,,,,,,,,,,,,,,,,,,,,,,,,,,,,,,,,,,,,,,,,,,,,,,,,,,
,,650af764a14e318085b20747,2024-02-21_22h26.52.019,kallum_motion_pilot,2023.2.2,MacIntel,59.88023952,650af764a14e318085b20747,65d6bb0e977760de756971f7,65d6bed911081d3e25dfeeb6,0.0332,0.0332,0,55,55,35,1,twofour,,,,,,,,,,,,,,,,,,,,,,,,,,,,,,,,,,,,,,,,,,,,,,,,,,,,,,,,,,,,,,,,,,,,,,,,,,,,,,,,,,,,,,,,,,,,,,,,,,,,,,,,,,,,,,,,,,,,,,,,,,,,,,,,,,,,,,,,,
,,650af764a14e318085b20747,2024-02-21_22h26.52.019,kallum_motion_pilot,2023.2.2,MacIntel,59.88023952,650af764a14e318085b20747,65d6bb0e977760de756971f7,65d6bed911081d3e25dfeeb6,0.0333,0.0333,0,56,56,7,1,fourthree,,,,,,,,,,,,,,,,,,,,,,,,,,,,,,,,,,,,,,,,,,,,,,,,,,,,,,,,,,,,,,,,,,,,,,,,,,,,,,,,,,,,,,,,,,,,,,,,,,,,,,,,,,,,,,,,,,,,,,,,,,,,,,,,,,,,,,,,,
,,650af764a14e318085b20747,2024-02-21_22h26.52.019,kallum_motion_pilot,2023.2.2,MacIntel,59.88023952,650af764a14e318085b20747,65d6bb0e977760de756971f7,65d6bed911081d3e25dfeeb6,0.0334,0.0334,0,57,57,127,1,eightseven,,,,,,,,,,,,,,,,,,,,,,,,,,,,,,,,,,,,,,,,,,,,,,,,,,,,,,,,,,,,,,,,,,,,,,,,,,,,,,,,,,,,,,,,,,,,,,,,,,,,,,,,,,,,,,,,,,,,,,,,,,,,,,,,,,,,,,,,,
,,650af764a14e318085b20747,2024-02-21_22h26.52.019,kallum_motion_pilot,2023.2.2,MacIntel,59.88023952,650af764a14e318085b20747,65d6bb0e977760de756971f7,65d6bed911081d3e25dfeeb6,0.0334,0.0334,0,58,58,81,1,fiveseven,,,,,,,,,,,,,,,,,,,,,,,,,,,,,,,,,,,,,,,,,,,,,,,,,,,,,,,,,,,,,,,,,,,,,,,,,,,,,,,,,,,,,,,,,,,,,,,,,,,,,,,,,,,,,,,,,,,,,,,,,,,,,,,,,,,,,,,,,
,,650af764a14e318085b20747,2024-02-21_22h26.52.019,kallum_motion_pilot,2023.2.2,MacIntel,59.88023952,650af764a14e318085b20747,65d6bb0e977760de756971f7,65d6bed911081d3e25dfeeb6,0.0334,0.0335,0,59,59,120,1,fivesix,,,,,,,,,,,,,,,,,,,,,,,,,,,,,,,,,,,,,,,,,,,,,,,,,,,,,,,,,,,,,,,,,,,,,,,,,,,,,,,,,,,,,,,,,,,,,,,,,,,,,,,,,,,,,,,,,,,,,,,,,,,,,,,,,,,,,,,,,
,,650af764a14e318085b20747,2024-02-21_22h26.52.019,kallum_motion_pilot,2023.2.2,MacIntel,59.88023952,650af764a14e318085b20747,65d6bb0e977760de756971f7,65d6bed911081d3e25dfeeb6,0.0336,0.0336,0,60,60,59,1,twofour,,,,,,,,,,,,,,,,,,,,,,,,,,,,,,,,,,,,,,,,,,,,,,,,,,,,,,,,,,,,,,,,,,,,,,,,,,,,,,,,,,,,,,,,,,,,,,,,,,,,,,,,,,,,,,,,,,,,,,,,,,,,,,,,,,,,,,,,,
,,650af764a14e318085b20747,2024-02-21_22h26.52.019,kallum_motion_pilot,2023.2.2,MacIntel,59.88023952,650af764a14e318085b20747,65d6bb0e977760de756971f7,65d6bed911081d3e25dfeeb6,0.0336,0.0336,0,61,61,101,1,seveneight,,,,,,,,,,,,,,,,,,,,,,,,,,,,,,,,,,,,,,,,,,,,,,,,,,,,,,,,,,,,,,,,,,,,,,,,,,,,,,,,,,,,,,,,,,,,,,,,,,,,,,,,,,,,,,,,,,,,,,,,,,,,,,,,,,,,,,,,,
,,650af764a14e318085b20747,2024-02-21_22h26.52.019,kallum_motion_pilot,2023.2.2,MacIntel,59.88023952,650af764a14e318085b20747,65d6bb0e977760de756971f7,65d6bed911081d3e25dfeeb6,0.0337,0.0337,0,62,62,76,1,threeone,,,,,,,,,,,,,,,,,,,,,,,,,,,,,,,,,,,,,,,,,,,,,,,,,,,,,,,,,,,,,,,,,,,,,,,,,,,,,,,,,,,,,,,,,,,,,,,,,,,,,,,,,,,,,,,,,,,,,,,,,,,,,,,,,,,,,,,,,
,,650af764a14e318085b20747,2024-02-21_22h26.52.019,kallum_motion_pilot,2023.2.2,MacIntel,59.88023952,650af764a14e318085b20747,65d6bb0e977760de756971f7,65d6bed911081d3e25dfeeb6,0.0337,0.0338,0,63,63,6,1,fourtwo,,,,,,,,,,,,,,,,,,,,,,,,,,,,,,,,,,,,,,,,,,,,,,,,,,,,,,,,,,,,,,,,,,,,,,,,,,,,,,,,,,,,,,,,,,,,,,,,,,,,,,,,,,,,,,,,,,,,,,,,,,,,,,,,,,,,,,,,,
,,650af764a14e318085b20747,2024-02-21_22h26.52.019,kallum_motion_pilot,2023.2.2,MacIntel,59.88023952,650af764a14e318085b20747,65d6bb0e977760de756971f7,65d6bed911081d3e25dfeeb6,0.0339,0.0339,0,64,64,122,1,sixfive,,,,,,,,,,,,,,,,,,,,,,,,,,,,,,,,,,,,,,,,,,,,,,,,,,,,,,,,,,,,,,,,,,,,,,,,,,,,,,,,,,,,,,,,,,,,,,,,,,,,,,,,,,,,,,,,,,,,,,,,,,,,,,,,,,,,,,,,,
,,650af764a14e318085b20747,2024-02-21_22h26.52.019,kallum_motion_pilot,2023.2.2,MacIntel,59.88023952,650af764a14e318085b20747,65d6bb0e977760de756971f7,65d6bed911081d3e25dfeeb6,0.034,0.034,0,65,65,129,1,fiveseven,,,,,,,,,,,,,,,,,,,,,,,,,,,,,,,,,,,,,,,,,,,,,,,,,,,,,,,,,,,,,,,,,,,,,,,,,,,,,,,,,,,,,,,,,,,,,,,,,,,,,,,,,,,,,,,,,,,,,,,,,,,,,,,,,,,,,,,,,
,,650af764a14e318085b20747,2024-02-21_22h26.52.019,kallum_motion_pilot,2023.2.2,MacIntel,59.88023952,650af764a14e318085b20747,65d6bb0e977760de756971f7,65d6bed911081d3e25dfeeb6,0.034,0.034,0,66,66,46,1,fourtwo,,,,,,,,,,,,,,,,,,,,,,,,,,,,,,,,,,,,,,,,,,,,,,,,,,,,,,,,,,,,,,,,,,,,,,,,,,,,,,,,,,,,,,,,,,,,,,,,,,,,,,,,,,,,,,,,,,,,,,,,,,,,,,,,,,,,,,,,,
,,650af764a14e318085b20747,2024-02-21_22h26.52.019,kallum_motion_pilot,2023.2.2,MacIntel,59.88023952,650af764a14e318085b20747,65d6bb0e977760de756971f7,65d6bed911081d3e25dfeeb6,0.0341,0.0341,0,67,67,11,1,twofour,,,,,,,,,,,,,,,,,,,,,,,,,,,,,,,,,,,,,,,,,,,,,,,,,,,,,,,,,,,,,,,,,,,,,,,,,,,,,,,,,,,,,,,,,,,,,,,,,,,,,,,,,,,,,,,,,,,,,,,,,,,,,,,,,,,,,,,,,
,,650af764a14e318085b20747,2024-02-21_22h26.52.019,kallum_motion_pilot,2023.2.2,MacIntel,59.88023952,650af764a14e318085b20747,65d6bb0e977760de756971f7,65d6bed911081d3e25dfeeb6,0.0342,0.0342,0,68,68,44,1,threeone,,,,,,,,,,,,,,,,,,,,,,,,,,,,,,,,,,,,,,,,,,,,,,,,,,,,,,,,,,,,,,,,,,,,,,,,,,,,,,,,,,,,,,,,,,,,,,,,,,,,,,,,,,,,,,,,,,,,,,,,,,,,,,,,,,,,,,,,,
,,650af764a14e318085b20747,2024-02-21_22h26.52.019,kallum_motion_pilot,2023.2.2,MacIntel,59.88023952,650af764a14e318085b20747,65d6bb0e977760de756971f7,65d6bed911081d3e25dfeeb6,0.0343,0.0343,0,69,69,137,1,fiveseven,,,,,,,,,,,,,,,,,,,,,,,,,,,,,,,,,,,,,,,,,,,,,,,,,,,,,,,,,,,,,,,,,,,,,,,,,,,,,,,,,,,,,,,,,,,,,,,,,,,,,,,,,,,,,,,,,,,,,,,,,,,,,,,,,,,,,,,,,
,,650af764a14e318085b20747,2024-02-21_22h26.52.019,kallum_motion_pilot,2023.2.2,MacIntel,59.88023952,650af764a14e318085b20747,65d6bb0e977760de756971f7,65d6bed911081d3e25dfeeb6,0.0344,0.0344,0,70,70,72,1,onetwo,,,,,,,,,,,,,,,,,,,,,,,,,,,,,,,,,,,,,,,,,,,,,,,,,,,,,,,,,,,,,,,,,,,,,,,,,,,,,,,,,,,,,,,,,,,,,,,,,,,,,,,,,,,,,,,,,,,,,,,,,,,,,,,,,,,,,,,,,
,,650af764a14e318085b20747,2024-02-21_22h26.52.019,kallum_motion_pilot,2023.2.2,MacIntel,59.88023952,650af764a14e318085b20747,65d6bb0e977760de756971f7,65d6bed911081d3e25dfeeb6,0.0344,0.0345,0,71,71,25,1,onethree,,,,,,,,,,,,,,,,,,,,,,,,,,,,,,,,,,,,,,,,,,,,,,,,,,,,,,,,,,,,,,,,,,,,,,,,,,,,,,,,,,,,,,,,,,,,,,,,,,,,,,,,,,,,,,,,,,,,,,,,,,,,,,,,,,,,,,,,,
,,650af764a14e318085b20747,2024-02-21_22h26.52.019,kallum_motion_pilot,2023.2.2,MacIntel,59.88023952,650af764a14e318085b20747,65d6bb0e977760de756971f7,65d6bed911081d3e25dfeeb6,0.0345,0.0345,0,72,72,141,1,seveneight,,,,,,,,,,,,,,,,,,,,,,,,,,,,,,,,,,,,,,,,,,,,,,,,,,,,,,,,,,,,,,,,,,,,,,,,,,,,,,,,,,,,,,,,,,,,,,,,,,,,,,,,,,,,,,,,,,,,,,,,,,,,,,,,,,,,,,,,,
,,650af764a14e318085b20747,2024-02-21_22h26.52.019,kallum_motion_pilot,2023.2.2,MacIntel,59.88023952,650af764a14e318085b20747,65d6bb0e977760de756971f7,65d6bed911081d3e25dfeeb6,0.0346,0.0346,0,73,73,158,1,eightsix,,,,,,,,,,,,,,,,,,,,,,,,,,,,,,,,,,,,,,,,,,,,,,,,,,,,,,,,,,,,,,,,,,,,,,,,,,,,,,,,,,,,,,,,,,,,,,,,,,,,,,,,,,,,,,,,,,,,,,,,,,,,,,,,,,,,,,,,,
,,650af764a14e318085b20747,2024-02-21_22h26.52.019,kallum_motion_pilot,2023.2.2,MacIntel,59.88023952,650af764a14e318085b20747,65d6bb0e977760de756971f7,65d6bed911081d3e25dfeeb6,0.0346,0.0346,0,74,74,125,1,seveneight,,,,,,,,,,,,,,,,,,,,,,,,,,,,,,,,,,,,,,,,,,,,,,,,,,,,,,,,,,,,,,,,,,,,,,,,,,,,,,,,,,,,,,,,,,,,,,,,,,,,,,,,,,,,,,,,,,,,,,,,,,,,,,,,,,,,,,,,,
,,650af764a14e318085b20747,2024-02-21_22h26.52.019,kallum_motion_pilot,2023.2.2,MacIntel,59.88023952,650af764a14e318085b20747,65d6bb0e977760de756971f7,65d6bed911081d3e25dfeeb6,0.0347,0.0347,0,75,75,130,1,sixfive,,,,,,,,,,,,,,,,,,,,,,,,,,,,,,,,,,,,,,,,,,,,,,,,,,,,,,,,,,,,,,,,,,,,,,,,,,,,,,,,,,,,,,,,,,,,,,,,,,,,,,,,,,,,,,,,,,,,,,,,,,,,,,,,,,,,,,,,,
,,650af764a14e318085b20747,2024-02-21_22h26.52.019,kallum_motion_pilot,2023.2.2,MacIntel,59.88023952,650af764a14e318085b20747,65d6bb0e977760de756971f7,65d6bed911081d3e25dfeeb6,0.0348,0.0348,0,76,76,31,1,fourthree,,,,,,,,,,,,,,,,,,,,,,,,,,,,,,,,,,,,,,,,,,,,,,,,,,,,,,,,,,,,,,,,,,,,,,,,,,,,,,,,,,,,,,,,,,,,,,,,,,,,,,,,,,,,,,,,,,,,,,,,,,,,,,,,,,,,,,,,,
,,650af764a14e318085b20747,2024-02-21_22h26.52.019,kallum_motion_pilot,2023.2.2,MacIntel,59.88023952,650af764a14e318085b20747,65d6bb0e977760de756971f7,65d6bed911081d3e25dfeeb6,0.0348,0.0349,0,77,77,9,1,onethree,,,,,,,,,,,,,,,,,,,,,,,,,,,,,,,,,,,,,,,,,,,,,,,,,,,,,,,,,,,,,,,,,,,,,,,,,,,,,,,,,,,,,,,,,,,,,,,,,,,,,,,,,,,,,,,,,,,,,,,,,,,,,,,,,,,,,,,,,
,,650af764a14e318085b20747,2024-02-21_22h26.52.019,kallum_motion_pilot,2023.2.2,MacIntel,59.88023952,650af764a14e318085b20747,65d6bb0e977760de756971f7,65d6bed911081d3e25dfeeb6,0.0349,0.035,0,78,78,58,1,twoone,,,,,,,,,,,,,,,,,,,,,,,,,,,,,,,,,,,,,,,,,,,,,,,,,,,,,,,,,,,,,,,,,,,,,,,,,,,,,,,,,,,,,,,,,,,,,,,,,,,,,,,,,,,,,,,,,,,,,,,,,,,,,,,,,,,,,,,,,
,,650af764a14e318085b20747,2024-02-21_22h26.52.019,kallum_motion_pilot,2023.2.2,MacIntel,59.88023952,650af764a14e318085b20747,65d6bb0e977760de756971f7,65d6bed911081d3e25dfeeb6,0.035,0.0351,0,79,79,109,1,seveneight,,,,,,,,,,,,,,,,,,,,,,,,,,,,,,,,,,,,,,,,,,,,,,,,,,,,,,,,,,,,,,,,,,,,,,,,,,,,,,,,,,,,,,,,,,,,,,,,,,,,,,,,,,,,,,,,,,,,,,,,,,,,,,,,,,,,,,,,,
,,650af764a14e318085b20747,2024-02-21_22h26.52.019,kallum_motion_pilot,2023.2.2,MacIntel,59.88023952,650af764a14e318085b20747,65d6bb0e977760de756971f7,65d6bed911081d3e25dfeeb6,0.0351,0.0351,0,80,80,95,1,eightseven,,,,,,,,,,,,,,,,,,,,,,,,,,,,,,,,,,,,,,,,,,,,,,,,,,,,,,,,,,,,,,,,,,,,,,,,,,,,,,,,,,,,,,,,,,,,,,,,,,,,,,,,,,,,,,,,,,,,,,,,,,,,,,,,,,,,,,,,,
,,650af764a14e318085b20747,2024-02-21_22h26.52.019,kallum_motion_pilot,2023.2.2,MacIntel,59.88023952,650af764a14e318085b20747,65d6bb0e977760de756971f7,65d6bed911081d3e25dfeeb6,0.0353,0.0353,0,81,81,34,1,twoone,,,,,,,,,,,,,,,,,,,,,,,,,,,,,,,,,,,,,,,,,,,,,,,,,,,,,,,,,,,,,,,,,,,,,,,,,,,,,,,,,,,,,,,,,,,,,,,,,,,,,,,,,,,,,,,,,,,,,,,,,,,,,,,,,,,,,,,,,
,,650af764a14e318085b20747,2024-02-21_22h26.52.019,kallum_motion_pilot,2023.2.2,MacIntel,59.88023952,650af764a14e318085b20747,65d6bb0e977760de756971f7,65d6bed911081d3e25dfeeb6,0.0353,0.0354,0,82,82,65,1,onethree,,,,,,,,,,,,,,,,,,,,,,,,,,,,,,,,,,,,,,,,,,,,,,,,,,,,,,,,,,,,,,,,,,,,,,,,,,,,,,,,,,,,,,,,,,,,,,,,,,,,,,,,,,,,,,,,,,,,,,,,,,,,,,,,,,,,,,,,,
,,650af764a14e318085b20747,2024-02-21_22h26.52.019,kallum_motion_pilot,2023.2.2,MacIntel,59.88023952,650af764a14e318085b20747,65d6bb0e977760de756971f7,65d6bed911081d3e25dfeeb6,0.0355,0.0356,0,83,83,138,1,sixfive,,,,,,,,,,,,,,,,,,,,,,,,,,,,,,,,,,,,,,,,,,,,,,,,,,,,,,,,,,,,,,,,,,,,,,,,,,,,,,,,,,,,,,,,,,,,,,,,,,,,,,,,,,,,,,,,,,,,,,,,,,,,,,,,,,,,,,,,,
,,650af764a14e318085b20747,2024-02-21_22h26.52.019,kallum_motion_pilot,2023.2.2,MacIntel,59.88023952,650af764a14e318085b20747,65d6bb0e977760de756971f7,65d6bed911081d3e25dfeeb6,0.0356,0.0356,0,84,84,132,1,sevenfive,,,,,,,,,,,,,,,,,,,,,,,,,,,,,,,,,,,,,,,,,,,,,,,,,,,,,,,,,,,,,,,,,,,,,,,,,,,,,,,,,,,,,,,,,,,,,,,,,,,,,,,,,,,,,,,,,,,,,,,,,,,,,,,,,,,,,,,,,
,,650af764a14e318085b20747,2024-02-21_22h26.52.019,kallum_motion_pilot,2023.2.2,MacIntel,59.88023952,650af764a14e318085b20747,65d6bb0e977760de756971f7,65d6bed911081d3e25dfeeb6,0.0356,0.0357,0,85,85,97,1,fiveseven,,,,,,,,,,,,,,,,,,,,,,,,,,,,,,,,,,,,,,,,,,,,,,,,,,,,,,,,,,,,,,,,,,,,,,,,,,,,,,,,,,,,,,,,,,,,,,,,,,,,,,,,,,,,,,,,,,,,,,,,,,,,,,,,,,,,,,,,,
,,650af764a14e318085b20747,2024-02-21_22h26.52.019,kallum_motion_pilot,2023.2.2,MacIntel,59.88023952,650af764a14e318085b20747,65d6bb0e977760de756971f7,65d6bed911081d3e25dfeeb6,0.0358,0.0358,0,86,86,88,1,fivesix,,,,,,,,,,,,,,,,,,,,,,,,,,,,,,,,,,,,,,,,,,,,,,,,,,,,,,,,,,,,,,,,,,,,,,,,,,,,,,,,,,,,,,,,,,,,,,,,,,,,,,,,,,,,,,,,,,,,,,,,,,,,,,,,,,,,,,,,,
,,650af764a14e318085b20747,2024-02-21_22h26.52.019,kallum_motion_pilot,2023.2.2,MacIntel,59.88023952,650af764a14e318085b20747,65d6bb0e977760de756971f7,65d6bed911081d3e25dfeeb6,0.0359,0.0359,0,87,87,56,1,onetwo,,,,,,,,,,,,,,,,,,,,,,,,,,,,,,,,,,,,,,,,,,,,,,,,,,,,,,,,,,,,,,,,,,,,,,,,,,,,,,,,,,,,,,,,,,,,,,,,,,,,,,,,,,,,,,,,,,,,,,,,,,,,,,,,,,,,,,,,,
,,650af764a14e318085b20747,2024-02-21_22h26.52.019,kallum_motion_pilot,2023.2.2,MacIntel,59.88023952,650af764a14e318085b20747,65d6bb0e977760de756971f7,65d6bed911081d3e25dfeeb6,0.0359,0.036,0,88,88,48,1,onetwo,,,,,,,,,,,,,,,,,,,,,,,,,,,,,,,,,,,,,,,,,,,,,,,,,,,,,,,,,,,,,,,,,,,,,,,,,,,,,,,,,,,,,,,,,,,,,,,,,,,,,,,,,,,,,,,,,,,,,,,,,,,,,,,,,,,,,,,,,
,,650af764a14e318085b20747,2024-02-21_22h26.52.019,kallum_motion_pilot,2023.2.2,MacIntel,59.88023952,650af764a14e318085b20747,65d6bb0e977760de756971f7,65d6bed911081d3e25dfeeb6,0.0367,0.0368,0,89,89,0,1,onetwo,,,,,,,,,,,,,,,,,,,,,,,,,,,,,,,,,,,,,,,,,,,,,,,,,,,,,,,,,,,,,,,,,,,,,,,,,,,,,,,,,,,,,,,,,,,,,,,,,,,,,,,,,,,,,,,,,,,,,,,,,,,,,,,,,,,,,,,,,
,,650af764a14e318085b20747,2024-02-21_22h26.52.019,kallum_motion_pilot,2023.2.2,MacIntel,59.88023952,650af764a14e318085b20747,65d6bb0e977760de756971f7,65d6bed911081d3e25dfeeb6,0.0369,0.0369,0,90,90,67,1,twofour,,,,,,,,,,,,,,,,,,,,,,,,,,,,,,,,,,,,,,,,,,,,,,,,,,,,,,,,,,,,,,,,,,,,,,,,,,,,,,,,,,,,,,,,,,,,,,,,,,,,,,,,,,,,,,,,,,,,,,,,,,,,,,,,,,,,,,,,,
,,650af764a14e318085b20747,2024-02-21_22h26.52.019,kallum_motion_pilot,2023.2.2,MacIntel,59.88023952,650af764a14e318085b20747,65d6bb0e977760de756971f7,65d6bed911081d3e25dfeeb6,0.0369,0.037,0,91,91,147,1,sixeight,,,,,,,,,,,,,,,,,,,,,,,,,,,,,,,,,,,,,,,,,,,,,,,,,,,,,,,,,,,,,,,,,,,,,,,,,,,,,,,,,,,,,,,,,,,,,,,,,,,,,,,,,,,,,,,,,,,,,,,,,,,,,,,,,,,,,,,,,
,,650af764a14e318085b20747,2024-02-21_22h26.52.019,kallum_motion_pilot,2023.2.2,MacIntel,59.88023952,650af764a14e318085b20747,65d6bb0e977760de756971f7,65d6bed911081d3e25dfeeb6,0.037,0.037,0,92,92,55,1,fourthree,,,,,,,,,,,,,,,,,,,,,,,,,,,,,,,,,,,,,,,,,,,,,,,,,,,,,,,,,,,,,,,,,,,,,,,,,,,,,,,,,,,,,,,,,,,,,,,,,,,,,,,,,,,,,,,,,,,,,,,,,,,,,,,,,,,,,,,,,
,,650af764a14e318085b20747,2024-02-21_22h26.52.019,kallum_motion_pilot,2023.2.2,MacIntel,59.88023952,650af764a14e318085b20747,65d6bb0e977760de756971f7,65d6bed911081d3e25dfeeb6,0.0371,0.0371,0,93,93,128,1,fivesix,,,,,,,,,,,,,,,,,,,,,,,,,,,,,,,,,,,,,,,,,,,,,,,,,,,,,,,,,,,,,,,,,,,,,,,,,,,,,,,,,,,,,,,,,,,,,,,,,,,,,,,,,,,,,,,,,,,,,,,,,,,,,,,,,,,,,,,,,
,,650af764a14e318085b20747,2024-02-21_22h26.52.019,kallum_motion_pilot,2023.2.2,MacIntel,59.88023952,650af764a14e318085b20747,65d6bb0e977760de756971f7,65d6bed911081d3e25dfeeb6,0.0377,0.0377,0,94,94,133,1,seveneight,,,,,,,,,,,,,,,,,,,,,,,,,,,,,,,,,,,,,,,,,,,,,,,,,,,,,,,,,,,,,,,,,,,,,,,,,,,,,,,,,,,,,,,,,,,,,,,,,,,,,,,,,,,,,,,,,,,,,,,,,,,,,,,,,,,,,,,,,
,,650af764a14e318085b20747,2024-02-21_22h26.52.019,kallum_motion_pilot,2023.2.2,MacIntel,59.88023952,650af764a14e318085b20747,65d6bb0e977760de756971f7,65d6bed911081d3e25dfeeb6,0.0378,0.0379,0,95,95,37,1,threefour,,,,,,,,,,,,,,,,,,,,,,,,,,,,,,,,,,,,,,,,,,,,,,,,,,,,,,,,,,,,,,,,,,,,,,,,,,,,,,,,,,,,,,,,,,,,,,,,,,,,,,,,,,,,,,,,,,,,,,,,,,,,,,,,,,,,,,,,,
,,650af764a14e318085b20747,2024-02-21_22h26.52.019,kallum_motion_pilot,2023.2.2,MacIntel,59.88023952,650af764a14e318085b20747,65d6bb0e977760de756971f7,65d6bed911081d3e25dfeeb6,0.0379,0.0379,0,96,96,111,1,eightseven,,,,,,,,,,,,,,,,,,,,,,,,,,,,,,,,,,,,,,,,,,,,,,,,,,,,,,,,,,,,,,,,,,,,,,,,,,,,,,,,,,,,,,,,,,,,,,,,,,,,,,,,,,,,,,,,,,,,,,,,,,,,,,,,,,,,,,,,,
,,650af764a14e318085b20747,2024-02-21_22h26.52.019,kallum_motion_pilot,2023.2.2,MacIntel,59.88023952,650af764a14e318085b20747,65d6bb0e977760de756971f7,65d6bed911081d3e25dfeeb6,0.0386,0.0387,0,97,97,39,1,fourthree,,,,,,,,,,,,,,,,,,,,,,,,,,,,,,,,,,,,,,,,,,,,,,,,,,,,,,,,,,,,,,,,,,,,,,,,,,,,,,,,,,,,,,,,,,,,,,,,,,,,,,,,,,,,,,,,,,,,,,,,,,,,,,,,,,,,,,,,,
,,650af764a14e318085b20747,2024-02-21_22h26.52.019,kallum_motion_pilot,2023.2.2,MacIntel,59.88023952,650af764a14e318085b20747,65d6bb0e977760de756971f7,65d6bed911081d3e25dfeeb6,0.039,0.039,0,98,98,22,1,fourtwo,,,,,,,,,,,,,,,,,,,,,,,,,,,,,,,,,,,,,,,,,,,,,,,,,,,,,,,,,,,,,,,,,,,,,,,,,,,,,,,,,,,,,,,,,,,,,,,,,,,,,,,,,,,,,,,,,,,,,,,,,,,,,,,,,,,,,,,,,
,,650af764a14e318085b20747,2024-02-21_22h26.52.019,kallum_motion_pilot,2023.2.2,MacIntel,59.88023952,650af764a14e318085b20747,65d6bb0e977760de756971f7,65d6bed911081d3e25dfeeb6,0.0392,0.0393,0,99,99,36,1,threeone,,,,,,,,,,,,,,,,,,,,,,,,,,,,,,,,,,,,,,,,,,,,,,,,,,,,,,,,,,,,,,,,,,,,,,,,,,,,,,,,,,,,,,,,,,,,,,,,,,,,,,,,,,,,,,,,,,,,,,,,,,,,,,,,,,,,,,,,,
,,650af764a14e318085b20747,2024-02-21_22h26.52.019,kallum_motion_pilot,2023.2.2,MacIntel,59.88023952,650af764a14e318085b20747,65d6bb0e977760de756971f7,65d6bed911081d3e25dfeeb6,0.0396,0.0396,0,100,100,74,1,twoone,,,,,,,,,,,,,,,,,,,,,,,,,,,,,,,,,,,,,,,,,,,,,,,,,,,,,,,,,,,,,,,,,,,,,,,,,,,,,,,,,,,,,,,,,,,,,,,,,,,,,,,,,,,,,,,,,,,,,,,,,,,,,,,,,,,,,,,,,
,,650af764a14e318085b20747,2024-02-21_22h26.52.019,kallum_motion_pilot,2023.2.2,MacIntel,59.88023952,650af764a14e318085b20747,65d6bb0e977760de756971f7,65d6bed911081d3e25dfeeb6,0.0397,0.0397,0,101,101,117,1,seveneight,,,,,,,,,,,,,,,,,,,,,,,,,,,,,,,,,,,,,,,,,,,,,,,,,,,,,,,,,,,,,,,,,,,,,,,,,,,,,,,,,,,,,,,,,,,,,,,,,,,,,,,,,,,,,,,,,,,,,,,,,,,,,,,,,,,,,,,,,
,,650af764a14e318085b20747,2024-02-21_22h26.52.019,kallum_motion_pilot,2023.2.2,MacIntel,59.88023952,650af764a14e318085b20747,65d6bb0e977760de756971f7,65d6bed911081d3e25dfeeb6,0.0398,0.0399,0,102,102,89,1,fiveseven,,,,,,,,,,,,,,,,,,,,,,,,,,,,,,,,,,,,,,,,,,,,,,,,,,,,,,,,,,,,,,,,,,,,,,,,,,,,,,,,,,,,,,,,,,,,,,,,,,,,,,,,,,,,,,,,,,,,,,,,,,,,,,,,,,,,,,,,,
,,650af764a14e318085b20747,2024-02-21_22h26.52.019,kallum_motion_pilot,2023.2.2,MacIntel,59.88023952,650af764a14e318085b20747,65d6bb0e977760de756971f7,65d6bed911081d3e25dfeeb6,0.04,0.04,0,103,103,146,1,sixfive,,,,,,,,,,,,,,,,,,,,,,,,,,,,,,,,,,,,,,,,,,,,,,,,,,,,,,,,,,,,,,,,,,,,,,,,,,,,,,,,,,,,,,,,,,,,,,,,,,,,,,,,,,,,,,,,,,,,,,,,,,,,,,,,,,,,,,,,,
,,650af764a14e318085b20747,2024-02-21_22h26.52.019,kallum_motion_pilot,2023.2.2,MacIntel,59.88023952,650af764a14e318085b20747,65d6bb0e977760de756971f7,65d6bed911081d3e25dfeeb6,0.04,0.04,0,104,104,92,1,sevenfive,,,,,,,,,,,,,,,,,,,,,,,,,,,,,,,,,,,,,,,,,,,,,,,,,,,,,,,,,,,,,,,,,,,,,,,,,,,,,,,,,,,,,,,,,,,,,,,,,,,,,,,,,,,,,,,,,,,,,,,,,,,,,,,,,,,,,,,,,
,,650af764a14e318085b20747,2024-02-21_22h26.52.019,kallum_motion_pilot,2023.2.2,MacIntel,59.88023952,650af764a14e318085b20747,65d6bb0e977760de756971f7,65d6bed911081d3e25dfeeb6,0.0401,0.0401,0,105,105,16,1,onetwo,,,,,,,,,,,,,,,,,,,,,,,,,,,,,,,,,,,,,,,,,,,,,,,,,,,,,,,,,,,,,,,,,,,,,,,,,,,,,,,,,,,,,,,,,,,,,,,,,,,,,,,,,,,,,,,,,,,,,,,,,,,,,,,,,,,,,,,,,
,,650af764a14e318085b20747,2024-02-21_22h26.52.019,kallum_motion_pilot,2023.2.2,MacIntel,59.88023952,650af764a14e318085b20747,65d6bb0e977760de756971f7,65d6bed911081d3e25dfeeb6,0.0402,0.0402,0,106,106,90,1,sixfive,,,,,,,,,,,,,,,,,,,,,,,,,,,,,,,,,,,,,,,,,,,,,,,,,,,,,,,,,,,,,,,,,,,,,,,,,,,,,,,,,,,,,,,,,,,,,,,,,,,,,,,,,,,,,,,,,,,,,,,,,,,,,,,,,,,,,,,,,
,,650af764a14e318085b20747,2024-02-21_22h26.52.019,kallum_motion_pilot,2023.2.2,MacIntel,59.88023952,650af764a14e318085b20747,65d6bb0e977760de756971f7,65d6bed911081d3e25dfeeb6,0.0403,0.0403,0,107,107,13,1,threefour,,,,,,,,,,,,,,,,,,,,,,,,,,,,,,,,,,,,,,,,,,,,,,,,,,,,,,,,,,,,,,,,,,,,,,,,,,,,,,,,,,,,,,,,,,,,,,,,,,,,,,,,,,,,,,,,,,,,,,,,,,,,,,,,,,,,,,,,,
,,650af764a14e318085b20747,2024-02-21_22h26.52.019,kallum_motion_pilot,2023.2.2,MacIntel,59.88023952,650af764a14e318085b20747,65d6bb0e977760de756971f7,65d6bed911081d3e25dfeeb6,0.0403,0.0403,0,108,108,5,1,threefour,,,,,,,,,,,,,,,,,,,,,,,,,,,,,,,,,,,,,,,,,,,,,,,,,,,,,,,,,,,,,,,,,,,,,,,,,,,,,,,,,,,,,,,,,,,,,,,,,,,,,,,,,,,,,,,,,,,,,,,,,,,,,,,,,,,,,,,,,
,,650af764a14e318085b20747,2024-02-21_22h26.52.019,kallum_motion_pilot,2023.2.2,MacIntel,59.88023952,650af764a14e318085b20747,65d6bb0e977760de756971f7,65d6bed911081d3e25dfeeb6,0.0404,0.0405,0,109,109,49,1,onethree,,,,,,,,,,,,,,,,,,,,,,,,,,,,,,,,,,,,,,,,,,,,,,,,,,,,,,,,,,,,,,,,,,,,,,,,,,,,,,,,,,,,,,,,,,,,,,,,,,,,,,,,,,,,,,,,,,,,,,,,,,,,,,,,,,,,,,,,,
,,650af764a14e318085b20747,2024-02-21_22h26.52.019,kallum_motion_pilot,2023.2.2,MacIntel,59.88023952,650af764a14e318085b20747,65d6bb0e977760de756971f7,65d6bed911081d3e25dfeeb6,0.0405,0.0405,0,110,110,43,1,twofour,,,,,,,,,,,,,,,,,,,,,,,,,,,,,,,,,,,,,,,,,,,,,,,,,,,,,,,,,,,,,,,,,,,,,,,,,,,,,,,,,,,,,,,,,,,,,,,,,,,,,,,,,,,,,,,,,,,,,,,,,,,,,,,,,,,,,,,,,
,,650af764a14e318085b20747,2024-02-21_22h26.52.019,kallum_motion_pilot,2023.2.2,MacIntel,59.88023952,650af764a14e318085b20747,65d6bb0e977760de756971f7,65d6bed911081d3e25dfeeb6,0.0406,0.0406,0,111,111,64,1,onetwo,,,,,,,,,,,,,,,,,,,,,,,,,,,,,,,,,,,,,,,,,,,,,,,,,,,,,,,,,,,,,,,,,,,,,,,,,,,,,,,,,,,,,,,,,,,,,,,,,,,,,,,,,,,,,,,,,,,,,,,,,,,,,,,,,,,,,,,,,
,,650af764a14e318085b20747,2024-02-21_22h26.52.019,kallum_motion_pilot,2023.2.2,MacIntel,59.88023952,650af764a14e318085b20747,65d6bb0e977760de756971f7,65d6bed911081d3e25dfeeb6,0.0406,0.0408,0,112,112,131,1,sixeight,,,,,,,,,,,,,,,,,,,,,,,,,,,,,,,,,,,,,,,,,,,,,,,,,,,,,,,,,,,,,,,,,,,,,,,,,,,,,,,,,,,,,,,,,,,,,,,,,,,,,,,,,,,,,,,,,,,,,,,,,,,,,,,,,,,,,,,,,
,,650af764a14e318085b20747,2024-02-21_22h26.52.019,kallum_motion_pilot,2023.2.2,MacIntel,59.88023952,650af764a14e318085b20747,65d6bb0e977760de756971f7,65d6bed911081d3e25dfeeb6,0.0408,0.0408,0,113,113,96,1,fivesix,,,,,,,,,,,,,,,,,,,,,,,,,,,,,,,,,,,,,,,,,,,,,,,,,,,,,,,,,,,,,,,,,,,,,,,,,,,,,,,,,,,,,,,,,,,,,,,,,,,,,,,,,,,,,,,,,,,,,,,,,,,,,,,,,,,,,,,,,
,,650af764a14e318085b20747,2024-02-21_22h26.52.019,kallum_motion_pilot,2023.2.2,MacIntel,59.88023952,650af764a14e318085b20747,65d6bb0e977760de756971f7,65d6bed911081d3e25dfeeb6,0.0408,0.0408,0,114,114,70,1,fourtwo,,,,,,,,,,,,,,,,,,,,,,,,,,,,,,,,,,,,,,,,,,,,,,,,,,,,,,,,,,,,,,,,,,,,,,,,,,,,,,,,,,,,,,,,,,,,,,,,,,,,,,,,,,,,,,,,,,,,,,,,,,,,,,,,,,,,,,,,,
,,650af764a14e318085b20747,2024-02-21_22h26.52.019,kallum_motion_pilot,2023.2.2,MacIntel,59.88023952,650af764a14e318085b20747,65d6bb0e977760de756971f7,65d6bed911081d3e25dfeeb6,0.041,0.041,0,115,115,98,1,sixfive,,,,,,,,,,,,,,,,,,,,,,,,,,,,,,,,,,,,,,,,,,,,,,,,,,,,,,,,,,,,,,,,,,,,,,,,,,,,,,,,,,,,,,,,,,,,,,,,,,,,,,,,,,,,,,,,,,,,,,,,,,,,,,,,,,,,,,,,,
,,650af764a14e318085b20747,2024-02-21_22h26.52.019,kallum_motion_pilot,2023.2.2,MacIntel,59.88023952,650af764a14e318085b20747,65d6bb0e977760de756971f7,65d6bed911081d3e25dfeeb6,0.0411,0.0411,0,116,116,104,1,fivesix,,,,,,,,,,,,,,,,,,,,,,,,,,,,,,,,,,,,,,,,,,,,,,,,,,,,,,,,,,,,,,,,,,,,,,,,,,,,,,,,,,,,,,,,,,,,,,,,,,,,,,,,,,,,,,,,,,,,,,,,,,,,,,,,,,,,,,,,,
,,650af764a14e318085b20747,2024-02-21_22h26.52.019,kallum_motion_pilot,2023.2.2,MacIntel,59.88023952,650af764a14e318085b20747,65d6bb0e977760de756971f7,65d6bed911081d3e25dfeeb6,0.0411,0.0411,0,117,117,87,1,eightseven,,,,,,,,,,,,,,,,,,,,,,,,,,,,,,,,,,,,,,,,,,,,,,,,,,,,,,,,,,,,,,,,,,,,,,,,,,,,,,,,,,,,,,,,,,,,,,,,,,,,,,,,,,,,,,,,,,,,,,,,,,,,,,,,,,,,,,,,,
,,650af764a14e318085b20747,2024-02-21_22h26.52.019,kallum_motion_pilot,2023.2.2,MacIntel,59.88023952,650af764a14e318085b20747,65d6bb0e977760de756971f7,65d6bed911081d3e25dfeeb6,0.0412,0.0413,0,118,118,145,1,fiveseven,,,,,,,,,,,,,,,,,,,,,,,,,,,,,,,,,,,,,,,,,,,,,,,,,,,,,,,,,,,,,,,,,,,,,,,,,,,,,,,,,,,,,,,,,,,,,,,,,,,,,,,,,,,,,,,,,,,,,,,,,,,,,,,,,,,,,,,,,
,,650af764a14e318085b20747,2024-02-21_22h26.52.019,kallum_motion_pilot,2023.2.2,MacIntel,59.88023952,650af764a14e318085b20747,65d6bb0e977760de756971f7,65d6bed911081d3e25dfeeb6,0.0413,0.0413,0,119,119,84,1,sevenfive,,,,,,,,,,,,,,,,,,,,,,,,,,,,,,,,,,,,,,,,,,,,,,,,,,,,,,,,,,,,,,,,,,,,,,,,,,,,,,,,,,,,,,,,,,,,,,,,,,,,,,,,,,,,,,,,,,,,,,,,,,,,,,,,,,,,,,,,,
,,650af764a14e318085b20747,2024-02-21_22h26.52.019,kallum_motion_pilot,2023.2.2,MacIntel,59.88023952,650af764a14e318085b20747,65d6bb0e977760de756971f7,65d6bed911081d3e25dfeeb6,0.0416,0.0417,0,120,120,114,1,sixfive,,,,,,,,,,,,,,,,,,,,,,,,,,,,,,,,,,,,,,,,,,,,,,,,,,,,,,,,,,,,,,,,,,,,,,,,,,,,,,,,,,,,,,,,,,,,,,,,,,,,,,,,,,,,,,,,,,,,,,,,,,,,,,,,,,,,,,,,,
,,650af764a14e318085b20747,2024-02-21_22h26.52.019,kallum_motion_pilot,2023.2.2,MacIntel,59.88023952,650af764a14e318085b20747,65d6bb0e977760de756971f7,65d6bed911081d3e25dfeeb6,0.0417,0.0417,0,121,121,106,1,sixfive,,,,,,,,,,,,,,,,,,,,,,,,,,,,,,,,,,,,,,,,,,,,,,,,,,,,,,,,,,,,,,,,,,,,,,,,,,,,,,,,,,,,,,,,,,,,,,,,,,,,,,,,,,,,,,,,,,,,,,,,,,,,,,,,,,,,,,,,,
,,650af764a14e318085b20747,2024-02-21_22h26.52.019,kallum_motion_pilot,2023.2.2,MacIntel,59.88023952,650af764a14e318085b20747,65d6bb0e977760de756971f7,65d6bed911081d3e25dfeeb6,0.0419,0.0419,0,122,122,110,1,eightsix,,,,,,,,,,,,,,,,,,,,,,,,,,,,,,,,,,,,,,,,,,,,,,,,,,,,,,,,,,,,,,,,,,,,,,,,,,,,,,,,,,,,,,,,,,,,,,,,,,,,,,,,,,,,,,,,,,,,,,,,,,,,,,,,,,,,,,,,,
,,650af764a14e318085b20747,2024-02-21_22h26.52.019,kallum_motion_pilot,2023.2.2,MacIntel,59.88023952,650af764a14e318085b20747,65d6bb0e977760de756971f7,65d6bed911081d3e25dfeeb6,0.0419,0.0419,0,123,123,112,1,fivesix,,,,,,,,,,,,,,,,,,,,,,,,,,,,,,,,,,,,,,,,,,,,,,,,,,,,,,,,,,,,,,,,,,,,,,,,,,,,,,,,,,,,,,,,,,,,,,,,,,,,,,,,,,,,,,,,,,,,,,,,,,,,,,,,,,,,,,,,,
,,650af764a14e318085b20747,2024-02-21_22h26.52.019,kallum_motion_pilot,2023.2.2,MacIntel,59.88023952,650af764a14e318085b20747,65d6bb0e977760de756971f7,65d6bed911081d3e25dfeeb6,0.0421,0.0421,0,124,124,15,1,fourthree,,,,,,,,,,,,,,,,,,,,,,,,,,,,,,,,,,,,,,,,,,,,,,,,,,,,,,,,,,,,,,,,,,,,,,,,,,,,,,,,,,,,,,,,,,,,,,,,,,,,,,,,,,,,,,,,,,,,,,,,,,,,,,,,,,,,,,,,,
,,650af764a14e318085b20747,2024-02-21_22h26.52.019,kallum_motion_pilot,2023.2.2,MacIntel,59.88023952,650af764a14e318085b20747,65d6bb0e977760de756971f7,65d6bed911081d3e25dfeeb6,0.0422,0.0422,0,125,125,27,1,twofour,,,,,,,,,,,,,,,,,,,,,,,,,,,,,,,,,,,,,,,,,,,,,,,,,,,,,,,,,,,,,,,,,,,,,,,,,,,,,,,,,,,,,,,,,,,,,,,,,,,,,,,,,,,,,,,,,,,,,,,,,,,,,,,,,,,,,,,,,
,,650af764a14e318085b20747,2024-02-21_22h26.52.019,kallum_motion_pilot,2023.2.2,MacIntel,59.88023952,650af764a14e318085b20747,65d6bb0e977760de756971f7,65d6bed911081d3e25dfeeb6,0.0423,0.0423,0,126,126,52,1,threeone,,,,,,,,,,,,,,,,,,,,,,,,,,,,,,,,,,,,,,,,,,,,,,,,,,,,,,,,,,,,,,,,,,,,,,,,,,,,,,,,,,,,,,,,,,,,,,,,,,,,,,,,,,,,,,,,,,,,,,,,,,,,,,,,,,,,,,,,,
,,650af764a14e318085b20747,2024-02-21_22h26.52.019,kallum_motion_pilot,2023.2.2,MacIntel,59.88023952,650af764a14e318085b20747,65d6bb0e977760de756971f7,65d6bed911081d3e25dfeeb6,0.0424,0.0425,0,127,127,61,1,threefour,,,,,,,,,,,,,,,,,,,,,,,,,,,,,,,,,,,,,,,,,,,,,,,,,,,,,,,,,,,,,,,,,,,,,,,,,,,,,,,,,,,,,,,,,,,,,,,,,,,,,,,,,,,,,,,,,,,,,,,,,,,,,,,,,,,,,,,,,
,,650af764a14e318085b20747,2024-02-21_22h26.52.019,kallum_motion_pilot,2023.2.2,MacIntel,59.88023952,650af764a14e318085b20747,65d6bb0e977760de756971f7,65d6bed911081d3e25dfeeb6,0.0425,0.0426,0,128,128,151,1,eightseven,,,,,,,,,,,,,,,,,,,,,,,,,,,,,,,,,,,,,,,,,,,,,,,,,,,,,,,,,,,,,,,,,,,,,,,,,,,,,,,,,,,,,,,,,,,,,,,,,,,,,,,,,,,,,,,,,,,,,,,,,,,,,,,,,,,,,,,,,
,,650af764a14e318085b20747,2024-02-21_22h26.52.019,kallum_motion_pilot,2023.2.2,MacIntel,59.88023952,650af764a14e318085b20747,65d6bb0e977760de756971f7,65d6bed911081d3e25dfeeb6,0.0426,0.0426,0,129,129,80,1,fivesix,,,,,,,,,,,,,,,,,,,,,,,,,,,,,,,,,,,,,,,,,,,,,,,,,,,,,,,,,,,,,,,,,,,,,,,,,,,,,,,,,,,,,,,,,,,,,,,,,,,,,,,,,,,,,,,,,,,,,,,,,,,,,,,,,,,,,,,,,
,,650af764a14e318085b20747,2024-02-21_22h26.52.019,kallum_motion_pilot,2023.2.2,MacIntel,59.88023952,650af764a14e318085b20747,65d6bb0e977760de756971f7,65d6bed911081d3e25dfeeb6,0.0427,0.0427,0,130,130,99,1,sixeight,,,,,,,,,,,,,,,,,,,,,,,,,,,,,,,,,,,,,,,,,,,,,,,,,,,,,,,,,,,,,,,,,,,,,,,,,,,,,,,,,,,,,,,,,,,,,,,,,,,,,,,,,,,,,,,,,,,,,,,,,,,,,,,,,,,,,,,,,
,,650af764a14e318085b20747,2024-02-21_22h26.52.019,kallum_motion_pilot,2023.2.2,MacIntel,59.88023952,650af764a14e318085b20747,65d6bb0e977760de756971f7,65d6bed911081d3e25dfeeb6,0.0429,0.0429,0,131,131,14,1,fourtwo,,,,,,,,,,,,,,,,,,,,,,,,,,,,,,,,,,,,,,,,,,,,,,,,,,,,,,,,,,,,,,,,,,,,,,,,,,,,,,,,,,,,,,,,,,,,,,,,,,,,,,,,,,,,,,,,,,,,,,,,,,,,,,,,,,,,,,,,,
,,650af764a14e318085b20747,2024-02-21_22h26.52.019,kallum_motion_pilot,2023.2.2,MacIntel,59.88023952,650af764a14e318085b20747,65d6bb0e977760de756971f7,65d6bed911081d3e25dfeeb6,0.0429,0.0429,0,132,132,143,1,eightseven,,,,,,,,,,,,,,,,,,,,,,,,,,,,,,,,,,,,,,,,,,,,,,,,,,,,,,,,,,,,,,,,,,,,,,,,,,,,,,,,,,,,,,,,,,,,,,,,,,,,,,,,,,,,,,,,,,,,,,,,,,,,,,,,,,,,,,,,,
,,650af764a14e318085b20747,2024-02-21_22h26.52.019,kallum_motion_pilot,2023.2.2,MacIntel,59.88023952,650af764a14e318085b20747,65d6bb0e977760de756971f7,65d6bed911081d3e25dfeeb6,0.0431,0.0431,0,133,133,139,1,sixeight,,,,,,,,,,,,,,,,,,,,,,,,,,,,,,,,,,,,,,,,,,,,,,,,,,,,,,,,,,,,,,,,,,,,,,,,,,,,,,,,,,,,,,,,,,,,,,,,,,,,,,,,,,,,,,,,,,,,,,,,,,,,,,,,,,,,,,,,,
,,650af764a14e318085b20747,2024-02-21_22h26.52.019,kallum_motion_pilot,2023.2.2,MacIntel,59.88023952,650af764a14e318085b20747,65d6bb0e977760de756971f7,65d6bed911081d3e25dfeeb6,0.0431,0.0435,0,134,134,136,1,fivesix,,,,,,,,,,,,,,,,,,,,,,,,,,,,,,,,,,,,,,,,,,,,,,,,,,,,,,,,,,,,,,,,,,,,,,,,,,,,,,,,,,,,,,,,,,,,,,,,,,,,,,,,,,,,,,,,,,,,,,,,,,,,,,,,,,,,,,,,,
,,650af764a14e318085b20747,2024-02-21_22h26.52.019,kallum_motion_pilot,2023.2.2,MacIntel,59.88023952,650af764a14e318085b20747,65d6bb0e977760de756971f7,65d6bed911081d3e25dfeeb6,0.0437,0.0437,0,135,135,17,1,onethree,,,,,,,,,,,,,,,,,,,,,,,,,,,,,,,,,,,,,,,,,,,,,,,,,,,,,,,,,,,,,,,,,,,,,,,,,,,,,,,,,,,,,,,,,,,,,,,,,,,,,,,,,,,,,,,,,,,,,,,,,,,,,,,,,,,,,,,,,
,,650af764a14e318085b20747,2024-02-21_22h26.52.019,kallum_motion_pilot,2023.2.2,MacIntel,59.88023952,650af764a14e318085b20747,65d6bb0e977760de756971f7,65d6bed911081d3e25dfeeb6,0.0439,0.044,0,136,136,100,1,sevenfive,,,,,,,,,,,,,,,,,,,,,,,,,,,,,,,,,,,,,,,,,,,,,,,,,,,,,,,,,,,,,,,,,,,,,,,,,,,,,,,,,,,,,,,,,,,,,,,,,,,,,,,,,,,,,,,,,,,,,,,,,,,,,,,,,,,,,,,,,
,,650af764a14e318085b20747,2024-02-21_22h26.52.019,kallum_motion_pilot,2023.2.2,MacIntel,59.88023952,650af764a14e318085b20747,65d6bb0e977760de756971f7,65d6bed911081d3e25dfeeb6,0.044,0.044,0,137,137,86,1,eightsix,,,,,,,,,,,,,,,,,,,,,,,,,,,,,,,,,,,,,,,,,,,,,,,,,,,,,,,,,,,,,,,,,,,,,,,,,,,,,,,,,,,,,,,,,,,,,,,,,,,,,,,,,,,,,,,,,,,,,,,,,,,,,,,,,,,,,,,,,
,,650af764a14e318085b20747,2024-02-21_22h26.52.019,kallum_motion_pilot,2023.2.2,MacIntel,59.88023952,650af764a14e318085b20747,65d6bb0e977760de756971f7,65d6bed911081d3e25dfeeb6,0.0441,0.0442,0,138,138,66,1,twoone,,,,,,,,,,,,,,,,,,,,,,,,,,,,,,,,,,,,,,,,,,,,,,,,,,,,,,,,,,,,,,,,,,,,,,,,,,,,,,,,,,,,,,,,,,,,,,,,,,,,,,,,,,,,,,,,,,,,,,,,,,,,,,,,,,,,,,,,,
,,650af764a14e318085b20747,2024-02-21_22h26.52.019,kallum_motion_pilot,2023.2.2,MacIntel,59.88023952,650af764a14e318085b20747,65d6bb0e977760de756971f7,65d6bed911081d3e25dfeeb6,0.0442,0.0443,0,139,139,54,1,fourtwo,,,,,,,,,,,,,,,,,,,,,,,,,,,,,,,,,,,,,,,,,,,,,,,,,,,,,,,,,,,,,,,,,,,,,,,,,,,,,,,,,,,,,,,,,,,,,,,,,,,,,,,,,,,,,,,,,,,,,,,,,,,,,,,,,,,,,,,,,
,,650af764a14e318085b20747,2024-02-21_22h26.52.019,kallum_motion_pilot,2023.2.2,MacIntel,59.88023952,650af764a14e318085b20747,65d6bb0e977760de756971f7,65d6bed911081d3e25dfeeb6,0.0443,0.0443,0,140,140,124,1,sevenfive,,,,,,,,,,,,,,,,,,,,,,,,,,,,,,,,,,,,,,,,,,,,,,,,,,,,,,,,,,,,,,,,,,,,,,,,,,,,,,,,,,,,,,,,,,,,,,,,,,,,,,,,,,,,,,,,,,,,,,,,,,,,,,,,,,,,,,,,,
,,650af764a14e318085b20747,2024-02-21_22h26.52.019,kallum_motion_pilot,2023.2.2,MacIntel,59.88023952,650af764a14e318085b20747,65d6bb0e977760de756971f7,65d6bed911081d3e25dfeeb6,0.0444,0.0445,0,141,141,142,1,eightsix,,,,,,,,,,,,,,,,,,,,,,,,,,,,,,,,,,,,,,,,,,,,,,,,,,,,,,,,,,,,,,,,,,,,,,,,,,,,,,,,,,,,,,,,,,,,,,,,,,,,,,,,,,,,,,,,,,,,,,,,,,,,,,,,,,,,,,,,,
,,650af764a14e318085b20747,2024-02-21_22h26.52.019,kallum_motion_pilot,2023.2.2,MacIntel,59.88023952,650af764a14e318085b20747,65d6bb0e977760de756971f7,65d6bed911081d3e25dfeeb6,0.0446,0.0446,0,142,142,26,1,twoone,,,,,,,,,,,,,,,,,,,,,,,,,,,,,,,,,,,,,,,,,,,,,,,,,,,,,,,,,,,,,,,,,,,,,,,,,,,,,,,,,,,,,,,,,,,,,,,,,,,,,,,,,,,,,,,,,,,,,,,,,,,,,,,,,,,,,,,,,
,,650af764a14e318085b20747,2024-02-21_22h26.52.019,kallum_motion_pilot,2023.2.2,MacIntel,59.88023952,650af764a14e318085b20747,65d6bb0e977760de756971f7,65d6bed911081d3e25dfeeb6,0.0446,0.0447,0,143,143,123,1,sixeight,,,,,,,,,,,,,,,,,,,,,,,,,,,,,,,,,,,,,,,,,,,,,,,,,,,,,,,,,,,,,,,,,,,,,,,,,,,,,,,,,,,,,,,,,,,,,,,,,,,,,,,,,,,,,,,,,,,,,,,,,,,,,,,,,,,,,,,,,
,,650af764a14e318085b20747,2024-02-21_22h26.52.019,kallum_motion_pilot,2023.2.2,MacIntel,59.88023952,650af764a14e318085b20747,65d6bb0e977760de756971f7,65d6bed911081d3e25dfeeb6,0.0447,0.0447,0,144,144,20,1,threeone,,,,,,,,,,,,,,,,,,,,,,,,,,,,,,,,,,,,,,,,,,,,,,,,,,,,,,,,,,,,,,,,,,,,,,,,,,,,,,,,,,,,,,,,,,,,,,,,,,,,,,,,,,,,,,,,,,,,,,,,,,,,,,,,,,,,,,,,,
,,650af764a14e318085b20747,2024-02-21_22h26.52.019,kallum_motion_pilot,2023.2.2,MacIntel,59.88023952,650af764a14e318085b20747,65d6bb0e977760de756971f7,65d6bed911081d3e25dfeeb6,0.0448,0.0448,0,145,145,63,1,fourthree,,,,,,,,,,,,,,,,,,,,,,,,,,,,,,,,,,,,,,,,,,,,,,,,,,,,,,,,,,,,,,,,,,,,,,,,,,,,,,,,,,,,,,,,,,,,,,,,,,,,,,,,,,,,,,,,,,,,,,,,,,,,,,,,,,,,,,,,,
,,650af764a14e318085b20747,2024-02-21_22h26.52.019,kallum_motion_pilot,2023.2.2,MacIntel,59.88023952,650af764a14e318085b20747,65d6bb0e977760de756971f7,65d6bed911081d3e25dfeeb6,0.0449,0.0449,0,146,146,57,1,onethree,,,,,,,,,,,,,,,,,,,,,,,,,,,,,,,,,,,,,,,,,,,,,,,,,,,,,,,,,,,,,,,,,,,,,,,,,,,,,,,,,,,,,,,,,,,,,,,,,,,,,,,,,,,,,,,,,,,,,,,,,,,,,,,,,,,,,,,,,
,,650af764a14e318085b20747,2024-02-21_22h26.52.019,kallum_motion_pilot,2023.2.2,MacIntel,59.88023952,650af764a14e318085b20747,65d6bb0e977760de756971f7,65d6bed911081d3e25dfeeb6,0.045,0.045,0,147,147,102,1,eightsix,,,,,,,,,,,,,,,,,,,,,,,,,,,,,,,,,,,,,,,,,,,,,,,,,,,,,,,,,,,,,,,,,,,,,,,,,,,,,,,,,,,,,,,,,,,,,,,,,,,,,,,,,,,,,,,,,,,,,,,,,,,,,,,,,,,,,,,,,
,,650af764a14e318085b20747,2024-02-21_22h26.52.019,kallum_motion_pilot,2023.2.2,MacIntel,59.88023952,650af764a14e318085b20747,65d6bb0e977760de756971f7,65d6bed911081d3e25dfeeb6,0.0451,0.0452,0,148,148,4,1,threeone,,,,,,,,,,,,,,,,,,,,,,,,,,,,,,,,,,,,,,,,,,,,,,,,,,,,,,,,,,,,,,,,,,,,,,,,,,,,,,,,,,,,,,,,,,,,,,,,,,,,,,,,,,,,,,,,,,,,,,,,,,,,,,,,,,,,,,,,,
,,650af764a14e318085b20747,2024-02-21_22h26.52.019,kallum_motion_pilot,2023.2.2,MacIntel,59.88023952,650af764a14e318085b20747,65d6bb0e977760de756971f7,65d6bed911081d3e25dfeeb6,0.0452,0.0452,0,149,149,150,1,eightsix,,,,,,,,,,,,,,,,,,,,,,,,,,,,,,,,,,,,,,,,,,,,,,,,,,,,,,,,,,,,,,,,,,,,,,,,,,,,,,,,,,,,,,,,,,,,,,,,,,,,,,,,,,,,,,,,,,,,,,,,,,,,,,,,,,,,,,,,,
,,650af764a14e318085b20747,2024-02-21_22h26.52.019,kallum_motion_pilot,2023.2.2,MacIntel,59.88023952,650af764a14e318085b20747,65d6bb0e977760de756971f7,65d6bed911081d3e25dfeeb6,0.0453,0.0453,0,150,150,40,1,onetwo,,,,,,,,,,,,,,,,,,,,,,,,,,,,,,,,,,,,,,,,,,,,,,,,,,,,,,,,,,,,,,,,,,,,,,,,,,,,,,,,,,,,,,,,,,,,,,,,,,,,,,,,,,,,,,,,,,,,,,,,,,,,,,,,,,,,,,,,,
,,650af764a14e318085b20747,2024-02-21_22h26.52.019,kallum_motion_pilot,2023.2.2,MacIntel,59.88023952,650af764a14e318085b20747,65d6bb0e977760de756971f7,65d6bed911081d3e25dfeeb6,0.0453,0.0454,0,151,151,47,1,fourthree,,,,,,,,,,,,,,,,,,,,,,,,,,,,,,,,,,,,,,,,,,,,,,,,,,,,,,,,,,,,,,,,,,,,,,,,,,,,,,,,,,,,,,,,,,,,,,,,,,,,,,,,,,,,,,,,,,,,,,,,,,,,,,,,,,,,,,,,,
,,650af764a14e318085b20747,2024-02-21_22h26.52.019,kallum_motion_pilot,2023.2.2,MacIntel,59.88023952,650af764a14e318085b20747,65d6bb0e977760de756971f7,65d6bed911081d3e25dfeeb6,0.0455,0.0455,0,152,152,21,1,threefour,,,,,,,,,,,,,,,,,,,,,,,,,,,,,,,,,,,,,,,,,,,,,,,,,,,,,,,,,,,,,,,,,,,,,,,,,,,,,,,,,,,,,,,,,,,,,,,,,,,,,,,,,,,,,,,,,,,,,,,,,,,,,,,,,,,,,,,,,
,,650af764a14e318085b20747,2024-02-21_22h26.52.019,kallum_motion_pilot,2023.2.2,MacIntel,59.88023952,650af764a14e318085b20747,65d6bb0e977760de756971f7,65d6bed911081d3e25dfeeb6,0.0456,0.0456,0,153,153,91,1,sixeight,,,,,,,,,,,,,,,,,,,,,,,,,,,,,,,,,,,,,,,,,,,,,,,,,,,,,,,,,,,,,,,,,,,,,,,,,,,,,,,,,,,,,,,,,,,,,,,,,,,,,,,,,,,,,,,,,,,,,,,,,,,,,,,,,,,,,,,,,
,,650af764a14e318085b20747,2024-02-21_22h26.52.019,kallum_motion_pilot,2023.2.2,MacIntel,59.88023952,650af764a14e318085b20747,65d6bb0e977760de756971f7,65d6bed911081d3e25dfeeb6,0.0456,0.0457,0,154,154,2,1,twoone,,,,,,,,,,,,,,,,,,,,,,,,,,,,,,,,,,,,,,,,,,,,,,,,,,,,,,,,,,,,,,,,,,,,,,,,,,,,,,,,,,,,,,,,,,,,,,,,,,,,,,,,,,,,,,,,,,,,,,,,,,,,,,,,,,,,,,,,,
,,650af764a14e318085b20747,2024-02-21_22h26.52.019,kallum_motion_pilot,2023.2.2,MacIntel,59.88023952,650af764a14e318085b20747,65d6bb0e977760de756971f7,65d6bed911081d3e25dfeeb6,0.0457,0.0458,0,155,155,53,1,threefour,,,,,,,,,,,,,,,,,,,,,,,,,,,,,,,,,,,,,,,,,,,,,,,,,,,,,,,,,,,,,,,,,,,,,,,,,,,,,,,,,,,,,,,,,,,,,,,,,,,,,,,,,,,,,,,,,,,,,,,,,,,,,,,,,,,,,,,,,
,,650af764a14e318085b20747,2024-02-21_22h26.52.019,kallum_motion_pilot,2023.2.2,MacIntel,59.88023952,650af764a14e318085b20747,65d6bb0e977760de756971f7,65d6bed911081d3e25dfeeb6,0.0459,0.0459,0,156,156,157,1,seveneight,,,,,,,,,,,,,,,,,,,,,,,,,,,,,,,,,,,,,,,,,,,,,,,,,,,,,,,,,,,,,,,,,,,,,,,,,,,,,,,,,,,,,,,,,,,,,,,,,,,,,,,,,,,,,,,,,,,,,,,,,,,,,,,,,,,,,,,,,
,,650af764a14e318085b20747,2024-02-21_22h26.52.019,kallum_motion_pilot,2023.2.2,MacIntel,59.88023952,650af764a14e318085b20747,65d6bb0e977760de756971f7,65d6bed911081d3e25dfeeb6,0.0459,0.046,0,157,157,18,1,twoone,,,,,,,,,,,,,,,,,,,,,,,,,,,,,,,,,,,,,,,,,,,,,,,,,,,,,,,,,,,,,,,,,,,,,,,,,,,,,,,,,,,,,,,,,,,,,,,,,,,,,,,,,,,,,,,,,,,,,,,,,,,,,,,,,,,,,,,,,
,,650af764a14e318085b20747,2024-02-21_22h26.52.019,kallum_motion_pilot,2023.2.2,MacIntel,59.88023952,650af764a14e318085b20747,65d6bb0e977760de756971f7,65d6bed911081d3e25dfeeb6,0.046,0.0461,0,158,158,113,1,fiveseven,,,,,,,,,,,,,,,,,,,,,,,,,,,,,,,,,,,,,,,,,,,,,,,,,,,,,,,,,,,,,,,,,,,,,,,,,,,,,,,,,,,,,,,,,,,,,,,,,,,,,,,,,,,,,,,,,,,,,,,,,,,,,,,,,,,,,,,,,
,,650af764a14e318085b20747,2024-02-21_22h26.52.019,kallum_motion_pilot,2023.2.2,MacIntel,59.88023952,650af764a14e318085b20747,65d6bb0e977760de756971f7,65d6bed911081d3e25dfeeb6,0.0462,0.0462,0,159,159,19,1,twofour,,,,,,,,,,,,,,,,,,,,,,,,,,,,,,,,,,,,,,,,,,,,,,,,,,,,,,,,,,,,,,,,,,,,,,,,,,,,,,,,,,,,,,,,,,,,,,,,,,,,,,,,,,,,,,,,,,,,,,,,,,,,,,,,,,,,,,,,,
,,650af764a14e318085b20747,2024-02-21_22h26.52.019,kallum_motion_pilot,2023.2.2,MacIntel,59.88023952,650af764a14e318085b20747,65d6bb0e977760de756971f7,65d6bed911081d3e25dfeeb6,0.0463,0.0463,0,160,160,33,1,onethree,,,,,,,,,,,,,,,,,,,,,,,,,,,,,,,,,,,,,,,,,,,,,,,,,,,,,,,,,,,,,,,,,,,,,,,,,,,,,,,,,,,,,,,,,,,,,,,,,,,,,,,,,,,,,,,,,,,,,,,,,,,,,,,,,,,,,,,,,
,,650af764a14e318085b20747,2024-02-21_22h26.52.019,kallum_motion_pilot,2023.2.2,MacIntel,59.88023952,650af764a14e318085b20747,65d6bb0e977760de756971f7,65d6bed911081d3e25dfeeb6,0.0463,0.0464,0,161,161,32,1,onetwo,,,,,,,,,,,,,,,,,,,,,,,,,,,,,,,,,,,,,,,,,,,,,,,,,,,,,,,,,,,,,,,,,,,,,,,,,,,,,,,,,,,,,,,,,,,,,,,,,,,,,,,,,,,,,,,,,,,,,,,,,,,,,,,,,,,,,,,,,
,,650af764a14e318085b20747,2024-02-21_22h26.52.019,kallum_motion_pilot,2023.2.2,MacIntel,59.88023952,650af764a14e318085b20747,65d6bb0e977760de756971f7,65d6bed911081d3e25dfeeb6,0.0464,0.0465,1,0,162,109,1,seveneight,,,,,,,,,,,,,,,,,,,,,,,,,,,,,,,,,,,,,,,,,,,,,,,,,,,,,,,,,,,,,,,,,,,,,,,,,,,,,,,,,,,,,,,,,,,,,,,,,,,,,,,,,,,,,,,,,,,,,,,,,,,,,,,,,,,,,,,,,
,,650af764a14e318085b20747,2024-02-21_22h26.52.019,kallum_motion_pilot,2023.2.2,MacIntel,59.88023952,650af764a14e318085b20747,65d6bb0e977760de756971f7,65d6bed911081d3e25dfeeb6,0.0466,0.0467,1,1,163,25,1,onethree,,,,,,,,,,,,,,,,,,,,,,,,,,,,,,,,,,,,,,,,,,,,,,,,,,,,,,,,,,,,,,,,,,,,,,,,,,,,,,,,,,,,,,,,,,,,,,,,,,,,,,,,,,,,,,,,,,,,,,,,,,,,,,,,,,,,,,,,,
,,650af764a14e318085b20747,2024-02-21_22h26.52.019,kallum_motion_pilot,2023.2.2,MacIntel,59.88023952,650af764a14e318085b20747,65d6bb0e977760de756971f7,65d6bed911081d3e25dfeeb6,0.0467,0.0468,1,2,164,127,1,eightseven,,,,,,,,,,,,,,,,,,,,,,,,,,,,,,,,,,,,,,,,,,,,,,,,,,,,,,,,,,,,,,,,,,,,,,,,,,,,,,,,,,,,,,,,,,,,,,,,,,,,,,,,,,,,,,,,,,,,,,,,,,,,,,,,,,,,,,,,,
,,650af764a14e318085b20747,2024-02-21_22h26.52.019,kallum_motion_pilot,2023.2.2,MacIntel,59.88023952,650af764a14e318085b20747,65d6bb0e977760de756971f7,65d6bed911081d3e25dfeeb6,0.047,0.047,1,3,165,61,1,threefour,,,,,,,,,,,,,,,,,,,,,,,,,,,,,,,,,,,,,,,,,,,,,,,,,,,,,,,,,,,,,,,,,,,,,,,,,,,,,,,,,,,,,,,,,,,,,,,,,,,,,,,,,,,,,,,,,,,,,,,,,,,,,,,,,,,,,,,,,
,,650af764a14e318085b20747,2024-02-21_22h26.52.019,kallum_motion_pilot,2023.2.2,MacIntel,59.88023952,650af764a14e318085b20747,65d6bb0e977760de756971f7,65d6bed911081d3e25dfeeb6,0.047,0.0471,1,4,166,140,1,sevenfive,,,,,,,,,,,,,,,,,,,,,,,,,,,,,,,,,,,,,,,,,,,,,,,,,,,,,,,,,,,,,,,,,,,,,,,,,,,,,,,,,,,,,,,,,,,,,,,,,,,,,,,,,,,,,,,,,,,,,,,,,,,,,,,,,,,,,,,,,
,,650af764a14e318085b20747,2024-02-21_22h26.52.019,kallum_motion_pilot,2023.2.2,MacIntel,59.88023952,650af764a14e318085b20747,65d6bb0e977760de756971f7,65d6bed911081d3e25dfeeb6,0.0472,0.0472,1,5,167,160,1,fivesix,,,,,,,,,,,,,,,,,,,,,,,,,,,,,,,,,,,,,,,,,,,,,,,,,,,,,,,,,,,,,,,,,,,,,,,,,,,,,,,,,,,,,,,,,,,,,,,,,,,,,,,,,,,,,,,,,,,,,,,,,,,,,,,,,,,,,,,,,
,,650af764a14e318085b20747,2024-02-21_22h26.52.019,kallum_motion_pilot,2023.2.2,MacIntel,59.88023952,650af764a14e318085b20747,65d6bb0e977760de756971f7,65d6bed911081d3e25dfeeb6,0.0472,0.0473,1,6,168,156,1,sevenfive,,,,,,,,,,,,,,,,,,,,,,,,,,,,,,,,,,,,,,,,,,,,,,,,,,,,,,,,,,,,,,,,,,,,,,,,,,,,,,,,,,,,,,,,,,,,,,,,,,,,,,,,,,,,,,,,,,,,,,,,,,,,,,,,,,,,,,,,,
,,650af764a14e318085b20747,2024-02-21_22h26.52.019,kallum_motion_pilot,2023.2.2,MacIntel,59.88023952,650af764a14e318085b20747,65d6bb0e977760de756971f7,65d6bed911081d3e25dfeeb6,0.0473,0.0473,1,7,169,66,1,twoone,,,,,,,,,,,,,,,,,,,,,,,,,,,,,,,,,,,,,,,,,,,,,,,,,,,,,,,,,,,,,,,,,,,,,,,,,,,,,,,,,,,,,,,,,,,,,,,,,,,,,,,,,,,,,,,,,,,,,,,,,,,,,,,,,,,,,,,,,
,,650af764a14e318085b20747,2024-02-21_22h26.52.019,kallum_motion_pilot,2023.2.2,MacIntel,59.88023952,650af764a14e318085b20747,65d6bb0e977760de756971f7,65d6bed911081d3e25dfeeb6,0.0474,0.0475,1,8,170,133,1,seveneight,,,,,,,,,,,,,,,,,,,,,,,,,,,,,,,,,,,,,,,,,,,,,,,,,,,,,,,,,,,,,,,,,,,,,,,,,,,,,,,,,,,,,,,,,,,,,,,,,,,,,,,,,,,,,,,,,,,,,,,,,,,,,,,,,,,,,,,,,
,,650af764a14e318085b20747,2024-02-21_22h26.52.019,kallum_motion_pilot,2023.2.2,MacIntel,59.88023952,650af764a14e318085b20747,65d6bb0e977760de756971f7,65d6bed911081d3e25dfeeb6,0.0475,0.0475,1,9,171,30,1,fourtwo,,,,,,,,,,,,,,,,,,,,,,,,,,,,,,,,,,,,,,,,,,,,,,,,,,,,,,,,,,,,,,,,,,,,,,,,,,,,,,,,,,,,,,,,,,,,,,,,,,,,,,,,,,,,,,,,,,,,,,,,,,,,,,,,,,,,,,,,,
,,650af764a14e318085b20747,2024-02-21_22h26.52.019,kallum_motion_pilot,2023.2.2,MacIntel,59.88023952,650af764a14e318085b20747,65d6bb0e977760de756971f7,65d6bed911081d3e25dfeeb6,0.0477,0.0477,1,10,172,95,1,eightseven,,,,,,,,,,,,,,,,,,,,,,,,,,,,,,,,,,,,,,,,,,,,,,,,,,,,,,,,,,,,,,,,,,,,,,,,,,,,,,,,,,,,,,,,,,,,,,,,,,,,,,,,,,,,,,,,,,,,,,,,,,,,,,,,,,,,,,,,,
,,650af764a14e318085b20747,2024-02-21_22h26.52.019,kallum_motion_pilot,2023.2.2,MacIntel,59.88023952,650af764a14e318085b20747,65d6bb0e977760de756971f7,65d6bed911081d3e25dfeeb6,0.0479,0.0479,1,11,173,141,1,seveneight,,,,,,,,,,,,,,,,,,,,,,,,,,,,,,,,,,,,,,,,,,,,,,,,,,,,,,,,,,,,,,,,,,,,,,,,,,,,,,,,,,,,,,,,,,,,,,,,,,,,,,,,,,,,,,,,,,,,,,,,,,,,,,,,,,,,,,,,,
,,650af764a14e318085b20747,2024-02-21_22h26.52.019,kallum_motion_pilot,2023.2.2,MacIntel,59.88023952,650af764a14e318085b20747,65d6bb0e977760de756971f7,65d6bed911081d3e25dfeeb6,0.048,0.0481,1,12,174,32,1,onetwo,,,,,,,,,,,,,,,,,,,,,,,,,,,,,,,,,,,,,,,,,,,,,,,,,,,,,,,,,,,,,,,,,,,,,,,,,,,,,,,,,,,,,,,,,,,,,,,,,,,,,,,,,,,,,,,,,,,,,,,,,,,,,,,,,,,,,,,,,
,,650af764a14e318085b20747,2024-02-21_22h26.52.019,kallum_motion_pilot,2023.2.2,MacIntel,59.88023952,650af764a14e318085b20747,65d6bb0e977760de756971f7,65d6bed911081d3e25dfeeb6,0.0481,0.0481,1,13,175,40,1,onetwo,,,,,,,,,,,,,,,,,,,,,,,,,,,,,,,,,,,,,,,,,,,,,,,,,,,,,,,,,,,,,,,,,,,,,,,,,,,,,,,,,,,,,,,,,,,,,,,,,,,,,,,,,,,,,,,,,,,,,,,,,,,,,,,,,,,,,,,,,
,,650af764a14e318085b20747,2024-02-21_22h26.52.019,kallum_motion_pilot,2023.2.2,MacIntel,59.88023952,650af764a14e318085b20747,65d6bb0e977760de756971f7,65d6bed911081d3e25dfeeb6,0.0481,0.0482,1,14,176,89,1,fiveseven,,,,,,,,,,,,,,,,,,,,,,,,,,,,,,,,,,,,,,,,,,,,,,,,,,,,,,,,,,,,,,,,,,,,,,,,,,,,,,,,,,,,,,,,,,,,,,,,,,,,,,,,,,,,,,,,,,,,,,,,,,,,,,,,,,,,,,,,,
,,650af764a14e318085b20747,2024-02-21_22h26.52.019,kallum_motion_pilot,2023.2.2,MacIntel,59.88023952,650af764a14e318085b20747,65d6bb0e977760de756971f7,65d6bed911081d3e25dfeeb6,0.0483,0.0484,1,15,177,83,1,sixeight,,,,,,,,,,,,,,,,,,,,,,,,,,,,,,,,,,,,,,,,,,,,,,,,,,,,,,,,,,,,,,,,,,,,,,,,,,,,,,,,,,,,,,,,,,,,,,,,,,,,,,,,,,,,,,,,,,,,,,,,,,,,,,,,,,,,,,,,,
,,650af764a14e318085b20747,2024-02-21_22h26.52.019,kallum_motion_pilot,2023.2.2,MacIntel,59.88023952,650af764a14e318085b20747,65d6bb0e977760de756971f7,65d6bed911081d3e25dfeeb6,0.0484,0.0484,1,16,178,152,1,fivesix,,,,,,,,,,,,,,,,,,,,,,,,,,,,,,,,,,,,,,,,,,,,,,,,,,,,,,,,,,,,,,,,,,,,,,,,,,,,,,,,,,,,,,,,,,,,,,,,,,,,,,,,,,,,,,,,,,,,,,,,,,,,,,,,,,,,,,,,,
,,650af764a14e318085b20747,2024-02-21_22h26.52.019,kallum_motion_pilot,2023.2.2,MacIntel,59.88023952,650af764a14e318085b20747,65d6bb0e977760de756971f7,65d6bed911081d3e25dfeeb6,0.0485,0.0486,1,17,179,39,1,fourthree,,,,,,,,,,,,,,,,,,,,,,,,,,,,,,,,,,,,,,,,,,,,,,,,,,,,,,,,,,,,,,,,,,,,,,,,,,,,,,,,,,,,,,,,,,,,,,,,,,,,,,,,,,,,,,,,,,,,,,,,,,,,,,,,,,,,,,,,,
,,650af764a14e318085b20747,2024-02-21_22h26.52.019,kallum_motion_pilot,2023.2.2,MacIntel,59.88023952,650af764a14e318085b20747,65d6bb0e977760de756971f7,65d6bed911081d3e25dfeeb6,0.0486,0.0486,1,18,180,20,1,threeone,,,,,,,,,,,,,,,,,,,,,,,,,,,,,,,,,,,,,,,,,,,,,,,,,,,,,,,,,,,,,,,,,,,,,,,,,,,,,,,,,,,,,,,,,,,,,,,,,,,,,,,,,,,,,,,,,,,,,,,,,,,,,,,,,,,,,,,,,
,,650af764a14e318085b20747,2024-02-21_22h26.52.019,kallum_motion_pilot,2023.2.2,MacIntel,59.88023952,650af764a14e318085b20747,65d6bb0e977760de756971f7,65d6bed911081d3e25dfeeb6,0.0487,0.0488,1,19,181,86,1,eightsix,,,,,,,,,,,,,,,,,,,,,,,,,,,,,,,,,,,,,,,,,,,,,,,,,,,,,,,,,,,,,,,,,,,,,,,,,,,,,,,,,,,,,,,,,,,,,,,,,,,,,,,,,,,,,,,,,,,,,,,,,,,,,,,,,,,,,,,,,
,,650af764a14e318085b20747,2024-02-21_22h26.52.019,kallum_motion_pilot,2023.2.2,MacIntel,59.88023952,650af764a14e318085b20747,65d6bb0e977760de756971f7,65d6bed911081d3e25dfeeb6,0.0489,0.0489,1,20,182,13,1,threefour,,,,,,,,,,,,,,,,,,,,,,,,,,,,,,,,,,,,,,,,,,,,,,,,,,,,,,,,,,,,,,,,,,,,,,,,,,,,,,,,,,,,,,,,,,,,,,,,,,,,,,,,,,,,,,,,,,,,,,,,,,,,,,,,,,,,,,,,,
,,650af764a14e318085b20747,2024-02-21_22h26.52.019,kallum_motion_pilot,2023.2.2,MacIntel,59.88023952,650af764a14e318085b20747,65d6bb0e977760de756971f7,65d6bed911081d3e25dfeeb6,0.0489,0.049,1,21,183,142,1,eightsix,,,,,,,,,,,,,,,,,,,,,,,,,,,,,,,,,,,,,,,,,,,,,,,,,,,,,,,,,,,,,,,,,,,,,,,,,,,,,,,,,,,,,,,,,,,,,,,,,,,,,,,,,,,,,,,,,,,,,,,,,,,,,,,,,,,,,,,,,
,,650af764a14e318085b20747,2024-02-21_22h26.52.019,kallum_motion_pilot,2023.2.2,MacIntel,59.88023952,650af764a14e318085b20747,65d6bb0e977760de756971f7,65d6bed911081d3e25dfeeb6,0.0491,0.0491,1,22,184,105,1,fiveseven,,,,,,,,,,,,,,,,,,,,,,,,,,,,,,,,,,,,,,,,,,,,,,,,,,,,,,,,,,,,,,,,,,,,,,,,,,,,,,,,,,,,,,,,,,,,,,,,,,,,,,,,,,,,,,,,,,,,,,,,,,,,,,,,,,,,,,,,,
,,650af764a14e318085b20747,2024-02-21_22h26.52.019,kallum_motion_pilot,2023.2.2,MacIntel,59.88023952,650af764a14e318085b20747,65d6bb0e977760de756971f7,65d6bed911081d3e25dfeeb6,0.0491,0.0492,1,23,185,3,1,twofour,,,,,,,,,,,,,,,,,,,,,,,,,,,,,,,,,,,,,,,,,,,,,,,,,,,,,,,,,,,,,,,,,,,,,,,,,,,,,,,,,,,,,,,,,,,,,,,,,,,,,,,,,,,,,,,,,,,,,,,,,,,,,,,,,,,,,,,,,
,,650af764a14e318085b20747,2024-02-21_22h26.52.019,kallum_motion_pilot,2023.2.2,MacIntel,59.88023952,650af764a14e318085b20747,65d6bb0e977760de756971f7,65d6bed911081d3e25dfeeb6,0.0493,0.0493,1,24,186,38,1,fourtwo,,,,,,,,,,,,,,,,,,,,,,,,,,,,,,,,,,,,,,,,,,,,,,,,,,,,,,,,,,,,,,,,,,,,,,,,,,,,,,,,,,,,,,,,,,,,,,,,,,,,,,,,,,,,,,,,,,,,,,,,,,,,,,,,,,,,,,,,,
,,650af764a14e318085b20747,2024-02-21_22h26.52.019,kallum_motion_pilot,2023.2.2,MacIntel,59.88023952,650af764a14e318085b20747,65d6bb0e977760de756971f7,65d6bed911081d3e25dfeeb6,0.0494,0.0494,1,25,187,64,1,onetwo,,,,,,,,,,,,,,,,,,,,,,,,,,,,,,,,,,,,,,,,,,,,,,,,,,,,,,,,,,,,,,,,,,,,,,,,,,,,,,,,,,,,,,,,,,,,,,,,,,,,,,,,,,,,,,,,,,,,,,,,,,,,,,,,,,,,,,,,,
,,650af764a14e318085b20747,2024-02-21_22h26.52.019,kallum_motion_pilot,2023.2.2,MacIntel,59.88023952,650af764a14e318085b20747,65d6bb0e977760de756971f7,65d6bed911081d3e25dfeeb6,0.0495,0.0496,1,26,188,31,1,fourthree,,,,,,,,,,,,,,,,,,,,,,,,,,,,,,,,,,,,,,,,,,,,,,,,,,,,,,,,,,,,,,,,,,,,,,,,,,,,,,,,,,,,,,,,,,,,,,,,,,,,,,,,,,,,,,,,,,,,,,,,,,,,,,,,,,,,,,,,,
,,650af764a14e318085b20747,2024-02-21_22h26.52.019,kallum_motion_pilot,2023.2.2,MacIntel,59.88023952,650af764a14e318085b20747,65d6bb0e977760de756971f7,65d6bed911081d3e25dfeeb6,0.0496,0.0497,1,27,189,2,1,twoone,,,,,,,,,,,,,,,,,,,,,,,,,,,,,,,,,,,,,,,,,,,,,,,,,,,,,,,,,,,,,,,,,,,,,,,,,,,,,,,,,,,,,,,,,,,,,,,,,,,,,,,,,,,,,,,,,,,,,,,,,,,,,,,,,,,,,,,,,
,,650af764a14e318085b20747,2024-02-21_22h26.52.019,kallum_motion_pilot,2023.2.2,MacIntel,59.88023952,650af764a14e318085b20747,65d6bb0e977760de756971f7,65d6bed911081d3e25dfeeb6,0.0498,0.0498,1,28,190,149,1,seveneight,,,,,,,,,,,,,,,,,,,,,,,,,,,,,,,,,,,,,,,,,,,,,,,,,,,,,,,,,,,,,,,,,,,,,,,,,,,,,,,,,,,,,,,,,,,,,,,,,,,,,,,,,,,,,,,,,,,,,,,,,,,,,,,,,,,,,,,,,
,,650af764a14e318085b20747,2024-02-21_22h26.52.019,kallum_motion_pilot,2023.2.2,MacIntel,59.88023952,650af764a14e318085b20747,65d6bb0e977760de756971f7,65d6bed911081d3e25dfeeb6,0.0499,0.05,1,29,191,91,1,sixeight,,,,,,,,,,,,,,,,,,,,,,,,,,,,,,,,,,,,,,,,,,,,,,,,,,,,,,,,,,,,,,,,,,,,,,,,,,,,,,,,,,,,,,,,,,,,,,,,,,,,,,,,,,,,,,,,,,,,,,,,,,,,,,,,,,,,,,,,,
,,650af764a14e318085b20747,2024-02-21_22h26.52.019,kallum_motion_pilot,2023.2.2,MacIntel,59.88023952,650af764a14e318085b20747,65d6bb0e977760de756971f7,65d6bed911081d3e25dfeeb6,0.05,0.05,1,30,192,107,1,sixeight,,,,,,,,,,,,,,,,,,,,,,,,,,,,,,,,,,,,,,,,,,,,,,,,,,,,,,,,,,,,,,,,,,,,,,,,,,,,,,,,,,,,,,,,,,,,,,,,,,,,,,,,,,,,,,,,,,,,,,,,,,,,,,,,,,,,,,,,,
,,650af764a14e318085b20747,2024-02-21_22h26.52.019,kallum_motion_pilot,2023.2.2,MacIntel,59.88023952,650af764a14e318085b20747,65d6bb0e977760de756971f7,65d6bed911081d3e25dfeeb6,0.0501,0.0502,1,31,193,117,1,seveneight,,,,,,,,,,,,,,,,,,,,,,,,,,,,,,,,,,,,,,,,,,,,,,,,,,,,,,,,,,,,,,,,,,,,,,,,,,,,,,,,,,,,,,,,,,,,,,,,,,,,,,,,,,,,,,,,,,,,,,,,,,,,,,,,,,,,,,,,,
,,650af764a14e318085b20747,2024-02-21_22h26.52.019,kallum_motion_pilot,2023.2.2,MacIntel,59.88023952,650af764a14e318085b20747,65d6bb0e977760de756971f7,65d6bed911081d3e25dfeeb6,0.0503,0.0503,1,32,194,54,1,fourtwo,,,,,,,,,,,,,,,,,,,,,,,,,,,,,,,,,,,,,,,,,,,,,,,,,,,,,,,,,,,,,,,,,,,,,,,,,,,,,,,,,,,,,,,,,,,,,,,,,,,,,,,,,,,,,,,,,,,,,,,,,,,,,,,,,,,,,,,,,
,,650af764a14e318085b20747,2024-02-21_22h26.52.019,kallum_motion_pilot,2023.2.2,MacIntel,59.88023952,650af764a14e318085b20747,65d6bb0e977760de756971f7,65d6bed911081d3e25dfeeb6,0.0503,0.0504,1,33,195,68,1,threeone,,,,,,,,,,,,,,,,,,,,,,,,,,,,,,,,,,,,,,,,,,,,,,,,,,,,,,,,,,,,,,,,,,,,,,,,,,,,,,,,,,,,,,,,,,,,,,,,,,,,,,,,,,,,,,,,,,,,,,,,,,,,,,,,,,,,,,,,,
,,650af764a14e318085b20747,2024-02-21_22h26.52.019,kallum_motion_pilot,2023.2.2,MacIntel,59.88023952,650af764a14e318085b20747,65d6bb0e977760de756971f7,65d6bed911081d3e25dfeeb6,0.0504,0.0504,1,34,196,104,1,fivesix,,,,,,,,,,,,,,,,,,,,,,,,,,,,,,,,,,,,,,,,,,,,,,,,,,,,,,,,,,,,,,,,,,,,,,,,,,,,,,,,,,,,,,,,,,,,,,,,,,,,,,,,,,,,,,,,,,,,,,,,,,,,,,,,,,,,,,,,,
,,650af764a14e318085b20747,2024-02-21_22h26.52.019,kallum_motion_pilot,2023.2.2,MacIntel,59.88023952,650af764a14e318085b20747,65d6bb0e977760de756971f7,65d6bed911081d3e25dfeeb6,0.0505,0.0506,1,35,197,12,1,threeone,,,,,,,,,,,,,,,,,,,,,,,,,,,,,,,,,,,,,,,,,,,,,,,,,,,,,,,,,,,,,,,,,,,,,,,,,,,,,,,,,,,,,,,,,,,,,,,,,,,,,,,,,,,,,,,,,,,,,,,,,,,,,,,,,,,,,,,,,
,,650af764a14e318085b20747,2024-02-21_22h26.52.019,kallum_motion_pilot,2023.2.2,MacIntel,59.88023952,650af764a14e318085b20747,65d6bb0e977760de756971f7,65d6bed911081d3e25dfeeb6,0.0507,0.0507,1,36,198,18,1,twoone,,,,,,,,,,,,,,,,,,,,,,,,,,,,,,,,,,,,,,,,,,,,,,,,,,,,,,,,,,,,,,,,,,,,,,,,,,,,,,,,,,,,,,,,,,,,,,,,,,,,,,,,,,,,,,,,,,,,,,,,,,,,,,,,,,,,,,,,,
,,650af764a14e318085b20747,2024-02-21_22h26.52.019,kallum_motion_pilot,2023.2.2,MacIntel,59.88023952,650af764a14e318085b20747,65d6bb0e977760de756971f7,65d6bed911081d3e25dfeeb6,0.0507,0.0508,1,37,199,75,1,twofour,,,,,,,,,,,,,,,,,,,,,,,,,,,,,,,,,,,,,,,,,,,,,,,,,,,,,,,,,,,,,,,,,,,,,,,,,,,,,,,,,,,,,,,,,,,,,,,,,,,,,,,,,,,,,,,,,,,,,,,,,,,,,,,,,,,,,,,,,
,,650af764a14e318085b20747,2024-02-21_22h26.52.019,kallum_motion_pilot,2023.2.2,MacIntel,59.88023952,650af764a14e318085b20747,65d6bb0e977760de756971f7,65d6bed911081d3e25dfeeb6,0.0509,0.0509,1,38,200,122,1,sixfive,,,,,,,,,,,,,,,,,,,,,,,,,,,,,,,,,,,,,,,,,,,,,,,,,,,,,,,,,,,,,,,,,,,,,,,,,,,,,,,,,,,,,,,,,,,,,,,,,,,,,,,,,,,,,,,,,,,,,,,,,,,,,,,,,,,,,,,,,
,,650af764a14e318085b20747,2024-02-21_22h26.52.019,kallum_motion_pilot,2023.2.2,MacIntel,59.88023952,650af764a14e318085b20747,65d6bb0e977760de756971f7,65d6bed911081d3e25dfeeb6,0.051,0.051,1,39,201,79,1,eightseven,,,,,,,,,,,,,,,,,,,,,,,,,,,,,,,,,,,,,,,,,,,,,,,,,,,,,,,,,,,,,,,,,,,,,,,,,,,,,,,,,,,,,,,,,,,,,,,,,,,,,,,,,,,,,,,,,,,,,,,,,,,,,,,,,,,,,,,,,
,,650af764a14e318085b20747,2024-02-21_22h26.52.019,kallum_motion_pilot,2023.2.2,MacIntel,59.88023952,650af764a14e318085b20747,65d6bb0e977760de756971f7,65d6bed911081d3e25dfeeb6,0.0511,0.0511,1,40,202,101,1,seveneight,,,,,,,,,,,,,,,,,,,,,,,,,,,,,,,,,,,,,,,,,,,,,,,,,,,,,,,,,,,,,,,,,,,,,,,,,,,,,,,,,,,,,,,,,,,,,,,,,,,,,,,,,,,,,,,,,,,,,,,,,,,,,,,,,,,,,,,,,
,,650af764a14e318085b20747,2024-02-21_22h26.52.019,kallum_motion_pilot,2023.2.2,MacIntel,59.88023952,650af764a14e318085b20747,65d6bb0e977760de756971f7,65d6bed911081d3e25dfeeb6,0.0511,0.0512,1,41,203,126,1,eightsix,,,,,,,,,,,,,,,,,,,,,,,,,,,,,,,,,,,,,,,,,,,,,,,,,,,,,,,,,,,,,,,,,,,,,,,,,,,,,,,,,,,,,,,,,,,,,,,,,,,,,,,,,,,,,,,,,,,,,,,,,,,,,,,,,,,,,,,,,
,,650af764a14e318085b20747,2024-02-21_22h26.52.019,kallum_motion_pilot,2023.2.2,MacIntel,59.88023952,650af764a14e318085b20747,65d6bb0e977760de756971f7,65d6bed911081d3e25dfeeb6,0.0513,0.0513,1,42,204,70,1,fourtwo,,,,,,,,,,,,,,,,,,,,,,,,,,,,,,,,,,,,,,,,,,,,,,,,,,,,,,,,,,,,,,,,,,,,,,,,,,,,,,,,,,,,,,,,,,,,,,,,,,,,,,,,,,,,,,,,,,,,,,,,,,,,,,,,,,,,,,,,,
,,650af764a14e318085b20747,2024-02-21_22h26.52.019,kallum_motion_pilot,2023.2.2,MacIntel,59.88023952,650af764a14e318085b20747,65d6bb0e977760de756971f7,65d6bed911081d3e25dfeeb6,0.0513,0.0514,1,43,205,92,1,sevenfive,,,,,,,,,,,,,,,,,,,,,,,,,,,,,,,,,,,,,,,,,,,,,,,,,,,,,,,,,,,,,,,,,,,,,,,,,,,,,,,,,,,,,,,,,,,,,,,,,,,,,,,,,,,,,,,,,,,,,,,,,,,,,,,,,,,,,,,,,
,,650af764a14e318085b20747,2024-02-21_22h26.52.019,kallum_motion_pilot,2023.2.2,MacIntel,59.88023952,650af764a14e318085b20747,65d6bb0e977760de756971f7,65d6bed911081d3e25dfeeb6,0.0515,0.0515,1,44,206,121,1,fiveseven,,,,,,,,,,,,,,,,,,,,,,,,,,,,,,,,,,,,,,,,,,,,,,,,,,,,,,,,,,,,,,,,,,,,,,,,,,,,,,,,,,,,,,,,,,,,,,,,,,,,,,,,,,,,,,,,,,,,,,,,,,,,,,,,,,,,,,,,,
,,650af764a14e318085b20747,2024-02-21_22h26.52.019,kallum_motion_pilot,2023.2.2,MacIntel,59.88023952,650af764a14e318085b20747,65d6bb0e977760de756971f7,65d6bed911081d3e25dfeeb6,0.0515,0.0517,1,45,207,148,1,sevenfive,,,,,,,,,,,,,,,,,,,,,,,,,,,,,,,,,,,,,,,,,,,,,,,,,,,,,,,,,,,,,,,,,,,,,,,,,,,,,,,,,,,,,,,,,,,,,,,,,,,,,,,,,,,,,,,,,,,,,,,,,,,,,,,,,,,,,,,,,
,,650af764a14e318085b20747,2024-02-21_22h26.52.019,kallum_motion_pilot,2023.2.2,MacIntel,59.88023952,650af764a14e318085b20747,65d6bb0e977760de756971f7,65d6bed911081d3e25dfeeb6,0.0517,0.0517,1,46,208,55,1,fourthree,,,,,,,,,,,,,,,,,,,,,,,,,,,,,,,,,,,,,,,,,,,,,,,,,,,,,,,,,,,,,,,,,,,,,,,,,,,,,,,,,,,,,,,,,,,,,,,,,,,,,,,,,,,,,,,,,,,,,,,,,,,,,,,,,,,,,,,,,
,,650af764a14e318085b20747,2024-02-21_22h26.52.019,kallum_motion_pilot,2023.2.2,MacIntel,59.88023952,650af764a14e318085b20747,65d6bb0e977760de756971f7,65d6bed911081d3e25dfeeb6,0.0518,0.0518,1,47,209,88,1,fivesix,,,,,,,,,,,,,,,,,,,,,,,,,,,,,,,,,,,,,,,,,,,,,,,,,,,,,,,,,,,,,,,,,,,,,,,,,,,,,,,,,,,,,,,,,,,,,,,,,,,,,,,,,,,,,,,,,,,,,,,,,,,,,,,,,,,,,,,,,
,,650af764a14e318085b20747,2024-02-21_22h26.52.019,kallum_motion_pilot,2023.2.2,MacIntel,59.88023952,650af764a14e318085b20747,65d6bb0e977760de756971f7,65d6bed911081d3e25dfeeb6,0.0518,0.0519,1,48,210,0,1,onetwo,,,,,,,,,,,,,,,,,,,,,,,,,,,,,,,,,,,,,,,,,,,,,,,,,,,,,,,,,,,,,,,,,,,,,,,,,,,,,,,,,,,,,,,,,,,,,,,,,,,,,,,,,,,,,,,,,,,,,,,,,,,,,,,,,,,,,,,,,
,,650af764a14e318085b20747,2024-02-21_22h26.52.019,kallum_motion_pilot,2023.2.2,MacIntel,59.88023952,650af764a14e318085b20747,65d6bb0e977760de756971f7,65d6bed911081d3e25dfeeb6,0.052,0.0524,1,49,211,7,1,fourthree,,,,,,,,,,,,,,,,,,,,,,,,,,,,,,,,,,,,,,,,,,,,,,,,,,,,,,,,,,,,,,,,,,,,,,,,,,,,,,,,,,,,,,,,,,,,,,,,,,,,,,,,,,,,,,,,,,,,,,,,,,,,,,,,,,,,,,,,,
,,650af764a14e318085b20747,2024-02-21_22h26.52.019,kallum_motion_pilot,2023.2.2,MacIntel,59.88023952,650af764a14e318085b20747,65d6bb0e977760de756971f7,65d6bed911081d3e25dfeeb6,0.0526,0.0527,1,50,212,74,1,twoone,,,,,,,,,,,,,,,,,,,,,,,,,,,,,,,,,,,,,,,,,,,,,,,,,,,,,,,,,,,,,,,,,,,,,,,,,,,,,,,,,,,,,,,,,,,,,,,,,,,,,,,,,,,,,,,,,,,,,,,,,,,,,,,,,,,,,,,,,
,,650af764a14e318085b20747,2024-02-21_22h26.52.019,kallum_motion_pilot,2023.2.2,MacIntel,59.88023952,650af764a14e318085b20747,65d6bb0e977760de756971f7,65d6bed911081d3e25dfeeb6,0.0528,0.053,1,51,213,29,1,threefour,,,,,,,,,,,,,,,,,,,,,,,,,,,,,,,,,,,,,,,,,,,,,,,,,,,,,,,,,,,,,,,,,,,,,,,,,,,,,,,,,,,,,,,,,,,,,,,,,,,,,,,,,,,,,,,,,,,,,,,,,,,,,,,,,,,,,,,,,
,,650af764a14e318085b20747,2024-02-21_22h26.52.019,kallum_motion_pilot,2023.2.2,MacIntel,59.88023952,650af764a14e318085b20747,65d6bb0e977760de756971f7,65d6bed911081d3e25dfeeb6,0.0531,0.0531,1,52,214,157,1,seveneight,,,,,,,,,,,,,,,,,,,,,,,,,,,,,,,,,,,,,,,,,,,,,,,,,,,,,,,,,,,,,,,,,,,,,,,,,,,,,,,,,,,,,,,,,,,,,,,,,,,,,,,,,,,,,,,,,,,,,,,,,,,,,,,,,,,,,,,,,
,,650af764a14e318085b20747,2024-02-21_22h26.52.019,kallum_motion_pilot,2023.2.2,MacIntel,59.88023952,650af764a14e318085b20747,65d6bb0e977760de756971f7,65d6bed911081d3e25dfeeb6,0.0532,0.0533,1,53,215,124,1,sevenfive,,,,,,,,,,,,,,,,,,,,,,,,,,,,,,,,,,,,,,,,,,,,,,,,,,,,,,,,,,,,,,,,,,,,,,,,,,,,,,,,,,,,,,,,,,,,,,,,,,,,,,,,,,,,,,,,,,,,,,,,,,,,,,,,,,,,,,,,,
,,650af764a14e318085b20747,2024-02-21_22h26.52.019,kallum_motion_pilot,2023.2.2,MacIntel,59.88023952,650af764a14e318085b20747,65d6bb0e977760de756971f7,65d6bed911081d3e25dfeeb6,0.0533,0.0534,1,54,216,21,1,threefour,,,,,,,,,,,,,,,,,,,,,,,,,,,,,,,,,,,,,,,,,,,,,,,,,,,,,,,,,,,,,,,,,,,,,,,,,,,,,,,,,,,,,,,,,,,,,,,,,,,,,,,,,,,,,,,,,,,,,,,,,,,,,,,,,,,,,,,,,
,,650af764a14e318085b20747,2024-02-21_22h26.52.019,kallum_motion_pilot,2023.2.2,MacIntel,59.88023952,650af764a14e318085b20747,65d6bb0e977760de756971f7,65d6bed911081d3e25dfeeb6,0.0534,0.0535,1,55,217,108,1,sevenfive,,,,,,,,,,,,,,,,,,,,,,,,,,,,,,,,,,,,,,,,,,,,,,,,,,,,,,,,,,,,,,,,,,,,,,,,,,,,,,,,,,,,,,,,,,,,,,,,,,,,,,,,,,,,,,,,,,,,,,,,,,,,,,,,,,,,,,,,,
,,650af764a14e318085b20747,2024-02-21_22h26.52.019,kallum_motion_pilot,2023.2.2,MacIntel,59.88023952,650af764a14e318085b20747,65d6bb0e977760de756971f7,65d6bed911081d3e25dfeeb6,0.0535,0.0536,1,56,218,27,1,twofour,,,,,,,,,,,,,,,,,,,,,,,,,,,,,,,,,,,,,,,,,,,,,,,,,,,,,,,,,,,,,,,,,,,,,,,,,,,,,,,,,,,,,,,,,,,,,,,,,,,,,,,,,,,,,,,,,,,,,,,,,,,,,,,,,,,,,,,,,
,,650af764a14e318085b20747,2024-02-21_22h26.52.019,kallum_motion_pilot,2023.2.2,MacIntel,59.88023952,650af764a14e318085b20747,65d6bb0e977760de756971f7,65d6bed911081d3e25dfeeb6,0.0537,0.0545,1,57,219,85,1,seveneight,,,,,,,,,,,,,,,,,,,,,,,,,,,,,,,,,,,,,,,,,,,,,,,,,,,,,,,,,,,,,,,,,,,,,,,,,,,,,,,,,,,,,,,,,,,,,,,,,,,,,,,,,,,,,,,,,,,,,,,,,,,,,,,,,,,,,,,,,
,,650af764a14e318085b20747,2024-02-21_22h26.52.019,kallum_motion_pilot,2023.2.2,MacIntel,59.88023952,650af764a14e318085b20747,65d6bb0e977760de756971f7,65d6bed911081d3e25dfeeb6,0.0547,0.0549,1,58,220,9,1,onethree,,,,,,,,,,,,,,,,,,,,,,,,,,,,,,,,,,,,,,,,,,,,,,,,,,,,,,,,,,,,,,,,,,,,,,,,,,,,,,,,,,,,,,,,,,,,,,,,,,,,,,,,,,,,,,,,,,,,,,,,,,,,,,,,,,,,,,,,,
,,650af764a14e318085b20747,2024-02-21_22h26.52.019,kallum_motion_pilot,2023.2.2,MacIntel,59.88023952,650af764a14e318085b20747,65d6bb0e977760de756971f7,65d6bed911081d3e25dfeeb6,0.0551,0.0552,1,59,221,106,1,sixfive,,,,,,,,,,,,,,,,,,,,,,,,,,,,,,,,,,,,,,,,,,,,,,,,,,,,,,,,,,,,,,,,,,,,,,,,,,,,,,,,,,,,,,,,,,,,,,,,,,,,,,,,,,,,,,,,,,,,,,,,,,,,,,,,,,,,,,,,,
,,650af764a14e318085b20747,2024-02-21_22h26.52.019,kallum_motion_pilot,2023.2.2,MacIntel,59.88023952,650af764a14e318085b20747,65d6bb0e977760de756971f7,65d6bed911081d3e25dfeeb6,0.0554,0.0554,1,60,222,155,1,sixeight,,,,,,,,,,,,,,,,,,,,,,,,,,,,,,,,,,,,,,,,,,,,,,,,,,,,,,,,,,,,,,,,,,,,,,,,,,,,,,,,,,,,,,,,,,,,,,,,,,,,,,,,,,,,,,,,,,,,,,,,,,,,,,,,,,,,,,,,,
,,650af764a14e318085b20747,2024-02-21_22h26.52.019,kallum_motion_pilot,2023.2.2,MacIntel,59.88023952,650af764a14e318085b20747,65d6bb0e977760de756971f7,65d6bed911081d3e25dfeeb6,0.0555,0.0556,1,61,223,113,1,fiveseven,,,,,,,,,,,,,,,,,,,,,,,,,,,,,,,,,,,,,,,,,,,,,,,,,,,,,,,,,,,,,,,,,,,,,,,,,,,,,,,,,,,,,,,,,,,,,,,,,,,,,,,,,,,,,,,,,,,,,,,,,,,,,,,,,,,,,,,,,
,,650af764a14e318085b20747,2024-02-21_22h26.52.019,kallum_motion_pilot,2023.2.2,MacIntel,59.88023952,650af764a14e318085b20747,65d6bb0e977760de756971f7,65d6bed911081d3e25dfeeb6,0.0556,0.0557,1,62,224,136,1,fivesix,,,,,,,,,,,,,,,,,,,,,,,,,,,,,,,,,,,,,,,,,,,,,,,,,,,,,,,,,,,,,,,,,,,,,,,,,,,,,,,,,,,,,,,,,,,,,,,,,,,,,,,,,,,,,,,,,,,,,,,,,,,,,,,,,,,,,,,,,
,,650af764a14e318085b20747,2024-02-21_22h26.52.019,kallum_motion_pilot,2023.2.2,MacIntel,59.88023952,650af764a14e318085b20747,65d6bb0e977760de756971f7,65d6bed911081d3e25dfeeb6,0.0558,0.0559,1,63,225,15,1,fourthree,,,,,,,,,,,,,,,,,,,,,,,,,,,,,,,,,,,,,,,,,,,,,,,,,,,,,,,,,,,,,,,,,,,,,,,,,,,,,,,,,,,,,,,,,,,,,,,,,,,,,,,,,,,,,,,,,,,,,,,,,,,,,,,,,,,,,,,,,
,,650af764a14e318085b20747,2024-02-21_22h26.52.019,kallum_motion_pilot,2023.2.2,MacIntel,59.88023952,650af764a14e318085b20747,65d6bb0e977760de756971f7,65d6bed911081d3e25dfeeb6,0.056,0.056,1,64,226,42,1,twoone,,,,,,,,,,,,,,,,,,,,,,,,,,,,,,,,,,,,,,,,,,,,,,,,,,,,,,,,,,,,,,,,,,,,,,,,,,,,,,,,,,,,,,,,,,,,,,,,,,,,,,,,,,,,,,,,,,,,,,,,,,,,,,,,,,,,,,,,,
,,650af764a14e318085b20747,2024-02-21_22h26.52.019,kallum_motion_pilot,2023.2.2,MacIntel,59.88023952,650af764a14e318085b20747,65d6bb0e977760de756971f7,65d6bed911081d3e25dfeeb6,0.056,0.0561,1,65,227,19,1,twofour,,,,,,,,,,,,,,,,,,,,,,,,,,,,,,,,,,,,,,,,,,,,,,,,,,,,,,,,,,,,,,,,,,,,,,,,,,,,,,,,,,,,,,,,,,,,,,,,,,,,,,,,,,,,,,,,,,,,,,,,,,,,,,,,,,,,,,,,,
,,650af764a14e318085b20747,2024-02-21_22h26.52.019,kallum_motion_pilot,2023.2.2,MacIntel,59.88023952,650af764a14e318085b20747,65d6bb0e977760de756971f7,65d6bed911081d3e25dfeeb6,0.0561,0.0562,1,66,228,125,1,seveneight,,,,,,,,,,,,,,,,,,,,,,,,,,,,,,,,,,,,,,,,,,,,,,,,,,,,,,,,,,,,,,,,,,,,,,,,,,,,,,,,,,,,,,,,,,,,,,,,,,,,,,,,,,,,,,,,,,,,,,,,,,,,,,,,,,,,,,,,,
,,650af764a14e318085b20747,2024-02-21_22h26.52.019,kallum_motion_pilot,2023.2.2,MacIntel,59.88023952,650af764a14e318085b20747,65d6bb0e977760de756971f7,65d6bed911081d3e25dfeeb6,0.0562,0.0563,1,67,229,139,1,sixeight,,,,,,,,,,,,,,,,,,,,,,,,,,,,,,,,,,,,,,,,,,,,,,,,,,,,,,,,,,,,,,,,,,,,,,,,,,,,,,,,,,,,,,,,,,,,,,,,,,,,,,,,,,,,,,,,,,,,,,,,,,,,,,,,,,,,,,,,,
,,650af764a14e318085b20747,2024-02-21_22h26.52.019,kallum_motion_pilot,2023.2.2,MacIntel,59.88023952,650af764a14e318085b20747,65d6bb0e977760de756971f7,65d6bed911081d3e25dfeeb6,0.0563,0.0564,1,68,230,34,1,twoone,,,,,,,,,,,,,,,,,,,,,,,,,,,,,,,,,,,,,,,,,,,,,,,,,,,,,,,,,,,,,,,,,,,,,,,,,,,,,,,,,,,,,,,,,,,,,,,,,,,,,,,,,,,,,,,,,,,,,,,,,,,,,,,,,,,,,,,,,
,,650af764a14e318085b20747,2024-02-21_22h26.52.019,kallum_motion_pilot,2023.2.2,MacIntel,59.88023952,650af764a14e318085b20747,65d6bb0e977760de756971f7,65d6bed911081d3e25dfeeb6,0.0565,0.0565,1,69,231,57,1,onethree,,,,,,,,,,,,,,,,,,,,,,,,,,,,,,,,,,,,,,,,,,,,,,,,,,,,,,,,,,,,,,,,,,,,,,,,,,,,,,,,,,,,,,,,,,,,,,,,,,,,,,,,,,,,,,,,,,,,,,,,,,,,,,,,,,,,,,,,,
,,650af764a14e318085b20747,2024-02-21_22h26.52.019,kallum_motion_pilot,2023.2.2,MacIntel,59.88023952,650af764a14e318085b20747,65d6bb0e977760de756971f7,65d6bed911081d3e25dfeeb6,0.0566,0.0566,1,70,232,76,1,threeone,,,,,,,,,,,,,,,,,,,,,,,,,,,,,,,,,,,,,,,,,,,,,,,,,,,,,,,,,,,,,,,,,,,,,,,,,,,,,,,,,,,,,,,,,,,,,,,,,,,,,,,,,,,,,,,,,,,,,,,,,,,,,,,,,,,,,,,,,
,,650af764a14e318085b20747,2024-02-21_22h26.52.019,kallum_motion_pilot,2023.2.2,MacIntel,59.88023952,650af764a14e318085b20747,65d6bb0e977760de756971f7,65d6bed911081d3e25dfeeb6,0.0566,0.0568,1,71,233,100,1,sevenfive,,,,,,,,,,,,,,,,,,,,,,,,,,,,,,,,,,,,,,,,,,,,,,,,,,,,,,,,,,,,,,,,,,,,,,,,,,,,,,,,,,,,,,,,,,,,,,,,,,,,,,,,,,,,,,,,,,,,,,,,,,,,,,,,,,,,,,,,,
,,650af764a14e318085b20747,2024-02-21_22h26.52.019,kallum_motion_pilot,2023.2.2,MacIntel,59.88023952,650af764a14e318085b20747,65d6bb0e977760de756971f7,65d6bed911081d3e25dfeeb6,0.0568,0.0569,1,72,234,118,1,eightsix,,,,,,,,,,,,,,,,,,,,,,,,,,,,,,,,,,,,,,,,,,,,,,,,,,,,,,,,,,,,,,,,,,,,,,,,,,,,,,,,,,,,,,,,,,,,,,,,,,,,,,,,,,,,,,,,,,,,,,,,,,,,,,,,,,,,,,,,,
,,650af764a14e318085b20747,2024-02-21_22h26.52.019,kallum_motion_pilot,2023.2.2,MacIntel,59.88023952,650af764a14e318085b20747,65d6bb0e977760de756971f7,65d6bed911081d3e25dfeeb6,0.057,0.057,1,73,235,60,1,threeone,,,,,,,,,,,,,,,,,,,,,,,,,,,,,,,,,,,,,,,,,,,,,,,,,,,,,,,,,,,,,,,,,,,,,,,,,,,,,,,,,,,,,,,,,,,,,,,,,,,,,,,,,,,,,,,,,,,,,,,,,,,,,,,,,,,,,,,,,
,,650af764a14e318085b20747,2024-02-21_22h26.52.019,kallum_motion_pilot,2023.2.2,MacIntel,59.88023952,650af764a14e318085b20747,65d6bb0e977760de756971f7,65d6bed911081d3e25dfeeb6,0.057,0.0572,1,74,236,5,1,threefour,,,,,,,,,,,,,,,,,,,,,,,,,,,,,,,,,,,,,,,,,,,,,,,,,,,,,,,,,,,,,,,,,,,,,,,,,,,,,,,,,,,,,,,,,,,,,,,,,,,,,,,,,,,,,,,,,,,,,,,,,,,,,,,,,,,,,,,,,
,,650af764a14e318085b20747,2024-02-21_22h26.52.019,kallum_motion_pilot,2023.2.2,MacIntel,59.88023952,650af764a14e318085b20747,65d6bb0e977760de756971f7,65d6bed911081d3e25dfeeb6,0.0572,0.0572,1,75,237,23,1,fourthree,,,,,,,,,,,,,,,,,,,,,,,,,,,,,,,,,,,,,,,,,,,,,,,,,,,,,,,,,,,,,,,,,,,,,,,,,,,,,,,,,,,,,,,,,,,,,,,,,,,,,,,,,,,,,,,,,,,,,,,,,,,,,,,,,,,,,,,,,
,,650af764a14e318085b20747,2024-02-21_22h26.52.019,kallum_motion_pilot,2023.2.2,MacIntel,59.88023952,650af764a14e318085b20747,65d6bb0e977760de756971f7,65d6bed911081d3e25dfeeb6,0.0573,0.0574,1,76,238,143,1,eightseven,,,,,,,,,,,,,,,,,,,,,,,,,,,,,,,,,,,,,,,,,,,,,,,,,,,,,,,,,,,,,,,,,,,,,,,,,,,,,,,,,,,,,,,,,,,,,,,,,,,,,,,,,,,,,,,,,,,,,,,,,,,,,,,,,,,,,,,,,
,,650af764a14e318085b20747,2024-02-21_22h26.52.019,kallum_motion_pilot,2023.2.2,MacIntel,59.88023952,650af764a14e318085b20747,65d6bb0e977760de756971f7,65d6bed911081d3e25dfeeb6,0.0576,0.0577,1,77,239,154,1,sixfive,,,,,,,,,,,,,,,,,,,,,,,,,,,,,,,,,,,,,,,,,,,,,,,,,,,,,,,,,,,,,,,,,,,,,,,,,,,,,,,,,,,,,,,,,,,,,,,,,,,,,,,,,,,,,,,,,,,,,,,,,,,,,,,,,,,,,,,,,
,,650af764a14e318085b20747,2024-02-21_22h26.52.019,kallum_motion_pilot,2023.2.2,MacIntel,59.88023952,650af764a14e318085b20747,65d6bb0e977760de756971f7,65d6bed911081d3e25dfeeb6,0.0579,0.0579,1,78,240,130,1,sixfive,,,,,,,,,,,,,,,,,,,,,,,,,,,,,,,,,,,,,,,,,,,,,,,,,,,,,,,,,,,,,,,,,,,,,,,,,,,,,,,,,,,,,,,,,,,,,,,,,,,,,,,,,,,,,,,,,,,,,,,,,,,,,,,,,,,,,,,,,
,,650af764a14e318085b20747,2024-02-21_22h26.52.019,kallum_motion_pilot,2023.2.2,MacIntel,59.88023952,650af764a14e318085b20747,65d6bb0e977760de756971f7,65d6bed911081d3e25dfeeb6,0.058,0.058,1,79,241,115,1,sixeight,,,,,,,,,,,,,,,,,,,,,,,,,,,,,,,,,,,,,,,,,,,,,,,,,,,,,,,,,,,,,,,,,,,,,,,,,,,,,,,,,,,,,,,,,,,,,,,,,,,,,,,,,,,,,,,,,,,,,,,,,,,,,,,,,,,,,,,,,
,,650af764a14e318085b20747,2024-02-21_22h26.52.019,kallum_motion_pilot,2023.2.2,MacIntel,59.88023952,650af764a14e318085b20747,65d6bb0e977760de756971f7,65d6bed911081d3e25dfeeb6,0.058,0.0581,1,80,242,119,1,eightseven,,,,,,,,,,,,,,,,,,,,,,,,,,,,,,,,,,,,,,,,,,,,,,,,,,,,,,,,,,,,,,,,,,,,,,,,,,,,,,,,,,,,,,,,,,,,,,,,,,,,,,,,,,,,,,,,,,,,,,,,,,,,,,,,,,,,,,,,,
,,650af764a14e318085b20747,2024-02-21_22h26.52.019,kallum_motion_pilot,2023.2.2,MacIntel,59.88023952,650af764a14e318085b20747,65d6bb0e977760de756971f7,65d6bed911081d3e25dfeeb6,0.0582,0.0582,1,81,243,36,1,threeone,,,,,,,,,,,,,,,,,,,,,,,,,,,,,,,,,,,,,,,,,,,,,,,,,,,,,,,,,,,,,,,,,,,,,,,,,,,,,,,,,,,,,,,,,,,,,,,,,,,,,,,,,,,,,,,,,,,,,,,,,,,,,,,,,,,,,,,,,
,,650af764a14e318085b20747,2024-02-21_22h26.52.019,kallum_motion_pilot,2023.2.2,MacIntel,59.88023952,650af764a14e318085b20747,65d6bb0e977760de756971f7,65d6bed911081d3e25dfeeb6,0.0583,0.0584,1,82,244,26,1,twoone,,,,,,,,,,,,,,,,,,,,,,,,,,,,,,,,,,,,,,,,,,,,,,,,,,,,,,,,,,,,,,,,,,,,,,,,,,,,,,,,,,,,,,,,,,,,,,,,,,,,,,,,,,,,,,,,,,,,,,,,,,,,,,,,,,,,,,,,,
,,650af764a14e318085b20747,2024-02-21_22h26.52.019,kallum_motion_pilot,2023.2.2,MacIntel,59.88023952,650af764a14e318085b20747,65d6bb0e977760de756971f7,65d6bed911081d3e25dfeeb6,0.0584,0.0585,1,83,245,144,1,fivesix,,,,,,,,,,,,,,,,,,,,,,,,,,,,,,,,,,,,,,,,,,,,,,,,,,,,,,,,,,,,,,,,,,,,,,,,,,,,,,,,,,,,,,,,,,,,,,,,,,,,,,,,,,,,,,,,,,,,,,,,,,,,,,,,,,,,,,,,,
,,650af764a14e318085b20747,2024-02-21_22h26.52.019,kallum_motion_pilot,2023.2.2,MacIntel,59.88023952,650af764a14e318085b20747,65d6bb0e977760de756971f7,65d6bed911081d3e25dfeeb6,0.0585,0.0586,1,84,246,94,1,eightsix,,,,,,,,,,,,,,,,,,,,,,,,,,,,,,,,,,,,,,,,,,,,,,,,,,,,,,,,,,,,,,,,,,,,,,,,,,,,,,,,,,,,,,,,,,,,,,,,,,,,,,,,,,,,,,,,,,,,,,,,,,,,,,,,,,,,,,,,,
,,650af764a14e318085b20747,2024-02-21_22h26.52.019,kallum_motion_pilot,2023.2.2,MacIntel,59.88023952,650af764a14e318085b20747,65d6bb0e977760de756971f7,65d6bed911081d3e25dfeeb6,0.0587,0.0589,1,85,247,137,1,fiveseven,,,,,,,,,,,,,,,,,,,,,,,,,,,,,,,,,,,,,,,,,,,,,,,,,,,,,,,,,,,,,,,,,,,,,,,,,,,,,,,,,,,,,,,,,,,,,,,,,,,,,,,,,,,,,,,,,,,,,,,,,,,,,,,,,,,,,,,,,
,,650af764a14e318085b20747,2024-02-21_22h26.52.019,kallum_motion_pilot,2023.2.2,MacIntel,59.88023952,650af764a14e318085b20747,65d6bb0e977760de756971f7,65d6bed911081d3e25dfeeb6,0.059,0.0591,1,86,248,11,1,twofour,,,,,,,,,,,,,,,,,,,,,,,,,,,,,,,,,,,,,,,,,,,,,,,,,,,,,,,,,,,,,,,,,,,,,,,,,,,,,,,,,,,,,,,,,,,,,,,,,,,,,,,,,,,,,,,,,,,,,,,,,,,,,,,,,,,,,,,,,
,,650af764a14e318085b20747,2024-02-21_22h26.52.019,kallum_motion_pilot,2023.2.2,MacIntel,59.88023952,650af764a14e318085b20747,65d6bb0e977760de756971f7,65d6bed911081d3e25dfeeb6,0.0592,0.0594,1,87,249,56,1,onetwo,,,,,,,,,,,,,,,,,,,,,,,,,,,,,,,,,,,,,,,,,,,,,,,,,,,,,,,,,,,,,,,,,,,,,,,,,,,,,,,,,,,,,,,,,,,,,,,,,,,,,,,,,,,,,,,,,,,,,,,,,,,,,,,,,,,,,,,,,
,,650af764a14e318085b20747,2024-02-21_22h26.52.019,kallum_motion_pilot,2023.2.2,MacIntel,59.88023952,650af764a14e318085b20747,65d6bb0e977760de756971f7,65d6bed911081d3e25dfeeb6,0.0594,0.0596,1,88,250,103,1,eightseven,,,,,,,,,,,,,,,,,,,,,,,,,,,,,,,,,,,,,,,,,,,,,,,,,,,,,,,,,,,,,,,,,,,,,,,,,,,,,,,,,,,,,,,,,,,,,,,,,,,,,,,,,,,,,,,,,,,,,,,,,,,,,,,,,,,,,,,,,
,,650af764a14e318085b20747,2024-02-21_22h26.52.019,kallum_motion_pilot,2023.2.2,MacIntel,59.88023952,650af764a14e318085b20747,65d6bb0e977760de756971f7,65d6bed911081d3e25dfeeb6,0.0597,0.0598,1,89,251,138,1,sixfive,,,,,,,,,,,,,,,,,,,,,,,,,,,,,,,,,,,,,,,,,,,,,,,,,,,,,,,,,,,,,,,,,,,,,,,,,,,,,,,,,,,,,,,,,,,,,,,,,,,,,,,,,,,,,,,,,,,,,,,,,,,,,,,,,,,,,,,,,
,,650af764a14e318085b20747,2024-02-21_22h26.52.019,kallum_motion_pilot,2023.2.2,MacIntel,59.88023952,650af764a14e318085b20747,65d6bb0e977760de756971f7,65d6bed911081d3e25dfeeb6,0.0601,0.0602,1,90,252,44,1,threeone,,,,,,,,,,,,,,,,,,,,,,,,,,,,,,,,,,,,,,,,,,,,,,,,,,,,,,,,,,,,,,,,,,,,,,,,,,,,,,,,,,,,,,,,,,,,,,,,,,,,,,,,,,,,,,,,,,,,,,,,,,,,,,,,,,,,,,,,,
,,650af764a14e318085b20747,2024-02-21_22h26.52.019,kallum_motion_pilot,2023.2.2,MacIntel,59.88023952,650af764a14e318085b20747,65d6bb0e977760de756971f7,65d6bed911081d3e25dfeeb6,0.0603,0.0604,1,91,253,158,1,eightsix,,,,,,,,,,,,,,,,,,,,,,,,,,,,,,,,,,,,,,,,,,,,,,,,,,,,,,,,,,,,,,,,,,,,,,,,,,,,,,,,,,,,,,,,,,,,,,,,,,,,,,,,,,,,,,,,,,,,,,,,,,,,,,,,,,,,,,,,,
,,650af764a14e318085b20747,2024-02-21_22h26.52.019,kallum_motion_pilot,2023.2.2,MacIntel,59.88023952,650af764a14e318085b20747,65d6bb0e977760de756971f7,65d6bed911081d3e25dfeeb6,0.0605,0.0605,1,92,254,153,1,fiveseven,,,,,,,,,,,,,,,,,,,,,,,,,,,,,,,,,,,,,,,,,,,,,,,,,,,,,,,,,,,,,,,,,,,,,,,,,,,,,,,,,,,,,,,,,,,,,,,,,,,,,,,,,,,,,,,,,,,,,,,,,,,,,,,,,,,,,,,,,
,,650af764a14e318085b20747,2024-02-21_22h26.52.019,kallum_motion_pilot,2023.2.2,MacIntel,59.88023952,650af764a14e318085b20747,65d6bb0e977760de756971f7,65d6bed911081d3e25dfeeb6,0.0606,0.0607,1,93,255,69,1,threefour,,,,,,,,,,,,,,,,,,,,,,,,,,,,,,,,,,,,,,,,,,,,,,,,,,,,,,,,,,,,,,,,,,,,,,,,,,,,,,,,,,,,,,,,,,,,,,,,,,,,,,,,,,,,,,,,,,,,,,,,,,,,,,,,,,,,,,,,,
,,650af764a14e318085b20747,2024-02-21_22h26.52.019,kallum_motion_pilot,2023.2.2,MacIntel,59.88023952,650af764a14e318085b20747,65d6bb0e977760de756971f7,65d6bed911081d3e25dfeeb6,0.0607,0.0609,1,94,256,99,1,sixeight,,,,,,,,,,,,,,,,,,,,,,,,,,,,,,,,,,,,,,,,,,,,,,,,,,,,,,,,,,,,,,,,,,,,,,,,,,,,,,,,,,,,,,,,,,,,,,,,,,,,,,,,,,,,,,,,,,,,,,,,,,,,,,,,,,,,,,,,,
,,650af764a14e318085b20747,2024-02-21_22h26.52.019,kallum_motion_pilot,2023.2.2,MacIntel,59.88023952,650af764a14e318085b20747,65d6bb0e977760de756971f7,65d6bed911081d3e25dfeeb6,0.0609,0.061,1,95,257,151,1,eightseven,,,,,,,,,,,,,,,,,,,,,,,,,,,,,,,,,,,,,,,,,,,,,,,,,,,,,,,,,,,,,,,,,,,,,,,,,,,,,,,,,,,,,,,,,,,,,,,,,,,,,,,,,,,,,,,,,,,,,,,,,,,,,,,,,,,,,,,,,
,,650af764a14e318085b20747,2024-02-21_22h26.52.019,kallum_motion_pilot,2023.2.2,MacIntel,59.88023952,650af764a14e318085b20747,65d6bb0e977760de756971f7,65d6bed911081d3e25dfeeb6,0.0611,0.0611,1,96,258,150,1,eightsix,,,,,,,,,,,,,,,,,,,,,,,,,,,,,,,,,,,,,,,,,,,,,,,,,,,,,,,,,,,,,,,,,,,,,,,,,,,,,,,,,,,,,,,,,,,,,,,,,,,,,,,,,,,,,,,,,,,,,,,,,,,,,,,,,,,,,,,,,
,,650af764a14e318085b20747,2024-02-21_22h26.52.019,kallum_motion_pilot,2023.2.2,MacIntel,59.88023952,650af764a14e318085b20747,65d6bb0e977760de756971f7,65d6bed911081d3e25dfeeb6,0.0611,0.0612,1,97,259,102,1,eightsix,,,,,,,,,,,,,,,,,,,,,,,,,,,,,,,,,,,,,,,,,,,,,,,,,,,,,,,,,,,,,,,,,,,,,,,,,,,,,,,,,,,,,,,,,,,,,,,,,,,,,,,,,,,,,,,,,,,,,,,,,,,,,,,,,,,,,,,,,
,,650af764a14e318085b20747,2024-02-21_22h26.52.019,kallum_motion_pilot,2023.2.2,MacIntel,59.88023952,650af764a14e318085b20747,65d6bb0e977760de756971f7,65d6bed911081d3e25dfeeb6,0.0613,0.0613,1,98,260,59,1,twofour,,,,,,,,,,,,,,,,,,,,,,,,,,,,,,,,,,,,,,,,,,,,,,,,,,,,,,,,,,,,,,,,,,,,,,,,,,,,,,,,,,,,,,,,,,,,,,,,,,,,,,,,,,,,,,,,,,,,,,,,,,,,,,,,,,,,,,,,,
,,650af764a14e318085b20747,2024-02-21_22h26.52.019,kallum_motion_pilot,2023.2.2,MacIntel,59.88023952,650af764a14e318085b20747,65d6bb0e977760de756971f7,65d6bed911081d3e25dfeeb6,0.0614,0.0614,1,99,261,22,1,fourtwo,,,,,,,,,,,,,,,,,,,,,,,,,,,,,,,,,,,,,,,,,,,,,,,,,,,,,,,,,,,,,,,,,,,,,,,,,,,,,,,,,,,,,,,,,,,,,,,,,,,,,,,,,,,,,,,,,,,,,,,,,,,,,,,,,,,,,,,,,
,,650af764a14e318085b20747,2024-02-21_22h26.52.019,kallum_motion_pilot,2023.2.2,MacIntel,59.88023952,650af764a14e318085b20747,65d6bb0e977760de756971f7,65d6bed911081d3e25dfeeb6,0.0615,0.0616,1,100,262,146,1,sixfive,,,,,,,,,,,,,,,,,,,,,,,,,,,,,,,,,,,,,,,,,,,,,,,,,,,,,,,,,,,,,,,,,,,,,,,,,,,,,,,,,,,,,,,,,,,,,,,,,,,,,,,,,,,,,,,,,,,,,,,,,,,,,,,,,,,,,,,,,
,,650af764a14e318085b20747,2024-02-21_22h26.52.019,kallum_motion_pilot,2023.2.2,MacIntel,59.88023952,650af764a14e318085b20747,65d6bb0e977760de756971f7,65d6bed911081d3e25dfeeb6,0.062,0.062,1,101,263,129,1,fiveseven,,,,,,,,,,,,,,,,,,,,,,,,,,,,,,,,,,,,,,,,,,,,,,,,,,,,,,,,,,,,,,,,,,,,,,,,,,,,,,,,,,,,,,,,,,,,,,,,,,,,,,,,,,,,,,,,,,,,,,,,,,,,,,,,,,,,,,,,,
,,650af764a14e318085b20747,2024-02-21_22h26.52.019,kallum_motion_pilot,2023.2.2,MacIntel,59.88023952,650af764a14e318085b20747,65d6bb0e977760de756971f7,65d6bed911081d3e25dfeeb6,0.0621,0.0622,1,102,264,53,1,threefour,,,,,,,,,,,,,,,,,,,,,,,,,,,,,,,,,,,,,,,,,,,,,,,,,,,,,,,,,,,,,,,,,,,,,,,,,,,,,,,,,,,,,,,,,,,,,,,,,,,,,,,,,,,,,,,,,,,,,,,,,,,,,,,,,,,,,,,,,
,,650af764a14e318085b20747,2024-02-21_22h26.52.019,kallum_motion_pilot,2023.2.2,MacIntel,59.88023952,650af764a14e318085b20747,65d6bb0e977760de756971f7,65d6bed911081d3e25dfeeb6,0.0622,0.0623,1,103,265,161,1,fiveseven,,,,,,,,,,,,,,,,,,,,,,,,,,,,,,,,,,,,,,,,,,,,,,,,,,,,,,,,,,,,,,,,,,,,,,,,,,,,,,,,,,,,,,,,,,,,,,,,,,,,,,,,,,,,,,,,,,,,,,,,,,,,,,,,,,,,,,,,,
,,650af764a14e318085b20747,2024-02-21_22h26.52.019,kallum_motion_pilot,2023.2.2,MacIntel,59.88023952,650af764a14e318085b20747,65d6bb0e977760de756971f7,65d6bed911081d3e25dfeeb6,0.0623,0.0624,1,104,266,17,1,onethree,,,,,,,,,,,,,,,,,,,,,,,,,,,,,,,,,,,,,,,,,,,,,,,,,,,,,,,,,,,,,,,,,,,,,,,,,,,,,,,,,,,,,,,,,,,,,,,,,,,,,,,,,,,,,,,,,,,,,,,,,,,,,,,,,,,,,,,,,
,,650af764a14e318085b20747,2024-02-21_22h26.52.019,kallum_motion_pilot,2023.2.2,MacIntel,59.88023952,650af764a14e318085b20747,65d6bb0e977760de756971f7,65d6bed911081d3e25dfeeb6,0.0625,0.0625,1,105,267,1,1,onethree,,,,,,,,,,,,,,,,,,,,,,,,,,,,,,,,,,,,,,,,,,,,,,,,,,,,,,,,,,,,,,,,,,,,,,,,,,,,,,,,,,,,,,,,,,,,,,,,,,,,,,,,,,,,,,,,,,,,,,,,,,,,,,,,,,,,,,,,,
,,650af764a14e318085b20747,2024-02-21_22h26.52.019,kallum_motion_pilot,2023.2.2,MacIntel,59.88023952,650af764a14e318085b20747,65d6bb0e977760de756971f7,65d6bed911081d3e25dfeeb6,0.0625,0.0626,1,106,268,110,1,eightsix,,,,,,,,,,,,,,,,,,,,,,,,,,,,,,,,,,,,,,,,,,,,,,,,,,,,,,,,,,,,,,,,,,,,,,,,,,,,,,,,,,,,,,,,,,,,,,,,,,,,,,,,,,,,,,,,,,,,,,,,,,,,,,,,,,,,,,,,,
,,650af764a14e318085b20747,2024-02-21_22h26.52.019,kallum_motion_pilot,2023.2.2,MacIntel,59.88023952,650af764a14e318085b20747,65d6bb0e977760de756971f7,65d6bed911081d3e25dfeeb6,0.0626,0.0628,1,107,269,90,1,sixfive,,,,,,,,,,,,,,,,,,,,,,,,,,,,,,,,,,,,,,,,,,,,,,,,,,,,,,,,,,,,,,,,,,,,,,,,,,,,,,,,,,,,,,,,,,,,,,,,,,,,,,,,,,,,,,,,,,,,,,,,,,,,,,,,,,,,,,,,,
,,650af764a14e318085b20747,2024-02-21_22h26.52.019,kallum_motion_pilot,2023.2.2,MacIntel,59.88023952,650af764a14e318085b20747,65d6bb0e977760de756971f7,65d6bed911081d3e25dfeeb6,0.0629,0.063,1,108,270,114,1,sixfive,,,,,,,,,,,,,,,,,,,,,,,,,,,,,,,,,,,,,,,,,,,,,,,,,,,,,,,,,,,,,,,,,,,,,,,,,,,,,,,,,,,,,,,,,,,,,,,,,,,,,,,,,,,,,,,,,,,,,,,,,,,,,,,,,,,,,,,,,
,,650af764a14e318085b20747,2024-02-21_22h26.52.019,kallum_motion_pilot,2023.2.2,MacIntel,59.88023952,650af764a14e318085b20747,65d6bb0e977760de756971f7,65d6bed911081d3e25dfeeb6,0.0631,0.0631,1,109,271,131,1,sixeight,,,,,,,,,,,,,,,,,,,,,,,,,,,,,,,,,,,,,,,,,,,,,,,,,,,,,,,,,,,,,,,,,,,,,,,,,,,,,,,,,,,,,,,,,,,,,,,,,,,,,,,,,,,,,,,,,,,,,,,,,,,,,,,,,,,,,,,,,
,,650af764a14e318085b20747,2024-02-21_22h26.52.019,kallum_motion_pilot,2023.2.2,MacIntel,59.88023952,650af764a14e318085b20747,65d6bb0e977760de756971f7,65d6bed911081d3e25dfeeb6,0.0631,0.0633,1,110,272,49,1,onethree,,,,,,,,,,,,,,,,,,,,,,,,,,,,,,,,,,,,,,,,,,,,,,,,,,,,,,,,,,,,,,,,,,,,,,,,,,,,,,,,,,,,,,,,,,,,,,,,,,,,,,,,,,,,,,,,,,,,,,,,,,,,,,,,,,,,,,,,,
,,650af764a14e318085b20747,2024-02-21_22h26.52.019,kallum_motion_pilot,2023.2.2,MacIntel,59.88023952,650af764a14e318085b20747,65d6bb0e977760de756971f7,65d6bed911081d3e25dfeeb6,0.0633,0.0634,1,111,273,128,1,fivesix,,,,,,,,,,,,,,,,,,,,,,,,,,,,,,,,,,,,,,,,,,,,,,,,,,,,,,,,,,,,,,,,,,,,,,,,,,,,,,,,,,,,,,,,,,,,,,,,,,,,,,,,,,,,,,,,,,,,,,,,,,,,,,,,,,,,,,,,,
,,650af764a14e318085b20747,2024-02-21_22h26.52.019,kallum_motion_pilot,2023.2.2,MacIntel,59.88023952,650af764a14e318085b20747,65d6bb0e977760de756971f7,65d6bed911081d3e25dfeeb6,0.0634,0.0634,1,112,274,120,1,fivesix,,,,,,,,,,,,,,,,,,,,,,,,,,,,,,,,,,,,,,,,,,,,,,,,,,,,,,,,,,,,,,,,,,,,,,,,,,,,,,,,,,,,,,,,,,,,,,,,,,,,,,,,,,,,,,,,,,,,,,,,,,,,,,,,,,,,,,,,,
,,650af764a14e318085b20747,2024-02-21_22h26.52.019,kallum_motion_pilot,2023.2.2,MacIntel,59.88023952,650af764a14e318085b20747,65d6bb0e977760de756971f7,65d6bed911081d3e25dfeeb6,0.0635,0.0636,1,113,275,16,1,onetwo,,,,,,,,,,,,,,,,,,,,,,,,,,,,,,,,,,,,,,,,,,,,,,,,,,,,,,,,,,,,,,,,,,,,,,,,,,,,,,,,,,,,,,,,,,,,,,,,,,,,,,,,,,,,,,,,,,,,,,,,,,,,,,,,,,,,,,,,,
