startup.started,startup.stopped,Prolific ID*,date,expName,psychopyVersion,OS,frameRate,participant,study_id,session,stimpositions.started,stimpositions.stopped,hardcoded_stimulus_positions.thisRepN,hardcoded_stimulus_positions.thisTrialN,hardcoded_stimulus_positions.thisN,hardcoded_stimulus_positions.thisIndex,hardcoded_stimulus_positions.ran,StimulusPos,stimorientation.started,stimorientation.stopped,prac_stimorientation_import_loop.thisRepN,prac_stimorientation_import_loop.thisTrialN,prac_stimorientation_import_loop.thisN,prac_stimorientation_import_loop.thisIndex,prac_stimorientation_import_loop.ran,Stimorientation,welcome_instr.started,welcome_instr.stopped,key_resp.keys,key_resp.rt,key_resp.duration,response_steppedout_1.started,response_steppedout_1.stopped,key_resp_20.keys,key_resp_20.rt,key_resp_20.duration,response_steppedout_2.started,response_steppedout_2.stopped,key_resp_19.keys,key_resp_19.rt,key_resp_19.duration,stim_response_instr.started,stim_response_instr.stopped,key_resp_15.keys,key_resp_15.rt,key_resp_15.duration,direction_instr_2.started,direction_instr_2.stopped,key_resp_9.keys,key_resp_9.rt,key_resp_9.duration,instr_prac.started,instr_prac.stopped,key_resp_10.keys,key_resp_10.rt,key_resp_10.duration,Stim1_display_prac.started,Stim1_display_prac.stopped,Ecc,Circle1_ori,Circle2_ori,response_prac.started,similarity,response_time,response_prac.stopped,mouse_5.x,mouse_5.y,mouse_5.leftButton,mouse_5.midButton,mouse_5.rightButton,mouse_5.clicked_name,responseprac_feedback.started,responseprac_feedback.stopped,summary2_prac.started,summary2_prac.stopped,mouse_6.x,mouse_6.y,mouse_6.leftButton,mouse_6.midButton,mouse_6.rightButton,mouse_6.clicked_name,duringprac.thisRepN,duringprac.thisTrialN,duringprac.thisN,duringprac.thisIndex,duringprac.ran,begin.started,begin.stopped,key_resp_22.keys,key_resp_22.rt,key_resp_22.duration,Stim1_display.started,Stim1_display.stopped,circle1_ori,circle2_ori,circle1_SF,circle2_SF,response.started,response.stopped,mouse.x,mouse.y,mouse.leftButton,mouse.midButton,mouse.rightButton,mouse.clicked_name,trialnumber,double_pass.thisRepN,double_pass.thisTrialN,double_pass.thisN,double_pass.thisIndex,double_pass.ran,double_pass.order,main_trial.thisRepN,main_trial.thisTrialN,main_trial.thisN,main_trial.thisIndex,main_trial.ran,main_trial.order,Trial_Counter,Catch,Frequencies,response_2.started,response_2.stopped,mouse_2.x,mouse_2.y,mouse_2.leftButton,mouse_2.midButton,mouse_2.rightButton,mouse_2.clicked_name,special_trial.started,special_trial.stopped,catch_1.started,catch_1.stopped,mouse_3.x,mouse_3.y,mouse_3.leftButton,mouse_3.midButton,mouse_3.rightButton,catchresponse,catchnumber,response_time_catch,response_sum.started,response_sum.stopped,mouse_11.x,mouse_11.y,mouse_11.leftButton,mouse_11.midButton,mouse_11.rightButton,flip_presentation_sequence_for_double_pass.started,flip_presentation_sequence_for_double_pass.stopped,goodbye.started,goodbye.stopped,key_resp_3.keys,key_resp_3.rt,key_resp_3.duration
0.0005,0.0007,650c93cdf4b8742fb9882770,2024-02-22_05h17.09.626,kallum_motion_pilot,2023.2.2,Win32,60.24096386,650c93cdf4b8742fb9882770,65d6bb0e977760de756971f7,65d6bc98d6d44d58ce21bb8a,,,,,,,,,,,,,,,,,,,,,,,,,,,,,,,,,,,,,,,,,,,,,,,,,,,,,,,,,,,,,,,,,,,,,,,,,,,,,,,,,,,,,,,,,,,,,,,,,,,,,,,,,,,,,,,,,,,,,,,,,,,,,,,,,,,,,,,,,,,,,,,,,
,,650c93cdf4b8742fb9882770,2024-02-22_05h17.09.626,kallum_motion_pilot,2023.2.2,Win32,60.24096386,650c93cdf4b8742fb9882770,65d6bb0e977760de756971f7,65d6bc98d6d44d58ce21bb8a,0.0509,0.0512,0,0,0,62,1,fourtwo,,,,,,,,,,,,,,,,,,,,,,,,,,,,,,,,,,,,,,,,,,,,,,,,,,,,,,,,,,,,,,,,,,,,,,,,,,,,,,,,,,,,,,,,,,,,,,,,,,,,,,,,,,,,,,,,,,,,,,,,,,,,,,,,,,,,,,,,,
,,650c93cdf4b8742fb9882770,2024-02-22_05h17.09.626,kallum_motion_pilot,2023.2.2,Win32,60.24096386,650c93cdf4b8742fb9882770,65d6bb0e977760de756971f7,65d6bc98d6d44d58ce21bb8a,0.0517,0.0518,0,1,1,159,1,eightseven,,,,,,,,,,,,,,,,,,,,,,,,,,,,,,,,,,,,,,,,,,,,,,,,,,,,,,,,,,,,,,,,,,,,,,,,,,,,,,,,,,,,,,,,,,,,,,,,,,,,,,,,,,,,,,,,,,,,,,,,,,,,,,,,,,,,,,,,,
,,650c93cdf4b8742fb9882770,2024-02-22_05h17.09.626,kallum_motion_pilot,2023.2.2,Win32,60.24096386,650c93cdf4b8742fb9882770,65d6bb0e977760de756971f7,65d6bc98d6d44d58ce21bb8a,0.052,0.0521,0,2,2,59,1,twofour,,,,,,,,,,,,,,,,,,,,,,,,,,,,,,,,,,,,,,,,,,,,,,,,,,,,,,,,,,,,,,,,,,,,,,,,,,,,,,,,,,,,,,,,,,,,,,,,,,,,,,,,,,,,,,,,,,,,,,,,,,,,,,,,,,,,,,,,,
,,650c93cdf4b8742fb9882770,2024-02-22_05h17.09.626,kallum_motion_pilot,2023.2.2,Win32,60.24096386,650c93cdf4b8742fb9882770,65d6bb0e977760de756971f7,65d6bc98d6d44d58ce21bb8a,0.0531,0.0535,0,3,3,47,1,fourthree,,,,,,,,,,,,,,,,,,,,,,,,,,,,,,,,,,,,,,,,,,,,,,,,,,,,,,,,,,,,,,,,,,,,,,,,,,,,,,,,,,,,,,,,,,,,,,,,,,,,,,,,,,,,,,,,,,,,,,,,,,,,,,,,,,,,,,,,,
,,650c93cdf4b8742fb9882770,2024-02-22_05h17.09.626,kallum_motion_pilot,2023.2.2,Win32,60.24096386,650c93cdf4b8742fb9882770,65d6bb0e977760de756971f7,65d6bc98d6d44d58ce21bb8a,0.0542,0.0546,0,4,4,155,1,sixeight,,,,,,,,,,,,,,,,,,,,,,,,,,,,,,,,,,,,,,,,,,,,,,,,,,,,,,,,,,,,,,,,,,,,,,,,,,,,,,,,,,,,,,,,,,,,,,,,,,,,,,,,,,,,,,,,,,,,,,,,,,,,,,,,,,,,,,,,,
,,650c93cdf4b8742fb9882770,2024-02-22_05h17.09.626,kallum_motion_pilot,2023.2.2,Win32,60.24096386,650c93cdf4b8742fb9882770,65d6bb0e977760de756971f7,65d6bc98d6d44d58ce21bb8a,0.0548,0.0549,0,5,5,70,1,fourtwo,,,,,,,,,,,,,,,,,,,,,,,,,,,,,,,,,,,,,,,,,,,,,,,,,,,,,,,,,,,,,,,,,,,,,,,,,,,,,,,,,,,,,,,,,,,,,,,,,,,,,,,,,,,,,,,,,,,,,,,,,,,,,,,,,,,,,,,,,
,,650c93cdf4b8742fb9882770,2024-02-22_05h17.09.626,kallum_motion_pilot,2023.2.2,Win32,60.24096386,650c93cdf4b8742fb9882770,65d6bb0e977760de756971f7,65d6bc98d6d44d58ce21bb8a,0.0551,0.0551,0,6,6,101,1,seveneight,,,,,,,,,,,,,,,,,,,,,,,,,,,,,,,,,,,,,,,,,,,,,,,,,,,,,,,,,,,,,,,,,,,,,,,,,,,,,,,,,,,,,,,,,,,,,,,,,,,,,,,,,,,,,,,,,,,,,,,,,,,,,,,,,,,,,,,,,
,,650c93cdf4b8742fb9882770,2024-02-22_05h17.09.626,kallum_motion_pilot,2023.2.2,Win32,60.24096386,650c93cdf4b8742fb9882770,65d6bb0e977760de756971f7,65d6bc98d6d44d58ce21bb8a,0.0553,0.0554,0,7,7,82,1,sixfive,,,,,,,,,,,,,,,,,,,,,,,,,,,,,,,,,,,,,,,,,,,,,,,,,,,,,,,,,,,,,,,,,,,,,,,,,,,,,,,,,,,,,,,,,,,,,,,,,,,,,,,,,,,,,,,,,,,,,,,,,,,,,,,,,,,,,,,,,
,,650c93cdf4b8742fb9882770,2024-02-22_05h17.09.626,kallum_motion_pilot,2023.2.2,Win32,60.24096386,650c93cdf4b8742fb9882770,65d6bb0e977760de756971f7,65d6bc98d6d44d58ce21bb8a,0.0557,0.0558,0,8,8,153,1,fiveseven,,,,,,,,,,,,,,,,,,,,,,,,,,,,,,,,,,,,,,,,,,,,,,,,,,,,,,,,,,,,,,,,,,,,,,,,,,,,,,,,,,,,,,,,,,,,,,,,,,,,,,,,,,,,,,,,,,,,,,,,,,,,,,,,,,,,,,,,,
,,650c93cdf4b8742fb9882770,2024-02-22_05h17.09.626,kallum_motion_pilot,2023.2.2,Win32,60.24096386,650c93cdf4b8742fb9882770,65d6bb0e977760de756971f7,65d6bc98d6d44d58ce21bb8a,0.056,0.0561,0,9,9,11,1,twofour,,,,,,,,,,,,,,,,,,,,,,,,,,,,,,,,,,,,,,,,,,,,,,,,,,,,,,,,,,,,,,,,,,,,,,,,,,,,,,,,,,,,,,,,,,,,,,,,,,,,,,,,,,,,,,,,,,,,,,,,,,,,,,,,,,,,,,,,,
,,650c93cdf4b8742fb9882770,2024-02-22_05h17.09.626,kallum_motion_pilot,2023.2.2,Win32,60.24096386,650c93cdf4b8742fb9882770,65d6bb0e977760de756971f7,65d6bc98d6d44d58ce21bb8a,0.0563,0.0564,0,10,10,136,1,fivesix,,,,,,,,,,,,,,,,,,,,,,,,,,,,,,,,,,,,,,,,,,,,,,,,,,,,,,,,,,,,,,,,,,,,,,,,,,,,,,,,,,,,,,,,,,,,,,,,,,,,,,,,,,,,,,,,,,,,,,,,,,,,,,,,,,,,,,,,,
,,650c93cdf4b8742fb9882770,2024-02-22_05h17.09.626,kallum_motion_pilot,2023.2.2,Win32,60.24096386,650c93cdf4b8742fb9882770,65d6bb0e977760de756971f7,65d6bc98d6d44d58ce21bb8a,0.0565,0.0566,0,11,11,24,1,onetwo,,,,,,,,,,,,,,,,,,,,,,,,,,,,,,,,,,,,,,,,,,,,,,,,,,,,,,,,,,,,,,,,,,,,,,,,,,,,,,,,,,,,,,,,,,,,,,,,,,,,,,,,,,,,,,,,,,,,,,,,,,,,,,,,,,,,,,,,,
,,650c93cdf4b8742fb9882770,2024-02-22_05h17.09.626,kallum_motion_pilot,2023.2.2,Win32,60.24096386,650c93cdf4b8742fb9882770,65d6bb0e977760de756971f7,65d6bc98d6d44d58ce21bb8a,0.0568,0.0569,0,12,12,17,1,onethree,,,,,,,,,,,,,,,,,,,,,,,,,,,,,,,,,,,,,,,,,,,,,,,,,,,,,,,,,,,,,,,,,,,,,,,,,,,,,,,,,,,,,,,,,,,,,,,,,,,,,,,,,,,,,,,,,,,,,,,,,,,,,,,,,,,,,,,,,
,,650c93cdf4b8742fb9882770,2024-02-22_05h17.09.626,kallum_motion_pilot,2023.2.2,Win32,60.24096386,650c93cdf4b8742fb9882770,65d6bb0e977760de756971f7,65d6bc98d6d44d58ce21bb8a,0.0571,0.0571,0,13,13,91,1,sixeight,,,,,,,,,,,,,,,,,,,,,,,,,,,,,,,,,,,,,,,,,,,,,,,,,,,,,,,,,,,,,,,,,,,,,,,,,,,,,,,,,,,,,,,,,,,,,,,,,,,,,,,,,,,,,,,,,,,,,,,,,,,,,,,,,,,,,,,,,
,,650c93cdf4b8742fb9882770,2024-02-22_05h17.09.626,kallum_motion_pilot,2023.2.2,Win32,60.24096386,650c93cdf4b8742fb9882770,65d6bb0e977760de756971f7,65d6bc98d6d44d58ce21bb8a,0.0572,0.0572,0,14,14,130,1,sixfive,,,,,,,,,,,,,,,,,,,,,,,,,,,,,,,,,,,,,,,,,,,,,,,,,,,,,,,,,,,,,,,,,,,,,,,,,,,,,,,,,,,,,,,,,,,,,,,,,,,,,,,,,,,,,,,,,,,,,,,,,,,,,,,,,,,,,,,,,
,,650c93cdf4b8742fb9882770,2024-02-22_05h17.09.626,kallum_motion_pilot,2023.2.2,Win32,60.24096386,650c93cdf4b8742fb9882770,65d6bb0e977760de756971f7,65d6bc98d6d44d58ce21bb8a,0.0575,0.0576,0,15,15,147,1,sixeight,,,,,,,,,,,,,,,,,,,,,,,,,,,,,,,,,,,,,,,,,,,,,,,,,,,,,,,,,,,,,,,,,,,,,,,,,,,,,,,,,,,,,,,,,,,,,,,,,,,,,,,,,,,,,,,,,,,,,,,,,,,,,,,,,,,,,,,,,
,,650c93cdf4b8742fb9882770,2024-02-22_05h17.09.626,kallum_motion_pilot,2023.2.2,Win32,60.24096386,650c93cdf4b8742fb9882770,65d6bb0e977760de756971f7,65d6bc98d6d44d58ce21bb8a,0.0578,0.0579,0,16,16,149,1,seveneight,,,,,,,,,,,,,,,,,,,,,,,,,,,,,,,,,,,,,,,,,,,,,,,,,,,,,,,,,,,,,,,,,,,,,,,,,,,,,,,,,,,,,,,,,,,,,,,,,,,,,,,,,,,,,,,,,,,,,,,,,,,,,,,,,,,,,,,,,
,,650c93cdf4b8742fb9882770,2024-02-22_05h17.09.626,kallum_motion_pilot,2023.2.2,Win32,60.24096386,650c93cdf4b8742fb9882770,65d6bb0e977760de756971f7,65d6bc98d6d44d58ce21bb8a,0.058,0.0581,0,17,17,127,1,eightseven,,,,,,,,,,,,,,,,,,,,,,,,,,,,,,,,,,,,,,,,,,,,,,,,,,,,,,,,,,,,,,,,,,,,,,,,,,,,,,,,,,,,,,,,,,,,,,,,,,,,,,,,,,,,,,,,,,,,,,,,,,,,,,,,,,,,,,,,,
,,650c93cdf4b8742fb9882770,2024-02-22_05h17.09.626,kallum_motion_pilot,2023.2.2,Win32,60.24096386,650c93cdf4b8742fb9882770,65d6bb0e977760de756971f7,65d6bc98d6d44d58ce21bb8a,0.0583,0.0583,0,18,18,90,1,sixfive,,,,,,,,,,,,,,,,,,,,,,,,,,,,,,,,,,,,,,,,,,,,,,,,,,,,,,,,,,,,,,,,,,,,,,,,,,,,,,,,,,,,,,,,,,,,,,,,,,,,,,,,,,,,,,,,,,,,,,,,,,,,,,,,,,,,,,,,,
,,650c93cdf4b8742fb9882770,2024-02-22_05h17.09.626,kallum_motion_pilot,2023.2.2,Win32,60.24096386,650c93cdf4b8742fb9882770,65d6bb0e977760de756971f7,65d6bc98d6d44d58ce21bb8a,0.0585,0.0586,0,19,19,143,1,eightseven,,,,,,,,,,,,,,,,,,,,,,,,,,,,,,,,,,,,,,,,,,,,,,,,,,,,,,,,,,,,,,,,,,,,,,,,,,,,,,,,,,,,,,,,,,,,,,,,,,,,,,,,,,,,,,,,,,,,,,,,,,,,,,,,,,,,,,,,,
,,650c93cdf4b8742fb9882770,2024-02-22_05h17.09.626,kallum_motion_pilot,2023.2.2,Win32,60.24096386,650c93cdf4b8742fb9882770,65d6bb0e977760de756971f7,65d6bc98d6d44d58ce21bb8a,0.0587,0.0587,0,20,20,1,1,onethree,,,,,,,,,,,,,,,,,,,,,,,,,,,,,,,,,,,,,,,,,,,,,,,,,,,,,,,,,,,,,,,,,,,,,,,,,,,,,,,,,,,,,,,,,,,,,,,,,,,,,,,,,,,,,,,,,,,,,,,,,,,,,,,,,,,,,,,,,
,,650c93cdf4b8742fb9882770,2024-02-22_05h17.09.626,kallum_motion_pilot,2023.2.2,Win32,60.24096386,650c93cdf4b8742fb9882770,65d6bb0e977760de756971f7,65d6bc98d6d44d58ce21bb8a,0.059,0.059,0,21,21,30,1,fourtwo,,,,,,,,,,,,,,,,,,,,,,,,,,,,,,,,,,,,,,,,,,,,,,,,,,,,,,,,,,,,,,,,,,,,,,,,,,,,,,,,,,,,,,,,,,,,,,,,,,,,,,,,,,,,,,,,,,,,,,,,,,,,,,,,,,,,,,,,,
,,650c93cdf4b8742fb9882770,2024-02-22_05h17.09.626,kallum_motion_pilot,2023.2.2,Win32,60.24096386,650c93cdf4b8742fb9882770,65d6bb0e977760de756971f7,65d6bc98d6d44d58ce21bb8a,0.0592,0.0593,0,22,22,4,1,threeone,,,,,,,,,,,,,,,,,,,,,,,,,,,,,,,,,,,,,,,,,,,,,,,,,,,,,,,,,,,,,,,,,,,,,,,,,,,,,,,,,,,,,,,,,,,,,,,,,,,,,,,,,,,,,,,,,,,,,,,,,,,,,,,,,,,,,,,,,
,,650c93cdf4b8742fb9882770,2024-02-22_05h17.09.626,kallum_motion_pilot,2023.2.2,Win32,60.24096386,650c93cdf4b8742fb9882770,65d6bb0e977760de756971f7,65d6bc98d6d44d58ce21bb8a,0.0595,0.0595,0,23,23,27,1,twofour,,,,,,,,,,,,,,,,,,,,,,,,,,,,,,,,,,,,,,,,,,,,,,,,,,,,,,,,,,,,,,,,,,,,,,,,,,,,,,,,,,,,,,,,,,,,,,,,,,,,,,,,,,,,,,,,,,,,,,,,,,,,,,,,,,,,,,,,,
,,650c93cdf4b8742fb9882770,2024-02-22_05h17.09.626,kallum_motion_pilot,2023.2.2,Win32,60.24096386,650c93cdf4b8742fb9882770,65d6bb0e977760de756971f7,65d6bc98d6d44d58ce21bb8a,0.0597,0.0598,0,24,24,161,1,fiveseven,,,,,,,,,,,,,,,,,,,,,,,,,,,,,,,,,,,,,,,,,,,,,,,,,,,,,,,,,,,,,,,,,,,,,,,,,,,,,,,,,,,,,,,,,,,,,,,,,,,,,,,,,,,,,,,,,,,,,,,,,,,,,,,,,,,,,,,,,
,,650c93cdf4b8742fb9882770,2024-02-22_05h17.09.626,kallum_motion_pilot,2023.2.2,Win32,60.24096386,650c93cdf4b8742fb9882770,65d6bb0e977760de756971f7,65d6bc98d6d44d58ce21bb8a,0.06,0.0601,0,25,25,22,1,fourtwo,,,,,,,,,,,,,,,,,,,,,,,,,,,,,,,,,,,,,,,,,,,,,,,,,,,,,,,,,,,,,,,,,,,,,,,,,,,,,,,,,,,,,,,,,,,,,,,,,,,,,,,,,,,,,,,,,,,,,,,,,,,,,,,,,,,,,,,,,
,,650c93cdf4b8742fb9882770,2024-02-22_05h17.09.626,kallum_motion_pilot,2023.2.2,Win32,60.24096386,650c93cdf4b8742fb9882770,65d6bb0e977760de756971f7,65d6bc98d6d44d58ce21bb8a,0.0603,0.0604,0,26,26,53,1,threefour,,,,,,,,,,,,,,,,,,,,,,,,,,,,,,,,,,,,,,,,,,,,,,,,,,,,,,,,,,,,,,,,,,,,,,,,,,,,,,,,,,,,,,,,,,,,,,,,,,,,,,,,,,,,,,,,,,,,,,,,,,,,,,,,,,,,,,,,,
,,650c93cdf4b8742fb9882770,2024-02-22_05h17.09.626,kallum_motion_pilot,2023.2.2,Win32,60.24096386,650c93cdf4b8742fb9882770,65d6bb0e977760de756971f7,65d6bc98d6d44d58ce21bb8a,0.0605,0.0606,0,27,27,100,1,sevenfive,,,,,,,,,,,,,,,,,,,,,,,,,,,,,,,,,,,,,,,,,,,,,,,,,,,,,,,,,,,,,,,,,,,,,,,,,,,,,,,,,,,,,,,,,,,,,,,,,,,,,,,,,,,,,,,,,,,,,,,,,,,,,,,,,,,,,,,,,
,,650c93cdf4b8742fb9882770,2024-02-22_05h17.09.626,kallum_motion_pilot,2023.2.2,Win32,60.24096386,650c93cdf4b8742fb9882770,65d6bb0e977760de756971f7,65d6bc98d6d44d58ce21bb8a,0.0608,0.0608,0,28,28,126,1,eightsix,,,,,,,,,,,,,,,,,,,,,,,,,,,,,,,,,,,,,,,,,,,,,,,,,,,,,,,,,,,,,,,,,,,,,,,,,,,,,,,,,,,,,,,,,,,,,,,,,,,,,,,,,,,,,,,,,,,,,,,,,,,,,,,,,,,,,,,,,
,,650c93cdf4b8742fb9882770,2024-02-22_05h17.09.626,kallum_motion_pilot,2023.2.2,Win32,60.24096386,650c93cdf4b8742fb9882770,65d6bb0e977760de756971f7,65d6bc98d6d44d58ce21bb8a,0.061,0.0611,0,29,29,129,1,fiveseven,,,,,,,,,,,,,,,,,,,,,,,,,,,,,,,,,,,,,,,,,,,,,,,,,,,,,,,,,,,,,,,,,,,,,,,,,,,,,,,,,,,,,,,,,,,,,,,,,,,,,,,,,,,,,,,,,,,,,,,,,,,,,,,,,,,,,,,,,
,,650c93cdf4b8742fb9882770,2024-02-22_05h17.09.626,kallum_motion_pilot,2023.2.2,Win32,60.24096386,650c93cdf4b8742fb9882770,65d6bb0e977760de756971f7,65d6bc98d6d44d58ce21bb8a,0.0612,0.0613,0,30,30,50,1,twoone,,,,,,,,,,,,,,,,,,,,,,,,,,,,,,,,,,,,,,,,,,,,,,,,,,,,,,,,,,,,,,,,,,,,,,,,,,,,,,,,,,,,,,,,,,,,,,,,,,,,,,,,,,,,,,,,,,,,,,,,,,,,,,,,,,,,,,,,,
,,650c93cdf4b8742fb9882770,2024-02-22_05h17.09.626,kallum_motion_pilot,2023.2.2,Win32,60.24096386,650c93cdf4b8742fb9882770,65d6bb0e977760de756971f7,65d6bc98d6d44d58ce21bb8a,0.0616,0.0616,0,31,31,105,1,fiveseven,,,,,,,,,,,,,,,,,,,,,,,,,,,,,,,,,,,,,,,,,,,,,,,,,,,,,,,,,,,,,,,,,,,,,,,,,,,,,,,,,,,,,,,,,,,,,,,,,,,,,,,,,,,,,,,,,,,,,,,,,,,,,,,,,,,,,,,,,
,,650c93cdf4b8742fb9882770,2024-02-22_05h17.09.626,kallum_motion_pilot,2023.2.2,Win32,60.24096386,650c93cdf4b8742fb9882770,65d6bb0e977760de756971f7,65d6bc98d6d44d58ce21bb8a,0.0618,0.0619,0,32,32,38,1,fourtwo,,,,,,,,,,,,,,,,,,,,,,,,,,,,,,,,,,,,,,,,,,,,,,,,,,,,,,,,,,,,,,,,,,,,,,,,,,,,,,,,,,,,,,,,,,,,,,,,,,,,,,,,,,,,,,,,,,,,,,,,,,,,,,,,,,,,,,,,,
,,650c93cdf4b8742fb9882770,2024-02-22_05h17.09.626,kallum_motion_pilot,2023.2.2,Win32,60.24096386,650c93cdf4b8742fb9882770,65d6bb0e977760de756971f7,65d6bc98d6d44d58ce21bb8a,0.062,0.062,0,33,33,117,1,seveneight,,,,,,,,,,,,,,,,,,,,,,,,,,,,,,,,,,,,,,,,,,,,,,,,,,,,,,,,,,,,,,,,,,,,,,,,,,,,,,,,,,,,,,,,,,,,,,,,,,,,,,,,,,,,,,,,,,,,,,,,,,,,,,,,,,,,,,,,,
,,650c93cdf4b8742fb9882770,2024-02-22_05h17.09.626,kallum_motion_pilot,2023.2.2,Win32,60.24096386,650c93cdf4b8742fb9882770,65d6bb0e977760de756971f7,65d6bc98d6d44d58ce21bb8a,0.0623,0.0623,0,34,34,131,1,sixeight,,,,,,,,,,,,,,,,,,,,,,,,,,,,,,,,,,,,,,,,,,,,,,,,,,,,,,,,,,,,,,,,,,,,,,,,,,,,,,,,,,,,,,,,,,,,,,,,,,,,,,,,,,,,,,,,,,,,,,,,,,,,,,,,,,,,,,,,,
,,650c93cdf4b8742fb9882770,2024-02-22_05h17.09.626,kallum_motion_pilot,2023.2.2,Win32,60.24096386,650c93cdf4b8742fb9882770,65d6bb0e977760de756971f7,65d6bc98d6d44d58ce21bb8a,0.0626,0.0626,0,35,35,80,1,fivesix,,,,,,,,,,,,,,,,,,,,,,,,,,,,,,,,,,,,,,,,,,,,,,,,,,,,,,,,,,,,,,,,,,,,,,,,,,,,,,,,,,,,,,,,,,,,,,,,,,,,,,,,,,,,,,,,,,,,,,,,,,,,,,,,,,,,,,,,,
,,650c93cdf4b8742fb9882770,2024-02-22_05h17.09.626,kallum_motion_pilot,2023.2.2,Win32,60.24096386,650c93cdf4b8742fb9882770,65d6bb0e977760de756971f7,65d6bc98d6d44d58ce21bb8a,0.0627,0.0629,0,36,36,54,1,fourtwo,,,,,,,,,,,,,,,,,,,,,,,,,,,,,,,,,,,,,,,,,,,,,,,,,,,,,,,,,,,,,,,,,,,,,,,,,,,,,,,,,,,,,,,,,,,,,,,,,,,,,,,,,,,,,,,,,,,,,,,,,,,,,,,,,,,,,,,,,
,,650c93cdf4b8742fb9882770,2024-02-22_05h17.09.626,kallum_motion_pilot,2023.2.2,Win32,60.24096386,650c93cdf4b8742fb9882770,65d6bb0e977760de756971f7,65d6bc98d6d44d58ce21bb8a,0.063,0.0631,0,37,37,76,1,threeone,,,,,,,,,,,,,,,,,,,,,,,,,,,,,,,,,,,,,,,,,,,,,,,,,,,,,,,,,,,,,,,,,,,,,,,,,,,,,,,,,,,,,,,,,,,,,,,,,,,,,,,,,,,,,,,,,,,,,,,,,,,,,,,,,,,,,,,,,
,,650c93cdf4b8742fb9882770,2024-02-22_05h17.09.626,kallum_motion_pilot,2023.2.2,Win32,60.24096386,650c93cdf4b8742fb9882770,65d6bb0e977760de756971f7,65d6bc98d6d44d58ce21bb8a,0.0632,0.0634,0,38,38,71,1,fourthree,,,,,,,,,,,,,,,,,,,,,,,,,,,,,,,,,,,,,,,,,,,,,,,,,,,,,,,,,,,,,,,,,,,,,,,,,,,,,,,,,,,,,,,,,,,,,,,,,,,,,,,,,,,,,,,,,,,,,,,,,,,,,,,,,,,,,,,,,
,,650c93cdf4b8742fb9882770,2024-02-22_05h17.09.626,kallum_motion_pilot,2023.2.2,Win32,60.24096386,650c93cdf4b8742fb9882770,65d6bb0e977760de756971f7,65d6bc98d6d44d58ce21bb8a,0.0635,0.0636,0,39,39,36,1,threeone,,,,,,,,,,,,,,,,,,,,,,,,,,,,,,,,,,,,,,,,,,,,,,,,,,,,,,,,,,,,,,,,,,,,,,,,,,,,,,,,,,,,,,,,,,,,,,,,,,,,,,,,,,,,,,,,,,,,,,,,,,,,,,,,,,,,,,,,,
,,650c93cdf4b8742fb9882770,2024-02-22_05h17.09.626,kallum_motion_pilot,2023.2.2,Win32,60.24096386,650c93cdf4b8742fb9882770,65d6bb0e977760de756971f7,65d6bc98d6d44d58ce21bb8a,0.0638,0.0639,0,40,40,33,1,onethree,,,,,,,,,,,,,,,,,,,,,,,,,,,,,,,,,,,,,,,,,,,,,,,,,,,,,,,,,,,,,,,,,,,,,,,,,,,,,,,,,,,,,,,,,,,,,,,,,,,,,,,,,,,,,,,,,,,,,,,,,,,,,,,,,,,,,,,,,
,,650c93cdf4b8742fb9882770,2024-02-22_05h17.09.626,kallum_motion_pilot,2023.2.2,Win32,60.24096386,650c93cdf4b8742fb9882770,65d6bb0e977760de756971f7,65d6bc98d6d44d58ce21bb8a,0.064,0.0641,0,41,41,92,1,sevenfive,,,,,,,,,,,,,,,,,,,,,,,,,,,,,,,,,,,,,,,,,,,,,,,,,,,,,,,,,,,,,,,,,,,,,,,,,,,,,,,,,,,,,,,,,,,,,,,,,,,,,,,,,,,,,,,,,,,,,,,,,,,,,,,,,,,,,,,,,
,,650c93cdf4b8742fb9882770,2024-02-22_05h17.09.626,kallum_motion_pilot,2023.2.2,Win32,60.24096386,650c93cdf4b8742fb9882770,65d6bb0e977760de756971f7,65d6bc98d6d44d58ce21bb8a,0.0642,0.0643,0,42,42,98,1,sixfive,,,,,,,,,,,,,,,,,,,,,,,,,,,,,,,,,,,,,,,,,,,,,,,,,,,,,,,,,,,,,,,,,,,,,,,,,,,,,,,,,,,,,,,,,,,,,,,,,,,,,,,,,,,,,,,,,,,,,,,,,,,,,,,,,,,,,,,,,
,,650c93cdf4b8742fb9882770,2024-02-22_05h17.09.626,kallum_motion_pilot,2023.2.2,Win32,60.24096386,650c93cdf4b8742fb9882770,65d6bb0e977760de756971f7,65d6bc98d6d44d58ce21bb8a,0.0645,0.0646,0,43,43,40,1,onetwo,,,,,,,,,,,,,,,,,,,,,,,,,,,,,,,,,,,,,,,,,,,,,,,,,,,,,,,,,,,,,,,,,,,,,,,,,,,,,,,,,,,,,,,,,,,,,,,,,,,,,,,,,,,,,,,,,,,,,,,,,,,,,,,,,,,,,,,,,
,,650c93cdf4b8742fb9882770,2024-02-22_05h17.09.626,kallum_motion_pilot,2023.2.2,Win32,60.24096386,650c93cdf4b8742fb9882770,65d6bb0e977760de756971f7,65d6bc98d6d44d58ce21bb8a,0.0647,0.0649,0,44,44,88,1,fivesix,,,,,,,,,,,,,,,,,,,,,,,,,,,,,,,,,,,,,,,,,,,,,,,,,,,,,,,,,,,,,,,,,,,,,,,,,,,,,,,,,,,,,,,,,,,,,,,,,,,,,,,,,,,,,,,,,,,,,,,,,,,,,,,,,,,,,,,,,
,,650c93cdf4b8742fb9882770,2024-02-22_05h17.09.626,kallum_motion_pilot,2023.2.2,Win32,60.24096386,650c93cdf4b8742fb9882770,65d6bb0e977760de756971f7,65d6bc98d6d44d58ce21bb8a,0.065,0.0651,0,45,45,158,1,eightsix,,,,,,,,,,,,,,,,,,,,,,,,,,,,,,,,,,,,,,,,,,,,,,,,,,,,,,,,,,,,,,,,,,,,,,,,,,,,,,,,,,,,,,,,,,,,,,,,,,,,,,,,,,,,,,,,,,,,,,,,,,,,,,,,,,,,,,,,,
,,650c93cdf4b8742fb9882770,2024-02-22_05h17.09.626,kallum_motion_pilot,2023.2.2,Win32,60.24096386,650c93cdf4b8742fb9882770,65d6bb0e977760de756971f7,65d6bc98d6d44d58ce21bb8a,0.0654,0.0655,0,46,46,135,1,eightseven,,,,,,,,,,,,,,,,,,,,,,,,,,,,,,,,,,,,,,,,,,,,,,,,,,,,,,,,,,,,,,,,,,,,,,,,,,,,,,,,,,,,,,,,,,,,,,,,,,,,,,,,,,,,,,,,,,,,,,,,,,,,,,,,,,,,,,,,,
,,650c93cdf4b8742fb9882770,2024-02-22_05h17.09.626,kallum_motion_pilot,2023.2.2,Win32,60.24096386,650c93cdf4b8742fb9882770,65d6bb0e977760de756971f7,65d6bc98d6d44d58ce21bb8a,0.0657,0.0657,0,47,47,104,1,fivesix,,,,,,,,,,,,,,,,,,,,,,,,,,,,,,,,,,,,,,,,,,,,,,,,,,,,,,,,,,,,,,,,,,,,,,,,,,,,,,,,,,,,,,,,,,,,,,,,,,,,,,,,,,,,,,,,,,,,,,,,,,,,,,,,,,,,,,,,,
,,650c93cdf4b8742fb9882770,2024-02-22_05h17.09.626,kallum_motion_pilot,2023.2.2,Win32,60.24096386,650c93cdf4b8742fb9882770,65d6bb0e977760de756971f7,65d6bc98d6d44d58ce21bb8a,0.0659,0.066,0,48,48,154,1,sixfive,,,,,,,,,,,,,,,,,,,,,,,,,,,,,,,,,,,,,,,,,,,,,,,,,,,,,,,,,,,,,,,,,,,,,,,,,,,,,,,,,,,,,,,,,,,,,,,,,,,,,,,,,,,,,,,,,,,,,,,,,,,,,,,,,,,,,,,,,
,,650c93cdf4b8742fb9882770,2024-02-22_05h17.09.626,kallum_motion_pilot,2023.2.2,Win32,60.24096386,650c93cdf4b8742fb9882770,65d6bb0e977760de756971f7,65d6bc98d6d44d58ce21bb8a,0.0662,0.0662,0,49,49,26,1,twoone,,,,,,,,,,,,,,,,,,,,,,,,,,,,,,,,,,,,,,,,,,,,,,,,,,,,,,,,,,,,,,,,,,,,,,,,,,,,,,,,,,,,,,,,,,,,,,,,,,,,,,,,,,,,,,,,,,,,,,,,,,,,,,,,,,,,,,,,,
,,650c93cdf4b8742fb9882770,2024-02-22_05h17.09.626,kallum_motion_pilot,2023.2.2,Win32,60.24096386,650c93cdf4b8742fb9882770,65d6bb0e977760de756971f7,65d6bc98d6d44d58ce21bb8a,0.0664,0.0664,0,50,50,137,1,fiveseven,,,,,,,,,,,,,,,,,,,,,,,,,,,,,,,,,,,,,,,,,,,,,,,,,,,,,,,,,,,,,,,,,,,,,,,,,,,,,,,,,,,,,,,,,,,,,,,,,,,,,,,,,,,,,,,,,,,,,,,,,,,,,,,,,,,,,,,,,
,,650c93cdf4b8742fb9882770,2024-02-22_05h17.09.626,kallum_motion_pilot,2023.2.2,Win32,60.24096386,650c93cdf4b8742fb9882770,65d6bb0e977760de756971f7,65d6bc98d6d44d58ce21bb8a,0.0666,0.0666,0,51,51,86,1,eightsix,,,,,,,,,,,,,,,,,,,,,,,,,,,,,,,,,,,,,,,,,,,,,,,,,,,,,,,,,,,,,,,,,,,,,,,,,,,,,,,,,,,,,,,,,,,,,,,,,,,,,,,,,,,,,,,,,,,,,,,,,,,,,,,,,,,,,,,,,
,,650c93cdf4b8742fb9882770,2024-02-22_05h17.09.626,kallum_motion_pilot,2023.2.2,Win32,60.24096386,650c93cdf4b8742fb9882770,65d6bb0e977760de756971f7,65d6bc98d6d44d58ce21bb8a,0.068,0.068,0,52,52,140,1,sevenfive,,,,,,,,,,,,,,,,,,,,,,,,,,,,,,,,,,,,,,,,,,,,,,,,,,,,,,,,,,,,,,,,,,,,,,,,,,,,,,,,,,,,,,,,,,,,,,,,,,,,,,,,,,,,,,,,,,,,,,,,,,,,,,,,,,,,,,,,,
,,650c93cdf4b8742fb9882770,2024-02-22_05h17.09.626,kallum_motion_pilot,2023.2.2,Win32,60.24096386,650c93cdf4b8742fb9882770,65d6bb0e977760de756971f7,65d6bc98d6d44d58ce21bb8a,0.0682,0.0683,0,53,53,64,1,onetwo,,,,,,,,,,,,,,,,,,,,,,,,,,,,,,,,,,,,,,,,,,,,,,,,,,,,,,,,,,,,,,,,,,,,,,,,,,,,,,,,,,,,,,,,,,,,,,,,,,,,,,,,,,,,,,,,,,,,,,,,,,,,,,,,,,,,,,,,,
,,650c93cdf4b8742fb9882770,2024-02-22_05h17.09.626,kallum_motion_pilot,2023.2.2,Win32,60.24096386,650c93cdf4b8742fb9882770,65d6bb0e977760de756971f7,65d6bc98d6d44d58ce21bb8a,0.0685,0.0686,0,54,54,23,1,fourthree,,,,,,,,,,,,,,,,,,,,,,,,,,,,,,,,,,,,,,,,,,,,,,,,,,,,,,,,,,,,,,,,,,,,,,,,,,,,,,,,,,,,,,,,,,,,,,,,,,,,,,,,,,,,,,,,,,,,,,,,,,,,,,,,,,,,,,,,,
,,650c93cdf4b8742fb9882770,2024-02-22_05h17.09.626,kallum_motion_pilot,2023.2.2,Win32,60.24096386,650c93cdf4b8742fb9882770,65d6bb0e977760de756971f7,65d6bc98d6d44d58ce21bb8a,0.0687,0.0688,0,55,55,110,1,eightsix,,,,,,,,,,,,,,,,,,,,,,,,,,,,,,,,,,,,,,,,,,,,,,,,,,,,,,,,,,,,,,,,,,,,,,,,,,,,,,,,,,,,,,,,,,,,,,,,,,,,,,,,,,,,,,,,,,,,,,,,,,,,,,,,,,,,,,,,,
,,650c93cdf4b8742fb9882770,2024-02-22_05h17.09.626,kallum_motion_pilot,2023.2.2,Win32,60.24096386,650c93cdf4b8742fb9882770,65d6bb0e977760de756971f7,65d6bc98d6d44d58ce21bb8a,0.069,0.0696,0,56,56,96,1,fivesix,,,,,,,,,,,,,,,,,,,,,,,,,,,,,,,,,,,,,,,,,,,,,,,,,,,,,,,,,,,,,,,,,,,,,,,,,,,,,,,,,,,,,,,,,,,,,,,,,,,,,,,,,,,,,,,,,,,,,,,,,,,,,,,,,,,,,,,,,
,,650c93cdf4b8742fb9882770,2024-02-22_05h17.09.626,kallum_motion_pilot,2023.2.2,Win32,60.24096386,650c93cdf4b8742fb9882770,65d6bb0e977760de756971f7,65d6bc98d6d44d58ce21bb8a,0.07,0.0702,0,57,57,55,1,fourthree,,,,,,,,,,,,,,,,,,,,,,,,,,,,,,,,,,,,,,,,,,,,,,,,,,,,,,,,,,,,,,,,,,,,,,,,,,,,,,,,,,,,,,,,,,,,,,,,,,,,,,,,,,,,,,,,,,,,,,,,,,,,,,,,,,,,,,,,,
,,650c93cdf4b8742fb9882770,2024-02-22_05h17.09.626,kallum_motion_pilot,2023.2.2,Win32,60.24096386,650c93cdf4b8742fb9882770,65d6bb0e977760de756971f7,65d6bc98d6d44d58ce21bb8a,0.0707,0.0709,0,58,58,84,1,sevenfive,,,,,,,,,,,,,,,,,,,,,,,,,,,,,,,,,,,,,,,,,,,,,,,,,,,,,,,,,,,,,,,,,,,,,,,,,,,,,,,,,,,,,,,,,,,,,,,,,,,,,,,,,,,,,,,,,,,,,,,,,,,,,,,,,,,,,,,,,
,,650c93cdf4b8742fb9882770,2024-02-22_05h17.09.626,kallum_motion_pilot,2023.2.2,Win32,60.24096386,650c93cdf4b8742fb9882770,65d6bb0e977760de756971f7,65d6bc98d6d44d58ce21bb8a,0.0714,0.0715,0,59,59,66,1,twoone,,,,,,,,,,,,,,,,,,,,,,,,,,,,,,,,,,,,,,,,,,,,,,,,,,,,,,,,,,,,,,,,,,,,,,,,,,,,,,,,,,,,,,,,,,,,,,,,,,,,,,,,,,,,,,,,,,,,,,,,,,,,,,,,,,,,,,,,,
,,650c93cdf4b8742fb9882770,2024-02-22_05h17.09.626,kallum_motion_pilot,2023.2.2,Win32,60.24096386,650c93cdf4b8742fb9882770,65d6bb0e977760de756971f7,65d6bc98d6d44d58ce21bb8a,0.0717,0.0719,0,60,60,138,1,sixfive,,,,,,,,,,,,,,,,,,,,,,,,,,,,,,,,,,,,,,,,,,,,,,,,,,,,,,,,,,,,,,,,,,,,,,,,,,,,,,,,,,,,,,,,,,,,,,,,,,,,,,,,,,,,,,,,,,,,,,,,,,,,,,,,,,,,,,,,,
,,650c93cdf4b8742fb9882770,2024-02-22_05h17.09.626,kallum_motion_pilot,2023.2.2,Win32,60.24096386,650c93cdf4b8742fb9882770,65d6bb0e977760de756971f7,65d6bc98d6d44d58ce21bb8a,0.0721,0.0722,0,61,61,114,1,sixfive,,,,,,,,,,,,,,,,,,,,,,,,,,,,,,,,,,,,,,,,,,,,,,,,,,,,,,,,,,,,,,,,,,,,,,,,,,,,,,,,,,,,,,,,,,,,,,,,,,,,,,,,,,,,,,,,,,,,,,,,,,,,,,,,,,,,,,,,,
,,650c93cdf4b8742fb9882770,2024-02-22_05h17.09.626,kallum_motion_pilot,2023.2.2,Win32,60.24096386,650c93cdf4b8742fb9882770,65d6bb0e977760de756971f7,65d6bc98d6d44d58ce21bb8a,0.0724,0.0725,0,62,62,13,1,threefour,,,,,,,,,,,,,,,,,,,,,,,,,,,,,,,,,,,,,,,,,,,,,,,,,,,,,,,,,,,,,,,,,,,,,,,,,,,,,,,,,,,,,,,,,,,,,,,,,,,,,,,,,,,,,,,,,,,,,,,,,,,,,,,,,,,,,,,,,
,,650c93cdf4b8742fb9882770,2024-02-22_05h17.09.626,kallum_motion_pilot,2023.2.2,Win32,60.24096386,650c93cdf4b8742fb9882770,65d6bb0e977760de756971f7,65d6bc98d6d44d58ce21bb8a,0.0728,0.0728,0,63,63,6,1,fourtwo,,,,,,,,,,,,,,,,,,,,,,,,,,,,,,,,,,,,,,,,,,,,,,,,,,,,,,,,,,,,,,,,,,,,,,,,,,,,,,,,,,,,,,,,,,,,,,,,,,,,,,,,,,,,,,,,,,,,,,,,,,,,,,,,,,,,,,,,,
,,650c93cdf4b8742fb9882770,2024-02-22_05h17.09.626,kallum_motion_pilot,2023.2.2,Win32,60.24096386,650c93cdf4b8742fb9882770,65d6bb0e977760de756971f7,65d6bc98d6d44d58ce21bb8a,0.0731,0.0732,0,64,64,94,1,eightsix,,,,,,,,,,,,,,,,,,,,,,,,,,,,,,,,,,,,,,,,,,,,,,,,,,,,,,,,,,,,,,,,,,,,,,,,,,,,,,,,,,,,,,,,,,,,,,,,,,,,,,,,,,,,,,,,,,,,,,,,,,,,,,,,,,,,,,,,,
,,650c93cdf4b8742fb9882770,2024-02-22_05h17.09.626,kallum_motion_pilot,2023.2.2,Win32,60.24096386,650c93cdf4b8742fb9882770,65d6bb0e977760de756971f7,65d6bc98d6d44d58ce21bb8a,0.0733,0.0734,0,65,65,51,1,twofour,,,,,,,,,,,,,,,,,,,,,,,,,,,,,,,,,,,,,,,,,,,,,,,,,,,,,,,,,,,,,,,,,,,,,,,,,,,,,,,,,,,,,,,,,,,,,,,,,,,,,,,,,,,,,,,,,,,,,,,,,,,,,,,,,,,,,,,,,
,,650c93cdf4b8742fb9882770,2024-02-22_05h17.09.626,kallum_motion_pilot,2023.2.2,Win32,60.24096386,650c93cdf4b8742fb9882770,65d6bb0e977760de756971f7,65d6bc98d6d44d58ce21bb8a,0.0736,0.0736,0,66,66,67,1,twofour,,,,,,,,,,,,,,,,,,,,,,,,,,,,,,,,,,,,,,,,,,,,,,,,,,,,,,,,,,,,,,,,,,,,,,,,,,,,,,,,,,,,,,,,,,,,,,,,,,,,,,,,,,,,,,,,,,,,,,,,,,,,,,,,,,,,,,,,,
,,650c93cdf4b8742fb9882770,2024-02-22_05h17.09.626,kallum_motion_pilot,2023.2.2,Win32,60.24096386,650c93cdf4b8742fb9882770,65d6bb0e977760de756971f7,65d6bc98d6d44d58ce21bb8a,0.0738,0.074,0,67,67,49,1,onethree,,,,,,,,,,,,,,,,,,,,,,,,,,,,,,,,,,,,,,,,,,,,,,,,,,,,,,,,,,,,,,,,,,,,,,,,,,,,,,,,,,,,,,,,,,,,,,,,,,,,,,,,,,,,,,,,,,,,,,,,,,,,,,,,,,,,,,,,,
,,650c93cdf4b8742fb9882770,2024-02-22_05h17.09.626,kallum_motion_pilot,2023.2.2,Win32,60.24096386,650c93cdf4b8742fb9882770,65d6bb0e977760de756971f7,65d6bc98d6d44d58ce21bb8a,0.0742,0.0743,0,68,68,123,1,sixeight,,,,,,,,,,,,,,,,,,,,,,,,,,,,,,,,,,,,,,,,,,,,,,,,,,,,,,,,,,,,,,,,,,,,,,,,,,,,,,,,,,,,,,,,,,,,,,,,,,,,,,,,,,,,,,,,,,,,,,,,,,,,,,,,,,,,,,,,,
,,650c93cdf4b8742fb9882770,2024-02-22_05h17.09.626,kallum_motion_pilot,2023.2.2,Win32,60.24096386,650c93cdf4b8742fb9882770,65d6bb0e977760de756971f7,65d6bc98d6d44d58ce21bb8a,0.0746,0.0746,0,69,69,112,1,fivesix,,,,,,,,,,,,,,,,,,,,,,,,,,,,,,,,,,,,,,,,,,,,,,,,,,,,,,,,,,,,,,,,,,,,,,,,,,,,,,,,,,,,,,,,,,,,,,,,,,,,,,,,,,,,,,,,,,,,,,,,,,,,,,,,,,,,,,,,,
,,650c93cdf4b8742fb9882770,2024-02-22_05h17.09.626,kallum_motion_pilot,2023.2.2,Win32,60.24096386,650c93cdf4b8742fb9882770,65d6bb0e977760de756971f7,65d6bc98d6d44d58ce21bb8a,0.0749,0.075,0,70,70,144,1,fivesix,,,,,,,,,,,,,,,,,,,,,,,,,,,,,,,,,,,,,,,,,,,,,,,,,,,,,,,,,,,,,,,,,,,,,,,,,,,,,,,,,,,,,,,,,,,,,,,,,,,,,,,,,,,,,,,,,,,,,,,,,,,,,,,,,,,,,,,,,
,,650c93cdf4b8742fb9882770,2024-02-22_05h17.09.626,kallum_motion_pilot,2023.2.2,Win32,60.24096386,650c93cdf4b8742fb9882770,65d6bb0e977760de756971f7,65d6bc98d6d44d58ce21bb8a,0.0751,0.0752,0,71,71,19,1,twofour,,,,,,,,,,,,,,,,,,,,,,,,,,,,,,,,,,,,,,,,,,,,,,,,,,,,,,,,,,,,,,,,,,,,,,,,,,,,,,,,,,,,,,,,,,,,,,,,,,,,,,,,,,,,,,,,,,,,,,,,,,,,,,,,,,,,,,,,,
,,650c93cdf4b8742fb9882770,2024-02-22_05h17.09.626,kallum_motion_pilot,2023.2.2,Win32,60.24096386,650c93cdf4b8742fb9882770,65d6bb0e977760de756971f7,65d6bc98d6d44d58ce21bb8a,0.0754,0.0756,0,72,72,157,1,seveneight,,,,,,,,,,,,,,,,,,,,,,,,,,,,,,,,,,,,,,,,,,,,,,,,,,,,,,,,,,,,,,,,,,,,,,,,,,,,,,,,,,,,,,,,,,,,,,,,,,,,,,,,,,,,,,,,,,,,,,,,,,,,,,,,,,,,,,,,,
,,650c93cdf4b8742fb9882770,2024-02-22_05h17.09.626,kallum_motion_pilot,2023.2.2,Win32,60.24096386,650c93cdf4b8742fb9882770,65d6bb0e977760de756971f7,65d6bc98d6d44d58ce21bb8a,0.0757,0.0758,0,73,73,34,1,twoone,,,,,,,,,,,,,,,,,,,,,,,,,,,,,,,,,,,,,,,,,,,,,,,,,,,,,,,,,,,,,,,,,,,,,,,,,,,,,,,,,,,,,,,,,,,,,,,,,,,,,,,,,,,,,,,,,,,,,,,,,,,,,,,,,,,,,,,,,
,,650c93cdf4b8742fb9882770,2024-02-22_05h17.09.626,kallum_motion_pilot,2023.2.2,Win32,60.24096386,650c93cdf4b8742fb9882770,65d6bb0e977760de756971f7,65d6bc98d6d44d58ce21bb8a,0.0761,0.0761,0,74,74,106,1,sixfive,,,,,,,,,,,,,,,,,,,,,,,,,,,,,,,,,,,,,,,,,,,,,,,,,,,,,,,,,,,,,,,,,,,,,,,,,,,,,,,,,,,,,,,,,,,,,,,,,,,,,,,,,,,,,,,,,,,,,,,,,,,,,,,,,,,,,,,,,
,,650c93cdf4b8742fb9882770,2024-02-22_05h17.09.626,kallum_motion_pilot,2023.2.2,Win32,60.24096386,650c93cdf4b8742fb9882770,65d6bb0e977760de756971f7,65d6bc98d6d44d58ce21bb8a,0.0764,0.0764,0,75,75,132,1,sevenfive,,,,,,,,,,,,,,,,,,,,,,,,,,,,,,,,,,,,,,,,,,,,,,,,,,,,,,,,,,,,,,,,,,,,,,,,,,,,,,,,,,,,,,,,,,,,,,,,,,,,,,,,,,,,,,,,,,,,,,,,,,,,,,,,,,,,,,,,,
,,650c93cdf4b8742fb9882770,2024-02-22_05h17.09.626,kallum_motion_pilot,2023.2.2,Win32,60.24096386,650c93cdf4b8742fb9882770,65d6bb0e977760de756971f7,65d6bc98d6d44d58ce21bb8a,0.0766,0.0767,0,76,76,152,1,fivesix,,,,,,,,,,,,,,,,,,,,,,,,,,,,,,,,,,,,,,,,,,,,,,,,,,,,,,,,,,,,,,,,,,,,,,,,,,,,,,,,,,,,,,,,,,,,,,,,,,,,,,,,,,,,,,,,,,,,,,,,,,,,,,,,,,,,,,,,,
,,650c93cdf4b8742fb9882770,2024-02-22_05h17.09.626,kallum_motion_pilot,2023.2.2,Win32,60.24096386,650c93cdf4b8742fb9882770,65d6bb0e977760de756971f7,65d6bc98d6d44d58ce21bb8a,0.0769,0.077,0,77,77,15,1,fourthree,,,,,,,,,,,,,,,,,,,,,,,,,,,,,,,,,,,,,,,,,,,,,,,,,,,,,,,,,,,,,,,,,,,,,,,,,,,,,,,,,,,,,,,,,,,,,,,,,,,,,,,,,,,,,,,,,,,,,,,,,,,,,,,,,,,,,,,,,
,,650c93cdf4b8742fb9882770,2024-02-22_05h17.09.626,kallum_motion_pilot,2023.2.2,Win32,60.24096386,650c93cdf4b8742fb9882770,65d6bb0e977760de756971f7,65d6bc98d6d44d58ce21bb8a,0.0771,0.0772,0,78,78,125,1,seveneight,,,,,,,,,,,,,,,,,,,,,,,,,,,,,,,,,,,,,,,,,,,,,,,,,,,,,,,,,,,,,,,,,,,,,,,,,,,,,,,,,,,,,,,,,,,,,,,,,,,,,,,,,,,,,,,,,,,,,,,,,,,,,,,,,,,,,,,,,
,,650c93cdf4b8742fb9882770,2024-02-22_05h17.09.626,kallum_motion_pilot,2023.2.2,Win32,60.24096386,650c93cdf4b8742fb9882770,65d6bb0e977760de756971f7,65d6bc98d6d44d58ce21bb8a,0.0774,0.0775,0,79,79,115,1,sixeight,,,,,,,,,,,,,,,,,,,,,,,,,,,,,,,,,,,,,,,,,,,,,,,,,,,,,,,,,,,,,,,,,,,,,,,,,,,,,,,,,,,,,,,,,,,,,,,,,,,,,,,,,,,,,,,,,,,,,,,,,,,,,,,,,,,,,,,,,
,,650c93cdf4b8742fb9882770,2024-02-22_05h17.09.626,kallum_motion_pilot,2023.2.2,Win32,60.24096386,650c93cdf4b8742fb9882770,65d6bb0e977760de756971f7,65d6bc98d6d44d58ce21bb8a,0.0777,0.0778,0,80,80,122,1,sixfive,,,,,,,,,,,,,,,,,,,,,,,,,,,,,,,,,,,,,,,,,,,,,,,,,,,,,,,,,,,,,,,,,,,,,,,,,,,,,,,,,,,,,,,,,,,,,,,,,,,,,,,,,,,,,,,,,,,,,,,,,,,,,,,,,,,,,,,,,
,,650c93cdf4b8742fb9882770,2024-02-22_05h17.09.626,kallum_motion_pilot,2023.2.2,Win32,60.24096386,650c93cdf4b8742fb9882770,65d6bb0e977760de756971f7,65d6bc98d6d44d58ce21bb8a,0.078,0.078,0,81,81,41,1,onethree,,,,,,,,,,,,,,,,,,,,,,,,,,,,,,,,,,,,,,,,,,,,,,,,,,,,,,,,,,,,,,,,,,,,,,,,,,,,,,,,,,,,,,,,,,,,,,,,,,,,,,,,,,,,,,,,,,,,,,,,,,,,,,,,,,,,,,,,,
,,650c93cdf4b8742fb9882770,2024-02-22_05h17.09.626,kallum_motion_pilot,2023.2.2,Win32,60.24096386,650c93cdf4b8742fb9882770,65d6bb0e977760de756971f7,65d6bc98d6d44d58ce21bb8a,0.0782,0.0784,0,82,82,102,1,eightsix,,,,,,,,,,,,,,,,,,,,,,,,,,,,,,,,,,,,,,,,,,,,,,,,,,,,,,,,,,,,,,,,,,,,,,,,,,,,,,,,,,,,,,,,,,,,,,,,,,,,,,,,,,,,,,,,,,,,,,,,,,,,,,,,,,,,,,,,,
,,650c93cdf4b8742fb9882770,2024-02-22_05h17.09.626,kallum_motion_pilot,2023.2.2,Win32,60.24096386,650c93cdf4b8742fb9882770,65d6bb0e977760de756971f7,65d6bc98d6d44d58ce21bb8a,0.0785,0.0786,0,83,83,45,1,threefour,,,,,,,,,,,,,,,,,,,,,,,,,,,,,,,,,,,,,,,,,,,,,,,,,,,,,,,,,,,,,,,,,,,,,,,,,,,,,,,,,,,,,,,,,,,,,,,,,,,,,,,,,,,,,,,,,,,,,,,,,,,,,,,,,,,,,,,,,
,,650c93cdf4b8742fb9882770,2024-02-22_05h17.09.626,kallum_motion_pilot,2023.2.2,Win32,60.24096386,650c93cdf4b8742fb9882770,65d6bb0e977760de756971f7,65d6bc98d6d44d58ce21bb8a,0.0787,0.0789,0,84,84,8,1,onetwo,,,,,,,,,,,,,,,,,,,,,,,,,,,,,,,,,,,,,,,,,,,,,,,,,,,,,,,,,,,,,,,,,,,,,,,,,,,,,,,,,,,,,,,,,,,,,,,,,,,,,,,,,,,,,,,,,,,,,,,,,,,,,,,,,,,,,,,,,
,,650c93cdf4b8742fb9882770,2024-02-22_05h17.09.626,kallum_motion_pilot,2023.2.2,Win32,60.24096386,650c93cdf4b8742fb9882770,65d6bb0e977760de756971f7,65d6bc98d6d44d58ce21bb8a,0.0793,0.0794,0,85,85,85,1,seveneight,,,,,,,,,,,,,,,,,,,,,,,,,,,,,,,,,,,,,,,,,,,,,,,,,,,,,,,,,,,,,,,,,,,,,,,,,,,,,,,,,,,,,,,,,,,,,,,,,,,,,,,,,,,,,,,,,,,,,,,,,,,,,,,,,,,,,,,,,
,,650c93cdf4b8742fb9882770,2024-02-22_05h17.09.626,kallum_motion_pilot,2023.2.2,Win32,60.24096386,650c93cdf4b8742fb9882770,65d6bb0e977760de756971f7,65d6bc98d6d44d58ce21bb8a,0.0797,0.0797,0,86,86,35,1,twofour,,,,,,,,,,,,,,,,,,,,,,,,,,,,,,,,,,,,,,,,,,,,,,,,,,,,,,,,,,,,,,,,,,,,,,,,,,,,,,,,,,,,,,,,,,,,,,,,,,,,,,,,,,,,,,,,,,,,,,,,,,,,,,,,,,,,,,,,,
,,650c93cdf4b8742fb9882770,2024-02-22_05h17.09.626,kallum_motion_pilot,2023.2.2,Win32,60.24096386,650c93cdf4b8742fb9882770,65d6bb0e977760de756971f7,65d6bc98d6d44d58ce21bb8a,0.0799,0.08,0,87,87,63,1,fourthree,,,,,,,,,,,,,,,,,,,,,,,,,,,,,,,,,,,,,,,,,,,,,,,,,,,,,,,,,,,,,,,,,,,,,,,,,,,,,,,,,,,,,,,,,,,,,,,,,,,,,,,,,,,,,,,,,,,,,,,,,,,,,,,,,,,,,,,,,
,,650c93cdf4b8742fb9882770,2024-02-22_05h17.09.626,kallum_motion_pilot,2023.2.2,Win32,60.24096386,650c93cdf4b8742fb9882770,65d6bb0e977760de756971f7,65d6bc98d6d44d58ce21bb8a,0.0802,0.0803,0,88,88,124,1,sevenfive,,,,,,,,,,,,,,,,,,,,,,,,,,,,,,,,,,,,,,,,,,,,,,,,,,,,,,,,,,,,,,,,,,,,,,,,,,,,,,,,,,,,,,,,,,,,,,,,,,,,,,,,,,,,,,,,,,,,,,,,,,,,,,,,,,,,,,,,,
,,650c93cdf4b8742fb9882770,2024-02-22_05h17.09.626,kallum_motion_pilot,2023.2.2,Win32,60.24096386,650c93cdf4b8742fb9882770,65d6bb0e977760de756971f7,65d6bc98d6d44d58ce21bb8a,0.0805,0.0806,0,89,89,121,1,fiveseven,,,,,,,,,,,,,,,,,,,,,,,,,,,,,,,,,,,,,,,,,,,,,,,,,,,,,,,,,,,,,,,,,,,,,,,,,,,,,,,,,,,,,,,,,,,,,,,,,,,,,,,,,,,,,,,,,,,,,,,,,,,,,,,,,,,,,,,,,
,,650c93cdf4b8742fb9882770,2024-02-22_05h17.09.626,kallum_motion_pilot,2023.2.2,Win32,60.24096386,650c93cdf4b8742fb9882770,65d6bb0e977760de756971f7,65d6bc98d6d44d58ce21bb8a,0.0808,0.0809,0,90,90,18,1,twoone,,,,,,,,,,,,,,,,,,,,,,,,,,,,,,,,,,,,,,,,,,,,,,,,,,,,,,,,,,,,,,,,,,,,,,,,,,,,,,,,,,,,,,,,,,,,,,,,,,,,,,,,,,,,,,,,,,,,,,,,,,,,,,,,,,,,,,,,,
,,650c93cdf4b8742fb9882770,2024-02-22_05h17.09.626,kallum_motion_pilot,2023.2.2,Win32,60.24096386,650c93cdf4b8742fb9882770,65d6bb0e977760de756971f7,65d6bc98d6d44d58ce21bb8a,0.081,0.0811,0,91,91,139,1,sixeight,,,,,,,,,,,,,,,,,,,,,,,,,,,,,,,,,,,,,,,,,,,,,,,,,,,,,,,,,,,,,,,,,,,,,,,,,,,,,,,,,,,,,,,,,,,,,,,,,,,,,,,,,,,,,,,,,,,,,,,,,,,,,,,,,,,,,,,,,
,,650c93cdf4b8742fb9882770,2024-02-22_05h17.09.626,kallum_motion_pilot,2023.2.2,Win32,60.24096386,650c93cdf4b8742fb9882770,65d6bb0e977760de756971f7,65d6bc98d6d44d58ce21bb8a,0.0813,0.0814,0,92,92,118,1,eightsix,,,,,,,,,,,,,,,,,,,,,,,,,,,,,,,,,,,,,,,,,,,,,,,,,,,,,,,,,,,,,,,,,,,,,,,,,,,,,,,,,,,,,,,,,,,,,,,,,,,,,,,,,,,,,,,,,,,,,,,,,,,,,,,,,,,,,,,,,
,,650c93cdf4b8742fb9882770,2024-02-22_05h17.09.626,kallum_motion_pilot,2023.2.2,Win32,60.24096386,650c93cdf4b8742fb9882770,65d6bb0e977760de756971f7,65d6bc98d6d44d58ce21bb8a,0.0816,0.0817,0,93,93,93,1,seveneight,,,,,,,,,,,,,,,,,,,,,,,,,,,,,,,,,,,,,,,,,,,,,,,,,,,,,,,,,,,,,,,,,,,,,,,,,,,,,,,,,,,,,,,,,,,,,,,,,,,,,,,,,,,,,,,,,,,,,,,,,,,,,,,,,,,,,,,,,
,,650c93cdf4b8742fb9882770,2024-02-22_05h17.09.626,kallum_motion_pilot,2023.2.2,Win32,60.24096386,650c93cdf4b8742fb9882770,65d6bb0e977760de756971f7,65d6bc98d6d44d58ce21bb8a,0.0819,0.0819,0,94,94,73,1,onethree,,,,,,,,,,,,,,,,,,,,,,,,,,,,,,,,,,,,,,,,,,,,,,,,,,,,,,,,,,,,,,,,,,,,,,,,,,,,,,,,,,,,,,,,,,,,,,,,,,,,,,,,,,,,,,,,,,,,,,,,,,,,,,,,,,,,,,,,,
,,650c93cdf4b8742fb9882770,2024-02-22_05h17.09.626,kallum_motion_pilot,2023.2.2,Win32,60.24096386,650c93cdf4b8742fb9882770,65d6bb0e977760de756971f7,65d6bc98d6d44d58ce21bb8a,0.0821,0.0822,0,95,95,134,1,eightsix,,,,,,,,,,,,,,,,,,,,,,,,,,,,,,,,,,,,,,,,,,,,,,,,,,,,,,,,,,,,,,,,,,,,,,,,,,,,,,,,,,,,,,,,,,,,,,,,,,,,,,,,,,,,,,,,,,,,,,,,,,,,,,,,,,,,,,,,,
,,650c93cdf4b8742fb9882770,2024-02-22_05h17.09.626,kallum_motion_pilot,2023.2.2,Win32,60.24096386,650c93cdf4b8742fb9882770,65d6bb0e977760de756971f7,65d6bc98d6d44d58ce21bb8a,0.0823,0.0824,0,96,96,37,1,threefour,,,,,,,,,,,,,,,,,,,,,,,,,,,,,,,,,,,,,,,,,,,,,,,,,,,,,,,,,,,,,,,,,,,,,,,,,,,,,,,,,,,,,,,,,,,,,,,,,,,,,,,,,,,,,,,,,,,,,,,,,,,,,,,,,,,,,,,,,
,,650c93cdf4b8742fb9882770,2024-02-22_05h17.09.626,kallum_motion_pilot,2023.2.2,Win32,60.24096386,650c93cdf4b8742fb9882770,65d6bb0e977760de756971f7,65d6bc98d6d44d58ce21bb8a,0.0826,0.0827,0,97,97,141,1,seveneight,,,,,,,,,,,,,,,,,,,,,,,,,,,,,,,,,,,,,,,,,,,,,,,,,,,,,,,,,,,,,,,,,,,,,,,,,,,,,,,,,,,,,,,,,,,,,,,,,,,,,,,,,,,,,,,,,,,,,,,,,,,,,,,,,,,,,,,,,
,,650c93cdf4b8742fb9882770,2024-02-22_05h17.09.626,kallum_motion_pilot,2023.2.2,Win32,60.24096386,650c93cdf4b8742fb9882770,65d6bb0e977760de756971f7,65d6bc98d6d44d58ce21bb8a,0.0828,0.083,0,98,98,108,1,sevenfive,,,,,,,,,,,,,,,,,,,,,,,,,,,,,,,,,,,,,,,,,,,,,,,,,,,,,,,,,,,,,,,,,,,,,,,,,,,,,,,,,,,,,,,,,,,,,,,,,,,,,,,,,,,,,,,,,,,,,,,,,,,,,,,,,,,,,,,,,
,,650c93cdf4b8742fb9882770,2024-02-22_05h17.09.626,kallum_motion_pilot,2023.2.2,Win32,60.24096386,650c93cdf4b8742fb9882770,65d6bb0e977760de756971f7,65d6bc98d6d44d58ce21bb8a,0.083,0.0832,0,99,99,44,1,threeone,,,,,,,,,,,,,,,,,,,,,,,,,,,,,,,,,,,,,,,,,,,,,,,,,,,,,,,,,,,,,,,,,,,,,,,,,,,,,,,,,,,,,,,,,,,,,,,,,,,,,,,,,,,,,,,,,,,,,,,,,,,,,,,,,,,,,,,,,
,,650c93cdf4b8742fb9882770,2024-02-22_05h17.09.626,kallum_motion_pilot,2023.2.2,Win32,60.24096386,650c93cdf4b8742fb9882770,65d6bb0e977760de756971f7,65d6bc98d6d44d58ce21bb8a,0.0833,0.0834,0,100,100,48,1,onetwo,,,,,,,,,,,,,,,,,,,,,,,,,,,,,,,,,,,,,,,,,,,,,,,,,,,,,,,,,,,,,,,,,,,,,,,,,,,,,,,,,,,,,,,,,,,,,,,,,,,,,,,,,,,,,,,,,,,,,,,,,,,,,,,,,,,,,,,,,
,,650c93cdf4b8742fb9882770,2024-02-22_05h17.09.626,kallum_motion_pilot,2023.2.2,Win32,60.24096386,650c93cdf4b8742fb9882770,65d6bb0e977760de756971f7,65d6bc98d6d44d58ce21bb8a,0.0835,0.0836,0,101,101,111,1,eightseven,,,,,,,,,,,,,,,,,,,,,,,,,,,,,,,,,,,,,,,,,,,,,,,,,,,,,,,,,,,,,,,,,,,,,,,,,,,,,,,,,,,,,,,,,,,,,,,,,,,,,,,,,,,,,,,,,,,,,,,,,,,,,,,,,,,,,,,,,
,,650c93cdf4b8742fb9882770,2024-02-22_05h17.09.626,kallum_motion_pilot,2023.2.2,Win32,60.24096386,650c93cdf4b8742fb9882770,65d6bb0e977760de756971f7,65d6bc98d6d44d58ce21bb8a,0.0837,0.0838,0,102,102,31,1,fourthree,,,,,,,,,,,,,,,,,,,,,,,,,,,,,,,,,,,,,,,,,,,,,,,,,,,,,,,,,,,,,,,,,,,,,,,,,,,,,,,,,,,,,,,,,,,,,,,,,,,,,,,,,,,,,,,,,,,,,,,,,,,,,,,,,,,,,,,,,
,,650c93cdf4b8742fb9882770,2024-02-22_05h17.09.626,kallum_motion_pilot,2023.2.2,Win32,60.24096386,650c93cdf4b8742fb9882770,65d6bb0e977760de756971f7,65d6bc98d6d44d58ce21bb8a,0.084,0.0841,0,103,103,120,1,fivesix,,,,,,,,,,,,,,,,,,,,,,,,,,,,,,,,,,,,,,,,,,,,,,,,,,,,,,,,,,,,,,,,,,,,,,,,,,,,,,,,,,,,,,,,,,,,,,,,,,,,,,,,,,,,,,,,,,,,,,,,,,,,,,,,,,,,,,,,,
,,650c93cdf4b8742fb9882770,2024-02-22_05h17.09.626,kallum_motion_pilot,2023.2.2,Win32,60.24096386,650c93cdf4b8742fb9882770,65d6bb0e977760de756971f7,65d6bc98d6d44d58ce21bb8a,0.0841,0.0842,0,104,104,5,1,threefour,,,,,,,,,,,,,,,,,,,,,,,,,,,,,,,,,,,,,,,,,,,,,,,,,,,,,,,,,,,,,,,,,,,,,,,,,,,,,,,,,,,,,,,,,,,,,,,,,,,,,,,,,,,,,,,,,,,,,,,,,,,,,,,,,,,,,,,,,
,,650c93cdf4b8742fb9882770,2024-02-22_05h17.09.626,kallum_motion_pilot,2023.2.2,Win32,60.24096386,650c93cdf4b8742fb9882770,65d6bb0e977760de756971f7,65d6bc98d6d44d58ce21bb8a,0.0843,0.0844,0,105,105,113,1,fiveseven,,,,,,,,,,,,,,,,,,,,,,,,,,,,,,,,,,,,,,,,,,,,,,,,,,,,,,,,,,,,,,,,,,,,,,,,,,,,,,,,,,,,,,,,,,,,,,,,,,,,,,,,,,,,,,,,,,,,,,,,,,,,,,,,,,,,,,,,,
,,650c93cdf4b8742fb9882770,2024-02-22_05h17.09.626,kallum_motion_pilot,2023.2.2,Win32,60.24096386,650c93cdf4b8742fb9882770,65d6bb0e977760de756971f7,65d6bc98d6d44d58ce21bb8a,0.0846,0.0846,0,106,106,65,1,onethree,,,,,,,,,,,,,,,,,,,,,,,,,,,,,,,,,,,,,,,,,,,,,,,,,,,,,,,,,,,,,,,,,,,,,,,,,,,,,,,,,,,,,,,,,,,,,,,,,,,,,,,,,,,,,,,,,,,,,,,,,,,,,,,,,,,,,,,,,
,,650c93cdf4b8742fb9882770,2024-02-22_05h17.09.626,kallum_motion_pilot,2023.2.2,Win32,60.24096386,650c93cdf4b8742fb9882770,65d6bb0e977760de756971f7,65d6bc98d6d44d58ce21bb8a,0.0848,0.0848,0,107,107,145,1,fiveseven,,,,,,,,,,,,,,,,,,,,,,,,,,,,,,,,,,,,,,,,,,,,,,,,,,,,,,,,,,,,,,,,,,,,,,,,,,,,,,,,,,,,,,,,,,,,,,,,,,,,,,,,,,,,,,,,,,,,,,,,,,,,,,,,,,,,,,,,,
,,650c93cdf4b8742fb9882770,2024-02-22_05h17.09.626,kallum_motion_pilot,2023.2.2,Win32,60.24096386,650c93cdf4b8742fb9882770,65d6bb0e977760de756971f7,65d6bc98d6d44d58ce21bb8a,0.085,0.0851,0,108,108,29,1,threefour,,,,,,,,,,,,,,,,,,,,,,,,,,,,,,,,,,,,,,,,,,,,,,,,,,,,,,,,,,,,,,,,,,,,,,,,,,,,,,,,,,,,,,,,,,,,,,,,,,,,,,,,,,,,,,,,,,,,,,,,,,,,,,,,,,,,,,,,,
,,650c93cdf4b8742fb9882770,2024-02-22_05h17.09.626,kallum_motion_pilot,2023.2.2,Win32,60.24096386,650c93cdf4b8742fb9882770,65d6bb0e977760de756971f7,65d6bc98d6d44d58ce21bb8a,0.0852,0.0853,0,109,109,32,1,onetwo,,,,,,,,,,,,,,,,,,,,,,,,,,,,,,,,,,,,,,,,,,,,,,,,,,,,,,,,,,,,,,,,,,,,,,,,,,,,,,,,,,,,,,,,,,,,,,,,,,,,,,,,,,,,,,,,,,,,,,,,,,,,,,,,,,,,,,,,,
,,650c93cdf4b8742fb9882770,2024-02-22_05h17.09.626,kallum_motion_pilot,2023.2.2,Win32,60.24096386,650c93cdf4b8742fb9882770,65d6bb0e977760de756971f7,65d6bc98d6d44d58ce21bb8a,0.0854,0.0855,0,110,110,95,1,eightseven,,,,,,,,,,,,,,,,,,,,,,,,,,,,,,,,,,,,,,,,,,,,,,,,,,,,,,,,,,,,,,,,,,,,,,,,,,,,,,,,,,,,,,,,,,,,,,,,,,,,,,,,,,,,,,,,,,,,,,,,,,,,,,,,,,,,,,,,,
,,650c93cdf4b8742fb9882770,2024-02-22_05h17.09.626,kallum_motion_pilot,2023.2.2,Win32,60.24096386,650c93cdf4b8742fb9882770,65d6bb0e977760de756971f7,65d6bc98d6d44d58ce21bb8a,0.0856,0.0862,0,111,111,43,1,twofour,,,,,,,,,,,,,,,,,,,,,,,,,,,,,,,,,,,,,,,,,,,,,,,,,,,,,,,,,,,,,,,,,,,,,,,,,,,,,,,,,,,,,,,,,,,,,,,,,,,,,,,,,,,,,,,,,,,,,,,,,,,,,,,,,,,,,,,,,
,,650c93cdf4b8742fb9882770,2024-02-22_05h17.09.626,kallum_motion_pilot,2023.2.2,Win32,60.24096386,650c93cdf4b8742fb9882770,65d6bb0e977760de756971f7,65d6bc98d6d44d58ce21bb8a,0.0875,0.0877,0,112,112,7,1,fourthree,,,,,,,,,,,,,,,,,,,,,,,,,,,,,,,,,,,,,,,,,,,,,,,,,,,,,,,,,,,,,,,,,,,,,,,,,,,,,,,,,,,,,,,,,,,,,,,,,,,,,,,,,,,,,,,,,,,,,,,,,,,,,,,,,,,,,,,,,
,,650c93cdf4b8742fb9882770,2024-02-22_05h17.09.626,kallum_motion_pilot,2023.2.2,Win32,60.24096386,650c93cdf4b8742fb9882770,65d6bb0e977760de756971f7,65d6bc98d6d44d58ce21bb8a,0.0879,0.0881,0,113,113,0,1,onetwo,,,,,,,,,,,,,,,,,,,,,,,,,,,,,,,,,,,,,,,,,,,,,,,,,,,,,,,,,,,,,,,,,,,,,,,,,,,,,,,,,,,,,,,,,,,,,,,,,,,,,,,,,,,,,,,,,,,,,,,,,,,,,,,,,,,,,,,,,
,,650c93cdf4b8742fb9882770,2024-02-22_05h17.09.626,kallum_motion_pilot,2023.2.2,Win32,60.24096386,650c93cdf4b8742fb9882770,65d6bb0e977760de756971f7,65d6bc98d6d44d58ce21bb8a,0.0883,0.0885,0,114,114,148,1,sevenfive,,,,,,,,,,,,,,,,,,,,,,,,,,,,,,,,,,,,,,,,,,,,,,,,,,,,,,,,,,,,,,,,,,,,,,,,,,,,,,,,,,,,,,,,,,,,,,,,,,,,,,,,,,,,,,,,,,,,,,,,,,,,,,,,,,,,,,,,,
,,650c93cdf4b8742fb9882770,2024-02-22_05h17.09.626,kallum_motion_pilot,2023.2.2,Win32,60.24096386,650c93cdf4b8742fb9882770,65d6bb0e977760de756971f7,65d6bc98d6d44d58ce21bb8a,0.0886,0.0887,0,115,115,77,1,threefour,,,,,,,,,,,,,,,,,,,,,,,,,,,,,,,,,,,,,,,,,,,,,,,,,,,,,,,,,,,,,,,,,,,,,,,,,,,,,,,,,,,,,,,,,,,,,,,,,,,,,,,,,,,,,,,,,,,,,,,,,,,,,,,,,,,,,,,,,
,,650c93cdf4b8742fb9882770,2024-02-22_05h17.09.626,kallum_motion_pilot,2023.2.2,Win32,60.24096386,650c93cdf4b8742fb9882770,65d6bb0e977760de756971f7,65d6bc98d6d44d58ce21bb8a,0.0889,0.089,0,116,116,156,1,sevenfive,,,,,,,,,,,,,,,,,,,,,,,,,,,,,,,,,,,,,,,,,,,,,,,,,,,,,,,,,,,,,,,,,,,,,,,,,,,,,,,,,,,,,,,,,,,,,,,,,,,,,,,,,,,,,,,,,,,,,,,,,,,,,,,,,,,,,,,,,
,,650c93cdf4b8742fb9882770,2024-02-22_05h17.09.626,kallum_motion_pilot,2023.2.2,Win32,60.24096386,650c93cdf4b8742fb9882770,65d6bb0e977760de756971f7,65d6bc98d6d44d58ce21bb8a,0.0892,0.0893,0,117,117,2,1,twoone,,,,,,,,,,,,,,,,,,,,,,,,,,,,,,,,,,,,,,,,,,,,,,,,,,,,,,,,,,,,,,,,,,,,,,,,,,,,,,,,,,,,,,,,,,,,,,,,,,,,,,,,,,,,,,,,,,,,,,,,,,,,,,,,,,,,,,,,,
,,650c93cdf4b8742fb9882770,2024-02-22_05h17.09.626,kallum_motion_pilot,2023.2.2,Win32,60.24096386,650c93cdf4b8742fb9882770,65d6bb0e977760de756971f7,65d6bc98d6d44d58ce21bb8a,0.0895,0.0896,0,118,118,79,1,eightseven,,,,,,,,,,,,,,,,,,,,,,,,,,,,,,,,,,,,,,,,,,,,,,,,,,,,,,,,,,,,,,,,,,,,,,,,,,,,,,,,,,,,,,,,,,,,,,,,,,,,,,,,,,,,,,,,,,,,,,,,,,,,,,,,,,,,,,,,,
,,650c93cdf4b8742fb9882770,2024-02-22_05h17.09.626,kallum_motion_pilot,2023.2.2,Win32,60.24096386,650c93cdf4b8742fb9882770,65d6bb0e977760de756971f7,65d6bc98d6d44d58ce21bb8a,0.0898,0.0899,0,119,119,150,1,eightsix,,,,,,,,,,,,,,,,,,,,,,,,,,,,,,,,,,,,,,,,,,,,,,,,,,,,,,,,,,,,,,,,,,,,,,,,,,,,,,,,,,,,,,,,,,,,,,,,,,,,,,,,,,,,,,,,,,,,,,,,,,,,,,,,,,,,,,,,,
,,650c93cdf4b8742fb9882770,2024-02-22_05h17.09.626,kallum_motion_pilot,2023.2.2,Win32,60.24096386,650c93cdf4b8742fb9882770,65d6bb0e977760de756971f7,65d6bc98d6d44d58ce21bb8a,0.09,0.0902,0,120,120,142,1,eightsix,,,,,,,,,,,,,,,,,,,,,,,,,,,,,,,,,,,,,,,,,,,,,,,,,,,,,,,,,,,,,,,,,,,,,,,,,,,,,,,,,,,,,,,,,,,,,,,,,,,,,,,,,,,,,,,,,,,,,,,,,,,,,,,,,,,,,,,,,
,,650c93cdf4b8742fb9882770,2024-02-22_05h17.09.626,kallum_motion_pilot,2023.2.2,Win32,60.24096386,650c93cdf4b8742fb9882770,65d6bb0e977760de756971f7,65d6bc98d6d44d58ce21bb8a,0.0904,0.0905,0,121,121,74,1,twoone,,,,,,,,,,,,,,,,,,,,,,,,,,,,,,,,,,,,,,,,,,,,,,,,,,,,,,,,,,,,,,,,,,,,,,,,,,,,,,,,,,,,,,,,,,,,,,,,,,,,,,,,,,,,,,,,,,,,,,,,,,,,,,,,,,,,,,,,,
,,650c93cdf4b8742fb9882770,2024-02-22_05h17.09.626,kallum_motion_pilot,2023.2.2,Win32,60.24096386,650c93cdf4b8742fb9882770,65d6bb0e977760de756971f7,65d6bc98d6d44d58ce21bb8a,0.0907,0.0908,0,122,122,60,1,threeone,,,,,,,,,,,,,,,,,,,,,,,,,,,,,,,,,,,,,,,,,,,,,,,,,,,,,,,,,,,,,,,,,,,,,,,,,,,,,,,,,,,,,,,,,,,,,,,,,,,,,,,,,,,,,,,,,,,,,,,,,,,,,,,,,,,,,,,,,
,,650c93cdf4b8742fb9882770,2024-02-22_05h17.09.626,kallum_motion_pilot,2023.2.2,Win32,60.24096386,650c93cdf4b8742fb9882770,65d6bb0e977760de756971f7,65d6bc98d6d44d58ce21bb8a,0.091,0.0911,0,123,123,78,1,fourtwo,,,,,,,,,,,,,,,,,,,,,,,,,,,,,,,,,,,,,,,,,,,,,,,,,,,,,,,,,,,,,,,,,,,,,,,,,,,,,,,,,,,,,,,,,,,,,,,,,,,,,,,,,,,,,,,,,,,,,,,,,,,,,,,,,,,,,,,,,
,,650c93cdf4b8742fb9882770,2024-02-22_05h17.09.626,kallum_motion_pilot,2023.2.2,Win32,60.24096386,650c93cdf4b8742fb9882770,65d6bb0e977760de756971f7,65d6bc98d6d44d58ce21bb8a,0.0913,0.0914,0,124,124,72,1,onetwo,,,,,,,,,,,,,,,,,,,,,,,,,,,,,,,,,,,,,,,,,,,,,,,,,,,,,,,,,,,,,,,,,,,,,,,,,,,,,,,,,,,,,,,,,,,,,,,,,,,,,,,,,,,,,,,,,,,,,,,,,,,,,,,,,,,,,,,,,
,,650c93cdf4b8742fb9882770,2024-02-22_05h17.09.626,kallum_motion_pilot,2023.2.2,Win32,60.24096386,650c93cdf4b8742fb9882770,65d6bb0e977760de756971f7,65d6bc98d6d44d58ce21bb8a,0.0916,0.0918,0,125,125,14,1,fourtwo,,,,,,,,,,,,,,,,,,,,,,,,,,,,,,,,,,,,,,,,,,,,,,,,,,,,,,,,,,,,,,,,,,,,,,,,,,,,,,,,,,,,,,,,,,,,,,,,,,,,,,,,,,,,,,,,,,,,,,,,,,,,,,,,,,,,,,,,,
,,650c93cdf4b8742fb9882770,2024-02-22_05h17.09.626,kallum_motion_pilot,2023.2.2,Win32,60.24096386,650c93cdf4b8742fb9882770,65d6bb0e977760de756971f7,65d6bc98d6d44d58ce21bb8a,0.092,0.0921,0,126,126,128,1,fivesix,,,,,,,,,,,,,,,,,,,,,,,,,,,,,,,,,,,,,,,,,,,,,,,,,,,,,,,,,,,,,,,,,,,,,,,,,,,,,,,,,,,,,,,,,,,,,,,,,,,,,,,,,,,,,,,,,,,,,,,,,,,,,,,,,,,,,,,,,
,,650c93cdf4b8742fb9882770,2024-02-22_05h17.09.626,kallum_motion_pilot,2023.2.2,Win32,60.24096386,650c93cdf4b8742fb9882770,65d6bb0e977760de756971f7,65d6bc98d6d44d58ce21bb8a,0.0933,0.0934,0,127,127,151,1,eightseven,,,,,,,,,,,,,,,,,,,,,,,,,,,,,,,,,,,,,,,,,,,,,,,,,,,,,,,,,,,,,,,,,,,,,,,,,,,,,,,,,,,,,,,,,,,,,,,,,,,,,,,,,,,,,,,,,,,,,,,,,,,,,,,,,,,,,,,,,
,,650c93cdf4b8742fb9882770,2024-02-22_05h17.09.626,kallum_motion_pilot,2023.2.2,Win32,60.24096386,650c93cdf4b8742fb9882770,65d6bb0e977760de756971f7,65d6bc98d6d44d58ce21bb8a,0.0936,0.0938,0,128,128,69,1,threefour,,,,,,,,,,,,,,,,,,,,,,,,,,,,,,,,,,,,,,,,,,,,,,,,,,,,,,,,,,,,,,,,,,,,,,,,,,,,,,,,,,,,,,,,,,,,,,,,,,,,,,,,,,,,,,,,,,,,,,,,,,,,,,,,,,,,,,,,,
,,650c93cdf4b8742fb9882770,2024-02-22_05h17.09.626,kallum_motion_pilot,2023.2.2,Win32,60.24096386,650c93cdf4b8742fb9882770,65d6bb0e977760de756971f7,65d6bc98d6d44d58ce21bb8a,0.094,0.0941,0,129,129,61,1,threefour,,,,,,,,,,,,,,,,,,,,,,,,,,,,,,,,,,,,,,,,,,,,,,,,,,,,,,,,,,,,,,,,,,,,,,,,,,,,,,,,,,,,,,,,,,,,,,,,,,,,,,,,,,,,,,,,,,,,,,,,,,,,,,,,,,,,,,,,,
,,650c93cdf4b8742fb9882770,2024-02-22_05h17.09.626,kallum_motion_pilot,2023.2.2,Win32,60.24096386,650c93cdf4b8742fb9882770,65d6bb0e977760de756971f7,65d6bc98d6d44d58ce21bb8a,0.0943,0.0944,0,130,130,107,1,sixeight,,,,,,,,,,,,,,,,,,,,,,,,,,,,,,,,,,,,,,,,,,,,,,,,,,,,,,,,,,,,,,,,,,,,,,,,,,,,,,,,,,,,,,,,,,,,,,,,,,,,,,,,,,,,,,,,,,,,,,,,,,,,,,,,,,,,,,,,,
,,650c93cdf4b8742fb9882770,2024-02-22_05h17.09.626,kallum_motion_pilot,2023.2.2,Win32,60.24096386,650c93cdf4b8742fb9882770,65d6bb0e977760de756971f7,65d6bc98d6d44d58ce21bb8a,0.0945,0.0946,0,131,131,119,1,eightseven,,,,,,,,,,,,,,,,,,,,,,,,,,,,,,,,,,,,,,,,,,,,,,,,,,,,,,,,,,,,,,,,,,,,,,,,,,,,,,,,,,,,,,,,,,,,,,,,,,,,,,,,,,,,,,,,,,,,,,,,,,,,,,,,,,,,,,,,,
,,650c93cdf4b8742fb9882770,2024-02-22_05h17.09.626,kallum_motion_pilot,2023.2.2,Win32,60.24096386,650c93cdf4b8742fb9882770,65d6bb0e977760de756971f7,65d6bc98d6d44d58ce21bb8a,0.0948,0.095,0,132,132,20,1,threeone,,,,,,,,,,,,,,,,,,,,,,,,,,,,,,,,,,,,,,,,,,,,,,,,,,,,,,,,,,,,,,,,,,,,,,,,,,,,,,,,,,,,,,,,,,,,,,,,,,,,,,,,,,,,,,,,,,,,,,,,,,,,,,,,,,,,,,,,,
,,650c93cdf4b8742fb9882770,2024-02-22_05h17.09.626,kallum_motion_pilot,2023.2.2,Win32,60.24096386,650c93cdf4b8742fb9882770,65d6bb0e977760de756971f7,65d6bc98d6d44d58ce21bb8a,0.0951,0.0953,0,133,133,83,1,sixeight,,,,,,,,,,,,,,,,,,,,,,,,,,,,,,,,,,,,,,,,,,,,,,,,,,,,,,,,,,,,,,,,,,,,,,,,,,,,,,,,,,,,,,,,,,,,,,,,,,,,,,,,,,,,,,,,,,,,,,,,,,,,,,,,,,,,,,,,,
,,650c93cdf4b8742fb9882770,2024-02-22_05h17.09.626,kallum_motion_pilot,2023.2.2,Win32,60.24096386,650c93cdf4b8742fb9882770,65d6bb0e977760de756971f7,65d6bc98d6d44d58ce21bb8a,0.0955,0.0956,0,134,134,39,1,fourthree,,,,,,,,,,,,,,,,,,,,,,,,,,,,,,,,,,,,,,,,,,,,,,,,,,,,,,,,,,,,,,,,,,,,,,,,,,,,,,,,,,,,,,,,,,,,,,,,,,,,,,,,,,,,,,,,,,,,,,,,,,,,,,,,,,,,,,,,,
,,650c93cdf4b8742fb9882770,2024-02-22_05h17.09.626,kallum_motion_pilot,2023.2.2,Win32,60.24096386,650c93cdf4b8742fb9882770,65d6bb0e977760de756971f7,65d6bc98d6d44d58ce21bb8a,0.0958,0.0959,0,135,135,146,1,sixfive,,,,,,,,,,,,,,,,,,,,,,,,,,,,,,,,,,,,,,,,,,,,,,,,,,,,,,,,,,,,,,,,,,,,,,,,,,,,,,,,,,,,,,,,,,,,,,,,,,,,,,,,,,,,,,,,,,,,,,,,,,,,,,,,,,,,,,,,,
,,650c93cdf4b8742fb9882770,2024-02-22_05h17.09.626,kallum_motion_pilot,2023.2.2,Win32,60.24096386,650c93cdf4b8742fb9882770,65d6bb0e977760de756971f7,65d6bc98d6d44d58ce21bb8a,0.0961,0.0962,0,136,136,57,1,onethree,,,,,,,,,,,,,,,,,,,,,,,,,,,,,,,,,,,,,,,,,,,,,,,,,,,,,,,,,,,,,,,,,,,,,,,,,,,,,,,,,,,,,,,,,,,,,,,,,,,,,,,,,,,,,,,,,,,,,,,,,,,,,,,,,,,,,,,,,
,,650c93cdf4b8742fb9882770,2024-02-22_05h17.09.626,kallum_motion_pilot,2023.2.2,Win32,60.24096386,650c93cdf4b8742fb9882770,65d6bb0e977760de756971f7,65d6bc98d6d44d58ce21bb8a,0.0964,0.0965,0,137,137,87,1,eightseven,,,,,,,,,,,,,,,,,,,,,,,,,,,,,,,,,,,,,,,,,,,,,,,,,,,,,,,,,,,,,,,,,,,,,,,,,,,,,,,,,,,,,,,,,,,,,,,,,,,,,,,,,,,,,,,,,,,,,,,,,,,,,,,,,,,,,,,,,
,,650c93cdf4b8742fb9882770,2024-02-22_05h17.09.626,kallum_motion_pilot,2023.2.2,Win32,60.24096386,650c93cdf4b8742fb9882770,65d6bb0e977760de756971f7,65d6bc98d6d44d58ce21bb8a,0.0966,0.0968,0,138,138,42,1,twoone,,,,,,,,,,,,,,,,,,,,,,,,,,,,,,,,,,,,,,,,,,,,,,,,,,,,,,,,,,,,,,,,,,,,,,,,,,,,,,,,,,,,,,,,,,,,,,,,,,,,,,,,,,,,,,,,,,,,,,,,,,,,,,,,,,,,,,,,,
,,650c93cdf4b8742fb9882770,2024-02-22_05h17.09.626,kallum_motion_pilot,2023.2.2,Win32,60.24096386,650c93cdf4b8742fb9882770,65d6bb0e977760de756971f7,65d6bc98d6d44d58ce21bb8a,0.0971,0.0971,0,139,139,160,1,fivesix,,,,,,,,,,,,,,,,,,,,,,,,,,,,,,,,,,,,,,,,,,,,,,,,,,,,,,,,,,,,,,,,,,,,,,,,,,,,,,,,,,,,,,,,,,,,,,,,,,,,,,,,,,,,,,,,,,,,,,,,,,,,,,,,,,,,,,,,,
,,650c93cdf4b8742fb9882770,2024-02-22_05h17.09.626,kallum_motion_pilot,2023.2.2,Win32,60.24096386,650c93cdf4b8742fb9882770,65d6bb0e977760de756971f7,65d6bc98d6d44d58ce21bb8a,0.0974,0.0975,0,140,140,21,1,threefour,,,,,,,,,,,,,,,,,,,,,,,,,,,,,,,,,,,,,,,,,,,,,,,,,,,,,,,,,,,,,,,,,,,,,,,,,,,,,,,,,,,,,,,,,,,,,,,,,,,,,,,,,,,,,,,,,,,,,,,,,,,,,,,,,,,,,,,,,
,,650c93cdf4b8742fb9882770,2024-02-22_05h17.09.626,kallum_motion_pilot,2023.2.2,Win32,60.24096386,650c93cdf4b8742fb9882770,65d6bb0e977760de756971f7,65d6bc98d6d44d58ce21bb8a,0.0978,0.0978,0,141,141,46,1,fourtwo,,,,,,,,,,,,,,,,,,,,,,,,,,,,,,,,,,,,,,,,,,,,,,,,,,,,,,,,,,,,,,,,,,,,,,,,,,,,,,,,,,,,,,,,,,,,,,,,,,,,,,,,,,,,,,,,,,,,,,,,,,,,,,,,,,,,,,,,,
,,650c93cdf4b8742fb9882770,2024-02-22_05h17.09.626,kallum_motion_pilot,2023.2.2,Win32,60.24096386,650c93cdf4b8742fb9882770,65d6bb0e977760de756971f7,65d6bc98d6d44d58ce21bb8a,0.098,0.098,0,142,142,99,1,sixeight,,,,,,,,,,,,,,,,,,,,,,,,,,,,,,,,,,,,,,,,,,,,,,,,,,,,,,,,,,,,,,,,,,,,,,,,,,,,,,,,,,,,,,,,,,,,,,,,,,,,,,,,,,,,,,,,,,,,,,,,,,,,,,,,,,,,,,,,,
,,650c93cdf4b8742fb9882770,2024-02-22_05h17.09.626,kallum_motion_pilot,2023.2.2,Win32,60.24096386,650c93cdf4b8742fb9882770,65d6bb0e977760de756971f7,65d6bc98d6d44d58ce21bb8a,0.0984,0.0987,0,143,143,10,1,twoone,,,,,,,,,,,,,,,,,,,,,,,,,,,,,,,,,,,,,,,,,,,,,,,,,,,,,,,,,,,,,,,,,,,,,,,,,,,,,,,,,,,,,,,,,,,,,,,,,,,,,,,,,,,,,,,,,,,,,,,,,,,,,,,,,,,,,,,,,
,,650c93cdf4b8742fb9882770,2024-02-22_05h17.09.626,kallum_motion_pilot,2023.2.2,Win32,60.24096386,650c93cdf4b8742fb9882770,65d6bb0e977760de756971f7,65d6bc98d6d44d58ce21bb8a,0.0991,0.0994,0,144,144,16,1,onetwo,,,,,,,,,,,,,,,,,,,,,,,,,,,,,,,,,,,,,,,,,,,,,,,,,,,,,,,,,,,,,,,,,,,,,,,,,,,,,,,,,,,,,,,,,,,,,,,,,,,,,,,,,,,,,,,,,,,,,,,,,,,,,,,,,,,,,,,,,
,,650c93cdf4b8742fb9882770,2024-02-22_05h17.09.626,kallum_motion_pilot,2023.2.2,Win32,60.24096386,650c93cdf4b8742fb9882770,65d6bb0e977760de756971f7,65d6bc98d6d44d58ce21bb8a,0.0996,0.0999,0,145,145,9,1,onethree,,,,,,,,,,,,,,,,,,,,,,,,,,,,,,,,,,,,,,,,,,,,,,,,,,,,,,,,,,,,,,,,,,,,,,,,,,,,,,,,,,,,,,,,,,,,,,,,,,,,,,,,,,,,,,,,,,,,,,,,,,,,,,,,,,,,,,,,,
,,650c93cdf4b8742fb9882770,2024-02-22_05h17.09.626,kallum_motion_pilot,2023.2.2,Win32,60.24096386,650c93cdf4b8742fb9882770,65d6bb0e977760de756971f7,65d6bc98d6d44d58ce21bb8a,0.1001,0.1001,0,146,146,28,1,threeone,,,,,,,,,,,,,,,,,,,,,,,,,,,,,,,,,,,,,,,,,,,,,,,,,,,,,,,,,,,,,,,,,,,,,,,,,,,,,,,,,,,,,,,,,,,,,,,,,,,,,,,,,,,,,,,,,,,,,,,,,,,,,,,,,,,,,,,,,
,,650c93cdf4b8742fb9882770,2024-02-22_05h17.09.626,kallum_motion_pilot,2023.2.2,Win32,60.24096386,650c93cdf4b8742fb9882770,65d6bb0e977760de756971f7,65d6bc98d6d44d58ce21bb8a,0.1004,0.1005,0,147,147,75,1,twofour,,,,,,,,,,,,,,,,,,,,,,,,,,,,,,,,,,,,,,,,,,,,,,,,,,,,,,,,,,,,,,,,,,,,,,,,,,,,,,,,,,,,,,,,,,,,,,,,,,,,,,,,,,,,,,,,,,,,,,,,,,,,,,,,,,,,,,,,,
,,650c93cdf4b8742fb9882770,2024-02-22_05h17.09.626,kallum_motion_pilot,2023.2.2,Win32,60.24096386,650c93cdf4b8742fb9882770,65d6bb0e977760de756971f7,65d6bc98d6d44d58ce21bb8a,0.1007,0.1008,0,148,148,25,1,onethree,,,,,,,,,,,,,,,,,,,,,,,,,,,,,,,,,,,,,,,,,,,,,,,,,,,,,,,,,,,,,,,,,,,,,,,,,,,,,,,,,,,,,,,,,,,,,,,,,,,,,,,,,,,,,,,,,,,,,,,,,,,,,,,,,,,,,,,,,
,,650c93cdf4b8742fb9882770,2024-02-22_05h17.09.626,kallum_motion_pilot,2023.2.2,Win32,60.24096386,650c93cdf4b8742fb9882770,65d6bb0e977760de756971f7,65d6bc98d6d44d58ce21bb8a,0.1009,0.101,0,149,149,103,1,eightseven,,,,,,,,,,,,,,,,,,,,,,,,,,,,,,,,,,,,,,,,,,,,,,,,,,,,,,,,,,,,,,,,,,,,,,,,,,,,,,,,,,,,,,,,,,,,,,,,,,,,,,,,,,,,,,,,,,,,,,,,,,,,,,,,,,,,,,,,,
,,650c93cdf4b8742fb9882770,2024-02-22_05h17.09.626,kallum_motion_pilot,2023.2.2,Win32,60.24096386,650c93cdf4b8742fb9882770,65d6bb0e977760de756971f7,65d6bc98d6d44d58ce21bb8a,0.1012,0.1012,0,150,150,52,1,threeone,,,,,,,,,,,,,,,,,,,,,,,,,,,,,,,,,,,,,,,,,,,,,,,,,,,,,,,,,,,,,,,,,,,,,,,,,,,,,,,,,,,,,,,,,,,,,,,,,,,,,,,,,,,,,,,,,,,,,,,,,,,,,,,,,,,,,,,,,
,,650c93cdf4b8742fb9882770,2024-02-22_05h17.09.626,kallum_motion_pilot,2023.2.2,Win32,60.24096386,650c93cdf4b8742fb9882770,65d6bb0e977760de756971f7,65d6bc98d6d44d58ce21bb8a,0.1015,0.1017,0,151,151,12,1,threeone,,,,,,,,,,,,,,,,,,,,,,,,,,,,,,,,,,,,,,,,,,,,,,,,,,,,,,,,,,,,,,,,,,,,,,,,,,,,,,,,,,,,,,,,,,,,,,,,,,,,,,,,,,,,,,,,,,,,,,,,,,,,,,,,,,,,,,,,,
,,650c93cdf4b8742fb9882770,2024-02-22_05h17.09.626,kallum_motion_pilot,2023.2.2,Win32,60.24096386,650c93cdf4b8742fb9882770,65d6bb0e977760de756971f7,65d6bc98d6d44d58ce21bb8a,0.1018,0.102,0,152,152,68,1,threeone,,,,,,,,,,,,,,,,,,,,,,,,,,,,,,,,,,,,,,,,,,,,,,,,,,,,,,,,,,,,,,,,,,,,,,,,,,,,,,,,,,,,,,,,,,,,,,,,,,,,,,,,,,,,,,,,,,,,,,,,,,,,,,,,,,,,,,,,,
,,650c93cdf4b8742fb9882770,2024-02-22_05h17.09.626,kallum_motion_pilot,2023.2.2,Win32,60.24096386,650c93cdf4b8742fb9882770,65d6bb0e977760de756971f7,65d6bc98d6d44d58ce21bb8a,0.1021,0.1022,0,153,153,89,1,fiveseven,,,,,,,,,,,,,,,,,,,,,,,,,,,,,,,,,,,,,,,,,,,,,,,,,,,,,,,,,,,,,,,,,,,,,,,,,,,,,,,,,,,,,,,,,,,,,,,,,,,,,,,,,,,,,,,,,,,,,,,,,,,,,,,,,,,,,,,,,
,,650c93cdf4b8742fb9882770,2024-02-22_05h17.09.626,kallum_motion_pilot,2023.2.2,Win32,60.24096386,650c93cdf4b8742fb9882770,65d6bb0e977760de756971f7,65d6bc98d6d44d58ce21bb8a,0.1027,0.103,0,154,154,109,1,seveneight,,,,,,,,,,,,,,,,,,,,,,,,,,,,,,,,,,,,,,,,,,,,,,,,,,,,,,,,,,,,,,,,,,,,,,,,,,,,,,,,,,,,,,,,,,,,,,,,,,,,,,,,,,,,,,,,,,,,,,,,,,,,,,,,,,,,,,,,,
,,650c93cdf4b8742fb9882770,2024-02-22_05h17.09.626,kallum_motion_pilot,2023.2.2,Win32,60.24096386,650c93cdf4b8742fb9882770,65d6bb0e977760de756971f7,65d6bc98d6d44d58ce21bb8a,0.1034,0.1037,0,155,155,97,1,fiveseven,,,,,,,,,,,,,,,,,,,,,,,,,,,,,,,,,,,,,,,,,,,,,,,,,,,,,,,,,,,,,,,,,,,,,,,,,,,,,,,,,,,,,,,,,,,,,,,,,,,,,,,,,,,,,,,,,,,,,,,,,,,,,,,,,,,,,,,,,
,,650c93cdf4b8742fb9882770,2024-02-22_05h17.09.626,kallum_motion_pilot,2023.2.2,Win32,60.24096386,650c93cdf4b8742fb9882770,65d6bb0e977760de756971f7,65d6bc98d6d44d58ce21bb8a,0.1042,0.1043,0,156,156,58,1,twoone,,,,,,,,,,,,,,,,,,,,,,,,,,,,,,,,,,,,,,,,,,,,,,,,,,,,,,,,,,,,,,,,,,,,,,,,,,,,,,,,,,,,,,,,,,,,,,,,,,,,,,,,,,,,,,,,,,,,,,,,,,,,,,,,,,,,,,,,,
,,650c93cdf4b8742fb9882770,2024-02-22_05h17.09.626,kallum_motion_pilot,2023.2.2,Win32,60.24096386,650c93cdf4b8742fb9882770,65d6bb0e977760de756971f7,65d6bc98d6d44d58ce21bb8a,0.1047,0.1049,0,157,157,133,1,seveneight,,,,,,,,,,,,,,,,,,,,,,,,,,,,,,,,,,,,,,,,,,,,,,,,,,,,,,,,,,,,,,,,,,,,,,,,,,,,,,,,,,,,,,,,,,,,,,,,,,,,,,,,,,,,,,,,,,,,,,,,,,,,,,,,,,,,,,,,,
,,650c93cdf4b8742fb9882770,2024-02-22_05h17.09.626,kallum_motion_pilot,2023.2.2,Win32,60.24096386,650c93cdf4b8742fb9882770,65d6bb0e977760de756971f7,65d6bc98d6d44d58ce21bb8a,0.1051,0.1052,0,158,158,56,1,onetwo,,,,,,,,,,,,,,,,,,,,,,,,,,,,,,,,,,,,,,,,,,,,,,,,,,,,,,,,,,,,,,,,,,,,,,,,,,,,,,,,,,,,,,,,,,,,,,,,,,,,,,,,,,,,,,,,,,,,,,,,,,,,,,,,,,,,,,,,,
,,650c93cdf4b8742fb9882770,2024-02-22_05h17.09.626,kallum_motion_pilot,2023.2.2,Win32,60.24096386,650c93cdf4b8742fb9882770,65d6bb0e977760de756971f7,65d6bc98d6d44d58ce21bb8a,0.1054,0.1056,0,159,159,3,1,twofour,,,,,,,,,,,,,,,,,,,,,,,,,,,,,,,,,,,,,,,,,,,,,,,,,,,,,,,,,,,,,,,,,,,,,,,,,,,,,,,,,,,,,,,,,,,,,,,,,,,,,,,,,,,,,,,,,,,,,,,,,,,,,,,,,,,,,,,,,
,,650c93cdf4b8742fb9882770,2024-02-22_05h17.09.626,kallum_motion_pilot,2023.2.2,Win32,60.24096386,650c93cdf4b8742fb9882770,65d6bb0e977760de756971f7,65d6bc98d6d44d58ce21bb8a,0.1057,0.1058,0,160,160,116,1,sevenfive,,,,,,,,,,,,,,,,,,,,,,,,,,,,,,,,,,,,,,,,,,,,,,,,,,,,,,,,,,,,,,,,,,,,,,,,,,,,,,,,,,,,,,,,,,,,,,,,,,,,,,,,,,,,,,,,,,,,,,,,,,,,,,,,,,,,,,,,,
,,650c93cdf4b8742fb9882770,2024-02-22_05h17.09.626,kallum_motion_pilot,2023.2.2,Win32,60.24096386,650c93cdf4b8742fb9882770,65d6bb0e977760de756971f7,65d6bc98d6d44d58ce21bb8a,0.106,0.1061,0,161,161,81,1,fiveseven,,,,,,,,,,,,,,,,,,,,,,,,,,,,,,,,,,,,,,,,,,,,,,,,,,,,,,,,,,,,,,,,,,,,,,,,,,,,,,,,,,,,,,,,,,,,,,,,,,,,,,,,,,,,,,,,,,,,,,,,,,,,,,,,,,,,,,,,,
,,650c93cdf4b8742fb9882770,2024-02-22_05h17.09.626,kallum_motion_pilot,2023.2.2,Win32,60.24096386,650c93cdf4b8742fb9882770,65d6bb0e977760de756971f7,65d6bc98d6d44d58ce21bb8a,0.1063,0.1065,1,0,162,24,1,onetwo,,,,,,,,,,,,,,,,,,,,,,,,,,,,,,,,,,,,,,,,,,,,,,,,,,,,,,,,,,,,,,,,,,,,,,,,,,,,,,,,,,,,,,,,,,,,,,,,,,,,,,,,,,,,,,,,,,,,,,,,,,,,,,,,,,,,,,,,,
,,650c93cdf4b8742fb9882770,2024-02-22_05h17.09.626,kallum_motion_pilot,2023.2.2,Win32,60.24096386,650c93cdf4b8742fb9882770,65d6bb0e977760de756971f7,65d6bc98d6d44d58ce21bb8a,0.1066,0.1067,1,1,163,69,1,threefour,,,,,,,,,,,,,,,,,,,,,,,,,,,,,,,,,,,,,,,,,,,,,,,,,,,,,,,,,,,,,,,,,,,,,,,,,,,,,,,,,,,,,,,,,,,,,,,,,,,,,,,,,,,,,,,,,,,,,,,,,,,,,,,,,,,,,,,,,
,,650c93cdf4b8742fb9882770,2024-02-22_05h17.09.626,kallum_motion_pilot,2023.2.2,Win32,60.24096386,650c93cdf4b8742fb9882770,65d6bb0e977760de756971f7,65d6bc98d6d44d58ce21bb8a,0.107,0.1071,1,2,164,59,1,twofour,,,,,,,,,,,,,,,,,,,,,,,,,,,,,,,,,,,,,,,,,,,,,,,,,,,,,,,,,,,,,,,,,,,,,,,,,,,,,,,,,,,,,,,,,,,,,,,,,,,,,,,,,,,,,,,,,,,,,,,,,,,,,,,,,,,,,,,,,
,,650c93cdf4b8742fb9882770,2024-02-22_05h17.09.626,kallum_motion_pilot,2023.2.2,Win32,60.24096386,650c93cdf4b8742fb9882770,65d6bb0e977760de756971f7,65d6bc98d6d44d58ce21bb8a,0.1072,0.1074,1,3,165,103,1,eightseven,,,,,,,,,,,,,,,,,,,,,,,,,,,,,,,,,,,,,,,,,,,,,,,,,,,,,,,,,,,,,,,,,,,,,,,,,,,,,,,,,,,,,,,,,,,,,,,,,,,,,,,,,,,,,,,,,,,,,,,,,,,,,,,,,,,,,,,,,
,,650c93cdf4b8742fb9882770,2024-02-22_05h17.09.626,kallum_motion_pilot,2023.2.2,Win32,60.24096386,650c93cdf4b8742fb9882770,65d6bb0e977760de756971f7,65d6bc98d6d44d58ce21bb8a,0.1075,0.1077,1,4,166,127,1,eightseven,,,,,,,,,,,,,,,,,,,,,,,,,,,,,,,,,,,,,,,,,,,,,,,,,,,,,,,,,,,,,,,,,,,,,,,,,,,,,,,,,,,,,,,,,,,,,,,,,,,,,,,,,,,,,,,,,,,,,,,,,,,,,,,,,,,,,,,,,
,,650c93cdf4b8742fb9882770,2024-02-22_05h17.09.626,kallum_motion_pilot,2023.2.2,Win32,60.24096386,650c93cdf4b8742fb9882770,65d6bb0e977760de756971f7,65d6bc98d6d44d58ce21bb8a,0.1079,0.108,1,5,167,10,1,twoone,,,,,,,,,,,,,,,,,,,,,,,,,,,,,,,,,,,,,,,,,,,,,,,,,,,,,,,,,,,,,,,,,,,,,,,,,,,,,,,,,,,,,,,,,,,,,,,,,,,,,,,,,,,,,,,,,,,,,,,,,,,,,,,,,,,,,,,,,
,,650c93cdf4b8742fb9882770,2024-02-22_05h17.09.626,kallum_motion_pilot,2023.2.2,Win32,60.24096386,650c93cdf4b8742fb9882770,65d6bb0e977760de756971f7,65d6bc98d6d44d58ce21bb8a,0.1081,0.1083,1,6,168,156,1,sevenfive,,,,,,,,,,,,,,,,,,,,,,,,,,,,,,,,,,,,,,,,,,,,,,,,,,,,,,,,,,,,,,,,,,,,,,,,,,,,,,,,,,,,,,,,,,,,,,,,,,,,,,,,,,,,,,,,,,,,,,,,,,,,,,,,,,,,,,,,,
,,650c93cdf4b8742fb9882770,2024-02-22_05h17.09.626,kallum_motion_pilot,2023.2.2,Win32,60.24096386,650c93cdf4b8742fb9882770,65d6bb0e977760de756971f7,65d6bc98d6d44d58ce21bb8a,0.1084,0.1087,1,7,169,155,1,sixeight,,,,,,,,,,,,,,,,,,,,,,,,,,,,,,,,,,,,,,,,,,,,,,,,,,,,,,,,,,,,,,,,,,,,,,,,,,,,,,,,,,,,,,,,,,,,,,,,,,,,,,,,,,,,,,,,,,,,,,,,,,,,,,,,,,,,,,,,,
,,650c93cdf4b8742fb9882770,2024-02-22_05h17.09.626,kallum_motion_pilot,2023.2.2,Win32,60.24096386,650c93cdf4b8742fb9882770,65d6bb0e977760de756971f7,65d6bc98d6d44d58ce21bb8a,0.1088,0.109,1,8,170,75,1,twofour,,,,,,,,,,,,,,,,,,,,,,,,,,,,,,,,,,,,,,,,,,,,,,,,,,,,,,,,,,,,,,,,,,,,,,,,,,,,,,,,,,,,,,,,,,,,,,,,,,,,,,,,,,,,,,,,,,,,,,,,,,,,,,,,,,,,,,,,,
,,650c93cdf4b8742fb9882770,2024-02-22_05h17.09.626,kallum_motion_pilot,2023.2.2,Win32,60.24096386,650c93cdf4b8742fb9882770,65d6bb0e977760de756971f7,65d6bc98d6d44d58ce21bb8a,0.1091,0.1093,1,9,171,113,1,fiveseven,,,,,,,,,,,,,,,,,,,,,,,,,,,,,,,,,,,,,,,,,,,,,,,,,,,,,,,,,,,,,,,,,,,,,,,,,,,,,,,,,,,,,,,,,,,,,,,,,,,,,,,,,,,,,,,,,,,,,,,,,,,,,,,,,,,,,,,,,
,,650c93cdf4b8742fb9882770,2024-02-22_05h17.09.626,kallum_motion_pilot,2023.2.2,Win32,60.24096386,650c93cdf4b8742fb9882770,65d6bb0e977760de756971f7,65d6bc98d6d44d58ce21bb8a,0.1094,0.1095,1,10,172,96,1,fivesix,,,,,,,,,,,,,,,,,,,,,,,,,,,,,,,,,,,,,,,,,,,,,,,,,,,,,,,,,,,,,,,,,,,,,,,,,,,,,,,,,,,,,,,,,,,,,,,,,,,,,,,,,,,,,,,,,,,,,,,,,,,,,,,,,,,,,,,,,
,,650c93cdf4b8742fb9882770,2024-02-22_05h17.09.626,kallum_motion_pilot,2023.2.2,Win32,60.24096386,650c93cdf4b8742fb9882770,65d6bb0e977760de756971f7,65d6bc98d6d44d58ce21bb8a,0.1097,0.1098,1,11,173,47,1,fourthree,,,,,,,,,,,,,,,,,,,,,,,,,,,,,,,,,,,,,,,,,,,,,,,,,,,,,,,,,,,,,,,,,,,,,,,,,,,,,,,,,,,,,,,,,,,,,,,,,,,,,,,,,,,,,,,,,,,,,,,,,,,,,,,,,,,,,,,,,
,,650c93cdf4b8742fb9882770,2024-02-22_05h17.09.626,kallum_motion_pilot,2023.2.2,Win32,60.24096386,650c93cdf4b8742fb9882770,65d6bb0e977760de756971f7,65d6bc98d6d44d58ce21bb8a,0.11,0.1101,1,12,174,23,1,fourthree,,,,,,,,,,,,,,,,,,,,,,,,,,,,,,,,,,,,,,,,,,,,,,,,,,,,,,,,,,,,,,,,,,,,,,,,,,,,,,,,,,,,,,,,,,,,,,,,,,,,,,,,,,,,,,,,,,,,,,,,,,,,,,,,,,,,,,,,,
,,650c93cdf4b8742fb9882770,2024-02-22_05h17.09.626,kallum_motion_pilot,2023.2.2,Win32,60.24096386,650c93cdf4b8742fb9882770,65d6bb0e977760de756971f7,65d6bc98d6d44d58ce21bb8a,0.1103,0.1104,1,13,175,25,1,onethree,,,,,,,,,,,,,,,,,,,,,,,,,,,,,,,,,,,,,,,,,,,,,,,,,,,,,,,,,,,,,,,,,,,,,,,,,,,,,,,,,,,,,,,,,,,,,,,,,,,,,,,,,,,,,,,,,,,,,,,,,,,,,,,,,,,,,,,,,
,,650c93cdf4b8742fb9882770,2024-02-22_05h17.09.626,kallum_motion_pilot,2023.2.2,Win32,60.24096386,650c93cdf4b8742fb9882770,65d6bb0e977760de756971f7,65d6bc98d6d44d58ce21bb8a,0.1105,0.1107,1,14,176,73,1,onethree,,,,,,,,,,,,,,,,,,,,,,,,,,,,,,,,,,,,,,,,,,,,,,,,,,,,,,,,,,,,,,,,,,,,,,,,,,,,,,,,,,,,,,,,,,,,,,,,,,,,,,,,,,,,,,,,,,,,,,,,,,,,,,,,,,,,,,,,,
,,650c93cdf4b8742fb9882770,2024-02-22_05h17.09.626,kallum_motion_pilot,2023.2.2,Win32,60.24096386,650c93cdf4b8742fb9882770,65d6bb0e977760de756971f7,65d6bc98d6d44d58ce21bb8a,0.1107,0.1109,1,15,177,7,1,fourthree,,,,,,,,,,,,,,,,,,,,,,,,,,,,,,,,,,,,,,,,,,,,,,,,,,,,,,,,,,,,,,,,,,,,,,,,,,,,,,,,,,,,,,,,,,,,,,,,,,,,,,,,,,,,,,,,,,,,,,,,,,,,,,,,,,,,,,,,,
,,650c93cdf4b8742fb9882770,2024-02-22_05h17.09.626,kallum_motion_pilot,2023.2.2,Win32,60.24096386,650c93cdf4b8742fb9882770,65d6bb0e977760de756971f7,65d6bc98d6d44d58ce21bb8a,0.111,0.1112,1,16,178,117,1,seveneight,,,,,,,,,,,,,,,,,,,,,,,,,,,,,,,,,,,,,,,,,,,,,,,,,,,,,,,,,,,,,,,,,,,,,,,,,,,,,,,,,,,,,,,,,,,,,,,,,,,,,,,,,,,,,,,,,,,,,,,,,,,,,,,,,,,,,,,,,
,,650c93cdf4b8742fb9882770,2024-02-22_05h17.09.626,kallum_motion_pilot,2023.2.2,Win32,60.24096386,650c93cdf4b8742fb9882770,65d6bb0e977760de756971f7,65d6bc98d6d44d58ce21bb8a,0.1114,0.1116,1,17,179,81,1,fiveseven,,,,,,,,,,,,,,,,,,,,,,,,,,,,,,,,,,,,,,,,,,,,,,,,,,,,,,,,,,,,,,,,,,,,,,,,,,,,,,,,,,,,,,,,,,,,,,,,,,,,,,,,,,,,,,,,,,,,,,,,,,,,,,,,,,,,,,,,,
,,650c93cdf4b8742fb9882770,2024-02-22_05h17.09.626,kallum_motion_pilot,2023.2.2,Win32,60.24096386,650c93cdf4b8742fb9882770,65d6bb0e977760de756971f7,65d6bc98d6d44d58ce21bb8a,0.1116,0.1118,1,18,180,141,1,seveneight,,,,,,,,,,,,,,,,,,,,,,,,,,,,,,,,,,,,,,,,,,,,,,,,,,,,,,,,,,,,,,,,,,,,,,,,,,,,,,,,,,,,,,,,,,,,,,,,,,,,,,,,,,,,,,,,,,,,,,,,,,,,,,,,,,,,,,,,,
,,650c93cdf4b8742fb9882770,2024-02-22_05h17.09.626,kallum_motion_pilot,2023.2.2,Win32,60.24096386,650c93cdf4b8742fb9882770,65d6bb0e977760de756971f7,65d6bc98d6d44d58ce21bb8a,0.112,0.1122,1,19,181,122,1,sixfive,,,,,,,,,,,,,,,,,,,,,,,,,,,,,,,,,,,,,,,,,,,,,,,,,,,,,,,,,,,,,,,,,,,,,,,,,,,,,,,,,,,,,,,,,,,,,,,,,,,,,,,,,,,,,,,,,,,,,,,,,,,,,,,,,,,,,,,,,
,,650c93cdf4b8742fb9882770,2024-02-22_05h17.09.626,kallum_motion_pilot,2023.2.2,Win32,60.24096386,650c93cdf4b8742fb9882770,65d6bb0e977760de756971f7,65d6bc98d6d44d58ce21bb8a,0.1122,0.1124,1,20,182,61,1,threefour,,,,,,,,,,,,,,,,,,,,,,,,,,,,,,,,,,,,,,,,,,,,,,,,,,,,,,,,,,,,,,,,,,,,,,,,,,,,,,,,,,,,,,,,,,,,,,,,,,,,,,,,,,,,,,,,,,,,,,,,,,,,,,,,,,,,,,,,,
,,650c93cdf4b8742fb9882770,2024-02-22_05h17.09.626,kallum_motion_pilot,2023.2.2,Win32,60.24096386,650c93cdf4b8742fb9882770,65d6bb0e977760de756971f7,65d6bc98d6d44d58ce21bb8a,0.1126,0.1126,1,21,183,5,1,threefour,,,,,,,,,,,,,,,,,,,,,,,,,,,,,,,,,,,,,,,,,,,,,,,,,,,,,,,,,,,,,,,,,,,,,,,,,,,,,,,,,,,,,,,,,,,,,,,,,,,,,,,,,,,,,,,,,,,,,,,,,,,,,,,,,,,,,,,,,
,,650c93cdf4b8742fb9882770,2024-02-22_05h17.09.626,kallum_motion_pilot,2023.2.2,Win32,60.24096386,650c93cdf4b8742fb9882770,65d6bb0e977760de756971f7,65d6bc98d6d44d58ce21bb8a,0.1128,0.113,1,22,184,107,1,sixeight,,,,,,,,,,,,,,,,,,,,,,,,,,,,,,,,,,,,,,,,,,,,,,,,,,,,,,,,,,,,,,,,,,,,,,,,,,,,,,,,,,,,,,,,,,,,,,,,,,,,,,,,,,,,,,,,,,,,,,,,,,,,,,,,,,,,,,,,,
,,650c93cdf4b8742fb9882770,2024-02-22_05h17.09.626,kallum_motion_pilot,2023.2.2,Win32,60.24096386,650c93cdf4b8742fb9882770,65d6bb0e977760de756971f7,65d6bc98d6d44d58ce21bb8a,0.1132,0.1134,1,23,185,120,1,fivesix,,,,,,,,,,,,,,,,,,,,,,,,,,,,,,,,,,,,,,,,,,,,,,,,,,,,,,,,,,,,,,,,,,,,,,,,,,,,,,,,,,,,,,,,,,,,,,,,,,,,,,,,,,,,,,,,,,,,,,,,,,,,,,,,,,,,,,,,,
,,650c93cdf4b8742fb9882770,2024-02-22_05h17.09.626,kallum_motion_pilot,2023.2.2,Win32,60.24096386,650c93cdf4b8742fb9882770,65d6bb0e977760de756971f7,65d6bc98d6d44d58ce21bb8a,0.1136,0.1137,1,24,186,98,1,sixfive,,,,,,,,,,,,,,,,,,,,,,,,,,,,,,,,,,,,,,,,,,,,,,,,,,,,,,,,,,,,,,,,,,,,,,,,,,,,,,,,,,,,,,,,,,,,,,,,,,,,,,,,,,,,,,,,,,,,,,,,,,,,,,,,,,,,,,,,,
,,650c93cdf4b8742fb9882770,2024-02-22_05h17.09.626,kallum_motion_pilot,2023.2.2,Win32,60.24096386,650c93cdf4b8742fb9882770,65d6bb0e977760de756971f7,65d6bc98d6d44d58ce21bb8a,0.1138,0.1139,1,25,187,82,1,sixfive,,,,,,,,,,,,,,,,,,,,,,,,,,,,,,,,,,,,,,,,,,,,,,,,,,,,,,,,,,,,,,,,,,,,,,,,,,,,,,,,,,,,,,,,,,,,,,,,,,,,,,,,,,,,,,,,,,,,,,,,,,,,,,,,,,,,,,,,,
,,650c93cdf4b8742fb9882770,2024-02-22_05h17.09.626,kallum_motion_pilot,2023.2.2,Win32,60.24096386,650c93cdf4b8742fb9882770,65d6bb0e977760de756971f7,65d6bc98d6d44d58ce21bb8a,0.1141,0.1142,1,26,188,57,1,onethree,,,,,,,,,,,,,,,,,,,,,,,,,,,,,,,,,,,,,,,,,,,,,,,,,,,,,,,,,,,,,,,,,,,,,,,,,,,,,,,,,,,,,,,,,,,,,,,,,,,,,,,,,,,,,,,,,,,,,,,,,,,,,,,,,,,,,,,,,
,,650c93cdf4b8742fb9882770,2024-02-22_05h17.09.626,kallum_motion_pilot,2023.2.2,Win32,60.24096386,650c93cdf4b8742fb9882770,65d6bb0e977760de756971f7,65d6bc98d6d44d58ce21bb8a,0.1144,0.1146,1,27,189,30,1,fourtwo,,,,,,,,,,,,,,,,,,,,,,,,,,,,,,,,,,,,,,,,,,,,,,,,,,,,,,,,,,,,,,,,,,,,,,,,,,,,,,,,,,,,,,,,,,,,,,,,,,,,,,,,,,,,,,,,,,,,,,,,,,,,,,,,,,,,,,,,,
,,650c93cdf4b8742fb9882770,2024-02-22_05h17.09.626,kallum_motion_pilot,2023.2.2,Win32,60.24096386,650c93cdf4b8742fb9882770,65d6bb0e977760de756971f7,65d6bc98d6d44d58ce21bb8a,0.1148,0.1149,1,28,190,26,1,twoone,,,,,,,,,,,,,,,,,,,,,,,,,,,,,,,,,,,,,,,,,,,,,,,,,,,,,,,,,,,,,,,,,,,,,,,,,,,,,,,,,,,,,,,,,,,,,,,,,,,,,,,,,,,,,,,,,,,,,,,,,,,,,,,,,,,,,,,,,
,,650c93cdf4b8742fb9882770,2024-02-22_05h17.09.626,kallum_motion_pilot,2023.2.2,Win32,60.24096386,650c93cdf4b8742fb9882770,65d6bb0e977760de756971f7,65d6bc98d6d44d58ce21bb8a,0.115,0.1151,1,29,191,128,1,fivesix,,,,,,,,,,,,,,,,,,,,,,,,,,,,,,,,,,,,,,,,,,,,,,,,,,,,,,,,,,,,,,,,,,,,,,,,,,,,,,,,,,,,,,,,,,,,,,,,,,,,,,,,,,,,,,,,,,,,,,,,,,,,,,,,,,,,,,,,,
,,650c93cdf4b8742fb9882770,2024-02-22_05h17.09.626,kallum_motion_pilot,2023.2.2,Win32,60.24096386,650c93cdf4b8742fb9882770,65d6bb0e977760de756971f7,65d6bc98d6d44d58ce21bb8a,0.1153,0.1154,1,30,192,114,1,sixfive,,,,,,,,,,,,,,,,,,,,,,,,,,,,,,,,,,,,,,,,,,,,,,,,,,,,,,,,,,,,,,,,,,,,,,,,,,,,,,,,,,,,,,,,,,,,,,,,,,,,,,,,,,,,,,,,,,,,,,,,,,,,,,,,,,,,,,,,,
,,650c93cdf4b8742fb9882770,2024-02-22_05h17.09.626,kallum_motion_pilot,2023.2.2,Win32,60.24096386,650c93cdf4b8742fb9882770,65d6bb0e977760de756971f7,65d6bc98d6d44d58ce21bb8a,0.1156,0.1157,1,31,193,106,1,sixfive,,,,,,,,,,,,,,,,,,,,,,,,,,,,,,,,,,,,,,,,,,,,,,,,,,,,,,,,,,,,,,,,,,,,,,,,,,,,,,,,,,,,,,,,,,,,,,,,,,,,,,,,,,,,,,,,,,,,,,,,,,,,,,,,,,,,,,,,,
,,650c93cdf4b8742fb9882770,2024-02-22_05h17.09.626,kallum_motion_pilot,2023.2.2,Win32,60.24096386,650c93cdf4b8742fb9882770,65d6bb0e977760de756971f7,65d6bc98d6d44d58ce21bb8a,0.1159,0.1161,1,32,194,16,1,onetwo,,,,,,,,,,,,,,,,,,,,,,,,,,,,,,,,,,,,,,,,,,,,,,,,,,,,,,,,,,,,,,,,,,,,,,,,,,,,,,,,,,,,,,,,,,,,,,,,,,,,,,,,,,,,,,,,,,,,,,,,,,,,,,,,,,,,,,,,,
,,650c93cdf4b8742fb9882770,2024-02-22_05h17.09.626,kallum_motion_pilot,2023.2.2,Win32,60.24096386,650c93cdf4b8742fb9882770,65d6bb0e977760de756971f7,65d6bc98d6d44d58ce21bb8a,0.1163,0.1164,1,33,195,65,1,onethree,,,,,,,,,,,,,,,,,,,,,,,,,,,,,,,,,,,,,,,,,,,,,,,,,,,,,,,,,,,,,,,,,,,,,,,,,,,,,,,,,,,,,,,,,,,,,,,,,,,,,,,,,,,,,,,,,,,,,,,,,,,,,,,,,,,,,,,,,
,,650c93cdf4b8742fb9882770,2024-02-22_05h17.09.626,kallum_motion_pilot,2023.2.2,Win32,60.24096386,650c93cdf4b8742fb9882770,65d6bb0e977760de756971f7,65d6bc98d6d44d58ce21bb8a,0.1166,0.1168,1,34,196,148,1,sevenfive,,,,,,,,,,,,,,,,,,,,,,,,,,,,,,,,,,,,,,,,,,,,,,,,,,,,,,,,,,,,,,,,,,,,,,,,,,,,,,,,,,,,,,,,,,,,,,,,,,,,,,,,,,,,,,,,,,,,,,,,,,,,,,,,,,,,,,,,,
,,650c93cdf4b8742fb9882770,2024-02-22_05h17.09.626,kallum_motion_pilot,2023.2.2,Win32,60.24096386,650c93cdf4b8742fb9882770,65d6bb0e977760de756971f7,65d6bc98d6d44d58ce21bb8a,0.117,0.117,1,35,197,131,1,sixeight,,,,,,,,,,,,,,,,,,,,,,,,,,,,,,,,,,,,,,,,,,,,,,,,,,,,,,,,,,,,,,,,,,,,,,,,,,,,,,,,,,,,,,,,,,,,,,,,,,,,,,,,,,,,,,,,,,,,,,,,,,,,,,,,,,,,,,,,,
,,650c93cdf4b8742fb9882770,2024-02-22_05h17.09.626,kallum_motion_pilot,2023.2.2,Win32,60.24096386,650c93cdf4b8742fb9882770,65d6bb0e977760de756971f7,65d6bc98d6d44d58ce21bb8a,0.1171,0.1173,1,36,198,149,1,seveneight,,,,,,,,,,,,,,,,,,,,,,,,,,,,,,,,,,,,,,,,,,,,,,,,,,,,,,,,,,,,,,,,,,,,,,,,,,,,,,,,,,,,,,,,,,,,,,,,,,,,,,,,,,,,,,,,,,,,,,,,,,,,,,,,,,,,,,,,,
,,650c93cdf4b8742fb9882770,2024-02-22_05h17.09.626,kallum_motion_pilot,2023.2.2,Win32,60.24096386,650c93cdf4b8742fb9882770,65d6bb0e977760de756971f7,65d6bc98d6d44d58ce21bb8a,0.1174,0.1175,1,37,199,80,1,fivesix,,,,,,,,,,,,,,,,,,,,,,,,,,,,,,,,,,,,,,,,,,,,,,,,,,,,,,,,,,,,,,,,,,,,,,,,,,,,,,,,,,,,,,,,,,,,,,,,,,,,,,,,,,,,,,,,,,,,,,,,,,,,,,,,,,,,,,,,,
,,650c93cdf4b8742fb9882770,2024-02-22_05h17.09.626,kallum_motion_pilot,2023.2.2,Win32,60.24096386,650c93cdf4b8742fb9882770,65d6bb0e977760de756971f7,65d6bc98d6d44d58ce21bb8a,0.1177,0.1178,1,38,200,36,1,threeone,,,,,,,,,,,,,,,,,,,,,,,,,,,,,,,,,,,,,,,,,,,,,,,,,,,,,,,,,,,,,,,,,,,,,,,,,,,,,,,,,,,,,,,,,,,,,,,,,,,,,,,,,,,,,,,,,,,,,,,,,,,,,,,,,,,,,,,,,
,,650c93cdf4b8742fb9882770,2024-02-22_05h17.09.626,kallum_motion_pilot,2023.2.2,Win32,60.24096386,650c93cdf4b8742fb9882770,65d6bb0e977760de756971f7,65d6bc98d6d44d58ce21bb8a,0.1179,0.118,1,39,201,48,1,onetwo,,,,,,,,,,,,,,,,,,,,,,,,,,,,,,,,,,,,,,,,,,,,,,,,,,,,,,,,,,,,,,,,,,,,,,,,,,,,,,,,,,,,,,,,,,,,,,,,,,,,,,,,,,,,,,,,,,,,,,,,,,,,,,,,,,,,,,,,,
,,650c93cdf4b8742fb9882770,2024-02-22_05h17.09.626,kallum_motion_pilot,2023.2.2,Win32,60.24096386,650c93cdf4b8742fb9882770,65d6bb0e977760de756971f7,65d6bc98d6d44d58ce21bb8a,0.1181,0.1182,1,40,202,126,1,eightsix,,,,,,,,,,,,,,,,,,,,,,,,,,,,,,,,,,,,,,,,,,,,,,,,,,,,,,,,,,,,,,,,,,,,,,,,,,,,,,,,,,,,,,,,,,,,,,,,,,,,,,,,,,,,,,,,,,,,,,,,,,,,,,,,,,,,,,,,,
,,650c93cdf4b8742fb9882770,2024-02-22_05h17.09.626,kallum_motion_pilot,2023.2.2,Win32,60.24096386,650c93cdf4b8742fb9882770,65d6bb0e977760de756971f7,65d6bc98d6d44d58ce21bb8a,0.1185,0.1185,1,41,203,101,1,seveneight,,,,,,,,,,,,,,,,,,,,,,,,,,,,,,,,,,,,,,,,,,,,,,,,,,,,,,,,,,,,,,,,,,,,,,,,,,,,,,,,,,,,,,,,,,,,,,,,,,,,,,,,,,,,,,,,,,,,,,,,,,,,,,,,,,,,,,,,,
,,650c93cdf4b8742fb9882770,2024-02-22_05h17.09.626,kallum_motion_pilot,2023.2.2,Win32,60.24096386,650c93cdf4b8742fb9882770,65d6bb0e977760de756971f7,65d6bc98d6d44d58ce21bb8a,0.1187,0.1188,1,42,204,94,1,eightsix,,,,,,,,,,,,,,,,,,,,,,,,,,,,,,,,,,,,,,,,,,,,,,,,,,,,,,,,,,,,,,,,,,,,,,,,,,,,,,,,,,,,,,,,,,,,,,,,,,,,,,,,,,,,,,,,,,,,,,,,,,,,,,,,,,,,,,,,,
,,650c93cdf4b8742fb9882770,2024-02-22_05h17.09.626,kallum_motion_pilot,2023.2.2,Win32,60.24096386,650c93cdf4b8742fb9882770,65d6bb0e977760de756971f7,65d6bc98d6d44d58ce21bb8a,0.1193,0.1201,1,43,205,74,1,twoone,,,,,,,,,,,,,,,,,,,,,,,,,,,,,,,,,,,,,,,,,,,,,,,,,,,,,,,,,,,,,,,,,,,,,,,,,,,,,,,,,,,,,,,,,,,,,,,,,,,,,,,,,,,,,,,,,,,,,,,,,,,,,,,,,,,,,,,,,
,,650c93cdf4b8742fb9882770,2024-02-22_05h17.09.626,kallum_motion_pilot,2023.2.2,Win32,60.24096386,650c93cdf4b8742fb9882770,65d6bb0e977760de756971f7,65d6bc98d6d44d58ce21bb8a,0.1215,0.1217,1,44,206,6,1,fourtwo,,,,,,,,,,,,,,,,,,,,,,,,,,,,,,,,,,,,,,,,,,,,,,,,,,,,,,,,,,,,,,,,,,,,,,,,,,,,,,,,,,,,,,,,,,,,,,,,,,,,,,,,,,,,,,,,,,,,,,,,,,,,,,,,,,,,,,,,,
,,650c93cdf4b8742fb9882770,2024-02-22_05h17.09.626,kallum_motion_pilot,2023.2.2,Win32,60.24096386,650c93cdf4b8742fb9882770,65d6bb0e977760de756971f7,65d6bc98d6d44d58ce21bb8a,0.122,0.1222,1,45,207,161,1,fiveseven,,,,,,,,,,,,,,,,,,,,,,,,,,,,,,,,,,,,,,,,,,,,,,,,,,,,,,,,,,,,,,,,,,,,,,,,,,,,,,,,,,,,,,,,,,,,,,,,,,,,,,,,,,,,,,,,,,,,,,,,,,,,,,,,,,,,,,,,,
,,650c93cdf4b8742fb9882770,2024-02-22_05h17.09.626,kallum_motion_pilot,2023.2.2,Win32,60.24096386,650c93cdf4b8742fb9882770,65d6bb0e977760de756971f7,65d6bc98d6d44d58ce21bb8a,0.1225,0.123,1,46,208,77,1,threefour,,,,,,,,,,,,,,,,,,,,,,,,,,,,,,,,,,,,,,,,,,,,,,,,,,,,,,,,,,,,,,,,,,,,,,,,,,,,,,,,,,,,,,,,,,,,,,,,,,,,,,,,,,,,,,,,,,,,,,,,,,,,,,,,,,,,,,,,,
,,650c93cdf4b8742fb9882770,2024-02-22_05h17.09.626,kallum_motion_pilot,2023.2.2,Win32,60.24096386,650c93cdf4b8742fb9882770,65d6bb0e977760de756971f7,65d6bc98d6d44d58ce21bb8a,0.1232,0.1233,1,47,209,17,1,onethree,,,,,,,,,,,,,,,,,,,,,,,,,,,,,,,,,,,,,,,,,,,,,,,,,,,,,,,,,,,,,,,,,,,,,,,,,,,,,,,,,,,,,,,,,,,,,,,,,,,,,,,,,,,,,,,,,,,,,,,,,,,,,,,,,,,,,,,,,
,,650c93cdf4b8742fb9882770,2024-02-22_05h17.09.626,kallum_motion_pilot,2023.2.2,Win32,60.24096386,650c93cdf4b8742fb9882770,65d6bb0e977760de756971f7,65d6bc98d6d44d58ce21bb8a,0.1236,0.1237,1,48,210,145,1,fiveseven,,,,,,,,,,,,,,,,,,,,,,,,,,,,,,,,,,,,,,,,,,,,,,,,,,,,,,,,,,,,,,,,,,,,,,,,,,,,,,,,,,,,,,,,,,,,,,,,,,,,,,,,,,,,,,,,,,,,,,,,,,,,,,,,,,,,,,,,,
,,650c93cdf4b8742fb9882770,2024-02-22_05h17.09.626,kallum_motion_pilot,2023.2.2,Win32,60.24096386,650c93cdf4b8742fb9882770,65d6bb0e977760de756971f7,65d6bc98d6d44d58ce21bb8a,0.1239,0.1239,1,49,211,119,1,eightseven,,,,,,,,,,,,,,,,,,,,,,,,,,,,,,,,,,,,,,,,,,,,,,,,,,,,,,,,,,,,,,,,,,,,,,,,,,,,,,,,,,,,,,,,,,,,,,,,,,,,,,,,,,,,,,,,,,,,,,,,,,,,,,,,,,,,,,,,,
,,650c93cdf4b8742fb9882770,2024-02-22_05h17.09.626,kallum_motion_pilot,2023.2.2,Win32,60.24096386,650c93cdf4b8742fb9882770,65d6bb0e977760de756971f7,65d6bc98d6d44d58ce21bb8a,0.1241,0.1242,1,50,212,21,1,threefour,,,,,,,,,,,,,,,,,,,,,,,,,,,,,,,,,,,,,,,,,,,,,,,,,,,,,,,,,,,,,,,,,,,,,,,,,,,,,,,,,,,,,,,,,,,,,,,,,,,,,,,,,,,,,,,,,,,,,,,,,,,,,,,,,,,,,,,,,
,,650c93cdf4b8742fb9882770,2024-02-22_05h17.09.626,kallum_motion_pilot,2023.2.2,Win32,60.24096386,650c93cdf4b8742fb9882770,65d6bb0e977760de756971f7,65d6bc98d6d44d58ce21bb8a,0.1244,0.1244,1,51,213,45,1,threefour,,,,,,,,,,,,,,,,,,,,,,,,,,,,,,,,,,,,,,,,,,,,,,,,,,,,,,,,,,,,,,,,,,,,,,,,,,,,,,,,,,,,,,,,,,,,,,,,,,,,,,,,,,,,,,,,,,,,,,,,,,,,,,,,,,,,,,,,,
,,650c93cdf4b8742fb9882770,2024-02-22_05h17.09.626,kallum_motion_pilot,2023.2.2,Win32,60.24096386,650c93cdf4b8742fb9882770,65d6bb0e977760de756971f7,65d6bc98d6d44d58ce21bb8a,0.1246,0.1248,1,52,214,132,1,sevenfive,,,,,,,,,,,,,,,,,,,,,,,,,,,,,,,,,,,,,,,,,,,,,,,,,,,,,,,,,,,,,,,,,,,,,,,,,,,,,,,,,,,,,,,,,,,,,,,,,,,,,,,,,,,,,,,,,,,,,,,,,,,,,,,,,,,,,,,,,
,,650c93cdf4b8742fb9882770,2024-02-22_05h17.09.626,kallum_motion_pilot,2023.2.2,Win32,60.24096386,650c93cdf4b8742fb9882770,65d6bb0e977760de756971f7,65d6bc98d6d44d58ce21bb8a,0.1248,0.125,1,53,215,116,1,sevenfive,,,,,,,,,,,,,,,,,,,,,,,,,,,,,,,,,,,,,,,,,,,,,,,,,,,,,,,,,,,,,,,,,,,,,,,,,,,,,,,,,,,,,,,,,,,,,,,,,,,,,,,,,,,,,,,,,,,,,,,,,,,,,,,,,,,,,,,,,
,,650c93cdf4b8742fb9882770,2024-02-22_05h17.09.626,kallum_motion_pilot,2023.2.2,Win32,60.24096386,650c93cdf4b8742fb9882770,65d6bb0e977760de756971f7,65d6bc98d6d44d58ce21bb8a,0.1251,0.1252,1,54,216,78,1,fourtwo,,,,,,,,,,,,,,,,,,,,,,,,,,,,,,,,,,,,,,,,,,,,,,,,,,,,,,,,,,,,,,,,,,,,,,,,,,,,,,,,,,,,,,,,,,,,,,,,,,,,,,,,,,,,,,,,,,,,,,,,,,,,,,,,,,,,,,,,,
,,650c93cdf4b8742fb9882770,2024-02-22_05h17.09.626,kallum_motion_pilot,2023.2.2,Win32,60.24096386,650c93cdf4b8742fb9882770,65d6bb0e977760de756971f7,65d6bc98d6d44d58ce21bb8a,0.1253,0.1255,1,55,217,153,1,fiveseven,,,,,,,,,,,,,,,,,,,,,,,,,,,,,,,,,,,,,,,,,,,,,,,,,,,,,,,,,,,,,,,,,,,,,,,,,,,,,,,,,,,,,,,,,,,,,,,,,,,,,,,,,,,,,,,,,,,,,,,,,,,,,,,,,,,,,,,,,
,,650c93cdf4b8742fb9882770,2024-02-22_05h17.09.626,kallum_motion_pilot,2023.2.2,Win32,60.24096386,650c93cdf4b8742fb9882770,65d6bb0e977760de756971f7,65d6bc98d6d44d58ce21bb8a,0.1257,0.1258,1,56,218,93,1,seveneight,,,,,,,,,,,,,,,,,,,,,,,,,,,,,,,,,,,,,,,,,,,,,,,,,,,,,,,,,,,,,,,,,,,,,,,,,,,,,,,,,,,,,,,,,,,,,,,,,,,,,,,,,,,,,,,,,,,,,,,,,,,,,,,,,,,,,,,,,
,,650c93cdf4b8742fb9882770,2024-02-22_05h17.09.626,kallum_motion_pilot,2023.2.2,Win32,60.24096386,650c93cdf4b8742fb9882770,65d6bb0e977760de756971f7,65d6bc98d6d44d58ce21bb8a,0.1259,0.126,1,57,219,99,1,sixeight,,,,,,,,,,,,,,,,,,,,,,,,,,,,,,,,,,,,,,,,,,,,,,,,,,,,,,,,,,,,,,,,,,,,,,,,,,,,,,,,,,,,,,,,,,,,,,,,,,,,,,,,,,,,,,,,,,,,,,,,,,,,,,,,,,,,,,,,,
,,650c93cdf4b8742fb9882770,2024-02-22_05h17.09.626,kallum_motion_pilot,2023.2.2,Win32,60.24096386,650c93cdf4b8742fb9882770,65d6bb0e977760de756971f7,65d6bc98d6d44d58ce21bb8a,0.1263,0.1264,1,58,220,137,1,fiveseven,,,,,,,,,,,,,,,,,,,,,,,,,,,,,,,,,,,,,,,,,,,,,,,,,,,,,,,,,,,,,,,,,,,,,,,,,,,,,,,,,,,,,,,,,,,,,,,,,,,,,,,,,,,,,,,,,,,,,,,,,,,,,,,,,,,,,,,,,
,,650c93cdf4b8742fb9882770,2024-02-22_05h17.09.626,kallum_motion_pilot,2023.2.2,Win32,60.24096386,650c93cdf4b8742fb9882770,65d6bb0e977760de756971f7,65d6bc98d6d44d58ce21bb8a,0.1265,0.1266,1,59,221,11,1,twofour,,,,,,,,,,,,,,,,,,,,,,,,,,,,,,,,,,,,,,,,,,,,,,,,,,,,,,,,,,,,,,,,,,,,,,,,,,,,,,,,,,,,,,,,,,,,,,,,,,,,,,,,,,,,,,,,,,,,,,,,,,,,,,,,,,,,,,,,,
,,650c93cdf4b8742fb9882770,2024-02-22_05h17.09.626,kallum_motion_pilot,2023.2.2,Win32,60.24096386,650c93cdf4b8742fb9882770,65d6bb0e977760de756971f7,65d6bc98d6d44d58ce21bb8a,0.1267,0.1269,1,60,222,157,1,seveneight,,,,,,,,,,,,,,,,,,,,,,,,,,,,,,,,,,,,,,,,,,,,,,,,,,,,,,,,,,,,,,,,,,,,,,,,,,,,,,,,,,,,,,,,,,,,,,,,,,,,,,,,,,,,,,,,,,,,,,,,,,,,,,,,,,,,,,,,,
,,650c93cdf4b8742fb9882770,2024-02-22_05h17.09.626,kallum_motion_pilot,2023.2.2,Win32,60.24096386,650c93cdf4b8742fb9882770,65d6bb0e977760de756971f7,65d6bc98d6d44d58ce21bb8a,0.1269,0.1271,1,61,223,158,1,eightsix,,,,,,,,,,,,,,,,,,,,,,,,,,,,,,,,,,,,,,,,,,,,,,,,,,,,,,,,,,,,,,,,,,,,,,,,,,,,,,,,,,,,,,,,,,,,,,,,,,,,,,,,,,,,,,,,,,,,,,,,,,,,,,,,,,,,,,,,,
,,650c93cdf4b8742fb9882770,2024-02-22_05h17.09.626,kallum_motion_pilot,2023.2.2,Win32,60.24096386,650c93cdf4b8742fb9882770,65d6bb0e977760de756971f7,65d6bc98d6d44d58ce21bb8a,0.1272,0.1273,1,62,224,66,1,twoone,,,,,,,,,,,,,,,,,,,,,,,,,,,,,,,,,,,,,,,,,,,,,,,,,,,,,,,,,,,,,,,,,,,,,,,,,,,,,,,,,,,,,,,,,,,,,,,,,,,,,,,,,,,,,,,,,,,,,,,,,,,,,,,,,,,,,,,,,
,,650c93cdf4b8742fb9882770,2024-02-22_05h17.09.626,kallum_motion_pilot,2023.2.2,Win32,60.24096386,650c93cdf4b8742fb9882770,65d6bb0e977760de756971f7,65d6bc98d6d44d58ce21bb8a,0.1274,0.1276,1,63,225,143,1,eightseven,,,,,,,,,,,,,,,,,,,,,,,,,,,,,,,,,,,,,,,,,,,,,,,,,,,,,,,,,,,,,,,,,,,,,,,,,,,,,,,,,,,,,,,,,,,,,,,,,,,,,,,,,,,,,,,,,,,,,,,,,,,,,,,,,,,,,,,,,
,,650c93cdf4b8742fb9882770,2024-02-22_05h17.09.626,kallum_motion_pilot,2023.2.2,Win32,60.24096386,650c93cdf4b8742fb9882770,65d6bb0e977760de756971f7,65d6bc98d6d44d58ce21bb8a,0.1277,0.1278,1,64,226,40,1,onetwo,,,,,,,,,,,,,,,,,,,,,,,,,,,,,,,,,,,,,,,,,,,,,,,,,,,,,,,,,,,,,,,,,,,,,,,,,,,,,,,,,,,,,,,,,,,,,,,,,,,,,,,,,,,,,,,,,,,,,,,,,,,,,,,,,,,,,,,,,
,,650c93cdf4b8742fb9882770,2024-02-22_05h17.09.626,kallum_motion_pilot,2023.2.2,Win32,60.24096386,650c93cdf4b8742fb9882770,65d6bb0e977760de756971f7,65d6bc98d6d44d58ce21bb8a,0.1279,0.128,1,65,227,50,1,twoone,,,,,,,,,,,,,,,,,,,,,,,,,,,,,,,,,,,,,,,,,,,,,,,,,,,,,,,,,,,,,,,,,,,,,,,,,,,,,,,,,,,,,,,,,,,,,,,,,,,,,,,,,,,,,,,,,,,,,,,,,,,,,,,,,,,,,,,,,
,,650c93cdf4b8742fb9882770,2024-02-22_05h17.09.626,kallum_motion_pilot,2023.2.2,Win32,60.24096386,650c93cdf4b8742fb9882770,65d6bb0e977760de756971f7,65d6bc98d6d44d58ce21bb8a,0.1282,0.1283,1,66,228,144,1,fivesix,,,,,,,,,,,,,,,,,,,,,,,,,,,,,,,,,,,,,,,,,,,,,,,,,,,,,,,,,,,,,,,,,,,,,,,,,,,,,,,,,,,,,,,,,,,,,,,,,,,,,,,,,,,,,,,,,,,,,,,,,,,,,,,,,,,,,,,,,
,,650c93cdf4b8742fb9882770,2024-02-22_05h17.09.626,kallum_motion_pilot,2023.2.2,Win32,60.24096386,650c93cdf4b8742fb9882770,65d6bb0e977760de756971f7,65d6bc98d6d44d58ce21bb8a,0.1289,0.1289,1,67,229,110,1,eightsix,,,,,,,,,,,,,,,,,,,,,,,,,,,,,,,,,,,,,,,,,,,,,,,,,,,,,,,,,,,,,,,,,,,,,,,,,,,,,,,,,,,,,,,,,,,,,,,,,,,,,,,,,,,,,,,,,,,,,,,,,,,,,,,,,,,,,,,,,
,,650c93cdf4b8742fb9882770,2024-02-22_05h17.09.626,kallum_motion_pilot,2023.2.2,Win32,60.24096386,650c93cdf4b8742fb9882770,65d6bb0e977760de756971f7,65d6bc98d6d44d58ce21bb8a,0.129,0.1292,1,68,230,70,1,fourtwo,,,,,,,,,,,,,,,,,,,,,,,,,,,,,,,,,,,,,,,,,,,,,,,,,,,,,,,,,,,,,,,,,,,,,,,,,,,,,,,,,,,,,,,,,,,,,,,,,,,,,,,,,,,,,,,,,,,,,,,,,,,,,,,,,,,,,,,,,
,,650c93cdf4b8742fb9882770,2024-02-22_05h17.09.626,kallum_motion_pilot,2023.2.2,Win32,60.24096386,650c93cdf4b8742fb9882770,65d6bb0e977760de756971f7,65d6bc98d6d44d58ce21bb8a,0.1293,0.1294,1,69,231,90,1,sixfive,,,,,,,,,,,,,,,,,,,,,,,,,,,,,,,,,,,,,,,,,,,,,,,,,,,,,,,,,,,,,,,,,,,,,,,,,,,,,,,,,,,,,,,,,,,,,,,,,,,,,,,,,,,,,,,,,,,,,,,,,,,,,,,,,,,,,,,,,
,,650c93cdf4b8742fb9882770,2024-02-22_05h17.09.626,kallum_motion_pilot,2023.2.2,Win32,60.24096386,650c93cdf4b8742fb9882770,65d6bb0e977760de756971f7,65d6bc98d6d44d58ce21bb8a,0.1295,0.1299,1,70,232,79,1,eightseven,,,,,,,,,,,,,,,,,,,,,,,,,,,,,,,,,,,,,,,,,,,,,,,,,,,,,,,,,,,,,,,,,,,,,,,,,,,,,,,,,,,,,,,,,,,,,,,,,,,,,,,,,,,,,,,,,,,,,,,,,,,,,,,,,,,,,,,,,
,,650c93cdf4b8742fb9882770,2024-02-22_05h17.09.626,kallum_motion_pilot,2023.2.2,Win32,60.24096386,650c93cdf4b8742fb9882770,65d6bb0e977760de756971f7,65d6bc98d6d44d58ce21bb8a,0.1301,0.1303,1,71,233,121,1,fiveseven,,,,,,,,,,,,,,,,,,,,,,,,,,,,,,,,,,,,,,,,,,,,,,,,,,,,,,,,,,,,,,,,,,,,,,,,,,,,,,,,,,,,,,,,,,,,,,,,,,,,,,,,,,,,,,,,,,,,,,,,,,,,,,,,,,,,,,,,,
,,650c93cdf4b8742fb9882770,2024-02-22_05h17.09.626,kallum_motion_pilot,2023.2.2,Win32,60.24096386,650c93cdf4b8742fb9882770,65d6bb0e977760de756971f7,65d6bc98d6d44d58ce21bb8a,0.1304,0.1307,1,72,234,49,1,onethree,,,,,,,,,,,,,,,,,,,,,,,,,,,,,,,,,,,,,,,,,,,,,,,,,,,,,,,,,,,,,,,,,,,,,,,,,,,,,,,,,,,,,,,,,,,,,,,,,,,,,,,,,,,,,,,,,,,,,,,,,,,,,,,,,,,,,,,,,
,,650c93cdf4b8742fb9882770,2024-02-22_05h17.09.626,kallum_motion_pilot,2023.2.2,Win32,60.24096386,650c93cdf4b8742fb9882770,65d6bb0e977760de756971f7,65d6bc98d6d44d58ce21bb8a,0.1309,0.131,1,73,235,44,1,threeone,,,,,,,,,,,,,,,,,,,,,,,,,,,,,,,,,,,,,,,,,,,,,,,,,,,,,,,,,,,,,,,,,,,,,,,,,,,,,,,,,,,,,,,,,,,,,,,,,,,,,,,,,,,,,,,,,,,,,,,,,,,,,,,,,,,,,,,,,
,,650c93cdf4b8742fb9882770,2024-02-22_05h17.09.626,kallum_motion_pilot,2023.2.2,Win32,60.24096386,650c93cdf4b8742fb9882770,65d6bb0e977760de756971f7,65d6bc98d6d44d58ce21bb8a,0.1312,0.1313,1,74,236,91,1,sixeight,,,,,,,,,,,,,,,,,,,,,,,,,,,,,,,,,,,,,,,,,,,,,,,,,,,,,,,,,,,,,,,,,,,,,,,,,,,,,,,,,,,,,,,,,,,,,,,,,,,,,,,,,,,,,,,,,,,,,,,,,,,,,,,,,,,,,,,,,
,,650c93cdf4b8742fb9882770,2024-02-22_05h17.09.626,kallum_motion_pilot,2023.2.2,Win32,60.24096386,650c93cdf4b8742fb9882770,65d6bb0e977760de756971f7,65d6bc98d6d44d58ce21bb8a,0.1315,0.1316,1,75,237,42,1,twoone,,,,,,,,,,,,,,,,,,,,,,,,,,,,,,,,,,,,,,,,,,,,,,,,,,,,,,,,,,,,,,,,,,,,,,,,,,,,,,,,,,,,,,,,,,,,,,,,,,,,,,,,,,,,,,,,,,,,,,,,,,,,,,,,,,,,,,,,,
,,650c93cdf4b8742fb9882770,2024-02-22_05h17.09.626,kallum_motion_pilot,2023.2.2,Win32,60.24096386,650c93cdf4b8742fb9882770,65d6bb0e977760de756971f7,65d6bc98d6d44d58ce21bb8a,0.1318,0.1319,1,76,238,108,1,sevenfive,,,,,,,,,,,,,,,,,,,,,,,,,,,,,,,,,,,,,,,,,,,,,,,,,,,,,,,,,,,,,,,,,,,,,,,,,,,,,,,,,,,,,,,,,,,,,,,,,,,,,,,,,,,,,,,,,,,,,,,,,,,,,,,,,,,,,,,,,
,,650c93cdf4b8742fb9882770,2024-02-22_05h17.09.626,kallum_motion_pilot,2023.2.2,Win32,60.24096386,650c93cdf4b8742fb9882770,65d6bb0e977760de756971f7,65d6bc98d6d44d58ce21bb8a,0.1321,0.1323,1,77,239,104,1,fivesix,,,,,,,,,,,,,,,,,,,,,,,,,,,,,,,,,,,,,,,,,,,,,,,,,,,,,,,,,,,,,,,,,,,,,,,,,,,,,,,,,,,,,,,,,,,,,,,,,,,,,,,,,,,,,,,,,,,,,,,,,,,,,,,,,,,,,,,,,
,,650c93cdf4b8742fb9882770,2024-02-22_05h17.09.626,kallum_motion_pilot,2023.2.2,Win32,60.24096386,650c93cdf4b8742fb9882770,65d6bb0e977760de756971f7,65d6bc98d6d44d58ce21bb8a,0.1324,0.1326,1,78,240,102,1,eightsix,,,,,,,,,,,,,,,,,,,,,,,,,,,,,,,,,,,,,,,,,,,,,,,,,,,,,,,,,,,,,,,,,,,,,,,,,,,,,,,,,,,,,,,,,,,,,,,,,,,,,,,,,,,,,,,,,,,,,,,,,,,,,,,,,,,,,,,,,
,,650c93cdf4b8742fb9882770,2024-02-22_05h17.09.626,kallum_motion_pilot,2023.2.2,Win32,60.24096386,650c93cdf4b8742fb9882770,65d6bb0e977760de756971f7,65d6bc98d6d44d58ce21bb8a,0.1327,0.1329,1,79,241,58,1,twoone,,,,,,,,,,,,,,,,,,,,,,,,,,,,,,,,,,,,,,,,,,,,,,,,,,,,,,,,,,,,,,,,,,,,,,,,,,,,,,,,,,,,,,,,,,,,,,,,,,,,,,,,,,,,,,,,,,,,,,,,,,,,,,,,,,,,,,,,,
,,650c93cdf4b8742fb9882770,2024-02-22_05h17.09.626,kallum_motion_pilot,2023.2.2,Win32,60.24096386,650c93cdf4b8742fb9882770,65d6bb0e977760de756971f7,65d6bc98d6d44d58ce21bb8a,0.133,0.1332,1,80,242,130,1,sixfive,,,,,,,,,,,,,,,,,,,,,,,,,,,,,,,,,,,,,,,,,,,,,,,,,,,,,,,,,,,,,,,,,,,,,,,,,,,,,,,,,,,,,,,,,,,,,,,,,,,,,,,,,,,,,,,,,,,,,,,,,,,,,,,,,,,,,,,,,
,,650c93cdf4b8742fb9882770,2024-02-22_05h17.09.626,kallum_motion_pilot,2023.2.2,Win32,60.24096386,650c93cdf4b8742fb9882770,65d6bb0e977760de756971f7,65d6bc98d6d44d58ce21bb8a,0.1333,0.1334,1,81,243,0,1,onetwo,,,,,,,,,,,,,,,,,,,,,,,,,,,,,,,,,,,,,,,,,,,,,,,,,,,,,,,,,,,,,,,,,,,,,,,,,,,,,,,,,,,,,,,,,,,,,,,,,,,,,,,,,,,,,,,,,,,,,,,,,,,,,,,,,,,,,,,,,
,,650c93cdf4b8742fb9882770,2024-02-22_05h17.09.626,kallum_motion_pilot,2023.2.2,Win32,60.24096386,650c93cdf4b8742fb9882770,65d6bb0e977760de756971f7,65d6bc98d6d44d58ce21bb8a,0.1336,0.1338,1,82,244,39,1,fourthree,,,,,,,,,,,,,,,,,,,,,,,,,,,,,,,,,,,,,,,,,,,,,,,,,,,,,,,,,,,,,,,,,,,,,,,,,,,,,,,,,,,,,,,,,,,,,,,,,,,,,,,,,,,,,,,,,,,,,,,,,,,,,,,,,,,,,,,,,
,,650c93cdf4b8742fb9882770,2024-02-22_05h17.09.626,kallum_motion_pilot,2023.2.2,Win32,60.24096386,650c93cdf4b8742fb9882770,65d6bb0e977760de756971f7,65d6bc98d6d44d58ce21bb8a,0.1339,0.1341,1,83,245,133,1,seveneight,,,,,,,,,,,,,,,,,,,,,,,,,,,,,,,,,,,,,,,,,,,,,,,,,,,,,,,,,,,,,,,,,,,,,,,,,,,,,,,,,,,,,,,,,,,,,,,,,,,,,,,,,,,,,,,,,,,,,,,,,,,,,,,,,,,,,,,,,
,,650c93cdf4b8742fb9882770,2024-02-22_05h17.09.626,kallum_motion_pilot,2023.2.2,Win32,60.24096386,650c93cdf4b8742fb9882770,65d6bb0e977760de756971f7,65d6bc98d6d44d58ce21bb8a,0.1342,0.1344,1,84,246,1,1,onethree,,,,,,,,,,,,,,,,,,,,,,,,,,,,,,,,,,,,,,,,,,,,,,,,,,,,,,,,,,,,,,,,,,,,,,,,,,,,,,,,,,,,,,,,,,,,,,,,,,,,,,,,,,,,,,,,,,,,,,,,,,,,,,,,,,,,,,,,,
,,650c93cdf4b8742fb9882770,2024-02-22_05h17.09.626,kallum_motion_pilot,2023.2.2,Win32,60.24096386,650c93cdf4b8742fb9882770,65d6bb0e977760de756971f7,65d6bc98d6d44d58ce21bb8a,0.1346,0.1347,1,85,247,151,1,eightseven,,,,,,,,,,,,,,,,,,,,,,,,,,,,,,,,,,,,,,,,,,,,,,,,,,,,,,,,,,,,,,,,,,,,,,,,,,,,,,,,,,,,,,,,,,,,,,,,,,,,,,,,,,,,,,,,,,,,,,,,,,,,,,,,,,,,,,,,,
,,650c93cdf4b8742fb9882770,2024-02-22_05h17.09.626,kallum_motion_pilot,2023.2.2,Win32,60.24096386,650c93cdf4b8742fb9882770,65d6bb0e977760de756971f7,65d6bc98d6d44d58ce21bb8a,0.1348,0.135,1,86,248,32,1,onetwo,,,,,,,,,,,,,,,,,,,,,,,,,,,,,,,,,,,,,,,,,,,,,,,,,,,,,,,,,,,,,,,,,,,,,,,,,,,,,,,,,,,,,,,,,,,,,,,,,,,,,,,,,,,,,,,,,,,,,,,,,,,,,,,,,,,,,,,,,
,,650c93cdf4b8742fb9882770,2024-02-22_05h17.09.626,kallum_motion_pilot,2023.2.2,Win32,60.24096386,650c93cdf4b8742fb9882770,65d6bb0e977760de756971f7,65d6bc98d6d44d58ce21bb8a,0.1352,0.1354,1,87,249,147,1,sixeight,,,,,,,,,,,,,,,,,,,,,,,,,,,,,,,,,,,,,,,,,,,,,,,,,,,,,,,,,,,,,,,,,,,,,,,,,,,,,,,,,,,,,,,,,,,,,,,,,,,,,,,,,,,,,,,,,,,,,,,,,,,,,,,,,,,,,,,,,
,,650c93cdf4b8742fb9882770,2024-02-22_05h17.09.626,kallum_motion_pilot,2023.2.2,Win32,60.24096386,650c93cdf4b8742fb9882770,65d6bb0e977760de756971f7,65d6bc98d6d44d58ce21bb8a,0.1354,0.1356,1,88,250,60,1,threeone,,,,,,,,,,,,,,,,,,,,,,,,,,,,,,,,,,,,,,,,,,,,,,,,,,,,,,,,,,,,,,,,,,,,,,,,,,,,,,,,,,,,,,,,,,,,,,,,,,,,,,,,,,,,,,,,,,,,,,,,,,,,,,,,,,,,,,,,,
,,650c93cdf4b8742fb9882770,2024-02-22_05h17.09.626,kallum_motion_pilot,2023.2.2,Win32,60.24096386,650c93cdf4b8742fb9882770,65d6bb0e977760de756971f7,65d6bc98d6d44d58ce21bb8a,0.1364,0.1367,1,89,251,41,1,onethree,,,,,,,,,,,,,,,,,,,,,,,,,,,,,,,,,,,,,,,,,,,,,,,,,,,,,,,,,,,,,,,,,,,,,,,,,,,,,,,,,,,,,,,,,,,,,,,,,,,,,,,,,,,,,,,,,,,,,,,,,,,,,,,,,,,,,,,,,
,,650c93cdf4b8742fb9882770,2024-02-22_05h17.09.626,kallum_motion_pilot,2023.2.2,Win32,60.24096386,650c93cdf4b8742fb9882770,65d6bb0e977760de756971f7,65d6bc98d6d44d58ce21bb8a,0.1374,0.1381,1,90,252,4,1,threeone,,,,,,,,,,,,,,,,,,,,,,,,,,,,,,,,,,,,,,,,,,,,,,,,,,,,,,,,,,,,,,,,,,,,,,,,,,,,,,,,,,,,,,,,,,,,,,,,,,,,,,,,,,,,,,,,,,,,,,,,,,,,,,,,,,,,,,,,,
,,650c93cdf4b8742fb9882770,2024-02-22_05h17.09.626,kallum_motion_pilot,2023.2.2,Win32,60.24096386,650c93cdf4b8742fb9882770,65d6bb0e977760de756971f7,65d6bc98d6d44d58ce21bb8a,0.1385,0.1386,1,91,253,43,1,twofour,,,,,,,,,,,,,,,,,,,,,,,,,,,,,,,,,,,,,,,,,,,,,,,,,,,,,,,,,,,,,,,,,,,,,,,,,,,,,,,,,,,,,,,,,,,,,,,,,,,,,,,,,,,,,,,,,,,,,,,,,,,,,,,,,,,,,,,,,
,,650c93cdf4b8742fb9882770,2024-02-22_05h17.09.626,kallum_motion_pilot,2023.2.2,Win32,60.24096386,650c93cdf4b8742fb9882770,65d6bb0e977760de756971f7,65d6bc98d6d44d58ce21bb8a,0.1388,0.139,1,92,254,95,1,eightseven,,,,,,,,,,,,,,,,,,,,,,,,,,,,,,,,,,,,,,,,,,,,,,,,,,,,,,,,,,,,,,,,,,,,,,,,,,,,,,,,,,,,,,,,,,,,,,,,,,,,,,,,,,,,,,,,,,,,,,,,,,,,,,,,,,,,,,,,,
,,650c93cdf4b8742fb9882770,2024-02-22_05h17.09.626,kallum_motion_pilot,2023.2.2,Win32,60.24096386,650c93cdf4b8742fb9882770,65d6bb0e977760de756971f7,65d6bc98d6d44d58ce21bb8a,0.1393,0.1396,1,93,255,20,1,threeone,,,,,,,,,,,,,,,,,,,,,,,,,,,,,,,,,,,,,,,,,,,,,,,,,,,,,,,,,,,,,,,,,,,,,,,,,,,,,,,,,,,,,,,,,,,,,,,,,,,,,,,,,,,,,,,,,,,,,,,,,,,,,,,,,,,,,,,,,
,,650c93cdf4b8742fb9882770,2024-02-22_05h17.09.626,kallum_motion_pilot,2023.2.2,Win32,60.24096386,650c93cdf4b8742fb9882770,65d6bb0e977760de756971f7,65d6bc98d6d44d58ce21bb8a,0.1398,0.14,1,94,256,136,1,fivesix,,,,,,,,,,,,,,,,,,,,,,,,,,,,,,,,,,,,,,,,,,,,,,,,,,,,,,,,,,,,,,,,,,,,,,,,,,,,,,,,,,,,,,,,,,,,,,,,,,,,,,,,,,,,,,,,,,,,,,,,,,,,,,,,,,,,,,,,,
,,650c93cdf4b8742fb9882770,2024-02-22_05h17.09.626,kallum_motion_pilot,2023.2.2,Win32,60.24096386,650c93cdf4b8742fb9882770,65d6bb0e977760de756971f7,65d6bc98d6d44d58ce21bb8a,0.1402,0.1404,1,95,257,139,1,sixeight,,,,,,,,,,,,,,,,,,,,,,,,,,,,,,,,,,,,,,,,,,,,,,,,,,,,,,,,,,,,,,,,,,,,,,,,,,,,,,,,,,,,,,,,,,,,,,,,,,,,,,,,,,,,,,,,,,,,,,,,,,,,,,,,,,,,,,,,,
,,650c93cdf4b8742fb9882770,2024-02-22_05h17.09.626,kallum_motion_pilot,2023.2.2,Win32,60.24096386,650c93cdf4b8742fb9882770,65d6bb0e977760de756971f7,65d6bc98d6d44d58ce21bb8a,0.1405,0.1407,1,96,258,8,1,onetwo,,,,,,,,,,,,,,,,,,,,,,,,,,,,,,,,,,,,,,,,,,,,,,,,,,,,,,,,,,,,,,,,,,,,,,,,,,,,,,,,,,,,,,,,,,,,,,,,,,,,,,,,,,,,,,,,,,,,,,,,,,,,,,,,,,,,,,,,,
,,650c93cdf4b8742fb9882770,2024-02-22_05h17.09.626,kallum_motion_pilot,2023.2.2,Win32,60.24096386,650c93cdf4b8742fb9882770,65d6bb0e977760de756971f7,65d6bc98d6d44d58ce21bb8a,0.1409,0.1412,1,97,259,53,1,threefour,,,,,,,,,,,,,,,,,,,,,,,,,,,,,,,,,,,,,,,,,,,,,,,,,,,,,,,,,,,,,,,,,,,,,,,,,,,,,,,,,,,,,,,,,,,,,,,,,,,,,,,,,,,,,,,,,,,,,,,,,,,,,,,,,,,,,,,,,
,,650c93cdf4b8742fb9882770,2024-02-22_05h17.09.626,kallum_motion_pilot,2023.2.2,Win32,60.24096386,650c93cdf4b8742fb9882770,65d6bb0e977760de756971f7,65d6bc98d6d44d58ce21bb8a,0.1414,0.1416,1,98,260,134,1,eightsix,,,,,,,,,,,,,,,,,,,,,,,,,,,,,,,,,,,,,,,,,,,,,,,,,,,,,,,,,,,,,,,,,,,,,,,,,,,,,,,,,,,,,,,,,,,,,,,,,,,,,,,,,,,,,,,,,,,,,,,,,,,,,,,,,,,,,,,,,
,,650c93cdf4b8742fb9882770,2024-02-22_05h17.09.626,kallum_motion_pilot,2023.2.2,Win32,60.24096386,650c93cdf4b8742fb9882770,65d6bb0e977760de756971f7,65d6bc98d6d44d58ce21bb8a,0.1418,0.142,1,99,261,100,1,sevenfive,,,,,,,,,,,,,,,,,,,,,,,,,,,,,,,,,,,,,,,,,,,,,,,,,,,,,,,,,,,,,,,,,,,,,,,,,,,,,,,,,,,,,,,,,,,,,,,,,,,,,,,,,,,,,,,,,,,,,,,,,,,,,,,,,,,,,,,,,
,,650c93cdf4b8742fb9882770,2024-02-22_05h17.09.626,kallum_motion_pilot,2023.2.2,Win32,60.24096386,650c93cdf4b8742fb9882770,65d6bb0e977760de756971f7,65d6bc98d6d44d58ce21bb8a,0.1422,0.1424,1,100,262,123,1,sixeight,,,,,,,,,,,,,,,,,,,,,,,,,,,,,,,,,,,,,,,,,,,,,,,,,,,,,,,,,,,,,,,,,,,,,,,,,,,,,,,,,,,,,,,,,,,,,,,,,,,,,,,,,,,,,,,,,,,,,,,,,,,,,,,,,,,,,,,,,
,,650c93cdf4b8742fb9882770,2024-02-22_05h17.09.626,kallum_motion_pilot,2023.2.2,Win32,60.24096386,650c93cdf4b8742fb9882770,65d6bb0e977760de756971f7,65d6bc98d6d44d58ce21bb8a,0.1426,0.1428,1,101,263,118,1,eightsix,,,,,,,,,,,,,,,,,,,,,,,,,,,,,,,,,,,,,,,,,,,,,,,,,,,,,,,,,,,,,,,,,,,,,,,,,,,,,,,,,,,,,,,,,,,,,,,,,,,,,,,,,,,,,,,,,,,,,,,,,,,,,,,,,,,,,,,,,
,,650c93cdf4b8742fb9882770,2024-02-22_05h17.09.626,kallum_motion_pilot,2023.2.2,Win32,60.24096386,650c93cdf4b8742fb9882770,65d6bb0e977760de756971f7,65d6bc98d6d44d58ce21bb8a,0.143,0.1433,1,102,264,52,1,threeone,,,,,,,,,,,,,,,,,,,,,,,,,,,,,,,,,,,,,,,,,,,,,,,,,,,,,,,,,,,,,,,,,,,,,,,,,,,,,,,,,,,,,,,,,,,,,,,,,,,,,,,,,,,,,,,,,,,,,,,,,,,,,,,,,,,,,,,,,
,,650c93cdf4b8742fb9882770,2024-02-22_05h17.09.626,kallum_motion_pilot,2023.2.2,Win32,60.24096386,650c93cdf4b8742fb9882770,65d6bb0e977760de756971f7,65d6bc98d6d44d58ce21bb8a,0.1435,0.1438,1,103,265,105,1,fiveseven,,,,,,,,,,,,,,,,,,,,,,,,,,,,,,,,,,,,,,,,,,,,,,,,,,,,,,,,,,,,,,,,,,,,,,,,,,,,,,,,,,,,,,,,,,,,,,,,,,,,,,,,,,,,,,,,,,,,,,,,,,,,,,,,,,,,,,,,,
,,650c93cdf4b8742fb9882770,2024-02-22_05h17.09.626,kallum_motion_pilot,2023.2.2,Win32,60.24096386,650c93cdf4b8742fb9882770,65d6bb0e977760de756971f7,65d6bc98d6d44d58ce21bb8a,0.144,0.1446,1,104,266,19,1,twofour,,,,,,,,,,,,,,,,,,,,,,,,,,,,,,,,,,,,,,,,,,,,,,,,,,,,,,,,,,,,,,,,,,,,,,,,,,,,,,,,,,,,,,,,,,,,,,,,,,,,,,,,,,,,,,,,,,,,,,,,,,,,,,,,,,,,,,,,,
,,650c93cdf4b8742fb9882770,2024-02-22_05h17.09.626,kallum_motion_pilot,2023.2.2,Win32,60.24096386,650c93cdf4b8742fb9882770,65d6bb0e977760de756971f7,65d6bc98d6d44d58ce21bb8a,0.1449,0.1452,1,105,267,37,1,threefour,,,,,,,,,,,,,,,,,,,,,,,,,,,,,,,,,,,,,,,,,,,,,,,,,,,,,,,,,,,,,,,,,,,,,,,,,,,,,,,,,,,,,,,,,,,,,,,,,,,,,,,,,,,,,,,,,,,,,,,,,,,,,,,,,,,,,,,,,
,,650c93cdf4b8742fb9882770,2024-02-22_05h17.09.626,kallum_motion_pilot,2023.2.2,Win32,60.24096386,650c93cdf4b8742fb9882770,65d6bb0e977760de756971f7,65d6bc98d6d44d58ce21bb8a,0.1455,0.1457,1,106,268,31,1,fourthree,,,,,,,,,,,,,,,,,,,,,,,,,,,,,,,,,,,,,,,,,,,,,,,,,,,,,,,,,,,,,,,,,,,,,,,,,,,,,,,,,,,,,,,,,,,,,,,,,,,,,,,,,,,,,,,,,,,,,,,,,,,,,,,,,,,,,,,,,
,,650c93cdf4b8742fb9882770,2024-02-22_05h17.09.626,kallum_motion_pilot,2023.2.2,Win32,60.24096386,650c93cdf4b8742fb9882770,65d6bb0e977760de756971f7,65d6bc98d6d44d58ce21bb8a,0.1459,0.1461,1,107,269,150,1,eightsix,,,,,,,,,,,,,,,,,,,,,,,,,,,,,,,,,,,,,,,,,,,,,,,,,,,,,,,,,,,,,,,,,,,,,,,,,,,,,,,,,,,,,,,,,,,,,,,,,,,,,,,,,,,,,,,,,,,,,,,,,,,,,,,,,,,,,,,,,
,,650c93cdf4b8742fb9882770,2024-02-22_05h17.09.626,kallum_motion_pilot,2023.2.2,Win32,60.24096386,650c93cdf4b8742fb9882770,65d6bb0e977760de756971f7,65d6bc98d6d44d58ce21bb8a,0.1462,0.1463,1,108,270,71,1,fourthree,,,,,,,,,,,,,,,,,,,,,,,,,,,,,,,,,,,,,,,,,,,,,,,,,,,,,,,,,,,,,,,,,,,,,,,,,,,,,,,,,,,,,,,,,,,,,,,,,,,,,,,,,,,,,,,,,,,,,,,,,,,,,,,,,,,,,,,,,
,,650c93cdf4b8742fb9882770,2024-02-22_05h17.09.626,kallum_motion_pilot,2023.2.2,Win32,60.24096386,650c93cdf4b8742fb9882770,65d6bb0e977760de756971f7,65d6bc98d6d44d58ce21bb8a,0.1465,0.1467,1,109,271,63,1,fourthree,,,,,,,,,,,,,,,,,,,,,,,,,,,,,,,,,,,,,,,,,,,,,,,,,,,,,,,,,,,,,,,,,,,,,,,,,,,,,,,,,,,,,,,,,,,,,,,,,,,,,,,,,,,,,,,,,,,,,,,,,,,,,,,,,,,,,,,,,
,,650c93cdf4b8742fb9882770,2024-02-22_05h17.09.626,kallum_motion_pilot,2023.2.2,Win32,60.24096386,650c93cdf4b8742fb9882770,65d6bb0e977760de756971f7,65d6bc98d6d44d58ce21bb8a,0.1469,0.147,1,110,272,68,1,threeone,,,,,,,,,,,,,,,,,,,,,,,,,,,,,,,,,,,,,,,,,,,,,,,,,,,,,,,,,,,,,,,,,,,,,,,,,,,,,,,,,,,,,,,,,,,,,,,,,,,,,,,,,,,,,,,,,,,,,,,,,,,,,,,,,,,,,,,,,
,,650c93cdf4b8742fb9882770,2024-02-22_05h17.09.626,kallum_motion_pilot,2023.2.2,Win32,60.24096386,650c93cdf4b8742fb9882770,65d6bb0e977760de756971f7,65d6bc98d6d44d58ce21bb8a,0.1472,0.1474,1,111,273,92,1,sevenfive,,,,,,,,,,,,,,,,,,,,,,,,,,,,,,,,,,,,,,,,,,,,,,,,,,,,,,,,,,,,,,,,,,,,,,,,,,,,,,,,,,,,,,,,,,,,,,,,,,,,,,,,,,,,,,,,,,,,,,,,,,,,,,,,,,,,,,,,,
,,650c93cdf4b8742fb9882770,2024-02-22_05h17.09.626,kallum_motion_pilot,2023.2.2,Win32,60.24096386,650c93cdf4b8742fb9882770,65d6bb0e977760de756971f7,65d6bc98d6d44d58ce21bb8a,0.1475,0.1477,1,112,274,27,1,twofour,,,,,,,,,,,,,,,,,,,,,,,,,,,,,,,,,,,,,,,,,,,,,,,,,,,,,,,,,,,,,,,,,,,,,,,,,,,,,,,,,,,,,,,,,,,,,,,,,,,,,,,,,,,,,,,,,,,,,,,,,,,,,,,,,,,,,,,,,
,,650c93cdf4b8742fb9882770,2024-02-22_05h17.09.626,kallum_motion_pilot,2023.2.2,Win32,60.24096386,650c93cdf4b8742fb9882770,65d6bb0e977760de756971f7,65d6bc98d6d44d58ce21bb8a,0.1479,0.1481,1,113,275,86,1,eightsix,,,,,,,,,,,,,,,,,,,,,,,,,,,,,,,,,,,,,,,,,,,,,,,,,,,,,,,,,,,,,,,,,,,,,,,,,,,,,,,,,,,,,,,,,,,,,,,,,,,,,,,,,,,,,,,,,,,,,,,,,,,,,,,,,,,,,,,,,
,,650c93cdf4b8742fb9882770,2024-02-22_05h17.09.626,kallum_motion_pilot,2023.2.2,Win32,60.24096386,650c93cdf4b8742fb9882770,65d6bb0e977760de756971f7,65d6bc98d6d44d58ce21bb8a,0.1484,0.1485,1,114,276,33,1,onethree,,,,,,,,,,,,,,,,,,,,,,,,,,,,,,,,,,,,,,,,,,,,,,,,,,,,,,,,,,,,,,,,,,,,,,,,,,,,,,,,,,,,,,,,,,,,,,,,,,,,,,,,,,,,,,,,,,,,,,,,,,,,,,,,,,,,,,,,,
,,650c93cdf4b8742fb9882770,2024-02-22_05h17.09.626,kallum_motion_pilot,2023.2.2,Win32,60.24096386,650c93cdf4b8742fb9882770,65d6bb0e977760de756971f7,65d6bc98d6d44d58ce21bb8a,0.1487,0.1489,1,115,277,88,1,fivesix,,,,,,,,,,,,,,,,,,,,,,,,,,,,,,,,,,,,,,,,,,,,,,,,,,,,,,,,,,,,,,,,,,,,,,,,,,,,,,,,,,,,,,,,,,,,,,,,,,,,,,,,,,,,,,,,,,,,,,,,,,,,,,,,,,,,,,,,,
