startup.started,startup.stopped,Prolific ID*,date,expName,psychopyVersion,OS,frameRate,participant,study_id,session,stimpositions.started,stimpositions.stopped,hardcoded_stimulus_positions.thisRepN,hardcoded_stimulus_positions.thisTrialN,hardcoded_stimulus_positions.thisN,hardcoded_stimulus_positions.thisIndex,hardcoded_stimulus_positions.ran,StimulusPos,stimorientation.started,stimorientation.stopped,prac_stimorientation_import_loop.thisRepN,prac_stimorientation_import_loop.thisTrialN,prac_stimorientation_import_loop.thisN,prac_stimorientation_import_loop.thisIndex,prac_stimorientation_import_loop.ran,Stimorientation,welcome_instr.started,welcome_instr.stopped,key_resp.keys,key_resp.rt,key_resp.duration,response_steppedout_1.started,response_steppedout_1.stopped,key_resp_20.keys,key_resp_20.rt,key_resp_20.duration,response_steppedout_2.started,response_steppedout_2.stopped,key_resp_19.keys,key_resp_19.rt,key_resp_19.duration,stim_response_instr.started,stim_response_instr.stopped,key_resp_15.keys,key_resp_15.rt,key_resp_15.duration,direction_instr_2.started,direction_instr_2.stopped,key_resp_9.keys,key_resp_9.rt,key_resp_9.duration,instr_prac.started,instr_prac.stopped,key_resp_10.keys,key_resp_10.rt,key_resp_10.duration,Stim1_display_prac.started,Stim1_display_prac.stopped,Ecc,Circle1_ori,Circle2_ori,response_prac.started,similarity,response_time,response_prac.stopped,mouse_5.x,mouse_5.y,mouse_5.leftButton,mouse_5.midButton,mouse_5.rightButton,mouse_5.clicked_name,responseprac_feedback.started,responseprac_feedback.stopped,summary2_prac.started,summary2_prac.stopped,mouse_6.x,mouse_6.y,mouse_6.leftButton,mouse_6.midButton,mouse_6.rightButton,mouse_6.clicked_name,duringprac.thisRepN,duringprac.thisTrialN,duringprac.thisN,duringprac.thisIndex,duringprac.ran,begin.started,begin.stopped,key_resp_22.keys,key_resp_22.rt,key_resp_22.duration,Stim1_display.started,Stim1_display.stopped,circle1_ori,circle2_ori,circle1_SF,circle2_SF,response.started,response.stopped,mouse.x,mouse.y,mouse.leftButton,mouse.midButton,mouse.rightButton,mouse.clicked_name,trialnumber,double_pass.thisRepN,double_pass.thisTrialN,double_pass.thisN,double_pass.thisIndex,double_pass.ran,double_pass.order,main_trial.thisRepN,main_trial.thisTrialN,main_trial.thisN,main_trial.thisIndex,main_trial.ran,main_trial.order,Trial_Counter,Catch,Frequencies,response_2.started,response_2.stopped,mouse_2.x,mouse_2.y,mouse_2.leftButton,mouse_2.midButton,mouse_2.rightButton,mouse_2.clicked_name,special_trial.started,special_trial.stopped,catch_1.started,catch_1.stopped,mouse_3.x,mouse_3.y,mouse_3.leftButton,mouse_3.midButton,mouse_3.rightButton,catchresponse,catchnumber,response_time_catch,response_sum.started,response_sum.stopped,mouse_11.x,mouse_11.y,mouse_11.leftButton,mouse_11.midButton,mouse_11.rightButton,flip_presentation_sequence_for_double_pass.started,flip_presentation_sequence_for_double_pass.stopped,goodbye.started,goodbye.stopped,key_resp_3.keys,key_resp_3.rt,key_resp_3.duration
0.0003,0.0004,6511d86a9c7ebb7a6e39920f,2024-02-18_20h15.28.819,kallum_motion_pilot,2023.2.2,Win32,59.88023952,6511d86a9c7ebb7a6e39920f,65d2b6c8f2eece985d8e374c,65d2b9b270d37fb582418463,,,,,,,,,,,,,,,,,,,,,,,,,,,,,,,,,,,,,,,,,,,,,,,,,,,,,,,,,,,,,,,,,,,,,,,,,,,,,,,,,,,,,,,,,,,,,,,,,,,,,,,,,,,,,,,,,,,,,,,,,,,,,,,,,,,,,,,,,,,,,,,,,
,,6511d86a9c7ebb7a6e39920f,2024-02-18_20h15.28.819,kallum_motion_pilot,2023.2.2,Win32,59.88023952,6511d86a9c7ebb7a6e39920f,65d2b6c8f2eece985d8e374c,65d2b9b270d37fb582418463,0.0204,0.0207,0,0,0,23,1,fourthree,,,,,,,,,,,,,,,,,,,,,,,,,,,,,,,,,,,,,,,,,,,,,,,,,,,,,,,,,,,,,,,,,,,,,,,,,,,,,,,,,,,,,,,,,,,,,,,,,,,,,,,,,,,,,,,,,,,,,,,,,,,,,,,,,,,,,,,,,
,,6511d86a9c7ebb7a6e39920f,2024-02-18_20h15.28.819,kallum_motion_pilot,2023.2.2,Win32,59.88023952,6511d86a9c7ebb7a6e39920f,65d2b6c8f2eece985d8e374c,65d2b9b270d37fb582418463,0.0209,0.0209,0,1,1,109,1,seveneight,,,,,,,,,,,,,,,,,,,,,,,,,,,,,,,,,,,,,,,,,,,,,,,,,,,,,,,,,,,,,,,,,,,,,,,,,,,,,,,,,,,,,,,,,,,,,,,,,,,,,,,,,,,,,,,,,,,,,,,,,,,,,,,,,,,,,,,,,
,,6511d86a9c7ebb7a6e39920f,2024-02-18_20h15.28.819,kallum_motion_pilot,2023.2.2,Win32,59.88023952,6511d86a9c7ebb7a6e39920f,65d2b6c8f2eece985d8e374c,65d2b9b270d37fb582418463,0.0211,0.0212,0,2,2,54,1,fourtwo,,,,,,,,,,,,,,,,,,,,,,,,,,,,,,,,,,,,,,,,,,,,,,,,,,,,,,,,,,,,,,,,,,,,,,,,,,,,,,,,,,,,,,,,,,,,,,,,,,,,,,,,,,,,,,,,,,,,,,,,,,,,,,,,,,,,,,,,,
,,6511d86a9c7ebb7a6e39920f,2024-02-18_20h15.28.819,kallum_motion_pilot,2023.2.2,Win32,59.88023952,6511d86a9c7ebb7a6e39920f,65d2b6c8f2eece985d8e374c,65d2b9b270d37fb582418463,0.0213,0.0214,0,3,3,35,1,twofour,,,,,,,,,,,,,,,,,,,,,,,,,,,,,,,,,,,,,,,,,,,,,,,,,,,,,,,,,,,,,,,,,,,,,,,,,,,,,,,,,,,,,,,,,,,,,,,,,,,,,,,,,,,,,,,,,,,,,,,,,,,,,,,,,,,,,,,,,
,,6511d86a9c7ebb7a6e39920f,2024-02-18_20h15.28.819,kallum_motion_pilot,2023.2.2,Win32,59.88023952,6511d86a9c7ebb7a6e39920f,65d2b6c8f2eece985d8e374c,65d2b9b270d37fb582418463,0.0215,0.0216,0,4,4,138,1,sixfive,,,,,,,,,,,,,,,,,,,,,,,,,,,,,,,,,,,,,,,,,,,,,,,,,,,,,,,,,,,,,,,,,,,,,,,,,,,,,,,,,,,,,,,,,,,,,,,,,,,,,,,,,,,,,,,,,,,,,,,,,,,,,,,,,,,,,,,,,
,,6511d86a9c7ebb7a6e39920f,2024-02-18_20h15.28.819,kallum_motion_pilot,2023.2.2,Win32,59.88023952,6511d86a9c7ebb7a6e39920f,65d2b6c8f2eece985d8e374c,65d2b9b270d37fb582418463,0.0218,0.0218,0,5,5,146,1,sixfive,,,,,,,,,,,,,,,,,,,,,,,,,,,,,,,,,,,,,,,,,,,,,,,,,,,,,,,,,,,,,,,,,,,,,,,,,,,,,,,,,,,,,,,,,,,,,,,,,,,,,,,,,,,,,,,,,,,,,,,,,,,,,,,,,,,,,,,,,
,,6511d86a9c7ebb7a6e39920f,2024-02-18_20h15.28.819,kallum_motion_pilot,2023.2.2,Win32,59.88023952,6511d86a9c7ebb7a6e39920f,65d2b6c8f2eece985d8e374c,65d2b9b270d37fb582418463,0.022,0.022,0,6,6,59,1,twofour,,,,,,,,,,,,,,,,,,,,,,,,,,,,,,,,,,,,,,,,,,,,,,,,,,,,,,,,,,,,,,,,,,,,,,,,,,,,,,,,,,,,,,,,,,,,,,,,,,,,,,,,,,,,,,,,,,,,,,,,,,,,,,,,,,,,,,,,,
,,6511d86a9c7ebb7a6e39920f,2024-02-18_20h15.28.819,kallum_motion_pilot,2023.2.2,Win32,59.88023952,6511d86a9c7ebb7a6e39920f,65d2b6c8f2eece985d8e374c,65d2b9b270d37fb582418463,0.022,0.0221,0,7,7,151,1,eightseven,,,,,,,,,,,,,,,,,,,,,,,,,,,,,,,,,,,,,,,,,,,,,,,,,,,,,,,,,,,,,,,,,,,,,,,,,,,,,,,,,,,,,,,,,,,,,,,,,,,,,,,,,,,,,,,,,,,,,,,,,,,,,,,,,,,,,,,,,
,,6511d86a9c7ebb7a6e39920f,2024-02-18_20h15.28.819,kallum_motion_pilot,2023.2.2,Win32,59.88023952,6511d86a9c7ebb7a6e39920f,65d2b6c8f2eece985d8e374c,65d2b9b270d37fb582418463,0.0222,0.0222,0,8,8,132,1,sevenfive,,,,,,,,,,,,,,,,,,,,,,,,,,,,,,,,,,,,,,,,,,,,,,,,,,,,,,,,,,,,,,,,,,,,,,,,,,,,,,,,,,,,,,,,,,,,,,,,,,,,,,,,,,,,,,,,,,,,,,,,,,,,,,,,,,,,,,,,,
,,6511d86a9c7ebb7a6e39920f,2024-02-18_20h15.28.819,kallum_motion_pilot,2023.2.2,Win32,59.88023952,6511d86a9c7ebb7a6e39920f,65d2b6c8f2eece985d8e374c,65d2b9b270d37fb582418463,0.0224,0.0224,0,9,9,44,1,threeone,,,,,,,,,,,,,,,,,,,,,,,,,,,,,,,,,,,,,,,,,,,,,,,,,,,,,,,,,,,,,,,,,,,,,,,,,,,,,,,,,,,,,,,,,,,,,,,,,,,,,,,,,,,,,,,,,,,,,,,,,,,,,,,,,,,,,,,,,
,,6511d86a9c7ebb7a6e39920f,2024-02-18_20h15.28.819,kallum_motion_pilot,2023.2.2,Win32,59.88023952,6511d86a9c7ebb7a6e39920f,65d2b6c8f2eece985d8e374c,65d2b9b270d37fb582418463,0.0225,0.0225,0,10,10,149,1,seveneight,,,,,,,,,,,,,,,,,,,,,,,,,,,,,,,,,,,,,,,,,,,,,,,,,,,,,,,,,,,,,,,,,,,,,,,,,,,,,,,,,,,,,,,,,,,,,,,,,,,,,,,,,,,,,,,,,,,,,,,,,,,,,,,,,,,,,,,,,
,,6511d86a9c7ebb7a6e39920f,2024-02-18_20h15.28.819,kallum_motion_pilot,2023.2.2,Win32,59.88023952,6511d86a9c7ebb7a6e39920f,65d2b6c8f2eece985d8e374c,65d2b9b270d37fb582418463,0.0226,0.0226,0,11,11,42,1,twoone,,,,,,,,,,,,,,,,,,,,,,,,,,,,,,,,,,,,,,,,,,,,,,,,,,,,,,,,,,,,,,,,,,,,,,,,,,,,,,,,,,,,,,,,,,,,,,,,,,,,,,,,,,,,,,,,,,,,,,,,,,,,,,,,,,,,,,,,,
,,6511d86a9c7ebb7a6e39920f,2024-02-18_20h15.28.819,kallum_motion_pilot,2023.2.2,Win32,59.88023952,6511d86a9c7ebb7a6e39920f,65d2b6c8f2eece985d8e374c,65d2b9b270d37fb582418463,0.0227,0.0227,0,12,12,104,1,fivesix,,,,,,,,,,,,,,,,,,,,,,,,,,,,,,,,,,,,,,,,,,,,,,,,,,,,,,,,,,,,,,,,,,,,,,,,,,,,,,,,,,,,,,,,,,,,,,,,,,,,,,,,,,,,,,,,,,,,,,,,,,,,,,,,,,,,,,,,,
,,6511d86a9c7ebb7a6e39920f,2024-02-18_20h15.28.819,kallum_motion_pilot,2023.2.2,Win32,59.88023952,6511d86a9c7ebb7a6e39920f,65d2b6c8f2eece985d8e374c,65d2b9b270d37fb582418463,0.0228,0.0228,0,13,13,156,1,sevenfive,,,,,,,,,,,,,,,,,,,,,,,,,,,,,,,,,,,,,,,,,,,,,,,,,,,,,,,,,,,,,,,,,,,,,,,,,,,,,,,,,,,,,,,,,,,,,,,,,,,,,,,,,,,,,,,,,,,,,,,,,,,,,,,,,,,,,,,,,
,,6511d86a9c7ebb7a6e39920f,2024-02-18_20h15.28.819,kallum_motion_pilot,2023.2.2,Win32,59.88023952,6511d86a9c7ebb7a6e39920f,65d2b6c8f2eece985d8e374c,65d2b9b270d37fb582418463,0.0229,0.0229,0,14,14,71,1,fourthree,,,,,,,,,,,,,,,,,,,,,,,,,,,,,,,,,,,,,,,,,,,,,,,,,,,,,,,,,,,,,,,,,,,,,,,,,,,,,,,,,,,,,,,,,,,,,,,,,,,,,,,,,,,,,,,,,,,,,,,,,,,,,,,,,,,,,,,,,
,,6511d86a9c7ebb7a6e39920f,2024-02-18_20h15.28.819,kallum_motion_pilot,2023.2.2,Win32,59.88023952,6511d86a9c7ebb7a6e39920f,65d2b6c8f2eece985d8e374c,65d2b9b270d37fb582418463,0.0231,0.0231,0,15,15,94,1,eightsix,,,,,,,,,,,,,,,,,,,,,,,,,,,,,,,,,,,,,,,,,,,,,,,,,,,,,,,,,,,,,,,,,,,,,,,,,,,,,,,,,,,,,,,,,,,,,,,,,,,,,,,,,,,,,,,,,,,,,,,,,,,,,,,,,,,,,,,,,
,,6511d86a9c7ebb7a6e39920f,2024-02-18_20h15.28.819,kallum_motion_pilot,2023.2.2,Win32,59.88023952,6511d86a9c7ebb7a6e39920f,65d2b6c8f2eece985d8e374c,65d2b9b270d37fb582418463,0.0231,0.0231,0,16,16,1,1,onethree,,,,,,,,,,,,,,,,,,,,,,,,,,,,,,,,,,,,,,,,,,,,,,,,,,,,,,,,,,,,,,,,,,,,,,,,,,,,,,,,,,,,,,,,,,,,,,,,,,,,,,,,,,,,,,,,,,,,,,,,,,,,,,,,,,,,,,,,,
,,6511d86a9c7ebb7a6e39920f,2024-02-18_20h15.28.819,kallum_motion_pilot,2023.2.2,Win32,59.88023952,6511d86a9c7ebb7a6e39920f,65d2b6c8f2eece985d8e374c,65d2b9b270d37fb582418463,0.0232,0.0233,0,17,17,39,1,fourthree,,,,,,,,,,,,,,,,,,,,,,,,,,,,,,,,,,,,,,,,,,,,,,,,,,,,,,,,,,,,,,,,,,,,,,,,,,,,,,,,,,,,,,,,,,,,,,,,,,,,,,,,,,,,,,,,,,,,,,,,,,,,,,,,,,,,,,,,,
,,6511d86a9c7ebb7a6e39920f,2024-02-18_20h15.28.819,kallum_motion_pilot,2023.2.2,Win32,59.88023952,6511d86a9c7ebb7a6e39920f,65d2b6c8f2eece985d8e374c,65d2b9b270d37fb582418463,0.0234,0.0235,0,18,18,32,1,onetwo,,,,,,,,,,,,,,,,,,,,,,,,,,,,,,,,,,,,,,,,,,,,,,,,,,,,,,,,,,,,,,,,,,,,,,,,,,,,,,,,,,,,,,,,,,,,,,,,,,,,,,,,,,,,,,,,,,,,,,,,,,,,,,,,,,,,,,,,,
,,6511d86a9c7ebb7a6e39920f,2024-02-18_20h15.28.819,kallum_motion_pilot,2023.2.2,Win32,59.88023952,6511d86a9c7ebb7a6e39920f,65d2b6c8f2eece985d8e374c,65d2b9b270d37fb582418463,0.0235,0.0236,0,19,19,112,1,fivesix,,,,,,,,,,,,,,,,,,,,,,,,,,,,,,,,,,,,,,,,,,,,,,,,,,,,,,,,,,,,,,,,,,,,,,,,,,,,,,,,,,,,,,,,,,,,,,,,,,,,,,,,,,,,,,,,,,,,,,,,,,,,,,,,,,,,,,,,,
,,6511d86a9c7ebb7a6e39920f,2024-02-18_20h15.28.819,kallum_motion_pilot,2023.2.2,Win32,59.88023952,6511d86a9c7ebb7a6e39920f,65d2b6c8f2eece985d8e374c,65d2b9b270d37fb582418463,0.0239,0.0239,0,20,20,107,1,sixeight,,,,,,,,,,,,,,,,,,,,,,,,,,,,,,,,,,,,,,,,,,,,,,,,,,,,,,,,,,,,,,,,,,,,,,,,,,,,,,,,,,,,,,,,,,,,,,,,,,,,,,,,,,,,,,,,,,,,,,,,,,,,,,,,,,,,,,,,,
,,6511d86a9c7ebb7a6e39920f,2024-02-18_20h15.28.819,kallum_motion_pilot,2023.2.2,Win32,59.88023952,6511d86a9c7ebb7a6e39920f,65d2b6c8f2eece985d8e374c,65d2b9b270d37fb582418463,0.024,0.024,0,21,21,10,1,twoone,,,,,,,,,,,,,,,,,,,,,,,,,,,,,,,,,,,,,,,,,,,,,,,,,,,,,,,,,,,,,,,,,,,,,,,,,,,,,,,,,,,,,,,,,,,,,,,,,,,,,,,,,,,,,,,,,,,,,,,,,,,,,,,,,,,,,,,,,
,,6511d86a9c7ebb7a6e39920f,2024-02-18_20h15.28.819,kallum_motion_pilot,2023.2.2,Win32,59.88023952,6511d86a9c7ebb7a6e39920f,65d2b6c8f2eece985d8e374c,65d2b9b270d37fb582418463,0.0242,0.0242,0,22,22,4,1,threeone,,,,,,,,,,,,,,,,,,,,,,,,,,,,,,,,,,,,,,,,,,,,,,,,,,,,,,,,,,,,,,,,,,,,,,,,,,,,,,,,,,,,,,,,,,,,,,,,,,,,,,,,,,,,,,,,,,,,,,,,,,,,,,,,,,,,,,,,,
,,6511d86a9c7ebb7a6e39920f,2024-02-18_20h15.28.819,kallum_motion_pilot,2023.2.2,Win32,59.88023952,6511d86a9c7ebb7a6e39920f,65d2b6c8f2eece985d8e374c,65d2b9b270d37fb582418463,0.0243,0.0243,0,23,23,121,1,fiveseven,,,,,,,,,,,,,,,,,,,,,,,,,,,,,,,,,,,,,,,,,,,,,,,,,,,,,,,,,,,,,,,,,,,,,,,,,,,,,,,,,,,,,,,,,,,,,,,,,,,,,,,,,,,,,,,,,,,,,,,,,,,,,,,,,,,,,,,,,
,,6511d86a9c7ebb7a6e39920f,2024-02-18_20h15.28.819,kallum_motion_pilot,2023.2.2,Win32,59.88023952,6511d86a9c7ebb7a6e39920f,65d2b6c8f2eece985d8e374c,65d2b9b270d37fb582418463,0.0243,0.0244,0,24,24,49,1,onethree,,,,,,,,,,,,,,,,,,,,,,,,,,,,,,,,,,,,,,,,,,,,,,,,,,,,,,,,,,,,,,,,,,,,,,,,,,,,,,,,,,,,,,,,,,,,,,,,,,,,,,,,,,,,,,,,,,,,,,,,,,,,,,,,,,,,,,,,,
,,6511d86a9c7ebb7a6e39920f,2024-02-18_20h15.28.819,kallum_motion_pilot,2023.2.2,Win32,59.88023952,6511d86a9c7ebb7a6e39920f,65d2b6c8f2eece985d8e374c,65d2b9b270d37fb582418463,0.026,0.026,0,25,25,41,1,onethree,,,,,,,,,,,,,,,,,,,,,,,,,,,,,,,,,,,,,,,,,,,,,,,,,,,,,,,,,,,,,,,,,,,,,,,,,,,,,,,,,,,,,,,,,,,,,,,,,,,,,,,,,,,,,,,,,,,,,,,,,,,,,,,,,,,,,,,,,
,,6511d86a9c7ebb7a6e39920f,2024-02-18_20h15.28.819,kallum_motion_pilot,2023.2.2,Win32,59.88023952,6511d86a9c7ebb7a6e39920f,65d2b6c8f2eece985d8e374c,65d2b9b270d37fb582418463,0.0263,0.0263,0,26,26,11,1,twofour,,,,,,,,,,,,,,,,,,,,,,,,,,,,,,,,,,,,,,,,,,,,,,,,,,,,,,,,,,,,,,,,,,,,,,,,,,,,,,,,,,,,,,,,,,,,,,,,,,,,,,,,,,,,,,,,,,,,,,,,,,,,,,,,,,,,,,,,,
,,6511d86a9c7ebb7a6e39920f,2024-02-18_20h15.28.819,kallum_motion_pilot,2023.2.2,Win32,59.88023952,6511d86a9c7ebb7a6e39920f,65d2b6c8f2eece985d8e374c,65d2b9b270d37fb582418463,0.0264,0.0265,0,27,27,159,1,eightseven,,,,,,,,,,,,,,,,,,,,,,,,,,,,,,,,,,,,,,,,,,,,,,,,,,,,,,,,,,,,,,,,,,,,,,,,,,,,,,,,,,,,,,,,,,,,,,,,,,,,,,,,,,,,,,,,,,,,,,,,,,,,,,,,,,,,,,,,,
,,6511d86a9c7ebb7a6e39920f,2024-02-18_20h15.28.819,kallum_motion_pilot,2023.2.2,Win32,59.88023952,6511d86a9c7ebb7a6e39920f,65d2b6c8f2eece985d8e374c,65d2b9b270d37fb582418463,0.0266,0.0266,0,28,28,135,1,eightseven,,,,,,,,,,,,,,,,,,,,,,,,,,,,,,,,,,,,,,,,,,,,,,,,,,,,,,,,,,,,,,,,,,,,,,,,,,,,,,,,,,,,,,,,,,,,,,,,,,,,,,,,,,,,,,,,,,,,,,,,,,,,,,,,,,,,,,,,,
,,6511d86a9c7ebb7a6e39920f,2024-02-18_20h15.28.819,kallum_motion_pilot,2023.2.2,Win32,59.88023952,6511d86a9c7ebb7a6e39920f,65d2b6c8f2eece985d8e374c,65d2b9b270d37fb582418463,0.0266,0.0266,0,29,29,95,1,eightseven,,,,,,,,,,,,,,,,,,,,,,,,,,,,,,,,,,,,,,,,,,,,,,,,,,,,,,,,,,,,,,,,,,,,,,,,,,,,,,,,,,,,,,,,,,,,,,,,,,,,,,,,,,,,,,,,,,,,,,,,,,,,,,,,,,,,,,,,,
,,6511d86a9c7ebb7a6e39920f,2024-02-18_20h15.28.819,kallum_motion_pilot,2023.2.2,Win32,59.88023952,6511d86a9c7ebb7a6e39920f,65d2b6c8f2eece985d8e374c,65d2b9b270d37fb582418463,0.0267,0.0267,0,30,30,38,1,fourtwo,,,,,,,,,,,,,,,,,,,,,,,,,,,,,,,,,,,,,,,,,,,,,,,,,,,,,,,,,,,,,,,,,,,,,,,,,,,,,,,,,,,,,,,,,,,,,,,,,,,,,,,,,,,,,,,,,,,,,,,,,,,,,,,,,,,,,,,,,
,,6511d86a9c7ebb7a6e39920f,2024-02-18_20h15.28.819,kallum_motion_pilot,2023.2.2,Win32,59.88023952,6511d86a9c7ebb7a6e39920f,65d2b6c8f2eece985d8e374c,65d2b9b270d37fb582418463,0.0267,0.0267,0,31,31,15,1,fourthree,,,,,,,,,,,,,,,,,,,,,,,,,,,,,,,,,,,,,,,,,,,,,,,,,,,,,,,,,,,,,,,,,,,,,,,,,,,,,,,,,,,,,,,,,,,,,,,,,,,,,,,,,,,,,,,,,,,,,,,,,,,,,,,,,,,,,,,,,
,,6511d86a9c7ebb7a6e39920f,2024-02-18_20h15.28.819,kallum_motion_pilot,2023.2.2,Win32,59.88023952,6511d86a9c7ebb7a6e39920f,65d2b6c8f2eece985d8e374c,65d2b9b270d37fb582418463,0.0268,0.0268,0,32,32,110,1,eightsix,,,,,,,,,,,,,,,,,,,,,,,,,,,,,,,,,,,,,,,,,,,,,,,,,,,,,,,,,,,,,,,,,,,,,,,,,,,,,,,,,,,,,,,,,,,,,,,,,,,,,,,,,,,,,,,,,,,,,,,,,,,,,,,,,,,,,,,,,
,,6511d86a9c7ebb7a6e39920f,2024-02-18_20h15.28.819,kallum_motion_pilot,2023.2.2,Win32,59.88023952,6511d86a9c7ebb7a6e39920f,65d2b6c8f2eece985d8e374c,65d2b9b270d37fb582418463,0.0269,0.027,0,33,33,28,1,threeone,,,,,,,,,,,,,,,,,,,,,,,,,,,,,,,,,,,,,,,,,,,,,,,,,,,,,,,,,,,,,,,,,,,,,,,,,,,,,,,,,,,,,,,,,,,,,,,,,,,,,,,,,,,,,,,,,,,,,,,,,,,,,,,,,,,,,,,,,
,,6511d86a9c7ebb7a6e39920f,2024-02-18_20h15.28.819,kallum_motion_pilot,2023.2.2,Win32,59.88023952,6511d86a9c7ebb7a6e39920f,65d2b6c8f2eece985d8e374c,65d2b9b270d37fb582418463,0.027,0.027,0,34,34,84,1,sevenfive,,,,,,,,,,,,,,,,,,,,,,,,,,,,,,,,,,,,,,,,,,,,,,,,,,,,,,,,,,,,,,,,,,,,,,,,,,,,,,,,,,,,,,,,,,,,,,,,,,,,,,,,,,,,,,,,,,,,,,,,,,,,,,,,,,,,,,,,,
,,6511d86a9c7ebb7a6e39920f,2024-02-18_20h15.28.819,kallum_motion_pilot,2023.2.2,Win32,59.88023952,6511d86a9c7ebb7a6e39920f,65d2b6c8f2eece985d8e374c,65d2b9b270d37fb582418463,0.0271,0.0271,0,35,35,153,1,fiveseven,,,,,,,,,,,,,,,,,,,,,,,,,,,,,,,,,,,,,,,,,,,,,,,,,,,,,,,,,,,,,,,,,,,,,,,,,,,,,,,,,,,,,,,,,,,,,,,,,,,,,,,,,,,,,,,,,,,,,,,,,,,,,,,,,,,,,,,,,
,,6511d86a9c7ebb7a6e39920f,2024-02-18_20h15.28.819,kallum_motion_pilot,2023.2.2,Win32,59.88023952,6511d86a9c7ebb7a6e39920f,65d2b6c8f2eece985d8e374c,65d2b9b270d37fb582418463,0.0272,0.0272,0,36,36,118,1,eightsix,,,,,,,,,,,,,,,,,,,,,,,,,,,,,,,,,,,,,,,,,,,,,,,,,,,,,,,,,,,,,,,,,,,,,,,,,,,,,,,,,,,,,,,,,,,,,,,,,,,,,,,,,,,,,,,,,,,,,,,,,,,,,,,,,,,,,,,,,
,,6511d86a9c7ebb7a6e39920f,2024-02-18_20h15.28.819,kallum_motion_pilot,2023.2.2,Win32,59.88023952,6511d86a9c7ebb7a6e39920f,65d2b6c8f2eece985d8e374c,65d2b9b270d37fb582418463,0.0272,0.0272,0,37,37,93,1,seveneight,,,,,,,,,,,,,,,,,,,,,,,,,,,,,,,,,,,,,,,,,,,,,,,,,,,,,,,,,,,,,,,,,,,,,,,,,,,,,,,,,,,,,,,,,,,,,,,,,,,,,,,,,,,,,,,,,,,,,,,,,,,,,,,,,,,,,,,,,
,,6511d86a9c7ebb7a6e39920f,2024-02-18_20h15.28.819,kallum_motion_pilot,2023.2.2,Win32,59.88023952,6511d86a9c7ebb7a6e39920f,65d2b6c8f2eece985d8e374c,65d2b9b270d37fb582418463,0.0273,0.0273,0,38,38,61,1,threefour,,,,,,,,,,,,,,,,,,,,,,,,,,,,,,,,,,,,,,,,,,,,,,,,,,,,,,,,,,,,,,,,,,,,,,,,,,,,,,,,,,,,,,,,,,,,,,,,,,,,,,,,,,,,,,,,,,,,,,,,,,,,,,,,,,,,,,,,,
,,6511d86a9c7ebb7a6e39920f,2024-02-18_20h15.28.819,kallum_motion_pilot,2023.2.2,Win32,59.88023952,6511d86a9c7ebb7a6e39920f,65d2b6c8f2eece985d8e374c,65d2b9b270d37fb582418463,0.0273,0.0274,0,39,39,136,1,fivesix,,,,,,,,,,,,,,,,,,,,,,,,,,,,,,,,,,,,,,,,,,,,,,,,,,,,,,,,,,,,,,,,,,,,,,,,,,,,,,,,,,,,,,,,,,,,,,,,,,,,,,,,,,,,,,,,,,,,,,,,,,,,,,,,,,,,,,,,,
,,6511d86a9c7ebb7a6e39920f,2024-02-18_20h15.28.819,kallum_motion_pilot,2023.2.2,Win32,59.88023952,6511d86a9c7ebb7a6e39920f,65d2b6c8f2eece985d8e374c,65d2b9b270d37fb582418463,0.0274,0.0274,0,40,40,155,1,sixeight,,,,,,,,,,,,,,,,,,,,,,,,,,,,,,,,,,,,,,,,,,,,,,,,,,,,,,,,,,,,,,,,,,,,,,,,,,,,,,,,,,,,,,,,,,,,,,,,,,,,,,,,,,,,,,,,,,,,,,,,,,,,,,,,,,,,,,,,,
,,6511d86a9c7ebb7a6e39920f,2024-02-18_20h15.28.819,kallum_motion_pilot,2023.2.2,Win32,59.88023952,6511d86a9c7ebb7a6e39920f,65d2b6c8f2eece985d8e374c,65d2b9b270d37fb582418463,0.0276,0.0276,0,41,41,53,1,threefour,,,,,,,,,,,,,,,,,,,,,,,,,,,,,,,,,,,,,,,,,,,,,,,,,,,,,,,,,,,,,,,,,,,,,,,,,,,,,,,,,,,,,,,,,,,,,,,,,,,,,,,,,,,,,,,,,,,,,,,,,,,,,,,,,,,,,,,,,
,,6511d86a9c7ebb7a6e39920f,2024-02-18_20h15.28.819,kallum_motion_pilot,2023.2.2,Win32,59.88023952,6511d86a9c7ebb7a6e39920f,65d2b6c8f2eece985d8e374c,65d2b9b270d37fb582418463,0.0276,0.0277,0,42,42,72,1,onetwo,,,,,,,,,,,,,,,,,,,,,,,,,,,,,,,,,,,,,,,,,,,,,,,,,,,,,,,,,,,,,,,,,,,,,,,,,,,,,,,,,,,,,,,,,,,,,,,,,,,,,,,,,,,,,,,,,,,,,,,,,,,,,,,,,,,,,,,,,
,,6511d86a9c7ebb7a6e39920f,2024-02-18_20h15.28.819,kallum_motion_pilot,2023.2.2,Win32,59.88023952,6511d86a9c7ebb7a6e39920f,65d2b6c8f2eece985d8e374c,65d2b9b270d37fb582418463,0.0277,0.0277,0,43,43,145,1,fiveseven,,,,,,,,,,,,,,,,,,,,,,,,,,,,,,,,,,,,,,,,,,,,,,,,,,,,,,,,,,,,,,,,,,,,,,,,,,,,,,,,,,,,,,,,,,,,,,,,,,,,,,,,,,,,,,,,,,,,,,,,,,,,,,,,,,,,,,,,,
,,6511d86a9c7ebb7a6e39920f,2024-02-18_20h15.28.819,kallum_motion_pilot,2023.2.2,Win32,59.88023952,6511d86a9c7ebb7a6e39920f,65d2b6c8f2eece985d8e374c,65d2b9b270d37fb582418463,0.0277,0.0278,0,44,44,80,1,fivesix,,,,,,,,,,,,,,,,,,,,,,,,,,,,,,,,,,,,,,,,,,,,,,,,,,,,,,,,,,,,,,,,,,,,,,,,,,,,,,,,,,,,,,,,,,,,,,,,,,,,,,,,,,,,,,,,,,,,,,,,,,,,,,,,,,,,,,,,,
,,6511d86a9c7ebb7a6e39920f,2024-02-18_20h15.28.819,kallum_motion_pilot,2023.2.2,Win32,59.88023952,6511d86a9c7ebb7a6e39920f,65d2b6c8f2eece985d8e374c,65d2b9b270d37fb582418463,0.0279,0.0279,0,45,45,67,1,twofour,,,,,,,,,,,,,,,,,,,,,,,,,,,,,,,,,,,,,,,,,,,,,,,,,,,,,,,,,,,,,,,,,,,,,,,,,,,,,,,,,,,,,,,,,,,,,,,,,,,,,,,,,,,,,,,,,,,,,,,,,,,,,,,,,,,,,,,,,
,,6511d86a9c7ebb7a6e39920f,2024-02-18_20h15.28.819,kallum_motion_pilot,2023.2.2,Win32,59.88023952,6511d86a9c7ebb7a6e39920f,65d2b6c8f2eece985d8e374c,65d2b9b270d37fb582418463,0.0279,0.028,0,46,46,125,1,seveneight,,,,,,,,,,,,,,,,,,,,,,,,,,,,,,,,,,,,,,,,,,,,,,,,,,,,,,,,,,,,,,,,,,,,,,,,,,,,,,,,,,,,,,,,,,,,,,,,,,,,,,,,,,,,,,,,,,,,,,,,,,,,,,,,,,,,,,,,,
,,6511d86a9c7ebb7a6e39920f,2024-02-18_20h15.28.819,kallum_motion_pilot,2023.2.2,Win32,59.88023952,6511d86a9c7ebb7a6e39920f,65d2b6c8f2eece985d8e374c,65d2b9b270d37fb582418463,0.0281,0.0281,0,47,47,66,1,twoone,,,,,,,,,,,,,,,,,,,,,,,,,,,,,,,,,,,,,,,,,,,,,,,,,,,,,,,,,,,,,,,,,,,,,,,,,,,,,,,,,,,,,,,,,,,,,,,,,,,,,,,,,,,,,,,,,,,,,,,,,,,,,,,,,,,,,,,,,
,,6511d86a9c7ebb7a6e39920f,2024-02-18_20h15.28.819,kallum_motion_pilot,2023.2.2,Win32,59.88023952,6511d86a9c7ebb7a6e39920f,65d2b6c8f2eece985d8e374c,65d2b9b270d37fb582418463,0.0281,0.0281,0,48,48,120,1,fivesix,,,,,,,,,,,,,,,,,,,,,,,,,,,,,,,,,,,,,,,,,,,,,,,,,,,,,,,,,,,,,,,,,,,,,,,,,,,,,,,,,,,,,,,,,,,,,,,,,,,,,,,,,,,,,,,,,,,,,,,,,,,,,,,,,,,,,,,,,
,,6511d86a9c7ebb7a6e39920f,2024-02-18_20h15.28.819,kallum_motion_pilot,2023.2.2,Win32,59.88023952,6511d86a9c7ebb7a6e39920f,65d2b6c8f2eece985d8e374c,65d2b9b270d37fb582418463,0.0282,0.0282,0,49,49,122,1,sixfive,,,,,,,,,,,,,,,,,,,,,,,,,,,,,,,,,,,,,,,,,,,,,,,,,,,,,,,,,,,,,,,,,,,,,,,,,,,,,,,,,,,,,,,,,,,,,,,,,,,,,,,,,,,,,,,,,,,,,,,,,,,,,,,,,,,,,,,,,
,,6511d86a9c7ebb7a6e39920f,2024-02-18_20h15.28.819,kallum_motion_pilot,2023.2.2,Win32,59.88023952,6511d86a9c7ebb7a6e39920f,65d2b6c8f2eece985d8e374c,65d2b9b270d37fb582418463,0.0282,0.0282,0,50,50,47,1,fourthree,,,,,,,,,,,,,,,,,,,,,,,,,,,,,,,,,,,,,,,,,,,,,,,,,,,,,,,,,,,,,,,,,,,,,,,,,,,,,,,,,,,,,,,,,,,,,,,,,,,,,,,,,,,,,,,,,,,,,,,,,,,,,,,,,,,,,,,,,
,,6511d86a9c7ebb7a6e39920f,2024-02-18_20h15.28.819,kallum_motion_pilot,2023.2.2,Win32,59.88023952,6511d86a9c7ebb7a6e39920f,65d2b6c8f2eece985d8e374c,65d2b9b270d37fb582418463,0.0283,0.0283,0,51,51,9,1,onethree,,,,,,,,,,,,,,,,,,,,,,,,,,,,,,,,,,,,,,,,,,,,,,,,,,,,,,,,,,,,,,,,,,,,,,,,,,,,,,,,,,,,,,,,,,,,,,,,,,,,,,,,,,,,,,,,,,,,,,,,,,,,,,,,,,,,,,,,,
,,6511d86a9c7ebb7a6e39920f,2024-02-18_20h15.28.819,kallum_motion_pilot,2023.2.2,Win32,59.88023952,6511d86a9c7ebb7a6e39920f,65d2b6c8f2eece985d8e374c,65d2b9b270d37fb582418463,0.0284,0.0284,0,52,52,19,1,twofour,,,,,,,,,,,,,,,,,,,,,,,,,,,,,,,,,,,,,,,,,,,,,,,,,,,,,,,,,,,,,,,,,,,,,,,,,,,,,,,,,,,,,,,,,,,,,,,,,,,,,,,,,,,,,,,,,,,,,,,,,,,,,,,,,,,,,,,,,
,,6511d86a9c7ebb7a6e39920f,2024-02-18_20h15.28.819,kallum_motion_pilot,2023.2.2,Win32,59.88023952,6511d86a9c7ebb7a6e39920f,65d2b6c8f2eece985d8e374c,65d2b9b270d37fb582418463,0.0285,0.0285,0,53,53,40,1,onetwo,,,,,,,,,,,,,,,,,,,,,,,,,,,,,,,,,,,,,,,,,,,,,,,,,,,,,,,,,,,,,,,,,,,,,,,,,,,,,,,,,,,,,,,,,,,,,,,,,,,,,,,,,,,,,,,,,,,,,,,,,,,,,,,,,,,,,,,,,
,,6511d86a9c7ebb7a6e39920f,2024-02-18_20h15.28.819,kallum_motion_pilot,2023.2.2,Win32,59.88023952,6511d86a9c7ebb7a6e39920f,65d2b6c8f2eece985d8e374c,65d2b9b270d37fb582418463,0.0286,0.0286,0,54,54,3,1,twofour,,,,,,,,,,,,,,,,,,,,,,,,,,,,,,,,,,,,,,,,,,,,,,,,,,,,,,,,,,,,,,,,,,,,,,,,,,,,,,,,,,,,,,,,,,,,,,,,,,,,,,,,,,,,,,,,,,,,,,,,,,,,,,,,,,,,,,,,,
,,6511d86a9c7ebb7a6e39920f,2024-02-18_20h15.28.819,kallum_motion_pilot,2023.2.2,Win32,59.88023952,6511d86a9c7ebb7a6e39920f,65d2b6c8f2eece985d8e374c,65d2b9b270d37fb582418463,0.0286,0.0287,0,55,55,24,1,onetwo,,,,,,,,,,,,,,,,,,,,,,,,,,,,,,,,,,,,,,,,,,,,,,,,,,,,,,,,,,,,,,,,,,,,,,,,,,,,,,,,,,,,,,,,,,,,,,,,,,,,,,,,,,,,,,,,,,,,,,,,,,,,,,,,,,,,,,,,,
,,6511d86a9c7ebb7a6e39920f,2024-02-18_20h15.28.819,kallum_motion_pilot,2023.2.2,Win32,59.88023952,6511d86a9c7ebb7a6e39920f,65d2b6c8f2eece985d8e374c,65d2b9b270d37fb582418463,0.0288,0.0289,0,56,56,65,1,onethree,,,,,,,,,,,,,,,,,,,,,,,,,,,,,,,,,,,,,,,,,,,,,,,,,,,,,,,,,,,,,,,,,,,,,,,,,,,,,,,,,,,,,,,,,,,,,,,,,,,,,,,,,,,,,,,,,,,,,,,,,,,,,,,,,,,,,,,,,
,,6511d86a9c7ebb7a6e39920f,2024-02-18_20h15.28.819,kallum_motion_pilot,2023.2.2,Win32,59.88023952,6511d86a9c7ebb7a6e39920f,65d2b6c8f2eece985d8e374c,65d2b9b270d37fb582418463,0.029,0.029,0,57,57,140,1,sevenfive,,,,,,,,,,,,,,,,,,,,,,,,,,,,,,,,,,,,,,,,,,,,,,,,,,,,,,,,,,,,,,,,,,,,,,,,,,,,,,,,,,,,,,,,,,,,,,,,,,,,,,,,,,,,,,,,,,,,,,,,,,,,,,,,,,,,,,,,,
,,6511d86a9c7ebb7a6e39920f,2024-02-18_20h15.28.819,kallum_motion_pilot,2023.2.2,Win32,59.88023952,6511d86a9c7ebb7a6e39920f,65d2b6c8f2eece985d8e374c,65d2b9b270d37fb582418463,0.0291,0.0291,0,58,58,160,1,fivesix,,,,,,,,,,,,,,,,,,,,,,,,,,,,,,,,,,,,,,,,,,,,,,,,,,,,,,,,,,,,,,,,,,,,,,,,,,,,,,,,,,,,,,,,,,,,,,,,,,,,,,,,,,,,,,,,,,,,,,,,,,,,,,,,,,,,,,,,,
,,6511d86a9c7ebb7a6e39920f,2024-02-18_20h15.28.819,kallum_motion_pilot,2023.2.2,Win32,59.88023952,6511d86a9c7ebb7a6e39920f,65d2b6c8f2eece985d8e374c,65d2b9b270d37fb582418463,0.0292,0.0292,0,59,59,89,1,fiveseven,,,,,,,,,,,,,,,,,,,,,,,,,,,,,,,,,,,,,,,,,,,,,,,,,,,,,,,,,,,,,,,,,,,,,,,,,,,,,,,,,,,,,,,,,,,,,,,,,,,,,,,,,,,,,,,,,,,,,,,,,,,,,,,,,,,,,,,,,
,,6511d86a9c7ebb7a6e39920f,2024-02-18_20h15.28.819,kallum_motion_pilot,2023.2.2,Win32,59.88023952,6511d86a9c7ebb7a6e39920f,65d2b6c8f2eece985d8e374c,65d2b9b270d37fb582418463,0.0293,0.0293,0,60,60,79,1,eightseven,,,,,,,,,,,,,,,,,,,,,,,,,,,,,,,,,,,,,,,,,,,,,,,,,,,,,,,,,,,,,,,,,,,,,,,,,,,,,,,,,,,,,,,,,,,,,,,,,,,,,,,,,,,,,,,,,,,,,,,,,,,,,,,,,,,,,,,,,
,,6511d86a9c7ebb7a6e39920f,2024-02-18_20h15.28.819,kallum_motion_pilot,2023.2.2,Win32,59.88023952,6511d86a9c7ebb7a6e39920f,65d2b6c8f2eece985d8e374c,65d2b9b270d37fb582418463,0.0294,0.0294,0,61,61,69,1,threefour,,,,,,,,,,,,,,,,,,,,,,,,,,,,,,,,,,,,,,,,,,,,,,,,,,,,,,,,,,,,,,,,,,,,,,,,,,,,,,,,,,,,,,,,,,,,,,,,,,,,,,,,,,,,,,,,,,,,,,,,,,,,,,,,,,,,,,,,,
,,6511d86a9c7ebb7a6e39920f,2024-02-18_20h15.28.819,kallum_motion_pilot,2023.2.2,Win32,59.88023952,6511d86a9c7ebb7a6e39920f,65d2b6c8f2eece985d8e374c,65d2b9b270d37fb582418463,0.0296,0.0296,0,62,62,68,1,threeone,,,,,,,,,,,,,,,,,,,,,,,,,,,,,,,,,,,,,,,,,,,,,,,,,,,,,,,,,,,,,,,,,,,,,,,,,,,,,,,,,,,,,,,,,,,,,,,,,,,,,,,,,,,,,,,,,,,,,,,,,,,,,,,,,,,,,,,,,
,,6511d86a9c7ebb7a6e39920f,2024-02-18_20h15.28.819,kallum_motion_pilot,2023.2.2,Win32,59.88023952,6511d86a9c7ebb7a6e39920f,65d2b6c8f2eece985d8e374c,65d2b9b270d37fb582418463,0.0298,0.0299,0,63,63,105,1,fiveseven,,,,,,,,,,,,,,,,,,,,,,,,,,,,,,,,,,,,,,,,,,,,,,,,,,,,,,,,,,,,,,,,,,,,,,,,,,,,,,,,,,,,,,,,,,,,,,,,,,,,,,,,,,,,,,,,,,,,,,,,,,,,,,,,,,,,,,,,,
,,6511d86a9c7ebb7a6e39920f,2024-02-18_20h15.28.819,kallum_motion_pilot,2023.2.2,Win32,59.88023952,6511d86a9c7ebb7a6e39920f,65d2b6c8f2eece985d8e374c,65d2b9b270d37fb582418463,0.0299,0.03,0,64,64,55,1,fourthree,,,,,,,,,,,,,,,,,,,,,,,,,,,,,,,,,,,,,,,,,,,,,,,,,,,,,,,,,,,,,,,,,,,,,,,,,,,,,,,,,,,,,,,,,,,,,,,,,,,,,,,,,,,,,,,,,,,,,,,,,,,,,,,,,,,,,,,,,
,,6511d86a9c7ebb7a6e39920f,2024-02-18_20h15.28.819,kallum_motion_pilot,2023.2.2,Win32,59.88023952,6511d86a9c7ebb7a6e39920f,65d2b6c8f2eece985d8e374c,65d2b9b270d37fb582418463,0.03,0.0301,0,65,65,124,1,sevenfive,,,,,,,,,,,,,,,,,,,,,,,,,,,,,,,,,,,,,,,,,,,,,,,,,,,,,,,,,,,,,,,,,,,,,,,,,,,,,,,,,,,,,,,,,,,,,,,,,,,,,,,,,,,,,,,,,,,,,,,,,,,,,,,,,,,,,,,,,
,,6511d86a9c7ebb7a6e39920f,2024-02-18_20h15.28.819,kallum_motion_pilot,2023.2.2,Win32,59.88023952,6511d86a9c7ebb7a6e39920f,65d2b6c8f2eece985d8e374c,65d2b9b270d37fb582418463,0.0301,0.0301,0,66,66,51,1,twofour,,,,,,,,,,,,,,,,,,,,,,,,,,,,,,,,,,,,,,,,,,,,,,,,,,,,,,,,,,,,,,,,,,,,,,,,,,,,,,,,,,,,,,,,,,,,,,,,,,,,,,,,,,,,,,,,,,,,,,,,,,,,,,,,,,,,,,,,,
,,6511d86a9c7ebb7a6e39920f,2024-02-18_20h15.28.819,kallum_motion_pilot,2023.2.2,Win32,59.88023952,6511d86a9c7ebb7a6e39920f,65d2b6c8f2eece985d8e374c,65d2b9b270d37fb582418463,0.0302,0.0303,0,67,67,74,1,twoone,,,,,,,,,,,,,,,,,,,,,,,,,,,,,,,,,,,,,,,,,,,,,,,,,,,,,,,,,,,,,,,,,,,,,,,,,,,,,,,,,,,,,,,,,,,,,,,,,,,,,,,,,,,,,,,,,,,,,,,,,,,,,,,,,,,,,,,,,
,,6511d86a9c7ebb7a6e39920f,2024-02-18_20h15.28.819,kallum_motion_pilot,2023.2.2,Win32,59.88023952,6511d86a9c7ebb7a6e39920f,65d2b6c8f2eece985d8e374c,65d2b9b270d37fb582418463,0.0303,0.0303,0,68,68,85,1,seveneight,,,,,,,,,,,,,,,,,,,,,,,,,,,,,,,,,,,,,,,,,,,,,,,,,,,,,,,,,,,,,,,,,,,,,,,,,,,,,,,,,,,,,,,,,,,,,,,,,,,,,,,,,,,,,,,,,,,,,,,,,,,,,,,,,,,,,,,,,
,,6511d86a9c7ebb7a6e39920f,2024-02-18_20h15.28.819,kallum_motion_pilot,2023.2.2,Win32,59.88023952,6511d86a9c7ebb7a6e39920f,65d2b6c8f2eece985d8e374c,65d2b9b270d37fb582418463,0.0303,0.0304,0,69,69,57,1,onethree,,,,,,,,,,,,,,,,,,,,,,,,,,,,,,,,,,,,,,,,,,,,,,,,,,,,,,,,,,,,,,,,,,,,,,,,,,,,,,,,,,,,,,,,,,,,,,,,,,,,,,,,,,,,,,,,,,,,,,,,,,,,,,,,,,,,,,,,,
,,6511d86a9c7ebb7a6e39920f,2024-02-18_20h15.28.819,kallum_motion_pilot,2023.2.2,Win32,59.88023952,6511d86a9c7ebb7a6e39920f,65d2b6c8f2eece985d8e374c,65d2b9b270d37fb582418463,0.0304,0.0306,0,70,70,27,1,twofour,,,,,,,,,,,,,,,,,,,,,,,,,,,,,,,,,,,,,,,,,,,,,,,,,,,,,,,,,,,,,,,,,,,,,,,,,,,,,,,,,,,,,,,,,,,,,,,,,,,,,,,,,,,,,,,,,,,,,,,,,,,,,,,,,,,,,,,,,
,,6511d86a9c7ebb7a6e39920f,2024-02-18_20h15.28.819,kallum_motion_pilot,2023.2.2,Win32,59.88023952,6511d86a9c7ebb7a6e39920f,65d2b6c8f2eece985d8e374c,65d2b9b270d37fb582418463,0.0307,0.0307,0,71,71,139,1,sixeight,,,,,,,,,,,,,,,,,,,,,,,,,,,,,,,,,,,,,,,,,,,,,,,,,,,,,,,,,,,,,,,,,,,,,,,,,,,,,,,,,,,,,,,,,,,,,,,,,,,,,,,,,,,,,,,,,,,,,,,,,,,,,,,,,,,,,,,,,
,,6511d86a9c7ebb7a6e39920f,2024-02-18_20h15.28.819,kallum_motion_pilot,2023.2.2,Win32,59.88023952,6511d86a9c7ebb7a6e39920f,65d2b6c8f2eece985d8e374c,65d2b9b270d37fb582418463,0.0308,0.0308,0,72,72,60,1,threeone,,,,,,,,,,,,,,,,,,,,,,,,,,,,,,,,,,,,,,,,,,,,,,,,,,,,,,,,,,,,,,,,,,,,,,,,,,,,,,,,,,,,,,,,,,,,,,,,,,,,,,,,,,,,,,,,,,,,,,,,,,,,,,,,,,,,,,,,,
,,6511d86a9c7ebb7a6e39920f,2024-02-18_20h15.28.819,kallum_motion_pilot,2023.2.2,Win32,59.88023952,6511d86a9c7ebb7a6e39920f,65d2b6c8f2eece985d8e374c,65d2b9b270d37fb582418463,0.0309,0.0309,0,73,73,22,1,fourtwo,,,,,,,,,,,,,,,,,,,,,,,,,,,,,,,,,,,,,,,,,,,,,,,,,,,,,,,,,,,,,,,,,,,,,,,,,,,,,,,,,,,,,,,,,,,,,,,,,,,,,,,,,,,,,,,,,,,,,,,,,,,,,,,,,,,,,,,,,
,,6511d86a9c7ebb7a6e39920f,2024-02-18_20h15.28.819,kallum_motion_pilot,2023.2.2,Win32,59.88023952,6511d86a9c7ebb7a6e39920f,65d2b6c8f2eece985d8e374c,65d2b9b270d37fb582418463,0.031,0.0311,0,74,74,86,1,eightsix,,,,,,,,,,,,,,,,,,,,,,,,,,,,,,,,,,,,,,,,,,,,,,,,,,,,,,,,,,,,,,,,,,,,,,,,,,,,,,,,,,,,,,,,,,,,,,,,,,,,,,,,,,,,,,,,,,,,,,,,,,,,,,,,,,,,,,,,,
,,6511d86a9c7ebb7a6e39920f,2024-02-18_20h15.28.819,kallum_motion_pilot,2023.2.2,Win32,59.88023952,6511d86a9c7ebb7a6e39920f,65d2b6c8f2eece985d8e374c,65d2b9b270d37fb582418463,0.0311,0.0311,0,75,75,14,1,fourtwo,,,,,,,,,,,,,,,,,,,,,,,,,,,,,,,,,,,,,,,,,,,,,,,,,,,,,,,,,,,,,,,,,,,,,,,,,,,,,,,,,,,,,,,,,,,,,,,,,,,,,,,,,,,,,,,,,,,,,,,,,,,,,,,,,,,,,,,,,
,,6511d86a9c7ebb7a6e39920f,2024-02-18_20h15.28.819,kallum_motion_pilot,2023.2.2,Win32,59.88023952,6511d86a9c7ebb7a6e39920f,65d2b6c8f2eece985d8e374c,65d2b9b270d37fb582418463,0.0312,0.0313,0,76,76,8,1,onetwo,,,,,,,,,,,,,,,,,,,,,,,,,,,,,,,,,,,,,,,,,,,,,,,,,,,,,,,,,,,,,,,,,,,,,,,,,,,,,,,,,,,,,,,,,,,,,,,,,,,,,,,,,,,,,,,,,,,,,,,,,,,,,,,,,,,,,,,,,
,,6511d86a9c7ebb7a6e39920f,2024-02-18_20h15.28.819,kallum_motion_pilot,2023.2.2,Win32,59.88023952,6511d86a9c7ebb7a6e39920f,65d2b6c8f2eece985d8e374c,65d2b9b270d37fb582418463,0.0313,0.0313,0,77,77,130,1,sixfive,,,,,,,,,,,,,,,,,,,,,,,,,,,,,,,,,,,,,,,,,,,,,,,,,,,,,,,,,,,,,,,,,,,,,,,,,,,,,,,,,,,,,,,,,,,,,,,,,,,,,,,,,,,,,,,,,,,,,,,,,,,,,,,,,,,,,,,,,
,,6511d86a9c7ebb7a6e39920f,2024-02-18_20h15.28.819,kallum_motion_pilot,2023.2.2,Win32,59.88023952,6511d86a9c7ebb7a6e39920f,65d2b6c8f2eece985d8e374c,65d2b9b270d37fb582418463,0.0314,0.0315,0,78,78,31,1,fourthree,,,,,,,,,,,,,,,,,,,,,,,,,,,,,,,,,,,,,,,,,,,,,,,,,,,,,,,,,,,,,,,,,,,,,,,,,,,,,,,,,,,,,,,,,,,,,,,,,,,,,,,,,,,,,,,,,,,,,,,,,,,,,,,,,,,,,,,,,
,,6511d86a9c7ebb7a6e39920f,2024-02-18_20h15.28.819,kallum_motion_pilot,2023.2.2,Win32,59.88023952,6511d86a9c7ebb7a6e39920f,65d2b6c8f2eece985d8e374c,65d2b9b270d37fb582418463,0.0315,0.0316,0,79,79,52,1,threeone,,,,,,,,,,,,,,,,,,,,,,,,,,,,,,,,,,,,,,,,,,,,,,,,,,,,,,,,,,,,,,,,,,,,,,,,,,,,,,,,,,,,,,,,,,,,,,,,,,,,,,,,,,,,,,,,,,,,,,,,,,,,,,,,,,,,,,,,,
,,6511d86a9c7ebb7a6e39920f,2024-02-18_20h15.28.819,kallum_motion_pilot,2023.2.2,Win32,59.88023952,6511d86a9c7ebb7a6e39920f,65d2b6c8f2eece985d8e374c,65d2b9b270d37fb582418463,0.0316,0.0316,0,80,80,30,1,fourtwo,,,,,,,,,,,,,,,,,,,,,,,,,,,,,,,,,,,,,,,,,,,,,,,,,,,,,,,,,,,,,,,,,,,,,,,,,,,,,,,,,,,,,,,,,,,,,,,,,,,,,,,,,,,,,,,,,,,,,,,,,,,,,,,,,,,,,,,,,
,,6511d86a9c7ebb7a6e39920f,2024-02-18_20h15.28.819,kallum_motion_pilot,2023.2.2,Win32,59.88023952,6511d86a9c7ebb7a6e39920f,65d2b6c8f2eece985d8e374c,65d2b9b270d37fb582418463,0.0316,0.0318,0,81,81,73,1,onethree,,,,,,,,,,,,,,,,,,,,,,,,,,,,,,,,,,,,,,,,,,,,,,,,,,,,,,,,,,,,,,,,,,,,,,,,,,,,,,,,,,,,,,,,,,,,,,,,,,,,,,,,,,,,,,,,,,,,,,,,,,,,,,,,,,,,,,,,,
,,6511d86a9c7ebb7a6e39920f,2024-02-18_20h15.28.819,kallum_motion_pilot,2023.2.2,Win32,59.88023952,6511d86a9c7ebb7a6e39920f,65d2b6c8f2eece985d8e374c,65d2b9b270d37fb582418463,0.0318,0.0318,0,82,82,98,1,sixfive,,,,,,,,,,,,,,,,,,,,,,,,,,,,,,,,,,,,,,,,,,,,,,,,,,,,,,,,,,,,,,,,,,,,,,,,,,,,,,,,,,,,,,,,,,,,,,,,,,,,,,,,,,,,,,,,,,,,,,,,,,,,,,,,,,,,,,,,,
,,6511d86a9c7ebb7a6e39920f,2024-02-18_20h15.28.819,kallum_motion_pilot,2023.2.2,Win32,59.88023952,6511d86a9c7ebb7a6e39920f,65d2b6c8f2eece985d8e374c,65d2b9b270d37fb582418463,0.0318,0.0319,0,83,83,82,1,sixfive,,,,,,,,,,,,,,,,,,,,,,,,,,,,,,,,,,,,,,,,,,,,,,,,,,,,,,,,,,,,,,,,,,,,,,,,,,,,,,,,,,,,,,,,,,,,,,,,,,,,,,,,,,,,,,,,,,,,,,,,,,,,,,,,,,,,,,,,,
,,6511d86a9c7ebb7a6e39920f,2024-02-18_20h15.28.819,kallum_motion_pilot,2023.2.2,Win32,59.88023952,6511d86a9c7ebb7a6e39920f,65d2b6c8f2eece985d8e374c,65d2b9b270d37fb582418463,0.032,0.032,0,84,84,143,1,eightseven,,,,,,,,,,,,,,,,,,,,,,,,,,,,,,,,,,,,,,,,,,,,,,,,,,,,,,,,,,,,,,,,,,,,,,,,,,,,,,,,,,,,,,,,,,,,,,,,,,,,,,,,,,,,,,,,,,,,,,,,,,,,,,,,,,,,,,,,,
,,6511d86a9c7ebb7a6e39920f,2024-02-18_20h15.28.819,kallum_motion_pilot,2023.2.2,Win32,59.88023952,6511d86a9c7ebb7a6e39920f,65d2b6c8f2eece985d8e374c,65d2b9b270d37fb582418463,0.0321,0.0321,0,85,85,108,1,sevenfive,,,,,,,,,,,,,,,,,,,,,,,,,,,,,,,,,,,,,,,,,,,,,,,,,,,,,,,,,,,,,,,,,,,,,,,,,,,,,,,,,,,,,,,,,,,,,,,,,,,,,,,,,,,,,,,,,,,,,,,,,,,,,,,,,,,,,,,,,
,,6511d86a9c7ebb7a6e39920f,2024-02-18_20h15.28.819,kallum_motion_pilot,2023.2.2,Win32,59.88023952,6511d86a9c7ebb7a6e39920f,65d2b6c8f2eece985d8e374c,65d2b9b270d37fb582418463,0.0322,0.0322,0,86,86,0,1,onetwo,,,,,,,,,,,,,,,,,,,,,,,,,,,,,,,,,,,,,,,,,,,,,,,,,,,,,,,,,,,,,,,,,,,,,,,,,,,,,,,,,,,,,,,,,,,,,,,,,,,,,,,,,,,,,,,,,,,,,,,,,,,,,,,,,,,,,,,,,
,,6511d86a9c7ebb7a6e39920f,2024-02-18_20h15.28.819,kallum_motion_pilot,2023.2.2,Win32,59.88023952,6511d86a9c7ebb7a6e39920f,65d2b6c8f2eece985d8e374c,65d2b9b270d37fb582418463,0.0323,0.0323,0,87,87,100,1,sevenfive,,,,,,,,,,,,,,,,,,,,,,,,,,,,,,,,,,,,,,,,,,,,,,,,,,,,,,,,,,,,,,,,,,,,,,,,,,,,,,,,,,,,,,,,,,,,,,,,,,,,,,,,,,,,,,,,,,,,,,,,,,,,,,,,,,,,,,,,,
,,6511d86a9c7ebb7a6e39920f,2024-02-18_20h15.28.819,kallum_motion_pilot,2023.2.2,Win32,59.88023952,6511d86a9c7ebb7a6e39920f,65d2b6c8f2eece985d8e374c,65d2b9b270d37fb582418463,0.0324,0.0324,0,88,88,103,1,eightseven,,,,,,,,,,,,,,,,,,,,,,,,,,,,,,,,,,,,,,,,,,,,,,,,,,,,,,,,,,,,,,,,,,,,,,,,,,,,,,,,,,,,,,,,,,,,,,,,,,,,,,,,,,,,,,,,,,,,,,,,,,,,,,,,,,,,,,,,,
,,6511d86a9c7ebb7a6e39920f,2024-02-18_20h15.28.819,kallum_motion_pilot,2023.2.2,Win32,59.88023952,6511d86a9c7ebb7a6e39920f,65d2b6c8f2eece985d8e374c,65d2b9b270d37fb582418463,0.0324,0.0325,0,89,89,17,1,onethree,,,,,,,,,,,,,,,,,,,,,,,,,,,,,,,,,,,,,,,,,,,,,,,,,,,,,,,,,,,,,,,,,,,,,,,,,,,,,,,,,,,,,,,,,,,,,,,,,,,,,,,,,,,,,,,,,,,,,,,,,,,,,,,,,,,,,,,,,
,,6511d86a9c7ebb7a6e39920f,2024-02-18_20h15.28.819,kallum_motion_pilot,2023.2.2,Win32,59.88023952,6511d86a9c7ebb7a6e39920f,65d2b6c8f2eece985d8e374c,65d2b9b270d37fb582418463,0.0325,0.0325,0,90,90,81,1,fiveseven,,,,,,,,,,,,,,,,,,,,,,,,,,,,,,,,,,,,,,,,,,,,,,,,,,,,,,,,,,,,,,,,,,,,,,,,,,,,,,,,,,,,,,,,,,,,,,,,,,,,,,,,,,,,,,,,,,,,,,,,,,,,,,,,,,,,,,,,,
,,6511d86a9c7ebb7a6e39920f,2024-02-18_20h15.28.819,kallum_motion_pilot,2023.2.2,Win32,59.88023952,6511d86a9c7ebb7a6e39920f,65d2b6c8f2eece985d8e374c,65d2b9b270d37fb582418463,0.0327,0.0327,0,91,91,2,1,twoone,,,,,,,,,,,,,,,,,,,,,,,,,,,,,,,,,,,,,,,,,,,,,,,,,,,,,,,,,,,,,,,,,,,,,,,,,,,,,,,,,,,,,,,,,,,,,,,,,,,,,,,,,,,,,,,,,,,,,,,,,,,,,,,,,,,,,,,,,
,,6511d86a9c7ebb7a6e39920f,2024-02-18_20h15.28.819,kallum_motion_pilot,2023.2.2,Win32,59.88023952,6511d86a9c7ebb7a6e39920f,65d2b6c8f2eece985d8e374c,65d2b9b270d37fb582418463,0.0327,0.0327,0,92,92,25,1,onethree,,,,,,,,,,,,,,,,,,,,,,,,,,,,,,,,,,,,,,,,,,,,,,,,,,,,,,,,,,,,,,,,,,,,,,,,,,,,,,,,,,,,,,,,,,,,,,,,,,,,,,,,,,,,,,,,,,,,,,,,,,,,,,,,,,,,,,,,,
,,6511d86a9c7ebb7a6e39920f,2024-02-18_20h15.28.819,kallum_motion_pilot,2023.2.2,Win32,59.88023952,6511d86a9c7ebb7a6e39920f,65d2b6c8f2eece985d8e374c,65d2b9b270d37fb582418463,0.0328,0.0328,0,93,93,137,1,fiveseven,,,,,,,,,,,,,,,,,,,,,,,,,,,,,,,,,,,,,,,,,,,,,,,,,,,,,,,,,,,,,,,,,,,,,,,,,,,,,,,,,,,,,,,,,,,,,,,,,,,,,,,,,,,,,,,,,,,,,,,,,,,,,,,,,,,,,,,,,
,,6511d86a9c7ebb7a6e39920f,2024-02-18_20h15.28.819,kallum_motion_pilot,2023.2.2,Win32,59.88023952,6511d86a9c7ebb7a6e39920f,65d2b6c8f2eece985d8e374c,65d2b9b270d37fb582418463,0.0329,0.0329,0,94,94,43,1,twofour,,,,,,,,,,,,,,,,,,,,,,,,,,,,,,,,,,,,,,,,,,,,,,,,,,,,,,,,,,,,,,,,,,,,,,,,,,,,,,,,,,,,,,,,,,,,,,,,,,,,,,,,,,,,,,,,,,,,,,,,,,,,,,,,,,,,,,,,,
,,6511d86a9c7ebb7a6e39920f,2024-02-18_20h15.28.819,kallum_motion_pilot,2023.2.2,Win32,59.88023952,6511d86a9c7ebb7a6e39920f,65d2b6c8f2eece985d8e374c,65d2b9b270d37fb582418463,0.033,0.0331,0,95,95,29,1,threefour,,,,,,,,,,,,,,,,,,,,,,,,,,,,,,,,,,,,,,,,,,,,,,,,,,,,,,,,,,,,,,,,,,,,,,,,,,,,,,,,,,,,,,,,,,,,,,,,,,,,,,,,,,,,,,,,,,,,,,,,,,,,,,,,,,,,,,,,,
,,6511d86a9c7ebb7a6e39920f,2024-02-18_20h15.28.819,kallum_motion_pilot,2023.2.2,Win32,59.88023952,6511d86a9c7ebb7a6e39920f,65d2b6c8f2eece985d8e374c,65d2b9b270d37fb582418463,0.0331,0.0331,0,96,96,106,1,sixfive,,,,,,,,,,,,,,,,,,,,,,,,,,,,,,,,,,,,,,,,,,,,,,,,,,,,,,,,,,,,,,,,,,,,,,,,,,,,,,,,,,,,,,,,,,,,,,,,,,,,,,,,,,,,,,,,,,,,,,,,,,,,,,,,,,,,,,,,,
,,6511d86a9c7ebb7a6e39920f,2024-02-18_20h15.28.819,kallum_motion_pilot,2023.2.2,Win32,59.88023952,6511d86a9c7ebb7a6e39920f,65d2b6c8f2eece985d8e374c,65d2b9b270d37fb582418463,0.0332,0.0332,0,97,97,21,1,threefour,,,,,,,,,,,,,,,,,,,,,,,,,,,,,,,,,,,,,,,,,,,,,,,,,,,,,,,,,,,,,,,,,,,,,,,,,,,,,,,,,,,,,,,,,,,,,,,,,,,,,,,,,,,,,,,,,,,,,,,,,,,,,,,,,,,,,,,,,
,,6511d86a9c7ebb7a6e39920f,2024-02-18_20h15.28.819,kallum_motion_pilot,2023.2.2,Win32,59.88023952,6511d86a9c7ebb7a6e39920f,65d2b6c8f2eece985d8e374c,65d2b9b270d37fb582418463,0.0332,0.0333,0,98,98,101,1,seveneight,,,,,,,,,,,,,,,,,,,,,,,,,,,,,,,,,,,,,,,,,,,,,,,,,,,,,,,,,,,,,,,,,,,,,,,,,,,,,,,,,,,,,,,,,,,,,,,,,,,,,,,,,,,,,,,,,,,,,,,,,,,,,,,,,,,,,,,,,
,,6511d86a9c7ebb7a6e39920f,2024-02-18_20h15.28.819,kallum_motion_pilot,2023.2.2,Win32,59.88023952,6511d86a9c7ebb7a6e39920f,65d2b6c8f2eece985d8e374c,65d2b9b270d37fb582418463,0.0334,0.0334,0,99,99,148,1,sevenfive,,,,,,,,,,,,,,,,,,,,,,,,,,,,,,,,,,,,,,,,,,,,,,,,,,,,,,,,,,,,,,,,,,,,,,,,,,,,,,,,,,,,,,,,,,,,,,,,,,,,,,,,,,,,,,,,,,,,,,,,,,,,,,,,,,,,,,,,,
,,6511d86a9c7ebb7a6e39920f,2024-02-18_20h15.28.819,kallum_motion_pilot,2023.2.2,Win32,59.88023952,6511d86a9c7ebb7a6e39920f,65d2b6c8f2eece985d8e374c,65d2b9b270d37fb582418463,0.0335,0.0335,0,100,100,36,1,threeone,,,,,,,,,,,,,,,,,,,,,,,,,,,,,,,,,,,,,,,,,,,,,,,,,,,,,,,,,,,,,,,,,,,,,,,,,,,,,,,,,,,,,,,,,,,,,,,,,,,,,,,,,,,,,,,,,,,,,,,,,,,,,,,,,,,,,,,,,
,,6511d86a9c7ebb7a6e39920f,2024-02-18_20h15.28.819,kallum_motion_pilot,2023.2.2,Win32,59.88023952,6511d86a9c7ebb7a6e39920f,65d2b6c8f2eece985d8e374c,65d2b9b270d37fb582418463,0.0335,0.0336,0,101,101,150,1,eightsix,,,,,,,,,,,,,,,,,,,,,,,,,,,,,,,,,,,,,,,,,,,,,,,,,,,,,,,,,,,,,,,,,,,,,,,,,,,,,,,,,,,,,,,,,,,,,,,,,,,,,,,,,,,,,,,,,,,,,,,,,,,,,,,,,,,,,,,,,
,,6511d86a9c7ebb7a6e39920f,2024-02-18_20h15.28.819,kallum_motion_pilot,2023.2.2,Win32,59.88023952,6511d86a9c7ebb7a6e39920f,65d2b6c8f2eece985d8e374c,65d2b9b270d37fb582418463,0.0337,0.0337,0,102,102,16,1,onetwo,,,,,,,,,,,,,,,,,,,,,,,,,,,,,,,,,,,,,,,,,,,,,,,,,,,,,,,,,,,,,,,,,,,,,,,,,,,,,,,,,,,,,,,,,,,,,,,,,,,,,,,,,,,,,,,,,,,,,,,,,,,,,,,,,,,,,,,,,
,,6511d86a9c7ebb7a6e39920f,2024-02-18_20h15.28.819,kallum_motion_pilot,2023.2.2,Win32,59.88023952,6511d86a9c7ebb7a6e39920f,65d2b6c8f2eece985d8e374c,65d2b9b270d37fb582418463,0.0338,0.0338,0,103,103,114,1,sixfive,,,,,,,,,,,,,,,,,,,,,,,,,,,,,,,,,,,,,,,,,,,,,,,,,,,,,,,,,,,,,,,,,,,,,,,,,,,,,,,,,,,,,,,,,,,,,,,,,,,,,,,,,,,,,,,,,,,,,,,,,,,,,,,,,,,,,,,,,
,,6511d86a9c7ebb7a6e39920f,2024-02-18_20h15.28.819,kallum_motion_pilot,2023.2.2,Win32,59.88023952,6511d86a9c7ebb7a6e39920f,65d2b6c8f2eece985d8e374c,65d2b9b270d37fb582418463,0.0339,0.0339,0,104,104,12,1,threeone,,,,,,,,,,,,,,,,,,,,,,,,,,,,,,,,,,,,,,,,,,,,,,,,,,,,,,,,,,,,,,,,,,,,,,,,,,,,,,,,,,,,,,,,,,,,,,,,,,,,,,,,,,,,,,,,,,,,,,,,,,,,,,,,,,,,,,,,,
,,6511d86a9c7ebb7a6e39920f,2024-02-18_20h15.28.819,kallum_motion_pilot,2023.2.2,Win32,59.88023952,6511d86a9c7ebb7a6e39920f,65d2b6c8f2eece985d8e374c,65d2b9b270d37fb582418463,0.034,0.034,0,105,105,111,1,eightseven,,,,,,,,,,,,,,,,,,,,,,,,,,,,,,,,,,,,,,,,,,,,,,,,,,,,,,,,,,,,,,,,,,,,,,,,,,,,,,,,,,,,,,,,,,,,,,,,,,,,,,,,,,,,,,,,,,,,,,,,,,,,,,,,,,,,,,,,,
,,6511d86a9c7ebb7a6e39920f,2024-02-18_20h15.28.819,kallum_motion_pilot,2023.2.2,Win32,59.88023952,6511d86a9c7ebb7a6e39920f,65d2b6c8f2eece985d8e374c,65d2b9b270d37fb582418463,0.0341,0.0341,0,106,106,131,1,sixeight,,,,,,,,,,,,,,,,,,,,,,,,,,,,,,,,,,,,,,,,,,,,,,,,,,,,,,,,,,,,,,,,,,,,,,,,,,,,,,,,,,,,,,,,,,,,,,,,,,,,,,,,,,,,,,,,,,,,,,,,,,,,,,,,,,,,,,,,,
,,6511d86a9c7ebb7a6e39920f,2024-02-18_20h15.28.819,kallum_motion_pilot,2023.2.2,Win32,59.88023952,6511d86a9c7ebb7a6e39920f,65d2b6c8f2eece985d8e374c,65d2b9b270d37fb582418463,0.0342,0.0342,0,107,107,33,1,onethree,,,,,,,,,,,,,,,,,,,,,,,,,,,,,,,,,,,,,,,,,,,,,,,,,,,,,,,,,,,,,,,,,,,,,,,,,,,,,,,,,,,,,,,,,,,,,,,,,,,,,,,,,,,,,,,,,,,,,,,,,,,,,,,,,,,,,,,,,
,,6511d86a9c7ebb7a6e39920f,2024-02-18_20h15.28.819,kallum_motion_pilot,2023.2.2,Win32,59.88023952,6511d86a9c7ebb7a6e39920f,65d2b6c8f2eece985d8e374c,65d2b9b270d37fb582418463,0.0342,0.0343,0,108,108,46,1,fourtwo,,,,,,,,,,,,,,,,,,,,,,,,,,,,,,,,,,,,,,,,,,,,,,,,,,,,,,,,,,,,,,,,,,,,,,,,,,,,,,,,,,,,,,,,,,,,,,,,,,,,,,,,,,,,,,,,,,,,,,,,,,,,,,,,,,,,,,,,,
,,6511d86a9c7ebb7a6e39920f,2024-02-18_20h15.28.819,kallum_motion_pilot,2023.2.2,Win32,59.88023952,6511d86a9c7ebb7a6e39920f,65d2b6c8f2eece985d8e374c,65d2b9b270d37fb582418463,0.0344,0.0344,0,109,109,133,1,seveneight,,,,,,,,,,,,,,,,,,,,,,,,,,,,,,,,,,,,,,,,,,,,,,,,,,,,,,,,,,,,,,,,,,,,,,,,,,,,,,,,,,,,,,,,,,,,,,,,,,,,,,,,,,,,,,,,,,,,,,,,,,,,,,,,,,,,,,,,,
,,6511d86a9c7ebb7a6e39920f,2024-02-18_20h15.28.819,kallum_motion_pilot,2023.2.2,Win32,59.88023952,6511d86a9c7ebb7a6e39920f,65d2b6c8f2eece985d8e374c,65d2b9b270d37fb582418463,0.0345,0.0345,0,110,110,83,1,sixeight,,,,,,,,,,,,,,,,,,,,,,,,,,,,,,,,,,,,,,,,,,,,,,,,,,,,,,,,,,,,,,,,,,,,,,,,,,,,,,,,,,,,,,,,,,,,,,,,,,,,,,,,,,,,,,,,,,,,,,,,,,,,,,,,,,,,,,,,,
,,6511d86a9c7ebb7a6e39920f,2024-02-18_20h15.28.819,kallum_motion_pilot,2023.2.2,Win32,59.88023952,6511d86a9c7ebb7a6e39920f,65d2b6c8f2eece985d8e374c,65d2b9b270d37fb582418463,0.0345,0.0346,0,111,111,127,1,eightseven,,,,,,,,,,,,,,,,,,,,,,,,,,,,,,,,,,,,,,,,,,,,,,,,,,,,,,,,,,,,,,,,,,,,,,,,,,,,,,,,,,,,,,,,,,,,,,,,,,,,,,,,,,,,,,,,,,,,,,,,,,,,,,,,,,,,,,,,,
,,6511d86a9c7ebb7a6e39920f,2024-02-18_20h15.28.819,kallum_motion_pilot,2023.2.2,Win32,59.88023952,6511d86a9c7ebb7a6e39920f,65d2b6c8f2eece985d8e374c,65d2b9b270d37fb582418463,0.0346,0.0346,0,112,112,147,1,sixeight,,,,,,,,,,,,,,,,,,,,,,,,,,,,,,,,,,,,,,,,,,,,,,,,,,,,,,,,,,,,,,,,,,,,,,,,,,,,,,,,,,,,,,,,,,,,,,,,,,,,,,,,,,,,,,,,,,,,,,,,,,,,,,,,,,,,,,,,,
,,6511d86a9c7ebb7a6e39920f,2024-02-18_20h15.28.819,kallum_motion_pilot,2023.2.2,Win32,59.88023952,6511d86a9c7ebb7a6e39920f,65d2b6c8f2eece985d8e374c,65d2b9b270d37fb582418463,0.0347,0.0347,0,113,113,37,1,threefour,,,,,,,,,,,,,,,,,,,,,,,,,,,,,,,,,,,,,,,,,,,,,,,,,,,,,,,,,,,,,,,,,,,,,,,,,,,,,,,,,,,,,,,,,,,,,,,,,,,,,,,,,,,,,,,,,,,,,,,,,,,,,,,,,,,,,,,,,
,,6511d86a9c7ebb7a6e39920f,2024-02-18_20h15.28.819,kallum_motion_pilot,2023.2.2,Win32,59.88023952,6511d86a9c7ebb7a6e39920f,65d2b6c8f2eece985d8e374c,65d2b9b270d37fb582418463,0.0348,0.0348,0,114,114,134,1,eightsix,,,,,,,,,,,,,,,,,,,,,,,,,,,,,,,,,,,,,,,,,,,,,,,,,,,,,,,,,,,,,,,,,,,,,,,,,,,,,,,,,,,,,,,,,,,,,,,,,,,,,,,,,,,,,,,,,,,,,,,,,,,,,,,,,,,,,,,,,
,,6511d86a9c7ebb7a6e39920f,2024-02-18_20h15.28.819,kallum_motion_pilot,2023.2.2,Win32,59.88023952,6511d86a9c7ebb7a6e39920f,65d2b6c8f2eece985d8e374c,65d2b9b270d37fb582418463,0.035,0.035,0,115,115,157,1,seveneight,,,,,,,,,,,,,,,,,,,,,,,,,,,,,,,,,,,,,,,,,,,,,,,,,,,,,,,,,,,,,,,,,,,,,,,,,,,,,,,,,,,,,,,,,,,,,,,,,,,,,,,,,,,,,,,,,,,,,,,,,,,,,,,,,,,,,,,,,
,,6511d86a9c7ebb7a6e39920f,2024-02-18_20h15.28.819,kallum_motion_pilot,2023.2.2,Win32,59.88023952,6511d86a9c7ebb7a6e39920f,65d2b6c8f2eece985d8e374c,65d2b9b270d37fb582418463,0.035,0.0351,0,116,116,128,1,fivesix,,,,,,,,,,,,,,,,,,,,,,,,,,,,,,,,,,,,,,,,,,,,,,,,,,,,,,,,,,,,,,,,,,,,,,,,,,,,,,,,,,,,,,,,,,,,,,,,,,,,,,,,,,,,,,,,,,,,,,,,,,,,,,,,,,,,,,,,,
,,6511d86a9c7ebb7a6e39920f,2024-02-18_20h15.28.819,kallum_motion_pilot,2023.2.2,Win32,59.88023952,6511d86a9c7ebb7a6e39920f,65d2b6c8f2eece985d8e374c,65d2b9b270d37fb582418463,0.0351,0.0352,0,117,117,154,1,sixfive,,,,,,,,,,,,,,,,,,,,,,,,,,,,,,,,,,,,,,,,,,,,,,,,,,,,,,,,,,,,,,,,,,,,,,,,,,,,,,,,,,,,,,,,,,,,,,,,,,,,,,,,,,,,,,,,,,,,,,,,,,,,,,,,,,,,,,,,,
,,6511d86a9c7ebb7a6e39920f,2024-02-18_20h15.28.819,kallum_motion_pilot,2023.2.2,Win32,59.88023952,6511d86a9c7ebb7a6e39920f,65d2b6c8f2eece985d8e374c,65d2b9b270d37fb582418463,0.0352,0.0353,0,118,118,117,1,seveneight,,,,,,,,,,,,,,,,,,,,,,,,,,,,,,,,,,,,,,,,,,,,,,,,,,,,,,,,,,,,,,,,,,,,,,,,,,,,,,,,,,,,,,,,,,,,,,,,,,,,,,,,,,,,,,,,,,,,,,,,,,,,,,,,,,,,,,,,,
,,6511d86a9c7ebb7a6e39920f,2024-02-18_20h15.28.819,kallum_motion_pilot,2023.2.2,Win32,59.88023952,6511d86a9c7ebb7a6e39920f,65d2b6c8f2eece985d8e374c,65d2b9b270d37fb582418463,0.0353,0.0353,0,119,119,116,1,sevenfive,,,,,,,,,,,,,,,,,,,,,,,,,,,,,,,,,,,,,,,,,,,,,,,,,,,,,,,,,,,,,,,,,,,,,,,,,,,,,,,,,,,,,,,,,,,,,,,,,,,,,,,,,,,,,,,,,,,,,,,,,,,,,,,,,,,,,,,,,
,,6511d86a9c7ebb7a6e39920f,2024-02-18_20h15.28.819,kallum_motion_pilot,2023.2.2,Win32,59.88023952,6511d86a9c7ebb7a6e39920f,65d2b6c8f2eece985d8e374c,65d2b9b270d37fb582418463,0.0354,0.0354,0,120,120,102,1,eightsix,,,,,,,,,,,,,,,,,,,,,,,,,,,,,,,,,,,,,,,,,,,,,,,,,,,,,,,,,,,,,,,,,,,,,,,,,,,,,,,,,,,,,,,,,,,,,,,,,,,,,,,,,,,,,,,,,,,,,,,,,,,,,,,,,,,,,,,,,
,,6511d86a9c7ebb7a6e39920f,2024-02-18_20h15.28.819,kallum_motion_pilot,2023.2.2,Win32,59.88023952,6511d86a9c7ebb7a6e39920f,65d2b6c8f2eece985d8e374c,65d2b9b270d37fb582418463,0.0355,0.0355,0,121,121,129,1,fiveseven,,,,,,,,,,,,,,,,,,,,,,,,,,,,,,,,,,,,,,,,,,,,,,,,,,,,,,,,,,,,,,,,,,,,,,,,,,,,,,,,,,,,,,,,,,,,,,,,,,,,,,,,,,,,,,,,,,,,,,,,,,,,,,,,,,,,,,,,,
,,6511d86a9c7ebb7a6e39920f,2024-02-18_20h15.28.819,kallum_motion_pilot,2023.2.2,Win32,59.88023952,6511d86a9c7ebb7a6e39920f,65d2b6c8f2eece985d8e374c,65d2b9b270d37fb582418463,0.0356,0.0356,0,122,122,158,1,eightsix,,,,,,,,,,,,,,,,,,,,,,,,,,,,,,,,,,,,,,,,,,,,,,,,,,,,,,,,,,,,,,,,,,,,,,,,,,,,,,,,,,,,,,,,,,,,,,,,,,,,,,,,,,,,,,,,,,,,,,,,,,,,,,,,,,,,,,,,,
,,6511d86a9c7ebb7a6e39920f,2024-02-18_20h15.28.819,kallum_motion_pilot,2023.2.2,Win32,59.88023952,6511d86a9c7ebb7a6e39920f,65d2b6c8f2eece985d8e374c,65d2b9b270d37fb582418463,0.0356,0.0357,0,123,123,99,1,sixeight,,,,,,,,,,,,,,,,,,,,,,,,,,,,,,,,,,,,,,,,,,,,,,,,,,,,,,,,,,,,,,,,,,,,,,,,,,,,,,,,,,,,,,,,,,,,,,,,,,,,,,,,,,,,,,,,,,,,,,,,,,,,,,,,,,,,,,,,,
,,6511d86a9c7ebb7a6e39920f,2024-02-18_20h15.28.819,kallum_motion_pilot,2023.2.2,Win32,59.88023952,6511d86a9c7ebb7a6e39920f,65d2b6c8f2eece985d8e374c,65d2b9b270d37fb582418463,0.0357,0.0358,0,124,124,88,1,fivesix,,,,,,,,,,,,,,,,,,,,,,,,,,,,,,,,,,,,,,,,,,,,,,,,,,,,,,,,,,,,,,,,,,,,,,,,,,,,,,,,,,,,,,,,,,,,,,,,,,,,,,,,,,,,,,,,,,,,,,,,,,,,,,,,,,,,,,,,,
,,6511d86a9c7ebb7a6e39920f,2024-02-18_20h15.28.819,kallum_motion_pilot,2023.2.2,Win32,59.88023952,6511d86a9c7ebb7a6e39920f,65d2b6c8f2eece985d8e374c,65d2b9b270d37fb582418463,0.0359,0.0359,0,125,125,64,1,onetwo,,,,,,,,,,,,,,,,,,,,,,,,,,,,,,,,,,,,,,,,,,,,,,,,,,,,,,,,,,,,,,,,,,,,,,,,,,,,,,,,,,,,,,,,,,,,,,,,,,,,,,,,,,,,,,,,,,,,,,,,,,,,,,,,,,,,,,,,,
,,6511d86a9c7ebb7a6e39920f,2024-02-18_20h15.28.819,kallum_motion_pilot,2023.2.2,Win32,59.88023952,6511d86a9c7ebb7a6e39920f,65d2b6c8f2eece985d8e374c,65d2b9b270d37fb582418463,0.0359,0.036,0,126,126,18,1,twoone,,,,,,,,,,,,,,,,,,,,,,,,,,,,,,,,,,,,,,,,,,,,,,,,,,,,,,,,,,,,,,,,,,,,,,,,,,,,,,,,,,,,,,,,,,,,,,,,,,,,,,,,,,,,,,,,,,,,,,,,,,,,,,,,,,,,,,,,,
,,6511d86a9c7ebb7a6e39920f,2024-02-18_20h15.28.819,kallum_motion_pilot,2023.2.2,Win32,59.88023952,6511d86a9c7ebb7a6e39920f,65d2b6c8f2eece985d8e374c,65d2b9b270d37fb582418463,0.0361,0.0361,0,127,127,87,1,eightseven,,,,,,,,,,,,,,,,,,,,,,,,,,,,,,,,,,,,,,,,,,,,,,,,,,,,,,,,,,,,,,,,,,,,,,,,,,,,,,,,,,,,,,,,,,,,,,,,,,,,,,,,,,,,,,,,,,,,,,,,,,,,,,,,,,,,,,,,,
,,6511d86a9c7ebb7a6e39920f,2024-02-18_20h15.28.819,kallum_motion_pilot,2023.2.2,Win32,59.88023952,6511d86a9c7ebb7a6e39920f,65d2b6c8f2eece985d8e374c,65d2b9b270d37fb582418463,0.0362,0.0363,0,128,128,5,1,threefour,,,,,,,,,,,,,,,,,,,,,,,,,,,,,,,,,,,,,,,,,,,,,,,,,,,,,,,,,,,,,,,,,,,,,,,,,,,,,,,,,,,,,,,,,,,,,,,,,,,,,,,,,,,,,,,,,,,,,,,,,,,,,,,,,,,,,,,,,
,,6511d86a9c7ebb7a6e39920f,2024-02-18_20h15.28.819,kallum_motion_pilot,2023.2.2,Win32,59.88023952,6511d86a9c7ebb7a6e39920f,65d2b6c8f2eece985d8e374c,65d2b9b270d37fb582418463,0.0363,0.0363,0,129,129,141,1,seveneight,,,,,,,,,,,,,,,,,,,,,,,,,,,,,,,,,,,,,,,,,,,,,,,,,,,,,,,,,,,,,,,,,,,,,,,,,,,,,,,,,,,,,,,,,,,,,,,,,,,,,,,,,,,,,,,,,,,,,,,,,,,,,,,,,,,,,,,,,
,,6511d86a9c7ebb7a6e39920f,2024-02-18_20h15.28.819,kallum_motion_pilot,2023.2.2,Win32,59.88023952,6511d86a9c7ebb7a6e39920f,65d2b6c8f2eece985d8e374c,65d2b9b270d37fb582418463,0.0364,0.0365,0,130,130,13,1,threefour,,,,,,,,,,,,,,,,,,,,,,,,,,,,,,,,,,,,,,,,,,,,,,,,,,,,,,,,,,,,,,,,,,,,,,,,,,,,,,,,,,,,,,,,,,,,,,,,,,,,,,,,,,,,,,,,,,,,,,,,,,,,,,,,,,,,,,,,,
,,6511d86a9c7ebb7a6e39920f,2024-02-18_20h15.28.819,kallum_motion_pilot,2023.2.2,Win32,59.88023952,6511d86a9c7ebb7a6e39920f,65d2b6c8f2eece985d8e374c,65d2b9b270d37fb582418463,0.0365,0.0366,0,131,131,144,1,fivesix,,,,,,,,,,,,,,,,,,,,,,,,,,,,,,,,,,,,,,,,,,,,,,,,,,,,,,,,,,,,,,,,,,,,,,,,,,,,,,,,,,,,,,,,,,,,,,,,,,,,,,,,,,,,,,,,,,,,,,,,,,,,,,,,,,,,,,,,,
,,6511d86a9c7ebb7a6e39920f,2024-02-18_20h15.28.819,kallum_motion_pilot,2023.2.2,Win32,59.88023952,6511d86a9c7ebb7a6e39920f,65d2b6c8f2eece985d8e374c,65d2b9b270d37fb582418463,0.0366,0.0367,0,132,132,56,1,onetwo,,,,,,,,,,,,,,,,,,,,,,,,,,,,,,,,,,,,,,,,,,,,,,,,,,,,,,,,,,,,,,,,,,,,,,,,,,,,,,,,,,,,,,,,,,,,,,,,,,,,,,,,,,,,,,,,,,,,,,,,,,,,,,,,,,,,,,,,,
,,6511d86a9c7ebb7a6e39920f,2024-02-18_20h15.28.819,kallum_motion_pilot,2023.2.2,Win32,59.88023952,6511d86a9c7ebb7a6e39920f,65d2b6c8f2eece985d8e374c,65d2b9b270d37fb582418463,0.0367,0.0367,0,133,133,161,1,fiveseven,,,,,,,,,,,,,,,,,,,,,,,,,,,,,,,,,,,,,,,,,,,,,,,,,,,,,,,,,,,,,,,,,,,,,,,,,,,,,,,,,,,,,,,,,,,,,,,,,,,,,,,,,,,,,,,,,,,,,,,,,,,,,,,,,,,,,,,,,
,,6511d86a9c7ebb7a6e39920f,2024-02-18_20h15.28.819,kallum_motion_pilot,2023.2.2,Win32,59.88023952,6511d86a9c7ebb7a6e39920f,65d2b6c8f2eece985d8e374c,65d2b9b270d37fb582418463,0.0368,0.0368,0,134,134,58,1,twoone,,,,,,,,,,,,,,,,,,,,,,,,,,,,,,,,,,,,,,,,,,,,,,,,,,,,,,,,,,,,,,,,,,,,,,,,,,,,,,,,,,,,,,,,,,,,,,,,,,,,,,,,,,,,,,,,,,,,,,,,,,,,,,,,,,,,,,,,,
,,6511d86a9c7ebb7a6e39920f,2024-02-18_20h15.28.819,kallum_motion_pilot,2023.2.2,Win32,59.88023952,6511d86a9c7ebb7a6e39920f,65d2b6c8f2eece985d8e374c,65d2b9b270d37fb582418463,0.0369,0.037,0,135,135,7,1,fourthree,,,,,,,,,,,,,,,,,,,,,,,,,,,,,,,,,,,,,,,,,,,,,,,,,,,,,,,,,,,,,,,,,,,,,,,,,,,,,,,,,,,,,,,,,,,,,,,,,,,,,,,,,,,,,,,,,,,,,,,,,,,,,,,,,,,,,,,,,
,,6511d86a9c7ebb7a6e39920f,2024-02-18_20h15.28.819,kallum_motion_pilot,2023.2.2,Win32,59.88023952,6511d86a9c7ebb7a6e39920f,65d2b6c8f2eece985d8e374c,65d2b9b270d37fb582418463,0.037,0.037,0,136,136,45,1,threefour,,,,,,,,,,,,,,,,,,,,,,,,,,,,,,,,,,,,,,,,,,,,,,,,,,,,,,,,,,,,,,,,,,,,,,,,,,,,,,,,,,,,,,,,,,,,,,,,,,,,,,,,,,,,,,,,,,,,,,,,,,,,,,,,,,,,,,,,,
,,6511d86a9c7ebb7a6e39920f,2024-02-18_20h15.28.819,kallum_motion_pilot,2023.2.2,Win32,59.88023952,6511d86a9c7ebb7a6e39920f,65d2b6c8f2eece985d8e374c,65d2b9b270d37fb582418463,0.0372,0.0372,0,137,137,34,1,twoone,,,,,,,,,,,,,,,,,,,,,,,,,,,,,,,,,,,,,,,,,,,,,,,,,,,,,,,,,,,,,,,,,,,,,,,,,,,,,,,,,,,,,,,,,,,,,,,,,,,,,,,,,,,,,,,,,,,,,,,,,,,,,,,,,,,,,,,,,
,,6511d86a9c7ebb7a6e39920f,2024-02-18_20h15.28.819,kallum_motion_pilot,2023.2.2,Win32,59.88023952,6511d86a9c7ebb7a6e39920f,65d2b6c8f2eece985d8e374c,65d2b9b270d37fb582418463,0.0372,0.0373,0,138,138,152,1,fivesix,,,,,,,,,,,,,,,,,,,,,,,,,,,,,,,,,,,,,,,,,,,,,,,,,,,,,,,,,,,,,,,,,,,,,,,,,,,,,,,,,,,,,,,,,,,,,,,,,,,,,,,,,,,,,,,,,,,,,,,,,,,,,,,,,,,,,,,,,
,,6511d86a9c7ebb7a6e39920f,2024-02-18_20h15.28.819,kallum_motion_pilot,2023.2.2,Win32,59.88023952,6511d86a9c7ebb7a6e39920f,65d2b6c8f2eece985d8e374c,65d2b9b270d37fb582418463,0.0373,0.0374,0,139,139,77,1,threefour,,,,,,,,,,,,,,,,,,,,,,,,,,,,,,,,,,,,,,,,,,,,,,,,,,,,,,,,,,,,,,,,,,,,,,,,,,,,,,,,,,,,,,,,,,,,,,,,,,,,,,,,,,,,,,,,,,,,,,,,,,,,,,,,,,,,,,,,,
,,6511d86a9c7ebb7a6e39920f,2024-02-18_20h15.28.819,kallum_motion_pilot,2023.2.2,Win32,59.88023952,6511d86a9c7ebb7a6e39920f,65d2b6c8f2eece985d8e374c,65d2b9b270d37fb582418463,0.0374,0.0375,0,140,140,62,1,fourtwo,,,,,,,,,,,,,,,,,,,,,,,,,,,,,,,,,,,,,,,,,,,,,,,,,,,,,,,,,,,,,,,,,,,,,,,,,,,,,,,,,,,,,,,,,,,,,,,,,,,,,,,,,,,,,,,,,,,,,,,,,,,,,,,,,,,,,,,,,
,,6511d86a9c7ebb7a6e39920f,2024-02-18_20h15.28.819,kallum_motion_pilot,2023.2.2,Win32,59.88023952,6511d86a9c7ebb7a6e39920f,65d2b6c8f2eece985d8e374c,65d2b9b270d37fb582418463,0.0375,0.0376,0,141,141,20,1,threeone,,,,,,,,,,,,,,,,,,,,,,,,,,,,,,,,,,,,,,,,,,,,,,,,,,,,,,,,,,,,,,,,,,,,,,,,,,,,,,,,,,,,,,,,,,,,,,,,,,,,,,,,,,,,,,,,,,,,,,,,,,,,,,,,,,,,,,,,,
,,6511d86a9c7ebb7a6e39920f,2024-02-18_20h15.28.819,kallum_motion_pilot,2023.2.2,Win32,59.88023952,6511d86a9c7ebb7a6e39920f,65d2b6c8f2eece985d8e374c,65d2b9b270d37fb582418463,0.0376,0.0376,0,142,142,48,1,onetwo,,,,,,,,,,,,,,,,,,,,,,,,,,,,,,,,,,,,,,,,,,,,,,,,,,,,,,,,,,,,,,,,,,,,,,,,,,,,,,,,,,,,,,,,,,,,,,,,,,,,,,,,,,,,,,,,,,,,,,,,,,,,,,,,,,,,,,,,,
,,6511d86a9c7ebb7a6e39920f,2024-02-18_20h15.28.819,kallum_motion_pilot,2023.2.2,Win32,59.88023952,6511d86a9c7ebb7a6e39920f,65d2b6c8f2eece985d8e374c,65d2b9b270d37fb582418463,0.0376,0.0377,0,143,143,76,1,threeone,,,,,,,,,,,,,,,,,,,,,,,,,,,,,,,,,,,,,,,,,,,,,,,,,,,,,,,,,,,,,,,,,,,,,,,,,,,,,,,,,,,,,,,,,,,,,,,,,,,,,,,,,,,,,,,,,,,,,,,,,,,,,,,,,,,,,,,,,
,,6511d86a9c7ebb7a6e39920f,2024-02-18_20h15.28.819,kallum_motion_pilot,2023.2.2,Win32,59.88023952,6511d86a9c7ebb7a6e39920f,65d2b6c8f2eece985d8e374c,65d2b9b270d37fb582418463,0.0377,0.0378,0,144,144,91,1,sixeight,,,,,,,,,,,,,,,,,,,,,,,,,,,,,,,,,,,,,,,,,,,,,,,,,,,,,,,,,,,,,,,,,,,,,,,,,,,,,,,,,,,,,,,,,,,,,,,,,,,,,,,,,,,,,,,,,,,,,,,,,,,,,,,,,,,,,,,,,
,,6511d86a9c7ebb7a6e39920f,2024-02-18_20h15.28.819,kallum_motion_pilot,2023.2.2,Win32,59.88023952,6511d86a9c7ebb7a6e39920f,65d2b6c8f2eece985d8e374c,65d2b9b270d37fb582418463,0.0378,0.0379,0,145,145,78,1,fourtwo,,,,,,,,,,,,,,,,,,,,,,,,,,,,,,,,,,,,,,,,,,,,,,,,,,,,,,,,,,,,,,,,,,,,,,,,,,,,,,,,,,,,,,,,,,,,,,,,,,,,,,,,,,,,,,,,,,,,,,,,,,,,,,,,,,,,,,,,,
,,6511d86a9c7ebb7a6e39920f,2024-02-18_20h15.28.819,kallum_motion_pilot,2023.2.2,Win32,59.88023952,6511d86a9c7ebb7a6e39920f,65d2b6c8f2eece985d8e374c,65d2b9b270d37fb582418463,0.038,0.038,0,146,146,50,1,twoone,,,,,,,,,,,,,,,,,,,,,,,,,,,,,,,,,,,,,,,,,,,,,,,,,,,,,,,,,,,,,,,,,,,,,,,,,,,,,,,,,,,,,,,,,,,,,,,,,,,,,,,,,,,,,,,,,,,,,,,,,,,,,,,,,,,,,,,,,
,,6511d86a9c7ebb7a6e39920f,2024-02-18_20h15.28.819,kallum_motion_pilot,2023.2.2,Win32,59.88023952,6511d86a9c7ebb7a6e39920f,65d2b6c8f2eece985d8e374c,65d2b9b270d37fb582418463,0.0381,0.0381,0,147,147,126,1,eightsix,,,,,,,,,,,,,,,,,,,,,,,,,,,,,,,,,,,,,,,,,,,,,,,,,,,,,,,,,,,,,,,,,,,,,,,,,,,,,,,,,,,,,,,,,,,,,,,,,,,,,,,,,,,,,,,,,,,,,,,,,,,,,,,,,,,,,,,,,
,,6511d86a9c7ebb7a6e39920f,2024-02-18_20h15.28.819,kallum_motion_pilot,2023.2.2,Win32,59.88023952,6511d86a9c7ebb7a6e39920f,65d2b6c8f2eece985d8e374c,65d2b9b270d37fb582418463,0.0382,0.0382,0,148,148,63,1,fourthree,,,,,,,,,,,,,,,,,,,,,,,,,,,,,,,,,,,,,,,,,,,,,,,,,,,,,,,,,,,,,,,,,,,,,,,,,,,,,,,,,,,,,,,,,,,,,,,,,,,,,,,,,,,,,,,,,,,,,,,,,,,,,,,,,,,,,,,,,
,,6511d86a9c7ebb7a6e39920f,2024-02-18_20h15.28.819,kallum_motion_pilot,2023.2.2,Win32,59.88023952,6511d86a9c7ebb7a6e39920f,65d2b6c8f2eece985d8e374c,65d2b9b270d37fb582418463,0.0383,0.0383,0,149,149,115,1,sixeight,,,,,,,,,,,,,,,,,,,,,,,,,,,,,,,,,,,,,,,,,,,,,,,,,,,,,,,,,,,,,,,,,,,,,,,,,,,,,,,,,,,,,,,,,,,,,,,,,,,,,,,,,,,,,,,,,,,,,,,,,,,,,,,,,,,,,,,,,
,,6511d86a9c7ebb7a6e39920f,2024-02-18_20h15.28.819,kallum_motion_pilot,2023.2.2,Win32,59.88023952,6511d86a9c7ebb7a6e39920f,65d2b6c8f2eece985d8e374c,65d2b9b270d37fb582418463,0.0384,0.0384,0,150,150,123,1,sixeight,,,,,,,,,,,,,,,,,,,,,,,,,,,,,,,,,,,,,,,,,,,,,,,,,,,,,,,,,,,,,,,,,,,,,,,,,,,,,,,,,,,,,,,,,,,,,,,,,,,,,,,,,,,,,,,,,,,,,,,,,,,,,,,,,,,,,,,,,
,,6511d86a9c7ebb7a6e39920f,2024-02-18_20h15.28.819,kallum_motion_pilot,2023.2.2,Win32,59.88023952,6511d86a9c7ebb7a6e39920f,65d2b6c8f2eece985d8e374c,65d2b9b270d37fb582418463,0.0384,0.0385,0,151,151,75,1,twofour,,,,,,,,,,,,,,,,,,,,,,,,,,,,,,,,,,,,,,,,,,,,,,,,,,,,,,,,,,,,,,,,,,,,,,,,,,,,,,,,,,,,,,,,,,,,,,,,,,,,,,,,,,,,,,,,,,,,,,,,,,,,,,,,,,,,,,,,,
,,6511d86a9c7ebb7a6e39920f,2024-02-18_20h15.28.819,kallum_motion_pilot,2023.2.2,Win32,59.88023952,6511d86a9c7ebb7a6e39920f,65d2b6c8f2eece985d8e374c,65d2b9b270d37fb582418463,0.0385,0.0386,0,152,152,6,1,fourtwo,,,,,,,,,,,,,,,,,,,,,,,,,,,,,,,,,,,,,,,,,,,,,,,,,,,,,,,,,,,,,,,,,,,,,,,,,,,,,,,,,,,,,,,,,,,,,,,,,,,,,,,,,,,,,,,,,,,,,,,,,,,,,,,,,,,,,,,,,
,,6511d86a9c7ebb7a6e39920f,2024-02-18_20h15.28.819,kallum_motion_pilot,2023.2.2,Win32,59.88023952,6511d86a9c7ebb7a6e39920f,65d2b6c8f2eece985d8e374c,65d2b9b270d37fb582418463,0.0386,0.0387,0,153,153,90,1,sixfive,,,,,,,,,,,,,,,,,,,,,,,,,,,,,,,,,,,,,,,,,,,,,,,,,,,,,,,,,,,,,,,,,,,,,,,,,,,,,,,,,,,,,,,,,,,,,,,,,,,,,,,,,,,,,,,,,,,,,,,,,,,,,,,,,,,,,,,,,
,,6511d86a9c7ebb7a6e39920f,2024-02-18_20h15.28.819,kallum_motion_pilot,2023.2.2,Win32,59.88023952,6511d86a9c7ebb7a6e39920f,65d2b6c8f2eece985d8e374c,65d2b9b270d37fb582418463,0.0388,0.0388,0,154,154,113,1,fiveseven,,,,,,,,,,,,,,,,,,,,,,,,,,,,,,,,,,,,,,,,,,,,,,,,,,,,,,,,,,,,,,,,,,,,,,,,,,,,,,,,,,,,,,,,,,,,,,,,,,,,,,,,,,,,,,,,,,,,,,,,,,,,,,,,,,,,,,,,,
,,6511d86a9c7ebb7a6e39920f,2024-02-18_20h15.28.819,kallum_motion_pilot,2023.2.2,Win32,59.88023952,6511d86a9c7ebb7a6e39920f,65d2b6c8f2eece985d8e374c,65d2b9b270d37fb582418463,0.0388,0.0389,0,155,155,26,1,twoone,,,,,,,,,,,,,,,,,,,,,,,,,,,,,,,,,,,,,,,,,,,,,,,,,,,,,,,,,,,,,,,,,,,,,,,,,,,,,,,,,,,,,,,,,,,,,,,,,,,,,,,,,,,,,,,,,,,,,,,,,,,,,,,,,,,,,,,,,
,,6511d86a9c7ebb7a6e39920f,2024-02-18_20h15.28.819,kallum_motion_pilot,2023.2.2,Win32,59.88023952,6511d86a9c7ebb7a6e39920f,65d2b6c8f2eece985d8e374c,65d2b9b270d37fb582418463,0.0391,0.0391,0,156,156,119,1,eightseven,,,,,,,,,,,,,,,,,,,,,,,,,,,,,,,,,,,,,,,,,,,,,,,,,,,,,,,,,,,,,,,,,,,,,,,,,,,,,,,,,,,,,,,,,,,,,,,,,,,,,,,,,,,,,,,,,,,,,,,,,,,,,,,,,,,,,,,,,
,,6511d86a9c7ebb7a6e39920f,2024-02-18_20h15.28.819,kallum_motion_pilot,2023.2.2,Win32,59.88023952,6511d86a9c7ebb7a6e39920f,65d2b6c8f2eece985d8e374c,65d2b9b270d37fb582418463,0.0392,0.0392,0,157,157,92,1,sevenfive,,,,,,,,,,,,,,,,,,,,,,,,,,,,,,,,,,,,,,,,,,,,,,,,,,,,,,,,,,,,,,,,,,,,,,,,,,,,,,,,,,,,,,,,,,,,,,,,,,,,,,,,,,,,,,,,,,,,,,,,,,,,,,,,,,,,,,,,,
,,6511d86a9c7ebb7a6e39920f,2024-02-18_20h15.28.819,kallum_motion_pilot,2023.2.2,Win32,59.88023952,6511d86a9c7ebb7a6e39920f,65d2b6c8f2eece985d8e374c,65d2b9b270d37fb582418463,0.0393,0.0394,0,158,158,70,1,fourtwo,,,,,,,,,,,,,,,,,,,,,,,,,,,,,,,,,,,,,,,,,,,,,,,,,,,,,,,,,,,,,,,,,,,,,,,,,,,,,,,,,,,,,,,,,,,,,,,,,,,,,,,,,,,,,,,,,,,,,,,,,,,,,,,,,,,,,,,,,
,,6511d86a9c7ebb7a6e39920f,2024-02-18_20h15.28.819,kallum_motion_pilot,2023.2.2,Win32,59.88023952,6511d86a9c7ebb7a6e39920f,65d2b6c8f2eece985d8e374c,65d2b9b270d37fb582418463,0.0394,0.0394,0,159,159,142,1,eightsix,,,,,,,,,,,,,,,,,,,,,,,,,,,,,,,,,,,,,,,,,,,,,,,,,,,,,,,,,,,,,,,,,,,,,,,,,,,,,,,,,,,,,,,,,,,,,,,,,,,,,,,,,,,,,,,,,,,,,,,,,,,,,,,,,,,,,,,,,
,,6511d86a9c7ebb7a6e39920f,2024-02-18_20h15.28.819,kallum_motion_pilot,2023.2.2,Win32,59.88023952,6511d86a9c7ebb7a6e39920f,65d2b6c8f2eece985d8e374c,65d2b9b270d37fb582418463,0.0395,0.0396,0,160,160,96,1,fivesix,,,,,,,,,,,,,,,,,,,,,,,,,,,,,,,,,,,,,,,,,,,,,,,,,,,,,,,,,,,,,,,,,,,,,,,,,,,,,,,,,,,,,,,,,,,,,,,,,,,,,,,,,,,,,,,,,,,,,,,,,,,,,,,,,,,,,,,,,
,,6511d86a9c7ebb7a6e39920f,2024-02-18_20h15.28.819,kallum_motion_pilot,2023.2.2,Win32,59.88023952,6511d86a9c7ebb7a6e39920f,65d2b6c8f2eece985d8e374c,65d2b9b270d37fb582418463,0.0396,0.0396,0,161,161,97,1,fiveseven,,,,,,,,,,,,,,,,,,,,,,,,,,,,,,,,,,,,,,,,,,,,,,,,,,,,,,,,,,,,,,,,,,,,,,,,,,,,,,,,,,,,,,,,,,,,,,,,,,,,,,,,,,,,,,,,,,,,,,,,,,,,,,,,,,,,,,,,,
,,6511d86a9c7ebb7a6e39920f,2024-02-18_20h15.28.819,kallum_motion_pilot,2023.2.2,Win32,59.88023952,6511d86a9c7ebb7a6e39920f,65d2b6c8f2eece985d8e374c,65d2b9b270d37fb582418463,0.0398,0.0399,1,0,162,68,1,threeone,,,,,,,,,,,,,,,,,,,,,,,,,,,,,,,,,,,,,,,,,,,,,,,,,,,,,,,,,,,,,,,,,,,,,,,,,,,,,,,,,,,,,,,,,,,,,,,,,,,,,,,,,,,,,,,,,,,,,,,,,,,,,,,,,,,,,,,,,
,,6511d86a9c7ebb7a6e39920f,2024-02-18_20h15.28.819,kallum_motion_pilot,2023.2.2,Win32,59.88023952,6511d86a9c7ebb7a6e39920f,65d2b6c8f2eece985d8e374c,65d2b9b270d37fb582418463,0.0399,0.0399,1,1,163,72,1,onetwo,,,,,,,,,,,,,,,,,,,,,,,,,,,,,,,,,,,,,,,,,,,,,,,,,,,,,,,,,,,,,,,,,,,,,,,,,,,,,,,,,,,,,,,,,,,,,,,,,,,,,,,,,,,,,,,,,,,,,,,,,,,,,,,,,,,,,,,,,
,,6511d86a9c7ebb7a6e39920f,2024-02-18_20h15.28.819,kallum_motion_pilot,2023.2.2,Win32,59.88023952,6511d86a9c7ebb7a6e39920f,65d2b6c8f2eece985d8e374c,65d2b9b270d37fb582418463,0.0399,0.04,1,2,164,2,1,twoone,,,,,,,,,,,,,,,,,,,,,,,,,,,,,,,,,,,,,,,,,,,,,,,,,,,,,,,,,,,,,,,,,,,,,,,,,,,,,,,,,,,,,,,,,,,,,,,,,,,,,,,,,,,,,,,,,,,,,,,,,,,,,,,,,,,,,,,,,
,,6511d86a9c7ebb7a6e39920f,2024-02-18_20h15.28.819,kallum_motion_pilot,2023.2.2,Win32,59.88023952,6511d86a9c7ebb7a6e39920f,65d2b6c8f2eece985d8e374c,65d2b9b270d37fb582418463,0.04,0.0401,1,3,165,123,1,sixeight,,,,,,,,,,,,,,,,,,,,,,,,,,,,,,,,,,,,,,,,,,,,,,,,,,,,,,,,,,,,,,,,,,,,,,,,,,,,,,,,,,,,,,,,,,,,,,,,,,,,,,,,,,,,,,,,,,,,,,,,,,,,,,,,,,,,,,,,,
,,6511d86a9c7ebb7a6e39920f,2024-02-18_20h15.28.819,kallum_motion_pilot,2023.2.2,Win32,59.88023952,6511d86a9c7ebb7a6e39920f,65d2b6c8f2eece985d8e374c,65d2b9b270d37fb582418463,0.0402,0.0402,1,4,166,32,1,onetwo,,,,,,,,,,,,,,,,,,,,,,,,,,,,,,,,,,,,,,,,,,,,,,,,,,,,,,,,,,,,,,,,,,,,,,,,,,,,,,,,,,,,,,,,,,,,,,,,,,,,,,,,,,,,,,,,,,,,,,,,,,,,,,,,,,,,,,,,,
,,6511d86a9c7ebb7a6e39920f,2024-02-18_20h15.28.819,kallum_motion_pilot,2023.2.2,Win32,59.88023952,6511d86a9c7ebb7a6e39920f,65d2b6c8f2eece985d8e374c,65d2b9b270d37fb582418463,0.0403,0.0404,1,5,167,16,1,onetwo,,,,,,,,,,,,,,,,,,,,,,,,,,,,,,,,,,,,,,,,,,,,,,,,,,,,,,,,,,,,,,,,,,,,,,,,,,,,,,,,,,,,,,,,,,,,,,,,,,,,,,,,,,,,,,,,,,,,,,,,,,,,,,,,,,,,,,,,,
,,6511d86a9c7ebb7a6e39920f,2024-02-18_20h15.28.819,kallum_motion_pilot,2023.2.2,Win32,59.88023952,6511d86a9c7ebb7a6e39920f,65d2b6c8f2eece985d8e374c,65d2b9b270d37fb582418463,0.0405,0.0405,1,6,168,52,1,threeone,,,,,,,,,,,,,,,,,,,,,,,,,,,,,,,,,,,,,,,,,,,,,,,,,,,,,,,,,,,,,,,,,,,,,,,,,,,,,,,,,,,,,,,,,,,,,,,,,,,,,,,,,,,,,,,,,,,,,,,,,,,,,,,,,,,,,,,,,
,,6511d86a9c7ebb7a6e39920f,2024-02-18_20h15.28.819,kallum_motion_pilot,2023.2.2,Win32,59.88023952,6511d86a9c7ebb7a6e39920f,65d2b6c8f2eece985d8e374c,65d2b9b270d37fb582418463,0.0406,0.0406,1,7,169,76,1,threeone,,,,,,,,,,,,,,,,,,,,,,,,,,,,,,,,,,,,,,,,,,,,,,,,,,,,,,,,,,,,,,,,,,,,,,,,,,,,,,,,,,,,,,,,,,,,,,,,,,,,,,,,,,,,,,,,,,,,,,,,,,,,,,,,,,,,,,,,,
,,6511d86a9c7ebb7a6e39920f,2024-02-18_20h15.28.819,kallum_motion_pilot,2023.2.2,Win32,59.88023952,6511d86a9c7ebb7a6e39920f,65d2b6c8f2eece985d8e374c,65d2b9b270d37fb582418463,0.0406,0.0406,1,8,170,134,1,eightsix,,,,,,,,,,,,,,,,,,,,,,,,,,,,,,,,,,,,,,,,,,,,,,,,,,,,,,,,,,,,,,,,,,,,,,,,,,,,,,,,,,,,,,,,,,,,,,,,,,,,,,,,,,,,,,,,,,,,,,,,,,,,,,,,,,,,,,,,,
,,6511d86a9c7ebb7a6e39920f,2024-02-18_20h15.28.819,kallum_motion_pilot,2023.2.2,Win32,59.88023952,6511d86a9c7ebb7a6e39920f,65d2b6c8f2eece985d8e374c,65d2b9b270d37fb582418463,0.0408,0.0408,1,9,171,71,1,fourthree,,,,,,,,,,,,,,,,,,,,,,,,,,,,,,,,,,,,,,,,,,,,,,,,,,,,,,,,,,,,,,,,,,,,,,,,,,,,,,,,,,,,,,,,,,,,,,,,,,,,,,,,,,,,,,,,,,,,,,,,,,,,,,,,,,,,,,,,,
,,6511d86a9c7ebb7a6e39920f,2024-02-18_20h15.28.819,kallum_motion_pilot,2023.2.2,Win32,59.88023952,6511d86a9c7ebb7a6e39920f,65d2b6c8f2eece985d8e374c,65d2b9b270d37fb582418463,0.0408,0.0409,1,10,172,50,1,twoone,,,,,,,,,,,,,,,,,,,,,,,,,,,,,,,,,,,,,,,,,,,,,,,,,,,,,,,,,,,,,,,,,,,,,,,,,,,,,,,,,,,,,,,,,,,,,,,,,,,,,,,,,,,,,,,,,,,,,,,,,,,,,,,,,,,,,,,,,
,,6511d86a9c7ebb7a6e39920f,2024-02-18_20h15.28.819,kallum_motion_pilot,2023.2.2,Win32,59.88023952,6511d86a9c7ebb7a6e39920f,65d2b6c8f2eece985d8e374c,65d2b9b270d37fb582418463,0.041,0.041,1,11,173,56,1,onetwo,,,,,,,,,,,,,,,,,,,,,,,,,,,,,,,,,,,,,,,,,,,,,,,,,,,,,,,,,,,,,,,,,,,,,,,,,,,,,,,,,,,,,,,,,,,,,,,,,,,,,,,,,,,,,,,,,,,,,,,,,,,,,,,,,,,,,,,,,
,,6511d86a9c7ebb7a6e39920f,2024-02-18_20h15.28.819,kallum_motion_pilot,2023.2.2,Win32,59.88023952,6511d86a9c7ebb7a6e39920f,65d2b6c8f2eece985d8e374c,65d2b9b270d37fb582418463,0.0411,0.0411,1,12,174,73,1,onethree,,,,,,,,,,,,,,,,,,,,,,,,,,,,,,,,,,,,,,,,,,,,,,,,,,,,,,,,,,,,,,,,,,,,,,,,,,,,,,,,,,,,,,,,,,,,,,,,,,,,,,,,,,,,,,,,,,,,,,,,,,,,,,,,,,,,,,,,,
,,6511d86a9c7ebb7a6e39920f,2024-02-18_20h15.28.819,kallum_motion_pilot,2023.2.2,Win32,59.88023952,6511d86a9c7ebb7a6e39920f,65d2b6c8f2eece985d8e374c,65d2b9b270d37fb582418463,0.0411,0.0412,1,13,175,142,1,eightsix,,,,,,,,,,,,,,,,,,,,,,,,,,,,,,,,,,,,,,,,,,,,,,,,,,,,,,,,,,,,,,,,,,,,,,,,,,,,,,,,,,,,,,,,,,,,,,,,,,,,,,,,,,,,,,,,,,,,,,,,,,,,,,,,,,,,,,,,,
,,6511d86a9c7ebb7a6e39920f,2024-02-18_20h15.28.819,kallum_motion_pilot,2023.2.2,Win32,59.88023952,6511d86a9c7ebb7a6e39920f,65d2b6c8f2eece985d8e374c,65d2b9b270d37fb582418463,0.0413,0.0414,1,14,176,43,1,twofour,,,,,,,,,,,,,,,,,,,,,,,,,,,,,,,,,,,,,,,,,,,,,,,,,,,,,,,,,,,,,,,,,,,,,,,,,,,,,,,,,,,,,,,,,,,,,,,,,,,,,,,,,,,,,,,,,,,,,,,,,,,,,,,,,,,,,,,,,
,,6511d86a9c7ebb7a6e39920f,2024-02-18_20h15.28.819,kallum_motion_pilot,2023.2.2,Win32,59.88023952,6511d86a9c7ebb7a6e39920f,65d2b6c8f2eece985d8e374c,65d2b9b270d37fb582418463,0.0414,0.0414,1,15,177,113,1,fiveseven,,,,,,,,,,,,,,,,,,,,,,,,,,,,,,,,,,,,,,,,,,,,,,,,,,,,,,,,,,,,,,,,,,,,,,,,,,,,,,,,,,,,,,,,,,,,,,,,,,,,,,,,,,,,,,,,,,,,,,,,,,,,,,,,,,,,,,,,,
,,6511d86a9c7ebb7a6e39920f,2024-02-18_20h15.28.819,kallum_motion_pilot,2023.2.2,Win32,59.88023952,6511d86a9c7ebb7a6e39920f,65d2b6c8f2eece985d8e374c,65d2b9b270d37fb582418463,0.0415,0.0415,1,16,178,92,1,sevenfive,,,,,,,,,,,,,,,,,,,,,,,,,,,,,,,,,,,,,,,,,,,,,,,,,,,,,,,,,,,,,,,,,,,,,,,,,,,,,,,,,,,,,,,,,,,,,,,,,,,,,,,,,,,,,,,,,,,,,,,,,,,,,,,,,,,,,,,,,
,,6511d86a9c7ebb7a6e39920f,2024-02-18_20h15.28.819,kallum_motion_pilot,2023.2.2,Win32,59.88023952,6511d86a9c7ebb7a6e39920f,65d2b6c8f2eece985d8e374c,65d2b9b270d37fb582418463,0.0416,0.0416,1,17,179,137,1,fiveseven,,,,,,,,,,,,,,,,,,,,,,,,,,,,,,,,,,,,,,,,,,,,,,,,,,,,,,,,,,,,,,,,,,,,,,,,,,,,,,,,,,,,,,,,,,,,,,,,,,,,,,,,,,,,,,,,,,,,,,,,,,,,,,,,,,,,,,,,,
,,6511d86a9c7ebb7a6e39920f,2024-02-18_20h15.28.819,kallum_motion_pilot,2023.2.2,Win32,59.88023952,6511d86a9c7ebb7a6e39920f,65d2b6c8f2eece985d8e374c,65d2b9b270d37fb582418463,0.0416,0.0417,1,18,180,13,1,threefour,,,,,,,,,,,,,,,,,,,,,,,,,,,,,,,,,,,,,,,,,,,,,,,,,,,,,,,,,,,,,,,,,,,,,,,,,,,,,,,,,,,,,,,,,,,,,,,,,,,,,,,,,,,,,,,,,,,,,,,,,,,,,,,,,,,,,,,,,
,,6511d86a9c7ebb7a6e39920f,2024-02-18_20h15.28.819,kallum_motion_pilot,2023.2.2,Win32,59.88023952,6511d86a9c7ebb7a6e39920f,65d2b6c8f2eece985d8e374c,65d2b9b270d37fb582418463,0.0417,0.0418,1,19,181,62,1,fourtwo,,,,,,,,,,,,,,,,,,,,,,,,,,,,,,,,,,,,,,,,,,,,,,,,,,,,,,,,,,,,,,,,,,,,,,,,,,,,,,,,,,,,,,,,,,,,,,,,,,,,,,,,,,,,,,,,,,,,,,,,,,,,,,,,,,,,,,,,,
,,6511d86a9c7ebb7a6e39920f,2024-02-18_20h15.28.819,kallum_motion_pilot,2023.2.2,Win32,59.88023952,6511d86a9c7ebb7a6e39920f,65d2b6c8f2eece985d8e374c,65d2b9b270d37fb582418463,0.0419,0.0419,1,20,182,20,1,threeone,,,,,,,,,,,,,,,,,,,,,,,,,,,,,,,,,,,,,,,,,,,,,,,,,,,,,,,,,,,,,,,,,,,,,,,,,,,,,,,,,,,,,,,,,,,,,,,,,,,,,,,,,,,,,,,,,,,,,,,,,,,,,,,,,,,,,,,,,
,,6511d86a9c7ebb7a6e39920f,2024-02-18_20h15.28.819,kallum_motion_pilot,2023.2.2,Win32,59.88023952,6511d86a9c7ebb7a6e39920f,65d2b6c8f2eece985d8e374c,65d2b9b270d37fb582418463,0.042,0.042,1,21,183,117,1,seveneight,,,,,,,,,,,,,,,,,,,,,,,,,,,,,,,,,,,,,,,,,,,,,,,,,,,,,,,,,,,,,,,,,,,,,,,,,,,,,,,,,,,,,,,,,,,,,,,,,,,,,,,,,,,,,,,,,,,,,,,,,,,,,,,,,,,,,,,,,
,,6511d86a9c7ebb7a6e39920f,2024-02-18_20h15.28.819,kallum_motion_pilot,2023.2.2,Win32,59.88023952,6511d86a9c7ebb7a6e39920f,65d2b6c8f2eece985d8e374c,65d2b9b270d37fb582418463,0.0421,0.0421,1,22,184,27,1,twofour,,,,,,,,,,,,,,,,,,,,,,,,,,,,,,,,,,,,,,,,,,,,,,,,,,,,,,,,,,,,,,,,,,,,,,,,,,,,,,,,,,,,,,,,,,,,,,,,,,,,,,,,,,,,,,,,,,,,,,,,,,,,,,,,,,,,,,,,,
,,6511d86a9c7ebb7a6e39920f,2024-02-18_20h15.28.819,kallum_motion_pilot,2023.2.2,Win32,59.88023952,6511d86a9c7ebb7a6e39920f,65d2b6c8f2eece985d8e374c,65d2b9b270d37fb582418463,0.0422,0.0422,1,23,185,3,1,twofour,,,,,,,,,,,,,,,,,,,,,,,,,,,,,,,,,,,,,,,,,,,,,,,,,,,,,,,,,,,,,,,,,,,,,,,,,,,,,,,,,,,,,,,,,,,,,,,,,,,,,,,,,,,,,,,,,,,,,,,,,,,,,,,,,,,,,,,,,
,,6511d86a9c7ebb7a6e39920f,2024-02-18_20h15.28.819,kallum_motion_pilot,2023.2.2,Win32,59.88023952,6511d86a9c7ebb7a6e39920f,65d2b6c8f2eece985d8e374c,65d2b9b270d37fb582418463,0.0431,0.0433,1,24,186,54,1,fourtwo,,,,,,,,,,,,,,,,,,,,,,,,,,,,,,,,,,,,,,,,,,,,,,,,,,,,,,,,,,,,,,,,,,,,,,,,,,,,,,,,,,,,,,,,,,,,,,,,,,,,,,,,,,,,,,,,,,,,,,,,,,,,,,,,,,,,,,,,,
,,6511d86a9c7ebb7a6e39920f,2024-02-18_20h15.28.819,kallum_motion_pilot,2023.2.2,Win32,59.88023952,6511d86a9c7ebb7a6e39920f,65d2b6c8f2eece985d8e374c,65d2b9b270d37fb582418463,0.0433,0.0434,1,25,187,61,1,threefour,,,,,,,,,,,,,,,,,,,,,,,,,,,,,,,,,,,,,,,,,,,,,,,,,,,,,,,,,,,,,,,,,,,,,,,,,,,,,,,,,,,,,,,,,,,,,,,,,,,,,,,,,,,,,,,,,,,,,,,,,,,,,,,,,,,,,,,,,
,,6511d86a9c7ebb7a6e39920f,2024-02-18_20h15.28.819,kallum_motion_pilot,2023.2.2,Win32,59.88023952,6511d86a9c7ebb7a6e39920f,65d2b6c8f2eece985d8e374c,65d2b9b270d37fb582418463,0.0435,0.0435,1,26,188,143,1,eightseven,,,,,,,,,,,,,,,,,,,,,,,,,,,,,,,,,,,,,,,,,,,,,,,,,,,,,,,,,,,,,,,,,,,,,,,,,,,,,,,,,,,,,,,,,,,,,,,,,,,,,,,,,,,,,,,,,,,,,,,,,,,,,,,,,,,,,,,,,
,,6511d86a9c7ebb7a6e39920f,2024-02-18_20h15.28.819,kallum_motion_pilot,2023.2.2,Win32,59.88023952,6511d86a9c7ebb7a6e39920f,65d2b6c8f2eece985d8e374c,65d2b9b270d37fb582418463,0.0436,0.0436,1,27,189,49,1,onethree,,,,,,,,,,,,,,,,,,,,,,,,,,,,,,,,,,,,,,,,,,,,,,,,,,,,,,,,,,,,,,,,,,,,,,,,,,,,,,,,,,,,,,,,,,,,,,,,,,,,,,,,,,,,,,,,,,,,,,,,,,,,,,,,,,,,,,,,,
,,6511d86a9c7ebb7a6e39920f,2024-02-18_20h15.28.819,kallum_motion_pilot,2023.2.2,Win32,59.88023952,6511d86a9c7ebb7a6e39920f,65d2b6c8f2eece985d8e374c,65d2b9b270d37fb582418463,0.0436,0.0437,1,28,190,99,1,sixeight,,,,,,,,,,,,,,,,,,,,,,,,,,,,,,,,,,,,,,,,,,,,,,,,,,,,,,,,,,,,,,,,,,,,,,,,,,,,,,,,,,,,,,,,,,,,,,,,,,,,,,,,,,,,,,,,,,,,,,,,,,,,,,,,,,,,,,,,,
,,6511d86a9c7ebb7a6e39920f,2024-02-18_20h15.28.819,kallum_motion_pilot,2023.2.2,Win32,59.88023952,6511d86a9c7ebb7a6e39920f,65d2b6c8f2eece985d8e374c,65d2b9b270d37fb582418463,0.0437,0.0438,1,29,191,4,1,threeone,,,,,,,,,,,,,,,,,,,,,,,,,,,,,,,,,,,,,,,,,,,,,,,,,,,,,,,,,,,,,,,,,,,,,,,,,,,,,,,,,,,,,,,,,,,,,,,,,,,,,,,,,,,,,,,,,,,,,,,,,,,,,,,,,,,,,,,,,
,,6511d86a9c7ebb7a6e39920f,2024-02-18_20h15.28.819,kallum_motion_pilot,2023.2.2,Win32,59.88023952,6511d86a9c7ebb7a6e39920f,65d2b6c8f2eece985d8e374c,65d2b9b270d37fb582418463,0.0439,0.0439,1,30,192,121,1,fiveseven,,,,,,,,,,,,,,,,,,,,,,,,,,,,,,,,,,,,,,,,,,,,,,,,,,,,,,,,,,,,,,,,,,,,,,,,,,,,,,,,,,,,,,,,,,,,,,,,,,,,,,,,,,,,,,,,,,,,,,,,,,,,,,,,,,,,,,,,,
,,6511d86a9c7ebb7a6e39920f,2024-02-18_20h15.28.819,kallum_motion_pilot,2023.2.2,Win32,59.88023952,6511d86a9c7ebb7a6e39920f,65d2b6c8f2eece985d8e374c,65d2b9b270d37fb582418463,0.044,0.044,1,31,193,9,1,onethree,,,,,,,,,,,,,,,,,,,,,,,,,,,,,,,,,,,,,,,,,,,,,,,,,,,,,,,,,,,,,,,,,,,,,,,,,,,,,,,,,,,,,,,,,,,,,,,,,,,,,,,,,,,,,,,,,,,,,,,,,,,,,,,,,,,,,,,,,
,,6511d86a9c7ebb7a6e39920f,2024-02-18_20h15.28.819,kallum_motion_pilot,2023.2.2,Win32,59.88023952,6511d86a9c7ebb7a6e39920f,65d2b6c8f2eece985d8e374c,65d2b9b270d37fb582418463,0.0441,0.0441,1,32,194,44,1,threeone,,,,,,,,,,,,,,,,,,,,,,,,,,,,,,,,,,,,,,,,,,,,,,,,,,,,,,,,,,,,,,,,,,,,,,,,,,,,,,,,,,,,,,,,,,,,,,,,,,,,,,,,,,,,,,,,,,,,,,,,,,,,,,,,,,,,,,,,,
,,6511d86a9c7ebb7a6e39920f,2024-02-18_20h15.28.819,kallum_motion_pilot,2023.2.2,Win32,59.88023952,6511d86a9c7ebb7a6e39920f,65d2b6c8f2eece985d8e374c,65d2b9b270d37fb582418463,0.0442,0.0442,1,33,195,108,1,sevenfive,,,,,,,,,,,,,,,,,,,,,,,,,,,,,,,,,,,,,,,,,,,,,,,,,,,,,,,,,,,,,,,,,,,,,,,,,,,,,,,,,,,,,,,,,,,,,,,,,,,,,,,,,,,,,,,,,,,,,,,,,,,,,,,,,,,,,,,,,
,,6511d86a9c7ebb7a6e39920f,2024-02-18_20h15.28.819,kallum_motion_pilot,2023.2.2,Win32,59.88023952,6511d86a9c7ebb7a6e39920f,65d2b6c8f2eece985d8e374c,65d2b9b270d37fb582418463,0.0443,0.0443,1,34,196,26,1,twoone,,,,,,,,,,,,,,,,,,,,,,,,,,,,,,,,,,,,,,,,,,,,,,,,,,,,,,,,,,,,,,,,,,,,,,,,,,,,,,,,,,,,,,,,,,,,,,,,,,,,,,,,,,,,,,,,,,,,,,,,,,,,,,,,,,,,,,,,,
,,6511d86a9c7ebb7a6e39920f,2024-02-18_20h15.28.819,kallum_motion_pilot,2023.2.2,Win32,59.88023952,6511d86a9c7ebb7a6e39920f,65d2b6c8f2eece985d8e374c,65d2b9b270d37fb582418463,0.0444,0.0446,1,35,197,132,1,sevenfive,,,,,,,,,,,,,,,,,,,,,,,,,,,,,,,,,,,,,,,,,,,,,,,,,,,,,,,,,,,,,,,,,,,,,,,,,,,,,,,,,,,,,,,,,,,,,,,,,,,,,,,,,,,,,,,,,,,,,,,,,,,,,,,,,,,,,,,,,
,,6511d86a9c7ebb7a6e39920f,2024-02-18_20h15.28.819,kallum_motion_pilot,2023.2.2,Win32,59.88023952,6511d86a9c7ebb7a6e39920f,65d2b6c8f2eece985d8e374c,65d2b9b270d37fb582418463,0.0446,0.0447,1,36,198,18,1,twoone,,,,,,,,,,,,,,,,,,,,,,,,,,,,,,,,,,,,,,,,,,,,,,,,,,,,,,,,,,,,,,,,,,,,,,,,,,,,,,,,,,,,,,,,,,,,,,,,,,,,,,,,,,,,,,,,,,,,,,,,,,,,,,,,,,,,,,,,,
,,6511d86a9c7ebb7a6e39920f,2024-02-18_20h15.28.819,kallum_motion_pilot,2023.2.2,Win32,59.88023952,6511d86a9c7ebb7a6e39920f,65d2b6c8f2eece985d8e374c,65d2b9b270d37fb582418463,0.0447,0.0448,1,37,199,77,1,threefour,,,,,,,,,,,,,,,,,,,,,,,,,,,,,,,,,,,,,,,,,,,,,,,,,,,,,,,,,,,,,,,,,,,,,,,,,,,,,,,,,,,,,,,,,,,,,,,,,,,,,,,,,,,,,,,,,,,,,,,,,,,,,,,,,,,,,,,,,
,,6511d86a9c7ebb7a6e39920f,2024-02-18_20h15.28.819,kallum_motion_pilot,2023.2.2,Win32,59.88023952,6511d86a9c7ebb7a6e39920f,65d2b6c8f2eece985d8e374c,65d2b9b270d37fb582418463,0.0449,0.0449,1,38,200,46,1,fourtwo,,,,,,,,,,,,,,,,,,,,,,,,,,,,,,,,,,,,,,,,,,,,,,,,,,,,,,,,,,,,,,,,,,,,,,,,,,,,,,,,,,,,,,,,,,,,,,,,,,,,,,,,,,,,,,,,,,,,,,,,,,,,,,,,,,,,,,,,,
,,6511d86a9c7ebb7a6e39920f,2024-02-18_20h15.28.819,kallum_motion_pilot,2023.2.2,Win32,59.88023952,6511d86a9c7ebb7a6e39920f,65d2b6c8f2eece985d8e374c,65d2b9b270d37fb582418463,0.045,0.0451,1,39,201,24,1,onetwo,,,,,,,,,,,,,,,,,,,,,,,,,,,,,,,,,,,,,,,,,,,,,,,,,,,,,,,,,,,,,,,,,,,,,,,,,,,,,,,,,,,,,,,,,,,,,,,,,,,,,,,,,,,,,,,,,,,,,,,,,,,,,,,,,,,,,,,,,
,,6511d86a9c7ebb7a6e39920f,2024-02-18_20h15.28.819,kallum_motion_pilot,2023.2.2,Win32,59.88023952,6511d86a9c7ebb7a6e39920f,65d2b6c8f2eece985d8e374c,65d2b9b270d37fb582418463,0.0451,0.0451,1,40,202,100,1,sevenfive,,,,,,,,,,,,,,,,,,,,,,,,,,,,,,,,,,,,,,,,,,,,,,,,,,,,,,,,,,,,,,,,,,,,,,,,,,,,,,,,,,,,,,,,,,,,,,,,,,,,,,,,,,,,,,,,,,,,,,,,,,,,,,,,,,,,,,,,,
,,6511d86a9c7ebb7a6e39920f,2024-02-18_20h15.28.819,kallum_motion_pilot,2023.2.2,Win32,59.88023952,6511d86a9c7ebb7a6e39920f,65d2b6c8f2eece985d8e374c,65d2b9b270d37fb582418463,0.0452,0.0452,1,41,203,115,1,sixeight,,,,,,,,,,,,,,,,,,,,,,,,,,,,,,,,,,,,,,,,,,,,,,,,,,,,,,,,,,,,,,,,,,,,,,,,,,,,,,,,,,,,,,,,,,,,,,,,,,,,,,,,,,,,,,,,,,,,,,,,,,,,,,,,,,,,,,,,,
,,6511d86a9c7ebb7a6e39920f,2024-02-18_20h15.28.819,kallum_motion_pilot,2023.2.2,Win32,59.88023952,6511d86a9c7ebb7a6e39920f,65d2b6c8f2eece985d8e374c,65d2b9b270d37fb582418463,0.0453,0.0454,1,42,204,33,1,onethree,,,,,,,,,,,,,,,,,,,,,,,,,,,,,,,,,,,,,,,,,,,,,,,,,,,,,,,,,,,,,,,,,,,,,,,,,,,,,,,,,,,,,,,,,,,,,,,,,,,,,,,,,,,,,,,,,,,,,,,,,,,,,,,,,,,,,,,,,
,,6511d86a9c7ebb7a6e39920f,2024-02-18_20h15.28.819,kallum_motion_pilot,2023.2.2,Win32,59.88023952,6511d86a9c7ebb7a6e39920f,65d2b6c8f2eece985d8e374c,65d2b9b270d37fb582418463,0.0454,0.0455,1,43,205,107,1,sixeight,,,,,,,,,,,,,,,,,,,,,,,,,,,,,,,,,,,,,,,,,,,,,,,,,,,,,,,,,,,,,,,,,,,,,,,,,,,,,,,,,,,,,,,,,,,,,,,,,,,,,,,,,,,,,,,,,,,,,,,,,,,,,,,,,,,,,,,,,
,,6511d86a9c7ebb7a6e39920f,2024-02-18_20h15.28.819,kallum_motion_pilot,2023.2.2,Win32,59.88023952,6511d86a9c7ebb7a6e39920f,65d2b6c8f2eece985d8e374c,65d2b9b270d37fb582418463,0.0456,0.0456,1,44,206,1,1,onethree,,,,,,,,,,,,,,,,,,,,,,,,,,,,,,,,,,,,,,,,,,,,,,,,,,,,,,,,,,,,,,,,,,,,,,,,,,,,,,,,,,,,,,,,,,,,,,,,,,,,,,,,,,,,,,,,,,,,,,,,,,,,,,,,,,,,,,,,,
,,6511d86a9c7ebb7a6e39920f,2024-02-18_20h15.28.819,kallum_motion_pilot,2023.2.2,Win32,59.88023952,6511d86a9c7ebb7a6e39920f,65d2b6c8f2eece985d8e374c,65d2b9b270d37fb582418463,0.0456,0.0457,1,45,207,74,1,twoone,,,,,,,,,,,,,,,,,,,,,,,,,,,,,,,,,,,,,,,,,,,,,,,,,,,,,,,,,,,,,,,,,,,,,,,,,,,,,,,,,,,,,,,,,,,,,,,,,,,,,,,,,,,,,,,,,,,,,,,,,,,,,,,,,,,,,,,,,
,,6511d86a9c7ebb7a6e39920f,2024-02-18_20h15.28.819,kallum_motion_pilot,2023.2.2,Win32,59.88023952,6511d86a9c7ebb7a6e39920f,65d2b6c8f2eece985d8e374c,65d2b9b270d37fb582418463,0.0459,0.0459,1,46,208,131,1,sixeight,,,,,,,,,,,,,,,,,,,,,,,,,,,,,,,,,,,,,,,,,,,,,,,,,,,,,,,,,,,,,,,,,,,,,,,,,,,,,,,,,,,,,,,,,,,,,,,,,,,,,,,,,,,,,,,,,,,,,,,,,,,,,,,,,,,,,,,,,
,,6511d86a9c7ebb7a6e39920f,2024-02-18_20h15.28.819,kallum_motion_pilot,2023.2.2,Win32,59.88023952,6511d86a9c7ebb7a6e39920f,65d2b6c8f2eece985d8e374c,65d2b9b270d37fb582418463,0.046,0.046,1,47,209,101,1,seveneight,,,,,,,,,,,,,,,,,,,,,,,,,,,,,,,,,,,,,,,,,,,,,,,,,,,,,,,,,,,,,,,,,,,,,,,,,,,,,,,,,,,,,,,,,,,,,,,,,,,,,,,,,,,,,,,,,,,,,,,,,,,,,,,,,,,,,,,,,
,,6511d86a9c7ebb7a6e39920f,2024-02-18_20h15.28.819,kallum_motion_pilot,2023.2.2,Win32,59.88023952,6511d86a9c7ebb7a6e39920f,65d2b6c8f2eece985d8e374c,65d2b9b270d37fb582418463,0.046,0.0461,1,48,210,149,1,seveneight,,,,,,,,,,,,,,,,,,,,,,,,,,,,,,,,,,,,,,,,,,,,,,,,,,,,,,,,,,,,,,,,,,,,,,,,,,,,,,,,,,,,,,,,,,,,,,,,,,,,,,,,,,,,,,,,,,,,,,,,,,,,,,,,,,,,,,,,,
,,6511d86a9c7ebb7a6e39920f,2024-02-18_20h15.28.819,kallum_motion_pilot,2023.2.2,Win32,59.88023952,6511d86a9c7ebb7a6e39920f,65d2b6c8f2eece985d8e374c,65d2b9b270d37fb582418463,0.0461,0.0462,1,49,211,35,1,twofour,,,,,,,,,,,,,,,,,,,,,,,,,,,,,,,,,,,,,,,,,,,,,,,,,,,,,,,,,,,,,,,,,,,,,,,,,,,,,,,,,,,,,,,,,,,,,,,,,,,,,,,,,,,,,,,,,,,,,,,,,,,,,,,,,,,,,,,,,
,,6511d86a9c7ebb7a6e39920f,2024-02-18_20h15.28.819,kallum_motion_pilot,2023.2.2,Win32,59.88023952,6511d86a9c7ebb7a6e39920f,65d2b6c8f2eece985d8e374c,65d2b9b270d37fb582418463,0.0463,0.0463,1,50,212,58,1,twoone,,,,,,,,,,,,,,,,,,,,,,,,,,,,,,,,,,,,,,,,,,,,,,,,,,,,,,,,,,,,,,,,,,,,,,,,,,,,,,,,,,,,,,,,,,,,,,,,,,,,,,,,,,,,,,,,,,,,,,,,,,,,,,,,,,,,,,,,,
,,6511d86a9c7ebb7a6e39920f,2024-02-18_20h15.28.819,kallum_motion_pilot,2023.2.2,Win32,59.88023952,6511d86a9c7ebb7a6e39920f,65d2b6c8f2eece985d8e374c,65d2b9b270d37fb582418463,0.0464,0.0464,1,51,213,145,1,fiveseven,,,,,,,,,,,,,,,,,,,,,,,,,,,,,,,,,,,,,,,,,,,,,,,,,,,,,,,,,,,,,,,,,,,,,,,,,,,,,,,,,,,,,,,,,,,,,,,,,,,,,,,,,,,,,,,,,,,,,,,,,,,,,,,,,,,,,,,,,
,,6511d86a9c7ebb7a6e39920f,2024-02-18_20h15.28.819,kallum_motion_pilot,2023.2.2,Win32,59.88023952,6511d86a9c7ebb7a6e39920f,65d2b6c8f2eece985d8e374c,65d2b9b270d37fb582418463,0.0465,0.0465,1,52,214,30,1,fourtwo,,,,,,,,,,,,,,,,,,,,,,,,,,,,,,,,,,,,,,,,,,,,,,,,,,,,,,,,,,,,,,,,,,,,,,,,,,,,,,,,,,,,,,,,,,,,,,,,,,,,,,,,,,,,,,,,,,,,,,,,,,,,,,,,,,,,,,,,,
,,6511d86a9c7ebb7a6e39920f,2024-02-18_20h15.28.819,kallum_motion_pilot,2023.2.2,Win32,59.88023952,6511d86a9c7ebb7a6e39920f,65d2b6c8f2eece985d8e374c,65d2b9b270d37fb582418463,0.0467,0.0467,1,53,215,88,1,fivesix,,,,,,,,,,,,,,,,,,,,,,,,,,,,,,,,,,,,,,,,,,,,,,,,,,,,,,,,,,,,,,,,,,,,,,,,,,,,,,,,,,,,,,,,,,,,,,,,,,,,,,,,,,,,,,,,,,,,,,,,,,,,,,,,,,,,,,,,,
,,6511d86a9c7ebb7a6e39920f,2024-02-18_20h15.28.819,kallum_motion_pilot,2023.2.2,Win32,59.88023952,6511d86a9c7ebb7a6e39920f,65d2b6c8f2eece985d8e374c,65d2b9b270d37fb582418463,0.0467,0.0468,1,54,216,103,1,eightseven,,,,,,,,,,,,,,,,,,,,,,,,,,,,,,,,,,,,,,,,,,,,,,,,,,,,,,,,,,,,,,,,,,,,,,,,,,,,,,,,,,,,,,,,,,,,,,,,,,,,,,,,,,,,,,,,,,,,,,,,,,,,,,,,,,,,,,,,,
,,6511d86a9c7ebb7a6e39920f,2024-02-18_20h15.28.819,kallum_motion_pilot,2023.2.2,Win32,59.88023952,6511d86a9c7ebb7a6e39920f,65d2b6c8f2eece985d8e374c,65d2b9b270d37fb582418463,0.0468,0.0469,1,55,217,104,1,fivesix,,,,,,,,,,,,,,,,,,,,,,,,,,,,,,,,,,,,,,,,,,,,,,,,,,,,,,,,,,,,,,,,,,,,,,,,,,,,,,,,,,,,,,,,,,,,,,,,,,,,,,,,,,,,,,,,,,,,,,,,,,,,,,,,,,,,,,,,,
,,6511d86a9c7ebb7a6e39920f,2024-02-18_20h15.28.819,kallum_motion_pilot,2023.2.2,Win32,59.88023952,6511d86a9c7ebb7a6e39920f,65d2b6c8f2eece985d8e374c,65d2b9b270d37fb582418463,0.047,0.047,1,56,218,140,1,sevenfive,,,,,,,,,,,,,,,,,,,,,,,,,,,,,,,,,,,,,,,,,,,,,,,,,,,,,,,,,,,,,,,,,,,,,,,,,,,,,,,,,,,,,,,,,,,,,,,,,,,,,,,,,,,,,,,,,,,,,,,,,,,,,,,,,,,,,,,,,
,,6511d86a9c7ebb7a6e39920f,2024-02-18_20h15.28.819,kallum_motion_pilot,2023.2.2,Win32,59.88023952,6511d86a9c7ebb7a6e39920f,65d2b6c8f2eece985d8e374c,65d2b9b270d37fb582418463,0.0471,0.0471,1,57,219,90,1,sixfive,,,,,,,,,,,,,,,,,,,,,,,,,,,,,,,,,,,,,,,,,,,,,,,,,,,,,,,,,,,,,,,,,,,,,,,,,,,,,,,,,,,,,,,,,,,,,,,,,,,,,,,,,,,,,,,,,,,,,,,,,,,,,,,,,,,,,,,,,
,,6511d86a9c7ebb7a6e39920f,2024-02-18_20h15.28.819,kallum_motion_pilot,2023.2.2,Win32,59.88023952,6511d86a9c7ebb7a6e39920f,65d2b6c8f2eece985d8e374c,65d2b9b270d37fb582418463,0.0472,0.0473,1,58,220,51,1,twofour,,,,,,,,,,,,,,,,,,,,,,,,,,,,,,,,,,,,,,,,,,,,,,,,,,,,,,,,,,,,,,,,,,,,,,,,,,,,,,,,,,,,,,,,,,,,,,,,,,,,,,,,,,,,,,,,,,,,,,,,,,,,,,,,,,,,,,,,,
,,6511d86a9c7ebb7a6e39920f,2024-02-18_20h15.28.819,kallum_motion_pilot,2023.2.2,Win32,59.88023952,6511d86a9c7ebb7a6e39920f,65d2b6c8f2eece985d8e374c,65d2b9b270d37fb582418463,0.0474,0.0474,1,59,221,38,1,fourtwo,,,,,,,,,,,,,,,,,,,,,,,,,,,,,,,,,,,,,,,,,,,,,,,,,,,,,,,,,,,,,,,,,,,,,,,,,,,,,,,,,,,,,,,,,,,,,,,,,,,,,,,,,,,,,,,,,,,,,,,,,,,,,,,,,,,,,,,,,
,,6511d86a9c7ebb7a6e39920f,2024-02-18_20h15.28.819,kallum_motion_pilot,2023.2.2,Win32,59.88023952,6511d86a9c7ebb7a6e39920f,65d2b6c8f2eece985d8e374c,65d2b9b270d37fb582418463,0.0474,0.0475,1,60,222,37,1,threefour,,,,,,,,,,,,,,,,,,,,,,,,,,,,,,,,,,,,,,,,,,,,,,,,,,,,,,,,,,,,,,,,,,,,,,,,,,,,,,,,,,,,,,,,,,,,,,,,,,,,,,,,,,,,,,,,,,,,,,,,,,,,,,,,,,,,,,,,,
,,6511d86a9c7ebb7a6e39920f,2024-02-18_20h15.28.819,kallum_motion_pilot,2023.2.2,Win32,59.88023952,6511d86a9c7ebb7a6e39920f,65d2b6c8f2eece985d8e374c,65d2b9b270d37fb582418463,0.0475,0.0476,1,61,223,116,1,sevenfive,,,,,,,,,,,,,,,,,,,,,,,,,,,,,,,,,,,,,,,,,,,,,,,,,,,,,,,,,,,,,,,,,,,,,,,,,,,,,,,,,,,,,,,,,,,,,,,,,,,,,,,,,,,,,,,,,,,,,,,,,,,,,,,,,,,,,,,,,
,,6511d86a9c7ebb7a6e39920f,2024-02-18_20h15.28.819,kallum_motion_pilot,2023.2.2,Win32,59.88023952,6511d86a9c7ebb7a6e39920f,65d2b6c8f2eece985d8e374c,65d2b9b270d37fb582418463,0.0476,0.0477,1,62,224,34,1,twoone,,,,,,,,,,,,,,,,,,,,,,,,,,,,,,,,,,,,,,,,,,,,,,,,,,,,,,,,,,,,,,,,,,,,,,,,,,,,,,,,,,,,,,,,,,,,,,,,,,,,,,,,,,,,,,,,,,,,,,,,,,,,,,,,,,,,,,,,,
,,6511d86a9c7ebb7a6e39920f,2024-02-18_20h15.28.819,kallum_motion_pilot,2023.2.2,Win32,59.88023952,6511d86a9c7ebb7a6e39920f,65d2b6c8f2eece985d8e374c,65d2b9b270d37fb582418463,0.0478,0.0479,1,63,225,157,1,seveneight,,,,,,,,,,,,,,,,,,,,,,,,,,,,,,,,,,,,,,,,,,,,,,,,,,,,,,,,,,,,,,,,,,,,,,,,,,,,,,,,,,,,,,,,,,,,,,,,,,,,,,,,,,,,,,,,,,,,,,,,,,,,,,,,,,,,,,,,,
,,6511d86a9c7ebb7a6e39920f,2024-02-18_20h15.28.819,kallum_motion_pilot,2023.2.2,Win32,59.88023952,6511d86a9c7ebb7a6e39920f,65d2b6c8f2eece985d8e374c,65d2b9b270d37fb582418463,0.048,0.048,1,64,226,155,1,sixeight,,,,,,,,,,,,,,,,,,,,,,,,,,,,,,,,,,,,,,,,,,,,,,,,,,,,,,,,,,,,,,,,,,,,,,,,,,,,,,,,,,,,,,,,,,,,,,,,,,,,,,,,,,,,,,,,,,,,,,,,,,,,,,,,,,,,,,,,,
,,6511d86a9c7ebb7a6e39920f,2024-02-18_20h15.28.819,kallum_motion_pilot,2023.2.2,Win32,59.88023952,6511d86a9c7ebb7a6e39920f,65d2b6c8f2eece985d8e374c,65d2b9b270d37fb582418463,0.0481,0.0482,1,65,227,148,1,sevenfive,,,,,,,,,,,,,,,,,,,,,,,,,,,,,,,,,,,,,,,,,,,,,,,,,,,,,,,,,,,,,,,,,,,,,,,,,,,,,,,,,,,,,,,,,,,,,,,,,,,,,,,,,,,,,,,,,,,,,,,,,,,,,,,,,,,,,,,,,
,,6511d86a9c7ebb7a6e39920f,2024-02-18_20h15.28.819,kallum_motion_pilot,2023.2.2,Win32,59.88023952,6511d86a9c7ebb7a6e39920f,65d2b6c8f2eece985d8e374c,65d2b9b270d37fb582418463,0.0484,0.0484,1,66,228,111,1,eightseven,,,,,,,,,,,,,,,,,,,,,,,,,,,,,,,,,,,,,,,,,,,,,,,,,,,,,,,,,,,,,,,,,,,,,,,,,,,,,,,,,,,,,,,,,,,,,,,,,,,,,,,,,,,,,,,,,,,,,,,,,,,,,,,,,,,,,,,,,
,,6511d86a9c7ebb7a6e39920f,2024-02-18_20h15.28.819,kallum_motion_pilot,2023.2.2,Win32,59.88023952,6511d86a9c7ebb7a6e39920f,65d2b6c8f2eece985d8e374c,65d2b9b270d37fb582418463,0.0486,0.0487,1,67,229,96,1,fivesix,,,,,,,,,,,,,,,,,,,,,,,,,,,,,,,,,,,,,,,,,,,,,,,,,,,,,,,,,,,,,,,,,,,,,,,,,,,,,,,,,,,,,,,,,,,,,,,,,,,,,,,,,,,,,,,,,,,,,,,,,,,,,,,,,,,,,,,,,
,,6511d86a9c7ebb7a6e39920f,2024-02-18_20h15.28.819,kallum_motion_pilot,2023.2.2,Win32,59.88023952,6511d86a9c7ebb7a6e39920f,65d2b6c8f2eece985d8e374c,65d2b9b270d37fb582418463,0.0487,0.0488,1,68,230,66,1,twoone,,,,,,,,,,,,,,,,,,,,,,,,,,,,,,,,,,,,,,,,,,,,,,,,,,,,,,,,,,,,,,,,,,,,,,,,,,,,,,,,,,,,,,,,,,,,,,,,,,,,,,,,,,,,,,,,,,,,,,,,,,,,,,,,,,,,,,,,,
,,6511d86a9c7ebb7a6e39920f,2024-02-18_20h15.28.819,kallum_motion_pilot,2023.2.2,Win32,59.88023952,6511d86a9c7ebb7a6e39920f,65d2b6c8f2eece985d8e374c,65d2b9b270d37fb582418463,0.0489,0.049,1,69,231,151,1,eightseven,,,,,,,,,,,,,,,,,,,,,,,,,,,,,,,,,,,,,,,,,,,,,,,,,,,,,,,,,,,,,,,,,,,,,,,,,,,,,,,,,,,,,,,,,,,,,,,,,,,,,,,,,,,,,,,,,,,,,,,,,,,,,,,,,,,,,,,,,
,,6511d86a9c7ebb7a6e39920f,2024-02-18_20h15.28.819,kallum_motion_pilot,2023.2.2,Win32,59.88023952,6511d86a9c7ebb7a6e39920f,65d2b6c8f2eece985d8e374c,65d2b9b270d37fb582418463,0.049,0.0491,1,70,232,15,1,fourthree,,,,,,,,,,,,,,,,,,,,,,,,,,,,,,,,,,,,,,,,,,,,,,,,,,,,,,,,,,,,,,,,,,,,,,,,,,,,,,,,,,,,,,,,,,,,,,,,,,,,,,,,,,,,,,,,,,,,,,,,,,,,,,,,,,,,,,,,,
,,6511d86a9c7ebb7a6e39920f,2024-02-18_20h15.28.819,kallum_motion_pilot,2023.2.2,Win32,59.88023952,6511d86a9c7ebb7a6e39920f,65d2b6c8f2eece985d8e374c,65d2b9b270d37fb582418463,0.0492,0.0494,1,71,233,125,1,seveneight,,,,,,,,,,,,,,,,,,,,,,,,,,,,,,,,,,,,,,,,,,,,,,,,,,,,,,,,,,,,,,,,,,,,,,,,,,,,,,,,,,,,,,,,,,,,,,,,,,,,,,,,,,,,,,,,,,,,,,,,,,,,,,,,,,,,,,,,,
,,6511d86a9c7ebb7a6e39920f,2024-02-18_20h15.28.819,kallum_motion_pilot,2023.2.2,Win32,59.88023952,6511d86a9c7ebb7a6e39920f,65d2b6c8f2eece985d8e374c,65d2b9b270d37fb582418463,0.0494,0.0496,1,72,234,81,1,fiveseven,,,,,,,,,,,,,,,,,,,,,,,,,,,,,,,,,,,,,,,,,,,,,,,,,,,,,,,,,,,,,,,,,,,,,,,,,,,,,,,,,,,,,,,,,,,,,,,,,,,,,,,,,,,,,,,,,,,,,,,,,,,,,,,,,,,,,,,,,
,,6511d86a9c7ebb7a6e39920f,2024-02-18_20h15.28.819,kallum_motion_pilot,2023.2.2,Win32,59.88023952,6511d86a9c7ebb7a6e39920f,65d2b6c8f2eece985d8e374c,65d2b9b270d37fb582418463,0.0497,0.0497,1,73,235,42,1,twoone,,,,,,,,,,,,,,,,,,,,,,,,,,,,,,,,,,,,,,,,,,,,,,,,,,,,,,,,,,,,,,,,,,,,,,,,,,,,,,,,,,,,,,,,,,,,,,,,,,,,,,,,,,,,,,,,,,,,,,,,,,,,,,,,,,,,,,,,,
,,6511d86a9c7ebb7a6e39920f,2024-02-18_20h15.28.819,kallum_motion_pilot,2023.2.2,Win32,59.88023952,6511d86a9c7ebb7a6e39920f,65d2b6c8f2eece985d8e374c,65d2b9b270d37fb582418463,0.0498,0.0499,1,74,236,156,1,sevenfive,,,,,,,,,,,,,,,,,,,,,,,,,,,,,,,,,,,,,,,,,,,,,,,,,,,,,,,,,,,,,,,,,,,,,,,,,,,,,,,,,,,,,,,,,,,,,,,,,,,,,,,,,,,,,,,,,,,,,,,,,,,,,,,,,,,,,,,,,
,,6511d86a9c7ebb7a6e39920f,2024-02-18_20h15.28.819,kallum_motion_pilot,2023.2.2,Win32,59.88023952,6511d86a9c7ebb7a6e39920f,65d2b6c8f2eece985d8e374c,65d2b9b270d37fb582418463,0.0499,0.0501,1,75,237,14,1,fourtwo,,,,,,,,,,,,,,,,,,,,,,,,,,,,,,,,,,,,,,,,,,,,,,,,,,,,,,,,,,,,,,,,,,,,,,,,,,,,,,,,,,,,,,,,,,,,,,,,,,,,,,,,,,,,,,,,,,,,,,,,,,,,,,,,,,,,,,,,,
,,6511d86a9c7ebb7a6e39920f,2024-02-18_20h15.28.819,kallum_motion_pilot,2023.2.2,Win32,59.88023952,6511d86a9c7ebb7a6e39920f,65d2b6c8f2eece985d8e374c,65d2b9b270d37fb582418463,0.0502,0.0502,1,76,238,161,1,fiveseven,,,,,,,,,,,,,,,,,,,,,,,,,,,,,,,,,,,,,,,,,,,,,,,,,,,,,,,,,,,,,,,,,,,,,,,,,,,,,,,,,,,,,,,,,,,,,,,,,,,,,,,,,,,,,,,,,,,,,,,,,,,,,,,,,,,,,,,,,
,,6511d86a9c7ebb7a6e39920f,2024-02-18_20h15.28.819,kallum_motion_pilot,2023.2.2,Win32,59.88023952,6511d86a9c7ebb7a6e39920f,65d2b6c8f2eece985d8e374c,65d2b9b270d37fb582418463,0.0503,0.0504,1,77,239,6,1,fourtwo,,,,,,,,,,,,,,,,,,,,,,,,,,,,,,,,,,,,,,,,,,,,,,,,,,,,,,,,,,,,,,,,,,,,,,,,,,,,,,,,,,,,,,,,,,,,,,,,,,,,,,,,,,,,,,,,,,,,,,,,,,,,,,,,,,,,,,,,,
,,6511d86a9c7ebb7a6e39920f,2024-02-18_20h15.28.819,kallum_motion_pilot,2023.2.2,Win32,59.88023952,6511d86a9c7ebb7a6e39920f,65d2b6c8f2eece985d8e374c,65d2b9b270d37fb582418463,0.0504,0.0506,1,78,240,85,1,seveneight,,,,,,,,,,,,,,,,,,,,,,,,,,,,,,,,,,,,,,,,,,,,,,,,,,,,,,,,,,,,,,,,,,,,,,,,,,,,,,,,,,,,,,,,,,,,,,,,,,,,,,,,,,,,,,,,,,,,,,,,,,,,,,,,,,,,,,,,,
,,6511d86a9c7ebb7a6e39920f,2024-02-18_20h15.28.819,kallum_motion_pilot,2023.2.2,Win32,59.88023952,6511d86a9c7ebb7a6e39920f,65d2b6c8f2eece985d8e374c,65d2b9b270d37fb582418463,0.0507,0.0508,1,79,241,158,1,eightsix,,,,,,,,,,,,,,,,,,,,,,,,,,,,,,,,,,,,,,,,,,,,,,,,,,,,,,,,,,,,,,,,,,,,,,,,,,,,,,,,,,,,,,,,,,,,,,,,,,,,,,,,,,,,,,,,,,,,,,,,,,,,,,,,,,,,,,,,,
,,6511d86a9c7ebb7a6e39920f,2024-02-18_20h15.28.819,kallum_motion_pilot,2023.2.2,Win32,59.88023952,6511d86a9c7ebb7a6e39920f,65d2b6c8f2eece985d8e374c,65d2b9b270d37fb582418463,0.0509,0.051,1,80,242,19,1,twofour,,,,,,,,,,,,,,,,,,,,,,,,,,,,,,,,,,,,,,,,,,,,,,,,,,,,,,,,,,,,,,,,,,,,,,,,,,,,,,,,,,,,,,,,,,,,,,,,,,,,,,,,,,,,,,,,,,,,,,,,,,,,,,,,,,,,,,,,,
,,6511d86a9c7ebb7a6e39920f,2024-02-18_20h15.28.819,kallum_motion_pilot,2023.2.2,Win32,59.88023952,6511d86a9c7ebb7a6e39920f,65d2b6c8f2eece985d8e374c,65d2b9b270d37fb582418463,0.051,0.0511,1,81,243,144,1,fivesix,,,,,,,,,,,,,,,,,,,,,,,,,,,,,,,,,,,,,,,,,,,,,,,,,,,,,,,,,,,,,,,,,,,,,,,,,,,,,,,,,,,,,,,,,,,,,,,,,,,,,,,,,,,,,,,,,,,,,,,,,,,,,,,,,,,,,,,,,
,,6511d86a9c7ebb7a6e39920f,2024-02-18_20h15.28.819,kallum_motion_pilot,2023.2.2,Win32,59.88023952,6511d86a9c7ebb7a6e39920f,65d2b6c8f2eece985d8e374c,65d2b9b270d37fb582418463,0.0512,0.0513,1,82,244,28,1,threeone,,,,,,,,,,,,,,,,,,,,,,,,,,,,,,,,,,,,,,,,,,,,,,,,,,,,,,,,,,,,,,,,,,,,,,,,,,,,,,,,,,,,,,,,,,,,,,,,,,,,,,,,,,,,,,,,,,,,,,,,,,,,,,,,,,,,,,,,,
,,6511d86a9c7ebb7a6e39920f,2024-02-18_20h15.28.819,kallum_motion_pilot,2023.2.2,Win32,59.88023952,6511d86a9c7ebb7a6e39920f,65d2b6c8f2eece985d8e374c,65d2b9b270d37fb582418463,0.0513,0.0513,1,83,245,57,1,onethree,,,,,,,,,,,,,,,,,,,,,,,,,,,,,,,,,,,,,,,,,,,,,,,,,,,,,,,,,,,,,,,,,,,,,,,,,,,,,,,,,,,,,,,,,,,,,,,,,,,,,,,,,,,,,,,,,,,,,,,,,,,,,,,,,,,,,,,,,
,,6511d86a9c7ebb7a6e39920f,2024-02-18_20h15.28.819,kallum_motion_pilot,2023.2.2,Win32,59.88023952,6511d86a9c7ebb7a6e39920f,65d2b6c8f2eece985d8e374c,65d2b9b270d37fb582418463,0.0514,0.0515,1,84,246,154,1,sixfive,,,,,,,,,,,,,,,,,,,,,,,,,,,,,,,,,,,,,,,,,,,,,,,,,,,,,,,,,,,,,,,,,,,,,,,,,,,,,,,,,,,,,,,,,,,,,,,,,,,,,,,,,,,,,,,,,,,,,,,,,,,,,,,,,,,,,,,,,
,,6511d86a9c7ebb7a6e39920f,2024-02-18_20h15.28.819,kallum_motion_pilot,2023.2.2,Win32,59.88023952,6511d86a9c7ebb7a6e39920f,65d2b6c8f2eece985d8e374c,65d2b9b270d37fb582418463,0.0515,0.0516,1,85,247,106,1,sixfive,,,,,,,,,,,,,,,,,,,,,,,,,,,,,,,,,,,,,,,,,,,,,,,,,,,,,,,,,,,,,,,,,,,,,,,,,,,,,,,,,,,,,,,,,,,,,,,,,,,,,,,,,,,,,,,,,,,,,,,,,,,,,,,,,,,,,,,,,
,,6511d86a9c7ebb7a6e39920f,2024-02-18_20h15.28.819,kallum_motion_pilot,2023.2.2,Win32,59.88023952,6511d86a9c7ebb7a6e39920f,65d2b6c8f2eece985d8e374c,65d2b9b270d37fb582418463,0.0516,0.0518,1,86,248,39,1,fourthree,,,,,,,,,,,,,,,,,,,,,,,,,,,,,,,,,,,,,,,,,,,,,,,,,,,,,,,,,,,,,,,,,,,,,,,,,,,,,,,,,,,,,,,,,,,,,,,,,,,,,,,,,,,,,,,,,,,,,,,,,,,,,,,,,,,,,,,,,
,,6511d86a9c7ebb7a6e39920f,2024-02-18_20h15.28.819,kallum_motion_pilot,2023.2.2,Win32,59.88023952,6511d86a9c7ebb7a6e39920f,65d2b6c8f2eece985d8e374c,65d2b9b270d37fb582418463,0.0518,0.0519,1,87,249,47,1,fourthree,,,,,,,,,,,,,,,,,,,,,,,,,,,,,,,,,,,,,,,,,,,,,,,,,,,,,,,,,,,,,,,,,,,,,,,,,,,,,,,,,,,,,,,,,,,,,,,,,,,,,,,,,,,,,,,,,,,,,,,,,,,,,,,,,,,,,,,,,
,,6511d86a9c7ebb7a6e39920f,2024-02-18_20h15.28.819,kallum_motion_pilot,2023.2.2,Win32,59.88023952,6511d86a9c7ebb7a6e39920f,65d2b6c8f2eece985d8e374c,65d2b9b270d37fb582418463,0.0519,0.0519,1,88,250,40,1,onetwo,,,,,,,,,,,,,,,,,,,,,,,,,,,,,,,,,,,,,,,,,,,,,,,,,,,,,,,,,,,,,,,,,,,,,,,,,,,,,,,,,,,,,,,,,,,,,,,,,,,,,,,,,,,,,,,,,,,,,,,,,,,,,,,,,,,,,,,,,
,,6511d86a9c7ebb7a6e39920f,2024-02-18_20h15.28.819,kallum_motion_pilot,2023.2.2,Win32,59.88023952,6511d86a9c7ebb7a6e39920f,65d2b6c8f2eece985d8e374c,65d2b9b270d37fb582418463,0.0521,0.0521,1,89,251,36,1,threeone,,,,,,,,,,,,,,,,,,,,,,,,,,,,,,,,,,,,,,,,,,,,,,,,,,,,,,,,,,,,,,,,,,,,,,,,,,,,,,,,,,,,,,,,,,,,,,,,,,,,,,,,,,,,,,,,,,,,,,,,,,,,,,,,,,,,,,,,,
,,6511d86a9c7ebb7a6e39920f,2024-02-18_20h15.28.819,kallum_motion_pilot,2023.2.2,Win32,59.88023952,6511d86a9c7ebb7a6e39920f,65d2b6c8f2eece985d8e374c,65d2b9b270d37fb582418463,0.0522,0.0522,1,90,252,17,1,onethree,,,,,,,,,,,,,,,,,,,,,,,,,,,,,,,,,,,,,,,,,,,,,,,,,,,,,,,,,,,,,,,,,,,,,,,,,,,,,,,,,,,,,,,,,,,,,,,,,,,,,,,,,,,,,,,,,,,,,,,,,,,,,,,,,,,,,,,,,
,,6511d86a9c7ebb7a6e39920f,2024-02-18_20h15.28.819,kallum_motion_pilot,2023.2.2,Win32,59.88023952,6511d86a9c7ebb7a6e39920f,65d2b6c8f2eece985d8e374c,65d2b9b270d37fb582418463,0.0523,0.0523,1,91,253,79,1,eightseven,,,,,,,,,,,,,,,,,,,,,,,,,,,,,,,,,,,,,,,,,,,,,,,,,,,,,,,,,,,,,,,,,,,,,,,,,,,,,,,,,,,,,,,,,,,,,,,,,,,,,,,,,,,,,,,,,,,,,,,,,,,,,,,,,,,,,,,,,
,,6511d86a9c7ebb7a6e39920f,2024-02-18_20h15.28.819,kallum_motion_pilot,2023.2.2,Win32,59.88023952,6511d86a9c7ebb7a6e39920f,65d2b6c8f2eece985d8e374c,65d2b9b270d37fb582418463,0.0524,0.0524,1,92,254,12,1,threeone,,,,,,,,,,,,,,,,,,,,,,,,,,,,,,,,,,,,,,,,,,,,,,,,,,,,,,,,,,,,,,,,,,,,,,,,,,,,,,,,,,,,,,,,,,,,,,,,,,,,,,,,,,,,,,,,,,,,,,,,,,,,,,,,,,,,,,,,,
,,6511d86a9c7ebb7a6e39920f,2024-02-18_20h15.28.819,kallum_motion_pilot,2023.2.2,Win32,59.88023952,6511d86a9c7ebb7a6e39920f,65d2b6c8f2eece985d8e374c,65d2b9b270d37fb582418463,0.0525,0.0525,1,93,255,82,1,sixfive,,,,,,,,,,,,,,,,,,,,,,,,,,,,,,,,,,,,,,,,,,,,,,,,,,,,,,,,,,,,,,,,,,,,,,,,,,,,,,,,,,,,,,,,,,,,,,,,,,,,,,,,,,,,,,,,,,,,,,,,,,,,,,,,,,,,,,,,,
,,6511d86a9c7ebb7a6e39920f,2024-02-18_20h15.28.819,kallum_motion_pilot,2023.2.2,Win32,59.88023952,6511d86a9c7ebb7a6e39920f,65d2b6c8f2eece985d8e374c,65d2b9b270d37fb582418463,0.0527,0.0528,1,94,256,128,1,fivesix,,,,,,,,,,,,,,,,,,,,,,,,,,,,,,,,,,,,,,,,,,,,,,,,,,,,,,,,,,,,,,,,,,,,,,,,,,,,,,,,,,,,,,,,,,,,,,,,,,,,,,,,,,,,,,,,,,,,,,,,,,,,,,,,,,,,,,,,,
,,6511d86a9c7ebb7a6e39920f,2024-02-18_20h15.28.819,kallum_motion_pilot,2023.2.2,Win32,59.88023952,6511d86a9c7ebb7a6e39920f,65d2b6c8f2eece985d8e374c,65d2b9b270d37fb582418463,0.0528,0.0528,1,95,257,153,1,fiveseven,,,,,,,,,,,,,,,,,,,,,,,,,,,,,,,,,,,,,,,,,,,,,,,,,,,,,,,,,,,,,,,,,,,,,,,,,,,,,,,,,,,,,,,,,,,,,,,,,,,,,,,,,,,,,,,,,,,,,,,,,,,,,,,,,,,,,,,,,
,,6511d86a9c7ebb7a6e39920f,2024-02-18_20h15.28.819,kallum_motion_pilot,2023.2.2,Win32,59.88023952,6511d86a9c7ebb7a6e39920f,65d2b6c8f2eece985d8e374c,65d2b9b270d37fb582418463,0.0529,0.053,1,96,258,98,1,sixfive,,,,,,,,,,,,,,,,,,,,,,,,,,,,,,,,,,,,,,,,,,,,,,,,,,,,,,,,,,,,,,,,,,,,,,,,,,,,,,,,,,,,,,,,,,,,,,,,,,,,,,,,,,,,,,,,,,,,,,,,,,,,,,,,,,,,,,,,,
,,6511d86a9c7ebb7a6e39920f,2024-02-18_20h15.28.819,kallum_motion_pilot,2023.2.2,Win32,59.88023952,6511d86a9c7ebb7a6e39920f,65d2b6c8f2eece985d8e374c,65d2b9b270d37fb582418463,0.0531,0.0532,1,97,259,135,1,eightseven,,,,,,,,,,,,,,,,,,,,,,,,,,,,,,,,,,,,,,,,,,,,,,,,,,,,,,,,,,,,,,,,,,,,,,,,,,,,,,,,,,,,,,,,,,,,,,,,,,,,,,,,,,,,,,,,,,,,,,,,,,,,,,,,,,,,,,,,,
,,6511d86a9c7ebb7a6e39920f,2024-02-18_20h15.28.819,kallum_motion_pilot,2023.2.2,Win32,59.88023952,6511d86a9c7ebb7a6e39920f,65d2b6c8f2eece985d8e374c,65d2b9b270d37fb582418463,0.0533,0.0533,1,98,260,84,1,sevenfive,,,,,,,,,,,,,,,,,,,,,,,,,,,,,,,,,,,,,,,,,,,,,,,,,,,,,,,,,,,,,,,,,,,,,,,,,,,,,,,,,,,,,,,,,,,,,,,,,,,,,,,,,,,,,,,,,,,,,,,,,,,,,,,,,,,,,,,,,
,,6511d86a9c7ebb7a6e39920f,2024-02-18_20h15.28.819,kallum_motion_pilot,2023.2.2,Win32,59.88023952,6511d86a9c7ebb7a6e39920f,65d2b6c8f2eece985d8e374c,65d2b9b270d37fb582418463,0.0534,0.0534,1,99,261,63,1,fourthree,,,,,,,,,,,,,,,,,,,,,,,,,,,,,,,,,,,,,,,,,,,,,,,,,,,,,,,,,,,,,,,,,,,,,,,,,,,,,,,,,,,,,,,,,,,,,,,,,,,,,,,,,,,,,,,,,,,,,,,,,,,,,,,,,,,,,,,,,
,,6511d86a9c7ebb7a6e39920f,2024-02-18_20h15.28.819,kallum_motion_pilot,2023.2.2,Win32,59.88023952,6511d86a9c7ebb7a6e39920f,65d2b6c8f2eece985d8e374c,65d2b9b270d37fb582418463,0.0535,0.0535,1,100,262,65,1,onethree,,,,,,,,,,,,,,,,,,,,,,,,,,,,,,,,,,,,,,,,,,,,,,,,,,,,,,,,,,,,,,,,,,,,,,,,,,,,,,,,,,,,,,,,,,,,,,,,,,,,,,,,,,,,,,,,,,,,,,,,,,,,,,,,,,,,,,,,,
,,6511d86a9c7ebb7a6e39920f,2024-02-18_20h15.28.819,kallum_motion_pilot,2023.2.2,Win32,59.88023952,6511d86a9c7ebb7a6e39920f,65d2b6c8f2eece985d8e374c,65d2b9b270d37fb582418463,0.0536,0.0537,1,101,263,150,1,eightsix,,,,,,,,,,,,,,,,,,,,,,,,,,,,,,,,,,,,,,,,,,,,,,,,,,,,,,,,,,,,,,,,,,,,,,,,,,,,,,,,,,,,,,,,,,,,,,,,,,,,,,,,,,,,,,,,,,,,,,,,,,,,,,,,,,,,,,,,,
,,6511d86a9c7ebb7a6e39920f,2024-02-18_20h15.28.819,kallum_motion_pilot,2023.2.2,Win32,59.88023952,6511d86a9c7ebb7a6e39920f,65d2b6c8f2eece985d8e374c,65d2b9b270d37fb582418463,0.0538,0.0539,1,102,264,41,1,onethree,,,,,,,,,,,,,,,,,,,,,,,,,,,,,,,,,,,,,,,,,,,,,,,,,,,,,,,,,,,,,,,,,,,,,,,,,,,,,,,,,,,,,,,,,,,,,,,,,,,,,,,,,,,,,,,,,,,,,,,,,,,,,,,,,,,,,,,,,
,,6511d86a9c7ebb7a6e39920f,2024-02-18_20h15.28.819,kallum_motion_pilot,2023.2.2,Win32,59.88023952,6511d86a9c7ebb7a6e39920f,65d2b6c8f2eece985d8e374c,65d2b9b270d37fb582418463,0.054,0.054,1,103,265,5,1,threefour,,,,,,,,,,,,,,,,,,,,,,,,,,,,,,,,,,,,,,,,,,,,,,,,,,,,,,,,,,,,,,,,,,,,,,,,,,,,,,,,,,,,,,,,,,,,,,,,,,,,,,,,,,,,,,,,,,,,,,,,,,,,,,,,,,,,,,,,,
,,6511d86a9c7ebb7a6e39920f,2024-02-18_20h15.28.819,kallum_motion_pilot,2023.2.2,Win32,59.88023952,6511d86a9c7ebb7a6e39920f,65d2b6c8f2eece985d8e374c,65d2b9b270d37fb582418463,0.0541,0.0542,1,104,266,130,1,sixfive,,,,,,,,,,,,,,,,,,,,,,,,,,,,,,,,,,,,,,,,,,,,,,,,,,,,,,,,,,,,,,,,,,,,,,,,,,,,,,,,,,,,,,,,,,,,,,,,,,,,,,,,,,,,,,,,,,,,,,,,,,,,,,,,,,,,,,,,,
,,6511d86a9c7ebb7a6e39920f,2024-02-18_20h15.28.819,kallum_motion_pilot,2023.2.2,Win32,59.88023952,6511d86a9c7ebb7a6e39920f,65d2b6c8f2eece985d8e374c,65d2b9b270d37fb582418463,0.0543,0.0543,1,105,267,29,1,threefour,,,,,,,,,,,,,,,,,,,,,,,,,,,,,,,,,,,,,,,,,,,,,,,,,,,,,,,,,,,,,,,,,,,,,,,,,,,,,,,,,,,,,,,,,,,,,,,,,,,,,,,,,,,,,,,,,,,,,,,,,,,,,,,,,,,,,,,,,
,,6511d86a9c7ebb7a6e39920f,2024-02-18_20h15.28.819,kallum_motion_pilot,2023.2.2,Win32,59.88023952,6511d86a9c7ebb7a6e39920f,65d2b6c8f2eece985d8e374c,65d2b9b270d37fb582418463,0.0544,0.0544,1,106,268,67,1,twofour,,,,,,,,,,,,,,,,,,,,,,,,,,,,,,,,,,,,,,,,,,,,,,,,,,,,,,,,,,,,,,,,,,,,,,,,,,,,,,,,,,,,,,,,,,,,,,,,,,,,,,,,,,,,,,,,,,,,,,,,,,,,,,,,,,,,,,,,,
,,6511d86a9c7ebb7a6e39920f,2024-02-18_20h15.28.819,kallum_motion_pilot,2023.2.2,Win32,59.88023952,6511d86a9c7ebb7a6e39920f,65d2b6c8f2eece985d8e374c,65d2b9b270d37fb582418463,0.0545,0.0546,1,107,269,22,1,fourtwo,,,,,,,,,,,,,,,,,,,,,,,,,,,,,,,,,,,,,,,,,,,,,,,,,,,,,,,,,,,,,,,,,,,,,,,,,,,,,,,,,,,,,,,,,,,,,,,,,,,,,,,,,,,,,,,,,,,,,,,,,,,,,,,,,,,,,,,,,
,,6511d86a9c7ebb7a6e39920f,2024-02-18_20h15.28.819,kallum_motion_pilot,2023.2.2,Win32,59.88023952,6511d86a9c7ebb7a6e39920f,65d2b6c8f2eece985d8e374c,65d2b9b270d37fb582418463,0.0546,0.0547,1,108,270,86,1,eightsix,,,,,,,,,,,,,,,,,,,,,,,,,,,,,,,,,,,,,,,,,,,,,,,,,,,,,,,,,,,,,,,,,,,,,,,,,,,,,,,,,,,,,,,,,,,,,,,,,,,,,,,,,,,,,,,,,,,,,,,,,,,,,,,,,,,,,,,,,
,,6511d86a9c7ebb7a6e39920f,2024-02-18_20h15.28.819,kallum_motion_pilot,2023.2.2,Win32,59.88023952,6511d86a9c7ebb7a6e39920f,65d2b6c8f2eece985d8e374c,65d2b9b270d37fb582418463,0.0548,0.0548,1,109,271,112,1,fivesix,,,,,,,,,,,,,,,,,,,,,,,,,,,,,,,,,,,,,,,,,,,,,,,,,,,,,,,,,,,,,,,,,,,,,,,,,,,,,,,,,,,,,,,,,,,,,,,,,,,,,,,,,,,,,,,,,,,,,,,,,,,,,,,,,,,,,,,,,
,,6511d86a9c7ebb7a6e39920f,2024-02-18_20h15.28.819,kallum_motion_pilot,2023.2.2,Win32,59.88023952,6511d86a9c7ebb7a6e39920f,65d2b6c8f2eece985d8e374c,65d2b9b270d37fb582418463,0.0549,0.0549,1,110,272,94,1,eightsix,,,,,,,,,,,,,,,,,,,,,,,,,,,,,,,,,,,,,,,,,,,,,,,,,,,,,,,,,,,,,,,,,,,,,,,,,,,,,,,,,,,,,,,,,,,,,,,,,,,,,,,,,,,,,,,,,,,,,,,,,,,,,,,,,,,,,,,,,
,,6511d86a9c7ebb7a6e39920f,2024-02-18_20h15.28.819,kallum_motion_pilot,2023.2.2,Win32,59.88023952,6511d86a9c7ebb7a6e39920f,65d2b6c8f2eece985d8e374c,65d2b9b270d37fb582418463,0.055,0.0551,1,111,273,102,1,eightsix,,,,,,,,,,,,,,,,,,,,,,,,,,,,,,,,,,,,,,,,,,,,,,,,,,,,,,,,,,,,,,,,,,,,,,,,,,,,,,,,,,,,,,,,,,,,,,,,,,,,,,,,,,,,,,,,,,,,,,,,,,,,,,,,,,,,,,,,,
,,6511d86a9c7ebb7a6e39920f,2024-02-18_20h15.28.819,kallum_motion_pilot,2023.2.2,Win32,59.88023952,6511d86a9c7ebb7a6e39920f,65d2b6c8f2eece985d8e374c,65d2b9b270d37fb582418463,0.0551,0.0552,1,112,274,105,1,fiveseven,,,,,,,,,,,,,,,,,,,,,,,,,,,,,,,,,,,,,,,,,,,,,,,,,,,,,,,,,,,,,,,,,,,,,,,,,,,,,,,,,,,,,,,,,,,,,,,,,,,,,,,,,,,,,,,,,,,,,,,,,,,,,,,,,,,,,,,,,
,,6511d86a9c7ebb7a6e39920f,2024-02-18_20h15.28.819,kallum_motion_pilot,2023.2.2,Win32,59.88023952,6511d86a9c7ebb7a6e39920f,65d2b6c8f2eece985d8e374c,65d2b9b270d37fb582418463,0.0553,0.0553,1,113,275,75,1,twofour,,,,,,,,,,,,,,,,,,,,,,,,,,,,,,,,,,,,,,,,,,,,,,,,,,,,,,,,,,,,,,,,,,,,,,,,,,,,,,,,,,,,,,,,,,,,,,,,,,,,,,,,,,,,,,,,,,,,,,,,,,,,,,,,,,,,,,,,,
,,6511d86a9c7ebb7a6e39920f,2024-02-18_20h15.28.819,kallum_motion_pilot,2023.2.2,Win32,59.88023952,6511d86a9c7ebb7a6e39920f,65d2b6c8f2eece985d8e374c,65d2b9b270d37fb582418463,0.0554,0.0554,1,114,276,93,1,seveneight,,,,,,,,,,,,,,,,,,,,,,,,,,,,,,,,,,,,,,,,,,,,,,,,,,,,,,,,,,,,,,,,,,,,,,,,,,,,,,,,,,,,,,,,,,,,,,,,,,,,,,,,,,,,,,,,,,,,,,,,,,,,,,,,,,,,,,,,,
,,6511d86a9c7ebb7a6e39920f,2024-02-18_20h15.28.819,kallum_motion_pilot,2023.2.2,Win32,59.88023952,6511d86a9c7ebb7a6e39920f,65d2b6c8f2eece985d8e374c,65d2b9b270d37fb582418463,0.0554,0.0555,1,115,277,122,1,sixfive,,,,,,,,,,,,,,,,,,,,,,,,,,,,,,,,,,,,,,,,,,,,,,,,,,,,,,,,,,,,,,,,,,,,,,,,,,,,,,,,,,,,,,,,,,,,,,,,,,,,,,,,,,,,,,,,,,,,,,,,,,,,,,,,,,,,,,,,,
