startup.started,startup.stopped,Prolific ID*,date,expName,psychopyVersion,OS,frameRate,participant,study_id,session,stimpositions.started,stimpositions.stopped,hardcoded_stimulus_positions.thisRepN,hardcoded_stimulus_positions.thisTrialN,hardcoded_stimulus_positions.thisN,hardcoded_stimulus_positions.thisIndex,hardcoded_stimulus_positions.ran,StimulusPos,stimorientation.started,stimorientation.stopped,prac_stimorientation_import_loop.thisRepN,prac_stimorientation_import_loop.thisTrialN,prac_stimorientation_import_loop.thisN,prac_stimorientation_import_loop.thisIndex,prac_stimorientation_import_loop.ran,Stimorientation,welcome_instr.started,welcome_instr.stopped,key_resp.keys,key_resp.rt,key_resp.duration,response_steppedout_1.started,response_steppedout_1.stopped,key_resp_20.keys,key_resp_20.rt,key_resp_20.duration,response_steppedout_2.started,response_steppedout_2.stopped,key_resp_19.keys,key_resp_19.rt,key_resp_19.duration,stim_response_instr.started,stim_response_instr.stopped,key_resp_15.keys,key_resp_15.rt,key_resp_15.duration,direction_instr_2.started,direction_instr_2.stopped,key_resp_9.keys,key_resp_9.rt,key_resp_9.duration,instr_prac.started,instr_prac.stopped,key_resp_10.keys,key_resp_10.rt,key_resp_10.duration,Stim1_display_prac.started,Stim1_display_prac.stopped,Ecc,Circle1_ori,Circle2_ori,response_prac.started,similarity,response_time,response_prac.stopped,mouse_5.x,mouse_5.y,mouse_5.leftButton,mouse_5.midButton,mouse_5.rightButton,mouse_5.clicked_name,responseprac_feedback.started,responseprac_feedback.stopped,summary2_prac.started,summary2_prac.stopped,mouse_6.x,mouse_6.y,mouse_6.leftButton,mouse_6.midButton,mouse_6.rightButton,mouse_6.clicked_name,duringprac.thisRepN,duringprac.thisTrialN,duringprac.thisN,duringprac.thisIndex,duringprac.ran,begin.started,begin.stopped,key_resp_22.keys,key_resp_22.rt,key_resp_22.duration,Stim1_display.started,Stim1_display.stopped,circle1_ori,circle2_ori,circle1_SF,circle2_SF,response.started,response.stopped,mouse.x,mouse.y,mouse.leftButton,mouse.midButton,mouse.rightButton,mouse.clicked_name,trialnumber,double_pass.thisRepN,double_pass.thisTrialN,double_pass.thisN,double_pass.thisIndex,double_pass.ran,double_pass.order,main_trial.thisRepN,main_trial.thisTrialN,main_trial.thisN,main_trial.thisIndex,main_trial.ran,main_trial.order,Trial_Counter,Catch,Frequencies,response_2.started,response_2.stopped,mouse_2.x,mouse_2.y,mouse_2.leftButton,mouse_2.midButton,mouse_2.rightButton,mouse_2.clicked_name,special_trial.started,special_trial.stopped,catch_1.started,catch_1.stopped,mouse_3.x,mouse_3.y,mouse_3.leftButton,mouse_3.midButton,mouse_3.rightButton,catchresponse,catchnumber,response_time_catch,response_sum.started,response_sum.stopped,mouse_11.x,mouse_11.y,mouse_11.leftButton,mouse_11.midButton,mouse_11.rightButton,flip_presentation_sequence_for_double_pass.started,flip_presentation_sequence_for_double_pass.stopped,goodbye.started,goodbye.stopped,key_resp_3.keys,key_resp_3.rt,key_resp_3.duration
0.006,0.0061,65207c22fa9502e61424d55e,2024-02-19_15h10.08.275,kallum_motion_pilot,2023.2.2,MacIntel,58.82352941,65207c22fa9502e61424d55e,65d2b6c8f2eece985d8e374c,65d2b857389bf2201360eb5e,,,,,,,,,,,,,,,,,,,,,,,,,,,,,,,,,,,,,,,,,,,,,,,,,,,,,,,,,,,,,,,,,,,,,,,,,,,,,,,,,,,,,,,,,,,,,,,,,,,,,,,,,,,,,,,,,,,,,,,,,,,,,,,,,,,,,,,,,,,,,,,,,
,,65207c22fa9502e61424d55e,2024-02-19_15h10.08.275,kallum_motion_pilot,2023.2.2,MacIntel,58.82352941,65207c22fa9502e61424d55e,65d2b6c8f2eece985d8e374c,65d2b857389bf2201360eb5e,0.0502,0.0503,0,0,0,102,1,eightsix,,,,,,,,,,,,,,,,,,,,,,,,,,,,,,,,,,,,,,,,,,,,,,,,,,,,,,,,,,,,,,,,,,,,,,,,,,,,,,,,,,,,,,,,,,,,,,,,,,,,,,,,,,,,,,,,,,,,,,,,,,,,,,,,,,,,,,,,,
,,65207c22fa9502e61424d55e,2024-02-19_15h10.08.275,kallum_motion_pilot,2023.2.2,MacIntel,58.82352941,65207c22fa9502e61424d55e,65d2b6c8f2eece985d8e374c,65d2b857389bf2201360eb5e,0.0512,0.0512,0,1,1,113,1,fiveseven,,,,,,,,,,,,,,,,,,,,,,,,,,,,,,,,,,,,,,,,,,,,,,,,,,,,,,,,,,,,,,,,,,,,,,,,,,,,,,,,,,,,,,,,,,,,,,,,,,,,,,,,,,,,,,,,,,,,,,,,,,,,,,,,,,,,,,,,,
,,65207c22fa9502e61424d55e,2024-02-19_15h10.08.275,kallum_motion_pilot,2023.2.2,MacIntel,58.82352941,65207c22fa9502e61424d55e,65d2b6c8f2eece985d8e374c,65d2b857389bf2201360eb5e,0.0513,0.0514,0,2,2,18,1,twoone,,,,,,,,,,,,,,,,,,,,,,,,,,,,,,,,,,,,,,,,,,,,,,,,,,,,,,,,,,,,,,,,,,,,,,,,,,,,,,,,,,,,,,,,,,,,,,,,,,,,,,,,,,,,,,,,,,,,,,,,,,,,,,,,,,,,,,,,,
,,65207c22fa9502e61424d55e,2024-02-19_15h10.08.275,kallum_motion_pilot,2023.2.2,MacIntel,58.82352941,65207c22fa9502e61424d55e,65d2b6c8f2eece985d8e374c,65d2b857389bf2201360eb5e,0.0522,0.0522,0,3,3,121,1,fiveseven,,,,,,,,,,,,,,,,,,,,,,,,,,,,,,,,,,,,,,,,,,,,,,,,,,,,,,,,,,,,,,,,,,,,,,,,,,,,,,,,,,,,,,,,,,,,,,,,,,,,,,,,,,,,,,,,,,,,,,,,,,,,,,,,,,,,,,,,,
,,65207c22fa9502e61424d55e,2024-02-19_15h10.08.275,kallum_motion_pilot,2023.2.2,MacIntel,58.82352941,65207c22fa9502e61424d55e,65d2b6c8f2eece985d8e374c,65d2b857389bf2201360eb5e,0.0524,0.0524,0,4,4,150,1,eightsix,,,,,,,,,,,,,,,,,,,,,,,,,,,,,,,,,,,,,,,,,,,,,,,,,,,,,,,,,,,,,,,,,,,,,,,,,,,,,,,,,,,,,,,,,,,,,,,,,,,,,,,,,,,,,,,,,,,,,,,,,,,,,,,,,,,,,,,,,
,,65207c22fa9502e61424d55e,2024-02-19_15h10.08.275,kallum_motion_pilot,2023.2.2,MacIntel,58.82352941,65207c22fa9502e61424d55e,65d2b6c8f2eece985d8e374c,65d2b857389bf2201360eb5e,0.0525,0.0526,0,5,5,95,1,eightseven,,,,,,,,,,,,,,,,,,,,,,,,,,,,,,,,,,,,,,,,,,,,,,,,,,,,,,,,,,,,,,,,,,,,,,,,,,,,,,,,,,,,,,,,,,,,,,,,,,,,,,,,,,,,,,,,,,,,,,,,,,,,,,,,,,,,,,,,,
,,65207c22fa9502e61424d55e,2024-02-19_15h10.08.275,kallum_motion_pilot,2023.2.2,MacIntel,58.82352941,65207c22fa9502e61424d55e,65d2b6c8f2eece985d8e374c,65d2b857389bf2201360eb5e,0.0527,0.0527,0,6,6,135,1,eightseven,,,,,,,,,,,,,,,,,,,,,,,,,,,,,,,,,,,,,,,,,,,,,,,,,,,,,,,,,,,,,,,,,,,,,,,,,,,,,,,,,,,,,,,,,,,,,,,,,,,,,,,,,,,,,,,,,,,,,,,,,,,,,,,,,,,,,,,,,
,,65207c22fa9502e61424d55e,2024-02-19_15h10.08.275,kallum_motion_pilot,2023.2.2,MacIntel,58.82352941,65207c22fa9502e61424d55e,65d2b6c8f2eece985d8e374c,65d2b857389bf2201360eb5e,0.0528,0.0528,0,7,7,80,1,fivesix,,,,,,,,,,,,,,,,,,,,,,,,,,,,,,,,,,,,,,,,,,,,,,,,,,,,,,,,,,,,,,,,,,,,,,,,,,,,,,,,,,,,,,,,,,,,,,,,,,,,,,,,,,,,,,,,,,,,,,,,,,,,,,,,,,,,,,,,,
,,65207c22fa9502e61424d55e,2024-02-19_15h10.08.275,kallum_motion_pilot,2023.2.2,MacIntel,58.82352941,65207c22fa9502e61424d55e,65d2b6c8f2eece985d8e374c,65d2b857389bf2201360eb5e,0.053,0.0533,0,8,8,67,1,twofour,,,,,,,,,,,,,,,,,,,,,,,,,,,,,,,,,,,,,,,,,,,,,,,,,,,,,,,,,,,,,,,,,,,,,,,,,,,,,,,,,,,,,,,,,,,,,,,,,,,,,,,,,,,,,,,,,,,,,,,,,,,,,,,,,,,,,,,,,
,,65207c22fa9502e61424d55e,2024-02-19_15h10.08.275,kallum_motion_pilot,2023.2.2,MacIntel,58.82352941,65207c22fa9502e61424d55e,65d2b6c8f2eece985d8e374c,65d2b857389bf2201360eb5e,0.0535,0.0536,0,9,9,46,1,fourtwo,,,,,,,,,,,,,,,,,,,,,,,,,,,,,,,,,,,,,,,,,,,,,,,,,,,,,,,,,,,,,,,,,,,,,,,,,,,,,,,,,,,,,,,,,,,,,,,,,,,,,,,,,,,,,,,,,,,,,,,,,,,,,,,,,,,,,,,,,
,,65207c22fa9502e61424d55e,2024-02-19_15h10.08.275,kallum_motion_pilot,2023.2.2,MacIntel,58.82352941,65207c22fa9502e61424d55e,65d2b6c8f2eece985d8e374c,65d2b857389bf2201360eb5e,0.0537,0.0537,0,10,10,68,1,threeone,,,,,,,,,,,,,,,,,,,,,,,,,,,,,,,,,,,,,,,,,,,,,,,,,,,,,,,,,,,,,,,,,,,,,,,,,,,,,,,,,,,,,,,,,,,,,,,,,,,,,,,,,,,,,,,,,,,,,,,,,,,,,,,,,,,,,,,,,
,,65207c22fa9502e61424d55e,2024-02-19_15h10.08.275,kallum_motion_pilot,2023.2.2,MacIntel,58.82352941,65207c22fa9502e61424d55e,65d2b6c8f2eece985d8e374c,65d2b857389bf2201360eb5e,0.0538,0.0538,0,11,11,119,1,eightseven,,,,,,,,,,,,,,,,,,,,,,,,,,,,,,,,,,,,,,,,,,,,,,,,,,,,,,,,,,,,,,,,,,,,,,,,,,,,,,,,,,,,,,,,,,,,,,,,,,,,,,,,,,,,,,,,,,,,,,,,,,,,,,,,,,,,,,,,,
,,65207c22fa9502e61424d55e,2024-02-19_15h10.08.275,kallum_motion_pilot,2023.2.2,MacIntel,58.82352941,65207c22fa9502e61424d55e,65d2b6c8f2eece985d8e374c,65d2b857389bf2201360eb5e,0.0539,0.0539,0,12,12,35,1,twofour,,,,,,,,,,,,,,,,,,,,,,,,,,,,,,,,,,,,,,,,,,,,,,,,,,,,,,,,,,,,,,,,,,,,,,,,,,,,,,,,,,,,,,,,,,,,,,,,,,,,,,,,,,,,,,,,,,,,,,,,,,,,,,,,,,,,,,,,,
,,65207c22fa9502e61424d55e,2024-02-19_15h10.08.275,kallum_motion_pilot,2023.2.2,MacIntel,58.82352941,65207c22fa9502e61424d55e,65d2b6c8f2eece985d8e374c,65d2b857389bf2201360eb5e,0.0541,0.0541,0,13,13,11,1,twofour,,,,,,,,,,,,,,,,,,,,,,,,,,,,,,,,,,,,,,,,,,,,,,,,,,,,,,,,,,,,,,,,,,,,,,,,,,,,,,,,,,,,,,,,,,,,,,,,,,,,,,,,,,,,,,,,,,,,,,,,,,,,,,,,,,,,,,,,,
,,65207c22fa9502e61424d55e,2024-02-19_15h10.08.275,kallum_motion_pilot,2023.2.2,MacIntel,58.82352941,65207c22fa9502e61424d55e,65d2b6c8f2eece985d8e374c,65d2b857389bf2201360eb5e,0.0542,0.0542,0,14,14,109,1,seveneight,,,,,,,,,,,,,,,,,,,,,,,,,,,,,,,,,,,,,,,,,,,,,,,,,,,,,,,,,,,,,,,,,,,,,,,,,,,,,,,,,,,,,,,,,,,,,,,,,,,,,,,,,,,,,,,,,,,,,,,,,,,,,,,,,,,,,,,,,
,,65207c22fa9502e61424d55e,2024-02-19_15h10.08.275,kallum_motion_pilot,2023.2.2,MacIntel,58.82352941,65207c22fa9502e61424d55e,65d2b6c8f2eece985d8e374c,65d2b857389bf2201360eb5e,0.0543,0.0543,0,15,15,111,1,eightseven,,,,,,,,,,,,,,,,,,,,,,,,,,,,,,,,,,,,,,,,,,,,,,,,,,,,,,,,,,,,,,,,,,,,,,,,,,,,,,,,,,,,,,,,,,,,,,,,,,,,,,,,,,,,,,,,,,,,,,,,,,,,,,,,,,,,,,,,,
,,65207c22fa9502e61424d55e,2024-02-19_15h10.08.275,kallum_motion_pilot,2023.2.2,MacIntel,58.82352941,65207c22fa9502e61424d55e,65d2b6c8f2eece985d8e374c,65d2b857389bf2201360eb5e,0.0545,0.0545,0,16,16,50,1,twoone,,,,,,,,,,,,,,,,,,,,,,,,,,,,,,,,,,,,,,,,,,,,,,,,,,,,,,,,,,,,,,,,,,,,,,,,,,,,,,,,,,,,,,,,,,,,,,,,,,,,,,,,,,,,,,,,,,,,,,,,,,,,,,,,,,,,,,,,,
,,65207c22fa9502e61424d55e,2024-02-19_15h10.08.275,kallum_motion_pilot,2023.2.2,MacIntel,58.82352941,65207c22fa9502e61424d55e,65d2b6c8f2eece985d8e374c,65d2b857389bf2201360eb5e,0.0545,0.0548,0,17,17,51,1,twofour,,,,,,,,,,,,,,,,,,,,,,,,,,,,,,,,,,,,,,,,,,,,,,,,,,,,,,,,,,,,,,,,,,,,,,,,,,,,,,,,,,,,,,,,,,,,,,,,,,,,,,,,,,,,,,,,,,,,,,,,,,,,,,,,,,,,,,,,,
,,65207c22fa9502e61424d55e,2024-02-19_15h10.08.275,kallum_motion_pilot,2023.2.2,MacIntel,58.82352941,65207c22fa9502e61424d55e,65d2b6c8f2eece985d8e374c,65d2b857389bf2201360eb5e,0.055,0.055,0,18,18,81,1,fiveseven,,,,,,,,,,,,,,,,,,,,,,,,,,,,,,,,,,,,,,,,,,,,,,,,,,,,,,,,,,,,,,,,,,,,,,,,,,,,,,,,,,,,,,,,,,,,,,,,,,,,,,,,,,,,,,,,,,,,,,,,,,,,,,,,,,,,,,,,,
,,65207c22fa9502e61424d55e,2024-02-19_15h10.08.275,kallum_motion_pilot,2023.2.2,MacIntel,58.82352941,65207c22fa9502e61424d55e,65d2b6c8f2eece985d8e374c,65d2b857389bf2201360eb5e,0.0552,0.0552,0,19,19,137,1,fiveseven,,,,,,,,,,,,,,,,,,,,,,,,,,,,,,,,,,,,,,,,,,,,,,,,,,,,,,,,,,,,,,,,,,,,,,,,,,,,,,,,,,,,,,,,,,,,,,,,,,,,,,,,,,,,,,,,,,,,,,,,,,,,,,,,,,,,,,,,,
,,65207c22fa9502e61424d55e,2024-02-19_15h10.08.275,kallum_motion_pilot,2023.2.2,MacIntel,58.82352941,65207c22fa9502e61424d55e,65d2b6c8f2eece985d8e374c,65d2b857389bf2201360eb5e,0.0553,0.0556,0,20,20,79,1,eightseven,,,,,,,,,,,,,,,,,,,,,,,,,,,,,,,,,,,,,,,,,,,,,,,,,,,,,,,,,,,,,,,,,,,,,,,,,,,,,,,,,,,,,,,,,,,,,,,,,,,,,,,,,,,,,,,,,,,,,,,,,,,,,,,,,,,,,,,,,
,,65207c22fa9502e61424d55e,2024-02-19_15h10.08.275,kallum_motion_pilot,2023.2.2,MacIntel,58.82352941,65207c22fa9502e61424d55e,65d2b6c8f2eece985d8e374c,65d2b857389bf2201360eb5e,0.0558,0.0559,0,21,21,12,1,threeone,,,,,,,,,,,,,,,,,,,,,,,,,,,,,,,,,,,,,,,,,,,,,,,,,,,,,,,,,,,,,,,,,,,,,,,,,,,,,,,,,,,,,,,,,,,,,,,,,,,,,,,,,,,,,,,,,,,,,,,,,,,,,,,,,,,,,,,,,
,,65207c22fa9502e61424d55e,2024-02-19_15h10.08.275,kallum_motion_pilot,2023.2.2,MacIntel,58.82352941,65207c22fa9502e61424d55e,65d2b6c8f2eece985d8e374c,65d2b857389bf2201360eb5e,0.0562,0.0562,0,22,22,28,1,threeone,,,,,,,,,,,,,,,,,,,,,,,,,,,,,,,,,,,,,,,,,,,,,,,,,,,,,,,,,,,,,,,,,,,,,,,,,,,,,,,,,,,,,,,,,,,,,,,,,,,,,,,,,,,,,,,,,,,,,,,,,,,,,,,,,,,,,,,,,
,,65207c22fa9502e61424d55e,2024-02-19_15h10.08.275,kallum_motion_pilot,2023.2.2,MacIntel,58.82352941,65207c22fa9502e61424d55e,65d2b6c8f2eece985d8e374c,65d2b857389bf2201360eb5e,0.0562,0.0563,0,23,23,24,1,onetwo,,,,,,,,,,,,,,,,,,,,,,,,,,,,,,,,,,,,,,,,,,,,,,,,,,,,,,,,,,,,,,,,,,,,,,,,,,,,,,,,,,,,,,,,,,,,,,,,,,,,,,,,,,,,,,,,,,,,,,,,,,,,,,,,,,,,,,,,,
,,65207c22fa9502e61424d55e,2024-02-19_15h10.08.275,kallum_motion_pilot,2023.2.2,MacIntel,58.82352941,65207c22fa9502e61424d55e,65d2b6c8f2eece985d8e374c,65d2b857389bf2201360eb5e,0.0564,0.0564,0,24,24,64,1,onetwo,,,,,,,,,,,,,,,,,,,,,,,,,,,,,,,,,,,,,,,,,,,,,,,,,,,,,,,,,,,,,,,,,,,,,,,,,,,,,,,,,,,,,,,,,,,,,,,,,,,,,,,,,,,,,,,,,,,,,,,,,,,,,,,,,,,,,,,,,
,,65207c22fa9502e61424d55e,2024-02-19_15h10.08.275,kallum_motion_pilot,2023.2.2,MacIntel,58.82352941,65207c22fa9502e61424d55e,65d2b6c8f2eece985d8e374c,65d2b857389bf2201360eb5e,0.0566,0.0566,0,25,25,101,1,seveneight,,,,,,,,,,,,,,,,,,,,,,,,,,,,,,,,,,,,,,,,,,,,,,,,,,,,,,,,,,,,,,,,,,,,,,,,,,,,,,,,,,,,,,,,,,,,,,,,,,,,,,,,,,,,,,,,,,,,,,,,,,,,,,,,,,,,,,,,,
,,65207c22fa9502e61424d55e,2024-02-19_15h10.08.275,kallum_motion_pilot,2023.2.2,MacIntel,58.82352941,65207c22fa9502e61424d55e,65d2b6c8f2eece985d8e374c,65d2b857389bf2201360eb5e,0.0567,0.0567,0,26,26,16,1,onetwo,,,,,,,,,,,,,,,,,,,,,,,,,,,,,,,,,,,,,,,,,,,,,,,,,,,,,,,,,,,,,,,,,,,,,,,,,,,,,,,,,,,,,,,,,,,,,,,,,,,,,,,,,,,,,,,,,,,,,,,,,,,,,,,,,,,,,,,,,
,,65207c22fa9502e61424d55e,2024-02-19_15h10.08.275,kallum_motion_pilot,2023.2.2,MacIntel,58.82352941,65207c22fa9502e61424d55e,65d2b6c8f2eece985d8e374c,65d2b857389bf2201360eb5e,0.0569,0.0569,0,27,27,92,1,sevenfive,,,,,,,,,,,,,,,,,,,,,,,,,,,,,,,,,,,,,,,,,,,,,,,,,,,,,,,,,,,,,,,,,,,,,,,,,,,,,,,,,,,,,,,,,,,,,,,,,,,,,,,,,,,,,,,,,,,,,,,,,,,,,,,,,,,,,,,,,
,,65207c22fa9502e61424d55e,2024-02-19_15h10.08.275,kallum_motion_pilot,2023.2.2,MacIntel,58.82352941,65207c22fa9502e61424d55e,65d2b6c8f2eece985d8e374c,65d2b857389bf2201360eb5e,0.0584,0.0585,0,28,28,75,1,twofour,,,,,,,,,,,,,,,,,,,,,,,,,,,,,,,,,,,,,,,,,,,,,,,,,,,,,,,,,,,,,,,,,,,,,,,,,,,,,,,,,,,,,,,,,,,,,,,,,,,,,,,,,,,,,,,,,,,,,,,,,,,,,,,,,,,,,,,,,
,,65207c22fa9502e61424d55e,2024-02-19_15h10.08.275,kallum_motion_pilot,2023.2.2,MacIntel,58.82352941,65207c22fa9502e61424d55e,65d2b6c8f2eece985d8e374c,65d2b857389bf2201360eb5e,0.0586,0.0587,0,29,29,98,1,sixfive,,,,,,,,,,,,,,,,,,,,,,,,,,,,,,,,,,,,,,,,,,,,,,,,,,,,,,,,,,,,,,,,,,,,,,,,,,,,,,,,,,,,,,,,,,,,,,,,,,,,,,,,,,,,,,,,,,,,,,,,,,,,,,,,,,,,,,,,,
,,65207c22fa9502e61424d55e,2024-02-19_15h10.08.275,kallum_motion_pilot,2023.2.2,MacIntel,58.82352941,65207c22fa9502e61424d55e,65d2b6c8f2eece985d8e374c,65d2b857389bf2201360eb5e,0.0588,0.0588,0,30,30,62,1,fourtwo,,,,,,,,,,,,,,,,,,,,,,,,,,,,,,,,,,,,,,,,,,,,,,,,,,,,,,,,,,,,,,,,,,,,,,,,,,,,,,,,,,,,,,,,,,,,,,,,,,,,,,,,,,,,,,,,,,,,,,,,,,,,,,,,,,,,,,,,,
,,65207c22fa9502e61424d55e,2024-02-19_15h10.08.275,kallum_motion_pilot,2023.2.2,MacIntel,58.82352941,65207c22fa9502e61424d55e,65d2b6c8f2eece985d8e374c,65d2b857389bf2201360eb5e,0.0589,0.0589,0,31,31,8,1,onetwo,,,,,,,,,,,,,,,,,,,,,,,,,,,,,,,,,,,,,,,,,,,,,,,,,,,,,,,,,,,,,,,,,,,,,,,,,,,,,,,,,,,,,,,,,,,,,,,,,,,,,,,,,,,,,,,,,,,,,,,,,,,,,,,,,,,,,,,,,
,,65207c22fa9502e61424d55e,2024-02-19_15h10.08.275,kallum_motion_pilot,2023.2.2,MacIntel,58.82352941,65207c22fa9502e61424d55e,65d2b6c8f2eece985d8e374c,65d2b857389bf2201360eb5e,0.059,0.0591,0,32,32,149,1,seveneight,,,,,,,,,,,,,,,,,,,,,,,,,,,,,,,,,,,,,,,,,,,,,,,,,,,,,,,,,,,,,,,,,,,,,,,,,,,,,,,,,,,,,,,,,,,,,,,,,,,,,,,,,,,,,,,,,,,,,,,,,,,,,,,,,,,,,,,,,
,,65207c22fa9502e61424d55e,2024-02-19_15h10.08.275,kallum_motion_pilot,2023.2.2,MacIntel,58.82352941,65207c22fa9502e61424d55e,65d2b6c8f2eece985d8e374c,65d2b857389bf2201360eb5e,0.0591,0.0591,0,33,33,156,1,sevenfive,,,,,,,,,,,,,,,,,,,,,,,,,,,,,,,,,,,,,,,,,,,,,,,,,,,,,,,,,,,,,,,,,,,,,,,,,,,,,,,,,,,,,,,,,,,,,,,,,,,,,,,,,,,,,,,,,,,,,,,,,,,,,,,,,,,,,,,,,
,,65207c22fa9502e61424d55e,2024-02-19_15h10.08.275,kallum_motion_pilot,2023.2.2,MacIntel,58.82352941,65207c22fa9502e61424d55e,65d2b6c8f2eece985d8e374c,65d2b857389bf2201360eb5e,0.0593,0.0593,0,34,34,13,1,threefour,,,,,,,,,,,,,,,,,,,,,,,,,,,,,,,,,,,,,,,,,,,,,,,,,,,,,,,,,,,,,,,,,,,,,,,,,,,,,,,,,,,,,,,,,,,,,,,,,,,,,,,,,,,,,,,,,,,,,,,,,,,,,,,,,,,,,,,,,
,,65207c22fa9502e61424d55e,2024-02-19_15h10.08.275,kallum_motion_pilot,2023.2.2,MacIntel,58.82352941,65207c22fa9502e61424d55e,65d2b6c8f2eece985d8e374c,65d2b857389bf2201360eb5e,0.0594,0.0594,0,35,35,33,1,onethree,,,,,,,,,,,,,,,,,,,,,,,,,,,,,,,,,,,,,,,,,,,,,,,,,,,,,,,,,,,,,,,,,,,,,,,,,,,,,,,,,,,,,,,,,,,,,,,,,,,,,,,,,,,,,,,,,,,,,,,,,,,,,,,,,,,,,,,,,
,,65207c22fa9502e61424d55e,2024-02-19_15h10.08.275,kallum_motion_pilot,2023.2.2,MacIntel,58.82352941,65207c22fa9502e61424d55e,65d2b6c8f2eece985d8e374c,65d2b857389bf2201360eb5e,0.0595,0.0596,0,36,36,107,1,sixeight,,,,,,,,,,,,,,,,,,,,,,,,,,,,,,,,,,,,,,,,,,,,,,,,,,,,,,,,,,,,,,,,,,,,,,,,,,,,,,,,,,,,,,,,,,,,,,,,,,,,,,,,,,,,,,,,,,,,,,,,,,,,,,,,,,,,,,,,,
,,65207c22fa9502e61424d55e,2024-02-19_15h10.08.275,kallum_motion_pilot,2023.2.2,MacIntel,58.82352941,65207c22fa9502e61424d55e,65d2b6c8f2eece985d8e374c,65d2b857389bf2201360eb5e,0.0596,0.0596,0,37,37,3,1,twofour,,,,,,,,,,,,,,,,,,,,,,,,,,,,,,,,,,,,,,,,,,,,,,,,,,,,,,,,,,,,,,,,,,,,,,,,,,,,,,,,,,,,,,,,,,,,,,,,,,,,,,,,,,,,,,,,,,,,,,,,,,,,,,,,,,,,,,,,,
,,65207c22fa9502e61424d55e,2024-02-19_15h10.08.275,kallum_motion_pilot,2023.2.2,MacIntel,58.82352941,65207c22fa9502e61424d55e,65d2b6c8f2eece985d8e374c,65d2b857389bf2201360eb5e,0.0597,0.0597,0,38,38,155,1,sixeight,,,,,,,,,,,,,,,,,,,,,,,,,,,,,,,,,,,,,,,,,,,,,,,,,,,,,,,,,,,,,,,,,,,,,,,,,,,,,,,,,,,,,,,,,,,,,,,,,,,,,,,,,,,,,,,,,,,,,,,,,,,,,,,,,,,,,,,,,
,,65207c22fa9502e61424d55e,2024-02-19_15h10.08.275,kallum_motion_pilot,2023.2.2,MacIntel,58.82352941,65207c22fa9502e61424d55e,65d2b6c8f2eece985d8e374c,65d2b857389bf2201360eb5e,0.0599,0.0599,0,39,39,49,1,onethree,,,,,,,,,,,,,,,,,,,,,,,,,,,,,,,,,,,,,,,,,,,,,,,,,,,,,,,,,,,,,,,,,,,,,,,,,,,,,,,,,,,,,,,,,,,,,,,,,,,,,,,,,,,,,,,,,,,,,,,,,,,,,,,,,,,,,,,,,
,,65207c22fa9502e61424d55e,2024-02-19_15h10.08.275,kallum_motion_pilot,2023.2.2,MacIntel,58.82352941,65207c22fa9502e61424d55e,65d2b6c8f2eece985d8e374c,65d2b857389bf2201360eb5e,0.06,0.06,0,40,40,65,1,onethree,,,,,,,,,,,,,,,,,,,,,,,,,,,,,,,,,,,,,,,,,,,,,,,,,,,,,,,,,,,,,,,,,,,,,,,,,,,,,,,,,,,,,,,,,,,,,,,,,,,,,,,,,,,,,,,,,,,,,,,,,,,,,,,,,,,,,,,,,
,,65207c22fa9502e61424d55e,2024-02-19_15h10.08.275,kallum_motion_pilot,2023.2.2,MacIntel,58.82352941,65207c22fa9502e61424d55e,65d2b6c8f2eece985d8e374c,65d2b857389bf2201360eb5e,0.0601,0.0601,0,41,41,110,1,eightsix,,,,,,,,,,,,,,,,,,,,,,,,,,,,,,,,,,,,,,,,,,,,,,,,,,,,,,,,,,,,,,,,,,,,,,,,,,,,,,,,,,,,,,,,,,,,,,,,,,,,,,,,,,,,,,,,,,,,,,,,,,,,,,,,,,,,,,,,,
,,65207c22fa9502e61424d55e,2024-02-19_15h10.08.275,kallum_motion_pilot,2023.2.2,MacIntel,58.82352941,65207c22fa9502e61424d55e,65d2b6c8f2eece985d8e374c,65d2b857389bf2201360eb5e,0.0602,0.0602,0,42,42,160,1,fivesix,,,,,,,,,,,,,,,,,,,,,,,,,,,,,,,,,,,,,,,,,,,,,,,,,,,,,,,,,,,,,,,,,,,,,,,,,,,,,,,,,,,,,,,,,,,,,,,,,,,,,,,,,,,,,,,,,,,,,,,,,,,,,,,,,,,,,,,,,
,,65207c22fa9502e61424d55e,2024-02-19_15h10.08.275,kallum_motion_pilot,2023.2.2,MacIntel,58.82352941,65207c22fa9502e61424d55e,65d2b6c8f2eece985d8e374c,65d2b857389bf2201360eb5e,0.0645,0.0645,0,43,43,99,1,sixeight,,,,,,,,,,,,,,,,,,,,,,,,,,,,,,,,,,,,,,,,,,,,,,,,,,,,,,,,,,,,,,,,,,,,,,,,,,,,,,,,,,,,,,,,,,,,,,,,,,,,,,,,,,,,,,,,,,,,,,,,,,,,,,,,,,,,,,,,,
,,65207c22fa9502e61424d55e,2024-02-19_15h10.08.275,kallum_motion_pilot,2023.2.2,MacIntel,58.82352941,65207c22fa9502e61424d55e,65d2b6c8f2eece985d8e374c,65d2b857389bf2201360eb5e,0.0647,0.0647,0,44,44,48,1,onetwo,,,,,,,,,,,,,,,,,,,,,,,,,,,,,,,,,,,,,,,,,,,,,,,,,,,,,,,,,,,,,,,,,,,,,,,,,,,,,,,,,,,,,,,,,,,,,,,,,,,,,,,,,,,,,,,,,,,,,,,,,,,,,,,,,,,,,,,,,
,,65207c22fa9502e61424d55e,2024-02-19_15h10.08.275,kallum_motion_pilot,2023.2.2,MacIntel,58.82352941,65207c22fa9502e61424d55e,65d2b6c8f2eece985d8e374c,65d2b857389bf2201360eb5e,0.0649,0.0649,0,45,45,34,1,twoone,,,,,,,,,,,,,,,,,,,,,,,,,,,,,,,,,,,,,,,,,,,,,,,,,,,,,,,,,,,,,,,,,,,,,,,,,,,,,,,,,,,,,,,,,,,,,,,,,,,,,,,,,,,,,,,,,,,,,,,,,,,,,,,,,,,,,,,,,
,,65207c22fa9502e61424d55e,2024-02-19_15h10.08.275,kallum_motion_pilot,2023.2.2,MacIntel,58.82352941,65207c22fa9502e61424d55e,65d2b6c8f2eece985d8e374c,65d2b857389bf2201360eb5e,0.0649,0.065,0,46,46,85,1,seveneight,,,,,,,,,,,,,,,,,,,,,,,,,,,,,,,,,,,,,,,,,,,,,,,,,,,,,,,,,,,,,,,,,,,,,,,,,,,,,,,,,,,,,,,,,,,,,,,,,,,,,,,,,,,,,,,,,,,,,,,,,,,,,,,,,,,,,,,,,
,,65207c22fa9502e61424d55e,2024-02-19_15h10.08.275,kallum_motion_pilot,2023.2.2,MacIntel,58.82352941,65207c22fa9502e61424d55e,65d2b6c8f2eece985d8e374c,65d2b857389bf2201360eb5e,0.065,0.0651,0,47,47,144,1,fivesix,,,,,,,,,,,,,,,,,,,,,,,,,,,,,,,,,,,,,,,,,,,,,,,,,,,,,,,,,,,,,,,,,,,,,,,,,,,,,,,,,,,,,,,,,,,,,,,,,,,,,,,,,,,,,,,,,,,,,,,,,,,,,,,,,,,,,,,,,
,,65207c22fa9502e61424d55e,2024-02-19_15h10.08.275,kallum_motion_pilot,2023.2.2,MacIntel,58.82352941,65207c22fa9502e61424d55e,65d2b6c8f2eece985d8e374c,65d2b857389bf2201360eb5e,0.0653,0.0654,0,48,48,130,1,sixfive,,,,,,,,,,,,,,,,,,,,,,,,,,,,,,,,,,,,,,,,,,,,,,,,,,,,,,,,,,,,,,,,,,,,,,,,,,,,,,,,,,,,,,,,,,,,,,,,,,,,,,,,,,,,,,,,,,,,,,,,,,,,,,,,,,,,,,,,,
,,65207c22fa9502e61424d55e,2024-02-19_15h10.08.275,kallum_motion_pilot,2023.2.2,MacIntel,58.82352941,65207c22fa9502e61424d55e,65d2b6c8f2eece985d8e374c,65d2b857389bf2201360eb5e,0.0656,0.0657,0,49,49,66,1,twoone,,,,,,,,,,,,,,,,,,,,,,,,,,,,,,,,,,,,,,,,,,,,,,,,,,,,,,,,,,,,,,,,,,,,,,,,,,,,,,,,,,,,,,,,,,,,,,,,,,,,,,,,,,,,,,,,,,,,,,,,,,,,,,,,,,,,,,,,,
,,65207c22fa9502e61424d55e,2024-02-19_15h10.08.275,kallum_motion_pilot,2023.2.2,MacIntel,58.82352941,65207c22fa9502e61424d55e,65d2b6c8f2eece985d8e374c,65d2b857389bf2201360eb5e,0.0658,0.066,0,50,50,71,1,fourthree,,,,,,,,,,,,,,,,,,,,,,,,,,,,,,,,,,,,,,,,,,,,,,,,,,,,,,,,,,,,,,,,,,,,,,,,,,,,,,,,,,,,,,,,,,,,,,,,,,,,,,,,,,,,,,,,,,,,,,,,,,,,,,,,,,,,,,,,,
,,65207c22fa9502e61424d55e,2024-02-19_15h10.08.275,kallum_motion_pilot,2023.2.2,MacIntel,58.82352941,65207c22fa9502e61424d55e,65d2b6c8f2eece985d8e374c,65d2b857389bf2201360eb5e,0.0662,0.0663,0,51,51,19,1,twofour,,,,,,,,,,,,,,,,,,,,,,,,,,,,,,,,,,,,,,,,,,,,,,,,,,,,,,,,,,,,,,,,,,,,,,,,,,,,,,,,,,,,,,,,,,,,,,,,,,,,,,,,,,,,,,,,,,,,,,,,,,,,,,,,,,,,,,,,,
,,65207c22fa9502e61424d55e,2024-02-19_15h10.08.275,kallum_motion_pilot,2023.2.2,MacIntel,58.82352941,65207c22fa9502e61424d55e,65d2b6c8f2eece985d8e374c,65d2b857389bf2201360eb5e,0.0664,0.0665,0,52,52,2,1,twoone,,,,,,,,,,,,,,,,,,,,,,,,,,,,,,,,,,,,,,,,,,,,,,,,,,,,,,,,,,,,,,,,,,,,,,,,,,,,,,,,,,,,,,,,,,,,,,,,,,,,,,,,,,,,,,,,,,,,,,,,,,,,,,,,,,,,,,,,,
,,65207c22fa9502e61424d55e,2024-02-19_15h10.08.275,kallum_motion_pilot,2023.2.2,MacIntel,58.82352941,65207c22fa9502e61424d55e,65d2b6c8f2eece985d8e374c,65d2b857389bf2201360eb5e,0.0667,0.0667,0,53,53,90,1,sixfive,,,,,,,,,,,,,,,,,,,,,,,,,,,,,,,,,,,,,,,,,,,,,,,,,,,,,,,,,,,,,,,,,,,,,,,,,,,,,,,,,,,,,,,,,,,,,,,,,,,,,,,,,,,,,,,,,,,,,,,,,,,,,,,,,,,,,,,,,
,,65207c22fa9502e61424d55e,2024-02-19_15h10.08.275,kallum_motion_pilot,2023.2.2,MacIntel,58.82352941,65207c22fa9502e61424d55e,65d2b6c8f2eece985d8e374c,65d2b857389bf2201360eb5e,0.0669,0.067,0,54,54,58,1,twoone,,,,,,,,,,,,,,,,,,,,,,,,,,,,,,,,,,,,,,,,,,,,,,,,,,,,,,,,,,,,,,,,,,,,,,,,,,,,,,,,,,,,,,,,,,,,,,,,,,,,,,,,,,,,,,,,,,,,,,,,,,,,,,,,,,,,,,,,,
,,65207c22fa9502e61424d55e,2024-02-19_15h10.08.275,kallum_motion_pilot,2023.2.2,MacIntel,58.82352941,65207c22fa9502e61424d55e,65d2b6c8f2eece985d8e374c,65d2b857389bf2201360eb5e,0.0671,0.0672,0,55,55,55,1,fourthree,,,,,,,,,,,,,,,,,,,,,,,,,,,,,,,,,,,,,,,,,,,,,,,,,,,,,,,,,,,,,,,,,,,,,,,,,,,,,,,,,,,,,,,,,,,,,,,,,,,,,,,,,,,,,,,,,,,,,,,,,,,,,,,,,,,,,,,,,
,,65207c22fa9502e61424d55e,2024-02-19_15h10.08.275,kallum_motion_pilot,2023.2.2,MacIntel,58.82352941,65207c22fa9502e61424d55e,65d2b6c8f2eece985d8e374c,65d2b857389bf2201360eb5e,0.0673,0.0675,0,56,56,72,1,onetwo,,,,,,,,,,,,,,,,,,,,,,,,,,,,,,,,,,,,,,,,,,,,,,,,,,,,,,,,,,,,,,,,,,,,,,,,,,,,,,,,,,,,,,,,,,,,,,,,,,,,,,,,,,,,,,,,,,,,,,,,,,,,,,,,,,,,,,,,,
,,65207c22fa9502e61424d55e,2024-02-19_15h10.08.275,kallum_motion_pilot,2023.2.2,MacIntel,58.82352941,65207c22fa9502e61424d55e,65d2b6c8f2eece985d8e374c,65d2b857389bf2201360eb5e,0.0676,0.0676,0,57,57,115,1,sixeight,,,,,,,,,,,,,,,,,,,,,,,,,,,,,,,,,,,,,,,,,,,,,,,,,,,,,,,,,,,,,,,,,,,,,,,,,,,,,,,,,,,,,,,,,,,,,,,,,,,,,,,,,,,,,,,,,,,,,,,,,,,,,,,,,,,,,,,,,
,,65207c22fa9502e61424d55e,2024-02-19_15h10.08.275,kallum_motion_pilot,2023.2.2,MacIntel,58.82352941,65207c22fa9502e61424d55e,65d2b6c8f2eece985d8e374c,65d2b857389bf2201360eb5e,0.0678,0.0678,0,58,58,141,1,seveneight,,,,,,,,,,,,,,,,,,,,,,,,,,,,,,,,,,,,,,,,,,,,,,,,,,,,,,,,,,,,,,,,,,,,,,,,,,,,,,,,,,,,,,,,,,,,,,,,,,,,,,,,,,,,,,,,,,,,,,,,,,,,,,,,,,,,,,,,,
,,65207c22fa9502e61424d55e,2024-02-19_15h10.08.275,kallum_motion_pilot,2023.2.2,MacIntel,58.82352941,65207c22fa9502e61424d55e,65d2b6c8f2eece985d8e374c,65d2b857389bf2201360eb5e,0.0679,0.068,0,59,59,53,1,threefour,,,,,,,,,,,,,,,,,,,,,,,,,,,,,,,,,,,,,,,,,,,,,,,,,,,,,,,,,,,,,,,,,,,,,,,,,,,,,,,,,,,,,,,,,,,,,,,,,,,,,,,,,,,,,,,,,,,,,,,,,,,,,,,,,,,,,,,,,
,,65207c22fa9502e61424d55e,2024-02-19_15h10.08.275,kallum_motion_pilot,2023.2.2,MacIntel,58.82352941,65207c22fa9502e61424d55e,65d2b6c8f2eece985d8e374c,65d2b857389bf2201360eb5e,0.0682,0.0683,0,60,60,32,1,onetwo,,,,,,,,,,,,,,,,,,,,,,,,,,,,,,,,,,,,,,,,,,,,,,,,,,,,,,,,,,,,,,,,,,,,,,,,,,,,,,,,,,,,,,,,,,,,,,,,,,,,,,,,,,,,,,,,,,,,,,,,,,,,,,,,,,,,,,,,,
,,65207c22fa9502e61424d55e,2024-02-19_15h10.08.275,kallum_motion_pilot,2023.2.2,MacIntel,58.82352941,65207c22fa9502e61424d55e,65d2b6c8f2eece985d8e374c,65d2b857389bf2201360eb5e,0.0685,0.0686,0,61,61,124,1,sevenfive,,,,,,,,,,,,,,,,,,,,,,,,,,,,,,,,,,,,,,,,,,,,,,,,,,,,,,,,,,,,,,,,,,,,,,,,,,,,,,,,,,,,,,,,,,,,,,,,,,,,,,,,,,,,,,,,,,,,,,,,,,,,,,,,,,,,,,,,,
,,65207c22fa9502e61424d55e,2024-02-19_15h10.08.275,kallum_motion_pilot,2023.2.2,MacIntel,58.82352941,65207c22fa9502e61424d55e,65d2b6c8f2eece985d8e374c,65d2b857389bf2201360eb5e,0.0687,0.0687,0,62,62,123,1,sixeight,,,,,,,,,,,,,,,,,,,,,,,,,,,,,,,,,,,,,,,,,,,,,,,,,,,,,,,,,,,,,,,,,,,,,,,,,,,,,,,,,,,,,,,,,,,,,,,,,,,,,,,,,,,,,,,,,,,,,,,,,,,,,,,,,,,,,,,,,
,,65207c22fa9502e61424d55e,2024-02-19_15h10.08.275,kallum_motion_pilot,2023.2.2,MacIntel,58.82352941,65207c22fa9502e61424d55e,65d2b6c8f2eece985d8e374c,65d2b857389bf2201360eb5e,0.0688,0.0689,0,63,63,40,1,onetwo,,,,,,,,,,,,,,,,,,,,,,,,,,,,,,,,,,,,,,,,,,,,,,,,,,,,,,,,,,,,,,,,,,,,,,,,,,,,,,,,,,,,,,,,,,,,,,,,,,,,,,,,,,,,,,,,,,,,,,,,,,,,,,,,,,,,,,,,,
,,65207c22fa9502e61424d55e,2024-02-19_15h10.08.275,kallum_motion_pilot,2023.2.2,MacIntel,58.82352941,65207c22fa9502e61424d55e,65d2b6c8f2eece985d8e374c,65d2b857389bf2201360eb5e,0.0696,0.0697,0,64,64,10,1,twoone,,,,,,,,,,,,,,,,,,,,,,,,,,,,,,,,,,,,,,,,,,,,,,,,,,,,,,,,,,,,,,,,,,,,,,,,,,,,,,,,,,,,,,,,,,,,,,,,,,,,,,,,,,,,,,,,,,,,,,,,,,,,,,,,,,,,,,,,,
,,65207c22fa9502e61424d55e,2024-02-19_15h10.08.275,kallum_motion_pilot,2023.2.2,MacIntel,58.82352941,65207c22fa9502e61424d55e,65d2b6c8f2eece985d8e374c,65d2b857389bf2201360eb5e,0.0698,0.0698,0,65,65,87,1,eightseven,,,,,,,,,,,,,,,,,,,,,,,,,,,,,,,,,,,,,,,,,,,,,,,,,,,,,,,,,,,,,,,,,,,,,,,,,,,,,,,,,,,,,,,,,,,,,,,,,,,,,,,,,,,,,,,,,,,,,,,,,,,,,,,,,,,,,,,,,
,,65207c22fa9502e61424d55e,2024-02-19_15h10.08.275,kallum_motion_pilot,2023.2.2,MacIntel,58.82352941,65207c22fa9502e61424d55e,65d2b6c8f2eece985d8e374c,65d2b857389bf2201360eb5e,0.0698,0.0699,0,66,66,120,1,fivesix,,,,,,,,,,,,,,,,,,,,,,,,,,,,,,,,,,,,,,,,,,,,,,,,,,,,,,,,,,,,,,,,,,,,,,,,,,,,,,,,,,,,,,,,,,,,,,,,,,,,,,,,,,,,,,,,,,,,,,,,,,,,,,,,,,,,,,,,,
,,65207c22fa9502e61424d55e,2024-02-19_15h10.08.275,kallum_motion_pilot,2023.2.2,MacIntel,58.82352941,65207c22fa9502e61424d55e,65d2b6c8f2eece985d8e374c,65d2b857389bf2201360eb5e,0.0701,0.0701,0,67,67,38,1,fourtwo,,,,,,,,,,,,,,,,,,,,,,,,,,,,,,,,,,,,,,,,,,,,,,,,,,,,,,,,,,,,,,,,,,,,,,,,,,,,,,,,,,,,,,,,,,,,,,,,,,,,,,,,,,,,,,,,,,,,,,,,,,,,,,,,,,,,,,,,,
,,65207c22fa9502e61424d55e,2024-02-19_15h10.08.275,kallum_motion_pilot,2023.2.2,MacIntel,58.82352941,65207c22fa9502e61424d55e,65d2b6c8f2eece985d8e374c,65d2b857389bf2201360eb5e,0.0702,0.0702,0,68,68,106,1,sixfive,,,,,,,,,,,,,,,,,,,,,,,,,,,,,,,,,,,,,,,,,,,,,,,,,,,,,,,,,,,,,,,,,,,,,,,,,,,,,,,,,,,,,,,,,,,,,,,,,,,,,,,,,,,,,,,,,,,,,,,,,,,,,,,,,,,,,,,,,
,,65207c22fa9502e61424d55e,2024-02-19_15h10.08.275,kallum_motion_pilot,2023.2.2,MacIntel,58.82352941,65207c22fa9502e61424d55e,65d2b6c8f2eece985d8e374c,65d2b857389bf2201360eb5e,0.0703,0.0704,0,69,69,138,1,sixfive,,,,,,,,,,,,,,,,,,,,,,,,,,,,,,,,,,,,,,,,,,,,,,,,,,,,,,,,,,,,,,,,,,,,,,,,,,,,,,,,,,,,,,,,,,,,,,,,,,,,,,,,,,,,,,,,,,,,,,,,,,,,,,,,,,,,,,,,,
,,65207c22fa9502e61424d55e,2024-02-19_15h10.08.275,kallum_motion_pilot,2023.2.2,MacIntel,58.82352941,65207c22fa9502e61424d55e,65d2b6c8f2eece985d8e374c,65d2b857389bf2201360eb5e,0.0704,0.0704,0,70,70,27,1,twofour,,,,,,,,,,,,,,,,,,,,,,,,,,,,,,,,,,,,,,,,,,,,,,,,,,,,,,,,,,,,,,,,,,,,,,,,,,,,,,,,,,,,,,,,,,,,,,,,,,,,,,,,,,,,,,,,,,,,,,,,,,,,,,,,,,,,,,,,,
,,65207c22fa9502e61424d55e,2024-02-19_15h10.08.275,kallum_motion_pilot,2023.2.2,MacIntel,58.82352941,65207c22fa9502e61424d55e,65d2b6c8f2eece985d8e374c,65d2b857389bf2201360eb5e,0.0705,0.0706,0,71,71,69,1,threefour,,,,,,,,,,,,,,,,,,,,,,,,,,,,,,,,,,,,,,,,,,,,,,,,,,,,,,,,,,,,,,,,,,,,,,,,,,,,,,,,,,,,,,,,,,,,,,,,,,,,,,,,,,,,,,,,,,,,,,,,,,,,,,,,,,,,,,,,,
,,65207c22fa9502e61424d55e,2024-02-19_15h10.08.275,kallum_motion_pilot,2023.2.2,MacIntel,58.82352941,65207c22fa9502e61424d55e,65d2b6c8f2eece985d8e374c,65d2b857389bf2201360eb5e,0.0707,0.0707,0,72,72,60,1,threeone,,,,,,,,,,,,,,,,,,,,,,,,,,,,,,,,,,,,,,,,,,,,,,,,,,,,,,,,,,,,,,,,,,,,,,,,,,,,,,,,,,,,,,,,,,,,,,,,,,,,,,,,,,,,,,,,,,,,,,,,,,,,,,,,,,,,,,,,,
,,65207c22fa9502e61424d55e,2024-02-19_15h10.08.275,kallum_motion_pilot,2023.2.2,MacIntel,58.82352941,65207c22fa9502e61424d55e,65d2b6c8f2eece985d8e374c,65d2b857389bf2201360eb5e,0.0708,0.0708,0,73,73,114,1,sixfive,,,,,,,,,,,,,,,,,,,,,,,,,,,,,,,,,,,,,,,,,,,,,,,,,,,,,,,,,,,,,,,,,,,,,,,,,,,,,,,,,,,,,,,,,,,,,,,,,,,,,,,,,,,,,,,,,,,,,,,,,,,,,,,,,,,,,,,,,
,,65207c22fa9502e61424d55e,2024-02-19_15h10.08.275,kallum_motion_pilot,2023.2.2,MacIntel,58.82352941,65207c22fa9502e61424d55e,65d2b6c8f2eece985d8e374c,65d2b857389bf2201360eb5e,0.0709,0.071,0,74,74,77,1,threefour,,,,,,,,,,,,,,,,,,,,,,,,,,,,,,,,,,,,,,,,,,,,,,,,,,,,,,,,,,,,,,,,,,,,,,,,,,,,,,,,,,,,,,,,,,,,,,,,,,,,,,,,,,,,,,,,,,,,,,,,,,,,,,,,,,,,,,,,,
,,65207c22fa9502e61424d55e,2024-02-19_15h10.08.275,kallum_motion_pilot,2023.2.2,MacIntel,58.82352941,65207c22fa9502e61424d55e,65d2b6c8f2eece985d8e374c,65d2b857389bf2201360eb5e,0.071,0.0711,0,75,75,108,1,sevenfive,,,,,,,,,,,,,,,,,,,,,,,,,,,,,,,,,,,,,,,,,,,,,,,,,,,,,,,,,,,,,,,,,,,,,,,,,,,,,,,,,,,,,,,,,,,,,,,,,,,,,,,,,,,,,,,,,,,,,,,,,,,,,,,,,,,,,,,,,
,,65207c22fa9502e61424d55e,2024-02-19_15h10.08.275,kallum_motion_pilot,2023.2.2,MacIntel,58.82352941,65207c22fa9502e61424d55e,65d2b6c8f2eece985d8e374c,65d2b857389bf2201360eb5e,0.0712,0.0713,0,76,76,143,1,eightseven,,,,,,,,,,,,,,,,,,,,,,,,,,,,,,,,,,,,,,,,,,,,,,,,,,,,,,,,,,,,,,,,,,,,,,,,,,,,,,,,,,,,,,,,,,,,,,,,,,,,,,,,,,,,,,,,,,,,,,,,,,,,,,,,,,,,,,,,,
,,65207c22fa9502e61424d55e,2024-02-19_15h10.08.275,kallum_motion_pilot,2023.2.2,MacIntel,58.82352941,65207c22fa9502e61424d55e,65d2b6c8f2eece985d8e374c,65d2b857389bf2201360eb5e,0.0714,0.0714,0,77,77,37,1,threefour,,,,,,,,,,,,,,,,,,,,,,,,,,,,,,,,,,,,,,,,,,,,,,,,,,,,,,,,,,,,,,,,,,,,,,,,,,,,,,,,,,,,,,,,,,,,,,,,,,,,,,,,,,,,,,,,,,,,,,,,,,,,,,,,,,,,,,,,,
,,65207c22fa9502e61424d55e,2024-02-19_15h10.08.275,kallum_motion_pilot,2023.2.2,MacIntel,58.82352941,65207c22fa9502e61424d55e,65d2b6c8f2eece985d8e374c,65d2b857389bf2201360eb5e,0.0715,0.0716,0,78,78,41,1,onethree,,,,,,,,,,,,,,,,,,,,,,,,,,,,,,,,,,,,,,,,,,,,,,,,,,,,,,,,,,,,,,,,,,,,,,,,,,,,,,,,,,,,,,,,,,,,,,,,,,,,,,,,,,,,,,,,,,,,,,,,,,,,,,,,,,,,,,,,,
,,65207c22fa9502e61424d55e,2024-02-19_15h10.08.275,kallum_motion_pilot,2023.2.2,MacIntel,58.82352941,65207c22fa9502e61424d55e,65d2b6c8f2eece985d8e374c,65d2b857389bf2201360eb5e,0.0717,0.0722,0,79,79,1,1,onethree,,,,,,,,,,,,,,,,,,,,,,,,,,,,,,,,,,,,,,,,,,,,,,,,,,,,,,,,,,,,,,,,,,,,,,,,,,,,,,,,,,,,,,,,,,,,,,,,,,,,,,,,,,,,,,,,,,,,,,,,,,,,,,,,,,,,,,,,,
,,65207c22fa9502e61424d55e,2024-02-19_15h10.08.275,kallum_motion_pilot,2023.2.2,MacIntel,58.82352941,65207c22fa9502e61424d55e,65d2b6c8f2eece985d8e374c,65d2b857389bf2201360eb5e,0.0724,0.073,0,80,80,158,1,eightsix,,,,,,,,,,,,,,,,,,,,,,,,,,,,,,,,,,,,,,,,,,,,,,,,,,,,,,,,,,,,,,,,,,,,,,,,,,,,,,,,,,,,,,,,,,,,,,,,,,,,,,,,,,,,,,,,,,,,,,,,,,,,,,,,,,,,,,,,,
,,65207c22fa9502e61424d55e,2024-02-19_15h10.08.275,kallum_motion_pilot,2023.2.2,MacIntel,58.82352941,65207c22fa9502e61424d55e,65d2b6c8f2eece985d8e374c,65d2b857389bf2201360eb5e,0.0732,0.0733,0,81,81,103,1,eightseven,,,,,,,,,,,,,,,,,,,,,,,,,,,,,,,,,,,,,,,,,,,,,,,,,,,,,,,,,,,,,,,,,,,,,,,,,,,,,,,,,,,,,,,,,,,,,,,,,,,,,,,,,,,,,,,,,,,,,,,,,,,,,,,,,,,,,,,,,
,,65207c22fa9502e61424d55e,2024-02-19_15h10.08.275,kallum_motion_pilot,2023.2.2,MacIntel,58.82352941,65207c22fa9502e61424d55e,65d2b6c8f2eece985d8e374c,65d2b857389bf2201360eb5e,0.0734,0.0735,0,82,82,117,1,seveneight,,,,,,,,,,,,,,,,,,,,,,,,,,,,,,,,,,,,,,,,,,,,,,,,,,,,,,,,,,,,,,,,,,,,,,,,,,,,,,,,,,,,,,,,,,,,,,,,,,,,,,,,,,,,,,,,,,,,,,,,,,,,,,,,,,,,,,,,,
,,65207c22fa9502e61424d55e,2024-02-19_15h10.08.275,kallum_motion_pilot,2023.2.2,MacIntel,58.82352941,65207c22fa9502e61424d55e,65d2b6c8f2eece985d8e374c,65d2b857389bf2201360eb5e,0.0736,0.0736,0,83,83,153,1,fiveseven,,,,,,,,,,,,,,,,,,,,,,,,,,,,,,,,,,,,,,,,,,,,,,,,,,,,,,,,,,,,,,,,,,,,,,,,,,,,,,,,,,,,,,,,,,,,,,,,,,,,,,,,,,,,,,,,,,,,,,,,,,,,,,,,,,,,,,,,,
,,65207c22fa9502e61424d55e,2024-02-19_15h10.08.275,kallum_motion_pilot,2023.2.2,MacIntel,58.82352941,65207c22fa9502e61424d55e,65d2b6c8f2eece985d8e374c,65d2b857389bf2201360eb5e,0.0738,0.0738,0,84,84,116,1,sevenfive,,,,,,,,,,,,,,,,,,,,,,,,,,,,,,,,,,,,,,,,,,,,,,,,,,,,,,,,,,,,,,,,,,,,,,,,,,,,,,,,,,,,,,,,,,,,,,,,,,,,,,,,,,,,,,,,,,,,,,,,,,,,,,,,,,,,,,,,,
,,65207c22fa9502e61424d55e,2024-02-19_15h10.08.275,kallum_motion_pilot,2023.2.2,MacIntel,58.82352941,65207c22fa9502e61424d55e,65d2b6c8f2eece985d8e374c,65d2b857389bf2201360eb5e,0.0739,0.0739,0,85,85,96,1,fivesix,,,,,,,,,,,,,,,,,,,,,,,,,,,,,,,,,,,,,,,,,,,,,,,,,,,,,,,,,,,,,,,,,,,,,,,,,,,,,,,,,,,,,,,,,,,,,,,,,,,,,,,,,,,,,,,,,,,,,,,,,,,,,,,,,,,,,,,,,
,,65207c22fa9502e61424d55e,2024-02-19_15h10.08.275,kallum_motion_pilot,2023.2.2,MacIntel,58.82352941,65207c22fa9502e61424d55e,65d2b6c8f2eece985d8e374c,65d2b857389bf2201360eb5e,0.0746,0.075,0,86,86,105,1,fiveseven,,,,,,,,,,,,,,,,,,,,,,,,,,,,,,,,,,,,,,,,,,,,,,,,,,,,,,,,,,,,,,,,,,,,,,,,,,,,,,,,,,,,,,,,,,,,,,,,,,,,,,,,,,,,,,,,,,,,,,,,,,,,,,,,,,,,,,,,,
,,65207c22fa9502e61424d55e,2024-02-19_15h10.08.275,kallum_motion_pilot,2023.2.2,MacIntel,58.82352941,65207c22fa9502e61424d55e,65d2b6c8f2eece985d8e374c,65d2b857389bf2201360eb5e,0.0752,0.0753,0,87,87,134,1,eightsix,,,,,,,,,,,,,,,,,,,,,,,,,,,,,,,,,,,,,,,,,,,,,,,,,,,,,,,,,,,,,,,,,,,,,,,,,,,,,,,,,,,,,,,,,,,,,,,,,,,,,,,,,,,,,,,,,,,,,,,,,,,,,,,,,,,,,,,,,
,,65207c22fa9502e61424d55e,2024-02-19_15h10.08.275,kallum_motion_pilot,2023.2.2,MacIntel,58.82352941,65207c22fa9502e61424d55e,65d2b6c8f2eece985d8e374c,65d2b857389bf2201360eb5e,0.0754,0.0754,0,88,88,126,1,eightsix,,,,,,,,,,,,,,,,,,,,,,,,,,,,,,,,,,,,,,,,,,,,,,,,,,,,,,,,,,,,,,,,,,,,,,,,,,,,,,,,,,,,,,,,,,,,,,,,,,,,,,,,,,,,,,,,,,,,,,,,,,,,,,,,,,,,,,,,,
,,65207c22fa9502e61424d55e,2024-02-19_15h10.08.275,kallum_motion_pilot,2023.2.2,MacIntel,58.82352941,65207c22fa9502e61424d55e,65d2b6c8f2eece985d8e374c,65d2b857389bf2201360eb5e,0.0755,0.0755,0,89,89,147,1,sixeight,,,,,,,,,,,,,,,,,,,,,,,,,,,,,,,,,,,,,,,,,,,,,,,,,,,,,,,,,,,,,,,,,,,,,,,,,,,,,,,,,,,,,,,,,,,,,,,,,,,,,,,,,,,,,,,,,,,,,,,,,,,,,,,,,,,,,,,,,
,,65207c22fa9502e61424d55e,2024-02-19_15h10.08.275,kallum_motion_pilot,2023.2.2,MacIntel,58.82352941,65207c22fa9502e61424d55e,65d2b6c8f2eece985d8e374c,65d2b857389bf2201360eb5e,0.0756,0.0757,0,90,90,30,1,fourtwo,,,,,,,,,,,,,,,,,,,,,,,,,,,,,,,,,,,,,,,,,,,,,,,,,,,,,,,,,,,,,,,,,,,,,,,,,,,,,,,,,,,,,,,,,,,,,,,,,,,,,,,,,,,,,,,,,,,,,,,,,,,,,,,,,,,,,,,,,
,,65207c22fa9502e61424d55e,2024-02-19_15h10.08.275,kallum_motion_pilot,2023.2.2,MacIntel,58.82352941,65207c22fa9502e61424d55e,65d2b6c8f2eece985d8e374c,65d2b857389bf2201360eb5e,0.0758,0.0758,0,91,91,82,1,sixfive,,,,,,,,,,,,,,,,,,,,,,,,,,,,,,,,,,,,,,,,,,,,,,,,,,,,,,,,,,,,,,,,,,,,,,,,,,,,,,,,,,,,,,,,,,,,,,,,,,,,,,,,,,,,,,,,,,,,,,,,,,,,,,,,,,,,,,,,,
,,65207c22fa9502e61424d55e,2024-02-19_15h10.08.275,kallum_motion_pilot,2023.2.2,MacIntel,58.82352941,65207c22fa9502e61424d55e,65d2b6c8f2eece985d8e374c,65d2b857389bf2201360eb5e,0.0759,0.0759,0,92,92,26,1,twoone,,,,,,,,,,,,,,,,,,,,,,,,,,,,,,,,,,,,,,,,,,,,,,,,,,,,,,,,,,,,,,,,,,,,,,,,,,,,,,,,,,,,,,,,,,,,,,,,,,,,,,,,,,,,,,,,,,,,,,,,,,,,,,,,,,,,,,,,,
,,65207c22fa9502e61424d55e,2024-02-19_15h10.08.275,kallum_motion_pilot,2023.2.2,MacIntel,58.82352941,65207c22fa9502e61424d55e,65d2b6c8f2eece985d8e374c,65d2b857389bf2201360eb5e,0.076,0.076,0,93,93,145,1,fiveseven,,,,,,,,,,,,,,,,,,,,,,,,,,,,,,,,,,,,,,,,,,,,,,,,,,,,,,,,,,,,,,,,,,,,,,,,,,,,,,,,,,,,,,,,,,,,,,,,,,,,,,,,,,,,,,,,,,,,,,,,,,,,,,,,,,,,,,,,,
,,65207c22fa9502e61424d55e,2024-02-19_15h10.08.275,kallum_motion_pilot,2023.2.2,MacIntel,58.82352941,65207c22fa9502e61424d55e,65d2b6c8f2eece985d8e374c,65d2b857389bf2201360eb5e,0.0761,0.078,0,94,94,21,1,threefour,,,,,,,,,,,,,,,,,,,,,,,,,,,,,,,,,,,,,,,,,,,,,,,,,,,,,,,,,,,,,,,,,,,,,,,,,,,,,,,,,,,,,,,,,,,,,,,,,,,,,,,,,,,,,,,,,,,,,,,,,,,,,,,,,,,,,,,,,
,,65207c22fa9502e61424d55e,2024-02-19_15h10.08.275,kallum_motion_pilot,2023.2.2,MacIntel,58.82352941,65207c22fa9502e61424d55e,65d2b6c8f2eece985d8e374c,65d2b857389bf2201360eb5e,0.0797,0.0798,0,95,95,83,1,sixeight,,,,,,,,,,,,,,,,,,,,,,,,,,,,,,,,,,,,,,,,,,,,,,,,,,,,,,,,,,,,,,,,,,,,,,,,,,,,,,,,,,,,,,,,,,,,,,,,,,,,,,,,,,,,,,,,,,,,,,,,,,,,,,,,,,,,,,,,,
,,65207c22fa9502e61424d55e,2024-02-19_15h10.08.275,kallum_motion_pilot,2023.2.2,MacIntel,58.82352941,65207c22fa9502e61424d55e,65d2b6c8f2eece985d8e374c,65d2b857389bf2201360eb5e,0.0808,0.0809,0,96,96,47,1,fourthree,,,,,,,,,,,,,,,,,,,,,,,,,,,,,,,,,,,,,,,,,,,,,,,,,,,,,,,,,,,,,,,,,,,,,,,,,,,,,,,,,,,,,,,,,,,,,,,,,,,,,,,,,,,,,,,,,,,,,,,,,,,,,,,,,,,,,,,,,
,,65207c22fa9502e61424d55e,2024-02-19_15h10.08.275,kallum_motion_pilot,2023.2.2,MacIntel,58.82352941,65207c22fa9502e61424d55e,65d2b6c8f2eece985d8e374c,65d2b857389bf2201360eb5e,0.0811,0.0811,0,97,97,100,1,sevenfive,,,,,,,,,,,,,,,,,,,,,,,,,,,,,,,,,,,,,,,,,,,,,,,,,,,,,,,,,,,,,,,,,,,,,,,,,,,,,,,,,,,,,,,,,,,,,,,,,,,,,,,,,,,,,,,,,,,,,,,,,,,,,,,,,,,,,,,,,
,,65207c22fa9502e61424d55e,2024-02-19_15h10.08.275,kallum_motion_pilot,2023.2.2,MacIntel,58.82352941,65207c22fa9502e61424d55e,65d2b6c8f2eece985d8e374c,65d2b857389bf2201360eb5e,0.0813,0.0814,0,98,98,54,1,fourtwo,,,,,,,,,,,,,,,,,,,,,,,,,,,,,,,,,,,,,,,,,,,,,,,,,,,,,,,,,,,,,,,,,,,,,,,,,,,,,,,,,,,,,,,,,,,,,,,,,,,,,,,,,,,,,,,,,,,,,,,,,,,,,,,,,,,,,,,,,
,,65207c22fa9502e61424d55e,2024-02-19_15h10.08.275,kallum_motion_pilot,2023.2.2,MacIntel,58.82352941,65207c22fa9502e61424d55e,65d2b6c8f2eece985d8e374c,65d2b857389bf2201360eb5e,0.0814,0.0815,0,99,99,84,1,sevenfive,,,,,,,,,,,,,,,,,,,,,,,,,,,,,,,,,,,,,,,,,,,,,,,,,,,,,,,,,,,,,,,,,,,,,,,,,,,,,,,,,,,,,,,,,,,,,,,,,,,,,,,,,,,,,,,,,,,,,,,,,,,,,,,,,,,,,,,,,
,,65207c22fa9502e61424d55e,2024-02-19_15h10.08.275,kallum_motion_pilot,2023.2.2,MacIntel,58.82352941,65207c22fa9502e61424d55e,65d2b6c8f2eece985d8e374c,65d2b857389bf2201360eb5e,0.0816,0.0816,0,100,100,52,1,threeone,,,,,,,,,,,,,,,,,,,,,,,,,,,,,,,,,,,,,,,,,,,,,,,,,,,,,,,,,,,,,,,,,,,,,,,,,,,,,,,,,,,,,,,,,,,,,,,,,,,,,,,,,,,,,,,,,,,,,,,,,,,,,,,,,,,,,,,,,
,,65207c22fa9502e61424d55e,2024-02-19_15h10.08.275,kallum_motion_pilot,2023.2.2,MacIntel,58.82352941,65207c22fa9502e61424d55e,65d2b6c8f2eece985d8e374c,65d2b857389bf2201360eb5e,0.0818,0.0818,0,101,101,25,1,onethree,,,,,,,,,,,,,,,,,,,,,,,,,,,,,,,,,,,,,,,,,,,,,,,,,,,,,,,,,,,,,,,,,,,,,,,,,,,,,,,,,,,,,,,,,,,,,,,,,,,,,,,,,,,,,,,,,,,,,,,,,,,,,,,,,,,,,,,,,
,,65207c22fa9502e61424d55e,2024-02-19_15h10.08.275,kallum_motion_pilot,2023.2.2,MacIntel,58.82352941,65207c22fa9502e61424d55e,65d2b6c8f2eece985d8e374c,65d2b857389bf2201360eb5e,0.0818,0.082,0,102,102,131,1,sixeight,,,,,,,,,,,,,,,,,,,,,,,,,,,,,,,,,,,,,,,,,,,,,,,,,,,,,,,,,,,,,,,,,,,,,,,,,,,,,,,,,,,,,,,,,,,,,,,,,,,,,,,,,,,,,,,,,,,,,,,,,,,,,,,,,,,,,,,,,
,,65207c22fa9502e61424d55e,2024-02-19_15h10.08.275,kallum_motion_pilot,2023.2.2,MacIntel,58.82352941,65207c22fa9502e61424d55e,65d2b6c8f2eece985d8e374c,65d2b857389bf2201360eb5e,0.082,0.0825,0,103,103,146,1,sixfive,,,,,,,,,,,,,,,,,,,,,,,,,,,,,,,,,,,,,,,,,,,,,,,,,,,,,,,,,,,,,,,,,,,,,,,,,,,,,,,,,,,,,,,,,,,,,,,,,,,,,,,,,,,,,,,,,,,,,,,,,,,,,,,,,,,,,,,,,
,,65207c22fa9502e61424d55e,2024-02-19_15h10.08.275,kallum_motion_pilot,2023.2.2,MacIntel,58.82352941,65207c22fa9502e61424d55e,65d2b6c8f2eece985d8e374c,65d2b857389bf2201360eb5e,0.0828,0.0828,0,104,104,42,1,twoone,,,,,,,,,,,,,,,,,,,,,,,,,,,,,,,,,,,,,,,,,,,,,,,,,,,,,,,,,,,,,,,,,,,,,,,,,,,,,,,,,,,,,,,,,,,,,,,,,,,,,,,,,,,,,,,,,,,,,,,,,,,,,,,,,,,,,,,,,
,,65207c22fa9502e61424d55e,2024-02-19_15h10.08.275,kallum_motion_pilot,2023.2.2,MacIntel,58.82352941,65207c22fa9502e61424d55e,65d2b6c8f2eece985d8e374c,65d2b857389bf2201360eb5e,0.083,0.0831,0,105,105,142,1,eightsix,,,,,,,,,,,,,,,,,,,,,,,,,,,,,,,,,,,,,,,,,,,,,,,,,,,,,,,,,,,,,,,,,,,,,,,,,,,,,,,,,,,,,,,,,,,,,,,,,,,,,,,,,,,,,,,,,,,,,,,,,,,,,,,,,,,,,,,,,
,,65207c22fa9502e61424d55e,2024-02-19_15h10.08.275,kallum_motion_pilot,2023.2.2,MacIntel,58.82352941,65207c22fa9502e61424d55e,65d2b6c8f2eece985d8e374c,65d2b857389bf2201360eb5e,0.0833,0.0833,0,106,106,22,1,fourtwo,,,,,,,,,,,,,,,,,,,,,,,,,,,,,,,,,,,,,,,,,,,,,,,,,,,,,,,,,,,,,,,,,,,,,,,,,,,,,,,,,,,,,,,,,,,,,,,,,,,,,,,,,,,,,,,,,,,,,,,,,,,,,,,,,,,,,,,,,
,,65207c22fa9502e61424d55e,2024-02-19_15h10.08.275,kallum_motion_pilot,2023.2.2,MacIntel,58.82352941,65207c22fa9502e61424d55e,65d2b6c8f2eece985d8e374c,65d2b857389bf2201360eb5e,0.0835,0.0836,0,107,107,56,1,onetwo,,,,,,,,,,,,,,,,,,,,,,,,,,,,,,,,,,,,,,,,,,,,,,,,,,,,,,,,,,,,,,,,,,,,,,,,,,,,,,,,,,,,,,,,,,,,,,,,,,,,,,,,,,,,,,,,,,,,,,,,,,,,,,,,,,,,,,,,,
,,65207c22fa9502e61424d55e,2024-02-19_15h10.08.275,kallum_motion_pilot,2023.2.2,MacIntel,58.82352941,65207c22fa9502e61424d55e,65d2b6c8f2eece985d8e374c,65d2b857389bf2201360eb5e,0.0837,0.0837,0,108,108,73,1,onethree,,,,,,,,,,,,,,,,,,,,,,,,,,,,,,,,,,,,,,,,,,,,,,,,,,,,,,,,,,,,,,,,,,,,,,,,,,,,,,,,,,,,,,,,,,,,,,,,,,,,,,,,,,,,,,,,,,,,,,,,,,,,,,,,,,,,,,,,,
,,65207c22fa9502e61424d55e,2024-02-19_15h10.08.275,kallum_motion_pilot,2023.2.2,MacIntel,58.82352941,65207c22fa9502e61424d55e,65d2b6c8f2eece985d8e374c,65d2b857389bf2201360eb5e,0.0838,0.0839,0,109,109,17,1,onethree,,,,,,,,,,,,,,,,,,,,,,,,,,,,,,,,,,,,,,,,,,,,,,,,,,,,,,,,,,,,,,,,,,,,,,,,,,,,,,,,,,,,,,,,,,,,,,,,,,,,,,,,,,,,,,,,,,,,,,,,,,,,,,,,,,,,,,,,,
,,65207c22fa9502e61424d55e,2024-02-19_15h10.08.275,kallum_motion_pilot,2023.2.2,MacIntel,58.82352941,65207c22fa9502e61424d55e,65d2b6c8f2eece985d8e374c,65d2b857389bf2201360eb5e,0.084,0.084,0,110,110,31,1,fourthree,,,,,,,,,,,,,,,,,,,,,,,,,,,,,,,,,,,,,,,,,,,,,,,,,,,,,,,,,,,,,,,,,,,,,,,,,,,,,,,,,,,,,,,,,,,,,,,,,,,,,,,,,,,,,,,,,,,,,,,,,,,,,,,,,,,,,,,,,
,,65207c22fa9502e61424d55e,2024-02-19_15h10.08.275,kallum_motion_pilot,2023.2.2,MacIntel,58.82352941,65207c22fa9502e61424d55e,65d2b6c8f2eece985d8e374c,65d2b857389bf2201360eb5e,0.084,0.0842,0,111,111,94,1,eightsix,,,,,,,,,,,,,,,,,,,,,,,,,,,,,,,,,,,,,,,,,,,,,,,,,,,,,,,,,,,,,,,,,,,,,,,,,,,,,,,,,,,,,,,,,,,,,,,,,,,,,,,,,,,,,,,,,,,,,,,,,,,,,,,,,,,,,,,,,
,,65207c22fa9502e61424d55e,2024-02-19_15h10.08.275,kallum_motion_pilot,2023.2.2,MacIntel,58.82352941,65207c22fa9502e61424d55e,65d2b6c8f2eece985d8e374c,65d2b857389bf2201360eb5e,0.0843,0.0849,0,112,112,148,1,sevenfive,,,,,,,,,,,,,,,,,,,,,,,,,,,,,,,,,,,,,,,,,,,,,,,,,,,,,,,,,,,,,,,,,,,,,,,,,,,,,,,,,,,,,,,,,,,,,,,,,,,,,,,,,,,,,,,,,,,,,,,,,,,,,,,,,,,,,,,,,
,,65207c22fa9502e61424d55e,2024-02-19_15h10.08.275,kallum_motion_pilot,2023.2.2,MacIntel,58.82352941,65207c22fa9502e61424d55e,65d2b6c8f2eece985d8e374c,65d2b857389bf2201360eb5e,0.0851,0.0852,0,113,113,154,1,sixfive,,,,,,,,,,,,,,,,,,,,,,,,,,,,,,,,,,,,,,,,,,,,,,,,,,,,,,,,,,,,,,,,,,,,,,,,,,,,,,,,,,,,,,,,,,,,,,,,,,,,,,,,,,,,,,,,,,,,,,,,,,,,,,,,,,,,,,,,,
,,65207c22fa9502e61424d55e,2024-02-19_15h10.08.275,kallum_motion_pilot,2023.2.2,MacIntel,58.82352941,65207c22fa9502e61424d55e,65d2b6c8f2eece985d8e374c,65d2b857389bf2201360eb5e,0.0853,0.0853,0,114,114,151,1,eightseven,,,,,,,,,,,,,,,,,,,,,,,,,,,,,,,,,,,,,,,,,,,,,,,,,,,,,,,,,,,,,,,,,,,,,,,,,,,,,,,,,,,,,,,,,,,,,,,,,,,,,,,,,,,,,,,,,,,,,,,,,,,,,,,,,,,,,,,,,
,,65207c22fa9502e61424d55e,2024-02-19_15h10.08.275,kallum_motion_pilot,2023.2.2,MacIntel,58.82352941,65207c22fa9502e61424d55e,65d2b6c8f2eece985d8e374c,65d2b857389bf2201360eb5e,0.0855,0.0855,0,115,115,0,1,onetwo,,,,,,,,,,,,,,,,,,,,,,,,,,,,,,,,,,,,,,,,,,,,,,,,,,,,,,,,,,,,,,,,,,,,,,,,,,,,,,,,,,,,,,,,,,,,,,,,,,,,,,,,,,,,,,,,,,,,,,,,,,,,,,,,,,,,,,,,,
,,65207c22fa9502e61424d55e,2024-02-19_15h10.08.275,kallum_motion_pilot,2023.2.2,MacIntel,58.82352941,65207c22fa9502e61424d55e,65d2b6c8f2eece985d8e374c,65d2b857389bf2201360eb5e,0.0856,0.0857,0,116,116,128,1,fivesix,,,,,,,,,,,,,,,,,,,,,,,,,,,,,,,,,,,,,,,,,,,,,,,,,,,,,,,,,,,,,,,,,,,,,,,,,,,,,,,,,,,,,,,,,,,,,,,,,,,,,,,,,,,,,,,,,,,,,,,,,,,,,,,,,,,,,,,,,
,,65207c22fa9502e61424d55e,2024-02-19_15h10.08.275,kallum_motion_pilot,2023.2.2,MacIntel,58.82352941,65207c22fa9502e61424d55e,65d2b6c8f2eece985d8e374c,65d2b857389bf2201360eb5e,0.0858,0.0858,0,117,117,7,1,fourthree,,,,,,,,,,,,,,,,,,,,,,,,,,,,,,,,,,,,,,,,,,,,,,,,,,,,,,,,,,,,,,,,,,,,,,,,,,,,,,,,,,,,,,,,,,,,,,,,,,,,,,,,,,,,,,,,,,,,,,,,,,,,,,,,,,,,,,,,,
,,65207c22fa9502e61424d55e,2024-02-19_15h10.08.275,kallum_motion_pilot,2023.2.2,MacIntel,58.82352941,65207c22fa9502e61424d55e,65d2b6c8f2eece985d8e374c,65d2b857389bf2201360eb5e,0.0859,0.086,0,118,118,4,1,threeone,,,,,,,,,,,,,,,,,,,,,,,,,,,,,,,,,,,,,,,,,,,,,,,,,,,,,,,,,,,,,,,,,,,,,,,,,,,,,,,,,,,,,,,,,,,,,,,,,,,,,,,,,,,,,,,,,,,,,,,,,,,,,,,,,,,,,,,,,
,,65207c22fa9502e61424d55e,2024-02-19_15h10.08.275,kallum_motion_pilot,2023.2.2,MacIntel,58.82352941,65207c22fa9502e61424d55e,65d2b6c8f2eece985d8e374c,65d2b857389bf2201360eb5e,0.0861,0.0861,0,119,119,140,1,sevenfive,,,,,,,,,,,,,,,,,,,,,,,,,,,,,,,,,,,,,,,,,,,,,,,,,,,,,,,,,,,,,,,,,,,,,,,,,,,,,,,,,,,,,,,,,,,,,,,,,,,,,,,,,,,,,,,,,,,,,,,,,,,,,,,,,,,,,,,,,
,,65207c22fa9502e61424d55e,2024-02-19_15h10.08.275,kallum_motion_pilot,2023.2.2,MacIntel,58.82352941,65207c22fa9502e61424d55e,65d2b6c8f2eece985d8e374c,65d2b857389bf2201360eb5e,0.0861,0.0862,0,120,120,45,1,threefour,,,,,,,,,,,,,,,,,,,,,,,,,,,,,,,,,,,,,,,,,,,,,,,,,,,,,,,,,,,,,,,,,,,,,,,,,,,,,,,,,,,,,,,,,,,,,,,,,,,,,,,,,,,,,,,,,,,,,,,,,,,,,,,,,,,,,,,,,
,,65207c22fa9502e61424d55e,2024-02-19_15h10.08.275,kallum_motion_pilot,2023.2.2,MacIntel,58.82352941,65207c22fa9502e61424d55e,65d2b6c8f2eece985d8e374c,65d2b857389bf2201360eb5e,0.0871,0.0871,0,121,121,43,1,twofour,,,,,,,,,,,,,,,,,,,,,,,,,,,,,,,,,,,,,,,,,,,,,,,,,,,,,,,,,,,,,,,,,,,,,,,,,,,,,,,,,,,,,,,,,,,,,,,,,,,,,,,,,,,,,,,,,,,,,,,,,,,,,,,,,,,,,,,,,
,,65207c22fa9502e61424d55e,2024-02-19_15h10.08.275,kallum_motion_pilot,2023.2.2,MacIntel,58.82352941,65207c22fa9502e61424d55e,65d2b6c8f2eece985d8e374c,65d2b857389bf2201360eb5e,0.0873,0.0874,0,122,122,63,1,fourthree,,,,,,,,,,,,,,,,,,,,,,,,,,,,,,,,,,,,,,,,,,,,,,,,,,,,,,,,,,,,,,,,,,,,,,,,,,,,,,,,,,,,,,,,,,,,,,,,,,,,,,,,,,,,,,,,,,,,,,,,,,,,,,,,,,,,,,,,,
,,65207c22fa9502e61424d55e,2024-02-19_15h10.08.275,kallum_motion_pilot,2023.2.2,MacIntel,58.82352941,65207c22fa9502e61424d55e,65d2b6c8f2eece985d8e374c,65d2b857389bf2201360eb5e,0.0874,0.0874,0,123,123,5,1,threefour,,,,,,,,,,,,,,,,,,,,,,,,,,,,,,,,,,,,,,,,,,,,,,,,,,,,,,,,,,,,,,,,,,,,,,,,,,,,,,,,,,,,,,,,,,,,,,,,,,,,,,,,,,,,,,,,,,,,,,,,,,,,,,,,,,,,,,,,,
,,65207c22fa9502e61424d55e,2024-02-19_15h10.08.275,kallum_motion_pilot,2023.2.2,MacIntel,58.82352941,65207c22fa9502e61424d55e,65d2b6c8f2eece985d8e374c,65d2b857389bf2201360eb5e,0.0876,0.0877,0,124,124,112,1,fivesix,,,,,,,,,,,,,,,,,,,,,,,,,,,,,,,,,,,,,,,,,,,,,,,,,,,,,,,,,,,,,,,,,,,,,,,,,,,,,,,,,,,,,,,,,,,,,,,,,,,,,,,,,,,,,,,,,,,,,,,,,,,,,,,,,,,,,,,,,
,,65207c22fa9502e61424d55e,2024-02-19_15h10.08.275,kallum_motion_pilot,2023.2.2,MacIntel,58.82352941,65207c22fa9502e61424d55e,65d2b6c8f2eece985d8e374c,65d2b857389bf2201360eb5e,0.0878,0.0878,0,125,125,61,1,threefour,,,,,,,,,,,,,,,,,,,,,,,,,,,,,,,,,,,,,,,,,,,,,,,,,,,,,,,,,,,,,,,,,,,,,,,,,,,,,,,,,,,,,,,,,,,,,,,,,,,,,,,,,,,,,,,,,,,,,,,,,,,,,,,,,,,,,,,,,
,,65207c22fa9502e61424d55e,2024-02-19_15h10.08.275,kallum_motion_pilot,2023.2.2,MacIntel,58.82352941,65207c22fa9502e61424d55e,65d2b6c8f2eece985d8e374c,65d2b857389bf2201360eb5e,0.0879,0.088,0,126,126,127,1,eightseven,,,,,,,,,,,,,,,,,,,,,,,,,,,,,,,,,,,,,,,,,,,,,,,,,,,,,,,,,,,,,,,,,,,,,,,,,,,,,,,,,,,,,,,,,,,,,,,,,,,,,,,,,,,,,,,,,,,,,,,,,,,,,,,,,,,,,,,,,
,,65207c22fa9502e61424d55e,2024-02-19_15h10.08.275,kallum_motion_pilot,2023.2.2,MacIntel,58.82352941,65207c22fa9502e61424d55e,65d2b6c8f2eece985d8e374c,65d2b857389bf2201360eb5e,0.0881,0.0881,0,127,127,97,1,fiveseven,,,,,,,,,,,,,,,,,,,,,,,,,,,,,,,,,,,,,,,,,,,,,,,,,,,,,,,,,,,,,,,,,,,,,,,,,,,,,,,,,,,,,,,,,,,,,,,,,,,,,,,,,,,,,,,,,,,,,,,,,,,,,,,,,,,,,,,,,
,,65207c22fa9502e61424d55e,2024-02-19_15h10.08.275,kallum_motion_pilot,2023.2.2,MacIntel,58.82352941,65207c22fa9502e61424d55e,65d2b6c8f2eece985d8e374c,65d2b857389bf2201360eb5e,0.0882,0.0883,0,128,128,89,1,fiveseven,,,,,,,,,,,,,,,,,,,,,,,,,,,,,,,,,,,,,,,,,,,,,,,,,,,,,,,,,,,,,,,,,,,,,,,,,,,,,,,,,,,,,,,,,,,,,,,,,,,,,,,,,,,,,,,,,,,,,,,,,,,,,,,,,,,,,,,,,
,,65207c22fa9502e61424d55e,2024-02-19_15h10.08.275,kallum_motion_pilot,2023.2.2,MacIntel,58.82352941,65207c22fa9502e61424d55e,65d2b6c8f2eece985d8e374c,65d2b857389bf2201360eb5e,0.0884,0.0884,0,129,129,152,1,fivesix,,,,,,,,,,,,,,,,,,,,,,,,,,,,,,,,,,,,,,,,,,,,,,,,,,,,,,,,,,,,,,,,,,,,,,,,,,,,,,,,,,,,,,,,,,,,,,,,,,,,,,,,,,,,,,,,,,,,,,,,,,,,,,,,,,,,,,,,,
,,65207c22fa9502e61424d55e,2024-02-19_15h10.08.275,kallum_motion_pilot,2023.2.2,MacIntel,58.82352941,65207c22fa9502e61424d55e,65d2b6c8f2eece985d8e374c,65d2b857389bf2201360eb5e,0.0885,0.0885,0,130,130,129,1,fiveseven,,,,,,,,,,,,,,,,,,,,,,,,,,,,,,,,,,,,,,,,,,,,,,,,,,,,,,,,,,,,,,,,,,,,,,,,,,,,,,,,,,,,,,,,,,,,,,,,,,,,,,,,,,,,,,,,,,,,,,,,,,,,,,,,,,,,,,,,,
,,65207c22fa9502e61424d55e,2024-02-19_15h10.08.275,kallum_motion_pilot,2023.2.2,MacIntel,58.82352941,65207c22fa9502e61424d55e,65d2b6c8f2eece985d8e374c,65d2b857389bf2201360eb5e,0.0887,0.0907,0,131,131,6,1,fourtwo,,,,,,,,,,,,,,,,,,,,,,,,,,,,,,,,,,,,,,,,,,,,,,,,,,,,,,,,,,,,,,,,,,,,,,,,,,,,,,,,,,,,,,,,,,,,,,,,,,,,,,,,,,,,,,,,,,,,,,,,,,,,,,,,,,,,,,,,,
,,65207c22fa9502e61424d55e,2024-02-19_15h10.08.275,kallum_motion_pilot,2023.2.2,MacIntel,58.82352941,65207c22fa9502e61424d55e,65d2b6c8f2eece985d8e374c,65d2b857389bf2201360eb5e,0.0914,0.0915,0,132,132,15,1,fourthree,,,,,,,,,,,,,,,,,,,,,,,,,,,,,,,,,,,,,,,,,,,,,,,,,,,,,,,,,,,,,,,,,,,,,,,,,,,,,,,,,,,,,,,,,,,,,,,,,,,,,,,,,,,,,,,,,,,,,,,,,,,,,,,,,,,,,,,,,
,,65207c22fa9502e61424d55e,2024-02-19_15h10.08.275,kallum_motion_pilot,2023.2.2,MacIntel,58.82352941,65207c22fa9502e61424d55e,65d2b6c8f2eece985d8e374c,65d2b857389bf2201360eb5e,0.0916,0.0917,0,133,133,39,1,fourthree,,,,,,,,,,,,,,,,,,,,,,,,,,,,,,,,,,,,,,,,,,,,,,,,,,,,,,,,,,,,,,,,,,,,,,,,,,,,,,,,,,,,,,,,,,,,,,,,,,,,,,,,,,,,,,,,,,,,,,,,,,,,,,,,,,,,,,,,,
,,65207c22fa9502e61424d55e,2024-02-19_15h10.08.275,kallum_motion_pilot,2023.2.2,MacIntel,58.82352941,65207c22fa9502e61424d55e,65d2b6c8f2eece985d8e374c,65d2b857389bf2201360eb5e,0.0918,0.0919,0,134,134,93,1,seveneight,,,,,,,,,,,,,,,,,,,,,,,,,,,,,,,,,,,,,,,,,,,,,,,,,,,,,,,,,,,,,,,,,,,,,,,,,,,,,,,,,,,,,,,,,,,,,,,,,,,,,,,,,,,,,,,,,,,,,,,,,,,,,,,,,,,,,,,,,
,,65207c22fa9502e61424d55e,2024-02-19_15h10.08.275,kallum_motion_pilot,2023.2.2,MacIntel,58.82352941,65207c22fa9502e61424d55e,65d2b6c8f2eece985d8e374c,65d2b857389bf2201360eb5e,0.0919,0.0919,0,135,135,136,1,fivesix,,,,,,,,,,,,,,,,,,,,,,,,,,,,,,,,,,,,,,,,,,,,,,,,,,,,,,,,,,,,,,,,,,,,,,,,,,,,,,,,,,,,,,,,,,,,,,,,,,,,,,,,,,,,,,,,,,,,,,,,,,,,,,,,,,,,,,,,,
,,65207c22fa9502e61424d55e,2024-02-19_15h10.08.275,kallum_motion_pilot,2023.2.2,MacIntel,58.82352941,65207c22fa9502e61424d55e,65d2b6c8f2eece985d8e374c,65d2b857389bf2201360eb5e,0.0921,0.0925,0,136,136,29,1,threefour,,,,,,,,,,,,,,,,,,,,,,,,,,,,,,,,,,,,,,,,,,,,,,,,,,,,,,,,,,,,,,,,,,,,,,,,,,,,,,,,,,,,,,,,,,,,,,,,,,,,,,,,,,,,,,,,,,,,,,,,,,,,,,,,,,,,,,,,,
,,65207c22fa9502e61424d55e,2024-02-19_15h10.08.275,kallum_motion_pilot,2023.2.2,MacIntel,58.82352941,65207c22fa9502e61424d55e,65d2b6c8f2eece985d8e374c,65d2b857389bf2201360eb5e,0.0927,0.0928,0,137,137,57,1,onethree,,,,,,,,,,,,,,,,,,,,,,,,,,,,,,,,,,,,,,,,,,,,,,,,,,,,,,,,,,,,,,,,,,,,,,,,,,,,,,,,,,,,,,,,,,,,,,,,,,,,,,,,,,,,,,,,,,,,,,,,,,,,,,,,,,,,,,,,,
,,65207c22fa9502e61424d55e,2024-02-19_15h10.08.275,kallum_motion_pilot,2023.2.2,MacIntel,58.82352941,65207c22fa9502e61424d55e,65d2b6c8f2eece985d8e374c,65d2b857389bf2201360eb5e,0.093,0.093,0,138,138,14,1,fourtwo,,,,,,,,,,,,,,,,,,,,,,,,,,,,,,,,,,,,,,,,,,,,,,,,,,,,,,,,,,,,,,,,,,,,,,,,,,,,,,,,,,,,,,,,,,,,,,,,,,,,,,,,,,,,,,,,,,,,,,,,,,,,,,,,,,,,,,,,,
,,65207c22fa9502e61424d55e,2024-02-19_15h10.08.275,kallum_motion_pilot,2023.2.2,MacIntel,58.82352941,65207c22fa9502e61424d55e,65d2b6c8f2eece985d8e374c,65d2b857389bf2201360eb5e,0.0931,0.0933,0,139,139,44,1,threeone,,,,,,,,,,,,,,,,,,,,,,,,,,,,,,,,,,,,,,,,,,,,,,,,,,,,,,,,,,,,,,,,,,,,,,,,,,,,,,,,,,,,,,,,,,,,,,,,,,,,,,,,,,,,,,,,,,,,,,,,,,,,,,,,,,,,,,,,,
,,65207c22fa9502e61424d55e,2024-02-19_15h10.08.275,kallum_motion_pilot,2023.2.2,MacIntel,58.82352941,65207c22fa9502e61424d55e,65d2b6c8f2eece985d8e374c,65d2b857389bf2201360eb5e,0.0933,0.0934,0,140,140,104,1,fivesix,,,,,,,,,,,,,,,,,,,,,,,,,,,,,,,,,,,,,,,,,,,,,,,,,,,,,,,,,,,,,,,,,,,,,,,,,,,,,,,,,,,,,,,,,,,,,,,,,,,,,,,,,,,,,,,,,,,,,,,,,,,,,,,,,,,,,,,,,
,,65207c22fa9502e61424d55e,2024-02-19_15h10.08.275,kallum_motion_pilot,2023.2.2,MacIntel,58.82352941,65207c22fa9502e61424d55e,65d2b6c8f2eece985d8e374c,65d2b857389bf2201360eb5e,0.0935,0.0935,0,141,141,125,1,seveneight,,,,,,,,,,,,,,,,,,,,,,,,,,,,,,,,,,,,,,,,,,,,,,,,,,,,,,,,,,,,,,,,,,,,,,,,,,,,,,,,,,,,,,,,,,,,,,,,,,,,,,,,,,,,,,,,,,,,,,,,,,,,,,,,,,,,,,,,,
,,65207c22fa9502e61424d55e,2024-02-19_15h10.08.275,kallum_motion_pilot,2023.2.2,MacIntel,58.82352941,65207c22fa9502e61424d55e,65d2b6c8f2eece985d8e374c,65d2b857389bf2201360eb5e,0.0936,0.0937,0,142,142,23,1,fourthree,,,,,,,,,,,,,,,,,,,,,,,,,,,,,,,,,,,,,,,,,,,,,,,,,,,,,,,,,,,,,,,,,,,,,,,,,,,,,,,,,,,,,,,,,,,,,,,,,,,,,,,,,,,,,,,,,,,,,,,,,,,,,,,,,,,,,,,,,
,,65207c22fa9502e61424d55e,2024-02-19_15h10.08.275,kallum_motion_pilot,2023.2.2,MacIntel,58.82352941,65207c22fa9502e61424d55e,65d2b6c8f2eece985d8e374c,65d2b857389bf2201360eb5e,0.0938,0.0939,0,143,143,132,1,sevenfive,,,,,,,,,,,,,,,,,,,,,,,,,,,,,,,,,,,,,,,,,,,,,,,,,,,,,,,,,,,,,,,,,,,,,,,,,,,,,,,,,,,,,,,,,,,,,,,,,,,,,,,,,,,,,,,,,,,,,,,,,,,,,,,,,,,,,,,,,
,,65207c22fa9502e61424d55e,2024-02-19_15h10.08.275,kallum_motion_pilot,2023.2.2,MacIntel,58.82352941,65207c22fa9502e61424d55e,65d2b6c8f2eece985d8e374c,65d2b857389bf2201360eb5e,0.094,0.0941,0,144,144,86,1,eightsix,,,,,,,,,,,,,,,,,,,,,,,,,,,,,,,,,,,,,,,,,,,,,,,,,,,,,,,,,,,,,,,,,,,,,,,,,,,,,,,,,,,,,,,,,,,,,,,,,,,,,,,,,,,,,,,,,,,,,,,,,,,,,,,,,,,,,,,,,
,,65207c22fa9502e61424d55e,2024-02-19_15h10.08.275,kallum_motion_pilot,2023.2.2,MacIntel,58.82352941,65207c22fa9502e61424d55e,65d2b6c8f2eece985d8e374c,65d2b857389bf2201360eb5e,0.0941,0.0942,0,145,145,20,1,threeone,,,,,,,,,,,,,,,,,,,,,,,,,,,,,,,,,,,,,,,,,,,,,,,,,,,,,,,,,,,,,,,,,,,,,,,,,,,,,,,,,,,,,,,,,,,,,,,,,,,,,,,,,,,,,,,,,,,,,,,,,,,,,,,,,,,,,,,,,
,,65207c22fa9502e61424d55e,2024-02-19_15h10.08.275,kallum_motion_pilot,2023.2.2,MacIntel,58.82352941,65207c22fa9502e61424d55e,65d2b6c8f2eece985d8e374c,65d2b857389bf2201360eb5e,0.0943,0.0944,0,146,146,74,1,twoone,,,,,,,,,,,,,,,,,,,,,,,,,,,,,,,,,,,,,,,,,,,,,,,,,,,,,,,,,,,,,,,,,,,,,,,,,,,,,,,,,,,,,,,,,,,,,,,,,,,,,,,,,,,,,,,,,,,,,,,,,,,,,,,,,,,,,,,,,
,,65207c22fa9502e61424d55e,2024-02-19_15h10.08.275,kallum_motion_pilot,2023.2.2,MacIntel,58.82352941,65207c22fa9502e61424d55e,65d2b6c8f2eece985d8e374c,65d2b857389bf2201360eb5e,0.0945,0.0946,0,147,147,88,1,fivesix,,,,,,,,,,,,,,,,,,,,,,,,,,,,,,,,,,,,,,,,,,,,,,,,,,,,,,,,,,,,,,,,,,,,,,,,,,,,,,,,,,,,,,,,,,,,,,,,,,,,,,,,,,,,,,,,,,,,,,,,,,,,,,,,,,,,,,,,,
,,65207c22fa9502e61424d55e,2024-02-19_15h10.08.275,kallum_motion_pilot,2023.2.2,MacIntel,58.82352941,65207c22fa9502e61424d55e,65d2b6c8f2eece985d8e374c,65d2b857389bf2201360eb5e,0.0946,0.0946,0,148,148,9,1,onethree,,,,,,,,,,,,,,,,,,,,,,,,,,,,,,,,,,,,,,,,,,,,,,,,,,,,,,,,,,,,,,,,,,,,,,,,,,,,,,,,,,,,,,,,,,,,,,,,,,,,,,,,,,,,,,,,,,,,,,,,,,,,,,,,,,,,,,,,,
,,65207c22fa9502e61424d55e,2024-02-19_15h10.08.275,kallum_motion_pilot,2023.2.2,MacIntel,58.82352941,65207c22fa9502e61424d55e,65d2b6c8f2eece985d8e374c,65d2b857389bf2201360eb5e,0.0948,0.0948,0,149,149,59,1,twofour,,,,,,,,,,,,,,,,,,,,,,,,,,,,,,,,,,,,,,,,,,,,,,,,,,,,,,,,,,,,,,,,,,,,,,,,,,,,,,,,,,,,,,,,,,,,,,,,,,,,,,,,,,,,,,,,,,,,,,,,,,,,,,,,,,,,,,,,,
,,65207c22fa9502e61424d55e,2024-02-19_15h10.08.275,kallum_motion_pilot,2023.2.2,MacIntel,58.82352941,65207c22fa9502e61424d55e,65d2b6c8f2eece985d8e374c,65d2b857389bf2201360eb5e,0.0955,0.0956,0,150,150,36,1,threeone,,,,,,,,,,,,,,,,,,,,,,,,,,,,,,,,,,,,,,,,,,,,,,,,,,,,,,,,,,,,,,,,,,,,,,,,,,,,,,,,,,,,,,,,,,,,,,,,,,,,,,,,,,,,,,,,,,,,,,,,,,,,,,,,,,,,,,,,,
,,65207c22fa9502e61424d55e,2024-02-19_15h10.08.275,kallum_motion_pilot,2023.2.2,MacIntel,58.82352941,65207c22fa9502e61424d55e,65d2b6c8f2eece985d8e374c,65d2b857389bf2201360eb5e,0.0957,0.0958,0,151,151,159,1,eightseven,,,,,,,,,,,,,,,,,,,,,,,,,,,,,,,,,,,,,,,,,,,,,,,,,,,,,,,,,,,,,,,,,,,,,,,,,,,,,,,,,,,,,,,,,,,,,,,,,,,,,,,,,,,,,,,,,,,,,,,,,,,,,,,,,,,,,,,,,
,,65207c22fa9502e61424d55e,2024-02-19_15h10.08.275,kallum_motion_pilot,2023.2.2,MacIntel,58.82352941,65207c22fa9502e61424d55e,65d2b6c8f2eece985d8e374c,65d2b857389bf2201360eb5e,0.096,0.0961,0,152,152,133,1,seveneight,,,,,,,,,,,,,,,,,,,,,,,,,,,,,,,,,,,,,,,,,,,,,,,,,,,,,,,,,,,,,,,,,,,,,,,,,,,,,,,,,,,,,,,,,,,,,,,,,,,,,,,,,,,,,,,,,,,,,,,,,,,,,,,,,,,,,,,,,
,,65207c22fa9502e61424d55e,2024-02-19_15h10.08.275,kallum_motion_pilot,2023.2.2,MacIntel,58.82352941,65207c22fa9502e61424d55e,65d2b6c8f2eece985d8e374c,65d2b857389bf2201360eb5e,0.0964,0.0965,0,153,153,76,1,threeone,,,,,,,,,,,,,,,,,,,,,,,,,,,,,,,,,,,,,,,,,,,,,,,,,,,,,,,,,,,,,,,,,,,,,,,,,,,,,,,,,,,,,,,,,,,,,,,,,,,,,,,,,,,,,,,,,,,,,,,,,,,,,,,,,,,,,,,,,
,,65207c22fa9502e61424d55e,2024-02-19_15h10.08.275,kallum_motion_pilot,2023.2.2,MacIntel,58.82352941,65207c22fa9502e61424d55e,65d2b6c8f2eece985d8e374c,65d2b857389bf2201360eb5e,0.0966,0.0967,0,154,154,70,1,fourtwo,,,,,,,,,,,,,,,,,,,,,,,,,,,,,,,,,,,,,,,,,,,,,,,,,,,,,,,,,,,,,,,,,,,,,,,,,,,,,,,,,,,,,,,,,,,,,,,,,,,,,,,,,,,,,,,,,,,,,,,,,,,,,,,,,,,,,,,,,
,,65207c22fa9502e61424d55e,2024-02-19_15h10.08.275,kallum_motion_pilot,2023.2.2,MacIntel,58.82352941,65207c22fa9502e61424d55e,65d2b6c8f2eece985d8e374c,65d2b857389bf2201360eb5e,0.0968,0.0969,0,155,155,139,1,sixeight,,,,,,,,,,,,,,,,,,,,,,,,,,,,,,,,,,,,,,,,,,,,,,,,,,,,,,,,,,,,,,,,,,,,,,,,,,,,,,,,,,,,,,,,,,,,,,,,,,,,,,,,,,,,,,,,,,,,,,,,,,,,,,,,,,,,,,,,,
,,65207c22fa9502e61424d55e,2024-02-19_15h10.08.275,kallum_motion_pilot,2023.2.2,MacIntel,58.82352941,65207c22fa9502e61424d55e,65d2b6c8f2eece985d8e374c,65d2b857389bf2201360eb5e,0.097,0.097,0,156,156,78,1,fourtwo,,,,,,,,,,,,,,,,,,,,,,,,,,,,,,,,,,,,,,,,,,,,,,,,,,,,,,,,,,,,,,,,,,,,,,,,,,,,,,,,,,,,,,,,,,,,,,,,,,,,,,,,,,,,,,,,,,,,,,,,,,,,,,,,,,,,,,,,,
,,65207c22fa9502e61424d55e,2024-02-19_15h10.08.275,kallum_motion_pilot,2023.2.2,MacIntel,58.82352941,65207c22fa9502e61424d55e,65d2b6c8f2eece985d8e374c,65d2b857389bf2201360eb5e,0.0972,0.0973,0,157,157,161,1,fiveseven,,,,,,,,,,,,,,,,,,,,,,,,,,,,,,,,,,,,,,,,,,,,,,,,,,,,,,,,,,,,,,,,,,,,,,,,,,,,,,,,,,,,,,,,,,,,,,,,,,,,,,,,,,,,,,,,,,,,,,,,,,,,,,,,,,,,,,,,,
,,65207c22fa9502e61424d55e,2024-02-19_15h10.08.275,kallum_motion_pilot,2023.2.2,MacIntel,58.82352941,65207c22fa9502e61424d55e,65d2b6c8f2eece985d8e374c,65d2b857389bf2201360eb5e,0.0973,0.0973,0,158,158,118,1,eightsix,,,,,,,,,,,,,,,,,,,,,,,,,,,,,,,,,,,,,,,,,,,,,,,,,,,,,,,,,,,,,,,,,,,,,,,,,,,,,,,,,,,,,,,,,,,,,,,,,,,,,,,,,,,,,,,,,,,,,,,,,,,,,,,,,,,,,,,,,
,,65207c22fa9502e61424d55e,2024-02-19_15h10.08.275,kallum_motion_pilot,2023.2.2,MacIntel,58.82352941,65207c22fa9502e61424d55e,65d2b6c8f2eece985d8e374c,65d2b857389bf2201360eb5e,0.0975,0.0976,0,159,159,91,1,sixeight,,,,,,,,,,,,,,,,,,,,,,,,,,,,,,,,,,,,,,,,,,,,,,,,,,,,,,,,,,,,,,,,,,,,,,,,,,,,,,,,,,,,,,,,,,,,,,,,,,,,,,,,,,,,,,,,,,,,,,,,,,,,,,,,,,,,,,,,,
,,65207c22fa9502e61424d55e,2024-02-19_15h10.08.275,kallum_motion_pilot,2023.2.2,MacIntel,58.82352941,65207c22fa9502e61424d55e,65d2b6c8f2eece985d8e374c,65d2b857389bf2201360eb5e,0.0976,0.0977,0,160,160,122,1,sixfive,,,,,,,,,,,,,,,,,,,,,,,,,,,,,,,,,,,,,,,,,,,,,,,,,,,,,,,,,,,,,,,,,,,,,,,,,,,,,,,,,,,,,,,,,,,,,,,,,,,,,,,,,,,,,,,,,,,,,,,,,,,,,,,,,,,,,,,,,
,,65207c22fa9502e61424d55e,2024-02-19_15h10.08.275,kallum_motion_pilot,2023.2.2,MacIntel,58.82352941,65207c22fa9502e61424d55e,65d2b6c8f2eece985d8e374c,65d2b857389bf2201360eb5e,0.0978,0.0985,0,161,161,157,1,seveneight,,,,,,,,,,,,,,,,,,,,,,,,,,,,,,,,,,,,,,,,,,,,,,,,,,,,,,,,,,,,,,,,,,,,,,,,,,,,,,,,,,,,,,,,,,,,,,,,,,,,,,,,,,,,,,,,,,,,,,,,,,,,,,,,,,,,,,,,,
,,65207c22fa9502e61424d55e,2024-02-19_15h10.08.275,kallum_motion_pilot,2023.2.2,MacIntel,58.82352941,65207c22fa9502e61424d55e,65d2b6c8f2eece985d8e374c,65d2b857389bf2201360eb5e,0.0987,0.0988,1,0,162,156,1,sevenfive,,,,,,,,,,,,,,,,,,,,,,,,,,,,,,,,,,,,,,,,,,,,,,,,,,,,,,,,,,,,,,,,,,,,,,,,,,,,,,,,,,,,,,,,,,,,,,,,,,,,,,,,,,,,,,,,,,,,,,,,,,,,,,,,,,,,,,,,,
,,65207c22fa9502e61424d55e,2024-02-19_15h10.08.275,kallum_motion_pilot,2023.2.2,MacIntel,58.82352941,65207c22fa9502e61424d55e,65d2b6c8f2eece985d8e374c,65d2b857389bf2201360eb5e,0.099,0.0991,1,1,163,89,1,fiveseven,,,,,,,,,,,,,,,,,,,,,,,,,,,,,,,,,,,,,,,,,,,,,,,,,,,,,,,,,,,,,,,,,,,,,,,,,,,,,,,,,,,,,,,,,,,,,,,,,,,,,,,,,,,,,,,,,,,,,,,,,,,,,,,,,,,,,,,,,
,,65207c22fa9502e61424d55e,2024-02-19_15h10.08.275,kallum_motion_pilot,2023.2.2,MacIntel,58.82352941,65207c22fa9502e61424d55e,65d2b6c8f2eece985d8e374c,65d2b857389bf2201360eb5e,0.0992,0.0993,1,2,164,25,1,onethree,,,,,,,,,,,,,,,,,,,,,,,,,,,,,,,,,,,,,,,,,,,,,,,,,,,,,,,,,,,,,,,,,,,,,,,,,,,,,,,,,,,,,,,,,,,,,,,,,,,,,,,,,,,,,,,,,,,,,,,,,,,,,,,,,,,,,,,,,
,,65207c22fa9502e61424d55e,2024-02-19_15h10.08.275,kallum_motion_pilot,2023.2.2,MacIntel,58.82352941,65207c22fa9502e61424d55e,65d2b6c8f2eece985d8e374c,65d2b857389bf2201360eb5e,0.0995,0.0996,1,3,165,35,1,twofour,,,,,,,,,,,,,,,,,,,,,,,,,,,,,,,,,,,,,,,,,,,,,,,,,,,,,,,,,,,,,,,,,,,,,,,,,,,,,,,,,,,,,,,,,,,,,,,,,,,,,,,,,,,,,,,,,,,,,,,,,,,,,,,,,,,,,,,,,
,,65207c22fa9502e61424d55e,2024-02-19_15h10.08.275,kallum_motion_pilot,2023.2.2,MacIntel,58.82352941,65207c22fa9502e61424d55e,65d2b6c8f2eece985d8e374c,65d2b857389bf2201360eb5e,0.0997,0.0998,1,4,166,63,1,fourthree,,,,,,,,,,,,,,,,,,,,,,,,,,,,,,,,,,,,,,,,,,,,,,,,,,,,,,,,,,,,,,,,,,,,,,,,,,,,,,,,,,,,,,,,,,,,,,,,,,,,,,,,,,,,,,,,,,,,,,,,,,,,,,,,,,,,,,,,,
,,65207c22fa9502e61424d55e,2024-02-19_15h10.08.275,kallum_motion_pilot,2023.2.2,MacIntel,58.82352941,65207c22fa9502e61424d55e,65d2b6c8f2eece985d8e374c,65d2b857389bf2201360eb5e,0.0999,0.0999,1,5,167,18,1,twoone,,,,,,,,,,,,,,,,,,,,,,,,,,,,,,,,,,,,,,,,,,,,,,,,,,,,,,,,,,,,,,,,,,,,,,,,,,,,,,,,,,,,,,,,,,,,,,,,,,,,,,,,,,,,,,,,,,,,,,,,,,,,,,,,,,,,,,,,,
,,65207c22fa9502e61424d55e,2024-02-19_15h10.08.275,kallum_motion_pilot,2023.2.2,MacIntel,58.82352941,65207c22fa9502e61424d55e,65d2b6c8f2eece985d8e374c,65d2b857389bf2201360eb5e,0.1001,0.1002,1,6,168,117,1,seveneight,,,,,,,,,,,,,,,,,,,,,,,,,,,,,,,,,,,,,,,,,,,,,,,,,,,,,,,,,,,,,,,,,,,,,,,,,,,,,,,,,,,,,,,,,,,,,,,,,,,,,,,,,,,,,,,,,,,,,,,,,,,,,,,,,,,,,,,,,
,,65207c22fa9502e61424d55e,2024-02-19_15h10.08.275,kallum_motion_pilot,2023.2.2,MacIntel,58.82352941,65207c22fa9502e61424d55e,65d2b6c8f2eece985d8e374c,65d2b857389bf2201360eb5e,0.1002,0.1002,1,7,169,27,1,twofour,,,,,,,,,,,,,,,,,,,,,,,,,,,,,,,,,,,,,,,,,,,,,,,,,,,,,,,,,,,,,,,,,,,,,,,,,,,,,,,,,,,,,,,,,,,,,,,,,,,,,,,,,,,,,,,,,,,,,,,,,,,,,,,,,,,,,,,,,
,,65207c22fa9502e61424d55e,2024-02-19_15h10.08.275,kallum_motion_pilot,2023.2.2,MacIntel,58.82352941,65207c22fa9502e61424d55e,65d2b6c8f2eece985d8e374c,65d2b857389bf2201360eb5e,0.1004,0.1005,1,8,170,26,1,twoone,,,,,,,,,,,,,,,,,,,,,,,,,,,,,,,,,,,,,,,,,,,,,,,,,,,,,,,,,,,,,,,,,,,,,,,,,,,,,,,,,,,,,,,,,,,,,,,,,,,,,,,,,,,,,,,,,,,,,,,,,,,,,,,,,,,,,,,,,
,,65207c22fa9502e61424d55e,2024-02-19_15h10.08.275,kallum_motion_pilot,2023.2.2,MacIntel,58.82352941,65207c22fa9502e61424d55e,65d2b6c8f2eece985d8e374c,65d2b857389bf2201360eb5e,0.1005,0.1006,1,9,171,135,1,eightseven,,,,,,,,,,,,,,,,,,,,,,,,,,,,,,,,,,,,,,,,,,,,,,,,,,,,,,,,,,,,,,,,,,,,,,,,,,,,,,,,,,,,,,,,,,,,,,,,,,,,,,,,,,,,,,,,,,,,,,,,,,,,,,,,,,,,,,,,,
,,65207c22fa9502e61424d55e,2024-02-19_15h10.08.275,kallum_motion_pilot,2023.2.2,MacIntel,58.82352941,65207c22fa9502e61424d55e,65d2b6c8f2eece985d8e374c,65d2b857389bf2201360eb5e,0.1007,0.1007,1,10,172,32,1,onetwo,,,,,,,,,,,,,,,,,,,,,,,,,,,,,,,,,,,,,,,,,,,,,,,,,,,,,,,,,,,,,,,,,,,,,,,,,,,,,,,,,,,,,,,,,,,,,,,,,,,,,,,,,,,,,,,,,,,,,,,,,,,,,,,,,,,,,,,,,
,,65207c22fa9502e61424d55e,2024-02-19_15h10.08.275,kallum_motion_pilot,2023.2.2,MacIntel,58.82352941,65207c22fa9502e61424d55e,65d2b6c8f2eece985d8e374c,65d2b857389bf2201360eb5e,0.1008,0.101,1,11,173,126,1,eightsix,,,,,,,,,,,,,,,,,,,,,,,,,,,,,,,,,,,,,,,,,,,,,,,,,,,,,,,,,,,,,,,,,,,,,,,,,,,,,,,,,,,,,,,,,,,,,,,,,,,,,,,,,,,,,,,,,,,,,,,,,,,,,,,,,,,,,,,,,
,,65207c22fa9502e61424d55e,2024-02-19_15h10.08.275,kallum_motion_pilot,2023.2.2,MacIntel,58.82352941,65207c22fa9502e61424d55e,65d2b6c8f2eece985d8e374c,65d2b857389bf2201360eb5e,0.101,0.1011,1,12,174,83,1,sixeight,,,,,,,,,,,,,,,,,,,,,,,,,,,,,,,,,,,,,,,,,,,,,,,,,,,,,,,,,,,,,,,,,,,,,,,,,,,,,,,,,,,,,,,,,,,,,,,,,,,,,,,,,,,,,,,,,,,,,,,,,,,,,,,,,,,,,,,,,
,,65207c22fa9502e61424d55e,2024-02-19_15h10.08.275,kallum_motion_pilot,2023.2.2,MacIntel,58.82352941,65207c22fa9502e61424d55e,65d2b6c8f2eece985d8e374c,65d2b857389bf2201360eb5e,0.1012,0.1013,1,13,175,37,1,threefour,,,,,,,,,,,,,,,,,,,,,,,,,,,,,,,,,,,,,,,,,,,,,,,,,,,,,,,,,,,,,,,,,,,,,,,,,,,,,,,,,,,,,,,,,,,,,,,,,,,,,,,,,,,,,,,,,,,,,,,,,,,,,,,,,,,,,,,,,
,,65207c22fa9502e61424d55e,2024-02-19_15h10.08.275,kallum_motion_pilot,2023.2.2,MacIntel,58.82352941,65207c22fa9502e61424d55e,65d2b6c8f2eece985d8e374c,65d2b857389bf2201360eb5e,0.1014,0.1015,1,14,176,39,1,fourthree,,,,,,,,,,,,,,,,,,,,,,,,,,,,,,,,,,,,,,,,,,,,,,,,,,,,,,,,,,,,,,,,,,,,,,,,,,,,,,,,,,,,,,,,,,,,,,,,,,,,,,,,,,,,,,,,,,,,,,,,,,,,,,,,,,,,,,,,,
,,65207c22fa9502e61424d55e,2024-02-19_15h10.08.275,kallum_motion_pilot,2023.2.2,MacIntel,58.82352941,65207c22fa9502e61424d55e,65d2b6c8f2eece985d8e374c,65d2b857389bf2201360eb5e,0.1016,0.1016,1,15,177,52,1,threeone,,,,,,,,,,,,,,,,,,,,,,,,,,,,,,,,,,,,,,,,,,,,,,,,,,,,,,,,,,,,,,,,,,,,,,,,,,,,,,,,,,,,,,,,,,,,,,,,,,,,,,,,,,,,,,,,,,,,,,,,,,,,,,,,,,,,,,,,,
,,65207c22fa9502e61424d55e,2024-02-19_15h10.08.275,kallum_motion_pilot,2023.2.2,MacIntel,58.82352941,65207c22fa9502e61424d55e,65d2b6c8f2eece985d8e374c,65d2b857389bf2201360eb5e,0.1017,0.1018,1,16,178,130,1,sixfive,,,,,,,,,,,,,,,,,,,,,,,,,,,,,,,,,,,,,,,,,,,,,,,,,,,,,,,,,,,,,,,,,,,,,,,,,,,,,,,,,,,,,,,,,,,,,,,,,,,,,,,,,,,,,,,,,,,,,,,,,,,,,,,,,,,,,,,,,
,,65207c22fa9502e61424d55e,2024-02-19_15h10.08.275,kallum_motion_pilot,2023.2.2,MacIntel,58.82352941,65207c22fa9502e61424d55e,65d2b6c8f2eece985d8e374c,65d2b857389bf2201360eb5e,0.1019,0.102,1,17,179,62,1,fourtwo,,,,,,,,,,,,,,,,,,,,,,,,,,,,,,,,,,,,,,,,,,,,,,,,,,,,,,,,,,,,,,,,,,,,,,,,,,,,,,,,,,,,,,,,,,,,,,,,,,,,,,,,,,,,,,,,,,,,,,,,,,,,,,,,,,,,,,,,,
,,65207c22fa9502e61424d55e,2024-02-19_15h10.08.275,kallum_motion_pilot,2023.2.2,MacIntel,58.82352941,65207c22fa9502e61424d55e,65d2b6c8f2eece985d8e374c,65d2b857389bf2201360eb5e,0.102,0.1022,1,18,180,14,1,fourtwo,,,,,,,,,,,,,,,,,,,,,,,,,,,,,,,,,,,,,,,,,,,,,,,,,,,,,,,,,,,,,,,,,,,,,,,,,,,,,,,,,,,,,,,,,,,,,,,,,,,,,,,,,,,,,,,,,,,,,,,,,,,,,,,,,,,,,,,,,
,,65207c22fa9502e61424d55e,2024-02-19_15h10.08.275,kallum_motion_pilot,2023.2.2,MacIntel,58.82352941,65207c22fa9502e61424d55e,65d2b6c8f2eece985d8e374c,65d2b857389bf2201360eb5e,0.1022,0.1023,1,19,181,143,1,eightseven,,,,,,,,,,,,,,,,,,,,,,,,,,,,,,,,,,,,,,,,,,,,,,,,,,,,,,,,,,,,,,,,,,,,,,,,,,,,,,,,,,,,,,,,,,,,,,,,,,,,,,,,,,,,,,,,,,,,,,,,,,,,,,,,,,,,,,,,,
,,65207c22fa9502e61424d55e,2024-02-19_15h10.08.275,kallum_motion_pilot,2023.2.2,MacIntel,58.82352941,65207c22fa9502e61424d55e,65d2b6c8f2eece985d8e374c,65d2b857389bf2201360eb5e,0.1024,0.1024,1,20,182,47,1,fourthree,,,,,,,,,,,,,,,,,,,,,,,,,,,,,,,,,,,,,,,,,,,,,,,,,,,,,,,,,,,,,,,,,,,,,,,,,,,,,,,,,,,,,,,,,,,,,,,,,,,,,,,,,,,,,,,,,,,,,,,,,,,,,,,,,,,,,,,,,
,,65207c22fa9502e61424d55e,2024-02-19_15h10.08.275,kallum_motion_pilot,2023.2.2,MacIntel,58.82352941,65207c22fa9502e61424d55e,65d2b6c8f2eece985d8e374c,65d2b857389bf2201360eb5e,0.1026,0.1027,1,21,183,127,1,eightseven,,,,,,,,,,,,,,,,,,,,,,,,,,,,,,,,,,,,,,,,,,,,,,,,,,,,,,,,,,,,,,,,,,,,,,,,,,,,,,,,,,,,,,,,,,,,,,,,,,,,,,,,,,,,,,,,,,,,,,,,,,,,,,,,,,,,,,,,,
,,65207c22fa9502e61424d55e,2024-02-19_15h10.08.275,kallum_motion_pilot,2023.2.2,MacIntel,58.82352941,65207c22fa9502e61424d55e,65d2b6c8f2eece985d8e374c,65d2b857389bf2201360eb5e,0.1028,0.1028,1,22,184,92,1,sevenfive,,,,,,,,,,,,,,,,,,,,,,,,,,,,,,,,,,,,,,,,,,,,,,,,,,,,,,,,,,,,,,,,,,,,,,,,,,,,,,,,,,,,,,,,,,,,,,,,,,,,,,,,,,,,,,,,,,,,,,,,,,,,,,,,,,,,,,,,,
,,65207c22fa9502e61424d55e,2024-02-19_15h10.08.275,kallum_motion_pilot,2023.2.2,MacIntel,58.82352941,65207c22fa9502e61424d55e,65d2b6c8f2eece985d8e374c,65d2b857389bf2201360eb5e,0.103,0.1031,1,23,185,15,1,fourthree,,,,,,,,,,,,,,,,,,,,,,,,,,,,,,,,,,,,,,,,,,,,,,,,,,,,,,,,,,,,,,,,,,,,,,,,,,,,,,,,,,,,,,,,,,,,,,,,,,,,,,,,,,,,,,,,,,,,,,,,,,,,,,,,,,,,,,,,,
,,65207c22fa9502e61424d55e,2024-02-19_15h10.08.275,kallum_motion_pilot,2023.2.2,MacIntel,58.82352941,65207c22fa9502e61424d55e,65d2b6c8f2eece985d8e374c,65d2b857389bf2201360eb5e,0.1039,0.104,1,24,186,77,1,threefour,,,,,,,,,,,,,,,,,,,,,,,,,,,,,,,,,,,,,,,,,,,,,,,,,,,,,,,,,,,,,,,,,,,,,,,,,,,,,,,,,,,,,,,,,,,,,,,,,,,,,,,,,,,,,,,,,,,,,,,,,,,,,,,,,,,,,,,,,
,,65207c22fa9502e61424d55e,2024-02-19_15h10.08.275,kallum_motion_pilot,2023.2.2,MacIntel,58.82352941,65207c22fa9502e61424d55e,65d2b6c8f2eece985d8e374c,65d2b857389bf2201360eb5e,0.1042,0.1043,1,25,187,55,1,fourthree,,,,,,,,,,,,,,,,,,,,,,,,,,,,,,,,,,,,,,,,,,,,,,,,,,,,,,,,,,,,,,,,,,,,,,,,,,,,,,,,,,,,,,,,,,,,,,,,,,,,,,,,,,,,,,,,,,,,,,,,,,,,,,,,,,,,,,,,,
,,65207c22fa9502e61424d55e,2024-02-19_15h10.08.275,kallum_motion_pilot,2023.2.2,MacIntel,58.82352941,65207c22fa9502e61424d55e,65d2b6c8f2eece985d8e374c,65d2b857389bf2201360eb5e,0.1043,0.1045,1,26,188,136,1,fivesix,,,,,,,,,,,,,,,,,,,,,,,,,,,,,,,,,,,,,,,,,,,,,,,,,,,,,,,,,,,,,,,,,,,,,,,,,,,,,,,,,,,,,,,,,,,,,,,,,,,,,,,,,,,,,,,,,,,,,,,,,,,,,,,,,,,,,,,,,
,,65207c22fa9502e61424d55e,2024-02-19_15h10.08.275,kallum_motion_pilot,2023.2.2,MacIntel,58.82352941,65207c22fa9502e61424d55e,65d2b6c8f2eece985d8e374c,65d2b857389bf2201360eb5e,0.1046,0.1046,1,27,189,112,1,fivesix,,,,,,,,,,,,,,,,,,,,,,,,,,,,,,,,,,,,,,,,,,,,,,,,,,,,,,,,,,,,,,,,,,,,,,,,,,,,,,,,,,,,,,,,,,,,,,,,,,,,,,,,,,,,,,,,,,,,,,,,,,,,,,,,,,,,,,,,,
,,65207c22fa9502e61424d55e,2024-02-19_15h10.08.275,kallum_motion_pilot,2023.2.2,MacIntel,58.82352941,65207c22fa9502e61424d55e,65d2b6c8f2eece985d8e374c,65d2b857389bf2201360eb5e,0.1047,0.1048,1,28,190,64,1,onetwo,,,,,,,,,,,,,,,,,,,,,,,,,,,,,,,,,,,,,,,,,,,,,,,,,,,,,,,,,,,,,,,,,,,,,,,,,,,,,,,,,,,,,,,,,,,,,,,,,,,,,,,,,,,,,,,,,,,,,,,,,,,,,,,,,,,,,,,,,
,,65207c22fa9502e61424d55e,2024-02-19_15h10.08.275,kallum_motion_pilot,2023.2.2,MacIntel,58.82352941,65207c22fa9502e61424d55e,65d2b6c8f2eece985d8e374c,65d2b857389bf2201360eb5e,0.1049,0.105,1,29,191,118,1,eightsix,,,,,,,,,,,,,,,,,,,,,,,,,,,,,,,,,,,,,,,,,,,,,,,,,,,,,,,,,,,,,,,,,,,,,,,,,,,,,,,,,,,,,,,,,,,,,,,,,,,,,,,,,,,,,,,,,,,,,,,,,,,,,,,,,,,,,,,,,
,,65207c22fa9502e61424d55e,2024-02-19_15h10.08.275,kallum_motion_pilot,2023.2.2,MacIntel,58.82352941,65207c22fa9502e61424d55e,65d2b6c8f2eece985d8e374c,65d2b857389bf2201360eb5e,0.1051,0.1052,1,30,192,151,1,eightseven,,,,,,,,,,,,,,,,,,,,,,,,,,,,,,,,,,,,,,,,,,,,,,,,,,,,,,,,,,,,,,,,,,,,,,,,,,,,,,,,,,,,,,,,,,,,,,,,,,,,,,,,,,,,,,,,,,,,,,,,,,,,,,,,,,,,,,,,,
,,65207c22fa9502e61424d55e,2024-02-19_15h10.08.275,kallum_motion_pilot,2023.2.2,MacIntel,58.82352941,65207c22fa9502e61424d55e,65d2b6c8f2eece985d8e374c,65d2b857389bf2201360eb5e,0.1053,0.1059,1,31,193,161,1,fiveseven,,,,,,,,,,,,,,,,,,,,,,,,,,,,,,,,,,,,,,,,,,,,,,,,,,,,,,,,,,,,,,,,,,,,,,,,,,,,,,,,,,,,,,,,,,,,,,,,,,,,,,,,,,,,,,,,,,,,,,,,,,,,,,,,,,,,,,,,,
,,65207c22fa9502e61424d55e,2024-02-19_15h10.08.275,kallum_motion_pilot,2023.2.2,MacIntel,58.82352941,65207c22fa9502e61424d55e,65d2b6c8f2eece985d8e374c,65d2b857389bf2201360eb5e,0.1062,0.1063,1,32,194,81,1,fiveseven,,,,,,,,,,,,,,,,,,,,,,,,,,,,,,,,,,,,,,,,,,,,,,,,,,,,,,,,,,,,,,,,,,,,,,,,,,,,,,,,,,,,,,,,,,,,,,,,,,,,,,,,,,,,,,,,,,,,,,,,,,,,,,,,,,,,,,,,,
,,65207c22fa9502e61424d55e,2024-02-19_15h10.08.275,kallum_motion_pilot,2023.2.2,MacIntel,58.82352941,65207c22fa9502e61424d55e,65d2b6c8f2eece985d8e374c,65d2b857389bf2201360eb5e,0.1064,0.1065,1,33,195,44,1,threeone,,,,,,,,,,,,,,,,,,,,,,,,,,,,,,,,,,,,,,,,,,,,,,,,,,,,,,,,,,,,,,,,,,,,,,,,,,,,,,,,,,,,,,,,,,,,,,,,,,,,,,,,,,,,,,,,,,,,,,,,,,,,,,,,,,,,,,,,,
,,65207c22fa9502e61424d55e,2024-02-19_15h10.08.275,kallum_motion_pilot,2023.2.2,MacIntel,58.82352941,65207c22fa9502e61424d55e,65d2b6c8f2eece985d8e374c,65d2b857389bf2201360eb5e,0.1066,0.1067,1,34,196,114,1,sixfive,,,,,,,,,,,,,,,,,,,,,,,,,,,,,,,,,,,,,,,,,,,,,,,,,,,,,,,,,,,,,,,,,,,,,,,,,,,,,,,,,,,,,,,,,,,,,,,,,,,,,,,,,,,,,,,,,,,,,,,,,,,,,,,,,,,,,,,,,
,,65207c22fa9502e61424d55e,2024-02-19_15h10.08.275,kallum_motion_pilot,2023.2.2,MacIntel,58.82352941,65207c22fa9502e61424d55e,65d2b6c8f2eece985d8e374c,65d2b857389bf2201360eb5e,0.1068,0.1069,1,35,197,22,1,fourtwo,,,,,,,,,,,,,,,,,,,,,,,,,,,,,,,,,,,,,,,,,,,,,,,,,,,,,,,,,,,,,,,,,,,,,,,,,,,,,,,,,,,,,,,,,,,,,,,,,,,,,,,,,,,,,,,,,,,,,,,,,,,,,,,,,,,,,,,,,
,,65207c22fa9502e61424d55e,2024-02-19_15h10.08.275,kallum_motion_pilot,2023.2.2,MacIntel,58.82352941,65207c22fa9502e61424d55e,65d2b6c8f2eece985d8e374c,65d2b857389bf2201360eb5e,0.1071,0.1071,1,36,198,70,1,fourtwo,,,,,,,,,,,,,,,,,,,,,,,,,,,,,,,,,,,,,,,,,,,,,,,,,,,,,,,,,,,,,,,,,,,,,,,,,,,,,,,,,,,,,,,,,,,,,,,,,,,,,,,,,,,,,,,,,,,,,,,,,,,,,,,,,,,,,,,,,
,,65207c22fa9502e61424d55e,2024-02-19_15h10.08.275,kallum_motion_pilot,2023.2.2,MacIntel,58.82352941,65207c22fa9502e61424d55e,65d2b6c8f2eece985d8e374c,65d2b857389bf2201360eb5e,0.1072,0.1073,1,37,199,113,1,fiveseven,,,,,,,,,,,,,,,,,,,,,,,,,,,,,,,,,,,,,,,,,,,,,,,,,,,,,,,,,,,,,,,,,,,,,,,,,,,,,,,,,,,,,,,,,,,,,,,,,,,,,,,,,,,,,,,,,,,,,,,,,,,,,,,,,,,,,,,,,
,,65207c22fa9502e61424d55e,2024-02-19_15h10.08.275,kallum_motion_pilot,2023.2.2,MacIntel,58.82352941,65207c22fa9502e61424d55e,65d2b6c8f2eece985d8e374c,65d2b857389bf2201360eb5e,0.1074,0.1075,1,38,200,49,1,onethree,,,,,,,,,,,,,,,,,,,,,,,,,,,,,,,,,,,,,,,,,,,,,,,,,,,,,,,,,,,,,,,,,,,,,,,,,,,,,,,,,,,,,,,,,,,,,,,,,,,,,,,,,,,,,,,,,,,,,,,,,,,,,,,,,,,,,,,,,
,,65207c22fa9502e61424d55e,2024-02-19_15h10.08.275,kallum_motion_pilot,2023.2.2,MacIntel,58.82352941,65207c22fa9502e61424d55e,65d2b6c8f2eece985d8e374c,65d2b857389bf2201360eb5e,0.1078,0.108,1,39,201,66,1,twoone,,,,,,,,,,,,,,,,,,,,,,,,,,,,,,,,,,,,,,,,,,,,,,,,,,,,,,,,,,,,,,,,,,,,,,,,,,,,,,,,,,,,,,,,,,,,,,,,,,,,,,,,,,,,,,,,,,,,,,,,,,,,,,,,,,,,,,,,,
,,65207c22fa9502e61424d55e,2024-02-19_15h10.08.275,kallum_motion_pilot,2023.2.2,MacIntel,58.82352941,65207c22fa9502e61424d55e,65d2b6c8f2eece985d8e374c,65d2b857389bf2201360eb5e,0.108,0.1082,1,40,202,145,1,fiveseven,,,,,,,,,,,,,,,,,,,,,,,,,,,,,,,,,,,,,,,,,,,,,,,,,,,,,,,,,,,,,,,,,,,,,,,,,,,,,,,,,,,,,,,,,,,,,,,,,,,,,,,,,,,,,,,,,,,,,,,,,,,,,,,,,,,,,,,,,
,,65207c22fa9502e61424d55e,2024-02-19_15h10.08.275,kallum_motion_pilot,2023.2.2,MacIntel,58.82352941,65207c22fa9502e61424d55e,65d2b6c8f2eece985d8e374c,65d2b857389bf2201360eb5e,0.1083,0.1085,1,41,203,61,1,threefour,,,,,,,,,,,,,,,,,,,,,,,,,,,,,,,,,,,,,,,,,,,,,,,,,,,,,,,,,,,,,,,,,,,,,,,,,,,,,,,,,,,,,,,,,,,,,,,,,,,,,,,,,,,,,,,,,,,,,,,,,,,,,,,,,,,,,,,,,
,,65207c22fa9502e61424d55e,2024-02-19_15h10.08.275,kallum_motion_pilot,2023.2.2,MacIntel,58.82352941,65207c22fa9502e61424d55e,65d2b6c8f2eece985d8e374c,65d2b857389bf2201360eb5e,0.1086,0.1087,1,42,204,2,1,twoone,,,,,,,,,,,,,,,,,,,,,,,,,,,,,,,,,,,,,,,,,,,,,,,,,,,,,,,,,,,,,,,,,,,,,,,,,,,,,,,,,,,,,,,,,,,,,,,,,,,,,,,,,,,,,,,,,,,,,,,,,,,,,,,,,,,,,,,,,
,,65207c22fa9502e61424d55e,2024-02-19_15h10.08.275,kallum_motion_pilot,2023.2.2,MacIntel,58.82352941,65207c22fa9502e61424d55e,65d2b6c8f2eece985d8e374c,65d2b857389bf2201360eb5e,0.1089,0.1091,1,43,205,19,1,twofour,,,,,,,,,,,,,,,,,,,,,,,,,,,,,,,,,,,,,,,,,,,,,,,,,,,,,,,,,,,,,,,,,,,,,,,,,,,,,,,,,,,,,,,,,,,,,,,,,,,,,,,,,,,,,,,,,,,,,,,,,,,,,,,,,,,,,,,,,
,,65207c22fa9502e61424d55e,2024-02-19_15h10.08.275,kallum_motion_pilot,2023.2.2,MacIntel,58.82352941,65207c22fa9502e61424d55e,65d2b6c8f2eece985d8e374c,65d2b857389bf2201360eb5e,0.1092,0.1093,1,44,206,123,1,sixeight,,,,,,,,,,,,,,,,,,,,,,,,,,,,,,,,,,,,,,,,,,,,,,,,,,,,,,,,,,,,,,,,,,,,,,,,,,,,,,,,,,,,,,,,,,,,,,,,,,,,,,,,,,,,,,,,,,,,,,,,,,,,,,,,,,,,,,,,,
,,65207c22fa9502e61424d55e,2024-02-19_15h10.08.275,kallum_motion_pilot,2023.2.2,MacIntel,58.82352941,65207c22fa9502e61424d55e,65d2b6c8f2eece985d8e374c,65d2b857389bf2201360eb5e,0.1095,0.1098,1,45,207,12,1,threeone,,,,,,,,,,,,,,,,,,,,,,,,,,,,,,,,,,,,,,,,,,,,,,,,,,,,,,,,,,,,,,,,,,,,,,,,,,,,,,,,,,,,,,,,,,,,,,,,,,,,,,,,,,,,,,,,,,,,,,,,,,,,,,,,,,,,,,,,,
,,65207c22fa9502e61424d55e,2024-02-19_15h10.08.275,kallum_motion_pilot,2023.2.2,MacIntel,58.82352941,65207c22fa9502e61424d55e,65d2b6c8f2eece985d8e374c,65d2b857389bf2201360eb5e,0.11,0.11,1,46,208,84,1,sevenfive,,,,,,,,,,,,,,,,,,,,,,,,,,,,,,,,,,,,,,,,,,,,,,,,,,,,,,,,,,,,,,,,,,,,,,,,,,,,,,,,,,,,,,,,,,,,,,,,,,,,,,,,,,,,,,,,,,,,,,,,,,,,,,,,,,,,,,,,,
,,65207c22fa9502e61424d55e,2024-02-19_15h10.08.275,kallum_motion_pilot,2023.2.2,MacIntel,58.82352941,65207c22fa9502e61424d55e,65d2b6c8f2eece985d8e374c,65d2b857389bf2201360eb5e,0.1102,0.1102,1,47,209,108,1,sevenfive,,,,,,,,,,,,,,,,,,,,,,,,,,,,,,,,,,,,,,,,,,,,,,,,,,,,,,,,,,,,,,,,,,,,,,,,,,,,,,,,,,,,,,,,,,,,,,,,,,,,,,,,,,,,,,,,,,,,,,,,,,,,,,,,,,,,,,,,,
,,65207c22fa9502e61424d55e,2024-02-19_15h10.08.275,kallum_motion_pilot,2023.2.2,MacIntel,58.82352941,65207c22fa9502e61424d55e,65d2b6c8f2eece985d8e374c,65d2b857389bf2201360eb5e,0.1104,0.1104,1,48,210,105,1,fiveseven,,,,,,,,,,,,,,,,,,,,,,,,,,,,,,,,,,,,,,,,,,,,,,,,,,,,,,,,,,,,,,,,,,,,,,,,,,,,,,,,,,,,,,,,,,,,,,,,,,,,,,,,,,,,,,,,,,,,,,,,,,,,,,,,,,,,,,,,,
,,65207c22fa9502e61424d55e,2024-02-19_15h10.08.275,kallum_motion_pilot,2023.2.2,MacIntel,58.82352941,65207c22fa9502e61424d55e,65d2b6c8f2eece985d8e374c,65d2b857389bf2201360eb5e,0.1105,0.1106,1,49,211,31,1,fourthree,,,,,,,,,,,,,,,,,,,,,,,,,,,,,,,,,,,,,,,,,,,,,,,,,,,,,,,,,,,,,,,,,,,,,,,,,,,,,,,,,,,,,,,,,,,,,,,,,,,,,,,,,,,,,,,,,,,,,,,,,,,,,,,,,,,,,,,,,
,,65207c22fa9502e61424d55e,2024-02-19_15h10.08.275,kallum_motion_pilot,2023.2.2,MacIntel,58.82352941,65207c22fa9502e61424d55e,65d2b6c8f2eece985d8e374c,65d2b857389bf2201360eb5e,0.1107,0.1108,1,50,212,153,1,fiveseven,,,,,,,,,,,,,,,,,,,,,,,,,,,,,,,,,,,,,,,,,,,,,,,,,,,,,,,,,,,,,,,,,,,,,,,,,,,,,,,,,,,,,,,,,,,,,,,,,,,,,,,,,,,,,,,,,,,,,,,,,,,,,,,,,,,,,,,,,
,,65207c22fa9502e61424d55e,2024-02-19_15h10.08.275,kallum_motion_pilot,2023.2.2,MacIntel,58.82352941,65207c22fa9502e61424d55e,65d2b6c8f2eece985d8e374c,65d2b857389bf2201360eb5e,0.1108,0.111,1,51,213,97,1,fiveseven,,,,,,,,,,,,,,,,,,,,,,,,,,,,,,,,,,,,,,,,,,,,,,,,,,,,,,,,,,,,,,,,,,,,,,,,,,,,,,,,,,,,,,,,,,,,,,,,,,,,,,,,,,,,,,,,,,,,,,,,,,,,,,,,,,,,,,,,,
,,65207c22fa9502e61424d55e,2024-02-19_15h10.08.275,kallum_motion_pilot,2023.2.2,MacIntel,58.82352941,65207c22fa9502e61424d55e,65d2b6c8f2eece985d8e374c,65d2b857389bf2201360eb5e,0.1111,0.1112,1,52,214,54,1,fourtwo,,,,,,,,,,,,,,,,,,,,,,,,,,,,,,,,,,,,,,,,,,,,,,,,,,,,,,,,,,,,,,,,,,,,,,,,,,,,,,,,,,,,,,,,,,,,,,,,,,,,,,,,,,,,,,,,,,,,,,,,,,,,,,,,,,,,,,,,,
,,65207c22fa9502e61424d55e,2024-02-19_15h10.08.275,kallum_motion_pilot,2023.2.2,MacIntel,58.82352941,65207c22fa9502e61424d55e,65d2b6c8f2eece985d8e374c,65d2b857389bf2201360eb5e,0.1112,0.1113,1,53,215,159,1,eightseven,,,,,,,,,,,,,,,,,,,,,,,,,,,,,,,,,,,,,,,,,,,,,,,,,,,,,,,,,,,,,,,,,,,,,,,,,,,,,,,,,,,,,,,,,,,,,,,,,,,,,,,,,,,,,,,,,,,,,,,,,,,,,,,,,,,,,,,,,
,,65207c22fa9502e61424d55e,2024-02-19_15h10.08.275,kallum_motion_pilot,2023.2.2,MacIntel,58.82352941,65207c22fa9502e61424d55e,65d2b6c8f2eece985d8e374c,65d2b857389bf2201360eb5e,0.1115,0.1115,1,54,216,67,1,twofour,,,,,,,,,,,,,,,,,,,,,,,,,,,,,,,,,,,,,,,,,,,,,,,,,,,,,,,,,,,,,,,,,,,,,,,,,,,,,,,,,,,,,,,,,,,,,,,,,,,,,,,,,,,,,,,,,,,,,,,,,,,,,,,,,,,,,,,,,
,,65207c22fa9502e61424d55e,2024-02-19_15h10.08.275,kallum_motion_pilot,2023.2.2,MacIntel,58.82352941,65207c22fa9502e61424d55e,65d2b6c8f2eece985d8e374c,65d2b857389bf2201360eb5e,0.1116,0.1117,1,55,217,38,1,fourtwo,,,,,,,,,,,,,,,,,,,,,,,,,,,,,,,,,,,,,,,,,,,,,,,,,,,,,,,,,,,,,,,,,,,,,,,,,,,,,,,,,,,,,,,,,,,,,,,,,,,,,,,,,,,,,,,,,,,,,,,,,,,,,,,,,,,,,,,,,
,,65207c22fa9502e61424d55e,2024-02-19_15h10.08.275,kallum_motion_pilot,2023.2.2,MacIntel,58.82352941,65207c22fa9502e61424d55e,65d2b6c8f2eece985d8e374c,65d2b857389bf2201360eb5e,0.1117,0.1119,1,56,218,120,1,fivesix,,,,,,,,,,,,,,,,,,,,,,,,,,,,,,,,,,,,,,,,,,,,,,,,,,,,,,,,,,,,,,,,,,,,,,,,,,,,,,,,,,,,,,,,,,,,,,,,,,,,,,,,,,,,,,,,,,,,,,,,,,,,,,,,,,,,,,,,,
,,65207c22fa9502e61424d55e,2024-02-19_15h10.08.275,kallum_motion_pilot,2023.2.2,MacIntel,58.82352941,65207c22fa9502e61424d55e,65d2b6c8f2eece985d8e374c,65d2b857389bf2201360eb5e,0.1119,0.112,1,57,219,140,1,sevenfive,,,,,,,,,,,,,,,,,,,,,,,,,,,,,,,,,,,,,,,,,,,,,,,,,,,,,,,,,,,,,,,,,,,,,,,,,,,,,,,,,,,,,,,,,,,,,,,,,,,,,,,,,,,,,,,,,,,,,,,,,,,,,,,,,,,,,,,,,
,,65207c22fa9502e61424d55e,2024-02-19_15h10.08.275,kallum_motion_pilot,2023.2.2,MacIntel,58.82352941,65207c22fa9502e61424d55e,65d2b6c8f2eece985d8e374c,65d2b857389bf2201360eb5e,0.1122,0.1122,1,58,220,90,1,sixfive,,,,,,,,,,,,,,,,,,,,,,,,,,,,,,,,,,,,,,,,,,,,,,,,,,,,,,,,,,,,,,,,,,,,,,,,,,,,,,,,,,,,,,,,,,,,,,,,,,,,,,,,,,,,,,,,,,,,,,,,,,,,,,,,,,,,,,,,,
,,65207c22fa9502e61424d55e,2024-02-19_15h10.08.275,kallum_motion_pilot,2023.2.2,MacIntel,58.82352941,65207c22fa9502e61424d55e,65d2b6c8f2eece985d8e374c,65d2b857389bf2201360eb5e,0.1123,0.1131,1,59,221,58,1,twoone,,,,,,,,,,,,,,,,,,,,,,,,,,,,,,,,,,,,,,,,,,,,,,,,,,,,,,,,,,,,,,,,,,,,,,,,,,,,,,,,,,,,,,,,,,,,,,,,,,,,,,,,,,,,,,,,,,,,,,,,,,,,,,,,,,,,,,,,,
,,65207c22fa9502e61424d55e,2024-02-19_15h10.08.275,kallum_motion_pilot,2023.2.2,MacIntel,58.82352941,65207c22fa9502e61424d55e,65d2b6c8f2eece985d8e374c,65d2b857389bf2201360eb5e,0.1133,0.1134,1,60,222,160,1,fivesix,,,,,,,,,,,,,,,,,,,,,,,,,,,,,,,,,,,,,,,,,,,,,,,,,,,,,,,,,,,,,,,,,,,,,,,,,,,,,,,,,,,,,,,,,,,,,,,,,,,,,,,,,,,,,,,,,,,,,,,,,,,,,,,,,,,,,,,,,
,,65207c22fa9502e61424d55e,2024-02-19_15h10.08.275,kallum_motion_pilot,2023.2.2,MacIntel,58.82352941,65207c22fa9502e61424d55e,65d2b6c8f2eece985d8e374c,65d2b857389bf2201360eb5e,0.1135,0.1136,1,61,223,146,1,sixfive,,,,,,,,,,,,,,,,,,,,,,,,,,,,,,,,,,,,,,,,,,,,,,,,,,,,,,,,,,,,,,,,,,,,,,,,,,,,,,,,,,,,,,,,,,,,,,,,,,,,,,,,,,,,,,,,,,,,,,,,,,,,,,,,,,,,,,,,,
,,65207c22fa9502e61424d55e,2024-02-19_15h10.08.275,kallum_motion_pilot,2023.2.2,MacIntel,58.82352941,65207c22fa9502e61424d55e,65d2b6c8f2eece985d8e374c,65d2b857389bf2201360eb5e,0.1136,0.1137,1,62,224,5,1,threefour,,,,,,,,,,,,,,,,,,,,,,,,,,,,,,,,,,,,,,,,,,,,,,,,,,,,,,,,,,,,,,,,,,,,,,,,,,,,,,,,,,,,,,,,,,,,,,,,,,,,,,,,,,,,,,,,,,,,,,,,,,,,,,,,,,,,,,,,,
,,65207c22fa9502e61424d55e,2024-02-19_15h10.08.275,kallum_motion_pilot,2023.2.2,MacIntel,58.82352941,65207c22fa9502e61424d55e,65d2b6c8f2eece985d8e374c,65d2b857389bf2201360eb5e,0.1139,0.1139,1,63,225,78,1,fourtwo,,,,,,,,,,,,,,,,,,,,,,,,,,,,,,,,,,,,,,,,,,,,,,,,,,,,,,,,,,,,,,,,,,,,,,,,,,,,,,,,,,,,,,,,,,,,,,,,,,,,,,,,,,,,,,,,,,,,,,,,,,,,,,,,,,,,,,,,,
,,65207c22fa9502e61424d55e,2024-02-19_15h10.08.275,kallum_motion_pilot,2023.2.2,MacIntel,58.82352941,65207c22fa9502e61424d55e,65d2b6c8f2eece985d8e374c,65d2b857389bf2201360eb5e,0.114,0.1141,1,64,226,36,1,threeone,,,,,,,,,,,,,,,,,,,,,,,,,,,,,,,,,,,,,,,,,,,,,,,,,,,,,,,,,,,,,,,,,,,,,,,,,,,,,,,,,,,,,,,,,,,,,,,,,,,,,,,,,,,,,,,,,,,,,,,,,,,,,,,,,,,,,,,,,
,,65207c22fa9502e61424d55e,2024-02-19_15h10.08.275,kallum_motion_pilot,2023.2.2,MacIntel,58.82352941,65207c22fa9502e61424d55e,65d2b6c8f2eece985d8e374c,65d2b857389bf2201360eb5e,0.1142,0.1143,1,65,227,104,1,fivesix,,,,,,,,,,,,,,,,,,,,,,,,,,,,,,,,,,,,,,,,,,,,,,,,,,,,,,,,,,,,,,,,,,,,,,,,,,,,,,,,,,,,,,,,,,,,,,,,,,,,,,,,,,,,,,,,,,,,,,,,,,,,,,,,,,,,,,,,,
,,65207c22fa9502e61424d55e,2024-02-19_15h10.08.275,kallum_motion_pilot,2023.2.2,MacIntel,58.82352941,65207c22fa9502e61424d55e,65d2b6c8f2eece985d8e374c,65d2b857389bf2201360eb5e,0.1144,0.1146,1,66,228,13,1,threefour,,,,,,,,,,,,,,,,,,,,,,,,,,,,,,,,,,,,,,,,,,,,,,,,,,,,,,,,,,,,,,,,,,,,,,,,,,,,,,,,,,,,,,,,,,,,,,,,,,,,,,,,,,,,,,,,,,,,,,,,,,,,,,,,,,,,,,,,,
,,65207c22fa9502e61424d55e,2024-02-19_15h10.08.275,kallum_motion_pilot,2023.2.2,MacIntel,58.82352941,65207c22fa9502e61424d55e,65d2b6c8f2eece985d8e374c,65d2b857389bf2201360eb5e,0.1146,0.1147,1,67,229,65,1,onethree,,,,,,,,,,,,,,,,,,,,,,,,,,,,,,,,,,,,,,,,,,,,,,,,,,,,,,,,,,,,,,,,,,,,,,,,,,,,,,,,,,,,,,,,,,,,,,,,,,,,,,,,,,,,,,,,,,,,,,,,,,,,,,,,,,,,,,,,,
,,65207c22fa9502e61424d55e,2024-02-19_15h10.08.275,kallum_motion_pilot,2023.2.2,MacIntel,58.82352941,65207c22fa9502e61424d55e,65d2b6c8f2eece985d8e374c,65d2b857389bf2201360eb5e,0.1148,0.1149,1,68,230,115,1,sixeight,,,,,,,,,,,,,,,,,,,,,,,,,,,,,,,,,,,,,,,,,,,,,,,,,,,,,,,,,,,,,,,,,,,,,,,,,,,,,,,,,,,,,,,,,,,,,,,,,,,,,,,,,,,,,,,,,,,,,,,,,,,,,,,,,,,,,,,,,
,,65207c22fa9502e61424d55e,2024-02-19_15h10.08.275,kallum_motion_pilot,2023.2.2,MacIntel,58.82352941,65207c22fa9502e61424d55e,65d2b6c8f2eece985d8e374c,65d2b857389bf2201360eb5e,0.115,0.1153,1,69,231,76,1,threeone,,,,,,,,,,,,,,,,,,,,,,,,,,,,,,,,,,,,,,,,,,,,,,,,,,,,,,,,,,,,,,,,,,,,,,,,,,,,,,,,,,,,,,,,,,,,,,,,,,,,,,,,,,,,,,,,,,,,,,,,,,,,,,,,,,,,,,,,,
,,65207c22fa9502e61424d55e,2024-02-19_15h10.08.275,kallum_motion_pilot,2023.2.2,MacIntel,58.82352941,65207c22fa9502e61424d55e,65d2b6c8f2eece985d8e374c,65d2b857389bf2201360eb5e,0.1158,0.1159,1,70,232,157,1,seveneight,,,,,,,,,,,,,,,,,,,,,,,,,,,,,,,,,,,,,,,,,,,,,,,,,,,,,,,,,,,,,,,,,,,,,,,,,,,,,,,,,,,,,,,,,,,,,,,,,,,,,,,,,,,,,,,,,,,,,,,,,,,,,,,,,,,,,,,,,
,,65207c22fa9502e61424d55e,2024-02-19_15h10.08.275,kallum_motion_pilot,2023.2.2,MacIntel,58.82352941,65207c22fa9502e61424d55e,65d2b6c8f2eece985d8e374c,65d2b857389bf2201360eb5e,0.116,0.1162,1,71,233,155,1,sixeight,,,,,,,,,,,,,,,,,,,,,,,,,,,,,,,,,,,,,,,,,,,,,,,,,,,,,,,,,,,,,,,,,,,,,,,,,,,,,,,,,,,,,,,,,,,,,,,,,,,,,,,,,,,,,,,,,,,,,,,,,,,,,,,,,,,,,,,,,
,,65207c22fa9502e61424d55e,2024-02-19_15h10.08.275,kallum_motion_pilot,2023.2.2,MacIntel,58.82352941,65207c22fa9502e61424d55e,65d2b6c8f2eece985d8e374c,65d2b857389bf2201360eb5e,0.1163,0.1163,1,72,234,87,1,eightseven,,,,,,,,,,,,,,,,,,,,,,,,,,,,,,,,,,,,,,,,,,,,,,,,,,,,,,,,,,,,,,,,,,,,,,,,,,,,,,,,,,,,,,,,,,,,,,,,,,,,,,,,,,,,,,,,,,,,,,,,,,,,,,,,,,,,,,,,,
,,65207c22fa9502e61424d55e,2024-02-19_15h10.08.275,kallum_motion_pilot,2023.2.2,MacIntel,58.82352941,65207c22fa9502e61424d55e,65d2b6c8f2eece985d8e374c,65d2b857389bf2201360eb5e,0.1165,0.1165,1,73,235,137,1,fiveseven,,,,,,,,,,,,,,,,,,,,,,,,,,,,,,,,,,,,,,,,,,,,,,,,,,,,,,,,,,,,,,,,,,,,,,,,,,,,,,,,,,,,,,,,,,,,,,,,,,,,,,,,,,,,,,,,,,,,,,,,,,,,,,,,,,,,,,,,,
,,65207c22fa9502e61424d55e,2024-02-19_15h10.08.275,kallum_motion_pilot,2023.2.2,MacIntel,58.82352941,65207c22fa9502e61424d55e,65d2b6c8f2eece985d8e374c,65d2b857389bf2201360eb5e,0.1166,0.1167,1,74,236,147,1,sixeight,,,,,,,,,,,,,,,,,,,,,,,,,,,,,,,,,,,,,,,,,,,,,,,,,,,,,,,,,,,,,,,,,,,,,,,,,,,,,,,,,,,,,,,,,,,,,,,,,,,,,,,,,,,,,,,,,,,,,,,,,,,,,,,,,,,,,,,,,
,,65207c22fa9502e61424d55e,2024-02-19_15h10.08.275,kallum_motion_pilot,2023.2.2,MacIntel,58.82352941,65207c22fa9502e61424d55e,65d2b6c8f2eece985d8e374c,65d2b857389bf2201360eb5e,0.1169,0.1177,1,75,237,144,1,fivesix,,,,,,,,,,,,,,,,,,,,,,,,,,,,,,,,,,,,,,,,,,,,,,,,,,,,,,,,,,,,,,,,,,,,,,,,,,,,,,,,,,,,,,,,,,,,,,,,,,,,,,,,,,,,,,,,,,,,,,,,,,,,,,,,,,,,,,,,,
,,65207c22fa9502e61424d55e,2024-02-19_15h10.08.275,kallum_motion_pilot,2023.2.2,MacIntel,58.82352941,65207c22fa9502e61424d55e,65d2b6c8f2eece985d8e374c,65d2b857389bf2201360eb5e,0.1179,0.1181,1,76,238,73,1,onethree,,,,,,,,,,,,,,,,,,,,,,,,,,,,,,,,,,,,,,,,,,,,,,,,,,,,,,,,,,,,,,,,,,,,,,,,,,,,,,,,,,,,,,,,,,,,,,,,,,,,,,,,,,,,,,,,,,,,,,,,,,,,,,,,,,,,,,,,,
,,65207c22fa9502e61424d55e,2024-02-19_15h10.08.275,kallum_motion_pilot,2023.2.2,MacIntel,58.82352941,65207c22fa9502e61424d55e,65d2b6c8f2eece985d8e374c,65d2b857389bf2201360eb5e,0.1182,0.1183,1,77,239,85,1,seveneight,,,,,,,,,,,,,,,,,,,,,,,,,,,,,,,,,,,,,,,,,,,,,,,,,,,,,,,,,,,,,,,,,,,,,,,,,,,,,,,,,,,,,,,,,,,,,,,,,,,,,,,,,,,,,,,,,,,,,,,,,,,,,,,,,,,,,,,,,
,,65207c22fa9502e61424d55e,2024-02-19_15h10.08.275,kallum_motion_pilot,2023.2.2,MacIntel,58.82352941,65207c22fa9502e61424d55e,65d2b6c8f2eece985d8e374c,65d2b857389bf2201360eb5e,0.1185,0.1188,1,78,240,138,1,sixfive,,,,,,,,,,,,,,,,,,,,,,,,,,,,,,,,,,,,,,,,,,,,,,,,,,,,,,,,,,,,,,,,,,,,,,,,,,,,,,,,,,,,,,,,,,,,,,,,,,,,,,,,,,,,,,,,,,,,,,,,,,,,,,,,,,,,,,,,,
,,65207c22fa9502e61424d55e,2024-02-19_15h10.08.275,kallum_motion_pilot,2023.2.2,MacIntel,58.82352941,65207c22fa9502e61424d55e,65d2b6c8f2eece985d8e374c,65d2b857389bf2201360eb5e,0.1189,0.119,1,79,241,9,1,onethree,,,,,,,,,,,,,,,,,,,,,,,,,,,,,,,,,,,,,,,,,,,,,,,,,,,,,,,,,,,,,,,,,,,,,,,,,,,,,,,,,,,,,,,,,,,,,,,,,,,,,,,,,,,,,,,,,,,,,,,,,,,,,,,,,,,,,,,,,
,,65207c22fa9502e61424d55e,2024-02-19_15h10.08.275,kallum_motion_pilot,2023.2.2,MacIntel,58.82352941,65207c22fa9502e61424d55e,65d2b6c8f2eece985d8e374c,65d2b857389bf2201360eb5e,0.1191,0.1193,1,80,242,128,1,fivesix,,,,,,,,,,,,,,,,,,,,,,,,,,,,,,,,,,,,,,,,,,,,,,,,,,,,,,,,,,,,,,,,,,,,,,,,,,,,,,,,,,,,,,,,,,,,,,,,,,,,,,,,,,,,,,,,,,,,,,,,,,,,,,,,,,,,,,,,,
,,65207c22fa9502e61424d55e,2024-02-19_15h10.08.275,kallum_motion_pilot,2023.2.2,MacIntel,58.82352941,65207c22fa9502e61424d55e,65d2b6c8f2eece985d8e374c,65d2b857389bf2201360eb5e,0.1194,0.1194,1,81,243,98,1,sixfive,,,,,,,,,,,,,,,,,,,,,,,,,,,,,,,,,,,,,,,,,,,,,,,,,,,,,,,,,,,,,,,,,,,,,,,,,,,,,,,,,,,,,,,,,,,,,,,,,,,,,,,,,,,,,,,,,,,,,,,,,,,,,,,,,,,,,,,,,
,,65207c22fa9502e61424d55e,2024-02-19_15h10.08.275,kallum_motion_pilot,2023.2.2,MacIntel,58.82352941,65207c22fa9502e61424d55e,65d2b6c8f2eece985d8e374c,65d2b857389bf2201360eb5e,0.1195,0.1196,1,82,244,48,1,onetwo,,,,,,,,,,,,,,,,,,,,,,,,,,,,,,,,,,,,,,,,,,,,,,,,,,,,,,,,,,,,,,,,,,,,,,,,,,,,,,,,,,,,,,,,,,,,,,,,,,,,,,,,,,,,,,,,,,,,,,,,,,,,,,,,,,,,,,,,,
,,65207c22fa9502e61424d55e,2024-02-19_15h10.08.275,kallum_motion_pilot,2023.2.2,MacIntel,58.82352941,65207c22fa9502e61424d55e,65d2b6c8f2eece985d8e374c,65d2b857389bf2201360eb5e,0.1197,0.1198,1,83,245,131,1,sixeight,,,,,,,,,,,,,,,,,,,,,,,,,,,,,,,,,,,,,,,,,,,,,,,,,,,,,,,,,,,,,,,,,,,,,,,,,,,,,,,,,,,,,,,,,,,,,,,,,,,,,,,,,,,,,,,,,,,,,,,,,,,,,,,,,,,,,,,,,
,,65207c22fa9502e61424d55e,2024-02-19_15h10.08.275,kallum_motion_pilot,2023.2.2,MacIntel,58.82352941,65207c22fa9502e61424d55e,65d2b6c8f2eece985d8e374c,65d2b857389bf2201360eb5e,0.1198,0.1199,1,84,246,3,1,twofour,,,,,,,,,,,,,,,,,,,,,,,,,,,,,,,,,,,,,,,,,,,,,,,,,,,,,,,,,,,,,,,,,,,,,,,,,,,,,,,,,,,,,,,,,,,,,,,,,,,,,,,,,,,,,,,,,,,,,,,,,,,,,,,,,,,,,,,,,
,,65207c22fa9502e61424d55e,2024-02-19_15h10.08.275,kallum_motion_pilot,2023.2.2,MacIntel,58.82352941,65207c22fa9502e61424d55e,65d2b6c8f2eece985d8e374c,65d2b857389bf2201360eb5e,0.12,0.1201,1,85,247,23,1,fourthree,,,,,,,,,,,,,,,,,,,,,,,,,,,,,,,,,,,,,,,,,,,,,,,,,,,,,,,,,,,,,,,,,,,,,,,,,,,,,,,,,,,,,,,,,,,,,,,,,,,,,,,,,,,,,,,,,,,,,,,,,,,,,,,,,,,,,,,,,
,,65207c22fa9502e61424d55e,2024-02-19_15h10.08.275,kallum_motion_pilot,2023.2.2,MacIntel,58.82352941,65207c22fa9502e61424d55e,65d2b6c8f2eece985d8e374c,65d2b857389bf2201360eb5e,0.1202,0.1203,1,86,248,103,1,eightseven,,,,,,,,,,,,,,,,,,,,,,,,,,,,,,,,,,,,,,,,,,,,,,,,,,,,,,,,,,,,,,,,,,,,,,,,,,,,,,,,,,,,,,,,,,,,,,,,,,,,,,,,,,,,,,,,,,,,,,,,,,,,,,,,,,,,,,,,,
,,65207c22fa9502e61424d55e,2024-02-19_15h10.08.275,kallum_motion_pilot,2023.2.2,MacIntel,58.82352941,65207c22fa9502e61424d55e,65d2b6c8f2eece985d8e374c,65d2b857389bf2201360eb5e,0.1204,0.1205,1,87,249,94,1,eightsix,,,,,,,,,,,,,,,,,,,,,,,,,,,,,,,,,,,,,,,,,,,,,,,,,,,,,,,,,,,,,,,,,,,,,,,,,,,,,,,,,,,,,,,,,,,,,,,,,,,,,,,,,,,,,,,,,,,,,,,,,,,,,,,,,,,,,,,,,
,,65207c22fa9502e61424d55e,2024-02-19_15h10.08.275,kallum_motion_pilot,2023.2.2,MacIntel,58.82352941,65207c22fa9502e61424d55e,65d2b6c8f2eece985d8e374c,65d2b857389bf2201360eb5e,0.1206,0.1207,1,88,250,30,1,fourtwo,,,,,,,,,,,,,,,,,,,,,,,,,,,,,,,,,,,,,,,,,,,,,,,,,,,,,,,,,,,,,,,,,,,,,,,,,,,,,,,,,,,,,,,,,,,,,,,,,,,,,,,,,,,,,,,,,,,,,,,,,,,,,,,,,,,,,,,,,
,,65207c22fa9502e61424d55e,2024-02-19_15h10.08.275,kallum_motion_pilot,2023.2.2,MacIntel,58.82352941,65207c22fa9502e61424d55e,65d2b6c8f2eece985d8e374c,65d2b857389bf2201360eb5e,0.1208,0.1208,1,89,251,86,1,eightsix,,,,,,,,,,,,,,,,,,,,,,,,,,,,,,,,,,,,,,,,,,,,,,,,,,,,,,,,,,,,,,,,,,,,,,,,,,,,,,,,,,,,,,,,,,,,,,,,,,,,,,,,,,,,,,,,,,,,,,,,,,,,,,,,,,,,,,,,,
,,65207c22fa9502e61424d55e,2024-02-19_15h10.08.275,kallum_motion_pilot,2023.2.2,MacIntel,58.82352941,65207c22fa9502e61424d55e,65d2b6c8f2eece985d8e374c,65d2b857389bf2201360eb5e,0.1209,0.121,1,90,252,40,1,onetwo,,,,,,,,,,,,,,,,,,,,,,,,,,,,,,,,,,,,,,,,,,,,,,,,,,,,,,,,,,,,,,,,,,,,,,,,,,,,,,,,,,,,,,,,,,,,,,,,,,,,,,,,,,,,,,,,,,,,,,,,,,,,,,,,,,,,,,,,,
,,65207c22fa9502e61424d55e,2024-02-19_15h10.08.275,kallum_motion_pilot,2023.2.2,MacIntel,58.82352941,65207c22fa9502e61424d55e,65d2b6c8f2eece985d8e374c,65d2b857389bf2201360eb5e,0.1221,0.1224,1,91,253,0,1,onetwo,,,,,,,,,,,,,,,,,,,,,,,,,,,,,,,,,,,,,,,,,,,,,,,,,,,,,,,,,,,,,,,,,,,,,,,,,,,,,,,,,,,,,,,,,,,,,,,,,,,,,,,,,,,,,,,,,,,,,,,,,,,,,,,,,,,,,,,,,
,,65207c22fa9502e61424d55e,2024-02-19_15h10.08.275,kallum_motion_pilot,2023.2.2,MacIntel,58.82352941,65207c22fa9502e61424d55e,65d2b6c8f2eece985d8e374c,65d2b857389bf2201360eb5e,0.1227,0.1228,1,92,254,17,1,onethree,,,,,,,,,,,,,,,,,,,,,,,,,,,,,,,,,,,,,,,,,,,,,,,,,,,,,,,,,,,,,,,,,,,,,,,,,,,,,,,,,,,,,,,,,,,,,,,,,,,,,,,,,,,,,,,,,,,,,,,,,,,,,,,,,,,,,,,,,
,,65207c22fa9502e61424d55e,2024-02-19_15h10.08.275,kallum_motion_pilot,2023.2.2,MacIntel,58.82352941,65207c22fa9502e61424d55e,65d2b6c8f2eece985d8e374c,65d2b857389bf2201360eb5e,0.1231,0.1232,1,93,255,50,1,twoone,,,,,,,,,,,,,,,,,,,,,,,,,,,,,,,,,,,,,,,,,,,,,,,,,,,,,,,,,,,,,,,,,,,,,,,,,,,,,,,,,,,,,,,,,,,,,,,,,,,,,,,,,,,,,,,,,,,,,,,,,,,,,,,,,,,,,,,,,
,,65207c22fa9502e61424d55e,2024-02-19_15h10.08.275,kallum_motion_pilot,2023.2.2,MacIntel,58.82352941,65207c22fa9502e61424d55e,65d2b6c8f2eece985d8e374c,65d2b857389bf2201360eb5e,0.1234,0.1234,1,94,256,21,1,threefour,,,,,,,,,,,,,,,,,,,,,,,,,,,,,,,,,,,,,,,,,,,,,,,,,,,,,,,,,,,,,,,,,,,,,,,,,,,,,,,,,,,,,,,,,,,,,,,,,,,,,,,,,,,,,,,,,,,,,,,,,,,,,,,,,,,,,,,,,
,,65207c22fa9502e61424d55e,2024-02-19_15h10.08.275,kallum_motion_pilot,2023.2.2,MacIntel,58.82352941,65207c22fa9502e61424d55e,65d2b6c8f2eece985d8e374c,65d2b857389bf2201360eb5e,0.1235,0.1237,1,95,257,71,1,fourthree,,,,,,,,,,,,,,,,,,,,,,,,,,,,,,,,,,,,,,,,,,,,,,,,,,,,,,,,,,,,,,,,,,,,,,,,,,,,,,,,,,,,,,,,,,,,,,,,,,,,,,,,,,,,,,,,,,,,,,,,,,,,,,,,,,,,,,,,,
,,65207c22fa9502e61424d55e,2024-02-19_15h10.08.275,kallum_motion_pilot,2023.2.2,MacIntel,58.82352941,65207c22fa9502e61424d55e,65d2b6c8f2eece985d8e374c,65d2b857389bf2201360eb5e,0.1239,0.1241,1,96,258,134,1,eightsix,,,,,,,,,,,,,,,,,,,,,,,,,,,,,,,,,,,,,,,,,,,,,,,,,,,,,,,,,,,,,,,,,,,,,,,,,,,,,,,,,,,,,,,,,,,,,,,,,,,,,,,,,,,,,,,,,,,,,,,,,,,,,,,,,,,,,,,,,
,,65207c22fa9502e61424d55e,2024-02-19_15h10.08.275,kallum_motion_pilot,2023.2.2,MacIntel,58.82352941,65207c22fa9502e61424d55e,65d2b6c8f2eece985d8e374c,65d2b857389bf2201360eb5e,0.1243,0.1245,1,97,259,158,1,eightsix,,,,,,,,,,,,,,,,,,,,,,,,,,,,,,,,,,,,,,,,,,,,,,,,,,,,,,,,,,,,,,,,,,,,,,,,,,,,,,,,,,,,,,,,,,,,,,,,,,,,,,,,,,,,,,,,,,,,,,,,,,,,,,,,,,,,,,,,,
,,65207c22fa9502e61424d55e,2024-02-19_15h10.08.275,kallum_motion_pilot,2023.2.2,MacIntel,58.82352941,65207c22fa9502e61424d55e,65d2b6c8f2eece985d8e374c,65d2b857389bf2201360eb5e,0.1246,0.1247,1,98,260,124,1,sevenfive,,,,,,,,,,,,,,,,,,,,,,,,,,,,,,,,,,,,,,,,,,,,,,,,,,,,,,,,,,,,,,,,,,,,,,,,,,,,,,,,,,,,,,,,,,,,,,,,,,,,,,,,,,,,,,,,,,,,,,,,,,,,,,,,,,,,,,,,,
,,65207c22fa9502e61424d55e,2024-02-19_15h10.08.275,kallum_motion_pilot,2023.2.2,MacIntel,58.82352941,65207c22fa9502e61424d55e,65d2b6c8f2eece985d8e374c,65d2b857389bf2201360eb5e,0.1249,0.1249,1,99,261,96,1,fivesix,,,,,,,,,,,,,,,,,,,,,,,,,,,,,,,,,,,,,,,,,,,,,,,,,,,,,,,,,,,,,,,,,,,,,,,,,,,,,,,,,,,,,,,,,,,,,,,,,,,,,,,,,,,,,,,,,,,,,,,,,,,,,,,,,,,,,,,,,
,,65207c22fa9502e61424d55e,2024-02-19_15h10.08.275,kallum_motion_pilot,2023.2.2,MacIntel,58.82352941,65207c22fa9502e61424d55e,65d2b6c8f2eece985d8e374c,65d2b857389bf2201360eb5e,0.125,0.1251,1,100,262,100,1,sevenfive,,,,,,,,,,,,,,,,,,,,,,,,,,,,,,,,,,,,,,,,,,,,,,,,,,,,,,,,,,,,,,,,,,,,,,,,,,,,,,,,,,,,,,,,,,,,,,,,,,,,,,,,,,,,,,,,,,,,,,,,,,,,,,,,,,,,,,,,,
,,65207c22fa9502e61424d55e,2024-02-19_15h10.08.275,kallum_motion_pilot,2023.2.2,MacIntel,58.82352941,65207c22fa9502e61424d55e,65d2b6c8f2eece985d8e374c,65d2b857389bf2201360eb5e,0.1252,0.1253,1,101,263,122,1,sixfive,,,,,,,,,,,,,,,,,,,,,,,,,,,,,,,,,,,,,,,,,,,,,,,,,,,,,,,,,,,,,,,,,,,,,,,,,,,,,,,,,,,,,,,,,,,,,,,,,,,,,,,,,,,,,,,,,,,,,,,,,,,,,,,,,,,,,,,,,
,,65207c22fa9502e61424d55e,2024-02-19_15h10.08.275,kallum_motion_pilot,2023.2.2,MacIntel,58.82352941,65207c22fa9502e61424d55e,65d2b6c8f2eece985d8e374c,65d2b857389bf2201360eb5e,0.1254,0.1256,1,102,264,20,1,threeone,,,,,,,,,,,,,,,,,,,,,,,,,,,,,,,,,,,,,,,,,,,,,,,,,,,,,,,,,,,,,,,,,,,,,,,,,,,,,,,,,,,,,,,,,,,,,,,,,,,,,,,,,,,,,,,,,,,,,,,,,,,,,,,,,,,,,,,,,
,,65207c22fa9502e61424d55e,2024-02-19_15h10.08.275,kallum_motion_pilot,2023.2.2,MacIntel,58.82352941,65207c22fa9502e61424d55e,65d2b6c8f2eece985d8e374c,65d2b857389bf2201360eb5e,0.1257,0.1257,1,103,265,4,1,threeone,,,,,,,,,,,,,,,,,,,,,,,,,,,,,,,,,,,,,,,,,,,,,,,,,,,,,,,,,,,,,,,,,,,,,,,,,,,,,,,,,,,,,,,,,,,,,,,,,,,,,,,,,,,,,,,,,,,,,,,,,,,,,,,,,,,,,,,,,
,,65207c22fa9502e61424d55e,2024-02-19_15h10.08.275,kallum_motion_pilot,2023.2.2,MacIntel,58.82352941,65207c22fa9502e61424d55e,65d2b6c8f2eece985d8e374c,65d2b857389bf2201360eb5e,0.1258,0.126,1,104,266,91,1,sixeight,,,,,,,,,,,,,,,,,,,,,,,,,,,,,,,,,,,,,,,,,,,,,,,,,,,,,,,,,,,,,,,,,,,,,,,,,,,,,,,,,,,,,,,,,,,,,,,,,,,,,,,,,,,,,,,,,,,,,,,,,,,,,,,,,,,,,,,,,
,,65207c22fa9502e61424d55e,2024-02-19_15h10.08.275,kallum_motion_pilot,2023.2.2,MacIntel,58.82352941,65207c22fa9502e61424d55e,65d2b6c8f2eece985d8e374c,65d2b857389bf2201360eb5e,0.1261,0.1261,1,105,267,111,1,eightseven,,,,,,,,,,,,,,,,,,,,,,,,,,,,,,,,,,,,,,,,,,,,,,,,,,,,,,,,,,,,,,,,,,,,,,,,,,,,,,,,,,,,,,,,,,,,,,,,,,,,,,,,,,,,,,,,,,,,,,,,,,,,,,,,,,,,,,,,,
,,65207c22fa9502e61424d55e,2024-02-19_15h10.08.275,kallum_motion_pilot,2023.2.2,MacIntel,58.82352941,65207c22fa9502e61424d55e,65d2b6c8f2eece985d8e374c,65d2b857389bf2201360eb5e,0.1263,0.1264,1,106,268,24,1,onetwo,,,,,,,,,,,,,,,,,,,,,,,,,,,,,,,,,,,,,,,,,,,,,,,,,,,,,,,,,,,,,,,,,,,,,,,,,,,,,,,,,,,,,,,,,,,,,,,,,,,,,,,,,,,,,,,,,,,,,,,,,,,,,,,,,,,,,,,,,
,,65207c22fa9502e61424d55e,2024-02-19_15h10.08.275,kallum_motion_pilot,2023.2.2,MacIntel,58.82352941,65207c22fa9502e61424d55e,65d2b6c8f2eece985d8e374c,65d2b857389bf2201360eb5e,0.1275,0.1276,1,107,269,16,1,onetwo,,,,,,,,,,,,,,,,,,,,,,,,,,,,,,,,,,,,,,,,,,,,,,,,,,,,,,,,,,,,,,,,,,,,,,,,,,,,,,,,,,,,,,,,,,,,,,,,,,,,,,,,,,,,,,,,,,,,,,,,,,,,,,,,,,,,,,,,,
,,65207c22fa9502e61424d55e,2024-02-19_15h10.08.275,kallum_motion_pilot,2023.2.2,MacIntel,58.82352941,65207c22fa9502e61424d55e,65d2b6c8f2eece985d8e374c,65d2b857389bf2201360eb5e,0.1279,0.1281,1,108,270,60,1,threeone,,,,,,,,,,,,,,,,,,,,,,,,,,,,,,,,,,,,,,,,,,,,,,,,,,,,,,,,,,,,,,,,,,,,,,,,,,,,,,,,,,,,,,,,,,,,,,,,,,,,,,,,,,,,,,,,,,,,,,,,,,,,,,,,,,,,,,,,,
,,65207c22fa9502e61424d55e,2024-02-19_15h10.08.275,kallum_motion_pilot,2023.2.2,MacIntel,58.82352941,65207c22fa9502e61424d55e,65d2b6c8f2eece985d8e374c,65d2b857389bf2201360eb5e,0.1283,0.1284,1,109,271,46,1,fourtwo,,,,,,,,,,,,,,,,,,,,,,,,,,,,,,,,,,,,,,,,,,,,,,,,,,,,,,,,,,,,,,,,,,,,,,,,,,,,,,,,,,,,,,,,,,,,,,,,,,,,,,,,,,,,,,,,,,,,,,,,,,,,,,,,,,,,,,,,,
,,65207c22fa9502e61424d55e,2024-02-19_15h10.08.275,kallum_motion_pilot,2023.2.2,MacIntel,58.82352941,65207c22fa9502e61424d55e,65d2b6c8f2eece985d8e374c,65d2b857389bf2201360eb5e,0.1285,0.1287,1,110,272,51,1,twofour,,,,,,,,,,,,,,,,,,,,,,,,,,,,,,,,,,,,,,,,,,,,,,,,,,,,,,,,,,,,,,,,,,,,,,,,,,,,,,,,,,,,,,,,,,,,,,,,,,,,,,,,,,,,,,,,,,,,,,,,,,,,,,,,,,,,,,,,,
,,65207c22fa9502e61424d55e,2024-02-19_15h10.08.275,kallum_motion_pilot,2023.2.2,MacIntel,58.82352941,65207c22fa9502e61424d55e,65d2b6c8f2eece985d8e374c,65d2b857389bf2201360eb5e,0.1287,0.129,1,111,273,43,1,twofour,,,,,,,,,,,,,,,,,,,,,,,,,,,,,,,,,,,,,,,,,,,,,,,,,,,,,,,,,,,,,,,,,,,,,,,,,,,,,,,,,,,,,,,,,,,,,,,,,,,,,,,,,,,,,,,,,,,,,,,,,,,,,,,,,,,,,,,,,
,,65207c22fa9502e61424d55e,2024-02-19_15h10.08.275,kallum_motion_pilot,2023.2.2,MacIntel,58.82352941,65207c22fa9502e61424d55e,65d2b6c8f2eece985d8e374c,65d2b857389bf2201360eb5e,0.1295,0.1295,1,112,274,142,1,eightsix,,,,,,,,,,,,,,,,,,,,,,,,,,,,,,,,,,,,,,,,,,,,,,,,,,,,,,,,,,,,,,,,,,,,,,,,,,,,,,,,,,,,,,,,,,,,,,,,,,,,,,,,,,,,,,,,,,,,,,,,,,,,,,,,,,,,,,,,,
,,65207c22fa9502e61424d55e,2024-02-19_15h10.08.275,kallum_motion_pilot,2023.2.2,MacIntel,58.82352941,65207c22fa9502e61424d55e,65d2b6c8f2eece985d8e374c,65d2b857389bf2201360eb5e,0.1297,0.1298,1,113,275,110,1,eightsix,,,,,,,,,,,,,,,,,,,,,,,,,,,,,,,,,,,,,,,,,,,,,,,,,,,,,,,,,,,,,,,,,,,,,,,,,,,,,,,,,,,,,,,,,,,,,,,,,,,,,,,,,,,,,,,,,,,,,,,,,,,,,,,,,,,,,,,,,
