startup.started,startup.stopped,Prolific ID*,date,expName,psychopyVersion,OS,frameRate,participant,study_id,session,stimpositions.started,stimpositions.stopped,hardcoded_stimulus_positions.thisRepN,hardcoded_stimulus_positions.thisTrialN,hardcoded_stimulus_positions.thisN,hardcoded_stimulus_positions.thisIndex,hardcoded_stimulus_positions.ran,StimulusPos,stimorientation.started,stimorientation.stopped,prac_stimorientation_import_loop.thisRepN,prac_stimorientation_import_loop.thisTrialN,prac_stimorientation_import_loop.thisN,prac_stimorientation_import_loop.thisIndex,prac_stimorientation_import_loop.ran,Stimorientation,welcome_instr.started,welcome_instr.stopped,key_resp.keys,key_resp.rt,key_resp.duration,response_steppedout_1.started,response_steppedout_1.stopped,key_resp_20.keys,key_resp_20.rt,key_resp_20.duration,response_steppedout_2.started,response_steppedout_2.stopped,key_resp_19.keys,key_resp_19.rt,key_resp_19.duration,stim_response_instr.started,stim_response_instr.stopped,key_resp_15.keys,key_resp_15.rt,key_resp_15.duration,direction_instr_2.started,direction_instr_2.stopped,key_resp_9.keys,key_resp_9.rt,key_resp_9.duration,instr_prac.started,instr_prac.stopped,key_resp_10.keys,key_resp_10.rt,key_resp_10.duration,Stim1_display_prac.started,Stim1_display_prac.stopped,Ecc,Circle1_ori,Circle2_ori,response_prac.started,similarity,response_time,response_prac.stopped,mouse_5.x,mouse_5.y,mouse_5.leftButton,mouse_5.midButton,mouse_5.rightButton,mouse_5.clicked_name,responseprac_feedback.started,responseprac_feedback.stopped,summary2_prac.started,summary2_prac.stopped,mouse_6.x,mouse_6.y,mouse_6.leftButton,mouse_6.midButton,mouse_6.rightButton,mouse_6.clicked_name,duringprac.thisRepN,duringprac.thisTrialN,duringprac.thisN,duringprac.thisIndex,duringprac.ran,begin.started,begin.stopped,key_resp_22.keys,key_resp_22.rt,key_resp_22.duration,Stim1_display.started,Stim1_display.stopped,circle1_ori,circle2_ori,circle1_SF,circle2_SF,response.started,response.stopped,mouse.x,mouse.y,mouse.leftButton,mouse.midButton,mouse.rightButton,mouse.clicked_name,trialnumber,double_pass.thisRepN,double_pass.thisTrialN,double_pass.thisN,double_pass.thisIndex,double_pass.ran,double_pass.order,main_trial.thisRepN,main_trial.thisTrialN,main_trial.thisN,main_trial.thisIndex,main_trial.ran,main_trial.order,Trial_Counter,Catch,Frequencies,response_2.started,response_2.stopped,mouse_2.x,mouse_2.y,mouse_2.leftButton,mouse_2.midButton,mouse_2.rightButton,mouse_2.clicked_name,special_trial.started,special_trial.stopped,catch_1.started,catch_1.stopped,mouse_3.x,mouse_3.y,mouse_3.leftButton,mouse_3.midButton,mouse_3.rightButton,catchresponse,catchnumber,response_time_catch,response_sum.started,response_sum.stopped,mouse_11.x,mouse_11.y,mouse_11.leftButton,mouse_11.midButton,mouse_11.rightButton,flip_presentation_sequence_for_double_pass.started,flip_presentation_sequence_for_double_pass.stopped,goodbye.started,goodbye.stopped,key_resp_3.keys,key_resp_3.rt,key_resp_3.duration
0.0004,0.0005,6523f8d76e87618c47c4ac85,2024-02-19_03h15.14.025,kallum_motion_pilot,2023.2.2,Win32,60.24096386,6523f8d76e87618c47c4ac85,65d2b6c8f2eece985d8e374c,65d2b9a1f2eece985d8e37c7,,,,,,,,,,,,,,,,,,,,,,,,,,,,,,,,,,,,,,,,,,,,,,,,,,,,,,,,,,,,,,,,,,,,,,,,,,,,,,,,,,,,,,,,,,,,,,,,,,,,,,,,,,,,,,,,,,,,,,,,,,,,,,,,,,,,,,,,,,,,,,,,,
,,6523f8d76e87618c47c4ac85,2024-02-19_03h15.14.025,kallum_motion_pilot,2023.2.2,Win32,60.24096386,6523f8d76e87618c47c4ac85,65d2b6c8f2eece985d8e374c,65d2b9a1f2eece985d8e37c7,0.0385,0.0387,0,0,0,33,1,onethree,,,,,,,,,,,,,,,,,,,,,,,,,,,,,,,,,,,,,,,,,,,,,,,,,,,,,,,,,,,,,,,,,,,,,,,,,,,,,,,,,,,,,,,,,,,,,,,,,,,,,,,,,,,,,,,,,,,,,,,,,,,,,,,,,,,,,,,,,
,,6523f8d76e87618c47c4ac85,2024-02-19_03h15.14.025,kallum_motion_pilot,2023.2.2,Win32,60.24096386,6523f8d76e87618c47c4ac85,65d2b6c8f2eece985d8e374c,65d2b9a1f2eece985d8e37c7,0.039,0.0391,0,1,1,158,1,eightsix,,,,,,,,,,,,,,,,,,,,,,,,,,,,,,,,,,,,,,,,,,,,,,,,,,,,,,,,,,,,,,,,,,,,,,,,,,,,,,,,,,,,,,,,,,,,,,,,,,,,,,,,,,,,,,,,,,,,,,,,,,,,,,,,,,,,,,,,,
,,6523f8d76e87618c47c4ac85,2024-02-19_03h15.14.025,kallum_motion_pilot,2023.2.2,Win32,60.24096386,6523f8d76e87618c47c4ac85,65d2b6c8f2eece985d8e374c,65d2b9a1f2eece985d8e37c7,0.0393,0.0393,0,2,2,143,1,eightseven,,,,,,,,,,,,,,,,,,,,,,,,,,,,,,,,,,,,,,,,,,,,,,,,,,,,,,,,,,,,,,,,,,,,,,,,,,,,,,,,,,,,,,,,,,,,,,,,,,,,,,,,,,,,,,,,,,,,,,,,,,,,,,,,,,,,,,,,,
,,6523f8d76e87618c47c4ac85,2024-02-19_03h15.14.025,kallum_motion_pilot,2023.2.2,Win32,60.24096386,6523f8d76e87618c47c4ac85,65d2b6c8f2eece985d8e374c,65d2b9a1f2eece985d8e37c7,0.0394,0.0395,0,3,3,93,1,seveneight,,,,,,,,,,,,,,,,,,,,,,,,,,,,,,,,,,,,,,,,,,,,,,,,,,,,,,,,,,,,,,,,,,,,,,,,,,,,,,,,,,,,,,,,,,,,,,,,,,,,,,,,,,,,,,,,,,,,,,,,,,,,,,,,,,,,,,,,,
,,6523f8d76e87618c47c4ac85,2024-02-19_03h15.14.025,kallum_motion_pilot,2023.2.2,Win32,60.24096386,6523f8d76e87618c47c4ac85,65d2b6c8f2eece985d8e374c,65d2b9a1f2eece985d8e37c7,0.0397,0.0398,0,4,4,38,1,fourtwo,,,,,,,,,,,,,,,,,,,,,,,,,,,,,,,,,,,,,,,,,,,,,,,,,,,,,,,,,,,,,,,,,,,,,,,,,,,,,,,,,,,,,,,,,,,,,,,,,,,,,,,,,,,,,,,,,,,,,,,,,,,,,,,,,,,,,,,,,
,,6523f8d76e87618c47c4ac85,2024-02-19_03h15.14.025,kallum_motion_pilot,2023.2.2,Win32,60.24096386,6523f8d76e87618c47c4ac85,65d2b6c8f2eece985d8e374c,65d2b9a1f2eece985d8e37c7,0.0399,0.04,0,5,5,132,1,sevenfive,,,,,,,,,,,,,,,,,,,,,,,,,,,,,,,,,,,,,,,,,,,,,,,,,,,,,,,,,,,,,,,,,,,,,,,,,,,,,,,,,,,,,,,,,,,,,,,,,,,,,,,,,,,,,,,,,,,,,,,,,,,,,,,,,,,,,,,,,
,,6523f8d76e87618c47c4ac85,2024-02-19_03h15.14.025,kallum_motion_pilot,2023.2.2,Win32,60.24096386,6523f8d76e87618c47c4ac85,65d2b6c8f2eece985d8e374c,65d2b9a1f2eece985d8e37c7,0.04,0.0401,0,6,6,64,1,onetwo,,,,,,,,,,,,,,,,,,,,,,,,,,,,,,,,,,,,,,,,,,,,,,,,,,,,,,,,,,,,,,,,,,,,,,,,,,,,,,,,,,,,,,,,,,,,,,,,,,,,,,,,,,,,,,,,,,,,,,,,,,,,,,,,,,,,,,,,,
,,6523f8d76e87618c47c4ac85,2024-02-19_03h15.14.025,kallum_motion_pilot,2023.2.2,Win32,60.24096386,6523f8d76e87618c47c4ac85,65d2b6c8f2eece985d8e374c,65d2b9a1f2eece985d8e37c7,0.0403,0.0404,0,7,7,9,1,onethree,,,,,,,,,,,,,,,,,,,,,,,,,,,,,,,,,,,,,,,,,,,,,,,,,,,,,,,,,,,,,,,,,,,,,,,,,,,,,,,,,,,,,,,,,,,,,,,,,,,,,,,,,,,,,,,,,,,,,,,,,,,,,,,,,,,,,,,,,
,,6523f8d76e87618c47c4ac85,2024-02-19_03h15.14.025,kallum_motion_pilot,2023.2.2,Win32,60.24096386,6523f8d76e87618c47c4ac85,65d2b6c8f2eece985d8e374c,65d2b9a1f2eece985d8e37c7,0.0406,0.0406,0,8,8,71,1,fourthree,,,,,,,,,,,,,,,,,,,,,,,,,,,,,,,,,,,,,,,,,,,,,,,,,,,,,,,,,,,,,,,,,,,,,,,,,,,,,,,,,,,,,,,,,,,,,,,,,,,,,,,,,,,,,,,,,,,,,,,,,,,,,,,,,,,,,,,,,
,,6523f8d76e87618c47c4ac85,2024-02-19_03h15.14.025,kallum_motion_pilot,2023.2.2,Win32,60.24096386,6523f8d76e87618c47c4ac85,65d2b6c8f2eece985d8e374c,65d2b9a1f2eece985d8e37c7,0.0408,0.0408,0,9,9,21,1,threefour,,,,,,,,,,,,,,,,,,,,,,,,,,,,,,,,,,,,,,,,,,,,,,,,,,,,,,,,,,,,,,,,,,,,,,,,,,,,,,,,,,,,,,,,,,,,,,,,,,,,,,,,,,,,,,,,,,,,,,,,,,,,,,,,,,,,,,,,,
,,6523f8d76e87618c47c4ac85,2024-02-19_03h15.14.025,kallum_motion_pilot,2023.2.2,Win32,60.24096386,6523f8d76e87618c47c4ac85,65d2b6c8f2eece985d8e374c,65d2b9a1f2eece985d8e37c7,0.041,0.041,0,10,10,50,1,twoone,,,,,,,,,,,,,,,,,,,,,,,,,,,,,,,,,,,,,,,,,,,,,,,,,,,,,,,,,,,,,,,,,,,,,,,,,,,,,,,,,,,,,,,,,,,,,,,,,,,,,,,,,,,,,,,,,,,,,,,,,,,,,,,,,,,,,,,,,
,,6523f8d76e87618c47c4ac85,2024-02-19_03h15.14.025,kallum_motion_pilot,2023.2.2,Win32,60.24096386,6523f8d76e87618c47c4ac85,65d2b6c8f2eece985d8e374c,65d2b9a1f2eece985d8e37c7,0.0411,0.0412,0,11,11,123,1,sixeight,,,,,,,,,,,,,,,,,,,,,,,,,,,,,,,,,,,,,,,,,,,,,,,,,,,,,,,,,,,,,,,,,,,,,,,,,,,,,,,,,,,,,,,,,,,,,,,,,,,,,,,,,,,,,,,,,,,,,,,,,,,,,,,,,,,,,,,,,
,,6523f8d76e87618c47c4ac85,2024-02-19_03h15.14.025,kallum_motion_pilot,2023.2.2,Win32,60.24096386,6523f8d76e87618c47c4ac85,65d2b6c8f2eece985d8e374c,65d2b9a1f2eece985d8e37c7,0.0414,0.0415,0,12,12,88,1,fivesix,,,,,,,,,,,,,,,,,,,,,,,,,,,,,,,,,,,,,,,,,,,,,,,,,,,,,,,,,,,,,,,,,,,,,,,,,,,,,,,,,,,,,,,,,,,,,,,,,,,,,,,,,,,,,,,,,,,,,,,,,,,,,,,,,,,,,,,,,
,,6523f8d76e87618c47c4ac85,2024-02-19_03h15.14.025,kallum_motion_pilot,2023.2.2,Win32,60.24096386,6523f8d76e87618c47c4ac85,65d2b6c8f2eece985d8e374c,65d2b9a1f2eece985d8e37c7,0.0415,0.0416,0,13,13,37,1,threefour,,,,,,,,,,,,,,,,,,,,,,,,,,,,,,,,,,,,,,,,,,,,,,,,,,,,,,,,,,,,,,,,,,,,,,,,,,,,,,,,,,,,,,,,,,,,,,,,,,,,,,,,,,,,,,,,,,,,,,,,,,,,,,,,,,,,,,,,,
,,6523f8d76e87618c47c4ac85,2024-02-19_03h15.14.025,kallum_motion_pilot,2023.2.2,Win32,60.24096386,6523f8d76e87618c47c4ac85,65d2b6c8f2eece985d8e374c,65d2b9a1f2eece985d8e37c7,0.0417,0.0417,0,14,14,62,1,fourtwo,,,,,,,,,,,,,,,,,,,,,,,,,,,,,,,,,,,,,,,,,,,,,,,,,,,,,,,,,,,,,,,,,,,,,,,,,,,,,,,,,,,,,,,,,,,,,,,,,,,,,,,,,,,,,,,,,,,,,,,,,,,,,,,,,,,,,,,,,
,,6523f8d76e87618c47c4ac85,2024-02-19_03h15.14.025,kallum_motion_pilot,2023.2.2,Win32,60.24096386,6523f8d76e87618c47c4ac85,65d2b6c8f2eece985d8e374c,65d2b9a1f2eece985d8e37c7,0.0418,0.0419,0,15,15,131,1,sixeight,,,,,,,,,,,,,,,,,,,,,,,,,,,,,,,,,,,,,,,,,,,,,,,,,,,,,,,,,,,,,,,,,,,,,,,,,,,,,,,,,,,,,,,,,,,,,,,,,,,,,,,,,,,,,,,,,,,,,,,,,,,,,,,,,,,,,,,,,
,,6523f8d76e87618c47c4ac85,2024-02-19_03h15.14.025,kallum_motion_pilot,2023.2.2,Win32,60.24096386,6523f8d76e87618c47c4ac85,65d2b6c8f2eece985d8e374c,65d2b9a1f2eece985d8e37c7,0.0421,0.0422,0,16,16,118,1,eightsix,,,,,,,,,,,,,,,,,,,,,,,,,,,,,,,,,,,,,,,,,,,,,,,,,,,,,,,,,,,,,,,,,,,,,,,,,,,,,,,,,,,,,,,,,,,,,,,,,,,,,,,,,,,,,,,,,,,,,,,,,,,,,,,,,,,,,,,,,
,,6523f8d76e87618c47c4ac85,2024-02-19_03h15.14.025,kallum_motion_pilot,2023.2.2,Win32,60.24096386,6523f8d76e87618c47c4ac85,65d2b6c8f2eece985d8e374c,65d2b9a1f2eece985d8e37c7,0.0422,0.0423,0,17,17,29,1,threefour,,,,,,,,,,,,,,,,,,,,,,,,,,,,,,,,,,,,,,,,,,,,,,,,,,,,,,,,,,,,,,,,,,,,,,,,,,,,,,,,,,,,,,,,,,,,,,,,,,,,,,,,,,,,,,,,,,,,,,,,,,,,,,,,,,,,,,,,,
,,6523f8d76e87618c47c4ac85,2024-02-19_03h15.14.025,kallum_motion_pilot,2023.2.2,Win32,60.24096386,6523f8d76e87618c47c4ac85,65d2b6c8f2eece985d8e374c,65d2b9a1f2eece985d8e37c7,0.0425,0.0425,0,18,18,59,1,twofour,,,,,,,,,,,,,,,,,,,,,,,,,,,,,,,,,,,,,,,,,,,,,,,,,,,,,,,,,,,,,,,,,,,,,,,,,,,,,,,,,,,,,,,,,,,,,,,,,,,,,,,,,,,,,,,,,,,,,,,,,,,,,,,,,,,,,,,,,
,,6523f8d76e87618c47c4ac85,2024-02-19_03h15.14.025,kallum_motion_pilot,2023.2.2,Win32,60.24096386,6523f8d76e87618c47c4ac85,65d2b6c8f2eece985d8e374c,65d2b9a1f2eece985d8e37c7,0.0426,0.0426,0,19,19,117,1,seveneight,,,,,,,,,,,,,,,,,,,,,,,,,,,,,,,,,,,,,,,,,,,,,,,,,,,,,,,,,,,,,,,,,,,,,,,,,,,,,,,,,,,,,,,,,,,,,,,,,,,,,,,,,,,,,,,,,,,,,,,,,,,,,,,,,,,,,,,,,
,,6523f8d76e87618c47c4ac85,2024-02-19_03h15.14.025,kallum_motion_pilot,2023.2.2,Win32,60.24096386,6523f8d76e87618c47c4ac85,65d2b6c8f2eece985d8e374c,65d2b9a1f2eece985d8e37c7,0.0428,0.0429,0,20,20,94,1,eightsix,,,,,,,,,,,,,,,,,,,,,,,,,,,,,,,,,,,,,,,,,,,,,,,,,,,,,,,,,,,,,,,,,,,,,,,,,,,,,,,,,,,,,,,,,,,,,,,,,,,,,,,,,,,,,,,,,,,,,,,,,,,,,,,,,,,,,,,,,
,,6523f8d76e87618c47c4ac85,2024-02-19_03h15.14.025,kallum_motion_pilot,2023.2.2,Win32,60.24096386,6523f8d76e87618c47c4ac85,65d2b6c8f2eece985d8e374c,65d2b9a1f2eece985d8e37c7,0.043,0.043,0,21,21,150,1,eightsix,,,,,,,,,,,,,,,,,,,,,,,,,,,,,,,,,,,,,,,,,,,,,,,,,,,,,,,,,,,,,,,,,,,,,,,,,,,,,,,,,,,,,,,,,,,,,,,,,,,,,,,,,,,,,,,,,,,,,,,,,,,,,,,,,,,,,,,,,
,,6523f8d76e87618c47c4ac85,2024-02-19_03h15.14.025,kallum_motion_pilot,2023.2.2,Win32,60.24096386,6523f8d76e87618c47c4ac85,65d2b6c8f2eece985d8e374c,65d2b9a1f2eece985d8e37c7,0.0431,0.0433,0,22,22,151,1,eightseven,,,,,,,,,,,,,,,,,,,,,,,,,,,,,,,,,,,,,,,,,,,,,,,,,,,,,,,,,,,,,,,,,,,,,,,,,,,,,,,,,,,,,,,,,,,,,,,,,,,,,,,,,,,,,,,,,,,,,,,,,,,,,,,,,,,,,,,,,
,,6523f8d76e87618c47c4ac85,2024-02-19_03h15.14.025,kallum_motion_pilot,2023.2.2,Win32,60.24096386,6523f8d76e87618c47c4ac85,65d2b6c8f2eece985d8e374c,65d2b9a1f2eece985d8e37c7,0.0433,0.0434,0,23,23,14,1,fourtwo,,,,,,,,,,,,,,,,,,,,,,,,,,,,,,,,,,,,,,,,,,,,,,,,,,,,,,,,,,,,,,,,,,,,,,,,,,,,,,,,,,,,,,,,,,,,,,,,,,,,,,,,,,,,,,,,,,,,,,,,,,,,,,,,,,,,,,,,,
,,6523f8d76e87618c47c4ac85,2024-02-19_03h15.14.025,kallum_motion_pilot,2023.2.2,Win32,60.24096386,6523f8d76e87618c47c4ac85,65d2b6c8f2eece985d8e374c,65d2b9a1f2eece985d8e37c7,0.0435,0.0436,0,24,24,2,1,twoone,,,,,,,,,,,,,,,,,,,,,,,,,,,,,,,,,,,,,,,,,,,,,,,,,,,,,,,,,,,,,,,,,,,,,,,,,,,,,,,,,,,,,,,,,,,,,,,,,,,,,,,,,,,,,,,,,,,,,,,,,,,,,,,,,,,,,,,,,
,,6523f8d76e87618c47c4ac85,2024-02-19_03h15.14.025,kallum_motion_pilot,2023.2.2,Win32,60.24096386,6523f8d76e87618c47c4ac85,65d2b6c8f2eece985d8e374c,65d2b9a1f2eece985d8e37c7,0.0438,0.0439,0,25,25,40,1,onetwo,,,,,,,,,,,,,,,,,,,,,,,,,,,,,,,,,,,,,,,,,,,,,,,,,,,,,,,,,,,,,,,,,,,,,,,,,,,,,,,,,,,,,,,,,,,,,,,,,,,,,,,,,,,,,,,,,,,,,,,,,,,,,,,,,,,,,,,,,
,,6523f8d76e87618c47c4ac85,2024-02-19_03h15.14.025,kallum_motion_pilot,2023.2.2,Win32,60.24096386,6523f8d76e87618c47c4ac85,65d2b6c8f2eece985d8e374c,65d2b9a1f2eece985d8e37c7,0.0439,0.044,0,26,26,144,1,fivesix,,,,,,,,,,,,,,,,,,,,,,,,,,,,,,,,,,,,,,,,,,,,,,,,,,,,,,,,,,,,,,,,,,,,,,,,,,,,,,,,,,,,,,,,,,,,,,,,,,,,,,,,,,,,,,,,,,,,,,,,,,,,,,,,,,,,,,,,,
,,6523f8d76e87618c47c4ac85,2024-02-19_03h15.14.025,kallum_motion_pilot,2023.2.2,Win32,60.24096386,6523f8d76e87618c47c4ac85,65d2b6c8f2eece985d8e374c,65d2b9a1f2eece985d8e37c7,0.044,0.0441,0,27,27,45,1,threefour,,,,,,,,,,,,,,,,,,,,,,,,,,,,,,,,,,,,,,,,,,,,,,,,,,,,,,,,,,,,,,,,,,,,,,,,,,,,,,,,,,,,,,,,,,,,,,,,,,,,,,,,,,,,,,,,,,,,,,,,,,,,,,,,,,,,,,,,,
,,6523f8d76e87618c47c4ac85,2024-02-19_03h15.14.025,kallum_motion_pilot,2023.2.2,Win32,60.24096386,6523f8d76e87618c47c4ac85,65d2b6c8f2eece985d8e374c,65d2b9a1f2eece985d8e37c7,0.0443,0.0444,0,28,28,58,1,twoone,,,,,,,,,,,,,,,,,,,,,,,,,,,,,,,,,,,,,,,,,,,,,,,,,,,,,,,,,,,,,,,,,,,,,,,,,,,,,,,,,,,,,,,,,,,,,,,,,,,,,,,,,,,,,,,,,,,,,,,,,,,,,,,,,,,,,,,,,
,,6523f8d76e87618c47c4ac85,2024-02-19_03h15.14.025,kallum_motion_pilot,2023.2.2,Win32,60.24096386,6523f8d76e87618c47c4ac85,65d2b6c8f2eece985d8e374c,65d2b9a1f2eece985d8e37c7,0.0445,0.0446,0,29,29,104,1,fivesix,,,,,,,,,,,,,,,,,,,,,,,,,,,,,,,,,,,,,,,,,,,,,,,,,,,,,,,,,,,,,,,,,,,,,,,,,,,,,,,,,,,,,,,,,,,,,,,,,,,,,,,,,,,,,,,,,,,,,,,,,,,,,,,,,,,,,,,,,
,,6523f8d76e87618c47c4ac85,2024-02-19_03h15.14.025,kallum_motion_pilot,2023.2.2,Win32,60.24096386,6523f8d76e87618c47c4ac85,65d2b6c8f2eece985d8e374c,65d2b9a1f2eece985d8e37c7,0.0447,0.0448,0,30,30,77,1,threefour,,,,,,,,,,,,,,,,,,,,,,,,,,,,,,,,,,,,,,,,,,,,,,,,,,,,,,,,,,,,,,,,,,,,,,,,,,,,,,,,,,,,,,,,,,,,,,,,,,,,,,,,,,,,,,,,,,,,,,,,,,,,,,,,,,,,,,,,,
,,6523f8d76e87618c47c4ac85,2024-02-19_03h15.14.025,kallum_motion_pilot,2023.2.2,Win32,60.24096386,6523f8d76e87618c47c4ac85,65d2b6c8f2eece985d8e374c,65d2b9a1f2eece985d8e37c7,0.0449,0.0449,0,31,31,41,1,onethree,,,,,,,,,,,,,,,,,,,,,,,,,,,,,,,,,,,,,,,,,,,,,,,,,,,,,,,,,,,,,,,,,,,,,,,,,,,,,,,,,,,,,,,,,,,,,,,,,,,,,,,,,,,,,,,,,,,,,,,,,,,,,,,,,,,,,,,,,
,,6523f8d76e87618c47c4ac85,2024-02-19_03h15.14.025,kallum_motion_pilot,2023.2.2,Win32,60.24096386,6523f8d76e87618c47c4ac85,65d2b6c8f2eece985d8e374c,65d2b9a1f2eece985d8e37c7,0.0451,0.0452,0,32,32,100,1,sevenfive,,,,,,,,,,,,,,,,,,,,,,,,,,,,,,,,,,,,,,,,,,,,,,,,,,,,,,,,,,,,,,,,,,,,,,,,,,,,,,,,,,,,,,,,,,,,,,,,,,,,,,,,,,,,,,,,,,,,,,,,,,,,,,,,,,,,,,,,,
,,6523f8d76e87618c47c4ac85,2024-02-19_03h15.14.025,kallum_motion_pilot,2023.2.2,Win32,60.24096386,6523f8d76e87618c47c4ac85,65d2b6c8f2eece985d8e374c,65d2b9a1f2eece985d8e37c7,0.0452,0.0453,0,33,33,155,1,sixeight,,,,,,,,,,,,,,,,,,,,,,,,,,,,,,,,,,,,,,,,,,,,,,,,,,,,,,,,,,,,,,,,,,,,,,,,,,,,,,,,,,,,,,,,,,,,,,,,,,,,,,,,,,,,,,,,,,,,,,,,,,,,,,,,,,,,,,,,,
,,6523f8d76e87618c47c4ac85,2024-02-19_03h15.14.025,kallum_motion_pilot,2023.2.2,Win32,60.24096386,6523f8d76e87618c47c4ac85,65d2b6c8f2eece985d8e374c,65d2b9a1f2eece985d8e37c7,0.0455,0.0456,0,34,34,24,1,onetwo,,,,,,,,,,,,,,,,,,,,,,,,,,,,,,,,,,,,,,,,,,,,,,,,,,,,,,,,,,,,,,,,,,,,,,,,,,,,,,,,,,,,,,,,,,,,,,,,,,,,,,,,,,,,,,,,,,,,,,,,,,,,,,,,,,,,,,,,,
,,6523f8d76e87618c47c4ac85,2024-02-19_03h15.14.025,kallum_motion_pilot,2023.2.2,Win32,60.24096386,6523f8d76e87618c47c4ac85,65d2b6c8f2eece985d8e374c,65d2b9a1f2eece985d8e37c7,0.0457,0.0457,0,35,35,61,1,threefour,,,,,,,,,,,,,,,,,,,,,,,,,,,,,,,,,,,,,,,,,,,,,,,,,,,,,,,,,,,,,,,,,,,,,,,,,,,,,,,,,,,,,,,,,,,,,,,,,,,,,,,,,,,,,,,,,,,,,,,,,,,,,,,,,,,,,,,,,
,,6523f8d76e87618c47c4ac85,2024-02-19_03h15.14.025,kallum_motion_pilot,2023.2.2,Win32,60.24096386,6523f8d76e87618c47c4ac85,65d2b6c8f2eece985d8e374c,65d2b9a1f2eece985d8e37c7,0.0459,0.0461,0,36,36,140,1,sevenfive,,,,,,,,,,,,,,,,,,,,,,,,,,,,,,,,,,,,,,,,,,,,,,,,,,,,,,,,,,,,,,,,,,,,,,,,,,,,,,,,,,,,,,,,,,,,,,,,,,,,,,,,,,,,,,,,,,,,,,,,,,,,,,,,,,,,,,,,,
,,6523f8d76e87618c47c4ac85,2024-02-19_03h15.14.025,kallum_motion_pilot,2023.2.2,Win32,60.24096386,6523f8d76e87618c47c4ac85,65d2b6c8f2eece985d8e374c,65d2b9a1f2eece985d8e37c7,0.0462,0.0465,0,37,37,56,1,onetwo,,,,,,,,,,,,,,,,,,,,,,,,,,,,,,,,,,,,,,,,,,,,,,,,,,,,,,,,,,,,,,,,,,,,,,,,,,,,,,,,,,,,,,,,,,,,,,,,,,,,,,,,,,,,,,,,,,,,,,,,,,,,,,,,,,,,,,,,,
,,6523f8d76e87618c47c4ac85,2024-02-19_03h15.14.025,kallum_motion_pilot,2023.2.2,Win32,60.24096386,6523f8d76e87618c47c4ac85,65d2b6c8f2eece985d8e374c,65d2b9a1f2eece985d8e37c7,0.0473,0.0474,0,38,38,51,1,twofour,,,,,,,,,,,,,,,,,,,,,,,,,,,,,,,,,,,,,,,,,,,,,,,,,,,,,,,,,,,,,,,,,,,,,,,,,,,,,,,,,,,,,,,,,,,,,,,,,,,,,,,,,,,,,,,,,,,,,,,,,,,,,,,,,,,,,,,,,
,,6523f8d76e87618c47c4ac85,2024-02-19_03h15.14.025,kallum_motion_pilot,2023.2.2,Win32,60.24096386,6523f8d76e87618c47c4ac85,65d2b6c8f2eece985d8e374c,65d2b9a1f2eece985d8e37c7,0.0475,0.0476,0,39,39,95,1,eightseven,,,,,,,,,,,,,,,,,,,,,,,,,,,,,,,,,,,,,,,,,,,,,,,,,,,,,,,,,,,,,,,,,,,,,,,,,,,,,,,,,,,,,,,,,,,,,,,,,,,,,,,,,,,,,,,,,,,,,,,,,,,,,,,,,,,,,,,,,
,,6523f8d76e87618c47c4ac85,2024-02-19_03h15.14.025,kallum_motion_pilot,2023.2.2,Win32,60.24096386,6523f8d76e87618c47c4ac85,65d2b6c8f2eece985d8e374c,65d2b9a1f2eece985d8e37c7,0.0478,0.0479,0,40,40,81,1,fiveseven,,,,,,,,,,,,,,,,,,,,,,,,,,,,,,,,,,,,,,,,,,,,,,,,,,,,,,,,,,,,,,,,,,,,,,,,,,,,,,,,,,,,,,,,,,,,,,,,,,,,,,,,,,,,,,,,,,,,,,,,,,,,,,,,,,,,,,,,,
,,6523f8d76e87618c47c4ac85,2024-02-19_03h15.14.025,kallum_motion_pilot,2023.2.2,Win32,60.24096386,6523f8d76e87618c47c4ac85,65d2b6c8f2eece985d8e374c,65d2b9a1f2eece985d8e37c7,0.048,0.0481,0,41,41,84,1,sevenfive,,,,,,,,,,,,,,,,,,,,,,,,,,,,,,,,,,,,,,,,,,,,,,,,,,,,,,,,,,,,,,,,,,,,,,,,,,,,,,,,,,,,,,,,,,,,,,,,,,,,,,,,,,,,,,,,,,,,,,,,,,,,,,,,,,,,,,,,,
,,6523f8d76e87618c47c4ac85,2024-02-19_03h15.14.025,kallum_motion_pilot,2023.2.2,Win32,60.24096386,6523f8d76e87618c47c4ac85,65d2b6c8f2eece985d8e374c,65d2b9a1f2eece985d8e37c7,0.0482,0.0483,0,42,42,152,1,fivesix,,,,,,,,,,,,,,,,,,,,,,,,,,,,,,,,,,,,,,,,,,,,,,,,,,,,,,,,,,,,,,,,,,,,,,,,,,,,,,,,,,,,,,,,,,,,,,,,,,,,,,,,,,,,,,,,,,,,,,,,,,,,,,,,,,,,,,,,,
,,6523f8d76e87618c47c4ac85,2024-02-19_03h15.14.025,kallum_motion_pilot,2023.2.2,Win32,60.24096386,6523f8d76e87618c47c4ac85,65d2b6c8f2eece985d8e374c,65d2b9a1f2eece985d8e37c7,0.0484,0.0485,0,43,43,126,1,eightsix,,,,,,,,,,,,,,,,,,,,,,,,,,,,,,,,,,,,,,,,,,,,,,,,,,,,,,,,,,,,,,,,,,,,,,,,,,,,,,,,,,,,,,,,,,,,,,,,,,,,,,,,,,,,,,,,,,,,,,,,,,,,,,,,,,,,,,,,,
,,6523f8d76e87618c47c4ac85,2024-02-19_03h15.14.025,kallum_motion_pilot,2023.2.2,Win32,60.24096386,6523f8d76e87618c47c4ac85,65d2b6c8f2eece985d8e374c,65d2b9a1f2eece985d8e37c7,0.0487,0.0488,0,44,44,17,1,onethree,,,,,,,,,,,,,,,,,,,,,,,,,,,,,,,,,,,,,,,,,,,,,,,,,,,,,,,,,,,,,,,,,,,,,,,,,,,,,,,,,,,,,,,,,,,,,,,,,,,,,,,,,,,,,,,,,,,,,,,,,,,,,,,,,,,,,,,,,
,,6523f8d76e87618c47c4ac85,2024-02-19_03h15.14.025,kallum_motion_pilot,2023.2.2,Win32,60.24096386,6523f8d76e87618c47c4ac85,65d2b6c8f2eece985d8e374c,65d2b9a1f2eece985d8e37c7,0.0489,0.049,0,45,45,34,1,twoone,,,,,,,,,,,,,,,,,,,,,,,,,,,,,,,,,,,,,,,,,,,,,,,,,,,,,,,,,,,,,,,,,,,,,,,,,,,,,,,,,,,,,,,,,,,,,,,,,,,,,,,,,,,,,,,,,,,,,,,,,,,,,,,,,,,,,,,,,
,,6523f8d76e87618c47c4ac85,2024-02-19_03h15.14.025,kallum_motion_pilot,2023.2.2,Win32,60.24096386,6523f8d76e87618c47c4ac85,65d2b6c8f2eece985d8e374c,65d2b9a1f2eece985d8e37c7,0.0491,0.0493,0,46,46,23,1,fourthree,,,,,,,,,,,,,,,,,,,,,,,,,,,,,,,,,,,,,,,,,,,,,,,,,,,,,,,,,,,,,,,,,,,,,,,,,,,,,,,,,,,,,,,,,,,,,,,,,,,,,,,,,,,,,,,,,,,,,,,,,,,,,,,,,,,,,,,,,
,,6523f8d76e87618c47c4ac85,2024-02-19_03h15.14.025,kallum_motion_pilot,2023.2.2,Win32,60.24096386,6523f8d76e87618c47c4ac85,65d2b6c8f2eece985d8e374c,65d2b9a1f2eece985d8e37c7,0.0494,0.0495,0,47,47,147,1,sixeight,,,,,,,,,,,,,,,,,,,,,,,,,,,,,,,,,,,,,,,,,,,,,,,,,,,,,,,,,,,,,,,,,,,,,,,,,,,,,,,,,,,,,,,,,,,,,,,,,,,,,,,,,,,,,,,,,,,,,,,,,,,,,,,,,,,,,,,,,
,,6523f8d76e87618c47c4ac85,2024-02-19_03h15.14.025,kallum_motion_pilot,2023.2.2,Win32,60.24096386,6523f8d76e87618c47c4ac85,65d2b6c8f2eece985d8e374c,65d2b9a1f2eece985d8e37c7,0.0496,0.0497,0,48,48,68,1,threeone,,,,,,,,,,,,,,,,,,,,,,,,,,,,,,,,,,,,,,,,,,,,,,,,,,,,,,,,,,,,,,,,,,,,,,,,,,,,,,,,,,,,,,,,,,,,,,,,,,,,,,,,,,,,,,,,,,,,,,,,,,,,,,,,,,,,,,,,,
,,6523f8d76e87618c47c4ac85,2024-02-19_03h15.14.025,kallum_motion_pilot,2023.2.2,Win32,60.24096386,6523f8d76e87618c47c4ac85,65d2b6c8f2eece985d8e374c,65d2b9a1f2eece985d8e37c7,0.0499,0.05,0,49,49,0,1,onetwo,,,,,,,,,,,,,,,,,,,,,,,,,,,,,,,,,,,,,,,,,,,,,,,,,,,,,,,,,,,,,,,,,,,,,,,,,,,,,,,,,,,,,,,,,,,,,,,,,,,,,,,,,,,,,,,,,,,,,,,,,,,,,,,,,,,,,,,,,
,,6523f8d76e87618c47c4ac85,2024-02-19_03h15.14.025,kallum_motion_pilot,2023.2.2,Win32,60.24096386,6523f8d76e87618c47c4ac85,65d2b6c8f2eece985d8e374c,65d2b9a1f2eece985d8e37c7,0.0501,0.0502,0,50,50,12,1,threeone,,,,,,,,,,,,,,,,,,,,,,,,,,,,,,,,,,,,,,,,,,,,,,,,,,,,,,,,,,,,,,,,,,,,,,,,,,,,,,,,,,,,,,,,,,,,,,,,,,,,,,,,,,,,,,,,,,,,,,,,,,,,,,,,,,,,,,,,,
,,6523f8d76e87618c47c4ac85,2024-02-19_03h15.14.025,kallum_motion_pilot,2023.2.2,Win32,60.24096386,6523f8d76e87618c47c4ac85,65d2b6c8f2eece985d8e374c,65d2b9a1f2eece985d8e37c7,0.0502,0.0504,0,51,51,27,1,twofour,,,,,,,,,,,,,,,,,,,,,,,,,,,,,,,,,,,,,,,,,,,,,,,,,,,,,,,,,,,,,,,,,,,,,,,,,,,,,,,,,,,,,,,,,,,,,,,,,,,,,,,,,,,,,,,,,,,,,,,,,,,,,,,,,,,,,,,,,
,,6523f8d76e87618c47c4ac85,2024-02-19_03h15.14.025,kallum_motion_pilot,2023.2.2,Win32,60.24096386,6523f8d76e87618c47c4ac85,65d2b6c8f2eece985d8e374c,65d2b9a1f2eece985d8e37c7,0.0506,0.0507,0,52,52,8,1,onetwo,,,,,,,,,,,,,,,,,,,,,,,,,,,,,,,,,,,,,,,,,,,,,,,,,,,,,,,,,,,,,,,,,,,,,,,,,,,,,,,,,,,,,,,,,,,,,,,,,,,,,,,,,,,,,,,,,,,,,,,,,,,,,,,,,,,,,,,,,
,,6523f8d76e87618c47c4ac85,2024-02-19_03h15.14.025,kallum_motion_pilot,2023.2.2,Win32,60.24096386,6523f8d76e87618c47c4ac85,65d2b6c8f2eece985d8e374c,65d2b9a1f2eece985d8e37c7,0.0507,0.0508,0,53,53,156,1,sevenfive,,,,,,,,,,,,,,,,,,,,,,,,,,,,,,,,,,,,,,,,,,,,,,,,,,,,,,,,,,,,,,,,,,,,,,,,,,,,,,,,,,,,,,,,,,,,,,,,,,,,,,,,,,,,,,,,,,,,,,,,,,,,,,,,,,,,,,,,,
,,6523f8d76e87618c47c4ac85,2024-02-19_03h15.14.025,kallum_motion_pilot,2023.2.2,Win32,60.24096386,6523f8d76e87618c47c4ac85,65d2b6c8f2eece985d8e374c,65d2b9a1f2eece985d8e37c7,0.0509,0.051,0,54,54,20,1,threeone,,,,,,,,,,,,,,,,,,,,,,,,,,,,,,,,,,,,,,,,,,,,,,,,,,,,,,,,,,,,,,,,,,,,,,,,,,,,,,,,,,,,,,,,,,,,,,,,,,,,,,,,,,,,,,,,,,,,,,,,,,,,,,,,,,,,,,,,,
,,6523f8d76e87618c47c4ac85,2024-02-19_03h15.14.025,kallum_motion_pilot,2023.2.2,Win32,60.24096386,6523f8d76e87618c47c4ac85,65d2b6c8f2eece985d8e374c,65d2b9a1f2eece985d8e37c7,0.0512,0.0512,0,55,55,47,1,fourthree,,,,,,,,,,,,,,,,,,,,,,,,,,,,,,,,,,,,,,,,,,,,,,,,,,,,,,,,,,,,,,,,,,,,,,,,,,,,,,,,,,,,,,,,,,,,,,,,,,,,,,,,,,,,,,,,,,,,,,,,,,,,,,,,,,,,,,,,,
,,6523f8d76e87618c47c4ac85,2024-02-19_03h15.14.025,kallum_motion_pilot,2023.2.2,Win32,60.24096386,6523f8d76e87618c47c4ac85,65d2b6c8f2eece985d8e374c,65d2b9a1f2eece985d8e37c7,0.0514,0.0515,0,56,56,30,1,fourtwo,,,,,,,,,,,,,,,,,,,,,,,,,,,,,,,,,,,,,,,,,,,,,,,,,,,,,,,,,,,,,,,,,,,,,,,,,,,,,,,,,,,,,,,,,,,,,,,,,,,,,,,,,,,,,,,,,,,,,,,,,,,,,,,,,,,,,,,,,
,,6523f8d76e87618c47c4ac85,2024-02-19_03h15.14.025,kallum_motion_pilot,2023.2.2,Win32,60.24096386,6523f8d76e87618c47c4ac85,65d2b6c8f2eece985d8e374c,65d2b9a1f2eece985d8e37c7,0.0516,0.0517,0,57,57,83,1,sixeight,,,,,,,,,,,,,,,,,,,,,,,,,,,,,,,,,,,,,,,,,,,,,,,,,,,,,,,,,,,,,,,,,,,,,,,,,,,,,,,,,,,,,,,,,,,,,,,,,,,,,,,,,,,,,,,,,,,,,,,,,,,,,,,,,,,,,,,,,
,,6523f8d76e87618c47c4ac85,2024-02-19_03h15.14.025,kallum_motion_pilot,2023.2.2,Win32,60.24096386,6523f8d76e87618c47c4ac85,65d2b6c8f2eece985d8e374c,65d2b9a1f2eece985d8e37c7,0.0518,0.0519,0,58,58,11,1,twofour,,,,,,,,,,,,,,,,,,,,,,,,,,,,,,,,,,,,,,,,,,,,,,,,,,,,,,,,,,,,,,,,,,,,,,,,,,,,,,,,,,,,,,,,,,,,,,,,,,,,,,,,,,,,,,,,,,,,,,,,,,,,,,,,,,,,,,,,,
,,6523f8d76e87618c47c4ac85,2024-02-19_03h15.14.025,kallum_motion_pilot,2023.2.2,Win32,60.24096386,6523f8d76e87618c47c4ac85,65d2b6c8f2eece985d8e374c,65d2b9a1f2eece985d8e37c7,0.0521,0.0522,0,59,59,125,1,seveneight,,,,,,,,,,,,,,,,,,,,,,,,,,,,,,,,,,,,,,,,,,,,,,,,,,,,,,,,,,,,,,,,,,,,,,,,,,,,,,,,,,,,,,,,,,,,,,,,,,,,,,,,,,,,,,,,,,,,,,,,,,,,,,,,,,,,,,,,,
,,6523f8d76e87618c47c4ac85,2024-02-19_03h15.14.025,kallum_motion_pilot,2023.2.2,Win32,60.24096386,6523f8d76e87618c47c4ac85,65d2b6c8f2eece985d8e374c,65d2b9a1f2eece985d8e37c7,0.0523,0.0524,0,60,60,122,1,sixfive,,,,,,,,,,,,,,,,,,,,,,,,,,,,,,,,,,,,,,,,,,,,,,,,,,,,,,,,,,,,,,,,,,,,,,,,,,,,,,,,,,,,,,,,,,,,,,,,,,,,,,,,,,,,,,,,,,,,,,,,,,,,,,,,,,,,,,,,,
,,6523f8d76e87618c47c4ac85,2024-02-19_03h15.14.025,kallum_motion_pilot,2023.2.2,Win32,60.24096386,6523f8d76e87618c47c4ac85,65d2b6c8f2eece985d8e374c,65d2b9a1f2eece985d8e37c7,0.0526,0.0526,0,61,61,3,1,twofour,,,,,,,,,,,,,,,,,,,,,,,,,,,,,,,,,,,,,,,,,,,,,,,,,,,,,,,,,,,,,,,,,,,,,,,,,,,,,,,,,,,,,,,,,,,,,,,,,,,,,,,,,,,,,,,,,,,,,,,,,,,,,,,,,,,,,,,,,
,,6523f8d76e87618c47c4ac85,2024-02-19_03h15.14.025,kallum_motion_pilot,2023.2.2,Win32,60.24096386,6523f8d76e87618c47c4ac85,65d2b6c8f2eece985d8e374c,65d2b9a1f2eece985d8e37c7,0.0528,0.0528,0,62,62,135,1,eightseven,,,,,,,,,,,,,,,,,,,,,,,,,,,,,,,,,,,,,,,,,,,,,,,,,,,,,,,,,,,,,,,,,,,,,,,,,,,,,,,,,,,,,,,,,,,,,,,,,,,,,,,,,,,,,,,,,,,,,,,,,,,,,,,,,,,,,,,,,
,,6523f8d76e87618c47c4ac85,2024-02-19_03h15.14.025,kallum_motion_pilot,2023.2.2,Win32,60.24096386,6523f8d76e87618c47c4ac85,65d2b6c8f2eece985d8e374c,65d2b9a1f2eece985d8e37c7,0.053,0.0531,0,63,63,87,1,eightseven,,,,,,,,,,,,,,,,,,,,,,,,,,,,,,,,,,,,,,,,,,,,,,,,,,,,,,,,,,,,,,,,,,,,,,,,,,,,,,,,,,,,,,,,,,,,,,,,,,,,,,,,,,,,,,,,,,,,,,,,,,,,,,,,,,,,,,,,,
,,6523f8d76e87618c47c4ac85,2024-02-19_03h15.14.025,kallum_motion_pilot,2023.2.2,Win32,60.24096386,6523f8d76e87618c47c4ac85,65d2b6c8f2eece985d8e374c,65d2b9a1f2eece985d8e37c7,0.0533,0.0533,0,64,64,36,1,threeone,,,,,,,,,,,,,,,,,,,,,,,,,,,,,,,,,,,,,,,,,,,,,,,,,,,,,,,,,,,,,,,,,,,,,,,,,,,,,,,,,,,,,,,,,,,,,,,,,,,,,,,,,,,,,,,,,,,,,,,,,,,,,,,,,,,,,,,,,
,,6523f8d76e87618c47c4ac85,2024-02-19_03h15.14.025,kallum_motion_pilot,2023.2.2,Win32,60.24096386,6523f8d76e87618c47c4ac85,65d2b6c8f2eece985d8e374c,65d2b9a1f2eece985d8e37c7,0.0535,0.0535,0,65,65,136,1,fivesix,,,,,,,,,,,,,,,,,,,,,,,,,,,,,,,,,,,,,,,,,,,,,,,,,,,,,,,,,,,,,,,,,,,,,,,,,,,,,,,,,,,,,,,,,,,,,,,,,,,,,,,,,,,,,,,,,,,,,,,,,,,,,,,,,,,,,,,,,
,,6523f8d76e87618c47c4ac85,2024-02-19_03h15.14.025,kallum_motion_pilot,2023.2.2,Win32,60.24096386,6523f8d76e87618c47c4ac85,65d2b6c8f2eece985d8e374c,65d2b9a1f2eece985d8e37c7,0.0536,0.0537,0,66,66,134,1,eightsix,,,,,,,,,,,,,,,,,,,,,,,,,,,,,,,,,,,,,,,,,,,,,,,,,,,,,,,,,,,,,,,,,,,,,,,,,,,,,,,,,,,,,,,,,,,,,,,,,,,,,,,,,,,,,,,,,,,,,,,,,,,,,,,,,,,,,,,,,
,,6523f8d76e87618c47c4ac85,2024-02-19_03h15.14.025,kallum_motion_pilot,2023.2.2,Win32,60.24096386,6523f8d76e87618c47c4ac85,65d2b6c8f2eece985d8e374c,65d2b9a1f2eece985d8e37c7,0.0538,0.054,0,67,67,159,1,eightseven,,,,,,,,,,,,,,,,,,,,,,,,,,,,,,,,,,,,,,,,,,,,,,,,,,,,,,,,,,,,,,,,,,,,,,,,,,,,,,,,,,,,,,,,,,,,,,,,,,,,,,,,,,,,,,,,,,,,,,,,,,,,,,,,,,,,,,,,,
,,6523f8d76e87618c47c4ac85,2024-02-19_03h15.14.025,kallum_motion_pilot,2023.2.2,Win32,60.24096386,6523f8d76e87618c47c4ac85,65d2b6c8f2eece985d8e374c,65d2b9a1f2eece985d8e37c7,0.0541,0.0541,0,68,68,55,1,fourthree,,,,,,,,,,,,,,,,,,,,,,,,,,,,,,,,,,,,,,,,,,,,,,,,,,,,,,,,,,,,,,,,,,,,,,,,,,,,,,,,,,,,,,,,,,,,,,,,,,,,,,,,,,,,,,,,,,,,,,,,,,,,,,,,,,,,,,,,,
,,6523f8d76e87618c47c4ac85,2024-02-19_03h15.14.025,kallum_motion_pilot,2023.2.2,Win32,60.24096386,6523f8d76e87618c47c4ac85,65d2b6c8f2eece985d8e374c,65d2b9a1f2eece985d8e37c7,0.0542,0.0543,0,69,69,67,1,twofour,,,,,,,,,,,,,,,,,,,,,,,,,,,,,,,,,,,,,,,,,,,,,,,,,,,,,,,,,,,,,,,,,,,,,,,,,,,,,,,,,,,,,,,,,,,,,,,,,,,,,,,,,,,,,,,,,,,,,,,,,,,,,,,,,,,,,,,,,
,,6523f8d76e87618c47c4ac85,2024-02-19_03h15.14.025,kallum_motion_pilot,2023.2.2,Win32,60.24096386,6523f8d76e87618c47c4ac85,65d2b6c8f2eece985d8e374c,65d2b9a1f2eece985d8e37c7,0.0544,0.0544,0,70,70,60,1,threeone,,,,,,,,,,,,,,,,,,,,,,,,,,,,,,,,,,,,,,,,,,,,,,,,,,,,,,,,,,,,,,,,,,,,,,,,,,,,,,,,,,,,,,,,,,,,,,,,,,,,,,,,,,,,,,,,,,,,,,,,,,,,,,,,,,,,,,,,,
,,6523f8d76e87618c47c4ac85,2024-02-19_03h15.14.025,kallum_motion_pilot,2023.2.2,Win32,60.24096386,6523f8d76e87618c47c4ac85,65d2b6c8f2eece985d8e374c,65d2b9a1f2eece985d8e37c7,0.0546,0.0546,0,71,71,70,1,fourtwo,,,,,,,,,,,,,,,,,,,,,,,,,,,,,,,,,,,,,,,,,,,,,,,,,,,,,,,,,,,,,,,,,,,,,,,,,,,,,,,,,,,,,,,,,,,,,,,,,,,,,,,,,,,,,,,,,,,,,,,,,,,,,,,,,,,,,,,,,
,,6523f8d76e87618c47c4ac85,2024-02-19_03h15.14.025,kallum_motion_pilot,2023.2.2,Win32,60.24096386,6523f8d76e87618c47c4ac85,65d2b6c8f2eece985d8e374c,65d2b9a1f2eece985d8e37c7,0.0547,0.0548,0,72,72,80,1,fivesix,,,,,,,,,,,,,,,,,,,,,,,,,,,,,,,,,,,,,,,,,,,,,,,,,,,,,,,,,,,,,,,,,,,,,,,,,,,,,,,,,,,,,,,,,,,,,,,,,,,,,,,,,,,,,,,,,,,,,,,,,,,,,,,,,,,,,,,,,
,,6523f8d76e87618c47c4ac85,2024-02-19_03h15.14.025,kallum_motion_pilot,2023.2.2,Win32,60.24096386,6523f8d76e87618c47c4ac85,65d2b6c8f2eece985d8e374c,65d2b9a1f2eece985d8e37c7,0.0549,0.055,0,73,73,129,1,fiveseven,,,,,,,,,,,,,,,,,,,,,,,,,,,,,,,,,,,,,,,,,,,,,,,,,,,,,,,,,,,,,,,,,,,,,,,,,,,,,,,,,,,,,,,,,,,,,,,,,,,,,,,,,,,,,,,,,,,,,,,,,,,,,,,,,,,,,,,,,
,,6523f8d76e87618c47c4ac85,2024-02-19_03h15.14.025,kallum_motion_pilot,2023.2.2,Win32,60.24096386,6523f8d76e87618c47c4ac85,65d2b6c8f2eece985d8e374c,65d2b9a1f2eece985d8e37c7,0.055,0.0551,0,74,74,142,1,eightsix,,,,,,,,,,,,,,,,,,,,,,,,,,,,,,,,,,,,,,,,,,,,,,,,,,,,,,,,,,,,,,,,,,,,,,,,,,,,,,,,,,,,,,,,,,,,,,,,,,,,,,,,,,,,,,,,,,,,,,,,,,,,,,,,,,,,,,,,,
,,6523f8d76e87618c47c4ac85,2024-02-19_03h15.14.025,kallum_motion_pilot,2023.2.2,Win32,60.24096386,6523f8d76e87618c47c4ac85,65d2b6c8f2eece985d8e374c,65d2b9a1f2eece985d8e37c7,0.0552,0.0553,0,75,75,96,1,fivesix,,,,,,,,,,,,,,,,,,,,,,,,,,,,,,,,,,,,,,,,,,,,,,,,,,,,,,,,,,,,,,,,,,,,,,,,,,,,,,,,,,,,,,,,,,,,,,,,,,,,,,,,,,,,,,,,,,,,,,,,,,,,,,,,,,,,,,,,,
,,6523f8d76e87618c47c4ac85,2024-02-19_03h15.14.025,kallum_motion_pilot,2023.2.2,Win32,60.24096386,6523f8d76e87618c47c4ac85,65d2b6c8f2eece985d8e374c,65d2b9a1f2eece985d8e37c7,0.0554,0.0554,0,76,76,92,1,sevenfive,,,,,,,,,,,,,,,,,,,,,,,,,,,,,,,,,,,,,,,,,,,,,,,,,,,,,,,,,,,,,,,,,,,,,,,,,,,,,,,,,,,,,,,,,,,,,,,,,,,,,,,,,,,,,,,,,,,,,,,,,,,,,,,,,,,,,,,,,
,,6523f8d76e87618c47c4ac85,2024-02-19_03h15.14.025,kallum_motion_pilot,2023.2.2,Win32,60.24096386,6523f8d76e87618c47c4ac85,65d2b6c8f2eece985d8e374c,65d2b9a1f2eece985d8e37c7,0.0556,0.0556,0,77,77,149,1,seveneight,,,,,,,,,,,,,,,,,,,,,,,,,,,,,,,,,,,,,,,,,,,,,,,,,,,,,,,,,,,,,,,,,,,,,,,,,,,,,,,,,,,,,,,,,,,,,,,,,,,,,,,,,,,,,,,,,,,,,,,,,,,,,,,,,,,,,,,,,
,,6523f8d76e87618c47c4ac85,2024-02-19_03h15.14.025,kallum_motion_pilot,2023.2.2,Win32,60.24096386,6523f8d76e87618c47c4ac85,65d2b6c8f2eece985d8e374c,65d2b9a1f2eece985d8e37c7,0.0558,0.0558,0,78,78,101,1,seveneight,,,,,,,,,,,,,,,,,,,,,,,,,,,,,,,,,,,,,,,,,,,,,,,,,,,,,,,,,,,,,,,,,,,,,,,,,,,,,,,,,,,,,,,,,,,,,,,,,,,,,,,,,,,,,,,,,,,,,,,,,,,,,,,,,,,,,,,,,
,,6523f8d76e87618c47c4ac85,2024-02-19_03h15.14.025,kallum_motion_pilot,2023.2.2,Win32,60.24096386,6523f8d76e87618c47c4ac85,65d2b6c8f2eece985d8e374c,65d2b9a1f2eece985d8e37c7,0.0559,0.056,0,79,79,53,1,threefour,,,,,,,,,,,,,,,,,,,,,,,,,,,,,,,,,,,,,,,,,,,,,,,,,,,,,,,,,,,,,,,,,,,,,,,,,,,,,,,,,,,,,,,,,,,,,,,,,,,,,,,,,,,,,,,,,,,,,,,,,,,,,,,,,,,,,,,,,
,,6523f8d76e87618c47c4ac85,2024-02-19_03h15.14.025,kallum_motion_pilot,2023.2.2,Win32,60.24096386,6523f8d76e87618c47c4ac85,65d2b6c8f2eece985d8e374c,65d2b9a1f2eece985d8e37c7,0.056,0.0561,0,80,80,146,1,sixfive,,,,,,,,,,,,,,,,,,,,,,,,,,,,,,,,,,,,,,,,,,,,,,,,,,,,,,,,,,,,,,,,,,,,,,,,,,,,,,,,,,,,,,,,,,,,,,,,,,,,,,,,,,,,,,,,,,,,,,,,,,,,,,,,,,,,,,,,,
,,6523f8d76e87618c47c4ac85,2024-02-19_03h15.14.025,kallum_motion_pilot,2023.2.2,Win32,60.24096386,6523f8d76e87618c47c4ac85,65d2b6c8f2eece985d8e374c,65d2b9a1f2eece985d8e37c7,0.0562,0.0564,0,81,81,82,1,sixfive,,,,,,,,,,,,,,,,,,,,,,,,,,,,,,,,,,,,,,,,,,,,,,,,,,,,,,,,,,,,,,,,,,,,,,,,,,,,,,,,,,,,,,,,,,,,,,,,,,,,,,,,,,,,,,,,,,,,,,,,,,,,,,,,,,,,,,,,,
,,6523f8d76e87618c47c4ac85,2024-02-19_03h15.14.025,kallum_motion_pilot,2023.2.2,Win32,60.24096386,6523f8d76e87618c47c4ac85,65d2b6c8f2eece985d8e374c,65d2b9a1f2eece985d8e37c7,0.0565,0.0565,0,82,82,99,1,sixeight,,,,,,,,,,,,,,,,,,,,,,,,,,,,,,,,,,,,,,,,,,,,,,,,,,,,,,,,,,,,,,,,,,,,,,,,,,,,,,,,,,,,,,,,,,,,,,,,,,,,,,,,,,,,,,,,,,,,,,,,,,,,,,,,,,,,,,,,,
,,6523f8d76e87618c47c4ac85,2024-02-19_03h15.14.025,kallum_motion_pilot,2023.2.2,Win32,60.24096386,6523f8d76e87618c47c4ac85,65d2b6c8f2eece985d8e374c,65d2b9a1f2eece985d8e37c7,0.0567,0.0567,0,83,83,72,1,onetwo,,,,,,,,,,,,,,,,,,,,,,,,,,,,,,,,,,,,,,,,,,,,,,,,,,,,,,,,,,,,,,,,,,,,,,,,,,,,,,,,,,,,,,,,,,,,,,,,,,,,,,,,,,,,,,,,,,,,,,,,,,,,,,,,,,,,,,,,,
,,6523f8d76e87618c47c4ac85,2024-02-19_03h15.14.025,kallum_motion_pilot,2023.2.2,Win32,60.24096386,6523f8d76e87618c47c4ac85,65d2b6c8f2eece985d8e374c,65d2b9a1f2eece985d8e37c7,0.0569,0.057,0,84,84,119,1,eightseven,,,,,,,,,,,,,,,,,,,,,,,,,,,,,,,,,,,,,,,,,,,,,,,,,,,,,,,,,,,,,,,,,,,,,,,,,,,,,,,,,,,,,,,,,,,,,,,,,,,,,,,,,,,,,,,,,,,,,,,,,,,,,,,,,,,,,,,,,
,,6523f8d76e87618c47c4ac85,2024-02-19_03h15.14.025,kallum_motion_pilot,2023.2.2,Win32,60.24096386,6523f8d76e87618c47c4ac85,65d2b6c8f2eece985d8e374c,65d2b9a1f2eece985d8e37c7,0.057,0.057,0,85,85,31,1,fourthree,,,,,,,,,,,,,,,,,,,,,,,,,,,,,,,,,,,,,,,,,,,,,,,,,,,,,,,,,,,,,,,,,,,,,,,,,,,,,,,,,,,,,,,,,,,,,,,,,,,,,,,,,,,,,,,,,,,,,,,,,,,,,,,,,,,,,,,,,
,,6523f8d76e87618c47c4ac85,2024-02-19_03h15.14.025,kallum_motion_pilot,2023.2.2,Win32,60.24096386,6523f8d76e87618c47c4ac85,65d2b6c8f2eece985d8e374c,65d2b9a1f2eece985d8e37c7,0.0573,0.0573,0,86,86,19,1,twofour,,,,,,,,,,,,,,,,,,,,,,,,,,,,,,,,,,,,,,,,,,,,,,,,,,,,,,,,,,,,,,,,,,,,,,,,,,,,,,,,,,,,,,,,,,,,,,,,,,,,,,,,,,,,,,,,,,,,,,,,,,,,,,,,,,,,,,,,,
,,6523f8d76e87618c47c4ac85,2024-02-19_03h15.14.025,kallum_motion_pilot,2023.2.2,Win32,60.24096386,6523f8d76e87618c47c4ac85,65d2b6c8f2eece985d8e374c,65d2b9a1f2eece985d8e37c7,0.0574,0.0575,0,87,87,78,1,fourtwo,,,,,,,,,,,,,,,,,,,,,,,,,,,,,,,,,,,,,,,,,,,,,,,,,,,,,,,,,,,,,,,,,,,,,,,,,,,,,,,,,,,,,,,,,,,,,,,,,,,,,,,,,,,,,,,,,,,,,,,,,,,,,,,,,,,,,,,,,
,,6523f8d76e87618c47c4ac85,2024-02-19_03h15.14.025,kallum_motion_pilot,2023.2.2,Win32,60.24096386,6523f8d76e87618c47c4ac85,65d2b6c8f2eece985d8e374c,65d2b9a1f2eece985d8e37c7,0.0576,0.0576,0,88,88,15,1,fourthree,,,,,,,,,,,,,,,,,,,,,,,,,,,,,,,,,,,,,,,,,,,,,,,,,,,,,,,,,,,,,,,,,,,,,,,,,,,,,,,,,,,,,,,,,,,,,,,,,,,,,,,,,,,,,,,,,,,,,,,,,,,,,,,,,,,,,,,,,
,,6523f8d76e87618c47c4ac85,2024-02-19_03h15.14.025,kallum_motion_pilot,2023.2.2,Win32,60.24096386,6523f8d76e87618c47c4ac85,65d2b6c8f2eece985d8e374c,65d2b9a1f2eece985d8e37c7,0.0577,0.0577,0,89,89,110,1,eightsix,,,,,,,,,,,,,,,,,,,,,,,,,,,,,,,,,,,,,,,,,,,,,,,,,,,,,,,,,,,,,,,,,,,,,,,,,,,,,,,,,,,,,,,,,,,,,,,,,,,,,,,,,,,,,,,,,,,,,,,,,,,,,,,,,,,,,,,,,
,,6523f8d76e87618c47c4ac85,2024-02-19_03h15.14.025,kallum_motion_pilot,2023.2.2,Win32,60.24096386,6523f8d76e87618c47c4ac85,65d2b6c8f2eece985d8e374c,65d2b9a1f2eece985d8e37c7,0.0578,0.0579,0,90,90,85,1,seveneight,,,,,,,,,,,,,,,,,,,,,,,,,,,,,,,,,,,,,,,,,,,,,,,,,,,,,,,,,,,,,,,,,,,,,,,,,,,,,,,,,,,,,,,,,,,,,,,,,,,,,,,,,,,,,,,,,,,,,,,,,,,,,,,,,,,,,,,,,
,,6523f8d76e87618c47c4ac85,2024-02-19_03h15.14.025,kallum_motion_pilot,2023.2.2,Win32,60.24096386,6523f8d76e87618c47c4ac85,65d2b6c8f2eece985d8e374c,65d2b9a1f2eece985d8e37c7,0.058,0.058,0,91,91,105,1,fiveseven,,,,,,,,,,,,,,,,,,,,,,,,,,,,,,,,,,,,,,,,,,,,,,,,,,,,,,,,,,,,,,,,,,,,,,,,,,,,,,,,,,,,,,,,,,,,,,,,,,,,,,,,,,,,,,,,,,,,,,,,,,,,,,,,,,,,,,,,,
,,6523f8d76e87618c47c4ac85,2024-02-19_03h15.14.025,kallum_motion_pilot,2023.2.2,Win32,60.24096386,6523f8d76e87618c47c4ac85,65d2b6c8f2eece985d8e374c,65d2b9a1f2eece985d8e37c7,0.0582,0.0583,0,92,92,6,1,fourtwo,,,,,,,,,,,,,,,,,,,,,,,,,,,,,,,,,,,,,,,,,,,,,,,,,,,,,,,,,,,,,,,,,,,,,,,,,,,,,,,,,,,,,,,,,,,,,,,,,,,,,,,,,,,,,,,,,,,,,,,,,,,,,,,,,,,,,,,,,
,,6523f8d76e87618c47c4ac85,2024-02-19_03h15.14.025,kallum_motion_pilot,2023.2.2,Win32,60.24096386,6523f8d76e87618c47c4ac85,65d2b6c8f2eece985d8e374c,65d2b9a1f2eece985d8e37c7,0.0584,0.0584,0,93,93,114,1,sixfive,,,,,,,,,,,,,,,,,,,,,,,,,,,,,,,,,,,,,,,,,,,,,,,,,,,,,,,,,,,,,,,,,,,,,,,,,,,,,,,,,,,,,,,,,,,,,,,,,,,,,,,,,,,,,,,,,,,,,,,,,,,,,,,,,,,,,,,,,
,,6523f8d76e87618c47c4ac85,2024-02-19_03h15.14.025,kallum_motion_pilot,2023.2.2,Win32,60.24096386,6523f8d76e87618c47c4ac85,65d2b6c8f2eece985d8e374c,65d2b9a1f2eece985d8e37c7,0.0585,0.0585,0,94,94,49,1,onethree,,,,,,,,,,,,,,,,,,,,,,,,,,,,,,,,,,,,,,,,,,,,,,,,,,,,,,,,,,,,,,,,,,,,,,,,,,,,,,,,,,,,,,,,,,,,,,,,,,,,,,,,,,,,,,,,,,,,,,,,,,,,,,,,,,,,,,,,,
,,6523f8d76e87618c47c4ac85,2024-02-19_03h15.14.025,kallum_motion_pilot,2023.2.2,Win32,60.24096386,6523f8d76e87618c47c4ac85,65d2b6c8f2eece985d8e374c,65d2b9a1f2eece985d8e37c7,0.0587,0.0588,0,95,95,160,1,fivesix,,,,,,,,,,,,,,,,,,,,,,,,,,,,,,,,,,,,,,,,,,,,,,,,,,,,,,,,,,,,,,,,,,,,,,,,,,,,,,,,,,,,,,,,,,,,,,,,,,,,,,,,,,,,,,,,,,,,,,,,,,,,,,,,,,,,,,,,,
,,6523f8d76e87618c47c4ac85,2024-02-19_03h15.14.025,kallum_motion_pilot,2023.2.2,Win32,60.24096386,6523f8d76e87618c47c4ac85,65d2b6c8f2eece985d8e374c,65d2b9a1f2eece985d8e37c7,0.0588,0.059,0,96,96,161,1,fiveseven,,,,,,,,,,,,,,,,,,,,,,,,,,,,,,,,,,,,,,,,,,,,,,,,,,,,,,,,,,,,,,,,,,,,,,,,,,,,,,,,,,,,,,,,,,,,,,,,,,,,,,,,,,,,,,,,,,,,,,,,,,,,,,,,,,,,,,,,,
,,6523f8d76e87618c47c4ac85,2024-02-19_03h15.14.025,kallum_motion_pilot,2023.2.2,Win32,60.24096386,6523f8d76e87618c47c4ac85,65d2b6c8f2eece985d8e374c,65d2b9a1f2eece985d8e37c7,0.0591,0.0592,0,97,97,43,1,twofour,,,,,,,,,,,,,,,,,,,,,,,,,,,,,,,,,,,,,,,,,,,,,,,,,,,,,,,,,,,,,,,,,,,,,,,,,,,,,,,,,,,,,,,,,,,,,,,,,,,,,,,,,,,,,,,,,,,,,,,,,,,,,,,,,,,,,,,,,
,,6523f8d76e87618c47c4ac85,2024-02-19_03h15.14.025,kallum_motion_pilot,2023.2.2,Win32,60.24096386,6523f8d76e87618c47c4ac85,65d2b6c8f2eece985d8e374c,65d2b9a1f2eece985d8e37c7,0.0592,0.0593,0,98,98,154,1,sixfive,,,,,,,,,,,,,,,,,,,,,,,,,,,,,,,,,,,,,,,,,,,,,,,,,,,,,,,,,,,,,,,,,,,,,,,,,,,,,,,,,,,,,,,,,,,,,,,,,,,,,,,,,,,,,,,,,,,,,,,,,,,,,,,,,,,,,,,,,
,,6523f8d76e87618c47c4ac85,2024-02-19_03h15.14.025,kallum_motion_pilot,2023.2.2,Win32,60.24096386,6523f8d76e87618c47c4ac85,65d2b6c8f2eece985d8e374c,65d2b9a1f2eece985d8e37c7,0.0594,0.0595,0,99,99,25,1,onethree,,,,,,,,,,,,,,,,,,,,,,,,,,,,,,,,,,,,,,,,,,,,,,,,,,,,,,,,,,,,,,,,,,,,,,,,,,,,,,,,,,,,,,,,,,,,,,,,,,,,,,,,,,,,,,,,,,,,,,,,,,,,,,,,,,,,,,,,,
,,6523f8d76e87618c47c4ac85,2024-02-19_03h15.14.025,kallum_motion_pilot,2023.2.2,Win32,60.24096386,6523f8d76e87618c47c4ac85,65d2b6c8f2eece985d8e374c,65d2b9a1f2eece985d8e37c7,0.0596,0.0596,0,100,100,102,1,eightsix,,,,,,,,,,,,,,,,,,,,,,,,,,,,,,,,,,,,,,,,,,,,,,,,,,,,,,,,,,,,,,,,,,,,,,,,,,,,,,,,,,,,,,,,,,,,,,,,,,,,,,,,,,,,,,,,,,,,,,,,,,,,,,,,,,,,,,,,,
,,6523f8d76e87618c47c4ac85,2024-02-19_03h15.14.025,kallum_motion_pilot,2023.2.2,Win32,60.24096386,6523f8d76e87618c47c4ac85,65d2b6c8f2eece985d8e374c,65d2b9a1f2eece985d8e37c7,0.0597,0.0598,0,101,101,75,1,twofour,,,,,,,,,,,,,,,,,,,,,,,,,,,,,,,,,,,,,,,,,,,,,,,,,,,,,,,,,,,,,,,,,,,,,,,,,,,,,,,,,,,,,,,,,,,,,,,,,,,,,,,,,,,,,,,,,,,,,,,,,,,,,,,,,,,,,,,,,
,,6523f8d76e87618c47c4ac85,2024-02-19_03h15.14.025,kallum_motion_pilot,2023.2.2,Win32,60.24096386,6523f8d76e87618c47c4ac85,65d2b6c8f2eece985d8e374c,65d2b9a1f2eece985d8e37c7,0.0599,0.0599,0,102,102,1,1,onethree,,,,,,,,,,,,,,,,,,,,,,,,,,,,,,,,,,,,,,,,,,,,,,,,,,,,,,,,,,,,,,,,,,,,,,,,,,,,,,,,,,,,,,,,,,,,,,,,,,,,,,,,,,,,,,,,,,,,,,,,,,,,,,,,,,,,,,,,,
,,6523f8d76e87618c47c4ac85,2024-02-19_03h15.14.025,kallum_motion_pilot,2023.2.2,Win32,60.24096386,6523f8d76e87618c47c4ac85,65d2b6c8f2eece985d8e374c,65d2b9a1f2eece985d8e37c7,0.0601,0.0601,0,103,103,39,1,fourthree,,,,,,,,,,,,,,,,,,,,,,,,,,,,,,,,,,,,,,,,,,,,,,,,,,,,,,,,,,,,,,,,,,,,,,,,,,,,,,,,,,,,,,,,,,,,,,,,,,,,,,,,,,,,,,,,,,,,,,,,,,,,,,,,,,,,,,,,,
,,6523f8d76e87618c47c4ac85,2024-02-19_03h15.14.025,kallum_motion_pilot,2023.2.2,Win32,60.24096386,6523f8d76e87618c47c4ac85,65d2b6c8f2eece985d8e374c,65d2b9a1f2eece985d8e37c7,0.0602,0.0602,0,104,104,89,1,fiveseven,,,,,,,,,,,,,,,,,,,,,,,,,,,,,,,,,,,,,,,,,,,,,,,,,,,,,,,,,,,,,,,,,,,,,,,,,,,,,,,,,,,,,,,,,,,,,,,,,,,,,,,,,,,,,,,,,,,,,,,,,,,,,,,,,,,,,,,,,
,,6523f8d76e87618c47c4ac85,2024-02-19_03h15.14.025,kallum_motion_pilot,2023.2.2,Win32,60.24096386,6523f8d76e87618c47c4ac85,65d2b6c8f2eece985d8e374c,65d2b9a1f2eece985d8e37c7,0.0604,0.0605,0,105,105,108,1,sevenfive,,,,,,,,,,,,,,,,,,,,,,,,,,,,,,,,,,,,,,,,,,,,,,,,,,,,,,,,,,,,,,,,,,,,,,,,,,,,,,,,,,,,,,,,,,,,,,,,,,,,,,,,,,,,,,,,,,,,,,,,,,,,,,,,,,,,,,,,,
,,6523f8d76e87618c47c4ac85,2024-02-19_03h15.14.025,kallum_motion_pilot,2023.2.2,Win32,60.24096386,6523f8d76e87618c47c4ac85,65d2b6c8f2eece985d8e374c,65d2b9a1f2eece985d8e37c7,0.0606,0.0606,0,106,106,138,1,sixfive,,,,,,,,,,,,,,,,,,,,,,,,,,,,,,,,,,,,,,,,,,,,,,,,,,,,,,,,,,,,,,,,,,,,,,,,,,,,,,,,,,,,,,,,,,,,,,,,,,,,,,,,,,,,,,,,,,,,,,,,,,,,,,,,,,,,,,,,,
,,6523f8d76e87618c47c4ac85,2024-02-19_03h15.14.025,kallum_motion_pilot,2023.2.2,Win32,60.24096386,6523f8d76e87618c47c4ac85,65d2b6c8f2eece985d8e374c,65d2b9a1f2eece985d8e37c7,0.0608,0.0608,0,107,107,28,1,threeone,,,,,,,,,,,,,,,,,,,,,,,,,,,,,,,,,,,,,,,,,,,,,,,,,,,,,,,,,,,,,,,,,,,,,,,,,,,,,,,,,,,,,,,,,,,,,,,,,,,,,,,,,,,,,,,,,,,,,,,,,,,,,,,,,,,,,,,,,
,,6523f8d76e87618c47c4ac85,2024-02-19_03h15.14.025,kallum_motion_pilot,2023.2.2,Win32,60.24096386,6523f8d76e87618c47c4ac85,65d2b6c8f2eece985d8e374c,65d2b9a1f2eece985d8e37c7,0.0609,0.0609,0,108,108,4,1,threeone,,,,,,,,,,,,,,,,,,,,,,,,,,,,,,,,,,,,,,,,,,,,,,,,,,,,,,,,,,,,,,,,,,,,,,,,,,,,,,,,,,,,,,,,,,,,,,,,,,,,,,,,,,,,,,,,,,,,,,,,,,,,,,,,,,,,,,,,,
,,6523f8d76e87618c47c4ac85,2024-02-19_03h15.14.025,kallum_motion_pilot,2023.2.2,Win32,60.24096386,6523f8d76e87618c47c4ac85,65d2b6c8f2eece985d8e374c,65d2b9a1f2eece985d8e37c7,0.0611,0.0612,0,109,109,76,1,threeone,,,,,,,,,,,,,,,,,,,,,,,,,,,,,,,,,,,,,,,,,,,,,,,,,,,,,,,,,,,,,,,,,,,,,,,,,,,,,,,,,,,,,,,,,,,,,,,,,,,,,,,,,,,,,,,,,,,,,,,,,,,,,,,,,,,,,,,,,
,,6523f8d76e87618c47c4ac85,2024-02-19_03h15.14.025,kallum_motion_pilot,2023.2.2,Win32,60.24096386,6523f8d76e87618c47c4ac85,65d2b6c8f2eece985d8e374c,65d2b9a1f2eece985d8e37c7,0.0613,0.0614,0,110,110,90,1,sixfive,,,,,,,,,,,,,,,,,,,,,,,,,,,,,,,,,,,,,,,,,,,,,,,,,,,,,,,,,,,,,,,,,,,,,,,,,,,,,,,,,,,,,,,,,,,,,,,,,,,,,,,,,,,,,,,,,,,,,,,,,,,,,,,,,,,,,,,,,
,,6523f8d76e87618c47c4ac85,2024-02-19_03h15.14.025,kallum_motion_pilot,2023.2.2,Win32,60.24096386,6523f8d76e87618c47c4ac85,65d2b6c8f2eece985d8e374c,65d2b9a1f2eece985d8e37c7,0.0615,0.0615,0,111,111,13,1,threefour,,,,,,,,,,,,,,,,,,,,,,,,,,,,,,,,,,,,,,,,,,,,,,,,,,,,,,,,,,,,,,,,,,,,,,,,,,,,,,,,,,,,,,,,,,,,,,,,,,,,,,,,,,,,,,,,,,,,,,,,,,,,,,,,,,,,,,,,,
,,6523f8d76e87618c47c4ac85,2024-02-19_03h15.14.025,kallum_motion_pilot,2023.2.2,Win32,60.24096386,6523f8d76e87618c47c4ac85,65d2b6c8f2eece985d8e374c,65d2b9a1f2eece985d8e37c7,0.0616,0.0617,0,112,112,54,1,fourtwo,,,,,,,,,,,,,,,,,,,,,,,,,,,,,,,,,,,,,,,,,,,,,,,,,,,,,,,,,,,,,,,,,,,,,,,,,,,,,,,,,,,,,,,,,,,,,,,,,,,,,,,,,,,,,,,,,,,,,,,,,,,,,,,,,,,,,,,,,
,,6523f8d76e87618c47c4ac85,2024-02-19_03h15.14.025,kallum_motion_pilot,2023.2.2,Win32,60.24096386,6523f8d76e87618c47c4ac85,65d2b6c8f2eece985d8e374c,65d2b9a1f2eece985d8e37c7,0.0619,0.0619,0,113,113,79,1,eightseven,,,,,,,,,,,,,,,,,,,,,,,,,,,,,,,,,,,,,,,,,,,,,,,,,,,,,,,,,,,,,,,,,,,,,,,,,,,,,,,,,,,,,,,,,,,,,,,,,,,,,,,,,,,,,,,,,,,,,,,,,,,,,,,,,,,,,,,,,
,,6523f8d76e87618c47c4ac85,2024-02-19_03h15.14.025,kallum_motion_pilot,2023.2.2,Win32,60.24096386,6523f8d76e87618c47c4ac85,65d2b6c8f2eece985d8e374c,65d2b9a1f2eece985d8e37c7,0.062,0.0621,0,114,114,5,1,threefour,,,,,,,,,,,,,,,,,,,,,,,,,,,,,,,,,,,,,,,,,,,,,,,,,,,,,,,,,,,,,,,,,,,,,,,,,,,,,,,,,,,,,,,,,,,,,,,,,,,,,,,,,,,,,,,,,,,,,,,,,,,,,,,,,,,,,,,,,
,,6523f8d76e87618c47c4ac85,2024-02-19_03h15.14.025,kallum_motion_pilot,2023.2.2,Win32,60.24096386,6523f8d76e87618c47c4ac85,65d2b6c8f2eece985d8e374c,65d2b9a1f2eece985d8e37c7,0.0623,0.0623,0,115,115,115,1,sixeight,,,,,,,,,,,,,,,,,,,,,,,,,,,,,,,,,,,,,,,,,,,,,,,,,,,,,,,,,,,,,,,,,,,,,,,,,,,,,,,,,,,,,,,,,,,,,,,,,,,,,,,,,,,,,,,,,,,,,,,,,,,,,,,,,,,,,,,,,
,,6523f8d76e87618c47c4ac85,2024-02-19_03h15.14.025,kallum_motion_pilot,2023.2.2,Win32,60.24096386,6523f8d76e87618c47c4ac85,65d2b6c8f2eece985d8e374c,65d2b9a1f2eece985d8e37c7,0.0625,0.0625,0,116,116,130,1,sixfive,,,,,,,,,,,,,,,,,,,,,,,,,,,,,,,,,,,,,,,,,,,,,,,,,,,,,,,,,,,,,,,,,,,,,,,,,,,,,,,,,,,,,,,,,,,,,,,,,,,,,,,,,,,,,,,,,,,,,,,,,,,,,,,,,,,,,,,,,
,,6523f8d76e87618c47c4ac85,2024-02-19_03h15.14.025,kallum_motion_pilot,2023.2.2,Win32,60.24096386,6523f8d76e87618c47c4ac85,65d2b6c8f2eece985d8e374c,65d2b9a1f2eece985d8e37c7,0.0626,0.0627,0,117,117,121,1,fiveseven,,,,,,,,,,,,,,,,,,,,,,,,,,,,,,,,,,,,,,,,,,,,,,,,,,,,,,,,,,,,,,,,,,,,,,,,,,,,,,,,,,,,,,,,,,,,,,,,,,,,,,,,,,,,,,,,,,,,,,,,,,,,,,,,,,,,,,,,,
,,6523f8d76e87618c47c4ac85,2024-02-19_03h15.14.025,kallum_motion_pilot,2023.2.2,Win32,60.24096386,6523f8d76e87618c47c4ac85,65d2b6c8f2eece985d8e374c,65d2b9a1f2eece985d8e37c7,0.0628,0.0634,0,118,118,91,1,sixeight,,,,,,,,,,,,,,,,,,,,,,,,,,,,,,,,,,,,,,,,,,,,,,,,,,,,,,,,,,,,,,,,,,,,,,,,,,,,,,,,,,,,,,,,,,,,,,,,,,,,,,,,,,,,,,,,,,,,,,,,,,,,,,,,,,,,,,,,,
,,6523f8d76e87618c47c4ac85,2024-02-19_03h15.14.025,kallum_motion_pilot,2023.2.2,Win32,60.24096386,6523f8d76e87618c47c4ac85,65d2b6c8f2eece985d8e374c,65d2b9a1f2eece985d8e37c7,0.0638,0.064,0,119,119,63,1,fourthree,,,,,,,,,,,,,,,,,,,,,,,,,,,,,,,,,,,,,,,,,,,,,,,,,,,,,,,,,,,,,,,,,,,,,,,,,,,,,,,,,,,,,,,,,,,,,,,,,,,,,,,,,,,,,,,,,,,,,,,,,,,,,,,,,,,,,,,,,
,,6523f8d76e87618c47c4ac85,2024-02-19_03h15.14.025,kallum_motion_pilot,2023.2.2,Win32,60.24096386,6523f8d76e87618c47c4ac85,65d2b6c8f2eece985d8e374c,65d2b9a1f2eece985d8e37c7,0.0642,0.0642,0,120,120,153,1,fiveseven,,,,,,,,,,,,,,,,,,,,,,,,,,,,,,,,,,,,,,,,,,,,,,,,,,,,,,,,,,,,,,,,,,,,,,,,,,,,,,,,,,,,,,,,,,,,,,,,,,,,,,,,,,,,,,,,,,,,,,,,,,,,,,,,,,,,,,,,,
,,6523f8d76e87618c47c4ac85,2024-02-19_03h15.14.025,kallum_motion_pilot,2023.2.2,Win32,60.24096386,6523f8d76e87618c47c4ac85,65d2b6c8f2eece985d8e374c,65d2b9a1f2eece985d8e37c7,0.0644,0.0645,0,121,121,97,1,fiveseven,,,,,,,,,,,,,,,,,,,,,,,,,,,,,,,,,,,,,,,,,,,,,,,,,,,,,,,,,,,,,,,,,,,,,,,,,,,,,,,,,,,,,,,,,,,,,,,,,,,,,,,,,,,,,,,,,,,,,,,,,,,,,,,,,,,,,,,,,
,,6523f8d76e87618c47c4ac85,2024-02-19_03h15.14.025,kallum_motion_pilot,2023.2.2,Win32,60.24096386,6523f8d76e87618c47c4ac85,65d2b6c8f2eece985d8e374c,65d2b9a1f2eece985d8e37c7,0.0647,0.0648,0,122,122,133,1,seveneight,,,,,,,,,,,,,,,,,,,,,,,,,,,,,,,,,,,,,,,,,,,,,,,,,,,,,,,,,,,,,,,,,,,,,,,,,,,,,,,,,,,,,,,,,,,,,,,,,,,,,,,,,,,,,,,,,,,,,,,,,,,,,,,,,,,,,,,,,
,,6523f8d76e87618c47c4ac85,2024-02-19_03h15.14.025,kallum_motion_pilot,2023.2.2,Win32,60.24096386,6523f8d76e87618c47c4ac85,65d2b6c8f2eece985d8e374c,65d2b9a1f2eece985d8e37c7,0.0649,0.065,0,123,123,46,1,fourtwo,,,,,,,,,,,,,,,,,,,,,,,,,,,,,,,,,,,,,,,,,,,,,,,,,,,,,,,,,,,,,,,,,,,,,,,,,,,,,,,,,,,,,,,,,,,,,,,,,,,,,,,,,,,,,,,,,,,,,,,,,,,,,,,,,,,,,,,,,
,,6523f8d76e87618c47c4ac85,2024-02-19_03h15.14.025,kallum_motion_pilot,2023.2.2,Win32,60.24096386,6523f8d76e87618c47c4ac85,65d2b6c8f2eece985d8e374c,65d2b9a1f2eece985d8e37c7,0.0653,0.0653,0,124,124,22,1,fourtwo,,,,,,,,,,,,,,,,,,,,,,,,,,,,,,,,,,,,,,,,,,,,,,,,,,,,,,,,,,,,,,,,,,,,,,,,,,,,,,,,,,,,,,,,,,,,,,,,,,,,,,,,,,,,,,,,,,,,,,,,,,,,,,,,,,,,,,,,,
,,6523f8d76e87618c47c4ac85,2024-02-19_03h15.14.025,kallum_motion_pilot,2023.2.2,Win32,60.24096386,6523f8d76e87618c47c4ac85,65d2b6c8f2eece985d8e374c,65d2b9a1f2eece985d8e37c7,0.0655,0.0656,0,125,125,74,1,twoone,,,,,,,,,,,,,,,,,,,,,,,,,,,,,,,,,,,,,,,,,,,,,,,,,,,,,,,,,,,,,,,,,,,,,,,,,,,,,,,,,,,,,,,,,,,,,,,,,,,,,,,,,,,,,,,,,,,,,,,,,,,,,,,,,,,,,,,,,
,,6523f8d76e87618c47c4ac85,2024-02-19_03h15.14.025,kallum_motion_pilot,2023.2.2,Win32,60.24096386,6523f8d76e87618c47c4ac85,65d2b6c8f2eece985d8e374c,65d2b9a1f2eece985d8e37c7,0.0658,0.0658,0,126,126,128,1,fivesix,,,,,,,,,,,,,,,,,,,,,,,,,,,,,,,,,,,,,,,,,,,,,,,,,,,,,,,,,,,,,,,,,,,,,,,,,,,,,,,,,,,,,,,,,,,,,,,,,,,,,,,,,,,,,,,,,,,,,,,,,,,,,,,,,,,,,,,,,
,,6523f8d76e87618c47c4ac85,2024-02-19_03h15.14.025,kallum_motion_pilot,2023.2.2,Win32,60.24096386,6523f8d76e87618c47c4ac85,65d2b6c8f2eece985d8e374c,65d2b9a1f2eece985d8e37c7,0.0661,0.0662,0,127,127,86,1,eightsix,,,,,,,,,,,,,,,,,,,,,,,,,,,,,,,,,,,,,,,,,,,,,,,,,,,,,,,,,,,,,,,,,,,,,,,,,,,,,,,,,,,,,,,,,,,,,,,,,,,,,,,,,,,,,,,,,,,,,,,,,,,,,,,,,,,,,,,,,
,,6523f8d76e87618c47c4ac85,2024-02-19_03h15.14.025,kallum_motion_pilot,2023.2.2,Win32,60.24096386,6523f8d76e87618c47c4ac85,65d2b6c8f2eece985d8e374c,65d2b9a1f2eece985d8e37c7,0.0664,0.0665,0,128,128,66,1,twoone,,,,,,,,,,,,,,,,,,,,,,,,,,,,,,,,,,,,,,,,,,,,,,,,,,,,,,,,,,,,,,,,,,,,,,,,,,,,,,,,,,,,,,,,,,,,,,,,,,,,,,,,,,,,,,,,,,,,,,,,,,,,,,,,,,,,,,,,,
,,6523f8d76e87618c47c4ac85,2024-02-19_03h15.14.025,kallum_motion_pilot,2023.2.2,Win32,60.24096386,6523f8d76e87618c47c4ac85,65d2b6c8f2eece985d8e374c,65d2b9a1f2eece985d8e37c7,0.0666,0.0668,0,129,129,10,1,twoone,,,,,,,,,,,,,,,,,,,,,,,,,,,,,,,,,,,,,,,,,,,,,,,,,,,,,,,,,,,,,,,,,,,,,,,,,,,,,,,,,,,,,,,,,,,,,,,,,,,,,,,,,,,,,,,,,,,,,,,,,,,,,,,,,,,,,,,,,
,,6523f8d76e87618c47c4ac85,2024-02-19_03h15.14.025,kallum_motion_pilot,2023.2.2,Win32,60.24096386,6523f8d76e87618c47c4ac85,65d2b6c8f2eece985d8e374c,65d2b9a1f2eece985d8e37c7,0.0669,0.067,0,130,130,73,1,onethree,,,,,,,,,,,,,,,,,,,,,,,,,,,,,,,,,,,,,,,,,,,,,,,,,,,,,,,,,,,,,,,,,,,,,,,,,,,,,,,,,,,,,,,,,,,,,,,,,,,,,,,,,,,,,,,,,,,,,,,,,,,,,,,,,,,,,,,,,
,,6523f8d76e87618c47c4ac85,2024-02-19_03h15.14.025,kallum_motion_pilot,2023.2.2,Win32,60.24096386,6523f8d76e87618c47c4ac85,65d2b6c8f2eece985d8e374c,65d2b9a1f2eece985d8e37c7,0.0671,0.0673,0,131,131,42,1,twoone,,,,,,,,,,,,,,,,,,,,,,,,,,,,,,,,,,,,,,,,,,,,,,,,,,,,,,,,,,,,,,,,,,,,,,,,,,,,,,,,,,,,,,,,,,,,,,,,,,,,,,,,,,,,,,,,,,,,,,,,,,,,,,,,,,,,,,,,,
,,6523f8d76e87618c47c4ac85,2024-02-19_03h15.14.025,kallum_motion_pilot,2023.2.2,Win32,60.24096386,6523f8d76e87618c47c4ac85,65d2b6c8f2eece985d8e374c,65d2b9a1f2eece985d8e37c7,0.0674,0.0675,0,132,132,124,1,sevenfive,,,,,,,,,,,,,,,,,,,,,,,,,,,,,,,,,,,,,,,,,,,,,,,,,,,,,,,,,,,,,,,,,,,,,,,,,,,,,,,,,,,,,,,,,,,,,,,,,,,,,,,,,,,,,,,,,,,,,,,,,,,,,,,,,,,,,,,,,
,,6523f8d76e87618c47c4ac85,2024-02-19_03h15.14.025,kallum_motion_pilot,2023.2.2,Win32,60.24096386,6523f8d76e87618c47c4ac85,65d2b6c8f2eece985d8e374c,65d2b9a1f2eece985d8e37c7,0.0676,0.0678,0,133,133,139,1,sixeight,,,,,,,,,,,,,,,,,,,,,,,,,,,,,,,,,,,,,,,,,,,,,,,,,,,,,,,,,,,,,,,,,,,,,,,,,,,,,,,,,,,,,,,,,,,,,,,,,,,,,,,,,,,,,,,,,,,,,,,,,,,,,,,,,,,,,,,,,
,,6523f8d76e87618c47c4ac85,2024-02-19_03h15.14.025,kallum_motion_pilot,2023.2.2,Win32,60.24096386,6523f8d76e87618c47c4ac85,65d2b6c8f2eece985d8e374c,65d2b9a1f2eece985d8e37c7,0.0679,0.0679,0,134,134,112,1,fivesix,,,,,,,,,,,,,,,,,,,,,,,,,,,,,,,,,,,,,,,,,,,,,,,,,,,,,,,,,,,,,,,,,,,,,,,,,,,,,,,,,,,,,,,,,,,,,,,,,,,,,,,,,,,,,,,,,,,,,,,,,,,,,,,,,,,,,,,,,
,,6523f8d76e87618c47c4ac85,2024-02-19_03h15.14.025,kallum_motion_pilot,2023.2.2,Win32,60.24096386,6523f8d76e87618c47c4ac85,65d2b6c8f2eece985d8e374c,65d2b9a1f2eece985d8e37c7,0.0681,0.0682,0,135,135,109,1,seveneight,,,,,,,,,,,,,,,,,,,,,,,,,,,,,,,,,,,,,,,,,,,,,,,,,,,,,,,,,,,,,,,,,,,,,,,,,,,,,,,,,,,,,,,,,,,,,,,,,,,,,,,,,,,,,,,,,,,,,,,,,,,,,,,,,,,,,,,,,
,,6523f8d76e87618c47c4ac85,2024-02-19_03h15.14.025,kallum_motion_pilot,2023.2.2,Win32,60.24096386,6523f8d76e87618c47c4ac85,65d2b6c8f2eece985d8e374c,65d2b9a1f2eece985d8e37c7,0.0684,0.0685,0,136,136,35,1,twofour,,,,,,,,,,,,,,,,,,,,,,,,,,,,,,,,,,,,,,,,,,,,,,,,,,,,,,,,,,,,,,,,,,,,,,,,,,,,,,,,,,,,,,,,,,,,,,,,,,,,,,,,,,,,,,,,,,,,,,,,,,,,,,,,,,,,,,,,,
,,6523f8d76e87618c47c4ac85,2024-02-19_03h15.14.025,kallum_motion_pilot,2023.2.2,Win32,60.24096386,6523f8d76e87618c47c4ac85,65d2b6c8f2eece985d8e374c,65d2b9a1f2eece985d8e37c7,0.07,0.0701,0,137,137,103,1,eightseven,,,,,,,,,,,,,,,,,,,,,,,,,,,,,,,,,,,,,,,,,,,,,,,,,,,,,,,,,,,,,,,,,,,,,,,,,,,,,,,,,,,,,,,,,,,,,,,,,,,,,,,,,,,,,,,,,,,,,,,,,,,,,,,,,,,,,,,,,
,,6523f8d76e87618c47c4ac85,2024-02-19_03h15.14.025,kallum_motion_pilot,2023.2.2,Win32,60.24096386,6523f8d76e87618c47c4ac85,65d2b6c8f2eece985d8e374c,65d2b9a1f2eece985d8e37c7,0.0702,0.0704,0,138,138,18,1,twoone,,,,,,,,,,,,,,,,,,,,,,,,,,,,,,,,,,,,,,,,,,,,,,,,,,,,,,,,,,,,,,,,,,,,,,,,,,,,,,,,,,,,,,,,,,,,,,,,,,,,,,,,,,,,,,,,,,,,,,,,,,,,,,,,,,,,,,,,,
,,6523f8d76e87618c47c4ac85,2024-02-19_03h15.14.025,kallum_motion_pilot,2023.2.2,Win32,60.24096386,6523f8d76e87618c47c4ac85,65d2b6c8f2eece985d8e374c,65d2b9a1f2eece985d8e37c7,0.0705,0.0706,0,139,139,106,1,sixfive,,,,,,,,,,,,,,,,,,,,,,,,,,,,,,,,,,,,,,,,,,,,,,,,,,,,,,,,,,,,,,,,,,,,,,,,,,,,,,,,,,,,,,,,,,,,,,,,,,,,,,,,,,,,,,,,,,,,,,,,,,,,,,,,,,,,,,,,,
,,6523f8d76e87618c47c4ac85,2024-02-19_03h15.14.025,kallum_motion_pilot,2023.2.2,Win32,60.24096386,6523f8d76e87618c47c4ac85,65d2b6c8f2eece985d8e374c,65d2b9a1f2eece985d8e37c7,0.0707,0.0708,0,140,140,57,1,onethree,,,,,,,,,,,,,,,,,,,,,,,,,,,,,,,,,,,,,,,,,,,,,,,,,,,,,,,,,,,,,,,,,,,,,,,,,,,,,,,,,,,,,,,,,,,,,,,,,,,,,,,,,,,,,,,,,,,,,,,,,,,,,,,,,,,,,,,,,
,,6523f8d76e87618c47c4ac85,2024-02-19_03h15.14.025,kallum_motion_pilot,2023.2.2,Win32,60.24096386,6523f8d76e87618c47c4ac85,65d2b6c8f2eece985d8e374c,65d2b9a1f2eece985d8e37c7,0.0709,0.0711,0,141,141,113,1,fiveseven,,,,,,,,,,,,,,,,,,,,,,,,,,,,,,,,,,,,,,,,,,,,,,,,,,,,,,,,,,,,,,,,,,,,,,,,,,,,,,,,,,,,,,,,,,,,,,,,,,,,,,,,,,,,,,,,,,,,,,,,,,,,,,,,,,,,,,,,,
,,6523f8d76e87618c47c4ac85,2024-02-19_03h15.14.025,kallum_motion_pilot,2023.2.2,Win32,60.24096386,6523f8d76e87618c47c4ac85,65d2b6c8f2eece985d8e374c,65d2b9a1f2eece985d8e37c7,0.0713,0.0714,0,142,142,107,1,sixeight,,,,,,,,,,,,,,,,,,,,,,,,,,,,,,,,,,,,,,,,,,,,,,,,,,,,,,,,,,,,,,,,,,,,,,,,,,,,,,,,,,,,,,,,,,,,,,,,,,,,,,,,,,,,,,,,,,,,,,,,,,,,,,,,,,,,,,,,,
,,6523f8d76e87618c47c4ac85,2024-02-19_03h15.14.025,kallum_motion_pilot,2023.2.2,Win32,60.24096386,6523f8d76e87618c47c4ac85,65d2b6c8f2eece985d8e374c,65d2b9a1f2eece985d8e37c7,0.0715,0.0716,0,143,143,52,1,threeone,,,,,,,,,,,,,,,,,,,,,,,,,,,,,,,,,,,,,,,,,,,,,,,,,,,,,,,,,,,,,,,,,,,,,,,,,,,,,,,,,,,,,,,,,,,,,,,,,,,,,,,,,,,,,,,,,,,,,,,,,,,,,,,,,,,,,,,,,
,,6523f8d76e87618c47c4ac85,2024-02-19_03h15.14.025,kallum_motion_pilot,2023.2.2,Win32,60.24096386,6523f8d76e87618c47c4ac85,65d2b6c8f2eece985d8e374c,65d2b9a1f2eece985d8e37c7,0.0717,0.0718,0,144,144,65,1,onethree,,,,,,,,,,,,,,,,,,,,,,,,,,,,,,,,,,,,,,,,,,,,,,,,,,,,,,,,,,,,,,,,,,,,,,,,,,,,,,,,,,,,,,,,,,,,,,,,,,,,,,,,,,,,,,,,,,,,,,,,,,,,,,,,,,,,,,,,,
,,6523f8d76e87618c47c4ac85,2024-02-19_03h15.14.025,kallum_motion_pilot,2023.2.2,Win32,60.24096386,6523f8d76e87618c47c4ac85,65d2b6c8f2eece985d8e374c,65d2b9a1f2eece985d8e37c7,0.0719,0.072,0,145,145,48,1,onetwo,,,,,,,,,,,,,,,,,,,,,,,,,,,,,,,,,,,,,,,,,,,,,,,,,,,,,,,,,,,,,,,,,,,,,,,,,,,,,,,,,,,,,,,,,,,,,,,,,,,,,,,,,,,,,,,,,,,,,,,,,,,,,,,,,,,,,,,,,
,,6523f8d76e87618c47c4ac85,2024-02-19_03h15.14.025,kallum_motion_pilot,2023.2.2,Win32,60.24096386,6523f8d76e87618c47c4ac85,65d2b6c8f2eece985d8e374c,65d2b9a1f2eece985d8e37c7,0.0721,0.0722,0,146,146,98,1,sixfive,,,,,,,,,,,,,,,,,,,,,,,,,,,,,,,,,,,,,,,,,,,,,,,,,,,,,,,,,,,,,,,,,,,,,,,,,,,,,,,,,,,,,,,,,,,,,,,,,,,,,,,,,,,,,,,,,,,,,,,,,,,,,,,,,,,,,,,,,
,,6523f8d76e87618c47c4ac85,2024-02-19_03h15.14.025,kallum_motion_pilot,2023.2.2,Win32,60.24096386,6523f8d76e87618c47c4ac85,65d2b6c8f2eece985d8e374c,65d2b9a1f2eece985d8e37c7,0.0724,0.0724,0,147,147,148,1,sevenfive,,,,,,,,,,,,,,,,,,,,,,,,,,,,,,,,,,,,,,,,,,,,,,,,,,,,,,,,,,,,,,,,,,,,,,,,,,,,,,,,,,,,,,,,,,,,,,,,,,,,,,,,,,,,,,,,,,,,,,,,,,,,,,,,,,,,,,,,,
,,6523f8d76e87618c47c4ac85,2024-02-19_03h15.14.025,kallum_motion_pilot,2023.2.2,Win32,60.24096386,6523f8d76e87618c47c4ac85,65d2b6c8f2eece985d8e374c,65d2b9a1f2eece985d8e37c7,0.0726,0.0726,0,148,148,7,1,fourthree,,,,,,,,,,,,,,,,,,,,,,,,,,,,,,,,,,,,,,,,,,,,,,,,,,,,,,,,,,,,,,,,,,,,,,,,,,,,,,,,,,,,,,,,,,,,,,,,,,,,,,,,,,,,,,,,,,,,,,,,,,,,,,,,,,,,,,,,,
,,6523f8d76e87618c47c4ac85,2024-02-19_03h15.14.025,kallum_motion_pilot,2023.2.2,Win32,60.24096386,6523f8d76e87618c47c4ac85,65d2b6c8f2eece985d8e374c,65d2b9a1f2eece985d8e37c7,0.0728,0.0729,0,149,149,16,1,onetwo,,,,,,,,,,,,,,,,,,,,,,,,,,,,,,,,,,,,,,,,,,,,,,,,,,,,,,,,,,,,,,,,,,,,,,,,,,,,,,,,,,,,,,,,,,,,,,,,,,,,,,,,,,,,,,,,,,,,,,,,,,,,,,,,,,,,,,,,,
,,6523f8d76e87618c47c4ac85,2024-02-19_03h15.14.025,kallum_motion_pilot,2023.2.2,Win32,60.24096386,6523f8d76e87618c47c4ac85,65d2b6c8f2eece985d8e374c,65d2b9a1f2eece985d8e37c7,0.073,0.0731,0,150,150,157,1,seveneight,,,,,,,,,,,,,,,,,,,,,,,,,,,,,,,,,,,,,,,,,,,,,,,,,,,,,,,,,,,,,,,,,,,,,,,,,,,,,,,,,,,,,,,,,,,,,,,,,,,,,,,,,,,,,,,,,,,,,,,,,,,,,,,,,,,,,,,,,
,,6523f8d76e87618c47c4ac85,2024-02-19_03h15.14.025,kallum_motion_pilot,2023.2.2,Win32,60.24096386,6523f8d76e87618c47c4ac85,65d2b6c8f2eece985d8e374c,65d2b9a1f2eece985d8e37c7,0.0733,0.0734,0,151,151,111,1,eightseven,,,,,,,,,,,,,,,,,,,,,,,,,,,,,,,,,,,,,,,,,,,,,,,,,,,,,,,,,,,,,,,,,,,,,,,,,,,,,,,,,,,,,,,,,,,,,,,,,,,,,,,,,,,,,,,,,,,,,,,,,,,,,,,,,,,,,,,,,
,,6523f8d76e87618c47c4ac85,2024-02-19_03h15.14.025,kallum_motion_pilot,2023.2.2,Win32,60.24096386,6523f8d76e87618c47c4ac85,65d2b6c8f2eece985d8e374c,65d2b9a1f2eece985d8e37c7,0.0735,0.0736,0,152,152,120,1,fivesix,,,,,,,,,,,,,,,,,,,,,,,,,,,,,,,,,,,,,,,,,,,,,,,,,,,,,,,,,,,,,,,,,,,,,,,,,,,,,,,,,,,,,,,,,,,,,,,,,,,,,,,,,,,,,,,,,,,,,,,,,,,,,,,,,,,,,,,,,
,,6523f8d76e87618c47c4ac85,2024-02-19_03h15.14.025,kallum_motion_pilot,2023.2.2,Win32,60.24096386,6523f8d76e87618c47c4ac85,65d2b6c8f2eece985d8e374c,65d2b9a1f2eece985d8e37c7,0.0737,0.0738,0,153,153,127,1,eightseven,,,,,,,,,,,,,,,,,,,,,,,,,,,,,,,,,,,,,,,,,,,,,,,,,,,,,,,,,,,,,,,,,,,,,,,,,,,,,,,,,,,,,,,,,,,,,,,,,,,,,,,,,,,,,,,,,,,,,,,,,,,,,,,,,,,,,,,,,
,,6523f8d76e87618c47c4ac85,2024-02-19_03h15.14.025,kallum_motion_pilot,2023.2.2,Win32,60.24096386,6523f8d76e87618c47c4ac85,65d2b6c8f2eece985d8e374c,65d2b9a1f2eece985d8e37c7,0.0739,0.074,0,154,154,44,1,threeone,,,,,,,,,,,,,,,,,,,,,,,,,,,,,,,,,,,,,,,,,,,,,,,,,,,,,,,,,,,,,,,,,,,,,,,,,,,,,,,,,,,,,,,,,,,,,,,,,,,,,,,,,,,,,,,,,,,,,,,,,,,,,,,,,,,,,,,,,
,,6523f8d76e87618c47c4ac85,2024-02-19_03h15.14.025,kallum_motion_pilot,2023.2.2,Win32,60.24096386,6523f8d76e87618c47c4ac85,65d2b6c8f2eece985d8e374c,65d2b9a1f2eece985d8e37c7,0.0741,0.0743,0,155,155,137,1,fiveseven,,,,,,,,,,,,,,,,,,,,,,,,,,,,,,,,,,,,,,,,,,,,,,,,,,,,,,,,,,,,,,,,,,,,,,,,,,,,,,,,,,,,,,,,,,,,,,,,,,,,,,,,,,,,,,,,,,,,,,,,,,,,,,,,,,,,,,,,,
,,6523f8d76e87618c47c4ac85,2024-02-19_03h15.14.025,kallum_motion_pilot,2023.2.2,Win32,60.24096386,6523f8d76e87618c47c4ac85,65d2b6c8f2eece985d8e374c,65d2b9a1f2eece985d8e37c7,0.0744,0.0744,0,156,156,26,1,twoone,,,,,,,,,,,,,,,,,,,,,,,,,,,,,,,,,,,,,,,,,,,,,,,,,,,,,,,,,,,,,,,,,,,,,,,,,,,,,,,,,,,,,,,,,,,,,,,,,,,,,,,,,,,,,,,,,,,,,,,,,,,,,,,,,,,,,,,,,
,,6523f8d76e87618c47c4ac85,2024-02-19_03h15.14.025,kallum_motion_pilot,2023.2.2,Win32,60.24096386,6523f8d76e87618c47c4ac85,65d2b6c8f2eece985d8e374c,65d2b9a1f2eece985d8e37c7,0.0746,0.0747,0,157,157,145,1,fiveseven,,,,,,,,,,,,,,,,,,,,,,,,,,,,,,,,,,,,,,,,,,,,,,,,,,,,,,,,,,,,,,,,,,,,,,,,,,,,,,,,,,,,,,,,,,,,,,,,,,,,,,,,,,,,,,,,,,,,,,,,,,,,,,,,,,,,,,,,,
,,6523f8d76e87618c47c4ac85,2024-02-19_03h15.14.025,kallum_motion_pilot,2023.2.2,Win32,60.24096386,6523f8d76e87618c47c4ac85,65d2b6c8f2eece985d8e374c,65d2b9a1f2eece985d8e37c7,0.0749,0.075,0,158,158,141,1,seveneight,,,,,,,,,,,,,,,,,,,,,,,,,,,,,,,,,,,,,,,,,,,,,,,,,,,,,,,,,,,,,,,,,,,,,,,,,,,,,,,,,,,,,,,,,,,,,,,,,,,,,,,,,,,,,,,,,,,,,,,,,,,,,,,,,,,,,,,,,
,,6523f8d76e87618c47c4ac85,2024-02-19_03h15.14.025,kallum_motion_pilot,2023.2.2,Win32,60.24096386,6523f8d76e87618c47c4ac85,65d2b6c8f2eece985d8e374c,65d2b9a1f2eece985d8e37c7,0.0751,0.0753,0,159,159,32,1,onetwo,,,,,,,,,,,,,,,,,,,,,,,,,,,,,,,,,,,,,,,,,,,,,,,,,,,,,,,,,,,,,,,,,,,,,,,,,,,,,,,,,,,,,,,,,,,,,,,,,,,,,,,,,,,,,,,,,,,,,,,,,,,,,,,,,,,,,,,,,
,,6523f8d76e87618c47c4ac85,2024-02-19_03h15.14.025,kallum_motion_pilot,2023.2.2,Win32,60.24096386,6523f8d76e87618c47c4ac85,65d2b6c8f2eece985d8e374c,65d2b9a1f2eece985d8e37c7,0.0753,0.0754,0,160,160,69,1,threefour,,,,,,,,,,,,,,,,,,,,,,,,,,,,,,,,,,,,,,,,,,,,,,,,,,,,,,,,,,,,,,,,,,,,,,,,,,,,,,,,,,,,,,,,,,,,,,,,,,,,,,,,,,,,,,,,,,,,,,,,,,,,,,,,,,,,,,,,,
,,6523f8d76e87618c47c4ac85,2024-02-19_03h15.14.025,kallum_motion_pilot,2023.2.2,Win32,60.24096386,6523f8d76e87618c47c4ac85,65d2b6c8f2eece985d8e374c,65d2b9a1f2eece985d8e37c7,0.0756,0.0757,0,161,161,116,1,sevenfive,,,,,,,,,,,,,,,,,,,,,,,,,,,,,,,,,,,,,,,,,,,,,,,,,,,,,,,,,,,,,,,,,,,,,,,,,,,,,,,,,,,,,,,,,,,,,,,,,,,,,,,,,,,,,,,,,,,,,,,,,,,,,,,,,,,,,,,,,
,,6523f8d76e87618c47c4ac85,2024-02-19_03h15.14.025,kallum_motion_pilot,2023.2.2,Win32,60.24096386,6523f8d76e87618c47c4ac85,65d2b6c8f2eece985d8e374c,65d2b9a1f2eece985d8e37c7,0.0759,0.076,1,0,162,100,1,sevenfive,,,,,,,,,,,,,,,,,,,,,,,,,,,,,,,,,,,,,,,,,,,,,,,,,,,,,,,,,,,,,,,,,,,,,,,,,,,,,,,,,,,,,,,,,,,,,,,,,,,,,,,,,,,,,,,,,,,,,,,,,,,,,,,,,,,,,,,,,
,,6523f8d76e87618c47c4ac85,2024-02-19_03h15.14.025,kallum_motion_pilot,2023.2.2,Win32,60.24096386,6523f8d76e87618c47c4ac85,65d2b6c8f2eece985d8e374c,65d2b9a1f2eece985d8e37c7,0.0761,0.0761,1,1,163,137,1,fiveseven,,,,,,,,,,,,,,,,,,,,,,,,,,,,,,,,,,,,,,,,,,,,,,,,,,,,,,,,,,,,,,,,,,,,,,,,,,,,,,,,,,,,,,,,,,,,,,,,,,,,,,,,,,,,,,,,,,,,,,,,,,,,,,,,,,,,,,,,,
,,6523f8d76e87618c47c4ac85,2024-02-19_03h15.14.025,kallum_motion_pilot,2023.2.2,Win32,60.24096386,6523f8d76e87618c47c4ac85,65d2b6c8f2eece985d8e374c,65d2b9a1f2eece985d8e37c7,0.0764,0.0765,1,2,164,6,1,fourtwo,,,,,,,,,,,,,,,,,,,,,,,,,,,,,,,,,,,,,,,,,,,,,,,,,,,,,,,,,,,,,,,,,,,,,,,,,,,,,,,,,,,,,,,,,,,,,,,,,,,,,,,,,,,,,,,,,,,,,,,,,,,,,,,,,,,,,,,,,
,,6523f8d76e87618c47c4ac85,2024-02-19_03h15.14.025,kallum_motion_pilot,2023.2.2,Win32,60.24096386,6523f8d76e87618c47c4ac85,65d2b6c8f2eece985d8e374c,65d2b9a1f2eece985d8e37c7,0.0767,0.0767,1,3,165,63,1,fourthree,,,,,,,,,,,,,,,,,,,,,,,,,,,,,,,,,,,,,,,,,,,,,,,,,,,,,,,,,,,,,,,,,,,,,,,,,,,,,,,,,,,,,,,,,,,,,,,,,,,,,,,,,,,,,,,,,,,,,,,,,,,,,,,,,,,,,,,,,
,,6523f8d76e87618c47c4ac85,2024-02-19_03h15.14.025,kallum_motion_pilot,2023.2.2,Win32,60.24096386,6523f8d76e87618c47c4ac85,65d2b6c8f2eece985d8e374c,65d2b9a1f2eece985d8e37c7,0.0768,0.0769,1,4,166,81,1,fiveseven,,,,,,,,,,,,,,,,,,,,,,,,,,,,,,,,,,,,,,,,,,,,,,,,,,,,,,,,,,,,,,,,,,,,,,,,,,,,,,,,,,,,,,,,,,,,,,,,,,,,,,,,,,,,,,,,,,,,,,,,,,,,,,,,,,,,,,,,,
,,6523f8d76e87618c47c4ac85,2024-02-19_03h15.14.025,kallum_motion_pilot,2023.2.2,Win32,60.24096386,6523f8d76e87618c47c4ac85,65d2b6c8f2eece985d8e374c,65d2b9a1f2eece985d8e37c7,0.0771,0.0771,1,5,167,46,1,fourtwo,,,,,,,,,,,,,,,,,,,,,,,,,,,,,,,,,,,,,,,,,,,,,,,,,,,,,,,,,,,,,,,,,,,,,,,,,,,,,,,,,,,,,,,,,,,,,,,,,,,,,,,,,,,,,,,,,,,,,,,,,,,,,,,,,,,,,,,,,
,,6523f8d76e87618c47c4ac85,2024-02-19_03h15.14.025,kallum_motion_pilot,2023.2.2,Win32,60.24096386,6523f8d76e87618c47c4ac85,65d2b6c8f2eece985d8e374c,65d2b9a1f2eece985d8e37c7,0.0774,0.0775,1,6,168,76,1,threeone,,,,,,,,,,,,,,,,,,,,,,,,,,,,,,,,,,,,,,,,,,,,,,,,,,,,,,,,,,,,,,,,,,,,,,,,,,,,,,,,,,,,,,,,,,,,,,,,,,,,,,,,,,,,,,,,,,,,,,,,,,,,,,,,,,,,,,,,,
,,6523f8d76e87618c47c4ac85,2024-02-19_03h15.14.025,kallum_motion_pilot,2023.2.2,Win32,60.24096386,6523f8d76e87618c47c4ac85,65d2b6c8f2eece985d8e374c,65d2b9a1f2eece985d8e37c7,0.0776,0.0776,1,7,169,93,1,seveneight,,,,,,,,,,,,,,,,,,,,,,,,,,,,,,,,,,,,,,,,,,,,,,,,,,,,,,,,,,,,,,,,,,,,,,,,,,,,,,,,,,,,,,,,,,,,,,,,,,,,,,,,,,,,,,,,,,,,,,,,,,,,,,,,,,,,,,,,,
,,6523f8d76e87618c47c4ac85,2024-02-19_03h15.14.025,kallum_motion_pilot,2023.2.2,Win32,60.24096386,6523f8d76e87618c47c4ac85,65d2b6c8f2eece985d8e374c,65d2b9a1f2eece985d8e37c7,0.0778,0.0778,1,8,170,148,1,sevenfive,,,,,,,,,,,,,,,,,,,,,,,,,,,,,,,,,,,,,,,,,,,,,,,,,,,,,,,,,,,,,,,,,,,,,,,,,,,,,,,,,,,,,,,,,,,,,,,,,,,,,,,,,,,,,,,,,,,,,,,,,,,,,,,,,,,,,,,,,
,,6523f8d76e87618c47c4ac85,2024-02-19_03h15.14.025,kallum_motion_pilot,2023.2.2,Win32,60.24096386,6523f8d76e87618c47c4ac85,65d2b6c8f2eece985d8e374c,65d2b9a1f2eece985d8e37c7,0.078,0.078,1,9,171,13,1,threefour,,,,,,,,,,,,,,,,,,,,,,,,,,,,,,,,,,,,,,,,,,,,,,,,,,,,,,,,,,,,,,,,,,,,,,,,,,,,,,,,,,,,,,,,,,,,,,,,,,,,,,,,,,,,,,,,,,,,,,,,,,,,,,,,,,,,,,,,,
,,6523f8d76e87618c47c4ac85,2024-02-19_03h15.14.025,kallum_motion_pilot,2023.2.2,Win32,60.24096386,6523f8d76e87618c47c4ac85,65d2b6c8f2eece985d8e374c,65d2b9a1f2eece985d8e37c7,0.0781,0.0782,1,10,172,19,1,twofour,,,,,,,,,,,,,,,,,,,,,,,,,,,,,,,,,,,,,,,,,,,,,,,,,,,,,,,,,,,,,,,,,,,,,,,,,,,,,,,,,,,,,,,,,,,,,,,,,,,,,,,,,,,,,,,,,,,,,,,,,,,,,,,,,,,,,,,,,
,,6523f8d76e87618c47c4ac85,2024-02-19_03h15.14.025,kallum_motion_pilot,2023.2.2,Win32,60.24096386,6523f8d76e87618c47c4ac85,65d2b6c8f2eece985d8e374c,65d2b9a1f2eece985d8e37c7,0.0784,0.0784,1,11,173,12,1,threeone,,,,,,,,,,,,,,,,,,,,,,,,,,,,,,,,,,,,,,,,,,,,,,,,,,,,,,,,,,,,,,,,,,,,,,,,,,,,,,,,,,,,,,,,,,,,,,,,,,,,,,,,,,,,,,,,,,,,,,,,,,,,,,,,,,,,,,,,,
,,6523f8d76e87618c47c4ac85,2024-02-19_03h15.14.025,kallum_motion_pilot,2023.2.2,Win32,60.24096386,6523f8d76e87618c47c4ac85,65d2b6c8f2eece985d8e374c,65d2b9a1f2eece985d8e37c7,0.0785,0.0786,1,12,174,20,1,threeone,,,,,,,,,,,,,,,,,,,,,,,,,,,,,,,,,,,,,,,,,,,,,,,,,,,,,,,,,,,,,,,,,,,,,,,,,,,,,,,,,,,,,,,,,,,,,,,,,,,,,,,,,,,,,,,,,,,,,,,,,,,,,,,,,,,,,,,,,
,,6523f8d76e87618c47c4ac85,2024-02-19_03h15.14.025,kallum_motion_pilot,2023.2.2,Win32,60.24096386,6523f8d76e87618c47c4ac85,65d2b6c8f2eece985d8e374c,65d2b9a1f2eece985d8e37c7,0.0787,0.0787,1,13,175,92,1,sevenfive,,,,,,,,,,,,,,,,,,,,,,,,,,,,,,,,,,,,,,,,,,,,,,,,,,,,,,,,,,,,,,,,,,,,,,,,,,,,,,,,,,,,,,,,,,,,,,,,,,,,,,,,,,,,,,,,,,,,,,,,,,,,,,,,,,,,,,,,,
,,6523f8d76e87618c47c4ac85,2024-02-19_03h15.14.025,kallum_motion_pilot,2023.2.2,Win32,60.24096386,6523f8d76e87618c47c4ac85,65d2b6c8f2eece985d8e374c,65d2b9a1f2eece985d8e37c7,0.0788,0.0789,1,14,176,58,1,twoone,,,,,,,,,,,,,,,,,,,,,,,,,,,,,,,,,,,,,,,,,,,,,,,,,,,,,,,,,,,,,,,,,,,,,,,,,,,,,,,,,,,,,,,,,,,,,,,,,,,,,,,,,,,,,,,,,,,,,,,,,,,,,,,,,,,,,,,,,
,,6523f8d76e87618c47c4ac85,2024-02-19_03h15.14.025,kallum_motion_pilot,2023.2.2,Win32,60.24096386,6523f8d76e87618c47c4ac85,65d2b6c8f2eece985d8e374c,65d2b9a1f2eece985d8e37c7,0.0791,0.0791,1,15,177,24,1,onetwo,,,,,,,,,,,,,,,,,,,,,,,,,,,,,,,,,,,,,,,,,,,,,,,,,,,,,,,,,,,,,,,,,,,,,,,,,,,,,,,,,,,,,,,,,,,,,,,,,,,,,,,,,,,,,,,,,,,,,,,,,,,,,,,,,,,,,,,,,
,,6523f8d76e87618c47c4ac85,2024-02-19_03h15.14.025,kallum_motion_pilot,2023.2.2,Win32,60.24096386,6523f8d76e87618c47c4ac85,65d2b6c8f2eece985d8e374c,65d2b9a1f2eece985d8e37c7,0.0793,0.0794,1,16,178,117,1,seveneight,,,,,,,,,,,,,,,,,,,,,,,,,,,,,,,,,,,,,,,,,,,,,,,,,,,,,,,,,,,,,,,,,,,,,,,,,,,,,,,,,,,,,,,,,,,,,,,,,,,,,,,,,,,,,,,,,,,,,,,,,,,,,,,,,,,,,,,,,
,,6523f8d76e87618c47c4ac85,2024-02-19_03h15.14.025,kallum_motion_pilot,2023.2.2,Win32,60.24096386,6523f8d76e87618c47c4ac85,65d2b6c8f2eece985d8e374c,65d2b9a1f2eece985d8e37c7,0.0795,0.0799,1,17,179,0,1,onetwo,,,,,,,,,,,,,,,,,,,,,,,,,,,,,,,,,,,,,,,,,,,,,,,,,,,,,,,,,,,,,,,,,,,,,,,,,,,,,,,,,,,,,,,,,,,,,,,,,,,,,,,,,,,,,,,,,,,,,,,,,,,,,,,,,,,,,,,,,
,,6523f8d76e87618c47c4ac85,2024-02-19_03h15.14.025,kallum_motion_pilot,2023.2.2,Win32,60.24096386,6523f8d76e87618c47c4ac85,65d2b6c8f2eece985d8e374c,65d2b9a1f2eece985d8e37c7,0.0805,0.0807,1,18,180,35,1,twofour,,,,,,,,,,,,,,,,,,,,,,,,,,,,,,,,,,,,,,,,,,,,,,,,,,,,,,,,,,,,,,,,,,,,,,,,,,,,,,,,,,,,,,,,,,,,,,,,,,,,,,,,,,,,,,,,,,,,,,,,,,,,,,,,,,,,,,,,,
,,6523f8d76e87618c47c4ac85,2024-02-19_03h15.14.025,kallum_motion_pilot,2023.2.2,Win32,60.24096386,6523f8d76e87618c47c4ac85,65d2b6c8f2eece985d8e374c,65d2b9a1f2eece985d8e37c7,0.0809,0.081,1,19,181,87,1,eightseven,,,,,,,,,,,,,,,,,,,,,,,,,,,,,,,,,,,,,,,,,,,,,,,,,,,,,,,,,,,,,,,,,,,,,,,,,,,,,,,,,,,,,,,,,,,,,,,,,,,,,,,,,,,,,,,,,,,,,,,,,,,,,,,,,,,,,,,,,
,,6523f8d76e87618c47c4ac85,2024-02-19_03h15.14.025,kallum_motion_pilot,2023.2.2,Win32,60.24096386,6523f8d76e87618c47c4ac85,65d2b6c8f2eece985d8e374c,65d2b9a1f2eece985d8e37c7,0.081,0.0811,1,20,182,147,1,sixeight,,,,,,,,,,,,,,,,,,,,,,,,,,,,,,,,,,,,,,,,,,,,,,,,,,,,,,,,,,,,,,,,,,,,,,,,,,,,,,,,,,,,,,,,,,,,,,,,,,,,,,,,,,,,,,,,,,,,,,,,,,,,,,,,,,,,,,,,,
,,6523f8d76e87618c47c4ac85,2024-02-19_03h15.14.025,kallum_motion_pilot,2023.2.2,Win32,60.24096386,6523f8d76e87618c47c4ac85,65d2b6c8f2eece985d8e374c,65d2b9a1f2eece985d8e37c7,0.0813,0.0813,1,21,183,25,1,onethree,,,,,,,,,,,,,,,,,,,,,,,,,,,,,,,,,,,,,,,,,,,,,,,,,,,,,,,,,,,,,,,,,,,,,,,,,,,,,,,,,,,,,,,,,,,,,,,,,,,,,,,,,,,,,,,,,,,,,,,,,,,,,,,,,,,,,,,,,
,,6523f8d76e87618c47c4ac85,2024-02-19_03h15.14.025,kallum_motion_pilot,2023.2.2,Win32,60.24096386,6523f8d76e87618c47c4ac85,65d2b6c8f2eece985d8e374c,65d2b9a1f2eece985d8e37c7,0.0815,0.0815,1,22,184,134,1,eightsix,,,,,,,,,,,,,,,,,,,,,,,,,,,,,,,,,,,,,,,,,,,,,,,,,,,,,,,,,,,,,,,,,,,,,,,,,,,,,,,,,,,,,,,,,,,,,,,,,,,,,,,,,,,,,,,,,,,,,,,,,,,,,,,,,,,,,,,,,
,,6523f8d76e87618c47c4ac85,2024-02-19_03h15.14.025,kallum_motion_pilot,2023.2.2,Win32,60.24096386,6523f8d76e87618c47c4ac85,65d2b6c8f2eece985d8e374c,65d2b9a1f2eece985d8e37c7,0.0818,0.0819,1,23,185,131,1,sixeight,,,,,,,,,,,,,,,,,,,,,,,,,,,,,,,,,,,,,,,,,,,,,,,,,,,,,,,,,,,,,,,,,,,,,,,,,,,,,,,,,,,,,,,,,,,,,,,,,,,,,,,,,,,,,,,,,,,,,,,,,,,,,,,,,,,,,,,,,
,,6523f8d76e87618c47c4ac85,2024-02-19_03h15.14.025,kallum_motion_pilot,2023.2.2,Win32,60.24096386,6523f8d76e87618c47c4ac85,65d2b6c8f2eece985d8e374c,65d2b9a1f2eece985d8e37c7,0.0821,0.0821,1,24,186,77,1,threefour,,,,,,,,,,,,,,,,,,,,,,,,,,,,,,,,,,,,,,,,,,,,,,,,,,,,,,,,,,,,,,,,,,,,,,,,,,,,,,,,,,,,,,,,,,,,,,,,,,,,,,,,,,,,,,,,,,,,,,,,,,,,,,,,,,,,,,,,,
,,6523f8d76e87618c47c4ac85,2024-02-19_03h15.14.025,kallum_motion_pilot,2023.2.2,Win32,60.24096386,6523f8d76e87618c47c4ac85,65d2b6c8f2eece985d8e374c,65d2b9a1f2eece985d8e37c7,0.0822,0.0823,1,25,187,133,1,seveneight,,,,,,,,,,,,,,,,,,,,,,,,,,,,,,,,,,,,,,,,,,,,,,,,,,,,,,,,,,,,,,,,,,,,,,,,,,,,,,,,,,,,,,,,,,,,,,,,,,,,,,,,,,,,,,,,,,,,,,,,,,,,,,,,,,,,,,,,,
,,6523f8d76e87618c47c4ac85,2024-02-19_03h15.14.025,kallum_motion_pilot,2023.2.2,Win32,60.24096386,6523f8d76e87618c47c4ac85,65d2b6c8f2eece985d8e374c,65d2b9a1f2eece985d8e37c7,0.0824,0.0825,1,26,188,84,1,sevenfive,,,,,,,,,,,,,,,,,,,,,,,,,,,,,,,,,,,,,,,,,,,,,,,,,,,,,,,,,,,,,,,,,,,,,,,,,,,,,,,,,,,,,,,,,,,,,,,,,,,,,,,,,,,,,,,,,,,,,,,,,,,,,,,,,,,,,,,,,
,,6523f8d76e87618c47c4ac85,2024-02-19_03h15.14.025,kallum_motion_pilot,2023.2.2,Win32,60.24096386,6523f8d76e87618c47c4ac85,65d2b6c8f2eece985d8e374c,65d2b9a1f2eece985d8e37c7,0.0826,0.0827,1,27,189,7,1,fourthree,,,,,,,,,,,,,,,,,,,,,,,,,,,,,,,,,,,,,,,,,,,,,,,,,,,,,,,,,,,,,,,,,,,,,,,,,,,,,,,,,,,,,,,,,,,,,,,,,,,,,,,,,,,,,,,,,,,,,,,,,,,,,,,,,,,,,,,,,
,,6523f8d76e87618c47c4ac85,2024-02-19_03h15.14.025,kallum_motion_pilot,2023.2.2,Win32,60.24096386,6523f8d76e87618c47c4ac85,65d2b6c8f2eece985d8e374c,65d2b9a1f2eece985d8e37c7,0.0828,0.0828,1,28,190,43,1,twofour,,,,,,,,,,,,,,,,,,,,,,,,,,,,,,,,,,,,,,,,,,,,,,,,,,,,,,,,,,,,,,,,,,,,,,,,,,,,,,,,,,,,,,,,,,,,,,,,,,,,,,,,,,,,,,,,,,,,,,,,,,,,,,,,,,,,,,,,,
,,6523f8d76e87618c47c4ac85,2024-02-19_03h15.14.025,kallum_motion_pilot,2023.2.2,Win32,60.24096386,6523f8d76e87618c47c4ac85,65d2b6c8f2eece985d8e374c,65d2b9a1f2eece985d8e37c7,0.083,0.083,1,29,191,75,1,twofour,,,,,,,,,,,,,,,,,,,,,,,,,,,,,,,,,,,,,,,,,,,,,,,,,,,,,,,,,,,,,,,,,,,,,,,,,,,,,,,,,,,,,,,,,,,,,,,,,,,,,,,,,,,,,,,,,,,,,,,,,,,,,,,,,,,,,,,,,
,,6523f8d76e87618c47c4ac85,2024-02-19_03h15.14.025,kallum_motion_pilot,2023.2.2,Win32,60.24096386,6523f8d76e87618c47c4ac85,65d2b6c8f2eece985d8e374c,65d2b9a1f2eece985d8e37c7,0.0831,0.0832,1,30,192,31,1,fourthree,,,,,,,,,,,,,,,,,,,,,,,,,,,,,,,,,,,,,,,,,,,,,,,,,,,,,,,,,,,,,,,,,,,,,,,,,,,,,,,,,,,,,,,,,,,,,,,,,,,,,,,,,,,,,,,,,,,,,,,,,,,,,,,,,,,,,,,,,
,,6523f8d76e87618c47c4ac85,2024-02-19_03h15.14.025,kallum_motion_pilot,2023.2.2,Win32,60.24096386,6523f8d76e87618c47c4ac85,65d2b6c8f2eece985d8e374c,65d2b9a1f2eece985d8e37c7,0.0833,0.0834,1,31,193,74,1,twoone,,,,,,,,,,,,,,,,,,,,,,,,,,,,,,,,,,,,,,,,,,,,,,,,,,,,,,,,,,,,,,,,,,,,,,,,,,,,,,,,,,,,,,,,,,,,,,,,,,,,,,,,,,,,,,,,,,,,,,,,,,,,,,,,,,,,,,,,,
,,6523f8d76e87618c47c4ac85,2024-02-19_03h15.14.025,kallum_motion_pilot,2023.2.2,Win32,60.24096386,6523f8d76e87618c47c4ac85,65d2b6c8f2eece985d8e374c,65d2b9a1f2eece985d8e37c7,0.0835,0.0836,1,32,194,73,1,onethree,,,,,,,,,,,,,,,,,,,,,,,,,,,,,,,,,,,,,,,,,,,,,,,,,,,,,,,,,,,,,,,,,,,,,,,,,,,,,,,,,,,,,,,,,,,,,,,,,,,,,,,,,,,,,,,,,,,,,,,,,,,,,,,,,,,,,,,,,
,,6523f8d76e87618c47c4ac85,2024-02-19_03h15.14.025,kallum_motion_pilot,2023.2.2,Win32,60.24096386,6523f8d76e87618c47c4ac85,65d2b6c8f2eece985d8e374c,65d2b9a1f2eece985d8e37c7,0.0838,0.0839,1,33,195,72,1,onetwo,,,,,,,,,,,,,,,,,,,,,,,,,,,,,,,,,,,,,,,,,,,,,,,,,,,,,,,,,,,,,,,,,,,,,,,,,,,,,,,,,,,,,,,,,,,,,,,,,,,,,,,,,,,,,,,,,,,,,,,,,,,,,,,,,,,,,,,,,
,,6523f8d76e87618c47c4ac85,2024-02-19_03h15.14.025,kallum_motion_pilot,2023.2.2,Win32,60.24096386,6523f8d76e87618c47c4ac85,65d2b6c8f2eece985d8e374c,65d2b9a1f2eece985d8e37c7,0.084,0.0842,1,34,196,136,1,fivesix,,,,,,,,,,,,,,,,,,,,,,,,,,,,,,,,,,,,,,,,,,,,,,,,,,,,,,,,,,,,,,,,,,,,,,,,,,,,,,,,,,,,,,,,,,,,,,,,,,,,,,,,,,,,,,,,,,,,,,,,,,,,,,,,,,,,,,,,,
,,6523f8d76e87618c47c4ac85,2024-02-19_03h15.14.025,kallum_motion_pilot,2023.2.2,Win32,60.24096386,6523f8d76e87618c47c4ac85,65d2b6c8f2eece985d8e374c,65d2b9a1f2eece985d8e37c7,0.0843,0.0844,1,35,197,138,1,sixfive,,,,,,,,,,,,,,,,,,,,,,,,,,,,,,,,,,,,,,,,,,,,,,,,,,,,,,,,,,,,,,,,,,,,,,,,,,,,,,,,,,,,,,,,,,,,,,,,,,,,,,,,,,,,,,,,,,,,,,,,,,,,,,,,,,,,,,,,,
,,6523f8d76e87618c47c4ac85,2024-02-19_03h15.14.025,kallum_motion_pilot,2023.2.2,Win32,60.24096386,6523f8d76e87618c47c4ac85,65d2b6c8f2eece985d8e374c,65d2b9a1f2eece985d8e37c7,0.0845,0.0846,1,36,198,47,1,fourthree,,,,,,,,,,,,,,,,,,,,,,,,,,,,,,,,,,,,,,,,,,,,,,,,,,,,,,,,,,,,,,,,,,,,,,,,,,,,,,,,,,,,,,,,,,,,,,,,,,,,,,,,,,,,,,,,,,,,,,,,,,,,,,,,,,,,,,,,,
,,6523f8d76e87618c47c4ac85,2024-02-19_03h15.14.025,kallum_motion_pilot,2023.2.2,Win32,60.24096386,6523f8d76e87618c47c4ac85,65d2b6c8f2eece985d8e374c,65d2b9a1f2eece985d8e37c7,0.0847,0.0847,1,37,199,65,1,onethree,,,,,,,,,,,,,,,,,,,,,,,,,,,,,,,,,,,,,,,,,,,,,,,,,,,,,,,,,,,,,,,,,,,,,,,,,,,,,,,,,,,,,,,,,,,,,,,,,,,,,,,,,,,,,,,,,,,,,,,,,,,,,,,,,,,,,,,,,
,,6523f8d76e87618c47c4ac85,2024-02-19_03h15.14.025,kallum_motion_pilot,2023.2.2,Win32,60.24096386,6523f8d76e87618c47c4ac85,65d2b6c8f2eece985d8e374c,65d2b9a1f2eece985d8e37c7,0.0849,0.0849,1,38,200,68,1,threeone,,,,,,,,,,,,,,,,,,,,,,,,,,,,,,,,,,,,,,,,,,,,,,,,,,,,,,,,,,,,,,,,,,,,,,,,,,,,,,,,,,,,,,,,,,,,,,,,,,,,,,,,,,,,,,,,,,,,,,,,,,,,,,,,,,,,,,,,,
,,6523f8d76e87618c47c4ac85,2024-02-19_03h15.14.025,kallum_motion_pilot,2023.2.2,Win32,60.24096386,6523f8d76e87618c47c4ac85,65d2b6c8f2eece985d8e374c,65d2b9a1f2eece985d8e37c7,0.0851,0.0851,1,39,201,80,1,fivesix,,,,,,,,,,,,,,,,,,,,,,,,,,,,,,,,,,,,,,,,,,,,,,,,,,,,,,,,,,,,,,,,,,,,,,,,,,,,,,,,,,,,,,,,,,,,,,,,,,,,,,,,,,,,,,,,,,,,,,,,,,,,,,,,,,,,,,,,,
,,6523f8d76e87618c47c4ac85,2024-02-19_03h15.14.025,kallum_motion_pilot,2023.2.2,Win32,60.24096386,6523f8d76e87618c47c4ac85,65d2b6c8f2eece985d8e374c,65d2b9a1f2eece985d8e37c7,0.0853,0.0853,1,40,202,97,1,fiveseven,,,,,,,,,,,,,,,,,,,,,,,,,,,,,,,,,,,,,,,,,,,,,,,,,,,,,,,,,,,,,,,,,,,,,,,,,,,,,,,,,,,,,,,,,,,,,,,,,,,,,,,,,,,,,,,,,,,,,,,,,,,,,,,,,,,,,,,,,
,,6523f8d76e87618c47c4ac85,2024-02-19_03h15.14.025,kallum_motion_pilot,2023.2.2,Win32,60.24096386,6523f8d76e87618c47c4ac85,65d2b6c8f2eece985d8e374c,65d2b9a1f2eece985d8e37c7,0.0854,0.0855,1,41,203,55,1,fourthree,,,,,,,,,,,,,,,,,,,,,,,,,,,,,,,,,,,,,,,,,,,,,,,,,,,,,,,,,,,,,,,,,,,,,,,,,,,,,,,,,,,,,,,,,,,,,,,,,,,,,,,,,,,,,,,,,,,,,,,,,,,,,,,,,,,,,,,,,
,,6523f8d76e87618c47c4ac85,2024-02-19_03h15.14.025,kallum_motion_pilot,2023.2.2,Win32,60.24096386,6523f8d76e87618c47c4ac85,65d2b6c8f2eece985d8e374c,65d2b9a1f2eece985d8e37c7,0.0857,0.0857,1,42,204,56,1,onetwo,,,,,,,,,,,,,,,,,,,,,,,,,,,,,,,,,,,,,,,,,,,,,,,,,,,,,,,,,,,,,,,,,,,,,,,,,,,,,,,,,,,,,,,,,,,,,,,,,,,,,,,,,,,,,,,,,,,,,,,,,,,,,,,,,,,,,,,,,
,,6523f8d76e87618c47c4ac85,2024-02-19_03h15.14.025,kallum_motion_pilot,2023.2.2,Win32,60.24096386,6523f8d76e87618c47c4ac85,65d2b6c8f2eece985d8e374c,65d2b9a1f2eece985d8e37c7,0.0858,0.0859,1,43,205,126,1,eightsix,,,,,,,,,,,,,,,,,,,,,,,,,,,,,,,,,,,,,,,,,,,,,,,,,,,,,,,,,,,,,,,,,,,,,,,,,,,,,,,,,,,,,,,,,,,,,,,,,,,,,,,,,,,,,,,,,,,,,,,,,,,,,,,,,,,,,,,,,
,,6523f8d76e87618c47c4ac85,2024-02-19_03h15.14.025,kallum_motion_pilot,2023.2.2,Win32,60.24096386,6523f8d76e87618c47c4ac85,65d2b6c8f2eece985d8e374c,65d2b9a1f2eece985d8e37c7,0.086,0.0862,1,44,206,122,1,sixfive,,,,,,,,,,,,,,,,,,,,,,,,,,,,,,,,,,,,,,,,,,,,,,,,,,,,,,,,,,,,,,,,,,,,,,,,,,,,,,,,,,,,,,,,,,,,,,,,,,,,,,,,,,,,,,,,,,,,,,,,,,,,,,,,,,,,,,,,,
,,6523f8d76e87618c47c4ac85,2024-02-19_03h15.14.025,kallum_motion_pilot,2023.2.2,Win32,60.24096386,6523f8d76e87618c47c4ac85,65d2b6c8f2eece985d8e374c,65d2b9a1f2eece985d8e37c7,0.0862,0.0863,1,45,207,95,1,eightseven,,,,,,,,,,,,,,,,,,,,,,,,,,,,,,,,,,,,,,,,,,,,,,,,,,,,,,,,,,,,,,,,,,,,,,,,,,,,,,,,,,,,,,,,,,,,,,,,,,,,,,,,,,,,,,,,,,,,,,,,,,,,,,,,,,,,,,,,,
,,6523f8d76e87618c47c4ac85,2024-02-19_03h15.14.025,kallum_motion_pilot,2023.2.2,Win32,60.24096386,6523f8d76e87618c47c4ac85,65d2b6c8f2eece985d8e374c,65d2b9a1f2eece985d8e37c7,0.0864,0.0865,1,46,208,2,1,twoone,,,,,,,,,,,,,,,,,,,,,,,,,,,,,,,,,,,,,,,,,,,,,,,,,,,,,,,,,,,,,,,,,,,,,,,,,,,,,,,,,,,,,,,,,,,,,,,,,,,,,,,,,,,,,,,,,,,,,,,,,,,,,,,,,,,,,,,,,
,,6523f8d76e87618c47c4ac85,2024-02-19_03h15.14.025,kallum_motion_pilot,2023.2.2,Win32,60.24096386,6523f8d76e87618c47c4ac85,65d2b6c8f2eece985d8e374c,65d2b9a1f2eece985d8e37c7,0.0867,0.0869,1,47,209,113,1,fiveseven,,,,,,,,,,,,,,,,,,,,,,,,,,,,,,,,,,,,,,,,,,,,,,,,,,,,,,,,,,,,,,,,,,,,,,,,,,,,,,,,,,,,,,,,,,,,,,,,,,,,,,,,,,,,,,,,,,,,,,,,,,,,,,,,,,,,,,,,,
,,6523f8d76e87618c47c4ac85,2024-02-19_03h15.14.025,kallum_motion_pilot,2023.2.2,Win32,60.24096386,6523f8d76e87618c47c4ac85,65d2b6c8f2eece985d8e374c,65d2b9a1f2eece985d8e37c7,0.0872,0.0873,1,48,210,139,1,sixeight,,,,,,,,,,,,,,,,,,,,,,,,,,,,,,,,,,,,,,,,,,,,,,,,,,,,,,,,,,,,,,,,,,,,,,,,,,,,,,,,,,,,,,,,,,,,,,,,,,,,,,,,,,,,,,,,,,,,,,,,,,,,,,,,,,,,,,,,,
,,6523f8d76e87618c47c4ac85,2024-02-19_03h15.14.025,kallum_motion_pilot,2023.2.2,Win32,60.24096386,6523f8d76e87618c47c4ac85,65d2b6c8f2eece985d8e374c,65d2b9a1f2eece985d8e37c7,0.0875,0.0876,1,49,211,91,1,sixeight,,,,,,,,,,,,,,,,,,,,,,,,,,,,,,,,,,,,,,,,,,,,,,,,,,,,,,,,,,,,,,,,,,,,,,,,,,,,,,,,,,,,,,,,,,,,,,,,,,,,,,,,,,,,,,,,,,,,,,,,,,,,,,,,,,,,,,,,,
,,6523f8d76e87618c47c4ac85,2024-02-19_03h15.14.025,kallum_motion_pilot,2023.2.2,Win32,60.24096386,6523f8d76e87618c47c4ac85,65d2b6c8f2eece985d8e374c,65d2b9a1f2eece985d8e37c7,0.0879,0.088,1,50,212,27,1,twofour,,,,,,,,,,,,,,,,,,,,,,,,,,,,,,,,,,,,,,,,,,,,,,,,,,,,,,,,,,,,,,,,,,,,,,,,,,,,,,,,,,,,,,,,,,,,,,,,,,,,,,,,,,,,,,,,,,,,,,,,,,,,,,,,,,,,,,,,,
,,6523f8d76e87618c47c4ac85,2024-02-19_03h15.14.025,kallum_motion_pilot,2023.2.2,Win32,60.24096386,6523f8d76e87618c47c4ac85,65d2b6c8f2eece985d8e374c,65d2b9a1f2eece985d8e37c7,0.0881,0.0882,1,51,213,8,1,onetwo,,,,,,,,,,,,,,,,,,,,,,,,,,,,,,,,,,,,,,,,,,,,,,,,,,,,,,,,,,,,,,,,,,,,,,,,,,,,,,,,,,,,,,,,,,,,,,,,,,,,,,,,,,,,,,,,,,,,,,,,,,,,,,,,,,,,,,,,,
,,6523f8d76e87618c47c4ac85,2024-02-19_03h15.14.025,kallum_motion_pilot,2023.2.2,Win32,60.24096386,6523f8d76e87618c47c4ac85,65d2b6c8f2eece985d8e374c,65d2b9a1f2eece985d8e37c7,0.0883,0.0884,1,52,214,158,1,eightsix,,,,,,,,,,,,,,,,,,,,,,,,,,,,,,,,,,,,,,,,,,,,,,,,,,,,,,,,,,,,,,,,,,,,,,,,,,,,,,,,,,,,,,,,,,,,,,,,,,,,,,,,,,,,,,,,,,,,,,,,,,,,,,,,,,,,,,,,,
,,6523f8d76e87618c47c4ac85,2024-02-19_03h15.14.025,kallum_motion_pilot,2023.2.2,Win32,60.24096386,6523f8d76e87618c47c4ac85,65d2b6c8f2eece985d8e374c,65d2b9a1f2eece985d8e37c7,0.0885,0.0886,1,53,215,88,1,fivesix,,,,,,,,,,,,,,,,,,,,,,,,,,,,,,,,,,,,,,,,,,,,,,,,,,,,,,,,,,,,,,,,,,,,,,,,,,,,,,,,,,,,,,,,,,,,,,,,,,,,,,,,,,,,,,,,,,,,,,,,,,,,,,,,,,,,,,,,,
,,6523f8d76e87618c47c4ac85,2024-02-19_03h15.14.025,kallum_motion_pilot,2023.2.2,Win32,60.24096386,6523f8d76e87618c47c4ac85,65d2b6c8f2eece985d8e374c,65d2b9a1f2eece985d8e37c7,0.0887,0.0888,1,54,216,14,1,fourtwo,,,,,,,,,,,,,,,,,,,,,,,,,,,,,,,,,,,,,,,,,,,,,,,,,,,,,,,,,,,,,,,,,,,,,,,,,,,,,,,,,,,,,,,,,,,,,,,,,,,,,,,,,,,,,,,,,,,,,,,,,,,,,,,,,,,,,,,,,
,,6523f8d76e87618c47c4ac85,2024-02-19_03h15.14.025,kallum_motion_pilot,2023.2.2,Win32,60.24096386,6523f8d76e87618c47c4ac85,65d2b6c8f2eece985d8e374c,65d2b9a1f2eece985d8e37c7,0.0889,0.0889,1,55,217,123,1,sixeight,,,,,,,,,,,,,,,,,,,,,,,,,,,,,,,,,,,,,,,,,,,,,,,,,,,,,,,,,,,,,,,,,,,,,,,,,,,,,,,,,,,,,,,,,,,,,,,,,,,,,,,,,,,,,,,,,,,,,,,,,,,,,,,,,,,,,,,,,
,,6523f8d76e87618c47c4ac85,2024-02-19_03h15.14.025,kallum_motion_pilot,2023.2.2,Win32,60.24096386,6523f8d76e87618c47c4ac85,65d2b6c8f2eece985d8e374c,65d2b9a1f2eece985d8e37c7,0.089,0.0892,1,56,218,154,1,sixfive,,,,,,,,,,,,,,,,,,,,,,,,,,,,,,,,,,,,,,,,,,,,,,,,,,,,,,,,,,,,,,,,,,,,,,,,,,,,,,,,,,,,,,,,,,,,,,,,,,,,,,,,,,,,,,,,,,,,,,,,,,,,,,,,,,,,,,,,,
,,6523f8d76e87618c47c4ac85,2024-02-19_03h15.14.025,kallum_motion_pilot,2023.2.2,Win32,60.24096386,6523f8d76e87618c47c4ac85,65d2b6c8f2eece985d8e374c,65d2b9a1f2eece985d8e37c7,0.0893,0.0894,1,57,219,26,1,twoone,,,,,,,,,,,,,,,,,,,,,,,,,,,,,,,,,,,,,,,,,,,,,,,,,,,,,,,,,,,,,,,,,,,,,,,,,,,,,,,,,,,,,,,,,,,,,,,,,,,,,,,,,,,,,,,,,,,,,,,,,,,,,,,,,,,,,,,,,
,,6523f8d76e87618c47c4ac85,2024-02-19_03h15.14.025,kallum_motion_pilot,2023.2.2,Win32,60.24096386,6523f8d76e87618c47c4ac85,65d2b6c8f2eece985d8e374c,65d2b9a1f2eece985d8e37c7,0.0895,0.0896,1,58,220,59,1,twofour,,,,,,,,,,,,,,,,,,,,,,,,,,,,,,,,,,,,,,,,,,,,,,,,,,,,,,,,,,,,,,,,,,,,,,,,,,,,,,,,,,,,,,,,,,,,,,,,,,,,,,,,,,,,,,,,,,,,,,,,,,,,,,,,,,,,,,,,,
,,6523f8d76e87618c47c4ac85,2024-02-19_03h15.14.025,kallum_motion_pilot,2023.2.2,Win32,60.24096386,6523f8d76e87618c47c4ac85,65d2b6c8f2eece985d8e374c,65d2b9a1f2eece985d8e37c7,0.0897,0.0898,1,59,221,83,1,sixeight,,,,,,,,,,,,,,,,,,,,,,,,,,,,,,,,,,,,,,,,,,,,,,,,,,,,,,,,,,,,,,,,,,,,,,,,,,,,,,,,,,,,,,,,,,,,,,,,,,,,,,,,,,,,,,,,,,,,,,,,,,,,,,,,,,,,,,,,,
,,6523f8d76e87618c47c4ac85,2024-02-19_03h15.14.025,kallum_motion_pilot,2023.2.2,Win32,60.24096386,6523f8d76e87618c47c4ac85,65d2b6c8f2eece985d8e374c,65d2b9a1f2eece985d8e37c7,0.0899,0.09,1,60,222,142,1,eightsix,,,,,,,,,,,,,,,,,,,,,,,,,,,,,,,,,,,,,,,,,,,,,,,,,,,,,,,,,,,,,,,,,,,,,,,,,,,,,,,,,,,,,,,,,,,,,,,,,,,,,,,,,,,,,,,,,,,,,,,,,,,,,,,,,,,,,,,,,
,,6523f8d76e87618c47c4ac85,2024-02-19_03h15.14.025,kallum_motion_pilot,2023.2.2,Win32,60.24096386,6523f8d76e87618c47c4ac85,65d2b6c8f2eece985d8e374c,65d2b9a1f2eece985d8e37c7,0.0901,0.0902,1,61,223,21,1,threefour,,,,,,,,,,,,,,,,,,,,,,,,,,,,,,,,,,,,,,,,,,,,,,,,,,,,,,,,,,,,,,,,,,,,,,,,,,,,,,,,,,,,,,,,,,,,,,,,,,,,,,,,,,,,,,,,,,,,,,,,,,,,,,,,,,,,,,,,,
,,6523f8d76e87618c47c4ac85,2024-02-19_03h15.14.025,kallum_motion_pilot,2023.2.2,Win32,60.24096386,6523f8d76e87618c47c4ac85,65d2b6c8f2eece985d8e374c,65d2b9a1f2eece985d8e37c7,0.0903,0.0904,1,62,224,102,1,eightsix,,,,,,,,,,,,,,,,,,,,,,,,,,,,,,,,,,,,,,,,,,,,,,,,,,,,,,,,,,,,,,,,,,,,,,,,,,,,,,,,,,,,,,,,,,,,,,,,,,,,,,,,,,,,,,,,,,,,,,,,,,,,,,,,,,,,,,,,,
,,6523f8d76e87618c47c4ac85,2024-02-19_03h15.14.025,kallum_motion_pilot,2023.2.2,Win32,60.24096386,6523f8d76e87618c47c4ac85,65d2b6c8f2eece985d8e374c,65d2b9a1f2eece985d8e37c7,0.0905,0.0907,1,63,225,145,1,fiveseven,,,,,,,,,,,,,,,,,,,,,,,,,,,,,,,,,,,,,,,,,,,,,,,,,,,,,,,,,,,,,,,,,,,,,,,,,,,,,,,,,,,,,,,,,,,,,,,,,,,,,,,,,,,,,,,,,,,,,,,,,,,,,,,,,,,,,,,,,
,,6523f8d76e87618c47c4ac85,2024-02-19_03h15.14.025,kallum_motion_pilot,2023.2.2,Win32,60.24096386,6523f8d76e87618c47c4ac85,65d2b6c8f2eece985d8e374c,65d2b9a1f2eece985d8e37c7,0.0907,0.0909,1,64,226,22,1,fourtwo,,,,,,,,,,,,,,,,,,,,,,,,,,,,,,,,,,,,,,,,,,,,,,,,,,,,,,,,,,,,,,,,,,,,,,,,,,,,,,,,,,,,,,,,,,,,,,,,,,,,,,,,,,,,,,,,,,,,,,,,,,,,,,,,,,,,,,,,,
,,6523f8d76e87618c47c4ac85,2024-02-19_03h15.14.025,kallum_motion_pilot,2023.2.2,Win32,60.24096386,6523f8d76e87618c47c4ac85,65d2b6c8f2eece985d8e374c,65d2b9a1f2eece985d8e37c7,0.0909,0.0911,1,65,227,42,1,twoone,,,,,,,,,,,,,,,,,,,,,,,,,,,,,,,,,,,,,,,,,,,,,,,,,,,,,,,,,,,,,,,,,,,,,,,,,,,,,,,,,,,,,,,,,,,,,,,,,,,,,,,,,,,,,,,,,,,,,,,,,,,,,,,,,,,,,,,,,
,,6523f8d76e87618c47c4ac85,2024-02-19_03h15.14.025,kallum_motion_pilot,2023.2.2,Win32,60.24096386,6523f8d76e87618c47c4ac85,65d2b6c8f2eece985d8e374c,65d2b9a1f2eece985d8e37c7,0.0911,0.0912,1,66,228,52,1,threeone,,,,,,,,,,,,,,,,,,,,,,,,,,,,,,,,,,,,,,,,,,,,,,,,,,,,,,,,,,,,,,,,,,,,,,,,,,,,,,,,,,,,,,,,,,,,,,,,,,,,,,,,,,,,,,,,,,,,,,,,,,,,,,,,,,,,,,,,,
,,6523f8d76e87618c47c4ac85,2024-02-19_03h15.14.025,kallum_motion_pilot,2023.2.2,Win32,60.24096386,6523f8d76e87618c47c4ac85,65d2b6c8f2eece985d8e374c,65d2b9a1f2eece985d8e37c7,0.0913,0.0915,1,67,229,71,1,fourthree,,,,,,,,,,,,,,,,,,,,,,,,,,,,,,,,,,,,,,,,,,,,,,,,,,,,,,,,,,,,,,,,,,,,,,,,,,,,,,,,,,,,,,,,,,,,,,,,,,,,,,,,,,,,,,,,,,,,,,,,,,,,,,,,,,,,,,,,,
,,6523f8d76e87618c47c4ac85,2024-02-19_03h15.14.025,kallum_motion_pilot,2023.2.2,Win32,60.24096386,6523f8d76e87618c47c4ac85,65d2b6c8f2eece985d8e374c,65d2b9a1f2eece985d8e37c7,0.0915,0.0916,1,68,230,11,1,twofour,,,,,,,,,,,,,,,,,,,,,,,,,,,,,,,,,,,,,,,,,,,,,,,,,,,,,,,,,,,,,,,,,,,,,,,,,,,,,,,,,,,,,,,,,,,,,,,,,,,,,,,,,,,,,,,,,,,,,,,,,,,,,,,,,,,,,,,,,
,,6523f8d76e87618c47c4ac85,2024-02-19_03h15.14.025,kallum_motion_pilot,2023.2.2,Win32,60.24096386,6523f8d76e87618c47c4ac85,65d2b6c8f2eece985d8e374c,65d2b9a1f2eece985d8e37c7,0.0918,0.0919,1,69,231,110,1,eightsix,,,,,,,,,,,,,,,,,,,,,,,,,,,,,,,,,,,,,,,,,,,,,,,,,,,,,,,,,,,,,,,,,,,,,,,,,,,,,,,,,,,,,,,,,,,,,,,,,,,,,,,,,,,,,,,,,,,,,,,,,,,,,,,,,,,,,,,,,
,,6523f8d76e87618c47c4ac85,2024-02-19_03h15.14.025,kallum_motion_pilot,2023.2.2,Win32,60.24096386,6523f8d76e87618c47c4ac85,65d2b6c8f2eece985d8e374c,65d2b9a1f2eece985d8e37c7,0.0919,0.092,1,70,232,103,1,eightseven,,,,,,,,,,,,,,,,,,,,,,,,,,,,,,,,,,,,,,,,,,,,,,,,,,,,,,,,,,,,,,,,,,,,,,,,,,,,,,,,,,,,,,,,,,,,,,,,,,,,,,,,,,,,,,,,,,,,,,,,,,,,,,,,,,,,,,,,,
,,6523f8d76e87618c47c4ac85,2024-02-19_03h15.14.025,kallum_motion_pilot,2023.2.2,Win32,60.24096386,6523f8d76e87618c47c4ac85,65d2b6c8f2eece985d8e374c,65d2b9a1f2eece985d8e37c7,0.092,0.0922,1,71,233,33,1,onethree,,,,,,,,,,,,,,,,,,,,,,,,,,,,,,,,,,,,,,,,,,,,,,,,,,,,,,,,,,,,,,,,,,,,,,,,,,,,,,,,,,,,,,,,,,,,,,,,,,,,,,,,,,,,,,,,,,,,,,,,,,,,,,,,,,,,,,,,,
,,6523f8d76e87618c47c4ac85,2024-02-19_03h15.14.025,kallum_motion_pilot,2023.2.2,Win32,60.24096386,6523f8d76e87618c47c4ac85,65d2b6c8f2eece985d8e374c,65d2b9a1f2eece985d8e37c7,0.0923,0.0924,1,72,234,89,1,fiveseven,,,,,,,,,,,,,,,,,,,,,,,,,,,,,,,,,,,,,,,,,,,,,,,,,,,,,,,,,,,,,,,,,,,,,,,,,,,,,,,,,,,,,,,,,,,,,,,,,,,,,,,,,,,,,,,,,,,,,,,,,,,,,,,,,,,,,,,,,
,,6523f8d76e87618c47c4ac85,2024-02-19_03h15.14.025,kallum_motion_pilot,2023.2.2,Win32,60.24096386,6523f8d76e87618c47c4ac85,65d2b6c8f2eece985d8e374c,65d2b9a1f2eece985d8e37c7,0.0925,0.0926,1,73,235,54,1,fourtwo,,,,,,,,,,,,,,,,,,,,,,,,,,,,,,,,,,,,,,,,,,,,,,,,,,,,,,,,,,,,,,,,,,,,,,,,,,,,,,,,,,,,,,,,,,,,,,,,,,,,,,,,,,,,,,,,,,,,,,,,,,,,,,,,,,,,,,,,,
,,6523f8d76e87618c47c4ac85,2024-02-19_03h15.14.025,kallum_motion_pilot,2023.2.2,Win32,60.24096386,6523f8d76e87618c47c4ac85,65d2b6c8f2eece985d8e374c,65d2b9a1f2eece985d8e37c7,0.0927,0.0928,1,74,236,153,1,fiveseven,,,,,,,,,,,,,,,,,,,,,,,,,,,,,,,,,,,,,,,,,,,,,,,,,,,,,,,,,,,,,,,,,,,,,,,,,,,,,,,,,,,,,,,,,,,,,,,,,,,,,,,,,,,,,,,,,,,,,,,,,,,,,,,,,,,,,,,,,
,,6523f8d76e87618c47c4ac85,2024-02-19_03h15.14.025,kallum_motion_pilot,2023.2.2,Win32,60.24096386,6523f8d76e87618c47c4ac85,65d2b6c8f2eece985d8e374c,65d2b9a1f2eece985d8e37c7,0.0928,0.0931,1,75,237,37,1,threefour,,,,,,,,,,,,,,,,,,,,,,,,,,,,,,,,,,,,,,,,,,,,,,,,,,,,,,,,,,,,,,,,,,,,,,,,,,,,,,,,,,,,,,,,,,,,,,,,,,,,,,,,,,,,,,,,,,,,,,,,,,,,,,,,,,,,,,,,,
,,6523f8d76e87618c47c4ac85,2024-02-19_03h15.14.025,kallum_motion_pilot,2023.2.2,Win32,60.24096386,6523f8d76e87618c47c4ac85,65d2b6c8f2eece985d8e374c,65d2b9a1f2eece985d8e37c7,0.0931,0.0932,1,76,238,152,1,fivesix,,,,,,,,,,,,,,,,,,,,,,,,,,,,,,,,,,,,,,,,,,,,,,,,,,,,,,,,,,,,,,,,,,,,,,,,,,,,,,,,,,,,,,,,,,,,,,,,,,,,,,,,,,,,,,,,,,,,,,,,,,,,,,,,,,,,,,,,,
,,6523f8d76e87618c47c4ac85,2024-02-19_03h15.14.025,kallum_motion_pilot,2023.2.2,Win32,60.24096386,6523f8d76e87618c47c4ac85,65d2b6c8f2eece985d8e374c,65d2b9a1f2eece985d8e37c7,0.0933,0.0935,1,77,239,104,1,fivesix,,,,,,,,,,,,,,,,,,,,,,,,,,,,,,,,,,,,,,,,,,,,,,,,,,,,,,,,,,,,,,,,,,,,,,,,,,,,,,,,,,,,,,,,,,,,,,,,,,,,,,,,,,,,,,,,,,,,,,,,,,,,,,,,,,,,,,,,,
,,6523f8d76e87618c47c4ac85,2024-02-19_03h15.14.025,kallum_motion_pilot,2023.2.2,Win32,60.24096386,6523f8d76e87618c47c4ac85,65d2b6c8f2eece985d8e374c,65d2b9a1f2eece985d8e37c7,0.0936,0.0937,1,78,240,116,1,sevenfive,,,,,,,,,,,,,,,,,,,,,,,,,,,,,,,,,,,,,,,,,,,,,,,,,,,,,,,,,,,,,,,,,,,,,,,,,,,,,,,,,,,,,,,,,,,,,,,,,,,,,,,,,,,,,,,,,,,,,,,,,,,,,,,,,,,,,,,,,
,,6523f8d76e87618c47c4ac85,2024-02-19_03h15.14.025,kallum_motion_pilot,2023.2.2,Win32,60.24096386,6523f8d76e87618c47c4ac85,65d2b6c8f2eece985d8e374c,65d2b9a1f2eece985d8e37c7,0.0938,0.0939,1,79,241,29,1,threefour,,,,,,,,,,,,,,,,,,,,,,,,,,,,,,,,,,,,,,,,,,,,,,,,,,,,,,,,,,,,,,,,,,,,,,,,,,,,,,,,,,,,,,,,,,,,,,,,,,,,,,,,,,,,,,,,,,,,,,,,,,,,,,,,,,,,,,,,,
,,6523f8d76e87618c47c4ac85,2024-02-19_03h15.14.025,kallum_motion_pilot,2023.2.2,Win32,60.24096386,6523f8d76e87618c47c4ac85,65d2b6c8f2eece985d8e374c,65d2b9a1f2eece985d8e37c7,0.094,0.0941,1,80,242,49,1,onethree,,,,,,,,,,,,,,,,,,,,,,,,,,,,,,,,,,,,,,,,,,,,,,,,,,,,,,,,,,,,,,,,,,,,,,,,,,,,,,,,,,,,,,,,,,,,,,,,,,,,,,,,,,,,,,,,,,,,,,,,,,,,,,,,,,,,,,,,,
,,6523f8d76e87618c47c4ac85,2024-02-19_03h15.14.025,kallum_motion_pilot,2023.2.2,Win32,60.24096386,6523f8d76e87618c47c4ac85,65d2b6c8f2eece985d8e374c,65d2b9a1f2eece985d8e37c7,0.0942,0.0943,1,81,243,34,1,twoone,,,,,,,,,,,,,,,,,,,,,,,,,,,,,,,,,,,,,,,,,,,,,,,,,,,,,,,,,,,,,,,,,,,,,,,,,,,,,,,,,,,,,,,,,,,,,,,,,,,,,,,,,,,,,,,,,,,,,,,,,,,,,,,,,,,,,,,,,
,,6523f8d76e87618c47c4ac85,2024-02-19_03h15.14.025,kallum_motion_pilot,2023.2.2,Win32,60.24096386,6523f8d76e87618c47c4ac85,65d2b6c8f2eece985d8e374c,65d2b9a1f2eece985d8e37c7,0.0944,0.0946,1,82,244,9,1,onethree,,,,,,,,,,,,,,,,,,,,,,,,,,,,,,,,,,,,,,,,,,,,,,,,,,,,,,,,,,,,,,,,,,,,,,,,,,,,,,,,,,,,,,,,,,,,,,,,,,,,,,,,,,,,,,,,,,,,,,,,,,,,,,,,,,,,,,,,,
,,6523f8d76e87618c47c4ac85,2024-02-19_03h15.14.025,kallum_motion_pilot,2023.2.2,Win32,60.24096386,6523f8d76e87618c47c4ac85,65d2b6c8f2eece985d8e374c,65d2b9a1f2eece985d8e37c7,0.0946,0.0948,1,83,245,151,1,eightseven,,,,,,,,,,,,,,,,,,,,,,,,,,,,,,,,,,,,,,,,,,,,,,,,,,,,,,,,,,,,,,,,,,,,,,,,,,,,,,,,,,,,,,,,,,,,,,,,,,,,,,,,,,,,,,,,,,,,,,,,,,,,,,,,,,,,,,,,,
,,6523f8d76e87618c47c4ac85,2024-02-19_03h15.14.025,kallum_motion_pilot,2023.2.2,Win32,60.24096386,6523f8d76e87618c47c4ac85,65d2b6c8f2eece985d8e374c,65d2b9a1f2eece985d8e37c7,0.0949,0.095,1,84,246,107,1,sixeight,,,,,,,,,,,,,,,,,,,,,,,,,,,,,,,,,,,,,,,,,,,,,,,,,,,,,,,,,,,,,,,,,,,,,,,,,,,,,,,,,,,,,,,,,,,,,,,,,,,,,,,,,,,,,,,,,,,,,,,,,,,,,,,,,,,,,,,,,
,,6523f8d76e87618c47c4ac85,2024-02-19_03h15.14.025,kallum_motion_pilot,2023.2.2,Win32,60.24096386,6523f8d76e87618c47c4ac85,65d2b6c8f2eece985d8e374c,65d2b9a1f2eece985d8e37c7,0.095,0.0952,1,85,247,45,1,threefour,,,,,,,,,,,,,,,,,,,,,,,,,,,,,,,,,,,,,,,,,,,,,,,,,,,,,,,,,,,,,,,,,,,,,,,,,,,,,,,,,,,,,,,,,,,,,,,,,,,,,,,,,,,,,,,,,,,,,,,,,,,,,,,,,,,,,,,,,
,,6523f8d76e87618c47c4ac85,2024-02-19_03h15.14.025,kallum_motion_pilot,2023.2.2,Win32,60.24096386,6523f8d76e87618c47c4ac85,65d2b6c8f2eece985d8e374c,65d2b9a1f2eece985d8e37c7,0.0952,0.0954,1,86,248,156,1,sevenfive,,,,,,,,,,,,,,,,,,,,,,,,,,,,,,,,,,,,,,,,,,,,,,,,,,,,,,,,,,,,,,,,,,,,,,,,,,,,,,,,,,,,,,,,,,,,,,,,,,,,,,,,,,,,,,,,,,,,,,,,,,,,,,,,,,,,,,,,,
,,6523f8d76e87618c47c4ac85,2024-02-19_03h15.14.025,kallum_motion_pilot,2023.2.2,Win32,60.24096386,6523f8d76e87618c47c4ac85,65d2b6c8f2eece985d8e374c,65d2b9a1f2eece985d8e37c7,0.0955,0.0956,1,87,249,128,1,fivesix,,,,,,,,,,,,,,,,,,,,,,,,,,,,,,,,,,,,,,,,,,,,,,,,,,,,,,,,,,,,,,,,,,,,,,,,,,,,,,,,,,,,,,,,,,,,,,,,,,,,,,,,,,,,,,,,,,,,,,,,,,,,,,,,,,,,,,,,,
,,6523f8d76e87618c47c4ac85,2024-02-19_03h15.14.025,kallum_motion_pilot,2023.2.2,Win32,60.24096386,6523f8d76e87618c47c4ac85,65d2b6c8f2eece985d8e374c,65d2b9a1f2eece985d8e37c7,0.0957,0.0958,1,88,250,10,1,twoone,,,,,,,,,,,,,,,,,,,,,,,,,,,,,,,,,,,,,,,,,,,,,,,,,,,,,,,,,,,,,,,,,,,,,,,,,,,,,,,,,,,,,,,,,,,,,,,,,,,,,,,,,,,,,,,,,,,,,,,,,,,,,,,,,,,,,,,,,
,,6523f8d76e87618c47c4ac85,2024-02-19_03h15.14.025,kallum_motion_pilot,2023.2.2,Win32,60.24096386,6523f8d76e87618c47c4ac85,65d2b6c8f2eece985d8e374c,65d2b9a1f2eece985d8e37c7,0.0959,0.096,1,89,251,5,1,threefour,,,,,,,,,,,,,,,,,,,,,,,,,,,,,,,,,,,,,,,,,,,,,,,,,,,,,,,,,,,,,,,,,,,,,,,,,,,,,,,,,,,,,,,,,,,,,,,,,,,,,,,,,,,,,,,,,,,,,,,,,,,,,,,,,,,,,,,,,
,,6523f8d76e87618c47c4ac85,2024-02-19_03h15.14.025,kallum_motion_pilot,2023.2.2,Win32,60.24096386,6523f8d76e87618c47c4ac85,65d2b6c8f2eece985d8e374c,65d2b9a1f2eece985d8e37c7,0.0961,0.0962,1,90,252,144,1,fivesix,,,,,,,,,,,,,,,,,,,,,,,,,,,,,,,,,,,,,,,,,,,,,,,,,,,,,,,,,,,,,,,,,,,,,,,,,,,,,,,,,,,,,,,,,,,,,,,,,,,,,,,,,,,,,,,,,,,,,,,,,,,,,,,,,,,,,,,,,
,,6523f8d76e87618c47c4ac85,2024-02-19_03h15.14.025,kallum_motion_pilot,2023.2.2,Win32,60.24096386,6523f8d76e87618c47c4ac85,65d2b6c8f2eece985d8e374c,65d2b9a1f2eece985d8e37c7,0.0974,0.0976,1,91,253,120,1,fivesix,,,,,,,,,,,,,,,,,,,,,,,,,,,,,,,,,,,,,,,,,,,,,,,,,,,,,,,,,,,,,,,,,,,,,,,,,,,,,,,,,,,,,,,,,,,,,,,,,,,,,,,,,,,,,,,,,,,,,,,,,,,,,,,,,,,,,,,,,
,,6523f8d76e87618c47c4ac85,2024-02-19_03h15.14.025,kallum_motion_pilot,2023.2.2,Win32,60.24096386,6523f8d76e87618c47c4ac85,65d2b6c8f2eece985d8e374c,65d2b9a1f2eece985d8e37c7,0.0977,0.0978,1,92,254,141,1,seveneight,,,,,,,,,,,,,,,,,,,,,,,,,,,,,,,,,,,,,,,,,,,,,,,,,,,,,,,,,,,,,,,,,,,,,,,,,,,,,,,,,,,,,,,,,,,,,,,,,,,,,,,,,,,,,,,,,,,,,,,,,,,,,,,,,,,,,,,,,
,,6523f8d76e87618c47c4ac85,2024-02-19_03h15.14.025,kallum_motion_pilot,2023.2.2,Win32,60.24096386,6523f8d76e87618c47c4ac85,65d2b6c8f2eece985d8e374c,65d2b9a1f2eece985d8e37c7,0.098,0.0982,1,93,255,118,1,eightsix,,,,,,,,,,,,,,,,,,,,,,,,,,,,,,,,,,,,,,,,,,,,,,,,,,,,,,,,,,,,,,,,,,,,,,,,,,,,,,,,,,,,,,,,,,,,,,,,,,,,,,,,,,,,,,,,,,,,,,,,,,,,,,,,,,,,,,,,,
,,6523f8d76e87618c47c4ac85,2024-02-19_03h15.14.025,kallum_motion_pilot,2023.2.2,Win32,60.24096386,6523f8d76e87618c47c4ac85,65d2b6c8f2eece985d8e374c,65d2b9a1f2eece985d8e37c7,0.0983,0.0984,1,94,256,17,1,onethree,,,,,,,,,,,,,,,,,,,,,,,,,,,,,,,,,,,,,,,,,,,,,,,,,,,,,,,,,,,,,,,,,,,,,,,,,,,,,,,,,,,,,,,,,,,,,,,,,,,,,,,,,,,,,,,,,,,,,,,,,,,,,,,,,,,,,,,,,
,,6523f8d76e87618c47c4ac85,2024-02-19_03h15.14.025,kallum_motion_pilot,2023.2.2,Win32,60.24096386,6523f8d76e87618c47c4ac85,65d2b6c8f2eece985d8e374c,65d2b9a1f2eece985d8e37c7,0.0985,0.0987,1,95,257,38,1,fourtwo,,,,,,,,,,,,,,,,,,,,,,,,,,,,,,,,,,,,,,,,,,,,,,,,,,,,,,,,,,,,,,,,,,,,,,,,,,,,,,,,,,,,,,,,,,,,,,,,,,,,,,,,,,,,,,,,,,,,,,,,,,,,,,,,,,,,,,,,,
,,6523f8d76e87618c47c4ac85,2024-02-19_03h15.14.025,kallum_motion_pilot,2023.2.2,Win32,60.24096386,6523f8d76e87618c47c4ac85,65d2b6c8f2eece985d8e374c,65d2b9a1f2eece985d8e37c7,0.0988,0.099,1,96,258,79,1,eightseven,,,,,,,,,,,,,,,,,,,,,,,,,,,,,,,,,,,,,,,,,,,,,,,,,,,,,,,,,,,,,,,,,,,,,,,,,,,,,,,,,,,,,,,,,,,,,,,,,,,,,,,,,,,,,,,,,,,,,,,,,,,,,,,,,,,,,,,,,
,,6523f8d76e87618c47c4ac85,2024-02-19_03h15.14.025,kallum_motion_pilot,2023.2.2,Win32,60.24096386,6523f8d76e87618c47c4ac85,65d2b6c8f2eece985d8e374c,65d2b9a1f2eece985d8e37c7,0.0992,0.0994,1,97,259,32,1,onetwo,,,,,,,,,,,,,,,,,,,,,,,,,,,,,,,,,,,,,,,,,,,,,,,,,,,,,,,,,,,,,,,,,,,,,,,,,,,,,,,,,,,,,,,,,,,,,,,,,,,,,,,,,,,,,,,,,,,,,,,,,,,,,,,,,,,,,,,,,
,,6523f8d76e87618c47c4ac85,2024-02-19_03h15.14.025,kallum_motion_pilot,2023.2.2,Win32,60.24096386,6523f8d76e87618c47c4ac85,65d2b6c8f2eece985d8e374c,65d2b9a1f2eece985d8e37c7,0.0995,0.0999,1,98,260,132,1,sevenfive,,,,,,,,,,,,,,,,,,,,,,,,,,,,,,,,,,,,,,,,,,,,,,,,,,,,,,,,,,,,,,,,,,,,,,,,,,,,,,,,,,,,,,,,,,,,,,,,,,,,,,,,,,,,,,,,,,,,,,,,,,,,,,,,,,,,,,,,,
,,6523f8d76e87618c47c4ac85,2024-02-19_03h15.14.025,kallum_motion_pilot,2023.2.2,Win32,60.24096386,6523f8d76e87618c47c4ac85,65d2b6c8f2eece985d8e374c,65d2b9a1f2eece985d8e37c7,0.1,0.1003,1,99,261,135,1,eightseven,,,,,,,,,,,,,,,,,,,,,,,,,,,,,,,,,,,,,,,,,,,,,,,,,,,,,,,,,,,,,,,,,,,,,,,,,,,,,,,,,,,,,,,,,,,,,,,,,,,,,,,,,,,,,,,,,,,,,,,,,,,,,,,,,,,,,,,,,
,,6523f8d76e87618c47c4ac85,2024-02-19_03h15.14.025,kallum_motion_pilot,2023.2.2,Win32,60.24096386,6523f8d76e87618c47c4ac85,65d2b6c8f2eece985d8e374c,65d2b9a1f2eece985d8e37c7,0.1005,0.1006,1,100,262,3,1,twofour,,,,,,,,,,,,,,,,,,,,,,,,,,,,,,,,,,,,,,,,,,,,,,,,,,,,,,,,,,,,,,,,,,,,,,,,,,,,,,,,,,,,,,,,,,,,,,,,,,,,,,,,,,,,,,,,,,,,,,,,,,,,,,,,,,,,,,,,,
,,6523f8d76e87618c47c4ac85,2024-02-19_03h15.14.025,kallum_motion_pilot,2023.2.2,Win32,60.24096386,6523f8d76e87618c47c4ac85,65d2b6c8f2eece985d8e374c,65d2b9a1f2eece985d8e37c7,0.1008,0.101,1,101,263,96,1,fivesix,,,,,,,,,,,,,,,,,,,,,,,,,,,,,,,,,,,,,,,,,,,,,,,,,,,,,,,,,,,,,,,,,,,,,,,,,,,,,,,,,,,,,,,,,,,,,,,,,,,,,,,,,,,,,,,,,,,,,,,,,,,,,,,,,,,,,,,,,
,,6523f8d76e87618c47c4ac85,2024-02-19_03h15.14.025,kallum_motion_pilot,2023.2.2,Win32,60.24096386,6523f8d76e87618c47c4ac85,65d2b6c8f2eece985d8e374c,65d2b9a1f2eece985d8e37c7,0.1012,0.1015,1,102,264,111,1,eightseven,,,,,,,,,,,,,,,,,,,,,,,,,,,,,,,,,,,,,,,,,,,,,,,,,,,,,,,,,,,,,,,,,,,,,,,,,,,,,,,,,,,,,,,,,,,,,,,,,,,,,,,,,,,,,,,,,,,,,,,,,,,,,,,,,,,,,,,,,
,,6523f8d76e87618c47c4ac85,2024-02-19_03h15.14.025,kallum_motion_pilot,2023.2.2,Win32,60.24096386,6523f8d76e87618c47c4ac85,65d2b6c8f2eece985d8e374c,65d2b9a1f2eece985d8e37c7,0.1016,0.1019,1,103,265,99,1,sixeight,,,,,,,,,,,,,,,,,,,,,,,,,,,,,,,,,,,,,,,,,,,,,,,,,,,,,,,,,,,,,,,,,,,,,,,,,,,,,,,,,,,,,,,,,,,,,,,,,,,,,,,,,,,,,,,,,,,,,,,,,,,,,,,,,,,,,,,,,
,,6523f8d76e87618c47c4ac85,2024-02-19_03h15.14.025,kallum_motion_pilot,2023.2.2,Win32,60.24096386,6523f8d76e87618c47c4ac85,65d2b6c8f2eece985d8e374c,65d2b9a1f2eece985d8e37c7,0.1021,0.1023,1,104,266,124,1,sevenfive,,,,,,,,,,,,,,,,,,,,,,,,,,,,,,,,,,,,,,,,,,,,,,,,,,,,,,,,,,,,,,,,,,,,,,,,,,,,,,,,,,,,,,,,,,,,,,,,,,,,,,,,,,,,,,,,,,,,,,,,,,,,,,,,,,,,,,,,,
,,6523f8d76e87618c47c4ac85,2024-02-19_03h15.14.025,kallum_motion_pilot,2023.2.2,Win32,60.24096386,6523f8d76e87618c47c4ac85,65d2b6c8f2eece985d8e374c,65d2b9a1f2eece985d8e37c7,0.1024,0.1026,1,105,267,61,1,threefour,,,,,,,,,,,,,,,,,,,,,,,,,,,,,,,,,,,,,,,,,,,,,,,,,,,,,,,,,,,,,,,,,,,,,,,,,,,,,,,,,,,,,,,,,,,,,,,,,,,,,,,,,,,,,,,,,,,,,,,,,,,,,,,,,,,,,,,,,
,,6523f8d76e87618c47c4ac85,2024-02-19_03h15.14.025,kallum_motion_pilot,2023.2.2,Win32,60.24096386,6523f8d76e87618c47c4ac85,65d2b6c8f2eece985d8e374c,65d2b9a1f2eece985d8e37c7,0.1027,0.1029,1,106,268,69,1,threefour,,,,,,,,,,,,,,,,,,,,,,,,,,,,,,,,,,,,,,,,,,,,,,,,,,,,,,,,,,,,,,,,,,,,,,,,,,,,,,,,,,,,,,,,,,,,,,,,,,,,,,,,,,,,,,,,,,,,,,,,,,,,,,,,,,,,,,,,,
,,6523f8d76e87618c47c4ac85,2024-02-19_03h15.14.025,kallum_motion_pilot,2023.2.2,Win32,60.24096386,6523f8d76e87618c47c4ac85,65d2b6c8f2eece985d8e374c,65d2b9a1f2eece985d8e37c7,0.1031,0.1031,1,107,269,129,1,fiveseven,,,,,,,,,,,,,,,,,,,,,,,,,,,,,,,,,,,,,,,,,,,,,,,,,,,,,,,,,,,,,,,,,,,,,,,,,,,,,,,,,,,,,,,,,,,,,,,,,,,,,,,,,,,,,,,,,,,,,,,,,,,,,,,,,,,,,,,,,
,,6523f8d76e87618c47c4ac85,2024-02-19_03h15.14.025,kallum_motion_pilot,2023.2.2,Win32,60.24096386,6523f8d76e87618c47c4ac85,65d2b6c8f2eece985d8e374c,65d2b9a1f2eece985d8e37c7,0.1033,0.1035,1,108,270,143,1,eightseven,,,,,,,,,,,,,,,,,,,,,,,,,,,,,,,,,,,,,,,,,,,,,,,,,,,,,,,,,,,,,,,,,,,,,,,,,,,,,,,,,,,,,,,,,,,,,,,,,,,,,,,,,,,,,,,,,,,,,,,,,,,,,,,,,,,,,,,,,
,,6523f8d76e87618c47c4ac85,2024-02-19_03h15.14.025,kallum_motion_pilot,2023.2.2,Win32,60.24096386,6523f8d76e87618c47c4ac85,65d2b6c8f2eece985d8e374c,65d2b9a1f2eece985d8e37c7,0.1036,0.1037,1,109,271,112,1,fivesix,,,,,,,,,,,,,,,,,,,,,,,,,,,,,,,,,,,,,,,,,,,,,,,,,,,,,,,,,,,,,,,,,,,,,,,,,,,,,,,,,,,,,,,,,,,,,,,,,,,,,,,,,,,,,,,,,,,,,,,,,,,,,,,,,,,,,,,,,
,,6523f8d76e87618c47c4ac85,2024-02-19_03h15.14.025,kallum_motion_pilot,2023.2.2,Win32,60.24096386,6523f8d76e87618c47c4ac85,65d2b6c8f2eece985d8e374c,65d2b9a1f2eece985d8e37c7,0.1039,0.1041,1,110,272,101,1,seveneight,,,,,,,,,,,,,,,,,,,,,,,,,,,,,,,,,,,,,,,,,,,,,,,,,,,,,,,,,,,,,,,,,,,,,,,,,,,,,,,,,,,,,,,,,,,,,,,,,,,,,,,,,,,,,,,,,,,,,,,,,,,,,,,,,,,,,,,,,
,,6523f8d76e87618c47c4ac85,2024-02-19_03h15.14.025,kallum_motion_pilot,2023.2.2,Win32,60.24096386,6523f8d76e87618c47c4ac85,65d2b6c8f2eece985d8e374c,65d2b9a1f2eece985d8e37c7,0.1042,0.1044,1,111,273,1,1,onethree,,,,,,,,,,,,,,,,,,,,,,,,,,,,,,,,,,,,,,,,,,,,,,,,,,,,,,,,,,,,,,,,,,,,,,,,,,,,,,,,,,,,,,,,,,,,,,,,,,,,,,,,,,,,,,,,,,,,,,,,,,,,,,,,,,,,,,,,,
,,6523f8d76e87618c47c4ac85,2024-02-19_03h15.14.025,kallum_motion_pilot,2023.2.2,Win32,60.24096386,6523f8d76e87618c47c4ac85,65d2b6c8f2eece985d8e374c,65d2b9a1f2eece985d8e37c7,0.1044,0.1046,1,112,274,108,1,sevenfive,,,,,,,,,,,,,,,,,,,,,,,,,,,,,,,,,,,,,,,,,,,,,,,,,,,,,,,,,,,,,,,,,,,,,,,,,,,,,,,,,,,,,,,,,,,,,,,,,,,,,,,,,,,,,,,,,,,,,,,,,,,,,,,,,,,,,,,,,
,,6523f8d76e87618c47c4ac85,2024-02-19_03h15.14.025,kallum_motion_pilot,2023.2.2,Win32,60.24096386,6523f8d76e87618c47c4ac85,65d2b6c8f2eece985d8e374c,65d2b9a1f2eece985d8e37c7,0.1047,0.1048,1,113,275,159,1,eightseven,,,,,,,,,,,,,,,,,,,,,,,,,,,,,,,,,,,,,,,,,,,,,,,,,,,,,,,,,,,,,,,,,,,,,,,,,,,,,,,,,,,,,,,,,,,,,,,,,,,,,,,,,,,,,,,,,,,,,,,,,,,,,,,,,,,,,,,,,
,,6523f8d76e87618c47c4ac85,2024-02-19_03h15.14.025,kallum_motion_pilot,2023.2.2,Win32,60.24096386,6523f8d76e87618c47c4ac85,65d2b6c8f2eece985d8e374c,65d2b9a1f2eece985d8e37c7,0.105,0.1051,1,114,276,51,1,twofour,,,,,,,,,,,,,,,,,,,,,,,,,,,,,,,,,,,,,,,,,,,,,,,,,,,,,,,,,,,,,,,,,,,,,,,,,,,,,,,,,,,,,,,,,,,,,,,,,,,,,,,,,,,,,,,,,,,,,,,,,,,,,,,,,,,,,,,,,
,,6523f8d76e87618c47c4ac85,2024-02-19_03h15.14.025,kallum_motion_pilot,2023.2.2,Win32,60.24096386,6523f8d76e87618c47c4ac85,65d2b6c8f2eece985d8e374c,65d2b9a1f2eece985d8e37c7,0.1052,0.1054,1,115,277,85,1,seveneight,,,,,,,,,,,,,,,,,,,,,,,,,,,,,,,,,,,,,,,,,,,,,,,,,,,,,,,,,,,,,,,,,,,,,,,,,,,,,,,,,,,,,,,,,,,,,,,,,,,,,,,,,,,,,,,,,,,,,,,,,,,,,,,,,,,,,,,,,
