startup.started,startup.stopped,Prolific ID*,date,expName,psychopyVersion,OS,frameRate,participant,study_id,session,stimpositions.started,stimpositions.stopped,hardcoded_stimulus_positions.thisRepN,hardcoded_stimulus_positions.thisTrialN,hardcoded_stimulus_positions.thisN,hardcoded_stimulus_positions.thisIndex,hardcoded_stimulus_positions.ran,StimulusPos,stimorientation.started,stimorientation.stopped,prac_stimorientation_import_loop.thisRepN,prac_stimorientation_import_loop.thisTrialN,prac_stimorientation_import_loop.thisN,prac_stimorientation_import_loop.thisIndex,prac_stimorientation_import_loop.ran,Stimorientation,welcome_instr.started,welcome_instr.stopped,key_resp.keys,key_resp.rt,key_resp.duration,response_steppedout_1.started,response_steppedout_1.stopped,key_resp_20.keys,key_resp_20.rt,key_resp_20.duration,response_steppedout_2.started,response_steppedout_2.stopped,key_resp_19.keys,key_resp_19.rt,key_resp_19.duration,stim_response_instr.started,stim_response_instr.stopped,key_resp_15.keys,key_resp_15.rt,key_resp_15.duration,direction_instr_2.started,direction_instr_2.stopped,key_resp_9.keys,key_resp_9.rt,key_resp_9.duration,instr_prac.started,instr_prac.stopped,key_resp_10.keys,key_resp_10.rt,key_resp_10.duration,Stim1_display_prac.started,Stim1_display_prac.stopped,Ecc,Circle1_ori,Circle2_ori,response_prac.started,similarity,response_time,response_prac.stopped,mouse_5.x,mouse_5.y,mouse_5.leftButton,mouse_5.midButton,mouse_5.rightButton,mouse_5.clicked_name,responseprac_feedback.started,responseprac_feedback.stopped,summary2_prac.started,summary2_prac.stopped,mouse_6.x,mouse_6.y,mouse_6.leftButton,mouse_6.midButton,mouse_6.rightButton,mouse_6.clicked_name,duringprac.thisRepN,duringprac.thisTrialN,duringprac.thisN,duringprac.thisIndex,duringprac.ran,begin.started,begin.stopped,key_resp_22.keys,key_resp_22.rt,key_resp_22.duration,Stim1_display.started,Stim1_display.stopped,circle1_ori,circle2_ori,circle1_SF,circle2_SF,response.started,response.stopped,mouse.x,mouse.y,mouse.leftButton,mouse.midButton,mouse.rightButton,mouse.clicked_name,trialnumber,double_pass.thisRepN,double_pass.thisTrialN,double_pass.thisN,double_pass.thisIndex,double_pass.ran,double_pass.order,main_trial.thisRepN,main_trial.thisTrialN,main_trial.thisN,main_trial.thisIndex,main_trial.ran,main_trial.order,Trial_Counter,Catch,Frequencies,response_2.started,response_2.stopped,mouse_2.x,mouse_2.y,mouse_2.leftButton,mouse_2.midButton,mouse_2.rightButton,mouse_2.clicked_name,special_trial.started,special_trial.stopped,catch_1.started,catch_1.stopped,mouse_3.x,mouse_3.y,mouse_3.leftButton,mouse_3.midButton,mouse_3.rightButton,catchresponse,catchnumber,response_time_catch,response_sum.started,response_sum.stopped,mouse_11.x,mouse_11.y,mouse_11.leftButton,mouse_11.midButton,mouse_11.rightButton,flip_presentation_sequence_for_double_pass.started,flip_presentation_sequence_for_double_pass.stopped,goodbye.started,goodbye.stopped,key_resp_3.keys,key_resp_3.rt,key_resp_3.duration
0.001,0.0013,652dc8973a77e5f1b36d66c4,2024-02-19_13h11.48.904,kallum_motion_pilot,2023.2.2,Win32,59.88023952,652dc8973a77e5f1b36d66c4,65d2b6c8f2eece985d8e374c,65d2b7d9591f1c44e8adc94d,,,,,,,,,,,,,,,,,,,,,,,,,,,,,,,,,,,,,,,,,,,,,,,,,,,,,,,,,,,,,,,,,,,,,,,,,,,,,,,,,,,,,,,,,,,,,,,,,,,,,,,,,,,,,,,,,,,,,,,,,,,,,,,,,,,,,,,,,,,,,,,,,
,,652dc8973a77e5f1b36d66c4,2024-02-19_13h11.48.904,kallum_motion_pilot,2023.2.2,Win32,59.88023952,652dc8973a77e5f1b36d66c4,65d2b6c8f2eece985d8e374c,65d2b7d9591f1c44e8adc94d,0.0795,0.0801,0,0,0,107,1,sixeight,,,,,,,,,,,,,,,,,,,,,,,,,,,,,,,,,,,,,,,,,,,,,,,,,,,,,,,,,,,,,,,,,,,,,,,,,,,,,,,,,,,,,,,,,,,,,,,,,,,,,,,,,,,,,,,,,,,,,,,,,,,,,,,,,,,,,,,,,
,,652dc8973a77e5f1b36d66c4,2024-02-19_13h11.48.904,kallum_motion_pilot,2023.2.2,Win32,59.88023952,652dc8973a77e5f1b36d66c4,65d2b6c8f2eece985d8e374c,65d2b7d9591f1c44e8adc94d,0.0807,0.0808,0,1,1,67,1,twofour,,,,,,,,,,,,,,,,,,,,,,,,,,,,,,,,,,,,,,,,,,,,,,,,,,,,,,,,,,,,,,,,,,,,,,,,,,,,,,,,,,,,,,,,,,,,,,,,,,,,,,,,,,,,,,,,,,,,,,,,,,,,,,,,,,,,,,,,,
,,652dc8973a77e5f1b36d66c4,2024-02-19_13h11.48.904,kallum_motion_pilot,2023.2.2,Win32,59.88023952,652dc8973a77e5f1b36d66c4,65d2b6c8f2eece985d8e374c,65d2b7d9591f1c44e8adc94d,0.081,0.0811,0,2,2,149,1,seveneight,,,,,,,,,,,,,,,,,,,,,,,,,,,,,,,,,,,,,,,,,,,,,,,,,,,,,,,,,,,,,,,,,,,,,,,,,,,,,,,,,,,,,,,,,,,,,,,,,,,,,,,,,,,,,,,,,,,,,,,,,,,,,,,,,,,,,,,,,
,,652dc8973a77e5f1b36d66c4,2024-02-19_13h11.48.904,kallum_motion_pilot,2023.2.2,Win32,59.88023952,652dc8973a77e5f1b36d66c4,65d2b6c8f2eece985d8e374c,65d2b7d9591f1c44e8adc94d,0.0814,0.0814,0,3,3,36,1,threeone,,,,,,,,,,,,,,,,,,,,,,,,,,,,,,,,,,,,,,,,,,,,,,,,,,,,,,,,,,,,,,,,,,,,,,,,,,,,,,,,,,,,,,,,,,,,,,,,,,,,,,,,,,,,,,,,,,,,,,,,,,,,,,,,,,,,,,,,,
,,652dc8973a77e5f1b36d66c4,2024-02-19_13h11.48.904,kallum_motion_pilot,2023.2.2,Win32,59.88023952,652dc8973a77e5f1b36d66c4,65d2b6c8f2eece985d8e374c,65d2b7d9591f1c44e8adc94d,0.0817,0.0818,0,4,4,43,1,twofour,,,,,,,,,,,,,,,,,,,,,,,,,,,,,,,,,,,,,,,,,,,,,,,,,,,,,,,,,,,,,,,,,,,,,,,,,,,,,,,,,,,,,,,,,,,,,,,,,,,,,,,,,,,,,,,,,,,,,,,,,,,,,,,,,,,,,,,,,
,,652dc8973a77e5f1b36d66c4,2024-02-19_13h11.48.904,kallum_motion_pilot,2023.2.2,Win32,59.88023952,652dc8973a77e5f1b36d66c4,65d2b6c8f2eece985d8e374c,65d2b7d9591f1c44e8adc94d,0.0821,0.0822,0,5,5,84,1,sevenfive,,,,,,,,,,,,,,,,,,,,,,,,,,,,,,,,,,,,,,,,,,,,,,,,,,,,,,,,,,,,,,,,,,,,,,,,,,,,,,,,,,,,,,,,,,,,,,,,,,,,,,,,,,,,,,,,,,,,,,,,,,,,,,,,,,,,,,,,,
,,652dc8973a77e5f1b36d66c4,2024-02-19_13h11.48.904,kallum_motion_pilot,2023.2.2,Win32,59.88023952,652dc8973a77e5f1b36d66c4,65d2b6c8f2eece985d8e374c,65d2b7d9591f1c44e8adc94d,0.0824,0.0824,0,6,6,10,1,twoone,,,,,,,,,,,,,,,,,,,,,,,,,,,,,,,,,,,,,,,,,,,,,,,,,,,,,,,,,,,,,,,,,,,,,,,,,,,,,,,,,,,,,,,,,,,,,,,,,,,,,,,,,,,,,,,,,,,,,,,,,,,,,,,,,,,,,,,,,
,,652dc8973a77e5f1b36d66c4,2024-02-19_13h11.48.904,kallum_motion_pilot,2023.2.2,Win32,59.88023952,652dc8973a77e5f1b36d66c4,65d2b6c8f2eece985d8e374c,65d2b7d9591f1c44e8adc94d,0.0827,0.0828,0,7,7,7,1,fourthree,,,,,,,,,,,,,,,,,,,,,,,,,,,,,,,,,,,,,,,,,,,,,,,,,,,,,,,,,,,,,,,,,,,,,,,,,,,,,,,,,,,,,,,,,,,,,,,,,,,,,,,,,,,,,,,,,,,,,,,,,,,,,,,,,,,,,,,,,
,,652dc8973a77e5f1b36d66c4,2024-02-19_13h11.48.904,kallum_motion_pilot,2023.2.2,Win32,59.88023952,652dc8973a77e5f1b36d66c4,65d2b6c8f2eece985d8e374c,65d2b7d9591f1c44e8adc94d,0.083,0.0831,0,8,8,120,1,fivesix,,,,,,,,,,,,,,,,,,,,,,,,,,,,,,,,,,,,,,,,,,,,,,,,,,,,,,,,,,,,,,,,,,,,,,,,,,,,,,,,,,,,,,,,,,,,,,,,,,,,,,,,,,,,,,,,,,,,,,,,,,,,,,,,,,,,,,,,,
,,652dc8973a77e5f1b36d66c4,2024-02-19_13h11.48.904,kallum_motion_pilot,2023.2.2,Win32,59.88023952,652dc8973a77e5f1b36d66c4,65d2b6c8f2eece985d8e374c,65d2b7d9591f1c44e8adc94d,0.0835,0.0836,0,9,9,134,1,eightsix,,,,,,,,,,,,,,,,,,,,,,,,,,,,,,,,,,,,,,,,,,,,,,,,,,,,,,,,,,,,,,,,,,,,,,,,,,,,,,,,,,,,,,,,,,,,,,,,,,,,,,,,,,,,,,,,,,,,,,,,,,,,,,,,,,,,,,,,,
,,652dc8973a77e5f1b36d66c4,2024-02-19_13h11.48.904,kallum_motion_pilot,2023.2.2,Win32,59.88023952,652dc8973a77e5f1b36d66c4,65d2b6c8f2eece985d8e374c,65d2b7d9591f1c44e8adc94d,0.084,0.084,0,10,10,26,1,twoone,,,,,,,,,,,,,,,,,,,,,,,,,,,,,,,,,,,,,,,,,,,,,,,,,,,,,,,,,,,,,,,,,,,,,,,,,,,,,,,,,,,,,,,,,,,,,,,,,,,,,,,,,,,,,,,,,,,,,,,,,,,,,,,,,,,,,,,,,
,,652dc8973a77e5f1b36d66c4,2024-02-19_13h11.48.904,kallum_motion_pilot,2023.2.2,Win32,59.88023952,652dc8973a77e5f1b36d66c4,65d2b6c8f2eece985d8e374c,65d2b7d9591f1c44e8adc94d,0.0842,0.0843,0,11,11,81,1,fiveseven,,,,,,,,,,,,,,,,,,,,,,,,,,,,,,,,,,,,,,,,,,,,,,,,,,,,,,,,,,,,,,,,,,,,,,,,,,,,,,,,,,,,,,,,,,,,,,,,,,,,,,,,,,,,,,,,,,,,,,,,,,,,,,,,,,,,,,,,,
,,652dc8973a77e5f1b36d66c4,2024-02-19_13h11.48.904,kallum_motion_pilot,2023.2.2,Win32,59.88023952,652dc8973a77e5f1b36d66c4,65d2b6c8f2eece985d8e374c,65d2b7d9591f1c44e8adc94d,0.0845,0.0846,0,12,12,77,1,threefour,,,,,,,,,,,,,,,,,,,,,,,,,,,,,,,,,,,,,,,,,,,,,,,,,,,,,,,,,,,,,,,,,,,,,,,,,,,,,,,,,,,,,,,,,,,,,,,,,,,,,,,,,,,,,,,,,,,,,,,,,,,,,,,,,,,,,,,,,
,,652dc8973a77e5f1b36d66c4,2024-02-19_13h11.48.904,kallum_motion_pilot,2023.2.2,Win32,59.88023952,652dc8973a77e5f1b36d66c4,65d2b6c8f2eece985d8e374c,65d2b7d9591f1c44e8adc94d,0.0848,0.0848,0,13,13,23,1,fourthree,,,,,,,,,,,,,,,,,,,,,,,,,,,,,,,,,,,,,,,,,,,,,,,,,,,,,,,,,,,,,,,,,,,,,,,,,,,,,,,,,,,,,,,,,,,,,,,,,,,,,,,,,,,,,,,,,,,,,,,,,,,,,,,,,,,,,,,,,
,,652dc8973a77e5f1b36d66c4,2024-02-19_13h11.48.904,kallum_motion_pilot,2023.2.2,Win32,59.88023952,652dc8973a77e5f1b36d66c4,65d2b6c8f2eece985d8e374c,65d2b7d9591f1c44e8adc94d,0.0851,0.0852,0,14,14,78,1,fourtwo,,,,,,,,,,,,,,,,,,,,,,,,,,,,,,,,,,,,,,,,,,,,,,,,,,,,,,,,,,,,,,,,,,,,,,,,,,,,,,,,,,,,,,,,,,,,,,,,,,,,,,,,,,,,,,,,,,,,,,,,,,,,,,,,,,,,,,,,,
,,652dc8973a77e5f1b36d66c4,2024-02-19_13h11.48.904,kallum_motion_pilot,2023.2.2,Win32,59.88023952,652dc8973a77e5f1b36d66c4,65d2b6c8f2eece985d8e374c,65d2b7d9591f1c44e8adc94d,0.0855,0.0856,0,15,15,53,1,threefour,,,,,,,,,,,,,,,,,,,,,,,,,,,,,,,,,,,,,,,,,,,,,,,,,,,,,,,,,,,,,,,,,,,,,,,,,,,,,,,,,,,,,,,,,,,,,,,,,,,,,,,,,,,,,,,,,,,,,,,,,,,,,,,,,,,,,,,,,
,,652dc8973a77e5f1b36d66c4,2024-02-19_13h11.48.904,kallum_motion_pilot,2023.2.2,Win32,59.88023952,652dc8973a77e5f1b36d66c4,65d2b6c8f2eece985d8e374c,65d2b7d9591f1c44e8adc94d,0.0858,0.0859,0,16,16,125,1,seveneight,,,,,,,,,,,,,,,,,,,,,,,,,,,,,,,,,,,,,,,,,,,,,,,,,,,,,,,,,,,,,,,,,,,,,,,,,,,,,,,,,,,,,,,,,,,,,,,,,,,,,,,,,,,,,,,,,,,,,,,,,,,,,,,,,,,,,,,,,
,,652dc8973a77e5f1b36d66c4,2024-02-19_13h11.48.904,kallum_motion_pilot,2023.2.2,Win32,59.88023952,652dc8973a77e5f1b36d66c4,65d2b6c8f2eece985d8e374c,65d2b7d9591f1c44e8adc94d,0.0861,0.0862,0,17,17,47,1,fourthree,,,,,,,,,,,,,,,,,,,,,,,,,,,,,,,,,,,,,,,,,,,,,,,,,,,,,,,,,,,,,,,,,,,,,,,,,,,,,,,,,,,,,,,,,,,,,,,,,,,,,,,,,,,,,,,,,,,,,,,,,,,,,,,,,,,,,,,,,
,,652dc8973a77e5f1b36d66c4,2024-02-19_13h11.48.904,kallum_motion_pilot,2023.2.2,Win32,59.88023952,652dc8973a77e5f1b36d66c4,65d2b6c8f2eece985d8e374c,65d2b7d9591f1c44e8adc94d,0.0864,0.0865,0,18,18,19,1,twofour,,,,,,,,,,,,,,,,,,,,,,,,,,,,,,,,,,,,,,,,,,,,,,,,,,,,,,,,,,,,,,,,,,,,,,,,,,,,,,,,,,,,,,,,,,,,,,,,,,,,,,,,,,,,,,,,,,,,,,,,,,,,,,,,,,,,,,,,,
,,652dc8973a77e5f1b36d66c4,2024-02-19_13h11.48.904,kallum_motion_pilot,2023.2.2,Win32,59.88023952,652dc8973a77e5f1b36d66c4,65d2b6c8f2eece985d8e374c,65d2b7d9591f1c44e8adc94d,0.0867,0.0868,0,19,19,70,1,fourtwo,,,,,,,,,,,,,,,,,,,,,,,,,,,,,,,,,,,,,,,,,,,,,,,,,,,,,,,,,,,,,,,,,,,,,,,,,,,,,,,,,,,,,,,,,,,,,,,,,,,,,,,,,,,,,,,,,,,,,,,,,,,,,,,,,,,,,,,,,
,,652dc8973a77e5f1b36d66c4,2024-02-19_13h11.48.904,kallum_motion_pilot,2023.2.2,Win32,59.88023952,652dc8973a77e5f1b36d66c4,65d2b6c8f2eece985d8e374c,65d2b7d9591f1c44e8adc94d,0.087,0.0871,0,20,20,16,1,onetwo,,,,,,,,,,,,,,,,,,,,,,,,,,,,,,,,,,,,,,,,,,,,,,,,,,,,,,,,,,,,,,,,,,,,,,,,,,,,,,,,,,,,,,,,,,,,,,,,,,,,,,,,,,,,,,,,,,,,,,,,,,,,,,,,,,,,,,,,,
,,652dc8973a77e5f1b36d66c4,2024-02-19_13h11.48.904,kallum_motion_pilot,2023.2.2,Win32,59.88023952,652dc8973a77e5f1b36d66c4,65d2b6c8f2eece985d8e374c,65d2b7d9591f1c44e8adc94d,0.0873,0.0874,0,21,21,112,1,fivesix,,,,,,,,,,,,,,,,,,,,,,,,,,,,,,,,,,,,,,,,,,,,,,,,,,,,,,,,,,,,,,,,,,,,,,,,,,,,,,,,,,,,,,,,,,,,,,,,,,,,,,,,,,,,,,,,,,,,,,,,,,,,,,,,,,,,,,,,,
,,652dc8973a77e5f1b36d66c4,2024-02-19_13h11.48.904,kallum_motion_pilot,2023.2.2,Win32,59.88023952,652dc8973a77e5f1b36d66c4,65d2b6c8f2eece985d8e374c,65d2b7d9591f1c44e8adc94d,0.088,0.0882,0,22,22,127,1,eightseven,,,,,,,,,,,,,,,,,,,,,,,,,,,,,,,,,,,,,,,,,,,,,,,,,,,,,,,,,,,,,,,,,,,,,,,,,,,,,,,,,,,,,,,,,,,,,,,,,,,,,,,,,,,,,,,,,,,,,,,,,,,,,,,,,,,,,,,,,
,,652dc8973a77e5f1b36d66c4,2024-02-19_13h11.48.904,kallum_motion_pilot,2023.2.2,Win32,59.88023952,652dc8973a77e5f1b36d66c4,65d2b6c8f2eece985d8e374c,65d2b7d9591f1c44e8adc94d,0.0887,0.0888,0,23,23,99,1,sixeight,,,,,,,,,,,,,,,,,,,,,,,,,,,,,,,,,,,,,,,,,,,,,,,,,,,,,,,,,,,,,,,,,,,,,,,,,,,,,,,,,,,,,,,,,,,,,,,,,,,,,,,,,,,,,,,,,,,,,,,,,,,,,,,,,,,,,,,,,
,,652dc8973a77e5f1b36d66c4,2024-02-19_13h11.48.904,kallum_motion_pilot,2023.2.2,Win32,59.88023952,652dc8973a77e5f1b36d66c4,65d2b6c8f2eece985d8e374c,65d2b7d9591f1c44e8adc94d,0.0894,0.0894,0,24,24,92,1,sevenfive,,,,,,,,,,,,,,,,,,,,,,,,,,,,,,,,,,,,,,,,,,,,,,,,,,,,,,,,,,,,,,,,,,,,,,,,,,,,,,,,,,,,,,,,,,,,,,,,,,,,,,,,,,,,,,,,,,,,,,,,,,,,,,,,,,,,,,,,,
,,652dc8973a77e5f1b36d66c4,2024-02-19_13h11.48.904,kallum_motion_pilot,2023.2.2,Win32,59.88023952,652dc8973a77e5f1b36d66c4,65d2b6c8f2eece985d8e374c,65d2b7d9591f1c44e8adc94d,0.0898,0.0899,0,25,25,29,1,threefour,,,,,,,,,,,,,,,,,,,,,,,,,,,,,,,,,,,,,,,,,,,,,,,,,,,,,,,,,,,,,,,,,,,,,,,,,,,,,,,,,,,,,,,,,,,,,,,,,,,,,,,,,,,,,,,,,,,,,,,,,,,,,,,,,,,,,,,,,
,,652dc8973a77e5f1b36d66c4,2024-02-19_13h11.48.904,kallum_motion_pilot,2023.2.2,Win32,59.88023952,652dc8973a77e5f1b36d66c4,65d2b6c8f2eece985d8e374c,65d2b7d9591f1c44e8adc94d,0.0903,0.0904,0,26,26,150,1,eightsix,,,,,,,,,,,,,,,,,,,,,,,,,,,,,,,,,,,,,,,,,,,,,,,,,,,,,,,,,,,,,,,,,,,,,,,,,,,,,,,,,,,,,,,,,,,,,,,,,,,,,,,,,,,,,,,,,,,,,,,,,,,,,,,,,,,,,,,,,
,,652dc8973a77e5f1b36d66c4,2024-02-19_13h11.48.904,kallum_motion_pilot,2023.2.2,Win32,59.88023952,652dc8973a77e5f1b36d66c4,65d2b6c8f2eece985d8e374c,65d2b7d9591f1c44e8adc94d,0.0907,0.0907,0,27,27,39,1,fourthree,,,,,,,,,,,,,,,,,,,,,,,,,,,,,,,,,,,,,,,,,,,,,,,,,,,,,,,,,,,,,,,,,,,,,,,,,,,,,,,,,,,,,,,,,,,,,,,,,,,,,,,,,,,,,,,,,,,,,,,,,,,,,,,,,,,,,,,,,
,,652dc8973a77e5f1b36d66c4,2024-02-19_13h11.48.904,kallum_motion_pilot,2023.2.2,Win32,59.88023952,652dc8973a77e5f1b36d66c4,65d2b6c8f2eece985d8e374c,65d2b7d9591f1c44e8adc94d,0.091,0.0912,0,28,28,94,1,eightsix,,,,,,,,,,,,,,,,,,,,,,,,,,,,,,,,,,,,,,,,,,,,,,,,,,,,,,,,,,,,,,,,,,,,,,,,,,,,,,,,,,,,,,,,,,,,,,,,,,,,,,,,,,,,,,,,,,,,,,,,,,,,,,,,,,,,,,,,,
,,652dc8973a77e5f1b36d66c4,2024-02-19_13h11.48.904,kallum_motion_pilot,2023.2.2,Win32,59.88023952,652dc8973a77e5f1b36d66c4,65d2b6c8f2eece985d8e374c,65d2b7d9591f1c44e8adc94d,0.0914,0.0916,0,29,29,15,1,fourthree,,,,,,,,,,,,,,,,,,,,,,,,,,,,,,,,,,,,,,,,,,,,,,,,,,,,,,,,,,,,,,,,,,,,,,,,,,,,,,,,,,,,,,,,,,,,,,,,,,,,,,,,,,,,,,,,,,,,,,,,,,,,,,,,,,,,,,,,,
,,652dc8973a77e5f1b36d66c4,2024-02-19_13h11.48.904,kallum_motion_pilot,2023.2.2,Win32,59.88023952,652dc8973a77e5f1b36d66c4,65d2b6c8f2eece985d8e374c,65d2b7d9591f1c44e8adc94d,0.0919,0.0919,0,30,30,6,1,fourtwo,,,,,,,,,,,,,,,,,,,,,,,,,,,,,,,,,,,,,,,,,,,,,,,,,,,,,,,,,,,,,,,,,,,,,,,,,,,,,,,,,,,,,,,,,,,,,,,,,,,,,,,,,,,,,,,,,,,,,,,,,,,,,,,,,,,,,,,,,
,,652dc8973a77e5f1b36d66c4,2024-02-19_13h11.48.904,kallum_motion_pilot,2023.2.2,Win32,59.88023952,652dc8973a77e5f1b36d66c4,65d2b6c8f2eece985d8e374c,65d2b7d9591f1c44e8adc94d,0.0922,0.0923,0,31,31,140,1,sevenfive,,,,,,,,,,,,,,,,,,,,,,,,,,,,,,,,,,,,,,,,,,,,,,,,,,,,,,,,,,,,,,,,,,,,,,,,,,,,,,,,,,,,,,,,,,,,,,,,,,,,,,,,,,,,,,,,,,,,,,,,,,,,,,,,,,,,,,,,,
,,652dc8973a77e5f1b36d66c4,2024-02-19_13h11.48.904,kallum_motion_pilot,2023.2.2,Win32,59.88023952,652dc8973a77e5f1b36d66c4,65d2b6c8f2eece985d8e374c,65d2b7d9591f1c44e8adc94d,0.0926,0.0926,0,32,32,96,1,fivesix,,,,,,,,,,,,,,,,,,,,,,,,,,,,,,,,,,,,,,,,,,,,,,,,,,,,,,,,,,,,,,,,,,,,,,,,,,,,,,,,,,,,,,,,,,,,,,,,,,,,,,,,,,,,,,,,,,,,,,,,,,,,,,,,,,,,,,,,,
,,652dc8973a77e5f1b36d66c4,2024-02-19_13h11.48.904,kallum_motion_pilot,2023.2.2,Win32,59.88023952,652dc8973a77e5f1b36d66c4,65d2b6c8f2eece985d8e374c,65d2b7d9591f1c44e8adc94d,0.0929,0.0929,0,33,33,106,1,sixfive,,,,,,,,,,,,,,,,,,,,,,,,,,,,,,,,,,,,,,,,,,,,,,,,,,,,,,,,,,,,,,,,,,,,,,,,,,,,,,,,,,,,,,,,,,,,,,,,,,,,,,,,,,,,,,,,,,,,,,,,,,,,,,,,,,,,,,,,,
,,652dc8973a77e5f1b36d66c4,2024-02-19_13h11.48.904,kallum_motion_pilot,2023.2.2,Win32,59.88023952,652dc8973a77e5f1b36d66c4,65d2b6c8f2eece985d8e374c,65d2b7d9591f1c44e8adc94d,0.0933,0.0934,0,34,34,121,1,fiveseven,,,,,,,,,,,,,,,,,,,,,,,,,,,,,,,,,,,,,,,,,,,,,,,,,,,,,,,,,,,,,,,,,,,,,,,,,,,,,,,,,,,,,,,,,,,,,,,,,,,,,,,,,,,,,,,,,,,,,,,,,,,,,,,,,,,,,,,,,
,,652dc8973a77e5f1b36d66c4,2024-02-19_13h11.48.904,kallum_motion_pilot,2023.2.2,Win32,59.88023952,652dc8973a77e5f1b36d66c4,65d2b6c8f2eece985d8e374c,65d2b7d9591f1c44e8adc94d,0.0936,0.0937,0,35,35,108,1,sevenfive,,,,,,,,,,,,,,,,,,,,,,,,,,,,,,,,,,,,,,,,,,,,,,,,,,,,,,,,,,,,,,,,,,,,,,,,,,,,,,,,,,,,,,,,,,,,,,,,,,,,,,,,,,,,,,,,,,,,,,,,,,,,,,,,,,,,,,,,,
,,652dc8973a77e5f1b36d66c4,2024-02-19_13h11.48.904,kallum_motion_pilot,2023.2.2,Win32,59.88023952,652dc8973a77e5f1b36d66c4,65d2b6c8f2eece985d8e374c,65d2b7d9591f1c44e8adc94d,0.094,0.094,0,36,36,115,1,sixeight,,,,,,,,,,,,,,,,,,,,,,,,,,,,,,,,,,,,,,,,,,,,,,,,,,,,,,,,,,,,,,,,,,,,,,,,,,,,,,,,,,,,,,,,,,,,,,,,,,,,,,,,,,,,,,,,,,,,,,,,,,,,,,,,,,,,,,,,,
,,652dc8973a77e5f1b36d66c4,2024-02-19_13h11.48.904,kallum_motion_pilot,2023.2.2,Win32,59.88023952,652dc8973a77e5f1b36d66c4,65d2b6c8f2eece985d8e374c,65d2b7d9591f1c44e8adc94d,0.0943,0.0944,0,37,37,9,1,onethree,,,,,,,,,,,,,,,,,,,,,,,,,,,,,,,,,,,,,,,,,,,,,,,,,,,,,,,,,,,,,,,,,,,,,,,,,,,,,,,,,,,,,,,,,,,,,,,,,,,,,,,,,,,,,,,,,,,,,,,,,,,,,,,,,,,,,,,,,
,,652dc8973a77e5f1b36d66c4,2024-02-19_13h11.48.904,kallum_motion_pilot,2023.2.2,Win32,59.88023952,652dc8973a77e5f1b36d66c4,65d2b6c8f2eece985d8e374c,65d2b7d9591f1c44e8adc94d,0.0945,0.0946,0,38,38,68,1,threeone,,,,,,,,,,,,,,,,,,,,,,,,,,,,,,,,,,,,,,,,,,,,,,,,,,,,,,,,,,,,,,,,,,,,,,,,,,,,,,,,,,,,,,,,,,,,,,,,,,,,,,,,,,,,,,,,,,,,,,,,,,,,,,,,,,,,,,,,,
,,652dc8973a77e5f1b36d66c4,2024-02-19_13h11.48.904,kallum_motion_pilot,2023.2.2,Win32,59.88023952,652dc8973a77e5f1b36d66c4,65d2b6c8f2eece985d8e374c,65d2b7d9591f1c44e8adc94d,0.0948,0.095,0,39,39,147,1,sixeight,,,,,,,,,,,,,,,,,,,,,,,,,,,,,,,,,,,,,,,,,,,,,,,,,,,,,,,,,,,,,,,,,,,,,,,,,,,,,,,,,,,,,,,,,,,,,,,,,,,,,,,,,,,,,,,,,,,,,,,,,,,,,,,,,,,,,,,,,
,,652dc8973a77e5f1b36d66c4,2024-02-19_13h11.48.904,kallum_motion_pilot,2023.2.2,Win32,59.88023952,652dc8973a77e5f1b36d66c4,65d2b6c8f2eece985d8e374c,65d2b7d9591f1c44e8adc94d,0.0952,0.0953,0,40,40,4,1,threeone,,,,,,,,,,,,,,,,,,,,,,,,,,,,,,,,,,,,,,,,,,,,,,,,,,,,,,,,,,,,,,,,,,,,,,,,,,,,,,,,,,,,,,,,,,,,,,,,,,,,,,,,,,,,,,,,,,,,,,,,,,,,,,,,,,,,,,,,,
,,652dc8973a77e5f1b36d66c4,2024-02-19_13h11.48.904,kallum_motion_pilot,2023.2.2,Win32,59.88023952,652dc8973a77e5f1b36d66c4,65d2b6c8f2eece985d8e374c,65d2b7d9591f1c44e8adc94d,0.0954,0.0956,0,41,41,41,1,onethree,,,,,,,,,,,,,,,,,,,,,,,,,,,,,,,,,,,,,,,,,,,,,,,,,,,,,,,,,,,,,,,,,,,,,,,,,,,,,,,,,,,,,,,,,,,,,,,,,,,,,,,,,,,,,,,,,,,,,,,,,,,,,,,,,,,,,,,,,
,,652dc8973a77e5f1b36d66c4,2024-02-19_13h11.48.904,kallum_motion_pilot,2023.2.2,Win32,59.88023952,652dc8973a77e5f1b36d66c4,65d2b6c8f2eece985d8e374c,65d2b7d9591f1c44e8adc94d,0.0958,0.0958,0,42,42,141,1,seveneight,,,,,,,,,,,,,,,,,,,,,,,,,,,,,,,,,,,,,,,,,,,,,,,,,,,,,,,,,,,,,,,,,,,,,,,,,,,,,,,,,,,,,,,,,,,,,,,,,,,,,,,,,,,,,,,,,,,,,,,,,,,,,,,,,,,,,,,,,
,,652dc8973a77e5f1b36d66c4,2024-02-19_13h11.48.904,kallum_motion_pilot,2023.2.2,Win32,59.88023952,652dc8973a77e5f1b36d66c4,65d2b6c8f2eece985d8e374c,65d2b7d9591f1c44e8adc94d,0.0962,0.0962,0,43,43,116,1,sevenfive,,,,,,,,,,,,,,,,,,,,,,,,,,,,,,,,,,,,,,,,,,,,,,,,,,,,,,,,,,,,,,,,,,,,,,,,,,,,,,,,,,,,,,,,,,,,,,,,,,,,,,,,,,,,,,,,,,,,,,,,,,,,,,,,,,,,,,,,,
,,652dc8973a77e5f1b36d66c4,2024-02-19_13h11.48.904,kallum_motion_pilot,2023.2.2,Win32,59.88023952,652dc8973a77e5f1b36d66c4,65d2b6c8f2eece985d8e374c,65d2b7d9591f1c44e8adc94d,0.0965,0.0965,0,44,44,12,1,threeone,,,,,,,,,,,,,,,,,,,,,,,,,,,,,,,,,,,,,,,,,,,,,,,,,,,,,,,,,,,,,,,,,,,,,,,,,,,,,,,,,,,,,,,,,,,,,,,,,,,,,,,,,,,,,,,,,,,,,,,,,,,,,,,,,,,,,,,,,
,,652dc8973a77e5f1b36d66c4,2024-02-19_13h11.48.904,kallum_motion_pilot,2023.2.2,Win32,59.88023952,652dc8973a77e5f1b36d66c4,65d2b6c8f2eece985d8e374c,65d2b7d9591f1c44e8adc94d,0.0968,0.0968,0,45,45,146,1,sixfive,,,,,,,,,,,,,,,,,,,,,,,,,,,,,,,,,,,,,,,,,,,,,,,,,,,,,,,,,,,,,,,,,,,,,,,,,,,,,,,,,,,,,,,,,,,,,,,,,,,,,,,,,,,,,,,,,,,,,,,,,,,,,,,,,,,,,,,,,
,,652dc8973a77e5f1b36d66c4,2024-02-19_13h11.48.904,kallum_motion_pilot,2023.2.2,Win32,59.88023952,652dc8973a77e5f1b36d66c4,65d2b6c8f2eece985d8e374c,65d2b7d9591f1c44e8adc94d,0.0971,0.0972,0,46,46,118,1,eightsix,,,,,,,,,,,,,,,,,,,,,,,,,,,,,,,,,,,,,,,,,,,,,,,,,,,,,,,,,,,,,,,,,,,,,,,,,,,,,,,,,,,,,,,,,,,,,,,,,,,,,,,,,,,,,,,,,,,,,,,,,,,,,,,,,,,,,,,,,
,,652dc8973a77e5f1b36d66c4,2024-02-19_13h11.48.904,kallum_motion_pilot,2023.2.2,Win32,59.88023952,652dc8973a77e5f1b36d66c4,65d2b6c8f2eece985d8e374c,65d2b7d9591f1c44e8adc94d,0.0973,0.0974,0,47,47,151,1,eightseven,,,,,,,,,,,,,,,,,,,,,,,,,,,,,,,,,,,,,,,,,,,,,,,,,,,,,,,,,,,,,,,,,,,,,,,,,,,,,,,,,,,,,,,,,,,,,,,,,,,,,,,,,,,,,,,,,,,,,,,,,,,,,,,,,,,,,,,,,
,,652dc8973a77e5f1b36d66c4,2024-02-19_13h11.48.904,kallum_motion_pilot,2023.2.2,Win32,59.88023952,652dc8973a77e5f1b36d66c4,65d2b6c8f2eece985d8e374c,65d2b7d9591f1c44e8adc94d,0.0977,0.0978,0,48,48,3,1,twofour,,,,,,,,,,,,,,,,,,,,,,,,,,,,,,,,,,,,,,,,,,,,,,,,,,,,,,,,,,,,,,,,,,,,,,,,,,,,,,,,,,,,,,,,,,,,,,,,,,,,,,,,,,,,,,,,,,,,,,,,,,,,,,,,,,,,,,,,,
,,652dc8973a77e5f1b36d66c4,2024-02-19_13h11.48.904,kallum_motion_pilot,2023.2.2,Win32,59.88023952,652dc8973a77e5f1b36d66c4,65d2b6c8f2eece985d8e374c,65d2b7d9591f1c44e8adc94d,0.098,0.098,0,49,49,17,1,onethree,,,,,,,,,,,,,,,,,,,,,,,,,,,,,,,,,,,,,,,,,,,,,,,,,,,,,,,,,,,,,,,,,,,,,,,,,,,,,,,,,,,,,,,,,,,,,,,,,,,,,,,,,,,,,,,,,,,,,,,,,,,,,,,,,,,,,,,,,
,,652dc8973a77e5f1b36d66c4,2024-02-19_13h11.48.904,kallum_motion_pilot,2023.2.2,Win32,59.88023952,652dc8973a77e5f1b36d66c4,65d2b6c8f2eece985d8e374c,65d2b7d9591f1c44e8adc94d,0.0982,0.0983,0,50,50,104,1,fivesix,,,,,,,,,,,,,,,,,,,,,,,,,,,,,,,,,,,,,,,,,,,,,,,,,,,,,,,,,,,,,,,,,,,,,,,,,,,,,,,,,,,,,,,,,,,,,,,,,,,,,,,,,,,,,,,,,,,,,,,,,,,,,,,,,,,,,,,,,
,,652dc8973a77e5f1b36d66c4,2024-02-19_13h11.48.904,kallum_motion_pilot,2023.2.2,Win32,59.88023952,652dc8973a77e5f1b36d66c4,65d2b6c8f2eece985d8e374c,65d2b7d9591f1c44e8adc94d,0.0984,0.0986,0,51,51,88,1,fivesix,,,,,,,,,,,,,,,,,,,,,,,,,,,,,,,,,,,,,,,,,,,,,,,,,,,,,,,,,,,,,,,,,,,,,,,,,,,,,,,,,,,,,,,,,,,,,,,,,,,,,,,,,,,,,,,,,,,,,,,,,,,,,,,,,,,,,,,,,
,,652dc8973a77e5f1b36d66c4,2024-02-19_13h11.48.904,kallum_motion_pilot,2023.2.2,Win32,59.88023952,652dc8973a77e5f1b36d66c4,65d2b6c8f2eece985d8e374c,65d2b7d9591f1c44e8adc94d,0.0987,0.0987,0,52,52,145,1,fiveseven,,,,,,,,,,,,,,,,,,,,,,,,,,,,,,,,,,,,,,,,,,,,,,,,,,,,,,,,,,,,,,,,,,,,,,,,,,,,,,,,,,,,,,,,,,,,,,,,,,,,,,,,,,,,,,,,,,,,,,,,,,,,,,,,,,,,,,,,,
,,652dc8973a77e5f1b36d66c4,2024-02-19_13h11.48.904,kallum_motion_pilot,2023.2.2,Win32,59.88023952,652dc8973a77e5f1b36d66c4,65d2b6c8f2eece985d8e374c,65d2b7d9591f1c44e8adc94d,0.0989,0.099,0,53,53,20,1,threeone,,,,,,,,,,,,,,,,,,,,,,,,,,,,,,,,,,,,,,,,,,,,,,,,,,,,,,,,,,,,,,,,,,,,,,,,,,,,,,,,,,,,,,,,,,,,,,,,,,,,,,,,,,,,,,,,,,,,,,,,,,,,,,,,,,,,,,,,,
,,652dc8973a77e5f1b36d66c4,2024-02-19_13h11.48.904,kallum_motion_pilot,2023.2.2,Win32,59.88023952,652dc8973a77e5f1b36d66c4,65d2b6c8f2eece985d8e374c,65d2b7d9591f1c44e8adc94d,0.0992,0.0992,0,54,54,63,1,fourthree,,,,,,,,,,,,,,,,,,,,,,,,,,,,,,,,,,,,,,,,,,,,,,,,,,,,,,,,,,,,,,,,,,,,,,,,,,,,,,,,,,,,,,,,,,,,,,,,,,,,,,,,,,,,,,,,,,,,,,,,,,,,,,,,,,,,,,,,,
,,652dc8973a77e5f1b36d66c4,2024-02-19_13h11.48.904,kallum_motion_pilot,2023.2.2,Win32,59.88023952,652dc8973a77e5f1b36d66c4,65d2b6c8f2eece985d8e374c,65d2b7d9591f1c44e8adc94d,0.0995,0.0995,0,55,55,83,1,sixeight,,,,,,,,,,,,,,,,,,,,,,,,,,,,,,,,,,,,,,,,,,,,,,,,,,,,,,,,,,,,,,,,,,,,,,,,,,,,,,,,,,,,,,,,,,,,,,,,,,,,,,,,,,,,,,,,,,,,,,,,,,,,,,,,,,,,,,,,,
,,652dc8973a77e5f1b36d66c4,2024-02-19_13h11.48.904,kallum_motion_pilot,2023.2.2,Win32,59.88023952,652dc8973a77e5f1b36d66c4,65d2b6c8f2eece985d8e374c,65d2b7d9591f1c44e8adc94d,0.0997,0.0998,0,56,56,130,1,sixfive,,,,,,,,,,,,,,,,,,,,,,,,,,,,,,,,,,,,,,,,,,,,,,,,,,,,,,,,,,,,,,,,,,,,,,,,,,,,,,,,,,,,,,,,,,,,,,,,,,,,,,,,,,,,,,,,,,,,,,,,,,,,,,,,,,,,,,,,,
,,652dc8973a77e5f1b36d66c4,2024-02-19_13h11.48.904,kallum_motion_pilot,2023.2.2,Win32,59.88023952,652dc8973a77e5f1b36d66c4,65d2b6c8f2eece985d8e374c,65d2b7d9591f1c44e8adc94d,0.1018,0.1019,0,57,57,102,1,eightsix,,,,,,,,,,,,,,,,,,,,,,,,,,,,,,,,,,,,,,,,,,,,,,,,,,,,,,,,,,,,,,,,,,,,,,,,,,,,,,,,,,,,,,,,,,,,,,,,,,,,,,,,,,,,,,,,,,,,,,,,,,,,,,,,,,,,,,,,,
,,652dc8973a77e5f1b36d66c4,2024-02-19_13h11.48.904,kallum_motion_pilot,2023.2.2,Win32,59.88023952,652dc8973a77e5f1b36d66c4,65d2b6c8f2eece985d8e374c,65d2b7d9591f1c44e8adc94d,0.1021,0.1022,0,58,58,8,1,onetwo,,,,,,,,,,,,,,,,,,,,,,,,,,,,,,,,,,,,,,,,,,,,,,,,,,,,,,,,,,,,,,,,,,,,,,,,,,,,,,,,,,,,,,,,,,,,,,,,,,,,,,,,,,,,,,,,,,,,,,,,,,,,,,,,,,,,,,,,,
,,652dc8973a77e5f1b36d66c4,2024-02-19_13h11.48.904,kallum_motion_pilot,2023.2.2,Win32,59.88023952,652dc8973a77e5f1b36d66c4,65d2b6c8f2eece985d8e374c,65d2b7d9591f1c44e8adc94d,0.1024,0.1025,0,59,59,87,1,eightseven,,,,,,,,,,,,,,,,,,,,,,,,,,,,,,,,,,,,,,,,,,,,,,,,,,,,,,,,,,,,,,,,,,,,,,,,,,,,,,,,,,,,,,,,,,,,,,,,,,,,,,,,,,,,,,,,,,,,,,,,,,,,,,,,,,,,,,,,,
,,652dc8973a77e5f1b36d66c4,2024-02-19_13h11.48.904,kallum_motion_pilot,2023.2.2,Win32,59.88023952,652dc8973a77e5f1b36d66c4,65d2b6c8f2eece985d8e374c,65d2b7d9591f1c44e8adc94d,0.1027,0.1028,0,60,60,31,1,fourthree,,,,,,,,,,,,,,,,,,,,,,,,,,,,,,,,,,,,,,,,,,,,,,,,,,,,,,,,,,,,,,,,,,,,,,,,,,,,,,,,,,,,,,,,,,,,,,,,,,,,,,,,,,,,,,,,,,,,,,,,,,,,,,,,,,,,,,,,,
,,652dc8973a77e5f1b36d66c4,2024-02-19_13h11.48.904,kallum_motion_pilot,2023.2.2,Win32,59.88023952,652dc8973a77e5f1b36d66c4,65d2b6c8f2eece985d8e374c,65d2b7d9591f1c44e8adc94d,0.1029,0.1031,0,61,61,136,1,fivesix,,,,,,,,,,,,,,,,,,,,,,,,,,,,,,,,,,,,,,,,,,,,,,,,,,,,,,,,,,,,,,,,,,,,,,,,,,,,,,,,,,,,,,,,,,,,,,,,,,,,,,,,,,,,,,,,,,,,,,,,,,,,,,,,,,,,,,,,,
,,652dc8973a77e5f1b36d66c4,2024-02-19_13h11.48.904,kallum_motion_pilot,2023.2.2,Win32,59.88023952,652dc8973a77e5f1b36d66c4,65d2b6c8f2eece985d8e374c,65d2b7d9591f1c44e8adc94d,0.1033,0.1034,0,62,62,50,1,twoone,,,,,,,,,,,,,,,,,,,,,,,,,,,,,,,,,,,,,,,,,,,,,,,,,,,,,,,,,,,,,,,,,,,,,,,,,,,,,,,,,,,,,,,,,,,,,,,,,,,,,,,,,,,,,,,,,,,,,,,,,,,,,,,,,,,,,,,,,
,,652dc8973a77e5f1b36d66c4,2024-02-19_13h11.48.904,kallum_motion_pilot,2023.2.2,Win32,59.88023952,652dc8973a77e5f1b36d66c4,65d2b6c8f2eece985d8e374c,65d2b7d9591f1c44e8adc94d,0.1036,0.1037,0,63,63,137,1,fiveseven,,,,,,,,,,,,,,,,,,,,,,,,,,,,,,,,,,,,,,,,,,,,,,,,,,,,,,,,,,,,,,,,,,,,,,,,,,,,,,,,,,,,,,,,,,,,,,,,,,,,,,,,,,,,,,,,,,,,,,,,,,,,,,,,,,,,,,,,,
,,652dc8973a77e5f1b36d66c4,2024-02-19_13h11.48.904,kallum_motion_pilot,2023.2.2,Win32,59.88023952,652dc8973a77e5f1b36d66c4,65d2b6c8f2eece985d8e374c,65d2b7d9591f1c44e8adc94d,0.1044,0.1046,0,64,64,37,1,threefour,,,,,,,,,,,,,,,,,,,,,,,,,,,,,,,,,,,,,,,,,,,,,,,,,,,,,,,,,,,,,,,,,,,,,,,,,,,,,,,,,,,,,,,,,,,,,,,,,,,,,,,,,,,,,,,,,,,,,,,,,,,,,,,,,,,,,,,,,
,,652dc8973a77e5f1b36d66c4,2024-02-19_13h11.48.904,kallum_motion_pilot,2023.2.2,Win32,59.88023952,652dc8973a77e5f1b36d66c4,65d2b6c8f2eece985d8e374c,65d2b7d9591f1c44e8adc94d,0.1052,0.1055,0,65,65,24,1,onetwo,,,,,,,,,,,,,,,,,,,,,,,,,,,,,,,,,,,,,,,,,,,,,,,,,,,,,,,,,,,,,,,,,,,,,,,,,,,,,,,,,,,,,,,,,,,,,,,,,,,,,,,,,,,,,,,,,,,,,,,,,,,,,,,,,,,,,,,,,
,,652dc8973a77e5f1b36d66c4,2024-02-19_13h11.48.904,kallum_motion_pilot,2023.2.2,Win32,59.88023952,652dc8973a77e5f1b36d66c4,65d2b6c8f2eece985d8e374c,65d2b7d9591f1c44e8adc94d,0.1061,0.1063,0,66,66,152,1,fivesix,,,,,,,,,,,,,,,,,,,,,,,,,,,,,,,,,,,,,,,,,,,,,,,,,,,,,,,,,,,,,,,,,,,,,,,,,,,,,,,,,,,,,,,,,,,,,,,,,,,,,,,,,,,,,,,,,,,,,,,,,,,,,,,,,,,,,,,,,
,,652dc8973a77e5f1b36d66c4,2024-02-19_13h11.48.904,kallum_motion_pilot,2023.2.2,Win32,59.88023952,652dc8973a77e5f1b36d66c4,65d2b6c8f2eece985d8e374c,65d2b7d9591f1c44e8adc94d,0.1068,0.107,0,67,67,155,1,sixeight,,,,,,,,,,,,,,,,,,,,,,,,,,,,,,,,,,,,,,,,,,,,,,,,,,,,,,,,,,,,,,,,,,,,,,,,,,,,,,,,,,,,,,,,,,,,,,,,,,,,,,,,,,,,,,,,,,,,,,,,,,,,,,,,,,,,,,,,,
,,652dc8973a77e5f1b36d66c4,2024-02-19_13h11.48.904,kallum_motion_pilot,2023.2.2,Win32,59.88023952,652dc8973a77e5f1b36d66c4,65d2b6c8f2eece985d8e374c,65d2b7d9591f1c44e8adc94d,0.1075,0.1077,0,68,68,132,1,sevenfive,,,,,,,,,,,,,,,,,,,,,,,,,,,,,,,,,,,,,,,,,,,,,,,,,,,,,,,,,,,,,,,,,,,,,,,,,,,,,,,,,,,,,,,,,,,,,,,,,,,,,,,,,,,,,,,,,,,,,,,,,,,,,,,,,,,,,,,,,
,,652dc8973a77e5f1b36d66c4,2024-02-19_13h11.48.904,kallum_motion_pilot,2023.2.2,Win32,59.88023952,652dc8973a77e5f1b36d66c4,65d2b6c8f2eece985d8e374c,65d2b7d9591f1c44e8adc94d,0.1084,0.1086,0,69,69,52,1,threeone,,,,,,,,,,,,,,,,,,,,,,,,,,,,,,,,,,,,,,,,,,,,,,,,,,,,,,,,,,,,,,,,,,,,,,,,,,,,,,,,,,,,,,,,,,,,,,,,,,,,,,,,,,,,,,,,,,,,,,,,,,,,,,,,,,,,,,,,,
,,652dc8973a77e5f1b36d66c4,2024-02-19_13h11.48.904,kallum_motion_pilot,2023.2.2,Win32,59.88023952,652dc8973a77e5f1b36d66c4,65d2b6c8f2eece985d8e374c,65d2b7d9591f1c44e8adc94d,0.1091,0.1093,0,70,70,95,1,eightseven,,,,,,,,,,,,,,,,,,,,,,,,,,,,,,,,,,,,,,,,,,,,,,,,,,,,,,,,,,,,,,,,,,,,,,,,,,,,,,,,,,,,,,,,,,,,,,,,,,,,,,,,,,,,,,,,,,,,,,,,,,,,,,,,,,,,,,,,,
,,652dc8973a77e5f1b36d66c4,2024-02-19_13h11.48.904,kallum_motion_pilot,2023.2.2,Win32,59.88023952,652dc8973a77e5f1b36d66c4,65d2b6c8f2eece985d8e374c,65d2b7d9591f1c44e8adc94d,0.1097,0.1099,0,71,71,0,1,onetwo,,,,,,,,,,,,,,,,,,,,,,,,,,,,,,,,,,,,,,,,,,,,,,,,,,,,,,,,,,,,,,,,,,,,,,,,,,,,,,,,,,,,,,,,,,,,,,,,,,,,,,,,,,,,,,,,,,,,,,,,,,,,,,,,,,,,,,,,,
,,652dc8973a77e5f1b36d66c4,2024-02-19_13h11.48.904,kallum_motion_pilot,2023.2.2,Win32,59.88023952,652dc8973a77e5f1b36d66c4,65d2b6c8f2eece985d8e374c,65d2b7d9591f1c44e8adc94d,0.1102,0.1104,0,72,72,133,1,seveneight,,,,,,,,,,,,,,,,,,,,,,,,,,,,,,,,,,,,,,,,,,,,,,,,,,,,,,,,,,,,,,,,,,,,,,,,,,,,,,,,,,,,,,,,,,,,,,,,,,,,,,,,,,,,,,,,,,,,,,,,,,,,,,,,,,,,,,,,,
,,652dc8973a77e5f1b36d66c4,2024-02-19_13h11.48.904,kallum_motion_pilot,2023.2.2,Win32,59.88023952,652dc8973a77e5f1b36d66c4,65d2b6c8f2eece985d8e374c,65d2b7d9591f1c44e8adc94d,0.1107,0.1108,0,73,73,44,1,threeone,,,,,,,,,,,,,,,,,,,,,,,,,,,,,,,,,,,,,,,,,,,,,,,,,,,,,,,,,,,,,,,,,,,,,,,,,,,,,,,,,,,,,,,,,,,,,,,,,,,,,,,,,,,,,,,,,,,,,,,,,,,,,,,,,,,,,,,,,
,,652dc8973a77e5f1b36d66c4,2024-02-19_13h11.48.904,kallum_motion_pilot,2023.2.2,Win32,59.88023952,652dc8973a77e5f1b36d66c4,65d2b6c8f2eece985d8e374c,65d2b7d9591f1c44e8adc94d,0.111,0.1112,0,74,74,139,1,sixeight,,,,,,,,,,,,,,,,,,,,,,,,,,,,,,,,,,,,,,,,,,,,,,,,,,,,,,,,,,,,,,,,,,,,,,,,,,,,,,,,,,,,,,,,,,,,,,,,,,,,,,,,,,,,,,,,,,,,,,,,,,,,,,,,,,,,,,,,,
,,652dc8973a77e5f1b36d66c4,2024-02-19_13h11.48.904,kallum_motion_pilot,2023.2.2,Win32,59.88023952,652dc8973a77e5f1b36d66c4,65d2b6c8f2eece985d8e374c,65d2b7d9591f1c44e8adc94d,0.1114,0.1115,0,75,75,69,1,threefour,,,,,,,,,,,,,,,,,,,,,,,,,,,,,,,,,,,,,,,,,,,,,,,,,,,,,,,,,,,,,,,,,,,,,,,,,,,,,,,,,,,,,,,,,,,,,,,,,,,,,,,,,,,,,,,,,,,,,,,,,,,,,,,,,,,,,,,,,
,,652dc8973a77e5f1b36d66c4,2024-02-19_13h11.48.904,kallum_motion_pilot,2023.2.2,Win32,59.88023952,652dc8973a77e5f1b36d66c4,65d2b6c8f2eece985d8e374c,65d2b7d9591f1c44e8adc94d,0.1117,0.112,0,76,76,27,1,twofour,,,,,,,,,,,,,,,,,,,,,,,,,,,,,,,,,,,,,,,,,,,,,,,,,,,,,,,,,,,,,,,,,,,,,,,,,,,,,,,,,,,,,,,,,,,,,,,,,,,,,,,,,,,,,,,,,,,,,,,,,,,,,,,,,,,,,,,,,
,,652dc8973a77e5f1b36d66c4,2024-02-19_13h11.48.904,kallum_motion_pilot,2023.2.2,Win32,59.88023952,652dc8973a77e5f1b36d66c4,65d2b6c8f2eece985d8e374c,65d2b7d9591f1c44e8adc94d,0.1122,0.1124,0,77,77,49,1,onethree,,,,,,,,,,,,,,,,,,,,,,,,,,,,,,,,,,,,,,,,,,,,,,,,,,,,,,,,,,,,,,,,,,,,,,,,,,,,,,,,,,,,,,,,,,,,,,,,,,,,,,,,,,,,,,,,,,,,,,,,,,,,,,,,,,,,,,,,,
,,652dc8973a77e5f1b36d66c4,2024-02-19_13h11.48.904,kallum_motion_pilot,2023.2.2,Win32,59.88023952,652dc8973a77e5f1b36d66c4,65d2b6c8f2eece985d8e374c,65d2b7d9591f1c44e8adc94d,0.1126,0.1127,0,78,78,35,1,twofour,,,,,,,,,,,,,,,,,,,,,,,,,,,,,,,,,,,,,,,,,,,,,,,,,,,,,,,,,,,,,,,,,,,,,,,,,,,,,,,,,,,,,,,,,,,,,,,,,,,,,,,,,,,,,,,,,,,,,,,,,,,,,,,,,,,,,,,,,
,,652dc8973a77e5f1b36d66c4,2024-02-19_13h11.48.904,kallum_motion_pilot,2023.2.2,Win32,59.88023952,652dc8973a77e5f1b36d66c4,65d2b6c8f2eece985d8e374c,65d2b7d9591f1c44e8adc94d,0.1129,0.113,0,79,79,158,1,eightsix,,,,,,,,,,,,,,,,,,,,,,,,,,,,,,,,,,,,,,,,,,,,,,,,,,,,,,,,,,,,,,,,,,,,,,,,,,,,,,,,,,,,,,,,,,,,,,,,,,,,,,,,,,,,,,,,,,,,,,,,,,,,,,,,,,,,,,,,,
,,652dc8973a77e5f1b36d66c4,2024-02-19_13h11.48.904,kallum_motion_pilot,2023.2.2,Win32,59.88023952,652dc8973a77e5f1b36d66c4,65d2b6c8f2eece985d8e374c,65d2b7d9591f1c44e8adc94d,0.1132,0.1134,0,80,80,93,1,seveneight,,,,,,,,,,,,,,,,,,,,,,,,,,,,,,,,,,,,,,,,,,,,,,,,,,,,,,,,,,,,,,,,,,,,,,,,,,,,,,,,,,,,,,,,,,,,,,,,,,,,,,,,,,,,,,,,,,,,,,,,,,,,,,,,,,,,,,,,,
,,652dc8973a77e5f1b36d66c4,2024-02-19_13h11.48.904,kallum_motion_pilot,2023.2.2,Win32,59.88023952,652dc8973a77e5f1b36d66c4,65d2b6c8f2eece985d8e374c,65d2b7d9591f1c44e8adc94d,0.1136,0.1137,0,81,81,2,1,twoone,,,,,,,,,,,,,,,,,,,,,,,,,,,,,,,,,,,,,,,,,,,,,,,,,,,,,,,,,,,,,,,,,,,,,,,,,,,,,,,,,,,,,,,,,,,,,,,,,,,,,,,,,,,,,,,,,,,,,,,,,,,,,,,,,,,,,,,,,
,,652dc8973a77e5f1b36d66c4,2024-02-19_13h11.48.904,kallum_motion_pilot,2023.2.2,Win32,59.88023952,652dc8973a77e5f1b36d66c4,65d2b6c8f2eece985d8e374c,65d2b7d9591f1c44e8adc94d,0.1139,0.114,0,82,82,74,1,twoone,,,,,,,,,,,,,,,,,,,,,,,,,,,,,,,,,,,,,,,,,,,,,,,,,,,,,,,,,,,,,,,,,,,,,,,,,,,,,,,,,,,,,,,,,,,,,,,,,,,,,,,,,,,,,,,,,,,,,,,,,,,,,,,,,,,,,,,,,
,,652dc8973a77e5f1b36d66c4,2024-02-19_13h11.48.904,kallum_motion_pilot,2023.2.2,Win32,59.88023952,652dc8973a77e5f1b36d66c4,65d2b6c8f2eece985d8e374c,65d2b7d9591f1c44e8adc94d,0.1141,0.1143,0,83,83,113,1,fiveseven,,,,,,,,,,,,,,,,,,,,,,,,,,,,,,,,,,,,,,,,,,,,,,,,,,,,,,,,,,,,,,,,,,,,,,,,,,,,,,,,,,,,,,,,,,,,,,,,,,,,,,,,,,,,,,,,,,,,,,,,,,,,,,,,,,,,,,,,,
,,652dc8973a77e5f1b36d66c4,2024-02-19_13h11.48.904,kallum_motion_pilot,2023.2.2,Win32,59.88023952,652dc8973a77e5f1b36d66c4,65d2b6c8f2eece985d8e374c,65d2b7d9591f1c44e8adc94d,0.1145,0.1146,0,84,84,75,1,twofour,,,,,,,,,,,,,,,,,,,,,,,,,,,,,,,,,,,,,,,,,,,,,,,,,,,,,,,,,,,,,,,,,,,,,,,,,,,,,,,,,,,,,,,,,,,,,,,,,,,,,,,,,,,,,,,,,,,,,,,,,,,,,,,,,,,,,,,,,
,,652dc8973a77e5f1b36d66c4,2024-02-19_13h11.48.904,kallum_motion_pilot,2023.2.2,Win32,59.88023952,652dc8973a77e5f1b36d66c4,65d2b6c8f2eece985d8e374c,65d2b7d9591f1c44e8adc94d,0.1148,0.115,0,85,85,161,1,fiveseven,,,,,,,,,,,,,,,,,,,,,,,,,,,,,,,,,,,,,,,,,,,,,,,,,,,,,,,,,,,,,,,,,,,,,,,,,,,,,,,,,,,,,,,,,,,,,,,,,,,,,,,,,,,,,,,,,,,,,,,,,,,,,,,,,,,,,,,,,
,,652dc8973a77e5f1b36d66c4,2024-02-19_13h11.48.904,kallum_motion_pilot,2023.2.2,Win32,59.88023952,652dc8973a77e5f1b36d66c4,65d2b6c8f2eece985d8e374c,65d2b7d9591f1c44e8adc94d,0.1152,0.1153,0,86,86,131,1,sixeight,,,,,,,,,,,,,,,,,,,,,,,,,,,,,,,,,,,,,,,,,,,,,,,,,,,,,,,,,,,,,,,,,,,,,,,,,,,,,,,,,,,,,,,,,,,,,,,,,,,,,,,,,,,,,,,,,,,,,,,,,,,,,,,,,,,,,,,,,
,,652dc8973a77e5f1b36d66c4,2024-02-19_13h11.48.904,kallum_motion_pilot,2023.2.2,Win32,59.88023952,652dc8973a77e5f1b36d66c4,65d2b6c8f2eece985d8e374c,65d2b7d9591f1c44e8adc94d,0.1155,0.1157,0,87,87,22,1,fourtwo,,,,,,,,,,,,,,,,,,,,,,,,,,,,,,,,,,,,,,,,,,,,,,,,,,,,,,,,,,,,,,,,,,,,,,,,,,,,,,,,,,,,,,,,,,,,,,,,,,,,,,,,,,,,,,,,,,,,,,,,,,,,,,,,,,,,,,,,,
,,652dc8973a77e5f1b36d66c4,2024-02-19_13h11.48.904,kallum_motion_pilot,2023.2.2,Win32,59.88023952,652dc8973a77e5f1b36d66c4,65d2b6c8f2eece985d8e374c,65d2b7d9591f1c44e8adc94d,0.1159,0.116,0,88,88,42,1,twoone,,,,,,,,,,,,,,,,,,,,,,,,,,,,,,,,,,,,,,,,,,,,,,,,,,,,,,,,,,,,,,,,,,,,,,,,,,,,,,,,,,,,,,,,,,,,,,,,,,,,,,,,,,,,,,,,,,,,,,,,,,,,,,,,,,,,,,,,,
,,652dc8973a77e5f1b36d66c4,2024-02-19_13h11.48.904,kallum_motion_pilot,2023.2.2,Win32,59.88023952,652dc8973a77e5f1b36d66c4,65d2b6c8f2eece985d8e374c,65d2b7d9591f1c44e8adc94d,0.1165,0.1166,0,89,89,111,1,eightseven,,,,,,,,,,,,,,,,,,,,,,,,,,,,,,,,,,,,,,,,,,,,,,,,,,,,,,,,,,,,,,,,,,,,,,,,,,,,,,,,,,,,,,,,,,,,,,,,,,,,,,,,,,,,,,,,,,,,,,,,,,,,,,,,,,,,,,,,,
,,652dc8973a77e5f1b36d66c4,2024-02-19_13h11.48.904,kallum_motion_pilot,2023.2.2,Win32,59.88023952,652dc8973a77e5f1b36d66c4,65d2b6c8f2eece985d8e374c,65d2b7d9591f1c44e8adc94d,0.117,0.1172,0,90,90,135,1,eightseven,,,,,,,,,,,,,,,,,,,,,,,,,,,,,,,,,,,,,,,,,,,,,,,,,,,,,,,,,,,,,,,,,,,,,,,,,,,,,,,,,,,,,,,,,,,,,,,,,,,,,,,,,,,,,,,,,,,,,,,,,,,,,,,,,,,,,,,,,
,,652dc8973a77e5f1b36d66c4,2024-02-19_13h11.48.904,kallum_motion_pilot,2023.2.2,Win32,59.88023952,652dc8973a77e5f1b36d66c4,65d2b6c8f2eece985d8e374c,65d2b7d9591f1c44e8adc94d,0.1174,0.1177,0,91,91,129,1,fiveseven,,,,,,,,,,,,,,,,,,,,,,,,,,,,,,,,,,,,,,,,,,,,,,,,,,,,,,,,,,,,,,,,,,,,,,,,,,,,,,,,,,,,,,,,,,,,,,,,,,,,,,,,,,,,,,,,,,,,,,,,,,,,,,,,,,,,,,,,,
,,652dc8973a77e5f1b36d66c4,2024-02-19_13h11.48.904,kallum_motion_pilot,2023.2.2,Win32,59.88023952,652dc8973a77e5f1b36d66c4,65d2b6c8f2eece985d8e374c,65d2b7d9591f1c44e8adc94d,0.1181,0.1182,0,92,92,156,1,sevenfive,,,,,,,,,,,,,,,,,,,,,,,,,,,,,,,,,,,,,,,,,,,,,,,,,,,,,,,,,,,,,,,,,,,,,,,,,,,,,,,,,,,,,,,,,,,,,,,,,,,,,,,,,,,,,,,,,,,,,,,,,,,,,,,,,,,,,,,,,
,,652dc8973a77e5f1b36d66c4,2024-02-19_13h11.48.904,kallum_motion_pilot,2023.2.2,Win32,59.88023952,652dc8973a77e5f1b36d66c4,65d2b6c8f2eece985d8e374c,65d2b7d9591f1c44e8adc94d,0.1187,0.1189,0,93,93,32,1,onetwo,,,,,,,,,,,,,,,,,,,,,,,,,,,,,,,,,,,,,,,,,,,,,,,,,,,,,,,,,,,,,,,,,,,,,,,,,,,,,,,,,,,,,,,,,,,,,,,,,,,,,,,,,,,,,,,,,,,,,,,,,,,,,,,,,,,,,,,,,
,,652dc8973a77e5f1b36d66c4,2024-02-19_13h11.48.904,kallum_motion_pilot,2023.2.2,Win32,59.88023952,652dc8973a77e5f1b36d66c4,65d2b6c8f2eece985d8e374c,65d2b7d9591f1c44e8adc94d,0.1193,0.1195,0,94,94,91,1,sixeight,,,,,,,,,,,,,,,,,,,,,,,,,,,,,,,,,,,,,,,,,,,,,,,,,,,,,,,,,,,,,,,,,,,,,,,,,,,,,,,,,,,,,,,,,,,,,,,,,,,,,,,,,,,,,,,,,,,,,,,,,,,,,,,,,,,,,,,,,
,,652dc8973a77e5f1b36d66c4,2024-02-19_13h11.48.904,kallum_motion_pilot,2023.2.2,Win32,59.88023952,652dc8973a77e5f1b36d66c4,65d2b6c8f2eece985d8e374c,65d2b7d9591f1c44e8adc94d,0.1199,0.1201,0,95,95,14,1,fourtwo,,,,,,,,,,,,,,,,,,,,,,,,,,,,,,,,,,,,,,,,,,,,,,,,,,,,,,,,,,,,,,,,,,,,,,,,,,,,,,,,,,,,,,,,,,,,,,,,,,,,,,,,,,,,,,,,,,,,,,,,,,,,,,,,,,,,,,,,,
,,652dc8973a77e5f1b36d66c4,2024-02-19_13h11.48.904,kallum_motion_pilot,2023.2.2,Win32,59.88023952,652dc8973a77e5f1b36d66c4,65d2b6c8f2eece985d8e374c,65d2b7d9591f1c44e8adc94d,0.1213,0.1215,0,96,96,101,1,seveneight,,,,,,,,,,,,,,,,,,,,,,,,,,,,,,,,,,,,,,,,,,,,,,,,,,,,,,,,,,,,,,,,,,,,,,,,,,,,,,,,,,,,,,,,,,,,,,,,,,,,,,,,,,,,,,,,,,,,,,,,,,,,,,,,,,,,,,,,,
,,652dc8973a77e5f1b36d66c4,2024-02-19_13h11.48.904,kallum_motion_pilot,2023.2.2,Win32,59.88023952,652dc8973a77e5f1b36d66c4,65d2b6c8f2eece985d8e374c,65d2b7d9591f1c44e8adc94d,0.1223,0.1226,0,97,97,18,1,twoone,,,,,,,,,,,,,,,,,,,,,,,,,,,,,,,,,,,,,,,,,,,,,,,,,,,,,,,,,,,,,,,,,,,,,,,,,,,,,,,,,,,,,,,,,,,,,,,,,,,,,,,,,,,,,,,,,,,,,,,,,,,,,,,,,,,,,,,,,
,,652dc8973a77e5f1b36d66c4,2024-02-19_13h11.48.904,kallum_motion_pilot,2023.2.2,Win32,59.88023952,652dc8973a77e5f1b36d66c4,65d2b6c8f2eece985d8e374c,65d2b7d9591f1c44e8adc94d,0.1232,0.1234,0,98,98,144,1,fivesix,,,,,,,,,,,,,,,,,,,,,,,,,,,,,,,,,,,,,,,,,,,,,,,,,,,,,,,,,,,,,,,,,,,,,,,,,,,,,,,,,,,,,,,,,,,,,,,,,,,,,,,,,,,,,,,,,,,,,,,,,,,,,,,,,,,,,,,,,
,,652dc8973a77e5f1b36d66c4,2024-02-19_13h11.48.904,kallum_motion_pilot,2023.2.2,Win32,59.88023952,652dc8973a77e5f1b36d66c4,65d2b6c8f2eece985d8e374c,65d2b7d9591f1c44e8adc94d,0.1238,0.1241,0,99,99,1,1,onethree,,,,,,,,,,,,,,,,,,,,,,,,,,,,,,,,,,,,,,,,,,,,,,,,,,,,,,,,,,,,,,,,,,,,,,,,,,,,,,,,,,,,,,,,,,,,,,,,,,,,,,,,,,,,,,,,,,,,,,,,,,,,,,,,,,,,,,,,,
,,652dc8973a77e5f1b36d66c4,2024-02-19_13h11.48.904,kallum_motion_pilot,2023.2.2,Win32,59.88023952,652dc8973a77e5f1b36d66c4,65d2b6c8f2eece985d8e374c,65d2b7d9591f1c44e8adc94d,0.1244,0.1246,0,100,100,76,1,threeone,,,,,,,,,,,,,,,,,,,,,,,,,,,,,,,,,,,,,,,,,,,,,,,,,,,,,,,,,,,,,,,,,,,,,,,,,,,,,,,,,,,,,,,,,,,,,,,,,,,,,,,,,,,,,,,,,,,,,,,,,,,,,,,,,,,,,,,,,
,,652dc8973a77e5f1b36d66c4,2024-02-19_13h11.48.904,kallum_motion_pilot,2023.2.2,Win32,59.88023952,652dc8973a77e5f1b36d66c4,65d2b6c8f2eece985d8e374c,65d2b7d9591f1c44e8adc94d,0.125,0.1252,0,101,101,40,1,onetwo,,,,,,,,,,,,,,,,,,,,,,,,,,,,,,,,,,,,,,,,,,,,,,,,,,,,,,,,,,,,,,,,,,,,,,,,,,,,,,,,,,,,,,,,,,,,,,,,,,,,,,,,,,,,,,,,,,,,,,,,,,,,,,,,,,,,,,,,,
,,652dc8973a77e5f1b36d66c4,2024-02-19_13h11.48.904,kallum_motion_pilot,2023.2.2,Win32,59.88023952,652dc8973a77e5f1b36d66c4,65d2b6c8f2eece985d8e374c,65d2b7d9591f1c44e8adc94d,0.1255,0.1257,0,102,102,60,1,threeone,,,,,,,,,,,,,,,,,,,,,,,,,,,,,,,,,,,,,,,,,,,,,,,,,,,,,,,,,,,,,,,,,,,,,,,,,,,,,,,,,,,,,,,,,,,,,,,,,,,,,,,,,,,,,,,,,,,,,,,,,,,,,,,,,,,,,,,,,
,,652dc8973a77e5f1b36d66c4,2024-02-19_13h11.48.904,kallum_motion_pilot,2023.2.2,Win32,59.88023952,652dc8973a77e5f1b36d66c4,65d2b6c8f2eece985d8e374c,65d2b7d9591f1c44e8adc94d,0.126,0.1262,0,103,103,72,1,onetwo,,,,,,,,,,,,,,,,,,,,,,,,,,,,,,,,,,,,,,,,,,,,,,,,,,,,,,,,,,,,,,,,,,,,,,,,,,,,,,,,,,,,,,,,,,,,,,,,,,,,,,,,,,,,,,,,,,,,,,,,,,,,,,,,,,,,,,,,,
,,652dc8973a77e5f1b36d66c4,2024-02-19_13h11.48.904,kallum_motion_pilot,2023.2.2,Win32,59.88023952,652dc8973a77e5f1b36d66c4,65d2b6c8f2eece985d8e374c,65d2b7d9591f1c44e8adc94d,0.1265,0.1266,0,104,104,143,1,eightseven,,,,,,,,,,,,,,,,,,,,,,,,,,,,,,,,,,,,,,,,,,,,,,,,,,,,,,,,,,,,,,,,,,,,,,,,,,,,,,,,,,,,,,,,,,,,,,,,,,,,,,,,,,,,,,,,,,,,,,,,,,,,,,,,,,,,,,,,,
,,652dc8973a77e5f1b36d66c4,2024-02-19_13h11.48.904,kallum_motion_pilot,2023.2.2,Win32,59.88023952,652dc8973a77e5f1b36d66c4,65d2b6c8f2eece985d8e374c,65d2b7d9591f1c44e8adc94d,0.1271,0.1272,0,105,105,148,1,sevenfive,,,,,,,,,,,,,,,,,,,,,,,,,,,,,,,,,,,,,,,,,,,,,,,,,,,,,,,,,,,,,,,,,,,,,,,,,,,,,,,,,,,,,,,,,,,,,,,,,,,,,,,,,,,,,,,,,,,,,,,,,,,,,,,,,,,,,,,,,
,,652dc8973a77e5f1b36d66c4,2024-02-19_13h11.48.904,kallum_motion_pilot,2023.2.2,Win32,59.88023952,652dc8973a77e5f1b36d66c4,65d2b6c8f2eece985d8e374c,65d2b7d9591f1c44e8adc94d,0.1275,0.1277,0,106,106,157,1,seveneight,,,,,,,,,,,,,,,,,,,,,,,,,,,,,,,,,,,,,,,,,,,,,,,,,,,,,,,,,,,,,,,,,,,,,,,,,,,,,,,,,,,,,,,,,,,,,,,,,,,,,,,,,,,,,,,,,,,,,,,,,,,,,,,,,,,,,,,,,
,,652dc8973a77e5f1b36d66c4,2024-02-19_13h11.48.904,kallum_motion_pilot,2023.2.2,Win32,59.88023952,652dc8973a77e5f1b36d66c4,65d2b6c8f2eece985d8e374c,65d2b7d9591f1c44e8adc94d,0.128,0.1282,0,107,107,5,1,threefour,,,,,,,,,,,,,,,,,,,,,,,,,,,,,,,,,,,,,,,,,,,,,,,,,,,,,,,,,,,,,,,,,,,,,,,,,,,,,,,,,,,,,,,,,,,,,,,,,,,,,,,,,,,,,,,,,,,,,,,,,,,,,,,,,,,,,,,,,
,,652dc8973a77e5f1b36d66c4,2024-02-19_13h11.48.904,kallum_motion_pilot,2023.2.2,Win32,59.88023952,652dc8973a77e5f1b36d66c4,65d2b6c8f2eece985d8e374c,65d2b7d9591f1c44e8adc94d,0.1285,0.1288,0,108,108,66,1,twoone,,,,,,,,,,,,,,,,,,,,,,,,,,,,,,,,,,,,,,,,,,,,,,,,,,,,,,,,,,,,,,,,,,,,,,,,,,,,,,,,,,,,,,,,,,,,,,,,,,,,,,,,,,,,,,,,,,,,,,,,,,,,,,,,,,,,,,,,,
,,652dc8973a77e5f1b36d66c4,2024-02-19_13h11.48.904,kallum_motion_pilot,2023.2.2,Win32,59.88023952,652dc8973a77e5f1b36d66c4,65d2b6c8f2eece985d8e374c,65d2b7d9591f1c44e8adc94d,0.1292,0.1294,0,109,109,85,1,seveneight,,,,,,,,,,,,,,,,,,,,,,,,,,,,,,,,,,,,,,,,,,,,,,,,,,,,,,,,,,,,,,,,,,,,,,,,,,,,,,,,,,,,,,,,,,,,,,,,,,,,,,,,,,,,,,,,,,,,,,,,,,,,,,,,,,,,,,,,,
,,652dc8973a77e5f1b36d66c4,2024-02-19_13h11.48.904,kallum_motion_pilot,2023.2.2,Win32,59.88023952,652dc8973a77e5f1b36d66c4,65d2b6c8f2eece985d8e374c,65d2b7d9591f1c44e8adc94d,0.1297,0.1299,0,110,110,61,1,threefour,,,,,,,,,,,,,,,,,,,,,,,,,,,,,,,,,,,,,,,,,,,,,,,,,,,,,,,,,,,,,,,,,,,,,,,,,,,,,,,,,,,,,,,,,,,,,,,,,,,,,,,,,,,,,,,,,,,,,,,,,,,,,,,,,,,,,,,,,
,,652dc8973a77e5f1b36d66c4,2024-02-19_13h11.48.904,kallum_motion_pilot,2023.2.2,Win32,59.88023952,652dc8973a77e5f1b36d66c4,65d2b6c8f2eece985d8e374c,65d2b7d9591f1c44e8adc94d,0.1302,0.1303,0,111,111,46,1,fourtwo,,,,,,,,,,,,,,,,,,,,,,,,,,,,,,,,,,,,,,,,,,,,,,,,,,,,,,,,,,,,,,,,,,,,,,,,,,,,,,,,,,,,,,,,,,,,,,,,,,,,,,,,,,,,,,,,,,,,,,,,,,,,,,,,,,,,,,,,,
,,652dc8973a77e5f1b36d66c4,2024-02-19_13h11.48.904,kallum_motion_pilot,2023.2.2,Win32,59.88023952,652dc8973a77e5f1b36d66c4,65d2b6c8f2eece985d8e374c,65d2b7d9591f1c44e8adc94d,0.1307,0.1308,0,112,112,117,1,seveneight,,,,,,,,,,,,,,,,,,,,,,,,,,,,,,,,,,,,,,,,,,,,,,,,,,,,,,,,,,,,,,,,,,,,,,,,,,,,,,,,,,,,,,,,,,,,,,,,,,,,,,,,,,,,,,,,,,,,,,,,,,,,,,,,,,,,,,,,,
,,652dc8973a77e5f1b36d66c4,2024-02-19_13h11.48.904,kallum_motion_pilot,2023.2.2,Win32,59.88023952,652dc8973a77e5f1b36d66c4,65d2b6c8f2eece985d8e374c,65d2b7d9591f1c44e8adc94d,0.1311,0.1313,0,113,113,82,1,sixfive,,,,,,,,,,,,,,,,,,,,,,,,,,,,,,,,,,,,,,,,,,,,,,,,,,,,,,,,,,,,,,,,,,,,,,,,,,,,,,,,,,,,,,,,,,,,,,,,,,,,,,,,,,,,,,,,,,,,,,,,,,,,,,,,,,,,,,,,,
,,652dc8973a77e5f1b36d66c4,2024-02-19_13h11.48.904,kallum_motion_pilot,2023.2.2,Win32,59.88023952,652dc8973a77e5f1b36d66c4,65d2b6c8f2eece985d8e374c,65d2b7d9591f1c44e8adc94d,0.1316,0.1317,0,114,114,123,1,sixeight,,,,,,,,,,,,,,,,,,,,,,,,,,,,,,,,,,,,,,,,,,,,,,,,,,,,,,,,,,,,,,,,,,,,,,,,,,,,,,,,,,,,,,,,,,,,,,,,,,,,,,,,,,,,,,,,,,,,,,,,,,,,,,,,,,,,,,,,,
,,652dc8973a77e5f1b36d66c4,2024-02-19_13h11.48.904,kallum_motion_pilot,2023.2.2,Win32,59.88023952,652dc8973a77e5f1b36d66c4,65d2b6c8f2eece985d8e374c,65d2b7d9591f1c44e8adc94d,0.1322,0.1324,0,115,115,33,1,onethree,,,,,,,,,,,,,,,,,,,,,,,,,,,,,,,,,,,,,,,,,,,,,,,,,,,,,,,,,,,,,,,,,,,,,,,,,,,,,,,,,,,,,,,,,,,,,,,,,,,,,,,,,,,,,,,,,,,,,,,,,,,,,,,,,,,,,,,,,
,,652dc8973a77e5f1b36d66c4,2024-02-19_13h11.48.904,kallum_motion_pilot,2023.2.2,Win32,59.88023952,652dc8973a77e5f1b36d66c4,65d2b6c8f2eece985d8e374c,65d2b7d9591f1c44e8adc94d,0.1329,0.133,0,116,116,124,1,sevenfive,,,,,,,,,,,,,,,,,,,,,,,,,,,,,,,,,,,,,,,,,,,,,,,,,,,,,,,,,,,,,,,,,,,,,,,,,,,,,,,,,,,,,,,,,,,,,,,,,,,,,,,,,,,,,,,,,,,,,,,,,,,,,,,,,,,,,,,,,
,,652dc8973a77e5f1b36d66c4,2024-02-19_13h11.48.904,kallum_motion_pilot,2023.2.2,Win32,59.88023952,652dc8973a77e5f1b36d66c4,65d2b6c8f2eece985d8e374c,65d2b7d9591f1c44e8adc94d,0.1333,0.1335,0,117,117,90,1,sixfive,,,,,,,,,,,,,,,,,,,,,,,,,,,,,,,,,,,,,,,,,,,,,,,,,,,,,,,,,,,,,,,,,,,,,,,,,,,,,,,,,,,,,,,,,,,,,,,,,,,,,,,,,,,,,,,,,,,,,,,,,,,,,,,,,,,,,,,,,
,,652dc8973a77e5f1b36d66c4,2024-02-19_13h11.48.904,kallum_motion_pilot,2023.2.2,Win32,59.88023952,652dc8973a77e5f1b36d66c4,65d2b6c8f2eece985d8e374c,65d2b7d9591f1c44e8adc94d,0.1337,0.1338,0,118,118,55,1,fourthree,,,,,,,,,,,,,,,,,,,,,,,,,,,,,,,,,,,,,,,,,,,,,,,,,,,,,,,,,,,,,,,,,,,,,,,,,,,,,,,,,,,,,,,,,,,,,,,,,,,,,,,,,,,,,,,,,,,,,,,,,,,,,,,,,,,,,,,,,
,,652dc8973a77e5f1b36d66c4,2024-02-19_13h11.48.904,kallum_motion_pilot,2023.2.2,Win32,59.88023952,652dc8973a77e5f1b36d66c4,65d2b6c8f2eece985d8e374c,65d2b7d9591f1c44e8adc94d,0.1341,0.1342,0,119,119,48,1,onetwo,,,,,,,,,,,,,,,,,,,,,,,,,,,,,,,,,,,,,,,,,,,,,,,,,,,,,,,,,,,,,,,,,,,,,,,,,,,,,,,,,,,,,,,,,,,,,,,,,,,,,,,,,,,,,,,,,,,,,,,,,,,,,,,,,,,,,,,,,
,,652dc8973a77e5f1b36d66c4,2024-02-19_13h11.48.904,kallum_motion_pilot,2023.2.2,Win32,59.88023952,652dc8973a77e5f1b36d66c4,65d2b6c8f2eece985d8e374c,65d2b7d9591f1c44e8adc94d,0.1344,0.1346,0,120,120,28,1,threeone,,,,,,,,,,,,,,,,,,,,,,,,,,,,,,,,,,,,,,,,,,,,,,,,,,,,,,,,,,,,,,,,,,,,,,,,,,,,,,,,,,,,,,,,,,,,,,,,,,,,,,,,,,,,,,,,,,,,,,,,,,,,,,,,,,,,,,,,,
,,652dc8973a77e5f1b36d66c4,2024-02-19_13h11.48.904,kallum_motion_pilot,2023.2.2,Win32,59.88023952,652dc8973a77e5f1b36d66c4,65d2b6c8f2eece985d8e374c,65d2b7d9591f1c44e8adc94d,0.1348,0.135,0,121,121,56,1,onetwo,,,,,,,,,,,,,,,,,,,,,,,,,,,,,,,,,,,,,,,,,,,,,,,,,,,,,,,,,,,,,,,,,,,,,,,,,,,,,,,,,,,,,,,,,,,,,,,,,,,,,,,,,,,,,,,,,,,,,,,,,,,,,,,,,,,,,,,,,
,,652dc8973a77e5f1b36d66c4,2024-02-19_13h11.48.904,kallum_motion_pilot,2023.2.2,Win32,59.88023952,652dc8973a77e5f1b36d66c4,65d2b6c8f2eece985d8e374c,65d2b7d9591f1c44e8adc94d,0.1351,0.1353,0,122,122,103,1,eightseven,,,,,,,,,,,,,,,,,,,,,,,,,,,,,,,,,,,,,,,,,,,,,,,,,,,,,,,,,,,,,,,,,,,,,,,,,,,,,,,,,,,,,,,,,,,,,,,,,,,,,,,,,,,,,,,,,,,,,,,,,,,,,,,,,,,,,,,,,
,,652dc8973a77e5f1b36d66c4,2024-02-19_13h11.48.904,kallum_motion_pilot,2023.2.2,Win32,59.88023952,652dc8973a77e5f1b36d66c4,65d2b6c8f2eece985d8e374c,65d2b7d9591f1c44e8adc94d,0.1356,0.1357,0,123,123,159,1,eightseven,,,,,,,,,,,,,,,,,,,,,,,,,,,,,,,,,,,,,,,,,,,,,,,,,,,,,,,,,,,,,,,,,,,,,,,,,,,,,,,,,,,,,,,,,,,,,,,,,,,,,,,,,,,,,,,,,,,,,,,,,,,,,,,,,,,,,,,,,
,,652dc8973a77e5f1b36d66c4,2024-02-19_13h11.48.904,kallum_motion_pilot,2023.2.2,Win32,59.88023952,652dc8973a77e5f1b36d66c4,65d2b6c8f2eece985d8e374c,65d2b7d9591f1c44e8adc94d,0.136,0.1362,0,124,124,126,1,eightsix,,,,,,,,,,,,,,,,,,,,,,,,,,,,,,,,,,,,,,,,,,,,,,,,,,,,,,,,,,,,,,,,,,,,,,,,,,,,,,,,,,,,,,,,,,,,,,,,,,,,,,,,,,,,,,,,,,,,,,,,,,,,,,,,,,,,,,,,,
,,652dc8973a77e5f1b36d66c4,2024-02-19_13h11.48.904,kallum_motion_pilot,2023.2.2,Win32,59.88023952,652dc8973a77e5f1b36d66c4,65d2b6c8f2eece985d8e374c,65d2b7d9591f1c44e8adc94d,0.1364,0.1365,0,125,125,128,1,fivesix,,,,,,,,,,,,,,,,,,,,,,,,,,,,,,,,,,,,,,,,,,,,,,,,,,,,,,,,,,,,,,,,,,,,,,,,,,,,,,,,,,,,,,,,,,,,,,,,,,,,,,,,,,,,,,,,,,,,,,,,,,,,,,,,,,,,,,,,,
,,652dc8973a77e5f1b36d66c4,2024-02-19_13h11.48.904,kallum_motion_pilot,2023.2.2,Win32,59.88023952,652dc8973a77e5f1b36d66c4,65d2b6c8f2eece985d8e374c,65d2b7d9591f1c44e8adc94d,0.1369,0.1371,0,126,126,21,1,threefour,,,,,,,,,,,,,,,,,,,,,,,,,,,,,,,,,,,,,,,,,,,,,,,,,,,,,,,,,,,,,,,,,,,,,,,,,,,,,,,,,,,,,,,,,,,,,,,,,,,,,,,,,,,,,,,,,,,,,,,,,,,,,,,,,,,,,,,,,
,,652dc8973a77e5f1b36d66c4,2024-02-19_13h11.48.904,kallum_motion_pilot,2023.2.2,Win32,59.88023952,652dc8973a77e5f1b36d66c4,65d2b6c8f2eece985d8e374c,65d2b7d9591f1c44e8adc94d,0.1376,0.138,0,127,127,160,1,fivesix,,,,,,,,,,,,,,,,,,,,,,,,,,,,,,,,,,,,,,,,,,,,,,,,,,,,,,,,,,,,,,,,,,,,,,,,,,,,,,,,,,,,,,,,,,,,,,,,,,,,,,,,,,,,,,,,,,,,,,,,,,,,,,,,,,,,,,,,,
,,652dc8973a77e5f1b36d66c4,2024-02-19_13h11.48.904,kallum_motion_pilot,2023.2.2,Win32,59.88023952,652dc8973a77e5f1b36d66c4,65d2b6c8f2eece985d8e374c,65d2b7d9591f1c44e8adc94d,0.1385,0.1388,0,128,128,11,1,twofour,,,,,,,,,,,,,,,,,,,,,,,,,,,,,,,,,,,,,,,,,,,,,,,,,,,,,,,,,,,,,,,,,,,,,,,,,,,,,,,,,,,,,,,,,,,,,,,,,,,,,,,,,,,,,,,,,,,,,,,,,,,,,,,,,,,,,,,,,
,,652dc8973a77e5f1b36d66c4,2024-02-19_13h11.48.904,kallum_motion_pilot,2023.2.2,Win32,59.88023952,652dc8973a77e5f1b36d66c4,65d2b6c8f2eece985d8e374c,65d2b7d9591f1c44e8adc94d,0.1392,0.1395,0,129,129,71,1,fourthree,,,,,,,,,,,,,,,,,,,,,,,,,,,,,,,,,,,,,,,,,,,,,,,,,,,,,,,,,,,,,,,,,,,,,,,,,,,,,,,,,,,,,,,,,,,,,,,,,,,,,,,,,,,,,,,,,,,,,,,,,,,,,,,,,,,,,,,,,
,,652dc8973a77e5f1b36d66c4,2024-02-19_13h11.48.904,kallum_motion_pilot,2023.2.2,Win32,59.88023952,652dc8973a77e5f1b36d66c4,65d2b6c8f2eece985d8e374c,65d2b7d9591f1c44e8adc94d,0.14,0.1404,0,130,130,58,1,twoone,,,,,,,,,,,,,,,,,,,,,,,,,,,,,,,,,,,,,,,,,,,,,,,,,,,,,,,,,,,,,,,,,,,,,,,,,,,,,,,,,,,,,,,,,,,,,,,,,,,,,,,,,,,,,,,,,,,,,,,,,,,,,,,,,,,,,,,,,
,,652dc8973a77e5f1b36d66c4,2024-02-19_13h11.48.904,kallum_motion_pilot,2023.2.2,Win32,59.88023952,652dc8973a77e5f1b36d66c4,65d2b6c8f2eece985d8e374c,65d2b7d9591f1c44e8adc94d,0.141,0.1413,0,131,131,122,1,sixfive,,,,,,,,,,,,,,,,,,,,,,,,,,,,,,,,,,,,,,,,,,,,,,,,,,,,,,,,,,,,,,,,,,,,,,,,,,,,,,,,,,,,,,,,,,,,,,,,,,,,,,,,,,,,,,,,,,,,,,,,,,,,,,,,,,,,,,,,,
,,652dc8973a77e5f1b36d66c4,2024-02-19_13h11.48.904,kallum_motion_pilot,2023.2.2,Win32,59.88023952,652dc8973a77e5f1b36d66c4,65d2b6c8f2eece985d8e374c,65d2b7d9591f1c44e8adc94d,0.1419,0.1423,0,132,132,65,1,onethree,,,,,,,,,,,,,,,,,,,,,,,,,,,,,,,,,,,,,,,,,,,,,,,,,,,,,,,,,,,,,,,,,,,,,,,,,,,,,,,,,,,,,,,,,,,,,,,,,,,,,,,,,,,,,,,,,,,,,,,,,,,,,,,,,,,,,,,,,
,,652dc8973a77e5f1b36d66c4,2024-02-19_13h11.48.904,kallum_motion_pilot,2023.2.2,Win32,59.88023952,652dc8973a77e5f1b36d66c4,65d2b6c8f2eece985d8e374c,65d2b7d9591f1c44e8adc94d,0.1427,0.1429,0,133,133,86,1,eightsix,,,,,,,,,,,,,,,,,,,,,,,,,,,,,,,,,,,,,,,,,,,,,,,,,,,,,,,,,,,,,,,,,,,,,,,,,,,,,,,,,,,,,,,,,,,,,,,,,,,,,,,,,,,,,,,,,,,,,,,,,,,,,,,,,,,,,,,,,
,,652dc8973a77e5f1b36d66c4,2024-02-19_13h11.48.904,kallum_motion_pilot,2023.2.2,Win32,59.88023952,652dc8973a77e5f1b36d66c4,65d2b6c8f2eece985d8e374c,65d2b7d9591f1c44e8adc94d,0.1434,0.1437,0,134,134,59,1,twofour,,,,,,,,,,,,,,,,,,,,,,,,,,,,,,,,,,,,,,,,,,,,,,,,,,,,,,,,,,,,,,,,,,,,,,,,,,,,,,,,,,,,,,,,,,,,,,,,,,,,,,,,,,,,,,,,,,,,,,,,,,,,,,,,,,,,,,,,,
,,652dc8973a77e5f1b36d66c4,2024-02-19_13h11.48.904,kallum_motion_pilot,2023.2.2,Win32,59.88023952,652dc8973a77e5f1b36d66c4,65d2b6c8f2eece985d8e374c,65d2b7d9591f1c44e8adc94d,0.1442,0.1444,0,135,135,142,1,eightsix,,,,,,,,,,,,,,,,,,,,,,,,,,,,,,,,,,,,,,,,,,,,,,,,,,,,,,,,,,,,,,,,,,,,,,,,,,,,,,,,,,,,,,,,,,,,,,,,,,,,,,,,,,,,,,,,,,,,,,,,,,,,,,,,,,,,,,,,,
,,652dc8973a77e5f1b36d66c4,2024-02-19_13h11.48.904,kallum_motion_pilot,2023.2.2,Win32,59.88023952,652dc8973a77e5f1b36d66c4,65d2b6c8f2eece985d8e374c,65d2b7d9591f1c44e8adc94d,0.1447,0.1449,0,136,136,38,1,fourtwo,,,,,,,,,,,,,,,,,,,,,,,,,,,,,,,,,,,,,,,,,,,,,,,,,,,,,,,,,,,,,,,,,,,,,,,,,,,,,,,,,,,,,,,,,,,,,,,,,,,,,,,,,,,,,,,,,,,,,,,,,,,,,,,,,,,,,,,,,
,,652dc8973a77e5f1b36d66c4,2024-02-19_13h11.48.904,kallum_motion_pilot,2023.2.2,Win32,59.88023952,652dc8973a77e5f1b36d66c4,65d2b6c8f2eece985d8e374c,65d2b7d9591f1c44e8adc94d,0.1452,0.1454,0,137,137,89,1,fiveseven,,,,,,,,,,,,,,,,,,,,,,,,,,,,,,,,,,,,,,,,,,,,,,,,,,,,,,,,,,,,,,,,,,,,,,,,,,,,,,,,,,,,,,,,,,,,,,,,,,,,,,,,,,,,,,,,,,,,,,,,,,,,,,,,,,,,,,,,,
,,652dc8973a77e5f1b36d66c4,2024-02-19_13h11.48.904,kallum_motion_pilot,2023.2.2,Win32,59.88023952,652dc8973a77e5f1b36d66c4,65d2b6c8f2eece985d8e374c,65d2b7d9591f1c44e8adc94d,0.1456,0.1459,0,138,138,73,1,onethree,,,,,,,,,,,,,,,,,,,,,,,,,,,,,,,,,,,,,,,,,,,,,,,,,,,,,,,,,,,,,,,,,,,,,,,,,,,,,,,,,,,,,,,,,,,,,,,,,,,,,,,,,,,,,,,,,,,,,,,,,,,,,,,,,,,,,,,,,
,,652dc8973a77e5f1b36d66c4,2024-02-19_13h11.48.904,kallum_motion_pilot,2023.2.2,Win32,59.88023952,652dc8973a77e5f1b36d66c4,65d2b6c8f2eece985d8e374c,65d2b7d9591f1c44e8adc94d,0.1462,0.1463,0,139,139,98,1,sixfive,,,,,,,,,,,,,,,,,,,,,,,,,,,,,,,,,,,,,,,,,,,,,,,,,,,,,,,,,,,,,,,,,,,,,,,,,,,,,,,,,,,,,,,,,,,,,,,,,,,,,,,,,,,,,,,,,,,,,,,,,,,,,,,,,,,,,,,,,
,,652dc8973a77e5f1b36d66c4,2024-02-19_13h11.48.904,kallum_motion_pilot,2023.2.2,Win32,59.88023952,652dc8973a77e5f1b36d66c4,65d2b6c8f2eece985d8e374c,65d2b7d9591f1c44e8adc94d,0.1465,0.1467,0,140,140,154,1,sixfive,,,,,,,,,,,,,,,,,,,,,,,,,,,,,,,,,,,,,,,,,,,,,,,,,,,,,,,,,,,,,,,,,,,,,,,,,,,,,,,,,,,,,,,,,,,,,,,,,,,,,,,,,,,,,,,,,,,,,,,,,,,,,,,,,,,,,,,,,
,,652dc8973a77e5f1b36d66c4,2024-02-19_13h11.48.904,kallum_motion_pilot,2023.2.2,Win32,59.88023952,652dc8973a77e5f1b36d66c4,65d2b6c8f2eece985d8e374c,65d2b7d9591f1c44e8adc94d,0.147,0.1472,0,141,141,54,1,fourtwo,,,,,,,,,,,,,,,,,,,,,,,,,,,,,,,,,,,,,,,,,,,,,,,,,,,,,,,,,,,,,,,,,,,,,,,,,,,,,,,,,,,,,,,,,,,,,,,,,,,,,,,,,,,,,,,,,,,,,,,,,,,,,,,,,,,,,,,,,
,,652dc8973a77e5f1b36d66c4,2024-02-19_13h11.48.904,kallum_motion_pilot,2023.2.2,Win32,59.88023952,652dc8973a77e5f1b36d66c4,65d2b6c8f2eece985d8e374c,65d2b7d9591f1c44e8adc94d,0.149,0.1492,0,142,142,109,1,seveneight,,,,,,,,,,,,,,,,,,,,,,,,,,,,,,,,,,,,,,,,,,,,,,,,,,,,,,,,,,,,,,,,,,,,,,,,,,,,,,,,,,,,,,,,,,,,,,,,,,,,,,,,,,,,,,,,,,,,,,,,,,,,,,,,,,,,,,,,,
,,652dc8973a77e5f1b36d66c4,2024-02-19_13h11.48.904,kallum_motion_pilot,2023.2.2,Win32,59.88023952,652dc8973a77e5f1b36d66c4,65d2b6c8f2eece985d8e374c,65d2b7d9591f1c44e8adc94d,0.1495,0.1497,0,143,143,80,1,fivesix,,,,,,,,,,,,,,,,,,,,,,,,,,,,,,,,,,,,,,,,,,,,,,,,,,,,,,,,,,,,,,,,,,,,,,,,,,,,,,,,,,,,,,,,,,,,,,,,,,,,,,,,,,,,,,,,,,,,,,,,,,,,,,,,,,,,,,,,,
,,652dc8973a77e5f1b36d66c4,2024-02-19_13h11.48.904,kallum_motion_pilot,2023.2.2,Win32,59.88023952,652dc8973a77e5f1b36d66c4,65d2b6c8f2eece985d8e374c,65d2b7d9591f1c44e8adc94d,0.15,0.1501,0,144,144,153,1,fiveseven,,,,,,,,,,,,,,,,,,,,,,,,,,,,,,,,,,,,,,,,,,,,,,,,,,,,,,,,,,,,,,,,,,,,,,,,,,,,,,,,,,,,,,,,,,,,,,,,,,,,,,,,,,,,,,,,,,,,,,,,,,,,,,,,,,,,,,,,,
,,652dc8973a77e5f1b36d66c4,2024-02-19_13h11.48.904,kallum_motion_pilot,2023.2.2,Win32,59.88023952,652dc8973a77e5f1b36d66c4,65d2b6c8f2eece985d8e374c,65d2b7d9591f1c44e8adc94d,0.1504,0.1506,0,145,145,34,1,twoone,,,,,,,,,,,,,,,,,,,,,,,,,,,,,,,,,,,,,,,,,,,,,,,,,,,,,,,,,,,,,,,,,,,,,,,,,,,,,,,,,,,,,,,,,,,,,,,,,,,,,,,,,,,,,,,,,,,,,,,,,,,,,,,,,,,,,,,,,
,,652dc8973a77e5f1b36d66c4,2024-02-19_13h11.48.904,kallum_motion_pilot,2023.2.2,Win32,59.88023952,652dc8973a77e5f1b36d66c4,65d2b6c8f2eece985d8e374c,65d2b7d9591f1c44e8adc94d,0.1508,0.151,0,146,146,138,1,sixfive,,,,,,,,,,,,,,,,,,,,,,,,,,,,,,,,,,,,,,,,,,,,,,,,,,,,,,,,,,,,,,,,,,,,,,,,,,,,,,,,,,,,,,,,,,,,,,,,,,,,,,,,,,,,,,,,,,,,,,,,,,,,,,,,,,,,,,,,,
,,652dc8973a77e5f1b36d66c4,2024-02-19_13h11.48.904,kallum_motion_pilot,2023.2.2,Win32,59.88023952,652dc8973a77e5f1b36d66c4,65d2b6c8f2eece985d8e374c,65d2b7d9591f1c44e8adc94d,0.1512,0.1514,0,147,147,79,1,eightseven,,,,,,,,,,,,,,,,,,,,,,,,,,,,,,,,,,,,,,,,,,,,,,,,,,,,,,,,,,,,,,,,,,,,,,,,,,,,,,,,,,,,,,,,,,,,,,,,,,,,,,,,,,,,,,,,,,,,,,,,,,,,,,,,,,,,,,,,,
,,652dc8973a77e5f1b36d66c4,2024-02-19_13h11.48.904,kallum_motion_pilot,2023.2.2,Win32,59.88023952,652dc8973a77e5f1b36d66c4,65d2b6c8f2eece985d8e374c,65d2b7d9591f1c44e8adc94d,0.1517,0.1519,0,148,148,45,1,threefour,,,,,,,,,,,,,,,,,,,,,,,,,,,,,,,,,,,,,,,,,,,,,,,,,,,,,,,,,,,,,,,,,,,,,,,,,,,,,,,,,,,,,,,,,,,,,,,,,,,,,,,,,,,,,,,,,,,,,,,,,,,,,,,,,,,,,,,,,
,,652dc8973a77e5f1b36d66c4,2024-02-19_13h11.48.904,kallum_motion_pilot,2023.2.2,Win32,59.88023952,652dc8973a77e5f1b36d66c4,65d2b6c8f2eece985d8e374c,65d2b7d9591f1c44e8adc94d,0.1524,0.1527,0,149,149,51,1,twofour,,,,,,,,,,,,,,,,,,,,,,,,,,,,,,,,,,,,,,,,,,,,,,,,,,,,,,,,,,,,,,,,,,,,,,,,,,,,,,,,,,,,,,,,,,,,,,,,,,,,,,,,,,,,,,,,,,,,,,,,,,,,,,,,,,,,,,,,,
,,652dc8973a77e5f1b36d66c4,2024-02-19_13h11.48.904,kallum_motion_pilot,2023.2.2,Win32,59.88023952,652dc8973a77e5f1b36d66c4,65d2b6c8f2eece985d8e374c,65d2b7d9591f1c44e8adc94d,0.153,0.1531,0,150,150,57,1,onethree,,,,,,,,,,,,,,,,,,,,,,,,,,,,,,,,,,,,,,,,,,,,,,,,,,,,,,,,,,,,,,,,,,,,,,,,,,,,,,,,,,,,,,,,,,,,,,,,,,,,,,,,,,,,,,,,,,,,,,,,,,,,,,,,,,,,,,,,,
,,652dc8973a77e5f1b36d66c4,2024-02-19_13h11.48.904,kallum_motion_pilot,2023.2.2,Win32,59.88023952,652dc8973a77e5f1b36d66c4,65d2b6c8f2eece985d8e374c,65d2b7d9591f1c44e8adc94d,0.1534,0.1537,0,151,151,114,1,sixfive,,,,,,,,,,,,,,,,,,,,,,,,,,,,,,,,,,,,,,,,,,,,,,,,,,,,,,,,,,,,,,,,,,,,,,,,,,,,,,,,,,,,,,,,,,,,,,,,,,,,,,,,,,,,,,,,,,,,,,,,,,,,,,,,,,,,,,,,,
,,652dc8973a77e5f1b36d66c4,2024-02-19_13h11.48.904,kallum_motion_pilot,2023.2.2,Win32,59.88023952,652dc8973a77e5f1b36d66c4,65d2b6c8f2eece985d8e374c,65d2b7d9591f1c44e8adc94d,0.1543,0.1546,0,152,152,64,1,onetwo,,,,,,,,,,,,,,,,,,,,,,,,,,,,,,,,,,,,,,,,,,,,,,,,,,,,,,,,,,,,,,,,,,,,,,,,,,,,,,,,,,,,,,,,,,,,,,,,,,,,,,,,,,,,,,,,,,,,,,,,,,,,,,,,,,,,,,,,,
,,652dc8973a77e5f1b36d66c4,2024-02-19_13h11.48.904,kallum_motion_pilot,2023.2.2,Win32,59.88023952,652dc8973a77e5f1b36d66c4,65d2b6c8f2eece985d8e374c,65d2b7d9591f1c44e8adc94d,0.155,0.1553,0,153,153,13,1,threefour,,,,,,,,,,,,,,,,,,,,,,,,,,,,,,,,,,,,,,,,,,,,,,,,,,,,,,,,,,,,,,,,,,,,,,,,,,,,,,,,,,,,,,,,,,,,,,,,,,,,,,,,,,,,,,,,,,,,,,,,,,,,,,,,,,,,,,,,,
,,652dc8973a77e5f1b36d66c4,2024-02-19_13h11.48.904,kallum_motion_pilot,2023.2.2,Win32,59.88023952,652dc8973a77e5f1b36d66c4,65d2b6c8f2eece985d8e374c,65d2b7d9591f1c44e8adc94d,0.1557,0.1558,0,154,154,110,1,eightsix,,,,,,,,,,,,,,,,,,,,,,,,,,,,,,,,,,,,,,,,,,,,,,,,,,,,,,,,,,,,,,,,,,,,,,,,,,,,,,,,,,,,,,,,,,,,,,,,,,,,,,,,,,,,,,,,,,,,,,,,,,,,,,,,,,,,,,,,,
,,652dc8973a77e5f1b36d66c4,2024-02-19_13h11.48.904,kallum_motion_pilot,2023.2.2,Win32,59.88023952,652dc8973a77e5f1b36d66c4,65d2b6c8f2eece985d8e374c,65d2b7d9591f1c44e8adc94d,0.1562,0.1563,0,155,155,100,1,sevenfive,,,,,,,,,,,,,,,,,,,,,,,,,,,,,,,,,,,,,,,,,,,,,,,,,,,,,,,,,,,,,,,,,,,,,,,,,,,,,,,,,,,,,,,,,,,,,,,,,,,,,,,,,,,,,,,,,,,,,,,,,,,,,,,,,,,,,,,,,
,,652dc8973a77e5f1b36d66c4,2024-02-19_13h11.48.904,kallum_motion_pilot,2023.2.2,Win32,59.88023952,652dc8973a77e5f1b36d66c4,65d2b6c8f2eece985d8e374c,65d2b7d9591f1c44e8adc94d,0.1566,0.1568,0,156,156,25,1,onethree,,,,,,,,,,,,,,,,,,,,,,,,,,,,,,,,,,,,,,,,,,,,,,,,,,,,,,,,,,,,,,,,,,,,,,,,,,,,,,,,,,,,,,,,,,,,,,,,,,,,,,,,,,,,,,,,,,,,,,,,,,,,,,,,,,,,,,,,,
,,652dc8973a77e5f1b36d66c4,2024-02-19_13h11.48.904,kallum_motion_pilot,2023.2.2,Win32,59.88023952,652dc8973a77e5f1b36d66c4,65d2b6c8f2eece985d8e374c,65d2b7d9591f1c44e8adc94d,0.157,0.1572,0,157,157,62,1,fourtwo,,,,,,,,,,,,,,,,,,,,,,,,,,,,,,,,,,,,,,,,,,,,,,,,,,,,,,,,,,,,,,,,,,,,,,,,,,,,,,,,,,,,,,,,,,,,,,,,,,,,,,,,,,,,,,,,,,,,,,,,,,,,,,,,,,,,,,,,,
,,652dc8973a77e5f1b36d66c4,2024-02-19_13h11.48.904,kallum_motion_pilot,2023.2.2,Win32,59.88023952,652dc8973a77e5f1b36d66c4,65d2b6c8f2eece985d8e374c,65d2b7d9591f1c44e8adc94d,0.1574,0.1577,0,158,158,30,1,fourtwo,,,,,,,,,,,,,,,,,,,,,,,,,,,,,,,,,,,,,,,,,,,,,,,,,,,,,,,,,,,,,,,,,,,,,,,,,,,,,,,,,,,,,,,,,,,,,,,,,,,,,,,,,,,,,,,,,,,,,,,,,,,,,,,,,,,,,,,,,
,,652dc8973a77e5f1b36d66c4,2024-02-19_13h11.48.904,kallum_motion_pilot,2023.2.2,Win32,59.88023952,652dc8973a77e5f1b36d66c4,65d2b6c8f2eece985d8e374c,65d2b7d9591f1c44e8adc94d,0.158,0.1582,0,159,159,119,1,eightseven,,,,,,,,,,,,,,,,,,,,,,,,,,,,,,,,,,,,,,,,,,,,,,,,,,,,,,,,,,,,,,,,,,,,,,,,,,,,,,,,,,,,,,,,,,,,,,,,,,,,,,,,,,,,,,,,,,,,,,,,,,,,,,,,,,,,,,,,,
,,652dc8973a77e5f1b36d66c4,2024-02-19_13h11.48.904,kallum_motion_pilot,2023.2.2,Win32,59.88023952,652dc8973a77e5f1b36d66c4,65d2b6c8f2eece985d8e374c,65d2b7d9591f1c44e8adc94d,0.1588,0.1591,0,160,160,97,1,fiveseven,,,,,,,,,,,,,,,,,,,,,,,,,,,,,,,,,,,,,,,,,,,,,,,,,,,,,,,,,,,,,,,,,,,,,,,,,,,,,,,,,,,,,,,,,,,,,,,,,,,,,,,,,,,,,,,,,,,,,,,,,,,,,,,,,,,,,,,,,
,,652dc8973a77e5f1b36d66c4,2024-02-19_13h11.48.904,kallum_motion_pilot,2023.2.2,Win32,59.88023952,652dc8973a77e5f1b36d66c4,65d2b6c8f2eece985d8e374c,65d2b7d9591f1c44e8adc94d,0.1595,0.1597,0,161,161,105,1,fiveseven,,,,,,,,,,,,,,,,,,,,,,,,,,,,,,,,,,,,,,,,,,,,,,,,,,,,,,,,,,,,,,,,,,,,,,,,,,,,,,,,,,,,,,,,,,,,,,,,,,,,,,,,,,,,,,,,,,,,,,,,,,,,,,,,,,,,,,,,,
,,652dc8973a77e5f1b36d66c4,2024-02-19_13h11.48.904,kallum_motion_pilot,2023.2.2,Win32,59.88023952,652dc8973a77e5f1b36d66c4,65d2b6c8f2eece985d8e374c,65d2b7d9591f1c44e8adc94d,0.16,0.1602,1,0,162,148,1,sevenfive,,,,,,,,,,,,,,,,,,,,,,,,,,,,,,,,,,,,,,,,,,,,,,,,,,,,,,,,,,,,,,,,,,,,,,,,,,,,,,,,,,,,,,,,,,,,,,,,,,,,,,,,,,,,,,,,,,,,,,,,,,,,,,,,,,,,,,,,,
,,652dc8973a77e5f1b36d66c4,2024-02-19_13h11.48.904,kallum_motion_pilot,2023.2.2,Win32,59.88023952,652dc8973a77e5f1b36d66c4,65d2b6c8f2eece985d8e374c,65d2b7d9591f1c44e8adc94d,0.1605,0.1608,1,1,163,38,1,fourtwo,,,,,,,,,,,,,,,,,,,,,,,,,,,,,,,,,,,,,,,,,,,,,,,,,,,,,,,,,,,,,,,,,,,,,,,,,,,,,,,,,,,,,,,,,,,,,,,,,,,,,,,,,,,,,,,,,,,,,,,,,,,,,,,,,,,,,,,,,
,,652dc8973a77e5f1b36d66c4,2024-02-19_13h11.48.904,kallum_motion_pilot,2023.2.2,Win32,59.88023952,652dc8973a77e5f1b36d66c4,65d2b6c8f2eece985d8e374c,65d2b7d9591f1c44e8adc94d,0.161,0.1612,1,2,164,31,1,fourthree,,,,,,,,,,,,,,,,,,,,,,,,,,,,,,,,,,,,,,,,,,,,,,,,,,,,,,,,,,,,,,,,,,,,,,,,,,,,,,,,,,,,,,,,,,,,,,,,,,,,,,,,,,,,,,,,,,,,,,,,,,,,,,,,,,,,,,,,,
,,652dc8973a77e5f1b36d66c4,2024-02-19_13h11.48.904,kallum_motion_pilot,2023.2.2,Win32,59.88023952,652dc8973a77e5f1b36d66c4,65d2b6c8f2eece985d8e374c,65d2b7d9591f1c44e8adc94d,0.1614,0.1617,1,3,165,18,1,twoone,,,,,,,,,,,,,,,,,,,,,,,,,,,,,,,,,,,,,,,,,,,,,,,,,,,,,,,,,,,,,,,,,,,,,,,,,,,,,,,,,,,,,,,,,,,,,,,,,,,,,,,,,,,,,,,,,,,,,,,,,,,,,,,,,,,,,,,,,
,,652dc8973a77e5f1b36d66c4,2024-02-19_13h11.48.904,kallum_motion_pilot,2023.2.2,Win32,59.88023952,652dc8973a77e5f1b36d66c4,65d2b6c8f2eece985d8e374c,65d2b7d9591f1c44e8adc94d,0.162,0.1622,1,4,166,124,1,sevenfive,,,,,,,,,,,,,,,,,,,,,,,,,,,,,,,,,,,,,,,,,,,,,,,,,,,,,,,,,,,,,,,,,,,,,,,,,,,,,,,,,,,,,,,,,,,,,,,,,,,,,,,,,,,,,,,,,,,,,,,,,,,,,,,,,,,,,,,,,
,,652dc8973a77e5f1b36d66c4,2024-02-19_13h11.48.904,kallum_motion_pilot,2023.2.2,Win32,59.88023952,652dc8973a77e5f1b36d66c4,65d2b6c8f2eece985d8e374c,65d2b7d9591f1c44e8adc94d,0.1625,0.1627,1,5,167,151,1,eightseven,,,,,,,,,,,,,,,,,,,,,,,,,,,,,,,,,,,,,,,,,,,,,,,,,,,,,,,,,,,,,,,,,,,,,,,,,,,,,,,,,,,,,,,,,,,,,,,,,,,,,,,,,,,,,,,,,,,,,,,,,,,,,,,,,,,,,,,,,
,,652dc8973a77e5f1b36d66c4,2024-02-19_13h11.48.904,kallum_motion_pilot,2023.2.2,Win32,59.88023952,652dc8973a77e5f1b36d66c4,65d2b6c8f2eece985d8e374c,65d2b7d9591f1c44e8adc94d,0.1637,0.1638,1,6,168,145,1,fiveseven,,,,,,,,,,,,,,,,,,,,,,,,,,,,,,,,,,,,,,,,,,,,,,,,,,,,,,,,,,,,,,,,,,,,,,,,,,,,,,,,,,,,,,,,,,,,,,,,,,,,,,,,,,,,,,,,,,,,,,,,,,,,,,,,,,,,,,,,,
,,652dc8973a77e5f1b36d66c4,2024-02-19_13h11.48.904,kallum_motion_pilot,2023.2.2,Win32,59.88023952,652dc8973a77e5f1b36d66c4,65d2b6c8f2eece985d8e374c,65d2b7d9591f1c44e8adc94d,0.1642,0.1643,1,7,169,35,1,twofour,,,,,,,,,,,,,,,,,,,,,,,,,,,,,,,,,,,,,,,,,,,,,,,,,,,,,,,,,,,,,,,,,,,,,,,,,,,,,,,,,,,,,,,,,,,,,,,,,,,,,,,,,,,,,,,,,,,,,,,,,,,,,,,,,,,,,,,,,
,,652dc8973a77e5f1b36d66c4,2024-02-19_13h11.48.904,kallum_motion_pilot,2023.2.2,Win32,59.88023952,652dc8973a77e5f1b36d66c4,65d2b6c8f2eece985d8e374c,65d2b7d9591f1c44e8adc94d,0.1645,0.1646,1,8,170,63,1,fourthree,,,,,,,,,,,,,,,,,,,,,,,,,,,,,,,,,,,,,,,,,,,,,,,,,,,,,,,,,,,,,,,,,,,,,,,,,,,,,,,,,,,,,,,,,,,,,,,,,,,,,,,,,,,,,,,,,,,,,,,,,,,,,,,,,,,,,,,,,
,,652dc8973a77e5f1b36d66c4,2024-02-19_13h11.48.904,kallum_motion_pilot,2023.2.2,Win32,59.88023952,652dc8973a77e5f1b36d66c4,65d2b6c8f2eece985d8e374c,65d2b7d9591f1c44e8adc94d,0.1649,0.165,1,9,171,74,1,twoone,,,,,,,,,,,,,,,,,,,,,,,,,,,,,,,,,,,,,,,,,,,,,,,,,,,,,,,,,,,,,,,,,,,,,,,,,,,,,,,,,,,,,,,,,,,,,,,,,,,,,,,,,,,,,,,,,,,,,,,,,,,,,,,,,,,,,,,,,
,,652dc8973a77e5f1b36d66c4,2024-02-19_13h11.48.904,kallum_motion_pilot,2023.2.2,Win32,59.88023952,652dc8973a77e5f1b36d66c4,65d2b6c8f2eece985d8e374c,65d2b7d9591f1c44e8adc94d,0.1652,0.1654,1,10,172,51,1,twofour,,,,,,,,,,,,,,,,,,,,,,,,,,,,,,,,,,,,,,,,,,,,,,,,,,,,,,,,,,,,,,,,,,,,,,,,,,,,,,,,,,,,,,,,,,,,,,,,,,,,,,,,,,,,,,,,,,,,,,,,,,,,,,,,,,,,,,,,,
,,652dc8973a77e5f1b36d66c4,2024-02-19_13h11.48.904,kallum_motion_pilot,2023.2.2,Win32,59.88023952,652dc8973a77e5f1b36d66c4,65d2b6c8f2eece985d8e374c,65d2b7d9591f1c44e8adc94d,0.1656,0.1657,1,11,173,2,1,twoone,,,,,,,,,,,,,,,,,,,,,,,,,,,,,,,,,,,,,,,,,,,,,,,,,,,,,,,,,,,,,,,,,,,,,,,,,,,,,,,,,,,,,,,,,,,,,,,,,,,,,,,,,,,,,,,,,,,,,,,,,,,,,,,,,,,,,,,,,
,,652dc8973a77e5f1b36d66c4,2024-02-19_13h11.48.904,kallum_motion_pilot,2023.2.2,Win32,59.88023952,652dc8973a77e5f1b36d66c4,65d2b6c8f2eece985d8e374c,65d2b7d9591f1c44e8adc94d,0.1659,0.1661,1,12,174,76,1,threeone,,,,,,,,,,,,,,,,,,,,,,,,,,,,,,,,,,,,,,,,,,,,,,,,,,,,,,,,,,,,,,,,,,,,,,,,,,,,,,,,,,,,,,,,,,,,,,,,,,,,,,,,,,,,,,,,,,,,,,,,,,,,,,,,,,,,,,,,,
,,652dc8973a77e5f1b36d66c4,2024-02-19_13h11.48.904,kallum_motion_pilot,2023.2.2,Win32,59.88023952,652dc8973a77e5f1b36d66c4,65d2b6c8f2eece985d8e374c,65d2b7d9591f1c44e8adc94d,0.1665,0.1666,1,13,175,126,1,eightsix,,,,,,,,,,,,,,,,,,,,,,,,,,,,,,,,,,,,,,,,,,,,,,,,,,,,,,,,,,,,,,,,,,,,,,,,,,,,,,,,,,,,,,,,,,,,,,,,,,,,,,,,,,,,,,,,,,,,,,,,,,,,,,,,,,,,,,,,,
,,652dc8973a77e5f1b36d66c4,2024-02-19_13h11.48.904,kallum_motion_pilot,2023.2.2,Win32,59.88023952,652dc8973a77e5f1b36d66c4,65d2b6c8f2eece985d8e374c,65d2b7d9591f1c44e8adc94d,0.1669,0.1671,1,14,176,10,1,twoone,,,,,,,,,,,,,,,,,,,,,,,,,,,,,,,,,,,,,,,,,,,,,,,,,,,,,,,,,,,,,,,,,,,,,,,,,,,,,,,,,,,,,,,,,,,,,,,,,,,,,,,,,,,,,,,,,,,,,,,,,,,,,,,,,,,,,,,,,
,,652dc8973a77e5f1b36d66c4,2024-02-19_13h11.48.904,kallum_motion_pilot,2023.2.2,Win32,59.88023952,652dc8973a77e5f1b36d66c4,65d2b6c8f2eece985d8e374c,65d2b7d9591f1c44e8adc94d,0.1673,0.1675,1,15,177,128,1,fivesix,,,,,,,,,,,,,,,,,,,,,,,,,,,,,,,,,,,,,,,,,,,,,,,,,,,,,,,,,,,,,,,,,,,,,,,,,,,,,,,,,,,,,,,,,,,,,,,,,,,,,,,,,,,,,,,,,,,,,,,,,,,,,,,,,,,,,,,,,
,,652dc8973a77e5f1b36d66c4,2024-02-19_13h11.48.904,kallum_motion_pilot,2023.2.2,Win32,59.88023952,652dc8973a77e5f1b36d66c4,65d2b6c8f2eece985d8e374c,65d2b7d9591f1c44e8adc94d,0.1677,0.1679,1,16,178,67,1,twofour,,,,,,,,,,,,,,,,,,,,,,,,,,,,,,,,,,,,,,,,,,,,,,,,,,,,,,,,,,,,,,,,,,,,,,,,,,,,,,,,,,,,,,,,,,,,,,,,,,,,,,,,,,,,,,,,,,,,,,,,,,,,,,,,,,,,,,,,,
,,652dc8973a77e5f1b36d66c4,2024-02-19_13h11.48.904,kallum_motion_pilot,2023.2.2,Win32,59.88023952,652dc8973a77e5f1b36d66c4,65d2b6c8f2eece985d8e374c,65d2b7d9591f1c44e8adc94d,0.1681,0.1684,1,17,179,117,1,seveneight,,,,,,,,,,,,,,,,,,,,,,,,,,,,,,,,,,,,,,,,,,,,,,,,,,,,,,,,,,,,,,,,,,,,,,,,,,,,,,,,,,,,,,,,,,,,,,,,,,,,,,,,,,,,,,,,,,,,,,,,,,,,,,,,,,,,,,,,,
,,652dc8973a77e5f1b36d66c4,2024-02-19_13h11.48.904,kallum_motion_pilot,2023.2.2,Win32,59.88023952,652dc8973a77e5f1b36d66c4,65d2b6c8f2eece985d8e374c,65d2b7d9591f1c44e8adc94d,0.1686,0.1687,1,18,180,120,1,fivesix,,,,,,,,,,,,,,,,,,,,,,,,,,,,,,,,,,,,,,,,,,,,,,,,,,,,,,,,,,,,,,,,,,,,,,,,,,,,,,,,,,,,,,,,,,,,,,,,,,,,,,,,,,,,,,,,,,,,,,,,,,,,,,,,,,,,,,,,,
,,652dc8973a77e5f1b36d66c4,2024-02-19_13h11.48.904,kallum_motion_pilot,2023.2.2,Win32,59.88023952,652dc8973a77e5f1b36d66c4,65d2b6c8f2eece985d8e374c,65d2b7d9591f1c44e8adc94d,0.1689,0.1692,1,19,181,159,1,eightseven,,,,,,,,,,,,,,,,,,,,,,,,,,,,,,,,,,,,,,,,,,,,,,,,,,,,,,,,,,,,,,,,,,,,,,,,,,,,,,,,,,,,,,,,,,,,,,,,,,,,,,,,,,,,,,,,,,,,,,,,,,,,,,,,,,,,,,,,,
,,652dc8973a77e5f1b36d66c4,2024-02-19_13h11.48.904,kallum_motion_pilot,2023.2.2,Win32,59.88023952,652dc8973a77e5f1b36d66c4,65d2b6c8f2eece985d8e374c,65d2b7d9591f1c44e8adc94d,0.1695,0.1698,1,20,182,42,1,twoone,,,,,,,,,,,,,,,,,,,,,,,,,,,,,,,,,,,,,,,,,,,,,,,,,,,,,,,,,,,,,,,,,,,,,,,,,,,,,,,,,,,,,,,,,,,,,,,,,,,,,,,,,,,,,,,,,,,,,,,,,,,,,,,,,,,,,,,,,
,,652dc8973a77e5f1b36d66c4,2024-02-19_13h11.48.904,kallum_motion_pilot,2023.2.2,Win32,59.88023952,652dc8973a77e5f1b36d66c4,65d2b6c8f2eece985d8e374c,65d2b7d9591f1c44e8adc94d,0.17,0.1702,1,21,183,8,1,onetwo,,,,,,,,,,,,,,,,,,,,,,,,,,,,,,,,,,,,,,,,,,,,,,,,,,,,,,,,,,,,,,,,,,,,,,,,,,,,,,,,,,,,,,,,,,,,,,,,,,,,,,,,,,,,,,,,,,,,,,,,,,,,,,,,,,,,,,,,,
,,652dc8973a77e5f1b36d66c4,2024-02-19_13h11.48.904,kallum_motion_pilot,2023.2.2,Win32,59.88023952,652dc8973a77e5f1b36d66c4,65d2b6c8f2eece985d8e374c,65d2b7d9591f1c44e8adc94d,0.171,0.1715,1,22,184,16,1,onetwo,,,,,,,,,,,,,,,,,,,,,,,,,,,,,,,,,,,,,,,,,,,,,,,,,,,,,,,,,,,,,,,,,,,,,,,,,,,,,,,,,,,,,,,,,,,,,,,,,,,,,,,,,,,,,,,,,,,,,,,,,,,,,,,,,,,,,,,,,
,,652dc8973a77e5f1b36d66c4,2024-02-19_13h11.48.904,kallum_motion_pilot,2023.2.2,Win32,59.88023952,652dc8973a77e5f1b36d66c4,65d2b6c8f2eece985d8e374c,65d2b7d9591f1c44e8adc94d,0.1721,0.1725,1,23,185,93,1,seveneight,,,,,,,,,,,,,,,,,,,,,,,,,,,,,,,,,,,,,,,,,,,,,,,,,,,,,,,,,,,,,,,,,,,,,,,,,,,,,,,,,,,,,,,,,,,,,,,,,,,,,,,,,,,,,,,,,,,,,,,,,,,,,,,,,,,,,,,,,
,,652dc8973a77e5f1b36d66c4,2024-02-19_13h11.48.904,kallum_motion_pilot,2023.2.2,Win32,59.88023952,652dc8973a77e5f1b36d66c4,65d2b6c8f2eece985d8e374c,65d2b7d9591f1c44e8adc94d,0.1728,0.1731,1,24,186,139,1,sixeight,,,,,,,,,,,,,,,,,,,,,,,,,,,,,,,,,,,,,,,,,,,,,,,,,,,,,,,,,,,,,,,,,,,,,,,,,,,,,,,,,,,,,,,,,,,,,,,,,,,,,,,,,,,,,,,,,,,,,,,,,,,,,,,,,,,,,,,,,
,,652dc8973a77e5f1b36d66c4,2024-02-19_13h11.48.904,kallum_motion_pilot,2023.2.2,Win32,59.88023952,652dc8973a77e5f1b36d66c4,65d2b6c8f2eece985d8e374c,65d2b7d9591f1c44e8adc94d,0.1735,0.1739,1,25,187,142,1,eightsix,,,,,,,,,,,,,,,,,,,,,,,,,,,,,,,,,,,,,,,,,,,,,,,,,,,,,,,,,,,,,,,,,,,,,,,,,,,,,,,,,,,,,,,,,,,,,,,,,,,,,,,,,,,,,,,,,,,,,,,,,,,,,,,,,,,,,,,,,
,,652dc8973a77e5f1b36d66c4,2024-02-19_13h11.48.904,kallum_motion_pilot,2023.2.2,Win32,59.88023952,652dc8973a77e5f1b36d66c4,65d2b6c8f2eece985d8e374c,65d2b7d9591f1c44e8adc94d,0.1744,0.1749,1,26,188,12,1,threeone,,,,,,,,,,,,,,,,,,,,,,,,,,,,,,,,,,,,,,,,,,,,,,,,,,,,,,,,,,,,,,,,,,,,,,,,,,,,,,,,,,,,,,,,,,,,,,,,,,,,,,,,,,,,,,,,,,,,,,,,,,,,,,,,,,,,,,,,,
,,652dc8973a77e5f1b36d66c4,2024-02-19_13h11.48.904,kallum_motion_pilot,2023.2.2,Win32,59.88023952,652dc8973a77e5f1b36d66c4,65d2b6c8f2eece985d8e374c,65d2b7d9591f1c44e8adc94d,0.1756,0.176,1,27,189,82,1,sixfive,,,,,,,,,,,,,,,,,,,,,,,,,,,,,,,,,,,,,,,,,,,,,,,,,,,,,,,,,,,,,,,,,,,,,,,,,,,,,,,,,,,,,,,,,,,,,,,,,,,,,,,,,,,,,,,,,,,,,,,,,,,,,,,,,,,,,,,,,
,,652dc8973a77e5f1b36d66c4,2024-02-19_13h11.48.904,kallum_motion_pilot,2023.2.2,Win32,59.88023952,652dc8973a77e5f1b36d66c4,65d2b6c8f2eece985d8e374c,65d2b7d9591f1c44e8adc94d,0.1765,0.1768,1,28,190,104,1,fivesix,,,,,,,,,,,,,,,,,,,,,,,,,,,,,,,,,,,,,,,,,,,,,,,,,,,,,,,,,,,,,,,,,,,,,,,,,,,,,,,,,,,,,,,,,,,,,,,,,,,,,,,,,,,,,,,,,,,,,,,,,,,,,,,,,,,,,,,,,
,,652dc8973a77e5f1b36d66c4,2024-02-19_13h11.48.904,kallum_motion_pilot,2023.2.2,Win32,59.88023952,652dc8973a77e5f1b36d66c4,65d2b6c8f2eece985d8e374c,65d2b7d9591f1c44e8adc94d,0.1771,0.1773,1,29,191,34,1,twoone,,,,,,,,,,,,,,,,,,,,,,,,,,,,,,,,,,,,,,,,,,,,,,,,,,,,,,,,,,,,,,,,,,,,,,,,,,,,,,,,,,,,,,,,,,,,,,,,,,,,,,,,,,,,,,,,,,,,,,,,,,,,,,,,,,,,,,,,,
,,652dc8973a77e5f1b36d66c4,2024-02-19_13h11.48.904,kallum_motion_pilot,2023.2.2,Win32,59.88023952,652dc8973a77e5f1b36d66c4,65d2b6c8f2eece985d8e374c,65d2b7d9591f1c44e8adc94d,0.1775,0.1778,1,30,192,71,1,fourthree,,,,,,,,,,,,,,,,,,,,,,,,,,,,,,,,,,,,,,,,,,,,,,,,,,,,,,,,,,,,,,,,,,,,,,,,,,,,,,,,,,,,,,,,,,,,,,,,,,,,,,,,,,,,,,,,,,,,,,,,,,,,,,,,,,,,,,,,,
,,652dc8973a77e5f1b36d66c4,2024-02-19_13h11.48.904,kallum_motion_pilot,2023.2.2,Win32,59.88023952,652dc8973a77e5f1b36d66c4,65d2b6c8f2eece985d8e374c,65d2b7d9591f1c44e8adc94d,0.178,0.1782,1,31,193,150,1,eightsix,,,,,,,,,,,,,,,,,,,,,,,,,,,,,,,,,,,,,,,,,,,,,,,,,,,,,,,,,,,,,,,,,,,,,,,,,,,,,,,,,,,,,,,,,,,,,,,,,,,,,,,,,,,,,,,,,,,,,,,,,,,,,,,,,,,,,,,,,
,,652dc8973a77e5f1b36d66c4,2024-02-19_13h11.48.904,kallum_motion_pilot,2023.2.2,Win32,59.88023952,652dc8973a77e5f1b36d66c4,65d2b6c8f2eece985d8e374c,65d2b7d9591f1c44e8adc94d,0.1784,0.1787,1,32,194,1,1,onethree,,,,,,,,,,,,,,,,,,,,,,,,,,,,,,,,,,,,,,,,,,,,,,,,,,,,,,,,,,,,,,,,,,,,,,,,,,,,,,,,,,,,,,,,,,,,,,,,,,,,,,,,,,,,,,,,,,,,,,,,,,,,,,,,,,,,,,,,,
,,652dc8973a77e5f1b36d66c4,2024-02-19_13h11.48.904,kallum_motion_pilot,2023.2.2,Win32,59.88023952,652dc8973a77e5f1b36d66c4,65d2b6c8f2eece985d8e374c,65d2b7d9591f1c44e8adc94d,0.1791,0.1795,1,33,195,14,1,fourtwo,,,,,,,,,,,,,,,,,,,,,,,,,,,,,,,,,,,,,,,,,,,,,,,,,,,,,,,,,,,,,,,,,,,,,,,,,,,,,,,,,,,,,,,,,,,,,,,,,,,,,,,,,,,,,,,,,,,,,,,,,,,,,,,,,,,,,,,,,
,,652dc8973a77e5f1b36d66c4,2024-02-19_13h11.48.904,kallum_motion_pilot,2023.2.2,Win32,59.88023952,652dc8973a77e5f1b36d66c4,65d2b6c8f2eece985d8e374c,65d2b7d9591f1c44e8adc94d,0.18,0.1804,1,34,196,143,1,eightseven,,,,,,,,,,,,,,,,,,,,,,,,,,,,,,,,,,,,,,,,,,,,,,,,,,,,,,,,,,,,,,,,,,,,,,,,,,,,,,,,,,,,,,,,,,,,,,,,,,,,,,,,,,,,,,,,,,,,,,,,,,,,,,,,,,,,,,,,,
,,652dc8973a77e5f1b36d66c4,2024-02-19_13h11.48.904,kallum_motion_pilot,2023.2.2,Win32,59.88023952,652dc8973a77e5f1b36d66c4,65d2b6c8f2eece985d8e374c,65d2b7d9591f1c44e8adc94d,0.1807,0.181,1,35,197,107,1,sixeight,,,,,,,,,,,,,,,,,,,,,,,,,,,,,,,,,,,,,,,,,,,,,,,,,,,,,,,,,,,,,,,,,,,,,,,,,,,,,,,,,,,,,,,,,,,,,,,,,,,,,,,,,,,,,,,,,,,,,,,,,,,,,,,,,,,,,,,,,
,,652dc8973a77e5f1b36d66c4,2024-02-19_13h11.48.904,kallum_motion_pilot,2023.2.2,Win32,59.88023952,652dc8973a77e5f1b36d66c4,65d2b6c8f2eece985d8e374c,65d2b7d9591f1c44e8adc94d,0.1813,0.1816,1,36,198,50,1,twoone,,,,,,,,,,,,,,,,,,,,,,,,,,,,,,,,,,,,,,,,,,,,,,,,,,,,,,,,,,,,,,,,,,,,,,,,,,,,,,,,,,,,,,,,,,,,,,,,,,,,,,,,,,,,,,,,,,,,,,,,,,,,,,,,,,,,,,,,,
,,652dc8973a77e5f1b36d66c4,2024-02-19_13h11.48.904,kallum_motion_pilot,2023.2.2,Win32,59.88023952,652dc8973a77e5f1b36d66c4,65d2b6c8f2eece985d8e374c,65d2b7d9591f1c44e8adc94d,0.1819,0.1822,1,37,199,105,1,fiveseven,,,,,,,,,,,,,,,,,,,,,,,,,,,,,,,,,,,,,,,,,,,,,,,,,,,,,,,,,,,,,,,,,,,,,,,,,,,,,,,,,,,,,,,,,,,,,,,,,,,,,,,,,,,,,,,,,,,,,,,,,,,,,,,,,,,,,,,,,
,,652dc8973a77e5f1b36d66c4,2024-02-19_13h11.48.904,kallum_motion_pilot,2023.2.2,Win32,59.88023952,652dc8973a77e5f1b36d66c4,65d2b6c8f2eece985d8e374c,65d2b7d9591f1c44e8adc94d,0.1825,0.1828,1,38,200,28,1,threeone,,,,,,,,,,,,,,,,,,,,,,,,,,,,,,,,,,,,,,,,,,,,,,,,,,,,,,,,,,,,,,,,,,,,,,,,,,,,,,,,,,,,,,,,,,,,,,,,,,,,,,,,,,,,,,,,,,,,,,,,,,,,,,,,,,,,,,,,,
,,652dc8973a77e5f1b36d66c4,2024-02-19_13h11.48.904,kallum_motion_pilot,2023.2.2,Win32,59.88023952,652dc8973a77e5f1b36d66c4,65d2b6c8f2eece985d8e374c,65d2b7d9591f1c44e8adc94d,0.1831,0.1833,1,39,201,54,1,fourtwo,,,,,,,,,,,,,,,,,,,,,,,,,,,,,,,,,,,,,,,,,,,,,,,,,,,,,,,,,,,,,,,,,,,,,,,,,,,,,,,,,,,,,,,,,,,,,,,,,,,,,,,,,,,,,,,,,,,,,,,,,,,,,,,,,,,,,,,,,
,,652dc8973a77e5f1b36d66c4,2024-02-19_13h11.48.904,kallum_motion_pilot,2023.2.2,Win32,59.88023952,652dc8973a77e5f1b36d66c4,65d2b6c8f2eece985d8e374c,65d2b7d9591f1c44e8adc94d,0.1837,0.1839,1,40,202,65,1,onethree,,,,,,,,,,,,,,,,,,,,,,,,,,,,,,,,,,,,,,,,,,,,,,,,,,,,,,,,,,,,,,,,,,,,,,,,,,,,,,,,,,,,,,,,,,,,,,,,,,,,,,,,,,,,,,,,,,,,,,,,,,,,,,,,,,,,,,,,,
,,652dc8973a77e5f1b36d66c4,2024-02-19_13h11.48.904,kallum_motion_pilot,2023.2.2,Win32,59.88023952,652dc8973a77e5f1b36d66c4,65d2b6c8f2eece985d8e374c,65d2b7d9591f1c44e8adc94d,0.1842,0.1845,1,41,203,157,1,seveneight,,,,,,,,,,,,,,,,,,,,,,,,,,,,,,,,,,,,,,,,,,,,,,,,,,,,,,,,,,,,,,,,,,,,,,,,,,,,,,,,,,,,,,,,,,,,,,,,,,,,,,,,,,,,,,,,,,,,,,,,,,,,,,,,,,,,,,,,,
,,652dc8973a77e5f1b36d66c4,2024-02-19_13h11.48.904,kallum_motion_pilot,2023.2.2,Win32,59.88023952,652dc8973a77e5f1b36d66c4,65d2b6c8f2eece985d8e374c,65d2b7d9591f1c44e8adc94d,0.1848,0.1851,1,42,204,85,1,seveneight,,,,,,,,,,,,,,,,,,,,,,,,,,,,,,,,,,,,,,,,,,,,,,,,,,,,,,,,,,,,,,,,,,,,,,,,,,,,,,,,,,,,,,,,,,,,,,,,,,,,,,,,,,,,,,,,,,,,,,,,,,,,,,,,,,,,,,,,,
,,652dc8973a77e5f1b36d66c4,2024-02-19_13h11.48.904,kallum_motion_pilot,2023.2.2,Win32,59.88023952,652dc8973a77e5f1b36d66c4,65d2b6c8f2eece985d8e374c,65d2b7d9591f1c44e8adc94d,0.1854,0.1857,1,43,205,61,1,threefour,,,,,,,,,,,,,,,,,,,,,,,,,,,,,,,,,,,,,,,,,,,,,,,,,,,,,,,,,,,,,,,,,,,,,,,,,,,,,,,,,,,,,,,,,,,,,,,,,,,,,,,,,,,,,,,,,,,,,,,,,,,,,,,,,,,,,,,,,
,,652dc8973a77e5f1b36d66c4,2024-02-19_13h11.48.904,kallum_motion_pilot,2023.2.2,Win32,59.88023952,652dc8973a77e5f1b36d66c4,65d2b6c8f2eece985d8e374c,65d2b7d9591f1c44e8adc94d,0.186,0.1863,1,44,206,4,1,threeone,,,,,,,,,,,,,,,,,,,,,,,,,,,,,,,,,,,,,,,,,,,,,,,,,,,,,,,,,,,,,,,,,,,,,,,,,,,,,,,,,,,,,,,,,,,,,,,,,,,,,,,,,,,,,,,,,,,,,,,,,,,,,,,,,,,,,,,,,
,,652dc8973a77e5f1b36d66c4,2024-02-19_13h11.48.904,kallum_motion_pilot,2023.2.2,Win32,59.88023952,652dc8973a77e5f1b36d66c4,65d2b6c8f2eece985d8e374c,65d2b7d9591f1c44e8adc94d,0.1866,0.187,1,45,207,40,1,onetwo,,,,,,,,,,,,,,,,,,,,,,,,,,,,,,,,,,,,,,,,,,,,,,,,,,,,,,,,,,,,,,,,,,,,,,,,,,,,,,,,,,,,,,,,,,,,,,,,,,,,,,,,,,,,,,,,,,,,,,,,,,,,,,,,,,,,,,,,,
,,652dc8973a77e5f1b36d66c4,2024-02-19_13h11.48.904,kallum_motion_pilot,2023.2.2,Win32,59.88023952,652dc8973a77e5f1b36d66c4,65d2b6c8f2eece985d8e374c,65d2b7d9591f1c44e8adc94d,0.1877,0.188,1,46,208,94,1,eightsix,,,,,,,,,,,,,,,,,,,,,,,,,,,,,,,,,,,,,,,,,,,,,,,,,,,,,,,,,,,,,,,,,,,,,,,,,,,,,,,,,,,,,,,,,,,,,,,,,,,,,,,,,,,,,,,,,,,,,,,,,,,,,,,,,,,,,,,,,
,,652dc8973a77e5f1b36d66c4,2024-02-19_13h11.48.904,kallum_motion_pilot,2023.2.2,Win32,59.88023952,652dc8973a77e5f1b36d66c4,65d2b6c8f2eece985d8e374c,65d2b7d9591f1c44e8adc94d,0.1883,0.1886,1,47,209,97,1,fiveseven,,,,,,,,,,,,,,,,,,,,,,,,,,,,,,,,,,,,,,,,,,,,,,,,,,,,,,,,,,,,,,,,,,,,,,,,,,,,,,,,,,,,,,,,,,,,,,,,,,,,,,,,,,,,,,,,,,,,,,,,,,,,,,,,,,,,,,,,,
,,652dc8973a77e5f1b36d66c4,2024-02-19_13h11.48.904,kallum_motion_pilot,2023.2.2,Win32,59.88023952,652dc8973a77e5f1b36d66c4,65d2b6c8f2eece985d8e374c,65d2b7d9591f1c44e8adc94d,0.1892,0.1895,1,48,210,91,1,sixeight,,,,,,,,,,,,,,,,,,,,,,,,,,,,,,,,,,,,,,,,,,,,,,,,,,,,,,,,,,,,,,,,,,,,,,,,,,,,,,,,,,,,,,,,,,,,,,,,,,,,,,,,,,,,,,,,,,,,,,,,,,,,,,,,,,,,,,,,,
,,652dc8973a77e5f1b36d66c4,2024-02-19_13h11.48.904,kallum_motion_pilot,2023.2.2,Win32,59.88023952,652dc8973a77e5f1b36d66c4,65d2b6c8f2eece985d8e374c,65d2b7d9591f1c44e8adc94d,0.19,0.1903,1,49,211,77,1,threefour,,,,,,,,,,,,,,,,,,,,,,,,,,,,,,,,,,,,,,,,,,,,,,,,,,,,,,,,,,,,,,,,,,,,,,,,,,,,,,,,,,,,,,,,,,,,,,,,,,,,,,,,,,,,,,,,,,,,,,,,,,,,,,,,,,,,,,,,,
,,652dc8973a77e5f1b36d66c4,2024-02-19_13h11.48.904,kallum_motion_pilot,2023.2.2,Win32,59.88023952,652dc8973a77e5f1b36d66c4,65d2b6c8f2eece985d8e374c,65d2b7d9591f1c44e8adc94d,0.1907,0.1909,1,50,212,141,1,seveneight,,,,,,,,,,,,,,,,,,,,,,,,,,,,,,,,,,,,,,,,,,,,,,,,,,,,,,,,,,,,,,,,,,,,,,,,,,,,,,,,,,,,,,,,,,,,,,,,,,,,,,,,,,,,,,,,,,,,,,,,,,,,,,,,,,,,,,,,,
,,652dc8973a77e5f1b36d66c4,2024-02-19_13h11.48.904,kallum_motion_pilot,2023.2.2,Win32,59.88023952,652dc8973a77e5f1b36d66c4,65d2b6c8f2eece985d8e374c,65d2b7d9591f1c44e8adc94d,0.1913,0.1916,1,51,213,30,1,fourtwo,,,,,,,,,,,,,,,,,,,,,,,,,,,,,,,,,,,,,,,,,,,,,,,,,,,,,,,,,,,,,,,,,,,,,,,,,,,,,,,,,,,,,,,,,,,,,,,,,,,,,,,,,,,,,,,,,,,,,,,,,,,,,,,,,,,,,,,,,
,,652dc8973a77e5f1b36d66c4,2024-02-19_13h11.48.904,kallum_motion_pilot,2023.2.2,Win32,59.88023952,652dc8973a77e5f1b36d66c4,65d2b6c8f2eece985d8e374c,65d2b7d9591f1c44e8adc94d,0.192,0.1923,1,52,214,95,1,eightseven,,,,,,,,,,,,,,,,,,,,,,,,,,,,,,,,,,,,,,,,,,,,,,,,,,,,,,,,,,,,,,,,,,,,,,,,,,,,,,,,,,,,,,,,,,,,,,,,,,,,,,,,,,,,,,,,,,,,,,,,,,,,,,,,,,,,,,,,,
,,652dc8973a77e5f1b36d66c4,2024-02-19_13h11.48.904,kallum_motion_pilot,2023.2.2,Win32,59.88023952,652dc8973a77e5f1b36d66c4,65d2b6c8f2eece985d8e374c,65d2b7d9591f1c44e8adc94d,0.1927,0.193,1,53,215,81,1,fiveseven,,,,,,,,,,,,,,,,,,,,,,,,,,,,,,,,,,,,,,,,,,,,,,,,,,,,,,,,,,,,,,,,,,,,,,,,,,,,,,,,,,,,,,,,,,,,,,,,,,,,,,,,,,,,,,,,,,,,,,,,,,,,,,,,,,,,,,,,,
,,652dc8973a77e5f1b36d66c4,2024-02-19_13h11.48.904,kallum_motion_pilot,2023.2.2,Win32,59.88023952,652dc8973a77e5f1b36d66c4,65d2b6c8f2eece985d8e374c,65d2b7d9591f1c44e8adc94d,0.1934,0.1937,1,54,216,84,1,sevenfive,,,,,,,,,,,,,,,,,,,,,,,,,,,,,,,,,,,,,,,,,,,,,,,,,,,,,,,,,,,,,,,,,,,,,,,,,,,,,,,,,,,,,,,,,,,,,,,,,,,,,,,,,,,,,,,,,,,,,,,,,,,,,,,,,,,,,,,,,
,,652dc8973a77e5f1b36d66c4,2024-02-19_13h11.48.904,kallum_motion_pilot,2023.2.2,Win32,59.88023952,652dc8973a77e5f1b36d66c4,65d2b6c8f2eece985d8e374c,65d2b7d9591f1c44e8adc94d,0.1948,0.1951,1,55,217,39,1,fourthree,,,,,,,,,,,,,,,,,,,,,,,,,,,,,,,,,,,,,,,,,,,,,,,,,,,,,,,,,,,,,,,,,,,,,,,,,,,,,,,,,,,,,,,,,,,,,,,,,,,,,,,,,,,,,,,,,,,,,,,,,,,,,,,,,,,,,,,,,
,,652dc8973a77e5f1b36d66c4,2024-02-19_13h11.48.904,kallum_motion_pilot,2023.2.2,Win32,59.88023952,652dc8973a77e5f1b36d66c4,65d2b6c8f2eece985d8e374c,65d2b7d9591f1c44e8adc94d,0.1956,0.1958,1,56,218,112,1,fivesix,,,,,,,,,,,,,,,,,,,,,,,,,,,,,,,,,,,,,,,,,,,,,,,,,,,,,,,,,,,,,,,,,,,,,,,,,,,,,,,,,,,,,,,,,,,,,,,,,,,,,,,,,,,,,,,,,,,,,,,,,,,,,,,,,,,,,,,,,
,,652dc8973a77e5f1b36d66c4,2024-02-19_13h11.48.904,kallum_motion_pilot,2023.2.2,Win32,59.88023952,652dc8973a77e5f1b36d66c4,65d2b6c8f2eece985d8e374c,65d2b7d9591f1c44e8adc94d,0.1961,0.1964,1,57,219,149,1,seveneight,,,,,,,,,,,,,,,,,,,,,,,,,,,,,,,,,,,,,,,,,,,,,,,,,,,,,,,,,,,,,,,,,,,,,,,,,,,,,,,,,,,,,,,,,,,,,,,,,,,,,,,,,,,,,,,,,,,,,,,,,,,,,,,,,,,,,,,,,
,,652dc8973a77e5f1b36d66c4,2024-02-19_13h11.48.904,kallum_motion_pilot,2023.2.2,Win32,59.88023952,652dc8973a77e5f1b36d66c4,65d2b6c8f2eece985d8e374c,65d2b7d9591f1c44e8adc94d,0.1967,0.197,1,58,220,80,1,fivesix,,,,,,,,,,,,,,,,,,,,,,,,,,,,,,,,,,,,,,,,,,,,,,,,,,,,,,,,,,,,,,,,,,,,,,,,,,,,,,,,,,,,,,,,,,,,,,,,,,,,,,,,,,,,,,,,,,,,,,,,,,,,,,,,,,,,,,,,,
,,652dc8973a77e5f1b36d66c4,2024-02-19_13h11.48.904,kallum_motion_pilot,2023.2.2,Win32,59.88023952,652dc8973a77e5f1b36d66c4,65d2b6c8f2eece985d8e374c,65d2b7d9591f1c44e8adc94d,0.1973,0.1975,1,59,221,135,1,eightseven,,,,,,,,,,,,,,,,,,,,,,,,,,,,,,,,,,,,,,,,,,,,,,,,,,,,,,,,,,,,,,,,,,,,,,,,,,,,,,,,,,,,,,,,,,,,,,,,,,,,,,,,,,,,,,,,,,,,,,,,,,,,,,,,,,,,,,,,,
,,652dc8973a77e5f1b36d66c4,2024-02-19_13h11.48.904,kallum_motion_pilot,2023.2.2,Win32,59.88023952,652dc8973a77e5f1b36d66c4,65d2b6c8f2eece985d8e374c,65d2b7d9591f1c44e8adc94d,0.1978,0.198,1,60,222,113,1,fiveseven,,,,,,,,,,,,,,,,,,,,,,,,,,,,,,,,,,,,,,,,,,,,,,,,,,,,,,,,,,,,,,,,,,,,,,,,,,,,,,,,,,,,,,,,,,,,,,,,,,,,,,,,,,,,,,,,,,,,,,,,,,,,,,,,,,,,,,,,,
,,652dc8973a77e5f1b36d66c4,2024-02-19_13h11.48.904,kallum_motion_pilot,2023.2.2,Win32,59.88023952,652dc8973a77e5f1b36d66c4,65d2b6c8f2eece985d8e374c,65d2b7d9591f1c44e8adc94d,0.1983,0.1984,1,61,223,132,1,sevenfive,,,,,,,,,,,,,,,,,,,,,,,,,,,,,,,,,,,,,,,,,,,,,,,,,,,,,,,,,,,,,,,,,,,,,,,,,,,,,,,,,,,,,,,,,,,,,,,,,,,,,,,,,,,,,,,,,,,,,,,,,,,,,,,,,,,,,,,,,
,,652dc8973a77e5f1b36d66c4,2024-02-19_13h11.48.904,kallum_motion_pilot,2023.2.2,Win32,59.88023952,652dc8973a77e5f1b36d66c4,65d2b6c8f2eece985d8e374c,65d2b7d9591f1c44e8adc94d,0.1987,0.1988,1,62,224,47,1,fourthree,,,,,,,,,,,,,,,,,,,,,,,,,,,,,,,,,,,,,,,,,,,,,,,,,,,,,,,,,,,,,,,,,,,,,,,,,,,,,,,,,,,,,,,,,,,,,,,,,,,,,,,,,,,,,,,,,,,,,,,,,,,,,,,,,,,,,,,,,
,,652dc8973a77e5f1b36d66c4,2024-02-19_13h11.48.904,kallum_motion_pilot,2023.2.2,Win32,59.88023952,652dc8973a77e5f1b36d66c4,65d2b6c8f2eece985d8e374c,65d2b7d9591f1c44e8adc94d,0.199,0.1992,1,63,225,131,1,sixeight,,,,,,,,,,,,,,,,,,,,,,,,,,,,,,,,,,,,,,,,,,,,,,,,,,,,,,,,,,,,,,,,,,,,,,,,,,,,,,,,,,,,,,,,,,,,,,,,,,,,,,,,,,,,,,,,,,,,,,,,,,,,,,,,,,,,,,,,,
,,652dc8973a77e5f1b36d66c4,2024-02-19_13h11.48.904,kallum_motion_pilot,2023.2.2,Win32,59.88023952,652dc8973a77e5f1b36d66c4,65d2b6c8f2eece985d8e374c,65d2b7d9591f1c44e8adc94d,0.1994,0.1995,1,64,226,22,1,fourtwo,,,,,,,,,,,,,,,,,,,,,,,,,,,,,,,,,,,,,,,,,,,,,,,,,,,,,,,,,,,,,,,,,,,,,,,,,,,,,,,,,,,,,,,,,,,,,,,,,,,,,,,,,,,,,,,,,,,,,,,,,,,,,,,,,,,,,,,,,
,,652dc8973a77e5f1b36d66c4,2024-02-19_13h11.48.904,kallum_motion_pilot,2023.2.2,Win32,59.88023952,652dc8973a77e5f1b36d66c4,65d2b6c8f2eece985d8e374c,65d2b7d9591f1c44e8adc94d,0.1997,0.1999,1,65,227,64,1,onetwo,,,,,,,,,,,,,,,,,,,,,,,,,,,,,,,,,,,,,,,,,,,,,,,,,,,,,,,,,,,,,,,,,,,,,,,,,,,,,,,,,,,,,,,,,,,,,,,,,,,,,,,,,,,,,,,,,,,,,,,,,,,,,,,,,,,,,,,,,
,,652dc8973a77e5f1b36d66c4,2024-02-19_13h11.48.904,kallum_motion_pilot,2023.2.2,Win32,59.88023952,652dc8973a77e5f1b36d66c4,65d2b6c8f2eece985d8e374c,65d2b7d9591f1c44e8adc94d,0.2001,0.2003,1,66,228,15,1,fourthree,,,,,,,,,,,,,,,,,,,,,,,,,,,,,,,,,,,,,,,,,,,,,,,,,,,,,,,,,,,,,,,,,,,,,,,,,,,,,,,,,,,,,,,,,,,,,,,,,,,,,,,,,,,,,,,,,,,,,,,,,,,,,,,,,,,,,,,,,
,,652dc8973a77e5f1b36d66c4,2024-02-19_13h11.48.904,kallum_motion_pilot,2023.2.2,Win32,59.88023952,652dc8973a77e5f1b36d66c4,65d2b6c8f2eece985d8e374c,65d2b7d9591f1c44e8adc94d,0.2005,0.2006,1,67,229,98,1,sixfive,,,,,,,,,,,,,,,,,,,,,,,,,,,,,,,,,,,,,,,,,,,,,,,,,,,,,,,,,,,,,,,,,,,,,,,,,,,,,,,,,,,,,,,,,,,,,,,,,,,,,,,,,,,,,,,,,,,,,,,,,,,,,,,,,,,,,,,,,
,,652dc8973a77e5f1b36d66c4,2024-02-19_13h11.48.904,kallum_motion_pilot,2023.2.2,Win32,59.88023952,652dc8973a77e5f1b36d66c4,65d2b6c8f2eece985d8e374c,65d2b7d9591f1c44e8adc94d,0.2008,0.201,1,68,230,72,1,onetwo,,,,,,,,,,,,,,,,,,,,,,,,,,,,,,,,,,,,,,,,,,,,,,,,,,,,,,,,,,,,,,,,,,,,,,,,,,,,,,,,,,,,,,,,,,,,,,,,,,,,,,,,,,,,,,,,,,,,,,,,,,,,,,,,,,,,,,,,,
,,652dc8973a77e5f1b36d66c4,2024-02-19_13h11.48.904,kallum_motion_pilot,2023.2.2,Win32,59.88023952,652dc8973a77e5f1b36d66c4,65d2b6c8f2eece985d8e374c,65d2b7d9591f1c44e8adc94d,0.2012,0.2015,1,69,231,83,1,sixeight,,,,,,,,,,,,,,,,,,,,,,,,,,,,,,,,,,,,,,,,,,,,,,,,,,,,,,,,,,,,,,,,,,,,,,,,,,,,,,,,,,,,,,,,,,,,,,,,,,,,,,,,,,,,,,,,,,,,,,,,,,,,,,,,,,,,,,,,,
,,652dc8973a77e5f1b36d66c4,2024-02-19_13h11.48.904,kallum_motion_pilot,2023.2.2,Win32,59.88023952,652dc8973a77e5f1b36d66c4,65d2b6c8f2eece985d8e374c,65d2b7d9591f1c44e8adc94d,0.2016,0.2018,1,70,232,49,1,onethree,,,,,,,,,,,,,,,,,,,,,,,,,,,,,,,,,,,,,,,,,,,,,,,,,,,,,,,,,,,,,,,,,,,,,,,,,,,,,,,,,,,,,,,,,,,,,,,,,,,,,,,,,,,,,,,,,,,,,,,,,,,,,,,,,,,,,,,,,
,,652dc8973a77e5f1b36d66c4,2024-02-19_13h11.48.904,kallum_motion_pilot,2023.2.2,Win32,59.88023952,652dc8973a77e5f1b36d66c4,65d2b6c8f2eece985d8e374c,65d2b7d9591f1c44e8adc94d,0.202,0.2022,1,71,233,56,1,onetwo,,,,,,,,,,,,,,,,,,,,,,,,,,,,,,,,,,,,,,,,,,,,,,,,,,,,,,,,,,,,,,,,,,,,,,,,,,,,,,,,,,,,,,,,,,,,,,,,,,,,,,,,,,,,,,,,,,,,,,,,,,,,,,,,,,,,,,,,,
,,652dc8973a77e5f1b36d66c4,2024-02-19_13h11.48.904,kallum_motion_pilot,2023.2.2,Win32,59.88023952,652dc8973a77e5f1b36d66c4,65d2b6c8f2eece985d8e374c,65d2b7d9591f1c44e8adc94d,0.2024,0.2027,1,72,234,146,1,sixfive,,,,,,,,,,,,,,,,,,,,,,,,,,,,,,,,,,,,,,,,,,,,,,,,,,,,,,,,,,,,,,,,,,,,,,,,,,,,,,,,,,,,,,,,,,,,,,,,,,,,,,,,,,,,,,,,,,,,,,,,,,,,,,,,,,,,,,,,,
,,652dc8973a77e5f1b36d66c4,2024-02-19_13h11.48.904,kallum_motion_pilot,2023.2.2,Win32,59.88023952,652dc8973a77e5f1b36d66c4,65d2b6c8f2eece985d8e374c,65d2b7d9591f1c44e8adc94d,0.2029,0.2031,1,73,235,103,1,eightseven,,,,,,,,,,,,,,,,,,,,,,,,,,,,,,,,,,,,,,,,,,,,,,,,,,,,,,,,,,,,,,,,,,,,,,,,,,,,,,,,,,,,,,,,,,,,,,,,,,,,,,,,,,,,,,,,,,,,,,,,,,,,,,,,,,,,,,,,,
,,652dc8973a77e5f1b36d66c4,2024-02-19_13h11.48.904,kallum_motion_pilot,2023.2.2,Win32,59.88023952,652dc8973a77e5f1b36d66c4,65d2b6c8f2eece985d8e374c,65d2b7d9591f1c44e8adc94d,0.2033,0.2035,1,74,236,156,1,sevenfive,,,,,,,,,,,,,,,,,,,,,,,,,,,,,,,,,,,,,,,,,,,,,,,,,,,,,,,,,,,,,,,,,,,,,,,,,,,,,,,,,,,,,,,,,,,,,,,,,,,,,,,,,,,,,,,,,,,,,,,,,,,,,,,,,,,,,,,,,
,,652dc8973a77e5f1b36d66c4,2024-02-19_13h11.48.904,kallum_motion_pilot,2023.2.2,Win32,59.88023952,652dc8973a77e5f1b36d66c4,65d2b6c8f2eece985d8e374c,65d2b7d9591f1c44e8adc94d,0.2039,0.2044,1,75,237,53,1,threefour,,,,,,,,,,,,,,,,,,,,,,,,,,,,,,,,,,,,,,,,,,,,,,,,,,,,,,,,,,,,,,,,,,,,,,,,,,,,,,,,,,,,,,,,,,,,,,,,,,,,,,,,,,,,,,,,,,,,,,,,,,,,,,,,,,,,,,,,,
,,652dc8973a77e5f1b36d66c4,2024-02-19_13h11.48.904,kallum_motion_pilot,2023.2.2,Win32,59.88023952,652dc8973a77e5f1b36d66c4,65d2b6c8f2eece985d8e374c,65d2b7d9591f1c44e8adc94d,0.2048,0.2051,1,76,238,154,1,sixfive,,,,,,,,,,,,,,,,,,,,,,,,,,,,,,,,,,,,,,,,,,,,,,,,,,,,,,,,,,,,,,,,,,,,,,,,,,,,,,,,,,,,,,,,,,,,,,,,,,,,,,,,,,,,,,,,,,,,,,,,,,,,,,,,,,,,,,,,,
,,652dc8973a77e5f1b36d66c4,2024-02-19_13h11.48.904,kallum_motion_pilot,2023.2.2,Win32,59.88023952,652dc8973a77e5f1b36d66c4,65d2b6c8f2eece985d8e374c,65d2b7d9591f1c44e8adc94d,0.2054,0.2058,1,77,239,87,1,eightseven,,,,,,,,,,,,,,,,,,,,,,,,,,,,,,,,,,,,,,,,,,,,,,,,,,,,,,,,,,,,,,,,,,,,,,,,,,,,,,,,,,,,,,,,,,,,,,,,,,,,,,,,,,,,,,,,,,,,,,,,,,,,,,,,,,,,,,,,,
,,652dc8973a77e5f1b36d66c4,2024-02-19_13h11.48.904,kallum_motion_pilot,2023.2.2,Win32,59.88023952,652dc8973a77e5f1b36d66c4,65d2b6c8f2eece985d8e374c,65d2b7d9591f1c44e8adc94d,0.2063,0.2066,1,78,240,136,1,fivesix,,,,,,,,,,,,,,,,,,,,,,,,,,,,,,,,,,,,,,,,,,,,,,,,,,,,,,,,,,,,,,,,,,,,,,,,,,,,,,,,,,,,,,,,,,,,,,,,,,,,,,,,,,,,,,,,,,,,,,,,,,,,,,,,,,,,,,,,,
,,652dc8973a77e5f1b36d66c4,2024-02-19_13h11.48.904,kallum_motion_pilot,2023.2.2,Win32,59.88023952,652dc8973a77e5f1b36d66c4,65d2b6c8f2eece985d8e374c,65d2b7d9591f1c44e8adc94d,0.207,0.2073,1,79,241,68,1,threeone,,,,,,,,,,,,,,,,,,,,,,,,,,,,,,,,,,,,,,,,,,,,,,,,,,,,,,,,,,,,,,,,,,,,,,,,,,,,,,,,,,,,,,,,,,,,,,,,,,,,,,,,,,,,,,,,,,,,,,,,,,,,,,,,,,,,,,,,,
,,652dc8973a77e5f1b36d66c4,2024-02-19_13h11.48.904,kallum_motion_pilot,2023.2.2,Win32,59.88023952,652dc8973a77e5f1b36d66c4,65d2b6c8f2eece985d8e374c,65d2b7d9591f1c44e8adc94d,0.2079,0.2083,1,80,242,102,1,eightsix,,,,,,,,,,,,,,,,,,,,,,,,,,,,,,,,,,,,,,,,,,,,,,,,,,,,,,,,,,,,,,,,,,,,,,,,,,,,,,,,,,,,,,,,,,,,,,,,,,,,,,,,,,,,,,,,,,,,,,,,,,,,,,,,,,,,,,,,,
,,652dc8973a77e5f1b36d66c4,2024-02-19_13h11.48.904,kallum_motion_pilot,2023.2.2,Win32,59.88023952,652dc8973a77e5f1b36d66c4,65d2b6c8f2eece985d8e374c,65d2b7d9591f1c44e8adc94d,0.2088,0.2091,1,81,243,134,1,eightsix,,,,,,,,,,,,,,,,,,,,,,,,,,,,,,,,,,,,,,,,,,,,,,,,,,,,,,,,,,,,,,,,,,,,,,,,,,,,,,,,,,,,,,,,,,,,,,,,,,,,,,,,,,,,,,,,,,,,,,,,,,,,,,,,,,,,,,,,,
,,652dc8973a77e5f1b36d66c4,2024-02-19_13h11.48.904,kallum_motion_pilot,2023.2.2,Win32,59.88023952,652dc8973a77e5f1b36d66c4,65d2b6c8f2eece985d8e374c,65d2b7d9591f1c44e8adc94d,0.2097,0.2101,1,82,244,19,1,twofour,,,,,,,,,,,,,,,,,,,,,,,,,,,,,,,,,,,,,,,,,,,,,,,,,,,,,,,,,,,,,,,,,,,,,,,,,,,,,,,,,,,,,,,,,,,,,,,,,,,,,,,,,,,,,,,,,,,,,,,,,,,,,,,,,,,,,,,,,
,,652dc8973a77e5f1b36d66c4,2024-02-19_13h11.48.904,kallum_motion_pilot,2023.2.2,Win32,59.88023952,652dc8973a77e5f1b36d66c4,65d2b6c8f2eece985d8e374c,65d2b7d9591f1c44e8adc94d,0.2107,0.2111,1,83,245,116,1,sevenfive,,,,,,,,,,,,,,,,,,,,,,,,,,,,,,,,,,,,,,,,,,,,,,,,,,,,,,,,,,,,,,,,,,,,,,,,,,,,,,,,,,,,,,,,,,,,,,,,,,,,,,,,,,,,,,,,,,,,,,,,,,,,,,,,,,,,,,,,,
,,652dc8973a77e5f1b36d66c4,2024-02-19_13h11.48.904,kallum_motion_pilot,2023.2.2,Win32,59.88023952,652dc8973a77e5f1b36d66c4,65d2b6c8f2eece985d8e374c,65d2b7d9591f1c44e8adc94d,0.2115,0.2118,1,84,246,144,1,fivesix,,,,,,,,,,,,,,,,,,,,,,,,,,,,,,,,,,,,,,,,,,,,,,,,,,,,,,,,,,,,,,,,,,,,,,,,,,,,,,,,,,,,,,,,,,,,,,,,,,,,,,,,,,,,,,,,,,,,,,,,,,,,,,,,,,,,,,,,,
,,652dc8973a77e5f1b36d66c4,2024-02-19_13h11.48.904,kallum_motion_pilot,2023.2.2,Win32,59.88023952,652dc8973a77e5f1b36d66c4,65d2b6c8f2eece985d8e374c,65d2b7d9591f1c44e8adc94d,0.2121,0.2124,1,85,247,69,1,threefour,,,,,,,,,,,,,,,,,,,,,,,,,,,,,,,,,,,,,,,,,,,,,,,,,,,,,,,,,,,,,,,,,,,,,,,,,,,,,,,,,,,,,,,,,,,,,,,,,,,,,,,,,,,,,,,,,,,,,,,,,,,,,,,,,,,,,,,,,
,,652dc8973a77e5f1b36d66c4,2024-02-19_13h11.48.904,kallum_motion_pilot,2023.2.2,Win32,59.88023952,652dc8973a77e5f1b36d66c4,65d2b6c8f2eece985d8e374c,65d2b7d9591f1c44e8adc94d,0.2126,0.213,1,86,248,23,1,fourthree,,,,,,,,,,,,,,,,,,,,,,,,,,,,,,,,,,,,,,,,,,,,,,,,,,,,,,,,,,,,,,,,,,,,,,,,,,,,,,,,,,,,,,,,,,,,,,,,,,,,,,,,,,,,,,,,,,,,,,,,,,,,,,,,,,,,,,,,,
,,652dc8973a77e5f1b36d66c4,2024-02-19_13h11.48.904,kallum_motion_pilot,2023.2.2,Win32,59.88023952,652dc8973a77e5f1b36d66c4,65d2b6c8f2eece985d8e374c,65d2b7d9591f1c44e8adc94d,0.2132,0.2136,1,87,249,78,1,fourtwo,,,,,,,,,,,,,,,,,,,,,,,,,,,,,,,,,,,,,,,,,,,,,,,,,,,,,,,,,,,,,,,,,,,,,,,,,,,,,,,,,,,,,,,,,,,,,,,,,,,,,,,,,,,,,,,,,,,,,,,,,,,,,,,,,,,,,,,,,
,,652dc8973a77e5f1b36d66c4,2024-02-19_13h11.48.904,kallum_motion_pilot,2023.2.2,Win32,59.88023952,652dc8973a77e5f1b36d66c4,65d2b6c8f2eece985d8e374c,65d2b7d9591f1c44e8adc94d,0.2138,0.2141,1,88,250,92,1,sevenfive,,,,,,,,,,,,,,,,,,,,,,,,,,,,,,,,,,,,,,,,,,,,,,,,,,,,,,,,,,,,,,,,,,,,,,,,,,,,,,,,,,,,,,,,,,,,,,,,,,,,,,,,,,,,,,,,,,,,,,,,,,,,,,,,,,,,,,,,,
,,652dc8973a77e5f1b36d66c4,2024-02-19_13h11.48.904,kallum_motion_pilot,2023.2.2,Win32,59.88023952,652dc8973a77e5f1b36d66c4,65d2b6c8f2eece985d8e374c,65d2b7d9591f1c44e8adc94d,0.2144,0.2147,1,89,251,115,1,sixeight,,,,,,,,,,,,,,,,,,,,,,,,,,,,,,,,,,,,,,,,,,,,,,,,,,,,,,,,,,,,,,,,,,,,,,,,,,,,,,,,,,,,,,,,,,,,,,,,,,,,,,,,,,,,,,,,,,,,,,,,,,,,,,,,,,,,,,,,,
,,652dc8973a77e5f1b36d66c4,2024-02-19_13h11.48.904,kallum_motion_pilot,2023.2.2,Win32,59.88023952,652dc8973a77e5f1b36d66c4,65d2b6c8f2eece985d8e374c,65d2b7d9591f1c44e8adc94d,0.215,0.2154,1,90,252,88,1,fivesix,,,,,,,,,,,,,,,,,,,,,,,,,,,,,,,,,,,,,,,,,,,,,,,,,,,,,,,,,,,,,,,,,,,,,,,,,,,,,,,,,,,,,,,,,,,,,,,,,,,,,,,,,,,,,,,,,,,,,,,,,,,,,,,,,,,,,,,,,
,,652dc8973a77e5f1b36d66c4,2024-02-19_13h11.48.904,kallum_motion_pilot,2023.2.2,Win32,59.88023952,652dc8973a77e5f1b36d66c4,65d2b6c8f2eece985d8e374c,65d2b7d9591f1c44e8adc94d,0.2158,0.2161,1,91,253,26,1,twoone,,,,,,,,,,,,,,,,,,,,,,,,,,,,,,,,,,,,,,,,,,,,,,,,,,,,,,,,,,,,,,,,,,,,,,,,,,,,,,,,,,,,,,,,,,,,,,,,,,,,,,,,,,,,,,,,,,,,,,,,,,,,,,,,,,,,,,,,,
,,652dc8973a77e5f1b36d66c4,2024-02-19_13h11.48.904,kallum_motion_pilot,2023.2.2,Win32,59.88023952,652dc8973a77e5f1b36d66c4,65d2b6c8f2eece985d8e374c,65d2b7d9591f1c44e8adc94d,0.2164,0.2168,1,92,254,129,1,fiveseven,,,,,,,,,,,,,,,,,,,,,,,,,,,,,,,,,,,,,,,,,,,,,,,,,,,,,,,,,,,,,,,,,,,,,,,,,,,,,,,,,,,,,,,,,,,,,,,,,,,,,,,,,,,,,,,,,,,,,,,,,,,,,,,,,,,,,,,,,
,,652dc8973a77e5f1b36d66c4,2024-02-19_13h11.48.904,kallum_motion_pilot,2023.2.2,Win32,59.88023952,652dc8973a77e5f1b36d66c4,65d2b6c8f2eece985d8e374c,65d2b7d9591f1c44e8adc94d,0.2173,0.2177,1,93,255,9,1,onethree,,,,,,,,,,,,,,,,,,,,,,,,,,,,,,,,,,,,,,,,,,,,,,,,,,,,,,,,,,,,,,,,,,,,,,,,,,,,,,,,,,,,,,,,,,,,,,,,,,,,,,,,,,,,,,,,,,,,,,,,,,,,,,,,,,,,,,,,,
,,652dc8973a77e5f1b36d66c4,2024-02-19_13h11.48.904,kallum_motion_pilot,2023.2.2,Win32,59.88023952,652dc8973a77e5f1b36d66c4,65d2b6c8f2eece985d8e374c,65d2b7d9591f1c44e8adc94d,0.2182,0.2185,1,94,256,32,1,onetwo,,,,,,,,,,,,,,,,,,,,,,,,,,,,,,,,,,,,,,,,,,,,,,,,,,,,,,,,,,,,,,,,,,,,,,,,,,,,,,,,,,,,,,,,,,,,,,,,,,,,,,,,,,,,,,,,,,,,,,,,,,,,,,,,,,,,,,,,,
,,652dc8973a77e5f1b36d66c4,2024-02-19_13h11.48.904,kallum_motion_pilot,2023.2.2,Win32,59.88023952,652dc8973a77e5f1b36d66c4,65d2b6c8f2eece985d8e374c,65d2b7d9591f1c44e8adc94d,0.219,0.2193,1,95,257,101,1,seveneight,,,,,,,,,,,,,,,,,,,,,,,,,,,,,,,,,,,,,,,,,,,,,,,,,,,,,,,,,,,,,,,,,,,,,,,,,,,,,,,,,,,,,,,,,,,,,,,,,,,,,,,,,,,,,,,,,,,,,,,,,,,,,,,,,,,,,,,,,
,,652dc8973a77e5f1b36d66c4,2024-02-19_13h11.48.904,kallum_motion_pilot,2023.2.2,Win32,59.88023952,652dc8973a77e5f1b36d66c4,65d2b6c8f2eece985d8e374c,65d2b7d9591f1c44e8adc94d,0.2197,0.22,1,96,258,37,1,threefour,,,,,,,,,,,,,,,,,,,,,,,,,,,,,,,,,,,,,,,,,,,,,,,,,,,,,,,,,,,,,,,,,,,,,,,,,,,,,,,,,,,,,,,,,,,,,,,,,,,,,,,,,,,,,,,,,,,,,,,,,,,,,,,,,,,,,,,,,
,,652dc8973a77e5f1b36d66c4,2024-02-19_13h11.48.904,kallum_motion_pilot,2023.2.2,Win32,59.88023952,652dc8973a77e5f1b36d66c4,65d2b6c8f2eece985d8e374c,65d2b7d9591f1c44e8adc94d,0.2205,0.2211,1,97,259,127,1,eightseven,,,,,,,,,,,,,,,,,,,,,,,,,,,,,,,,,,,,,,,,,,,,,,,,,,,,,,,,,,,,,,,,,,,,,,,,,,,,,,,,,,,,,,,,,,,,,,,,,,,,,,,,,,,,,,,,,,,,,,,,,,,,,,,,,,,,,,,,,
,,652dc8973a77e5f1b36d66c4,2024-02-19_13h11.48.904,kallum_motion_pilot,2023.2.2,Win32,59.88023952,652dc8973a77e5f1b36d66c4,65d2b6c8f2eece985d8e374c,65d2b7d9591f1c44e8adc94d,0.2217,0.2221,1,98,260,109,1,seveneight,,,,,,,,,,,,,,,,,,,,,,,,,,,,,,,,,,,,,,,,,,,,,,,,,,,,,,,,,,,,,,,,,,,,,,,,,,,,,,,,,,,,,,,,,,,,,,,,,,,,,,,,,,,,,,,,,,,,,,,,,,,,,,,,,,,,,,,,,
,,652dc8973a77e5f1b36d66c4,2024-02-19_13h11.48.904,kallum_motion_pilot,2023.2.2,Win32,59.88023952,652dc8973a77e5f1b36d66c4,65d2b6c8f2eece985d8e374c,65d2b7d9591f1c44e8adc94d,0.2227,0.2232,1,99,261,3,1,twofour,,,,,,,,,,,,,,,,,,,,,,,,,,,,,,,,,,,,,,,,,,,,,,,,,,,,,,,,,,,,,,,,,,,,,,,,,,,,,,,,,,,,,,,,,,,,,,,,,,,,,,,,,,,,,,,,,,,,,,,,,,,,,,,,,,,,,,,,,
,,652dc8973a77e5f1b36d66c4,2024-02-19_13h11.48.904,kallum_motion_pilot,2023.2.2,Win32,59.88023952,652dc8973a77e5f1b36d66c4,65d2b6c8f2eece985d8e374c,65d2b7d9591f1c44e8adc94d,0.2238,0.2241,1,100,262,118,1,eightsix,,,,,,,,,,,,,,,,,,,,,,,,,,,,,,,,,,,,,,,,,,,,,,,,,,,,,,,,,,,,,,,,,,,,,,,,,,,,,,,,,,,,,,,,,,,,,,,,,,,,,,,,,,,,,,,,,,,,,,,,,,,,,,,,,,,,,,,,,
,,652dc8973a77e5f1b36d66c4,2024-02-19_13h11.48.904,kallum_motion_pilot,2023.2.2,Win32,59.88023952,652dc8973a77e5f1b36d66c4,65d2b6c8f2eece985d8e374c,65d2b7d9591f1c44e8adc94d,0.2247,0.225,1,101,263,21,1,threefour,,,,,,,,,,,,,,,,,,,,,,,,,,,,,,,,,,,,,,,,,,,,,,,,,,,,,,,,,,,,,,,,,,,,,,,,,,,,,,,,,,,,,,,,,,,,,,,,,,,,,,,,,,,,,,,,,,,,,,,,,,,,,,,,,,,,,,,,,
,,652dc8973a77e5f1b36d66c4,2024-02-19_13h11.48.904,kallum_motion_pilot,2023.2.2,Win32,59.88023952,652dc8973a77e5f1b36d66c4,65d2b6c8f2eece985d8e374c,65d2b7d9591f1c44e8adc94d,0.2255,0.2258,1,102,264,130,1,sixfive,,,,,,,,,,,,,,,,,,,,,,,,,,,,,,,,,,,,,,,,,,,,,,,,,,,,,,,,,,,,,,,,,,,,,,,,,,,,,,,,,,,,,,,,,,,,,,,,,,,,,,,,,,,,,,,,,,,,,,,,,,,,,,,,,,,,,,,,,
,,652dc8973a77e5f1b36d66c4,2024-02-19_13h11.48.904,kallum_motion_pilot,2023.2.2,Win32,59.88023952,652dc8973a77e5f1b36d66c4,65d2b6c8f2eece985d8e374c,65d2b7d9591f1c44e8adc94d,0.2264,0.2268,1,103,265,75,1,twofour,,,,,,,,,,,,,,,,,,,,,,,,,,,,,,,,,,,,,,,,,,,,,,,,,,,,,,,,,,,,,,,,,,,,,,,,,,,,,,,,,,,,,,,,,,,,,,,,,,,,,,,,,,,,,,,,,,,,,,,,,,,,,,,,,,,,,,,,,
,,652dc8973a77e5f1b36d66c4,2024-02-19_13h11.48.904,kallum_motion_pilot,2023.2.2,Win32,59.88023952,652dc8973a77e5f1b36d66c4,65d2b6c8f2eece985d8e374c,65d2b7d9591f1c44e8adc94d,0.2272,0.2275,1,104,266,5,1,threefour,,,,,,,,,,,,,,,,,,,,,,,,,,,,,,,,,,,,,,,,,,,,,,,,,,,,,,,,,,,,,,,,,,,,,,,,,,,,,,,,,,,,,,,,,,,,,,,,,,,,,,,,,,,,,,,,,,,,,,,,,,,,,,,,,,,,,,,,,
,,652dc8973a77e5f1b36d66c4,2024-02-19_13h11.48.904,kallum_motion_pilot,2023.2.2,Win32,59.88023952,652dc8973a77e5f1b36d66c4,65d2b6c8f2eece985d8e374c,65d2b7d9591f1c44e8adc94d,0.2279,0.2283,1,105,267,33,1,onethree,,,,,,,,,,,,,,,,,,,,,,,,,,,,,,,,,,,,,,,,,,,,,,,,,,,,,,,,,,,,,,,,,,,,,,,,,,,,,,,,,,,,,,,,,,,,,,,,,,,,,,,,,,,,,,,,,,,,,,,,,,,,,,,,,,,,,,,,,
,,652dc8973a77e5f1b36d66c4,2024-02-19_13h11.48.904,kallum_motion_pilot,2023.2.2,Win32,59.88023952,652dc8973a77e5f1b36d66c4,65d2b6c8f2eece985d8e374c,65d2b7d9591f1c44e8adc94d,0.2287,0.229,1,106,268,89,1,fiveseven,,,,,,,,,,,,,,,,,,,,,,,,,,,,,,,,,,,,,,,,,,,,,,,,,,,,,,,,,,,,,,,,,,,,,,,,,,,,,,,,,,,,,,,,,,,,,,,,,,,,,,,,,,,,,,,,,,,,,,,,,,,,,,,,,,,,,,,,,
,,652dc8973a77e5f1b36d66c4,2024-02-19_13h11.48.904,kallum_motion_pilot,2023.2.2,Win32,59.88023952,652dc8973a77e5f1b36d66c4,65d2b6c8f2eece985d8e374c,65d2b7d9591f1c44e8adc94d,0.2292,0.2295,1,107,269,110,1,eightsix,,,,,,,,,,,,,,,,,,,,,,,,,,,,,,,,,,,,,,,,,,,,,,,,,,,,,,,,,,,,,,,,,,,,,,,,,,,,,,,,,,,,,,,,,,,,,,,,,,,,,,,,,,,,,,,,,,,,,,,,,,,,,,,,,,,,,,,,,
,,652dc8973a77e5f1b36d66c4,2024-02-19_13h11.48.904,kallum_motion_pilot,2023.2.2,Win32,59.88023952,652dc8973a77e5f1b36d66c4,65d2b6c8f2eece985d8e374c,65d2b7d9591f1c44e8adc94d,0.2299,0.2301,1,108,270,70,1,fourtwo,,,,,,,,,,,,,,,,,,,,,,,,,,,,,,,,,,,,,,,,,,,,,,,,,,,,,,,,,,,,,,,,,,,,,,,,,,,,,,,,,,,,,,,,,,,,,,,,,,,,,,,,,,,,,,,,,,,,,,,,,,,,,,,,,,,,,,,,,
,,652dc8973a77e5f1b36d66c4,2024-02-19_13h11.48.904,kallum_motion_pilot,2023.2.2,Win32,59.88023952,652dc8973a77e5f1b36d66c4,65d2b6c8f2eece985d8e374c,65d2b7d9591f1c44e8adc94d,0.2303,0.2305,1,109,271,125,1,seveneight,,,,,,,,,,,,,,,,,,,,,,,,,,,,,,,,,,,,,,,,,,,,,,,,,,,,,,,,,,,,,,,,,,,,,,,,,,,,,,,,,,,,,,,,,,,,,,,,,,,,,,,,,,,,,,,,,,,,,,,,,,,,,,,,,,,,,,,,,
,,652dc8973a77e5f1b36d66c4,2024-02-19_13h11.48.904,kallum_motion_pilot,2023.2.2,Win32,59.88023952,652dc8973a77e5f1b36d66c4,65d2b6c8f2eece985d8e374c,65d2b7d9591f1c44e8adc94d,0.2308,0.231,1,110,272,153,1,fiveseven,,,,,,,,,,,,,,,,,,,,,,,,,,,,,,,,,,,,,,,,,,,,,,,,,,,,,,,,,,,,,,,,,,,,,,,,,,,,,,,,,,,,,,,,,,,,,,,,,,,,,,,,,,,,,,,,,,,,,,,,,,,,,,,,,,,,,,,,,
,,652dc8973a77e5f1b36d66c4,2024-02-19_13h11.48.904,kallum_motion_pilot,2023.2.2,Win32,59.88023952,652dc8973a77e5f1b36d66c4,65d2b6c8f2eece985d8e374c,65d2b7d9591f1c44e8adc94d,0.2312,0.2314,1,111,273,99,1,sixeight,,,,,,,,,,,,,,,,,,,,,,,,,,,,,,,,,,,,,,,,,,,,,,,,,,,,,,,,,,,,,,,,,,,,,,,,,,,,,,,,,,,,,,,,,,,,,,,,,,,,,,,,,,,,,,,,,,,,,,,,,,,,,,,,,,,,,,,,,
,,652dc8973a77e5f1b36d66c4,2024-02-19_13h11.48.904,kallum_motion_pilot,2023.2.2,Win32,59.88023952,652dc8973a77e5f1b36d66c4,65d2b6c8f2eece985d8e374c,65d2b7d9591f1c44e8adc94d,0.2316,0.2318,1,112,274,17,1,onethree,,,,,,,,,,,,,,,,,,,,,,,,,,,,,,,,,,,,,,,,,,,,,,,,,,,,,,,,,,,,,,,,,,,,,,,,,,,,,,,,,,,,,,,,,,,,,,,,,,,,,,,,,,,,,,,,,,,,,,,,,,,,,,,,,,,,,,,,,
,,652dc8973a77e5f1b36d66c4,2024-02-19_13h11.48.904,kallum_motion_pilot,2023.2.2,Win32,59.88023952,652dc8973a77e5f1b36d66c4,65d2b6c8f2eece985d8e374c,65d2b7d9591f1c44e8adc94d,0.2321,0.2323,1,113,275,29,1,threefour,,,,,,,,,,,,,,,,,,,,,,,,,,,,,,,,,,,,,,,,,,,,,,,,,,,,,,,,,,,,,,,,,,,,,,,,,,,,,,,,,,,,,,,,,,,,,,,,,,,,,,,,,,,,,,,,,,,,,,,,,,,,,,,,,,,,,,,,,
,,652dc8973a77e5f1b36d66c4,2024-02-19_13h11.48.904,kallum_motion_pilot,2023.2.2,Win32,59.88023952,652dc8973a77e5f1b36d66c4,65d2b6c8f2eece985d8e374c,65d2b7d9591f1c44e8adc94d,0.2325,0.2327,1,114,276,13,1,threefour,,,,,,,,,,,,,,,,,,,,,,,,,,,,,,,,,,,,,,,,,,,,,,,,,,,,,,,,,,,,,,,,,,,,,,,,,,,,,,,,,,,,,,,,,,,,,,,,,,,,,,,,,,,,,,,,,,,,,,,,,,,,,,,,,,,,,,,,,
,,652dc8973a77e5f1b36d66c4,2024-02-19_13h11.48.904,kallum_motion_pilot,2023.2.2,Win32,59.88023952,652dc8973a77e5f1b36d66c4,65d2b6c8f2eece985d8e374c,65d2b7d9591f1c44e8adc94d,0.233,0.2332,1,115,277,6,1,fourtwo,,,,,,,,,,,,,,,,,,,,,,,,,,,,,,,,,,,,,,,,,,,,,,,,,,,,,,,,,,,,,,,,,,,,,,,,,,,,,,,,,,,,,,,,,,,,,,,,,,,,,,,,,,,,,,,,,,,,,,,,,,,,,,,,,,,,,,,,,
