startup.started,startup.stopped,Prolific ID*,date,expName,psychopyVersion,OS,frameRate,participant,study_id,session,stimpositions.started,stimpositions.stopped,hardcoded_stimulus_positions.thisRepN,hardcoded_stimulus_positions.thisTrialN,hardcoded_stimulus_positions.thisN,hardcoded_stimulus_positions.thisIndex,hardcoded_stimulus_positions.ran,StimulusPos,stimorientation.started,stimorientation.stopped,prac_stimorientation_import_loop.thisRepN,prac_stimorientation_import_loop.thisTrialN,prac_stimorientation_import_loop.thisN,prac_stimorientation_import_loop.thisIndex,prac_stimorientation_import_loop.ran,Stimorientation,welcome_instr.started,welcome_instr.stopped,key_resp.keys,key_resp.rt,key_resp.duration,response_steppedout_1.started,response_steppedout_1.stopped,key_resp_20.keys,key_resp_20.rt,key_resp_20.duration,response_steppedout_2.started,response_steppedout_2.stopped,key_resp_19.keys,key_resp_19.rt,key_resp_19.duration,stim_response_instr.started,stim_response_instr.stopped,key_resp_15.keys,key_resp_15.rt,key_resp_15.duration,direction_instr_2.started,direction_instr_2.stopped,key_resp_9.keys,key_resp_9.rt,key_resp_9.duration,instr_prac.started,instr_prac.stopped,key_resp_10.keys,key_resp_10.rt,key_resp_10.duration,Stim1_display_prac.started,Stim1_display_prac.stopped,Ecc,Circle1_ori,Circle2_ori,response_prac.started,similarity,response_time,response_prac.stopped,mouse_5.x,mouse_5.y,mouse_5.leftButton,mouse_5.midButton,mouse_5.rightButton,mouse_5.clicked_name,responseprac_feedback.started,responseprac_feedback.stopped,summary2_prac.started,summary2_prac.stopped,mouse_6.x,mouse_6.y,mouse_6.leftButton,mouse_6.midButton,mouse_6.rightButton,mouse_6.clicked_name,duringprac.thisRepN,duringprac.thisTrialN,duringprac.thisN,duringprac.thisIndex,duringprac.ran,begin.started,begin.stopped,key_resp_22.keys,key_resp_22.rt,key_resp_22.duration,Stim1_display.started,Stim1_display.stopped,circle1_ori,circle2_ori,circle1_SF,circle2_SF,response.started,response.stopped,mouse.x,mouse.y,mouse.leftButton,mouse.midButton,mouse.rightButton,mouse.clicked_name,trialnumber,double_pass.thisRepN,double_pass.thisTrialN,double_pass.thisN,double_pass.thisIndex,double_pass.ran,double_pass.order,main_trial.thisRepN,main_trial.thisTrialN,main_trial.thisN,main_trial.thisIndex,main_trial.ran,main_trial.order,Trial_Counter,Catch,Frequencies,response_2.started,response_2.stopped,mouse_2.x,mouse_2.y,mouse_2.leftButton,mouse_2.midButton,mouse_2.rightButton,mouse_2.clicked_name,special_trial.started,special_trial.stopped,catch_1.started,catch_1.stopped,mouse_3.x,mouse_3.y,mouse_3.leftButton,mouse_3.midButton,mouse_3.rightButton,catchresponse,catchnumber,response_time_catch,response_sum.started,response_sum.stopped,mouse_11.x,mouse_11.y,mouse_11.leftButton,mouse_11.midButton,mouse_11.rightButton,flip_presentation_sequence_for_double_pass.started,flip_presentation_sequence_for_double_pass.stopped,goodbye.started,goodbye.stopped,key_resp_3.keys,key_resp_3.rt,key_resp_3.duration
0.0011,0.0014,65490721984504b8f8c9d175,2024-02-19_02h07.56.464,kallum_motion_pilot,2023.2.2,Win32,11.04972376,65490721984504b8f8c9d175,65d2b6c8f2eece985d8e374c,65d2b7bd96fa611396bffafb,,,,,,,,,,,,,,,,,,,,,,,,,,,,,,,,,,,,,,,,,,,,,,,,,,,,,,,,,,,,,,,,,,,,,,,,,,,,,,,,,,,,,,,,,,,,,,,,,,,,,,,,,,,,,,,,,,,,,,,,,,,,,,,,,,,,,,,,,,,,,,,,,
,,65490721984504b8f8c9d175,2024-02-19_02h07.56.464,kallum_motion_pilot,2023.2.2,Win32,11.04972376,65490721984504b8f8c9d175,65d2b6c8f2eece985d8e374c,65d2b7bd96fa611396bffafb,0.0655,0.0659,0,0,0,74,1,twoone,,,,,,,,,,,,,,,,,,,,,,,,,,,,,,,,,,,,,,,,,,,,,,,,,,,,,,,,,,,,,,,,,,,,,,,,,,,,,,,,,,,,,,,,,,,,,,,,,,,,,,,,,,,,,,,,,,,,,,,,,,,,,,,,,,,,,,,,,
,,65490721984504b8f8c9d175,2024-02-19_02h07.56.464,kallum_motion_pilot,2023.2.2,Win32,11.04972376,65490721984504b8f8c9d175,65d2b6c8f2eece985d8e374c,65d2b7bd96fa611396bffafb,0.0665,0.0666,0,1,1,126,1,eightsix,,,,,,,,,,,,,,,,,,,,,,,,,,,,,,,,,,,,,,,,,,,,,,,,,,,,,,,,,,,,,,,,,,,,,,,,,,,,,,,,,,,,,,,,,,,,,,,,,,,,,,,,,,,,,,,,,,,,,,,,,,,,,,,,,,,,,,,,,
,,65490721984504b8f8c9d175,2024-02-19_02h07.56.464,kallum_motion_pilot,2023.2.2,Win32,11.04972376,65490721984504b8f8c9d175,65d2b6c8f2eece985d8e374c,65d2b7bd96fa611396bffafb,0.0668,0.067,0,2,2,56,1,onetwo,,,,,,,,,,,,,,,,,,,,,,,,,,,,,,,,,,,,,,,,,,,,,,,,,,,,,,,,,,,,,,,,,,,,,,,,,,,,,,,,,,,,,,,,,,,,,,,,,,,,,,,,,,,,,,,,,,,,,,,,,,,,,,,,,,,,,,,,,
,,65490721984504b8f8c9d175,2024-02-19_02h07.56.464,kallum_motion_pilot,2023.2.2,Win32,11.04972376,65490721984504b8f8c9d175,65d2b6c8f2eece985d8e374c,65d2b7bd96fa611396bffafb,0.0673,0.0674,0,3,3,119,1,eightseven,,,,,,,,,,,,,,,,,,,,,,,,,,,,,,,,,,,,,,,,,,,,,,,,,,,,,,,,,,,,,,,,,,,,,,,,,,,,,,,,,,,,,,,,,,,,,,,,,,,,,,,,,,,,,,,,,,,,,,,,,,,,,,,,,,,,,,,,,
,,65490721984504b8f8c9d175,2024-02-19_02h07.56.464,kallum_motion_pilot,2023.2.2,Win32,11.04972376,65490721984504b8f8c9d175,65d2b6c8f2eece985d8e374c,65d2b7bd96fa611396bffafb,0.0676,0.0677,0,4,4,113,1,fiveseven,,,,,,,,,,,,,,,,,,,,,,,,,,,,,,,,,,,,,,,,,,,,,,,,,,,,,,,,,,,,,,,,,,,,,,,,,,,,,,,,,,,,,,,,,,,,,,,,,,,,,,,,,,,,,,,,,,,,,,,,,,,,,,,,,,,,,,,,,
,,65490721984504b8f8c9d175,2024-02-19_02h07.56.464,kallum_motion_pilot,2023.2.2,Win32,11.04972376,65490721984504b8f8c9d175,65d2b6c8f2eece985d8e374c,65d2b7bd96fa611396bffafb,0.0679,0.0679,0,5,5,144,1,fivesix,,,,,,,,,,,,,,,,,,,,,,,,,,,,,,,,,,,,,,,,,,,,,,,,,,,,,,,,,,,,,,,,,,,,,,,,,,,,,,,,,,,,,,,,,,,,,,,,,,,,,,,,,,,,,,,,,,,,,,,,,,,,,,,,,,,,,,,,,
,,65490721984504b8f8c9d175,2024-02-19_02h07.56.464,kallum_motion_pilot,2023.2.2,Win32,11.04972376,65490721984504b8f8c9d175,65d2b6c8f2eece985d8e374c,65d2b7bd96fa611396bffafb,0.068,0.0682,0,6,6,161,1,fiveseven,,,,,,,,,,,,,,,,,,,,,,,,,,,,,,,,,,,,,,,,,,,,,,,,,,,,,,,,,,,,,,,,,,,,,,,,,,,,,,,,,,,,,,,,,,,,,,,,,,,,,,,,,,,,,,,,,,,,,,,,,,,,,,,,,,,,,,,,,
,,65490721984504b8f8c9d175,2024-02-19_02h07.56.464,kallum_motion_pilot,2023.2.2,Win32,11.04972376,65490721984504b8f8c9d175,65d2b6c8f2eece985d8e374c,65d2b7bd96fa611396bffafb,0.0683,0.0684,0,7,7,151,1,eightseven,,,,,,,,,,,,,,,,,,,,,,,,,,,,,,,,,,,,,,,,,,,,,,,,,,,,,,,,,,,,,,,,,,,,,,,,,,,,,,,,,,,,,,,,,,,,,,,,,,,,,,,,,,,,,,,,,,,,,,,,,,,,,,,,,,,,,,,,,
,,65490721984504b8f8c9d175,2024-02-19_02h07.56.464,kallum_motion_pilot,2023.2.2,Win32,11.04972376,65490721984504b8f8c9d175,65d2b6c8f2eece985d8e374c,65d2b7bd96fa611396bffafb,0.0688,0.0689,0,8,8,96,1,fivesix,,,,,,,,,,,,,,,,,,,,,,,,,,,,,,,,,,,,,,,,,,,,,,,,,,,,,,,,,,,,,,,,,,,,,,,,,,,,,,,,,,,,,,,,,,,,,,,,,,,,,,,,,,,,,,,,,,,,,,,,,,,,,,,,,,,,,,,,,
,,65490721984504b8f8c9d175,2024-02-19_02h07.56.464,kallum_motion_pilot,2023.2.2,Win32,11.04972376,65490721984504b8f8c9d175,65d2b6c8f2eece985d8e374c,65d2b7bd96fa611396bffafb,0.0692,0.0693,0,9,9,46,1,fourtwo,,,,,,,,,,,,,,,,,,,,,,,,,,,,,,,,,,,,,,,,,,,,,,,,,,,,,,,,,,,,,,,,,,,,,,,,,,,,,,,,,,,,,,,,,,,,,,,,,,,,,,,,,,,,,,,,,,,,,,,,,,,,,,,,,,,,,,,,,
,,65490721984504b8f8c9d175,2024-02-19_02h07.56.464,kallum_motion_pilot,2023.2.2,Win32,11.04972376,65490721984504b8f8c9d175,65d2b6c8f2eece985d8e374c,65d2b7bd96fa611396bffafb,0.0694,0.0696,0,10,10,106,1,sixfive,,,,,,,,,,,,,,,,,,,,,,,,,,,,,,,,,,,,,,,,,,,,,,,,,,,,,,,,,,,,,,,,,,,,,,,,,,,,,,,,,,,,,,,,,,,,,,,,,,,,,,,,,,,,,,,,,,,,,,,,,,,,,,,,,,,,,,,,,
,,65490721984504b8f8c9d175,2024-02-19_02h07.56.464,kallum_motion_pilot,2023.2.2,Win32,11.04972376,65490721984504b8f8c9d175,65d2b6c8f2eece985d8e374c,65d2b7bd96fa611396bffafb,0.0697,0.0698,0,11,11,134,1,eightsix,,,,,,,,,,,,,,,,,,,,,,,,,,,,,,,,,,,,,,,,,,,,,,,,,,,,,,,,,,,,,,,,,,,,,,,,,,,,,,,,,,,,,,,,,,,,,,,,,,,,,,,,,,,,,,,,,,,,,,,,,,,,,,,,,,,,,,,,,
,,65490721984504b8f8c9d175,2024-02-19_02h07.56.464,kallum_motion_pilot,2023.2.2,Win32,11.04972376,65490721984504b8f8c9d175,65d2b6c8f2eece985d8e374c,65d2b7bd96fa611396bffafb,0.0699,0.0699,0,12,12,84,1,sevenfive,,,,,,,,,,,,,,,,,,,,,,,,,,,,,,,,,,,,,,,,,,,,,,,,,,,,,,,,,,,,,,,,,,,,,,,,,,,,,,,,,,,,,,,,,,,,,,,,,,,,,,,,,,,,,,,,,,,,,,,,,,,,,,,,,,,,,,,,,
,,65490721984504b8f8c9d175,2024-02-19_02h07.56.464,kallum_motion_pilot,2023.2.2,Win32,11.04972376,65490721984504b8f8c9d175,65d2b6c8f2eece985d8e374c,65d2b7bd96fa611396bffafb,0.0701,0.0701,0,13,13,11,1,twofour,,,,,,,,,,,,,,,,,,,,,,,,,,,,,,,,,,,,,,,,,,,,,,,,,,,,,,,,,,,,,,,,,,,,,,,,,,,,,,,,,,,,,,,,,,,,,,,,,,,,,,,,,,,,,,,,,,,,,,,,,,,,,,,,,,,,,,,,,
,,65490721984504b8f8c9d175,2024-02-19_02h07.56.464,kallum_motion_pilot,2023.2.2,Win32,11.04972376,65490721984504b8f8c9d175,65d2b6c8f2eece985d8e374c,65d2b7bd96fa611396bffafb,0.0703,0.0703,0,14,14,89,1,fiveseven,,,,,,,,,,,,,,,,,,,,,,,,,,,,,,,,,,,,,,,,,,,,,,,,,,,,,,,,,,,,,,,,,,,,,,,,,,,,,,,,,,,,,,,,,,,,,,,,,,,,,,,,,,,,,,,,,,,,,,,,,,,,,,,,,,,,,,,,,
,,65490721984504b8f8c9d175,2024-02-19_02h07.56.464,kallum_motion_pilot,2023.2.2,Win32,11.04972376,65490721984504b8f8c9d175,65d2b6c8f2eece985d8e374c,65d2b7bd96fa611396bffafb,0.0705,0.0705,0,15,15,154,1,sixfive,,,,,,,,,,,,,,,,,,,,,,,,,,,,,,,,,,,,,,,,,,,,,,,,,,,,,,,,,,,,,,,,,,,,,,,,,,,,,,,,,,,,,,,,,,,,,,,,,,,,,,,,,,,,,,,,,,,,,,,,,,,,,,,,,,,,,,,,,
,,65490721984504b8f8c9d175,2024-02-19_02h07.56.464,kallum_motion_pilot,2023.2.2,Win32,11.04972376,65490721984504b8f8c9d175,65d2b6c8f2eece985d8e374c,65d2b7bd96fa611396bffafb,0.0707,0.0707,0,16,16,13,1,threefour,,,,,,,,,,,,,,,,,,,,,,,,,,,,,,,,,,,,,,,,,,,,,,,,,,,,,,,,,,,,,,,,,,,,,,,,,,,,,,,,,,,,,,,,,,,,,,,,,,,,,,,,,,,,,,,,,,,,,,,,,,,,,,,,,,,,,,,,,
,,65490721984504b8f8c9d175,2024-02-19_02h07.56.464,kallum_motion_pilot,2023.2.2,Win32,11.04972376,65490721984504b8f8c9d175,65d2b6c8f2eece985d8e374c,65d2b7bd96fa611396bffafb,0.0708,0.0709,0,17,17,10,1,twoone,,,,,,,,,,,,,,,,,,,,,,,,,,,,,,,,,,,,,,,,,,,,,,,,,,,,,,,,,,,,,,,,,,,,,,,,,,,,,,,,,,,,,,,,,,,,,,,,,,,,,,,,,,,,,,,,,,,,,,,,,,,,,,,,,,,,,,,,,
,,65490721984504b8f8c9d175,2024-02-19_02h07.56.464,kallum_motion_pilot,2023.2.2,Win32,11.04972376,65490721984504b8f8c9d175,65d2b6c8f2eece985d8e374c,65d2b7bd96fa611396bffafb,0.0713,0.0716,0,18,18,43,1,twofour,,,,,,,,,,,,,,,,,,,,,,,,,,,,,,,,,,,,,,,,,,,,,,,,,,,,,,,,,,,,,,,,,,,,,,,,,,,,,,,,,,,,,,,,,,,,,,,,,,,,,,,,,,,,,,,,,,,,,,,,,,,,,,,,,,,,,,,,,
,,65490721984504b8f8c9d175,2024-02-19_02h07.56.464,kallum_motion_pilot,2023.2.2,Win32,11.04972376,65490721984504b8f8c9d175,65d2b6c8f2eece985d8e374c,65d2b7bd96fa611396bffafb,0.072,0.0722,0,19,19,105,1,fiveseven,,,,,,,,,,,,,,,,,,,,,,,,,,,,,,,,,,,,,,,,,,,,,,,,,,,,,,,,,,,,,,,,,,,,,,,,,,,,,,,,,,,,,,,,,,,,,,,,,,,,,,,,,,,,,,,,,,,,,,,,,,,,,,,,,,,,,,,,,
,,65490721984504b8f8c9d175,2024-02-19_02h07.56.464,kallum_motion_pilot,2023.2.2,Win32,11.04972376,65490721984504b8f8c9d175,65d2b6c8f2eece985d8e374c,65d2b7bd96fa611396bffafb,0.0725,0.0727,0,20,20,2,1,twoone,,,,,,,,,,,,,,,,,,,,,,,,,,,,,,,,,,,,,,,,,,,,,,,,,,,,,,,,,,,,,,,,,,,,,,,,,,,,,,,,,,,,,,,,,,,,,,,,,,,,,,,,,,,,,,,,,,,,,,,,,,,,,,,,,,,,,,,,,
,,65490721984504b8f8c9d175,2024-02-19_02h07.56.464,kallum_motion_pilot,2023.2.2,Win32,11.04972376,65490721984504b8f8c9d175,65d2b6c8f2eece985d8e374c,65d2b7bd96fa611396bffafb,0.0729,0.073,0,21,21,68,1,threeone,,,,,,,,,,,,,,,,,,,,,,,,,,,,,,,,,,,,,,,,,,,,,,,,,,,,,,,,,,,,,,,,,,,,,,,,,,,,,,,,,,,,,,,,,,,,,,,,,,,,,,,,,,,,,,,,,,,,,,,,,,,,,,,,,,,,,,,,,
,,65490721984504b8f8c9d175,2024-02-19_02h07.56.464,kallum_motion_pilot,2023.2.2,Win32,11.04972376,65490721984504b8f8c9d175,65d2b6c8f2eece985d8e374c,65d2b7bd96fa611396bffafb,0.0732,0.0734,0,22,22,122,1,sixfive,,,,,,,,,,,,,,,,,,,,,,,,,,,,,,,,,,,,,,,,,,,,,,,,,,,,,,,,,,,,,,,,,,,,,,,,,,,,,,,,,,,,,,,,,,,,,,,,,,,,,,,,,,,,,,,,,,,,,,,,,,,,,,,,,,,,,,,,,
,,65490721984504b8f8c9d175,2024-02-19_02h07.56.464,kallum_motion_pilot,2023.2.2,Win32,11.04972376,65490721984504b8f8c9d175,65d2b6c8f2eece985d8e374c,65d2b7bd96fa611396bffafb,0.0736,0.0737,0,23,23,109,1,seveneight,,,,,,,,,,,,,,,,,,,,,,,,,,,,,,,,,,,,,,,,,,,,,,,,,,,,,,,,,,,,,,,,,,,,,,,,,,,,,,,,,,,,,,,,,,,,,,,,,,,,,,,,,,,,,,,,,,,,,,,,,,,,,,,,,,,,,,,,,
,,65490721984504b8f8c9d175,2024-02-19_02h07.56.464,kallum_motion_pilot,2023.2.2,Win32,11.04972376,65490721984504b8f8c9d175,65d2b6c8f2eece985d8e374c,65d2b7bd96fa611396bffafb,0.074,0.0741,0,24,24,17,1,onethree,,,,,,,,,,,,,,,,,,,,,,,,,,,,,,,,,,,,,,,,,,,,,,,,,,,,,,,,,,,,,,,,,,,,,,,,,,,,,,,,,,,,,,,,,,,,,,,,,,,,,,,,,,,,,,,,,,,,,,,,,,,,,,,,,,,,,,,,,
,,65490721984504b8f8c9d175,2024-02-19_02h07.56.464,kallum_motion_pilot,2023.2.2,Win32,11.04972376,65490721984504b8f8c9d175,65d2b6c8f2eece985d8e374c,65d2b7bd96fa611396bffafb,0.0743,0.0745,0,25,25,38,1,fourtwo,,,,,,,,,,,,,,,,,,,,,,,,,,,,,,,,,,,,,,,,,,,,,,,,,,,,,,,,,,,,,,,,,,,,,,,,,,,,,,,,,,,,,,,,,,,,,,,,,,,,,,,,,,,,,,,,,,,,,,,,,,,,,,,,,,,,,,,,,
,,65490721984504b8f8c9d175,2024-02-19_02h07.56.464,kallum_motion_pilot,2023.2.2,Win32,11.04972376,65490721984504b8f8c9d175,65d2b6c8f2eece985d8e374c,65d2b7bd96fa611396bffafb,0.0747,0.0748,0,26,26,8,1,onetwo,,,,,,,,,,,,,,,,,,,,,,,,,,,,,,,,,,,,,,,,,,,,,,,,,,,,,,,,,,,,,,,,,,,,,,,,,,,,,,,,,,,,,,,,,,,,,,,,,,,,,,,,,,,,,,,,,,,,,,,,,,,,,,,,,,,,,,,,,
,,65490721984504b8f8c9d175,2024-02-19_02h07.56.464,kallum_motion_pilot,2023.2.2,Win32,11.04972376,65490721984504b8f8c9d175,65d2b6c8f2eece985d8e374c,65d2b7bd96fa611396bffafb,0.0751,0.0752,0,27,27,15,1,fourthree,,,,,,,,,,,,,,,,,,,,,,,,,,,,,,,,,,,,,,,,,,,,,,,,,,,,,,,,,,,,,,,,,,,,,,,,,,,,,,,,,,,,,,,,,,,,,,,,,,,,,,,,,,,,,,,,,,,,,,,,,,,,,,,,,,,,,,,,,
,,65490721984504b8f8c9d175,2024-02-19_02h07.56.464,kallum_motion_pilot,2023.2.2,Win32,11.04972376,65490721984504b8f8c9d175,65d2b6c8f2eece985d8e374c,65d2b7bd96fa611396bffafb,0.0754,0.0755,0,28,28,130,1,sixfive,,,,,,,,,,,,,,,,,,,,,,,,,,,,,,,,,,,,,,,,,,,,,,,,,,,,,,,,,,,,,,,,,,,,,,,,,,,,,,,,,,,,,,,,,,,,,,,,,,,,,,,,,,,,,,,,,,,,,,,,,,,,,,,,,,,,,,,,,
,,65490721984504b8f8c9d175,2024-02-19_02h07.56.464,kallum_motion_pilot,2023.2.2,Win32,11.04972376,65490721984504b8f8c9d175,65d2b6c8f2eece985d8e374c,65d2b7bd96fa611396bffafb,0.0758,0.0758,0,29,29,129,1,fiveseven,,,,,,,,,,,,,,,,,,,,,,,,,,,,,,,,,,,,,,,,,,,,,,,,,,,,,,,,,,,,,,,,,,,,,,,,,,,,,,,,,,,,,,,,,,,,,,,,,,,,,,,,,,,,,,,,,,,,,,,,,,,,,,,,,,,,,,,,,
,,65490721984504b8f8c9d175,2024-02-19_02h07.56.464,kallum_motion_pilot,2023.2.2,Win32,11.04972376,65490721984504b8f8c9d175,65d2b6c8f2eece985d8e374c,65d2b7bd96fa611396bffafb,0.0761,0.0762,0,30,30,28,1,threeone,,,,,,,,,,,,,,,,,,,,,,,,,,,,,,,,,,,,,,,,,,,,,,,,,,,,,,,,,,,,,,,,,,,,,,,,,,,,,,,,,,,,,,,,,,,,,,,,,,,,,,,,,,,,,,,,,,,,,,,,,,,,,,,,,,,,,,,,,
,,65490721984504b8f8c9d175,2024-02-19_02h07.56.464,kallum_motion_pilot,2023.2.2,Win32,11.04972376,65490721984504b8f8c9d175,65d2b6c8f2eece985d8e374c,65d2b7bd96fa611396bffafb,0.0764,0.0765,0,31,31,72,1,onetwo,,,,,,,,,,,,,,,,,,,,,,,,,,,,,,,,,,,,,,,,,,,,,,,,,,,,,,,,,,,,,,,,,,,,,,,,,,,,,,,,,,,,,,,,,,,,,,,,,,,,,,,,,,,,,,,,,,,,,,,,,,,,,,,,,,,,,,,,,
,,65490721984504b8f8c9d175,2024-02-19_02h07.56.464,kallum_motion_pilot,2023.2.2,Win32,11.04972376,65490721984504b8f8c9d175,65d2b6c8f2eece985d8e374c,65d2b7bd96fa611396bffafb,0.0768,0.0768,0,32,32,99,1,sixeight,,,,,,,,,,,,,,,,,,,,,,,,,,,,,,,,,,,,,,,,,,,,,,,,,,,,,,,,,,,,,,,,,,,,,,,,,,,,,,,,,,,,,,,,,,,,,,,,,,,,,,,,,,,,,,,,,,,,,,,,,,,,,,,,,,,,,,,,,
,,65490721984504b8f8c9d175,2024-02-19_02h07.56.464,kallum_motion_pilot,2023.2.2,Win32,11.04972376,65490721984504b8f8c9d175,65d2b6c8f2eece985d8e374c,65d2b7bd96fa611396bffafb,0.0771,0.0773,0,33,33,76,1,threeone,,,,,,,,,,,,,,,,,,,,,,,,,,,,,,,,,,,,,,,,,,,,,,,,,,,,,,,,,,,,,,,,,,,,,,,,,,,,,,,,,,,,,,,,,,,,,,,,,,,,,,,,,,,,,,,,,,,,,,,,,,,,,,,,,,,,,,,,,
,,65490721984504b8f8c9d175,2024-02-19_02h07.56.464,kallum_motion_pilot,2023.2.2,Win32,11.04972376,65490721984504b8f8c9d175,65d2b6c8f2eece985d8e374c,65d2b7bd96fa611396bffafb,0.0775,0.0776,0,34,34,78,1,fourtwo,,,,,,,,,,,,,,,,,,,,,,,,,,,,,,,,,,,,,,,,,,,,,,,,,,,,,,,,,,,,,,,,,,,,,,,,,,,,,,,,,,,,,,,,,,,,,,,,,,,,,,,,,,,,,,,,,,,,,,,,,,,,,,,,,,,,,,,,,
,,65490721984504b8f8c9d175,2024-02-19_02h07.56.464,kallum_motion_pilot,2023.2.2,Win32,11.04972376,65490721984504b8f8c9d175,65d2b6c8f2eece985d8e374c,65d2b7bd96fa611396bffafb,0.0778,0.0779,0,35,35,157,1,seveneight,,,,,,,,,,,,,,,,,,,,,,,,,,,,,,,,,,,,,,,,,,,,,,,,,,,,,,,,,,,,,,,,,,,,,,,,,,,,,,,,,,,,,,,,,,,,,,,,,,,,,,,,,,,,,,,,,,,,,,,,,,,,,,,,,,,,,,,,,
,,65490721984504b8f8c9d175,2024-02-19_02h07.56.464,kallum_motion_pilot,2023.2.2,Win32,11.04972376,65490721984504b8f8c9d175,65d2b6c8f2eece985d8e374c,65d2b7bd96fa611396bffafb,0.0782,0.0784,0,36,36,51,1,twofour,,,,,,,,,,,,,,,,,,,,,,,,,,,,,,,,,,,,,,,,,,,,,,,,,,,,,,,,,,,,,,,,,,,,,,,,,,,,,,,,,,,,,,,,,,,,,,,,,,,,,,,,,,,,,,,,,,,,,,,,,,,,,,,,,,,,,,,,,
,,65490721984504b8f8c9d175,2024-02-19_02h07.56.464,kallum_motion_pilot,2023.2.2,Win32,11.04972376,65490721984504b8f8c9d175,65d2b6c8f2eece985d8e374c,65d2b7bd96fa611396bffafb,0.079,0.079,0,37,37,63,1,fourthree,,,,,,,,,,,,,,,,,,,,,,,,,,,,,,,,,,,,,,,,,,,,,,,,,,,,,,,,,,,,,,,,,,,,,,,,,,,,,,,,,,,,,,,,,,,,,,,,,,,,,,,,,,,,,,,,,,,,,,,,,,,,,,,,,,,,,,,,,
,,65490721984504b8f8c9d175,2024-02-19_02h07.56.464,kallum_motion_pilot,2023.2.2,Win32,11.04972376,65490721984504b8f8c9d175,65d2b6c8f2eece985d8e374c,65d2b7bd96fa611396bffafb,0.0794,0.0795,0,38,38,137,1,fiveseven,,,,,,,,,,,,,,,,,,,,,,,,,,,,,,,,,,,,,,,,,,,,,,,,,,,,,,,,,,,,,,,,,,,,,,,,,,,,,,,,,,,,,,,,,,,,,,,,,,,,,,,,,,,,,,,,,,,,,,,,,,,,,,,,,,,,,,,,,
,,65490721984504b8f8c9d175,2024-02-19_02h07.56.464,kallum_motion_pilot,2023.2.2,Win32,11.04972376,65490721984504b8f8c9d175,65d2b6c8f2eece985d8e374c,65d2b7bd96fa611396bffafb,0.0798,0.0799,0,39,39,91,1,sixeight,,,,,,,,,,,,,,,,,,,,,,,,,,,,,,,,,,,,,,,,,,,,,,,,,,,,,,,,,,,,,,,,,,,,,,,,,,,,,,,,,,,,,,,,,,,,,,,,,,,,,,,,,,,,,,,,,,,,,,,,,,,,,,,,,,,,,,,,,
,,65490721984504b8f8c9d175,2024-02-19_02h07.56.464,kallum_motion_pilot,2023.2.2,Win32,11.04972376,65490721984504b8f8c9d175,65d2b6c8f2eece985d8e374c,65d2b7bd96fa611396bffafb,0.0801,0.0801,0,40,40,60,1,threeone,,,,,,,,,,,,,,,,,,,,,,,,,,,,,,,,,,,,,,,,,,,,,,,,,,,,,,,,,,,,,,,,,,,,,,,,,,,,,,,,,,,,,,,,,,,,,,,,,,,,,,,,,,,,,,,,,,,,,,,,,,,,,,,,,,,,,,,,,
,,65490721984504b8f8c9d175,2024-02-19_02h07.56.464,kallum_motion_pilot,2023.2.2,Win32,11.04972376,65490721984504b8f8c9d175,65d2b6c8f2eece985d8e374c,65d2b7bd96fa611396bffafb,0.0806,0.0808,0,41,41,142,1,eightsix,,,,,,,,,,,,,,,,,,,,,,,,,,,,,,,,,,,,,,,,,,,,,,,,,,,,,,,,,,,,,,,,,,,,,,,,,,,,,,,,,,,,,,,,,,,,,,,,,,,,,,,,,,,,,,,,,,,,,,,,,,,,,,,,,,,,,,,,,
,,65490721984504b8f8c9d175,2024-02-19_02h07.56.464,kallum_motion_pilot,2023.2.2,Win32,11.04972376,65490721984504b8f8c9d175,65d2b6c8f2eece985d8e374c,65d2b7bd96fa611396bffafb,0.0811,0.0814,0,42,42,128,1,fivesix,,,,,,,,,,,,,,,,,,,,,,,,,,,,,,,,,,,,,,,,,,,,,,,,,,,,,,,,,,,,,,,,,,,,,,,,,,,,,,,,,,,,,,,,,,,,,,,,,,,,,,,,,,,,,,,,,,,,,,,,,,,,,,,,,,,,,,,,,
,,65490721984504b8f8c9d175,2024-02-19_02h07.56.464,kallum_motion_pilot,2023.2.2,Win32,11.04972376,65490721984504b8f8c9d175,65d2b6c8f2eece985d8e374c,65d2b7bd96fa611396bffafb,0.0819,0.082,0,43,43,57,1,onethree,,,,,,,,,,,,,,,,,,,,,,,,,,,,,,,,,,,,,,,,,,,,,,,,,,,,,,,,,,,,,,,,,,,,,,,,,,,,,,,,,,,,,,,,,,,,,,,,,,,,,,,,,,,,,,,,,,,,,,,,,,,,,,,,,,,,,,,,,
,,65490721984504b8f8c9d175,2024-02-19_02h07.56.464,kallum_motion_pilot,2023.2.2,Win32,11.04972376,65490721984504b8f8c9d175,65d2b6c8f2eece985d8e374c,65d2b7bd96fa611396bffafb,0.0822,0.0822,0,44,44,14,1,fourtwo,,,,,,,,,,,,,,,,,,,,,,,,,,,,,,,,,,,,,,,,,,,,,,,,,,,,,,,,,,,,,,,,,,,,,,,,,,,,,,,,,,,,,,,,,,,,,,,,,,,,,,,,,,,,,,,,,,,,,,,,,,,,,,,,,,,,,,,,,
,,65490721984504b8f8c9d175,2024-02-19_02h07.56.464,kallum_motion_pilot,2023.2.2,Win32,11.04972376,65490721984504b8f8c9d175,65d2b6c8f2eece985d8e374c,65d2b7bd96fa611396bffafb,0.0824,0.0826,0,45,45,90,1,sixfive,,,,,,,,,,,,,,,,,,,,,,,,,,,,,,,,,,,,,,,,,,,,,,,,,,,,,,,,,,,,,,,,,,,,,,,,,,,,,,,,,,,,,,,,,,,,,,,,,,,,,,,,,,,,,,,,,,,,,,,,,,,,,,,,,,,,,,,,,
,,65490721984504b8f8c9d175,2024-02-19_02h07.56.464,kallum_motion_pilot,2023.2.2,Win32,11.04972376,65490721984504b8f8c9d175,65d2b6c8f2eece985d8e374c,65d2b7bd96fa611396bffafb,0.0827,0.0828,0,46,46,71,1,fourthree,,,,,,,,,,,,,,,,,,,,,,,,,,,,,,,,,,,,,,,,,,,,,,,,,,,,,,,,,,,,,,,,,,,,,,,,,,,,,,,,,,,,,,,,,,,,,,,,,,,,,,,,,,,,,,,,,,,,,,,,,,,,,,,,,,,,,,,,,
,,65490721984504b8f8c9d175,2024-02-19_02h07.56.464,kallum_motion_pilot,2023.2.2,Win32,11.04972376,65490721984504b8f8c9d175,65d2b6c8f2eece985d8e374c,65d2b7bd96fa611396bffafb,0.083,0.0831,0,47,47,18,1,twoone,,,,,,,,,,,,,,,,,,,,,,,,,,,,,,,,,,,,,,,,,,,,,,,,,,,,,,,,,,,,,,,,,,,,,,,,,,,,,,,,,,,,,,,,,,,,,,,,,,,,,,,,,,,,,,,,,,,,,,,,,,,,,,,,,,,,,,,,,
,,65490721984504b8f8c9d175,2024-02-19_02h07.56.464,kallum_motion_pilot,2023.2.2,Win32,11.04972376,65490721984504b8f8c9d175,65d2b6c8f2eece985d8e374c,65d2b7bd96fa611396bffafb,0.0832,0.0833,0,48,48,149,1,seveneight,,,,,,,,,,,,,,,,,,,,,,,,,,,,,,,,,,,,,,,,,,,,,,,,,,,,,,,,,,,,,,,,,,,,,,,,,,,,,,,,,,,,,,,,,,,,,,,,,,,,,,,,,,,,,,,,,,,,,,,,,,,,,,,,,,,,,,,,,
,,65490721984504b8f8c9d175,2024-02-19_02h07.56.464,kallum_motion_pilot,2023.2.2,Win32,11.04972376,65490721984504b8f8c9d175,65d2b6c8f2eece985d8e374c,65d2b7bd96fa611396bffafb,0.0835,0.0836,0,49,49,66,1,twoone,,,,,,,,,,,,,,,,,,,,,,,,,,,,,,,,,,,,,,,,,,,,,,,,,,,,,,,,,,,,,,,,,,,,,,,,,,,,,,,,,,,,,,,,,,,,,,,,,,,,,,,,,,,,,,,,,,,,,,,,,,,,,,,,,,,,,,,,,
,,65490721984504b8f8c9d175,2024-02-19_02h07.56.464,kallum_motion_pilot,2023.2.2,Win32,11.04972376,65490721984504b8f8c9d175,65d2b6c8f2eece985d8e374c,65d2b7bd96fa611396bffafb,0.0837,0.0838,0,50,50,159,1,eightseven,,,,,,,,,,,,,,,,,,,,,,,,,,,,,,,,,,,,,,,,,,,,,,,,,,,,,,,,,,,,,,,,,,,,,,,,,,,,,,,,,,,,,,,,,,,,,,,,,,,,,,,,,,,,,,,,,,,,,,,,,,,,,,,,,,,,,,,,,
,,65490721984504b8f8c9d175,2024-02-19_02h07.56.464,kallum_motion_pilot,2023.2.2,Win32,11.04972376,65490721984504b8f8c9d175,65d2b6c8f2eece985d8e374c,65d2b7bd96fa611396bffafb,0.0839,0.084,0,51,51,75,1,twofour,,,,,,,,,,,,,,,,,,,,,,,,,,,,,,,,,,,,,,,,,,,,,,,,,,,,,,,,,,,,,,,,,,,,,,,,,,,,,,,,,,,,,,,,,,,,,,,,,,,,,,,,,,,,,,,,,,,,,,,,,,,,,,,,,,,,,,,,,
,,65490721984504b8f8c9d175,2024-02-19_02h07.56.464,kallum_motion_pilot,2023.2.2,Win32,11.04972376,65490721984504b8f8c9d175,65d2b6c8f2eece985d8e374c,65d2b7bd96fa611396bffafb,0.0842,0.0842,0,52,52,87,1,eightseven,,,,,,,,,,,,,,,,,,,,,,,,,,,,,,,,,,,,,,,,,,,,,,,,,,,,,,,,,,,,,,,,,,,,,,,,,,,,,,,,,,,,,,,,,,,,,,,,,,,,,,,,,,,,,,,,,,,,,,,,,,,,,,,,,,,,,,,,,
,,65490721984504b8f8c9d175,2024-02-19_02h07.56.464,kallum_motion_pilot,2023.2.2,Win32,11.04972376,65490721984504b8f8c9d175,65d2b6c8f2eece985d8e374c,65d2b7bd96fa611396bffafb,0.0844,0.0844,0,53,53,115,1,sixeight,,,,,,,,,,,,,,,,,,,,,,,,,,,,,,,,,,,,,,,,,,,,,,,,,,,,,,,,,,,,,,,,,,,,,,,,,,,,,,,,,,,,,,,,,,,,,,,,,,,,,,,,,,,,,,,,,,,,,,,,,,,,,,,,,,,,,,,,,
,,65490721984504b8f8c9d175,2024-02-19_02h07.56.464,kallum_motion_pilot,2023.2.2,Win32,11.04972376,65490721984504b8f8c9d175,65d2b6c8f2eece985d8e374c,65d2b7bd96fa611396bffafb,0.0846,0.0846,0,54,54,95,1,eightseven,,,,,,,,,,,,,,,,,,,,,,,,,,,,,,,,,,,,,,,,,,,,,,,,,,,,,,,,,,,,,,,,,,,,,,,,,,,,,,,,,,,,,,,,,,,,,,,,,,,,,,,,,,,,,,,,,,,,,,,,,,,,,,,,,,,,,,,,,
,,65490721984504b8f8c9d175,2024-02-19_02h07.56.464,kallum_motion_pilot,2023.2.2,Win32,11.04972376,65490721984504b8f8c9d175,65d2b6c8f2eece985d8e374c,65d2b7bd96fa611396bffafb,0.0848,0.0849,0,55,55,19,1,twofour,,,,,,,,,,,,,,,,,,,,,,,,,,,,,,,,,,,,,,,,,,,,,,,,,,,,,,,,,,,,,,,,,,,,,,,,,,,,,,,,,,,,,,,,,,,,,,,,,,,,,,,,,,,,,,,,,,,,,,,,,,,,,,,,,,,,,,,,,
,,65490721984504b8f8c9d175,2024-02-19_02h07.56.464,kallum_motion_pilot,2023.2.2,Win32,11.04972376,65490721984504b8f8c9d175,65d2b6c8f2eece985d8e374c,65d2b7bd96fa611396bffafb,0.0851,0.0855,0,56,56,0,1,onetwo,,,,,,,,,,,,,,,,,,,,,,,,,,,,,,,,,,,,,,,,,,,,,,,,,,,,,,,,,,,,,,,,,,,,,,,,,,,,,,,,,,,,,,,,,,,,,,,,,,,,,,,,,,,,,,,,,,,,,,,,,,,,,,,,,,,,,,,,,
,,65490721984504b8f8c9d175,2024-02-19_02h07.56.464,kallum_motion_pilot,2023.2.2,Win32,11.04972376,65490721984504b8f8c9d175,65d2b6c8f2eece985d8e374c,65d2b7bd96fa611396bffafb,0.0859,0.0861,0,57,57,77,1,threefour,,,,,,,,,,,,,,,,,,,,,,,,,,,,,,,,,,,,,,,,,,,,,,,,,,,,,,,,,,,,,,,,,,,,,,,,,,,,,,,,,,,,,,,,,,,,,,,,,,,,,,,,,,,,,,,,,,,,,,,,,,,,,,,,,,,,,,,,,
,,65490721984504b8f8c9d175,2024-02-19_02h07.56.464,kallum_motion_pilot,2023.2.2,Win32,11.04972376,65490721984504b8f8c9d175,65d2b6c8f2eece985d8e374c,65d2b7bd96fa611396bffafb,0.0863,0.0865,0,58,58,34,1,twoone,,,,,,,,,,,,,,,,,,,,,,,,,,,,,,,,,,,,,,,,,,,,,,,,,,,,,,,,,,,,,,,,,,,,,,,,,,,,,,,,,,,,,,,,,,,,,,,,,,,,,,,,,,,,,,,,,,,,,,,,,,,,,,,,,,,,,,,,,
,,65490721984504b8f8c9d175,2024-02-19_02h07.56.464,kallum_motion_pilot,2023.2.2,Win32,11.04972376,65490721984504b8f8c9d175,65d2b6c8f2eece985d8e374c,65d2b7bd96fa611396bffafb,0.0867,0.0868,0,59,59,5,1,threefour,,,,,,,,,,,,,,,,,,,,,,,,,,,,,,,,,,,,,,,,,,,,,,,,,,,,,,,,,,,,,,,,,,,,,,,,,,,,,,,,,,,,,,,,,,,,,,,,,,,,,,,,,,,,,,,,,,,,,,,,,,,,,,,,,,,,,,,,,
,,65490721984504b8f8c9d175,2024-02-19_02h07.56.464,kallum_motion_pilot,2023.2.2,Win32,11.04972376,65490721984504b8f8c9d175,65d2b6c8f2eece985d8e374c,65d2b7bd96fa611396bffafb,0.087,0.0871,0,60,60,62,1,fourtwo,,,,,,,,,,,,,,,,,,,,,,,,,,,,,,,,,,,,,,,,,,,,,,,,,,,,,,,,,,,,,,,,,,,,,,,,,,,,,,,,,,,,,,,,,,,,,,,,,,,,,,,,,,,,,,,,,,,,,,,,,,,,,,,,,,,,,,,,,
,,65490721984504b8f8c9d175,2024-02-19_02h07.56.464,kallum_motion_pilot,2023.2.2,Win32,11.04972376,65490721984504b8f8c9d175,65d2b6c8f2eece985d8e374c,65d2b7bd96fa611396bffafb,0.0874,0.0875,0,61,61,80,1,fivesix,,,,,,,,,,,,,,,,,,,,,,,,,,,,,,,,,,,,,,,,,,,,,,,,,,,,,,,,,,,,,,,,,,,,,,,,,,,,,,,,,,,,,,,,,,,,,,,,,,,,,,,,,,,,,,,,,,,,,,,,,,,,,,,,,,,,,,,,,
,,65490721984504b8f8c9d175,2024-02-19_02h07.56.464,kallum_motion_pilot,2023.2.2,Win32,11.04972376,65490721984504b8f8c9d175,65d2b6c8f2eece985d8e374c,65d2b7bd96fa611396bffafb,0.0877,0.0878,0,62,62,112,1,fivesix,,,,,,,,,,,,,,,,,,,,,,,,,,,,,,,,,,,,,,,,,,,,,,,,,,,,,,,,,,,,,,,,,,,,,,,,,,,,,,,,,,,,,,,,,,,,,,,,,,,,,,,,,,,,,,,,,,,,,,,,,,,,,,,,,,,,,,,,,
,,65490721984504b8f8c9d175,2024-02-19_02h07.56.464,kallum_motion_pilot,2023.2.2,Win32,11.04972376,65490721984504b8f8c9d175,65d2b6c8f2eece985d8e374c,65d2b7bd96fa611396bffafb,0.0881,0.0882,0,63,63,86,1,eightsix,,,,,,,,,,,,,,,,,,,,,,,,,,,,,,,,,,,,,,,,,,,,,,,,,,,,,,,,,,,,,,,,,,,,,,,,,,,,,,,,,,,,,,,,,,,,,,,,,,,,,,,,,,,,,,,,,,,,,,,,,,,,,,,,,,,,,,,,,
,,65490721984504b8f8c9d175,2024-02-19_02h07.56.464,kallum_motion_pilot,2023.2.2,Win32,11.04972376,65490721984504b8f8c9d175,65d2b6c8f2eece985d8e374c,65d2b7bd96fa611396bffafb,0.0901,0.0902,0,64,64,45,1,threefour,,,,,,,,,,,,,,,,,,,,,,,,,,,,,,,,,,,,,,,,,,,,,,,,,,,,,,,,,,,,,,,,,,,,,,,,,,,,,,,,,,,,,,,,,,,,,,,,,,,,,,,,,,,,,,,,,,,,,,,,,,,,,,,,,,,,,,,,,
,,65490721984504b8f8c9d175,2024-02-19_02h07.56.464,kallum_motion_pilot,2023.2.2,Win32,11.04972376,65490721984504b8f8c9d175,65d2b6c8f2eece985d8e374c,65d2b7bd96fa611396bffafb,0.0905,0.0907,0,65,65,32,1,onetwo,,,,,,,,,,,,,,,,,,,,,,,,,,,,,,,,,,,,,,,,,,,,,,,,,,,,,,,,,,,,,,,,,,,,,,,,,,,,,,,,,,,,,,,,,,,,,,,,,,,,,,,,,,,,,,,,,,,,,,,,,,,,,,,,,,,,,,,,,
,,65490721984504b8f8c9d175,2024-02-19_02h07.56.464,kallum_motion_pilot,2023.2.2,Win32,11.04972376,65490721984504b8f8c9d175,65d2b6c8f2eece985d8e374c,65d2b7bd96fa611396bffafb,0.0909,0.091,0,66,66,108,1,sevenfive,,,,,,,,,,,,,,,,,,,,,,,,,,,,,,,,,,,,,,,,,,,,,,,,,,,,,,,,,,,,,,,,,,,,,,,,,,,,,,,,,,,,,,,,,,,,,,,,,,,,,,,,,,,,,,,,,,,,,,,,,,,,,,,,,,,,,,,,,
,,65490721984504b8f8c9d175,2024-02-19_02h07.56.464,kallum_motion_pilot,2023.2.2,Win32,11.04972376,65490721984504b8f8c9d175,65d2b6c8f2eece985d8e374c,65d2b7bd96fa611396bffafb,0.0912,0.0913,0,67,67,82,1,sixfive,,,,,,,,,,,,,,,,,,,,,,,,,,,,,,,,,,,,,,,,,,,,,,,,,,,,,,,,,,,,,,,,,,,,,,,,,,,,,,,,,,,,,,,,,,,,,,,,,,,,,,,,,,,,,,,,,,,,,,,,,,,,,,,,,,,,,,,,,
,,65490721984504b8f8c9d175,2024-02-19_02h07.56.464,kallum_motion_pilot,2023.2.2,Win32,11.04972376,65490721984504b8f8c9d175,65d2b6c8f2eece985d8e374c,65d2b7bd96fa611396bffafb,0.0917,0.0918,0,68,68,150,1,eightsix,,,,,,,,,,,,,,,,,,,,,,,,,,,,,,,,,,,,,,,,,,,,,,,,,,,,,,,,,,,,,,,,,,,,,,,,,,,,,,,,,,,,,,,,,,,,,,,,,,,,,,,,,,,,,,,,,,,,,,,,,,,,,,,,,,,,,,,,,
,,65490721984504b8f8c9d175,2024-02-19_02h07.56.464,kallum_motion_pilot,2023.2.2,Win32,11.04972376,65490721984504b8f8c9d175,65d2b6c8f2eece985d8e374c,65d2b7bd96fa611396bffafb,0.0921,0.0924,0,69,69,3,1,twofour,,,,,,,,,,,,,,,,,,,,,,,,,,,,,,,,,,,,,,,,,,,,,,,,,,,,,,,,,,,,,,,,,,,,,,,,,,,,,,,,,,,,,,,,,,,,,,,,,,,,,,,,,,,,,,,,,,,,,,,,,,,,,,,,,,,,,,,,,
,,65490721984504b8f8c9d175,2024-02-19_02h07.56.464,kallum_motion_pilot,2023.2.2,Win32,11.04972376,65490721984504b8f8c9d175,65d2b6c8f2eece985d8e374c,65d2b7bd96fa611396bffafb,0.0928,0.0929,0,70,70,7,1,fourthree,,,,,,,,,,,,,,,,,,,,,,,,,,,,,,,,,,,,,,,,,,,,,,,,,,,,,,,,,,,,,,,,,,,,,,,,,,,,,,,,,,,,,,,,,,,,,,,,,,,,,,,,,,,,,,,,,,,,,,,,,,,,,,,,,,,,,,,,,
,,65490721984504b8f8c9d175,2024-02-19_02h07.56.464,kallum_motion_pilot,2023.2.2,Win32,11.04972376,65490721984504b8f8c9d175,65d2b6c8f2eece985d8e374c,65d2b7bd96fa611396bffafb,0.0931,0.0933,0,71,71,152,1,fivesix,,,,,,,,,,,,,,,,,,,,,,,,,,,,,,,,,,,,,,,,,,,,,,,,,,,,,,,,,,,,,,,,,,,,,,,,,,,,,,,,,,,,,,,,,,,,,,,,,,,,,,,,,,,,,,,,,,,,,,,,,,,,,,,,,,,,,,,,,
,,65490721984504b8f8c9d175,2024-02-19_02h07.56.464,kallum_motion_pilot,2023.2.2,Win32,11.04972376,65490721984504b8f8c9d175,65d2b6c8f2eece985d8e374c,65d2b7bd96fa611396bffafb,0.0935,0.0936,0,72,72,1,1,onethree,,,,,,,,,,,,,,,,,,,,,,,,,,,,,,,,,,,,,,,,,,,,,,,,,,,,,,,,,,,,,,,,,,,,,,,,,,,,,,,,,,,,,,,,,,,,,,,,,,,,,,,,,,,,,,,,,,,,,,,,,,,,,,,,,,,,,,,,,
,,65490721984504b8f8c9d175,2024-02-19_02h07.56.464,kallum_motion_pilot,2023.2.2,Win32,11.04972376,65490721984504b8f8c9d175,65d2b6c8f2eece985d8e374c,65d2b7bd96fa611396bffafb,0.0939,0.094,0,73,73,69,1,threefour,,,,,,,,,,,,,,,,,,,,,,,,,,,,,,,,,,,,,,,,,,,,,,,,,,,,,,,,,,,,,,,,,,,,,,,,,,,,,,,,,,,,,,,,,,,,,,,,,,,,,,,,,,,,,,,,,,,,,,,,,,,,,,,,,,,,,,,,,
,,65490721984504b8f8c9d175,2024-02-19_02h07.56.464,kallum_motion_pilot,2023.2.2,Win32,11.04972376,65490721984504b8f8c9d175,65d2b6c8f2eece985d8e374c,65d2b7bd96fa611396bffafb,0.0942,0.0943,0,74,74,27,1,twofour,,,,,,,,,,,,,,,,,,,,,,,,,,,,,,,,,,,,,,,,,,,,,,,,,,,,,,,,,,,,,,,,,,,,,,,,,,,,,,,,,,,,,,,,,,,,,,,,,,,,,,,,,,,,,,,,,,,,,,,,,,,,,,,,,,,,,,,,,
,,65490721984504b8f8c9d175,2024-02-19_02h07.56.464,kallum_motion_pilot,2023.2.2,Win32,11.04972376,65490721984504b8f8c9d175,65d2b6c8f2eece985d8e374c,65d2b7bd96fa611396bffafb,0.0946,0.0947,0,75,75,103,1,eightseven,,,,,,,,,,,,,,,,,,,,,,,,,,,,,,,,,,,,,,,,,,,,,,,,,,,,,,,,,,,,,,,,,,,,,,,,,,,,,,,,,,,,,,,,,,,,,,,,,,,,,,,,,,,,,,,,,,,,,,,,,,,,,,,,,,,,,,,,,
,,65490721984504b8f8c9d175,2024-02-19_02h07.56.464,kallum_motion_pilot,2023.2.2,Win32,11.04972376,65490721984504b8f8c9d175,65d2b6c8f2eece985d8e374c,65d2b7bd96fa611396bffafb,0.0949,0.0951,0,76,76,92,1,sevenfive,,,,,,,,,,,,,,,,,,,,,,,,,,,,,,,,,,,,,,,,,,,,,,,,,,,,,,,,,,,,,,,,,,,,,,,,,,,,,,,,,,,,,,,,,,,,,,,,,,,,,,,,,,,,,,,,,,,,,,,,,,,,,,,,,,,,,,,,,
,,65490721984504b8f8c9d175,2024-02-19_02h07.56.464,kallum_motion_pilot,2023.2.2,Win32,11.04972376,65490721984504b8f8c9d175,65d2b6c8f2eece985d8e374c,65d2b7bd96fa611396bffafb,0.0953,0.0955,0,77,77,25,1,onethree,,,,,,,,,,,,,,,,,,,,,,,,,,,,,,,,,,,,,,,,,,,,,,,,,,,,,,,,,,,,,,,,,,,,,,,,,,,,,,,,,,,,,,,,,,,,,,,,,,,,,,,,,,,,,,,,,,,,,,,,,,,,,,,,,,,,,,,,,
,,65490721984504b8f8c9d175,2024-02-19_02h07.56.464,kallum_motion_pilot,2023.2.2,Win32,11.04972376,65490721984504b8f8c9d175,65d2b6c8f2eece985d8e374c,65d2b7bd96fa611396bffafb,0.0958,0.0959,0,78,78,132,1,sevenfive,,,,,,,,,,,,,,,,,,,,,,,,,,,,,,,,,,,,,,,,,,,,,,,,,,,,,,,,,,,,,,,,,,,,,,,,,,,,,,,,,,,,,,,,,,,,,,,,,,,,,,,,,,,,,,,,,,,,,,,,,,,,,,,,,,,,,,,,,
,,65490721984504b8f8c9d175,2024-02-19_02h07.56.464,kallum_motion_pilot,2023.2.2,Win32,11.04972376,65490721984504b8f8c9d175,65d2b6c8f2eece985d8e374c,65d2b7bd96fa611396bffafb,0.0961,0.0962,0,79,79,33,1,onethree,,,,,,,,,,,,,,,,,,,,,,,,,,,,,,,,,,,,,,,,,,,,,,,,,,,,,,,,,,,,,,,,,,,,,,,,,,,,,,,,,,,,,,,,,,,,,,,,,,,,,,,,,,,,,,,,,,,,,,,,,,,,,,,,,,,,,,,,,
,,65490721984504b8f8c9d175,2024-02-19_02h07.56.464,kallum_motion_pilot,2023.2.2,Win32,11.04972376,65490721984504b8f8c9d175,65d2b6c8f2eece985d8e374c,65d2b7bd96fa611396bffafb,0.0965,0.0967,0,80,80,49,1,onethree,,,,,,,,,,,,,,,,,,,,,,,,,,,,,,,,,,,,,,,,,,,,,,,,,,,,,,,,,,,,,,,,,,,,,,,,,,,,,,,,,,,,,,,,,,,,,,,,,,,,,,,,,,,,,,,,,,,,,,,,,,,,,,,,,,,,,,,,,
,,65490721984504b8f8c9d175,2024-02-19_02h07.56.464,kallum_motion_pilot,2023.2.2,Win32,11.04972376,65490721984504b8f8c9d175,65d2b6c8f2eece985d8e374c,65d2b7bd96fa611396bffafb,0.0969,0.0971,0,81,81,102,1,eightsix,,,,,,,,,,,,,,,,,,,,,,,,,,,,,,,,,,,,,,,,,,,,,,,,,,,,,,,,,,,,,,,,,,,,,,,,,,,,,,,,,,,,,,,,,,,,,,,,,,,,,,,,,,,,,,,,,,,,,,,,,,,,,,,,,,,,,,,,,
,,65490721984504b8f8c9d175,2024-02-19_02h07.56.464,kallum_motion_pilot,2023.2.2,Win32,11.04972376,65490721984504b8f8c9d175,65d2b6c8f2eece985d8e374c,65d2b7bd96fa611396bffafb,0.0973,0.0975,0,82,82,153,1,fiveseven,,,,,,,,,,,,,,,,,,,,,,,,,,,,,,,,,,,,,,,,,,,,,,,,,,,,,,,,,,,,,,,,,,,,,,,,,,,,,,,,,,,,,,,,,,,,,,,,,,,,,,,,,,,,,,,,,,,,,,,,,,,,,,,,,,,,,,,,,
,,65490721984504b8f8c9d175,2024-02-19_02h07.56.464,kallum_motion_pilot,2023.2.2,Win32,11.04972376,65490721984504b8f8c9d175,65d2b6c8f2eece985d8e374c,65d2b7bd96fa611396bffafb,0.0977,0.0978,0,83,83,41,1,onethree,,,,,,,,,,,,,,,,,,,,,,,,,,,,,,,,,,,,,,,,,,,,,,,,,,,,,,,,,,,,,,,,,,,,,,,,,,,,,,,,,,,,,,,,,,,,,,,,,,,,,,,,,,,,,,,,,,,,,,,,,,,,,,,,,,,,,,,,,
,,65490721984504b8f8c9d175,2024-02-19_02h07.56.464,kallum_motion_pilot,2023.2.2,Win32,11.04972376,65490721984504b8f8c9d175,65d2b6c8f2eece985d8e374c,65d2b7bd96fa611396bffafb,0.0981,0.0982,0,84,84,158,1,eightsix,,,,,,,,,,,,,,,,,,,,,,,,,,,,,,,,,,,,,,,,,,,,,,,,,,,,,,,,,,,,,,,,,,,,,,,,,,,,,,,,,,,,,,,,,,,,,,,,,,,,,,,,,,,,,,,,,,,,,,,,,,,,,,,,,,,,,,,,,
,,65490721984504b8f8c9d175,2024-02-19_02h07.56.464,kallum_motion_pilot,2023.2.2,Win32,11.04972376,65490721984504b8f8c9d175,65d2b6c8f2eece985d8e374c,65d2b7bd96fa611396bffafb,0.0984,0.0986,0,85,85,35,1,twofour,,,,,,,,,,,,,,,,,,,,,,,,,,,,,,,,,,,,,,,,,,,,,,,,,,,,,,,,,,,,,,,,,,,,,,,,,,,,,,,,,,,,,,,,,,,,,,,,,,,,,,,,,,,,,,,,,,,,,,,,,,,,,,,,,,,,,,,,,
,,65490721984504b8f8c9d175,2024-02-19_02h07.56.464,kallum_motion_pilot,2023.2.2,Win32,11.04972376,65490721984504b8f8c9d175,65d2b6c8f2eece985d8e374c,65d2b7bd96fa611396bffafb,0.0988,0.0989,0,86,86,135,1,eightseven,,,,,,,,,,,,,,,,,,,,,,,,,,,,,,,,,,,,,,,,,,,,,,,,,,,,,,,,,,,,,,,,,,,,,,,,,,,,,,,,,,,,,,,,,,,,,,,,,,,,,,,,,,,,,,,,,,,,,,,,,,,,,,,,,,,,,,,,,
,,65490721984504b8f8c9d175,2024-02-19_02h07.56.464,kallum_motion_pilot,2023.2.2,Win32,11.04972376,65490721984504b8f8c9d175,65d2b6c8f2eece985d8e374c,65d2b7bd96fa611396bffafb,0.0991,0.0995,0,87,87,44,1,threeone,,,,,,,,,,,,,,,,,,,,,,,,,,,,,,,,,,,,,,,,,,,,,,,,,,,,,,,,,,,,,,,,,,,,,,,,,,,,,,,,,,,,,,,,,,,,,,,,,,,,,,,,,,,,,,,,,,,,,,,,,,,,,,,,,,,,,,,,,
,,65490721984504b8f8c9d175,2024-02-19_02h07.56.464,kallum_motion_pilot,2023.2.2,Win32,11.04972376,65490721984504b8f8c9d175,65d2b6c8f2eece985d8e374c,65d2b7bd96fa611396bffafb,0.0999,0.1001,0,88,88,67,1,twofour,,,,,,,,,,,,,,,,,,,,,,,,,,,,,,,,,,,,,,,,,,,,,,,,,,,,,,,,,,,,,,,,,,,,,,,,,,,,,,,,,,,,,,,,,,,,,,,,,,,,,,,,,,,,,,,,,,,,,,,,,,,,,,,,,,,,,,,,,
,,65490721984504b8f8c9d175,2024-02-19_02h07.56.464,kallum_motion_pilot,2023.2.2,Win32,11.04972376,65490721984504b8f8c9d175,65d2b6c8f2eece985d8e374c,65d2b7bd96fa611396bffafb,0.1002,0.1004,0,89,89,54,1,fourtwo,,,,,,,,,,,,,,,,,,,,,,,,,,,,,,,,,,,,,,,,,,,,,,,,,,,,,,,,,,,,,,,,,,,,,,,,,,,,,,,,,,,,,,,,,,,,,,,,,,,,,,,,,,,,,,,,,,,,,,,,,,,,,,,,,,,,,,,,,
,,65490721984504b8f8c9d175,2024-02-19_02h07.56.464,kallum_motion_pilot,2023.2.2,Win32,11.04972376,65490721984504b8f8c9d175,65d2b6c8f2eece985d8e374c,65d2b7bd96fa611396bffafb,0.1005,0.1007,0,90,90,29,1,threefour,,,,,,,,,,,,,,,,,,,,,,,,,,,,,,,,,,,,,,,,,,,,,,,,,,,,,,,,,,,,,,,,,,,,,,,,,,,,,,,,,,,,,,,,,,,,,,,,,,,,,,,,,,,,,,,,,,,,,,,,,,,,,,,,,,,,,,,,,
,,65490721984504b8f8c9d175,2024-02-19_02h07.56.464,kallum_motion_pilot,2023.2.2,Win32,11.04972376,65490721984504b8f8c9d175,65d2b6c8f2eece985d8e374c,65d2b7bd96fa611396bffafb,0.1008,0.1009,0,91,91,114,1,sixfive,,,,,,,,,,,,,,,,,,,,,,,,,,,,,,,,,,,,,,,,,,,,,,,,,,,,,,,,,,,,,,,,,,,,,,,,,,,,,,,,,,,,,,,,,,,,,,,,,,,,,,,,,,,,,,,,,,,,,,,,,,,,,,,,,,,,,,,,,
,,65490721984504b8f8c9d175,2024-02-19_02h07.56.464,kallum_motion_pilot,2023.2.2,Win32,11.04972376,65490721984504b8f8c9d175,65d2b6c8f2eece985d8e374c,65d2b7bd96fa611396bffafb,0.1011,0.1011,0,92,92,133,1,seveneight,,,,,,,,,,,,,,,,,,,,,,,,,,,,,,,,,,,,,,,,,,,,,,,,,,,,,,,,,,,,,,,,,,,,,,,,,,,,,,,,,,,,,,,,,,,,,,,,,,,,,,,,,,,,,,,,,,,,,,,,,,,,,,,,,,,,,,,,,
,,65490721984504b8f8c9d175,2024-02-19_02h07.56.464,kallum_motion_pilot,2023.2.2,Win32,11.04972376,65490721984504b8f8c9d175,65d2b6c8f2eece985d8e374c,65d2b7bd96fa611396bffafb,0.1013,0.1014,0,93,93,155,1,sixeight,,,,,,,,,,,,,,,,,,,,,,,,,,,,,,,,,,,,,,,,,,,,,,,,,,,,,,,,,,,,,,,,,,,,,,,,,,,,,,,,,,,,,,,,,,,,,,,,,,,,,,,,,,,,,,,,,,,,,,,,,,,,,,,,,,,,,,,,,
,,65490721984504b8f8c9d175,2024-02-19_02h07.56.464,kallum_motion_pilot,2023.2.2,Win32,11.04972376,65490721984504b8f8c9d175,65d2b6c8f2eece985d8e374c,65d2b7bd96fa611396bffafb,0.1016,0.1016,0,94,94,58,1,twoone,,,,,,,,,,,,,,,,,,,,,,,,,,,,,,,,,,,,,,,,,,,,,,,,,,,,,,,,,,,,,,,,,,,,,,,,,,,,,,,,,,,,,,,,,,,,,,,,,,,,,,,,,,,,,,,,,,,,,,,,,,,,,,,,,,,,,,,,,
,,65490721984504b8f8c9d175,2024-02-19_02h07.56.464,kallum_motion_pilot,2023.2.2,Win32,11.04972376,65490721984504b8f8c9d175,65d2b6c8f2eece985d8e374c,65d2b7bd96fa611396bffafb,0.1018,0.1019,0,95,95,138,1,sixfive,,,,,,,,,,,,,,,,,,,,,,,,,,,,,,,,,,,,,,,,,,,,,,,,,,,,,,,,,,,,,,,,,,,,,,,,,,,,,,,,,,,,,,,,,,,,,,,,,,,,,,,,,,,,,,,,,,,,,,,,,,,,,,,,,,,,,,,,,
,,65490721984504b8f8c9d175,2024-02-19_02h07.56.464,kallum_motion_pilot,2023.2.2,Win32,11.04972376,65490721984504b8f8c9d175,65d2b6c8f2eece985d8e374c,65d2b7bd96fa611396bffafb,0.1021,0.1022,0,96,96,118,1,eightsix,,,,,,,,,,,,,,,,,,,,,,,,,,,,,,,,,,,,,,,,,,,,,,,,,,,,,,,,,,,,,,,,,,,,,,,,,,,,,,,,,,,,,,,,,,,,,,,,,,,,,,,,,,,,,,,,,,,,,,,,,,,,,,,,,,,,,,,,,
,,65490721984504b8f8c9d175,2024-02-19_02h07.56.464,kallum_motion_pilot,2023.2.2,Win32,11.04972376,65490721984504b8f8c9d175,65d2b6c8f2eece985d8e374c,65d2b7bd96fa611396bffafb,0.1023,0.1024,0,97,97,145,1,fiveseven,,,,,,,,,,,,,,,,,,,,,,,,,,,,,,,,,,,,,,,,,,,,,,,,,,,,,,,,,,,,,,,,,,,,,,,,,,,,,,,,,,,,,,,,,,,,,,,,,,,,,,,,,,,,,,,,,,,,,,,,,,,,,,,,,,,,,,,,,
,,65490721984504b8f8c9d175,2024-02-19_02h07.56.464,kallum_motion_pilot,2023.2.2,Win32,11.04972376,65490721984504b8f8c9d175,65d2b6c8f2eece985d8e374c,65d2b7bd96fa611396bffafb,0.1026,0.1027,0,98,98,88,1,fivesix,,,,,,,,,,,,,,,,,,,,,,,,,,,,,,,,,,,,,,,,,,,,,,,,,,,,,,,,,,,,,,,,,,,,,,,,,,,,,,,,,,,,,,,,,,,,,,,,,,,,,,,,,,,,,,,,,,,,,,,,,,,,,,,,,,,,,,,,,
,,65490721984504b8f8c9d175,2024-02-19_02h07.56.464,kallum_motion_pilot,2023.2.2,Win32,11.04972376,65490721984504b8f8c9d175,65d2b6c8f2eece985d8e374c,65d2b7bd96fa611396bffafb,0.1029,0.1031,0,99,99,117,1,seveneight,,,,,,,,,,,,,,,,,,,,,,,,,,,,,,,,,,,,,,,,,,,,,,,,,,,,,,,,,,,,,,,,,,,,,,,,,,,,,,,,,,,,,,,,,,,,,,,,,,,,,,,,,,,,,,,,,,,,,,,,,,,,,,,,,,,,,,,,,
,,65490721984504b8f8c9d175,2024-02-19_02h07.56.464,kallum_motion_pilot,2023.2.2,Win32,11.04972376,65490721984504b8f8c9d175,65d2b6c8f2eece985d8e374c,65d2b7bd96fa611396bffafb,0.1035,0.1036,0,100,100,131,1,sixeight,,,,,,,,,,,,,,,,,,,,,,,,,,,,,,,,,,,,,,,,,,,,,,,,,,,,,,,,,,,,,,,,,,,,,,,,,,,,,,,,,,,,,,,,,,,,,,,,,,,,,,,,,,,,,,,,,,,,,,,,,,,,,,,,,,,,,,,,,
,,65490721984504b8f8c9d175,2024-02-19_02h07.56.464,kallum_motion_pilot,2023.2.2,Win32,11.04972376,65490721984504b8f8c9d175,65d2b6c8f2eece985d8e374c,65d2b7bd96fa611396bffafb,0.1039,0.1041,0,101,101,6,1,fourtwo,,,,,,,,,,,,,,,,,,,,,,,,,,,,,,,,,,,,,,,,,,,,,,,,,,,,,,,,,,,,,,,,,,,,,,,,,,,,,,,,,,,,,,,,,,,,,,,,,,,,,,,,,,,,,,,,,,,,,,,,,,,,,,,,,,,,,,,,,
,,65490721984504b8f8c9d175,2024-02-19_02h07.56.464,kallum_motion_pilot,2023.2.2,Win32,11.04972376,65490721984504b8f8c9d175,65d2b6c8f2eece985d8e374c,65d2b7bd96fa611396bffafb,0.1043,0.1044,0,102,102,147,1,sixeight,,,,,,,,,,,,,,,,,,,,,,,,,,,,,,,,,,,,,,,,,,,,,,,,,,,,,,,,,,,,,,,,,,,,,,,,,,,,,,,,,,,,,,,,,,,,,,,,,,,,,,,,,,,,,,,,,,,,,,,,,,,,,,,,,,,,,,,,,
,,65490721984504b8f8c9d175,2024-02-19_02h07.56.464,kallum_motion_pilot,2023.2.2,Win32,11.04972376,65490721984504b8f8c9d175,65d2b6c8f2eece985d8e374c,65d2b7bd96fa611396bffafb,0.1047,0.1048,0,103,103,37,1,threefour,,,,,,,,,,,,,,,,,,,,,,,,,,,,,,,,,,,,,,,,,,,,,,,,,,,,,,,,,,,,,,,,,,,,,,,,,,,,,,,,,,,,,,,,,,,,,,,,,,,,,,,,,,,,,,,,,,,,,,,,,,,,,,,,,,,,,,,,,
,,65490721984504b8f8c9d175,2024-02-19_02h07.56.464,kallum_motion_pilot,2023.2.2,Win32,11.04972376,65490721984504b8f8c9d175,65d2b6c8f2eece985d8e374c,65d2b7bd96fa611396bffafb,0.105,0.1052,0,104,104,127,1,eightseven,,,,,,,,,,,,,,,,,,,,,,,,,,,,,,,,,,,,,,,,,,,,,,,,,,,,,,,,,,,,,,,,,,,,,,,,,,,,,,,,,,,,,,,,,,,,,,,,,,,,,,,,,,,,,,,,,,,,,,,,,,,,,,,,,,,,,,,,,
,,65490721984504b8f8c9d175,2024-02-19_02h07.56.464,kallum_motion_pilot,2023.2.2,Win32,11.04972376,65490721984504b8f8c9d175,65d2b6c8f2eece985d8e374c,65d2b7bd96fa611396bffafb,0.1054,0.1055,0,105,105,93,1,seveneight,,,,,,,,,,,,,,,,,,,,,,,,,,,,,,,,,,,,,,,,,,,,,,,,,,,,,,,,,,,,,,,,,,,,,,,,,,,,,,,,,,,,,,,,,,,,,,,,,,,,,,,,,,,,,,,,,,,,,,,,,,,,,,,,,,,,,,,,,
,,65490721984504b8f8c9d175,2024-02-19_02h07.56.464,kallum_motion_pilot,2023.2.2,Win32,11.04972376,65490721984504b8f8c9d175,65d2b6c8f2eece985d8e374c,65d2b7bd96fa611396bffafb,0.1058,0.1062,0,106,106,85,1,seveneight,,,,,,,,,,,,,,,,,,,,,,,,,,,,,,,,,,,,,,,,,,,,,,,,,,,,,,,,,,,,,,,,,,,,,,,,,,,,,,,,,,,,,,,,,,,,,,,,,,,,,,,,,,,,,,,,,,,,,,,,,,,,,,,,,,,,,,,,,
,,65490721984504b8f8c9d175,2024-02-19_02h07.56.464,kallum_motion_pilot,2023.2.2,Win32,11.04972376,65490721984504b8f8c9d175,65d2b6c8f2eece985d8e374c,65d2b7bd96fa611396bffafb,0.1067,0.1069,0,107,107,98,1,sixfive,,,,,,,,,,,,,,,,,,,,,,,,,,,,,,,,,,,,,,,,,,,,,,,,,,,,,,,,,,,,,,,,,,,,,,,,,,,,,,,,,,,,,,,,,,,,,,,,,,,,,,,,,,,,,,,,,,,,,,,,,,,,,,,,,,,,,,,,,
,,65490721984504b8f8c9d175,2024-02-19_02h07.56.464,kallum_motion_pilot,2023.2.2,Win32,11.04972376,65490721984504b8f8c9d175,65d2b6c8f2eece985d8e374c,65d2b7bd96fa611396bffafb,0.1071,0.1073,0,108,108,48,1,onetwo,,,,,,,,,,,,,,,,,,,,,,,,,,,,,,,,,,,,,,,,,,,,,,,,,,,,,,,,,,,,,,,,,,,,,,,,,,,,,,,,,,,,,,,,,,,,,,,,,,,,,,,,,,,,,,,,,,,,,,,,,,,,,,,,,,,,,,,,,
,,65490721984504b8f8c9d175,2024-02-19_02h07.56.464,kallum_motion_pilot,2023.2.2,Win32,11.04972376,65490721984504b8f8c9d175,65d2b6c8f2eece985d8e374c,65d2b7bd96fa611396bffafb,0.1075,0.1076,0,109,109,116,1,sevenfive,,,,,,,,,,,,,,,,,,,,,,,,,,,,,,,,,,,,,,,,,,,,,,,,,,,,,,,,,,,,,,,,,,,,,,,,,,,,,,,,,,,,,,,,,,,,,,,,,,,,,,,,,,,,,,,,,,,,,,,,,,,,,,,,,,,,,,,,,
,,65490721984504b8f8c9d175,2024-02-19_02h07.56.464,kallum_motion_pilot,2023.2.2,Win32,11.04972376,65490721984504b8f8c9d175,65d2b6c8f2eece985d8e374c,65d2b7bd96fa611396bffafb,0.1078,0.108,0,110,110,55,1,fourthree,,,,,,,,,,,,,,,,,,,,,,,,,,,,,,,,,,,,,,,,,,,,,,,,,,,,,,,,,,,,,,,,,,,,,,,,,,,,,,,,,,,,,,,,,,,,,,,,,,,,,,,,,,,,,,,,,,,,,,,,,,,,,,,,,,,,,,,,,
,,65490721984504b8f8c9d175,2024-02-19_02h07.56.464,kallum_motion_pilot,2023.2.2,Win32,11.04972376,65490721984504b8f8c9d175,65d2b6c8f2eece985d8e374c,65d2b7bd96fa611396bffafb,0.1083,0.1083,0,111,111,97,1,fiveseven,,,,,,,,,,,,,,,,,,,,,,,,,,,,,,,,,,,,,,,,,,,,,,,,,,,,,,,,,,,,,,,,,,,,,,,,,,,,,,,,,,,,,,,,,,,,,,,,,,,,,,,,,,,,,,,,,,,,,,,,,,,,,,,,,,,,,,,,,
,,65490721984504b8f8c9d175,2024-02-19_02h07.56.464,kallum_motion_pilot,2023.2.2,Win32,11.04972376,65490721984504b8f8c9d175,65d2b6c8f2eece985d8e374c,65d2b7bd96fa611396bffafb,0.1085,0.1087,0,112,112,81,1,fiveseven,,,,,,,,,,,,,,,,,,,,,,,,,,,,,,,,,,,,,,,,,,,,,,,,,,,,,,,,,,,,,,,,,,,,,,,,,,,,,,,,,,,,,,,,,,,,,,,,,,,,,,,,,,,,,,,,,,,,,,,,,,,,,,,,,,,,,,,,,
,,65490721984504b8f8c9d175,2024-02-19_02h07.56.464,kallum_motion_pilot,2023.2.2,Win32,11.04972376,65490721984504b8f8c9d175,65d2b6c8f2eece985d8e374c,65d2b7bd96fa611396bffafb,0.1089,0.109,0,113,113,156,1,sevenfive,,,,,,,,,,,,,,,,,,,,,,,,,,,,,,,,,,,,,,,,,,,,,,,,,,,,,,,,,,,,,,,,,,,,,,,,,,,,,,,,,,,,,,,,,,,,,,,,,,,,,,,,,,,,,,,,,,,,,,,,,,,,,,,,,,,,,,,,,
,,65490721984504b8f8c9d175,2024-02-19_02h07.56.464,kallum_motion_pilot,2023.2.2,Win32,11.04972376,65490721984504b8f8c9d175,65d2b6c8f2eece985d8e374c,65d2b7bd96fa611396bffafb,0.1092,0.1094,0,114,114,70,1,fourtwo,,,,,,,,,,,,,,,,,,,,,,,,,,,,,,,,,,,,,,,,,,,,,,,,,,,,,,,,,,,,,,,,,,,,,,,,,,,,,,,,,,,,,,,,,,,,,,,,,,,,,,,,,,,,,,,,,,,,,,,,,,,,,,,,,,,,,,,,,
,,65490721984504b8f8c9d175,2024-02-19_02h07.56.464,kallum_motion_pilot,2023.2.2,Win32,11.04972376,65490721984504b8f8c9d175,65d2b6c8f2eece985d8e374c,65d2b7bd96fa611396bffafb,0.1096,0.1099,0,115,115,73,1,onethree,,,,,,,,,,,,,,,,,,,,,,,,,,,,,,,,,,,,,,,,,,,,,,,,,,,,,,,,,,,,,,,,,,,,,,,,,,,,,,,,,,,,,,,,,,,,,,,,,,,,,,,,,,,,,,,,,,,,,,,,,,,,,,,,,,,,,,,,,
,,65490721984504b8f8c9d175,2024-02-19_02h07.56.464,kallum_motion_pilot,2023.2.2,Win32,11.04972376,65490721984504b8f8c9d175,65d2b6c8f2eece985d8e374c,65d2b7bd96fa611396bffafb,0.11,0.1102,0,116,116,39,1,fourthree,,,,,,,,,,,,,,,,,,,,,,,,,,,,,,,,,,,,,,,,,,,,,,,,,,,,,,,,,,,,,,,,,,,,,,,,,,,,,,,,,,,,,,,,,,,,,,,,,,,,,,,,,,,,,,,,,,,,,,,,,,,,,,,,,,,,,,,,,
,,65490721984504b8f8c9d175,2024-02-19_02h07.56.464,kallum_motion_pilot,2023.2.2,Win32,11.04972376,65490721984504b8f8c9d175,65d2b6c8f2eece985d8e374c,65d2b7bd96fa611396bffafb,0.1104,0.1105,0,117,117,121,1,fiveseven,,,,,,,,,,,,,,,,,,,,,,,,,,,,,,,,,,,,,,,,,,,,,,,,,,,,,,,,,,,,,,,,,,,,,,,,,,,,,,,,,,,,,,,,,,,,,,,,,,,,,,,,,,,,,,,,,,,,,,,,,,,,,,,,,,,,,,,,,
,,65490721984504b8f8c9d175,2024-02-19_02h07.56.464,kallum_motion_pilot,2023.2.2,Win32,11.04972376,65490721984504b8f8c9d175,65d2b6c8f2eece985d8e374c,65d2b7bd96fa611396bffafb,0.1108,0.1109,0,118,118,12,1,threeone,,,,,,,,,,,,,,,,,,,,,,,,,,,,,,,,,,,,,,,,,,,,,,,,,,,,,,,,,,,,,,,,,,,,,,,,,,,,,,,,,,,,,,,,,,,,,,,,,,,,,,,,,,,,,,,,,,,,,,,,,,,,,,,,,,,,,,,,,
,,65490721984504b8f8c9d175,2024-02-19_02h07.56.464,kallum_motion_pilot,2023.2.2,Win32,11.04972376,65490721984504b8f8c9d175,65d2b6c8f2eece985d8e374c,65d2b7bd96fa611396bffafb,0.1111,0.1113,0,119,119,22,1,fourtwo,,,,,,,,,,,,,,,,,,,,,,,,,,,,,,,,,,,,,,,,,,,,,,,,,,,,,,,,,,,,,,,,,,,,,,,,,,,,,,,,,,,,,,,,,,,,,,,,,,,,,,,,,,,,,,,,,,,,,,,,,,,,,,,,,,,,,,,,,
,,65490721984504b8f8c9d175,2024-02-19_02h07.56.464,kallum_motion_pilot,2023.2.2,Win32,11.04972376,65490721984504b8f8c9d175,65d2b6c8f2eece985d8e374c,65d2b7bd96fa611396bffafb,0.1116,0.1119,0,120,120,4,1,threeone,,,,,,,,,,,,,,,,,,,,,,,,,,,,,,,,,,,,,,,,,,,,,,,,,,,,,,,,,,,,,,,,,,,,,,,,,,,,,,,,,,,,,,,,,,,,,,,,,,,,,,,,,,,,,,,,,,,,,,,,,,,,,,,,,,,,,,,,,
,,65490721984504b8f8c9d175,2024-02-19_02h07.56.464,kallum_motion_pilot,2023.2.2,Win32,11.04972376,65490721984504b8f8c9d175,65d2b6c8f2eece985d8e374c,65d2b7bd96fa611396bffafb,0.1121,0.1124,0,121,121,30,1,fourtwo,,,,,,,,,,,,,,,,,,,,,,,,,,,,,,,,,,,,,,,,,,,,,,,,,,,,,,,,,,,,,,,,,,,,,,,,,,,,,,,,,,,,,,,,,,,,,,,,,,,,,,,,,,,,,,,,,,,,,,,,,,,,,,,,,,,,,,,,,
,,65490721984504b8f8c9d175,2024-02-19_02h07.56.464,kallum_motion_pilot,2023.2.2,Win32,11.04972376,65490721984504b8f8c9d175,65d2b6c8f2eece985d8e374c,65d2b7bd96fa611396bffafb,0.1132,0.1134,0,122,122,23,1,fourthree,,,,,,,,,,,,,,,,,,,,,,,,,,,,,,,,,,,,,,,,,,,,,,,,,,,,,,,,,,,,,,,,,,,,,,,,,,,,,,,,,,,,,,,,,,,,,,,,,,,,,,,,,,,,,,,,,,,,,,,,,,,,,,,,,,,,,,,,,
,,65490721984504b8f8c9d175,2024-02-19_02h07.56.464,kallum_motion_pilot,2023.2.2,Win32,11.04972376,65490721984504b8f8c9d175,65d2b6c8f2eece985d8e374c,65d2b7bd96fa611396bffafb,0.1137,0.1139,0,123,123,123,1,sixeight,,,,,,,,,,,,,,,,,,,,,,,,,,,,,,,,,,,,,,,,,,,,,,,,,,,,,,,,,,,,,,,,,,,,,,,,,,,,,,,,,,,,,,,,,,,,,,,,,,,,,,,,,,,,,,,,,,,,,,,,,,,,,,,,,,,,,,,,,
,,65490721984504b8f8c9d175,2024-02-19_02h07.56.464,kallum_motion_pilot,2023.2.2,Win32,11.04972376,65490721984504b8f8c9d175,65d2b6c8f2eece985d8e374c,65d2b7bd96fa611396bffafb,0.1141,0.1142,0,124,124,65,1,onethree,,,,,,,,,,,,,,,,,,,,,,,,,,,,,,,,,,,,,,,,,,,,,,,,,,,,,,,,,,,,,,,,,,,,,,,,,,,,,,,,,,,,,,,,,,,,,,,,,,,,,,,,,,,,,,,,,,,,,,,,,,,,,,,,,,,,,,,,,
,,65490721984504b8f8c9d175,2024-02-19_02h07.56.464,kallum_motion_pilot,2023.2.2,Win32,11.04972376,65490721984504b8f8c9d175,65d2b6c8f2eece985d8e374c,65d2b7bd96fa611396bffafb,0.1145,0.1145,0,125,125,140,1,sevenfive,,,,,,,,,,,,,,,,,,,,,,,,,,,,,,,,,,,,,,,,,,,,,,,,,,,,,,,,,,,,,,,,,,,,,,,,,,,,,,,,,,,,,,,,,,,,,,,,,,,,,,,,,,,,,,,,,,,,,,,,,,,,,,,,,,,,,,,,,
,,65490721984504b8f8c9d175,2024-02-19_02h07.56.464,kallum_motion_pilot,2023.2.2,Win32,11.04972376,65490721984504b8f8c9d175,65d2b6c8f2eece985d8e374c,65d2b7bd96fa611396bffafb,0.1148,0.1149,0,126,126,20,1,threeone,,,,,,,,,,,,,,,,,,,,,,,,,,,,,,,,,,,,,,,,,,,,,,,,,,,,,,,,,,,,,,,,,,,,,,,,,,,,,,,,,,,,,,,,,,,,,,,,,,,,,,,,,,,,,,,,,,,,,,,,,,,,,,,,,,,,,,,,,
,,65490721984504b8f8c9d175,2024-02-19_02h07.56.464,kallum_motion_pilot,2023.2.2,Win32,11.04972376,65490721984504b8f8c9d175,65d2b6c8f2eece985d8e374c,65d2b7bd96fa611396bffafb,0.1151,0.1152,0,127,127,16,1,onetwo,,,,,,,,,,,,,,,,,,,,,,,,,,,,,,,,,,,,,,,,,,,,,,,,,,,,,,,,,,,,,,,,,,,,,,,,,,,,,,,,,,,,,,,,,,,,,,,,,,,,,,,,,,,,,,,,,,,,,,,,,,,,,,,,,,,,,,,,,
,,65490721984504b8f8c9d175,2024-02-19_02h07.56.464,kallum_motion_pilot,2023.2.2,Win32,11.04972376,65490721984504b8f8c9d175,65d2b6c8f2eece985d8e374c,65d2b7bd96fa611396bffafb,0.1153,0.1155,0,128,128,160,1,fivesix,,,,,,,,,,,,,,,,,,,,,,,,,,,,,,,,,,,,,,,,,,,,,,,,,,,,,,,,,,,,,,,,,,,,,,,,,,,,,,,,,,,,,,,,,,,,,,,,,,,,,,,,,,,,,,,,,,,,,,,,,,,,,,,,,,,,,,,,,
,,65490721984504b8f8c9d175,2024-02-19_02h07.56.464,kallum_motion_pilot,2023.2.2,Win32,11.04972376,65490721984504b8f8c9d175,65d2b6c8f2eece985d8e374c,65d2b7bd96fa611396bffafb,0.1157,0.1159,0,129,129,40,1,onetwo,,,,,,,,,,,,,,,,,,,,,,,,,,,,,,,,,,,,,,,,,,,,,,,,,,,,,,,,,,,,,,,,,,,,,,,,,,,,,,,,,,,,,,,,,,,,,,,,,,,,,,,,,,,,,,,,,,,,,,,,,,,,,,,,,,,,,,,,,
,,65490721984504b8f8c9d175,2024-02-19_02h07.56.464,kallum_motion_pilot,2023.2.2,Win32,11.04972376,65490721984504b8f8c9d175,65d2b6c8f2eece985d8e374c,65d2b7bd96fa611396bffafb,0.116,0.1161,0,130,130,94,1,eightsix,,,,,,,,,,,,,,,,,,,,,,,,,,,,,,,,,,,,,,,,,,,,,,,,,,,,,,,,,,,,,,,,,,,,,,,,,,,,,,,,,,,,,,,,,,,,,,,,,,,,,,,,,,,,,,,,,,,,,,,,,,,,,,,,,,,,,,,,,
,,65490721984504b8f8c9d175,2024-02-19_02h07.56.464,kallum_motion_pilot,2023.2.2,Win32,11.04972376,65490721984504b8f8c9d175,65d2b6c8f2eece985d8e374c,65d2b7bd96fa611396bffafb,0.1163,0.1164,0,131,131,50,1,twoone,,,,,,,,,,,,,,,,,,,,,,,,,,,,,,,,,,,,,,,,,,,,,,,,,,,,,,,,,,,,,,,,,,,,,,,,,,,,,,,,,,,,,,,,,,,,,,,,,,,,,,,,,,,,,,,,,,,,,,,,,,,,,,,,,,,,,,,,,
,,65490721984504b8f8c9d175,2024-02-19_02h07.56.464,kallum_motion_pilot,2023.2.2,Win32,11.04972376,65490721984504b8f8c9d175,65d2b6c8f2eece985d8e374c,65d2b7bd96fa611396bffafb,0.1165,0.1166,0,132,132,31,1,fourthree,,,,,,,,,,,,,,,,,,,,,,,,,,,,,,,,,,,,,,,,,,,,,,,,,,,,,,,,,,,,,,,,,,,,,,,,,,,,,,,,,,,,,,,,,,,,,,,,,,,,,,,,,,,,,,,,,,,,,,,,,,,,,,,,,,,,,,,,,
,,65490721984504b8f8c9d175,2024-02-19_02h07.56.464,kallum_motion_pilot,2023.2.2,Win32,11.04972376,65490721984504b8f8c9d175,65d2b6c8f2eece985d8e374c,65d2b7bd96fa611396bffafb,0.117,0.1172,0,133,133,52,1,threeone,,,,,,,,,,,,,,,,,,,,,,,,,,,,,,,,,,,,,,,,,,,,,,,,,,,,,,,,,,,,,,,,,,,,,,,,,,,,,,,,,,,,,,,,,,,,,,,,,,,,,,,,,,,,,,,,,,,,,,,,,,,,,,,,,,,,,,,,,
,,65490721984504b8f8c9d175,2024-02-19_02h07.56.464,kallum_motion_pilot,2023.2.2,Win32,11.04972376,65490721984504b8f8c9d175,65d2b6c8f2eece985d8e374c,65d2b7bd96fa611396bffafb,0.1174,0.1176,0,134,134,64,1,onetwo,,,,,,,,,,,,,,,,,,,,,,,,,,,,,,,,,,,,,,,,,,,,,,,,,,,,,,,,,,,,,,,,,,,,,,,,,,,,,,,,,,,,,,,,,,,,,,,,,,,,,,,,,,,,,,,,,,,,,,,,,,,,,,,,,,,,,,,,,
,,65490721984504b8f8c9d175,2024-02-19_02h07.56.464,kallum_motion_pilot,2023.2.2,Win32,11.04972376,65490721984504b8f8c9d175,65d2b6c8f2eece985d8e374c,65d2b7bd96fa611396bffafb,0.1178,0.118,0,135,135,83,1,sixeight,,,,,,,,,,,,,,,,,,,,,,,,,,,,,,,,,,,,,,,,,,,,,,,,,,,,,,,,,,,,,,,,,,,,,,,,,,,,,,,,,,,,,,,,,,,,,,,,,,,,,,,,,,,,,,,,,,,,,,,,,,,,,,,,,,,,,,,,,
,,65490721984504b8f8c9d175,2024-02-19_02h07.56.464,kallum_motion_pilot,2023.2.2,Win32,11.04972376,65490721984504b8f8c9d175,65d2b6c8f2eece985d8e374c,65d2b7bd96fa611396bffafb,0.1182,0.1183,0,136,136,36,1,threeone,,,,,,,,,,,,,,,,,,,,,,,,,,,,,,,,,,,,,,,,,,,,,,,,,,,,,,,,,,,,,,,,,,,,,,,,,,,,,,,,,,,,,,,,,,,,,,,,,,,,,,,,,,,,,,,,,,,,,,,,,,,,,,,,,,,,,,,,,
,,65490721984504b8f8c9d175,2024-02-19_02h07.56.464,kallum_motion_pilot,2023.2.2,Win32,11.04972376,65490721984504b8f8c9d175,65d2b6c8f2eece985d8e374c,65d2b7bd96fa611396bffafb,0.1185,0.1187,0,137,137,26,1,twoone,,,,,,,,,,,,,,,,,,,,,,,,,,,,,,,,,,,,,,,,,,,,,,,,,,,,,,,,,,,,,,,,,,,,,,,,,,,,,,,,,,,,,,,,,,,,,,,,,,,,,,,,,,,,,,,,,,,,,,,,,,,,,,,,,,,,,,,,,
,,65490721984504b8f8c9d175,2024-02-19_02h07.56.464,kallum_motion_pilot,2023.2.2,Win32,11.04972376,65490721984504b8f8c9d175,65d2b6c8f2eece985d8e374c,65d2b7bd96fa611396bffafb,0.119,0.119,0,138,138,110,1,eightsix,,,,,,,,,,,,,,,,,,,,,,,,,,,,,,,,,,,,,,,,,,,,,,,,,,,,,,,,,,,,,,,,,,,,,,,,,,,,,,,,,,,,,,,,,,,,,,,,,,,,,,,,,,,,,,,,,,,,,,,,,,,,,,,,,,,,,,,,,
,,65490721984504b8f8c9d175,2024-02-19_02h07.56.464,kallum_motion_pilot,2023.2.2,Win32,11.04972376,65490721984504b8f8c9d175,65d2b6c8f2eece985d8e374c,65d2b7bd96fa611396bffafb,0.1193,0.1194,0,139,139,21,1,threefour,,,,,,,,,,,,,,,,,,,,,,,,,,,,,,,,,,,,,,,,,,,,,,,,,,,,,,,,,,,,,,,,,,,,,,,,,,,,,,,,,,,,,,,,,,,,,,,,,,,,,,,,,,,,,,,,,,,,,,,,,,,,,,,,,,,,,,,,,
,,65490721984504b8f8c9d175,2024-02-19_02h07.56.464,kallum_motion_pilot,2023.2.2,Win32,11.04972376,65490721984504b8f8c9d175,65d2b6c8f2eece985d8e374c,65d2b7bd96fa611396bffafb,0.1196,0.1198,0,140,140,124,1,sevenfive,,,,,,,,,,,,,,,,,,,,,,,,,,,,,,,,,,,,,,,,,,,,,,,,,,,,,,,,,,,,,,,,,,,,,,,,,,,,,,,,,,,,,,,,,,,,,,,,,,,,,,,,,,,,,,,,,,,,,,,,,,,,,,,,,,,,,,,,,
,,65490721984504b8f8c9d175,2024-02-19_02h07.56.464,kallum_motion_pilot,2023.2.2,Win32,11.04972376,65490721984504b8f8c9d175,65d2b6c8f2eece985d8e374c,65d2b7bd96fa611396bffafb,0.1203,0.1205,0,141,141,139,1,sixeight,,,,,,,,,,,,,,,,,,,,,,,,,,,,,,,,,,,,,,,,,,,,,,,,,,,,,,,,,,,,,,,,,,,,,,,,,,,,,,,,,,,,,,,,,,,,,,,,,,,,,,,,,,,,,,,,,,,,,,,,,,,,,,,,,,,,,,,,,
,,65490721984504b8f8c9d175,2024-02-19_02h07.56.464,kallum_motion_pilot,2023.2.2,Win32,11.04972376,65490721984504b8f8c9d175,65d2b6c8f2eece985d8e374c,65d2b7bd96fa611396bffafb,0.1209,0.121,0,142,142,42,1,twoone,,,,,,,,,,,,,,,,,,,,,,,,,,,,,,,,,,,,,,,,,,,,,,,,,,,,,,,,,,,,,,,,,,,,,,,,,,,,,,,,,,,,,,,,,,,,,,,,,,,,,,,,,,,,,,,,,,,,,,,,,,,,,,,,,,,,,,,,,
,,65490721984504b8f8c9d175,2024-02-19_02h07.56.464,kallum_motion_pilot,2023.2.2,Win32,11.04972376,65490721984504b8f8c9d175,65d2b6c8f2eece985d8e374c,65d2b7bd96fa611396bffafb,0.1212,0.1214,0,143,143,59,1,twofour,,,,,,,,,,,,,,,,,,,,,,,,,,,,,,,,,,,,,,,,,,,,,,,,,,,,,,,,,,,,,,,,,,,,,,,,,,,,,,,,,,,,,,,,,,,,,,,,,,,,,,,,,,,,,,,,,,,,,,,,,,,,,,,,,,,,,,,,,
,,65490721984504b8f8c9d175,2024-02-19_02h07.56.464,kallum_motion_pilot,2023.2.2,Win32,11.04972376,65490721984504b8f8c9d175,65d2b6c8f2eece985d8e374c,65d2b7bd96fa611396bffafb,0.1215,0.1217,0,144,144,120,1,fivesix,,,,,,,,,,,,,,,,,,,,,,,,,,,,,,,,,,,,,,,,,,,,,,,,,,,,,,,,,,,,,,,,,,,,,,,,,,,,,,,,,,,,,,,,,,,,,,,,,,,,,,,,,,,,,,,,,,,,,,,,,,,,,,,,,,,,,,,,,
,,65490721984504b8f8c9d175,2024-02-19_02h07.56.464,kallum_motion_pilot,2023.2.2,Win32,11.04972376,65490721984504b8f8c9d175,65d2b6c8f2eece985d8e374c,65d2b7bd96fa611396bffafb,0.1218,0.1219,0,145,145,111,1,eightseven,,,,,,,,,,,,,,,,,,,,,,,,,,,,,,,,,,,,,,,,,,,,,,,,,,,,,,,,,,,,,,,,,,,,,,,,,,,,,,,,,,,,,,,,,,,,,,,,,,,,,,,,,,,,,,,,,,,,,,,,,,,,,,,,,,,,,,,,,
,,65490721984504b8f8c9d175,2024-02-19_02h07.56.464,kallum_motion_pilot,2023.2.2,Win32,11.04972376,65490721984504b8f8c9d175,65d2b6c8f2eece985d8e374c,65d2b7bd96fa611396bffafb,0.1221,0.1223,0,146,146,61,1,threefour,,,,,,,,,,,,,,,,,,,,,,,,,,,,,,,,,,,,,,,,,,,,,,,,,,,,,,,,,,,,,,,,,,,,,,,,,,,,,,,,,,,,,,,,,,,,,,,,,,,,,,,,,,,,,,,,,,,,,,,,,,,,,,,,,,,,,,,,,
,,65490721984504b8f8c9d175,2024-02-19_02h07.56.464,kallum_motion_pilot,2023.2.2,Win32,11.04972376,65490721984504b8f8c9d175,65d2b6c8f2eece985d8e374c,65d2b7bd96fa611396bffafb,0.1224,0.1225,0,147,147,9,1,onethree,,,,,,,,,,,,,,,,,,,,,,,,,,,,,,,,,,,,,,,,,,,,,,,,,,,,,,,,,,,,,,,,,,,,,,,,,,,,,,,,,,,,,,,,,,,,,,,,,,,,,,,,,,,,,,,,,,,,,,,,,,,,,,,,,,,,,,,,,
,,65490721984504b8f8c9d175,2024-02-19_02h07.56.464,kallum_motion_pilot,2023.2.2,Win32,11.04972376,65490721984504b8f8c9d175,65d2b6c8f2eece985d8e374c,65d2b7bd96fa611396bffafb,0.1227,0.1228,0,148,148,148,1,sevenfive,,,,,,,,,,,,,,,,,,,,,,,,,,,,,,,,,,,,,,,,,,,,,,,,,,,,,,,,,,,,,,,,,,,,,,,,,,,,,,,,,,,,,,,,,,,,,,,,,,,,,,,,,,,,,,,,,,,,,,,,,,,,,,,,,,,,,,,,,
,,65490721984504b8f8c9d175,2024-02-19_02h07.56.464,kallum_motion_pilot,2023.2.2,Win32,11.04972376,65490721984504b8f8c9d175,65d2b6c8f2eece985d8e374c,65d2b7bd96fa611396bffafb,0.123,0.1231,0,149,149,79,1,eightseven,,,,,,,,,,,,,,,,,,,,,,,,,,,,,,,,,,,,,,,,,,,,,,,,,,,,,,,,,,,,,,,,,,,,,,,,,,,,,,,,,,,,,,,,,,,,,,,,,,,,,,,,,,,,,,,,,,,,,,,,,,,,,,,,,,,,,,,,,
,,65490721984504b8f8c9d175,2024-02-19_02h07.56.464,kallum_motion_pilot,2023.2.2,Win32,11.04972376,65490721984504b8f8c9d175,65d2b6c8f2eece985d8e374c,65d2b7bd96fa611396bffafb,0.1232,0.1233,0,150,150,101,1,seveneight,,,,,,,,,,,,,,,,,,,,,,,,,,,,,,,,,,,,,,,,,,,,,,,,,,,,,,,,,,,,,,,,,,,,,,,,,,,,,,,,,,,,,,,,,,,,,,,,,,,,,,,,,,,,,,,,,,,,,,,,,,,,,,,,,,,,,,,,,
,,65490721984504b8f8c9d175,2024-02-19_02h07.56.464,kallum_motion_pilot,2023.2.2,Win32,11.04972376,65490721984504b8f8c9d175,65d2b6c8f2eece985d8e374c,65d2b7bd96fa611396bffafb,0.1235,0.1236,0,151,151,146,1,sixfive,,,,,,,,,,,,,,,,,,,,,,,,,,,,,,,,,,,,,,,,,,,,,,,,,,,,,,,,,,,,,,,,,,,,,,,,,,,,,,,,,,,,,,,,,,,,,,,,,,,,,,,,,,,,,,,,,,,,,,,,,,,,,,,,,,,,,,,,,
,,65490721984504b8f8c9d175,2024-02-19_02h07.56.464,kallum_motion_pilot,2023.2.2,Win32,11.04972376,65490721984504b8f8c9d175,65d2b6c8f2eece985d8e374c,65d2b7bd96fa611396bffafb,0.1238,0.1239,0,152,152,47,1,fourthree,,,,,,,,,,,,,,,,,,,,,,,,,,,,,,,,,,,,,,,,,,,,,,,,,,,,,,,,,,,,,,,,,,,,,,,,,,,,,,,,,,,,,,,,,,,,,,,,,,,,,,,,,,,,,,,,,,,,,,,,,,,,,,,,,,,,,,,,,
,,65490721984504b8f8c9d175,2024-02-19_02h07.56.464,kallum_motion_pilot,2023.2.2,Win32,11.04972376,65490721984504b8f8c9d175,65d2b6c8f2eece985d8e374c,65d2b7bd96fa611396bffafb,0.1241,0.1242,0,153,153,125,1,seveneight,,,,,,,,,,,,,,,,,,,,,,,,,,,,,,,,,,,,,,,,,,,,,,,,,,,,,,,,,,,,,,,,,,,,,,,,,,,,,,,,,,,,,,,,,,,,,,,,,,,,,,,,,,,,,,,,,,,,,,,,,,,,,,,,,,,,,,,,,
,,65490721984504b8f8c9d175,2024-02-19_02h07.56.464,kallum_motion_pilot,2023.2.2,Win32,11.04972376,65490721984504b8f8c9d175,65d2b6c8f2eece985d8e374c,65d2b7bd96fa611396bffafb,0.1243,0.1245,0,154,154,136,1,fivesix,,,,,,,,,,,,,,,,,,,,,,,,,,,,,,,,,,,,,,,,,,,,,,,,,,,,,,,,,,,,,,,,,,,,,,,,,,,,,,,,,,,,,,,,,,,,,,,,,,,,,,,,,,,,,,,,,,,,,,,,,,,,,,,,,,,,,,,,,
,,65490721984504b8f8c9d175,2024-02-19_02h07.56.464,kallum_motion_pilot,2023.2.2,Win32,11.04972376,65490721984504b8f8c9d175,65d2b6c8f2eece985d8e374c,65d2b7bd96fa611396bffafb,0.1246,0.1247,0,155,155,143,1,eightseven,,,,,,,,,,,,,,,,,,,,,,,,,,,,,,,,,,,,,,,,,,,,,,,,,,,,,,,,,,,,,,,,,,,,,,,,,,,,,,,,,,,,,,,,,,,,,,,,,,,,,,,,,,,,,,,,,,,,,,,,,,,,,,,,,,,,,,,,,
,,65490721984504b8f8c9d175,2024-02-19_02h07.56.464,kallum_motion_pilot,2023.2.2,Win32,11.04972376,65490721984504b8f8c9d175,65d2b6c8f2eece985d8e374c,65d2b7bd96fa611396bffafb,0.1249,0.1251,0,156,156,141,1,seveneight,,,,,,,,,,,,,,,,,,,,,,,,,,,,,,,,,,,,,,,,,,,,,,,,,,,,,,,,,,,,,,,,,,,,,,,,,,,,,,,,,,,,,,,,,,,,,,,,,,,,,,,,,,,,,,,,,,,,,,,,,,,,,,,,,,,,,,,,,
,,65490721984504b8f8c9d175,2024-02-19_02h07.56.464,kallum_motion_pilot,2023.2.2,Win32,11.04972376,65490721984504b8f8c9d175,65d2b6c8f2eece985d8e374c,65d2b7bd96fa611396bffafb,0.1252,0.1253,0,157,157,53,1,threefour,,,,,,,,,,,,,,,,,,,,,,,,,,,,,,,,,,,,,,,,,,,,,,,,,,,,,,,,,,,,,,,,,,,,,,,,,,,,,,,,,,,,,,,,,,,,,,,,,,,,,,,,,,,,,,,,,,,,,,,,,,,,,,,,,,,,,,,,,
,,65490721984504b8f8c9d175,2024-02-19_02h07.56.464,kallum_motion_pilot,2023.2.2,Win32,11.04972376,65490721984504b8f8c9d175,65d2b6c8f2eece985d8e374c,65d2b7bd96fa611396bffafb,0.1254,0.1255,0,158,158,100,1,sevenfive,,,,,,,,,,,,,,,,,,,,,,,,,,,,,,,,,,,,,,,,,,,,,,,,,,,,,,,,,,,,,,,,,,,,,,,,,,,,,,,,,,,,,,,,,,,,,,,,,,,,,,,,,,,,,,,,,,,,,,,,,,,,,,,,,,,,,,,,,
,,65490721984504b8f8c9d175,2024-02-19_02h07.56.464,kallum_motion_pilot,2023.2.2,Win32,11.04972376,65490721984504b8f8c9d175,65d2b6c8f2eece985d8e374c,65d2b7bd96fa611396bffafb,0.1257,0.1258,0,159,159,104,1,fivesix,,,,,,,,,,,,,,,,,,,,,,,,,,,,,,,,,,,,,,,,,,,,,,,,,,,,,,,,,,,,,,,,,,,,,,,,,,,,,,,,,,,,,,,,,,,,,,,,,,,,,,,,,,,,,,,,,,,,,,,,,,,,,,,,,,,,,,,,,
,,65490721984504b8f8c9d175,2024-02-19_02h07.56.464,kallum_motion_pilot,2023.2.2,Win32,11.04972376,65490721984504b8f8c9d175,65d2b6c8f2eece985d8e374c,65d2b7bd96fa611396bffafb,0.1275,0.1278,0,160,160,107,1,sixeight,,,,,,,,,,,,,,,,,,,,,,,,,,,,,,,,,,,,,,,,,,,,,,,,,,,,,,,,,,,,,,,,,,,,,,,,,,,,,,,,,,,,,,,,,,,,,,,,,,,,,,,,,,,,,,,,,,,,,,,,,,,,,,,,,,,,,,,,,
,,65490721984504b8f8c9d175,2024-02-19_02h07.56.464,kallum_motion_pilot,2023.2.2,Win32,11.04972376,65490721984504b8f8c9d175,65d2b6c8f2eece985d8e374c,65d2b7bd96fa611396bffafb,0.1281,0.1285,0,161,161,24,1,onetwo,,,,,,,,,,,,,,,,,,,,,,,,,,,,,,,,,,,,,,,,,,,,,,,,,,,,,,,,,,,,,,,,,,,,,,,,,,,,,,,,,,,,,,,,,,,,,,,,,,,,,,,,,,,,,,,,,,,,,,,,,,,,,,,,,,,,,,,,,
,,65490721984504b8f8c9d175,2024-02-19_02h07.56.464,kallum_motion_pilot,2023.2.2,Win32,11.04972376,65490721984504b8f8c9d175,65d2b6c8f2eece985d8e374c,65d2b7bd96fa611396bffafb,0.1288,0.1291,1,0,162,133,1,seveneight,,,,,,,,,,,,,,,,,,,,,,,,,,,,,,,,,,,,,,,,,,,,,,,,,,,,,,,,,,,,,,,,,,,,,,,,,,,,,,,,,,,,,,,,,,,,,,,,,,,,,,,,,,,,,,,,,,,,,,,,,,,,,,,,,,,,,,,,,
,,65490721984504b8f8c9d175,2024-02-19_02h07.56.464,kallum_motion_pilot,2023.2.2,Win32,11.04972376,65490721984504b8f8c9d175,65d2b6c8f2eece985d8e374c,65d2b7bd96fa611396bffafb,0.1294,0.1296,1,1,163,104,1,fivesix,,,,,,,,,,,,,,,,,,,,,,,,,,,,,,,,,,,,,,,,,,,,,,,,,,,,,,,,,,,,,,,,,,,,,,,,,,,,,,,,,,,,,,,,,,,,,,,,,,,,,,,,,,,,,,,,,,,,,,,,,,,,,,,,,,,,,,,,,
,,65490721984504b8f8c9d175,2024-02-19_02h07.56.464,kallum_motion_pilot,2023.2.2,Win32,11.04972376,65490721984504b8f8c9d175,65d2b6c8f2eece985d8e374c,65d2b7bd96fa611396bffafb,0.1299,0.1301,1,2,164,112,1,fivesix,,,,,,,,,,,,,,,,,,,,,,,,,,,,,,,,,,,,,,,,,,,,,,,,,,,,,,,,,,,,,,,,,,,,,,,,,,,,,,,,,,,,,,,,,,,,,,,,,,,,,,,,,,,,,,,,,,,,,,,,,,,,,,,,,,,,,,,,,
,,65490721984504b8f8c9d175,2024-02-19_02h07.56.464,kallum_motion_pilot,2023.2.2,Win32,11.04972376,65490721984504b8f8c9d175,65d2b6c8f2eece985d8e374c,65d2b7bd96fa611396bffafb,0.1304,0.1306,1,3,165,83,1,sixeight,,,,,,,,,,,,,,,,,,,,,,,,,,,,,,,,,,,,,,,,,,,,,,,,,,,,,,,,,,,,,,,,,,,,,,,,,,,,,,,,,,,,,,,,,,,,,,,,,,,,,,,,,,,,,,,,,,,,,,,,,,,,,,,,,,,,,,,,,
,,65490721984504b8f8c9d175,2024-02-19_02h07.56.464,kallum_motion_pilot,2023.2.2,Win32,11.04972376,65490721984504b8f8c9d175,65d2b6c8f2eece985d8e374c,65d2b7bd96fa611396bffafb,0.1308,0.131,1,4,166,152,1,fivesix,,,,,,,,,,,,,,,,,,,,,,,,,,,,,,,,,,,,,,,,,,,,,,,,,,,,,,,,,,,,,,,,,,,,,,,,,,,,,,,,,,,,,,,,,,,,,,,,,,,,,,,,,,,,,,,,,,,,,,,,,,,,,,,,,,,,,,,,,
,,65490721984504b8f8c9d175,2024-02-19_02h07.56.464,kallum_motion_pilot,2023.2.2,Win32,11.04972376,65490721984504b8f8c9d175,65d2b6c8f2eece985d8e374c,65d2b7bd96fa611396bffafb,0.1313,0.1316,1,5,167,75,1,twofour,,,,,,,,,,,,,,,,,,,,,,,,,,,,,,,,,,,,,,,,,,,,,,,,,,,,,,,,,,,,,,,,,,,,,,,,,,,,,,,,,,,,,,,,,,,,,,,,,,,,,,,,,,,,,,,,,,,,,,,,,,,,,,,,,,,,,,,,,
,,65490721984504b8f8c9d175,2024-02-19_02h07.56.464,kallum_motion_pilot,2023.2.2,Win32,11.04972376,65490721984504b8f8c9d175,65d2b6c8f2eece985d8e374c,65d2b7bd96fa611396bffafb,0.1318,0.132,1,6,168,41,1,onethree,,,,,,,,,,,,,,,,,,,,,,,,,,,,,,,,,,,,,,,,,,,,,,,,,,,,,,,,,,,,,,,,,,,,,,,,,,,,,,,,,,,,,,,,,,,,,,,,,,,,,,,,,,,,,,,,,,,,,,,,,,,,,,,,,,,,,,,,,
,,65490721984504b8f8c9d175,2024-02-19_02h07.56.464,kallum_motion_pilot,2023.2.2,Win32,11.04972376,65490721984504b8f8c9d175,65d2b6c8f2eece985d8e374c,65d2b7bd96fa611396bffafb,0.1324,0.1325,1,7,169,14,1,fourtwo,,,,,,,,,,,,,,,,,,,,,,,,,,,,,,,,,,,,,,,,,,,,,,,,,,,,,,,,,,,,,,,,,,,,,,,,,,,,,,,,,,,,,,,,,,,,,,,,,,,,,,,,,,,,,,,,,,,,,,,,,,,,,,,,,,,,,,,,,
,,65490721984504b8f8c9d175,2024-02-19_02h07.56.464,kallum_motion_pilot,2023.2.2,Win32,11.04972376,65490721984504b8f8c9d175,65d2b6c8f2eece985d8e374c,65d2b7bd96fa611396bffafb,0.1328,0.1331,1,8,170,52,1,threeone,,,,,,,,,,,,,,,,,,,,,,,,,,,,,,,,,,,,,,,,,,,,,,,,,,,,,,,,,,,,,,,,,,,,,,,,,,,,,,,,,,,,,,,,,,,,,,,,,,,,,,,,,,,,,,,,,,,,,,,,,,,,,,,,,,,,,,,,,
,,65490721984504b8f8c9d175,2024-02-19_02h07.56.464,kallum_motion_pilot,2023.2.2,Win32,11.04972376,65490721984504b8f8c9d175,65d2b6c8f2eece985d8e374c,65d2b7bd96fa611396bffafb,0.1333,0.1336,1,9,171,74,1,twoone,,,,,,,,,,,,,,,,,,,,,,,,,,,,,,,,,,,,,,,,,,,,,,,,,,,,,,,,,,,,,,,,,,,,,,,,,,,,,,,,,,,,,,,,,,,,,,,,,,,,,,,,,,,,,,,,,,,,,,,,,,,,,,,,,,,,,,,,,
,,65490721984504b8f8c9d175,2024-02-19_02h07.56.464,kallum_motion_pilot,2023.2.2,Win32,11.04972376,65490721984504b8f8c9d175,65d2b6c8f2eece985d8e374c,65d2b7bd96fa611396bffafb,0.1341,0.1345,1,10,172,160,1,fivesix,,,,,,,,,,,,,,,,,,,,,,,,,,,,,,,,,,,,,,,,,,,,,,,,,,,,,,,,,,,,,,,,,,,,,,,,,,,,,,,,,,,,,,,,,,,,,,,,,,,,,,,,,,,,,,,,,,,,,,,,,,,,,,,,,,,,,,,,,
,,65490721984504b8f8c9d175,2024-02-19_02h07.56.464,kallum_motion_pilot,2023.2.2,Win32,11.04972376,65490721984504b8f8c9d175,65d2b6c8f2eece985d8e374c,65d2b7bd96fa611396bffafb,0.1348,0.135,1,11,173,49,1,onethree,,,,,,,,,,,,,,,,,,,,,,,,,,,,,,,,,,,,,,,,,,,,,,,,,,,,,,,,,,,,,,,,,,,,,,,,,,,,,,,,,,,,,,,,,,,,,,,,,,,,,,,,,,,,,,,,,,,,,,,,,,,,,,,,,,,,,,,,,
,,65490721984504b8f8c9d175,2024-02-19_02h07.56.464,kallum_motion_pilot,2023.2.2,Win32,11.04972376,65490721984504b8f8c9d175,65d2b6c8f2eece985d8e374c,65d2b7bd96fa611396bffafb,0.1352,0.1354,1,12,174,118,1,eightsix,,,,,,,,,,,,,,,,,,,,,,,,,,,,,,,,,,,,,,,,,,,,,,,,,,,,,,,,,,,,,,,,,,,,,,,,,,,,,,,,,,,,,,,,,,,,,,,,,,,,,,,,,,,,,,,,,,,,,,,,,,,,,,,,,,,,,,,,,
,,65490721984504b8f8c9d175,2024-02-19_02h07.56.464,kallum_motion_pilot,2023.2.2,Win32,11.04972376,65490721984504b8f8c9d175,65d2b6c8f2eece985d8e374c,65d2b7bd96fa611396bffafb,0.1357,0.1358,1,13,175,77,1,threefour,,,,,,,,,,,,,,,,,,,,,,,,,,,,,,,,,,,,,,,,,,,,,,,,,,,,,,,,,,,,,,,,,,,,,,,,,,,,,,,,,,,,,,,,,,,,,,,,,,,,,,,,,,,,,,,,,,,,,,,,,,,,,,,,,,,,,,,,,
,,65490721984504b8f8c9d175,2024-02-19_02h07.56.464,kallum_motion_pilot,2023.2.2,Win32,11.04972376,65490721984504b8f8c9d175,65d2b6c8f2eece985d8e374c,65d2b7bd96fa611396bffafb,0.136,0.1362,1,14,176,155,1,sixeight,,,,,,,,,,,,,,,,,,,,,,,,,,,,,,,,,,,,,,,,,,,,,,,,,,,,,,,,,,,,,,,,,,,,,,,,,,,,,,,,,,,,,,,,,,,,,,,,,,,,,,,,,,,,,,,,,,,,,,,,,,,,,,,,,,,,,,,,,
,,65490721984504b8f8c9d175,2024-02-19_02h07.56.464,kallum_motion_pilot,2023.2.2,Win32,11.04972376,65490721984504b8f8c9d175,65d2b6c8f2eece985d8e374c,65d2b7bd96fa611396bffafb,0.1364,0.1366,1,15,177,11,1,twofour,,,,,,,,,,,,,,,,,,,,,,,,,,,,,,,,,,,,,,,,,,,,,,,,,,,,,,,,,,,,,,,,,,,,,,,,,,,,,,,,,,,,,,,,,,,,,,,,,,,,,,,,,,,,,,,,,,,,,,,,,,,,,,,,,,,,,,,,,
,,65490721984504b8f8c9d175,2024-02-19_02h07.56.464,kallum_motion_pilot,2023.2.2,Win32,11.04972376,65490721984504b8f8c9d175,65d2b6c8f2eece985d8e374c,65d2b7bd96fa611396bffafb,0.1368,0.1371,1,16,178,13,1,threefour,,,,,,,,,,,,,,,,,,,,,,,,,,,,,,,,,,,,,,,,,,,,,,,,,,,,,,,,,,,,,,,,,,,,,,,,,,,,,,,,,,,,,,,,,,,,,,,,,,,,,,,,,,,,,,,,,,,,,,,,,,,,,,,,,,,,,,,,,
,,65490721984504b8f8c9d175,2024-02-19_02h07.56.464,kallum_motion_pilot,2023.2.2,Win32,11.04972376,65490721984504b8f8c9d175,65d2b6c8f2eece985d8e374c,65d2b7bd96fa611396bffafb,0.1372,0.1374,1,17,179,31,1,fourthree,,,,,,,,,,,,,,,,,,,,,,,,,,,,,,,,,,,,,,,,,,,,,,,,,,,,,,,,,,,,,,,,,,,,,,,,,,,,,,,,,,,,,,,,,,,,,,,,,,,,,,,,,,,,,,,,,,,,,,,,,,,,,,,,,,,,,,,,,
,,65490721984504b8f8c9d175,2024-02-19_02h07.56.464,kallum_motion_pilot,2023.2.2,Win32,11.04972376,65490721984504b8f8c9d175,65d2b6c8f2eece985d8e374c,65d2b7bd96fa611396bffafb,0.1377,0.138,1,18,180,119,1,eightseven,,,,,,,,,,,,,,,,,,,,,,,,,,,,,,,,,,,,,,,,,,,,,,,,,,,,,,,,,,,,,,,,,,,,,,,,,,,,,,,,,,,,,,,,,,,,,,,,,,,,,,,,,,,,,,,,,,,,,,,,,,,,,,,,,,,,,,,,,
,,65490721984504b8f8c9d175,2024-02-19_02h07.56.464,kallum_motion_pilot,2023.2.2,Win32,11.04972376,65490721984504b8f8c9d175,65d2b6c8f2eece985d8e374c,65d2b7bd96fa611396bffafb,0.1381,0.1383,1,19,181,26,1,twoone,,,,,,,,,,,,,,,,,,,,,,,,,,,,,,,,,,,,,,,,,,,,,,,,,,,,,,,,,,,,,,,,,,,,,,,,,,,,,,,,,,,,,,,,,,,,,,,,,,,,,,,,,,,,,,,,,,,,,,,,,,,,,,,,,,,,,,,,,
,,65490721984504b8f8c9d175,2024-02-19_02h07.56.464,kallum_motion_pilot,2023.2.2,Win32,11.04972376,65490721984504b8f8c9d175,65d2b6c8f2eece985d8e374c,65d2b7bd96fa611396bffafb,0.1385,0.1386,1,20,182,69,1,threefour,,,,,,,,,,,,,,,,,,,,,,,,,,,,,,,,,,,,,,,,,,,,,,,,,,,,,,,,,,,,,,,,,,,,,,,,,,,,,,,,,,,,,,,,,,,,,,,,,,,,,,,,,,,,,,,,,,,,,,,,,,,,,,,,,,,,,,,,,
,,65490721984504b8f8c9d175,2024-02-19_02h07.56.464,kallum_motion_pilot,2023.2.2,Win32,11.04972376,65490721984504b8f8c9d175,65d2b6c8f2eece985d8e374c,65d2b7bd96fa611396bffafb,0.1388,0.1389,1,21,183,143,1,eightseven,,,,,,,,,,,,,,,,,,,,,,,,,,,,,,,,,,,,,,,,,,,,,,,,,,,,,,,,,,,,,,,,,,,,,,,,,,,,,,,,,,,,,,,,,,,,,,,,,,,,,,,,,,,,,,,,,,,,,,,,,,,,,,,,,,,,,,,,,
,,65490721984504b8f8c9d175,2024-02-19_02h07.56.464,kallum_motion_pilot,2023.2.2,Win32,11.04972376,65490721984504b8f8c9d175,65d2b6c8f2eece985d8e374c,65d2b7bd96fa611396bffafb,0.1392,0.1395,1,22,184,32,1,onetwo,,,,,,,,,,,,,,,,,,,,,,,,,,,,,,,,,,,,,,,,,,,,,,,,,,,,,,,,,,,,,,,,,,,,,,,,,,,,,,,,,,,,,,,,,,,,,,,,,,,,,,,,,,,,,,,,,,,,,,,,,,,,,,,,,,,,,,,,,
,,65490721984504b8f8c9d175,2024-02-19_02h07.56.464,kallum_motion_pilot,2023.2.2,Win32,11.04972376,65490721984504b8f8c9d175,65d2b6c8f2eece985d8e374c,65d2b7bd96fa611396bffafb,0.1398,0.14,1,23,185,72,1,onetwo,,,,,,,,,,,,,,,,,,,,,,,,,,,,,,,,,,,,,,,,,,,,,,,,,,,,,,,,,,,,,,,,,,,,,,,,,,,,,,,,,,,,,,,,,,,,,,,,,,,,,,,,,,,,,,,,,,,,,,,,,,,,,,,,,,,,,,,,,
,,65490721984504b8f8c9d175,2024-02-19_02h07.56.464,kallum_motion_pilot,2023.2.2,Win32,11.04972376,65490721984504b8f8c9d175,65d2b6c8f2eece985d8e374c,65d2b7bd96fa611396bffafb,0.1404,0.1407,1,24,186,58,1,twoone,,,,,,,,,,,,,,,,,,,,,,,,,,,,,,,,,,,,,,,,,,,,,,,,,,,,,,,,,,,,,,,,,,,,,,,,,,,,,,,,,,,,,,,,,,,,,,,,,,,,,,,,,,,,,,,,,,,,,,,,,,,,,,,,,,,,,,,,,
,,65490721984504b8f8c9d175,2024-02-19_02h07.56.464,kallum_motion_pilot,2023.2.2,Win32,11.04972376,65490721984504b8f8c9d175,65d2b6c8f2eece985d8e374c,65d2b7bd96fa611396bffafb,0.1413,0.1415,1,25,187,103,1,eightseven,,,,,,,,,,,,,,,,,,,,,,,,,,,,,,,,,,,,,,,,,,,,,,,,,,,,,,,,,,,,,,,,,,,,,,,,,,,,,,,,,,,,,,,,,,,,,,,,,,,,,,,,,,,,,,,,,,,,,,,,,,,,,,,,,,,,,,,,,
,,65490721984504b8f8c9d175,2024-02-19_02h07.56.464,kallum_motion_pilot,2023.2.2,Win32,11.04972376,65490721984504b8f8c9d175,65d2b6c8f2eece985d8e374c,65d2b7bd96fa611396bffafb,0.1417,0.1419,1,26,188,78,1,fourtwo,,,,,,,,,,,,,,,,,,,,,,,,,,,,,,,,,,,,,,,,,,,,,,,,,,,,,,,,,,,,,,,,,,,,,,,,,,,,,,,,,,,,,,,,,,,,,,,,,,,,,,,,,,,,,,,,,,,,,,,,,,,,,,,,,,,,,,,,,
,,65490721984504b8f8c9d175,2024-02-19_02h07.56.464,kallum_motion_pilot,2023.2.2,Win32,11.04972376,65490721984504b8f8c9d175,65d2b6c8f2eece985d8e374c,65d2b7bd96fa611396bffafb,0.1421,0.1422,1,27,189,93,1,seveneight,,,,,,,,,,,,,,,,,,,,,,,,,,,,,,,,,,,,,,,,,,,,,,,,,,,,,,,,,,,,,,,,,,,,,,,,,,,,,,,,,,,,,,,,,,,,,,,,,,,,,,,,,,,,,,,,,,,,,,,,,,,,,,,,,,,,,,,,,
,,65490721984504b8f8c9d175,2024-02-19_02h07.56.464,kallum_motion_pilot,2023.2.2,Win32,11.04972376,65490721984504b8f8c9d175,65d2b6c8f2eece985d8e374c,65d2b7bd96fa611396bffafb,0.1423,0.1426,1,28,190,116,1,sevenfive,,,,,,,,,,,,,,,,,,,,,,,,,,,,,,,,,,,,,,,,,,,,,,,,,,,,,,,,,,,,,,,,,,,,,,,,,,,,,,,,,,,,,,,,,,,,,,,,,,,,,,,,,,,,,,,,,,,,,,,,,,,,,,,,,,,,,,,,,
,,65490721984504b8f8c9d175,2024-02-19_02h07.56.464,kallum_motion_pilot,2023.2.2,Win32,11.04972376,65490721984504b8f8c9d175,65d2b6c8f2eece985d8e374c,65d2b7bd96fa611396bffafb,0.1427,0.1428,1,29,191,76,1,threeone,,,,,,,,,,,,,,,,,,,,,,,,,,,,,,,,,,,,,,,,,,,,,,,,,,,,,,,,,,,,,,,,,,,,,,,,,,,,,,,,,,,,,,,,,,,,,,,,,,,,,,,,,,,,,,,,,,,,,,,,,,,,,,,,,,,,,,,,,
,,65490721984504b8f8c9d175,2024-02-19_02h07.56.464,kallum_motion_pilot,2023.2.2,Win32,11.04972376,65490721984504b8f8c9d175,65d2b6c8f2eece985d8e374c,65d2b7bd96fa611396bffafb,0.143,0.1431,1,30,192,55,1,fourthree,,,,,,,,,,,,,,,,,,,,,,,,,,,,,,,,,,,,,,,,,,,,,,,,,,,,,,,,,,,,,,,,,,,,,,,,,,,,,,,,,,,,,,,,,,,,,,,,,,,,,,,,,,,,,,,,,,,,,,,,,,,,,,,,,,,,,,,,,
,,65490721984504b8f8c9d175,2024-02-19_02h07.56.464,kallum_motion_pilot,2023.2.2,Win32,11.04972376,65490721984504b8f8c9d175,65d2b6c8f2eece985d8e374c,65d2b7bd96fa611396bffafb,0.1433,0.1434,1,31,193,82,1,sixfive,,,,,,,,,,,,,,,,,,,,,,,,,,,,,,,,,,,,,,,,,,,,,,,,,,,,,,,,,,,,,,,,,,,,,,,,,,,,,,,,,,,,,,,,,,,,,,,,,,,,,,,,,,,,,,,,,,,,,,,,,,,,,,,,,,,,,,,,,
,,65490721984504b8f8c9d175,2024-02-19_02h07.56.464,kallum_motion_pilot,2023.2.2,Win32,11.04972376,65490721984504b8f8c9d175,65d2b6c8f2eece985d8e374c,65d2b7bd96fa611396bffafb,0.1436,0.1437,1,32,194,91,1,sixeight,,,,,,,,,,,,,,,,,,,,,,,,,,,,,,,,,,,,,,,,,,,,,,,,,,,,,,,,,,,,,,,,,,,,,,,,,,,,,,,,,,,,,,,,,,,,,,,,,,,,,,,,,,,,,,,,,,,,,,,,,,,,,,,,,,,,,,,,,
,,65490721984504b8f8c9d175,2024-02-19_02h07.56.464,kallum_motion_pilot,2023.2.2,Win32,11.04972376,65490721984504b8f8c9d175,65d2b6c8f2eece985d8e374c,65d2b7bd96fa611396bffafb,0.1439,0.144,1,33,195,29,1,threefour,,,,,,,,,,,,,,,,,,,,,,,,,,,,,,,,,,,,,,,,,,,,,,,,,,,,,,,,,,,,,,,,,,,,,,,,,,,,,,,,,,,,,,,,,,,,,,,,,,,,,,,,,,,,,,,,,,,,,,,,,,,,,,,,,,,,,,,,,
,,65490721984504b8f8c9d175,2024-02-19_02h07.56.464,kallum_motion_pilot,2023.2.2,Win32,11.04972376,65490721984504b8f8c9d175,65d2b6c8f2eece985d8e374c,65d2b7bd96fa611396bffafb,0.1441,0.1443,1,34,196,95,1,eightseven,,,,,,,,,,,,,,,,,,,,,,,,,,,,,,,,,,,,,,,,,,,,,,,,,,,,,,,,,,,,,,,,,,,,,,,,,,,,,,,,,,,,,,,,,,,,,,,,,,,,,,,,,,,,,,,,,,,,,,,,,,,,,,,,,,,,,,,,,
,,65490721984504b8f8c9d175,2024-02-19_02h07.56.464,kallum_motion_pilot,2023.2.2,Win32,11.04972376,65490721984504b8f8c9d175,65d2b6c8f2eece985d8e374c,65d2b7bd96fa611396bffafb,0.1444,0.1446,1,35,197,140,1,sevenfive,,,,,,,,,,,,,,,,,,,,,,,,,,,,,,,,,,,,,,,,,,,,,,,,,,,,,,,,,,,,,,,,,,,,,,,,,,,,,,,,,,,,,,,,,,,,,,,,,,,,,,,,,,,,,,,,,,,,,,,,,,,,,,,,,,,,,,,,,
,,65490721984504b8f8c9d175,2024-02-19_02h07.56.464,kallum_motion_pilot,2023.2.2,Win32,11.04972376,65490721984504b8f8c9d175,65d2b6c8f2eece985d8e374c,65d2b7bd96fa611396bffafb,0.1448,0.145,1,36,198,102,1,eightsix,,,,,,,,,,,,,,,,,,,,,,,,,,,,,,,,,,,,,,,,,,,,,,,,,,,,,,,,,,,,,,,,,,,,,,,,,,,,,,,,,,,,,,,,,,,,,,,,,,,,,,,,,,,,,,,,,,,,,,,,,,,,,,,,,,,,,,,,,
,,65490721984504b8f8c9d175,2024-02-19_02h07.56.464,kallum_motion_pilot,2023.2.2,Win32,11.04972376,65490721984504b8f8c9d175,65d2b6c8f2eece985d8e374c,65d2b7bd96fa611396bffafb,0.1451,0.1453,1,37,199,115,1,sixeight,,,,,,,,,,,,,,,,,,,,,,,,,,,,,,,,,,,,,,,,,,,,,,,,,,,,,,,,,,,,,,,,,,,,,,,,,,,,,,,,,,,,,,,,,,,,,,,,,,,,,,,,,,,,,,,,,,,,,,,,,,,,,,,,,,,,,,,,,
,,65490721984504b8f8c9d175,2024-02-19_02h07.56.464,kallum_motion_pilot,2023.2.2,Win32,11.04972376,65490721984504b8f8c9d175,65d2b6c8f2eece985d8e374c,65d2b7bd96fa611396bffafb,0.1455,0.1456,1,38,200,84,1,sevenfive,,,,,,,,,,,,,,,,,,,,,,,,,,,,,,,,,,,,,,,,,,,,,,,,,,,,,,,,,,,,,,,,,,,,,,,,,,,,,,,,,,,,,,,,,,,,,,,,,,,,,,,,,,,,,,,,,,,,,,,,,,,,,,,,,,,,,,,,,
,,65490721984504b8f8c9d175,2024-02-19_02h07.56.464,kallum_motion_pilot,2023.2.2,Win32,11.04972376,65490721984504b8f8c9d175,65d2b6c8f2eece985d8e374c,65d2b7bd96fa611396bffafb,0.1458,0.146,1,39,201,113,1,fiveseven,,,,,,,,,,,,,,,,,,,,,,,,,,,,,,,,,,,,,,,,,,,,,,,,,,,,,,,,,,,,,,,,,,,,,,,,,,,,,,,,,,,,,,,,,,,,,,,,,,,,,,,,,,,,,,,,,,,,,,,,,,,,,,,,,,,,,,,,,
,,65490721984504b8f8c9d175,2024-02-19_02h07.56.464,kallum_motion_pilot,2023.2.2,Win32,11.04972376,65490721984504b8f8c9d175,65d2b6c8f2eece985d8e374c,65d2b7bd96fa611396bffafb,0.1461,0.1462,1,40,202,34,1,twoone,,,,,,,,,,,,,,,,,,,,,,,,,,,,,,,,,,,,,,,,,,,,,,,,,,,,,,,,,,,,,,,,,,,,,,,,,,,,,,,,,,,,,,,,,,,,,,,,,,,,,,,,,,,,,,,,,,,,,,,,,,,,,,,,,,,,,,,,,
,,65490721984504b8f8c9d175,2024-02-19_02h07.56.464,kallum_motion_pilot,2023.2.2,Win32,11.04972376,65490721984504b8f8c9d175,65d2b6c8f2eece985d8e374c,65d2b7bd96fa611396bffafb,0.1464,0.1465,1,41,203,38,1,fourtwo,,,,,,,,,,,,,,,,,,,,,,,,,,,,,,,,,,,,,,,,,,,,,,,,,,,,,,,,,,,,,,,,,,,,,,,,,,,,,,,,,,,,,,,,,,,,,,,,,,,,,,,,,,,,,,,,,,,,,,,,,,,,,,,,,,,,,,,,,
,,65490721984504b8f8c9d175,2024-02-19_02h07.56.464,kallum_motion_pilot,2023.2.2,Win32,11.04972376,65490721984504b8f8c9d175,65d2b6c8f2eece985d8e374c,65d2b7bd96fa611396bffafb,0.1467,0.1469,1,42,204,134,1,eightsix,,,,,,,,,,,,,,,,,,,,,,,,,,,,,,,,,,,,,,,,,,,,,,,,,,,,,,,,,,,,,,,,,,,,,,,,,,,,,,,,,,,,,,,,,,,,,,,,,,,,,,,,,,,,,,,,,,,,,,,,,,,,,,,,,,,,,,,,,
,,65490721984504b8f8c9d175,2024-02-19_02h07.56.464,kallum_motion_pilot,2023.2.2,Win32,11.04972376,65490721984504b8f8c9d175,65d2b6c8f2eece985d8e374c,65d2b7bd96fa611396bffafb,0.147,0.1471,1,43,205,97,1,fiveseven,,,,,,,,,,,,,,,,,,,,,,,,,,,,,,,,,,,,,,,,,,,,,,,,,,,,,,,,,,,,,,,,,,,,,,,,,,,,,,,,,,,,,,,,,,,,,,,,,,,,,,,,,,,,,,,,,,,,,,,,,,,,,,,,,,,,,,,,,
,,65490721984504b8f8c9d175,2024-02-19_02h07.56.464,kallum_motion_pilot,2023.2.2,Win32,11.04972376,65490721984504b8f8c9d175,65d2b6c8f2eece985d8e374c,65d2b7bd96fa611396bffafb,0.1473,0.1475,1,44,206,25,1,onethree,,,,,,,,,,,,,,,,,,,,,,,,,,,,,,,,,,,,,,,,,,,,,,,,,,,,,,,,,,,,,,,,,,,,,,,,,,,,,,,,,,,,,,,,,,,,,,,,,,,,,,,,,,,,,,,,,,,,,,,,,,,,,,,,,,,,,,,,,
,,65490721984504b8f8c9d175,2024-02-19_02h07.56.464,kallum_motion_pilot,2023.2.2,Win32,11.04972376,65490721984504b8f8c9d175,65d2b6c8f2eece985d8e374c,65d2b7bd96fa611396bffafb,0.1476,0.1481,1,45,207,146,1,sixfive,,,,,,,,,,,,,,,,,,,,,,,,,,,,,,,,,,,,,,,,,,,,,,,,,,,,,,,,,,,,,,,,,,,,,,,,,,,,,,,,,,,,,,,,,,,,,,,,,,,,,,,,,,,,,,,,,,,,,,,,,,,,,,,,,,,,,,,,,
,,65490721984504b8f8c9d175,2024-02-19_02h07.56.464,kallum_motion_pilot,2023.2.2,Win32,11.04972376,65490721984504b8f8c9d175,65d2b6c8f2eece985d8e374c,65d2b7bd96fa611396bffafb,0.1485,0.1488,1,46,208,117,1,seveneight,,,,,,,,,,,,,,,,,,,,,,,,,,,,,,,,,,,,,,,,,,,,,,,,,,,,,,,,,,,,,,,,,,,,,,,,,,,,,,,,,,,,,,,,,,,,,,,,,,,,,,,,,,,,,,,,,,,,,,,,,,,,,,,,,,,,,,,,,
,,65490721984504b8f8c9d175,2024-02-19_02h07.56.464,kallum_motion_pilot,2023.2.2,Win32,11.04972376,65490721984504b8f8c9d175,65d2b6c8f2eece985d8e374c,65d2b7bd96fa611396bffafb,0.1492,0.1494,1,47,209,124,1,sevenfive,,,,,,,,,,,,,,,,,,,,,,,,,,,,,,,,,,,,,,,,,,,,,,,,,,,,,,,,,,,,,,,,,,,,,,,,,,,,,,,,,,,,,,,,,,,,,,,,,,,,,,,,,,,,,,,,,,,,,,,,,,,,,,,,,,,,,,,,,
,,65490721984504b8f8c9d175,2024-02-19_02h07.56.464,kallum_motion_pilot,2023.2.2,Win32,11.04972376,65490721984504b8f8c9d175,65d2b6c8f2eece985d8e374c,65d2b7bd96fa611396bffafb,0.1497,0.15,1,48,210,96,1,fivesix,,,,,,,,,,,,,,,,,,,,,,,,,,,,,,,,,,,,,,,,,,,,,,,,,,,,,,,,,,,,,,,,,,,,,,,,,,,,,,,,,,,,,,,,,,,,,,,,,,,,,,,,,,,,,,,,,,,,,,,,,,,,,,,,,,,,,,,,,
,,65490721984504b8f8c9d175,2024-02-19_02h07.56.464,kallum_motion_pilot,2023.2.2,Win32,11.04972376,65490721984504b8f8c9d175,65d2b6c8f2eece985d8e374c,65d2b7bd96fa611396bffafb,0.1503,0.1506,1,49,211,128,1,fivesix,,,,,,,,,,,,,,,,,,,,,,,,,,,,,,,,,,,,,,,,,,,,,,,,,,,,,,,,,,,,,,,,,,,,,,,,,,,,,,,,,,,,,,,,,,,,,,,,,,,,,,,,,,,,,,,,,,,,,,,,,,,,,,,,,,,,,,,,,
,,65490721984504b8f8c9d175,2024-02-19_02h07.56.464,kallum_motion_pilot,2023.2.2,Win32,11.04972376,65490721984504b8f8c9d175,65d2b6c8f2eece985d8e374c,65d2b7bd96fa611396bffafb,0.1509,0.1511,1,50,212,114,1,sixfive,,,,,,,,,,,,,,,,,,,,,,,,,,,,,,,,,,,,,,,,,,,,,,,,,,,,,,,,,,,,,,,,,,,,,,,,,,,,,,,,,,,,,,,,,,,,,,,,,,,,,,,,,,,,,,,,,,,,,,,,,,,,,,,,,,,,,,,,,
,,65490721984504b8f8c9d175,2024-02-19_02h07.56.464,kallum_motion_pilot,2023.2.2,Win32,11.04972376,65490721984504b8f8c9d175,65d2b6c8f2eece985d8e374c,65d2b7bd96fa611396bffafb,0.1514,0.1517,1,51,213,9,1,onethree,,,,,,,,,,,,,,,,,,,,,,,,,,,,,,,,,,,,,,,,,,,,,,,,,,,,,,,,,,,,,,,,,,,,,,,,,,,,,,,,,,,,,,,,,,,,,,,,,,,,,,,,,,,,,,,,,,,,,,,,,,,,,,,,,,,,,,,,,
,,65490721984504b8f8c9d175,2024-02-19_02h07.56.464,kallum_motion_pilot,2023.2.2,Win32,11.04972376,65490721984504b8f8c9d175,65d2b6c8f2eece985d8e374c,65d2b7bd96fa611396bffafb,0.1519,0.1522,1,52,214,21,1,threefour,,,,,,,,,,,,,,,,,,,,,,,,,,,,,,,,,,,,,,,,,,,,,,,,,,,,,,,,,,,,,,,,,,,,,,,,,,,,,,,,,,,,,,,,,,,,,,,,,,,,,,,,,,,,,,,,,,,,,,,,,,,,,,,,,,,,,,,,,
,,65490721984504b8f8c9d175,2024-02-19_02h07.56.464,kallum_motion_pilot,2023.2.2,Win32,11.04972376,65490721984504b8f8c9d175,65d2b6c8f2eece985d8e374c,65d2b7bd96fa611396bffafb,0.1525,0.1526,1,53,215,139,1,sixeight,,,,,,,,,,,,,,,,,,,,,,,,,,,,,,,,,,,,,,,,,,,,,,,,,,,,,,,,,,,,,,,,,,,,,,,,,,,,,,,,,,,,,,,,,,,,,,,,,,,,,,,,,,,,,,,,,,,,,,,,,,,,,,,,,,,,,,,,,
,,65490721984504b8f8c9d175,2024-02-19_02h07.56.464,kallum_motion_pilot,2023.2.2,Win32,11.04972376,65490721984504b8f8c9d175,65d2b6c8f2eece985d8e374c,65d2b7bd96fa611396bffafb,0.1529,0.1531,1,54,216,126,1,eightsix,,,,,,,,,,,,,,,,,,,,,,,,,,,,,,,,,,,,,,,,,,,,,,,,,,,,,,,,,,,,,,,,,,,,,,,,,,,,,,,,,,,,,,,,,,,,,,,,,,,,,,,,,,,,,,,,,,,,,,,,,,,,,,,,,,,,,,,,,
,,65490721984504b8f8c9d175,2024-02-19_02h07.56.464,kallum_motion_pilot,2023.2.2,Win32,11.04972376,65490721984504b8f8c9d175,65d2b6c8f2eece985d8e374c,65d2b7bd96fa611396bffafb,0.1534,0.1537,1,55,217,120,1,fivesix,,,,,,,,,,,,,,,,,,,,,,,,,,,,,,,,,,,,,,,,,,,,,,,,,,,,,,,,,,,,,,,,,,,,,,,,,,,,,,,,,,,,,,,,,,,,,,,,,,,,,,,,,,,,,,,,,,,,,,,,,,,,,,,,,,,,,,,,,
,,65490721984504b8f8c9d175,2024-02-19_02h07.56.464,kallum_motion_pilot,2023.2.2,Win32,11.04972376,65490721984504b8f8c9d175,65d2b6c8f2eece985d8e374c,65d2b7bd96fa611396bffafb,0.154,0.1543,1,56,218,24,1,onetwo,,,,,,,,,,,,,,,,,,,,,,,,,,,,,,,,,,,,,,,,,,,,,,,,,,,,,,,,,,,,,,,,,,,,,,,,,,,,,,,,,,,,,,,,,,,,,,,,,,,,,,,,,,,,,,,,,,,,,,,,,,,,,,,,,,,,,,,,,
,,65490721984504b8f8c9d175,2024-02-19_02h07.56.464,kallum_motion_pilot,2023.2.2,Win32,11.04972376,65490721984504b8f8c9d175,65d2b6c8f2eece985d8e374c,65d2b7bd96fa611396bffafb,0.1545,0.1551,1,57,219,145,1,fiveseven,,,,,,,,,,,,,,,,,,,,,,,,,,,,,,,,,,,,,,,,,,,,,,,,,,,,,,,,,,,,,,,,,,,,,,,,,,,,,,,,,,,,,,,,,,,,,,,,,,,,,,,,,,,,,,,,,,,,,,,,,,,,,,,,,,,,,,,,,
,,65490721984504b8f8c9d175,2024-02-19_02h07.56.464,kallum_motion_pilot,2023.2.2,Win32,11.04972376,65490721984504b8f8c9d175,65d2b6c8f2eece985d8e374c,65d2b7bd96fa611396bffafb,0.1555,0.1559,1,58,220,92,1,sevenfive,,,,,,,,,,,,,,,,,,,,,,,,,,,,,,,,,,,,,,,,,,,,,,,,,,,,,,,,,,,,,,,,,,,,,,,,,,,,,,,,,,,,,,,,,,,,,,,,,,,,,,,,,,,,,,,,,,,,,,,,,,,,,,,,,,,,,,,,,
,,65490721984504b8f8c9d175,2024-02-19_02h07.56.464,kallum_motion_pilot,2023.2.2,Win32,11.04972376,65490721984504b8f8c9d175,65d2b6c8f2eece985d8e374c,65d2b7bd96fa611396bffafb,0.1561,0.1564,1,59,221,39,1,fourthree,,,,,,,,,,,,,,,,,,,,,,,,,,,,,,,,,,,,,,,,,,,,,,,,,,,,,,,,,,,,,,,,,,,,,,,,,,,,,,,,,,,,,,,,,,,,,,,,,,,,,,,,,,,,,,,,,,,,,,,,,,,,,,,,,,,,,,,,,
,,65490721984504b8f8c9d175,2024-02-19_02h07.56.464,kallum_motion_pilot,2023.2.2,Win32,11.04972376,65490721984504b8f8c9d175,65d2b6c8f2eece985d8e374c,65d2b7bd96fa611396bffafb,0.1567,0.157,1,60,222,89,1,fiveseven,,,,,,,,,,,,,,,,,,,,,,,,,,,,,,,,,,,,,,,,,,,,,,,,,,,,,,,,,,,,,,,,,,,,,,,,,,,,,,,,,,,,,,,,,,,,,,,,,,,,,,,,,,,,,,,,,,,,,,,,,,,,,,,,,,,,,,,,,
,,65490721984504b8f8c9d175,2024-02-19_02h07.56.464,kallum_motion_pilot,2023.2.2,Win32,11.04972376,65490721984504b8f8c9d175,65d2b6c8f2eece985d8e374c,65d2b7bd96fa611396bffafb,0.1572,0.1576,1,61,223,85,1,seveneight,,,,,,,,,,,,,,,,,,,,,,,,,,,,,,,,,,,,,,,,,,,,,,,,,,,,,,,,,,,,,,,,,,,,,,,,,,,,,,,,,,,,,,,,,,,,,,,,,,,,,,,,,,,,,,,,,,,,,,,,,,,,,,,,,,,,,,,,,
,,65490721984504b8f8c9d175,2024-02-19_02h07.56.464,kallum_motion_pilot,2023.2.2,Win32,11.04972376,65490721984504b8f8c9d175,65d2b6c8f2eece985d8e374c,65d2b7bd96fa611396bffafb,0.1578,0.1581,1,62,224,156,1,sevenfive,,,,,,,,,,,,,,,,,,,,,,,,,,,,,,,,,,,,,,,,,,,,,,,,,,,,,,,,,,,,,,,,,,,,,,,,,,,,,,,,,,,,,,,,,,,,,,,,,,,,,,,,,,,,,,,,,,,,,,,,,,,,,,,,,,,,,,,,,
,,65490721984504b8f8c9d175,2024-02-19_02h07.56.464,kallum_motion_pilot,2023.2.2,Win32,11.04972376,65490721984504b8f8c9d175,65d2b6c8f2eece985d8e374c,65d2b7bd96fa611396bffafb,0.1584,0.1586,1,63,225,153,1,fiveseven,,,,,,,,,,,,,,,,,,,,,,,,,,,,,,,,,,,,,,,,,,,,,,,,,,,,,,,,,,,,,,,,,,,,,,,,,,,,,,,,,,,,,,,,,,,,,,,,,,,,,,,,,,,,,,,,,,,,,,,,,,,,,,,,,,,,,,,,,
,,65490721984504b8f8c9d175,2024-02-19_02h07.56.464,kallum_motion_pilot,2023.2.2,Win32,11.04972376,65490721984504b8f8c9d175,65d2b6c8f2eece985d8e374c,65d2b7bd96fa611396bffafb,0.1589,0.1593,1,64,226,108,1,sevenfive,,,,,,,,,,,,,,,,,,,,,,,,,,,,,,,,,,,,,,,,,,,,,,,,,,,,,,,,,,,,,,,,,,,,,,,,,,,,,,,,,,,,,,,,,,,,,,,,,,,,,,,,,,,,,,,,,,,,,,,,,,,,,,,,,,,,,,,,,
,,65490721984504b8f8c9d175,2024-02-19_02h07.56.464,kallum_motion_pilot,2023.2.2,Win32,11.04972376,65490721984504b8f8c9d175,65d2b6c8f2eece985d8e374c,65d2b7bd96fa611396bffafb,0.1595,0.1598,1,65,227,1,1,onethree,,,,,,,,,,,,,,,,,,,,,,,,,,,,,,,,,,,,,,,,,,,,,,,,,,,,,,,,,,,,,,,,,,,,,,,,,,,,,,,,,,,,,,,,,,,,,,,,,,,,,,,,,,,,,,,,,,,,,,,,,,,,,,,,,,,,,,,,,
,,65490721984504b8f8c9d175,2024-02-19_02h07.56.464,kallum_motion_pilot,2023.2.2,Win32,11.04972376,65490721984504b8f8c9d175,65d2b6c8f2eece985d8e374c,65d2b7bd96fa611396bffafb,0.1601,0.1604,1,66,228,125,1,seveneight,,,,,,,,,,,,,,,,,,,,,,,,,,,,,,,,,,,,,,,,,,,,,,,,,,,,,,,,,,,,,,,,,,,,,,,,,,,,,,,,,,,,,,,,,,,,,,,,,,,,,,,,,,,,,,,,,,,,,,,,,,,,,,,,,,,,,,,,,
,,65490721984504b8f8c9d175,2024-02-19_02h07.56.464,kallum_motion_pilot,2023.2.2,Win32,11.04972376,65490721984504b8f8c9d175,65d2b6c8f2eece985d8e374c,65d2b7bd96fa611396bffafb,0.1607,0.161,1,67,229,42,1,twoone,,,,,,,,,,,,,,,,,,,,,,,,,,,,,,,,,,,,,,,,,,,,,,,,,,,,,,,,,,,,,,,,,,,,,,,,,,,,,,,,,,,,,,,,,,,,,,,,,,,,,,,,,,,,,,,,,,,,,,,,,,,,,,,,,,,,,,,,,
,,65490721984504b8f8c9d175,2024-02-19_02h07.56.464,kallum_motion_pilot,2023.2.2,Win32,11.04972376,65490721984504b8f8c9d175,65d2b6c8f2eece985d8e374c,65d2b7bd96fa611396bffafb,0.1612,0.1615,1,68,230,56,1,onetwo,,,,,,,,,,,,,,,,,,,,,,,,,,,,,,,,,,,,,,,,,,,,,,,,,,,,,,,,,,,,,,,,,,,,,,,,,,,,,,,,,,,,,,,,,,,,,,,,,,,,,,,,,,,,,,,,,,,,,,,,,,,,,,,,,,,,,,,,,
,,65490721984504b8f8c9d175,2024-02-19_02h07.56.464,kallum_motion_pilot,2023.2.2,Win32,11.04972376,65490721984504b8f8c9d175,65d2b6c8f2eece985d8e374c,65d2b7bd96fa611396bffafb,0.1622,0.1624,1,69,231,30,1,fourtwo,,,,,,,,,,,,,,,,,,,,,,,,,,,,,,,,,,,,,,,,,,,,,,,,,,,,,,,,,,,,,,,,,,,,,,,,,,,,,,,,,,,,,,,,,,,,,,,,,,,,,,,,,,,,,,,,,,,,,,,,,,,,,,,,,,,,,,,,,
,,65490721984504b8f8c9d175,2024-02-19_02h07.56.464,kallum_motion_pilot,2023.2.2,Win32,11.04972376,65490721984504b8f8c9d175,65d2b6c8f2eece985d8e374c,65d2b7bd96fa611396bffafb,0.1628,0.1631,1,70,232,158,1,eightsix,,,,,,,,,,,,,,,,,,,,,,,,,,,,,,,,,,,,,,,,,,,,,,,,,,,,,,,,,,,,,,,,,,,,,,,,,,,,,,,,,,,,,,,,,,,,,,,,,,,,,,,,,,,,,,,,,,,,,,,,,,,,,,,,,,,,,,,,,
,,65490721984504b8f8c9d175,2024-02-19_02h07.56.464,kallum_motion_pilot,2023.2.2,Win32,11.04972376,65490721984504b8f8c9d175,65d2b6c8f2eece985d8e374c,65d2b7bd96fa611396bffafb,0.1634,0.1637,1,71,233,4,1,threeone,,,,,,,,,,,,,,,,,,,,,,,,,,,,,,,,,,,,,,,,,,,,,,,,,,,,,,,,,,,,,,,,,,,,,,,,,,,,,,,,,,,,,,,,,,,,,,,,,,,,,,,,,,,,,,,,,,,,,,,,,,,,,,,,,,,,,,,,,
,,65490721984504b8f8c9d175,2024-02-19_02h07.56.464,kallum_motion_pilot,2023.2.2,Win32,11.04972376,65490721984504b8f8c9d175,65d2b6c8f2eece985d8e374c,65d2b7bd96fa611396bffafb,0.1639,0.1642,1,72,234,57,1,onethree,,,,,,,,,,,,,,,,,,,,,,,,,,,,,,,,,,,,,,,,,,,,,,,,,,,,,,,,,,,,,,,,,,,,,,,,,,,,,,,,,,,,,,,,,,,,,,,,,,,,,,,,,,,,,,,,,,,,,,,,,,,,,,,,,,,,,,,,,
,,65490721984504b8f8c9d175,2024-02-19_02h07.56.464,kallum_motion_pilot,2023.2.2,Win32,11.04972376,65490721984504b8f8c9d175,65d2b6c8f2eece985d8e374c,65d2b7bd96fa611396bffafb,0.1645,0.1648,1,73,235,109,1,seveneight,,,,,,,,,,,,,,,,,,,,,,,,,,,,,,,,,,,,,,,,,,,,,,,,,,,,,,,,,,,,,,,,,,,,,,,,,,,,,,,,,,,,,,,,,,,,,,,,,,,,,,,,,,,,,,,,,,,,,,,,,,,,,,,,,,,,,,,,,
,,65490721984504b8f8c9d175,2024-02-19_02h07.56.464,kallum_motion_pilot,2023.2.2,Win32,11.04972376,65490721984504b8f8c9d175,65d2b6c8f2eece985d8e374c,65d2b7bd96fa611396bffafb,0.165,0.1654,1,74,236,138,1,sixfive,,,,,,,,,,,,,,,,,,,,,,,,,,,,,,,,,,,,,,,,,,,,,,,,,,,,,,,,,,,,,,,,,,,,,,,,,,,,,,,,,,,,,,,,,,,,,,,,,,,,,,,,,,,,,,,,,,,,,,,,,,,,,,,,,,,,,,,,,
,,65490721984504b8f8c9d175,2024-02-19_02h07.56.464,kallum_motion_pilot,2023.2.2,Win32,11.04972376,65490721984504b8f8c9d175,65d2b6c8f2eece985d8e374c,65d2b7bd96fa611396bffafb,0.1656,0.1659,1,75,237,131,1,sixeight,,,,,,,,,,,,,,,,,,,,,,,,,,,,,,,,,,,,,,,,,,,,,,,,,,,,,,,,,,,,,,,,,,,,,,,,,,,,,,,,,,,,,,,,,,,,,,,,,,,,,,,,,,,,,,,,,,,,,,,,,,,,,,,,,,,,,,,,,
,,65490721984504b8f8c9d175,2024-02-19_02h07.56.464,kallum_motion_pilot,2023.2.2,Win32,11.04972376,65490721984504b8f8c9d175,65d2b6c8f2eece985d8e374c,65d2b7bd96fa611396bffafb,0.1661,0.1664,1,76,238,50,1,twoone,,,,,,,,,,,,,,,,,,,,,,,,,,,,,,,,,,,,,,,,,,,,,,,,,,,,,,,,,,,,,,,,,,,,,,,,,,,,,,,,,,,,,,,,,,,,,,,,,,,,,,,,,,,,,,,,,,,,,,,,,,,,,,,,,,,,,,,,,
,,65490721984504b8f8c9d175,2024-02-19_02h07.56.464,kallum_motion_pilot,2023.2.2,Win32,11.04972376,65490721984504b8f8c9d175,65d2b6c8f2eece985d8e374c,65d2b7bd96fa611396bffafb,0.1666,0.1669,1,77,239,150,1,eightsix,,,,,,,,,,,,,,,,,,,,,,,,,,,,,,,,,,,,,,,,,,,,,,,,,,,,,,,,,,,,,,,,,,,,,,,,,,,,,,,,,,,,,,,,,,,,,,,,,,,,,,,,,,,,,,,,,,,,,,,,,,,,,,,,,,,,,,,,,
,,65490721984504b8f8c9d175,2024-02-19_02h07.56.464,kallum_motion_pilot,2023.2.2,Win32,11.04972376,65490721984504b8f8c9d175,65d2b6c8f2eece985d8e374c,65d2b7bd96fa611396bffafb,0.1671,0.1675,1,78,240,122,1,sixfive,,,,,,,,,,,,,,,,,,,,,,,,,,,,,,,,,,,,,,,,,,,,,,,,,,,,,,,,,,,,,,,,,,,,,,,,,,,,,,,,,,,,,,,,,,,,,,,,,,,,,,,,,,,,,,,,,,,,,,,,,,,,,,,,,,,,,,,,,
,,65490721984504b8f8c9d175,2024-02-19_02h07.56.464,kallum_motion_pilot,2023.2.2,Win32,11.04972376,65490721984504b8f8c9d175,65d2b6c8f2eece985d8e374c,65d2b7bd96fa611396bffafb,0.1678,0.168,1,79,241,22,1,fourtwo,,,,,,,,,,,,,,,,,,,,,,,,,,,,,,,,,,,,,,,,,,,,,,,,,,,,,,,,,,,,,,,,,,,,,,,,,,,,,,,,,,,,,,,,,,,,,,,,,,,,,,,,,,,,,,,,,,,,,,,,,,,,,,,,,,,,,,,,,
,,65490721984504b8f8c9d175,2024-02-19_02h07.56.464,kallum_motion_pilot,2023.2.2,Win32,11.04972376,65490721984504b8f8c9d175,65d2b6c8f2eece985d8e374c,65d2b7bd96fa611396bffafb,0.1683,0.1689,1,80,242,98,1,sixfive,,,,,,,,,,,,,,,,,,,,,,,,,,,,,,,,,,,,,,,,,,,,,,,,,,,,,,,,,,,,,,,,,,,,,,,,,,,,,,,,,,,,,,,,,,,,,,,,,,,,,,,,,,,,,,,,,,,,,,,,,,,,,,,,,,,,,,,,,
,,65490721984504b8f8c9d175,2024-02-19_02h07.56.464,kallum_motion_pilot,2023.2.2,Win32,11.04972376,65490721984504b8f8c9d175,65d2b6c8f2eece985d8e374c,65d2b7bd96fa611396bffafb,0.1691,0.1695,1,81,243,87,1,eightseven,,,,,,,,,,,,,,,,,,,,,,,,,,,,,,,,,,,,,,,,,,,,,,,,,,,,,,,,,,,,,,,,,,,,,,,,,,,,,,,,,,,,,,,,,,,,,,,,,,,,,,,,,,,,,,,,,,,,,,,,,,,,,,,,,,,,,,,,,
,,65490721984504b8f8c9d175,2024-02-19_02h07.56.464,kallum_motion_pilot,2023.2.2,Win32,11.04972376,65490721984504b8f8c9d175,65d2b6c8f2eece985d8e374c,65d2b7bd96fa611396bffafb,0.1697,0.17,1,82,244,101,1,seveneight,,,,,,,,,,,,,,,,,,,,,,,,,,,,,,,,,,,,,,,,,,,,,,,,,,,,,,,,,,,,,,,,,,,,,,,,,,,,,,,,,,,,,,,,,,,,,,,,,,,,,,,,,,,,,,,,,,,,,,,,,,,,,,,,,,,,,,,,,
,,65490721984504b8f8c9d175,2024-02-19_02h07.56.464,kallum_motion_pilot,2023.2.2,Win32,11.04972376,65490721984504b8f8c9d175,65d2b6c8f2eece985d8e374c,65d2b7bd96fa611396bffafb,0.1702,0.1705,1,83,245,37,1,threefour,,,,,,,,,,,,,,,,,,,,,,,,,,,,,,,,,,,,,,,,,,,,,,,,,,,,,,,,,,,,,,,,,,,,,,,,,,,,,,,,,,,,,,,,,,,,,,,,,,,,,,,,,,,,,,,,,,,,,,,,,,,,,,,,,,,,,,,,,
,,65490721984504b8f8c9d175,2024-02-19_02h07.56.464,kallum_motion_pilot,2023.2.2,Win32,11.04972376,65490721984504b8f8c9d175,65d2b6c8f2eece985d8e374c,65d2b7bd96fa611396bffafb,0.1708,0.1711,1,84,246,3,1,twofour,,,,,,,,,,,,,,,,,,,,,,,,,,,,,,,,,,,,,,,,,,,,,,,,,,,,,,,,,,,,,,,,,,,,,,,,,,,,,,,,,,,,,,,,,,,,,,,,,,,,,,,,,,,,,,,,,,,,,,,,,,,,,,,,,,,,,,,,,
,,65490721984504b8f8c9d175,2024-02-19_02h07.56.464,kallum_motion_pilot,2023.2.2,Win32,11.04972376,65490721984504b8f8c9d175,65d2b6c8f2eece985d8e374c,65d2b7bd96fa611396bffafb,0.1714,0.1717,1,85,247,65,1,onethree,,,,,,,,,,,,,,,,,,,,,,,,,,,,,,,,,,,,,,,,,,,,,,,,,,,,,,,,,,,,,,,,,,,,,,,,,,,,,,,,,,,,,,,,,,,,,,,,,,,,,,,,,,,,,,,,,,,,,,,,,,,,,,,,,,,,,,,,,
,,65490721984504b8f8c9d175,2024-02-19_02h07.56.464,kallum_motion_pilot,2023.2.2,Win32,11.04972376,65490721984504b8f8c9d175,65d2b6c8f2eece985d8e374c,65d2b7bd96fa611396bffafb,0.1719,0.1722,1,86,248,59,1,twofour,,,,,,,,,,,,,,,,,,,,,,,,,,,,,,,,,,,,,,,,,,,,,,,,,,,,,,,,,,,,,,,,,,,,,,,,,,,,,,,,,,,,,,,,,,,,,,,,,,,,,,,,,,,,,,,,,,,,,,,,,,,,,,,,,,,,,,,,,
,,65490721984504b8f8c9d175,2024-02-19_02h07.56.464,kallum_motion_pilot,2023.2.2,Win32,11.04972376,65490721984504b8f8c9d175,65d2b6c8f2eece985d8e374c,65d2b7bd96fa611396bffafb,0.1725,0.1727,1,87,249,137,1,fiveseven,,,,,,,,,,,,,,,,,,,,,,,,,,,,,,,,,,,,,,,,,,,,,,,,,,,,,,,,,,,,,,,,,,,,,,,,,,,,,,,,,,,,,,,,,,,,,,,,,,,,,,,,,,,,,,,,,,,,,,,,,,,,,,,,,,,,,,,,,
,,65490721984504b8f8c9d175,2024-02-19_02h07.56.464,kallum_motion_pilot,2023.2.2,Win32,11.04972376,65490721984504b8f8c9d175,65d2b6c8f2eece985d8e374c,65d2b7bd96fa611396bffafb,0.173,0.1732,1,88,250,144,1,fivesix,,,,,,,,,,,,,,,,,,,,,,,,,,,,,,,,,,,,,,,,,,,,,,,,,,,,,,,,,,,,,,,,,,,,,,,,,,,,,,,,,,,,,,,,,,,,,,,,,,,,,,,,,,,,,,,,,,,,,,,,,,,,,,,,,,,,,,,,,
,,65490721984504b8f8c9d175,2024-02-19_02h07.56.464,kallum_motion_pilot,2023.2.2,Win32,11.04972376,65490721984504b8f8c9d175,65d2b6c8f2eece985d8e374c,65d2b7bd96fa611396bffafb,0.1735,0.1738,1,89,251,127,1,eightseven,,,,,,,,,,,,,,,,,,,,,,,,,,,,,,,,,,,,,,,,,,,,,,,,,,,,,,,,,,,,,,,,,,,,,,,,,,,,,,,,,,,,,,,,,,,,,,,,,,,,,,,,,,,,,,,,,,,,,,,,,,,,,,,,,,,,,,,,,
,,65490721984504b8f8c9d175,2024-02-19_02h07.56.464,kallum_motion_pilot,2023.2.2,Win32,11.04972376,65490721984504b8f8c9d175,65d2b6c8f2eece985d8e374c,65d2b7bd96fa611396bffafb,0.174,0.1743,1,90,252,47,1,fourthree,,,,,,,,,,,,,,,,,,,,,,,,,,,,,,,,,,,,,,,,,,,,,,,,,,,,,,,,,,,,,,,,,,,,,,,,,,,,,,,,,,,,,,,,,,,,,,,,,,,,,,,,,,,,,,,,,,,,,,,,,,,,,,,,,,,,,,,,,
,,65490721984504b8f8c9d175,2024-02-19_02h07.56.464,kallum_motion_pilot,2023.2.2,Win32,11.04972376,65490721984504b8f8c9d175,65d2b6c8f2eece985d8e374c,65d2b7bd96fa611396bffafb,0.1746,0.1749,1,91,253,7,1,fourthree,,,,,,,,,,,,,,,,,,,,,,,,,,,,,,,,,,,,,,,,,,,,,,,,,,,,,,,,,,,,,,,,,,,,,,,,,,,,,,,,,,,,,,,,,,,,,,,,,,,,,,,,,,,,,,,,,,,,,,,,,,,,,,,,,,,,,,,,,
,,65490721984504b8f8c9d175,2024-02-19_02h07.56.464,kallum_motion_pilot,2023.2.2,Win32,11.04972376,65490721984504b8f8c9d175,65d2b6c8f2eece985d8e374c,65d2b7bd96fa611396bffafb,0.1752,0.1756,1,92,254,129,1,fiveseven,,,,,,,,,,,,,,,,,,,,,,,,,,,,,,,,,,,,,,,,,,,,,,,,,,,,,,,,,,,,,,,,,,,,,,,,,,,,,,,,,,,,,,,,,,,,,,,,,,,,,,,,,,,,,,,,,,,,,,,,,,,,,,,,,,,,,,,,,
,,65490721984504b8f8c9d175,2024-02-19_02h07.56.464,kallum_motion_pilot,2023.2.2,Win32,11.04972376,65490721984504b8f8c9d175,65d2b6c8f2eece985d8e374c,65d2b7bd96fa611396bffafb,0.1761,0.1765,1,93,255,46,1,fourtwo,,,,,,,,,,,,,,,,,,,,,,,,,,,,,,,,,,,,,,,,,,,,,,,,,,,,,,,,,,,,,,,,,,,,,,,,,,,,,,,,,,,,,,,,,,,,,,,,,,,,,,,,,,,,,,,,,,,,,,,,,,,,,,,,,,,,,,,,,
,,65490721984504b8f8c9d175,2024-02-19_02h07.56.464,kallum_motion_pilot,2023.2.2,Win32,11.04972376,65490721984504b8f8c9d175,65d2b6c8f2eece985d8e374c,65d2b7bd96fa611396bffafb,0.1768,0.1771,1,94,256,44,1,threeone,,,,,,,,,,,,,,,,,,,,,,,,,,,,,,,,,,,,,,,,,,,,,,,,,,,,,,,,,,,,,,,,,,,,,,,,,,,,,,,,,,,,,,,,,,,,,,,,,,,,,,,,,,,,,,,,,,,,,,,,,,,,,,,,,,,,,,,,,
,,65490721984504b8f8c9d175,2024-02-19_02h07.56.464,kallum_motion_pilot,2023.2.2,Win32,11.04972376,65490721984504b8f8c9d175,65d2b6c8f2eece985d8e374c,65d2b7bd96fa611396bffafb,0.1772,0.1775,1,95,257,10,1,twoone,,,,,,,,,,,,,,,,,,,,,,,,,,,,,,,,,,,,,,,,,,,,,,,,,,,,,,,,,,,,,,,,,,,,,,,,,,,,,,,,,,,,,,,,,,,,,,,,,,,,,,,,,,,,,,,,,,,,,,,,,,,,,,,,,,,,,,,,,
,,65490721984504b8f8c9d175,2024-02-19_02h07.56.464,kallum_motion_pilot,2023.2.2,Win32,11.04972376,65490721984504b8f8c9d175,65d2b6c8f2eece985d8e374c,65d2b7bd96fa611396bffafb,0.1778,0.1781,1,96,258,17,1,onethree,,,,,,,,,,,,,,,,,,,,,,,,,,,,,,,,,,,,,,,,,,,,,,,,,,,,,,,,,,,,,,,,,,,,,,,,,,,,,,,,,,,,,,,,,,,,,,,,,,,,,,,,,,,,,,,,,,,,,,,,,,,,,,,,,,,,,,,,,
,,65490721984504b8f8c9d175,2024-02-19_02h07.56.464,kallum_motion_pilot,2023.2.2,Win32,11.04972376,65490721984504b8f8c9d175,65d2b6c8f2eece985d8e374c,65d2b7bd96fa611396bffafb,0.1783,0.1787,1,97,259,73,1,onethree,,,,,,,,,,,,,,,,,,,,,,,,,,,,,,,,,,,,,,,,,,,,,,,,,,,,,,,,,,,,,,,,,,,,,,,,,,,,,,,,,,,,,,,,,,,,,,,,,,,,,,,,,,,,,,,,,,,,,,,,,,,,,,,,,,,,,,,,,
,,65490721984504b8f8c9d175,2024-02-19_02h07.56.464,kallum_motion_pilot,2023.2.2,Win32,11.04972376,65490721984504b8f8c9d175,65d2b6c8f2eece985d8e374c,65d2b7bd96fa611396bffafb,0.1789,0.1792,1,98,260,121,1,fiveseven,,,,,,,,,,,,,,,,,,,,,,,,,,,,,,,,,,,,,,,,,,,,,,,,,,,,,,,,,,,,,,,,,,,,,,,,,,,,,,,,,,,,,,,,,,,,,,,,,,,,,,,,,,,,,,,,,,,,,,,,,,,,,,,,,,,,,,,,,
,,65490721984504b8f8c9d175,2024-02-19_02h07.56.464,kallum_motion_pilot,2023.2.2,Win32,11.04972376,65490721984504b8f8c9d175,65d2b6c8f2eece985d8e374c,65d2b7bd96fa611396bffafb,0.1794,0.1797,1,99,261,105,1,fiveseven,,,,,,,,,,,,,,,,,,,,,,,,,,,,,,,,,,,,,,,,,,,,,,,,,,,,,,,,,,,,,,,,,,,,,,,,,,,,,,,,,,,,,,,,,,,,,,,,,,,,,,,,,,,,,,,,,,,,,,,,,,,,,,,,,,,,,,,,,
,,65490721984504b8f8c9d175,2024-02-19_02h07.56.464,kallum_motion_pilot,2023.2.2,Win32,11.04972376,65490721984504b8f8c9d175,65d2b6c8f2eece985d8e374c,65d2b7bd96fa611396bffafb,0.18,0.1803,1,100,262,132,1,sevenfive,,,,,,,,,,,,,,,,,,,,,,,,,,,,,,,,,,,,,,,,,,,,,,,,,,,,,,,,,,,,,,,,,,,,,,,,,,,,,,,,,,,,,,,,,,,,,,,,,,,,,,,,,,,,,,,,,,,,,,,,,,,,,,,,,,,,,,,,,
,,65490721984504b8f8c9d175,2024-02-19_02h07.56.464,kallum_motion_pilot,2023.2.2,Win32,11.04972376,65490721984504b8f8c9d175,65d2b6c8f2eece985d8e374c,65d2b7bd96fa611396bffafb,0.1805,0.1808,1,101,263,45,1,threefour,,,,,,,,,,,,,,,,,,,,,,,,,,,,,,,,,,,,,,,,,,,,,,,,,,,,,,,,,,,,,,,,,,,,,,,,,,,,,,,,,,,,,,,,,,,,,,,,,,,,,,,,,,,,,,,,,,,,,,,,,,,,,,,,,,,,,,,,,
,,65490721984504b8f8c9d175,2024-02-19_02h07.56.464,kallum_motion_pilot,2023.2.2,Win32,11.04972376,65490721984504b8f8c9d175,65d2b6c8f2eece985d8e374c,65d2b7bd96fa611396bffafb,0.1812,0.1814,1,102,264,6,1,fourtwo,,,,,,,,,,,,,,,,,,,,,,,,,,,,,,,,,,,,,,,,,,,,,,,,,,,,,,,,,,,,,,,,,,,,,,,,,,,,,,,,,,,,,,,,,,,,,,,,,,,,,,,,,,,,,,,,,,,,,,,,,,,,,,,,,,,,,,,,,
,,65490721984504b8f8c9d175,2024-02-19_02h07.56.464,kallum_motion_pilot,2023.2.2,Win32,11.04972376,65490721984504b8f8c9d175,65d2b6c8f2eece985d8e374c,65d2b7bd96fa611396bffafb,0.1818,0.1822,1,103,265,66,1,twoone,,,,,,,,,,,,,,,,,,,,,,,,,,,,,,,,,,,,,,,,,,,,,,,,,,,,,,,,,,,,,,,,,,,,,,,,,,,,,,,,,,,,,,,,,,,,,,,,,,,,,,,,,,,,,,,,,,,,,,,,,,,,,,,,,,,,,,,,,
,,65490721984504b8f8c9d175,2024-02-19_02h07.56.464,kallum_motion_pilot,2023.2.2,Win32,11.04972376,65490721984504b8f8c9d175,65d2b6c8f2eece985d8e374c,65d2b7bd96fa611396bffafb,0.1826,0.183,1,104,266,86,1,eightsix,,,,,,,,,,,,,,,,,,,,,,,,,,,,,,,,,,,,,,,,,,,,,,,,,,,,,,,,,,,,,,,,,,,,,,,,,,,,,,,,,,,,,,,,,,,,,,,,,,,,,,,,,,,,,,,,,,,,,,,,,,,,,,,,,,,,,,,,,
,,65490721984504b8f8c9d175,2024-02-19_02h07.56.464,kallum_motion_pilot,2023.2.2,Win32,11.04972376,65490721984504b8f8c9d175,65d2b6c8f2eece985d8e374c,65d2b7bd96fa611396bffafb,0.1833,0.1836,1,105,267,123,1,sixeight,,,,,,,,,,,,,,,,,,,,,,,,,,,,,,,,,,,,,,,,,,,,,,,,,,,,,,,,,,,,,,,,,,,,,,,,,,,,,,,,,,,,,,,,,,,,,,,,,,,,,,,,,,,,,,,,,,,,,,,,,,,,,,,,,,,,,,,,,
,,65490721984504b8f8c9d175,2024-02-19_02h07.56.464,kallum_motion_pilot,2023.2.2,Win32,11.04972376,65490721984504b8f8c9d175,65d2b6c8f2eece985d8e374c,65d2b7bd96fa611396bffafb,0.1839,0.1842,1,106,268,36,1,threeone,,,,,,,,,,,,,,,,,,,,,,,,,,,,,,,,,,,,,,,,,,,,,,,,,,,,,,,,,,,,,,,,,,,,,,,,,,,,,,,,,,,,,,,,,,,,,,,,,,,,,,,,,,,,,,,,,,,,,,,,,,,,,,,,,,,,,,,,,
,,65490721984504b8f8c9d175,2024-02-19_02h07.56.464,kallum_motion_pilot,2023.2.2,Win32,11.04972376,65490721984504b8f8c9d175,65d2b6c8f2eece985d8e374c,65d2b7bd96fa611396bffafb,0.1845,0.1847,1,107,269,40,1,onetwo,,,,,,,,,,,,,,,,,,,,,,,,,,,,,,,,,,,,,,,,,,,,,,,,,,,,,,,,,,,,,,,,,,,,,,,,,,,,,,,,,,,,,,,,,,,,,,,,,,,,,,,,,,,,,,,,,,,,,,,,,,,,,,,,,,,,,,,,,
,,65490721984504b8f8c9d175,2024-02-19_02h07.56.464,kallum_motion_pilot,2023.2.2,Win32,11.04972376,65490721984504b8f8c9d175,65d2b6c8f2eece985d8e374c,65d2b7bd96fa611396bffafb,0.185,0.1852,1,108,270,2,1,twoone,,,,,,,,,,,,,,,,,,,,,,,,,,,,,,,,,,,,,,,,,,,,,,,,,,,,,,,,,,,,,,,,,,,,,,,,,,,,,,,,,,,,,,,,,,,,,,,,,,,,,,,,,,,,,,,,,,,,,,,,,,,,,,,,,,,,,,,,,
,,65490721984504b8f8c9d175,2024-02-19_02h07.56.464,kallum_motion_pilot,2023.2.2,Win32,11.04972376,65490721984504b8f8c9d175,65d2b6c8f2eece985d8e374c,65d2b7bd96fa611396bffafb,0.1856,0.1858,1,109,271,79,1,eightseven,,,,,,,,,,,,,,,,,,,,,,,,,,,,,,,,,,,,,,,,,,,,,,,,,,,,,,,,,,,,,,,,,,,,,,,,,,,,,,,,,,,,,,,,,,,,,,,,,,,,,,,,,,,,,,,,,,,,,,,,,,,,,,,,,,,,,,,,,
,,65490721984504b8f8c9d175,2024-02-19_02h07.56.464,kallum_motion_pilot,2023.2.2,Win32,11.04972376,65490721984504b8f8c9d175,65d2b6c8f2eece985d8e374c,65d2b7bd96fa611396bffafb,0.186,0.1864,1,110,272,18,1,twoone,,,,,,,,,,,,,,,,,,,,,,,,,,,,,,,,,,,,,,,,,,,,,,,,,,,,,,,,,,,,,,,,,,,,,,,,,,,,,,,,,,,,,,,,,,,,,,,,,,,,,,,,,,,,,,,,,,,,,,,,,,,,,,,,,,,,,,,,,
,,65490721984504b8f8c9d175,2024-02-19_02h07.56.464,kallum_motion_pilot,2023.2.2,Win32,11.04972376,65490721984504b8f8c9d175,65d2b6c8f2eece985d8e374c,65d2b7bd96fa611396bffafb,0.1866,0.1869,1,111,273,100,1,sevenfive,,,,,,,,,,,,,,,,,,,,,,,,,,,,,,,,,,,,,,,,,,,,,,,,,,,,,,,,,,,,,,,,,,,,,,,,,,,,,,,,,,,,,,,,,,,,,,,,,,,,,,,,,,,,,,,,,,,,,,,,,,,,,,,,,,,,,,,,,
,,65490721984504b8f8c9d175,2024-02-19_02h07.56.464,kallum_motion_pilot,2023.2.2,Win32,11.04972376,65490721984504b8f8c9d175,65d2b6c8f2eece985d8e374c,65d2b7bd96fa611396bffafb,0.1872,0.1874,1,112,274,80,1,fivesix,,,,,,,,,,,,,,,,,,,,,,,,,,,,,,,,,,,,,,,,,,,,,,,,,,,,,,,,,,,,,,,,,,,,,,,,,,,,,,,,,,,,,,,,,,,,,,,,,,,,,,,,,,,,,,,,,,,,,,,,,,,,,,,,,,,,,,,,,
,,65490721984504b8f8c9d175,2024-02-19_02h07.56.464,kallum_motion_pilot,2023.2.2,Win32,11.04972376,65490721984504b8f8c9d175,65d2b6c8f2eece985d8e374c,65d2b7bd96fa611396bffafb,0.1878,0.1881,1,113,275,28,1,threeone,,,,,,,,,,,,,,,,,,,,,,,,,,,,,,,,,,,,,,,,,,,,,,,,,,,,,,,,,,,,,,,,,,,,,,,,,,,,,,,,,,,,,,,,,,,,,,,,,,,,,,,,,,,,,,,,,,,,,,,,,,,,,,,,,,,,,,,,,
,,65490721984504b8f8c9d175,2024-02-19_02h07.56.464,kallum_motion_pilot,2023.2.2,Win32,11.04972376,65490721984504b8f8c9d175,65d2b6c8f2eece985d8e374c,65d2b7bd96fa611396bffafb,0.1883,0.1886,1,114,276,60,1,threeone,,,,,,,,,,,,,,,,,,,,,,,,,,,,,,,,,,,,,,,,,,,,,,,,,,,,,,,,,,,,,,,,,,,,,,,,,,,,,,,,,,,,,,,,,,,,,,,,,,,,,,,,,,,,,,,,,,,,,,,,,,,,,,,,,,,,,,,,,
,,65490721984504b8f8c9d175,2024-02-19_02h07.56.464,kallum_motion_pilot,2023.2.2,Win32,11.04972376,65490721984504b8f8c9d175,65d2b6c8f2eece985d8e374c,65d2b7bd96fa611396bffafb,0.1888,0.1891,1,115,277,136,1,fivesix,,,,,,,,,,,,,,,,,,,,,,,,,,,,,,,,,,,,,,,,,,,,,,,,,,,,,,,,,,,,,,,,,,,,,,,,,,,,,,,,,,,,,,,,,,,,,,,,,,,,,,,,,,,,,,,,,,,,,,,,,,,,,,,,,,,,,,,,,
