startup.started,startup.stopped,Prolific ID*,date,expName,psychopyVersion,OS,frameRate,participant,study_id,session,stimpositions.started,stimpositions.stopped,hardcoded_stimulus_positions.thisRepN,hardcoded_stimulus_positions.thisTrialN,hardcoded_stimulus_positions.thisN,hardcoded_stimulus_positions.thisIndex,hardcoded_stimulus_positions.ran,StimulusPos,stimorientation.started,stimorientation.stopped,prac_stimorientation_import_loop.thisRepN,prac_stimorientation_import_loop.thisTrialN,prac_stimorientation_import_loop.thisN,prac_stimorientation_import_loop.thisIndex,prac_stimorientation_import_loop.ran,Stimorientation,welcome_instr.started,welcome_instr.stopped,key_resp.keys,key_resp.rt,key_resp.duration,response_steppedout_1.started,response_steppedout_1.stopped,key_resp_20.keys,key_resp_20.rt,key_resp_20.duration,response_steppedout_2.started,response_steppedout_2.stopped,key_resp_19.keys,key_resp_19.rt,key_resp_19.duration,stim_response_instr.started,stim_response_instr.stopped,key_resp_15.keys,key_resp_15.rt,key_resp_15.duration,direction_instr_2.started,direction_instr_2.stopped,key_resp_9.keys,key_resp_9.rt,key_resp_9.duration,instr_prac.started,instr_prac.stopped,key_resp_10.keys,key_resp_10.rt,key_resp_10.duration,Stim1_display_prac.started,Stim1_display_prac.stopped,Ecc,Circle1_ori,Circle2_ori,response_prac.started,similarity,response_time,response_prac.stopped,mouse_5.x,mouse_5.y,mouse_5.leftButton,mouse_5.midButton,mouse_5.rightButton,mouse_5.clicked_name,responseprac_feedback.started,responseprac_feedback.stopped,summary2_prac.started,summary2_prac.stopped,mouse_6.x,mouse_6.y,mouse_6.leftButton,mouse_6.midButton,mouse_6.rightButton,mouse_6.clicked_name,duringprac.thisRepN,duringprac.thisTrialN,duringprac.thisN,duringprac.thisIndex,duringprac.ran,begin.started,begin.stopped,key_resp_22.keys,key_resp_22.rt,key_resp_22.duration,Stim1_display.started,Stim1_display.stopped,circle1_ori,circle2_ori,circle1_SF,circle2_SF,response.started,response.stopped,mouse.x,mouse.y,mouse.leftButton,mouse.midButton,mouse.rightButton,mouse.clicked_name,trialnumber,double_pass.thisRepN,double_pass.thisTrialN,double_pass.thisN,double_pass.thisIndex,double_pass.ran,double_pass.order,main_trial.thisRepN,main_trial.thisTrialN,main_trial.thisN,main_trial.thisIndex,main_trial.ran,main_trial.order,Trial_Counter,Catch,Frequencies,response_2.started,response_2.stopped,mouse_2.x,mouse_2.y,mouse_2.leftButton,mouse_2.midButton,mouse_2.rightButton,mouse_2.clicked_name,special_trial.started,special_trial.stopped,catch_1.started,catch_1.stopped,mouse_3.x,mouse_3.y,mouse_3.leftButton,mouse_3.midButton,mouse_3.rightButton,catchresponse,catchnumber,response_time_catch,response_sum.started,response_sum.stopped,mouse_11.x,mouse_11.y,mouse_11.leftButton,mouse_11.midButton,mouse_11.rightButton,flip_presentation_sequence_for_double_pass.started,flip_presentation_sequence_for_double_pass.stopped,goodbye.started,goodbye.stopped,key_resp_3.keys,key_resp_3.rt,key_resp_3.duration
0.0004,0.0004,6551107f5a1d2c295466c232,2024-02-18_18h14.53.011,kallum_motion_pilot,2023.2.2,Win32,60.60606061,6551107f5a1d2c295466c232,65d2b6c8f2eece985d8e374c,65d2b92c664d1d730608dfbd,,,,,,,,,,,,,,,,,,,,,,,,,,,,,,,,,,,,,,,,,,,,,,,,,,,,,,,,,,,,,,,,,,,,,,,,,,,,,,,,,,,,,,,,,,,,,,,,,,,,,,,,,,,,,,,,,,,,,,,,,,,,,,,,,,,,,,,,,,,,,,,,,
,,6551107f5a1d2c295466c232,2024-02-18_18h14.53.011,kallum_motion_pilot,2023.2.2,Win32,60.60606061,6551107f5a1d2c295466c232,65d2b6c8f2eece985d8e374c,65d2b92c664d1d730608dfbd,0.0291,0.0293,0,0,0,160,1,fivesix,,,,,,,,,,,,,,,,,,,,,,,,,,,,,,,,,,,,,,,,,,,,,,,,,,,,,,,,,,,,,,,,,,,,,,,,,,,,,,,,,,,,,,,,,,,,,,,,,,,,,,,,,,,,,,,,,,,,,,,,,,,,,,,,,,,,,,,,,
,,6551107f5a1d2c295466c232,2024-02-18_18h14.53.011,kallum_motion_pilot,2023.2.2,Win32,60.60606061,6551107f5a1d2c295466c232,65d2b6c8f2eece985d8e374c,65d2b92c664d1d730608dfbd,0.0297,0.0297,0,1,1,137,1,fiveseven,,,,,,,,,,,,,,,,,,,,,,,,,,,,,,,,,,,,,,,,,,,,,,,,,,,,,,,,,,,,,,,,,,,,,,,,,,,,,,,,,,,,,,,,,,,,,,,,,,,,,,,,,,,,,,,,,,,,,,,,,,,,,,,,,,,,,,,,,
,,6551107f5a1d2c295466c232,2024-02-18_18h14.53.011,kallum_motion_pilot,2023.2.2,Win32,60.60606061,6551107f5a1d2c295466c232,65d2b6c8f2eece985d8e374c,65d2b92c664d1d730608dfbd,0.0299,0.0299,0,2,2,154,1,sixfive,,,,,,,,,,,,,,,,,,,,,,,,,,,,,,,,,,,,,,,,,,,,,,,,,,,,,,,,,,,,,,,,,,,,,,,,,,,,,,,,,,,,,,,,,,,,,,,,,,,,,,,,,,,,,,,,,,,,,,,,,,,,,,,,,,,,,,,,,
,,6551107f5a1d2c295466c232,2024-02-18_18h14.53.011,kallum_motion_pilot,2023.2.2,Win32,60.60606061,6551107f5a1d2c295466c232,65d2b6c8f2eece985d8e374c,65d2b92c664d1d730608dfbd,0.03,0.0301,0,3,3,61,1,threefour,,,,,,,,,,,,,,,,,,,,,,,,,,,,,,,,,,,,,,,,,,,,,,,,,,,,,,,,,,,,,,,,,,,,,,,,,,,,,,,,,,,,,,,,,,,,,,,,,,,,,,,,,,,,,,,,,,,,,,,,,,,,,,,,,,,,,,,,,
,,6551107f5a1d2c295466c232,2024-02-18_18h14.53.011,kallum_motion_pilot,2023.2.2,Win32,60.60606061,6551107f5a1d2c295466c232,65d2b6c8f2eece985d8e374c,65d2b92c664d1d730608dfbd,0.0303,0.0303,0,4,4,5,1,threefour,,,,,,,,,,,,,,,,,,,,,,,,,,,,,,,,,,,,,,,,,,,,,,,,,,,,,,,,,,,,,,,,,,,,,,,,,,,,,,,,,,,,,,,,,,,,,,,,,,,,,,,,,,,,,,,,,,,,,,,,,,,,,,,,,,,,,,,,,
,,6551107f5a1d2c295466c232,2024-02-18_18h14.53.011,kallum_motion_pilot,2023.2.2,Win32,60.60606061,6551107f5a1d2c295466c232,65d2b6c8f2eece985d8e374c,65d2b92c664d1d730608dfbd,0.0304,0.0305,0,5,5,125,1,seveneight,,,,,,,,,,,,,,,,,,,,,,,,,,,,,,,,,,,,,,,,,,,,,,,,,,,,,,,,,,,,,,,,,,,,,,,,,,,,,,,,,,,,,,,,,,,,,,,,,,,,,,,,,,,,,,,,,,,,,,,,,,,,,,,,,,,,,,,,,
,,6551107f5a1d2c295466c232,2024-02-18_18h14.53.011,kallum_motion_pilot,2023.2.2,Win32,60.60606061,6551107f5a1d2c295466c232,65d2b6c8f2eece985d8e374c,65d2b92c664d1d730608dfbd,0.0306,0.0307,0,6,6,130,1,sixfive,,,,,,,,,,,,,,,,,,,,,,,,,,,,,,,,,,,,,,,,,,,,,,,,,,,,,,,,,,,,,,,,,,,,,,,,,,,,,,,,,,,,,,,,,,,,,,,,,,,,,,,,,,,,,,,,,,,,,,,,,,,,,,,,,,,,,,,,,
,,6551107f5a1d2c295466c232,2024-02-18_18h14.53.011,kallum_motion_pilot,2023.2.2,Win32,60.60606061,6551107f5a1d2c295466c232,65d2b6c8f2eece985d8e374c,65d2b92c664d1d730608dfbd,0.0307,0.0307,0,7,7,117,1,seveneight,,,,,,,,,,,,,,,,,,,,,,,,,,,,,,,,,,,,,,,,,,,,,,,,,,,,,,,,,,,,,,,,,,,,,,,,,,,,,,,,,,,,,,,,,,,,,,,,,,,,,,,,,,,,,,,,,,,,,,,,,,,,,,,,,,,,,,,,,
,,6551107f5a1d2c295466c232,2024-02-18_18h14.53.011,kallum_motion_pilot,2023.2.2,Win32,60.60606061,6551107f5a1d2c295466c232,65d2b6c8f2eece985d8e374c,65d2b92c664d1d730608dfbd,0.0308,0.031,0,8,8,119,1,eightseven,,,,,,,,,,,,,,,,,,,,,,,,,,,,,,,,,,,,,,,,,,,,,,,,,,,,,,,,,,,,,,,,,,,,,,,,,,,,,,,,,,,,,,,,,,,,,,,,,,,,,,,,,,,,,,,,,,,,,,,,,,,,,,,,,,,,,,,,,
,,6551107f5a1d2c295466c232,2024-02-18_18h14.53.011,kallum_motion_pilot,2023.2.2,Win32,60.60606061,6551107f5a1d2c295466c232,65d2b6c8f2eece985d8e374c,65d2b92c664d1d730608dfbd,0.031,0.0312,0,9,9,26,1,twoone,,,,,,,,,,,,,,,,,,,,,,,,,,,,,,,,,,,,,,,,,,,,,,,,,,,,,,,,,,,,,,,,,,,,,,,,,,,,,,,,,,,,,,,,,,,,,,,,,,,,,,,,,,,,,,,,,,,,,,,,,,,,,,,,,,,,,,,,,
,,6551107f5a1d2c295466c232,2024-02-18_18h14.53.011,kallum_motion_pilot,2023.2.2,Win32,60.60606061,6551107f5a1d2c295466c232,65d2b6c8f2eece985d8e374c,65d2b92c664d1d730608dfbd,0.0312,0.0313,0,10,10,109,1,seveneight,,,,,,,,,,,,,,,,,,,,,,,,,,,,,,,,,,,,,,,,,,,,,,,,,,,,,,,,,,,,,,,,,,,,,,,,,,,,,,,,,,,,,,,,,,,,,,,,,,,,,,,,,,,,,,,,,,,,,,,,,,,,,,,,,,,,,,,,,
,,6551107f5a1d2c295466c232,2024-02-18_18h14.53.011,kallum_motion_pilot,2023.2.2,Win32,60.60606061,6551107f5a1d2c295466c232,65d2b6c8f2eece985d8e374c,65d2b92c664d1d730608dfbd,0.0314,0.0314,0,11,11,29,1,threefour,,,,,,,,,,,,,,,,,,,,,,,,,,,,,,,,,,,,,,,,,,,,,,,,,,,,,,,,,,,,,,,,,,,,,,,,,,,,,,,,,,,,,,,,,,,,,,,,,,,,,,,,,,,,,,,,,,,,,,,,,,,,,,,,,,,,,,,,,
,,6551107f5a1d2c295466c232,2024-02-18_18h14.53.011,kallum_motion_pilot,2023.2.2,Win32,60.60606061,6551107f5a1d2c295466c232,65d2b6c8f2eece985d8e374c,65d2b92c664d1d730608dfbd,0.0314,0.0314,0,12,12,2,1,twoone,,,,,,,,,,,,,,,,,,,,,,,,,,,,,,,,,,,,,,,,,,,,,,,,,,,,,,,,,,,,,,,,,,,,,,,,,,,,,,,,,,,,,,,,,,,,,,,,,,,,,,,,,,,,,,,,,,,,,,,,,,,,,,,,,,,,,,,,,
,,6551107f5a1d2c295466c232,2024-02-18_18h14.53.011,kallum_motion_pilot,2023.2.2,Win32,60.60606061,6551107f5a1d2c295466c232,65d2b6c8f2eece985d8e374c,65d2b92c664d1d730608dfbd,0.0315,0.0315,0,13,13,121,1,fiveseven,,,,,,,,,,,,,,,,,,,,,,,,,,,,,,,,,,,,,,,,,,,,,,,,,,,,,,,,,,,,,,,,,,,,,,,,,,,,,,,,,,,,,,,,,,,,,,,,,,,,,,,,,,,,,,,,,,,,,,,,,,,,,,,,,,,,,,,,,
,,6551107f5a1d2c295466c232,2024-02-18_18h14.53.011,kallum_motion_pilot,2023.2.2,Win32,60.60606061,6551107f5a1d2c295466c232,65d2b6c8f2eece985d8e374c,65d2b92c664d1d730608dfbd,0.0317,0.0317,0,14,14,67,1,twofour,,,,,,,,,,,,,,,,,,,,,,,,,,,,,,,,,,,,,,,,,,,,,,,,,,,,,,,,,,,,,,,,,,,,,,,,,,,,,,,,,,,,,,,,,,,,,,,,,,,,,,,,,,,,,,,,,,,,,,,,,,,,,,,,,,,,,,,,,
,,6551107f5a1d2c295466c232,2024-02-18_18h14.53.011,kallum_motion_pilot,2023.2.2,Win32,60.60606061,6551107f5a1d2c295466c232,65d2b6c8f2eece985d8e374c,65d2b92c664d1d730608dfbd,0.0317,0.0317,0,15,15,157,1,seveneight,,,,,,,,,,,,,,,,,,,,,,,,,,,,,,,,,,,,,,,,,,,,,,,,,,,,,,,,,,,,,,,,,,,,,,,,,,,,,,,,,,,,,,,,,,,,,,,,,,,,,,,,,,,,,,,,,,,,,,,,,,,,,,,,,,,,,,,,,
,,6551107f5a1d2c295466c232,2024-02-18_18h14.53.011,kallum_motion_pilot,2023.2.2,Win32,60.60606061,6551107f5a1d2c295466c232,65d2b6c8f2eece985d8e374c,65d2b92c664d1d730608dfbd,0.0318,0.0318,0,16,16,139,1,sixeight,,,,,,,,,,,,,,,,,,,,,,,,,,,,,,,,,,,,,,,,,,,,,,,,,,,,,,,,,,,,,,,,,,,,,,,,,,,,,,,,,,,,,,,,,,,,,,,,,,,,,,,,,,,,,,,,,,,,,,,,,,,,,,,,,,,,,,,,,
,,6551107f5a1d2c295466c232,2024-02-18_18h14.53.011,kallum_motion_pilot,2023.2.2,Win32,60.60606061,6551107f5a1d2c295466c232,65d2b6c8f2eece985d8e374c,65d2b92c664d1d730608dfbd,0.0319,0.0319,0,17,17,8,1,onetwo,,,,,,,,,,,,,,,,,,,,,,,,,,,,,,,,,,,,,,,,,,,,,,,,,,,,,,,,,,,,,,,,,,,,,,,,,,,,,,,,,,,,,,,,,,,,,,,,,,,,,,,,,,,,,,,,,,,,,,,,,,,,,,,,,,,,,,,,,
,,6551107f5a1d2c295466c232,2024-02-18_18h14.53.011,kallum_motion_pilot,2023.2.2,Win32,60.60606061,6551107f5a1d2c295466c232,65d2b6c8f2eece985d8e374c,65d2b92c664d1d730608dfbd,0.0321,0.0321,0,18,18,82,1,sixfive,,,,,,,,,,,,,,,,,,,,,,,,,,,,,,,,,,,,,,,,,,,,,,,,,,,,,,,,,,,,,,,,,,,,,,,,,,,,,,,,,,,,,,,,,,,,,,,,,,,,,,,,,,,,,,,,,,,,,,,,,,,,,,,,,,,,,,,,,
,,6551107f5a1d2c295466c232,2024-02-18_18h14.53.011,kallum_motion_pilot,2023.2.2,Win32,60.60606061,6551107f5a1d2c295466c232,65d2b6c8f2eece985d8e374c,65d2b92c664d1d730608dfbd,0.0321,0.0321,0,19,19,151,1,eightseven,,,,,,,,,,,,,,,,,,,,,,,,,,,,,,,,,,,,,,,,,,,,,,,,,,,,,,,,,,,,,,,,,,,,,,,,,,,,,,,,,,,,,,,,,,,,,,,,,,,,,,,,,,,,,,,,,,,,,,,,,,,,,,,,,,,,,,,,,
,,6551107f5a1d2c295466c232,2024-02-18_18h14.53.011,kallum_motion_pilot,2023.2.2,Win32,60.60606061,6551107f5a1d2c295466c232,65d2b6c8f2eece985d8e374c,65d2b92c664d1d730608dfbd,0.0322,0.0322,0,20,20,56,1,onetwo,,,,,,,,,,,,,,,,,,,,,,,,,,,,,,,,,,,,,,,,,,,,,,,,,,,,,,,,,,,,,,,,,,,,,,,,,,,,,,,,,,,,,,,,,,,,,,,,,,,,,,,,,,,,,,,,,,,,,,,,,,,,,,,,,,,,,,,,,
,,6551107f5a1d2c295466c232,2024-02-18_18h14.53.011,kallum_motion_pilot,2023.2.2,Win32,60.60606061,6551107f5a1d2c295466c232,65d2b6c8f2eece985d8e374c,65d2b92c664d1d730608dfbd,0.0323,0.0323,0,21,21,52,1,threeone,,,,,,,,,,,,,,,,,,,,,,,,,,,,,,,,,,,,,,,,,,,,,,,,,,,,,,,,,,,,,,,,,,,,,,,,,,,,,,,,,,,,,,,,,,,,,,,,,,,,,,,,,,,,,,,,,,,,,,,,,,,,,,,,,,,,,,,,,
,,6551107f5a1d2c295466c232,2024-02-18_18h14.53.011,kallum_motion_pilot,2023.2.2,Win32,60.60606061,6551107f5a1d2c295466c232,65d2b6c8f2eece985d8e374c,65d2b92c664d1d730608dfbd,0.0324,0.0324,0,22,22,44,1,threeone,,,,,,,,,,,,,,,,,,,,,,,,,,,,,,,,,,,,,,,,,,,,,,,,,,,,,,,,,,,,,,,,,,,,,,,,,,,,,,,,,,,,,,,,,,,,,,,,,,,,,,,,,,,,,,,,,,,,,,,,,,,,,,,,,,,,,,,,,
,,6551107f5a1d2c295466c232,2024-02-18_18h14.53.011,kallum_motion_pilot,2023.2.2,Win32,60.60606061,6551107f5a1d2c295466c232,65d2b6c8f2eece985d8e374c,65d2b92c664d1d730608dfbd,0.0325,0.0326,0,23,23,112,1,fivesix,,,,,,,,,,,,,,,,,,,,,,,,,,,,,,,,,,,,,,,,,,,,,,,,,,,,,,,,,,,,,,,,,,,,,,,,,,,,,,,,,,,,,,,,,,,,,,,,,,,,,,,,,,,,,,,,,,,,,,,,,,,,,,,,,,,,,,,,,
,,6551107f5a1d2c295466c232,2024-02-18_18h14.53.011,kallum_motion_pilot,2023.2.2,Win32,60.60606061,6551107f5a1d2c295466c232,65d2b6c8f2eece985d8e374c,65d2b92c664d1d730608dfbd,0.0327,0.0327,0,24,24,92,1,sevenfive,,,,,,,,,,,,,,,,,,,,,,,,,,,,,,,,,,,,,,,,,,,,,,,,,,,,,,,,,,,,,,,,,,,,,,,,,,,,,,,,,,,,,,,,,,,,,,,,,,,,,,,,,,,,,,,,,,,,,,,,,,,,,,,,,,,,,,,,,
,,6551107f5a1d2c295466c232,2024-02-18_18h14.53.011,kallum_motion_pilot,2023.2.2,Win32,60.60606061,6551107f5a1d2c295466c232,65d2b6c8f2eece985d8e374c,65d2b92c664d1d730608dfbd,0.0327,0.0327,0,25,25,97,1,fiveseven,,,,,,,,,,,,,,,,,,,,,,,,,,,,,,,,,,,,,,,,,,,,,,,,,,,,,,,,,,,,,,,,,,,,,,,,,,,,,,,,,,,,,,,,,,,,,,,,,,,,,,,,,,,,,,,,,,,,,,,,,,,,,,,,,,,,,,,,,
,,6551107f5a1d2c295466c232,2024-02-18_18h14.53.011,kallum_motion_pilot,2023.2.2,Win32,60.60606061,6551107f5a1d2c295466c232,65d2b6c8f2eece985d8e374c,65d2b92c664d1d730608dfbd,0.0328,0.0329,0,26,26,89,1,fiveseven,,,,,,,,,,,,,,,,,,,,,,,,,,,,,,,,,,,,,,,,,,,,,,,,,,,,,,,,,,,,,,,,,,,,,,,,,,,,,,,,,,,,,,,,,,,,,,,,,,,,,,,,,,,,,,,,,,,,,,,,,,,,,,,,,,,,,,,,,
,,6551107f5a1d2c295466c232,2024-02-18_18h14.53.011,kallum_motion_pilot,2023.2.2,Win32,60.60606061,6551107f5a1d2c295466c232,65d2b6c8f2eece985d8e374c,65d2b92c664d1d730608dfbd,0.033,0.033,0,27,27,45,1,threefour,,,,,,,,,,,,,,,,,,,,,,,,,,,,,,,,,,,,,,,,,,,,,,,,,,,,,,,,,,,,,,,,,,,,,,,,,,,,,,,,,,,,,,,,,,,,,,,,,,,,,,,,,,,,,,,,,,,,,,,,,,,,,,,,,,,,,,,,,
,,6551107f5a1d2c295466c232,2024-02-18_18h14.53.011,kallum_motion_pilot,2023.2.2,Win32,60.60606061,6551107f5a1d2c295466c232,65d2b6c8f2eece985d8e374c,65d2b92c664d1d730608dfbd,0.033,0.033,0,28,28,16,1,onetwo,,,,,,,,,,,,,,,,,,,,,,,,,,,,,,,,,,,,,,,,,,,,,,,,,,,,,,,,,,,,,,,,,,,,,,,,,,,,,,,,,,,,,,,,,,,,,,,,,,,,,,,,,,,,,,,,,,,,,,,,,,,,,,,,,,,,,,,,,
,,6551107f5a1d2c295466c232,2024-02-18_18h14.53.011,kallum_motion_pilot,2023.2.2,Win32,60.60606061,6551107f5a1d2c295466c232,65d2b6c8f2eece985d8e374c,65d2b92c664d1d730608dfbd,0.0331,0.0331,0,29,29,46,1,fourtwo,,,,,,,,,,,,,,,,,,,,,,,,,,,,,,,,,,,,,,,,,,,,,,,,,,,,,,,,,,,,,,,,,,,,,,,,,,,,,,,,,,,,,,,,,,,,,,,,,,,,,,,,,,,,,,,,,,,,,,,,,,,,,,,,,,,,,,,,,
,,6551107f5a1d2c295466c232,2024-02-18_18h14.53.011,kallum_motion_pilot,2023.2.2,Win32,60.60606061,6551107f5a1d2c295466c232,65d2b6c8f2eece985d8e374c,65d2b92c664d1d730608dfbd,0.0332,0.0332,0,30,30,115,1,sixeight,,,,,,,,,,,,,,,,,,,,,,,,,,,,,,,,,,,,,,,,,,,,,,,,,,,,,,,,,,,,,,,,,,,,,,,,,,,,,,,,,,,,,,,,,,,,,,,,,,,,,,,,,,,,,,,,,,,,,,,,,,,,,,,,,,,,,,,,,
,,6551107f5a1d2c295466c232,2024-02-18_18h14.53.011,kallum_motion_pilot,2023.2.2,Win32,60.60606061,6551107f5a1d2c295466c232,65d2b6c8f2eece985d8e374c,65d2b92c664d1d730608dfbd,0.0333,0.0333,0,31,31,49,1,onethree,,,,,,,,,,,,,,,,,,,,,,,,,,,,,,,,,,,,,,,,,,,,,,,,,,,,,,,,,,,,,,,,,,,,,,,,,,,,,,,,,,,,,,,,,,,,,,,,,,,,,,,,,,,,,,,,,,,,,,,,,,,,,,,,,,,,,,,,,
,,6551107f5a1d2c295466c232,2024-02-18_18h14.53.011,kallum_motion_pilot,2023.2.2,Win32,60.60606061,6551107f5a1d2c295466c232,65d2b6c8f2eece985d8e374c,65d2b92c664d1d730608dfbd,0.0333,0.0333,0,32,32,30,1,fourtwo,,,,,,,,,,,,,,,,,,,,,,,,,,,,,,,,,,,,,,,,,,,,,,,,,,,,,,,,,,,,,,,,,,,,,,,,,,,,,,,,,,,,,,,,,,,,,,,,,,,,,,,,,,,,,,,,,,,,,,,,,,,,,,,,,,,,,,,,,
,,6551107f5a1d2c295466c232,2024-02-18_18h14.53.011,kallum_motion_pilot,2023.2.2,Win32,60.60606061,6551107f5a1d2c295466c232,65d2b6c8f2eece985d8e374c,65d2b92c664d1d730608dfbd,0.0333,0.0334,0,33,33,1,1,onethree,,,,,,,,,,,,,,,,,,,,,,,,,,,,,,,,,,,,,,,,,,,,,,,,,,,,,,,,,,,,,,,,,,,,,,,,,,,,,,,,,,,,,,,,,,,,,,,,,,,,,,,,,,,,,,,,,,,,,,,,,,,,,,,,,,,,,,,,,
,,6551107f5a1d2c295466c232,2024-02-18_18h14.53.011,kallum_motion_pilot,2023.2.2,Win32,60.60606061,6551107f5a1d2c295466c232,65d2b6c8f2eece985d8e374c,65d2b92c664d1d730608dfbd,0.0335,0.0336,0,34,34,128,1,fivesix,,,,,,,,,,,,,,,,,,,,,,,,,,,,,,,,,,,,,,,,,,,,,,,,,,,,,,,,,,,,,,,,,,,,,,,,,,,,,,,,,,,,,,,,,,,,,,,,,,,,,,,,,,,,,,,,,,,,,,,,,,,,,,,,,,,,,,,,,
,,6551107f5a1d2c295466c232,2024-02-18_18h14.53.011,kallum_motion_pilot,2023.2.2,Win32,60.60606061,6551107f5a1d2c295466c232,65d2b6c8f2eece985d8e374c,65d2b92c664d1d730608dfbd,0.0337,0.0337,0,35,35,25,1,onethree,,,,,,,,,,,,,,,,,,,,,,,,,,,,,,,,,,,,,,,,,,,,,,,,,,,,,,,,,,,,,,,,,,,,,,,,,,,,,,,,,,,,,,,,,,,,,,,,,,,,,,,,,,,,,,,,,,,,,,,,,,,,,,,,,,,,,,,,,
,,6551107f5a1d2c295466c232,2024-02-18_18h14.53.011,kallum_motion_pilot,2023.2.2,Win32,60.60606061,6551107f5a1d2c295466c232,65d2b6c8f2eece985d8e374c,65d2b92c664d1d730608dfbd,0.0338,0.0338,0,36,36,105,1,fiveseven,,,,,,,,,,,,,,,,,,,,,,,,,,,,,,,,,,,,,,,,,,,,,,,,,,,,,,,,,,,,,,,,,,,,,,,,,,,,,,,,,,,,,,,,,,,,,,,,,,,,,,,,,,,,,,,,,,,,,,,,,,,,,,,,,,,,,,,,,
,,6551107f5a1d2c295466c232,2024-02-18_18h14.53.011,kallum_motion_pilot,2023.2.2,Win32,60.60606061,6551107f5a1d2c295466c232,65d2b6c8f2eece985d8e374c,65d2b92c664d1d730608dfbd,0.0339,0.034,0,37,37,140,1,sevenfive,,,,,,,,,,,,,,,,,,,,,,,,,,,,,,,,,,,,,,,,,,,,,,,,,,,,,,,,,,,,,,,,,,,,,,,,,,,,,,,,,,,,,,,,,,,,,,,,,,,,,,,,,,,,,,,,,,,,,,,,,,,,,,,,,,,,,,,,,
,,6551107f5a1d2c295466c232,2024-02-18_18h14.53.011,kallum_motion_pilot,2023.2.2,Win32,60.60606061,6551107f5a1d2c295466c232,65d2b6c8f2eece985d8e374c,65d2b92c664d1d730608dfbd,0.034,0.0341,0,38,38,136,1,fivesix,,,,,,,,,,,,,,,,,,,,,,,,,,,,,,,,,,,,,,,,,,,,,,,,,,,,,,,,,,,,,,,,,,,,,,,,,,,,,,,,,,,,,,,,,,,,,,,,,,,,,,,,,,,,,,,,,,,,,,,,,,,,,,,,,,,,,,,,,
,,6551107f5a1d2c295466c232,2024-02-18_18h14.53.011,kallum_motion_pilot,2023.2.2,Win32,60.60606061,6551107f5a1d2c295466c232,65d2b6c8f2eece985d8e374c,65d2b92c664d1d730608dfbd,0.0342,0.0343,0,39,39,73,1,onethree,,,,,,,,,,,,,,,,,,,,,,,,,,,,,,,,,,,,,,,,,,,,,,,,,,,,,,,,,,,,,,,,,,,,,,,,,,,,,,,,,,,,,,,,,,,,,,,,,,,,,,,,,,,,,,,,,,,,,,,,,,,,,,,,,,,,,,,,,
,,6551107f5a1d2c295466c232,2024-02-18_18h14.53.011,kallum_motion_pilot,2023.2.2,Win32,60.60606061,6551107f5a1d2c295466c232,65d2b6c8f2eece985d8e374c,65d2b92c664d1d730608dfbd,0.0343,0.0343,0,40,40,6,1,fourtwo,,,,,,,,,,,,,,,,,,,,,,,,,,,,,,,,,,,,,,,,,,,,,,,,,,,,,,,,,,,,,,,,,,,,,,,,,,,,,,,,,,,,,,,,,,,,,,,,,,,,,,,,,,,,,,,,,,,,,,,,,,,,,,,,,,,,,,,,,
,,6551107f5a1d2c295466c232,2024-02-18_18h14.53.011,kallum_motion_pilot,2023.2.2,Win32,60.60606061,6551107f5a1d2c295466c232,65d2b6c8f2eece985d8e374c,65d2b92c664d1d730608dfbd,0.0344,0.0345,0,41,41,32,1,onetwo,,,,,,,,,,,,,,,,,,,,,,,,,,,,,,,,,,,,,,,,,,,,,,,,,,,,,,,,,,,,,,,,,,,,,,,,,,,,,,,,,,,,,,,,,,,,,,,,,,,,,,,,,,,,,,,,,,,,,,,,,,,,,,,,,,,,,,,,,
,,6551107f5a1d2c295466c232,2024-02-18_18h14.53.011,kallum_motion_pilot,2023.2.2,Win32,60.60606061,6551107f5a1d2c295466c232,65d2b6c8f2eece985d8e374c,65d2b92c664d1d730608dfbd,0.0346,0.0346,0,42,42,4,1,threeone,,,,,,,,,,,,,,,,,,,,,,,,,,,,,,,,,,,,,,,,,,,,,,,,,,,,,,,,,,,,,,,,,,,,,,,,,,,,,,,,,,,,,,,,,,,,,,,,,,,,,,,,,,,,,,,,,,,,,,,,,,,,,,,,,,,,,,,,,
,,6551107f5a1d2c295466c232,2024-02-18_18h14.53.011,kallum_motion_pilot,2023.2.2,Win32,60.60606061,6551107f5a1d2c295466c232,65d2b6c8f2eece985d8e374c,65d2b92c664d1d730608dfbd,0.0347,0.0348,0,43,43,107,1,sixeight,,,,,,,,,,,,,,,,,,,,,,,,,,,,,,,,,,,,,,,,,,,,,,,,,,,,,,,,,,,,,,,,,,,,,,,,,,,,,,,,,,,,,,,,,,,,,,,,,,,,,,,,,,,,,,,,,,,,,,,,,,,,,,,,,,,,,,,,,
,,6551107f5a1d2c295466c232,2024-02-18_18h14.53.011,kallum_motion_pilot,2023.2.2,Win32,60.60606061,6551107f5a1d2c295466c232,65d2b6c8f2eece985d8e374c,65d2b92c664d1d730608dfbd,0.0348,0.0349,0,44,44,143,1,eightseven,,,,,,,,,,,,,,,,,,,,,,,,,,,,,,,,,,,,,,,,,,,,,,,,,,,,,,,,,,,,,,,,,,,,,,,,,,,,,,,,,,,,,,,,,,,,,,,,,,,,,,,,,,,,,,,,,,,,,,,,,,,,,,,,,,,,,,,,,
,,6551107f5a1d2c295466c232,2024-02-18_18h14.53.011,kallum_motion_pilot,2023.2.2,Win32,60.60606061,6551107f5a1d2c295466c232,65d2b6c8f2eece985d8e374c,65d2b92c664d1d730608dfbd,0.035,0.035,0,45,45,127,1,eightseven,,,,,,,,,,,,,,,,,,,,,,,,,,,,,,,,,,,,,,,,,,,,,,,,,,,,,,,,,,,,,,,,,,,,,,,,,,,,,,,,,,,,,,,,,,,,,,,,,,,,,,,,,,,,,,,,,,,,,,,,,,,,,,,,,,,,,,,,,
,,6551107f5a1d2c295466c232,2024-02-18_18h14.53.011,kallum_motion_pilot,2023.2.2,Win32,60.60606061,6551107f5a1d2c295466c232,65d2b6c8f2eece985d8e374c,65d2b92c664d1d730608dfbd,0.0351,0.0351,0,46,46,100,1,sevenfive,,,,,,,,,,,,,,,,,,,,,,,,,,,,,,,,,,,,,,,,,,,,,,,,,,,,,,,,,,,,,,,,,,,,,,,,,,,,,,,,,,,,,,,,,,,,,,,,,,,,,,,,,,,,,,,,,,,,,,,,,,,,,,,,,,,,,,,,,
,,6551107f5a1d2c295466c232,2024-02-18_18h14.53.011,kallum_motion_pilot,2023.2.2,Win32,60.60606061,6551107f5a1d2c295466c232,65d2b6c8f2eece985d8e374c,65d2b92c664d1d730608dfbd,0.0353,0.0353,0,47,47,50,1,twoone,,,,,,,,,,,,,,,,,,,,,,,,,,,,,,,,,,,,,,,,,,,,,,,,,,,,,,,,,,,,,,,,,,,,,,,,,,,,,,,,,,,,,,,,,,,,,,,,,,,,,,,,,,,,,,,,,,,,,,,,,,,,,,,,,,,,,,,,,
,,6551107f5a1d2c295466c232,2024-02-18_18h14.53.011,kallum_motion_pilot,2023.2.2,Win32,60.60606061,6551107f5a1d2c295466c232,65d2b6c8f2eece985d8e374c,65d2b92c664d1d730608dfbd,0.0354,0.0354,0,48,48,17,1,onethree,,,,,,,,,,,,,,,,,,,,,,,,,,,,,,,,,,,,,,,,,,,,,,,,,,,,,,,,,,,,,,,,,,,,,,,,,,,,,,,,,,,,,,,,,,,,,,,,,,,,,,,,,,,,,,,,,,,,,,,,,,,,,,,,,,,,,,,,,
,,6551107f5a1d2c295466c232,2024-02-18_18h14.53.011,kallum_motion_pilot,2023.2.2,Win32,60.60606061,6551107f5a1d2c295466c232,65d2b6c8f2eece985d8e374c,65d2b92c664d1d730608dfbd,0.0355,0.0355,0,49,49,141,1,seveneight,,,,,,,,,,,,,,,,,,,,,,,,,,,,,,,,,,,,,,,,,,,,,,,,,,,,,,,,,,,,,,,,,,,,,,,,,,,,,,,,,,,,,,,,,,,,,,,,,,,,,,,,,,,,,,,,,,,,,,,,,,,,,,,,,,,,,,,,,
,,6551107f5a1d2c295466c232,2024-02-18_18h14.53.011,kallum_motion_pilot,2023.2.2,Win32,60.60606061,6551107f5a1d2c295466c232,65d2b6c8f2eece985d8e374c,65d2b92c664d1d730608dfbd,0.0356,0.0357,0,50,50,152,1,fivesix,,,,,,,,,,,,,,,,,,,,,,,,,,,,,,,,,,,,,,,,,,,,,,,,,,,,,,,,,,,,,,,,,,,,,,,,,,,,,,,,,,,,,,,,,,,,,,,,,,,,,,,,,,,,,,,,,,,,,,,,,,,,,,,,,,,,,,,,,
,,6551107f5a1d2c295466c232,2024-02-18_18h14.53.011,kallum_motion_pilot,2023.2.2,Win32,60.60606061,6551107f5a1d2c295466c232,65d2b6c8f2eece985d8e374c,65d2b92c664d1d730608dfbd,0.0358,0.0358,0,51,51,158,1,eightsix,,,,,,,,,,,,,,,,,,,,,,,,,,,,,,,,,,,,,,,,,,,,,,,,,,,,,,,,,,,,,,,,,,,,,,,,,,,,,,,,,,,,,,,,,,,,,,,,,,,,,,,,,,,,,,,,,,,,,,,,,,,,,,,,,,,,,,,,,
,,6551107f5a1d2c295466c232,2024-02-18_18h14.53.011,kallum_motion_pilot,2023.2.2,Win32,60.60606061,6551107f5a1d2c295466c232,65d2b6c8f2eece985d8e374c,65d2b92c664d1d730608dfbd,0.036,0.036,0,52,52,10,1,twoone,,,,,,,,,,,,,,,,,,,,,,,,,,,,,,,,,,,,,,,,,,,,,,,,,,,,,,,,,,,,,,,,,,,,,,,,,,,,,,,,,,,,,,,,,,,,,,,,,,,,,,,,,,,,,,,,,,,,,,,,,,,,,,,,,,,,,,,,,
,,6551107f5a1d2c295466c232,2024-02-18_18h14.53.011,kallum_motion_pilot,2023.2.2,Win32,60.60606061,6551107f5a1d2c295466c232,65d2b6c8f2eece985d8e374c,65d2b92c664d1d730608dfbd,0.0361,0.0361,0,53,53,93,1,seveneight,,,,,,,,,,,,,,,,,,,,,,,,,,,,,,,,,,,,,,,,,,,,,,,,,,,,,,,,,,,,,,,,,,,,,,,,,,,,,,,,,,,,,,,,,,,,,,,,,,,,,,,,,,,,,,,,,,,,,,,,,,,,,,,,,,,,,,,,,
,,6551107f5a1d2c295466c232,2024-02-18_18h14.53.011,kallum_motion_pilot,2023.2.2,Win32,60.60606061,6551107f5a1d2c295466c232,65d2b6c8f2eece985d8e374c,65d2b92c664d1d730608dfbd,0.0362,0.0363,0,54,54,14,1,fourtwo,,,,,,,,,,,,,,,,,,,,,,,,,,,,,,,,,,,,,,,,,,,,,,,,,,,,,,,,,,,,,,,,,,,,,,,,,,,,,,,,,,,,,,,,,,,,,,,,,,,,,,,,,,,,,,,,,,,,,,,,,,,,,,,,,,,,,,,,,
,,6551107f5a1d2c295466c232,2024-02-18_18h14.53.011,kallum_motion_pilot,2023.2.2,Win32,60.60606061,6551107f5a1d2c295466c232,65d2b6c8f2eece985d8e374c,65d2b92c664d1d730608dfbd,0.0364,0.0365,0,55,55,86,1,eightsix,,,,,,,,,,,,,,,,,,,,,,,,,,,,,,,,,,,,,,,,,,,,,,,,,,,,,,,,,,,,,,,,,,,,,,,,,,,,,,,,,,,,,,,,,,,,,,,,,,,,,,,,,,,,,,,,,,,,,,,,,,,,,,,,,,,,,,,,,
,,6551107f5a1d2c295466c232,2024-02-18_18h14.53.011,kallum_motion_pilot,2023.2.2,Win32,60.60606061,6551107f5a1d2c295466c232,65d2b6c8f2eece985d8e374c,65d2b92c664d1d730608dfbd,0.0366,0.0366,0,56,56,131,1,sixeight,,,,,,,,,,,,,,,,,,,,,,,,,,,,,,,,,,,,,,,,,,,,,,,,,,,,,,,,,,,,,,,,,,,,,,,,,,,,,,,,,,,,,,,,,,,,,,,,,,,,,,,,,,,,,,,,,,,,,,,,,,,,,,,,,,,,,,,,,
,,6551107f5a1d2c295466c232,2024-02-18_18h14.53.011,kallum_motion_pilot,2023.2.2,Win32,60.60606061,6551107f5a1d2c295466c232,65d2b6c8f2eece985d8e374c,65d2b92c664d1d730608dfbd,0.0367,0.0368,0,57,57,122,1,sixfive,,,,,,,,,,,,,,,,,,,,,,,,,,,,,,,,,,,,,,,,,,,,,,,,,,,,,,,,,,,,,,,,,,,,,,,,,,,,,,,,,,,,,,,,,,,,,,,,,,,,,,,,,,,,,,,,,,,,,,,,,,,,,,,,,,,,,,,,,
,,6551107f5a1d2c295466c232,2024-02-18_18h14.53.011,kallum_motion_pilot,2023.2.2,Win32,60.60606061,6551107f5a1d2c295466c232,65d2b6c8f2eece985d8e374c,65d2b92c664d1d730608dfbd,0.0369,0.0369,0,58,58,126,1,eightsix,,,,,,,,,,,,,,,,,,,,,,,,,,,,,,,,,,,,,,,,,,,,,,,,,,,,,,,,,,,,,,,,,,,,,,,,,,,,,,,,,,,,,,,,,,,,,,,,,,,,,,,,,,,,,,,,,,,,,,,,,,,,,,,,,,,,,,,,,
,,6551107f5a1d2c295466c232,2024-02-18_18h14.53.011,kallum_motion_pilot,2023.2.2,Win32,60.60606061,6551107f5a1d2c295466c232,65d2b6c8f2eece985d8e374c,65d2b92c664d1d730608dfbd,0.0371,0.0371,0,59,59,87,1,eightseven,,,,,,,,,,,,,,,,,,,,,,,,,,,,,,,,,,,,,,,,,,,,,,,,,,,,,,,,,,,,,,,,,,,,,,,,,,,,,,,,,,,,,,,,,,,,,,,,,,,,,,,,,,,,,,,,,,,,,,,,,,,,,,,,,,,,,,,,,
,,6551107f5a1d2c295466c232,2024-02-18_18h14.53.011,kallum_motion_pilot,2023.2.2,Win32,60.60606061,6551107f5a1d2c295466c232,65d2b6c8f2eece985d8e374c,65d2b92c664d1d730608dfbd,0.0371,0.0372,0,60,60,18,1,twoone,,,,,,,,,,,,,,,,,,,,,,,,,,,,,,,,,,,,,,,,,,,,,,,,,,,,,,,,,,,,,,,,,,,,,,,,,,,,,,,,,,,,,,,,,,,,,,,,,,,,,,,,,,,,,,,,,,,,,,,,,,,,,,,,,,,,,,,,,
,,6551107f5a1d2c295466c232,2024-02-18_18h14.53.011,kallum_motion_pilot,2023.2.2,Win32,60.60606061,6551107f5a1d2c295466c232,65d2b6c8f2eece985d8e374c,65d2b92c664d1d730608dfbd,0.0373,0.0373,0,61,61,11,1,twofour,,,,,,,,,,,,,,,,,,,,,,,,,,,,,,,,,,,,,,,,,,,,,,,,,,,,,,,,,,,,,,,,,,,,,,,,,,,,,,,,,,,,,,,,,,,,,,,,,,,,,,,,,,,,,,,,,,,,,,,,,,,,,,,,,,,,,,,,,
,,6551107f5a1d2c295466c232,2024-02-18_18h14.53.011,kallum_motion_pilot,2023.2.2,Win32,60.60606061,6551107f5a1d2c295466c232,65d2b6c8f2eece985d8e374c,65d2b92c664d1d730608dfbd,0.0374,0.0375,0,62,62,37,1,threefour,,,,,,,,,,,,,,,,,,,,,,,,,,,,,,,,,,,,,,,,,,,,,,,,,,,,,,,,,,,,,,,,,,,,,,,,,,,,,,,,,,,,,,,,,,,,,,,,,,,,,,,,,,,,,,,,,,,,,,,,,,,,,,,,,,,,,,,,,
,,6551107f5a1d2c295466c232,2024-02-18_18h14.53.011,kallum_motion_pilot,2023.2.2,Win32,60.60606061,6551107f5a1d2c295466c232,65d2b6c8f2eece985d8e374c,65d2b92c664d1d730608dfbd,0.0376,0.0376,0,63,63,40,1,onetwo,,,,,,,,,,,,,,,,,,,,,,,,,,,,,,,,,,,,,,,,,,,,,,,,,,,,,,,,,,,,,,,,,,,,,,,,,,,,,,,,,,,,,,,,,,,,,,,,,,,,,,,,,,,,,,,,,,,,,,,,,,,,,,,,,,,,,,,,,
,,6551107f5a1d2c295466c232,2024-02-18_18h14.53.011,kallum_motion_pilot,2023.2.2,Win32,60.60606061,6551107f5a1d2c295466c232,65d2b6c8f2eece985d8e374c,65d2b92c664d1d730608dfbd,0.0377,0.0377,0,64,64,79,1,eightseven,,,,,,,,,,,,,,,,,,,,,,,,,,,,,,,,,,,,,,,,,,,,,,,,,,,,,,,,,,,,,,,,,,,,,,,,,,,,,,,,,,,,,,,,,,,,,,,,,,,,,,,,,,,,,,,,,,,,,,,,,,,,,,,,,,,,,,,,,
,,6551107f5a1d2c295466c232,2024-02-18_18h14.53.011,kallum_motion_pilot,2023.2.2,Win32,60.60606061,6551107f5a1d2c295466c232,65d2b6c8f2eece985d8e374c,65d2b92c664d1d730608dfbd,0.0378,0.038,0,65,65,3,1,twofour,,,,,,,,,,,,,,,,,,,,,,,,,,,,,,,,,,,,,,,,,,,,,,,,,,,,,,,,,,,,,,,,,,,,,,,,,,,,,,,,,,,,,,,,,,,,,,,,,,,,,,,,,,,,,,,,,,,,,,,,,,,,,,,,,,,,,,,,,
,,6551107f5a1d2c295466c232,2024-02-18_18h14.53.011,kallum_motion_pilot,2023.2.2,Win32,60.60606061,6551107f5a1d2c295466c232,65d2b6c8f2eece985d8e374c,65d2b92c664d1d730608dfbd,0.0382,0.0382,0,66,66,90,1,sixfive,,,,,,,,,,,,,,,,,,,,,,,,,,,,,,,,,,,,,,,,,,,,,,,,,,,,,,,,,,,,,,,,,,,,,,,,,,,,,,,,,,,,,,,,,,,,,,,,,,,,,,,,,,,,,,,,,,,,,,,,,,,,,,,,,,,,,,,,,
,,6551107f5a1d2c295466c232,2024-02-18_18h14.53.011,kallum_motion_pilot,2023.2.2,Win32,60.60606061,6551107f5a1d2c295466c232,65d2b6c8f2eece985d8e374c,65d2b92c664d1d730608dfbd,0.0383,0.0384,0,67,67,161,1,fiveseven,,,,,,,,,,,,,,,,,,,,,,,,,,,,,,,,,,,,,,,,,,,,,,,,,,,,,,,,,,,,,,,,,,,,,,,,,,,,,,,,,,,,,,,,,,,,,,,,,,,,,,,,,,,,,,,,,,,,,,,,,,,,,,,,,,,,,,,,,
,,6551107f5a1d2c295466c232,2024-02-18_18h14.53.011,kallum_motion_pilot,2023.2.2,Win32,60.60606061,6551107f5a1d2c295466c232,65d2b6c8f2eece985d8e374c,65d2b92c664d1d730608dfbd,0.0385,0.0385,0,68,68,38,1,fourtwo,,,,,,,,,,,,,,,,,,,,,,,,,,,,,,,,,,,,,,,,,,,,,,,,,,,,,,,,,,,,,,,,,,,,,,,,,,,,,,,,,,,,,,,,,,,,,,,,,,,,,,,,,,,,,,,,,,,,,,,,,,,,,,,,,,,,,,,,,
,,6551107f5a1d2c295466c232,2024-02-18_18h14.53.011,kallum_motion_pilot,2023.2.2,Win32,60.60606061,6551107f5a1d2c295466c232,65d2b6c8f2eece985d8e374c,65d2b92c664d1d730608dfbd,0.0387,0.0387,0,69,69,28,1,threeone,,,,,,,,,,,,,,,,,,,,,,,,,,,,,,,,,,,,,,,,,,,,,,,,,,,,,,,,,,,,,,,,,,,,,,,,,,,,,,,,,,,,,,,,,,,,,,,,,,,,,,,,,,,,,,,,,,,,,,,,,,,,,,,,,,,,,,,,,
,,6551107f5a1d2c295466c232,2024-02-18_18h14.53.011,kallum_motion_pilot,2023.2.2,Win32,60.60606061,6551107f5a1d2c295466c232,65d2b6c8f2eece985d8e374c,65d2b92c664d1d730608dfbd,0.0387,0.0388,0,70,70,72,1,onetwo,,,,,,,,,,,,,,,,,,,,,,,,,,,,,,,,,,,,,,,,,,,,,,,,,,,,,,,,,,,,,,,,,,,,,,,,,,,,,,,,,,,,,,,,,,,,,,,,,,,,,,,,,,,,,,,,,,,,,,,,,,,,,,,,,,,,,,,,,
,,6551107f5a1d2c295466c232,2024-02-18_18h14.53.011,kallum_motion_pilot,2023.2.2,Win32,60.60606061,6551107f5a1d2c295466c232,65d2b6c8f2eece985d8e374c,65d2b92c664d1d730608dfbd,0.0389,0.0389,0,71,71,22,1,fourtwo,,,,,,,,,,,,,,,,,,,,,,,,,,,,,,,,,,,,,,,,,,,,,,,,,,,,,,,,,,,,,,,,,,,,,,,,,,,,,,,,,,,,,,,,,,,,,,,,,,,,,,,,,,,,,,,,,,,,,,,,,,,,,,,,,,,,,,,,,
,,6551107f5a1d2c295466c232,2024-02-18_18h14.53.011,kallum_motion_pilot,2023.2.2,Win32,60.60606061,6551107f5a1d2c295466c232,65d2b6c8f2eece985d8e374c,65d2b92c664d1d730608dfbd,0.0391,0.0391,0,72,72,146,1,sixfive,,,,,,,,,,,,,,,,,,,,,,,,,,,,,,,,,,,,,,,,,,,,,,,,,,,,,,,,,,,,,,,,,,,,,,,,,,,,,,,,,,,,,,,,,,,,,,,,,,,,,,,,,,,,,,,,,,,,,,,,,,,,,,,,,,,,,,,,,
,,6551107f5a1d2c295466c232,2024-02-18_18h14.53.011,kallum_motion_pilot,2023.2.2,Win32,60.60606061,6551107f5a1d2c295466c232,65d2b6c8f2eece985d8e374c,65d2b92c664d1d730608dfbd,0.0392,0.0393,0,73,73,85,1,seveneight,,,,,,,,,,,,,,,,,,,,,,,,,,,,,,,,,,,,,,,,,,,,,,,,,,,,,,,,,,,,,,,,,,,,,,,,,,,,,,,,,,,,,,,,,,,,,,,,,,,,,,,,,,,,,,,,,,,,,,,,,,,,,,,,,,,,,,,,,
,,6551107f5a1d2c295466c232,2024-02-18_18h14.53.011,kallum_motion_pilot,2023.2.2,Win32,60.60606061,6551107f5a1d2c295466c232,65d2b6c8f2eece985d8e374c,65d2b92c664d1d730608dfbd,0.0393,0.0394,0,74,74,27,1,twofour,,,,,,,,,,,,,,,,,,,,,,,,,,,,,,,,,,,,,,,,,,,,,,,,,,,,,,,,,,,,,,,,,,,,,,,,,,,,,,,,,,,,,,,,,,,,,,,,,,,,,,,,,,,,,,,,,,,,,,,,,,,,,,,,,,,,,,,,,
,,6551107f5a1d2c295466c232,2024-02-18_18h14.53.011,kallum_motion_pilot,2023.2.2,Win32,60.60606061,6551107f5a1d2c295466c232,65d2b6c8f2eece985d8e374c,65d2b92c664d1d730608dfbd,0.0395,0.0395,0,75,75,134,1,eightsix,,,,,,,,,,,,,,,,,,,,,,,,,,,,,,,,,,,,,,,,,,,,,,,,,,,,,,,,,,,,,,,,,,,,,,,,,,,,,,,,,,,,,,,,,,,,,,,,,,,,,,,,,,,,,,,,,,,,,,,,,,,,,,,,,,,,,,,,,
,,6551107f5a1d2c295466c232,2024-02-18_18h14.53.011,kallum_motion_pilot,2023.2.2,Win32,60.60606061,6551107f5a1d2c295466c232,65d2b6c8f2eece985d8e374c,65d2b92c664d1d730608dfbd,0.0395,0.0396,0,76,76,110,1,eightsix,,,,,,,,,,,,,,,,,,,,,,,,,,,,,,,,,,,,,,,,,,,,,,,,,,,,,,,,,,,,,,,,,,,,,,,,,,,,,,,,,,,,,,,,,,,,,,,,,,,,,,,,,,,,,,,,,,,,,,,,,,,,,,,,,,,,,,,,,
,,6551107f5a1d2c295466c232,2024-02-18_18h14.53.011,kallum_motion_pilot,2023.2.2,Win32,60.60606061,6551107f5a1d2c295466c232,65d2b6c8f2eece985d8e374c,65d2b92c664d1d730608dfbd,0.0397,0.0397,0,77,77,138,1,sixfive,,,,,,,,,,,,,,,,,,,,,,,,,,,,,,,,,,,,,,,,,,,,,,,,,,,,,,,,,,,,,,,,,,,,,,,,,,,,,,,,,,,,,,,,,,,,,,,,,,,,,,,,,,,,,,,,,,,,,,,,,,,,,,,,,,,,,,,,,
,,6551107f5a1d2c295466c232,2024-02-18_18h14.53.011,kallum_motion_pilot,2023.2.2,Win32,60.60606061,6551107f5a1d2c295466c232,65d2b6c8f2eece985d8e374c,65d2b92c664d1d730608dfbd,0.0397,0.0399,0,78,78,54,1,fourtwo,,,,,,,,,,,,,,,,,,,,,,,,,,,,,,,,,,,,,,,,,,,,,,,,,,,,,,,,,,,,,,,,,,,,,,,,,,,,,,,,,,,,,,,,,,,,,,,,,,,,,,,,,,,,,,,,,,,,,,,,,,,,,,,,,,,,,,,,,
,,6551107f5a1d2c295466c232,2024-02-18_18h14.53.011,kallum_motion_pilot,2023.2.2,Win32,60.60606061,6551107f5a1d2c295466c232,65d2b6c8f2eece985d8e374c,65d2b92c664d1d730608dfbd,0.0399,0.0399,0,79,79,98,1,sixfive,,,,,,,,,,,,,,,,,,,,,,,,,,,,,,,,,,,,,,,,,,,,,,,,,,,,,,,,,,,,,,,,,,,,,,,,,,,,,,,,,,,,,,,,,,,,,,,,,,,,,,,,,,,,,,,,,,,,,,,,,,,,,,,,,,,,,,,,,
,,6551107f5a1d2c295466c232,2024-02-18_18h14.53.011,kallum_motion_pilot,2023.2.2,Win32,60.60606061,6551107f5a1d2c295466c232,65d2b6c8f2eece985d8e374c,65d2b92c664d1d730608dfbd,0.04,0.04,0,80,80,133,1,seveneight,,,,,,,,,,,,,,,,,,,,,,,,,,,,,,,,,,,,,,,,,,,,,,,,,,,,,,,,,,,,,,,,,,,,,,,,,,,,,,,,,,,,,,,,,,,,,,,,,,,,,,,,,,,,,,,,,,,,,,,,,,,,,,,,,,,,,,,,,
,,6551107f5a1d2c295466c232,2024-02-18_18h14.53.011,kallum_motion_pilot,2023.2.2,Win32,60.60606061,6551107f5a1d2c295466c232,65d2b6c8f2eece985d8e374c,65d2b92c664d1d730608dfbd,0.0401,0.0402,0,81,81,13,1,threefour,,,,,,,,,,,,,,,,,,,,,,,,,,,,,,,,,,,,,,,,,,,,,,,,,,,,,,,,,,,,,,,,,,,,,,,,,,,,,,,,,,,,,,,,,,,,,,,,,,,,,,,,,,,,,,,,,,,,,,,,,,,,,,,,,,,,,,,,,
,,6551107f5a1d2c295466c232,2024-02-18_18h14.53.011,kallum_motion_pilot,2023.2.2,Win32,60.60606061,6551107f5a1d2c295466c232,65d2b6c8f2eece985d8e374c,65d2b92c664d1d730608dfbd,0.0402,0.0403,0,82,82,53,1,threefour,,,,,,,,,,,,,,,,,,,,,,,,,,,,,,,,,,,,,,,,,,,,,,,,,,,,,,,,,,,,,,,,,,,,,,,,,,,,,,,,,,,,,,,,,,,,,,,,,,,,,,,,,,,,,,,,,,,,,,,,,,,,,,,,,,,,,,,,,
,,6551107f5a1d2c295466c232,2024-02-18_18h14.53.011,kallum_motion_pilot,2023.2.2,Win32,60.60606061,6551107f5a1d2c295466c232,65d2b6c8f2eece985d8e374c,65d2b92c664d1d730608dfbd,0.0404,0.0404,0,83,83,118,1,eightsix,,,,,,,,,,,,,,,,,,,,,,,,,,,,,,,,,,,,,,,,,,,,,,,,,,,,,,,,,,,,,,,,,,,,,,,,,,,,,,,,,,,,,,,,,,,,,,,,,,,,,,,,,,,,,,,,,,,,,,,,,,,,,,,,,,,,,,,,,
,,6551107f5a1d2c295466c232,2024-02-18_18h14.53.011,kallum_motion_pilot,2023.2.2,Win32,60.60606061,6551107f5a1d2c295466c232,65d2b6c8f2eece985d8e374c,65d2b92c664d1d730608dfbd,0.0405,0.0406,0,84,84,108,1,sevenfive,,,,,,,,,,,,,,,,,,,,,,,,,,,,,,,,,,,,,,,,,,,,,,,,,,,,,,,,,,,,,,,,,,,,,,,,,,,,,,,,,,,,,,,,,,,,,,,,,,,,,,,,,,,,,,,,,,,,,,,,,,,,,,,,,,,,,,,,,
,,6551107f5a1d2c295466c232,2024-02-18_18h14.53.011,kallum_motion_pilot,2023.2.2,Win32,60.60606061,6551107f5a1d2c295466c232,65d2b6c8f2eece985d8e374c,65d2b92c664d1d730608dfbd,0.0406,0.0407,0,85,85,69,1,threefour,,,,,,,,,,,,,,,,,,,,,,,,,,,,,,,,,,,,,,,,,,,,,,,,,,,,,,,,,,,,,,,,,,,,,,,,,,,,,,,,,,,,,,,,,,,,,,,,,,,,,,,,,,,,,,,,,,,,,,,,,,,,,,,,,,,,,,,,,
,,6551107f5a1d2c295466c232,2024-02-18_18h14.53.011,kallum_motion_pilot,2023.2.2,Win32,60.60606061,6551107f5a1d2c295466c232,65d2b6c8f2eece985d8e374c,65d2b92c664d1d730608dfbd,0.0407,0.0408,0,86,86,63,1,fourthree,,,,,,,,,,,,,,,,,,,,,,,,,,,,,,,,,,,,,,,,,,,,,,,,,,,,,,,,,,,,,,,,,,,,,,,,,,,,,,,,,,,,,,,,,,,,,,,,,,,,,,,,,,,,,,,,,,,,,,,,,,,,,,,,,,,,,,,,,
,,6551107f5a1d2c295466c232,2024-02-18_18h14.53.011,kallum_motion_pilot,2023.2.2,Win32,60.60606061,6551107f5a1d2c295466c232,65d2b6c8f2eece985d8e374c,65d2b92c664d1d730608dfbd,0.0409,0.0409,0,87,87,68,1,threeone,,,,,,,,,,,,,,,,,,,,,,,,,,,,,,,,,,,,,,,,,,,,,,,,,,,,,,,,,,,,,,,,,,,,,,,,,,,,,,,,,,,,,,,,,,,,,,,,,,,,,,,,,,,,,,,,,,,,,,,,,,,,,,,,,,,,,,,,,
,,6551107f5a1d2c295466c232,2024-02-18_18h14.53.011,kallum_motion_pilot,2023.2.2,Win32,60.60606061,6551107f5a1d2c295466c232,65d2b6c8f2eece985d8e374c,65d2b92c664d1d730608dfbd,0.041,0.0411,0,88,88,57,1,onethree,,,,,,,,,,,,,,,,,,,,,,,,,,,,,,,,,,,,,,,,,,,,,,,,,,,,,,,,,,,,,,,,,,,,,,,,,,,,,,,,,,,,,,,,,,,,,,,,,,,,,,,,,,,,,,,,,,,,,,,,,,,,,,,,,,,,,,,,,
,,6551107f5a1d2c295466c232,2024-02-18_18h14.53.011,kallum_motion_pilot,2023.2.2,Win32,60.60606061,6551107f5a1d2c295466c232,65d2b6c8f2eece985d8e374c,65d2b92c664d1d730608dfbd,0.0411,0.0412,0,89,89,88,1,fivesix,,,,,,,,,,,,,,,,,,,,,,,,,,,,,,,,,,,,,,,,,,,,,,,,,,,,,,,,,,,,,,,,,,,,,,,,,,,,,,,,,,,,,,,,,,,,,,,,,,,,,,,,,,,,,,,,,,,,,,,,,,,,,,,,,,,,,,,,,
,,6551107f5a1d2c295466c232,2024-02-18_18h14.53.011,kallum_motion_pilot,2023.2.2,Win32,60.60606061,6551107f5a1d2c295466c232,65d2b6c8f2eece985d8e374c,65d2b92c664d1d730608dfbd,0.0412,0.0413,0,90,90,31,1,fourthree,,,,,,,,,,,,,,,,,,,,,,,,,,,,,,,,,,,,,,,,,,,,,,,,,,,,,,,,,,,,,,,,,,,,,,,,,,,,,,,,,,,,,,,,,,,,,,,,,,,,,,,,,,,,,,,,,,,,,,,,,,,,,,,,,,,,,,,,,
,,6551107f5a1d2c295466c232,2024-02-18_18h14.53.011,kallum_motion_pilot,2023.2.2,Win32,60.60606061,6551107f5a1d2c295466c232,65d2b6c8f2eece985d8e374c,65d2b92c664d1d730608dfbd,0.0413,0.0415,0,91,91,99,1,sixeight,,,,,,,,,,,,,,,,,,,,,,,,,,,,,,,,,,,,,,,,,,,,,,,,,,,,,,,,,,,,,,,,,,,,,,,,,,,,,,,,,,,,,,,,,,,,,,,,,,,,,,,,,,,,,,,,,,,,,,,,,,,,,,,,,,,,,,,,,
,,6551107f5a1d2c295466c232,2024-02-18_18h14.53.011,kallum_motion_pilot,2023.2.2,Win32,60.60606061,6551107f5a1d2c295466c232,65d2b6c8f2eece985d8e374c,65d2b92c664d1d730608dfbd,0.0416,0.0416,0,92,92,24,1,onetwo,,,,,,,,,,,,,,,,,,,,,,,,,,,,,,,,,,,,,,,,,,,,,,,,,,,,,,,,,,,,,,,,,,,,,,,,,,,,,,,,,,,,,,,,,,,,,,,,,,,,,,,,,,,,,,,,,,,,,,,,,,,,,,,,,,,,,,,,,
,,6551107f5a1d2c295466c232,2024-02-18_18h14.53.011,kallum_motion_pilot,2023.2.2,Win32,60.60606061,6551107f5a1d2c295466c232,65d2b6c8f2eece985d8e374c,65d2b92c664d1d730608dfbd,0.0417,0.0418,0,93,93,58,1,twoone,,,,,,,,,,,,,,,,,,,,,,,,,,,,,,,,,,,,,,,,,,,,,,,,,,,,,,,,,,,,,,,,,,,,,,,,,,,,,,,,,,,,,,,,,,,,,,,,,,,,,,,,,,,,,,,,,,,,,,,,,,,,,,,,,,,,,,,,,
,,6551107f5a1d2c295466c232,2024-02-18_18h14.53.011,kallum_motion_pilot,2023.2.2,Win32,60.60606061,6551107f5a1d2c295466c232,65d2b6c8f2eece985d8e374c,65d2b92c664d1d730608dfbd,0.0419,0.0419,0,94,94,62,1,fourtwo,,,,,,,,,,,,,,,,,,,,,,,,,,,,,,,,,,,,,,,,,,,,,,,,,,,,,,,,,,,,,,,,,,,,,,,,,,,,,,,,,,,,,,,,,,,,,,,,,,,,,,,,,,,,,,,,,,,,,,,,,,,,,,,,,,,,,,,,,
,,6551107f5a1d2c295466c232,2024-02-18_18h14.53.011,kallum_motion_pilot,2023.2.2,Win32,60.60606061,6551107f5a1d2c295466c232,65d2b6c8f2eece985d8e374c,65d2b92c664d1d730608dfbd,0.0419,0.042,0,95,95,153,1,fiveseven,,,,,,,,,,,,,,,,,,,,,,,,,,,,,,,,,,,,,,,,,,,,,,,,,,,,,,,,,,,,,,,,,,,,,,,,,,,,,,,,,,,,,,,,,,,,,,,,,,,,,,,,,,,,,,,,,,,,,,,,,,,,,,,,,,,,,,,,,
,,6551107f5a1d2c295466c232,2024-02-18_18h14.53.011,kallum_motion_pilot,2023.2.2,Win32,60.60606061,6551107f5a1d2c295466c232,65d2b6c8f2eece985d8e374c,65d2b92c664d1d730608dfbd,0.0421,0.0422,0,96,96,78,1,fourtwo,,,,,,,,,,,,,,,,,,,,,,,,,,,,,,,,,,,,,,,,,,,,,,,,,,,,,,,,,,,,,,,,,,,,,,,,,,,,,,,,,,,,,,,,,,,,,,,,,,,,,,,,,,,,,,,,,,,,,,,,,,,,,,,,,,,,,,,,,
,,6551107f5a1d2c295466c232,2024-02-18_18h14.53.011,kallum_motion_pilot,2023.2.2,Win32,60.60606061,6551107f5a1d2c295466c232,65d2b6c8f2eece985d8e374c,65d2b92c664d1d730608dfbd,0.0422,0.0423,0,97,97,106,1,sixfive,,,,,,,,,,,,,,,,,,,,,,,,,,,,,,,,,,,,,,,,,,,,,,,,,,,,,,,,,,,,,,,,,,,,,,,,,,,,,,,,,,,,,,,,,,,,,,,,,,,,,,,,,,,,,,,,,,,,,,,,,,,,,,,,,,,,,,,,,
,,6551107f5a1d2c295466c232,2024-02-18_18h14.53.011,kallum_motion_pilot,2023.2.2,Win32,60.60606061,6551107f5a1d2c295466c232,65d2b6c8f2eece985d8e374c,65d2b92c664d1d730608dfbd,0.0424,0.0424,0,98,98,83,1,sixeight,,,,,,,,,,,,,,,,,,,,,,,,,,,,,,,,,,,,,,,,,,,,,,,,,,,,,,,,,,,,,,,,,,,,,,,,,,,,,,,,,,,,,,,,,,,,,,,,,,,,,,,,,,,,,,,,,,,,,,,,,,,,,,,,,,,,,,,,,
,,6551107f5a1d2c295466c232,2024-02-18_18h14.53.011,kallum_motion_pilot,2023.2.2,Win32,60.60606061,6551107f5a1d2c295466c232,65d2b6c8f2eece985d8e374c,65d2b92c664d1d730608dfbd,0.0425,0.0425,0,99,99,116,1,sevenfive,,,,,,,,,,,,,,,,,,,,,,,,,,,,,,,,,,,,,,,,,,,,,,,,,,,,,,,,,,,,,,,,,,,,,,,,,,,,,,,,,,,,,,,,,,,,,,,,,,,,,,,,,,,,,,,,,,,,,,,,,,,,,,,,,,,,,,,,,
,,6551107f5a1d2c295466c232,2024-02-18_18h14.53.011,kallum_motion_pilot,2023.2.2,Win32,60.60606061,6551107f5a1d2c295466c232,65d2b6c8f2eece985d8e374c,65d2b92c664d1d730608dfbd,0.0426,0.0426,0,100,100,77,1,threefour,,,,,,,,,,,,,,,,,,,,,,,,,,,,,,,,,,,,,,,,,,,,,,,,,,,,,,,,,,,,,,,,,,,,,,,,,,,,,,,,,,,,,,,,,,,,,,,,,,,,,,,,,,,,,,,,,,,,,,,,,,,,,,,,,,,,,,,,,
,,6551107f5a1d2c295466c232,2024-02-18_18h14.53.011,kallum_motion_pilot,2023.2.2,Win32,60.60606061,6551107f5a1d2c295466c232,65d2b6c8f2eece985d8e374c,65d2b92c664d1d730608dfbd,0.0427,0.0429,0,101,101,70,1,fourtwo,,,,,,,,,,,,,,,,,,,,,,,,,,,,,,,,,,,,,,,,,,,,,,,,,,,,,,,,,,,,,,,,,,,,,,,,,,,,,,,,,,,,,,,,,,,,,,,,,,,,,,,,,,,,,,,,,,,,,,,,,,,,,,,,,,,,,,,,,
,,6551107f5a1d2c295466c232,2024-02-18_18h14.53.011,kallum_motion_pilot,2023.2.2,Win32,60.60606061,6551107f5a1d2c295466c232,65d2b6c8f2eece985d8e374c,65d2b92c664d1d730608dfbd,0.0429,0.0445,0,102,102,39,1,fourthree,,,,,,,,,,,,,,,,,,,,,,,,,,,,,,,,,,,,,,,,,,,,,,,,,,,,,,,,,,,,,,,,,,,,,,,,,,,,,,,,,,,,,,,,,,,,,,,,,,,,,,,,,,,,,,,,,,,,,,,,,,,,,,,,,,,,,,,,,
,,6551107f5a1d2c295466c232,2024-02-18_18h14.53.011,kallum_motion_pilot,2023.2.2,Win32,60.60606061,6551107f5a1d2c295466c232,65d2b6c8f2eece985d8e374c,65d2b92c664d1d730608dfbd,0.0448,0.0452,0,103,103,47,1,fourthree,,,,,,,,,,,,,,,,,,,,,,,,,,,,,,,,,,,,,,,,,,,,,,,,,,,,,,,,,,,,,,,,,,,,,,,,,,,,,,,,,,,,,,,,,,,,,,,,,,,,,,,,,,,,,,,,,,,,,,,,,,,,,,,,,,,,,,,,,
,,6551107f5a1d2c295466c232,2024-02-18_18h14.53.011,kallum_motion_pilot,2023.2.2,Win32,60.60606061,6551107f5a1d2c295466c232,65d2b6c8f2eece985d8e374c,65d2b92c664d1d730608dfbd,0.0455,0.0455,0,104,104,156,1,sevenfive,,,,,,,,,,,,,,,,,,,,,,,,,,,,,,,,,,,,,,,,,,,,,,,,,,,,,,,,,,,,,,,,,,,,,,,,,,,,,,,,,,,,,,,,,,,,,,,,,,,,,,,,,,,,,,,,,,,,,,,,,,,,,,,,,,,,,,,,,
,,6551107f5a1d2c295466c232,2024-02-18_18h14.53.011,kallum_motion_pilot,2023.2.2,Win32,60.60606061,6551107f5a1d2c295466c232,65d2b6c8f2eece985d8e374c,65d2b92c664d1d730608dfbd,0.0456,0.0458,0,105,105,59,1,twofour,,,,,,,,,,,,,,,,,,,,,,,,,,,,,,,,,,,,,,,,,,,,,,,,,,,,,,,,,,,,,,,,,,,,,,,,,,,,,,,,,,,,,,,,,,,,,,,,,,,,,,,,,,,,,,,,,,,,,,,,,,,,,,,,,,,,,,,,,
,,6551107f5a1d2c295466c232,2024-02-18_18h14.53.011,kallum_motion_pilot,2023.2.2,Win32,60.60606061,6551107f5a1d2c295466c232,65d2b6c8f2eece985d8e374c,65d2b92c664d1d730608dfbd,0.046,0.0461,0,106,106,34,1,twoone,,,,,,,,,,,,,,,,,,,,,,,,,,,,,,,,,,,,,,,,,,,,,,,,,,,,,,,,,,,,,,,,,,,,,,,,,,,,,,,,,,,,,,,,,,,,,,,,,,,,,,,,,,,,,,,,,,,,,,,,,,,,,,,,,,,,,,,,,
,,6551107f5a1d2c295466c232,2024-02-18_18h14.53.011,kallum_motion_pilot,2023.2.2,Win32,60.60606061,6551107f5a1d2c295466c232,65d2b6c8f2eece985d8e374c,65d2b92c664d1d730608dfbd,0.0464,0.0464,0,107,107,123,1,sixeight,,,,,,,,,,,,,,,,,,,,,,,,,,,,,,,,,,,,,,,,,,,,,,,,,,,,,,,,,,,,,,,,,,,,,,,,,,,,,,,,,,,,,,,,,,,,,,,,,,,,,,,,,,,,,,,,,,,,,,,,,,,,,,,,,,,,,,,,,
,,6551107f5a1d2c295466c232,2024-02-18_18h14.53.011,kallum_motion_pilot,2023.2.2,Win32,60.60606061,6551107f5a1d2c295466c232,65d2b6c8f2eece985d8e374c,65d2b92c664d1d730608dfbd,0.0465,0.0465,0,108,108,36,1,threeone,,,,,,,,,,,,,,,,,,,,,,,,,,,,,,,,,,,,,,,,,,,,,,,,,,,,,,,,,,,,,,,,,,,,,,,,,,,,,,,,,,,,,,,,,,,,,,,,,,,,,,,,,,,,,,,,,,,,,,,,,,,,,,,,,,,,,,,,,
,,6551107f5a1d2c295466c232,2024-02-18_18h14.53.011,kallum_motion_pilot,2023.2.2,Win32,60.60606061,6551107f5a1d2c295466c232,65d2b6c8f2eece985d8e374c,65d2b92c664d1d730608dfbd,0.0467,0.0468,0,109,109,41,1,onethree,,,,,,,,,,,,,,,,,,,,,,,,,,,,,,,,,,,,,,,,,,,,,,,,,,,,,,,,,,,,,,,,,,,,,,,,,,,,,,,,,,,,,,,,,,,,,,,,,,,,,,,,,,,,,,,,,,,,,,,,,,,,,,,,,,,,,,,,,
,,6551107f5a1d2c295466c232,2024-02-18_18h14.53.011,kallum_motion_pilot,2023.2.2,Win32,60.60606061,6551107f5a1d2c295466c232,65d2b6c8f2eece985d8e374c,65d2b92c664d1d730608dfbd,0.0469,0.047,0,110,110,101,1,seveneight,,,,,,,,,,,,,,,,,,,,,,,,,,,,,,,,,,,,,,,,,,,,,,,,,,,,,,,,,,,,,,,,,,,,,,,,,,,,,,,,,,,,,,,,,,,,,,,,,,,,,,,,,,,,,,,,,,,,,,,,,,,,,,,,,,,,,,,,,
,,6551107f5a1d2c295466c232,2024-02-18_18h14.53.011,kallum_motion_pilot,2023.2.2,Win32,60.60606061,6551107f5a1d2c295466c232,65d2b6c8f2eece985d8e374c,65d2b92c664d1d730608dfbd,0.047,0.047,0,111,111,81,1,fiveseven,,,,,,,,,,,,,,,,,,,,,,,,,,,,,,,,,,,,,,,,,,,,,,,,,,,,,,,,,,,,,,,,,,,,,,,,,,,,,,,,,,,,,,,,,,,,,,,,,,,,,,,,,,,,,,,,,,,,,,,,,,,,,,,,,,,,,,,,,
,,6551107f5a1d2c295466c232,2024-02-18_18h14.53.011,kallum_motion_pilot,2023.2.2,Win32,60.60606061,6551107f5a1d2c295466c232,65d2b6c8f2eece985d8e374c,65d2b92c664d1d730608dfbd,0.0471,0.0471,0,112,112,91,1,sixeight,,,,,,,,,,,,,,,,,,,,,,,,,,,,,,,,,,,,,,,,,,,,,,,,,,,,,,,,,,,,,,,,,,,,,,,,,,,,,,,,,,,,,,,,,,,,,,,,,,,,,,,,,,,,,,,,,,,,,,,,,,,,,,,,,,,,,,,,,
,,6551107f5a1d2c295466c232,2024-02-18_18h14.53.011,kallum_motion_pilot,2023.2.2,Win32,60.60606061,6551107f5a1d2c295466c232,65d2b6c8f2eece985d8e374c,65d2b92c664d1d730608dfbd,0.0472,0.0473,0,113,113,64,1,onetwo,,,,,,,,,,,,,,,,,,,,,,,,,,,,,,,,,,,,,,,,,,,,,,,,,,,,,,,,,,,,,,,,,,,,,,,,,,,,,,,,,,,,,,,,,,,,,,,,,,,,,,,,,,,,,,,,,,,,,,,,,,,,,,,,,,,,,,,,,
,,6551107f5a1d2c295466c232,2024-02-18_18h14.53.011,kallum_motion_pilot,2023.2.2,Win32,60.60606061,6551107f5a1d2c295466c232,65d2b6c8f2eece985d8e374c,65d2b92c664d1d730608dfbd,0.0474,0.0474,0,114,114,15,1,fourthree,,,,,,,,,,,,,,,,,,,,,,,,,,,,,,,,,,,,,,,,,,,,,,,,,,,,,,,,,,,,,,,,,,,,,,,,,,,,,,,,,,,,,,,,,,,,,,,,,,,,,,,,,,,,,,,,,,,,,,,,,,,,,,,,,,,,,,,,,
,,6551107f5a1d2c295466c232,2024-02-18_18h14.53.011,kallum_motion_pilot,2023.2.2,Win32,60.60606061,6551107f5a1d2c295466c232,65d2b6c8f2eece985d8e374c,65d2b92c664d1d730608dfbd,0.0475,0.0475,0,115,115,147,1,sixeight,,,,,,,,,,,,,,,,,,,,,,,,,,,,,,,,,,,,,,,,,,,,,,,,,,,,,,,,,,,,,,,,,,,,,,,,,,,,,,,,,,,,,,,,,,,,,,,,,,,,,,,,,,,,,,,,,,,,,,,,,,,,,,,,,,,,,,,,,
,,6551107f5a1d2c295466c232,2024-02-18_18h14.53.011,kallum_motion_pilot,2023.2.2,Win32,60.60606061,6551107f5a1d2c295466c232,65d2b6c8f2eece985d8e374c,65d2b92c664d1d730608dfbd,0.0476,0.0479,0,116,116,95,1,eightseven,,,,,,,,,,,,,,,,,,,,,,,,,,,,,,,,,,,,,,,,,,,,,,,,,,,,,,,,,,,,,,,,,,,,,,,,,,,,,,,,,,,,,,,,,,,,,,,,,,,,,,,,,,,,,,,,,,,,,,,,,,,,,,,,,,,,,,,,,
,,6551107f5a1d2c295466c232,2024-02-18_18h14.53.011,kallum_motion_pilot,2023.2.2,Win32,60.60606061,6551107f5a1d2c295466c232,65d2b6c8f2eece985d8e374c,65d2b92c664d1d730608dfbd,0.0479,0.048,0,117,117,159,1,eightseven,,,,,,,,,,,,,,,,,,,,,,,,,,,,,,,,,,,,,,,,,,,,,,,,,,,,,,,,,,,,,,,,,,,,,,,,,,,,,,,,,,,,,,,,,,,,,,,,,,,,,,,,,,,,,,,,,,,,,,,,,,,,,,,,,,,,,,,,,
,,6551107f5a1d2c295466c232,2024-02-18_18h14.53.011,kallum_motion_pilot,2023.2.2,Win32,60.60606061,6551107f5a1d2c295466c232,65d2b6c8f2eece985d8e374c,65d2b92c664d1d730608dfbd,0.048,0.048,0,118,118,12,1,threeone,,,,,,,,,,,,,,,,,,,,,,,,,,,,,,,,,,,,,,,,,,,,,,,,,,,,,,,,,,,,,,,,,,,,,,,,,,,,,,,,,,,,,,,,,,,,,,,,,,,,,,,,,,,,,,,,,,,,,,,,,,,,,,,,,,,,,,,,,
,,6551107f5a1d2c295466c232,2024-02-18_18h14.53.011,kallum_motion_pilot,2023.2.2,Win32,60.60606061,6551107f5a1d2c295466c232,65d2b6c8f2eece985d8e374c,65d2b92c664d1d730608dfbd,0.0483,0.0483,0,119,119,23,1,fourthree,,,,,,,,,,,,,,,,,,,,,,,,,,,,,,,,,,,,,,,,,,,,,,,,,,,,,,,,,,,,,,,,,,,,,,,,,,,,,,,,,,,,,,,,,,,,,,,,,,,,,,,,,,,,,,,,,,,,,,,,,,,,,,,,,,,,,,,,,
,,6551107f5a1d2c295466c232,2024-02-18_18h14.53.011,kallum_motion_pilot,2023.2.2,Win32,60.60606061,6551107f5a1d2c295466c232,65d2b6c8f2eece985d8e374c,65d2b92c664d1d730608dfbd,0.0484,0.0484,0,120,120,132,1,sevenfive,,,,,,,,,,,,,,,,,,,,,,,,,,,,,,,,,,,,,,,,,,,,,,,,,,,,,,,,,,,,,,,,,,,,,,,,,,,,,,,,,,,,,,,,,,,,,,,,,,,,,,,,,,,,,,,,,,,,,,,,,,,,,,,,,,,,,,,,,
,,6551107f5a1d2c295466c232,2024-02-18_18h14.53.011,kallum_motion_pilot,2023.2.2,Win32,60.60606061,6551107f5a1d2c295466c232,65d2b6c8f2eece985d8e374c,65d2b92c664d1d730608dfbd,0.0486,0.0486,0,121,121,51,1,twofour,,,,,,,,,,,,,,,,,,,,,,,,,,,,,,,,,,,,,,,,,,,,,,,,,,,,,,,,,,,,,,,,,,,,,,,,,,,,,,,,,,,,,,,,,,,,,,,,,,,,,,,,,,,,,,,,,,,,,,,,,,,,,,,,,,,,,,,,,
,,6551107f5a1d2c295466c232,2024-02-18_18h14.53.011,kallum_motion_pilot,2023.2.2,Win32,60.60606061,6551107f5a1d2c295466c232,65d2b6c8f2eece985d8e374c,65d2b92c664d1d730608dfbd,0.0487,0.0487,0,122,122,60,1,threeone,,,,,,,,,,,,,,,,,,,,,,,,,,,,,,,,,,,,,,,,,,,,,,,,,,,,,,,,,,,,,,,,,,,,,,,,,,,,,,,,,,,,,,,,,,,,,,,,,,,,,,,,,,,,,,,,,,,,,,,,,,,,,,,,,,,,,,,,,
,,6551107f5a1d2c295466c232,2024-02-18_18h14.53.011,kallum_motion_pilot,2023.2.2,Win32,60.60606061,6551107f5a1d2c295466c232,65d2b6c8f2eece985d8e374c,65d2b92c664d1d730608dfbd,0.0488,0.0489,0,123,123,142,1,eightsix,,,,,,,,,,,,,,,,,,,,,,,,,,,,,,,,,,,,,,,,,,,,,,,,,,,,,,,,,,,,,,,,,,,,,,,,,,,,,,,,,,,,,,,,,,,,,,,,,,,,,,,,,,,,,,,,,,,,,,,,,,,,,,,,,,,,,,,,,
,,6551107f5a1d2c295466c232,2024-02-18_18h14.53.011,kallum_motion_pilot,2023.2.2,Win32,60.60606061,6551107f5a1d2c295466c232,65d2b6c8f2eece985d8e374c,65d2b92c664d1d730608dfbd,0.049,0.0491,0,124,124,114,1,sixfive,,,,,,,,,,,,,,,,,,,,,,,,,,,,,,,,,,,,,,,,,,,,,,,,,,,,,,,,,,,,,,,,,,,,,,,,,,,,,,,,,,,,,,,,,,,,,,,,,,,,,,,,,,,,,,,,,,,,,,,,,,,,,,,,,,,,,,,,,
,,6551107f5a1d2c295466c232,2024-02-18_18h14.53.011,kallum_motion_pilot,2023.2.2,Win32,60.60606061,6551107f5a1d2c295466c232,65d2b6c8f2eece985d8e374c,65d2b92c664d1d730608dfbd,0.0492,0.0494,0,125,125,33,1,onethree,,,,,,,,,,,,,,,,,,,,,,,,,,,,,,,,,,,,,,,,,,,,,,,,,,,,,,,,,,,,,,,,,,,,,,,,,,,,,,,,,,,,,,,,,,,,,,,,,,,,,,,,,,,,,,,,,,,,,,,,,,,,,,,,,,,,,,,,,
,,6551107f5a1d2c295466c232,2024-02-18_18h14.53.011,kallum_motion_pilot,2023.2.2,Win32,60.60606061,6551107f5a1d2c295466c232,65d2b6c8f2eece985d8e374c,65d2b92c664d1d730608dfbd,0.0494,0.0496,0,126,126,43,1,twofour,,,,,,,,,,,,,,,,,,,,,,,,,,,,,,,,,,,,,,,,,,,,,,,,,,,,,,,,,,,,,,,,,,,,,,,,,,,,,,,,,,,,,,,,,,,,,,,,,,,,,,,,,,,,,,,,,,,,,,,,,,,,,,,,,,,,,,,,,
,,6551107f5a1d2c295466c232,2024-02-18_18h14.53.011,kallum_motion_pilot,2023.2.2,Win32,60.60606061,6551107f5a1d2c295466c232,65d2b6c8f2eece985d8e374c,65d2b92c664d1d730608dfbd,0.0496,0.0497,0,127,127,48,1,onetwo,,,,,,,,,,,,,,,,,,,,,,,,,,,,,,,,,,,,,,,,,,,,,,,,,,,,,,,,,,,,,,,,,,,,,,,,,,,,,,,,,,,,,,,,,,,,,,,,,,,,,,,,,,,,,,,,,,,,,,,,,,,,,,,,,,,,,,,,,
,,6551107f5a1d2c295466c232,2024-02-18_18h14.53.011,kallum_motion_pilot,2023.2.2,Win32,60.60606061,6551107f5a1d2c295466c232,65d2b6c8f2eece985d8e374c,65d2b92c664d1d730608dfbd,0.0498,0.0498,0,128,128,21,1,threefour,,,,,,,,,,,,,,,,,,,,,,,,,,,,,,,,,,,,,,,,,,,,,,,,,,,,,,,,,,,,,,,,,,,,,,,,,,,,,,,,,,,,,,,,,,,,,,,,,,,,,,,,,,,,,,,,,,,,,,,,,,,,,,,,,,,,,,,,,
,,6551107f5a1d2c295466c232,2024-02-18_18h14.53.011,kallum_motion_pilot,2023.2.2,Win32,60.60606061,6551107f5a1d2c295466c232,65d2b6c8f2eece985d8e374c,65d2b92c664d1d730608dfbd,0.05,0.05,0,129,129,144,1,fivesix,,,,,,,,,,,,,,,,,,,,,,,,,,,,,,,,,,,,,,,,,,,,,,,,,,,,,,,,,,,,,,,,,,,,,,,,,,,,,,,,,,,,,,,,,,,,,,,,,,,,,,,,,,,,,,,,,,,,,,,,,,,,,,,,,,,,,,,,,
,,6551107f5a1d2c295466c232,2024-02-18_18h14.53.011,kallum_motion_pilot,2023.2.2,Win32,60.60606061,6551107f5a1d2c295466c232,65d2b6c8f2eece985d8e374c,65d2b92c664d1d730608dfbd,0.0501,0.0501,0,130,130,80,1,fivesix,,,,,,,,,,,,,,,,,,,,,,,,,,,,,,,,,,,,,,,,,,,,,,,,,,,,,,,,,,,,,,,,,,,,,,,,,,,,,,,,,,,,,,,,,,,,,,,,,,,,,,,,,,,,,,,,,,,,,,,,,,,,,,,,,,,,,,,,,
,,6551107f5a1d2c295466c232,2024-02-18_18h14.53.011,kallum_motion_pilot,2023.2.2,Win32,60.60606061,6551107f5a1d2c295466c232,65d2b6c8f2eece985d8e374c,65d2b92c664d1d730608dfbd,0.0502,0.0503,0,131,131,155,1,sixeight,,,,,,,,,,,,,,,,,,,,,,,,,,,,,,,,,,,,,,,,,,,,,,,,,,,,,,,,,,,,,,,,,,,,,,,,,,,,,,,,,,,,,,,,,,,,,,,,,,,,,,,,,,,,,,,,,,,,,,,,,,,,,,,,,,,,,,,,,
,,6551107f5a1d2c295466c232,2024-02-18_18h14.53.011,kallum_motion_pilot,2023.2.2,Win32,60.60606061,6551107f5a1d2c295466c232,65d2b6c8f2eece985d8e374c,65d2b92c664d1d730608dfbd,0.0503,0.0503,0,132,132,9,1,onethree,,,,,,,,,,,,,,,,,,,,,,,,,,,,,,,,,,,,,,,,,,,,,,,,,,,,,,,,,,,,,,,,,,,,,,,,,,,,,,,,,,,,,,,,,,,,,,,,,,,,,,,,,,,,,,,,,,,,,,,,,,,,,,,,,,,,,,,,,
,,6551107f5a1d2c295466c232,2024-02-18_18h14.53.011,kallum_motion_pilot,2023.2.2,Win32,60.60606061,6551107f5a1d2c295466c232,65d2b6c8f2eece985d8e374c,65d2b92c664d1d730608dfbd,0.0503,0.0504,0,133,133,66,1,twoone,,,,,,,,,,,,,,,,,,,,,,,,,,,,,,,,,,,,,,,,,,,,,,,,,,,,,,,,,,,,,,,,,,,,,,,,,,,,,,,,,,,,,,,,,,,,,,,,,,,,,,,,,,,,,,,,,,,,,,,,,,,,,,,,,,,,,,,,,
,,6551107f5a1d2c295466c232,2024-02-18_18h14.53.011,kallum_motion_pilot,2023.2.2,Win32,60.60606061,6551107f5a1d2c295466c232,65d2b6c8f2eece985d8e374c,65d2b92c664d1d730608dfbd,0.0505,0.0506,0,134,134,74,1,twoone,,,,,,,,,,,,,,,,,,,,,,,,,,,,,,,,,,,,,,,,,,,,,,,,,,,,,,,,,,,,,,,,,,,,,,,,,,,,,,,,,,,,,,,,,,,,,,,,,,,,,,,,,,,,,,,,,,,,,,,,,,,,,,,,,,,,,,,,,
,,6551107f5a1d2c295466c232,2024-02-18_18h14.53.011,kallum_motion_pilot,2023.2.2,Win32,60.60606061,6551107f5a1d2c295466c232,65d2b6c8f2eece985d8e374c,65d2b92c664d1d730608dfbd,0.0506,0.0507,0,135,135,135,1,eightseven,,,,,,,,,,,,,,,,,,,,,,,,,,,,,,,,,,,,,,,,,,,,,,,,,,,,,,,,,,,,,,,,,,,,,,,,,,,,,,,,,,,,,,,,,,,,,,,,,,,,,,,,,,,,,,,,,,,,,,,,,,,,,,,,,,,,,,,,,
,,6551107f5a1d2c295466c232,2024-02-18_18h14.53.011,kallum_motion_pilot,2023.2.2,Win32,60.60606061,6551107f5a1d2c295466c232,65d2b6c8f2eece985d8e374c,65d2b92c664d1d730608dfbd,0.0507,0.0507,0,136,136,111,1,eightseven,,,,,,,,,,,,,,,,,,,,,,,,,,,,,,,,,,,,,,,,,,,,,,,,,,,,,,,,,,,,,,,,,,,,,,,,,,,,,,,,,,,,,,,,,,,,,,,,,,,,,,,,,,,,,,,,,,,,,,,,,,,,,,,,,,,,,,,,,
,,6551107f5a1d2c295466c232,2024-02-18_18h14.53.011,kallum_motion_pilot,2023.2.2,Win32,60.60606061,6551107f5a1d2c295466c232,65d2b6c8f2eece985d8e374c,65d2b92c664d1d730608dfbd,0.0508,0.0508,0,137,137,103,1,eightseven,,,,,,,,,,,,,,,,,,,,,,,,,,,,,,,,,,,,,,,,,,,,,,,,,,,,,,,,,,,,,,,,,,,,,,,,,,,,,,,,,,,,,,,,,,,,,,,,,,,,,,,,,,,,,,,,,,,,,,,,,,,,,,,,,,,,,,,,,
,,6551107f5a1d2c295466c232,2024-02-18_18h14.53.011,kallum_motion_pilot,2023.2.2,Win32,60.60606061,6551107f5a1d2c295466c232,65d2b6c8f2eece985d8e374c,65d2b92c664d1d730608dfbd,0.0509,0.0509,0,138,138,0,1,onetwo,,,,,,,,,,,,,,,,,,,,,,,,,,,,,,,,,,,,,,,,,,,,,,,,,,,,,,,,,,,,,,,,,,,,,,,,,,,,,,,,,,,,,,,,,,,,,,,,,,,,,,,,,,,,,,,,,,,,,,,,,,,,,,,,,,,,,,,,,
,,6551107f5a1d2c295466c232,2024-02-18_18h14.53.011,kallum_motion_pilot,2023.2.2,Win32,60.60606061,6551107f5a1d2c295466c232,65d2b6c8f2eece985d8e374c,65d2b92c664d1d730608dfbd,0.051,0.0511,0,139,139,124,1,sevenfive,,,,,,,,,,,,,,,,,,,,,,,,,,,,,,,,,,,,,,,,,,,,,,,,,,,,,,,,,,,,,,,,,,,,,,,,,,,,,,,,,,,,,,,,,,,,,,,,,,,,,,,,,,,,,,,,,,,,,,,,,,,,,,,,,,,,,,,,,
,,6551107f5a1d2c295466c232,2024-02-18_18h14.53.011,kallum_motion_pilot,2023.2.2,Win32,60.60606061,6551107f5a1d2c295466c232,65d2b6c8f2eece985d8e374c,65d2b92c664d1d730608dfbd,0.0511,0.0512,0,140,140,65,1,onethree,,,,,,,,,,,,,,,,,,,,,,,,,,,,,,,,,,,,,,,,,,,,,,,,,,,,,,,,,,,,,,,,,,,,,,,,,,,,,,,,,,,,,,,,,,,,,,,,,,,,,,,,,,,,,,,,,,,,,,,,,,,,,,,,,,,,,,,,,
,,6551107f5a1d2c295466c232,2024-02-18_18h14.53.011,kallum_motion_pilot,2023.2.2,Win32,60.60606061,6551107f5a1d2c295466c232,65d2b6c8f2eece985d8e374c,65d2b92c664d1d730608dfbd,0.0512,0.0512,0,141,141,42,1,twoone,,,,,,,,,,,,,,,,,,,,,,,,,,,,,,,,,,,,,,,,,,,,,,,,,,,,,,,,,,,,,,,,,,,,,,,,,,,,,,,,,,,,,,,,,,,,,,,,,,,,,,,,,,,,,,,,,,,,,,,,,,,,,,,,,,,,,,,,,
,,6551107f5a1d2c295466c232,2024-02-18_18h14.53.011,kallum_motion_pilot,2023.2.2,Win32,60.60606061,6551107f5a1d2c295466c232,65d2b6c8f2eece985d8e374c,65d2b92c664d1d730608dfbd,0.0513,0.0514,0,142,142,96,1,fivesix,,,,,,,,,,,,,,,,,,,,,,,,,,,,,,,,,,,,,,,,,,,,,,,,,,,,,,,,,,,,,,,,,,,,,,,,,,,,,,,,,,,,,,,,,,,,,,,,,,,,,,,,,,,,,,,,,,,,,,,,,,,,,,,,,,,,,,,,,
,,6551107f5a1d2c295466c232,2024-02-18_18h14.53.011,kallum_motion_pilot,2023.2.2,Win32,60.60606061,6551107f5a1d2c295466c232,65d2b6c8f2eece985d8e374c,65d2b92c664d1d730608dfbd,0.0515,0.0516,0,143,143,55,1,fourthree,,,,,,,,,,,,,,,,,,,,,,,,,,,,,,,,,,,,,,,,,,,,,,,,,,,,,,,,,,,,,,,,,,,,,,,,,,,,,,,,,,,,,,,,,,,,,,,,,,,,,,,,,,,,,,,,,,,,,,,,,,,,,,,,,,,,,,,,,
,,6551107f5a1d2c295466c232,2024-02-18_18h14.53.011,kallum_motion_pilot,2023.2.2,Win32,60.60606061,6551107f5a1d2c295466c232,65d2b6c8f2eece985d8e374c,65d2b92c664d1d730608dfbd,0.0516,0.0517,0,144,144,71,1,fourthree,,,,,,,,,,,,,,,,,,,,,,,,,,,,,,,,,,,,,,,,,,,,,,,,,,,,,,,,,,,,,,,,,,,,,,,,,,,,,,,,,,,,,,,,,,,,,,,,,,,,,,,,,,,,,,,,,,,,,,,,,,,,,,,,,,,,,,,,,
,,6551107f5a1d2c295466c232,2024-02-18_18h14.53.011,kallum_motion_pilot,2023.2.2,Win32,60.60606061,6551107f5a1d2c295466c232,65d2b6c8f2eece985d8e374c,65d2b92c664d1d730608dfbd,0.0518,0.0518,0,145,145,149,1,seveneight,,,,,,,,,,,,,,,,,,,,,,,,,,,,,,,,,,,,,,,,,,,,,,,,,,,,,,,,,,,,,,,,,,,,,,,,,,,,,,,,,,,,,,,,,,,,,,,,,,,,,,,,,,,,,,,,,,,,,,,,,,,,,,,,,,,,,,,,,
,,6551107f5a1d2c295466c232,2024-02-18_18h14.53.011,kallum_motion_pilot,2023.2.2,Win32,60.60606061,6551107f5a1d2c295466c232,65d2b6c8f2eece985d8e374c,65d2b92c664d1d730608dfbd,0.0519,0.0521,0,146,146,129,1,fiveseven,,,,,,,,,,,,,,,,,,,,,,,,,,,,,,,,,,,,,,,,,,,,,,,,,,,,,,,,,,,,,,,,,,,,,,,,,,,,,,,,,,,,,,,,,,,,,,,,,,,,,,,,,,,,,,,,,,,,,,,,,,,,,,,,,,,,,,,,,
,,6551107f5a1d2c295466c232,2024-02-18_18h14.53.011,kallum_motion_pilot,2023.2.2,Win32,60.60606061,6551107f5a1d2c295466c232,65d2b6c8f2eece985d8e374c,65d2b92c664d1d730608dfbd,0.0521,0.0523,0,147,147,104,1,fivesix,,,,,,,,,,,,,,,,,,,,,,,,,,,,,,,,,,,,,,,,,,,,,,,,,,,,,,,,,,,,,,,,,,,,,,,,,,,,,,,,,,,,,,,,,,,,,,,,,,,,,,,,,,,,,,,,,,,,,,,,,,,,,,,,,,,,,,,,,
,,6551107f5a1d2c295466c232,2024-02-18_18h14.53.011,kallum_motion_pilot,2023.2.2,Win32,60.60606061,6551107f5a1d2c295466c232,65d2b6c8f2eece985d8e374c,65d2b92c664d1d730608dfbd,0.0524,0.0525,0,148,148,150,1,eightsix,,,,,,,,,,,,,,,,,,,,,,,,,,,,,,,,,,,,,,,,,,,,,,,,,,,,,,,,,,,,,,,,,,,,,,,,,,,,,,,,,,,,,,,,,,,,,,,,,,,,,,,,,,,,,,,,,,,,,,,,,,,,,,,,,,,,,,,,,
,,6551107f5a1d2c295466c232,2024-02-18_18h14.53.011,kallum_motion_pilot,2023.2.2,Win32,60.60606061,6551107f5a1d2c295466c232,65d2b6c8f2eece985d8e374c,65d2b92c664d1d730608dfbd,0.0527,0.0527,0,149,149,113,1,fiveseven,,,,,,,,,,,,,,,,,,,,,,,,,,,,,,,,,,,,,,,,,,,,,,,,,,,,,,,,,,,,,,,,,,,,,,,,,,,,,,,,,,,,,,,,,,,,,,,,,,,,,,,,,,,,,,,,,,,,,,,,,,,,,,,,,,,,,,,,,
,,6551107f5a1d2c295466c232,2024-02-18_18h14.53.011,kallum_motion_pilot,2023.2.2,Win32,60.60606061,6551107f5a1d2c295466c232,65d2b6c8f2eece985d8e374c,65d2b92c664d1d730608dfbd,0.0528,0.053,0,150,150,102,1,eightsix,,,,,,,,,,,,,,,,,,,,,,,,,,,,,,,,,,,,,,,,,,,,,,,,,,,,,,,,,,,,,,,,,,,,,,,,,,,,,,,,,,,,,,,,,,,,,,,,,,,,,,,,,,,,,,,,,,,,,,,,,,,,,,,,,,,,,,,,,
,,6551107f5a1d2c295466c232,2024-02-18_18h14.53.011,kallum_motion_pilot,2023.2.2,Win32,60.60606061,6551107f5a1d2c295466c232,65d2b6c8f2eece985d8e374c,65d2b92c664d1d730608dfbd,0.0531,0.0532,0,151,151,76,1,threeone,,,,,,,,,,,,,,,,,,,,,,,,,,,,,,,,,,,,,,,,,,,,,,,,,,,,,,,,,,,,,,,,,,,,,,,,,,,,,,,,,,,,,,,,,,,,,,,,,,,,,,,,,,,,,,,,,,,,,,,,,,,,,,,,,,,,,,,,,
,,6551107f5a1d2c295466c232,2024-02-18_18h14.53.011,kallum_motion_pilot,2023.2.2,Win32,60.60606061,6551107f5a1d2c295466c232,65d2b6c8f2eece985d8e374c,65d2b92c664d1d730608dfbd,0.0533,0.0534,0,152,152,20,1,threeone,,,,,,,,,,,,,,,,,,,,,,,,,,,,,,,,,,,,,,,,,,,,,,,,,,,,,,,,,,,,,,,,,,,,,,,,,,,,,,,,,,,,,,,,,,,,,,,,,,,,,,,,,,,,,,,,,,,,,,,,,,,,,,,,,,,,,,,,,
,,6551107f5a1d2c295466c232,2024-02-18_18h14.53.011,kallum_motion_pilot,2023.2.2,Win32,60.60606061,6551107f5a1d2c295466c232,65d2b6c8f2eece985d8e374c,65d2b92c664d1d730608dfbd,0.0534,0.0535,0,153,153,94,1,eightsix,,,,,,,,,,,,,,,,,,,,,,,,,,,,,,,,,,,,,,,,,,,,,,,,,,,,,,,,,,,,,,,,,,,,,,,,,,,,,,,,,,,,,,,,,,,,,,,,,,,,,,,,,,,,,,,,,,,,,,,,,,,,,,,,,,,,,,,,,
,,6551107f5a1d2c295466c232,2024-02-18_18h14.53.011,kallum_motion_pilot,2023.2.2,Win32,60.60606061,6551107f5a1d2c295466c232,65d2b6c8f2eece985d8e374c,65d2b92c664d1d730608dfbd,0.0536,0.0537,0,154,154,7,1,fourthree,,,,,,,,,,,,,,,,,,,,,,,,,,,,,,,,,,,,,,,,,,,,,,,,,,,,,,,,,,,,,,,,,,,,,,,,,,,,,,,,,,,,,,,,,,,,,,,,,,,,,,,,,,,,,,,,,,,,,,,,,,,,,,,,,,,,,,,,,
,,6551107f5a1d2c295466c232,2024-02-18_18h14.53.011,kallum_motion_pilot,2023.2.2,Win32,60.60606061,6551107f5a1d2c295466c232,65d2b6c8f2eece985d8e374c,65d2b92c664d1d730608dfbd,0.0537,0.0538,0,155,155,148,1,sevenfive,,,,,,,,,,,,,,,,,,,,,,,,,,,,,,,,,,,,,,,,,,,,,,,,,,,,,,,,,,,,,,,,,,,,,,,,,,,,,,,,,,,,,,,,,,,,,,,,,,,,,,,,,,,,,,,,,,,,,,,,,,,,,,,,,,,,,,,,,
,,6551107f5a1d2c295466c232,2024-02-18_18h14.53.011,kallum_motion_pilot,2023.2.2,Win32,60.60606061,6551107f5a1d2c295466c232,65d2b6c8f2eece985d8e374c,65d2b92c664d1d730608dfbd,0.0538,0.054,0,156,156,120,1,fivesix,,,,,,,,,,,,,,,,,,,,,,,,,,,,,,,,,,,,,,,,,,,,,,,,,,,,,,,,,,,,,,,,,,,,,,,,,,,,,,,,,,,,,,,,,,,,,,,,,,,,,,,,,,,,,,,,,,,,,,,,,,,,,,,,,,,,,,,,,
,,6551107f5a1d2c295466c232,2024-02-18_18h14.53.011,kallum_motion_pilot,2023.2.2,Win32,60.60606061,6551107f5a1d2c295466c232,65d2b6c8f2eece985d8e374c,65d2b92c664d1d730608dfbd,0.054,0.054,0,157,157,75,1,twofour,,,,,,,,,,,,,,,,,,,,,,,,,,,,,,,,,,,,,,,,,,,,,,,,,,,,,,,,,,,,,,,,,,,,,,,,,,,,,,,,,,,,,,,,,,,,,,,,,,,,,,,,,,,,,,,,,,,,,,,,,,,,,,,,,,,,,,,,,
,,6551107f5a1d2c295466c232,2024-02-18_18h14.53.011,kallum_motion_pilot,2023.2.2,Win32,60.60606061,6551107f5a1d2c295466c232,65d2b6c8f2eece985d8e374c,65d2b92c664d1d730608dfbd,0.0542,0.0543,0,158,158,145,1,fiveseven,,,,,,,,,,,,,,,,,,,,,,,,,,,,,,,,,,,,,,,,,,,,,,,,,,,,,,,,,,,,,,,,,,,,,,,,,,,,,,,,,,,,,,,,,,,,,,,,,,,,,,,,,,,,,,,,,,,,,,,,,,,,,,,,,,,,,,,,,
,,6551107f5a1d2c295466c232,2024-02-18_18h14.53.011,kallum_motion_pilot,2023.2.2,Win32,60.60606061,6551107f5a1d2c295466c232,65d2b6c8f2eece985d8e374c,65d2b92c664d1d730608dfbd,0.0543,0.0544,0,159,159,84,1,sevenfive,,,,,,,,,,,,,,,,,,,,,,,,,,,,,,,,,,,,,,,,,,,,,,,,,,,,,,,,,,,,,,,,,,,,,,,,,,,,,,,,,,,,,,,,,,,,,,,,,,,,,,,,,,,,,,,,,,,,,,,,,,,,,,,,,,,,,,,,,
,,6551107f5a1d2c295466c232,2024-02-18_18h14.53.011,kallum_motion_pilot,2023.2.2,Win32,60.60606061,6551107f5a1d2c295466c232,65d2b6c8f2eece985d8e374c,65d2b92c664d1d730608dfbd,0.0545,0.0545,0,160,160,19,1,twofour,,,,,,,,,,,,,,,,,,,,,,,,,,,,,,,,,,,,,,,,,,,,,,,,,,,,,,,,,,,,,,,,,,,,,,,,,,,,,,,,,,,,,,,,,,,,,,,,,,,,,,,,,,,,,,,,,,,,,,,,,,,,,,,,,,,,,,,,,
,,6551107f5a1d2c295466c232,2024-02-18_18h14.53.011,kallum_motion_pilot,2023.2.2,Win32,60.60606061,6551107f5a1d2c295466c232,65d2b6c8f2eece985d8e374c,65d2b92c664d1d730608dfbd,0.0545,0.0546,0,161,161,35,1,twofour,,,,,,,,,,,,,,,,,,,,,,,,,,,,,,,,,,,,,,,,,,,,,,,,,,,,,,,,,,,,,,,,,,,,,,,,,,,,,,,,,,,,,,,,,,,,,,,,,,,,,,,,,,,,,,,,,,,,,,,,,,,,,,,,,,,,,,,,,
,,6551107f5a1d2c295466c232,2024-02-18_18h14.53.011,kallum_motion_pilot,2023.2.2,Win32,60.60606061,6551107f5a1d2c295466c232,65d2b6c8f2eece985d8e374c,65d2b92c664d1d730608dfbd,0.0547,0.0547,1,0,162,69,1,threefour,,,,,,,,,,,,,,,,,,,,,,,,,,,,,,,,,,,,,,,,,,,,,,,,,,,,,,,,,,,,,,,,,,,,,,,,,,,,,,,,,,,,,,,,,,,,,,,,,,,,,,,,,,,,,,,,,,,,,,,,,,,,,,,,,,,,,,,,,
,,6551107f5a1d2c295466c232,2024-02-18_18h14.53.011,kallum_motion_pilot,2023.2.2,Win32,60.60606061,6551107f5a1d2c295466c232,65d2b6c8f2eece985d8e374c,65d2b92c664d1d730608dfbd,0.0548,0.0549,1,1,163,42,1,twoone,,,,,,,,,,,,,,,,,,,,,,,,,,,,,,,,,,,,,,,,,,,,,,,,,,,,,,,,,,,,,,,,,,,,,,,,,,,,,,,,,,,,,,,,,,,,,,,,,,,,,,,,,,,,,,,,,,,,,,,,,,,,,,,,,,,,,,,,,
,,6551107f5a1d2c295466c232,2024-02-18_18h14.53.011,kallum_motion_pilot,2023.2.2,Win32,60.60606061,6551107f5a1d2c295466c232,65d2b6c8f2eece985d8e374c,65d2b92c664d1d730608dfbd,0.0549,0.0551,1,2,164,88,1,fivesix,,,,,,,,,,,,,,,,,,,,,,,,,,,,,,,,,,,,,,,,,,,,,,,,,,,,,,,,,,,,,,,,,,,,,,,,,,,,,,,,,,,,,,,,,,,,,,,,,,,,,,,,,,,,,,,,,,,,,,,,,,,,,,,,,,,,,,,,,
,,6551107f5a1d2c295466c232,2024-02-18_18h14.53.011,kallum_motion_pilot,2023.2.2,Win32,60.60606061,6551107f5a1d2c295466c232,65d2b6c8f2eece985d8e374c,65d2b92c664d1d730608dfbd,0.0551,0.0552,1,3,165,1,1,onethree,,,,,,,,,,,,,,,,,,,,,,,,,,,,,,,,,,,,,,,,,,,,,,,,,,,,,,,,,,,,,,,,,,,,,,,,,,,,,,,,,,,,,,,,,,,,,,,,,,,,,,,,,,,,,,,,,,,,,,,,,,,,,,,,,,,,,,,,,
,,6551107f5a1d2c295466c232,2024-02-18_18h14.53.011,kallum_motion_pilot,2023.2.2,Win32,60.60606061,6551107f5a1d2c295466c232,65d2b6c8f2eece985d8e374c,65d2b92c664d1d730608dfbd,0.0553,0.0554,1,4,166,3,1,twofour,,,,,,,,,,,,,,,,,,,,,,,,,,,,,,,,,,,,,,,,,,,,,,,,,,,,,,,,,,,,,,,,,,,,,,,,,,,,,,,,,,,,,,,,,,,,,,,,,,,,,,,,,,,,,,,,,,,,,,,,,,,,,,,,,,,,,,,,,
,,6551107f5a1d2c295466c232,2024-02-18_18h14.53.011,kallum_motion_pilot,2023.2.2,Win32,60.60606061,6551107f5a1d2c295466c232,65d2b6c8f2eece985d8e374c,65d2b92c664d1d730608dfbd,0.0555,0.0555,1,5,167,22,1,fourtwo,,,,,,,,,,,,,,,,,,,,,,,,,,,,,,,,,,,,,,,,,,,,,,,,,,,,,,,,,,,,,,,,,,,,,,,,,,,,,,,,,,,,,,,,,,,,,,,,,,,,,,,,,,,,,,,,,,,,,,,,,,,,,,,,,,,,,,,,,
,,6551107f5a1d2c295466c232,2024-02-18_18h14.53.011,kallum_motion_pilot,2023.2.2,Win32,60.60606061,6551107f5a1d2c295466c232,65d2b6c8f2eece985d8e374c,65d2b92c664d1d730608dfbd,0.0557,0.0558,1,6,168,81,1,fiveseven,,,,,,,,,,,,,,,,,,,,,,,,,,,,,,,,,,,,,,,,,,,,,,,,,,,,,,,,,,,,,,,,,,,,,,,,,,,,,,,,,,,,,,,,,,,,,,,,,,,,,,,,,,,,,,,,,,,,,,,,,,,,,,,,,,,,,,,,,
,,6551107f5a1d2c295466c232,2024-02-18_18h14.53.011,kallum_motion_pilot,2023.2.2,Win32,60.60606061,6551107f5a1d2c295466c232,65d2b6c8f2eece985d8e374c,65d2b92c664d1d730608dfbd,0.0559,0.0559,1,7,169,72,1,onetwo,,,,,,,,,,,,,,,,,,,,,,,,,,,,,,,,,,,,,,,,,,,,,,,,,,,,,,,,,,,,,,,,,,,,,,,,,,,,,,,,,,,,,,,,,,,,,,,,,,,,,,,,,,,,,,,,,,,,,,,,,,,,,,,,,,,,,,,,,
,,6551107f5a1d2c295466c232,2024-02-18_18h14.53.011,kallum_motion_pilot,2023.2.2,Win32,60.60606061,6551107f5a1d2c295466c232,65d2b6c8f2eece985d8e374c,65d2b92c664d1d730608dfbd,0.056,0.056,1,8,170,6,1,fourtwo,,,,,,,,,,,,,,,,,,,,,,,,,,,,,,,,,,,,,,,,,,,,,,,,,,,,,,,,,,,,,,,,,,,,,,,,,,,,,,,,,,,,,,,,,,,,,,,,,,,,,,,,,,,,,,,,,,,,,,,,,,,,,,,,,,,,,,,,,
,,6551107f5a1d2c295466c232,2024-02-18_18h14.53.011,kallum_motion_pilot,2023.2.2,Win32,60.60606061,6551107f5a1d2c295466c232,65d2b6c8f2eece985d8e374c,65d2b92c664d1d730608dfbd,0.0561,0.0561,1,9,171,28,1,threeone,,,,,,,,,,,,,,,,,,,,,,,,,,,,,,,,,,,,,,,,,,,,,,,,,,,,,,,,,,,,,,,,,,,,,,,,,,,,,,,,,,,,,,,,,,,,,,,,,,,,,,,,,,,,,,,,,,,,,,,,,,,,,,,,,,,,,,,,,
,,6551107f5a1d2c295466c232,2024-02-18_18h14.53.011,kallum_motion_pilot,2023.2.2,Win32,60.60606061,6551107f5a1d2c295466c232,65d2b6c8f2eece985d8e374c,65d2b92c664d1d730608dfbd,0.0562,0.0562,1,10,172,29,1,threefour,,,,,,,,,,,,,,,,,,,,,,,,,,,,,,,,,,,,,,,,,,,,,,,,,,,,,,,,,,,,,,,,,,,,,,,,,,,,,,,,,,,,,,,,,,,,,,,,,,,,,,,,,,,,,,,,,,,,,,,,,,,,,,,,,,,,,,,,,
,,6551107f5a1d2c295466c232,2024-02-18_18h14.53.011,kallum_motion_pilot,2023.2.2,Win32,60.60606061,6551107f5a1d2c295466c232,65d2b6c8f2eece985d8e374c,65d2b92c664d1d730608dfbd,0.0563,0.0564,1,11,173,144,1,fivesix,,,,,,,,,,,,,,,,,,,,,,,,,,,,,,,,,,,,,,,,,,,,,,,,,,,,,,,,,,,,,,,,,,,,,,,,,,,,,,,,,,,,,,,,,,,,,,,,,,,,,,,,,,,,,,,,,,,,,,,,,,,,,,,,,,,,,,,,,
,,6551107f5a1d2c295466c232,2024-02-18_18h14.53.011,kallum_motion_pilot,2023.2.2,Win32,60.60606061,6551107f5a1d2c295466c232,65d2b6c8f2eece985d8e374c,65d2b92c664d1d730608dfbd,0.0564,0.0564,1,12,174,38,1,fourtwo,,,,,,,,,,,,,,,,,,,,,,,,,,,,,,,,,,,,,,,,,,,,,,,,,,,,,,,,,,,,,,,,,,,,,,,,,,,,,,,,,,,,,,,,,,,,,,,,,,,,,,,,,,,,,,,,,,,,,,,,,,,,,,,,,,,,,,,,,
,,6551107f5a1d2c295466c232,2024-02-18_18h14.53.011,kallum_motion_pilot,2023.2.2,Win32,60.60606061,6551107f5a1d2c295466c232,65d2b6c8f2eece985d8e374c,65d2b92c664d1d730608dfbd,0.0565,0.0565,1,13,175,151,1,eightseven,,,,,,,,,,,,,,,,,,,,,,,,,,,,,,,,,,,,,,,,,,,,,,,,,,,,,,,,,,,,,,,,,,,,,,,,,,,,,,,,,,,,,,,,,,,,,,,,,,,,,,,,,,,,,,,,,,,,,,,,,,,,,,,,,,,,,,,,,
,,6551107f5a1d2c295466c232,2024-02-18_18h14.53.011,kallum_motion_pilot,2023.2.2,Win32,60.60606061,6551107f5a1d2c295466c232,65d2b6c8f2eece985d8e374c,65d2b92c664d1d730608dfbd,0.0567,0.0567,1,14,176,150,1,eightsix,,,,,,,,,,,,,,,,,,,,,,,,,,,,,,,,,,,,,,,,,,,,,,,,,,,,,,,,,,,,,,,,,,,,,,,,,,,,,,,,,,,,,,,,,,,,,,,,,,,,,,,,,,,,,,,,,,,,,,,,,,,,,,,,,,,,,,,,,
,,6551107f5a1d2c295466c232,2024-02-18_18h14.53.011,kallum_motion_pilot,2023.2.2,Win32,60.60606061,6551107f5a1d2c295466c232,65d2b6c8f2eece985d8e374c,65d2b92c664d1d730608dfbd,0.0568,0.0568,1,15,177,32,1,onetwo,,,,,,,,,,,,,,,,,,,,,,,,,,,,,,,,,,,,,,,,,,,,,,,,,,,,,,,,,,,,,,,,,,,,,,,,,,,,,,,,,,,,,,,,,,,,,,,,,,,,,,,,,,,,,,,,,,,,,,,,,,,,,,,,,,,,,,,,,
,,6551107f5a1d2c295466c232,2024-02-18_18h14.53.011,kallum_motion_pilot,2023.2.2,Win32,60.60606061,6551107f5a1d2c295466c232,65d2b6c8f2eece985d8e374c,65d2b92c664d1d730608dfbd,0.0569,0.0569,1,16,178,45,1,threefour,,,,,,,,,,,,,,,,,,,,,,,,,,,,,,,,,,,,,,,,,,,,,,,,,,,,,,,,,,,,,,,,,,,,,,,,,,,,,,,,,,,,,,,,,,,,,,,,,,,,,,,,,,,,,,,,,,,,,,,,,,,,,,,,,,,,,,,,,
,,6551107f5a1d2c295466c232,2024-02-18_18h14.53.011,kallum_motion_pilot,2023.2.2,Win32,60.60606061,6551107f5a1d2c295466c232,65d2b6c8f2eece985d8e374c,65d2b92c664d1d730608dfbd,0.057,0.057,1,17,179,46,1,fourtwo,,,,,,,,,,,,,,,,,,,,,,,,,,,,,,,,,,,,,,,,,,,,,,,,,,,,,,,,,,,,,,,,,,,,,,,,,,,,,,,,,,,,,,,,,,,,,,,,,,,,,,,,,,,,,,,,,,,,,,,,,,,,,,,,,,,,,,,,,
,,6551107f5a1d2c295466c232,2024-02-18_18h14.53.011,kallum_motion_pilot,2023.2.2,Win32,60.60606061,6551107f5a1d2c295466c232,65d2b6c8f2eece985d8e374c,65d2b92c664d1d730608dfbd,0.0571,0.0572,1,18,180,98,1,sixfive,,,,,,,,,,,,,,,,,,,,,,,,,,,,,,,,,,,,,,,,,,,,,,,,,,,,,,,,,,,,,,,,,,,,,,,,,,,,,,,,,,,,,,,,,,,,,,,,,,,,,,,,,,,,,,,,,,,,,,,,,,,,,,,,,,,,,,,,,
,,6551107f5a1d2c295466c232,2024-02-18_18h14.53.011,kallum_motion_pilot,2023.2.2,Win32,60.60606061,6551107f5a1d2c295466c232,65d2b6c8f2eece985d8e374c,65d2b92c664d1d730608dfbd,0.0572,0.0573,1,19,181,146,1,sixfive,,,,,,,,,,,,,,,,,,,,,,,,,,,,,,,,,,,,,,,,,,,,,,,,,,,,,,,,,,,,,,,,,,,,,,,,,,,,,,,,,,,,,,,,,,,,,,,,,,,,,,,,,,,,,,,,,,,,,,,,,,,,,,,,,,,,,,,,,
,,6551107f5a1d2c295466c232,2024-02-18_18h14.53.011,kallum_motion_pilot,2023.2.2,Win32,60.60606061,6551107f5a1d2c295466c232,65d2b6c8f2eece985d8e374c,65d2b92c664d1d730608dfbd,0.0573,0.0574,1,20,182,39,1,fourthree,,,,,,,,,,,,,,,,,,,,,,,,,,,,,,,,,,,,,,,,,,,,,,,,,,,,,,,,,,,,,,,,,,,,,,,,,,,,,,,,,,,,,,,,,,,,,,,,,,,,,,,,,,,,,,,,,,,,,,,,,,,,,,,,,,,,,,,,,
,,6551107f5a1d2c295466c232,2024-02-18_18h14.53.011,kallum_motion_pilot,2023.2.2,Win32,60.60606061,6551107f5a1d2c295466c232,65d2b6c8f2eece985d8e374c,65d2b92c664d1d730608dfbd,0.0575,0.0576,1,21,183,26,1,twoone,,,,,,,,,,,,,,,,,,,,,,,,,,,,,,,,,,,,,,,,,,,,,,,,,,,,,,,,,,,,,,,,,,,,,,,,,,,,,,,,,,,,,,,,,,,,,,,,,,,,,,,,,,,,,,,,,,,,,,,,,,,,,,,,,,,,,,,,,
,,6551107f5a1d2c295466c232,2024-02-18_18h14.53.011,kallum_motion_pilot,2023.2.2,Win32,60.60606061,6551107f5a1d2c295466c232,65d2b6c8f2eece985d8e374c,65d2b92c664d1d730608dfbd,0.0577,0.0578,1,22,184,11,1,twofour,,,,,,,,,,,,,,,,,,,,,,,,,,,,,,,,,,,,,,,,,,,,,,,,,,,,,,,,,,,,,,,,,,,,,,,,,,,,,,,,,,,,,,,,,,,,,,,,,,,,,,,,,,,,,,,,,,,,,,,,,,,,,,,,,,,,,,,,,
,,6551107f5a1d2c295466c232,2024-02-18_18h14.53.011,kallum_motion_pilot,2023.2.2,Win32,60.60606061,6551107f5a1d2c295466c232,65d2b6c8f2eece985d8e374c,65d2b92c664d1d730608dfbd,0.0578,0.0579,1,23,185,83,1,sixeight,,,,,,,,,,,,,,,,,,,,,,,,,,,,,,,,,,,,,,,,,,,,,,,,,,,,,,,,,,,,,,,,,,,,,,,,,,,,,,,,,,,,,,,,,,,,,,,,,,,,,,,,,,,,,,,,,,,,,,,,,,,,,,,,,,,,,,,,,
,,6551107f5a1d2c295466c232,2024-02-18_18h14.53.011,kallum_motion_pilot,2023.2.2,Win32,60.60606061,6551107f5a1d2c295466c232,65d2b6c8f2eece985d8e374c,65d2b92c664d1d730608dfbd,0.058,0.058,1,24,186,158,1,eightsix,,,,,,,,,,,,,,,,,,,,,,,,,,,,,,,,,,,,,,,,,,,,,,,,,,,,,,,,,,,,,,,,,,,,,,,,,,,,,,,,,,,,,,,,,,,,,,,,,,,,,,,,,,,,,,,,,,,,,,,,,,,,,,,,,,,,,,,,,
,,6551107f5a1d2c295466c232,2024-02-18_18h14.53.011,kallum_motion_pilot,2023.2.2,Win32,60.60606061,6551107f5a1d2c295466c232,65d2b6c8f2eece985d8e374c,65d2b92c664d1d730608dfbd,0.0581,0.0582,1,25,187,129,1,fiveseven,,,,,,,,,,,,,,,,,,,,,,,,,,,,,,,,,,,,,,,,,,,,,,,,,,,,,,,,,,,,,,,,,,,,,,,,,,,,,,,,,,,,,,,,,,,,,,,,,,,,,,,,,,,,,,,,,,,,,,,,,,,,,,,,,,,,,,,,,
,,6551107f5a1d2c295466c232,2024-02-18_18h14.53.011,kallum_motion_pilot,2023.2.2,Win32,60.60606061,6551107f5a1d2c295466c232,65d2b6c8f2eece985d8e374c,65d2b92c664d1d730608dfbd,0.0582,0.0583,1,26,188,140,1,sevenfive,,,,,,,,,,,,,,,,,,,,,,,,,,,,,,,,,,,,,,,,,,,,,,,,,,,,,,,,,,,,,,,,,,,,,,,,,,,,,,,,,,,,,,,,,,,,,,,,,,,,,,,,,,,,,,,,,,,,,,,,,,,,,,,,,,,,,,,,,
,,6551107f5a1d2c295466c232,2024-02-18_18h14.53.011,kallum_motion_pilot,2023.2.2,Win32,60.60606061,6551107f5a1d2c295466c232,65d2b6c8f2eece985d8e374c,65d2b92c664d1d730608dfbd,0.0584,0.0584,1,27,189,2,1,twoone,,,,,,,,,,,,,,,,,,,,,,,,,,,,,,,,,,,,,,,,,,,,,,,,,,,,,,,,,,,,,,,,,,,,,,,,,,,,,,,,,,,,,,,,,,,,,,,,,,,,,,,,,,,,,,,,,,,,,,,,,,,,,,,,,,,,,,,,,
,,6551107f5a1d2c295466c232,2024-02-18_18h14.53.011,kallum_motion_pilot,2023.2.2,Win32,60.60606061,6551107f5a1d2c295466c232,65d2b6c8f2eece985d8e374c,65d2b92c664d1d730608dfbd,0.0585,0.0585,1,28,190,147,1,sixeight,,,,,,,,,,,,,,,,,,,,,,,,,,,,,,,,,,,,,,,,,,,,,,,,,,,,,,,,,,,,,,,,,,,,,,,,,,,,,,,,,,,,,,,,,,,,,,,,,,,,,,,,,,,,,,,,,,,,,,,,,,,,,,,,,,,,,,,,,
,,6551107f5a1d2c295466c232,2024-02-18_18h14.53.011,kallum_motion_pilot,2023.2.2,Win32,60.60606061,6551107f5a1d2c295466c232,65d2b6c8f2eece985d8e374c,65d2b92c664d1d730608dfbd,0.0586,0.0587,1,29,191,4,1,threeone,,,,,,,,,,,,,,,,,,,,,,,,,,,,,,,,,,,,,,,,,,,,,,,,,,,,,,,,,,,,,,,,,,,,,,,,,,,,,,,,,,,,,,,,,,,,,,,,,,,,,,,,,,,,,,,,,,,,,,,,,,,,,,,,,,,,,,,,,
,,6551107f5a1d2c295466c232,2024-02-18_18h14.53.011,kallum_motion_pilot,2023.2.2,Win32,60.60606061,6551107f5a1d2c295466c232,65d2b6c8f2eece985d8e374c,65d2b92c664d1d730608dfbd,0.0587,0.0588,1,30,192,58,1,twoone,,,,,,,,,,,,,,,,,,,,,,,,,,,,,,,,,,,,,,,,,,,,,,,,,,,,,,,,,,,,,,,,,,,,,,,,,,,,,,,,,,,,,,,,,,,,,,,,,,,,,,,,,,,,,,,,,,,,,,,,,,,,,,,,,,,,,,,,,
,,6551107f5a1d2c295466c232,2024-02-18_18h14.53.011,kallum_motion_pilot,2023.2.2,Win32,60.60606061,6551107f5a1d2c295466c232,65d2b6c8f2eece985d8e374c,65d2b92c664d1d730608dfbd,0.0589,0.0589,1,31,193,63,1,fourthree,,,,,,,,,,,,,,,,,,,,,,,,,,,,,,,,,,,,,,,,,,,,,,,,,,,,,,,,,,,,,,,,,,,,,,,,,,,,,,,,,,,,,,,,,,,,,,,,,,,,,,,,,,,,,,,,,,,,,,,,,,,,,,,,,,,,,,,,,
,,6551107f5a1d2c295466c232,2024-02-18_18h14.53.011,kallum_motion_pilot,2023.2.2,Win32,60.60606061,6551107f5a1d2c295466c232,65d2b6c8f2eece985d8e374c,65d2b92c664d1d730608dfbd,0.059,0.059,1,32,194,86,1,eightsix,,,,,,,,,,,,,,,,,,,,,,,,,,,,,,,,,,,,,,,,,,,,,,,,,,,,,,,,,,,,,,,,,,,,,,,,,,,,,,,,,,,,,,,,,,,,,,,,,,,,,,,,,,,,,,,,,,,,,,,,,,,,,,,,,,,,,,,,,
,,6551107f5a1d2c295466c232,2024-02-18_18h14.53.011,kallum_motion_pilot,2023.2.2,Win32,60.60606061,6551107f5a1d2c295466c232,65d2b6c8f2eece985d8e374c,65d2b92c664d1d730608dfbd,0.0591,0.0591,1,33,195,96,1,fivesix,,,,,,,,,,,,,,,,,,,,,,,,,,,,,,,,,,,,,,,,,,,,,,,,,,,,,,,,,,,,,,,,,,,,,,,,,,,,,,,,,,,,,,,,,,,,,,,,,,,,,,,,,,,,,,,,,,,,,,,,,,,,,,,,,,,,,,,,,
,,6551107f5a1d2c295466c232,2024-02-18_18h14.53.011,kallum_motion_pilot,2023.2.2,Win32,60.60606061,6551107f5a1d2c295466c232,65d2b6c8f2eece985d8e374c,65d2b92c664d1d730608dfbd,0.0592,0.0593,1,34,196,160,1,fivesix,,,,,,,,,,,,,,,,,,,,,,,,,,,,,,,,,,,,,,,,,,,,,,,,,,,,,,,,,,,,,,,,,,,,,,,,,,,,,,,,,,,,,,,,,,,,,,,,,,,,,,,,,,,,,,,,,,,,,,,,,,,,,,,,,,,,,,,,,
,,6551107f5a1d2c295466c232,2024-02-18_18h14.53.011,kallum_motion_pilot,2023.2.2,Win32,60.60606061,6551107f5a1d2c295466c232,65d2b6c8f2eece985d8e374c,65d2b92c664d1d730608dfbd,0.0593,0.0594,1,35,197,116,1,sevenfive,,,,,,,,,,,,,,,,,,,,,,,,,,,,,,,,,,,,,,,,,,,,,,,,,,,,,,,,,,,,,,,,,,,,,,,,,,,,,,,,,,,,,,,,,,,,,,,,,,,,,,,,,,,,,,,,,,,,,,,,,,,,,,,,,,,,,,,,,
,,6551107f5a1d2c295466c232,2024-02-18_18h14.53.011,kallum_motion_pilot,2023.2.2,Win32,60.60606061,6551107f5a1d2c295466c232,65d2b6c8f2eece985d8e374c,65d2b92c664d1d730608dfbd,0.0595,0.0596,1,36,198,16,1,onetwo,,,,,,,,,,,,,,,,,,,,,,,,,,,,,,,,,,,,,,,,,,,,,,,,,,,,,,,,,,,,,,,,,,,,,,,,,,,,,,,,,,,,,,,,,,,,,,,,,,,,,,,,,,,,,,,,,,,,,,,,,,,,,,,,,,,,,,,,,
,,6551107f5a1d2c295466c232,2024-02-18_18h14.53.011,kallum_motion_pilot,2023.2.2,Win32,60.60606061,6551107f5a1d2c295466c232,65d2b6c8f2eece985d8e374c,65d2b92c664d1d730608dfbd,0.0596,0.0597,1,37,199,64,1,onetwo,,,,,,,,,,,,,,,,,,,,,,,,,,,,,,,,,,,,,,,,,,,,,,,,,,,,,,,,,,,,,,,,,,,,,,,,,,,,,,,,,,,,,,,,,,,,,,,,,,,,,,,,,,,,,,,,,,,,,,,,,,,,,,,,,,,,,,,,,
,,6551107f5a1d2c295466c232,2024-02-18_18h14.53.011,kallum_motion_pilot,2023.2.2,Win32,60.60606061,6551107f5a1d2c295466c232,65d2b6c8f2eece985d8e374c,65d2b92c664d1d730608dfbd,0.0597,0.0598,1,38,200,91,1,sixeight,,,,,,,,,,,,,,,,,,,,,,,,,,,,,,,,,,,,,,,,,,,,,,,,,,,,,,,,,,,,,,,,,,,,,,,,,,,,,,,,,,,,,,,,,,,,,,,,,,,,,,,,,,,,,,,,,,,,,,,,,,,,,,,,,,,,,,,,,
,,6551107f5a1d2c295466c232,2024-02-18_18h14.53.011,kallum_motion_pilot,2023.2.2,Win32,60.60606061,6551107f5a1d2c295466c232,65d2b6c8f2eece985d8e374c,65d2b92c664d1d730608dfbd,0.0598,0.0599,1,39,201,108,1,sevenfive,,,,,,,,,,,,,,,,,,,,,,,,,,,,,,,,,,,,,,,,,,,,,,,,,,,,,,,,,,,,,,,,,,,,,,,,,,,,,,,,,,,,,,,,,,,,,,,,,,,,,,,,,,,,,,,,,,,,,,,,,,,,,,,,,,,,,,,,,
,,6551107f5a1d2c295466c232,2024-02-18_18h14.53.011,kallum_motion_pilot,2023.2.2,Win32,60.60606061,6551107f5a1d2c295466c232,65d2b6c8f2eece985d8e374c,65d2b92c664d1d730608dfbd,0.06,0.06,1,40,202,142,1,eightsix,,,,,,,,,,,,,,,,,,,,,,,,,,,,,,,,,,,,,,,,,,,,,,,,,,,,,,,,,,,,,,,,,,,,,,,,,,,,,,,,,,,,,,,,,,,,,,,,,,,,,,,,,,,,,,,,,,,,,,,,,,,,,,,,,,,,,,,,,
,,6551107f5a1d2c295466c232,2024-02-18_18h14.53.011,kallum_motion_pilot,2023.2.2,Win32,60.60606061,6551107f5a1d2c295466c232,65d2b6c8f2eece985d8e374c,65d2b92c664d1d730608dfbd,0.0601,0.0602,1,41,203,35,1,twofour,,,,,,,,,,,,,,,,,,,,,,,,,,,,,,,,,,,,,,,,,,,,,,,,,,,,,,,,,,,,,,,,,,,,,,,,,,,,,,,,,,,,,,,,,,,,,,,,,,,,,,,,,,,,,,,,,,,,,,,,,,,,,,,,,,,,,,,,,
,,6551107f5a1d2c295466c232,2024-02-18_18h14.53.011,kallum_motion_pilot,2023.2.2,Win32,60.60606061,6551107f5a1d2c295466c232,65d2b6c8f2eece985d8e374c,65d2b92c664d1d730608dfbd,0.0603,0.0603,1,42,204,40,1,onetwo,,,,,,,,,,,,,,,,,,,,,,,,,,,,,,,,,,,,,,,,,,,,,,,,,,,,,,,,,,,,,,,,,,,,,,,,,,,,,,,,,,,,,,,,,,,,,,,,,,,,,,,,,,,,,,,,,,,,,,,,,,,,,,,,,,,,,,,,,
,,6551107f5a1d2c295466c232,2024-02-18_18h14.53.011,kallum_motion_pilot,2023.2.2,Win32,60.60606061,6551107f5a1d2c295466c232,65d2b6c8f2eece985d8e374c,65d2b92c664d1d730608dfbd,0.0605,0.0605,1,43,205,137,1,fiveseven,,,,,,,,,,,,,,,,,,,,,,,,,,,,,,,,,,,,,,,,,,,,,,,,,,,,,,,,,,,,,,,,,,,,,,,,,,,,,,,,,,,,,,,,,,,,,,,,,,,,,,,,,,,,,,,,,,,,,,,,,,,,,,,,,,,,,,,,,
,,6551107f5a1d2c295466c232,2024-02-18_18h14.53.011,kallum_motion_pilot,2023.2.2,Win32,60.60606061,6551107f5a1d2c295466c232,65d2b6c8f2eece985d8e374c,65d2b92c664d1d730608dfbd,0.0606,0.0607,1,44,206,127,1,eightseven,,,,,,,,,,,,,,,,,,,,,,,,,,,,,,,,,,,,,,,,,,,,,,,,,,,,,,,,,,,,,,,,,,,,,,,,,,,,,,,,,,,,,,,,,,,,,,,,,,,,,,,,,,,,,,,,,,,,,,,,,,,,,,,,,,,,,,,,,
,,6551107f5a1d2c295466c232,2024-02-18_18h14.53.011,kallum_motion_pilot,2023.2.2,Win32,60.60606061,6551107f5a1d2c295466c232,65d2b6c8f2eece985d8e374c,65d2b92c664d1d730608dfbd,0.0607,0.0609,1,45,207,75,1,twofour,,,,,,,,,,,,,,,,,,,,,,,,,,,,,,,,,,,,,,,,,,,,,,,,,,,,,,,,,,,,,,,,,,,,,,,,,,,,,,,,,,,,,,,,,,,,,,,,,,,,,,,,,,,,,,,,,,,,,,,,,,,,,,,,,,,,,,,,,
,,6551107f5a1d2c295466c232,2024-02-18_18h14.53.011,kallum_motion_pilot,2023.2.2,Win32,60.60606061,6551107f5a1d2c295466c232,65d2b6c8f2eece985d8e374c,65d2b92c664d1d730608dfbd,0.0609,0.061,1,46,208,138,1,sixfive,,,,,,,,,,,,,,,,,,,,,,,,,,,,,,,,,,,,,,,,,,,,,,,,,,,,,,,,,,,,,,,,,,,,,,,,,,,,,,,,,,,,,,,,,,,,,,,,,,,,,,,,,,,,,,,,,,,,,,,,,,,,,,,,,,,,,,,,,
,,6551107f5a1d2c295466c232,2024-02-18_18h14.53.011,kallum_motion_pilot,2023.2.2,Win32,60.60606061,6551107f5a1d2c295466c232,65d2b6c8f2eece985d8e374c,65d2b92c664d1d730608dfbd,0.061,0.0611,1,47,209,60,1,threeone,,,,,,,,,,,,,,,,,,,,,,,,,,,,,,,,,,,,,,,,,,,,,,,,,,,,,,,,,,,,,,,,,,,,,,,,,,,,,,,,,,,,,,,,,,,,,,,,,,,,,,,,,,,,,,,,,,,,,,,,,,,,,,,,,,,,,,,,,
,,6551107f5a1d2c295466c232,2024-02-18_18h14.53.011,kallum_motion_pilot,2023.2.2,Win32,60.60606061,6551107f5a1d2c295466c232,65d2b6c8f2eece985d8e374c,65d2b92c664d1d730608dfbd,0.0612,0.0615,1,48,210,120,1,fivesix,,,,,,,,,,,,,,,,,,,,,,,,,,,,,,,,,,,,,,,,,,,,,,,,,,,,,,,,,,,,,,,,,,,,,,,,,,,,,,,,,,,,,,,,,,,,,,,,,,,,,,,,,,,,,,,,,,,,,,,,,,,,,,,,,,,,,,,,,
,,6551107f5a1d2c295466c232,2024-02-18_18h14.53.011,kallum_motion_pilot,2023.2.2,Win32,60.60606061,6551107f5a1d2c295466c232,65d2b6c8f2eece985d8e374c,65d2b92c664d1d730608dfbd,0.0617,0.0618,1,49,211,107,1,sixeight,,,,,,,,,,,,,,,,,,,,,,,,,,,,,,,,,,,,,,,,,,,,,,,,,,,,,,,,,,,,,,,,,,,,,,,,,,,,,,,,,,,,,,,,,,,,,,,,,,,,,,,,,,,,,,,,,,,,,,,,,,,,,,,,,,,,,,,,,
,,6551107f5a1d2c295466c232,2024-02-18_18h14.53.011,kallum_motion_pilot,2023.2.2,Win32,60.60606061,6551107f5a1d2c295466c232,65d2b6c8f2eece985d8e374c,65d2b92c664d1d730608dfbd,0.0619,0.0619,1,50,212,126,1,eightsix,,,,,,,,,,,,,,,,,,,,,,,,,,,,,,,,,,,,,,,,,,,,,,,,,,,,,,,,,,,,,,,,,,,,,,,,,,,,,,,,,,,,,,,,,,,,,,,,,,,,,,,,,,,,,,,,,,,,,,,,,,,,,,,,,,,,,,,,,
,,6551107f5a1d2c295466c232,2024-02-18_18h14.53.011,kallum_motion_pilot,2023.2.2,Win32,60.60606061,6551107f5a1d2c295466c232,65d2b6c8f2eece985d8e374c,65d2b92c664d1d730608dfbd,0.062,0.0622,1,51,213,51,1,twofour,,,,,,,,,,,,,,,,,,,,,,,,,,,,,,,,,,,,,,,,,,,,,,,,,,,,,,,,,,,,,,,,,,,,,,,,,,,,,,,,,,,,,,,,,,,,,,,,,,,,,,,,,,,,,,,,,,,,,,,,,,,,,,,,,,,,,,,,,
,,6551107f5a1d2c295466c232,2024-02-18_18h14.53.011,kallum_motion_pilot,2023.2.2,Win32,60.60606061,6551107f5a1d2c295466c232,65d2b6c8f2eece985d8e374c,65d2b92c664d1d730608dfbd,0.0623,0.0623,1,52,214,0,1,onetwo,,,,,,,,,,,,,,,,,,,,,,,,,,,,,,,,,,,,,,,,,,,,,,,,,,,,,,,,,,,,,,,,,,,,,,,,,,,,,,,,,,,,,,,,,,,,,,,,,,,,,,,,,,,,,,,,,,,,,,,,,,,,,,,,,,,,,,,,,
,,6551107f5a1d2c295466c232,2024-02-18_18h14.53.011,kallum_motion_pilot,2023.2.2,Win32,60.60606061,6551107f5a1d2c295466c232,65d2b6c8f2eece985d8e374c,65d2b92c664d1d730608dfbd,0.0624,0.0625,1,53,215,148,1,sevenfive,,,,,,,,,,,,,,,,,,,,,,,,,,,,,,,,,,,,,,,,,,,,,,,,,,,,,,,,,,,,,,,,,,,,,,,,,,,,,,,,,,,,,,,,,,,,,,,,,,,,,,,,,,,,,,,,,,,,,,,,,,,,,,,,,,,,,,,,,
,,6551107f5a1d2c295466c232,2024-02-18_18h14.53.011,kallum_motion_pilot,2023.2.2,Win32,60.60606061,6551107f5a1d2c295466c232,65d2b6c8f2eece985d8e374c,65d2b92c664d1d730608dfbd,0.0626,0.0627,1,54,216,17,1,onethree,,,,,,,,,,,,,,,,,,,,,,,,,,,,,,,,,,,,,,,,,,,,,,,,,,,,,,,,,,,,,,,,,,,,,,,,,,,,,,,,,,,,,,,,,,,,,,,,,,,,,,,,,,,,,,,,,,,,,,,,,,,,,,,,,,,,,,,,,
,,6551107f5a1d2c295466c232,2024-02-18_18h14.53.011,kallum_motion_pilot,2023.2.2,Win32,60.60606061,6551107f5a1d2c295466c232,65d2b6c8f2eece985d8e374c,65d2b92c664d1d730608dfbd,0.0627,0.0628,1,55,217,9,1,onethree,,,,,,,,,,,,,,,,,,,,,,,,,,,,,,,,,,,,,,,,,,,,,,,,,,,,,,,,,,,,,,,,,,,,,,,,,,,,,,,,,,,,,,,,,,,,,,,,,,,,,,,,,,,,,,,,,,,,,,,,,,,,,,,,,,,,,,,,,
,,6551107f5a1d2c295466c232,2024-02-18_18h14.53.011,kallum_motion_pilot,2023.2.2,Win32,60.60606061,6551107f5a1d2c295466c232,65d2b6c8f2eece985d8e374c,65d2b92c664d1d730608dfbd,0.0629,0.063,1,56,218,90,1,sixfive,,,,,,,,,,,,,,,,,,,,,,,,,,,,,,,,,,,,,,,,,,,,,,,,,,,,,,,,,,,,,,,,,,,,,,,,,,,,,,,,,,,,,,,,,,,,,,,,,,,,,,,,,,,,,,,,,,,,,,,,,,,,,,,,,,,,,,,,,
,,6551107f5a1d2c295466c232,2024-02-18_18h14.53.011,kallum_motion_pilot,2023.2.2,Win32,60.60606061,6551107f5a1d2c295466c232,65d2b6c8f2eece985d8e374c,65d2b92c664d1d730608dfbd,0.0631,0.0632,1,57,219,156,1,sevenfive,,,,,,,,,,,,,,,,,,,,,,,,,,,,,,,,,,,,,,,,,,,,,,,,,,,,,,,,,,,,,,,,,,,,,,,,,,,,,,,,,,,,,,,,,,,,,,,,,,,,,,,,,,,,,,,,,,,,,,,,,,,,,,,,,,,,,,,,,
,,6551107f5a1d2c295466c232,2024-02-18_18h14.53.011,kallum_motion_pilot,2023.2.2,Win32,60.60606061,6551107f5a1d2c295466c232,65d2b6c8f2eece985d8e374c,65d2b92c664d1d730608dfbd,0.0633,0.0633,1,58,220,157,1,seveneight,,,,,,,,,,,,,,,,,,,,,,,,,,,,,,,,,,,,,,,,,,,,,,,,,,,,,,,,,,,,,,,,,,,,,,,,,,,,,,,,,,,,,,,,,,,,,,,,,,,,,,,,,,,,,,,,,,,,,,,,,,,,,,,,,,,,,,,,,
,,6551107f5a1d2c295466c232,2024-02-18_18h14.53.011,kallum_motion_pilot,2023.2.2,Win32,60.60606061,6551107f5a1d2c295466c232,65d2b6c8f2eece985d8e374c,65d2b92c664d1d730608dfbd,0.0634,0.0635,1,59,221,14,1,fourtwo,,,,,,,,,,,,,,,,,,,,,,,,,,,,,,,,,,,,,,,,,,,,,,,,,,,,,,,,,,,,,,,,,,,,,,,,,,,,,,,,,,,,,,,,,,,,,,,,,,,,,,,,,,,,,,,,,,,,,,,,,,,,,,,,,,,,,,,,,
,,6551107f5a1d2c295466c232,2024-02-18_18h14.53.011,kallum_motion_pilot,2023.2.2,Win32,60.60606061,6551107f5a1d2c295466c232,65d2b6c8f2eece985d8e374c,65d2b92c664d1d730608dfbd,0.0635,0.0636,1,60,222,89,1,fiveseven,,,,,,,,,,,,,,,,,,,,,,,,,,,,,,,,,,,,,,,,,,,,,,,,,,,,,,,,,,,,,,,,,,,,,,,,,,,,,,,,,,,,,,,,,,,,,,,,,,,,,,,,,,,,,,,,,,,,,,,,,,,,,,,,,,,,,,,,,
,,6551107f5a1d2c295466c232,2024-02-18_18h14.53.011,kallum_motion_pilot,2023.2.2,Win32,60.60606061,6551107f5a1d2c295466c232,65d2b6c8f2eece985d8e374c,65d2b92c664d1d730608dfbd,0.0637,0.0637,1,61,223,18,1,twoone,,,,,,,,,,,,,,,,,,,,,,,,,,,,,,,,,,,,,,,,,,,,,,,,,,,,,,,,,,,,,,,,,,,,,,,,,,,,,,,,,,,,,,,,,,,,,,,,,,,,,,,,,,,,,,,,,,,,,,,,,,,,,,,,,,,,,,,,,
,,6551107f5a1d2c295466c232,2024-02-18_18h14.53.011,kallum_motion_pilot,2023.2.2,Win32,60.60606061,6551107f5a1d2c295466c232,65d2b6c8f2eece985d8e374c,65d2b92c664d1d730608dfbd,0.0638,0.0639,1,62,224,145,1,fiveseven,,,,,,,,,,,,,,,,,,,,,,,,,,,,,,,,,,,,,,,,,,,,,,,,,,,,,,,,,,,,,,,,,,,,,,,,,,,,,,,,,,,,,,,,,,,,,,,,,,,,,,,,,,,,,,,,,,,,,,,,,,,,,,,,,,,,,,,,,
,,6551107f5a1d2c295466c232,2024-02-18_18h14.53.011,kallum_motion_pilot,2023.2.2,Win32,60.60606061,6551107f5a1d2c295466c232,65d2b6c8f2eece985d8e374c,65d2b92c664d1d730608dfbd,0.064,0.0641,1,63,225,114,1,sixfive,,,,,,,,,,,,,,,,,,,,,,,,,,,,,,,,,,,,,,,,,,,,,,,,,,,,,,,,,,,,,,,,,,,,,,,,,,,,,,,,,,,,,,,,,,,,,,,,,,,,,,,,,,,,,,,,,,,,,,,,,,,,,,,,,,,,,,,,,
,,6551107f5a1d2c295466c232,2024-02-18_18h14.53.011,kallum_motion_pilot,2023.2.2,Win32,60.60606061,6551107f5a1d2c295466c232,65d2b6c8f2eece985d8e374c,65d2b92c664d1d730608dfbd,0.0641,0.0642,1,64,226,122,1,sixfive,,,,,,,,,,,,,,,,,,,,,,,,,,,,,,,,,,,,,,,,,,,,,,,,,,,,,,,,,,,,,,,,,,,,,,,,,,,,,,,,,,,,,,,,,,,,,,,,,,,,,,,,,,,,,,,,,,,,,,,,,,,,,,,,,,,,,,,,,
,,6551107f5a1d2c295466c232,2024-02-18_18h14.53.011,kallum_motion_pilot,2023.2.2,Win32,60.60606061,6551107f5a1d2c295466c232,65d2b6c8f2eece985d8e374c,65d2b92c664d1d730608dfbd,0.0642,0.0643,1,65,227,34,1,twoone,,,,,,,,,,,,,,,,,,,,,,,,,,,,,,,,,,,,,,,,,,,,,,,,,,,,,,,,,,,,,,,,,,,,,,,,,,,,,,,,,,,,,,,,,,,,,,,,,,,,,,,,,,,,,,,,,,,,,,,,,,,,,,,,,,,,,,,,,
,,6551107f5a1d2c295466c232,2024-02-18_18h14.53.011,kallum_motion_pilot,2023.2.2,Win32,60.60606061,6551107f5a1d2c295466c232,65d2b6c8f2eece985d8e374c,65d2b92c664d1d730608dfbd,0.0644,0.0644,1,66,228,99,1,sixeight,,,,,,,,,,,,,,,,,,,,,,,,,,,,,,,,,,,,,,,,,,,,,,,,,,,,,,,,,,,,,,,,,,,,,,,,,,,,,,,,,,,,,,,,,,,,,,,,,,,,,,,,,,,,,,,,,,,,,,,,,,,,,,,,,,,,,,,,,
,,6551107f5a1d2c295466c232,2024-02-18_18h14.53.011,kallum_motion_pilot,2023.2.2,Win32,60.60606061,6551107f5a1d2c295466c232,65d2b6c8f2eece985d8e374c,65d2b92c664d1d730608dfbd,0.0645,0.0646,1,67,229,159,1,eightseven,,,,,,,,,,,,,,,,,,,,,,,,,,,,,,,,,,,,,,,,,,,,,,,,,,,,,,,,,,,,,,,,,,,,,,,,,,,,,,,,,,,,,,,,,,,,,,,,,,,,,,,,,,,,,,,,,,,,,,,,,,,,,,,,,,,,,,,,,
,,6551107f5a1d2c295466c232,2024-02-18_18h14.53.011,kallum_motion_pilot,2023.2.2,Win32,60.60606061,6551107f5a1d2c295466c232,65d2b6c8f2eece985d8e374c,65d2b92c664d1d730608dfbd,0.0647,0.0647,1,68,230,79,1,eightseven,,,,,,,,,,,,,,,,,,,,,,,,,,,,,,,,,,,,,,,,,,,,,,,,,,,,,,,,,,,,,,,,,,,,,,,,,,,,,,,,,,,,,,,,,,,,,,,,,,,,,,,,,,,,,,,,,,,,,,,,,,,,,,,,,,,,,,,,,
,,6551107f5a1d2c295466c232,2024-02-18_18h14.53.011,kallum_motion_pilot,2023.2.2,Win32,60.60606061,6551107f5a1d2c295466c232,65d2b6c8f2eece985d8e374c,65d2b92c664d1d730608dfbd,0.0648,0.0649,1,69,231,67,1,twofour,,,,,,,,,,,,,,,,,,,,,,,,,,,,,,,,,,,,,,,,,,,,,,,,,,,,,,,,,,,,,,,,,,,,,,,,,,,,,,,,,,,,,,,,,,,,,,,,,,,,,,,,,,,,,,,,,,,,,,,,,,,,,,,,,,,,,,,,,
,,6551107f5a1d2c295466c232,2024-02-18_18h14.53.011,kallum_motion_pilot,2023.2.2,Win32,60.60606061,6551107f5a1d2c295466c232,65d2b6c8f2eece985d8e374c,65d2b92c664d1d730608dfbd,0.065,0.0651,1,70,232,55,1,fourthree,,,,,,,,,,,,,,,,,,,,,,,,,,,,,,,,,,,,,,,,,,,,,,,,,,,,,,,,,,,,,,,,,,,,,,,,,,,,,,,,,,,,,,,,,,,,,,,,,,,,,,,,,,,,,,,,,,,,,,,,,,,,,,,,,,,,,,,,,
,,6551107f5a1d2c295466c232,2024-02-18_18h14.53.011,kallum_motion_pilot,2023.2.2,Win32,60.60606061,6551107f5a1d2c295466c232,65d2b6c8f2eece985d8e374c,65d2b92c664d1d730608dfbd,0.0651,0.0652,1,71,233,155,1,sixeight,,,,,,,,,,,,,,,,,,,,,,,,,,,,,,,,,,,,,,,,,,,,,,,,,,,,,,,,,,,,,,,,,,,,,,,,,,,,,,,,,,,,,,,,,,,,,,,,,,,,,,,,,,,,,,,,,,,,,,,,,,,,,,,,,,,,,,,,,
,,6551107f5a1d2c295466c232,2024-02-18_18h14.53.011,kallum_motion_pilot,2023.2.2,Win32,60.60606061,6551107f5a1d2c295466c232,65d2b6c8f2eece985d8e374c,65d2b92c664d1d730608dfbd,0.0652,0.0653,1,72,234,5,1,threefour,,,,,,,,,,,,,,,,,,,,,,,,,,,,,,,,,,,,,,,,,,,,,,,,,,,,,,,,,,,,,,,,,,,,,,,,,,,,,,,,,,,,,,,,,,,,,,,,,,,,,,,,,,,,,,,,,,,,,,,,,,,,,,,,,,,,,,,,,
,,6551107f5a1d2c295466c232,2024-02-18_18h14.53.011,kallum_motion_pilot,2023.2.2,Win32,60.60606061,6551107f5a1d2c295466c232,65d2b6c8f2eece985d8e374c,65d2b92c664d1d730608dfbd,0.0654,0.0654,1,73,235,135,1,eightseven,,,,,,,,,,,,,,,,,,,,,,,,,,,,,,,,,,,,,,,,,,,,,,,,,,,,,,,,,,,,,,,,,,,,,,,,,,,,,,,,,,,,,,,,,,,,,,,,,,,,,,,,,,,,,,,,,,,,,,,,,,,,,,,,,,,,,,,,,
,,6551107f5a1d2c295466c232,2024-02-18_18h14.53.011,kallum_motion_pilot,2023.2.2,Win32,60.60606061,6551107f5a1d2c295466c232,65d2b6c8f2eece985d8e374c,65d2b92c664d1d730608dfbd,0.0655,0.0656,1,74,236,15,1,fourthree,,,,,,,,,,,,,,,,,,,,,,,,,,,,,,,,,,,,,,,,,,,,,,,,,,,,,,,,,,,,,,,,,,,,,,,,,,,,,,,,,,,,,,,,,,,,,,,,,,,,,,,,,,,,,,,,,,,,,,,,,,,,,,,,,,,,,,,,,
,,6551107f5a1d2c295466c232,2024-02-18_18h14.53.011,kallum_motion_pilot,2023.2.2,Win32,60.60606061,6551107f5a1d2c295466c232,65d2b6c8f2eece985d8e374c,65d2b92c664d1d730608dfbd,0.0657,0.0658,1,75,237,73,1,onethree,,,,,,,,,,,,,,,,,,,,,,,,,,,,,,,,,,,,,,,,,,,,,,,,,,,,,,,,,,,,,,,,,,,,,,,,,,,,,,,,,,,,,,,,,,,,,,,,,,,,,,,,,,,,,,,,,,,,,,,,,,,,,,,,,,,,,,,,,
,,6551107f5a1d2c295466c232,2024-02-18_18h14.53.011,kallum_motion_pilot,2023.2.2,Win32,60.60606061,6551107f5a1d2c295466c232,65d2b6c8f2eece985d8e374c,65d2b92c664d1d730608dfbd,0.0658,0.0659,1,76,238,131,1,sixeight,,,,,,,,,,,,,,,,,,,,,,,,,,,,,,,,,,,,,,,,,,,,,,,,,,,,,,,,,,,,,,,,,,,,,,,,,,,,,,,,,,,,,,,,,,,,,,,,,,,,,,,,,,,,,,,,,,,,,,,,,,,,,,,,,,,,,,,,,
,,6551107f5a1d2c295466c232,2024-02-18_18h14.53.011,kallum_motion_pilot,2023.2.2,Win32,60.60606061,6551107f5a1d2c295466c232,65d2b6c8f2eece985d8e374c,65d2b92c664d1d730608dfbd,0.066,0.066,1,77,239,77,1,threefour,,,,,,,,,,,,,,,,,,,,,,,,,,,,,,,,,,,,,,,,,,,,,,,,,,,,,,,,,,,,,,,,,,,,,,,,,,,,,,,,,,,,,,,,,,,,,,,,,,,,,,,,,,,,,,,,,,,,,,,,,,,,,,,,,,,,,,,,,
,,6551107f5a1d2c295466c232,2024-02-18_18h14.53.011,kallum_motion_pilot,2023.2.2,Win32,60.60606061,6551107f5a1d2c295466c232,65d2b6c8f2eece985d8e374c,65d2b92c664d1d730608dfbd,0.0661,0.0661,1,78,240,10,1,twoone,,,,,,,,,,,,,,,,,,,,,,,,,,,,,,,,,,,,,,,,,,,,,,,,,,,,,,,,,,,,,,,,,,,,,,,,,,,,,,,,,,,,,,,,,,,,,,,,,,,,,,,,,,,,,,,,,,,,,,,,,,,,,,,,,,,,,,,,,
,,6551107f5a1d2c295466c232,2024-02-18_18h14.53.011,kallum_motion_pilot,2023.2.2,Win32,60.60606061,6551107f5a1d2c295466c232,65d2b6c8f2eece985d8e374c,65d2b92c664d1d730608dfbd,0.0662,0.0663,1,79,241,139,1,sixeight,,,,,,,,,,,,,,,,,,,,,,,,,,,,,,,,,,,,,,,,,,,,,,,,,,,,,,,,,,,,,,,,,,,,,,,,,,,,,,,,,,,,,,,,,,,,,,,,,,,,,,,,,,,,,,,,,,,,,,,,,,,,,,,,,,,,,,,,,
,,6551107f5a1d2c295466c232,2024-02-18_18h14.53.011,kallum_motion_pilot,2023.2.2,Win32,60.60606061,6551107f5a1d2c295466c232,65d2b6c8f2eece985d8e374c,65d2b92c664d1d730608dfbd,0.0664,0.0664,1,80,242,47,1,fourthree,,,,,,,,,,,,,,,,,,,,,,,,,,,,,,,,,,,,,,,,,,,,,,,,,,,,,,,,,,,,,,,,,,,,,,,,,,,,,,,,,,,,,,,,,,,,,,,,,,,,,,,,,,,,,,,,,,,,,,,,,,,,,,,,,,,,,,,,,
,,6551107f5a1d2c295466c232,2024-02-18_18h14.53.011,kallum_motion_pilot,2023.2.2,Win32,60.60606061,6551107f5a1d2c295466c232,65d2b6c8f2eece985d8e374c,65d2b92c664d1d730608dfbd,0.0665,0.0666,1,81,243,92,1,sevenfive,,,,,,,,,,,,,,,,,,,,,,,,,,,,,,,,,,,,,,,,,,,,,,,,,,,,,,,,,,,,,,,,,,,,,,,,,,,,,,,,,,,,,,,,,,,,,,,,,,,,,,,,,,,,,,,,,,,,,,,,,,,,,,,,,,,,,,,,,
,,6551107f5a1d2c295466c232,2024-02-18_18h14.53.011,kallum_motion_pilot,2023.2.2,Win32,60.60606061,6551107f5a1d2c295466c232,65d2b6c8f2eece985d8e374c,65d2b92c664d1d730608dfbd,0.0667,0.0667,1,82,244,130,1,sixfive,,,,,,,,,,,,,,,,,,,,,,,,,,,,,,,,,,,,,,,,,,,,,,,,,,,,,,,,,,,,,,,,,,,,,,,,,,,,,,,,,,,,,,,,,,,,,,,,,,,,,,,,,,,,,,,,,,,,,,,,,,,,,,,,,,,,,,,,,
,,6551107f5a1d2c295466c232,2024-02-18_18h14.53.011,kallum_motion_pilot,2023.2.2,Win32,60.60606061,6551107f5a1d2c295466c232,65d2b6c8f2eece985d8e374c,65d2b92c664d1d730608dfbd,0.0668,0.0668,1,83,245,20,1,threeone,,,,,,,,,,,,,,,,,,,,,,,,,,,,,,,,,,,,,,,,,,,,,,,,,,,,,,,,,,,,,,,,,,,,,,,,,,,,,,,,,,,,,,,,,,,,,,,,,,,,,,,,,,,,,,,,,,,,,,,,,,,,,,,,,,,,,,,,,
,,6551107f5a1d2c295466c232,2024-02-18_18h14.53.011,kallum_motion_pilot,2023.2.2,Win32,60.60606061,6551107f5a1d2c295466c232,65d2b6c8f2eece985d8e374c,65d2b92c664d1d730608dfbd,0.0669,0.067,1,84,246,100,1,sevenfive,,,,,,,,,,,,,,,,,,,,,,,,,,,,,,,,,,,,,,,,,,,,,,,,,,,,,,,,,,,,,,,,,,,,,,,,,,,,,,,,,,,,,,,,,,,,,,,,,,,,,,,,,,,,,,,,,,,,,,,,,,,,,,,,,,,,,,,,,
,,6551107f5a1d2c295466c232,2024-02-18_18h14.53.011,kallum_motion_pilot,2023.2.2,Win32,60.60606061,6551107f5a1d2c295466c232,65d2b6c8f2eece985d8e374c,65d2b92c664d1d730608dfbd,0.067,0.0671,1,85,247,7,1,fourthree,,,,,,,,,,,,,,,,,,,,,,,,,,,,,,,,,,,,,,,,,,,,,,,,,,,,,,,,,,,,,,,,,,,,,,,,,,,,,,,,,,,,,,,,,,,,,,,,,,,,,,,,,,,,,,,,,,,,,,,,,,,,,,,,,,,,,,,,,
,,6551107f5a1d2c295466c232,2024-02-18_18h14.53.011,kallum_motion_pilot,2023.2.2,Win32,60.60606061,6551107f5a1d2c295466c232,65d2b6c8f2eece985d8e374c,65d2b92c664d1d730608dfbd,0.0671,0.0672,1,86,248,105,1,fiveseven,,,,,,,,,,,,,,,,,,,,,,,,,,,,,,,,,,,,,,,,,,,,,,,,,,,,,,,,,,,,,,,,,,,,,,,,,,,,,,,,,,,,,,,,,,,,,,,,,,,,,,,,,,,,,,,,,,,,,,,,,,,,,,,,,,,,,,,,,
,,6551107f5a1d2c295466c232,2024-02-18_18h14.53.011,kallum_motion_pilot,2023.2.2,Win32,60.60606061,6551107f5a1d2c295466c232,65d2b6c8f2eece985d8e374c,65d2b92c664d1d730608dfbd,0.0672,0.0674,1,87,249,103,1,eightseven,,,,,,,,,,,,,,,,,,,,,,,,,,,,,,,,,,,,,,,,,,,,,,,,,,,,,,,,,,,,,,,,,,,,,,,,,,,,,,,,,,,,,,,,,,,,,,,,,,,,,,,,,,,,,,,,,,,,,,,,,,,,,,,,,,,,,,,,,
,,6551107f5a1d2c295466c232,2024-02-18_18h14.53.011,kallum_motion_pilot,2023.2.2,Win32,60.60606061,6551107f5a1d2c295466c232,65d2b6c8f2eece985d8e374c,65d2b92c664d1d730608dfbd,0.0674,0.0675,1,88,250,84,1,sevenfive,,,,,,,,,,,,,,,,,,,,,,,,,,,,,,,,,,,,,,,,,,,,,,,,,,,,,,,,,,,,,,,,,,,,,,,,,,,,,,,,,,,,,,,,,,,,,,,,,,,,,,,,,,,,,,,,,,,,,,,,,,,,,,,,,,,,,,,,,
,,6551107f5a1d2c295466c232,2024-02-18_18h14.53.011,kallum_motion_pilot,2023.2.2,Win32,60.60606061,6551107f5a1d2c295466c232,65d2b6c8f2eece985d8e374c,65d2b92c664d1d730608dfbd,0.0677,0.0677,1,89,251,128,1,fivesix,,,,,,,,,,,,,,,,,,,,,,,,,,,,,,,,,,,,,,,,,,,,,,,,,,,,,,,,,,,,,,,,,,,,,,,,,,,,,,,,,,,,,,,,,,,,,,,,,,,,,,,,,,,,,,,,,,,,,,,,,,,,,,,,,,,,,,,,,
,,6551107f5a1d2c295466c232,2024-02-18_18h14.53.011,kallum_motion_pilot,2023.2.2,Win32,60.60606061,6551107f5a1d2c295466c232,65d2b6c8f2eece985d8e374c,65d2b92c664d1d730608dfbd,0.0678,0.0679,1,90,252,132,1,sevenfive,,,,,,,,,,,,,,,,,,,,,,,,,,,,,,,,,,,,,,,,,,,,,,,,,,,,,,,,,,,,,,,,,,,,,,,,,,,,,,,,,,,,,,,,,,,,,,,,,,,,,,,,,,,,,,,,,,,,,,,,,,,,,,,,,,,,,,,,,
,,6551107f5a1d2c295466c232,2024-02-18_18h14.53.011,kallum_motion_pilot,2023.2.2,Win32,60.60606061,6551107f5a1d2c295466c232,65d2b6c8f2eece985d8e374c,65d2b92c664d1d730608dfbd,0.0679,0.068,1,91,253,48,1,onetwo,,,,,,,,,,,,,,,,,,,,,,,,,,,,,,,,,,,,,,,,,,,,,,,,,,,,,,,,,,,,,,,,,,,,,,,,,,,,,,,,,,,,,,,,,,,,,,,,,,,,,,,,,,,,,,,,,,,,,,,,,,,,,,,,,,,,,,,,,
,,6551107f5a1d2c295466c232,2024-02-18_18h14.53.011,kallum_motion_pilot,2023.2.2,Win32,60.60606061,6551107f5a1d2c295466c232,65d2b6c8f2eece985d8e374c,65d2b92c664d1d730608dfbd,0.0681,0.0681,1,92,254,110,1,eightsix,,,,,,,,,,,,,,,,,,,,,,,,,,,,,,,,,,,,,,,,,,,,,,,,,,,,,,,,,,,,,,,,,,,,,,,,,,,,,,,,,,,,,,,,,,,,,,,,,,,,,,,,,,,,,,,,,,,,,,,,,,,,,,,,,,,,,,,,,
,,6551107f5a1d2c295466c232,2024-02-18_18h14.53.011,kallum_motion_pilot,2023.2.2,Win32,60.60606061,6551107f5a1d2c295466c232,65d2b6c8f2eece985d8e374c,65d2b92c664d1d730608dfbd,0.0683,0.0684,1,93,255,21,1,threefour,,,,,,,,,,,,,,,,,,,,,,,,,,,,,,,,,,,,,,,,,,,,,,,,,,,,,,,,,,,,,,,,,,,,,,,,,,,,,,,,,,,,,,,,,,,,,,,,,,,,,,,,,,,,,,,,,,,,,,,,,,,,,,,,,,,,,,,,,
,,6551107f5a1d2c295466c232,2024-02-18_18h14.53.011,kallum_motion_pilot,2023.2.2,Win32,60.60606061,6551107f5a1d2c295466c232,65d2b6c8f2eece985d8e374c,65d2b92c664d1d730608dfbd,0.0685,0.0685,1,94,256,94,1,eightsix,,,,,,,,,,,,,,,,,,,,,,,,,,,,,,,,,,,,,,,,,,,,,,,,,,,,,,,,,,,,,,,,,,,,,,,,,,,,,,,,,,,,,,,,,,,,,,,,,,,,,,,,,,,,,,,,,,,,,,,,,,,,,,,,,,,,,,,,,
,,6551107f5a1d2c295466c232,2024-02-18_18h14.53.011,kallum_motion_pilot,2023.2.2,Win32,60.60606061,6551107f5a1d2c295466c232,65d2b6c8f2eece985d8e374c,65d2b92c664d1d730608dfbd,0.0686,0.0687,1,95,257,118,1,eightsix,,,,,,,,,,,,,,,,,,,,,,,,,,,,,,,,,,,,,,,,,,,,,,,,,,,,,,,,,,,,,,,,,,,,,,,,,,,,,,,,,,,,,,,,,,,,,,,,,,,,,,,,,,,,,,,,,,,,,,,,,,,,,,,,,,,,,,,,,
,,6551107f5a1d2c295466c232,2024-02-18_18h14.53.011,kallum_motion_pilot,2023.2.2,Win32,60.60606061,6551107f5a1d2c295466c232,65d2b6c8f2eece985d8e374c,65d2b92c664d1d730608dfbd,0.0688,0.0688,1,96,258,44,1,threeone,,,,,,,,,,,,,,,,,,,,,,,,,,,,,,,,,,,,,,,,,,,,,,,,,,,,,,,,,,,,,,,,,,,,,,,,,,,,,,,,,,,,,,,,,,,,,,,,,,,,,,,,,,,,,,,,,,,,,,,,,,,,,,,,,,,,,,,,,
,,6551107f5a1d2c295466c232,2024-02-18_18h14.53.011,kallum_motion_pilot,2023.2.2,Win32,60.60606061,6551107f5a1d2c295466c232,65d2b6c8f2eece985d8e374c,65d2b92c664d1d730608dfbd,0.0689,0.0689,1,97,259,93,1,seveneight,,,,,,,,,,,,,,,,,,,,,,,,,,,,,,,,,,,,,,,,,,,,,,,,,,,,,,,,,,,,,,,,,,,,,,,,,,,,,,,,,,,,,,,,,,,,,,,,,,,,,,,,,,,,,,,,,,,,,,,,,,,,,,,,,,,,,,,,,
,,6551107f5a1d2c295466c232,2024-02-18_18h14.53.011,kallum_motion_pilot,2023.2.2,Win32,60.60606061,6551107f5a1d2c295466c232,65d2b6c8f2eece985d8e374c,65d2b92c664d1d730608dfbd,0.0691,0.0691,1,98,260,149,1,seveneight,,,,,,,,,,,,,,,,,,,,,,,,,,,,,,,,,,,,,,,,,,,,,,,,,,,,,,,,,,,,,,,,,,,,,,,,,,,,,,,,,,,,,,,,,,,,,,,,,,,,,,,,,,,,,,,,,,,,,,,,,,,,,,,,,,,,,,,,,
,,6551107f5a1d2c295466c232,2024-02-18_18h14.53.011,kallum_motion_pilot,2023.2.2,Win32,60.60606061,6551107f5a1d2c295466c232,65d2b6c8f2eece985d8e374c,65d2b92c664d1d730608dfbd,0.0691,0.0692,1,99,261,125,1,seveneight,,,,,,,,,,,,,,,,,,,,,,,,,,,,,,,,,,,,,,,,,,,,,,,,,,,,,,,,,,,,,,,,,,,,,,,,,,,,,,,,,,,,,,,,,,,,,,,,,,,,,,,,,,,,,,,,,,,,,,,,,,,,,,,,,,,,,,,,,
,,6551107f5a1d2c295466c232,2024-02-18_18h14.53.011,kallum_motion_pilot,2023.2.2,Win32,60.60606061,6551107f5a1d2c295466c232,65d2b6c8f2eece985d8e374c,65d2b92c664d1d730608dfbd,0.0693,0.0694,1,100,262,52,1,threeone,,,,,,,,,,,,,,,,,,,,,,,,,,,,,,,,,,,,,,,,,,,,,,,,,,,,,,,,,,,,,,,,,,,,,,,,,,,,,,,,,,,,,,,,,,,,,,,,,,,,,,,,,,,,,,,,,,,,,,,,,,,,,,,,,,,,,,,,,
,,6551107f5a1d2c295466c232,2024-02-18_18h14.53.011,kallum_motion_pilot,2023.2.2,Win32,60.60606061,6551107f5a1d2c295466c232,65d2b6c8f2eece985d8e374c,65d2b92c664d1d730608dfbd,0.0694,0.0695,1,101,263,85,1,seveneight,,,,,,,,,,,,,,,,,,,,,,,,,,,,,,,,,,,,,,,,,,,,,,,,,,,,,,,,,,,,,,,,,,,,,,,,,,,,,,,,,,,,,,,,,,,,,,,,,,,,,,,,,,,,,,,,,,,,,,,,,,,,,,,,,,,,,,,,,
,,6551107f5a1d2c295466c232,2024-02-18_18h14.53.011,kallum_motion_pilot,2023.2.2,Win32,60.60606061,6551107f5a1d2c295466c232,65d2b6c8f2eece985d8e374c,65d2b92c664d1d730608dfbd,0.0695,0.0696,1,102,264,97,1,fiveseven,,,,,,,,,,,,,,,,,,,,,,,,,,,,,,,,,,,,,,,,,,,,,,,,,,,,,,,,,,,,,,,,,,,,,,,,,,,,,,,,,,,,,,,,,,,,,,,,,,,,,,,,,,,,,,,,,,,,,,,,,,,,,,,,,,,,,,,,,
,,6551107f5a1d2c295466c232,2024-02-18_18h14.53.011,kallum_motion_pilot,2023.2.2,Win32,60.60606061,6551107f5a1d2c295466c232,65d2b6c8f2eece985d8e374c,65d2b92c664d1d730608dfbd,0.0697,0.0698,1,103,265,65,1,onethree,,,,,,,,,,,,,,,,,,,,,,,,,,,,,,,,,,,,,,,,,,,,,,,,,,,,,,,,,,,,,,,,,,,,,,,,,,,,,,,,,,,,,,,,,,,,,,,,,,,,,,,,,,,,,,,,,,,,,,,,,,,,,,,,,,,,,,,,,
,,6551107f5a1d2c295466c232,2024-02-18_18h14.53.011,kallum_motion_pilot,2023.2.2,Win32,60.60606061,6551107f5a1d2c295466c232,65d2b6c8f2eece985d8e374c,65d2b92c664d1d730608dfbd,0.0699,0.07,1,104,266,82,1,sixfive,,,,,,,,,,,,,,,,,,,,,,,,,,,,,,,,,,,,,,,,,,,,,,,,,,,,,,,,,,,,,,,,,,,,,,,,,,,,,,,,,,,,,,,,,,,,,,,,,,,,,,,,,,,,,,,,,,,,,,,,,,,,,,,,,,,,,,,,,
,,6551107f5a1d2c295466c232,2024-02-18_18h14.53.011,kallum_motion_pilot,2023.2.2,Win32,60.60606061,6551107f5a1d2c295466c232,65d2b6c8f2eece985d8e374c,65d2b92c664d1d730608dfbd,0.0701,0.0701,1,105,267,136,1,fivesix,,,,,,,,,,,,,,,,,,,,,,,,,,,,,,,,,,,,,,,,,,,,,,,,,,,,,,,,,,,,,,,,,,,,,,,,,,,,,,,,,,,,,,,,,,,,,,,,,,,,,,,,,,,,,,,,,,,,,,,,,,,,,,,,,,,,,,,,,
,,6551107f5a1d2c295466c232,2024-02-18_18h14.53.011,kallum_motion_pilot,2023.2.2,Win32,60.60606061,6551107f5a1d2c295466c232,65d2b6c8f2eece985d8e374c,65d2b92c664d1d730608dfbd,0.0702,0.0703,1,106,268,80,1,fivesix,,,,,,,,,,,,,,,,,,,,,,,,,,,,,,,,,,,,,,,,,,,,,,,,,,,,,,,,,,,,,,,,,,,,,,,,,,,,,,,,,,,,,,,,,,,,,,,,,,,,,,,,,,,,,,,,,,,,,,,,,,,,,,,,,,,,,,,,,
,,6551107f5a1d2c295466c232,2024-02-18_18h14.53.011,kallum_motion_pilot,2023.2.2,Win32,60.60606061,6551107f5a1d2c295466c232,65d2b6c8f2eece985d8e374c,65d2b92c664d1d730608dfbd,0.0704,0.0704,1,107,269,78,1,fourtwo,,,,,,,,,,,,,,,,,,,,,,,,,,,,,,,,,,,,,,,,,,,,,,,,,,,,,,,,,,,,,,,,,,,,,,,,,,,,,,,,,,,,,,,,,,,,,,,,,,,,,,,,,,,,,,,,,,,,,,,,,,,,,,,,,,,,,,,,,
,,6551107f5a1d2c295466c232,2024-02-18_18h14.53.011,kallum_motion_pilot,2023.2.2,Win32,60.60606061,6551107f5a1d2c295466c232,65d2b6c8f2eece985d8e374c,65d2b92c664d1d730608dfbd,0.0705,0.0705,1,108,270,57,1,onethree,,,,,,,,,,,,,,,,,,,,,,,,,,,,,,,,,,,,,,,,,,,,,,,,,,,,,,,,,,,,,,,,,,,,,,,,,,,,,,,,,,,,,,,,,,,,,,,,,,,,,,,,,,,,,,,,,,,,,,,,,,,,,,,,,,,,,,,,,
,,6551107f5a1d2c295466c232,2024-02-18_18h14.53.011,kallum_motion_pilot,2023.2.2,Win32,60.60606061,6551107f5a1d2c295466c232,65d2b6c8f2eece985d8e374c,65d2b92c664d1d730608dfbd,0.0706,0.0714,1,109,271,27,1,twofour,,,,,,,,,,,,,,,,,,,,,,,,,,,,,,,,,,,,,,,,,,,,,,,,,,,,,,,,,,,,,,,,,,,,,,,,,,,,,,,,,,,,,,,,,,,,,,,,,,,,,,,,,,,,,,,,,,,,,,,,,,,,,,,,,,,,,,,,,
,,6551107f5a1d2c295466c232,2024-02-18_18h14.53.011,kallum_motion_pilot,2023.2.2,Win32,60.60606061,6551107f5a1d2c295466c232,65d2b6c8f2eece985d8e374c,65d2b92c664d1d730608dfbd,0.0716,0.0716,1,110,272,54,1,fourtwo,,,,,,,,,,,,,,,,,,,,,,,,,,,,,,,,,,,,,,,,,,,,,,,,,,,,,,,,,,,,,,,,,,,,,,,,,,,,,,,,,,,,,,,,,,,,,,,,,,,,,,,,,,,,,,,,,,,,,,,,,,,,,,,,,,,,,,,,,
,,6551107f5a1d2c295466c232,2024-02-18_18h14.53.011,kallum_motion_pilot,2023.2.2,Win32,60.60606061,6551107f5a1d2c295466c232,65d2b6c8f2eece985d8e374c,65d2b92c664d1d730608dfbd,0.0717,0.0717,1,111,273,119,1,eightseven,,,,,,,,,,,,,,,,,,,,,,,,,,,,,,,,,,,,,,,,,,,,,,,,,,,,,,,,,,,,,,,,,,,,,,,,,,,,,,,,,,,,,,,,,,,,,,,,,,,,,,,,,,,,,,,,,,,,,,,,,,,,,,,,,,,,,,,,,
,,6551107f5a1d2c295466c232,2024-02-18_18h14.53.011,kallum_motion_pilot,2023.2.2,Win32,60.60606061,6551107f5a1d2c295466c232,65d2b6c8f2eece985d8e374c,65d2b92c664d1d730608dfbd,0.0718,0.072,1,112,274,31,1,fourthree,,,,,,,,,,,,,,,,,,,,,,,,,,,,,,,,,,,,,,,,,,,,,,,,,,,,,,,,,,,,,,,,,,,,,,,,,,,,,,,,,,,,,,,,,,,,,,,,,,,,,,,,,,,,,,,,,,,,,,,,,,,,,,,,,,,,,,,,,
,,6551107f5a1d2c295466c232,2024-02-18_18h14.53.011,kallum_motion_pilot,2023.2.2,Win32,60.60606061,6551107f5a1d2c295466c232,65d2b6c8f2eece985d8e374c,65d2b92c664d1d730608dfbd,0.072,0.072,1,113,275,50,1,twoone,,,,,,,,,,,,,,,,,,,,,,,,,,,,,,,,,,,,,,,,,,,,,,,,,,,,,,,,,,,,,,,,,,,,,,,,,,,,,,,,,,,,,,,,,,,,,,,,,,,,,,,,,,,,,,,,,,,,,,,,,,,,,,,,,,,,,,,,,
,,6551107f5a1d2c295466c232,2024-02-18_18h14.53.011,kallum_motion_pilot,2023.2.2,Win32,60.60606061,6551107f5a1d2c295466c232,65d2b6c8f2eece985d8e374c,65d2b92c664d1d730608dfbd,0.0721,0.0721,1,114,276,153,1,fiveseven,,,,,,,,,,,,,,,,,,,,,,,,,,,,,,,,,,,,,,,,,,,,,,,,,,,,,,,,,,,,,,,,,,,,,,,,,,,,,,,,,,,,,,,,,,,,,,,,,,,,,,,,,,,,,,,,,,,,,,,,,,,,,,,,,,,,,,,,,
,,6551107f5a1d2c295466c232,2024-02-18_18h14.53.011,kallum_motion_pilot,2023.2.2,Win32,60.60606061,6551107f5a1d2c295466c232,65d2b6c8f2eece985d8e374c,65d2b92c664d1d730608dfbd,0.0722,0.0723,1,115,277,104,1,fivesix,,,,,,,,,,,,,,,,,,,,,,,,,,,,,,,,,,,,,,,,,,,,,,,,,,,,,,,,,,,,,,,,,,,,,,,,,,,,,,,,,,,,,,,,,,,,,,,,,,,,,,,,,,,,,,,,,,,,,,,,,,,,,,,,,,,,,,,,,
