startup.started,startup.stopped,Prolific ID*,date,expName,psychopyVersion,OS,frameRate,participant,study_id,session,stimpositions.started,stimpositions.stopped,hardcoded_stimulus_positions.thisRepN,hardcoded_stimulus_positions.thisTrialN,hardcoded_stimulus_positions.thisN,hardcoded_stimulus_positions.thisIndex,hardcoded_stimulus_positions.ran,StimulusPos,stimorientation.started,stimorientation.stopped,prac_stimorientation_import_loop.thisRepN,prac_stimorientation_import_loop.thisTrialN,prac_stimorientation_import_loop.thisN,prac_stimorientation_import_loop.thisIndex,prac_stimorientation_import_loop.ran,Stimorientation,welcome_instr.started,welcome_instr.stopped,key_resp.keys,key_resp.rt,key_resp.duration,response_steppedout_1.started,response_steppedout_1.stopped,key_resp_20.keys,key_resp_20.rt,key_resp_20.duration,response_steppedout_2.started,response_steppedout_2.stopped,key_resp_19.keys,key_resp_19.rt,key_resp_19.duration,stim_response_instr.started,stim_response_instr.stopped,key_resp_15.keys,key_resp_15.rt,key_resp_15.duration,direction_instr_2.started,direction_instr_2.stopped,key_resp_9.keys,key_resp_9.rt,key_resp_9.duration,instr_prac.started,instr_prac.stopped,key_resp_10.keys,key_resp_10.rt,key_resp_10.duration,Stim1_display_prac.started,Stim1_display_prac.stopped,Ecc,Circle1_ori,Circle2_ori,response_prac.started,similarity,response_time,response_prac.stopped,mouse_5.x,mouse_5.y,mouse_5.leftButton,mouse_5.midButton,mouse_5.rightButton,mouse_5.clicked_name,responseprac_feedback.started,responseprac_feedback.stopped,summary2_prac.started,summary2_prac.stopped,mouse_6.x,mouse_6.y,mouse_6.leftButton,mouse_6.midButton,mouse_6.rightButton,mouse_6.clicked_name,duringprac.thisRepN,duringprac.thisTrialN,duringprac.thisN,duringprac.thisIndex,duringprac.ran,begin.started,begin.stopped,key_resp_22.keys,key_resp_22.rt,key_resp_22.duration,Stim1_display.started,Stim1_display.stopped,circle1_ori,circle2_ori,circle1_SF,circle2_SF,response.started,response.stopped,mouse.x,mouse.y,mouse.leftButton,mouse.midButton,mouse.rightButton,mouse.clicked_name,trialnumber,double_pass.thisRepN,double_pass.thisTrialN,double_pass.thisN,double_pass.thisIndex,double_pass.ran,double_pass.order,main_trial.thisRepN,main_trial.thisTrialN,main_trial.thisN,main_trial.thisIndex,main_trial.ran,main_trial.order,Trial_Counter,Catch,Frequencies,response_2.started,response_2.stopped,mouse_2.x,mouse_2.y,mouse_2.leftButton,mouse_2.midButton,mouse_2.rightButton,mouse_2.clicked_name,special_trial.started,special_trial.stopped,catch_1.started,catch_1.stopped,mouse_3.x,mouse_3.y,mouse_3.leftButton,mouse_3.midButton,mouse_3.rightButton,catchresponse,catchnumber,response_time_catch,response_sum.started,response_sum.stopped,mouse_11.x,mouse_11.y,mouse_11.leftButton,mouse_11.midButton,mouse_11.rightButton,flip_presentation_sequence_for_double_pass.started,flip_presentation_sequence_for_double_pass.stopped,goodbye.started,goodbye.stopped,key_resp_3.keys,key_resp_3.rt,key_resp_3.duration
0.0004,0.0005,65563952de5c5569d4e55cb8,2024-02-18_20h12.51.547,kallum_motion_pilot,2023.2.2,Win32,59.88023952,65563952de5c5569d4e55cb8,65d2b6c8f2eece985d8e374c,65d2b8f8b376ecff2523cc21,,,,,,,,,,,,,,,,,,,,,,,,,,,,,,,,,,,,,,,,,,,,,,,,,,,,,,,,,,,,,,,,,,,,,,,,,,,,,,,,,,,,,,,,,,,,,,,,,,,,,,,,,,,,,,,,,,,,,,,,,,,,,,,,,,,,,,,,,,,,,,,,,
,,65563952de5c5569d4e55cb8,2024-02-18_20h12.51.547,kallum_motion_pilot,2023.2.2,Win32,59.88023952,65563952de5c5569d4e55cb8,65d2b6c8f2eece985d8e374c,65d2b8f8b376ecff2523cc21,0.029,0.0292,0,0,0,159,1,eightseven,,,,,,,,,,,,,,,,,,,,,,,,,,,,,,,,,,,,,,,,,,,,,,,,,,,,,,,,,,,,,,,,,,,,,,,,,,,,,,,,,,,,,,,,,,,,,,,,,,,,,,,,,,,,,,,,,,,,,,,,,,,,,,,,,,,,,,,,,
,,65563952de5c5569d4e55cb8,2024-02-18_20h12.51.547,kallum_motion_pilot,2023.2.2,Win32,59.88023952,65563952de5c5569d4e55cb8,65d2b6c8f2eece985d8e374c,65d2b8f8b376ecff2523cc21,0.0295,0.0295,0,1,1,140,1,sevenfive,,,,,,,,,,,,,,,,,,,,,,,,,,,,,,,,,,,,,,,,,,,,,,,,,,,,,,,,,,,,,,,,,,,,,,,,,,,,,,,,,,,,,,,,,,,,,,,,,,,,,,,,,,,,,,,,,,,,,,,,,,,,,,,,,,,,,,,,,
,,65563952de5c5569d4e55cb8,2024-02-18_20h12.51.547,kallum_motion_pilot,2023.2.2,Win32,59.88023952,65563952de5c5569d4e55cb8,65d2b6c8f2eece985d8e374c,65d2b8f8b376ecff2523cc21,0.0296,0.0297,0,2,2,143,1,eightseven,,,,,,,,,,,,,,,,,,,,,,,,,,,,,,,,,,,,,,,,,,,,,,,,,,,,,,,,,,,,,,,,,,,,,,,,,,,,,,,,,,,,,,,,,,,,,,,,,,,,,,,,,,,,,,,,,,,,,,,,,,,,,,,,,,,,,,,,,
,,65563952de5c5569d4e55cb8,2024-02-18_20h12.51.547,kallum_motion_pilot,2023.2.2,Win32,59.88023952,65563952de5c5569d4e55cb8,65d2b6c8f2eece985d8e374c,65d2b8f8b376ecff2523cc21,0.0298,0.0298,0,3,3,126,1,eightsix,,,,,,,,,,,,,,,,,,,,,,,,,,,,,,,,,,,,,,,,,,,,,,,,,,,,,,,,,,,,,,,,,,,,,,,,,,,,,,,,,,,,,,,,,,,,,,,,,,,,,,,,,,,,,,,,,,,,,,,,,,,,,,,,,,,,,,,,,
,,65563952de5c5569d4e55cb8,2024-02-18_20h12.51.547,kallum_motion_pilot,2023.2.2,Win32,59.88023952,65563952de5c5569d4e55cb8,65d2b6c8f2eece985d8e374c,65d2b8f8b376ecff2523cc21,0.03,0.03,0,4,4,79,1,eightseven,,,,,,,,,,,,,,,,,,,,,,,,,,,,,,,,,,,,,,,,,,,,,,,,,,,,,,,,,,,,,,,,,,,,,,,,,,,,,,,,,,,,,,,,,,,,,,,,,,,,,,,,,,,,,,,,,,,,,,,,,,,,,,,,,,,,,,,,,
,,65563952de5c5569d4e55cb8,2024-02-18_20h12.51.547,kallum_motion_pilot,2023.2.2,Win32,59.88023952,65563952de5c5569d4e55cb8,65d2b6c8f2eece985d8e374c,65d2b8f8b376ecff2523cc21,0.0301,0.0302,0,5,5,91,1,sixeight,,,,,,,,,,,,,,,,,,,,,,,,,,,,,,,,,,,,,,,,,,,,,,,,,,,,,,,,,,,,,,,,,,,,,,,,,,,,,,,,,,,,,,,,,,,,,,,,,,,,,,,,,,,,,,,,,,,,,,,,,,,,,,,,,,,,,,,,,
,,65563952de5c5569d4e55cb8,2024-02-18_20h12.51.547,kallum_motion_pilot,2023.2.2,Win32,59.88023952,65563952de5c5569d4e55cb8,65d2b6c8f2eece985d8e374c,65d2b8f8b376ecff2523cc21,0.0302,0.0302,0,6,6,67,1,twofour,,,,,,,,,,,,,,,,,,,,,,,,,,,,,,,,,,,,,,,,,,,,,,,,,,,,,,,,,,,,,,,,,,,,,,,,,,,,,,,,,,,,,,,,,,,,,,,,,,,,,,,,,,,,,,,,,,,,,,,,,,,,,,,,,,,,,,,,,
,,65563952de5c5569d4e55cb8,2024-02-18_20h12.51.547,kallum_motion_pilot,2023.2.2,Win32,59.88023952,65563952de5c5569d4e55cb8,65d2b6c8f2eece985d8e374c,65d2b8f8b376ecff2523cc21,0.0303,0.0304,0,7,7,49,1,onethree,,,,,,,,,,,,,,,,,,,,,,,,,,,,,,,,,,,,,,,,,,,,,,,,,,,,,,,,,,,,,,,,,,,,,,,,,,,,,,,,,,,,,,,,,,,,,,,,,,,,,,,,,,,,,,,,,,,,,,,,,,,,,,,,,,,,,,,,,
,,65563952de5c5569d4e55cb8,2024-02-18_20h12.51.547,kallum_motion_pilot,2023.2.2,Win32,59.88023952,65563952de5c5569d4e55cb8,65d2b6c8f2eece985d8e374c,65d2b8f8b376ecff2523cc21,0.0306,0.0306,0,8,8,28,1,threeone,,,,,,,,,,,,,,,,,,,,,,,,,,,,,,,,,,,,,,,,,,,,,,,,,,,,,,,,,,,,,,,,,,,,,,,,,,,,,,,,,,,,,,,,,,,,,,,,,,,,,,,,,,,,,,,,,,,,,,,,,,,,,,,,,,,,,,,,,
,,65563952de5c5569d4e55cb8,2024-02-18_20h12.51.547,kallum_motion_pilot,2023.2.2,Win32,59.88023952,65563952de5c5569d4e55cb8,65d2b6c8f2eece985d8e374c,65d2b8f8b376ecff2523cc21,0.0307,0.0308,0,9,9,19,1,twofour,,,,,,,,,,,,,,,,,,,,,,,,,,,,,,,,,,,,,,,,,,,,,,,,,,,,,,,,,,,,,,,,,,,,,,,,,,,,,,,,,,,,,,,,,,,,,,,,,,,,,,,,,,,,,,,,,,,,,,,,,,,,,,,,,,,,,,,,,
,,65563952de5c5569d4e55cb8,2024-02-18_20h12.51.547,kallum_motion_pilot,2023.2.2,Win32,59.88023952,65563952de5c5569d4e55cb8,65d2b6c8f2eece985d8e374c,65d2b8f8b376ecff2523cc21,0.0308,0.0309,0,10,10,142,1,eightsix,,,,,,,,,,,,,,,,,,,,,,,,,,,,,,,,,,,,,,,,,,,,,,,,,,,,,,,,,,,,,,,,,,,,,,,,,,,,,,,,,,,,,,,,,,,,,,,,,,,,,,,,,,,,,,,,,,,,,,,,,,,,,,,,,,,,,,,,,
,,65563952de5c5569d4e55cb8,2024-02-18_20h12.51.547,kallum_motion_pilot,2023.2.2,Win32,59.88023952,65563952de5c5569d4e55cb8,65d2b6c8f2eece985d8e374c,65d2b8f8b376ecff2523cc21,0.031,0.031,0,11,11,80,1,fivesix,,,,,,,,,,,,,,,,,,,,,,,,,,,,,,,,,,,,,,,,,,,,,,,,,,,,,,,,,,,,,,,,,,,,,,,,,,,,,,,,,,,,,,,,,,,,,,,,,,,,,,,,,,,,,,,,,,,,,,,,,,,,,,,,,,,,,,,,,
,,65563952de5c5569d4e55cb8,2024-02-18_20h12.51.547,kallum_motion_pilot,2023.2.2,Win32,59.88023952,65563952de5c5569d4e55cb8,65d2b6c8f2eece985d8e374c,65d2b8f8b376ecff2523cc21,0.0311,0.0311,0,12,12,29,1,threefour,,,,,,,,,,,,,,,,,,,,,,,,,,,,,,,,,,,,,,,,,,,,,,,,,,,,,,,,,,,,,,,,,,,,,,,,,,,,,,,,,,,,,,,,,,,,,,,,,,,,,,,,,,,,,,,,,,,,,,,,,,,,,,,,,,,,,,,,,
,,65563952de5c5569d4e55cb8,2024-02-18_20h12.51.547,kallum_motion_pilot,2023.2.2,Win32,59.88023952,65563952de5c5569d4e55cb8,65d2b6c8f2eece985d8e374c,65d2b8f8b376ecff2523cc21,0.0312,0.0312,0,13,13,64,1,onetwo,,,,,,,,,,,,,,,,,,,,,,,,,,,,,,,,,,,,,,,,,,,,,,,,,,,,,,,,,,,,,,,,,,,,,,,,,,,,,,,,,,,,,,,,,,,,,,,,,,,,,,,,,,,,,,,,,,,,,,,,,,,,,,,,,,,,,,,,,
,,65563952de5c5569d4e55cb8,2024-02-18_20h12.51.547,kallum_motion_pilot,2023.2.2,Win32,59.88023952,65563952de5c5569d4e55cb8,65d2b6c8f2eece985d8e374c,65d2b8f8b376ecff2523cc21,0.0312,0.0313,0,14,14,69,1,threefour,,,,,,,,,,,,,,,,,,,,,,,,,,,,,,,,,,,,,,,,,,,,,,,,,,,,,,,,,,,,,,,,,,,,,,,,,,,,,,,,,,,,,,,,,,,,,,,,,,,,,,,,,,,,,,,,,,,,,,,,,,,,,,,,,,,,,,,,,
,,65563952de5c5569d4e55cb8,2024-02-18_20h12.51.547,kallum_motion_pilot,2023.2.2,Win32,59.88023952,65563952de5c5569d4e55cb8,65d2b6c8f2eece985d8e374c,65d2b8f8b376ecff2523cc21,0.0314,0.0314,0,15,15,42,1,twoone,,,,,,,,,,,,,,,,,,,,,,,,,,,,,,,,,,,,,,,,,,,,,,,,,,,,,,,,,,,,,,,,,,,,,,,,,,,,,,,,,,,,,,,,,,,,,,,,,,,,,,,,,,,,,,,,,,,,,,,,,,,,,,,,,,,,,,,,,
,,65563952de5c5569d4e55cb8,2024-02-18_20h12.51.547,kallum_motion_pilot,2023.2.2,Win32,59.88023952,65563952de5c5569d4e55cb8,65d2b6c8f2eece985d8e374c,65d2b8f8b376ecff2523cc21,0.0314,0.0314,0,16,16,9,1,onethree,,,,,,,,,,,,,,,,,,,,,,,,,,,,,,,,,,,,,,,,,,,,,,,,,,,,,,,,,,,,,,,,,,,,,,,,,,,,,,,,,,,,,,,,,,,,,,,,,,,,,,,,,,,,,,,,,,,,,,,,,,,,,,,,,,,,,,,,,
,,65563952de5c5569d4e55cb8,2024-02-18_20h12.51.547,kallum_motion_pilot,2023.2.2,Win32,59.88023952,65563952de5c5569d4e55cb8,65d2b6c8f2eece985d8e374c,65d2b8f8b376ecff2523cc21,0.0315,0.0316,0,17,17,39,1,fourthree,,,,,,,,,,,,,,,,,,,,,,,,,,,,,,,,,,,,,,,,,,,,,,,,,,,,,,,,,,,,,,,,,,,,,,,,,,,,,,,,,,,,,,,,,,,,,,,,,,,,,,,,,,,,,,,,,,,,,,,,,,,,,,,,,,,,,,,,,
,,65563952de5c5569d4e55cb8,2024-02-18_20h12.51.547,kallum_motion_pilot,2023.2.2,Win32,59.88023952,65563952de5c5569d4e55cb8,65d2b6c8f2eece985d8e374c,65d2b8f8b376ecff2523cc21,0.0317,0.0317,0,18,18,84,1,sevenfive,,,,,,,,,,,,,,,,,,,,,,,,,,,,,,,,,,,,,,,,,,,,,,,,,,,,,,,,,,,,,,,,,,,,,,,,,,,,,,,,,,,,,,,,,,,,,,,,,,,,,,,,,,,,,,,,,,,,,,,,,,,,,,,,,,,,,,,,,
,,65563952de5c5569d4e55cb8,2024-02-18_20h12.51.547,kallum_motion_pilot,2023.2.2,Win32,59.88023952,65563952de5c5569d4e55cb8,65d2b6c8f2eece985d8e374c,65d2b8f8b376ecff2523cc21,0.0317,0.0318,0,19,19,16,1,onetwo,,,,,,,,,,,,,,,,,,,,,,,,,,,,,,,,,,,,,,,,,,,,,,,,,,,,,,,,,,,,,,,,,,,,,,,,,,,,,,,,,,,,,,,,,,,,,,,,,,,,,,,,,,,,,,,,,,,,,,,,,,,,,,,,,,,,,,,,,
,,65563952de5c5569d4e55cb8,2024-02-18_20h12.51.547,kallum_motion_pilot,2023.2.2,Win32,59.88023952,65563952de5c5569d4e55cb8,65d2b6c8f2eece985d8e374c,65d2b8f8b376ecff2523cc21,0.0318,0.0318,0,20,20,74,1,twoone,,,,,,,,,,,,,,,,,,,,,,,,,,,,,,,,,,,,,,,,,,,,,,,,,,,,,,,,,,,,,,,,,,,,,,,,,,,,,,,,,,,,,,,,,,,,,,,,,,,,,,,,,,,,,,,,,,,,,,,,,,,,,,,,,,,,,,,,,
,,65563952de5c5569d4e55cb8,2024-02-18_20h12.51.547,kallum_motion_pilot,2023.2.2,Win32,59.88023952,65563952de5c5569d4e55cb8,65d2b6c8f2eece985d8e374c,65d2b8f8b376ecff2523cc21,0.0319,0.0319,0,21,21,127,1,eightseven,,,,,,,,,,,,,,,,,,,,,,,,,,,,,,,,,,,,,,,,,,,,,,,,,,,,,,,,,,,,,,,,,,,,,,,,,,,,,,,,,,,,,,,,,,,,,,,,,,,,,,,,,,,,,,,,,,,,,,,,,,,,,,,,,,,,,,,,,
,,65563952de5c5569d4e55cb8,2024-02-18_20h12.51.547,kallum_motion_pilot,2023.2.2,Win32,59.88023952,65563952de5c5569d4e55cb8,65d2b6c8f2eece985d8e374c,65d2b8f8b376ecff2523cc21,0.0321,0.0321,0,22,22,0,1,onetwo,,,,,,,,,,,,,,,,,,,,,,,,,,,,,,,,,,,,,,,,,,,,,,,,,,,,,,,,,,,,,,,,,,,,,,,,,,,,,,,,,,,,,,,,,,,,,,,,,,,,,,,,,,,,,,,,,,,,,,,,,,,,,,,,,,,,,,,,,
,,65563952de5c5569d4e55cb8,2024-02-18_20h12.51.547,kallum_motion_pilot,2023.2.2,Win32,59.88023952,65563952de5c5569d4e55cb8,65d2b6c8f2eece985d8e374c,65d2b8f8b376ecff2523cc21,0.0321,0.0322,0,23,23,92,1,sevenfive,,,,,,,,,,,,,,,,,,,,,,,,,,,,,,,,,,,,,,,,,,,,,,,,,,,,,,,,,,,,,,,,,,,,,,,,,,,,,,,,,,,,,,,,,,,,,,,,,,,,,,,,,,,,,,,,,,,,,,,,,,,,,,,,,,,,,,,,,
,,65563952de5c5569d4e55cb8,2024-02-18_20h12.51.547,kallum_motion_pilot,2023.2.2,Win32,59.88023952,65563952de5c5569d4e55cb8,65d2b6c8f2eece985d8e374c,65d2b8f8b376ecff2523cc21,0.0323,0.0323,0,24,24,85,1,seveneight,,,,,,,,,,,,,,,,,,,,,,,,,,,,,,,,,,,,,,,,,,,,,,,,,,,,,,,,,,,,,,,,,,,,,,,,,,,,,,,,,,,,,,,,,,,,,,,,,,,,,,,,,,,,,,,,,,,,,,,,,,,,,,,,,,,,,,,,,
,,65563952de5c5569d4e55cb8,2024-02-18_20h12.51.547,kallum_motion_pilot,2023.2.2,Win32,59.88023952,65563952de5c5569d4e55cb8,65d2b6c8f2eece985d8e374c,65d2b8f8b376ecff2523cc21,0.0324,0.0324,0,25,25,161,1,fiveseven,,,,,,,,,,,,,,,,,,,,,,,,,,,,,,,,,,,,,,,,,,,,,,,,,,,,,,,,,,,,,,,,,,,,,,,,,,,,,,,,,,,,,,,,,,,,,,,,,,,,,,,,,,,,,,,,,,,,,,,,,,,,,,,,,,,,,,,,,
,,65563952de5c5569d4e55cb8,2024-02-18_20h12.51.547,kallum_motion_pilot,2023.2.2,Win32,59.88023952,65563952de5c5569d4e55cb8,65d2b6c8f2eece985d8e374c,65d2b8f8b376ecff2523cc21,0.0325,0.0327,0,26,26,66,1,twoone,,,,,,,,,,,,,,,,,,,,,,,,,,,,,,,,,,,,,,,,,,,,,,,,,,,,,,,,,,,,,,,,,,,,,,,,,,,,,,,,,,,,,,,,,,,,,,,,,,,,,,,,,,,,,,,,,,,,,,,,,,,,,,,,,,,,,,,,,
,,65563952de5c5569d4e55cb8,2024-02-18_20h12.51.547,kallum_motion_pilot,2023.2.2,Win32,59.88023952,65563952de5c5569d4e55cb8,65d2b6c8f2eece985d8e374c,65d2b8f8b376ecff2523cc21,0.033,0.033,0,27,27,150,1,eightsix,,,,,,,,,,,,,,,,,,,,,,,,,,,,,,,,,,,,,,,,,,,,,,,,,,,,,,,,,,,,,,,,,,,,,,,,,,,,,,,,,,,,,,,,,,,,,,,,,,,,,,,,,,,,,,,,,,,,,,,,,,,,,,,,,,,,,,,,,
,,65563952de5c5569d4e55cb8,2024-02-18_20h12.51.547,kallum_motion_pilot,2023.2.2,Win32,59.88023952,65563952de5c5569d4e55cb8,65d2b6c8f2eece985d8e374c,65d2b8f8b376ecff2523cc21,0.0332,0.0332,0,28,28,55,1,fourthree,,,,,,,,,,,,,,,,,,,,,,,,,,,,,,,,,,,,,,,,,,,,,,,,,,,,,,,,,,,,,,,,,,,,,,,,,,,,,,,,,,,,,,,,,,,,,,,,,,,,,,,,,,,,,,,,,,,,,,,,,,,,,,,,,,,,,,,,,
,,65563952de5c5569d4e55cb8,2024-02-18_20h12.51.547,kallum_motion_pilot,2023.2.2,Win32,59.88023952,65563952de5c5569d4e55cb8,65d2b6c8f2eece985d8e374c,65d2b8f8b376ecff2523cc21,0.0333,0.0333,0,29,29,44,1,threeone,,,,,,,,,,,,,,,,,,,,,,,,,,,,,,,,,,,,,,,,,,,,,,,,,,,,,,,,,,,,,,,,,,,,,,,,,,,,,,,,,,,,,,,,,,,,,,,,,,,,,,,,,,,,,,,,,,,,,,,,,,,,,,,,,,,,,,,,,
,,65563952de5c5569d4e55cb8,2024-02-18_20h12.51.547,kallum_motion_pilot,2023.2.2,Win32,59.88023952,65563952de5c5569d4e55cb8,65d2b6c8f2eece985d8e374c,65d2b8f8b376ecff2523cc21,0.0334,0.0334,0,30,30,59,1,twofour,,,,,,,,,,,,,,,,,,,,,,,,,,,,,,,,,,,,,,,,,,,,,,,,,,,,,,,,,,,,,,,,,,,,,,,,,,,,,,,,,,,,,,,,,,,,,,,,,,,,,,,,,,,,,,,,,,,,,,,,,,,,,,,,,,,,,,,,,
,,65563952de5c5569d4e55cb8,2024-02-18_20h12.51.547,kallum_motion_pilot,2023.2.2,Win32,59.88023952,65563952de5c5569d4e55cb8,65d2b6c8f2eece985d8e374c,65d2b8f8b376ecff2523cc21,0.0335,0.0335,0,31,31,132,1,sevenfive,,,,,,,,,,,,,,,,,,,,,,,,,,,,,,,,,,,,,,,,,,,,,,,,,,,,,,,,,,,,,,,,,,,,,,,,,,,,,,,,,,,,,,,,,,,,,,,,,,,,,,,,,,,,,,,,,,,,,,,,,,,,,,,,,,,,,,,,,
,,65563952de5c5569d4e55cb8,2024-02-18_20h12.51.547,kallum_motion_pilot,2023.2.2,Win32,59.88023952,65563952de5c5569d4e55cb8,65d2b6c8f2eece985d8e374c,65d2b8f8b376ecff2523cc21,0.0337,0.0337,0,32,32,70,1,fourtwo,,,,,,,,,,,,,,,,,,,,,,,,,,,,,,,,,,,,,,,,,,,,,,,,,,,,,,,,,,,,,,,,,,,,,,,,,,,,,,,,,,,,,,,,,,,,,,,,,,,,,,,,,,,,,,,,,,,,,,,,,,,,,,,,,,,,,,,,,
,,65563952de5c5569d4e55cb8,2024-02-18_20h12.51.547,kallum_motion_pilot,2023.2.2,Win32,59.88023952,65563952de5c5569d4e55cb8,65d2b6c8f2eece985d8e374c,65d2b8f8b376ecff2523cc21,0.0337,0.0337,0,33,33,11,1,twofour,,,,,,,,,,,,,,,,,,,,,,,,,,,,,,,,,,,,,,,,,,,,,,,,,,,,,,,,,,,,,,,,,,,,,,,,,,,,,,,,,,,,,,,,,,,,,,,,,,,,,,,,,,,,,,,,,,,,,,,,,,,,,,,,,,,,,,,,,
,,65563952de5c5569d4e55cb8,2024-02-18_20h12.51.547,kallum_motion_pilot,2023.2.2,Win32,59.88023952,65563952de5c5569d4e55cb8,65d2b6c8f2eece985d8e374c,65d2b8f8b376ecff2523cc21,0.0338,0.0339,0,34,34,153,1,fiveseven,,,,,,,,,,,,,,,,,,,,,,,,,,,,,,,,,,,,,,,,,,,,,,,,,,,,,,,,,,,,,,,,,,,,,,,,,,,,,,,,,,,,,,,,,,,,,,,,,,,,,,,,,,,,,,,,,,,,,,,,,,,,,,,,,,,,,,,,,
,,65563952de5c5569d4e55cb8,2024-02-18_20h12.51.547,kallum_motion_pilot,2023.2.2,Win32,59.88023952,65563952de5c5569d4e55cb8,65d2b6c8f2eece985d8e374c,65d2b8f8b376ecff2523cc21,0.0339,0.034,0,35,35,112,1,fivesix,,,,,,,,,,,,,,,,,,,,,,,,,,,,,,,,,,,,,,,,,,,,,,,,,,,,,,,,,,,,,,,,,,,,,,,,,,,,,,,,,,,,,,,,,,,,,,,,,,,,,,,,,,,,,,,,,,,,,,,,,,,,,,,,,,,,,,,,,
,,65563952de5c5569d4e55cb8,2024-02-18_20h12.51.547,kallum_motion_pilot,2023.2.2,Win32,59.88023952,65563952de5c5569d4e55cb8,65d2b6c8f2eece985d8e374c,65d2b8f8b376ecff2523cc21,0.0341,0.0341,0,36,36,51,1,twofour,,,,,,,,,,,,,,,,,,,,,,,,,,,,,,,,,,,,,,,,,,,,,,,,,,,,,,,,,,,,,,,,,,,,,,,,,,,,,,,,,,,,,,,,,,,,,,,,,,,,,,,,,,,,,,,,,,,,,,,,,,,,,,,,,,,,,,,,,
,,65563952de5c5569d4e55cb8,2024-02-18_20h12.51.547,kallum_motion_pilot,2023.2.2,Win32,59.88023952,65563952de5c5569d4e55cb8,65d2b6c8f2eece985d8e374c,65d2b8f8b376ecff2523cc21,0.0342,0.0342,0,37,37,54,1,fourtwo,,,,,,,,,,,,,,,,,,,,,,,,,,,,,,,,,,,,,,,,,,,,,,,,,,,,,,,,,,,,,,,,,,,,,,,,,,,,,,,,,,,,,,,,,,,,,,,,,,,,,,,,,,,,,,,,,,,,,,,,,,,,,,,,,,,,,,,,,
,,65563952de5c5569d4e55cb8,2024-02-18_20h12.51.547,kallum_motion_pilot,2023.2.2,Win32,59.88023952,65563952de5c5569d4e55cb8,65d2b6c8f2eece985d8e374c,65d2b8f8b376ecff2523cc21,0.0343,0.0344,0,38,38,3,1,twofour,,,,,,,,,,,,,,,,,,,,,,,,,,,,,,,,,,,,,,,,,,,,,,,,,,,,,,,,,,,,,,,,,,,,,,,,,,,,,,,,,,,,,,,,,,,,,,,,,,,,,,,,,,,,,,,,,,,,,,,,,,,,,,,,,,,,,,,,,
,,65563952de5c5569d4e55cb8,2024-02-18_20h12.51.547,kallum_motion_pilot,2023.2.2,Win32,59.88023952,65563952de5c5569d4e55cb8,65d2b6c8f2eece985d8e374c,65d2b8f8b376ecff2523cc21,0.0345,0.0345,0,39,39,62,1,fourtwo,,,,,,,,,,,,,,,,,,,,,,,,,,,,,,,,,,,,,,,,,,,,,,,,,,,,,,,,,,,,,,,,,,,,,,,,,,,,,,,,,,,,,,,,,,,,,,,,,,,,,,,,,,,,,,,,,,,,,,,,,,,,,,,,,,,,,,,,,
,,65563952de5c5569d4e55cb8,2024-02-18_20h12.51.547,kallum_motion_pilot,2023.2.2,Win32,59.88023952,65563952de5c5569d4e55cb8,65d2b6c8f2eece985d8e374c,65d2b8f8b376ecff2523cc21,0.0346,0.0346,0,40,40,99,1,sixeight,,,,,,,,,,,,,,,,,,,,,,,,,,,,,,,,,,,,,,,,,,,,,,,,,,,,,,,,,,,,,,,,,,,,,,,,,,,,,,,,,,,,,,,,,,,,,,,,,,,,,,,,,,,,,,,,,,,,,,,,,,,,,,,,,,,,,,,,,
,,65563952de5c5569d4e55cb8,2024-02-18_20h12.51.547,kallum_motion_pilot,2023.2.2,Win32,59.88023952,65563952de5c5569d4e55cb8,65d2b6c8f2eece985d8e374c,65d2b8f8b376ecff2523cc21,0.0346,0.0346,0,41,41,131,1,sixeight,,,,,,,,,,,,,,,,,,,,,,,,,,,,,,,,,,,,,,,,,,,,,,,,,,,,,,,,,,,,,,,,,,,,,,,,,,,,,,,,,,,,,,,,,,,,,,,,,,,,,,,,,,,,,,,,,,,,,,,,,,,,,,,,,,,,,,,,,
,,65563952de5c5569d4e55cb8,2024-02-18_20h12.51.547,kallum_motion_pilot,2023.2.2,Win32,59.88023952,65563952de5c5569d4e55cb8,65d2b6c8f2eece985d8e374c,65d2b8f8b376ecff2523cc21,0.0347,0.0349,0,42,42,1,1,onethree,,,,,,,,,,,,,,,,,,,,,,,,,,,,,,,,,,,,,,,,,,,,,,,,,,,,,,,,,,,,,,,,,,,,,,,,,,,,,,,,,,,,,,,,,,,,,,,,,,,,,,,,,,,,,,,,,,,,,,,,,,,,,,,,,,,,,,,,,
,,65563952de5c5569d4e55cb8,2024-02-18_20h12.51.547,kallum_motion_pilot,2023.2.2,Win32,59.88023952,65563952de5c5569d4e55cb8,65d2b6c8f2eece985d8e374c,65d2b8f8b376ecff2523cc21,0.0349,0.0349,0,43,43,111,1,eightseven,,,,,,,,,,,,,,,,,,,,,,,,,,,,,,,,,,,,,,,,,,,,,,,,,,,,,,,,,,,,,,,,,,,,,,,,,,,,,,,,,,,,,,,,,,,,,,,,,,,,,,,,,,,,,,,,,,,,,,,,,,,,,,,,,,,,,,,,,
,,65563952de5c5569d4e55cb8,2024-02-18_20h12.51.547,kallum_motion_pilot,2023.2.2,Win32,59.88023952,65563952de5c5569d4e55cb8,65d2b6c8f2eece985d8e374c,65d2b8f8b376ecff2523cc21,0.0349,0.035,0,44,44,102,1,eightsix,,,,,,,,,,,,,,,,,,,,,,,,,,,,,,,,,,,,,,,,,,,,,,,,,,,,,,,,,,,,,,,,,,,,,,,,,,,,,,,,,,,,,,,,,,,,,,,,,,,,,,,,,,,,,,,,,,,,,,,,,,,,,,,,,,,,,,,,,
,,65563952de5c5569d4e55cb8,2024-02-18_20h12.51.547,kallum_motion_pilot,2023.2.2,Win32,59.88023952,65563952de5c5569d4e55cb8,65d2b6c8f2eece985d8e374c,65d2b8f8b376ecff2523cc21,0.0351,0.0351,0,45,45,8,1,onetwo,,,,,,,,,,,,,,,,,,,,,,,,,,,,,,,,,,,,,,,,,,,,,,,,,,,,,,,,,,,,,,,,,,,,,,,,,,,,,,,,,,,,,,,,,,,,,,,,,,,,,,,,,,,,,,,,,,,,,,,,,,,,,,,,,,,,,,,,,
,,65563952de5c5569d4e55cb8,2024-02-18_20h12.51.547,kallum_motion_pilot,2023.2.2,Win32,59.88023952,65563952de5c5569d4e55cb8,65d2b6c8f2eece985d8e374c,65d2b8f8b376ecff2523cc21,0.0353,0.0353,0,46,46,30,1,fourtwo,,,,,,,,,,,,,,,,,,,,,,,,,,,,,,,,,,,,,,,,,,,,,,,,,,,,,,,,,,,,,,,,,,,,,,,,,,,,,,,,,,,,,,,,,,,,,,,,,,,,,,,,,,,,,,,,,,,,,,,,,,,,,,,,,,,,,,,,,
,,65563952de5c5569d4e55cb8,2024-02-18_20h12.51.547,kallum_motion_pilot,2023.2.2,Win32,59.88023952,65563952de5c5569d4e55cb8,65d2b6c8f2eece985d8e374c,65d2b8f8b376ecff2523cc21,0.0354,0.0354,0,47,47,122,1,sixfive,,,,,,,,,,,,,,,,,,,,,,,,,,,,,,,,,,,,,,,,,,,,,,,,,,,,,,,,,,,,,,,,,,,,,,,,,,,,,,,,,,,,,,,,,,,,,,,,,,,,,,,,,,,,,,,,,,,,,,,,,,,,,,,,,,,,,,,,,
,,65563952de5c5569d4e55cb8,2024-02-18_20h12.51.547,kallum_motion_pilot,2023.2.2,Win32,59.88023952,65563952de5c5569d4e55cb8,65d2b6c8f2eece985d8e374c,65d2b8f8b376ecff2523cc21,0.0355,0.0355,0,48,48,118,1,eightsix,,,,,,,,,,,,,,,,,,,,,,,,,,,,,,,,,,,,,,,,,,,,,,,,,,,,,,,,,,,,,,,,,,,,,,,,,,,,,,,,,,,,,,,,,,,,,,,,,,,,,,,,,,,,,,,,,,,,,,,,,,,,,,,,,,,,,,,,,
,,65563952de5c5569d4e55cb8,2024-02-18_20h12.51.547,kallum_motion_pilot,2023.2.2,Win32,59.88023952,65563952de5c5569d4e55cb8,65d2b6c8f2eece985d8e374c,65d2b8f8b376ecff2523cc21,0.0356,0.0356,0,49,49,133,1,seveneight,,,,,,,,,,,,,,,,,,,,,,,,,,,,,,,,,,,,,,,,,,,,,,,,,,,,,,,,,,,,,,,,,,,,,,,,,,,,,,,,,,,,,,,,,,,,,,,,,,,,,,,,,,,,,,,,,,,,,,,,,,,,,,,,,,,,,,,,,
,,65563952de5c5569d4e55cb8,2024-02-18_20h12.51.547,kallum_motion_pilot,2023.2.2,Win32,59.88023952,65563952de5c5569d4e55cb8,65d2b6c8f2eece985d8e374c,65d2b8f8b376ecff2523cc21,0.0357,0.0357,0,50,50,78,1,fourtwo,,,,,,,,,,,,,,,,,,,,,,,,,,,,,,,,,,,,,,,,,,,,,,,,,,,,,,,,,,,,,,,,,,,,,,,,,,,,,,,,,,,,,,,,,,,,,,,,,,,,,,,,,,,,,,,,,,,,,,,,,,,,,,,,,,,,,,,,,
,,65563952de5c5569d4e55cb8,2024-02-18_20h12.51.547,kallum_motion_pilot,2023.2.2,Win32,59.88023952,65563952de5c5569d4e55cb8,65d2b6c8f2eece985d8e374c,65d2b8f8b376ecff2523cc21,0.0358,0.0359,0,51,51,94,1,eightsix,,,,,,,,,,,,,,,,,,,,,,,,,,,,,,,,,,,,,,,,,,,,,,,,,,,,,,,,,,,,,,,,,,,,,,,,,,,,,,,,,,,,,,,,,,,,,,,,,,,,,,,,,,,,,,,,,,,,,,,,,,,,,,,,,,,,,,,,,
,,65563952de5c5569d4e55cb8,2024-02-18_20h12.51.547,kallum_motion_pilot,2023.2.2,Win32,59.88023952,65563952de5c5569d4e55cb8,65d2b6c8f2eece985d8e374c,65d2b8f8b376ecff2523cc21,0.0359,0.0359,0,52,52,116,1,sevenfive,,,,,,,,,,,,,,,,,,,,,,,,,,,,,,,,,,,,,,,,,,,,,,,,,,,,,,,,,,,,,,,,,,,,,,,,,,,,,,,,,,,,,,,,,,,,,,,,,,,,,,,,,,,,,,,,,,,,,,,,,,,,,,,,,,,,,,,,,
,,65563952de5c5569d4e55cb8,2024-02-18_20h12.51.547,kallum_motion_pilot,2023.2.2,Win32,59.88023952,65563952de5c5569d4e55cb8,65d2b6c8f2eece985d8e374c,65d2b8f8b376ecff2523cc21,0.036,0.036,0,53,53,139,1,sixeight,,,,,,,,,,,,,,,,,,,,,,,,,,,,,,,,,,,,,,,,,,,,,,,,,,,,,,,,,,,,,,,,,,,,,,,,,,,,,,,,,,,,,,,,,,,,,,,,,,,,,,,,,,,,,,,,,,,,,,,,,,,,,,,,,,,,,,,,,
,,65563952de5c5569d4e55cb8,2024-02-18_20h12.51.547,kallum_motion_pilot,2023.2.2,Win32,59.88023952,65563952de5c5569d4e55cb8,65d2b6c8f2eece985d8e374c,65d2b8f8b376ecff2523cc21,0.0362,0.0362,0,54,54,58,1,twoone,,,,,,,,,,,,,,,,,,,,,,,,,,,,,,,,,,,,,,,,,,,,,,,,,,,,,,,,,,,,,,,,,,,,,,,,,,,,,,,,,,,,,,,,,,,,,,,,,,,,,,,,,,,,,,,,,,,,,,,,,,,,,,,,,,,,,,,,,
,,65563952de5c5569d4e55cb8,2024-02-18_20h12.51.547,kallum_motion_pilot,2023.2.2,Win32,59.88023952,65563952de5c5569d4e55cb8,65d2b6c8f2eece985d8e374c,65d2b8f8b376ecff2523cc21,0.0363,0.0363,0,55,55,117,1,seveneight,,,,,,,,,,,,,,,,,,,,,,,,,,,,,,,,,,,,,,,,,,,,,,,,,,,,,,,,,,,,,,,,,,,,,,,,,,,,,,,,,,,,,,,,,,,,,,,,,,,,,,,,,,,,,,,,,,,,,,,,,,,,,,,,,,,,,,,,,
,,65563952de5c5569d4e55cb8,2024-02-18_20h12.51.547,kallum_motion_pilot,2023.2.2,Win32,59.88023952,65563952de5c5569d4e55cb8,65d2b6c8f2eece985d8e374c,65d2b8f8b376ecff2523cc21,0.0363,0.0364,0,56,56,123,1,sixeight,,,,,,,,,,,,,,,,,,,,,,,,,,,,,,,,,,,,,,,,,,,,,,,,,,,,,,,,,,,,,,,,,,,,,,,,,,,,,,,,,,,,,,,,,,,,,,,,,,,,,,,,,,,,,,,,,,,,,,,,,,,,,,,,,,,,,,,,,
,,65563952de5c5569d4e55cb8,2024-02-18_20h12.51.547,kallum_motion_pilot,2023.2.2,Win32,59.88023952,65563952de5c5569d4e55cb8,65d2b6c8f2eece985d8e374c,65d2b8f8b376ecff2523cc21,0.0365,0.0365,0,57,57,129,1,fiveseven,,,,,,,,,,,,,,,,,,,,,,,,,,,,,,,,,,,,,,,,,,,,,,,,,,,,,,,,,,,,,,,,,,,,,,,,,,,,,,,,,,,,,,,,,,,,,,,,,,,,,,,,,,,,,,,,,,,,,,,,,,,,,,,,,,,,,,,,,
,,65563952de5c5569d4e55cb8,2024-02-18_20h12.51.547,kallum_motion_pilot,2023.2.2,Win32,59.88023952,65563952de5c5569d4e55cb8,65d2b6c8f2eece985d8e374c,65d2b8f8b376ecff2523cc21,0.0366,0.0366,0,58,58,46,1,fourtwo,,,,,,,,,,,,,,,,,,,,,,,,,,,,,,,,,,,,,,,,,,,,,,,,,,,,,,,,,,,,,,,,,,,,,,,,,,,,,,,,,,,,,,,,,,,,,,,,,,,,,,,,,,,,,,,,,,,,,,,,,,,,,,,,,,,,,,,,,
,,65563952de5c5569d4e55cb8,2024-02-18_20h12.51.547,kallum_motion_pilot,2023.2.2,Win32,59.88023952,65563952de5c5569d4e55cb8,65d2b6c8f2eece985d8e374c,65d2b8f8b376ecff2523cc21,0.0368,0.0368,0,59,59,90,1,sixfive,,,,,,,,,,,,,,,,,,,,,,,,,,,,,,,,,,,,,,,,,,,,,,,,,,,,,,,,,,,,,,,,,,,,,,,,,,,,,,,,,,,,,,,,,,,,,,,,,,,,,,,,,,,,,,,,,,,,,,,,,,,,,,,,,,,,,,,,,
,,65563952de5c5569d4e55cb8,2024-02-18_20h12.51.547,kallum_motion_pilot,2023.2.2,Win32,59.88023952,65563952de5c5569d4e55cb8,65d2b6c8f2eece985d8e374c,65d2b8f8b376ecff2523cc21,0.0368,0.0369,0,60,60,50,1,twoone,,,,,,,,,,,,,,,,,,,,,,,,,,,,,,,,,,,,,,,,,,,,,,,,,,,,,,,,,,,,,,,,,,,,,,,,,,,,,,,,,,,,,,,,,,,,,,,,,,,,,,,,,,,,,,,,,,,,,,,,,,,,,,,,,,,,,,,,,
,,65563952de5c5569d4e55cb8,2024-02-18_20h12.51.547,kallum_motion_pilot,2023.2.2,Win32,59.88023952,65563952de5c5569d4e55cb8,65d2b6c8f2eece985d8e374c,65d2b8f8b376ecff2523cc21,0.0369,0.037,0,61,61,146,1,sixfive,,,,,,,,,,,,,,,,,,,,,,,,,,,,,,,,,,,,,,,,,,,,,,,,,,,,,,,,,,,,,,,,,,,,,,,,,,,,,,,,,,,,,,,,,,,,,,,,,,,,,,,,,,,,,,,,,,,,,,,,,,,,,,,,,,,,,,,,,
,,65563952de5c5569d4e55cb8,2024-02-18_20h12.51.547,kallum_motion_pilot,2023.2.2,Win32,59.88023952,65563952de5c5569d4e55cb8,65d2b6c8f2eece985d8e374c,65d2b8f8b376ecff2523cc21,0.0371,0.0371,0,62,62,48,1,onetwo,,,,,,,,,,,,,,,,,,,,,,,,,,,,,,,,,,,,,,,,,,,,,,,,,,,,,,,,,,,,,,,,,,,,,,,,,,,,,,,,,,,,,,,,,,,,,,,,,,,,,,,,,,,,,,,,,,,,,,,,,,,,,,,,,,,,,,,,,
,,65563952de5c5569d4e55cb8,2024-02-18_20h12.51.547,kallum_motion_pilot,2023.2.2,Win32,59.88023952,65563952de5c5569d4e55cb8,65d2b6c8f2eece985d8e374c,65d2b8f8b376ecff2523cc21,0.0372,0.0373,0,63,63,36,1,threeone,,,,,,,,,,,,,,,,,,,,,,,,,,,,,,,,,,,,,,,,,,,,,,,,,,,,,,,,,,,,,,,,,,,,,,,,,,,,,,,,,,,,,,,,,,,,,,,,,,,,,,,,,,,,,,,,,,,,,,,,,,,,,,,,,,,,,,,,,
,,65563952de5c5569d4e55cb8,2024-02-18_20h12.51.547,kallum_motion_pilot,2023.2.2,Win32,59.88023952,65563952de5c5569d4e55cb8,65d2b6c8f2eece985d8e374c,65d2b8f8b376ecff2523cc21,0.0373,0.0374,0,64,64,73,1,onethree,,,,,,,,,,,,,,,,,,,,,,,,,,,,,,,,,,,,,,,,,,,,,,,,,,,,,,,,,,,,,,,,,,,,,,,,,,,,,,,,,,,,,,,,,,,,,,,,,,,,,,,,,,,,,,,,,,,,,,,,,,,,,,,,,,,,,,,,,
,,65563952de5c5569d4e55cb8,2024-02-18_20h12.51.547,kallum_motion_pilot,2023.2.2,Win32,59.88023952,65563952de5c5569d4e55cb8,65d2b6c8f2eece985d8e374c,65d2b8f8b376ecff2523cc21,0.0374,0.0375,0,65,65,154,1,sixfive,,,,,,,,,,,,,,,,,,,,,,,,,,,,,,,,,,,,,,,,,,,,,,,,,,,,,,,,,,,,,,,,,,,,,,,,,,,,,,,,,,,,,,,,,,,,,,,,,,,,,,,,,,,,,,,,,,,,,,,,,,,,,,,,,,,,,,,,,
,,65563952de5c5569d4e55cb8,2024-02-18_20h12.51.547,kallum_motion_pilot,2023.2.2,Win32,59.88023952,65563952de5c5569d4e55cb8,65d2b6c8f2eece985d8e374c,65d2b8f8b376ecff2523cc21,0.0375,0.0376,0,66,66,63,1,fourthree,,,,,,,,,,,,,,,,,,,,,,,,,,,,,,,,,,,,,,,,,,,,,,,,,,,,,,,,,,,,,,,,,,,,,,,,,,,,,,,,,,,,,,,,,,,,,,,,,,,,,,,,,,,,,,,,,,,,,,,,,,,,,,,,,,,,,,,,,
,,65563952de5c5569d4e55cb8,2024-02-18_20h12.51.547,kallum_motion_pilot,2023.2.2,Win32,59.88023952,65563952de5c5569d4e55cb8,65d2b6c8f2eece985d8e374c,65d2b8f8b376ecff2523cc21,0.0377,0.0378,0,67,67,121,1,fiveseven,,,,,,,,,,,,,,,,,,,,,,,,,,,,,,,,,,,,,,,,,,,,,,,,,,,,,,,,,,,,,,,,,,,,,,,,,,,,,,,,,,,,,,,,,,,,,,,,,,,,,,,,,,,,,,,,,,,,,,,,,,,,,,,,,,,,,,,,,
,,65563952de5c5569d4e55cb8,2024-02-18_20h12.51.547,kallum_motion_pilot,2023.2.2,Win32,59.88023952,65563952de5c5569d4e55cb8,65d2b6c8f2eece985d8e374c,65d2b8f8b376ecff2523cc21,0.0378,0.0379,0,68,68,100,1,sevenfive,,,,,,,,,,,,,,,,,,,,,,,,,,,,,,,,,,,,,,,,,,,,,,,,,,,,,,,,,,,,,,,,,,,,,,,,,,,,,,,,,,,,,,,,,,,,,,,,,,,,,,,,,,,,,,,,,,,,,,,,,,,,,,,,,,,,,,,,,
,,65563952de5c5569d4e55cb8,2024-02-18_20h12.51.547,kallum_motion_pilot,2023.2.2,Win32,59.88023952,65563952de5c5569d4e55cb8,65d2b6c8f2eece985d8e374c,65d2b8f8b376ecff2523cc21,0.038,0.0381,0,69,69,26,1,twoone,,,,,,,,,,,,,,,,,,,,,,,,,,,,,,,,,,,,,,,,,,,,,,,,,,,,,,,,,,,,,,,,,,,,,,,,,,,,,,,,,,,,,,,,,,,,,,,,,,,,,,,,,,,,,,,,,,,,,,,,,,,,,,,,,,,,,,,,,
,,65563952de5c5569d4e55cb8,2024-02-18_20h12.51.547,kallum_motion_pilot,2023.2.2,Win32,59.88023952,65563952de5c5569d4e55cb8,65d2b6c8f2eece985d8e374c,65d2b8f8b376ecff2523cc21,0.0381,0.0382,0,70,70,98,1,sixfive,,,,,,,,,,,,,,,,,,,,,,,,,,,,,,,,,,,,,,,,,,,,,,,,,,,,,,,,,,,,,,,,,,,,,,,,,,,,,,,,,,,,,,,,,,,,,,,,,,,,,,,,,,,,,,,,,,,,,,,,,,,,,,,,,,,,,,,,,
,,65563952de5c5569d4e55cb8,2024-02-18_20h12.51.547,kallum_motion_pilot,2023.2.2,Win32,59.88023952,65563952de5c5569d4e55cb8,65d2b6c8f2eece985d8e374c,65d2b8f8b376ecff2523cc21,0.0383,0.0384,0,71,71,65,1,onethree,,,,,,,,,,,,,,,,,,,,,,,,,,,,,,,,,,,,,,,,,,,,,,,,,,,,,,,,,,,,,,,,,,,,,,,,,,,,,,,,,,,,,,,,,,,,,,,,,,,,,,,,,,,,,,,,,,,,,,,,,,,,,,,,,,,,,,,,,
,,65563952de5c5569d4e55cb8,2024-02-18_20h12.51.547,kallum_motion_pilot,2023.2.2,Win32,59.88023952,65563952de5c5569d4e55cb8,65d2b6c8f2eece985d8e374c,65d2b8f8b376ecff2523cc21,0.0385,0.0385,0,72,72,158,1,eightsix,,,,,,,,,,,,,,,,,,,,,,,,,,,,,,,,,,,,,,,,,,,,,,,,,,,,,,,,,,,,,,,,,,,,,,,,,,,,,,,,,,,,,,,,,,,,,,,,,,,,,,,,,,,,,,,,,,,,,,,,,,,,,,,,,,,,,,,,,
,,65563952de5c5569d4e55cb8,2024-02-18_20h12.51.547,kallum_motion_pilot,2023.2.2,Win32,59.88023952,65563952de5c5569d4e55cb8,65d2b6c8f2eece985d8e374c,65d2b8f8b376ecff2523cc21,0.0386,0.0386,0,73,73,4,1,threeone,,,,,,,,,,,,,,,,,,,,,,,,,,,,,,,,,,,,,,,,,,,,,,,,,,,,,,,,,,,,,,,,,,,,,,,,,,,,,,,,,,,,,,,,,,,,,,,,,,,,,,,,,,,,,,,,,,,,,,,,,,,,,,,,,,,,,,,,,
,,65563952de5c5569d4e55cb8,2024-02-18_20h12.51.547,kallum_motion_pilot,2023.2.2,Win32,59.88023952,65563952de5c5569d4e55cb8,65d2b6c8f2eece985d8e374c,65d2b8f8b376ecff2523cc21,0.0387,0.0388,0,74,74,113,1,fiveseven,,,,,,,,,,,,,,,,,,,,,,,,,,,,,,,,,,,,,,,,,,,,,,,,,,,,,,,,,,,,,,,,,,,,,,,,,,,,,,,,,,,,,,,,,,,,,,,,,,,,,,,,,,,,,,,,,,,,,,,,,,,,,,,,,,,,,,,,,
,,65563952de5c5569d4e55cb8,2024-02-18_20h12.51.547,kallum_motion_pilot,2023.2.2,Win32,59.88023952,65563952de5c5569d4e55cb8,65d2b6c8f2eece985d8e374c,65d2b8f8b376ecff2523cc21,0.0388,0.0388,0,75,75,25,1,onethree,,,,,,,,,,,,,,,,,,,,,,,,,,,,,,,,,,,,,,,,,,,,,,,,,,,,,,,,,,,,,,,,,,,,,,,,,,,,,,,,,,,,,,,,,,,,,,,,,,,,,,,,,,,,,,,,,,,,,,,,,,,,,,,,,,,,,,,,,
,,65563952de5c5569d4e55cb8,2024-02-18_20h12.51.547,kallum_motion_pilot,2023.2.2,Win32,59.88023952,65563952de5c5569d4e55cb8,65d2b6c8f2eece985d8e374c,65d2b8f8b376ecff2523cc21,0.0389,0.0389,0,76,76,106,1,sixfive,,,,,,,,,,,,,,,,,,,,,,,,,,,,,,,,,,,,,,,,,,,,,,,,,,,,,,,,,,,,,,,,,,,,,,,,,,,,,,,,,,,,,,,,,,,,,,,,,,,,,,,,,,,,,,,,,,,,,,,,,,,,,,,,,,,,,,,,,
,,65563952de5c5569d4e55cb8,2024-02-18_20h12.51.547,kallum_motion_pilot,2023.2.2,Win32,59.88023952,65563952de5c5569d4e55cb8,65d2b6c8f2eece985d8e374c,65d2b8f8b376ecff2523cc21,0.039,0.0391,0,77,77,12,1,threeone,,,,,,,,,,,,,,,,,,,,,,,,,,,,,,,,,,,,,,,,,,,,,,,,,,,,,,,,,,,,,,,,,,,,,,,,,,,,,,,,,,,,,,,,,,,,,,,,,,,,,,,,,,,,,,,,,,,,,,,,,,,,,,,,,,,,,,,,,
,,65563952de5c5569d4e55cb8,2024-02-18_20h12.51.547,kallum_motion_pilot,2023.2.2,Win32,59.88023952,65563952de5c5569d4e55cb8,65d2b6c8f2eece985d8e374c,65d2b8f8b376ecff2523cc21,0.0392,0.0393,0,78,78,105,1,fiveseven,,,,,,,,,,,,,,,,,,,,,,,,,,,,,,,,,,,,,,,,,,,,,,,,,,,,,,,,,,,,,,,,,,,,,,,,,,,,,,,,,,,,,,,,,,,,,,,,,,,,,,,,,,,,,,,,,,,,,,,,,,,,,,,,,,,,,,,,,
,,65563952de5c5569d4e55cb8,2024-02-18_20h12.51.547,kallum_motion_pilot,2023.2.2,Win32,59.88023952,65563952de5c5569d4e55cb8,65d2b6c8f2eece985d8e374c,65d2b8f8b376ecff2523cc21,0.0393,0.0393,0,79,79,151,1,eightseven,,,,,,,,,,,,,,,,,,,,,,,,,,,,,,,,,,,,,,,,,,,,,,,,,,,,,,,,,,,,,,,,,,,,,,,,,,,,,,,,,,,,,,,,,,,,,,,,,,,,,,,,,,,,,,,,,,,,,,,,,,,,,,,,,,,,,,,,,
,,65563952de5c5569d4e55cb8,2024-02-18_20h12.51.547,kallum_motion_pilot,2023.2.2,Win32,59.88023952,65563952de5c5569d4e55cb8,65d2b6c8f2eece985d8e374c,65d2b8f8b376ecff2523cc21,0.0394,0.0395,0,80,80,156,1,sevenfive,,,,,,,,,,,,,,,,,,,,,,,,,,,,,,,,,,,,,,,,,,,,,,,,,,,,,,,,,,,,,,,,,,,,,,,,,,,,,,,,,,,,,,,,,,,,,,,,,,,,,,,,,,,,,,,,,,,,,,,,,,,,,,,,,,,,,,,,,
,,65563952de5c5569d4e55cb8,2024-02-18_20h12.51.547,kallum_motion_pilot,2023.2.2,Win32,59.88023952,65563952de5c5569d4e55cb8,65d2b6c8f2eece985d8e374c,65d2b8f8b376ecff2523cc21,0.0395,0.0396,0,81,81,37,1,threefour,,,,,,,,,,,,,,,,,,,,,,,,,,,,,,,,,,,,,,,,,,,,,,,,,,,,,,,,,,,,,,,,,,,,,,,,,,,,,,,,,,,,,,,,,,,,,,,,,,,,,,,,,,,,,,,,,,,,,,,,,,,,,,,,,,,,,,,,,
,,65563952de5c5569d4e55cb8,2024-02-18_20h12.51.547,kallum_motion_pilot,2023.2.2,Win32,59.88023952,65563952de5c5569d4e55cb8,65d2b6c8f2eece985d8e374c,65d2b8f8b376ecff2523cc21,0.0397,0.0398,0,82,82,72,1,onetwo,,,,,,,,,,,,,,,,,,,,,,,,,,,,,,,,,,,,,,,,,,,,,,,,,,,,,,,,,,,,,,,,,,,,,,,,,,,,,,,,,,,,,,,,,,,,,,,,,,,,,,,,,,,,,,,,,,,,,,,,,,,,,,,,,,,,,,,,,
,,65563952de5c5569d4e55cb8,2024-02-18_20h12.51.547,kallum_motion_pilot,2023.2.2,Win32,59.88023952,65563952de5c5569d4e55cb8,65d2b6c8f2eece985d8e374c,65d2b8f8b376ecff2523cc21,0.0398,0.0398,0,83,83,95,1,eightseven,,,,,,,,,,,,,,,,,,,,,,,,,,,,,,,,,,,,,,,,,,,,,,,,,,,,,,,,,,,,,,,,,,,,,,,,,,,,,,,,,,,,,,,,,,,,,,,,,,,,,,,,,,,,,,,,,,,,,,,,,,,,,,,,,,,,,,,,,
,,65563952de5c5569d4e55cb8,2024-02-18_20h12.51.547,kallum_motion_pilot,2023.2.2,Win32,59.88023952,65563952de5c5569d4e55cb8,65d2b6c8f2eece985d8e374c,65d2b8f8b376ecff2523cc21,0.0399,0.04,0,84,84,101,1,seveneight,,,,,,,,,,,,,,,,,,,,,,,,,,,,,,,,,,,,,,,,,,,,,,,,,,,,,,,,,,,,,,,,,,,,,,,,,,,,,,,,,,,,,,,,,,,,,,,,,,,,,,,,,,,,,,,,,,,,,,,,,,,,,,,,,,,,,,,,,
,,65563952de5c5569d4e55cb8,2024-02-18_20h12.51.547,kallum_motion_pilot,2023.2.2,Win32,59.88023952,65563952de5c5569d4e55cb8,65d2b6c8f2eece985d8e374c,65d2b8f8b376ecff2523cc21,0.0401,0.0402,0,85,85,22,1,fourtwo,,,,,,,,,,,,,,,,,,,,,,,,,,,,,,,,,,,,,,,,,,,,,,,,,,,,,,,,,,,,,,,,,,,,,,,,,,,,,,,,,,,,,,,,,,,,,,,,,,,,,,,,,,,,,,,,,,,,,,,,,,,,,,,,,,,,,,,,,
,,65563952de5c5569d4e55cb8,2024-02-18_20h12.51.547,kallum_motion_pilot,2023.2.2,Win32,59.88023952,65563952de5c5569d4e55cb8,65d2b6c8f2eece985d8e374c,65d2b8f8b376ecff2523cc21,0.0402,0.0402,0,86,86,148,1,sevenfive,,,,,,,,,,,,,,,,,,,,,,,,,,,,,,,,,,,,,,,,,,,,,,,,,,,,,,,,,,,,,,,,,,,,,,,,,,,,,,,,,,,,,,,,,,,,,,,,,,,,,,,,,,,,,,,,,,,,,,,,,,,,,,,,,,,,,,,,,
,,65563952de5c5569d4e55cb8,2024-02-18_20h12.51.547,kallum_motion_pilot,2023.2.2,Win32,59.88023952,65563952de5c5569d4e55cb8,65d2b6c8f2eece985d8e374c,65d2b8f8b376ecff2523cc21,0.0404,0.0405,0,87,87,103,1,eightseven,,,,,,,,,,,,,,,,,,,,,,,,,,,,,,,,,,,,,,,,,,,,,,,,,,,,,,,,,,,,,,,,,,,,,,,,,,,,,,,,,,,,,,,,,,,,,,,,,,,,,,,,,,,,,,,,,,,,,,,,,,,,,,,,,,,,,,,,,
,,65563952de5c5569d4e55cb8,2024-02-18_20h12.51.547,kallum_motion_pilot,2023.2.2,Win32,59.88023952,65563952de5c5569d4e55cb8,65d2b6c8f2eece985d8e374c,65d2b8f8b376ecff2523cc21,0.0405,0.0405,0,88,88,137,1,fiveseven,,,,,,,,,,,,,,,,,,,,,,,,,,,,,,,,,,,,,,,,,,,,,,,,,,,,,,,,,,,,,,,,,,,,,,,,,,,,,,,,,,,,,,,,,,,,,,,,,,,,,,,,,,,,,,,,,,,,,,,,,,,,,,,,,,,,,,,,,
,,65563952de5c5569d4e55cb8,2024-02-18_20h12.51.547,kallum_motion_pilot,2023.2.2,Win32,59.88023952,65563952de5c5569d4e55cb8,65d2b6c8f2eece985d8e374c,65d2b8f8b376ecff2523cc21,0.0407,0.0407,0,89,89,56,1,onetwo,,,,,,,,,,,,,,,,,,,,,,,,,,,,,,,,,,,,,,,,,,,,,,,,,,,,,,,,,,,,,,,,,,,,,,,,,,,,,,,,,,,,,,,,,,,,,,,,,,,,,,,,,,,,,,,,,,,,,,,,,,,,,,,,,,,,,,,,,
,,65563952de5c5569d4e55cb8,2024-02-18_20h12.51.547,kallum_motion_pilot,2023.2.2,Win32,59.88023952,65563952de5c5569d4e55cb8,65d2b6c8f2eece985d8e374c,65d2b8f8b376ecff2523cc21,0.0408,0.0419,0,90,90,10,1,twoone,,,,,,,,,,,,,,,,,,,,,,,,,,,,,,,,,,,,,,,,,,,,,,,,,,,,,,,,,,,,,,,,,,,,,,,,,,,,,,,,,,,,,,,,,,,,,,,,,,,,,,,,,,,,,,,,,,,,,,,,,,,,,,,,,,,,,,,,,
,,65563952de5c5569d4e55cb8,2024-02-18_20h12.51.547,kallum_motion_pilot,2023.2.2,Win32,59.88023952,65563952de5c5569d4e55cb8,65d2b6c8f2eece985d8e374c,65d2b8f8b376ecff2523cc21,0.0422,0.0422,0,91,91,141,1,seveneight,,,,,,,,,,,,,,,,,,,,,,,,,,,,,,,,,,,,,,,,,,,,,,,,,,,,,,,,,,,,,,,,,,,,,,,,,,,,,,,,,,,,,,,,,,,,,,,,,,,,,,,,,,,,,,,,,,,,,,,,,,,,,,,,,,,,,,,,,
,,65563952de5c5569d4e55cb8,2024-02-18_20h12.51.547,kallum_motion_pilot,2023.2.2,Win32,59.88023952,65563952de5c5569d4e55cb8,65d2b6c8f2eece985d8e374c,65d2b8f8b376ecff2523cc21,0.0424,0.0424,0,92,92,31,1,fourthree,,,,,,,,,,,,,,,,,,,,,,,,,,,,,,,,,,,,,,,,,,,,,,,,,,,,,,,,,,,,,,,,,,,,,,,,,,,,,,,,,,,,,,,,,,,,,,,,,,,,,,,,,,,,,,,,,,,,,,,,,,,,,,,,,,,,,,,,,
,,65563952de5c5569d4e55cb8,2024-02-18_20h12.51.547,kallum_motion_pilot,2023.2.2,Win32,59.88023952,65563952de5c5569d4e55cb8,65d2b6c8f2eece985d8e374c,65d2b8f8b376ecff2523cc21,0.0425,0.0426,0,93,93,124,1,sevenfive,,,,,,,,,,,,,,,,,,,,,,,,,,,,,,,,,,,,,,,,,,,,,,,,,,,,,,,,,,,,,,,,,,,,,,,,,,,,,,,,,,,,,,,,,,,,,,,,,,,,,,,,,,,,,,,,,,,,,,,,,,,,,,,,,,,,,,,,,
,,65563952de5c5569d4e55cb8,2024-02-18_20h12.51.547,kallum_motion_pilot,2023.2.2,Win32,59.88023952,65563952de5c5569d4e55cb8,65d2b6c8f2eece985d8e374c,65d2b8f8b376ecff2523cc21,0.0427,0.0427,0,94,94,33,1,onethree,,,,,,,,,,,,,,,,,,,,,,,,,,,,,,,,,,,,,,,,,,,,,,,,,,,,,,,,,,,,,,,,,,,,,,,,,,,,,,,,,,,,,,,,,,,,,,,,,,,,,,,,,,,,,,,,,,,,,,,,,,,,,,,,,,,,,,,,,
,,65563952de5c5569d4e55cb8,2024-02-18_20h12.51.547,kallum_motion_pilot,2023.2.2,Win32,59.88023952,65563952de5c5569d4e55cb8,65d2b6c8f2eece985d8e374c,65d2b8f8b376ecff2523cc21,0.0427,0.0428,0,95,95,145,1,fiveseven,,,,,,,,,,,,,,,,,,,,,,,,,,,,,,,,,,,,,,,,,,,,,,,,,,,,,,,,,,,,,,,,,,,,,,,,,,,,,,,,,,,,,,,,,,,,,,,,,,,,,,,,,,,,,,,,,,,,,,,,,,,,,,,,,,,,,,,,,
,,65563952de5c5569d4e55cb8,2024-02-18_20h12.51.547,kallum_motion_pilot,2023.2.2,Win32,59.88023952,65563952de5c5569d4e55cb8,65d2b6c8f2eece985d8e374c,65d2b8f8b376ecff2523cc21,0.0429,0.0429,0,96,96,138,1,sixfive,,,,,,,,,,,,,,,,,,,,,,,,,,,,,,,,,,,,,,,,,,,,,,,,,,,,,,,,,,,,,,,,,,,,,,,,,,,,,,,,,,,,,,,,,,,,,,,,,,,,,,,,,,,,,,,,,,,,,,,,,,,,,,,,,,,,,,,,,
,,65563952de5c5569d4e55cb8,2024-02-18_20h12.51.547,kallum_motion_pilot,2023.2.2,Win32,59.88023952,65563952de5c5569d4e55cb8,65d2b6c8f2eece985d8e374c,65d2b8f8b376ecff2523cc21,0.043,0.043,0,97,97,13,1,threefour,,,,,,,,,,,,,,,,,,,,,,,,,,,,,,,,,,,,,,,,,,,,,,,,,,,,,,,,,,,,,,,,,,,,,,,,,,,,,,,,,,,,,,,,,,,,,,,,,,,,,,,,,,,,,,,,,,,,,,,,,,,,,,,,,,,,,,,,,
,,65563952de5c5569d4e55cb8,2024-02-18_20h12.51.547,kallum_motion_pilot,2023.2.2,Win32,59.88023952,65563952de5c5569d4e55cb8,65d2b6c8f2eece985d8e374c,65d2b8f8b376ecff2523cc21,0.0431,0.0431,0,98,98,88,1,fivesix,,,,,,,,,,,,,,,,,,,,,,,,,,,,,,,,,,,,,,,,,,,,,,,,,,,,,,,,,,,,,,,,,,,,,,,,,,,,,,,,,,,,,,,,,,,,,,,,,,,,,,,,,,,,,,,,,,,,,,,,,,,,,,,,,,,,,,,,,
,,65563952de5c5569d4e55cb8,2024-02-18_20h12.51.547,kallum_motion_pilot,2023.2.2,Win32,59.88023952,65563952de5c5569d4e55cb8,65d2b6c8f2eece985d8e374c,65d2b8f8b376ecff2523cc21,0.0433,0.0433,0,99,99,23,1,fourthree,,,,,,,,,,,,,,,,,,,,,,,,,,,,,,,,,,,,,,,,,,,,,,,,,,,,,,,,,,,,,,,,,,,,,,,,,,,,,,,,,,,,,,,,,,,,,,,,,,,,,,,,,,,,,,,,,,,,,,,,,,,,,,,,,,,,,,,,,
,,65563952de5c5569d4e55cb8,2024-02-18_20h12.51.547,kallum_motion_pilot,2023.2.2,Win32,59.88023952,65563952de5c5569d4e55cb8,65d2b6c8f2eece985d8e374c,65d2b8f8b376ecff2523cc21,0.0434,0.0434,0,100,100,61,1,threefour,,,,,,,,,,,,,,,,,,,,,,,,,,,,,,,,,,,,,,,,,,,,,,,,,,,,,,,,,,,,,,,,,,,,,,,,,,,,,,,,,,,,,,,,,,,,,,,,,,,,,,,,,,,,,,,,,,,,,,,,,,,,,,,,,,,,,,,,,
,,65563952de5c5569d4e55cb8,2024-02-18_20h12.51.547,kallum_motion_pilot,2023.2.2,Win32,59.88023952,65563952de5c5569d4e55cb8,65d2b6c8f2eece985d8e374c,65d2b8f8b376ecff2523cc21,0.0435,0.0435,0,101,101,87,1,eightseven,,,,,,,,,,,,,,,,,,,,,,,,,,,,,,,,,,,,,,,,,,,,,,,,,,,,,,,,,,,,,,,,,,,,,,,,,,,,,,,,,,,,,,,,,,,,,,,,,,,,,,,,,,,,,,,,,,,,,,,,,,,,,,,,,,,,,,,,,
,,65563952de5c5569d4e55cb8,2024-02-18_20h12.51.547,kallum_motion_pilot,2023.2.2,Win32,59.88023952,65563952de5c5569d4e55cb8,65d2b6c8f2eece985d8e374c,65d2b8f8b376ecff2523cc21,0.0437,0.0438,0,102,102,21,1,threefour,,,,,,,,,,,,,,,,,,,,,,,,,,,,,,,,,,,,,,,,,,,,,,,,,,,,,,,,,,,,,,,,,,,,,,,,,,,,,,,,,,,,,,,,,,,,,,,,,,,,,,,,,,,,,,,,,,,,,,,,,,,,,,,,,,,,,,,,,
,,65563952de5c5569d4e55cb8,2024-02-18_20h12.51.547,kallum_motion_pilot,2023.2.2,Win32,59.88023952,65563952de5c5569d4e55cb8,65d2b6c8f2eece985d8e374c,65d2b8f8b376ecff2523cc21,0.0439,0.044,0,103,103,34,1,twoone,,,,,,,,,,,,,,,,,,,,,,,,,,,,,,,,,,,,,,,,,,,,,,,,,,,,,,,,,,,,,,,,,,,,,,,,,,,,,,,,,,,,,,,,,,,,,,,,,,,,,,,,,,,,,,,,,,,,,,,,,,,,,,,,,,,,,,,,,
,,65563952de5c5569d4e55cb8,2024-02-18_20h12.51.547,kallum_motion_pilot,2023.2.2,Win32,59.88023952,65563952de5c5569d4e55cb8,65d2b6c8f2eece985d8e374c,65d2b8f8b376ecff2523cc21,0.0442,0.0442,0,104,104,120,1,fivesix,,,,,,,,,,,,,,,,,,,,,,,,,,,,,,,,,,,,,,,,,,,,,,,,,,,,,,,,,,,,,,,,,,,,,,,,,,,,,,,,,,,,,,,,,,,,,,,,,,,,,,,,,,,,,,,,,,,,,,,,,,,,,,,,,,,,,,,,,
,,65563952de5c5569d4e55cb8,2024-02-18_20h12.51.547,kallum_motion_pilot,2023.2.2,Win32,59.88023952,65563952de5c5569d4e55cb8,65d2b6c8f2eece985d8e374c,65d2b8f8b376ecff2523cc21,0.0442,0.0444,0,105,105,104,1,fivesix,,,,,,,,,,,,,,,,,,,,,,,,,,,,,,,,,,,,,,,,,,,,,,,,,,,,,,,,,,,,,,,,,,,,,,,,,,,,,,,,,,,,,,,,,,,,,,,,,,,,,,,,,,,,,,,,,,,,,,,,,,,,,,,,,,,,,,,,,
,,65563952de5c5569d4e55cb8,2024-02-18_20h12.51.547,kallum_motion_pilot,2023.2.2,Win32,59.88023952,65563952de5c5569d4e55cb8,65d2b6c8f2eece985d8e374c,65d2b8f8b376ecff2523cc21,0.0445,0.0446,0,106,106,24,1,onetwo,,,,,,,,,,,,,,,,,,,,,,,,,,,,,,,,,,,,,,,,,,,,,,,,,,,,,,,,,,,,,,,,,,,,,,,,,,,,,,,,,,,,,,,,,,,,,,,,,,,,,,,,,,,,,,,,,,,,,,,,,,,,,,,,,,,,,,,,,
,,65563952de5c5569d4e55cb8,2024-02-18_20h12.51.547,kallum_motion_pilot,2023.2.2,Win32,59.88023952,65563952de5c5569d4e55cb8,65d2b6c8f2eece985d8e374c,65d2b8f8b376ecff2523cc21,0.0446,0.0448,0,107,107,52,1,threeone,,,,,,,,,,,,,,,,,,,,,,,,,,,,,,,,,,,,,,,,,,,,,,,,,,,,,,,,,,,,,,,,,,,,,,,,,,,,,,,,,,,,,,,,,,,,,,,,,,,,,,,,,,,,,,,,,,,,,,,,,,,,,,,,,,,,,,,,,
,,65563952de5c5569d4e55cb8,2024-02-18_20h12.51.547,kallum_motion_pilot,2023.2.2,Win32,59.88023952,65563952de5c5569d4e55cb8,65d2b6c8f2eece985d8e374c,65d2b8f8b376ecff2523cc21,0.0448,0.0449,0,108,108,14,1,fourtwo,,,,,,,,,,,,,,,,,,,,,,,,,,,,,,,,,,,,,,,,,,,,,,,,,,,,,,,,,,,,,,,,,,,,,,,,,,,,,,,,,,,,,,,,,,,,,,,,,,,,,,,,,,,,,,,,,,,,,,,,,,,,,,,,,,,,,,,,,
,,65563952de5c5569d4e55cb8,2024-02-18_20h12.51.547,kallum_motion_pilot,2023.2.2,Win32,59.88023952,65563952de5c5569d4e55cb8,65d2b6c8f2eece985d8e374c,65d2b8f8b376ecff2523cc21,0.0449,0.045,0,109,109,75,1,twofour,,,,,,,,,,,,,,,,,,,,,,,,,,,,,,,,,,,,,,,,,,,,,,,,,,,,,,,,,,,,,,,,,,,,,,,,,,,,,,,,,,,,,,,,,,,,,,,,,,,,,,,,,,,,,,,,,,,,,,,,,,,,,,,,,,,,,,,,,
,,65563952de5c5569d4e55cb8,2024-02-18_20h12.51.547,kallum_motion_pilot,2023.2.2,Win32,59.88023952,65563952de5c5569d4e55cb8,65d2b6c8f2eece985d8e374c,65d2b8f8b376ecff2523cc21,0.0451,0.0452,0,110,110,81,1,fiveseven,,,,,,,,,,,,,,,,,,,,,,,,,,,,,,,,,,,,,,,,,,,,,,,,,,,,,,,,,,,,,,,,,,,,,,,,,,,,,,,,,,,,,,,,,,,,,,,,,,,,,,,,,,,,,,,,,,,,,,,,,,,,,,,,,,,,,,,,,
,,65563952de5c5569d4e55cb8,2024-02-18_20h12.51.547,kallum_motion_pilot,2023.2.2,Win32,59.88023952,65563952de5c5569d4e55cb8,65d2b6c8f2eece985d8e374c,65d2b8f8b376ecff2523cc21,0.0452,0.0453,0,111,111,43,1,twofour,,,,,,,,,,,,,,,,,,,,,,,,,,,,,,,,,,,,,,,,,,,,,,,,,,,,,,,,,,,,,,,,,,,,,,,,,,,,,,,,,,,,,,,,,,,,,,,,,,,,,,,,,,,,,,,,,,,,,,,,,,,,,,,,,,,,,,,,,
,,65563952de5c5569d4e55cb8,2024-02-18_20h12.51.547,kallum_motion_pilot,2023.2.2,Win32,59.88023952,65563952de5c5569d4e55cb8,65d2b6c8f2eece985d8e374c,65d2b8f8b376ecff2523cc21,0.0453,0.0454,0,112,112,144,1,fivesix,,,,,,,,,,,,,,,,,,,,,,,,,,,,,,,,,,,,,,,,,,,,,,,,,,,,,,,,,,,,,,,,,,,,,,,,,,,,,,,,,,,,,,,,,,,,,,,,,,,,,,,,,,,,,,,,,,,,,,,,,,,,,,,,,,,,,,,,,
,,65563952de5c5569d4e55cb8,2024-02-18_20h12.51.547,kallum_motion_pilot,2023.2.2,Win32,59.88023952,65563952de5c5569d4e55cb8,65d2b6c8f2eece985d8e374c,65d2b8f8b376ecff2523cc21,0.0458,0.0459,0,113,113,71,1,fourthree,,,,,,,,,,,,,,,,,,,,,,,,,,,,,,,,,,,,,,,,,,,,,,,,,,,,,,,,,,,,,,,,,,,,,,,,,,,,,,,,,,,,,,,,,,,,,,,,,,,,,,,,,,,,,,,,,,,,,,,,,,,,,,,,,,,,,,,,,
,,65563952de5c5569d4e55cb8,2024-02-18_20h12.51.547,kallum_motion_pilot,2023.2.2,Win32,59.88023952,65563952de5c5569d4e55cb8,65d2b6c8f2eece985d8e374c,65d2b8f8b376ecff2523cc21,0.046,0.046,0,114,114,108,1,sevenfive,,,,,,,,,,,,,,,,,,,,,,,,,,,,,,,,,,,,,,,,,,,,,,,,,,,,,,,,,,,,,,,,,,,,,,,,,,,,,,,,,,,,,,,,,,,,,,,,,,,,,,,,,,,,,,,,,,,,,,,,,,,,,,,,,,,,,,,,,
,,65563952de5c5569d4e55cb8,2024-02-18_20h12.51.547,kallum_motion_pilot,2023.2.2,Win32,59.88023952,65563952de5c5569d4e55cb8,65d2b6c8f2eece985d8e374c,65d2b8f8b376ecff2523cc21,0.0461,0.0461,0,115,115,107,1,sixeight,,,,,,,,,,,,,,,,,,,,,,,,,,,,,,,,,,,,,,,,,,,,,,,,,,,,,,,,,,,,,,,,,,,,,,,,,,,,,,,,,,,,,,,,,,,,,,,,,,,,,,,,,,,,,,,,,,,,,,,,,,,,,,,,,,,,,,,,,
,,65563952de5c5569d4e55cb8,2024-02-18_20h12.51.547,kallum_motion_pilot,2023.2.2,Win32,59.88023952,65563952de5c5569d4e55cb8,65d2b6c8f2eece985d8e374c,65d2b8f8b376ecff2523cc21,0.0462,0.0463,0,116,116,83,1,sixeight,,,,,,,,,,,,,,,,,,,,,,,,,,,,,,,,,,,,,,,,,,,,,,,,,,,,,,,,,,,,,,,,,,,,,,,,,,,,,,,,,,,,,,,,,,,,,,,,,,,,,,,,,,,,,,,,,,,,,,,,,,,,,,,,,,,,,,,,,
,,65563952de5c5569d4e55cb8,2024-02-18_20h12.51.547,kallum_motion_pilot,2023.2.2,Win32,59.88023952,65563952de5c5569d4e55cb8,65d2b6c8f2eece985d8e374c,65d2b8f8b376ecff2523cc21,0.0464,0.0464,0,117,117,134,1,eightsix,,,,,,,,,,,,,,,,,,,,,,,,,,,,,,,,,,,,,,,,,,,,,,,,,,,,,,,,,,,,,,,,,,,,,,,,,,,,,,,,,,,,,,,,,,,,,,,,,,,,,,,,,,,,,,,,,,,,,,,,,,,,,,,,,,,,,,,,,
,,65563952de5c5569d4e55cb8,2024-02-18_20h12.51.547,kallum_motion_pilot,2023.2.2,Win32,59.88023952,65563952de5c5569d4e55cb8,65d2b6c8f2eece985d8e374c,65d2b8f8b376ecff2523cc21,0.0465,0.0465,0,118,118,38,1,fourtwo,,,,,,,,,,,,,,,,,,,,,,,,,,,,,,,,,,,,,,,,,,,,,,,,,,,,,,,,,,,,,,,,,,,,,,,,,,,,,,,,,,,,,,,,,,,,,,,,,,,,,,,,,,,,,,,,,,,,,,,,,,,,,,,,,,,,,,,,,
,,65563952de5c5569d4e55cb8,2024-02-18_20h12.51.547,kallum_motion_pilot,2023.2.2,Win32,59.88023952,65563952de5c5569d4e55cb8,65d2b6c8f2eece985d8e374c,65d2b8f8b376ecff2523cc21,0.0466,0.0466,0,119,119,5,1,threefour,,,,,,,,,,,,,,,,,,,,,,,,,,,,,,,,,,,,,,,,,,,,,,,,,,,,,,,,,,,,,,,,,,,,,,,,,,,,,,,,,,,,,,,,,,,,,,,,,,,,,,,,,,,,,,,,,,,,,,,,,,,,,,,,,,,,,,,,,
,,65563952de5c5569d4e55cb8,2024-02-18_20h12.51.547,kallum_motion_pilot,2023.2.2,Win32,59.88023952,65563952de5c5569d4e55cb8,65d2b6c8f2eece985d8e374c,65d2b8f8b376ecff2523cc21,0.0467,0.0468,0,120,120,110,1,eightsix,,,,,,,,,,,,,,,,,,,,,,,,,,,,,,,,,,,,,,,,,,,,,,,,,,,,,,,,,,,,,,,,,,,,,,,,,,,,,,,,,,,,,,,,,,,,,,,,,,,,,,,,,,,,,,,,,,,,,,,,,,,,,,,,,,,,,,,,,
,,65563952de5c5569d4e55cb8,2024-02-18_20h12.51.547,kallum_motion_pilot,2023.2.2,Win32,59.88023952,65563952de5c5569d4e55cb8,65d2b6c8f2eece985d8e374c,65d2b8f8b376ecff2523cc21,0.0469,0.047,0,121,121,41,1,onethree,,,,,,,,,,,,,,,,,,,,,,,,,,,,,,,,,,,,,,,,,,,,,,,,,,,,,,,,,,,,,,,,,,,,,,,,,,,,,,,,,,,,,,,,,,,,,,,,,,,,,,,,,,,,,,,,,,,,,,,,,,,,,,,,,,,,,,,,,
,,65563952de5c5569d4e55cb8,2024-02-18_20h12.51.547,kallum_motion_pilot,2023.2.2,Win32,59.88023952,65563952de5c5569d4e55cb8,65d2b6c8f2eece985d8e374c,65d2b8f8b376ecff2523cc21,0.047,0.0471,0,122,122,149,1,seveneight,,,,,,,,,,,,,,,,,,,,,,,,,,,,,,,,,,,,,,,,,,,,,,,,,,,,,,,,,,,,,,,,,,,,,,,,,,,,,,,,,,,,,,,,,,,,,,,,,,,,,,,,,,,,,,,,,,,,,,,,,,,,,,,,,,,,,,,,,
,,65563952de5c5569d4e55cb8,2024-02-18_20h12.51.547,kallum_motion_pilot,2023.2.2,Win32,59.88023952,65563952de5c5569d4e55cb8,65d2b6c8f2eece985d8e374c,65d2b8f8b376ecff2523cc21,0.0471,0.0472,0,123,123,89,1,fiveseven,,,,,,,,,,,,,,,,,,,,,,,,,,,,,,,,,,,,,,,,,,,,,,,,,,,,,,,,,,,,,,,,,,,,,,,,,,,,,,,,,,,,,,,,,,,,,,,,,,,,,,,,,,,,,,,,,,,,,,,,,,,,,,,,,,,,,,,,,
,,65563952de5c5569d4e55cb8,2024-02-18_20h12.51.547,kallum_motion_pilot,2023.2.2,Win32,59.88023952,65563952de5c5569d4e55cb8,65d2b6c8f2eece985d8e374c,65d2b8f8b376ecff2523cc21,0.0473,0.0474,0,124,124,152,1,fivesix,,,,,,,,,,,,,,,,,,,,,,,,,,,,,,,,,,,,,,,,,,,,,,,,,,,,,,,,,,,,,,,,,,,,,,,,,,,,,,,,,,,,,,,,,,,,,,,,,,,,,,,,,,,,,,,,,,,,,,,,,,,,,,,,,,,,,,,,,
,,65563952de5c5569d4e55cb8,2024-02-18_20h12.51.547,kallum_motion_pilot,2023.2.2,Win32,59.88023952,65563952de5c5569d4e55cb8,65d2b6c8f2eece985d8e374c,65d2b8f8b376ecff2523cc21,0.0474,0.0475,0,125,125,147,1,sixeight,,,,,,,,,,,,,,,,,,,,,,,,,,,,,,,,,,,,,,,,,,,,,,,,,,,,,,,,,,,,,,,,,,,,,,,,,,,,,,,,,,,,,,,,,,,,,,,,,,,,,,,,,,,,,,,,,,,,,,,,,,,,,,,,,,,,,,,,,
,,65563952de5c5569d4e55cb8,2024-02-18_20h12.51.547,kallum_motion_pilot,2023.2.2,Win32,59.88023952,65563952de5c5569d4e55cb8,65d2b6c8f2eece985d8e374c,65d2b8f8b376ecff2523cc21,0.0476,0.0476,0,126,126,15,1,fourthree,,,,,,,,,,,,,,,,,,,,,,,,,,,,,,,,,,,,,,,,,,,,,,,,,,,,,,,,,,,,,,,,,,,,,,,,,,,,,,,,,,,,,,,,,,,,,,,,,,,,,,,,,,,,,,,,,,,,,,,,,,,,,,,,,,,,,,,,,
,,65563952de5c5569d4e55cb8,2024-02-18_20h12.51.547,kallum_motion_pilot,2023.2.2,Win32,59.88023952,65563952de5c5569d4e55cb8,65d2b6c8f2eece985d8e374c,65d2b8f8b376ecff2523cc21,0.0477,0.0478,0,127,127,128,1,fivesix,,,,,,,,,,,,,,,,,,,,,,,,,,,,,,,,,,,,,,,,,,,,,,,,,,,,,,,,,,,,,,,,,,,,,,,,,,,,,,,,,,,,,,,,,,,,,,,,,,,,,,,,,,,,,,,,,,,,,,,,,,,,,,,,,,,,,,,,,
,,65563952de5c5569d4e55cb8,2024-02-18_20h12.51.547,kallum_motion_pilot,2023.2.2,Win32,59.88023952,65563952de5c5569d4e55cb8,65d2b6c8f2eece985d8e374c,65d2b8f8b376ecff2523cc21,0.0479,0.0479,0,128,128,17,1,onethree,,,,,,,,,,,,,,,,,,,,,,,,,,,,,,,,,,,,,,,,,,,,,,,,,,,,,,,,,,,,,,,,,,,,,,,,,,,,,,,,,,,,,,,,,,,,,,,,,,,,,,,,,,,,,,,,,,,,,,,,,,,,,,,,,,,,,,,,,
,,65563952de5c5569d4e55cb8,2024-02-18_20h12.51.547,kallum_motion_pilot,2023.2.2,Win32,59.88023952,65563952de5c5569d4e55cb8,65d2b6c8f2eece985d8e374c,65d2b8f8b376ecff2523cc21,0.048,0.048,0,129,129,76,1,threeone,,,,,,,,,,,,,,,,,,,,,,,,,,,,,,,,,,,,,,,,,,,,,,,,,,,,,,,,,,,,,,,,,,,,,,,,,,,,,,,,,,,,,,,,,,,,,,,,,,,,,,,,,,,,,,,,,,,,,,,,,,,,,,,,,,,,,,,,,
,,65563952de5c5569d4e55cb8,2024-02-18_20h12.51.547,kallum_motion_pilot,2023.2.2,Win32,59.88023952,65563952de5c5569d4e55cb8,65d2b6c8f2eece985d8e374c,65d2b8f8b376ecff2523cc21,0.0481,0.0483,0,130,130,53,1,threefour,,,,,,,,,,,,,,,,,,,,,,,,,,,,,,,,,,,,,,,,,,,,,,,,,,,,,,,,,,,,,,,,,,,,,,,,,,,,,,,,,,,,,,,,,,,,,,,,,,,,,,,,,,,,,,,,,,,,,,,,,,,,,,,,,,,,,,,,,
,,65563952de5c5569d4e55cb8,2024-02-18_20h12.51.547,kallum_motion_pilot,2023.2.2,Win32,59.88023952,65563952de5c5569d4e55cb8,65d2b6c8f2eece985d8e374c,65d2b8f8b376ecff2523cc21,0.0484,0.0484,0,131,131,77,1,threefour,,,,,,,,,,,,,,,,,,,,,,,,,,,,,,,,,,,,,,,,,,,,,,,,,,,,,,,,,,,,,,,,,,,,,,,,,,,,,,,,,,,,,,,,,,,,,,,,,,,,,,,,,,,,,,,,,,,,,,,,,,,,,,,,,,,,,,,,,
,,65563952de5c5569d4e55cb8,2024-02-18_20h12.51.547,kallum_motion_pilot,2023.2.2,Win32,59.88023952,65563952de5c5569d4e55cb8,65d2b6c8f2eece985d8e374c,65d2b8f8b376ecff2523cc21,0.0484,0.0486,0,132,132,97,1,fiveseven,,,,,,,,,,,,,,,,,,,,,,,,,,,,,,,,,,,,,,,,,,,,,,,,,,,,,,,,,,,,,,,,,,,,,,,,,,,,,,,,,,,,,,,,,,,,,,,,,,,,,,,,,,,,,,,,,,,,,,,,,,,,,,,,,,,,,,,,,
,,65563952de5c5569d4e55cb8,2024-02-18_20h12.51.547,kallum_motion_pilot,2023.2.2,Win32,59.88023952,65563952de5c5569d4e55cb8,65d2b6c8f2eece985d8e374c,65d2b8f8b376ecff2523cc21,0.0486,0.0486,0,133,133,7,1,fourthree,,,,,,,,,,,,,,,,,,,,,,,,,,,,,,,,,,,,,,,,,,,,,,,,,,,,,,,,,,,,,,,,,,,,,,,,,,,,,,,,,,,,,,,,,,,,,,,,,,,,,,,,,,,,,,,,,,,,,,,,,,,,,,,,,,,,,,,,,
,,65563952de5c5569d4e55cb8,2024-02-18_20h12.51.547,kallum_motion_pilot,2023.2.2,Win32,59.88023952,65563952de5c5569d4e55cb8,65d2b6c8f2eece985d8e374c,65d2b8f8b376ecff2523cc21,0.0487,0.0488,0,134,134,20,1,threeone,,,,,,,,,,,,,,,,,,,,,,,,,,,,,,,,,,,,,,,,,,,,,,,,,,,,,,,,,,,,,,,,,,,,,,,,,,,,,,,,,,,,,,,,,,,,,,,,,,,,,,,,,,,,,,,,,,,,,,,,,,,,,,,,,,,,,,,,,
,,65563952de5c5569d4e55cb8,2024-02-18_20h12.51.547,kallum_motion_pilot,2023.2.2,Win32,59.88023952,65563952de5c5569d4e55cb8,65d2b6c8f2eece985d8e374c,65d2b8f8b376ecff2523cc21,0.0489,0.049,0,135,135,6,1,fourtwo,,,,,,,,,,,,,,,,,,,,,,,,,,,,,,,,,,,,,,,,,,,,,,,,,,,,,,,,,,,,,,,,,,,,,,,,,,,,,,,,,,,,,,,,,,,,,,,,,,,,,,,,,,,,,,,,,,,,,,,,,,,,,,,,,,,,,,,,,
,,65563952de5c5569d4e55cb8,2024-02-18_20h12.51.547,kallum_motion_pilot,2023.2.2,Win32,59.88023952,65563952de5c5569d4e55cb8,65d2b6c8f2eece985d8e374c,65d2b8f8b376ecff2523cc21,0.049,0.0491,0,136,136,130,1,sixfive,,,,,,,,,,,,,,,,,,,,,,,,,,,,,,,,,,,,,,,,,,,,,,,,,,,,,,,,,,,,,,,,,,,,,,,,,,,,,,,,,,,,,,,,,,,,,,,,,,,,,,,,,,,,,,,,,,,,,,,,,,,,,,,,,,,,,,,,,
,,65563952de5c5569d4e55cb8,2024-02-18_20h12.51.547,kallum_motion_pilot,2023.2.2,Win32,59.88023952,65563952de5c5569d4e55cb8,65d2b6c8f2eece985d8e374c,65d2b8f8b376ecff2523cc21,0.0492,0.0492,0,137,137,109,1,seveneight,,,,,,,,,,,,,,,,,,,,,,,,,,,,,,,,,,,,,,,,,,,,,,,,,,,,,,,,,,,,,,,,,,,,,,,,,,,,,,,,,,,,,,,,,,,,,,,,,,,,,,,,,,,,,,,,,,,,,,,,,,,,,,,,,,,,,,,,,
,,65563952de5c5569d4e55cb8,2024-02-18_20h12.51.547,kallum_motion_pilot,2023.2.2,Win32,59.88023952,65563952de5c5569d4e55cb8,65d2b6c8f2eece985d8e374c,65d2b8f8b376ecff2523cc21,0.0493,0.0494,0,138,138,96,1,fivesix,,,,,,,,,,,,,,,,,,,,,,,,,,,,,,,,,,,,,,,,,,,,,,,,,,,,,,,,,,,,,,,,,,,,,,,,,,,,,,,,,,,,,,,,,,,,,,,,,,,,,,,,,,,,,,,,,,,,,,,,,,,,,,,,,,,,,,,,,
,,65563952de5c5569d4e55cb8,2024-02-18_20h12.51.547,kallum_motion_pilot,2023.2.2,Win32,59.88023952,65563952de5c5569d4e55cb8,65d2b6c8f2eece985d8e374c,65d2b8f8b376ecff2523cc21,0.0494,0.0495,0,139,139,40,1,onetwo,,,,,,,,,,,,,,,,,,,,,,,,,,,,,,,,,,,,,,,,,,,,,,,,,,,,,,,,,,,,,,,,,,,,,,,,,,,,,,,,,,,,,,,,,,,,,,,,,,,,,,,,,,,,,,,,,,,,,,,,,,,,,,,,,,,,,,,,,
,,65563952de5c5569d4e55cb8,2024-02-18_20h12.51.547,kallum_motion_pilot,2023.2.2,Win32,59.88023952,65563952de5c5569d4e55cb8,65d2b6c8f2eece985d8e374c,65d2b8f8b376ecff2523cc21,0.0496,0.0496,0,140,140,86,1,eightsix,,,,,,,,,,,,,,,,,,,,,,,,,,,,,,,,,,,,,,,,,,,,,,,,,,,,,,,,,,,,,,,,,,,,,,,,,,,,,,,,,,,,,,,,,,,,,,,,,,,,,,,,,,,,,,,,,,,,,,,,,,,,,,,,,,,,,,,,,
,,65563952de5c5569d4e55cb8,2024-02-18_20h12.51.547,kallum_motion_pilot,2023.2.2,Win32,59.88023952,65563952de5c5569d4e55cb8,65d2b6c8f2eece985d8e374c,65d2b8f8b376ecff2523cc21,0.0497,0.0498,0,141,141,82,1,sixfive,,,,,,,,,,,,,,,,,,,,,,,,,,,,,,,,,,,,,,,,,,,,,,,,,,,,,,,,,,,,,,,,,,,,,,,,,,,,,,,,,,,,,,,,,,,,,,,,,,,,,,,,,,,,,,,,,,,,,,,,,,,,,,,,,,,,,,,,,
,,65563952de5c5569d4e55cb8,2024-02-18_20h12.51.547,kallum_motion_pilot,2023.2.2,Win32,59.88023952,65563952de5c5569d4e55cb8,65d2b6c8f2eece985d8e374c,65d2b8f8b376ecff2523cc21,0.0499,0.0499,0,142,142,155,1,sixeight,,,,,,,,,,,,,,,,,,,,,,,,,,,,,,,,,,,,,,,,,,,,,,,,,,,,,,,,,,,,,,,,,,,,,,,,,,,,,,,,,,,,,,,,,,,,,,,,,,,,,,,,,,,,,,,,,,,,,,,,,,,,,,,,,,,,,,,,,
,,65563952de5c5569d4e55cb8,2024-02-18_20h12.51.547,kallum_motion_pilot,2023.2.2,Win32,59.88023952,65563952de5c5569d4e55cb8,65d2b6c8f2eece985d8e374c,65d2b8f8b376ecff2523cc21,0.05,0.0501,0,143,143,135,1,eightseven,,,,,,,,,,,,,,,,,,,,,,,,,,,,,,,,,,,,,,,,,,,,,,,,,,,,,,,,,,,,,,,,,,,,,,,,,,,,,,,,,,,,,,,,,,,,,,,,,,,,,,,,,,,,,,,,,,,,,,,,,,,,,,,,,,,,,,,,,
,,65563952de5c5569d4e55cb8,2024-02-18_20h12.51.547,kallum_motion_pilot,2023.2.2,Win32,59.88023952,65563952de5c5569d4e55cb8,65d2b6c8f2eece985d8e374c,65d2b8f8b376ecff2523cc21,0.0501,0.0502,0,144,144,157,1,seveneight,,,,,,,,,,,,,,,,,,,,,,,,,,,,,,,,,,,,,,,,,,,,,,,,,,,,,,,,,,,,,,,,,,,,,,,,,,,,,,,,,,,,,,,,,,,,,,,,,,,,,,,,,,,,,,,,,,,,,,,,,,,,,,,,,,,,,,,,,
,,65563952de5c5569d4e55cb8,2024-02-18_20h12.51.547,kallum_motion_pilot,2023.2.2,Win32,59.88023952,65563952de5c5569d4e55cb8,65d2b6c8f2eece985d8e374c,65d2b8f8b376ecff2523cc21,0.0503,0.0504,0,145,145,93,1,seveneight,,,,,,,,,,,,,,,,,,,,,,,,,,,,,,,,,,,,,,,,,,,,,,,,,,,,,,,,,,,,,,,,,,,,,,,,,,,,,,,,,,,,,,,,,,,,,,,,,,,,,,,,,,,,,,,,,,,,,,,,,,,,,,,,,,,,,,,,,
,,65563952de5c5569d4e55cb8,2024-02-18_20h12.51.547,kallum_motion_pilot,2023.2.2,Win32,59.88023952,65563952de5c5569d4e55cb8,65d2b6c8f2eece985d8e374c,65d2b8f8b376ecff2523cc21,0.0504,0.0504,0,146,146,32,1,onetwo,,,,,,,,,,,,,,,,,,,,,,,,,,,,,,,,,,,,,,,,,,,,,,,,,,,,,,,,,,,,,,,,,,,,,,,,,,,,,,,,,,,,,,,,,,,,,,,,,,,,,,,,,,,,,,,,,,,,,,,,,,,,,,,,,,,,,,,,,
,,65563952de5c5569d4e55cb8,2024-02-18_20h12.51.547,kallum_motion_pilot,2023.2.2,Win32,59.88023952,65563952de5c5569d4e55cb8,65d2b6c8f2eece985d8e374c,65d2b8f8b376ecff2523cc21,0.0505,0.0506,0,147,147,125,1,seveneight,,,,,,,,,,,,,,,,,,,,,,,,,,,,,,,,,,,,,,,,,,,,,,,,,,,,,,,,,,,,,,,,,,,,,,,,,,,,,,,,,,,,,,,,,,,,,,,,,,,,,,,,,,,,,,,,,,,,,,,,,,,,,,,,,,,,,,,,,
,,65563952de5c5569d4e55cb8,2024-02-18_20h12.51.547,kallum_motion_pilot,2023.2.2,Win32,59.88023952,65563952de5c5569d4e55cb8,65d2b6c8f2eece985d8e374c,65d2b8f8b376ecff2523cc21,0.0507,0.0508,0,148,148,160,1,fivesix,,,,,,,,,,,,,,,,,,,,,,,,,,,,,,,,,,,,,,,,,,,,,,,,,,,,,,,,,,,,,,,,,,,,,,,,,,,,,,,,,,,,,,,,,,,,,,,,,,,,,,,,,,,,,,,,,,,,,,,,,,,,,,,,,,,,,,,,,
,,65563952de5c5569d4e55cb8,2024-02-18_20h12.51.547,kallum_motion_pilot,2023.2.2,Win32,59.88023952,65563952de5c5569d4e55cb8,65d2b6c8f2eece985d8e374c,65d2b8f8b376ecff2523cc21,0.0508,0.0509,0,149,149,57,1,onethree,,,,,,,,,,,,,,,,,,,,,,,,,,,,,,,,,,,,,,,,,,,,,,,,,,,,,,,,,,,,,,,,,,,,,,,,,,,,,,,,,,,,,,,,,,,,,,,,,,,,,,,,,,,,,,,,,,,,,,,,,,,,,,,,,,,,,,,,,
,,65563952de5c5569d4e55cb8,2024-02-18_20h12.51.547,kallum_motion_pilot,2023.2.2,Win32,59.88023952,65563952de5c5569d4e55cb8,65d2b6c8f2eece985d8e374c,65d2b8f8b376ecff2523cc21,0.051,0.051,0,150,150,35,1,twofour,,,,,,,,,,,,,,,,,,,,,,,,,,,,,,,,,,,,,,,,,,,,,,,,,,,,,,,,,,,,,,,,,,,,,,,,,,,,,,,,,,,,,,,,,,,,,,,,,,,,,,,,,,,,,,,,,,,,,,,,,,,,,,,,,,,,,,,,,
,,65563952de5c5569d4e55cb8,2024-02-18_20h12.51.547,kallum_motion_pilot,2023.2.2,Win32,59.88023952,65563952de5c5569d4e55cb8,65d2b6c8f2eece985d8e374c,65d2b8f8b376ecff2523cc21,0.0512,0.0512,0,151,151,136,1,fivesix,,,,,,,,,,,,,,,,,,,,,,,,,,,,,,,,,,,,,,,,,,,,,,,,,,,,,,,,,,,,,,,,,,,,,,,,,,,,,,,,,,,,,,,,,,,,,,,,,,,,,,,,,,,,,,,,,,,,,,,,,,,,,,,,,,,,,,,,,
,,65563952de5c5569d4e55cb8,2024-02-18_20h12.51.547,kallum_motion_pilot,2023.2.2,Win32,59.88023952,65563952de5c5569d4e55cb8,65d2b6c8f2eece985d8e374c,65d2b8f8b376ecff2523cc21,0.0512,0.0513,0,152,152,45,1,threefour,,,,,,,,,,,,,,,,,,,,,,,,,,,,,,,,,,,,,,,,,,,,,,,,,,,,,,,,,,,,,,,,,,,,,,,,,,,,,,,,,,,,,,,,,,,,,,,,,,,,,,,,,,,,,,,,,,,,,,,,,,,,,,,,,,,,,,,,,
,,65563952de5c5569d4e55cb8,2024-02-18_20h12.51.547,kallum_motion_pilot,2023.2.2,Win32,59.88023952,65563952de5c5569d4e55cb8,65d2b6c8f2eece985d8e374c,65d2b8f8b376ecff2523cc21,0.0514,0.0515,0,153,153,60,1,threeone,,,,,,,,,,,,,,,,,,,,,,,,,,,,,,,,,,,,,,,,,,,,,,,,,,,,,,,,,,,,,,,,,,,,,,,,,,,,,,,,,,,,,,,,,,,,,,,,,,,,,,,,,,,,,,,,,,,,,,,,,,,,,,,,,,,,,,,,,
,,65563952de5c5569d4e55cb8,2024-02-18_20h12.51.547,kallum_motion_pilot,2023.2.2,Win32,59.88023952,65563952de5c5569d4e55cb8,65d2b6c8f2eece985d8e374c,65d2b8f8b376ecff2523cc21,0.0515,0.0515,0,154,154,68,1,threeone,,,,,,,,,,,,,,,,,,,,,,,,,,,,,,,,,,,,,,,,,,,,,,,,,,,,,,,,,,,,,,,,,,,,,,,,,,,,,,,,,,,,,,,,,,,,,,,,,,,,,,,,,,,,,,,,,,,,,,,,,,,,,,,,,,,,,,,,,
,,65563952de5c5569d4e55cb8,2024-02-18_20h12.51.547,kallum_motion_pilot,2023.2.2,Win32,59.88023952,65563952de5c5569d4e55cb8,65d2b6c8f2eece985d8e374c,65d2b8f8b376ecff2523cc21,0.0517,0.0517,0,155,155,115,1,sixeight,,,,,,,,,,,,,,,,,,,,,,,,,,,,,,,,,,,,,,,,,,,,,,,,,,,,,,,,,,,,,,,,,,,,,,,,,,,,,,,,,,,,,,,,,,,,,,,,,,,,,,,,,,,,,,,,,,,,,,,,,,,,,,,,,,,,,,,,,
,,65563952de5c5569d4e55cb8,2024-02-18_20h12.51.547,kallum_motion_pilot,2023.2.2,Win32,59.88023952,65563952de5c5569d4e55cb8,65d2b6c8f2eece985d8e374c,65d2b8f8b376ecff2523cc21,0.0517,0.0519,0,156,156,27,1,twofour,,,,,,,,,,,,,,,,,,,,,,,,,,,,,,,,,,,,,,,,,,,,,,,,,,,,,,,,,,,,,,,,,,,,,,,,,,,,,,,,,,,,,,,,,,,,,,,,,,,,,,,,,,,,,,,,,,,,,,,,,,,,,,,,,,,,,,,,,
,,65563952de5c5569d4e55cb8,2024-02-18_20h12.51.547,kallum_motion_pilot,2023.2.2,Win32,59.88023952,65563952de5c5569d4e55cb8,65d2b6c8f2eece985d8e374c,65d2b8f8b376ecff2523cc21,0.0519,0.052,0,157,157,119,1,eightseven,,,,,,,,,,,,,,,,,,,,,,,,,,,,,,,,,,,,,,,,,,,,,,,,,,,,,,,,,,,,,,,,,,,,,,,,,,,,,,,,,,,,,,,,,,,,,,,,,,,,,,,,,,,,,,,,,,,,,,,,,,,,,,,,,,,,,,,,,
,,65563952de5c5569d4e55cb8,2024-02-18_20h12.51.547,kallum_motion_pilot,2023.2.2,Win32,59.88023952,65563952de5c5569d4e55cb8,65d2b6c8f2eece985d8e374c,65d2b8f8b376ecff2523cc21,0.052,0.0521,0,158,158,2,1,twoone,,,,,,,,,,,,,,,,,,,,,,,,,,,,,,,,,,,,,,,,,,,,,,,,,,,,,,,,,,,,,,,,,,,,,,,,,,,,,,,,,,,,,,,,,,,,,,,,,,,,,,,,,,,,,,,,,,,,,,,,,,,,,,,,,,,,,,,,,
,,65563952de5c5569d4e55cb8,2024-02-18_20h12.51.547,kallum_motion_pilot,2023.2.2,Win32,59.88023952,65563952de5c5569d4e55cb8,65d2b6c8f2eece985d8e374c,65d2b8f8b376ecff2523cc21,0.0522,0.0522,0,159,159,47,1,fourthree,,,,,,,,,,,,,,,,,,,,,,,,,,,,,,,,,,,,,,,,,,,,,,,,,,,,,,,,,,,,,,,,,,,,,,,,,,,,,,,,,,,,,,,,,,,,,,,,,,,,,,,,,,,,,,,,,,,,,,,,,,,,,,,,,,,,,,,,,
,,65563952de5c5569d4e55cb8,2024-02-18_20h12.51.547,kallum_motion_pilot,2023.2.2,Win32,59.88023952,65563952de5c5569d4e55cb8,65d2b6c8f2eece985d8e374c,65d2b8f8b376ecff2523cc21,0.0523,0.0524,0,160,160,18,1,twoone,,,,,,,,,,,,,,,,,,,,,,,,,,,,,,,,,,,,,,,,,,,,,,,,,,,,,,,,,,,,,,,,,,,,,,,,,,,,,,,,,,,,,,,,,,,,,,,,,,,,,,,,,,,,,,,,,,,,,,,,,,,,,,,,,,,,,,,,,
,,65563952de5c5569d4e55cb8,2024-02-18_20h12.51.547,kallum_motion_pilot,2023.2.2,Win32,59.88023952,65563952de5c5569d4e55cb8,65d2b6c8f2eece985d8e374c,65d2b8f8b376ecff2523cc21,0.0525,0.0525,0,161,161,114,1,sixfive,,,,,,,,,,,,,,,,,,,,,,,,,,,,,,,,,,,,,,,,,,,,,,,,,,,,,,,,,,,,,,,,,,,,,,,,,,,,,,,,,,,,,,,,,,,,,,,,,,,,,,,,,,,,,,,,,,,,,,,,,,,,,,,,,,,,,,,,,
,,65563952de5c5569d4e55cb8,2024-02-18_20h12.51.547,kallum_motion_pilot,2023.2.2,Win32,59.88023952,65563952de5c5569d4e55cb8,65d2b6c8f2eece985d8e374c,65d2b8f8b376ecff2523cc21,0.0527,0.0528,1,0,162,144,1,fivesix,,,,,,,,,,,,,,,,,,,,,,,,,,,,,,,,,,,,,,,,,,,,,,,,,,,,,,,,,,,,,,,,,,,,,,,,,,,,,,,,,,,,,,,,,,,,,,,,,,,,,,,,,,,,,,,,,,,,,,,,,,,,,,,,,,,,,,,,,
,,65563952de5c5569d4e55cb8,2024-02-18_20h12.51.547,kallum_motion_pilot,2023.2.2,Win32,59.88023952,65563952de5c5569d4e55cb8,65d2b6c8f2eece985d8e374c,65d2b8f8b376ecff2523cc21,0.0528,0.0529,1,1,163,75,1,twofour,,,,,,,,,,,,,,,,,,,,,,,,,,,,,,,,,,,,,,,,,,,,,,,,,,,,,,,,,,,,,,,,,,,,,,,,,,,,,,,,,,,,,,,,,,,,,,,,,,,,,,,,,,,,,,,,,,,,,,,,,,,,,,,,,,,,,,,,,
,,65563952de5c5569d4e55cb8,2024-02-18_20h12.51.547,kallum_motion_pilot,2023.2.2,Win32,59.88023952,65563952de5c5569d4e55cb8,65d2b6c8f2eece985d8e374c,65d2b8f8b376ecff2523cc21,0.0529,0.053,1,2,164,79,1,eightseven,,,,,,,,,,,,,,,,,,,,,,,,,,,,,,,,,,,,,,,,,,,,,,,,,,,,,,,,,,,,,,,,,,,,,,,,,,,,,,,,,,,,,,,,,,,,,,,,,,,,,,,,,,,,,,,,,,,,,,,,,,,,,,,,,,,,,,,,,
,,65563952de5c5569d4e55cb8,2024-02-18_20h12.51.547,kallum_motion_pilot,2023.2.2,Win32,59.88023952,65563952de5c5569d4e55cb8,65d2b6c8f2eece985d8e374c,65d2b8f8b376ecff2523cc21,0.0531,0.0531,1,3,165,74,1,twoone,,,,,,,,,,,,,,,,,,,,,,,,,,,,,,,,,,,,,,,,,,,,,,,,,,,,,,,,,,,,,,,,,,,,,,,,,,,,,,,,,,,,,,,,,,,,,,,,,,,,,,,,,,,,,,,,,,,,,,,,,,,,,,,,,,,,,,,,,
,,65563952de5c5569d4e55cb8,2024-02-18_20h12.51.547,kallum_motion_pilot,2023.2.2,Win32,59.88023952,65563952de5c5569d4e55cb8,65d2b6c8f2eece985d8e374c,65d2b8f8b376ecff2523cc21,0.0533,0.0533,1,4,166,119,1,eightseven,,,,,,,,,,,,,,,,,,,,,,,,,,,,,,,,,,,,,,,,,,,,,,,,,,,,,,,,,,,,,,,,,,,,,,,,,,,,,,,,,,,,,,,,,,,,,,,,,,,,,,,,,,,,,,,,,,,,,,,,,,,,,,,,,,,,,,,,,
,,65563952de5c5569d4e55cb8,2024-02-18_20h12.51.547,kallum_motion_pilot,2023.2.2,Win32,59.88023952,65563952de5c5569d4e55cb8,65d2b6c8f2eece985d8e374c,65d2b8f8b376ecff2523cc21,0.0534,0.0534,1,5,167,14,1,fourtwo,,,,,,,,,,,,,,,,,,,,,,,,,,,,,,,,,,,,,,,,,,,,,,,,,,,,,,,,,,,,,,,,,,,,,,,,,,,,,,,,,,,,,,,,,,,,,,,,,,,,,,,,,,,,,,,,,,,,,,,,,,,,,,,,,,,,,,,,,
,,65563952de5c5569d4e55cb8,2024-02-18_20h12.51.547,kallum_motion_pilot,2023.2.2,Win32,59.88023952,65563952de5c5569d4e55cb8,65d2b6c8f2eece985d8e374c,65d2b8f8b376ecff2523cc21,0.0535,0.0536,1,6,168,29,1,threefour,,,,,,,,,,,,,,,,,,,,,,,,,,,,,,,,,,,,,,,,,,,,,,,,,,,,,,,,,,,,,,,,,,,,,,,,,,,,,,,,,,,,,,,,,,,,,,,,,,,,,,,,,,,,,,,,,,,,,,,,,,,,,,,,,,,,,,,,,
,,65563952de5c5569d4e55cb8,2024-02-18_20h12.51.547,kallum_motion_pilot,2023.2.2,Win32,59.88023952,65563952de5c5569d4e55cb8,65d2b6c8f2eece985d8e374c,65d2b8f8b376ecff2523cc21,0.0537,0.0537,1,7,169,7,1,fourthree,,,,,,,,,,,,,,,,,,,,,,,,,,,,,,,,,,,,,,,,,,,,,,,,,,,,,,,,,,,,,,,,,,,,,,,,,,,,,,,,,,,,,,,,,,,,,,,,,,,,,,,,,,,,,,,,,,,,,,,,,,,,,,,,,,,,,,,,,
,,65563952de5c5569d4e55cb8,2024-02-18_20h12.51.547,kallum_motion_pilot,2023.2.2,Win32,59.88023952,65563952de5c5569d4e55cb8,65d2b6c8f2eece985d8e374c,65d2b8f8b376ecff2523cc21,0.0539,0.0539,1,8,170,114,1,sixfive,,,,,,,,,,,,,,,,,,,,,,,,,,,,,,,,,,,,,,,,,,,,,,,,,,,,,,,,,,,,,,,,,,,,,,,,,,,,,,,,,,,,,,,,,,,,,,,,,,,,,,,,,,,,,,,,,,,,,,,,,,,,,,,,,,,,,,,,,
,,65563952de5c5569d4e55cb8,2024-02-18_20h12.51.547,kallum_motion_pilot,2023.2.2,Win32,59.88023952,65563952de5c5569d4e55cb8,65d2b6c8f2eece985d8e374c,65d2b8f8b376ecff2523cc21,0.054,0.0541,1,9,171,122,1,sixfive,,,,,,,,,,,,,,,,,,,,,,,,,,,,,,,,,,,,,,,,,,,,,,,,,,,,,,,,,,,,,,,,,,,,,,,,,,,,,,,,,,,,,,,,,,,,,,,,,,,,,,,,,,,,,,,,,,,,,,,,,,,,,,,,,,,,,,,,,
,,65563952de5c5569d4e55cb8,2024-02-18_20h12.51.547,kallum_motion_pilot,2023.2.2,Win32,59.88023952,65563952de5c5569d4e55cb8,65d2b6c8f2eece985d8e374c,65d2b8f8b376ecff2523cc21,0.0541,0.0541,1,10,172,30,1,fourtwo,,,,,,,,,,,,,,,,,,,,,,,,,,,,,,,,,,,,,,,,,,,,,,,,,,,,,,,,,,,,,,,,,,,,,,,,,,,,,,,,,,,,,,,,,,,,,,,,,,,,,,,,,,,,,,,,,,,,,,,,,,,,,,,,,,,,,,,,,
,,65563952de5c5569d4e55cb8,2024-02-18_20h12.51.547,kallum_motion_pilot,2023.2.2,Win32,59.88023952,65563952de5c5569d4e55cb8,65d2b6c8f2eece985d8e374c,65d2b8f8b376ecff2523cc21,0.0542,0.0543,1,11,173,70,1,fourtwo,,,,,,,,,,,,,,,,,,,,,,,,,,,,,,,,,,,,,,,,,,,,,,,,,,,,,,,,,,,,,,,,,,,,,,,,,,,,,,,,,,,,,,,,,,,,,,,,,,,,,,,,,,,,,,,,,,,,,,,,,,,,,,,,,,,,,,,,,
,,65563952de5c5569d4e55cb8,2024-02-18_20h12.51.547,kallum_motion_pilot,2023.2.2,Win32,59.88023952,65563952de5c5569d4e55cb8,65d2b6c8f2eece985d8e374c,65d2b8f8b376ecff2523cc21,0.0544,0.0544,1,12,174,107,1,sixeight,,,,,,,,,,,,,,,,,,,,,,,,,,,,,,,,,,,,,,,,,,,,,,,,,,,,,,,,,,,,,,,,,,,,,,,,,,,,,,,,,,,,,,,,,,,,,,,,,,,,,,,,,,,,,,,,,,,,,,,,,,,,,,,,,,,,,,,,,
,,65563952de5c5569d4e55cb8,2024-02-18_20h12.51.547,kallum_motion_pilot,2023.2.2,Win32,59.88023952,65563952de5c5569d4e55cb8,65d2b6c8f2eece985d8e374c,65d2b8f8b376ecff2523cc21,0.0545,0.0546,1,13,175,91,1,sixeight,,,,,,,,,,,,,,,,,,,,,,,,,,,,,,,,,,,,,,,,,,,,,,,,,,,,,,,,,,,,,,,,,,,,,,,,,,,,,,,,,,,,,,,,,,,,,,,,,,,,,,,,,,,,,,,,,,,,,,,,,,,,,,,,,,,,,,,,,
,,65563952de5c5569d4e55cb8,2024-02-18_20h12.51.547,kallum_motion_pilot,2023.2.2,Win32,59.88023952,65563952de5c5569d4e55cb8,65d2b6c8f2eece985d8e374c,65d2b8f8b376ecff2523cc21,0.0546,0.0548,1,14,176,10,1,twoone,,,,,,,,,,,,,,,,,,,,,,,,,,,,,,,,,,,,,,,,,,,,,,,,,,,,,,,,,,,,,,,,,,,,,,,,,,,,,,,,,,,,,,,,,,,,,,,,,,,,,,,,,,,,,,,,,,,,,,,,,,,,,,,,,,,,,,,,,
,,65563952de5c5569d4e55cb8,2024-02-18_20h12.51.547,kallum_motion_pilot,2023.2.2,Win32,59.88023952,65563952de5c5569d4e55cb8,65d2b6c8f2eece985d8e374c,65d2b8f8b376ecff2523cc21,0.0549,0.0549,1,15,177,71,1,fourthree,,,,,,,,,,,,,,,,,,,,,,,,,,,,,,,,,,,,,,,,,,,,,,,,,,,,,,,,,,,,,,,,,,,,,,,,,,,,,,,,,,,,,,,,,,,,,,,,,,,,,,,,,,,,,,,,,,,,,,,,,,,,,,,,,,,,,,,,,
,,65563952de5c5569d4e55cb8,2024-02-18_20h12.51.547,kallum_motion_pilot,2023.2.2,Win32,59.88023952,65563952de5c5569d4e55cb8,65d2b6c8f2eece985d8e374c,65d2b8f8b376ecff2523cc21,0.0549,0.055,1,16,178,49,1,onethree,,,,,,,,,,,,,,,,,,,,,,,,,,,,,,,,,,,,,,,,,,,,,,,,,,,,,,,,,,,,,,,,,,,,,,,,,,,,,,,,,,,,,,,,,,,,,,,,,,,,,,,,,,,,,,,,,,,,,,,,,,,,,,,,,,,,,,,,,
,,65563952de5c5569d4e55cb8,2024-02-18_20h12.51.547,kallum_motion_pilot,2023.2.2,Win32,59.88023952,65563952de5c5569d4e55cb8,65d2b6c8f2eece985d8e374c,65d2b8f8b376ecff2523cc21,0.0551,0.0552,1,17,179,46,1,fourtwo,,,,,,,,,,,,,,,,,,,,,,,,,,,,,,,,,,,,,,,,,,,,,,,,,,,,,,,,,,,,,,,,,,,,,,,,,,,,,,,,,,,,,,,,,,,,,,,,,,,,,,,,,,,,,,,,,,,,,,,,,,,,,,,,,,,,,,,,,
,,65563952de5c5569d4e55cb8,2024-02-18_20h12.51.547,kallum_motion_pilot,2023.2.2,Win32,59.88023952,65563952de5c5569d4e55cb8,65d2b6c8f2eece985d8e374c,65d2b8f8b376ecff2523cc21,0.0552,0.0553,1,18,180,156,1,sevenfive,,,,,,,,,,,,,,,,,,,,,,,,,,,,,,,,,,,,,,,,,,,,,,,,,,,,,,,,,,,,,,,,,,,,,,,,,,,,,,,,,,,,,,,,,,,,,,,,,,,,,,,,,,,,,,,,,,,,,,,,,,,,,,,,,,,,,,,,,
,,65563952de5c5569d4e55cb8,2024-02-18_20h12.51.547,kallum_motion_pilot,2023.2.2,Win32,59.88023952,65563952de5c5569d4e55cb8,65d2b6c8f2eece985d8e374c,65d2b8f8b376ecff2523cc21,0.0554,0.0555,1,19,181,69,1,threefour,,,,,,,,,,,,,,,,,,,,,,,,,,,,,,,,,,,,,,,,,,,,,,,,,,,,,,,,,,,,,,,,,,,,,,,,,,,,,,,,,,,,,,,,,,,,,,,,,,,,,,,,,,,,,,,,,,,,,,,,,,,,,,,,,,,,,,,,,
,,65563952de5c5569d4e55cb8,2024-02-18_20h12.51.547,kallum_motion_pilot,2023.2.2,Win32,59.88023952,65563952de5c5569d4e55cb8,65d2b6c8f2eece985d8e374c,65d2b8f8b376ecff2523cc21,0.0555,0.0556,1,20,182,117,1,seveneight,,,,,,,,,,,,,,,,,,,,,,,,,,,,,,,,,,,,,,,,,,,,,,,,,,,,,,,,,,,,,,,,,,,,,,,,,,,,,,,,,,,,,,,,,,,,,,,,,,,,,,,,,,,,,,,,,,,,,,,,,,,,,,,,,,,,,,,,,
,,65563952de5c5569d4e55cb8,2024-02-18_20h12.51.547,kallum_motion_pilot,2023.2.2,Win32,59.88023952,65563952de5c5569d4e55cb8,65d2b6c8f2eece985d8e374c,65d2b8f8b376ecff2523cc21,0.0557,0.0557,1,21,183,59,1,twofour,,,,,,,,,,,,,,,,,,,,,,,,,,,,,,,,,,,,,,,,,,,,,,,,,,,,,,,,,,,,,,,,,,,,,,,,,,,,,,,,,,,,,,,,,,,,,,,,,,,,,,,,,,,,,,,,,,,,,,,,,,,,,,,,,,,,,,,,,
,,65563952de5c5569d4e55cb8,2024-02-18_20h12.51.547,kallum_motion_pilot,2023.2.2,Win32,59.88023952,65563952de5c5569d4e55cb8,65d2b6c8f2eece985d8e374c,65d2b8f8b376ecff2523cc21,0.0558,0.056,1,22,184,13,1,threefour,,,,,,,,,,,,,,,,,,,,,,,,,,,,,,,,,,,,,,,,,,,,,,,,,,,,,,,,,,,,,,,,,,,,,,,,,,,,,,,,,,,,,,,,,,,,,,,,,,,,,,,,,,,,,,,,,,,,,,,,,,,,,,,,,,,,,,,,,
,,65563952de5c5569d4e55cb8,2024-02-18_20h12.51.547,kallum_motion_pilot,2023.2.2,Win32,59.88023952,65563952de5c5569d4e55cb8,65d2b6c8f2eece985d8e374c,65d2b8f8b376ecff2523cc21,0.056,0.056,1,23,185,15,1,fourthree,,,,,,,,,,,,,,,,,,,,,,,,,,,,,,,,,,,,,,,,,,,,,,,,,,,,,,,,,,,,,,,,,,,,,,,,,,,,,,,,,,,,,,,,,,,,,,,,,,,,,,,,,,,,,,,,,,,,,,,,,,,,,,,,,,,,,,,,,
,,65563952de5c5569d4e55cb8,2024-02-18_20h12.51.547,kallum_motion_pilot,2023.2.2,Win32,59.88023952,65563952de5c5569d4e55cb8,65d2b6c8f2eece985d8e374c,65d2b8f8b376ecff2523cc21,0.0562,0.0562,1,24,186,106,1,sixfive,,,,,,,,,,,,,,,,,,,,,,,,,,,,,,,,,,,,,,,,,,,,,,,,,,,,,,,,,,,,,,,,,,,,,,,,,,,,,,,,,,,,,,,,,,,,,,,,,,,,,,,,,,,,,,,,,,,,,,,,,,,,,,,,,,,,,,,,,
,,65563952de5c5569d4e55cb8,2024-02-18_20h12.51.547,kallum_motion_pilot,2023.2.2,Win32,59.88023952,65563952de5c5569d4e55cb8,65d2b6c8f2eece985d8e374c,65d2b8f8b376ecff2523cc21,0.0563,0.0564,1,25,187,11,1,twofour,,,,,,,,,,,,,,,,,,,,,,,,,,,,,,,,,,,,,,,,,,,,,,,,,,,,,,,,,,,,,,,,,,,,,,,,,,,,,,,,,,,,,,,,,,,,,,,,,,,,,,,,,,,,,,,,,,,,,,,,,,,,,,,,,,,,,,,,,
,,65563952de5c5569d4e55cb8,2024-02-18_20h12.51.547,kallum_motion_pilot,2023.2.2,Win32,59.88023952,65563952de5c5569d4e55cb8,65d2b6c8f2eece985d8e374c,65d2b8f8b376ecff2523cc21,0.0565,0.0566,1,26,188,28,1,threeone,,,,,,,,,,,,,,,,,,,,,,,,,,,,,,,,,,,,,,,,,,,,,,,,,,,,,,,,,,,,,,,,,,,,,,,,,,,,,,,,,,,,,,,,,,,,,,,,,,,,,,,,,,,,,,,,,,,,,,,,,,,,,,,,,,,,,,,,,
,,65563952de5c5569d4e55cb8,2024-02-18_20h12.51.547,kallum_motion_pilot,2023.2.2,Win32,59.88023952,65563952de5c5569d4e55cb8,65d2b6c8f2eece985d8e374c,65d2b8f8b376ecff2523cc21,0.0567,0.0568,1,27,189,33,1,onethree,,,,,,,,,,,,,,,,,,,,,,,,,,,,,,,,,,,,,,,,,,,,,,,,,,,,,,,,,,,,,,,,,,,,,,,,,,,,,,,,,,,,,,,,,,,,,,,,,,,,,,,,,,,,,,,,,,,,,,,,,,,,,,,,,,,,,,,,,
,,65563952de5c5569d4e55cb8,2024-02-18_20h12.51.547,kallum_motion_pilot,2023.2.2,Win32,59.88023952,65563952de5c5569d4e55cb8,65d2b6c8f2eece985d8e374c,65d2b8f8b376ecff2523cc21,0.0569,0.057,1,28,190,97,1,fiveseven,,,,,,,,,,,,,,,,,,,,,,,,,,,,,,,,,,,,,,,,,,,,,,,,,,,,,,,,,,,,,,,,,,,,,,,,,,,,,,,,,,,,,,,,,,,,,,,,,,,,,,,,,,,,,,,,,,,,,,,,,,,,,,,,,,,,,,,,,
,,65563952de5c5569d4e55cb8,2024-02-18_20h12.51.547,kallum_motion_pilot,2023.2.2,Win32,59.88023952,65563952de5c5569d4e55cb8,65d2b6c8f2eece985d8e374c,65d2b8f8b376ecff2523cc21,0.057,0.0571,1,29,191,102,1,eightsix,,,,,,,,,,,,,,,,,,,,,,,,,,,,,,,,,,,,,,,,,,,,,,,,,,,,,,,,,,,,,,,,,,,,,,,,,,,,,,,,,,,,,,,,,,,,,,,,,,,,,,,,,,,,,,,,,,,,,,,,,,,,,,,,,,,,,,,,,
,,65563952de5c5569d4e55cb8,2024-02-18_20h12.51.547,kallum_motion_pilot,2023.2.2,Win32,59.88023952,65563952de5c5569d4e55cb8,65d2b6c8f2eece985d8e374c,65d2b8f8b376ecff2523cc21,0.0572,0.0572,1,30,192,140,1,sevenfive,,,,,,,,,,,,,,,,,,,,,,,,,,,,,,,,,,,,,,,,,,,,,,,,,,,,,,,,,,,,,,,,,,,,,,,,,,,,,,,,,,,,,,,,,,,,,,,,,,,,,,,,,,,,,,,,,,,,,,,,,,,,,,,,,,,,,,,,,
,,65563952de5c5569d4e55cb8,2024-02-18_20h12.51.547,kallum_motion_pilot,2023.2.2,Win32,59.88023952,65563952de5c5569d4e55cb8,65d2b6c8f2eece985d8e374c,65d2b8f8b376ecff2523cc21,0.0573,0.0573,1,31,193,85,1,seveneight,,,,,,,,,,,,,,,,,,,,,,,,,,,,,,,,,,,,,,,,,,,,,,,,,,,,,,,,,,,,,,,,,,,,,,,,,,,,,,,,,,,,,,,,,,,,,,,,,,,,,,,,,,,,,,,,,,,,,,,,,,,,,,,,,,,,,,,,,
,,65563952de5c5569d4e55cb8,2024-02-18_20h12.51.547,kallum_motion_pilot,2023.2.2,Win32,59.88023952,65563952de5c5569d4e55cb8,65d2b6c8f2eece985d8e374c,65d2b8f8b376ecff2523cc21,0.0575,0.0575,1,32,194,142,1,eightsix,,,,,,,,,,,,,,,,,,,,,,,,,,,,,,,,,,,,,,,,,,,,,,,,,,,,,,,,,,,,,,,,,,,,,,,,,,,,,,,,,,,,,,,,,,,,,,,,,,,,,,,,,,,,,,,,,,,,,,,,,,,,,,,,,,,,,,,,,
,,65563952de5c5569d4e55cb8,2024-02-18_20h12.51.547,kallum_motion_pilot,2023.2.2,Win32,59.88023952,65563952de5c5569d4e55cb8,65d2b6c8f2eece985d8e374c,65d2b8f8b376ecff2523cc21,0.0577,0.0577,1,33,195,161,1,fiveseven,,,,,,,,,,,,,,,,,,,,,,,,,,,,,,,,,,,,,,,,,,,,,,,,,,,,,,,,,,,,,,,,,,,,,,,,,,,,,,,,,,,,,,,,,,,,,,,,,,,,,,,,,,,,,,,,,,,,,,,,,,,,,,,,,,,,,,,,,
,,65563952de5c5569d4e55cb8,2024-02-18_20h12.51.547,kallum_motion_pilot,2023.2.2,Win32,59.88023952,65563952de5c5569d4e55cb8,65d2b6c8f2eece985d8e374c,65d2b8f8b376ecff2523cc21,0.0578,0.0578,1,34,196,45,1,threefour,,,,,,,,,,,,,,,,,,,,,,,,,,,,,,,,,,,,,,,,,,,,,,,,,,,,,,,,,,,,,,,,,,,,,,,,,,,,,,,,,,,,,,,,,,,,,,,,,,,,,,,,,,,,,,,,,,,,,,,,,,,,,,,,,,,,,,,,,
,,65563952de5c5569d4e55cb8,2024-02-18_20h12.51.547,kallum_motion_pilot,2023.2.2,Win32,59.88023952,65563952de5c5569d4e55cb8,65d2b6c8f2eece985d8e374c,65d2b8f8b376ecff2523cc21,0.058,0.058,1,35,197,60,1,threeone,,,,,,,,,,,,,,,,,,,,,,,,,,,,,,,,,,,,,,,,,,,,,,,,,,,,,,,,,,,,,,,,,,,,,,,,,,,,,,,,,,,,,,,,,,,,,,,,,,,,,,,,,,,,,,,,,,,,,,,,,,,,,,,,,,,,,,,,,
,,65563952de5c5569d4e55cb8,2024-02-18_20h12.51.547,kallum_motion_pilot,2023.2.2,Win32,59.88023952,65563952de5c5569d4e55cb8,65d2b6c8f2eece985d8e374c,65d2b8f8b376ecff2523cc21,0.0581,0.0582,1,36,198,64,1,onetwo,,,,,,,,,,,,,,,,,,,,,,,,,,,,,,,,,,,,,,,,,,,,,,,,,,,,,,,,,,,,,,,,,,,,,,,,,,,,,,,,,,,,,,,,,,,,,,,,,,,,,,,,,,,,,,,,,,,,,,,,,,,,,,,,,,,,,,,,,
,,65563952de5c5569d4e55cb8,2024-02-18_20h12.51.547,kallum_motion_pilot,2023.2.2,Win32,59.88023952,65563952de5c5569d4e55cb8,65d2b6c8f2eece985d8e374c,65d2b8f8b376ecff2523cc21,0.0585,0.0586,1,37,199,44,1,threeone,,,,,,,,,,,,,,,,,,,,,,,,,,,,,,,,,,,,,,,,,,,,,,,,,,,,,,,,,,,,,,,,,,,,,,,,,,,,,,,,,,,,,,,,,,,,,,,,,,,,,,,,,,,,,,,,,,,,,,,,,,,,,,,,,,,,,,,,,
,,65563952de5c5569d4e55cb8,2024-02-18_20h12.51.547,kallum_motion_pilot,2023.2.2,Win32,59.88023952,65563952de5c5569d4e55cb8,65d2b6c8f2eece985d8e374c,65d2b8f8b376ecff2523cc21,0.0587,0.0588,1,38,200,40,1,onetwo,,,,,,,,,,,,,,,,,,,,,,,,,,,,,,,,,,,,,,,,,,,,,,,,,,,,,,,,,,,,,,,,,,,,,,,,,,,,,,,,,,,,,,,,,,,,,,,,,,,,,,,,,,,,,,,,,,,,,,,,,,,,,,,,,,,,,,,,,
,,65563952de5c5569d4e55cb8,2024-02-18_20h12.51.547,kallum_motion_pilot,2023.2.2,Win32,59.88023952,65563952de5c5569d4e55cb8,65d2b6c8f2eece985d8e374c,65d2b8f8b376ecff2523cc21,0.0589,0.059,1,39,201,42,1,twoone,,,,,,,,,,,,,,,,,,,,,,,,,,,,,,,,,,,,,,,,,,,,,,,,,,,,,,,,,,,,,,,,,,,,,,,,,,,,,,,,,,,,,,,,,,,,,,,,,,,,,,,,,,,,,,,,,,,,,,,,,,,,,,,,,,,,,,,,,
,,65563952de5c5569d4e55cb8,2024-02-18_20h12.51.547,kallum_motion_pilot,2023.2.2,Win32,59.88023952,65563952de5c5569d4e55cb8,65d2b6c8f2eece985d8e374c,65d2b8f8b376ecff2523cc21,0.0591,0.0591,1,40,202,58,1,twoone,,,,,,,,,,,,,,,,,,,,,,,,,,,,,,,,,,,,,,,,,,,,,,,,,,,,,,,,,,,,,,,,,,,,,,,,,,,,,,,,,,,,,,,,,,,,,,,,,,,,,,,,,,,,,,,,,,,,,,,,,,,,,,,,,,,,,,,,,
,,65563952de5c5569d4e55cb8,2024-02-18_20h12.51.547,kallum_motion_pilot,2023.2.2,Win32,59.88023952,65563952de5c5569d4e55cb8,65d2b6c8f2eece985d8e374c,65d2b8f8b376ecff2523cc21,0.0592,0.0593,1,41,203,9,1,onethree,,,,,,,,,,,,,,,,,,,,,,,,,,,,,,,,,,,,,,,,,,,,,,,,,,,,,,,,,,,,,,,,,,,,,,,,,,,,,,,,,,,,,,,,,,,,,,,,,,,,,,,,,,,,,,,,,,,,,,,,,,,,,,,,,,,,,,,,,
,,65563952de5c5569d4e55cb8,2024-02-18_20h12.51.547,kallum_motion_pilot,2023.2.2,Win32,59.88023952,65563952de5c5569d4e55cb8,65d2b6c8f2eece985d8e374c,65d2b8f8b376ecff2523cc21,0.0594,0.0595,1,42,204,109,1,seveneight,,,,,,,,,,,,,,,,,,,,,,,,,,,,,,,,,,,,,,,,,,,,,,,,,,,,,,,,,,,,,,,,,,,,,,,,,,,,,,,,,,,,,,,,,,,,,,,,,,,,,,,,,,,,,,,,,,,,,,,,,,,,,,,,,,,,,,,,,
,,65563952de5c5569d4e55cb8,2024-02-18_20h12.51.547,kallum_motion_pilot,2023.2.2,Win32,59.88023952,65563952de5c5569d4e55cb8,65d2b6c8f2eece985d8e374c,65d2b8f8b376ecff2523cc21,0.0596,0.0596,1,43,205,31,1,fourthree,,,,,,,,,,,,,,,,,,,,,,,,,,,,,,,,,,,,,,,,,,,,,,,,,,,,,,,,,,,,,,,,,,,,,,,,,,,,,,,,,,,,,,,,,,,,,,,,,,,,,,,,,,,,,,,,,,,,,,,,,,,,,,,,,,,,,,,,,
,,65563952de5c5569d4e55cb8,2024-02-18_20h12.51.547,kallum_motion_pilot,2023.2.2,Win32,59.88023952,65563952de5c5569d4e55cb8,65d2b6c8f2eece985d8e374c,65d2b8f8b376ecff2523cc21,0.0597,0.0598,1,44,206,43,1,twofour,,,,,,,,,,,,,,,,,,,,,,,,,,,,,,,,,,,,,,,,,,,,,,,,,,,,,,,,,,,,,,,,,,,,,,,,,,,,,,,,,,,,,,,,,,,,,,,,,,,,,,,,,,,,,,,,,,,,,,,,,,,,,,,,,,,,,,,,,
,,65563952de5c5569d4e55cb8,2024-02-18_20h12.51.547,kallum_motion_pilot,2023.2.2,Win32,59.88023952,65563952de5c5569d4e55cb8,65d2b6c8f2eece985d8e374c,65d2b8f8b376ecff2523cc21,0.0599,0.06,1,45,207,90,1,sixfive,,,,,,,,,,,,,,,,,,,,,,,,,,,,,,,,,,,,,,,,,,,,,,,,,,,,,,,,,,,,,,,,,,,,,,,,,,,,,,,,,,,,,,,,,,,,,,,,,,,,,,,,,,,,,,,,,,,,,,,,,,,,,,,,,,,,,,,,,
,,65563952de5c5569d4e55cb8,2024-02-18_20h12.51.547,kallum_motion_pilot,2023.2.2,Win32,59.88023952,65563952de5c5569d4e55cb8,65d2b6c8f2eece985d8e374c,65d2b8f8b376ecff2523cc21,0.06,0.0602,1,46,208,100,1,sevenfive,,,,,,,,,,,,,,,,,,,,,,,,,,,,,,,,,,,,,,,,,,,,,,,,,,,,,,,,,,,,,,,,,,,,,,,,,,,,,,,,,,,,,,,,,,,,,,,,,,,,,,,,,,,,,,,,,,,,,,,,,,,,,,,,,,,,,,,,,
,,65563952de5c5569d4e55cb8,2024-02-18_20h12.51.547,kallum_motion_pilot,2023.2.2,Win32,59.88023952,65563952de5c5569d4e55cb8,65d2b6c8f2eece985d8e374c,65d2b8f8b376ecff2523cc21,0.0602,0.0603,1,47,209,19,1,twofour,,,,,,,,,,,,,,,,,,,,,,,,,,,,,,,,,,,,,,,,,,,,,,,,,,,,,,,,,,,,,,,,,,,,,,,,,,,,,,,,,,,,,,,,,,,,,,,,,,,,,,,,,,,,,,,,,,,,,,,,,,,,,,,,,,,,,,,,,
,,65563952de5c5569d4e55cb8,2024-02-18_20h12.51.547,kallum_motion_pilot,2023.2.2,Win32,59.88023952,65563952de5c5569d4e55cb8,65d2b6c8f2eece985d8e374c,65d2b8f8b376ecff2523cc21,0.0604,0.0605,1,48,210,134,1,eightsix,,,,,,,,,,,,,,,,,,,,,,,,,,,,,,,,,,,,,,,,,,,,,,,,,,,,,,,,,,,,,,,,,,,,,,,,,,,,,,,,,,,,,,,,,,,,,,,,,,,,,,,,,,,,,,,,,,,,,,,,,,,,,,,,,,,,,,,,,
,,65563952de5c5569d4e55cb8,2024-02-18_20h12.51.547,kallum_motion_pilot,2023.2.2,Win32,59.88023952,65563952de5c5569d4e55cb8,65d2b6c8f2eece985d8e374c,65d2b8f8b376ecff2523cc21,0.0605,0.0606,1,49,211,125,1,seveneight,,,,,,,,,,,,,,,,,,,,,,,,,,,,,,,,,,,,,,,,,,,,,,,,,,,,,,,,,,,,,,,,,,,,,,,,,,,,,,,,,,,,,,,,,,,,,,,,,,,,,,,,,,,,,,,,,,,,,,,,,,,,,,,,,,,,,,,,,
,,65563952de5c5569d4e55cb8,2024-02-18_20h12.51.547,kallum_motion_pilot,2023.2.2,Win32,59.88023952,65563952de5c5569d4e55cb8,65d2b6c8f2eece985d8e374c,65d2b8f8b376ecff2523cc21,0.0607,0.0608,1,50,212,86,1,eightsix,,,,,,,,,,,,,,,,,,,,,,,,,,,,,,,,,,,,,,,,,,,,,,,,,,,,,,,,,,,,,,,,,,,,,,,,,,,,,,,,,,,,,,,,,,,,,,,,,,,,,,,,,,,,,,,,,,,,,,,,,,,,,,,,,,,,,,,,,
,,65563952de5c5569d4e55cb8,2024-02-18_20h12.51.547,kallum_motion_pilot,2023.2.2,Win32,59.88023952,65563952de5c5569d4e55cb8,65d2b6c8f2eece985d8e374c,65d2b8f8b376ecff2523cc21,0.0609,0.061,1,51,213,35,1,twofour,,,,,,,,,,,,,,,,,,,,,,,,,,,,,,,,,,,,,,,,,,,,,,,,,,,,,,,,,,,,,,,,,,,,,,,,,,,,,,,,,,,,,,,,,,,,,,,,,,,,,,,,,,,,,,,,,,,,,,,,,,,,,,,,,,,,,,,,,
,,65563952de5c5569d4e55cb8,2024-02-18_20h12.51.547,kallum_motion_pilot,2023.2.2,Win32,59.88023952,65563952de5c5569d4e55cb8,65d2b6c8f2eece985d8e374c,65d2b8f8b376ecff2523cc21,0.0611,0.0612,1,52,214,84,1,sevenfive,,,,,,,,,,,,,,,,,,,,,,,,,,,,,,,,,,,,,,,,,,,,,,,,,,,,,,,,,,,,,,,,,,,,,,,,,,,,,,,,,,,,,,,,,,,,,,,,,,,,,,,,,,,,,,,,,,,,,,,,,,,,,,,,,,,,,,,,,
,,65563952de5c5569d4e55cb8,2024-02-18_20h12.51.547,kallum_motion_pilot,2023.2.2,Win32,59.88023952,65563952de5c5569d4e55cb8,65d2b6c8f2eece985d8e374c,65d2b8f8b376ecff2523cc21,0.0613,0.0613,1,53,215,8,1,onetwo,,,,,,,,,,,,,,,,,,,,,,,,,,,,,,,,,,,,,,,,,,,,,,,,,,,,,,,,,,,,,,,,,,,,,,,,,,,,,,,,,,,,,,,,,,,,,,,,,,,,,,,,,,,,,,,,,,,,,,,,,,,,,,,,,,,,,,,,,
,,65563952de5c5569d4e55cb8,2024-02-18_20h12.51.547,kallum_motion_pilot,2023.2.2,Win32,59.88023952,65563952de5c5569d4e55cb8,65d2b6c8f2eece985d8e374c,65d2b8f8b376ecff2523cc21,0.0613,0.0615,1,54,216,101,1,seveneight,,,,,,,,,,,,,,,,,,,,,,,,,,,,,,,,,,,,,,,,,,,,,,,,,,,,,,,,,,,,,,,,,,,,,,,,,,,,,,,,,,,,,,,,,,,,,,,,,,,,,,,,,,,,,,,,,,,,,,,,,,,,,,,,,,,,,,,,,
,,65563952de5c5569d4e55cb8,2024-02-18_20h12.51.547,kallum_motion_pilot,2023.2.2,Win32,59.88023952,65563952de5c5569d4e55cb8,65d2b6c8f2eece985d8e374c,65d2b8f8b376ecff2523cc21,0.0615,0.0616,1,55,217,132,1,sevenfive,,,,,,,,,,,,,,,,,,,,,,,,,,,,,,,,,,,,,,,,,,,,,,,,,,,,,,,,,,,,,,,,,,,,,,,,,,,,,,,,,,,,,,,,,,,,,,,,,,,,,,,,,,,,,,,,,,,,,,,,,,,,,,,,,,,,,,,,,
,,65563952de5c5569d4e55cb8,2024-02-18_20h12.51.547,kallum_motion_pilot,2023.2.2,Win32,59.88023952,65563952de5c5569d4e55cb8,65d2b6c8f2eece985d8e374c,65d2b8f8b376ecff2523cc21,0.0621,0.0623,1,56,218,160,1,fivesix,,,,,,,,,,,,,,,,,,,,,,,,,,,,,,,,,,,,,,,,,,,,,,,,,,,,,,,,,,,,,,,,,,,,,,,,,,,,,,,,,,,,,,,,,,,,,,,,,,,,,,,,,,,,,,,,,,,,,,,,,,,,,,,,,,,,,,,,,
,,65563952de5c5569d4e55cb8,2024-02-18_20h12.51.547,kallum_motion_pilot,2023.2.2,Win32,59.88023952,65563952de5c5569d4e55cb8,65d2b6c8f2eece985d8e374c,65d2b8f8b376ecff2523cc21,0.0625,0.0625,1,57,219,89,1,fiveseven,,,,,,,,,,,,,,,,,,,,,,,,,,,,,,,,,,,,,,,,,,,,,,,,,,,,,,,,,,,,,,,,,,,,,,,,,,,,,,,,,,,,,,,,,,,,,,,,,,,,,,,,,,,,,,,,,,,,,,,,,,,,,,,,,,,,,,,,,
,,65563952de5c5569d4e55cb8,2024-02-18_20h12.51.547,kallum_motion_pilot,2023.2.2,Win32,59.88023952,65563952de5c5569d4e55cb8,65d2b6c8f2eece985d8e374c,65d2b8f8b376ecff2523cc21,0.0626,0.0627,1,58,220,104,1,fivesix,,,,,,,,,,,,,,,,,,,,,,,,,,,,,,,,,,,,,,,,,,,,,,,,,,,,,,,,,,,,,,,,,,,,,,,,,,,,,,,,,,,,,,,,,,,,,,,,,,,,,,,,,,,,,,,,,,,,,,,,,,,,,,,,,,,,,,,,,
,,65563952de5c5569d4e55cb8,2024-02-18_20h12.51.547,kallum_motion_pilot,2023.2.2,Win32,59.88023952,65563952de5c5569d4e55cb8,65d2b6c8f2eece985d8e374c,65d2b8f8b376ecff2523cc21,0.0628,0.0629,1,59,221,143,1,eightseven,,,,,,,,,,,,,,,,,,,,,,,,,,,,,,,,,,,,,,,,,,,,,,,,,,,,,,,,,,,,,,,,,,,,,,,,,,,,,,,,,,,,,,,,,,,,,,,,,,,,,,,,,,,,,,,,,,,,,,,,,,,,,,,,,,,,,,,,,
,,65563952de5c5569d4e55cb8,2024-02-18_20h12.51.547,kallum_motion_pilot,2023.2.2,Win32,59.88023952,65563952de5c5569d4e55cb8,65d2b6c8f2eece985d8e374c,65d2b8f8b376ecff2523cc21,0.063,0.0631,1,60,222,23,1,fourthree,,,,,,,,,,,,,,,,,,,,,,,,,,,,,,,,,,,,,,,,,,,,,,,,,,,,,,,,,,,,,,,,,,,,,,,,,,,,,,,,,,,,,,,,,,,,,,,,,,,,,,,,,,,,,,,,,,,,,,,,,,,,,,,,,,,,,,,,,
,,65563952de5c5569d4e55cb8,2024-02-18_20h12.51.547,kallum_motion_pilot,2023.2.2,Win32,59.88023952,65563952de5c5569d4e55cb8,65d2b6c8f2eece985d8e374c,65d2b8f8b376ecff2523cc21,0.0633,0.0633,1,61,223,76,1,threeone,,,,,,,,,,,,,,,,,,,,,,,,,,,,,,,,,,,,,,,,,,,,,,,,,,,,,,,,,,,,,,,,,,,,,,,,,,,,,,,,,,,,,,,,,,,,,,,,,,,,,,,,,,,,,,,,,,,,,,,,,,,,,,,,,,,,,,,,,
,,65563952de5c5569d4e55cb8,2024-02-18_20h12.51.547,kallum_motion_pilot,2023.2.2,Win32,59.88023952,65563952de5c5569d4e55cb8,65d2b6c8f2eece985d8e374c,65d2b8f8b376ecff2523cc21,0.0634,0.0635,1,62,224,130,1,sixfive,,,,,,,,,,,,,,,,,,,,,,,,,,,,,,,,,,,,,,,,,,,,,,,,,,,,,,,,,,,,,,,,,,,,,,,,,,,,,,,,,,,,,,,,,,,,,,,,,,,,,,,,,,,,,,,,,,,,,,,,,,,,,,,,,,,,,,,,,
,,65563952de5c5569d4e55cb8,2024-02-18_20h12.51.547,kallum_motion_pilot,2023.2.2,Win32,59.88023952,65563952de5c5569d4e55cb8,65d2b6c8f2eece985d8e374c,65d2b8f8b376ecff2523cc21,0.0636,0.0636,1,63,225,52,1,threeone,,,,,,,,,,,,,,,,,,,,,,,,,,,,,,,,,,,,,,,,,,,,,,,,,,,,,,,,,,,,,,,,,,,,,,,,,,,,,,,,,,,,,,,,,,,,,,,,,,,,,,,,,,,,,,,,,,,,,,,,,,,,,,,,,,,,,,,,,
,,65563952de5c5569d4e55cb8,2024-02-18_20h12.51.547,kallum_motion_pilot,2023.2.2,Win32,59.88023952,65563952de5c5569d4e55cb8,65d2b6c8f2eece985d8e374c,65d2b8f8b376ecff2523cc21,0.0638,0.0638,1,64,226,152,1,fivesix,,,,,,,,,,,,,,,,,,,,,,,,,,,,,,,,,,,,,,,,,,,,,,,,,,,,,,,,,,,,,,,,,,,,,,,,,,,,,,,,,,,,,,,,,,,,,,,,,,,,,,,,,,,,,,,,,,,,,,,,,,,,,,,,,,,,,,,,,
,,65563952de5c5569d4e55cb8,2024-02-18_20h12.51.547,kallum_motion_pilot,2023.2.2,Win32,59.88023952,65563952de5c5569d4e55cb8,65d2b6c8f2eece985d8e374c,65d2b8f8b376ecff2523cc21,0.064,0.064,1,65,227,51,1,twofour,,,,,,,,,,,,,,,,,,,,,,,,,,,,,,,,,,,,,,,,,,,,,,,,,,,,,,,,,,,,,,,,,,,,,,,,,,,,,,,,,,,,,,,,,,,,,,,,,,,,,,,,,,,,,,,,,,,,,,,,,,,,,,,,,,,,,,,,,
,,65563952de5c5569d4e55cb8,2024-02-18_20h12.51.547,kallum_motion_pilot,2023.2.2,Win32,59.88023952,65563952de5c5569d4e55cb8,65d2b6c8f2eece985d8e374c,65d2b8f8b376ecff2523cc21,0.0641,0.0642,1,66,228,48,1,onetwo,,,,,,,,,,,,,,,,,,,,,,,,,,,,,,,,,,,,,,,,,,,,,,,,,,,,,,,,,,,,,,,,,,,,,,,,,,,,,,,,,,,,,,,,,,,,,,,,,,,,,,,,,,,,,,,,,,,,,,,,,,,,,,,,,,,,,,,,,
,,65563952de5c5569d4e55cb8,2024-02-18_20h12.51.547,kallum_motion_pilot,2023.2.2,Win32,59.88023952,65563952de5c5569d4e55cb8,65d2b6c8f2eece985d8e374c,65d2b8f8b376ecff2523cc21,0.0642,0.0644,1,67,229,127,1,eightseven,,,,,,,,,,,,,,,,,,,,,,,,,,,,,,,,,,,,,,,,,,,,,,,,,,,,,,,,,,,,,,,,,,,,,,,,,,,,,,,,,,,,,,,,,,,,,,,,,,,,,,,,,,,,,,,,,,,,,,,,,,,,,,,,,,,,,,,,,
,,65563952de5c5569d4e55cb8,2024-02-18_20h12.51.547,kallum_motion_pilot,2023.2.2,Win32,59.88023952,65563952de5c5569d4e55cb8,65d2b6c8f2eece985d8e374c,65d2b8f8b376ecff2523cc21,0.0644,0.0645,1,68,230,78,1,fourtwo,,,,,,,,,,,,,,,,,,,,,,,,,,,,,,,,,,,,,,,,,,,,,,,,,,,,,,,,,,,,,,,,,,,,,,,,,,,,,,,,,,,,,,,,,,,,,,,,,,,,,,,,,,,,,,,,,,,,,,,,,,,,,,,,,,,,,,,,,
,,65563952de5c5569d4e55cb8,2024-02-18_20h12.51.547,kallum_motion_pilot,2023.2.2,Win32,59.88023952,65563952de5c5569d4e55cb8,65d2b6c8f2eece985d8e374c,65d2b8f8b376ecff2523cc21,0.0646,0.0647,1,69,231,72,1,onetwo,,,,,,,,,,,,,,,,,,,,,,,,,,,,,,,,,,,,,,,,,,,,,,,,,,,,,,,,,,,,,,,,,,,,,,,,,,,,,,,,,,,,,,,,,,,,,,,,,,,,,,,,,,,,,,,,,,,,,,,,,,,,,,,,,,,,,,,,,
,,65563952de5c5569d4e55cb8,2024-02-18_20h12.51.547,kallum_motion_pilot,2023.2.2,Win32,59.88023952,65563952de5c5569d4e55cb8,65d2b6c8f2eece985d8e374c,65d2b8f8b376ecff2523cc21,0.0648,0.0649,1,70,232,50,1,twoone,,,,,,,,,,,,,,,,,,,,,,,,,,,,,,,,,,,,,,,,,,,,,,,,,,,,,,,,,,,,,,,,,,,,,,,,,,,,,,,,,,,,,,,,,,,,,,,,,,,,,,,,,,,,,,,,,,,,,,,,,,,,,,,,,,,,,,,,,
,,65563952de5c5569d4e55cb8,2024-02-18_20h12.51.547,kallum_motion_pilot,2023.2.2,Win32,59.88023952,65563952de5c5569d4e55cb8,65d2b6c8f2eece985d8e374c,65d2b8f8b376ecff2523cc21,0.065,0.0651,1,71,233,95,1,eightseven,,,,,,,,,,,,,,,,,,,,,,,,,,,,,,,,,,,,,,,,,,,,,,,,,,,,,,,,,,,,,,,,,,,,,,,,,,,,,,,,,,,,,,,,,,,,,,,,,,,,,,,,,,,,,,,,,,,,,,,,,,,,,,,,,,,,,,,,,
,,65563952de5c5569d4e55cb8,2024-02-18_20h12.51.547,kallum_motion_pilot,2023.2.2,Win32,59.88023952,65563952de5c5569d4e55cb8,65d2b6c8f2eece985d8e374c,65d2b8f8b376ecff2523cc21,0.0651,0.0652,1,72,234,155,1,sixeight,,,,,,,,,,,,,,,,,,,,,,,,,,,,,,,,,,,,,,,,,,,,,,,,,,,,,,,,,,,,,,,,,,,,,,,,,,,,,,,,,,,,,,,,,,,,,,,,,,,,,,,,,,,,,,,,,,,,,,,,,,,,,,,,,,,,,,,,,
,,65563952de5c5569d4e55cb8,2024-02-18_20h12.51.547,kallum_motion_pilot,2023.2.2,Win32,59.88023952,65563952de5c5569d4e55cb8,65d2b6c8f2eece985d8e374c,65d2b8f8b376ecff2523cc21,0.0652,0.0653,1,73,235,124,1,sevenfive,,,,,,,,,,,,,,,,,,,,,,,,,,,,,,,,,,,,,,,,,,,,,,,,,,,,,,,,,,,,,,,,,,,,,,,,,,,,,,,,,,,,,,,,,,,,,,,,,,,,,,,,,,,,,,,,,,,,,,,,,,,,,,,,,,,,,,,,,
,,65563952de5c5569d4e55cb8,2024-02-18_20h12.51.547,kallum_motion_pilot,2023.2.2,Win32,59.88023952,65563952de5c5569d4e55cb8,65d2b6c8f2eece985d8e374c,65d2b8f8b376ecff2523cc21,0.0654,0.0655,1,74,236,55,1,fourthree,,,,,,,,,,,,,,,,,,,,,,,,,,,,,,,,,,,,,,,,,,,,,,,,,,,,,,,,,,,,,,,,,,,,,,,,,,,,,,,,,,,,,,,,,,,,,,,,,,,,,,,,,,,,,,,,,,,,,,,,,,,,,,,,,,,,,,,,,
,,65563952de5c5569d4e55cb8,2024-02-18_20h12.51.547,kallum_motion_pilot,2023.2.2,Win32,59.88023952,65563952de5c5569d4e55cb8,65d2b6c8f2eece985d8e374c,65d2b8f8b376ecff2523cc21,0.0656,0.0657,1,75,237,99,1,sixeight,,,,,,,,,,,,,,,,,,,,,,,,,,,,,,,,,,,,,,,,,,,,,,,,,,,,,,,,,,,,,,,,,,,,,,,,,,,,,,,,,,,,,,,,,,,,,,,,,,,,,,,,,,,,,,,,,,,,,,,,,,,,,,,,,,,,,,,,,
,,65563952de5c5569d4e55cb8,2024-02-18_20h12.51.547,kallum_motion_pilot,2023.2.2,Win32,59.88023952,65563952de5c5569d4e55cb8,65d2b6c8f2eece985d8e374c,65d2b8f8b376ecff2523cc21,0.0658,0.0659,1,76,238,131,1,sixeight,,,,,,,,,,,,,,,,,,,,,,,,,,,,,,,,,,,,,,,,,,,,,,,,,,,,,,,,,,,,,,,,,,,,,,,,,,,,,,,,,,,,,,,,,,,,,,,,,,,,,,,,,,,,,,,,,,,,,,,,,,,,,,,,,,,,,,,,,
,,65563952de5c5569d4e55cb8,2024-02-18_20h12.51.547,kallum_motion_pilot,2023.2.2,Win32,59.88023952,65563952de5c5569d4e55cb8,65d2b6c8f2eece985d8e374c,65d2b8f8b376ecff2523cc21,0.0659,0.066,1,77,239,133,1,seveneight,,,,,,,,,,,,,,,,,,,,,,,,,,,,,,,,,,,,,,,,,,,,,,,,,,,,,,,,,,,,,,,,,,,,,,,,,,,,,,,,,,,,,,,,,,,,,,,,,,,,,,,,,,,,,,,,,,,,,,,,,,,,,,,,,,,,,,,,,
,,65563952de5c5569d4e55cb8,2024-02-18_20h12.51.547,kallum_motion_pilot,2023.2.2,Win32,59.88023952,65563952de5c5569d4e55cb8,65d2b6c8f2eece985d8e374c,65d2b8f8b376ecff2523cc21,0.0661,0.0662,1,78,240,126,1,eightsix,,,,,,,,,,,,,,,,,,,,,,,,,,,,,,,,,,,,,,,,,,,,,,,,,,,,,,,,,,,,,,,,,,,,,,,,,,,,,,,,,,,,,,,,,,,,,,,,,,,,,,,,,,,,,,,,,,,,,,,,,,,,,,,,,,,,,,,,,
,,65563952de5c5569d4e55cb8,2024-02-18_20h12.51.547,kallum_motion_pilot,2023.2.2,Win32,59.88023952,65563952de5c5569d4e55cb8,65d2b6c8f2eece985d8e374c,65d2b8f8b376ecff2523cc21,0.0663,0.0663,1,79,241,73,1,onethree,,,,,,,,,,,,,,,,,,,,,,,,,,,,,,,,,,,,,,,,,,,,,,,,,,,,,,,,,,,,,,,,,,,,,,,,,,,,,,,,,,,,,,,,,,,,,,,,,,,,,,,,,,,,,,,,,,,,,,,,,,,,,,,,,,,,,,,,,
,,65563952de5c5569d4e55cb8,2024-02-18_20h12.51.547,kallum_motion_pilot,2023.2.2,Win32,59.88023952,65563952de5c5569d4e55cb8,65d2b6c8f2eece985d8e374c,65d2b8f8b376ecff2523cc21,0.0664,0.0666,1,80,242,93,1,seveneight,,,,,,,,,,,,,,,,,,,,,,,,,,,,,,,,,,,,,,,,,,,,,,,,,,,,,,,,,,,,,,,,,,,,,,,,,,,,,,,,,,,,,,,,,,,,,,,,,,,,,,,,,,,,,,,,,,,,,,,,,,,,,,,,,,,,,,,,,
,,65563952de5c5569d4e55cb8,2024-02-18_20h12.51.547,kallum_motion_pilot,2023.2.2,Win32,59.88023952,65563952de5c5569d4e55cb8,65d2b6c8f2eece985d8e374c,65d2b8f8b376ecff2523cc21,0.0666,0.0667,1,81,243,120,1,fivesix,,,,,,,,,,,,,,,,,,,,,,,,,,,,,,,,,,,,,,,,,,,,,,,,,,,,,,,,,,,,,,,,,,,,,,,,,,,,,,,,,,,,,,,,,,,,,,,,,,,,,,,,,,,,,,,,,,,,,,,,,,,,,,,,,,,,,,,,,
,,65563952de5c5569d4e55cb8,2024-02-18_20h12.51.547,kallum_motion_pilot,2023.2.2,Win32,59.88023952,65563952de5c5569d4e55cb8,65d2b6c8f2eece985d8e374c,65d2b8f8b376ecff2523cc21,0.0667,0.0669,1,82,244,63,1,fourthree,,,,,,,,,,,,,,,,,,,,,,,,,,,,,,,,,,,,,,,,,,,,,,,,,,,,,,,,,,,,,,,,,,,,,,,,,,,,,,,,,,,,,,,,,,,,,,,,,,,,,,,,,,,,,,,,,,,,,,,,,,,,,,,,,,,,,,,,,
,,65563952de5c5569d4e55cb8,2024-02-18_20h12.51.547,kallum_motion_pilot,2023.2.2,Win32,59.88023952,65563952de5c5569d4e55cb8,65d2b6c8f2eece985d8e374c,65d2b8f8b376ecff2523cc21,0.0669,0.067,1,83,245,123,1,sixeight,,,,,,,,,,,,,,,,,,,,,,,,,,,,,,,,,,,,,,,,,,,,,,,,,,,,,,,,,,,,,,,,,,,,,,,,,,,,,,,,,,,,,,,,,,,,,,,,,,,,,,,,,,,,,,,,,,,,,,,,,,,,,,,,,,,,,,,,,
,,65563952de5c5569d4e55cb8,2024-02-18_20h12.51.547,kallum_motion_pilot,2023.2.2,Win32,59.88023952,65563952de5c5569d4e55cb8,65d2b6c8f2eece985d8e374c,65d2b8f8b376ecff2523cc21,0.0671,0.0672,1,84,246,135,1,eightseven,,,,,,,,,,,,,,,,,,,,,,,,,,,,,,,,,,,,,,,,,,,,,,,,,,,,,,,,,,,,,,,,,,,,,,,,,,,,,,,,,,,,,,,,,,,,,,,,,,,,,,,,,,,,,,,,,,,,,,,,,,,,,,,,,,,,,,,,,
,,65563952de5c5569d4e55cb8,2024-02-18_20h12.51.547,kallum_motion_pilot,2023.2.2,Win32,59.88023952,65563952de5c5569d4e55cb8,65d2b6c8f2eece985d8e374c,65d2b8f8b376ecff2523cc21,0.0672,0.0674,1,85,247,4,1,threeone,,,,,,,,,,,,,,,,,,,,,,,,,,,,,,,,,,,,,,,,,,,,,,,,,,,,,,,,,,,,,,,,,,,,,,,,,,,,,,,,,,,,,,,,,,,,,,,,,,,,,,,,,,,,,,,,,,,,,,,,,,,,,,,,,,,,,,,,,
,,65563952de5c5569d4e55cb8,2024-02-18_20h12.51.547,kallum_motion_pilot,2023.2.2,Win32,59.88023952,65563952de5c5569d4e55cb8,65d2b6c8f2eece985d8e374c,65d2b8f8b376ecff2523cc21,0.0675,0.0675,1,86,248,158,1,eightsix,,,,,,,,,,,,,,,,,,,,,,,,,,,,,,,,,,,,,,,,,,,,,,,,,,,,,,,,,,,,,,,,,,,,,,,,,,,,,,,,,,,,,,,,,,,,,,,,,,,,,,,,,,,,,,,,,,,,,,,,,,,,,,,,,,,,,,,,,
,,65563952de5c5569d4e55cb8,2024-02-18_20h12.51.547,kallum_motion_pilot,2023.2.2,Win32,59.88023952,65563952de5c5569d4e55cb8,65d2b6c8f2eece985d8e374c,65d2b8f8b376ecff2523cc21,0.0676,0.0677,1,87,249,118,1,eightsix,,,,,,,,,,,,,,,,,,,,,,,,,,,,,,,,,,,,,,,,,,,,,,,,,,,,,,,,,,,,,,,,,,,,,,,,,,,,,,,,,,,,,,,,,,,,,,,,,,,,,,,,,,,,,,,,,,,,,,,,,,,,,,,,,,,,,,,,,
,,65563952de5c5569d4e55cb8,2024-02-18_20h12.51.547,kallum_motion_pilot,2023.2.2,Win32,59.88023952,65563952de5c5569d4e55cb8,65d2b6c8f2eece985d8e374c,65d2b8f8b376ecff2523cc21,0.0677,0.0678,1,88,250,17,1,onethree,,,,,,,,,,,,,,,,,,,,,,,,,,,,,,,,,,,,,,,,,,,,,,,,,,,,,,,,,,,,,,,,,,,,,,,,,,,,,,,,,,,,,,,,,,,,,,,,,,,,,,,,,,,,,,,,,,,,,,,,,,,,,,,,,,,,,,,,,
,,65563952de5c5569d4e55cb8,2024-02-18_20h12.51.547,kallum_motion_pilot,2023.2.2,Win32,59.88023952,65563952de5c5569d4e55cb8,65d2b6c8f2eece985d8e374c,65d2b8f8b376ecff2523cc21,0.0679,0.0681,1,89,251,12,1,threeone,,,,,,,,,,,,,,,,,,,,,,,,,,,,,,,,,,,,,,,,,,,,,,,,,,,,,,,,,,,,,,,,,,,,,,,,,,,,,,,,,,,,,,,,,,,,,,,,,,,,,,,,,,,,,,,,,,,,,,,,,,,,,,,,,,,,,,,,,
,,65563952de5c5569d4e55cb8,2024-02-18_20h12.51.547,kallum_motion_pilot,2023.2.2,Win32,59.88023952,65563952de5c5569d4e55cb8,65d2b6c8f2eece985d8e374c,65d2b8f8b376ecff2523cc21,0.0681,0.0682,1,90,252,38,1,fourtwo,,,,,,,,,,,,,,,,,,,,,,,,,,,,,,,,,,,,,,,,,,,,,,,,,,,,,,,,,,,,,,,,,,,,,,,,,,,,,,,,,,,,,,,,,,,,,,,,,,,,,,,,,,,,,,,,,,,,,,,,,,,,,,,,,,,,,,,,,
,,65563952de5c5569d4e55cb8,2024-02-18_20h12.51.547,kallum_motion_pilot,2023.2.2,Win32,59.88023952,65563952de5c5569d4e55cb8,65d2b6c8f2eece985d8e374c,65d2b8f8b376ecff2523cc21,0.0682,0.0684,1,91,253,68,1,threeone,,,,,,,,,,,,,,,,,,,,,,,,,,,,,,,,,,,,,,,,,,,,,,,,,,,,,,,,,,,,,,,,,,,,,,,,,,,,,,,,,,,,,,,,,,,,,,,,,,,,,,,,,,,,,,,,,,,,,,,,,,,,,,,,,,,,,,,,,
,,65563952de5c5569d4e55cb8,2024-02-18_20h12.51.547,kallum_motion_pilot,2023.2.2,Win32,59.88023952,65563952de5c5569d4e55cb8,65d2b6c8f2eece985d8e374c,65d2b8f8b376ecff2523cc21,0.0684,0.0686,1,92,254,24,1,onetwo,,,,,,,,,,,,,,,,,,,,,,,,,,,,,,,,,,,,,,,,,,,,,,,,,,,,,,,,,,,,,,,,,,,,,,,,,,,,,,,,,,,,,,,,,,,,,,,,,,,,,,,,,,,,,,,,,,,,,,,,,,,,,,,,,,,,,,,,,
,,65563952de5c5569d4e55cb8,2024-02-18_20h12.51.547,kallum_motion_pilot,2023.2.2,Win32,59.88023952,65563952de5c5569d4e55cb8,65d2b6c8f2eece985d8e374c,65d2b8f8b376ecff2523cc21,0.0687,0.0688,1,93,255,37,1,threefour,,,,,,,,,,,,,,,,,,,,,,,,,,,,,,,,,,,,,,,,,,,,,,,,,,,,,,,,,,,,,,,,,,,,,,,,,,,,,,,,,,,,,,,,,,,,,,,,,,,,,,,,,,,,,,,,,,,,,,,,,,,,,,,,,,,,,,,,,
,,65563952de5c5569d4e55cb8,2024-02-18_20h12.51.547,kallum_motion_pilot,2023.2.2,Win32,59.88023952,65563952de5c5569d4e55cb8,65d2b6c8f2eece985d8e374c,65d2b8f8b376ecff2523cc21,0.0689,0.069,1,94,256,65,1,onethree,,,,,,,,,,,,,,,,,,,,,,,,,,,,,,,,,,,,,,,,,,,,,,,,,,,,,,,,,,,,,,,,,,,,,,,,,,,,,,,,,,,,,,,,,,,,,,,,,,,,,,,,,,,,,,,,,,,,,,,,,,,,,,,,,,,,,,,,,
,,65563952de5c5569d4e55cb8,2024-02-18_20h12.51.547,kallum_motion_pilot,2023.2.2,Win32,59.88023952,65563952de5c5569d4e55cb8,65d2b6c8f2eece985d8e374c,65d2b8f8b376ecff2523cc21,0.0691,0.0692,1,95,257,82,1,sixfive,,,,,,,,,,,,,,,,,,,,,,,,,,,,,,,,,,,,,,,,,,,,,,,,,,,,,,,,,,,,,,,,,,,,,,,,,,,,,,,,,,,,,,,,,,,,,,,,,,,,,,,,,,,,,,,,,,,,,,,,,,,,,,,,,,,,,,,,,
,,65563952de5c5569d4e55cb8,2024-02-18_20h12.51.547,kallum_motion_pilot,2023.2.2,Win32,59.88023952,65563952de5c5569d4e55cb8,65d2b6c8f2eece985d8e374c,65d2b8f8b376ecff2523cc21,0.0692,0.0694,1,96,258,53,1,threefour,,,,,,,,,,,,,,,,,,,,,,,,,,,,,,,,,,,,,,,,,,,,,,,,,,,,,,,,,,,,,,,,,,,,,,,,,,,,,,,,,,,,,,,,,,,,,,,,,,,,,,,,,,,,,,,,,,,,,,,,,,,,,,,,,,,,,,,,,
,,65563952de5c5569d4e55cb8,2024-02-18_20h12.51.547,kallum_motion_pilot,2023.2.2,Win32,59.88023952,65563952de5c5569d4e55cb8,65d2b6c8f2eece985d8e374c,65d2b8f8b376ecff2523cc21,0.0695,0.0695,1,97,259,88,1,fivesix,,,,,,,,,,,,,,,,,,,,,,,,,,,,,,,,,,,,,,,,,,,,,,,,,,,,,,,,,,,,,,,,,,,,,,,,,,,,,,,,,,,,,,,,,,,,,,,,,,,,,,,,,,,,,,,,,,,,,,,,,,,,,,,,,,,,,,,,,
,,65563952de5c5569d4e55cb8,2024-02-18_20h12.51.547,kallum_motion_pilot,2023.2.2,Win32,59.88023952,65563952de5c5569d4e55cb8,65d2b6c8f2eece985d8e374c,65d2b8f8b376ecff2523cc21,0.0697,0.0697,1,98,260,98,1,sixfive,,,,,,,,,,,,,,,,,,,,,,,,,,,,,,,,,,,,,,,,,,,,,,,,,,,,,,,,,,,,,,,,,,,,,,,,,,,,,,,,,,,,,,,,,,,,,,,,,,,,,,,,,,,,,,,,,,,,,,,,,,,,,,,,,,,,,,,,,
,,65563952de5c5569d4e55cb8,2024-02-18_20h12.51.547,kallum_motion_pilot,2023.2.2,Win32,59.88023952,65563952de5c5569d4e55cb8,65d2b6c8f2eece985d8e374c,65d2b8f8b376ecff2523cc21,0.0698,0.0699,1,99,261,94,1,eightsix,,,,,,,,,,,,,,,,,,,,,,,,,,,,,,,,,,,,,,,,,,,,,,,,,,,,,,,,,,,,,,,,,,,,,,,,,,,,,,,,,,,,,,,,,,,,,,,,,,,,,,,,,,,,,,,,,,,,,,,,,,,,,,,,,,,,,,,,,
,,65563952de5c5569d4e55cb8,2024-02-18_20h12.51.547,kallum_motion_pilot,2023.2.2,Win32,59.88023952,65563952de5c5569d4e55cb8,65d2b6c8f2eece985d8e374c,65d2b8f8b376ecff2523cc21,0.07,0.0701,1,100,262,77,1,threefour,,,,,,,,,,,,,,,,,,,,,,,,,,,,,,,,,,,,,,,,,,,,,,,,,,,,,,,,,,,,,,,,,,,,,,,,,,,,,,,,,,,,,,,,,,,,,,,,,,,,,,,,,,,,,,,,,,,,,,,,,,,,,,,,,,,,,,,,,
,,65563952de5c5569d4e55cb8,2024-02-18_20h12.51.547,kallum_motion_pilot,2023.2.2,Win32,59.88023952,65563952de5c5569d4e55cb8,65d2b6c8f2eece985d8e374c,65d2b8f8b376ecff2523cc21,0.0702,0.0702,1,101,263,138,1,sixfive,,,,,,,,,,,,,,,,,,,,,,,,,,,,,,,,,,,,,,,,,,,,,,,,,,,,,,,,,,,,,,,,,,,,,,,,,,,,,,,,,,,,,,,,,,,,,,,,,,,,,,,,,,,,,,,,,,,,,,,,,,,,,,,,,,,,,,,,,
,,65563952de5c5569d4e55cb8,2024-02-18_20h12.51.547,kallum_motion_pilot,2023.2.2,Win32,59.88023952,65563952de5c5569d4e55cb8,65d2b6c8f2eece985d8e374c,65d2b8f8b376ecff2523cc21,0.0704,0.0705,1,102,264,6,1,fourtwo,,,,,,,,,,,,,,,,,,,,,,,,,,,,,,,,,,,,,,,,,,,,,,,,,,,,,,,,,,,,,,,,,,,,,,,,,,,,,,,,,,,,,,,,,,,,,,,,,,,,,,,,,,,,,,,,,,,,,,,,,,,,,,,,,,,,,,,,,
,,65563952de5c5569d4e55cb8,2024-02-18_20h12.51.547,kallum_motion_pilot,2023.2.2,Win32,59.88023952,65563952de5c5569d4e55cb8,65d2b6c8f2eece985d8e374c,65d2b8f8b376ecff2523cc21,0.072,0.0721,1,103,265,21,1,threefour,,,,,,,,,,,,,,,,,,,,,,,,,,,,,,,,,,,,,,,,,,,,,,,,,,,,,,,,,,,,,,,,,,,,,,,,,,,,,,,,,,,,,,,,,,,,,,,,,,,,,,,,,,,,,,,,,,,,,,,,,,,,,,,,,,,,,,,,,
,,65563952de5c5569d4e55cb8,2024-02-18_20h12.51.547,kallum_motion_pilot,2023.2.2,Win32,59.88023952,65563952de5c5569d4e55cb8,65d2b6c8f2eece985d8e374c,65d2b8f8b376ecff2523cc21,0.0722,0.0723,1,104,266,128,1,fivesix,,,,,,,,,,,,,,,,,,,,,,,,,,,,,,,,,,,,,,,,,,,,,,,,,,,,,,,,,,,,,,,,,,,,,,,,,,,,,,,,,,,,,,,,,,,,,,,,,,,,,,,,,,,,,,,,,,,,,,,,,,,,,,,,,,,,,,,,,
,,65563952de5c5569d4e55cb8,2024-02-18_20h12.51.547,kallum_motion_pilot,2023.2.2,Win32,59.88023952,65563952de5c5569d4e55cb8,65d2b6c8f2eece985d8e374c,65d2b8f8b376ecff2523cc21,0.0723,0.0725,1,105,267,2,1,twoone,,,,,,,,,,,,,,,,,,,,,,,,,,,,,,,,,,,,,,,,,,,,,,,,,,,,,,,,,,,,,,,,,,,,,,,,,,,,,,,,,,,,,,,,,,,,,,,,,,,,,,,,,,,,,,,,,,,,,,,,,,,,,,,,,,,,,,,,,
,,65563952de5c5569d4e55cb8,2024-02-18_20h12.51.547,kallum_motion_pilot,2023.2.2,Win32,59.88023952,65563952de5c5569d4e55cb8,65d2b6c8f2eece985d8e374c,65d2b8f8b376ecff2523cc21,0.0725,0.0725,1,106,268,151,1,eightseven,,,,,,,,,,,,,,,,,,,,,,,,,,,,,,,,,,,,,,,,,,,,,,,,,,,,,,,,,,,,,,,,,,,,,,,,,,,,,,,,,,,,,,,,,,,,,,,,,,,,,,,,,,,,,,,,,,,,,,,,,,,,,,,,,,,,,,,,,
,,65563952de5c5569d4e55cb8,2024-02-18_20h12.51.547,kallum_motion_pilot,2023.2.2,Win32,59.88023952,65563952de5c5569d4e55cb8,65d2b6c8f2eece985d8e374c,65d2b8f8b376ecff2523cc21,0.0727,0.0728,1,107,269,83,1,sixeight,,,,,,,,,,,,,,,,,,,,,,,,,,,,,,,,,,,,,,,,,,,,,,,,,,,,,,,,,,,,,,,,,,,,,,,,,,,,,,,,,,,,,,,,,,,,,,,,,,,,,,,,,,,,,,,,,,,,,,,,,,,,,,,,,,,,,,,,,
,,65563952de5c5569d4e55cb8,2024-02-18_20h12.51.547,kallum_motion_pilot,2023.2.2,Win32,59.88023952,65563952de5c5569d4e55cb8,65d2b6c8f2eece985d8e374c,65d2b8f8b376ecff2523cc21,0.0728,0.073,1,108,270,34,1,twoone,,,,,,,,,,,,,,,,,,,,,,,,,,,,,,,,,,,,,,,,,,,,,,,,,,,,,,,,,,,,,,,,,,,,,,,,,,,,,,,,,,,,,,,,,,,,,,,,,,,,,,,,,,,,,,,,,,,,,,,,,,,,,,,,,,,,,,,,,
,,65563952de5c5569d4e55cb8,2024-02-18_20h12.51.547,kallum_motion_pilot,2023.2.2,Win32,59.88023952,65563952de5c5569d4e55cb8,65d2b6c8f2eece985d8e374c,65d2b8f8b376ecff2523cc21,0.0731,0.0733,1,109,271,113,1,fiveseven,,,,,,,,,,,,,,,,,,,,,,,,,,,,,,,,,,,,,,,,,,,,,,,,,,,,,,,,,,,,,,,,,,,,,,,,,,,,,,,,,,,,,,,,,,,,,,,,,,,,,,,,,,,,,,,,,,,,,,,,,,,,,,,,,,,,,,,,,
,,65563952de5c5569d4e55cb8,2024-02-18_20h12.51.547,kallum_motion_pilot,2023.2.2,Win32,59.88023952,65563952de5c5569d4e55cb8,65d2b6c8f2eece985d8e374c,65d2b8f8b376ecff2523cc21,0.0734,0.0735,1,110,272,22,1,fourtwo,,,,,,,,,,,,,,,,,,,,,,,,,,,,,,,,,,,,,,,,,,,,,,,,,,,,,,,,,,,,,,,,,,,,,,,,,,,,,,,,,,,,,,,,,,,,,,,,,,,,,,,,,,,,,,,,,,,,,,,,,,,,,,,,,,,,,,,,,
,,65563952de5c5569d4e55cb8,2024-02-18_20h12.51.547,kallum_motion_pilot,2023.2.2,Win32,59.88023952,65563952de5c5569d4e55cb8,65d2b6c8f2eece985d8e374c,65d2b8f8b376ecff2523cc21,0.0737,0.0738,1,111,273,20,1,threeone,,,,,,,,,,,,,,,,,,,,,,,,,,,,,,,,,,,,,,,,,,,,,,,,,,,,,,,,,,,,,,,,,,,,,,,,,,,,,,,,,,,,,,,,,,,,,,,,,,,,,,,,,,,,,,,,,,,,,,,,,,,,,,,,,,,,,,,,,
,,65563952de5c5569d4e55cb8,2024-02-18_20h12.51.547,kallum_motion_pilot,2023.2.2,Win32,59.88023952,65563952de5c5569d4e55cb8,65d2b6c8f2eece985d8e374c,65d2b8f8b376ecff2523cc21,0.0739,0.074,1,112,274,147,1,sixeight,,,,,,,,,,,,,,,,,,,,,,,,,,,,,,,,,,,,,,,,,,,,,,,,,,,,,,,,,,,,,,,,,,,,,,,,,,,,,,,,,,,,,,,,,,,,,,,,,,,,,,,,,,,,,,,,,,,,,,,,,,,,,,,,,,,,,,,,,
,,65563952de5c5569d4e55cb8,2024-02-18_20h12.51.547,kallum_motion_pilot,2023.2.2,Win32,59.88023952,65563952de5c5569d4e55cb8,65d2b6c8f2eece985d8e374c,65d2b8f8b376ecff2523cc21,0.0741,0.0742,1,113,275,67,1,twofour,,,,,,,,,,,,,,,,,,,,,,,,,,,,,,,,,,,,,,,,,,,,,,,,,,,,,,,,,,,,,,,,,,,,,,,,,,,,,,,,,,,,,,,,,,,,,,,,,,,,,,,,,,,,,,,,,,,,,,,,,,,,,,,,,,,,,,,,,
,,65563952de5c5569d4e55cb8,2024-02-18_20h12.51.547,kallum_motion_pilot,2023.2.2,Win32,59.88023952,65563952de5c5569d4e55cb8,65d2b6c8f2eece985d8e374c,65d2b8f8b376ecff2523cc21,0.0742,0.0743,1,114,276,5,1,threefour,,,,,,,,,,,,,,,,,,,,,,,,,,,,,,,,,,,,,,,,,,,,,,,,,,,,,,,,,,,,,,,,,,,,,,,,,,,,,,,,,,,,,,,,,,,,,,,,,,,,,,,,,,,,,,,,,,,,,,,,,,,,,,,,,,,,,,,,,
,,65563952de5c5569d4e55cb8,2024-02-18_20h12.51.547,kallum_motion_pilot,2023.2.2,Win32,59.88023952,65563952de5c5569d4e55cb8,65d2b6c8f2eece985d8e374c,65d2b8f8b376ecff2523cc21,0.0744,0.0745,1,115,277,112,1,fivesix,,,,,,,,,,,,,,,,,,,,,,,,,,,,,,,,,,,,,,,,,,,,,,,,,,,,,,,,,,,,,,,,,,,,,,,,,,,,,,,,,,,,,,,,,,,,,,,,,,,,,,,,,,,,,,,,,,,,,,,,,,,,,,,,,,,,,,,,,
