startup.started,startup.stopped,Prolific ID*,date,expName,psychopyVersion,OS,frameRate,participant,study_id,session,stimpositions.started,stimpositions.stopped,hardcoded_stimulus_positions.thisRepN,hardcoded_stimulus_positions.thisTrialN,hardcoded_stimulus_positions.thisN,hardcoded_stimulus_positions.thisIndex,hardcoded_stimulus_positions.ran,StimulusPos,stimorientation.started,stimorientation.stopped,prac_stimorientation_import_loop.thisRepN,prac_stimorientation_import_loop.thisTrialN,prac_stimorientation_import_loop.thisN,prac_stimorientation_import_loop.thisIndex,prac_stimorientation_import_loop.ran,Stimorientation,welcome_instr.started,welcome_instr.stopped,key_resp.keys,key_resp.rt,key_resp.duration,response_steppedout_1.started,response_steppedout_1.stopped,key_resp_20.keys,key_resp_20.rt,key_resp_20.duration,response_steppedout_2.started,response_steppedout_2.stopped,key_resp_19.keys,key_resp_19.rt,key_resp_19.duration,stim_response_instr.started,stim_response_instr.stopped,key_resp_15.keys,key_resp_15.rt,key_resp_15.duration,direction_instr_2.started,direction_instr_2.stopped,key_resp_9.keys,key_resp_9.rt,key_resp_9.duration,instr_prac.started,instr_prac.stopped,key_resp_10.keys,key_resp_10.rt,key_resp_10.duration,Stim1_display_prac.started,Stim1_display_prac.stopped,Ecc,Circle1_ori,Circle2_ori,response_prac.started,similarity,response_time,response_prac.stopped,mouse_5.x,mouse_5.y,mouse_5.leftButton,mouse_5.midButton,mouse_5.rightButton,mouse_5.clicked_name,responseprac_feedback.started,responseprac_feedback.stopped,summary2_prac.started,summary2_prac.stopped,mouse_6.x,mouse_6.y,mouse_6.leftButton,mouse_6.midButton,mouse_6.rightButton,mouse_6.clicked_name,duringprac.thisRepN,duringprac.thisTrialN,duringprac.thisN,duringprac.thisIndex,duringprac.ran,begin.started,begin.stopped,key_resp_22.keys,key_resp_22.rt,key_resp_22.duration,Stim1_display.started,Stim1_display.stopped,circle1_ori,circle2_ori,circle1_SF,circle2_SF,response.started,response.stopped,mouse.x,mouse.y,mouse.leftButton,mouse.midButton,mouse.rightButton,mouse.clicked_name,trialnumber,double_pass.thisRepN,double_pass.thisTrialN,double_pass.thisN,double_pass.thisIndex,double_pass.ran,double_pass.order,main_trial.thisRepN,main_trial.thisTrialN,main_trial.thisN,main_trial.thisIndex,main_trial.ran,main_trial.order,Trial_Counter,Catch,Frequencies,response_2.started,response_2.stopped,mouse_2.x,mouse_2.y,mouse_2.leftButton,mouse_2.midButton,mouse_2.rightButton,mouse_2.clicked_name,special_trial.started,special_trial.stopped,catch_1.started,catch_1.stopped,mouse_3.x,mouse_3.y,mouse_3.leftButton,mouse_3.midButton,mouse_3.rightButton,catchresponse,catchnumber,response_time_catch,response_sum.started,response_sum.stopped,mouse_11.x,mouse_11.y,mouse_11.leftButton,mouse_11.midButton,mouse_11.rightButton,flip_presentation_sequence_for_double_pass.started,flip_presentation_sequence_for_double_pass.stopped,goodbye.started,goodbye.stopped,key_resp_3.keys,key_resp_3.rt,key_resp_3.duration
0.0004,0.0005,655fdf554b84fb6cbc5d4b93,2024-02-22_14h27.58.498,kallum_motion_pilot,2023.2.2,Win32,59.88023952,655fdf554b84fb6cbc5d4b93,65d6bb0e977760de756971f7,65d6bf1c0a464a429d9a917a,,,,,,,,,,,,,,,,,,,,,,,,,,,,,,,,,,,,,,,,,,,,,,,,,,,,,,,,,,,,,,,,,,,,,,,,,,,,,,,,,,,,,,,,,,,,,,,,,,,,,,,,,,,,,,,,,,,,,,,,,,,,,,,,,,,,,,,,,,,,,,,,,
,,655fdf554b84fb6cbc5d4b93,2024-02-22_14h27.58.498,kallum_motion_pilot,2023.2.2,Win32,59.88023952,655fdf554b84fb6cbc5d4b93,65d6bb0e977760de756971f7,65d6bf1c0a464a429d9a917a,0.0387,0.0392,0,0,0,43,1,twofour,,,,,,,,,,,,,,,,,,,,,,,,,,,,,,,,,,,,,,,,,,,,,,,,,,,,,,,,,,,,,,,,,,,,,,,,,,,,,,,,,,,,,,,,,,,,,,,,,,,,,,,,,,,,,,,,,,,,,,,,,,,,,,,,,,,,,,,,,
,,655fdf554b84fb6cbc5d4b93,2024-02-22_14h27.58.498,kallum_motion_pilot,2023.2.2,Win32,59.88023952,655fdf554b84fb6cbc5d4b93,65d6bb0e977760de756971f7,65d6bf1c0a464a429d9a917a,0.0397,0.0397,0,1,1,150,1,eightsix,,,,,,,,,,,,,,,,,,,,,,,,,,,,,,,,,,,,,,,,,,,,,,,,,,,,,,,,,,,,,,,,,,,,,,,,,,,,,,,,,,,,,,,,,,,,,,,,,,,,,,,,,,,,,,,,,,,,,,,,,,,,,,,,,,,,,,,,,
,,655fdf554b84fb6cbc5d4b93,2024-02-22_14h27.58.498,kallum_motion_pilot,2023.2.2,Win32,59.88023952,655fdf554b84fb6cbc5d4b93,65d6bb0e977760de756971f7,65d6bf1c0a464a429d9a917a,0.0399,0.0399,0,2,2,113,1,fiveseven,,,,,,,,,,,,,,,,,,,,,,,,,,,,,,,,,,,,,,,,,,,,,,,,,,,,,,,,,,,,,,,,,,,,,,,,,,,,,,,,,,,,,,,,,,,,,,,,,,,,,,,,,,,,,,,,,,,,,,,,,,,,,,,,,,,,,,,,,
,,655fdf554b84fb6cbc5d4b93,2024-02-22_14h27.58.498,kallum_motion_pilot,2023.2.2,Win32,59.88023952,655fdf554b84fb6cbc5d4b93,65d6bb0e977760de756971f7,65d6bf1c0a464a429d9a917a,0.0401,0.0402,0,3,3,86,1,eightsix,,,,,,,,,,,,,,,,,,,,,,,,,,,,,,,,,,,,,,,,,,,,,,,,,,,,,,,,,,,,,,,,,,,,,,,,,,,,,,,,,,,,,,,,,,,,,,,,,,,,,,,,,,,,,,,,,,,,,,,,,,,,,,,,,,,,,,,,,
,,655fdf554b84fb6cbc5d4b93,2024-02-22_14h27.58.498,kallum_motion_pilot,2023.2.2,Win32,59.88023952,655fdf554b84fb6cbc5d4b93,65d6bb0e977760de756971f7,65d6bf1c0a464a429d9a917a,0.0404,0.0405,0,4,4,53,1,threefour,,,,,,,,,,,,,,,,,,,,,,,,,,,,,,,,,,,,,,,,,,,,,,,,,,,,,,,,,,,,,,,,,,,,,,,,,,,,,,,,,,,,,,,,,,,,,,,,,,,,,,,,,,,,,,,,,,,,,,,,,,,,,,,,,,,,,,,,,
,,655fdf554b84fb6cbc5d4b93,2024-02-22_14h27.58.498,kallum_motion_pilot,2023.2.2,Win32,59.88023952,655fdf554b84fb6cbc5d4b93,65d6bb0e977760de756971f7,65d6bf1c0a464a429d9a917a,0.0406,0.0406,0,5,5,64,1,onetwo,,,,,,,,,,,,,,,,,,,,,,,,,,,,,,,,,,,,,,,,,,,,,,,,,,,,,,,,,,,,,,,,,,,,,,,,,,,,,,,,,,,,,,,,,,,,,,,,,,,,,,,,,,,,,,,,,,,,,,,,,,,,,,,,,,,,,,,,,
,,655fdf554b84fb6cbc5d4b93,2024-02-22_14h27.58.498,kallum_motion_pilot,2023.2.2,Win32,59.88023952,655fdf554b84fb6cbc5d4b93,65d6bb0e977760de756971f7,65d6bf1c0a464a429d9a917a,0.0408,0.0408,0,6,6,33,1,onethree,,,,,,,,,,,,,,,,,,,,,,,,,,,,,,,,,,,,,,,,,,,,,,,,,,,,,,,,,,,,,,,,,,,,,,,,,,,,,,,,,,,,,,,,,,,,,,,,,,,,,,,,,,,,,,,,,,,,,,,,,,,,,,,,,,,,,,,,,
,,655fdf554b84fb6cbc5d4b93,2024-02-22_14h27.58.498,kallum_motion_pilot,2023.2.2,Win32,59.88023952,655fdf554b84fb6cbc5d4b93,65d6bb0e977760de756971f7,65d6bf1c0a464a429d9a917a,0.041,0.0411,0,7,7,37,1,threefour,,,,,,,,,,,,,,,,,,,,,,,,,,,,,,,,,,,,,,,,,,,,,,,,,,,,,,,,,,,,,,,,,,,,,,,,,,,,,,,,,,,,,,,,,,,,,,,,,,,,,,,,,,,,,,,,,,,,,,,,,,,,,,,,,,,,,,,,,
,,655fdf554b84fb6cbc5d4b93,2024-02-22_14h27.58.498,kallum_motion_pilot,2023.2.2,Win32,59.88023952,655fdf554b84fb6cbc5d4b93,65d6bb0e977760de756971f7,65d6bf1c0a464a429d9a917a,0.0414,0.0415,0,8,8,153,1,fiveseven,,,,,,,,,,,,,,,,,,,,,,,,,,,,,,,,,,,,,,,,,,,,,,,,,,,,,,,,,,,,,,,,,,,,,,,,,,,,,,,,,,,,,,,,,,,,,,,,,,,,,,,,,,,,,,,,,,,,,,,,,,,,,,,,,,,,,,,,,
,,655fdf554b84fb6cbc5d4b93,2024-02-22_14h27.58.498,kallum_motion_pilot,2023.2.2,Win32,59.88023952,655fdf554b84fb6cbc5d4b93,65d6bb0e977760de756971f7,65d6bf1c0a464a429d9a917a,0.0417,0.0418,0,9,9,91,1,sixeight,,,,,,,,,,,,,,,,,,,,,,,,,,,,,,,,,,,,,,,,,,,,,,,,,,,,,,,,,,,,,,,,,,,,,,,,,,,,,,,,,,,,,,,,,,,,,,,,,,,,,,,,,,,,,,,,,,,,,,,,,,,,,,,,,,,,,,,,,
,,655fdf554b84fb6cbc5d4b93,2024-02-22_14h27.58.498,kallum_motion_pilot,2023.2.2,Win32,59.88023952,655fdf554b84fb6cbc5d4b93,65d6bb0e977760de756971f7,65d6bf1c0a464a429d9a917a,0.042,0.042,0,10,10,26,1,twoone,,,,,,,,,,,,,,,,,,,,,,,,,,,,,,,,,,,,,,,,,,,,,,,,,,,,,,,,,,,,,,,,,,,,,,,,,,,,,,,,,,,,,,,,,,,,,,,,,,,,,,,,,,,,,,,,,,,,,,,,,,,,,,,,,,,,,,,,,
,,655fdf554b84fb6cbc5d4b93,2024-02-22_14h27.58.498,kallum_motion_pilot,2023.2.2,Win32,59.88023952,655fdf554b84fb6cbc5d4b93,65d6bb0e977760de756971f7,65d6bf1c0a464a429d9a917a,0.0422,0.0423,0,11,11,96,1,fivesix,,,,,,,,,,,,,,,,,,,,,,,,,,,,,,,,,,,,,,,,,,,,,,,,,,,,,,,,,,,,,,,,,,,,,,,,,,,,,,,,,,,,,,,,,,,,,,,,,,,,,,,,,,,,,,,,,,,,,,,,,,,,,,,,,,,,,,,,,
,,655fdf554b84fb6cbc5d4b93,2024-02-22_14h27.58.498,kallum_motion_pilot,2023.2.2,Win32,59.88023952,655fdf554b84fb6cbc5d4b93,65d6bb0e977760de756971f7,65d6bf1c0a464a429d9a917a,0.0425,0.0425,0,12,12,81,1,fiveseven,,,,,,,,,,,,,,,,,,,,,,,,,,,,,,,,,,,,,,,,,,,,,,,,,,,,,,,,,,,,,,,,,,,,,,,,,,,,,,,,,,,,,,,,,,,,,,,,,,,,,,,,,,,,,,,,,,,,,,,,,,,,,,,,,,,,,,,,,
,,655fdf554b84fb6cbc5d4b93,2024-02-22_14h27.58.498,kallum_motion_pilot,2023.2.2,Win32,59.88023952,655fdf554b84fb6cbc5d4b93,65d6bb0e977760de756971f7,65d6bf1c0a464a429d9a917a,0.0427,0.0427,0,13,13,4,1,threeone,,,,,,,,,,,,,,,,,,,,,,,,,,,,,,,,,,,,,,,,,,,,,,,,,,,,,,,,,,,,,,,,,,,,,,,,,,,,,,,,,,,,,,,,,,,,,,,,,,,,,,,,,,,,,,,,,,,,,,,,,,,,,,,,,,,,,,,,,
,,655fdf554b84fb6cbc5d4b93,2024-02-22_14h27.58.498,kallum_motion_pilot,2023.2.2,Win32,59.88023952,655fdf554b84fb6cbc5d4b93,65d6bb0e977760de756971f7,65d6bf1c0a464a429d9a917a,0.0428,0.0429,0,14,14,74,1,twoone,,,,,,,,,,,,,,,,,,,,,,,,,,,,,,,,,,,,,,,,,,,,,,,,,,,,,,,,,,,,,,,,,,,,,,,,,,,,,,,,,,,,,,,,,,,,,,,,,,,,,,,,,,,,,,,,,,,,,,,,,,,,,,,,,,,,,,,,,
,,655fdf554b84fb6cbc5d4b93,2024-02-22_14h27.58.498,kallum_motion_pilot,2023.2.2,Win32,59.88023952,655fdf554b84fb6cbc5d4b93,65d6bb0e977760de756971f7,65d6bf1c0a464a429d9a917a,0.0429,0.0429,0,15,15,134,1,eightsix,,,,,,,,,,,,,,,,,,,,,,,,,,,,,,,,,,,,,,,,,,,,,,,,,,,,,,,,,,,,,,,,,,,,,,,,,,,,,,,,,,,,,,,,,,,,,,,,,,,,,,,,,,,,,,,,,,,,,,,,,,,,,,,,,,,,,,,,,
,,655fdf554b84fb6cbc5d4b93,2024-02-22_14h27.58.498,kallum_motion_pilot,2023.2.2,Win32,59.88023952,655fdf554b84fb6cbc5d4b93,65d6bb0e977760de756971f7,65d6bf1c0a464a429d9a917a,0.0431,0.0432,0,16,16,6,1,fourtwo,,,,,,,,,,,,,,,,,,,,,,,,,,,,,,,,,,,,,,,,,,,,,,,,,,,,,,,,,,,,,,,,,,,,,,,,,,,,,,,,,,,,,,,,,,,,,,,,,,,,,,,,,,,,,,,,,,,,,,,,,,,,,,,,,,,,,,,,,
,,655fdf554b84fb6cbc5d4b93,2024-02-22_14h27.58.498,kallum_motion_pilot,2023.2.2,Win32,59.88023952,655fdf554b84fb6cbc5d4b93,65d6bb0e977760de756971f7,65d6bf1c0a464a429d9a917a,0.0433,0.0433,0,17,17,139,1,sixeight,,,,,,,,,,,,,,,,,,,,,,,,,,,,,,,,,,,,,,,,,,,,,,,,,,,,,,,,,,,,,,,,,,,,,,,,,,,,,,,,,,,,,,,,,,,,,,,,,,,,,,,,,,,,,,,,,,,,,,,,,,,,,,,,,,,,,,,,,
,,655fdf554b84fb6cbc5d4b93,2024-02-22_14h27.58.498,kallum_motion_pilot,2023.2.2,Win32,59.88023952,655fdf554b84fb6cbc5d4b93,65d6bb0e977760de756971f7,65d6bf1c0a464a429d9a917a,0.0435,0.0435,0,18,18,125,1,seveneight,,,,,,,,,,,,,,,,,,,,,,,,,,,,,,,,,,,,,,,,,,,,,,,,,,,,,,,,,,,,,,,,,,,,,,,,,,,,,,,,,,,,,,,,,,,,,,,,,,,,,,,,,,,,,,,,,,,,,,,,,,,,,,,,,,,,,,,,,
,,655fdf554b84fb6cbc5d4b93,2024-02-22_14h27.58.498,kallum_motion_pilot,2023.2.2,Win32,59.88023952,655fdf554b84fb6cbc5d4b93,65d6bb0e977760de756971f7,65d6bf1c0a464a429d9a917a,0.0437,0.0437,0,19,19,5,1,threefour,,,,,,,,,,,,,,,,,,,,,,,,,,,,,,,,,,,,,,,,,,,,,,,,,,,,,,,,,,,,,,,,,,,,,,,,,,,,,,,,,,,,,,,,,,,,,,,,,,,,,,,,,,,,,,,,,,,,,,,,,,,,,,,,,,,,,,,,,
,,655fdf554b84fb6cbc5d4b93,2024-02-22_14h27.58.498,kallum_motion_pilot,2023.2.2,Win32,59.88023952,655fdf554b84fb6cbc5d4b93,65d6bb0e977760de756971f7,65d6bf1c0a464a429d9a917a,0.0438,0.0438,0,20,20,131,1,sixeight,,,,,,,,,,,,,,,,,,,,,,,,,,,,,,,,,,,,,,,,,,,,,,,,,,,,,,,,,,,,,,,,,,,,,,,,,,,,,,,,,,,,,,,,,,,,,,,,,,,,,,,,,,,,,,,,,,,,,,,,,,,,,,,,,,,,,,,,,
,,655fdf554b84fb6cbc5d4b93,2024-02-22_14h27.58.498,kallum_motion_pilot,2023.2.2,Win32,59.88023952,655fdf554b84fb6cbc5d4b93,65d6bb0e977760de756971f7,65d6bf1c0a464a429d9a917a,0.044,0.044,0,21,21,149,1,seveneight,,,,,,,,,,,,,,,,,,,,,,,,,,,,,,,,,,,,,,,,,,,,,,,,,,,,,,,,,,,,,,,,,,,,,,,,,,,,,,,,,,,,,,,,,,,,,,,,,,,,,,,,,,,,,,,,,,,,,,,,,,,,,,,,,,,,,,,,,
,,655fdf554b84fb6cbc5d4b93,2024-02-22_14h27.58.498,kallum_motion_pilot,2023.2.2,Win32,59.88023952,655fdf554b84fb6cbc5d4b93,65d6bb0e977760de756971f7,65d6bf1c0a464a429d9a917a,0.0442,0.0442,0,22,22,15,1,fourthree,,,,,,,,,,,,,,,,,,,,,,,,,,,,,,,,,,,,,,,,,,,,,,,,,,,,,,,,,,,,,,,,,,,,,,,,,,,,,,,,,,,,,,,,,,,,,,,,,,,,,,,,,,,,,,,,,,,,,,,,,,,,,,,,,,,,,,,,,
,,655fdf554b84fb6cbc5d4b93,2024-02-22_14h27.58.498,kallum_motion_pilot,2023.2.2,Win32,59.88023952,655fdf554b84fb6cbc5d4b93,65d6bb0e977760de756971f7,65d6bf1c0a464a429d9a917a,0.0443,0.0443,0,23,23,66,1,twoone,,,,,,,,,,,,,,,,,,,,,,,,,,,,,,,,,,,,,,,,,,,,,,,,,,,,,,,,,,,,,,,,,,,,,,,,,,,,,,,,,,,,,,,,,,,,,,,,,,,,,,,,,,,,,,,,,,,,,,,,,,,,,,,,,,,,,,,,,
,,655fdf554b84fb6cbc5d4b93,2024-02-22_14h27.58.498,kallum_motion_pilot,2023.2.2,Win32,59.88023952,655fdf554b84fb6cbc5d4b93,65d6bb0e977760de756971f7,65d6bf1c0a464a429d9a917a,0.0444,0.0445,0,24,24,16,1,onetwo,,,,,,,,,,,,,,,,,,,,,,,,,,,,,,,,,,,,,,,,,,,,,,,,,,,,,,,,,,,,,,,,,,,,,,,,,,,,,,,,,,,,,,,,,,,,,,,,,,,,,,,,,,,,,,,,,,,,,,,,,,,,,,,,,,,,,,,,,
,,655fdf554b84fb6cbc5d4b93,2024-02-22_14h27.58.498,kallum_motion_pilot,2023.2.2,Win32,59.88023952,655fdf554b84fb6cbc5d4b93,65d6bb0e977760de756971f7,65d6bf1c0a464a429d9a917a,0.0448,0.0449,0,25,25,94,1,eightsix,,,,,,,,,,,,,,,,,,,,,,,,,,,,,,,,,,,,,,,,,,,,,,,,,,,,,,,,,,,,,,,,,,,,,,,,,,,,,,,,,,,,,,,,,,,,,,,,,,,,,,,,,,,,,,,,,,,,,,,,,,,,,,,,,,,,,,,,,
,,655fdf554b84fb6cbc5d4b93,2024-02-22_14h27.58.498,kallum_motion_pilot,2023.2.2,Win32,59.88023952,655fdf554b84fb6cbc5d4b93,65d6bb0e977760de756971f7,65d6bf1c0a464a429d9a917a,0.045,0.0451,0,26,26,115,1,sixeight,,,,,,,,,,,,,,,,,,,,,,,,,,,,,,,,,,,,,,,,,,,,,,,,,,,,,,,,,,,,,,,,,,,,,,,,,,,,,,,,,,,,,,,,,,,,,,,,,,,,,,,,,,,,,,,,,,,,,,,,,,,,,,,,,,,,,,,,,
,,655fdf554b84fb6cbc5d4b93,2024-02-22_14h27.58.498,kallum_motion_pilot,2023.2.2,Win32,59.88023952,655fdf554b84fb6cbc5d4b93,65d6bb0e977760de756971f7,65d6bf1c0a464a429d9a917a,0.0452,0.0452,0,27,27,108,1,sevenfive,,,,,,,,,,,,,,,,,,,,,,,,,,,,,,,,,,,,,,,,,,,,,,,,,,,,,,,,,,,,,,,,,,,,,,,,,,,,,,,,,,,,,,,,,,,,,,,,,,,,,,,,,,,,,,,,,,,,,,,,,,,,,,,,,,,,,,,,,
,,655fdf554b84fb6cbc5d4b93,2024-02-22_14h27.58.498,kallum_motion_pilot,2023.2.2,Win32,59.88023952,655fdf554b84fb6cbc5d4b93,65d6bb0e977760de756971f7,65d6bf1c0a464a429d9a917a,0.0454,0.0454,0,28,28,82,1,sixfive,,,,,,,,,,,,,,,,,,,,,,,,,,,,,,,,,,,,,,,,,,,,,,,,,,,,,,,,,,,,,,,,,,,,,,,,,,,,,,,,,,,,,,,,,,,,,,,,,,,,,,,,,,,,,,,,,,,,,,,,,,,,,,,,,,,,,,,,,
,,655fdf554b84fb6cbc5d4b93,2024-02-22_14h27.58.498,kallum_motion_pilot,2023.2.2,Win32,59.88023952,655fdf554b84fb6cbc5d4b93,65d6bb0e977760de756971f7,65d6bf1c0a464a429d9a917a,0.0455,0.0456,0,29,29,140,1,sevenfive,,,,,,,,,,,,,,,,,,,,,,,,,,,,,,,,,,,,,,,,,,,,,,,,,,,,,,,,,,,,,,,,,,,,,,,,,,,,,,,,,,,,,,,,,,,,,,,,,,,,,,,,,,,,,,,,,,,,,,,,,,,,,,,,,,,,,,,,,
,,655fdf554b84fb6cbc5d4b93,2024-02-22_14h27.58.498,kallum_motion_pilot,2023.2.2,Win32,59.88023952,655fdf554b84fb6cbc5d4b93,65d6bb0e977760de756971f7,65d6bf1c0a464a429d9a917a,0.0456,0.0457,0,30,30,3,1,twofour,,,,,,,,,,,,,,,,,,,,,,,,,,,,,,,,,,,,,,,,,,,,,,,,,,,,,,,,,,,,,,,,,,,,,,,,,,,,,,,,,,,,,,,,,,,,,,,,,,,,,,,,,,,,,,,,,,,,,,,,,,,,,,,,,,,,,,,,,
,,655fdf554b84fb6cbc5d4b93,2024-02-22_14h27.58.498,kallum_motion_pilot,2023.2.2,Win32,59.88023952,655fdf554b84fb6cbc5d4b93,65d6bb0e977760de756971f7,65d6bf1c0a464a429d9a917a,0.0458,0.0492,0,31,31,157,1,seveneight,,,,,,,,,,,,,,,,,,,,,,,,,,,,,,,,,,,,,,,,,,,,,,,,,,,,,,,,,,,,,,,,,,,,,,,,,,,,,,,,,,,,,,,,,,,,,,,,,,,,,,,,,,,,,,,,,,,,,,,,,,,,,,,,,,,,,,,,,
,,655fdf554b84fb6cbc5d4b93,2024-02-22_14h27.58.498,kallum_motion_pilot,2023.2.2,Win32,59.88023952,655fdf554b84fb6cbc5d4b93,65d6bb0e977760de756971f7,65d6bf1c0a464a429d9a917a,0.0495,0.0496,0,32,32,72,1,onetwo,,,,,,,,,,,,,,,,,,,,,,,,,,,,,,,,,,,,,,,,,,,,,,,,,,,,,,,,,,,,,,,,,,,,,,,,,,,,,,,,,,,,,,,,,,,,,,,,,,,,,,,,,,,,,,,,,,,,,,,,,,,,,,,,,,,,,,,,,
,,655fdf554b84fb6cbc5d4b93,2024-02-22_14h27.58.498,kallum_motion_pilot,2023.2.2,Win32,59.88023952,655fdf554b84fb6cbc5d4b93,65d6bb0e977760de756971f7,65d6bf1c0a464a429d9a917a,0.0497,0.0498,0,33,33,69,1,threefour,,,,,,,,,,,,,,,,,,,,,,,,,,,,,,,,,,,,,,,,,,,,,,,,,,,,,,,,,,,,,,,,,,,,,,,,,,,,,,,,,,,,,,,,,,,,,,,,,,,,,,,,,,,,,,,,,,,,,,,,,,,,,,,,,,,,,,,,,
,,655fdf554b84fb6cbc5d4b93,2024-02-22_14h27.58.498,kallum_motion_pilot,2023.2.2,Win32,59.88023952,655fdf554b84fb6cbc5d4b93,65d6bb0e977760de756971f7,65d6bf1c0a464a429d9a917a,0.05,0.05,0,34,34,119,1,eightseven,,,,,,,,,,,,,,,,,,,,,,,,,,,,,,,,,,,,,,,,,,,,,,,,,,,,,,,,,,,,,,,,,,,,,,,,,,,,,,,,,,,,,,,,,,,,,,,,,,,,,,,,,,,,,,,,,,,,,,,,,,,,,,,,,,,,,,,,,
,,655fdf554b84fb6cbc5d4b93,2024-02-22_14h27.58.498,kallum_motion_pilot,2023.2.2,Win32,59.88023952,655fdf554b84fb6cbc5d4b93,65d6bb0e977760de756971f7,65d6bf1c0a464a429d9a917a,0.0502,0.0503,0,35,35,77,1,threefour,,,,,,,,,,,,,,,,,,,,,,,,,,,,,,,,,,,,,,,,,,,,,,,,,,,,,,,,,,,,,,,,,,,,,,,,,,,,,,,,,,,,,,,,,,,,,,,,,,,,,,,,,,,,,,,,,,,,,,,,,,,,,,,,,,,,,,,,,
,,655fdf554b84fb6cbc5d4b93,2024-02-22_14h27.58.498,kallum_motion_pilot,2023.2.2,Win32,59.88023952,655fdf554b84fb6cbc5d4b93,65d6bb0e977760de756971f7,65d6bf1c0a464a429d9a917a,0.0504,0.0505,0,36,36,137,1,fiveseven,,,,,,,,,,,,,,,,,,,,,,,,,,,,,,,,,,,,,,,,,,,,,,,,,,,,,,,,,,,,,,,,,,,,,,,,,,,,,,,,,,,,,,,,,,,,,,,,,,,,,,,,,,,,,,,,,,,,,,,,,,,,,,,,,,,,,,,,,
,,655fdf554b84fb6cbc5d4b93,2024-02-22_14h27.58.498,kallum_motion_pilot,2023.2.2,Win32,59.88023952,655fdf554b84fb6cbc5d4b93,65d6bb0e977760de756971f7,65d6bf1c0a464a429d9a917a,0.0506,0.0507,0,37,37,126,1,eightsix,,,,,,,,,,,,,,,,,,,,,,,,,,,,,,,,,,,,,,,,,,,,,,,,,,,,,,,,,,,,,,,,,,,,,,,,,,,,,,,,,,,,,,,,,,,,,,,,,,,,,,,,,,,,,,,,,,,,,,,,,,,,,,,,,,,,,,,,,
,,655fdf554b84fb6cbc5d4b93,2024-02-22_14h27.58.498,kallum_motion_pilot,2023.2.2,Win32,59.88023952,655fdf554b84fb6cbc5d4b93,65d6bb0e977760de756971f7,65d6bf1c0a464a429d9a917a,0.0508,0.0508,0,38,38,146,1,sixfive,,,,,,,,,,,,,,,,,,,,,,,,,,,,,,,,,,,,,,,,,,,,,,,,,,,,,,,,,,,,,,,,,,,,,,,,,,,,,,,,,,,,,,,,,,,,,,,,,,,,,,,,,,,,,,,,,,,,,,,,,,,,,,,,,,,,,,,,,
,,655fdf554b84fb6cbc5d4b93,2024-02-22_14h27.58.498,kallum_motion_pilot,2023.2.2,Win32,59.88023952,655fdf554b84fb6cbc5d4b93,65d6bb0e977760de756971f7,65d6bf1c0a464a429d9a917a,0.051,0.051,0,39,39,89,1,fiveseven,,,,,,,,,,,,,,,,,,,,,,,,,,,,,,,,,,,,,,,,,,,,,,,,,,,,,,,,,,,,,,,,,,,,,,,,,,,,,,,,,,,,,,,,,,,,,,,,,,,,,,,,,,,,,,,,,,,,,,,,,,,,,,,,,,,,,,,,,
,,655fdf554b84fb6cbc5d4b93,2024-02-22_14h27.58.498,kallum_motion_pilot,2023.2.2,Win32,59.88023952,655fdf554b84fb6cbc5d4b93,65d6bb0e977760de756971f7,65d6bf1c0a464a429d9a917a,0.0512,0.0513,0,40,40,99,1,sixeight,,,,,,,,,,,,,,,,,,,,,,,,,,,,,,,,,,,,,,,,,,,,,,,,,,,,,,,,,,,,,,,,,,,,,,,,,,,,,,,,,,,,,,,,,,,,,,,,,,,,,,,,,,,,,,,,,,,,,,,,,,,,,,,,,,,,,,,,,
,,655fdf554b84fb6cbc5d4b93,2024-02-22_14h27.58.498,kallum_motion_pilot,2023.2.2,Win32,59.88023952,655fdf554b84fb6cbc5d4b93,65d6bb0e977760de756971f7,65d6bf1c0a464a429d9a917a,0.0514,0.0515,0,41,41,27,1,twofour,,,,,,,,,,,,,,,,,,,,,,,,,,,,,,,,,,,,,,,,,,,,,,,,,,,,,,,,,,,,,,,,,,,,,,,,,,,,,,,,,,,,,,,,,,,,,,,,,,,,,,,,,,,,,,,,,,,,,,,,,,,,,,,,,,,,,,,,,
,,655fdf554b84fb6cbc5d4b93,2024-02-22_14h27.58.498,kallum_motion_pilot,2023.2.2,Win32,59.88023952,655fdf554b84fb6cbc5d4b93,65d6bb0e977760de756971f7,65d6bf1c0a464a429d9a917a,0.0516,0.0517,0,42,42,25,1,onethree,,,,,,,,,,,,,,,,,,,,,,,,,,,,,,,,,,,,,,,,,,,,,,,,,,,,,,,,,,,,,,,,,,,,,,,,,,,,,,,,,,,,,,,,,,,,,,,,,,,,,,,,,,,,,,,,,,,,,,,,,,,,,,,,,,,,,,,,,
,,655fdf554b84fb6cbc5d4b93,2024-02-22_14h27.58.498,kallum_motion_pilot,2023.2.2,Win32,59.88023952,655fdf554b84fb6cbc5d4b93,65d6bb0e977760de756971f7,65d6bf1c0a464a429d9a917a,0.0519,0.052,0,43,43,117,1,seveneight,,,,,,,,,,,,,,,,,,,,,,,,,,,,,,,,,,,,,,,,,,,,,,,,,,,,,,,,,,,,,,,,,,,,,,,,,,,,,,,,,,,,,,,,,,,,,,,,,,,,,,,,,,,,,,,,,,,,,,,,,,,,,,,,,,,,,,,,,
,,655fdf554b84fb6cbc5d4b93,2024-02-22_14h27.58.498,kallum_motion_pilot,2023.2.2,Win32,59.88023952,655fdf554b84fb6cbc5d4b93,65d6bb0e977760de756971f7,65d6bf1c0a464a429d9a917a,0.0521,0.0522,0,44,44,112,1,fivesix,,,,,,,,,,,,,,,,,,,,,,,,,,,,,,,,,,,,,,,,,,,,,,,,,,,,,,,,,,,,,,,,,,,,,,,,,,,,,,,,,,,,,,,,,,,,,,,,,,,,,,,,,,,,,,,,,,,,,,,,,,,,,,,,,,,,,,,,,
,,655fdf554b84fb6cbc5d4b93,2024-02-22_14h27.58.498,kallum_motion_pilot,2023.2.2,Win32,59.88023952,655fdf554b84fb6cbc5d4b93,65d6bb0e977760de756971f7,65d6bf1c0a464a429d9a917a,0.0523,0.0524,0,45,45,34,1,twoone,,,,,,,,,,,,,,,,,,,,,,,,,,,,,,,,,,,,,,,,,,,,,,,,,,,,,,,,,,,,,,,,,,,,,,,,,,,,,,,,,,,,,,,,,,,,,,,,,,,,,,,,,,,,,,,,,,,,,,,,,,,,,,,,,,,,,,,,,
,,655fdf554b84fb6cbc5d4b93,2024-02-22_14h27.58.498,kallum_motion_pilot,2023.2.2,Win32,59.88023952,655fdf554b84fb6cbc5d4b93,65d6bb0e977760de756971f7,65d6bf1c0a464a429d9a917a,0.0526,0.0526,0,46,46,154,1,sixfive,,,,,,,,,,,,,,,,,,,,,,,,,,,,,,,,,,,,,,,,,,,,,,,,,,,,,,,,,,,,,,,,,,,,,,,,,,,,,,,,,,,,,,,,,,,,,,,,,,,,,,,,,,,,,,,,,,,,,,,,,,,,,,,,,,,,,,,,,
,,655fdf554b84fb6cbc5d4b93,2024-02-22_14h27.58.498,kallum_motion_pilot,2023.2.2,Win32,59.88023952,655fdf554b84fb6cbc5d4b93,65d6bb0e977760de756971f7,65d6bf1c0a464a429d9a917a,0.0528,0.0528,0,47,47,78,1,fourtwo,,,,,,,,,,,,,,,,,,,,,,,,,,,,,,,,,,,,,,,,,,,,,,,,,,,,,,,,,,,,,,,,,,,,,,,,,,,,,,,,,,,,,,,,,,,,,,,,,,,,,,,,,,,,,,,,,,,,,,,,,,,,,,,,,,,,,,,,,
,,655fdf554b84fb6cbc5d4b93,2024-02-22_14h27.58.498,kallum_motion_pilot,2023.2.2,Win32,59.88023952,655fdf554b84fb6cbc5d4b93,65d6bb0e977760de756971f7,65d6bf1c0a464a429d9a917a,0.0529,0.0529,0,48,48,142,1,eightsix,,,,,,,,,,,,,,,,,,,,,,,,,,,,,,,,,,,,,,,,,,,,,,,,,,,,,,,,,,,,,,,,,,,,,,,,,,,,,,,,,,,,,,,,,,,,,,,,,,,,,,,,,,,,,,,,,,,,,,,,,,,,,,,,,,,,,,,,,
,,655fdf554b84fb6cbc5d4b93,2024-02-22_14h27.58.498,kallum_motion_pilot,2023.2.2,Win32,59.88023952,655fdf554b84fb6cbc5d4b93,65d6bb0e977760de756971f7,65d6bf1c0a464a429d9a917a,0.0531,0.0531,0,49,49,58,1,twoone,,,,,,,,,,,,,,,,,,,,,,,,,,,,,,,,,,,,,,,,,,,,,,,,,,,,,,,,,,,,,,,,,,,,,,,,,,,,,,,,,,,,,,,,,,,,,,,,,,,,,,,,,,,,,,,,,,,,,,,,,,,,,,,,,,,,,,,,,
,,655fdf554b84fb6cbc5d4b93,2024-02-22_14h27.58.498,kallum_motion_pilot,2023.2.2,Win32,59.88023952,655fdf554b84fb6cbc5d4b93,65d6bb0e977760de756971f7,65d6bf1c0a464a429d9a917a,0.0533,0.0534,0,50,50,22,1,fourtwo,,,,,,,,,,,,,,,,,,,,,,,,,,,,,,,,,,,,,,,,,,,,,,,,,,,,,,,,,,,,,,,,,,,,,,,,,,,,,,,,,,,,,,,,,,,,,,,,,,,,,,,,,,,,,,,,,,,,,,,,,,,,,,,,,,,,,,,,,
,,655fdf554b84fb6cbc5d4b93,2024-02-22_14h27.58.498,kallum_motion_pilot,2023.2.2,Win32,59.88023952,655fdf554b84fb6cbc5d4b93,65d6bb0e977760de756971f7,65d6bf1c0a464a429d9a917a,0.0536,0.0537,0,51,51,145,1,fiveseven,,,,,,,,,,,,,,,,,,,,,,,,,,,,,,,,,,,,,,,,,,,,,,,,,,,,,,,,,,,,,,,,,,,,,,,,,,,,,,,,,,,,,,,,,,,,,,,,,,,,,,,,,,,,,,,,,,,,,,,,,,,,,,,,,,,,,,,,,
,,655fdf554b84fb6cbc5d4b93,2024-02-22_14h27.58.498,kallum_motion_pilot,2023.2.2,Win32,59.88023952,655fdf554b84fb6cbc5d4b93,65d6bb0e977760de756971f7,65d6bf1c0a464a429d9a917a,0.0539,0.0539,0,52,52,55,1,fourthree,,,,,,,,,,,,,,,,,,,,,,,,,,,,,,,,,,,,,,,,,,,,,,,,,,,,,,,,,,,,,,,,,,,,,,,,,,,,,,,,,,,,,,,,,,,,,,,,,,,,,,,,,,,,,,,,,,,,,,,,,,,,,,,,,,,,,,,,,
,,655fdf554b84fb6cbc5d4b93,2024-02-22_14h27.58.498,kallum_motion_pilot,2023.2.2,Win32,59.88023952,655fdf554b84fb6cbc5d4b93,65d6bb0e977760de756971f7,65d6bf1c0a464a429d9a917a,0.0541,0.0542,0,53,53,29,1,threefour,,,,,,,,,,,,,,,,,,,,,,,,,,,,,,,,,,,,,,,,,,,,,,,,,,,,,,,,,,,,,,,,,,,,,,,,,,,,,,,,,,,,,,,,,,,,,,,,,,,,,,,,,,,,,,,,,,,,,,,,,,,,,,,,,,,,,,,,,
,,655fdf554b84fb6cbc5d4b93,2024-02-22_14h27.58.498,kallum_motion_pilot,2023.2.2,Win32,59.88023952,655fdf554b84fb6cbc5d4b93,65d6bb0e977760de756971f7,65d6bf1c0a464a429d9a917a,0.0543,0.0544,0,54,54,160,1,fivesix,,,,,,,,,,,,,,,,,,,,,,,,,,,,,,,,,,,,,,,,,,,,,,,,,,,,,,,,,,,,,,,,,,,,,,,,,,,,,,,,,,,,,,,,,,,,,,,,,,,,,,,,,,,,,,,,,,,,,,,,,,,,,,,,,,,,,,,,,
,,655fdf554b84fb6cbc5d4b93,2024-02-22_14h27.58.498,kallum_motion_pilot,2023.2.2,Win32,59.88023952,655fdf554b84fb6cbc5d4b93,65d6bb0e977760de756971f7,65d6bf1c0a464a429d9a917a,0.0545,0.0546,0,55,55,61,1,threefour,,,,,,,,,,,,,,,,,,,,,,,,,,,,,,,,,,,,,,,,,,,,,,,,,,,,,,,,,,,,,,,,,,,,,,,,,,,,,,,,,,,,,,,,,,,,,,,,,,,,,,,,,,,,,,,,,,,,,,,,,,,,,,,,,,,,,,,,,
,,655fdf554b84fb6cbc5d4b93,2024-02-22_14h27.58.498,kallum_motion_pilot,2023.2.2,Win32,59.88023952,655fdf554b84fb6cbc5d4b93,65d6bb0e977760de756971f7,65d6bf1c0a464a429d9a917a,0.0547,0.0548,0,56,56,90,1,sixfive,,,,,,,,,,,,,,,,,,,,,,,,,,,,,,,,,,,,,,,,,,,,,,,,,,,,,,,,,,,,,,,,,,,,,,,,,,,,,,,,,,,,,,,,,,,,,,,,,,,,,,,,,,,,,,,,,,,,,,,,,,,,,,,,,,,,,,,,,
,,655fdf554b84fb6cbc5d4b93,2024-02-22_14h27.58.498,kallum_motion_pilot,2023.2.2,Win32,59.88023952,655fdf554b84fb6cbc5d4b93,65d6bb0e977760de756971f7,65d6bf1c0a464a429d9a917a,0.0549,0.055,0,57,57,107,1,sixeight,,,,,,,,,,,,,,,,,,,,,,,,,,,,,,,,,,,,,,,,,,,,,,,,,,,,,,,,,,,,,,,,,,,,,,,,,,,,,,,,,,,,,,,,,,,,,,,,,,,,,,,,,,,,,,,,,,,,,,,,,,,,,,,,,,,,,,,,,
,,655fdf554b84fb6cbc5d4b93,2024-02-22_14h27.58.498,kallum_motion_pilot,2023.2.2,Win32,59.88023952,655fdf554b84fb6cbc5d4b93,65d6bb0e977760de756971f7,65d6bf1c0a464a429d9a917a,0.0551,0.0552,0,58,58,32,1,onetwo,,,,,,,,,,,,,,,,,,,,,,,,,,,,,,,,,,,,,,,,,,,,,,,,,,,,,,,,,,,,,,,,,,,,,,,,,,,,,,,,,,,,,,,,,,,,,,,,,,,,,,,,,,,,,,,,,,,,,,,,,,,,,,,,,,,,,,,,,
,,655fdf554b84fb6cbc5d4b93,2024-02-22_14h27.58.498,kallum_motion_pilot,2023.2.2,Win32,59.88023952,655fdf554b84fb6cbc5d4b93,65d6bb0e977760de756971f7,65d6bf1c0a464a429d9a917a,0.0553,0.0553,0,59,59,39,1,fourthree,,,,,,,,,,,,,,,,,,,,,,,,,,,,,,,,,,,,,,,,,,,,,,,,,,,,,,,,,,,,,,,,,,,,,,,,,,,,,,,,,,,,,,,,,,,,,,,,,,,,,,,,,,,,,,,,,,,,,,,,,,,,,,,,,,,,,,,,,
,,655fdf554b84fb6cbc5d4b93,2024-02-22_14h27.58.498,kallum_motion_pilot,2023.2.2,Win32,59.88023952,655fdf554b84fb6cbc5d4b93,65d6bb0e977760de756971f7,65d6bf1c0a464a429d9a917a,0.0555,0.0556,0,60,60,56,1,onetwo,,,,,,,,,,,,,,,,,,,,,,,,,,,,,,,,,,,,,,,,,,,,,,,,,,,,,,,,,,,,,,,,,,,,,,,,,,,,,,,,,,,,,,,,,,,,,,,,,,,,,,,,,,,,,,,,,,,,,,,,,,,,,,,,,,,,,,,,,
,,655fdf554b84fb6cbc5d4b93,2024-02-22_14h27.58.498,kallum_motion_pilot,2023.2.2,Win32,59.88023952,655fdf554b84fb6cbc5d4b93,65d6bb0e977760de756971f7,65d6bf1c0a464a429d9a917a,0.0557,0.0558,0,61,61,92,1,sevenfive,,,,,,,,,,,,,,,,,,,,,,,,,,,,,,,,,,,,,,,,,,,,,,,,,,,,,,,,,,,,,,,,,,,,,,,,,,,,,,,,,,,,,,,,,,,,,,,,,,,,,,,,,,,,,,,,,,,,,,,,,,,,,,,,,,,,,,,,,
,,655fdf554b84fb6cbc5d4b93,2024-02-22_14h27.58.498,kallum_motion_pilot,2023.2.2,Win32,59.88023952,655fdf554b84fb6cbc5d4b93,65d6bb0e977760de756971f7,65d6bf1c0a464a429d9a917a,0.056,0.056,0,62,62,24,1,onetwo,,,,,,,,,,,,,,,,,,,,,,,,,,,,,,,,,,,,,,,,,,,,,,,,,,,,,,,,,,,,,,,,,,,,,,,,,,,,,,,,,,,,,,,,,,,,,,,,,,,,,,,,,,,,,,,,,,,,,,,,,,,,,,,,,,,,,,,,,
,,655fdf554b84fb6cbc5d4b93,2024-02-22_14h27.58.498,kallum_motion_pilot,2023.2.2,Win32,59.88023952,655fdf554b84fb6cbc5d4b93,65d6bb0e977760de756971f7,65d6bf1c0a464a429d9a917a,0.0563,0.0563,0,63,63,30,1,fourtwo,,,,,,,,,,,,,,,,,,,,,,,,,,,,,,,,,,,,,,,,,,,,,,,,,,,,,,,,,,,,,,,,,,,,,,,,,,,,,,,,,,,,,,,,,,,,,,,,,,,,,,,,,,,,,,,,,,,,,,,,,,,,,,,,,,,,,,,,,
,,655fdf554b84fb6cbc5d4b93,2024-02-22_14h27.58.498,kallum_motion_pilot,2023.2.2,Win32,59.88023952,655fdf554b84fb6cbc5d4b93,65d6bb0e977760de756971f7,65d6bf1c0a464a429d9a917a,0.0566,0.0567,0,64,64,105,1,fiveseven,,,,,,,,,,,,,,,,,,,,,,,,,,,,,,,,,,,,,,,,,,,,,,,,,,,,,,,,,,,,,,,,,,,,,,,,,,,,,,,,,,,,,,,,,,,,,,,,,,,,,,,,,,,,,,,,,,,,,,,,,,,,,,,,,,,,,,,,,
,,655fdf554b84fb6cbc5d4b93,2024-02-22_14h27.58.498,kallum_motion_pilot,2023.2.2,Win32,59.88023952,655fdf554b84fb6cbc5d4b93,65d6bb0e977760de756971f7,65d6bf1c0a464a429d9a917a,0.0568,0.057,0,65,65,62,1,fourtwo,,,,,,,,,,,,,,,,,,,,,,,,,,,,,,,,,,,,,,,,,,,,,,,,,,,,,,,,,,,,,,,,,,,,,,,,,,,,,,,,,,,,,,,,,,,,,,,,,,,,,,,,,,,,,,,,,,,,,,,,,,,,,,,,,,,,,,,,,
,,655fdf554b84fb6cbc5d4b93,2024-02-22_14h27.58.498,kallum_motion_pilot,2023.2.2,Win32,59.88023952,655fdf554b84fb6cbc5d4b93,65d6bb0e977760de756971f7,65d6bf1c0a464a429d9a917a,0.0572,0.0572,0,66,66,40,1,onetwo,,,,,,,,,,,,,,,,,,,,,,,,,,,,,,,,,,,,,,,,,,,,,,,,,,,,,,,,,,,,,,,,,,,,,,,,,,,,,,,,,,,,,,,,,,,,,,,,,,,,,,,,,,,,,,,,,,,,,,,,,,,,,,,,,,,,,,,,,
,,655fdf554b84fb6cbc5d4b93,2024-02-22_14h27.58.498,kallum_motion_pilot,2023.2.2,Win32,59.88023952,655fdf554b84fb6cbc5d4b93,65d6bb0e977760de756971f7,65d6bf1c0a464a429d9a917a,0.0575,0.0576,0,67,67,2,1,twoone,,,,,,,,,,,,,,,,,,,,,,,,,,,,,,,,,,,,,,,,,,,,,,,,,,,,,,,,,,,,,,,,,,,,,,,,,,,,,,,,,,,,,,,,,,,,,,,,,,,,,,,,,,,,,,,,,,,,,,,,,,,,,,,,,,,,,,,,,
,,655fdf554b84fb6cbc5d4b93,2024-02-22_14h27.58.498,kallum_motion_pilot,2023.2.2,Win32,59.88023952,655fdf554b84fb6cbc5d4b93,65d6bb0e977760de756971f7,65d6bf1c0a464a429d9a917a,0.0578,0.0579,0,68,68,14,1,fourtwo,,,,,,,,,,,,,,,,,,,,,,,,,,,,,,,,,,,,,,,,,,,,,,,,,,,,,,,,,,,,,,,,,,,,,,,,,,,,,,,,,,,,,,,,,,,,,,,,,,,,,,,,,,,,,,,,,,,,,,,,,,,,,,,,,,,,,,,,,
,,655fdf554b84fb6cbc5d4b93,2024-02-22_14h27.58.498,kallum_motion_pilot,2023.2.2,Win32,59.88023952,655fdf554b84fb6cbc5d4b93,65d6bb0e977760de756971f7,65d6bf1c0a464a429d9a917a,0.0581,0.0582,0,69,69,52,1,threeone,,,,,,,,,,,,,,,,,,,,,,,,,,,,,,,,,,,,,,,,,,,,,,,,,,,,,,,,,,,,,,,,,,,,,,,,,,,,,,,,,,,,,,,,,,,,,,,,,,,,,,,,,,,,,,,,,,,,,,,,,,,,,,,,,,,,,,,,,
,,655fdf554b84fb6cbc5d4b93,2024-02-22_14h27.58.498,kallum_motion_pilot,2023.2.2,Win32,59.88023952,655fdf554b84fb6cbc5d4b93,65d6bb0e977760de756971f7,65d6bf1c0a464a429d9a917a,0.0583,0.0584,0,70,70,35,1,twofour,,,,,,,,,,,,,,,,,,,,,,,,,,,,,,,,,,,,,,,,,,,,,,,,,,,,,,,,,,,,,,,,,,,,,,,,,,,,,,,,,,,,,,,,,,,,,,,,,,,,,,,,,,,,,,,,,,,,,,,,,,,,,,,,,,,,,,,,,
,,655fdf554b84fb6cbc5d4b93,2024-02-22_14h27.58.498,kallum_motion_pilot,2023.2.2,Win32,59.88023952,655fdf554b84fb6cbc5d4b93,65d6bb0e977760de756971f7,65d6bf1c0a464a429d9a917a,0.0592,0.0594,0,71,71,152,1,fivesix,,,,,,,,,,,,,,,,,,,,,,,,,,,,,,,,,,,,,,,,,,,,,,,,,,,,,,,,,,,,,,,,,,,,,,,,,,,,,,,,,,,,,,,,,,,,,,,,,,,,,,,,,,,,,,,,,,,,,,,,,,,,,,,,,,,,,,,,,
,,655fdf554b84fb6cbc5d4b93,2024-02-22_14h27.58.498,kallum_motion_pilot,2023.2.2,Win32,59.88023952,655fdf554b84fb6cbc5d4b93,65d6bb0e977760de756971f7,65d6bf1c0a464a429d9a917a,0.0598,0.06,0,72,72,63,1,fourthree,,,,,,,,,,,,,,,,,,,,,,,,,,,,,,,,,,,,,,,,,,,,,,,,,,,,,,,,,,,,,,,,,,,,,,,,,,,,,,,,,,,,,,,,,,,,,,,,,,,,,,,,,,,,,,,,,,,,,,,,,,,,,,,,,,,,,,,,,
,,655fdf554b84fb6cbc5d4b93,2024-02-22_14h27.58.498,kallum_motion_pilot,2023.2.2,Win32,59.88023952,655fdf554b84fb6cbc5d4b93,65d6bb0e977760de756971f7,65d6bf1c0a464a429d9a917a,0.0604,0.0604,0,73,73,23,1,fourthree,,,,,,,,,,,,,,,,,,,,,,,,,,,,,,,,,,,,,,,,,,,,,,,,,,,,,,,,,,,,,,,,,,,,,,,,,,,,,,,,,,,,,,,,,,,,,,,,,,,,,,,,,,,,,,,,,,,,,,,,,,,,,,,,,,,,,,,,,
,,655fdf554b84fb6cbc5d4b93,2024-02-22_14h27.58.498,kallum_motion_pilot,2023.2.2,Win32,59.88023952,655fdf554b84fb6cbc5d4b93,65d6bb0e977760de756971f7,65d6bf1c0a464a429d9a917a,0.0607,0.0609,0,74,74,124,1,sevenfive,,,,,,,,,,,,,,,,,,,,,,,,,,,,,,,,,,,,,,,,,,,,,,,,,,,,,,,,,,,,,,,,,,,,,,,,,,,,,,,,,,,,,,,,,,,,,,,,,,,,,,,,,,,,,,,,,,,,,,,,,,,,,,,,,,,,,,,,,
,,655fdf554b84fb6cbc5d4b93,2024-02-22_14h27.58.498,kallum_motion_pilot,2023.2.2,Win32,59.88023952,655fdf554b84fb6cbc5d4b93,65d6bb0e977760de756971f7,65d6bf1c0a464a429d9a917a,0.0612,0.0613,0,75,75,57,1,onethree,,,,,,,,,,,,,,,,,,,,,,,,,,,,,,,,,,,,,,,,,,,,,,,,,,,,,,,,,,,,,,,,,,,,,,,,,,,,,,,,,,,,,,,,,,,,,,,,,,,,,,,,,,,,,,,,,,,,,,,,,,,,,,,,,,,,,,,,,
,,655fdf554b84fb6cbc5d4b93,2024-02-22_14h27.58.498,kallum_motion_pilot,2023.2.2,Win32,59.88023952,655fdf554b84fb6cbc5d4b93,65d6bb0e977760de756971f7,65d6bf1c0a464a429d9a917a,0.0618,0.0619,0,76,76,128,1,fivesix,,,,,,,,,,,,,,,,,,,,,,,,,,,,,,,,,,,,,,,,,,,,,,,,,,,,,,,,,,,,,,,,,,,,,,,,,,,,,,,,,,,,,,,,,,,,,,,,,,,,,,,,,,,,,,,,,,,,,,,,,,,,,,,,,,,,,,,,,
,,655fdf554b84fb6cbc5d4b93,2024-02-22_14h27.58.498,kallum_motion_pilot,2023.2.2,Win32,59.88023952,655fdf554b84fb6cbc5d4b93,65d6bb0e977760de756971f7,65d6bf1c0a464a429d9a917a,0.0623,0.0624,0,77,77,111,1,eightseven,,,,,,,,,,,,,,,,,,,,,,,,,,,,,,,,,,,,,,,,,,,,,,,,,,,,,,,,,,,,,,,,,,,,,,,,,,,,,,,,,,,,,,,,,,,,,,,,,,,,,,,,,,,,,,,,,,,,,,,,,,,,,,,,,,,,,,,,,
,,655fdf554b84fb6cbc5d4b93,2024-02-22_14h27.58.498,kallum_motion_pilot,2023.2.2,Win32,59.88023952,655fdf554b84fb6cbc5d4b93,65d6bb0e977760de756971f7,65d6bf1c0a464a429d9a917a,0.0631,0.0635,0,78,78,18,1,twoone,,,,,,,,,,,,,,,,,,,,,,,,,,,,,,,,,,,,,,,,,,,,,,,,,,,,,,,,,,,,,,,,,,,,,,,,,,,,,,,,,,,,,,,,,,,,,,,,,,,,,,,,,,,,,,,,,,,,,,,,,,,,,,,,,,,,,,,,,
,,655fdf554b84fb6cbc5d4b93,2024-02-22_14h27.58.498,kallum_motion_pilot,2023.2.2,Win32,59.88023952,655fdf554b84fb6cbc5d4b93,65d6bb0e977760de756971f7,65d6bf1c0a464a429d9a917a,0.0641,0.0643,0,79,79,20,1,threeone,,,,,,,,,,,,,,,,,,,,,,,,,,,,,,,,,,,,,,,,,,,,,,,,,,,,,,,,,,,,,,,,,,,,,,,,,,,,,,,,,,,,,,,,,,,,,,,,,,,,,,,,,,,,,,,,,,,,,,,,,,,,,,,,,,,,,,,,,
,,655fdf554b84fb6cbc5d4b93,2024-02-22_14h27.58.498,kallum_motion_pilot,2023.2.2,Win32,59.88023952,655fdf554b84fb6cbc5d4b93,65d6bb0e977760de756971f7,65d6bf1c0a464a429d9a917a,0.0649,0.0651,0,80,80,103,1,eightseven,,,,,,,,,,,,,,,,,,,,,,,,,,,,,,,,,,,,,,,,,,,,,,,,,,,,,,,,,,,,,,,,,,,,,,,,,,,,,,,,,,,,,,,,,,,,,,,,,,,,,,,,,,,,,,,,,,,,,,,,,,,,,,,,,,,,,,,,,
,,655fdf554b84fb6cbc5d4b93,2024-02-22_14h27.58.498,kallum_motion_pilot,2023.2.2,Win32,59.88023952,655fdf554b84fb6cbc5d4b93,65d6bb0e977760de756971f7,65d6bf1c0a464a429d9a917a,0.0654,0.0656,0,81,81,88,1,fivesix,,,,,,,,,,,,,,,,,,,,,,,,,,,,,,,,,,,,,,,,,,,,,,,,,,,,,,,,,,,,,,,,,,,,,,,,,,,,,,,,,,,,,,,,,,,,,,,,,,,,,,,,,,,,,,,,,,,,,,,,,,,,,,,,,,,,,,,,,
,,655fdf554b84fb6cbc5d4b93,2024-02-22_14h27.58.498,kallum_motion_pilot,2023.2.2,Win32,59.88023952,655fdf554b84fb6cbc5d4b93,65d6bb0e977760de756971f7,65d6bf1c0a464a429d9a917a,0.0659,0.066,0,82,82,161,1,fiveseven,,,,,,,,,,,,,,,,,,,,,,,,,,,,,,,,,,,,,,,,,,,,,,,,,,,,,,,,,,,,,,,,,,,,,,,,,,,,,,,,,,,,,,,,,,,,,,,,,,,,,,,,,,,,,,,,,,,,,,,,,,,,,,,,,,,,,,,,,
,,655fdf554b84fb6cbc5d4b93,2024-02-22_14h27.58.498,kallum_motion_pilot,2023.2.2,Win32,59.88023952,655fdf554b84fb6cbc5d4b93,65d6bb0e977760de756971f7,65d6bf1c0a464a429d9a917a,0.0663,0.0665,0,83,83,48,1,onetwo,,,,,,,,,,,,,,,,,,,,,,,,,,,,,,,,,,,,,,,,,,,,,,,,,,,,,,,,,,,,,,,,,,,,,,,,,,,,,,,,,,,,,,,,,,,,,,,,,,,,,,,,,,,,,,,,,,,,,,,,,,,,,,,,,,,,,,,,,
,,655fdf554b84fb6cbc5d4b93,2024-02-22_14h27.58.498,kallum_motion_pilot,2023.2.2,Win32,59.88023952,655fdf554b84fb6cbc5d4b93,65d6bb0e977760de756971f7,65d6bf1c0a464a429d9a917a,0.0667,0.0668,0,84,84,130,1,sixfive,,,,,,,,,,,,,,,,,,,,,,,,,,,,,,,,,,,,,,,,,,,,,,,,,,,,,,,,,,,,,,,,,,,,,,,,,,,,,,,,,,,,,,,,,,,,,,,,,,,,,,,,,,,,,,,,,,,,,,,,,,,,,,,,,,,,,,,,,
,,655fdf554b84fb6cbc5d4b93,2024-02-22_14h27.58.498,kallum_motion_pilot,2023.2.2,Win32,59.88023952,655fdf554b84fb6cbc5d4b93,65d6bb0e977760de756971f7,65d6bf1c0a464a429d9a917a,0.0671,0.0672,0,85,85,71,1,fourthree,,,,,,,,,,,,,,,,,,,,,,,,,,,,,,,,,,,,,,,,,,,,,,,,,,,,,,,,,,,,,,,,,,,,,,,,,,,,,,,,,,,,,,,,,,,,,,,,,,,,,,,,,,,,,,,,,,,,,,,,,,,,,,,,,,,,,,,,,
,,655fdf554b84fb6cbc5d4b93,2024-02-22_14h27.58.498,kallum_motion_pilot,2023.2.2,Win32,59.88023952,655fdf554b84fb6cbc5d4b93,65d6bb0e977760de756971f7,65d6bf1c0a464a429d9a917a,0.0676,0.0677,0,86,86,120,1,fivesix,,,,,,,,,,,,,,,,,,,,,,,,,,,,,,,,,,,,,,,,,,,,,,,,,,,,,,,,,,,,,,,,,,,,,,,,,,,,,,,,,,,,,,,,,,,,,,,,,,,,,,,,,,,,,,,,,,,,,,,,,,,,,,,,,,,,,,,,,
,,655fdf554b84fb6cbc5d4b93,2024-02-22_14h27.58.498,kallum_motion_pilot,2023.2.2,Win32,59.88023952,655fdf554b84fb6cbc5d4b93,65d6bb0e977760de756971f7,65d6bf1c0a464a429d9a917a,0.068,0.0683,0,87,87,114,1,sixfive,,,,,,,,,,,,,,,,,,,,,,,,,,,,,,,,,,,,,,,,,,,,,,,,,,,,,,,,,,,,,,,,,,,,,,,,,,,,,,,,,,,,,,,,,,,,,,,,,,,,,,,,,,,,,,,,,,,,,,,,,,,,,,,,,,,,,,,,,
,,655fdf554b84fb6cbc5d4b93,2024-02-22_14h27.58.498,kallum_motion_pilot,2023.2.2,Win32,59.88023952,655fdf554b84fb6cbc5d4b93,65d6bb0e977760de756971f7,65d6bf1c0a464a429d9a917a,0.0686,0.0687,0,88,88,1,1,onethree,,,,,,,,,,,,,,,,,,,,,,,,,,,,,,,,,,,,,,,,,,,,,,,,,,,,,,,,,,,,,,,,,,,,,,,,,,,,,,,,,,,,,,,,,,,,,,,,,,,,,,,,,,,,,,,,,,,,,,,,,,,,,,,,,,,,,,,,,
,,655fdf554b84fb6cbc5d4b93,2024-02-22_14h27.58.498,kallum_motion_pilot,2023.2.2,Win32,59.88023952,655fdf554b84fb6cbc5d4b93,65d6bb0e977760de756971f7,65d6bf1c0a464a429d9a917a,0.069,0.0692,0,89,89,100,1,sevenfive,,,,,,,,,,,,,,,,,,,,,,,,,,,,,,,,,,,,,,,,,,,,,,,,,,,,,,,,,,,,,,,,,,,,,,,,,,,,,,,,,,,,,,,,,,,,,,,,,,,,,,,,,,,,,,,,,,,,,,,,,,,,,,,,,,,,,,,,,
,,655fdf554b84fb6cbc5d4b93,2024-02-22_14h27.58.498,kallum_motion_pilot,2023.2.2,Win32,59.88023952,655fdf554b84fb6cbc5d4b93,65d6bb0e977760de756971f7,65d6bf1c0a464a429d9a917a,0.0695,0.0697,0,90,90,132,1,sevenfive,,,,,,,,,,,,,,,,,,,,,,,,,,,,,,,,,,,,,,,,,,,,,,,,,,,,,,,,,,,,,,,,,,,,,,,,,,,,,,,,,,,,,,,,,,,,,,,,,,,,,,,,,,,,,,,,,,,,,,,,,,,,,,,,,,,,,,,,,
,,655fdf554b84fb6cbc5d4b93,2024-02-22_14h27.58.498,kallum_motion_pilot,2023.2.2,Win32,59.88023952,655fdf554b84fb6cbc5d4b93,65d6bb0e977760de756971f7,65d6bf1c0a464a429d9a917a,0.07,0.0701,0,91,91,122,1,sixfive,,,,,,,,,,,,,,,,,,,,,,,,,,,,,,,,,,,,,,,,,,,,,,,,,,,,,,,,,,,,,,,,,,,,,,,,,,,,,,,,,,,,,,,,,,,,,,,,,,,,,,,,,,,,,,,,,,,,,,,,,,,,,,,,,,,,,,,,,
,,655fdf554b84fb6cbc5d4b93,2024-02-22_14h27.58.498,kallum_motion_pilot,2023.2.2,Win32,59.88023952,655fdf554b84fb6cbc5d4b93,65d6bb0e977760de756971f7,65d6bf1c0a464a429d9a917a,0.0703,0.0704,0,92,92,80,1,fivesix,,,,,,,,,,,,,,,,,,,,,,,,,,,,,,,,,,,,,,,,,,,,,,,,,,,,,,,,,,,,,,,,,,,,,,,,,,,,,,,,,,,,,,,,,,,,,,,,,,,,,,,,,,,,,,,,,,,,,,,,,,,,,,,,,,,,,,,,,
,,655fdf554b84fb6cbc5d4b93,2024-02-22_14h27.58.498,kallum_motion_pilot,2023.2.2,Win32,59.88023952,655fdf554b84fb6cbc5d4b93,65d6bb0e977760de756971f7,65d6bf1c0a464a429d9a917a,0.0707,0.0709,0,93,93,70,1,fourtwo,,,,,,,,,,,,,,,,,,,,,,,,,,,,,,,,,,,,,,,,,,,,,,,,,,,,,,,,,,,,,,,,,,,,,,,,,,,,,,,,,,,,,,,,,,,,,,,,,,,,,,,,,,,,,,,,,,,,,,,,,,,,,,,,,,,,,,,,,
,,655fdf554b84fb6cbc5d4b93,2024-02-22_14h27.58.498,kallum_motion_pilot,2023.2.2,Win32,59.88023952,655fdf554b84fb6cbc5d4b93,65d6bb0e977760de756971f7,65d6bf1c0a464a429d9a917a,0.0711,0.0713,0,94,94,9,1,onethree,,,,,,,,,,,,,,,,,,,,,,,,,,,,,,,,,,,,,,,,,,,,,,,,,,,,,,,,,,,,,,,,,,,,,,,,,,,,,,,,,,,,,,,,,,,,,,,,,,,,,,,,,,,,,,,,,,,,,,,,,,,,,,,,,,,,,,,,,
,,655fdf554b84fb6cbc5d4b93,2024-02-22_14h27.58.498,kallum_motion_pilot,2023.2.2,Win32,59.88023952,655fdf554b84fb6cbc5d4b93,65d6bb0e977760de756971f7,65d6bf1c0a464a429d9a917a,0.0715,0.0717,0,95,95,42,1,twoone,,,,,,,,,,,,,,,,,,,,,,,,,,,,,,,,,,,,,,,,,,,,,,,,,,,,,,,,,,,,,,,,,,,,,,,,,,,,,,,,,,,,,,,,,,,,,,,,,,,,,,,,,,,,,,,,,,,,,,,,,,,,,,,,,,,,,,,,,
,,655fdf554b84fb6cbc5d4b93,2024-02-22_14h27.58.498,kallum_motion_pilot,2023.2.2,Win32,59.88023952,655fdf554b84fb6cbc5d4b93,65d6bb0e977760de756971f7,65d6bf1c0a464a429d9a917a,0.072,0.0722,0,96,96,156,1,sevenfive,,,,,,,,,,,,,,,,,,,,,,,,,,,,,,,,,,,,,,,,,,,,,,,,,,,,,,,,,,,,,,,,,,,,,,,,,,,,,,,,,,,,,,,,,,,,,,,,,,,,,,,,,,,,,,,,,,,,,,,,,,,,,,,,,,,,,,,,,
,,655fdf554b84fb6cbc5d4b93,2024-02-22_14h27.58.498,kallum_motion_pilot,2023.2.2,Win32,59.88023952,655fdf554b84fb6cbc5d4b93,65d6bb0e977760de756971f7,65d6bf1c0a464a429d9a917a,0.0724,0.0725,0,97,97,17,1,onethree,,,,,,,,,,,,,,,,,,,,,,,,,,,,,,,,,,,,,,,,,,,,,,,,,,,,,,,,,,,,,,,,,,,,,,,,,,,,,,,,,,,,,,,,,,,,,,,,,,,,,,,,,,,,,,,,,,,,,,,,,,,,,,,,,,,,,,,,,
,,655fdf554b84fb6cbc5d4b93,2024-02-22_14h27.58.498,kallum_motion_pilot,2023.2.2,Win32,59.88023952,655fdf554b84fb6cbc5d4b93,65d6bb0e977760de756971f7,65d6bf1c0a464a429d9a917a,0.0729,0.0731,0,98,98,118,1,eightsix,,,,,,,,,,,,,,,,,,,,,,,,,,,,,,,,,,,,,,,,,,,,,,,,,,,,,,,,,,,,,,,,,,,,,,,,,,,,,,,,,,,,,,,,,,,,,,,,,,,,,,,,,,,,,,,,,,,,,,,,,,,,,,,,,,,,,,,,,
,,655fdf554b84fb6cbc5d4b93,2024-02-22_14h27.58.498,kallum_motion_pilot,2023.2.2,Win32,59.88023952,655fdf554b84fb6cbc5d4b93,65d6bb0e977760de756971f7,65d6bf1c0a464a429d9a917a,0.0733,0.0735,0,99,99,47,1,fourthree,,,,,,,,,,,,,,,,,,,,,,,,,,,,,,,,,,,,,,,,,,,,,,,,,,,,,,,,,,,,,,,,,,,,,,,,,,,,,,,,,,,,,,,,,,,,,,,,,,,,,,,,,,,,,,,,,,,,,,,,,,,,,,,,,,,,,,,,,
,,655fdf554b84fb6cbc5d4b93,2024-02-22_14h27.58.498,kallum_motion_pilot,2023.2.2,Win32,59.88023952,655fdf554b84fb6cbc5d4b93,65d6bb0e977760de756971f7,65d6bf1c0a464a429d9a917a,0.0738,0.0739,0,100,100,151,1,eightseven,,,,,,,,,,,,,,,,,,,,,,,,,,,,,,,,,,,,,,,,,,,,,,,,,,,,,,,,,,,,,,,,,,,,,,,,,,,,,,,,,,,,,,,,,,,,,,,,,,,,,,,,,,,,,,,,,,,,,,,,,,,,,,,,,,,,,,,,,
,,655fdf554b84fb6cbc5d4b93,2024-02-22_14h27.58.498,kallum_motion_pilot,2023.2.2,Win32,59.88023952,655fdf554b84fb6cbc5d4b93,65d6bb0e977760de756971f7,65d6bf1c0a464a429d9a917a,0.0743,0.0744,0,101,101,110,1,eightsix,,,,,,,,,,,,,,,,,,,,,,,,,,,,,,,,,,,,,,,,,,,,,,,,,,,,,,,,,,,,,,,,,,,,,,,,,,,,,,,,,,,,,,,,,,,,,,,,,,,,,,,,,,,,,,,,,,,,,,,,,,,,,,,,,,,,,,,,,
,,655fdf554b84fb6cbc5d4b93,2024-02-22_14h27.58.498,kallum_motion_pilot,2023.2.2,Win32,59.88023952,655fdf554b84fb6cbc5d4b93,65d6bb0e977760de756971f7,65d6bf1c0a464a429d9a917a,0.0747,0.0748,0,102,102,116,1,sevenfive,,,,,,,,,,,,,,,,,,,,,,,,,,,,,,,,,,,,,,,,,,,,,,,,,,,,,,,,,,,,,,,,,,,,,,,,,,,,,,,,,,,,,,,,,,,,,,,,,,,,,,,,,,,,,,,,,,,,,,,,,,,,,,,,,,,,,,,,,
,,655fdf554b84fb6cbc5d4b93,2024-02-22_14h27.58.498,kallum_motion_pilot,2023.2.2,Win32,59.88023952,655fdf554b84fb6cbc5d4b93,65d6bb0e977760de756971f7,65d6bf1c0a464a429d9a917a,0.075,0.0752,0,103,103,19,1,twofour,,,,,,,,,,,,,,,,,,,,,,,,,,,,,,,,,,,,,,,,,,,,,,,,,,,,,,,,,,,,,,,,,,,,,,,,,,,,,,,,,,,,,,,,,,,,,,,,,,,,,,,,,,,,,,,,,,,,,,,,,,,,,,,,,,,,,,,,,
,,655fdf554b84fb6cbc5d4b93,2024-02-22_14h27.58.498,kallum_motion_pilot,2023.2.2,Win32,59.88023952,655fdf554b84fb6cbc5d4b93,65d6bb0e977760de756971f7,65d6bf1c0a464a429d9a917a,0.0755,0.0756,0,104,104,28,1,threeone,,,,,,,,,,,,,,,,,,,,,,,,,,,,,,,,,,,,,,,,,,,,,,,,,,,,,,,,,,,,,,,,,,,,,,,,,,,,,,,,,,,,,,,,,,,,,,,,,,,,,,,,,,,,,,,,,,,,,,,,,,,,,,,,,,,,,,,,,
,,655fdf554b84fb6cbc5d4b93,2024-02-22_14h27.58.498,kallum_motion_pilot,2023.2.2,Win32,59.88023952,655fdf554b84fb6cbc5d4b93,65d6bb0e977760de756971f7,65d6bf1c0a464a429d9a917a,0.0759,0.0763,0,105,105,59,1,twofour,,,,,,,,,,,,,,,,,,,,,,,,,,,,,,,,,,,,,,,,,,,,,,,,,,,,,,,,,,,,,,,,,,,,,,,,,,,,,,,,,,,,,,,,,,,,,,,,,,,,,,,,,,,,,,,,,,,,,,,,,,,,,,,,,,,,,,,,,
,,655fdf554b84fb6cbc5d4b93,2024-02-22_14h27.58.498,kallum_motion_pilot,2023.2.2,Win32,59.88023952,655fdf554b84fb6cbc5d4b93,65d6bb0e977760de756971f7,65d6bf1c0a464a429d9a917a,0.0767,0.0769,0,106,106,95,1,eightseven,,,,,,,,,,,,,,,,,,,,,,,,,,,,,,,,,,,,,,,,,,,,,,,,,,,,,,,,,,,,,,,,,,,,,,,,,,,,,,,,,,,,,,,,,,,,,,,,,,,,,,,,,,,,,,,,,,,,,,,,,,,,,,,,,,,,,,,,,
,,655fdf554b84fb6cbc5d4b93,2024-02-22_14h27.58.498,kallum_motion_pilot,2023.2.2,Win32,59.88023952,655fdf554b84fb6cbc5d4b93,65d6bb0e977760de756971f7,65d6bf1c0a464a429d9a917a,0.0772,0.0774,0,107,107,8,1,onetwo,,,,,,,,,,,,,,,,,,,,,,,,,,,,,,,,,,,,,,,,,,,,,,,,,,,,,,,,,,,,,,,,,,,,,,,,,,,,,,,,,,,,,,,,,,,,,,,,,,,,,,,,,,,,,,,,,,,,,,,,,,,,,,,,,,,,,,,,,
,,655fdf554b84fb6cbc5d4b93,2024-02-22_14h27.58.498,kallum_motion_pilot,2023.2.2,Win32,59.88023952,655fdf554b84fb6cbc5d4b93,65d6bb0e977760de756971f7,65d6bf1c0a464a429d9a917a,0.0776,0.0779,0,108,108,65,1,onethree,,,,,,,,,,,,,,,,,,,,,,,,,,,,,,,,,,,,,,,,,,,,,,,,,,,,,,,,,,,,,,,,,,,,,,,,,,,,,,,,,,,,,,,,,,,,,,,,,,,,,,,,,,,,,,,,,,,,,,,,,,,,,,,,,,,,,,,,,
,,655fdf554b84fb6cbc5d4b93,2024-02-22_14h27.58.498,kallum_motion_pilot,2023.2.2,Win32,59.88023952,655fdf554b84fb6cbc5d4b93,65d6bb0e977760de756971f7,65d6bf1c0a464a429d9a917a,0.0781,0.0783,0,109,109,93,1,seveneight,,,,,,,,,,,,,,,,,,,,,,,,,,,,,,,,,,,,,,,,,,,,,,,,,,,,,,,,,,,,,,,,,,,,,,,,,,,,,,,,,,,,,,,,,,,,,,,,,,,,,,,,,,,,,,,,,,,,,,,,,,,,,,,,,,,,,,,,,
,,655fdf554b84fb6cbc5d4b93,2024-02-22_14h27.58.498,kallum_motion_pilot,2023.2.2,Win32,59.88023952,655fdf554b84fb6cbc5d4b93,65d6bb0e977760de756971f7,65d6bf1c0a464a429d9a917a,0.0786,0.0788,0,110,110,21,1,threefour,,,,,,,,,,,,,,,,,,,,,,,,,,,,,,,,,,,,,,,,,,,,,,,,,,,,,,,,,,,,,,,,,,,,,,,,,,,,,,,,,,,,,,,,,,,,,,,,,,,,,,,,,,,,,,,,,,,,,,,,,,,,,,,,,,,,,,,,,
,,655fdf554b84fb6cbc5d4b93,2024-02-22_14h27.58.498,kallum_motion_pilot,2023.2.2,Win32,59.88023952,655fdf554b84fb6cbc5d4b93,65d6bb0e977760de756971f7,65d6bf1c0a464a429d9a917a,0.0791,0.0792,0,111,111,60,1,threeone,,,,,,,,,,,,,,,,,,,,,,,,,,,,,,,,,,,,,,,,,,,,,,,,,,,,,,,,,,,,,,,,,,,,,,,,,,,,,,,,,,,,,,,,,,,,,,,,,,,,,,,,,,,,,,,,,,,,,,,,,,,,,,,,,,,,,,,,,
,,655fdf554b84fb6cbc5d4b93,2024-02-22_14h27.58.498,kallum_motion_pilot,2023.2.2,Win32,59.88023952,655fdf554b84fb6cbc5d4b93,65d6bb0e977760de756971f7,65d6bf1c0a464a429d9a917a,0.0794,0.0801,0,112,112,129,1,fiveseven,,,,,,,,,,,,,,,,,,,,,,,,,,,,,,,,,,,,,,,,,,,,,,,,,,,,,,,,,,,,,,,,,,,,,,,,,,,,,,,,,,,,,,,,,,,,,,,,,,,,,,,,,,,,,,,,,,,,,,,,,,,,,,,,,,,,,,,,,
,,655fdf554b84fb6cbc5d4b93,2024-02-22_14h27.58.498,kallum_motion_pilot,2023.2.2,Win32,59.88023952,655fdf554b84fb6cbc5d4b93,65d6bb0e977760de756971f7,65d6bf1c0a464a429d9a917a,0.0808,0.081,0,113,113,12,1,threeone,,,,,,,,,,,,,,,,,,,,,,,,,,,,,,,,,,,,,,,,,,,,,,,,,,,,,,,,,,,,,,,,,,,,,,,,,,,,,,,,,,,,,,,,,,,,,,,,,,,,,,,,,,,,,,,,,,,,,,,,,,,,,,,,,,,,,,,,,
,,655fdf554b84fb6cbc5d4b93,2024-02-22_14h27.58.498,kallum_motion_pilot,2023.2.2,Win32,59.88023952,655fdf554b84fb6cbc5d4b93,65d6bb0e977760de756971f7,65d6bf1c0a464a429d9a917a,0.0814,0.0817,0,114,114,97,1,fiveseven,,,,,,,,,,,,,,,,,,,,,,,,,,,,,,,,,,,,,,,,,,,,,,,,,,,,,,,,,,,,,,,,,,,,,,,,,,,,,,,,,,,,,,,,,,,,,,,,,,,,,,,,,,,,,,,,,,,,,,,,,,,,,,,,,,,,,,,,,
,,655fdf554b84fb6cbc5d4b93,2024-02-22_14h27.58.498,kallum_motion_pilot,2023.2.2,Win32,59.88023952,655fdf554b84fb6cbc5d4b93,65d6bb0e977760de756971f7,65d6bf1c0a464a429d9a917a,0.0823,0.0825,0,115,115,136,1,fivesix,,,,,,,,,,,,,,,,,,,,,,,,,,,,,,,,,,,,,,,,,,,,,,,,,,,,,,,,,,,,,,,,,,,,,,,,,,,,,,,,,,,,,,,,,,,,,,,,,,,,,,,,,,,,,,,,,,,,,,,,,,,,,,,,,,,,,,,,,
,,655fdf554b84fb6cbc5d4b93,2024-02-22_14h27.58.498,kallum_motion_pilot,2023.2.2,Win32,59.88023952,655fdf554b84fb6cbc5d4b93,65d6bb0e977760de756971f7,65d6bf1c0a464a429d9a917a,0.0829,0.0831,0,116,116,10,1,twoone,,,,,,,,,,,,,,,,,,,,,,,,,,,,,,,,,,,,,,,,,,,,,,,,,,,,,,,,,,,,,,,,,,,,,,,,,,,,,,,,,,,,,,,,,,,,,,,,,,,,,,,,,,,,,,,,,,,,,,,,,,,,,,,,,,,,,,,,,
,,655fdf554b84fb6cbc5d4b93,2024-02-22_14h27.58.498,kallum_motion_pilot,2023.2.2,Win32,59.88023952,655fdf554b84fb6cbc5d4b93,65d6bb0e977760de756971f7,65d6bf1c0a464a429d9a917a,0.0834,0.0835,0,117,117,67,1,twofour,,,,,,,,,,,,,,,,,,,,,,,,,,,,,,,,,,,,,,,,,,,,,,,,,,,,,,,,,,,,,,,,,,,,,,,,,,,,,,,,,,,,,,,,,,,,,,,,,,,,,,,,,,,,,,,,,,,,,,,,,,,,,,,,,,,,,,,,,
,,655fdf554b84fb6cbc5d4b93,2024-02-22_14h27.58.498,kallum_motion_pilot,2023.2.2,Win32,59.88023952,655fdf554b84fb6cbc5d4b93,65d6bb0e977760de756971f7,65d6bf1c0a464a429d9a917a,0.0838,0.084,0,118,118,31,1,fourthree,,,,,,,,,,,,,,,,,,,,,,,,,,,,,,,,,,,,,,,,,,,,,,,,,,,,,,,,,,,,,,,,,,,,,,,,,,,,,,,,,,,,,,,,,,,,,,,,,,,,,,,,,,,,,,,,,,,,,,,,,,,,,,,,,,,,,,,,,
,,655fdf554b84fb6cbc5d4b93,2024-02-22_14h27.58.498,kallum_motion_pilot,2023.2.2,Win32,59.88023952,655fdf554b84fb6cbc5d4b93,65d6bb0e977760de756971f7,65d6bf1c0a464a429d9a917a,0.0842,0.0844,0,119,119,144,1,fivesix,,,,,,,,,,,,,,,,,,,,,,,,,,,,,,,,,,,,,,,,,,,,,,,,,,,,,,,,,,,,,,,,,,,,,,,,,,,,,,,,,,,,,,,,,,,,,,,,,,,,,,,,,,,,,,,,,,,,,,,,,,,,,,,,,,,,,,,,,
,,655fdf554b84fb6cbc5d4b93,2024-02-22_14h27.58.498,kallum_motion_pilot,2023.2.2,Win32,59.88023952,655fdf554b84fb6cbc5d4b93,65d6bb0e977760de756971f7,65d6bf1c0a464a429d9a917a,0.0846,0.0849,0,120,120,44,1,threeone,,,,,,,,,,,,,,,,,,,,,,,,,,,,,,,,,,,,,,,,,,,,,,,,,,,,,,,,,,,,,,,,,,,,,,,,,,,,,,,,,,,,,,,,,,,,,,,,,,,,,,,,,,,,,,,,,,,,,,,,,,,,,,,,,,,,,,,,,
,,655fdf554b84fb6cbc5d4b93,2024-02-22_14h27.58.498,kallum_motion_pilot,2023.2.2,Win32,59.88023952,655fdf554b84fb6cbc5d4b93,65d6bb0e977760de756971f7,65d6bf1c0a464a429d9a917a,0.0851,0.0853,0,121,121,143,1,eightseven,,,,,,,,,,,,,,,,,,,,,,,,,,,,,,,,,,,,,,,,,,,,,,,,,,,,,,,,,,,,,,,,,,,,,,,,,,,,,,,,,,,,,,,,,,,,,,,,,,,,,,,,,,,,,,,,,,,,,,,,,,,,,,,,,,,,,,,,,
,,655fdf554b84fb6cbc5d4b93,2024-02-22_14h27.58.498,kallum_motion_pilot,2023.2.2,Win32,59.88023952,655fdf554b84fb6cbc5d4b93,65d6bb0e977760de756971f7,65d6bf1c0a464a429d9a917a,0.0856,0.0857,0,122,122,155,1,sixeight,,,,,,,,,,,,,,,,,,,,,,,,,,,,,,,,,,,,,,,,,,,,,,,,,,,,,,,,,,,,,,,,,,,,,,,,,,,,,,,,,,,,,,,,,,,,,,,,,,,,,,,,,,,,,,,,,,,,,,,,,,,,,,,,,,,,,,,,,
,,655fdf554b84fb6cbc5d4b93,2024-02-22_14h27.58.498,kallum_motion_pilot,2023.2.2,Win32,59.88023952,655fdf554b84fb6cbc5d4b93,65d6bb0e977760de756971f7,65d6bf1c0a464a429d9a917a,0.0861,0.0863,0,123,123,76,1,threeone,,,,,,,,,,,,,,,,,,,,,,,,,,,,,,,,,,,,,,,,,,,,,,,,,,,,,,,,,,,,,,,,,,,,,,,,,,,,,,,,,,,,,,,,,,,,,,,,,,,,,,,,,,,,,,,,,,,,,,,,,,,,,,,,,,,,,,,,,
,,655fdf554b84fb6cbc5d4b93,2024-02-22_14h27.58.498,kallum_motion_pilot,2023.2.2,Win32,59.88023952,655fdf554b84fb6cbc5d4b93,65d6bb0e977760de756971f7,65d6bf1c0a464a429d9a917a,0.0866,0.0868,0,124,124,50,1,twoone,,,,,,,,,,,,,,,,,,,,,,,,,,,,,,,,,,,,,,,,,,,,,,,,,,,,,,,,,,,,,,,,,,,,,,,,,,,,,,,,,,,,,,,,,,,,,,,,,,,,,,,,,,,,,,,,,,,,,,,,,,,,,,,,,,,,,,,,,
,,655fdf554b84fb6cbc5d4b93,2024-02-22_14h27.58.498,kallum_motion_pilot,2023.2.2,Win32,59.88023952,655fdf554b84fb6cbc5d4b93,65d6bb0e977760de756971f7,65d6bf1c0a464a429d9a917a,0.0872,0.0876,0,125,125,101,1,seveneight,,,,,,,,,,,,,,,,,,,,,,,,,,,,,,,,,,,,,,,,,,,,,,,,,,,,,,,,,,,,,,,,,,,,,,,,,,,,,,,,,,,,,,,,,,,,,,,,,,,,,,,,,,,,,,,,,,,,,,,,,,,,,,,,,,,,,,,,,
,,655fdf554b84fb6cbc5d4b93,2024-02-22_14h27.58.498,kallum_motion_pilot,2023.2.2,Win32,59.88023952,655fdf554b84fb6cbc5d4b93,65d6bb0e977760de756971f7,65d6bf1c0a464a429d9a917a,0.0881,0.0882,0,126,126,85,1,seveneight,,,,,,,,,,,,,,,,,,,,,,,,,,,,,,,,,,,,,,,,,,,,,,,,,,,,,,,,,,,,,,,,,,,,,,,,,,,,,,,,,,,,,,,,,,,,,,,,,,,,,,,,,,,,,,,,,,,,,,,,,,,,,,,,,,,,,,,,,
,,655fdf554b84fb6cbc5d4b93,2024-02-22_14h27.58.498,kallum_motion_pilot,2023.2.2,Win32,59.88023952,655fdf554b84fb6cbc5d4b93,65d6bb0e977760de756971f7,65d6bf1c0a464a429d9a917a,0.0885,0.0887,0,127,127,106,1,sixfive,,,,,,,,,,,,,,,,,,,,,,,,,,,,,,,,,,,,,,,,,,,,,,,,,,,,,,,,,,,,,,,,,,,,,,,,,,,,,,,,,,,,,,,,,,,,,,,,,,,,,,,,,,,,,,,,,,,,,,,,,,,,,,,,,,,,,,,,,
,,655fdf554b84fb6cbc5d4b93,2024-02-22_14h27.58.498,kallum_motion_pilot,2023.2.2,Win32,59.88023952,655fdf554b84fb6cbc5d4b93,65d6bb0e977760de756971f7,65d6bf1c0a464a429d9a917a,0.0889,0.0891,0,128,128,75,1,twofour,,,,,,,,,,,,,,,,,,,,,,,,,,,,,,,,,,,,,,,,,,,,,,,,,,,,,,,,,,,,,,,,,,,,,,,,,,,,,,,,,,,,,,,,,,,,,,,,,,,,,,,,,,,,,,,,,,,,,,,,,,,,,,,,,,,,,,,,,
,,655fdf554b84fb6cbc5d4b93,2024-02-22_14h27.58.498,kallum_motion_pilot,2023.2.2,Win32,59.88023952,655fdf554b84fb6cbc5d4b93,65d6bb0e977760de756971f7,65d6bf1c0a464a429d9a917a,0.0893,0.0895,0,129,129,135,1,eightseven,,,,,,,,,,,,,,,,,,,,,,,,,,,,,,,,,,,,,,,,,,,,,,,,,,,,,,,,,,,,,,,,,,,,,,,,,,,,,,,,,,,,,,,,,,,,,,,,,,,,,,,,,,,,,,,,,,,,,,,,,,,,,,,,,,,,,,,,,
,,655fdf554b84fb6cbc5d4b93,2024-02-22_14h27.58.498,kallum_motion_pilot,2023.2.2,Win32,59.88023952,655fdf554b84fb6cbc5d4b93,65d6bb0e977760de756971f7,65d6bf1c0a464a429d9a917a,0.0898,0.09,0,130,130,73,1,onethree,,,,,,,,,,,,,,,,,,,,,,,,,,,,,,,,,,,,,,,,,,,,,,,,,,,,,,,,,,,,,,,,,,,,,,,,,,,,,,,,,,,,,,,,,,,,,,,,,,,,,,,,,,,,,,,,,,,,,,,,,,,,,,,,,,,,,,,,,
,,655fdf554b84fb6cbc5d4b93,2024-02-22_14h27.58.498,kallum_motion_pilot,2023.2.2,Win32,59.88023952,655fdf554b84fb6cbc5d4b93,65d6bb0e977760de756971f7,65d6bf1c0a464a429d9a917a,0.0902,0.0904,0,131,131,49,1,onethree,,,,,,,,,,,,,,,,,,,,,,,,,,,,,,,,,,,,,,,,,,,,,,,,,,,,,,,,,,,,,,,,,,,,,,,,,,,,,,,,,,,,,,,,,,,,,,,,,,,,,,,,,,,,,,,,,,,,,,,,,,,,,,,,,,,,,,,,,
,,655fdf554b84fb6cbc5d4b93,2024-02-22_14h27.58.498,kallum_motion_pilot,2023.2.2,Win32,59.88023952,655fdf554b84fb6cbc5d4b93,65d6bb0e977760de756971f7,65d6bf1c0a464a429d9a917a,0.0907,0.0909,0,132,132,159,1,eightseven,,,,,,,,,,,,,,,,,,,,,,,,,,,,,,,,,,,,,,,,,,,,,,,,,,,,,,,,,,,,,,,,,,,,,,,,,,,,,,,,,,,,,,,,,,,,,,,,,,,,,,,,,,,,,,,,,,,,,,,,,,,,,,,,,,,,,,,,,
,,655fdf554b84fb6cbc5d4b93,2024-02-22_14h27.58.498,kallum_motion_pilot,2023.2.2,Win32,59.88023952,655fdf554b84fb6cbc5d4b93,65d6bb0e977760de756971f7,65d6bf1c0a464a429d9a917a,0.0911,0.0912,0,133,133,98,1,sixfive,,,,,,,,,,,,,,,,,,,,,,,,,,,,,,,,,,,,,,,,,,,,,,,,,,,,,,,,,,,,,,,,,,,,,,,,,,,,,,,,,,,,,,,,,,,,,,,,,,,,,,,,,,,,,,,,,,,,,,,,,,,,,,,,,,,,,,,,,
,,655fdf554b84fb6cbc5d4b93,2024-02-22_14h27.58.498,kallum_motion_pilot,2023.2.2,Win32,59.88023952,655fdf554b84fb6cbc5d4b93,65d6bb0e977760de756971f7,65d6bf1c0a464a429d9a917a,0.0918,0.0921,0,134,134,38,1,fourtwo,,,,,,,,,,,,,,,,,,,,,,,,,,,,,,,,,,,,,,,,,,,,,,,,,,,,,,,,,,,,,,,,,,,,,,,,,,,,,,,,,,,,,,,,,,,,,,,,,,,,,,,,,,,,,,,,,,,,,,,,,,,,,,,,,,,,,,,,,
,,655fdf554b84fb6cbc5d4b93,2024-02-22_14h27.58.498,kallum_motion_pilot,2023.2.2,Win32,59.88023952,655fdf554b84fb6cbc5d4b93,65d6bb0e977760de756971f7,65d6bf1c0a464a429d9a917a,0.0926,0.0928,0,135,135,51,1,twofour,,,,,,,,,,,,,,,,,,,,,,,,,,,,,,,,,,,,,,,,,,,,,,,,,,,,,,,,,,,,,,,,,,,,,,,,,,,,,,,,,,,,,,,,,,,,,,,,,,,,,,,,,,,,,,,,,,,,,,,,,,,,,,,,,,,,,,,,,
,,655fdf554b84fb6cbc5d4b93,2024-02-22_14h27.58.498,kallum_motion_pilot,2023.2.2,Win32,59.88023952,655fdf554b84fb6cbc5d4b93,65d6bb0e977760de756971f7,65d6bf1c0a464a429d9a917a,0.0933,0.0936,0,136,136,11,1,twofour,,,,,,,,,,,,,,,,,,,,,,,,,,,,,,,,,,,,,,,,,,,,,,,,,,,,,,,,,,,,,,,,,,,,,,,,,,,,,,,,,,,,,,,,,,,,,,,,,,,,,,,,,,,,,,,,,,,,,,,,,,,,,,,,,,,,,,,,,
,,655fdf554b84fb6cbc5d4b93,2024-02-22_14h27.58.498,kallum_motion_pilot,2023.2.2,Win32,59.88023952,655fdf554b84fb6cbc5d4b93,65d6bb0e977760de756971f7,65d6bf1c0a464a429d9a917a,0.0939,0.0942,0,137,137,54,1,fourtwo,,,,,,,,,,,,,,,,,,,,,,,,,,,,,,,,,,,,,,,,,,,,,,,,,,,,,,,,,,,,,,,,,,,,,,,,,,,,,,,,,,,,,,,,,,,,,,,,,,,,,,,,,,,,,,,,,,,,,,,,,,,,,,,,,,,,,,,,,
,,655fdf554b84fb6cbc5d4b93,2024-02-22_14h27.58.498,kallum_motion_pilot,2023.2.2,Win32,59.88023952,655fdf554b84fb6cbc5d4b93,65d6bb0e977760de756971f7,65d6bf1c0a464a429d9a917a,0.0944,0.0946,0,138,138,36,1,threeone,,,,,,,,,,,,,,,,,,,,,,,,,,,,,,,,,,,,,,,,,,,,,,,,,,,,,,,,,,,,,,,,,,,,,,,,,,,,,,,,,,,,,,,,,,,,,,,,,,,,,,,,,,,,,,,,,,,,,,,,,,,,,,,,,,,,,,,,,
,,655fdf554b84fb6cbc5d4b93,2024-02-22_14h27.58.498,kallum_motion_pilot,2023.2.2,Win32,59.88023952,655fdf554b84fb6cbc5d4b93,65d6bb0e977760de756971f7,65d6bf1c0a464a429d9a917a,0.0949,0.0951,0,139,139,123,1,sixeight,,,,,,,,,,,,,,,,,,,,,,,,,,,,,,,,,,,,,,,,,,,,,,,,,,,,,,,,,,,,,,,,,,,,,,,,,,,,,,,,,,,,,,,,,,,,,,,,,,,,,,,,,,,,,,,,,,,,,,,,,,,,,,,,,,,,,,,,,
,,655fdf554b84fb6cbc5d4b93,2024-02-22_14h27.58.498,kallum_motion_pilot,2023.2.2,Win32,59.88023952,655fdf554b84fb6cbc5d4b93,65d6bb0e977760de756971f7,65d6bf1c0a464a429d9a917a,0.0954,0.0956,0,140,140,13,1,threefour,,,,,,,,,,,,,,,,,,,,,,,,,,,,,,,,,,,,,,,,,,,,,,,,,,,,,,,,,,,,,,,,,,,,,,,,,,,,,,,,,,,,,,,,,,,,,,,,,,,,,,,,,,,,,,,,,,,,,,,,,,,,,,,,,,,,,,,,,
,,655fdf554b84fb6cbc5d4b93,2024-02-22_14h27.58.498,kallum_motion_pilot,2023.2.2,Win32,59.88023952,655fdf554b84fb6cbc5d4b93,65d6bb0e977760de756971f7,65d6bf1c0a464a429d9a917a,0.0958,0.0961,0,141,141,121,1,fiveseven,,,,,,,,,,,,,,,,,,,,,,,,,,,,,,,,,,,,,,,,,,,,,,,,,,,,,,,,,,,,,,,,,,,,,,,,,,,,,,,,,,,,,,,,,,,,,,,,,,,,,,,,,,,,,,,,,,,,,,,,,,,,,,,,,,,,,,,,,
,,655fdf554b84fb6cbc5d4b93,2024-02-22_14h27.58.498,kallum_motion_pilot,2023.2.2,Win32,59.88023952,655fdf554b84fb6cbc5d4b93,65d6bb0e977760de756971f7,65d6bf1c0a464a429d9a917a,0.097,0.0973,0,142,142,141,1,seveneight,,,,,,,,,,,,,,,,,,,,,,,,,,,,,,,,,,,,,,,,,,,,,,,,,,,,,,,,,,,,,,,,,,,,,,,,,,,,,,,,,,,,,,,,,,,,,,,,,,,,,,,,,,,,,,,,,,,,,,,,,,,,,,,,,,,,,,,,,
,,655fdf554b84fb6cbc5d4b93,2024-02-22_14h27.58.498,kallum_motion_pilot,2023.2.2,Win32,59.88023952,655fdf554b84fb6cbc5d4b93,65d6bb0e977760de756971f7,65d6bf1c0a464a429d9a917a,0.0976,0.0979,0,143,143,84,1,sevenfive,,,,,,,,,,,,,,,,,,,,,,,,,,,,,,,,,,,,,,,,,,,,,,,,,,,,,,,,,,,,,,,,,,,,,,,,,,,,,,,,,,,,,,,,,,,,,,,,,,,,,,,,,,,,,,,,,,,,,,,,,,,,,,,,,,,,,,,,,
,,655fdf554b84fb6cbc5d4b93,2024-02-22_14h27.58.498,kallum_motion_pilot,2023.2.2,Win32,59.88023952,655fdf554b84fb6cbc5d4b93,65d6bb0e977760de756971f7,65d6bf1c0a464a429d9a917a,0.0982,0.0984,0,144,144,41,1,onethree,,,,,,,,,,,,,,,,,,,,,,,,,,,,,,,,,,,,,,,,,,,,,,,,,,,,,,,,,,,,,,,,,,,,,,,,,,,,,,,,,,,,,,,,,,,,,,,,,,,,,,,,,,,,,,,,,,,,,,,,,,,,,,,,,,,,,,,,,
,,655fdf554b84fb6cbc5d4b93,2024-02-22_14h27.58.498,kallum_motion_pilot,2023.2.2,Win32,59.88023952,655fdf554b84fb6cbc5d4b93,65d6bb0e977760de756971f7,65d6bf1c0a464a429d9a917a,0.0987,0.0989,0,145,145,79,1,eightseven,,,,,,,,,,,,,,,,,,,,,,,,,,,,,,,,,,,,,,,,,,,,,,,,,,,,,,,,,,,,,,,,,,,,,,,,,,,,,,,,,,,,,,,,,,,,,,,,,,,,,,,,,,,,,,,,,,,,,,,,,,,,,,,,,,,,,,,,,
,,655fdf554b84fb6cbc5d4b93,2024-02-22_14h27.58.498,kallum_motion_pilot,2023.2.2,Win32,59.88023952,655fdf554b84fb6cbc5d4b93,65d6bb0e977760de756971f7,65d6bf1c0a464a429d9a917a,0.0991,0.0993,0,146,146,87,1,eightseven,,,,,,,,,,,,,,,,,,,,,,,,,,,,,,,,,,,,,,,,,,,,,,,,,,,,,,,,,,,,,,,,,,,,,,,,,,,,,,,,,,,,,,,,,,,,,,,,,,,,,,,,,,,,,,,,,,,,,,,,,,,,,,,,,,,,,,,,,
,,655fdf554b84fb6cbc5d4b93,2024-02-22_14h27.58.498,kallum_motion_pilot,2023.2.2,Win32,59.88023952,655fdf554b84fb6cbc5d4b93,65d6bb0e977760de756971f7,65d6bf1c0a464a429d9a917a,0.0996,0.0997,0,147,147,158,1,eightsix,,,,,,,,,,,,,,,,,,,,,,,,,,,,,,,,,,,,,,,,,,,,,,,,,,,,,,,,,,,,,,,,,,,,,,,,,,,,,,,,,,,,,,,,,,,,,,,,,,,,,,,,,,,,,,,,,,,,,,,,,,,,,,,,,,,,,,,,,
,,655fdf554b84fb6cbc5d4b93,2024-02-22_14h27.58.498,kallum_motion_pilot,2023.2.2,Win32,59.88023952,655fdf554b84fb6cbc5d4b93,65d6bb0e977760de756971f7,65d6bf1c0a464a429d9a917a,0.1,0.1002,0,148,148,127,1,eightseven,,,,,,,,,,,,,,,,,,,,,,,,,,,,,,,,,,,,,,,,,,,,,,,,,,,,,,,,,,,,,,,,,,,,,,,,,,,,,,,,,,,,,,,,,,,,,,,,,,,,,,,,,,,,,,,,,,,,,,,,,,,,,,,,,,,,,,,,,
,,655fdf554b84fb6cbc5d4b93,2024-02-22_14h27.58.498,kallum_motion_pilot,2023.2.2,Win32,59.88023952,655fdf554b84fb6cbc5d4b93,65d6bb0e977760de756971f7,65d6bf1c0a464a429d9a917a,0.1004,0.1006,0,149,149,83,1,sixeight,,,,,,,,,,,,,,,,,,,,,,,,,,,,,,,,,,,,,,,,,,,,,,,,,,,,,,,,,,,,,,,,,,,,,,,,,,,,,,,,,,,,,,,,,,,,,,,,,,,,,,,,,,,,,,,,,,,,,,,,,,,,,,,,,,,,,,,,,
,,655fdf554b84fb6cbc5d4b93,2024-02-22_14h27.58.498,kallum_motion_pilot,2023.2.2,Win32,59.88023952,655fdf554b84fb6cbc5d4b93,65d6bb0e977760de756971f7,65d6bf1c0a464a429d9a917a,0.1009,0.101,0,150,150,45,1,threefour,,,,,,,,,,,,,,,,,,,,,,,,,,,,,,,,,,,,,,,,,,,,,,,,,,,,,,,,,,,,,,,,,,,,,,,,,,,,,,,,,,,,,,,,,,,,,,,,,,,,,,,,,,,,,,,,,,,,,,,,,,,,,,,,,,,,,,,,,
,,655fdf554b84fb6cbc5d4b93,2024-02-22_14h27.58.498,kallum_motion_pilot,2023.2.2,Win32,59.88023952,655fdf554b84fb6cbc5d4b93,65d6bb0e977760de756971f7,65d6bf1c0a464a429d9a917a,0.1013,0.1014,0,151,151,109,1,seveneight,,,,,,,,,,,,,,,,,,,,,,,,,,,,,,,,,,,,,,,,,,,,,,,,,,,,,,,,,,,,,,,,,,,,,,,,,,,,,,,,,,,,,,,,,,,,,,,,,,,,,,,,,,,,,,,,,,,,,,,,,,,,,,,,,,,,,,,,,
,,655fdf554b84fb6cbc5d4b93,2024-02-22_14h27.58.498,kallum_motion_pilot,2023.2.2,Win32,59.88023952,655fdf554b84fb6cbc5d4b93,65d6bb0e977760de756971f7,65d6bf1c0a464a429d9a917a,0.1018,0.1019,0,152,152,7,1,fourthree,,,,,,,,,,,,,,,,,,,,,,,,,,,,,,,,,,,,,,,,,,,,,,,,,,,,,,,,,,,,,,,,,,,,,,,,,,,,,,,,,,,,,,,,,,,,,,,,,,,,,,,,,,,,,,,,,,,,,,,,,,,,,,,,,,,,,,,,,
,,655fdf554b84fb6cbc5d4b93,2024-02-22_14h27.58.498,kallum_motion_pilot,2023.2.2,Win32,59.88023952,655fdf554b84fb6cbc5d4b93,65d6bb0e977760de756971f7,65d6bf1c0a464a429d9a917a,0.1021,0.1023,0,153,153,133,1,seveneight,,,,,,,,,,,,,,,,,,,,,,,,,,,,,,,,,,,,,,,,,,,,,,,,,,,,,,,,,,,,,,,,,,,,,,,,,,,,,,,,,,,,,,,,,,,,,,,,,,,,,,,,,,,,,,,,,,,,,,,,,,,,,,,,,,,,,,,,,
,,655fdf554b84fb6cbc5d4b93,2024-02-22_14h27.58.498,kallum_motion_pilot,2023.2.2,Win32,59.88023952,655fdf554b84fb6cbc5d4b93,65d6bb0e977760de756971f7,65d6bf1c0a464a429d9a917a,0.1027,0.1029,0,154,154,68,1,threeone,,,,,,,,,,,,,,,,,,,,,,,,,,,,,,,,,,,,,,,,,,,,,,,,,,,,,,,,,,,,,,,,,,,,,,,,,,,,,,,,,,,,,,,,,,,,,,,,,,,,,,,,,,,,,,,,,,,,,,,,,,,,,,,,,,,,,,,,,
,,655fdf554b84fb6cbc5d4b93,2024-02-22_14h27.58.498,kallum_motion_pilot,2023.2.2,Win32,59.88023952,655fdf554b84fb6cbc5d4b93,65d6bb0e977760de756971f7,65d6bf1c0a464a429d9a917a,0.1032,0.1034,0,155,155,148,1,sevenfive,,,,,,,,,,,,,,,,,,,,,,,,,,,,,,,,,,,,,,,,,,,,,,,,,,,,,,,,,,,,,,,,,,,,,,,,,,,,,,,,,,,,,,,,,,,,,,,,,,,,,,,,,,,,,,,,,,,,,,,,,,,,,,,,,,,,,,,,,
,,655fdf554b84fb6cbc5d4b93,2024-02-22_14h27.58.498,kallum_motion_pilot,2023.2.2,Win32,59.88023952,655fdf554b84fb6cbc5d4b93,65d6bb0e977760de756971f7,65d6bf1c0a464a429d9a917a,0.1037,0.1038,0,156,156,0,1,onetwo,,,,,,,,,,,,,,,,,,,,,,,,,,,,,,,,,,,,,,,,,,,,,,,,,,,,,,,,,,,,,,,,,,,,,,,,,,,,,,,,,,,,,,,,,,,,,,,,,,,,,,,,,,,,,,,,,,,,,,,,,,,,,,,,,,,,,,,,,
,,655fdf554b84fb6cbc5d4b93,2024-02-22_14h27.58.498,kallum_motion_pilot,2023.2.2,Win32,59.88023952,655fdf554b84fb6cbc5d4b93,65d6bb0e977760de756971f7,65d6bf1c0a464a429d9a917a,0.1041,0.1043,0,157,157,147,1,sixeight,,,,,,,,,,,,,,,,,,,,,,,,,,,,,,,,,,,,,,,,,,,,,,,,,,,,,,,,,,,,,,,,,,,,,,,,,,,,,,,,,,,,,,,,,,,,,,,,,,,,,,,,,,,,,,,,,,,,,,,,,,,,,,,,,,,,,,,,,
,,655fdf554b84fb6cbc5d4b93,2024-02-22_14h27.58.498,kallum_motion_pilot,2023.2.2,Win32,59.88023952,655fdf554b84fb6cbc5d4b93,65d6bb0e977760de756971f7,65d6bf1c0a464a429d9a917a,0.1045,0.1047,0,158,158,138,1,sixfive,,,,,,,,,,,,,,,,,,,,,,,,,,,,,,,,,,,,,,,,,,,,,,,,,,,,,,,,,,,,,,,,,,,,,,,,,,,,,,,,,,,,,,,,,,,,,,,,,,,,,,,,,,,,,,,,,,,,,,,,,,,,,,,,,,,,,,,,,
,,655fdf554b84fb6cbc5d4b93,2024-02-22_14h27.58.498,kallum_motion_pilot,2023.2.2,Win32,59.88023952,655fdf554b84fb6cbc5d4b93,65d6bb0e977760de756971f7,65d6bf1c0a464a429d9a917a,0.105,0.1052,0,159,159,46,1,fourtwo,,,,,,,,,,,,,,,,,,,,,,,,,,,,,,,,,,,,,,,,,,,,,,,,,,,,,,,,,,,,,,,,,,,,,,,,,,,,,,,,,,,,,,,,,,,,,,,,,,,,,,,,,,,,,,,,,,,,,,,,,,,,,,,,,,,,,,,,,
,,655fdf554b84fb6cbc5d4b93,2024-02-22_14h27.58.498,kallum_motion_pilot,2023.2.2,Win32,59.88023952,655fdf554b84fb6cbc5d4b93,65d6bb0e977760de756971f7,65d6bf1c0a464a429d9a917a,0.1054,0.1056,0,160,160,102,1,eightsix,,,,,,,,,,,,,,,,,,,,,,,,,,,,,,,,,,,,,,,,,,,,,,,,,,,,,,,,,,,,,,,,,,,,,,,,,,,,,,,,,,,,,,,,,,,,,,,,,,,,,,,,,,,,,,,,,,,,,,,,,,,,,,,,,,,,,,,,,
,,655fdf554b84fb6cbc5d4b93,2024-02-22_14h27.58.498,kallum_motion_pilot,2023.2.2,Win32,59.88023952,655fdf554b84fb6cbc5d4b93,65d6bb0e977760de756971f7,65d6bf1c0a464a429d9a917a,0.1059,0.106,0,161,161,104,1,fivesix,,,,,,,,,,,,,,,,,,,,,,,,,,,,,,,,,,,,,,,,,,,,,,,,,,,,,,,,,,,,,,,,,,,,,,,,,,,,,,,,,,,,,,,,,,,,,,,,,,,,,,,,,,,,,,,,,,,,,,,,,,,,,,,,,,,,,,,,,
,,655fdf554b84fb6cbc5d4b93,2024-02-22_14h27.58.498,kallum_motion_pilot,2023.2.2,Win32,59.88023952,655fdf554b84fb6cbc5d4b93,65d6bb0e977760de756971f7,65d6bf1c0a464a429d9a917a,0.1064,0.1065,1,0,162,31,1,fourthree,,,,,,,,,,,,,,,,,,,,,,,,,,,,,,,,,,,,,,,,,,,,,,,,,,,,,,,,,,,,,,,,,,,,,,,,,,,,,,,,,,,,,,,,,,,,,,,,,,,,,,,,,,,,,,,,,,,,,,,,,,,,,,,,,,,,,,,,,
,,655fdf554b84fb6cbc5d4b93,2024-02-22_14h27.58.498,kallum_motion_pilot,2023.2.2,Win32,59.88023952,655fdf554b84fb6cbc5d4b93,65d6bb0e977760de756971f7,65d6bf1c0a464a429d9a917a,0.1068,0.1071,1,1,163,130,1,sixfive,,,,,,,,,,,,,,,,,,,,,,,,,,,,,,,,,,,,,,,,,,,,,,,,,,,,,,,,,,,,,,,,,,,,,,,,,,,,,,,,,,,,,,,,,,,,,,,,,,,,,,,,,,,,,,,,,,,,,,,,,,,,,,,,,,,,,,,,,
,,655fdf554b84fb6cbc5d4b93,2024-02-22_14h27.58.498,kallum_motion_pilot,2023.2.2,Win32,59.88023952,655fdf554b84fb6cbc5d4b93,65d6bb0e977760de756971f7,65d6bf1c0a464a429d9a917a,0.1073,0.1075,1,2,164,118,1,eightsix,,,,,,,,,,,,,,,,,,,,,,,,,,,,,,,,,,,,,,,,,,,,,,,,,,,,,,,,,,,,,,,,,,,,,,,,,,,,,,,,,,,,,,,,,,,,,,,,,,,,,,,,,,,,,,,,,,,,,,,,,,,,,,,,,,,,,,,,,
,,655fdf554b84fb6cbc5d4b93,2024-02-22_14h27.58.498,kallum_motion_pilot,2023.2.2,Win32,59.88023952,655fdf554b84fb6cbc5d4b93,65d6bb0e977760de756971f7,65d6bf1c0a464a429d9a917a,0.1078,0.108,1,3,165,6,1,fourtwo,,,,,,,,,,,,,,,,,,,,,,,,,,,,,,,,,,,,,,,,,,,,,,,,,,,,,,,,,,,,,,,,,,,,,,,,,,,,,,,,,,,,,,,,,,,,,,,,,,,,,,,,,,,,,,,,,,,,,,,,,,,,,,,,,,,,,,,,,
,,655fdf554b84fb6cbc5d4b93,2024-02-22_14h27.58.498,kallum_motion_pilot,2023.2.2,Win32,59.88023952,655fdf554b84fb6cbc5d4b93,65d6bb0e977760de756971f7,65d6bf1c0a464a429d9a917a,0.1083,0.1085,1,4,166,5,1,threefour,,,,,,,,,,,,,,,,,,,,,,,,,,,,,,,,,,,,,,,,,,,,,,,,,,,,,,,,,,,,,,,,,,,,,,,,,,,,,,,,,,,,,,,,,,,,,,,,,,,,,,,,,,,,,,,,,,,,,,,,,,,,,,,,,,,,,,,,,
,,655fdf554b84fb6cbc5d4b93,2024-02-22_14h27.58.498,kallum_motion_pilot,2023.2.2,Win32,59.88023952,655fdf554b84fb6cbc5d4b93,65d6bb0e977760de756971f7,65d6bf1c0a464a429d9a917a,0.1088,0.109,1,5,167,93,1,seveneight,,,,,,,,,,,,,,,,,,,,,,,,,,,,,,,,,,,,,,,,,,,,,,,,,,,,,,,,,,,,,,,,,,,,,,,,,,,,,,,,,,,,,,,,,,,,,,,,,,,,,,,,,,,,,,,,,,,,,,,,,,,,,,,,,,,,,,,,,
,,655fdf554b84fb6cbc5d4b93,2024-02-22_14h27.58.498,kallum_motion_pilot,2023.2.2,Win32,59.88023952,655fdf554b84fb6cbc5d4b93,65d6bb0e977760de756971f7,65d6bf1c0a464a429d9a917a,0.1093,0.1094,1,6,168,86,1,eightsix,,,,,,,,,,,,,,,,,,,,,,,,,,,,,,,,,,,,,,,,,,,,,,,,,,,,,,,,,,,,,,,,,,,,,,,,,,,,,,,,,,,,,,,,,,,,,,,,,,,,,,,,,,,,,,,,,,,,,,,,,,,,,,,,,,,,,,,,,
,,655fdf554b84fb6cbc5d4b93,2024-02-22_14h27.58.498,kallum_motion_pilot,2023.2.2,Win32,59.88023952,655fdf554b84fb6cbc5d4b93,65d6bb0e977760de756971f7,65d6bf1c0a464a429d9a917a,0.1098,0.11,1,7,169,59,1,twofour,,,,,,,,,,,,,,,,,,,,,,,,,,,,,,,,,,,,,,,,,,,,,,,,,,,,,,,,,,,,,,,,,,,,,,,,,,,,,,,,,,,,,,,,,,,,,,,,,,,,,,,,,,,,,,,,,,,,,,,,,,,,,,,,,,,,,,,,,
,,655fdf554b84fb6cbc5d4b93,2024-02-22_14h27.58.498,kallum_motion_pilot,2023.2.2,Win32,59.88023952,655fdf554b84fb6cbc5d4b93,65d6bb0e977760de756971f7,65d6bf1c0a464a429d9a917a,0.1102,0.1104,1,8,170,57,1,onethree,,,,,,,,,,,,,,,,,,,,,,,,,,,,,,,,,,,,,,,,,,,,,,,,,,,,,,,,,,,,,,,,,,,,,,,,,,,,,,,,,,,,,,,,,,,,,,,,,,,,,,,,,,,,,,,,,,,,,,,,,,,,,,,,,,,,,,,,,
,,655fdf554b84fb6cbc5d4b93,2024-02-22_14h27.58.498,kallum_motion_pilot,2023.2.2,Win32,59.88023952,655fdf554b84fb6cbc5d4b93,65d6bb0e977760de756971f7,65d6bf1c0a464a429d9a917a,0.1106,0.1109,1,9,171,148,1,sevenfive,,,,,,,,,,,,,,,,,,,,,,,,,,,,,,,,,,,,,,,,,,,,,,,,,,,,,,,,,,,,,,,,,,,,,,,,,,,,,,,,,,,,,,,,,,,,,,,,,,,,,,,,,,,,,,,,,,,,,,,,,,,,,,,,,,,,,,,,,
,,655fdf554b84fb6cbc5d4b93,2024-02-22_14h27.58.498,kallum_motion_pilot,2023.2.2,Win32,59.88023952,655fdf554b84fb6cbc5d4b93,65d6bb0e977760de756971f7,65d6bf1c0a464a429d9a917a,0.1111,0.1113,1,10,172,122,1,sixfive,,,,,,,,,,,,,,,,,,,,,,,,,,,,,,,,,,,,,,,,,,,,,,,,,,,,,,,,,,,,,,,,,,,,,,,,,,,,,,,,,,,,,,,,,,,,,,,,,,,,,,,,,,,,,,,,,,,,,,,,,,,,,,,,,,,,,,,,,
,,655fdf554b84fb6cbc5d4b93,2024-02-22_14h27.58.498,kallum_motion_pilot,2023.2.2,Win32,59.88023952,655fdf554b84fb6cbc5d4b93,65d6bb0e977760de756971f7,65d6bf1c0a464a429d9a917a,0.1116,0.1118,1,11,173,119,1,eightseven,,,,,,,,,,,,,,,,,,,,,,,,,,,,,,,,,,,,,,,,,,,,,,,,,,,,,,,,,,,,,,,,,,,,,,,,,,,,,,,,,,,,,,,,,,,,,,,,,,,,,,,,,,,,,,,,,,,,,,,,,,,,,,,,,,,,,,,,,
,,655fdf554b84fb6cbc5d4b93,2024-02-22_14h27.58.498,kallum_motion_pilot,2023.2.2,Win32,59.88023952,655fdf554b84fb6cbc5d4b93,65d6bb0e977760de756971f7,65d6bf1c0a464a429d9a917a,0.1119,0.1122,1,12,174,161,1,fiveseven,,,,,,,,,,,,,,,,,,,,,,,,,,,,,,,,,,,,,,,,,,,,,,,,,,,,,,,,,,,,,,,,,,,,,,,,,,,,,,,,,,,,,,,,,,,,,,,,,,,,,,,,,,,,,,,,,,,,,,,,,,,,,,,,,,,,,,,,,
,,655fdf554b84fb6cbc5d4b93,2024-02-22_14h27.58.498,kallum_motion_pilot,2023.2.2,Win32,59.88023952,655fdf554b84fb6cbc5d4b93,65d6bb0e977760de756971f7,65d6bf1c0a464a429d9a917a,0.1125,0.1127,1,13,175,42,1,twoone,,,,,,,,,,,,,,,,,,,,,,,,,,,,,,,,,,,,,,,,,,,,,,,,,,,,,,,,,,,,,,,,,,,,,,,,,,,,,,,,,,,,,,,,,,,,,,,,,,,,,,,,,,,,,,,,,,,,,,,,,,,,,,,,,,,,,,,,,
,,655fdf554b84fb6cbc5d4b93,2024-02-22_14h27.58.498,kallum_motion_pilot,2023.2.2,Win32,59.88023952,655fdf554b84fb6cbc5d4b93,65d6bb0e977760de756971f7,65d6bf1c0a464a429d9a917a,0.1135,0.1138,1,14,176,27,1,twofour,,,,,,,,,,,,,,,,,,,,,,,,,,,,,,,,,,,,,,,,,,,,,,,,,,,,,,,,,,,,,,,,,,,,,,,,,,,,,,,,,,,,,,,,,,,,,,,,,,,,,,,,,,,,,,,,,,,,,,,,,,,,,,,,,,,,,,,,,
,,655fdf554b84fb6cbc5d4b93,2024-02-22_14h27.58.498,kallum_motion_pilot,2023.2.2,Win32,59.88023952,655fdf554b84fb6cbc5d4b93,65d6bb0e977760de756971f7,65d6bf1c0a464a429d9a917a,0.1141,0.1143,1,15,177,28,1,threeone,,,,,,,,,,,,,,,,,,,,,,,,,,,,,,,,,,,,,,,,,,,,,,,,,,,,,,,,,,,,,,,,,,,,,,,,,,,,,,,,,,,,,,,,,,,,,,,,,,,,,,,,,,,,,,,,,,,,,,,,,,,,,,,,,,,,,,,,,
,,655fdf554b84fb6cbc5d4b93,2024-02-22_14h27.58.498,kallum_motion_pilot,2023.2.2,Win32,59.88023952,655fdf554b84fb6cbc5d4b93,65d6bb0e977760de756971f7,65d6bf1c0a464a429d9a917a,0.1146,0.1149,1,16,178,54,1,fourtwo,,,,,,,,,,,,,,,,,,,,,,,,,,,,,,,,,,,,,,,,,,,,,,,,,,,,,,,,,,,,,,,,,,,,,,,,,,,,,,,,,,,,,,,,,,,,,,,,,,,,,,,,,,,,,,,,,,,,,,,,,,,,,,,,,,,,,,,,,
,,655fdf554b84fb6cbc5d4b93,2024-02-22_14h27.58.498,kallum_motion_pilot,2023.2.2,Win32,59.88023952,655fdf554b84fb6cbc5d4b93,65d6bb0e977760de756971f7,65d6bf1c0a464a429d9a917a,0.1151,0.1154,1,17,179,121,1,fiveseven,,,,,,,,,,,,,,,,,,,,,,,,,,,,,,,,,,,,,,,,,,,,,,,,,,,,,,,,,,,,,,,,,,,,,,,,,,,,,,,,,,,,,,,,,,,,,,,,,,,,,,,,,,,,,,,,,,,,,,,,,,,,,,,,,,,,,,,,,
,,655fdf554b84fb6cbc5d4b93,2024-02-22_14h27.58.498,kallum_motion_pilot,2023.2.2,Win32,59.88023952,655fdf554b84fb6cbc5d4b93,65d6bb0e977760de756971f7,65d6bf1c0a464a429d9a917a,0.1156,0.1159,1,18,180,131,1,sixeight,,,,,,,,,,,,,,,,,,,,,,,,,,,,,,,,,,,,,,,,,,,,,,,,,,,,,,,,,,,,,,,,,,,,,,,,,,,,,,,,,,,,,,,,,,,,,,,,,,,,,,,,,,,,,,,,,,,,,,,,,,,,,,,,,,,,,,,,,
,,655fdf554b84fb6cbc5d4b93,2024-02-22_14h27.58.498,kallum_motion_pilot,2023.2.2,Win32,59.88023952,655fdf554b84fb6cbc5d4b93,65d6bb0e977760de756971f7,65d6bf1c0a464a429d9a917a,0.1163,0.1165,1,19,181,89,1,fiveseven,,,,,,,,,,,,,,,,,,,,,,,,,,,,,,,,,,,,,,,,,,,,,,,,,,,,,,,,,,,,,,,,,,,,,,,,,,,,,,,,,,,,,,,,,,,,,,,,,,,,,,,,,,,,,,,,,,,,,,,,,,,,,,,,,,,,,,,,,
,,655fdf554b84fb6cbc5d4b93,2024-02-22_14h27.58.498,kallum_motion_pilot,2023.2.2,Win32,59.88023952,655fdf554b84fb6cbc5d4b93,65d6bb0e977760de756971f7,65d6bf1c0a464a429d9a917a,0.1168,0.117,1,20,182,20,1,threeone,,,,,,,,,,,,,,,,,,,,,,,,,,,,,,,,,,,,,,,,,,,,,,,,,,,,,,,,,,,,,,,,,,,,,,,,,,,,,,,,,,,,,,,,,,,,,,,,,,,,,,,,,,,,,,,,,,,,,,,,,,,,,,,,,,,,,,,,,
,,655fdf554b84fb6cbc5d4b93,2024-02-22_14h27.58.498,kallum_motion_pilot,2023.2.2,Win32,59.88023952,655fdf554b84fb6cbc5d4b93,65d6bb0e977760de756971f7,65d6bf1c0a464a429d9a917a,0.1173,0.1175,1,21,183,99,1,sixeight,,,,,,,,,,,,,,,,,,,,,,,,,,,,,,,,,,,,,,,,,,,,,,,,,,,,,,,,,,,,,,,,,,,,,,,,,,,,,,,,,,,,,,,,,,,,,,,,,,,,,,,,,,,,,,,,,,,,,,,,,,,,,,,,,,,,,,,,,
,,655fdf554b84fb6cbc5d4b93,2024-02-22_14h27.58.498,kallum_motion_pilot,2023.2.2,Win32,59.88023952,655fdf554b84fb6cbc5d4b93,65d6bb0e977760de756971f7,65d6bf1c0a464a429d9a917a,0.1178,0.1181,1,22,184,98,1,sixfive,,,,,,,,,,,,,,,,,,,,,,,,,,,,,,,,,,,,,,,,,,,,,,,,,,,,,,,,,,,,,,,,,,,,,,,,,,,,,,,,,,,,,,,,,,,,,,,,,,,,,,,,,,,,,,,,,,,,,,,,,,,,,,,,,,,,,,,,,
,,655fdf554b84fb6cbc5d4b93,2024-02-22_14h27.58.498,kallum_motion_pilot,2023.2.2,Win32,59.88023952,655fdf554b84fb6cbc5d4b93,65d6bb0e977760de756971f7,65d6bf1c0a464a429d9a917a,0.1185,0.1189,1,23,185,156,1,sevenfive,,,,,,,,,,,,,,,,,,,,,,,,,,,,,,,,,,,,,,,,,,,,,,,,,,,,,,,,,,,,,,,,,,,,,,,,,,,,,,,,,,,,,,,,,,,,,,,,,,,,,,,,,,,,,,,,,,,,,,,,,,,,,,,,,,,,,,,,,
,,655fdf554b84fb6cbc5d4b93,2024-02-22_14h27.58.498,kallum_motion_pilot,2023.2.2,Win32,59.88023952,655fdf554b84fb6cbc5d4b93,65d6bb0e977760de756971f7,65d6bf1c0a464a429d9a917a,0.1193,0.1195,1,24,186,52,1,threeone,,,,,,,,,,,,,,,,,,,,,,,,,,,,,,,,,,,,,,,,,,,,,,,,,,,,,,,,,,,,,,,,,,,,,,,,,,,,,,,,,,,,,,,,,,,,,,,,,,,,,,,,,,,,,,,,,,,,,,,,,,,,,,,,,,,,,,,,,
,,655fdf554b84fb6cbc5d4b93,2024-02-22_14h27.58.498,kallum_motion_pilot,2023.2.2,Win32,59.88023952,655fdf554b84fb6cbc5d4b93,65d6bb0e977760de756971f7,65d6bf1c0a464a429d9a917a,0.1197,0.1199,1,25,187,7,1,fourthree,,,,,,,,,,,,,,,,,,,,,,,,,,,,,,,,,,,,,,,,,,,,,,,,,,,,,,,,,,,,,,,,,,,,,,,,,,,,,,,,,,,,,,,,,,,,,,,,,,,,,,,,,,,,,,,,,,,,,,,,,,,,,,,,,,,,,,,,,
,,655fdf554b84fb6cbc5d4b93,2024-02-22_14h27.58.498,kallum_motion_pilot,2023.2.2,Win32,59.88023952,655fdf554b84fb6cbc5d4b93,65d6bb0e977760de756971f7,65d6bf1c0a464a429d9a917a,0.1202,0.1204,1,26,188,81,1,fiveseven,,,,,,,,,,,,,,,,,,,,,,,,,,,,,,,,,,,,,,,,,,,,,,,,,,,,,,,,,,,,,,,,,,,,,,,,,,,,,,,,,,,,,,,,,,,,,,,,,,,,,,,,,,,,,,,,,,,,,,,,,,,,,,,,,,,,,,,,,
,,655fdf554b84fb6cbc5d4b93,2024-02-22_14h27.58.498,kallum_motion_pilot,2023.2.2,Win32,59.88023952,655fdf554b84fb6cbc5d4b93,65d6bb0e977760de756971f7,65d6bf1c0a464a429d9a917a,0.1207,0.1208,1,27,189,152,1,fivesix,,,,,,,,,,,,,,,,,,,,,,,,,,,,,,,,,,,,,,,,,,,,,,,,,,,,,,,,,,,,,,,,,,,,,,,,,,,,,,,,,,,,,,,,,,,,,,,,,,,,,,,,,,,,,,,,,,,,,,,,,,,,,,,,,,,,,,,,,
,,655fdf554b84fb6cbc5d4b93,2024-02-22_14h27.58.498,kallum_motion_pilot,2023.2.2,Win32,59.88023952,655fdf554b84fb6cbc5d4b93,65d6bb0e977760de756971f7,65d6bf1c0a464a429d9a917a,0.1211,0.1214,1,28,190,78,1,fourtwo,,,,,,,,,,,,,,,,,,,,,,,,,,,,,,,,,,,,,,,,,,,,,,,,,,,,,,,,,,,,,,,,,,,,,,,,,,,,,,,,,,,,,,,,,,,,,,,,,,,,,,,,,,,,,,,,,,,,,,,,,,,,,,,,,,,,,,,,,
,,655fdf554b84fb6cbc5d4b93,2024-02-22_14h27.58.498,kallum_motion_pilot,2023.2.2,Win32,59.88023952,655fdf554b84fb6cbc5d4b93,65d6bb0e977760de756971f7,65d6bf1c0a464a429d9a917a,0.1216,0.1218,1,29,191,49,1,onethree,,,,,,,,,,,,,,,,,,,,,,,,,,,,,,,,,,,,,,,,,,,,,,,,,,,,,,,,,,,,,,,,,,,,,,,,,,,,,,,,,,,,,,,,,,,,,,,,,,,,,,,,,,,,,,,,,,,,,,,,,,,,,,,,,,,,,,,,,
,,655fdf554b84fb6cbc5d4b93,2024-02-22_14h27.58.498,kallum_motion_pilot,2023.2.2,Win32,59.88023952,655fdf554b84fb6cbc5d4b93,65d6bb0e977760de756971f7,65d6bf1c0a464a429d9a917a,0.1221,0.1223,1,30,192,61,1,threefour,,,,,,,,,,,,,,,,,,,,,,,,,,,,,,,,,,,,,,,,,,,,,,,,,,,,,,,,,,,,,,,,,,,,,,,,,,,,,,,,,,,,,,,,,,,,,,,,,,,,,,,,,,,,,,,,,,,,,,,,,,,,,,,,,,,,,,,,,
,,655fdf554b84fb6cbc5d4b93,2024-02-22_14h27.58.498,kallum_motion_pilot,2023.2.2,Win32,59.88023952,655fdf554b84fb6cbc5d4b93,65d6bb0e977760de756971f7,65d6bf1c0a464a429d9a917a,0.1225,0.1228,1,31,193,116,1,sevenfive,,,,,,,,,,,,,,,,,,,,,,,,,,,,,,,,,,,,,,,,,,,,,,,,,,,,,,,,,,,,,,,,,,,,,,,,,,,,,,,,,,,,,,,,,,,,,,,,,,,,,,,,,,,,,,,,,,,,,,,,,,,,,,,,,,,,,,,,,
,,655fdf554b84fb6cbc5d4b93,2024-02-22_14h27.58.498,kallum_motion_pilot,2023.2.2,Win32,59.88023952,655fdf554b84fb6cbc5d4b93,65d6bb0e977760de756971f7,65d6bf1c0a464a429d9a917a,0.1233,0.1235,1,32,194,82,1,sixfive,,,,,,,,,,,,,,,,,,,,,,,,,,,,,,,,,,,,,,,,,,,,,,,,,,,,,,,,,,,,,,,,,,,,,,,,,,,,,,,,,,,,,,,,,,,,,,,,,,,,,,,,,,,,,,,,,,,,,,,,,,,,,,,,,,,,,,,,,
,,655fdf554b84fb6cbc5d4b93,2024-02-22_14h27.58.498,kallum_motion_pilot,2023.2.2,Win32,59.88023952,655fdf554b84fb6cbc5d4b93,65d6bb0e977760de756971f7,65d6bf1c0a464a429d9a917a,0.1238,0.124,1,33,195,129,1,fiveseven,,,,,,,,,,,,,,,,,,,,,,,,,,,,,,,,,,,,,,,,,,,,,,,,,,,,,,,,,,,,,,,,,,,,,,,,,,,,,,,,,,,,,,,,,,,,,,,,,,,,,,,,,,,,,,,,,,,,,,,,,,,,,,,,,,,,,,,,,
,,655fdf554b84fb6cbc5d4b93,2024-02-22_14h27.58.498,kallum_motion_pilot,2023.2.2,Win32,59.88023952,655fdf554b84fb6cbc5d4b93,65d6bb0e977760de756971f7,65d6bf1c0a464a429d9a917a,0.1243,0.1245,1,34,196,111,1,eightseven,,,,,,,,,,,,,,,,,,,,,,,,,,,,,,,,,,,,,,,,,,,,,,,,,,,,,,,,,,,,,,,,,,,,,,,,,,,,,,,,,,,,,,,,,,,,,,,,,,,,,,,,,,,,,,,,,,,,,,,,,,,,,,,,,,,,,,,,,
,,655fdf554b84fb6cbc5d4b93,2024-02-22_14h27.58.498,kallum_motion_pilot,2023.2.2,Win32,59.88023952,655fdf554b84fb6cbc5d4b93,65d6bb0e977760de756971f7,65d6bf1c0a464a429d9a917a,0.1249,0.1251,1,35,197,8,1,onetwo,,,,,,,,,,,,,,,,,,,,,,,,,,,,,,,,,,,,,,,,,,,,,,,,,,,,,,,,,,,,,,,,,,,,,,,,,,,,,,,,,,,,,,,,,,,,,,,,,,,,,,,,,,,,,,,,,,,,,,,,,,,,,,,,,,,,,,,,,
,,655fdf554b84fb6cbc5d4b93,2024-02-22_14h27.58.498,kallum_motion_pilot,2023.2.2,Win32,59.88023952,655fdf554b84fb6cbc5d4b93,65d6bb0e977760de756971f7,65d6bf1c0a464a429d9a917a,0.1254,0.1256,1,36,198,22,1,fourtwo,,,,,,,,,,,,,,,,,,,,,,,,,,,,,,,,,,,,,,,,,,,,,,,,,,,,,,,,,,,,,,,,,,,,,,,,,,,,,,,,,,,,,,,,,,,,,,,,,,,,,,,,,,,,,,,,,,,,,,,,,,,,,,,,,,,,,,,,,
,,655fdf554b84fb6cbc5d4b93,2024-02-22_14h27.58.498,kallum_motion_pilot,2023.2.2,Win32,59.88023952,655fdf554b84fb6cbc5d4b93,65d6bb0e977760de756971f7,65d6bf1c0a464a429d9a917a,0.126,0.1261,1,37,199,71,1,fourthree,,,,,,,,,,,,,,,,,,,,,,,,,,,,,,,,,,,,,,,,,,,,,,,,,,,,,,,,,,,,,,,,,,,,,,,,,,,,,,,,,,,,,,,,,,,,,,,,,,,,,,,,,,,,,,,,,,,,,,,,,,,,,,,,,,,,,,,,,
,,655fdf554b84fb6cbc5d4b93,2024-02-22_14h27.58.498,kallum_motion_pilot,2023.2.2,Win32,59.88023952,655fdf554b84fb6cbc5d4b93,65d6bb0e977760de756971f7,65d6bf1c0a464a429d9a917a,0.1265,0.1267,1,38,200,114,1,sixfive,,,,,,,,,,,,,,,,,,,,,,,,,,,,,,,,,,,,,,,,,,,,,,,,,,,,,,,,,,,,,,,,,,,,,,,,,,,,,,,,,,,,,,,,,,,,,,,,,,,,,,,,,,,,,,,,,,,,,,,,,,,,,,,,,,,,,,,,,
,,655fdf554b84fb6cbc5d4b93,2024-02-22_14h27.58.498,kallum_motion_pilot,2023.2.2,Win32,59.88023952,655fdf554b84fb6cbc5d4b93,65d6bb0e977760de756971f7,65d6bf1c0a464a429d9a917a,0.127,0.1271,1,39,201,26,1,twoone,,,,,,,,,,,,,,,,,,,,,,,,,,,,,,,,,,,,,,,,,,,,,,,,,,,,,,,,,,,,,,,,,,,,,,,,,,,,,,,,,,,,,,,,,,,,,,,,,,,,,,,,,,,,,,,,,,,,,,,,,,,,,,,,,,,,,,,,,
,,655fdf554b84fb6cbc5d4b93,2024-02-22_14h27.58.498,kallum_motion_pilot,2023.2.2,Win32,59.88023952,655fdf554b84fb6cbc5d4b93,65d6bb0e977760de756971f7,65d6bf1c0a464a429d9a917a,0.1275,0.1276,1,40,202,66,1,twoone,,,,,,,,,,,,,,,,,,,,,,,,,,,,,,,,,,,,,,,,,,,,,,,,,,,,,,,,,,,,,,,,,,,,,,,,,,,,,,,,,,,,,,,,,,,,,,,,,,,,,,,,,,,,,,,,,,,,,,,,,,,,,,,,,,,,,,,,,
,,655fdf554b84fb6cbc5d4b93,2024-02-22_14h27.58.498,kallum_motion_pilot,2023.2.2,Win32,59.88023952,655fdf554b84fb6cbc5d4b93,65d6bb0e977760de756971f7,65d6bf1c0a464a429d9a917a,0.128,0.1282,1,41,203,34,1,twoone,,,,,,,,,,,,,,,,,,,,,,,,,,,,,,,,,,,,,,,,,,,,,,,,,,,,,,,,,,,,,,,,,,,,,,,,,,,,,,,,,,,,,,,,,,,,,,,,,,,,,,,,,,,,,,,,,,,,,,,,,,,,,,,,,,,,,,,,,
,,655fdf554b84fb6cbc5d4b93,2024-02-22_14h27.58.498,kallum_motion_pilot,2023.2.2,Win32,59.88023952,655fdf554b84fb6cbc5d4b93,65d6bb0e977760de756971f7,65d6bf1c0a464a429d9a917a,0.1284,0.1286,1,42,204,160,1,fivesix,,,,,,,,,,,,,,,,,,,,,,,,,,,,,,,,,,,,,,,,,,,,,,,,,,,,,,,,,,,,,,,,,,,,,,,,,,,,,,,,,,,,,,,,,,,,,,,,,,,,,,,,,,,,,,,,,,,,,,,,,,,,,,,,,,,,,,,,,
,,655fdf554b84fb6cbc5d4b93,2024-02-22_14h27.58.498,kallum_motion_pilot,2023.2.2,Win32,59.88023952,655fdf554b84fb6cbc5d4b93,65d6bb0e977760de756971f7,65d6bf1c0a464a429d9a917a,0.1289,0.1291,1,43,205,29,1,threefour,,,,,,,,,,,,,,,,,,,,,,,,,,,,,,,,,,,,,,,,,,,,,,,,,,,,,,,,,,,,,,,,,,,,,,,,,,,,,,,,,,,,,,,,,,,,,,,,,,,,,,,,,,,,,,,,,,,,,,,,,,,,,,,,,,,,,,,,,
,,655fdf554b84fb6cbc5d4b93,2024-02-22_14h27.58.498,kallum_motion_pilot,2023.2.2,Win32,59.88023952,655fdf554b84fb6cbc5d4b93,65d6bb0e977760de756971f7,65d6bf1c0a464a429d9a917a,0.1294,0.1299,1,44,206,68,1,threeone,,,,,,,,,,,,,,,,,,,,,,,,,,,,,,,,,,,,,,,,,,,,,,,,,,,,,,,,,,,,,,,,,,,,,,,,,,,,,,,,,,,,,,,,,,,,,,,,,,,,,,,,,,,,,,,,,,,,,,,,,,,,,,,,,,,,,,,,,
,,655fdf554b84fb6cbc5d4b93,2024-02-22_14h27.58.498,kallum_motion_pilot,2023.2.2,Win32,59.88023952,655fdf554b84fb6cbc5d4b93,65d6bb0e977760de756971f7,65d6bf1c0a464a429d9a917a,0.1304,0.1306,1,45,207,101,1,seveneight,,,,,,,,,,,,,,,,,,,,,,,,,,,,,,,,,,,,,,,,,,,,,,,,,,,,,,,,,,,,,,,,,,,,,,,,,,,,,,,,,,,,,,,,,,,,,,,,,,,,,,,,,,,,,,,,,,,,,,,,,,,,,,,,,,,,,,,,,
,,655fdf554b84fb6cbc5d4b93,2024-02-22_14h27.58.498,kallum_motion_pilot,2023.2.2,Win32,59.88023952,655fdf554b84fb6cbc5d4b93,65d6bb0e977760de756971f7,65d6bf1c0a464a429d9a917a,0.1309,0.1315,1,46,208,144,1,fivesix,,,,,,,,,,,,,,,,,,,,,,,,,,,,,,,,,,,,,,,,,,,,,,,,,,,,,,,,,,,,,,,,,,,,,,,,,,,,,,,,,,,,,,,,,,,,,,,,,,,,,,,,,,,,,,,,,,,,,,,,,,,,,,,,,,,,,,,,,
,,655fdf554b84fb6cbc5d4b93,2024-02-22_14h27.58.498,kallum_motion_pilot,2023.2.2,Win32,59.88023952,655fdf554b84fb6cbc5d4b93,65d6bb0e977760de756971f7,65d6bf1c0a464a429d9a917a,0.1318,0.1324,1,47,209,1,1,onethree,,,,,,,,,,,,,,,,,,,,,,,,,,,,,,,,,,,,,,,,,,,,,,,,,,,,,,,,,,,,,,,,,,,,,,,,,,,,,,,,,,,,,,,,,,,,,,,,,,,,,,,,,,,,,,,,,,,,,,,,,,,,,,,,,,,,,,,,,
,,655fdf554b84fb6cbc5d4b93,2024-02-22_14h27.58.498,kallum_motion_pilot,2023.2.2,Win32,59.88023952,655fdf554b84fb6cbc5d4b93,65d6bb0e977760de756971f7,65d6bf1c0a464a429d9a917a,0.1328,0.1331,1,48,210,79,1,eightseven,,,,,,,,,,,,,,,,,,,,,,,,,,,,,,,,,,,,,,,,,,,,,,,,,,,,,,,,,,,,,,,,,,,,,,,,,,,,,,,,,,,,,,,,,,,,,,,,,,,,,,,,,,,,,,,,,,,,,,,,,,,,,,,,,,,,,,,,,
,,655fdf554b84fb6cbc5d4b93,2024-02-22_14h27.58.498,kallum_motion_pilot,2023.2.2,Win32,59.88023952,655fdf554b84fb6cbc5d4b93,65d6bb0e977760de756971f7,65d6bf1c0a464a429d9a917a,0.1334,0.1336,1,49,211,155,1,sixeight,,,,,,,,,,,,,,,,,,,,,,,,,,,,,,,,,,,,,,,,,,,,,,,,,,,,,,,,,,,,,,,,,,,,,,,,,,,,,,,,,,,,,,,,,,,,,,,,,,,,,,,,,,,,,,,,,,,,,,,,,,,,,,,,,,,,,,,,,
,,655fdf554b84fb6cbc5d4b93,2024-02-22_14h27.58.498,kallum_motion_pilot,2023.2.2,Win32,59.88023952,655fdf554b84fb6cbc5d4b93,65d6bb0e977760de756971f7,65d6bf1c0a464a429d9a917a,0.1339,0.1341,1,50,212,113,1,fiveseven,,,,,,,,,,,,,,,,,,,,,,,,,,,,,,,,,,,,,,,,,,,,,,,,,,,,,,,,,,,,,,,,,,,,,,,,,,,,,,,,,,,,,,,,,,,,,,,,,,,,,,,,,,,,,,,,,,,,,,,,,,,,,,,,,,,,,,,,,
,,655fdf554b84fb6cbc5d4b93,2024-02-22_14h27.58.498,kallum_motion_pilot,2023.2.2,Win32,59.88023952,655fdf554b84fb6cbc5d4b93,65d6bb0e977760de756971f7,65d6bf1c0a464a429d9a917a,0.1362,0.1365,1,51,213,56,1,onetwo,,,,,,,,,,,,,,,,,,,,,,,,,,,,,,,,,,,,,,,,,,,,,,,,,,,,,,,,,,,,,,,,,,,,,,,,,,,,,,,,,,,,,,,,,,,,,,,,,,,,,,,,,,,,,,,,,,,,,,,,,,,,,,,,,,,,,,,,,
,,655fdf554b84fb6cbc5d4b93,2024-02-22_14h27.58.498,kallum_motion_pilot,2023.2.2,Win32,59.88023952,655fdf554b84fb6cbc5d4b93,65d6bb0e977760de756971f7,65d6bf1c0a464a429d9a917a,0.1368,0.137,1,52,214,72,1,onetwo,,,,,,,,,,,,,,,,,,,,,,,,,,,,,,,,,,,,,,,,,,,,,,,,,,,,,,,,,,,,,,,,,,,,,,,,,,,,,,,,,,,,,,,,,,,,,,,,,,,,,,,,,,,,,,,,,,,,,,,,,,,,,,,,,,,,,,,,,
,,655fdf554b84fb6cbc5d4b93,2024-02-22_14h27.58.498,kallum_motion_pilot,2023.2.2,Win32,59.88023952,655fdf554b84fb6cbc5d4b93,65d6bb0e977760de756971f7,65d6bf1c0a464a429d9a917a,0.1373,0.1376,1,53,215,44,1,threeone,,,,,,,,,,,,,,,,,,,,,,,,,,,,,,,,,,,,,,,,,,,,,,,,,,,,,,,,,,,,,,,,,,,,,,,,,,,,,,,,,,,,,,,,,,,,,,,,,,,,,,,,,,,,,,,,,,,,,,,,,,,,,,,,,,,,,,,,,
,,655fdf554b84fb6cbc5d4b93,2024-02-22_14h27.58.498,kallum_motion_pilot,2023.2.2,Win32,59.88023952,655fdf554b84fb6cbc5d4b93,65d6bb0e977760de756971f7,65d6bf1c0a464a429d9a917a,0.1378,0.138,1,54,216,55,1,fourthree,,,,,,,,,,,,,,,,,,,,,,,,,,,,,,,,,,,,,,,,,,,,,,,,,,,,,,,,,,,,,,,,,,,,,,,,,,,,,,,,,,,,,,,,,,,,,,,,,,,,,,,,,,,,,,,,,,,,,,,,,,,,,,,,,,,,,,,,,
,,655fdf554b84fb6cbc5d4b93,2024-02-22_14h27.58.498,kallum_motion_pilot,2023.2.2,Win32,59.88023952,655fdf554b84fb6cbc5d4b93,65d6bb0e977760de756971f7,65d6bf1c0a464a429d9a917a,0.1383,0.1386,1,55,217,146,1,sixfive,,,,,,,,,,,,,,,,,,,,,,,,,,,,,,,,,,,,,,,,,,,,,,,,,,,,,,,,,,,,,,,,,,,,,,,,,,,,,,,,,,,,,,,,,,,,,,,,,,,,,,,,,,,,,,,,,,,,,,,,,,,,,,,,,,,,,,,,,
,,655fdf554b84fb6cbc5d4b93,2024-02-22_14h27.58.498,kallum_motion_pilot,2023.2.2,Win32,59.88023952,655fdf554b84fb6cbc5d4b93,65d6bb0e977760de756971f7,65d6bf1c0a464a429d9a917a,0.1388,0.1392,1,56,218,41,1,onethree,,,,,,,,,,,,,,,,,,,,,,,,,,,,,,,,,,,,,,,,,,,,,,,,,,,,,,,,,,,,,,,,,,,,,,,,,,,,,,,,,,,,,,,,,,,,,,,,,,,,,,,,,,,,,,,,,,,,,,,,,,,,,,,,,,,,,,,,,
,,655fdf554b84fb6cbc5d4b93,2024-02-22_14h27.58.498,kallum_motion_pilot,2023.2.2,Win32,59.88023952,655fdf554b84fb6cbc5d4b93,65d6bb0e977760de756971f7,65d6bf1c0a464a429d9a917a,0.1397,0.1401,1,57,219,3,1,twofour,,,,,,,,,,,,,,,,,,,,,,,,,,,,,,,,,,,,,,,,,,,,,,,,,,,,,,,,,,,,,,,,,,,,,,,,,,,,,,,,,,,,,,,,,,,,,,,,,,,,,,,,,,,,,,,,,,,,,,,,,,,,,,,,,,,,,,,,,
,,655fdf554b84fb6cbc5d4b93,2024-02-22_14h27.58.498,kallum_motion_pilot,2023.2.2,Win32,59.88023952,655fdf554b84fb6cbc5d4b93,65d6bb0e977760de756971f7,65d6bf1c0a464a429d9a917a,0.1404,0.1407,1,58,220,128,1,fivesix,,,,,,,,,,,,,,,,,,,,,,,,,,,,,,,,,,,,,,,,,,,,,,,,,,,,,,,,,,,,,,,,,,,,,,,,,,,,,,,,,,,,,,,,,,,,,,,,,,,,,,,,,,,,,,,,,,,,,,,,,,,,,,,,,,,,,,,,,
,,655fdf554b84fb6cbc5d4b93,2024-02-22_14h27.58.498,kallum_motion_pilot,2023.2.2,Win32,59.88023952,655fdf554b84fb6cbc5d4b93,65d6bb0e977760de756971f7,65d6bf1c0a464a429d9a917a,0.1411,0.1416,1,59,221,127,1,eightseven,,,,,,,,,,,,,,,,,,,,,,,,,,,,,,,,,,,,,,,,,,,,,,,,,,,,,,,,,,,,,,,,,,,,,,,,,,,,,,,,,,,,,,,,,,,,,,,,,,,,,,,,,,,,,,,,,,,,,,,,,,,,,,,,,,,,,,,,,
,,655fdf554b84fb6cbc5d4b93,2024-02-22_14h27.58.498,kallum_motion_pilot,2023.2.2,Win32,59.88023952,655fdf554b84fb6cbc5d4b93,65d6bb0e977760de756971f7,65d6bf1c0a464a429d9a917a,0.142,0.1423,1,60,222,24,1,onetwo,,,,,,,,,,,,,,,,,,,,,,,,,,,,,,,,,,,,,,,,,,,,,,,,,,,,,,,,,,,,,,,,,,,,,,,,,,,,,,,,,,,,,,,,,,,,,,,,,,,,,,,,,,,,,,,,,,,,,,,,,,,,,,,,,,,,,,,,,
,,655fdf554b84fb6cbc5d4b93,2024-02-22_14h27.58.498,kallum_motion_pilot,2023.2.2,Win32,59.88023952,655fdf554b84fb6cbc5d4b93,65d6bb0e977760de756971f7,65d6bf1c0a464a429d9a917a,0.1428,0.143,1,61,223,2,1,twoone,,,,,,,,,,,,,,,,,,,,,,,,,,,,,,,,,,,,,,,,,,,,,,,,,,,,,,,,,,,,,,,,,,,,,,,,,,,,,,,,,,,,,,,,,,,,,,,,,,,,,,,,,,,,,,,,,,,,,,,,,,,,,,,,,,,,,,,,,
,,655fdf554b84fb6cbc5d4b93,2024-02-22_14h27.58.498,kallum_motion_pilot,2023.2.2,Win32,59.88023952,655fdf554b84fb6cbc5d4b93,65d6bb0e977760de756971f7,65d6bf1c0a464a429d9a917a,0.1434,0.1436,1,62,224,104,1,fivesix,,,,,,,,,,,,,,,,,,,,,,,,,,,,,,,,,,,,,,,,,,,,,,,,,,,,,,,,,,,,,,,,,,,,,,,,,,,,,,,,,,,,,,,,,,,,,,,,,,,,,,,,,,,,,,,,,,,,,,,,,,,,,,,,,,,,,,,,,
,,655fdf554b84fb6cbc5d4b93,2024-02-22_14h27.58.498,kallum_motion_pilot,2023.2.2,Win32,59.88023952,655fdf554b84fb6cbc5d4b93,65d6bb0e977760de756971f7,65d6bf1c0a464a429d9a917a,0.1439,0.1442,1,63,225,70,1,fourtwo,,,,,,,,,,,,,,,,,,,,,,,,,,,,,,,,,,,,,,,,,,,,,,,,,,,,,,,,,,,,,,,,,,,,,,,,,,,,,,,,,,,,,,,,,,,,,,,,,,,,,,,,,,,,,,,,,,,,,,,,,,,,,,,,,,,,,,,,,
,,655fdf554b84fb6cbc5d4b93,2024-02-22_14h27.58.498,kallum_motion_pilot,2023.2.2,Win32,59.88023952,655fdf554b84fb6cbc5d4b93,65d6bb0e977760de756971f7,65d6bf1c0a464a429d9a917a,0.1444,0.1447,1,64,226,106,1,sixfive,,,,,,,,,,,,,,,,,,,,,,,,,,,,,,,,,,,,,,,,,,,,,,,,,,,,,,,,,,,,,,,,,,,,,,,,,,,,,,,,,,,,,,,,,,,,,,,,,,,,,,,,,,,,,,,,,,,,,,,,,,,,,,,,,,,,,,,,,
,,655fdf554b84fb6cbc5d4b93,2024-02-22_14h27.58.498,kallum_motion_pilot,2023.2.2,Win32,59.88023952,655fdf554b84fb6cbc5d4b93,65d6bb0e977760de756971f7,65d6bf1c0a464a429d9a917a,0.145,0.1452,1,65,227,124,1,sevenfive,,,,,,,,,,,,,,,,,,,,,,,,,,,,,,,,,,,,,,,,,,,,,,,,,,,,,,,,,,,,,,,,,,,,,,,,,,,,,,,,,,,,,,,,,,,,,,,,,,,,,,,,,,,,,,,,,,,,,,,,,,,,,,,,,,,,,,,,,
,,655fdf554b84fb6cbc5d4b93,2024-02-22_14h27.58.498,kallum_motion_pilot,2023.2.2,Win32,59.88023952,655fdf554b84fb6cbc5d4b93,65d6bb0e977760de756971f7,65d6bf1c0a464a429d9a917a,0.1455,0.1457,1,66,228,18,1,twoone,,,,,,,,,,,,,,,,,,,,,,,,,,,,,,,,,,,,,,,,,,,,,,,,,,,,,,,,,,,,,,,,,,,,,,,,,,,,,,,,,,,,,,,,,,,,,,,,,,,,,,,,,,,,,,,,,,,,,,,,,,,,,,,,,,,,,,,,,
,,655fdf554b84fb6cbc5d4b93,2024-02-22_14h27.58.498,kallum_motion_pilot,2023.2.2,Win32,59.88023952,655fdf554b84fb6cbc5d4b93,65d6bb0e977760de756971f7,65d6bf1c0a464a429d9a917a,0.146,0.1466,1,67,229,35,1,twofour,,,,,,,,,,,,,,,,,,,,,,,,,,,,,,,,,,,,,,,,,,,,,,,,,,,,,,,,,,,,,,,,,,,,,,,,,,,,,,,,,,,,,,,,,,,,,,,,,,,,,,,,,,,,,,,,,,,,,,,,,,,,,,,,,,,,,,,,,
,,655fdf554b84fb6cbc5d4b93,2024-02-22_14h27.58.498,kallum_motion_pilot,2023.2.2,Win32,59.88023952,655fdf554b84fb6cbc5d4b93,65d6bb0e977760de756971f7,65d6bf1c0a464a429d9a917a,0.1471,0.1474,1,68,230,40,1,onetwo,,,,,,,,,,,,,,,,,,,,,,,,,,,,,,,,,,,,,,,,,,,,,,,,,,,,,,,,,,,,,,,,,,,,,,,,,,,,,,,,,,,,,,,,,,,,,,,,,,,,,,,,,,,,,,,,,,,,,,,,,,,,,,,,,,,,,,,,,
,,655fdf554b84fb6cbc5d4b93,2024-02-22_14h27.58.498,kallum_motion_pilot,2023.2.2,Win32,59.88023952,655fdf554b84fb6cbc5d4b93,65d6bb0e977760de756971f7,65d6bf1c0a464a429d9a917a,0.1477,0.148,1,69,231,21,1,threefour,,,,,,,,,,,,,,,,,,,,,,,,,,,,,,,,,,,,,,,,,,,,,,,,,,,,,,,,,,,,,,,,,,,,,,,,,,,,,,,,,,,,,,,,,,,,,,,,,,,,,,,,,,,,,,,,,,,,,,,,,,,,,,,,,,,,,,,,,
,,655fdf554b84fb6cbc5d4b93,2024-02-22_14h27.58.498,kallum_motion_pilot,2023.2.2,Win32,59.88023952,655fdf554b84fb6cbc5d4b93,65d6bb0e977760de756971f7,65d6bf1c0a464a429d9a917a,0.1483,0.1485,1,70,232,136,1,fivesix,,,,,,,,,,,,,,,,,,,,,,,,,,,,,,,,,,,,,,,,,,,,,,,,,,,,,,,,,,,,,,,,,,,,,,,,,,,,,,,,,,,,,,,,,,,,,,,,,,,,,,,,,,,,,,,,,,,,,,,,,,,,,,,,,,,,,,,,,
,,655fdf554b84fb6cbc5d4b93,2024-02-22_14h27.58.498,kallum_motion_pilot,2023.2.2,Win32,59.88023952,655fdf554b84fb6cbc5d4b93,65d6bb0e977760de756971f7,65d6bf1c0a464a429d9a917a,0.1487,0.1491,1,71,233,95,1,eightseven,,,,,,,,,,,,,,,,,,,,,,,,,,,,,,,,,,,,,,,,,,,,,,,,,,,,,,,,,,,,,,,,,,,,,,,,,,,,,,,,,,,,,,,,,,,,,,,,,,,,,,,,,,,,,,,,,,,,,,,,,,,,,,,,,,,,,,,,,
,,655fdf554b84fb6cbc5d4b93,2024-02-22_14h27.58.498,kallum_motion_pilot,2023.2.2,Win32,59.88023952,655fdf554b84fb6cbc5d4b93,65d6bb0e977760de756971f7,65d6bf1c0a464a429d9a917a,0.1493,0.1496,1,72,234,85,1,seveneight,,,,,,,,,,,,,,,,,,,,,,,,,,,,,,,,,,,,,,,,,,,,,,,,,,,,,,,,,,,,,,,,,,,,,,,,,,,,,,,,,,,,,,,,,,,,,,,,,,,,,,,,,,,,,,,,,,,,,,,,,,,,,,,,,,,,,,,,,
,,655fdf554b84fb6cbc5d4b93,2024-02-22_14h27.58.498,kallum_motion_pilot,2023.2.2,Win32,59.88023952,655fdf554b84fb6cbc5d4b93,65d6bb0e977760de756971f7,65d6bf1c0a464a429d9a917a,0.1498,0.15,1,73,235,150,1,eightsix,,,,,,,,,,,,,,,,,,,,,,,,,,,,,,,,,,,,,,,,,,,,,,,,,,,,,,,,,,,,,,,,,,,,,,,,,,,,,,,,,,,,,,,,,,,,,,,,,,,,,,,,,,,,,,,,,,,,,,,,,,,,,,,,,,,,,,,,,
,,655fdf554b84fb6cbc5d4b93,2024-02-22_14h27.58.498,kallum_motion_pilot,2023.2.2,Win32,59.88023952,655fdf554b84fb6cbc5d4b93,65d6bb0e977760de756971f7,65d6bf1c0a464a429d9a917a,0.1503,0.1506,1,74,236,147,1,sixeight,,,,,,,,,,,,,,,,,,,,,,,,,,,,,,,,,,,,,,,,,,,,,,,,,,,,,,,,,,,,,,,,,,,,,,,,,,,,,,,,,,,,,,,,,,,,,,,,,,,,,,,,,,,,,,,,,,,,,,,,,,,,,,,,,,,,,,,,,
,,655fdf554b84fb6cbc5d4b93,2024-02-22_14h27.58.498,kallum_motion_pilot,2023.2.2,Win32,59.88023952,655fdf554b84fb6cbc5d4b93,65d6bb0e977760de756971f7,65d6bf1c0a464a429d9a917a,0.1507,0.151,1,75,237,30,1,fourtwo,,,,,,,,,,,,,,,,,,,,,,,,,,,,,,,,,,,,,,,,,,,,,,,,,,,,,,,,,,,,,,,,,,,,,,,,,,,,,,,,,,,,,,,,,,,,,,,,,,,,,,,,,,,,,,,,,,,,,,,,,,,,,,,,,,,,,,,,,
,,655fdf554b84fb6cbc5d4b93,2024-02-22_14h27.58.498,kallum_motion_pilot,2023.2.2,Win32,59.88023952,655fdf554b84fb6cbc5d4b93,65d6bb0e977760de756971f7,65d6bf1c0a464a429d9a917a,0.1512,0.1518,1,76,238,0,1,onetwo,,,,,,,,,,,,,,,,,,,,,,,,,,,,,,,,,,,,,,,,,,,,,,,,,,,,,,,,,,,,,,,,,,,,,,,,,,,,,,,,,,,,,,,,,,,,,,,,,,,,,,,,,,,,,,,,,,,,,,,,,,,,,,,,,,,,,,,,,
,,655fdf554b84fb6cbc5d4b93,2024-02-22_14h27.58.498,kallum_motion_pilot,2023.2.2,Win32,59.88023952,655fdf554b84fb6cbc5d4b93,65d6bb0e977760de756971f7,65d6bf1c0a464a429d9a917a,0.152,0.1526,1,77,239,37,1,threefour,,,,,,,,,,,,,,,,,,,,,,,,,,,,,,,,,,,,,,,,,,,,,,,,,,,,,,,,,,,,,,,,,,,,,,,,,,,,,,,,,,,,,,,,,,,,,,,,,,,,,,,,,,,,,,,,,,,,,,,,,,,,,,,,,,,,,,,,,
,,655fdf554b84fb6cbc5d4b93,2024-02-22_14h27.58.498,kallum_motion_pilot,2023.2.2,Win32,59.88023952,655fdf554b84fb6cbc5d4b93,65d6bb0e977760de756971f7,65d6bf1c0a464a429d9a917a,0.1529,0.1532,1,78,240,46,1,fourtwo,,,,,,,,,,,,,,,,,,,,,,,,,,,,,,,,,,,,,,,,,,,,,,,,,,,,,,,,,,,,,,,,,,,,,,,,,,,,,,,,,,,,,,,,,,,,,,,,,,,,,,,,,,,,,,,,,,,,,,,,,,,,,,,,,,,,,,,,,
,,655fdf554b84fb6cbc5d4b93,2024-02-22_14h27.58.498,kallum_motion_pilot,2023.2.2,Win32,59.88023952,655fdf554b84fb6cbc5d4b93,65d6bb0e977760de756971f7,65d6bf1c0a464a429d9a917a,0.1534,0.1537,1,79,241,137,1,fiveseven,,,,,,,,,,,,,,,,,,,,,,,,,,,,,,,,,,,,,,,,,,,,,,,,,,,,,,,,,,,,,,,,,,,,,,,,,,,,,,,,,,,,,,,,,,,,,,,,,,,,,,,,,,,,,,,,,,,,,,,,,,,,,,,,,,,,,,,,,
,,655fdf554b84fb6cbc5d4b93,2024-02-22_14h27.58.498,kallum_motion_pilot,2023.2.2,Win32,59.88023952,655fdf554b84fb6cbc5d4b93,65d6bb0e977760de756971f7,65d6bf1c0a464a429d9a917a,0.1539,0.1542,1,80,242,10,1,twoone,,,,,,,,,,,,,,,,,,,,,,,,,,,,,,,,,,,,,,,,,,,,,,,,,,,,,,,,,,,,,,,,,,,,,,,,,,,,,,,,,,,,,,,,,,,,,,,,,,,,,,,,,,,,,,,,,,,,,,,,,,,,,,,,,,,,,,,,,
,,655fdf554b84fb6cbc5d4b93,2024-02-22_14h27.58.498,kallum_motion_pilot,2023.2.2,Win32,59.88023952,655fdf554b84fb6cbc5d4b93,65d6bb0e977760de756971f7,65d6bf1c0a464a429d9a917a,0.1545,0.1548,1,81,243,92,1,sevenfive,,,,,,,,,,,,,,,,,,,,,,,,,,,,,,,,,,,,,,,,,,,,,,,,,,,,,,,,,,,,,,,,,,,,,,,,,,,,,,,,,,,,,,,,,,,,,,,,,,,,,,,,,,,,,,,,,,,,,,,,,,,,,,,,,,,,,,,,,
,,655fdf554b84fb6cbc5d4b93,2024-02-22_14h27.58.498,kallum_motion_pilot,2023.2.2,Win32,59.88023952,655fdf554b84fb6cbc5d4b93,65d6bb0e977760de756971f7,65d6bf1c0a464a429d9a917a,0.155,0.1552,1,82,244,48,1,onetwo,,,,,,,,,,,,,,,,,,,,,,,,,,,,,,,,,,,,,,,,,,,,,,,,,,,,,,,,,,,,,,,,,,,,,,,,,,,,,,,,,,,,,,,,,,,,,,,,,,,,,,,,,,,,,,,,,,,,,,,,,,,,,,,,,,,,,,,,,
,,655fdf554b84fb6cbc5d4b93,2024-02-22_14h27.58.498,kallum_motion_pilot,2023.2.2,Win32,59.88023952,655fdf554b84fb6cbc5d4b93,65d6bb0e977760de756971f7,65d6bf1c0a464a429d9a917a,0.1554,0.1557,1,83,245,158,1,eightsix,,,,,,,,,,,,,,,,,,,,,,,,,,,,,,,,,,,,,,,,,,,,,,,,,,,,,,,,,,,,,,,,,,,,,,,,,,,,,,,,,,,,,,,,,,,,,,,,,,,,,,,,,,,,,,,,,,,,,,,,,,,,,,,,,,,,,,,,,
,,655fdf554b84fb6cbc5d4b93,2024-02-22_14h27.58.498,kallum_motion_pilot,2023.2.2,Win32,59.88023952,655fdf554b84fb6cbc5d4b93,65d6bb0e977760de756971f7,65d6bf1c0a464a429d9a917a,0.1559,0.1562,1,84,246,50,1,twoone,,,,,,,,,,,,,,,,,,,,,,,,,,,,,,,,,,,,,,,,,,,,,,,,,,,,,,,,,,,,,,,,,,,,,,,,,,,,,,,,,,,,,,,,,,,,,,,,,,,,,,,,,,,,,,,,,,,,,,,,,,,,,,,,,,,,,,,,,
,,655fdf554b84fb6cbc5d4b93,2024-02-22_14h27.58.498,kallum_motion_pilot,2023.2.2,Win32,59.88023952,655fdf554b84fb6cbc5d4b93,65d6bb0e977760de756971f7,65d6bf1c0a464a429d9a917a,0.1564,0.1566,1,85,247,15,1,fourthree,,,,,,,,,,,,,,,,,,,,,,,,,,,,,,,,,,,,,,,,,,,,,,,,,,,,,,,,,,,,,,,,,,,,,,,,,,,,,,,,,,,,,,,,,,,,,,,,,,,,,,,,,,,,,,,,,,,,,,,,,,,,,,,,,,,,,,,,,
,,655fdf554b84fb6cbc5d4b93,2024-02-22_14h27.58.498,kallum_motion_pilot,2023.2.2,Win32,59.88023952,655fdf554b84fb6cbc5d4b93,65d6bb0e977760de756971f7,65d6bf1c0a464a429d9a917a,0.1569,0.1572,1,86,248,43,1,twofour,,,,,,,,,,,,,,,,,,,,,,,,,,,,,,,,,,,,,,,,,,,,,,,,,,,,,,,,,,,,,,,,,,,,,,,,,,,,,,,,,,,,,,,,,,,,,,,,,,,,,,,,,,,,,,,,,,,,,,,,,,,,,,,,,,,,,,,,,
,,655fdf554b84fb6cbc5d4b93,2024-02-22_14h27.58.498,kallum_motion_pilot,2023.2.2,Win32,59.88023952,655fdf554b84fb6cbc5d4b93,65d6bb0e977760de756971f7,65d6bf1c0a464a429d9a917a,0.1574,0.1576,1,87,249,16,1,onetwo,,,,,,,,,,,,,,,,,,,,,,,,,,,,,,,,,,,,,,,,,,,,,,,,,,,,,,,,,,,,,,,,,,,,,,,,,,,,,,,,,,,,,,,,,,,,,,,,,,,,,,,,,,,,,,,,,,,,,,,,,,,,,,,,,,,,,,,,,
,,655fdf554b84fb6cbc5d4b93,2024-02-22_14h27.58.498,kallum_motion_pilot,2023.2.2,Win32,59.88023952,655fdf554b84fb6cbc5d4b93,65d6bb0e977760de756971f7,65d6bf1c0a464a429d9a917a,0.1579,0.1581,1,88,250,153,1,fiveseven,,,,,,,,,,,,,,,,,,,,,,,,,,,,,,,,,,,,,,,,,,,,,,,,,,,,,,,,,,,,,,,,,,,,,,,,,,,,,,,,,,,,,,,,,,,,,,,,,,,,,,,,,,,,,,,,,,,,,,,,,,,,,,,,,,,,,,,,,
,,655fdf554b84fb6cbc5d4b93,2024-02-22_14h27.58.498,kallum_motion_pilot,2023.2.2,Win32,59.88023952,655fdf554b84fb6cbc5d4b93,65d6bb0e977760de756971f7,65d6bf1c0a464a429d9a917a,0.1584,0.1586,1,89,251,142,1,eightsix,,,,,,,,,,,,,,,,,,,,,,,,,,,,,,,,,,,,,,,,,,,,,,,,,,,,,,,,,,,,,,,,,,,,,,,,,,,,,,,,,,,,,,,,,,,,,,,,,,,,,,,,,,,,,,,,,,,,,,,,,,,,,,,,,,,,,,,,,
,,655fdf554b84fb6cbc5d4b93,2024-02-22_14h27.58.498,kallum_motion_pilot,2023.2.2,Win32,59.88023952,655fdf554b84fb6cbc5d4b93,65d6bb0e977760de756971f7,65d6bf1c0a464a429d9a917a,0.1589,0.1591,1,90,252,88,1,fivesix,,,,,,,,,,,,,,,,,,,,,,,,,,,,,,,,,,,,,,,,,,,,,,,,,,,,,,,,,,,,,,,,,,,,,,,,,,,,,,,,,,,,,,,,,,,,,,,,,,,,,,,,,,,,,,,,,,,,,,,,,,,,,,,,,,,,,,,,,
,,655fdf554b84fb6cbc5d4b93,2024-02-22_14h27.58.498,kallum_motion_pilot,2023.2.2,Win32,59.88023952,655fdf554b84fb6cbc5d4b93,65d6bb0e977760de756971f7,65d6bf1c0a464a429d9a917a,0.1593,0.1596,1,91,253,135,1,eightseven,,,,,,,,,,,,,,,,,,,,,,,,,,,,,,,,,,,,,,,,,,,,,,,,,,,,,,,,,,,,,,,,,,,,,,,,,,,,,,,,,,,,,,,,,,,,,,,,,,,,,,,,,,,,,,,,,,,,,,,,,,,,,,,,,,,,,,,,,
,,655fdf554b84fb6cbc5d4b93,2024-02-22_14h27.58.498,kallum_motion_pilot,2023.2.2,Win32,59.88023952,655fdf554b84fb6cbc5d4b93,65d6bb0e977760de756971f7,65d6bf1c0a464a429d9a917a,0.1598,0.1601,1,92,254,13,1,threefour,,,,,,,,,,,,,,,,,,,,,,,,,,,,,,,,,,,,,,,,,,,,,,,,,,,,,,,,,,,,,,,,,,,,,,,,,,,,,,,,,,,,,,,,,,,,,,,,,,,,,,,,,,,,,,,,,,,,,,,,,,,,,,,,,,,,,,,,,
,,655fdf554b84fb6cbc5d4b93,2024-02-22_14h27.58.498,kallum_motion_pilot,2023.2.2,Win32,59.88023952,655fdf554b84fb6cbc5d4b93,65d6bb0e977760de756971f7,65d6bf1c0a464a429d9a917a,0.1604,0.1607,1,93,255,143,1,eightseven,,,,,,,,,,,,,,,,,,,,,,,,,,,,,,,,,,,,,,,,,,,,,,,,,,,,,,,,,,,,,,,,,,,,,,,,,,,,,,,,,,,,,,,,,,,,,,,,,,,,,,,,,,,,,,,,,,,,,,,,,,,,,,,,,,,,,,,,,
,,655fdf554b84fb6cbc5d4b93,2024-02-22_14h27.58.498,kallum_motion_pilot,2023.2.2,Win32,59.88023952,655fdf554b84fb6cbc5d4b93,65d6bb0e977760de756971f7,65d6bf1c0a464a429d9a917a,0.161,0.1616,1,94,256,67,1,twofour,,,,,,,,,,,,,,,,,,,,,,,,,,,,,,,,,,,,,,,,,,,,,,,,,,,,,,,,,,,,,,,,,,,,,,,,,,,,,,,,,,,,,,,,,,,,,,,,,,,,,,,,,,,,,,,,,,,,,,,,,,,,,,,,,,,,,,,,,
,,655fdf554b84fb6cbc5d4b93,2024-02-22_14h27.58.498,kallum_motion_pilot,2023.2.2,Win32,59.88023952,655fdf554b84fb6cbc5d4b93,65d6bb0e977760de756971f7,65d6bf1c0a464a429d9a917a,0.1618,0.1624,1,95,257,120,1,fivesix,,,,,,,,,,,,,,,,,,,,,,,,,,,,,,,,,,,,,,,,,,,,,,,,,,,,,,,,,,,,,,,,,,,,,,,,,,,,,,,,,,,,,,,,,,,,,,,,,,,,,,,,,,,,,,,,,,,,,,,,,,,,,,,,,,,,,,,,,
,,655fdf554b84fb6cbc5d4b93,2024-02-22_14h27.58.498,kallum_motion_pilot,2023.2.2,Win32,59.88023952,655fdf554b84fb6cbc5d4b93,65d6bb0e977760de756971f7,65d6bf1c0a464a429d9a917a,0.1629,0.1636,1,96,258,157,1,seveneight,,,,,,,,,,,,,,,,,,,,,,,,,,,,,,,,,,,,,,,,,,,,,,,,,,,,,,,,,,,,,,,,,,,,,,,,,,,,,,,,,,,,,,,,,,,,,,,,,,,,,,,,,,,,,,,,,,,,,,,,,,,,,,,,,,,,,,,,,
,,655fdf554b84fb6cbc5d4b93,2024-02-22_14h27.58.498,kallum_motion_pilot,2023.2.2,Win32,59.88023952,655fdf554b84fb6cbc5d4b93,65d6bb0e977760de756971f7,65d6bf1c0a464a429d9a917a,0.1639,0.1642,1,97,259,133,1,seveneight,,,,,,,,,,,,,,,,,,,,,,,,,,,,,,,,,,,,,,,,,,,,,,,,,,,,,,,,,,,,,,,,,,,,,,,,,,,,,,,,,,,,,,,,,,,,,,,,,,,,,,,,,,,,,,,,,,,,,,,,,,,,,,,,,,,,,,,,,
,,655fdf554b84fb6cbc5d4b93,2024-02-22_14h27.58.498,kallum_motion_pilot,2023.2.2,Win32,59.88023952,655fdf554b84fb6cbc5d4b93,65d6bb0e977760de756971f7,65d6bf1c0a464a429d9a917a,0.1645,0.1648,1,98,260,65,1,onethree,,,,,,,,,,,,,,,,,,,,,,,,,,,,,,,,,,,,,,,,,,,,,,,,,,,,,,,,,,,,,,,,,,,,,,,,,,,,,,,,,,,,,,,,,,,,,,,,,,,,,,,,,,,,,,,,,,,,,,,,,,,,,,,,,,,,,,,,,
,,655fdf554b84fb6cbc5d4b93,2024-02-22_14h27.58.498,kallum_motion_pilot,2023.2.2,Win32,59.88023952,655fdf554b84fb6cbc5d4b93,65d6bb0e977760de756971f7,65d6bf1c0a464a429d9a917a,0.1651,0.1654,1,99,261,11,1,twofour,,,,,,,,,,,,,,,,,,,,,,,,,,,,,,,,,,,,,,,,,,,,,,,,,,,,,,,,,,,,,,,,,,,,,,,,,,,,,,,,,,,,,,,,,,,,,,,,,,,,,,,,,,,,,,,,,,,,,,,,,,,,,,,,,,,,,,,,,
,,655fdf554b84fb6cbc5d4b93,2024-02-22_14h27.58.498,kallum_motion_pilot,2023.2.2,Win32,59.88023952,655fdf554b84fb6cbc5d4b93,65d6bb0e977760de756971f7,65d6bf1c0a464a429d9a917a,0.1656,0.1659,1,100,262,62,1,fourtwo,,,,,,,,,,,,,,,,,,,,,,,,,,,,,,,,,,,,,,,,,,,,,,,,,,,,,,,,,,,,,,,,,,,,,,,,,,,,,,,,,,,,,,,,,,,,,,,,,,,,,,,,,,,,,,,,,,,,,,,,,,,,,,,,,,,,,,,,,
,,655fdf554b84fb6cbc5d4b93,2024-02-22_14h27.58.498,kallum_motion_pilot,2023.2.2,Win32,59.88023952,655fdf554b84fb6cbc5d4b93,65d6bb0e977760de756971f7,65d6bf1c0a464a429d9a917a,0.1661,0.1664,1,101,263,117,1,seveneight,,,,,,,,,,,,,,,,,,,,,,,,,,,,,,,,,,,,,,,,,,,,,,,,,,,,,,,,,,,,,,,,,,,,,,,,,,,,,,,,,,,,,,,,,,,,,,,,,,,,,,,,,,,,,,,,,,,,,,,,,,,,,,,,,,,,,,,,,
,,655fdf554b84fb6cbc5d4b93,2024-02-22_14h27.58.498,kallum_motion_pilot,2023.2.2,Win32,59.88023952,655fdf554b84fb6cbc5d4b93,65d6bb0e977760de756971f7,65d6bf1c0a464a429d9a917a,0.1667,0.1671,1,102,264,140,1,sevenfive,,,,,,,,,,,,,,,,,,,,,,,,,,,,,,,,,,,,,,,,,,,,,,,,,,,,,,,,,,,,,,,,,,,,,,,,,,,,,,,,,,,,,,,,,,,,,,,,,,,,,,,,,,,,,,,,,,,,,,,,,,,,,,,,,,,,,,,,,
,,655fdf554b84fb6cbc5d4b93,2024-02-22_14h27.58.498,kallum_motion_pilot,2023.2.2,Win32,59.88023952,655fdf554b84fb6cbc5d4b93,65d6bb0e977760de756971f7,65d6bf1c0a464a429d9a917a,0.1675,0.1677,1,103,265,19,1,twofour,,,,,,,,,,,,,,,,,,,,,,,,,,,,,,,,,,,,,,,,,,,,,,,,,,,,,,,,,,,,,,,,,,,,,,,,,,,,,,,,,,,,,,,,,,,,,,,,,,,,,,,,,,,,,,,,,,,,,,,,,,,,,,,,,,,,,,,,,
,,655fdf554b84fb6cbc5d4b93,2024-02-22_14h27.58.498,kallum_motion_pilot,2023.2.2,Win32,59.88023952,655fdf554b84fb6cbc5d4b93,65d6bb0e977760de756971f7,65d6bf1c0a464a429d9a917a,0.168,0.1683,1,104,266,83,1,sixeight,,,,,,,,,,,,,,,,,,,,,,,,,,,,,,,,,,,,,,,,,,,,,,,,,,,,,,,,,,,,,,,,,,,,,,,,,,,,,,,,,,,,,,,,,,,,,,,,,,,,,,,,,,,,,,,,,,,,,,,,,,,,,,,,,,,,,,,,,
,,655fdf554b84fb6cbc5d4b93,2024-02-22_14h27.58.498,kallum_motion_pilot,2023.2.2,Win32,59.88023952,655fdf554b84fb6cbc5d4b93,65d6bb0e977760de756971f7,65d6bf1c0a464a429d9a917a,0.1685,0.1688,1,105,267,102,1,eightsix,,,,,,,,,,,,,,,,,,,,,,,,,,,,,,,,,,,,,,,,,,,,,,,,,,,,,,,,,,,,,,,,,,,,,,,,,,,,,,,,,,,,,,,,,,,,,,,,,,,,,,,,,,,,,,,,,,,,,,,,,,,,,,,,,,,,,,,,,
,,655fdf554b84fb6cbc5d4b93,2024-02-22_14h27.58.498,kallum_motion_pilot,2023.2.2,Win32,59.88023952,655fdf554b84fb6cbc5d4b93,65d6bb0e977760de756971f7,65d6bf1c0a464a429d9a917a,0.169,0.1692,1,106,268,53,1,threefour,,,,,,,,,,,,,,,,,,,,,,,,,,,,,,,,,,,,,,,,,,,,,,,,,,,,,,,,,,,,,,,,,,,,,,,,,,,,,,,,,,,,,,,,,,,,,,,,,,,,,,,,,,,,,,,,,,,,,,,,,,,,,,,,,,,,,,,,,
,,655fdf554b84fb6cbc5d4b93,2024-02-22_14h27.58.498,kallum_motion_pilot,2023.2.2,Win32,59.88023952,655fdf554b84fb6cbc5d4b93,65d6bb0e977760de756971f7,65d6bf1c0a464a429d9a917a,0.1695,0.1698,1,107,269,97,1,fiveseven,,,,,,,,,,,,,,,,,,,,,,,,,,,,,,,,,,,,,,,,,,,,,,,,,,,,,,,,,,,,,,,,,,,,,,,,,,,,,,,,,,,,,,,,,,,,,,,,,,,,,,,,,,,,,,,,,,,,,,,,,,,,,,,,,,,,,,,,,
,,655fdf554b84fb6cbc5d4b93,2024-02-22_14h27.58.498,kallum_motion_pilot,2023.2.2,Win32,59.88023952,655fdf554b84fb6cbc5d4b93,65d6bb0e977760de756971f7,65d6bf1c0a464a429d9a917a,0.17,0.1703,1,108,270,25,1,onethree,,,,,,,,,,,,,,,,,,,,,,,,,,,,,,,,,,,,,,,,,,,,,,,,,,,,,,,,,,,,,,,,,,,,,,,,,,,,,,,,,,,,,,,,,,,,,,,,,,,,,,,,,,,,,,,,,,,,,,,,,,,,,,,,,,,,,,,,,
,,655fdf554b84fb6cbc5d4b93,2024-02-22_14h27.58.498,kallum_motion_pilot,2023.2.2,Win32,59.88023952,655fdf554b84fb6cbc5d4b93,65d6bb0e977760de756971f7,65d6bf1c0a464a429d9a917a,0.1705,0.1708,1,109,271,115,1,sixeight,,,,,,,,,,,,,,,,,,,,,,,,,,,,,,,,,,,,,,,,,,,,,,,,,,,,,,,,,,,,,,,,,,,,,,,,,,,,,,,,,,,,,,,,,,,,,,,,,,,,,,,,,,,,,,,,,,,,,,,,,,,,,,,,,,,,,,,,,
,,655fdf554b84fb6cbc5d4b93,2024-02-22_14h27.58.498,kallum_motion_pilot,2023.2.2,Win32,59.88023952,655fdf554b84fb6cbc5d4b93,65d6bb0e977760de756971f7,65d6bf1c0a464a429d9a917a,0.171,0.1713,1,110,272,38,1,fourtwo,,,,,,,,,,,,,,,,,,,,,,,,,,,,,,,,,,,,,,,,,,,,,,,,,,,,,,,,,,,,,,,,,,,,,,,,,,,,,,,,,,,,,,,,,,,,,,,,,,,,,,,,,,,,,,,,,,,,,,,,,,,,,,,,,,,,,,,,,
,,655fdf554b84fb6cbc5d4b93,2024-02-22_14h27.58.498,kallum_motion_pilot,2023.2.2,Win32,59.88023952,655fdf554b84fb6cbc5d4b93,65d6bb0e977760de756971f7,65d6bf1c0a464a429d9a917a,0.1716,0.1723,1,111,273,4,1,threeone,,,,,,,,,,,,,,,,,,,,,,,,,,,,,,,,,,,,,,,,,,,,,,,,,,,,,,,,,,,,,,,,,,,,,,,,,,,,,,,,,,,,,,,,,,,,,,,,,,,,,,,,,,,,,,,,,,,,,,,,,,,,,,,,,,,,,,,,,
,,655fdf554b84fb6cbc5d4b93,2024-02-22_14h27.58.498,kallum_motion_pilot,2023.2.2,Win32,59.88023952,655fdf554b84fb6cbc5d4b93,65d6bb0e977760de756971f7,65d6bf1c0a464a429d9a917a,0.1727,0.173,1,112,274,107,1,sixeight,,,,,,,,,,,,,,,,,,,,,,,,,,,,,,,,,,,,,,,,,,,,,,,,,,,,,,,,,,,,,,,,,,,,,,,,,,,,,,,,,,,,,,,,,,,,,,,,,,,,,,,,,,,,,,,,,,,,,,,,,,,,,,,,,,,,,,,,,
,,655fdf554b84fb6cbc5d4b93,2024-02-22_14h27.58.498,kallum_motion_pilot,2023.2.2,Win32,59.88023952,655fdf554b84fb6cbc5d4b93,65d6bb0e977760de756971f7,65d6bf1c0a464a429d9a917a,0.1732,0.1736,1,113,275,138,1,sixfive,,,,,,,,,,,,,,,,,,,,,,,,,,,,,,,,,,,,,,,,,,,,,,,,,,,,,,,,,,,,,,,,,,,,,,,,,,,,,,,,,,,,,,,,,,,,,,,,,,,,,,,,,,,,,,,,,,,,,,,,,,,,,,,,,,,,,,,,,
,,655fdf554b84fb6cbc5d4b93,2024-02-22_14h27.58.498,kallum_motion_pilot,2023.2.2,Win32,59.88023952,655fdf554b84fb6cbc5d4b93,65d6bb0e977760de756971f7,65d6bf1c0a464a429d9a917a,0.1738,0.174,1,114,276,139,1,sixeight,,,,,,,,,,,,,,,,,,,,,,,,,,,,,,,,,,,,,,,,,,,,,,,,,,,,,,,,,,,,,,,,,,,,,,,,,,,,,,,,,,,,,,,,,,,,,,,,,,,,,,,,,,,,,,,,,,,,,,,,,,,,,,,,,,,,,,,,,
,,655fdf554b84fb6cbc5d4b93,2024-02-22_14h27.58.498,kallum_motion_pilot,2023.2.2,Win32,59.88023952,655fdf554b84fb6cbc5d4b93,65d6bb0e977760de756971f7,65d6bf1c0a464a429d9a917a,0.1742,0.1746,1,115,277,74,1,twoone,,,,,,,,,,,,,,,,,,,,,,,,,,,,,,,,,,,,,,,,,,,,,,,,,,,,,,,,,,,,,,,,,,,,,,,,,,,,,,,,,,,,,,,,,,,,,,,,,,,,,,,,,,,,,,,,,,,,,,,,,,,,,,,,,,,,,,,,,
