startup.started,startup.stopped,Prolific ID*,date,expName,psychopyVersion,OS,frameRate,participant,study_id,session,stimpositions.started,stimpositions.stopped,hardcoded_stimulus_positions.thisRepN,hardcoded_stimulus_positions.thisTrialN,hardcoded_stimulus_positions.thisN,hardcoded_stimulus_positions.thisIndex,hardcoded_stimulus_positions.ran,StimulusPos,stimorientation.started,stimorientation.stopped,prac_stimorientation_import_loop.thisRepN,prac_stimorientation_import_loop.thisTrialN,prac_stimorientation_import_loop.thisN,prac_stimorientation_import_loop.thisIndex,prac_stimorientation_import_loop.ran,Stimorientation,welcome_instr.started,welcome_instr.stopped,key_resp.keys,key_resp.rt,key_resp.duration,response_steppedout_1.started,response_steppedout_1.stopped,key_resp_20.keys,key_resp_20.rt,key_resp_20.duration,response_steppedout_2.started,response_steppedout_2.stopped,key_resp_19.keys,key_resp_19.rt,key_resp_19.duration,stim_response_instr.started,stim_response_instr.stopped,key_resp_15.keys,key_resp_15.rt,key_resp_15.duration,direction_instr_2.started,direction_instr_2.stopped,key_resp_9.keys,key_resp_9.rt,key_resp_9.duration,instr_prac.started,instr_prac.stopped,key_resp_10.keys,key_resp_10.rt,key_resp_10.duration,Stim1_display_prac.started,Stim1_display_prac.stopped,Ecc,Circle1_ori,Circle2_ori,response_prac.started,similarity,response_time,response_prac.stopped,mouse_5.x,mouse_5.y,mouse_5.leftButton,mouse_5.midButton,mouse_5.rightButton,mouse_5.clicked_name,responseprac_feedback.started,responseprac_feedback.stopped,summary2_prac.started,summary2_prac.stopped,mouse_6.x,mouse_6.y,mouse_6.leftButton,mouse_6.midButton,mouse_6.rightButton,mouse_6.clicked_name,duringprac.thisRepN,duringprac.thisTrialN,duringprac.thisN,duringprac.thisIndex,duringprac.ran,begin.started,begin.stopped,key_resp_22.keys,key_resp_22.rt,key_resp_22.duration,Stim1_display.started,Stim1_display.stopped,circle1_ori,circle2_ori,circle1_SF,circle2_SF,response.started,response.stopped,mouse.x,mouse.y,mouse.leftButton,mouse.midButton,mouse.rightButton,mouse.clicked_name,trialnumber,double_pass.thisRepN,double_pass.thisTrialN,double_pass.thisN,double_pass.thisIndex,double_pass.ran,double_pass.order,main_trial.thisRepN,main_trial.thisTrialN,main_trial.thisN,main_trial.thisIndex,main_trial.ran,main_trial.order,Trial_Counter,Catch,Frequencies,response_2.started,response_2.stopped,mouse_2.x,mouse_2.y,mouse_2.leftButton,mouse_2.midButton,mouse_2.rightButton,mouse_2.clicked_name,special_trial.started,special_trial.stopped,catch_1.started,catch_1.stopped,mouse_3.x,mouse_3.y,mouse_3.leftButton,mouse_3.midButton,mouse_3.rightButton,catchresponse,catchnumber,response_time_catch,response_sum.started,response_sum.stopped,mouse_11.x,mouse_11.y,mouse_11.leftButton,mouse_11.midButton,mouse_11.rightButton,flip_presentation_sequence_for_double_pass.started,flip_presentation_sequence_for_double_pass.stopped,goodbye.started,goodbye.stopped,key_resp_3.keys,key_resp_3.rt,key_resp_3.duration
0.0095,0.0098,6566ddd02affd70f7f88f805,2024-02-21_21h17.38.211,kallum_motion_pilot,2023.2.2,Win32,5.46149645,6566ddd02affd70f7f88f805,65d6bb0e977760de756971f7,65d6bcac977760de75697224,,,,,,,,,,,,,,,,,,,,,,,,,,,,,,,,,,,,,,,,,,,,,,,,,,,,,,,,,,,,,,,,,,,,,,,,,,,,,,,,,,,,,,,,,,,,,,,,,,,,,,,,,,,,,,,,,,,,,,,,,,,,,,,,,,,,,,,,,,,,,,,,,
,,6566ddd02affd70f7f88f805,2024-02-21_21h17.38.211,kallum_motion_pilot,2023.2.2,Win32,5.46149645,6566ddd02affd70f7f88f805,65d6bb0e977760de756971f7,65d6bcac977760de75697224,0.0538,0.0545,0,0,0,70,1,fourtwo,,,,,,,,,,,,,,,,,,,,,,,,,,,,,,,,,,,,,,,,,,,,,,,,,,,,,,,,,,,,,,,,,,,,,,,,,,,,,,,,,,,,,,,,,,,,,,,,,,,,,,,,,,,,,,,,,,,,,,,,,,,,,,,,,,,,,,,,,
,,6566ddd02affd70f7f88f805,2024-02-21_21h17.38.211,kallum_motion_pilot,2023.2.2,Win32,5.46149645,6566ddd02affd70f7f88f805,65d6bb0e977760de756971f7,65d6bcac977760de75697224,0.0551,0.0551,0,1,1,103,1,eightseven,,,,,,,,,,,,,,,,,,,,,,,,,,,,,,,,,,,,,,,,,,,,,,,,,,,,,,,,,,,,,,,,,,,,,,,,,,,,,,,,,,,,,,,,,,,,,,,,,,,,,,,,,,,,,,,,,,,,,,,,,,,,,,,,,,,,,,,,,
,,6566ddd02affd70f7f88f805,2024-02-21_21h17.38.211,kallum_motion_pilot,2023.2.2,Win32,5.46149645,6566ddd02affd70f7f88f805,65d6bb0e977760de756971f7,65d6bcac977760de75697224,0.0566,0.0568,0,2,2,28,1,threeone,,,,,,,,,,,,,,,,,,,,,,,,,,,,,,,,,,,,,,,,,,,,,,,,,,,,,,,,,,,,,,,,,,,,,,,,,,,,,,,,,,,,,,,,,,,,,,,,,,,,,,,,,,,,,,,,,,,,,,,,,,,,,,,,,,,,,,,,,
,,6566ddd02affd70f7f88f805,2024-02-21_21h17.38.211,kallum_motion_pilot,2023.2.2,Win32,5.46149645,6566ddd02affd70f7f88f805,65d6bb0e977760de756971f7,65d6bcac977760de75697224,0.057,0.0571,0,3,3,47,1,fourthree,,,,,,,,,,,,,,,,,,,,,,,,,,,,,,,,,,,,,,,,,,,,,,,,,,,,,,,,,,,,,,,,,,,,,,,,,,,,,,,,,,,,,,,,,,,,,,,,,,,,,,,,,,,,,,,,,,,,,,,,,,,,,,,,,,,,,,,,,
,,6566ddd02affd70f7f88f805,2024-02-21_21h17.38.211,kallum_motion_pilot,2023.2.2,Win32,5.46149645,6566ddd02affd70f7f88f805,65d6bb0e977760de756971f7,65d6bcac977760de75697224,0.0573,0.0574,0,4,4,51,1,twofour,,,,,,,,,,,,,,,,,,,,,,,,,,,,,,,,,,,,,,,,,,,,,,,,,,,,,,,,,,,,,,,,,,,,,,,,,,,,,,,,,,,,,,,,,,,,,,,,,,,,,,,,,,,,,,,,,,,,,,,,,,,,,,,,,,,,,,,,,
,,6566ddd02affd70f7f88f805,2024-02-21_21h17.38.211,kallum_motion_pilot,2023.2.2,Win32,5.46149645,6566ddd02affd70f7f88f805,65d6bb0e977760de756971f7,65d6bcac977760de75697224,0.0576,0.0576,0,5,5,19,1,twofour,,,,,,,,,,,,,,,,,,,,,,,,,,,,,,,,,,,,,,,,,,,,,,,,,,,,,,,,,,,,,,,,,,,,,,,,,,,,,,,,,,,,,,,,,,,,,,,,,,,,,,,,,,,,,,,,,,,,,,,,,,,,,,,,,,,,,,,,,
,,6566ddd02affd70f7f88f805,2024-02-21_21h17.38.211,kallum_motion_pilot,2023.2.2,Win32,5.46149645,6566ddd02affd70f7f88f805,65d6bb0e977760de756971f7,65d6bcac977760de75697224,0.0578,0.0579,0,6,6,13,1,threefour,,,,,,,,,,,,,,,,,,,,,,,,,,,,,,,,,,,,,,,,,,,,,,,,,,,,,,,,,,,,,,,,,,,,,,,,,,,,,,,,,,,,,,,,,,,,,,,,,,,,,,,,,,,,,,,,,,,,,,,,,,,,,,,,,,,,,,,,,
,,6566ddd02affd70f7f88f805,2024-02-21_21h17.38.211,kallum_motion_pilot,2023.2.2,Win32,5.46149645,6566ddd02affd70f7f88f805,65d6bb0e977760de756971f7,65d6bcac977760de75697224,0.0581,0.0582,0,7,7,87,1,eightseven,,,,,,,,,,,,,,,,,,,,,,,,,,,,,,,,,,,,,,,,,,,,,,,,,,,,,,,,,,,,,,,,,,,,,,,,,,,,,,,,,,,,,,,,,,,,,,,,,,,,,,,,,,,,,,,,,,,,,,,,,,,,,,,,,,,,,,,,,
,,6566ddd02affd70f7f88f805,2024-02-21_21h17.38.211,kallum_motion_pilot,2023.2.2,Win32,5.46149645,6566ddd02affd70f7f88f805,65d6bb0e977760de756971f7,65d6bcac977760de75697224,0.0584,0.0586,0,8,8,128,1,fivesix,,,,,,,,,,,,,,,,,,,,,,,,,,,,,,,,,,,,,,,,,,,,,,,,,,,,,,,,,,,,,,,,,,,,,,,,,,,,,,,,,,,,,,,,,,,,,,,,,,,,,,,,,,,,,,,,,,,,,,,,,,,,,,,,,,,,,,,,,
,,6566ddd02affd70f7f88f805,2024-02-21_21h17.38.211,kallum_motion_pilot,2023.2.2,Win32,5.46149645,6566ddd02affd70f7f88f805,65d6bb0e977760de756971f7,65d6bcac977760de75697224,0.0587,0.0588,0,9,9,81,1,fiveseven,,,,,,,,,,,,,,,,,,,,,,,,,,,,,,,,,,,,,,,,,,,,,,,,,,,,,,,,,,,,,,,,,,,,,,,,,,,,,,,,,,,,,,,,,,,,,,,,,,,,,,,,,,,,,,,,,,,,,,,,,,,,,,,,,,,,,,,,,
,,6566ddd02affd70f7f88f805,2024-02-21_21h17.38.211,kallum_motion_pilot,2023.2.2,Win32,5.46149645,6566ddd02affd70f7f88f805,65d6bb0e977760de756971f7,65d6bcac977760de75697224,0.0591,0.0591,0,10,10,24,1,onetwo,,,,,,,,,,,,,,,,,,,,,,,,,,,,,,,,,,,,,,,,,,,,,,,,,,,,,,,,,,,,,,,,,,,,,,,,,,,,,,,,,,,,,,,,,,,,,,,,,,,,,,,,,,,,,,,,,,,,,,,,,,,,,,,,,,,,,,,,,
,,6566ddd02affd70f7f88f805,2024-02-21_21h17.38.211,kallum_motion_pilot,2023.2.2,Win32,5.46149645,6566ddd02affd70f7f88f805,65d6bb0e977760de756971f7,65d6bcac977760de75697224,0.0593,0.0594,0,11,11,74,1,twoone,,,,,,,,,,,,,,,,,,,,,,,,,,,,,,,,,,,,,,,,,,,,,,,,,,,,,,,,,,,,,,,,,,,,,,,,,,,,,,,,,,,,,,,,,,,,,,,,,,,,,,,,,,,,,,,,,,,,,,,,,,,,,,,,,,,,,,,,,
,,6566ddd02affd70f7f88f805,2024-02-21_21h17.38.211,kallum_motion_pilot,2023.2.2,Win32,5.46149645,6566ddd02affd70f7f88f805,65d6bb0e977760de756971f7,65d6bcac977760de75697224,0.0595,0.0595,0,12,12,144,1,fivesix,,,,,,,,,,,,,,,,,,,,,,,,,,,,,,,,,,,,,,,,,,,,,,,,,,,,,,,,,,,,,,,,,,,,,,,,,,,,,,,,,,,,,,,,,,,,,,,,,,,,,,,,,,,,,,,,,,,,,,,,,,,,,,,,,,,,,,,,,
,,6566ddd02affd70f7f88f805,2024-02-21_21h17.38.211,kallum_motion_pilot,2023.2.2,Win32,5.46149645,6566ddd02affd70f7f88f805,65d6bb0e977760de756971f7,65d6bcac977760de75697224,0.0597,0.0598,0,13,13,104,1,fivesix,,,,,,,,,,,,,,,,,,,,,,,,,,,,,,,,,,,,,,,,,,,,,,,,,,,,,,,,,,,,,,,,,,,,,,,,,,,,,,,,,,,,,,,,,,,,,,,,,,,,,,,,,,,,,,,,,,,,,,,,,,,,,,,,,,,,,,,,,
,,6566ddd02affd70f7f88f805,2024-02-21_21h17.38.211,kallum_motion_pilot,2023.2.2,Win32,5.46149645,6566ddd02affd70f7f88f805,65d6bb0e977760de756971f7,65d6bcac977760de75697224,0.0601,0.0601,0,14,14,32,1,onetwo,,,,,,,,,,,,,,,,,,,,,,,,,,,,,,,,,,,,,,,,,,,,,,,,,,,,,,,,,,,,,,,,,,,,,,,,,,,,,,,,,,,,,,,,,,,,,,,,,,,,,,,,,,,,,,,,,,,,,,,,,,,,,,,,,,,,,,,,,
,,6566ddd02affd70f7f88f805,2024-02-21_21h17.38.211,kallum_motion_pilot,2023.2.2,Win32,5.46149645,6566ddd02affd70f7f88f805,65d6bb0e977760de756971f7,65d6bcac977760de75697224,0.0604,0.0604,0,15,15,116,1,sevenfive,,,,,,,,,,,,,,,,,,,,,,,,,,,,,,,,,,,,,,,,,,,,,,,,,,,,,,,,,,,,,,,,,,,,,,,,,,,,,,,,,,,,,,,,,,,,,,,,,,,,,,,,,,,,,,,,,,,,,,,,,,,,,,,,,,,,,,,,,
,,6566ddd02affd70f7f88f805,2024-02-21_21h17.38.211,kallum_motion_pilot,2023.2.2,Win32,5.46149645,6566ddd02affd70f7f88f805,65d6bb0e977760de756971f7,65d6bcac977760de75697224,0.0607,0.0607,0,16,16,99,1,sixeight,,,,,,,,,,,,,,,,,,,,,,,,,,,,,,,,,,,,,,,,,,,,,,,,,,,,,,,,,,,,,,,,,,,,,,,,,,,,,,,,,,,,,,,,,,,,,,,,,,,,,,,,,,,,,,,,,,,,,,,,,,,,,,,,,,,,,,,,,
,,6566ddd02affd70f7f88f805,2024-02-21_21h17.38.211,kallum_motion_pilot,2023.2.2,Win32,5.46149645,6566ddd02affd70f7f88f805,65d6bb0e977760de756971f7,65d6bcac977760de75697224,0.0609,0.0611,0,17,17,147,1,sixeight,,,,,,,,,,,,,,,,,,,,,,,,,,,,,,,,,,,,,,,,,,,,,,,,,,,,,,,,,,,,,,,,,,,,,,,,,,,,,,,,,,,,,,,,,,,,,,,,,,,,,,,,,,,,,,,,,,,,,,,,,,,,,,,,,,,,,,,,,
,,6566ddd02affd70f7f88f805,2024-02-21_21h17.38.211,kallum_motion_pilot,2023.2.2,Win32,5.46149645,6566ddd02affd70f7f88f805,65d6bb0e977760de756971f7,65d6bcac977760de75697224,0.0612,0.0612,0,18,18,56,1,onetwo,,,,,,,,,,,,,,,,,,,,,,,,,,,,,,,,,,,,,,,,,,,,,,,,,,,,,,,,,,,,,,,,,,,,,,,,,,,,,,,,,,,,,,,,,,,,,,,,,,,,,,,,,,,,,,,,,,,,,,,,,,,,,,,,,,,,,,,,,
,,6566ddd02affd70f7f88f805,2024-02-21_21h17.38.211,kallum_motion_pilot,2023.2.2,Win32,5.46149645,6566ddd02affd70f7f88f805,65d6bb0e977760de756971f7,65d6bcac977760de75697224,0.0614,0.0617,0,19,19,80,1,fivesix,,,,,,,,,,,,,,,,,,,,,,,,,,,,,,,,,,,,,,,,,,,,,,,,,,,,,,,,,,,,,,,,,,,,,,,,,,,,,,,,,,,,,,,,,,,,,,,,,,,,,,,,,,,,,,,,,,,,,,,,,,,,,,,,,,,,,,,,,
,,6566ddd02affd70f7f88f805,2024-02-21_21h17.38.211,kallum_motion_pilot,2023.2.2,Win32,5.46149645,6566ddd02affd70f7f88f805,65d6bb0e977760de756971f7,65d6bcac977760de75697224,0.0619,0.062,0,20,20,25,1,onethree,,,,,,,,,,,,,,,,,,,,,,,,,,,,,,,,,,,,,,,,,,,,,,,,,,,,,,,,,,,,,,,,,,,,,,,,,,,,,,,,,,,,,,,,,,,,,,,,,,,,,,,,,,,,,,,,,,,,,,,,,,,,,,,,,,,,,,,,,
,,6566ddd02affd70f7f88f805,2024-02-21_21h17.38.211,kallum_motion_pilot,2023.2.2,Win32,5.46149645,6566ddd02affd70f7f88f805,65d6bb0e977760de756971f7,65d6bcac977760de75697224,0.0622,0.0623,0,21,21,30,1,fourtwo,,,,,,,,,,,,,,,,,,,,,,,,,,,,,,,,,,,,,,,,,,,,,,,,,,,,,,,,,,,,,,,,,,,,,,,,,,,,,,,,,,,,,,,,,,,,,,,,,,,,,,,,,,,,,,,,,,,,,,,,,,,,,,,,,,,,,,,,,
,,6566ddd02affd70f7f88f805,2024-02-21_21h17.38.211,kallum_motion_pilot,2023.2.2,Win32,5.46149645,6566ddd02affd70f7f88f805,65d6bb0e977760de756971f7,65d6bcac977760de75697224,0.0625,0.0626,0,22,22,75,1,twofour,,,,,,,,,,,,,,,,,,,,,,,,,,,,,,,,,,,,,,,,,,,,,,,,,,,,,,,,,,,,,,,,,,,,,,,,,,,,,,,,,,,,,,,,,,,,,,,,,,,,,,,,,,,,,,,,,,,,,,,,,,,,,,,,,,,,,,,,,
,,6566ddd02affd70f7f88f805,2024-02-21_21h17.38.211,kallum_motion_pilot,2023.2.2,Win32,5.46149645,6566ddd02affd70f7f88f805,65d6bb0e977760de756971f7,65d6bcac977760de75697224,0.0628,0.0629,0,23,23,123,1,sixeight,,,,,,,,,,,,,,,,,,,,,,,,,,,,,,,,,,,,,,,,,,,,,,,,,,,,,,,,,,,,,,,,,,,,,,,,,,,,,,,,,,,,,,,,,,,,,,,,,,,,,,,,,,,,,,,,,,,,,,,,,,,,,,,,,,,,,,,,,
,,6566ddd02affd70f7f88f805,2024-02-21_21h17.38.211,kallum_motion_pilot,2023.2.2,Win32,5.46149645,6566ddd02affd70f7f88f805,65d6bb0e977760de756971f7,65d6bcac977760de75697224,0.0631,0.0632,0,24,24,92,1,sevenfive,,,,,,,,,,,,,,,,,,,,,,,,,,,,,,,,,,,,,,,,,,,,,,,,,,,,,,,,,,,,,,,,,,,,,,,,,,,,,,,,,,,,,,,,,,,,,,,,,,,,,,,,,,,,,,,,,,,,,,,,,,,,,,,,,,,,,,,,,
,,6566ddd02affd70f7f88f805,2024-02-21_21h17.38.211,kallum_motion_pilot,2023.2.2,Win32,5.46149645,6566ddd02affd70f7f88f805,65d6bb0e977760de756971f7,65d6bcac977760de75697224,0.0634,0.0635,0,25,25,105,1,fiveseven,,,,,,,,,,,,,,,,,,,,,,,,,,,,,,,,,,,,,,,,,,,,,,,,,,,,,,,,,,,,,,,,,,,,,,,,,,,,,,,,,,,,,,,,,,,,,,,,,,,,,,,,,,,,,,,,,,,,,,,,,,,,,,,,,,,,,,,,,
,,6566ddd02affd70f7f88f805,2024-02-21_21h17.38.211,kallum_motion_pilot,2023.2.2,Win32,5.46149645,6566ddd02affd70f7f88f805,65d6bb0e977760de756971f7,65d6bcac977760de75697224,0.0637,0.0638,0,26,26,107,1,sixeight,,,,,,,,,,,,,,,,,,,,,,,,,,,,,,,,,,,,,,,,,,,,,,,,,,,,,,,,,,,,,,,,,,,,,,,,,,,,,,,,,,,,,,,,,,,,,,,,,,,,,,,,,,,,,,,,,,,,,,,,,,,,,,,,,,,,,,,,,
,,6566ddd02affd70f7f88f805,2024-02-21_21h17.38.211,kallum_motion_pilot,2023.2.2,Win32,5.46149645,6566ddd02affd70f7f88f805,65d6bb0e977760de756971f7,65d6bcac977760de75697224,0.064,0.0641,0,27,27,15,1,fourthree,,,,,,,,,,,,,,,,,,,,,,,,,,,,,,,,,,,,,,,,,,,,,,,,,,,,,,,,,,,,,,,,,,,,,,,,,,,,,,,,,,,,,,,,,,,,,,,,,,,,,,,,,,,,,,,,,,,,,,,,,,,,,,,,,,,,,,,,,
,,6566ddd02affd70f7f88f805,2024-02-21_21h17.38.211,kallum_motion_pilot,2023.2.2,Win32,5.46149645,6566ddd02affd70f7f88f805,65d6bb0e977760de756971f7,65d6bcac977760de75697224,0.0642,0.0643,0,28,28,122,1,sixfive,,,,,,,,,,,,,,,,,,,,,,,,,,,,,,,,,,,,,,,,,,,,,,,,,,,,,,,,,,,,,,,,,,,,,,,,,,,,,,,,,,,,,,,,,,,,,,,,,,,,,,,,,,,,,,,,,,,,,,,,,,,,,,,,,,,,,,,,,
,,6566ddd02affd70f7f88f805,2024-02-21_21h17.38.211,kallum_motion_pilot,2023.2.2,Win32,5.46149645,6566ddd02affd70f7f88f805,65d6bb0e977760de756971f7,65d6bcac977760de75697224,0.0644,0.0646,0,29,29,53,1,threefour,,,,,,,,,,,,,,,,,,,,,,,,,,,,,,,,,,,,,,,,,,,,,,,,,,,,,,,,,,,,,,,,,,,,,,,,,,,,,,,,,,,,,,,,,,,,,,,,,,,,,,,,,,,,,,,,,,,,,,,,,,,,,,,,,,,,,,,,,
,,6566ddd02affd70f7f88f805,2024-02-21_21h17.38.211,kallum_motion_pilot,2023.2.2,Win32,5.46149645,6566ddd02affd70f7f88f805,65d6bb0e977760de756971f7,65d6bcac977760de75697224,0.0647,0.0648,0,30,30,10,1,twoone,,,,,,,,,,,,,,,,,,,,,,,,,,,,,,,,,,,,,,,,,,,,,,,,,,,,,,,,,,,,,,,,,,,,,,,,,,,,,,,,,,,,,,,,,,,,,,,,,,,,,,,,,,,,,,,,,,,,,,,,,,,,,,,,,,,,,,,,,
,,6566ddd02affd70f7f88f805,2024-02-21_21h17.38.211,kallum_motion_pilot,2023.2.2,Win32,5.46149645,6566ddd02affd70f7f88f805,65d6bb0e977760de756971f7,65d6bcac977760de75697224,0.065,0.065,0,31,31,129,1,fiveseven,,,,,,,,,,,,,,,,,,,,,,,,,,,,,,,,,,,,,,,,,,,,,,,,,,,,,,,,,,,,,,,,,,,,,,,,,,,,,,,,,,,,,,,,,,,,,,,,,,,,,,,,,,,,,,,,,,,,,,,,,,,,,,,,,,,,,,,,,
,,6566ddd02affd70f7f88f805,2024-02-21_21h17.38.211,kallum_motion_pilot,2023.2.2,Win32,5.46149645,6566ddd02affd70f7f88f805,65d6bb0e977760de756971f7,65d6bcac977760de75697224,0.0652,0.0652,0,32,32,117,1,seveneight,,,,,,,,,,,,,,,,,,,,,,,,,,,,,,,,,,,,,,,,,,,,,,,,,,,,,,,,,,,,,,,,,,,,,,,,,,,,,,,,,,,,,,,,,,,,,,,,,,,,,,,,,,,,,,,,,,,,,,,,,,,,,,,,,,,,,,,,,
,,6566ddd02affd70f7f88f805,2024-02-21_21h17.38.211,kallum_motion_pilot,2023.2.2,Win32,5.46149645,6566ddd02affd70f7f88f805,65d6bb0e977760de756971f7,65d6bcac977760de75697224,0.0655,0.0655,0,33,33,121,1,fiveseven,,,,,,,,,,,,,,,,,,,,,,,,,,,,,,,,,,,,,,,,,,,,,,,,,,,,,,,,,,,,,,,,,,,,,,,,,,,,,,,,,,,,,,,,,,,,,,,,,,,,,,,,,,,,,,,,,,,,,,,,,,,,,,,,,,,,,,,,,
,,6566ddd02affd70f7f88f805,2024-02-21_21h17.38.211,kallum_motion_pilot,2023.2.2,Win32,5.46149645,6566ddd02affd70f7f88f805,65d6bb0e977760de756971f7,65d6bcac977760de75697224,0.0657,0.0657,0,34,34,101,1,seveneight,,,,,,,,,,,,,,,,,,,,,,,,,,,,,,,,,,,,,,,,,,,,,,,,,,,,,,,,,,,,,,,,,,,,,,,,,,,,,,,,,,,,,,,,,,,,,,,,,,,,,,,,,,,,,,,,,,,,,,,,,,,,,,,,,,,,,,,,,
,,6566ddd02affd70f7f88f805,2024-02-21_21h17.38.211,kallum_motion_pilot,2023.2.2,Win32,5.46149645,6566ddd02affd70f7f88f805,65d6bb0e977760de756971f7,65d6bcac977760de75697224,0.0659,0.066,0,35,35,14,1,fourtwo,,,,,,,,,,,,,,,,,,,,,,,,,,,,,,,,,,,,,,,,,,,,,,,,,,,,,,,,,,,,,,,,,,,,,,,,,,,,,,,,,,,,,,,,,,,,,,,,,,,,,,,,,,,,,,,,,,,,,,,,,,,,,,,,,,,,,,,,,
,,6566ddd02affd70f7f88f805,2024-02-21_21h17.38.211,kallum_motion_pilot,2023.2.2,Win32,5.46149645,6566ddd02affd70f7f88f805,65d6bb0e977760de756971f7,65d6bcac977760de75697224,0.0661,0.0662,0,36,36,131,1,sixeight,,,,,,,,,,,,,,,,,,,,,,,,,,,,,,,,,,,,,,,,,,,,,,,,,,,,,,,,,,,,,,,,,,,,,,,,,,,,,,,,,,,,,,,,,,,,,,,,,,,,,,,,,,,,,,,,,,,,,,,,,,,,,,,,,,,,,,,,,
,,6566ddd02affd70f7f88f805,2024-02-21_21h17.38.211,kallum_motion_pilot,2023.2.2,Win32,5.46149645,6566ddd02affd70f7f88f805,65d6bb0e977760de756971f7,65d6bcac977760de75697224,0.0663,0.0664,0,37,37,120,1,fivesix,,,,,,,,,,,,,,,,,,,,,,,,,,,,,,,,,,,,,,,,,,,,,,,,,,,,,,,,,,,,,,,,,,,,,,,,,,,,,,,,,,,,,,,,,,,,,,,,,,,,,,,,,,,,,,,,,,,,,,,,,,,,,,,,,,,,,,,,,
,,6566ddd02affd70f7f88f805,2024-02-21_21h17.38.211,kallum_motion_pilot,2023.2.2,Win32,5.46149645,6566ddd02affd70f7f88f805,65d6bb0e977760de756971f7,65d6bcac977760de75697224,0.0666,0.0667,0,38,38,150,1,eightsix,,,,,,,,,,,,,,,,,,,,,,,,,,,,,,,,,,,,,,,,,,,,,,,,,,,,,,,,,,,,,,,,,,,,,,,,,,,,,,,,,,,,,,,,,,,,,,,,,,,,,,,,,,,,,,,,,,,,,,,,,,,,,,,,,,,,,,,,,
,,6566ddd02affd70f7f88f805,2024-02-21_21h17.38.211,kallum_motion_pilot,2023.2.2,Win32,5.46149645,6566ddd02affd70f7f88f805,65d6bb0e977760de756971f7,65d6bcac977760de75697224,0.0668,0.0669,0,39,39,0,1,onetwo,,,,,,,,,,,,,,,,,,,,,,,,,,,,,,,,,,,,,,,,,,,,,,,,,,,,,,,,,,,,,,,,,,,,,,,,,,,,,,,,,,,,,,,,,,,,,,,,,,,,,,,,,,,,,,,,,,,,,,,,,,,,,,,,,,,,,,,,,
,,6566ddd02affd70f7f88f805,2024-02-21_21h17.38.211,kallum_motion_pilot,2023.2.2,Win32,5.46149645,6566ddd02affd70f7f88f805,65d6bb0e977760de756971f7,65d6bcac977760de75697224,0.0671,0.0672,0,40,40,148,1,sevenfive,,,,,,,,,,,,,,,,,,,,,,,,,,,,,,,,,,,,,,,,,,,,,,,,,,,,,,,,,,,,,,,,,,,,,,,,,,,,,,,,,,,,,,,,,,,,,,,,,,,,,,,,,,,,,,,,,,,,,,,,,,,,,,,,,,,,,,,,,
,,6566ddd02affd70f7f88f805,2024-02-21_21h17.38.211,kallum_motion_pilot,2023.2.2,Win32,5.46149645,6566ddd02affd70f7f88f805,65d6bb0e977760de756971f7,65d6bcac977760de75697224,0.0675,0.0677,0,41,41,45,1,threefour,,,,,,,,,,,,,,,,,,,,,,,,,,,,,,,,,,,,,,,,,,,,,,,,,,,,,,,,,,,,,,,,,,,,,,,,,,,,,,,,,,,,,,,,,,,,,,,,,,,,,,,,,,,,,,,,,,,,,,,,,,,,,,,,,,,,,,,,,
,,6566ddd02affd70f7f88f805,2024-02-21_21h17.38.211,kallum_motion_pilot,2023.2.2,Win32,5.46149645,6566ddd02affd70f7f88f805,65d6bb0e977760de756971f7,65d6bcac977760de75697224,0.0678,0.0679,0,42,42,111,1,eightseven,,,,,,,,,,,,,,,,,,,,,,,,,,,,,,,,,,,,,,,,,,,,,,,,,,,,,,,,,,,,,,,,,,,,,,,,,,,,,,,,,,,,,,,,,,,,,,,,,,,,,,,,,,,,,,,,,,,,,,,,,,,,,,,,,,,,,,,,,
,,6566ddd02affd70f7f88f805,2024-02-21_21h17.38.211,kallum_motion_pilot,2023.2.2,Win32,5.46149645,6566ddd02affd70f7f88f805,65d6bb0e977760de756971f7,65d6bcac977760de75697224,0.0683,0.0683,0,43,43,88,1,fivesix,,,,,,,,,,,,,,,,,,,,,,,,,,,,,,,,,,,,,,,,,,,,,,,,,,,,,,,,,,,,,,,,,,,,,,,,,,,,,,,,,,,,,,,,,,,,,,,,,,,,,,,,,,,,,,,,,,,,,,,,,,,,,,,,,,,,,,,,,
,,6566ddd02affd70f7f88f805,2024-02-21_21h17.38.211,kallum_motion_pilot,2023.2.2,Win32,5.46149645,6566ddd02affd70f7f88f805,65d6bb0e977760de756971f7,65d6bcac977760de75697224,0.0686,0.0686,0,44,44,140,1,sevenfive,,,,,,,,,,,,,,,,,,,,,,,,,,,,,,,,,,,,,,,,,,,,,,,,,,,,,,,,,,,,,,,,,,,,,,,,,,,,,,,,,,,,,,,,,,,,,,,,,,,,,,,,,,,,,,,,,,,,,,,,,,,,,,,,,,,,,,,,,
,,6566ddd02affd70f7f88f805,2024-02-21_21h17.38.211,kallum_motion_pilot,2023.2.2,Win32,5.46149645,6566ddd02affd70f7f88f805,65d6bb0e977760de756971f7,65d6bcac977760de75697224,0.0688,0.0688,0,45,45,54,1,fourtwo,,,,,,,,,,,,,,,,,,,,,,,,,,,,,,,,,,,,,,,,,,,,,,,,,,,,,,,,,,,,,,,,,,,,,,,,,,,,,,,,,,,,,,,,,,,,,,,,,,,,,,,,,,,,,,,,,,,,,,,,,,,,,,,,,,,,,,,,,
,,6566ddd02affd70f7f88f805,2024-02-21_21h17.38.211,kallum_motion_pilot,2023.2.2,Win32,5.46149645,6566ddd02affd70f7f88f805,65d6bb0e977760de756971f7,65d6bcac977760de75697224,0.0691,0.0692,0,46,46,151,1,eightseven,,,,,,,,,,,,,,,,,,,,,,,,,,,,,,,,,,,,,,,,,,,,,,,,,,,,,,,,,,,,,,,,,,,,,,,,,,,,,,,,,,,,,,,,,,,,,,,,,,,,,,,,,,,,,,,,,,,,,,,,,,,,,,,,,,,,,,,,,
,,6566ddd02affd70f7f88f805,2024-02-21_21h17.38.211,kallum_motion_pilot,2023.2.2,Win32,5.46149645,6566ddd02affd70f7f88f805,65d6bb0e977760de756971f7,65d6bcac977760de75697224,0.0694,0.0695,0,47,47,146,1,sixfive,,,,,,,,,,,,,,,,,,,,,,,,,,,,,,,,,,,,,,,,,,,,,,,,,,,,,,,,,,,,,,,,,,,,,,,,,,,,,,,,,,,,,,,,,,,,,,,,,,,,,,,,,,,,,,,,,,,,,,,,,,,,,,,,,,,,,,,,,
,,6566ddd02affd70f7f88f805,2024-02-21_21h17.38.211,kallum_motion_pilot,2023.2.2,Win32,5.46149645,6566ddd02affd70f7f88f805,65d6bb0e977760de756971f7,65d6bcac977760de75697224,0.0697,0.0698,0,48,48,90,1,sixfive,,,,,,,,,,,,,,,,,,,,,,,,,,,,,,,,,,,,,,,,,,,,,,,,,,,,,,,,,,,,,,,,,,,,,,,,,,,,,,,,,,,,,,,,,,,,,,,,,,,,,,,,,,,,,,,,,,,,,,,,,,,,,,,,,,,,,,,,,
,,6566ddd02affd70f7f88f805,2024-02-21_21h17.38.211,kallum_motion_pilot,2023.2.2,Win32,5.46149645,6566ddd02affd70f7f88f805,65d6bb0e977760de756971f7,65d6bcac977760de75697224,0.07,0.0701,0,49,49,44,1,threeone,,,,,,,,,,,,,,,,,,,,,,,,,,,,,,,,,,,,,,,,,,,,,,,,,,,,,,,,,,,,,,,,,,,,,,,,,,,,,,,,,,,,,,,,,,,,,,,,,,,,,,,,,,,,,,,,,,,,,,,,,,,,,,,,,,,,,,,,,
,,6566ddd02affd70f7f88f805,2024-02-21_21h17.38.211,kallum_motion_pilot,2023.2.2,Win32,5.46149645,6566ddd02affd70f7f88f805,65d6bb0e977760de756971f7,65d6bcac977760de75697224,0.0703,0.0705,0,50,50,11,1,twofour,,,,,,,,,,,,,,,,,,,,,,,,,,,,,,,,,,,,,,,,,,,,,,,,,,,,,,,,,,,,,,,,,,,,,,,,,,,,,,,,,,,,,,,,,,,,,,,,,,,,,,,,,,,,,,,,,,,,,,,,,,,,,,,,,,,,,,,,,
,,6566ddd02affd70f7f88f805,2024-02-21_21h17.38.211,kallum_motion_pilot,2023.2.2,Win32,5.46149645,6566ddd02affd70f7f88f805,65d6bb0e977760de756971f7,65d6bcac977760de75697224,0.0706,0.0708,0,51,51,114,1,sixfive,,,,,,,,,,,,,,,,,,,,,,,,,,,,,,,,,,,,,,,,,,,,,,,,,,,,,,,,,,,,,,,,,,,,,,,,,,,,,,,,,,,,,,,,,,,,,,,,,,,,,,,,,,,,,,,,,,,,,,,,,,,,,,,,,,,,,,,,,
,,6566ddd02affd70f7f88f805,2024-02-21_21h17.38.211,kallum_motion_pilot,2023.2.2,Win32,5.46149645,6566ddd02affd70f7f88f805,65d6bb0e977760de756971f7,65d6bcac977760de75697224,0.071,0.0712,0,52,52,71,1,fourthree,,,,,,,,,,,,,,,,,,,,,,,,,,,,,,,,,,,,,,,,,,,,,,,,,,,,,,,,,,,,,,,,,,,,,,,,,,,,,,,,,,,,,,,,,,,,,,,,,,,,,,,,,,,,,,,,,,,,,,,,,,,,,,,,,,,,,,,,,
,,6566ddd02affd70f7f88f805,2024-02-21_21h17.38.211,kallum_motion_pilot,2023.2.2,Win32,5.46149645,6566ddd02affd70f7f88f805,65d6bb0e977760de756971f7,65d6bcac977760de75697224,0.0714,0.0715,0,53,53,18,1,twoone,,,,,,,,,,,,,,,,,,,,,,,,,,,,,,,,,,,,,,,,,,,,,,,,,,,,,,,,,,,,,,,,,,,,,,,,,,,,,,,,,,,,,,,,,,,,,,,,,,,,,,,,,,,,,,,,,,,,,,,,,,,,,,,,,,,,,,,,,
,,6566ddd02affd70f7f88f805,2024-02-21_21h17.38.211,kallum_motion_pilot,2023.2.2,Win32,5.46149645,6566ddd02affd70f7f88f805,65d6bb0e977760de756971f7,65d6bcac977760de75697224,0.0717,0.0718,0,54,54,142,1,eightsix,,,,,,,,,,,,,,,,,,,,,,,,,,,,,,,,,,,,,,,,,,,,,,,,,,,,,,,,,,,,,,,,,,,,,,,,,,,,,,,,,,,,,,,,,,,,,,,,,,,,,,,,,,,,,,,,,,,,,,,,,,,,,,,,,,,,,,,,,
,,6566ddd02affd70f7f88f805,2024-02-21_21h17.38.211,kallum_motion_pilot,2023.2.2,Win32,5.46149645,6566ddd02affd70f7f88f805,65d6bb0e977760de756971f7,65d6bcac977760de75697224,0.072,0.0721,0,55,55,130,1,sixfive,,,,,,,,,,,,,,,,,,,,,,,,,,,,,,,,,,,,,,,,,,,,,,,,,,,,,,,,,,,,,,,,,,,,,,,,,,,,,,,,,,,,,,,,,,,,,,,,,,,,,,,,,,,,,,,,,,,,,,,,,,,,,,,,,,,,,,,,,
,,6566ddd02affd70f7f88f805,2024-02-21_21h17.38.211,kallum_motion_pilot,2023.2.2,Win32,5.46149645,6566ddd02affd70f7f88f805,65d6bb0e977760de756971f7,65d6bcac977760de75697224,0.0723,0.0723,0,56,56,143,1,eightseven,,,,,,,,,,,,,,,,,,,,,,,,,,,,,,,,,,,,,,,,,,,,,,,,,,,,,,,,,,,,,,,,,,,,,,,,,,,,,,,,,,,,,,,,,,,,,,,,,,,,,,,,,,,,,,,,,,,,,,,,,,,,,,,,,,,,,,,,,
,,6566ddd02affd70f7f88f805,2024-02-21_21h17.38.211,kallum_motion_pilot,2023.2.2,Win32,5.46149645,6566ddd02affd70f7f88f805,65d6bb0e977760de756971f7,65d6bcac977760de75697224,0.0726,0.0728,0,57,57,82,1,sixfive,,,,,,,,,,,,,,,,,,,,,,,,,,,,,,,,,,,,,,,,,,,,,,,,,,,,,,,,,,,,,,,,,,,,,,,,,,,,,,,,,,,,,,,,,,,,,,,,,,,,,,,,,,,,,,,,,,,,,,,,,,,,,,,,,,,,,,,,,
,,6566ddd02affd70f7f88f805,2024-02-21_21h17.38.211,kallum_motion_pilot,2023.2.2,Win32,5.46149645,6566ddd02affd70f7f88f805,65d6bb0e977760de756971f7,65d6bcac977760de75697224,0.073,0.0731,0,58,58,141,1,seveneight,,,,,,,,,,,,,,,,,,,,,,,,,,,,,,,,,,,,,,,,,,,,,,,,,,,,,,,,,,,,,,,,,,,,,,,,,,,,,,,,,,,,,,,,,,,,,,,,,,,,,,,,,,,,,,,,,,,,,,,,,,,,,,,,,,,,,,,,,
,,6566ddd02affd70f7f88f805,2024-02-21_21h17.38.211,kallum_motion_pilot,2023.2.2,Win32,5.46149645,6566ddd02affd70f7f88f805,65d6bb0e977760de756971f7,65d6bcac977760de75697224,0.0733,0.0735,0,59,59,38,1,fourtwo,,,,,,,,,,,,,,,,,,,,,,,,,,,,,,,,,,,,,,,,,,,,,,,,,,,,,,,,,,,,,,,,,,,,,,,,,,,,,,,,,,,,,,,,,,,,,,,,,,,,,,,,,,,,,,,,,,,,,,,,,,,,,,,,,,,,,,,,,
,,6566ddd02affd70f7f88f805,2024-02-21_21h17.38.211,kallum_motion_pilot,2023.2.2,Win32,5.46149645,6566ddd02affd70f7f88f805,65d6bb0e977760de756971f7,65d6bcac977760de75697224,0.0737,0.0738,0,60,60,16,1,onetwo,,,,,,,,,,,,,,,,,,,,,,,,,,,,,,,,,,,,,,,,,,,,,,,,,,,,,,,,,,,,,,,,,,,,,,,,,,,,,,,,,,,,,,,,,,,,,,,,,,,,,,,,,,,,,,,,,,,,,,,,,,,,,,,,,,,,,,,,,
,,6566ddd02affd70f7f88f805,2024-02-21_21h17.38.211,kallum_motion_pilot,2023.2.2,Win32,5.46149645,6566ddd02affd70f7f88f805,65d6bb0e977760de756971f7,65d6bcac977760de75697224,0.0742,0.0743,0,61,61,89,1,fiveseven,,,,,,,,,,,,,,,,,,,,,,,,,,,,,,,,,,,,,,,,,,,,,,,,,,,,,,,,,,,,,,,,,,,,,,,,,,,,,,,,,,,,,,,,,,,,,,,,,,,,,,,,,,,,,,,,,,,,,,,,,,,,,,,,,,,,,,,,,
,,6566ddd02affd70f7f88f805,2024-02-21_21h17.38.211,kallum_motion_pilot,2023.2.2,Win32,5.46149645,6566ddd02affd70f7f88f805,65d6bb0e977760de756971f7,65d6bcac977760de75697224,0.0745,0.0746,0,62,62,22,1,fourtwo,,,,,,,,,,,,,,,,,,,,,,,,,,,,,,,,,,,,,,,,,,,,,,,,,,,,,,,,,,,,,,,,,,,,,,,,,,,,,,,,,,,,,,,,,,,,,,,,,,,,,,,,,,,,,,,,,,,,,,,,,,,,,,,,,,,,,,,,,
,,6566ddd02affd70f7f88f805,2024-02-21_21h17.38.211,kallum_motion_pilot,2023.2.2,Win32,5.46149645,6566ddd02affd70f7f88f805,65d6bb0e977760de756971f7,65d6bcac977760de75697224,0.0749,0.075,0,63,63,112,1,fivesix,,,,,,,,,,,,,,,,,,,,,,,,,,,,,,,,,,,,,,,,,,,,,,,,,,,,,,,,,,,,,,,,,,,,,,,,,,,,,,,,,,,,,,,,,,,,,,,,,,,,,,,,,,,,,,,,,,,,,,,,,,,,,,,,,,,,,,,,,
,,6566ddd02affd70f7f88f805,2024-02-21_21h17.38.211,kallum_motion_pilot,2023.2.2,Win32,5.46149645,6566ddd02affd70f7f88f805,65d6bb0e977760de756971f7,65d6bcac977760de75697224,0.0752,0.0753,0,64,64,115,1,sixeight,,,,,,,,,,,,,,,,,,,,,,,,,,,,,,,,,,,,,,,,,,,,,,,,,,,,,,,,,,,,,,,,,,,,,,,,,,,,,,,,,,,,,,,,,,,,,,,,,,,,,,,,,,,,,,,,,,,,,,,,,,,,,,,,,,,,,,,,,
,,6566ddd02affd70f7f88f805,2024-02-21_21h17.38.211,kallum_motion_pilot,2023.2.2,Win32,5.46149645,6566ddd02affd70f7f88f805,65d6bb0e977760de756971f7,65d6bcac977760de75697224,0.0755,0.0756,0,65,65,91,1,sixeight,,,,,,,,,,,,,,,,,,,,,,,,,,,,,,,,,,,,,,,,,,,,,,,,,,,,,,,,,,,,,,,,,,,,,,,,,,,,,,,,,,,,,,,,,,,,,,,,,,,,,,,,,,,,,,,,,,,,,,,,,,,,,,,,,,,,,,,,,
,,6566ddd02affd70f7f88f805,2024-02-21_21h17.38.211,kallum_motion_pilot,2023.2.2,Win32,5.46149645,6566ddd02affd70f7f88f805,65d6bb0e977760de756971f7,65d6bcac977760de75697224,0.0758,0.0759,0,66,66,76,1,threeone,,,,,,,,,,,,,,,,,,,,,,,,,,,,,,,,,,,,,,,,,,,,,,,,,,,,,,,,,,,,,,,,,,,,,,,,,,,,,,,,,,,,,,,,,,,,,,,,,,,,,,,,,,,,,,,,,,,,,,,,,,,,,,,,,,,,,,,,,
,,6566ddd02affd70f7f88f805,2024-02-21_21h17.38.211,kallum_motion_pilot,2023.2.2,Win32,5.46149645,6566ddd02affd70f7f88f805,65d6bb0e977760de756971f7,65d6bcac977760de75697224,0.0762,0.0764,0,67,67,132,1,sevenfive,,,,,,,,,,,,,,,,,,,,,,,,,,,,,,,,,,,,,,,,,,,,,,,,,,,,,,,,,,,,,,,,,,,,,,,,,,,,,,,,,,,,,,,,,,,,,,,,,,,,,,,,,,,,,,,,,,,,,,,,,,,,,,,,,,,,,,,,,
,,6566ddd02affd70f7f88f805,2024-02-21_21h17.38.211,kallum_motion_pilot,2023.2.2,Win32,5.46149645,6566ddd02affd70f7f88f805,65d6bb0e977760de756971f7,65d6bcac977760de75697224,0.0767,0.0768,0,68,68,125,1,seveneight,,,,,,,,,,,,,,,,,,,,,,,,,,,,,,,,,,,,,,,,,,,,,,,,,,,,,,,,,,,,,,,,,,,,,,,,,,,,,,,,,,,,,,,,,,,,,,,,,,,,,,,,,,,,,,,,,,,,,,,,,,,,,,,,,,,,,,,,,
,,6566ddd02affd70f7f88f805,2024-02-21_21h17.38.211,kallum_motion_pilot,2023.2.2,Win32,5.46149645,6566ddd02affd70f7f88f805,65d6bb0e977760de756971f7,65d6bcac977760de75697224,0.077,0.077,0,69,69,12,1,threeone,,,,,,,,,,,,,,,,,,,,,,,,,,,,,,,,,,,,,,,,,,,,,,,,,,,,,,,,,,,,,,,,,,,,,,,,,,,,,,,,,,,,,,,,,,,,,,,,,,,,,,,,,,,,,,,,,,,,,,,,,,,,,,,,,,,,,,,,,
,,6566ddd02affd70f7f88f805,2024-02-21_21h17.38.211,kallum_motion_pilot,2023.2.2,Win32,5.46149645,6566ddd02affd70f7f88f805,65d6bb0e977760de756971f7,65d6bcac977760de75697224,0.0772,0.0773,0,70,70,37,1,threefour,,,,,,,,,,,,,,,,,,,,,,,,,,,,,,,,,,,,,,,,,,,,,,,,,,,,,,,,,,,,,,,,,,,,,,,,,,,,,,,,,,,,,,,,,,,,,,,,,,,,,,,,,,,,,,,,,,,,,,,,,,,,,,,,,,,,,,,,,
,,6566ddd02affd70f7f88f805,2024-02-21_21h17.38.211,kallum_motion_pilot,2023.2.2,Win32,5.46149645,6566ddd02affd70f7f88f805,65d6bb0e977760de756971f7,65d6bcac977760de75697224,0.0774,0.0776,0,71,71,79,1,eightseven,,,,,,,,,,,,,,,,,,,,,,,,,,,,,,,,,,,,,,,,,,,,,,,,,,,,,,,,,,,,,,,,,,,,,,,,,,,,,,,,,,,,,,,,,,,,,,,,,,,,,,,,,,,,,,,,,,,,,,,,,,,,,,,,,,,,,,,,,
,,6566ddd02affd70f7f88f805,2024-02-21_21h17.38.211,kallum_motion_pilot,2023.2.2,Win32,5.46149645,6566ddd02affd70f7f88f805,65d6bb0e977760de756971f7,65d6bcac977760de75697224,0.0777,0.0779,0,72,72,21,1,threefour,,,,,,,,,,,,,,,,,,,,,,,,,,,,,,,,,,,,,,,,,,,,,,,,,,,,,,,,,,,,,,,,,,,,,,,,,,,,,,,,,,,,,,,,,,,,,,,,,,,,,,,,,,,,,,,,,,,,,,,,,,,,,,,,,,,,,,,,,
,,6566ddd02affd70f7f88f805,2024-02-21_21h17.38.211,kallum_motion_pilot,2023.2.2,Win32,5.46149645,6566ddd02affd70f7f88f805,65d6bb0e977760de756971f7,65d6bcac977760de75697224,0.0781,0.0783,0,73,73,135,1,eightseven,,,,,,,,,,,,,,,,,,,,,,,,,,,,,,,,,,,,,,,,,,,,,,,,,,,,,,,,,,,,,,,,,,,,,,,,,,,,,,,,,,,,,,,,,,,,,,,,,,,,,,,,,,,,,,,,,,,,,,,,,,,,,,,,,,,,,,,,,
,,6566ddd02affd70f7f88f805,2024-02-21_21h17.38.211,kallum_motion_pilot,2023.2.2,Win32,5.46149645,6566ddd02affd70f7f88f805,65d6bb0e977760de756971f7,65d6bcac977760de75697224,0.0785,0.0786,0,74,74,6,1,fourtwo,,,,,,,,,,,,,,,,,,,,,,,,,,,,,,,,,,,,,,,,,,,,,,,,,,,,,,,,,,,,,,,,,,,,,,,,,,,,,,,,,,,,,,,,,,,,,,,,,,,,,,,,,,,,,,,,,,,,,,,,,,,,,,,,,,,,,,,,,
,,6566ddd02affd70f7f88f805,2024-02-21_21h17.38.211,kallum_motion_pilot,2023.2.2,Win32,5.46149645,6566ddd02affd70f7f88f805,65d6bb0e977760de756971f7,65d6bcac977760de75697224,0.0788,0.0789,0,75,75,153,1,fiveseven,,,,,,,,,,,,,,,,,,,,,,,,,,,,,,,,,,,,,,,,,,,,,,,,,,,,,,,,,,,,,,,,,,,,,,,,,,,,,,,,,,,,,,,,,,,,,,,,,,,,,,,,,,,,,,,,,,,,,,,,,,,,,,,,,,,,,,,,,
,,6566ddd02affd70f7f88f805,2024-02-21_21h17.38.211,kallum_motion_pilot,2023.2.2,Win32,5.46149645,6566ddd02affd70f7f88f805,65d6bb0e977760de756971f7,65d6bcac977760de75697224,0.079,0.0792,0,76,76,66,1,twoone,,,,,,,,,,,,,,,,,,,,,,,,,,,,,,,,,,,,,,,,,,,,,,,,,,,,,,,,,,,,,,,,,,,,,,,,,,,,,,,,,,,,,,,,,,,,,,,,,,,,,,,,,,,,,,,,,,,,,,,,,,,,,,,,,,,,,,,,,
,,6566ddd02affd70f7f88f805,2024-02-21_21h17.38.211,kallum_motion_pilot,2023.2.2,Win32,5.46149645,6566ddd02affd70f7f88f805,65d6bb0e977760de756971f7,65d6bcac977760de75697224,0.0793,0.0794,0,77,77,5,1,threefour,,,,,,,,,,,,,,,,,,,,,,,,,,,,,,,,,,,,,,,,,,,,,,,,,,,,,,,,,,,,,,,,,,,,,,,,,,,,,,,,,,,,,,,,,,,,,,,,,,,,,,,,,,,,,,,,,,,,,,,,,,,,,,,,,,,,,,,,,
,,6566ddd02affd70f7f88f805,2024-02-21_21h17.38.211,kallum_motion_pilot,2023.2.2,Win32,5.46149645,6566ddd02affd70f7f88f805,65d6bb0e977760de756971f7,65d6bcac977760de75697224,0.0796,0.0796,0,78,78,9,1,onethree,,,,,,,,,,,,,,,,,,,,,,,,,,,,,,,,,,,,,,,,,,,,,,,,,,,,,,,,,,,,,,,,,,,,,,,,,,,,,,,,,,,,,,,,,,,,,,,,,,,,,,,,,,,,,,,,,,,,,,,,,,,,,,,,,,,,,,,,,
,,6566ddd02affd70f7f88f805,2024-02-21_21h17.38.211,kallum_motion_pilot,2023.2.2,Win32,5.46149645,6566ddd02affd70f7f88f805,65d6bb0e977760de756971f7,65d6bcac977760de75697224,0.0798,0.0799,0,79,79,29,1,threefour,,,,,,,,,,,,,,,,,,,,,,,,,,,,,,,,,,,,,,,,,,,,,,,,,,,,,,,,,,,,,,,,,,,,,,,,,,,,,,,,,,,,,,,,,,,,,,,,,,,,,,,,,,,,,,,,,,,,,,,,,,,,,,,,,,,,,,,,,
,,6566ddd02affd70f7f88f805,2024-02-21_21h17.38.211,kallum_motion_pilot,2023.2.2,Win32,5.46149645,6566ddd02affd70f7f88f805,65d6bb0e977760de756971f7,65d6bcac977760de75697224,0.08,0.0802,0,80,80,124,1,sevenfive,,,,,,,,,,,,,,,,,,,,,,,,,,,,,,,,,,,,,,,,,,,,,,,,,,,,,,,,,,,,,,,,,,,,,,,,,,,,,,,,,,,,,,,,,,,,,,,,,,,,,,,,,,,,,,,,,,,,,,,,,,,,,,,,,,,,,,,,,
,,6566ddd02affd70f7f88f805,2024-02-21_21h17.38.211,kallum_motion_pilot,2023.2.2,Win32,5.46149645,6566ddd02affd70f7f88f805,65d6bb0e977760de756971f7,65d6bcac977760de75697224,0.0803,0.0805,0,81,81,94,1,eightsix,,,,,,,,,,,,,,,,,,,,,,,,,,,,,,,,,,,,,,,,,,,,,,,,,,,,,,,,,,,,,,,,,,,,,,,,,,,,,,,,,,,,,,,,,,,,,,,,,,,,,,,,,,,,,,,,,,,,,,,,,,,,,,,,,,,,,,,,,
,,6566ddd02affd70f7f88f805,2024-02-21_21h17.38.211,kallum_motion_pilot,2023.2.2,Win32,5.46149645,6566ddd02affd70f7f88f805,65d6bb0e977760de756971f7,65d6bcac977760de75697224,0.0806,0.0807,0,82,82,33,1,onethree,,,,,,,,,,,,,,,,,,,,,,,,,,,,,,,,,,,,,,,,,,,,,,,,,,,,,,,,,,,,,,,,,,,,,,,,,,,,,,,,,,,,,,,,,,,,,,,,,,,,,,,,,,,,,,,,,,,,,,,,,,,,,,,,,,,,,,,,,
,,6566ddd02affd70f7f88f805,2024-02-21_21h17.38.211,kallum_motion_pilot,2023.2.2,Win32,5.46149645,6566ddd02affd70f7f88f805,65d6bb0e977760de756971f7,65d6bcac977760de75697224,0.0809,0.0809,0,83,83,139,1,sixeight,,,,,,,,,,,,,,,,,,,,,,,,,,,,,,,,,,,,,,,,,,,,,,,,,,,,,,,,,,,,,,,,,,,,,,,,,,,,,,,,,,,,,,,,,,,,,,,,,,,,,,,,,,,,,,,,,,,,,,,,,,,,,,,,,,,,,,,,,
,,6566ddd02affd70f7f88f805,2024-02-21_21h17.38.211,kallum_motion_pilot,2023.2.2,Win32,5.46149645,6566ddd02affd70f7f88f805,65d6bb0e977760de756971f7,65d6bcac977760de75697224,0.0811,0.0813,0,84,84,138,1,sixfive,,,,,,,,,,,,,,,,,,,,,,,,,,,,,,,,,,,,,,,,,,,,,,,,,,,,,,,,,,,,,,,,,,,,,,,,,,,,,,,,,,,,,,,,,,,,,,,,,,,,,,,,,,,,,,,,,,,,,,,,,,,,,,,,,,,,,,,,,
,,6566ddd02affd70f7f88f805,2024-02-21_21h17.38.211,kallum_motion_pilot,2023.2.2,Win32,5.46149645,6566ddd02affd70f7f88f805,65d6bb0e977760de756971f7,65d6bcac977760de75697224,0.0815,0.0816,0,85,85,69,1,threefour,,,,,,,,,,,,,,,,,,,,,,,,,,,,,,,,,,,,,,,,,,,,,,,,,,,,,,,,,,,,,,,,,,,,,,,,,,,,,,,,,,,,,,,,,,,,,,,,,,,,,,,,,,,,,,,,,,,,,,,,,,,,,,,,,,,,,,,,,
,,6566ddd02affd70f7f88f805,2024-02-21_21h17.38.211,kallum_motion_pilot,2023.2.2,Win32,5.46149645,6566ddd02affd70f7f88f805,65d6bb0e977760de756971f7,65d6bcac977760de75697224,0.0817,0.0818,0,86,86,156,1,sevenfive,,,,,,,,,,,,,,,,,,,,,,,,,,,,,,,,,,,,,,,,,,,,,,,,,,,,,,,,,,,,,,,,,,,,,,,,,,,,,,,,,,,,,,,,,,,,,,,,,,,,,,,,,,,,,,,,,,,,,,,,,,,,,,,,,,,,,,,,,
,,6566ddd02affd70f7f88f805,2024-02-21_21h17.38.211,kallum_motion_pilot,2023.2.2,Win32,5.46149645,6566ddd02affd70f7f88f805,65d6bb0e977760de756971f7,65d6bcac977760de75697224,0.0821,0.0821,0,87,87,50,1,twoone,,,,,,,,,,,,,,,,,,,,,,,,,,,,,,,,,,,,,,,,,,,,,,,,,,,,,,,,,,,,,,,,,,,,,,,,,,,,,,,,,,,,,,,,,,,,,,,,,,,,,,,,,,,,,,,,,,,,,,,,,,,,,,,,,,,,,,,,,
,,6566ddd02affd70f7f88f805,2024-02-21_21h17.38.211,kallum_motion_pilot,2023.2.2,Win32,5.46149645,6566ddd02affd70f7f88f805,65d6bb0e977760de756971f7,65d6bcac977760de75697224,0.0823,0.0827,0,88,88,149,1,seveneight,,,,,,,,,,,,,,,,,,,,,,,,,,,,,,,,,,,,,,,,,,,,,,,,,,,,,,,,,,,,,,,,,,,,,,,,,,,,,,,,,,,,,,,,,,,,,,,,,,,,,,,,,,,,,,,,,,,,,,,,,,,,,,,,,,,,,,,,,
,,6566ddd02affd70f7f88f805,2024-02-21_21h17.38.211,kallum_motion_pilot,2023.2.2,Win32,5.46149645,6566ddd02affd70f7f88f805,65d6bb0e977760de756971f7,65d6bcac977760de75697224,0.0831,0.0836,0,89,89,108,1,sevenfive,,,,,,,,,,,,,,,,,,,,,,,,,,,,,,,,,,,,,,,,,,,,,,,,,,,,,,,,,,,,,,,,,,,,,,,,,,,,,,,,,,,,,,,,,,,,,,,,,,,,,,,,,,,,,,,,,,,,,,,,,,,,,,,,,,,,,,,,,
,,6566ddd02affd70f7f88f805,2024-02-21_21h17.38.211,kallum_motion_pilot,2023.2.2,Win32,5.46149645,6566ddd02affd70f7f88f805,65d6bb0e977760de756971f7,65d6bcac977760de75697224,0.0842,0.0843,0,90,90,1,1,onethree,,,,,,,,,,,,,,,,,,,,,,,,,,,,,,,,,,,,,,,,,,,,,,,,,,,,,,,,,,,,,,,,,,,,,,,,,,,,,,,,,,,,,,,,,,,,,,,,,,,,,,,,,,,,,,,,,,,,,,,,,,,,,,,,,,,,,,,,,
,,6566ddd02affd70f7f88f805,2024-02-21_21h17.38.211,kallum_motion_pilot,2023.2.2,Win32,5.46149645,6566ddd02affd70f7f88f805,65d6bb0e977760de756971f7,65d6bcac977760de75697224,0.0845,0.0846,0,91,91,73,1,onethree,,,,,,,,,,,,,,,,,,,,,,,,,,,,,,,,,,,,,,,,,,,,,,,,,,,,,,,,,,,,,,,,,,,,,,,,,,,,,,,,,,,,,,,,,,,,,,,,,,,,,,,,,,,,,,,,,,,,,,,,,,,,,,,,,,,,,,,,,
,,6566ddd02affd70f7f88f805,2024-02-21_21h17.38.211,kallum_motion_pilot,2023.2.2,Win32,5.46149645,6566ddd02affd70f7f88f805,65d6bb0e977760de756971f7,65d6bcac977760de75697224,0.0849,0.085,0,92,92,136,1,fivesix,,,,,,,,,,,,,,,,,,,,,,,,,,,,,,,,,,,,,,,,,,,,,,,,,,,,,,,,,,,,,,,,,,,,,,,,,,,,,,,,,,,,,,,,,,,,,,,,,,,,,,,,,,,,,,,,,,,,,,,,,,,,,,,,,,,,,,,,,
,,6566ddd02affd70f7f88f805,2024-02-21_21h17.38.211,kallum_motion_pilot,2023.2.2,Win32,5.46149645,6566ddd02affd70f7f88f805,65d6bb0e977760de756971f7,65d6bcac977760de75697224,0.0852,0.0855,0,93,93,65,1,onethree,,,,,,,,,,,,,,,,,,,,,,,,,,,,,,,,,,,,,,,,,,,,,,,,,,,,,,,,,,,,,,,,,,,,,,,,,,,,,,,,,,,,,,,,,,,,,,,,,,,,,,,,,,,,,,,,,,,,,,,,,,,,,,,,,,,,,,,,,
,,6566ddd02affd70f7f88f805,2024-02-21_21h17.38.211,kallum_motion_pilot,2023.2.2,Win32,5.46149645,6566ddd02affd70f7f88f805,65d6bb0e977760de756971f7,65d6bcac977760de75697224,0.0857,0.0858,0,94,94,7,1,fourthree,,,,,,,,,,,,,,,,,,,,,,,,,,,,,,,,,,,,,,,,,,,,,,,,,,,,,,,,,,,,,,,,,,,,,,,,,,,,,,,,,,,,,,,,,,,,,,,,,,,,,,,,,,,,,,,,,,,,,,,,,,,,,,,,,,,,,,,,,
,,6566ddd02affd70f7f88f805,2024-02-21_21h17.38.211,kallum_motion_pilot,2023.2.2,Win32,5.46149645,6566ddd02affd70f7f88f805,65d6bb0e977760de756971f7,65d6bcac977760de75697224,0.0861,0.0863,0,95,95,126,1,eightsix,,,,,,,,,,,,,,,,,,,,,,,,,,,,,,,,,,,,,,,,,,,,,,,,,,,,,,,,,,,,,,,,,,,,,,,,,,,,,,,,,,,,,,,,,,,,,,,,,,,,,,,,,,,,,,,,,,,,,,,,,,,,,,,,,,,,,,,,,
,,6566ddd02affd70f7f88f805,2024-02-21_21h17.38.211,kallum_motion_pilot,2023.2.2,Win32,5.46149645,6566ddd02affd70f7f88f805,65d6bb0e977760de756971f7,65d6bcac977760de75697224,0.0868,0.0869,0,96,96,133,1,seveneight,,,,,,,,,,,,,,,,,,,,,,,,,,,,,,,,,,,,,,,,,,,,,,,,,,,,,,,,,,,,,,,,,,,,,,,,,,,,,,,,,,,,,,,,,,,,,,,,,,,,,,,,,,,,,,,,,,,,,,,,,,,,,,,,,,,,,,,,,
,,6566ddd02affd70f7f88f805,2024-02-21_21h17.38.211,kallum_motion_pilot,2023.2.2,Win32,5.46149645,6566ddd02affd70f7f88f805,65d6bb0e977760de756971f7,65d6bcac977760de75697224,0.0872,0.0874,0,97,97,113,1,fiveseven,,,,,,,,,,,,,,,,,,,,,,,,,,,,,,,,,,,,,,,,,,,,,,,,,,,,,,,,,,,,,,,,,,,,,,,,,,,,,,,,,,,,,,,,,,,,,,,,,,,,,,,,,,,,,,,,,,,,,,,,,,,,,,,,,,,,,,,,,
,,6566ddd02affd70f7f88f805,2024-02-21_21h17.38.211,kallum_motion_pilot,2023.2.2,Win32,5.46149645,6566ddd02affd70f7f88f805,65d6bb0e977760de756971f7,65d6bcac977760de75697224,0.0879,0.0882,0,98,98,145,1,fiveseven,,,,,,,,,,,,,,,,,,,,,,,,,,,,,,,,,,,,,,,,,,,,,,,,,,,,,,,,,,,,,,,,,,,,,,,,,,,,,,,,,,,,,,,,,,,,,,,,,,,,,,,,,,,,,,,,,,,,,,,,,,,,,,,,,,,,,,,,,
,,6566ddd02affd70f7f88f805,2024-02-21_21h17.38.211,kallum_motion_pilot,2023.2.2,Win32,5.46149645,6566ddd02affd70f7f88f805,65d6bb0e977760de756971f7,65d6bcac977760de75697224,0.0885,0.0887,0,99,99,95,1,eightseven,,,,,,,,,,,,,,,,,,,,,,,,,,,,,,,,,,,,,,,,,,,,,,,,,,,,,,,,,,,,,,,,,,,,,,,,,,,,,,,,,,,,,,,,,,,,,,,,,,,,,,,,,,,,,,,,,,,,,,,,,,,,,,,,,,,,,,,,,
,,6566ddd02affd70f7f88f805,2024-02-21_21h17.38.211,kallum_motion_pilot,2023.2.2,Win32,5.46149645,6566ddd02affd70f7f88f805,65d6bb0e977760de756971f7,65d6bcac977760de75697224,0.0888,0.089,0,100,100,158,1,eightsix,,,,,,,,,,,,,,,,,,,,,,,,,,,,,,,,,,,,,,,,,,,,,,,,,,,,,,,,,,,,,,,,,,,,,,,,,,,,,,,,,,,,,,,,,,,,,,,,,,,,,,,,,,,,,,,,,,,,,,,,,,,,,,,,,,,,,,,,,
,,6566ddd02affd70f7f88f805,2024-02-21_21h17.38.211,kallum_motion_pilot,2023.2.2,Win32,5.46149645,6566ddd02affd70f7f88f805,65d6bb0e977760de756971f7,65d6bcac977760de75697224,0.0894,0.0897,0,101,101,43,1,twofour,,,,,,,,,,,,,,,,,,,,,,,,,,,,,,,,,,,,,,,,,,,,,,,,,,,,,,,,,,,,,,,,,,,,,,,,,,,,,,,,,,,,,,,,,,,,,,,,,,,,,,,,,,,,,,,,,,,,,,,,,,,,,,,,,,,,,,,,,
,,6566ddd02affd70f7f88f805,2024-02-21_21h17.38.211,kallum_motion_pilot,2023.2.2,Win32,5.46149645,6566ddd02affd70f7f88f805,65d6bb0e977760de756971f7,65d6bcac977760de75697224,0.09,0.0901,0,102,102,106,1,sixfive,,,,,,,,,,,,,,,,,,,,,,,,,,,,,,,,,,,,,,,,,,,,,,,,,,,,,,,,,,,,,,,,,,,,,,,,,,,,,,,,,,,,,,,,,,,,,,,,,,,,,,,,,,,,,,,,,,,,,,,,,,,,,,,,,,,,,,,,,
,,6566ddd02affd70f7f88f805,2024-02-21_21h17.38.211,kallum_motion_pilot,2023.2.2,Win32,5.46149645,6566ddd02affd70f7f88f805,65d6bb0e977760de756971f7,65d6bcac977760de75697224,0.0905,0.0905,0,103,103,100,1,sevenfive,,,,,,,,,,,,,,,,,,,,,,,,,,,,,,,,,,,,,,,,,,,,,,,,,,,,,,,,,,,,,,,,,,,,,,,,,,,,,,,,,,,,,,,,,,,,,,,,,,,,,,,,,,,,,,,,,,,,,,,,,,,,,,,,,,,,,,,,,
,,6566ddd02affd70f7f88f805,2024-02-21_21h17.38.211,kallum_motion_pilot,2023.2.2,Win32,5.46149645,6566ddd02affd70f7f88f805,65d6bb0e977760de756971f7,65d6bcac977760de75697224,0.0908,0.091,0,104,104,157,1,seveneight,,,,,,,,,,,,,,,,,,,,,,,,,,,,,,,,,,,,,,,,,,,,,,,,,,,,,,,,,,,,,,,,,,,,,,,,,,,,,,,,,,,,,,,,,,,,,,,,,,,,,,,,,,,,,,,,,,,,,,,,,,,,,,,,,,,,,,,,,
,,6566ddd02affd70f7f88f805,2024-02-21_21h17.38.211,kallum_motion_pilot,2023.2.2,Win32,5.46149645,6566ddd02affd70f7f88f805,65d6bb0e977760de756971f7,65d6bcac977760de75697224,0.0912,0.0915,0,105,105,40,1,onetwo,,,,,,,,,,,,,,,,,,,,,,,,,,,,,,,,,,,,,,,,,,,,,,,,,,,,,,,,,,,,,,,,,,,,,,,,,,,,,,,,,,,,,,,,,,,,,,,,,,,,,,,,,,,,,,,,,,,,,,,,,,,,,,,,,,,,,,,,,
,,6566ddd02affd70f7f88f805,2024-02-21_21h17.38.211,kallum_motion_pilot,2023.2.2,Win32,5.46149645,6566ddd02affd70f7f88f805,65d6bb0e977760de756971f7,65d6bcac977760de75697224,0.092,0.0922,0,106,106,160,1,fivesix,,,,,,,,,,,,,,,,,,,,,,,,,,,,,,,,,,,,,,,,,,,,,,,,,,,,,,,,,,,,,,,,,,,,,,,,,,,,,,,,,,,,,,,,,,,,,,,,,,,,,,,,,,,,,,,,,,,,,,,,,,,,,,,,,,,,,,,,,
,,6566ddd02affd70f7f88f805,2024-02-21_21h17.38.211,kallum_motion_pilot,2023.2.2,Win32,5.46149645,6566ddd02affd70f7f88f805,65d6bb0e977760de756971f7,65d6bcac977760de75697224,0.0924,0.0925,0,107,107,63,1,fourthree,,,,,,,,,,,,,,,,,,,,,,,,,,,,,,,,,,,,,,,,,,,,,,,,,,,,,,,,,,,,,,,,,,,,,,,,,,,,,,,,,,,,,,,,,,,,,,,,,,,,,,,,,,,,,,,,,,,,,,,,,,,,,,,,,,,,,,,,,
,,6566ddd02affd70f7f88f805,2024-02-21_21h17.38.211,kallum_motion_pilot,2023.2.2,Win32,5.46149645,6566ddd02affd70f7f88f805,65d6bb0e977760de756971f7,65d6bcac977760de75697224,0.0928,0.093,0,108,108,26,1,twoone,,,,,,,,,,,,,,,,,,,,,,,,,,,,,,,,,,,,,,,,,,,,,,,,,,,,,,,,,,,,,,,,,,,,,,,,,,,,,,,,,,,,,,,,,,,,,,,,,,,,,,,,,,,,,,,,,,,,,,,,,,,,,,,,,,,,,,,,,
,,6566ddd02affd70f7f88f805,2024-02-21_21h17.38.211,kallum_motion_pilot,2023.2.2,Win32,5.46149645,6566ddd02affd70f7f88f805,65d6bb0e977760de756971f7,65d6bcac977760de75697224,0.0932,0.0933,0,109,109,93,1,seveneight,,,,,,,,,,,,,,,,,,,,,,,,,,,,,,,,,,,,,,,,,,,,,,,,,,,,,,,,,,,,,,,,,,,,,,,,,,,,,,,,,,,,,,,,,,,,,,,,,,,,,,,,,,,,,,,,,,,,,,,,,,,,,,,,,,,,,,,,,
,,6566ddd02affd70f7f88f805,2024-02-21_21h17.38.211,kallum_motion_pilot,2023.2.2,Win32,5.46149645,6566ddd02affd70f7f88f805,65d6bb0e977760de756971f7,65d6bcac977760de75697224,0.0936,0.0937,0,110,110,110,1,eightsix,,,,,,,,,,,,,,,,,,,,,,,,,,,,,,,,,,,,,,,,,,,,,,,,,,,,,,,,,,,,,,,,,,,,,,,,,,,,,,,,,,,,,,,,,,,,,,,,,,,,,,,,,,,,,,,,,,,,,,,,,,,,,,,,,,,,,,,,,
,,6566ddd02affd70f7f88f805,2024-02-21_21h17.38.211,kallum_motion_pilot,2023.2.2,Win32,5.46149645,6566ddd02affd70f7f88f805,65d6bb0e977760de756971f7,65d6bcac977760de75697224,0.094,0.0944,0,111,111,58,1,twoone,,,,,,,,,,,,,,,,,,,,,,,,,,,,,,,,,,,,,,,,,,,,,,,,,,,,,,,,,,,,,,,,,,,,,,,,,,,,,,,,,,,,,,,,,,,,,,,,,,,,,,,,,,,,,,,,,,,,,,,,,,,,,,,,,,,,,,,,,
,,6566ddd02affd70f7f88f805,2024-02-21_21h17.38.211,kallum_motion_pilot,2023.2.2,Win32,5.46149645,6566ddd02affd70f7f88f805,65d6bb0e977760de756971f7,65d6bcac977760de75697224,0.0947,0.0949,0,112,112,17,1,onethree,,,,,,,,,,,,,,,,,,,,,,,,,,,,,,,,,,,,,,,,,,,,,,,,,,,,,,,,,,,,,,,,,,,,,,,,,,,,,,,,,,,,,,,,,,,,,,,,,,,,,,,,,,,,,,,,,,,,,,,,,,,,,,,,,,,,,,,,,
,,6566ddd02affd70f7f88f805,2024-02-21_21h17.38.211,kallum_motion_pilot,2023.2.2,Win32,5.46149645,6566ddd02affd70f7f88f805,65d6bb0e977760de756971f7,65d6bcac977760de75697224,0.0953,0.0955,0,113,113,59,1,twofour,,,,,,,,,,,,,,,,,,,,,,,,,,,,,,,,,,,,,,,,,,,,,,,,,,,,,,,,,,,,,,,,,,,,,,,,,,,,,,,,,,,,,,,,,,,,,,,,,,,,,,,,,,,,,,,,,,,,,,,,,,,,,,,,,,,,,,,,,
,,6566ddd02affd70f7f88f805,2024-02-21_21h17.38.211,kallum_motion_pilot,2023.2.2,Win32,5.46149645,6566ddd02affd70f7f88f805,65d6bb0e977760de756971f7,65d6bcac977760de75697224,0.0957,0.0957,0,114,114,36,1,threeone,,,,,,,,,,,,,,,,,,,,,,,,,,,,,,,,,,,,,,,,,,,,,,,,,,,,,,,,,,,,,,,,,,,,,,,,,,,,,,,,,,,,,,,,,,,,,,,,,,,,,,,,,,,,,,,,,,,,,,,,,,,,,,,,,,,,,,,,,
,,6566ddd02affd70f7f88f805,2024-02-21_21h17.38.211,kallum_motion_pilot,2023.2.2,Win32,5.46149645,6566ddd02affd70f7f88f805,65d6bb0e977760de756971f7,65d6bcac977760de75697224,0.0959,0.096,0,115,115,46,1,fourtwo,,,,,,,,,,,,,,,,,,,,,,,,,,,,,,,,,,,,,,,,,,,,,,,,,,,,,,,,,,,,,,,,,,,,,,,,,,,,,,,,,,,,,,,,,,,,,,,,,,,,,,,,,,,,,,,,,,,,,,,,,,,,,,,,,,,,,,,,,
,,6566ddd02affd70f7f88f805,2024-02-21_21h17.38.211,kallum_motion_pilot,2023.2.2,Win32,5.46149645,6566ddd02affd70f7f88f805,65d6bb0e977760de756971f7,65d6bcac977760de75697224,0.0961,0.0963,0,116,116,35,1,twofour,,,,,,,,,,,,,,,,,,,,,,,,,,,,,,,,,,,,,,,,,,,,,,,,,,,,,,,,,,,,,,,,,,,,,,,,,,,,,,,,,,,,,,,,,,,,,,,,,,,,,,,,,,,,,,,,,,,,,,,,,,,,,,,,,,,,,,,,,
,,6566ddd02affd70f7f88f805,2024-02-21_21h17.38.211,kallum_motion_pilot,2023.2.2,Win32,5.46149645,6566ddd02affd70f7f88f805,65d6bb0e977760de756971f7,65d6bcac977760de75697224,0.0965,0.0966,0,117,117,62,1,fourtwo,,,,,,,,,,,,,,,,,,,,,,,,,,,,,,,,,,,,,,,,,,,,,,,,,,,,,,,,,,,,,,,,,,,,,,,,,,,,,,,,,,,,,,,,,,,,,,,,,,,,,,,,,,,,,,,,,,,,,,,,,,,,,,,,,,,,,,,,,
,,6566ddd02affd70f7f88f805,2024-02-21_21h17.38.211,kallum_motion_pilot,2023.2.2,Win32,5.46149645,6566ddd02affd70f7f88f805,65d6bb0e977760de756971f7,65d6bcac977760de75697224,0.0968,0.0969,0,118,118,96,1,fivesix,,,,,,,,,,,,,,,,,,,,,,,,,,,,,,,,,,,,,,,,,,,,,,,,,,,,,,,,,,,,,,,,,,,,,,,,,,,,,,,,,,,,,,,,,,,,,,,,,,,,,,,,,,,,,,,,,,,,,,,,,,,,,,,,,,,,,,,,,
,,6566ddd02affd70f7f88f805,2024-02-21_21h17.38.211,kallum_motion_pilot,2023.2.2,Win32,5.46149645,6566ddd02affd70f7f88f805,65d6bb0e977760de756971f7,65d6bcac977760de75697224,0.097,0.097,0,119,119,64,1,onetwo,,,,,,,,,,,,,,,,,,,,,,,,,,,,,,,,,,,,,,,,,,,,,,,,,,,,,,,,,,,,,,,,,,,,,,,,,,,,,,,,,,,,,,,,,,,,,,,,,,,,,,,,,,,,,,,,,,,,,,,,,,,,,,,,,,,,,,,,,
,,6566ddd02affd70f7f88f805,2024-02-21_21h17.38.211,kallum_motion_pilot,2023.2.2,Win32,5.46149645,6566ddd02affd70f7f88f805,65d6bb0e977760de756971f7,65d6bcac977760de75697224,0.0972,0.0973,0,120,120,155,1,sixeight,,,,,,,,,,,,,,,,,,,,,,,,,,,,,,,,,,,,,,,,,,,,,,,,,,,,,,,,,,,,,,,,,,,,,,,,,,,,,,,,,,,,,,,,,,,,,,,,,,,,,,,,,,,,,,,,,,,,,,,,,,,,,,,,,,,,,,,,,
,,6566ddd02affd70f7f88f805,2024-02-21_21h17.38.211,kallum_motion_pilot,2023.2.2,Win32,5.46149645,6566ddd02affd70f7f88f805,65d6bb0e977760de756971f7,65d6bcac977760de75697224,0.0975,0.0976,0,121,121,34,1,twoone,,,,,,,,,,,,,,,,,,,,,,,,,,,,,,,,,,,,,,,,,,,,,,,,,,,,,,,,,,,,,,,,,,,,,,,,,,,,,,,,,,,,,,,,,,,,,,,,,,,,,,,,,,,,,,,,,,,,,,,,,,,,,,,,,,,,,,,,,
,,6566ddd02affd70f7f88f805,2024-02-21_21h17.38.211,kallum_motion_pilot,2023.2.2,Win32,5.46149645,6566ddd02affd70f7f88f805,65d6bb0e977760de756971f7,65d6bcac977760de75697224,0.0978,0.0984,0,122,122,41,1,onethree,,,,,,,,,,,,,,,,,,,,,,,,,,,,,,,,,,,,,,,,,,,,,,,,,,,,,,,,,,,,,,,,,,,,,,,,,,,,,,,,,,,,,,,,,,,,,,,,,,,,,,,,,,,,,,,,,,,,,,,,,,,,,,,,,,,,,,,,,
,,6566ddd02affd70f7f88f805,2024-02-21_21h17.38.211,kallum_motion_pilot,2023.2.2,Win32,5.46149645,6566ddd02affd70f7f88f805,65d6bb0e977760de756971f7,65d6bcac977760de75697224,0.0986,0.0988,0,123,123,42,1,twoone,,,,,,,,,,,,,,,,,,,,,,,,,,,,,,,,,,,,,,,,,,,,,,,,,,,,,,,,,,,,,,,,,,,,,,,,,,,,,,,,,,,,,,,,,,,,,,,,,,,,,,,,,,,,,,,,,,,,,,,,,,,,,,,,,,,,,,,,,
,,6566ddd02affd70f7f88f805,2024-02-21_21h17.38.211,kallum_motion_pilot,2023.2.2,Win32,5.46149645,6566ddd02affd70f7f88f805,65d6bb0e977760de756971f7,65d6bcac977760de75697224,0.0991,0.0994,0,124,124,78,1,fourtwo,,,,,,,,,,,,,,,,,,,,,,,,,,,,,,,,,,,,,,,,,,,,,,,,,,,,,,,,,,,,,,,,,,,,,,,,,,,,,,,,,,,,,,,,,,,,,,,,,,,,,,,,,,,,,,,,,,,,,,,,,,,,,,,,,,,,,,,,,
,,6566ddd02affd70f7f88f805,2024-02-21_21h17.38.211,kallum_motion_pilot,2023.2.2,Win32,5.46149645,6566ddd02affd70f7f88f805,65d6bb0e977760de756971f7,65d6bcac977760de75697224,0.0997,0.0998,0,125,125,27,1,twofour,,,,,,,,,,,,,,,,,,,,,,,,,,,,,,,,,,,,,,,,,,,,,,,,,,,,,,,,,,,,,,,,,,,,,,,,,,,,,,,,,,,,,,,,,,,,,,,,,,,,,,,,,,,,,,,,,,,,,,,,,,,,,,,,,,,,,,,,,
,,6566ddd02affd70f7f88f805,2024-02-21_21h17.38.211,kallum_motion_pilot,2023.2.2,Win32,5.46149645,6566ddd02affd70f7f88f805,65d6bb0e977760de756971f7,65d6bcac977760de75697224,0.1,0.1001,0,126,126,85,1,seveneight,,,,,,,,,,,,,,,,,,,,,,,,,,,,,,,,,,,,,,,,,,,,,,,,,,,,,,,,,,,,,,,,,,,,,,,,,,,,,,,,,,,,,,,,,,,,,,,,,,,,,,,,,,,,,,,,,,,,,,,,,,,,,,,,,,,,,,,,,
,,6566ddd02affd70f7f88f805,2024-02-21_21h17.38.211,kallum_motion_pilot,2023.2.2,Win32,5.46149645,6566ddd02affd70f7f88f805,65d6bb0e977760de756971f7,65d6bcac977760de75697224,0.1003,0.1004,0,127,127,137,1,fiveseven,,,,,,,,,,,,,,,,,,,,,,,,,,,,,,,,,,,,,,,,,,,,,,,,,,,,,,,,,,,,,,,,,,,,,,,,,,,,,,,,,,,,,,,,,,,,,,,,,,,,,,,,,,,,,,,,,,,,,,,,,,,,,,,,,,,,,,,,,
,,6566ddd02affd70f7f88f805,2024-02-21_21h17.38.211,kallum_motion_pilot,2023.2.2,Win32,5.46149645,6566ddd02affd70f7f88f805,65d6bb0e977760de756971f7,65d6bcac977760de75697224,0.1005,0.1006,0,128,128,86,1,eightsix,,,,,,,,,,,,,,,,,,,,,,,,,,,,,,,,,,,,,,,,,,,,,,,,,,,,,,,,,,,,,,,,,,,,,,,,,,,,,,,,,,,,,,,,,,,,,,,,,,,,,,,,,,,,,,,,,,,,,,,,,,,,,,,,,,,,,,,,,
,,6566ddd02affd70f7f88f805,2024-02-21_21h17.38.211,kallum_motion_pilot,2023.2.2,Win32,5.46149645,6566ddd02affd70f7f88f805,65d6bb0e977760de756971f7,65d6bcac977760de75697224,0.1008,0.1009,0,129,129,77,1,threefour,,,,,,,,,,,,,,,,,,,,,,,,,,,,,,,,,,,,,,,,,,,,,,,,,,,,,,,,,,,,,,,,,,,,,,,,,,,,,,,,,,,,,,,,,,,,,,,,,,,,,,,,,,,,,,,,,,,,,,,,,,,,,,,,,,,,,,,,,
,,6566ddd02affd70f7f88f805,2024-02-21_21h17.38.211,kallum_motion_pilot,2023.2.2,Win32,5.46149645,6566ddd02affd70f7f88f805,65d6bb0e977760de756971f7,65d6bcac977760de75697224,0.1011,0.1012,0,130,130,152,1,fivesix,,,,,,,,,,,,,,,,,,,,,,,,,,,,,,,,,,,,,,,,,,,,,,,,,,,,,,,,,,,,,,,,,,,,,,,,,,,,,,,,,,,,,,,,,,,,,,,,,,,,,,,,,,,,,,,,,,,,,,,,,,,,,,,,,,,,,,,,,
,,6566ddd02affd70f7f88f805,2024-02-21_21h17.38.211,kallum_motion_pilot,2023.2.2,Win32,5.46149645,6566ddd02affd70f7f88f805,65d6bb0e977760de756971f7,65d6bcac977760de75697224,0.1014,0.1014,0,131,131,119,1,eightseven,,,,,,,,,,,,,,,,,,,,,,,,,,,,,,,,,,,,,,,,,,,,,,,,,,,,,,,,,,,,,,,,,,,,,,,,,,,,,,,,,,,,,,,,,,,,,,,,,,,,,,,,,,,,,,,,,,,,,,,,,,,,,,,,,,,,,,,,,
,,6566ddd02affd70f7f88f805,2024-02-21_21h17.38.211,kallum_motion_pilot,2023.2.2,Win32,5.46149645,6566ddd02affd70f7f88f805,65d6bb0e977760de756971f7,65d6bcac977760de75697224,0.1017,0.1019,0,132,132,84,1,sevenfive,,,,,,,,,,,,,,,,,,,,,,,,,,,,,,,,,,,,,,,,,,,,,,,,,,,,,,,,,,,,,,,,,,,,,,,,,,,,,,,,,,,,,,,,,,,,,,,,,,,,,,,,,,,,,,,,,,,,,,,,,,,,,,,,,,,,,,,,,
,,6566ddd02affd70f7f88f805,2024-02-21_21h17.38.211,kallum_motion_pilot,2023.2.2,Win32,5.46149645,6566ddd02affd70f7f88f805,65d6bb0e977760de756971f7,65d6bcac977760de75697224,0.102,0.1022,0,133,133,97,1,fiveseven,,,,,,,,,,,,,,,,,,,,,,,,,,,,,,,,,,,,,,,,,,,,,,,,,,,,,,,,,,,,,,,,,,,,,,,,,,,,,,,,,,,,,,,,,,,,,,,,,,,,,,,,,,,,,,,,,,,,,,,,,,,,,,,,,,,,,,,,,
,,6566ddd02affd70f7f88f805,2024-02-21_21h17.38.211,kallum_motion_pilot,2023.2.2,Win32,5.46149645,6566ddd02affd70f7f88f805,65d6bb0e977760de756971f7,65d6bcac977760de75697224,0.1024,0.1025,0,134,134,159,1,eightseven,,,,,,,,,,,,,,,,,,,,,,,,,,,,,,,,,,,,,,,,,,,,,,,,,,,,,,,,,,,,,,,,,,,,,,,,,,,,,,,,,,,,,,,,,,,,,,,,,,,,,,,,,,,,,,,,,,,,,,,,,,,,,,,,,,,,,,,,,
,,6566ddd02affd70f7f88f805,2024-02-21_21h17.38.211,kallum_motion_pilot,2023.2.2,Win32,5.46149645,6566ddd02affd70f7f88f805,65d6bb0e977760de756971f7,65d6bcac977760de75697224,0.1027,0.1028,0,135,135,98,1,sixfive,,,,,,,,,,,,,,,,,,,,,,,,,,,,,,,,,,,,,,,,,,,,,,,,,,,,,,,,,,,,,,,,,,,,,,,,,,,,,,,,,,,,,,,,,,,,,,,,,,,,,,,,,,,,,,,,,,,,,,,,,,,,,,,,,,,,,,,,,
,,6566ddd02affd70f7f88f805,2024-02-21_21h17.38.211,kallum_motion_pilot,2023.2.2,Win32,5.46149645,6566ddd02affd70f7f88f805,65d6bb0e977760de756971f7,65d6bcac977760de75697224,0.103,0.1032,0,136,136,61,1,threefour,,,,,,,,,,,,,,,,,,,,,,,,,,,,,,,,,,,,,,,,,,,,,,,,,,,,,,,,,,,,,,,,,,,,,,,,,,,,,,,,,,,,,,,,,,,,,,,,,,,,,,,,,,,,,,,,,,,,,,,,,,,,,,,,,,,,,,,,,
,,6566ddd02affd70f7f88f805,2024-02-21_21h17.38.211,kallum_motion_pilot,2023.2.2,Win32,5.46149645,6566ddd02affd70f7f88f805,65d6bb0e977760de756971f7,65d6bcac977760de75697224,0.1034,0.1036,0,137,137,8,1,onetwo,,,,,,,,,,,,,,,,,,,,,,,,,,,,,,,,,,,,,,,,,,,,,,,,,,,,,,,,,,,,,,,,,,,,,,,,,,,,,,,,,,,,,,,,,,,,,,,,,,,,,,,,,,,,,,,,,,,,,,,,,,,,,,,,,,,,,,,,,
,,6566ddd02affd70f7f88f805,2024-02-21_21h17.38.211,kallum_motion_pilot,2023.2.2,Win32,5.46149645,6566ddd02affd70f7f88f805,65d6bb0e977760de756971f7,65d6bcac977760de75697224,0.1037,0.1039,0,138,138,83,1,sixeight,,,,,,,,,,,,,,,,,,,,,,,,,,,,,,,,,,,,,,,,,,,,,,,,,,,,,,,,,,,,,,,,,,,,,,,,,,,,,,,,,,,,,,,,,,,,,,,,,,,,,,,,,,,,,,,,,,,,,,,,,,,,,,,,,,,,,,,,,
,,6566ddd02affd70f7f88f805,2024-02-21_21h17.38.211,kallum_motion_pilot,2023.2.2,Win32,5.46149645,6566ddd02affd70f7f88f805,65d6bb0e977760de756971f7,65d6bcac977760de75697224,0.1041,0.1042,0,139,139,102,1,eightsix,,,,,,,,,,,,,,,,,,,,,,,,,,,,,,,,,,,,,,,,,,,,,,,,,,,,,,,,,,,,,,,,,,,,,,,,,,,,,,,,,,,,,,,,,,,,,,,,,,,,,,,,,,,,,,,,,,,,,,,,,,,,,,,,,,,,,,,,,
,,6566ddd02affd70f7f88f805,2024-02-21_21h17.38.211,kallum_motion_pilot,2023.2.2,Win32,5.46149645,6566ddd02affd70f7f88f805,65d6bb0e977760de756971f7,65d6bcac977760de75697224,0.1044,0.1045,0,140,140,118,1,eightsix,,,,,,,,,,,,,,,,,,,,,,,,,,,,,,,,,,,,,,,,,,,,,,,,,,,,,,,,,,,,,,,,,,,,,,,,,,,,,,,,,,,,,,,,,,,,,,,,,,,,,,,,,,,,,,,,,,,,,,,,,,,,,,,,,,,,,,,,,
,,6566ddd02affd70f7f88f805,2024-02-21_21h17.38.211,kallum_motion_pilot,2023.2.2,Win32,5.46149645,6566ddd02affd70f7f88f805,65d6bb0e977760de756971f7,65d6bcac977760de75697224,0.1046,0.1047,0,141,141,60,1,threeone,,,,,,,,,,,,,,,,,,,,,,,,,,,,,,,,,,,,,,,,,,,,,,,,,,,,,,,,,,,,,,,,,,,,,,,,,,,,,,,,,,,,,,,,,,,,,,,,,,,,,,,,,,,,,,,,,,,,,,,,,,,,,,,,,,,,,,,,,
,,6566ddd02affd70f7f88f805,2024-02-21_21h17.38.211,kallum_motion_pilot,2023.2.2,Win32,5.46149645,6566ddd02affd70f7f88f805,65d6bb0e977760de756971f7,65d6bcac977760de75697224,0.1049,0.1051,0,142,142,31,1,fourthree,,,,,,,,,,,,,,,,,,,,,,,,,,,,,,,,,,,,,,,,,,,,,,,,,,,,,,,,,,,,,,,,,,,,,,,,,,,,,,,,,,,,,,,,,,,,,,,,,,,,,,,,,,,,,,,,,,,,,,,,,,,,,,,,,,,,,,,,,
,,6566ddd02affd70f7f88f805,2024-02-21_21h17.38.211,kallum_motion_pilot,2023.2.2,Win32,5.46149645,6566ddd02affd70f7f88f805,65d6bb0e977760de756971f7,65d6bcac977760de75697224,0.1052,0.1054,0,143,143,72,1,onetwo,,,,,,,,,,,,,,,,,,,,,,,,,,,,,,,,,,,,,,,,,,,,,,,,,,,,,,,,,,,,,,,,,,,,,,,,,,,,,,,,,,,,,,,,,,,,,,,,,,,,,,,,,,,,,,,,,,,,,,,,,,,,,,,,,,,,,,,,,
,,6566ddd02affd70f7f88f805,2024-02-21_21h17.38.211,kallum_motion_pilot,2023.2.2,Win32,5.46149645,6566ddd02affd70f7f88f805,65d6bb0e977760de756971f7,65d6bcac977760de75697224,0.1056,0.1056,0,144,144,2,1,twoone,,,,,,,,,,,,,,,,,,,,,,,,,,,,,,,,,,,,,,,,,,,,,,,,,,,,,,,,,,,,,,,,,,,,,,,,,,,,,,,,,,,,,,,,,,,,,,,,,,,,,,,,,,,,,,,,,,,,,,,,,,,,,,,,,,,,,,,,,
,,6566ddd02affd70f7f88f805,2024-02-21_21h17.38.211,kallum_motion_pilot,2023.2.2,Win32,5.46149645,6566ddd02affd70f7f88f805,65d6bb0e977760de756971f7,65d6bcac977760de75697224,0.1058,0.1059,0,145,145,68,1,threeone,,,,,,,,,,,,,,,,,,,,,,,,,,,,,,,,,,,,,,,,,,,,,,,,,,,,,,,,,,,,,,,,,,,,,,,,,,,,,,,,,,,,,,,,,,,,,,,,,,,,,,,,,,,,,,,,,,,,,,,,,,,,,,,,,,,,,,,,,
,,6566ddd02affd70f7f88f805,2024-02-21_21h17.38.211,kallum_motion_pilot,2023.2.2,Win32,5.46149645,6566ddd02affd70f7f88f805,65d6bb0e977760de756971f7,65d6bcac977760de75697224,0.1061,0.1062,0,146,146,134,1,eightsix,,,,,,,,,,,,,,,,,,,,,,,,,,,,,,,,,,,,,,,,,,,,,,,,,,,,,,,,,,,,,,,,,,,,,,,,,,,,,,,,,,,,,,,,,,,,,,,,,,,,,,,,,,,,,,,,,,,,,,,,,,,,,,,,,,,,,,,,,
,,6566ddd02affd70f7f88f805,2024-02-21_21h17.38.211,kallum_motion_pilot,2023.2.2,Win32,5.46149645,6566ddd02affd70f7f88f805,65d6bb0e977760de756971f7,65d6bcac977760de75697224,0.1064,0.1065,0,147,147,20,1,threeone,,,,,,,,,,,,,,,,,,,,,,,,,,,,,,,,,,,,,,,,,,,,,,,,,,,,,,,,,,,,,,,,,,,,,,,,,,,,,,,,,,,,,,,,,,,,,,,,,,,,,,,,,,,,,,,,,,,,,,,,,,,,,,,,,,,,,,,,,
,,6566ddd02affd70f7f88f805,2024-02-21_21h17.38.211,kallum_motion_pilot,2023.2.2,Win32,5.46149645,6566ddd02affd70f7f88f805,65d6bb0e977760de756971f7,65d6bcac977760de75697224,0.1067,0.1068,0,148,148,48,1,onetwo,,,,,,,,,,,,,,,,,,,,,,,,,,,,,,,,,,,,,,,,,,,,,,,,,,,,,,,,,,,,,,,,,,,,,,,,,,,,,,,,,,,,,,,,,,,,,,,,,,,,,,,,,,,,,,,,,,,,,,,,,,,,,,,,,,,,,,,,,
,,6566ddd02affd70f7f88f805,2024-02-21_21h17.38.211,kallum_motion_pilot,2023.2.2,Win32,5.46149645,6566ddd02affd70f7f88f805,65d6bb0e977760de756971f7,65d6bcac977760de75697224,0.1069,0.107,0,149,149,49,1,onethree,,,,,,,,,,,,,,,,,,,,,,,,,,,,,,,,,,,,,,,,,,,,,,,,,,,,,,,,,,,,,,,,,,,,,,,,,,,,,,,,,,,,,,,,,,,,,,,,,,,,,,,,,,,,,,,,,,,,,,,,,,,,,,,,,,,,,,,,,
,,6566ddd02affd70f7f88f805,2024-02-21_21h17.38.211,kallum_motion_pilot,2023.2.2,Win32,5.46149645,6566ddd02affd70f7f88f805,65d6bb0e977760de756971f7,65d6bcac977760de75697224,0.1072,0.1073,0,150,150,67,1,twofour,,,,,,,,,,,,,,,,,,,,,,,,,,,,,,,,,,,,,,,,,,,,,,,,,,,,,,,,,,,,,,,,,,,,,,,,,,,,,,,,,,,,,,,,,,,,,,,,,,,,,,,,,,,,,,,,,,,,,,,,,,,,,,,,,,,,,,,,,
,,6566ddd02affd70f7f88f805,2024-02-21_21h17.38.211,kallum_motion_pilot,2023.2.2,Win32,5.46149645,6566ddd02affd70f7f88f805,65d6bb0e977760de756971f7,65d6bcac977760de75697224,0.1075,0.1076,0,151,151,23,1,fourthree,,,,,,,,,,,,,,,,,,,,,,,,,,,,,,,,,,,,,,,,,,,,,,,,,,,,,,,,,,,,,,,,,,,,,,,,,,,,,,,,,,,,,,,,,,,,,,,,,,,,,,,,,,,,,,,,,,,,,,,,,,,,,,,,,,,,,,,,,
,,6566ddd02affd70f7f88f805,2024-02-21_21h17.38.211,kallum_motion_pilot,2023.2.2,Win32,5.46149645,6566ddd02affd70f7f88f805,65d6bb0e977760de756971f7,65d6bcac977760de75697224,0.1078,0.1078,0,152,152,127,1,eightseven,,,,,,,,,,,,,,,,,,,,,,,,,,,,,,,,,,,,,,,,,,,,,,,,,,,,,,,,,,,,,,,,,,,,,,,,,,,,,,,,,,,,,,,,,,,,,,,,,,,,,,,,,,,,,,,,,,,,,,,,,,,,,,,,,,,,,,,,,
,,6566ddd02affd70f7f88f805,2024-02-21_21h17.38.211,kallum_motion_pilot,2023.2.2,Win32,5.46149645,6566ddd02affd70f7f88f805,65d6bb0e977760de756971f7,65d6bcac977760de75697224,0.108,0.1082,0,153,153,55,1,fourthree,,,,,,,,,,,,,,,,,,,,,,,,,,,,,,,,,,,,,,,,,,,,,,,,,,,,,,,,,,,,,,,,,,,,,,,,,,,,,,,,,,,,,,,,,,,,,,,,,,,,,,,,,,,,,,,,,,,,,,,,,,,,,,,,,,,,,,,,,
,,6566ddd02affd70f7f88f805,2024-02-21_21h17.38.211,kallum_motion_pilot,2023.2.2,Win32,5.46149645,6566ddd02affd70f7f88f805,65d6bb0e977760de756971f7,65d6bcac977760de75697224,0.1084,0.1085,0,154,154,109,1,seveneight,,,,,,,,,,,,,,,,,,,,,,,,,,,,,,,,,,,,,,,,,,,,,,,,,,,,,,,,,,,,,,,,,,,,,,,,,,,,,,,,,,,,,,,,,,,,,,,,,,,,,,,,,,,,,,,,,,,,,,,,,,,,,,,,,,,,,,,,,
,,6566ddd02affd70f7f88f805,2024-02-21_21h17.38.211,kallum_motion_pilot,2023.2.2,Win32,5.46149645,6566ddd02affd70f7f88f805,65d6bb0e977760de756971f7,65d6bcac977760de75697224,0.1086,0.1088,0,155,155,4,1,threeone,,,,,,,,,,,,,,,,,,,,,,,,,,,,,,,,,,,,,,,,,,,,,,,,,,,,,,,,,,,,,,,,,,,,,,,,,,,,,,,,,,,,,,,,,,,,,,,,,,,,,,,,,,,,,,,,,,,,,,,,,,,,,,,,,,,,,,,,,
,,6566ddd02affd70f7f88f805,2024-02-21_21h17.38.211,kallum_motion_pilot,2023.2.2,Win32,5.46149645,6566ddd02affd70f7f88f805,65d6bb0e977760de756971f7,65d6bcac977760de75697224,0.1089,0.109,0,156,156,52,1,threeone,,,,,,,,,,,,,,,,,,,,,,,,,,,,,,,,,,,,,,,,,,,,,,,,,,,,,,,,,,,,,,,,,,,,,,,,,,,,,,,,,,,,,,,,,,,,,,,,,,,,,,,,,,,,,,,,,,,,,,,,,,,,,,,,,,,,,,,,,
,,6566ddd02affd70f7f88f805,2024-02-21_21h17.38.211,kallum_motion_pilot,2023.2.2,Win32,5.46149645,6566ddd02affd70f7f88f805,65d6bb0e977760de756971f7,65d6bcac977760de75697224,0.1091,0.1093,0,157,157,161,1,fiveseven,,,,,,,,,,,,,,,,,,,,,,,,,,,,,,,,,,,,,,,,,,,,,,,,,,,,,,,,,,,,,,,,,,,,,,,,,,,,,,,,,,,,,,,,,,,,,,,,,,,,,,,,,,,,,,,,,,,,,,,,,,,,,,,,,,,,,,,,,
,,6566ddd02affd70f7f88f805,2024-02-21_21h17.38.211,kallum_motion_pilot,2023.2.2,Win32,5.46149645,6566ddd02affd70f7f88f805,65d6bb0e977760de756971f7,65d6bcac977760de75697224,0.1095,0.1095,0,158,158,57,1,onethree,,,,,,,,,,,,,,,,,,,,,,,,,,,,,,,,,,,,,,,,,,,,,,,,,,,,,,,,,,,,,,,,,,,,,,,,,,,,,,,,,,,,,,,,,,,,,,,,,,,,,,,,,,,,,,,,,,,,,,,,,,,,,,,,,,,,,,,,,
,,6566ddd02affd70f7f88f805,2024-02-21_21h17.38.211,kallum_motion_pilot,2023.2.2,Win32,5.46149645,6566ddd02affd70f7f88f805,65d6bb0e977760de756971f7,65d6bcac977760de75697224,0.1096,0.1099,0,159,159,3,1,twofour,,,,,,,,,,,,,,,,,,,,,,,,,,,,,,,,,,,,,,,,,,,,,,,,,,,,,,,,,,,,,,,,,,,,,,,,,,,,,,,,,,,,,,,,,,,,,,,,,,,,,,,,,,,,,,,,,,,,,,,,,,,,,,,,,,,,,,,,,
,,6566ddd02affd70f7f88f805,2024-02-21_21h17.38.211,kallum_motion_pilot,2023.2.2,Win32,5.46149645,6566ddd02affd70f7f88f805,65d6bb0e977760de756971f7,65d6bcac977760de75697224,0.11,0.1101,0,160,160,39,1,fourthree,,,,,,,,,,,,,,,,,,,,,,,,,,,,,,,,,,,,,,,,,,,,,,,,,,,,,,,,,,,,,,,,,,,,,,,,,,,,,,,,,,,,,,,,,,,,,,,,,,,,,,,,,,,,,,,,,,,,,,,,,,,,,,,,,,,,,,,,,
,,6566ddd02affd70f7f88f805,2024-02-21_21h17.38.211,kallum_motion_pilot,2023.2.2,Win32,5.46149645,6566ddd02affd70f7f88f805,65d6bb0e977760de756971f7,65d6bcac977760de75697224,0.1103,0.1105,0,161,161,154,1,sixfive,,,,,,,,,,,,,,,,,,,,,,,,,,,,,,,,,,,,,,,,,,,,,,,,,,,,,,,,,,,,,,,,,,,,,,,,,,,,,,,,,,,,,,,,,,,,,,,,,,,,,,,,,,,,,,,,,,,,,,,,,,,,,,,,,,,,,,,,,
,,6566ddd02affd70f7f88f805,2024-02-21_21h17.38.211,kallum_motion_pilot,2023.2.2,Win32,5.46149645,6566ddd02affd70f7f88f805,65d6bb0e977760de756971f7,65d6bcac977760de75697224,0.1107,0.1119,1,0,162,131,1,sixeight,,,,,,,,,,,,,,,,,,,,,,,,,,,,,,,,,,,,,,,,,,,,,,,,,,,,,,,,,,,,,,,,,,,,,,,,,,,,,,,,,,,,,,,,,,,,,,,,,,,,,,,,,,,,,,,,,,,,,,,,,,,,,,,,,,,,,,,,,
,,6566ddd02affd70f7f88f805,2024-02-21_21h17.38.211,kallum_motion_pilot,2023.2.2,Win32,5.46149645,6566ddd02affd70f7f88f805,65d6bb0e977760de756971f7,65d6bcac977760de75697224,0.1133,0.1145,1,1,163,130,1,sixfive,,,,,,,,,,,,,,,,,,,,,,,,,,,,,,,,,,,,,,,,,,,,,,,,,,,,,,,,,,,,,,,,,,,,,,,,,,,,,,,,,,,,,,,,,,,,,,,,,,,,,,,,,,,,,,,,,,,,,,,,,,,,,,,,,,,,,,,,,
,,6566ddd02affd70f7f88f805,2024-02-21_21h17.38.211,kallum_motion_pilot,2023.2.2,Win32,5.46149645,6566ddd02affd70f7f88f805,65d6bb0e977760de756971f7,65d6bcac977760de75697224,0.1154,0.1156,1,2,164,75,1,twofour,,,,,,,,,,,,,,,,,,,,,,,,,,,,,,,,,,,,,,,,,,,,,,,,,,,,,,,,,,,,,,,,,,,,,,,,,,,,,,,,,,,,,,,,,,,,,,,,,,,,,,,,,,,,,,,,,,,,,,,,,,,,,,,,,,,,,,,,,
,,6566ddd02affd70f7f88f805,2024-02-21_21h17.38.211,kallum_motion_pilot,2023.2.2,Win32,5.46149645,6566ddd02affd70f7f88f805,65d6bb0e977760de756971f7,65d6bcac977760de75697224,0.1158,0.116,1,3,165,14,1,fourtwo,,,,,,,,,,,,,,,,,,,,,,,,,,,,,,,,,,,,,,,,,,,,,,,,,,,,,,,,,,,,,,,,,,,,,,,,,,,,,,,,,,,,,,,,,,,,,,,,,,,,,,,,,,,,,,,,,,,,,,,,,,,,,,,,,,,,,,,,,
,,6566ddd02affd70f7f88f805,2024-02-21_21h17.38.211,kallum_motion_pilot,2023.2.2,Win32,5.46149645,6566ddd02affd70f7f88f805,65d6bb0e977760de756971f7,65d6bcac977760de75697224,0.1162,0.1164,1,4,166,8,1,onetwo,,,,,,,,,,,,,,,,,,,,,,,,,,,,,,,,,,,,,,,,,,,,,,,,,,,,,,,,,,,,,,,,,,,,,,,,,,,,,,,,,,,,,,,,,,,,,,,,,,,,,,,,,,,,,,,,,,,,,,,,,,,,,,,,,,,,,,,,,
,,6566ddd02affd70f7f88f805,2024-02-21_21h17.38.211,kallum_motion_pilot,2023.2.2,Win32,5.46149645,6566ddd02affd70f7f88f805,65d6bb0e977760de756971f7,65d6bcac977760de75697224,0.1177,0.1178,1,5,167,94,1,eightsix,,,,,,,,,,,,,,,,,,,,,,,,,,,,,,,,,,,,,,,,,,,,,,,,,,,,,,,,,,,,,,,,,,,,,,,,,,,,,,,,,,,,,,,,,,,,,,,,,,,,,,,,,,,,,,,,,,,,,,,,,,,,,,,,,,,,,,,,,
,,6566ddd02affd70f7f88f805,2024-02-21_21h17.38.211,kallum_motion_pilot,2023.2.2,Win32,5.46149645,6566ddd02affd70f7f88f805,65d6bb0e977760de756971f7,65d6bcac977760de75697224,0.118,0.1181,1,6,168,152,1,fivesix,,,,,,,,,,,,,,,,,,,,,,,,,,,,,,,,,,,,,,,,,,,,,,,,,,,,,,,,,,,,,,,,,,,,,,,,,,,,,,,,,,,,,,,,,,,,,,,,,,,,,,,,,,,,,,,,,,,,,,,,,,,,,,,,,,,,,,,,,
,,6566ddd02affd70f7f88f805,2024-02-21_21h17.38.211,kallum_motion_pilot,2023.2.2,Win32,5.46149645,6566ddd02affd70f7f88f805,65d6bb0e977760de756971f7,65d6bcac977760de75697224,0.1183,0.1185,1,7,169,110,1,eightsix,,,,,,,,,,,,,,,,,,,,,,,,,,,,,,,,,,,,,,,,,,,,,,,,,,,,,,,,,,,,,,,,,,,,,,,,,,,,,,,,,,,,,,,,,,,,,,,,,,,,,,,,,,,,,,,,,,,,,,,,,,,,,,,,,,,,,,,,,
,,6566ddd02affd70f7f88f805,2024-02-21_21h17.38.211,kallum_motion_pilot,2023.2.2,Win32,5.46149645,6566ddd02affd70f7f88f805,65d6bb0e977760de756971f7,65d6bcac977760de75697224,0.1186,0.1188,1,8,170,13,1,threefour,,,,,,,,,,,,,,,,,,,,,,,,,,,,,,,,,,,,,,,,,,,,,,,,,,,,,,,,,,,,,,,,,,,,,,,,,,,,,,,,,,,,,,,,,,,,,,,,,,,,,,,,,,,,,,,,,,,,,,,,,,,,,,,,,,,,,,,,,
,,6566ddd02affd70f7f88f805,2024-02-21_21h17.38.211,kallum_motion_pilot,2023.2.2,Win32,5.46149645,6566ddd02affd70f7f88f805,65d6bb0e977760de756971f7,65d6bcac977760de75697224,0.119,0.1191,1,9,171,23,1,fourthree,,,,,,,,,,,,,,,,,,,,,,,,,,,,,,,,,,,,,,,,,,,,,,,,,,,,,,,,,,,,,,,,,,,,,,,,,,,,,,,,,,,,,,,,,,,,,,,,,,,,,,,,,,,,,,,,,,,,,,,,,,,,,,,,,,,,,,,,,
,,6566ddd02affd70f7f88f805,2024-02-21_21h17.38.211,kallum_motion_pilot,2023.2.2,Win32,5.46149645,6566ddd02affd70f7f88f805,65d6bb0e977760de756971f7,65d6bcac977760de75697224,0.1192,0.1194,1,10,172,149,1,seveneight,,,,,,,,,,,,,,,,,,,,,,,,,,,,,,,,,,,,,,,,,,,,,,,,,,,,,,,,,,,,,,,,,,,,,,,,,,,,,,,,,,,,,,,,,,,,,,,,,,,,,,,,,,,,,,,,,,,,,,,,,,,,,,,,,,,,,,,,,
,,6566ddd02affd70f7f88f805,2024-02-21_21h17.38.211,kallum_motion_pilot,2023.2.2,Win32,5.46149645,6566ddd02affd70f7f88f805,65d6bb0e977760de756971f7,65d6bcac977760de75697224,0.1195,0.1196,1,11,173,83,1,sixeight,,,,,,,,,,,,,,,,,,,,,,,,,,,,,,,,,,,,,,,,,,,,,,,,,,,,,,,,,,,,,,,,,,,,,,,,,,,,,,,,,,,,,,,,,,,,,,,,,,,,,,,,,,,,,,,,,,,,,,,,,,,,,,,,,,,,,,,,,
,,6566ddd02affd70f7f88f805,2024-02-21_21h17.38.211,kallum_motion_pilot,2023.2.2,Win32,5.46149645,6566ddd02affd70f7f88f805,65d6bb0e977760de756971f7,65d6bcac977760de75697224,0.1199,0.12,1,12,174,101,1,seveneight,,,,,,,,,,,,,,,,,,,,,,,,,,,,,,,,,,,,,,,,,,,,,,,,,,,,,,,,,,,,,,,,,,,,,,,,,,,,,,,,,,,,,,,,,,,,,,,,,,,,,,,,,,,,,,,,,,,,,,,,,,,,,,,,,,,,,,,,,
,,6566ddd02affd70f7f88f805,2024-02-21_21h17.38.211,kallum_motion_pilot,2023.2.2,Win32,5.46149645,6566ddd02affd70f7f88f805,65d6bb0e977760de756971f7,65d6bcac977760de75697224,0.1201,0.1202,1,13,175,107,1,sixeight,,,,,,,,,,,,,,,,,,,,,,,,,,,,,,,,,,,,,,,,,,,,,,,,,,,,,,,,,,,,,,,,,,,,,,,,,,,,,,,,,,,,,,,,,,,,,,,,,,,,,,,,,,,,,,,,,,,,,,,,,,,,,,,,,,,,,,,,,
,,6566ddd02affd70f7f88f805,2024-02-21_21h17.38.211,kallum_motion_pilot,2023.2.2,Win32,5.46149645,6566ddd02affd70f7f88f805,65d6bb0e977760de756971f7,65d6bcac977760de75697224,0.1204,0.1205,1,14,176,139,1,sixeight,,,,,,,,,,,,,,,,,,,,,,,,,,,,,,,,,,,,,,,,,,,,,,,,,,,,,,,,,,,,,,,,,,,,,,,,,,,,,,,,,,,,,,,,,,,,,,,,,,,,,,,,,,,,,,,,,,,,,,,,,,,,,,,,,,,,,,,,,
,,6566ddd02affd70f7f88f805,2024-02-21_21h17.38.211,kallum_motion_pilot,2023.2.2,Win32,5.46149645,6566ddd02affd70f7f88f805,65d6bb0e977760de756971f7,65d6bcac977760de75697224,0.1206,0.1208,1,15,177,144,1,fivesix,,,,,,,,,,,,,,,,,,,,,,,,,,,,,,,,,,,,,,,,,,,,,,,,,,,,,,,,,,,,,,,,,,,,,,,,,,,,,,,,,,,,,,,,,,,,,,,,,,,,,,,,,,,,,,,,,,,,,,,,,,,,,,,,,,,,,,,,,
,,6566ddd02affd70f7f88f805,2024-02-21_21h17.38.211,kallum_motion_pilot,2023.2.2,Win32,5.46149645,6566ddd02affd70f7f88f805,65d6bb0e977760de756971f7,65d6bcac977760de75697224,0.1209,0.121,1,16,178,35,1,twofour,,,,,,,,,,,,,,,,,,,,,,,,,,,,,,,,,,,,,,,,,,,,,,,,,,,,,,,,,,,,,,,,,,,,,,,,,,,,,,,,,,,,,,,,,,,,,,,,,,,,,,,,,,,,,,,,,,,,,,,,,,,,,,,,,,,,,,,,,
,,6566ddd02affd70f7f88f805,2024-02-21_21h17.38.211,kallum_motion_pilot,2023.2.2,Win32,5.46149645,6566ddd02affd70f7f88f805,65d6bb0e977760de756971f7,65d6bcac977760de75697224,0.1213,0.1214,1,17,179,37,1,threefour,,,,,,,,,,,,,,,,,,,,,,,,,,,,,,,,,,,,,,,,,,,,,,,,,,,,,,,,,,,,,,,,,,,,,,,,,,,,,,,,,,,,,,,,,,,,,,,,,,,,,,,,,,,,,,,,,,,,,,,,,,,,,,,,,,,,,,,,,
,,6566ddd02affd70f7f88f805,2024-02-21_21h17.38.211,kallum_motion_pilot,2023.2.2,Win32,5.46149645,6566ddd02affd70f7f88f805,65d6bb0e977760de756971f7,65d6bcac977760de75697224,0.1216,0.1218,1,18,180,90,1,sixfive,,,,,,,,,,,,,,,,,,,,,,,,,,,,,,,,,,,,,,,,,,,,,,,,,,,,,,,,,,,,,,,,,,,,,,,,,,,,,,,,,,,,,,,,,,,,,,,,,,,,,,,,,,,,,,,,,,,,,,,,,,,,,,,,,,,,,,,,,
,,6566ddd02affd70f7f88f805,2024-02-21_21h17.38.211,kallum_motion_pilot,2023.2.2,Win32,5.46149645,6566ddd02affd70f7f88f805,65d6bb0e977760de756971f7,65d6bcac977760de75697224,0.122,0.1221,1,19,181,15,1,fourthree,,,,,,,,,,,,,,,,,,,,,,,,,,,,,,,,,,,,,,,,,,,,,,,,,,,,,,,,,,,,,,,,,,,,,,,,,,,,,,,,,,,,,,,,,,,,,,,,,,,,,,,,,,,,,,,,,,,,,,,,,,,,,,,,,,,,,,,,,
,,6566ddd02affd70f7f88f805,2024-02-21_21h17.38.211,kallum_motion_pilot,2023.2.2,Win32,5.46149645,6566ddd02affd70f7f88f805,65d6bb0e977760de756971f7,65d6bcac977760de75697224,0.1222,0.1224,1,20,182,142,1,eightsix,,,,,,,,,,,,,,,,,,,,,,,,,,,,,,,,,,,,,,,,,,,,,,,,,,,,,,,,,,,,,,,,,,,,,,,,,,,,,,,,,,,,,,,,,,,,,,,,,,,,,,,,,,,,,,,,,,,,,,,,,,,,,,,,,,,,,,,,,
,,6566ddd02affd70f7f88f805,2024-02-21_21h17.38.211,kallum_motion_pilot,2023.2.2,Win32,5.46149645,6566ddd02affd70f7f88f805,65d6bb0e977760de756971f7,65d6bcac977760de75697224,0.1226,0.1228,1,21,183,28,1,threeone,,,,,,,,,,,,,,,,,,,,,,,,,,,,,,,,,,,,,,,,,,,,,,,,,,,,,,,,,,,,,,,,,,,,,,,,,,,,,,,,,,,,,,,,,,,,,,,,,,,,,,,,,,,,,,,,,,,,,,,,,,,,,,,,,,,,,,,,,
,,6566ddd02affd70f7f88f805,2024-02-21_21h17.38.211,kallum_motion_pilot,2023.2.2,Win32,5.46149645,6566ddd02affd70f7f88f805,65d6bb0e977760de756971f7,65d6bcac977760de75697224,0.1229,0.1231,1,22,184,116,1,sevenfive,,,,,,,,,,,,,,,,,,,,,,,,,,,,,,,,,,,,,,,,,,,,,,,,,,,,,,,,,,,,,,,,,,,,,,,,,,,,,,,,,,,,,,,,,,,,,,,,,,,,,,,,,,,,,,,,,,,,,,,,,,,,,,,,,,,,,,,,,
,,6566ddd02affd70f7f88f805,2024-02-21_21h17.38.211,kallum_motion_pilot,2023.2.2,Win32,5.46149645,6566ddd02affd70f7f88f805,65d6bb0e977760de756971f7,65d6bcac977760de75697224,0.1232,0.1234,1,23,185,103,1,eightseven,,,,,,,,,,,,,,,,,,,,,,,,,,,,,,,,,,,,,,,,,,,,,,,,,,,,,,,,,,,,,,,,,,,,,,,,,,,,,,,,,,,,,,,,,,,,,,,,,,,,,,,,,,,,,,,,,,,,,,,,,,,,,,,,,,,,,,,,,
,,6566ddd02affd70f7f88f805,2024-02-21_21h17.38.211,kallum_motion_pilot,2023.2.2,Win32,5.46149645,6566ddd02affd70f7f88f805,65d6bb0e977760de756971f7,65d6bcac977760de75697224,0.1236,0.1238,1,24,186,146,1,sixfive,,,,,,,,,,,,,,,,,,,,,,,,,,,,,,,,,,,,,,,,,,,,,,,,,,,,,,,,,,,,,,,,,,,,,,,,,,,,,,,,,,,,,,,,,,,,,,,,,,,,,,,,,,,,,,,,,,,,,,,,,,,,,,,,,,,,,,,,,
,,6566ddd02affd70f7f88f805,2024-02-21_21h17.38.211,kallum_motion_pilot,2023.2.2,Win32,5.46149645,6566ddd02affd70f7f88f805,65d6bb0e977760de756971f7,65d6bcac977760de75697224,0.124,0.1243,1,25,187,125,1,seveneight,,,,,,,,,,,,,,,,,,,,,,,,,,,,,,,,,,,,,,,,,,,,,,,,,,,,,,,,,,,,,,,,,,,,,,,,,,,,,,,,,,,,,,,,,,,,,,,,,,,,,,,,,,,,,,,,,,,,,,,,,,,,,,,,,,,,,,,,,
,,6566ddd02affd70f7f88f805,2024-02-21_21h17.38.211,kallum_motion_pilot,2023.2.2,Win32,5.46149645,6566ddd02affd70f7f88f805,65d6bb0e977760de756971f7,65d6bcac977760de75697224,0.1245,0.1247,1,26,188,65,1,onethree,,,,,,,,,,,,,,,,,,,,,,,,,,,,,,,,,,,,,,,,,,,,,,,,,,,,,,,,,,,,,,,,,,,,,,,,,,,,,,,,,,,,,,,,,,,,,,,,,,,,,,,,,,,,,,,,,,,,,,,,,,,,,,,,,,,,,,,,,
,,6566ddd02affd70f7f88f805,2024-02-21_21h17.38.211,kallum_motion_pilot,2023.2.2,Win32,5.46149645,6566ddd02affd70f7f88f805,65d6bb0e977760de756971f7,65d6bcac977760de75697224,0.1248,0.1249,1,27,189,50,1,twoone,,,,,,,,,,,,,,,,,,,,,,,,,,,,,,,,,,,,,,,,,,,,,,,,,,,,,,,,,,,,,,,,,,,,,,,,,,,,,,,,,,,,,,,,,,,,,,,,,,,,,,,,,,,,,,,,,,,,,,,,,,,,,,,,,,,,,,,,,
,,6566ddd02affd70f7f88f805,2024-02-21_21h17.38.211,kallum_motion_pilot,2023.2.2,Win32,5.46149645,6566ddd02affd70f7f88f805,65d6bb0e977760de756971f7,65d6bcac977760de75697224,0.1251,0.1252,1,28,190,69,1,threefour,,,,,,,,,,,,,,,,,,,,,,,,,,,,,,,,,,,,,,,,,,,,,,,,,,,,,,,,,,,,,,,,,,,,,,,,,,,,,,,,,,,,,,,,,,,,,,,,,,,,,,,,,,,,,,,,,,,,,,,,,,,,,,,,,,,,,,,,,
,,6566ddd02affd70f7f88f805,2024-02-21_21h17.38.211,kallum_motion_pilot,2023.2.2,Win32,5.46149645,6566ddd02affd70f7f88f805,65d6bb0e977760de756971f7,65d6bcac977760de75697224,0.1253,0.1254,1,29,191,78,1,fourtwo,,,,,,,,,,,,,,,,,,,,,,,,,,,,,,,,,,,,,,,,,,,,,,,,,,,,,,,,,,,,,,,,,,,,,,,,,,,,,,,,,,,,,,,,,,,,,,,,,,,,,,,,,,,,,,,,,,,,,,,,,,,,,,,,,,,,,,,,,
,,6566ddd02affd70f7f88f805,2024-02-21_21h17.38.211,kallum_motion_pilot,2023.2.2,Win32,5.46149645,6566ddd02affd70f7f88f805,65d6bb0e977760de756971f7,65d6bcac977760de75697224,0.1256,0.1258,1,30,192,2,1,twoone,,,,,,,,,,,,,,,,,,,,,,,,,,,,,,,,,,,,,,,,,,,,,,,,,,,,,,,,,,,,,,,,,,,,,,,,,,,,,,,,,,,,,,,,,,,,,,,,,,,,,,,,,,,,,,,,,,,,,,,,,,,,,,,,,,,,,,,,,
,,6566ddd02affd70f7f88f805,2024-02-21_21h17.38.211,kallum_motion_pilot,2023.2.2,Win32,5.46149645,6566ddd02affd70f7f88f805,65d6bb0e977760de756971f7,65d6bcac977760de75697224,0.1259,0.1261,1,31,193,135,1,eightseven,,,,,,,,,,,,,,,,,,,,,,,,,,,,,,,,,,,,,,,,,,,,,,,,,,,,,,,,,,,,,,,,,,,,,,,,,,,,,,,,,,,,,,,,,,,,,,,,,,,,,,,,,,,,,,,,,,,,,,,,,,,,,,,,,,,,,,,,,
,,6566ddd02affd70f7f88f805,2024-02-21_21h17.38.211,kallum_motion_pilot,2023.2.2,Win32,5.46149645,6566ddd02affd70f7f88f805,65d6bb0e977760de756971f7,65d6bcac977760de75697224,0.1262,0.1263,1,32,194,157,1,seveneight,,,,,,,,,,,,,,,,,,,,,,,,,,,,,,,,,,,,,,,,,,,,,,,,,,,,,,,,,,,,,,,,,,,,,,,,,,,,,,,,,,,,,,,,,,,,,,,,,,,,,,,,,,,,,,,,,,,,,,,,,,,,,,,,,,,,,,,,,
,,6566ddd02affd70f7f88f805,2024-02-21_21h17.38.211,kallum_motion_pilot,2023.2.2,Win32,5.46149645,6566ddd02affd70f7f88f805,65d6bb0e977760de756971f7,65d6bcac977760de75697224,0.1265,0.1267,1,33,195,61,1,threefour,,,,,,,,,,,,,,,,,,,,,,,,,,,,,,,,,,,,,,,,,,,,,,,,,,,,,,,,,,,,,,,,,,,,,,,,,,,,,,,,,,,,,,,,,,,,,,,,,,,,,,,,,,,,,,,,,,,,,,,,,,,,,,,,,,,,,,,,,
,,6566ddd02affd70f7f88f805,2024-02-21_21h17.38.211,kallum_motion_pilot,2023.2.2,Win32,5.46149645,6566ddd02affd70f7f88f805,65d6bb0e977760de756971f7,65d6bcac977760de75697224,0.1268,0.1269,1,34,196,74,1,twoone,,,,,,,,,,,,,,,,,,,,,,,,,,,,,,,,,,,,,,,,,,,,,,,,,,,,,,,,,,,,,,,,,,,,,,,,,,,,,,,,,,,,,,,,,,,,,,,,,,,,,,,,,,,,,,,,,,,,,,,,,,,,,,,,,,,,,,,,,
,,6566ddd02affd70f7f88f805,2024-02-21_21h17.38.211,kallum_motion_pilot,2023.2.2,Win32,5.46149645,6566ddd02affd70f7f88f805,65d6bb0e977760de756971f7,65d6bcac977760de75697224,0.1272,0.1273,1,35,197,73,1,onethree,,,,,,,,,,,,,,,,,,,,,,,,,,,,,,,,,,,,,,,,,,,,,,,,,,,,,,,,,,,,,,,,,,,,,,,,,,,,,,,,,,,,,,,,,,,,,,,,,,,,,,,,,,,,,,,,,,,,,,,,,,,,,,,,,,,,,,,,,
,,6566ddd02affd70f7f88f805,2024-02-21_21h17.38.211,kallum_motion_pilot,2023.2.2,Win32,5.46149645,6566ddd02affd70f7f88f805,65d6bb0e977760de756971f7,65d6bcac977760de75697224,0.1274,0.1276,1,36,198,111,1,eightseven,,,,,,,,,,,,,,,,,,,,,,,,,,,,,,,,,,,,,,,,,,,,,,,,,,,,,,,,,,,,,,,,,,,,,,,,,,,,,,,,,,,,,,,,,,,,,,,,,,,,,,,,,,,,,,,,,,,,,,,,,,,,,,,,,,,,,,,,,
,,6566ddd02affd70f7f88f805,2024-02-21_21h17.38.211,kallum_motion_pilot,2023.2.2,Win32,5.46149645,6566ddd02affd70f7f88f805,65d6bb0e977760de756971f7,65d6bcac977760de75697224,0.1279,0.128,1,37,199,29,1,threefour,,,,,,,,,,,,,,,,,,,,,,,,,,,,,,,,,,,,,,,,,,,,,,,,,,,,,,,,,,,,,,,,,,,,,,,,,,,,,,,,,,,,,,,,,,,,,,,,,,,,,,,,,,,,,,,,,,,,,,,,,,,,,,,,,,,,,,,,,
,,6566ddd02affd70f7f88f805,2024-02-21_21h17.38.211,kallum_motion_pilot,2023.2.2,Win32,5.46149645,6566ddd02affd70f7f88f805,65d6bb0e977760de756971f7,65d6bcac977760de75697224,0.1283,0.1284,1,38,200,82,1,sixfive,,,,,,,,,,,,,,,,,,,,,,,,,,,,,,,,,,,,,,,,,,,,,,,,,,,,,,,,,,,,,,,,,,,,,,,,,,,,,,,,,,,,,,,,,,,,,,,,,,,,,,,,,,,,,,,,,,,,,,,,,,,,,,,,,,,,,,,,,
,,6566ddd02affd70f7f88f805,2024-02-21_21h17.38.211,kallum_motion_pilot,2023.2.2,Win32,5.46149645,6566ddd02affd70f7f88f805,65d6bb0e977760de756971f7,65d6bcac977760de75697224,0.1285,0.1287,1,39,201,136,1,fivesix,,,,,,,,,,,,,,,,,,,,,,,,,,,,,,,,,,,,,,,,,,,,,,,,,,,,,,,,,,,,,,,,,,,,,,,,,,,,,,,,,,,,,,,,,,,,,,,,,,,,,,,,,,,,,,,,,,,,,,,,,,,,,,,,,,,,,,,,,
,,6566ddd02affd70f7f88f805,2024-02-21_21h17.38.211,kallum_motion_pilot,2023.2.2,Win32,5.46149645,6566ddd02affd70f7f88f805,65d6bb0e977760de756971f7,65d6bcac977760de75697224,0.1288,0.129,1,40,202,52,1,threeone,,,,,,,,,,,,,,,,,,,,,,,,,,,,,,,,,,,,,,,,,,,,,,,,,,,,,,,,,,,,,,,,,,,,,,,,,,,,,,,,,,,,,,,,,,,,,,,,,,,,,,,,,,,,,,,,,,,,,,,,,,,,,,,,,,,,,,,,,
,,6566ddd02affd70f7f88f805,2024-02-21_21h17.38.211,kallum_motion_pilot,2023.2.2,Win32,5.46149645,6566ddd02affd70f7f88f805,65d6bb0e977760de756971f7,65d6bcac977760de75697224,0.1291,0.1294,1,41,203,36,1,threeone,,,,,,,,,,,,,,,,,,,,,,,,,,,,,,,,,,,,,,,,,,,,,,,,,,,,,,,,,,,,,,,,,,,,,,,,,,,,,,,,,,,,,,,,,,,,,,,,,,,,,,,,,,,,,,,,,,,,,,,,,,,,,,,,,,,,,,,,,
,,6566ddd02affd70f7f88f805,2024-02-21_21h17.38.211,kallum_motion_pilot,2023.2.2,Win32,5.46149645,6566ddd02affd70f7f88f805,65d6bb0e977760de756971f7,65d6bcac977760de75697224,0.1295,0.1297,1,42,204,122,1,sixfive,,,,,,,,,,,,,,,,,,,,,,,,,,,,,,,,,,,,,,,,,,,,,,,,,,,,,,,,,,,,,,,,,,,,,,,,,,,,,,,,,,,,,,,,,,,,,,,,,,,,,,,,,,,,,,,,,,,,,,,,,,,,,,,,,,,,,,,,,
,,6566ddd02affd70f7f88f805,2024-02-21_21h17.38.211,kallum_motion_pilot,2023.2.2,Win32,5.46149645,6566ddd02affd70f7f88f805,65d6bb0e977760de756971f7,65d6bcac977760de75697224,0.1297,0.1299,1,43,205,97,1,fiveseven,,,,,,,,,,,,,,,,,,,,,,,,,,,,,,,,,,,,,,,,,,,,,,,,,,,,,,,,,,,,,,,,,,,,,,,,,,,,,,,,,,,,,,,,,,,,,,,,,,,,,,,,,,,,,,,,,,,,,,,,,,,,,,,,,,,,,,,,,
,,6566ddd02affd70f7f88f805,2024-02-21_21h17.38.211,kallum_motion_pilot,2023.2.2,Win32,5.46149645,6566ddd02affd70f7f88f805,65d6bb0e977760de756971f7,65d6bcac977760de75697224,0.1301,0.1302,1,44,206,62,1,fourtwo,,,,,,,,,,,,,,,,,,,,,,,,,,,,,,,,,,,,,,,,,,,,,,,,,,,,,,,,,,,,,,,,,,,,,,,,,,,,,,,,,,,,,,,,,,,,,,,,,,,,,,,,,,,,,,,,,,,,,,,,,,,,,,,,,,,,,,,,,
,,6566ddd02affd70f7f88f805,2024-02-21_21h17.38.211,kallum_motion_pilot,2023.2.2,Win32,5.46149645,6566ddd02affd70f7f88f805,65d6bb0e977760de756971f7,65d6bcac977760de75697224,0.1304,0.1306,1,45,207,96,1,fivesix,,,,,,,,,,,,,,,,,,,,,,,,,,,,,,,,,,,,,,,,,,,,,,,,,,,,,,,,,,,,,,,,,,,,,,,,,,,,,,,,,,,,,,,,,,,,,,,,,,,,,,,,,,,,,,,,,,,,,,,,,,,,,,,,,,,,,,,,,
,,6566ddd02affd70f7f88f805,2024-02-21_21h17.38.211,kallum_motion_pilot,2023.2.2,Win32,5.46149645,6566ddd02affd70f7f88f805,65d6bb0e977760de756971f7,65d6bcac977760de75697224,0.1307,0.1309,1,46,208,86,1,eightsix,,,,,,,,,,,,,,,,,,,,,,,,,,,,,,,,,,,,,,,,,,,,,,,,,,,,,,,,,,,,,,,,,,,,,,,,,,,,,,,,,,,,,,,,,,,,,,,,,,,,,,,,,,,,,,,,,,,,,,,,,,,,,,,,,,,,,,,,,
,,6566ddd02affd70f7f88f805,2024-02-21_21h17.38.211,kallum_motion_pilot,2023.2.2,Win32,5.46149645,6566ddd02affd70f7f88f805,65d6bb0e977760de756971f7,65d6bcac977760de75697224,0.131,0.131,1,47,209,66,1,twoone,,,,,,,,,,,,,,,,,,,,,,,,,,,,,,,,,,,,,,,,,,,,,,,,,,,,,,,,,,,,,,,,,,,,,,,,,,,,,,,,,,,,,,,,,,,,,,,,,,,,,,,,,,,,,,,,,,,,,,,,,,,,,,,,,,,,,,,,,
,,6566ddd02affd70f7f88f805,2024-02-21_21h17.38.211,kallum_motion_pilot,2023.2.2,Win32,5.46149645,6566ddd02affd70f7f88f805,65d6bb0e977760de756971f7,65d6bcac977760de75697224,0.1317,0.1319,1,48,210,33,1,onethree,,,,,,,,,,,,,,,,,,,,,,,,,,,,,,,,,,,,,,,,,,,,,,,,,,,,,,,,,,,,,,,,,,,,,,,,,,,,,,,,,,,,,,,,,,,,,,,,,,,,,,,,,,,,,,,,,,,,,,,,,,,,,,,,,,,,,,,,,
,,6566ddd02affd70f7f88f805,2024-02-21_21h17.38.211,kallum_motion_pilot,2023.2.2,Win32,5.46149645,6566ddd02affd70f7f88f805,65d6bb0e977760de756971f7,65d6bcac977760de75697224,0.1324,0.1328,1,49,211,17,1,onethree,,,,,,,,,,,,,,,,,,,,,,,,,,,,,,,,,,,,,,,,,,,,,,,,,,,,,,,,,,,,,,,,,,,,,,,,,,,,,,,,,,,,,,,,,,,,,,,,,,,,,,,,,,,,,,,,,,,,,,,,,,,,,,,,,,,,,,,,,
,,6566ddd02affd70f7f88f805,2024-02-21_21h17.38.211,kallum_motion_pilot,2023.2.2,Win32,5.46149645,6566ddd02affd70f7f88f805,65d6bb0e977760de756971f7,65d6bcac977760de75697224,0.133,0.1331,1,50,212,140,1,sevenfive,,,,,,,,,,,,,,,,,,,,,,,,,,,,,,,,,,,,,,,,,,,,,,,,,,,,,,,,,,,,,,,,,,,,,,,,,,,,,,,,,,,,,,,,,,,,,,,,,,,,,,,,,,,,,,,,,,,,,,,,,,,,,,,,,,,,,,,,,
,,6566ddd02affd70f7f88f805,2024-02-21_21h17.38.211,kallum_motion_pilot,2023.2.2,Win32,5.46149645,6566ddd02affd70f7f88f805,65d6bb0e977760de756971f7,65d6bcac977760de75697224,0.1334,0.1335,1,51,213,4,1,threeone,,,,,,,,,,,,,,,,,,,,,,,,,,,,,,,,,,,,,,,,,,,,,,,,,,,,,,,,,,,,,,,,,,,,,,,,,,,,,,,,,,,,,,,,,,,,,,,,,,,,,,,,,,,,,,,,,,,,,,,,,,,,,,,,,,,,,,,,,
,,6566ddd02affd70f7f88f805,2024-02-21_21h17.38.211,kallum_motion_pilot,2023.2.2,Win32,5.46149645,6566ddd02affd70f7f88f805,65d6bb0e977760de756971f7,65d6bcac977760de75697224,0.1337,0.1339,1,52,214,118,1,eightsix,,,,,,,,,,,,,,,,,,,,,,,,,,,,,,,,,,,,,,,,,,,,,,,,,,,,,,,,,,,,,,,,,,,,,,,,,,,,,,,,,,,,,,,,,,,,,,,,,,,,,,,,,,,,,,,,,,,,,,,,,,,,,,,,,,,,,,,,,
,,6566ddd02affd70f7f88f805,2024-02-21_21h17.38.211,kallum_motion_pilot,2023.2.2,Win32,5.46149645,6566ddd02affd70f7f88f805,65d6bb0e977760de756971f7,65d6bcac977760de75697224,0.1341,0.1343,1,53,215,20,1,threeone,,,,,,,,,,,,,,,,,,,,,,,,,,,,,,,,,,,,,,,,,,,,,,,,,,,,,,,,,,,,,,,,,,,,,,,,,,,,,,,,,,,,,,,,,,,,,,,,,,,,,,,,,,,,,,,,,,,,,,,,,,,,,,,,,,,,,,,,,
,,6566ddd02affd70f7f88f805,2024-02-21_21h17.38.211,kallum_motion_pilot,2023.2.2,Win32,5.46149645,6566ddd02affd70f7f88f805,65d6bb0e977760de756971f7,65d6bcac977760de75697224,0.1345,0.1346,1,54,216,160,1,fivesix,,,,,,,,,,,,,,,,,,,,,,,,,,,,,,,,,,,,,,,,,,,,,,,,,,,,,,,,,,,,,,,,,,,,,,,,,,,,,,,,,,,,,,,,,,,,,,,,,,,,,,,,,,,,,,,,,,,,,,,,,,,,,,,,,,,,,,,,,
,,6566ddd02affd70f7f88f805,2024-02-21_21h17.38.211,kallum_motion_pilot,2023.2.2,Win32,5.46149645,6566ddd02affd70f7f88f805,65d6bb0e977760de756971f7,65d6bcac977760de75697224,0.1348,0.135,1,55,217,100,1,sevenfive,,,,,,,,,,,,,,,,,,,,,,,,,,,,,,,,,,,,,,,,,,,,,,,,,,,,,,,,,,,,,,,,,,,,,,,,,,,,,,,,,,,,,,,,,,,,,,,,,,,,,,,,,,,,,,,,,,,,,,,,,,,,,,,,,,,,,,,,,
,,6566ddd02affd70f7f88f805,2024-02-21_21h17.38.211,kallum_motion_pilot,2023.2.2,Win32,5.46149645,6566ddd02affd70f7f88f805,65d6bb0e977760de756971f7,65d6bcac977760de75697224,0.1352,0.1353,1,56,218,134,1,eightsix,,,,,,,,,,,,,,,,,,,,,,,,,,,,,,,,,,,,,,,,,,,,,,,,,,,,,,,,,,,,,,,,,,,,,,,,,,,,,,,,,,,,,,,,,,,,,,,,,,,,,,,,,,,,,,,,,,,,,,,,,,,,,,,,,,,,,,,,,
,,6566ddd02affd70f7f88f805,2024-02-21_21h17.38.211,kallum_motion_pilot,2023.2.2,Win32,5.46149645,6566ddd02affd70f7f88f805,65d6bb0e977760de756971f7,65d6bcac977760de75697224,0.1355,0.1357,1,57,219,155,1,sixeight,,,,,,,,,,,,,,,,,,,,,,,,,,,,,,,,,,,,,,,,,,,,,,,,,,,,,,,,,,,,,,,,,,,,,,,,,,,,,,,,,,,,,,,,,,,,,,,,,,,,,,,,,,,,,,,,,,,,,,,,,,,,,,,,,,,,,,,,,
,,6566ddd02affd70f7f88f805,2024-02-21_21h17.38.211,kallum_motion_pilot,2023.2.2,Win32,5.46149645,6566ddd02affd70f7f88f805,65d6bb0e977760de756971f7,65d6bcac977760de75697224,0.1359,0.1361,1,58,220,12,1,threeone,,,,,,,,,,,,,,,,,,,,,,,,,,,,,,,,,,,,,,,,,,,,,,,,,,,,,,,,,,,,,,,,,,,,,,,,,,,,,,,,,,,,,,,,,,,,,,,,,,,,,,,,,,,,,,,,,,,,,,,,,,,,,,,,,,,,,,,,,
,,6566ddd02affd70f7f88f805,2024-02-21_21h17.38.211,kallum_motion_pilot,2023.2.2,Win32,5.46149645,6566ddd02affd70f7f88f805,65d6bb0e977760de756971f7,65d6bcac977760de75697224,0.1362,0.1363,1,59,221,151,1,eightseven,,,,,,,,,,,,,,,,,,,,,,,,,,,,,,,,,,,,,,,,,,,,,,,,,,,,,,,,,,,,,,,,,,,,,,,,,,,,,,,,,,,,,,,,,,,,,,,,,,,,,,,,,,,,,,,,,,,,,,,,,,,,,,,,,,,,,,,,,
,,6566ddd02affd70f7f88f805,2024-02-21_21h17.38.211,kallum_motion_pilot,2023.2.2,Win32,5.46149645,6566ddd02affd70f7f88f805,65d6bb0e977760de756971f7,65d6bcac977760de75697224,0.1365,0.1366,1,60,222,47,1,fourthree,,,,,,,,,,,,,,,,,,,,,,,,,,,,,,,,,,,,,,,,,,,,,,,,,,,,,,,,,,,,,,,,,,,,,,,,,,,,,,,,,,,,,,,,,,,,,,,,,,,,,,,,,,,,,,,,,,,,,,,,,,,,,,,,,,,,,,,,,
,,6566ddd02affd70f7f88f805,2024-02-21_21h17.38.211,kallum_motion_pilot,2023.2.2,Win32,5.46149645,6566ddd02affd70f7f88f805,65d6bb0e977760de756971f7,65d6bcac977760de75697224,0.1368,0.137,1,61,223,34,1,twoone,,,,,,,,,,,,,,,,,,,,,,,,,,,,,,,,,,,,,,,,,,,,,,,,,,,,,,,,,,,,,,,,,,,,,,,,,,,,,,,,,,,,,,,,,,,,,,,,,,,,,,,,,,,,,,,,,,,,,,,,,,,,,,,,,,,,,,,,,
,,6566ddd02affd70f7f88f805,2024-02-21_21h17.38.211,kallum_motion_pilot,2023.2.2,Win32,5.46149645,6566ddd02affd70f7f88f805,65d6bb0e977760de756971f7,65d6bcac977760de75697224,0.1372,0.1373,1,62,224,54,1,fourtwo,,,,,,,,,,,,,,,,,,,,,,,,,,,,,,,,,,,,,,,,,,,,,,,,,,,,,,,,,,,,,,,,,,,,,,,,,,,,,,,,,,,,,,,,,,,,,,,,,,,,,,,,,,,,,,,,,,,,,,,,,,,,,,,,,,,,,,,,,
,,6566ddd02affd70f7f88f805,2024-02-21_21h17.38.211,kallum_motion_pilot,2023.2.2,Win32,5.46149645,6566ddd02affd70f7f88f805,65d6bb0e977760de756971f7,65d6bcac977760de75697224,0.1375,0.1375,1,63,225,30,1,fourtwo,,,,,,,,,,,,,,,,,,,,,,,,,,,,,,,,,,,,,,,,,,,,,,,,,,,,,,,,,,,,,,,,,,,,,,,,,,,,,,,,,,,,,,,,,,,,,,,,,,,,,,,,,,,,,,,,,,,,,,,,,,,,,,,,,,,,,,,,,
,,6566ddd02affd70f7f88f805,2024-02-21_21h17.38.211,kallum_motion_pilot,2023.2.2,Win32,5.46149645,6566ddd02affd70f7f88f805,65d6bb0e977760de756971f7,65d6bcac977760de75697224,0.1377,0.1379,1,64,226,119,1,eightseven,,,,,,,,,,,,,,,,,,,,,,,,,,,,,,,,,,,,,,,,,,,,,,,,,,,,,,,,,,,,,,,,,,,,,,,,,,,,,,,,,,,,,,,,,,,,,,,,,,,,,,,,,,,,,,,,,,,,,,,,,,,,,,,,,,,,,,,,,
,,6566ddd02affd70f7f88f805,2024-02-21_21h17.38.211,kallum_motion_pilot,2023.2.2,Win32,5.46149645,6566ddd02affd70f7f88f805,65d6bb0e977760de756971f7,65d6bcac977760de75697224,0.138,0.1382,1,65,227,80,1,fivesix,,,,,,,,,,,,,,,,,,,,,,,,,,,,,,,,,,,,,,,,,,,,,,,,,,,,,,,,,,,,,,,,,,,,,,,,,,,,,,,,,,,,,,,,,,,,,,,,,,,,,,,,,,,,,,,,,,,,,,,,,,,,,,,,,,,,,,,,,
,,6566ddd02affd70f7f88f805,2024-02-21_21h17.38.211,kallum_motion_pilot,2023.2.2,Win32,5.46149645,6566ddd02affd70f7f88f805,65d6bb0e977760de756971f7,65d6bcac977760de75697224,0.1383,0.1385,1,66,228,105,1,fiveseven,,,,,,,,,,,,,,,,,,,,,,,,,,,,,,,,,,,,,,,,,,,,,,,,,,,,,,,,,,,,,,,,,,,,,,,,,,,,,,,,,,,,,,,,,,,,,,,,,,,,,,,,,,,,,,,,,,,,,,,,,,,,,,,,,,,,,,,,,
,,6566ddd02affd70f7f88f805,2024-02-21_21h17.38.211,kallum_motion_pilot,2023.2.2,Win32,5.46149645,6566ddd02affd70f7f88f805,65d6bb0e977760de756971f7,65d6bcac977760de75697224,0.1387,0.1389,1,67,229,150,1,eightsix,,,,,,,,,,,,,,,,,,,,,,,,,,,,,,,,,,,,,,,,,,,,,,,,,,,,,,,,,,,,,,,,,,,,,,,,,,,,,,,,,,,,,,,,,,,,,,,,,,,,,,,,,,,,,,,,,,,,,,,,,,,,,,,,,,,,,,,,,
,,6566ddd02affd70f7f88f805,2024-02-21_21h17.38.211,kallum_motion_pilot,2023.2.2,Win32,5.46149645,6566ddd02affd70f7f88f805,65d6bb0e977760de756971f7,65d6bcac977760de75697224,0.1391,0.1392,1,68,230,11,1,twofour,,,,,,,,,,,,,,,,,,,,,,,,,,,,,,,,,,,,,,,,,,,,,,,,,,,,,,,,,,,,,,,,,,,,,,,,,,,,,,,,,,,,,,,,,,,,,,,,,,,,,,,,,,,,,,,,,,,,,,,,,,,,,,,,,,,,,,,,,
,,6566ddd02affd70f7f88f805,2024-02-21_21h17.38.211,kallum_motion_pilot,2023.2.2,Win32,5.46149645,6566ddd02affd70f7f88f805,65d6bb0e977760de756971f7,65d6bcac977760de75697224,0.1393,0.1395,1,69,231,18,1,twoone,,,,,,,,,,,,,,,,,,,,,,,,,,,,,,,,,,,,,,,,,,,,,,,,,,,,,,,,,,,,,,,,,,,,,,,,,,,,,,,,,,,,,,,,,,,,,,,,,,,,,,,,,,,,,,,,,,,,,,,,,,,,,,,,,,,,,,,,,
,,6566ddd02affd70f7f88f805,2024-02-21_21h17.38.211,kallum_motion_pilot,2023.2.2,Win32,5.46149645,6566ddd02affd70f7f88f805,65d6bb0e977760de756971f7,65d6bcac977760de75697224,0.1396,0.1399,1,70,232,113,1,fiveseven,,,,,,,,,,,,,,,,,,,,,,,,,,,,,,,,,,,,,,,,,,,,,,,,,,,,,,,,,,,,,,,,,,,,,,,,,,,,,,,,,,,,,,,,,,,,,,,,,,,,,,,,,,,,,,,,,,,,,,,,,,,,,,,,,,,,,,,,,
,,6566ddd02affd70f7f88f805,2024-02-21_21h17.38.211,kallum_motion_pilot,2023.2.2,Win32,5.46149645,6566ddd02affd70f7f88f805,65d6bb0e977760de756971f7,65d6bcac977760de75697224,0.14,0.1401,1,71,233,117,1,seveneight,,,,,,,,,,,,,,,,,,,,,,,,,,,,,,,,,,,,,,,,,,,,,,,,,,,,,,,,,,,,,,,,,,,,,,,,,,,,,,,,,,,,,,,,,,,,,,,,,,,,,,,,,,,,,,,,,,,,,,,,,,,,,,,,,,,,,,,,,
,,6566ddd02affd70f7f88f805,2024-02-21_21h17.38.211,kallum_motion_pilot,2023.2.2,Win32,5.46149645,6566ddd02affd70f7f88f805,65d6bb0e977760de756971f7,65d6bcac977760de75697224,0.1403,0.1404,1,72,234,43,1,twofour,,,,,,,,,,,,,,,,,,,,,,,,,,,,,,,,,,,,,,,,,,,,,,,,,,,,,,,,,,,,,,,,,,,,,,,,,,,,,,,,,,,,,,,,,,,,,,,,,,,,,,,,,,,,,,,,,,,,,,,,,,,,,,,,,,,,,,,,,
,,6566ddd02affd70f7f88f805,2024-02-21_21h17.38.211,kallum_motion_pilot,2023.2.2,Win32,5.46149645,6566ddd02affd70f7f88f805,65d6bb0e977760de756971f7,65d6bcac977760de75697224,0.1405,0.1406,1,73,235,98,1,sixfive,,,,,,,,,,,,,,,,,,,,,,,,,,,,,,,,,,,,,,,,,,,,,,,,,,,,,,,,,,,,,,,,,,,,,,,,,,,,,,,,,,,,,,,,,,,,,,,,,,,,,,,,,,,,,,,,,,,,,,,,,,,,,,,,,,,,,,,,,
,,6566ddd02affd70f7f88f805,2024-02-21_21h17.38.211,kallum_motion_pilot,2023.2.2,Win32,5.46149645,6566ddd02affd70f7f88f805,65d6bb0e977760de756971f7,65d6bcac977760de75697224,0.1408,0.141,1,74,236,141,1,seveneight,,,,,,,,,,,,,,,,,,,,,,,,,,,,,,,,,,,,,,,,,,,,,,,,,,,,,,,,,,,,,,,,,,,,,,,,,,,,,,,,,,,,,,,,,,,,,,,,,,,,,,,,,,,,,,,,,,,,,,,,,,,,,,,,,,,,,,,,,
,,6566ddd02affd70f7f88f805,2024-02-21_21h17.38.211,kallum_motion_pilot,2023.2.2,Win32,5.46149645,6566ddd02affd70f7f88f805,65d6bb0e977760de756971f7,65d6bcac977760de75697224,0.141,0.1411,1,75,237,109,1,seveneight,,,,,,,,,,,,,,,,,,,,,,,,,,,,,,,,,,,,,,,,,,,,,,,,,,,,,,,,,,,,,,,,,,,,,,,,,,,,,,,,,,,,,,,,,,,,,,,,,,,,,,,,,,,,,,,,,,,,,,,,,,,,,,,,,,,,,,,,,
,,6566ddd02affd70f7f88f805,2024-02-21_21h17.38.211,kallum_motion_pilot,2023.2.2,Win32,5.46149645,6566ddd02affd70f7f88f805,65d6bb0e977760de756971f7,65d6bcac977760de75697224,0.1413,0.1415,1,76,238,123,1,sixeight,,,,,,,,,,,,,,,,,,,,,,,,,,,,,,,,,,,,,,,,,,,,,,,,,,,,,,,,,,,,,,,,,,,,,,,,,,,,,,,,,,,,,,,,,,,,,,,,,,,,,,,,,,,,,,,,,,,,,,,,,,,,,,,,,,,,,,,,,
,,6566ddd02affd70f7f88f805,2024-02-21_21h17.38.211,kallum_motion_pilot,2023.2.2,Win32,5.46149645,6566ddd02affd70f7f88f805,65d6bb0e977760de756971f7,65d6bcac977760de75697224,0.1416,0.1418,1,77,239,138,1,sixfive,,,,,,,,,,,,,,,,,,,,,,,,,,,,,,,,,,,,,,,,,,,,,,,,,,,,,,,,,,,,,,,,,,,,,,,,,,,,,,,,,,,,,,,,,,,,,,,,,,,,,,,,,,,,,,,,,,,,,,,,,,,,,,,,,,,,,,,,,
,,6566ddd02affd70f7f88f805,2024-02-21_21h17.38.211,kallum_motion_pilot,2023.2.2,Win32,5.46149645,6566ddd02affd70f7f88f805,65d6bb0e977760de756971f7,65d6bcac977760de75697224,0.1421,0.1422,1,78,240,10,1,twoone,,,,,,,,,,,,,,,,,,,,,,,,,,,,,,,,,,,,,,,,,,,,,,,,,,,,,,,,,,,,,,,,,,,,,,,,,,,,,,,,,,,,,,,,,,,,,,,,,,,,,,,,,,,,,,,,,,,,,,,,,,,,,,,,,,,,,,,,,
,,6566ddd02affd70f7f88f805,2024-02-21_21h17.38.211,kallum_motion_pilot,2023.2.2,Win32,5.46149645,6566ddd02affd70f7f88f805,65d6bb0e977760de756971f7,65d6bcac977760de75697224,0.1424,0.1426,1,79,241,120,1,fivesix,,,,,,,,,,,,,,,,,,,,,,,,,,,,,,,,,,,,,,,,,,,,,,,,,,,,,,,,,,,,,,,,,,,,,,,,,,,,,,,,,,,,,,,,,,,,,,,,,,,,,,,,,,,,,,,,,,,,,,,,,,,,,,,,,,,,,,,,,
,,6566ddd02affd70f7f88f805,2024-02-21_21h17.38.211,kallum_motion_pilot,2023.2.2,Win32,5.46149645,6566ddd02affd70f7f88f805,65d6bb0e977760de756971f7,65d6bcac977760de75697224,0.1427,0.1429,1,80,242,59,1,twofour,,,,,,,,,,,,,,,,,,,,,,,,,,,,,,,,,,,,,,,,,,,,,,,,,,,,,,,,,,,,,,,,,,,,,,,,,,,,,,,,,,,,,,,,,,,,,,,,,,,,,,,,,,,,,,,,,,,,,,,,,,,,,,,,,,,,,,,,,
,,6566ddd02affd70f7f88f805,2024-02-21_21h17.38.211,kallum_motion_pilot,2023.2.2,Win32,5.46149645,6566ddd02affd70f7f88f805,65d6bb0e977760de756971f7,65d6bcac977760de75697224,0.1431,0.1432,1,81,243,102,1,eightsix,,,,,,,,,,,,,,,,,,,,,,,,,,,,,,,,,,,,,,,,,,,,,,,,,,,,,,,,,,,,,,,,,,,,,,,,,,,,,,,,,,,,,,,,,,,,,,,,,,,,,,,,,,,,,,,,,,,,,,,,,,,,,,,,,,,,,,,,,
,,6566ddd02affd70f7f88f805,2024-02-21_21h17.38.211,kallum_motion_pilot,2023.2.2,Win32,5.46149645,6566ddd02affd70f7f88f805,65d6bb0e977760de756971f7,65d6bcac977760de75697224,0.1434,0.1436,1,82,244,24,1,onetwo,,,,,,,,,,,,,,,,,,,,,,,,,,,,,,,,,,,,,,,,,,,,,,,,,,,,,,,,,,,,,,,,,,,,,,,,,,,,,,,,,,,,,,,,,,,,,,,,,,,,,,,,,,,,,,,,,,,,,,,,,,,,,,,,,,,,,,,,,
,,6566ddd02affd70f7f88f805,2024-02-21_21h17.38.211,kallum_motion_pilot,2023.2.2,Win32,5.46149645,6566ddd02affd70f7f88f805,65d6bb0e977760de756971f7,65d6bcac977760de75697224,0.1438,0.144,1,83,245,60,1,threeone,,,,,,,,,,,,,,,,,,,,,,,,,,,,,,,,,,,,,,,,,,,,,,,,,,,,,,,,,,,,,,,,,,,,,,,,,,,,,,,,,,,,,,,,,,,,,,,,,,,,,,,,,,,,,,,,,,,,,,,,,,,,,,,,,,,,,,,,,
,,6566ddd02affd70f7f88f805,2024-02-21_21h17.38.211,kallum_motion_pilot,2023.2.2,Win32,5.46149645,6566ddd02affd70f7f88f805,65d6bb0e977760de756971f7,65d6bcac977760de75697224,0.1446,0.1448,1,84,246,9,1,onethree,,,,,,,,,,,,,,,,,,,,,,,,,,,,,,,,,,,,,,,,,,,,,,,,,,,,,,,,,,,,,,,,,,,,,,,,,,,,,,,,,,,,,,,,,,,,,,,,,,,,,,,,,,,,,,,,,,,,,,,,,,,,,,,,,,,,,,,,,
,,6566ddd02affd70f7f88f805,2024-02-21_21h17.38.211,kallum_motion_pilot,2023.2.2,Win32,5.46149645,6566ddd02affd70f7f88f805,65d6bb0e977760de756971f7,65d6bcac977760de75697224,0.1452,0.1454,1,85,247,38,1,fourtwo,,,,,,,,,,,,,,,,,,,,,,,,,,,,,,,,,,,,,,,,,,,,,,,,,,,,,,,,,,,,,,,,,,,,,,,,,,,,,,,,,,,,,,,,,,,,,,,,,,,,,,,,,,,,,,,,,,,,,,,,,,,,,,,,,,,,,,,,,
,,6566ddd02affd70f7f88f805,2024-02-21_21h17.38.211,kallum_motion_pilot,2023.2.2,Win32,5.46149645,6566ddd02affd70f7f88f805,65d6bb0e977760de756971f7,65d6bcac977760de75697224,0.1455,0.1457,1,86,248,27,1,twofour,,,,,,,,,,,,,,,,,,,,,,,,,,,,,,,,,,,,,,,,,,,,,,,,,,,,,,,,,,,,,,,,,,,,,,,,,,,,,,,,,,,,,,,,,,,,,,,,,,,,,,,,,,,,,,,,,,,,,,,,,,,,,,,,,,,,,,,,,
,,6566ddd02affd70f7f88f805,2024-02-21_21h17.38.211,kallum_motion_pilot,2023.2.2,Win32,5.46149645,6566ddd02affd70f7f88f805,65d6bb0e977760de756971f7,65d6bcac977760de75697224,0.1459,0.146,1,87,249,32,1,onetwo,,,,,,,,,,,,,,,,,,,,,,,,,,,,,,,,,,,,,,,,,,,,,,,,,,,,,,,,,,,,,,,,,,,,,,,,,,,,,,,,,,,,,,,,,,,,,,,,,,,,,,,,,,,,,,,,,,,,,,,,,,,,,,,,,,,,,,,,,
,,6566ddd02affd70f7f88f805,2024-02-21_21h17.38.211,kallum_motion_pilot,2023.2.2,Win32,5.46149645,6566ddd02affd70f7f88f805,65d6bb0e977760de756971f7,65d6bcac977760de75697224,0.1462,0.1463,1,88,250,87,1,eightseven,,,,,,,,,,,,,,,,,,,,,,,,,,,,,,,,,,,,,,,,,,,,,,,,,,,,,,,,,,,,,,,,,,,,,,,,,,,,,,,,,,,,,,,,,,,,,,,,,,,,,,,,,,,,,,,,,,,,,,,,,,,,,,,,,,,,,,,,,
,,6566ddd02affd70f7f88f805,2024-02-21_21h17.38.211,kallum_motion_pilot,2023.2.2,Win32,5.46149645,6566ddd02affd70f7f88f805,65d6bb0e977760de756971f7,65d6bcac977760de75697224,0.1465,0.1466,1,89,251,76,1,threeone,,,,,,,,,,,,,,,,,,,,,,,,,,,,,,,,,,,,,,,,,,,,,,,,,,,,,,,,,,,,,,,,,,,,,,,,,,,,,,,,,,,,,,,,,,,,,,,,,,,,,,,,,,,,,,,,,,,,,,,,,,,,,,,,,,,,,,,,,
,,6566ddd02affd70f7f88f805,2024-02-21_21h17.38.211,kallum_motion_pilot,2023.2.2,Win32,5.46149645,6566ddd02affd70f7f88f805,65d6bb0e977760de756971f7,65d6bcac977760de75697224,0.1468,0.1469,1,90,252,51,1,twofour,,,,,,,,,,,,,,,,,,,,,,,,,,,,,,,,,,,,,,,,,,,,,,,,,,,,,,,,,,,,,,,,,,,,,,,,,,,,,,,,,,,,,,,,,,,,,,,,,,,,,,,,,,,,,,,,,,,,,,,,,,,,,,,,,,,,,,,,,
,,6566ddd02affd70f7f88f805,2024-02-21_21h17.38.211,kallum_motion_pilot,2023.2.2,Win32,5.46149645,6566ddd02affd70f7f88f805,65d6bb0e977760de756971f7,65d6bcac977760de75697224,0.147,0.1473,1,91,253,106,1,sixfive,,,,,,,,,,,,,,,,,,,,,,,,,,,,,,,,,,,,,,,,,,,,,,,,,,,,,,,,,,,,,,,,,,,,,,,,,,,,,,,,,,,,,,,,,,,,,,,,,,,,,,,,,,,,,,,,,,,,,,,,,,,,,,,,,,,,,,,,,
,,6566ddd02affd70f7f88f805,2024-02-21_21h17.38.211,kallum_motion_pilot,2023.2.2,Win32,5.46149645,6566ddd02affd70f7f88f805,65d6bb0e977760de756971f7,65d6bcac977760de75697224,0.1474,0.1478,1,92,254,114,1,sixfive,,,,,,,,,,,,,,,,,,,,,,,,,,,,,,,,,,,,,,,,,,,,,,,,,,,,,,,,,,,,,,,,,,,,,,,,,,,,,,,,,,,,,,,,,,,,,,,,,,,,,,,,,,,,,,,,,,,,,,,,,,,,,,,,,,,,,,,,,
,,6566ddd02affd70f7f88f805,2024-02-21_21h17.38.211,kallum_motion_pilot,2023.2.2,Win32,5.46149645,6566ddd02affd70f7f88f805,65d6bb0e977760de756971f7,65d6bcac977760de75697224,0.1481,0.1483,1,93,255,148,1,sevenfive,,,,,,,,,,,,,,,,,,,,,,,,,,,,,,,,,,,,,,,,,,,,,,,,,,,,,,,,,,,,,,,,,,,,,,,,,,,,,,,,,,,,,,,,,,,,,,,,,,,,,,,,,,,,,,,,,,,,,,,,,,,,,,,,,,,,,,,,,
,,6566ddd02affd70f7f88f805,2024-02-21_21h17.38.211,kallum_motion_pilot,2023.2.2,Win32,5.46149645,6566ddd02affd70f7f88f805,65d6bb0e977760de756971f7,65d6bcac977760de75697224,0.1485,0.1487,1,94,256,128,1,fivesix,,,,,,,,,,,,,,,,,,,,,,,,,,,,,,,,,,,,,,,,,,,,,,,,,,,,,,,,,,,,,,,,,,,,,,,,,,,,,,,,,,,,,,,,,,,,,,,,,,,,,,,,,,,,,,,,,,,,,,,,,,,,,,,,,,,,,,,,,
,,6566ddd02affd70f7f88f805,2024-02-21_21h17.38.211,kallum_motion_pilot,2023.2.2,Win32,5.46149645,6566ddd02affd70f7f88f805,65d6bb0e977760de756971f7,65d6bcac977760de75697224,0.1488,0.149,1,95,257,129,1,fiveseven,,,,,,,,,,,,,,,,,,,,,,,,,,,,,,,,,,,,,,,,,,,,,,,,,,,,,,,,,,,,,,,,,,,,,,,,,,,,,,,,,,,,,,,,,,,,,,,,,,,,,,,,,,,,,,,,,,,,,,,,,,,,,,,,,,,,,,,,,
,,6566ddd02affd70f7f88f805,2024-02-21_21h17.38.211,kallum_motion_pilot,2023.2.2,Win32,5.46149645,6566ddd02affd70f7f88f805,65d6bb0e977760de756971f7,65d6bcac977760de75697224,0.1491,0.1493,1,96,258,161,1,fiveseven,,,,,,,,,,,,,,,,,,,,,,,,,,,,,,,,,,,,,,,,,,,,,,,,,,,,,,,,,,,,,,,,,,,,,,,,,,,,,,,,,,,,,,,,,,,,,,,,,,,,,,,,,,,,,,,,,,,,,,,,,,,,,,,,,,,,,,,,,
,,6566ddd02affd70f7f88f805,2024-02-21_21h17.38.211,kallum_motion_pilot,2023.2.2,Win32,5.46149645,6566ddd02affd70f7f88f805,65d6bb0e977760de756971f7,65d6bcac977760de75697224,0.1494,0.1496,1,97,259,6,1,fourtwo,,,,,,,,,,,,,,,,,,,,,,,,,,,,,,,,,,,,,,,,,,,,,,,,,,,,,,,,,,,,,,,,,,,,,,,,,,,,,,,,,,,,,,,,,,,,,,,,,,,,,,,,,,,,,,,,,,,,,,,,,,,,,,,,,,,,,,,,,
,,6566ddd02affd70f7f88f805,2024-02-21_21h17.38.211,kallum_motion_pilot,2023.2.2,Win32,5.46149645,6566ddd02affd70f7f88f805,65d6bb0e977760de756971f7,65d6bcac977760de75697224,0.1497,0.1499,1,98,260,92,1,sevenfive,,,,,,,,,,,,,,,,,,,,,,,,,,,,,,,,,,,,,,,,,,,,,,,,,,,,,,,,,,,,,,,,,,,,,,,,,,,,,,,,,,,,,,,,,,,,,,,,,,,,,,,,,,,,,,,,,,,,,,,,,,,,,,,,,,,,,,,,,
,,6566ddd02affd70f7f88f805,2024-02-21_21h17.38.211,kallum_motion_pilot,2023.2.2,Win32,5.46149645,6566ddd02affd70f7f88f805,65d6bb0e977760de756971f7,65d6bcac977760de75697224,0.15,0.1502,1,99,261,67,1,twofour,,,,,,,,,,,,,,,,,,,,,,,,,,,,,,,,,,,,,,,,,,,,,,,,,,,,,,,,,,,,,,,,,,,,,,,,,,,,,,,,,,,,,,,,,,,,,,,,,,,,,,,,,,,,,,,,,,,,,,,,,,,,,,,,,,,,,,,,,
,,6566ddd02affd70f7f88f805,2024-02-21_21h17.38.211,kallum_motion_pilot,2023.2.2,Win32,5.46149645,6566ddd02affd70f7f88f805,65d6bb0e977760de756971f7,65d6bcac977760de75697224,0.1503,0.1505,1,100,262,57,1,onethree,,,,,,,,,,,,,,,,,,,,,,,,,,,,,,,,,,,,,,,,,,,,,,,,,,,,,,,,,,,,,,,,,,,,,,,,,,,,,,,,,,,,,,,,,,,,,,,,,,,,,,,,,,,,,,,,,,,,,,,,,,,,,,,,,,,,,,,,,
,,6566ddd02affd70f7f88f805,2024-02-21_21h17.38.211,kallum_motion_pilot,2023.2.2,Win32,5.46149645,6566ddd02affd70f7f88f805,65d6bb0e977760de756971f7,65d6bcac977760de75697224,0.1506,0.1508,1,101,263,22,1,fourtwo,,,,,,,,,,,,,,,,,,,,,,,,,,,,,,,,,,,,,,,,,,,,,,,,,,,,,,,,,,,,,,,,,,,,,,,,,,,,,,,,,,,,,,,,,,,,,,,,,,,,,,,,,,,,,,,,,,,,,,,,,,,,,,,,,,,,,,,,,
,,6566ddd02affd70f7f88f805,2024-02-21_21h17.38.211,kallum_motion_pilot,2023.2.2,Win32,5.46149645,6566ddd02affd70f7f88f805,65d6bb0e977760de756971f7,65d6bcac977760de75697224,0.1511,0.1514,1,102,264,121,1,fiveseven,,,,,,,,,,,,,,,,,,,,,,,,,,,,,,,,,,,,,,,,,,,,,,,,,,,,,,,,,,,,,,,,,,,,,,,,,,,,,,,,,,,,,,,,,,,,,,,,,,,,,,,,,,,,,,,,,,,,,,,,,,,,,,,,,,,,,,,,,
,,6566ddd02affd70f7f88f805,2024-02-21_21h17.38.211,kallum_motion_pilot,2023.2.2,Win32,5.46149645,6566ddd02affd70f7f88f805,65d6bb0e977760de756971f7,65d6bcac977760de75697224,0.1516,0.1518,1,103,265,45,1,threefour,,,,,,,,,,,,,,,,,,,,,,,,,,,,,,,,,,,,,,,,,,,,,,,,,,,,,,,,,,,,,,,,,,,,,,,,,,,,,,,,,,,,,,,,,,,,,,,,,,,,,,,,,,,,,,,,,,,,,,,,,,,,,,,,,,,,,,,,,
,,6566ddd02affd70f7f88f805,2024-02-21_21h17.38.211,kallum_motion_pilot,2023.2.2,Win32,5.46149645,6566ddd02affd70f7f88f805,65d6bb0e977760de756971f7,65d6bcac977760de75697224,0.1519,0.1521,1,104,266,49,1,onethree,,,,,,,,,,,,,,,,,,,,,,,,,,,,,,,,,,,,,,,,,,,,,,,,,,,,,,,,,,,,,,,,,,,,,,,,,,,,,,,,,,,,,,,,,,,,,,,,,,,,,,,,,,,,,,,,,,,,,,,,,,,,,,,,,,,,,,,,,
,,6566ddd02affd70f7f88f805,2024-02-21_21h17.38.211,kallum_motion_pilot,2023.2.2,Win32,5.46149645,6566ddd02affd70f7f88f805,65d6bb0e977760de756971f7,65d6bcac977760de75697224,0.1522,0.1524,1,105,267,53,1,threefour,,,,,,,,,,,,,,,,,,,,,,,,,,,,,,,,,,,,,,,,,,,,,,,,,,,,,,,,,,,,,,,,,,,,,,,,,,,,,,,,,,,,,,,,,,,,,,,,,,,,,,,,,,,,,,,,,,,,,,,,,,,,,,,,,,,,,,,,,
,,6566ddd02affd70f7f88f805,2024-02-21_21h17.38.211,kallum_motion_pilot,2023.2.2,Win32,5.46149645,6566ddd02affd70f7f88f805,65d6bb0e977760de756971f7,65d6bcac977760de75697224,0.1526,0.1529,1,106,268,1,1,onethree,,,,,,,,,,,,,,,,,,,,,,,,,,,,,,,,,,,,,,,,,,,,,,,,,,,,,,,,,,,,,,,,,,,,,,,,,,,,,,,,,,,,,,,,,,,,,,,,,,,,,,,,,,,,,,,,,,,,,,,,,,,,,,,,,,,,,,,,,
,,6566ddd02affd70f7f88f805,2024-02-21_21h17.38.211,kallum_motion_pilot,2023.2.2,Win32,5.46149645,6566ddd02affd70f7f88f805,65d6bb0e977760de756971f7,65d6bcac977760de75697224,0.153,0.1532,1,107,269,133,1,seveneight,,,,,,,,,,,,,,,,,,,,,,,,,,,,,,,,,,,,,,,,,,,,,,,,,,,,,,,,,,,,,,,,,,,,,,,,,,,,,,,,,,,,,,,,,,,,,,,,,,,,,,,,,,,,,,,,,,,,,,,,,,,,,,,,,,,,,,,,,
,,6566ddd02affd70f7f88f805,2024-02-21_21h17.38.211,kallum_motion_pilot,2023.2.2,Win32,5.46149645,6566ddd02affd70f7f88f805,65d6bb0e977760de756971f7,65d6bcac977760de75697224,0.1535,0.1537,1,108,270,158,1,eightsix,,,,,,,,,,,,,,,,,,,,,,,,,,,,,,,,,,,,,,,,,,,,,,,,,,,,,,,,,,,,,,,,,,,,,,,,,,,,,,,,,,,,,,,,,,,,,,,,,,,,,,,,,,,,,,,,,,,,,,,,,,,,,,,,,,,,,,,,,
,,6566ddd02affd70f7f88f805,2024-02-21_21h17.38.211,kallum_motion_pilot,2023.2.2,Win32,5.46149645,6566ddd02affd70f7f88f805,65d6bb0e977760de756971f7,65d6bcac977760de75697224,0.1539,0.154,1,109,271,143,1,eightseven,,,,,,,,,,,,,,,,,,,,,,,,,,,,,,,,,,,,,,,,,,,,,,,,,,,,,,,,,,,,,,,,,,,,,,,,,,,,,,,,,,,,,,,,,,,,,,,,,,,,,,,,,,,,,,,,,,,,,,,,,,,,,,,,,,,,,,,,,
,,6566ddd02affd70f7f88f805,2024-02-21_21h17.38.211,kallum_motion_pilot,2023.2.2,Win32,5.46149645,6566ddd02affd70f7f88f805,65d6bb0e977760de756971f7,65d6bcac977760de75697224,0.1541,0.1543,1,110,272,41,1,onethree,,,,,,,,,,,,,,,,,,,,,,,,,,,,,,,,,,,,,,,,,,,,,,,,,,,,,,,,,,,,,,,,,,,,,,,,,,,,,,,,,,,,,,,,,,,,,,,,,,,,,,,,,,,,,,,,,,,,,,,,,,,,,,,,,,,,,,,,,
,,6566ddd02affd70f7f88f805,2024-02-21_21h17.38.211,kallum_motion_pilot,2023.2.2,Win32,5.46149645,6566ddd02affd70f7f88f805,65d6bb0e977760de756971f7,65d6bcac977760de75697224,0.1545,0.1545,1,111,273,147,1,sixeight,,,,,,,,,,,,,,,,,,,,,,,,,,,,,,,,,,,,,,,,,,,,,,,,,,,,,,,,,,,,,,,,,,,,,,,,,,,,,,,,,,,,,,,,,,,,,,,,,,,,,,,,,,,,,,,,,,,,,,,,,,,,,,,,,,,,,,,,,
,,6566ddd02affd70f7f88f805,2024-02-21_21h17.38.211,kallum_motion_pilot,2023.2.2,Win32,5.46149645,6566ddd02affd70f7f88f805,65d6bb0e977760de756971f7,65d6bcac977760de75697224,0.1547,0.1548,1,112,274,25,1,onethree,,,,,,,,,,,,,,,,,,,,,,,,,,,,,,,,,,,,,,,,,,,,,,,,,,,,,,,,,,,,,,,,,,,,,,,,,,,,,,,,,,,,,,,,,,,,,,,,,,,,,,,,,,,,,,,,,,,,,,,,,,,,,,,,,,,,,,,,,
,,6566ddd02affd70f7f88f805,2024-02-21_21h17.38.211,kallum_motion_pilot,2023.2.2,Win32,5.46149645,6566ddd02affd70f7f88f805,65d6bb0e977760de756971f7,65d6bcac977760de75697224,0.155,0.1552,1,113,275,154,1,sixfive,,,,,,,,,,,,,,,,,,,,,,,,,,,,,,,,,,,,,,,,,,,,,,,,,,,,,,,,,,,,,,,,,,,,,,,,,,,,,,,,,,,,,,,,,,,,,,,,,,,,,,,,,,,,,,,,,,,,,,,,,,,,,,,,,,,,,,,,,
,,6566ddd02affd70f7f88f805,2024-02-21_21h17.38.211,kallum_motion_pilot,2023.2.2,Win32,5.46149645,6566ddd02affd70f7f88f805,65d6bb0e977760de756971f7,65d6bcac977760de75697224,0.1553,0.1554,1,114,276,7,1,fourthree,,,,,,,,,,,,,,,,,,,,,,,,,,,,,,,,,,,,,,,,,,,,,,,,,,,,,,,,,,,,,,,,,,,,,,,,,,,,,,,,,,,,,,,,,,,,,,,,,,,,,,,,,,,,,,,,,,,,,,,,,,,,,,,,,,,,,,,,,
,,6566ddd02affd70f7f88f805,2024-02-21_21h17.38.211,kallum_motion_pilot,2023.2.2,Win32,5.46149645,6566ddd02affd70f7f88f805,65d6bb0e977760de756971f7,65d6bcac977760de75697224,0.1557,0.156,1,115,277,77,1,threefour,,,,,,,,,,,,,,,,,,,,,,,,,,,,,,,,,,,,,,,,,,,,,,,,,,,,,,,,,,,,,,,,,,,,,,,,,,,,,,,,,,,,,,,,,,,,,,,,,,,,,,,,,,,,,,,,,,,,,,,,,,,,,,,,,,,,,,,,,
,,6566ddd02affd70f7f88f805,2024-02-21_21h17.38.211,kallum_motion_pilot,2023.2.2,Win32,5.46149645,6566ddd02affd70f7f88f805,65d6bb0e977760de756971f7,65d6bcac977760de75697224,0.1562,0.1563,1,116,278,145,1,fiveseven,,,,,,,,,,,,,,,,,,,,,,,,,,,,,,,,,,,,,,,,,,,,,,,,,,,,,,,,,,,,,,,,,,,,,,,,,,,,,,,,,,,,,,,,,,,,,,,,,,,,,,,,,,,,,,,,,,,,,,,,,,,,,,,,,,,,,,,,,
