startup.started,startup.stopped,Prolific ID*,date,expName,psychopyVersion,OS,frameRate,participant,study_id,session,stimpositions.started,stimpositions.stopped,hardcoded_stimulus_positions.thisRepN,hardcoded_stimulus_positions.thisTrialN,hardcoded_stimulus_positions.thisN,hardcoded_stimulus_positions.thisIndex,hardcoded_stimulus_positions.ran,StimulusPos,stimorientation.started,stimorientation.stopped,prac_stimorientation_import_loop.thisRepN,prac_stimorientation_import_loop.thisTrialN,prac_stimorientation_import_loop.thisN,prac_stimorientation_import_loop.thisIndex,prac_stimorientation_import_loop.ran,Stimorientation,welcome_instr.started,welcome_instr.stopped,key_resp.keys,key_resp.rt,key_resp.duration,response_steppedout_1.started,response_steppedout_1.stopped,key_resp_20.keys,key_resp_20.rt,key_resp_20.duration,response_steppedout_2.started,response_steppedout_2.stopped,key_resp_19.keys,key_resp_19.rt,key_resp_19.duration,stim_response_instr.started,stim_response_instr.stopped,key_resp_15.keys,key_resp_15.rt,key_resp_15.duration,direction_instr_2.started,direction_instr_2.stopped,key_resp_9.keys,key_resp_9.rt,key_resp_9.duration,instr_prac.started,instr_prac.stopped,key_resp_10.keys,key_resp_10.rt,key_resp_10.duration,Stim1_display_prac.started,Stim1_display_prac.stopped,Ecc,Circle1_ori,Circle2_ori,response_prac.started,similarity,response_time,response_prac.stopped,mouse_5.x,mouse_5.y,mouse_5.leftButton,mouse_5.midButton,mouse_5.rightButton,mouse_5.clicked_name,responseprac_feedback.started,responseprac_feedback.stopped,summary2_prac.started,summary2_prac.stopped,mouse_6.x,mouse_6.y,mouse_6.leftButton,mouse_6.midButton,mouse_6.rightButton,mouse_6.clicked_name,duringprac.thisRepN,duringprac.thisTrialN,duringprac.thisN,duringprac.thisIndex,duringprac.ran,begin.started,begin.stopped,key_resp_22.keys,key_resp_22.rt,key_resp_22.duration,Stim1_display.started,Stim1_display.stopped,circle1_ori,circle2_ori,circle1_SF,circle2_SF,response.started,response.stopped,mouse.x,mouse.y,mouse.leftButton,mouse.midButton,mouse.rightButton,mouse.clicked_name,trialnumber,double_pass.thisRepN,double_pass.thisTrialN,double_pass.thisN,double_pass.thisIndex,double_pass.ran,double_pass.order,main_trial.thisRepN,main_trial.thisTrialN,main_trial.thisN,main_trial.thisIndex,main_trial.ran,main_trial.order,Trial_Counter,Catch,Frequencies,response_2.started,response_2.stopped,mouse_2.x,mouse_2.y,mouse_2.leftButton,mouse_2.midButton,mouse_2.rightButton,mouse_2.clicked_name,special_trial.started,special_trial.stopped,catch_1.started,catch_1.stopped,mouse_3.x,mouse_3.y,mouse_3.leftButton,mouse_3.midButton,mouse_3.rightButton,catchresponse,catchnumber,response_time_catch,response_sum.started,response_sum.stopped,mouse_11.x,mouse_11.y,mouse_11.leftButton,mouse_11.midButton,mouse_11.rightButton,flip_presentation_sequence_for_double_pass.started,flip_presentation_sequence_for_double_pass.stopped,goodbye.started,goodbye.stopped,key_resp_3.keys,key_resp_3.rt,key_resp_3.duration
0.0002,0.0004,656b73a9361febf855fa6f6c,2024-02-19_04h12.09.580,kallum_motion_pilot,2023.2.2,Win32,59.78000956,656b73a9361febf855fa6f6c,65d2b6c8f2eece985d8e374c,65d2b8dbd007f5631ea9301d,,,,,,,,,,,,,,,,,,,,,,,,,,,,,,,,,,,,,,,,,,,,,,,,,,,,,,,,,,,,,,,,,,,,,,,,,,,,,,,,,,,,,,,,,,,,,,,,,,,,,,,,,,,,,,,,,,,,,,,,,,,,,,,,,,,,,,,,,,,,,,,,,
,,656b73a9361febf855fa6f6c,2024-02-19_04h12.09.580,kallum_motion_pilot,2023.2.2,Win32,59.78000956,656b73a9361febf855fa6f6c,65d2b6c8f2eece985d8e374c,65d2b8dbd007f5631ea9301d,0.0164,0.0165,0,0,0,128,1,fivesix,,,,,,,,,,,,,,,,,,,,,,,,,,,,,,,,,,,,,,,,,,,,,,,,,,,,,,,,,,,,,,,,,,,,,,,,,,,,,,,,,,,,,,,,,,,,,,,,,,,,,,,,,,,,,,,,,,,,,,,,,,,,,,,,,,,,,,,,,
,,656b73a9361febf855fa6f6c,2024-02-19_04h12.09.580,kallum_motion_pilot,2023.2.2,Win32,59.78000956,656b73a9361febf855fa6f6c,65d2b6c8f2eece985d8e374c,65d2b8dbd007f5631ea9301d,0.0167,0.0168,0,1,1,114,1,sixfive,,,,,,,,,,,,,,,,,,,,,,,,,,,,,,,,,,,,,,,,,,,,,,,,,,,,,,,,,,,,,,,,,,,,,,,,,,,,,,,,,,,,,,,,,,,,,,,,,,,,,,,,,,,,,,,,,,,,,,,,,,,,,,,,,,,,,,,,,
,,656b73a9361febf855fa6f6c,2024-02-19_04h12.09.580,kallum_motion_pilot,2023.2.2,Win32,59.78000956,656b73a9361febf855fa6f6c,65d2b6c8f2eece985d8e374c,65d2b8dbd007f5631ea9301d,0.0168,0.0168,0,2,2,110,1,eightsix,,,,,,,,,,,,,,,,,,,,,,,,,,,,,,,,,,,,,,,,,,,,,,,,,,,,,,,,,,,,,,,,,,,,,,,,,,,,,,,,,,,,,,,,,,,,,,,,,,,,,,,,,,,,,,,,,,,,,,,,,,,,,,,,,,,,,,,,,
,,656b73a9361febf855fa6f6c,2024-02-19_04h12.09.580,kallum_motion_pilot,2023.2.2,Win32,59.78000956,656b73a9361febf855fa6f6c,65d2b6c8f2eece985d8e374c,65d2b8dbd007f5631ea9301d,0.0169,0.0169,0,3,3,63,1,fourthree,,,,,,,,,,,,,,,,,,,,,,,,,,,,,,,,,,,,,,,,,,,,,,,,,,,,,,,,,,,,,,,,,,,,,,,,,,,,,,,,,,,,,,,,,,,,,,,,,,,,,,,,,,,,,,,,,,,,,,,,,,,,,,,,,,,,,,,,,
,,656b73a9361febf855fa6f6c,2024-02-19_04h12.09.580,kallum_motion_pilot,2023.2.2,Win32,59.78000956,656b73a9361febf855fa6f6c,65d2b6c8f2eece985d8e374c,65d2b8dbd007f5631ea9301d,0.017,0.017,0,4,4,150,1,eightsix,,,,,,,,,,,,,,,,,,,,,,,,,,,,,,,,,,,,,,,,,,,,,,,,,,,,,,,,,,,,,,,,,,,,,,,,,,,,,,,,,,,,,,,,,,,,,,,,,,,,,,,,,,,,,,,,,,,,,,,,,,,,,,,,,,,,,,,,,
,,656b73a9361febf855fa6f6c,2024-02-19_04h12.09.580,kallum_motion_pilot,2023.2.2,Win32,59.78000956,656b73a9361febf855fa6f6c,65d2b6c8f2eece985d8e374c,65d2b8dbd007f5631ea9301d,0.017,0.0171,0,5,5,91,1,sixeight,,,,,,,,,,,,,,,,,,,,,,,,,,,,,,,,,,,,,,,,,,,,,,,,,,,,,,,,,,,,,,,,,,,,,,,,,,,,,,,,,,,,,,,,,,,,,,,,,,,,,,,,,,,,,,,,,,,,,,,,,,,,,,,,,,,,,,,,,
,,656b73a9361febf855fa6f6c,2024-02-19_04h12.09.580,kallum_motion_pilot,2023.2.2,Win32,59.78000956,656b73a9361febf855fa6f6c,65d2b6c8f2eece985d8e374c,65d2b8dbd007f5631ea9301d,0.0171,0.0171,0,6,6,6,1,fourtwo,,,,,,,,,,,,,,,,,,,,,,,,,,,,,,,,,,,,,,,,,,,,,,,,,,,,,,,,,,,,,,,,,,,,,,,,,,,,,,,,,,,,,,,,,,,,,,,,,,,,,,,,,,,,,,,,,,,,,,,,,,,,,,,,,,,,,,,,,
,,656b73a9361febf855fa6f6c,2024-02-19_04h12.09.580,kallum_motion_pilot,2023.2.2,Win32,59.78000956,656b73a9361febf855fa6f6c,65d2b6c8f2eece985d8e374c,65d2b8dbd007f5631ea9301d,0.0172,0.0172,0,7,7,67,1,twofour,,,,,,,,,,,,,,,,,,,,,,,,,,,,,,,,,,,,,,,,,,,,,,,,,,,,,,,,,,,,,,,,,,,,,,,,,,,,,,,,,,,,,,,,,,,,,,,,,,,,,,,,,,,,,,,,,,,,,,,,,,,,,,,,,,,,,,,,,
,,656b73a9361febf855fa6f6c,2024-02-19_04h12.09.580,kallum_motion_pilot,2023.2.2,Win32,59.78000956,656b73a9361febf855fa6f6c,65d2b6c8f2eece985d8e374c,65d2b8dbd007f5631ea9301d,0.0173,0.0173,0,8,8,1,1,onethree,,,,,,,,,,,,,,,,,,,,,,,,,,,,,,,,,,,,,,,,,,,,,,,,,,,,,,,,,,,,,,,,,,,,,,,,,,,,,,,,,,,,,,,,,,,,,,,,,,,,,,,,,,,,,,,,,,,,,,,,,,,,,,,,,,,,,,,,,
,,656b73a9361febf855fa6f6c,2024-02-19_04h12.09.580,kallum_motion_pilot,2023.2.2,Win32,59.78000956,656b73a9361febf855fa6f6c,65d2b6c8f2eece985d8e374c,65d2b8dbd007f5631ea9301d,0.0173,0.0174,0,9,9,66,1,twoone,,,,,,,,,,,,,,,,,,,,,,,,,,,,,,,,,,,,,,,,,,,,,,,,,,,,,,,,,,,,,,,,,,,,,,,,,,,,,,,,,,,,,,,,,,,,,,,,,,,,,,,,,,,,,,,,,,,,,,,,,,,,,,,,,,,,,,,,,
,,656b73a9361febf855fa6f6c,2024-02-19_04h12.09.580,kallum_motion_pilot,2023.2.2,Win32,59.78000956,656b73a9361febf855fa6f6c,65d2b6c8f2eece985d8e374c,65d2b8dbd007f5631ea9301d,0.0175,0.0175,0,10,10,132,1,sevenfive,,,,,,,,,,,,,,,,,,,,,,,,,,,,,,,,,,,,,,,,,,,,,,,,,,,,,,,,,,,,,,,,,,,,,,,,,,,,,,,,,,,,,,,,,,,,,,,,,,,,,,,,,,,,,,,,,,,,,,,,,,,,,,,,,,,,,,,,,
,,656b73a9361febf855fa6f6c,2024-02-19_04h12.09.580,kallum_motion_pilot,2023.2.2,Win32,59.78000956,656b73a9361febf855fa6f6c,65d2b6c8f2eece985d8e374c,65d2b8dbd007f5631ea9301d,0.0176,0.0176,0,11,11,7,1,fourthree,,,,,,,,,,,,,,,,,,,,,,,,,,,,,,,,,,,,,,,,,,,,,,,,,,,,,,,,,,,,,,,,,,,,,,,,,,,,,,,,,,,,,,,,,,,,,,,,,,,,,,,,,,,,,,,,,,,,,,,,,,,,,,,,,,,,,,,,,
,,656b73a9361febf855fa6f6c,2024-02-19_04h12.09.580,kallum_motion_pilot,2023.2.2,Win32,59.78000956,656b73a9361febf855fa6f6c,65d2b6c8f2eece985d8e374c,65d2b8dbd007f5631ea9301d,0.0176,0.0176,0,12,12,111,1,eightseven,,,,,,,,,,,,,,,,,,,,,,,,,,,,,,,,,,,,,,,,,,,,,,,,,,,,,,,,,,,,,,,,,,,,,,,,,,,,,,,,,,,,,,,,,,,,,,,,,,,,,,,,,,,,,,,,,,,,,,,,,,,,,,,,,,,,,,,,,
,,656b73a9361febf855fa6f6c,2024-02-19_04h12.09.580,kallum_motion_pilot,2023.2.2,Win32,59.78000956,656b73a9361febf855fa6f6c,65d2b6c8f2eece985d8e374c,65d2b8dbd007f5631ea9301d,0.0178,0.0178,0,13,13,109,1,seveneight,,,,,,,,,,,,,,,,,,,,,,,,,,,,,,,,,,,,,,,,,,,,,,,,,,,,,,,,,,,,,,,,,,,,,,,,,,,,,,,,,,,,,,,,,,,,,,,,,,,,,,,,,,,,,,,,,,,,,,,,,,,,,,,,,,,,,,,,,
,,656b73a9361febf855fa6f6c,2024-02-19_04h12.09.580,kallum_motion_pilot,2023.2.2,Win32,59.78000956,656b73a9361febf855fa6f6c,65d2b6c8f2eece985d8e374c,65d2b8dbd007f5631ea9301d,0.0179,0.0179,0,14,14,50,1,twoone,,,,,,,,,,,,,,,,,,,,,,,,,,,,,,,,,,,,,,,,,,,,,,,,,,,,,,,,,,,,,,,,,,,,,,,,,,,,,,,,,,,,,,,,,,,,,,,,,,,,,,,,,,,,,,,,,,,,,,,,,,,,,,,,,,,,,,,,,
,,656b73a9361febf855fa6f6c,2024-02-19_04h12.09.580,kallum_motion_pilot,2023.2.2,Win32,59.78000956,656b73a9361febf855fa6f6c,65d2b6c8f2eece985d8e374c,65d2b8dbd007f5631ea9301d,0.0179,0.0179,0,15,15,16,1,onetwo,,,,,,,,,,,,,,,,,,,,,,,,,,,,,,,,,,,,,,,,,,,,,,,,,,,,,,,,,,,,,,,,,,,,,,,,,,,,,,,,,,,,,,,,,,,,,,,,,,,,,,,,,,,,,,,,,,,,,,,,,,,,,,,,,,,,,,,,,
,,656b73a9361febf855fa6f6c,2024-02-19_04h12.09.580,kallum_motion_pilot,2023.2.2,Win32,59.78000956,656b73a9361febf855fa6f6c,65d2b6c8f2eece985d8e374c,65d2b8dbd007f5631ea9301d,0.018,0.018,0,16,16,72,1,onetwo,,,,,,,,,,,,,,,,,,,,,,,,,,,,,,,,,,,,,,,,,,,,,,,,,,,,,,,,,,,,,,,,,,,,,,,,,,,,,,,,,,,,,,,,,,,,,,,,,,,,,,,,,,,,,,,,,,,,,,,,,,,,,,,,,,,,,,,,,
,,656b73a9361febf855fa6f6c,2024-02-19_04h12.09.580,kallum_motion_pilot,2023.2.2,Win32,59.78000956,656b73a9361febf855fa6f6c,65d2b6c8f2eece985d8e374c,65d2b8dbd007f5631ea9301d,0.018,0.0181,0,17,17,74,1,twoone,,,,,,,,,,,,,,,,,,,,,,,,,,,,,,,,,,,,,,,,,,,,,,,,,,,,,,,,,,,,,,,,,,,,,,,,,,,,,,,,,,,,,,,,,,,,,,,,,,,,,,,,,,,,,,,,,,,,,,,,,,,,,,,,,,,,,,,,,
,,656b73a9361febf855fa6f6c,2024-02-19_04h12.09.580,kallum_motion_pilot,2023.2.2,Win32,59.78000956,656b73a9361febf855fa6f6c,65d2b6c8f2eece985d8e374c,65d2b8dbd007f5631ea9301d,0.0181,0.0181,0,18,18,19,1,twofour,,,,,,,,,,,,,,,,,,,,,,,,,,,,,,,,,,,,,,,,,,,,,,,,,,,,,,,,,,,,,,,,,,,,,,,,,,,,,,,,,,,,,,,,,,,,,,,,,,,,,,,,,,,,,,,,,,,,,,,,,,,,,,,,,,,,,,,,,
,,656b73a9361febf855fa6f6c,2024-02-19_04h12.09.580,kallum_motion_pilot,2023.2.2,Win32,59.78000956,656b73a9361febf855fa6f6c,65d2b6c8f2eece985d8e374c,65d2b8dbd007f5631ea9301d,0.0181,0.0181,0,19,19,127,1,eightseven,,,,,,,,,,,,,,,,,,,,,,,,,,,,,,,,,,,,,,,,,,,,,,,,,,,,,,,,,,,,,,,,,,,,,,,,,,,,,,,,,,,,,,,,,,,,,,,,,,,,,,,,,,,,,,,,,,,,,,,,,,,,,,,,,,,,,,,,,
,,656b73a9361febf855fa6f6c,2024-02-19_04h12.09.580,kallum_motion_pilot,2023.2.2,Win32,59.78000956,656b73a9361febf855fa6f6c,65d2b6c8f2eece985d8e374c,65d2b8dbd007f5631ea9301d,0.0182,0.0182,0,20,20,86,1,eightsix,,,,,,,,,,,,,,,,,,,,,,,,,,,,,,,,,,,,,,,,,,,,,,,,,,,,,,,,,,,,,,,,,,,,,,,,,,,,,,,,,,,,,,,,,,,,,,,,,,,,,,,,,,,,,,,,,,,,,,,,,,,,,,,,,,,,,,,,,
,,656b73a9361febf855fa6f6c,2024-02-19_04h12.09.580,kallum_motion_pilot,2023.2.2,Win32,59.78000956,656b73a9361febf855fa6f6c,65d2b6c8f2eece985d8e374c,65d2b8dbd007f5631ea9301d,0.0183,0.0183,0,21,21,142,1,eightsix,,,,,,,,,,,,,,,,,,,,,,,,,,,,,,,,,,,,,,,,,,,,,,,,,,,,,,,,,,,,,,,,,,,,,,,,,,,,,,,,,,,,,,,,,,,,,,,,,,,,,,,,,,,,,,,,,,,,,,,,,,,,,,,,,,,,,,,,,
,,656b73a9361febf855fa6f6c,2024-02-19_04h12.09.580,kallum_motion_pilot,2023.2.2,Win32,59.78000956,656b73a9361febf855fa6f6c,65d2b6c8f2eece985d8e374c,65d2b8dbd007f5631ea9301d,0.0183,0.0183,0,22,22,49,1,onethree,,,,,,,,,,,,,,,,,,,,,,,,,,,,,,,,,,,,,,,,,,,,,,,,,,,,,,,,,,,,,,,,,,,,,,,,,,,,,,,,,,,,,,,,,,,,,,,,,,,,,,,,,,,,,,,,,,,,,,,,,,,,,,,,,,,,,,,,,
,,656b73a9361febf855fa6f6c,2024-02-19_04h12.09.580,kallum_motion_pilot,2023.2.2,Win32,59.78000956,656b73a9361febf855fa6f6c,65d2b6c8f2eece985d8e374c,65d2b8dbd007f5631ea9301d,0.0184,0.0184,0,23,23,113,1,fiveseven,,,,,,,,,,,,,,,,,,,,,,,,,,,,,,,,,,,,,,,,,,,,,,,,,,,,,,,,,,,,,,,,,,,,,,,,,,,,,,,,,,,,,,,,,,,,,,,,,,,,,,,,,,,,,,,,,,,,,,,,,,,,,,,,,,,,,,,,,
,,656b73a9361febf855fa6f6c,2024-02-19_04h12.09.580,kallum_motion_pilot,2023.2.2,Win32,59.78000956,656b73a9361febf855fa6f6c,65d2b6c8f2eece985d8e374c,65d2b8dbd007f5631ea9301d,0.0184,0.0184,0,24,24,44,1,threeone,,,,,,,,,,,,,,,,,,,,,,,,,,,,,,,,,,,,,,,,,,,,,,,,,,,,,,,,,,,,,,,,,,,,,,,,,,,,,,,,,,,,,,,,,,,,,,,,,,,,,,,,,,,,,,,,,,,,,,,,,,,,,,,,,,,,,,,,,
,,656b73a9361febf855fa6f6c,2024-02-19_04h12.09.580,kallum_motion_pilot,2023.2.2,Win32,59.78000956,656b73a9361febf855fa6f6c,65d2b6c8f2eece985d8e374c,65d2b8dbd007f5631ea9301d,0.0184,0.0184,0,25,25,60,1,threeone,,,,,,,,,,,,,,,,,,,,,,,,,,,,,,,,,,,,,,,,,,,,,,,,,,,,,,,,,,,,,,,,,,,,,,,,,,,,,,,,,,,,,,,,,,,,,,,,,,,,,,,,,,,,,,,,,,,,,,,,,,,,,,,,,,,,,,,,,
,,656b73a9361febf855fa6f6c,2024-02-19_04h12.09.580,kallum_motion_pilot,2023.2.2,Win32,59.78000956,656b73a9361febf855fa6f6c,65d2b6c8f2eece985d8e374c,65d2b8dbd007f5631ea9301d,0.0185,0.0185,0,26,26,130,1,sixfive,,,,,,,,,,,,,,,,,,,,,,,,,,,,,,,,,,,,,,,,,,,,,,,,,,,,,,,,,,,,,,,,,,,,,,,,,,,,,,,,,,,,,,,,,,,,,,,,,,,,,,,,,,,,,,,,,,,,,,,,,,,,,,,,,,,,,,,,,
,,656b73a9361febf855fa6f6c,2024-02-19_04h12.09.580,kallum_motion_pilot,2023.2.2,Win32,59.78000956,656b73a9361febf855fa6f6c,65d2b6c8f2eece985d8e374c,65d2b8dbd007f5631ea9301d,0.0186,0.0186,0,27,27,42,1,twoone,,,,,,,,,,,,,,,,,,,,,,,,,,,,,,,,,,,,,,,,,,,,,,,,,,,,,,,,,,,,,,,,,,,,,,,,,,,,,,,,,,,,,,,,,,,,,,,,,,,,,,,,,,,,,,,,,,,,,,,,,,,,,,,,,,,,,,,,,
,,656b73a9361febf855fa6f6c,2024-02-19_04h12.09.580,kallum_motion_pilot,2023.2.2,Win32,59.78000956,656b73a9361febf855fa6f6c,65d2b6c8f2eece985d8e374c,65d2b8dbd007f5631ea9301d,0.0186,0.0186,0,28,28,41,1,onethree,,,,,,,,,,,,,,,,,,,,,,,,,,,,,,,,,,,,,,,,,,,,,,,,,,,,,,,,,,,,,,,,,,,,,,,,,,,,,,,,,,,,,,,,,,,,,,,,,,,,,,,,,,,,,,,,,,,,,,,,,,,,,,,,,,,,,,,,,
,,656b73a9361febf855fa6f6c,2024-02-19_04h12.09.580,kallum_motion_pilot,2023.2.2,Win32,59.78000956,656b73a9361febf855fa6f6c,65d2b6c8f2eece985d8e374c,65d2b8dbd007f5631ea9301d,0.0187,0.0187,0,29,29,25,1,onethree,,,,,,,,,,,,,,,,,,,,,,,,,,,,,,,,,,,,,,,,,,,,,,,,,,,,,,,,,,,,,,,,,,,,,,,,,,,,,,,,,,,,,,,,,,,,,,,,,,,,,,,,,,,,,,,,,,,,,,,,,,,,,,,,,,,,,,,,,
,,656b73a9361febf855fa6f6c,2024-02-19_04h12.09.580,kallum_motion_pilot,2023.2.2,Win32,59.78000956,656b73a9361febf855fa6f6c,65d2b6c8f2eece985d8e374c,65d2b8dbd007f5631ea9301d,0.0188,0.0188,0,30,30,92,1,sevenfive,,,,,,,,,,,,,,,,,,,,,,,,,,,,,,,,,,,,,,,,,,,,,,,,,,,,,,,,,,,,,,,,,,,,,,,,,,,,,,,,,,,,,,,,,,,,,,,,,,,,,,,,,,,,,,,,,,,,,,,,,,,,,,,,,,,,,,,,,
,,656b73a9361febf855fa6f6c,2024-02-19_04h12.09.580,kallum_motion_pilot,2023.2.2,Win32,59.78000956,656b73a9361febf855fa6f6c,65d2b6c8f2eece985d8e374c,65d2b8dbd007f5631ea9301d,0.0188,0.0189,0,31,31,100,1,sevenfive,,,,,,,,,,,,,,,,,,,,,,,,,,,,,,,,,,,,,,,,,,,,,,,,,,,,,,,,,,,,,,,,,,,,,,,,,,,,,,,,,,,,,,,,,,,,,,,,,,,,,,,,,,,,,,,,,,,,,,,,,,,,,,,,,,,,,,,,,
,,656b73a9361febf855fa6f6c,2024-02-19_04h12.09.580,kallum_motion_pilot,2023.2.2,Win32,59.78000956,656b73a9361febf855fa6f6c,65d2b6c8f2eece985d8e374c,65d2b8dbd007f5631ea9301d,0.0189,0.0189,0,32,32,59,1,twofour,,,,,,,,,,,,,,,,,,,,,,,,,,,,,,,,,,,,,,,,,,,,,,,,,,,,,,,,,,,,,,,,,,,,,,,,,,,,,,,,,,,,,,,,,,,,,,,,,,,,,,,,,,,,,,,,,,,,,,,,,,,,,,,,,,,,,,,,,
,,656b73a9361febf855fa6f6c,2024-02-19_04h12.09.580,kallum_motion_pilot,2023.2.2,Win32,59.78000956,656b73a9361febf855fa6f6c,65d2b6c8f2eece985d8e374c,65d2b8dbd007f5631ea9301d,0.019,0.019,0,33,33,140,1,sevenfive,,,,,,,,,,,,,,,,,,,,,,,,,,,,,,,,,,,,,,,,,,,,,,,,,,,,,,,,,,,,,,,,,,,,,,,,,,,,,,,,,,,,,,,,,,,,,,,,,,,,,,,,,,,,,,,,,,,,,,,,,,,,,,,,,,,,,,,,,
,,656b73a9361febf855fa6f6c,2024-02-19_04h12.09.580,kallum_motion_pilot,2023.2.2,Win32,59.78000956,656b73a9361febf855fa6f6c,65d2b6c8f2eece985d8e374c,65d2b8dbd007f5631ea9301d,0.0195,0.0195,0,34,34,61,1,threefour,,,,,,,,,,,,,,,,,,,,,,,,,,,,,,,,,,,,,,,,,,,,,,,,,,,,,,,,,,,,,,,,,,,,,,,,,,,,,,,,,,,,,,,,,,,,,,,,,,,,,,,,,,,,,,,,,,,,,,,,,,,,,,,,,,,,,,,,,
,,656b73a9361febf855fa6f6c,2024-02-19_04h12.09.580,kallum_motion_pilot,2023.2.2,Win32,59.78000956,656b73a9361febf855fa6f6c,65d2b6c8f2eece985d8e374c,65d2b8dbd007f5631ea9301d,0.0195,0.0196,0,35,35,84,1,sevenfive,,,,,,,,,,,,,,,,,,,,,,,,,,,,,,,,,,,,,,,,,,,,,,,,,,,,,,,,,,,,,,,,,,,,,,,,,,,,,,,,,,,,,,,,,,,,,,,,,,,,,,,,,,,,,,,,,,,,,,,,,,,,,,,,,,,,,,,,,
,,656b73a9361febf855fa6f6c,2024-02-19_04h12.09.580,kallum_motion_pilot,2023.2.2,Win32,59.78000956,656b73a9361febf855fa6f6c,65d2b6c8f2eece985d8e374c,65d2b8dbd007f5631ea9301d,0.0196,0.0196,0,36,36,96,1,fivesix,,,,,,,,,,,,,,,,,,,,,,,,,,,,,,,,,,,,,,,,,,,,,,,,,,,,,,,,,,,,,,,,,,,,,,,,,,,,,,,,,,,,,,,,,,,,,,,,,,,,,,,,,,,,,,,,,,,,,,,,,,,,,,,,,,,,,,,,,
,,656b73a9361febf855fa6f6c,2024-02-19_04h12.09.580,kallum_motion_pilot,2023.2.2,Win32,59.78000956,656b73a9361febf855fa6f6c,65d2b6c8f2eece985d8e374c,65d2b8dbd007f5631ea9301d,0.0196,0.0197,0,37,37,5,1,threefour,,,,,,,,,,,,,,,,,,,,,,,,,,,,,,,,,,,,,,,,,,,,,,,,,,,,,,,,,,,,,,,,,,,,,,,,,,,,,,,,,,,,,,,,,,,,,,,,,,,,,,,,,,,,,,,,,,,,,,,,,,,,,,,,,,,,,,,,,
,,656b73a9361febf855fa6f6c,2024-02-19_04h12.09.580,kallum_motion_pilot,2023.2.2,Win32,59.78000956,656b73a9361febf855fa6f6c,65d2b6c8f2eece985d8e374c,65d2b8dbd007f5631ea9301d,0.0198,0.0198,0,38,38,80,1,fivesix,,,,,,,,,,,,,,,,,,,,,,,,,,,,,,,,,,,,,,,,,,,,,,,,,,,,,,,,,,,,,,,,,,,,,,,,,,,,,,,,,,,,,,,,,,,,,,,,,,,,,,,,,,,,,,,,,,,,,,,,,,,,,,,,,,,,,,,,,
,,656b73a9361febf855fa6f6c,2024-02-19_04h12.09.580,kallum_motion_pilot,2023.2.2,Win32,59.78000956,656b73a9361febf855fa6f6c,65d2b6c8f2eece985d8e374c,65d2b8dbd007f5631ea9301d,0.0198,0.0198,0,39,39,153,1,fiveseven,,,,,,,,,,,,,,,,,,,,,,,,,,,,,,,,,,,,,,,,,,,,,,,,,,,,,,,,,,,,,,,,,,,,,,,,,,,,,,,,,,,,,,,,,,,,,,,,,,,,,,,,,,,,,,,,,,,,,,,,,,,,,,,,,,,,,,,,,
,,656b73a9361febf855fa6f6c,2024-02-19_04h12.09.580,kallum_motion_pilot,2023.2.2,Win32,59.78000956,656b73a9361febf855fa6f6c,65d2b6c8f2eece985d8e374c,65d2b8dbd007f5631ea9301d,0.0198,0.0199,0,40,40,78,1,fourtwo,,,,,,,,,,,,,,,,,,,,,,,,,,,,,,,,,,,,,,,,,,,,,,,,,,,,,,,,,,,,,,,,,,,,,,,,,,,,,,,,,,,,,,,,,,,,,,,,,,,,,,,,,,,,,,,,,,,,,,,,,,,,,,,,,,,,,,,,,
,,656b73a9361febf855fa6f6c,2024-02-19_04h12.09.580,kallum_motion_pilot,2023.2.2,Win32,59.78000956,656b73a9361febf855fa6f6c,65d2b6c8f2eece985d8e374c,65d2b8dbd007f5631ea9301d,0.0199,0.0199,0,41,41,102,1,eightsix,,,,,,,,,,,,,,,,,,,,,,,,,,,,,,,,,,,,,,,,,,,,,,,,,,,,,,,,,,,,,,,,,,,,,,,,,,,,,,,,,,,,,,,,,,,,,,,,,,,,,,,,,,,,,,,,,,,,,,,,,,,,,,,,,,,,,,,,,
,,656b73a9361febf855fa6f6c,2024-02-19_04h12.09.580,kallum_motion_pilot,2023.2.2,Win32,59.78000956,656b73a9361febf855fa6f6c,65d2b6c8f2eece985d8e374c,65d2b8dbd007f5631ea9301d,0.0199,0.02,0,42,42,48,1,onetwo,,,,,,,,,,,,,,,,,,,,,,,,,,,,,,,,,,,,,,,,,,,,,,,,,,,,,,,,,,,,,,,,,,,,,,,,,,,,,,,,,,,,,,,,,,,,,,,,,,,,,,,,,,,,,,,,,,,,,,,,,,,,,,,,,,,,,,,,,
,,656b73a9361febf855fa6f6c,2024-02-19_04h12.09.580,kallum_motion_pilot,2023.2.2,Win32,59.78000956,656b73a9361febf855fa6f6c,65d2b6c8f2eece985d8e374c,65d2b8dbd007f5631ea9301d,0.02,0.02,0,43,43,152,1,fivesix,,,,,,,,,,,,,,,,,,,,,,,,,,,,,,,,,,,,,,,,,,,,,,,,,,,,,,,,,,,,,,,,,,,,,,,,,,,,,,,,,,,,,,,,,,,,,,,,,,,,,,,,,,,,,,,,,,,,,,,,,,,,,,,,,,,,,,,,,
,,656b73a9361febf855fa6f6c,2024-02-19_04h12.09.580,kallum_motion_pilot,2023.2.2,Win32,59.78000956,656b73a9361febf855fa6f6c,65d2b6c8f2eece985d8e374c,65d2b8dbd007f5631ea9301d,0.0201,0.0201,0,44,44,54,1,fourtwo,,,,,,,,,,,,,,,,,,,,,,,,,,,,,,,,,,,,,,,,,,,,,,,,,,,,,,,,,,,,,,,,,,,,,,,,,,,,,,,,,,,,,,,,,,,,,,,,,,,,,,,,,,,,,,,,,,,,,,,,,,,,,,,,,,,,,,,,,
,,656b73a9361febf855fa6f6c,2024-02-19_04h12.09.580,kallum_motion_pilot,2023.2.2,Win32,59.78000956,656b73a9361febf855fa6f6c,65d2b6c8f2eece985d8e374c,65d2b8dbd007f5631ea9301d,0.0201,0.0202,0,45,45,126,1,eightsix,,,,,,,,,,,,,,,,,,,,,,,,,,,,,,,,,,,,,,,,,,,,,,,,,,,,,,,,,,,,,,,,,,,,,,,,,,,,,,,,,,,,,,,,,,,,,,,,,,,,,,,,,,,,,,,,,,,,,,,,,,,,,,,,,,,,,,,,,
,,656b73a9361febf855fa6f6c,2024-02-19_04h12.09.580,kallum_motion_pilot,2023.2.2,Win32,59.78000956,656b73a9361febf855fa6f6c,65d2b6c8f2eece985d8e374c,65d2b8dbd007f5631ea9301d,0.0202,0.0202,0,46,46,9,1,onethree,,,,,,,,,,,,,,,,,,,,,,,,,,,,,,,,,,,,,,,,,,,,,,,,,,,,,,,,,,,,,,,,,,,,,,,,,,,,,,,,,,,,,,,,,,,,,,,,,,,,,,,,,,,,,,,,,,,,,,,,,,,,,,,,,,,,,,,,,
,,656b73a9361febf855fa6f6c,2024-02-19_04h12.09.580,kallum_motion_pilot,2023.2.2,Win32,59.78000956,656b73a9361febf855fa6f6c,65d2b6c8f2eece985d8e374c,65d2b8dbd007f5631ea9301d,0.0202,0.0203,0,47,47,53,1,threefour,,,,,,,,,,,,,,,,,,,,,,,,,,,,,,,,,,,,,,,,,,,,,,,,,,,,,,,,,,,,,,,,,,,,,,,,,,,,,,,,,,,,,,,,,,,,,,,,,,,,,,,,,,,,,,,,,,,,,,,,,,,,,,,,,,,,,,,,,
,,656b73a9361febf855fa6f6c,2024-02-19_04h12.09.580,kallum_motion_pilot,2023.2.2,Win32,59.78000956,656b73a9361febf855fa6f6c,65d2b6c8f2eece985d8e374c,65d2b8dbd007f5631ea9301d,0.0203,0.0203,0,48,48,79,1,eightseven,,,,,,,,,,,,,,,,,,,,,,,,,,,,,,,,,,,,,,,,,,,,,,,,,,,,,,,,,,,,,,,,,,,,,,,,,,,,,,,,,,,,,,,,,,,,,,,,,,,,,,,,,,,,,,,,,,,,,,,,,,,,,,,,,,,,,,,,,
,,656b73a9361febf855fa6f6c,2024-02-19_04h12.09.580,kallum_motion_pilot,2023.2.2,Win32,59.78000956,656b73a9361febf855fa6f6c,65d2b6c8f2eece985d8e374c,65d2b8dbd007f5631ea9301d,0.0204,0.0204,0,49,49,32,1,onetwo,,,,,,,,,,,,,,,,,,,,,,,,,,,,,,,,,,,,,,,,,,,,,,,,,,,,,,,,,,,,,,,,,,,,,,,,,,,,,,,,,,,,,,,,,,,,,,,,,,,,,,,,,,,,,,,,,,,,,,,,,,,,,,,,,,,,,,,,,
,,656b73a9361febf855fa6f6c,2024-02-19_04h12.09.580,kallum_motion_pilot,2023.2.2,Win32,59.78000956,656b73a9361febf855fa6f6c,65d2b6c8f2eece985d8e374c,65d2b8dbd007f5631ea9301d,0.0205,0.0205,0,50,50,28,1,threeone,,,,,,,,,,,,,,,,,,,,,,,,,,,,,,,,,,,,,,,,,,,,,,,,,,,,,,,,,,,,,,,,,,,,,,,,,,,,,,,,,,,,,,,,,,,,,,,,,,,,,,,,,,,,,,,,,,,,,,,,,,,,,,,,,,,,,,,,,
,,656b73a9361febf855fa6f6c,2024-02-19_04h12.09.580,kallum_motion_pilot,2023.2.2,Win32,59.78000956,656b73a9361febf855fa6f6c,65d2b6c8f2eece985d8e374c,65d2b8dbd007f5631ea9301d,0.0205,0.0205,0,51,51,62,1,fourtwo,,,,,,,,,,,,,,,,,,,,,,,,,,,,,,,,,,,,,,,,,,,,,,,,,,,,,,,,,,,,,,,,,,,,,,,,,,,,,,,,,,,,,,,,,,,,,,,,,,,,,,,,,,,,,,,,,,,,,,,,,,,,,,,,,,,,,,,,,
,,656b73a9361febf855fa6f6c,2024-02-19_04h12.09.580,kallum_motion_pilot,2023.2.2,Win32,59.78000956,656b73a9361febf855fa6f6c,65d2b6c8f2eece985d8e374c,65d2b8dbd007f5631ea9301d,0.0205,0.0205,0,52,52,69,1,threefour,,,,,,,,,,,,,,,,,,,,,,,,,,,,,,,,,,,,,,,,,,,,,,,,,,,,,,,,,,,,,,,,,,,,,,,,,,,,,,,,,,,,,,,,,,,,,,,,,,,,,,,,,,,,,,,,,,,,,,,,,,,,,,,,,,,,,,,,,
,,656b73a9361febf855fa6f6c,2024-02-19_04h12.09.580,kallum_motion_pilot,2023.2.2,Win32,59.78000956,656b73a9361febf855fa6f6c,65d2b6c8f2eece985d8e374c,65d2b8dbd007f5631ea9301d,0.0206,0.0206,0,53,53,36,1,threeone,,,,,,,,,,,,,,,,,,,,,,,,,,,,,,,,,,,,,,,,,,,,,,,,,,,,,,,,,,,,,,,,,,,,,,,,,,,,,,,,,,,,,,,,,,,,,,,,,,,,,,,,,,,,,,,,,,,,,,,,,,,,,,,,,,,,,,,,,
,,656b73a9361febf855fa6f6c,2024-02-19_04h12.09.580,kallum_motion_pilot,2023.2.2,Win32,59.78000956,656b73a9361febf855fa6f6c,65d2b6c8f2eece985d8e374c,65d2b8dbd007f5631ea9301d,0.0206,0.0207,0,54,54,15,1,fourthree,,,,,,,,,,,,,,,,,,,,,,,,,,,,,,,,,,,,,,,,,,,,,,,,,,,,,,,,,,,,,,,,,,,,,,,,,,,,,,,,,,,,,,,,,,,,,,,,,,,,,,,,,,,,,,,,,,,,,,,,,,,,,,,,,,,,,,,,,
,,656b73a9361febf855fa6f6c,2024-02-19_04h12.09.580,kallum_motion_pilot,2023.2.2,Win32,59.78000956,656b73a9361febf855fa6f6c,65d2b6c8f2eece985d8e374c,65d2b8dbd007f5631ea9301d,0.0207,0.0207,0,55,55,26,1,twoone,,,,,,,,,,,,,,,,,,,,,,,,,,,,,,,,,,,,,,,,,,,,,,,,,,,,,,,,,,,,,,,,,,,,,,,,,,,,,,,,,,,,,,,,,,,,,,,,,,,,,,,,,,,,,,,,,,,,,,,,,,,,,,,,,,,,,,,,,
,,656b73a9361febf855fa6f6c,2024-02-19_04h12.09.580,kallum_motion_pilot,2023.2.2,Win32,59.78000956,656b73a9361febf855fa6f6c,65d2b6c8f2eece985d8e374c,65d2b8dbd007f5631ea9301d,0.0208,0.0208,0,56,56,160,1,fivesix,,,,,,,,,,,,,,,,,,,,,,,,,,,,,,,,,,,,,,,,,,,,,,,,,,,,,,,,,,,,,,,,,,,,,,,,,,,,,,,,,,,,,,,,,,,,,,,,,,,,,,,,,,,,,,,,,,,,,,,,,,,,,,,,,,,,,,,,,
,,656b73a9361febf855fa6f6c,2024-02-19_04h12.09.580,kallum_motion_pilot,2023.2.2,Win32,59.78000956,656b73a9361febf855fa6f6c,65d2b6c8f2eece985d8e374c,65d2b8dbd007f5631ea9301d,0.0209,0.0209,0,57,57,115,1,sixeight,,,,,,,,,,,,,,,,,,,,,,,,,,,,,,,,,,,,,,,,,,,,,,,,,,,,,,,,,,,,,,,,,,,,,,,,,,,,,,,,,,,,,,,,,,,,,,,,,,,,,,,,,,,,,,,,,,,,,,,,,,,,,,,,,,,,,,,,,
,,656b73a9361febf855fa6f6c,2024-02-19_04h12.09.580,kallum_motion_pilot,2023.2.2,Win32,59.78000956,656b73a9361febf855fa6f6c,65d2b6c8f2eece985d8e374c,65d2b8dbd007f5631ea9301d,0.021,0.0211,0,58,58,104,1,fivesix,,,,,,,,,,,,,,,,,,,,,,,,,,,,,,,,,,,,,,,,,,,,,,,,,,,,,,,,,,,,,,,,,,,,,,,,,,,,,,,,,,,,,,,,,,,,,,,,,,,,,,,,,,,,,,,,,,,,,,,,,,,,,,,,,,,,,,,,,
,,656b73a9361febf855fa6f6c,2024-02-19_04h12.09.580,kallum_motion_pilot,2023.2.2,Win32,59.78000956,656b73a9361febf855fa6f6c,65d2b6c8f2eece985d8e374c,65d2b8dbd007f5631ea9301d,0.0211,0.0212,0,59,59,51,1,twofour,,,,,,,,,,,,,,,,,,,,,,,,,,,,,,,,,,,,,,,,,,,,,,,,,,,,,,,,,,,,,,,,,,,,,,,,,,,,,,,,,,,,,,,,,,,,,,,,,,,,,,,,,,,,,,,,,,,,,,,,,,,,,,,,,,,,,,,,,
,,656b73a9361febf855fa6f6c,2024-02-19_04h12.09.580,kallum_motion_pilot,2023.2.2,Win32,59.78000956,656b73a9361febf855fa6f6c,65d2b6c8f2eece985d8e374c,65d2b8dbd007f5631ea9301d,0.0212,0.0213,0,60,60,3,1,twofour,,,,,,,,,,,,,,,,,,,,,,,,,,,,,,,,,,,,,,,,,,,,,,,,,,,,,,,,,,,,,,,,,,,,,,,,,,,,,,,,,,,,,,,,,,,,,,,,,,,,,,,,,,,,,,,,,,,,,,,,,,,,,,,,,,,,,,,,,
,,656b73a9361febf855fa6f6c,2024-02-19_04h12.09.580,kallum_motion_pilot,2023.2.2,Win32,59.78000956,656b73a9361febf855fa6f6c,65d2b6c8f2eece985d8e374c,65d2b8dbd007f5631ea9301d,0.0214,0.0214,0,61,61,0,1,onetwo,,,,,,,,,,,,,,,,,,,,,,,,,,,,,,,,,,,,,,,,,,,,,,,,,,,,,,,,,,,,,,,,,,,,,,,,,,,,,,,,,,,,,,,,,,,,,,,,,,,,,,,,,,,,,,,,,,,,,,,,,,,,,,,,,,,,,,,,,
,,656b73a9361febf855fa6f6c,2024-02-19_04h12.09.580,kallum_motion_pilot,2023.2.2,Win32,59.78000956,656b73a9361febf855fa6f6c,65d2b6c8f2eece985d8e374c,65d2b8dbd007f5631ea9301d,0.0215,0.0215,0,62,62,2,1,twoone,,,,,,,,,,,,,,,,,,,,,,,,,,,,,,,,,,,,,,,,,,,,,,,,,,,,,,,,,,,,,,,,,,,,,,,,,,,,,,,,,,,,,,,,,,,,,,,,,,,,,,,,,,,,,,,,,,,,,,,,,,,,,,,,,,,,,,,,,
,,656b73a9361febf855fa6f6c,2024-02-19_04h12.09.580,kallum_motion_pilot,2023.2.2,Win32,59.78000956,656b73a9361febf855fa6f6c,65d2b6c8f2eece985d8e374c,65d2b8dbd007f5631ea9301d,0.0216,0.0216,0,63,63,40,1,onetwo,,,,,,,,,,,,,,,,,,,,,,,,,,,,,,,,,,,,,,,,,,,,,,,,,,,,,,,,,,,,,,,,,,,,,,,,,,,,,,,,,,,,,,,,,,,,,,,,,,,,,,,,,,,,,,,,,,,,,,,,,,,,,,,,,,,,,,,,,
,,656b73a9361febf855fa6f6c,2024-02-19_04h12.09.580,kallum_motion_pilot,2023.2.2,Win32,59.78000956,656b73a9361febf855fa6f6c,65d2b6c8f2eece985d8e374c,65d2b8dbd007f5631ea9301d,0.0217,0.0217,0,64,64,35,1,twofour,,,,,,,,,,,,,,,,,,,,,,,,,,,,,,,,,,,,,,,,,,,,,,,,,,,,,,,,,,,,,,,,,,,,,,,,,,,,,,,,,,,,,,,,,,,,,,,,,,,,,,,,,,,,,,,,,,,,,,,,,,,,,,,,,,,,,,,,,
,,656b73a9361febf855fa6f6c,2024-02-19_04h12.09.580,kallum_motion_pilot,2023.2.2,Win32,59.78000956,656b73a9361febf855fa6f6c,65d2b6c8f2eece985d8e374c,65d2b8dbd007f5631ea9301d,0.0218,0.0219,0,65,65,161,1,fiveseven,,,,,,,,,,,,,,,,,,,,,,,,,,,,,,,,,,,,,,,,,,,,,,,,,,,,,,,,,,,,,,,,,,,,,,,,,,,,,,,,,,,,,,,,,,,,,,,,,,,,,,,,,,,,,,,,,,,,,,,,,,,,,,,,,,,,,,,,,
,,656b73a9361febf855fa6f6c,2024-02-19_04h12.09.580,kallum_motion_pilot,2023.2.2,Win32,59.78000956,656b73a9361febf855fa6f6c,65d2b6c8f2eece985d8e374c,65d2b8dbd007f5631ea9301d,0.0219,0.022,0,66,66,22,1,fourtwo,,,,,,,,,,,,,,,,,,,,,,,,,,,,,,,,,,,,,,,,,,,,,,,,,,,,,,,,,,,,,,,,,,,,,,,,,,,,,,,,,,,,,,,,,,,,,,,,,,,,,,,,,,,,,,,,,,,,,,,,,,,,,,,,,,,,,,,,,
,,656b73a9361febf855fa6f6c,2024-02-19_04h12.09.580,kallum_motion_pilot,2023.2.2,Win32,59.78000956,656b73a9361febf855fa6f6c,65d2b6c8f2eece985d8e374c,65d2b8dbd007f5631ea9301d,0.022,0.022,0,67,67,159,1,eightseven,,,,,,,,,,,,,,,,,,,,,,,,,,,,,,,,,,,,,,,,,,,,,,,,,,,,,,,,,,,,,,,,,,,,,,,,,,,,,,,,,,,,,,,,,,,,,,,,,,,,,,,,,,,,,,,,,,,,,,,,,,,,,,,,,,,,,,,,,
,,656b73a9361febf855fa6f6c,2024-02-19_04h12.09.580,kallum_motion_pilot,2023.2.2,Win32,59.78000956,656b73a9361febf855fa6f6c,65d2b6c8f2eece985d8e374c,65d2b8dbd007f5631ea9301d,0.022,0.0221,0,68,68,156,1,sevenfive,,,,,,,,,,,,,,,,,,,,,,,,,,,,,,,,,,,,,,,,,,,,,,,,,,,,,,,,,,,,,,,,,,,,,,,,,,,,,,,,,,,,,,,,,,,,,,,,,,,,,,,,,,,,,,,,,,,,,,,,,,,,,,,,,,,,,,,,,
,,656b73a9361febf855fa6f6c,2024-02-19_04h12.09.580,kallum_motion_pilot,2023.2.2,Win32,59.78000956,656b73a9361febf855fa6f6c,65d2b6c8f2eece985d8e374c,65d2b8dbd007f5631ea9301d,0.0221,0.0222,0,69,69,117,1,seveneight,,,,,,,,,,,,,,,,,,,,,,,,,,,,,,,,,,,,,,,,,,,,,,,,,,,,,,,,,,,,,,,,,,,,,,,,,,,,,,,,,,,,,,,,,,,,,,,,,,,,,,,,,,,,,,,,,,,,,,,,,,,,,,,,,,,,,,,,,
,,656b73a9361febf855fa6f6c,2024-02-19_04h12.09.580,kallum_motion_pilot,2023.2.2,Win32,59.78000956,656b73a9361febf855fa6f6c,65d2b6c8f2eece985d8e374c,65d2b8dbd007f5631ea9301d,0.0223,0.0223,0,70,70,55,1,fourthree,,,,,,,,,,,,,,,,,,,,,,,,,,,,,,,,,,,,,,,,,,,,,,,,,,,,,,,,,,,,,,,,,,,,,,,,,,,,,,,,,,,,,,,,,,,,,,,,,,,,,,,,,,,,,,,,,,,,,,,,,,,,,,,,,,,,,,,,,
,,656b73a9361febf855fa6f6c,2024-02-19_04h12.09.580,kallum_motion_pilot,2023.2.2,Win32,59.78000956,656b73a9361febf855fa6f6c,65d2b6c8f2eece985d8e374c,65d2b8dbd007f5631ea9301d,0.0223,0.0223,0,71,71,64,1,onetwo,,,,,,,,,,,,,,,,,,,,,,,,,,,,,,,,,,,,,,,,,,,,,,,,,,,,,,,,,,,,,,,,,,,,,,,,,,,,,,,,,,,,,,,,,,,,,,,,,,,,,,,,,,,,,,,,,,,,,,,,,,,,,,,,,,,,,,,,,
,,656b73a9361febf855fa6f6c,2024-02-19_04h12.09.580,kallum_motion_pilot,2023.2.2,Win32,59.78000956,656b73a9361febf855fa6f6c,65d2b6c8f2eece985d8e374c,65d2b8dbd007f5631ea9301d,0.0224,0.0224,0,72,72,57,1,onethree,,,,,,,,,,,,,,,,,,,,,,,,,,,,,,,,,,,,,,,,,,,,,,,,,,,,,,,,,,,,,,,,,,,,,,,,,,,,,,,,,,,,,,,,,,,,,,,,,,,,,,,,,,,,,,,,,,,,,,,,,,,,,,,,,,,,,,,,,
,,656b73a9361febf855fa6f6c,2024-02-19_04h12.09.580,kallum_motion_pilot,2023.2.2,Win32,59.78000956,656b73a9361febf855fa6f6c,65d2b6c8f2eece985d8e374c,65d2b8dbd007f5631ea9301d,0.0225,0.0225,0,73,73,58,1,twoone,,,,,,,,,,,,,,,,,,,,,,,,,,,,,,,,,,,,,,,,,,,,,,,,,,,,,,,,,,,,,,,,,,,,,,,,,,,,,,,,,,,,,,,,,,,,,,,,,,,,,,,,,,,,,,,,,,,,,,,,,,,,,,,,,,,,,,,,,
,,656b73a9361febf855fa6f6c,2024-02-19_04h12.09.580,kallum_motion_pilot,2023.2.2,Win32,59.78000956,656b73a9361febf855fa6f6c,65d2b6c8f2eece985d8e374c,65d2b8dbd007f5631ea9301d,0.0225,0.0226,0,74,74,139,1,sixeight,,,,,,,,,,,,,,,,,,,,,,,,,,,,,,,,,,,,,,,,,,,,,,,,,,,,,,,,,,,,,,,,,,,,,,,,,,,,,,,,,,,,,,,,,,,,,,,,,,,,,,,,,,,,,,,,,,,,,,,,,,,,,,,,,,,,,,,,,
,,656b73a9361febf855fa6f6c,2024-02-19_04h12.09.580,kallum_motion_pilot,2023.2.2,Win32,59.78000956,656b73a9361febf855fa6f6c,65d2b6c8f2eece985d8e374c,65d2b8dbd007f5631ea9301d,0.0227,0.0227,0,75,75,68,1,threeone,,,,,,,,,,,,,,,,,,,,,,,,,,,,,,,,,,,,,,,,,,,,,,,,,,,,,,,,,,,,,,,,,,,,,,,,,,,,,,,,,,,,,,,,,,,,,,,,,,,,,,,,,,,,,,,,,,,,,,,,,,,,,,,,,,,,,,,,,
,,656b73a9361febf855fa6f6c,2024-02-19_04h12.09.580,kallum_motion_pilot,2023.2.2,Win32,59.78000956,656b73a9361febf855fa6f6c,65d2b6c8f2eece985d8e374c,65d2b8dbd007f5631ea9301d,0.0228,0.0228,0,76,76,149,1,seveneight,,,,,,,,,,,,,,,,,,,,,,,,,,,,,,,,,,,,,,,,,,,,,,,,,,,,,,,,,,,,,,,,,,,,,,,,,,,,,,,,,,,,,,,,,,,,,,,,,,,,,,,,,,,,,,,,,,,,,,,,,,,,,,,,,,,,,,,,,
,,656b73a9361febf855fa6f6c,2024-02-19_04h12.09.580,kallum_motion_pilot,2023.2.2,Win32,59.78000956,656b73a9361febf855fa6f6c,65d2b6c8f2eece985d8e374c,65d2b8dbd007f5631ea9301d,0.0228,0.0229,0,77,77,108,1,sevenfive,,,,,,,,,,,,,,,,,,,,,,,,,,,,,,,,,,,,,,,,,,,,,,,,,,,,,,,,,,,,,,,,,,,,,,,,,,,,,,,,,,,,,,,,,,,,,,,,,,,,,,,,,,,,,,,,,,,,,,,,,,,,,,,,,,,,,,,,,
,,656b73a9361febf855fa6f6c,2024-02-19_04h12.09.580,kallum_motion_pilot,2023.2.2,Win32,59.78000956,656b73a9361febf855fa6f6c,65d2b6c8f2eece985d8e374c,65d2b8dbd007f5631ea9301d,0.0229,0.0229,0,78,78,158,1,eightsix,,,,,,,,,,,,,,,,,,,,,,,,,,,,,,,,,,,,,,,,,,,,,,,,,,,,,,,,,,,,,,,,,,,,,,,,,,,,,,,,,,,,,,,,,,,,,,,,,,,,,,,,,,,,,,,,,,,,,,,,,,,,,,,,,,,,,,,,,
,,656b73a9361febf855fa6f6c,2024-02-19_04h12.09.580,kallum_motion_pilot,2023.2.2,Win32,59.78000956,656b73a9361febf855fa6f6c,65d2b6c8f2eece985d8e374c,65d2b8dbd007f5631ea9301d,0.0229,0.0229,0,79,79,37,1,threefour,,,,,,,,,,,,,,,,,,,,,,,,,,,,,,,,,,,,,,,,,,,,,,,,,,,,,,,,,,,,,,,,,,,,,,,,,,,,,,,,,,,,,,,,,,,,,,,,,,,,,,,,,,,,,,,,,,,,,,,,,,,,,,,,,,,,,,,,,
,,656b73a9361febf855fa6f6c,2024-02-19_04h12.09.580,kallum_motion_pilot,2023.2.2,Win32,59.78000956,656b73a9361febf855fa6f6c,65d2b6c8f2eece985d8e374c,65d2b8dbd007f5631ea9301d,0.023,0.023,0,80,80,73,1,onethree,,,,,,,,,,,,,,,,,,,,,,,,,,,,,,,,,,,,,,,,,,,,,,,,,,,,,,,,,,,,,,,,,,,,,,,,,,,,,,,,,,,,,,,,,,,,,,,,,,,,,,,,,,,,,,,,,,,,,,,,,,,,,,,,,,,,,,,,,
,,656b73a9361febf855fa6f6c,2024-02-19_04h12.09.580,kallum_motion_pilot,2023.2.2,Win32,59.78000956,656b73a9361febf855fa6f6c,65d2b6c8f2eece985d8e374c,65d2b8dbd007f5631ea9301d,0.023,0.0231,0,81,81,56,1,onetwo,,,,,,,,,,,,,,,,,,,,,,,,,,,,,,,,,,,,,,,,,,,,,,,,,,,,,,,,,,,,,,,,,,,,,,,,,,,,,,,,,,,,,,,,,,,,,,,,,,,,,,,,,,,,,,,,,,,,,,,,,,,,,,,,,,,,,,,,,
,,656b73a9361febf855fa6f6c,2024-02-19_04h12.09.580,kallum_motion_pilot,2023.2.2,Win32,59.78000956,656b73a9361febf855fa6f6c,65d2b6c8f2eece985d8e374c,65d2b8dbd007f5631ea9301d,0.0231,0.0231,0,82,82,13,1,threefour,,,,,,,,,,,,,,,,,,,,,,,,,,,,,,,,,,,,,,,,,,,,,,,,,,,,,,,,,,,,,,,,,,,,,,,,,,,,,,,,,,,,,,,,,,,,,,,,,,,,,,,,,,,,,,,,,,,,,,,,,,,,,,,,,,,,,,,,,
,,656b73a9361febf855fa6f6c,2024-02-19_04h12.09.580,kallum_motion_pilot,2023.2.2,Win32,59.78000956,656b73a9361febf855fa6f6c,65d2b6c8f2eece985d8e374c,65d2b8dbd007f5631ea9301d,0.0232,0.0232,0,83,83,30,1,fourtwo,,,,,,,,,,,,,,,,,,,,,,,,,,,,,,,,,,,,,,,,,,,,,,,,,,,,,,,,,,,,,,,,,,,,,,,,,,,,,,,,,,,,,,,,,,,,,,,,,,,,,,,,,,,,,,,,,,,,,,,,,,,,,,,,,,,,,,,,,
,,656b73a9361febf855fa6f6c,2024-02-19_04h12.09.580,kallum_motion_pilot,2023.2.2,Win32,59.78000956,656b73a9361febf855fa6f6c,65d2b6c8f2eece985d8e374c,65d2b8dbd007f5631ea9301d,0.0233,0.0233,0,84,84,148,1,sevenfive,,,,,,,,,,,,,,,,,,,,,,,,,,,,,,,,,,,,,,,,,,,,,,,,,,,,,,,,,,,,,,,,,,,,,,,,,,,,,,,,,,,,,,,,,,,,,,,,,,,,,,,,,,,,,,,,,,,,,,,,,,,,,,,,,,,,,,,,,
,,656b73a9361febf855fa6f6c,2024-02-19_04h12.09.580,kallum_motion_pilot,2023.2.2,Win32,59.78000956,656b73a9361febf855fa6f6c,65d2b6c8f2eece985d8e374c,65d2b8dbd007f5631ea9301d,0.0233,0.0233,0,85,85,137,1,fiveseven,,,,,,,,,,,,,,,,,,,,,,,,,,,,,,,,,,,,,,,,,,,,,,,,,,,,,,,,,,,,,,,,,,,,,,,,,,,,,,,,,,,,,,,,,,,,,,,,,,,,,,,,,,,,,,,,,,,,,,,,,,,,,,,,,,,,,,,,,
,,656b73a9361febf855fa6f6c,2024-02-19_04h12.09.580,kallum_motion_pilot,2023.2.2,Win32,59.78000956,656b73a9361febf855fa6f6c,65d2b6c8f2eece985d8e374c,65d2b8dbd007f5631ea9301d,0.0233,0.0235,0,86,86,52,1,threeone,,,,,,,,,,,,,,,,,,,,,,,,,,,,,,,,,,,,,,,,,,,,,,,,,,,,,,,,,,,,,,,,,,,,,,,,,,,,,,,,,,,,,,,,,,,,,,,,,,,,,,,,,,,,,,,,,,,,,,,,,,,,,,,,,,,,,,,,,
,,656b73a9361febf855fa6f6c,2024-02-19_04h12.09.580,kallum_motion_pilot,2023.2.2,Win32,59.78000956,656b73a9361febf855fa6f6c,65d2b6c8f2eece985d8e374c,65d2b8dbd007f5631ea9301d,0.0235,0.0235,0,87,87,43,1,twofour,,,,,,,,,,,,,,,,,,,,,,,,,,,,,,,,,,,,,,,,,,,,,,,,,,,,,,,,,,,,,,,,,,,,,,,,,,,,,,,,,,,,,,,,,,,,,,,,,,,,,,,,,,,,,,,,,,,,,,,,,,,,,,,,,,,,,,,,,
,,656b73a9361febf855fa6f6c,2024-02-19_04h12.09.580,kallum_motion_pilot,2023.2.2,Win32,59.78000956,656b73a9361febf855fa6f6c,65d2b6c8f2eece985d8e374c,65d2b8dbd007f5631ea9301d,0.0236,0.0236,0,88,88,136,1,fivesix,,,,,,,,,,,,,,,,,,,,,,,,,,,,,,,,,,,,,,,,,,,,,,,,,,,,,,,,,,,,,,,,,,,,,,,,,,,,,,,,,,,,,,,,,,,,,,,,,,,,,,,,,,,,,,,,,,,,,,,,,,,,,,,,,,,,,,,,,
,,656b73a9361febf855fa6f6c,2024-02-19_04h12.09.580,kallum_motion_pilot,2023.2.2,Win32,59.78000956,656b73a9361febf855fa6f6c,65d2b6c8f2eece985d8e374c,65d2b8dbd007f5631ea9301d,0.0236,0.0236,0,89,89,39,1,fourthree,,,,,,,,,,,,,,,,,,,,,,,,,,,,,,,,,,,,,,,,,,,,,,,,,,,,,,,,,,,,,,,,,,,,,,,,,,,,,,,,,,,,,,,,,,,,,,,,,,,,,,,,,,,,,,,,,,,,,,,,,,,,,,,,,,,,,,,,,
,,656b73a9361febf855fa6f6c,2024-02-19_04h12.09.580,kallum_motion_pilot,2023.2.2,Win32,59.78000956,656b73a9361febf855fa6f6c,65d2b6c8f2eece985d8e374c,65d2b8dbd007f5631ea9301d,0.0236,0.0236,0,90,90,116,1,sevenfive,,,,,,,,,,,,,,,,,,,,,,,,,,,,,,,,,,,,,,,,,,,,,,,,,,,,,,,,,,,,,,,,,,,,,,,,,,,,,,,,,,,,,,,,,,,,,,,,,,,,,,,,,,,,,,,,,,,,,,,,,,,,,,,,,,,,,,,,,
,,656b73a9361febf855fa6f6c,2024-02-19_04h12.09.580,kallum_motion_pilot,2023.2.2,Win32,59.78000956,656b73a9361febf855fa6f6c,65d2b6c8f2eece985d8e374c,65d2b8dbd007f5631ea9301d,0.0237,0.0237,0,91,91,14,1,fourtwo,,,,,,,,,,,,,,,,,,,,,,,,,,,,,,,,,,,,,,,,,,,,,,,,,,,,,,,,,,,,,,,,,,,,,,,,,,,,,,,,,,,,,,,,,,,,,,,,,,,,,,,,,,,,,,,,,,,,,,,,,,,,,,,,,,,,,,,,,
,,656b73a9361febf855fa6f6c,2024-02-19_04h12.09.580,kallum_motion_pilot,2023.2.2,Win32,59.78000956,656b73a9361febf855fa6f6c,65d2b6c8f2eece985d8e374c,65d2b8dbd007f5631ea9301d,0.0238,0.0238,0,92,92,120,1,fivesix,,,,,,,,,,,,,,,,,,,,,,,,,,,,,,,,,,,,,,,,,,,,,,,,,,,,,,,,,,,,,,,,,,,,,,,,,,,,,,,,,,,,,,,,,,,,,,,,,,,,,,,,,,,,,,,,,,,,,,,,,,,,,,,,,,,,,,,,,
,,656b73a9361febf855fa6f6c,2024-02-19_04h12.09.580,kallum_motion_pilot,2023.2.2,Win32,59.78000956,656b73a9361febf855fa6f6c,65d2b6c8f2eece985d8e374c,65d2b8dbd007f5631ea9301d,0.0239,0.0239,0,93,93,34,1,twoone,,,,,,,,,,,,,,,,,,,,,,,,,,,,,,,,,,,,,,,,,,,,,,,,,,,,,,,,,,,,,,,,,,,,,,,,,,,,,,,,,,,,,,,,,,,,,,,,,,,,,,,,,,,,,,,,,,,,,,,,,,,,,,,,,,,,,,,,,
,,656b73a9361febf855fa6f6c,2024-02-19_04h12.09.580,kallum_motion_pilot,2023.2.2,Win32,59.78000956,656b73a9361febf855fa6f6c,65d2b6c8f2eece985d8e374c,65d2b8dbd007f5631ea9301d,0.0239,0.0239,0,94,94,75,1,twofour,,,,,,,,,,,,,,,,,,,,,,,,,,,,,,,,,,,,,,,,,,,,,,,,,,,,,,,,,,,,,,,,,,,,,,,,,,,,,,,,,,,,,,,,,,,,,,,,,,,,,,,,,,,,,,,,,,,,,,,,,,,,,,,,,,,,,,,,,
,,656b73a9361febf855fa6f6c,2024-02-19_04h12.09.580,kallum_motion_pilot,2023.2.2,Win32,59.78000956,656b73a9361febf855fa6f6c,65d2b6c8f2eece985d8e374c,65d2b8dbd007f5631ea9301d,0.024,0.024,0,95,95,97,1,fiveseven,,,,,,,,,,,,,,,,,,,,,,,,,,,,,,,,,,,,,,,,,,,,,,,,,,,,,,,,,,,,,,,,,,,,,,,,,,,,,,,,,,,,,,,,,,,,,,,,,,,,,,,,,,,,,,,,,,,,,,,,,,,,,,,,,,,,,,,,,
,,656b73a9361febf855fa6f6c,2024-02-19_04h12.09.580,kallum_motion_pilot,2023.2.2,Win32,59.78000956,656b73a9361febf855fa6f6c,65d2b6c8f2eece985d8e374c,65d2b8dbd007f5631ea9301d,0.0241,0.0241,0,96,96,21,1,threefour,,,,,,,,,,,,,,,,,,,,,,,,,,,,,,,,,,,,,,,,,,,,,,,,,,,,,,,,,,,,,,,,,,,,,,,,,,,,,,,,,,,,,,,,,,,,,,,,,,,,,,,,,,,,,,,,,,,,,,,,,,,,,,,,,,,,,,,,,
,,656b73a9361febf855fa6f6c,2024-02-19_04h12.09.580,kallum_motion_pilot,2023.2.2,Win32,59.78000956,656b73a9361febf855fa6f6c,65d2b6c8f2eece985d8e374c,65d2b8dbd007f5631ea9301d,0.0246,0.0246,0,97,97,125,1,seveneight,,,,,,,,,,,,,,,,,,,,,,,,,,,,,,,,,,,,,,,,,,,,,,,,,,,,,,,,,,,,,,,,,,,,,,,,,,,,,,,,,,,,,,,,,,,,,,,,,,,,,,,,,,,,,,,,,,,,,,,,,,,,,,,,,,,,,,,,,
,,656b73a9361febf855fa6f6c,2024-02-19_04h12.09.580,kallum_motion_pilot,2023.2.2,Win32,59.78000956,656b73a9361febf855fa6f6c,65d2b6c8f2eece985d8e374c,65d2b8dbd007f5631ea9301d,0.0247,0.0247,0,98,98,76,1,threeone,,,,,,,,,,,,,,,,,,,,,,,,,,,,,,,,,,,,,,,,,,,,,,,,,,,,,,,,,,,,,,,,,,,,,,,,,,,,,,,,,,,,,,,,,,,,,,,,,,,,,,,,,,,,,,,,,,,,,,,,,,,,,,,,,,,,,,,,,
,,656b73a9361febf855fa6f6c,2024-02-19_04h12.09.580,kallum_motion_pilot,2023.2.2,Win32,59.78000956,656b73a9361febf855fa6f6c,65d2b6c8f2eece985d8e374c,65d2b8dbd007f5631ea9301d,0.0248,0.0248,0,99,99,98,1,sixfive,,,,,,,,,,,,,,,,,,,,,,,,,,,,,,,,,,,,,,,,,,,,,,,,,,,,,,,,,,,,,,,,,,,,,,,,,,,,,,,,,,,,,,,,,,,,,,,,,,,,,,,,,,,,,,,,,,,,,,,,,,,,,,,,,,,,,,,,,
,,656b73a9361febf855fa6f6c,2024-02-19_04h12.09.580,kallum_motion_pilot,2023.2.2,Win32,59.78000956,656b73a9361febf855fa6f6c,65d2b6c8f2eece985d8e374c,65d2b8dbd007f5631ea9301d,0.0249,0.0249,0,100,100,20,1,threeone,,,,,,,,,,,,,,,,,,,,,,,,,,,,,,,,,,,,,,,,,,,,,,,,,,,,,,,,,,,,,,,,,,,,,,,,,,,,,,,,,,,,,,,,,,,,,,,,,,,,,,,,,,,,,,,,,,,,,,,,,,,,,,,,,,,,,,,,,
,,656b73a9361febf855fa6f6c,2024-02-19_04h12.09.580,kallum_motion_pilot,2023.2.2,Win32,59.78000956,656b73a9361febf855fa6f6c,65d2b6c8f2eece985d8e374c,65d2b8dbd007f5631ea9301d,0.0249,0.025,0,101,101,4,1,threeone,,,,,,,,,,,,,,,,,,,,,,,,,,,,,,,,,,,,,,,,,,,,,,,,,,,,,,,,,,,,,,,,,,,,,,,,,,,,,,,,,,,,,,,,,,,,,,,,,,,,,,,,,,,,,,,,,,,,,,,,,,,,,,,,,,,,,,,,,
,,656b73a9361febf855fa6f6c,2024-02-19_04h12.09.580,kallum_motion_pilot,2023.2.2,Win32,59.78000956,656b73a9361febf855fa6f6c,65d2b6c8f2eece985d8e374c,65d2b8dbd007f5631ea9301d,0.0251,0.0251,0,102,102,146,1,sixfive,,,,,,,,,,,,,,,,,,,,,,,,,,,,,,,,,,,,,,,,,,,,,,,,,,,,,,,,,,,,,,,,,,,,,,,,,,,,,,,,,,,,,,,,,,,,,,,,,,,,,,,,,,,,,,,,,,,,,,,,,,,,,,,,,,,,,,,,,
,,656b73a9361febf855fa6f6c,2024-02-19_04h12.09.580,kallum_motion_pilot,2023.2.2,Win32,59.78000956,656b73a9361febf855fa6f6c,65d2b6c8f2eece985d8e374c,65d2b8dbd007f5631ea9301d,0.0251,0.0252,0,103,103,8,1,onetwo,,,,,,,,,,,,,,,,,,,,,,,,,,,,,,,,,,,,,,,,,,,,,,,,,,,,,,,,,,,,,,,,,,,,,,,,,,,,,,,,,,,,,,,,,,,,,,,,,,,,,,,,,,,,,,,,,,,,,,,,,,,,,,,,,,,,,,,,,
,,656b73a9361febf855fa6f6c,2024-02-19_04h12.09.580,kallum_motion_pilot,2023.2.2,Win32,59.78000956,656b73a9361febf855fa6f6c,65d2b6c8f2eece985d8e374c,65d2b8dbd007f5631ea9301d,0.0252,0.0252,0,104,104,46,1,fourtwo,,,,,,,,,,,,,,,,,,,,,,,,,,,,,,,,,,,,,,,,,,,,,,,,,,,,,,,,,,,,,,,,,,,,,,,,,,,,,,,,,,,,,,,,,,,,,,,,,,,,,,,,,,,,,,,,,,,,,,,,,,,,,,,,,,,,,,,,,
,,656b73a9361febf855fa6f6c,2024-02-19_04h12.09.580,kallum_motion_pilot,2023.2.2,Win32,59.78000956,656b73a9361febf855fa6f6c,65d2b6c8f2eece985d8e374c,65d2b8dbd007f5631ea9301d,0.0253,0.0253,0,105,105,112,1,fivesix,,,,,,,,,,,,,,,,,,,,,,,,,,,,,,,,,,,,,,,,,,,,,,,,,,,,,,,,,,,,,,,,,,,,,,,,,,,,,,,,,,,,,,,,,,,,,,,,,,,,,,,,,,,,,,,,,,,,,,,,,,,,,,,,,,,,,,,,,
,,656b73a9361febf855fa6f6c,2024-02-19_04h12.09.580,kallum_motion_pilot,2023.2.2,Win32,59.78000956,656b73a9361febf855fa6f6c,65d2b6c8f2eece985d8e374c,65d2b8dbd007f5631ea9301d,0.0253,0.0254,0,106,106,33,1,onethree,,,,,,,,,,,,,,,,,,,,,,,,,,,,,,,,,,,,,,,,,,,,,,,,,,,,,,,,,,,,,,,,,,,,,,,,,,,,,,,,,,,,,,,,,,,,,,,,,,,,,,,,,,,,,,,,,,,,,,,,,,,,,,,,,,,,,,,,,
,,656b73a9361febf855fa6f6c,2024-02-19_04h12.09.580,kallum_motion_pilot,2023.2.2,Win32,59.78000956,656b73a9361febf855fa6f6c,65d2b6c8f2eece985d8e374c,65d2b8dbd007f5631ea9301d,0.0254,0.0254,0,107,107,27,1,twofour,,,,,,,,,,,,,,,,,,,,,,,,,,,,,,,,,,,,,,,,,,,,,,,,,,,,,,,,,,,,,,,,,,,,,,,,,,,,,,,,,,,,,,,,,,,,,,,,,,,,,,,,,,,,,,,,,,,,,,,,,,,,,,,,,,,,,,,,,
,,656b73a9361febf855fa6f6c,2024-02-19_04h12.09.580,kallum_motion_pilot,2023.2.2,Win32,59.78000956,656b73a9361febf855fa6f6c,65d2b6c8f2eece985d8e374c,65d2b8dbd007f5631ea9301d,0.0255,0.0255,0,108,108,154,1,sixfive,,,,,,,,,,,,,,,,,,,,,,,,,,,,,,,,,,,,,,,,,,,,,,,,,,,,,,,,,,,,,,,,,,,,,,,,,,,,,,,,,,,,,,,,,,,,,,,,,,,,,,,,,,,,,,,,,,,,,,,,,,,,,,,,,,,,,,,,,
,,656b73a9361febf855fa6f6c,2024-02-19_04h12.09.580,kallum_motion_pilot,2023.2.2,Win32,59.78000956,656b73a9361febf855fa6f6c,65d2b6c8f2eece985d8e374c,65d2b8dbd007f5631ea9301d,0.0255,0.0256,0,109,109,23,1,fourthree,,,,,,,,,,,,,,,,,,,,,,,,,,,,,,,,,,,,,,,,,,,,,,,,,,,,,,,,,,,,,,,,,,,,,,,,,,,,,,,,,,,,,,,,,,,,,,,,,,,,,,,,,,,,,,,,,,,,,,,,,,,,,,,,,,,,,,,,,
,,656b73a9361febf855fa6f6c,2024-02-19_04h12.09.580,kallum_motion_pilot,2023.2.2,Win32,59.78000956,656b73a9361febf855fa6f6c,65d2b6c8f2eece985d8e374c,65d2b8dbd007f5631ea9301d,0.0256,0.0256,0,110,110,101,1,seveneight,,,,,,,,,,,,,,,,,,,,,,,,,,,,,,,,,,,,,,,,,,,,,,,,,,,,,,,,,,,,,,,,,,,,,,,,,,,,,,,,,,,,,,,,,,,,,,,,,,,,,,,,,,,,,,,,,,,,,,,,,,,,,,,,,,,,,,,,,
,,656b73a9361febf855fa6f6c,2024-02-19_04h12.09.580,kallum_motion_pilot,2023.2.2,Win32,59.78000956,656b73a9361febf855fa6f6c,65d2b6c8f2eece985d8e374c,65d2b8dbd007f5631ea9301d,0.0257,0.0257,0,111,111,89,1,fiveseven,,,,,,,,,,,,,,,,,,,,,,,,,,,,,,,,,,,,,,,,,,,,,,,,,,,,,,,,,,,,,,,,,,,,,,,,,,,,,,,,,,,,,,,,,,,,,,,,,,,,,,,,,,,,,,,,,,,,,,,,,,,,,,,,,,,,,,,,,
,,656b73a9361febf855fa6f6c,2024-02-19_04h12.09.580,kallum_motion_pilot,2023.2.2,Win32,59.78000956,656b73a9361febf855fa6f6c,65d2b6c8f2eece985d8e374c,65d2b8dbd007f5631ea9301d,0.0257,0.0258,0,112,112,107,1,sixeight,,,,,,,,,,,,,,,,,,,,,,,,,,,,,,,,,,,,,,,,,,,,,,,,,,,,,,,,,,,,,,,,,,,,,,,,,,,,,,,,,,,,,,,,,,,,,,,,,,,,,,,,,,,,,,,,,,,,,,,,,,,,,,,,,,,,,,,,,
,,656b73a9361febf855fa6f6c,2024-02-19_04h12.09.580,kallum_motion_pilot,2023.2.2,Win32,59.78000956,656b73a9361febf855fa6f6c,65d2b6c8f2eece985d8e374c,65d2b8dbd007f5631ea9301d,0.0259,0.0259,0,113,113,83,1,sixeight,,,,,,,,,,,,,,,,,,,,,,,,,,,,,,,,,,,,,,,,,,,,,,,,,,,,,,,,,,,,,,,,,,,,,,,,,,,,,,,,,,,,,,,,,,,,,,,,,,,,,,,,,,,,,,,,,,,,,,,,,,,,,,,,,,,,,,,,,
,,656b73a9361febf855fa6f6c,2024-02-19_04h12.09.580,kallum_motion_pilot,2023.2.2,Win32,59.78000956,656b73a9361febf855fa6f6c,65d2b6c8f2eece985d8e374c,65d2b8dbd007f5631ea9301d,0.0259,0.026,0,114,114,131,1,sixeight,,,,,,,,,,,,,,,,,,,,,,,,,,,,,,,,,,,,,,,,,,,,,,,,,,,,,,,,,,,,,,,,,,,,,,,,,,,,,,,,,,,,,,,,,,,,,,,,,,,,,,,,,,,,,,,,,,,,,,,,,,,,,,,,,,,,,,,,,
,,656b73a9361febf855fa6f6c,2024-02-19_04h12.09.580,kallum_motion_pilot,2023.2.2,Win32,59.78000956,656b73a9361febf855fa6f6c,65d2b6c8f2eece985d8e374c,65d2b8dbd007f5631ea9301d,0.026,0.0261,0,115,115,99,1,sixeight,,,,,,,,,,,,,,,,,,,,,,,,,,,,,,,,,,,,,,,,,,,,,,,,,,,,,,,,,,,,,,,,,,,,,,,,,,,,,,,,,,,,,,,,,,,,,,,,,,,,,,,,,,,,,,,,,,,,,,,,,,,,,,,,,,,,,,,,,
,,656b73a9361febf855fa6f6c,2024-02-19_04h12.09.580,kallum_motion_pilot,2023.2.2,Win32,59.78000956,656b73a9361febf855fa6f6c,65d2b6c8f2eece985d8e374c,65d2b8dbd007f5631ea9301d,0.0261,0.0261,0,116,116,18,1,twoone,,,,,,,,,,,,,,,,,,,,,,,,,,,,,,,,,,,,,,,,,,,,,,,,,,,,,,,,,,,,,,,,,,,,,,,,,,,,,,,,,,,,,,,,,,,,,,,,,,,,,,,,,,,,,,,,,,,,,,,,,,,,,,,,,,,,,,,,,
,,656b73a9361febf855fa6f6c,2024-02-19_04h12.09.580,kallum_motion_pilot,2023.2.2,Win32,59.78000956,656b73a9361febf855fa6f6c,65d2b6c8f2eece985d8e374c,65d2b8dbd007f5631ea9301d,0.0261,0.0261,0,117,117,45,1,threefour,,,,,,,,,,,,,,,,,,,,,,,,,,,,,,,,,,,,,,,,,,,,,,,,,,,,,,,,,,,,,,,,,,,,,,,,,,,,,,,,,,,,,,,,,,,,,,,,,,,,,,,,,,,,,,,,,,,,,,,,,,,,,,,,,,,,,,,,,
,,656b73a9361febf855fa6f6c,2024-02-19_04h12.09.580,kallum_motion_pilot,2023.2.2,Win32,59.78000956,656b73a9361febf855fa6f6c,65d2b6c8f2eece985d8e374c,65d2b8dbd007f5631ea9301d,0.0261,0.0262,0,118,118,151,1,eightseven,,,,,,,,,,,,,,,,,,,,,,,,,,,,,,,,,,,,,,,,,,,,,,,,,,,,,,,,,,,,,,,,,,,,,,,,,,,,,,,,,,,,,,,,,,,,,,,,,,,,,,,,,,,,,,,,,,,,,,,,,,,,,,,,,,,,,,,,,
,,656b73a9361febf855fa6f6c,2024-02-19_04h12.09.580,kallum_motion_pilot,2023.2.2,Win32,59.78000956,656b73a9361febf855fa6f6c,65d2b6c8f2eece985d8e374c,65d2b8dbd007f5631ea9301d,0.0262,0.0263,0,119,119,70,1,fourtwo,,,,,,,,,,,,,,,,,,,,,,,,,,,,,,,,,,,,,,,,,,,,,,,,,,,,,,,,,,,,,,,,,,,,,,,,,,,,,,,,,,,,,,,,,,,,,,,,,,,,,,,,,,,,,,,,,,,,,,,,,,,,,,,,,,,,,,,,,
,,656b73a9361febf855fa6f6c,2024-02-19_04h12.09.580,kallum_motion_pilot,2023.2.2,Win32,59.78000956,656b73a9361febf855fa6f6c,65d2b6c8f2eece985d8e374c,65d2b8dbd007f5631ea9301d,0.0263,0.0264,0,120,120,155,1,sixeight,,,,,,,,,,,,,,,,,,,,,,,,,,,,,,,,,,,,,,,,,,,,,,,,,,,,,,,,,,,,,,,,,,,,,,,,,,,,,,,,,,,,,,,,,,,,,,,,,,,,,,,,,,,,,,,,,,,,,,,,,,,,,,,,,,,,,,,,,
,,656b73a9361febf855fa6f6c,2024-02-19_04h12.09.580,kallum_motion_pilot,2023.2.2,Win32,59.78000956,656b73a9361febf855fa6f6c,65d2b6c8f2eece985d8e374c,65d2b8dbd007f5631ea9301d,0.0264,0.0264,0,121,121,31,1,fourthree,,,,,,,,,,,,,,,,,,,,,,,,,,,,,,,,,,,,,,,,,,,,,,,,,,,,,,,,,,,,,,,,,,,,,,,,,,,,,,,,,,,,,,,,,,,,,,,,,,,,,,,,,,,,,,,,,,,,,,,,,,,,,,,,,,,,,,,,,
,,656b73a9361febf855fa6f6c,2024-02-19_04h12.09.580,kallum_motion_pilot,2023.2.2,Win32,59.78000956,656b73a9361febf855fa6f6c,65d2b6c8f2eece985d8e374c,65d2b8dbd007f5631ea9301d,0.0265,0.0265,0,122,122,157,1,seveneight,,,,,,,,,,,,,,,,,,,,,,,,,,,,,,,,,,,,,,,,,,,,,,,,,,,,,,,,,,,,,,,,,,,,,,,,,,,,,,,,,,,,,,,,,,,,,,,,,,,,,,,,,,,,,,,,,,,,,,,,,,,,,,,,,,,,,,,,,
,,656b73a9361febf855fa6f6c,2024-02-19_04h12.09.580,kallum_motion_pilot,2023.2.2,Win32,59.78000956,656b73a9361febf855fa6f6c,65d2b6c8f2eece985d8e374c,65d2b8dbd007f5631ea9301d,0.0265,0.0266,0,123,123,124,1,sevenfive,,,,,,,,,,,,,,,,,,,,,,,,,,,,,,,,,,,,,,,,,,,,,,,,,,,,,,,,,,,,,,,,,,,,,,,,,,,,,,,,,,,,,,,,,,,,,,,,,,,,,,,,,,,,,,,,,,,,,,,,,,,,,,,,,,,,,,,,,
,,656b73a9361febf855fa6f6c,2024-02-19_04h12.09.580,kallum_motion_pilot,2023.2.2,Win32,59.78000956,656b73a9361febf855fa6f6c,65d2b6c8f2eece985d8e374c,65d2b8dbd007f5631ea9301d,0.0266,0.0267,0,124,124,77,1,threefour,,,,,,,,,,,,,,,,,,,,,,,,,,,,,,,,,,,,,,,,,,,,,,,,,,,,,,,,,,,,,,,,,,,,,,,,,,,,,,,,,,,,,,,,,,,,,,,,,,,,,,,,,,,,,,,,,,,,,,,,,,,,,,,,,,,,,,,,,
,,656b73a9361febf855fa6f6c,2024-02-19_04h12.09.580,kallum_motion_pilot,2023.2.2,Win32,59.78000956,656b73a9361febf855fa6f6c,65d2b6c8f2eece985d8e374c,65d2b8dbd007f5631ea9301d,0.0267,0.0267,0,125,125,47,1,fourthree,,,,,,,,,,,,,,,,,,,,,,,,,,,,,,,,,,,,,,,,,,,,,,,,,,,,,,,,,,,,,,,,,,,,,,,,,,,,,,,,,,,,,,,,,,,,,,,,,,,,,,,,,,,,,,,,,,,,,,,,,,,,,,,,,,,,,,,,,
,,656b73a9361febf855fa6f6c,2024-02-19_04h12.09.580,kallum_motion_pilot,2023.2.2,Win32,59.78000956,656b73a9361febf855fa6f6c,65d2b6c8f2eece985d8e374c,65d2b8dbd007f5631ea9301d,0.0267,0.0267,0,126,126,17,1,onethree,,,,,,,,,,,,,,,,,,,,,,,,,,,,,,,,,,,,,,,,,,,,,,,,,,,,,,,,,,,,,,,,,,,,,,,,,,,,,,,,,,,,,,,,,,,,,,,,,,,,,,,,,,,,,,,,,,,,,,,,,,,,,,,,,,,,,,,,,
,,656b73a9361febf855fa6f6c,2024-02-19_04h12.09.580,kallum_motion_pilot,2023.2.2,Win32,59.78000956,656b73a9361febf855fa6f6c,65d2b6c8f2eece985d8e374c,65d2b8dbd007f5631ea9301d,0.0268,0.0268,0,127,127,143,1,eightseven,,,,,,,,,,,,,,,,,,,,,,,,,,,,,,,,,,,,,,,,,,,,,,,,,,,,,,,,,,,,,,,,,,,,,,,,,,,,,,,,,,,,,,,,,,,,,,,,,,,,,,,,,,,,,,,,,,,,,,,,,,,,,,,,,,,,,,,,,
,,656b73a9361febf855fa6f6c,2024-02-19_04h12.09.580,kallum_motion_pilot,2023.2.2,Win32,59.78000956,656b73a9361febf855fa6f6c,65d2b6c8f2eece985d8e374c,65d2b8dbd007f5631ea9301d,0.0268,0.0269,0,128,128,81,1,fiveseven,,,,,,,,,,,,,,,,,,,,,,,,,,,,,,,,,,,,,,,,,,,,,,,,,,,,,,,,,,,,,,,,,,,,,,,,,,,,,,,,,,,,,,,,,,,,,,,,,,,,,,,,,,,,,,,,,,,,,,,,,,,,,,,,,,,,,,,,,
,,656b73a9361febf855fa6f6c,2024-02-19_04h12.09.580,kallum_motion_pilot,2023.2.2,Win32,59.78000956,656b73a9361febf855fa6f6c,65d2b6c8f2eece985d8e374c,65d2b8dbd007f5631ea9301d,0.027,0.027,0,129,129,133,1,seveneight,,,,,,,,,,,,,,,,,,,,,,,,,,,,,,,,,,,,,,,,,,,,,,,,,,,,,,,,,,,,,,,,,,,,,,,,,,,,,,,,,,,,,,,,,,,,,,,,,,,,,,,,,,,,,,,,,,,,,,,,,,,,,,,,,,,,,,,,,
,,656b73a9361febf855fa6f6c,2024-02-19_04h12.09.580,kallum_motion_pilot,2023.2.2,Win32,59.78000956,656b73a9361febf855fa6f6c,65d2b6c8f2eece985d8e374c,65d2b8dbd007f5631ea9301d,0.027,0.0271,0,130,130,106,1,sixfive,,,,,,,,,,,,,,,,,,,,,,,,,,,,,,,,,,,,,,,,,,,,,,,,,,,,,,,,,,,,,,,,,,,,,,,,,,,,,,,,,,,,,,,,,,,,,,,,,,,,,,,,,,,,,,,,,,,,,,,,,,,,,,,,,,,,,,,,,
,,656b73a9361febf855fa6f6c,2024-02-19_04h12.09.580,kallum_motion_pilot,2023.2.2,Win32,59.78000956,656b73a9361febf855fa6f6c,65d2b6c8f2eece985d8e374c,65d2b8dbd007f5631ea9301d,0.0271,0.0271,0,131,131,123,1,sixeight,,,,,,,,,,,,,,,,,,,,,,,,,,,,,,,,,,,,,,,,,,,,,,,,,,,,,,,,,,,,,,,,,,,,,,,,,,,,,,,,,,,,,,,,,,,,,,,,,,,,,,,,,,,,,,,,,,,,,,,,,,,,,,,,,,,,,,,,,
,,656b73a9361febf855fa6f6c,2024-02-19_04h12.09.580,kallum_motion_pilot,2023.2.2,Win32,59.78000956,656b73a9361febf855fa6f6c,65d2b6c8f2eece985d8e374c,65d2b8dbd007f5631ea9301d,0.0272,0.0272,0,132,132,95,1,eightseven,,,,,,,,,,,,,,,,,,,,,,,,,,,,,,,,,,,,,,,,,,,,,,,,,,,,,,,,,,,,,,,,,,,,,,,,,,,,,,,,,,,,,,,,,,,,,,,,,,,,,,,,,,,,,,,,,,,,,,,,,,,,,,,,,,,,,,,,,
,,656b73a9361febf855fa6f6c,2024-02-19_04h12.09.580,kallum_motion_pilot,2023.2.2,Win32,59.78000956,656b73a9361febf855fa6f6c,65d2b6c8f2eece985d8e374c,65d2b8dbd007f5631ea9301d,0.0273,0.0273,0,133,133,119,1,eightseven,,,,,,,,,,,,,,,,,,,,,,,,,,,,,,,,,,,,,,,,,,,,,,,,,,,,,,,,,,,,,,,,,,,,,,,,,,,,,,,,,,,,,,,,,,,,,,,,,,,,,,,,,,,,,,,,,,,,,,,,,,,,,,,,,,,,,,,,,
,,656b73a9361febf855fa6f6c,2024-02-19_04h12.09.580,kallum_motion_pilot,2023.2.2,Win32,59.78000956,656b73a9361febf855fa6f6c,65d2b6c8f2eece985d8e374c,65d2b8dbd007f5631ea9301d,0.0273,0.0274,0,134,134,134,1,eightsix,,,,,,,,,,,,,,,,,,,,,,,,,,,,,,,,,,,,,,,,,,,,,,,,,,,,,,,,,,,,,,,,,,,,,,,,,,,,,,,,,,,,,,,,,,,,,,,,,,,,,,,,,,,,,,,,,,,,,,,,,,,,,,,,,,,,,,,,,
,,656b73a9361febf855fa6f6c,2024-02-19_04h12.09.580,kallum_motion_pilot,2023.2.2,Win32,59.78000956,656b73a9361febf855fa6f6c,65d2b6c8f2eece985d8e374c,65d2b8dbd007f5631ea9301d,0.0274,0.0274,0,135,135,82,1,sixfive,,,,,,,,,,,,,,,,,,,,,,,,,,,,,,,,,,,,,,,,,,,,,,,,,,,,,,,,,,,,,,,,,,,,,,,,,,,,,,,,,,,,,,,,,,,,,,,,,,,,,,,,,,,,,,,,,,,,,,,,,,,,,,,,,,,,,,,,,
,,656b73a9361febf855fa6f6c,2024-02-19_04h12.09.580,kallum_motion_pilot,2023.2.2,Win32,59.78000956,656b73a9361febf855fa6f6c,65d2b6c8f2eece985d8e374c,65d2b8dbd007f5631ea9301d,0.0274,0.0275,0,136,136,12,1,threeone,,,,,,,,,,,,,,,,,,,,,,,,,,,,,,,,,,,,,,,,,,,,,,,,,,,,,,,,,,,,,,,,,,,,,,,,,,,,,,,,,,,,,,,,,,,,,,,,,,,,,,,,,,,,,,,,,,,,,,,,,,,,,,,,,,,,,,,,,
,,656b73a9361febf855fa6f6c,2024-02-19_04h12.09.580,kallum_motion_pilot,2023.2.2,Win32,59.78000956,656b73a9361febf855fa6f6c,65d2b6c8f2eece985d8e374c,65d2b8dbd007f5631ea9301d,0.0275,0.0275,0,137,137,93,1,seveneight,,,,,,,,,,,,,,,,,,,,,,,,,,,,,,,,,,,,,,,,,,,,,,,,,,,,,,,,,,,,,,,,,,,,,,,,,,,,,,,,,,,,,,,,,,,,,,,,,,,,,,,,,,,,,,,,,,,,,,,,,,,,,,,,,,,,,,,,,
,,656b73a9361febf855fa6f6c,2024-02-19_04h12.09.580,kallum_motion_pilot,2023.2.2,Win32,59.78000956,656b73a9361febf855fa6f6c,65d2b6c8f2eece985d8e374c,65d2b8dbd007f5631ea9301d,0.0276,0.0276,0,138,138,87,1,eightseven,,,,,,,,,,,,,,,,,,,,,,,,,,,,,,,,,,,,,,,,,,,,,,,,,,,,,,,,,,,,,,,,,,,,,,,,,,,,,,,,,,,,,,,,,,,,,,,,,,,,,,,,,,,,,,,,,,,,,,,,,,,,,,,,,,,,,,,,,
,,656b73a9361febf855fa6f6c,2024-02-19_04h12.09.580,kallum_motion_pilot,2023.2.2,Win32,59.78000956,656b73a9361febf855fa6f6c,65d2b6c8f2eece985d8e374c,65d2b8dbd007f5631ea9301d,0.0276,0.0277,0,139,139,141,1,seveneight,,,,,,,,,,,,,,,,,,,,,,,,,,,,,,,,,,,,,,,,,,,,,,,,,,,,,,,,,,,,,,,,,,,,,,,,,,,,,,,,,,,,,,,,,,,,,,,,,,,,,,,,,,,,,,,,,,,,,,,,,,,,,,,,,,,,,,,,,
,,656b73a9361febf855fa6f6c,2024-02-19_04h12.09.580,kallum_motion_pilot,2023.2.2,Win32,59.78000956,656b73a9361febf855fa6f6c,65d2b6c8f2eece985d8e374c,65d2b8dbd007f5631ea9301d,0.0278,0.0278,0,140,140,88,1,fivesix,,,,,,,,,,,,,,,,,,,,,,,,,,,,,,,,,,,,,,,,,,,,,,,,,,,,,,,,,,,,,,,,,,,,,,,,,,,,,,,,,,,,,,,,,,,,,,,,,,,,,,,,,,,,,,,,,,,,,,,,,,,,,,,,,,,,,,,,,
,,656b73a9361febf855fa6f6c,2024-02-19_04h12.09.580,kallum_motion_pilot,2023.2.2,Win32,59.78000956,656b73a9361febf855fa6f6c,65d2b6c8f2eece985d8e374c,65d2b8dbd007f5631ea9301d,0.0278,0.0279,0,141,141,121,1,fiveseven,,,,,,,,,,,,,,,,,,,,,,,,,,,,,,,,,,,,,,,,,,,,,,,,,,,,,,,,,,,,,,,,,,,,,,,,,,,,,,,,,,,,,,,,,,,,,,,,,,,,,,,,,,,,,,,,,,,,,,,,,,,,,,,,,,,,,,,,,
,,656b73a9361febf855fa6f6c,2024-02-19_04h12.09.580,kallum_motion_pilot,2023.2.2,Win32,59.78000956,656b73a9361febf855fa6f6c,65d2b6c8f2eece985d8e374c,65d2b8dbd007f5631ea9301d,0.0279,0.0279,0,142,142,10,1,twoone,,,,,,,,,,,,,,,,,,,,,,,,,,,,,,,,,,,,,,,,,,,,,,,,,,,,,,,,,,,,,,,,,,,,,,,,,,,,,,,,,,,,,,,,,,,,,,,,,,,,,,,,,,,,,,,,,,,,,,,,,,,,,,,,,,,,,,,,,
,,656b73a9361febf855fa6f6c,2024-02-19_04h12.09.580,kallum_motion_pilot,2023.2.2,Win32,59.78000956,656b73a9361febf855fa6f6c,65d2b6c8f2eece985d8e374c,65d2b8dbd007f5631ea9301d,0.028,0.028,0,143,143,65,1,onethree,,,,,,,,,,,,,,,,,,,,,,,,,,,,,,,,,,,,,,,,,,,,,,,,,,,,,,,,,,,,,,,,,,,,,,,,,,,,,,,,,,,,,,,,,,,,,,,,,,,,,,,,,,,,,,,,,,,,,,,,,,,,,,,,,,,,,,,,,
,,656b73a9361febf855fa6f6c,2024-02-19_04h12.09.580,kallum_motion_pilot,2023.2.2,Win32,59.78000956,656b73a9361febf855fa6f6c,65d2b6c8f2eece985d8e374c,65d2b8dbd007f5631ea9301d,0.028,0.0281,0,144,144,144,1,fivesix,,,,,,,,,,,,,,,,,,,,,,,,,,,,,,,,,,,,,,,,,,,,,,,,,,,,,,,,,,,,,,,,,,,,,,,,,,,,,,,,,,,,,,,,,,,,,,,,,,,,,,,,,,,,,,,,,,,,,,,,,,,,,,,,,,,,,,,,,
,,656b73a9361febf855fa6f6c,2024-02-19_04h12.09.580,kallum_motion_pilot,2023.2.2,Win32,59.78000956,656b73a9361febf855fa6f6c,65d2b6c8f2eece985d8e374c,65d2b8dbd007f5631ea9301d,0.0281,0.0281,0,145,145,90,1,sixfive,,,,,,,,,,,,,,,,,,,,,,,,,,,,,,,,,,,,,,,,,,,,,,,,,,,,,,,,,,,,,,,,,,,,,,,,,,,,,,,,,,,,,,,,,,,,,,,,,,,,,,,,,,,,,,,,,,,,,,,,,,,,,,,,,,,,,,,,,
,,656b73a9361febf855fa6f6c,2024-02-19_04h12.09.580,kallum_motion_pilot,2023.2.2,Win32,59.78000956,656b73a9361febf855fa6f6c,65d2b6c8f2eece985d8e374c,65d2b8dbd007f5631ea9301d,0.0282,0.0282,0,146,146,24,1,onetwo,,,,,,,,,,,,,,,,,,,,,,,,,,,,,,,,,,,,,,,,,,,,,,,,,,,,,,,,,,,,,,,,,,,,,,,,,,,,,,,,,,,,,,,,,,,,,,,,,,,,,,,,,,,,,,,,,,,,,,,,,,,,,,,,,,,,,,,,,
,,656b73a9361febf855fa6f6c,2024-02-19_04h12.09.580,kallum_motion_pilot,2023.2.2,Win32,59.78000956,656b73a9361febf855fa6f6c,65d2b6c8f2eece985d8e374c,65d2b8dbd007f5631ea9301d,0.0283,0.0283,0,147,147,147,1,sixeight,,,,,,,,,,,,,,,,,,,,,,,,,,,,,,,,,,,,,,,,,,,,,,,,,,,,,,,,,,,,,,,,,,,,,,,,,,,,,,,,,,,,,,,,,,,,,,,,,,,,,,,,,,,,,,,,,,,,,,,,,,,,,,,,,,,,,,,,,
,,656b73a9361febf855fa6f6c,2024-02-19_04h12.09.580,kallum_motion_pilot,2023.2.2,Win32,59.78000956,656b73a9361febf855fa6f6c,65d2b6c8f2eece985d8e374c,65d2b8dbd007f5631ea9301d,0.0283,0.0283,0,148,148,94,1,eightsix,,,,,,,,,,,,,,,,,,,,,,,,,,,,,,,,,,,,,,,,,,,,,,,,,,,,,,,,,,,,,,,,,,,,,,,,,,,,,,,,,,,,,,,,,,,,,,,,,,,,,,,,,,,,,,,,,,,,,,,,,,,,,,,,,,,,,,,,,
,,656b73a9361febf855fa6f6c,2024-02-19_04h12.09.580,kallum_motion_pilot,2023.2.2,Win32,59.78000956,656b73a9361febf855fa6f6c,65d2b6c8f2eece985d8e374c,65d2b8dbd007f5631ea9301d,0.0284,0.0284,0,149,149,105,1,fiveseven,,,,,,,,,,,,,,,,,,,,,,,,,,,,,,,,,,,,,,,,,,,,,,,,,,,,,,,,,,,,,,,,,,,,,,,,,,,,,,,,,,,,,,,,,,,,,,,,,,,,,,,,,,,,,,,,,,,,,,,,,,,,,,,,,,,,,,,,,
,,656b73a9361febf855fa6f6c,2024-02-19_04h12.09.580,kallum_motion_pilot,2023.2.2,Win32,59.78000956,656b73a9361febf855fa6f6c,65d2b6c8f2eece985d8e374c,65d2b8dbd007f5631ea9301d,0.0285,0.0285,0,150,150,11,1,twofour,,,,,,,,,,,,,,,,,,,,,,,,,,,,,,,,,,,,,,,,,,,,,,,,,,,,,,,,,,,,,,,,,,,,,,,,,,,,,,,,,,,,,,,,,,,,,,,,,,,,,,,,,,,,,,,,,,,,,,,,,,,,,,,,,,,,,,,,,
,,656b73a9361febf855fa6f6c,2024-02-19_04h12.09.580,kallum_motion_pilot,2023.2.2,Win32,59.78000956,656b73a9361febf855fa6f6c,65d2b6c8f2eece985d8e374c,65d2b8dbd007f5631ea9301d,0.0285,0.0285,0,151,151,85,1,seveneight,,,,,,,,,,,,,,,,,,,,,,,,,,,,,,,,,,,,,,,,,,,,,,,,,,,,,,,,,,,,,,,,,,,,,,,,,,,,,,,,,,,,,,,,,,,,,,,,,,,,,,,,,,,,,,,,,,,,,,,,,,,,,,,,,,,,,,,,,
,,656b73a9361febf855fa6f6c,2024-02-19_04h12.09.580,kallum_motion_pilot,2023.2.2,Win32,59.78000956,656b73a9361febf855fa6f6c,65d2b6c8f2eece985d8e374c,65d2b8dbd007f5631ea9301d,0.0287,0.0287,0,152,152,122,1,sixfive,,,,,,,,,,,,,,,,,,,,,,,,,,,,,,,,,,,,,,,,,,,,,,,,,,,,,,,,,,,,,,,,,,,,,,,,,,,,,,,,,,,,,,,,,,,,,,,,,,,,,,,,,,,,,,,,,,,,,,,,,,,,,,,,,,,,,,,,,
,,656b73a9361febf855fa6f6c,2024-02-19_04h12.09.580,kallum_motion_pilot,2023.2.2,Win32,59.78000956,656b73a9361febf855fa6f6c,65d2b6c8f2eece985d8e374c,65d2b8dbd007f5631ea9301d,0.0288,0.0288,0,153,153,138,1,sixfive,,,,,,,,,,,,,,,,,,,,,,,,,,,,,,,,,,,,,,,,,,,,,,,,,,,,,,,,,,,,,,,,,,,,,,,,,,,,,,,,,,,,,,,,,,,,,,,,,,,,,,,,,,,,,,,,,,,,,,,,,,,,,,,,,,,,,,,,,
,,656b73a9361febf855fa6f6c,2024-02-19_04h12.09.580,kallum_motion_pilot,2023.2.2,Win32,59.78000956,656b73a9361febf855fa6f6c,65d2b6c8f2eece985d8e374c,65d2b8dbd007f5631ea9301d,0.0289,0.0289,0,154,154,29,1,threefour,,,,,,,,,,,,,,,,,,,,,,,,,,,,,,,,,,,,,,,,,,,,,,,,,,,,,,,,,,,,,,,,,,,,,,,,,,,,,,,,,,,,,,,,,,,,,,,,,,,,,,,,,,,,,,,,,,,,,,,,,,,,,,,,,,,,,,,,,
,,656b73a9361febf855fa6f6c,2024-02-19_04h12.09.580,kallum_motion_pilot,2023.2.2,Win32,59.78000956,656b73a9361febf855fa6f6c,65d2b6c8f2eece985d8e374c,65d2b8dbd007f5631ea9301d,0.029,0.029,0,155,155,38,1,fourtwo,,,,,,,,,,,,,,,,,,,,,,,,,,,,,,,,,,,,,,,,,,,,,,,,,,,,,,,,,,,,,,,,,,,,,,,,,,,,,,,,,,,,,,,,,,,,,,,,,,,,,,,,,,,,,,,,,,,,,,,,,,,,,,,,,,,,,,,,,
,,656b73a9361febf855fa6f6c,2024-02-19_04h12.09.580,kallum_motion_pilot,2023.2.2,Win32,59.78000956,656b73a9361febf855fa6f6c,65d2b6c8f2eece985d8e374c,65d2b8dbd007f5631ea9301d,0.029,0.0291,0,156,156,118,1,eightsix,,,,,,,,,,,,,,,,,,,,,,,,,,,,,,,,,,,,,,,,,,,,,,,,,,,,,,,,,,,,,,,,,,,,,,,,,,,,,,,,,,,,,,,,,,,,,,,,,,,,,,,,,,,,,,,,,,,,,,,,,,,,,,,,,,,,,,,,,
,,656b73a9361febf855fa6f6c,2024-02-19_04h12.09.580,kallum_motion_pilot,2023.2.2,Win32,59.78000956,656b73a9361febf855fa6f6c,65d2b6c8f2eece985d8e374c,65d2b8dbd007f5631ea9301d,0.0291,0.0292,0,157,157,129,1,fiveseven,,,,,,,,,,,,,,,,,,,,,,,,,,,,,,,,,,,,,,,,,,,,,,,,,,,,,,,,,,,,,,,,,,,,,,,,,,,,,,,,,,,,,,,,,,,,,,,,,,,,,,,,,,,,,,,,,,,,,,,,,,,,,,,,,,,,,,,,,
,,656b73a9361febf855fa6f6c,2024-02-19_04h12.09.580,kallum_motion_pilot,2023.2.2,Win32,59.78000956,656b73a9361febf855fa6f6c,65d2b6c8f2eece985d8e374c,65d2b8dbd007f5631ea9301d,0.0292,0.0293,0,158,158,145,1,fiveseven,,,,,,,,,,,,,,,,,,,,,,,,,,,,,,,,,,,,,,,,,,,,,,,,,,,,,,,,,,,,,,,,,,,,,,,,,,,,,,,,,,,,,,,,,,,,,,,,,,,,,,,,,,,,,,,,,,,,,,,,,,,,,,,,,,,,,,,,,
,,656b73a9361febf855fa6f6c,2024-02-19_04h12.09.580,kallum_motion_pilot,2023.2.2,Win32,59.78000956,656b73a9361febf855fa6f6c,65d2b6c8f2eece985d8e374c,65d2b8dbd007f5631ea9301d,0.0293,0.0293,0,159,159,103,1,eightseven,,,,,,,,,,,,,,,,,,,,,,,,,,,,,,,,,,,,,,,,,,,,,,,,,,,,,,,,,,,,,,,,,,,,,,,,,,,,,,,,,,,,,,,,,,,,,,,,,,,,,,,,,,,,,,,,,,,,,,,,,,,,,,,,,,,,,,,,,
,,656b73a9361febf855fa6f6c,2024-02-19_04h12.09.580,kallum_motion_pilot,2023.2.2,Win32,59.78000956,656b73a9361febf855fa6f6c,65d2b6c8f2eece985d8e374c,65d2b8dbd007f5631ea9301d,0.0293,0.0294,0,160,160,71,1,fourthree,,,,,,,,,,,,,,,,,,,,,,,,,,,,,,,,,,,,,,,,,,,,,,,,,,,,,,,,,,,,,,,,,,,,,,,,,,,,,,,,,,,,,,,,,,,,,,,,,,,,,,,,,,,,,,,,,,,,,,,,,,,,,,,,,,,,,,,,,
,,656b73a9361febf855fa6f6c,2024-02-19_04h12.09.580,kallum_motion_pilot,2023.2.2,Win32,59.78000956,656b73a9361febf855fa6f6c,65d2b6c8f2eece985d8e374c,65d2b8dbd007f5631ea9301d,0.0294,0.0295,0,161,161,135,1,eightseven,,,,,,,,,,,,,,,,,,,,,,,,,,,,,,,,,,,,,,,,,,,,,,,,,,,,,,,,,,,,,,,,,,,,,,,,,,,,,,,,,,,,,,,,,,,,,,,,,,,,,,,,,,,,,,,,,,,,,,,,,,,,,,,,,,,,,,,,,
,,656b73a9361febf855fa6f6c,2024-02-19_04h12.09.580,kallum_motion_pilot,2023.2.2,Win32,59.78000956,656b73a9361febf855fa6f6c,65d2b6c8f2eece985d8e374c,65d2b8dbd007f5631ea9301d,0.0295,0.0296,1,0,162,41,1,onethree,,,,,,,,,,,,,,,,,,,,,,,,,,,,,,,,,,,,,,,,,,,,,,,,,,,,,,,,,,,,,,,,,,,,,,,,,,,,,,,,,,,,,,,,,,,,,,,,,,,,,,,,,,,,,,,,,,,,,,,,,,,,,,,,,,,,,,,,,
,,656b73a9361febf855fa6f6c,2024-02-19_04h12.09.580,kallum_motion_pilot,2023.2.2,Win32,59.78000956,656b73a9361febf855fa6f6c,65d2b6c8f2eece985d8e374c,65d2b8dbd007f5631ea9301d,0.0296,0.0296,1,1,163,40,1,onetwo,,,,,,,,,,,,,,,,,,,,,,,,,,,,,,,,,,,,,,,,,,,,,,,,,,,,,,,,,,,,,,,,,,,,,,,,,,,,,,,,,,,,,,,,,,,,,,,,,,,,,,,,,,,,,,,,,,,,,,,,,,,,,,,,,,,,,,,,,
,,656b73a9361febf855fa6f6c,2024-02-19_04h12.09.580,kallum_motion_pilot,2023.2.2,Win32,59.78000956,656b73a9361febf855fa6f6c,65d2b6c8f2eece985d8e374c,65d2b8dbd007f5631ea9301d,0.0296,0.0296,1,2,164,151,1,eightseven,,,,,,,,,,,,,,,,,,,,,,,,,,,,,,,,,,,,,,,,,,,,,,,,,,,,,,,,,,,,,,,,,,,,,,,,,,,,,,,,,,,,,,,,,,,,,,,,,,,,,,,,,,,,,,,,,,,,,,,,,,,,,,,,,,,,,,,,,
,,656b73a9361febf855fa6f6c,2024-02-19_04h12.09.580,kallum_motion_pilot,2023.2.2,Win32,59.78000956,656b73a9361febf855fa6f6c,65d2b6c8f2eece985d8e374c,65d2b8dbd007f5631ea9301d,0.0297,0.0297,1,3,165,73,1,onethree,,,,,,,,,,,,,,,,,,,,,,,,,,,,,,,,,,,,,,,,,,,,,,,,,,,,,,,,,,,,,,,,,,,,,,,,,,,,,,,,,,,,,,,,,,,,,,,,,,,,,,,,,,,,,,,,,,,,,,,,,,,,,,,,,,,,,,,,,
,,656b73a9361febf855fa6f6c,2024-02-19_04h12.09.580,kallum_motion_pilot,2023.2.2,Win32,59.78000956,656b73a9361febf855fa6f6c,65d2b6c8f2eece985d8e374c,65d2b8dbd007f5631ea9301d,0.0298,0.0298,1,4,166,83,1,sixeight,,,,,,,,,,,,,,,,,,,,,,,,,,,,,,,,,,,,,,,,,,,,,,,,,,,,,,,,,,,,,,,,,,,,,,,,,,,,,,,,,,,,,,,,,,,,,,,,,,,,,,,,,,,,,,,,,,,,,,,,,,,,,,,,,,,,,,,,,
,,656b73a9361febf855fa6f6c,2024-02-19_04h12.09.580,kallum_motion_pilot,2023.2.2,Win32,59.78000956,656b73a9361febf855fa6f6c,65d2b6c8f2eece985d8e374c,65d2b8dbd007f5631ea9301d,0.0299,0.0299,1,5,167,138,1,sixfive,,,,,,,,,,,,,,,,,,,,,,,,,,,,,,,,,,,,,,,,,,,,,,,,,,,,,,,,,,,,,,,,,,,,,,,,,,,,,,,,,,,,,,,,,,,,,,,,,,,,,,,,,,,,,,,,,,,,,,,,,,,,,,,,,,,,,,,,,
,,656b73a9361febf855fa6f6c,2024-02-19_04h12.09.580,kallum_motion_pilot,2023.2.2,Win32,59.78000956,656b73a9361febf855fa6f6c,65d2b6c8f2eece985d8e374c,65d2b8dbd007f5631ea9301d,0.0299,0.03,1,6,168,153,1,fiveseven,,,,,,,,,,,,,,,,,,,,,,,,,,,,,,,,,,,,,,,,,,,,,,,,,,,,,,,,,,,,,,,,,,,,,,,,,,,,,,,,,,,,,,,,,,,,,,,,,,,,,,,,,,,,,,,,,,,,,,,,,,,,,,,,,,,,,,,,,
,,656b73a9361febf855fa6f6c,2024-02-19_04h12.09.580,kallum_motion_pilot,2023.2.2,Win32,59.78000956,656b73a9361febf855fa6f6c,65d2b6c8f2eece985d8e374c,65d2b8dbd007f5631ea9301d,0.03,0.0301,1,7,169,37,1,threefour,,,,,,,,,,,,,,,,,,,,,,,,,,,,,,,,,,,,,,,,,,,,,,,,,,,,,,,,,,,,,,,,,,,,,,,,,,,,,,,,,,,,,,,,,,,,,,,,,,,,,,,,,,,,,,,,,,,,,,,,,,,,,,,,,,,,,,,,,
,,656b73a9361febf855fa6f6c,2024-02-19_04h12.09.580,kallum_motion_pilot,2023.2.2,Win32,59.78000956,656b73a9361febf855fa6f6c,65d2b6c8f2eece985d8e374c,65d2b8dbd007f5631ea9301d,0.0301,0.0301,1,8,170,149,1,seveneight,,,,,,,,,,,,,,,,,,,,,,,,,,,,,,,,,,,,,,,,,,,,,,,,,,,,,,,,,,,,,,,,,,,,,,,,,,,,,,,,,,,,,,,,,,,,,,,,,,,,,,,,,,,,,,,,,,,,,,,,,,,,,,,,,,,,,,,,,
,,656b73a9361febf855fa6f6c,2024-02-19_04h12.09.580,kallum_motion_pilot,2023.2.2,Win32,59.78000956,656b73a9361febf855fa6f6c,65d2b6c8f2eece985d8e374c,65d2b8dbd007f5631ea9301d,0.0304,0.0304,1,9,171,140,1,sevenfive,,,,,,,,,,,,,,,,,,,,,,,,,,,,,,,,,,,,,,,,,,,,,,,,,,,,,,,,,,,,,,,,,,,,,,,,,,,,,,,,,,,,,,,,,,,,,,,,,,,,,,,,,,,,,,,,,,,,,,,,,,,,,,,,,,,,,,,,,
,,656b73a9361febf855fa6f6c,2024-02-19_04h12.09.580,kallum_motion_pilot,2023.2.2,Win32,59.78000956,656b73a9361febf855fa6f6c,65d2b6c8f2eece985d8e374c,65d2b8dbd007f5631ea9301d,0.0304,0.0305,1,10,172,77,1,threefour,,,,,,,,,,,,,,,,,,,,,,,,,,,,,,,,,,,,,,,,,,,,,,,,,,,,,,,,,,,,,,,,,,,,,,,,,,,,,,,,,,,,,,,,,,,,,,,,,,,,,,,,,,,,,,,,,,,,,,,,,,,,,,,,,,,,,,,,,
,,656b73a9361febf855fa6f6c,2024-02-19_04h12.09.580,kallum_motion_pilot,2023.2.2,Win32,59.78000956,656b73a9361febf855fa6f6c,65d2b6c8f2eece985d8e374c,65d2b8dbd007f5631ea9301d,0.0305,0.0306,1,11,173,110,1,eightsix,,,,,,,,,,,,,,,,,,,,,,,,,,,,,,,,,,,,,,,,,,,,,,,,,,,,,,,,,,,,,,,,,,,,,,,,,,,,,,,,,,,,,,,,,,,,,,,,,,,,,,,,,,,,,,,,,,,,,,,,,,,,,,,,,,,,,,,,,
,,656b73a9361febf855fa6f6c,2024-02-19_04h12.09.580,kallum_motion_pilot,2023.2.2,Win32,59.78000956,656b73a9361febf855fa6f6c,65d2b6c8f2eece985d8e374c,65d2b8dbd007f5631ea9301d,0.0306,0.0307,1,12,174,136,1,fivesix,,,,,,,,,,,,,,,,,,,,,,,,,,,,,,,,,,,,,,,,,,,,,,,,,,,,,,,,,,,,,,,,,,,,,,,,,,,,,,,,,,,,,,,,,,,,,,,,,,,,,,,,,,,,,,,,,,,,,,,,,,,,,,,,,,,,,,,,,
,,656b73a9361febf855fa6f6c,2024-02-19_04h12.09.580,kallum_motion_pilot,2023.2.2,Win32,59.78000956,656b73a9361febf855fa6f6c,65d2b6c8f2eece985d8e374c,65d2b8dbd007f5631ea9301d,0.0307,0.0308,1,13,175,46,1,fourtwo,,,,,,,,,,,,,,,,,,,,,,,,,,,,,,,,,,,,,,,,,,,,,,,,,,,,,,,,,,,,,,,,,,,,,,,,,,,,,,,,,,,,,,,,,,,,,,,,,,,,,,,,,,,,,,,,,,,,,,,,,,,,,,,,,,,,,,,,,
,,656b73a9361febf855fa6f6c,2024-02-19_04h12.09.580,kallum_motion_pilot,2023.2.2,Win32,59.78000956,656b73a9361febf855fa6f6c,65d2b6c8f2eece985d8e374c,65d2b8dbd007f5631ea9301d,0.0308,0.0308,1,14,176,59,1,twofour,,,,,,,,,,,,,,,,,,,,,,,,,,,,,,,,,,,,,,,,,,,,,,,,,,,,,,,,,,,,,,,,,,,,,,,,,,,,,,,,,,,,,,,,,,,,,,,,,,,,,,,,,,,,,,,,,,,,,,,,,,,,,,,,,,,,,,,,,
,,656b73a9361febf855fa6f6c,2024-02-19_04h12.09.580,kallum_motion_pilot,2023.2.2,Win32,59.78000956,656b73a9361febf855fa6f6c,65d2b6c8f2eece985d8e374c,65d2b8dbd007f5631ea9301d,0.0309,0.0309,1,15,177,88,1,fivesix,,,,,,,,,,,,,,,,,,,,,,,,,,,,,,,,,,,,,,,,,,,,,,,,,,,,,,,,,,,,,,,,,,,,,,,,,,,,,,,,,,,,,,,,,,,,,,,,,,,,,,,,,,,,,,,,,,,,,,,,,,,,,,,,,,,,,,,,,
,,656b73a9361febf855fa6f6c,2024-02-19_04h12.09.580,kallum_motion_pilot,2023.2.2,Win32,59.78000956,656b73a9361febf855fa6f6c,65d2b6c8f2eece985d8e374c,65d2b8dbd007f5631ea9301d,0.0309,0.0309,1,16,178,34,1,twoone,,,,,,,,,,,,,,,,,,,,,,,,,,,,,,,,,,,,,,,,,,,,,,,,,,,,,,,,,,,,,,,,,,,,,,,,,,,,,,,,,,,,,,,,,,,,,,,,,,,,,,,,,,,,,,,,,,,,,,,,,,,,,,,,,,,,,,,,,
,,656b73a9361febf855fa6f6c,2024-02-19_04h12.09.580,kallum_motion_pilot,2023.2.2,Win32,59.78000956,656b73a9361febf855fa6f6c,65d2b6c8f2eece985d8e374c,65d2b8dbd007f5631ea9301d,0.031,0.031,1,17,179,50,1,twoone,,,,,,,,,,,,,,,,,,,,,,,,,,,,,,,,,,,,,,,,,,,,,,,,,,,,,,,,,,,,,,,,,,,,,,,,,,,,,,,,,,,,,,,,,,,,,,,,,,,,,,,,,,,,,,,,,,,,,,,,,,,,,,,,,,,,,,,,,
,,656b73a9361febf855fa6f6c,2024-02-19_04h12.09.580,kallum_motion_pilot,2023.2.2,Win32,59.78000956,656b73a9361febf855fa6f6c,65d2b6c8f2eece985d8e374c,65d2b8dbd007f5631ea9301d,0.0311,0.0312,1,18,180,112,1,fivesix,,,,,,,,,,,,,,,,,,,,,,,,,,,,,,,,,,,,,,,,,,,,,,,,,,,,,,,,,,,,,,,,,,,,,,,,,,,,,,,,,,,,,,,,,,,,,,,,,,,,,,,,,,,,,,,,,,,,,,,,,,,,,,,,,,,,,,,,,
,,656b73a9361febf855fa6f6c,2024-02-19_04h12.09.580,kallum_motion_pilot,2023.2.2,Win32,59.78000956,656b73a9361febf855fa6f6c,65d2b6c8f2eece985d8e374c,65d2b8dbd007f5631ea9301d,0.0312,0.0312,1,19,181,87,1,eightseven,,,,,,,,,,,,,,,,,,,,,,,,,,,,,,,,,,,,,,,,,,,,,,,,,,,,,,,,,,,,,,,,,,,,,,,,,,,,,,,,,,,,,,,,,,,,,,,,,,,,,,,,,,,,,,,,,,,,,,,,,,,,,,,,,,,,,,,,,
,,656b73a9361febf855fa6f6c,2024-02-19_04h12.09.580,kallum_motion_pilot,2023.2.2,Win32,59.78000956,656b73a9361febf855fa6f6c,65d2b6c8f2eece985d8e374c,65d2b8dbd007f5631ea9301d,0.0313,0.0313,1,20,182,29,1,threefour,,,,,,,,,,,,,,,,,,,,,,,,,,,,,,,,,,,,,,,,,,,,,,,,,,,,,,,,,,,,,,,,,,,,,,,,,,,,,,,,,,,,,,,,,,,,,,,,,,,,,,,,,,,,,,,,,,,,,,,,,,,,,,,,,,,,,,,,,
,,656b73a9361febf855fa6f6c,2024-02-19_04h12.09.580,kallum_motion_pilot,2023.2.2,Win32,59.78000956,656b73a9361febf855fa6f6c,65d2b6c8f2eece985d8e374c,65d2b8dbd007f5631ea9301d,0.0314,0.0314,1,21,183,131,1,sixeight,,,,,,,,,,,,,,,,,,,,,,,,,,,,,,,,,,,,,,,,,,,,,,,,,,,,,,,,,,,,,,,,,,,,,,,,,,,,,,,,,,,,,,,,,,,,,,,,,,,,,,,,,,,,,,,,,,,,,,,,,,,,,,,,,,,,,,,,,
,,656b73a9361febf855fa6f6c,2024-02-19_04h12.09.580,kallum_motion_pilot,2023.2.2,Win32,59.78000956,656b73a9361febf855fa6f6c,65d2b6c8f2eece985d8e374c,65d2b8dbd007f5631ea9301d,0.0315,0.0315,1,22,184,120,1,fivesix,,,,,,,,,,,,,,,,,,,,,,,,,,,,,,,,,,,,,,,,,,,,,,,,,,,,,,,,,,,,,,,,,,,,,,,,,,,,,,,,,,,,,,,,,,,,,,,,,,,,,,,,,,,,,,,,,,,,,,,,,,,,,,,,,,,,,,,,,
,,656b73a9361febf855fa6f6c,2024-02-19_04h12.09.580,kallum_motion_pilot,2023.2.2,Win32,59.78000956,656b73a9361febf855fa6f6c,65d2b6c8f2eece985d8e374c,65d2b8dbd007f5631ea9301d,0.0316,0.0316,1,23,185,49,1,onethree,,,,,,,,,,,,,,,,,,,,,,,,,,,,,,,,,,,,,,,,,,,,,,,,,,,,,,,,,,,,,,,,,,,,,,,,,,,,,,,,,,,,,,,,,,,,,,,,,,,,,,,,,,,,,,,,,,,,,,,,,,,,,,,,,,,,,,,,,
,,656b73a9361febf855fa6f6c,2024-02-19_04h12.09.580,kallum_motion_pilot,2023.2.2,Win32,59.78000956,656b73a9361febf855fa6f6c,65d2b6c8f2eece985d8e374c,65d2b8dbd007f5631ea9301d,0.0316,0.0317,1,24,186,102,1,eightsix,,,,,,,,,,,,,,,,,,,,,,,,,,,,,,,,,,,,,,,,,,,,,,,,,,,,,,,,,,,,,,,,,,,,,,,,,,,,,,,,,,,,,,,,,,,,,,,,,,,,,,,,,,,,,,,,,,,,,,,,,,,,,,,,,,,,,,,,,
,,656b73a9361febf855fa6f6c,2024-02-19_04h12.09.580,kallum_motion_pilot,2023.2.2,Win32,59.78000956,656b73a9361febf855fa6f6c,65d2b6c8f2eece985d8e374c,65d2b8dbd007f5631ea9301d,0.0317,0.0317,1,25,187,148,1,sevenfive,,,,,,,,,,,,,,,,,,,,,,,,,,,,,,,,,,,,,,,,,,,,,,,,,,,,,,,,,,,,,,,,,,,,,,,,,,,,,,,,,,,,,,,,,,,,,,,,,,,,,,,,,,,,,,,,,,,,,,,,,,,,,,,,,,,,,,,,,
,,656b73a9361febf855fa6f6c,2024-02-19_04h12.09.580,kallum_motion_pilot,2023.2.2,Win32,59.78000956,656b73a9361febf855fa6f6c,65d2b6c8f2eece985d8e374c,65d2b8dbd007f5631ea9301d,0.0319,0.0319,1,26,188,157,1,seveneight,,,,,,,,,,,,,,,,,,,,,,,,,,,,,,,,,,,,,,,,,,,,,,,,,,,,,,,,,,,,,,,,,,,,,,,,,,,,,,,,,,,,,,,,,,,,,,,,,,,,,,,,,,,,,,,,,,,,,,,,,,,,,,,,,,,,,,,,,
,,656b73a9361febf855fa6f6c,2024-02-19_04h12.09.580,kallum_motion_pilot,2023.2.2,Win32,59.78000956,656b73a9361febf855fa6f6c,65d2b6c8f2eece985d8e374c,65d2b8dbd007f5631ea9301d,0.0319,0.032,1,27,189,146,1,sixfive,,,,,,,,,,,,,,,,,,,,,,,,,,,,,,,,,,,,,,,,,,,,,,,,,,,,,,,,,,,,,,,,,,,,,,,,,,,,,,,,,,,,,,,,,,,,,,,,,,,,,,,,,,,,,,,,,,,,,,,,,,,,,,,,,,,,,,,,,
,,656b73a9361febf855fa6f6c,2024-02-19_04h12.09.580,kallum_motion_pilot,2023.2.2,Win32,59.78000956,656b73a9361febf855fa6f6c,65d2b6c8f2eece985d8e374c,65d2b8dbd007f5631ea9301d,0.0324,0.0325,1,28,190,89,1,fiveseven,,,,,,,,,,,,,,,,,,,,,,,,,,,,,,,,,,,,,,,,,,,,,,,,,,,,,,,,,,,,,,,,,,,,,,,,,,,,,,,,,,,,,,,,,,,,,,,,,,,,,,,,,,,,,,,,,,,,,,,,,,,,,,,,,,,,,,,,,
,,656b73a9361febf855fa6f6c,2024-02-19_04h12.09.580,kallum_motion_pilot,2023.2.2,Win32,59.78000956,656b73a9361febf855fa6f6c,65d2b6c8f2eece985d8e374c,65d2b8dbd007f5631ea9301d,0.0326,0.0326,1,29,191,5,1,threefour,,,,,,,,,,,,,,,,,,,,,,,,,,,,,,,,,,,,,,,,,,,,,,,,,,,,,,,,,,,,,,,,,,,,,,,,,,,,,,,,,,,,,,,,,,,,,,,,,,,,,,,,,,,,,,,,,,,,,,,,,,,,,,,,,,,,,,,,,
,,656b73a9361febf855fa6f6c,2024-02-19_04h12.09.580,kallum_motion_pilot,2023.2.2,Win32,59.78000956,656b73a9361febf855fa6f6c,65d2b6c8f2eece985d8e374c,65d2b8dbd007f5631ea9301d,0.0326,0.0327,1,30,192,3,1,twofour,,,,,,,,,,,,,,,,,,,,,,,,,,,,,,,,,,,,,,,,,,,,,,,,,,,,,,,,,,,,,,,,,,,,,,,,,,,,,,,,,,,,,,,,,,,,,,,,,,,,,,,,,,,,,,,,,,,,,,,,,,,,,,,,,,,,,,,,,
,,656b73a9361febf855fa6f6c,2024-02-19_04h12.09.580,kallum_motion_pilot,2023.2.2,Win32,59.78000956,656b73a9361febf855fa6f6c,65d2b6c8f2eece985d8e374c,65d2b8dbd007f5631ea9301d,0.0327,0.0328,1,31,193,80,1,fivesix,,,,,,,,,,,,,,,,,,,,,,,,,,,,,,,,,,,,,,,,,,,,,,,,,,,,,,,,,,,,,,,,,,,,,,,,,,,,,,,,,,,,,,,,,,,,,,,,,,,,,,,,,,,,,,,,,,,,,,,,,,,,,,,,,,,,,,,,,
,,656b73a9361febf855fa6f6c,2024-02-19_04h12.09.580,kallum_motion_pilot,2023.2.2,Win32,59.78000956,656b73a9361febf855fa6f6c,65d2b6c8f2eece985d8e374c,65d2b8dbd007f5631ea9301d,0.0328,0.0328,1,32,194,95,1,eightseven,,,,,,,,,,,,,,,,,,,,,,,,,,,,,,,,,,,,,,,,,,,,,,,,,,,,,,,,,,,,,,,,,,,,,,,,,,,,,,,,,,,,,,,,,,,,,,,,,,,,,,,,,,,,,,,,,,,,,,,,,,,,,,,,,,,,,,,,,
,,656b73a9361febf855fa6f6c,2024-02-19_04h12.09.580,kallum_motion_pilot,2023.2.2,Win32,59.78000956,656b73a9361febf855fa6f6c,65d2b6c8f2eece985d8e374c,65d2b8dbd007f5631ea9301d,0.0328,0.0329,1,33,195,62,1,fourtwo,,,,,,,,,,,,,,,,,,,,,,,,,,,,,,,,,,,,,,,,,,,,,,,,,,,,,,,,,,,,,,,,,,,,,,,,,,,,,,,,,,,,,,,,,,,,,,,,,,,,,,,,,,,,,,,,,,,,,,,,,,,,,,,,,,,,,,,,,
,,656b73a9361febf855fa6f6c,2024-02-19_04h12.09.580,kallum_motion_pilot,2023.2.2,Win32,59.78000956,656b73a9361febf855fa6f6c,65d2b6c8f2eece985d8e374c,65d2b8dbd007f5631ea9301d,0.033,0.033,1,34,196,63,1,fourthree,,,,,,,,,,,,,,,,,,,,,,,,,,,,,,,,,,,,,,,,,,,,,,,,,,,,,,,,,,,,,,,,,,,,,,,,,,,,,,,,,,,,,,,,,,,,,,,,,,,,,,,,,,,,,,,,,,,,,,,,,,,,,,,,,,,,,,,,,
,,656b73a9361febf855fa6f6c,2024-02-19_04h12.09.580,kallum_motion_pilot,2023.2.2,Win32,59.78000956,656b73a9361febf855fa6f6c,65d2b6c8f2eece985d8e374c,65d2b8dbd007f5631ea9301d,0.033,0.033,1,35,197,11,1,twofour,,,,,,,,,,,,,,,,,,,,,,,,,,,,,,,,,,,,,,,,,,,,,,,,,,,,,,,,,,,,,,,,,,,,,,,,,,,,,,,,,,,,,,,,,,,,,,,,,,,,,,,,,,,,,,,,,,,,,,,,,,,,,,,,,,,,,,,,,
,,656b73a9361febf855fa6f6c,2024-02-19_04h12.09.580,kallum_motion_pilot,2023.2.2,Win32,59.78000956,656b73a9361febf855fa6f6c,65d2b6c8f2eece985d8e374c,65d2b8dbd007f5631ea9301d,0.0331,0.0331,1,36,198,134,1,eightsix,,,,,,,,,,,,,,,,,,,,,,,,,,,,,,,,,,,,,,,,,,,,,,,,,,,,,,,,,,,,,,,,,,,,,,,,,,,,,,,,,,,,,,,,,,,,,,,,,,,,,,,,,,,,,,,,,,,,,,,,,,,,,,,,,,,,,,,,,
,,656b73a9361febf855fa6f6c,2024-02-19_04h12.09.580,kallum_motion_pilot,2023.2.2,Win32,59.78000956,656b73a9361febf855fa6f6c,65d2b6c8f2eece985d8e374c,65d2b8dbd007f5631ea9301d,0.0331,0.0332,1,37,199,23,1,fourthree,,,,,,,,,,,,,,,,,,,,,,,,,,,,,,,,,,,,,,,,,,,,,,,,,,,,,,,,,,,,,,,,,,,,,,,,,,,,,,,,,,,,,,,,,,,,,,,,,,,,,,,,,,,,,,,,,,,,,,,,,,,,,,,,,,,,,,,,,
,,656b73a9361febf855fa6f6c,2024-02-19_04h12.09.580,kallum_motion_pilot,2023.2.2,Win32,59.78000956,656b73a9361febf855fa6f6c,65d2b6c8f2eece985d8e374c,65d2b8dbd007f5631ea9301d,0.0333,0.0333,1,38,200,121,1,fiveseven,,,,,,,,,,,,,,,,,,,,,,,,,,,,,,,,,,,,,,,,,,,,,,,,,,,,,,,,,,,,,,,,,,,,,,,,,,,,,,,,,,,,,,,,,,,,,,,,,,,,,,,,,,,,,,,,,,,,,,,,,,,,,,,,,,,,,,,,,
,,656b73a9361febf855fa6f6c,2024-02-19_04h12.09.580,kallum_motion_pilot,2023.2.2,Win32,59.78000956,656b73a9361febf855fa6f6c,65d2b6c8f2eece985d8e374c,65d2b8dbd007f5631ea9301d,0.0333,0.0333,1,39,201,124,1,sevenfive,,,,,,,,,,,,,,,,,,,,,,,,,,,,,,,,,,,,,,,,,,,,,,,,,,,,,,,,,,,,,,,,,,,,,,,,,,,,,,,,,,,,,,,,,,,,,,,,,,,,,,,,,,,,,,,,,,,,,,,,,,,,,,,,,,,,,,,,,
,,656b73a9361febf855fa6f6c,2024-02-19_04h12.09.580,kallum_motion_pilot,2023.2.2,Win32,59.78000956,656b73a9361febf855fa6f6c,65d2b6c8f2eece985d8e374c,65d2b8dbd007f5631ea9301d,0.0334,0.0335,1,40,202,105,1,fiveseven,,,,,,,,,,,,,,,,,,,,,,,,,,,,,,,,,,,,,,,,,,,,,,,,,,,,,,,,,,,,,,,,,,,,,,,,,,,,,,,,,,,,,,,,,,,,,,,,,,,,,,,,,,,,,,,,,,,,,,,,,,,,,,,,,,,,,,,,,
,,656b73a9361febf855fa6f6c,2024-02-19_04h12.09.580,kallum_motion_pilot,2023.2.2,Win32,59.78000956,656b73a9361febf855fa6f6c,65d2b6c8f2eece985d8e374c,65d2b8dbd007f5631ea9301d,0.0335,0.0335,1,41,203,2,1,twoone,,,,,,,,,,,,,,,,,,,,,,,,,,,,,,,,,,,,,,,,,,,,,,,,,,,,,,,,,,,,,,,,,,,,,,,,,,,,,,,,,,,,,,,,,,,,,,,,,,,,,,,,,,,,,,,,,,,,,,,,,,,,,,,,,,,,,,,,,
,,656b73a9361febf855fa6f6c,2024-02-19_04h12.09.580,kallum_motion_pilot,2023.2.2,Win32,59.78000956,656b73a9361febf855fa6f6c,65d2b6c8f2eece985d8e374c,65d2b8dbd007f5631ea9301d,0.0336,0.0336,1,42,204,48,1,onetwo,,,,,,,,,,,,,,,,,,,,,,,,,,,,,,,,,,,,,,,,,,,,,,,,,,,,,,,,,,,,,,,,,,,,,,,,,,,,,,,,,,,,,,,,,,,,,,,,,,,,,,,,,,,,,,,,,,,,,,,,,,,,,,,,,,,,,,,,,
,,656b73a9361febf855fa6f6c,2024-02-19_04h12.09.580,kallum_motion_pilot,2023.2.2,Win32,59.78000956,656b73a9361febf855fa6f6c,65d2b6c8f2eece985d8e374c,65d2b8dbd007f5631ea9301d,0.0336,0.0337,1,43,205,160,1,fivesix,,,,,,,,,,,,,,,,,,,,,,,,,,,,,,,,,,,,,,,,,,,,,,,,,,,,,,,,,,,,,,,,,,,,,,,,,,,,,,,,,,,,,,,,,,,,,,,,,,,,,,,,,,,,,,,,,,,,,,,,,,,,,,,,,,,,,,,,,
,,656b73a9361febf855fa6f6c,2024-02-19_04h12.09.580,kallum_motion_pilot,2023.2.2,Win32,59.78000956,656b73a9361febf855fa6f6c,65d2b6c8f2eece985d8e374c,65d2b8dbd007f5631ea9301d,0.0337,0.0338,1,44,206,98,1,sixfive,,,,,,,,,,,,,,,,,,,,,,,,,,,,,,,,,,,,,,,,,,,,,,,,,,,,,,,,,,,,,,,,,,,,,,,,,,,,,,,,,,,,,,,,,,,,,,,,,,,,,,,,,,,,,,,,,,,,,,,,,,,,,,,,,,,,,,,,,
,,656b73a9361febf855fa6f6c,2024-02-19_04h12.09.580,kallum_motion_pilot,2023.2.2,Win32,59.78000956,656b73a9361febf855fa6f6c,65d2b6c8f2eece985d8e374c,65d2b8dbd007f5631ea9301d,0.0338,0.0338,1,45,207,25,1,onethree,,,,,,,,,,,,,,,,,,,,,,,,,,,,,,,,,,,,,,,,,,,,,,,,,,,,,,,,,,,,,,,,,,,,,,,,,,,,,,,,,,,,,,,,,,,,,,,,,,,,,,,,,,,,,,,,,,,,,,,,,,,,,,,,,,,,,,,,,
,,656b73a9361febf855fa6f6c,2024-02-19_04h12.09.580,kallum_motion_pilot,2023.2.2,Win32,59.78000956,656b73a9361febf855fa6f6c,65d2b6c8f2eece985d8e374c,65d2b8dbd007f5631ea9301d,0.0339,0.0339,1,46,208,94,1,eightsix,,,,,,,,,,,,,,,,,,,,,,,,,,,,,,,,,,,,,,,,,,,,,,,,,,,,,,,,,,,,,,,,,,,,,,,,,,,,,,,,,,,,,,,,,,,,,,,,,,,,,,,,,,,,,,,,,,,,,,,,,,,,,,,,,,,,,,,,,
,,656b73a9361febf855fa6f6c,2024-02-19_04h12.09.580,kallum_motion_pilot,2023.2.2,Win32,59.78000956,656b73a9361febf855fa6f6c,65d2b6c8f2eece985d8e374c,65d2b8dbd007f5631ea9301d,0.0339,0.034,1,47,209,15,1,fourthree,,,,,,,,,,,,,,,,,,,,,,,,,,,,,,,,,,,,,,,,,,,,,,,,,,,,,,,,,,,,,,,,,,,,,,,,,,,,,,,,,,,,,,,,,,,,,,,,,,,,,,,,,,,,,,,,,,,,,,,,,,,,,,,,,,,,,,,,,
,,656b73a9361febf855fa6f6c,2024-02-19_04h12.09.580,kallum_motion_pilot,2023.2.2,Win32,59.78000956,656b73a9361febf855fa6f6c,65d2b6c8f2eece985d8e374c,65d2b8dbd007f5631ea9301d,0.034,0.0341,1,48,210,99,1,sixeight,,,,,,,,,,,,,,,,,,,,,,,,,,,,,,,,,,,,,,,,,,,,,,,,,,,,,,,,,,,,,,,,,,,,,,,,,,,,,,,,,,,,,,,,,,,,,,,,,,,,,,,,,,,,,,,,,,,,,,,,,,,,,,,,,,,,,,,,,
,,656b73a9361febf855fa6f6c,2024-02-19_04h12.09.580,kallum_motion_pilot,2023.2.2,Win32,59.78000956,656b73a9361febf855fa6f6c,65d2b6c8f2eece985d8e374c,65d2b8dbd007f5631ea9301d,0.0341,0.0342,1,49,211,28,1,threeone,,,,,,,,,,,,,,,,,,,,,,,,,,,,,,,,,,,,,,,,,,,,,,,,,,,,,,,,,,,,,,,,,,,,,,,,,,,,,,,,,,,,,,,,,,,,,,,,,,,,,,,,,,,,,,,,,,,,,,,,,,,,,,,,,,,,,,,,,
,,656b73a9361febf855fa6f6c,2024-02-19_04h12.09.580,kallum_motion_pilot,2023.2.2,Win32,59.78000956,656b73a9361febf855fa6f6c,65d2b6c8f2eece985d8e374c,65d2b8dbd007f5631ea9301d,0.0342,0.0343,1,50,212,141,1,seveneight,,,,,,,,,,,,,,,,,,,,,,,,,,,,,,,,,,,,,,,,,,,,,,,,,,,,,,,,,,,,,,,,,,,,,,,,,,,,,,,,,,,,,,,,,,,,,,,,,,,,,,,,,,,,,,,,,,,,,,,,,,,,,,,,,,,,,,,,,
,,656b73a9361febf855fa6f6c,2024-02-19_04h12.09.580,kallum_motion_pilot,2023.2.2,Win32,59.78000956,656b73a9361febf855fa6f6c,65d2b6c8f2eece985d8e374c,65d2b8dbd007f5631ea9301d,0.0343,0.0343,1,51,213,26,1,twoone,,,,,,,,,,,,,,,,,,,,,,,,,,,,,,,,,,,,,,,,,,,,,,,,,,,,,,,,,,,,,,,,,,,,,,,,,,,,,,,,,,,,,,,,,,,,,,,,,,,,,,,,,,,,,,,,,,,,,,,,,,,,,,,,,,,,,,,,,
,,656b73a9361febf855fa6f6c,2024-02-19_04h12.09.580,kallum_motion_pilot,2023.2.2,Win32,59.78000956,656b73a9361febf855fa6f6c,65d2b6c8f2eece985d8e374c,65d2b8dbd007f5631ea9301d,0.0343,0.0344,1,52,214,106,1,sixfive,,,,,,,,,,,,,,,,,,,,,,,,,,,,,,,,,,,,,,,,,,,,,,,,,,,,,,,,,,,,,,,,,,,,,,,,,,,,,,,,,,,,,,,,,,,,,,,,,,,,,,,,,,,,,,,,,,,,,,,,,,,,,,,,,,,,,,,,,
,,656b73a9361febf855fa6f6c,2024-02-19_04h12.09.580,kallum_motion_pilot,2023.2.2,Win32,59.78000956,656b73a9361febf855fa6f6c,65d2b6c8f2eece985d8e374c,65d2b8dbd007f5631ea9301d,0.0344,0.0344,1,53,215,152,1,fivesix,,,,,,,,,,,,,,,,,,,,,,,,,,,,,,,,,,,,,,,,,,,,,,,,,,,,,,,,,,,,,,,,,,,,,,,,,,,,,,,,,,,,,,,,,,,,,,,,,,,,,,,,,,,,,,,,,,,,,,,,,,,,,,,,,,,,,,,,,
,,656b73a9361febf855fa6f6c,2024-02-19_04h12.09.580,kallum_motion_pilot,2023.2.2,Win32,59.78000956,656b73a9361febf855fa6f6c,65d2b6c8f2eece985d8e374c,65d2b8dbd007f5631ea9301d,0.0345,0.0345,1,54,216,159,1,eightseven,,,,,,,,,,,,,,,,,,,,,,,,,,,,,,,,,,,,,,,,,,,,,,,,,,,,,,,,,,,,,,,,,,,,,,,,,,,,,,,,,,,,,,,,,,,,,,,,,,,,,,,,,,,,,,,,,,,,,,,,,,,,,,,,,,,,,,,,,
,,656b73a9361febf855fa6f6c,2024-02-19_04h12.09.580,kallum_motion_pilot,2023.2.2,Win32,59.78000956,656b73a9361febf855fa6f6c,65d2b6c8f2eece985d8e374c,65d2b8dbd007f5631ea9301d,0.0346,0.0347,1,55,217,55,1,fourthree,,,,,,,,,,,,,,,,,,,,,,,,,,,,,,,,,,,,,,,,,,,,,,,,,,,,,,,,,,,,,,,,,,,,,,,,,,,,,,,,,,,,,,,,,,,,,,,,,,,,,,,,,,,,,,,,,,,,,,,,,,,,,,,,,,,,,,,,,
,,656b73a9361febf855fa6f6c,2024-02-19_04h12.09.580,kallum_motion_pilot,2023.2.2,Win32,59.78000956,656b73a9361febf855fa6f6c,65d2b6c8f2eece985d8e374c,65d2b8dbd007f5631ea9301d,0.0347,0.0348,1,56,218,100,1,sevenfive,,,,,,,,,,,,,,,,,,,,,,,,,,,,,,,,,,,,,,,,,,,,,,,,,,,,,,,,,,,,,,,,,,,,,,,,,,,,,,,,,,,,,,,,,,,,,,,,,,,,,,,,,,,,,,,,,,,,,,,,,,,,,,,,,,,,,,,,,
,,656b73a9361febf855fa6f6c,2024-02-19_04h12.09.580,kallum_motion_pilot,2023.2.2,Win32,59.78000956,656b73a9361febf855fa6f6c,65d2b6c8f2eece985d8e374c,65d2b8dbd007f5631ea9301d,0.0348,0.0348,1,57,219,6,1,fourtwo,,,,,,,,,,,,,,,,,,,,,,,,,,,,,,,,,,,,,,,,,,,,,,,,,,,,,,,,,,,,,,,,,,,,,,,,,,,,,,,,,,,,,,,,,,,,,,,,,,,,,,,,,,,,,,,,,,,,,,,,,,,,,,,,,,,,,,,,,
,,656b73a9361febf855fa6f6c,2024-02-19_04h12.09.580,kallum_motion_pilot,2023.2.2,Win32,59.78000956,656b73a9361febf855fa6f6c,65d2b6c8f2eece985d8e374c,65d2b8dbd007f5631ea9301d,0.0348,0.0348,1,58,220,123,1,sixeight,,,,,,,,,,,,,,,,,,,,,,,,,,,,,,,,,,,,,,,,,,,,,,,,,,,,,,,,,,,,,,,,,,,,,,,,,,,,,,,,,,,,,,,,,,,,,,,,,,,,,,,,,,,,,,,,,,,,,,,,,,,,,,,,,,,,,,,,,
,,656b73a9361febf855fa6f6c,2024-02-19_04h12.09.580,kallum_motion_pilot,2023.2.2,Win32,59.78000956,656b73a9361febf855fa6f6c,65d2b6c8f2eece985d8e374c,65d2b8dbd007f5631ea9301d,0.0349,0.0349,1,59,221,101,1,seveneight,,,,,,,,,,,,,,,,,,,,,,,,,,,,,,,,,,,,,,,,,,,,,,,,,,,,,,,,,,,,,,,,,,,,,,,,,,,,,,,,,,,,,,,,,,,,,,,,,,,,,,,,,,,,,,,,,,,,,,,,,,,,,,,,,,,,,,,,,
,,656b73a9361febf855fa6f6c,2024-02-19_04h12.09.580,kallum_motion_pilot,2023.2.2,Win32,59.78000956,656b73a9361febf855fa6f6c,65d2b6c8f2eece985d8e374c,65d2b8dbd007f5631ea9301d,0.035,0.035,1,60,222,30,1,fourtwo,,,,,,,,,,,,,,,,,,,,,,,,,,,,,,,,,,,,,,,,,,,,,,,,,,,,,,,,,,,,,,,,,,,,,,,,,,,,,,,,,,,,,,,,,,,,,,,,,,,,,,,,,,,,,,,,,,,,,,,,,,,,,,,,,,,,,,,,,
,,656b73a9361febf855fa6f6c,2024-02-19_04h12.09.580,kallum_motion_pilot,2023.2.2,Win32,59.78000956,656b73a9361febf855fa6f6c,65d2b6c8f2eece985d8e374c,65d2b8dbd007f5631ea9301d,0.035,0.0351,1,61,223,27,1,twofour,,,,,,,,,,,,,,,,,,,,,,,,,,,,,,,,,,,,,,,,,,,,,,,,,,,,,,,,,,,,,,,,,,,,,,,,,,,,,,,,,,,,,,,,,,,,,,,,,,,,,,,,,,,,,,,,,,,,,,,,,,,,,,,,,,,,,,,,,
,,656b73a9361febf855fa6f6c,2024-02-19_04h12.09.580,kallum_motion_pilot,2023.2.2,Win32,59.78000956,656b73a9361febf855fa6f6c,65d2b6c8f2eece985d8e374c,65d2b8dbd007f5631ea9301d,0.0351,0.0352,1,62,224,43,1,twofour,,,,,,,,,,,,,,,,,,,,,,,,,,,,,,,,,,,,,,,,,,,,,,,,,,,,,,,,,,,,,,,,,,,,,,,,,,,,,,,,,,,,,,,,,,,,,,,,,,,,,,,,,,,,,,,,,,,,,,,,,,,,,,,,,,,,,,,,,
,,656b73a9361febf855fa6f6c,2024-02-19_04h12.09.580,kallum_motion_pilot,2023.2.2,Win32,59.78000956,656b73a9361febf855fa6f6c,65d2b6c8f2eece985d8e374c,65d2b8dbd007f5631ea9301d,0.0353,0.0353,1,63,225,14,1,fourtwo,,,,,,,,,,,,,,,,,,,,,,,,,,,,,,,,,,,,,,,,,,,,,,,,,,,,,,,,,,,,,,,,,,,,,,,,,,,,,,,,,,,,,,,,,,,,,,,,,,,,,,,,,,,,,,,,,,,,,,,,,,,,,,,,,,,,,,,,,
,,656b73a9361febf855fa6f6c,2024-02-19_04h12.09.580,kallum_motion_pilot,2023.2.2,Win32,59.78000956,656b73a9361febf855fa6f6c,65d2b6c8f2eece985d8e374c,65d2b8dbd007f5631ea9301d,0.0353,0.0353,1,64,226,117,1,seveneight,,,,,,,,,,,,,,,,,,,,,,,,,,,,,,,,,,,,,,,,,,,,,,,,,,,,,,,,,,,,,,,,,,,,,,,,,,,,,,,,,,,,,,,,,,,,,,,,,,,,,,,,,,,,,,,,,,,,,,,,,,,,,,,,,,,,,,,,,
,,656b73a9361febf855fa6f6c,2024-02-19_04h12.09.580,kallum_motion_pilot,2023.2.2,Win32,59.78000956,656b73a9361febf855fa6f6c,65d2b6c8f2eece985d8e374c,65d2b8dbd007f5631ea9301d,0.0354,0.0355,1,65,227,70,1,fourtwo,,,,,,,,,,,,,,,,,,,,,,,,,,,,,,,,,,,,,,,,,,,,,,,,,,,,,,,,,,,,,,,,,,,,,,,,,,,,,,,,,,,,,,,,,,,,,,,,,,,,,,,,,,,,,,,,,,,,,,,,,,,,,,,,,,,,,,,,,
,,656b73a9361febf855fa6f6c,2024-02-19_04h12.09.580,kallum_motion_pilot,2023.2.2,Win32,59.78000956,656b73a9361febf855fa6f6c,65d2b6c8f2eece985d8e374c,65d2b8dbd007f5631ea9301d,0.0355,0.0355,1,66,228,142,1,eightsix,,,,,,,,,,,,,,,,,,,,,,,,,,,,,,,,,,,,,,,,,,,,,,,,,,,,,,,,,,,,,,,,,,,,,,,,,,,,,,,,,,,,,,,,,,,,,,,,,,,,,,,,,,,,,,,,,,,,,,,,,,,,,,,,,,,,,,,,,
,,656b73a9361febf855fa6f6c,2024-02-19_04h12.09.580,kallum_motion_pilot,2023.2.2,Win32,59.78000956,656b73a9361febf855fa6f6c,65d2b6c8f2eece985d8e374c,65d2b8dbd007f5631ea9301d,0.0356,0.0356,1,67,229,33,1,onethree,,,,,,,,,,,,,,,,,,,,,,,,,,,,,,,,,,,,,,,,,,,,,,,,,,,,,,,,,,,,,,,,,,,,,,,,,,,,,,,,,,,,,,,,,,,,,,,,,,,,,,,,,,,,,,,,,,,,,,,,,,,,,,,,,,,,,,,,,
,,656b73a9361febf855fa6f6c,2024-02-19_04h12.09.580,kallum_motion_pilot,2023.2.2,Win32,59.78000956,656b73a9361febf855fa6f6c,65d2b6c8f2eece985d8e374c,65d2b8dbd007f5631ea9301d,0.0357,0.0357,1,68,230,58,1,twoone,,,,,,,,,,,,,,,,,,,,,,,,,,,,,,,,,,,,,,,,,,,,,,,,,,,,,,,,,,,,,,,,,,,,,,,,,,,,,,,,,,,,,,,,,,,,,,,,,,,,,,,,,,,,,,,,,,,,,,,,,,,,,,,,,,,,,,,,,
,,656b73a9361febf855fa6f6c,2024-02-19_04h12.09.580,kallum_motion_pilot,2023.2.2,Win32,59.78000956,656b73a9361febf855fa6f6c,65d2b6c8f2eece985d8e374c,65d2b8dbd007f5631ea9301d,0.0357,0.0357,1,69,231,104,1,fivesix,,,,,,,,,,,,,,,,,,,,,,,,,,,,,,,,,,,,,,,,,,,,,,,,,,,,,,,,,,,,,,,,,,,,,,,,,,,,,,,,,,,,,,,,,,,,,,,,,,,,,,,,,,,,,,,,,,,,,,,,,,,,,,,,,,,,,,,,,
,,656b73a9361febf855fa6f6c,2024-02-19_04h12.09.580,kallum_motion_pilot,2023.2.2,Win32,59.78000956,656b73a9361febf855fa6f6c,65d2b6c8f2eece985d8e374c,65d2b8dbd007f5631ea9301d,0.0359,0.0359,1,70,232,17,1,onethree,,,,,,,,,,,,,,,,,,,,,,,,,,,,,,,,,,,,,,,,,,,,,,,,,,,,,,,,,,,,,,,,,,,,,,,,,,,,,,,,,,,,,,,,,,,,,,,,,,,,,,,,,,,,,,,,,,,,,,,,,,,,,,,,,,,,,,,,,
,,656b73a9361febf855fa6f6c,2024-02-19_04h12.09.580,kallum_motion_pilot,2023.2.2,Win32,59.78000956,656b73a9361febf855fa6f6c,65d2b6c8f2eece985d8e374c,65d2b8dbd007f5631ea9301d,0.0359,0.036,1,71,233,133,1,seveneight,,,,,,,,,,,,,,,,,,,,,,,,,,,,,,,,,,,,,,,,,,,,,,,,,,,,,,,,,,,,,,,,,,,,,,,,,,,,,,,,,,,,,,,,,,,,,,,,,,,,,,,,,,,,,,,,,,,,,,,,,,,,,,,,,,,,,,,,,
,,656b73a9361febf855fa6f6c,2024-02-19_04h12.09.580,kallum_motion_pilot,2023.2.2,Win32,59.78000956,656b73a9361febf855fa6f6c,65d2b6c8f2eece985d8e374c,65d2b8dbd007f5631ea9301d,0.036,0.036,1,72,234,66,1,twoone,,,,,,,,,,,,,,,,,,,,,,,,,,,,,,,,,,,,,,,,,,,,,,,,,,,,,,,,,,,,,,,,,,,,,,,,,,,,,,,,,,,,,,,,,,,,,,,,,,,,,,,,,,,,,,,,,,,,,,,,,,,,,,,,,,,,,,,,,
,,656b73a9361febf855fa6f6c,2024-02-19_04h12.09.580,kallum_motion_pilot,2023.2.2,Win32,59.78000956,656b73a9361febf855fa6f6c,65d2b6c8f2eece985d8e374c,65d2b8dbd007f5631ea9301d,0.036,0.0361,1,73,235,122,1,sixfive,,,,,,,,,,,,,,,,,,,,,,,,,,,,,,,,,,,,,,,,,,,,,,,,,,,,,,,,,,,,,,,,,,,,,,,,,,,,,,,,,,,,,,,,,,,,,,,,,,,,,,,,,,,,,,,,,,,,,,,,,,,,,,,,,,,,,,,,,
,,656b73a9361febf855fa6f6c,2024-02-19_04h12.09.580,kallum_motion_pilot,2023.2.2,Win32,59.78000956,656b73a9361febf855fa6f6c,65d2b6c8f2eece985d8e374c,65d2b8dbd007f5631ea9301d,0.0361,0.0362,1,74,236,85,1,seveneight,,,,,,,,,,,,,,,,,,,,,,,,,,,,,,,,,,,,,,,,,,,,,,,,,,,,,,,,,,,,,,,,,,,,,,,,,,,,,,,,,,,,,,,,,,,,,,,,,,,,,,,,,,,,,,,,,,,,,,,,,,,,,,,,,,,,,,,,,
,,656b73a9361febf855fa6f6c,2024-02-19_04h12.09.580,kallum_motion_pilot,2023.2.2,Win32,59.78000956,656b73a9361febf855fa6f6c,65d2b6c8f2eece985d8e374c,65d2b8dbd007f5631ea9301d,0.0363,0.0363,1,75,237,67,1,twofour,,,,,,,,,,,,,,,,,,,,,,,,,,,,,,,,,,,,,,,,,,,,,,,,,,,,,,,,,,,,,,,,,,,,,,,,,,,,,,,,,,,,,,,,,,,,,,,,,,,,,,,,,,,,,,,,,,,,,,,,,,,,,,,,,,,,,,,,,
,,656b73a9361febf855fa6f6c,2024-02-19_04h12.09.580,kallum_motion_pilot,2023.2.2,Win32,59.78000956,656b73a9361febf855fa6f6c,65d2b6c8f2eece985d8e374c,65d2b8dbd007f5631ea9301d,0.0363,0.0364,1,76,238,154,1,sixfive,,,,,,,,,,,,,,,,,,,,,,,,,,,,,,,,,,,,,,,,,,,,,,,,,,,,,,,,,,,,,,,,,,,,,,,,,,,,,,,,,,,,,,,,,,,,,,,,,,,,,,,,,,,,,,,,,,,,,,,,,,,,,,,,,,,,,,,,,
,,656b73a9361febf855fa6f6c,2024-02-19_04h12.09.580,kallum_motion_pilot,2023.2.2,Win32,59.78000956,656b73a9361febf855fa6f6c,65d2b6c8f2eece985d8e374c,65d2b8dbd007f5631ea9301d,0.0364,0.0365,1,77,239,36,1,threeone,,,,,,,,,,,,,,,,,,,,,,,,,,,,,,,,,,,,,,,,,,,,,,,,,,,,,,,,,,,,,,,,,,,,,,,,,,,,,,,,,,,,,,,,,,,,,,,,,,,,,,,,,,,,,,,,,,,,,,,,,,,,,,,,,,,,,,,,,
,,656b73a9361febf855fa6f6c,2024-02-19_04h12.09.580,kallum_motion_pilot,2023.2.2,Win32,59.78000956,656b73a9361febf855fa6f6c,65d2b6c8f2eece985d8e374c,65d2b8dbd007f5631ea9301d,0.0366,0.0366,1,78,240,115,1,sixeight,,,,,,,,,,,,,,,,,,,,,,,,,,,,,,,,,,,,,,,,,,,,,,,,,,,,,,,,,,,,,,,,,,,,,,,,,,,,,,,,,,,,,,,,,,,,,,,,,,,,,,,,,,,,,,,,,,,,,,,,,,,,,,,,,,,,,,,,,
,,656b73a9361febf855fa6f6c,2024-02-19_04h12.09.580,kallum_motion_pilot,2023.2.2,Win32,59.78000956,656b73a9361febf855fa6f6c,65d2b6c8f2eece985d8e374c,65d2b8dbd007f5631ea9301d,0.0367,0.0367,1,79,241,44,1,threeone,,,,,,,,,,,,,,,,,,,,,,,,,,,,,,,,,,,,,,,,,,,,,,,,,,,,,,,,,,,,,,,,,,,,,,,,,,,,,,,,,,,,,,,,,,,,,,,,,,,,,,,,,,,,,,,,,,,,,,,,,,,,,,,,,,,,,,,,,
,,656b73a9361febf855fa6f6c,2024-02-19_04h12.09.580,kallum_motion_pilot,2023.2.2,Win32,59.78000956,656b73a9361febf855fa6f6c,65d2b6c8f2eece985d8e374c,65d2b8dbd007f5631ea9301d,0.0367,0.0367,1,80,242,119,1,eightseven,,,,,,,,,,,,,,,,,,,,,,,,,,,,,,,,,,,,,,,,,,,,,,,,,,,,,,,,,,,,,,,,,,,,,,,,,,,,,,,,,,,,,,,,,,,,,,,,,,,,,,,,,,,,,,,,,,,,,,,,,,,,,,,,,,,,,,,,,
,,656b73a9361febf855fa6f6c,2024-02-19_04h12.09.580,kallum_motion_pilot,2023.2.2,Win32,59.78000956,656b73a9361febf855fa6f6c,65d2b6c8f2eece985d8e374c,65d2b8dbd007f5631ea9301d,0.0368,0.0369,1,81,243,155,1,sixeight,,,,,,,,,,,,,,,,,,,,,,,,,,,,,,,,,,,,,,,,,,,,,,,,,,,,,,,,,,,,,,,,,,,,,,,,,,,,,,,,,,,,,,,,,,,,,,,,,,,,,,,,,,,,,,,,,,,,,,,,,,,,,,,,,,,,,,,,,
,,656b73a9361febf855fa6f6c,2024-02-19_04h12.09.580,kallum_motion_pilot,2023.2.2,Win32,59.78000956,656b73a9361febf855fa6f6c,65d2b6c8f2eece985d8e374c,65d2b8dbd007f5631ea9301d,0.0369,0.037,1,82,244,132,1,sevenfive,,,,,,,,,,,,,,,,,,,,,,,,,,,,,,,,,,,,,,,,,,,,,,,,,,,,,,,,,,,,,,,,,,,,,,,,,,,,,,,,,,,,,,,,,,,,,,,,,,,,,,,,,,,,,,,,,,,,,,,,,,,,,,,,,,,,,,,,,
,,656b73a9361febf855fa6f6c,2024-02-19_04h12.09.580,kallum_motion_pilot,2023.2.2,Win32,59.78000956,656b73a9361febf855fa6f6c,65d2b6c8f2eece985d8e374c,65d2b8dbd007f5631ea9301d,0.037,0.037,1,83,245,81,1,fiveseven,,,,,,,,,,,,,,,,,,,,,,,,,,,,,,,,,,,,,,,,,,,,,,,,,,,,,,,,,,,,,,,,,,,,,,,,,,,,,,,,,,,,,,,,,,,,,,,,,,,,,,,,,,,,,,,,,,,,,,,,,,,,,,,,,,,,,,,,,
,,656b73a9361febf855fa6f6c,2024-02-19_04h12.09.580,kallum_motion_pilot,2023.2.2,Win32,59.78000956,656b73a9361febf855fa6f6c,65d2b6c8f2eece985d8e374c,65d2b8dbd007f5631ea9301d,0.0371,0.0371,1,84,246,35,1,twofour,,,,,,,,,,,,,,,,,,,,,,,,,,,,,,,,,,,,,,,,,,,,,,,,,,,,,,,,,,,,,,,,,,,,,,,,,,,,,,,,,,,,,,,,,,,,,,,,,,,,,,,,,,,,,,,,,,,,,,,,,,,,,,,,,,,,,,,,,
,,656b73a9361febf855fa6f6c,2024-02-19_04h12.09.580,kallum_motion_pilot,2023.2.2,Win32,59.78000956,656b73a9361febf855fa6f6c,65d2b6c8f2eece985d8e374c,65d2b8dbd007f5631ea9301d,0.0372,0.0374,1,85,247,57,1,onethree,,,,,,,,,,,,,,,,,,,,,,,,,,,,,,,,,,,,,,,,,,,,,,,,,,,,,,,,,,,,,,,,,,,,,,,,,,,,,,,,,,,,,,,,,,,,,,,,,,,,,,,,,,,,,,,,,,,,,,,,,,,,,,,,,,,,,,,,,
,,656b73a9361febf855fa6f6c,2024-02-19_04h12.09.580,kallum_motion_pilot,2023.2.2,Win32,59.78000956,656b73a9361febf855fa6f6c,65d2b6c8f2eece985d8e374c,65d2b8dbd007f5631ea9301d,0.0375,0.0376,1,86,248,126,1,eightsix,,,,,,,,,,,,,,,,,,,,,,,,,,,,,,,,,,,,,,,,,,,,,,,,,,,,,,,,,,,,,,,,,,,,,,,,,,,,,,,,,,,,,,,,,,,,,,,,,,,,,,,,,,,,,,,,,,,,,,,,,,,,,,,,,,,,,,,,,
,,656b73a9361febf855fa6f6c,2024-02-19_04h12.09.580,kallum_motion_pilot,2023.2.2,Win32,59.78000956,656b73a9361febf855fa6f6c,65d2b6c8f2eece985d8e374c,65d2b8dbd007f5631ea9301d,0.0376,0.0378,1,87,249,53,1,threefour,,,,,,,,,,,,,,,,,,,,,,,,,,,,,,,,,,,,,,,,,,,,,,,,,,,,,,,,,,,,,,,,,,,,,,,,,,,,,,,,,,,,,,,,,,,,,,,,,,,,,,,,,,,,,,,,,,,,,,,,,,,,,,,,,,,,,,,,,
,,656b73a9361febf855fa6f6c,2024-02-19_04h12.09.580,kallum_motion_pilot,2023.2.2,Win32,59.78000956,656b73a9361febf855fa6f6c,65d2b6c8f2eece985d8e374c,65d2b8dbd007f5631ea9301d,0.0378,0.0378,1,88,250,91,1,sixeight,,,,,,,,,,,,,,,,,,,,,,,,,,,,,,,,,,,,,,,,,,,,,,,,,,,,,,,,,,,,,,,,,,,,,,,,,,,,,,,,,,,,,,,,,,,,,,,,,,,,,,,,,,,,,,,,,,,,,,,,,,,,,,,,,,,,,,,,,
,,656b73a9361febf855fa6f6c,2024-02-19_04h12.09.580,kallum_motion_pilot,2023.2.2,Win32,59.78000956,656b73a9361febf855fa6f6c,65d2b6c8f2eece985d8e374c,65d2b8dbd007f5631ea9301d,0.038,0.038,1,89,251,84,1,sevenfive,,,,,,,,,,,,,,,,,,,,,,,,,,,,,,,,,,,,,,,,,,,,,,,,,,,,,,,,,,,,,,,,,,,,,,,,,,,,,,,,,,,,,,,,,,,,,,,,,,,,,,,,,,,,,,,,,,,,,,,,,,,,,,,,,,,,,,,,,
,,656b73a9361febf855fa6f6c,2024-02-19_04h12.09.580,kallum_motion_pilot,2023.2.2,Win32,59.78000956,656b73a9361febf855fa6f6c,65d2b6c8f2eece985d8e374c,65d2b8dbd007f5631ea9301d,0.0381,0.0381,1,90,252,54,1,fourtwo,,,,,,,,,,,,,,,,,,,,,,,,,,,,,,,,,,,,,,,,,,,,,,,,,,,,,,,,,,,,,,,,,,,,,,,,,,,,,,,,,,,,,,,,,,,,,,,,,,,,,,,,,,,,,,,,,,,,,,,,,,,,,,,,,,,,,,,,,
,,656b73a9361febf855fa6f6c,2024-02-19_04h12.09.580,kallum_motion_pilot,2023.2.2,Win32,59.78000956,656b73a9361febf855fa6f6c,65d2b6c8f2eece985d8e374c,65d2b8dbd007f5631ea9301d,0.0381,0.0383,1,91,253,161,1,fiveseven,,,,,,,,,,,,,,,,,,,,,,,,,,,,,,,,,,,,,,,,,,,,,,,,,,,,,,,,,,,,,,,,,,,,,,,,,,,,,,,,,,,,,,,,,,,,,,,,,,,,,,,,,,,,,,,,,,,,,,,,,,,,,,,,,,,,,,,,,
,,656b73a9361febf855fa6f6c,2024-02-19_04h12.09.580,kallum_motion_pilot,2023.2.2,Win32,59.78000956,656b73a9361febf855fa6f6c,65d2b6c8f2eece985d8e374c,65d2b8dbd007f5631ea9301d,0.0383,0.0383,1,92,254,39,1,fourthree,,,,,,,,,,,,,,,,,,,,,,,,,,,,,,,,,,,,,,,,,,,,,,,,,,,,,,,,,,,,,,,,,,,,,,,,,,,,,,,,,,,,,,,,,,,,,,,,,,,,,,,,,,,,,,,,,,,,,,,,,,,,,,,,,,,,,,,,,
,,656b73a9361febf855fa6f6c,2024-02-19_04h12.09.580,kallum_motion_pilot,2023.2.2,Win32,59.78000956,656b73a9361febf855fa6f6c,65d2b6c8f2eece985d8e374c,65d2b8dbd007f5631ea9301d,0.0384,0.0384,1,93,255,125,1,seveneight,,,,,,,,,,,,,,,,,,,,,,,,,,,,,,,,,,,,,,,,,,,,,,,,,,,,,,,,,,,,,,,,,,,,,,,,,,,,,,,,,,,,,,,,,,,,,,,,,,,,,,,,,,,,,,,,,,,,,,,,,,,,,,,,,,,,,,,,,
,,656b73a9361febf855fa6f6c,2024-02-19_04h12.09.580,kallum_motion_pilot,2023.2.2,Win32,59.78000956,656b73a9361febf855fa6f6c,65d2b6c8f2eece985d8e374c,65d2b8dbd007f5631ea9301d,0.0385,0.0385,1,94,256,9,1,onethree,,,,,,,,,,,,,,,,,,,,,,,,,,,,,,,,,,,,,,,,,,,,,,,,,,,,,,,,,,,,,,,,,,,,,,,,,,,,,,,,,,,,,,,,,,,,,,,,,,,,,,,,,,,,,,,,,,,,,,,,,,,,,,,,,,,,,,,,,
,,656b73a9361febf855fa6f6c,2024-02-19_04h12.09.580,kallum_motion_pilot,2023.2.2,Win32,59.78000956,656b73a9361febf855fa6f6c,65d2b6c8f2eece985d8e374c,65d2b8dbd007f5631ea9301d,0.0386,0.0387,1,95,257,137,1,fiveseven,,,,,,,,,,,,,,,,,,,,,,,,,,,,,,,,,,,,,,,,,,,,,,,,,,,,,,,,,,,,,,,,,,,,,,,,,,,,,,,,,,,,,,,,,,,,,,,,,,,,,,,,,,,,,,,,,,,,,,,,,,,,,,,,,,,,,,,,,
,,656b73a9361febf855fa6f6c,2024-02-19_04h12.09.580,kallum_motion_pilot,2023.2.2,Win32,59.78000956,656b73a9361febf855fa6f6c,65d2b6c8f2eece985d8e374c,65d2b8dbd007f5631ea9301d,0.0387,0.0389,1,96,258,129,1,fiveseven,,,,,,,,,,,,,,,,,,,,,,,,,,,,,,,,,,,,,,,,,,,,,,,,,,,,,,,,,,,,,,,,,,,,,,,,,,,,,,,,,,,,,,,,,,,,,,,,,,,,,,,,,,,,,,,,,,,,,,,,,,,,,,,,,,,,,,,,,
,,656b73a9361febf855fa6f6c,2024-02-19_04h12.09.580,kallum_motion_pilot,2023.2.2,Win32,59.78000956,656b73a9361febf855fa6f6c,65d2b6c8f2eece985d8e374c,65d2b8dbd007f5631ea9301d,0.0389,0.0389,1,97,259,150,1,eightsix,,,,,,,,,,,,,,,,,,,,,,,,,,,,,,,,,,,,,,,,,,,,,,,,,,,,,,,,,,,,,,,,,,,,,,,,,,,,,,,,,,,,,,,,,,,,,,,,,,,,,,,,,,,,,,,,,,,,,,,,,,,,,,,,,,,,,,,,,
,,656b73a9361febf855fa6f6c,2024-02-19_04h12.09.580,kallum_motion_pilot,2023.2.2,Win32,59.78000956,656b73a9361febf855fa6f6c,65d2b6c8f2eece985d8e374c,65d2b8dbd007f5631ea9301d,0.039,0.039,1,98,260,96,1,fivesix,,,,,,,,,,,,,,,,,,,,,,,,,,,,,,,,,,,,,,,,,,,,,,,,,,,,,,,,,,,,,,,,,,,,,,,,,,,,,,,,,,,,,,,,,,,,,,,,,,,,,,,,,,,,,,,,,,,,,,,,,,,,,,,,,,,,,,,,,
,,656b73a9361febf855fa6f6c,2024-02-19_04h12.09.580,kallum_motion_pilot,2023.2.2,Win32,59.78000956,656b73a9361febf855fa6f6c,65d2b6c8f2eece985d8e374c,65d2b8dbd007f5631ea9301d,0.039,0.0391,1,99,261,76,1,threeone,,,,,,,,,,,,,,,,,,,,,,,,,,,,,,,,,,,,,,,,,,,,,,,,,,,,,,,,,,,,,,,,,,,,,,,,,,,,,,,,,,,,,,,,,,,,,,,,,,,,,,,,,,,,,,,,,,,,,,,,,,,,,,,,,,,,,,,,,
,,656b73a9361febf855fa6f6c,2024-02-19_04h12.09.580,kallum_motion_pilot,2023.2.2,Win32,59.78000956,656b73a9361febf855fa6f6c,65d2b6c8f2eece985d8e374c,65d2b8dbd007f5631ea9301d,0.0392,0.0393,1,100,262,51,1,twofour,,,,,,,,,,,,,,,,,,,,,,,,,,,,,,,,,,,,,,,,,,,,,,,,,,,,,,,,,,,,,,,,,,,,,,,,,,,,,,,,,,,,,,,,,,,,,,,,,,,,,,,,,,,,,,,,,,,,,,,,,,,,,,,,,,,,,,,,,
,,656b73a9361febf855fa6f6c,2024-02-19_04h12.09.580,kallum_motion_pilot,2023.2.2,Win32,59.78000956,656b73a9361febf855fa6f6c,65d2b6c8f2eece985d8e374c,65d2b8dbd007f5631ea9301d,0.0393,0.0394,1,101,263,12,1,threeone,,,,,,,,,,,,,,,,,,,,,,,,,,,,,,,,,,,,,,,,,,,,,,,,,,,,,,,,,,,,,,,,,,,,,,,,,,,,,,,,,,,,,,,,,,,,,,,,,,,,,,,,,,,,,,,,,,,,,,,,,,,,,,,,,,,,,,,,,
,,656b73a9361febf855fa6f6c,2024-02-19_04h12.09.580,kallum_motion_pilot,2023.2.2,Win32,59.78000956,656b73a9361febf855fa6f6c,65d2b6c8f2eece985d8e374c,65d2b8dbd007f5631ea9301d,0.0394,0.0395,1,102,264,74,1,twoone,,,,,,,,,,,,,,,,,,,,,,,,,,,,,,,,,,,,,,,,,,,,,,,,,,,,,,,,,,,,,,,,,,,,,,,,,,,,,,,,,,,,,,,,,,,,,,,,,,,,,,,,,,,,,,,,,,,,,,,,,,,,,,,,,,,,,,,,,
,,656b73a9361febf855fa6f6c,2024-02-19_04h12.09.580,kallum_motion_pilot,2023.2.2,Win32,59.78000956,656b73a9361febf855fa6f6c,65d2b6c8f2eece985d8e374c,65d2b8dbd007f5631ea9301d,0.0395,0.0395,1,103,265,18,1,twoone,,,,,,,,,,,,,,,,,,,,,,,,,,,,,,,,,,,,,,,,,,,,,,,,,,,,,,,,,,,,,,,,,,,,,,,,,,,,,,,,,,,,,,,,,,,,,,,,,,,,,,,,,,,,,,,,,,,,,,,,,,,,,,,,,,,,,,,,,
,,656b73a9361febf855fa6f6c,2024-02-19_04h12.09.580,kallum_motion_pilot,2023.2.2,Win32,59.78000956,656b73a9361febf855fa6f6c,65d2b6c8f2eece985d8e374c,65d2b8dbd007f5631ea9301d,0.0395,0.0396,1,104,266,45,1,threefour,,,,,,,,,,,,,,,,,,,,,,,,,,,,,,,,,,,,,,,,,,,,,,,,,,,,,,,,,,,,,,,,,,,,,,,,,,,,,,,,,,,,,,,,,,,,,,,,,,,,,,,,,,,,,,,,,,,,,,,,,,,,,,,,,,,,,,,,,
,,656b73a9361febf855fa6f6c,2024-02-19_04h12.09.580,kallum_motion_pilot,2023.2.2,Win32,59.78000956,656b73a9361febf855fa6f6c,65d2b6c8f2eece985d8e374c,65d2b8dbd007f5631ea9301d,0.0396,0.0396,1,105,267,114,1,sixfive,,,,,,,,,,,,,,,,,,,,,,,,,,,,,,,,,,,,,,,,,,,,,,,,,,,,,,,,,,,,,,,,,,,,,,,,,,,,,,,,,,,,,,,,,,,,,,,,,,,,,,,,,,,,,,,,,,,,,,,,,,,,,,,,,,,,,,,,,
,,656b73a9361febf855fa6f6c,2024-02-19_04h12.09.580,kallum_motion_pilot,2023.2.2,Win32,59.78000956,656b73a9361febf855fa6f6c,65d2b6c8f2eece985d8e374c,65d2b8dbd007f5631ea9301d,0.0398,0.0398,1,106,268,21,1,threefour,,,,,,,,,,,,,,,,,,,,,,,,,,,,,,,,,,,,,,,,,,,,,,,,,,,,,,,,,,,,,,,,,,,,,,,,,,,,,,,,,,,,,,,,,,,,,,,,,,,,,,,,,,,,,,,,,,,,,,,,,,,,,,,,,,,,,,,,,
,,656b73a9361febf855fa6f6c,2024-02-19_04h12.09.580,kallum_motion_pilot,2023.2.2,Win32,59.78000956,656b73a9361febf855fa6f6c,65d2b6c8f2eece985d8e374c,65d2b8dbd007f5631ea9301d,0.0398,0.0398,1,107,269,19,1,twofour,,,,,,,,,,,,,,,,,,,,,,,,,,,,,,,,,,,,,,,,,,,,,,,,,,,,,,,,,,,,,,,,,,,,,,,,,,,,,,,,,,,,,,,,,,,,,,,,,,,,,,,,,,,,,,,,,,,,,,,,,,,,,,,,,,,,,,,,,
,,656b73a9361febf855fa6f6c,2024-02-19_04h12.09.580,kallum_motion_pilot,2023.2.2,Win32,59.78000956,656b73a9361febf855fa6f6c,65d2b6c8f2eece985d8e374c,65d2b8dbd007f5631ea9301d,0.0399,0.0399,1,108,270,64,1,onetwo,,,,,,,,,,,,,,,,,,,,,,,,,,,,,,,,,,,,,,,,,,,,,,,,,,,,,,,,,,,,,,,,,,,,,,,,,,,,,,,,,,,,,,,,,,,,,,,,,,,,,,,,,,,,,,,,,,,,,,,,,,,,,,,,,,,,,,,,,
,,656b73a9361febf855fa6f6c,2024-02-19_04h12.09.580,kallum_motion_pilot,2023.2.2,Win32,59.78000956,656b73a9361febf855fa6f6c,65d2b6c8f2eece985d8e374c,65d2b8dbd007f5631ea9301d,0.0399,0.04,1,109,271,7,1,fourthree,,,,,,,,,,,,,,,,,,,,,,,,,,,,,,,,,,,,,,,,,,,,,,,,,,,,,,,,,,,,,,,,,,,,,,,,,,,,,,,,,,,,,,,,,,,,,,,,,,,,,,,,,,,,,,,,,,,,,,,,,,,,,,,,,,,,,,,,,
,,656b73a9361febf855fa6f6c,2024-02-19_04h12.09.580,kallum_motion_pilot,2023.2.2,Win32,59.78000956,656b73a9361febf855fa6f6c,65d2b6c8f2eece985d8e374c,65d2b8dbd007f5631ea9301d,0.0401,0.0401,1,110,272,90,1,sixfive,,,,,,,,,,,,,,,,,,,,,,,,,,,,,,,,,,,,,,,,,,,,,,,,,,,,,,,,,,,,,,,,,,,,,,,,,,,,,,,,,,,,,,,,,,,,,,,,,,,,,,,,,,,,,,,,,,,,,,,,,,,,,,,,,,,,,,,,,
,,656b73a9361febf855fa6f6c,2024-02-19_04h12.09.580,kallum_motion_pilot,2023.2.2,Win32,59.78000956,656b73a9361febf855fa6f6c,65d2b6c8f2eece985d8e374c,65d2b8dbd007f5631ea9301d,0.0402,0.0402,1,111,273,65,1,onethree,,,,,,,,,,,,,,,,,,,,,,,,,,,,,,,,,,,,,,,,,,,,,,,,,,,,,,,,,,,,,,,,,,,,,,,,,,,,,,,,,,,,,,,,,,,,,,,,,,,,,,,,,,,,,,,,,,,,,,,,,,,,,,,,,,,,,,,,,
,,656b73a9361febf855fa6f6c,2024-02-19_04h12.09.580,kallum_motion_pilot,2023.2.2,Win32,59.78000956,656b73a9361febf855fa6f6c,65d2b6c8f2eece985d8e374c,65d2b8dbd007f5631ea9301d,0.0402,0.0403,1,112,274,86,1,eightsix,,,,,,,,,,,,,,,,,,,,,,,,,,,,,,,,,,,,,,,,,,,,,,,,,,,,,,,,,,,,,,,,,,,,,,,,,,,,,,,,,,,,,,,,,,,,,,,,,,,,,,,,,,,,,,,,,,,,,,,,,,,,,,,,,,,,,,,,,
,,656b73a9361febf855fa6f6c,2024-02-19_04h12.09.580,kallum_motion_pilot,2023.2.2,Win32,59.78000956,656b73a9361febf855fa6f6c,65d2b6c8f2eece985d8e374c,65d2b8dbd007f5631ea9301d,0.0404,0.0404,1,113,275,135,1,eightseven,,,,,,,,,,,,,,,,,,,,,,,,,,,,,,,,,,,,,,,,,,,,,,,,,,,,,,,,,,,,,,,,,,,,,,,,,,,,,,,,,,,,,,,,,,,,,,,,,,,,,,,,,,,,,,,,,,,,,,,,,,,,,,,,,,,,,,,,,
,,656b73a9361febf855fa6f6c,2024-02-19_04h12.09.580,kallum_motion_pilot,2023.2.2,Win32,59.78000956,656b73a9361febf855fa6f6c,65d2b6c8f2eece985d8e374c,65d2b8dbd007f5631ea9301d,0.0404,0.0404,1,114,276,144,1,fivesix,,,,,,,,,,,,,,,,,,,,,,,,,,,,,,,,,,,,,,,,,,,,,,,,,,,,,,,,,,,,,,,,,,,,,,,,,,,,,,,,,,,,,,,,,,,,,,,,,,,,,,,,,,,,,,,,,,,,,,,,,,,,,,,,,,,,,,,,,
,,656b73a9361febf855fa6f6c,2024-02-19_04h12.09.580,kallum_motion_pilot,2023.2.2,Win32,59.78000956,656b73a9361febf855fa6f6c,65d2b6c8f2eece985d8e374c,65d2b8dbd007f5631ea9301d,0.0405,0.0406,1,115,277,4,1,threeone,,,,,,,,,,,,,,,,,,,,,,,,,,,,,,,,,,,,,,,,,,,,,,,,,,,,,,,,,,,,,,,,,,,,,,,,,,,,,,,,,,,,,,,,,,,,,,,,,,,,,,,,,,,,,,,,,,,,,,,,,,,,,,,,,,,,,,,,,
