startup.started,startup.stopped,Prolific ID*,date,expName,psychopyVersion,OS,frameRate,participant,study_id,session,stimpositions.started,stimpositions.stopped,hardcoded_stimulus_positions.thisRepN,hardcoded_stimulus_positions.thisTrialN,hardcoded_stimulus_positions.thisN,hardcoded_stimulus_positions.thisIndex,hardcoded_stimulus_positions.ran,StimulusPos,stimorientation.started,stimorientation.stopped,prac_stimorientation_import_loop.thisRepN,prac_stimorientation_import_loop.thisTrialN,prac_stimorientation_import_loop.thisN,prac_stimorientation_import_loop.thisIndex,prac_stimorientation_import_loop.ran,Stimorientation,welcome_instr.started,welcome_instr.stopped,key_resp.keys,key_resp.rt,key_resp.duration,response_steppedout_1.started,response_steppedout_1.stopped,key_resp_20.keys,key_resp_20.rt,key_resp_20.duration,response_steppedout_2.started,response_steppedout_2.stopped,key_resp_19.keys,key_resp_19.rt,key_resp_19.duration,stim_response_instr.started,stim_response_instr.stopped,key_resp_15.keys,key_resp_15.rt,key_resp_15.duration,direction_instr_2.started,direction_instr_2.stopped,key_resp_9.keys,key_resp_9.rt,key_resp_9.duration,instr_prac.started,instr_prac.stopped,key_resp_10.keys,key_resp_10.rt,key_resp_10.duration,Stim1_display_prac.started,Stim1_display_prac.stopped,Ecc,Circle1_ori,Circle2_ori,response_prac.started,similarity,response_time,response_prac.stopped,mouse_5.x,mouse_5.y,mouse_5.leftButton,mouse_5.midButton,mouse_5.rightButton,mouse_5.clicked_name,responseprac_feedback.started,responseprac_feedback.stopped,summary2_prac.started,summary2_prac.stopped,mouse_6.x,mouse_6.y,mouse_6.leftButton,mouse_6.midButton,mouse_6.rightButton,mouse_6.clicked_name,duringprac.thisRepN,duringprac.thisTrialN,duringprac.thisN,duringprac.thisIndex,duringprac.ran,begin.started,begin.stopped,key_resp_22.keys,key_resp_22.rt,key_resp_22.duration,Stim1_display.started,Stim1_display.stopped,circle1_ori,circle2_ori,circle1_SF,circle2_SF,response.started,response.stopped,mouse.x,mouse.y,mouse.leftButton,mouse.midButton,mouse.rightButton,mouse.clicked_name,trialnumber,double_pass.thisRepN,double_pass.thisTrialN,double_pass.thisN,double_pass.thisIndex,double_pass.ran,double_pass.order,main_trial.thisRepN,main_trial.thisTrialN,main_trial.thisN,main_trial.thisIndex,main_trial.ran,main_trial.order,Trial_Counter,Catch,Frequencies,response_2.started,response_2.stopped,mouse_2.x,mouse_2.y,mouse_2.leftButton,mouse_2.midButton,mouse_2.rightButton,mouse_2.clicked_name,special_trial.started,special_trial.stopped,catch_1.started,catch_1.stopped,mouse_3.x,mouse_3.y,mouse_3.leftButton,mouse_3.midButton,mouse_3.rightButton,catchresponse,catchnumber,response_time_catch,response_sum.started,response_sum.stopped,mouse_11.x,mouse_11.y,mouse_11.leftButton,mouse_11.midButton,mouse_11.rightButton,flip_presentation_sequence_for_double_pass.started,flip_presentation_sequence_for_double_pass.stopped,goodbye.started,goodbye.stopped,key_resp_3.keys,key_resp_3.rt,key_resp_3.duration
0,0,656faaea15730b0f6ea31bdd,2024-02-18_21h13.47.817,kallum_motion_pilot,2023.2.2,MacIntel,60.0240096,656faaea15730b0f6ea31bdd,65d2b6c8f2eece985d8e374c,65d2b9423d1e491d72e7ec2e,,,,,,,,,,,,,,,,,,,,,,,,,,,,,,,,,,,,,,,,,,,,,,,,,,,,,,,,,,,,,,,,,,,,,,,,,,,,,,,,,,,,,,,,,,,,,,,,,,,,,,,,,,,,,,,,,,,,,,,,,,,,,,,,,,,,,,,,,,,,,,,,,
,,656faaea15730b0f6ea31bdd,2024-02-18_21h13.47.817,kallum_motion_pilot,2023.2.2,MacIntel,60.0240096,656faaea15730b0f6ea31bdd,65d2b6c8f2eece985d8e374c,65d2b9423d1e491d72e7ec2e,0.013,0.013,0,0,0,54,1,fourtwo,,,,,,,,,,,,,,,,,,,,,,,,,,,,,,,,,,,,,,,,,,,,,,,,,,,,,,,,,,,,,,,,,,,,,,,,,,,,,,,,,,,,,,,,,,,,,,,,,,,,,,,,,,,,,,,,,,,,,,,,,,,,,,,,,,,,,,,,,
,,656faaea15730b0f6ea31bdd,2024-02-18_21h13.47.817,kallum_motion_pilot,2023.2.2,MacIntel,60.0240096,656faaea15730b0f6ea31bdd,65d2b6c8f2eece985d8e374c,65d2b9423d1e491d72e7ec2e,0.014,0.014,0,1,1,152,1,fivesix,,,,,,,,,,,,,,,,,,,,,,,,,,,,,,,,,,,,,,,,,,,,,,,,,,,,,,,,,,,,,,,,,,,,,,,,,,,,,,,,,,,,,,,,,,,,,,,,,,,,,,,,,,,,,,,,,,,,,,,,,,,,,,,,,,,,,,,,,
,,656faaea15730b0f6ea31bdd,2024-02-18_21h13.47.817,kallum_motion_pilot,2023.2.2,MacIntel,60.0240096,656faaea15730b0f6ea31bdd,65d2b6c8f2eece985d8e374c,65d2b9423d1e491d72e7ec2e,0.014,0.014,0,2,2,83,1,sixeight,,,,,,,,,,,,,,,,,,,,,,,,,,,,,,,,,,,,,,,,,,,,,,,,,,,,,,,,,,,,,,,,,,,,,,,,,,,,,,,,,,,,,,,,,,,,,,,,,,,,,,,,,,,,,,,,,,,,,,,,,,,,,,,,,,,,,,,,,
,,656faaea15730b0f6ea31bdd,2024-02-18_21h13.47.817,kallum_motion_pilot,2023.2.2,MacIntel,60.0240096,656faaea15730b0f6ea31bdd,65d2b6c8f2eece985d8e374c,65d2b9423d1e491d72e7ec2e,0.014,0.014,0,3,3,29,1,threefour,,,,,,,,,,,,,,,,,,,,,,,,,,,,,,,,,,,,,,,,,,,,,,,,,,,,,,,,,,,,,,,,,,,,,,,,,,,,,,,,,,,,,,,,,,,,,,,,,,,,,,,,,,,,,,,,,,,,,,,,,,,,,,,,,,,,,,,,,
,,656faaea15730b0f6ea31bdd,2024-02-18_21h13.47.817,kallum_motion_pilot,2023.2.2,MacIntel,60.0240096,656faaea15730b0f6ea31bdd,65d2b6c8f2eece985d8e374c,65d2b9423d1e491d72e7ec2e,0.014,0.014,0,4,4,82,1,sixfive,,,,,,,,,,,,,,,,,,,,,,,,,,,,,,,,,,,,,,,,,,,,,,,,,,,,,,,,,,,,,,,,,,,,,,,,,,,,,,,,,,,,,,,,,,,,,,,,,,,,,,,,,,,,,,,,,,,,,,,,,,,,,,,,,,,,,,,,,
,,656faaea15730b0f6ea31bdd,2024-02-18_21h13.47.817,kallum_motion_pilot,2023.2.2,MacIntel,60.0240096,656faaea15730b0f6ea31bdd,65d2b6c8f2eece985d8e374c,65d2b9423d1e491d72e7ec2e,0.014,0.014,0,5,5,25,1,onethree,,,,,,,,,,,,,,,,,,,,,,,,,,,,,,,,,,,,,,,,,,,,,,,,,,,,,,,,,,,,,,,,,,,,,,,,,,,,,,,,,,,,,,,,,,,,,,,,,,,,,,,,,,,,,,,,,,,,,,,,,,,,,,,,,,,,,,,,,
,,656faaea15730b0f6ea31bdd,2024-02-18_21h13.47.817,kallum_motion_pilot,2023.2.2,MacIntel,60.0240096,656faaea15730b0f6ea31bdd,65d2b6c8f2eece985d8e374c,65d2b9423d1e491d72e7ec2e,0.014,0.014,0,6,6,2,1,twoone,,,,,,,,,,,,,,,,,,,,,,,,,,,,,,,,,,,,,,,,,,,,,,,,,,,,,,,,,,,,,,,,,,,,,,,,,,,,,,,,,,,,,,,,,,,,,,,,,,,,,,,,,,,,,,,,,,,,,,,,,,,,,,,,,,,,,,,,,
,,656faaea15730b0f6ea31bdd,2024-02-18_21h13.47.817,kallum_motion_pilot,2023.2.2,MacIntel,60.0240096,656faaea15730b0f6ea31bdd,65d2b6c8f2eece985d8e374c,65d2b9423d1e491d72e7ec2e,0.014,0.014,0,7,7,24,1,onetwo,,,,,,,,,,,,,,,,,,,,,,,,,,,,,,,,,,,,,,,,,,,,,,,,,,,,,,,,,,,,,,,,,,,,,,,,,,,,,,,,,,,,,,,,,,,,,,,,,,,,,,,,,,,,,,,,,,,,,,,,,,,,,,,,,,,,,,,,,
,,656faaea15730b0f6ea31bdd,2024-02-18_21h13.47.817,kallum_motion_pilot,2023.2.2,MacIntel,60.0240096,656faaea15730b0f6ea31bdd,65d2b6c8f2eece985d8e374c,65d2b9423d1e491d72e7ec2e,0.014,0.014,0,8,8,87,1,eightseven,,,,,,,,,,,,,,,,,,,,,,,,,,,,,,,,,,,,,,,,,,,,,,,,,,,,,,,,,,,,,,,,,,,,,,,,,,,,,,,,,,,,,,,,,,,,,,,,,,,,,,,,,,,,,,,,,,,,,,,,,,,,,,,,,,,,,,,,,
,,656faaea15730b0f6ea31bdd,2024-02-18_21h13.47.817,kallum_motion_pilot,2023.2.2,MacIntel,60.0240096,656faaea15730b0f6ea31bdd,65d2b6c8f2eece985d8e374c,65d2b9423d1e491d72e7ec2e,0.014,0.014,0,9,9,114,1,sixfive,,,,,,,,,,,,,,,,,,,,,,,,,,,,,,,,,,,,,,,,,,,,,,,,,,,,,,,,,,,,,,,,,,,,,,,,,,,,,,,,,,,,,,,,,,,,,,,,,,,,,,,,,,,,,,,,,,,,,,,,,,,,,,,,,,,,,,,,,
,,656faaea15730b0f6ea31bdd,2024-02-18_21h13.47.817,kallum_motion_pilot,2023.2.2,MacIntel,60.0240096,656faaea15730b0f6ea31bdd,65d2b6c8f2eece985d8e374c,65d2b9423d1e491d72e7ec2e,0.014,0.014,0,10,10,140,1,sevenfive,,,,,,,,,,,,,,,,,,,,,,,,,,,,,,,,,,,,,,,,,,,,,,,,,,,,,,,,,,,,,,,,,,,,,,,,,,,,,,,,,,,,,,,,,,,,,,,,,,,,,,,,,,,,,,,,,,,,,,,,,,,,,,,,,,,,,,,,,
,,656faaea15730b0f6ea31bdd,2024-02-18_21h13.47.817,kallum_motion_pilot,2023.2.2,MacIntel,60.0240096,656faaea15730b0f6ea31bdd,65d2b6c8f2eece985d8e374c,65d2b9423d1e491d72e7ec2e,0.015,0.015,0,11,11,47,1,fourthree,,,,,,,,,,,,,,,,,,,,,,,,,,,,,,,,,,,,,,,,,,,,,,,,,,,,,,,,,,,,,,,,,,,,,,,,,,,,,,,,,,,,,,,,,,,,,,,,,,,,,,,,,,,,,,,,,,,,,,,,,,,,,,,,,,,,,,,,,
,,656faaea15730b0f6ea31bdd,2024-02-18_21h13.47.817,kallum_motion_pilot,2023.2.2,MacIntel,60.0240096,656faaea15730b0f6ea31bdd,65d2b6c8f2eece985d8e374c,65d2b9423d1e491d72e7ec2e,0.015,0.015,0,12,12,133,1,seveneight,,,,,,,,,,,,,,,,,,,,,,,,,,,,,,,,,,,,,,,,,,,,,,,,,,,,,,,,,,,,,,,,,,,,,,,,,,,,,,,,,,,,,,,,,,,,,,,,,,,,,,,,,,,,,,,,,,,,,,,,,,,,,,,,,,,,,,,,,
,,656faaea15730b0f6ea31bdd,2024-02-18_21h13.47.817,kallum_motion_pilot,2023.2.2,MacIntel,60.0240096,656faaea15730b0f6ea31bdd,65d2b6c8f2eece985d8e374c,65d2b9423d1e491d72e7ec2e,0.015,0.015,0,13,13,80,1,fivesix,,,,,,,,,,,,,,,,,,,,,,,,,,,,,,,,,,,,,,,,,,,,,,,,,,,,,,,,,,,,,,,,,,,,,,,,,,,,,,,,,,,,,,,,,,,,,,,,,,,,,,,,,,,,,,,,,,,,,,,,,,,,,,,,,,,,,,,,,
,,656faaea15730b0f6ea31bdd,2024-02-18_21h13.47.817,kallum_motion_pilot,2023.2.2,MacIntel,60.0240096,656faaea15730b0f6ea31bdd,65d2b6c8f2eece985d8e374c,65d2b9423d1e491d72e7ec2e,0.015,0.015,0,14,14,71,1,fourthree,,,,,,,,,,,,,,,,,,,,,,,,,,,,,,,,,,,,,,,,,,,,,,,,,,,,,,,,,,,,,,,,,,,,,,,,,,,,,,,,,,,,,,,,,,,,,,,,,,,,,,,,,,,,,,,,,,,,,,,,,,,,,,,,,,,,,,,,,
,,656faaea15730b0f6ea31bdd,2024-02-18_21h13.47.817,kallum_motion_pilot,2023.2.2,MacIntel,60.0240096,656faaea15730b0f6ea31bdd,65d2b6c8f2eece985d8e374c,65d2b9423d1e491d72e7ec2e,0.015,0.015,0,15,15,123,1,sixeight,,,,,,,,,,,,,,,,,,,,,,,,,,,,,,,,,,,,,,,,,,,,,,,,,,,,,,,,,,,,,,,,,,,,,,,,,,,,,,,,,,,,,,,,,,,,,,,,,,,,,,,,,,,,,,,,,,,,,,,,,,,,,,,,,,,,,,,,,
,,656faaea15730b0f6ea31bdd,2024-02-18_21h13.47.817,kallum_motion_pilot,2023.2.2,MacIntel,60.0240096,656faaea15730b0f6ea31bdd,65d2b6c8f2eece985d8e374c,65d2b9423d1e491d72e7ec2e,0.015,0.015,0,16,16,130,1,sixfive,,,,,,,,,,,,,,,,,,,,,,,,,,,,,,,,,,,,,,,,,,,,,,,,,,,,,,,,,,,,,,,,,,,,,,,,,,,,,,,,,,,,,,,,,,,,,,,,,,,,,,,,,,,,,,,,,,,,,,,,,,,,,,,,,,,,,,,,,
,,656faaea15730b0f6ea31bdd,2024-02-18_21h13.47.817,kallum_motion_pilot,2023.2.2,MacIntel,60.0240096,656faaea15730b0f6ea31bdd,65d2b6c8f2eece985d8e374c,65d2b9423d1e491d72e7ec2e,0.015,0.015,0,17,17,144,1,fivesix,,,,,,,,,,,,,,,,,,,,,,,,,,,,,,,,,,,,,,,,,,,,,,,,,,,,,,,,,,,,,,,,,,,,,,,,,,,,,,,,,,,,,,,,,,,,,,,,,,,,,,,,,,,,,,,,,,,,,,,,,,,,,,,,,,,,,,,,,
,,656faaea15730b0f6ea31bdd,2024-02-18_21h13.47.817,kallum_motion_pilot,2023.2.2,MacIntel,60.0240096,656faaea15730b0f6ea31bdd,65d2b6c8f2eece985d8e374c,65d2b9423d1e491d72e7ec2e,0.015,0.015,0,18,18,81,1,fiveseven,,,,,,,,,,,,,,,,,,,,,,,,,,,,,,,,,,,,,,,,,,,,,,,,,,,,,,,,,,,,,,,,,,,,,,,,,,,,,,,,,,,,,,,,,,,,,,,,,,,,,,,,,,,,,,,,,,,,,,,,,,,,,,,,,,,,,,,,,
,,656faaea15730b0f6ea31bdd,2024-02-18_21h13.47.817,kallum_motion_pilot,2023.2.2,MacIntel,60.0240096,656faaea15730b0f6ea31bdd,65d2b6c8f2eece985d8e374c,65d2b9423d1e491d72e7ec2e,0.015,0.015,0,19,19,137,1,fiveseven,,,,,,,,,,,,,,,,,,,,,,,,,,,,,,,,,,,,,,,,,,,,,,,,,,,,,,,,,,,,,,,,,,,,,,,,,,,,,,,,,,,,,,,,,,,,,,,,,,,,,,,,,,,,,,,,,,,,,,,,,,,,,,,,,,,,,,,,,
,,656faaea15730b0f6ea31bdd,2024-02-18_21h13.47.817,kallum_motion_pilot,2023.2.2,MacIntel,60.0240096,656faaea15730b0f6ea31bdd,65d2b6c8f2eece985d8e374c,65d2b9423d1e491d72e7ec2e,0.015,0.015,0,20,20,157,1,seveneight,,,,,,,,,,,,,,,,,,,,,,,,,,,,,,,,,,,,,,,,,,,,,,,,,,,,,,,,,,,,,,,,,,,,,,,,,,,,,,,,,,,,,,,,,,,,,,,,,,,,,,,,,,,,,,,,,,,,,,,,,,,,,,,,,,,,,,,,,
,,656faaea15730b0f6ea31bdd,2024-02-18_21h13.47.817,kallum_motion_pilot,2023.2.2,MacIntel,60.0240096,656faaea15730b0f6ea31bdd,65d2b6c8f2eece985d8e374c,65d2b9423d1e491d72e7ec2e,0.015,0.015,0,21,21,142,1,eightsix,,,,,,,,,,,,,,,,,,,,,,,,,,,,,,,,,,,,,,,,,,,,,,,,,,,,,,,,,,,,,,,,,,,,,,,,,,,,,,,,,,,,,,,,,,,,,,,,,,,,,,,,,,,,,,,,,,,,,,,,,,,,,,,,,,,,,,,,,
,,656faaea15730b0f6ea31bdd,2024-02-18_21h13.47.817,kallum_motion_pilot,2023.2.2,MacIntel,60.0240096,656faaea15730b0f6ea31bdd,65d2b6c8f2eece985d8e374c,65d2b9423d1e491d72e7ec2e,0.015,0.015,0,22,22,100,1,sevenfive,,,,,,,,,,,,,,,,,,,,,,,,,,,,,,,,,,,,,,,,,,,,,,,,,,,,,,,,,,,,,,,,,,,,,,,,,,,,,,,,,,,,,,,,,,,,,,,,,,,,,,,,,,,,,,,,,,,,,,,,,,,,,,,,,,,,,,,,,
,,656faaea15730b0f6ea31bdd,2024-02-18_21h13.47.817,kallum_motion_pilot,2023.2.2,MacIntel,60.0240096,656faaea15730b0f6ea31bdd,65d2b6c8f2eece985d8e374c,65d2b9423d1e491d72e7ec2e,0.015,0.015,0,23,23,125,1,seveneight,,,,,,,,,,,,,,,,,,,,,,,,,,,,,,,,,,,,,,,,,,,,,,,,,,,,,,,,,,,,,,,,,,,,,,,,,,,,,,,,,,,,,,,,,,,,,,,,,,,,,,,,,,,,,,,,,,,,,,,,,,,,,,,,,,,,,,,,,
,,656faaea15730b0f6ea31bdd,2024-02-18_21h13.47.817,kallum_motion_pilot,2023.2.2,MacIntel,60.0240096,656faaea15730b0f6ea31bdd,65d2b6c8f2eece985d8e374c,65d2b9423d1e491d72e7ec2e,0.015,0.016,0,24,24,50,1,twoone,,,,,,,,,,,,,,,,,,,,,,,,,,,,,,,,,,,,,,,,,,,,,,,,,,,,,,,,,,,,,,,,,,,,,,,,,,,,,,,,,,,,,,,,,,,,,,,,,,,,,,,,,,,,,,,,,,,,,,,,,,,,,,,,,,,,,,,,,
,,656faaea15730b0f6ea31bdd,2024-02-18_21h13.47.817,kallum_motion_pilot,2023.2.2,MacIntel,60.0240096,656faaea15730b0f6ea31bdd,65d2b6c8f2eece985d8e374c,65d2b9423d1e491d72e7ec2e,0.016,0.016,0,25,25,75,1,twofour,,,,,,,,,,,,,,,,,,,,,,,,,,,,,,,,,,,,,,,,,,,,,,,,,,,,,,,,,,,,,,,,,,,,,,,,,,,,,,,,,,,,,,,,,,,,,,,,,,,,,,,,,,,,,,,,,,,,,,,,,,,,,,,,,,,,,,,,,
,,656faaea15730b0f6ea31bdd,2024-02-18_21h13.47.817,kallum_motion_pilot,2023.2.2,MacIntel,60.0240096,656faaea15730b0f6ea31bdd,65d2b6c8f2eece985d8e374c,65d2b9423d1e491d72e7ec2e,0.016,0.016,0,26,26,14,1,fourtwo,,,,,,,,,,,,,,,,,,,,,,,,,,,,,,,,,,,,,,,,,,,,,,,,,,,,,,,,,,,,,,,,,,,,,,,,,,,,,,,,,,,,,,,,,,,,,,,,,,,,,,,,,,,,,,,,,,,,,,,,,,,,,,,,,,,,,,,,,
,,656faaea15730b0f6ea31bdd,2024-02-18_21h13.47.817,kallum_motion_pilot,2023.2.2,MacIntel,60.0240096,656faaea15730b0f6ea31bdd,65d2b6c8f2eece985d8e374c,65d2b9423d1e491d72e7ec2e,0.016,0.016,0,27,27,126,1,eightsix,,,,,,,,,,,,,,,,,,,,,,,,,,,,,,,,,,,,,,,,,,,,,,,,,,,,,,,,,,,,,,,,,,,,,,,,,,,,,,,,,,,,,,,,,,,,,,,,,,,,,,,,,,,,,,,,,,,,,,,,,,,,,,,,,,,,,,,,,
,,656faaea15730b0f6ea31bdd,2024-02-18_21h13.47.817,kallum_motion_pilot,2023.2.2,MacIntel,60.0240096,656faaea15730b0f6ea31bdd,65d2b6c8f2eece985d8e374c,65d2b9423d1e491d72e7ec2e,0.016,0.016,0,28,28,15,1,fourthree,,,,,,,,,,,,,,,,,,,,,,,,,,,,,,,,,,,,,,,,,,,,,,,,,,,,,,,,,,,,,,,,,,,,,,,,,,,,,,,,,,,,,,,,,,,,,,,,,,,,,,,,,,,,,,,,,,,,,,,,,,,,,,,,,,,,,,,,,
,,656faaea15730b0f6ea31bdd,2024-02-18_21h13.47.817,kallum_motion_pilot,2023.2.2,MacIntel,60.0240096,656faaea15730b0f6ea31bdd,65d2b6c8f2eece985d8e374c,65d2b9423d1e491d72e7ec2e,0.016,0.016,0,29,29,46,1,fourtwo,,,,,,,,,,,,,,,,,,,,,,,,,,,,,,,,,,,,,,,,,,,,,,,,,,,,,,,,,,,,,,,,,,,,,,,,,,,,,,,,,,,,,,,,,,,,,,,,,,,,,,,,,,,,,,,,,,,,,,,,,,,,,,,,,,,,,,,,,
,,656faaea15730b0f6ea31bdd,2024-02-18_21h13.47.817,kallum_motion_pilot,2023.2.2,MacIntel,60.0240096,656faaea15730b0f6ea31bdd,65d2b6c8f2eece985d8e374c,65d2b9423d1e491d72e7ec2e,0.016,0.016,0,30,30,153,1,fiveseven,,,,,,,,,,,,,,,,,,,,,,,,,,,,,,,,,,,,,,,,,,,,,,,,,,,,,,,,,,,,,,,,,,,,,,,,,,,,,,,,,,,,,,,,,,,,,,,,,,,,,,,,,,,,,,,,,,,,,,,,,,,,,,,,,,,,,,,,,
,,656faaea15730b0f6ea31bdd,2024-02-18_21h13.47.817,kallum_motion_pilot,2023.2.2,MacIntel,60.0240096,656faaea15730b0f6ea31bdd,65d2b6c8f2eece985d8e374c,65d2b9423d1e491d72e7ec2e,0.016,0.016,0,31,31,69,1,threefour,,,,,,,,,,,,,,,,,,,,,,,,,,,,,,,,,,,,,,,,,,,,,,,,,,,,,,,,,,,,,,,,,,,,,,,,,,,,,,,,,,,,,,,,,,,,,,,,,,,,,,,,,,,,,,,,,,,,,,,,,,,,,,,,,,,,,,,,,
,,656faaea15730b0f6ea31bdd,2024-02-18_21h13.47.817,kallum_motion_pilot,2023.2.2,MacIntel,60.0240096,656faaea15730b0f6ea31bdd,65d2b6c8f2eece985d8e374c,65d2b9423d1e491d72e7ec2e,0.016,0.016,0,32,32,131,1,sixeight,,,,,,,,,,,,,,,,,,,,,,,,,,,,,,,,,,,,,,,,,,,,,,,,,,,,,,,,,,,,,,,,,,,,,,,,,,,,,,,,,,,,,,,,,,,,,,,,,,,,,,,,,,,,,,,,,,,,,,,,,,,,,,,,,,,,,,,,,
,,656faaea15730b0f6ea31bdd,2024-02-18_21h13.47.817,kallum_motion_pilot,2023.2.2,MacIntel,60.0240096,656faaea15730b0f6ea31bdd,65d2b6c8f2eece985d8e374c,65d2b9423d1e491d72e7ec2e,0.02,0.02,0,33,33,127,1,eightseven,,,,,,,,,,,,,,,,,,,,,,,,,,,,,,,,,,,,,,,,,,,,,,,,,,,,,,,,,,,,,,,,,,,,,,,,,,,,,,,,,,,,,,,,,,,,,,,,,,,,,,,,,,,,,,,,,,,,,,,,,,,,,,,,,,,,,,,,,
,,656faaea15730b0f6ea31bdd,2024-02-18_21h13.47.817,kallum_motion_pilot,2023.2.2,MacIntel,60.0240096,656faaea15730b0f6ea31bdd,65d2b6c8f2eece985d8e374c,65d2b9423d1e491d72e7ec2e,0.02,0.02,0,34,34,138,1,sixfive,,,,,,,,,,,,,,,,,,,,,,,,,,,,,,,,,,,,,,,,,,,,,,,,,,,,,,,,,,,,,,,,,,,,,,,,,,,,,,,,,,,,,,,,,,,,,,,,,,,,,,,,,,,,,,,,,,,,,,,,,,,,,,,,,,,,,,,,,
,,656faaea15730b0f6ea31bdd,2024-02-18_21h13.47.817,kallum_motion_pilot,2023.2.2,MacIntel,60.0240096,656faaea15730b0f6ea31bdd,65d2b6c8f2eece985d8e374c,65d2b9423d1e491d72e7ec2e,0.02,0.02,0,35,35,53,1,threefour,,,,,,,,,,,,,,,,,,,,,,,,,,,,,,,,,,,,,,,,,,,,,,,,,,,,,,,,,,,,,,,,,,,,,,,,,,,,,,,,,,,,,,,,,,,,,,,,,,,,,,,,,,,,,,,,,,,,,,,,,,,,,,,,,,,,,,,,,
,,656faaea15730b0f6ea31bdd,2024-02-18_21h13.47.817,kallum_motion_pilot,2023.2.2,MacIntel,60.0240096,656faaea15730b0f6ea31bdd,65d2b6c8f2eece985d8e374c,65d2b9423d1e491d72e7ec2e,0.02,0.02,0,36,36,109,1,seveneight,,,,,,,,,,,,,,,,,,,,,,,,,,,,,,,,,,,,,,,,,,,,,,,,,,,,,,,,,,,,,,,,,,,,,,,,,,,,,,,,,,,,,,,,,,,,,,,,,,,,,,,,,,,,,,,,,,,,,,,,,,,,,,,,,,,,,,,,,
,,656faaea15730b0f6ea31bdd,2024-02-18_21h13.47.817,kallum_motion_pilot,2023.2.2,MacIntel,60.0240096,656faaea15730b0f6ea31bdd,65d2b6c8f2eece985d8e374c,65d2b9423d1e491d72e7ec2e,0.02,0.02,0,37,37,68,1,threeone,,,,,,,,,,,,,,,,,,,,,,,,,,,,,,,,,,,,,,,,,,,,,,,,,,,,,,,,,,,,,,,,,,,,,,,,,,,,,,,,,,,,,,,,,,,,,,,,,,,,,,,,,,,,,,,,,,,,,,,,,,,,,,,,,,,,,,,,,
,,656faaea15730b0f6ea31bdd,2024-02-18_21h13.47.817,kallum_motion_pilot,2023.2.2,MacIntel,60.0240096,656faaea15730b0f6ea31bdd,65d2b6c8f2eece985d8e374c,65d2b9423d1e491d72e7ec2e,0.02,0.02,0,38,38,44,1,threeone,,,,,,,,,,,,,,,,,,,,,,,,,,,,,,,,,,,,,,,,,,,,,,,,,,,,,,,,,,,,,,,,,,,,,,,,,,,,,,,,,,,,,,,,,,,,,,,,,,,,,,,,,,,,,,,,,,,,,,,,,,,,,,,,,,,,,,,,,
,,656faaea15730b0f6ea31bdd,2024-02-18_21h13.47.817,kallum_motion_pilot,2023.2.2,MacIntel,60.0240096,656faaea15730b0f6ea31bdd,65d2b6c8f2eece985d8e374c,65d2b9423d1e491d72e7ec2e,0.02,0.02,0,39,39,102,1,eightsix,,,,,,,,,,,,,,,,,,,,,,,,,,,,,,,,,,,,,,,,,,,,,,,,,,,,,,,,,,,,,,,,,,,,,,,,,,,,,,,,,,,,,,,,,,,,,,,,,,,,,,,,,,,,,,,,,,,,,,,,,,,,,,,,,,,,,,,,,
,,656faaea15730b0f6ea31bdd,2024-02-18_21h13.47.817,kallum_motion_pilot,2023.2.2,MacIntel,60.0240096,656faaea15730b0f6ea31bdd,65d2b6c8f2eece985d8e374c,65d2b9423d1e491d72e7ec2e,0.02,0.02,0,40,40,28,1,threeone,,,,,,,,,,,,,,,,,,,,,,,,,,,,,,,,,,,,,,,,,,,,,,,,,,,,,,,,,,,,,,,,,,,,,,,,,,,,,,,,,,,,,,,,,,,,,,,,,,,,,,,,,,,,,,,,,,,,,,,,,,,,,,,,,,,,,,,,,
,,656faaea15730b0f6ea31bdd,2024-02-18_21h13.47.817,kallum_motion_pilot,2023.2.2,MacIntel,60.0240096,656faaea15730b0f6ea31bdd,65d2b6c8f2eece985d8e374c,65d2b9423d1e491d72e7ec2e,0.02,0.02,0,41,41,35,1,twofour,,,,,,,,,,,,,,,,,,,,,,,,,,,,,,,,,,,,,,,,,,,,,,,,,,,,,,,,,,,,,,,,,,,,,,,,,,,,,,,,,,,,,,,,,,,,,,,,,,,,,,,,,,,,,,,,,,,,,,,,,,,,,,,,,,,,,,,,,
,,656faaea15730b0f6ea31bdd,2024-02-18_21h13.47.817,kallum_motion_pilot,2023.2.2,MacIntel,60.0240096,656faaea15730b0f6ea31bdd,65d2b6c8f2eece985d8e374c,65d2b9423d1e491d72e7ec2e,0.02,0.02,0,42,42,39,1,fourthree,,,,,,,,,,,,,,,,,,,,,,,,,,,,,,,,,,,,,,,,,,,,,,,,,,,,,,,,,,,,,,,,,,,,,,,,,,,,,,,,,,,,,,,,,,,,,,,,,,,,,,,,,,,,,,,,,,,,,,,,,,,,,,,,,,,,,,,,,
,,656faaea15730b0f6ea31bdd,2024-02-18_21h13.47.817,kallum_motion_pilot,2023.2.2,MacIntel,60.0240096,656faaea15730b0f6ea31bdd,65d2b6c8f2eece985d8e374c,65d2b9423d1e491d72e7ec2e,0.02,0.02,0,43,43,132,1,sevenfive,,,,,,,,,,,,,,,,,,,,,,,,,,,,,,,,,,,,,,,,,,,,,,,,,,,,,,,,,,,,,,,,,,,,,,,,,,,,,,,,,,,,,,,,,,,,,,,,,,,,,,,,,,,,,,,,,,,,,,,,,,,,,,,,,,,,,,,,,
,,656faaea15730b0f6ea31bdd,2024-02-18_21h13.47.817,kallum_motion_pilot,2023.2.2,MacIntel,60.0240096,656faaea15730b0f6ea31bdd,65d2b6c8f2eece985d8e374c,65d2b9423d1e491d72e7ec2e,0.02,0.02,0,44,44,113,1,fiveseven,,,,,,,,,,,,,,,,,,,,,,,,,,,,,,,,,,,,,,,,,,,,,,,,,,,,,,,,,,,,,,,,,,,,,,,,,,,,,,,,,,,,,,,,,,,,,,,,,,,,,,,,,,,,,,,,,,,,,,,,,,,,,,,,,,,,,,,,,
,,656faaea15730b0f6ea31bdd,2024-02-18_21h13.47.817,kallum_motion_pilot,2023.2.2,MacIntel,60.0240096,656faaea15730b0f6ea31bdd,65d2b6c8f2eece985d8e374c,65d2b9423d1e491d72e7ec2e,0.021,0.021,0,45,45,76,1,threeone,,,,,,,,,,,,,,,,,,,,,,,,,,,,,,,,,,,,,,,,,,,,,,,,,,,,,,,,,,,,,,,,,,,,,,,,,,,,,,,,,,,,,,,,,,,,,,,,,,,,,,,,,,,,,,,,,,,,,,,,,,,,,,,,,,,,,,,,,
,,656faaea15730b0f6ea31bdd,2024-02-18_21h13.47.817,kallum_motion_pilot,2023.2.2,MacIntel,60.0240096,656faaea15730b0f6ea31bdd,65d2b6c8f2eece985d8e374c,65d2b9423d1e491d72e7ec2e,0.021,0.021,0,46,46,20,1,threeone,,,,,,,,,,,,,,,,,,,,,,,,,,,,,,,,,,,,,,,,,,,,,,,,,,,,,,,,,,,,,,,,,,,,,,,,,,,,,,,,,,,,,,,,,,,,,,,,,,,,,,,,,,,,,,,,,,,,,,,,,,,,,,,,,,,,,,,,,
,,656faaea15730b0f6ea31bdd,2024-02-18_21h13.47.817,kallum_motion_pilot,2023.2.2,MacIntel,60.0240096,656faaea15730b0f6ea31bdd,65d2b6c8f2eece985d8e374c,65d2b9423d1e491d72e7ec2e,0.021,0.021,0,47,47,52,1,threeone,,,,,,,,,,,,,,,,,,,,,,,,,,,,,,,,,,,,,,,,,,,,,,,,,,,,,,,,,,,,,,,,,,,,,,,,,,,,,,,,,,,,,,,,,,,,,,,,,,,,,,,,,,,,,,,,,,,,,,,,,,,,,,,,,,,,,,,,,
,,656faaea15730b0f6ea31bdd,2024-02-18_21h13.47.817,kallum_motion_pilot,2023.2.2,MacIntel,60.0240096,656faaea15730b0f6ea31bdd,65d2b6c8f2eece985d8e374c,65d2b9423d1e491d72e7ec2e,0.021,0.021,0,48,48,26,1,twoone,,,,,,,,,,,,,,,,,,,,,,,,,,,,,,,,,,,,,,,,,,,,,,,,,,,,,,,,,,,,,,,,,,,,,,,,,,,,,,,,,,,,,,,,,,,,,,,,,,,,,,,,,,,,,,,,,,,,,,,,,,,,,,,,,,,,,,,,,
,,656faaea15730b0f6ea31bdd,2024-02-18_21h13.47.817,kallum_motion_pilot,2023.2.2,MacIntel,60.0240096,656faaea15730b0f6ea31bdd,65d2b6c8f2eece985d8e374c,65d2b9423d1e491d72e7ec2e,0.021,0.021,0,49,49,72,1,onetwo,,,,,,,,,,,,,,,,,,,,,,,,,,,,,,,,,,,,,,,,,,,,,,,,,,,,,,,,,,,,,,,,,,,,,,,,,,,,,,,,,,,,,,,,,,,,,,,,,,,,,,,,,,,,,,,,,,,,,,,,,,,,,,,,,,,,,,,,,
,,656faaea15730b0f6ea31bdd,2024-02-18_21h13.47.817,kallum_motion_pilot,2023.2.2,MacIntel,60.0240096,656faaea15730b0f6ea31bdd,65d2b6c8f2eece985d8e374c,65d2b9423d1e491d72e7ec2e,0.021,0.021,0,50,50,62,1,fourtwo,,,,,,,,,,,,,,,,,,,,,,,,,,,,,,,,,,,,,,,,,,,,,,,,,,,,,,,,,,,,,,,,,,,,,,,,,,,,,,,,,,,,,,,,,,,,,,,,,,,,,,,,,,,,,,,,,,,,,,,,,,,,,,,,,,,,,,,,,
,,656faaea15730b0f6ea31bdd,2024-02-18_21h13.47.817,kallum_motion_pilot,2023.2.2,MacIntel,60.0240096,656faaea15730b0f6ea31bdd,65d2b6c8f2eece985d8e374c,65d2b9423d1e491d72e7ec2e,0.021,0.021,0,51,51,51,1,twofour,,,,,,,,,,,,,,,,,,,,,,,,,,,,,,,,,,,,,,,,,,,,,,,,,,,,,,,,,,,,,,,,,,,,,,,,,,,,,,,,,,,,,,,,,,,,,,,,,,,,,,,,,,,,,,,,,,,,,,,,,,,,,,,,,,,,,,,,,
,,656faaea15730b0f6ea31bdd,2024-02-18_21h13.47.817,kallum_motion_pilot,2023.2.2,MacIntel,60.0240096,656faaea15730b0f6ea31bdd,65d2b6c8f2eece985d8e374c,65d2b9423d1e491d72e7ec2e,0.021,0.021,0,52,52,18,1,twoone,,,,,,,,,,,,,,,,,,,,,,,,,,,,,,,,,,,,,,,,,,,,,,,,,,,,,,,,,,,,,,,,,,,,,,,,,,,,,,,,,,,,,,,,,,,,,,,,,,,,,,,,,,,,,,,,,,,,,,,,,,,,,,,,,,,,,,,,,
,,656faaea15730b0f6ea31bdd,2024-02-18_21h13.47.817,kallum_motion_pilot,2023.2.2,MacIntel,60.0240096,656faaea15730b0f6ea31bdd,65d2b6c8f2eece985d8e374c,65d2b9423d1e491d72e7ec2e,0.021,0.021,0,53,53,61,1,threefour,,,,,,,,,,,,,,,,,,,,,,,,,,,,,,,,,,,,,,,,,,,,,,,,,,,,,,,,,,,,,,,,,,,,,,,,,,,,,,,,,,,,,,,,,,,,,,,,,,,,,,,,,,,,,,,,,,,,,,,,,,,,,,,,,,,,,,,,,
,,656faaea15730b0f6ea31bdd,2024-02-18_21h13.47.817,kallum_motion_pilot,2023.2.2,MacIntel,60.0240096,656faaea15730b0f6ea31bdd,65d2b6c8f2eece985d8e374c,65d2b9423d1e491d72e7ec2e,0.021,0.021,0,54,54,70,1,fourtwo,,,,,,,,,,,,,,,,,,,,,,,,,,,,,,,,,,,,,,,,,,,,,,,,,,,,,,,,,,,,,,,,,,,,,,,,,,,,,,,,,,,,,,,,,,,,,,,,,,,,,,,,,,,,,,,,,,,,,,,,,,,,,,,,,,,,,,,,,
,,656faaea15730b0f6ea31bdd,2024-02-18_21h13.47.817,kallum_motion_pilot,2023.2.2,MacIntel,60.0240096,656faaea15730b0f6ea31bdd,65d2b6c8f2eece985d8e374c,65d2b9423d1e491d72e7ec2e,0.021,0.021,0,55,55,106,1,sixfive,,,,,,,,,,,,,,,,,,,,,,,,,,,,,,,,,,,,,,,,,,,,,,,,,,,,,,,,,,,,,,,,,,,,,,,,,,,,,,,,,,,,,,,,,,,,,,,,,,,,,,,,,,,,,,,,,,,,,,,,,,,,,,,,,,,,,,,,,
,,656faaea15730b0f6ea31bdd,2024-02-18_21h13.47.817,kallum_motion_pilot,2023.2.2,MacIntel,60.0240096,656faaea15730b0f6ea31bdd,65d2b6c8f2eece985d8e374c,65d2b9423d1e491d72e7ec2e,0.022,0.022,0,56,56,89,1,fiveseven,,,,,,,,,,,,,,,,,,,,,,,,,,,,,,,,,,,,,,,,,,,,,,,,,,,,,,,,,,,,,,,,,,,,,,,,,,,,,,,,,,,,,,,,,,,,,,,,,,,,,,,,,,,,,,,,,,,,,,,,,,,,,,,,,,,,,,,,,
,,656faaea15730b0f6ea31bdd,2024-02-18_21h13.47.817,kallum_motion_pilot,2023.2.2,MacIntel,60.0240096,656faaea15730b0f6ea31bdd,65d2b6c8f2eece985d8e374c,65d2b9423d1e491d72e7ec2e,0.022,0.022,0,57,57,86,1,eightsix,,,,,,,,,,,,,,,,,,,,,,,,,,,,,,,,,,,,,,,,,,,,,,,,,,,,,,,,,,,,,,,,,,,,,,,,,,,,,,,,,,,,,,,,,,,,,,,,,,,,,,,,,,,,,,,,,,,,,,,,,,,,,,,,,,,,,,,,,
,,656faaea15730b0f6ea31bdd,2024-02-18_21h13.47.817,kallum_motion_pilot,2023.2.2,MacIntel,60.0240096,656faaea15730b0f6ea31bdd,65d2b6c8f2eece985d8e374c,65d2b9423d1e491d72e7ec2e,0.022,0.022,0,58,58,120,1,fivesix,,,,,,,,,,,,,,,,,,,,,,,,,,,,,,,,,,,,,,,,,,,,,,,,,,,,,,,,,,,,,,,,,,,,,,,,,,,,,,,,,,,,,,,,,,,,,,,,,,,,,,,,,,,,,,,,,,,,,,,,,,,,,,,,,,,,,,,,,
,,656faaea15730b0f6ea31bdd,2024-02-18_21h13.47.817,kallum_motion_pilot,2023.2.2,MacIntel,60.0240096,656faaea15730b0f6ea31bdd,65d2b6c8f2eece985d8e374c,65d2b9423d1e491d72e7ec2e,0.022,0.022,0,59,59,79,1,eightseven,,,,,,,,,,,,,,,,,,,,,,,,,,,,,,,,,,,,,,,,,,,,,,,,,,,,,,,,,,,,,,,,,,,,,,,,,,,,,,,,,,,,,,,,,,,,,,,,,,,,,,,,,,,,,,,,,,,,,,,,,,,,,,,,,,,,,,,,,
,,656faaea15730b0f6ea31bdd,2024-02-18_21h13.47.817,kallum_motion_pilot,2023.2.2,MacIntel,60.0240096,656faaea15730b0f6ea31bdd,65d2b6c8f2eece985d8e374c,65d2b9423d1e491d72e7ec2e,0.022,0.022,0,60,60,121,1,fiveseven,,,,,,,,,,,,,,,,,,,,,,,,,,,,,,,,,,,,,,,,,,,,,,,,,,,,,,,,,,,,,,,,,,,,,,,,,,,,,,,,,,,,,,,,,,,,,,,,,,,,,,,,,,,,,,,,,,,,,,,,,,,,,,,,,,,,,,,,,
,,656faaea15730b0f6ea31bdd,2024-02-18_21h13.47.817,kallum_motion_pilot,2023.2.2,MacIntel,60.0240096,656faaea15730b0f6ea31bdd,65d2b6c8f2eece985d8e374c,65d2b9423d1e491d72e7ec2e,0.022,0.022,0,61,61,148,1,sevenfive,,,,,,,,,,,,,,,,,,,,,,,,,,,,,,,,,,,,,,,,,,,,,,,,,,,,,,,,,,,,,,,,,,,,,,,,,,,,,,,,,,,,,,,,,,,,,,,,,,,,,,,,,,,,,,,,,,,,,,,,,,,,,,,,,,,,,,,,,
,,656faaea15730b0f6ea31bdd,2024-02-18_21h13.47.817,kallum_motion_pilot,2023.2.2,MacIntel,60.0240096,656faaea15730b0f6ea31bdd,65d2b6c8f2eece985d8e374c,65d2b9423d1e491d72e7ec2e,0.022,0.022,0,62,62,9,1,onethree,,,,,,,,,,,,,,,,,,,,,,,,,,,,,,,,,,,,,,,,,,,,,,,,,,,,,,,,,,,,,,,,,,,,,,,,,,,,,,,,,,,,,,,,,,,,,,,,,,,,,,,,,,,,,,,,,,,,,,,,,,,,,,,,,,,,,,,,,
,,656faaea15730b0f6ea31bdd,2024-02-18_21h13.47.817,kallum_motion_pilot,2023.2.2,MacIntel,60.0240096,656faaea15730b0f6ea31bdd,65d2b6c8f2eece985d8e374c,65d2b9423d1e491d72e7ec2e,0.022,0.022,0,63,63,118,1,eightsix,,,,,,,,,,,,,,,,,,,,,,,,,,,,,,,,,,,,,,,,,,,,,,,,,,,,,,,,,,,,,,,,,,,,,,,,,,,,,,,,,,,,,,,,,,,,,,,,,,,,,,,,,,,,,,,,,,,,,,,,,,,,,,,,,,,,,,,,,
,,656faaea15730b0f6ea31bdd,2024-02-18_21h13.47.817,kallum_motion_pilot,2023.2.2,MacIntel,60.0240096,656faaea15730b0f6ea31bdd,65d2b6c8f2eece985d8e374c,65d2b9423d1e491d72e7ec2e,0.022,0.022,0,64,64,98,1,sixfive,,,,,,,,,,,,,,,,,,,,,,,,,,,,,,,,,,,,,,,,,,,,,,,,,,,,,,,,,,,,,,,,,,,,,,,,,,,,,,,,,,,,,,,,,,,,,,,,,,,,,,,,,,,,,,,,,,,,,,,,,,,,,,,,,,,,,,,,,
,,656faaea15730b0f6ea31bdd,2024-02-18_21h13.47.817,kallum_motion_pilot,2023.2.2,MacIntel,60.0240096,656faaea15730b0f6ea31bdd,65d2b6c8f2eece985d8e374c,65d2b9423d1e491d72e7ec2e,0.022,0.022,0,65,65,33,1,onethree,,,,,,,,,,,,,,,,,,,,,,,,,,,,,,,,,,,,,,,,,,,,,,,,,,,,,,,,,,,,,,,,,,,,,,,,,,,,,,,,,,,,,,,,,,,,,,,,,,,,,,,,,,,,,,,,,,,,,,,,,,,,,,,,,,,,,,,,,
,,656faaea15730b0f6ea31bdd,2024-02-18_21h13.47.817,kallum_motion_pilot,2023.2.2,MacIntel,60.0240096,656faaea15730b0f6ea31bdd,65d2b6c8f2eece985d8e374c,65d2b9423d1e491d72e7ec2e,0.022,0.022,0,66,66,67,1,twofour,,,,,,,,,,,,,,,,,,,,,,,,,,,,,,,,,,,,,,,,,,,,,,,,,,,,,,,,,,,,,,,,,,,,,,,,,,,,,,,,,,,,,,,,,,,,,,,,,,,,,,,,,,,,,,,,,,,,,,,,,,,,,,,,,,,,,,,,,
,,656faaea15730b0f6ea31bdd,2024-02-18_21h13.47.817,kallum_motion_pilot,2023.2.2,MacIntel,60.0240096,656faaea15730b0f6ea31bdd,65d2b6c8f2eece985d8e374c,65d2b9423d1e491d72e7ec2e,0.022,0.022,0,67,67,57,1,onethree,,,,,,,,,,,,,,,,,,,,,,,,,,,,,,,,,,,,,,,,,,,,,,,,,,,,,,,,,,,,,,,,,,,,,,,,,,,,,,,,,,,,,,,,,,,,,,,,,,,,,,,,,,,,,,,,,,,,,,,,,,,,,,,,,,,,,,,,,
,,656faaea15730b0f6ea31bdd,2024-02-18_21h13.47.817,kallum_motion_pilot,2023.2.2,MacIntel,60.0240096,656faaea15730b0f6ea31bdd,65d2b6c8f2eece985d8e374c,65d2b9423d1e491d72e7ec2e,0.022,0.022,0,68,68,58,1,twoone,,,,,,,,,,,,,,,,,,,,,,,,,,,,,,,,,,,,,,,,,,,,,,,,,,,,,,,,,,,,,,,,,,,,,,,,,,,,,,,,,,,,,,,,,,,,,,,,,,,,,,,,,,,,,,,,,,,,,,,,,,,,,,,,,,,,,,,,,
,,656faaea15730b0f6ea31bdd,2024-02-18_21h13.47.817,kallum_motion_pilot,2023.2.2,MacIntel,60.0240096,656faaea15730b0f6ea31bdd,65d2b6c8f2eece985d8e374c,65d2b9423d1e491d72e7ec2e,0.022,0.022,0,69,69,122,1,sixfive,,,,,,,,,,,,,,,,,,,,,,,,,,,,,,,,,,,,,,,,,,,,,,,,,,,,,,,,,,,,,,,,,,,,,,,,,,,,,,,,,,,,,,,,,,,,,,,,,,,,,,,,,,,,,,,,,,,,,,,,,,,,,,,,,,,,,,,,,
,,656faaea15730b0f6ea31bdd,2024-02-18_21h13.47.817,kallum_motion_pilot,2023.2.2,MacIntel,60.0240096,656faaea15730b0f6ea31bdd,65d2b6c8f2eece985d8e374c,65d2b9423d1e491d72e7ec2e,0.022,0.022,0,70,70,73,1,onethree,,,,,,,,,,,,,,,,,,,,,,,,,,,,,,,,,,,,,,,,,,,,,,,,,,,,,,,,,,,,,,,,,,,,,,,,,,,,,,,,,,,,,,,,,,,,,,,,,,,,,,,,,,,,,,,,,,,,,,,,,,,,,,,,,,,,,,,,,
,,656faaea15730b0f6ea31bdd,2024-02-18_21h13.47.817,kallum_motion_pilot,2023.2.2,MacIntel,60.0240096,656faaea15730b0f6ea31bdd,65d2b6c8f2eece985d8e374c,65d2b9423d1e491d72e7ec2e,0.022,0.022,0,71,71,34,1,twoone,,,,,,,,,,,,,,,,,,,,,,,,,,,,,,,,,,,,,,,,,,,,,,,,,,,,,,,,,,,,,,,,,,,,,,,,,,,,,,,,,,,,,,,,,,,,,,,,,,,,,,,,,,,,,,,,,,,,,,,,,,,,,,,,,,,,,,,,,
,,656faaea15730b0f6ea31bdd,2024-02-18_21h13.47.817,kallum_motion_pilot,2023.2.2,MacIntel,60.0240096,656faaea15730b0f6ea31bdd,65d2b6c8f2eece985d8e374c,65d2b9423d1e491d72e7ec2e,0.022,0.022,0,72,72,31,1,fourthree,,,,,,,,,,,,,,,,,,,,,,,,,,,,,,,,,,,,,,,,,,,,,,,,,,,,,,,,,,,,,,,,,,,,,,,,,,,,,,,,,,,,,,,,,,,,,,,,,,,,,,,,,,,,,,,,,,,,,,,,,,,,,,,,,,,,,,,,,
,,656faaea15730b0f6ea31bdd,2024-02-18_21h13.47.817,kallum_motion_pilot,2023.2.2,MacIntel,60.0240096,656faaea15730b0f6ea31bdd,65d2b6c8f2eece985d8e374c,65d2b9423d1e491d72e7ec2e,0.022,0.022,0,73,73,99,1,sixeight,,,,,,,,,,,,,,,,,,,,,,,,,,,,,,,,,,,,,,,,,,,,,,,,,,,,,,,,,,,,,,,,,,,,,,,,,,,,,,,,,,,,,,,,,,,,,,,,,,,,,,,,,,,,,,,,,,,,,,,,,,,,,,,,,,,,,,,,,
,,656faaea15730b0f6ea31bdd,2024-02-18_21h13.47.817,kallum_motion_pilot,2023.2.2,MacIntel,60.0240096,656faaea15730b0f6ea31bdd,65d2b6c8f2eece985d8e374c,65d2b9423d1e491d72e7ec2e,0.022,0.023,0,74,74,40,1,onetwo,,,,,,,,,,,,,,,,,,,,,,,,,,,,,,,,,,,,,,,,,,,,,,,,,,,,,,,,,,,,,,,,,,,,,,,,,,,,,,,,,,,,,,,,,,,,,,,,,,,,,,,,,,,,,,,,,,,,,,,,,,,,,,,,,,,,,,,,,
,,656faaea15730b0f6ea31bdd,2024-02-18_21h13.47.817,kallum_motion_pilot,2023.2.2,MacIntel,60.0240096,656faaea15730b0f6ea31bdd,65d2b6c8f2eece985d8e374c,65d2b9423d1e491d72e7ec2e,0.023,0.023,0,75,75,36,1,threeone,,,,,,,,,,,,,,,,,,,,,,,,,,,,,,,,,,,,,,,,,,,,,,,,,,,,,,,,,,,,,,,,,,,,,,,,,,,,,,,,,,,,,,,,,,,,,,,,,,,,,,,,,,,,,,,,,,,,,,,,,,,,,,,,,,,,,,,,,
,,656faaea15730b0f6ea31bdd,2024-02-18_21h13.47.817,kallum_motion_pilot,2023.2.2,MacIntel,60.0240096,656faaea15730b0f6ea31bdd,65d2b6c8f2eece985d8e374c,65d2b9423d1e491d72e7ec2e,0.023,0.023,0,76,76,88,1,fivesix,,,,,,,,,,,,,,,,,,,,,,,,,,,,,,,,,,,,,,,,,,,,,,,,,,,,,,,,,,,,,,,,,,,,,,,,,,,,,,,,,,,,,,,,,,,,,,,,,,,,,,,,,,,,,,,,,,,,,,,,,,,,,,,,,,,,,,,,,
,,656faaea15730b0f6ea31bdd,2024-02-18_21h13.47.817,kallum_motion_pilot,2023.2.2,MacIntel,60.0240096,656faaea15730b0f6ea31bdd,65d2b6c8f2eece985d8e374c,65d2b9423d1e491d72e7ec2e,0.023,0.023,0,77,77,42,1,twoone,,,,,,,,,,,,,,,,,,,,,,,,,,,,,,,,,,,,,,,,,,,,,,,,,,,,,,,,,,,,,,,,,,,,,,,,,,,,,,,,,,,,,,,,,,,,,,,,,,,,,,,,,,,,,,,,,,,,,,,,,,,,,,,,,,,,,,,,,
,,656faaea15730b0f6ea31bdd,2024-02-18_21h13.47.817,kallum_motion_pilot,2023.2.2,MacIntel,60.0240096,656faaea15730b0f6ea31bdd,65d2b6c8f2eece985d8e374c,65d2b9423d1e491d72e7ec2e,0.023,0.023,0,78,78,63,1,fourthree,,,,,,,,,,,,,,,,,,,,,,,,,,,,,,,,,,,,,,,,,,,,,,,,,,,,,,,,,,,,,,,,,,,,,,,,,,,,,,,,,,,,,,,,,,,,,,,,,,,,,,,,,,,,,,,,,,,,,,,,,,,,,,,,,,,,,,,,,
,,656faaea15730b0f6ea31bdd,2024-02-18_21h13.47.817,kallum_motion_pilot,2023.2.2,MacIntel,60.0240096,656faaea15730b0f6ea31bdd,65d2b6c8f2eece985d8e374c,65d2b9423d1e491d72e7ec2e,0.023,0.023,0,79,79,1,1,onethree,,,,,,,,,,,,,,,,,,,,,,,,,,,,,,,,,,,,,,,,,,,,,,,,,,,,,,,,,,,,,,,,,,,,,,,,,,,,,,,,,,,,,,,,,,,,,,,,,,,,,,,,,,,,,,,,,,,,,,,,,,,,,,,,,,,,,,,,,
,,656faaea15730b0f6ea31bdd,2024-02-18_21h13.47.817,kallum_motion_pilot,2023.2.2,MacIntel,60.0240096,656faaea15730b0f6ea31bdd,65d2b6c8f2eece985d8e374c,65d2b9423d1e491d72e7ec2e,0.023,0.023,0,80,80,149,1,seveneight,,,,,,,,,,,,,,,,,,,,,,,,,,,,,,,,,,,,,,,,,,,,,,,,,,,,,,,,,,,,,,,,,,,,,,,,,,,,,,,,,,,,,,,,,,,,,,,,,,,,,,,,,,,,,,,,,,,,,,,,,,,,,,,,,,,,,,,,,
,,656faaea15730b0f6ea31bdd,2024-02-18_21h13.47.817,kallum_motion_pilot,2023.2.2,MacIntel,60.0240096,656faaea15730b0f6ea31bdd,65d2b6c8f2eece985d8e374c,65d2b9423d1e491d72e7ec2e,0.023,0.023,0,81,81,143,1,eightseven,,,,,,,,,,,,,,,,,,,,,,,,,,,,,,,,,,,,,,,,,,,,,,,,,,,,,,,,,,,,,,,,,,,,,,,,,,,,,,,,,,,,,,,,,,,,,,,,,,,,,,,,,,,,,,,,,,,,,,,,,,,,,,,,,,,,,,,,,
,,656faaea15730b0f6ea31bdd,2024-02-18_21h13.47.817,kallum_motion_pilot,2023.2.2,MacIntel,60.0240096,656faaea15730b0f6ea31bdd,65d2b6c8f2eece985d8e374c,65d2b9423d1e491d72e7ec2e,0.023,0.023,0,82,82,55,1,fourthree,,,,,,,,,,,,,,,,,,,,,,,,,,,,,,,,,,,,,,,,,,,,,,,,,,,,,,,,,,,,,,,,,,,,,,,,,,,,,,,,,,,,,,,,,,,,,,,,,,,,,,,,,,,,,,,,,,,,,,,,,,,,,,,,,,,,,,,,,
,,656faaea15730b0f6ea31bdd,2024-02-18_21h13.47.817,kallum_motion_pilot,2023.2.2,MacIntel,60.0240096,656faaea15730b0f6ea31bdd,65d2b6c8f2eece985d8e374c,65d2b9423d1e491d72e7ec2e,0.023,0.023,0,83,83,90,1,sixfive,,,,,,,,,,,,,,,,,,,,,,,,,,,,,,,,,,,,,,,,,,,,,,,,,,,,,,,,,,,,,,,,,,,,,,,,,,,,,,,,,,,,,,,,,,,,,,,,,,,,,,,,,,,,,,,,,,,,,,,,,,,,,,,,,,,,,,,,,
,,656faaea15730b0f6ea31bdd,2024-02-18_21h13.47.817,kallum_motion_pilot,2023.2.2,MacIntel,60.0240096,656faaea15730b0f6ea31bdd,65d2b6c8f2eece985d8e374c,65d2b9423d1e491d72e7ec2e,0.023,0.023,0,84,84,95,1,eightseven,,,,,,,,,,,,,,,,,,,,,,,,,,,,,,,,,,,,,,,,,,,,,,,,,,,,,,,,,,,,,,,,,,,,,,,,,,,,,,,,,,,,,,,,,,,,,,,,,,,,,,,,,,,,,,,,,,,,,,,,,,,,,,,,,,,,,,,,,
,,656faaea15730b0f6ea31bdd,2024-02-18_21h13.47.817,kallum_motion_pilot,2023.2.2,MacIntel,60.0240096,656faaea15730b0f6ea31bdd,65d2b6c8f2eece985d8e374c,65d2b9423d1e491d72e7ec2e,0.023,0.023,0,85,85,104,1,fivesix,,,,,,,,,,,,,,,,,,,,,,,,,,,,,,,,,,,,,,,,,,,,,,,,,,,,,,,,,,,,,,,,,,,,,,,,,,,,,,,,,,,,,,,,,,,,,,,,,,,,,,,,,,,,,,,,,,,,,,,,,,,,,,,,,,,,,,,,,
,,656faaea15730b0f6ea31bdd,2024-02-18_21h13.47.817,kallum_motion_pilot,2023.2.2,MacIntel,60.0240096,656faaea15730b0f6ea31bdd,65d2b6c8f2eece985d8e374c,65d2b9423d1e491d72e7ec2e,0.023,0.023,0,86,86,111,1,eightseven,,,,,,,,,,,,,,,,,,,,,,,,,,,,,,,,,,,,,,,,,,,,,,,,,,,,,,,,,,,,,,,,,,,,,,,,,,,,,,,,,,,,,,,,,,,,,,,,,,,,,,,,,,,,,,,,,,,,,,,,,,,,,,,,,,,,,,,,,
,,656faaea15730b0f6ea31bdd,2024-02-18_21h13.47.817,kallum_motion_pilot,2023.2.2,MacIntel,60.0240096,656faaea15730b0f6ea31bdd,65d2b6c8f2eece985d8e374c,65d2b9423d1e491d72e7ec2e,0.023,0.023,0,87,87,27,1,twofour,,,,,,,,,,,,,,,,,,,,,,,,,,,,,,,,,,,,,,,,,,,,,,,,,,,,,,,,,,,,,,,,,,,,,,,,,,,,,,,,,,,,,,,,,,,,,,,,,,,,,,,,,,,,,,,,,,,,,,,,,,,,,,,,,,,,,,,,,
,,656faaea15730b0f6ea31bdd,2024-02-18_21h13.47.817,kallum_motion_pilot,2023.2.2,MacIntel,60.0240096,656faaea15730b0f6ea31bdd,65d2b6c8f2eece985d8e374c,65d2b9423d1e491d72e7ec2e,0.023,0.023,0,88,88,65,1,onethree,,,,,,,,,,,,,,,,,,,,,,,,,,,,,,,,,,,,,,,,,,,,,,,,,,,,,,,,,,,,,,,,,,,,,,,,,,,,,,,,,,,,,,,,,,,,,,,,,,,,,,,,,,,,,,,,,,,,,,,,,,,,,,,,,,,,,,,,,
,,656faaea15730b0f6ea31bdd,2024-02-18_21h13.47.817,kallum_motion_pilot,2023.2.2,MacIntel,60.0240096,656faaea15730b0f6ea31bdd,65d2b6c8f2eece985d8e374c,65d2b9423d1e491d72e7ec2e,0.023,0.023,0,89,89,12,1,threeone,,,,,,,,,,,,,,,,,,,,,,,,,,,,,,,,,,,,,,,,,,,,,,,,,,,,,,,,,,,,,,,,,,,,,,,,,,,,,,,,,,,,,,,,,,,,,,,,,,,,,,,,,,,,,,,,,,,,,,,,,,,,,,,,,,,,,,,,,
,,656faaea15730b0f6ea31bdd,2024-02-18_21h13.47.817,kallum_motion_pilot,2023.2.2,MacIntel,60.0240096,656faaea15730b0f6ea31bdd,65d2b6c8f2eece985d8e374c,65d2b9423d1e491d72e7ec2e,0.024,0.024,0,90,90,154,1,sixfive,,,,,,,,,,,,,,,,,,,,,,,,,,,,,,,,,,,,,,,,,,,,,,,,,,,,,,,,,,,,,,,,,,,,,,,,,,,,,,,,,,,,,,,,,,,,,,,,,,,,,,,,,,,,,,,,,,,,,,,,,,,,,,,,,,,,,,,,,
,,656faaea15730b0f6ea31bdd,2024-02-18_21h13.47.817,kallum_motion_pilot,2023.2.2,MacIntel,60.0240096,656faaea15730b0f6ea31bdd,65d2b6c8f2eece985d8e374c,65d2b9423d1e491d72e7ec2e,0.024,0.024,0,91,91,117,1,seveneight,,,,,,,,,,,,,,,,,,,,,,,,,,,,,,,,,,,,,,,,,,,,,,,,,,,,,,,,,,,,,,,,,,,,,,,,,,,,,,,,,,,,,,,,,,,,,,,,,,,,,,,,,,,,,,,,,,,,,,,,,,,,,,,,,,,,,,,,,
,,656faaea15730b0f6ea31bdd,2024-02-18_21h13.47.817,kallum_motion_pilot,2023.2.2,MacIntel,60.0240096,656faaea15730b0f6ea31bdd,65d2b6c8f2eece985d8e374c,65d2b9423d1e491d72e7ec2e,0.024,0.024,0,92,92,105,1,fiveseven,,,,,,,,,,,,,,,,,,,,,,,,,,,,,,,,,,,,,,,,,,,,,,,,,,,,,,,,,,,,,,,,,,,,,,,,,,,,,,,,,,,,,,,,,,,,,,,,,,,,,,,,,,,,,,,,,,,,,,,,,,,,,,,,,,,,,,,,,
,,656faaea15730b0f6ea31bdd,2024-02-18_21h13.47.817,kallum_motion_pilot,2023.2.2,MacIntel,60.0240096,656faaea15730b0f6ea31bdd,65d2b6c8f2eece985d8e374c,65d2b9423d1e491d72e7ec2e,0.024,0.024,0,93,93,3,1,twofour,,,,,,,,,,,,,,,,,,,,,,,,,,,,,,,,,,,,,,,,,,,,,,,,,,,,,,,,,,,,,,,,,,,,,,,,,,,,,,,,,,,,,,,,,,,,,,,,,,,,,,,,,,,,,,,,,,,,,,,,,,,,,,,,,,,,,,,,,
,,656faaea15730b0f6ea31bdd,2024-02-18_21h13.47.817,kallum_motion_pilot,2023.2.2,MacIntel,60.0240096,656faaea15730b0f6ea31bdd,65d2b6c8f2eece985d8e374c,65d2b9423d1e491d72e7ec2e,0.024,0.024,0,94,94,160,1,fivesix,,,,,,,,,,,,,,,,,,,,,,,,,,,,,,,,,,,,,,,,,,,,,,,,,,,,,,,,,,,,,,,,,,,,,,,,,,,,,,,,,,,,,,,,,,,,,,,,,,,,,,,,,,,,,,,,,,,,,,,,,,,,,,,,,,,,,,,,,
,,656faaea15730b0f6ea31bdd,2024-02-18_21h13.47.817,kallum_motion_pilot,2023.2.2,MacIntel,60.0240096,656faaea15730b0f6ea31bdd,65d2b6c8f2eece985d8e374c,65d2b9423d1e491d72e7ec2e,0.024,0.024,0,95,95,7,1,fourthree,,,,,,,,,,,,,,,,,,,,,,,,,,,,,,,,,,,,,,,,,,,,,,,,,,,,,,,,,,,,,,,,,,,,,,,,,,,,,,,,,,,,,,,,,,,,,,,,,,,,,,,,,,,,,,,,,,,,,,,,,,,,,,,,,,,,,,,,,
,,656faaea15730b0f6ea31bdd,2024-02-18_21h13.47.817,kallum_motion_pilot,2023.2.2,MacIntel,60.0240096,656faaea15730b0f6ea31bdd,65d2b6c8f2eece985d8e374c,65d2b9423d1e491d72e7ec2e,0.024,0.024,0,96,96,21,1,threefour,,,,,,,,,,,,,,,,,,,,,,,,,,,,,,,,,,,,,,,,,,,,,,,,,,,,,,,,,,,,,,,,,,,,,,,,,,,,,,,,,,,,,,,,,,,,,,,,,,,,,,,,,,,,,,,,,,,,,,,,,,,,,,,,,,,,,,,,,
,,656faaea15730b0f6ea31bdd,2024-02-18_21h13.47.817,kallum_motion_pilot,2023.2.2,MacIntel,60.0240096,656faaea15730b0f6ea31bdd,65d2b6c8f2eece985d8e374c,65d2b9423d1e491d72e7ec2e,0.024,0.024,0,97,97,146,1,sixfive,,,,,,,,,,,,,,,,,,,,,,,,,,,,,,,,,,,,,,,,,,,,,,,,,,,,,,,,,,,,,,,,,,,,,,,,,,,,,,,,,,,,,,,,,,,,,,,,,,,,,,,,,,,,,,,,,,,,,,,,,,,,,,,,,,,,,,,,,
,,656faaea15730b0f6ea31bdd,2024-02-18_21h13.47.817,kallum_motion_pilot,2023.2.2,MacIntel,60.0240096,656faaea15730b0f6ea31bdd,65d2b6c8f2eece985d8e374c,65d2b9423d1e491d72e7ec2e,0.024,0.024,0,98,98,43,1,twofour,,,,,,,,,,,,,,,,,,,,,,,,,,,,,,,,,,,,,,,,,,,,,,,,,,,,,,,,,,,,,,,,,,,,,,,,,,,,,,,,,,,,,,,,,,,,,,,,,,,,,,,,,,,,,,,,,,,,,,,,,,,,,,,,,,,,,,,,,
,,656faaea15730b0f6ea31bdd,2024-02-18_21h13.47.817,kallum_motion_pilot,2023.2.2,MacIntel,60.0240096,656faaea15730b0f6ea31bdd,65d2b6c8f2eece985d8e374c,65d2b9423d1e491d72e7ec2e,0.024,0.024,0,99,99,115,1,sixeight,,,,,,,,,,,,,,,,,,,,,,,,,,,,,,,,,,,,,,,,,,,,,,,,,,,,,,,,,,,,,,,,,,,,,,,,,,,,,,,,,,,,,,,,,,,,,,,,,,,,,,,,,,,,,,,,,,,,,,,,,,,,,,,,,,,,,,,,,
,,656faaea15730b0f6ea31bdd,2024-02-18_21h13.47.817,kallum_motion_pilot,2023.2.2,MacIntel,60.0240096,656faaea15730b0f6ea31bdd,65d2b6c8f2eece985d8e374c,65d2b9423d1e491d72e7ec2e,0.024,0.024,0,100,100,141,1,seveneight,,,,,,,,,,,,,,,,,,,,,,,,,,,,,,,,,,,,,,,,,,,,,,,,,,,,,,,,,,,,,,,,,,,,,,,,,,,,,,,,,,,,,,,,,,,,,,,,,,,,,,,,,,,,,,,,,,,,,,,,,,,,,,,,,,,,,,,,,
,,656faaea15730b0f6ea31bdd,2024-02-18_21h13.47.817,kallum_motion_pilot,2023.2.2,MacIntel,60.0240096,656faaea15730b0f6ea31bdd,65d2b6c8f2eece985d8e374c,65d2b9423d1e491d72e7ec2e,0.024,0.024,0,101,101,103,1,eightseven,,,,,,,,,,,,,,,,,,,,,,,,,,,,,,,,,,,,,,,,,,,,,,,,,,,,,,,,,,,,,,,,,,,,,,,,,,,,,,,,,,,,,,,,,,,,,,,,,,,,,,,,,,,,,,,,,,,,,,,,,,,,,,,,,,,,,,,,,
,,656faaea15730b0f6ea31bdd,2024-02-18_21h13.47.817,kallum_motion_pilot,2023.2.2,MacIntel,60.0240096,656faaea15730b0f6ea31bdd,65d2b6c8f2eece985d8e374c,65d2b9423d1e491d72e7ec2e,0.024,0.024,0,102,102,161,1,fiveseven,,,,,,,,,,,,,,,,,,,,,,,,,,,,,,,,,,,,,,,,,,,,,,,,,,,,,,,,,,,,,,,,,,,,,,,,,,,,,,,,,,,,,,,,,,,,,,,,,,,,,,,,,,,,,,,,,,,,,,,,,,,,,,,,,,,,,,,,,
,,656faaea15730b0f6ea31bdd,2024-02-18_21h13.47.817,kallum_motion_pilot,2023.2.2,MacIntel,60.0240096,656faaea15730b0f6ea31bdd,65d2b6c8f2eece985d8e374c,65d2b9423d1e491d72e7ec2e,0.024,0.024,0,103,103,96,1,fivesix,,,,,,,,,,,,,,,,,,,,,,,,,,,,,,,,,,,,,,,,,,,,,,,,,,,,,,,,,,,,,,,,,,,,,,,,,,,,,,,,,,,,,,,,,,,,,,,,,,,,,,,,,,,,,,,,,,,,,,,,,,,,,,,,,,,,,,,,,
,,656faaea15730b0f6ea31bdd,2024-02-18_21h13.47.817,kallum_motion_pilot,2023.2.2,MacIntel,60.0240096,656faaea15730b0f6ea31bdd,65d2b6c8f2eece985d8e374c,65d2b9423d1e491d72e7ec2e,0.024,0.024,0,104,104,59,1,twofour,,,,,,,,,,,,,,,,,,,,,,,,,,,,,,,,,,,,,,,,,,,,,,,,,,,,,,,,,,,,,,,,,,,,,,,,,,,,,,,,,,,,,,,,,,,,,,,,,,,,,,,,,,,,,,,,,,,,,,,,,,,,,,,,,,,,,,,,,
,,656faaea15730b0f6ea31bdd,2024-02-18_21h13.47.817,kallum_motion_pilot,2023.2.2,MacIntel,60.0240096,656faaea15730b0f6ea31bdd,65d2b6c8f2eece985d8e374c,65d2b9423d1e491d72e7ec2e,0.024,0.024,0,105,105,49,1,onethree,,,,,,,,,,,,,,,,,,,,,,,,,,,,,,,,,,,,,,,,,,,,,,,,,,,,,,,,,,,,,,,,,,,,,,,,,,,,,,,,,,,,,,,,,,,,,,,,,,,,,,,,,,,,,,,,,,,,,,,,,,,,,,,,,,,,,,,,,
,,656faaea15730b0f6ea31bdd,2024-02-18_21h13.47.817,kallum_motion_pilot,2023.2.2,MacIntel,60.0240096,656faaea15730b0f6ea31bdd,65d2b6c8f2eece985d8e374c,65d2b9423d1e491d72e7ec2e,0.024,0.024,0,106,106,101,1,seveneight,,,,,,,,,,,,,,,,,,,,,,,,,,,,,,,,,,,,,,,,,,,,,,,,,,,,,,,,,,,,,,,,,,,,,,,,,,,,,,,,,,,,,,,,,,,,,,,,,,,,,,,,,,,,,,,,,,,,,,,,,,,,,,,,,,,,,,,,,
,,656faaea15730b0f6ea31bdd,2024-02-18_21h13.47.817,kallum_motion_pilot,2023.2.2,MacIntel,60.0240096,656faaea15730b0f6ea31bdd,65d2b6c8f2eece985d8e374c,65d2b9423d1e491d72e7ec2e,0.025,0.025,0,107,107,116,1,sevenfive,,,,,,,,,,,,,,,,,,,,,,,,,,,,,,,,,,,,,,,,,,,,,,,,,,,,,,,,,,,,,,,,,,,,,,,,,,,,,,,,,,,,,,,,,,,,,,,,,,,,,,,,,,,,,,,,,,,,,,,,,,,,,,,,,,,,,,,,,
,,656faaea15730b0f6ea31bdd,2024-02-18_21h13.47.817,kallum_motion_pilot,2023.2.2,MacIntel,60.0240096,656faaea15730b0f6ea31bdd,65d2b6c8f2eece985d8e374c,65d2b9423d1e491d72e7ec2e,0.025,0.025,0,108,108,135,1,eightseven,,,,,,,,,,,,,,,,,,,,,,,,,,,,,,,,,,,,,,,,,,,,,,,,,,,,,,,,,,,,,,,,,,,,,,,,,,,,,,,,,,,,,,,,,,,,,,,,,,,,,,,,,,,,,,,,,,,,,,,,,,,,,,,,,,,,,,,,,
,,656faaea15730b0f6ea31bdd,2024-02-18_21h13.47.817,kallum_motion_pilot,2023.2.2,MacIntel,60.0240096,656faaea15730b0f6ea31bdd,65d2b6c8f2eece985d8e374c,65d2b9423d1e491d72e7ec2e,0.025,0.025,0,109,109,85,1,seveneight,,,,,,,,,,,,,,,,,,,,,,,,,,,,,,,,,,,,,,,,,,,,,,,,,,,,,,,,,,,,,,,,,,,,,,,,,,,,,,,,,,,,,,,,,,,,,,,,,,,,,,,,,,,,,,,,,,,,,,,,,,,,,,,,,,,,,,,,,
,,656faaea15730b0f6ea31bdd,2024-02-18_21h13.47.817,kallum_motion_pilot,2023.2.2,MacIntel,60.0240096,656faaea15730b0f6ea31bdd,65d2b6c8f2eece985d8e374c,65d2b9423d1e491d72e7ec2e,0.025,0.025,0,110,110,23,1,fourthree,,,,,,,,,,,,,,,,,,,,,,,,,,,,,,,,,,,,,,,,,,,,,,,,,,,,,,,,,,,,,,,,,,,,,,,,,,,,,,,,,,,,,,,,,,,,,,,,,,,,,,,,,,,,,,,,,,,,,,,,,,,,,,,,,,,,,,,,,
,,656faaea15730b0f6ea31bdd,2024-02-18_21h13.47.817,kallum_motion_pilot,2023.2.2,MacIntel,60.0240096,656faaea15730b0f6ea31bdd,65d2b6c8f2eece985d8e374c,65d2b9423d1e491d72e7ec2e,0.025,0.025,0,111,111,32,1,onetwo,,,,,,,,,,,,,,,,,,,,,,,,,,,,,,,,,,,,,,,,,,,,,,,,,,,,,,,,,,,,,,,,,,,,,,,,,,,,,,,,,,,,,,,,,,,,,,,,,,,,,,,,,,,,,,,,,,,,,,,,,,,,,,,,,,,,,,,,,
,,656faaea15730b0f6ea31bdd,2024-02-18_21h13.47.817,kallum_motion_pilot,2023.2.2,MacIntel,60.0240096,656faaea15730b0f6ea31bdd,65d2b6c8f2eece985d8e374c,65d2b9423d1e491d72e7ec2e,0.025,0.025,0,112,112,41,1,onethree,,,,,,,,,,,,,,,,,,,,,,,,,,,,,,,,,,,,,,,,,,,,,,,,,,,,,,,,,,,,,,,,,,,,,,,,,,,,,,,,,,,,,,,,,,,,,,,,,,,,,,,,,,,,,,,,,,,,,,,,,,,,,,,,,,,,,,,,,
,,656faaea15730b0f6ea31bdd,2024-02-18_21h13.47.817,kallum_motion_pilot,2023.2.2,MacIntel,60.0240096,656faaea15730b0f6ea31bdd,65d2b6c8f2eece985d8e374c,65d2b9423d1e491d72e7ec2e,0.025,0.025,0,113,113,129,1,fiveseven,,,,,,,,,,,,,,,,,,,,,,,,,,,,,,,,,,,,,,,,,,,,,,,,,,,,,,,,,,,,,,,,,,,,,,,,,,,,,,,,,,,,,,,,,,,,,,,,,,,,,,,,,,,,,,,,,,,,,,,,,,,,,,,,,,,,,,,,,
,,656faaea15730b0f6ea31bdd,2024-02-18_21h13.47.817,kallum_motion_pilot,2023.2.2,MacIntel,60.0240096,656faaea15730b0f6ea31bdd,65d2b6c8f2eece985d8e374c,65d2b9423d1e491d72e7ec2e,0.025,0.025,0,114,114,8,1,onetwo,,,,,,,,,,,,,,,,,,,,,,,,,,,,,,,,,,,,,,,,,,,,,,,,,,,,,,,,,,,,,,,,,,,,,,,,,,,,,,,,,,,,,,,,,,,,,,,,,,,,,,,,,,,,,,,,,,,,,,,,,,,,,,,,,,,,,,,,,
,,656faaea15730b0f6ea31bdd,2024-02-18_21h13.47.817,kallum_motion_pilot,2023.2.2,MacIntel,60.0240096,656faaea15730b0f6ea31bdd,65d2b6c8f2eece985d8e374c,65d2b9423d1e491d72e7ec2e,0.025,0.025,0,115,115,30,1,fourtwo,,,,,,,,,,,,,,,,,,,,,,,,,,,,,,,,,,,,,,,,,,,,,,,,,,,,,,,,,,,,,,,,,,,,,,,,,,,,,,,,,,,,,,,,,,,,,,,,,,,,,,,,,,,,,,,,,,,,,,,,,,,,,,,,,,,,,,,,,
,,656faaea15730b0f6ea31bdd,2024-02-18_21h13.47.817,kallum_motion_pilot,2023.2.2,MacIntel,60.0240096,656faaea15730b0f6ea31bdd,65d2b6c8f2eece985d8e374c,65d2b9423d1e491d72e7ec2e,0.025,0.025,0,116,116,139,1,sixeight,,,,,,,,,,,,,,,,,,,,,,,,,,,,,,,,,,,,,,,,,,,,,,,,,,,,,,,,,,,,,,,,,,,,,,,,,,,,,,,,,,,,,,,,,,,,,,,,,,,,,,,,,,,,,,,,,,,,,,,,,,,,,,,,,,,,,,,,,
,,656faaea15730b0f6ea31bdd,2024-02-18_21h13.47.817,kallum_motion_pilot,2023.2.2,MacIntel,60.0240096,656faaea15730b0f6ea31bdd,65d2b6c8f2eece985d8e374c,65d2b9423d1e491d72e7ec2e,0.025,0.025,0,117,117,128,1,fivesix,,,,,,,,,,,,,,,,,,,,,,,,,,,,,,,,,,,,,,,,,,,,,,,,,,,,,,,,,,,,,,,,,,,,,,,,,,,,,,,,,,,,,,,,,,,,,,,,,,,,,,,,,,,,,,,,,,,,,,,,,,,,,,,,,,,,,,,,,
,,656faaea15730b0f6ea31bdd,2024-02-18_21h13.47.817,kallum_motion_pilot,2023.2.2,MacIntel,60.0240096,656faaea15730b0f6ea31bdd,65d2b6c8f2eece985d8e374c,65d2b9423d1e491d72e7ec2e,0.025,0.025,0,118,118,91,1,sixeight,,,,,,,,,,,,,,,,,,,,,,,,,,,,,,,,,,,,,,,,,,,,,,,,,,,,,,,,,,,,,,,,,,,,,,,,,,,,,,,,,,,,,,,,,,,,,,,,,,,,,,,,,,,,,,,,,,,,,,,,,,,,,,,,,,,,,,,,,
,,656faaea15730b0f6ea31bdd,2024-02-18_21h13.47.817,kallum_motion_pilot,2023.2.2,MacIntel,60.0240096,656faaea15730b0f6ea31bdd,65d2b6c8f2eece985d8e374c,65d2b9423d1e491d72e7ec2e,0.025,0.025,0,119,119,77,1,threefour,,,,,,,,,,,,,,,,,,,,,,,,,,,,,,,,,,,,,,,,,,,,,,,,,,,,,,,,,,,,,,,,,,,,,,,,,,,,,,,,,,,,,,,,,,,,,,,,,,,,,,,,,,,,,,,,,,,,,,,,,,,,,,,,,,,,,,,,,
,,656faaea15730b0f6ea31bdd,2024-02-18_21h13.47.817,kallum_motion_pilot,2023.2.2,MacIntel,60.0240096,656faaea15730b0f6ea31bdd,65d2b6c8f2eece985d8e374c,65d2b9423d1e491d72e7ec2e,0.025,0.025,0,120,120,0,1,onetwo,,,,,,,,,,,,,,,,,,,,,,,,,,,,,,,,,,,,,,,,,,,,,,,,,,,,,,,,,,,,,,,,,,,,,,,,,,,,,,,,,,,,,,,,,,,,,,,,,,,,,,,,,,,,,,,,,,,,,,,,,,,,,,,,,,,,,,,,,
,,656faaea15730b0f6ea31bdd,2024-02-18_21h13.47.817,kallum_motion_pilot,2023.2.2,MacIntel,60.0240096,656faaea15730b0f6ea31bdd,65d2b6c8f2eece985d8e374c,65d2b9423d1e491d72e7ec2e,0.026,0.026,0,121,121,92,1,sevenfive,,,,,,,,,,,,,,,,,,,,,,,,,,,,,,,,,,,,,,,,,,,,,,,,,,,,,,,,,,,,,,,,,,,,,,,,,,,,,,,,,,,,,,,,,,,,,,,,,,,,,,,,,,,,,,,,,,,,,,,,,,,,,,,,,,,,,,,,,
,,656faaea15730b0f6ea31bdd,2024-02-18_21h13.47.817,kallum_motion_pilot,2023.2.2,MacIntel,60.0240096,656faaea15730b0f6ea31bdd,65d2b6c8f2eece985d8e374c,65d2b9423d1e491d72e7ec2e,0.026,0.026,0,122,122,48,1,onetwo,,,,,,,,,,,,,,,,,,,,,,,,,,,,,,,,,,,,,,,,,,,,,,,,,,,,,,,,,,,,,,,,,,,,,,,,,,,,,,,,,,,,,,,,,,,,,,,,,,,,,,,,,,,,,,,,,,,,,,,,,,,,,,,,,,,,,,,,,
,,656faaea15730b0f6ea31bdd,2024-02-18_21h13.47.817,kallum_motion_pilot,2023.2.2,MacIntel,60.0240096,656faaea15730b0f6ea31bdd,65d2b6c8f2eece985d8e374c,65d2b9423d1e491d72e7ec2e,0.026,0.026,0,123,123,156,1,sevenfive,,,,,,,,,,,,,,,,,,,,,,,,,,,,,,,,,,,,,,,,,,,,,,,,,,,,,,,,,,,,,,,,,,,,,,,,,,,,,,,,,,,,,,,,,,,,,,,,,,,,,,,,,,,,,,,,,,,,,,,,,,,,,,,,,,,,,,,,,
,,656faaea15730b0f6ea31bdd,2024-02-18_21h13.47.817,kallum_motion_pilot,2023.2.2,MacIntel,60.0240096,656faaea15730b0f6ea31bdd,65d2b6c8f2eece985d8e374c,65d2b9423d1e491d72e7ec2e,0.026,0.026,0,124,124,22,1,fourtwo,,,,,,,,,,,,,,,,,,,,,,,,,,,,,,,,,,,,,,,,,,,,,,,,,,,,,,,,,,,,,,,,,,,,,,,,,,,,,,,,,,,,,,,,,,,,,,,,,,,,,,,,,,,,,,,,,,,,,,,,,,,,,,,,,,,,,,,,,
,,656faaea15730b0f6ea31bdd,2024-02-18_21h13.47.817,kallum_motion_pilot,2023.2.2,MacIntel,60.0240096,656faaea15730b0f6ea31bdd,65d2b6c8f2eece985d8e374c,65d2b9423d1e491d72e7ec2e,0.026,0.026,0,125,125,16,1,onetwo,,,,,,,,,,,,,,,,,,,,,,,,,,,,,,,,,,,,,,,,,,,,,,,,,,,,,,,,,,,,,,,,,,,,,,,,,,,,,,,,,,,,,,,,,,,,,,,,,,,,,,,,,,,,,,,,,,,,,,,,,,,,,,,,,,,,,,,,,
,,656faaea15730b0f6ea31bdd,2024-02-18_21h13.47.817,kallum_motion_pilot,2023.2.2,MacIntel,60.0240096,656faaea15730b0f6ea31bdd,65d2b6c8f2eece985d8e374c,65d2b9423d1e491d72e7ec2e,0.026,0.026,0,126,126,108,1,sevenfive,,,,,,,,,,,,,,,,,,,,,,,,,,,,,,,,,,,,,,,,,,,,,,,,,,,,,,,,,,,,,,,,,,,,,,,,,,,,,,,,,,,,,,,,,,,,,,,,,,,,,,,,,,,,,,,,,,,,,,,,,,,,,,,,,,,,,,,,,
,,656faaea15730b0f6ea31bdd,2024-02-18_21h13.47.817,kallum_motion_pilot,2023.2.2,MacIntel,60.0240096,656faaea15730b0f6ea31bdd,65d2b6c8f2eece985d8e374c,65d2b9423d1e491d72e7ec2e,0.026,0.026,0,127,127,97,1,fiveseven,,,,,,,,,,,,,,,,,,,,,,,,,,,,,,,,,,,,,,,,,,,,,,,,,,,,,,,,,,,,,,,,,,,,,,,,,,,,,,,,,,,,,,,,,,,,,,,,,,,,,,,,,,,,,,,,,,,,,,,,,,,,,,,,,,,,,,,,,
,,656faaea15730b0f6ea31bdd,2024-02-18_21h13.47.817,kallum_motion_pilot,2023.2.2,MacIntel,60.0240096,656faaea15730b0f6ea31bdd,65d2b6c8f2eece985d8e374c,65d2b9423d1e491d72e7ec2e,0.026,0.026,0,128,128,94,1,eightsix,,,,,,,,,,,,,,,,,,,,,,,,,,,,,,,,,,,,,,,,,,,,,,,,,,,,,,,,,,,,,,,,,,,,,,,,,,,,,,,,,,,,,,,,,,,,,,,,,,,,,,,,,,,,,,,,,,,,,,,,,,,,,,,,,,,,,,,,,
,,656faaea15730b0f6ea31bdd,2024-02-18_21h13.47.817,kallum_motion_pilot,2023.2.2,MacIntel,60.0240096,656faaea15730b0f6ea31bdd,65d2b6c8f2eece985d8e374c,65d2b9423d1e491d72e7ec2e,0.026,0.026,0,129,129,84,1,sevenfive,,,,,,,,,,,,,,,,,,,,,,,,,,,,,,,,,,,,,,,,,,,,,,,,,,,,,,,,,,,,,,,,,,,,,,,,,,,,,,,,,,,,,,,,,,,,,,,,,,,,,,,,,,,,,,,,,,,,,,,,,,,,,,,,,,,,,,,,,
,,656faaea15730b0f6ea31bdd,2024-02-18_21h13.47.817,kallum_motion_pilot,2023.2.2,MacIntel,60.0240096,656faaea15730b0f6ea31bdd,65d2b6c8f2eece985d8e374c,65d2b9423d1e491d72e7ec2e,0.026,0.026,0,130,130,119,1,eightseven,,,,,,,,,,,,,,,,,,,,,,,,,,,,,,,,,,,,,,,,,,,,,,,,,,,,,,,,,,,,,,,,,,,,,,,,,,,,,,,,,,,,,,,,,,,,,,,,,,,,,,,,,,,,,,,,,,,,,,,,,,,,,,,,,,,,,,,,,
,,656faaea15730b0f6ea31bdd,2024-02-18_21h13.47.817,kallum_motion_pilot,2023.2.2,MacIntel,60.0240096,656faaea15730b0f6ea31bdd,65d2b6c8f2eece985d8e374c,65d2b9423d1e491d72e7ec2e,0.026,0.026,0,131,131,150,1,eightsix,,,,,,,,,,,,,,,,,,,,,,,,,,,,,,,,,,,,,,,,,,,,,,,,,,,,,,,,,,,,,,,,,,,,,,,,,,,,,,,,,,,,,,,,,,,,,,,,,,,,,,,,,,,,,,,,,,,,,,,,,,,,,,,,,,,,,,,,,
,,656faaea15730b0f6ea31bdd,2024-02-18_21h13.47.817,kallum_motion_pilot,2023.2.2,MacIntel,60.0240096,656faaea15730b0f6ea31bdd,65d2b6c8f2eece985d8e374c,65d2b9423d1e491d72e7ec2e,0.026,0.026,0,132,132,110,1,eightsix,,,,,,,,,,,,,,,,,,,,,,,,,,,,,,,,,,,,,,,,,,,,,,,,,,,,,,,,,,,,,,,,,,,,,,,,,,,,,,,,,,,,,,,,,,,,,,,,,,,,,,,,,,,,,,,,,,,,,,,,,,,,,,,,,,,,,,,,,
,,656faaea15730b0f6ea31bdd,2024-02-18_21h13.47.817,kallum_motion_pilot,2023.2.2,MacIntel,60.0240096,656faaea15730b0f6ea31bdd,65d2b6c8f2eece985d8e374c,65d2b9423d1e491d72e7ec2e,0.026,0.026,0,133,133,37,1,threefour,,,,,,,,,,,,,,,,,,,,,,,,,,,,,,,,,,,,,,,,,,,,,,,,,,,,,,,,,,,,,,,,,,,,,,,,,,,,,,,,,,,,,,,,,,,,,,,,,,,,,,,,,,,,,,,,,,,,,,,,,,,,,,,,,,,,,,,,,
,,656faaea15730b0f6ea31bdd,2024-02-18_21h13.47.817,kallum_motion_pilot,2023.2.2,MacIntel,60.0240096,656faaea15730b0f6ea31bdd,65d2b6c8f2eece985d8e374c,65d2b9423d1e491d72e7ec2e,0.026,0.026,0,134,134,38,1,fourtwo,,,,,,,,,,,,,,,,,,,,,,,,,,,,,,,,,,,,,,,,,,,,,,,,,,,,,,,,,,,,,,,,,,,,,,,,,,,,,,,,,,,,,,,,,,,,,,,,,,,,,,,,,,,,,,,,,,,,,,,,,,,,,,,,,,,,,,,,,
,,656faaea15730b0f6ea31bdd,2024-02-18_21h13.47.817,kallum_motion_pilot,2023.2.2,MacIntel,60.0240096,656faaea15730b0f6ea31bdd,65d2b6c8f2eece985d8e374c,65d2b9423d1e491d72e7ec2e,0.026,0.026,0,135,135,159,1,eightseven,,,,,,,,,,,,,,,,,,,,,,,,,,,,,,,,,,,,,,,,,,,,,,,,,,,,,,,,,,,,,,,,,,,,,,,,,,,,,,,,,,,,,,,,,,,,,,,,,,,,,,,,,,,,,,,,,,,,,,,,,,,,,,,,,,,,,,,,,
,,656faaea15730b0f6ea31bdd,2024-02-18_21h13.47.817,kallum_motion_pilot,2023.2.2,MacIntel,60.0240096,656faaea15730b0f6ea31bdd,65d2b6c8f2eece985d8e374c,65d2b9423d1e491d72e7ec2e,0.026,0.026,0,136,136,17,1,onethree,,,,,,,,,,,,,,,,,,,,,,,,,,,,,,,,,,,,,,,,,,,,,,,,,,,,,,,,,,,,,,,,,,,,,,,,,,,,,,,,,,,,,,,,,,,,,,,,,,,,,,,,,,,,,,,,,,,,,,,,,,,,,,,,,,,,,,,,,
,,656faaea15730b0f6ea31bdd,2024-02-18_21h13.47.817,kallum_motion_pilot,2023.2.2,MacIntel,60.0240096,656faaea15730b0f6ea31bdd,65d2b6c8f2eece985d8e374c,65d2b9423d1e491d72e7ec2e,0.026,0.026,0,137,137,5,1,threefour,,,,,,,,,,,,,,,,,,,,,,,,,,,,,,,,,,,,,,,,,,,,,,,,,,,,,,,,,,,,,,,,,,,,,,,,,,,,,,,,,,,,,,,,,,,,,,,,,,,,,,,,,,,,,,,,,,,,,,,,,,,,,,,,,,,,,,,,,
,,656faaea15730b0f6ea31bdd,2024-02-18_21h13.47.817,kallum_motion_pilot,2023.2.2,MacIntel,60.0240096,656faaea15730b0f6ea31bdd,65d2b6c8f2eece985d8e374c,65d2b9423d1e491d72e7ec2e,0.027,0.027,0,138,138,74,1,twoone,,,,,,,,,,,,,,,,,,,,,,,,,,,,,,,,,,,,,,,,,,,,,,,,,,,,,,,,,,,,,,,,,,,,,,,,,,,,,,,,,,,,,,,,,,,,,,,,,,,,,,,,,,,,,,,,,,,,,,,,,,,,,,,,,,,,,,,,,
,,656faaea15730b0f6ea31bdd,2024-02-18_21h13.47.817,kallum_motion_pilot,2023.2.2,MacIntel,60.0240096,656faaea15730b0f6ea31bdd,65d2b6c8f2eece985d8e374c,65d2b9423d1e491d72e7ec2e,0.027,0.027,0,139,139,93,1,seveneight,,,,,,,,,,,,,,,,,,,,,,,,,,,,,,,,,,,,,,,,,,,,,,,,,,,,,,,,,,,,,,,,,,,,,,,,,,,,,,,,,,,,,,,,,,,,,,,,,,,,,,,,,,,,,,,,,,,,,,,,,,,,,,,,,,,,,,,,,
,,656faaea15730b0f6ea31bdd,2024-02-18_21h13.47.817,kallum_motion_pilot,2023.2.2,MacIntel,60.0240096,656faaea15730b0f6ea31bdd,65d2b6c8f2eece985d8e374c,65d2b9423d1e491d72e7ec2e,0.027,0.027,0,140,140,60,1,threeone,,,,,,,,,,,,,,,,,,,,,,,,,,,,,,,,,,,,,,,,,,,,,,,,,,,,,,,,,,,,,,,,,,,,,,,,,,,,,,,,,,,,,,,,,,,,,,,,,,,,,,,,,,,,,,,,,,,,,,,,,,,,,,,,,,,,,,,,,
,,656faaea15730b0f6ea31bdd,2024-02-18_21h13.47.817,kallum_motion_pilot,2023.2.2,MacIntel,60.0240096,656faaea15730b0f6ea31bdd,65d2b6c8f2eece985d8e374c,65d2b9423d1e491d72e7ec2e,0.027,0.027,0,141,141,64,1,onetwo,,,,,,,,,,,,,,,,,,,,,,,,,,,,,,,,,,,,,,,,,,,,,,,,,,,,,,,,,,,,,,,,,,,,,,,,,,,,,,,,,,,,,,,,,,,,,,,,,,,,,,,,,,,,,,,,,,,,,,,,,,,,,,,,,,,,,,,,,
,,656faaea15730b0f6ea31bdd,2024-02-18_21h13.47.817,kallum_motion_pilot,2023.2.2,MacIntel,60.0240096,656faaea15730b0f6ea31bdd,65d2b6c8f2eece985d8e374c,65d2b9423d1e491d72e7ec2e,0.027,0.027,0,142,142,45,1,threefour,,,,,,,,,,,,,,,,,,,,,,,,,,,,,,,,,,,,,,,,,,,,,,,,,,,,,,,,,,,,,,,,,,,,,,,,,,,,,,,,,,,,,,,,,,,,,,,,,,,,,,,,,,,,,,,,,,,,,,,,,,,,,,,,,,,,,,,,,
,,656faaea15730b0f6ea31bdd,2024-02-18_21h13.47.817,kallum_motion_pilot,2023.2.2,MacIntel,60.0240096,656faaea15730b0f6ea31bdd,65d2b6c8f2eece985d8e374c,65d2b9423d1e491d72e7ec2e,0.027,0.027,0,143,143,107,1,sixeight,,,,,,,,,,,,,,,,,,,,,,,,,,,,,,,,,,,,,,,,,,,,,,,,,,,,,,,,,,,,,,,,,,,,,,,,,,,,,,,,,,,,,,,,,,,,,,,,,,,,,,,,,,,,,,,,,,,,,,,,,,,,,,,,,,,,,,,,,
,,656faaea15730b0f6ea31bdd,2024-02-18_21h13.47.817,kallum_motion_pilot,2023.2.2,MacIntel,60.0240096,656faaea15730b0f6ea31bdd,65d2b6c8f2eece985d8e374c,65d2b9423d1e491d72e7ec2e,0.027,0.027,0,144,144,13,1,threefour,,,,,,,,,,,,,,,,,,,,,,,,,,,,,,,,,,,,,,,,,,,,,,,,,,,,,,,,,,,,,,,,,,,,,,,,,,,,,,,,,,,,,,,,,,,,,,,,,,,,,,,,,,,,,,,,,,,,,,,,,,,,,,,,,,,,,,,,,
,,656faaea15730b0f6ea31bdd,2024-02-18_21h13.47.817,kallum_motion_pilot,2023.2.2,MacIntel,60.0240096,656faaea15730b0f6ea31bdd,65d2b6c8f2eece985d8e374c,65d2b9423d1e491d72e7ec2e,0.027,0.027,0,145,145,158,1,eightsix,,,,,,,,,,,,,,,,,,,,,,,,,,,,,,,,,,,,,,,,,,,,,,,,,,,,,,,,,,,,,,,,,,,,,,,,,,,,,,,,,,,,,,,,,,,,,,,,,,,,,,,,,,,,,,,,,,,,,,,,,,,,,,,,,,,,,,,,,
,,656faaea15730b0f6ea31bdd,2024-02-18_21h13.47.817,kallum_motion_pilot,2023.2.2,MacIntel,60.0240096,656faaea15730b0f6ea31bdd,65d2b6c8f2eece985d8e374c,65d2b9423d1e491d72e7ec2e,0.027,0.027,0,146,146,124,1,sevenfive,,,,,,,,,,,,,,,,,,,,,,,,,,,,,,,,,,,,,,,,,,,,,,,,,,,,,,,,,,,,,,,,,,,,,,,,,,,,,,,,,,,,,,,,,,,,,,,,,,,,,,,,,,,,,,,,,,,,,,,,,,,,,,,,,,,,,,,,,
,,656faaea15730b0f6ea31bdd,2024-02-18_21h13.47.817,kallum_motion_pilot,2023.2.2,MacIntel,60.0240096,656faaea15730b0f6ea31bdd,65d2b6c8f2eece985d8e374c,65d2b9423d1e491d72e7ec2e,0.027,0.027,0,147,147,155,1,sixeight,,,,,,,,,,,,,,,,,,,,,,,,,,,,,,,,,,,,,,,,,,,,,,,,,,,,,,,,,,,,,,,,,,,,,,,,,,,,,,,,,,,,,,,,,,,,,,,,,,,,,,,,,,,,,,,,,,,,,,,,,,,,,,,,,,,,,,,,,
,,656faaea15730b0f6ea31bdd,2024-02-18_21h13.47.817,kallum_motion_pilot,2023.2.2,MacIntel,60.0240096,656faaea15730b0f6ea31bdd,65d2b6c8f2eece985d8e374c,65d2b9423d1e491d72e7ec2e,0.027,0.027,0,148,148,66,1,twoone,,,,,,,,,,,,,,,,,,,,,,,,,,,,,,,,,,,,,,,,,,,,,,,,,,,,,,,,,,,,,,,,,,,,,,,,,,,,,,,,,,,,,,,,,,,,,,,,,,,,,,,,,,,,,,,,,,,,,,,,,,,,,,,,,,,,,,,,,
,,656faaea15730b0f6ea31bdd,2024-02-18_21h13.47.817,kallum_motion_pilot,2023.2.2,MacIntel,60.0240096,656faaea15730b0f6ea31bdd,65d2b6c8f2eece985d8e374c,65d2b9423d1e491d72e7ec2e,0.027,0.027,0,149,149,4,1,threeone,,,,,,,,,,,,,,,,,,,,,,,,,,,,,,,,,,,,,,,,,,,,,,,,,,,,,,,,,,,,,,,,,,,,,,,,,,,,,,,,,,,,,,,,,,,,,,,,,,,,,,,,,,,,,,,,,,,,,,,,,,,,,,,,,,,,,,,,,
,,656faaea15730b0f6ea31bdd,2024-02-18_21h13.47.817,kallum_motion_pilot,2023.2.2,MacIntel,60.0240096,656faaea15730b0f6ea31bdd,65d2b6c8f2eece985d8e374c,65d2b9423d1e491d72e7ec2e,0.027,0.027,0,150,150,147,1,sixeight,,,,,,,,,,,,,,,,,,,,,,,,,,,,,,,,,,,,,,,,,,,,,,,,,,,,,,,,,,,,,,,,,,,,,,,,,,,,,,,,,,,,,,,,,,,,,,,,,,,,,,,,,,,,,,,,,,,,,,,,,,,,,,,,,,,,,,,,,
,,656faaea15730b0f6ea31bdd,2024-02-18_21h13.47.817,kallum_motion_pilot,2023.2.2,MacIntel,60.0240096,656faaea15730b0f6ea31bdd,65d2b6c8f2eece985d8e374c,65d2b9423d1e491d72e7ec2e,0.027,0.027,0,151,151,19,1,twofour,,,,,,,,,,,,,,,,,,,,,,,,,,,,,,,,,,,,,,,,,,,,,,,,,,,,,,,,,,,,,,,,,,,,,,,,,,,,,,,,,,,,,,,,,,,,,,,,,,,,,,,,,,,,,,,,,,,,,,,,,,,,,,,,,,,,,,,,,
,,656faaea15730b0f6ea31bdd,2024-02-18_21h13.47.817,kallum_motion_pilot,2023.2.2,MacIntel,60.0240096,656faaea15730b0f6ea31bdd,65d2b6c8f2eece985d8e374c,65d2b9423d1e491d72e7ec2e,0.027,0.027,0,152,152,136,1,fivesix,,,,,,,,,,,,,,,,,,,,,,,,,,,,,,,,,,,,,,,,,,,,,,,,,,,,,,,,,,,,,,,,,,,,,,,,,,,,,,,,,,,,,,,,,,,,,,,,,,,,,,,,,,,,,,,,,,,,,,,,,,,,,,,,,,,,,,,,,
,,656faaea15730b0f6ea31bdd,2024-02-18_21h13.47.817,kallum_motion_pilot,2023.2.2,MacIntel,60.0240096,656faaea15730b0f6ea31bdd,65d2b6c8f2eece985d8e374c,65d2b9423d1e491d72e7ec2e,0.027,0.027,0,153,153,134,1,eightsix,,,,,,,,,,,,,,,,,,,,,,,,,,,,,,,,,,,,,,,,,,,,,,,,,,,,,,,,,,,,,,,,,,,,,,,,,,,,,,,,,,,,,,,,,,,,,,,,,,,,,,,,,,,,,,,,,,,,,,,,,,,,,,,,,,,,,,,,,
,,656faaea15730b0f6ea31bdd,2024-02-18_21h13.47.817,kallum_motion_pilot,2023.2.2,MacIntel,60.0240096,656faaea15730b0f6ea31bdd,65d2b6c8f2eece985d8e374c,65d2b9423d1e491d72e7ec2e,0.027,0.027,0,154,154,145,1,fiveseven,,,,,,,,,,,,,,,,,,,,,,,,,,,,,,,,,,,,,,,,,,,,,,,,,,,,,,,,,,,,,,,,,,,,,,,,,,,,,,,,,,,,,,,,,,,,,,,,,,,,,,,,,,,,,,,,,,,,,,,,,,,,,,,,,,,,,,,,,
,,656faaea15730b0f6ea31bdd,2024-02-18_21h13.47.817,kallum_motion_pilot,2023.2.2,MacIntel,60.0240096,656faaea15730b0f6ea31bdd,65d2b6c8f2eece985d8e374c,65d2b9423d1e491d72e7ec2e,0.027,0.027,0,155,155,11,1,twofour,,,,,,,,,,,,,,,,,,,,,,,,,,,,,,,,,,,,,,,,,,,,,,,,,,,,,,,,,,,,,,,,,,,,,,,,,,,,,,,,,,,,,,,,,,,,,,,,,,,,,,,,,,,,,,,,,,,,,,,,,,,,,,,,,,,,,,,,,
,,656faaea15730b0f6ea31bdd,2024-02-18_21h13.47.817,kallum_motion_pilot,2023.2.2,MacIntel,60.0240096,656faaea15730b0f6ea31bdd,65d2b6c8f2eece985d8e374c,65d2b9423d1e491d72e7ec2e,0.027,0.027,0,156,156,112,1,fivesix,,,,,,,,,,,,,,,,,,,,,,,,,,,,,,,,,,,,,,,,,,,,,,,,,,,,,,,,,,,,,,,,,,,,,,,,,,,,,,,,,,,,,,,,,,,,,,,,,,,,,,,,,,,,,,,,,,,,,,,,,,,,,,,,,,,,,,,,,
,,656faaea15730b0f6ea31bdd,2024-02-18_21h13.47.817,kallum_motion_pilot,2023.2.2,MacIntel,60.0240096,656faaea15730b0f6ea31bdd,65d2b6c8f2eece985d8e374c,65d2b9423d1e491d72e7ec2e,0.027,0.027,0,157,157,151,1,eightseven,,,,,,,,,,,,,,,,,,,,,,,,,,,,,,,,,,,,,,,,,,,,,,,,,,,,,,,,,,,,,,,,,,,,,,,,,,,,,,,,,,,,,,,,,,,,,,,,,,,,,,,,,,,,,,,,,,,,,,,,,,,,,,,,,,,,,,,,,
,,656faaea15730b0f6ea31bdd,2024-02-18_21h13.47.817,kallum_motion_pilot,2023.2.2,MacIntel,60.0240096,656faaea15730b0f6ea31bdd,65d2b6c8f2eece985d8e374c,65d2b9423d1e491d72e7ec2e,0.027,0.027,0,158,158,56,1,onetwo,,,,,,,,,,,,,,,,,,,,,,,,,,,,,,,,,,,,,,,,,,,,,,,,,,,,,,,,,,,,,,,,,,,,,,,,,,,,,,,,,,,,,,,,,,,,,,,,,,,,,,,,,,,,,,,,,,,,,,,,,,,,,,,,,,,,,,,,,
,,656faaea15730b0f6ea31bdd,2024-02-18_21h13.47.817,kallum_motion_pilot,2023.2.2,MacIntel,60.0240096,656faaea15730b0f6ea31bdd,65d2b6c8f2eece985d8e374c,65d2b9423d1e491d72e7ec2e,0.027,0.027,0,159,159,78,1,fourtwo,,,,,,,,,,,,,,,,,,,,,,,,,,,,,,,,,,,,,,,,,,,,,,,,,,,,,,,,,,,,,,,,,,,,,,,,,,,,,,,,,,,,,,,,,,,,,,,,,,,,,,,,,,,,,,,,,,,,,,,,,,,,,,,,,,,,,,,,,
,,656faaea15730b0f6ea31bdd,2024-02-18_21h13.47.817,kallum_motion_pilot,2023.2.2,MacIntel,60.0240096,656faaea15730b0f6ea31bdd,65d2b6c8f2eece985d8e374c,65d2b9423d1e491d72e7ec2e,0.027,0.027,0,160,160,6,1,fourtwo,,,,,,,,,,,,,,,,,,,,,,,,,,,,,,,,,,,,,,,,,,,,,,,,,,,,,,,,,,,,,,,,,,,,,,,,,,,,,,,,,,,,,,,,,,,,,,,,,,,,,,,,,,,,,,,,,,,,,,,,,,,,,,,,,,,,,,,,,
,,656faaea15730b0f6ea31bdd,2024-02-18_21h13.47.817,kallum_motion_pilot,2023.2.2,MacIntel,60.0240096,656faaea15730b0f6ea31bdd,65d2b6c8f2eece985d8e374c,65d2b9423d1e491d72e7ec2e,0.028,0.028,0,161,161,10,1,twoone,,,,,,,,,,,,,,,,,,,,,,,,,,,,,,,,,,,,,,,,,,,,,,,,,,,,,,,,,,,,,,,,,,,,,,,,,,,,,,,,,,,,,,,,,,,,,,,,,,,,,,,,,,,,,,,,,,,,,,,,,,,,,,,,,,,,,,,,,
,,656faaea15730b0f6ea31bdd,2024-02-18_21h13.47.817,kallum_motion_pilot,2023.2.2,MacIntel,60.0240096,656faaea15730b0f6ea31bdd,65d2b6c8f2eece985d8e374c,65d2b9423d1e491d72e7ec2e,0.028,0.028,1,0,162,103,1,eightseven,,,,,,,,,,,,,,,,,,,,,,,,,,,,,,,,,,,,,,,,,,,,,,,,,,,,,,,,,,,,,,,,,,,,,,,,,,,,,,,,,,,,,,,,,,,,,,,,,,,,,,,,,,,,,,,,,,,,,,,,,,,,,,,,,,,,,,,,,
,,656faaea15730b0f6ea31bdd,2024-02-18_21h13.47.817,kallum_motion_pilot,2023.2.2,MacIntel,60.0240096,656faaea15730b0f6ea31bdd,65d2b6c8f2eece985d8e374c,65d2b9423d1e491d72e7ec2e,0.028,0.028,1,1,163,10,1,twoone,,,,,,,,,,,,,,,,,,,,,,,,,,,,,,,,,,,,,,,,,,,,,,,,,,,,,,,,,,,,,,,,,,,,,,,,,,,,,,,,,,,,,,,,,,,,,,,,,,,,,,,,,,,,,,,,,,,,,,,,,,,,,,,,,,,,,,,,,
,,656faaea15730b0f6ea31bdd,2024-02-18_21h13.47.817,kallum_motion_pilot,2023.2.2,MacIntel,60.0240096,656faaea15730b0f6ea31bdd,65d2b6c8f2eece985d8e374c,65d2b9423d1e491d72e7ec2e,0.028,0.028,1,2,164,159,1,eightseven,,,,,,,,,,,,,,,,,,,,,,,,,,,,,,,,,,,,,,,,,,,,,,,,,,,,,,,,,,,,,,,,,,,,,,,,,,,,,,,,,,,,,,,,,,,,,,,,,,,,,,,,,,,,,,,,,,,,,,,,,,,,,,,,,,,,,,,,,
,,656faaea15730b0f6ea31bdd,2024-02-18_21h13.47.817,kallum_motion_pilot,2023.2.2,MacIntel,60.0240096,656faaea15730b0f6ea31bdd,65d2b6c8f2eece985d8e374c,65d2b9423d1e491d72e7ec2e,0.028,0.028,1,3,165,120,1,fivesix,,,,,,,,,,,,,,,,,,,,,,,,,,,,,,,,,,,,,,,,,,,,,,,,,,,,,,,,,,,,,,,,,,,,,,,,,,,,,,,,,,,,,,,,,,,,,,,,,,,,,,,,,,,,,,,,,,,,,,,,,,,,,,,,,,,,,,,,,
,,656faaea15730b0f6ea31bdd,2024-02-18_21h13.47.817,kallum_motion_pilot,2023.2.2,MacIntel,60.0240096,656faaea15730b0f6ea31bdd,65d2b6c8f2eece985d8e374c,65d2b9423d1e491d72e7ec2e,0.028,0.028,1,4,166,110,1,eightsix,,,,,,,,,,,,,,,,,,,,,,,,,,,,,,,,,,,,,,,,,,,,,,,,,,,,,,,,,,,,,,,,,,,,,,,,,,,,,,,,,,,,,,,,,,,,,,,,,,,,,,,,,,,,,,,,,,,,,,,,,,,,,,,,,,,,,,,,,
,,656faaea15730b0f6ea31bdd,2024-02-18_21h13.47.817,kallum_motion_pilot,2023.2.2,MacIntel,60.0240096,656faaea15730b0f6ea31bdd,65d2b6c8f2eece985d8e374c,65d2b9423d1e491d72e7ec2e,0.028,0.028,1,5,167,76,1,threeone,,,,,,,,,,,,,,,,,,,,,,,,,,,,,,,,,,,,,,,,,,,,,,,,,,,,,,,,,,,,,,,,,,,,,,,,,,,,,,,,,,,,,,,,,,,,,,,,,,,,,,,,,,,,,,,,,,,,,,,,,,,,,,,,,,,,,,,,,
,,656faaea15730b0f6ea31bdd,2024-02-18_21h13.47.817,kallum_motion_pilot,2023.2.2,MacIntel,60.0240096,656faaea15730b0f6ea31bdd,65d2b6c8f2eece985d8e374c,65d2b9423d1e491d72e7ec2e,0.028,0.028,1,6,168,6,1,fourtwo,,,,,,,,,,,,,,,,,,,,,,,,,,,,,,,,,,,,,,,,,,,,,,,,,,,,,,,,,,,,,,,,,,,,,,,,,,,,,,,,,,,,,,,,,,,,,,,,,,,,,,,,,,,,,,,,,,,,,,,,,,,,,,,,,,,,,,,,,
,,656faaea15730b0f6ea31bdd,2024-02-18_21h13.47.817,kallum_motion_pilot,2023.2.2,MacIntel,60.0240096,656faaea15730b0f6ea31bdd,65d2b6c8f2eece985d8e374c,65d2b9423d1e491d72e7ec2e,0.028,0.028,1,7,169,54,1,fourtwo,,,,,,,,,,,,,,,,,,,,,,,,,,,,,,,,,,,,,,,,,,,,,,,,,,,,,,,,,,,,,,,,,,,,,,,,,,,,,,,,,,,,,,,,,,,,,,,,,,,,,,,,,,,,,,,,,,,,,,,,,,,,,,,,,,,,,,,,,
,,656faaea15730b0f6ea31bdd,2024-02-18_21h13.47.817,kallum_motion_pilot,2023.2.2,MacIntel,60.0240096,656faaea15730b0f6ea31bdd,65d2b6c8f2eece985d8e374c,65d2b9423d1e491d72e7ec2e,0.028,0.028,1,8,170,18,1,twoone,,,,,,,,,,,,,,,,,,,,,,,,,,,,,,,,,,,,,,,,,,,,,,,,,,,,,,,,,,,,,,,,,,,,,,,,,,,,,,,,,,,,,,,,,,,,,,,,,,,,,,,,,,,,,,,,,,,,,,,,,,,,,,,,,,,,,,,,,
,,656faaea15730b0f6ea31bdd,2024-02-18_21h13.47.817,kallum_motion_pilot,2023.2.2,MacIntel,60.0240096,656faaea15730b0f6ea31bdd,65d2b6c8f2eece985d8e374c,65d2b9423d1e491d72e7ec2e,0.028,0.028,1,9,171,111,1,eightseven,,,,,,,,,,,,,,,,,,,,,,,,,,,,,,,,,,,,,,,,,,,,,,,,,,,,,,,,,,,,,,,,,,,,,,,,,,,,,,,,,,,,,,,,,,,,,,,,,,,,,,,,,,,,,,,,,,,,,,,,,,,,,,,,,,,,,,,,,
,,656faaea15730b0f6ea31bdd,2024-02-18_21h13.47.817,kallum_motion_pilot,2023.2.2,MacIntel,60.0240096,656faaea15730b0f6ea31bdd,65d2b6c8f2eece985d8e374c,65d2b9423d1e491d72e7ec2e,0.028,0.028,1,10,172,21,1,threefour,,,,,,,,,,,,,,,,,,,,,,,,,,,,,,,,,,,,,,,,,,,,,,,,,,,,,,,,,,,,,,,,,,,,,,,,,,,,,,,,,,,,,,,,,,,,,,,,,,,,,,,,,,,,,,,,,,,,,,,,,,,,,,,,,,,,,,,,,
,,656faaea15730b0f6ea31bdd,2024-02-18_21h13.47.817,kallum_motion_pilot,2023.2.2,MacIntel,60.0240096,656faaea15730b0f6ea31bdd,65d2b6c8f2eece985d8e374c,65d2b9423d1e491d72e7ec2e,0.028,0.028,1,11,173,47,1,fourthree,,,,,,,,,,,,,,,,,,,,,,,,,,,,,,,,,,,,,,,,,,,,,,,,,,,,,,,,,,,,,,,,,,,,,,,,,,,,,,,,,,,,,,,,,,,,,,,,,,,,,,,,,,,,,,,,,,,,,,,,,,,,,,,,,,,,,,,,,
,,656faaea15730b0f6ea31bdd,2024-02-18_21h13.47.817,kallum_motion_pilot,2023.2.2,MacIntel,60.0240096,656faaea15730b0f6ea31bdd,65d2b6c8f2eece985d8e374c,65d2b9423d1e491d72e7ec2e,0.028,0.028,1,12,174,136,1,fivesix,,,,,,,,,,,,,,,,,,,,,,,,,,,,,,,,,,,,,,,,,,,,,,,,,,,,,,,,,,,,,,,,,,,,,,,,,,,,,,,,,,,,,,,,,,,,,,,,,,,,,,,,,,,,,,,,,,,,,,,,,,,,,,,,,,,,,,,,,
,,656faaea15730b0f6ea31bdd,2024-02-18_21h13.47.817,kallum_motion_pilot,2023.2.2,MacIntel,60.0240096,656faaea15730b0f6ea31bdd,65d2b6c8f2eece985d8e374c,65d2b9423d1e491d72e7ec2e,0.028,0.028,1,13,175,12,1,threeone,,,,,,,,,,,,,,,,,,,,,,,,,,,,,,,,,,,,,,,,,,,,,,,,,,,,,,,,,,,,,,,,,,,,,,,,,,,,,,,,,,,,,,,,,,,,,,,,,,,,,,,,,,,,,,,,,,,,,,,,,,,,,,,,,,,,,,,,,
,,656faaea15730b0f6ea31bdd,2024-02-18_21h13.47.817,kallum_motion_pilot,2023.2.2,MacIntel,60.0240096,656faaea15730b0f6ea31bdd,65d2b6c8f2eece985d8e374c,65d2b9423d1e491d72e7ec2e,0.028,0.028,1,14,176,146,1,sixfive,,,,,,,,,,,,,,,,,,,,,,,,,,,,,,,,,,,,,,,,,,,,,,,,,,,,,,,,,,,,,,,,,,,,,,,,,,,,,,,,,,,,,,,,,,,,,,,,,,,,,,,,,,,,,,,,,,,,,,,,,,,,,,,,,,,,,,,,,
,,656faaea15730b0f6ea31bdd,2024-02-18_21h13.47.817,kallum_motion_pilot,2023.2.2,MacIntel,60.0240096,656faaea15730b0f6ea31bdd,65d2b6c8f2eece985d8e374c,65d2b9423d1e491d72e7ec2e,0.028,0.028,1,15,177,148,1,sevenfive,,,,,,,,,,,,,,,,,,,,,,,,,,,,,,,,,,,,,,,,,,,,,,,,,,,,,,,,,,,,,,,,,,,,,,,,,,,,,,,,,,,,,,,,,,,,,,,,,,,,,,,,,,,,,,,,,,,,,,,,,,,,,,,,,,,,,,,,,
,,656faaea15730b0f6ea31bdd,2024-02-18_21h13.47.817,kallum_motion_pilot,2023.2.2,MacIntel,60.0240096,656faaea15730b0f6ea31bdd,65d2b6c8f2eece985d8e374c,65d2b9423d1e491d72e7ec2e,0.028,0.028,1,16,178,28,1,threeone,,,,,,,,,,,,,,,,,,,,,,,,,,,,,,,,,,,,,,,,,,,,,,,,,,,,,,,,,,,,,,,,,,,,,,,,,,,,,,,,,,,,,,,,,,,,,,,,,,,,,,,,,,,,,,,,,,,,,,,,,,,,,,,,,,,,,,,,,
,,656faaea15730b0f6ea31bdd,2024-02-18_21h13.47.817,kallum_motion_pilot,2023.2.2,MacIntel,60.0240096,656faaea15730b0f6ea31bdd,65d2b6c8f2eece985d8e374c,65d2b9423d1e491d72e7ec2e,0.028,0.028,1,17,179,127,1,eightseven,,,,,,,,,,,,,,,,,,,,,,,,,,,,,,,,,,,,,,,,,,,,,,,,,,,,,,,,,,,,,,,,,,,,,,,,,,,,,,,,,,,,,,,,,,,,,,,,,,,,,,,,,,,,,,,,,,,,,,,,,,,,,,,,,,,,,,,,,
,,656faaea15730b0f6ea31bdd,2024-02-18_21h13.47.817,kallum_motion_pilot,2023.2.2,MacIntel,60.0240096,656faaea15730b0f6ea31bdd,65d2b6c8f2eece985d8e374c,65d2b9423d1e491d72e7ec2e,0.029,0.029,1,18,180,153,1,fiveseven,,,,,,,,,,,,,,,,,,,,,,,,,,,,,,,,,,,,,,,,,,,,,,,,,,,,,,,,,,,,,,,,,,,,,,,,,,,,,,,,,,,,,,,,,,,,,,,,,,,,,,,,,,,,,,,,,,,,,,,,,,,,,,,,,,,,,,,,,
,,656faaea15730b0f6ea31bdd,2024-02-18_21h13.47.817,kallum_motion_pilot,2023.2.2,MacIntel,60.0240096,656faaea15730b0f6ea31bdd,65d2b6c8f2eece985d8e374c,65d2b9423d1e491d72e7ec2e,0.029,0.029,1,19,181,69,1,threefour,,,,,,,,,,,,,,,,,,,,,,,,,,,,,,,,,,,,,,,,,,,,,,,,,,,,,,,,,,,,,,,,,,,,,,,,,,,,,,,,,,,,,,,,,,,,,,,,,,,,,,,,,,,,,,,,,,,,,,,,,,,,,,,,,,,,,,,,,
,,656faaea15730b0f6ea31bdd,2024-02-18_21h13.47.817,kallum_motion_pilot,2023.2.2,MacIntel,60.0240096,656faaea15730b0f6ea31bdd,65d2b6c8f2eece985d8e374c,65d2b9423d1e491d72e7ec2e,0.029,0.029,1,20,182,25,1,onethree,,,,,,,,,,,,,,,,,,,,,,,,,,,,,,,,,,,,,,,,,,,,,,,,,,,,,,,,,,,,,,,,,,,,,,,,,,,,,,,,,,,,,,,,,,,,,,,,,,,,,,,,,,,,,,,,,,,,,,,,,,,,,,,,,,,,,,,,,
,,656faaea15730b0f6ea31bdd,2024-02-18_21h13.47.817,kallum_motion_pilot,2023.2.2,MacIntel,60.0240096,656faaea15730b0f6ea31bdd,65d2b6c8f2eece985d8e374c,65d2b9423d1e491d72e7ec2e,0.029,0.029,1,21,183,11,1,twofour,,,,,,,,,,,,,,,,,,,,,,,,,,,,,,,,,,,,,,,,,,,,,,,,,,,,,,,,,,,,,,,,,,,,,,,,,,,,,,,,,,,,,,,,,,,,,,,,,,,,,,,,,,,,,,,,,,,,,,,,,,,,,,,,,,,,,,,,,
,,656faaea15730b0f6ea31bdd,2024-02-18_21h13.47.817,kallum_motion_pilot,2023.2.2,MacIntel,60.0240096,656faaea15730b0f6ea31bdd,65d2b6c8f2eece985d8e374c,65d2b9423d1e491d72e7ec2e,0.029,0.029,1,22,184,84,1,sevenfive,,,,,,,,,,,,,,,,,,,,,,,,,,,,,,,,,,,,,,,,,,,,,,,,,,,,,,,,,,,,,,,,,,,,,,,,,,,,,,,,,,,,,,,,,,,,,,,,,,,,,,,,,,,,,,,,,,,,,,,,,,,,,,,,,,,,,,,,,
,,656faaea15730b0f6ea31bdd,2024-02-18_21h13.47.817,kallum_motion_pilot,2023.2.2,MacIntel,60.0240096,656faaea15730b0f6ea31bdd,65d2b6c8f2eece985d8e374c,65d2b9423d1e491d72e7ec2e,0.029,0.029,1,23,185,75,1,twofour,,,,,,,,,,,,,,,,,,,,,,,,,,,,,,,,,,,,,,,,,,,,,,,,,,,,,,,,,,,,,,,,,,,,,,,,,,,,,,,,,,,,,,,,,,,,,,,,,,,,,,,,,,,,,,,,,,,,,,,,,,,,,,,,,,,,,,,,,
,,656faaea15730b0f6ea31bdd,2024-02-18_21h13.47.817,kallum_motion_pilot,2023.2.2,MacIntel,60.0240096,656faaea15730b0f6ea31bdd,65d2b6c8f2eece985d8e374c,65d2b9423d1e491d72e7ec2e,0.029,0.029,1,24,186,87,1,eightseven,,,,,,,,,,,,,,,,,,,,,,,,,,,,,,,,,,,,,,,,,,,,,,,,,,,,,,,,,,,,,,,,,,,,,,,,,,,,,,,,,,,,,,,,,,,,,,,,,,,,,,,,,,,,,,,,,,,,,,,,,,,,,,,,,,,,,,,,,
,,656faaea15730b0f6ea31bdd,2024-02-18_21h13.47.817,kallum_motion_pilot,2023.2.2,MacIntel,60.0240096,656faaea15730b0f6ea31bdd,65d2b6c8f2eece985d8e374c,65d2b9423d1e491d72e7ec2e,0.029,0.029,1,25,187,4,1,threeone,,,,,,,,,,,,,,,,,,,,,,,,,,,,,,,,,,,,,,,,,,,,,,,,,,,,,,,,,,,,,,,,,,,,,,,,,,,,,,,,,,,,,,,,,,,,,,,,,,,,,,,,,,,,,,,,,,,,,,,,,,,,,,,,,,,,,,,,,
,,656faaea15730b0f6ea31bdd,2024-02-18_21h13.47.817,kallum_motion_pilot,2023.2.2,MacIntel,60.0240096,656faaea15730b0f6ea31bdd,65d2b6c8f2eece985d8e374c,65d2b9423d1e491d72e7ec2e,0.029,0.029,1,26,188,122,1,sixfive,,,,,,,,,,,,,,,,,,,,,,,,,,,,,,,,,,,,,,,,,,,,,,,,,,,,,,,,,,,,,,,,,,,,,,,,,,,,,,,,,,,,,,,,,,,,,,,,,,,,,,,,,,,,,,,,,,,,,,,,,,,,,,,,,,,,,,,,,
,,656faaea15730b0f6ea31bdd,2024-02-18_21h13.47.817,kallum_motion_pilot,2023.2.2,MacIntel,60.0240096,656faaea15730b0f6ea31bdd,65d2b6c8f2eece985d8e374c,65d2b9423d1e491d72e7ec2e,0.029,0.029,1,27,189,128,1,fivesix,,,,,,,,,,,,,,,,,,,,,,,,,,,,,,,,,,,,,,,,,,,,,,,,,,,,,,,,,,,,,,,,,,,,,,,,,,,,,,,,,,,,,,,,,,,,,,,,,,,,,,,,,,,,,,,,,,,,,,,,,,,,,,,,,,,,,,,,,
,,656faaea15730b0f6ea31bdd,2024-02-18_21h13.47.817,kallum_motion_pilot,2023.2.2,MacIntel,60.0240096,656faaea15730b0f6ea31bdd,65d2b6c8f2eece985d8e374c,65d2b9423d1e491d72e7ec2e,0.029,0.029,1,28,190,42,1,twoone,,,,,,,,,,,,,,,,,,,,,,,,,,,,,,,,,,,,,,,,,,,,,,,,,,,,,,,,,,,,,,,,,,,,,,,,,,,,,,,,,,,,,,,,,,,,,,,,,,,,,,,,,,,,,,,,,,,,,,,,,,,,,,,,,,,,,,,,,
,,656faaea15730b0f6ea31bdd,2024-02-18_21h13.47.817,kallum_motion_pilot,2023.2.2,MacIntel,60.0240096,656faaea15730b0f6ea31bdd,65d2b6c8f2eece985d8e374c,65d2b9423d1e491d72e7ec2e,0.029,0.029,1,29,191,149,1,seveneight,,,,,,,,,,,,,,,,,,,,,,,,,,,,,,,,,,,,,,,,,,,,,,,,,,,,,,,,,,,,,,,,,,,,,,,,,,,,,,,,,,,,,,,,,,,,,,,,,,,,,,,,,,,,,,,,,,,,,,,,,,,,,,,,,,,,,,,,,
,,656faaea15730b0f6ea31bdd,2024-02-18_21h13.47.817,kallum_motion_pilot,2023.2.2,MacIntel,60.0240096,656faaea15730b0f6ea31bdd,65d2b6c8f2eece985d8e374c,65d2b9423d1e491d72e7ec2e,0.029,0.029,1,30,192,137,1,fiveseven,,,,,,,,,,,,,,,,,,,,,,,,,,,,,,,,,,,,,,,,,,,,,,,,,,,,,,,,,,,,,,,,,,,,,,,,,,,,,,,,,,,,,,,,,,,,,,,,,,,,,,,,,,,,,,,,,,,,,,,,,,,,,,,,,,,,,,,,,
,,656faaea15730b0f6ea31bdd,2024-02-18_21h13.47.817,kallum_motion_pilot,2023.2.2,MacIntel,60.0240096,656faaea15730b0f6ea31bdd,65d2b6c8f2eece985d8e374c,65d2b9423d1e491d72e7ec2e,0.029,0.029,1,31,193,151,1,eightseven,,,,,,,,,,,,,,,,,,,,,,,,,,,,,,,,,,,,,,,,,,,,,,,,,,,,,,,,,,,,,,,,,,,,,,,,,,,,,,,,,,,,,,,,,,,,,,,,,,,,,,,,,,,,,,,,,,,,,,,,,,,,,,,,,,,,,,,,,
,,656faaea15730b0f6ea31bdd,2024-02-18_21h13.47.817,kallum_motion_pilot,2023.2.2,MacIntel,60.0240096,656faaea15730b0f6ea31bdd,65d2b6c8f2eece985d8e374c,65d2b9423d1e491d72e7ec2e,0.03,0.03,1,32,194,71,1,fourthree,,,,,,,,,,,,,,,,,,,,,,,,,,,,,,,,,,,,,,,,,,,,,,,,,,,,,,,,,,,,,,,,,,,,,,,,,,,,,,,,,,,,,,,,,,,,,,,,,,,,,,,,,,,,,,,,,,,,,,,,,,,,,,,,,,,,,,,,,
,,656faaea15730b0f6ea31bdd,2024-02-18_21h13.47.817,kallum_motion_pilot,2023.2.2,MacIntel,60.0240096,656faaea15730b0f6ea31bdd,65d2b6c8f2eece985d8e374c,65d2b9423d1e491d72e7ec2e,0.03,0.03,1,33,195,13,1,threefour,,,,,,,,,,,,,,,,,,,,,,,,,,,,,,,,,,,,,,,,,,,,,,,,,,,,,,,,,,,,,,,,,,,,,,,,,,,,,,,,,,,,,,,,,,,,,,,,,,,,,,,,,,,,,,,,,,,,,,,,,,,,,,,,,,,,,,,,,
,,656faaea15730b0f6ea31bdd,2024-02-18_21h13.47.817,kallum_motion_pilot,2023.2.2,MacIntel,60.0240096,656faaea15730b0f6ea31bdd,65d2b6c8f2eece985d8e374c,65d2b9423d1e491d72e7ec2e,0.03,0.03,1,34,196,121,1,fiveseven,,,,,,,,,,,,,,,,,,,,,,,,,,,,,,,,,,,,,,,,,,,,,,,,,,,,,,,,,,,,,,,,,,,,,,,,,,,,,,,,,,,,,,,,,,,,,,,,,,,,,,,,,,,,,,,,,,,,,,,,,,,,,,,,,,,,,,,,,
,,656faaea15730b0f6ea31bdd,2024-02-18_21h13.47.817,kallum_motion_pilot,2023.2.2,MacIntel,60.0240096,656faaea15730b0f6ea31bdd,65d2b6c8f2eece985d8e374c,65d2b9423d1e491d72e7ec2e,0.03,0.03,1,35,197,155,1,sixeight,,,,,,,,,,,,,,,,,,,,,,,,,,,,,,,,,,,,,,,,,,,,,,,,,,,,,,,,,,,,,,,,,,,,,,,,,,,,,,,,,,,,,,,,,,,,,,,,,,,,,,,,,,,,,,,,,,,,,,,,,,,,,,,,,,,,,,,,,
,,656faaea15730b0f6ea31bdd,2024-02-18_21h13.47.817,kallum_motion_pilot,2023.2.2,MacIntel,60.0240096,656faaea15730b0f6ea31bdd,65d2b6c8f2eece985d8e374c,65d2b9423d1e491d72e7ec2e,0.03,0.03,1,36,198,96,1,fivesix,,,,,,,,,,,,,,,,,,,,,,,,,,,,,,,,,,,,,,,,,,,,,,,,,,,,,,,,,,,,,,,,,,,,,,,,,,,,,,,,,,,,,,,,,,,,,,,,,,,,,,,,,,,,,,,,,,,,,,,,,,,,,,,,,,,,,,,,,
,,656faaea15730b0f6ea31bdd,2024-02-18_21h13.47.817,kallum_motion_pilot,2023.2.2,MacIntel,60.0240096,656faaea15730b0f6ea31bdd,65d2b6c8f2eece985d8e374c,65d2b9423d1e491d72e7ec2e,0.03,0.03,1,37,199,106,1,sixfive,,,,,,,,,,,,,,,,,,,,,,,,,,,,,,,,,,,,,,,,,,,,,,,,,,,,,,,,,,,,,,,,,,,,,,,,,,,,,,,,,,,,,,,,,,,,,,,,,,,,,,,,,,,,,,,,,,,,,,,,,,,,,,,,,,,,,,,,,
,,656faaea15730b0f6ea31bdd,2024-02-18_21h13.47.817,kallum_motion_pilot,2023.2.2,MacIntel,60.0240096,656faaea15730b0f6ea31bdd,65d2b6c8f2eece985d8e374c,65d2b9423d1e491d72e7ec2e,0.03,0.03,1,38,200,72,1,onetwo,,,,,,,,,,,,,,,,,,,,,,,,,,,,,,,,,,,,,,,,,,,,,,,,,,,,,,,,,,,,,,,,,,,,,,,,,,,,,,,,,,,,,,,,,,,,,,,,,,,,,,,,,,,,,,,,,,,,,,,,,,,,,,,,,,,,,,,,,
,,656faaea15730b0f6ea31bdd,2024-02-18_21h13.47.817,kallum_motion_pilot,2023.2.2,MacIntel,60.0240096,656faaea15730b0f6ea31bdd,65d2b6c8f2eece985d8e374c,65d2b9423d1e491d72e7ec2e,0.03,0.03,1,39,201,5,1,threefour,,,,,,,,,,,,,,,,,,,,,,,,,,,,,,,,,,,,,,,,,,,,,,,,,,,,,,,,,,,,,,,,,,,,,,,,,,,,,,,,,,,,,,,,,,,,,,,,,,,,,,,,,,,,,,,,,,,,,,,,,,,,,,,,,,,,,,,,,
,,656faaea15730b0f6ea31bdd,2024-02-18_21h13.47.817,kallum_motion_pilot,2023.2.2,MacIntel,60.0240096,656faaea15730b0f6ea31bdd,65d2b6c8f2eece985d8e374c,65d2b9423d1e491d72e7ec2e,0.03,0.03,1,40,202,61,1,threefour,,,,,,,,,,,,,,,,,,,,,,,,,,,,,,,,,,,,,,,,,,,,,,,,,,,,,,,,,,,,,,,,,,,,,,,,,,,,,,,,,,,,,,,,,,,,,,,,,,,,,,,,,,,,,,,,,,,,,,,,,,,,,,,,,,,,,,,,,
,,656faaea15730b0f6ea31bdd,2024-02-18_21h13.47.817,kallum_motion_pilot,2023.2.2,MacIntel,60.0240096,656faaea15730b0f6ea31bdd,65d2b6c8f2eece985d8e374c,65d2b9423d1e491d72e7ec2e,0.03,0.03,1,41,203,2,1,twoone,,,,,,,,,,,,,,,,,,,,,,,,,,,,,,,,,,,,,,,,,,,,,,,,,,,,,,,,,,,,,,,,,,,,,,,,,,,,,,,,,,,,,,,,,,,,,,,,,,,,,,,,,,,,,,,,,,,,,,,,,,,,,,,,,,,,,,,,,
,,656faaea15730b0f6ea31bdd,2024-02-18_21h13.47.817,kallum_motion_pilot,2023.2.2,MacIntel,60.0240096,656faaea15730b0f6ea31bdd,65d2b6c8f2eece985d8e374c,65d2b9423d1e491d72e7ec2e,0.03,0.03,1,42,204,50,1,twoone,,,,,,,,,,,,,,,,,,,,,,,,,,,,,,,,,,,,,,,,,,,,,,,,,,,,,,,,,,,,,,,,,,,,,,,,,,,,,,,,,,,,,,,,,,,,,,,,,,,,,,,,,,,,,,,,,,,,,,,,,,,,,,,,,,,,,,,,,
,,656faaea15730b0f6ea31bdd,2024-02-18_21h13.47.817,kallum_motion_pilot,2023.2.2,MacIntel,60.0240096,656faaea15730b0f6ea31bdd,65d2b6c8f2eece985d8e374c,65d2b9423d1e491d72e7ec2e,0.03,0.03,1,43,205,89,1,fiveseven,,,,,,,,,,,,,,,,,,,,,,,,,,,,,,,,,,,,,,,,,,,,,,,,,,,,,,,,,,,,,,,,,,,,,,,,,,,,,,,,,,,,,,,,,,,,,,,,,,,,,,,,,,,,,,,,,,,,,,,,,,,,,,,,,,,,,,,,,
,,656faaea15730b0f6ea31bdd,2024-02-18_21h13.47.817,kallum_motion_pilot,2023.2.2,MacIntel,60.0240096,656faaea15730b0f6ea31bdd,65d2b6c8f2eece985d8e374c,65d2b9423d1e491d72e7ec2e,0.03,0.03,1,44,206,41,1,onethree,,,,,,,,,,,,,,,,,,,,,,,,,,,,,,,,,,,,,,,,,,,,,,,,,,,,,,,,,,,,,,,,,,,,,,,,,,,,,,,,,,,,,,,,,,,,,,,,,,,,,,,,,,,,,,,,,,,,,,,,,,,,,,,,,,,,,,,,,
,,656faaea15730b0f6ea31bdd,2024-02-18_21h13.47.817,kallum_motion_pilot,2023.2.2,MacIntel,60.0240096,656faaea15730b0f6ea31bdd,65d2b6c8f2eece985d8e374c,65d2b9423d1e491d72e7ec2e,0.03,0.03,1,45,207,49,1,onethree,,,,,,,,,,,,,,,,,,,,,,,,,,,,,,,,,,,,,,,,,,,,,,,,,,,,,,,,,,,,,,,,,,,,,,,,,,,,,,,,,,,,,,,,,,,,,,,,,,,,,,,,,,,,,,,,,,,,,,,,,,,,,,,,,,,,,,,,,
,,656faaea15730b0f6ea31bdd,2024-02-18_21h13.47.817,kallum_motion_pilot,2023.2.2,MacIntel,60.0240096,656faaea15730b0f6ea31bdd,65d2b6c8f2eece985d8e374c,65d2b9423d1e491d72e7ec2e,0.03,0.03,1,46,208,1,1,onethree,,,,,,,,,,,,,,,,,,,,,,,,,,,,,,,,,,,,,,,,,,,,,,,,,,,,,,,,,,,,,,,,,,,,,,,,,,,,,,,,,,,,,,,,,,,,,,,,,,,,,,,,,,,,,,,,,,,,,,,,,,,,,,,,,,,,,,,,,
,,656faaea15730b0f6ea31bdd,2024-02-18_21h13.47.817,kallum_motion_pilot,2023.2.2,MacIntel,60.0240096,656faaea15730b0f6ea31bdd,65d2b6c8f2eece985d8e374c,65d2b9423d1e491d72e7ec2e,0.03,0.03,1,47,209,126,1,eightsix,,,,,,,,,,,,,,,,,,,,,,,,,,,,,,,,,,,,,,,,,,,,,,,,,,,,,,,,,,,,,,,,,,,,,,,,,,,,,,,,,,,,,,,,,,,,,,,,,,,,,,,,,,,,,,,,,,,,,,,,,,,,,,,,,,,,,,,,,
,,656faaea15730b0f6ea31bdd,2024-02-18_21h13.47.817,kallum_motion_pilot,2023.2.2,MacIntel,60.0240096,656faaea15730b0f6ea31bdd,65d2b6c8f2eece985d8e374c,65d2b9423d1e491d72e7ec2e,0.03,0.03,1,48,210,115,1,sixeight,,,,,,,,,,,,,,,,,,,,,,,,,,,,,,,,,,,,,,,,,,,,,,,,,,,,,,,,,,,,,,,,,,,,,,,,,,,,,,,,,,,,,,,,,,,,,,,,,,,,,,,,,,,,,,,,,,,,,,,,,,,,,,,,,,,,,,,,,
,,656faaea15730b0f6ea31bdd,2024-02-18_21h13.47.817,kallum_motion_pilot,2023.2.2,MacIntel,60.0240096,656faaea15730b0f6ea31bdd,65d2b6c8f2eece985d8e374c,65d2b9423d1e491d72e7ec2e,0.03,0.03,1,49,211,139,1,sixeight,,,,,,,,,,,,,,,,,,,,,,,,,,,,,,,,,,,,,,,,,,,,,,,,,,,,,,,,,,,,,,,,,,,,,,,,,,,,,,,,,,,,,,,,,,,,,,,,,,,,,,,,,,,,,,,,,,,,,,,,,,,,,,,,,,,,,,,,,
,,656faaea15730b0f6ea31bdd,2024-02-18_21h13.47.817,kallum_motion_pilot,2023.2.2,MacIntel,60.0240096,656faaea15730b0f6ea31bdd,65d2b6c8f2eece985d8e374c,65d2b9423d1e491d72e7ec2e,0.03,0.03,1,50,212,78,1,fourtwo,,,,,,,,,,,,,,,,,,,,,,,,,,,,,,,,,,,,,,,,,,,,,,,,,,,,,,,,,,,,,,,,,,,,,,,,,,,,,,,,,,,,,,,,,,,,,,,,,,,,,,,,,,,,,,,,,,,,,,,,,,,,,,,,,,,,,,,,,
,,656faaea15730b0f6ea31bdd,2024-02-18_21h13.47.817,kallum_motion_pilot,2023.2.2,MacIntel,60.0240096,656faaea15730b0f6ea31bdd,65d2b6c8f2eece985d8e374c,65d2b9423d1e491d72e7ec2e,0.031,0.031,1,51,213,132,1,sevenfive,,,,,,,,,,,,,,,,,,,,,,,,,,,,,,,,,,,,,,,,,,,,,,,,,,,,,,,,,,,,,,,,,,,,,,,,,,,,,,,,,,,,,,,,,,,,,,,,,,,,,,,,,,,,,,,,,,,,,,,,,,,,,,,,,,,,,,,,,
,,656faaea15730b0f6ea31bdd,2024-02-18_21h13.47.817,kallum_motion_pilot,2023.2.2,MacIntel,60.0240096,656faaea15730b0f6ea31bdd,65d2b6c8f2eece985d8e374c,65d2b9423d1e491d72e7ec2e,0.031,0.031,1,52,214,44,1,threeone,,,,,,,,,,,,,,,,,,,,,,,,,,,,,,,,,,,,,,,,,,,,,,,,,,,,,,,,,,,,,,,,,,,,,,,,,,,,,,,,,,,,,,,,,,,,,,,,,,,,,,,,,,,,,,,,,,,,,,,,,,,,,,,,,,,,,,,,,
,,656faaea15730b0f6ea31bdd,2024-02-18_21h13.47.817,kallum_motion_pilot,2023.2.2,MacIntel,60.0240096,656faaea15730b0f6ea31bdd,65d2b6c8f2eece985d8e374c,65d2b9423d1e491d72e7ec2e,0.031,0.031,1,53,215,134,1,eightsix,,,,,,,,,,,,,,,,,,,,,,,,,,,,,,,,,,,,,,,,,,,,,,,,,,,,,,,,,,,,,,,,,,,,,,,,,,,,,,,,,,,,,,,,,,,,,,,,,,,,,,,,,,,,,,,,,,,,,,,,,,,,,,,,,,,,,,,,,
,,656faaea15730b0f6ea31bdd,2024-02-18_21h13.47.817,kallum_motion_pilot,2023.2.2,MacIntel,60.0240096,656faaea15730b0f6ea31bdd,65d2b6c8f2eece985d8e374c,65d2b9423d1e491d72e7ec2e,0.031,0.031,1,54,216,97,1,fiveseven,,,,,,,,,,,,,,,,,,,,,,,,,,,,,,,,,,,,,,,,,,,,,,,,,,,,,,,,,,,,,,,,,,,,,,,,,,,,,,,,,,,,,,,,,,,,,,,,,,,,,,,,,,,,,,,,,,,,,,,,,,,,,,,,,,,,,,,,,
,,656faaea15730b0f6ea31bdd,2024-02-18_21h13.47.817,kallum_motion_pilot,2023.2.2,MacIntel,60.0240096,656faaea15730b0f6ea31bdd,65d2b6c8f2eece985d8e374c,65d2b9423d1e491d72e7ec2e,0.031,0.031,1,55,217,85,1,seveneight,,,,,,,,,,,,,,,,,,,,,,,,,,,,,,,,,,,,,,,,,,,,,,,,,,,,,,,,,,,,,,,,,,,,,,,,,,,,,,,,,,,,,,,,,,,,,,,,,,,,,,,,,,,,,,,,,,,,,,,,,,,,,,,,,,,,,,,,,
,,656faaea15730b0f6ea31bdd,2024-02-18_21h13.47.817,kallum_motion_pilot,2023.2.2,MacIntel,60.0240096,656faaea15730b0f6ea31bdd,65d2b6c8f2eece985d8e374c,65d2b9423d1e491d72e7ec2e,0.031,0.031,1,56,218,125,1,seveneight,,,,,,,,,,,,,,,,,,,,,,,,,,,,,,,,,,,,,,,,,,,,,,,,,,,,,,,,,,,,,,,,,,,,,,,,,,,,,,,,,,,,,,,,,,,,,,,,,,,,,,,,,,,,,,,,,,,,,,,,,,,,,,,,,,,,,,,,,
,,656faaea15730b0f6ea31bdd,2024-02-18_21h13.47.817,kallum_motion_pilot,2023.2.2,MacIntel,60.0240096,656faaea15730b0f6ea31bdd,65d2b6c8f2eece985d8e374c,65d2b9423d1e491d72e7ec2e,0.031,0.031,1,57,219,92,1,sevenfive,,,,,,,,,,,,,,,,,,,,,,,,,,,,,,,,,,,,,,,,,,,,,,,,,,,,,,,,,,,,,,,,,,,,,,,,,,,,,,,,,,,,,,,,,,,,,,,,,,,,,,,,,,,,,,,,,,,,,,,,,,,,,,,,,,,,,,,,,
,,656faaea15730b0f6ea31bdd,2024-02-18_21h13.47.817,kallum_motion_pilot,2023.2.2,MacIntel,60.0240096,656faaea15730b0f6ea31bdd,65d2b6c8f2eece985d8e374c,65d2b9423d1e491d72e7ec2e,0.031,0.031,1,58,220,113,1,fiveseven,,,,,,,,,,,,,,,,,,,,,,,,,,,,,,,,,,,,,,,,,,,,,,,,,,,,,,,,,,,,,,,,,,,,,,,,,,,,,,,,,,,,,,,,,,,,,,,,,,,,,,,,,,,,,,,,,,,,,,,,,,,,,,,,,,,,,,,,,
,,656faaea15730b0f6ea31bdd,2024-02-18_21h13.47.817,kallum_motion_pilot,2023.2.2,MacIntel,60.0240096,656faaea15730b0f6ea31bdd,65d2b6c8f2eece985d8e374c,65d2b9423d1e491d72e7ec2e,0.031,0.031,1,59,221,142,1,eightsix,,,,,,,,,,,,,,,,,,,,,,,,,,,,,,,,,,,,,,,,,,,,,,,,,,,,,,,,,,,,,,,,,,,,,,,,,,,,,,,,,,,,,,,,,,,,,,,,,,,,,,,,,,,,,,,,,,,,,,,,,,,,,,,,,,,,,,,,,
,,656faaea15730b0f6ea31bdd,2024-02-18_21h13.47.817,kallum_motion_pilot,2023.2.2,MacIntel,60.0240096,656faaea15730b0f6ea31bdd,65d2b6c8f2eece985d8e374c,65d2b9423d1e491d72e7ec2e,0.031,0.031,1,60,222,157,1,seveneight,,,,,,,,,,,,,,,,,,,,,,,,,,,,,,,,,,,,,,,,,,,,,,,,,,,,,,,,,,,,,,,,,,,,,,,,,,,,,,,,,,,,,,,,,,,,,,,,,,,,,,,,,,,,,,,,,,,,,,,,,,,,,,,,,,,,,,,,,
,,656faaea15730b0f6ea31bdd,2024-02-18_21h13.47.817,kallum_motion_pilot,2023.2.2,MacIntel,60.0240096,656faaea15730b0f6ea31bdd,65d2b6c8f2eece985d8e374c,65d2b9423d1e491d72e7ec2e,0.031,0.031,1,61,223,141,1,seveneight,,,,,,,,,,,,,,,,,,,,,,,,,,,,,,,,,,,,,,,,,,,,,,,,,,,,,,,,,,,,,,,,,,,,,,,,,,,,,,,,,,,,,,,,,,,,,,,,,,,,,,,,,,,,,,,,,,,,,,,,,,,,,,,,,,,,,,,,,
,,656faaea15730b0f6ea31bdd,2024-02-18_21h13.47.817,kallum_motion_pilot,2023.2.2,MacIntel,60.0240096,656faaea15730b0f6ea31bdd,65d2b6c8f2eece985d8e374c,65d2b9423d1e491d72e7ec2e,0.031,0.031,1,62,224,30,1,fourtwo,,,,,,,,,,,,,,,,,,,,,,,,,,,,,,,,,,,,,,,,,,,,,,,,,,,,,,,,,,,,,,,,,,,,,,,,,,,,,,,,,,,,,,,,,,,,,,,,,,,,,,,,,,,,,,,,,,,,,,,,,,,,,,,,,,,,,,,,,
,,656faaea15730b0f6ea31bdd,2024-02-18_21h13.47.817,kallum_motion_pilot,2023.2.2,MacIntel,60.0240096,656faaea15730b0f6ea31bdd,65d2b6c8f2eece985d8e374c,65d2b9423d1e491d72e7ec2e,0.031,0.031,1,63,225,81,1,fiveseven,,,,,,,,,,,,,,,,,,,,,,,,,,,,,,,,,,,,,,,,,,,,,,,,,,,,,,,,,,,,,,,,,,,,,,,,,,,,,,,,,,,,,,,,,,,,,,,,,,,,,,,,,,,,,,,,,,,,,,,,,,,,,,,,,,,,,,,,,
,,656faaea15730b0f6ea31bdd,2024-02-18_21h13.47.817,kallum_motion_pilot,2023.2.2,MacIntel,60.0240096,656faaea15730b0f6ea31bdd,65d2b6c8f2eece985d8e374c,65d2b9423d1e491d72e7ec2e,0.031,0.031,1,64,226,74,1,twoone,,,,,,,,,,,,,,,,,,,,,,,,,,,,,,,,,,,,,,,,,,,,,,,,,,,,,,,,,,,,,,,,,,,,,,,,,,,,,,,,,,,,,,,,,,,,,,,,,,,,,,,,,,,,,,,,,,,,,,,,,,,,,,,,,,,,,,,,,
,,656faaea15730b0f6ea31bdd,2024-02-18_21h13.47.817,kallum_motion_pilot,2023.2.2,MacIntel,60.0240096,656faaea15730b0f6ea31bdd,65d2b6c8f2eece985d8e374c,65d2b9423d1e491d72e7ec2e,0.031,0.031,1,65,227,90,1,sixfive,,,,,,,,,,,,,,,,,,,,,,,,,,,,,,,,,,,,,,,,,,,,,,,,,,,,,,,,,,,,,,,,,,,,,,,,,,,,,,,,,,,,,,,,,,,,,,,,,,,,,,,,,,,,,,,,,,,,,,,,,,,,,,,,,,,,,,,,,
,,656faaea15730b0f6ea31bdd,2024-02-18_21h13.47.817,kallum_motion_pilot,2023.2.2,MacIntel,60.0240096,656faaea15730b0f6ea31bdd,65d2b6c8f2eece985d8e374c,65d2b9423d1e491d72e7ec2e,0.031,0.031,1,66,228,102,1,eightsix,,,,,,,,,,,,,,,,,,,,,,,,,,,,,,,,,,,,,,,,,,,,,,,,,,,,,,,,,,,,,,,,,,,,,,,,,,,,,,,,,,,,,,,,,,,,,,,,,,,,,,,,,,,,,,,,,,,,,,,,,,,,,,,,,,,,,,,,,
,,656faaea15730b0f6ea31bdd,2024-02-18_21h13.47.817,kallum_motion_pilot,2023.2.2,MacIntel,60.0240096,656faaea15730b0f6ea31bdd,65d2b6c8f2eece985d8e374c,65d2b9423d1e491d72e7ec2e,0.031,0.031,1,67,229,161,1,fiveseven,,,,,,,,,,,,,,,,,,,,,,,,,,,,,,,,,,,,,,,,,,,,,,,,,,,,,,,,,,,,,,,,,,,,,,,,,,,,,,,,,,,,,,,,,,,,,,,,,,,,,,,,,,,,,,,,,,,,,,,,,,,,,,,,,,,,,,,,,
,,656faaea15730b0f6ea31bdd,2024-02-18_21h13.47.817,kallum_motion_pilot,2023.2.2,MacIntel,60.0240096,656faaea15730b0f6ea31bdd,65d2b6c8f2eece985d8e374c,65d2b9423d1e491d72e7ec2e,0.032,0.032,1,68,230,19,1,twofour,,,,,,,,,,,,,,,,,,,,,,,,,,,,,,,,,,,,,,,,,,,,,,,,,,,,,,,,,,,,,,,,,,,,,,,,,,,,,,,,,,,,,,,,,,,,,,,,,,,,,,,,,,,,,,,,,,,,,,,,,,,,,,,,,,,,,,,,,
,,656faaea15730b0f6ea31bdd,2024-02-18_21h13.47.817,kallum_motion_pilot,2023.2.2,MacIntel,60.0240096,656faaea15730b0f6ea31bdd,65d2b6c8f2eece985d8e374c,65d2b9423d1e491d72e7ec2e,0.032,0.032,1,69,231,79,1,eightseven,,,,,,,,,,,,,,,,,,,,,,,,,,,,,,,,,,,,,,,,,,,,,,,,,,,,,,,,,,,,,,,,,,,,,,,,,,,,,,,,,,,,,,,,,,,,,,,,,,,,,,,,,,,,,,,,,,,,,,,,,,,,,,,,,,,,,,,,,
,,656faaea15730b0f6ea31bdd,2024-02-18_21h13.47.817,kallum_motion_pilot,2023.2.2,MacIntel,60.0240096,656faaea15730b0f6ea31bdd,65d2b6c8f2eece985d8e374c,65d2b9423d1e491d72e7ec2e,0.032,0.032,1,70,232,39,1,fourthree,,,,,,,,,,,,,,,,,,,,,,,,,,,,,,,,,,,,,,,,,,,,,,,,,,,,,,,,,,,,,,,,,,,,,,,,,,,,,,,,,,,,,,,,,,,,,,,,,,,,,,,,,,,,,,,,,,,,,,,,,,,,,,,,,,,,,,,,,
,,656faaea15730b0f6ea31bdd,2024-02-18_21h13.47.817,kallum_motion_pilot,2023.2.2,MacIntel,60.0240096,656faaea15730b0f6ea31bdd,65d2b6c8f2eece985d8e374c,65d2b9423d1e491d72e7ec2e,0.032,0.032,1,71,233,138,1,sixfive,,,,,,,,,,,,,,,,,,,,,,,,,,,,,,,,,,,,,,,,,,,,,,,,,,,,,,,,,,,,,,,,,,,,,,,,,,,,,,,,,,,,,,,,,,,,,,,,,,,,,,,,,,,,,,,,,,,,,,,,,,,,,,,,,,,,,,,,,
,,656faaea15730b0f6ea31bdd,2024-02-18_21h13.47.817,kallum_motion_pilot,2023.2.2,MacIntel,60.0240096,656faaea15730b0f6ea31bdd,65d2b6c8f2eece985d8e374c,65d2b9423d1e491d72e7ec2e,0.032,0.032,1,72,234,51,1,twofour,,,,,,,,,,,,,,,,,,,,,,,,,,,,,,,,,,,,,,,,,,,,,,,,,,,,,,,,,,,,,,,,,,,,,,,,,,,,,,,,,,,,,,,,,,,,,,,,,,,,,,,,,,,,,,,,,,,,,,,,,,,,,,,,,,,,,,,,,
,,656faaea15730b0f6ea31bdd,2024-02-18_21h13.47.817,kallum_motion_pilot,2023.2.2,MacIntel,60.0240096,656faaea15730b0f6ea31bdd,65d2b6c8f2eece985d8e374c,65d2b9423d1e491d72e7ec2e,0.032,0.032,1,73,235,117,1,seveneight,,,,,,,,,,,,,,,,,,,,,,,,,,,,,,,,,,,,,,,,,,,,,,,,,,,,,,,,,,,,,,,,,,,,,,,,,,,,,,,,,,,,,,,,,,,,,,,,,,,,,,,,,,,,,,,,,,,,,,,,,,,,,,,,,,,,,,,,,
,,656faaea15730b0f6ea31bdd,2024-02-18_21h13.47.817,kallum_motion_pilot,2023.2.2,MacIntel,60.0240096,656faaea15730b0f6ea31bdd,65d2b6c8f2eece985d8e374c,65d2b9423d1e491d72e7ec2e,0.032,0.032,1,74,236,119,1,eightseven,,,,,,,,,,,,,,,,,,,,,,,,,,,,,,,,,,,,,,,,,,,,,,,,,,,,,,,,,,,,,,,,,,,,,,,,,,,,,,,,,,,,,,,,,,,,,,,,,,,,,,,,,,,,,,,,,,,,,,,,,,,,,,,,,,,,,,,,,
,,656faaea15730b0f6ea31bdd,2024-02-18_21h13.47.817,kallum_motion_pilot,2023.2.2,MacIntel,60.0240096,656faaea15730b0f6ea31bdd,65d2b6c8f2eece985d8e374c,65d2b9423d1e491d72e7ec2e,0.032,0.032,1,75,237,116,1,sevenfive,,,,,,,,,,,,,,,,,,,,,,,,,,,,,,,,,,,,,,,,,,,,,,,,,,,,,,,,,,,,,,,,,,,,,,,,,,,,,,,,,,,,,,,,,,,,,,,,,,,,,,,,,,,,,,,,,,,,,,,,,,,,,,,,,,,,,,,,,
,,656faaea15730b0f6ea31bdd,2024-02-18_21h13.47.817,kallum_motion_pilot,2023.2.2,MacIntel,60.0240096,656faaea15730b0f6ea31bdd,65d2b6c8f2eece985d8e374c,65d2b9423d1e491d72e7ec2e,0.032,0.032,1,76,238,63,1,fourthree,,,,,,,,,,,,,,,,,,,,,,,,,,,,,,,,,,,,,,,,,,,,,,,,,,,,,,,,,,,,,,,,,,,,,,,,,,,,,,,,,,,,,,,,,,,,,,,,,,,,,,,,,,,,,,,,,,,,,,,,,,,,,,,,,,,,,,,,,
,,656faaea15730b0f6ea31bdd,2024-02-18_21h13.47.817,kallum_motion_pilot,2023.2.2,MacIntel,60.0240096,656faaea15730b0f6ea31bdd,65d2b6c8f2eece985d8e374c,65d2b9423d1e491d72e7ec2e,0.032,0.032,1,77,239,68,1,threeone,,,,,,,,,,,,,,,,,,,,,,,,,,,,,,,,,,,,,,,,,,,,,,,,,,,,,,,,,,,,,,,,,,,,,,,,,,,,,,,,,,,,,,,,,,,,,,,,,,,,,,,,,,,,,,,,,,,,,,,,,,,,,,,,,,,,,,,,,
,,656faaea15730b0f6ea31bdd,2024-02-18_21h13.47.817,kallum_motion_pilot,2023.2.2,MacIntel,60.0240096,656faaea15730b0f6ea31bdd,65d2b6c8f2eece985d8e374c,65d2b9423d1e491d72e7ec2e,0.032,0.032,1,78,240,0,1,onetwo,,,,,,,,,,,,,,,,,,,,,,,,,,,,,,,,,,,,,,,,,,,,,,,,,,,,,,,,,,,,,,,,,,,,,,,,,,,,,,,,,,,,,,,,,,,,,,,,,,,,,,,,,,,,,,,,,,,,,,,,,,,,,,,,,,,,,,,,,
,,656faaea15730b0f6ea31bdd,2024-02-18_21h13.47.817,kallum_motion_pilot,2023.2.2,MacIntel,60.0240096,656faaea15730b0f6ea31bdd,65d2b6c8f2eece985d8e374c,65d2b9423d1e491d72e7ec2e,0.032,0.032,1,79,241,8,1,onetwo,,,,,,,,,,,,,,,,,,,,,,,,,,,,,,,,,,,,,,,,,,,,,,,,,,,,,,,,,,,,,,,,,,,,,,,,,,,,,,,,,,,,,,,,,,,,,,,,,,,,,,,,,,,,,,,,,,,,,,,,,,,,,,,,,,,,,,,,,
,,656faaea15730b0f6ea31bdd,2024-02-18_21h13.47.817,kallum_motion_pilot,2023.2.2,MacIntel,60.0240096,656faaea15730b0f6ea31bdd,65d2b6c8f2eece985d8e374c,65d2b9423d1e491d72e7ec2e,0.032,0.032,1,80,242,95,1,eightseven,,,,,,,,,,,,,,,,,,,,,,,,,,,,,,,,,,,,,,,,,,,,,,,,,,,,,,,,,,,,,,,,,,,,,,,,,,,,,,,,,,,,,,,,,,,,,,,,,,,,,,,,,,,,,,,,,,,,,,,,,,,,,,,,,,,,,,,,,
,,656faaea15730b0f6ea31bdd,2024-02-18_21h13.47.817,kallum_motion_pilot,2023.2.2,MacIntel,60.0240096,656faaea15730b0f6ea31bdd,65d2b6c8f2eece985d8e374c,65d2b9423d1e491d72e7ec2e,0.032,0.032,1,81,243,37,1,threefour,,,,,,,,,,,,,,,,,,,,,,,,,,,,,,,,,,,,,,,,,,,,,,,,,,,,,,,,,,,,,,,,,,,,,,,,,,,,,,,,,,,,,,,,,,,,,,,,,,,,,,,,,,,,,,,,,,,,,,,,,,,,,,,,,,,,,,,,,
,,656faaea15730b0f6ea31bdd,2024-02-18_21h13.47.817,kallum_motion_pilot,2023.2.2,MacIntel,60.0240096,656faaea15730b0f6ea31bdd,65d2b6c8f2eece985d8e374c,65d2b9423d1e491d72e7ec2e,0.032,0.032,1,82,244,20,1,threeone,,,,,,,,,,,,,,,,,,,,,,,,,,,,,,,,,,,,,,,,,,,,,,,,,,,,,,,,,,,,,,,,,,,,,,,,,,,,,,,,,,,,,,,,,,,,,,,,,,,,,,,,,,,,,,,,,,,,,,,,,,,,,,,,,,,,,,,,,
,,656faaea15730b0f6ea31bdd,2024-02-18_21h13.47.817,kallum_motion_pilot,2023.2.2,MacIntel,60.0240096,656faaea15730b0f6ea31bdd,65d2b6c8f2eece985d8e374c,65d2b9423d1e491d72e7ec2e,0.032,0.032,1,83,245,158,1,eightsix,,,,,,,,,,,,,,,,,,,,,,,,,,,,,,,,,,,,,,,,,,,,,,,,,,,,,,,,,,,,,,,,,,,,,,,,,,,,,,,,,,,,,,,,,,,,,,,,,,,,,,,,,,,,,,,,,,,,,,,,,,,,,,,,,,,,,,,,,
,,656faaea15730b0f6ea31bdd,2024-02-18_21h13.47.817,kallum_motion_pilot,2023.2.2,MacIntel,60.0240096,656faaea15730b0f6ea31bdd,65d2b6c8f2eece985d8e374c,65d2b9423d1e491d72e7ec2e,0.032,0.032,1,84,246,35,1,twofour,,,,,,,,,,,,,,,,,,,,,,,,,,,,,,,,,,,,,,,,,,,,,,,,,,,,,,,,,,,,,,,,,,,,,,,,,,,,,,,,,,,,,,,,,,,,,,,,,,,,,,,,,,,,,,,,,,,,,,,,,,,,,,,,,,,,,,,,,
,,656faaea15730b0f6ea31bdd,2024-02-18_21h13.47.817,kallum_motion_pilot,2023.2.2,MacIntel,60.0240096,656faaea15730b0f6ea31bdd,65d2b6c8f2eece985d8e374c,65d2b9423d1e491d72e7ec2e,0.033,0.033,1,85,247,34,1,twoone,,,,,,,,,,,,,,,,,,,,,,,,,,,,,,,,,,,,,,,,,,,,,,,,,,,,,,,,,,,,,,,,,,,,,,,,,,,,,,,,,,,,,,,,,,,,,,,,,,,,,,,,,,,,,,,,,,,,,,,,,,,,,,,,,,,,,,,,,
,,656faaea15730b0f6ea31bdd,2024-02-18_21h13.47.817,kallum_motion_pilot,2023.2.2,MacIntel,60.0240096,656faaea15730b0f6ea31bdd,65d2b6c8f2eece985d8e374c,65d2b9423d1e491d72e7ec2e,0.033,0.033,1,86,248,123,1,sixeight,,,,,,,,,,,,,,,,,,,,,,,,,,,,,,,,,,,,,,,,,,,,,,,,,,,,,,,,,,,,,,,,,,,,,,,,,,,,,,,,,,,,,,,,,,,,,,,,,,,,,,,,,,,,,,,,,,,,,,,,,,,,,,,,,,,,,,,,,
,,656faaea15730b0f6ea31bdd,2024-02-18_21h13.47.817,kallum_motion_pilot,2023.2.2,MacIntel,60.0240096,656faaea15730b0f6ea31bdd,65d2b6c8f2eece985d8e374c,65d2b9423d1e491d72e7ec2e,0.033,0.033,1,87,249,22,1,fourtwo,,,,,,,,,,,,,,,,,,,,,,,,,,,,,,,,,,,,,,,,,,,,,,,,,,,,,,,,,,,,,,,,,,,,,,,,,,,,,,,,,,,,,,,,,,,,,,,,,,,,,,,,,,,,,,,,,,,,,,,,,,,,,,,,,,,,,,,,,
,,656faaea15730b0f6ea31bdd,2024-02-18_21h13.47.817,kallum_motion_pilot,2023.2.2,MacIntel,60.0240096,656faaea15730b0f6ea31bdd,65d2b6c8f2eece985d8e374c,65d2b9423d1e491d72e7ec2e,0.033,0.033,1,88,250,66,1,twoone,,,,,,,,,,,,,,,,,,,,,,,,,,,,,,,,,,,,,,,,,,,,,,,,,,,,,,,,,,,,,,,,,,,,,,,,,,,,,,,,,,,,,,,,,,,,,,,,,,,,,,,,,,,,,,,,,,,,,,,,,,,,,,,,,,,,,,,,,
,,656faaea15730b0f6ea31bdd,2024-02-18_21h13.47.817,kallum_motion_pilot,2023.2.2,MacIntel,60.0240096,656faaea15730b0f6ea31bdd,65d2b6c8f2eece985d8e374c,65d2b9423d1e491d72e7ec2e,0.033,0.033,1,89,251,15,1,fourthree,,,,,,,,,,,,,,,,,,,,,,,,,,,,,,,,,,,,,,,,,,,,,,,,,,,,,,,,,,,,,,,,,,,,,,,,,,,,,,,,,,,,,,,,,,,,,,,,,,,,,,,,,,,,,,,,,,,,,,,,,,,,,,,,,,,,,,,,,
,,656faaea15730b0f6ea31bdd,2024-02-18_21h13.47.817,kallum_motion_pilot,2023.2.2,MacIntel,60.0240096,656faaea15730b0f6ea31bdd,65d2b6c8f2eece985d8e374c,65d2b9423d1e491d72e7ec2e,0.033,0.033,1,90,252,160,1,fivesix,,,,,,,,,,,,,,,,,,,,,,,,,,,,,,,,,,,,,,,,,,,,,,,,,,,,,,,,,,,,,,,,,,,,,,,,,,,,,,,,,,,,,,,,,,,,,,,,,,,,,,,,,,,,,,,,,,,,,,,,,,,,,,,,,,,,,,,,,
,,656faaea15730b0f6ea31bdd,2024-02-18_21h13.47.817,kallum_motion_pilot,2023.2.2,MacIntel,60.0240096,656faaea15730b0f6ea31bdd,65d2b6c8f2eece985d8e374c,65d2b9423d1e491d72e7ec2e,0.033,0.033,1,91,253,99,1,sixeight,,,,,,,,,,,,,,,,,,,,,,,,,,,,,,,,,,,,,,,,,,,,,,,,,,,,,,,,,,,,,,,,,,,,,,,,,,,,,,,,,,,,,,,,,,,,,,,,,,,,,,,,,,,,,,,,,,,,,,,,,,,,,,,,,,,,,,,,,
,,656faaea15730b0f6ea31bdd,2024-02-18_21h13.47.817,kallum_motion_pilot,2023.2.2,MacIntel,60.0240096,656faaea15730b0f6ea31bdd,65d2b6c8f2eece985d8e374c,65d2b9423d1e491d72e7ec2e,0.033,0.033,1,92,254,107,1,sixeight,,,,,,,,,,,,,,,,,,,,,,,,,,,,,,,,,,,,,,,,,,,,,,,,,,,,,,,,,,,,,,,,,,,,,,,,,,,,,,,,,,,,,,,,,,,,,,,,,,,,,,,,,,,,,,,,,,,,,,,,,,,,,,,,,,,,,,,,,
,,656faaea15730b0f6ea31bdd,2024-02-18_21h13.47.817,kallum_motion_pilot,2023.2.2,MacIntel,60.0240096,656faaea15730b0f6ea31bdd,65d2b6c8f2eece985d8e374c,65d2b9423d1e491d72e7ec2e,0.033,0.033,1,93,255,45,1,threefour,,,,,,,,,,,,,,,,,,,,,,,,,,,,,,,,,,,,,,,,,,,,,,,,,,,,,,,,,,,,,,,,,,,,,,,,,,,,,,,,,,,,,,,,,,,,,,,,,,,,,,,,,,,,,,,,,,,,,,,,,,,,,,,,,,,,,,,,,
,,656faaea15730b0f6ea31bdd,2024-02-18_21h13.47.817,kallum_motion_pilot,2023.2.2,MacIntel,60.0240096,656faaea15730b0f6ea31bdd,65d2b6c8f2eece985d8e374c,65d2b9423d1e491d72e7ec2e,0.033,0.033,1,94,256,152,1,fivesix,,,,,,,,,,,,,,,,,,,,,,,,,,,,,,,,,,,,,,,,,,,,,,,,,,,,,,,,,,,,,,,,,,,,,,,,,,,,,,,,,,,,,,,,,,,,,,,,,,,,,,,,,,,,,,,,,,,,,,,,,,,,,,,,,,,,,,,,,
,,656faaea15730b0f6ea31bdd,2024-02-18_21h13.47.817,kallum_motion_pilot,2023.2.2,MacIntel,60.0240096,656faaea15730b0f6ea31bdd,65d2b6c8f2eece985d8e374c,65d2b9423d1e491d72e7ec2e,0.033,0.033,1,95,257,26,1,twoone,,,,,,,,,,,,,,,,,,,,,,,,,,,,,,,,,,,,,,,,,,,,,,,,,,,,,,,,,,,,,,,,,,,,,,,,,,,,,,,,,,,,,,,,,,,,,,,,,,,,,,,,,,,,,,,,,,,,,,,,,,,,,,,,,,,,,,,,,
,,656faaea15730b0f6ea31bdd,2024-02-18_21h13.47.817,kallum_motion_pilot,2023.2.2,MacIntel,60.0240096,656faaea15730b0f6ea31bdd,65d2b6c8f2eece985d8e374c,65d2b9423d1e491d72e7ec2e,0.033,0.033,1,96,258,56,1,onetwo,,,,,,,,,,,,,,,,,,,,,,,,,,,,,,,,,,,,,,,,,,,,,,,,,,,,,,,,,,,,,,,,,,,,,,,,,,,,,,,,,,,,,,,,,,,,,,,,,,,,,,,,,,,,,,,,,,,,,,,,,,,,,,,,,,,,,,,,,
,,656faaea15730b0f6ea31bdd,2024-02-18_21h13.47.817,kallum_motion_pilot,2023.2.2,MacIntel,60.0240096,656faaea15730b0f6ea31bdd,65d2b6c8f2eece985d8e374c,65d2b9423d1e491d72e7ec2e,0.033,0.033,1,97,259,62,1,fourtwo,,,,,,,,,,,,,,,,,,,,,,,,,,,,,,,,,,,,,,,,,,,,,,,,,,,,,,,,,,,,,,,,,,,,,,,,,,,,,,,,,,,,,,,,,,,,,,,,,,,,,,,,,,,,,,,,,,,,,,,,,,,,,,,,,,,,,,,,,
,,656faaea15730b0f6ea31bdd,2024-02-18_21h13.47.817,kallum_motion_pilot,2023.2.2,MacIntel,60.0240096,656faaea15730b0f6ea31bdd,65d2b6c8f2eece985d8e374c,65d2b9423d1e491d72e7ec2e,0.033,0.033,1,98,260,118,1,eightsix,,,,,,,,,,,,,,,,,,,,,,,,,,,,,,,,,,,,,,,,,,,,,,,,,,,,,,,,,,,,,,,,,,,,,,,,,,,,,,,,,,,,,,,,,,,,,,,,,,,,,,,,,,,,,,,,,,,,,,,,,,,,,,,,,,,,,,,,,
,,656faaea15730b0f6ea31bdd,2024-02-18_21h13.47.817,kallum_motion_pilot,2023.2.2,MacIntel,60.0240096,656faaea15730b0f6ea31bdd,65d2b6c8f2eece985d8e374c,65d2b9423d1e491d72e7ec2e,0.034,0.034,1,99,261,98,1,sixfive,,,,,,,,,,,,,,,,,,,,,,,,,,,,,,,,,,,,,,,,,,,,,,,,,,,,,,,,,,,,,,,,,,,,,,,,,,,,,,,,,,,,,,,,,,,,,,,,,,,,,,,,,,,,,,,,,,,,,,,,,,,,,,,,,,,,,,,,,
,,656faaea15730b0f6ea31bdd,2024-02-18_21h13.47.817,kallum_motion_pilot,2023.2.2,MacIntel,60.0240096,656faaea15730b0f6ea31bdd,65d2b6c8f2eece985d8e374c,65d2b9423d1e491d72e7ec2e,0.034,0.034,1,100,262,144,1,fivesix,,,,,,,,,,,,,,,,,,,,,,,,,,,,,,,,,,,,,,,,,,,,,,,,,,,,,,,,,,,,,,,,,,,,,,,,,,,,,,,,,,,,,,,,,,,,,,,,,,,,,,,,,,,,,,,,,,,,,,,,,,,,,,,,,,,,,,,,,
,,656faaea15730b0f6ea31bdd,2024-02-18_21h13.47.817,kallum_motion_pilot,2023.2.2,MacIntel,60.0240096,656faaea15730b0f6ea31bdd,65d2b6c8f2eece985d8e374c,65d2b9423d1e491d72e7ec2e,0.034,0.034,1,101,263,82,1,sixfive,,,,,,,,,,,,,,,,,,,,,,,,,,,,,,,,,,,,,,,,,,,,,,,,,,,,,,,,,,,,,,,,,,,,,,,,,,,,,,,,,,,,,,,,,,,,,,,,,,,,,,,,,,,,,,,,,,,,,,,,,,,,,,,,,,,,,,,,,
,,656faaea15730b0f6ea31bdd,2024-02-18_21h13.47.817,kallum_motion_pilot,2023.2.2,MacIntel,60.0240096,656faaea15730b0f6ea31bdd,65d2b6c8f2eece985d8e374c,65d2b9423d1e491d72e7ec2e,0.034,0.034,1,102,264,77,1,threefour,,,,,,,,,,,,,,,,,,,,,,,,,,,,,,,,,,,,,,,,,,,,,,,,,,,,,,,,,,,,,,,,,,,,,,,,,,,,,,,,,,,,,,,,,,,,,,,,,,,,,,,,,,,,,,,,,,,,,,,,,,,,,,,,,,,,,,,,,
,,656faaea15730b0f6ea31bdd,2024-02-18_21h13.47.817,kallum_motion_pilot,2023.2.2,MacIntel,60.0240096,656faaea15730b0f6ea31bdd,65d2b6c8f2eece985d8e374c,65d2b9423d1e491d72e7ec2e,0.034,0.034,1,103,265,33,1,onethree,,,,,,,,,,,,,,,,,,,,,,,,,,,,,,,,,,,,,,,,,,,,,,,,,,,,,,,,,,,,,,,,,,,,,,,,,,,,,,,,,,,,,,,,,,,,,,,,,,,,,,,,,,,,,,,,,,,,,,,,,,,,,,,,,,,,,,,,,
,,656faaea15730b0f6ea31bdd,2024-02-18_21h13.47.817,kallum_motion_pilot,2023.2.2,MacIntel,60.0240096,656faaea15730b0f6ea31bdd,65d2b6c8f2eece985d8e374c,65d2b9423d1e491d72e7ec2e,0.034,0.034,1,104,266,100,1,sevenfive,,,,,,,,,,,,,,,,,,,,,,,,,,,,,,,,,,,,,,,,,,,,,,,,,,,,,,,,,,,,,,,,,,,,,,,,,,,,,,,,,,,,,,,,,,,,,,,,,,,,,,,,,,,,,,,,,,,,,,,,,,,,,,,,,,,,,,,,,
,,656faaea15730b0f6ea31bdd,2024-02-18_21h13.47.817,kallum_motion_pilot,2023.2.2,MacIntel,60.0240096,656faaea15730b0f6ea31bdd,65d2b6c8f2eece985d8e374c,65d2b9423d1e491d72e7ec2e,0.034,0.034,1,105,267,17,1,onethree,,,,,,,,,,,,,,,,,,,,,,,,,,,,,,,,,,,,,,,,,,,,,,,,,,,,,,,,,,,,,,,,,,,,,,,,,,,,,,,,,,,,,,,,,,,,,,,,,,,,,,,,,,,,,,,,,,,,,,,,,,,,,,,,,,,,,,,,,
,,656faaea15730b0f6ea31bdd,2024-02-18_21h13.47.817,kallum_motion_pilot,2023.2.2,MacIntel,60.0240096,656faaea15730b0f6ea31bdd,65d2b6c8f2eece985d8e374c,65d2b9423d1e491d72e7ec2e,0.034,0.034,1,106,268,58,1,twoone,,,,,,,,,,,,,,,,,,,,,,,,,,,,,,,,,,,,,,,,,,,,,,,,,,,,,,,,,,,,,,,,,,,,,,,,,,,,,,,,,,,,,,,,,,,,,,,,,,,,,,,,,,,,,,,,,,,,,,,,,,,,,,,,,,,,,,,,,
,,656faaea15730b0f6ea31bdd,2024-02-18_21h13.47.817,kallum_motion_pilot,2023.2.2,MacIntel,60.0240096,656faaea15730b0f6ea31bdd,65d2b6c8f2eece985d8e374c,65d2b9423d1e491d72e7ec2e,0.034,0.034,1,107,269,67,1,twofour,,,,,,,,,,,,,,,,,,,,,,,,,,,,,,,,,,,,,,,,,,,,,,,,,,,,,,,,,,,,,,,,,,,,,,,,,,,,,,,,,,,,,,,,,,,,,,,,,,,,,,,,,,,,,,,,,,,,,,,,,,,,,,,,,,,,,,,,,
,,656faaea15730b0f6ea31bdd,2024-02-18_21h13.47.817,kallum_motion_pilot,2023.2.2,MacIntel,60.0240096,656faaea15730b0f6ea31bdd,65d2b6c8f2eece985d8e374c,65d2b9423d1e491d72e7ec2e,0.034,0.034,1,108,270,27,1,twofour,,,,,,,,,,,,,,,,,,,,,,,,,,,,,,,,,,,,,,,,,,,,,,,,,,,,,,,,,,,,,,,,,,,,,,,,,,,,,,,,,,,,,,,,,,,,,,,,,,,,,,,,,,,,,,,,,,,,,,,,,,,,,,,,,,,,,,,,,
,,656faaea15730b0f6ea31bdd,2024-02-18_21h13.47.817,kallum_motion_pilot,2023.2.2,MacIntel,60.0240096,656faaea15730b0f6ea31bdd,65d2b6c8f2eece985d8e374c,65d2b9423d1e491d72e7ec2e,0.034,0.034,1,109,271,133,1,seveneight,,,,,,,,,,,,,,,,,,,,,,,,,,,,,,,,,,,,,,,,,,,,,,,,,,,,,,,,,,,,,,,,,,,,,,,,,,,,,,,,,,,,,,,,,,,,,,,,,,,,,,,,,,,,,,,,,,,,,,,,,,,,,,,,,,,,,,,,,
,,656faaea15730b0f6ea31bdd,2024-02-18_21h13.47.817,kallum_motion_pilot,2023.2.2,MacIntel,60.0240096,656faaea15730b0f6ea31bdd,65d2b6c8f2eece985d8e374c,65d2b9423d1e491d72e7ec2e,0.034,0.034,1,110,272,64,1,onetwo,,,,,,,,,,,,,,,,,,,,,,,,,,,,,,,,,,,,,,,,,,,,,,,,,,,,,,,,,,,,,,,,,,,,,,,,,,,,,,,,,,,,,,,,,,,,,,,,,,,,,,,,,,,,,,,,,,,,,,,,,,,,,,,,,,,,,,,,,
,,656faaea15730b0f6ea31bdd,2024-02-18_21h13.47.817,kallum_motion_pilot,2023.2.2,MacIntel,60.0240096,656faaea15730b0f6ea31bdd,65d2b6c8f2eece985d8e374c,65d2b9423d1e491d72e7ec2e,0.034,0.034,1,111,273,60,1,threeone,,,,,,,,,,,,,,,,,,,,,,,,,,,,,,,,,,,,,,,,,,,,,,,,,,,,,,,,,,,,,,,,,,,,,,,,,,,,,,,,,,,,,,,,,,,,,,,,,,,,,,,,,,,,,,,,,,,,,,,,,,,,,,,,,,,,,,,,,
,,656faaea15730b0f6ea31bdd,2024-02-18_21h13.47.817,kallum_motion_pilot,2023.2.2,MacIntel,60.0240096,656faaea15730b0f6ea31bdd,65d2b6c8f2eece985d8e374c,65d2b9423d1e491d72e7ec2e,0.034,0.034,1,112,274,156,1,sevenfive,,,,,,,,,,,,,,,,,,,,,,,,,,,,,,,,,,,,,,,,,,,,,,,,,,,,,,,,,,,,,,,,,,,,,,,,,,,,,,,,,,,,,,,,,,,,,,,,,,,,,,,,,,,,,,,,,,,,,,,,,,,,,,,,,,,,,,,,,
,,656faaea15730b0f6ea31bdd,2024-02-18_21h13.47.817,kallum_motion_pilot,2023.2.2,MacIntel,60.0240096,656faaea15730b0f6ea31bdd,65d2b6c8f2eece985d8e374c,65d2b9423d1e491d72e7ec2e,0.034,0.034,1,113,275,80,1,fivesix,,,,,,,,,,,,,,,,,,,,,,,,,,,,,,,,,,,,,,,,,,,,,,,,,,,,,,,,,,,,,,,,,,,,,,,,,,,,,,,,,,,,,,,,,,,,,,,,,,,,,,,,,,,,,,,,,,,,,,,,,,,,,,,,,,,,,,,,,
,,656faaea15730b0f6ea31bdd,2024-02-18_21h13.47.817,kallum_motion_pilot,2023.2.2,MacIntel,60.0240096,656faaea15730b0f6ea31bdd,65d2b6c8f2eece985d8e374c,65d2b9423d1e491d72e7ec2e,0.034,0.034,1,114,276,36,1,threeone,,,,,,,,,,,,,,,,,,,,,,,,,,,,,,,,,,,,,,,,,,,,,,,,,,,,,,,,,,,,,,,,,,,,,,,,,,,,,,,,,,,,,,,,,,,,,,,,,,,,,,,,,,,,,,,,,,,,,,,,,,,,,,,,,,,,,,,,,
,,656faaea15730b0f6ea31bdd,2024-02-18_21h13.47.817,kallum_motion_pilot,2023.2.2,MacIntel,60.0240096,656faaea15730b0f6ea31bdd,65d2b6c8f2eece985d8e374c,65d2b9423d1e491d72e7ec2e,0.034,0.034,1,115,277,145,1,fiveseven,,,,,,,,,,,,,,,,,,,,,,,,,,,,,,,,,,,,,,,,,,,,,,,,,,,,,,,,,,,,,,,,,,,,,,,,,,,,,,,,,,,,,,,,,,,,,,,,,,,,,,,,,,,,,,,,,,,,,,,,,,,,,,,,,,,,,,,,,
