startup.started,startup.stopped,Prolific ID*,date,expName,psychopyVersion,OS,frameRate,participant,study_id,session,stimpositions.started,stimpositions.stopped,hardcoded_stimulus_positions.thisRepN,hardcoded_stimulus_positions.thisTrialN,hardcoded_stimulus_positions.thisN,hardcoded_stimulus_positions.thisIndex,hardcoded_stimulus_positions.ran,StimulusPos,stimorientation.started,stimorientation.stopped,prac_stimorientation_import_loop.thisRepN,prac_stimorientation_import_loop.thisTrialN,prac_stimorientation_import_loop.thisN,prac_stimorientation_import_loop.thisIndex,prac_stimorientation_import_loop.ran,Stimorientation,welcome_instr.started,welcome_instr.stopped,key_resp.keys,key_resp.rt,key_resp.duration,response_steppedout_1.started,response_steppedout_1.stopped,key_resp_20.keys,key_resp_20.rt,key_resp_20.duration,response_steppedout_2.started,response_steppedout_2.stopped,key_resp_19.keys,key_resp_19.rt,key_resp_19.duration,stim_response_instr.started,stim_response_instr.stopped,key_resp_15.keys,key_resp_15.rt,key_resp_15.duration,direction_instr_2.started,direction_instr_2.stopped,key_resp_9.keys,key_resp_9.rt,key_resp_9.duration,instr_prac.started,instr_prac.stopped,key_resp_10.keys,key_resp_10.rt,key_resp_10.duration,Stim1_display_prac.started,Stim1_display_prac.stopped,Ecc,Circle1_ori,Circle2_ori,response_prac.started,similarity,response_time,response_prac.stopped,mouse_5.x,mouse_5.y,mouse_5.leftButton,mouse_5.midButton,mouse_5.rightButton,mouse_5.clicked_name,responseprac_feedback.started,responseprac_feedback.stopped,summary2_prac.started,summary2_prac.stopped,mouse_6.x,mouse_6.y,mouse_6.leftButton,mouse_6.midButton,mouse_6.rightButton,mouse_6.clicked_name,duringprac.thisRepN,duringprac.thisTrialN,duringprac.thisN,duringprac.thisIndex,duringprac.ran,begin.started,begin.stopped,key_resp_22.keys,key_resp_22.rt,key_resp_22.duration,Stim1_display.started,Stim1_display.stopped,circle1_ori,circle2_ori,circle1_SF,circle2_SF,response.started,response.stopped,mouse.x,mouse.y,mouse.leftButton,mouse.midButton,mouse.rightButton,mouse.clicked_name,trialnumber,double_pass.thisRepN,double_pass.thisTrialN,double_pass.thisN,double_pass.thisIndex,double_pass.ran,double_pass.order,main_trial.thisRepN,main_trial.thisTrialN,main_trial.thisN,main_trial.thisIndex,main_trial.ran,main_trial.order,Trial_Counter,Catch,Frequencies,response_2.started,response_2.stopped,mouse_2.x,mouse_2.y,mouse_2.leftButton,mouse_2.midButton,mouse_2.rightButton,mouse_2.clicked_name,special_trial.started,special_trial.stopped,catch_1.started,catch_1.stopped,mouse_3.x,mouse_3.y,mouse_3.leftButton,mouse_3.midButton,mouse_3.rightButton,catchresponse,catchnumber,response_time_catch,response_sum.started,response_sum.stopped,mouse_11.x,mouse_11.y,mouse_11.leftButton,mouse_11.midButton,mouse_11.rightButton,flip_presentation_sequence_for_double_pass.started,flip_presentation_sequence_for_double_pass.stopped,goodbye.started,goodbye.stopped,key_resp_3.keys,key_resp_3.rt,key_resp_3.duration
0.0003,0.0004,6573451f5972cc7e8ba92049,2024-02-19_03h19.04.368,kallum_motion_pilot,2023.2.2,Win32,60.24096386,6573451f5972cc7e8ba92049,65d2b6c8f2eece985d8e374c,65d2c899c3c6633988ab6d2e,,,,,,,,,,,,,,,,,,,,,,,,,,,,,,,,,,,,,,,,,,,,,,,,,,,,,,,,,,,,,,,,,,,,,,,,,,,,,,,,,,,,,,,,,,,,,,,,,,,,,,,,,,,,,,,,,,,,,,,,,,,,,,,,,,,,,,,,,,,,,,,,,
,,6573451f5972cc7e8ba92049,2024-02-19_03h19.04.368,kallum_motion_pilot,2023.2.2,Win32,60.24096386,6573451f5972cc7e8ba92049,65d2b6c8f2eece985d8e374c,65d2c899c3c6633988ab6d2e,0.0128,0.0128,0,0,0,18,1,twoone,,,,,,,,,,,,,,,,,,,,,,,,,,,,,,,,,,,,,,,,,,,,,,,,,,,,,,,,,,,,,,,,,,,,,,,,,,,,,,,,,,,,,,,,,,,,,,,,,,,,,,,,,,,,,,,,,,,,,,,,,,,,,,,,,,,,,,,,,
,,6573451f5972cc7e8ba92049,2024-02-19_03h19.04.368,kallum_motion_pilot,2023.2.2,Win32,60.24096386,6573451f5972cc7e8ba92049,65d2b6c8f2eece985d8e374c,65d2c899c3c6633988ab6d2e,0.013,0.013,0,1,1,60,1,threeone,,,,,,,,,,,,,,,,,,,,,,,,,,,,,,,,,,,,,,,,,,,,,,,,,,,,,,,,,,,,,,,,,,,,,,,,,,,,,,,,,,,,,,,,,,,,,,,,,,,,,,,,,,,,,,,,,,,,,,,,,,,,,,,,,,,,,,,,,
,,6573451f5972cc7e8ba92049,2024-02-19_03h19.04.368,kallum_motion_pilot,2023.2.2,Win32,60.24096386,6573451f5972cc7e8ba92049,65d2b6c8f2eece985d8e374c,65d2c899c3c6633988ab6d2e,0.0131,0.0131,0,2,2,21,1,threefour,,,,,,,,,,,,,,,,,,,,,,,,,,,,,,,,,,,,,,,,,,,,,,,,,,,,,,,,,,,,,,,,,,,,,,,,,,,,,,,,,,,,,,,,,,,,,,,,,,,,,,,,,,,,,,,,,,,,,,,,,,,,,,,,,,,,,,,,,
,,6573451f5972cc7e8ba92049,2024-02-19_03h19.04.368,kallum_motion_pilot,2023.2.2,Win32,60.24096386,6573451f5972cc7e8ba92049,65d2b6c8f2eece985d8e374c,65d2c899c3c6633988ab6d2e,0.0131,0.0131,0,3,3,93,1,seveneight,,,,,,,,,,,,,,,,,,,,,,,,,,,,,,,,,,,,,,,,,,,,,,,,,,,,,,,,,,,,,,,,,,,,,,,,,,,,,,,,,,,,,,,,,,,,,,,,,,,,,,,,,,,,,,,,,,,,,,,,,,,,,,,,,,,,,,,,,
,,6573451f5972cc7e8ba92049,2024-02-19_03h19.04.368,kallum_motion_pilot,2023.2.2,Win32,60.24096386,6573451f5972cc7e8ba92049,65d2b6c8f2eece985d8e374c,65d2c899c3c6633988ab6d2e,0.0132,0.0132,0,4,4,14,1,fourtwo,,,,,,,,,,,,,,,,,,,,,,,,,,,,,,,,,,,,,,,,,,,,,,,,,,,,,,,,,,,,,,,,,,,,,,,,,,,,,,,,,,,,,,,,,,,,,,,,,,,,,,,,,,,,,,,,,,,,,,,,,,,,,,,,,,,,,,,,,
,,6573451f5972cc7e8ba92049,2024-02-19_03h19.04.368,kallum_motion_pilot,2023.2.2,Win32,60.24096386,6573451f5972cc7e8ba92049,65d2b6c8f2eece985d8e374c,65d2c899c3c6633988ab6d2e,0.0133,0.0133,0,5,5,20,1,threeone,,,,,,,,,,,,,,,,,,,,,,,,,,,,,,,,,,,,,,,,,,,,,,,,,,,,,,,,,,,,,,,,,,,,,,,,,,,,,,,,,,,,,,,,,,,,,,,,,,,,,,,,,,,,,,,,,,,,,,,,,,,,,,,,,,,,,,,,,
,,6573451f5972cc7e8ba92049,2024-02-19_03h19.04.368,kallum_motion_pilot,2023.2.2,Win32,60.24096386,6573451f5972cc7e8ba92049,65d2b6c8f2eece985d8e374c,65d2c899c3c6633988ab6d2e,0.0133,0.0133,0,6,6,124,1,sevenfive,,,,,,,,,,,,,,,,,,,,,,,,,,,,,,,,,,,,,,,,,,,,,,,,,,,,,,,,,,,,,,,,,,,,,,,,,,,,,,,,,,,,,,,,,,,,,,,,,,,,,,,,,,,,,,,,,,,,,,,,,,,,,,,,,,,,,,,,,
,,6573451f5972cc7e8ba92049,2024-02-19_03h19.04.368,kallum_motion_pilot,2023.2.2,Win32,60.24096386,6573451f5972cc7e8ba92049,65d2b6c8f2eece985d8e374c,65d2c899c3c6633988ab6d2e,0.0134,0.0134,0,7,7,43,1,twofour,,,,,,,,,,,,,,,,,,,,,,,,,,,,,,,,,,,,,,,,,,,,,,,,,,,,,,,,,,,,,,,,,,,,,,,,,,,,,,,,,,,,,,,,,,,,,,,,,,,,,,,,,,,,,,,,,,,,,,,,,,,,,,,,,,,,,,,,,
,,6573451f5972cc7e8ba92049,2024-02-19_03h19.04.368,kallum_motion_pilot,2023.2.2,Win32,60.24096386,6573451f5972cc7e8ba92049,65d2b6c8f2eece985d8e374c,65d2c899c3c6633988ab6d2e,0.0135,0.0135,0,8,8,85,1,seveneight,,,,,,,,,,,,,,,,,,,,,,,,,,,,,,,,,,,,,,,,,,,,,,,,,,,,,,,,,,,,,,,,,,,,,,,,,,,,,,,,,,,,,,,,,,,,,,,,,,,,,,,,,,,,,,,,,,,,,,,,,,,,,,,,,,,,,,,,,
,,6573451f5972cc7e8ba92049,2024-02-19_03h19.04.368,kallum_motion_pilot,2023.2.2,Win32,60.24096386,6573451f5972cc7e8ba92049,65d2b6c8f2eece985d8e374c,65d2c899c3c6633988ab6d2e,0.0136,0.0136,0,9,9,12,1,threeone,,,,,,,,,,,,,,,,,,,,,,,,,,,,,,,,,,,,,,,,,,,,,,,,,,,,,,,,,,,,,,,,,,,,,,,,,,,,,,,,,,,,,,,,,,,,,,,,,,,,,,,,,,,,,,,,,,,,,,,,,,,,,,,,,,,,,,,,,
,,6573451f5972cc7e8ba92049,2024-02-19_03h19.04.368,kallum_motion_pilot,2023.2.2,Win32,60.24096386,6573451f5972cc7e8ba92049,65d2b6c8f2eece985d8e374c,65d2c899c3c6633988ab6d2e,0.0137,0.0137,0,10,10,26,1,twoone,,,,,,,,,,,,,,,,,,,,,,,,,,,,,,,,,,,,,,,,,,,,,,,,,,,,,,,,,,,,,,,,,,,,,,,,,,,,,,,,,,,,,,,,,,,,,,,,,,,,,,,,,,,,,,,,,,,,,,,,,,,,,,,,,,,,,,,,,
,,6573451f5972cc7e8ba92049,2024-02-19_03h19.04.368,kallum_motion_pilot,2023.2.2,Win32,60.24096386,6573451f5972cc7e8ba92049,65d2b6c8f2eece985d8e374c,65d2c899c3c6633988ab6d2e,0.0137,0.0137,0,11,11,91,1,sixeight,,,,,,,,,,,,,,,,,,,,,,,,,,,,,,,,,,,,,,,,,,,,,,,,,,,,,,,,,,,,,,,,,,,,,,,,,,,,,,,,,,,,,,,,,,,,,,,,,,,,,,,,,,,,,,,,,,,,,,,,,,,,,,,,,,,,,,,,,
,,6573451f5972cc7e8ba92049,2024-02-19_03h19.04.368,kallum_motion_pilot,2023.2.2,Win32,60.24096386,6573451f5972cc7e8ba92049,65d2b6c8f2eece985d8e374c,65d2c899c3c6633988ab6d2e,0.0138,0.0138,0,12,12,112,1,fivesix,,,,,,,,,,,,,,,,,,,,,,,,,,,,,,,,,,,,,,,,,,,,,,,,,,,,,,,,,,,,,,,,,,,,,,,,,,,,,,,,,,,,,,,,,,,,,,,,,,,,,,,,,,,,,,,,,,,,,,,,,,,,,,,,,,,,,,,,,
,,6573451f5972cc7e8ba92049,2024-02-19_03h19.04.368,kallum_motion_pilot,2023.2.2,Win32,60.24096386,6573451f5972cc7e8ba92049,65d2b6c8f2eece985d8e374c,65d2c899c3c6633988ab6d2e,0.0138,0.0138,0,13,13,69,1,threefour,,,,,,,,,,,,,,,,,,,,,,,,,,,,,,,,,,,,,,,,,,,,,,,,,,,,,,,,,,,,,,,,,,,,,,,,,,,,,,,,,,,,,,,,,,,,,,,,,,,,,,,,,,,,,,,,,,,,,,,,,,,,,,,,,,,,,,,,,
,,6573451f5972cc7e8ba92049,2024-02-19_03h19.04.368,kallum_motion_pilot,2023.2.2,Win32,60.24096386,6573451f5972cc7e8ba92049,65d2b6c8f2eece985d8e374c,65d2c899c3c6633988ab6d2e,0.0139,0.0139,0,14,14,146,1,sixfive,,,,,,,,,,,,,,,,,,,,,,,,,,,,,,,,,,,,,,,,,,,,,,,,,,,,,,,,,,,,,,,,,,,,,,,,,,,,,,,,,,,,,,,,,,,,,,,,,,,,,,,,,,,,,,,,,,,,,,,,,,,,,,,,,,,,,,,,,
,,6573451f5972cc7e8ba92049,2024-02-19_03h19.04.368,kallum_motion_pilot,2023.2.2,Win32,60.24096386,6573451f5972cc7e8ba92049,65d2b6c8f2eece985d8e374c,65d2c899c3c6633988ab6d2e,0.0139,0.0139,0,15,15,125,1,seveneight,,,,,,,,,,,,,,,,,,,,,,,,,,,,,,,,,,,,,,,,,,,,,,,,,,,,,,,,,,,,,,,,,,,,,,,,,,,,,,,,,,,,,,,,,,,,,,,,,,,,,,,,,,,,,,,,,,,,,,,,,,,,,,,,,,,,,,,,,
,,6573451f5972cc7e8ba92049,2024-02-19_03h19.04.368,kallum_motion_pilot,2023.2.2,Win32,60.24096386,6573451f5972cc7e8ba92049,65d2b6c8f2eece985d8e374c,65d2c899c3c6633988ab6d2e,0.014,0.014,0,16,16,53,1,threefour,,,,,,,,,,,,,,,,,,,,,,,,,,,,,,,,,,,,,,,,,,,,,,,,,,,,,,,,,,,,,,,,,,,,,,,,,,,,,,,,,,,,,,,,,,,,,,,,,,,,,,,,,,,,,,,,,,,,,,,,,,,,,,,,,,,,,,,,,
,,6573451f5972cc7e8ba92049,2024-02-19_03h19.04.368,kallum_motion_pilot,2023.2.2,Win32,60.24096386,6573451f5972cc7e8ba92049,65d2b6c8f2eece985d8e374c,65d2c899c3c6633988ab6d2e,0.014,0.014,0,17,17,157,1,seveneight,,,,,,,,,,,,,,,,,,,,,,,,,,,,,,,,,,,,,,,,,,,,,,,,,,,,,,,,,,,,,,,,,,,,,,,,,,,,,,,,,,,,,,,,,,,,,,,,,,,,,,,,,,,,,,,,,,,,,,,,,,,,,,,,,,,,,,,,,
,,6573451f5972cc7e8ba92049,2024-02-19_03h19.04.368,kallum_motion_pilot,2023.2.2,Win32,60.24096386,6573451f5972cc7e8ba92049,65d2b6c8f2eece985d8e374c,65d2c899c3c6633988ab6d2e,0.014,0.014,0,18,18,115,1,sixeight,,,,,,,,,,,,,,,,,,,,,,,,,,,,,,,,,,,,,,,,,,,,,,,,,,,,,,,,,,,,,,,,,,,,,,,,,,,,,,,,,,,,,,,,,,,,,,,,,,,,,,,,,,,,,,,,,,,,,,,,,,,,,,,,,,,,,,,,,
,,6573451f5972cc7e8ba92049,2024-02-19_03h19.04.368,kallum_motion_pilot,2023.2.2,Win32,60.24096386,6573451f5972cc7e8ba92049,65d2b6c8f2eece985d8e374c,65d2c899c3c6633988ab6d2e,0.0141,0.0141,0,19,19,137,1,fiveseven,,,,,,,,,,,,,,,,,,,,,,,,,,,,,,,,,,,,,,,,,,,,,,,,,,,,,,,,,,,,,,,,,,,,,,,,,,,,,,,,,,,,,,,,,,,,,,,,,,,,,,,,,,,,,,,,,,,,,,,,,,,,,,,,,,,,,,,,,
,,6573451f5972cc7e8ba92049,2024-02-19_03h19.04.368,kallum_motion_pilot,2023.2.2,Win32,60.24096386,6573451f5972cc7e8ba92049,65d2b6c8f2eece985d8e374c,65d2c899c3c6633988ab6d2e,0.0141,0.0142,0,20,20,64,1,onetwo,,,,,,,,,,,,,,,,,,,,,,,,,,,,,,,,,,,,,,,,,,,,,,,,,,,,,,,,,,,,,,,,,,,,,,,,,,,,,,,,,,,,,,,,,,,,,,,,,,,,,,,,,,,,,,,,,,,,,,,,,,,,,,,,,,,,,,,,,
,,6573451f5972cc7e8ba92049,2024-02-19_03h19.04.368,kallum_motion_pilot,2023.2.2,Win32,60.24096386,6573451f5972cc7e8ba92049,65d2b6c8f2eece985d8e374c,65d2c899c3c6633988ab6d2e,0.0142,0.0142,0,21,21,86,1,eightsix,,,,,,,,,,,,,,,,,,,,,,,,,,,,,,,,,,,,,,,,,,,,,,,,,,,,,,,,,,,,,,,,,,,,,,,,,,,,,,,,,,,,,,,,,,,,,,,,,,,,,,,,,,,,,,,,,,,,,,,,,,,,,,,,,,,,,,,,,
,,6573451f5972cc7e8ba92049,2024-02-19_03h19.04.368,kallum_motion_pilot,2023.2.2,Win32,60.24096386,6573451f5972cc7e8ba92049,65d2b6c8f2eece985d8e374c,65d2c899c3c6633988ab6d2e,0.0143,0.0143,0,22,22,57,1,onethree,,,,,,,,,,,,,,,,,,,,,,,,,,,,,,,,,,,,,,,,,,,,,,,,,,,,,,,,,,,,,,,,,,,,,,,,,,,,,,,,,,,,,,,,,,,,,,,,,,,,,,,,,,,,,,,,,,,,,,,,,,,,,,,,,,,,,,,,,
,,6573451f5972cc7e8ba92049,2024-02-19_03h19.04.368,kallum_motion_pilot,2023.2.2,Win32,60.24096386,6573451f5972cc7e8ba92049,65d2b6c8f2eece985d8e374c,65d2c899c3c6633988ab6d2e,0.0143,0.0143,0,23,23,17,1,onethree,,,,,,,,,,,,,,,,,,,,,,,,,,,,,,,,,,,,,,,,,,,,,,,,,,,,,,,,,,,,,,,,,,,,,,,,,,,,,,,,,,,,,,,,,,,,,,,,,,,,,,,,,,,,,,,,,,,,,,,,,,,,,,,,,,,,,,,,,
,,6573451f5972cc7e8ba92049,2024-02-19_03h19.04.368,kallum_motion_pilot,2023.2.2,Win32,60.24096386,6573451f5972cc7e8ba92049,65d2b6c8f2eece985d8e374c,65d2c899c3c6633988ab6d2e,0.0144,0.0144,0,24,24,133,1,seveneight,,,,,,,,,,,,,,,,,,,,,,,,,,,,,,,,,,,,,,,,,,,,,,,,,,,,,,,,,,,,,,,,,,,,,,,,,,,,,,,,,,,,,,,,,,,,,,,,,,,,,,,,,,,,,,,,,,,,,,,,,,,,,,,,,,,,,,,,,
,,6573451f5972cc7e8ba92049,2024-02-19_03h19.04.368,kallum_motion_pilot,2023.2.2,Win32,60.24096386,6573451f5972cc7e8ba92049,65d2b6c8f2eece985d8e374c,65d2c899c3c6633988ab6d2e,0.0144,0.0144,0,25,25,11,1,twofour,,,,,,,,,,,,,,,,,,,,,,,,,,,,,,,,,,,,,,,,,,,,,,,,,,,,,,,,,,,,,,,,,,,,,,,,,,,,,,,,,,,,,,,,,,,,,,,,,,,,,,,,,,,,,,,,,,,,,,,,,,,,,,,,,,,,,,,,,
,,6573451f5972cc7e8ba92049,2024-02-19_03h19.04.368,kallum_motion_pilot,2023.2.2,Win32,60.24096386,6573451f5972cc7e8ba92049,65d2b6c8f2eece985d8e374c,65d2c899c3c6633988ab6d2e,0.0144,0.0144,0,26,26,10,1,twoone,,,,,,,,,,,,,,,,,,,,,,,,,,,,,,,,,,,,,,,,,,,,,,,,,,,,,,,,,,,,,,,,,,,,,,,,,,,,,,,,,,,,,,,,,,,,,,,,,,,,,,,,,,,,,,,,,,,,,,,,,,,,,,,,,,,,,,,,,
,,6573451f5972cc7e8ba92049,2024-02-19_03h19.04.368,kallum_motion_pilot,2023.2.2,Win32,60.24096386,6573451f5972cc7e8ba92049,65d2b6c8f2eece985d8e374c,65d2c899c3c6633988ab6d2e,0.0145,0.0145,0,27,27,84,1,sevenfive,,,,,,,,,,,,,,,,,,,,,,,,,,,,,,,,,,,,,,,,,,,,,,,,,,,,,,,,,,,,,,,,,,,,,,,,,,,,,,,,,,,,,,,,,,,,,,,,,,,,,,,,,,,,,,,,,,,,,,,,,,,,,,,,,,,,,,,,,
,,6573451f5972cc7e8ba92049,2024-02-19_03h19.04.368,kallum_motion_pilot,2023.2.2,Win32,60.24096386,6573451f5972cc7e8ba92049,65d2b6c8f2eece985d8e374c,65d2c899c3c6633988ab6d2e,0.0146,0.0146,0,28,28,50,1,twoone,,,,,,,,,,,,,,,,,,,,,,,,,,,,,,,,,,,,,,,,,,,,,,,,,,,,,,,,,,,,,,,,,,,,,,,,,,,,,,,,,,,,,,,,,,,,,,,,,,,,,,,,,,,,,,,,,,,,,,,,,,,,,,,,,,,,,,,,,
,,6573451f5972cc7e8ba92049,2024-02-19_03h19.04.368,kallum_motion_pilot,2023.2.2,Win32,60.24096386,6573451f5972cc7e8ba92049,65d2b6c8f2eece985d8e374c,65d2c899c3c6633988ab6d2e,0.0146,0.0146,0,29,29,89,1,fiveseven,,,,,,,,,,,,,,,,,,,,,,,,,,,,,,,,,,,,,,,,,,,,,,,,,,,,,,,,,,,,,,,,,,,,,,,,,,,,,,,,,,,,,,,,,,,,,,,,,,,,,,,,,,,,,,,,,,,,,,,,,,,,,,,,,,,,,,,,,
,,6573451f5972cc7e8ba92049,2024-02-19_03h19.04.368,kallum_motion_pilot,2023.2.2,Win32,60.24096386,6573451f5972cc7e8ba92049,65d2b6c8f2eece985d8e374c,65d2c899c3c6633988ab6d2e,0.0146,0.0147,0,30,30,2,1,twoone,,,,,,,,,,,,,,,,,,,,,,,,,,,,,,,,,,,,,,,,,,,,,,,,,,,,,,,,,,,,,,,,,,,,,,,,,,,,,,,,,,,,,,,,,,,,,,,,,,,,,,,,,,,,,,,,,,,,,,,,,,,,,,,,,,,,,,,,,
,,6573451f5972cc7e8ba92049,2024-02-19_03h19.04.368,kallum_motion_pilot,2023.2.2,Win32,60.24096386,6573451f5972cc7e8ba92049,65d2b6c8f2eece985d8e374c,65d2c899c3c6633988ab6d2e,0.0147,0.0147,0,31,31,31,1,fourthree,,,,,,,,,,,,,,,,,,,,,,,,,,,,,,,,,,,,,,,,,,,,,,,,,,,,,,,,,,,,,,,,,,,,,,,,,,,,,,,,,,,,,,,,,,,,,,,,,,,,,,,,,,,,,,,,,,,,,,,,,,,,,,,,,,,,,,,,,
,,6573451f5972cc7e8ba92049,2024-02-19_03h19.04.368,kallum_motion_pilot,2023.2.2,Win32,60.24096386,6573451f5972cc7e8ba92049,65d2b6c8f2eece985d8e374c,65d2c899c3c6633988ab6d2e,0.0147,0.0148,0,32,32,63,1,fourthree,,,,,,,,,,,,,,,,,,,,,,,,,,,,,,,,,,,,,,,,,,,,,,,,,,,,,,,,,,,,,,,,,,,,,,,,,,,,,,,,,,,,,,,,,,,,,,,,,,,,,,,,,,,,,,,,,,,,,,,,,,,,,,,,,,,,,,,,,
,,6573451f5972cc7e8ba92049,2024-02-19_03h19.04.368,kallum_motion_pilot,2023.2.2,Win32,60.24096386,6573451f5972cc7e8ba92049,65d2b6c8f2eece985d8e374c,65d2c899c3c6633988ab6d2e,0.0149,0.0149,0,33,33,153,1,fiveseven,,,,,,,,,,,,,,,,,,,,,,,,,,,,,,,,,,,,,,,,,,,,,,,,,,,,,,,,,,,,,,,,,,,,,,,,,,,,,,,,,,,,,,,,,,,,,,,,,,,,,,,,,,,,,,,,,,,,,,,,,,,,,,,,,,,,,,,,,
,,6573451f5972cc7e8ba92049,2024-02-19_03h19.04.368,kallum_motion_pilot,2023.2.2,Win32,60.24096386,6573451f5972cc7e8ba92049,65d2b6c8f2eece985d8e374c,65d2c899c3c6633988ab6d2e,0.0149,0.0149,0,34,34,99,1,sixeight,,,,,,,,,,,,,,,,,,,,,,,,,,,,,,,,,,,,,,,,,,,,,,,,,,,,,,,,,,,,,,,,,,,,,,,,,,,,,,,,,,,,,,,,,,,,,,,,,,,,,,,,,,,,,,,,,,,,,,,,,,,,,,,,,,,,,,,,,
,,6573451f5972cc7e8ba92049,2024-02-19_03h19.04.368,kallum_motion_pilot,2023.2.2,Win32,60.24096386,6573451f5972cc7e8ba92049,65d2b6c8f2eece985d8e374c,65d2c899c3c6633988ab6d2e,0.0149,0.0149,0,35,35,105,1,fiveseven,,,,,,,,,,,,,,,,,,,,,,,,,,,,,,,,,,,,,,,,,,,,,,,,,,,,,,,,,,,,,,,,,,,,,,,,,,,,,,,,,,,,,,,,,,,,,,,,,,,,,,,,,,,,,,,,,,,,,,,,,,,,,,,,,,,,,,,,,
,,6573451f5972cc7e8ba92049,2024-02-19_03h19.04.368,kallum_motion_pilot,2023.2.2,Win32,60.24096386,6573451f5972cc7e8ba92049,65d2b6c8f2eece985d8e374c,65d2c899c3c6633988ab6d2e,0.0149,0.015,0,36,36,39,1,fourthree,,,,,,,,,,,,,,,,,,,,,,,,,,,,,,,,,,,,,,,,,,,,,,,,,,,,,,,,,,,,,,,,,,,,,,,,,,,,,,,,,,,,,,,,,,,,,,,,,,,,,,,,,,,,,,,,,,,,,,,,,,,,,,,,,,,,,,,,,
,,6573451f5972cc7e8ba92049,2024-02-19_03h19.04.368,kallum_motion_pilot,2023.2.2,Win32,60.24096386,6573451f5972cc7e8ba92049,65d2b6c8f2eece985d8e374c,65d2c899c3c6633988ab6d2e,0.0151,0.0151,0,37,37,83,1,sixeight,,,,,,,,,,,,,,,,,,,,,,,,,,,,,,,,,,,,,,,,,,,,,,,,,,,,,,,,,,,,,,,,,,,,,,,,,,,,,,,,,,,,,,,,,,,,,,,,,,,,,,,,,,,,,,,,,,,,,,,,,,,,,,,,,,,,,,,,,
,,6573451f5972cc7e8ba92049,2024-02-19_03h19.04.368,kallum_motion_pilot,2023.2.2,Win32,60.24096386,6573451f5972cc7e8ba92049,65d2b6c8f2eece985d8e374c,65d2c899c3c6633988ab6d2e,0.0151,0.0151,0,38,38,78,1,fourtwo,,,,,,,,,,,,,,,,,,,,,,,,,,,,,,,,,,,,,,,,,,,,,,,,,,,,,,,,,,,,,,,,,,,,,,,,,,,,,,,,,,,,,,,,,,,,,,,,,,,,,,,,,,,,,,,,,,,,,,,,,,,,,,,,,,,,,,,,,
,,6573451f5972cc7e8ba92049,2024-02-19_03h19.04.368,kallum_motion_pilot,2023.2.2,Win32,60.24096386,6573451f5972cc7e8ba92049,65d2b6c8f2eece985d8e374c,65d2c899c3c6633988ab6d2e,0.0151,0.0151,0,39,39,81,1,fiveseven,,,,,,,,,,,,,,,,,,,,,,,,,,,,,,,,,,,,,,,,,,,,,,,,,,,,,,,,,,,,,,,,,,,,,,,,,,,,,,,,,,,,,,,,,,,,,,,,,,,,,,,,,,,,,,,,,,,,,,,,,,,,,,,,,,,,,,,,,
,,6573451f5972cc7e8ba92049,2024-02-19_03h19.04.368,kallum_motion_pilot,2023.2.2,Win32,60.24096386,6573451f5972cc7e8ba92049,65d2b6c8f2eece985d8e374c,65d2c899c3c6633988ab6d2e,0.0152,0.0152,0,40,40,138,1,sixfive,,,,,,,,,,,,,,,,,,,,,,,,,,,,,,,,,,,,,,,,,,,,,,,,,,,,,,,,,,,,,,,,,,,,,,,,,,,,,,,,,,,,,,,,,,,,,,,,,,,,,,,,,,,,,,,,,,,,,,,,,,,,,,,,,,,,,,,,,
,,6573451f5972cc7e8ba92049,2024-02-19_03h19.04.368,kallum_motion_pilot,2023.2.2,Win32,60.24096386,6573451f5972cc7e8ba92049,65d2b6c8f2eece985d8e374c,65d2c899c3c6633988ab6d2e,0.0152,0.0152,0,41,41,52,1,threeone,,,,,,,,,,,,,,,,,,,,,,,,,,,,,,,,,,,,,,,,,,,,,,,,,,,,,,,,,,,,,,,,,,,,,,,,,,,,,,,,,,,,,,,,,,,,,,,,,,,,,,,,,,,,,,,,,,,,,,,,,,,,,,,,,,,,,,,,,
,,6573451f5972cc7e8ba92049,2024-02-19_03h19.04.368,kallum_motion_pilot,2023.2.2,Win32,60.24096386,6573451f5972cc7e8ba92049,65d2b6c8f2eece985d8e374c,65d2c899c3c6633988ab6d2e,0.0153,0.0153,0,42,42,139,1,sixeight,,,,,,,,,,,,,,,,,,,,,,,,,,,,,,,,,,,,,,,,,,,,,,,,,,,,,,,,,,,,,,,,,,,,,,,,,,,,,,,,,,,,,,,,,,,,,,,,,,,,,,,,,,,,,,,,,,,,,,,,,,,,,,,,,,,,,,,,,
,,6573451f5972cc7e8ba92049,2024-02-19_03h19.04.368,kallum_motion_pilot,2023.2.2,Win32,60.24096386,6573451f5972cc7e8ba92049,65d2b6c8f2eece985d8e374c,65d2c899c3c6633988ab6d2e,0.0154,0.0154,0,43,43,19,1,twofour,,,,,,,,,,,,,,,,,,,,,,,,,,,,,,,,,,,,,,,,,,,,,,,,,,,,,,,,,,,,,,,,,,,,,,,,,,,,,,,,,,,,,,,,,,,,,,,,,,,,,,,,,,,,,,,,,,,,,,,,,,,,,,,,,,,,,,,,,
,,6573451f5972cc7e8ba92049,2024-02-19_03h19.04.368,kallum_motion_pilot,2023.2.2,Win32,60.24096386,6573451f5972cc7e8ba92049,65d2b6c8f2eece985d8e374c,65d2c899c3c6633988ab6d2e,0.0154,0.0154,0,44,44,38,1,fourtwo,,,,,,,,,,,,,,,,,,,,,,,,,,,,,,,,,,,,,,,,,,,,,,,,,,,,,,,,,,,,,,,,,,,,,,,,,,,,,,,,,,,,,,,,,,,,,,,,,,,,,,,,,,,,,,,,,,,,,,,,,,,,,,,,,,,,,,,,,
,,6573451f5972cc7e8ba92049,2024-02-19_03h19.04.368,kallum_motion_pilot,2023.2.2,Win32,60.24096386,6573451f5972cc7e8ba92049,65d2b6c8f2eece985d8e374c,65d2c899c3c6633988ab6d2e,0.0154,0.0154,0,45,45,129,1,fiveseven,,,,,,,,,,,,,,,,,,,,,,,,,,,,,,,,,,,,,,,,,,,,,,,,,,,,,,,,,,,,,,,,,,,,,,,,,,,,,,,,,,,,,,,,,,,,,,,,,,,,,,,,,,,,,,,,,,,,,,,,,,,,,,,,,,,,,,,,,
,,6573451f5972cc7e8ba92049,2024-02-19_03h19.04.368,kallum_motion_pilot,2023.2.2,Win32,60.24096386,6573451f5972cc7e8ba92049,65d2b6c8f2eece985d8e374c,65d2c899c3c6633988ab6d2e,0.0155,0.0155,0,46,46,71,1,fourthree,,,,,,,,,,,,,,,,,,,,,,,,,,,,,,,,,,,,,,,,,,,,,,,,,,,,,,,,,,,,,,,,,,,,,,,,,,,,,,,,,,,,,,,,,,,,,,,,,,,,,,,,,,,,,,,,,,,,,,,,,,,,,,,,,,,,,,,,,
,,6573451f5972cc7e8ba92049,2024-02-19_03h19.04.368,kallum_motion_pilot,2023.2.2,Win32,60.24096386,6573451f5972cc7e8ba92049,65d2b6c8f2eece985d8e374c,65d2c899c3c6633988ab6d2e,0.0155,0.0155,0,47,47,100,1,sevenfive,,,,,,,,,,,,,,,,,,,,,,,,,,,,,,,,,,,,,,,,,,,,,,,,,,,,,,,,,,,,,,,,,,,,,,,,,,,,,,,,,,,,,,,,,,,,,,,,,,,,,,,,,,,,,,,,,,,,,,,,,,,,,,,,,,,,,,,,,
,,6573451f5972cc7e8ba92049,2024-02-19_03h19.04.368,kallum_motion_pilot,2023.2.2,Win32,60.24096386,6573451f5972cc7e8ba92049,65d2b6c8f2eece985d8e374c,65d2c899c3c6633988ab6d2e,0.0156,0.0156,0,48,48,27,1,twofour,,,,,,,,,,,,,,,,,,,,,,,,,,,,,,,,,,,,,,,,,,,,,,,,,,,,,,,,,,,,,,,,,,,,,,,,,,,,,,,,,,,,,,,,,,,,,,,,,,,,,,,,,,,,,,,,,,,,,,,,,,,,,,,,,,,,,,,,,
,,6573451f5972cc7e8ba92049,2024-02-19_03h19.04.368,kallum_motion_pilot,2023.2.2,Win32,60.24096386,6573451f5972cc7e8ba92049,65d2b6c8f2eece985d8e374c,65d2c899c3c6633988ab6d2e,0.0157,0.0157,0,49,49,66,1,twoone,,,,,,,,,,,,,,,,,,,,,,,,,,,,,,,,,,,,,,,,,,,,,,,,,,,,,,,,,,,,,,,,,,,,,,,,,,,,,,,,,,,,,,,,,,,,,,,,,,,,,,,,,,,,,,,,,,,,,,,,,,,,,,,,,,,,,,,,,
,,6573451f5972cc7e8ba92049,2024-02-19_03h19.04.368,kallum_motion_pilot,2023.2.2,Win32,60.24096386,6573451f5972cc7e8ba92049,65d2b6c8f2eece985d8e374c,65d2c899c3c6633988ab6d2e,0.0157,0.0158,0,50,50,62,1,fourtwo,,,,,,,,,,,,,,,,,,,,,,,,,,,,,,,,,,,,,,,,,,,,,,,,,,,,,,,,,,,,,,,,,,,,,,,,,,,,,,,,,,,,,,,,,,,,,,,,,,,,,,,,,,,,,,,,,,,,,,,,,,,,,,,,,,,,,,,,,
,,6573451f5972cc7e8ba92049,2024-02-19_03h19.04.368,kallum_motion_pilot,2023.2.2,Win32,60.24096386,6573451f5972cc7e8ba92049,65d2b6c8f2eece985d8e374c,65d2c899c3c6633988ab6d2e,0.0158,0.0158,0,51,51,122,1,sixfive,,,,,,,,,,,,,,,,,,,,,,,,,,,,,,,,,,,,,,,,,,,,,,,,,,,,,,,,,,,,,,,,,,,,,,,,,,,,,,,,,,,,,,,,,,,,,,,,,,,,,,,,,,,,,,,,,,,,,,,,,,,,,,,,,,,,,,,,,
,,6573451f5972cc7e8ba92049,2024-02-19_03h19.04.368,kallum_motion_pilot,2023.2.2,Win32,60.24096386,6573451f5972cc7e8ba92049,65d2b6c8f2eece985d8e374c,65d2c899c3c6633988ab6d2e,0.0159,0.0159,0,52,52,117,1,seveneight,,,,,,,,,,,,,,,,,,,,,,,,,,,,,,,,,,,,,,,,,,,,,,,,,,,,,,,,,,,,,,,,,,,,,,,,,,,,,,,,,,,,,,,,,,,,,,,,,,,,,,,,,,,,,,,,,,,,,,,,,,,,,,,,,,,,,,,,,
,,6573451f5972cc7e8ba92049,2024-02-19_03h19.04.368,kallum_motion_pilot,2023.2.2,Win32,60.24096386,6573451f5972cc7e8ba92049,65d2b6c8f2eece985d8e374c,65d2c899c3c6633988ab6d2e,0.0159,0.0159,0,53,53,70,1,fourtwo,,,,,,,,,,,,,,,,,,,,,,,,,,,,,,,,,,,,,,,,,,,,,,,,,,,,,,,,,,,,,,,,,,,,,,,,,,,,,,,,,,,,,,,,,,,,,,,,,,,,,,,,,,,,,,,,,,,,,,,,,,,,,,,,,,,,,,,,,
,,6573451f5972cc7e8ba92049,2024-02-19_03h19.04.368,kallum_motion_pilot,2023.2.2,Win32,60.24096386,6573451f5972cc7e8ba92049,65d2b6c8f2eece985d8e374c,65d2c899c3c6633988ab6d2e,0.016,0.016,0,54,54,73,1,onethree,,,,,,,,,,,,,,,,,,,,,,,,,,,,,,,,,,,,,,,,,,,,,,,,,,,,,,,,,,,,,,,,,,,,,,,,,,,,,,,,,,,,,,,,,,,,,,,,,,,,,,,,,,,,,,,,,,,,,,,,,,,,,,,,,,,,,,,,,
,,6573451f5972cc7e8ba92049,2024-02-19_03h19.04.368,kallum_motion_pilot,2023.2.2,Win32,60.24096386,6573451f5972cc7e8ba92049,65d2b6c8f2eece985d8e374c,65d2c899c3c6633988ab6d2e,0.0161,0.0161,0,55,55,149,1,seveneight,,,,,,,,,,,,,,,,,,,,,,,,,,,,,,,,,,,,,,,,,,,,,,,,,,,,,,,,,,,,,,,,,,,,,,,,,,,,,,,,,,,,,,,,,,,,,,,,,,,,,,,,,,,,,,,,,,,,,,,,,,,,,,,,,,,,,,,,,
,,6573451f5972cc7e8ba92049,2024-02-19_03h19.04.368,kallum_motion_pilot,2023.2.2,Win32,60.24096386,6573451f5972cc7e8ba92049,65d2b6c8f2eece985d8e374c,65d2c899c3c6633988ab6d2e,0.0161,0.0161,0,56,56,35,1,twofour,,,,,,,,,,,,,,,,,,,,,,,,,,,,,,,,,,,,,,,,,,,,,,,,,,,,,,,,,,,,,,,,,,,,,,,,,,,,,,,,,,,,,,,,,,,,,,,,,,,,,,,,,,,,,,,,,,,,,,,,,,,,,,,,,,,,,,,,,
,,6573451f5972cc7e8ba92049,2024-02-19_03h19.04.368,kallum_motion_pilot,2023.2.2,Win32,60.24096386,6573451f5972cc7e8ba92049,65d2b6c8f2eece985d8e374c,65d2c899c3c6633988ab6d2e,0.0162,0.0162,0,57,57,135,1,eightseven,,,,,,,,,,,,,,,,,,,,,,,,,,,,,,,,,,,,,,,,,,,,,,,,,,,,,,,,,,,,,,,,,,,,,,,,,,,,,,,,,,,,,,,,,,,,,,,,,,,,,,,,,,,,,,,,,,,,,,,,,,,,,,,,,,,,,,,,,
,,6573451f5972cc7e8ba92049,2024-02-19_03h19.04.368,kallum_motion_pilot,2023.2.2,Win32,60.24096386,6573451f5972cc7e8ba92049,65d2b6c8f2eece985d8e374c,65d2c899c3c6633988ab6d2e,0.0162,0.0162,0,58,58,67,1,twofour,,,,,,,,,,,,,,,,,,,,,,,,,,,,,,,,,,,,,,,,,,,,,,,,,,,,,,,,,,,,,,,,,,,,,,,,,,,,,,,,,,,,,,,,,,,,,,,,,,,,,,,,,,,,,,,,,,,,,,,,,,,,,,,,,,,,,,,,,
,,6573451f5972cc7e8ba92049,2024-02-19_03h19.04.368,kallum_motion_pilot,2023.2.2,Win32,60.24096386,6573451f5972cc7e8ba92049,65d2b6c8f2eece985d8e374c,65d2c899c3c6633988ab6d2e,0.0162,0.0162,0,59,59,76,1,threeone,,,,,,,,,,,,,,,,,,,,,,,,,,,,,,,,,,,,,,,,,,,,,,,,,,,,,,,,,,,,,,,,,,,,,,,,,,,,,,,,,,,,,,,,,,,,,,,,,,,,,,,,,,,,,,,,,,,,,,,,,,,,,,,,,,,,,,,,,
,,6573451f5972cc7e8ba92049,2024-02-19_03h19.04.368,kallum_motion_pilot,2023.2.2,Win32,60.24096386,6573451f5972cc7e8ba92049,65d2b6c8f2eece985d8e374c,65d2c899c3c6633988ab6d2e,0.0163,0.0163,0,60,60,41,1,onethree,,,,,,,,,,,,,,,,,,,,,,,,,,,,,,,,,,,,,,,,,,,,,,,,,,,,,,,,,,,,,,,,,,,,,,,,,,,,,,,,,,,,,,,,,,,,,,,,,,,,,,,,,,,,,,,,,,,,,,,,,,,,,,,,,,,,,,,,,
,,6573451f5972cc7e8ba92049,2024-02-19_03h19.04.368,kallum_motion_pilot,2023.2.2,Win32,60.24096386,6573451f5972cc7e8ba92049,65d2b6c8f2eece985d8e374c,65d2c899c3c6633988ab6d2e,0.0163,0.0164,0,61,61,5,1,threefour,,,,,,,,,,,,,,,,,,,,,,,,,,,,,,,,,,,,,,,,,,,,,,,,,,,,,,,,,,,,,,,,,,,,,,,,,,,,,,,,,,,,,,,,,,,,,,,,,,,,,,,,,,,,,,,,,,,,,,,,,,,,,,,,,,,,,,,,,
,,6573451f5972cc7e8ba92049,2024-02-19_03h19.04.368,kallum_motion_pilot,2023.2.2,Win32,60.24096386,6573451f5972cc7e8ba92049,65d2b6c8f2eece985d8e374c,65d2c899c3c6633988ab6d2e,0.0164,0.0164,0,62,62,131,1,sixeight,,,,,,,,,,,,,,,,,,,,,,,,,,,,,,,,,,,,,,,,,,,,,,,,,,,,,,,,,,,,,,,,,,,,,,,,,,,,,,,,,,,,,,,,,,,,,,,,,,,,,,,,,,,,,,,,,,,,,,,,,,,,,,,,,,,,,,,,,
,,6573451f5972cc7e8ba92049,2024-02-19_03h19.04.368,kallum_motion_pilot,2023.2.2,Win32,60.24096386,6573451f5972cc7e8ba92049,65d2b6c8f2eece985d8e374c,65d2c899c3c6633988ab6d2e,0.0164,0.0164,0,63,63,102,1,eightsix,,,,,,,,,,,,,,,,,,,,,,,,,,,,,,,,,,,,,,,,,,,,,,,,,,,,,,,,,,,,,,,,,,,,,,,,,,,,,,,,,,,,,,,,,,,,,,,,,,,,,,,,,,,,,,,,,,,,,,,,,,,,,,,,,,,,,,,,,
,,6573451f5972cc7e8ba92049,2024-02-19_03h19.04.368,kallum_motion_pilot,2023.2.2,Win32,60.24096386,6573451f5972cc7e8ba92049,65d2b6c8f2eece985d8e374c,65d2c899c3c6633988ab6d2e,0.0165,0.0166,0,64,64,109,1,seveneight,,,,,,,,,,,,,,,,,,,,,,,,,,,,,,,,,,,,,,,,,,,,,,,,,,,,,,,,,,,,,,,,,,,,,,,,,,,,,,,,,,,,,,,,,,,,,,,,,,,,,,,,,,,,,,,,,,,,,,,,,,,,,,,,,,,,,,,,,
,,6573451f5972cc7e8ba92049,2024-02-19_03h19.04.368,kallum_motion_pilot,2023.2.2,Win32,60.24096386,6573451f5972cc7e8ba92049,65d2b6c8f2eece985d8e374c,65d2c899c3c6633988ab6d2e,0.0166,0.0167,0,65,65,24,1,onetwo,,,,,,,,,,,,,,,,,,,,,,,,,,,,,,,,,,,,,,,,,,,,,,,,,,,,,,,,,,,,,,,,,,,,,,,,,,,,,,,,,,,,,,,,,,,,,,,,,,,,,,,,,,,,,,,,,,,,,,,,,,,,,,,,,,,,,,,,,
,,6573451f5972cc7e8ba92049,2024-02-19_03h19.04.368,kallum_motion_pilot,2023.2.2,Win32,60.24096386,6573451f5972cc7e8ba92049,65d2b6c8f2eece985d8e374c,65d2c899c3c6633988ab6d2e,0.0167,0.0167,0,66,66,161,1,fiveseven,,,,,,,,,,,,,,,,,,,,,,,,,,,,,,,,,,,,,,,,,,,,,,,,,,,,,,,,,,,,,,,,,,,,,,,,,,,,,,,,,,,,,,,,,,,,,,,,,,,,,,,,,,,,,,,,,,,,,,,,,,,,,,,,,,,,,,,,,
,,6573451f5972cc7e8ba92049,2024-02-19_03h19.04.368,kallum_motion_pilot,2023.2.2,Win32,60.24096386,6573451f5972cc7e8ba92049,65d2b6c8f2eece985d8e374c,65d2c899c3c6633988ab6d2e,0.0167,0.0168,0,67,67,7,1,fourthree,,,,,,,,,,,,,,,,,,,,,,,,,,,,,,,,,,,,,,,,,,,,,,,,,,,,,,,,,,,,,,,,,,,,,,,,,,,,,,,,,,,,,,,,,,,,,,,,,,,,,,,,,,,,,,,,,,,,,,,,,,,,,,,,,,,,,,,,,
,,6573451f5972cc7e8ba92049,2024-02-19_03h19.04.368,kallum_motion_pilot,2023.2.2,Win32,60.24096386,6573451f5972cc7e8ba92049,65d2b6c8f2eece985d8e374c,65d2c899c3c6633988ab6d2e,0.0168,0.0168,0,68,68,119,1,eightseven,,,,,,,,,,,,,,,,,,,,,,,,,,,,,,,,,,,,,,,,,,,,,,,,,,,,,,,,,,,,,,,,,,,,,,,,,,,,,,,,,,,,,,,,,,,,,,,,,,,,,,,,,,,,,,,,,,,,,,,,,,,,,,,,,,,,,,,,,
,,6573451f5972cc7e8ba92049,2024-02-19_03h19.04.368,kallum_motion_pilot,2023.2.2,Win32,60.24096386,6573451f5972cc7e8ba92049,65d2b6c8f2eece985d8e374c,65d2c899c3c6633988ab6d2e,0.0168,0.0168,0,69,69,140,1,sevenfive,,,,,,,,,,,,,,,,,,,,,,,,,,,,,,,,,,,,,,,,,,,,,,,,,,,,,,,,,,,,,,,,,,,,,,,,,,,,,,,,,,,,,,,,,,,,,,,,,,,,,,,,,,,,,,,,,,,,,,,,,,,,,,,,,,,,,,,,,
,,6573451f5972cc7e8ba92049,2024-02-19_03h19.04.368,kallum_motion_pilot,2023.2.2,Win32,60.24096386,6573451f5972cc7e8ba92049,65d2b6c8f2eece985d8e374c,65d2c899c3c6633988ab6d2e,0.0169,0.0169,0,70,70,28,1,threeone,,,,,,,,,,,,,,,,,,,,,,,,,,,,,,,,,,,,,,,,,,,,,,,,,,,,,,,,,,,,,,,,,,,,,,,,,,,,,,,,,,,,,,,,,,,,,,,,,,,,,,,,,,,,,,,,,,,,,,,,,,,,,,,,,,,,,,,,,
,,6573451f5972cc7e8ba92049,2024-02-19_03h19.04.368,kallum_motion_pilot,2023.2.2,Win32,60.24096386,6573451f5972cc7e8ba92049,65d2b6c8f2eece985d8e374c,65d2c899c3c6633988ab6d2e,0.0169,0.0169,0,71,71,151,1,eightseven,,,,,,,,,,,,,,,,,,,,,,,,,,,,,,,,,,,,,,,,,,,,,,,,,,,,,,,,,,,,,,,,,,,,,,,,,,,,,,,,,,,,,,,,,,,,,,,,,,,,,,,,,,,,,,,,,,,,,,,,,,,,,,,,,,,,,,,,,
,,6573451f5972cc7e8ba92049,2024-02-19_03h19.04.368,kallum_motion_pilot,2023.2.2,Win32,60.24096386,6573451f5972cc7e8ba92049,65d2b6c8f2eece985d8e374c,65d2c899c3c6633988ab6d2e,0.0171,0.0171,0,72,72,82,1,sixfive,,,,,,,,,,,,,,,,,,,,,,,,,,,,,,,,,,,,,,,,,,,,,,,,,,,,,,,,,,,,,,,,,,,,,,,,,,,,,,,,,,,,,,,,,,,,,,,,,,,,,,,,,,,,,,,,,,,,,,,,,,,,,,,,,,,,,,,,,
,,6573451f5972cc7e8ba92049,2024-02-19_03h19.04.368,kallum_motion_pilot,2023.2.2,Win32,60.24096386,6573451f5972cc7e8ba92049,65d2b6c8f2eece985d8e374c,65d2c899c3c6633988ab6d2e,0.0171,0.0171,0,73,73,160,1,fivesix,,,,,,,,,,,,,,,,,,,,,,,,,,,,,,,,,,,,,,,,,,,,,,,,,,,,,,,,,,,,,,,,,,,,,,,,,,,,,,,,,,,,,,,,,,,,,,,,,,,,,,,,,,,,,,,,,,,,,,,,,,,,,,,,,,,,,,,,,
,,6573451f5972cc7e8ba92049,2024-02-19_03h19.04.368,kallum_motion_pilot,2023.2.2,Win32,60.24096386,6573451f5972cc7e8ba92049,65d2b6c8f2eece985d8e374c,65d2c899c3c6633988ab6d2e,0.0172,0.0172,0,74,74,32,1,onetwo,,,,,,,,,,,,,,,,,,,,,,,,,,,,,,,,,,,,,,,,,,,,,,,,,,,,,,,,,,,,,,,,,,,,,,,,,,,,,,,,,,,,,,,,,,,,,,,,,,,,,,,,,,,,,,,,,,,,,,,,,,,,,,,,,,,,,,,,,
,,6573451f5972cc7e8ba92049,2024-02-19_03h19.04.368,kallum_motion_pilot,2023.2.2,Win32,60.24096386,6573451f5972cc7e8ba92049,65d2b6c8f2eece985d8e374c,65d2c899c3c6633988ab6d2e,0.0172,0.0172,0,75,75,134,1,eightsix,,,,,,,,,,,,,,,,,,,,,,,,,,,,,,,,,,,,,,,,,,,,,,,,,,,,,,,,,,,,,,,,,,,,,,,,,,,,,,,,,,,,,,,,,,,,,,,,,,,,,,,,,,,,,,,,,,,,,,,,,,,,,,,,,,,,,,,,,
,,6573451f5972cc7e8ba92049,2024-02-19_03h19.04.368,kallum_motion_pilot,2023.2.2,Win32,60.24096386,6573451f5972cc7e8ba92049,65d2b6c8f2eece985d8e374c,65d2c899c3c6633988ab6d2e,0.0173,0.0173,0,76,76,98,1,sixfive,,,,,,,,,,,,,,,,,,,,,,,,,,,,,,,,,,,,,,,,,,,,,,,,,,,,,,,,,,,,,,,,,,,,,,,,,,,,,,,,,,,,,,,,,,,,,,,,,,,,,,,,,,,,,,,,,,,,,,,,,,,,,,,,,,,,,,,,,
,,6573451f5972cc7e8ba92049,2024-02-19_03h19.04.368,kallum_motion_pilot,2023.2.2,Win32,60.24096386,6573451f5972cc7e8ba92049,65d2b6c8f2eece985d8e374c,65d2c899c3c6633988ab6d2e,0.0173,0.0173,0,77,77,4,1,threeone,,,,,,,,,,,,,,,,,,,,,,,,,,,,,,,,,,,,,,,,,,,,,,,,,,,,,,,,,,,,,,,,,,,,,,,,,,,,,,,,,,,,,,,,,,,,,,,,,,,,,,,,,,,,,,,,,,,,,,,,,,,,,,,,,,,,,,,,,
,,6573451f5972cc7e8ba92049,2024-02-19_03h19.04.368,kallum_motion_pilot,2023.2.2,Win32,60.24096386,6573451f5972cc7e8ba92049,65d2b6c8f2eece985d8e374c,65d2c899c3c6633988ab6d2e,0.0174,0.0174,0,78,78,106,1,sixfive,,,,,,,,,,,,,,,,,,,,,,,,,,,,,,,,,,,,,,,,,,,,,,,,,,,,,,,,,,,,,,,,,,,,,,,,,,,,,,,,,,,,,,,,,,,,,,,,,,,,,,,,,,,,,,,,,,,,,,,,,,,,,,,,,,,,,,,,,
,,6573451f5972cc7e8ba92049,2024-02-19_03h19.04.368,kallum_motion_pilot,2023.2.2,Win32,60.24096386,6573451f5972cc7e8ba92049,65d2b6c8f2eece985d8e374c,65d2c899c3c6633988ab6d2e,0.0174,0.0175,0,79,79,56,1,onetwo,,,,,,,,,,,,,,,,,,,,,,,,,,,,,,,,,,,,,,,,,,,,,,,,,,,,,,,,,,,,,,,,,,,,,,,,,,,,,,,,,,,,,,,,,,,,,,,,,,,,,,,,,,,,,,,,,,,,,,,,,,,,,,,,,,,,,,,,,
,,6573451f5972cc7e8ba92049,2024-02-19_03h19.04.368,kallum_motion_pilot,2023.2.2,Win32,60.24096386,6573451f5972cc7e8ba92049,65d2b6c8f2eece985d8e374c,65d2c899c3c6633988ab6d2e,0.0175,0.0175,0,80,80,132,1,sevenfive,,,,,,,,,,,,,,,,,,,,,,,,,,,,,,,,,,,,,,,,,,,,,,,,,,,,,,,,,,,,,,,,,,,,,,,,,,,,,,,,,,,,,,,,,,,,,,,,,,,,,,,,,,,,,,,,,,,,,,,,,,,,,,,,,,,,,,,,,
,,6573451f5972cc7e8ba92049,2024-02-19_03h19.04.368,kallum_motion_pilot,2023.2.2,Win32,60.24096386,6573451f5972cc7e8ba92049,65d2b6c8f2eece985d8e374c,65d2c899c3c6633988ab6d2e,0.0175,0.0176,0,81,81,107,1,sixeight,,,,,,,,,,,,,,,,,,,,,,,,,,,,,,,,,,,,,,,,,,,,,,,,,,,,,,,,,,,,,,,,,,,,,,,,,,,,,,,,,,,,,,,,,,,,,,,,,,,,,,,,,,,,,,,,,,,,,,,,,,,,,,,,,,,,,,,,,
,,6573451f5972cc7e8ba92049,2024-02-19_03h19.04.368,kallum_motion_pilot,2023.2.2,Win32,60.24096386,6573451f5972cc7e8ba92049,65d2b6c8f2eece985d8e374c,65d2c899c3c6633988ab6d2e,0.0176,0.0177,0,82,82,25,1,onethree,,,,,,,,,,,,,,,,,,,,,,,,,,,,,,,,,,,,,,,,,,,,,,,,,,,,,,,,,,,,,,,,,,,,,,,,,,,,,,,,,,,,,,,,,,,,,,,,,,,,,,,,,,,,,,,,,,,,,,,,,,,,,,,,,,,,,,,,,
,,6573451f5972cc7e8ba92049,2024-02-19_03h19.04.368,kallum_motion_pilot,2023.2.2,Win32,60.24096386,6573451f5972cc7e8ba92049,65d2b6c8f2eece985d8e374c,65d2c899c3c6633988ab6d2e,0.0177,0.0177,0,83,83,143,1,eightseven,,,,,,,,,,,,,,,,,,,,,,,,,,,,,,,,,,,,,,,,,,,,,,,,,,,,,,,,,,,,,,,,,,,,,,,,,,,,,,,,,,,,,,,,,,,,,,,,,,,,,,,,,,,,,,,,,,,,,,,,,,,,,,,,,,,,,,,,,
,,6573451f5972cc7e8ba92049,2024-02-19_03h19.04.368,kallum_motion_pilot,2023.2.2,Win32,60.24096386,6573451f5972cc7e8ba92049,65d2b6c8f2eece985d8e374c,65d2c899c3c6633988ab6d2e,0.0177,0.0177,0,84,84,23,1,fourthree,,,,,,,,,,,,,,,,,,,,,,,,,,,,,,,,,,,,,,,,,,,,,,,,,,,,,,,,,,,,,,,,,,,,,,,,,,,,,,,,,,,,,,,,,,,,,,,,,,,,,,,,,,,,,,,,,,,,,,,,,,,,,,,,,,,,,,,,,
,,6573451f5972cc7e8ba92049,2024-02-19_03h19.04.368,kallum_motion_pilot,2023.2.2,Win32,60.24096386,6573451f5972cc7e8ba92049,65d2b6c8f2eece985d8e374c,65d2c899c3c6633988ab6d2e,0.0178,0.0179,0,85,85,34,1,twoone,,,,,,,,,,,,,,,,,,,,,,,,,,,,,,,,,,,,,,,,,,,,,,,,,,,,,,,,,,,,,,,,,,,,,,,,,,,,,,,,,,,,,,,,,,,,,,,,,,,,,,,,,,,,,,,,,,,,,,,,,,,,,,,,,,,,,,,,,
,,6573451f5972cc7e8ba92049,2024-02-19_03h19.04.368,kallum_motion_pilot,2023.2.2,Win32,60.24096386,6573451f5972cc7e8ba92049,65d2b6c8f2eece985d8e374c,65d2c899c3c6633988ab6d2e,0.0179,0.0179,0,86,86,0,1,onetwo,,,,,,,,,,,,,,,,,,,,,,,,,,,,,,,,,,,,,,,,,,,,,,,,,,,,,,,,,,,,,,,,,,,,,,,,,,,,,,,,,,,,,,,,,,,,,,,,,,,,,,,,,,,,,,,,,,,,,,,,,,,,,,,,,,,,,,,,,
,,6573451f5972cc7e8ba92049,2024-02-19_03h19.04.368,kallum_motion_pilot,2023.2.2,Win32,60.24096386,6573451f5972cc7e8ba92049,65d2b6c8f2eece985d8e374c,65d2c899c3c6633988ab6d2e,0.0179,0.0179,0,87,87,65,1,onethree,,,,,,,,,,,,,,,,,,,,,,,,,,,,,,,,,,,,,,,,,,,,,,,,,,,,,,,,,,,,,,,,,,,,,,,,,,,,,,,,,,,,,,,,,,,,,,,,,,,,,,,,,,,,,,,,,,,,,,,,,,,,,,,,,,,,,,,,,
,,6573451f5972cc7e8ba92049,2024-02-19_03h19.04.368,kallum_motion_pilot,2023.2.2,Win32,60.24096386,6573451f5972cc7e8ba92049,65d2b6c8f2eece985d8e374c,65d2c899c3c6633988ab6d2e,0.018,0.0181,0,88,88,6,1,fourtwo,,,,,,,,,,,,,,,,,,,,,,,,,,,,,,,,,,,,,,,,,,,,,,,,,,,,,,,,,,,,,,,,,,,,,,,,,,,,,,,,,,,,,,,,,,,,,,,,,,,,,,,,,,,,,,,,,,,,,,,,,,,,,,,,,,,,,,,,,
,,6573451f5972cc7e8ba92049,2024-02-19_03h19.04.368,kallum_motion_pilot,2023.2.2,Win32,60.24096386,6573451f5972cc7e8ba92049,65d2b6c8f2eece985d8e374c,65d2c899c3c6633988ab6d2e,0.0181,0.0181,0,89,89,46,1,fourtwo,,,,,,,,,,,,,,,,,,,,,,,,,,,,,,,,,,,,,,,,,,,,,,,,,,,,,,,,,,,,,,,,,,,,,,,,,,,,,,,,,,,,,,,,,,,,,,,,,,,,,,,,,,,,,,,,,,,,,,,,,,,,,,,,,,,,,,,,,
,,6573451f5972cc7e8ba92049,2024-02-19_03h19.04.368,kallum_motion_pilot,2023.2.2,Win32,60.24096386,6573451f5972cc7e8ba92049,65d2b6c8f2eece985d8e374c,65d2c899c3c6633988ab6d2e,0.0182,0.0182,0,90,90,94,1,eightsix,,,,,,,,,,,,,,,,,,,,,,,,,,,,,,,,,,,,,,,,,,,,,,,,,,,,,,,,,,,,,,,,,,,,,,,,,,,,,,,,,,,,,,,,,,,,,,,,,,,,,,,,,,,,,,,,,,,,,,,,,,,,,,,,,,,,,,,,,
,,6573451f5972cc7e8ba92049,2024-02-19_03h19.04.368,kallum_motion_pilot,2023.2.2,Win32,60.24096386,6573451f5972cc7e8ba92049,65d2b6c8f2eece985d8e374c,65d2c899c3c6633988ab6d2e,0.0182,0.0182,0,91,91,108,1,sevenfive,,,,,,,,,,,,,,,,,,,,,,,,,,,,,,,,,,,,,,,,,,,,,,,,,,,,,,,,,,,,,,,,,,,,,,,,,,,,,,,,,,,,,,,,,,,,,,,,,,,,,,,,,,,,,,,,,,,,,,,,,,,,,,,,,,,,,,,,,
,,6573451f5972cc7e8ba92049,2024-02-19_03h19.04.368,kallum_motion_pilot,2023.2.2,Win32,60.24096386,6573451f5972cc7e8ba92049,65d2b6c8f2eece985d8e374c,65d2c899c3c6633988ab6d2e,0.0183,0.0183,0,92,92,148,1,sevenfive,,,,,,,,,,,,,,,,,,,,,,,,,,,,,,,,,,,,,,,,,,,,,,,,,,,,,,,,,,,,,,,,,,,,,,,,,,,,,,,,,,,,,,,,,,,,,,,,,,,,,,,,,,,,,,,,,,,,,,,,,,,,,,,,,,,,,,,,,
,,6573451f5972cc7e8ba92049,2024-02-19_03h19.04.368,kallum_motion_pilot,2023.2.2,Win32,60.24096386,6573451f5972cc7e8ba92049,65d2b6c8f2eece985d8e374c,65d2c899c3c6633988ab6d2e,0.0183,0.0183,0,93,93,155,1,sixeight,,,,,,,,,,,,,,,,,,,,,,,,,,,,,,,,,,,,,,,,,,,,,,,,,,,,,,,,,,,,,,,,,,,,,,,,,,,,,,,,,,,,,,,,,,,,,,,,,,,,,,,,,,,,,,,,,,,,,,,,,,,,,,,,,,,,,,,,,
,,6573451f5972cc7e8ba92049,2024-02-19_03h19.04.368,kallum_motion_pilot,2023.2.2,Win32,60.24096386,6573451f5972cc7e8ba92049,65d2b6c8f2eece985d8e374c,65d2c899c3c6633988ab6d2e,0.0184,0.0184,0,94,94,97,1,fiveseven,,,,,,,,,,,,,,,,,,,,,,,,,,,,,,,,,,,,,,,,,,,,,,,,,,,,,,,,,,,,,,,,,,,,,,,,,,,,,,,,,,,,,,,,,,,,,,,,,,,,,,,,,,,,,,,,,,,,,,,,,,,,,,,,,,,,,,,,,
,,6573451f5972cc7e8ba92049,2024-02-19_03h19.04.368,kallum_motion_pilot,2023.2.2,Win32,60.24096386,6573451f5972cc7e8ba92049,65d2b6c8f2eece985d8e374c,65d2c899c3c6633988ab6d2e,0.0184,0.0184,0,95,95,90,1,sixfive,,,,,,,,,,,,,,,,,,,,,,,,,,,,,,,,,,,,,,,,,,,,,,,,,,,,,,,,,,,,,,,,,,,,,,,,,,,,,,,,,,,,,,,,,,,,,,,,,,,,,,,,,,,,,,,,,,,,,,,,,,,,,,,,,,,,,,,,,
,,6573451f5972cc7e8ba92049,2024-02-19_03h19.04.368,kallum_motion_pilot,2023.2.2,Win32,60.24096386,6573451f5972cc7e8ba92049,65d2b6c8f2eece985d8e374c,65d2c899c3c6633988ab6d2e,0.0185,0.0185,0,96,96,156,1,sevenfive,,,,,,,,,,,,,,,,,,,,,,,,,,,,,,,,,,,,,,,,,,,,,,,,,,,,,,,,,,,,,,,,,,,,,,,,,,,,,,,,,,,,,,,,,,,,,,,,,,,,,,,,,,,,,,,,,,,,,,,,,,,,,,,,,,,,,,,,,
,,6573451f5972cc7e8ba92049,2024-02-19_03h19.04.368,kallum_motion_pilot,2023.2.2,Win32,60.24096386,6573451f5972cc7e8ba92049,65d2b6c8f2eece985d8e374c,65d2c899c3c6633988ab6d2e,0.0185,0.0186,0,97,97,136,1,fivesix,,,,,,,,,,,,,,,,,,,,,,,,,,,,,,,,,,,,,,,,,,,,,,,,,,,,,,,,,,,,,,,,,,,,,,,,,,,,,,,,,,,,,,,,,,,,,,,,,,,,,,,,,,,,,,,,,,,,,,,,,,,,,,,,,,,,,,,,,
,,6573451f5972cc7e8ba92049,2024-02-19_03h19.04.368,kallum_motion_pilot,2023.2.2,Win32,60.24096386,6573451f5972cc7e8ba92049,65d2b6c8f2eece985d8e374c,65d2c899c3c6633988ab6d2e,0.0186,0.0186,0,98,98,123,1,sixeight,,,,,,,,,,,,,,,,,,,,,,,,,,,,,,,,,,,,,,,,,,,,,,,,,,,,,,,,,,,,,,,,,,,,,,,,,,,,,,,,,,,,,,,,,,,,,,,,,,,,,,,,,,,,,,,,,,,,,,,,,,,,,,,,,,,,,,,,,
,,6573451f5972cc7e8ba92049,2024-02-19_03h19.04.368,kallum_motion_pilot,2023.2.2,Win32,60.24096386,6573451f5972cc7e8ba92049,65d2b6c8f2eece985d8e374c,65d2c899c3c6633988ab6d2e,0.0187,0.0187,0,99,99,147,1,sixeight,,,,,,,,,,,,,,,,,,,,,,,,,,,,,,,,,,,,,,,,,,,,,,,,,,,,,,,,,,,,,,,,,,,,,,,,,,,,,,,,,,,,,,,,,,,,,,,,,,,,,,,,,,,,,,,,,,,,,,,,,,,,,,,,,,,,,,,,,
,,6573451f5972cc7e8ba92049,2024-02-19_03h19.04.368,kallum_motion_pilot,2023.2.2,Win32,60.24096386,6573451f5972cc7e8ba92049,65d2b6c8f2eece985d8e374c,65d2c899c3c6633988ab6d2e,0.0187,0.0187,0,100,100,47,1,fourthree,,,,,,,,,,,,,,,,,,,,,,,,,,,,,,,,,,,,,,,,,,,,,,,,,,,,,,,,,,,,,,,,,,,,,,,,,,,,,,,,,,,,,,,,,,,,,,,,,,,,,,,,,,,,,,,,,,,,,,,,,,,,,,,,,,,,,,,,,
,,6573451f5972cc7e8ba92049,2024-02-19_03h19.04.368,kallum_motion_pilot,2023.2.2,Win32,60.24096386,6573451f5972cc7e8ba92049,65d2b6c8f2eece985d8e374c,65d2c899c3c6633988ab6d2e,0.0188,0.0189,0,101,101,127,1,eightseven,,,,,,,,,,,,,,,,,,,,,,,,,,,,,,,,,,,,,,,,,,,,,,,,,,,,,,,,,,,,,,,,,,,,,,,,,,,,,,,,,,,,,,,,,,,,,,,,,,,,,,,,,,,,,,,,,,,,,,,,,,,,,,,,,,,,,,,,,
,,6573451f5972cc7e8ba92049,2024-02-19_03h19.04.368,kallum_motion_pilot,2023.2.2,Win32,60.24096386,6573451f5972cc7e8ba92049,65d2b6c8f2eece985d8e374c,65d2c899c3c6633988ab6d2e,0.0189,0.0189,0,102,102,1,1,onethree,,,,,,,,,,,,,,,,,,,,,,,,,,,,,,,,,,,,,,,,,,,,,,,,,,,,,,,,,,,,,,,,,,,,,,,,,,,,,,,,,,,,,,,,,,,,,,,,,,,,,,,,,,,,,,,,,,,,,,,,,,,,,,,,,,,,,,,,,
,,6573451f5972cc7e8ba92049,2024-02-19_03h19.04.368,kallum_motion_pilot,2023.2.2,Win32,60.24096386,6573451f5972cc7e8ba92049,65d2b6c8f2eece985d8e374c,65d2c899c3c6633988ab6d2e,0.019,0.019,0,103,103,87,1,eightseven,,,,,,,,,,,,,,,,,,,,,,,,,,,,,,,,,,,,,,,,,,,,,,,,,,,,,,,,,,,,,,,,,,,,,,,,,,,,,,,,,,,,,,,,,,,,,,,,,,,,,,,,,,,,,,,,,,,,,,,,,,,,,,,,,,,,,,,,,
,,6573451f5972cc7e8ba92049,2024-02-19_03h19.04.368,kallum_motion_pilot,2023.2.2,Win32,60.24096386,6573451f5972cc7e8ba92049,65d2b6c8f2eece985d8e374c,65d2c899c3c6633988ab6d2e,0.019,0.019,0,104,104,37,1,threefour,,,,,,,,,,,,,,,,,,,,,,,,,,,,,,,,,,,,,,,,,,,,,,,,,,,,,,,,,,,,,,,,,,,,,,,,,,,,,,,,,,,,,,,,,,,,,,,,,,,,,,,,,,,,,,,,,,,,,,,,,,,,,,,,,,,,,,,,,
,,6573451f5972cc7e8ba92049,2024-02-19_03h19.04.368,kallum_motion_pilot,2023.2.2,Win32,60.24096386,6573451f5972cc7e8ba92049,65d2b6c8f2eece985d8e374c,65d2c899c3c6633988ab6d2e,0.019,0.019,0,105,105,8,1,onetwo,,,,,,,,,,,,,,,,,,,,,,,,,,,,,,,,,,,,,,,,,,,,,,,,,,,,,,,,,,,,,,,,,,,,,,,,,,,,,,,,,,,,,,,,,,,,,,,,,,,,,,,,,,,,,,,,,,,,,,,,,,,,,,,,,,,,,,,,,
,,6573451f5972cc7e8ba92049,2024-02-19_03h19.04.368,kallum_motion_pilot,2023.2.2,Win32,60.24096386,6573451f5972cc7e8ba92049,65d2b6c8f2eece985d8e374c,65d2c899c3c6633988ab6d2e,0.0191,0.0191,0,106,106,145,1,fiveseven,,,,,,,,,,,,,,,,,,,,,,,,,,,,,,,,,,,,,,,,,,,,,,,,,,,,,,,,,,,,,,,,,,,,,,,,,,,,,,,,,,,,,,,,,,,,,,,,,,,,,,,,,,,,,,,,,,,,,,,,,,,,,,,,,,,,,,,,,
,,6573451f5972cc7e8ba92049,2024-02-19_03h19.04.368,kallum_motion_pilot,2023.2.2,Win32,60.24096386,6573451f5972cc7e8ba92049,65d2b6c8f2eece985d8e374c,65d2c899c3c6633988ab6d2e,0.0191,0.0192,0,107,107,103,1,eightseven,,,,,,,,,,,,,,,,,,,,,,,,,,,,,,,,,,,,,,,,,,,,,,,,,,,,,,,,,,,,,,,,,,,,,,,,,,,,,,,,,,,,,,,,,,,,,,,,,,,,,,,,,,,,,,,,,,,,,,,,,,,,,,,,,,,,,,,,,
,,6573451f5972cc7e8ba92049,2024-02-19_03h19.04.368,kallum_motion_pilot,2023.2.2,Win32,60.24096386,6573451f5972cc7e8ba92049,65d2b6c8f2eece985d8e374c,65d2c899c3c6633988ab6d2e,0.0193,0.0193,0,108,108,128,1,fivesix,,,,,,,,,,,,,,,,,,,,,,,,,,,,,,,,,,,,,,,,,,,,,,,,,,,,,,,,,,,,,,,,,,,,,,,,,,,,,,,,,,,,,,,,,,,,,,,,,,,,,,,,,,,,,,,,,,,,,,,,,,,,,,,,,,,,,,,,,
,,6573451f5972cc7e8ba92049,2024-02-19_03h19.04.368,kallum_motion_pilot,2023.2.2,Win32,60.24096386,6573451f5972cc7e8ba92049,65d2b6c8f2eece985d8e374c,65d2c899c3c6633988ab6d2e,0.0193,0.0193,0,109,109,75,1,twofour,,,,,,,,,,,,,,,,,,,,,,,,,,,,,,,,,,,,,,,,,,,,,,,,,,,,,,,,,,,,,,,,,,,,,,,,,,,,,,,,,,,,,,,,,,,,,,,,,,,,,,,,,,,,,,,,,,,,,,,,,,,,,,,,,,,,,,,,,
,,6573451f5972cc7e8ba92049,2024-02-19_03h19.04.368,kallum_motion_pilot,2023.2.2,Win32,60.24096386,6573451f5972cc7e8ba92049,65d2b6c8f2eece985d8e374c,65d2c899c3c6633988ab6d2e,0.0194,0.0194,0,110,110,110,1,eightsix,,,,,,,,,,,,,,,,,,,,,,,,,,,,,,,,,,,,,,,,,,,,,,,,,,,,,,,,,,,,,,,,,,,,,,,,,,,,,,,,,,,,,,,,,,,,,,,,,,,,,,,,,,,,,,,,,,,,,,,,,,,,,,,,,,,,,,,,,
,,6573451f5972cc7e8ba92049,2024-02-19_03h19.04.368,kallum_motion_pilot,2023.2.2,Win32,60.24096386,6573451f5972cc7e8ba92049,65d2b6c8f2eece985d8e374c,65d2c899c3c6633988ab6d2e,0.0194,0.0194,0,111,111,15,1,fourthree,,,,,,,,,,,,,,,,,,,,,,,,,,,,,,,,,,,,,,,,,,,,,,,,,,,,,,,,,,,,,,,,,,,,,,,,,,,,,,,,,,,,,,,,,,,,,,,,,,,,,,,,,,,,,,,,,,,,,,,,,,,,,,,,,,,,,,,,,
,,6573451f5972cc7e8ba92049,2024-02-19_03h19.04.368,kallum_motion_pilot,2023.2.2,Win32,60.24096386,6573451f5972cc7e8ba92049,65d2b6c8f2eece985d8e374c,65d2c899c3c6633988ab6d2e,0.0195,0.0195,0,112,112,72,1,onetwo,,,,,,,,,,,,,,,,,,,,,,,,,,,,,,,,,,,,,,,,,,,,,,,,,,,,,,,,,,,,,,,,,,,,,,,,,,,,,,,,,,,,,,,,,,,,,,,,,,,,,,,,,,,,,,,,,,,,,,,,,,,,,,,,,,,,,,,,,
,,6573451f5972cc7e8ba92049,2024-02-19_03h19.04.368,kallum_motion_pilot,2023.2.2,Win32,60.24096386,6573451f5972cc7e8ba92049,65d2b6c8f2eece985d8e374c,65d2c899c3c6633988ab6d2e,0.0195,0.0195,0,113,113,61,1,threefour,,,,,,,,,,,,,,,,,,,,,,,,,,,,,,,,,,,,,,,,,,,,,,,,,,,,,,,,,,,,,,,,,,,,,,,,,,,,,,,,,,,,,,,,,,,,,,,,,,,,,,,,,,,,,,,,,,,,,,,,,,,,,,,,,,,,,,,,,
,,6573451f5972cc7e8ba92049,2024-02-19_03h19.04.368,kallum_motion_pilot,2023.2.2,Win32,60.24096386,6573451f5972cc7e8ba92049,65d2b6c8f2eece985d8e374c,65d2c899c3c6633988ab6d2e,0.0196,0.0197,0,114,114,152,1,fivesix,,,,,,,,,,,,,,,,,,,,,,,,,,,,,,,,,,,,,,,,,,,,,,,,,,,,,,,,,,,,,,,,,,,,,,,,,,,,,,,,,,,,,,,,,,,,,,,,,,,,,,,,,,,,,,,,,,,,,,,,,,,,,,,,,,,,,,,,,
,,6573451f5972cc7e8ba92049,2024-02-19_03h19.04.368,kallum_motion_pilot,2023.2.2,Win32,60.24096386,6573451f5972cc7e8ba92049,65d2b6c8f2eece985d8e374c,65d2c899c3c6633988ab6d2e,0.0197,0.0197,0,115,115,158,1,eightsix,,,,,,,,,,,,,,,,,,,,,,,,,,,,,,,,,,,,,,,,,,,,,,,,,,,,,,,,,,,,,,,,,,,,,,,,,,,,,,,,,,,,,,,,,,,,,,,,,,,,,,,,,,,,,,,,,,,,,,,,,,,,,,,,,,,,,,,,,
,,6573451f5972cc7e8ba92049,2024-02-19_03h19.04.368,kallum_motion_pilot,2023.2.2,Win32,60.24096386,6573451f5972cc7e8ba92049,65d2b6c8f2eece985d8e374c,65d2c899c3c6633988ab6d2e,0.0197,0.0197,0,116,116,88,1,fivesix,,,,,,,,,,,,,,,,,,,,,,,,,,,,,,,,,,,,,,,,,,,,,,,,,,,,,,,,,,,,,,,,,,,,,,,,,,,,,,,,,,,,,,,,,,,,,,,,,,,,,,,,,,,,,,,,,,,,,,,,,,,,,,,,,,,,,,,,,
,,6573451f5972cc7e8ba92049,2024-02-19_03h19.04.368,kallum_motion_pilot,2023.2.2,Win32,60.24096386,6573451f5972cc7e8ba92049,65d2b6c8f2eece985d8e374c,65d2c899c3c6633988ab6d2e,0.0198,0.0198,0,117,117,126,1,eightsix,,,,,,,,,,,,,,,,,,,,,,,,,,,,,,,,,,,,,,,,,,,,,,,,,,,,,,,,,,,,,,,,,,,,,,,,,,,,,,,,,,,,,,,,,,,,,,,,,,,,,,,,,,,,,,,,,,,,,,,,,,,,,,,,,,,,,,,,,
,,6573451f5972cc7e8ba92049,2024-02-19_03h19.04.368,kallum_motion_pilot,2023.2.2,Win32,60.24096386,6573451f5972cc7e8ba92049,65d2b6c8f2eece985d8e374c,65d2c899c3c6633988ab6d2e,0.0199,0.0199,0,118,118,68,1,threeone,,,,,,,,,,,,,,,,,,,,,,,,,,,,,,,,,,,,,,,,,,,,,,,,,,,,,,,,,,,,,,,,,,,,,,,,,,,,,,,,,,,,,,,,,,,,,,,,,,,,,,,,,,,,,,,,,,,,,,,,,,,,,,,,,,,,,,,,,
,,6573451f5972cc7e8ba92049,2024-02-19_03h19.04.368,kallum_motion_pilot,2023.2.2,Win32,60.24096386,6573451f5972cc7e8ba92049,65d2b6c8f2eece985d8e374c,65d2c899c3c6633988ab6d2e,0.02,0.02,0,119,119,121,1,fiveseven,,,,,,,,,,,,,,,,,,,,,,,,,,,,,,,,,,,,,,,,,,,,,,,,,,,,,,,,,,,,,,,,,,,,,,,,,,,,,,,,,,,,,,,,,,,,,,,,,,,,,,,,,,,,,,,,,,,,,,,,,,,,,,,,,,,,,,,,,
,,6573451f5972cc7e8ba92049,2024-02-19_03h19.04.368,kallum_motion_pilot,2023.2.2,Win32,60.24096386,6573451f5972cc7e8ba92049,65d2b6c8f2eece985d8e374c,65d2c899c3c6633988ab6d2e,0.02,0.02,0,120,120,104,1,fivesix,,,,,,,,,,,,,,,,,,,,,,,,,,,,,,,,,,,,,,,,,,,,,,,,,,,,,,,,,,,,,,,,,,,,,,,,,,,,,,,,,,,,,,,,,,,,,,,,,,,,,,,,,,,,,,,,,,,,,,,,,,,,,,,,,,,,,,,,,
,,6573451f5972cc7e8ba92049,2024-02-19_03h19.04.368,kallum_motion_pilot,2023.2.2,Win32,60.24096386,6573451f5972cc7e8ba92049,65d2b6c8f2eece985d8e374c,65d2c899c3c6633988ab6d2e,0.02,0.02,0,121,121,144,1,fivesix,,,,,,,,,,,,,,,,,,,,,,,,,,,,,,,,,,,,,,,,,,,,,,,,,,,,,,,,,,,,,,,,,,,,,,,,,,,,,,,,,,,,,,,,,,,,,,,,,,,,,,,,,,,,,,,,,,,,,,,,,,,,,,,,,,,,,,,,,
,,6573451f5972cc7e8ba92049,2024-02-19_03h19.04.368,kallum_motion_pilot,2023.2.2,Win32,60.24096386,6573451f5972cc7e8ba92049,65d2b6c8f2eece985d8e374c,65d2c899c3c6633988ab6d2e,0.0201,0.0201,0,122,122,114,1,sixfive,,,,,,,,,,,,,,,,,,,,,,,,,,,,,,,,,,,,,,,,,,,,,,,,,,,,,,,,,,,,,,,,,,,,,,,,,,,,,,,,,,,,,,,,,,,,,,,,,,,,,,,,,,,,,,,,,,,,,,,,,,,,,,,,,,,,,,,,,
,,6573451f5972cc7e8ba92049,2024-02-19_03h19.04.368,kallum_motion_pilot,2023.2.2,Win32,60.24096386,6573451f5972cc7e8ba92049,65d2b6c8f2eece985d8e374c,65d2c899c3c6633988ab6d2e,0.0202,0.0202,0,123,123,30,1,fourtwo,,,,,,,,,,,,,,,,,,,,,,,,,,,,,,,,,,,,,,,,,,,,,,,,,,,,,,,,,,,,,,,,,,,,,,,,,,,,,,,,,,,,,,,,,,,,,,,,,,,,,,,,,,,,,,,,,,,,,,,,,,,,,,,,,,,,,,,,,
,,6573451f5972cc7e8ba92049,2024-02-19_03h19.04.368,kallum_motion_pilot,2023.2.2,Win32,60.24096386,6573451f5972cc7e8ba92049,65d2b6c8f2eece985d8e374c,65d2c899c3c6633988ab6d2e,0.0202,0.0203,0,124,124,101,1,seveneight,,,,,,,,,,,,,,,,,,,,,,,,,,,,,,,,,,,,,,,,,,,,,,,,,,,,,,,,,,,,,,,,,,,,,,,,,,,,,,,,,,,,,,,,,,,,,,,,,,,,,,,,,,,,,,,,,,,,,,,,,,,,,,,,,,,,,,,,,
,,6573451f5972cc7e8ba92049,2024-02-19_03h19.04.368,kallum_motion_pilot,2023.2.2,Win32,60.24096386,6573451f5972cc7e8ba92049,65d2b6c8f2eece985d8e374c,65d2c899c3c6633988ab6d2e,0.0203,0.0203,0,125,125,159,1,eightseven,,,,,,,,,,,,,,,,,,,,,,,,,,,,,,,,,,,,,,,,,,,,,,,,,,,,,,,,,,,,,,,,,,,,,,,,,,,,,,,,,,,,,,,,,,,,,,,,,,,,,,,,,,,,,,,,,,,,,,,,,,,,,,,,,,,,,,,,,
,,6573451f5972cc7e8ba92049,2024-02-19_03h19.04.368,kallum_motion_pilot,2023.2.2,Win32,60.24096386,6573451f5972cc7e8ba92049,65d2b6c8f2eece985d8e374c,65d2c899c3c6633988ab6d2e,0.0204,0.0204,0,126,126,95,1,eightseven,,,,,,,,,,,,,,,,,,,,,,,,,,,,,,,,,,,,,,,,,,,,,,,,,,,,,,,,,,,,,,,,,,,,,,,,,,,,,,,,,,,,,,,,,,,,,,,,,,,,,,,,,,,,,,,,,,,,,,,,,,,,,,,,,,,,,,,,,
,,6573451f5972cc7e8ba92049,2024-02-19_03h19.04.368,kallum_motion_pilot,2023.2.2,Win32,60.24096386,6573451f5972cc7e8ba92049,65d2b6c8f2eece985d8e374c,65d2c899c3c6633988ab6d2e,0.0204,0.0204,0,127,127,40,1,onetwo,,,,,,,,,,,,,,,,,,,,,,,,,,,,,,,,,,,,,,,,,,,,,,,,,,,,,,,,,,,,,,,,,,,,,,,,,,,,,,,,,,,,,,,,,,,,,,,,,,,,,,,,,,,,,,,,,,,,,,,,,,,,,,,,,,,,,,,,,
,,6573451f5972cc7e8ba92049,2024-02-19_03h19.04.368,kallum_motion_pilot,2023.2.2,Win32,60.24096386,6573451f5972cc7e8ba92049,65d2b6c8f2eece985d8e374c,65d2c899c3c6633988ab6d2e,0.0205,0.0205,0,128,128,13,1,threefour,,,,,,,,,,,,,,,,,,,,,,,,,,,,,,,,,,,,,,,,,,,,,,,,,,,,,,,,,,,,,,,,,,,,,,,,,,,,,,,,,,,,,,,,,,,,,,,,,,,,,,,,,,,,,,,,,,,,,,,,,,,,,,,,,,,,,,,,,
,,6573451f5972cc7e8ba92049,2024-02-19_03h19.04.368,kallum_motion_pilot,2023.2.2,Win32,60.24096386,6573451f5972cc7e8ba92049,65d2b6c8f2eece985d8e374c,65d2c899c3c6633988ab6d2e,0.0205,0.0206,0,129,129,77,1,threefour,,,,,,,,,,,,,,,,,,,,,,,,,,,,,,,,,,,,,,,,,,,,,,,,,,,,,,,,,,,,,,,,,,,,,,,,,,,,,,,,,,,,,,,,,,,,,,,,,,,,,,,,,,,,,,,,,,,,,,,,,,,,,,,,,,,,,,,,,
,,6573451f5972cc7e8ba92049,2024-02-19_03h19.04.368,kallum_motion_pilot,2023.2.2,Win32,60.24096386,6573451f5972cc7e8ba92049,65d2b6c8f2eece985d8e374c,65d2c899c3c6633988ab6d2e,0.0206,0.0206,0,130,130,22,1,fourtwo,,,,,,,,,,,,,,,,,,,,,,,,,,,,,,,,,,,,,,,,,,,,,,,,,,,,,,,,,,,,,,,,,,,,,,,,,,,,,,,,,,,,,,,,,,,,,,,,,,,,,,,,,,,,,,,,,,,,,,,,,,,,,,,,,,,,,,,,,
,,6573451f5972cc7e8ba92049,2024-02-19_03h19.04.368,kallum_motion_pilot,2023.2.2,Win32,60.24096386,6573451f5972cc7e8ba92049,65d2b6c8f2eece985d8e374c,65d2c899c3c6633988ab6d2e,0.0207,0.0207,0,131,131,118,1,eightsix,,,,,,,,,,,,,,,,,,,,,,,,,,,,,,,,,,,,,,,,,,,,,,,,,,,,,,,,,,,,,,,,,,,,,,,,,,,,,,,,,,,,,,,,,,,,,,,,,,,,,,,,,,,,,,,,,,,,,,,,,,,,,,,,,,,,,,,,,
,,6573451f5972cc7e8ba92049,2024-02-19_03h19.04.368,kallum_motion_pilot,2023.2.2,Win32,60.24096386,6573451f5972cc7e8ba92049,65d2b6c8f2eece985d8e374c,65d2c899c3c6633988ab6d2e,0.0207,0.0208,0,132,132,92,1,sevenfive,,,,,,,,,,,,,,,,,,,,,,,,,,,,,,,,,,,,,,,,,,,,,,,,,,,,,,,,,,,,,,,,,,,,,,,,,,,,,,,,,,,,,,,,,,,,,,,,,,,,,,,,,,,,,,,,,,,,,,,,,,,,,,,,,,,,,,,,,
,,6573451f5972cc7e8ba92049,2024-02-19_03h19.04.368,kallum_motion_pilot,2023.2.2,Win32,60.24096386,6573451f5972cc7e8ba92049,65d2b6c8f2eece985d8e374c,65d2c899c3c6633988ab6d2e,0.0208,0.0208,0,133,133,54,1,fourtwo,,,,,,,,,,,,,,,,,,,,,,,,,,,,,,,,,,,,,,,,,,,,,,,,,,,,,,,,,,,,,,,,,,,,,,,,,,,,,,,,,,,,,,,,,,,,,,,,,,,,,,,,,,,,,,,,,,,,,,,,,,,,,,,,,,,,,,,,,
,,6573451f5972cc7e8ba92049,2024-02-19_03h19.04.368,kallum_motion_pilot,2023.2.2,Win32,60.24096386,6573451f5972cc7e8ba92049,65d2b6c8f2eece985d8e374c,65d2c899c3c6633988ab6d2e,0.0209,0.0209,0,134,134,58,1,twoone,,,,,,,,,,,,,,,,,,,,,,,,,,,,,,,,,,,,,,,,,,,,,,,,,,,,,,,,,,,,,,,,,,,,,,,,,,,,,,,,,,,,,,,,,,,,,,,,,,,,,,,,,,,,,,,,,,,,,,,,,,,,,,,,,,,,,,,,,
,,6573451f5972cc7e8ba92049,2024-02-19_03h19.04.368,kallum_motion_pilot,2023.2.2,Win32,60.24096386,6573451f5972cc7e8ba92049,65d2b6c8f2eece985d8e374c,65d2c899c3c6633988ab6d2e,0.021,0.021,0,135,135,130,1,sixfive,,,,,,,,,,,,,,,,,,,,,,,,,,,,,,,,,,,,,,,,,,,,,,,,,,,,,,,,,,,,,,,,,,,,,,,,,,,,,,,,,,,,,,,,,,,,,,,,,,,,,,,,,,,,,,,,,,,,,,,,,,,,,,,,,,,,,,,,,
,,6573451f5972cc7e8ba92049,2024-02-19_03h19.04.368,kallum_motion_pilot,2023.2.2,Win32,60.24096386,6573451f5972cc7e8ba92049,65d2b6c8f2eece985d8e374c,65d2c899c3c6633988ab6d2e,0.021,0.0211,0,136,136,59,1,twofour,,,,,,,,,,,,,,,,,,,,,,,,,,,,,,,,,,,,,,,,,,,,,,,,,,,,,,,,,,,,,,,,,,,,,,,,,,,,,,,,,,,,,,,,,,,,,,,,,,,,,,,,,,,,,,,,,,,,,,,,,,,,,,,,,,,,,,,,,
,,6573451f5972cc7e8ba92049,2024-02-19_03h19.04.368,kallum_motion_pilot,2023.2.2,Win32,60.24096386,6573451f5972cc7e8ba92049,65d2b6c8f2eece985d8e374c,65d2c899c3c6633988ab6d2e,0.0211,0.0211,0,137,137,29,1,threefour,,,,,,,,,,,,,,,,,,,,,,,,,,,,,,,,,,,,,,,,,,,,,,,,,,,,,,,,,,,,,,,,,,,,,,,,,,,,,,,,,,,,,,,,,,,,,,,,,,,,,,,,,,,,,,,,,,,,,,,,,,,,,,,,,,,,,,,,,
,,6573451f5972cc7e8ba92049,2024-02-19_03h19.04.368,kallum_motion_pilot,2023.2.2,Win32,60.24096386,6573451f5972cc7e8ba92049,65d2b6c8f2eece985d8e374c,65d2c899c3c6633988ab6d2e,0.0211,0.0211,0,138,138,48,1,onetwo,,,,,,,,,,,,,,,,,,,,,,,,,,,,,,,,,,,,,,,,,,,,,,,,,,,,,,,,,,,,,,,,,,,,,,,,,,,,,,,,,,,,,,,,,,,,,,,,,,,,,,,,,,,,,,,,,,,,,,,,,,,,,,,,,,,,,,,,,
,,6573451f5972cc7e8ba92049,2024-02-19_03h19.04.368,kallum_motion_pilot,2023.2.2,Win32,60.24096386,6573451f5972cc7e8ba92049,65d2b6c8f2eece985d8e374c,65d2c899c3c6633988ab6d2e,0.0212,0.0212,0,139,139,113,1,fiveseven,,,,,,,,,,,,,,,,,,,,,,,,,,,,,,,,,,,,,,,,,,,,,,,,,,,,,,,,,,,,,,,,,,,,,,,,,,,,,,,,,,,,,,,,,,,,,,,,,,,,,,,,,,,,,,,,,,,,,,,,,,,,,,,,,,,,,,,,,
,,6573451f5972cc7e8ba92049,2024-02-19_03h19.04.368,kallum_motion_pilot,2023.2.2,Win32,60.24096386,6573451f5972cc7e8ba92049,65d2b6c8f2eece985d8e374c,65d2c899c3c6633988ab6d2e,0.0213,0.0213,0,140,140,74,1,twoone,,,,,,,,,,,,,,,,,,,,,,,,,,,,,,,,,,,,,,,,,,,,,,,,,,,,,,,,,,,,,,,,,,,,,,,,,,,,,,,,,,,,,,,,,,,,,,,,,,,,,,,,,,,,,,,,,,,,,,,,,,,,,,,,,,,,,,,,,
,,6573451f5972cc7e8ba92049,2024-02-19_03h19.04.368,kallum_motion_pilot,2023.2.2,Win32,60.24096386,6573451f5972cc7e8ba92049,65d2b6c8f2eece985d8e374c,65d2c899c3c6633988ab6d2e,0.0213,0.0214,0,141,141,80,1,fivesix,,,,,,,,,,,,,,,,,,,,,,,,,,,,,,,,,,,,,,,,,,,,,,,,,,,,,,,,,,,,,,,,,,,,,,,,,,,,,,,,,,,,,,,,,,,,,,,,,,,,,,,,,,,,,,,,,,,,,,,,,,,,,,,,,,,,,,,,,
,,6573451f5972cc7e8ba92049,2024-02-19_03h19.04.368,kallum_motion_pilot,2023.2.2,Win32,60.24096386,6573451f5972cc7e8ba92049,65d2b6c8f2eece985d8e374c,65d2c899c3c6633988ab6d2e,0.0214,0.0214,0,142,142,111,1,eightseven,,,,,,,,,,,,,,,,,,,,,,,,,,,,,,,,,,,,,,,,,,,,,,,,,,,,,,,,,,,,,,,,,,,,,,,,,,,,,,,,,,,,,,,,,,,,,,,,,,,,,,,,,,,,,,,,,,,,,,,,,,,,,,,,,,,,,,,,,
,,6573451f5972cc7e8ba92049,2024-02-19_03h19.04.368,kallum_motion_pilot,2023.2.2,Win32,60.24096386,6573451f5972cc7e8ba92049,65d2b6c8f2eece985d8e374c,65d2c899c3c6633988ab6d2e,0.0215,0.0215,0,143,143,3,1,twofour,,,,,,,,,,,,,,,,,,,,,,,,,,,,,,,,,,,,,,,,,,,,,,,,,,,,,,,,,,,,,,,,,,,,,,,,,,,,,,,,,,,,,,,,,,,,,,,,,,,,,,,,,,,,,,,,,,,,,,,,,,,,,,,,,,,,,,,,,
,,6573451f5972cc7e8ba92049,2024-02-19_03h19.04.368,kallum_motion_pilot,2023.2.2,Win32,60.24096386,6573451f5972cc7e8ba92049,65d2b6c8f2eece985d8e374c,65d2c899c3c6633988ab6d2e,0.0216,0.0216,0,144,144,141,1,seveneight,,,,,,,,,,,,,,,,,,,,,,,,,,,,,,,,,,,,,,,,,,,,,,,,,,,,,,,,,,,,,,,,,,,,,,,,,,,,,,,,,,,,,,,,,,,,,,,,,,,,,,,,,,,,,,,,,,,,,,,,,,,,,,,,,,,,,,,,,
,,6573451f5972cc7e8ba92049,2024-02-19_03h19.04.368,kallum_motion_pilot,2023.2.2,Win32,60.24096386,6573451f5972cc7e8ba92049,65d2b6c8f2eece985d8e374c,65d2c899c3c6633988ab6d2e,0.0216,0.0216,0,145,145,79,1,eightseven,,,,,,,,,,,,,,,,,,,,,,,,,,,,,,,,,,,,,,,,,,,,,,,,,,,,,,,,,,,,,,,,,,,,,,,,,,,,,,,,,,,,,,,,,,,,,,,,,,,,,,,,,,,,,,,,,,,,,,,,,,,,,,,,,,,,,,,,,
,,6573451f5972cc7e8ba92049,2024-02-19_03h19.04.368,kallum_motion_pilot,2023.2.2,Win32,60.24096386,6573451f5972cc7e8ba92049,65d2b6c8f2eece985d8e374c,65d2c899c3c6633988ab6d2e,0.0216,0.0217,0,146,146,142,1,eightsix,,,,,,,,,,,,,,,,,,,,,,,,,,,,,,,,,,,,,,,,,,,,,,,,,,,,,,,,,,,,,,,,,,,,,,,,,,,,,,,,,,,,,,,,,,,,,,,,,,,,,,,,,,,,,,,,,,,,,,,,,,,,,,,,,,,,,,,,,
,,6573451f5972cc7e8ba92049,2024-02-19_03h19.04.368,kallum_motion_pilot,2023.2.2,Win32,60.24096386,6573451f5972cc7e8ba92049,65d2b6c8f2eece985d8e374c,65d2c899c3c6633988ab6d2e,0.0218,0.0218,0,147,147,45,1,threefour,,,,,,,,,,,,,,,,,,,,,,,,,,,,,,,,,,,,,,,,,,,,,,,,,,,,,,,,,,,,,,,,,,,,,,,,,,,,,,,,,,,,,,,,,,,,,,,,,,,,,,,,,,,,,,,,,,,,,,,,,,,,,,,,,,,,,,,,,
,,6573451f5972cc7e8ba92049,2024-02-19_03h19.04.368,kallum_motion_pilot,2023.2.2,Win32,60.24096386,6573451f5972cc7e8ba92049,65d2b6c8f2eece985d8e374c,65d2c899c3c6633988ab6d2e,0.0218,0.0218,0,148,148,49,1,onethree,,,,,,,,,,,,,,,,,,,,,,,,,,,,,,,,,,,,,,,,,,,,,,,,,,,,,,,,,,,,,,,,,,,,,,,,,,,,,,,,,,,,,,,,,,,,,,,,,,,,,,,,,,,,,,,,,,,,,,,,,,,,,,,,,,,,,,,,,
,,6573451f5972cc7e8ba92049,2024-02-19_03h19.04.368,kallum_motion_pilot,2023.2.2,Win32,60.24096386,6573451f5972cc7e8ba92049,65d2b6c8f2eece985d8e374c,65d2c899c3c6633988ab6d2e,0.0219,0.022,0,149,149,150,1,eightsix,,,,,,,,,,,,,,,,,,,,,,,,,,,,,,,,,,,,,,,,,,,,,,,,,,,,,,,,,,,,,,,,,,,,,,,,,,,,,,,,,,,,,,,,,,,,,,,,,,,,,,,,,,,,,,,,,,,,,,,,,,,,,,,,,,,,,,,,,
,,6573451f5972cc7e8ba92049,2024-02-19_03h19.04.368,kallum_motion_pilot,2023.2.2,Win32,60.24096386,6573451f5972cc7e8ba92049,65d2b6c8f2eece985d8e374c,65d2c899c3c6633988ab6d2e,0.022,0.022,0,150,150,96,1,fivesix,,,,,,,,,,,,,,,,,,,,,,,,,,,,,,,,,,,,,,,,,,,,,,,,,,,,,,,,,,,,,,,,,,,,,,,,,,,,,,,,,,,,,,,,,,,,,,,,,,,,,,,,,,,,,,,,,,,,,,,,,,,,,,,,,,,,,,,,,
,,6573451f5972cc7e8ba92049,2024-02-19_03h19.04.368,kallum_motion_pilot,2023.2.2,Win32,60.24096386,6573451f5972cc7e8ba92049,65d2b6c8f2eece985d8e374c,65d2c899c3c6633988ab6d2e,0.022,0.0221,0,151,151,36,1,threeone,,,,,,,,,,,,,,,,,,,,,,,,,,,,,,,,,,,,,,,,,,,,,,,,,,,,,,,,,,,,,,,,,,,,,,,,,,,,,,,,,,,,,,,,,,,,,,,,,,,,,,,,,,,,,,,,,,,,,,,,,,,,,,,,,,,,,,,,,
,,6573451f5972cc7e8ba92049,2024-02-19_03h19.04.368,kallum_motion_pilot,2023.2.2,Win32,60.24096386,6573451f5972cc7e8ba92049,65d2b6c8f2eece985d8e374c,65d2c899c3c6633988ab6d2e,0.0221,0.0221,0,152,152,9,1,onethree,,,,,,,,,,,,,,,,,,,,,,,,,,,,,,,,,,,,,,,,,,,,,,,,,,,,,,,,,,,,,,,,,,,,,,,,,,,,,,,,,,,,,,,,,,,,,,,,,,,,,,,,,,,,,,,,,,,,,,,,,,,,,,,,,,,,,,,,,
,,6573451f5972cc7e8ba92049,2024-02-19_03h19.04.368,kallum_motion_pilot,2023.2.2,Win32,60.24096386,6573451f5972cc7e8ba92049,65d2b6c8f2eece985d8e374c,65d2c899c3c6633988ab6d2e,0.0222,0.0222,0,153,153,42,1,twoone,,,,,,,,,,,,,,,,,,,,,,,,,,,,,,,,,,,,,,,,,,,,,,,,,,,,,,,,,,,,,,,,,,,,,,,,,,,,,,,,,,,,,,,,,,,,,,,,,,,,,,,,,,,,,,,,,,,,,,,,,,,,,,,,,,,,,,,,,
,,6573451f5972cc7e8ba92049,2024-02-19_03h19.04.368,kallum_motion_pilot,2023.2.2,Win32,60.24096386,6573451f5972cc7e8ba92049,65d2b6c8f2eece985d8e374c,65d2c899c3c6633988ab6d2e,0.0222,0.0223,0,154,154,116,1,sevenfive,,,,,,,,,,,,,,,,,,,,,,,,,,,,,,,,,,,,,,,,,,,,,,,,,,,,,,,,,,,,,,,,,,,,,,,,,,,,,,,,,,,,,,,,,,,,,,,,,,,,,,,,,,,,,,,,,,,,,,,,,,,,,,,,,,,,,,,,,
,,6573451f5972cc7e8ba92049,2024-02-19_03h19.04.368,kallum_motion_pilot,2023.2.2,Win32,60.24096386,6573451f5972cc7e8ba92049,65d2b6c8f2eece985d8e374c,65d2c899c3c6633988ab6d2e,0.0223,0.0223,0,155,155,55,1,fourthree,,,,,,,,,,,,,,,,,,,,,,,,,,,,,,,,,,,,,,,,,,,,,,,,,,,,,,,,,,,,,,,,,,,,,,,,,,,,,,,,,,,,,,,,,,,,,,,,,,,,,,,,,,,,,,,,,,,,,,,,,,,,,,,,,,,,,,,,,
,,6573451f5972cc7e8ba92049,2024-02-19_03h19.04.368,kallum_motion_pilot,2023.2.2,Win32,60.24096386,6573451f5972cc7e8ba92049,65d2b6c8f2eece985d8e374c,65d2c899c3c6633988ab6d2e,0.0224,0.0224,0,156,156,44,1,threeone,,,,,,,,,,,,,,,,,,,,,,,,,,,,,,,,,,,,,,,,,,,,,,,,,,,,,,,,,,,,,,,,,,,,,,,,,,,,,,,,,,,,,,,,,,,,,,,,,,,,,,,,,,,,,,,,,,,,,,,,,,,,,,,,,,,,,,,,,
,,6573451f5972cc7e8ba92049,2024-02-19_03h19.04.368,kallum_motion_pilot,2023.2.2,Win32,60.24096386,6573451f5972cc7e8ba92049,65d2b6c8f2eece985d8e374c,65d2c899c3c6633988ab6d2e,0.0224,0.0225,0,157,157,16,1,onetwo,,,,,,,,,,,,,,,,,,,,,,,,,,,,,,,,,,,,,,,,,,,,,,,,,,,,,,,,,,,,,,,,,,,,,,,,,,,,,,,,,,,,,,,,,,,,,,,,,,,,,,,,,,,,,,,,,,,,,,,,,,,,,,,,,,,,,,,,,
,,6573451f5972cc7e8ba92049,2024-02-19_03h19.04.368,kallum_motion_pilot,2023.2.2,Win32,60.24096386,6573451f5972cc7e8ba92049,65d2b6c8f2eece985d8e374c,65d2c899c3c6633988ab6d2e,0.0225,0.0225,0,158,158,120,1,fivesix,,,,,,,,,,,,,,,,,,,,,,,,,,,,,,,,,,,,,,,,,,,,,,,,,,,,,,,,,,,,,,,,,,,,,,,,,,,,,,,,,,,,,,,,,,,,,,,,,,,,,,,,,,,,,,,,,,,,,,,,,,,,,,,,,,,,,,,,,
,,6573451f5972cc7e8ba92049,2024-02-19_03h19.04.368,kallum_motion_pilot,2023.2.2,Win32,60.24096386,6573451f5972cc7e8ba92049,65d2b6c8f2eece985d8e374c,65d2c899c3c6633988ab6d2e,0.0226,0.0226,0,159,159,51,1,twofour,,,,,,,,,,,,,,,,,,,,,,,,,,,,,,,,,,,,,,,,,,,,,,,,,,,,,,,,,,,,,,,,,,,,,,,,,,,,,,,,,,,,,,,,,,,,,,,,,,,,,,,,,,,,,,,,,,,,,,,,,,,,,,,,,,,,,,,,,
,,6573451f5972cc7e8ba92049,2024-02-19_03h19.04.368,kallum_motion_pilot,2023.2.2,Win32,60.24096386,6573451f5972cc7e8ba92049,65d2b6c8f2eece985d8e374c,65d2c899c3c6633988ab6d2e,0.0227,0.0227,0,160,160,154,1,sixfive,,,,,,,,,,,,,,,,,,,,,,,,,,,,,,,,,,,,,,,,,,,,,,,,,,,,,,,,,,,,,,,,,,,,,,,,,,,,,,,,,,,,,,,,,,,,,,,,,,,,,,,,,,,,,,,,,,,,,,,,,,,,,,,,,,,,,,,,,
,,6573451f5972cc7e8ba92049,2024-02-19_03h19.04.368,kallum_motion_pilot,2023.2.2,Win32,60.24096386,6573451f5972cc7e8ba92049,65d2b6c8f2eece985d8e374c,65d2c899c3c6633988ab6d2e,0.0227,0.0227,0,161,161,33,1,onethree,,,,,,,,,,,,,,,,,,,,,,,,,,,,,,,,,,,,,,,,,,,,,,,,,,,,,,,,,,,,,,,,,,,,,,,,,,,,,,,,,,,,,,,,,,,,,,,,,,,,,,,,,,,,,,,,,,,,,,,,,,,,,,,,,,,,,,,,,
,,6573451f5972cc7e8ba92049,2024-02-19_03h19.04.368,kallum_motion_pilot,2023.2.2,Win32,60.24096386,6573451f5972cc7e8ba92049,65d2b6c8f2eece985d8e374c,65d2c899c3c6633988ab6d2e,0.0228,0.0228,1,0,162,6,1,fourtwo,,,,,,,,,,,,,,,,,,,,,,,,,,,,,,,,,,,,,,,,,,,,,,,,,,,,,,,,,,,,,,,,,,,,,,,,,,,,,,,,,,,,,,,,,,,,,,,,,,,,,,,,,,,,,,,,,,,,,,,,,,,,,,,,,,,,,,,,,
,,6573451f5972cc7e8ba92049,2024-02-19_03h19.04.368,kallum_motion_pilot,2023.2.2,Win32,60.24096386,6573451f5972cc7e8ba92049,65d2b6c8f2eece985d8e374c,65d2c899c3c6633988ab6d2e,0.0229,0.0229,1,1,163,38,1,fourtwo,,,,,,,,,,,,,,,,,,,,,,,,,,,,,,,,,,,,,,,,,,,,,,,,,,,,,,,,,,,,,,,,,,,,,,,,,,,,,,,,,,,,,,,,,,,,,,,,,,,,,,,,,,,,,,,,,,,,,,,,,,,,,,,,,,,,,,,,,
,,6573451f5972cc7e8ba92049,2024-02-19_03h19.04.368,kallum_motion_pilot,2023.2.2,Win32,60.24096386,6573451f5972cc7e8ba92049,65d2b6c8f2eece985d8e374c,65d2c899c3c6633988ab6d2e,0.0229,0.0229,1,2,164,11,1,twofour,,,,,,,,,,,,,,,,,,,,,,,,,,,,,,,,,,,,,,,,,,,,,,,,,,,,,,,,,,,,,,,,,,,,,,,,,,,,,,,,,,,,,,,,,,,,,,,,,,,,,,,,,,,,,,,,,,,,,,,,,,,,,,,,,,,,,,,,,
,,6573451f5972cc7e8ba92049,2024-02-19_03h19.04.368,kallum_motion_pilot,2023.2.2,Win32,60.24096386,6573451f5972cc7e8ba92049,65d2b6c8f2eece985d8e374c,65d2c899c3c6633988ab6d2e,0.023,0.023,1,3,165,94,1,eightsix,,,,,,,,,,,,,,,,,,,,,,,,,,,,,,,,,,,,,,,,,,,,,,,,,,,,,,,,,,,,,,,,,,,,,,,,,,,,,,,,,,,,,,,,,,,,,,,,,,,,,,,,,,,,,,,,,,,,,,,,,,,,,,,,,,,,,,,,,
,,6573451f5972cc7e8ba92049,2024-02-19_03h19.04.368,kallum_motion_pilot,2023.2.2,Win32,60.24096386,6573451f5972cc7e8ba92049,65d2b6c8f2eece985d8e374c,65d2c899c3c6633988ab6d2e,0.0231,0.0231,1,4,166,145,1,fiveseven,,,,,,,,,,,,,,,,,,,,,,,,,,,,,,,,,,,,,,,,,,,,,,,,,,,,,,,,,,,,,,,,,,,,,,,,,,,,,,,,,,,,,,,,,,,,,,,,,,,,,,,,,,,,,,,,,,,,,,,,,,,,,,,,,,,,,,,,,
,,6573451f5972cc7e8ba92049,2024-02-19_03h19.04.368,kallum_motion_pilot,2023.2.2,Win32,60.24096386,6573451f5972cc7e8ba92049,65d2b6c8f2eece985d8e374c,65d2c899c3c6633988ab6d2e,0.0232,0.0232,1,5,167,78,1,fourtwo,,,,,,,,,,,,,,,,,,,,,,,,,,,,,,,,,,,,,,,,,,,,,,,,,,,,,,,,,,,,,,,,,,,,,,,,,,,,,,,,,,,,,,,,,,,,,,,,,,,,,,,,,,,,,,,,,,,,,,,,,,,,,,,,,,,,,,,,,
,,6573451f5972cc7e8ba92049,2024-02-19_03h19.04.368,kallum_motion_pilot,2023.2.2,Win32,60.24096386,6573451f5972cc7e8ba92049,65d2b6c8f2eece985d8e374c,65d2c899c3c6633988ab6d2e,0.0232,0.0232,1,6,168,46,1,fourtwo,,,,,,,,,,,,,,,,,,,,,,,,,,,,,,,,,,,,,,,,,,,,,,,,,,,,,,,,,,,,,,,,,,,,,,,,,,,,,,,,,,,,,,,,,,,,,,,,,,,,,,,,,,,,,,,,,,,,,,,,,,,,,,,,,,,,,,,,,
,,6573451f5972cc7e8ba92049,2024-02-19_03h19.04.368,kallum_motion_pilot,2023.2.2,Win32,60.24096386,6573451f5972cc7e8ba92049,65d2b6c8f2eece985d8e374c,65d2c899c3c6633988ab6d2e,0.0233,0.0233,1,7,169,120,1,fivesix,,,,,,,,,,,,,,,,,,,,,,,,,,,,,,,,,,,,,,,,,,,,,,,,,,,,,,,,,,,,,,,,,,,,,,,,,,,,,,,,,,,,,,,,,,,,,,,,,,,,,,,,,,,,,,,,,,,,,,,,,,,,,,,,,,,,,,,,,
,,6573451f5972cc7e8ba92049,2024-02-19_03h19.04.368,kallum_motion_pilot,2023.2.2,Win32,60.24096386,6573451f5972cc7e8ba92049,65d2b6c8f2eece985d8e374c,65d2c899c3c6633988ab6d2e,0.0233,0.0234,1,8,170,0,1,onetwo,,,,,,,,,,,,,,,,,,,,,,,,,,,,,,,,,,,,,,,,,,,,,,,,,,,,,,,,,,,,,,,,,,,,,,,,,,,,,,,,,,,,,,,,,,,,,,,,,,,,,,,,,,,,,,,,,,,,,,,,,,,,,,,,,,,,,,,,,
,,6573451f5972cc7e8ba92049,2024-02-19_03h19.04.368,kallum_motion_pilot,2023.2.2,Win32,60.24096386,6573451f5972cc7e8ba92049,65d2b6c8f2eece985d8e374c,65d2c899c3c6633988ab6d2e,0.0234,0.0234,1,9,171,121,1,fiveseven,,,,,,,,,,,,,,,,,,,,,,,,,,,,,,,,,,,,,,,,,,,,,,,,,,,,,,,,,,,,,,,,,,,,,,,,,,,,,,,,,,,,,,,,,,,,,,,,,,,,,,,,,,,,,,,,,,,,,,,,,,,,,,,,,,,,,,,,,
,,6573451f5972cc7e8ba92049,2024-02-19_03h19.04.368,kallum_motion_pilot,2023.2.2,Win32,60.24096386,6573451f5972cc7e8ba92049,65d2b6c8f2eece985d8e374c,65d2c899c3c6633988ab6d2e,0.0235,0.0235,1,10,172,57,1,onethree,,,,,,,,,,,,,,,,,,,,,,,,,,,,,,,,,,,,,,,,,,,,,,,,,,,,,,,,,,,,,,,,,,,,,,,,,,,,,,,,,,,,,,,,,,,,,,,,,,,,,,,,,,,,,,,,,,,,,,,,,,,,,,,,,,,,,,,,,
,,6573451f5972cc7e8ba92049,2024-02-19_03h19.04.368,kallum_motion_pilot,2023.2.2,Win32,60.24096386,6573451f5972cc7e8ba92049,65d2b6c8f2eece985d8e374c,65d2c899c3c6633988ab6d2e,0.0235,0.0235,1,11,173,103,1,eightseven,,,,,,,,,,,,,,,,,,,,,,,,,,,,,,,,,,,,,,,,,,,,,,,,,,,,,,,,,,,,,,,,,,,,,,,,,,,,,,,,,,,,,,,,,,,,,,,,,,,,,,,,,,,,,,,,,,,,,,,,,,,,,,,,,,,,,,,,,
,,6573451f5972cc7e8ba92049,2024-02-19_03h19.04.368,kallum_motion_pilot,2023.2.2,Win32,60.24096386,6573451f5972cc7e8ba92049,65d2b6c8f2eece985d8e374c,65d2c899c3c6633988ab6d2e,0.0236,0.0236,1,12,174,28,1,threeone,,,,,,,,,,,,,,,,,,,,,,,,,,,,,,,,,,,,,,,,,,,,,,,,,,,,,,,,,,,,,,,,,,,,,,,,,,,,,,,,,,,,,,,,,,,,,,,,,,,,,,,,,,,,,,,,,,,,,,,,,,,,,,,,,,,,,,,,,
,,6573451f5972cc7e8ba92049,2024-02-19_03h19.04.368,kallum_motion_pilot,2023.2.2,Win32,60.24096386,6573451f5972cc7e8ba92049,65d2b6c8f2eece985d8e374c,65d2c899c3c6633988ab6d2e,0.0237,0.0237,1,13,175,88,1,fivesix,,,,,,,,,,,,,,,,,,,,,,,,,,,,,,,,,,,,,,,,,,,,,,,,,,,,,,,,,,,,,,,,,,,,,,,,,,,,,,,,,,,,,,,,,,,,,,,,,,,,,,,,,,,,,,,,,,,,,,,,,,,,,,,,,,,,,,,,,
,,6573451f5972cc7e8ba92049,2024-02-19_03h19.04.368,kallum_motion_pilot,2023.2.2,Win32,60.24096386,6573451f5972cc7e8ba92049,65d2b6c8f2eece985d8e374c,65d2c899c3c6633988ab6d2e,0.0238,0.0238,1,14,176,50,1,twoone,,,,,,,,,,,,,,,,,,,,,,,,,,,,,,,,,,,,,,,,,,,,,,,,,,,,,,,,,,,,,,,,,,,,,,,,,,,,,,,,,,,,,,,,,,,,,,,,,,,,,,,,,,,,,,,,,,,,,,,,,,,,,,,,,,,,,,,,,
,,6573451f5972cc7e8ba92049,2024-02-19_03h19.04.368,kallum_motion_pilot,2023.2.2,Win32,60.24096386,6573451f5972cc7e8ba92049,65d2b6c8f2eece985d8e374c,65d2c899c3c6633988ab6d2e,0.0238,0.0238,1,15,177,99,1,sixeight,,,,,,,,,,,,,,,,,,,,,,,,,,,,,,,,,,,,,,,,,,,,,,,,,,,,,,,,,,,,,,,,,,,,,,,,,,,,,,,,,,,,,,,,,,,,,,,,,,,,,,,,,,,,,,,,,,,,,,,,,,,,,,,,,,,,,,,,,
,,6573451f5972cc7e8ba92049,2024-02-19_03h19.04.368,kallum_motion_pilot,2023.2.2,Win32,60.24096386,6573451f5972cc7e8ba92049,65d2b6c8f2eece985d8e374c,65d2c899c3c6633988ab6d2e,0.0239,0.0239,1,16,178,47,1,fourthree,,,,,,,,,,,,,,,,,,,,,,,,,,,,,,,,,,,,,,,,,,,,,,,,,,,,,,,,,,,,,,,,,,,,,,,,,,,,,,,,,,,,,,,,,,,,,,,,,,,,,,,,,,,,,,,,,,,,,,,,,,,,,,,,,,,,,,,,,
,,6573451f5972cc7e8ba92049,2024-02-19_03h19.04.368,kallum_motion_pilot,2023.2.2,Win32,60.24096386,6573451f5972cc7e8ba92049,65d2b6c8f2eece985d8e374c,65d2c899c3c6633988ab6d2e,0.0239,0.0239,1,17,179,12,1,threeone,,,,,,,,,,,,,,,,,,,,,,,,,,,,,,,,,,,,,,,,,,,,,,,,,,,,,,,,,,,,,,,,,,,,,,,,,,,,,,,,,,,,,,,,,,,,,,,,,,,,,,,,,,,,,,,,,,,,,,,,,,,,,,,,,,,,,,,,,
,,6573451f5972cc7e8ba92049,2024-02-19_03h19.04.368,kallum_motion_pilot,2023.2.2,Win32,60.24096386,6573451f5972cc7e8ba92049,65d2b6c8f2eece985d8e374c,65d2c899c3c6633988ab6d2e,0.0241,0.0241,1,18,180,2,1,twoone,,,,,,,,,,,,,,,,,,,,,,,,,,,,,,,,,,,,,,,,,,,,,,,,,,,,,,,,,,,,,,,,,,,,,,,,,,,,,,,,,,,,,,,,,,,,,,,,,,,,,,,,,,,,,,,,,,,,,,,,,,,,,,,,,,,,,,,,,
,,6573451f5972cc7e8ba92049,2024-02-19_03h19.04.368,kallum_motion_pilot,2023.2.2,Win32,60.24096386,6573451f5972cc7e8ba92049,65d2b6c8f2eece985d8e374c,65d2c899c3c6633988ab6d2e,0.0242,0.0242,1,19,181,45,1,threefour,,,,,,,,,,,,,,,,,,,,,,,,,,,,,,,,,,,,,,,,,,,,,,,,,,,,,,,,,,,,,,,,,,,,,,,,,,,,,,,,,,,,,,,,,,,,,,,,,,,,,,,,,,,,,,,,,,,,,,,,,,,,,,,,,,,,,,,,,
,,6573451f5972cc7e8ba92049,2024-02-19_03h19.04.368,kallum_motion_pilot,2023.2.2,Win32,60.24096386,6573451f5972cc7e8ba92049,65d2b6c8f2eece985d8e374c,65d2c899c3c6633988ab6d2e,0.0242,0.0242,1,20,182,106,1,sixfive,,,,,,,,,,,,,,,,,,,,,,,,,,,,,,,,,,,,,,,,,,,,,,,,,,,,,,,,,,,,,,,,,,,,,,,,,,,,,,,,,,,,,,,,,,,,,,,,,,,,,,,,,,,,,,,,,,,,,,,,,,,,,,,,,,,,,,,,,
,,6573451f5972cc7e8ba92049,2024-02-19_03h19.04.368,kallum_motion_pilot,2023.2.2,Win32,60.24096386,6573451f5972cc7e8ba92049,65d2b6c8f2eece985d8e374c,65d2c899c3c6633988ab6d2e,0.0243,0.0243,1,21,183,79,1,eightseven,,,,,,,,,,,,,,,,,,,,,,,,,,,,,,,,,,,,,,,,,,,,,,,,,,,,,,,,,,,,,,,,,,,,,,,,,,,,,,,,,,,,,,,,,,,,,,,,,,,,,,,,,,,,,,,,,,,,,,,,,,,,,,,,,,,,,,,,,
,,6573451f5972cc7e8ba92049,2024-02-19_03h19.04.368,kallum_motion_pilot,2023.2.2,Win32,60.24096386,6573451f5972cc7e8ba92049,65d2b6c8f2eece985d8e374c,65d2c899c3c6633988ab6d2e,0.0243,0.0243,1,22,184,70,1,fourtwo,,,,,,,,,,,,,,,,,,,,,,,,,,,,,,,,,,,,,,,,,,,,,,,,,,,,,,,,,,,,,,,,,,,,,,,,,,,,,,,,,,,,,,,,,,,,,,,,,,,,,,,,,,,,,,,,,,,,,,,,,,,,,,,,,,,,,,,,,
,,6573451f5972cc7e8ba92049,2024-02-19_03h19.04.368,kallum_motion_pilot,2023.2.2,Win32,60.24096386,6573451f5972cc7e8ba92049,65d2b6c8f2eece985d8e374c,65d2c899c3c6633988ab6d2e,0.0244,0.0244,1,23,185,125,1,seveneight,,,,,,,,,,,,,,,,,,,,,,,,,,,,,,,,,,,,,,,,,,,,,,,,,,,,,,,,,,,,,,,,,,,,,,,,,,,,,,,,,,,,,,,,,,,,,,,,,,,,,,,,,,,,,,,,,,,,,,,,,,,,,,,,,,,,,,,,,
,,6573451f5972cc7e8ba92049,2024-02-19_03h19.04.368,kallum_motion_pilot,2023.2.2,Win32,60.24096386,6573451f5972cc7e8ba92049,65d2b6c8f2eece985d8e374c,65d2c899c3c6633988ab6d2e,0.0245,0.0245,1,24,186,142,1,eightsix,,,,,,,,,,,,,,,,,,,,,,,,,,,,,,,,,,,,,,,,,,,,,,,,,,,,,,,,,,,,,,,,,,,,,,,,,,,,,,,,,,,,,,,,,,,,,,,,,,,,,,,,,,,,,,,,,,,,,,,,,,,,,,,,,,,,,,,,,
,,6573451f5972cc7e8ba92049,2024-02-19_03h19.04.368,kallum_motion_pilot,2023.2.2,Win32,60.24096386,6573451f5972cc7e8ba92049,65d2b6c8f2eece985d8e374c,65d2c899c3c6633988ab6d2e,0.0245,0.0246,1,25,187,108,1,sevenfive,,,,,,,,,,,,,,,,,,,,,,,,,,,,,,,,,,,,,,,,,,,,,,,,,,,,,,,,,,,,,,,,,,,,,,,,,,,,,,,,,,,,,,,,,,,,,,,,,,,,,,,,,,,,,,,,,,,,,,,,,,,,,,,,,,,,,,,,,
,,6573451f5972cc7e8ba92049,2024-02-19_03h19.04.368,kallum_motion_pilot,2023.2.2,Win32,60.24096386,6573451f5972cc7e8ba92049,65d2b6c8f2eece985d8e374c,65d2c899c3c6633988ab6d2e,0.0246,0.0246,1,26,188,59,1,twofour,,,,,,,,,,,,,,,,,,,,,,,,,,,,,,,,,,,,,,,,,,,,,,,,,,,,,,,,,,,,,,,,,,,,,,,,,,,,,,,,,,,,,,,,,,,,,,,,,,,,,,,,,,,,,,,,,,,,,,,,,,,,,,,,,,,,,,,,,
,,6573451f5972cc7e8ba92049,2024-02-19_03h19.04.368,kallum_motion_pilot,2023.2.2,Win32,60.24096386,6573451f5972cc7e8ba92049,65d2b6c8f2eece985d8e374c,65d2c899c3c6633988ab6d2e,0.0247,0.0247,1,27,189,154,1,sixfive,,,,,,,,,,,,,,,,,,,,,,,,,,,,,,,,,,,,,,,,,,,,,,,,,,,,,,,,,,,,,,,,,,,,,,,,,,,,,,,,,,,,,,,,,,,,,,,,,,,,,,,,,,,,,,,,,,,,,,,,,,,,,,,,,,,,,,,,,
,,6573451f5972cc7e8ba92049,2024-02-19_03h19.04.368,kallum_motion_pilot,2023.2.2,Win32,60.24096386,6573451f5972cc7e8ba92049,65d2b6c8f2eece985d8e374c,65d2c899c3c6633988ab6d2e,0.0248,0.0248,1,28,190,124,1,sevenfive,,,,,,,,,,,,,,,,,,,,,,,,,,,,,,,,,,,,,,,,,,,,,,,,,,,,,,,,,,,,,,,,,,,,,,,,,,,,,,,,,,,,,,,,,,,,,,,,,,,,,,,,,,,,,,,,,,,,,,,,,,,,,,,,,,,,,,,,,
,,6573451f5972cc7e8ba92049,2024-02-19_03h19.04.368,kallum_motion_pilot,2023.2.2,Win32,60.24096386,6573451f5972cc7e8ba92049,65d2b6c8f2eece985d8e374c,65d2c899c3c6633988ab6d2e,0.0248,0.0248,1,29,191,161,1,fiveseven,,,,,,,,,,,,,,,,,,,,,,,,,,,,,,,,,,,,,,,,,,,,,,,,,,,,,,,,,,,,,,,,,,,,,,,,,,,,,,,,,,,,,,,,,,,,,,,,,,,,,,,,,,,,,,,,,,,,,,,,,,,,,,,,,,,,,,,,,
,,6573451f5972cc7e8ba92049,2024-02-19_03h19.04.368,kallum_motion_pilot,2023.2.2,Win32,60.24096386,6573451f5972cc7e8ba92049,65d2b6c8f2eece985d8e374c,65d2c899c3c6633988ab6d2e,0.0249,0.0249,1,30,192,152,1,fivesix,,,,,,,,,,,,,,,,,,,,,,,,,,,,,,,,,,,,,,,,,,,,,,,,,,,,,,,,,,,,,,,,,,,,,,,,,,,,,,,,,,,,,,,,,,,,,,,,,,,,,,,,,,,,,,,,,,,,,,,,,,,,,,,,,,,,,,,,,
,,6573451f5972cc7e8ba92049,2024-02-19_03h19.04.368,kallum_motion_pilot,2023.2.2,Win32,60.24096386,6573451f5972cc7e8ba92049,65d2b6c8f2eece985d8e374c,65d2c899c3c6633988ab6d2e,0.025,0.025,1,31,193,60,1,threeone,,,,,,,,,,,,,,,,,,,,,,,,,,,,,,,,,,,,,,,,,,,,,,,,,,,,,,,,,,,,,,,,,,,,,,,,,,,,,,,,,,,,,,,,,,,,,,,,,,,,,,,,,,,,,,,,,,,,,,,,,,,,,,,,,,,,,,,,,
,,6573451f5972cc7e8ba92049,2024-02-19_03h19.04.368,kallum_motion_pilot,2023.2.2,Win32,60.24096386,6573451f5972cc7e8ba92049,65d2b6c8f2eece985d8e374c,65d2c899c3c6633988ab6d2e,0.0251,0.0251,1,32,194,158,1,eightsix,,,,,,,,,,,,,,,,,,,,,,,,,,,,,,,,,,,,,,,,,,,,,,,,,,,,,,,,,,,,,,,,,,,,,,,,,,,,,,,,,,,,,,,,,,,,,,,,,,,,,,,,,,,,,,,,,,,,,,,,,,,,,,,,,,,,,,,,,
,,6573451f5972cc7e8ba92049,2024-02-19_03h19.04.368,kallum_motion_pilot,2023.2.2,Win32,60.24096386,6573451f5972cc7e8ba92049,65d2b6c8f2eece985d8e374c,65d2c899c3c6633988ab6d2e,0.0251,0.0251,1,33,195,96,1,fivesix,,,,,,,,,,,,,,,,,,,,,,,,,,,,,,,,,,,,,,,,,,,,,,,,,,,,,,,,,,,,,,,,,,,,,,,,,,,,,,,,,,,,,,,,,,,,,,,,,,,,,,,,,,,,,,,,,,,,,,,,,,,,,,,,,,,,,,,,,
,,6573451f5972cc7e8ba92049,2024-02-19_03h19.04.368,kallum_motion_pilot,2023.2.2,Win32,60.24096386,6573451f5972cc7e8ba92049,65d2b6c8f2eece985d8e374c,65d2c899c3c6633988ab6d2e,0.0252,0.0252,1,34,196,84,1,sevenfive,,,,,,,,,,,,,,,,,,,,,,,,,,,,,,,,,,,,,,,,,,,,,,,,,,,,,,,,,,,,,,,,,,,,,,,,,,,,,,,,,,,,,,,,,,,,,,,,,,,,,,,,,,,,,,,,,,,,,,,,,,,,,,,,,,,,,,,,,
,,6573451f5972cc7e8ba92049,2024-02-19_03h19.04.368,kallum_motion_pilot,2023.2.2,Win32,60.24096386,6573451f5972cc7e8ba92049,65d2b6c8f2eece985d8e374c,65d2c899c3c6633988ab6d2e,0.0253,0.0253,1,35,197,72,1,onetwo,,,,,,,,,,,,,,,,,,,,,,,,,,,,,,,,,,,,,,,,,,,,,,,,,,,,,,,,,,,,,,,,,,,,,,,,,,,,,,,,,,,,,,,,,,,,,,,,,,,,,,,,,,,,,,,,,,,,,,,,,,,,,,,,,,,,,,,,,
,,6573451f5972cc7e8ba92049,2024-02-19_03h19.04.368,kallum_motion_pilot,2023.2.2,Win32,60.24096386,6573451f5972cc7e8ba92049,65d2b6c8f2eece985d8e374c,65d2c899c3c6633988ab6d2e,0.0254,0.0254,1,36,198,137,1,fiveseven,,,,,,,,,,,,,,,,,,,,,,,,,,,,,,,,,,,,,,,,,,,,,,,,,,,,,,,,,,,,,,,,,,,,,,,,,,,,,,,,,,,,,,,,,,,,,,,,,,,,,,,,,,,,,,,,,,,,,,,,,,,,,,,,,,,,,,,,,
,,6573451f5972cc7e8ba92049,2024-02-19_03h19.04.368,kallum_motion_pilot,2023.2.2,Win32,60.24096386,6573451f5972cc7e8ba92049,65d2b6c8f2eece985d8e374c,65d2c899c3c6633988ab6d2e,0.0254,0.0255,1,37,199,53,1,threefour,,,,,,,,,,,,,,,,,,,,,,,,,,,,,,,,,,,,,,,,,,,,,,,,,,,,,,,,,,,,,,,,,,,,,,,,,,,,,,,,,,,,,,,,,,,,,,,,,,,,,,,,,,,,,,,,,,,,,,,,,,,,,,,,,,,,,,,,,
,,6573451f5972cc7e8ba92049,2024-02-19_03h19.04.368,kallum_motion_pilot,2023.2.2,Win32,60.24096386,6573451f5972cc7e8ba92049,65d2b6c8f2eece985d8e374c,65d2c899c3c6633988ab6d2e,0.0255,0.0256,1,38,200,101,1,seveneight,,,,,,,,,,,,,,,,,,,,,,,,,,,,,,,,,,,,,,,,,,,,,,,,,,,,,,,,,,,,,,,,,,,,,,,,,,,,,,,,,,,,,,,,,,,,,,,,,,,,,,,,,,,,,,,,,,,,,,,,,,,,,,,,,,,,,,,,,
,,6573451f5972cc7e8ba92049,2024-02-19_03h19.04.368,kallum_motion_pilot,2023.2.2,Win32,60.24096386,6573451f5972cc7e8ba92049,65d2b6c8f2eece985d8e374c,65d2c899c3c6633988ab6d2e,0.0256,0.0256,1,39,201,27,1,twofour,,,,,,,,,,,,,,,,,,,,,,,,,,,,,,,,,,,,,,,,,,,,,,,,,,,,,,,,,,,,,,,,,,,,,,,,,,,,,,,,,,,,,,,,,,,,,,,,,,,,,,,,,,,,,,,,,,,,,,,,,,,,,,,,,,,,,,,,,
,,6573451f5972cc7e8ba92049,2024-02-19_03h19.04.368,kallum_motion_pilot,2023.2.2,Win32,60.24096386,6573451f5972cc7e8ba92049,65d2b6c8f2eece985d8e374c,65d2c899c3c6633988ab6d2e,0.0257,0.0257,1,40,202,16,1,onetwo,,,,,,,,,,,,,,,,,,,,,,,,,,,,,,,,,,,,,,,,,,,,,,,,,,,,,,,,,,,,,,,,,,,,,,,,,,,,,,,,,,,,,,,,,,,,,,,,,,,,,,,,,,,,,,,,,,,,,,,,,,,,,,,,,,,,,,,,,
,,6573451f5972cc7e8ba92049,2024-02-19_03h19.04.368,kallum_motion_pilot,2023.2.2,Win32,60.24096386,6573451f5972cc7e8ba92049,65d2b6c8f2eece985d8e374c,65d2c899c3c6633988ab6d2e,0.0257,0.0258,1,41,203,40,1,onetwo,,,,,,,,,,,,,,,,,,,,,,,,,,,,,,,,,,,,,,,,,,,,,,,,,,,,,,,,,,,,,,,,,,,,,,,,,,,,,,,,,,,,,,,,,,,,,,,,,,,,,,,,,,,,,,,,,,,,,,,,,,,,,,,,,,,,,,,,,
,,6573451f5972cc7e8ba92049,2024-02-19_03h19.04.368,kallum_motion_pilot,2023.2.2,Win32,60.24096386,6573451f5972cc7e8ba92049,65d2b6c8f2eece985d8e374c,65d2c899c3c6633988ab6d2e,0.0258,0.0258,1,42,204,49,1,onethree,,,,,,,,,,,,,,,,,,,,,,,,,,,,,,,,,,,,,,,,,,,,,,,,,,,,,,,,,,,,,,,,,,,,,,,,,,,,,,,,,,,,,,,,,,,,,,,,,,,,,,,,,,,,,,,,,,,,,,,,,,,,,,,,,,,,,,,,,
,,6573451f5972cc7e8ba92049,2024-02-19_03h19.04.368,kallum_motion_pilot,2023.2.2,Win32,60.24096386,6573451f5972cc7e8ba92049,65d2b6c8f2eece985d8e374c,65d2c899c3c6633988ab6d2e,0.0259,0.0259,1,43,205,8,1,onetwo,,,,,,,,,,,,,,,,,,,,,,,,,,,,,,,,,,,,,,,,,,,,,,,,,,,,,,,,,,,,,,,,,,,,,,,,,,,,,,,,,,,,,,,,,,,,,,,,,,,,,,,,,,,,,,,,,,,,,,,,,,,,,,,,,,,,,,,,,
,,6573451f5972cc7e8ba92049,2024-02-19_03h19.04.368,kallum_motion_pilot,2023.2.2,Win32,60.24096386,6573451f5972cc7e8ba92049,65d2b6c8f2eece985d8e374c,65d2c899c3c6633988ab6d2e,0.0259,0.026,1,44,206,17,1,onethree,,,,,,,,,,,,,,,,,,,,,,,,,,,,,,,,,,,,,,,,,,,,,,,,,,,,,,,,,,,,,,,,,,,,,,,,,,,,,,,,,,,,,,,,,,,,,,,,,,,,,,,,,,,,,,,,,,,,,,,,,,,,,,,,,,,,,,,,,
,,6573451f5972cc7e8ba92049,2024-02-19_03h19.04.368,kallum_motion_pilot,2023.2.2,Win32,60.24096386,6573451f5972cc7e8ba92049,65d2b6c8f2eece985d8e374c,65d2c899c3c6633988ab6d2e,0.026,0.0261,1,45,207,139,1,sixeight,,,,,,,,,,,,,,,,,,,,,,,,,,,,,,,,,,,,,,,,,,,,,,,,,,,,,,,,,,,,,,,,,,,,,,,,,,,,,,,,,,,,,,,,,,,,,,,,,,,,,,,,,,,,,,,,,,,,,,,,,,,,,,,,,,,,,,,,,
,,6573451f5972cc7e8ba92049,2024-02-19_03h19.04.368,kallum_motion_pilot,2023.2.2,Win32,60.24096386,6573451f5972cc7e8ba92049,65d2b6c8f2eece985d8e374c,65d2c899c3c6633988ab6d2e,0.0261,0.0262,1,46,208,13,1,threefour,,,,,,,,,,,,,,,,,,,,,,,,,,,,,,,,,,,,,,,,,,,,,,,,,,,,,,,,,,,,,,,,,,,,,,,,,,,,,,,,,,,,,,,,,,,,,,,,,,,,,,,,,,,,,,,,,,,,,,,,,,,,,,,,,,,,,,,,,
,,6573451f5972cc7e8ba92049,2024-02-19_03h19.04.368,kallum_motion_pilot,2023.2.2,Win32,60.24096386,6573451f5972cc7e8ba92049,65d2b6c8f2eece985d8e374c,65d2c899c3c6633988ab6d2e,0.0262,0.0262,1,47,209,100,1,sevenfive,,,,,,,,,,,,,,,,,,,,,,,,,,,,,,,,,,,,,,,,,,,,,,,,,,,,,,,,,,,,,,,,,,,,,,,,,,,,,,,,,,,,,,,,,,,,,,,,,,,,,,,,,,,,,,,,,,,,,,,,,,,,,,,,,,,,,,,,,
,,6573451f5972cc7e8ba92049,2024-02-19_03h19.04.368,kallum_motion_pilot,2023.2.2,Win32,60.24096386,6573451f5972cc7e8ba92049,65d2b6c8f2eece985d8e374c,65d2c899c3c6633988ab6d2e,0.0262,0.0263,1,48,210,118,1,eightsix,,,,,,,,,,,,,,,,,,,,,,,,,,,,,,,,,,,,,,,,,,,,,,,,,,,,,,,,,,,,,,,,,,,,,,,,,,,,,,,,,,,,,,,,,,,,,,,,,,,,,,,,,,,,,,,,,,,,,,,,,,,,,,,,,,,,,,,,,
,,6573451f5972cc7e8ba92049,2024-02-19_03h19.04.368,kallum_motion_pilot,2023.2.2,Win32,60.24096386,6573451f5972cc7e8ba92049,65d2b6c8f2eece985d8e374c,65d2c899c3c6633988ab6d2e,0.0264,0.0264,1,49,211,76,1,threeone,,,,,,,,,,,,,,,,,,,,,,,,,,,,,,,,,,,,,,,,,,,,,,,,,,,,,,,,,,,,,,,,,,,,,,,,,,,,,,,,,,,,,,,,,,,,,,,,,,,,,,,,,,,,,,,,,,,,,,,,,,,,,,,,,,,,,,,,,
,,6573451f5972cc7e8ba92049,2024-02-19_03h19.04.368,kallum_motion_pilot,2023.2.2,Win32,60.24096386,6573451f5972cc7e8ba92049,65d2b6c8f2eece985d8e374c,65d2c899c3c6633988ab6d2e,0.0264,0.0264,1,50,212,35,1,twofour,,,,,,,,,,,,,,,,,,,,,,,,,,,,,,,,,,,,,,,,,,,,,,,,,,,,,,,,,,,,,,,,,,,,,,,,,,,,,,,,,,,,,,,,,,,,,,,,,,,,,,,,,,,,,,,,,,,,,,,,,,,,,,,,,,,,,,,,,
,,6573451f5972cc7e8ba92049,2024-02-19_03h19.04.368,kallum_motion_pilot,2023.2.2,Win32,60.24096386,6573451f5972cc7e8ba92049,65d2b6c8f2eece985d8e374c,65d2c899c3c6633988ab6d2e,0.0264,0.0266,1,51,213,4,1,threeone,,,,,,,,,,,,,,,,,,,,,,,,,,,,,,,,,,,,,,,,,,,,,,,,,,,,,,,,,,,,,,,,,,,,,,,,,,,,,,,,,,,,,,,,,,,,,,,,,,,,,,,,,,,,,,,,,,,,,,,,,,,,,,,,,,,,,,,,,
,,6573451f5972cc7e8ba92049,2024-02-19_03h19.04.368,kallum_motion_pilot,2023.2.2,Win32,60.24096386,6573451f5972cc7e8ba92049,65d2b6c8f2eece985d8e374c,65d2c899c3c6633988ab6d2e,0.0266,0.0266,1,52,214,92,1,sevenfive,,,,,,,,,,,,,,,,,,,,,,,,,,,,,,,,,,,,,,,,,,,,,,,,,,,,,,,,,,,,,,,,,,,,,,,,,,,,,,,,,,,,,,,,,,,,,,,,,,,,,,,,,,,,,,,,,,,,,,,,,,,,,,,,,,,,,,,,,
,,6573451f5972cc7e8ba92049,2024-02-19_03h19.04.368,kallum_motion_pilot,2023.2.2,Win32,60.24096386,6573451f5972cc7e8ba92049,65d2b6c8f2eece985d8e374c,65d2c899c3c6633988ab6d2e,0.0267,0.0267,1,53,215,51,1,twofour,,,,,,,,,,,,,,,,,,,,,,,,,,,,,,,,,,,,,,,,,,,,,,,,,,,,,,,,,,,,,,,,,,,,,,,,,,,,,,,,,,,,,,,,,,,,,,,,,,,,,,,,,,,,,,,,,,,,,,,,,,,,,,,,,,,,,,,,,
,,6573451f5972cc7e8ba92049,2024-02-19_03h19.04.368,kallum_motion_pilot,2023.2.2,Win32,60.24096386,6573451f5972cc7e8ba92049,65d2b6c8f2eece985d8e374c,65d2c899c3c6633988ab6d2e,0.0267,0.0267,1,54,216,68,1,threeone,,,,,,,,,,,,,,,,,,,,,,,,,,,,,,,,,,,,,,,,,,,,,,,,,,,,,,,,,,,,,,,,,,,,,,,,,,,,,,,,,,,,,,,,,,,,,,,,,,,,,,,,,,,,,,,,,,,,,,,,,,,,,,,,,,,,,,,,,
,,6573451f5972cc7e8ba92049,2024-02-19_03h19.04.368,kallum_motion_pilot,2023.2.2,Win32,60.24096386,6573451f5972cc7e8ba92049,65d2b6c8f2eece985d8e374c,65d2c899c3c6633988ab6d2e,0.0268,0.0268,1,55,217,77,1,threefour,,,,,,,,,,,,,,,,,,,,,,,,,,,,,,,,,,,,,,,,,,,,,,,,,,,,,,,,,,,,,,,,,,,,,,,,,,,,,,,,,,,,,,,,,,,,,,,,,,,,,,,,,,,,,,,,,,,,,,,,,,,,,,,,,,,,,,,,,
,,6573451f5972cc7e8ba92049,2024-02-19_03h19.04.368,kallum_motion_pilot,2023.2.2,Win32,60.24096386,6573451f5972cc7e8ba92049,65d2b6c8f2eece985d8e374c,65d2c899c3c6633988ab6d2e,0.0268,0.0269,1,56,218,114,1,sixfive,,,,,,,,,,,,,,,,,,,,,,,,,,,,,,,,,,,,,,,,,,,,,,,,,,,,,,,,,,,,,,,,,,,,,,,,,,,,,,,,,,,,,,,,,,,,,,,,,,,,,,,,,,,,,,,,,,,,,,,,,,,,,,,,,,,,,,,,,
,,6573451f5972cc7e8ba92049,2024-02-19_03h19.04.368,kallum_motion_pilot,2023.2.2,Win32,60.24096386,6573451f5972cc7e8ba92049,65d2b6c8f2eece985d8e374c,65d2c899c3c6633988ab6d2e,0.0269,0.0269,1,57,219,39,1,fourthree,,,,,,,,,,,,,,,,,,,,,,,,,,,,,,,,,,,,,,,,,,,,,,,,,,,,,,,,,,,,,,,,,,,,,,,,,,,,,,,,,,,,,,,,,,,,,,,,,,,,,,,,,,,,,,,,,,,,,,,,,,,,,,,,,,,,,,,,,
,,6573451f5972cc7e8ba92049,2024-02-19_03h19.04.368,kallum_motion_pilot,2023.2.2,Win32,60.24096386,6573451f5972cc7e8ba92049,65d2b6c8f2eece985d8e374c,65d2c899c3c6633988ab6d2e,0.027,0.027,1,58,220,71,1,fourthree,,,,,,,,,,,,,,,,,,,,,,,,,,,,,,,,,,,,,,,,,,,,,,,,,,,,,,,,,,,,,,,,,,,,,,,,,,,,,,,,,,,,,,,,,,,,,,,,,,,,,,,,,,,,,,,,,,,,,,,,,,,,,,,,,,,,,,,,,
,,6573451f5972cc7e8ba92049,2024-02-19_03h19.04.368,kallum_motion_pilot,2023.2.2,Win32,60.24096386,6573451f5972cc7e8ba92049,65d2b6c8f2eece985d8e374c,65d2c899c3c6633988ab6d2e,0.0271,0.0271,1,59,221,66,1,twoone,,,,,,,,,,,,,,,,,,,,,,,,,,,,,,,,,,,,,,,,,,,,,,,,,,,,,,,,,,,,,,,,,,,,,,,,,,,,,,,,,,,,,,,,,,,,,,,,,,,,,,,,,,,,,,,,,,,,,,,,,,,,,,,,,,,,,,,,,
,,6573451f5972cc7e8ba92049,2024-02-19_03h19.04.368,kallum_motion_pilot,2023.2.2,Win32,60.24096386,6573451f5972cc7e8ba92049,65d2b6c8f2eece985d8e374c,65d2c899c3c6633988ab6d2e,0.0271,0.0272,1,60,222,160,1,fivesix,,,,,,,,,,,,,,,,,,,,,,,,,,,,,,,,,,,,,,,,,,,,,,,,,,,,,,,,,,,,,,,,,,,,,,,,,,,,,,,,,,,,,,,,,,,,,,,,,,,,,,,,,,,,,,,,,,,,,,,,,,,,,,,,,,,,,,,,,
,,6573451f5972cc7e8ba92049,2024-02-19_03h19.04.368,kallum_motion_pilot,2023.2.2,Win32,60.24096386,6573451f5972cc7e8ba92049,65d2b6c8f2eece985d8e374c,65d2c899c3c6633988ab6d2e,0.0272,0.0272,1,61,223,15,1,fourthree,,,,,,,,,,,,,,,,,,,,,,,,,,,,,,,,,,,,,,,,,,,,,,,,,,,,,,,,,,,,,,,,,,,,,,,,,,,,,,,,,,,,,,,,,,,,,,,,,,,,,,,,,,,,,,,,,,,,,,,,,,,,,,,,,,,,,,,,,
,,6573451f5972cc7e8ba92049,2024-02-19_03h19.04.368,kallum_motion_pilot,2023.2.2,Win32,60.24096386,6573451f5972cc7e8ba92049,65d2b6c8f2eece985d8e374c,65d2c899c3c6633988ab6d2e,0.0273,0.0274,1,62,224,7,1,fourthree,,,,,,,,,,,,,,,,,,,,,,,,,,,,,,,,,,,,,,,,,,,,,,,,,,,,,,,,,,,,,,,,,,,,,,,,,,,,,,,,,,,,,,,,,,,,,,,,,,,,,,,,,,,,,,,,,,,,,,,,,,,,,,,,,,,,,,,,,
,,6573451f5972cc7e8ba92049,2024-02-19_03h19.04.368,kallum_motion_pilot,2023.2.2,Win32,60.24096386,6573451f5972cc7e8ba92049,65d2b6c8f2eece985d8e374c,65d2c899c3c6633988ab6d2e,0.0274,0.0274,1,63,225,42,1,twoone,,,,,,,,,,,,,,,,,,,,,,,,,,,,,,,,,,,,,,,,,,,,,,,,,,,,,,,,,,,,,,,,,,,,,,,,,,,,,,,,,,,,,,,,,,,,,,,,,,,,,,,,,,,,,,,,,,,,,,,,,,,,,,,,,,,,,,,,,
,,6573451f5972cc7e8ba92049,2024-02-19_03h19.04.368,kallum_motion_pilot,2023.2.2,Win32,60.24096386,6573451f5972cc7e8ba92049,65d2b6c8f2eece985d8e374c,65d2c899c3c6633988ab6d2e,0.0274,0.0274,1,64,226,89,1,fiveseven,,,,,,,,,,,,,,,,,,,,,,,,,,,,,,,,,,,,,,,,,,,,,,,,,,,,,,,,,,,,,,,,,,,,,,,,,,,,,,,,,,,,,,,,,,,,,,,,,,,,,,,,,,,,,,,,,,,,,,,,,,,,,,,,,,,,,,,,,
,,6573451f5972cc7e8ba92049,2024-02-19_03h19.04.368,kallum_motion_pilot,2023.2.2,Win32,60.24096386,6573451f5972cc7e8ba92049,65d2b6c8f2eece985d8e374c,65d2c899c3c6633988ab6d2e,0.0275,0.0276,1,65,227,109,1,seveneight,,,,,,,,,,,,,,,,,,,,,,,,,,,,,,,,,,,,,,,,,,,,,,,,,,,,,,,,,,,,,,,,,,,,,,,,,,,,,,,,,,,,,,,,,,,,,,,,,,,,,,,,,,,,,,,,,,,,,,,,,,,,,,,,,,,,,,,,,
,,6573451f5972cc7e8ba92049,2024-02-19_03h19.04.368,kallum_motion_pilot,2023.2.2,Win32,60.24096386,6573451f5972cc7e8ba92049,65d2b6c8f2eece985d8e374c,65d2c899c3c6633988ab6d2e,0.0277,0.0277,1,66,228,33,1,onethree,,,,,,,,,,,,,,,,,,,,,,,,,,,,,,,,,,,,,,,,,,,,,,,,,,,,,,,,,,,,,,,,,,,,,,,,,,,,,,,,,,,,,,,,,,,,,,,,,,,,,,,,,,,,,,,,,,,,,,,,,,,,,,,,,,,,,,,,,
,,6573451f5972cc7e8ba92049,2024-02-19_03h19.04.368,kallum_motion_pilot,2023.2.2,Win32,60.24096386,6573451f5972cc7e8ba92049,65d2b6c8f2eece985d8e374c,65d2c899c3c6633988ab6d2e,0.0277,0.0278,1,67,229,130,1,sixfive,,,,,,,,,,,,,,,,,,,,,,,,,,,,,,,,,,,,,,,,,,,,,,,,,,,,,,,,,,,,,,,,,,,,,,,,,,,,,,,,,,,,,,,,,,,,,,,,,,,,,,,,,,,,,,,,,,,,,,,,,,,,,,,,,,,,,,,,,
,,6573451f5972cc7e8ba92049,2024-02-19_03h19.04.368,kallum_motion_pilot,2023.2.2,Win32,60.24096386,6573451f5972cc7e8ba92049,65d2b6c8f2eece985d8e374c,65d2c899c3c6633988ab6d2e,0.0278,0.0279,1,68,230,9,1,onethree,,,,,,,,,,,,,,,,,,,,,,,,,,,,,,,,,,,,,,,,,,,,,,,,,,,,,,,,,,,,,,,,,,,,,,,,,,,,,,,,,,,,,,,,,,,,,,,,,,,,,,,,,,,,,,,,,,,,,,,,,,,,,,,,,,,,,,,,,
,,6573451f5972cc7e8ba92049,2024-02-19_03h19.04.368,kallum_motion_pilot,2023.2.2,Win32,60.24096386,6573451f5972cc7e8ba92049,65d2b6c8f2eece985d8e374c,65d2c899c3c6633988ab6d2e,0.0279,0.028,1,69,231,153,1,fiveseven,,,,,,,,,,,,,,,,,,,,,,,,,,,,,,,,,,,,,,,,,,,,,,,,,,,,,,,,,,,,,,,,,,,,,,,,,,,,,,,,,,,,,,,,,,,,,,,,,,,,,,,,,,,,,,,,,,,,,,,,,,,,,,,,,,,,,,,,,
,,6573451f5972cc7e8ba92049,2024-02-19_03h19.04.368,kallum_motion_pilot,2023.2.2,Win32,60.24096386,6573451f5972cc7e8ba92049,65d2b6c8f2eece985d8e374c,65d2c899c3c6633988ab6d2e,0.028,0.028,1,70,232,81,1,fiveseven,,,,,,,,,,,,,,,,,,,,,,,,,,,,,,,,,,,,,,,,,,,,,,,,,,,,,,,,,,,,,,,,,,,,,,,,,,,,,,,,,,,,,,,,,,,,,,,,,,,,,,,,,,,,,,,,,,,,,,,,,,,,,,,,,,,,,,,,,
,,6573451f5972cc7e8ba92049,2024-02-19_03h19.04.368,kallum_motion_pilot,2023.2.2,Win32,60.24096386,6573451f5972cc7e8ba92049,65d2b6c8f2eece985d8e374c,65d2c899c3c6633988ab6d2e,0.028,0.0281,1,71,233,22,1,fourtwo,,,,,,,,,,,,,,,,,,,,,,,,,,,,,,,,,,,,,,,,,,,,,,,,,,,,,,,,,,,,,,,,,,,,,,,,,,,,,,,,,,,,,,,,,,,,,,,,,,,,,,,,,,,,,,,,,,,,,,,,,,,,,,,,,,,,,,,,,
,,6573451f5972cc7e8ba92049,2024-02-19_03h19.04.368,kallum_motion_pilot,2023.2.2,Win32,60.24096386,6573451f5972cc7e8ba92049,65d2b6c8f2eece985d8e374c,65d2c899c3c6633988ab6d2e,0.0281,0.0282,1,72,234,69,1,threefour,,,,,,,,,,,,,,,,,,,,,,,,,,,,,,,,,,,,,,,,,,,,,,,,,,,,,,,,,,,,,,,,,,,,,,,,,,,,,,,,,,,,,,,,,,,,,,,,,,,,,,,,,,,,,,,,,,,,,,,,,,,,,,,,,,,,,,,,,
,,6573451f5972cc7e8ba92049,2024-02-19_03h19.04.368,kallum_motion_pilot,2023.2.2,Win32,60.24096386,6573451f5972cc7e8ba92049,65d2b6c8f2eece985d8e374c,65d2c899c3c6633988ab6d2e,0.0282,0.0282,1,73,235,110,1,eightsix,,,,,,,,,,,,,,,,,,,,,,,,,,,,,,,,,,,,,,,,,,,,,,,,,,,,,,,,,,,,,,,,,,,,,,,,,,,,,,,,,,,,,,,,,,,,,,,,,,,,,,,,,,,,,,,,,,,,,,,,,,,,,,,,,,,,,,,,,
,,6573451f5972cc7e8ba92049,2024-02-19_03h19.04.368,kallum_motion_pilot,2023.2.2,Win32,60.24096386,6573451f5972cc7e8ba92049,65d2b6c8f2eece985d8e374c,65d2c899c3c6633988ab6d2e,0.0283,0.0284,1,74,236,44,1,threeone,,,,,,,,,,,,,,,,,,,,,,,,,,,,,,,,,,,,,,,,,,,,,,,,,,,,,,,,,,,,,,,,,,,,,,,,,,,,,,,,,,,,,,,,,,,,,,,,,,,,,,,,,,,,,,,,,,,,,,,,,,,,,,,,,,,,,,,,,
,,6573451f5972cc7e8ba92049,2024-02-19_03h19.04.368,kallum_motion_pilot,2023.2.2,Win32,60.24096386,6573451f5972cc7e8ba92049,65d2b6c8f2eece985d8e374c,65d2c899c3c6633988ab6d2e,0.0284,0.0284,1,75,237,136,1,fivesix,,,,,,,,,,,,,,,,,,,,,,,,,,,,,,,,,,,,,,,,,,,,,,,,,,,,,,,,,,,,,,,,,,,,,,,,,,,,,,,,,,,,,,,,,,,,,,,,,,,,,,,,,,,,,,,,,,,,,,,,,,,,,,,,,,,,,,,,,
,,6573451f5972cc7e8ba92049,2024-02-19_03h19.04.368,kallum_motion_pilot,2023.2.2,Win32,60.24096386,6573451f5972cc7e8ba92049,65d2b6c8f2eece985d8e374c,65d2c899c3c6633988ab6d2e,0.0285,0.0285,1,76,238,25,1,onethree,,,,,,,,,,,,,,,,,,,,,,,,,,,,,,,,,,,,,,,,,,,,,,,,,,,,,,,,,,,,,,,,,,,,,,,,,,,,,,,,,,,,,,,,,,,,,,,,,,,,,,,,,,,,,,,,,,,,,,,,,,,,,,,,,,,,,,,,,
,,6573451f5972cc7e8ba92049,2024-02-19_03h19.04.368,kallum_motion_pilot,2023.2.2,Win32,60.24096386,6573451f5972cc7e8ba92049,65d2b6c8f2eece985d8e374c,65d2c899c3c6633988ab6d2e,0.0286,0.0286,1,77,239,55,1,fourthree,,,,,,,,,,,,,,,,,,,,,,,,,,,,,,,,,,,,,,,,,,,,,,,,,,,,,,,,,,,,,,,,,,,,,,,,,,,,,,,,,,,,,,,,,,,,,,,,,,,,,,,,,,,,,,,,,,,,,,,,,,,,,,,,,,,,,,,,,
,,6573451f5972cc7e8ba92049,2024-02-19_03h19.04.368,kallum_motion_pilot,2023.2.2,Win32,60.24096386,6573451f5972cc7e8ba92049,65d2b6c8f2eece985d8e374c,65d2c899c3c6633988ab6d2e,0.0294,0.0295,1,78,240,140,1,sevenfive,,,,,,,,,,,,,,,,,,,,,,,,,,,,,,,,,,,,,,,,,,,,,,,,,,,,,,,,,,,,,,,,,,,,,,,,,,,,,,,,,,,,,,,,,,,,,,,,,,,,,,,,,,,,,,,,,,,,,,,,,,,,,,,,,,,,,,,,,
,,6573451f5972cc7e8ba92049,2024-02-19_03h19.04.368,kallum_motion_pilot,2023.2.2,Win32,60.24096386,6573451f5972cc7e8ba92049,65d2b6c8f2eece985d8e374c,65d2c899c3c6633988ab6d2e,0.0295,0.0295,1,79,241,93,1,seveneight,,,,,,,,,,,,,,,,,,,,,,,,,,,,,,,,,,,,,,,,,,,,,,,,,,,,,,,,,,,,,,,,,,,,,,,,,,,,,,,,,,,,,,,,,,,,,,,,,,,,,,,,,,,,,,,,,,,,,,,,,,,,,,,,,,,,,,,,,
,,6573451f5972cc7e8ba92049,2024-02-19_03h19.04.368,kallum_motion_pilot,2023.2.2,Win32,60.24096386,6573451f5972cc7e8ba92049,65d2b6c8f2eece985d8e374c,65d2c899c3c6633988ab6d2e,0.0296,0.0296,1,80,242,3,1,twofour,,,,,,,,,,,,,,,,,,,,,,,,,,,,,,,,,,,,,,,,,,,,,,,,,,,,,,,,,,,,,,,,,,,,,,,,,,,,,,,,,,,,,,,,,,,,,,,,,,,,,,,,,,,,,,,,,,,,,,,,,,,,,,,,,,,,,,,,,
,,6573451f5972cc7e8ba92049,2024-02-19_03h19.04.368,kallum_motion_pilot,2023.2.2,Win32,60.24096386,6573451f5972cc7e8ba92049,65d2b6c8f2eece985d8e374c,65d2c899c3c6633988ab6d2e,0.0296,0.0297,1,81,243,85,1,seveneight,,,,,,,,,,,,,,,,,,,,,,,,,,,,,,,,,,,,,,,,,,,,,,,,,,,,,,,,,,,,,,,,,,,,,,,,,,,,,,,,,,,,,,,,,,,,,,,,,,,,,,,,,,,,,,,,,,,,,,,,,,,,,,,,,,,,,,,,,
,,6573451f5972cc7e8ba92049,2024-02-19_03h19.04.368,kallum_motion_pilot,2023.2.2,Win32,60.24096386,6573451f5972cc7e8ba92049,65d2b6c8f2eece985d8e374c,65d2c899c3c6633988ab6d2e,0.0297,0.0297,1,82,244,129,1,fiveseven,,,,,,,,,,,,,,,,,,,,,,,,,,,,,,,,,,,,,,,,,,,,,,,,,,,,,,,,,,,,,,,,,,,,,,,,,,,,,,,,,,,,,,,,,,,,,,,,,,,,,,,,,,,,,,,,,,,,,,,,,,,,,,,,,,,,,,,,,
,,6573451f5972cc7e8ba92049,2024-02-19_03h19.04.368,kallum_motion_pilot,2023.2.2,Win32,60.24096386,6573451f5972cc7e8ba92049,65d2b6c8f2eece985d8e374c,65d2c899c3c6633988ab6d2e,0.0298,0.0298,1,83,245,147,1,sixeight,,,,,,,,,,,,,,,,,,,,,,,,,,,,,,,,,,,,,,,,,,,,,,,,,,,,,,,,,,,,,,,,,,,,,,,,,,,,,,,,,,,,,,,,,,,,,,,,,,,,,,,,,,,,,,,,,,,,,,,,,,,,,,,,,,,,,,,,,
,,6573451f5972cc7e8ba92049,2024-02-19_03h19.04.368,kallum_motion_pilot,2023.2.2,Win32,60.24096386,6573451f5972cc7e8ba92049,65d2b6c8f2eece985d8e374c,65d2c899c3c6633988ab6d2e,0.0299,0.0299,1,84,246,95,1,eightseven,,,,,,,,,,,,,,,,,,,,,,,,,,,,,,,,,,,,,,,,,,,,,,,,,,,,,,,,,,,,,,,,,,,,,,,,,,,,,,,,,,,,,,,,,,,,,,,,,,,,,,,,,,,,,,,,,,,,,,,,,,,,,,,,,,,,,,,,,
,,6573451f5972cc7e8ba92049,2024-02-19_03h19.04.368,kallum_motion_pilot,2023.2.2,Win32,60.24096386,6573451f5972cc7e8ba92049,65d2b6c8f2eece985d8e374c,65d2c899c3c6633988ab6d2e,0.03,0.03,1,85,247,65,1,onethree,,,,,,,,,,,,,,,,,,,,,,,,,,,,,,,,,,,,,,,,,,,,,,,,,,,,,,,,,,,,,,,,,,,,,,,,,,,,,,,,,,,,,,,,,,,,,,,,,,,,,,,,,,,,,,,,,,,,,,,,,,,,,,,,,,,,,,,,,
,,6573451f5972cc7e8ba92049,2024-02-19_03h19.04.368,kallum_motion_pilot,2023.2.2,Win32,60.24096386,6573451f5972cc7e8ba92049,65d2b6c8f2eece985d8e374c,65d2c899c3c6633988ab6d2e,0.03,0.0301,1,86,248,56,1,onetwo,,,,,,,,,,,,,,,,,,,,,,,,,,,,,,,,,,,,,,,,,,,,,,,,,,,,,,,,,,,,,,,,,,,,,,,,,,,,,,,,,,,,,,,,,,,,,,,,,,,,,,,,,,,,,,,,,,,,,,,,,,,,,,,,,,,,,,,,,
,,6573451f5972cc7e8ba92049,2024-02-19_03h19.04.368,kallum_motion_pilot,2023.2.2,Win32,60.24096386,6573451f5972cc7e8ba92049,65d2b6c8f2eece985d8e374c,65d2c899c3c6633988ab6d2e,0.0301,0.0302,1,87,249,90,1,sixfive,,,,,,,,,,,,,,,,,,,,,,,,,,,,,,,,,,,,,,,,,,,,,,,,,,,,,,,,,,,,,,,,,,,,,,,,,,,,,,,,,,,,,,,,,,,,,,,,,,,,,,,,,,,,,,,,,,,,,,,,,,,,,,,,,,,,,,,,,
,,6573451f5972cc7e8ba92049,2024-02-19_03h19.04.368,kallum_motion_pilot,2023.2.2,Win32,60.24096386,6573451f5972cc7e8ba92049,65d2b6c8f2eece985d8e374c,65d2c899c3c6633988ab6d2e,0.0302,0.0302,1,88,250,115,1,sixeight,,,,,,,,,,,,,,,,,,,,,,,,,,,,,,,,,,,,,,,,,,,,,,,,,,,,,,,,,,,,,,,,,,,,,,,,,,,,,,,,,,,,,,,,,,,,,,,,,,,,,,,,,,,,,,,,,,,,,,,,,,,,,,,,,,,,,,,,,
,,6573451f5972cc7e8ba92049,2024-02-19_03h19.04.368,kallum_motion_pilot,2023.2.2,Win32,60.24096386,6573451f5972cc7e8ba92049,65d2b6c8f2eece985d8e374c,65d2c899c3c6633988ab6d2e,0.0302,0.0302,1,89,251,97,1,fiveseven,,,,,,,,,,,,,,,,,,,,,,,,,,,,,,,,,,,,,,,,,,,,,,,,,,,,,,,,,,,,,,,,,,,,,,,,,,,,,,,,,,,,,,,,,,,,,,,,,,,,,,,,,,,,,,,,,,,,,,,,,,,,,,,,,,,,,,,,,
,,6573451f5972cc7e8ba92049,2024-02-19_03h19.04.368,kallum_motion_pilot,2023.2.2,Win32,60.24096386,6573451f5972cc7e8ba92049,65d2b6c8f2eece985d8e374c,65d2c899c3c6633988ab6d2e,0.0303,0.0303,1,90,252,122,1,sixfive,,,,,,,,,,,,,,,,,,,,,,,,,,,,,,,,,,,,,,,,,,,,,,,,,,,,,,,,,,,,,,,,,,,,,,,,,,,,,,,,,,,,,,,,,,,,,,,,,,,,,,,,,,,,,,,,,,,,,,,,,,,,,,,,,,,,,,,,,
,,6573451f5972cc7e8ba92049,2024-02-19_03h19.04.368,kallum_motion_pilot,2023.2.2,Win32,60.24096386,6573451f5972cc7e8ba92049,65d2b6c8f2eece985d8e374c,65d2c899c3c6633988ab6d2e,0.0303,0.0304,1,91,253,87,1,eightseven,,,,,,,,,,,,,,,,,,,,,,,,,,,,,,,,,,,,,,,,,,,,,,,,,,,,,,,,,,,,,,,,,,,,,,,,,,,,,,,,,,,,,,,,,,,,,,,,,,,,,,,,,,,,,,,,,,,,,,,,,,,,,,,,,,,,,,,,,
,,6573451f5972cc7e8ba92049,2024-02-19_03h19.04.368,kallum_motion_pilot,2023.2.2,Win32,60.24096386,6573451f5972cc7e8ba92049,65d2b6c8f2eece985d8e374c,65d2c899c3c6633988ab6d2e,0.0305,0.0305,1,92,254,112,1,fivesix,,,,,,,,,,,,,,,,,,,,,,,,,,,,,,,,,,,,,,,,,,,,,,,,,,,,,,,,,,,,,,,,,,,,,,,,,,,,,,,,,,,,,,,,,,,,,,,,,,,,,,,,,,,,,,,,,,,,,,,,,,,,,,,,,,,,,,,,,
,,6573451f5972cc7e8ba92049,2024-02-19_03h19.04.368,kallum_motion_pilot,2023.2.2,Win32,60.24096386,6573451f5972cc7e8ba92049,65d2b6c8f2eece985d8e374c,65d2c899c3c6633988ab6d2e,0.0305,0.0306,1,93,255,144,1,fivesix,,,,,,,,,,,,,,,,,,,,,,,,,,,,,,,,,,,,,,,,,,,,,,,,,,,,,,,,,,,,,,,,,,,,,,,,,,,,,,,,,,,,,,,,,,,,,,,,,,,,,,,,,,,,,,,,,,,,,,,,,,,,,,,,,,,,,,,,,
,,6573451f5972cc7e8ba92049,2024-02-19_03h19.04.368,kallum_motion_pilot,2023.2.2,Win32,60.24096386,6573451f5972cc7e8ba92049,65d2b6c8f2eece985d8e374c,65d2c899c3c6633988ab6d2e,0.0306,0.0306,1,94,256,123,1,sixeight,,,,,,,,,,,,,,,,,,,,,,,,,,,,,,,,,,,,,,,,,,,,,,,,,,,,,,,,,,,,,,,,,,,,,,,,,,,,,,,,,,,,,,,,,,,,,,,,,,,,,,,,,,,,,,,,,,,,,,,,,,,,,,,,,,,,,,,,,
,,6573451f5972cc7e8ba92049,2024-02-19_03h19.04.368,kallum_motion_pilot,2023.2.2,Win32,60.24096386,6573451f5972cc7e8ba92049,65d2b6c8f2eece985d8e374c,65d2c899c3c6633988ab6d2e,0.0307,0.0308,1,95,257,10,1,twoone,,,,,,,,,,,,,,,,,,,,,,,,,,,,,,,,,,,,,,,,,,,,,,,,,,,,,,,,,,,,,,,,,,,,,,,,,,,,,,,,,,,,,,,,,,,,,,,,,,,,,,,,,,,,,,,,,,,,,,,,,,,,,,,,,,,,,,,,,
,,6573451f5972cc7e8ba92049,2024-02-19_03h19.04.368,kallum_motion_pilot,2023.2.2,Win32,60.24096386,6573451f5972cc7e8ba92049,65d2b6c8f2eece985d8e374c,65d2c899c3c6633988ab6d2e,0.0308,0.0308,1,96,258,32,1,onetwo,,,,,,,,,,,,,,,,,,,,,,,,,,,,,,,,,,,,,,,,,,,,,,,,,,,,,,,,,,,,,,,,,,,,,,,,,,,,,,,,,,,,,,,,,,,,,,,,,,,,,,,,,,,,,,,,,,,,,,,,,,,,,,,,,,,,,,,,,
,,6573451f5972cc7e8ba92049,2024-02-19_03h19.04.368,kallum_motion_pilot,2023.2.2,Win32,60.24096386,6573451f5972cc7e8ba92049,65d2b6c8f2eece985d8e374c,65d2c899c3c6633988ab6d2e,0.0308,0.0308,1,97,259,149,1,seveneight,,,,,,,,,,,,,,,,,,,,,,,,,,,,,,,,,,,,,,,,,,,,,,,,,,,,,,,,,,,,,,,,,,,,,,,,,,,,,,,,,,,,,,,,,,,,,,,,,,,,,,,,,,,,,,,,,,,,,,,,,,,,,,,,,,,,,,,,,
,,6573451f5972cc7e8ba92049,2024-02-19_03h19.04.368,kallum_motion_pilot,2023.2.2,Win32,60.24096386,6573451f5972cc7e8ba92049,65d2b6c8f2eece985d8e374c,65d2c899c3c6633988ab6d2e,0.0309,0.0309,1,98,260,31,1,fourthree,,,,,,,,,,,,,,,,,,,,,,,,,,,,,,,,,,,,,,,,,,,,,,,,,,,,,,,,,,,,,,,,,,,,,,,,,,,,,,,,,,,,,,,,,,,,,,,,,,,,,,,,,,,,,,,,,,,,,,,,,,,,,,,,,,,,,,,,,
,,6573451f5972cc7e8ba92049,2024-02-19_03h19.04.368,kallum_motion_pilot,2023.2.2,Win32,60.24096386,6573451f5972cc7e8ba92049,65d2b6c8f2eece985d8e374c,65d2c899c3c6633988ab6d2e,0.031,0.031,1,99,261,157,1,seveneight,,,,,,,,,,,,,,,,,,,,,,,,,,,,,,,,,,,,,,,,,,,,,,,,,,,,,,,,,,,,,,,,,,,,,,,,,,,,,,,,,,,,,,,,,,,,,,,,,,,,,,,,,,,,,,,,,,,,,,,,,,,,,,,,,,,,,,,,,
,,6573451f5972cc7e8ba92049,2024-02-19_03h19.04.368,kallum_motion_pilot,2023.2.2,Win32,60.24096386,6573451f5972cc7e8ba92049,65d2b6c8f2eece985d8e374c,65d2c899c3c6633988ab6d2e,0.031,0.031,1,100,262,58,1,twoone,,,,,,,,,,,,,,,,,,,,,,,,,,,,,,,,,,,,,,,,,,,,,,,,,,,,,,,,,,,,,,,,,,,,,,,,,,,,,,,,,,,,,,,,,,,,,,,,,,,,,,,,,,,,,,,,,,,,,,,,,,,,,,,,,,,,,,,,,
,,6573451f5972cc7e8ba92049,2024-02-19_03h19.04.368,kallum_motion_pilot,2023.2.2,Win32,60.24096386,6573451f5972cc7e8ba92049,65d2b6c8f2eece985d8e374c,65d2c899c3c6633988ab6d2e,0.0312,0.0312,1,101,263,138,1,sixfive,,,,,,,,,,,,,,,,,,,,,,,,,,,,,,,,,,,,,,,,,,,,,,,,,,,,,,,,,,,,,,,,,,,,,,,,,,,,,,,,,,,,,,,,,,,,,,,,,,,,,,,,,,,,,,,,,,,,,,,,,,,,,,,,,,,,,,,,,
,,6573451f5972cc7e8ba92049,2024-02-19_03h19.04.368,kallum_motion_pilot,2023.2.2,Win32,60.24096386,6573451f5972cc7e8ba92049,65d2b6c8f2eece985d8e374c,65d2c899c3c6633988ab6d2e,0.0313,0.0313,1,102,264,23,1,fourthree,,,,,,,,,,,,,,,,,,,,,,,,,,,,,,,,,,,,,,,,,,,,,,,,,,,,,,,,,,,,,,,,,,,,,,,,,,,,,,,,,,,,,,,,,,,,,,,,,,,,,,,,,,,,,,,,,,,,,,,,,,,,,,,,,,,,,,,,,
,,6573451f5972cc7e8ba92049,2024-02-19_03h19.04.368,kallum_motion_pilot,2023.2.2,Win32,60.24096386,6573451f5972cc7e8ba92049,65d2b6c8f2eece985d8e374c,65d2c899c3c6633988ab6d2e,0.0314,0.0314,1,103,265,64,1,onetwo,,,,,,,,,,,,,,,,,,,,,,,,,,,,,,,,,,,,,,,,,,,,,,,,,,,,,,,,,,,,,,,,,,,,,,,,,,,,,,,,,,,,,,,,,,,,,,,,,,,,,,,,,,,,,,,,,,,,,,,,,,,,,,,,,,,,,,,,,
,,6573451f5972cc7e8ba92049,2024-02-19_03h19.04.368,kallum_motion_pilot,2023.2.2,Win32,60.24096386,6573451f5972cc7e8ba92049,65d2b6c8f2eece985d8e374c,65d2c899c3c6633988ab6d2e,0.0314,0.0315,1,104,266,156,1,sevenfive,,,,,,,,,,,,,,,,,,,,,,,,,,,,,,,,,,,,,,,,,,,,,,,,,,,,,,,,,,,,,,,,,,,,,,,,,,,,,,,,,,,,,,,,,,,,,,,,,,,,,,,,,,,,,,,,,,,,,,,,,,,,,,,,,,,,,,,,,
,,6573451f5972cc7e8ba92049,2024-02-19_03h19.04.368,kallum_motion_pilot,2023.2.2,Win32,60.24096386,6573451f5972cc7e8ba92049,65d2b6c8f2eece985d8e374c,65d2c899c3c6633988ab6d2e,0.0315,0.0315,1,105,267,43,1,twofour,,,,,,,,,,,,,,,,,,,,,,,,,,,,,,,,,,,,,,,,,,,,,,,,,,,,,,,,,,,,,,,,,,,,,,,,,,,,,,,,,,,,,,,,,,,,,,,,,,,,,,,,,,,,,,,,,,,,,,,,,,,,,,,,,,,,,,,,,
,,6573451f5972cc7e8ba92049,2024-02-19_03h19.04.368,kallum_motion_pilot,2023.2.2,Win32,60.24096386,6573451f5972cc7e8ba92049,65d2b6c8f2eece985d8e374c,65d2c899c3c6633988ab6d2e,0.0316,0.0316,1,106,268,104,1,fivesix,,,,,,,,,,,,,,,,,,,,,,,,,,,,,,,,,,,,,,,,,,,,,,,,,,,,,,,,,,,,,,,,,,,,,,,,,,,,,,,,,,,,,,,,,,,,,,,,,,,,,,,,,,,,,,,,,,,,,,,,,,,,,,,,,,,,,,,,,
,,6573451f5972cc7e8ba92049,2024-02-19_03h19.04.368,kallum_motion_pilot,2023.2.2,Win32,60.24096386,6573451f5972cc7e8ba92049,65d2b6c8f2eece985d8e374c,65d2c899c3c6633988ab6d2e,0.0316,0.0316,1,107,269,75,1,twofour,,,,,,,,,,,,,,,,,,,,,,,,,,,,,,,,,,,,,,,,,,,,,,,,,,,,,,,,,,,,,,,,,,,,,,,,,,,,,,,,,,,,,,,,,,,,,,,,,,,,,,,,,,,,,,,,,,,,,,,,,,,,,,,,,,,,,,,,,
,,6573451f5972cc7e8ba92049,2024-02-19_03h19.04.368,kallum_motion_pilot,2023.2.2,Win32,60.24096386,6573451f5972cc7e8ba92049,65d2b6c8f2eece985d8e374c,65d2c899c3c6633988ab6d2e,0.0317,0.0318,1,108,270,19,1,twofour,,,,,,,,,,,,,,,,,,,,,,,,,,,,,,,,,,,,,,,,,,,,,,,,,,,,,,,,,,,,,,,,,,,,,,,,,,,,,,,,,,,,,,,,,,,,,,,,,,,,,,,,,,,,,,,,,,,,,,,,,,,,,,,,,,,,,,,,,
,,6573451f5972cc7e8ba92049,2024-02-19_03h19.04.368,kallum_motion_pilot,2023.2.2,Win32,60.24096386,6573451f5972cc7e8ba92049,65d2b6c8f2eece985d8e374c,65d2c899c3c6633988ab6d2e,0.0318,0.0318,1,109,271,67,1,twofour,,,,,,,,,,,,,,,,,,,,,,,,,,,,,,,,,,,,,,,,,,,,,,,,,,,,,,,,,,,,,,,,,,,,,,,,,,,,,,,,,,,,,,,,,,,,,,,,,,,,,,,,,,,,,,,,,,,,,,,,,,,,,,,,,,,,,,,,,
,,6573451f5972cc7e8ba92049,2024-02-19_03h19.04.368,kallum_motion_pilot,2023.2.2,Win32,60.24096386,6573451f5972cc7e8ba92049,65d2b6c8f2eece985d8e374c,65d2c899c3c6633988ab6d2e,0.0319,0.032,1,110,272,98,1,sixfive,,,,,,,,,,,,,,,,,,,,,,,,,,,,,,,,,,,,,,,,,,,,,,,,,,,,,,,,,,,,,,,,,,,,,,,,,,,,,,,,,,,,,,,,,,,,,,,,,,,,,,,,,,,,,,,,,,,,,,,,,,,,,,,,,,,,,,,,,
,,6573451f5972cc7e8ba92049,2024-02-19_03h19.04.368,kallum_motion_pilot,2023.2.2,Win32,60.24096386,6573451f5972cc7e8ba92049,65d2b6c8f2eece985d8e374c,65d2c899c3c6633988ab6d2e,0.032,0.032,1,111,273,134,1,eightsix,,,,,,,,,,,,,,,,,,,,,,,,,,,,,,,,,,,,,,,,,,,,,,,,,,,,,,,,,,,,,,,,,,,,,,,,,,,,,,,,,,,,,,,,,,,,,,,,,,,,,,,,,,,,,,,,,,,,,,,,,,,,,,,,,,,,,,,,,
,,6573451f5972cc7e8ba92049,2024-02-19_03h19.04.368,kallum_motion_pilot,2023.2.2,Win32,60.24096386,6573451f5972cc7e8ba92049,65d2b6c8f2eece985d8e374c,65d2c899c3c6633988ab6d2e,0.032,0.0321,1,112,274,83,1,sixeight,,,,,,,,,,,,,,,,,,,,,,,,,,,,,,,,,,,,,,,,,,,,,,,,,,,,,,,,,,,,,,,,,,,,,,,,,,,,,,,,,,,,,,,,,,,,,,,,,,,,,,,,,,,,,,,,,,,,,,,,,,,,,,,,,,,,,,,,,
,,6573451f5972cc7e8ba92049,2024-02-19_03h19.04.368,kallum_motion_pilot,2023.2.2,Win32,60.24096386,6573451f5972cc7e8ba92049,65d2b6c8f2eece985d8e374c,65d2c899c3c6633988ab6d2e,0.0321,0.0321,1,113,275,1,1,onethree,,,,,,,,,,,,,,,,,,,,,,,,,,,,,,,,,,,,,,,,,,,,,,,,,,,,,,,,,,,,,,,,,,,,,,,,,,,,,,,,,,,,,,,,,,,,,,,,,,,,,,,,,,,,,,,,,,,,,,,,,,,,,,,,,,,,,,,,,
,,6573451f5972cc7e8ba92049,2024-02-19_03h19.04.368,kallum_motion_pilot,2023.2.2,Win32,60.24096386,6573451f5972cc7e8ba92049,65d2b6c8f2eece985d8e374c,65d2c899c3c6633988ab6d2e,0.0322,0.0322,1,114,276,127,1,eightseven,,,,,,,,,,,,,,,,,,,,,,,,,,,,,,,,,,,,,,,,,,,,,,,,,,,,,,,,,,,,,,,,,,,,,,,,,,,,,,,,,,,,,,,,,,,,,,,,,,,,,,,,,,,,,,,,,,,,,,,,,,,,,,,,,,,,,,,,,
,,6573451f5972cc7e8ba92049,2024-02-19_03h19.04.368,kallum_motion_pilot,2023.2.2,Win32,60.24096386,6573451f5972cc7e8ba92049,65d2b6c8f2eece985d8e374c,65d2c899c3c6633988ab6d2e,0.0323,0.0323,1,115,277,20,1,threeone,,,,,,,,,,,,,,,,,,,,,,,,,,,,,,,,,,,,,,,,,,,,,,,,,,,,,,,,,,,,,,,,,,,,,,,,,,,,,,,,,,,,,,,,,,,,,,,,,,,,,,,,,,,,,,,,,,,,,,,,,,,,,,,,,,,,,,,,,
