startup.started,startup.stopped,Prolific ID*,date,expName,psychopyVersion,OS,frameRate,participant,study_id,session,stimpositions.started,stimpositions.stopped,hardcoded_stimulus_positions.thisRepN,hardcoded_stimulus_positions.thisTrialN,hardcoded_stimulus_positions.thisN,hardcoded_stimulus_positions.thisIndex,hardcoded_stimulus_positions.ran,StimulusPos,stimorientation.started,stimorientation.stopped,prac_stimorientation_import_loop.thisRepN,prac_stimorientation_import_loop.thisTrialN,prac_stimorientation_import_loop.thisN,prac_stimorientation_import_loop.thisIndex,prac_stimorientation_import_loop.ran,Stimorientation,welcome_instr.started,welcome_instr.stopped,key_resp.keys,key_resp.rt,key_resp.duration,response_steppedout_1.started,response_steppedout_1.stopped,key_resp_20.keys,key_resp_20.rt,key_resp_20.duration,response_steppedout_2.started,response_steppedout_2.stopped,key_resp_19.keys,key_resp_19.rt,key_resp_19.duration,stim_response_instr.started,stim_response_instr.stopped,key_resp_15.keys,key_resp_15.rt,key_resp_15.duration,direction_instr_2.started,direction_instr_2.stopped,key_resp_9.keys,key_resp_9.rt,key_resp_9.duration,instr_prac.started,instr_prac.stopped,key_resp_10.keys,key_resp_10.rt,key_resp_10.duration,Stim1_display_prac.started,Stim1_display_prac.stopped,Ecc,Circle1_ori,Circle2_ori,response_prac.started,similarity,response_time,response_prac.stopped,mouse_5.x,mouse_5.y,mouse_5.leftButton,mouse_5.midButton,mouse_5.rightButton,mouse_5.clicked_name,responseprac_feedback.started,responseprac_feedback.stopped,summary2_prac.started,summary2_prac.stopped,mouse_6.x,mouse_6.y,mouse_6.leftButton,mouse_6.midButton,mouse_6.rightButton,mouse_6.clicked_name,duringprac.thisRepN,duringprac.thisTrialN,duringprac.thisN,duringprac.thisIndex,duringprac.ran,begin.started,begin.stopped,key_resp_22.keys,key_resp_22.rt,key_resp_22.duration,Stim1_display.started,Stim1_display.stopped,circle1_ori,circle2_ori,circle1_SF,circle2_SF,response.started,response.stopped,mouse.x,mouse.y,mouse.leftButton,mouse.midButton,mouse.rightButton,mouse.clicked_name,trialnumber,double_pass.thisRepN,double_pass.thisTrialN,double_pass.thisN,double_pass.thisIndex,double_pass.ran,double_pass.order,main_trial.thisRepN,main_trial.thisTrialN,main_trial.thisN,main_trial.thisIndex,main_trial.ran,main_trial.order,Trial_Counter,Catch,Frequencies,response_2.started,response_2.stopped,mouse_2.x,mouse_2.y,mouse_2.leftButton,mouse_2.midButton,mouse_2.rightButton,mouse_2.clicked_name,special_trial.started,special_trial.stopped,catch_1.started,catch_1.stopped,mouse_3.x,mouse_3.y,mouse_3.leftButton,mouse_3.midButton,mouse_3.rightButton,catchresponse,catchnumber,response_time_catch,response_sum.started,response_sum.stopped,mouse_11.x,mouse_11.y,mouse_11.leftButton,mouse_11.midButton,mouse_11.rightButton,flip_presentation_sequence_for_double_pass.started,flip_presentation_sequence_for_double_pass.stopped,goodbye.started,goodbye.stopped,key_resp_3.keys,key_resp_3.rt,key_resp_3.duration
0.0005,0.0007,657a7e142c5fba20342bc97b,2024-02-22_16h27.19.531,kallum_motion_pilot,2023.2.2,Win32,6.671114076,657a7e142c5fba20342bc97b,65d6bb0e977760de756971f7,65d6befee41a9797ff21c907,,,,,,,,,,,,,,,,,,,,,,,,,,,,,,,,,,,,,,,,,,,,,,,,,,,,,,,,,,,,,,,,,,,,,,,,,,,,,,,,,,,,,,,,,,,,,,,,,,,,,,,,,,,,,,,,,,,,,,,,,,,,,,,,,,,,,,,,,,,,,,,,,
,,657a7e142c5fba20342bc97b,2024-02-22_16h27.19.531,kallum_motion_pilot,2023.2.2,Win32,6.671114076,657a7e142c5fba20342bc97b,65d6bb0e977760de756971f7,65d6befee41a9797ff21c907,0.0314,0.0317,0,0,0,52,1,threeone,,,,,,,,,,,,,,,,,,,,,,,,,,,,,,,,,,,,,,,,,,,,,,,,,,,,,,,,,,,,,,,,,,,,,,,,,,,,,,,,,,,,,,,,,,,,,,,,,,,,,,,,,,,,,,,,,,,,,,,,,,,,,,,,,,,,,,,,,
,,657a7e142c5fba20342bc97b,2024-02-22_16h27.19.531,kallum_motion_pilot,2023.2.2,Win32,6.671114076,657a7e142c5fba20342bc97b,65d6bb0e977760de756971f7,65d6befee41a9797ff21c907,0.032,0.032,0,1,1,142,1,eightsix,,,,,,,,,,,,,,,,,,,,,,,,,,,,,,,,,,,,,,,,,,,,,,,,,,,,,,,,,,,,,,,,,,,,,,,,,,,,,,,,,,,,,,,,,,,,,,,,,,,,,,,,,,,,,,,,,,,,,,,,,,,,,,,,,,,,,,,,,
,,657a7e142c5fba20342bc97b,2024-02-22_16h27.19.531,kallum_motion_pilot,2023.2.2,Win32,6.671114076,657a7e142c5fba20342bc97b,65d6bb0e977760de756971f7,65d6befee41a9797ff21c907,0.0323,0.0324,0,2,2,73,1,onethree,,,,,,,,,,,,,,,,,,,,,,,,,,,,,,,,,,,,,,,,,,,,,,,,,,,,,,,,,,,,,,,,,,,,,,,,,,,,,,,,,,,,,,,,,,,,,,,,,,,,,,,,,,,,,,,,,,,,,,,,,,,,,,,,,,,,,,,,,
,,657a7e142c5fba20342bc97b,2024-02-22_16h27.19.531,kallum_motion_pilot,2023.2.2,Win32,6.671114076,657a7e142c5fba20342bc97b,65d6bb0e977760de756971f7,65d6befee41a9797ff21c907,0.0325,0.0325,0,3,3,105,1,fiveseven,,,,,,,,,,,,,,,,,,,,,,,,,,,,,,,,,,,,,,,,,,,,,,,,,,,,,,,,,,,,,,,,,,,,,,,,,,,,,,,,,,,,,,,,,,,,,,,,,,,,,,,,,,,,,,,,,,,,,,,,,,,,,,,,,,,,,,,,,
,,657a7e142c5fba20342bc97b,2024-02-22_16h27.19.531,kallum_motion_pilot,2023.2.2,Win32,6.671114076,657a7e142c5fba20342bc97b,65d6bb0e977760de756971f7,65d6befee41a9797ff21c907,0.0327,0.0328,0,4,4,76,1,threeone,,,,,,,,,,,,,,,,,,,,,,,,,,,,,,,,,,,,,,,,,,,,,,,,,,,,,,,,,,,,,,,,,,,,,,,,,,,,,,,,,,,,,,,,,,,,,,,,,,,,,,,,,,,,,,,,,,,,,,,,,,,,,,,,,,,,,,,,,
,,657a7e142c5fba20342bc97b,2024-02-22_16h27.19.531,kallum_motion_pilot,2023.2.2,Win32,6.671114076,657a7e142c5fba20342bc97b,65d6bb0e977760de756971f7,65d6befee41a9797ff21c907,0.033,0.033,0,5,5,60,1,threeone,,,,,,,,,,,,,,,,,,,,,,,,,,,,,,,,,,,,,,,,,,,,,,,,,,,,,,,,,,,,,,,,,,,,,,,,,,,,,,,,,,,,,,,,,,,,,,,,,,,,,,,,,,,,,,,,,,,,,,,,,,,,,,,,,,,,,,,,,
,,657a7e142c5fba20342bc97b,2024-02-22_16h27.19.531,kallum_motion_pilot,2023.2.2,Win32,6.671114076,657a7e142c5fba20342bc97b,65d6bb0e977760de756971f7,65d6befee41a9797ff21c907,0.0332,0.0332,0,6,6,28,1,threeone,,,,,,,,,,,,,,,,,,,,,,,,,,,,,,,,,,,,,,,,,,,,,,,,,,,,,,,,,,,,,,,,,,,,,,,,,,,,,,,,,,,,,,,,,,,,,,,,,,,,,,,,,,,,,,,,,,,,,,,,,,,,,,,,,,,,,,,,,
,,657a7e142c5fba20342bc97b,2024-02-22_16h27.19.531,kallum_motion_pilot,2023.2.2,Win32,6.671114076,657a7e142c5fba20342bc97b,65d6bb0e977760de756971f7,65d6befee41a9797ff21c907,0.0334,0.0335,0,7,7,25,1,onethree,,,,,,,,,,,,,,,,,,,,,,,,,,,,,,,,,,,,,,,,,,,,,,,,,,,,,,,,,,,,,,,,,,,,,,,,,,,,,,,,,,,,,,,,,,,,,,,,,,,,,,,,,,,,,,,,,,,,,,,,,,,,,,,,,,,,,,,,,
,,657a7e142c5fba20342bc97b,2024-02-22_16h27.19.531,kallum_motion_pilot,2023.2.2,Win32,6.671114076,657a7e142c5fba20342bc97b,65d6bb0e977760de756971f7,65d6befee41a9797ff21c907,0.0336,0.0338,0,8,8,140,1,sevenfive,,,,,,,,,,,,,,,,,,,,,,,,,,,,,,,,,,,,,,,,,,,,,,,,,,,,,,,,,,,,,,,,,,,,,,,,,,,,,,,,,,,,,,,,,,,,,,,,,,,,,,,,,,,,,,,,,,,,,,,,,,,,,,,,,,,,,,,,,
,,657a7e142c5fba20342bc97b,2024-02-22_16h27.19.531,kallum_motion_pilot,2023.2.2,Win32,6.671114076,657a7e142c5fba20342bc97b,65d6bb0e977760de756971f7,65d6befee41a9797ff21c907,0.0339,0.034,0,9,9,21,1,threefour,,,,,,,,,,,,,,,,,,,,,,,,,,,,,,,,,,,,,,,,,,,,,,,,,,,,,,,,,,,,,,,,,,,,,,,,,,,,,,,,,,,,,,,,,,,,,,,,,,,,,,,,,,,,,,,,,,,,,,,,,,,,,,,,,,,,,,,,,
,,657a7e142c5fba20342bc97b,2024-02-22_16h27.19.531,kallum_motion_pilot,2023.2.2,Win32,6.671114076,657a7e142c5fba20342bc97b,65d6bb0e977760de756971f7,65d6befee41a9797ff21c907,0.0341,0.0343,0,10,10,41,1,onethree,,,,,,,,,,,,,,,,,,,,,,,,,,,,,,,,,,,,,,,,,,,,,,,,,,,,,,,,,,,,,,,,,,,,,,,,,,,,,,,,,,,,,,,,,,,,,,,,,,,,,,,,,,,,,,,,,,,,,,,,,,,,,,,,,,,,,,,,,
,,657a7e142c5fba20342bc97b,2024-02-22_16h27.19.531,kallum_motion_pilot,2023.2.2,Win32,6.671114076,657a7e142c5fba20342bc97b,65d6bb0e977760de756971f7,65d6befee41a9797ff21c907,0.0344,0.0345,0,11,11,54,1,fourtwo,,,,,,,,,,,,,,,,,,,,,,,,,,,,,,,,,,,,,,,,,,,,,,,,,,,,,,,,,,,,,,,,,,,,,,,,,,,,,,,,,,,,,,,,,,,,,,,,,,,,,,,,,,,,,,,,,,,,,,,,,,,,,,,,,,,,,,,,,
,,657a7e142c5fba20342bc97b,2024-02-22_16h27.19.531,kallum_motion_pilot,2023.2.2,Win32,6.671114076,657a7e142c5fba20342bc97b,65d6bb0e977760de756971f7,65d6befee41a9797ff21c907,0.0347,0.0349,0,12,12,26,1,twoone,,,,,,,,,,,,,,,,,,,,,,,,,,,,,,,,,,,,,,,,,,,,,,,,,,,,,,,,,,,,,,,,,,,,,,,,,,,,,,,,,,,,,,,,,,,,,,,,,,,,,,,,,,,,,,,,,,,,,,,,,,,,,,,,,,,,,,,,,
,,657a7e142c5fba20342bc97b,2024-02-22_16h27.19.531,kallum_motion_pilot,2023.2.2,Win32,6.671114076,657a7e142c5fba20342bc97b,65d6bb0e977760de756971f7,65d6befee41a9797ff21c907,0.0351,0.0351,0,13,13,113,1,fiveseven,,,,,,,,,,,,,,,,,,,,,,,,,,,,,,,,,,,,,,,,,,,,,,,,,,,,,,,,,,,,,,,,,,,,,,,,,,,,,,,,,,,,,,,,,,,,,,,,,,,,,,,,,,,,,,,,,,,,,,,,,,,,,,,,,,,,,,,,,
,,657a7e142c5fba20342bc97b,2024-02-22_16h27.19.531,kallum_motion_pilot,2023.2.2,Win32,6.671114076,657a7e142c5fba20342bc97b,65d6bb0e977760de756971f7,65d6befee41a9797ff21c907,0.0353,0.0354,0,14,14,144,1,fivesix,,,,,,,,,,,,,,,,,,,,,,,,,,,,,,,,,,,,,,,,,,,,,,,,,,,,,,,,,,,,,,,,,,,,,,,,,,,,,,,,,,,,,,,,,,,,,,,,,,,,,,,,,,,,,,,,,,,,,,,,,,,,,,,,,,,,,,,,,
,,657a7e142c5fba20342bc97b,2024-02-22_16h27.19.531,kallum_motion_pilot,2023.2.2,Win32,6.671114076,657a7e142c5fba20342bc97b,65d6bb0e977760de756971f7,65d6befee41a9797ff21c907,0.0356,0.0357,0,15,15,86,1,eightsix,,,,,,,,,,,,,,,,,,,,,,,,,,,,,,,,,,,,,,,,,,,,,,,,,,,,,,,,,,,,,,,,,,,,,,,,,,,,,,,,,,,,,,,,,,,,,,,,,,,,,,,,,,,,,,,,,,,,,,,,,,,,,,,,,,,,,,,,,
,,657a7e142c5fba20342bc97b,2024-02-22_16h27.19.531,kallum_motion_pilot,2023.2.2,Win32,6.671114076,657a7e142c5fba20342bc97b,65d6bb0e977760de756971f7,65d6befee41a9797ff21c907,0.0358,0.036,0,16,16,9,1,onethree,,,,,,,,,,,,,,,,,,,,,,,,,,,,,,,,,,,,,,,,,,,,,,,,,,,,,,,,,,,,,,,,,,,,,,,,,,,,,,,,,,,,,,,,,,,,,,,,,,,,,,,,,,,,,,,,,,,,,,,,,,,,,,,,,,,,,,,,,
,,657a7e142c5fba20342bc97b,2024-02-22_16h27.19.531,kallum_motion_pilot,2023.2.2,Win32,6.671114076,657a7e142c5fba20342bc97b,65d6bb0e977760de756971f7,65d6befee41a9797ff21c907,0.0361,0.0362,0,17,17,102,1,eightsix,,,,,,,,,,,,,,,,,,,,,,,,,,,,,,,,,,,,,,,,,,,,,,,,,,,,,,,,,,,,,,,,,,,,,,,,,,,,,,,,,,,,,,,,,,,,,,,,,,,,,,,,,,,,,,,,,,,,,,,,,,,,,,,,,,,,,,,,,
,,657a7e142c5fba20342bc97b,2024-02-22_16h27.19.531,kallum_motion_pilot,2023.2.2,Win32,6.671114076,657a7e142c5fba20342bc97b,65d6bb0e977760de756971f7,65d6befee41a9797ff21c907,0.0364,0.0366,0,18,18,131,1,sixeight,,,,,,,,,,,,,,,,,,,,,,,,,,,,,,,,,,,,,,,,,,,,,,,,,,,,,,,,,,,,,,,,,,,,,,,,,,,,,,,,,,,,,,,,,,,,,,,,,,,,,,,,,,,,,,,,,,,,,,,,,,,,,,,,,,,,,,,,,
,,657a7e142c5fba20342bc97b,2024-02-22_16h27.19.531,kallum_motion_pilot,2023.2.2,Win32,6.671114076,657a7e142c5fba20342bc97b,65d6bb0e977760de756971f7,65d6befee41a9797ff21c907,0.0367,0.0367,0,19,19,81,1,fiveseven,,,,,,,,,,,,,,,,,,,,,,,,,,,,,,,,,,,,,,,,,,,,,,,,,,,,,,,,,,,,,,,,,,,,,,,,,,,,,,,,,,,,,,,,,,,,,,,,,,,,,,,,,,,,,,,,,,,,,,,,,,,,,,,,,,,,,,,,,
,,657a7e142c5fba20342bc97b,2024-02-22_16h27.19.531,kallum_motion_pilot,2023.2.2,Win32,6.671114076,657a7e142c5fba20342bc97b,65d6bb0e977760de756971f7,65d6befee41a9797ff21c907,0.0369,0.0369,0,20,20,120,1,fivesix,,,,,,,,,,,,,,,,,,,,,,,,,,,,,,,,,,,,,,,,,,,,,,,,,,,,,,,,,,,,,,,,,,,,,,,,,,,,,,,,,,,,,,,,,,,,,,,,,,,,,,,,,,,,,,,,,,,,,,,,,,,,,,,,,,,,,,,,,
,,657a7e142c5fba20342bc97b,2024-02-22_16h27.19.531,kallum_motion_pilot,2023.2.2,Win32,6.671114076,657a7e142c5fba20342bc97b,65d6bb0e977760de756971f7,65d6befee41a9797ff21c907,0.0371,0.0372,0,21,21,97,1,fiveseven,,,,,,,,,,,,,,,,,,,,,,,,,,,,,,,,,,,,,,,,,,,,,,,,,,,,,,,,,,,,,,,,,,,,,,,,,,,,,,,,,,,,,,,,,,,,,,,,,,,,,,,,,,,,,,,,,,,,,,,,,,,,,,,,,,,,,,,,,
,,657a7e142c5fba20342bc97b,2024-02-22_16h27.19.531,kallum_motion_pilot,2023.2.2,Win32,6.671114076,657a7e142c5fba20342bc97b,65d6bb0e977760de756971f7,65d6befee41a9797ff21c907,0.0373,0.0374,0,22,22,89,1,fiveseven,,,,,,,,,,,,,,,,,,,,,,,,,,,,,,,,,,,,,,,,,,,,,,,,,,,,,,,,,,,,,,,,,,,,,,,,,,,,,,,,,,,,,,,,,,,,,,,,,,,,,,,,,,,,,,,,,,,,,,,,,,,,,,,,,,,,,,,,,
,,657a7e142c5fba20342bc97b,2024-02-22_16h27.19.531,kallum_motion_pilot,2023.2.2,Win32,6.671114076,657a7e142c5fba20342bc97b,65d6bb0e977760de756971f7,65d6befee41a9797ff21c907,0.0376,0.0376,0,23,23,5,1,threefour,,,,,,,,,,,,,,,,,,,,,,,,,,,,,,,,,,,,,,,,,,,,,,,,,,,,,,,,,,,,,,,,,,,,,,,,,,,,,,,,,,,,,,,,,,,,,,,,,,,,,,,,,,,,,,,,,,,,,,,,,,,,,,,,,,,,,,,,,
,,657a7e142c5fba20342bc97b,2024-02-22_16h27.19.531,kallum_motion_pilot,2023.2.2,Win32,6.671114076,657a7e142c5fba20342bc97b,65d6bb0e977760de756971f7,65d6befee41a9797ff21c907,0.0378,0.0379,0,24,24,65,1,onethree,,,,,,,,,,,,,,,,,,,,,,,,,,,,,,,,,,,,,,,,,,,,,,,,,,,,,,,,,,,,,,,,,,,,,,,,,,,,,,,,,,,,,,,,,,,,,,,,,,,,,,,,,,,,,,,,,,,,,,,,,,,,,,,,,,,,,,,,,
,,657a7e142c5fba20342bc97b,2024-02-22_16h27.19.531,kallum_motion_pilot,2023.2.2,Win32,6.671114076,657a7e142c5fba20342bc97b,65d6bb0e977760de756971f7,65d6befee41a9797ff21c907,0.038,0.0381,0,25,25,1,1,onethree,,,,,,,,,,,,,,,,,,,,,,,,,,,,,,,,,,,,,,,,,,,,,,,,,,,,,,,,,,,,,,,,,,,,,,,,,,,,,,,,,,,,,,,,,,,,,,,,,,,,,,,,,,,,,,,,,,,,,,,,,,,,,,,,,,,,,,,,,
,,657a7e142c5fba20342bc97b,2024-02-22_16h27.19.531,kallum_motion_pilot,2023.2.2,Win32,6.671114076,657a7e142c5fba20342bc97b,65d6bb0e977760de756971f7,65d6befee41a9797ff21c907,0.0383,0.0383,0,26,26,72,1,onetwo,,,,,,,,,,,,,,,,,,,,,,,,,,,,,,,,,,,,,,,,,,,,,,,,,,,,,,,,,,,,,,,,,,,,,,,,,,,,,,,,,,,,,,,,,,,,,,,,,,,,,,,,,,,,,,,,,,,,,,,,,,,,,,,,,,,,,,,,,
,,657a7e142c5fba20342bc97b,2024-02-22_16h27.19.531,kallum_motion_pilot,2023.2.2,Win32,6.671114076,657a7e142c5fba20342bc97b,65d6bb0e977760de756971f7,65d6befee41a9797ff21c907,0.0384,0.0385,0,27,27,70,1,fourtwo,,,,,,,,,,,,,,,,,,,,,,,,,,,,,,,,,,,,,,,,,,,,,,,,,,,,,,,,,,,,,,,,,,,,,,,,,,,,,,,,,,,,,,,,,,,,,,,,,,,,,,,,,,,,,,,,,,,,,,,,,,,,,,,,,,,,,,,,,
,,657a7e142c5fba20342bc97b,2024-02-22_16h27.19.531,kallum_motion_pilot,2023.2.2,Win32,6.671114076,657a7e142c5fba20342bc97b,65d6bb0e977760de756971f7,65d6befee41a9797ff21c907,0.0387,0.0387,0,28,28,93,1,seveneight,,,,,,,,,,,,,,,,,,,,,,,,,,,,,,,,,,,,,,,,,,,,,,,,,,,,,,,,,,,,,,,,,,,,,,,,,,,,,,,,,,,,,,,,,,,,,,,,,,,,,,,,,,,,,,,,,,,,,,,,,,,,,,,,,,,,,,,,,
,,657a7e142c5fba20342bc97b,2024-02-22_16h27.19.531,kallum_motion_pilot,2023.2.2,Win32,6.671114076,657a7e142c5fba20342bc97b,65d6bb0e977760de756971f7,65d6befee41a9797ff21c907,0.0388,0.0389,0,29,29,109,1,seveneight,,,,,,,,,,,,,,,,,,,,,,,,,,,,,,,,,,,,,,,,,,,,,,,,,,,,,,,,,,,,,,,,,,,,,,,,,,,,,,,,,,,,,,,,,,,,,,,,,,,,,,,,,,,,,,,,,,,,,,,,,,,,,,,,,,,,,,,,,
,,657a7e142c5fba20342bc97b,2024-02-22_16h27.19.531,kallum_motion_pilot,2023.2.2,Win32,6.671114076,657a7e142c5fba20342bc97b,65d6bb0e977760de756971f7,65d6befee41a9797ff21c907,0.0391,0.0391,0,30,30,87,1,eightseven,,,,,,,,,,,,,,,,,,,,,,,,,,,,,,,,,,,,,,,,,,,,,,,,,,,,,,,,,,,,,,,,,,,,,,,,,,,,,,,,,,,,,,,,,,,,,,,,,,,,,,,,,,,,,,,,,,,,,,,,,,,,,,,,,,,,,,,,,
,,657a7e142c5fba20342bc97b,2024-02-22_16h27.19.531,kallum_motion_pilot,2023.2.2,Win32,6.671114076,657a7e142c5fba20342bc97b,65d6bb0e977760de756971f7,65d6befee41a9797ff21c907,0.0393,0.0393,0,31,31,83,1,sixeight,,,,,,,,,,,,,,,,,,,,,,,,,,,,,,,,,,,,,,,,,,,,,,,,,,,,,,,,,,,,,,,,,,,,,,,,,,,,,,,,,,,,,,,,,,,,,,,,,,,,,,,,,,,,,,,,,,,,,,,,,,,,,,,,,,,,,,,,,
,,657a7e142c5fba20342bc97b,2024-02-22_16h27.19.531,kallum_motion_pilot,2023.2.2,Win32,6.671114076,657a7e142c5fba20342bc97b,65d6bb0e977760de756971f7,65d6befee41a9797ff21c907,0.0395,0.0395,0,32,32,101,1,seveneight,,,,,,,,,,,,,,,,,,,,,,,,,,,,,,,,,,,,,,,,,,,,,,,,,,,,,,,,,,,,,,,,,,,,,,,,,,,,,,,,,,,,,,,,,,,,,,,,,,,,,,,,,,,,,,,,,,,,,,,,,,,,,,,,,,,,,,,,,
,,657a7e142c5fba20342bc97b,2024-02-22_16h27.19.531,kallum_motion_pilot,2023.2.2,Win32,6.671114076,657a7e142c5fba20342bc97b,65d6bb0e977760de756971f7,65d6befee41a9797ff21c907,0.0396,0.0397,0,33,33,48,1,onetwo,,,,,,,,,,,,,,,,,,,,,,,,,,,,,,,,,,,,,,,,,,,,,,,,,,,,,,,,,,,,,,,,,,,,,,,,,,,,,,,,,,,,,,,,,,,,,,,,,,,,,,,,,,,,,,,,,,,,,,,,,,,,,,,,,,,,,,,,,
,,657a7e142c5fba20342bc97b,2024-02-22_16h27.19.531,kallum_motion_pilot,2023.2.2,Win32,6.671114076,657a7e142c5fba20342bc97b,65d6bb0e977760de756971f7,65d6befee41a9797ff21c907,0.0399,0.04,0,34,34,51,1,twofour,,,,,,,,,,,,,,,,,,,,,,,,,,,,,,,,,,,,,,,,,,,,,,,,,,,,,,,,,,,,,,,,,,,,,,,,,,,,,,,,,,,,,,,,,,,,,,,,,,,,,,,,,,,,,,,,,,,,,,,,,,,,,,,,,,,,,,,,,
,,657a7e142c5fba20342bc97b,2024-02-22_16h27.19.531,kallum_motion_pilot,2023.2.2,Win32,6.671114076,657a7e142c5fba20342bc97b,65d6bb0e977760de756971f7,65d6befee41a9797ff21c907,0.0401,0.0401,0,35,35,84,1,sevenfive,,,,,,,,,,,,,,,,,,,,,,,,,,,,,,,,,,,,,,,,,,,,,,,,,,,,,,,,,,,,,,,,,,,,,,,,,,,,,,,,,,,,,,,,,,,,,,,,,,,,,,,,,,,,,,,,,,,,,,,,,,,,,,,,,,,,,,,,,
,,657a7e142c5fba20342bc97b,2024-02-22_16h27.19.531,kallum_motion_pilot,2023.2.2,Win32,6.671114076,657a7e142c5fba20342bc97b,65d6bb0e977760de756971f7,65d6befee41a9797ff21c907,0.0403,0.0403,0,36,36,103,1,eightseven,,,,,,,,,,,,,,,,,,,,,,,,,,,,,,,,,,,,,,,,,,,,,,,,,,,,,,,,,,,,,,,,,,,,,,,,,,,,,,,,,,,,,,,,,,,,,,,,,,,,,,,,,,,,,,,,,,,,,,,,,,,,,,,,,,,,,,,,,
,,657a7e142c5fba20342bc97b,2024-02-22_16h27.19.531,kallum_motion_pilot,2023.2.2,Win32,6.671114076,657a7e142c5fba20342bc97b,65d6bb0e977760de756971f7,65d6befee41a9797ff21c907,0.0404,0.0405,0,37,37,119,1,eightseven,,,,,,,,,,,,,,,,,,,,,,,,,,,,,,,,,,,,,,,,,,,,,,,,,,,,,,,,,,,,,,,,,,,,,,,,,,,,,,,,,,,,,,,,,,,,,,,,,,,,,,,,,,,,,,,,,,,,,,,,,,,,,,,,,,,,,,,,,
,,657a7e142c5fba20342bc97b,2024-02-22_16h27.19.531,kallum_motion_pilot,2023.2.2,Win32,6.671114076,657a7e142c5fba20342bc97b,65d6bb0e977760de756971f7,65d6befee41a9797ff21c907,0.0407,0.0407,0,38,38,27,1,twofour,,,,,,,,,,,,,,,,,,,,,,,,,,,,,,,,,,,,,,,,,,,,,,,,,,,,,,,,,,,,,,,,,,,,,,,,,,,,,,,,,,,,,,,,,,,,,,,,,,,,,,,,,,,,,,,,,,,,,,,,,,,,,,,,,,,,,,,,,
,,657a7e142c5fba20342bc97b,2024-02-22_16h27.19.531,kallum_motion_pilot,2023.2.2,Win32,6.671114076,657a7e142c5fba20342bc97b,65d6bb0e977760de756971f7,65d6befee41a9797ff21c907,0.0409,0.0409,0,39,39,130,1,sixfive,,,,,,,,,,,,,,,,,,,,,,,,,,,,,,,,,,,,,,,,,,,,,,,,,,,,,,,,,,,,,,,,,,,,,,,,,,,,,,,,,,,,,,,,,,,,,,,,,,,,,,,,,,,,,,,,,,,,,,,,,,,,,,,,,,,,,,,,,
,,657a7e142c5fba20342bc97b,2024-02-22_16h27.19.531,kallum_motion_pilot,2023.2.2,Win32,6.671114076,657a7e142c5fba20342bc97b,65d6bb0e977760de756971f7,65d6befee41a9797ff21c907,0.0411,0.0412,0,40,40,160,1,fivesix,,,,,,,,,,,,,,,,,,,,,,,,,,,,,,,,,,,,,,,,,,,,,,,,,,,,,,,,,,,,,,,,,,,,,,,,,,,,,,,,,,,,,,,,,,,,,,,,,,,,,,,,,,,,,,,,,,,,,,,,,,,,,,,,,,,,,,,,,
,,657a7e142c5fba20342bc97b,2024-02-22_16h27.19.531,kallum_motion_pilot,2023.2.2,Win32,6.671114076,657a7e142c5fba20342bc97b,65d6bb0e977760de756971f7,65d6befee41a9797ff21c907,0.0413,0.0414,0,41,41,90,1,sixfive,,,,,,,,,,,,,,,,,,,,,,,,,,,,,,,,,,,,,,,,,,,,,,,,,,,,,,,,,,,,,,,,,,,,,,,,,,,,,,,,,,,,,,,,,,,,,,,,,,,,,,,,,,,,,,,,,,,,,,,,,,,,,,,,,,,,,,,,,
,,657a7e142c5fba20342bc97b,2024-02-22_16h27.19.531,kallum_motion_pilot,2023.2.2,Win32,6.671114076,657a7e142c5fba20342bc97b,65d6bb0e977760de756971f7,65d6befee41a9797ff21c907,0.0416,0.0416,0,42,42,45,1,threefour,,,,,,,,,,,,,,,,,,,,,,,,,,,,,,,,,,,,,,,,,,,,,,,,,,,,,,,,,,,,,,,,,,,,,,,,,,,,,,,,,,,,,,,,,,,,,,,,,,,,,,,,,,,,,,,,,,,,,,,,,,,,,,,,,,,,,,,,,
,,657a7e142c5fba20342bc97b,2024-02-22_16h27.19.531,kallum_motion_pilot,2023.2.2,Win32,6.671114076,657a7e142c5fba20342bc97b,65d6bb0e977760de756971f7,65d6befee41a9797ff21c907,0.0418,0.0419,0,43,43,36,1,threeone,,,,,,,,,,,,,,,,,,,,,,,,,,,,,,,,,,,,,,,,,,,,,,,,,,,,,,,,,,,,,,,,,,,,,,,,,,,,,,,,,,,,,,,,,,,,,,,,,,,,,,,,,,,,,,,,,,,,,,,,,,,,,,,,,,,,,,,,,
,,657a7e142c5fba20342bc97b,2024-02-22_16h27.19.531,kallum_motion_pilot,2023.2.2,Win32,6.671114076,657a7e142c5fba20342bc97b,65d6bb0e977760de756971f7,65d6befee41a9797ff21c907,0.042,0.0421,0,44,44,4,1,threeone,,,,,,,,,,,,,,,,,,,,,,,,,,,,,,,,,,,,,,,,,,,,,,,,,,,,,,,,,,,,,,,,,,,,,,,,,,,,,,,,,,,,,,,,,,,,,,,,,,,,,,,,,,,,,,,,,,,,,,,,,,,,,,,,,,,,,,,,,
,,657a7e142c5fba20342bc97b,2024-02-22_16h27.19.531,kallum_motion_pilot,2023.2.2,Win32,6.671114076,657a7e142c5fba20342bc97b,65d6bb0e977760de756971f7,65d6befee41a9797ff21c907,0.0423,0.0424,0,45,45,80,1,fivesix,,,,,,,,,,,,,,,,,,,,,,,,,,,,,,,,,,,,,,,,,,,,,,,,,,,,,,,,,,,,,,,,,,,,,,,,,,,,,,,,,,,,,,,,,,,,,,,,,,,,,,,,,,,,,,,,,,,,,,,,,,,,,,,,,,,,,,,,,
,,657a7e142c5fba20342bc97b,2024-02-22_16h27.19.531,kallum_motion_pilot,2023.2.2,Win32,6.671114076,657a7e142c5fba20342bc97b,65d6bb0e977760de756971f7,65d6befee41a9797ff21c907,0.0424,0.0425,0,46,46,35,1,twofour,,,,,,,,,,,,,,,,,,,,,,,,,,,,,,,,,,,,,,,,,,,,,,,,,,,,,,,,,,,,,,,,,,,,,,,,,,,,,,,,,,,,,,,,,,,,,,,,,,,,,,,,,,,,,,,,,,,,,,,,,,,,,,,,,,,,,,,,,
,,657a7e142c5fba20342bc97b,2024-02-22_16h27.19.531,kallum_motion_pilot,2023.2.2,Win32,6.671114076,657a7e142c5fba20342bc97b,65d6bb0e977760de756971f7,65d6befee41a9797ff21c907,0.0426,0.0427,0,47,47,69,1,threefour,,,,,,,,,,,,,,,,,,,,,,,,,,,,,,,,,,,,,,,,,,,,,,,,,,,,,,,,,,,,,,,,,,,,,,,,,,,,,,,,,,,,,,,,,,,,,,,,,,,,,,,,,,,,,,,,,,,,,,,,,,,,,,,,,,,,,,,,,
,,657a7e142c5fba20342bc97b,2024-02-22_16h27.19.531,kallum_motion_pilot,2023.2.2,Win32,6.671114076,657a7e142c5fba20342bc97b,65d6bb0e977760de756971f7,65d6befee41a9797ff21c907,0.0428,0.0429,0,48,48,7,1,fourthree,,,,,,,,,,,,,,,,,,,,,,,,,,,,,,,,,,,,,,,,,,,,,,,,,,,,,,,,,,,,,,,,,,,,,,,,,,,,,,,,,,,,,,,,,,,,,,,,,,,,,,,,,,,,,,,,,,,,,,,,,,,,,,,,,,,,,,,,,
,,657a7e142c5fba20342bc97b,2024-02-22_16h27.19.531,kallum_motion_pilot,2023.2.2,Win32,6.671114076,657a7e142c5fba20342bc97b,65d6bb0e977760de756971f7,65d6befee41a9797ff21c907,0.0431,0.0431,0,49,49,125,1,seveneight,,,,,,,,,,,,,,,,,,,,,,,,,,,,,,,,,,,,,,,,,,,,,,,,,,,,,,,,,,,,,,,,,,,,,,,,,,,,,,,,,,,,,,,,,,,,,,,,,,,,,,,,,,,,,,,,,,,,,,,,,,,,,,,,,,,,,,,,,
,,657a7e142c5fba20342bc97b,2024-02-22_16h27.19.531,kallum_motion_pilot,2023.2.2,Win32,6.671114076,657a7e142c5fba20342bc97b,65d6bb0e977760de756971f7,65d6befee41a9797ff21c907,0.0433,0.0433,0,50,50,64,1,onetwo,,,,,,,,,,,,,,,,,,,,,,,,,,,,,,,,,,,,,,,,,,,,,,,,,,,,,,,,,,,,,,,,,,,,,,,,,,,,,,,,,,,,,,,,,,,,,,,,,,,,,,,,,,,,,,,,,,,,,,,,,,,,,,,,,,,,,,,,,
,,657a7e142c5fba20342bc97b,2024-02-22_16h27.19.531,kallum_motion_pilot,2023.2.2,Win32,6.671114076,657a7e142c5fba20342bc97b,65d6bb0e977760de756971f7,65d6befee41a9797ff21c907,0.0434,0.0436,0,51,51,98,1,sixfive,,,,,,,,,,,,,,,,,,,,,,,,,,,,,,,,,,,,,,,,,,,,,,,,,,,,,,,,,,,,,,,,,,,,,,,,,,,,,,,,,,,,,,,,,,,,,,,,,,,,,,,,,,,,,,,,,,,,,,,,,,,,,,,,,,,,,,,,,
,,657a7e142c5fba20342bc97b,2024-02-22_16h27.19.531,kallum_motion_pilot,2023.2.2,Win32,6.671114076,657a7e142c5fba20342bc97b,65d6bb0e977760de756971f7,65d6befee41a9797ff21c907,0.0437,0.0438,0,52,52,141,1,seveneight,,,,,,,,,,,,,,,,,,,,,,,,,,,,,,,,,,,,,,,,,,,,,,,,,,,,,,,,,,,,,,,,,,,,,,,,,,,,,,,,,,,,,,,,,,,,,,,,,,,,,,,,,,,,,,,,,,,,,,,,,,,,,,,,,,,,,,,,,
,,657a7e142c5fba20342bc97b,2024-02-22_16h27.19.531,kallum_motion_pilot,2023.2.2,Win32,6.671114076,657a7e142c5fba20342bc97b,65d6bb0e977760de756971f7,65d6befee41a9797ff21c907,0.0439,0.0441,0,53,53,121,1,fiveseven,,,,,,,,,,,,,,,,,,,,,,,,,,,,,,,,,,,,,,,,,,,,,,,,,,,,,,,,,,,,,,,,,,,,,,,,,,,,,,,,,,,,,,,,,,,,,,,,,,,,,,,,,,,,,,,,,,,,,,,,,,,,,,,,,,,,,,,,,
,,657a7e142c5fba20342bc97b,2024-02-22_16h27.19.531,kallum_motion_pilot,2023.2.2,Win32,6.671114076,657a7e142c5fba20342bc97b,65d6bb0e977760de756971f7,65d6befee41a9797ff21c907,0.0442,0.0443,0,54,54,114,1,sixfive,,,,,,,,,,,,,,,,,,,,,,,,,,,,,,,,,,,,,,,,,,,,,,,,,,,,,,,,,,,,,,,,,,,,,,,,,,,,,,,,,,,,,,,,,,,,,,,,,,,,,,,,,,,,,,,,,,,,,,,,,,,,,,,,,,,,,,,,,
,,657a7e142c5fba20342bc97b,2024-02-22_16h27.19.531,kallum_motion_pilot,2023.2.2,Win32,6.671114076,657a7e142c5fba20342bc97b,65d6bb0e977760de756971f7,65d6befee41a9797ff21c907,0.045,0.0452,0,55,55,20,1,threeone,,,,,,,,,,,,,,,,,,,,,,,,,,,,,,,,,,,,,,,,,,,,,,,,,,,,,,,,,,,,,,,,,,,,,,,,,,,,,,,,,,,,,,,,,,,,,,,,,,,,,,,,,,,,,,,,,,,,,,,,,,,,,,,,,,,,,,,,,
,,657a7e142c5fba20342bc97b,2024-02-22_16h27.19.531,kallum_motion_pilot,2023.2.2,Win32,6.671114076,657a7e142c5fba20342bc97b,65d6bb0e977760de756971f7,65d6befee41a9797ff21c907,0.0453,0.0454,0,56,56,33,1,onethree,,,,,,,,,,,,,,,,,,,,,,,,,,,,,,,,,,,,,,,,,,,,,,,,,,,,,,,,,,,,,,,,,,,,,,,,,,,,,,,,,,,,,,,,,,,,,,,,,,,,,,,,,,,,,,,,,,,,,,,,,,,,,,,,,,,,,,,,,
,,657a7e142c5fba20342bc97b,2024-02-22_16h27.19.531,kallum_motion_pilot,2023.2.2,Win32,6.671114076,657a7e142c5fba20342bc97b,65d6bb0e977760de756971f7,65d6befee41a9797ff21c907,0.0456,0.0456,0,57,57,161,1,fiveseven,,,,,,,,,,,,,,,,,,,,,,,,,,,,,,,,,,,,,,,,,,,,,,,,,,,,,,,,,,,,,,,,,,,,,,,,,,,,,,,,,,,,,,,,,,,,,,,,,,,,,,,,,,,,,,,,,,,,,,,,,,,,,,,,,,,,,,,,,
,,657a7e142c5fba20342bc97b,2024-02-22_16h27.19.531,kallum_motion_pilot,2023.2.2,Win32,6.671114076,657a7e142c5fba20342bc97b,65d6bb0e977760de756971f7,65d6befee41a9797ff21c907,0.0457,0.0458,0,58,58,0,1,onetwo,,,,,,,,,,,,,,,,,,,,,,,,,,,,,,,,,,,,,,,,,,,,,,,,,,,,,,,,,,,,,,,,,,,,,,,,,,,,,,,,,,,,,,,,,,,,,,,,,,,,,,,,,,,,,,,,,,,,,,,,,,,,,,,,,,,,,,,,,
,,657a7e142c5fba20342bc97b,2024-02-22_16h27.19.531,kallum_motion_pilot,2023.2.2,Win32,6.671114076,657a7e142c5fba20342bc97b,65d6bb0e977760de756971f7,65d6befee41a9797ff21c907,0.0459,0.0459,0,59,59,13,1,threefour,,,,,,,,,,,,,,,,,,,,,,,,,,,,,,,,,,,,,,,,,,,,,,,,,,,,,,,,,,,,,,,,,,,,,,,,,,,,,,,,,,,,,,,,,,,,,,,,,,,,,,,,,,,,,,,,,,,,,,,,,,,,,,,,,,,,,,,,,
,,657a7e142c5fba20342bc97b,2024-02-22_16h27.19.531,kallum_motion_pilot,2023.2.2,Win32,6.671114076,657a7e142c5fba20342bc97b,65d6bb0e977760de756971f7,65d6befee41a9797ff21c907,0.0461,0.0461,0,60,60,92,1,sevenfive,,,,,,,,,,,,,,,,,,,,,,,,,,,,,,,,,,,,,,,,,,,,,,,,,,,,,,,,,,,,,,,,,,,,,,,,,,,,,,,,,,,,,,,,,,,,,,,,,,,,,,,,,,,,,,,,,,,,,,,,,,,,,,,,,,,,,,,,,
,,657a7e142c5fba20342bc97b,2024-02-22_16h27.19.531,kallum_motion_pilot,2023.2.2,Win32,6.671114076,657a7e142c5fba20342bc97b,65d6bb0e977760de756971f7,65d6befee41a9797ff21c907,0.0462,0.0463,0,61,61,153,1,fiveseven,,,,,,,,,,,,,,,,,,,,,,,,,,,,,,,,,,,,,,,,,,,,,,,,,,,,,,,,,,,,,,,,,,,,,,,,,,,,,,,,,,,,,,,,,,,,,,,,,,,,,,,,,,,,,,,,,,,,,,,,,,,,,,,,,,,,,,,,,
,,657a7e142c5fba20342bc97b,2024-02-22_16h27.19.531,kallum_motion_pilot,2023.2.2,Win32,6.671114076,657a7e142c5fba20342bc97b,65d6bb0e977760de756971f7,65d6befee41a9797ff21c907,0.0464,0.0465,0,62,62,116,1,sevenfive,,,,,,,,,,,,,,,,,,,,,,,,,,,,,,,,,,,,,,,,,,,,,,,,,,,,,,,,,,,,,,,,,,,,,,,,,,,,,,,,,,,,,,,,,,,,,,,,,,,,,,,,,,,,,,,,,,,,,,,,,,,,,,,,,,,,,,,,,
,,657a7e142c5fba20342bc97b,2024-02-22_16h27.19.531,kallum_motion_pilot,2023.2.2,Win32,6.671114076,657a7e142c5fba20342bc97b,65d6bb0e977760de756971f7,65d6befee41a9797ff21c907,0.0467,0.0468,0,63,63,127,1,eightseven,,,,,,,,,,,,,,,,,,,,,,,,,,,,,,,,,,,,,,,,,,,,,,,,,,,,,,,,,,,,,,,,,,,,,,,,,,,,,,,,,,,,,,,,,,,,,,,,,,,,,,,,,,,,,,,,,,,,,,,,,,,,,,,,,,,,,,,,,
,,657a7e142c5fba20342bc97b,2024-02-22_16h27.19.531,kallum_motion_pilot,2023.2.2,Win32,6.671114076,657a7e142c5fba20342bc97b,65d6bb0e977760de756971f7,65d6befee41a9797ff21c907,0.0469,0.0469,0,64,64,118,1,eightsix,,,,,,,,,,,,,,,,,,,,,,,,,,,,,,,,,,,,,,,,,,,,,,,,,,,,,,,,,,,,,,,,,,,,,,,,,,,,,,,,,,,,,,,,,,,,,,,,,,,,,,,,,,,,,,,,,,,,,,,,,,,,,,,,,,,,,,,,,
,,657a7e142c5fba20342bc97b,2024-02-22_16h27.19.531,kallum_motion_pilot,2023.2.2,Win32,6.671114076,657a7e142c5fba20342bc97b,65d6bb0e977760de756971f7,65d6befee41a9797ff21c907,0.0471,0.0472,0,65,65,10,1,twoone,,,,,,,,,,,,,,,,,,,,,,,,,,,,,,,,,,,,,,,,,,,,,,,,,,,,,,,,,,,,,,,,,,,,,,,,,,,,,,,,,,,,,,,,,,,,,,,,,,,,,,,,,,,,,,,,,,,,,,,,,,,,,,,,,,,,,,,,,
,,657a7e142c5fba20342bc97b,2024-02-22_16h27.19.531,kallum_motion_pilot,2023.2.2,Win32,6.671114076,657a7e142c5fba20342bc97b,65d6bb0e977760de756971f7,65d6befee41a9797ff21c907,0.0473,0.0474,0,66,66,107,1,sixeight,,,,,,,,,,,,,,,,,,,,,,,,,,,,,,,,,,,,,,,,,,,,,,,,,,,,,,,,,,,,,,,,,,,,,,,,,,,,,,,,,,,,,,,,,,,,,,,,,,,,,,,,,,,,,,,,,,,,,,,,,,,,,,,,,,,,,,,,,
,,657a7e142c5fba20342bc97b,2024-02-22_16h27.19.531,kallum_motion_pilot,2023.2.2,Win32,6.671114076,657a7e142c5fba20342bc97b,65d6bb0e977760de756971f7,65d6befee41a9797ff21c907,0.0475,0.0476,0,67,67,100,1,sevenfive,,,,,,,,,,,,,,,,,,,,,,,,,,,,,,,,,,,,,,,,,,,,,,,,,,,,,,,,,,,,,,,,,,,,,,,,,,,,,,,,,,,,,,,,,,,,,,,,,,,,,,,,,,,,,,,,,,,,,,,,,,,,,,,,,,,,,,,,,
,,657a7e142c5fba20342bc97b,2024-02-22_16h27.19.531,kallum_motion_pilot,2023.2.2,Win32,6.671114076,657a7e142c5fba20342bc97b,65d6bb0e977760de756971f7,65d6befee41a9797ff21c907,0.0477,0.0478,0,68,68,157,1,seveneight,,,,,,,,,,,,,,,,,,,,,,,,,,,,,,,,,,,,,,,,,,,,,,,,,,,,,,,,,,,,,,,,,,,,,,,,,,,,,,,,,,,,,,,,,,,,,,,,,,,,,,,,,,,,,,,,,,,,,,,,,,,,,,,,,,,,,,,,,
,,657a7e142c5fba20342bc97b,2024-02-22_16h27.19.531,kallum_motion_pilot,2023.2.2,Win32,6.671114076,657a7e142c5fba20342bc97b,65d6bb0e977760de756971f7,65d6befee41a9797ff21c907,0.048,0.048,0,69,69,117,1,seveneight,,,,,,,,,,,,,,,,,,,,,,,,,,,,,,,,,,,,,,,,,,,,,,,,,,,,,,,,,,,,,,,,,,,,,,,,,,,,,,,,,,,,,,,,,,,,,,,,,,,,,,,,,,,,,,,,,,,,,,,,,,,,,,,,,,,,,,,,,
,,657a7e142c5fba20342bc97b,2024-02-22_16h27.19.531,kallum_motion_pilot,2023.2.2,Win32,6.671114076,657a7e142c5fba20342bc97b,65d6bb0e977760de756971f7,65d6befee41a9797ff21c907,0.0481,0.0483,0,70,70,133,1,seveneight,,,,,,,,,,,,,,,,,,,,,,,,,,,,,,,,,,,,,,,,,,,,,,,,,,,,,,,,,,,,,,,,,,,,,,,,,,,,,,,,,,,,,,,,,,,,,,,,,,,,,,,,,,,,,,,,,,,,,,,,,,,,,,,,,,,,,,,,,
,,657a7e142c5fba20342bc97b,2024-02-22_16h27.19.531,kallum_motion_pilot,2023.2.2,Win32,6.671114076,657a7e142c5fba20342bc97b,65d6bb0e977760de756971f7,65d6befee41a9797ff21c907,0.0483,0.0485,0,71,71,62,1,fourtwo,,,,,,,,,,,,,,,,,,,,,,,,,,,,,,,,,,,,,,,,,,,,,,,,,,,,,,,,,,,,,,,,,,,,,,,,,,,,,,,,,,,,,,,,,,,,,,,,,,,,,,,,,,,,,,,,,,,,,,,,,,,,,,,,,,,,,,,,,
,,657a7e142c5fba20342bc97b,2024-02-22_16h27.19.531,kallum_motion_pilot,2023.2.2,Win32,6.671114076,657a7e142c5fba20342bc97b,65d6bb0e977760de756971f7,65d6befee41a9797ff21c907,0.0486,0.0486,0,72,72,112,1,fivesix,,,,,,,,,,,,,,,,,,,,,,,,,,,,,,,,,,,,,,,,,,,,,,,,,,,,,,,,,,,,,,,,,,,,,,,,,,,,,,,,,,,,,,,,,,,,,,,,,,,,,,,,,,,,,,,,,,,,,,,,,,,,,,,,,,,,,,,,,
,,657a7e142c5fba20342bc97b,2024-02-22_16h27.19.531,kallum_motion_pilot,2023.2.2,Win32,6.671114076,657a7e142c5fba20342bc97b,65d6bb0e977760de756971f7,65d6befee41a9797ff21c907,0.0488,0.0488,0,73,73,91,1,sixeight,,,,,,,,,,,,,,,,,,,,,,,,,,,,,,,,,,,,,,,,,,,,,,,,,,,,,,,,,,,,,,,,,,,,,,,,,,,,,,,,,,,,,,,,,,,,,,,,,,,,,,,,,,,,,,,,,,,,,,,,,,,,,,,,,,,,,,,,,
,,657a7e142c5fba20342bc97b,2024-02-22_16h27.19.531,kallum_motion_pilot,2023.2.2,Win32,6.671114076,657a7e142c5fba20342bc97b,65d6bb0e977760de756971f7,65d6befee41a9797ff21c907,0.049,0.049,0,74,74,110,1,eightsix,,,,,,,,,,,,,,,,,,,,,,,,,,,,,,,,,,,,,,,,,,,,,,,,,,,,,,,,,,,,,,,,,,,,,,,,,,,,,,,,,,,,,,,,,,,,,,,,,,,,,,,,,,,,,,,,,,,,,,,,,,,,,,,,,,,,,,,,,
,,657a7e142c5fba20342bc97b,2024-02-22_16h27.19.531,kallum_motion_pilot,2023.2.2,Win32,6.671114076,657a7e142c5fba20342bc97b,65d6bb0e977760de756971f7,65d6befee41a9797ff21c907,0.0491,0.0493,0,75,75,129,1,fiveseven,,,,,,,,,,,,,,,,,,,,,,,,,,,,,,,,,,,,,,,,,,,,,,,,,,,,,,,,,,,,,,,,,,,,,,,,,,,,,,,,,,,,,,,,,,,,,,,,,,,,,,,,,,,,,,,,,,,,,,,,,,,,,,,,,,,,,,,,,
,,657a7e142c5fba20342bc97b,2024-02-22_16h27.19.531,kallum_motion_pilot,2023.2.2,Win32,6.671114076,657a7e142c5fba20342bc97b,65d6bb0e977760de756971f7,65d6befee41a9797ff21c907,0.0493,0.0495,0,76,76,104,1,fivesix,,,,,,,,,,,,,,,,,,,,,,,,,,,,,,,,,,,,,,,,,,,,,,,,,,,,,,,,,,,,,,,,,,,,,,,,,,,,,,,,,,,,,,,,,,,,,,,,,,,,,,,,,,,,,,,,,,,,,,,,,,,,,,,,,,,,,,,,,
,,657a7e142c5fba20342bc97b,2024-02-22_16h27.19.531,kallum_motion_pilot,2023.2.2,Win32,6.671114076,657a7e142c5fba20342bc97b,65d6bb0e977760de756971f7,65d6befee41a9797ff21c907,0.0495,0.0496,0,77,77,152,1,fivesix,,,,,,,,,,,,,,,,,,,,,,,,,,,,,,,,,,,,,,,,,,,,,,,,,,,,,,,,,,,,,,,,,,,,,,,,,,,,,,,,,,,,,,,,,,,,,,,,,,,,,,,,,,,,,,,,,,,,,,,,,,,,,,,,,,,,,,,,,
,,657a7e142c5fba20342bc97b,2024-02-22_16h27.19.531,kallum_motion_pilot,2023.2.2,Win32,6.671114076,657a7e142c5fba20342bc97b,65d6bb0e977760de756971f7,65d6befee41a9797ff21c907,0.0497,0.0498,0,78,78,68,1,threeone,,,,,,,,,,,,,,,,,,,,,,,,,,,,,,,,,,,,,,,,,,,,,,,,,,,,,,,,,,,,,,,,,,,,,,,,,,,,,,,,,,,,,,,,,,,,,,,,,,,,,,,,,,,,,,,,,,,,,,,,,,,,,,,,,,,,,,,,,
,,657a7e142c5fba20342bc97b,2024-02-22_16h27.19.531,kallum_motion_pilot,2023.2.2,Win32,6.671114076,657a7e142c5fba20342bc97b,65d6bb0e977760de756971f7,65d6befee41a9797ff21c907,0.0499,0.0499,0,79,79,77,1,threefour,,,,,,,,,,,,,,,,,,,,,,,,,,,,,,,,,,,,,,,,,,,,,,,,,,,,,,,,,,,,,,,,,,,,,,,,,,,,,,,,,,,,,,,,,,,,,,,,,,,,,,,,,,,,,,,,,,,,,,,,,,,,,,,,,,,,,,,,,
,,657a7e142c5fba20342bc97b,2024-02-22_16h27.19.531,kallum_motion_pilot,2023.2.2,Win32,6.671114076,657a7e142c5fba20342bc97b,65d6bb0e977760de756971f7,65d6befee41a9797ff21c907,0.0501,0.0502,0,80,80,53,1,threefour,,,,,,,,,,,,,,,,,,,,,,,,,,,,,,,,,,,,,,,,,,,,,,,,,,,,,,,,,,,,,,,,,,,,,,,,,,,,,,,,,,,,,,,,,,,,,,,,,,,,,,,,,,,,,,,,,,,,,,,,,,,,,,,,,,,,,,,,,
,,657a7e142c5fba20342bc97b,2024-02-22_16h27.19.531,kallum_motion_pilot,2023.2.2,Win32,6.671114076,657a7e142c5fba20342bc97b,65d6bb0e977760de756971f7,65d6befee41a9797ff21c907,0.0503,0.0504,0,81,81,18,1,twoone,,,,,,,,,,,,,,,,,,,,,,,,,,,,,,,,,,,,,,,,,,,,,,,,,,,,,,,,,,,,,,,,,,,,,,,,,,,,,,,,,,,,,,,,,,,,,,,,,,,,,,,,,,,,,,,,,,,,,,,,,,,,,,,,,,,,,,,,,
,,657a7e142c5fba20342bc97b,2024-02-22_16h27.19.531,kallum_motion_pilot,2023.2.2,Win32,6.671114076,657a7e142c5fba20342bc97b,65d6bb0e977760de756971f7,65d6befee41a9797ff21c907,0.0505,0.0506,0,82,82,50,1,twoone,,,,,,,,,,,,,,,,,,,,,,,,,,,,,,,,,,,,,,,,,,,,,,,,,,,,,,,,,,,,,,,,,,,,,,,,,,,,,,,,,,,,,,,,,,,,,,,,,,,,,,,,,,,,,,,,,,,,,,,,,,,,,,,,,,,,,,,,,
,,657a7e142c5fba20342bc97b,2024-02-22_16h27.19.531,kallum_motion_pilot,2023.2.2,Win32,6.671114076,657a7e142c5fba20342bc97b,65d6bb0e977760de756971f7,65d6befee41a9797ff21c907,0.0507,0.0509,0,83,83,74,1,twoone,,,,,,,,,,,,,,,,,,,,,,,,,,,,,,,,,,,,,,,,,,,,,,,,,,,,,,,,,,,,,,,,,,,,,,,,,,,,,,,,,,,,,,,,,,,,,,,,,,,,,,,,,,,,,,,,,,,,,,,,,,,,,,,,,,,,,,,,,
,,657a7e142c5fba20342bc97b,2024-02-22_16h27.19.531,kallum_motion_pilot,2023.2.2,Win32,6.671114076,657a7e142c5fba20342bc97b,65d6bb0e977760de756971f7,65d6befee41a9797ff21c907,0.051,0.0511,0,84,84,75,1,twofour,,,,,,,,,,,,,,,,,,,,,,,,,,,,,,,,,,,,,,,,,,,,,,,,,,,,,,,,,,,,,,,,,,,,,,,,,,,,,,,,,,,,,,,,,,,,,,,,,,,,,,,,,,,,,,,,,,,,,,,,,,,,,,,,,,,,,,,,,
,,657a7e142c5fba20342bc97b,2024-02-22_16h27.19.531,kallum_motion_pilot,2023.2.2,Win32,6.671114076,657a7e142c5fba20342bc97b,65d6bb0e977760de756971f7,65d6befee41a9797ff21c907,0.0513,0.0515,0,85,85,38,1,fourtwo,,,,,,,,,,,,,,,,,,,,,,,,,,,,,,,,,,,,,,,,,,,,,,,,,,,,,,,,,,,,,,,,,,,,,,,,,,,,,,,,,,,,,,,,,,,,,,,,,,,,,,,,,,,,,,,,,,,,,,,,,,,,,,,,,,,,,,,,,
,,657a7e142c5fba20342bc97b,2024-02-22_16h27.19.531,kallum_motion_pilot,2023.2.2,Win32,6.671114076,657a7e142c5fba20342bc97b,65d6bb0e977760de756971f7,65d6befee41a9797ff21c907,0.0517,0.0518,0,86,86,154,1,sixfive,,,,,,,,,,,,,,,,,,,,,,,,,,,,,,,,,,,,,,,,,,,,,,,,,,,,,,,,,,,,,,,,,,,,,,,,,,,,,,,,,,,,,,,,,,,,,,,,,,,,,,,,,,,,,,,,,,,,,,,,,,,,,,,,,,,,,,,,,
,,657a7e142c5fba20342bc97b,2024-02-22_16h27.19.531,kallum_motion_pilot,2023.2.2,Win32,6.671114076,657a7e142c5fba20342bc97b,65d6bb0e977760de756971f7,65d6befee41a9797ff21c907,0.052,0.0521,0,87,87,61,1,threefour,,,,,,,,,,,,,,,,,,,,,,,,,,,,,,,,,,,,,,,,,,,,,,,,,,,,,,,,,,,,,,,,,,,,,,,,,,,,,,,,,,,,,,,,,,,,,,,,,,,,,,,,,,,,,,,,,,,,,,,,,,,,,,,,,,,,,,,,,
,,657a7e142c5fba20342bc97b,2024-02-22_16h27.19.531,kallum_motion_pilot,2023.2.2,Win32,6.671114076,657a7e142c5fba20342bc97b,65d6bb0e977760de756971f7,65d6befee41a9797ff21c907,0.0523,0.0523,0,88,88,30,1,fourtwo,,,,,,,,,,,,,,,,,,,,,,,,,,,,,,,,,,,,,,,,,,,,,,,,,,,,,,,,,,,,,,,,,,,,,,,,,,,,,,,,,,,,,,,,,,,,,,,,,,,,,,,,,,,,,,,,,,,,,,,,,,,,,,,,,,,,,,,,,
,,657a7e142c5fba20342bc97b,2024-02-22_16h27.19.531,kallum_motion_pilot,2023.2.2,Win32,6.671114076,657a7e142c5fba20342bc97b,65d6bb0e977760de756971f7,65d6befee41a9797ff21c907,0.0526,0.0527,0,89,89,67,1,twofour,,,,,,,,,,,,,,,,,,,,,,,,,,,,,,,,,,,,,,,,,,,,,,,,,,,,,,,,,,,,,,,,,,,,,,,,,,,,,,,,,,,,,,,,,,,,,,,,,,,,,,,,,,,,,,,,,,,,,,,,,,,,,,,,,,,,,,,,,
,,657a7e142c5fba20342bc97b,2024-02-22_16h27.19.531,kallum_motion_pilot,2023.2.2,Win32,6.671114076,657a7e142c5fba20342bc97b,65d6bb0e977760de756971f7,65d6befee41a9797ff21c907,0.0529,0.053,0,90,90,2,1,twoone,,,,,,,,,,,,,,,,,,,,,,,,,,,,,,,,,,,,,,,,,,,,,,,,,,,,,,,,,,,,,,,,,,,,,,,,,,,,,,,,,,,,,,,,,,,,,,,,,,,,,,,,,,,,,,,,,,,,,,,,,,,,,,,,,,,,,,,,,
,,657a7e142c5fba20342bc97b,2024-02-22_16h27.19.531,kallum_motion_pilot,2023.2.2,Win32,6.671114076,657a7e142c5fba20342bc97b,65d6bb0e977760de756971f7,65d6befee41a9797ff21c907,0.0532,0.0533,0,91,91,47,1,fourthree,,,,,,,,,,,,,,,,,,,,,,,,,,,,,,,,,,,,,,,,,,,,,,,,,,,,,,,,,,,,,,,,,,,,,,,,,,,,,,,,,,,,,,,,,,,,,,,,,,,,,,,,,,,,,,,,,,,,,,,,,,,,,,,,,,,,,,,,,
,,657a7e142c5fba20342bc97b,2024-02-22_16h27.19.531,kallum_motion_pilot,2023.2.2,Win32,6.671114076,657a7e142c5fba20342bc97b,65d6bb0e977760de756971f7,65d6befee41a9797ff21c907,0.0535,0.0535,0,92,92,71,1,fourthree,,,,,,,,,,,,,,,,,,,,,,,,,,,,,,,,,,,,,,,,,,,,,,,,,,,,,,,,,,,,,,,,,,,,,,,,,,,,,,,,,,,,,,,,,,,,,,,,,,,,,,,,,,,,,,,,,,,,,,,,,,,,,,,,,,,,,,,,,
,,657a7e142c5fba20342bc97b,2024-02-22_16h27.19.531,kallum_motion_pilot,2023.2.2,Win32,6.671114076,657a7e142c5fba20342bc97b,65d6bb0e977760de756971f7,65d6befee41a9797ff21c907,0.0539,0.0539,0,93,93,135,1,eightseven,,,,,,,,,,,,,,,,,,,,,,,,,,,,,,,,,,,,,,,,,,,,,,,,,,,,,,,,,,,,,,,,,,,,,,,,,,,,,,,,,,,,,,,,,,,,,,,,,,,,,,,,,,,,,,,,,,,,,,,,,,,,,,,,,,,,,,,,,
,,657a7e142c5fba20342bc97b,2024-02-22_16h27.19.531,kallum_motion_pilot,2023.2.2,Win32,6.671114076,657a7e142c5fba20342bc97b,65d6bb0e977760de756971f7,65d6befee41a9797ff21c907,0.0541,0.0541,0,94,94,56,1,onetwo,,,,,,,,,,,,,,,,,,,,,,,,,,,,,,,,,,,,,,,,,,,,,,,,,,,,,,,,,,,,,,,,,,,,,,,,,,,,,,,,,,,,,,,,,,,,,,,,,,,,,,,,,,,,,,,,,,,,,,,,,,,,,,,,,,,,,,,,,
,,657a7e142c5fba20342bc97b,2024-02-22_16h27.19.531,kallum_motion_pilot,2023.2.2,Win32,6.671114076,657a7e142c5fba20342bc97b,65d6bb0e977760de756971f7,65d6befee41a9797ff21c907,0.0543,0.0544,0,95,95,136,1,fivesix,,,,,,,,,,,,,,,,,,,,,,,,,,,,,,,,,,,,,,,,,,,,,,,,,,,,,,,,,,,,,,,,,,,,,,,,,,,,,,,,,,,,,,,,,,,,,,,,,,,,,,,,,,,,,,,,,,,,,,,,,,,,,,,,,,,,,,,,,
,,657a7e142c5fba20342bc97b,2024-02-22_16h27.19.531,kallum_motion_pilot,2023.2.2,Win32,6.671114076,657a7e142c5fba20342bc97b,65d6bb0e977760de756971f7,65d6befee41a9797ff21c907,0.0546,0.0546,0,96,96,14,1,fourtwo,,,,,,,,,,,,,,,,,,,,,,,,,,,,,,,,,,,,,,,,,,,,,,,,,,,,,,,,,,,,,,,,,,,,,,,,,,,,,,,,,,,,,,,,,,,,,,,,,,,,,,,,,,,,,,,,,,,,,,,,,,,,,,,,,,,,,,,,,
,,657a7e142c5fba20342bc97b,2024-02-22_16h27.19.531,kallum_motion_pilot,2023.2.2,Win32,6.671114076,657a7e142c5fba20342bc97b,65d6bb0e977760de756971f7,65d6befee41a9797ff21c907,0.0548,0.0549,0,97,97,11,1,twofour,,,,,,,,,,,,,,,,,,,,,,,,,,,,,,,,,,,,,,,,,,,,,,,,,,,,,,,,,,,,,,,,,,,,,,,,,,,,,,,,,,,,,,,,,,,,,,,,,,,,,,,,,,,,,,,,,,,,,,,,,,,,,,,,,,,,,,,,,
,,657a7e142c5fba20342bc97b,2024-02-22_16h27.19.531,kallum_motion_pilot,2023.2.2,Win32,6.671114076,657a7e142c5fba20342bc97b,65d6bb0e977760de756971f7,65d6befee41a9797ff21c907,0.055,0.0551,0,98,98,95,1,eightseven,,,,,,,,,,,,,,,,,,,,,,,,,,,,,,,,,,,,,,,,,,,,,,,,,,,,,,,,,,,,,,,,,,,,,,,,,,,,,,,,,,,,,,,,,,,,,,,,,,,,,,,,,,,,,,,,,,,,,,,,,,,,,,,,,,,,,,,,,
,,657a7e142c5fba20342bc97b,2024-02-22_16h27.19.531,kallum_motion_pilot,2023.2.2,Win32,6.671114076,657a7e142c5fba20342bc97b,65d6bb0e977760de756971f7,65d6befee41a9797ff21c907,0.0552,0.0553,0,99,99,29,1,threefour,,,,,,,,,,,,,,,,,,,,,,,,,,,,,,,,,,,,,,,,,,,,,,,,,,,,,,,,,,,,,,,,,,,,,,,,,,,,,,,,,,,,,,,,,,,,,,,,,,,,,,,,,,,,,,,,,,,,,,,,,,,,,,,,,,,,,,,,,
,,657a7e142c5fba20342bc97b,2024-02-22_16h27.19.531,kallum_motion_pilot,2023.2.2,Win32,6.671114076,657a7e142c5fba20342bc97b,65d6bb0e977760de756971f7,65d6befee41a9797ff21c907,0.0555,0.0556,0,100,100,37,1,threefour,,,,,,,,,,,,,,,,,,,,,,,,,,,,,,,,,,,,,,,,,,,,,,,,,,,,,,,,,,,,,,,,,,,,,,,,,,,,,,,,,,,,,,,,,,,,,,,,,,,,,,,,,,,,,,,,,,,,,,,,,,,,,,,,,,,,,,,,,
,,657a7e142c5fba20342bc97b,2024-02-22_16h27.19.531,kallum_motion_pilot,2023.2.2,Win32,6.671114076,657a7e142c5fba20342bc97b,65d6bb0e977760de756971f7,65d6befee41a9797ff21c907,0.0557,0.0558,0,101,101,147,1,sixeight,,,,,,,,,,,,,,,,,,,,,,,,,,,,,,,,,,,,,,,,,,,,,,,,,,,,,,,,,,,,,,,,,,,,,,,,,,,,,,,,,,,,,,,,,,,,,,,,,,,,,,,,,,,,,,,,,,,,,,,,,,,,,,,,,,,,,,,,,
,,657a7e142c5fba20342bc97b,2024-02-22_16h27.19.531,kallum_motion_pilot,2023.2.2,Win32,6.671114076,657a7e142c5fba20342bc97b,65d6bb0e977760de756971f7,65d6befee41a9797ff21c907,0.056,0.056,0,102,102,32,1,onetwo,,,,,,,,,,,,,,,,,,,,,,,,,,,,,,,,,,,,,,,,,,,,,,,,,,,,,,,,,,,,,,,,,,,,,,,,,,,,,,,,,,,,,,,,,,,,,,,,,,,,,,,,,,,,,,,,,,,,,,,,,,,,,,,,,,,,,,,,,
,,657a7e142c5fba20342bc97b,2024-02-22_16h27.19.531,kallum_motion_pilot,2023.2.2,Win32,6.671114076,657a7e142c5fba20342bc97b,65d6bb0e977760de756971f7,65d6befee41a9797ff21c907,0.0562,0.0563,0,103,103,132,1,sevenfive,,,,,,,,,,,,,,,,,,,,,,,,,,,,,,,,,,,,,,,,,,,,,,,,,,,,,,,,,,,,,,,,,,,,,,,,,,,,,,,,,,,,,,,,,,,,,,,,,,,,,,,,,,,,,,,,,,,,,,,,,,,,,,,,,,,,,,,,,
,,657a7e142c5fba20342bc97b,2024-02-22_16h27.19.531,kallum_motion_pilot,2023.2.2,Win32,6.671114076,657a7e142c5fba20342bc97b,65d6bb0e977760de756971f7,65d6befee41a9797ff21c907,0.0565,0.0565,0,104,104,55,1,fourthree,,,,,,,,,,,,,,,,,,,,,,,,,,,,,,,,,,,,,,,,,,,,,,,,,,,,,,,,,,,,,,,,,,,,,,,,,,,,,,,,,,,,,,,,,,,,,,,,,,,,,,,,,,,,,,,,,,,,,,,,,,,,,,,,,,,,,,,,,
,,657a7e142c5fba20342bc97b,2024-02-22_16h27.19.531,kallum_motion_pilot,2023.2.2,Win32,6.671114076,657a7e142c5fba20342bc97b,65d6bb0e977760de756971f7,65d6befee41a9797ff21c907,0.0566,0.0567,0,105,105,3,1,twofour,,,,,,,,,,,,,,,,,,,,,,,,,,,,,,,,,,,,,,,,,,,,,,,,,,,,,,,,,,,,,,,,,,,,,,,,,,,,,,,,,,,,,,,,,,,,,,,,,,,,,,,,,,,,,,,,,,,,,,,,,,,,,,,,,,,,,,,,,
,,657a7e142c5fba20342bc97b,2024-02-22_16h27.19.531,kallum_motion_pilot,2023.2.2,Win32,6.671114076,657a7e142c5fba20342bc97b,65d6bb0e977760de756971f7,65d6befee41a9797ff21c907,0.0569,0.057,0,106,106,151,1,eightseven,,,,,,,,,,,,,,,,,,,,,,,,,,,,,,,,,,,,,,,,,,,,,,,,,,,,,,,,,,,,,,,,,,,,,,,,,,,,,,,,,,,,,,,,,,,,,,,,,,,,,,,,,,,,,,,,,,,,,,,,,,,,,,,,,,,,,,,,,
,,657a7e142c5fba20342bc97b,2024-02-22_16h27.19.531,kallum_motion_pilot,2023.2.2,Win32,6.671114076,657a7e142c5fba20342bc97b,65d6bb0e977760de756971f7,65d6befee41a9797ff21c907,0.0571,0.0572,0,107,107,22,1,fourtwo,,,,,,,,,,,,,,,,,,,,,,,,,,,,,,,,,,,,,,,,,,,,,,,,,,,,,,,,,,,,,,,,,,,,,,,,,,,,,,,,,,,,,,,,,,,,,,,,,,,,,,,,,,,,,,,,,,,,,,,,,,,,,,,,,,,,,,,,,
,,657a7e142c5fba20342bc97b,2024-02-22_16h27.19.531,kallum_motion_pilot,2023.2.2,Win32,6.671114076,657a7e142c5fba20342bc97b,65d6bb0e977760de756971f7,65d6befee41a9797ff21c907,0.0573,0.0574,0,108,108,159,1,eightseven,,,,,,,,,,,,,,,,,,,,,,,,,,,,,,,,,,,,,,,,,,,,,,,,,,,,,,,,,,,,,,,,,,,,,,,,,,,,,,,,,,,,,,,,,,,,,,,,,,,,,,,,,,,,,,,,,,,,,,,,,,,,,,,,,,,,,,,,,
,,657a7e142c5fba20342bc97b,2024-02-22_16h27.19.531,kallum_motion_pilot,2023.2.2,Win32,6.671114076,657a7e142c5fba20342bc97b,65d6bb0e977760de756971f7,65d6befee41a9797ff21c907,0.0577,0.0578,0,109,109,57,1,onethree,,,,,,,,,,,,,,,,,,,,,,,,,,,,,,,,,,,,,,,,,,,,,,,,,,,,,,,,,,,,,,,,,,,,,,,,,,,,,,,,,,,,,,,,,,,,,,,,,,,,,,,,,,,,,,,,,,,,,,,,,,,,,,,,,,,,,,,,,
,,657a7e142c5fba20342bc97b,2024-02-22_16h27.19.531,kallum_motion_pilot,2023.2.2,Win32,6.671114076,657a7e142c5fba20342bc97b,65d6bb0e977760de756971f7,65d6befee41a9797ff21c907,0.0581,0.0582,0,110,110,134,1,eightsix,,,,,,,,,,,,,,,,,,,,,,,,,,,,,,,,,,,,,,,,,,,,,,,,,,,,,,,,,,,,,,,,,,,,,,,,,,,,,,,,,,,,,,,,,,,,,,,,,,,,,,,,,,,,,,,,,,,,,,,,,,,,,,,,,,,,,,,,,
,,657a7e142c5fba20342bc97b,2024-02-22_16h27.19.531,kallum_motion_pilot,2023.2.2,Win32,6.671114076,657a7e142c5fba20342bc97b,65d6bb0e977760de756971f7,65d6befee41a9797ff21c907,0.0582,0.0584,0,111,111,12,1,threeone,,,,,,,,,,,,,,,,,,,,,,,,,,,,,,,,,,,,,,,,,,,,,,,,,,,,,,,,,,,,,,,,,,,,,,,,,,,,,,,,,,,,,,,,,,,,,,,,,,,,,,,,,,,,,,,,,,,,,,,,,,,,,,,,,,,,,,,,,
,,657a7e142c5fba20342bc97b,2024-02-22_16h27.19.531,kallum_motion_pilot,2023.2.2,Win32,6.671114076,657a7e142c5fba20342bc97b,65d6bb0e977760de756971f7,65d6befee41a9797ff21c907,0.0584,0.0586,0,112,112,94,1,eightsix,,,,,,,,,,,,,,,,,,,,,,,,,,,,,,,,,,,,,,,,,,,,,,,,,,,,,,,,,,,,,,,,,,,,,,,,,,,,,,,,,,,,,,,,,,,,,,,,,,,,,,,,,,,,,,,,,,,,,,,,,,,,,,,,,,,,,,,,,
,,657a7e142c5fba20342bc97b,2024-02-22_16h27.19.531,kallum_motion_pilot,2023.2.2,Win32,6.671114076,657a7e142c5fba20342bc97b,65d6bb0e977760de756971f7,65d6befee41a9797ff21c907,0.0588,0.0589,0,113,113,143,1,eightseven,,,,,,,,,,,,,,,,,,,,,,,,,,,,,,,,,,,,,,,,,,,,,,,,,,,,,,,,,,,,,,,,,,,,,,,,,,,,,,,,,,,,,,,,,,,,,,,,,,,,,,,,,,,,,,,,,,,,,,,,,,,,,,,,,,,,,,,,,
,,657a7e142c5fba20342bc97b,2024-02-22_16h27.19.531,kallum_motion_pilot,2023.2.2,Win32,6.671114076,657a7e142c5fba20342bc97b,65d6bb0e977760de756971f7,65d6befee41a9797ff21c907,0.0591,0.0592,0,114,114,139,1,sixeight,,,,,,,,,,,,,,,,,,,,,,,,,,,,,,,,,,,,,,,,,,,,,,,,,,,,,,,,,,,,,,,,,,,,,,,,,,,,,,,,,,,,,,,,,,,,,,,,,,,,,,,,,,,,,,,,,,,,,,,,,,,,,,,,,,,,,,,,,
,,657a7e142c5fba20342bc97b,2024-02-22_16h27.19.531,kallum_motion_pilot,2023.2.2,Win32,6.671114076,657a7e142c5fba20342bc97b,65d6bb0e977760de756971f7,65d6befee41a9797ff21c907,0.0594,0.0595,0,115,115,88,1,fivesix,,,,,,,,,,,,,,,,,,,,,,,,,,,,,,,,,,,,,,,,,,,,,,,,,,,,,,,,,,,,,,,,,,,,,,,,,,,,,,,,,,,,,,,,,,,,,,,,,,,,,,,,,,,,,,,,,,,,,,,,,,,,,,,,,,,,,,,,,
,,657a7e142c5fba20342bc97b,2024-02-22_16h27.19.531,kallum_motion_pilot,2023.2.2,Win32,6.671114076,657a7e142c5fba20342bc97b,65d6bb0e977760de756971f7,65d6befee41a9797ff21c907,0.0597,0.0598,0,116,116,155,1,sixeight,,,,,,,,,,,,,,,,,,,,,,,,,,,,,,,,,,,,,,,,,,,,,,,,,,,,,,,,,,,,,,,,,,,,,,,,,,,,,,,,,,,,,,,,,,,,,,,,,,,,,,,,,,,,,,,,,,,,,,,,,,,,,,,,,,,,,,,,,
,,657a7e142c5fba20342bc97b,2024-02-22_16h27.19.531,kallum_motion_pilot,2023.2.2,Win32,6.671114076,657a7e142c5fba20342bc97b,65d6bb0e977760de756971f7,65d6befee41a9797ff21c907,0.0599,0.0601,0,117,117,128,1,fivesix,,,,,,,,,,,,,,,,,,,,,,,,,,,,,,,,,,,,,,,,,,,,,,,,,,,,,,,,,,,,,,,,,,,,,,,,,,,,,,,,,,,,,,,,,,,,,,,,,,,,,,,,,,,,,,,,,,,,,,,,,,,,,,,,,,,,,,,,,
,,657a7e142c5fba20342bc97b,2024-02-22_16h27.19.531,kallum_motion_pilot,2023.2.2,Win32,6.671114076,657a7e142c5fba20342bc97b,65d6bb0e977760de756971f7,65d6befee41a9797ff21c907,0.0603,0.0604,0,118,118,82,1,sixfive,,,,,,,,,,,,,,,,,,,,,,,,,,,,,,,,,,,,,,,,,,,,,,,,,,,,,,,,,,,,,,,,,,,,,,,,,,,,,,,,,,,,,,,,,,,,,,,,,,,,,,,,,,,,,,,,,,,,,,,,,,,,,,,,,,,,,,,,,
,,657a7e142c5fba20342bc97b,2024-02-22_16h27.19.531,kallum_motion_pilot,2023.2.2,Win32,6.671114076,657a7e142c5fba20342bc97b,65d6bb0e977760de756971f7,65d6befee41a9797ff21c907,0.0606,0.0607,0,119,119,115,1,sixeight,,,,,,,,,,,,,,,,,,,,,,,,,,,,,,,,,,,,,,,,,,,,,,,,,,,,,,,,,,,,,,,,,,,,,,,,,,,,,,,,,,,,,,,,,,,,,,,,,,,,,,,,,,,,,,,,,,,,,,,,,,,,,,,,,,,,,,,,,
,,657a7e142c5fba20342bc97b,2024-02-22_16h27.19.531,kallum_motion_pilot,2023.2.2,Win32,6.671114076,657a7e142c5fba20342bc97b,65d6bb0e977760de756971f7,65d6befee41a9797ff21c907,0.0609,0.061,0,120,120,148,1,sevenfive,,,,,,,,,,,,,,,,,,,,,,,,,,,,,,,,,,,,,,,,,,,,,,,,,,,,,,,,,,,,,,,,,,,,,,,,,,,,,,,,,,,,,,,,,,,,,,,,,,,,,,,,,,,,,,,,,,,,,,,,,,,,,,,,,,,,,,,,,
,,657a7e142c5fba20342bc97b,2024-02-22_16h27.19.531,kallum_motion_pilot,2023.2.2,Win32,6.671114076,657a7e142c5fba20342bc97b,65d6bb0e977760de756971f7,65d6befee41a9797ff21c907,0.0612,0.0614,0,121,121,108,1,sevenfive,,,,,,,,,,,,,,,,,,,,,,,,,,,,,,,,,,,,,,,,,,,,,,,,,,,,,,,,,,,,,,,,,,,,,,,,,,,,,,,,,,,,,,,,,,,,,,,,,,,,,,,,,,,,,,,,,,,,,,,,,,,,,,,,,,,,,,,,,
,,657a7e142c5fba20342bc97b,2024-02-22_16h27.19.531,kallum_motion_pilot,2023.2.2,Win32,6.671114076,657a7e142c5fba20342bc97b,65d6bb0e977760de756971f7,65d6befee41a9797ff21c907,0.0616,0.0616,0,122,122,43,1,twofour,,,,,,,,,,,,,,,,,,,,,,,,,,,,,,,,,,,,,,,,,,,,,,,,,,,,,,,,,,,,,,,,,,,,,,,,,,,,,,,,,,,,,,,,,,,,,,,,,,,,,,,,,,,,,,,,,,,,,,,,,,,,,,,,,,,,,,,,,
,,657a7e142c5fba20342bc97b,2024-02-22_16h27.19.531,kallum_motion_pilot,2023.2.2,Win32,6.671114076,657a7e142c5fba20342bc97b,65d6bb0e977760de756971f7,65d6befee41a9797ff21c907,0.0617,0.0618,0,123,123,106,1,sixfive,,,,,,,,,,,,,,,,,,,,,,,,,,,,,,,,,,,,,,,,,,,,,,,,,,,,,,,,,,,,,,,,,,,,,,,,,,,,,,,,,,,,,,,,,,,,,,,,,,,,,,,,,,,,,,,,,,,,,,,,,,,,,,,,,,,,,,,,,
,,657a7e142c5fba20342bc97b,2024-02-22_16h27.19.531,kallum_motion_pilot,2023.2.2,Win32,6.671114076,657a7e142c5fba20342bc97b,65d6bb0e977760de756971f7,65d6befee41a9797ff21c907,0.062,0.0622,0,124,124,122,1,sixfive,,,,,,,,,,,,,,,,,,,,,,,,,,,,,,,,,,,,,,,,,,,,,,,,,,,,,,,,,,,,,,,,,,,,,,,,,,,,,,,,,,,,,,,,,,,,,,,,,,,,,,,,,,,,,,,,,,,,,,,,,,,,,,,,,,,,,,,,,
,,657a7e142c5fba20342bc97b,2024-02-22_16h27.19.531,kallum_motion_pilot,2023.2.2,Win32,6.671114076,657a7e142c5fba20342bc97b,65d6bb0e977760de756971f7,65d6befee41a9797ff21c907,0.0623,0.0625,0,125,125,15,1,fourthree,,,,,,,,,,,,,,,,,,,,,,,,,,,,,,,,,,,,,,,,,,,,,,,,,,,,,,,,,,,,,,,,,,,,,,,,,,,,,,,,,,,,,,,,,,,,,,,,,,,,,,,,,,,,,,,,,,,,,,,,,,,,,,,,,,,,,,,,,
,,657a7e142c5fba20342bc97b,2024-02-22_16h27.19.531,kallum_motion_pilot,2023.2.2,Win32,6.671114076,657a7e142c5fba20342bc97b,65d6bb0e977760de756971f7,65d6befee41a9797ff21c907,0.0626,0.0627,0,126,126,146,1,sixfive,,,,,,,,,,,,,,,,,,,,,,,,,,,,,,,,,,,,,,,,,,,,,,,,,,,,,,,,,,,,,,,,,,,,,,,,,,,,,,,,,,,,,,,,,,,,,,,,,,,,,,,,,,,,,,,,,,,,,,,,,,,,,,,,,,,,,,,,,
,,657a7e142c5fba20342bc97b,2024-02-22_16h27.19.531,kallum_motion_pilot,2023.2.2,Win32,6.671114076,657a7e142c5fba20342bc97b,65d6bb0e977760de756971f7,65d6befee41a9797ff21c907,0.0629,0.063,0,127,127,79,1,eightseven,,,,,,,,,,,,,,,,,,,,,,,,,,,,,,,,,,,,,,,,,,,,,,,,,,,,,,,,,,,,,,,,,,,,,,,,,,,,,,,,,,,,,,,,,,,,,,,,,,,,,,,,,,,,,,,,,,,,,,,,,,,,,,,,,,,,,,,,,
,,657a7e142c5fba20342bc97b,2024-02-22_16h27.19.531,kallum_motion_pilot,2023.2.2,Win32,6.671114076,657a7e142c5fba20342bc97b,65d6bb0e977760de756971f7,65d6befee41a9797ff21c907,0.0633,0.0634,0,128,128,99,1,sixeight,,,,,,,,,,,,,,,,,,,,,,,,,,,,,,,,,,,,,,,,,,,,,,,,,,,,,,,,,,,,,,,,,,,,,,,,,,,,,,,,,,,,,,,,,,,,,,,,,,,,,,,,,,,,,,,,,,,,,,,,,,,,,,,,,,,,,,,,,
,,657a7e142c5fba20342bc97b,2024-02-22_16h27.19.531,kallum_motion_pilot,2023.2.2,Win32,6.671114076,657a7e142c5fba20342bc97b,65d6bb0e977760de756971f7,65d6befee41a9797ff21c907,0.0636,0.0637,0,129,129,158,1,eightsix,,,,,,,,,,,,,,,,,,,,,,,,,,,,,,,,,,,,,,,,,,,,,,,,,,,,,,,,,,,,,,,,,,,,,,,,,,,,,,,,,,,,,,,,,,,,,,,,,,,,,,,,,,,,,,,,,,,,,,,,,,,,,,,,,,,,,,,,,
,,657a7e142c5fba20342bc97b,2024-02-22_16h27.19.531,kallum_motion_pilot,2023.2.2,Win32,6.671114076,657a7e142c5fba20342bc97b,65d6bb0e977760de756971f7,65d6befee41a9797ff21c907,0.064,0.0641,0,130,130,49,1,onethree,,,,,,,,,,,,,,,,,,,,,,,,,,,,,,,,,,,,,,,,,,,,,,,,,,,,,,,,,,,,,,,,,,,,,,,,,,,,,,,,,,,,,,,,,,,,,,,,,,,,,,,,,,,,,,,,,,,,,,,,,,,,,,,,,,,,,,,,,
,,657a7e142c5fba20342bc97b,2024-02-22_16h27.19.531,kallum_motion_pilot,2023.2.2,Win32,6.671114076,657a7e142c5fba20342bc97b,65d6bb0e977760de756971f7,65d6befee41a9797ff21c907,0.0643,0.0644,0,131,131,123,1,sixeight,,,,,,,,,,,,,,,,,,,,,,,,,,,,,,,,,,,,,,,,,,,,,,,,,,,,,,,,,,,,,,,,,,,,,,,,,,,,,,,,,,,,,,,,,,,,,,,,,,,,,,,,,,,,,,,,,,,,,,,,,,,,,,,,,,,,,,,,,
,,657a7e142c5fba20342bc97b,2024-02-22_16h27.19.531,kallum_motion_pilot,2023.2.2,Win32,6.671114076,657a7e142c5fba20342bc97b,65d6bb0e977760de756971f7,65d6befee41a9797ff21c907,0.0646,0.0647,0,132,132,16,1,onetwo,,,,,,,,,,,,,,,,,,,,,,,,,,,,,,,,,,,,,,,,,,,,,,,,,,,,,,,,,,,,,,,,,,,,,,,,,,,,,,,,,,,,,,,,,,,,,,,,,,,,,,,,,,,,,,,,,,,,,,,,,,,,,,,,,,,,,,,,,
,,657a7e142c5fba20342bc97b,2024-02-22_16h27.19.531,kallum_motion_pilot,2023.2.2,Win32,6.671114076,657a7e142c5fba20342bc97b,65d6bb0e977760de756971f7,65d6befee41a9797ff21c907,0.065,0.0651,0,133,133,111,1,eightseven,,,,,,,,,,,,,,,,,,,,,,,,,,,,,,,,,,,,,,,,,,,,,,,,,,,,,,,,,,,,,,,,,,,,,,,,,,,,,,,,,,,,,,,,,,,,,,,,,,,,,,,,,,,,,,,,,,,,,,,,,,,,,,,,,,,,,,,,,
,,657a7e142c5fba20342bc97b,2024-02-22_16h27.19.531,kallum_motion_pilot,2023.2.2,Win32,6.671114076,657a7e142c5fba20342bc97b,65d6bb0e977760de756971f7,65d6befee41a9797ff21c907,0.0652,0.0653,0,134,134,19,1,twofour,,,,,,,,,,,,,,,,,,,,,,,,,,,,,,,,,,,,,,,,,,,,,,,,,,,,,,,,,,,,,,,,,,,,,,,,,,,,,,,,,,,,,,,,,,,,,,,,,,,,,,,,,,,,,,,,,,,,,,,,,,,,,,,,,,,,,,,,,
,,657a7e142c5fba20342bc97b,2024-02-22_16h27.19.531,kallum_motion_pilot,2023.2.2,Win32,6.671114076,657a7e142c5fba20342bc97b,65d6bb0e977760de756971f7,65d6befee41a9797ff21c907,0.0655,0.0657,0,135,135,78,1,fourtwo,,,,,,,,,,,,,,,,,,,,,,,,,,,,,,,,,,,,,,,,,,,,,,,,,,,,,,,,,,,,,,,,,,,,,,,,,,,,,,,,,,,,,,,,,,,,,,,,,,,,,,,,,,,,,,,,,,,,,,,,,,,,,,,,,,,,,,,,,
,,657a7e142c5fba20342bc97b,2024-02-22_16h27.19.531,kallum_motion_pilot,2023.2.2,Win32,6.671114076,657a7e142c5fba20342bc97b,65d6bb0e977760de756971f7,65d6befee41a9797ff21c907,0.0659,0.0661,0,136,136,8,1,onetwo,,,,,,,,,,,,,,,,,,,,,,,,,,,,,,,,,,,,,,,,,,,,,,,,,,,,,,,,,,,,,,,,,,,,,,,,,,,,,,,,,,,,,,,,,,,,,,,,,,,,,,,,,,,,,,,,,,,,,,,,,,,,,,,,,,,,,,,,,
,,657a7e142c5fba20342bc97b,2024-02-22_16h27.19.531,kallum_motion_pilot,2023.2.2,Win32,6.671114076,657a7e142c5fba20342bc97b,65d6bb0e977760de756971f7,65d6befee41a9797ff21c907,0.0662,0.0664,0,137,137,138,1,sixfive,,,,,,,,,,,,,,,,,,,,,,,,,,,,,,,,,,,,,,,,,,,,,,,,,,,,,,,,,,,,,,,,,,,,,,,,,,,,,,,,,,,,,,,,,,,,,,,,,,,,,,,,,,,,,,,,,,,,,,,,,,,,,,,,,,,,,,,,,
,,657a7e142c5fba20342bc97b,2024-02-22_16h27.19.531,kallum_motion_pilot,2023.2.2,Win32,6.671114076,657a7e142c5fba20342bc97b,65d6bb0e977760de756971f7,65d6befee41a9797ff21c907,0.0666,0.0667,0,138,138,42,1,twoone,,,,,,,,,,,,,,,,,,,,,,,,,,,,,,,,,,,,,,,,,,,,,,,,,,,,,,,,,,,,,,,,,,,,,,,,,,,,,,,,,,,,,,,,,,,,,,,,,,,,,,,,,,,,,,,,,,,,,,,,,,,,,,,,,,,,,,,,,
,,657a7e142c5fba20342bc97b,2024-02-22_16h27.19.531,kallum_motion_pilot,2023.2.2,Win32,6.671114076,657a7e142c5fba20342bc97b,65d6bb0e977760de756971f7,65d6befee41a9797ff21c907,0.0668,0.067,0,139,139,31,1,fourthree,,,,,,,,,,,,,,,,,,,,,,,,,,,,,,,,,,,,,,,,,,,,,,,,,,,,,,,,,,,,,,,,,,,,,,,,,,,,,,,,,,,,,,,,,,,,,,,,,,,,,,,,,,,,,,,,,,,,,,,,,,,,,,,,,,,,,,,,,
,,657a7e142c5fba20342bc97b,2024-02-22_16h27.19.531,kallum_motion_pilot,2023.2.2,Win32,6.671114076,657a7e142c5fba20342bc97b,65d6bb0e977760de756971f7,65d6befee41a9797ff21c907,0.0687,0.0689,0,140,140,17,1,onethree,,,,,,,,,,,,,,,,,,,,,,,,,,,,,,,,,,,,,,,,,,,,,,,,,,,,,,,,,,,,,,,,,,,,,,,,,,,,,,,,,,,,,,,,,,,,,,,,,,,,,,,,,,,,,,,,,,,,,,,,,,,,,,,,,,,,,,,,,
,,657a7e142c5fba20342bc97b,2024-02-22_16h27.19.531,kallum_motion_pilot,2023.2.2,Win32,6.671114076,657a7e142c5fba20342bc97b,65d6bb0e977760de756971f7,65d6befee41a9797ff21c907,0.0691,0.0692,0,141,141,96,1,fivesix,,,,,,,,,,,,,,,,,,,,,,,,,,,,,,,,,,,,,,,,,,,,,,,,,,,,,,,,,,,,,,,,,,,,,,,,,,,,,,,,,,,,,,,,,,,,,,,,,,,,,,,,,,,,,,,,,,,,,,,,,,,,,,,,,,,,,,,,,
,,657a7e142c5fba20342bc97b,2024-02-22_16h27.19.531,kallum_motion_pilot,2023.2.2,Win32,6.671114076,657a7e142c5fba20342bc97b,65d6bb0e977760de756971f7,65d6befee41a9797ff21c907,0.0694,0.0696,0,142,142,34,1,twoone,,,,,,,,,,,,,,,,,,,,,,,,,,,,,,,,,,,,,,,,,,,,,,,,,,,,,,,,,,,,,,,,,,,,,,,,,,,,,,,,,,,,,,,,,,,,,,,,,,,,,,,,,,,,,,,,,,,,,,,,,,,,,,,,,,,,,,,,,
,,657a7e142c5fba20342bc97b,2024-02-22_16h27.19.531,kallum_motion_pilot,2023.2.2,Win32,6.671114076,657a7e142c5fba20342bc97b,65d6bb0e977760de756971f7,65d6befee41a9797ff21c907,0.0699,0.07,0,143,143,124,1,sevenfive,,,,,,,,,,,,,,,,,,,,,,,,,,,,,,,,,,,,,,,,,,,,,,,,,,,,,,,,,,,,,,,,,,,,,,,,,,,,,,,,,,,,,,,,,,,,,,,,,,,,,,,,,,,,,,,,,,,,,,,,,,,,,,,,,,,,,,,,,
,,657a7e142c5fba20342bc97b,2024-02-22_16h27.19.531,kallum_motion_pilot,2023.2.2,Win32,6.671114076,657a7e142c5fba20342bc97b,65d6bb0e977760de756971f7,65d6befee41a9797ff21c907,0.0702,0.0704,0,144,144,59,1,twofour,,,,,,,,,,,,,,,,,,,,,,,,,,,,,,,,,,,,,,,,,,,,,,,,,,,,,,,,,,,,,,,,,,,,,,,,,,,,,,,,,,,,,,,,,,,,,,,,,,,,,,,,,,,,,,,,,,,,,,,,,,,,,,,,,,,,,,,,,
,,657a7e142c5fba20342bc97b,2024-02-22_16h27.19.531,kallum_motion_pilot,2023.2.2,Win32,6.671114076,657a7e142c5fba20342bc97b,65d6bb0e977760de756971f7,65d6befee41a9797ff21c907,0.0705,0.0707,0,145,145,150,1,eightsix,,,,,,,,,,,,,,,,,,,,,,,,,,,,,,,,,,,,,,,,,,,,,,,,,,,,,,,,,,,,,,,,,,,,,,,,,,,,,,,,,,,,,,,,,,,,,,,,,,,,,,,,,,,,,,,,,,,,,,,,,,,,,,,,,,,,,,,,,
,,657a7e142c5fba20342bc97b,2024-02-22_16h27.19.531,kallum_motion_pilot,2023.2.2,Win32,6.671114076,657a7e142c5fba20342bc97b,65d6bb0e977760de756971f7,65d6befee41a9797ff21c907,0.0709,0.071,0,146,146,85,1,seveneight,,,,,,,,,,,,,,,,,,,,,,,,,,,,,,,,,,,,,,,,,,,,,,,,,,,,,,,,,,,,,,,,,,,,,,,,,,,,,,,,,,,,,,,,,,,,,,,,,,,,,,,,,,,,,,,,,,,,,,,,,,,,,,,,,,,,,,,,,
,,657a7e142c5fba20342bc97b,2024-02-22_16h27.19.531,kallum_motion_pilot,2023.2.2,Win32,6.671114076,657a7e142c5fba20342bc97b,65d6bb0e977760de756971f7,65d6befee41a9797ff21c907,0.0712,0.0713,0,147,147,137,1,fiveseven,,,,,,,,,,,,,,,,,,,,,,,,,,,,,,,,,,,,,,,,,,,,,,,,,,,,,,,,,,,,,,,,,,,,,,,,,,,,,,,,,,,,,,,,,,,,,,,,,,,,,,,,,,,,,,,,,,,,,,,,,,,,,,,,,,,,,,,,,
,,657a7e142c5fba20342bc97b,2024-02-22_16h27.19.531,kallum_motion_pilot,2023.2.2,Win32,6.671114076,657a7e142c5fba20342bc97b,65d6bb0e977760de756971f7,65d6befee41a9797ff21c907,0.0716,0.0717,0,148,148,58,1,twoone,,,,,,,,,,,,,,,,,,,,,,,,,,,,,,,,,,,,,,,,,,,,,,,,,,,,,,,,,,,,,,,,,,,,,,,,,,,,,,,,,,,,,,,,,,,,,,,,,,,,,,,,,,,,,,,,,,,,,,,,,,,,,,,,,,,,,,,,,
,,657a7e142c5fba20342bc97b,2024-02-22_16h27.19.531,kallum_motion_pilot,2023.2.2,Win32,6.671114076,657a7e142c5fba20342bc97b,65d6bb0e977760de756971f7,65d6befee41a9797ff21c907,0.072,0.0721,0,149,149,40,1,onetwo,,,,,,,,,,,,,,,,,,,,,,,,,,,,,,,,,,,,,,,,,,,,,,,,,,,,,,,,,,,,,,,,,,,,,,,,,,,,,,,,,,,,,,,,,,,,,,,,,,,,,,,,,,,,,,,,,,,,,,,,,,,,,,,,,,,,,,,,,
,,657a7e142c5fba20342bc97b,2024-02-22_16h27.19.531,kallum_motion_pilot,2023.2.2,Win32,6.671114076,657a7e142c5fba20342bc97b,65d6bb0e977760de756971f7,65d6befee41a9797ff21c907,0.0723,0.0724,0,150,150,24,1,onetwo,,,,,,,,,,,,,,,,,,,,,,,,,,,,,,,,,,,,,,,,,,,,,,,,,,,,,,,,,,,,,,,,,,,,,,,,,,,,,,,,,,,,,,,,,,,,,,,,,,,,,,,,,,,,,,,,,,,,,,,,,,,,,,,,,,,,,,,,,
,,657a7e142c5fba20342bc97b,2024-02-22_16h27.19.531,kallum_motion_pilot,2023.2.2,Win32,6.671114076,657a7e142c5fba20342bc97b,65d6bb0e977760de756971f7,65d6befee41a9797ff21c907,0.0726,0.0727,0,151,151,39,1,fourthree,,,,,,,,,,,,,,,,,,,,,,,,,,,,,,,,,,,,,,,,,,,,,,,,,,,,,,,,,,,,,,,,,,,,,,,,,,,,,,,,,,,,,,,,,,,,,,,,,,,,,,,,,,,,,,,,,,,,,,,,,,,,,,,,,,,,,,,,,
,,657a7e142c5fba20342bc97b,2024-02-22_16h27.19.531,kallum_motion_pilot,2023.2.2,Win32,6.671114076,657a7e142c5fba20342bc97b,65d6bb0e977760de756971f7,65d6befee41a9797ff21c907,0.0729,0.0731,0,152,152,63,1,fourthree,,,,,,,,,,,,,,,,,,,,,,,,,,,,,,,,,,,,,,,,,,,,,,,,,,,,,,,,,,,,,,,,,,,,,,,,,,,,,,,,,,,,,,,,,,,,,,,,,,,,,,,,,,,,,,,,,,,,,,,,,,,,,,,,,,,,,,,,,
,,657a7e142c5fba20342bc97b,2024-02-22_16h27.19.531,kallum_motion_pilot,2023.2.2,Win32,6.671114076,657a7e142c5fba20342bc97b,65d6bb0e977760de756971f7,65d6befee41a9797ff21c907,0.0732,0.0733,0,153,153,66,1,twoone,,,,,,,,,,,,,,,,,,,,,,,,,,,,,,,,,,,,,,,,,,,,,,,,,,,,,,,,,,,,,,,,,,,,,,,,,,,,,,,,,,,,,,,,,,,,,,,,,,,,,,,,,,,,,,,,,,,,,,,,,,,,,,,,,,,,,,,,,
,,657a7e142c5fba20342bc97b,2024-02-22_16h27.19.531,kallum_motion_pilot,2023.2.2,Win32,6.671114076,657a7e142c5fba20342bc97b,65d6bb0e977760de756971f7,65d6befee41a9797ff21c907,0.0735,0.0736,0,154,154,44,1,threeone,,,,,,,,,,,,,,,,,,,,,,,,,,,,,,,,,,,,,,,,,,,,,,,,,,,,,,,,,,,,,,,,,,,,,,,,,,,,,,,,,,,,,,,,,,,,,,,,,,,,,,,,,,,,,,,,,,,,,,,,,,,,,,,,,,,,,,,,,
,,657a7e142c5fba20342bc97b,2024-02-22_16h27.19.531,kallum_motion_pilot,2023.2.2,Win32,6.671114076,657a7e142c5fba20342bc97b,65d6bb0e977760de756971f7,65d6befee41a9797ff21c907,0.0739,0.0741,0,155,155,6,1,fourtwo,,,,,,,,,,,,,,,,,,,,,,,,,,,,,,,,,,,,,,,,,,,,,,,,,,,,,,,,,,,,,,,,,,,,,,,,,,,,,,,,,,,,,,,,,,,,,,,,,,,,,,,,,,,,,,,,,,,,,,,,,,,,,,,,,,,,,,,,,
,,657a7e142c5fba20342bc97b,2024-02-22_16h27.19.531,kallum_motion_pilot,2023.2.2,Win32,6.671114076,657a7e142c5fba20342bc97b,65d6bb0e977760de756971f7,65d6befee41a9797ff21c907,0.0743,0.0744,0,156,156,23,1,fourthree,,,,,,,,,,,,,,,,,,,,,,,,,,,,,,,,,,,,,,,,,,,,,,,,,,,,,,,,,,,,,,,,,,,,,,,,,,,,,,,,,,,,,,,,,,,,,,,,,,,,,,,,,,,,,,,,,,,,,,,,,,,,,,,,,,,,,,,,,
,,657a7e142c5fba20342bc97b,2024-02-22_16h27.19.531,kallum_motion_pilot,2023.2.2,Win32,6.671114076,657a7e142c5fba20342bc97b,65d6bb0e977760de756971f7,65d6befee41a9797ff21c907,0.0746,0.0748,0,157,157,149,1,seveneight,,,,,,,,,,,,,,,,,,,,,,,,,,,,,,,,,,,,,,,,,,,,,,,,,,,,,,,,,,,,,,,,,,,,,,,,,,,,,,,,,,,,,,,,,,,,,,,,,,,,,,,,,,,,,,,,,,,,,,,,,,,,,,,,,,,,,,,,,
,,657a7e142c5fba20342bc97b,2024-02-22_16h27.19.531,kallum_motion_pilot,2023.2.2,Win32,6.671114076,657a7e142c5fba20342bc97b,65d6bb0e977760de756971f7,65d6befee41a9797ff21c907,0.0749,0.0752,0,158,158,156,1,sevenfive,,,,,,,,,,,,,,,,,,,,,,,,,,,,,,,,,,,,,,,,,,,,,,,,,,,,,,,,,,,,,,,,,,,,,,,,,,,,,,,,,,,,,,,,,,,,,,,,,,,,,,,,,,,,,,,,,,,,,,,,,,,,,,,,,,,,,,,,,
,,657a7e142c5fba20342bc97b,2024-02-22_16h27.19.531,kallum_motion_pilot,2023.2.2,Win32,6.671114076,657a7e142c5fba20342bc97b,65d6bb0e977760de756971f7,65d6befee41a9797ff21c907,0.0753,0.0754,0,159,159,126,1,eightsix,,,,,,,,,,,,,,,,,,,,,,,,,,,,,,,,,,,,,,,,,,,,,,,,,,,,,,,,,,,,,,,,,,,,,,,,,,,,,,,,,,,,,,,,,,,,,,,,,,,,,,,,,,,,,,,,,,,,,,,,,,,,,,,,,,,,,,,,,
,,657a7e142c5fba20342bc97b,2024-02-22_16h27.19.531,kallum_motion_pilot,2023.2.2,Win32,6.671114076,657a7e142c5fba20342bc97b,65d6bb0e977760de756971f7,65d6befee41a9797ff21c907,0.0757,0.0758,0,160,160,46,1,fourtwo,,,,,,,,,,,,,,,,,,,,,,,,,,,,,,,,,,,,,,,,,,,,,,,,,,,,,,,,,,,,,,,,,,,,,,,,,,,,,,,,,,,,,,,,,,,,,,,,,,,,,,,,,,,,,,,,,,,,,,,,,,,,,,,,,,,,,,,,,
,,657a7e142c5fba20342bc97b,2024-02-22_16h27.19.531,kallum_motion_pilot,2023.2.2,Win32,6.671114076,657a7e142c5fba20342bc97b,65d6bb0e977760de756971f7,65d6befee41a9797ff21c907,0.076,0.0762,0,161,161,145,1,fiveseven,,,,,,,,,,,,,,,,,,,,,,,,,,,,,,,,,,,,,,,,,,,,,,,,,,,,,,,,,,,,,,,,,,,,,,,,,,,,,,,,,,,,,,,,,,,,,,,,,,,,,,,,,,,,,,,,,,,,,,,,,,,,,,,,,,,,,,,,,
,,657a7e142c5fba20342bc97b,2024-02-22_16h27.19.531,kallum_motion_pilot,2023.2.2,Win32,6.671114076,657a7e142c5fba20342bc97b,65d6bb0e977760de756971f7,65d6befee41a9797ff21c907,0.0764,0.0766,1,0,162,79,1,eightseven,,,,,,,,,,,,,,,,,,,,,,,,,,,,,,,,,,,,,,,,,,,,,,,,,,,,,,,,,,,,,,,,,,,,,,,,,,,,,,,,,,,,,,,,,,,,,,,,,,,,,,,,,,,,,,,,,,,,,,,,,,,,,,,,,,,,,,,,,
,,657a7e142c5fba20342bc97b,2024-02-22_16h27.19.531,kallum_motion_pilot,2023.2.2,Win32,6.671114076,657a7e142c5fba20342bc97b,65d6bb0e977760de756971f7,65d6befee41a9797ff21c907,0.0768,0.0769,1,1,163,3,1,twofour,,,,,,,,,,,,,,,,,,,,,,,,,,,,,,,,,,,,,,,,,,,,,,,,,,,,,,,,,,,,,,,,,,,,,,,,,,,,,,,,,,,,,,,,,,,,,,,,,,,,,,,,,,,,,,,,,,,,,,,,,,,,,,,,,,,,,,,,,
,,657a7e142c5fba20342bc97b,2024-02-22_16h27.19.531,kallum_motion_pilot,2023.2.2,Win32,6.671114076,657a7e142c5fba20342bc97b,65d6bb0e977760de756971f7,65d6befee41a9797ff21c907,0.0771,0.0773,1,2,164,80,1,fivesix,,,,,,,,,,,,,,,,,,,,,,,,,,,,,,,,,,,,,,,,,,,,,,,,,,,,,,,,,,,,,,,,,,,,,,,,,,,,,,,,,,,,,,,,,,,,,,,,,,,,,,,,,,,,,,,,,,,,,,,,,,,,,,,,,,,,,,,,,
,,657a7e142c5fba20342bc97b,2024-02-22_16h27.19.531,kallum_motion_pilot,2023.2.2,Win32,6.671114076,657a7e142c5fba20342bc97b,65d6bb0e977760de756971f7,65d6befee41a9797ff21c907,0.0775,0.0777,1,3,165,14,1,fourtwo,,,,,,,,,,,,,,,,,,,,,,,,,,,,,,,,,,,,,,,,,,,,,,,,,,,,,,,,,,,,,,,,,,,,,,,,,,,,,,,,,,,,,,,,,,,,,,,,,,,,,,,,,,,,,,,,,,,,,,,,,,,,,,,,,,,,,,,,,
,,657a7e142c5fba20342bc97b,2024-02-22_16h27.19.531,kallum_motion_pilot,2023.2.2,Win32,6.671114076,657a7e142c5fba20342bc97b,65d6bb0e977760de756971f7,65d6befee41a9797ff21c907,0.0778,0.078,1,4,166,25,1,onethree,,,,,,,,,,,,,,,,,,,,,,,,,,,,,,,,,,,,,,,,,,,,,,,,,,,,,,,,,,,,,,,,,,,,,,,,,,,,,,,,,,,,,,,,,,,,,,,,,,,,,,,,,,,,,,,,,,,,,,,,,,,,,,,,,,,,,,,,,
,,657a7e142c5fba20342bc97b,2024-02-22_16h27.19.531,kallum_motion_pilot,2023.2.2,Win32,6.671114076,657a7e142c5fba20342bc97b,65d6bb0e977760de756971f7,65d6befee41a9797ff21c907,0.0782,0.0784,1,5,167,70,1,fourtwo,,,,,,,,,,,,,,,,,,,,,,,,,,,,,,,,,,,,,,,,,,,,,,,,,,,,,,,,,,,,,,,,,,,,,,,,,,,,,,,,,,,,,,,,,,,,,,,,,,,,,,,,,,,,,,,,,,,,,,,,,,,,,,,,,,,,,,,,,
,,657a7e142c5fba20342bc97b,2024-02-22_16h27.19.531,kallum_motion_pilot,2023.2.2,Win32,6.671114076,657a7e142c5fba20342bc97b,65d6bb0e977760de756971f7,65d6befee41a9797ff21c907,0.0786,0.0788,1,6,168,11,1,twofour,,,,,,,,,,,,,,,,,,,,,,,,,,,,,,,,,,,,,,,,,,,,,,,,,,,,,,,,,,,,,,,,,,,,,,,,,,,,,,,,,,,,,,,,,,,,,,,,,,,,,,,,,,,,,,,,,,,,,,,,,,,,,,,,,,,,,,,,,
,,657a7e142c5fba20342bc97b,2024-02-22_16h27.19.531,kallum_motion_pilot,2023.2.2,Win32,6.671114076,657a7e142c5fba20342bc97b,65d6bb0e977760de756971f7,65d6befee41a9797ff21c907,0.079,0.0791,1,7,169,60,1,threeone,,,,,,,,,,,,,,,,,,,,,,,,,,,,,,,,,,,,,,,,,,,,,,,,,,,,,,,,,,,,,,,,,,,,,,,,,,,,,,,,,,,,,,,,,,,,,,,,,,,,,,,,,,,,,,,,,,,,,,,,,,,,,,,,,,,,,,,,,
,,657a7e142c5fba20342bc97b,2024-02-22_16h27.19.531,kallum_motion_pilot,2023.2.2,Win32,6.671114076,657a7e142c5fba20342bc97b,65d6bb0e977760de756971f7,65d6befee41a9797ff21c907,0.0794,0.0795,1,8,170,113,1,fiveseven,,,,,,,,,,,,,,,,,,,,,,,,,,,,,,,,,,,,,,,,,,,,,,,,,,,,,,,,,,,,,,,,,,,,,,,,,,,,,,,,,,,,,,,,,,,,,,,,,,,,,,,,,,,,,,,,,,,,,,,,,,,,,,,,,,,,,,,,,
,,657a7e142c5fba20342bc97b,2024-02-22_16h27.19.531,kallum_motion_pilot,2023.2.2,Win32,6.671114076,657a7e142c5fba20342bc97b,65d6bb0e977760de756971f7,65d6befee41a9797ff21c907,0.0798,0.0799,1,9,171,64,1,onetwo,,,,,,,,,,,,,,,,,,,,,,,,,,,,,,,,,,,,,,,,,,,,,,,,,,,,,,,,,,,,,,,,,,,,,,,,,,,,,,,,,,,,,,,,,,,,,,,,,,,,,,,,,,,,,,,,,,,,,,,,,,,,,,,,,,,,,,,,,
,,657a7e142c5fba20342bc97b,2024-02-22_16h27.19.531,kallum_motion_pilot,2023.2.2,Win32,6.671114076,657a7e142c5fba20342bc97b,65d6bb0e977760de756971f7,65d6befee41a9797ff21c907,0.0801,0.0803,1,10,172,137,1,fiveseven,,,,,,,,,,,,,,,,,,,,,,,,,,,,,,,,,,,,,,,,,,,,,,,,,,,,,,,,,,,,,,,,,,,,,,,,,,,,,,,,,,,,,,,,,,,,,,,,,,,,,,,,,,,,,,,,,,,,,,,,,,,,,,,,,,,,,,,,,
,,657a7e142c5fba20342bc97b,2024-02-22_16h27.19.531,kallum_motion_pilot,2023.2.2,Win32,6.671114076,657a7e142c5fba20342bc97b,65d6bb0e977760de756971f7,65d6befee41a9797ff21c907,0.0805,0.0807,1,11,173,24,1,onetwo,,,,,,,,,,,,,,,,,,,,,,,,,,,,,,,,,,,,,,,,,,,,,,,,,,,,,,,,,,,,,,,,,,,,,,,,,,,,,,,,,,,,,,,,,,,,,,,,,,,,,,,,,,,,,,,,,,,,,,,,,,,,,,,,,,,,,,,,,
,,657a7e142c5fba20342bc97b,2024-02-22_16h27.19.531,kallum_motion_pilot,2023.2.2,Win32,6.671114076,657a7e142c5fba20342bc97b,65d6bb0e977760de756971f7,65d6befee41a9797ff21c907,0.081,0.0811,1,12,174,125,1,seveneight,,,,,,,,,,,,,,,,,,,,,,,,,,,,,,,,,,,,,,,,,,,,,,,,,,,,,,,,,,,,,,,,,,,,,,,,,,,,,,,,,,,,,,,,,,,,,,,,,,,,,,,,,,,,,,,,,,,,,,,,,,,,,,,,,,,,,,,,,
,,657a7e142c5fba20342bc97b,2024-02-22_16h27.19.531,kallum_motion_pilot,2023.2.2,Win32,6.671114076,657a7e142c5fba20342bc97b,65d6bb0e977760de756971f7,65d6befee41a9797ff21c907,0.0812,0.0815,1,13,175,51,1,twofour,,,,,,,,,,,,,,,,,,,,,,,,,,,,,,,,,,,,,,,,,,,,,,,,,,,,,,,,,,,,,,,,,,,,,,,,,,,,,,,,,,,,,,,,,,,,,,,,,,,,,,,,,,,,,,,,,,,,,,,,,,,,,,,,,,,,,,,,,
,,657a7e142c5fba20342bc97b,2024-02-22_16h27.19.531,kallum_motion_pilot,2023.2.2,Win32,6.671114076,657a7e142c5fba20342bc97b,65d6bb0e977760de756971f7,65d6befee41a9797ff21c907,0.0816,0.0817,1,14,176,87,1,eightseven,,,,,,,,,,,,,,,,,,,,,,,,,,,,,,,,,,,,,,,,,,,,,,,,,,,,,,,,,,,,,,,,,,,,,,,,,,,,,,,,,,,,,,,,,,,,,,,,,,,,,,,,,,,,,,,,,,,,,,,,,,,,,,,,,,,,,,,,,
,,657a7e142c5fba20342bc97b,2024-02-22_16h27.19.531,kallum_motion_pilot,2023.2.2,Win32,6.671114076,657a7e142c5fba20342bc97b,65d6bb0e977760de756971f7,65d6befee41a9797ff21c907,0.082,0.0821,1,15,177,92,1,sevenfive,,,,,,,,,,,,,,,,,,,,,,,,,,,,,,,,,,,,,,,,,,,,,,,,,,,,,,,,,,,,,,,,,,,,,,,,,,,,,,,,,,,,,,,,,,,,,,,,,,,,,,,,,,,,,,,,,,,,,,,,,,,,,,,,,,,,,,,,,
,,657a7e142c5fba20342bc97b,2024-02-22_16h27.19.531,kallum_motion_pilot,2023.2.2,Win32,6.671114076,657a7e142c5fba20342bc97b,65d6bb0e977760de756971f7,65d6befee41a9797ff21c907,0.0823,0.0825,1,16,178,89,1,fiveseven,,,,,,,,,,,,,,,,,,,,,,,,,,,,,,,,,,,,,,,,,,,,,,,,,,,,,,,,,,,,,,,,,,,,,,,,,,,,,,,,,,,,,,,,,,,,,,,,,,,,,,,,,,,,,,,,,,,,,,,,,,,,,,,,,,,,,,,,,
,,657a7e142c5fba20342bc97b,2024-02-22_16h27.19.531,kallum_motion_pilot,2023.2.2,Win32,6.671114076,657a7e142c5fba20342bc97b,65d6bb0e977760de756971f7,65d6befee41a9797ff21c907,0.0827,0.0828,1,17,179,88,1,fivesix,,,,,,,,,,,,,,,,,,,,,,,,,,,,,,,,,,,,,,,,,,,,,,,,,,,,,,,,,,,,,,,,,,,,,,,,,,,,,,,,,,,,,,,,,,,,,,,,,,,,,,,,,,,,,,,,,,,,,,,,,,,,,,,,,,,,,,,,,
,,657a7e142c5fba20342bc97b,2024-02-22_16h27.19.531,kallum_motion_pilot,2023.2.2,Win32,6.671114076,657a7e142c5fba20342bc97b,65d6bb0e977760de756971f7,65d6befee41a9797ff21c907,0.083,0.0832,1,18,180,157,1,seveneight,,,,,,,,,,,,,,,,,,,,,,,,,,,,,,,,,,,,,,,,,,,,,,,,,,,,,,,,,,,,,,,,,,,,,,,,,,,,,,,,,,,,,,,,,,,,,,,,,,,,,,,,,,,,,,,,,,,,,,,,,,,,,,,,,,,,,,,,,
,,657a7e142c5fba20342bc97b,2024-02-22_16h27.19.531,kallum_motion_pilot,2023.2.2,Win32,6.671114076,657a7e142c5fba20342bc97b,65d6bb0e977760de756971f7,65d6befee41a9797ff21c907,0.0834,0.0835,1,19,181,136,1,fivesix,,,,,,,,,,,,,,,,,,,,,,,,,,,,,,,,,,,,,,,,,,,,,,,,,,,,,,,,,,,,,,,,,,,,,,,,,,,,,,,,,,,,,,,,,,,,,,,,,,,,,,,,,,,,,,,,,,,,,,,,,,,,,,,,,,,,,,,,,
,,657a7e142c5fba20342bc97b,2024-02-22_16h27.19.531,kallum_motion_pilot,2023.2.2,Win32,6.671114076,657a7e142c5fba20342bc97b,65d6bb0e977760de756971f7,65d6befee41a9797ff21c907,0.0836,0.0839,1,20,182,97,1,fiveseven,,,,,,,,,,,,,,,,,,,,,,,,,,,,,,,,,,,,,,,,,,,,,,,,,,,,,,,,,,,,,,,,,,,,,,,,,,,,,,,,,,,,,,,,,,,,,,,,,,,,,,,,,,,,,,,,,,,,,,,,,,,,,,,,,,,,,,,,,
,,657a7e142c5fba20342bc97b,2024-02-22_16h27.19.531,kallum_motion_pilot,2023.2.2,Win32,6.671114076,657a7e142c5fba20342bc97b,65d6bb0e977760de756971f7,65d6befee41a9797ff21c907,0.0841,0.0844,1,21,183,122,1,sixfive,,,,,,,,,,,,,,,,,,,,,,,,,,,,,,,,,,,,,,,,,,,,,,,,,,,,,,,,,,,,,,,,,,,,,,,,,,,,,,,,,,,,,,,,,,,,,,,,,,,,,,,,,,,,,,,,,,,,,,,,,,,,,,,,,,,,,,,,,
,,657a7e142c5fba20342bc97b,2024-02-22_16h27.19.531,kallum_motion_pilot,2023.2.2,Win32,6.671114076,657a7e142c5fba20342bc97b,65d6bb0e977760de756971f7,65d6befee41a9797ff21c907,0.085,0.0855,1,22,184,5,1,threefour,,,,,,,,,,,,,,,,,,,,,,,,,,,,,,,,,,,,,,,,,,,,,,,,,,,,,,,,,,,,,,,,,,,,,,,,,,,,,,,,,,,,,,,,,,,,,,,,,,,,,,,,,,,,,,,,,,,,,,,,,,,,,,,,,,,,,,,,,
,,657a7e142c5fba20342bc97b,2024-02-22_16h27.19.531,kallum_motion_pilot,2023.2.2,Win32,6.671114076,657a7e142c5fba20342bc97b,65d6bb0e977760de756971f7,65d6befee41a9797ff21c907,0.0858,0.086,1,23,185,29,1,threefour,,,,,,,,,,,,,,,,,,,,,,,,,,,,,,,,,,,,,,,,,,,,,,,,,,,,,,,,,,,,,,,,,,,,,,,,,,,,,,,,,,,,,,,,,,,,,,,,,,,,,,,,,,,,,,,,,,,,,,,,,,,,,,,,,,,,,,,,,
,,657a7e142c5fba20342bc97b,2024-02-22_16h27.19.531,kallum_motion_pilot,2023.2.2,Win32,6.671114076,657a7e142c5fba20342bc97b,65d6bb0e977760de756971f7,65d6befee41a9797ff21c907,0.0862,0.0864,1,24,186,62,1,fourtwo,,,,,,,,,,,,,,,,,,,,,,,,,,,,,,,,,,,,,,,,,,,,,,,,,,,,,,,,,,,,,,,,,,,,,,,,,,,,,,,,,,,,,,,,,,,,,,,,,,,,,,,,,,,,,,,,,,,,,,,,,,,,,,,,,,,,,,,,,
,,657a7e142c5fba20342bc97b,2024-02-22_16h27.19.531,kallum_motion_pilot,2023.2.2,Win32,6.671114076,657a7e142c5fba20342bc97b,65d6bb0e977760de756971f7,65d6befee41a9797ff21c907,0.0867,0.0868,1,25,187,39,1,fourthree,,,,,,,,,,,,,,,,,,,,,,,,,,,,,,,,,,,,,,,,,,,,,,,,,,,,,,,,,,,,,,,,,,,,,,,,,,,,,,,,,,,,,,,,,,,,,,,,,,,,,,,,,,,,,,,,,,,,,,,,,,,,,,,,,,,,,,,,,
,,657a7e142c5fba20342bc97b,2024-02-22_16h27.19.531,kallum_motion_pilot,2023.2.2,Win32,6.671114076,657a7e142c5fba20342bc97b,65d6bb0e977760de756971f7,65d6befee41a9797ff21c907,0.087,0.0871,1,26,188,47,1,fourthree,,,,,,,,,,,,,,,,,,,,,,,,,,,,,,,,,,,,,,,,,,,,,,,,,,,,,,,,,,,,,,,,,,,,,,,,,,,,,,,,,,,,,,,,,,,,,,,,,,,,,,,,,,,,,,,,,,,,,,,,,,,,,,,,,,,,,,,,,
,,657a7e142c5fba20342bc97b,2024-02-22_16h27.19.531,kallum_motion_pilot,2023.2.2,Win32,6.671114076,657a7e142c5fba20342bc97b,65d6bb0e977760de756971f7,65d6befee41a9797ff21c907,0.0873,0.0874,1,27,189,6,1,fourtwo,,,,,,,,,,,,,,,,,,,,,,,,,,,,,,,,,,,,,,,,,,,,,,,,,,,,,,,,,,,,,,,,,,,,,,,,,,,,,,,,,,,,,,,,,,,,,,,,,,,,,,,,,,,,,,,,,,,,,,,,,,,,,,,,,,,,,,,,,
,,657a7e142c5fba20342bc97b,2024-02-22_16h27.19.531,kallum_motion_pilot,2023.2.2,Win32,6.671114076,657a7e142c5fba20342bc97b,65d6bb0e977760de756971f7,65d6befee41a9797ff21c907,0.0876,0.0877,1,28,190,40,1,onetwo,,,,,,,,,,,,,,,,,,,,,,,,,,,,,,,,,,,,,,,,,,,,,,,,,,,,,,,,,,,,,,,,,,,,,,,,,,,,,,,,,,,,,,,,,,,,,,,,,,,,,,,,,,,,,,,,,,,,,,,,,,,,,,,,,,,,,,,,,
,,657a7e142c5fba20342bc97b,2024-02-22_16h27.19.531,kallum_motion_pilot,2023.2.2,Win32,6.671114076,657a7e142c5fba20342bc97b,65d6bb0e977760de756971f7,65d6befee41a9797ff21c907,0.0879,0.088,1,29,191,15,1,fourthree,,,,,,,,,,,,,,,,,,,,,,,,,,,,,,,,,,,,,,,,,,,,,,,,,,,,,,,,,,,,,,,,,,,,,,,,,,,,,,,,,,,,,,,,,,,,,,,,,,,,,,,,,,,,,,,,,,,,,,,,,,,,,,,,,,,,,,,,,
,,657a7e142c5fba20342bc97b,2024-02-22_16h27.19.531,kallum_motion_pilot,2023.2.2,Win32,6.671114076,657a7e142c5fba20342bc97b,65d6bb0e977760de756971f7,65d6befee41a9797ff21c907,0.0882,0.0883,1,30,192,114,1,sixfive,,,,,,,,,,,,,,,,,,,,,,,,,,,,,,,,,,,,,,,,,,,,,,,,,,,,,,,,,,,,,,,,,,,,,,,,,,,,,,,,,,,,,,,,,,,,,,,,,,,,,,,,,,,,,,,,,,,,,,,,,,,,,,,,,,,,,,,,,
,,657a7e142c5fba20342bc97b,2024-02-22_16h27.19.531,kallum_motion_pilot,2023.2.2,Win32,6.671114076,657a7e142c5fba20342bc97b,65d6bb0e977760de756971f7,65d6befee41a9797ff21c907,0.0886,0.0886,1,31,193,35,1,twofour,,,,,,,,,,,,,,,,,,,,,,,,,,,,,,,,,,,,,,,,,,,,,,,,,,,,,,,,,,,,,,,,,,,,,,,,,,,,,,,,,,,,,,,,,,,,,,,,,,,,,,,,,,,,,,,,,,,,,,,,,,,,,,,,,,,,,,,,,
,,657a7e142c5fba20342bc97b,2024-02-22_16h27.19.531,kallum_motion_pilot,2023.2.2,Win32,6.671114076,657a7e142c5fba20342bc97b,65d6bb0e977760de756971f7,65d6befee41a9797ff21c907,0.0889,0.089,1,32,194,158,1,eightsix,,,,,,,,,,,,,,,,,,,,,,,,,,,,,,,,,,,,,,,,,,,,,,,,,,,,,,,,,,,,,,,,,,,,,,,,,,,,,,,,,,,,,,,,,,,,,,,,,,,,,,,,,,,,,,,,,,,,,,,,,,,,,,,,,,,,,,,,,
,,657a7e142c5fba20342bc97b,2024-02-22_16h27.19.531,kallum_motion_pilot,2023.2.2,Win32,6.671114076,657a7e142c5fba20342bc97b,65d6bb0e977760de756971f7,65d6befee41a9797ff21c907,0.0891,0.0893,1,33,195,1,1,onethree,,,,,,,,,,,,,,,,,,,,,,,,,,,,,,,,,,,,,,,,,,,,,,,,,,,,,,,,,,,,,,,,,,,,,,,,,,,,,,,,,,,,,,,,,,,,,,,,,,,,,,,,,,,,,,,,,,,,,,,,,,,,,,,,,,,,,,,,,
,,657a7e142c5fba20342bc97b,2024-02-22_16h27.19.531,kallum_motion_pilot,2023.2.2,Win32,6.671114076,657a7e142c5fba20342bc97b,65d6bb0e977760de756971f7,65d6befee41a9797ff21c907,0.0896,0.0899,1,34,196,147,1,sixeight,,,,,,,,,,,,,,,,,,,,,,,,,,,,,,,,,,,,,,,,,,,,,,,,,,,,,,,,,,,,,,,,,,,,,,,,,,,,,,,,,,,,,,,,,,,,,,,,,,,,,,,,,,,,,,,,,,,,,,,,,,,,,,,,,,,,,,,,,
,,657a7e142c5fba20342bc97b,2024-02-22_16h27.19.531,kallum_motion_pilot,2023.2.2,Win32,6.671114076,657a7e142c5fba20342bc97b,65d6bb0e977760de756971f7,65d6befee41a9797ff21c907,0.0901,0.0903,1,35,197,22,1,fourtwo,,,,,,,,,,,,,,,,,,,,,,,,,,,,,,,,,,,,,,,,,,,,,,,,,,,,,,,,,,,,,,,,,,,,,,,,,,,,,,,,,,,,,,,,,,,,,,,,,,,,,,,,,,,,,,,,,,,,,,,,,,,,,,,,,,,,,,,,,
,,657a7e142c5fba20342bc97b,2024-02-22_16h27.19.531,kallum_motion_pilot,2023.2.2,Win32,6.671114076,657a7e142c5fba20342bc97b,65d6bb0e977760de756971f7,65d6befee41a9797ff21c907,0.0904,0.0905,1,36,198,30,1,fourtwo,,,,,,,,,,,,,,,,,,,,,,,,,,,,,,,,,,,,,,,,,,,,,,,,,,,,,,,,,,,,,,,,,,,,,,,,,,,,,,,,,,,,,,,,,,,,,,,,,,,,,,,,,,,,,,,,,,,,,,,,,,,,,,,,,,,,,,,,,
,,657a7e142c5fba20342bc97b,2024-02-22_16h27.19.531,kallum_motion_pilot,2023.2.2,Win32,6.671114076,657a7e142c5fba20342bc97b,65d6bb0e977760de756971f7,65d6befee41a9797ff21c907,0.0906,0.0908,1,37,199,124,1,sevenfive,,,,,,,,,,,,,,,,,,,,,,,,,,,,,,,,,,,,,,,,,,,,,,,,,,,,,,,,,,,,,,,,,,,,,,,,,,,,,,,,,,,,,,,,,,,,,,,,,,,,,,,,,,,,,,,,,,,,,,,,,,,,,,,,,,,,,,,,,
,,657a7e142c5fba20342bc97b,2024-02-22_16h27.19.531,kallum_motion_pilot,2023.2.2,Win32,6.671114076,657a7e142c5fba20342bc97b,65d6bb0e977760de756971f7,65d6befee41a9797ff21c907,0.0909,0.0911,1,38,200,116,1,sevenfive,,,,,,,,,,,,,,,,,,,,,,,,,,,,,,,,,,,,,,,,,,,,,,,,,,,,,,,,,,,,,,,,,,,,,,,,,,,,,,,,,,,,,,,,,,,,,,,,,,,,,,,,,,,,,,,,,,,,,,,,,,,,,,,,,,,,,,,,,
,,657a7e142c5fba20342bc97b,2024-02-22_16h27.19.531,kallum_motion_pilot,2023.2.2,Win32,6.671114076,657a7e142c5fba20342bc97b,65d6bb0e977760de756971f7,65d6befee41a9797ff21c907,0.0913,0.0914,1,39,201,27,1,twofour,,,,,,,,,,,,,,,,,,,,,,,,,,,,,,,,,,,,,,,,,,,,,,,,,,,,,,,,,,,,,,,,,,,,,,,,,,,,,,,,,,,,,,,,,,,,,,,,,,,,,,,,,,,,,,,,,,,,,,,,,,,,,,,,,,,,,,,,,
,,657a7e142c5fba20342bc97b,2024-02-22_16h27.19.531,kallum_motion_pilot,2023.2.2,Win32,6.671114076,657a7e142c5fba20342bc97b,65d6bb0e977760de756971f7,65d6befee41a9797ff21c907,0.0915,0.0917,1,40,202,146,1,sixfive,,,,,,,,,,,,,,,,,,,,,,,,,,,,,,,,,,,,,,,,,,,,,,,,,,,,,,,,,,,,,,,,,,,,,,,,,,,,,,,,,,,,,,,,,,,,,,,,,,,,,,,,,,,,,,,,,,,,,,,,,,,,,,,,,,,,,,,,,
,,657a7e142c5fba20342bc97b,2024-02-22_16h27.19.531,kallum_motion_pilot,2023.2.2,Win32,6.671114076,657a7e142c5fba20342bc97b,65d6bb0e977760de756971f7,65d6befee41a9797ff21c907,0.0918,0.0919,1,41,203,93,1,seveneight,,,,,,,,,,,,,,,,,,,,,,,,,,,,,,,,,,,,,,,,,,,,,,,,,,,,,,,,,,,,,,,,,,,,,,,,,,,,,,,,,,,,,,,,,,,,,,,,,,,,,,,,,,,,,,,,,,,,,,,,,,,,,,,,,,,,,,,,,
,,657a7e142c5fba20342bc97b,2024-02-22_16h27.19.531,kallum_motion_pilot,2023.2.2,Win32,6.671114076,657a7e142c5fba20342bc97b,65d6bb0e977760de756971f7,65d6befee41a9797ff21c907,0.092,0.0921,1,42,204,96,1,fivesix,,,,,,,,,,,,,,,,,,,,,,,,,,,,,,,,,,,,,,,,,,,,,,,,,,,,,,,,,,,,,,,,,,,,,,,,,,,,,,,,,,,,,,,,,,,,,,,,,,,,,,,,,,,,,,,,,,,,,,,,,,,,,,,,,,,,,,,,,
,,657a7e142c5fba20342bc97b,2024-02-22_16h27.19.531,kallum_motion_pilot,2023.2.2,Win32,6.671114076,657a7e142c5fba20342bc97b,65d6bb0e977760de756971f7,65d6befee41a9797ff21c907,0.0923,0.0924,1,43,205,58,1,twoone,,,,,,,,,,,,,,,,,,,,,,,,,,,,,,,,,,,,,,,,,,,,,,,,,,,,,,,,,,,,,,,,,,,,,,,,,,,,,,,,,,,,,,,,,,,,,,,,,,,,,,,,,,,,,,,,,,,,,,,,,,,,,,,,,,,,,,,,,
,,657a7e142c5fba20342bc97b,2024-02-22_16h27.19.531,kallum_motion_pilot,2023.2.2,Win32,6.671114076,657a7e142c5fba20342bc97b,65d6bb0e977760de756971f7,65d6befee41a9797ff21c907,0.0926,0.0927,1,44,206,155,1,sixeight,,,,,,,,,,,,,,,,,,,,,,,,,,,,,,,,,,,,,,,,,,,,,,,,,,,,,,,,,,,,,,,,,,,,,,,,,,,,,,,,,,,,,,,,,,,,,,,,,,,,,,,,,,,,,,,,,,,,,,,,,,,,,,,,,,,,,,,,,
,,657a7e142c5fba20342bc97b,2024-02-22_16h27.19.531,kallum_motion_pilot,2023.2.2,Win32,6.671114076,657a7e142c5fba20342bc97b,65d6bb0e977760de756971f7,65d6befee41a9797ff21c907,0.0928,0.093,1,45,207,50,1,twoone,,,,,,,,,,,,,,,,,,,,,,,,,,,,,,,,,,,,,,,,,,,,,,,,,,,,,,,,,,,,,,,,,,,,,,,,,,,,,,,,,,,,,,,,,,,,,,,,,,,,,,,,,,,,,,,,,,,,,,,,,,,,,,,,,,,,,,,,,
,,657a7e142c5fba20342bc97b,2024-02-22_16h27.19.531,kallum_motion_pilot,2023.2.2,Win32,6.671114076,657a7e142c5fba20342bc97b,65d6bb0e977760de756971f7,65d6befee41a9797ff21c907,0.0931,0.0933,1,46,208,38,1,fourtwo,,,,,,,,,,,,,,,,,,,,,,,,,,,,,,,,,,,,,,,,,,,,,,,,,,,,,,,,,,,,,,,,,,,,,,,,,,,,,,,,,,,,,,,,,,,,,,,,,,,,,,,,,,,,,,,,,,,,,,,,,,,,,,,,,,,,,,,,,
,,657a7e142c5fba20342bc97b,2024-02-22_16h27.19.531,kallum_motion_pilot,2023.2.2,Win32,6.671114076,657a7e142c5fba20342bc97b,65d6bb0e977760de756971f7,65d6befee41a9797ff21c907,0.0935,0.0936,1,47,209,139,1,sixeight,,,,,,,,,,,,,,,,,,,,,,,,,,,,,,,,,,,,,,,,,,,,,,,,,,,,,,,,,,,,,,,,,,,,,,,,,,,,,,,,,,,,,,,,,,,,,,,,,,,,,,,,,,,,,,,,,,,,,,,,,,,,,,,,,,,,,,,,,
,,657a7e142c5fba20342bc97b,2024-02-22_16h27.19.531,kallum_motion_pilot,2023.2.2,Win32,6.671114076,657a7e142c5fba20342bc97b,65d6bb0e977760de756971f7,65d6befee41a9797ff21c907,0.0937,0.0938,1,48,210,75,1,twofour,,,,,,,,,,,,,,,,,,,,,,,,,,,,,,,,,,,,,,,,,,,,,,,,,,,,,,,,,,,,,,,,,,,,,,,,,,,,,,,,,,,,,,,,,,,,,,,,,,,,,,,,,,,,,,,,,,,,,,,,,,,,,,,,,,,,,,,,,
,,657a7e142c5fba20342bc97b,2024-02-22_16h27.19.531,kallum_motion_pilot,2023.2.2,Win32,6.671114076,657a7e142c5fba20342bc97b,65d6bb0e977760de756971f7,65d6befee41a9797ff21c907,0.094,0.094,1,49,211,112,1,fivesix,,,,,,,,,,,,,,,,,,,,,,,,,,,,,,,,,,,,,,,,,,,,,,,,,,,,,,,,,,,,,,,,,,,,,,,,,,,,,,,,,,,,,,,,,,,,,,,,,,,,,,,,,,,,,,,,,,,,,,,,,,,,,,,,,,,,,,,,,
,,657a7e142c5fba20342bc97b,2024-02-22_16h27.19.531,kallum_motion_pilot,2023.2.2,Win32,6.671114076,657a7e142c5fba20342bc97b,65d6bb0e977760de756971f7,65d6befee41a9797ff21c907,0.0942,0.0943,1,50,212,32,1,onetwo,,,,,,,,,,,,,,,,,,,,,,,,,,,,,,,,,,,,,,,,,,,,,,,,,,,,,,,,,,,,,,,,,,,,,,,,,,,,,,,,,,,,,,,,,,,,,,,,,,,,,,,,,,,,,,,,,,,,,,,,,,,,,,,,,,,,,,,,,
,,657a7e142c5fba20342bc97b,2024-02-22_16h27.19.531,kallum_motion_pilot,2023.2.2,Win32,6.671114076,657a7e142c5fba20342bc97b,65d6bb0e977760de756971f7,65d6befee41a9797ff21c907,0.0945,0.0946,1,51,213,46,1,fourtwo,,,,,,,,,,,,,,,,,,,,,,,,,,,,,,,,,,,,,,,,,,,,,,,,,,,,,,,,,,,,,,,,,,,,,,,,,,,,,,,,,,,,,,,,,,,,,,,,,,,,,,,,,,,,,,,,,,,,,,,,,,,,,,,,,,,,,,,,,
,,657a7e142c5fba20342bc97b,2024-02-22_16h27.19.531,kallum_motion_pilot,2023.2.2,Win32,6.671114076,657a7e142c5fba20342bc97b,65d6bb0e977760de756971f7,65d6befee41a9797ff21c907,0.0947,0.095,1,52,214,44,1,threeone,,,,,,,,,,,,,,,,,,,,,,,,,,,,,,,,,,,,,,,,,,,,,,,,,,,,,,,,,,,,,,,,,,,,,,,,,,,,,,,,,,,,,,,,,,,,,,,,,,,,,,,,,,,,,,,,,,,,,,,,,,,,,,,,,,,,,,,,,
,,657a7e142c5fba20342bc97b,2024-02-22_16h27.19.531,kallum_motion_pilot,2023.2.2,Win32,6.671114076,657a7e142c5fba20342bc97b,65d6bb0e977760de756971f7,65d6befee41a9797ff21c907,0.0951,0.0953,1,53,215,12,1,threeone,,,,,,,,,,,,,,,,,,,,,,,,,,,,,,,,,,,,,,,,,,,,,,,,,,,,,,,,,,,,,,,,,,,,,,,,,,,,,,,,,,,,,,,,,,,,,,,,,,,,,,,,,,,,,,,,,,,,,,,,,,,,,,,,,,,,,,,,,
,,657a7e142c5fba20342bc97b,2024-02-22_16h27.19.531,kallum_motion_pilot,2023.2.2,Win32,6.671114076,657a7e142c5fba20342bc97b,65d6bb0e977760de756971f7,65d6befee41a9797ff21c907,0.0954,0.0956,1,54,216,148,1,sevenfive,,,,,,,,,,,,,,,,,,,,,,,,,,,,,,,,,,,,,,,,,,,,,,,,,,,,,,,,,,,,,,,,,,,,,,,,,,,,,,,,,,,,,,,,,,,,,,,,,,,,,,,,,,,,,,,,,,,,,,,,,,,,,,,,,,,,,,,,,
,,657a7e142c5fba20342bc97b,2024-02-22_16h27.19.531,kallum_motion_pilot,2023.2.2,Win32,6.671114076,657a7e142c5fba20342bc97b,65d6bb0e977760de756971f7,65d6befee41a9797ff21c907,0.0957,0.0958,1,55,217,55,1,fourthree,,,,,,,,,,,,,,,,,,,,,,,,,,,,,,,,,,,,,,,,,,,,,,,,,,,,,,,,,,,,,,,,,,,,,,,,,,,,,,,,,,,,,,,,,,,,,,,,,,,,,,,,,,,,,,,,,,,,,,,,,,,,,,,,,,,,,,,,,
,,657a7e142c5fba20342bc97b,2024-02-22_16h27.19.531,kallum_motion_pilot,2023.2.2,Win32,6.671114076,657a7e142c5fba20342bc97b,65d6bb0e977760de756971f7,65d6befee41a9797ff21c907,0.096,0.0961,1,56,218,117,1,seveneight,,,,,,,,,,,,,,,,,,,,,,,,,,,,,,,,,,,,,,,,,,,,,,,,,,,,,,,,,,,,,,,,,,,,,,,,,,,,,,,,,,,,,,,,,,,,,,,,,,,,,,,,,,,,,,,,,,,,,,,,,,,,,,,,,,,,,,,,,
,,657a7e142c5fba20342bc97b,2024-02-22_16h27.19.531,kallum_motion_pilot,2023.2.2,Win32,6.671114076,657a7e142c5fba20342bc97b,65d6bb0e977760de756971f7,65d6befee41a9797ff21c907,0.0962,0.0963,1,57,219,86,1,eightsix,,,,,,,,,,,,,,,,,,,,,,,,,,,,,,,,,,,,,,,,,,,,,,,,,,,,,,,,,,,,,,,,,,,,,,,,,,,,,,,,,,,,,,,,,,,,,,,,,,,,,,,,,,,,,,,,,,,,,,,,,,,,,,,,,,,,,,,,,
,,657a7e142c5fba20342bc97b,2024-02-22_16h27.19.531,kallum_motion_pilot,2023.2.2,Win32,6.671114076,657a7e142c5fba20342bc97b,65d6bb0e977760de756971f7,65d6befee41a9797ff21c907,0.0965,0.0966,1,58,220,72,1,onetwo,,,,,,,,,,,,,,,,,,,,,,,,,,,,,,,,,,,,,,,,,,,,,,,,,,,,,,,,,,,,,,,,,,,,,,,,,,,,,,,,,,,,,,,,,,,,,,,,,,,,,,,,,,,,,,,,,,,,,,,,,,,,,,,,,,,,,,,,,
,,657a7e142c5fba20342bc97b,2024-02-22_16h27.19.531,kallum_motion_pilot,2023.2.2,Win32,6.671114076,657a7e142c5fba20342bc97b,65d6bb0e977760de756971f7,65d6befee41a9797ff21c907,0.0968,0.0969,1,59,221,108,1,sevenfive,,,,,,,,,,,,,,,,,,,,,,,,,,,,,,,,,,,,,,,,,,,,,,,,,,,,,,,,,,,,,,,,,,,,,,,,,,,,,,,,,,,,,,,,,,,,,,,,,,,,,,,,,,,,,,,,,,,,,,,,,,,,,,,,,,,,,,,,,
,,657a7e142c5fba20342bc97b,2024-02-22_16h27.19.531,kallum_motion_pilot,2023.2.2,Win32,6.671114076,657a7e142c5fba20342bc97b,65d6bb0e977760de756971f7,65d6befee41a9797ff21c907,0.097,0.0971,1,60,222,127,1,eightseven,,,,,,,,,,,,,,,,,,,,,,,,,,,,,,,,,,,,,,,,,,,,,,,,,,,,,,,,,,,,,,,,,,,,,,,,,,,,,,,,,,,,,,,,,,,,,,,,,,,,,,,,,,,,,,,,,,,,,,,,,,,,,,,,,,,,,,,,,
,,657a7e142c5fba20342bc97b,2024-02-22_16h27.19.531,kallum_motion_pilot,2023.2.2,Win32,6.671114076,657a7e142c5fba20342bc97b,65d6bb0e977760de756971f7,65d6befee41a9797ff21c907,0.0973,0.0974,1,61,223,107,1,sixeight,,,,,,,,,,,,,,,,,,,,,,,,,,,,,,,,,,,,,,,,,,,,,,,,,,,,,,,,,,,,,,,,,,,,,,,,,,,,,,,,,,,,,,,,,,,,,,,,,,,,,,,,,,,,,,,,,,,,,,,,,,,,,,,,,,,,,,,,,
,,657a7e142c5fba20342bc97b,2024-02-22_16h27.19.531,kallum_motion_pilot,2023.2.2,Win32,6.671114076,657a7e142c5fba20342bc97b,65d6bb0e977760de756971f7,65d6befee41a9797ff21c907,0.0976,0.0977,1,62,224,31,1,fourthree,,,,,,,,,,,,,,,,,,,,,,,,,,,,,,,,,,,,,,,,,,,,,,,,,,,,,,,,,,,,,,,,,,,,,,,,,,,,,,,,,,,,,,,,,,,,,,,,,,,,,,,,,,,,,,,,,,,,,,,,,,,,,,,,,,,,,,,,,
,,657a7e142c5fba20342bc97b,2024-02-22_16h27.19.531,kallum_motion_pilot,2023.2.2,Win32,6.671114076,657a7e142c5fba20342bc97b,65d6bb0e977760de756971f7,65d6befee41a9797ff21c907,0.0979,0.0979,1,63,225,63,1,fourthree,,,,,,,,,,,,,,,,,,,,,,,,,,,,,,,,,,,,,,,,,,,,,,,,,,,,,,,,,,,,,,,,,,,,,,,,,,,,,,,,,,,,,,,,,,,,,,,,,,,,,,,,,,,,,,,,,,,,,,,,,,,,,,,,,,,,,,,,,
,,657a7e142c5fba20342bc97b,2024-02-22_16h27.19.531,kallum_motion_pilot,2023.2.2,Win32,6.671114076,657a7e142c5fba20342bc97b,65d6bb0e977760de756971f7,65d6befee41a9797ff21c907,0.0981,0.0983,1,64,226,28,1,threeone,,,,,,,,,,,,,,,,,,,,,,,,,,,,,,,,,,,,,,,,,,,,,,,,,,,,,,,,,,,,,,,,,,,,,,,,,,,,,,,,,,,,,,,,,,,,,,,,,,,,,,,,,,,,,,,,,,,,,,,,,,,,,,,,,,,,,,,,,
,,657a7e142c5fba20342bc97b,2024-02-22_16h27.19.531,kallum_motion_pilot,2023.2.2,Win32,6.671114076,657a7e142c5fba20342bc97b,65d6bb0e977760de756971f7,65d6befee41a9797ff21c907,0.0983,0.0985,1,65,227,18,1,twoone,,,,,,,,,,,,,,,,,,,,,,,,,,,,,,,,,,,,,,,,,,,,,,,,,,,,,,,,,,,,,,,,,,,,,,,,,,,,,,,,,,,,,,,,,,,,,,,,,,,,,,,,,,,,,,,,,,,,,,,,,,,,,,,,,,,,,,,,,
,,657a7e142c5fba20342bc97b,2024-02-22_16h27.19.531,kallum_motion_pilot,2023.2.2,Win32,6.671114076,657a7e142c5fba20342bc97b,65d6bb0e977760de756971f7,65d6befee41a9797ff21c907,0.0987,0.0987,1,66,228,119,1,eightseven,,,,,,,,,,,,,,,,,,,,,,,,,,,,,,,,,,,,,,,,,,,,,,,,,,,,,,,,,,,,,,,,,,,,,,,,,,,,,,,,,,,,,,,,,,,,,,,,,,,,,,,,,,,,,,,,,,,,,,,,,,,,,,,,,,,,,,,,,
,,657a7e142c5fba20342bc97b,2024-02-22_16h27.19.531,kallum_motion_pilot,2023.2.2,Win32,6.671114076,657a7e142c5fba20342bc97b,65d6bb0e977760de756971f7,65d6befee41a9797ff21c907,0.0989,0.0991,1,67,229,59,1,twofour,,,,,,,,,,,,,,,,,,,,,,,,,,,,,,,,,,,,,,,,,,,,,,,,,,,,,,,,,,,,,,,,,,,,,,,,,,,,,,,,,,,,,,,,,,,,,,,,,,,,,,,,,,,,,,,,,,,,,,,,,,,,,,,,,,,,,,,,,
,,657a7e142c5fba20342bc97b,2024-02-22_16h27.19.531,kallum_motion_pilot,2023.2.2,Win32,6.671114076,657a7e142c5fba20342bc97b,65d6bb0e977760de756971f7,65d6befee41a9797ff21c907,0.0991,0.0993,1,68,230,7,1,fourthree,,,,,,,,,,,,,,,,,,,,,,,,,,,,,,,,,,,,,,,,,,,,,,,,,,,,,,,,,,,,,,,,,,,,,,,,,,,,,,,,,,,,,,,,,,,,,,,,,,,,,,,,,,,,,,,,,,,,,,,,,,,,,,,,,,,,,,,,,
,,657a7e142c5fba20342bc97b,2024-02-22_16h27.19.531,kallum_motion_pilot,2023.2.2,Win32,6.671114076,657a7e142c5fba20342bc97b,65d6bb0e977760de756971f7,65d6befee41a9797ff21c907,0.0995,0.0996,1,69,231,111,1,eightseven,,,,,,,,,,,,,,,,,,,,,,,,,,,,,,,,,,,,,,,,,,,,,,,,,,,,,,,,,,,,,,,,,,,,,,,,,,,,,,,,,,,,,,,,,,,,,,,,,,,,,,,,,,,,,,,,,,,,,,,,,,,,,,,,,,,,,,,,,
,,657a7e142c5fba20342bc97b,2024-02-22_16h27.19.531,kallum_motion_pilot,2023.2.2,Win32,6.671114076,657a7e142c5fba20342bc97b,65d6bb0e977760de756971f7,65d6befee41a9797ff21c907,0.0997,0.0998,1,70,232,34,1,twoone,,,,,,,,,,,,,,,,,,,,,,,,,,,,,,,,,,,,,,,,,,,,,,,,,,,,,,,,,,,,,,,,,,,,,,,,,,,,,,,,,,,,,,,,,,,,,,,,,,,,,,,,,,,,,,,,,,,,,,,,,,,,,,,,,,,,,,,,,
,,657a7e142c5fba20342bc97b,2024-02-22_16h27.19.531,kallum_motion_pilot,2023.2.2,Win32,6.671114076,657a7e142c5fba20342bc97b,65d6bb0e977760de756971f7,65d6befee41a9797ff21c907,0.1,0.1,1,71,233,76,1,threeone,,,,,,,,,,,,,,,,,,,,,,,,,,,,,,,,,,,,,,,,,,,,,,,,,,,,,,,,,,,,,,,,,,,,,,,,,,,,,,,,,,,,,,,,,,,,,,,,,,,,,,,,,,,,,,,,,,,,,,,,,,,,,,,,,,,,,,,,,
,,657a7e142c5fba20342bc97b,2024-02-22_16h27.19.531,kallum_motion_pilot,2023.2.2,Win32,6.671114076,657a7e142c5fba20342bc97b,65d6bb0e977760de756971f7,65d6befee41a9797ff21c907,0.1002,0.1004,1,72,234,67,1,twofour,,,,,,,,,,,,,,,,,,,,,,,,,,,,,,,,,,,,,,,,,,,,,,,,,,,,,,,,,,,,,,,,,,,,,,,,,,,,,,,,,,,,,,,,,,,,,,,,,,,,,,,,,,,,,,,,,,,,,,,,,,,,,,,,,,,,,,,,,
,,657a7e142c5fba20342bc97b,2024-02-22_16h27.19.531,kallum_motion_pilot,2023.2.2,Win32,6.671114076,657a7e142c5fba20342bc97b,65d6bb0e977760de756971f7,65d6befee41a9797ff21c907,0.1004,0.1006,1,73,235,52,1,threeone,,,,,,,,,,,,,,,,,,,,,,,,,,,,,,,,,,,,,,,,,,,,,,,,,,,,,,,,,,,,,,,,,,,,,,,,,,,,,,,,,,,,,,,,,,,,,,,,,,,,,,,,,,,,,,,,,,,,,,,,,,,,,,,,,,,,,,,,,
,,657a7e142c5fba20342bc97b,2024-02-22_16h27.19.531,kallum_motion_pilot,2023.2.2,Win32,6.671114076,657a7e142c5fba20342bc97b,65d6bb0e977760de756971f7,65d6befee41a9797ff21c907,0.1008,0.101,1,74,236,4,1,threeone,,,,,,,,,,,,,,,,,,,,,,,,,,,,,,,,,,,,,,,,,,,,,,,,,,,,,,,,,,,,,,,,,,,,,,,,,,,,,,,,,,,,,,,,,,,,,,,,,,,,,,,,,,,,,,,,,,,,,,,,,,,,,,,,,,,,,,,,,
,,657a7e142c5fba20342bc97b,2024-02-22_16h27.19.531,kallum_motion_pilot,2023.2.2,Win32,6.671114076,657a7e142c5fba20342bc97b,65d6bb0e977760de756971f7,65d6befee41a9797ff21c907,0.1011,0.1013,1,75,237,160,1,fivesix,,,,,,,,,,,,,,,,,,,,,,,,,,,,,,,,,,,,,,,,,,,,,,,,,,,,,,,,,,,,,,,,,,,,,,,,,,,,,,,,,,,,,,,,,,,,,,,,,,,,,,,,,,,,,,,,,,,,,,,,,,,,,,,,,,,,,,,,,
,,657a7e142c5fba20342bc97b,2024-02-22_16h27.19.531,kallum_motion_pilot,2023.2.2,Win32,6.671114076,657a7e142c5fba20342bc97b,65d6bb0e977760de756971f7,65d6befee41a9797ff21c907,0.1016,0.1017,1,76,238,82,1,sixfive,,,,,,,,,,,,,,,,,,,,,,,,,,,,,,,,,,,,,,,,,,,,,,,,,,,,,,,,,,,,,,,,,,,,,,,,,,,,,,,,,,,,,,,,,,,,,,,,,,,,,,,,,,,,,,,,,,,,,,,,,,,,,,,,,,,,,,,,,
,,657a7e142c5fba20342bc97b,2024-02-22_16h27.19.531,kallum_motion_pilot,2023.2.2,Win32,6.671114076,657a7e142c5fba20342bc97b,65d6bb0e977760de756971f7,65d6befee41a9797ff21c907,0.1019,0.1022,1,77,239,133,1,seveneight,,,,,,,,,,,,,,,,,,,,,,,,,,,,,,,,,,,,,,,,,,,,,,,,,,,,,,,,,,,,,,,,,,,,,,,,,,,,,,,,,,,,,,,,,,,,,,,,,,,,,,,,,,,,,,,,,,,,,,,,,,,,,,,,,,,,,,,,,
,,657a7e142c5fba20342bc97b,2024-02-22_16h27.19.531,kallum_motion_pilot,2023.2.2,Win32,6.671114076,657a7e142c5fba20342bc97b,65d6bb0e977760de756971f7,65d6befee41a9797ff21c907,0.1025,0.1025,1,78,240,134,1,eightsix,,,,,,,,,,,,,,,,,,,,,,,,,,,,,,,,,,,,,,,,,,,,,,,,,,,,,,,,,,,,,,,,,,,,,,,,,,,,,,,,,,,,,,,,,,,,,,,,,,,,,,,,,,,,,,,,,,,,,,,,,,,,,,,,,,,,,,,,,
,,657a7e142c5fba20342bc97b,2024-02-22_16h27.19.531,kallum_motion_pilot,2023.2.2,Win32,6.671114076,657a7e142c5fba20342bc97b,65d6bb0e977760de756971f7,65d6befee41a9797ff21c907,0.1027,0.1028,1,79,241,69,1,threefour,,,,,,,,,,,,,,,,,,,,,,,,,,,,,,,,,,,,,,,,,,,,,,,,,,,,,,,,,,,,,,,,,,,,,,,,,,,,,,,,,,,,,,,,,,,,,,,,,,,,,,,,,,,,,,,,,,,,,,,,,,,,,,,,,,,,,,,,,
,,657a7e142c5fba20342bc97b,2024-02-22_16h27.19.531,kallum_motion_pilot,2023.2.2,Win32,6.671114076,657a7e142c5fba20342bc97b,65d6bb0e977760de756971f7,65d6befee41a9797ff21c907,0.103,0.1032,1,80,242,120,1,fivesix,,,,,,,,,,,,,,,,,,,,,,,,,,,,,,,,,,,,,,,,,,,,,,,,,,,,,,,,,,,,,,,,,,,,,,,,,,,,,,,,,,,,,,,,,,,,,,,,,,,,,,,,,,,,,,,,,,,,,,,,,,,,,,,,,,,,,,,,,
,,657a7e142c5fba20342bc97b,2024-02-22_16h27.19.531,kallum_motion_pilot,2023.2.2,Win32,6.671114076,657a7e142c5fba20342bc97b,65d6bb0e977760de756971f7,65d6befee41a9797ff21c907,0.1037,0.1038,1,81,243,129,1,fiveseven,,,,,,,,,,,,,,,,,,,,,,,,,,,,,,,,,,,,,,,,,,,,,,,,,,,,,,,,,,,,,,,,,,,,,,,,,,,,,,,,,,,,,,,,,,,,,,,,,,,,,,,,,,,,,,,,,,,,,,,,,,,,,,,,,,,,,,,,,
,,657a7e142c5fba20342bc97b,2024-02-22_16h27.19.531,kallum_motion_pilot,2023.2.2,Win32,6.671114076,657a7e142c5fba20342bc97b,65d6bb0e977760de756971f7,65d6befee41a9797ff21c907,0.104,0.1041,1,82,244,65,1,onethree,,,,,,,,,,,,,,,,,,,,,,,,,,,,,,,,,,,,,,,,,,,,,,,,,,,,,,,,,,,,,,,,,,,,,,,,,,,,,,,,,,,,,,,,,,,,,,,,,,,,,,,,,,,,,,,,,,,,,,,,,,,,,,,,,,,,,,,,,
,,657a7e142c5fba20342bc97b,2024-02-22_16h27.19.531,kallum_motion_pilot,2023.2.2,Win32,6.671114076,657a7e142c5fba20342bc97b,65d6bb0e977760de756971f7,65d6befee41a9797ff21c907,0.1043,0.1044,1,83,245,121,1,fiveseven,,,,,,,,,,,,,,,,,,,,,,,,,,,,,,,,,,,,,,,,,,,,,,,,,,,,,,,,,,,,,,,,,,,,,,,,,,,,,,,,,,,,,,,,,,,,,,,,,,,,,,,,,,,,,,,,,,,,,,,,,,,,,,,,,,,,,,,,,
,,657a7e142c5fba20342bc97b,2024-02-22_16h27.19.531,kallum_motion_pilot,2023.2.2,Win32,6.671114076,657a7e142c5fba20342bc97b,65d6bb0e977760de756971f7,65d6befee41a9797ff21c907,0.1046,0.1048,1,84,246,154,1,sixfive,,,,,,,,,,,,,,,,,,,,,,,,,,,,,,,,,,,,,,,,,,,,,,,,,,,,,,,,,,,,,,,,,,,,,,,,,,,,,,,,,,,,,,,,,,,,,,,,,,,,,,,,,,,,,,,,,,,,,,,,,,,,,,,,,,,,,,,,,
,,657a7e142c5fba20342bc97b,2024-02-22_16h27.19.531,kallum_motion_pilot,2023.2.2,Win32,6.671114076,657a7e142c5fba20342bc97b,65d6bb0e977760de756971f7,65d6befee41a9797ff21c907,0.105,0.105,1,85,247,73,1,onethree,,,,,,,,,,,,,,,,,,,,,,,,,,,,,,,,,,,,,,,,,,,,,,,,,,,,,,,,,,,,,,,,,,,,,,,,,,,,,,,,,,,,,,,,,,,,,,,,,,,,,,,,,,,,,,,,,,,,,,,,,,,,,,,,,,,,,,,,,
,,657a7e142c5fba20342bc97b,2024-02-22_16h27.19.531,kallum_motion_pilot,2023.2.2,Win32,6.671114076,657a7e142c5fba20342bc97b,65d6bb0e977760de756971f7,65d6befee41a9797ff21c907,0.1052,0.1054,1,86,248,78,1,fourtwo,,,,,,,,,,,,,,,,,,,,,,,,,,,,,,,,,,,,,,,,,,,,,,,,,,,,,,,,,,,,,,,,,,,,,,,,,,,,,,,,,,,,,,,,,,,,,,,,,,,,,,,,,,,,,,,,,,,,,,,,,,,,,,,,,,,,,,,,,
,,657a7e142c5fba20342bc97b,2024-02-22_16h27.19.531,kallum_motion_pilot,2023.2.2,Win32,6.671114076,657a7e142c5fba20342bc97b,65d6bb0e977760de756971f7,65d6befee41a9797ff21c907,0.1055,0.1057,1,87,249,9,1,onethree,,,,,,,,,,,,,,,,,,,,,,,,,,,,,,,,,,,,,,,,,,,,,,,,,,,,,,,,,,,,,,,,,,,,,,,,,,,,,,,,,,,,,,,,,,,,,,,,,,,,,,,,,,,,,,,,,,,,,,,,,,,,,,,,,,,,,,,,,
,,657a7e142c5fba20342bc97b,2024-02-22_16h27.19.531,kallum_motion_pilot,2023.2.2,Win32,6.671114076,657a7e142c5fba20342bc97b,65d6bb0e977760de756971f7,65d6befee41a9797ff21c907,0.1059,0.106,1,88,250,138,1,sixfive,,,,,,,,,,,,,,,,,,,,,,,,,,,,,,,,,,,,,,,,,,,,,,,,,,,,,,,,,,,,,,,,,,,,,,,,,,,,,,,,,,,,,,,,,,,,,,,,,,,,,,,,,,,,,,,,,,,,,,,,,,,,,,,,,,,,,,,,,
,,657a7e142c5fba20342bc97b,2024-02-22_16h27.19.531,kallum_motion_pilot,2023.2.2,Win32,6.671114076,657a7e142c5fba20342bc97b,65d6bb0e977760de756971f7,65d6befee41a9797ff21c907,0.1062,0.1063,1,89,251,53,1,threefour,,,,,,,,,,,,,,,,,,,,,,,,,,,,,,,,,,,,,,,,,,,,,,,,,,,,,,,,,,,,,,,,,,,,,,,,,,,,,,,,,,,,,,,,,,,,,,,,,,,,,,,,,,,,,,,,,,,,,,,,,,,,,,,,,,,,,,,,,
,,657a7e142c5fba20342bc97b,2024-02-22_16h27.19.531,kallum_motion_pilot,2023.2.2,Win32,6.671114076,657a7e142c5fba20342bc97b,65d6bb0e977760de756971f7,65d6befee41a9797ff21c907,0.1066,0.1067,1,90,252,145,1,fiveseven,,,,,,,,,,,,,,,,,,,,,,,,,,,,,,,,,,,,,,,,,,,,,,,,,,,,,,,,,,,,,,,,,,,,,,,,,,,,,,,,,,,,,,,,,,,,,,,,,,,,,,,,,,,,,,,,,,,,,,,,,,,,,,,,,,,,,,,,,
,,657a7e142c5fba20342bc97b,2024-02-22_16h27.19.531,kallum_motion_pilot,2023.2.2,Win32,6.671114076,657a7e142c5fba20342bc97b,65d6bb0e977760de756971f7,65d6befee41a9797ff21c907,0.1068,0.107,1,91,253,130,1,sixfive,,,,,,,,,,,,,,,,,,,,,,,,,,,,,,,,,,,,,,,,,,,,,,,,,,,,,,,,,,,,,,,,,,,,,,,,,,,,,,,,,,,,,,,,,,,,,,,,,,,,,,,,,,,,,,,,,,,,,,,,,,,,,,,,,,,,,,,,,
,,657a7e142c5fba20342bc97b,2024-02-22_16h27.19.531,kallum_motion_pilot,2023.2.2,Win32,6.671114076,657a7e142c5fba20342bc97b,65d6bb0e977760de756971f7,65d6befee41a9797ff21c907,0.1072,0.1073,1,92,254,149,1,seveneight,,,,,,,,,,,,,,,,,,,,,,,,,,,,,,,,,,,,,,,,,,,,,,,,,,,,,,,,,,,,,,,,,,,,,,,,,,,,,,,,,,,,,,,,,,,,,,,,,,,,,,,,,,,,,,,,,,,,,,,,,,,,,,,,,,,,,,,,,
,,657a7e142c5fba20342bc97b,2024-02-22_16h27.19.531,kallum_motion_pilot,2023.2.2,Win32,6.671114076,657a7e142c5fba20342bc97b,65d6bb0e977760de756971f7,65d6befee41a9797ff21c907,0.1076,0.1078,1,93,255,140,1,sevenfive,,,,,,,,,,,,,,,,,,,,,,,,,,,,,,,,,,,,,,,,,,,,,,,,,,,,,,,,,,,,,,,,,,,,,,,,,,,,,,,,,,,,,,,,,,,,,,,,,,,,,,,,,,,,,,,,,,,,,,,,,,,,,,,,,,,,,,,,,
,,657a7e142c5fba20342bc97b,2024-02-22_16h27.19.531,kallum_motion_pilot,2023.2.2,Win32,6.671114076,657a7e142c5fba20342bc97b,65d6bb0e977760de756971f7,65d6befee41a9797ff21c907,0.108,0.1082,1,94,256,83,1,sixeight,,,,,,,,,,,,,,,,,,,,,,,,,,,,,,,,,,,,,,,,,,,,,,,,,,,,,,,,,,,,,,,,,,,,,,,,,,,,,,,,,,,,,,,,,,,,,,,,,,,,,,,,,,,,,,,,,,,,,,,,,,,,,,,,,,,,,,,,,
,,657a7e142c5fba20342bc97b,2024-02-22_16h27.19.531,kallum_motion_pilot,2023.2.2,Win32,6.671114076,657a7e142c5fba20342bc97b,65d6bb0e977760de756971f7,65d6befee41a9797ff21c907,0.1084,0.1085,1,95,257,17,1,onethree,,,,,,,,,,,,,,,,,,,,,,,,,,,,,,,,,,,,,,,,,,,,,,,,,,,,,,,,,,,,,,,,,,,,,,,,,,,,,,,,,,,,,,,,,,,,,,,,,,,,,,,,,,,,,,,,,,,,,,,,,,,,,,,,,,,,,,,,,
,,657a7e142c5fba20342bc97b,2024-02-22_16h27.19.531,kallum_motion_pilot,2023.2.2,Win32,6.671114076,657a7e142c5fba20342bc97b,65d6bb0e977760de756971f7,65d6befee41a9797ff21c907,0.1086,0.1088,1,96,258,106,1,sixfive,,,,,,,,,,,,,,,,,,,,,,,,,,,,,,,,,,,,,,,,,,,,,,,,,,,,,,,,,,,,,,,,,,,,,,,,,,,,,,,,,,,,,,,,,,,,,,,,,,,,,,,,,,,,,,,,,,,,,,,,,,,,,,,,,,,,,,,,,
,,657a7e142c5fba20342bc97b,2024-02-22_16h27.19.531,kallum_motion_pilot,2023.2.2,Win32,6.671114076,657a7e142c5fba20342bc97b,65d6bb0e977760de756971f7,65d6befee41a9797ff21c907,0.1091,0.1092,1,97,259,135,1,eightseven,,,,,,,,,,,,,,,,,,,,,,,,,,,,,,,,,,,,,,,,,,,,,,,,,,,,,,,,,,,,,,,,,,,,,,,,,,,,,,,,,,,,,,,,,,,,,,,,,,,,,,,,,,,,,,,,,,,,,,,,,,,,,,,,,,,,,,,,,
,,657a7e142c5fba20342bc97b,2024-02-22_16h27.19.531,kallum_motion_pilot,2023.2.2,Win32,6.671114076,657a7e142c5fba20342bc97b,65d6bb0e977760de756971f7,65d6befee41a9797ff21c907,0.1093,0.1095,1,98,260,161,1,fiveseven,,,,,,,,,,,,,,,,,,,,,,,,,,,,,,,,,,,,,,,,,,,,,,,,,,,,,,,,,,,,,,,,,,,,,,,,,,,,,,,,,,,,,,,,,,,,,,,,,,,,,,,,,,,,,,,,,,,,,,,,,,,,,,,,,,,,,,,,,
,,657a7e142c5fba20342bc97b,2024-02-22_16h27.19.531,kallum_motion_pilot,2023.2.2,Win32,6.671114076,657a7e142c5fba20342bc97b,65d6bb0e977760de756971f7,65d6befee41a9797ff21c907,0.1097,0.1098,1,99,261,66,1,twoone,,,,,,,,,,,,,,,,,,,,,,,,,,,,,,,,,,,,,,,,,,,,,,,,,,,,,,,,,,,,,,,,,,,,,,,,,,,,,,,,,,,,,,,,,,,,,,,,,,,,,,,,,,,,,,,,,,,,,,,,,,,,,,,,,,,,,,,,,
,,657a7e142c5fba20342bc97b,2024-02-22_16h27.19.531,kallum_motion_pilot,2023.2.2,Win32,6.671114076,657a7e142c5fba20342bc97b,65d6bb0e977760de756971f7,65d6befee41a9797ff21c907,0.11,0.1101,1,100,262,71,1,fourthree,,,,,,,,,,,,,,,,,,,,,,,,,,,,,,,,,,,,,,,,,,,,,,,,,,,,,,,,,,,,,,,,,,,,,,,,,,,,,,,,,,,,,,,,,,,,,,,,,,,,,,,,,,,,,,,,,,,,,,,,,,,,,,,,,,,,,,,,,
,,657a7e142c5fba20342bc97b,2024-02-22_16h27.19.531,kallum_motion_pilot,2023.2.2,Win32,6.671114076,657a7e142c5fba20342bc97b,65d6bb0e977760de756971f7,65d6befee41a9797ff21c907,0.1104,0.1105,1,101,263,132,1,sevenfive,,,,,,,,,,,,,,,,,,,,,,,,,,,,,,,,,,,,,,,,,,,,,,,,,,,,,,,,,,,,,,,,,,,,,,,,,,,,,,,,,,,,,,,,,,,,,,,,,,,,,,,,,,,,,,,,,,,,,,,,,,,,,,,,,,,,,,,,,
,,657a7e142c5fba20342bc97b,2024-02-22_16h27.19.531,kallum_motion_pilot,2023.2.2,Win32,6.671114076,657a7e142c5fba20342bc97b,65d6bb0e977760de756971f7,65d6befee41a9797ff21c907,0.1108,0.1109,1,102,264,123,1,sixeight,,,,,,,,,,,,,,,,,,,,,,,,,,,,,,,,,,,,,,,,,,,,,,,,,,,,,,,,,,,,,,,,,,,,,,,,,,,,,,,,,,,,,,,,,,,,,,,,,,,,,,,,,,,,,,,,,,,,,,,,,,,,,,,,,,,,,,,,,
,,657a7e142c5fba20342bc97b,2024-02-22_16h27.19.531,kallum_motion_pilot,2023.2.2,Win32,6.671114076,657a7e142c5fba20342bc97b,65d6bb0e977760de756971f7,65d6befee41a9797ff21c907,0.1111,0.1113,1,103,265,118,1,eightsix,,,,,,,,,,,,,,,,,,,,,,,,,,,,,,,,,,,,,,,,,,,,,,,,,,,,,,,,,,,,,,,,,,,,,,,,,,,,,,,,,,,,,,,,,,,,,,,,,,,,,,,,,,,,,,,,,,,,,,,,,,,,,,,,,,,,,,,,,
,,657a7e142c5fba20342bc97b,2024-02-22_16h27.19.531,kallum_motion_pilot,2023.2.2,Win32,6.671114076,657a7e142c5fba20342bc97b,65d6bb0e977760de756971f7,65d6befee41a9797ff21c907,0.1115,0.1116,1,104,266,41,1,onethree,,,,,,,,,,,,,,,,,,,,,,,,,,,,,,,,,,,,,,,,,,,,,,,,,,,,,,,,,,,,,,,,,,,,,,,,,,,,,,,,,,,,,,,,,,,,,,,,,,,,,,,,,,,,,,,,,,,,,,,,,,,,,,,,,,,,,,,,,
,,657a7e142c5fba20342bc97b,2024-02-22_16h27.19.531,kallum_motion_pilot,2023.2.2,Win32,6.671114076,657a7e142c5fba20342bc97b,65d6bb0e977760de756971f7,65d6befee41a9797ff21c907,0.1118,0.1119,1,105,267,105,1,fiveseven,,,,,,,,,,,,,,,,,,,,,,,,,,,,,,,,,,,,,,,,,,,,,,,,,,,,,,,,,,,,,,,,,,,,,,,,,,,,,,,,,,,,,,,,,,,,,,,,,,,,,,,,,,,,,,,,,,,,,,,,,,,,,,,,,,,,,,,,,
,,657a7e142c5fba20342bc97b,2024-02-22_16h27.19.531,kallum_motion_pilot,2023.2.2,Win32,6.671114076,657a7e142c5fba20342bc97b,65d6bb0e977760de756971f7,65d6befee41a9797ff21c907,0.1122,0.1123,1,106,268,84,1,sevenfive,,,,,,,,,,,,,,,,,,,,,,,,,,,,,,,,,,,,,,,,,,,,,,,,,,,,,,,,,,,,,,,,,,,,,,,,,,,,,,,,,,,,,,,,,,,,,,,,,,,,,,,,,,,,,,,,,,,,,,,,,,,,,,,,,,,,,,,,,
,,657a7e142c5fba20342bc97b,2024-02-22_16h27.19.531,kallum_motion_pilot,2023.2.2,Win32,6.671114076,657a7e142c5fba20342bc97b,65d6bb0e977760de756971f7,65d6befee41a9797ff21c907,0.1126,0.1127,1,107,269,104,1,fivesix,,,,,,,,,,,,,,,,,,,,,,,,,,,,,,,,,,,,,,,,,,,,,,,,,,,,,,,,,,,,,,,,,,,,,,,,,,,,,,,,,,,,,,,,,,,,,,,,,,,,,,,,,,,,,,,,,,,,,,,,,,,,,,,,,,,,,,,,,
,,657a7e142c5fba20342bc97b,2024-02-22_16h27.19.531,kallum_motion_pilot,2023.2.2,Win32,6.671114076,657a7e142c5fba20342bc97b,65d6bb0e977760de756971f7,65d6befee41a9797ff21c907,0.1129,0.1131,1,108,270,81,1,fiveseven,,,,,,,,,,,,,,,,,,,,,,,,,,,,,,,,,,,,,,,,,,,,,,,,,,,,,,,,,,,,,,,,,,,,,,,,,,,,,,,,,,,,,,,,,,,,,,,,,,,,,,,,,,,,,,,,,,,,,,,,,,,,,,,,,,,,,,,,,
,,657a7e142c5fba20342bc97b,2024-02-22_16h27.19.531,kallum_motion_pilot,2023.2.2,Win32,6.671114076,657a7e142c5fba20342bc97b,65d6bb0e977760de756971f7,65d6befee41a9797ff21c907,0.1132,0.1134,1,109,271,2,1,twoone,,,,,,,,,,,,,,,,,,,,,,,,,,,,,,,,,,,,,,,,,,,,,,,,,,,,,,,,,,,,,,,,,,,,,,,,,,,,,,,,,,,,,,,,,,,,,,,,,,,,,,,,,,,,,,,,,,,,,,,,,,,,,,,,,,,,,,,,,
,,657a7e142c5fba20342bc97b,2024-02-22_16h27.19.531,kallum_motion_pilot,2023.2.2,Win32,6.671114076,657a7e142c5fba20342bc97b,65d6bb0e977760de756971f7,65d6befee41a9797ff21c907,0.1135,0.1137,1,110,272,94,1,eightsix,,,,,,,,,,,,,,,,,,,,,,,,,,,,,,,,,,,,,,,,,,,,,,,,,,,,,,,,,,,,,,,,,,,,,,,,,,,,,,,,,,,,,,,,,,,,,,,,,,,,,,,,,,,,,,,,,,,,,,,,,,,,,,,,,,,,,,,,,
,,657a7e142c5fba20342bc97b,2024-02-22_16h27.19.531,kallum_motion_pilot,2023.2.2,Win32,6.671114076,657a7e142c5fba20342bc97b,65d6bb0e977760de756971f7,65d6befee41a9797ff21c907,0.1139,0.1141,1,111,273,99,1,sixeight,,,,,,,,,,,,,,,,,,,,,,,,,,,,,,,,,,,,,,,,,,,,,,,,,,,,,,,,,,,,,,,,,,,,,,,,,,,,,,,,,,,,,,,,,,,,,,,,,,,,,,,,,,,,,,,,,,,,,,,,,,,,,,,,,,,,,,,,,
,,657a7e142c5fba20342bc97b,2024-02-22_16h27.19.531,kallum_motion_pilot,2023.2.2,Win32,6.671114076,657a7e142c5fba20342bc97b,65d6bb0e977760de756971f7,65d6befee41a9797ff21c907,0.1142,0.1144,1,112,274,143,1,eightseven,,,,,,,,,,,,,,,,,,,,,,,,,,,,,,,,,,,,,,,,,,,,,,,,,,,,,,,,,,,,,,,,,,,,,,,,,,,,,,,,,,,,,,,,,,,,,,,,,,,,,,,,,,,,,,,,,,,,,,,,,,,,,,,,,,,,,,,,,
,,657a7e142c5fba20342bc97b,2024-02-22_16h27.19.531,kallum_motion_pilot,2023.2.2,Win32,6.671114076,657a7e142c5fba20342bc97b,65d6bb0e977760de756971f7,65d6befee41a9797ff21c907,0.1145,0.1147,1,113,275,43,1,twofour,,,,,,,,,,,,,,,,,,,,,,,,,,,,,,,,,,,,,,,,,,,,,,,,,,,,,,,,,,,,,,,,,,,,,,,,,,,,,,,,,,,,,,,,,,,,,,,,,,,,,,,,,,,,,,,,,,,,,,,,,,,,,,,,,,,,,,,,,
,,657a7e142c5fba20342bc97b,2024-02-22_16h27.19.531,kallum_motion_pilot,2023.2.2,Win32,6.671114076,657a7e142c5fba20342bc97b,65d6bb0e977760de756971f7,65d6befee41a9797ff21c907,0.1148,0.115,1,114,276,10,1,twoone,,,,,,,,,,,,,,,,,,,,,,,,,,,,,,,,,,,,,,,,,,,,,,,,,,,,,,,,,,,,,,,,,,,,,,,,,,,,,,,,,,,,,,,,,,,,,,,,,,,,,,,,,,,,,,,,,,,,,,,,,,,,,,,,,,,,,,,,,
,,657a7e142c5fba20342bc97b,2024-02-22_16h27.19.531,kallum_motion_pilot,2023.2.2,Win32,6.671114076,657a7e142c5fba20342bc97b,65d6bb0e977760de756971f7,65d6befee41a9797ff21c907,0.1151,0.1154,1,115,277,8,1,onetwo,,,,,,,,,,,,,,,,,,,,,,,,,,,,,,,,,,,,,,,,,,,,,,,,,,,,,,,,,,,,,,,,,,,,,,,,,,,,,,,,,,,,,,,,,,,,,,,,,,,,,,,,,,,,,,,,,,,,,,,,,,,,,,,,,,,,,,,,,
