startup.started,startup.stopped,Prolific ID*,date,expName,psychopyVersion,OS,frameRate,participant,study_id,session,stimpositions.started,stimpositions.stopped,hardcoded_stimulus_positions.thisRepN,hardcoded_stimulus_positions.thisTrialN,hardcoded_stimulus_positions.thisN,hardcoded_stimulus_positions.thisIndex,hardcoded_stimulus_positions.ran,StimulusPos,stimorientation.started,stimorientation.stopped,prac_stimorientation_import_loop.thisRepN,prac_stimorientation_import_loop.thisTrialN,prac_stimorientation_import_loop.thisN,prac_stimorientation_import_loop.thisIndex,prac_stimorientation_import_loop.ran,Stimorientation,welcome_instr.started,welcome_instr.stopped,key_resp.keys,key_resp.rt,key_resp.duration,response_steppedout_1.started,response_steppedout_1.stopped,key_resp_20.keys,key_resp_20.rt,key_resp_20.duration,response_steppedout_2.started,response_steppedout_2.stopped,key_resp_19.keys,key_resp_19.rt,key_resp_19.duration,stim_response_instr.started,stim_response_instr.stopped,key_resp_15.keys,key_resp_15.rt,key_resp_15.duration,direction_instr_2.started,direction_instr_2.stopped,key_resp_9.keys,key_resp_9.rt,key_resp_9.duration,instr_prac.started,instr_prac.stopped,key_resp_10.keys,key_resp_10.rt,key_resp_10.duration,Stim1_display_prac.started,Stim1_display_prac.stopped,Ecc,Circle1_ori,Circle2_ori,response_prac.started,similarity,response_time,response_prac.stopped,mouse_5.x,mouse_5.y,mouse_5.leftButton,mouse_5.midButton,mouse_5.rightButton,mouse_5.clicked_name,responseprac_feedback.started,responseprac_feedback.stopped,summary2_prac.started,summary2_prac.stopped,mouse_6.x,mouse_6.y,mouse_6.leftButton,mouse_6.midButton,mouse_6.rightButton,mouse_6.clicked_name,duringprac.thisRepN,duringprac.thisTrialN,duringprac.thisN,duringprac.thisIndex,duringprac.ran,begin.started,begin.stopped,key_resp_22.keys,key_resp_22.rt,key_resp_22.duration,Stim1_display.started,Stim1_display.stopped,circle1_ori,circle2_ori,circle1_SF,circle2_SF,response.started,response.stopped,mouse.x,mouse.y,mouse.leftButton,mouse.midButton,mouse.rightButton,mouse.clicked_name,trialnumber,double_pass.thisRepN,double_pass.thisTrialN,double_pass.thisN,double_pass.thisIndex,double_pass.ran,double_pass.order,main_trial.thisRepN,main_trial.thisTrialN,main_trial.thisN,main_trial.thisIndex,main_trial.ran,main_trial.order,Trial_Counter,Catch,Frequencies,response_2.started,response_2.stopped,mouse_2.x,mouse_2.y,mouse_2.leftButton,mouse_2.midButton,mouse_2.rightButton,mouse_2.clicked_name,special_trial.started,special_trial.stopped,catch_1.started,catch_1.stopped,mouse_3.x,mouse_3.y,mouse_3.leftButton,mouse_3.midButton,mouse_3.rightButton,catchresponse,catchnumber,response_time_catch,response_sum.started,response_sum.stopped,mouse_11.x,mouse_11.y,mouse_11.leftButton,mouse_11.midButton,mouse_11.rightButton,flip_presentation_sequence_for_double_pass.started,flip_presentation_sequence_for_double_pass.stopped,goodbye.started,goodbye.stopped,key_resp_3.keys,key_resp_3.rt,key_resp_3.duration
0.0003,0.0004,657b1a416348a0f16506d066,2024-02-18_23h10.02.824,kallum_motion_pilot,2023.2.2,Win32,59.88023952,657b1a416348a0f16506d066,65d2b6c8f2eece985d8e374c,65d2b858ab9f1aa3eae61f6c,,,,,,,,,,,,,,,,,,,,,,,,,,,,,,,,,,,,,,,,,,,,,,,,,,,,,,,,,,,,,,,,,,,,,,,,,,,,,,,,,,,,,,,,,,,,,,,,,,,,,,,,,,,,,,,,,,,,,,,,,,,,,,,,,,,,,,,,,,,,,,,,,
,,657b1a416348a0f16506d066,2024-02-18_23h10.02.824,kallum_motion_pilot,2023.2.2,Win32,59.88023952,657b1a416348a0f16506d066,65d2b6c8f2eece985d8e374c,65d2b858ab9f1aa3eae61f6c,0.026,0.0261,0,0,0,66,1,twoone,,,,,,,,,,,,,,,,,,,,,,,,,,,,,,,,,,,,,,,,,,,,,,,,,,,,,,,,,,,,,,,,,,,,,,,,,,,,,,,,,,,,,,,,,,,,,,,,,,,,,,,,,,,,,,,,,,,,,,,,,,,,,,,,,,,,,,,,,
,,657b1a416348a0f16506d066,2024-02-18_23h10.02.824,kallum_motion_pilot,2023.2.2,Win32,59.88023952,657b1a416348a0f16506d066,65d2b6c8f2eece985d8e374c,65d2b858ab9f1aa3eae61f6c,0.0262,0.0263,0,1,1,46,1,fourtwo,,,,,,,,,,,,,,,,,,,,,,,,,,,,,,,,,,,,,,,,,,,,,,,,,,,,,,,,,,,,,,,,,,,,,,,,,,,,,,,,,,,,,,,,,,,,,,,,,,,,,,,,,,,,,,,,,,,,,,,,,,,,,,,,,,,,,,,,,
,,657b1a416348a0f16506d066,2024-02-18_23h10.02.824,kallum_motion_pilot,2023.2.2,Win32,59.88023952,657b1a416348a0f16506d066,65d2b6c8f2eece985d8e374c,65d2b858ab9f1aa3eae61f6c,0.0264,0.0264,0,2,2,122,1,sixfive,,,,,,,,,,,,,,,,,,,,,,,,,,,,,,,,,,,,,,,,,,,,,,,,,,,,,,,,,,,,,,,,,,,,,,,,,,,,,,,,,,,,,,,,,,,,,,,,,,,,,,,,,,,,,,,,,,,,,,,,,,,,,,,,,,,,,,,,,
,,657b1a416348a0f16506d066,2024-02-18_23h10.02.824,kallum_motion_pilot,2023.2.2,Win32,59.88023952,657b1a416348a0f16506d066,65d2b6c8f2eece985d8e374c,65d2b858ab9f1aa3eae61f6c,0.0265,0.0265,0,3,3,53,1,threefour,,,,,,,,,,,,,,,,,,,,,,,,,,,,,,,,,,,,,,,,,,,,,,,,,,,,,,,,,,,,,,,,,,,,,,,,,,,,,,,,,,,,,,,,,,,,,,,,,,,,,,,,,,,,,,,,,,,,,,,,,,,,,,,,,,,,,,,,,
,,657b1a416348a0f16506d066,2024-02-18_23h10.02.824,kallum_motion_pilot,2023.2.2,Win32,59.88023952,657b1a416348a0f16506d066,65d2b6c8f2eece985d8e374c,65d2b858ab9f1aa3eae61f6c,0.0266,0.0267,0,4,4,71,1,fourthree,,,,,,,,,,,,,,,,,,,,,,,,,,,,,,,,,,,,,,,,,,,,,,,,,,,,,,,,,,,,,,,,,,,,,,,,,,,,,,,,,,,,,,,,,,,,,,,,,,,,,,,,,,,,,,,,,,,,,,,,,,,,,,,,,,,,,,,,,
,,657b1a416348a0f16506d066,2024-02-18_23h10.02.824,kallum_motion_pilot,2023.2.2,Win32,59.88023952,657b1a416348a0f16506d066,65d2b6c8f2eece985d8e374c,65d2b858ab9f1aa3eae61f6c,0.0268,0.0268,0,5,5,151,1,eightseven,,,,,,,,,,,,,,,,,,,,,,,,,,,,,,,,,,,,,,,,,,,,,,,,,,,,,,,,,,,,,,,,,,,,,,,,,,,,,,,,,,,,,,,,,,,,,,,,,,,,,,,,,,,,,,,,,,,,,,,,,,,,,,,,,,,,,,,,,
,,657b1a416348a0f16506d066,2024-02-18_23h10.02.824,kallum_motion_pilot,2023.2.2,Win32,59.88023952,657b1a416348a0f16506d066,65d2b6c8f2eece985d8e374c,65d2b858ab9f1aa3eae61f6c,0.0268,0.0268,0,6,6,89,1,fiveseven,,,,,,,,,,,,,,,,,,,,,,,,,,,,,,,,,,,,,,,,,,,,,,,,,,,,,,,,,,,,,,,,,,,,,,,,,,,,,,,,,,,,,,,,,,,,,,,,,,,,,,,,,,,,,,,,,,,,,,,,,,,,,,,,,,,,,,,,,
,,657b1a416348a0f16506d066,2024-02-18_23h10.02.824,kallum_motion_pilot,2023.2.2,Win32,59.88023952,657b1a416348a0f16506d066,65d2b6c8f2eece985d8e374c,65d2b858ab9f1aa3eae61f6c,0.0269,0.0269,0,7,7,136,1,fivesix,,,,,,,,,,,,,,,,,,,,,,,,,,,,,,,,,,,,,,,,,,,,,,,,,,,,,,,,,,,,,,,,,,,,,,,,,,,,,,,,,,,,,,,,,,,,,,,,,,,,,,,,,,,,,,,,,,,,,,,,,,,,,,,,,,,,,,,,,
,,657b1a416348a0f16506d066,2024-02-18_23h10.02.824,kallum_motion_pilot,2023.2.2,Win32,59.88023952,657b1a416348a0f16506d066,65d2b6c8f2eece985d8e374c,65d2b858ab9f1aa3eae61f6c,0.027,0.027,0,8,8,124,1,sevenfive,,,,,,,,,,,,,,,,,,,,,,,,,,,,,,,,,,,,,,,,,,,,,,,,,,,,,,,,,,,,,,,,,,,,,,,,,,,,,,,,,,,,,,,,,,,,,,,,,,,,,,,,,,,,,,,,,,,,,,,,,,,,,,,,,,,,,,,,,
,,657b1a416348a0f16506d066,2024-02-18_23h10.02.824,kallum_motion_pilot,2023.2.2,Win32,59.88023952,657b1a416348a0f16506d066,65d2b6c8f2eece985d8e374c,65d2b858ab9f1aa3eae61f6c,0.0272,0.0272,0,9,9,41,1,onethree,,,,,,,,,,,,,,,,,,,,,,,,,,,,,,,,,,,,,,,,,,,,,,,,,,,,,,,,,,,,,,,,,,,,,,,,,,,,,,,,,,,,,,,,,,,,,,,,,,,,,,,,,,,,,,,,,,,,,,,,,,,,,,,,,,,,,,,,,
,,657b1a416348a0f16506d066,2024-02-18_23h10.02.824,kallum_motion_pilot,2023.2.2,Win32,59.88023952,657b1a416348a0f16506d066,65d2b6c8f2eece985d8e374c,65d2b858ab9f1aa3eae61f6c,0.0273,0.0273,0,10,10,45,1,threefour,,,,,,,,,,,,,,,,,,,,,,,,,,,,,,,,,,,,,,,,,,,,,,,,,,,,,,,,,,,,,,,,,,,,,,,,,,,,,,,,,,,,,,,,,,,,,,,,,,,,,,,,,,,,,,,,,,,,,,,,,,,,,,,,,,,,,,,,,
,,657b1a416348a0f16506d066,2024-02-18_23h10.02.824,kallum_motion_pilot,2023.2.2,Win32,59.88023952,657b1a416348a0f16506d066,65d2b6c8f2eece985d8e374c,65d2b858ab9f1aa3eae61f6c,0.0273,0.0273,0,11,11,19,1,twofour,,,,,,,,,,,,,,,,,,,,,,,,,,,,,,,,,,,,,,,,,,,,,,,,,,,,,,,,,,,,,,,,,,,,,,,,,,,,,,,,,,,,,,,,,,,,,,,,,,,,,,,,,,,,,,,,,,,,,,,,,,,,,,,,,,,,,,,,,
,,657b1a416348a0f16506d066,2024-02-18_23h10.02.824,kallum_motion_pilot,2023.2.2,Win32,59.88023952,657b1a416348a0f16506d066,65d2b6c8f2eece985d8e374c,65d2b858ab9f1aa3eae61f6c,0.0274,0.0275,0,12,12,154,1,sixfive,,,,,,,,,,,,,,,,,,,,,,,,,,,,,,,,,,,,,,,,,,,,,,,,,,,,,,,,,,,,,,,,,,,,,,,,,,,,,,,,,,,,,,,,,,,,,,,,,,,,,,,,,,,,,,,,,,,,,,,,,,,,,,,,,,,,,,,,,
,,657b1a416348a0f16506d066,2024-02-18_23h10.02.824,kallum_motion_pilot,2023.2.2,Win32,59.88023952,657b1a416348a0f16506d066,65d2b6c8f2eece985d8e374c,65d2b858ab9f1aa3eae61f6c,0.0275,0.0275,0,13,13,114,1,sixfive,,,,,,,,,,,,,,,,,,,,,,,,,,,,,,,,,,,,,,,,,,,,,,,,,,,,,,,,,,,,,,,,,,,,,,,,,,,,,,,,,,,,,,,,,,,,,,,,,,,,,,,,,,,,,,,,,,,,,,,,,,,,,,,,,,,,,,,,,
,,657b1a416348a0f16506d066,2024-02-18_23h10.02.824,kallum_motion_pilot,2023.2.2,Win32,59.88023952,657b1a416348a0f16506d066,65d2b6c8f2eece985d8e374c,65d2b858ab9f1aa3eae61f6c,0.0276,0.0276,0,14,14,47,1,fourthree,,,,,,,,,,,,,,,,,,,,,,,,,,,,,,,,,,,,,,,,,,,,,,,,,,,,,,,,,,,,,,,,,,,,,,,,,,,,,,,,,,,,,,,,,,,,,,,,,,,,,,,,,,,,,,,,,,,,,,,,,,,,,,,,,,,,,,,,,
,,657b1a416348a0f16506d066,2024-02-18_23h10.02.824,kallum_motion_pilot,2023.2.2,Win32,59.88023952,657b1a416348a0f16506d066,65d2b6c8f2eece985d8e374c,65d2b858ab9f1aa3eae61f6c,0.0276,0.0276,0,15,15,70,1,fourtwo,,,,,,,,,,,,,,,,,,,,,,,,,,,,,,,,,,,,,,,,,,,,,,,,,,,,,,,,,,,,,,,,,,,,,,,,,,,,,,,,,,,,,,,,,,,,,,,,,,,,,,,,,,,,,,,,,,,,,,,,,,,,,,,,,,,,,,,,,
,,657b1a416348a0f16506d066,2024-02-18_23h10.02.824,kallum_motion_pilot,2023.2.2,Win32,59.88023952,657b1a416348a0f16506d066,65d2b6c8f2eece985d8e374c,65d2b858ab9f1aa3eae61f6c,0.0278,0.0278,0,16,16,14,1,fourtwo,,,,,,,,,,,,,,,,,,,,,,,,,,,,,,,,,,,,,,,,,,,,,,,,,,,,,,,,,,,,,,,,,,,,,,,,,,,,,,,,,,,,,,,,,,,,,,,,,,,,,,,,,,,,,,,,,,,,,,,,,,,,,,,,,,,,,,,,,
,,657b1a416348a0f16506d066,2024-02-18_23h10.02.824,kallum_motion_pilot,2023.2.2,Win32,59.88023952,657b1a416348a0f16506d066,65d2b6c8f2eece985d8e374c,65d2b858ab9f1aa3eae61f6c,0.0278,0.0278,0,17,17,43,1,twofour,,,,,,,,,,,,,,,,,,,,,,,,,,,,,,,,,,,,,,,,,,,,,,,,,,,,,,,,,,,,,,,,,,,,,,,,,,,,,,,,,,,,,,,,,,,,,,,,,,,,,,,,,,,,,,,,,,,,,,,,,,,,,,,,,,,,,,,,,
,,657b1a416348a0f16506d066,2024-02-18_23h10.02.824,kallum_motion_pilot,2023.2.2,Win32,59.88023952,657b1a416348a0f16506d066,65d2b6c8f2eece985d8e374c,65d2b858ab9f1aa3eae61f6c,0.0279,0.0279,0,18,18,117,1,seveneight,,,,,,,,,,,,,,,,,,,,,,,,,,,,,,,,,,,,,,,,,,,,,,,,,,,,,,,,,,,,,,,,,,,,,,,,,,,,,,,,,,,,,,,,,,,,,,,,,,,,,,,,,,,,,,,,,,,,,,,,,,,,,,,,,,,,,,,,,
,,657b1a416348a0f16506d066,2024-02-18_23h10.02.824,kallum_motion_pilot,2023.2.2,Win32,59.88023952,657b1a416348a0f16506d066,65d2b6c8f2eece985d8e374c,65d2b858ab9f1aa3eae61f6c,0.028,0.028,0,19,19,33,1,onethree,,,,,,,,,,,,,,,,,,,,,,,,,,,,,,,,,,,,,,,,,,,,,,,,,,,,,,,,,,,,,,,,,,,,,,,,,,,,,,,,,,,,,,,,,,,,,,,,,,,,,,,,,,,,,,,,,,,,,,,,,,,,,,,,,,,,,,,,,
,,657b1a416348a0f16506d066,2024-02-18_23h10.02.824,kallum_motion_pilot,2023.2.2,Win32,59.88023952,657b1a416348a0f16506d066,65d2b6c8f2eece985d8e374c,65d2b858ab9f1aa3eae61f6c,0.0281,0.0281,0,20,20,18,1,twoone,,,,,,,,,,,,,,,,,,,,,,,,,,,,,,,,,,,,,,,,,,,,,,,,,,,,,,,,,,,,,,,,,,,,,,,,,,,,,,,,,,,,,,,,,,,,,,,,,,,,,,,,,,,,,,,,,,,,,,,,,,,,,,,,,,,,,,,,,
,,657b1a416348a0f16506d066,2024-02-18_23h10.02.824,kallum_motion_pilot,2023.2.2,Win32,59.88023952,657b1a416348a0f16506d066,65d2b6c8f2eece985d8e374c,65d2b858ab9f1aa3eae61f6c,0.0281,0.0282,0,21,21,31,1,fourthree,,,,,,,,,,,,,,,,,,,,,,,,,,,,,,,,,,,,,,,,,,,,,,,,,,,,,,,,,,,,,,,,,,,,,,,,,,,,,,,,,,,,,,,,,,,,,,,,,,,,,,,,,,,,,,,,,,,,,,,,,,,,,,,,,,,,,,,,,
,,657b1a416348a0f16506d066,2024-02-18_23h10.02.824,kallum_motion_pilot,2023.2.2,Win32,59.88023952,657b1a416348a0f16506d066,65d2b6c8f2eece985d8e374c,65d2b858ab9f1aa3eae61f6c,0.0283,0.0283,0,22,22,140,1,sevenfive,,,,,,,,,,,,,,,,,,,,,,,,,,,,,,,,,,,,,,,,,,,,,,,,,,,,,,,,,,,,,,,,,,,,,,,,,,,,,,,,,,,,,,,,,,,,,,,,,,,,,,,,,,,,,,,,,,,,,,,,,,,,,,,,,,,,,,,,,
,,657b1a416348a0f16506d066,2024-02-18_23h10.02.824,kallum_motion_pilot,2023.2.2,Win32,59.88023952,657b1a416348a0f16506d066,65d2b6c8f2eece985d8e374c,65d2b858ab9f1aa3eae61f6c,0.0283,0.0284,0,23,23,23,1,fourthree,,,,,,,,,,,,,,,,,,,,,,,,,,,,,,,,,,,,,,,,,,,,,,,,,,,,,,,,,,,,,,,,,,,,,,,,,,,,,,,,,,,,,,,,,,,,,,,,,,,,,,,,,,,,,,,,,,,,,,,,,,,,,,,,,,,,,,,,,
,,657b1a416348a0f16506d066,2024-02-18_23h10.02.824,kallum_motion_pilot,2023.2.2,Win32,59.88023952,657b1a416348a0f16506d066,65d2b6c8f2eece985d8e374c,65d2b858ab9f1aa3eae61f6c,0.0284,0.0285,0,24,24,12,1,threeone,,,,,,,,,,,,,,,,,,,,,,,,,,,,,,,,,,,,,,,,,,,,,,,,,,,,,,,,,,,,,,,,,,,,,,,,,,,,,,,,,,,,,,,,,,,,,,,,,,,,,,,,,,,,,,,,,,,,,,,,,,,,,,,,,,,,,,,,,
,,657b1a416348a0f16506d066,2024-02-18_23h10.02.824,kallum_motion_pilot,2023.2.2,Win32,59.88023952,657b1a416348a0f16506d066,65d2b6c8f2eece985d8e374c,65d2b858ab9f1aa3eae61f6c,0.0286,0.0286,0,25,25,147,1,sixeight,,,,,,,,,,,,,,,,,,,,,,,,,,,,,,,,,,,,,,,,,,,,,,,,,,,,,,,,,,,,,,,,,,,,,,,,,,,,,,,,,,,,,,,,,,,,,,,,,,,,,,,,,,,,,,,,,,,,,,,,,,,,,,,,,,,,,,,,,
,,657b1a416348a0f16506d066,2024-02-18_23h10.02.824,kallum_motion_pilot,2023.2.2,Win32,59.88023952,657b1a416348a0f16506d066,65d2b6c8f2eece985d8e374c,65d2b858ab9f1aa3eae61f6c,0.0286,0.0286,0,26,26,34,1,twoone,,,,,,,,,,,,,,,,,,,,,,,,,,,,,,,,,,,,,,,,,,,,,,,,,,,,,,,,,,,,,,,,,,,,,,,,,,,,,,,,,,,,,,,,,,,,,,,,,,,,,,,,,,,,,,,,,,,,,,,,,,,,,,,,,,,,,,,,,
,,657b1a416348a0f16506d066,2024-02-18_23h10.02.824,kallum_motion_pilot,2023.2.2,Win32,59.88023952,657b1a416348a0f16506d066,65d2b6c8f2eece985d8e374c,65d2b858ab9f1aa3eae61f6c,0.0287,0.0287,0,27,27,32,1,onetwo,,,,,,,,,,,,,,,,,,,,,,,,,,,,,,,,,,,,,,,,,,,,,,,,,,,,,,,,,,,,,,,,,,,,,,,,,,,,,,,,,,,,,,,,,,,,,,,,,,,,,,,,,,,,,,,,,,,,,,,,,,,,,,,,,,,,,,,,,
,,657b1a416348a0f16506d066,2024-02-18_23h10.02.824,kallum_motion_pilot,2023.2.2,Win32,59.88023952,657b1a416348a0f16506d066,65d2b6c8f2eece985d8e374c,65d2b858ab9f1aa3eae61f6c,0.0288,0.0288,0,28,28,74,1,twoone,,,,,,,,,,,,,,,,,,,,,,,,,,,,,,,,,,,,,,,,,,,,,,,,,,,,,,,,,,,,,,,,,,,,,,,,,,,,,,,,,,,,,,,,,,,,,,,,,,,,,,,,,,,,,,,,,,,,,,,,,,,,,,,,,,,,,,,,,
,,657b1a416348a0f16506d066,2024-02-18_23h10.02.824,kallum_motion_pilot,2023.2.2,Win32,59.88023952,657b1a416348a0f16506d066,65d2b6c8f2eece985d8e374c,65d2b858ab9f1aa3eae61f6c,0.0289,0.0289,0,29,29,24,1,onetwo,,,,,,,,,,,,,,,,,,,,,,,,,,,,,,,,,,,,,,,,,,,,,,,,,,,,,,,,,,,,,,,,,,,,,,,,,,,,,,,,,,,,,,,,,,,,,,,,,,,,,,,,,,,,,,,,,,,,,,,,,,,,,,,,,,,,,,,,,
,,657b1a416348a0f16506d066,2024-02-18_23h10.02.824,kallum_motion_pilot,2023.2.2,Win32,59.88023952,657b1a416348a0f16506d066,65d2b6c8f2eece985d8e374c,65d2b858ab9f1aa3eae61f6c,0.029,0.029,0,30,30,153,1,fiveseven,,,,,,,,,,,,,,,,,,,,,,,,,,,,,,,,,,,,,,,,,,,,,,,,,,,,,,,,,,,,,,,,,,,,,,,,,,,,,,,,,,,,,,,,,,,,,,,,,,,,,,,,,,,,,,,,,,,,,,,,,,,,,,,,,,,,,,,,,
,,657b1a416348a0f16506d066,2024-02-18_23h10.02.824,kallum_motion_pilot,2023.2.2,Win32,59.88023952,657b1a416348a0f16506d066,65d2b6c8f2eece985d8e374c,65d2b858ab9f1aa3eae61f6c,0.029,0.029,0,31,31,0,1,onetwo,,,,,,,,,,,,,,,,,,,,,,,,,,,,,,,,,,,,,,,,,,,,,,,,,,,,,,,,,,,,,,,,,,,,,,,,,,,,,,,,,,,,,,,,,,,,,,,,,,,,,,,,,,,,,,,,,,,,,,,,,,,,,,,,,,,,,,,,,
,,657b1a416348a0f16506d066,2024-02-18_23h10.02.824,kallum_motion_pilot,2023.2.2,Win32,59.88023952,657b1a416348a0f16506d066,65d2b6c8f2eece985d8e374c,65d2b858ab9f1aa3eae61f6c,0.0291,0.0291,0,32,32,76,1,threeone,,,,,,,,,,,,,,,,,,,,,,,,,,,,,,,,,,,,,,,,,,,,,,,,,,,,,,,,,,,,,,,,,,,,,,,,,,,,,,,,,,,,,,,,,,,,,,,,,,,,,,,,,,,,,,,,,,,,,,,,,,,,,,,,,,,,,,,,,
,,657b1a416348a0f16506d066,2024-02-18_23h10.02.824,kallum_motion_pilot,2023.2.2,Win32,59.88023952,657b1a416348a0f16506d066,65d2b6c8f2eece985d8e374c,65d2b858ab9f1aa3eae61f6c,0.0292,0.0292,0,33,33,127,1,eightseven,,,,,,,,,,,,,,,,,,,,,,,,,,,,,,,,,,,,,,,,,,,,,,,,,,,,,,,,,,,,,,,,,,,,,,,,,,,,,,,,,,,,,,,,,,,,,,,,,,,,,,,,,,,,,,,,,,,,,,,,,,,,,,,,,,,,,,,,,
,,657b1a416348a0f16506d066,2024-02-18_23h10.02.824,kallum_motion_pilot,2023.2.2,Win32,59.88023952,657b1a416348a0f16506d066,65d2b6c8f2eece985d8e374c,65d2b858ab9f1aa3eae61f6c,0.0293,0.0293,0,34,34,73,1,onethree,,,,,,,,,,,,,,,,,,,,,,,,,,,,,,,,,,,,,,,,,,,,,,,,,,,,,,,,,,,,,,,,,,,,,,,,,,,,,,,,,,,,,,,,,,,,,,,,,,,,,,,,,,,,,,,,,,,,,,,,,,,,,,,,,,,,,,,,,
,,657b1a416348a0f16506d066,2024-02-18_23h10.02.824,kallum_motion_pilot,2023.2.2,Win32,59.88023952,657b1a416348a0f16506d066,65d2b6c8f2eece985d8e374c,65d2b858ab9f1aa3eae61f6c,0.0294,0.0294,0,35,35,93,1,seveneight,,,,,,,,,,,,,,,,,,,,,,,,,,,,,,,,,,,,,,,,,,,,,,,,,,,,,,,,,,,,,,,,,,,,,,,,,,,,,,,,,,,,,,,,,,,,,,,,,,,,,,,,,,,,,,,,,,,,,,,,,,,,,,,,,,,,,,,,,
,,657b1a416348a0f16506d066,2024-02-18_23h10.02.824,kallum_motion_pilot,2023.2.2,Win32,59.88023952,657b1a416348a0f16506d066,65d2b6c8f2eece985d8e374c,65d2b858ab9f1aa3eae61f6c,0.0295,0.0295,0,36,36,69,1,threefour,,,,,,,,,,,,,,,,,,,,,,,,,,,,,,,,,,,,,,,,,,,,,,,,,,,,,,,,,,,,,,,,,,,,,,,,,,,,,,,,,,,,,,,,,,,,,,,,,,,,,,,,,,,,,,,,,,,,,,,,,,,,,,,,,,,,,,,,,
,,657b1a416348a0f16506d066,2024-02-18_23h10.02.824,kallum_motion_pilot,2023.2.2,Win32,59.88023952,657b1a416348a0f16506d066,65d2b6c8f2eece985d8e374c,65d2b858ab9f1aa3eae61f6c,0.0295,0.0295,0,37,37,85,1,seveneight,,,,,,,,,,,,,,,,,,,,,,,,,,,,,,,,,,,,,,,,,,,,,,,,,,,,,,,,,,,,,,,,,,,,,,,,,,,,,,,,,,,,,,,,,,,,,,,,,,,,,,,,,,,,,,,,,,,,,,,,,,,,,,,,,,,,,,,,,
,,657b1a416348a0f16506d066,2024-02-18_23h10.02.824,kallum_motion_pilot,2023.2.2,Win32,59.88023952,657b1a416348a0f16506d066,65d2b6c8f2eece985d8e374c,65d2b858ab9f1aa3eae61f6c,0.0296,0.0296,0,38,38,15,1,fourthree,,,,,,,,,,,,,,,,,,,,,,,,,,,,,,,,,,,,,,,,,,,,,,,,,,,,,,,,,,,,,,,,,,,,,,,,,,,,,,,,,,,,,,,,,,,,,,,,,,,,,,,,,,,,,,,,,,,,,,,,,,,,,,,,,,,,,,,,,
,,657b1a416348a0f16506d066,2024-02-18_23h10.02.824,kallum_motion_pilot,2023.2.2,Win32,59.88023952,657b1a416348a0f16506d066,65d2b6c8f2eece985d8e374c,65d2b858ab9f1aa3eae61f6c,0.0297,0.0297,0,39,39,67,1,twofour,,,,,,,,,,,,,,,,,,,,,,,,,,,,,,,,,,,,,,,,,,,,,,,,,,,,,,,,,,,,,,,,,,,,,,,,,,,,,,,,,,,,,,,,,,,,,,,,,,,,,,,,,,,,,,,,,,,,,,,,,,,,,,,,,,,,,,,,,
,,657b1a416348a0f16506d066,2024-02-18_23h10.02.824,kallum_motion_pilot,2023.2.2,Win32,59.88023952,657b1a416348a0f16506d066,65d2b6c8f2eece985d8e374c,65d2b858ab9f1aa3eae61f6c,0.0298,0.0298,0,40,40,63,1,fourthree,,,,,,,,,,,,,,,,,,,,,,,,,,,,,,,,,,,,,,,,,,,,,,,,,,,,,,,,,,,,,,,,,,,,,,,,,,,,,,,,,,,,,,,,,,,,,,,,,,,,,,,,,,,,,,,,,,,,,,,,,,,,,,,,,,,,,,,,,
,,657b1a416348a0f16506d066,2024-02-18_23h10.02.824,kallum_motion_pilot,2023.2.2,Win32,59.88023952,657b1a416348a0f16506d066,65d2b6c8f2eece985d8e374c,65d2b858ab9f1aa3eae61f6c,0.0298,0.0298,0,41,41,125,1,seveneight,,,,,,,,,,,,,,,,,,,,,,,,,,,,,,,,,,,,,,,,,,,,,,,,,,,,,,,,,,,,,,,,,,,,,,,,,,,,,,,,,,,,,,,,,,,,,,,,,,,,,,,,,,,,,,,,,,,,,,,,,,,,,,,,,,,,,,,,,
,,657b1a416348a0f16506d066,2024-02-18_23h10.02.824,kallum_motion_pilot,2023.2.2,Win32,59.88023952,657b1a416348a0f16506d066,65d2b6c8f2eece985d8e374c,65d2b858ab9f1aa3eae61f6c,0.03,0.03,0,42,42,130,1,sixfive,,,,,,,,,,,,,,,,,,,,,,,,,,,,,,,,,,,,,,,,,,,,,,,,,,,,,,,,,,,,,,,,,,,,,,,,,,,,,,,,,,,,,,,,,,,,,,,,,,,,,,,,,,,,,,,,,,,,,,,,,,,,,,,,,,,,,,,,,
,,657b1a416348a0f16506d066,2024-02-18_23h10.02.824,kallum_motion_pilot,2023.2.2,Win32,59.88023952,657b1a416348a0f16506d066,65d2b6c8f2eece985d8e374c,65d2b858ab9f1aa3eae61f6c,0.03,0.03,0,43,43,150,1,eightsix,,,,,,,,,,,,,,,,,,,,,,,,,,,,,,,,,,,,,,,,,,,,,,,,,,,,,,,,,,,,,,,,,,,,,,,,,,,,,,,,,,,,,,,,,,,,,,,,,,,,,,,,,,,,,,,,,,,,,,,,,,,,,,,,,,,,,,,,,
,,657b1a416348a0f16506d066,2024-02-18_23h10.02.824,kallum_motion_pilot,2023.2.2,Win32,59.88023952,657b1a416348a0f16506d066,65d2b6c8f2eece985d8e374c,65d2b858ab9f1aa3eae61f6c,0.0302,0.0302,0,44,44,77,1,threefour,,,,,,,,,,,,,,,,,,,,,,,,,,,,,,,,,,,,,,,,,,,,,,,,,,,,,,,,,,,,,,,,,,,,,,,,,,,,,,,,,,,,,,,,,,,,,,,,,,,,,,,,,,,,,,,,,,,,,,,,,,,,,,,,,,,,,,,,,
,,657b1a416348a0f16506d066,2024-02-18_23h10.02.824,kallum_motion_pilot,2023.2.2,Win32,59.88023952,657b1a416348a0f16506d066,65d2b6c8f2eece985d8e374c,65d2b858ab9f1aa3eae61f6c,0.0303,0.0303,0,45,45,97,1,fiveseven,,,,,,,,,,,,,,,,,,,,,,,,,,,,,,,,,,,,,,,,,,,,,,,,,,,,,,,,,,,,,,,,,,,,,,,,,,,,,,,,,,,,,,,,,,,,,,,,,,,,,,,,,,,,,,,,,,,,,,,,,,,,,,,,,,,,,,,,,
,,657b1a416348a0f16506d066,2024-02-18_23h10.02.824,kallum_motion_pilot,2023.2.2,Win32,59.88023952,657b1a416348a0f16506d066,65d2b6c8f2eece985d8e374c,65d2b858ab9f1aa3eae61f6c,0.0303,0.0303,0,46,46,106,1,sixfive,,,,,,,,,,,,,,,,,,,,,,,,,,,,,,,,,,,,,,,,,,,,,,,,,,,,,,,,,,,,,,,,,,,,,,,,,,,,,,,,,,,,,,,,,,,,,,,,,,,,,,,,,,,,,,,,,,,,,,,,,,,,,,,,,,,,,,,,,
,,657b1a416348a0f16506d066,2024-02-18_23h10.02.824,kallum_motion_pilot,2023.2.2,Win32,59.88023952,657b1a416348a0f16506d066,65d2b6c8f2eece985d8e374c,65d2b858ab9f1aa3eae61f6c,0.0304,0.0304,0,47,47,49,1,onethree,,,,,,,,,,,,,,,,,,,,,,,,,,,,,,,,,,,,,,,,,,,,,,,,,,,,,,,,,,,,,,,,,,,,,,,,,,,,,,,,,,,,,,,,,,,,,,,,,,,,,,,,,,,,,,,,,,,,,,,,,,,,,,,,,,,,,,,,,
,,657b1a416348a0f16506d066,2024-02-18_23h10.02.824,kallum_motion_pilot,2023.2.2,Win32,59.88023952,657b1a416348a0f16506d066,65d2b6c8f2eece985d8e374c,65d2b858ab9f1aa3eae61f6c,0.0305,0.0305,0,48,48,65,1,onethree,,,,,,,,,,,,,,,,,,,,,,,,,,,,,,,,,,,,,,,,,,,,,,,,,,,,,,,,,,,,,,,,,,,,,,,,,,,,,,,,,,,,,,,,,,,,,,,,,,,,,,,,,,,,,,,,,,,,,,,,,,,,,,,,,,,,,,,,,
,,657b1a416348a0f16506d066,2024-02-18_23h10.02.824,kallum_motion_pilot,2023.2.2,Win32,59.88023952,657b1a416348a0f16506d066,65d2b6c8f2eece985d8e374c,65d2b858ab9f1aa3eae61f6c,0.0305,0.0306,0,49,49,50,1,twoone,,,,,,,,,,,,,,,,,,,,,,,,,,,,,,,,,,,,,,,,,,,,,,,,,,,,,,,,,,,,,,,,,,,,,,,,,,,,,,,,,,,,,,,,,,,,,,,,,,,,,,,,,,,,,,,,,,,,,,,,,,,,,,,,,,,,,,,,,
,,657b1a416348a0f16506d066,2024-02-18_23h10.02.824,kallum_motion_pilot,2023.2.2,Win32,59.88023952,657b1a416348a0f16506d066,65d2b6c8f2eece985d8e374c,65d2b858ab9f1aa3eae61f6c,0.0307,0.0307,0,50,50,155,1,sixeight,,,,,,,,,,,,,,,,,,,,,,,,,,,,,,,,,,,,,,,,,,,,,,,,,,,,,,,,,,,,,,,,,,,,,,,,,,,,,,,,,,,,,,,,,,,,,,,,,,,,,,,,,,,,,,,,,,,,,,,,,,,,,,,,,,,,,,,,,
,,657b1a416348a0f16506d066,2024-02-18_23h10.02.824,kallum_motion_pilot,2023.2.2,Win32,59.88023952,657b1a416348a0f16506d066,65d2b6c8f2eece985d8e374c,65d2b858ab9f1aa3eae61f6c,0.0308,0.0308,0,51,51,88,1,fivesix,,,,,,,,,,,,,,,,,,,,,,,,,,,,,,,,,,,,,,,,,,,,,,,,,,,,,,,,,,,,,,,,,,,,,,,,,,,,,,,,,,,,,,,,,,,,,,,,,,,,,,,,,,,,,,,,,,,,,,,,,,,,,,,,,,,,,,,,,
,,657b1a416348a0f16506d066,2024-02-18_23h10.02.824,kallum_motion_pilot,2023.2.2,Win32,59.88023952,657b1a416348a0f16506d066,65d2b6c8f2eece985d8e374c,65d2b858ab9f1aa3eae61f6c,0.0308,0.0309,0,52,52,21,1,threefour,,,,,,,,,,,,,,,,,,,,,,,,,,,,,,,,,,,,,,,,,,,,,,,,,,,,,,,,,,,,,,,,,,,,,,,,,,,,,,,,,,,,,,,,,,,,,,,,,,,,,,,,,,,,,,,,,,,,,,,,,,,,,,,,,,,,,,,,,
,,657b1a416348a0f16506d066,2024-02-18_23h10.02.824,kallum_motion_pilot,2023.2.2,Win32,59.88023952,657b1a416348a0f16506d066,65d2b6c8f2eece985d8e374c,65d2b858ab9f1aa3eae61f6c,0.0309,0.0309,0,53,53,123,1,sixeight,,,,,,,,,,,,,,,,,,,,,,,,,,,,,,,,,,,,,,,,,,,,,,,,,,,,,,,,,,,,,,,,,,,,,,,,,,,,,,,,,,,,,,,,,,,,,,,,,,,,,,,,,,,,,,,,,,,,,,,,,,,,,,,,,,,,,,,,,
,,657b1a416348a0f16506d066,2024-02-18_23h10.02.824,kallum_motion_pilot,2023.2.2,Win32,59.88023952,657b1a416348a0f16506d066,65d2b6c8f2eece985d8e374c,65d2b858ab9f1aa3eae61f6c,0.031,0.031,0,54,54,94,1,eightsix,,,,,,,,,,,,,,,,,,,,,,,,,,,,,,,,,,,,,,,,,,,,,,,,,,,,,,,,,,,,,,,,,,,,,,,,,,,,,,,,,,,,,,,,,,,,,,,,,,,,,,,,,,,,,,,,,,,,,,,,,,,,,,,,,,,,,,,,,
,,657b1a416348a0f16506d066,2024-02-18_23h10.02.824,kallum_motion_pilot,2023.2.2,Win32,59.88023952,657b1a416348a0f16506d066,65d2b6c8f2eece985d8e374c,65d2b858ab9f1aa3eae61f6c,0.0311,0.0312,0,55,55,36,1,threeone,,,,,,,,,,,,,,,,,,,,,,,,,,,,,,,,,,,,,,,,,,,,,,,,,,,,,,,,,,,,,,,,,,,,,,,,,,,,,,,,,,,,,,,,,,,,,,,,,,,,,,,,,,,,,,,,,,,,,,,,,,,,,,,,,,,,,,,,,
,,657b1a416348a0f16506d066,2024-02-18_23h10.02.824,kallum_motion_pilot,2023.2.2,Win32,59.88023952,657b1a416348a0f16506d066,65d2b6c8f2eece985d8e374c,65d2b858ab9f1aa3eae61f6c,0.0312,0.0312,0,56,56,38,1,fourtwo,,,,,,,,,,,,,,,,,,,,,,,,,,,,,,,,,,,,,,,,,,,,,,,,,,,,,,,,,,,,,,,,,,,,,,,,,,,,,,,,,,,,,,,,,,,,,,,,,,,,,,,,,,,,,,,,,,,,,,,,,,,,,,,,,,,,,,,,,
,,657b1a416348a0f16506d066,2024-02-18_23h10.02.824,kallum_motion_pilot,2023.2.2,Win32,59.88023952,657b1a416348a0f16506d066,65d2b6c8f2eece985d8e374c,65d2b858ab9f1aa3eae61f6c,0.0313,0.0313,0,57,57,143,1,eightseven,,,,,,,,,,,,,,,,,,,,,,,,,,,,,,,,,,,,,,,,,,,,,,,,,,,,,,,,,,,,,,,,,,,,,,,,,,,,,,,,,,,,,,,,,,,,,,,,,,,,,,,,,,,,,,,,,,,,,,,,,,,,,,,,,,,,,,,,,
,,657b1a416348a0f16506d066,2024-02-18_23h10.02.824,kallum_motion_pilot,2023.2.2,Win32,59.88023952,657b1a416348a0f16506d066,65d2b6c8f2eece985d8e374c,65d2b858ab9f1aa3eae61f6c,0.0314,0.0314,0,58,58,146,1,sixfive,,,,,,,,,,,,,,,,,,,,,,,,,,,,,,,,,,,,,,,,,,,,,,,,,,,,,,,,,,,,,,,,,,,,,,,,,,,,,,,,,,,,,,,,,,,,,,,,,,,,,,,,,,,,,,,,,,,,,,,,,,,,,,,,,,,,,,,,,
,,657b1a416348a0f16506d066,2024-02-18_23h10.02.824,kallum_motion_pilot,2023.2.2,Win32,59.88023952,657b1a416348a0f16506d066,65d2b6c8f2eece985d8e374c,65d2b858ab9f1aa3eae61f6c,0.0314,0.0315,0,59,59,87,1,eightseven,,,,,,,,,,,,,,,,,,,,,,,,,,,,,,,,,,,,,,,,,,,,,,,,,,,,,,,,,,,,,,,,,,,,,,,,,,,,,,,,,,,,,,,,,,,,,,,,,,,,,,,,,,,,,,,,,,,,,,,,,,,,,,,,,,,,,,,,,
,,657b1a416348a0f16506d066,2024-02-18_23h10.02.824,kallum_motion_pilot,2023.2.2,Win32,59.88023952,657b1a416348a0f16506d066,65d2b6c8f2eece985d8e374c,65d2b858ab9f1aa3eae61f6c,0.0315,0.0316,0,60,60,144,1,fivesix,,,,,,,,,,,,,,,,,,,,,,,,,,,,,,,,,,,,,,,,,,,,,,,,,,,,,,,,,,,,,,,,,,,,,,,,,,,,,,,,,,,,,,,,,,,,,,,,,,,,,,,,,,,,,,,,,,,,,,,,,,,,,,,,,,,,,,,,,
,,657b1a416348a0f16506d066,2024-02-18_23h10.02.824,kallum_motion_pilot,2023.2.2,Win32,59.88023952,657b1a416348a0f16506d066,65d2b6c8f2eece985d8e374c,65d2b858ab9f1aa3eae61f6c,0.0316,0.0317,0,61,61,134,1,eightsix,,,,,,,,,,,,,,,,,,,,,,,,,,,,,,,,,,,,,,,,,,,,,,,,,,,,,,,,,,,,,,,,,,,,,,,,,,,,,,,,,,,,,,,,,,,,,,,,,,,,,,,,,,,,,,,,,,,,,,,,,,,,,,,,,,,,,,,,,
,,657b1a416348a0f16506d066,2024-02-18_23h10.02.824,kallum_motion_pilot,2023.2.2,Win32,59.88023952,657b1a416348a0f16506d066,65d2b6c8f2eece985d8e374c,65d2b858ab9f1aa3eae61f6c,0.0318,0.0318,0,62,62,126,1,eightsix,,,,,,,,,,,,,,,,,,,,,,,,,,,,,,,,,,,,,,,,,,,,,,,,,,,,,,,,,,,,,,,,,,,,,,,,,,,,,,,,,,,,,,,,,,,,,,,,,,,,,,,,,,,,,,,,,,,,,,,,,,,,,,,,,,,,,,,,,
,,657b1a416348a0f16506d066,2024-02-18_23h10.02.824,kallum_motion_pilot,2023.2.2,Win32,59.88023952,657b1a416348a0f16506d066,65d2b6c8f2eece985d8e374c,65d2b858ab9f1aa3eae61f6c,0.0318,0.0318,0,63,63,58,1,twoone,,,,,,,,,,,,,,,,,,,,,,,,,,,,,,,,,,,,,,,,,,,,,,,,,,,,,,,,,,,,,,,,,,,,,,,,,,,,,,,,,,,,,,,,,,,,,,,,,,,,,,,,,,,,,,,,,,,,,,,,,,,,,,,,,,,,,,,,,
,,657b1a416348a0f16506d066,2024-02-18_23h10.02.824,kallum_motion_pilot,2023.2.2,Win32,59.88023952,657b1a416348a0f16506d066,65d2b6c8f2eece985d8e374c,65d2b858ab9f1aa3eae61f6c,0.0319,0.032,0,64,64,17,1,onethree,,,,,,,,,,,,,,,,,,,,,,,,,,,,,,,,,,,,,,,,,,,,,,,,,,,,,,,,,,,,,,,,,,,,,,,,,,,,,,,,,,,,,,,,,,,,,,,,,,,,,,,,,,,,,,,,,,,,,,,,,,,,,,,,,,,,,,,,,
,,657b1a416348a0f16506d066,2024-02-18_23h10.02.824,kallum_motion_pilot,2023.2.2,Win32,59.88023952,657b1a416348a0f16506d066,65d2b6c8f2eece985d8e374c,65d2b858ab9f1aa3eae61f6c,0.032,0.032,0,65,65,5,1,threefour,,,,,,,,,,,,,,,,,,,,,,,,,,,,,,,,,,,,,,,,,,,,,,,,,,,,,,,,,,,,,,,,,,,,,,,,,,,,,,,,,,,,,,,,,,,,,,,,,,,,,,,,,,,,,,,,,,,,,,,,,,,,,,,,,,,,,,,,,
,,657b1a416348a0f16506d066,2024-02-18_23h10.02.824,kallum_motion_pilot,2023.2.2,Win32,59.88023952,657b1a416348a0f16506d066,65d2b6c8f2eece985d8e374c,65d2b858ab9f1aa3eae61f6c,0.0322,0.0322,0,66,66,4,1,threeone,,,,,,,,,,,,,,,,,,,,,,,,,,,,,,,,,,,,,,,,,,,,,,,,,,,,,,,,,,,,,,,,,,,,,,,,,,,,,,,,,,,,,,,,,,,,,,,,,,,,,,,,,,,,,,,,,,,,,,,,,,,,,,,,,,,,,,,,,
,,657b1a416348a0f16506d066,2024-02-18_23h10.02.824,kallum_motion_pilot,2023.2.2,Win32,59.88023952,657b1a416348a0f16506d066,65d2b6c8f2eece985d8e374c,65d2b858ab9f1aa3eae61f6c,0.0323,0.0323,0,67,67,39,1,fourthree,,,,,,,,,,,,,,,,,,,,,,,,,,,,,,,,,,,,,,,,,,,,,,,,,,,,,,,,,,,,,,,,,,,,,,,,,,,,,,,,,,,,,,,,,,,,,,,,,,,,,,,,,,,,,,,,,,,,,,,,,,,,,,,,,,,,,,,,,
,,657b1a416348a0f16506d066,2024-02-18_23h10.02.824,kallum_motion_pilot,2023.2.2,Win32,59.88023952,657b1a416348a0f16506d066,65d2b6c8f2eece985d8e374c,65d2b858ab9f1aa3eae61f6c,0.0323,0.0323,0,68,68,22,1,fourtwo,,,,,,,,,,,,,,,,,,,,,,,,,,,,,,,,,,,,,,,,,,,,,,,,,,,,,,,,,,,,,,,,,,,,,,,,,,,,,,,,,,,,,,,,,,,,,,,,,,,,,,,,,,,,,,,,,,,,,,,,,,,,,,,,,,,,,,,,,
,,657b1a416348a0f16506d066,2024-02-18_23h10.02.824,kallum_motion_pilot,2023.2.2,Win32,59.88023952,657b1a416348a0f16506d066,65d2b6c8f2eece985d8e374c,65d2b858ab9f1aa3eae61f6c,0.0324,0.0325,0,69,69,102,1,eightsix,,,,,,,,,,,,,,,,,,,,,,,,,,,,,,,,,,,,,,,,,,,,,,,,,,,,,,,,,,,,,,,,,,,,,,,,,,,,,,,,,,,,,,,,,,,,,,,,,,,,,,,,,,,,,,,,,,,,,,,,,,,,,,,,,,,,,,,,,
,,657b1a416348a0f16506d066,2024-02-18_23h10.02.824,kallum_motion_pilot,2023.2.2,Win32,59.88023952,657b1a416348a0f16506d066,65d2b6c8f2eece985d8e374c,65d2b858ab9f1aa3eae61f6c,0.0325,0.0325,0,70,70,78,1,fourtwo,,,,,,,,,,,,,,,,,,,,,,,,,,,,,,,,,,,,,,,,,,,,,,,,,,,,,,,,,,,,,,,,,,,,,,,,,,,,,,,,,,,,,,,,,,,,,,,,,,,,,,,,,,,,,,,,,,,,,,,,,,,,,,,,,,,,,,,,,
,,657b1a416348a0f16506d066,2024-02-18_23h10.02.824,kallum_motion_pilot,2023.2.2,Win32,59.88023952,657b1a416348a0f16506d066,65d2b6c8f2eece985d8e374c,65d2b858ab9f1aa3eae61f6c,0.0326,0.0327,0,71,71,30,1,fourtwo,,,,,,,,,,,,,,,,,,,,,,,,,,,,,,,,,,,,,,,,,,,,,,,,,,,,,,,,,,,,,,,,,,,,,,,,,,,,,,,,,,,,,,,,,,,,,,,,,,,,,,,,,,,,,,,,,,,,,,,,,,,,,,,,,,,,,,,,,
,,657b1a416348a0f16506d066,2024-02-18_23h10.02.824,kallum_motion_pilot,2023.2.2,Win32,59.88023952,657b1a416348a0f16506d066,65d2b6c8f2eece985d8e374c,65d2b858ab9f1aa3eae61f6c,0.0327,0.0327,0,72,72,56,1,onetwo,,,,,,,,,,,,,,,,,,,,,,,,,,,,,,,,,,,,,,,,,,,,,,,,,,,,,,,,,,,,,,,,,,,,,,,,,,,,,,,,,,,,,,,,,,,,,,,,,,,,,,,,,,,,,,,,,,,,,,,,,,,,,,,,,,,,,,,,,
,,657b1a416348a0f16506d066,2024-02-18_23h10.02.824,kallum_motion_pilot,2023.2.2,Win32,59.88023952,657b1a416348a0f16506d066,65d2b6c8f2eece985d8e374c,65d2b858ab9f1aa3eae61f6c,0.0328,0.0329,0,73,73,116,1,sevenfive,,,,,,,,,,,,,,,,,,,,,,,,,,,,,,,,,,,,,,,,,,,,,,,,,,,,,,,,,,,,,,,,,,,,,,,,,,,,,,,,,,,,,,,,,,,,,,,,,,,,,,,,,,,,,,,,,,,,,,,,,,,,,,,,,,,,,,,,,
,,657b1a416348a0f16506d066,2024-02-18_23h10.02.824,kallum_motion_pilot,2023.2.2,Win32,59.88023952,657b1a416348a0f16506d066,65d2b6c8f2eece985d8e374c,65d2b858ab9f1aa3eae61f6c,0.0329,0.0329,0,74,74,142,1,eightsix,,,,,,,,,,,,,,,,,,,,,,,,,,,,,,,,,,,,,,,,,,,,,,,,,,,,,,,,,,,,,,,,,,,,,,,,,,,,,,,,,,,,,,,,,,,,,,,,,,,,,,,,,,,,,,,,,,,,,,,,,,,,,,,,,,,,,,,,,
,,657b1a416348a0f16506d066,2024-02-18_23h10.02.824,kallum_motion_pilot,2023.2.2,Win32,59.88023952,657b1a416348a0f16506d066,65d2b6c8f2eece985d8e374c,65d2b858ab9f1aa3eae61f6c,0.033,0.033,0,75,75,158,1,eightsix,,,,,,,,,,,,,,,,,,,,,,,,,,,,,,,,,,,,,,,,,,,,,,,,,,,,,,,,,,,,,,,,,,,,,,,,,,,,,,,,,,,,,,,,,,,,,,,,,,,,,,,,,,,,,,,,,,,,,,,,,,,,,,,,,,,,,,,,,
,,657b1a416348a0f16506d066,2024-02-18_23h10.02.824,kallum_motion_pilot,2023.2.2,Win32,59.88023952,657b1a416348a0f16506d066,65d2b6c8f2eece985d8e374c,65d2b858ab9f1aa3eae61f6c,0.0331,0.0331,0,76,76,91,1,sixeight,,,,,,,,,,,,,,,,,,,,,,,,,,,,,,,,,,,,,,,,,,,,,,,,,,,,,,,,,,,,,,,,,,,,,,,,,,,,,,,,,,,,,,,,,,,,,,,,,,,,,,,,,,,,,,,,,,,,,,,,,,,,,,,,,,,,,,,,,
,,657b1a416348a0f16506d066,2024-02-18_23h10.02.824,kallum_motion_pilot,2023.2.2,Win32,59.88023952,657b1a416348a0f16506d066,65d2b6c8f2eece985d8e374c,65d2b858ab9f1aa3eae61f6c,0.0332,0.0332,0,77,77,68,1,threeone,,,,,,,,,,,,,,,,,,,,,,,,,,,,,,,,,,,,,,,,,,,,,,,,,,,,,,,,,,,,,,,,,,,,,,,,,,,,,,,,,,,,,,,,,,,,,,,,,,,,,,,,,,,,,,,,,,,,,,,,,,,,,,,,,,,,,,,,,
,,657b1a416348a0f16506d066,2024-02-18_23h10.02.824,kallum_motion_pilot,2023.2.2,Win32,59.88023952,657b1a416348a0f16506d066,65d2b6c8f2eece985d8e374c,65d2b858ab9f1aa3eae61f6c,0.0333,0.0334,0,78,78,81,1,fiveseven,,,,,,,,,,,,,,,,,,,,,,,,,,,,,,,,,,,,,,,,,,,,,,,,,,,,,,,,,,,,,,,,,,,,,,,,,,,,,,,,,,,,,,,,,,,,,,,,,,,,,,,,,,,,,,,,,,,,,,,,,,,,,,,,,,,,,,,,,
,,657b1a416348a0f16506d066,2024-02-18_23h10.02.824,kallum_motion_pilot,2023.2.2,Win32,59.88023952,657b1a416348a0f16506d066,65d2b6c8f2eece985d8e374c,65d2b858ab9f1aa3eae61f6c,0.0334,0.0334,0,79,79,7,1,fourthree,,,,,,,,,,,,,,,,,,,,,,,,,,,,,,,,,,,,,,,,,,,,,,,,,,,,,,,,,,,,,,,,,,,,,,,,,,,,,,,,,,,,,,,,,,,,,,,,,,,,,,,,,,,,,,,,,,,,,,,,,,,,,,,,,,,,,,,,,
,,657b1a416348a0f16506d066,2024-02-18_23h10.02.824,kallum_motion_pilot,2023.2.2,Win32,59.88023952,657b1a416348a0f16506d066,65d2b6c8f2eece985d8e374c,65d2b858ab9f1aa3eae61f6c,0.0335,0.0335,0,80,80,139,1,sixeight,,,,,,,,,,,,,,,,,,,,,,,,,,,,,,,,,,,,,,,,,,,,,,,,,,,,,,,,,,,,,,,,,,,,,,,,,,,,,,,,,,,,,,,,,,,,,,,,,,,,,,,,,,,,,,,,,,,,,,,,,,,,,,,,,,,,,,,,,
,,657b1a416348a0f16506d066,2024-02-18_23h10.02.824,kallum_motion_pilot,2023.2.2,Win32,59.88023952,657b1a416348a0f16506d066,65d2b6c8f2eece985d8e374c,65d2b858ab9f1aa3eae61f6c,0.0336,0.0336,0,81,81,104,1,fivesix,,,,,,,,,,,,,,,,,,,,,,,,,,,,,,,,,,,,,,,,,,,,,,,,,,,,,,,,,,,,,,,,,,,,,,,,,,,,,,,,,,,,,,,,,,,,,,,,,,,,,,,,,,,,,,,,,,,,,,,,,,,,,,,,,,,,,,,,,
,,657b1a416348a0f16506d066,2024-02-18_23h10.02.824,kallum_motion_pilot,2023.2.2,Win32,59.88023952,657b1a416348a0f16506d066,65d2b6c8f2eece985d8e374c,65d2b858ab9f1aa3eae61f6c,0.0337,0.0337,0,82,82,83,1,sixeight,,,,,,,,,,,,,,,,,,,,,,,,,,,,,,,,,,,,,,,,,,,,,,,,,,,,,,,,,,,,,,,,,,,,,,,,,,,,,,,,,,,,,,,,,,,,,,,,,,,,,,,,,,,,,,,,,,,,,,,,,,,,,,,,,,,,,,,,,
,,657b1a416348a0f16506d066,2024-02-18_23h10.02.824,kallum_motion_pilot,2023.2.2,Win32,59.88023952,657b1a416348a0f16506d066,65d2b6c8f2eece985d8e374c,65d2b858ab9f1aa3eae61f6c,0.0338,0.0338,0,83,83,40,1,onetwo,,,,,,,,,,,,,,,,,,,,,,,,,,,,,,,,,,,,,,,,,,,,,,,,,,,,,,,,,,,,,,,,,,,,,,,,,,,,,,,,,,,,,,,,,,,,,,,,,,,,,,,,,,,,,,,,,,,,,,,,,,,,,,,,,,,,,,,,,
,,657b1a416348a0f16506d066,2024-02-18_23h10.02.824,kallum_motion_pilot,2023.2.2,Win32,59.88023952,657b1a416348a0f16506d066,65d2b6c8f2eece985d8e374c,65d2b858ab9f1aa3eae61f6c,0.0339,0.0339,0,84,84,28,1,threeone,,,,,,,,,,,,,,,,,,,,,,,,,,,,,,,,,,,,,,,,,,,,,,,,,,,,,,,,,,,,,,,,,,,,,,,,,,,,,,,,,,,,,,,,,,,,,,,,,,,,,,,,,,,,,,,,,,,,,,,,,,,,,,,,,,,,,,,,,
,,657b1a416348a0f16506d066,2024-02-18_23h10.02.824,kallum_motion_pilot,2023.2.2,Win32,59.88023952,657b1a416348a0f16506d066,65d2b6c8f2eece985d8e374c,65d2b858ab9f1aa3eae61f6c,0.034,0.034,0,85,85,8,1,onetwo,,,,,,,,,,,,,,,,,,,,,,,,,,,,,,,,,,,,,,,,,,,,,,,,,,,,,,,,,,,,,,,,,,,,,,,,,,,,,,,,,,,,,,,,,,,,,,,,,,,,,,,,,,,,,,,,,,,,,,,,,,,,,,,,,,,,,,,,,
,,657b1a416348a0f16506d066,2024-02-18_23h10.02.824,kallum_motion_pilot,2023.2.2,Win32,59.88023952,657b1a416348a0f16506d066,65d2b6c8f2eece985d8e374c,65d2b858ab9f1aa3eae61f6c,0.0341,0.0341,0,86,86,27,1,twofour,,,,,,,,,,,,,,,,,,,,,,,,,,,,,,,,,,,,,,,,,,,,,,,,,,,,,,,,,,,,,,,,,,,,,,,,,,,,,,,,,,,,,,,,,,,,,,,,,,,,,,,,,,,,,,,,,,,,,,,,,,,,,,,,,,,,,,,,,
,,657b1a416348a0f16506d066,2024-02-18_23h10.02.824,kallum_motion_pilot,2023.2.2,Win32,59.88023952,657b1a416348a0f16506d066,65d2b6c8f2eece985d8e374c,65d2b858ab9f1aa3eae61f6c,0.0342,0.0342,0,87,87,145,1,fiveseven,,,,,,,,,,,,,,,,,,,,,,,,,,,,,,,,,,,,,,,,,,,,,,,,,,,,,,,,,,,,,,,,,,,,,,,,,,,,,,,,,,,,,,,,,,,,,,,,,,,,,,,,,,,,,,,,,,,,,,,,,,,,,,,,,,,,,,,,,
,,657b1a416348a0f16506d066,2024-02-18_23h10.02.824,kallum_motion_pilot,2023.2.2,Win32,59.88023952,657b1a416348a0f16506d066,65d2b6c8f2eece985d8e374c,65d2b858ab9f1aa3eae61f6c,0.0343,0.0343,0,88,88,9,1,onethree,,,,,,,,,,,,,,,,,,,,,,,,,,,,,,,,,,,,,,,,,,,,,,,,,,,,,,,,,,,,,,,,,,,,,,,,,,,,,,,,,,,,,,,,,,,,,,,,,,,,,,,,,,,,,,,,,,,,,,,,,,,,,,,,,,,,,,,,,
,,657b1a416348a0f16506d066,2024-02-18_23h10.02.824,kallum_motion_pilot,2023.2.2,Win32,59.88023952,657b1a416348a0f16506d066,65d2b6c8f2eece985d8e374c,65d2b858ab9f1aa3eae61f6c,0.0344,0.0345,0,89,89,118,1,eightsix,,,,,,,,,,,,,,,,,,,,,,,,,,,,,,,,,,,,,,,,,,,,,,,,,,,,,,,,,,,,,,,,,,,,,,,,,,,,,,,,,,,,,,,,,,,,,,,,,,,,,,,,,,,,,,,,,,,,,,,,,,,,,,,,,,,,,,,,,
,,657b1a416348a0f16506d066,2024-02-18_23h10.02.824,kallum_motion_pilot,2023.2.2,Win32,59.88023952,657b1a416348a0f16506d066,65d2b6c8f2eece985d8e374c,65d2b858ab9f1aa3eae61f6c,0.0345,0.0345,0,90,90,54,1,fourtwo,,,,,,,,,,,,,,,,,,,,,,,,,,,,,,,,,,,,,,,,,,,,,,,,,,,,,,,,,,,,,,,,,,,,,,,,,,,,,,,,,,,,,,,,,,,,,,,,,,,,,,,,,,,,,,,,,,,,,,,,,,,,,,,,,,,,,,,,,
,,657b1a416348a0f16506d066,2024-02-18_23h10.02.824,kallum_motion_pilot,2023.2.2,Win32,59.88023952,657b1a416348a0f16506d066,65d2b6c8f2eece985d8e374c,65d2b858ab9f1aa3eae61f6c,0.0346,0.0347,0,91,91,44,1,threeone,,,,,,,,,,,,,,,,,,,,,,,,,,,,,,,,,,,,,,,,,,,,,,,,,,,,,,,,,,,,,,,,,,,,,,,,,,,,,,,,,,,,,,,,,,,,,,,,,,,,,,,,,,,,,,,,,,,,,,,,,,,,,,,,,,,,,,,,,
,,657b1a416348a0f16506d066,2024-02-18_23h10.02.824,kallum_motion_pilot,2023.2.2,Win32,59.88023952,657b1a416348a0f16506d066,65d2b6c8f2eece985d8e374c,65d2b858ab9f1aa3eae61f6c,0.0347,0.0348,0,92,92,128,1,fivesix,,,,,,,,,,,,,,,,,,,,,,,,,,,,,,,,,,,,,,,,,,,,,,,,,,,,,,,,,,,,,,,,,,,,,,,,,,,,,,,,,,,,,,,,,,,,,,,,,,,,,,,,,,,,,,,,,,,,,,,,,,,,,,,,,,,,,,,,,
,,657b1a416348a0f16506d066,2024-02-18_23h10.02.824,kallum_motion_pilot,2023.2.2,Win32,59.88023952,657b1a416348a0f16506d066,65d2b6c8f2eece985d8e374c,65d2b858ab9f1aa3eae61f6c,0.0349,0.0349,0,93,93,79,1,eightseven,,,,,,,,,,,,,,,,,,,,,,,,,,,,,,,,,,,,,,,,,,,,,,,,,,,,,,,,,,,,,,,,,,,,,,,,,,,,,,,,,,,,,,,,,,,,,,,,,,,,,,,,,,,,,,,,,,,,,,,,,,,,,,,,,,,,,,,,,
,,657b1a416348a0f16506d066,2024-02-18_23h10.02.824,kallum_motion_pilot,2023.2.2,Win32,59.88023952,657b1a416348a0f16506d066,65d2b6c8f2eece985d8e374c,65d2b858ab9f1aa3eae61f6c,0.0349,0.035,0,94,94,112,1,fivesix,,,,,,,,,,,,,,,,,,,,,,,,,,,,,,,,,,,,,,,,,,,,,,,,,,,,,,,,,,,,,,,,,,,,,,,,,,,,,,,,,,,,,,,,,,,,,,,,,,,,,,,,,,,,,,,,,,,,,,,,,,,,,,,,,,,,,,,,,
,,657b1a416348a0f16506d066,2024-02-18_23h10.02.824,kallum_motion_pilot,2023.2.2,Win32,59.88023952,657b1a416348a0f16506d066,65d2b6c8f2eece985d8e374c,65d2b858ab9f1aa3eae61f6c,0.035,0.0351,0,95,95,75,1,twofour,,,,,,,,,,,,,,,,,,,,,,,,,,,,,,,,,,,,,,,,,,,,,,,,,,,,,,,,,,,,,,,,,,,,,,,,,,,,,,,,,,,,,,,,,,,,,,,,,,,,,,,,,,,,,,,,,,,,,,,,,,,,,,,,,,,,,,,,,
,,657b1a416348a0f16506d066,2024-02-18_23h10.02.824,kallum_motion_pilot,2023.2.2,Win32,59.88023952,657b1a416348a0f16506d066,65d2b6c8f2eece985d8e374c,65d2b858ab9f1aa3eae61f6c,0.0352,0.0352,0,96,96,157,1,seveneight,,,,,,,,,,,,,,,,,,,,,,,,,,,,,,,,,,,,,,,,,,,,,,,,,,,,,,,,,,,,,,,,,,,,,,,,,,,,,,,,,,,,,,,,,,,,,,,,,,,,,,,,,,,,,,,,,,,,,,,,,,,,,,,,,,,,,,,,,
,,657b1a416348a0f16506d066,2024-02-18_23h10.02.824,kallum_motion_pilot,2023.2.2,Win32,59.88023952,657b1a416348a0f16506d066,65d2b6c8f2eece985d8e374c,65d2b858ab9f1aa3eae61f6c,0.0353,0.0353,0,97,97,10,1,twoone,,,,,,,,,,,,,,,,,,,,,,,,,,,,,,,,,,,,,,,,,,,,,,,,,,,,,,,,,,,,,,,,,,,,,,,,,,,,,,,,,,,,,,,,,,,,,,,,,,,,,,,,,,,,,,,,,,,,,,,,,,,,,,,,,,,,,,,,,
,,657b1a416348a0f16506d066,2024-02-18_23h10.02.824,kallum_motion_pilot,2023.2.2,Win32,59.88023952,657b1a416348a0f16506d066,65d2b6c8f2eece985d8e374c,65d2b858ab9f1aa3eae61f6c,0.0355,0.0355,0,98,98,84,1,sevenfive,,,,,,,,,,,,,,,,,,,,,,,,,,,,,,,,,,,,,,,,,,,,,,,,,,,,,,,,,,,,,,,,,,,,,,,,,,,,,,,,,,,,,,,,,,,,,,,,,,,,,,,,,,,,,,,,,,,,,,,,,,,,,,,,,,,,,,,,,
,,657b1a416348a0f16506d066,2024-02-18_23h10.02.824,kallum_motion_pilot,2023.2.2,Win32,59.88023952,657b1a416348a0f16506d066,65d2b6c8f2eece985d8e374c,65d2b858ab9f1aa3eae61f6c,0.0356,0.0356,0,99,99,96,1,fivesix,,,,,,,,,,,,,,,,,,,,,,,,,,,,,,,,,,,,,,,,,,,,,,,,,,,,,,,,,,,,,,,,,,,,,,,,,,,,,,,,,,,,,,,,,,,,,,,,,,,,,,,,,,,,,,,,,,,,,,,,,,,,,,,,,,,,,,,,,
,,657b1a416348a0f16506d066,2024-02-18_23h10.02.824,kallum_motion_pilot,2023.2.2,Win32,59.88023952,657b1a416348a0f16506d066,65d2b6c8f2eece985d8e374c,65d2b858ab9f1aa3eae61f6c,0.0357,0.0358,0,100,100,72,1,onetwo,,,,,,,,,,,,,,,,,,,,,,,,,,,,,,,,,,,,,,,,,,,,,,,,,,,,,,,,,,,,,,,,,,,,,,,,,,,,,,,,,,,,,,,,,,,,,,,,,,,,,,,,,,,,,,,,,,,,,,,,,,,,,,,,,,,,,,,,,
,,657b1a416348a0f16506d066,2024-02-18_23h10.02.824,kallum_motion_pilot,2023.2.2,Win32,59.88023952,657b1a416348a0f16506d066,65d2b6c8f2eece985d8e374c,65d2b858ab9f1aa3eae61f6c,0.0359,0.036,0,101,101,132,1,sevenfive,,,,,,,,,,,,,,,,,,,,,,,,,,,,,,,,,,,,,,,,,,,,,,,,,,,,,,,,,,,,,,,,,,,,,,,,,,,,,,,,,,,,,,,,,,,,,,,,,,,,,,,,,,,,,,,,,,,,,,,,,,,,,,,,,,,,,,,,,
,,657b1a416348a0f16506d066,2024-02-18_23h10.02.824,kallum_motion_pilot,2023.2.2,Win32,59.88023952,657b1a416348a0f16506d066,65d2b6c8f2eece985d8e374c,65d2b858ab9f1aa3eae61f6c,0.0361,0.0362,0,102,102,101,1,seveneight,,,,,,,,,,,,,,,,,,,,,,,,,,,,,,,,,,,,,,,,,,,,,,,,,,,,,,,,,,,,,,,,,,,,,,,,,,,,,,,,,,,,,,,,,,,,,,,,,,,,,,,,,,,,,,,,,,,,,,,,,,,,,,,,,,,,,,,,,
,,657b1a416348a0f16506d066,2024-02-18_23h10.02.824,kallum_motion_pilot,2023.2.2,Win32,59.88023952,657b1a416348a0f16506d066,65d2b6c8f2eece985d8e374c,65d2b858ab9f1aa3eae61f6c,0.0362,0.0362,0,103,103,25,1,onethree,,,,,,,,,,,,,,,,,,,,,,,,,,,,,,,,,,,,,,,,,,,,,,,,,,,,,,,,,,,,,,,,,,,,,,,,,,,,,,,,,,,,,,,,,,,,,,,,,,,,,,,,,,,,,,,,,,,,,,,,,,,,,,,,,,,,,,,,,
,,657b1a416348a0f16506d066,2024-02-18_23h10.02.824,kallum_motion_pilot,2023.2.2,Win32,59.88023952,657b1a416348a0f16506d066,65d2b6c8f2eece985d8e374c,65d2b858ab9f1aa3eae61f6c,0.0363,0.0363,0,104,104,148,1,sevenfive,,,,,,,,,,,,,,,,,,,,,,,,,,,,,,,,,,,,,,,,,,,,,,,,,,,,,,,,,,,,,,,,,,,,,,,,,,,,,,,,,,,,,,,,,,,,,,,,,,,,,,,,,,,,,,,,,,,,,,,,,,,,,,,,,,,,,,,,,
,,657b1a416348a0f16506d066,2024-02-18_23h10.02.824,kallum_motion_pilot,2023.2.2,Win32,59.88023952,657b1a416348a0f16506d066,65d2b6c8f2eece985d8e374c,65d2b858ab9f1aa3eae61f6c,0.0365,0.0365,0,105,105,100,1,sevenfive,,,,,,,,,,,,,,,,,,,,,,,,,,,,,,,,,,,,,,,,,,,,,,,,,,,,,,,,,,,,,,,,,,,,,,,,,,,,,,,,,,,,,,,,,,,,,,,,,,,,,,,,,,,,,,,,,,,,,,,,,,,,,,,,,,,,,,,,,
,,657b1a416348a0f16506d066,2024-02-18_23h10.02.824,kallum_motion_pilot,2023.2.2,Win32,59.88023952,657b1a416348a0f16506d066,65d2b6c8f2eece985d8e374c,65d2b858ab9f1aa3eae61f6c,0.0367,0.0367,0,106,106,95,1,eightseven,,,,,,,,,,,,,,,,,,,,,,,,,,,,,,,,,,,,,,,,,,,,,,,,,,,,,,,,,,,,,,,,,,,,,,,,,,,,,,,,,,,,,,,,,,,,,,,,,,,,,,,,,,,,,,,,,,,,,,,,,,,,,,,,,,,,,,,,,
,,657b1a416348a0f16506d066,2024-02-18_23h10.02.824,kallum_motion_pilot,2023.2.2,Win32,59.88023952,657b1a416348a0f16506d066,65d2b6c8f2eece985d8e374c,65d2b858ab9f1aa3eae61f6c,0.0368,0.0369,0,107,107,59,1,twofour,,,,,,,,,,,,,,,,,,,,,,,,,,,,,,,,,,,,,,,,,,,,,,,,,,,,,,,,,,,,,,,,,,,,,,,,,,,,,,,,,,,,,,,,,,,,,,,,,,,,,,,,,,,,,,,,,,,,,,,,,,,,,,,,,,,,,,,,,
,,657b1a416348a0f16506d066,2024-02-18_23h10.02.824,kallum_motion_pilot,2023.2.2,Win32,59.88023952,657b1a416348a0f16506d066,65d2b6c8f2eece985d8e374c,65d2b858ab9f1aa3eae61f6c,0.0369,0.037,0,108,108,160,1,fivesix,,,,,,,,,,,,,,,,,,,,,,,,,,,,,,,,,,,,,,,,,,,,,,,,,,,,,,,,,,,,,,,,,,,,,,,,,,,,,,,,,,,,,,,,,,,,,,,,,,,,,,,,,,,,,,,,,,,,,,,,,,,,,,,,,,,,,,,,,
,,657b1a416348a0f16506d066,2024-02-18_23h10.02.824,kallum_motion_pilot,2023.2.2,Win32,59.88023952,657b1a416348a0f16506d066,65d2b6c8f2eece985d8e374c,65d2b858ab9f1aa3eae61f6c,0.0371,0.0372,0,109,109,152,1,fivesix,,,,,,,,,,,,,,,,,,,,,,,,,,,,,,,,,,,,,,,,,,,,,,,,,,,,,,,,,,,,,,,,,,,,,,,,,,,,,,,,,,,,,,,,,,,,,,,,,,,,,,,,,,,,,,,,,,,,,,,,,,,,,,,,,,,,,,,,,
,,657b1a416348a0f16506d066,2024-02-18_23h10.02.824,kallum_motion_pilot,2023.2.2,Win32,59.88023952,657b1a416348a0f16506d066,65d2b6c8f2eece985d8e374c,65d2b858ab9f1aa3eae61f6c,0.0372,0.0373,0,110,110,20,1,threeone,,,,,,,,,,,,,,,,,,,,,,,,,,,,,,,,,,,,,,,,,,,,,,,,,,,,,,,,,,,,,,,,,,,,,,,,,,,,,,,,,,,,,,,,,,,,,,,,,,,,,,,,,,,,,,,,,,,,,,,,,,,,,,,,,,,,,,,,,
,,657b1a416348a0f16506d066,2024-02-18_23h10.02.824,kallum_motion_pilot,2023.2.2,Win32,59.88023952,657b1a416348a0f16506d066,65d2b6c8f2eece985d8e374c,65d2b858ab9f1aa3eae61f6c,0.0374,0.0374,0,111,111,11,1,twofour,,,,,,,,,,,,,,,,,,,,,,,,,,,,,,,,,,,,,,,,,,,,,,,,,,,,,,,,,,,,,,,,,,,,,,,,,,,,,,,,,,,,,,,,,,,,,,,,,,,,,,,,,,,,,,,,,,,,,,,,,,,,,,,,,,,,,,,,,
,,657b1a416348a0f16506d066,2024-02-18_23h10.02.824,kallum_motion_pilot,2023.2.2,Win32,59.88023952,657b1a416348a0f16506d066,65d2b6c8f2eece985d8e374c,65d2b858ab9f1aa3eae61f6c,0.0374,0.0376,0,112,112,6,1,fourtwo,,,,,,,,,,,,,,,,,,,,,,,,,,,,,,,,,,,,,,,,,,,,,,,,,,,,,,,,,,,,,,,,,,,,,,,,,,,,,,,,,,,,,,,,,,,,,,,,,,,,,,,,,,,,,,,,,,,,,,,,,,,,,,,,,,,,,,,,,
,,657b1a416348a0f16506d066,2024-02-18_23h10.02.824,kallum_motion_pilot,2023.2.2,Win32,59.88023952,657b1a416348a0f16506d066,65d2b6c8f2eece985d8e374c,65d2b858ab9f1aa3eae61f6c,0.0376,0.0376,0,113,113,13,1,threefour,,,,,,,,,,,,,,,,,,,,,,,,,,,,,,,,,,,,,,,,,,,,,,,,,,,,,,,,,,,,,,,,,,,,,,,,,,,,,,,,,,,,,,,,,,,,,,,,,,,,,,,,,,,,,,,,,,,,,,,,,,,,,,,,,,,,,,,,,
,,657b1a416348a0f16506d066,2024-02-18_23h10.02.824,kallum_motion_pilot,2023.2.2,Win32,59.88023952,657b1a416348a0f16506d066,65d2b6c8f2eece985d8e374c,65d2b858ab9f1aa3eae61f6c,0.0377,0.0377,0,114,114,42,1,twoone,,,,,,,,,,,,,,,,,,,,,,,,,,,,,,,,,,,,,,,,,,,,,,,,,,,,,,,,,,,,,,,,,,,,,,,,,,,,,,,,,,,,,,,,,,,,,,,,,,,,,,,,,,,,,,,,,,,,,,,,,,,,,,,,,,,,,,,,,
,,657b1a416348a0f16506d066,2024-02-18_23h10.02.824,kallum_motion_pilot,2023.2.2,Win32,59.88023952,657b1a416348a0f16506d066,65d2b6c8f2eece985d8e374c,65d2b858ab9f1aa3eae61f6c,0.0378,0.0379,0,115,115,131,1,sixeight,,,,,,,,,,,,,,,,,,,,,,,,,,,,,,,,,,,,,,,,,,,,,,,,,,,,,,,,,,,,,,,,,,,,,,,,,,,,,,,,,,,,,,,,,,,,,,,,,,,,,,,,,,,,,,,,,,,,,,,,,,,,,,,,,,,,,,,,,
,,657b1a416348a0f16506d066,2024-02-18_23h10.02.824,kallum_motion_pilot,2023.2.2,Win32,59.88023952,657b1a416348a0f16506d066,65d2b6c8f2eece985d8e374c,65d2b858ab9f1aa3eae61f6c,0.0379,0.0379,0,116,116,113,1,fiveseven,,,,,,,,,,,,,,,,,,,,,,,,,,,,,,,,,,,,,,,,,,,,,,,,,,,,,,,,,,,,,,,,,,,,,,,,,,,,,,,,,,,,,,,,,,,,,,,,,,,,,,,,,,,,,,,,,,,,,,,,,,,,,,,,,,,,,,,,,
,,657b1a416348a0f16506d066,2024-02-18_23h10.02.824,kallum_motion_pilot,2023.2.2,Win32,59.88023952,657b1a416348a0f16506d066,65d2b6c8f2eece985d8e374c,65d2b858ab9f1aa3eae61f6c,0.038,0.0381,0,117,117,119,1,eightseven,,,,,,,,,,,,,,,,,,,,,,,,,,,,,,,,,,,,,,,,,,,,,,,,,,,,,,,,,,,,,,,,,,,,,,,,,,,,,,,,,,,,,,,,,,,,,,,,,,,,,,,,,,,,,,,,,,,,,,,,,,,,,,,,,,,,,,,,,
,,657b1a416348a0f16506d066,2024-02-18_23h10.02.824,kallum_motion_pilot,2023.2.2,Win32,59.88023952,657b1a416348a0f16506d066,65d2b6c8f2eece985d8e374c,65d2b858ab9f1aa3eae61f6c,0.0381,0.0382,0,118,118,141,1,seveneight,,,,,,,,,,,,,,,,,,,,,,,,,,,,,,,,,,,,,,,,,,,,,,,,,,,,,,,,,,,,,,,,,,,,,,,,,,,,,,,,,,,,,,,,,,,,,,,,,,,,,,,,,,,,,,,,,,,,,,,,,,,,,,,,,,,,,,,,,
,,657b1a416348a0f16506d066,2024-02-18_23h10.02.824,kallum_motion_pilot,2023.2.2,Win32,59.88023952,657b1a416348a0f16506d066,65d2b6c8f2eece985d8e374c,65d2b858ab9f1aa3eae61f6c,0.0382,0.0383,0,119,119,57,1,onethree,,,,,,,,,,,,,,,,,,,,,,,,,,,,,,,,,,,,,,,,,,,,,,,,,,,,,,,,,,,,,,,,,,,,,,,,,,,,,,,,,,,,,,,,,,,,,,,,,,,,,,,,,,,,,,,,,,,,,,,,,,,,,,,,,,,,,,,,,
,,657b1a416348a0f16506d066,2024-02-18_23h10.02.824,kallum_motion_pilot,2023.2.2,Win32,59.88023952,657b1a416348a0f16506d066,65d2b6c8f2eece985d8e374c,65d2b858ab9f1aa3eae61f6c,0.0384,0.0384,0,120,120,103,1,eightseven,,,,,,,,,,,,,,,,,,,,,,,,,,,,,,,,,,,,,,,,,,,,,,,,,,,,,,,,,,,,,,,,,,,,,,,,,,,,,,,,,,,,,,,,,,,,,,,,,,,,,,,,,,,,,,,,,,,,,,,,,,,,,,,,,,,,,,,,,
,,657b1a416348a0f16506d066,2024-02-18_23h10.02.824,kallum_motion_pilot,2023.2.2,Win32,59.88023952,657b1a416348a0f16506d066,65d2b6c8f2eece985d8e374c,65d2b858ab9f1aa3eae61f6c,0.0385,0.0385,0,121,121,16,1,onetwo,,,,,,,,,,,,,,,,,,,,,,,,,,,,,,,,,,,,,,,,,,,,,,,,,,,,,,,,,,,,,,,,,,,,,,,,,,,,,,,,,,,,,,,,,,,,,,,,,,,,,,,,,,,,,,,,,,,,,,,,,,,,,,,,,,,,,,,,,
,,657b1a416348a0f16506d066,2024-02-18_23h10.02.824,kallum_motion_pilot,2023.2.2,Win32,59.88023952,657b1a416348a0f16506d066,65d2b6c8f2eece985d8e374c,65d2b858ab9f1aa3eae61f6c,0.0386,0.0386,0,122,122,99,1,sixeight,,,,,,,,,,,,,,,,,,,,,,,,,,,,,,,,,,,,,,,,,,,,,,,,,,,,,,,,,,,,,,,,,,,,,,,,,,,,,,,,,,,,,,,,,,,,,,,,,,,,,,,,,,,,,,,,,,,,,,,,,,,,,,,,,,,,,,,,,
,,657b1a416348a0f16506d066,2024-02-18_23h10.02.824,kallum_motion_pilot,2023.2.2,Win32,59.88023952,657b1a416348a0f16506d066,65d2b6c8f2eece985d8e374c,65d2b858ab9f1aa3eae61f6c,0.0387,0.0388,0,123,123,109,1,seveneight,,,,,,,,,,,,,,,,,,,,,,,,,,,,,,,,,,,,,,,,,,,,,,,,,,,,,,,,,,,,,,,,,,,,,,,,,,,,,,,,,,,,,,,,,,,,,,,,,,,,,,,,,,,,,,,,,,,,,,,,,,,,,,,,,,,,,,,,,
,,657b1a416348a0f16506d066,2024-02-18_23h10.02.824,kallum_motion_pilot,2023.2.2,Win32,59.88023952,657b1a416348a0f16506d066,65d2b6c8f2eece985d8e374c,65d2b858ab9f1aa3eae61f6c,0.0388,0.0389,0,124,124,60,1,threeone,,,,,,,,,,,,,,,,,,,,,,,,,,,,,,,,,,,,,,,,,,,,,,,,,,,,,,,,,,,,,,,,,,,,,,,,,,,,,,,,,,,,,,,,,,,,,,,,,,,,,,,,,,,,,,,,,,,,,,,,,,,,,,,,,,,,,,,,,
,,657b1a416348a0f16506d066,2024-02-18_23h10.02.824,kallum_motion_pilot,2023.2.2,Win32,59.88023952,657b1a416348a0f16506d066,65d2b6c8f2eece985d8e374c,65d2b858ab9f1aa3eae61f6c,0.0389,0.039,0,125,125,90,1,sixfive,,,,,,,,,,,,,,,,,,,,,,,,,,,,,,,,,,,,,,,,,,,,,,,,,,,,,,,,,,,,,,,,,,,,,,,,,,,,,,,,,,,,,,,,,,,,,,,,,,,,,,,,,,,,,,,,,,,,,,,,,,,,,,,,,,,,,,,,,
,,657b1a416348a0f16506d066,2024-02-18_23h10.02.824,kallum_motion_pilot,2023.2.2,Win32,59.88023952,657b1a416348a0f16506d066,65d2b6c8f2eece985d8e374c,65d2b858ab9f1aa3eae61f6c,0.0391,0.0391,0,126,126,108,1,sevenfive,,,,,,,,,,,,,,,,,,,,,,,,,,,,,,,,,,,,,,,,,,,,,,,,,,,,,,,,,,,,,,,,,,,,,,,,,,,,,,,,,,,,,,,,,,,,,,,,,,,,,,,,,,,,,,,,,,,,,,,,,,,,,,,,,,,,,,,,,
,,657b1a416348a0f16506d066,2024-02-18_23h10.02.824,kallum_motion_pilot,2023.2.2,Win32,59.88023952,657b1a416348a0f16506d066,65d2b6c8f2eece985d8e374c,65d2b858ab9f1aa3eae61f6c,0.0392,0.0393,0,127,127,52,1,threeone,,,,,,,,,,,,,,,,,,,,,,,,,,,,,,,,,,,,,,,,,,,,,,,,,,,,,,,,,,,,,,,,,,,,,,,,,,,,,,,,,,,,,,,,,,,,,,,,,,,,,,,,,,,,,,,,,,,,,,,,,,,,,,,,,,,,,,,,,
,,657b1a416348a0f16506d066,2024-02-18_23h10.02.824,kallum_motion_pilot,2023.2.2,Win32,59.88023952,657b1a416348a0f16506d066,65d2b6c8f2eece985d8e374c,65d2b858ab9f1aa3eae61f6c,0.0394,0.0395,0,128,128,105,1,fiveseven,,,,,,,,,,,,,,,,,,,,,,,,,,,,,,,,,,,,,,,,,,,,,,,,,,,,,,,,,,,,,,,,,,,,,,,,,,,,,,,,,,,,,,,,,,,,,,,,,,,,,,,,,,,,,,,,,,,,,,,,,,,,,,,,,,,,,,,,,
,,657b1a416348a0f16506d066,2024-02-18_23h10.02.824,kallum_motion_pilot,2023.2.2,Win32,59.88023952,657b1a416348a0f16506d066,65d2b6c8f2eece985d8e374c,65d2b858ab9f1aa3eae61f6c,0.0395,0.0395,0,129,129,35,1,twofour,,,,,,,,,,,,,,,,,,,,,,,,,,,,,,,,,,,,,,,,,,,,,,,,,,,,,,,,,,,,,,,,,,,,,,,,,,,,,,,,,,,,,,,,,,,,,,,,,,,,,,,,,,,,,,,,,,,,,,,,,,,,,,,,,,,,,,,,,
,,657b1a416348a0f16506d066,2024-02-18_23h10.02.824,kallum_motion_pilot,2023.2.2,Win32,59.88023952,657b1a416348a0f16506d066,65d2b6c8f2eece985d8e374c,65d2b858ab9f1aa3eae61f6c,0.0396,0.0397,0,130,130,62,1,fourtwo,,,,,,,,,,,,,,,,,,,,,,,,,,,,,,,,,,,,,,,,,,,,,,,,,,,,,,,,,,,,,,,,,,,,,,,,,,,,,,,,,,,,,,,,,,,,,,,,,,,,,,,,,,,,,,,,,,,,,,,,,,,,,,,,,,,,,,,,,
,,657b1a416348a0f16506d066,2024-02-18_23h10.02.824,kallum_motion_pilot,2023.2.2,Win32,59.88023952,657b1a416348a0f16506d066,65d2b6c8f2eece985d8e374c,65d2b858ab9f1aa3eae61f6c,0.0397,0.0397,0,131,131,37,1,threefour,,,,,,,,,,,,,,,,,,,,,,,,,,,,,,,,,,,,,,,,,,,,,,,,,,,,,,,,,,,,,,,,,,,,,,,,,,,,,,,,,,,,,,,,,,,,,,,,,,,,,,,,,,,,,,,,,,,,,,,,,,,,,,,,,,,,,,,,,
,,657b1a416348a0f16506d066,2024-02-18_23h10.02.824,kallum_motion_pilot,2023.2.2,Win32,59.88023952,657b1a416348a0f16506d066,65d2b6c8f2eece985d8e374c,65d2b858ab9f1aa3eae61f6c,0.0398,0.0399,0,132,132,159,1,eightseven,,,,,,,,,,,,,,,,,,,,,,,,,,,,,,,,,,,,,,,,,,,,,,,,,,,,,,,,,,,,,,,,,,,,,,,,,,,,,,,,,,,,,,,,,,,,,,,,,,,,,,,,,,,,,,,,,,,,,,,,,,,,,,,,,,,,,,,,,
,,657b1a416348a0f16506d066,2024-02-18_23h10.02.824,kallum_motion_pilot,2023.2.2,Win32,59.88023952,657b1a416348a0f16506d066,65d2b6c8f2eece985d8e374c,65d2b858ab9f1aa3eae61f6c,0.0399,0.04,0,133,133,137,1,fiveseven,,,,,,,,,,,,,,,,,,,,,,,,,,,,,,,,,,,,,,,,,,,,,,,,,,,,,,,,,,,,,,,,,,,,,,,,,,,,,,,,,,,,,,,,,,,,,,,,,,,,,,,,,,,,,,,,,,,,,,,,,,,,,,,,,,,,,,,,,
,,657b1a416348a0f16506d066,2024-02-18_23h10.02.824,kallum_motion_pilot,2023.2.2,Win32,59.88023952,657b1a416348a0f16506d066,65d2b6c8f2eece985d8e374c,65d2b858ab9f1aa3eae61f6c,0.04,0.04,0,134,134,120,1,fivesix,,,,,,,,,,,,,,,,,,,,,,,,,,,,,,,,,,,,,,,,,,,,,,,,,,,,,,,,,,,,,,,,,,,,,,,,,,,,,,,,,,,,,,,,,,,,,,,,,,,,,,,,,,,,,,,,,,,,,,,,,,,,,,,,,,,,,,,,,
,,657b1a416348a0f16506d066,2024-02-18_23h10.02.824,kallum_motion_pilot,2023.2.2,Win32,59.88023952,657b1a416348a0f16506d066,65d2b6c8f2eece985d8e374c,65d2b858ab9f1aa3eae61f6c,0.0401,0.0402,0,135,135,26,1,twoone,,,,,,,,,,,,,,,,,,,,,,,,,,,,,,,,,,,,,,,,,,,,,,,,,,,,,,,,,,,,,,,,,,,,,,,,,,,,,,,,,,,,,,,,,,,,,,,,,,,,,,,,,,,,,,,,,,,,,,,,,,,,,,,,,,,,,,,,,
,,657b1a416348a0f16506d066,2024-02-18_23h10.02.824,kallum_motion_pilot,2023.2.2,Win32,59.88023952,657b1a416348a0f16506d066,65d2b6c8f2eece985d8e374c,65d2b858ab9f1aa3eae61f6c,0.0403,0.0403,0,136,136,107,1,sixeight,,,,,,,,,,,,,,,,,,,,,,,,,,,,,,,,,,,,,,,,,,,,,,,,,,,,,,,,,,,,,,,,,,,,,,,,,,,,,,,,,,,,,,,,,,,,,,,,,,,,,,,,,,,,,,,,,,,,,,,,,,,,,,,,,,,,,,,,,
,,657b1a416348a0f16506d066,2024-02-18_23h10.02.824,kallum_motion_pilot,2023.2.2,Win32,59.88023952,657b1a416348a0f16506d066,65d2b6c8f2eece985d8e374c,65d2b858ab9f1aa3eae61f6c,0.0404,0.0404,0,137,137,92,1,sevenfive,,,,,,,,,,,,,,,,,,,,,,,,,,,,,,,,,,,,,,,,,,,,,,,,,,,,,,,,,,,,,,,,,,,,,,,,,,,,,,,,,,,,,,,,,,,,,,,,,,,,,,,,,,,,,,,,,,,,,,,,,,,,,,,,,,,,,,,,,
,,657b1a416348a0f16506d066,2024-02-18_23h10.02.824,kallum_motion_pilot,2023.2.2,Win32,59.88023952,657b1a416348a0f16506d066,65d2b6c8f2eece985d8e374c,65d2b858ab9f1aa3eae61f6c,0.0405,0.0405,0,138,138,135,1,eightseven,,,,,,,,,,,,,,,,,,,,,,,,,,,,,,,,,,,,,,,,,,,,,,,,,,,,,,,,,,,,,,,,,,,,,,,,,,,,,,,,,,,,,,,,,,,,,,,,,,,,,,,,,,,,,,,,,,,,,,,,,,,,,,,,,,,,,,,,,
,,657b1a416348a0f16506d066,2024-02-18_23h10.02.824,kallum_motion_pilot,2023.2.2,Win32,59.88023952,657b1a416348a0f16506d066,65d2b6c8f2eece985d8e374c,65d2b858ab9f1aa3eae61f6c,0.0406,0.0406,0,139,139,86,1,eightsix,,,,,,,,,,,,,,,,,,,,,,,,,,,,,,,,,,,,,,,,,,,,,,,,,,,,,,,,,,,,,,,,,,,,,,,,,,,,,,,,,,,,,,,,,,,,,,,,,,,,,,,,,,,,,,,,,,,,,,,,,,,,,,,,,,,,,,,,,
,,657b1a416348a0f16506d066,2024-02-18_23h10.02.824,kallum_motion_pilot,2023.2.2,Win32,59.88023952,657b1a416348a0f16506d066,65d2b6c8f2eece985d8e374c,65d2b858ab9f1aa3eae61f6c,0.0407,0.0407,0,140,140,64,1,onetwo,,,,,,,,,,,,,,,,,,,,,,,,,,,,,,,,,,,,,,,,,,,,,,,,,,,,,,,,,,,,,,,,,,,,,,,,,,,,,,,,,,,,,,,,,,,,,,,,,,,,,,,,,,,,,,,,,,,,,,,,,,,,,,,,,,,,,,,,,
,,657b1a416348a0f16506d066,2024-02-18_23h10.02.824,kallum_motion_pilot,2023.2.2,Win32,59.88023952,657b1a416348a0f16506d066,65d2b6c8f2eece985d8e374c,65d2b858ab9f1aa3eae61f6c,0.0408,0.0408,0,141,141,133,1,seveneight,,,,,,,,,,,,,,,,,,,,,,,,,,,,,,,,,,,,,,,,,,,,,,,,,,,,,,,,,,,,,,,,,,,,,,,,,,,,,,,,,,,,,,,,,,,,,,,,,,,,,,,,,,,,,,,,,,,,,,,,,,,,,,,,,,,,,,,,,
,,657b1a416348a0f16506d066,2024-02-18_23h10.02.824,kallum_motion_pilot,2023.2.2,Win32,59.88023952,657b1a416348a0f16506d066,65d2b6c8f2eece985d8e374c,65d2b858ab9f1aa3eae61f6c,0.0408,0.0409,0,142,142,2,1,twoone,,,,,,,,,,,,,,,,,,,,,,,,,,,,,,,,,,,,,,,,,,,,,,,,,,,,,,,,,,,,,,,,,,,,,,,,,,,,,,,,,,,,,,,,,,,,,,,,,,,,,,,,,,,,,,,,,,,,,,,,,,,,,,,,,,,,,,,,,
,,657b1a416348a0f16506d066,2024-02-18_23h10.02.824,kallum_motion_pilot,2023.2.2,Win32,59.88023952,657b1a416348a0f16506d066,65d2b6c8f2eece985d8e374c,65d2b858ab9f1aa3eae61f6c,0.041,0.041,0,143,143,98,1,sixfive,,,,,,,,,,,,,,,,,,,,,,,,,,,,,,,,,,,,,,,,,,,,,,,,,,,,,,,,,,,,,,,,,,,,,,,,,,,,,,,,,,,,,,,,,,,,,,,,,,,,,,,,,,,,,,,,,,,,,,,,,,,,,,,,,,,,,,,,,
,,657b1a416348a0f16506d066,2024-02-18_23h10.02.824,kallum_motion_pilot,2023.2.2,Win32,59.88023952,657b1a416348a0f16506d066,65d2b6c8f2eece985d8e374c,65d2b858ab9f1aa3eae61f6c,0.0411,0.0411,0,144,144,110,1,eightsix,,,,,,,,,,,,,,,,,,,,,,,,,,,,,,,,,,,,,,,,,,,,,,,,,,,,,,,,,,,,,,,,,,,,,,,,,,,,,,,,,,,,,,,,,,,,,,,,,,,,,,,,,,,,,,,,,,,,,,,,,,,,,,,,,,,,,,,,,
,,657b1a416348a0f16506d066,2024-02-18_23h10.02.824,kallum_motion_pilot,2023.2.2,Win32,59.88023952,657b1a416348a0f16506d066,65d2b6c8f2eece985d8e374c,65d2b858ab9f1aa3eae61f6c,0.0412,0.0413,0,145,145,111,1,eightseven,,,,,,,,,,,,,,,,,,,,,,,,,,,,,,,,,,,,,,,,,,,,,,,,,,,,,,,,,,,,,,,,,,,,,,,,,,,,,,,,,,,,,,,,,,,,,,,,,,,,,,,,,,,,,,,,,,,,,,,,,,,,,,,,,,,,,,,,,
,,657b1a416348a0f16506d066,2024-02-18_23h10.02.824,kallum_motion_pilot,2023.2.2,Win32,59.88023952,657b1a416348a0f16506d066,65d2b6c8f2eece985d8e374c,65d2b858ab9f1aa3eae61f6c,0.0413,0.0413,0,146,146,149,1,seveneight,,,,,,,,,,,,,,,,,,,,,,,,,,,,,,,,,,,,,,,,,,,,,,,,,,,,,,,,,,,,,,,,,,,,,,,,,,,,,,,,,,,,,,,,,,,,,,,,,,,,,,,,,,,,,,,,,,,,,,,,,,,,,,,,,,,,,,,,,
,,657b1a416348a0f16506d066,2024-02-18_23h10.02.824,kallum_motion_pilot,2023.2.2,Win32,59.88023952,657b1a416348a0f16506d066,65d2b6c8f2eece985d8e374c,65d2b858ab9f1aa3eae61f6c,0.0414,0.0415,0,147,147,29,1,threefour,,,,,,,,,,,,,,,,,,,,,,,,,,,,,,,,,,,,,,,,,,,,,,,,,,,,,,,,,,,,,,,,,,,,,,,,,,,,,,,,,,,,,,,,,,,,,,,,,,,,,,,,,,,,,,,,,,,,,,,,,,,,,,,,,,,,,,,,,
,,657b1a416348a0f16506d066,2024-02-18_23h10.02.824,kallum_motion_pilot,2023.2.2,Win32,59.88023952,657b1a416348a0f16506d066,65d2b6c8f2eece985d8e374c,65d2b858ab9f1aa3eae61f6c,0.0415,0.0416,0,148,148,129,1,fiveseven,,,,,,,,,,,,,,,,,,,,,,,,,,,,,,,,,,,,,,,,,,,,,,,,,,,,,,,,,,,,,,,,,,,,,,,,,,,,,,,,,,,,,,,,,,,,,,,,,,,,,,,,,,,,,,,,,,,,,,,,,,,,,,,,,,,,,,,,,
,,657b1a416348a0f16506d066,2024-02-18_23h10.02.824,kallum_motion_pilot,2023.2.2,Win32,59.88023952,657b1a416348a0f16506d066,65d2b6c8f2eece985d8e374c,65d2b858ab9f1aa3eae61f6c,0.0416,0.0416,0,149,149,55,1,fourthree,,,,,,,,,,,,,,,,,,,,,,,,,,,,,,,,,,,,,,,,,,,,,,,,,,,,,,,,,,,,,,,,,,,,,,,,,,,,,,,,,,,,,,,,,,,,,,,,,,,,,,,,,,,,,,,,,,,,,,,,,,,,,,,,,,,,,,,,,
,,657b1a416348a0f16506d066,2024-02-18_23h10.02.824,kallum_motion_pilot,2023.2.2,Win32,59.88023952,657b1a416348a0f16506d066,65d2b6c8f2eece985d8e374c,65d2b858ab9f1aa3eae61f6c,0.0417,0.0418,0,150,150,161,1,fiveseven,,,,,,,,,,,,,,,,,,,,,,,,,,,,,,,,,,,,,,,,,,,,,,,,,,,,,,,,,,,,,,,,,,,,,,,,,,,,,,,,,,,,,,,,,,,,,,,,,,,,,,,,,,,,,,,,,,,,,,,,,,,,,,,,,,,,,,,,,
,,657b1a416348a0f16506d066,2024-02-18_23h10.02.824,kallum_motion_pilot,2023.2.2,Win32,59.88023952,657b1a416348a0f16506d066,65d2b6c8f2eece985d8e374c,65d2b858ab9f1aa3eae61f6c,0.0418,0.0418,0,151,151,82,1,sixfive,,,,,,,,,,,,,,,,,,,,,,,,,,,,,,,,,,,,,,,,,,,,,,,,,,,,,,,,,,,,,,,,,,,,,,,,,,,,,,,,,,,,,,,,,,,,,,,,,,,,,,,,,,,,,,,,,,,,,,,,,,,,,,,,,,,,,,,,,
,,657b1a416348a0f16506d066,2024-02-18_23h10.02.824,kallum_motion_pilot,2023.2.2,Win32,59.88023952,657b1a416348a0f16506d066,65d2b6c8f2eece985d8e374c,65d2b858ab9f1aa3eae61f6c,0.0419,0.042,0,152,152,1,1,onethree,,,,,,,,,,,,,,,,,,,,,,,,,,,,,,,,,,,,,,,,,,,,,,,,,,,,,,,,,,,,,,,,,,,,,,,,,,,,,,,,,,,,,,,,,,,,,,,,,,,,,,,,,,,,,,,,,,,,,,,,,,,,,,,,,,,,,,,,,
,,657b1a416348a0f16506d066,2024-02-18_23h10.02.824,kallum_motion_pilot,2023.2.2,Win32,59.88023952,657b1a416348a0f16506d066,65d2b6c8f2eece985d8e374c,65d2b858ab9f1aa3eae61f6c,0.0421,0.0421,0,153,153,121,1,fiveseven,,,,,,,,,,,,,,,,,,,,,,,,,,,,,,,,,,,,,,,,,,,,,,,,,,,,,,,,,,,,,,,,,,,,,,,,,,,,,,,,,,,,,,,,,,,,,,,,,,,,,,,,,,,,,,,,,,,,,,,,,,,,,,,,,,,,,,,,,
,,657b1a416348a0f16506d066,2024-02-18_23h10.02.824,kallum_motion_pilot,2023.2.2,Win32,59.88023952,657b1a416348a0f16506d066,65d2b6c8f2eece985d8e374c,65d2b858ab9f1aa3eae61f6c,0.0422,0.0422,0,154,154,115,1,sixeight,,,,,,,,,,,,,,,,,,,,,,,,,,,,,,,,,,,,,,,,,,,,,,,,,,,,,,,,,,,,,,,,,,,,,,,,,,,,,,,,,,,,,,,,,,,,,,,,,,,,,,,,,,,,,,,,,,,,,,,,,,,,,,,,,,,,,,,,,
,,657b1a416348a0f16506d066,2024-02-18_23h10.02.824,kallum_motion_pilot,2023.2.2,Win32,59.88023952,657b1a416348a0f16506d066,65d2b6c8f2eece985d8e374c,65d2b858ab9f1aa3eae61f6c,0.0423,0.0423,0,155,155,156,1,sevenfive,,,,,,,,,,,,,,,,,,,,,,,,,,,,,,,,,,,,,,,,,,,,,,,,,,,,,,,,,,,,,,,,,,,,,,,,,,,,,,,,,,,,,,,,,,,,,,,,,,,,,,,,,,,,,,,,,,,,,,,,,,,,,,,,,,,,,,,,,
,,657b1a416348a0f16506d066,2024-02-18_23h10.02.824,kallum_motion_pilot,2023.2.2,Win32,59.88023952,657b1a416348a0f16506d066,65d2b6c8f2eece985d8e374c,65d2b858ab9f1aa3eae61f6c,0.0423,0.0424,0,156,156,61,1,threefour,,,,,,,,,,,,,,,,,,,,,,,,,,,,,,,,,,,,,,,,,,,,,,,,,,,,,,,,,,,,,,,,,,,,,,,,,,,,,,,,,,,,,,,,,,,,,,,,,,,,,,,,,,,,,,,,,,,,,,,,,,,,,,,,,,,,,,,,,
,,657b1a416348a0f16506d066,2024-02-18_23h10.02.824,kallum_motion_pilot,2023.2.2,Win32,59.88023952,657b1a416348a0f16506d066,65d2b6c8f2eece985d8e374c,65d2b858ab9f1aa3eae61f6c,0.0424,0.0425,0,157,157,3,1,twofour,,,,,,,,,,,,,,,,,,,,,,,,,,,,,,,,,,,,,,,,,,,,,,,,,,,,,,,,,,,,,,,,,,,,,,,,,,,,,,,,,,,,,,,,,,,,,,,,,,,,,,,,,,,,,,,,,,,,,,,,,,,,,,,,,,,,,,,,,
,,657b1a416348a0f16506d066,2024-02-18_23h10.02.824,kallum_motion_pilot,2023.2.2,Win32,59.88023952,657b1a416348a0f16506d066,65d2b6c8f2eece985d8e374c,65d2b858ab9f1aa3eae61f6c,0.0426,0.0426,0,158,158,48,1,onetwo,,,,,,,,,,,,,,,,,,,,,,,,,,,,,,,,,,,,,,,,,,,,,,,,,,,,,,,,,,,,,,,,,,,,,,,,,,,,,,,,,,,,,,,,,,,,,,,,,,,,,,,,,,,,,,,,,,,,,,,,,,,,,,,,,,,,,,,,,
,,657b1a416348a0f16506d066,2024-02-18_23h10.02.824,kallum_motion_pilot,2023.2.2,Win32,59.88023952,657b1a416348a0f16506d066,65d2b6c8f2eece985d8e374c,65d2b858ab9f1aa3eae61f6c,0.0427,0.0427,0,159,159,138,1,sixfive,,,,,,,,,,,,,,,,,,,,,,,,,,,,,,,,,,,,,,,,,,,,,,,,,,,,,,,,,,,,,,,,,,,,,,,,,,,,,,,,,,,,,,,,,,,,,,,,,,,,,,,,,,,,,,,,,,,,,,,,,,,,,,,,,,,,,,,,,
,,657b1a416348a0f16506d066,2024-02-18_23h10.02.824,kallum_motion_pilot,2023.2.2,Win32,59.88023952,657b1a416348a0f16506d066,65d2b6c8f2eece985d8e374c,65d2b858ab9f1aa3eae61f6c,0.0428,0.0429,0,160,160,51,1,twofour,,,,,,,,,,,,,,,,,,,,,,,,,,,,,,,,,,,,,,,,,,,,,,,,,,,,,,,,,,,,,,,,,,,,,,,,,,,,,,,,,,,,,,,,,,,,,,,,,,,,,,,,,,,,,,,,,,,,,,,,,,,,,,,,,,,,,,,,,
,,657b1a416348a0f16506d066,2024-02-18_23h10.02.824,kallum_motion_pilot,2023.2.2,Win32,59.88023952,657b1a416348a0f16506d066,65d2b6c8f2eece985d8e374c,65d2b858ab9f1aa3eae61f6c,0.0429,0.043,0,161,161,80,1,fivesix,,,,,,,,,,,,,,,,,,,,,,,,,,,,,,,,,,,,,,,,,,,,,,,,,,,,,,,,,,,,,,,,,,,,,,,,,,,,,,,,,,,,,,,,,,,,,,,,,,,,,,,,,,,,,,,,,,,,,,,,,,,,,,,,,,,,,,,,,
,,657b1a416348a0f16506d066,2024-02-18_23h10.02.824,kallum_motion_pilot,2023.2.2,Win32,59.88023952,657b1a416348a0f16506d066,65d2b6c8f2eece985d8e374c,65d2b858ab9f1aa3eae61f6c,0.043,0.0431,1,0,162,113,1,fiveseven,,,,,,,,,,,,,,,,,,,,,,,,,,,,,,,,,,,,,,,,,,,,,,,,,,,,,,,,,,,,,,,,,,,,,,,,,,,,,,,,,,,,,,,,,,,,,,,,,,,,,,,,,,,,,,,,,,,,,,,,,,,,,,,,,,,,,,,,,
,,657b1a416348a0f16506d066,2024-02-18_23h10.02.824,kallum_motion_pilot,2023.2.2,Win32,59.88023952,657b1a416348a0f16506d066,65d2b6c8f2eece985d8e374c,65d2b858ab9f1aa3eae61f6c,0.0432,0.0433,1,1,163,104,1,fivesix,,,,,,,,,,,,,,,,,,,,,,,,,,,,,,,,,,,,,,,,,,,,,,,,,,,,,,,,,,,,,,,,,,,,,,,,,,,,,,,,,,,,,,,,,,,,,,,,,,,,,,,,,,,,,,,,,,,,,,,,,,,,,,,,,,,,,,,,,
,,657b1a416348a0f16506d066,2024-02-18_23h10.02.824,kallum_motion_pilot,2023.2.2,Win32,59.88023952,657b1a416348a0f16506d066,65d2b6c8f2eece985d8e374c,65d2b858ab9f1aa3eae61f6c,0.0433,0.0434,1,2,164,74,1,twoone,,,,,,,,,,,,,,,,,,,,,,,,,,,,,,,,,,,,,,,,,,,,,,,,,,,,,,,,,,,,,,,,,,,,,,,,,,,,,,,,,,,,,,,,,,,,,,,,,,,,,,,,,,,,,,,,,,,,,,,,,,,,,,,,,,,,,,,,,
,,657b1a416348a0f16506d066,2024-02-18_23h10.02.824,kallum_motion_pilot,2023.2.2,Win32,59.88023952,657b1a416348a0f16506d066,65d2b6c8f2eece985d8e374c,65d2b858ab9f1aa3eae61f6c,0.0434,0.0434,1,3,165,75,1,twofour,,,,,,,,,,,,,,,,,,,,,,,,,,,,,,,,,,,,,,,,,,,,,,,,,,,,,,,,,,,,,,,,,,,,,,,,,,,,,,,,,,,,,,,,,,,,,,,,,,,,,,,,,,,,,,,,,,,,,,,,,,,,,,,,,,,,,,,,,
,,657b1a416348a0f16506d066,2024-02-18_23h10.02.824,kallum_motion_pilot,2023.2.2,Win32,59.88023952,657b1a416348a0f16506d066,65d2b6c8f2eece985d8e374c,65d2b858ab9f1aa3eae61f6c,0.0435,0.0436,1,4,166,82,1,sixfive,,,,,,,,,,,,,,,,,,,,,,,,,,,,,,,,,,,,,,,,,,,,,,,,,,,,,,,,,,,,,,,,,,,,,,,,,,,,,,,,,,,,,,,,,,,,,,,,,,,,,,,,,,,,,,,,,,,,,,,,,,,,,,,,,,,,,,,,,
,,657b1a416348a0f16506d066,2024-02-18_23h10.02.824,kallum_motion_pilot,2023.2.2,Win32,59.88023952,657b1a416348a0f16506d066,65d2b6c8f2eece985d8e374c,65d2b858ab9f1aa3eae61f6c,0.0436,0.0437,1,5,167,108,1,sevenfive,,,,,,,,,,,,,,,,,,,,,,,,,,,,,,,,,,,,,,,,,,,,,,,,,,,,,,,,,,,,,,,,,,,,,,,,,,,,,,,,,,,,,,,,,,,,,,,,,,,,,,,,,,,,,,,,,,,,,,,,,,,,,,,,,,,,,,,,,
,,657b1a416348a0f16506d066,2024-02-18_23h10.02.824,kallum_motion_pilot,2023.2.2,Win32,59.88023952,657b1a416348a0f16506d066,65d2b6c8f2eece985d8e374c,65d2b858ab9f1aa3eae61f6c,0.0437,0.0438,1,6,168,79,1,eightseven,,,,,,,,,,,,,,,,,,,,,,,,,,,,,,,,,,,,,,,,,,,,,,,,,,,,,,,,,,,,,,,,,,,,,,,,,,,,,,,,,,,,,,,,,,,,,,,,,,,,,,,,,,,,,,,,,,,,,,,,,,,,,,,,,,,,,,,,,
,,657b1a416348a0f16506d066,2024-02-18_23h10.02.824,kallum_motion_pilot,2023.2.2,Win32,59.88023952,657b1a416348a0f16506d066,65d2b6c8f2eece985d8e374c,65d2b858ab9f1aa3eae61f6c,0.0439,0.0439,1,7,169,152,1,fivesix,,,,,,,,,,,,,,,,,,,,,,,,,,,,,,,,,,,,,,,,,,,,,,,,,,,,,,,,,,,,,,,,,,,,,,,,,,,,,,,,,,,,,,,,,,,,,,,,,,,,,,,,,,,,,,,,,,,,,,,,,,,,,,,,,,,,,,,,,
,,657b1a416348a0f16506d066,2024-02-18_23h10.02.824,kallum_motion_pilot,2023.2.2,Win32,59.88023952,657b1a416348a0f16506d066,65d2b6c8f2eece985d8e374c,65d2b858ab9f1aa3eae61f6c,0.0439,0.044,1,8,170,70,1,fourtwo,,,,,,,,,,,,,,,,,,,,,,,,,,,,,,,,,,,,,,,,,,,,,,,,,,,,,,,,,,,,,,,,,,,,,,,,,,,,,,,,,,,,,,,,,,,,,,,,,,,,,,,,,,,,,,,,,,,,,,,,,,,,,,,,,,,,,,,,,
,,657b1a416348a0f16506d066,2024-02-18_23h10.02.824,kallum_motion_pilot,2023.2.2,Win32,59.88023952,657b1a416348a0f16506d066,65d2b6c8f2eece985d8e374c,65d2b858ab9f1aa3eae61f6c,0.0441,0.0441,1,9,171,0,1,onetwo,,,,,,,,,,,,,,,,,,,,,,,,,,,,,,,,,,,,,,,,,,,,,,,,,,,,,,,,,,,,,,,,,,,,,,,,,,,,,,,,,,,,,,,,,,,,,,,,,,,,,,,,,,,,,,,,,,,,,,,,,,,,,,,,,,,,,,,,,
,,657b1a416348a0f16506d066,2024-02-18_23h10.02.824,kallum_motion_pilot,2023.2.2,Win32,59.88023952,657b1a416348a0f16506d066,65d2b6c8f2eece985d8e374c,65d2b858ab9f1aa3eae61f6c,0.0442,0.0442,1,10,172,52,1,threeone,,,,,,,,,,,,,,,,,,,,,,,,,,,,,,,,,,,,,,,,,,,,,,,,,,,,,,,,,,,,,,,,,,,,,,,,,,,,,,,,,,,,,,,,,,,,,,,,,,,,,,,,,,,,,,,,,,,,,,,,,,,,,,,,,,,,,,,,,
,,657b1a416348a0f16506d066,2024-02-18_23h10.02.824,kallum_motion_pilot,2023.2.2,Win32,59.88023952,657b1a416348a0f16506d066,65d2b6c8f2eece985d8e374c,65d2b858ab9f1aa3eae61f6c,0.0443,0.0444,1,11,173,137,1,fiveseven,,,,,,,,,,,,,,,,,,,,,,,,,,,,,,,,,,,,,,,,,,,,,,,,,,,,,,,,,,,,,,,,,,,,,,,,,,,,,,,,,,,,,,,,,,,,,,,,,,,,,,,,,,,,,,,,,,,,,,,,,,,,,,,,,,,,,,,,,
,,657b1a416348a0f16506d066,2024-02-18_23h10.02.824,kallum_motion_pilot,2023.2.2,Win32,59.88023952,657b1a416348a0f16506d066,65d2b6c8f2eece985d8e374c,65d2b858ab9f1aa3eae61f6c,0.0444,0.0445,1,12,174,72,1,onetwo,,,,,,,,,,,,,,,,,,,,,,,,,,,,,,,,,,,,,,,,,,,,,,,,,,,,,,,,,,,,,,,,,,,,,,,,,,,,,,,,,,,,,,,,,,,,,,,,,,,,,,,,,,,,,,,,,,,,,,,,,,,,,,,,,,,,,,,,,
,,657b1a416348a0f16506d066,2024-02-18_23h10.02.824,kallum_motion_pilot,2023.2.2,Win32,59.88023952,657b1a416348a0f16506d066,65d2b6c8f2eece985d8e374c,65d2b858ab9f1aa3eae61f6c,0.0445,0.0445,1,13,175,29,1,threefour,,,,,,,,,,,,,,,,,,,,,,,,,,,,,,,,,,,,,,,,,,,,,,,,,,,,,,,,,,,,,,,,,,,,,,,,,,,,,,,,,,,,,,,,,,,,,,,,,,,,,,,,,,,,,,,,,,,,,,,,,,,,,,,,,,,,,,,,,
,,657b1a416348a0f16506d066,2024-02-18_23h10.02.824,kallum_motion_pilot,2023.2.2,Win32,59.88023952,657b1a416348a0f16506d066,65d2b6c8f2eece985d8e374c,65d2b858ab9f1aa3eae61f6c,0.0446,0.0447,1,14,176,146,1,sixfive,,,,,,,,,,,,,,,,,,,,,,,,,,,,,,,,,,,,,,,,,,,,,,,,,,,,,,,,,,,,,,,,,,,,,,,,,,,,,,,,,,,,,,,,,,,,,,,,,,,,,,,,,,,,,,,,,,,,,,,,,,,,,,,,,,,,,,,,,
,,657b1a416348a0f16506d066,2024-02-18_23h10.02.824,kallum_motion_pilot,2023.2.2,Win32,59.88023952,657b1a416348a0f16506d066,65d2b6c8f2eece985d8e374c,65d2b858ab9f1aa3eae61f6c,0.0448,0.0448,1,15,177,99,1,sixeight,,,,,,,,,,,,,,,,,,,,,,,,,,,,,,,,,,,,,,,,,,,,,,,,,,,,,,,,,,,,,,,,,,,,,,,,,,,,,,,,,,,,,,,,,,,,,,,,,,,,,,,,,,,,,,,,,,,,,,,,,,,,,,,,,,,,,,,,,
,,657b1a416348a0f16506d066,2024-02-18_23h10.02.824,kallum_motion_pilot,2023.2.2,Win32,59.88023952,657b1a416348a0f16506d066,65d2b6c8f2eece985d8e374c,65d2b858ab9f1aa3eae61f6c,0.0448,0.0449,1,16,178,34,1,twoone,,,,,,,,,,,,,,,,,,,,,,,,,,,,,,,,,,,,,,,,,,,,,,,,,,,,,,,,,,,,,,,,,,,,,,,,,,,,,,,,,,,,,,,,,,,,,,,,,,,,,,,,,,,,,,,,,,,,,,,,,,,,,,,,,,,,,,,,,
,,657b1a416348a0f16506d066,2024-02-18_23h10.02.824,kallum_motion_pilot,2023.2.2,Win32,59.88023952,657b1a416348a0f16506d066,65d2b6c8f2eece985d8e374c,65d2b858ab9f1aa3eae61f6c,0.045,0.045,1,17,179,96,1,fivesix,,,,,,,,,,,,,,,,,,,,,,,,,,,,,,,,,,,,,,,,,,,,,,,,,,,,,,,,,,,,,,,,,,,,,,,,,,,,,,,,,,,,,,,,,,,,,,,,,,,,,,,,,,,,,,,,,,,,,,,,,,,,,,,,,,,,,,,,,
,,657b1a416348a0f16506d066,2024-02-18_23h10.02.824,kallum_motion_pilot,2023.2.2,Win32,59.88023952,657b1a416348a0f16506d066,65d2b6c8f2eece985d8e374c,65d2b858ab9f1aa3eae61f6c,0.0451,0.0451,1,18,180,61,1,threefour,,,,,,,,,,,,,,,,,,,,,,,,,,,,,,,,,,,,,,,,,,,,,,,,,,,,,,,,,,,,,,,,,,,,,,,,,,,,,,,,,,,,,,,,,,,,,,,,,,,,,,,,,,,,,,,,,,,,,,,,,,,,,,,,,,,,,,,,,
,,657b1a416348a0f16506d066,2024-02-18_23h10.02.824,kallum_motion_pilot,2023.2.2,Win32,59.88023952,657b1a416348a0f16506d066,65d2b6c8f2eece985d8e374c,65d2b858ab9f1aa3eae61f6c,0.0453,0.0453,1,19,181,90,1,sixfive,,,,,,,,,,,,,,,,,,,,,,,,,,,,,,,,,,,,,,,,,,,,,,,,,,,,,,,,,,,,,,,,,,,,,,,,,,,,,,,,,,,,,,,,,,,,,,,,,,,,,,,,,,,,,,,,,,,,,,,,,,,,,,,,,,,,,,,,,
,,657b1a416348a0f16506d066,2024-02-18_23h10.02.824,kallum_motion_pilot,2023.2.2,Win32,59.88023952,657b1a416348a0f16506d066,65d2b6c8f2eece985d8e374c,65d2b858ab9f1aa3eae61f6c,0.0453,0.0454,1,20,182,109,1,seveneight,,,,,,,,,,,,,,,,,,,,,,,,,,,,,,,,,,,,,,,,,,,,,,,,,,,,,,,,,,,,,,,,,,,,,,,,,,,,,,,,,,,,,,,,,,,,,,,,,,,,,,,,,,,,,,,,,,,,,,,,,,,,,,,,,,,,,,,,,
,,657b1a416348a0f16506d066,2024-02-18_23h10.02.824,kallum_motion_pilot,2023.2.2,Win32,59.88023952,657b1a416348a0f16506d066,65d2b6c8f2eece985d8e374c,65d2b858ab9f1aa3eae61f6c,0.0455,0.0455,1,21,183,131,1,sixeight,,,,,,,,,,,,,,,,,,,,,,,,,,,,,,,,,,,,,,,,,,,,,,,,,,,,,,,,,,,,,,,,,,,,,,,,,,,,,,,,,,,,,,,,,,,,,,,,,,,,,,,,,,,,,,,,,,,,,,,,,,,,,,,,,,,,,,,,,
,,657b1a416348a0f16506d066,2024-02-18_23h10.02.824,kallum_motion_pilot,2023.2.2,Win32,59.88023952,657b1a416348a0f16506d066,65d2b6c8f2eece985d8e374c,65d2b858ab9f1aa3eae61f6c,0.0456,0.0456,1,22,184,43,1,twofour,,,,,,,,,,,,,,,,,,,,,,,,,,,,,,,,,,,,,,,,,,,,,,,,,,,,,,,,,,,,,,,,,,,,,,,,,,,,,,,,,,,,,,,,,,,,,,,,,,,,,,,,,,,,,,,,,,,,,,,,,,,,,,,,,,,,,,,,,
,,657b1a416348a0f16506d066,2024-02-18_23h10.02.824,kallum_motion_pilot,2023.2.2,Win32,59.88023952,657b1a416348a0f16506d066,65d2b6c8f2eece985d8e374c,65d2b858ab9f1aa3eae61f6c,0.0458,0.0459,1,23,185,156,1,sevenfive,,,,,,,,,,,,,,,,,,,,,,,,,,,,,,,,,,,,,,,,,,,,,,,,,,,,,,,,,,,,,,,,,,,,,,,,,,,,,,,,,,,,,,,,,,,,,,,,,,,,,,,,,,,,,,,,,,,,,,,,,,,,,,,,,,,,,,,,,
,,657b1a416348a0f16506d066,2024-02-18_23h10.02.824,kallum_motion_pilot,2023.2.2,Win32,59.88023952,657b1a416348a0f16506d066,65d2b6c8f2eece985d8e374c,65d2b858ab9f1aa3eae61f6c,0.046,0.0461,1,24,186,49,1,onethree,,,,,,,,,,,,,,,,,,,,,,,,,,,,,,,,,,,,,,,,,,,,,,,,,,,,,,,,,,,,,,,,,,,,,,,,,,,,,,,,,,,,,,,,,,,,,,,,,,,,,,,,,,,,,,,,,,,,,,,,,,,,,,,,,,,,,,,,,
,,657b1a416348a0f16506d066,2024-02-18_23h10.02.824,kallum_motion_pilot,2023.2.2,Win32,59.88023952,657b1a416348a0f16506d066,65d2b6c8f2eece985d8e374c,65d2b858ab9f1aa3eae61f6c,0.0462,0.0462,1,25,187,64,1,onetwo,,,,,,,,,,,,,,,,,,,,,,,,,,,,,,,,,,,,,,,,,,,,,,,,,,,,,,,,,,,,,,,,,,,,,,,,,,,,,,,,,,,,,,,,,,,,,,,,,,,,,,,,,,,,,,,,,,,,,,,,,,,,,,,,,,,,,,,,,
,,657b1a416348a0f16506d066,2024-02-18_23h10.02.824,kallum_motion_pilot,2023.2.2,Win32,59.88023952,657b1a416348a0f16506d066,65d2b6c8f2eece985d8e374c,65d2b858ab9f1aa3eae61f6c,0.0463,0.0463,1,26,188,136,1,fivesix,,,,,,,,,,,,,,,,,,,,,,,,,,,,,,,,,,,,,,,,,,,,,,,,,,,,,,,,,,,,,,,,,,,,,,,,,,,,,,,,,,,,,,,,,,,,,,,,,,,,,,,,,,,,,,,,,,,,,,,,,,,,,,,,,,,,,,,,,
,,657b1a416348a0f16506d066,2024-02-18_23h10.02.824,kallum_motion_pilot,2023.2.2,Win32,59.88023952,657b1a416348a0f16506d066,65d2b6c8f2eece985d8e374c,65d2b858ab9f1aa3eae61f6c,0.0464,0.0464,1,27,189,37,1,threefour,,,,,,,,,,,,,,,,,,,,,,,,,,,,,,,,,,,,,,,,,,,,,,,,,,,,,,,,,,,,,,,,,,,,,,,,,,,,,,,,,,,,,,,,,,,,,,,,,,,,,,,,,,,,,,,,,,,,,,,,,,,,,,,,,,,,,,,,,
,,657b1a416348a0f16506d066,2024-02-18_23h10.02.824,kallum_motion_pilot,2023.2.2,Win32,59.88023952,657b1a416348a0f16506d066,65d2b6c8f2eece985d8e374c,65d2b858ab9f1aa3eae61f6c,0.0464,0.0466,1,28,190,144,1,fivesix,,,,,,,,,,,,,,,,,,,,,,,,,,,,,,,,,,,,,,,,,,,,,,,,,,,,,,,,,,,,,,,,,,,,,,,,,,,,,,,,,,,,,,,,,,,,,,,,,,,,,,,,,,,,,,,,,,,,,,,,,,,,,,,,,,,,,,,,,
,,657b1a416348a0f16506d066,2024-02-18_23h10.02.824,kallum_motion_pilot,2023.2.2,Win32,59.88023952,657b1a416348a0f16506d066,65d2b6c8f2eece985d8e374c,65d2b858ab9f1aa3eae61f6c,0.0466,0.0467,1,29,191,17,1,onethree,,,,,,,,,,,,,,,,,,,,,,,,,,,,,,,,,,,,,,,,,,,,,,,,,,,,,,,,,,,,,,,,,,,,,,,,,,,,,,,,,,,,,,,,,,,,,,,,,,,,,,,,,,,,,,,,,,,,,,,,,,,,,,,,,,,,,,,,,
,,657b1a416348a0f16506d066,2024-02-18_23h10.02.824,kallum_motion_pilot,2023.2.2,Win32,59.88023952,657b1a416348a0f16506d066,65d2b6c8f2eece985d8e374c,65d2b858ab9f1aa3eae61f6c,0.0467,0.0468,1,30,192,142,1,eightsix,,,,,,,,,,,,,,,,,,,,,,,,,,,,,,,,,,,,,,,,,,,,,,,,,,,,,,,,,,,,,,,,,,,,,,,,,,,,,,,,,,,,,,,,,,,,,,,,,,,,,,,,,,,,,,,,,,,,,,,,,,,,,,,,,,,,,,,,,
,,657b1a416348a0f16506d066,2024-02-18_23h10.02.824,kallum_motion_pilot,2023.2.2,Win32,59.88023952,657b1a416348a0f16506d066,65d2b6c8f2eece985d8e374c,65d2b858ab9f1aa3eae61f6c,0.0469,0.0469,1,31,193,3,1,twofour,,,,,,,,,,,,,,,,,,,,,,,,,,,,,,,,,,,,,,,,,,,,,,,,,,,,,,,,,,,,,,,,,,,,,,,,,,,,,,,,,,,,,,,,,,,,,,,,,,,,,,,,,,,,,,,,,,,,,,,,,,,,,,,,,,,,,,,,,
,,657b1a416348a0f16506d066,2024-02-18_23h10.02.824,kallum_motion_pilot,2023.2.2,Win32,59.88023952,657b1a416348a0f16506d066,65d2b6c8f2eece985d8e374c,65d2b858ab9f1aa3eae61f6c,0.047,0.0471,1,32,194,139,1,sixeight,,,,,,,,,,,,,,,,,,,,,,,,,,,,,,,,,,,,,,,,,,,,,,,,,,,,,,,,,,,,,,,,,,,,,,,,,,,,,,,,,,,,,,,,,,,,,,,,,,,,,,,,,,,,,,,,,,,,,,,,,,,,,,,,,,,,,,,,,
,,657b1a416348a0f16506d066,2024-02-18_23h10.02.824,kallum_motion_pilot,2023.2.2,Win32,59.88023952,657b1a416348a0f16506d066,65d2b6c8f2eece985d8e374c,65d2b858ab9f1aa3eae61f6c,0.0471,0.0472,1,33,195,128,1,fivesix,,,,,,,,,,,,,,,,,,,,,,,,,,,,,,,,,,,,,,,,,,,,,,,,,,,,,,,,,,,,,,,,,,,,,,,,,,,,,,,,,,,,,,,,,,,,,,,,,,,,,,,,,,,,,,,,,,,,,,,,,,,,,,,,,,,,,,,,,
,,657b1a416348a0f16506d066,2024-02-18_23h10.02.824,kallum_motion_pilot,2023.2.2,Win32,59.88023952,657b1a416348a0f16506d066,65d2b6c8f2eece985d8e374c,65d2b858ab9f1aa3eae61f6c,0.0473,0.0473,1,34,196,48,1,onetwo,,,,,,,,,,,,,,,,,,,,,,,,,,,,,,,,,,,,,,,,,,,,,,,,,,,,,,,,,,,,,,,,,,,,,,,,,,,,,,,,,,,,,,,,,,,,,,,,,,,,,,,,,,,,,,,,,,,,,,,,,,,,,,,,,,,,,,,,,
,,657b1a416348a0f16506d066,2024-02-18_23h10.02.824,kallum_motion_pilot,2023.2.2,Win32,59.88023952,657b1a416348a0f16506d066,65d2b6c8f2eece985d8e374c,65d2b858ab9f1aa3eae61f6c,0.0474,0.0474,1,35,197,41,1,onethree,,,,,,,,,,,,,,,,,,,,,,,,,,,,,,,,,,,,,,,,,,,,,,,,,,,,,,,,,,,,,,,,,,,,,,,,,,,,,,,,,,,,,,,,,,,,,,,,,,,,,,,,,,,,,,,,,,,,,,,,,,,,,,,,,,,,,,,,,
,,657b1a416348a0f16506d066,2024-02-18_23h10.02.824,kallum_motion_pilot,2023.2.2,Win32,59.88023952,657b1a416348a0f16506d066,65d2b6c8f2eece985d8e374c,65d2b858ab9f1aa3eae61f6c,0.0475,0.0475,1,36,198,54,1,fourtwo,,,,,,,,,,,,,,,,,,,,,,,,,,,,,,,,,,,,,,,,,,,,,,,,,,,,,,,,,,,,,,,,,,,,,,,,,,,,,,,,,,,,,,,,,,,,,,,,,,,,,,,,,,,,,,,,,,,,,,,,,,,,,,,,,,,,,,,,,
,,657b1a416348a0f16506d066,2024-02-18_23h10.02.824,kallum_motion_pilot,2023.2.2,Win32,59.88023952,657b1a416348a0f16506d066,65d2b6c8f2eece985d8e374c,65d2b858ab9f1aa3eae61f6c,0.0477,0.0477,1,37,199,15,1,fourthree,,,,,,,,,,,,,,,,,,,,,,,,,,,,,,,,,,,,,,,,,,,,,,,,,,,,,,,,,,,,,,,,,,,,,,,,,,,,,,,,,,,,,,,,,,,,,,,,,,,,,,,,,,,,,,,,,,,,,,,,,,,,,,,,,,,,,,,,,
,,657b1a416348a0f16506d066,2024-02-18_23h10.02.824,kallum_motion_pilot,2023.2.2,Win32,59.88023952,657b1a416348a0f16506d066,65d2b6c8f2eece985d8e374c,65d2b858ab9f1aa3eae61f6c,0.0478,0.0478,1,38,200,149,1,seveneight,,,,,,,,,,,,,,,,,,,,,,,,,,,,,,,,,,,,,,,,,,,,,,,,,,,,,,,,,,,,,,,,,,,,,,,,,,,,,,,,,,,,,,,,,,,,,,,,,,,,,,,,,,,,,,,,,,,,,,,,,,,,,,,,,,,,,,,,,
,,657b1a416348a0f16506d066,2024-02-18_23h10.02.824,kallum_motion_pilot,2023.2.2,Win32,59.88023952,657b1a416348a0f16506d066,65d2b6c8f2eece985d8e374c,65d2b858ab9f1aa3eae61f6c,0.0478,0.048,1,39,201,21,1,threefour,,,,,,,,,,,,,,,,,,,,,,,,,,,,,,,,,,,,,,,,,,,,,,,,,,,,,,,,,,,,,,,,,,,,,,,,,,,,,,,,,,,,,,,,,,,,,,,,,,,,,,,,,,,,,,,,,,,,,,,,,,,,,,,,,,,,,,,,,
,,657b1a416348a0f16506d066,2024-02-18_23h10.02.824,kallum_motion_pilot,2023.2.2,Win32,59.88023952,657b1a416348a0f16506d066,65d2b6c8f2eece985d8e374c,65d2b858ab9f1aa3eae61f6c,0.048,0.048,1,40,202,8,1,onetwo,,,,,,,,,,,,,,,,,,,,,,,,,,,,,,,,,,,,,,,,,,,,,,,,,,,,,,,,,,,,,,,,,,,,,,,,,,,,,,,,,,,,,,,,,,,,,,,,,,,,,,,,,,,,,,,,,,,,,,,,,,,,,,,,,,,,,,,,,
,,657b1a416348a0f16506d066,2024-02-18_23h10.02.824,kallum_motion_pilot,2023.2.2,Win32,59.88023952,657b1a416348a0f16506d066,65d2b6c8f2eece985d8e374c,65d2b858ab9f1aa3eae61f6c,0.0481,0.0482,1,41,203,42,1,twoone,,,,,,,,,,,,,,,,,,,,,,,,,,,,,,,,,,,,,,,,,,,,,,,,,,,,,,,,,,,,,,,,,,,,,,,,,,,,,,,,,,,,,,,,,,,,,,,,,,,,,,,,,,,,,,,,,,,,,,,,,,,,,,,,,,,,,,,,,
,,657b1a416348a0f16506d066,2024-02-18_23h10.02.824,kallum_motion_pilot,2023.2.2,Win32,59.88023952,657b1a416348a0f16506d066,65d2b6c8f2eece985d8e374c,65d2b858ab9f1aa3eae61f6c,0.0483,0.0483,1,42,204,81,1,fiveseven,,,,,,,,,,,,,,,,,,,,,,,,,,,,,,,,,,,,,,,,,,,,,,,,,,,,,,,,,,,,,,,,,,,,,,,,,,,,,,,,,,,,,,,,,,,,,,,,,,,,,,,,,,,,,,,,,,,,,,,,,,,,,,,,,,,,,,,,,
,,657b1a416348a0f16506d066,2024-02-18_23h10.02.824,kallum_motion_pilot,2023.2.2,Win32,59.88023952,657b1a416348a0f16506d066,65d2b6c8f2eece985d8e374c,65d2b858ab9f1aa3eae61f6c,0.0484,0.0484,1,43,205,18,1,twoone,,,,,,,,,,,,,,,,,,,,,,,,,,,,,,,,,,,,,,,,,,,,,,,,,,,,,,,,,,,,,,,,,,,,,,,,,,,,,,,,,,,,,,,,,,,,,,,,,,,,,,,,,,,,,,,,,,,,,,,,,,,,,,,,,,,,,,,,,
,,657b1a416348a0f16506d066,2024-02-18_23h10.02.824,kallum_motion_pilot,2023.2.2,Win32,59.88023952,657b1a416348a0f16506d066,65d2b6c8f2eece985d8e374c,65d2b858ab9f1aa3eae61f6c,0.0484,0.0486,1,44,206,19,1,twofour,,,,,,,,,,,,,,,,,,,,,,,,,,,,,,,,,,,,,,,,,,,,,,,,,,,,,,,,,,,,,,,,,,,,,,,,,,,,,,,,,,,,,,,,,,,,,,,,,,,,,,,,,,,,,,,,,,,,,,,,,,,,,,,,,,,,,,,,,
,,657b1a416348a0f16506d066,2024-02-18_23h10.02.824,kallum_motion_pilot,2023.2.2,Win32,59.88023952,657b1a416348a0f16506d066,65d2b6c8f2eece985d8e374c,65d2b858ab9f1aa3eae61f6c,0.0486,0.0487,1,45,207,2,1,twoone,,,,,,,,,,,,,,,,,,,,,,,,,,,,,,,,,,,,,,,,,,,,,,,,,,,,,,,,,,,,,,,,,,,,,,,,,,,,,,,,,,,,,,,,,,,,,,,,,,,,,,,,,,,,,,,,,,,,,,,,,,,,,,,,,,,,,,,,,
,,657b1a416348a0f16506d066,2024-02-18_23h10.02.824,kallum_motion_pilot,2023.2.2,Win32,59.88023952,657b1a416348a0f16506d066,65d2b6c8f2eece985d8e374c,65d2b858ab9f1aa3eae61f6c,0.0487,0.0488,1,46,208,121,1,fiveseven,,,,,,,,,,,,,,,,,,,,,,,,,,,,,,,,,,,,,,,,,,,,,,,,,,,,,,,,,,,,,,,,,,,,,,,,,,,,,,,,,,,,,,,,,,,,,,,,,,,,,,,,,,,,,,,,,,,,,,,,,,,,,,,,,,,,,,,,,
,,657b1a416348a0f16506d066,2024-02-18_23h10.02.824,kallum_motion_pilot,2023.2.2,Win32,59.88023952,657b1a416348a0f16506d066,65d2b6c8f2eece985d8e374c,65d2b858ab9f1aa3eae61f6c,0.0489,0.0489,1,47,209,103,1,eightseven,,,,,,,,,,,,,,,,,,,,,,,,,,,,,,,,,,,,,,,,,,,,,,,,,,,,,,,,,,,,,,,,,,,,,,,,,,,,,,,,,,,,,,,,,,,,,,,,,,,,,,,,,,,,,,,,,,,,,,,,,,,,,,,,,,,,,,,,,
,,657b1a416348a0f16506d066,2024-02-18_23h10.02.824,kallum_motion_pilot,2023.2.2,Win32,59.88023952,657b1a416348a0f16506d066,65d2b6c8f2eece985d8e374c,65d2b858ab9f1aa3eae61f6c,0.0489,0.049,1,48,210,91,1,sixeight,,,,,,,,,,,,,,,,,,,,,,,,,,,,,,,,,,,,,,,,,,,,,,,,,,,,,,,,,,,,,,,,,,,,,,,,,,,,,,,,,,,,,,,,,,,,,,,,,,,,,,,,,,,,,,,,,,,,,,,,,,,,,,,,,,,,,,,,,
,,657b1a416348a0f16506d066,2024-02-18_23h10.02.824,kallum_motion_pilot,2023.2.2,Win32,59.88023952,657b1a416348a0f16506d066,65d2b6c8f2eece985d8e374c,65d2b858ab9f1aa3eae61f6c,0.0491,0.0491,1,49,211,112,1,fivesix,,,,,,,,,,,,,,,,,,,,,,,,,,,,,,,,,,,,,,,,,,,,,,,,,,,,,,,,,,,,,,,,,,,,,,,,,,,,,,,,,,,,,,,,,,,,,,,,,,,,,,,,,,,,,,,,,,,,,,,,,,,,,,,,,,,,,,,,,
,,657b1a416348a0f16506d066,2024-02-18_23h10.02.824,kallum_motion_pilot,2023.2.2,Win32,59.88023952,657b1a416348a0f16506d066,65d2b6c8f2eece985d8e374c,65d2b858ab9f1aa3eae61f6c,0.0492,0.0493,1,50,212,106,1,sixfive,,,,,,,,,,,,,,,,,,,,,,,,,,,,,,,,,,,,,,,,,,,,,,,,,,,,,,,,,,,,,,,,,,,,,,,,,,,,,,,,,,,,,,,,,,,,,,,,,,,,,,,,,,,,,,,,,,,,,,,,,,,,,,,,,,,,,,,,,
,,657b1a416348a0f16506d066,2024-02-18_23h10.02.824,kallum_motion_pilot,2023.2.2,Win32,59.88023952,657b1a416348a0f16506d066,65d2b6c8f2eece985d8e374c,65d2b858ab9f1aa3eae61f6c,0.0493,0.0495,1,51,213,145,1,fiveseven,,,,,,,,,,,,,,,,,,,,,,,,,,,,,,,,,,,,,,,,,,,,,,,,,,,,,,,,,,,,,,,,,,,,,,,,,,,,,,,,,,,,,,,,,,,,,,,,,,,,,,,,,,,,,,,,,,,,,,,,,,,,,,,,,,,,,,,,,
,,657b1a416348a0f16506d066,2024-02-18_23h10.02.824,kallum_motion_pilot,2023.2.2,Win32,59.88023952,657b1a416348a0f16506d066,65d2b6c8f2eece985d8e374c,65d2b858ab9f1aa3eae61f6c,0.0495,0.0495,1,52,214,26,1,twoone,,,,,,,,,,,,,,,,,,,,,,,,,,,,,,,,,,,,,,,,,,,,,,,,,,,,,,,,,,,,,,,,,,,,,,,,,,,,,,,,,,,,,,,,,,,,,,,,,,,,,,,,,,,,,,,,,,,,,,,,,,,,,,,,,,,,,,,,,
,,657b1a416348a0f16506d066,2024-02-18_23h10.02.824,kallum_motion_pilot,2023.2.2,Win32,59.88023952,657b1a416348a0f16506d066,65d2b6c8f2eece985d8e374c,65d2b858ab9f1aa3eae61f6c,0.0496,0.0496,1,53,215,50,1,twoone,,,,,,,,,,,,,,,,,,,,,,,,,,,,,,,,,,,,,,,,,,,,,,,,,,,,,,,,,,,,,,,,,,,,,,,,,,,,,,,,,,,,,,,,,,,,,,,,,,,,,,,,,,,,,,,,,,,,,,,,,,,,,,,,,,,,,,,,,
,,657b1a416348a0f16506d066,2024-02-18_23h10.02.824,kallum_motion_pilot,2023.2.2,Win32,59.88023952,657b1a416348a0f16506d066,65d2b6c8f2eece985d8e374c,65d2b858ab9f1aa3eae61f6c,0.0497,0.0498,1,54,216,55,1,fourthree,,,,,,,,,,,,,,,,,,,,,,,,,,,,,,,,,,,,,,,,,,,,,,,,,,,,,,,,,,,,,,,,,,,,,,,,,,,,,,,,,,,,,,,,,,,,,,,,,,,,,,,,,,,,,,,,,,,,,,,,,,,,,,,,,,,,,,,,,
,,657b1a416348a0f16506d066,2024-02-18_23h10.02.824,kallum_motion_pilot,2023.2.2,Win32,59.88023952,657b1a416348a0f16506d066,65d2b6c8f2eece985d8e374c,65d2b858ab9f1aa3eae61f6c,0.0498,0.0499,1,55,217,158,1,eightsix,,,,,,,,,,,,,,,,,,,,,,,,,,,,,,,,,,,,,,,,,,,,,,,,,,,,,,,,,,,,,,,,,,,,,,,,,,,,,,,,,,,,,,,,,,,,,,,,,,,,,,,,,,,,,,,,,,,,,,,,,,,,,,,,,,,,,,,,,
,,657b1a416348a0f16506d066,2024-02-18_23h10.02.824,kallum_motion_pilot,2023.2.2,Win32,59.88023952,657b1a416348a0f16506d066,65d2b6c8f2eece985d8e374c,65d2b858ab9f1aa3eae61f6c,0.05,0.05,1,56,218,7,1,fourthree,,,,,,,,,,,,,,,,,,,,,,,,,,,,,,,,,,,,,,,,,,,,,,,,,,,,,,,,,,,,,,,,,,,,,,,,,,,,,,,,,,,,,,,,,,,,,,,,,,,,,,,,,,,,,,,,,,,,,,,,,,,,,,,,,,,,,,,,,
,,657b1a416348a0f16506d066,2024-02-18_23h10.02.824,kallum_motion_pilot,2023.2.2,Win32,59.88023952,657b1a416348a0f16506d066,65d2b6c8f2eece985d8e374c,65d2b858ab9f1aa3eae61f6c,0.0501,0.0502,1,57,219,10,1,twoone,,,,,,,,,,,,,,,,,,,,,,,,,,,,,,,,,,,,,,,,,,,,,,,,,,,,,,,,,,,,,,,,,,,,,,,,,,,,,,,,,,,,,,,,,,,,,,,,,,,,,,,,,,,,,,,,,,,,,,,,,,,,,,,,,,,,,,,,,
,,657b1a416348a0f16506d066,2024-02-18_23h10.02.824,kallum_motion_pilot,2023.2.2,Win32,59.88023952,657b1a416348a0f16506d066,65d2b6c8f2eece985d8e374c,65d2b858ab9f1aa3eae61f6c,0.0503,0.0503,1,58,220,73,1,onethree,,,,,,,,,,,,,,,,,,,,,,,,,,,,,,,,,,,,,,,,,,,,,,,,,,,,,,,,,,,,,,,,,,,,,,,,,,,,,,,,,,,,,,,,,,,,,,,,,,,,,,,,,,,,,,,,,,,,,,,,,,,,,,,,,,,,,,,,,
,,657b1a416348a0f16506d066,2024-02-18_23h10.02.824,kallum_motion_pilot,2023.2.2,Win32,59.88023952,657b1a416348a0f16506d066,65d2b6c8f2eece985d8e374c,65d2b858ab9f1aa3eae61f6c,0.0504,0.0504,1,59,221,86,1,eightsix,,,,,,,,,,,,,,,,,,,,,,,,,,,,,,,,,,,,,,,,,,,,,,,,,,,,,,,,,,,,,,,,,,,,,,,,,,,,,,,,,,,,,,,,,,,,,,,,,,,,,,,,,,,,,,,,,,,,,,,,,,,,,,,,,,,,,,,,,
,,657b1a416348a0f16506d066,2024-02-18_23h10.02.824,kallum_motion_pilot,2023.2.2,Win32,59.88023952,657b1a416348a0f16506d066,65d2b6c8f2eece985d8e374c,65d2b858ab9f1aa3eae61f6c,0.0505,0.0506,1,60,222,117,1,seveneight,,,,,,,,,,,,,,,,,,,,,,,,,,,,,,,,,,,,,,,,,,,,,,,,,,,,,,,,,,,,,,,,,,,,,,,,,,,,,,,,,,,,,,,,,,,,,,,,,,,,,,,,,,,,,,,,,,,,,,,,,,,,,,,,,,,,,,,,,
,,657b1a416348a0f16506d066,2024-02-18_23h10.02.824,kallum_motion_pilot,2023.2.2,Win32,59.88023952,657b1a416348a0f16506d066,65d2b6c8f2eece985d8e374c,65d2b858ab9f1aa3eae61f6c,0.0506,0.0506,1,61,223,143,1,eightseven,,,,,,,,,,,,,,,,,,,,,,,,,,,,,,,,,,,,,,,,,,,,,,,,,,,,,,,,,,,,,,,,,,,,,,,,,,,,,,,,,,,,,,,,,,,,,,,,,,,,,,,,,,,,,,,,,,,,,,,,,,,,,,,,,,,,,,,,,
,,657b1a416348a0f16506d066,2024-02-18_23h10.02.824,kallum_motion_pilot,2023.2.2,Win32,59.88023952,657b1a416348a0f16506d066,65d2b6c8f2eece985d8e374c,65d2b858ab9f1aa3eae61f6c,0.0507,0.0508,1,62,224,47,1,fourthree,,,,,,,,,,,,,,,,,,,,,,,,,,,,,,,,,,,,,,,,,,,,,,,,,,,,,,,,,,,,,,,,,,,,,,,,,,,,,,,,,,,,,,,,,,,,,,,,,,,,,,,,,,,,,,,,,,,,,,,,,,,,,,,,,,,,,,,,,
,,657b1a416348a0f16506d066,2024-02-18_23h10.02.824,kallum_motion_pilot,2023.2.2,Win32,59.88023952,657b1a416348a0f16506d066,65d2b6c8f2eece985d8e374c,65d2b858ab9f1aa3eae61f6c,0.0509,0.0509,1,63,225,157,1,seveneight,,,,,,,,,,,,,,,,,,,,,,,,,,,,,,,,,,,,,,,,,,,,,,,,,,,,,,,,,,,,,,,,,,,,,,,,,,,,,,,,,,,,,,,,,,,,,,,,,,,,,,,,,,,,,,,,,,,,,,,,,,,,,,,,,,,,,,,,,
,,657b1a416348a0f16506d066,2024-02-18_23h10.02.824,kallum_motion_pilot,2023.2.2,Win32,59.88023952,657b1a416348a0f16506d066,65d2b6c8f2eece985d8e374c,65d2b858ab9f1aa3eae61f6c,0.051,0.051,1,64,226,11,1,twofour,,,,,,,,,,,,,,,,,,,,,,,,,,,,,,,,,,,,,,,,,,,,,,,,,,,,,,,,,,,,,,,,,,,,,,,,,,,,,,,,,,,,,,,,,,,,,,,,,,,,,,,,,,,,,,,,,,,,,,,,,,,,,,,,,,,,,,,,,
,,657b1a416348a0f16506d066,2024-02-18_23h10.02.824,kallum_motion_pilot,2023.2.2,Win32,59.88023952,657b1a416348a0f16506d066,65d2b6c8f2eece985d8e374c,65d2b858ab9f1aa3eae61f6c,0.051,0.0512,1,65,227,147,1,sixeight,,,,,,,,,,,,,,,,,,,,,,,,,,,,,,,,,,,,,,,,,,,,,,,,,,,,,,,,,,,,,,,,,,,,,,,,,,,,,,,,,,,,,,,,,,,,,,,,,,,,,,,,,,,,,,,,,,,,,,,,,,,,,,,,,,,,,,,,,
,,657b1a416348a0f16506d066,2024-02-18_23h10.02.824,kallum_motion_pilot,2023.2.2,Win32,59.88023952,657b1a416348a0f16506d066,65d2b6c8f2eece985d8e374c,65d2b858ab9f1aa3eae61f6c,0.0513,0.0514,1,66,228,5,1,threefour,,,,,,,,,,,,,,,,,,,,,,,,,,,,,,,,,,,,,,,,,,,,,,,,,,,,,,,,,,,,,,,,,,,,,,,,,,,,,,,,,,,,,,,,,,,,,,,,,,,,,,,,,,,,,,,,,,,,,,,,,,,,,,,,,,,,,,,,,
,,657b1a416348a0f16506d066,2024-02-18_23h10.02.824,kallum_motion_pilot,2023.2.2,Win32,59.88023952,657b1a416348a0f16506d066,65d2b6c8f2eece985d8e374c,65d2b858ab9f1aa3eae61f6c,0.0515,0.0516,1,67,229,31,1,fourthree,,,,,,,,,,,,,,,,,,,,,,,,,,,,,,,,,,,,,,,,,,,,,,,,,,,,,,,,,,,,,,,,,,,,,,,,,,,,,,,,,,,,,,,,,,,,,,,,,,,,,,,,,,,,,,,,,,,,,,,,,,,,,,,,,,,,,,,,,
,,657b1a416348a0f16506d066,2024-02-18_23h10.02.824,kallum_motion_pilot,2023.2.2,Win32,59.88023952,657b1a416348a0f16506d066,65d2b6c8f2eece985d8e374c,65d2b858ab9f1aa3eae61f6c,0.0517,0.0517,1,68,230,105,1,fiveseven,,,,,,,,,,,,,,,,,,,,,,,,,,,,,,,,,,,,,,,,,,,,,,,,,,,,,,,,,,,,,,,,,,,,,,,,,,,,,,,,,,,,,,,,,,,,,,,,,,,,,,,,,,,,,,,,,,,,,,,,,,,,,,,,,,,,,,,,,
,,657b1a416348a0f16506d066,2024-02-18_23h10.02.824,kallum_motion_pilot,2023.2.2,Win32,59.88023952,657b1a416348a0f16506d066,65d2b6c8f2eece985d8e374c,65d2b858ab9f1aa3eae61f6c,0.0519,0.0519,1,69,231,51,1,twofour,,,,,,,,,,,,,,,,,,,,,,,,,,,,,,,,,,,,,,,,,,,,,,,,,,,,,,,,,,,,,,,,,,,,,,,,,,,,,,,,,,,,,,,,,,,,,,,,,,,,,,,,,,,,,,,,,,,,,,,,,,,,,,,,,,,,,,,,,
,,657b1a416348a0f16506d066,2024-02-18_23h10.02.824,kallum_motion_pilot,2023.2.2,Win32,59.88023952,657b1a416348a0f16506d066,65d2b6c8f2eece985d8e374c,65d2b858ab9f1aa3eae61f6c,0.052,0.0521,1,70,232,68,1,threeone,,,,,,,,,,,,,,,,,,,,,,,,,,,,,,,,,,,,,,,,,,,,,,,,,,,,,,,,,,,,,,,,,,,,,,,,,,,,,,,,,,,,,,,,,,,,,,,,,,,,,,,,,,,,,,,,,,,,,,,,,,,,,,,,,,,,,,,,,
,,657b1a416348a0f16506d066,2024-02-18_23h10.02.824,kallum_motion_pilot,2023.2.2,Win32,59.88023952,657b1a416348a0f16506d066,65d2b6c8f2eece985d8e374c,65d2b858ab9f1aa3eae61f6c,0.0522,0.0523,1,71,233,76,1,threeone,,,,,,,,,,,,,,,,,,,,,,,,,,,,,,,,,,,,,,,,,,,,,,,,,,,,,,,,,,,,,,,,,,,,,,,,,,,,,,,,,,,,,,,,,,,,,,,,,,,,,,,,,,,,,,,,,,,,,,,,,,,,,,,,,,,,,,,,,
,,657b1a416348a0f16506d066,2024-02-18_23h10.02.824,kallum_motion_pilot,2023.2.2,Win32,59.88023952,657b1a416348a0f16506d066,65d2b6c8f2eece985d8e374c,65d2b858ab9f1aa3eae61f6c,0.0523,0.0524,1,72,234,66,1,twoone,,,,,,,,,,,,,,,,,,,,,,,,,,,,,,,,,,,,,,,,,,,,,,,,,,,,,,,,,,,,,,,,,,,,,,,,,,,,,,,,,,,,,,,,,,,,,,,,,,,,,,,,,,,,,,,,,,,,,,,,,,,,,,,,,,,,,,,,,
,,657b1a416348a0f16506d066,2024-02-18_23h10.02.824,kallum_motion_pilot,2023.2.2,Win32,59.88023952,657b1a416348a0f16506d066,65d2b6c8f2eece985d8e374c,65d2b858ab9f1aa3eae61f6c,0.0525,0.0526,1,73,235,60,1,threeone,,,,,,,,,,,,,,,,,,,,,,,,,,,,,,,,,,,,,,,,,,,,,,,,,,,,,,,,,,,,,,,,,,,,,,,,,,,,,,,,,,,,,,,,,,,,,,,,,,,,,,,,,,,,,,,,,,,,,,,,,,,,,,,,,,,,,,,,,
,,657b1a416348a0f16506d066,2024-02-18_23h10.02.824,kallum_motion_pilot,2023.2.2,Win32,59.88023952,657b1a416348a0f16506d066,65d2b6c8f2eece985d8e374c,65d2b858ab9f1aa3eae61f6c,0.0526,0.0528,1,74,236,110,1,eightsix,,,,,,,,,,,,,,,,,,,,,,,,,,,,,,,,,,,,,,,,,,,,,,,,,,,,,,,,,,,,,,,,,,,,,,,,,,,,,,,,,,,,,,,,,,,,,,,,,,,,,,,,,,,,,,,,,,,,,,,,,,,,,,,,,,,,,,,,,
,,657b1a416348a0f16506d066,2024-02-18_23h10.02.824,kallum_motion_pilot,2023.2.2,Win32,59.88023952,657b1a416348a0f16506d066,65d2b6c8f2eece985d8e374c,65d2b858ab9f1aa3eae61f6c,0.0528,0.053,1,75,237,71,1,fourthree,,,,,,,,,,,,,,,,,,,,,,,,,,,,,,,,,,,,,,,,,,,,,,,,,,,,,,,,,,,,,,,,,,,,,,,,,,,,,,,,,,,,,,,,,,,,,,,,,,,,,,,,,,,,,,,,,,,,,,,,,,,,,,,,,,,,,,,,,
,,657b1a416348a0f16506d066,2024-02-18_23h10.02.824,kallum_motion_pilot,2023.2.2,Win32,59.88023952,657b1a416348a0f16506d066,65d2b6c8f2eece985d8e374c,65d2b858ab9f1aa3eae61f6c,0.053,0.0531,1,76,238,151,1,eightseven,,,,,,,,,,,,,,,,,,,,,,,,,,,,,,,,,,,,,,,,,,,,,,,,,,,,,,,,,,,,,,,,,,,,,,,,,,,,,,,,,,,,,,,,,,,,,,,,,,,,,,,,,,,,,,,,,,,,,,,,,,,,,,,,,,,,,,,,,
,,657b1a416348a0f16506d066,2024-02-18_23h10.02.824,kallum_motion_pilot,2023.2.2,Win32,59.88023952,657b1a416348a0f16506d066,65d2b6c8f2eece985d8e374c,65d2b858ab9f1aa3eae61f6c,0.0532,0.0533,1,77,239,135,1,eightseven,,,,,,,,,,,,,,,,,,,,,,,,,,,,,,,,,,,,,,,,,,,,,,,,,,,,,,,,,,,,,,,,,,,,,,,,,,,,,,,,,,,,,,,,,,,,,,,,,,,,,,,,,,,,,,,,,,,,,,,,,,,,,,,,,,,,,,,,,
,,657b1a416348a0f16506d066,2024-02-18_23h10.02.824,kallum_motion_pilot,2023.2.2,Win32,59.88023952,657b1a416348a0f16506d066,65d2b6c8f2eece985d8e374c,65d2b858ab9f1aa3eae61f6c,0.0534,0.0535,1,78,240,115,1,sixeight,,,,,,,,,,,,,,,,,,,,,,,,,,,,,,,,,,,,,,,,,,,,,,,,,,,,,,,,,,,,,,,,,,,,,,,,,,,,,,,,,,,,,,,,,,,,,,,,,,,,,,,,,,,,,,,,,,,,,,,,,,,,,,,,,,,,,,,,,
,,657b1a416348a0f16506d066,2024-02-18_23h10.02.824,kallum_motion_pilot,2023.2.2,Win32,59.88023952,657b1a416348a0f16506d066,65d2b6c8f2eece985d8e374c,65d2b858ab9f1aa3eae61f6c,0.0535,0.0537,1,79,241,6,1,fourtwo,,,,,,,,,,,,,,,,,,,,,,,,,,,,,,,,,,,,,,,,,,,,,,,,,,,,,,,,,,,,,,,,,,,,,,,,,,,,,,,,,,,,,,,,,,,,,,,,,,,,,,,,,,,,,,,,,,,,,,,,,,,,,,,,,,,,,,,,,
,,657b1a416348a0f16506d066,2024-02-18_23h10.02.824,kallum_motion_pilot,2023.2.2,Win32,59.88023952,657b1a416348a0f16506d066,65d2b6c8f2eece985d8e374c,65d2b858ab9f1aa3eae61f6c,0.0538,0.0538,1,80,242,38,1,fourtwo,,,,,,,,,,,,,,,,,,,,,,,,,,,,,,,,,,,,,,,,,,,,,,,,,,,,,,,,,,,,,,,,,,,,,,,,,,,,,,,,,,,,,,,,,,,,,,,,,,,,,,,,,,,,,,,,,,,,,,,,,,,,,,,,,,,,,,,,,
,,657b1a416348a0f16506d066,2024-02-18_23h10.02.824,kallum_motion_pilot,2023.2.2,Win32,59.88023952,657b1a416348a0f16506d066,65d2b6c8f2eece985d8e374c,65d2b858ab9f1aa3eae61f6c,0.054,0.054,1,81,243,89,1,fiveseven,,,,,,,,,,,,,,,,,,,,,,,,,,,,,,,,,,,,,,,,,,,,,,,,,,,,,,,,,,,,,,,,,,,,,,,,,,,,,,,,,,,,,,,,,,,,,,,,,,,,,,,,,,,,,,,,,,,,,,,,,,,,,,,,,,,,,,,,,
,,657b1a416348a0f16506d066,2024-02-18_23h10.02.824,kallum_motion_pilot,2023.2.2,Win32,59.88023952,657b1a416348a0f16506d066,65d2b6c8f2eece985d8e374c,65d2b858ab9f1aa3eae61f6c,0.0541,0.0542,1,82,244,80,1,fivesix,,,,,,,,,,,,,,,,,,,,,,,,,,,,,,,,,,,,,,,,,,,,,,,,,,,,,,,,,,,,,,,,,,,,,,,,,,,,,,,,,,,,,,,,,,,,,,,,,,,,,,,,,,,,,,,,,,,,,,,,,,,,,,,,,,,,,,,,,
,,657b1a416348a0f16506d066,2024-02-18_23h10.02.824,kallum_motion_pilot,2023.2.2,Win32,59.88023952,657b1a416348a0f16506d066,65d2b6c8f2eece985d8e374c,65d2b858ab9f1aa3eae61f6c,0.0543,0.0544,1,83,245,33,1,onethree,,,,,,,,,,,,,,,,,,,,,,,,,,,,,,,,,,,,,,,,,,,,,,,,,,,,,,,,,,,,,,,,,,,,,,,,,,,,,,,,,,,,,,,,,,,,,,,,,,,,,,,,,,,,,,,,,,,,,,,,,,,,,,,,,,,,,,,,,
,,657b1a416348a0f16506d066,2024-02-18_23h10.02.824,kallum_motion_pilot,2023.2.2,Win32,59.88023952,657b1a416348a0f16506d066,65d2b6c8f2eece985d8e374c,65d2b858ab9f1aa3eae61f6c,0.0544,0.0546,1,84,246,97,1,fiveseven,,,,,,,,,,,,,,,,,,,,,,,,,,,,,,,,,,,,,,,,,,,,,,,,,,,,,,,,,,,,,,,,,,,,,,,,,,,,,,,,,,,,,,,,,,,,,,,,,,,,,,,,,,,,,,,,,,,,,,,,,,,,,,,,,,,,,,,,,
,,657b1a416348a0f16506d066,2024-02-18_23h10.02.824,kallum_motion_pilot,2023.2.2,Win32,59.88023952,657b1a416348a0f16506d066,65d2b6c8f2eece985d8e374c,65d2b858ab9f1aa3eae61f6c,0.0546,0.0548,1,85,247,98,1,sixfive,,,,,,,,,,,,,,,,,,,,,,,,,,,,,,,,,,,,,,,,,,,,,,,,,,,,,,,,,,,,,,,,,,,,,,,,,,,,,,,,,,,,,,,,,,,,,,,,,,,,,,,,,,,,,,,,,,,,,,,,,,,,,,,,,,,,,,,,,
,,657b1a416348a0f16506d066,2024-02-18_23h10.02.824,kallum_motion_pilot,2023.2.2,Win32,59.88023952,657b1a416348a0f16506d066,65d2b6c8f2eece985d8e374c,65d2b858ab9f1aa3eae61f6c,0.0549,0.0549,1,86,248,141,1,seveneight,,,,,,,,,,,,,,,,,,,,,,,,,,,,,,,,,,,,,,,,,,,,,,,,,,,,,,,,,,,,,,,,,,,,,,,,,,,,,,,,,,,,,,,,,,,,,,,,,,,,,,,,,,,,,,,,,,,,,,,,,,,,,,,,,,,,,,,,,
,,657b1a416348a0f16506d066,2024-02-18_23h10.02.824,kallum_motion_pilot,2023.2.2,Win32,59.88023952,657b1a416348a0f16506d066,65d2b6c8f2eece985d8e374c,65d2b858ab9f1aa3eae61f6c,0.055,0.0551,1,87,249,1,1,onethree,,,,,,,,,,,,,,,,,,,,,,,,,,,,,,,,,,,,,,,,,,,,,,,,,,,,,,,,,,,,,,,,,,,,,,,,,,,,,,,,,,,,,,,,,,,,,,,,,,,,,,,,,,,,,,,,,,,,,,,,,,,,,,,,,,,,,,,,,
,,657b1a416348a0f16506d066,2024-02-18_23h10.02.824,kallum_motion_pilot,2023.2.2,Win32,59.88023952,657b1a416348a0f16506d066,65d2b6c8f2eece985d8e374c,65d2b858ab9f1aa3eae61f6c,0.0552,0.0553,1,88,250,160,1,fivesix,,,,,,,,,,,,,,,,,,,,,,,,,,,,,,,,,,,,,,,,,,,,,,,,,,,,,,,,,,,,,,,,,,,,,,,,,,,,,,,,,,,,,,,,,,,,,,,,,,,,,,,,,,,,,,,,,,,,,,,,,,,,,,,,,,,,,,,,,
,,657b1a416348a0f16506d066,2024-02-18_23h10.02.824,kallum_motion_pilot,2023.2.2,Win32,59.88023952,657b1a416348a0f16506d066,65d2b6c8f2eece985d8e374c,65d2b858ab9f1aa3eae61f6c,0.0554,0.0554,1,89,251,13,1,threefour,,,,,,,,,,,,,,,,,,,,,,,,,,,,,,,,,,,,,,,,,,,,,,,,,,,,,,,,,,,,,,,,,,,,,,,,,,,,,,,,,,,,,,,,,,,,,,,,,,,,,,,,,,,,,,,,,,,,,,,,,,,,,,,,,,,,,,,,,
,,657b1a416348a0f16506d066,2024-02-18_23h10.02.824,kallum_motion_pilot,2023.2.2,Win32,59.88023952,657b1a416348a0f16506d066,65d2b6c8f2eece985d8e374c,65d2b858ab9f1aa3eae61f6c,0.0555,0.0557,1,90,252,107,1,sixeight,,,,,,,,,,,,,,,,,,,,,,,,,,,,,,,,,,,,,,,,,,,,,,,,,,,,,,,,,,,,,,,,,,,,,,,,,,,,,,,,,,,,,,,,,,,,,,,,,,,,,,,,,,,,,,,,,,,,,,,,,,,,,,,,,,,,,,,,,
,,657b1a416348a0f16506d066,2024-02-18_23h10.02.824,kallum_motion_pilot,2023.2.2,Win32,59.88023952,657b1a416348a0f16506d066,65d2b6c8f2eece985d8e374c,65d2b858ab9f1aa3eae61f6c,0.0557,0.0558,1,91,253,140,1,sevenfive,,,,,,,,,,,,,,,,,,,,,,,,,,,,,,,,,,,,,,,,,,,,,,,,,,,,,,,,,,,,,,,,,,,,,,,,,,,,,,,,,,,,,,,,,,,,,,,,,,,,,,,,,,,,,,,,,,,,,,,,,,,,,,,,,,,,,,,,,
,,657b1a416348a0f16506d066,2024-02-18_23h10.02.824,kallum_motion_pilot,2023.2.2,Win32,59.88023952,657b1a416348a0f16506d066,65d2b6c8f2eece985d8e374c,65d2b858ab9f1aa3eae61f6c,0.0559,0.056,1,92,254,88,1,fivesix,,,,,,,,,,,,,,,,,,,,,,,,,,,,,,,,,,,,,,,,,,,,,,,,,,,,,,,,,,,,,,,,,,,,,,,,,,,,,,,,,,,,,,,,,,,,,,,,,,,,,,,,,,,,,,,,,,,,,,,,,,,,,,,,,,,,,,,,,
,,657b1a416348a0f16506d066,2024-02-18_23h10.02.824,kallum_motion_pilot,2023.2.2,Win32,59.88023952,657b1a416348a0f16506d066,65d2b6c8f2eece985d8e374c,65d2b858ab9f1aa3eae61f6c,0.0561,0.0562,1,93,255,138,1,sixfive,,,,,,,,,,,,,,,,,,,,,,,,,,,,,,,,,,,,,,,,,,,,,,,,,,,,,,,,,,,,,,,,,,,,,,,,,,,,,,,,,,,,,,,,,,,,,,,,,,,,,,,,,,,,,,,,,,,,,,,,,,,,,,,,,,,,,,,,,
,,657b1a416348a0f16506d066,2024-02-18_23h10.02.824,kallum_motion_pilot,2023.2.2,Win32,59.88023952,657b1a416348a0f16506d066,65d2b6c8f2eece985d8e374c,65d2b858ab9f1aa3eae61f6c,0.0563,0.0564,1,94,256,39,1,fourthree,,,,,,,,,,,,,,,,,,,,,,,,,,,,,,,,,,,,,,,,,,,,,,,,,,,,,,,,,,,,,,,,,,,,,,,,,,,,,,,,,,,,,,,,,,,,,,,,,,,,,,,,,,,,,,,,,,,,,,,,,,,,,,,,,,,,,,,,,
,,657b1a416348a0f16506d066,2024-02-18_23h10.02.824,kallum_motion_pilot,2023.2.2,Win32,59.88023952,657b1a416348a0f16506d066,65d2b6c8f2eece985d8e374c,65d2b858ab9f1aa3eae61f6c,0.0565,0.0566,1,95,257,102,1,eightsix,,,,,,,,,,,,,,,,,,,,,,,,,,,,,,,,,,,,,,,,,,,,,,,,,,,,,,,,,,,,,,,,,,,,,,,,,,,,,,,,,,,,,,,,,,,,,,,,,,,,,,,,,,,,,,,,,,,,,,,,,,,,,,,,,,,,,,,,,
,,657b1a416348a0f16506d066,2024-02-18_23h10.02.824,kallum_motion_pilot,2023.2.2,Win32,59.88023952,657b1a416348a0f16506d066,65d2b6c8f2eece985d8e374c,65d2b858ab9f1aa3eae61f6c,0.0567,0.0568,1,96,258,123,1,sixeight,,,,,,,,,,,,,,,,,,,,,,,,,,,,,,,,,,,,,,,,,,,,,,,,,,,,,,,,,,,,,,,,,,,,,,,,,,,,,,,,,,,,,,,,,,,,,,,,,,,,,,,,,,,,,,,,,,,,,,,,,,,,,,,,,,,,,,,,,
,,657b1a416348a0f16506d066,2024-02-18_23h10.02.824,kallum_motion_pilot,2023.2.2,Win32,59.88023952,657b1a416348a0f16506d066,65d2b6c8f2eece985d8e374c,65d2b858ab9f1aa3eae61f6c,0.0569,0.057,1,97,259,4,1,threeone,,,,,,,,,,,,,,,,,,,,,,,,,,,,,,,,,,,,,,,,,,,,,,,,,,,,,,,,,,,,,,,,,,,,,,,,,,,,,,,,,,,,,,,,,,,,,,,,,,,,,,,,,,,,,,,,,,,,,,,,,,,,,,,,,,,,,,,,,
,,657b1a416348a0f16506d066,2024-02-18_23h10.02.824,kallum_motion_pilot,2023.2.2,Win32,59.88023952,657b1a416348a0f16506d066,65d2b6c8f2eece985d8e374c,65d2b858ab9f1aa3eae61f6c,0.057,0.0571,1,98,260,87,1,eightseven,,,,,,,,,,,,,,,,,,,,,,,,,,,,,,,,,,,,,,,,,,,,,,,,,,,,,,,,,,,,,,,,,,,,,,,,,,,,,,,,,,,,,,,,,,,,,,,,,,,,,,,,,,,,,,,,,,,,,,,,,,,,,,,,,,,,,,,,,
,,657b1a416348a0f16506d066,2024-02-18_23h10.02.824,kallum_motion_pilot,2023.2.2,Win32,59.88023952,657b1a416348a0f16506d066,65d2b6c8f2eece985d8e374c,65d2b858ab9f1aa3eae61f6c,0.0572,0.0573,1,99,261,36,1,threeone,,,,,,,,,,,,,,,,,,,,,,,,,,,,,,,,,,,,,,,,,,,,,,,,,,,,,,,,,,,,,,,,,,,,,,,,,,,,,,,,,,,,,,,,,,,,,,,,,,,,,,,,,,,,,,,,,,,,,,,,,,,,,,,,,,,,,,,,,
,,657b1a416348a0f16506d066,2024-02-18_23h10.02.824,kallum_motion_pilot,2023.2.2,Win32,59.88023952,657b1a416348a0f16506d066,65d2b6c8f2eece985d8e374c,65d2b858ab9f1aa3eae61f6c,0.0574,0.0575,1,100,262,150,1,eightsix,,,,,,,,,,,,,,,,,,,,,,,,,,,,,,,,,,,,,,,,,,,,,,,,,,,,,,,,,,,,,,,,,,,,,,,,,,,,,,,,,,,,,,,,,,,,,,,,,,,,,,,,,,,,,,,,,,,,,,,,,,,,,,,,,,,,,,,,,
,,657b1a416348a0f16506d066,2024-02-18_23h10.02.824,kallum_motion_pilot,2023.2.2,Win32,59.88023952,657b1a416348a0f16506d066,65d2b6c8f2eece985d8e374c,65d2b858ab9f1aa3eae61f6c,0.0576,0.0577,1,101,263,62,1,fourtwo,,,,,,,,,,,,,,,,,,,,,,,,,,,,,,,,,,,,,,,,,,,,,,,,,,,,,,,,,,,,,,,,,,,,,,,,,,,,,,,,,,,,,,,,,,,,,,,,,,,,,,,,,,,,,,,,,,,,,,,,,,,,,,,,,,,,,,,,,
,,657b1a416348a0f16506d066,2024-02-18_23h10.02.824,kallum_motion_pilot,2023.2.2,Win32,59.88023952,657b1a416348a0f16506d066,65d2b6c8f2eece985d8e374c,65d2b858ab9f1aa3eae61f6c,0.0578,0.058,1,102,264,94,1,eightsix,,,,,,,,,,,,,,,,,,,,,,,,,,,,,,,,,,,,,,,,,,,,,,,,,,,,,,,,,,,,,,,,,,,,,,,,,,,,,,,,,,,,,,,,,,,,,,,,,,,,,,,,,,,,,,,,,,,,,,,,,,,,,,,,,,,,,,,,,
,,657b1a416348a0f16506d066,2024-02-18_23h10.02.824,kallum_motion_pilot,2023.2.2,Win32,59.88023952,657b1a416348a0f16506d066,65d2b6c8f2eece985d8e374c,65d2b858ab9f1aa3eae61f6c,0.058,0.0581,1,103,265,16,1,onetwo,,,,,,,,,,,,,,,,,,,,,,,,,,,,,,,,,,,,,,,,,,,,,,,,,,,,,,,,,,,,,,,,,,,,,,,,,,,,,,,,,,,,,,,,,,,,,,,,,,,,,,,,,,,,,,,,,,,,,,,,,,,,,,,,,,,,,,,,,
,,657b1a416348a0f16506d066,2024-02-18_23h10.02.824,kallum_motion_pilot,2023.2.2,Win32,59.88023952,657b1a416348a0f16506d066,65d2b6c8f2eece985d8e374c,65d2b858ab9f1aa3eae61f6c,0.0583,0.0583,1,104,266,119,1,eightseven,,,,,,,,,,,,,,,,,,,,,,,,,,,,,,,,,,,,,,,,,,,,,,,,,,,,,,,,,,,,,,,,,,,,,,,,,,,,,,,,,,,,,,,,,,,,,,,,,,,,,,,,,,,,,,,,,,,,,,,,,,,,,,,,,,,,,,,,,
,,657b1a416348a0f16506d066,2024-02-18_23h10.02.824,kallum_motion_pilot,2023.2.2,Win32,59.88023952,657b1a416348a0f16506d066,65d2b6c8f2eece985d8e374c,65d2b858ab9f1aa3eae61f6c,0.0584,0.0585,1,105,267,116,1,sevenfive,,,,,,,,,,,,,,,,,,,,,,,,,,,,,,,,,,,,,,,,,,,,,,,,,,,,,,,,,,,,,,,,,,,,,,,,,,,,,,,,,,,,,,,,,,,,,,,,,,,,,,,,,,,,,,,,,,,,,,,,,,,,,,,,,,,,,,,,,
,,657b1a416348a0f16506d066,2024-02-18_23h10.02.824,kallum_motion_pilot,2023.2.2,Win32,59.88023952,657b1a416348a0f16506d066,65d2b6c8f2eece985d8e374c,65d2b858ab9f1aa3eae61f6c,0.0586,0.0587,1,106,268,134,1,eightsix,,,,,,,,,,,,,,,,,,,,,,,,,,,,,,,,,,,,,,,,,,,,,,,,,,,,,,,,,,,,,,,,,,,,,,,,,,,,,,,,,,,,,,,,,,,,,,,,,,,,,,,,,,,,,,,,,,,,,,,,,,,,,,,,,,,,,,,,,
,,657b1a416348a0f16506d066,2024-02-18_23h10.02.824,kallum_motion_pilot,2023.2.2,Win32,59.88023952,657b1a416348a0f16506d066,65d2b6c8f2eece985d8e374c,65d2b858ab9f1aa3eae61f6c,0.0588,0.0589,1,107,269,40,1,onetwo,,,,,,,,,,,,,,,,,,,,,,,,,,,,,,,,,,,,,,,,,,,,,,,,,,,,,,,,,,,,,,,,,,,,,,,,,,,,,,,,,,,,,,,,,,,,,,,,,,,,,,,,,,,,,,,,,,,,,,,,,,,,,,,,,,,,,,,,,
,,657b1a416348a0f16506d066,2024-02-18_23h10.02.824,kallum_motion_pilot,2023.2.2,Win32,59.88023952,657b1a416348a0f16506d066,65d2b6c8f2eece985d8e374c,65d2b858ab9f1aa3eae61f6c,0.059,0.0591,1,108,270,56,1,onetwo,,,,,,,,,,,,,,,,,,,,,,,,,,,,,,,,,,,,,,,,,,,,,,,,,,,,,,,,,,,,,,,,,,,,,,,,,,,,,,,,,,,,,,,,,,,,,,,,,,,,,,,,,,,,,,,,,,,,,,,,,,,,,,,,,,,,,,,,,
,,657b1a416348a0f16506d066,2024-02-18_23h10.02.824,kallum_motion_pilot,2023.2.2,Win32,59.88023952,657b1a416348a0f16506d066,65d2b6c8f2eece985d8e374c,65d2b858ab9f1aa3eae61f6c,0.0592,0.0592,1,109,271,78,1,fourtwo,,,,,,,,,,,,,,,,,,,,,,,,,,,,,,,,,,,,,,,,,,,,,,,,,,,,,,,,,,,,,,,,,,,,,,,,,,,,,,,,,,,,,,,,,,,,,,,,,,,,,,,,,,,,,,,,,,,,,,,,,,,,,,,,,,,,,,,,,
,,657b1a416348a0f16506d066,2024-02-18_23h10.02.824,kallum_motion_pilot,2023.2.2,Win32,59.88023952,657b1a416348a0f16506d066,65d2b6c8f2eece985d8e374c,65d2b858ab9f1aa3eae61f6c,0.0593,0.0595,1,110,272,161,1,fiveseven,,,,,,,,,,,,,,,,,,,,,,,,,,,,,,,,,,,,,,,,,,,,,,,,,,,,,,,,,,,,,,,,,,,,,,,,,,,,,,,,,,,,,,,,,,,,,,,,,,,,,,,,,,,,,,,,,,,,,,,,,,,,,,,,,,,,,,,,,
,,657b1a416348a0f16506d066,2024-02-18_23h10.02.824,kallum_motion_pilot,2023.2.2,Win32,59.88023952,657b1a416348a0f16506d066,65d2b6c8f2eece985d8e374c,65d2b858ab9f1aa3eae61f6c,0.0596,0.0596,1,111,273,133,1,seveneight,,,,,,,,,,,,,,,,,,,,,,,,,,,,,,,,,,,,,,,,,,,,,,,,,,,,,,,,,,,,,,,,,,,,,,,,,,,,,,,,,,,,,,,,,,,,,,,,,,,,,,,,,,,,,,,,,,,,,,,,,,,,,,,,,,,,,,,,,
,,657b1a416348a0f16506d066,2024-02-18_23h10.02.824,kallum_motion_pilot,2023.2.2,Win32,59.88023952,657b1a416348a0f16506d066,65d2b6c8f2eece985d8e374c,65d2b858ab9f1aa3eae61f6c,0.0597,0.0598,1,112,274,30,1,fourtwo,,,,,,,,,,,,,,,,,,,,,,,,,,,,,,,,,,,,,,,,,,,,,,,,,,,,,,,,,,,,,,,,,,,,,,,,,,,,,,,,,,,,,,,,,,,,,,,,,,,,,,,,,,,,,,,,,,,,,,,,,,,,,,,,,,,,,,,,,
,,657b1a416348a0f16506d066,2024-02-18_23h10.02.824,kallum_motion_pilot,2023.2.2,Win32,59.88023952,657b1a416348a0f16506d066,65d2b6c8f2eece985d8e374c,65d2b858ab9f1aa3eae61f6c,0.0599,0.06,1,113,275,77,1,threefour,,,,,,,,,,,,,,,,,,,,,,,,,,,,,,,,,,,,,,,,,,,,,,,,,,,,,,,,,,,,,,,,,,,,,,,,,,,,,,,,,,,,,,,,,,,,,,,,,,,,,,,,,,,,,,,,,,,,,,,,,,,,,,,,,,,,,,,,,
,,657b1a416348a0f16506d066,2024-02-18_23h10.02.824,kallum_motion_pilot,2023.2.2,Win32,59.88023952,657b1a416348a0f16506d066,65d2b6c8f2eece985d8e374c,65d2b858ab9f1aa3eae61f6c,0.0601,0.0602,1,114,276,69,1,threefour,,,,,,,,,,,,,,,,,,,,,,,,,,,,,,,,,,,,,,,,,,,,,,,,,,,,,,,,,,,,,,,,,,,,,,,,,,,,,,,,,,,,,,,,,,,,,,,,,,,,,,,,,,,,,,,,,,,,,,,,,,,,,,,,,,,,,,,,,
,,657b1a416348a0f16506d066,2024-02-18_23h10.02.824,kallum_motion_pilot,2023.2.2,Win32,59.88023952,657b1a416348a0f16506d066,65d2b6c8f2eece985d8e374c,65d2b858ab9f1aa3eae61f6c,0.0603,0.0604,1,115,277,101,1,seveneight,,,,,,,,,,,,,,,,,,,,,,,,,,,,,,,,,,,,,,,,,,,,,,,,,,,,,,,,,,,,,,,,,,,,,,,,,,,,,,,,,,,,,,,,,,,,,,,,,,,,,,,,,,,,,,,,,,,,,,,,,,,,,,,,,,,,,,,,,
