startup.started,startup.stopped,Prolific ID*,date,expName,psychopyVersion,OS,frameRate,participant,study_id,session,stimpositions.started,stimpositions.stopped,hardcoded_stimulus_positions.thisRepN,hardcoded_stimulus_positions.thisTrialN,hardcoded_stimulus_positions.thisN,hardcoded_stimulus_positions.thisIndex,hardcoded_stimulus_positions.ran,StimulusPos,stimorientation.started,stimorientation.stopped,prac_stimorientation_import_loop.thisRepN,prac_stimorientation_import_loop.thisTrialN,prac_stimorientation_import_loop.thisN,prac_stimorientation_import_loop.thisIndex,prac_stimorientation_import_loop.ran,Stimorientation,welcome_instr.started,welcome_instr.stopped,key_resp.keys,key_resp.rt,key_resp.duration,response_steppedout_1.started,response_steppedout_1.stopped,key_resp_20.keys,key_resp_20.rt,key_resp_20.duration,response_steppedout_2.started,response_steppedout_2.stopped,key_resp_19.keys,key_resp_19.rt,key_resp_19.duration,stim_response_instr.started,stim_response_instr.stopped,key_resp_15.keys,key_resp_15.rt,key_resp_15.duration,direction_instr_2.started,direction_instr_2.stopped,key_resp_9.keys,key_resp_9.rt,key_resp_9.duration,instr_prac.started,instr_prac.stopped,key_resp_10.keys,key_resp_10.rt,key_resp_10.duration,Stim1_display_prac.started,Stim1_display_prac.stopped,Ecc,Circle1_ori,Circle2_ori,response_prac.started,similarity,response_time,response_prac.stopped,mouse_5.x,mouse_5.y,mouse_5.leftButton,mouse_5.midButton,mouse_5.rightButton,mouse_5.clicked_name,responseprac_feedback.started,responseprac_feedback.stopped,summary2_prac.started,summary2_prac.stopped,mouse_6.x,mouse_6.y,mouse_6.leftButton,mouse_6.midButton,mouse_6.rightButton,mouse_6.clicked_name,duringprac.thisRepN,duringprac.thisTrialN,duringprac.thisN,duringprac.thisIndex,duringprac.ran,begin.started,begin.stopped,key_resp_22.keys,key_resp_22.rt,key_resp_22.duration,Stim1_display.started,Stim1_display.stopped,circle1_ori,circle2_ori,circle1_SF,circle2_SF,response.started,response.stopped,mouse.x,mouse.y,mouse.leftButton,mouse.midButton,mouse.rightButton,mouse.clicked_name,trialnumber,double_pass.thisRepN,double_pass.thisTrialN,double_pass.thisN,double_pass.thisIndex,double_pass.ran,double_pass.order,main_trial.thisRepN,main_trial.thisTrialN,main_trial.thisN,main_trial.thisIndex,main_trial.ran,main_trial.order,Trial_Counter,Catch,Frequencies,response_2.started,response_2.stopped,mouse_2.x,mouse_2.y,mouse_2.leftButton,mouse_2.midButton,mouse_2.rightButton,mouse_2.clicked_name,special_trial.started,special_trial.stopped,catch_1.started,catch_1.stopped,mouse_3.x,mouse_3.y,mouse_3.leftButton,mouse_3.midButton,mouse_3.rightButton,catchresponse,catchnumber,response_time_catch,response_sum.started,response_sum.stopped,mouse_11.x,mouse_11.y,mouse_11.leftButton,mouse_11.midButton,mouse_11.rightButton,flip_presentation_sequence_for_double_pass.started,flip_presentation_sequence_for_double_pass.stopped,goodbye.started,goodbye.stopped,key_resp_3.keys,key_resp_3.rt,key_resp_3.duration
0.0005,0.0006,6580b24b0593cdbf4ce9449d,2024-02-18_20h07.51.305,kallum_motion_pilot,2023.2.2,Win32,59.17159763,6580b24b0593cdbf4ce9449d,65d2b6c8f2eece985d8e374c,65d2b7decb56009c7b58450a,,,,,,,,,,,,,,,,,,,,,,,,,,,,,,,,,,,,,,,,,,,,,,,,,,,,,,,,,,,,,,,,,,,,,,,,,,,,,,,,,,,,,,,,,,,,,,,,,,,,,,,,,,,,,,,,,,,,,,,,,,,,,,,,,,,,,,,,,,,,,,,,,
,,6580b24b0593cdbf4ce9449d,2024-02-18_20h07.51.305,kallum_motion_pilot,2023.2.2,Win32,59.17159763,6580b24b0593cdbf4ce9449d,65d2b6c8f2eece985d8e374c,65d2b7decb56009c7b58450a,0.0302,0.0304,0,0,0,89,1,fiveseven,,,,,,,,,,,,,,,,,,,,,,,,,,,,,,,,,,,,,,,,,,,,,,,,,,,,,,,,,,,,,,,,,,,,,,,,,,,,,,,,,,,,,,,,,,,,,,,,,,,,,,,,,,,,,,,,,,,,,,,,,,,,,,,,,,,,,,,,,
,,6580b24b0593cdbf4ce9449d,2024-02-18_20h07.51.305,kallum_motion_pilot,2023.2.2,Win32,59.17159763,6580b24b0593cdbf4ce9449d,65d2b6c8f2eece985d8e374c,65d2b7decb56009c7b58450a,0.0308,0.0309,0,1,1,72,1,onetwo,,,,,,,,,,,,,,,,,,,,,,,,,,,,,,,,,,,,,,,,,,,,,,,,,,,,,,,,,,,,,,,,,,,,,,,,,,,,,,,,,,,,,,,,,,,,,,,,,,,,,,,,,,,,,,,,,,,,,,,,,,,,,,,,,,,,,,,,,
,,6580b24b0593cdbf4ce9449d,2024-02-18_20h07.51.305,kallum_motion_pilot,2023.2.2,Win32,59.17159763,6580b24b0593cdbf4ce9449d,65d2b6c8f2eece985d8e374c,65d2b7decb56009c7b58450a,0.0311,0.0311,0,2,2,148,1,sevenfive,,,,,,,,,,,,,,,,,,,,,,,,,,,,,,,,,,,,,,,,,,,,,,,,,,,,,,,,,,,,,,,,,,,,,,,,,,,,,,,,,,,,,,,,,,,,,,,,,,,,,,,,,,,,,,,,,,,,,,,,,,,,,,,,,,,,,,,,,
,,6580b24b0593cdbf4ce9449d,2024-02-18_20h07.51.305,kallum_motion_pilot,2023.2.2,Win32,59.17159763,6580b24b0593cdbf4ce9449d,65d2b6c8f2eece985d8e374c,65d2b7decb56009c7b58450a,0.0313,0.0314,0,3,3,16,1,onetwo,,,,,,,,,,,,,,,,,,,,,,,,,,,,,,,,,,,,,,,,,,,,,,,,,,,,,,,,,,,,,,,,,,,,,,,,,,,,,,,,,,,,,,,,,,,,,,,,,,,,,,,,,,,,,,,,,,,,,,,,,,,,,,,,,,,,,,,,,
,,6580b24b0593cdbf4ce9449d,2024-02-18_20h07.51.305,kallum_motion_pilot,2023.2.2,Win32,59.17159763,6580b24b0593cdbf4ce9449d,65d2b6c8f2eece985d8e374c,65d2b7decb56009c7b58450a,0.0315,0.0315,0,4,4,59,1,twofour,,,,,,,,,,,,,,,,,,,,,,,,,,,,,,,,,,,,,,,,,,,,,,,,,,,,,,,,,,,,,,,,,,,,,,,,,,,,,,,,,,,,,,,,,,,,,,,,,,,,,,,,,,,,,,,,,,,,,,,,,,,,,,,,,,,,,,,,,
,,6580b24b0593cdbf4ce9449d,2024-02-18_20h07.51.305,kallum_motion_pilot,2023.2.2,Win32,59.17159763,6580b24b0593cdbf4ce9449d,65d2b6c8f2eece985d8e374c,65d2b7decb56009c7b58450a,0.0317,0.0317,0,5,5,88,1,fivesix,,,,,,,,,,,,,,,,,,,,,,,,,,,,,,,,,,,,,,,,,,,,,,,,,,,,,,,,,,,,,,,,,,,,,,,,,,,,,,,,,,,,,,,,,,,,,,,,,,,,,,,,,,,,,,,,,,,,,,,,,,,,,,,,,,,,,,,,,
,,6580b24b0593cdbf4ce9449d,2024-02-18_20h07.51.305,kallum_motion_pilot,2023.2.2,Win32,59.17159763,6580b24b0593cdbf4ce9449d,65d2b6c8f2eece985d8e374c,65d2b7decb56009c7b58450a,0.0319,0.0319,0,6,6,74,1,twoone,,,,,,,,,,,,,,,,,,,,,,,,,,,,,,,,,,,,,,,,,,,,,,,,,,,,,,,,,,,,,,,,,,,,,,,,,,,,,,,,,,,,,,,,,,,,,,,,,,,,,,,,,,,,,,,,,,,,,,,,,,,,,,,,,,,,,,,,,
,,6580b24b0593cdbf4ce9449d,2024-02-18_20h07.51.305,kallum_motion_pilot,2023.2.2,Win32,59.17159763,6580b24b0593cdbf4ce9449d,65d2b6c8f2eece985d8e374c,65d2b7decb56009c7b58450a,0.0319,0.032,0,7,7,79,1,eightseven,,,,,,,,,,,,,,,,,,,,,,,,,,,,,,,,,,,,,,,,,,,,,,,,,,,,,,,,,,,,,,,,,,,,,,,,,,,,,,,,,,,,,,,,,,,,,,,,,,,,,,,,,,,,,,,,,,,,,,,,,,,,,,,,,,,,,,,,,
,,6580b24b0593cdbf4ce9449d,2024-02-18_20h07.51.305,kallum_motion_pilot,2023.2.2,Win32,59.17159763,6580b24b0593cdbf4ce9449d,65d2b6c8f2eece985d8e374c,65d2b7decb56009c7b58450a,0.0322,0.0322,0,8,8,86,1,eightsix,,,,,,,,,,,,,,,,,,,,,,,,,,,,,,,,,,,,,,,,,,,,,,,,,,,,,,,,,,,,,,,,,,,,,,,,,,,,,,,,,,,,,,,,,,,,,,,,,,,,,,,,,,,,,,,,,,,,,,,,,,,,,,,,,,,,,,,,,
,,6580b24b0593cdbf4ce9449d,2024-02-18_20h07.51.305,kallum_motion_pilot,2023.2.2,Win32,59.17159763,6580b24b0593cdbf4ce9449d,65d2b6c8f2eece985d8e374c,65d2b7decb56009c7b58450a,0.0324,0.0324,0,9,9,41,1,onethree,,,,,,,,,,,,,,,,,,,,,,,,,,,,,,,,,,,,,,,,,,,,,,,,,,,,,,,,,,,,,,,,,,,,,,,,,,,,,,,,,,,,,,,,,,,,,,,,,,,,,,,,,,,,,,,,,,,,,,,,,,,,,,,,,,,,,,,,,
,,6580b24b0593cdbf4ce9449d,2024-02-18_20h07.51.305,kallum_motion_pilot,2023.2.2,Win32,59.17159763,6580b24b0593cdbf4ce9449d,65d2b6c8f2eece985d8e374c,65d2b7decb56009c7b58450a,0.0325,0.0326,0,10,10,95,1,eightseven,,,,,,,,,,,,,,,,,,,,,,,,,,,,,,,,,,,,,,,,,,,,,,,,,,,,,,,,,,,,,,,,,,,,,,,,,,,,,,,,,,,,,,,,,,,,,,,,,,,,,,,,,,,,,,,,,,,,,,,,,,,,,,,,,,,,,,,,,
,,6580b24b0593cdbf4ce9449d,2024-02-18_20h07.51.305,kallum_motion_pilot,2023.2.2,Win32,59.17159763,6580b24b0593cdbf4ce9449d,65d2b6c8f2eece985d8e374c,65d2b7decb56009c7b58450a,0.0327,0.0327,0,11,11,77,1,threefour,,,,,,,,,,,,,,,,,,,,,,,,,,,,,,,,,,,,,,,,,,,,,,,,,,,,,,,,,,,,,,,,,,,,,,,,,,,,,,,,,,,,,,,,,,,,,,,,,,,,,,,,,,,,,,,,,,,,,,,,,,,,,,,,,,,,,,,,,
,,6580b24b0593cdbf4ce9449d,2024-02-18_20h07.51.305,kallum_motion_pilot,2023.2.2,Win32,59.17159763,6580b24b0593cdbf4ce9449d,65d2b6c8f2eece985d8e374c,65d2b7decb56009c7b58450a,0.0328,0.0329,0,12,12,151,1,eightseven,,,,,,,,,,,,,,,,,,,,,,,,,,,,,,,,,,,,,,,,,,,,,,,,,,,,,,,,,,,,,,,,,,,,,,,,,,,,,,,,,,,,,,,,,,,,,,,,,,,,,,,,,,,,,,,,,,,,,,,,,,,,,,,,,,,,,,,,,
,,6580b24b0593cdbf4ce9449d,2024-02-18_20h07.51.305,kallum_motion_pilot,2023.2.2,Win32,59.17159763,6580b24b0593cdbf4ce9449d,65d2b6c8f2eece985d8e374c,65d2b7decb56009c7b58450a,0.033,0.033,0,13,13,94,1,eightsix,,,,,,,,,,,,,,,,,,,,,,,,,,,,,,,,,,,,,,,,,,,,,,,,,,,,,,,,,,,,,,,,,,,,,,,,,,,,,,,,,,,,,,,,,,,,,,,,,,,,,,,,,,,,,,,,,,,,,,,,,,,,,,,,,,,,,,,,,
,,6580b24b0593cdbf4ce9449d,2024-02-18_20h07.51.305,kallum_motion_pilot,2023.2.2,Win32,59.17159763,6580b24b0593cdbf4ce9449d,65d2b6c8f2eece985d8e374c,65d2b7decb56009c7b58450a,0.0331,0.0331,0,14,14,156,1,sevenfive,,,,,,,,,,,,,,,,,,,,,,,,,,,,,,,,,,,,,,,,,,,,,,,,,,,,,,,,,,,,,,,,,,,,,,,,,,,,,,,,,,,,,,,,,,,,,,,,,,,,,,,,,,,,,,,,,,,,,,,,,,,,,,,,,,,,,,,,,
,,6580b24b0593cdbf4ce9449d,2024-02-18_20h07.51.305,kallum_motion_pilot,2023.2.2,Win32,59.17159763,6580b24b0593cdbf4ce9449d,65d2b6c8f2eece985d8e374c,65d2b7decb56009c7b58450a,0.0333,0.0333,0,15,15,157,1,seveneight,,,,,,,,,,,,,,,,,,,,,,,,,,,,,,,,,,,,,,,,,,,,,,,,,,,,,,,,,,,,,,,,,,,,,,,,,,,,,,,,,,,,,,,,,,,,,,,,,,,,,,,,,,,,,,,,,,,,,,,,,,,,,,,,,,,,,,,,,
,,6580b24b0593cdbf4ce9449d,2024-02-18_20h07.51.305,kallum_motion_pilot,2023.2.2,Win32,59.17159763,6580b24b0593cdbf4ce9449d,65d2b6c8f2eece985d8e374c,65d2b7decb56009c7b58450a,0.0335,0.0335,0,16,16,97,1,fiveseven,,,,,,,,,,,,,,,,,,,,,,,,,,,,,,,,,,,,,,,,,,,,,,,,,,,,,,,,,,,,,,,,,,,,,,,,,,,,,,,,,,,,,,,,,,,,,,,,,,,,,,,,,,,,,,,,,,,,,,,,,,,,,,,,,,,,,,,,,
,,6580b24b0593cdbf4ce9449d,2024-02-18_20h07.51.305,kallum_motion_pilot,2023.2.2,Win32,59.17159763,6580b24b0593cdbf4ce9449d,65d2b6c8f2eece985d8e374c,65d2b7decb56009c7b58450a,0.0335,0.0336,0,17,17,84,1,sevenfive,,,,,,,,,,,,,,,,,,,,,,,,,,,,,,,,,,,,,,,,,,,,,,,,,,,,,,,,,,,,,,,,,,,,,,,,,,,,,,,,,,,,,,,,,,,,,,,,,,,,,,,,,,,,,,,,,,,,,,,,,,,,,,,,,,,,,,,,,
,,6580b24b0593cdbf4ce9449d,2024-02-18_20h07.51.305,kallum_motion_pilot,2023.2.2,Win32,59.17159763,6580b24b0593cdbf4ce9449d,65d2b6c8f2eece985d8e374c,65d2b7decb56009c7b58450a,0.0337,0.0337,0,18,18,147,1,sixeight,,,,,,,,,,,,,,,,,,,,,,,,,,,,,,,,,,,,,,,,,,,,,,,,,,,,,,,,,,,,,,,,,,,,,,,,,,,,,,,,,,,,,,,,,,,,,,,,,,,,,,,,,,,,,,,,,,,,,,,,,,,,,,,,,,,,,,,,,
,,6580b24b0593cdbf4ce9449d,2024-02-18_20h07.51.305,kallum_motion_pilot,2023.2.2,Win32,59.17159763,6580b24b0593cdbf4ce9449d,65d2b6c8f2eece985d8e374c,65d2b7decb56009c7b58450a,0.0339,0.0339,0,19,19,48,1,onetwo,,,,,,,,,,,,,,,,,,,,,,,,,,,,,,,,,,,,,,,,,,,,,,,,,,,,,,,,,,,,,,,,,,,,,,,,,,,,,,,,,,,,,,,,,,,,,,,,,,,,,,,,,,,,,,,,,,,,,,,,,,,,,,,,,,,,,,,,,
,,6580b24b0593cdbf4ce9449d,2024-02-18_20h07.51.305,kallum_motion_pilot,2023.2.2,Win32,59.17159763,6580b24b0593cdbf4ce9449d,65d2b6c8f2eece985d8e374c,65d2b7decb56009c7b58450a,0.0339,0.034,0,20,20,30,1,fourtwo,,,,,,,,,,,,,,,,,,,,,,,,,,,,,,,,,,,,,,,,,,,,,,,,,,,,,,,,,,,,,,,,,,,,,,,,,,,,,,,,,,,,,,,,,,,,,,,,,,,,,,,,,,,,,,,,,,,,,,,,,,,,,,,,,,,,,,,,,
,,6580b24b0593cdbf4ce9449d,2024-02-18_20h07.51.305,kallum_motion_pilot,2023.2.2,Win32,59.17159763,6580b24b0593cdbf4ce9449d,65d2b6c8f2eece985d8e374c,65d2b7decb56009c7b58450a,0.0341,0.0341,0,21,21,3,1,twofour,,,,,,,,,,,,,,,,,,,,,,,,,,,,,,,,,,,,,,,,,,,,,,,,,,,,,,,,,,,,,,,,,,,,,,,,,,,,,,,,,,,,,,,,,,,,,,,,,,,,,,,,,,,,,,,,,,,,,,,,,,,,,,,,,,,,,,,,,
,,6580b24b0593cdbf4ce9449d,2024-02-18_20h07.51.305,kallum_motion_pilot,2023.2.2,Win32,59.17159763,6580b24b0593cdbf4ce9449d,65d2b6c8f2eece985d8e374c,65d2b7decb56009c7b58450a,0.0342,0.0343,0,22,22,154,1,sixfive,,,,,,,,,,,,,,,,,,,,,,,,,,,,,,,,,,,,,,,,,,,,,,,,,,,,,,,,,,,,,,,,,,,,,,,,,,,,,,,,,,,,,,,,,,,,,,,,,,,,,,,,,,,,,,,,,,,,,,,,,,,,,,,,,,,,,,,,,
,,6580b24b0593cdbf4ce9449d,2024-02-18_20h07.51.305,kallum_motion_pilot,2023.2.2,Win32,59.17159763,6580b24b0593cdbf4ce9449d,65d2b6c8f2eece985d8e374c,65d2b7decb56009c7b58450a,0.0344,0.0345,0,23,23,2,1,twoone,,,,,,,,,,,,,,,,,,,,,,,,,,,,,,,,,,,,,,,,,,,,,,,,,,,,,,,,,,,,,,,,,,,,,,,,,,,,,,,,,,,,,,,,,,,,,,,,,,,,,,,,,,,,,,,,,,,,,,,,,,,,,,,,,,,,,,,,,
,,6580b24b0593cdbf4ce9449d,2024-02-18_20h07.51.305,kallum_motion_pilot,2023.2.2,Win32,59.17159763,6580b24b0593cdbf4ce9449d,65d2b6c8f2eece985d8e374c,65d2b7decb56009c7b58450a,0.0346,0.0347,0,24,24,149,1,seveneight,,,,,,,,,,,,,,,,,,,,,,,,,,,,,,,,,,,,,,,,,,,,,,,,,,,,,,,,,,,,,,,,,,,,,,,,,,,,,,,,,,,,,,,,,,,,,,,,,,,,,,,,,,,,,,,,,,,,,,,,,,,,,,,,,,,,,,,,,
,,6580b24b0593cdbf4ce9449d,2024-02-18_20h07.51.305,kallum_motion_pilot,2023.2.2,Win32,59.17159763,6580b24b0593cdbf4ce9449d,65d2b6c8f2eece985d8e374c,65d2b7decb56009c7b58450a,0.0348,0.0348,0,25,25,27,1,twofour,,,,,,,,,,,,,,,,,,,,,,,,,,,,,,,,,,,,,,,,,,,,,,,,,,,,,,,,,,,,,,,,,,,,,,,,,,,,,,,,,,,,,,,,,,,,,,,,,,,,,,,,,,,,,,,,,,,,,,,,,,,,,,,,,,,,,,,,,
,,6580b24b0593cdbf4ce9449d,2024-02-18_20h07.51.305,kallum_motion_pilot,2023.2.2,Win32,59.17159763,6580b24b0593cdbf4ce9449d,65d2b6c8f2eece985d8e374c,65d2b7decb56009c7b58450a,0.0349,0.0349,0,26,26,126,1,eightsix,,,,,,,,,,,,,,,,,,,,,,,,,,,,,,,,,,,,,,,,,,,,,,,,,,,,,,,,,,,,,,,,,,,,,,,,,,,,,,,,,,,,,,,,,,,,,,,,,,,,,,,,,,,,,,,,,,,,,,,,,,,,,,,,,,,,,,,,,
,,6580b24b0593cdbf4ce9449d,2024-02-18_20h07.51.305,kallum_motion_pilot,2023.2.2,Win32,59.17159763,6580b24b0593cdbf4ce9449d,65d2b6c8f2eece985d8e374c,65d2b7decb56009c7b58450a,0.0351,0.0351,0,27,27,92,1,sevenfive,,,,,,,,,,,,,,,,,,,,,,,,,,,,,,,,,,,,,,,,,,,,,,,,,,,,,,,,,,,,,,,,,,,,,,,,,,,,,,,,,,,,,,,,,,,,,,,,,,,,,,,,,,,,,,,,,,,,,,,,,,,,,,,,,,,,,,,,,
,,6580b24b0593cdbf4ce9449d,2024-02-18_20h07.51.305,kallum_motion_pilot,2023.2.2,Win32,59.17159763,6580b24b0593cdbf4ce9449d,65d2b6c8f2eece985d8e374c,65d2b7decb56009c7b58450a,0.0352,0.0352,0,28,28,31,1,fourthree,,,,,,,,,,,,,,,,,,,,,,,,,,,,,,,,,,,,,,,,,,,,,,,,,,,,,,,,,,,,,,,,,,,,,,,,,,,,,,,,,,,,,,,,,,,,,,,,,,,,,,,,,,,,,,,,,,,,,,,,,,,,,,,,,,,,,,,,,
,,6580b24b0593cdbf4ce9449d,2024-02-18_20h07.51.305,kallum_motion_pilot,2023.2.2,Win32,59.17159763,6580b24b0593cdbf4ce9449d,65d2b6c8f2eece985d8e374c,65d2b7decb56009c7b58450a,0.0354,0.0354,0,29,29,117,1,seveneight,,,,,,,,,,,,,,,,,,,,,,,,,,,,,,,,,,,,,,,,,,,,,,,,,,,,,,,,,,,,,,,,,,,,,,,,,,,,,,,,,,,,,,,,,,,,,,,,,,,,,,,,,,,,,,,,,,,,,,,,,,,,,,,,,,,,,,,,,
,,6580b24b0593cdbf4ce9449d,2024-02-18_20h07.51.305,kallum_motion_pilot,2023.2.2,Win32,59.17159763,6580b24b0593cdbf4ce9449d,65d2b6c8f2eece985d8e374c,65d2b7decb56009c7b58450a,0.0355,0.0356,0,30,30,83,1,sixeight,,,,,,,,,,,,,,,,,,,,,,,,,,,,,,,,,,,,,,,,,,,,,,,,,,,,,,,,,,,,,,,,,,,,,,,,,,,,,,,,,,,,,,,,,,,,,,,,,,,,,,,,,,,,,,,,,,,,,,,,,,,,,,,,,,,,,,,,,
,,6580b24b0593cdbf4ce9449d,2024-02-18_20h07.51.305,kallum_motion_pilot,2023.2.2,Win32,59.17159763,6580b24b0593cdbf4ce9449d,65d2b6c8f2eece985d8e374c,65d2b7decb56009c7b58450a,0.0357,0.0357,0,31,31,61,1,threefour,,,,,,,,,,,,,,,,,,,,,,,,,,,,,,,,,,,,,,,,,,,,,,,,,,,,,,,,,,,,,,,,,,,,,,,,,,,,,,,,,,,,,,,,,,,,,,,,,,,,,,,,,,,,,,,,,,,,,,,,,,,,,,,,,,,,,,,,,
,,6580b24b0593cdbf4ce9449d,2024-02-18_20h07.51.305,kallum_motion_pilot,2023.2.2,Win32,59.17159763,6580b24b0593cdbf4ce9449d,65d2b6c8f2eece985d8e374c,65d2b7decb56009c7b58450a,0.0358,0.0358,0,32,32,70,1,fourtwo,,,,,,,,,,,,,,,,,,,,,,,,,,,,,,,,,,,,,,,,,,,,,,,,,,,,,,,,,,,,,,,,,,,,,,,,,,,,,,,,,,,,,,,,,,,,,,,,,,,,,,,,,,,,,,,,,,,,,,,,,,,,,,,,,,,,,,,,,
,,6580b24b0593cdbf4ce9449d,2024-02-18_20h07.51.305,kallum_motion_pilot,2023.2.2,Win32,59.17159763,6580b24b0593cdbf4ce9449d,65d2b6c8f2eece985d8e374c,65d2b7decb56009c7b58450a,0.037,0.0371,0,33,33,140,1,sevenfive,,,,,,,,,,,,,,,,,,,,,,,,,,,,,,,,,,,,,,,,,,,,,,,,,,,,,,,,,,,,,,,,,,,,,,,,,,,,,,,,,,,,,,,,,,,,,,,,,,,,,,,,,,,,,,,,,,,,,,,,,,,,,,,,,,,,,,,,,
,,6580b24b0593cdbf4ce9449d,2024-02-18_20h07.51.305,kallum_motion_pilot,2023.2.2,Win32,59.17159763,6580b24b0593cdbf4ce9449d,65d2b6c8f2eece985d8e374c,65d2b7decb56009c7b58450a,0.0374,0.0374,0,34,34,146,1,sixfive,,,,,,,,,,,,,,,,,,,,,,,,,,,,,,,,,,,,,,,,,,,,,,,,,,,,,,,,,,,,,,,,,,,,,,,,,,,,,,,,,,,,,,,,,,,,,,,,,,,,,,,,,,,,,,,,,,,,,,,,,,,,,,,,,,,,,,,,,
,,6580b24b0593cdbf4ce9449d,2024-02-18_20h07.51.305,kallum_motion_pilot,2023.2.2,Win32,59.17159763,6580b24b0593cdbf4ce9449d,65d2b6c8f2eece985d8e374c,65d2b7decb56009c7b58450a,0.0375,0.0375,0,35,35,141,1,seveneight,,,,,,,,,,,,,,,,,,,,,,,,,,,,,,,,,,,,,,,,,,,,,,,,,,,,,,,,,,,,,,,,,,,,,,,,,,,,,,,,,,,,,,,,,,,,,,,,,,,,,,,,,,,,,,,,,,,,,,,,,,,,,,,,,,,,,,,,,
,,6580b24b0593cdbf4ce9449d,2024-02-18_20h07.51.305,kallum_motion_pilot,2023.2.2,Win32,59.17159763,6580b24b0593cdbf4ce9449d,65d2b6c8f2eece985d8e374c,65d2b7decb56009c7b58450a,0.0377,0.0377,0,36,36,78,1,fourtwo,,,,,,,,,,,,,,,,,,,,,,,,,,,,,,,,,,,,,,,,,,,,,,,,,,,,,,,,,,,,,,,,,,,,,,,,,,,,,,,,,,,,,,,,,,,,,,,,,,,,,,,,,,,,,,,,,,,,,,,,,,,,,,,,,,,,,,,,,
,,6580b24b0593cdbf4ce9449d,2024-02-18_20h07.51.305,kallum_motion_pilot,2023.2.2,Win32,59.17159763,6580b24b0593cdbf4ce9449d,65d2b6c8f2eece985d8e374c,65d2b7decb56009c7b58450a,0.0379,0.0379,0,37,37,76,1,threeone,,,,,,,,,,,,,,,,,,,,,,,,,,,,,,,,,,,,,,,,,,,,,,,,,,,,,,,,,,,,,,,,,,,,,,,,,,,,,,,,,,,,,,,,,,,,,,,,,,,,,,,,,,,,,,,,,,,,,,,,,,,,,,,,,,,,,,,,,
,,6580b24b0593cdbf4ce9449d,2024-02-18_20h07.51.305,kallum_motion_pilot,2023.2.2,Win32,59.17159763,6580b24b0593cdbf4ce9449d,65d2b6c8f2eece985d8e374c,65d2b7decb56009c7b58450a,0.038,0.038,0,38,38,127,1,eightseven,,,,,,,,,,,,,,,,,,,,,,,,,,,,,,,,,,,,,,,,,,,,,,,,,,,,,,,,,,,,,,,,,,,,,,,,,,,,,,,,,,,,,,,,,,,,,,,,,,,,,,,,,,,,,,,,,,,,,,,,,,,,,,,,,,,,,,,,,
,,6580b24b0593cdbf4ce9449d,2024-02-18_20h07.51.305,kallum_motion_pilot,2023.2.2,Win32,59.17159763,6580b24b0593cdbf4ce9449d,65d2b6c8f2eece985d8e374c,65d2b7decb56009c7b58450a,0.0381,0.0382,0,39,39,29,1,threefour,,,,,,,,,,,,,,,,,,,,,,,,,,,,,,,,,,,,,,,,,,,,,,,,,,,,,,,,,,,,,,,,,,,,,,,,,,,,,,,,,,,,,,,,,,,,,,,,,,,,,,,,,,,,,,,,,,,,,,,,,,,,,,,,,,,,,,,,,
,,6580b24b0593cdbf4ce9449d,2024-02-18_20h07.51.305,kallum_motion_pilot,2023.2.2,Win32,59.17159763,6580b24b0593cdbf4ce9449d,65d2b6c8f2eece985d8e374c,65d2b7decb56009c7b58450a,0.0383,0.0383,0,40,40,17,1,onethree,,,,,,,,,,,,,,,,,,,,,,,,,,,,,,,,,,,,,,,,,,,,,,,,,,,,,,,,,,,,,,,,,,,,,,,,,,,,,,,,,,,,,,,,,,,,,,,,,,,,,,,,,,,,,,,,,,,,,,,,,,,,,,,,,,,,,,,,,
,,6580b24b0593cdbf4ce9449d,2024-02-18_20h07.51.305,kallum_motion_pilot,2023.2.2,Win32,59.17159763,6580b24b0593cdbf4ce9449d,65d2b6c8f2eece985d8e374c,65d2b7decb56009c7b58450a,0.0385,0.0385,0,41,41,35,1,twofour,,,,,,,,,,,,,,,,,,,,,,,,,,,,,,,,,,,,,,,,,,,,,,,,,,,,,,,,,,,,,,,,,,,,,,,,,,,,,,,,,,,,,,,,,,,,,,,,,,,,,,,,,,,,,,,,,,,,,,,,,,,,,,,,,,,,,,,,,
,,6580b24b0593cdbf4ce9449d,2024-02-18_20h07.51.305,kallum_motion_pilot,2023.2.2,Win32,59.17159763,6580b24b0593cdbf4ce9449d,65d2b6c8f2eece985d8e374c,65d2b7decb56009c7b58450a,0.0386,0.0386,0,42,42,107,1,sixeight,,,,,,,,,,,,,,,,,,,,,,,,,,,,,,,,,,,,,,,,,,,,,,,,,,,,,,,,,,,,,,,,,,,,,,,,,,,,,,,,,,,,,,,,,,,,,,,,,,,,,,,,,,,,,,,,,,,,,,,,,,,,,,,,,,,,,,,,,
,,6580b24b0593cdbf4ce9449d,2024-02-18_20h07.51.305,kallum_motion_pilot,2023.2.2,Win32,59.17159763,6580b24b0593cdbf4ce9449d,65d2b6c8f2eece985d8e374c,65d2b7decb56009c7b58450a,0.0388,0.0388,0,43,43,160,1,fivesix,,,,,,,,,,,,,,,,,,,,,,,,,,,,,,,,,,,,,,,,,,,,,,,,,,,,,,,,,,,,,,,,,,,,,,,,,,,,,,,,,,,,,,,,,,,,,,,,,,,,,,,,,,,,,,,,,,,,,,,,,,,,,,,,,,,,,,,,,
,,6580b24b0593cdbf4ce9449d,2024-02-18_20h07.51.305,kallum_motion_pilot,2023.2.2,Win32,59.17159763,6580b24b0593cdbf4ce9449d,65d2b6c8f2eece985d8e374c,65d2b7decb56009c7b58450a,0.039,0.039,0,44,44,153,1,fiveseven,,,,,,,,,,,,,,,,,,,,,,,,,,,,,,,,,,,,,,,,,,,,,,,,,,,,,,,,,,,,,,,,,,,,,,,,,,,,,,,,,,,,,,,,,,,,,,,,,,,,,,,,,,,,,,,,,,,,,,,,,,,,,,,,,,,,,,,,,
,,6580b24b0593cdbf4ce9449d,2024-02-18_20h07.51.305,kallum_motion_pilot,2023.2.2,Win32,59.17159763,6580b24b0593cdbf4ce9449d,65d2b6c8f2eece985d8e374c,65d2b7decb56009c7b58450a,0.0391,0.0391,0,45,45,10,1,twoone,,,,,,,,,,,,,,,,,,,,,,,,,,,,,,,,,,,,,,,,,,,,,,,,,,,,,,,,,,,,,,,,,,,,,,,,,,,,,,,,,,,,,,,,,,,,,,,,,,,,,,,,,,,,,,,,,,,,,,,,,,,,,,,,,,,,,,,,,
,,6580b24b0593cdbf4ce9449d,2024-02-18_20h07.51.305,kallum_motion_pilot,2023.2.2,Win32,59.17159763,6580b24b0593cdbf4ce9449d,65d2b6c8f2eece985d8e374c,65d2b7decb56009c7b58450a,0.0393,0.0393,0,46,46,21,1,threefour,,,,,,,,,,,,,,,,,,,,,,,,,,,,,,,,,,,,,,,,,,,,,,,,,,,,,,,,,,,,,,,,,,,,,,,,,,,,,,,,,,,,,,,,,,,,,,,,,,,,,,,,,,,,,,,,,,,,,,,,,,,,,,,,,,,,,,,,,
,,6580b24b0593cdbf4ce9449d,2024-02-18_20h07.51.305,kallum_motion_pilot,2023.2.2,Win32,59.17159763,6580b24b0593cdbf4ce9449d,65d2b6c8f2eece985d8e374c,65d2b7decb56009c7b58450a,0.0394,0.0394,0,47,47,104,1,fivesix,,,,,,,,,,,,,,,,,,,,,,,,,,,,,,,,,,,,,,,,,,,,,,,,,,,,,,,,,,,,,,,,,,,,,,,,,,,,,,,,,,,,,,,,,,,,,,,,,,,,,,,,,,,,,,,,,,,,,,,,,,,,,,,,,,,,,,,,,
,,6580b24b0593cdbf4ce9449d,2024-02-18_20h07.51.305,kallum_motion_pilot,2023.2.2,Win32,59.17159763,6580b24b0593cdbf4ce9449d,65d2b6c8f2eece985d8e374c,65d2b7decb56009c7b58450a,0.0396,0.0396,0,48,48,63,1,fourthree,,,,,,,,,,,,,,,,,,,,,,,,,,,,,,,,,,,,,,,,,,,,,,,,,,,,,,,,,,,,,,,,,,,,,,,,,,,,,,,,,,,,,,,,,,,,,,,,,,,,,,,,,,,,,,,,,,,,,,,,,,,,,,,,,,,,,,,,,
,,6580b24b0593cdbf4ce9449d,2024-02-18_20h07.51.305,kallum_motion_pilot,2023.2.2,Win32,59.17159763,6580b24b0593cdbf4ce9449d,65d2b6c8f2eece985d8e374c,65d2b7decb56009c7b58450a,0.0397,0.0398,0,49,49,7,1,fourthree,,,,,,,,,,,,,,,,,,,,,,,,,,,,,,,,,,,,,,,,,,,,,,,,,,,,,,,,,,,,,,,,,,,,,,,,,,,,,,,,,,,,,,,,,,,,,,,,,,,,,,,,,,,,,,,,,,,,,,,,,,,,,,,,,,,,,,,,,
,,6580b24b0593cdbf4ce9449d,2024-02-18_20h07.51.305,kallum_motion_pilot,2023.2.2,Win32,59.17159763,6580b24b0593cdbf4ce9449d,65d2b6c8f2eece985d8e374c,65d2b7decb56009c7b58450a,0.0399,0.0399,0,50,50,71,1,fourthree,,,,,,,,,,,,,,,,,,,,,,,,,,,,,,,,,,,,,,,,,,,,,,,,,,,,,,,,,,,,,,,,,,,,,,,,,,,,,,,,,,,,,,,,,,,,,,,,,,,,,,,,,,,,,,,,,,,,,,,,,,,,,,,,,,,,,,,,,
,,6580b24b0593cdbf4ce9449d,2024-02-18_20h07.51.305,kallum_motion_pilot,2023.2.2,Win32,59.17159763,6580b24b0593cdbf4ce9449d,65d2b6c8f2eece985d8e374c,65d2b7decb56009c7b58450a,0.0401,0.0401,0,51,51,19,1,twofour,,,,,,,,,,,,,,,,,,,,,,,,,,,,,,,,,,,,,,,,,,,,,,,,,,,,,,,,,,,,,,,,,,,,,,,,,,,,,,,,,,,,,,,,,,,,,,,,,,,,,,,,,,,,,,,,,,,,,,,,,,,,,,,,,,,,,,,,,
,,6580b24b0593cdbf4ce9449d,2024-02-18_20h07.51.305,kallum_motion_pilot,2023.2.2,Win32,59.17159763,6580b24b0593cdbf4ce9449d,65d2b6c8f2eece985d8e374c,65d2b7decb56009c7b58450a,0.0402,0.0402,0,52,52,136,1,fivesix,,,,,,,,,,,,,,,,,,,,,,,,,,,,,,,,,,,,,,,,,,,,,,,,,,,,,,,,,,,,,,,,,,,,,,,,,,,,,,,,,,,,,,,,,,,,,,,,,,,,,,,,,,,,,,,,,,,,,,,,,,,,,,,,,,,,,,,,,
,,6580b24b0593cdbf4ce9449d,2024-02-18_20h07.51.305,kallum_motion_pilot,2023.2.2,Win32,59.17159763,6580b24b0593cdbf4ce9449d,65d2b6c8f2eece985d8e374c,65d2b7decb56009c7b58450a,0.0404,0.0404,0,53,53,45,1,threefour,,,,,,,,,,,,,,,,,,,,,,,,,,,,,,,,,,,,,,,,,,,,,,,,,,,,,,,,,,,,,,,,,,,,,,,,,,,,,,,,,,,,,,,,,,,,,,,,,,,,,,,,,,,,,,,,,,,,,,,,,,,,,,,,,,,,,,,,,
,,6580b24b0593cdbf4ce9449d,2024-02-18_20h07.51.305,kallum_motion_pilot,2023.2.2,Win32,59.17159763,6580b24b0593cdbf4ce9449d,65d2b6c8f2eece985d8e374c,65d2b7decb56009c7b58450a,0.0406,0.0406,0,54,54,134,1,eightsix,,,,,,,,,,,,,,,,,,,,,,,,,,,,,,,,,,,,,,,,,,,,,,,,,,,,,,,,,,,,,,,,,,,,,,,,,,,,,,,,,,,,,,,,,,,,,,,,,,,,,,,,,,,,,,,,,,,,,,,,,,,,,,,,,,,,,,,,,
,,6580b24b0593cdbf4ce9449d,2024-02-18_20h07.51.305,kallum_motion_pilot,2023.2.2,Win32,59.17159763,6580b24b0593cdbf4ce9449d,65d2b6c8f2eece985d8e374c,65d2b7decb56009c7b58450a,0.0408,0.0408,0,55,55,54,1,fourtwo,,,,,,,,,,,,,,,,,,,,,,,,,,,,,,,,,,,,,,,,,,,,,,,,,,,,,,,,,,,,,,,,,,,,,,,,,,,,,,,,,,,,,,,,,,,,,,,,,,,,,,,,,,,,,,,,,,,,,,,,,,,,,,,,,,,,,,,,,
,,6580b24b0593cdbf4ce9449d,2024-02-18_20h07.51.305,kallum_motion_pilot,2023.2.2,Win32,59.17159763,6580b24b0593cdbf4ce9449d,65d2b6c8f2eece985d8e374c,65d2b7decb56009c7b58450a,0.0409,0.0409,0,56,56,121,1,fiveseven,,,,,,,,,,,,,,,,,,,,,,,,,,,,,,,,,,,,,,,,,,,,,,,,,,,,,,,,,,,,,,,,,,,,,,,,,,,,,,,,,,,,,,,,,,,,,,,,,,,,,,,,,,,,,,,,,,,,,,,,,,,,,,,,,,,,,,,,,
,,6580b24b0593cdbf4ce9449d,2024-02-18_20h07.51.305,kallum_motion_pilot,2023.2.2,Win32,59.17159763,6580b24b0593cdbf4ce9449d,65d2b6c8f2eece985d8e374c,65d2b7decb56009c7b58450a,0.041,0.0411,0,57,57,138,1,sixfive,,,,,,,,,,,,,,,,,,,,,,,,,,,,,,,,,,,,,,,,,,,,,,,,,,,,,,,,,,,,,,,,,,,,,,,,,,,,,,,,,,,,,,,,,,,,,,,,,,,,,,,,,,,,,,,,,,,,,,,,,,,,,,,,,,,,,,,,,
,,6580b24b0593cdbf4ce9449d,2024-02-18_20h07.51.305,kallum_motion_pilot,2023.2.2,Win32,59.17159763,6580b24b0593cdbf4ce9449d,65d2b6c8f2eece985d8e374c,65d2b7decb56009c7b58450a,0.0412,0.0412,0,58,58,159,1,eightseven,,,,,,,,,,,,,,,,,,,,,,,,,,,,,,,,,,,,,,,,,,,,,,,,,,,,,,,,,,,,,,,,,,,,,,,,,,,,,,,,,,,,,,,,,,,,,,,,,,,,,,,,,,,,,,,,,,,,,,,,,,,,,,,,,,,,,,,,,
,,6580b24b0593cdbf4ce9449d,2024-02-18_20h07.51.305,kallum_motion_pilot,2023.2.2,Win32,59.17159763,6580b24b0593cdbf4ce9449d,65d2b6c8f2eece985d8e374c,65d2b7decb56009c7b58450a,0.0414,0.0414,0,59,59,111,1,eightseven,,,,,,,,,,,,,,,,,,,,,,,,,,,,,,,,,,,,,,,,,,,,,,,,,,,,,,,,,,,,,,,,,,,,,,,,,,,,,,,,,,,,,,,,,,,,,,,,,,,,,,,,,,,,,,,,,,,,,,,,,,,,,,,,,,,,,,,,,
,,6580b24b0593cdbf4ce9449d,2024-02-18_20h07.51.305,kallum_motion_pilot,2023.2.2,Win32,59.17159763,6580b24b0593cdbf4ce9449d,65d2b6c8f2eece985d8e374c,65d2b7decb56009c7b58450a,0.0414,0.0416,0,60,60,131,1,sixeight,,,,,,,,,,,,,,,,,,,,,,,,,,,,,,,,,,,,,,,,,,,,,,,,,,,,,,,,,,,,,,,,,,,,,,,,,,,,,,,,,,,,,,,,,,,,,,,,,,,,,,,,,,,,,,,,,,,,,,,,,,,,,,,,,,,,,,,,,
,,6580b24b0593cdbf4ce9449d,2024-02-18_20h07.51.305,kallum_motion_pilot,2023.2.2,Win32,59.17159763,6580b24b0593cdbf4ce9449d,65d2b6c8f2eece985d8e374c,65d2b7decb56009c7b58450a,0.0417,0.0417,0,61,61,50,1,twoone,,,,,,,,,,,,,,,,,,,,,,,,,,,,,,,,,,,,,,,,,,,,,,,,,,,,,,,,,,,,,,,,,,,,,,,,,,,,,,,,,,,,,,,,,,,,,,,,,,,,,,,,,,,,,,,,,,,,,,,,,,,,,,,,,,,,,,,,,
,,6580b24b0593cdbf4ce9449d,2024-02-18_20h07.51.305,kallum_motion_pilot,2023.2.2,Win32,59.17159763,6580b24b0593cdbf4ce9449d,65d2b6c8f2eece985d8e374c,65d2b7decb56009c7b58450a,0.042,0.042,0,62,62,51,1,twofour,,,,,,,,,,,,,,,,,,,,,,,,,,,,,,,,,,,,,,,,,,,,,,,,,,,,,,,,,,,,,,,,,,,,,,,,,,,,,,,,,,,,,,,,,,,,,,,,,,,,,,,,,,,,,,,,,,,,,,,,,,,,,,,,,,,,,,,,,
,,6580b24b0593cdbf4ce9449d,2024-02-18_20h07.51.305,kallum_motion_pilot,2023.2.2,Win32,59.17159763,6580b24b0593cdbf4ce9449d,65d2b6c8f2eece985d8e374c,65d2b7decb56009c7b58450a,0.0423,0.0424,0,63,63,5,1,threefour,,,,,,,,,,,,,,,,,,,,,,,,,,,,,,,,,,,,,,,,,,,,,,,,,,,,,,,,,,,,,,,,,,,,,,,,,,,,,,,,,,,,,,,,,,,,,,,,,,,,,,,,,,,,,,,,,,,,,,,,,,,,,,,,,,,,,,,,,
,,6580b24b0593cdbf4ce9449d,2024-02-18_20h07.51.305,kallum_motion_pilot,2023.2.2,Win32,59.17159763,6580b24b0593cdbf4ce9449d,65d2b6c8f2eece985d8e374c,65d2b7decb56009c7b58450a,0.0427,0.0427,0,64,64,135,1,eightseven,,,,,,,,,,,,,,,,,,,,,,,,,,,,,,,,,,,,,,,,,,,,,,,,,,,,,,,,,,,,,,,,,,,,,,,,,,,,,,,,,,,,,,,,,,,,,,,,,,,,,,,,,,,,,,,,,,,,,,,,,,,,,,,,,,,,,,,,,
,,6580b24b0593cdbf4ce9449d,2024-02-18_20h07.51.305,kallum_motion_pilot,2023.2.2,Win32,59.17159763,6580b24b0593cdbf4ce9449d,65d2b6c8f2eece985d8e374c,65d2b7decb56009c7b58450a,0.0429,0.0429,0,65,65,99,1,sixeight,,,,,,,,,,,,,,,,,,,,,,,,,,,,,,,,,,,,,,,,,,,,,,,,,,,,,,,,,,,,,,,,,,,,,,,,,,,,,,,,,,,,,,,,,,,,,,,,,,,,,,,,,,,,,,,,,,,,,,,,,,,,,,,,,,,,,,,,,
,,6580b24b0593cdbf4ce9449d,2024-02-18_20h07.51.305,kallum_motion_pilot,2023.2.2,Win32,59.17159763,6580b24b0593cdbf4ce9449d,65d2b6c8f2eece985d8e374c,65d2b7decb56009c7b58450a,0.0429,0.0431,0,66,66,20,1,threeone,,,,,,,,,,,,,,,,,,,,,,,,,,,,,,,,,,,,,,,,,,,,,,,,,,,,,,,,,,,,,,,,,,,,,,,,,,,,,,,,,,,,,,,,,,,,,,,,,,,,,,,,,,,,,,,,,,,,,,,,,,,,,,,,,,,,,,,,,
,,6580b24b0593cdbf4ce9449d,2024-02-18_20h07.51.305,kallum_motion_pilot,2023.2.2,Win32,59.17159763,6580b24b0593cdbf4ce9449d,65d2b6c8f2eece985d8e374c,65d2b7decb56009c7b58450a,0.0432,0.0432,0,67,67,1,1,onethree,,,,,,,,,,,,,,,,,,,,,,,,,,,,,,,,,,,,,,,,,,,,,,,,,,,,,,,,,,,,,,,,,,,,,,,,,,,,,,,,,,,,,,,,,,,,,,,,,,,,,,,,,,,,,,,,,,,,,,,,,,,,,,,,,,,,,,,,,
,,6580b24b0593cdbf4ce9449d,2024-02-18_20h07.51.305,kallum_motion_pilot,2023.2.2,Win32,59.17159763,6580b24b0593cdbf4ce9449d,65d2b6c8f2eece985d8e374c,65d2b7decb56009c7b58450a,0.0434,0.0435,0,68,68,158,1,eightsix,,,,,,,,,,,,,,,,,,,,,,,,,,,,,,,,,,,,,,,,,,,,,,,,,,,,,,,,,,,,,,,,,,,,,,,,,,,,,,,,,,,,,,,,,,,,,,,,,,,,,,,,,,,,,,,,,,,,,,,,,,,,,,,,,,,,,,,,,
,,6580b24b0593cdbf4ce9449d,2024-02-18_20h07.51.305,kallum_motion_pilot,2023.2.2,Win32,59.17159763,6580b24b0593cdbf4ce9449d,65d2b6c8f2eece985d8e374c,65d2b7decb56009c7b58450a,0.0436,0.0437,0,69,69,118,1,eightsix,,,,,,,,,,,,,,,,,,,,,,,,,,,,,,,,,,,,,,,,,,,,,,,,,,,,,,,,,,,,,,,,,,,,,,,,,,,,,,,,,,,,,,,,,,,,,,,,,,,,,,,,,,,,,,,,,,,,,,,,,,,,,,,,,,,,,,,,,
,,6580b24b0593cdbf4ce9449d,2024-02-18_20h07.51.305,kallum_motion_pilot,2023.2.2,Win32,59.17159763,6580b24b0593cdbf4ce9449d,65d2b6c8f2eece985d8e374c,65d2b7decb56009c7b58450a,0.044,0.044,0,70,70,9,1,onethree,,,,,,,,,,,,,,,,,,,,,,,,,,,,,,,,,,,,,,,,,,,,,,,,,,,,,,,,,,,,,,,,,,,,,,,,,,,,,,,,,,,,,,,,,,,,,,,,,,,,,,,,,,,,,,,,,,,,,,,,,,,,,,,,,,,,,,,,,
,,6580b24b0593cdbf4ce9449d,2024-02-18_20h07.51.305,kallum_motion_pilot,2023.2.2,Win32,59.17159763,6580b24b0593cdbf4ce9449d,65d2b6c8f2eece985d8e374c,65d2b7decb56009c7b58450a,0.0442,0.0443,0,71,71,46,1,fourtwo,,,,,,,,,,,,,,,,,,,,,,,,,,,,,,,,,,,,,,,,,,,,,,,,,,,,,,,,,,,,,,,,,,,,,,,,,,,,,,,,,,,,,,,,,,,,,,,,,,,,,,,,,,,,,,,,,,,,,,,,,,,,,,,,,,,,,,,,,
,,6580b24b0593cdbf4ce9449d,2024-02-18_20h07.51.305,kallum_motion_pilot,2023.2.2,Win32,59.17159763,6580b24b0593cdbf4ce9449d,65d2b6c8f2eece985d8e374c,65d2b7decb56009c7b58450a,0.0445,0.0446,0,72,72,106,1,sixfive,,,,,,,,,,,,,,,,,,,,,,,,,,,,,,,,,,,,,,,,,,,,,,,,,,,,,,,,,,,,,,,,,,,,,,,,,,,,,,,,,,,,,,,,,,,,,,,,,,,,,,,,,,,,,,,,,,,,,,,,,,,,,,,,,,,,,,,,,
,,6580b24b0593cdbf4ce9449d,2024-02-18_20h07.51.305,kallum_motion_pilot,2023.2.2,Win32,59.17159763,6580b24b0593cdbf4ce9449d,65d2b6c8f2eece985d8e374c,65d2b7decb56009c7b58450a,0.0451,0.0453,0,73,73,34,1,twoone,,,,,,,,,,,,,,,,,,,,,,,,,,,,,,,,,,,,,,,,,,,,,,,,,,,,,,,,,,,,,,,,,,,,,,,,,,,,,,,,,,,,,,,,,,,,,,,,,,,,,,,,,,,,,,,,,,,,,,,,,,,,,,,,,,,,,,,,,
,,6580b24b0593cdbf4ce9449d,2024-02-18_20h07.51.305,kallum_motion_pilot,2023.2.2,Win32,59.17159763,6580b24b0593cdbf4ce9449d,65d2b6c8f2eece985d8e374c,65d2b7decb56009c7b58450a,0.0459,0.0461,0,74,74,13,1,threefour,,,,,,,,,,,,,,,,,,,,,,,,,,,,,,,,,,,,,,,,,,,,,,,,,,,,,,,,,,,,,,,,,,,,,,,,,,,,,,,,,,,,,,,,,,,,,,,,,,,,,,,,,,,,,,,,,,,,,,,,,,,,,,,,,,,,,,,,,
,,6580b24b0593cdbf4ce9449d,2024-02-18_20h07.51.305,kallum_motion_pilot,2023.2.2,Win32,59.17159763,6580b24b0593cdbf4ce9449d,65d2b6c8f2eece985d8e374c,65d2b7decb56009c7b58450a,0.0463,0.0464,0,75,75,85,1,seveneight,,,,,,,,,,,,,,,,,,,,,,,,,,,,,,,,,,,,,,,,,,,,,,,,,,,,,,,,,,,,,,,,,,,,,,,,,,,,,,,,,,,,,,,,,,,,,,,,,,,,,,,,,,,,,,,,,,,,,,,,,,,,,,,,,,,,,,,,,
,,6580b24b0593cdbf4ce9449d,2024-02-18_20h07.51.305,kallum_motion_pilot,2023.2.2,Win32,59.17159763,6580b24b0593cdbf4ce9449d,65d2b6c8f2eece985d8e374c,65d2b7decb56009c7b58450a,0.0466,0.0467,0,76,76,67,1,twofour,,,,,,,,,,,,,,,,,,,,,,,,,,,,,,,,,,,,,,,,,,,,,,,,,,,,,,,,,,,,,,,,,,,,,,,,,,,,,,,,,,,,,,,,,,,,,,,,,,,,,,,,,,,,,,,,,,,,,,,,,,,,,,,,,,,,,,,,,
,,6580b24b0593cdbf4ce9449d,2024-02-18_20h07.51.305,kallum_motion_pilot,2023.2.2,Win32,59.17159763,6580b24b0593cdbf4ce9449d,65d2b6c8f2eece985d8e374c,65d2b7decb56009c7b58450a,0.0468,0.0468,0,77,77,145,1,fiveseven,,,,,,,,,,,,,,,,,,,,,,,,,,,,,,,,,,,,,,,,,,,,,,,,,,,,,,,,,,,,,,,,,,,,,,,,,,,,,,,,,,,,,,,,,,,,,,,,,,,,,,,,,,,,,,,,,,,,,,,,,,,,,,,,,,,,,,,,,
,,6580b24b0593cdbf4ce9449d,2024-02-18_20h07.51.305,kallum_motion_pilot,2023.2.2,Win32,59.17159763,6580b24b0593cdbf4ce9449d,65d2b6c8f2eece985d8e374c,65d2b7decb56009c7b58450a,0.047,0.047,0,78,78,12,1,threeone,,,,,,,,,,,,,,,,,,,,,,,,,,,,,,,,,,,,,,,,,,,,,,,,,,,,,,,,,,,,,,,,,,,,,,,,,,,,,,,,,,,,,,,,,,,,,,,,,,,,,,,,,,,,,,,,,,,,,,,,,,,,,,,,,,,,,,,,,
,,6580b24b0593cdbf4ce9449d,2024-02-18_20h07.51.305,kallum_motion_pilot,2023.2.2,Win32,59.17159763,6580b24b0593cdbf4ce9449d,65d2b6c8f2eece985d8e374c,65d2b7decb56009c7b58450a,0.0471,0.0473,0,79,79,139,1,sixeight,,,,,,,,,,,,,,,,,,,,,,,,,,,,,,,,,,,,,,,,,,,,,,,,,,,,,,,,,,,,,,,,,,,,,,,,,,,,,,,,,,,,,,,,,,,,,,,,,,,,,,,,,,,,,,,,,,,,,,,,,,,,,,,,,,,,,,,,,
,,6580b24b0593cdbf4ce9449d,2024-02-18_20h07.51.305,kallum_motion_pilot,2023.2.2,Win32,59.17159763,6580b24b0593cdbf4ce9449d,65d2b6c8f2eece985d8e374c,65d2b7decb56009c7b58450a,0.0474,0.0474,0,80,80,124,1,sevenfive,,,,,,,,,,,,,,,,,,,,,,,,,,,,,,,,,,,,,,,,,,,,,,,,,,,,,,,,,,,,,,,,,,,,,,,,,,,,,,,,,,,,,,,,,,,,,,,,,,,,,,,,,,,,,,,,,,,,,,,,,,,,,,,,,,,,,,,,,
,,6580b24b0593cdbf4ce9449d,2024-02-18_20h07.51.305,kallum_motion_pilot,2023.2.2,Win32,59.17159763,6580b24b0593cdbf4ce9449d,65d2b6c8f2eece985d8e374c,65d2b7decb56009c7b58450a,0.0475,0.0476,0,81,81,18,1,twoone,,,,,,,,,,,,,,,,,,,,,,,,,,,,,,,,,,,,,,,,,,,,,,,,,,,,,,,,,,,,,,,,,,,,,,,,,,,,,,,,,,,,,,,,,,,,,,,,,,,,,,,,,,,,,,,,,,,,,,,,,,,,,,,,,,,,,,,,,
,,6580b24b0593cdbf4ce9449d,2024-02-18_20h07.51.305,kallum_motion_pilot,2023.2.2,Win32,59.17159763,6580b24b0593cdbf4ce9449d,65d2b6c8f2eece985d8e374c,65d2b7decb56009c7b58450a,0.0477,0.0477,0,82,82,68,1,threeone,,,,,,,,,,,,,,,,,,,,,,,,,,,,,,,,,,,,,,,,,,,,,,,,,,,,,,,,,,,,,,,,,,,,,,,,,,,,,,,,,,,,,,,,,,,,,,,,,,,,,,,,,,,,,,,,,,,,,,,,,,,,,,,,,,,,,,,,,
,,6580b24b0593cdbf4ce9449d,2024-02-18_20h07.51.305,kallum_motion_pilot,2023.2.2,Win32,59.17159763,6580b24b0593cdbf4ce9449d,65d2b6c8f2eece985d8e374c,65d2b7decb56009c7b58450a,0.0479,0.0479,0,83,83,90,1,sixfive,,,,,,,,,,,,,,,,,,,,,,,,,,,,,,,,,,,,,,,,,,,,,,,,,,,,,,,,,,,,,,,,,,,,,,,,,,,,,,,,,,,,,,,,,,,,,,,,,,,,,,,,,,,,,,,,,,,,,,,,,,,,,,,,,,,,,,,,,
,,6580b24b0593cdbf4ce9449d,2024-02-18_20h07.51.305,kallum_motion_pilot,2023.2.2,Win32,59.17159763,6580b24b0593cdbf4ce9449d,65d2b6c8f2eece985d8e374c,65d2b7decb56009c7b58450a,0.048,0.0481,0,84,84,32,1,onetwo,,,,,,,,,,,,,,,,,,,,,,,,,,,,,,,,,,,,,,,,,,,,,,,,,,,,,,,,,,,,,,,,,,,,,,,,,,,,,,,,,,,,,,,,,,,,,,,,,,,,,,,,,,,,,,,,,,,,,,,,,,,,,,,,,,,,,,,,,
,,6580b24b0593cdbf4ce9449d,2024-02-18_20h07.51.305,kallum_motion_pilot,2023.2.2,Win32,59.17159763,6580b24b0593cdbf4ce9449d,65d2b6c8f2eece985d8e374c,65d2b7decb56009c7b58450a,0.0482,0.0482,0,85,85,53,1,threefour,,,,,,,,,,,,,,,,,,,,,,,,,,,,,,,,,,,,,,,,,,,,,,,,,,,,,,,,,,,,,,,,,,,,,,,,,,,,,,,,,,,,,,,,,,,,,,,,,,,,,,,,,,,,,,,,,,,,,,,,,,,,,,,,,,,,,,,,,
,,6580b24b0593cdbf4ce9449d,2024-02-18_20h07.51.305,kallum_motion_pilot,2023.2.2,Win32,59.17159763,6580b24b0593cdbf4ce9449d,65d2b6c8f2eece985d8e374c,65d2b7decb56009c7b58450a,0.0483,0.0484,0,86,86,122,1,sixfive,,,,,,,,,,,,,,,,,,,,,,,,,,,,,,,,,,,,,,,,,,,,,,,,,,,,,,,,,,,,,,,,,,,,,,,,,,,,,,,,,,,,,,,,,,,,,,,,,,,,,,,,,,,,,,,,,,,,,,,,,,,,,,,,,,,,,,,,,
,,6580b24b0593cdbf4ce9449d,2024-02-18_20h07.51.305,kallum_motion_pilot,2023.2.2,Win32,59.17159763,6580b24b0593cdbf4ce9449d,65d2b6c8f2eece985d8e374c,65d2b7decb56009c7b58450a,0.0485,0.0487,0,87,87,133,1,seveneight,,,,,,,,,,,,,,,,,,,,,,,,,,,,,,,,,,,,,,,,,,,,,,,,,,,,,,,,,,,,,,,,,,,,,,,,,,,,,,,,,,,,,,,,,,,,,,,,,,,,,,,,,,,,,,,,,,,,,,,,,,,,,,,,,,,,,,,,,
,,6580b24b0593cdbf4ce9449d,2024-02-18_20h07.51.305,kallum_motion_pilot,2023.2.2,Win32,59.17159763,6580b24b0593cdbf4ce9449d,65d2b6c8f2eece985d8e374c,65d2b7decb56009c7b58450a,0.049,0.0491,0,88,88,91,1,sixeight,,,,,,,,,,,,,,,,,,,,,,,,,,,,,,,,,,,,,,,,,,,,,,,,,,,,,,,,,,,,,,,,,,,,,,,,,,,,,,,,,,,,,,,,,,,,,,,,,,,,,,,,,,,,,,,,,,,,,,,,,,,,,,,,,,,,,,,,,
,,6580b24b0593cdbf4ce9449d,2024-02-18_20h07.51.305,kallum_motion_pilot,2023.2.2,Win32,59.17159763,6580b24b0593cdbf4ce9449d,65d2b6c8f2eece985d8e374c,65d2b7decb56009c7b58450a,0.0494,0.0495,0,89,89,25,1,onethree,,,,,,,,,,,,,,,,,,,,,,,,,,,,,,,,,,,,,,,,,,,,,,,,,,,,,,,,,,,,,,,,,,,,,,,,,,,,,,,,,,,,,,,,,,,,,,,,,,,,,,,,,,,,,,,,,,,,,,,,,,,,,,,,,,,,,,,,,
,,6580b24b0593cdbf4ce9449d,2024-02-18_20h07.51.305,kallum_motion_pilot,2023.2.2,Win32,59.17159763,6580b24b0593cdbf4ce9449d,65d2b6c8f2eece985d8e374c,65d2b7decb56009c7b58450a,0.0497,0.0498,0,90,90,49,1,onethree,,,,,,,,,,,,,,,,,,,,,,,,,,,,,,,,,,,,,,,,,,,,,,,,,,,,,,,,,,,,,,,,,,,,,,,,,,,,,,,,,,,,,,,,,,,,,,,,,,,,,,,,,,,,,,,,,,,,,,,,,,,,,,,,,,,,,,,,,
,,6580b24b0593cdbf4ce9449d,2024-02-18_20h07.51.305,kallum_motion_pilot,2023.2.2,Win32,59.17159763,6580b24b0593cdbf4ce9449d,65d2b6c8f2eece985d8e374c,65d2b7decb56009c7b58450a,0.05,0.05,0,91,91,87,1,eightseven,,,,,,,,,,,,,,,,,,,,,,,,,,,,,,,,,,,,,,,,,,,,,,,,,,,,,,,,,,,,,,,,,,,,,,,,,,,,,,,,,,,,,,,,,,,,,,,,,,,,,,,,,,,,,,,,,,,,,,,,,,,,,,,,,,,,,,,,,
,,6580b24b0593cdbf4ce9449d,2024-02-18_20h07.51.305,kallum_motion_pilot,2023.2.2,Win32,59.17159763,6580b24b0593cdbf4ce9449d,65d2b6c8f2eece985d8e374c,65d2b7decb56009c7b58450a,0.0502,0.0503,0,92,92,120,1,fivesix,,,,,,,,,,,,,,,,,,,,,,,,,,,,,,,,,,,,,,,,,,,,,,,,,,,,,,,,,,,,,,,,,,,,,,,,,,,,,,,,,,,,,,,,,,,,,,,,,,,,,,,,,,,,,,,,,,,,,,,,,,,,,,,,,,,,,,,,,
,,6580b24b0593cdbf4ce9449d,2024-02-18_20h07.51.305,kallum_motion_pilot,2023.2.2,Win32,59.17159763,6580b24b0593cdbf4ce9449d,65d2b6c8f2eece985d8e374c,65d2b7decb56009c7b58450a,0.0504,0.0505,0,93,93,142,1,eightsix,,,,,,,,,,,,,,,,,,,,,,,,,,,,,,,,,,,,,,,,,,,,,,,,,,,,,,,,,,,,,,,,,,,,,,,,,,,,,,,,,,,,,,,,,,,,,,,,,,,,,,,,,,,,,,,,,,,,,,,,,,,,,,,,,,,,,,,,,
,,6580b24b0593cdbf4ce9449d,2024-02-18_20h07.51.305,kallum_motion_pilot,2023.2.2,Win32,59.17159763,6580b24b0593cdbf4ce9449d,65d2b6c8f2eece985d8e374c,65d2b7decb56009c7b58450a,0.0506,0.0507,0,94,94,33,1,onethree,,,,,,,,,,,,,,,,,,,,,,,,,,,,,,,,,,,,,,,,,,,,,,,,,,,,,,,,,,,,,,,,,,,,,,,,,,,,,,,,,,,,,,,,,,,,,,,,,,,,,,,,,,,,,,,,,,,,,,,,,,,,,,,,,,,,,,,,,
,,6580b24b0593cdbf4ce9449d,2024-02-18_20h07.51.305,kallum_motion_pilot,2023.2.2,Win32,59.17159763,6580b24b0593cdbf4ce9449d,65d2b6c8f2eece985d8e374c,65d2b7decb56009c7b58450a,0.0508,0.0508,0,95,95,36,1,threeone,,,,,,,,,,,,,,,,,,,,,,,,,,,,,,,,,,,,,,,,,,,,,,,,,,,,,,,,,,,,,,,,,,,,,,,,,,,,,,,,,,,,,,,,,,,,,,,,,,,,,,,,,,,,,,,,,,,,,,,,,,,,,,,,,,,,,,,,,
,,6580b24b0593cdbf4ce9449d,2024-02-18_20h07.51.305,kallum_motion_pilot,2023.2.2,Win32,59.17159763,6580b24b0593cdbf4ce9449d,65d2b6c8f2eece985d8e374c,65d2b7decb56009c7b58450a,0.0511,0.0511,0,96,96,103,1,eightseven,,,,,,,,,,,,,,,,,,,,,,,,,,,,,,,,,,,,,,,,,,,,,,,,,,,,,,,,,,,,,,,,,,,,,,,,,,,,,,,,,,,,,,,,,,,,,,,,,,,,,,,,,,,,,,,,,,,,,,,,,,,,,,,,,,,,,,,,,
,,6580b24b0593cdbf4ce9449d,2024-02-18_20h07.51.305,kallum_motion_pilot,2023.2.2,Win32,59.17159763,6580b24b0593cdbf4ce9449d,65d2b6c8f2eece985d8e374c,65d2b7decb56009c7b58450a,0.0512,0.0513,0,97,97,40,1,onetwo,,,,,,,,,,,,,,,,,,,,,,,,,,,,,,,,,,,,,,,,,,,,,,,,,,,,,,,,,,,,,,,,,,,,,,,,,,,,,,,,,,,,,,,,,,,,,,,,,,,,,,,,,,,,,,,,,,,,,,,,,,,,,,,,,,,,,,,,,
,,6580b24b0593cdbf4ce9449d,2024-02-18_20h07.51.305,kallum_motion_pilot,2023.2.2,Win32,59.17159763,6580b24b0593cdbf4ce9449d,65d2b6c8f2eece985d8e374c,65d2b7decb56009c7b58450a,0.0514,0.0515,0,98,98,137,1,fiveseven,,,,,,,,,,,,,,,,,,,,,,,,,,,,,,,,,,,,,,,,,,,,,,,,,,,,,,,,,,,,,,,,,,,,,,,,,,,,,,,,,,,,,,,,,,,,,,,,,,,,,,,,,,,,,,,,,,,,,,,,,,,,,,,,,,,,,,,,,
,,6580b24b0593cdbf4ce9449d,2024-02-18_20h07.51.305,kallum_motion_pilot,2023.2.2,Win32,59.17159763,6580b24b0593cdbf4ce9449d,65d2b6c8f2eece985d8e374c,65d2b7decb56009c7b58450a,0.0517,0.0518,0,99,99,114,1,sixfive,,,,,,,,,,,,,,,,,,,,,,,,,,,,,,,,,,,,,,,,,,,,,,,,,,,,,,,,,,,,,,,,,,,,,,,,,,,,,,,,,,,,,,,,,,,,,,,,,,,,,,,,,,,,,,,,,,,,,,,,,,,,,,,,,,,,,,,,,
,,6580b24b0593cdbf4ce9449d,2024-02-18_20h07.51.305,kallum_motion_pilot,2023.2.2,Win32,59.17159763,6580b24b0593cdbf4ce9449d,65d2b6c8f2eece985d8e374c,65d2b7decb56009c7b58450a,0.0519,0.0519,0,100,100,110,1,eightsix,,,,,,,,,,,,,,,,,,,,,,,,,,,,,,,,,,,,,,,,,,,,,,,,,,,,,,,,,,,,,,,,,,,,,,,,,,,,,,,,,,,,,,,,,,,,,,,,,,,,,,,,,,,,,,,,,,,,,,,,,,,,,,,,,,,,,,,,,
,,6580b24b0593cdbf4ce9449d,2024-02-18_20h07.51.305,kallum_motion_pilot,2023.2.2,Win32,59.17159763,6580b24b0593cdbf4ce9449d,65d2b6c8f2eece985d8e374c,65d2b7decb56009c7b58450a,0.0521,0.0522,0,101,101,47,1,fourthree,,,,,,,,,,,,,,,,,,,,,,,,,,,,,,,,,,,,,,,,,,,,,,,,,,,,,,,,,,,,,,,,,,,,,,,,,,,,,,,,,,,,,,,,,,,,,,,,,,,,,,,,,,,,,,,,,,,,,,,,,,,,,,,,,,,,,,,,,
,,6580b24b0593cdbf4ce9449d,2024-02-18_20h07.51.305,kallum_motion_pilot,2023.2.2,Win32,59.17159763,6580b24b0593cdbf4ce9449d,65d2b6c8f2eece985d8e374c,65d2b7decb56009c7b58450a,0.0523,0.0524,0,102,102,42,1,twoone,,,,,,,,,,,,,,,,,,,,,,,,,,,,,,,,,,,,,,,,,,,,,,,,,,,,,,,,,,,,,,,,,,,,,,,,,,,,,,,,,,,,,,,,,,,,,,,,,,,,,,,,,,,,,,,,,,,,,,,,,,,,,,,,,,,,,,,,,
,,6580b24b0593cdbf4ce9449d,2024-02-18_20h07.51.305,kallum_motion_pilot,2023.2.2,Win32,59.17159763,6580b24b0593cdbf4ce9449d,65d2b6c8f2eece985d8e374c,65d2b7decb56009c7b58450a,0.0525,0.0526,0,103,103,113,1,fiveseven,,,,,,,,,,,,,,,,,,,,,,,,,,,,,,,,,,,,,,,,,,,,,,,,,,,,,,,,,,,,,,,,,,,,,,,,,,,,,,,,,,,,,,,,,,,,,,,,,,,,,,,,,,,,,,,,,,,,,,,,,,,,,,,,,,,,,,,,,
,,6580b24b0593cdbf4ce9449d,2024-02-18_20h07.51.305,kallum_motion_pilot,2023.2.2,Win32,59.17159763,6580b24b0593cdbf4ce9449d,65d2b6c8f2eece985d8e374c,65d2b7decb56009c7b58450a,0.0539,0.0541,0,104,104,150,1,eightsix,,,,,,,,,,,,,,,,,,,,,,,,,,,,,,,,,,,,,,,,,,,,,,,,,,,,,,,,,,,,,,,,,,,,,,,,,,,,,,,,,,,,,,,,,,,,,,,,,,,,,,,,,,,,,,,,,,,,,,,,,,,,,,,,,,,,,,,,,
,,6580b24b0593cdbf4ce9449d,2024-02-18_20h07.51.305,kallum_motion_pilot,2023.2.2,Win32,59.17159763,6580b24b0593cdbf4ce9449d,65d2b6c8f2eece985d8e374c,65d2b7decb56009c7b58450a,0.0542,0.0543,0,105,105,152,1,fivesix,,,,,,,,,,,,,,,,,,,,,,,,,,,,,,,,,,,,,,,,,,,,,,,,,,,,,,,,,,,,,,,,,,,,,,,,,,,,,,,,,,,,,,,,,,,,,,,,,,,,,,,,,,,,,,,,,,,,,,,,,,,,,,,,,,,,,,,,,
,,6580b24b0593cdbf4ce9449d,2024-02-18_20h07.51.305,kallum_motion_pilot,2023.2.2,Win32,59.17159763,6580b24b0593cdbf4ce9449d,65d2b6c8f2eece985d8e374c,65d2b7decb56009c7b58450a,0.0546,0.0546,0,106,106,8,1,onetwo,,,,,,,,,,,,,,,,,,,,,,,,,,,,,,,,,,,,,,,,,,,,,,,,,,,,,,,,,,,,,,,,,,,,,,,,,,,,,,,,,,,,,,,,,,,,,,,,,,,,,,,,,,,,,,,,,,,,,,,,,,,,,,,,,,,,,,,,,
,,6580b24b0593cdbf4ce9449d,2024-02-18_20h07.51.305,kallum_motion_pilot,2023.2.2,Win32,59.17159763,6580b24b0593cdbf4ce9449d,65d2b6c8f2eece985d8e374c,65d2b7decb56009c7b58450a,0.0548,0.0549,0,107,107,57,1,onethree,,,,,,,,,,,,,,,,,,,,,,,,,,,,,,,,,,,,,,,,,,,,,,,,,,,,,,,,,,,,,,,,,,,,,,,,,,,,,,,,,,,,,,,,,,,,,,,,,,,,,,,,,,,,,,,,,,,,,,,,,,,,,,,,,,,,,,,,,
,,6580b24b0593cdbf4ce9449d,2024-02-18_20h07.51.305,kallum_motion_pilot,2023.2.2,Win32,59.17159763,6580b24b0593cdbf4ce9449d,65d2b6c8f2eece985d8e374c,65d2b7decb56009c7b58450a,0.0551,0.0551,0,108,108,37,1,threefour,,,,,,,,,,,,,,,,,,,,,,,,,,,,,,,,,,,,,,,,,,,,,,,,,,,,,,,,,,,,,,,,,,,,,,,,,,,,,,,,,,,,,,,,,,,,,,,,,,,,,,,,,,,,,,,,,,,,,,,,,,,,,,,,,,,,,,,,,
,,6580b24b0593cdbf4ce9449d,2024-02-18_20h07.51.305,kallum_motion_pilot,2023.2.2,Win32,59.17159763,6580b24b0593cdbf4ce9449d,65d2b6c8f2eece985d8e374c,65d2b7decb56009c7b58450a,0.0553,0.0553,0,109,109,52,1,threeone,,,,,,,,,,,,,,,,,,,,,,,,,,,,,,,,,,,,,,,,,,,,,,,,,,,,,,,,,,,,,,,,,,,,,,,,,,,,,,,,,,,,,,,,,,,,,,,,,,,,,,,,,,,,,,,,,,,,,,,,,,,,,,,,,,,,,,,,,
,,6580b24b0593cdbf4ce9449d,2024-02-18_20h07.51.305,kallum_motion_pilot,2023.2.2,Win32,59.17159763,6580b24b0593cdbf4ce9449d,65d2b6c8f2eece985d8e374c,65d2b7decb56009c7b58450a,0.0555,0.0555,0,110,110,143,1,eightseven,,,,,,,,,,,,,,,,,,,,,,,,,,,,,,,,,,,,,,,,,,,,,,,,,,,,,,,,,,,,,,,,,,,,,,,,,,,,,,,,,,,,,,,,,,,,,,,,,,,,,,,,,,,,,,,,,,,,,,,,,,,,,,,,,,,,,,,,,
,,6580b24b0593cdbf4ce9449d,2024-02-18_20h07.51.305,kallum_motion_pilot,2023.2.2,Win32,59.17159763,6580b24b0593cdbf4ce9449d,65d2b6c8f2eece985d8e374c,65d2b7decb56009c7b58450a,0.0557,0.0558,0,111,111,102,1,eightsix,,,,,,,,,,,,,,,,,,,,,,,,,,,,,,,,,,,,,,,,,,,,,,,,,,,,,,,,,,,,,,,,,,,,,,,,,,,,,,,,,,,,,,,,,,,,,,,,,,,,,,,,,,,,,,,,,,,,,,,,,,,,,,,,,,,,,,,,,
,,6580b24b0593cdbf4ce9449d,2024-02-18_20h07.51.305,kallum_motion_pilot,2023.2.2,Win32,59.17159763,6580b24b0593cdbf4ce9449d,65d2b6c8f2eece985d8e374c,65d2b7decb56009c7b58450a,0.0559,0.056,0,112,112,144,1,fivesix,,,,,,,,,,,,,,,,,,,,,,,,,,,,,,,,,,,,,,,,,,,,,,,,,,,,,,,,,,,,,,,,,,,,,,,,,,,,,,,,,,,,,,,,,,,,,,,,,,,,,,,,,,,,,,,,,,,,,,,,,,,,,,,,,,,,,,,,,
,,6580b24b0593cdbf4ce9449d,2024-02-18_20h07.51.305,kallum_motion_pilot,2023.2.2,Win32,59.17159763,6580b24b0593cdbf4ce9449d,65d2b6c8f2eece985d8e374c,65d2b7decb56009c7b58450a,0.0561,0.0561,0,113,113,80,1,fivesix,,,,,,,,,,,,,,,,,,,,,,,,,,,,,,,,,,,,,,,,,,,,,,,,,,,,,,,,,,,,,,,,,,,,,,,,,,,,,,,,,,,,,,,,,,,,,,,,,,,,,,,,,,,,,,,,,,,,,,,,,,,,,,,,,,,,,,,,,
,,6580b24b0593cdbf4ce9449d,2024-02-18_20h07.51.305,kallum_motion_pilot,2023.2.2,Win32,59.17159763,6580b24b0593cdbf4ce9449d,65d2b6c8f2eece985d8e374c,65d2b7decb56009c7b58450a,0.0562,0.0563,0,114,114,14,1,fourtwo,,,,,,,,,,,,,,,,,,,,,,,,,,,,,,,,,,,,,,,,,,,,,,,,,,,,,,,,,,,,,,,,,,,,,,,,,,,,,,,,,,,,,,,,,,,,,,,,,,,,,,,,,,,,,,,,,,,,,,,,,,,,,,,,,,,,,,,,,
,,6580b24b0593cdbf4ce9449d,2024-02-18_20h07.51.305,kallum_motion_pilot,2023.2.2,Win32,59.17159763,6580b24b0593cdbf4ce9449d,65d2b6c8f2eece985d8e374c,65d2b7decb56009c7b58450a,0.0564,0.0565,0,115,115,69,1,threefour,,,,,,,,,,,,,,,,,,,,,,,,,,,,,,,,,,,,,,,,,,,,,,,,,,,,,,,,,,,,,,,,,,,,,,,,,,,,,,,,,,,,,,,,,,,,,,,,,,,,,,,,,,,,,,,,,,,,,,,,,,,,,,,,,,,,,,,,,
,,6580b24b0593cdbf4ce9449d,2024-02-18_20h07.51.305,kallum_motion_pilot,2023.2.2,Win32,59.17159763,6580b24b0593cdbf4ce9449d,65d2b6c8f2eece985d8e374c,65d2b7decb56009c7b58450a,0.0566,0.0567,0,116,116,100,1,sevenfive,,,,,,,,,,,,,,,,,,,,,,,,,,,,,,,,,,,,,,,,,,,,,,,,,,,,,,,,,,,,,,,,,,,,,,,,,,,,,,,,,,,,,,,,,,,,,,,,,,,,,,,,,,,,,,,,,,,,,,,,,,,,,,,,,,,,,,,,,
,,6580b24b0593cdbf4ce9449d,2024-02-18_20h07.51.305,kallum_motion_pilot,2023.2.2,Win32,59.17159763,6580b24b0593cdbf4ce9449d,65d2b6c8f2eece985d8e374c,65d2b7decb56009c7b58450a,0.0569,0.0569,0,117,117,23,1,fourthree,,,,,,,,,,,,,,,,,,,,,,,,,,,,,,,,,,,,,,,,,,,,,,,,,,,,,,,,,,,,,,,,,,,,,,,,,,,,,,,,,,,,,,,,,,,,,,,,,,,,,,,,,,,,,,,,,,,,,,,,,,,,,,,,,,,,,,,,,
,,6580b24b0593cdbf4ce9449d,2024-02-18_20h07.51.305,kallum_motion_pilot,2023.2.2,Win32,59.17159763,6580b24b0593cdbf4ce9449d,65d2b6c8f2eece985d8e374c,65d2b7decb56009c7b58450a,0.0571,0.0571,0,118,118,0,1,onetwo,,,,,,,,,,,,,,,,,,,,,,,,,,,,,,,,,,,,,,,,,,,,,,,,,,,,,,,,,,,,,,,,,,,,,,,,,,,,,,,,,,,,,,,,,,,,,,,,,,,,,,,,,,,,,,,,,,,,,,,,,,,,,,,,,,,,,,,,,
,,6580b24b0593cdbf4ce9449d,2024-02-18_20h07.51.305,kallum_motion_pilot,2023.2.2,Win32,59.17159763,6580b24b0593cdbf4ce9449d,65d2b6c8f2eece985d8e374c,65d2b7decb56009c7b58450a,0.0572,0.0573,0,119,119,39,1,fourthree,,,,,,,,,,,,,,,,,,,,,,,,,,,,,,,,,,,,,,,,,,,,,,,,,,,,,,,,,,,,,,,,,,,,,,,,,,,,,,,,,,,,,,,,,,,,,,,,,,,,,,,,,,,,,,,,,,,,,,,,,,,,,,,,,,,,,,,,,
,,6580b24b0593cdbf4ce9449d,2024-02-18_20h07.51.305,kallum_motion_pilot,2023.2.2,Win32,59.17159763,6580b24b0593cdbf4ce9449d,65d2b6c8f2eece985d8e374c,65d2b7decb56009c7b58450a,0.0575,0.0575,0,120,120,108,1,sevenfive,,,,,,,,,,,,,,,,,,,,,,,,,,,,,,,,,,,,,,,,,,,,,,,,,,,,,,,,,,,,,,,,,,,,,,,,,,,,,,,,,,,,,,,,,,,,,,,,,,,,,,,,,,,,,,,,,,,,,,,,,,,,,,,,,,,,,,,,,
,,6580b24b0593cdbf4ce9449d,2024-02-18_20h07.51.305,kallum_motion_pilot,2023.2.2,Win32,59.17159763,6580b24b0593cdbf4ce9449d,65d2b6c8f2eece985d8e374c,65d2b7decb56009c7b58450a,0.0577,0.0578,0,121,121,60,1,threeone,,,,,,,,,,,,,,,,,,,,,,,,,,,,,,,,,,,,,,,,,,,,,,,,,,,,,,,,,,,,,,,,,,,,,,,,,,,,,,,,,,,,,,,,,,,,,,,,,,,,,,,,,,,,,,,,,,,,,,,,,,,,,,,,,,,,,,,,,
,,6580b24b0593cdbf4ce9449d,2024-02-18_20h07.51.305,kallum_motion_pilot,2023.2.2,Win32,59.17159763,6580b24b0593cdbf4ce9449d,65d2b6c8f2eece985d8e374c,65d2b7decb56009c7b58450a,0.058,0.0582,0,122,122,132,1,sevenfive,,,,,,,,,,,,,,,,,,,,,,,,,,,,,,,,,,,,,,,,,,,,,,,,,,,,,,,,,,,,,,,,,,,,,,,,,,,,,,,,,,,,,,,,,,,,,,,,,,,,,,,,,,,,,,,,,,,,,,,,,,,,,,,,,,,,,,,,,
,,6580b24b0593cdbf4ce9449d,2024-02-18_20h07.51.305,kallum_motion_pilot,2023.2.2,Win32,59.17159763,6580b24b0593cdbf4ce9449d,65d2b6c8f2eece985d8e374c,65d2b7decb56009c7b58450a,0.0583,0.0584,0,123,123,161,1,fiveseven,,,,,,,,,,,,,,,,,,,,,,,,,,,,,,,,,,,,,,,,,,,,,,,,,,,,,,,,,,,,,,,,,,,,,,,,,,,,,,,,,,,,,,,,,,,,,,,,,,,,,,,,,,,,,,,,,,,,,,,,,,,,,,,,,,,,,,,,,
,,6580b24b0593cdbf4ce9449d,2024-02-18_20h07.51.305,kallum_motion_pilot,2023.2.2,Win32,59.17159763,6580b24b0593cdbf4ce9449d,65d2b6c8f2eece985d8e374c,65d2b7decb56009c7b58450a,0.0587,0.0588,0,124,124,66,1,twoone,,,,,,,,,,,,,,,,,,,,,,,,,,,,,,,,,,,,,,,,,,,,,,,,,,,,,,,,,,,,,,,,,,,,,,,,,,,,,,,,,,,,,,,,,,,,,,,,,,,,,,,,,,,,,,,,,,,,,,,,,,,,,,,,,,,,,,,,,
,,6580b24b0593cdbf4ce9449d,2024-02-18_20h07.51.305,kallum_motion_pilot,2023.2.2,Win32,59.17159763,6580b24b0593cdbf4ce9449d,65d2b6c8f2eece985d8e374c,65d2b7decb56009c7b58450a,0.0591,0.0591,0,125,125,26,1,twoone,,,,,,,,,,,,,,,,,,,,,,,,,,,,,,,,,,,,,,,,,,,,,,,,,,,,,,,,,,,,,,,,,,,,,,,,,,,,,,,,,,,,,,,,,,,,,,,,,,,,,,,,,,,,,,,,,,,,,,,,,,,,,,,,,,,,,,,,,
,,6580b24b0593cdbf4ce9449d,2024-02-18_20h07.51.305,kallum_motion_pilot,2023.2.2,Win32,59.17159763,6580b24b0593cdbf4ce9449d,65d2b6c8f2eece985d8e374c,65d2b7decb56009c7b58450a,0.0595,0.0596,0,126,126,93,1,seveneight,,,,,,,,,,,,,,,,,,,,,,,,,,,,,,,,,,,,,,,,,,,,,,,,,,,,,,,,,,,,,,,,,,,,,,,,,,,,,,,,,,,,,,,,,,,,,,,,,,,,,,,,,,,,,,,,,,,,,,,,,,,,,,,,,,,,,,,,,
,,6580b24b0593cdbf4ce9449d,2024-02-18_20h07.51.305,kallum_motion_pilot,2023.2.2,Win32,59.17159763,6580b24b0593cdbf4ce9449d,65d2b6c8f2eece985d8e374c,65d2b7decb56009c7b58450a,0.0598,0.0599,0,127,127,22,1,fourtwo,,,,,,,,,,,,,,,,,,,,,,,,,,,,,,,,,,,,,,,,,,,,,,,,,,,,,,,,,,,,,,,,,,,,,,,,,,,,,,,,,,,,,,,,,,,,,,,,,,,,,,,,,,,,,,,,,,,,,,,,,,,,,,,,,,,,,,,,,
,,6580b24b0593cdbf4ce9449d,2024-02-18_20h07.51.305,kallum_motion_pilot,2023.2.2,Win32,59.17159763,6580b24b0593cdbf4ce9449d,65d2b6c8f2eece985d8e374c,65d2b7decb56009c7b58450a,0.0601,0.0602,0,128,128,129,1,fiveseven,,,,,,,,,,,,,,,,,,,,,,,,,,,,,,,,,,,,,,,,,,,,,,,,,,,,,,,,,,,,,,,,,,,,,,,,,,,,,,,,,,,,,,,,,,,,,,,,,,,,,,,,,,,,,,,,,,,,,,,,,,,,,,,,,,,,,,,,,
,,6580b24b0593cdbf4ce9449d,2024-02-18_20h07.51.305,kallum_motion_pilot,2023.2.2,Win32,59.17159763,6580b24b0593cdbf4ce9449d,65d2b6c8f2eece985d8e374c,65d2b7decb56009c7b58450a,0.0604,0.0606,0,129,129,109,1,seveneight,,,,,,,,,,,,,,,,,,,,,,,,,,,,,,,,,,,,,,,,,,,,,,,,,,,,,,,,,,,,,,,,,,,,,,,,,,,,,,,,,,,,,,,,,,,,,,,,,,,,,,,,,,,,,,,,,,,,,,,,,,,,,,,,,,,,,,,,,
,,6580b24b0593cdbf4ce9449d,2024-02-18_20h07.51.305,kallum_motion_pilot,2023.2.2,Win32,59.17159763,6580b24b0593cdbf4ce9449d,65d2b6c8f2eece985d8e374c,65d2b7decb56009c7b58450a,0.0607,0.0607,0,130,130,75,1,twofour,,,,,,,,,,,,,,,,,,,,,,,,,,,,,,,,,,,,,,,,,,,,,,,,,,,,,,,,,,,,,,,,,,,,,,,,,,,,,,,,,,,,,,,,,,,,,,,,,,,,,,,,,,,,,,,,,,,,,,,,,,,,,,,,,,,,,,,,,
,,6580b24b0593cdbf4ce9449d,2024-02-18_20h07.51.305,kallum_motion_pilot,2023.2.2,Win32,59.17159763,6580b24b0593cdbf4ce9449d,65d2b6c8f2eece985d8e374c,65d2b7decb56009c7b58450a,0.0609,0.0611,0,131,131,98,1,sixfive,,,,,,,,,,,,,,,,,,,,,,,,,,,,,,,,,,,,,,,,,,,,,,,,,,,,,,,,,,,,,,,,,,,,,,,,,,,,,,,,,,,,,,,,,,,,,,,,,,,,,,,,,,,,,,,,,,,,,,,,,,,,,,,,,,,,,,,,,
,,6580b24b0593cdbf4ce9449d,2024-02-18_20h07.51.305,kallum_motion_pilot,2023.2.2,Win32,59.17159763,6580b24b0593cdbf4ce9449d,65d2b6c8f2eece985d8e374c,65d2b7decb56009c7b58450a,0.0614,0.0615,0,132,132,116,1,sevenfive,,,,,,,,,,,,,,,,,,,,,,,,,,,,,,,,,,,,,,,,,,,,,,,,,,,,,,,,,,,,,,,,,,,,,,,,,,,,,,,,,,,,,,,,,,,,,,,,,,,,,,,,,,,,,,,,,,,,,,,,,,,,,,,,,,,,,,,,,
,,6580b24b0593cdbf4ce9449d,2024-02-18_20h07.51.305,kallum_motion_pilot,2023.2.2,Win32,59.17159763,6580b24b0593cdbf4ce9449d,65d2b6c8f2eece985d8e374c,65d2b7decb56009c7b58450a,0.0619,0.0621,0,133,133,65,1,onethree,,,,,,,,,,,,,,,,,,,,,,,,,,,,,,,,,,,,,,,,,,,,,,,,,,,,,,,,,,,,,,,,,,,,,,,,,,,,,,,,,,,,,,,,,,,,,,,,,,,,,,,,,,,,,,,,,,,,,,,,,,,,,,,,,,,,,,,,,
,,6580b24b0593cdbf4ce9449d,2024-02-18_20h07.51.305,kallum_motion_pilot,2023.2.2,Win32,59.17159763,6580b24b0593cdbf4ce9449d,65d2b6c8f2eece985d8e374c,65d2b7decb56009c7b58450a,0.0624,0.0626,0,134,134,28,1,threeone,,,,,,,,,,,,,,,,,,,,,,,,,,,,,,,,,,,,,,,,,,,,,,,,,,,,,,,,,,,,,,,,,,,,,,,,,,,,,,,,,,,,,,,,,,,,,,,,,,,,,,,,,,,,,,,,,,,,,,,,,,,,,,,,,,,,,,,,,
,,6580b24b0593cdbf4ce9449d,2024-02-18_20h07.51.305,kallum_motion_pilot,2023.2.2,Win32,59.17159763,6580b24b0593cdbf4ce9449d,65d2b6c8f2eece985d8e374c,65d2b7decb56009c7b58450a,0.0628,0.063,0,135,135,96,1,fivesix,,,,,,,,,,,,,,,,,,,,,,,,,,,,,,,,,,,,,,,,,,,,,,,,,,,,,,,,,,,,,,,,,,,,,,,,,,,,,,,,,,,,,,,,,,,,,,,,,,,,,,,,,,,,,,,,,,,,,,,,,,,,,,,,,,,,,,,,,
,,6580b24b0593cdbf4ce9449d,2024-02-18_20h07.51.305,kallum_motion_pilot,2023.2.2,Win32,59.17159763,6580b24b0593cdbf4ce9449d,65d2b6c8f2eece985d8e374c,65d2b7decb56009c7b58450a,0.0632,0.0633,0,136,136,112,1,fivesix,,,,,,,,,,,,,,,,,,,,,,,,,,,,,,,,,,,,,,,,,,,,,,,,,,,,,,,,,,,,,,,,,,,,,,,,,,,,,,,,,,,,,,,,,,,,,,,,,,,,,,,,,,,,,,,,,,,,,,,,,,,,,,,,,,,,,,,,,
,,6580b24b0593cdbf4ce9449d,2024-02-18_20h07.51.305,kallum_motion_pilot,2023.2.2,Win32,59.17159763,6580b24b0593cdbf4ce9449d,65d2b6c8f2eece985d8e374c,65d2b7decb56009c7b58450a,0.0635,0.0637,0,137,137,119,1,eightseven,,,,,,,,,,,,,,,,,,,,,,,,,,,,,,,,,,,,,,,,,,,,,,,,,,,,,,,,,,,,,,,,,,,,,,,,,,,,,,,,,,,,,,,,,,,,,,,,,,,,,,,,,,,,,,,,,,,,,,,,,,,,,,,,,,,,,,,,,
,,6580b24b0593cdbf4ce9449d,2024-02-18_20h07.51.305,kallum_motion_pilot,2023.2.2,Win32,59.17159763,6580b24b0593cdbf4ce9449d,65d2b6c8f2eece985d8e374c,65d2b7decb56009c7b58450a,0.0638,0.0639,0,138,138,125,1,seveneight,,,,,,,,,,,,,,,,,,,,,,,,,,,,,,,,,,,,,,,,,,,,,,,,,,,,,,,,,,,,,,,,,,,,,,,,,,,,,,,,,,,,,,,,,,,,,,,,,,,,,,,,,,,,,,,,,,,,,,,,,,,,,,,,,,,,,,,,,
,,6580b24b0593cdbf4ce9449d,2024-02-18_20h07.51.305,kallum_motion_pilot,2023.2.2,Win32,59.17159763,6580b24b0593cdbf4ce9449d,65d2b6c8f2eece985d8e374c,65d2b7decb56009c7b58450a,0.064,0.0641,0,139,139,101,1,seveneight,,,,,,,,,,,,,,,,,,,,,,,,,,,,,,,,,,,,,,,,,,,,,,,,,,,,,,,,,,,,,,,,,,,,,,,,,,,,,,,,,,,,,,,,,,,,,,,,,,,,,,,,,,,,,,,,,,,,,,,,,,,,,,,,,,,,,,,,,
,,6580b24b0593cdbf4ce9449d,2024-02-18_20h07.51.305,kallum_motion_pilot,2023.2.2,Win32,59.17159763,6580b24b0593cdbf4ce9449d,65d2b6c8f2eece985d8e374c,65d2b7decb56009c7b58450a,0.0642,0.0643,0,140,140,82,1,sixfive,,,,,,,,,,,,,,,,,,,,,,,,,,,,,,,,,,,,,,,,,,,,,,,,,,,,,,,,,,,,,,,,,,,,,,,,,,,,,,,,,,,,,,,,,,,,,,,,,,,,,,,,,,,,,,,,,,,,,,,,,,,,,,,,,,,,,,,,,
,,6580b24b0593cdbf4ce9449d,2024-02-18_20h07.51.305,kallum_motion_pilot,2023.2.2,Win32,59.17159763,6580b24b0593cdbf4ce9449d,65d2b6c8f2eece985d8e374c,65d2b7decb56009c7b58450a,0.0643,0.0644,0,141,141,15,1,fourthree,,,,,,,,,,,,,,,,,,,,,,,,,,,,,,,,,,,,,,,,,,,,,,,,,,,,,,,,,,,,,,,,,,,,,,,,,,,,,,,,,,,,,,,,,,,,,,,,,,,,,,,,,,,,,,,,,,,,,,,,,,,,,,,,,,,,,,,,,
,,6580b24b0593cdbf4ce9449d,2024-02-18_20h07.51.305,kallum_motion_pilot,2023.2.2,Win32,59.17159763,6580b24b0593cdbf4ce9449d,65d2b6c8f2eece985d8e374c,65d2b7decb56009c7b58450a,0.0645,0.0646,0,142,142,73,1,onethree,,,,,,,,,,,,,,,,,,,,,,,,,,,,,,,,,,,,,,,,,,,,,,,,,,,,,,,,,,,,,,,,,,,,,,,,,,,,,,,,,,,,,,,,,,,,,,,,,,,,,,,,,,,,,,,,,,,,,,,,,,,,,,,,,,,,,,,,,
,,6580b24b0593cdbf4ce9449d,2024-02-18_20h07.51.305,kallum_motion_pilot,2023.2.2,Win32,59.17159763,6580b24b0593cdbf4ce9449d,65d2b6c8f2eece985d8e374c,65d2b7decb56009c7b58450a,0.0647,0.0647,0,143,143,64,1,onetwo,,,,,,,,,,,,,,,,,,,,,,,,,,,,,,,,,,,,,,,,,,,,,,,,,,,,,,,,,,,,,,,,,,,,,,,,,,,,,,,,,,,,,,,,,,,,,,,,,,,,,,,,,,,,,,,,,,,,,,,,,,,,,,,,,,,,,,,,,
,,6580b24b0593cdbf4ce9449d,2024-02-18_20h07.51.305,kallum_motion_pilot,2023.2.2,Win32,59.17159763,6580b24b0593cdbf4ce9449d,65d2b6c8f2eece985d8e374c,65d2b7decb56009c7b58450a,0.0648,0.0648,0,144,144,115,1,sixeight,,,,,,,,,,,,,,,,,,,,,,,,,,,,,,,,,,,,,,,,,,,,,,,,,,,,,,,,,,,,,,,,,,,,,,,,,,,,,,,,,,,,,,,,,,,,,,,,,,,,,,,,,,,,,,,,,,,,,,,,,,,,,,,,,,,,,,,,,
,,6580b24b0593cdbf4ce9449d,2024-02-18_20h07.51.305,kallum_motion_pilot,2023.2.2,Win32,59.17159763,6580b24b0593cdbf4ce9449d,65d2b6c8f2eece985d8e374c,65d2b7decb56009c7b58450a,0.065,0.065,0,145,145,11,1,twofour,,,,,,,,,,,,,,,,,,,,,,,,,,,,,,,,,,,,,,,,,,,,,,,,,,,,,,,,,,,,,,,,,,,,,,,,,,,,,,,,,,,,,,,,,,,,,,,,,,,,,,,,,,,,,,,,,,,,,,,,,,,,,,,,,,,,,,,,,
,,6580b24b0593cdbf4ce9449d,2024-02-18_20h07.51.305,kallum_motion_pilot,2023.2.2,Win32,59.17159763,6580b24b0593cdbf4ce9449d,65d2b6c8f2eece985d8e374c,65d2b7decb56009c7b58450a,0.0651,0.0652,0,146,146,4,1,threeone,,,,,,,,,,,,,,,,,,,,,,,,,,,,,,,,,,,,,,,,,,,,,,,,,,,,,,,,,,,,,,,,,,,,,,,,,,,,,,,,,,,,,,,,,,,,,,,,,,,,,,,,,,,,,,,,,,,,,,,,,,,,,,,,,,,,,,,,,
,,6580b24b0593cdbf4ce9449d,2024-02-18_20h07.51.305,kallum_motion_pilot,2023.2.2,Win32,59.17159763,6580b24b0593cdbf4ce9449d,65d2b6c8f2eece985d8e374c,65d2b7decb56009c7b58450a,0.0652,0.0653,0,147,147,56,1,onetwo,,,,,,,,,,,,,,,,,,,,,,,,,,,,,,,,,,,,,,,,,,,,,,,,,,,,,,,,,,,,,,,,,,,,,,,,,,,,,,,,,,,,,,,,,,,,,,,,,,,,,,,,,,,,,,,,,,,,,,,,,,,,,,,,,,,,,,,,,
,,6580b24b0593cdbf4ce9449d,2024-02-18_20h07.51.305,kallum_motion_pilot,2023.2.2,Win32,59.17159763,6580b24b0593cdbf4ce9449d,65d2b6c8f2eece985d8e374c,65d2b7decb56009c7b58450a,0.0655,0.0655,0,148,148,81,1,fiveseven,,,,,,,,,,,,,,,,,,,,,,,,,,,,,,,,,,,,,,,,,,,,,,,,,,,,,,,,,,,,,,,,,,,,,,,,,,,,,,,,,,,,,,,,,,,,,,,,,,,,,,,,,,,,,,,,,,,,,,,,,,,,,,,,,,,,,,,,,
,,6580b24b0593cdbf4ce9449d,2024-02-18_20h07.51.305,kallum_motion_pilot,2023.2.2,Win32,59.17159763,6580b24b0593cdbf4ce9449d,65d2b6c8f2eece985d8e374c,65d2b7decb56009c7b58450a,0.0656,0.0658,0,149,149,123,1,sixeight,,,,,,,,,,,,,,,,,,,,,,,,,,,,,,,,,,,,,,,,,,,,,,,,,,,,,,,,,,,,,,,,,,,,,,,,,,,,,,,,,,,,,,,,,,,,,,,,,,,,,,,,,,,,,,,,,,,,,,,,,,,,,,,,,,,,,,,,,
,,6580b24b0593cdbf4ce9449d,2024-02-18_20h07.51.305,kallum_motion_pilot,2023.2.2,Win32,59.17159763,6580b24b0593cdbf4ce9449d,65d2b6c8f2eece985d8e374c,65d2b7decb56009c7b58450a,0.0658,0.0659,0,150,150,128,1,fivesix,,,,,,,,,,,,,,,,,,,,,,,,,,,,,,,,,,,,,,,,,,,,,,,,,,,,,,,,,,,,,,,,,,,,,,,,,,,,,,,,,,,,,,,,,,,,,,,,,,,,,,,,,,,,,,,,,,,,,,,,,,,,,,,,,,,,,,,,,
,,6580b24b0593cdbf4ce9449d,2024-02-18_20h07.51.305,kallum_motion_pilot,2023.2.2,Win32,59.17159763,6580b24b0593cdbf4ce9449d,65d2b6c8f2eece985d8e374c,65d2b7decb56009c7b58450a,0.066,0.0661,0,151,151,155,1,sixeight,,,,,,,,,,,,,,,,,,,,,,,,,,,,,,,,,,,,,,,,,,,,,,,,,,,,,,,,,,,,,,,,,,,,,,,,,,,,,,,,,,,,,,,,,,,,,,,,,,,,,,,,,,,,,,,,,,,,,,,,,,,,,,,,,,,,,,,,,
,,6580b24b0593cdbf4ce9449d,2024-02-18_20h07.51.305,kallum_motion_pilot,2023.2.2,Win32,59.17159763,6580b24b0593cdbf4ce9449d,65d2b6c8f2eece985d8e374c,65d2b7decb56009c7b58450a,0.0663,0.0663,0,152,152,55,1,fourthree,,,,,,,,,,,,,,,,,,,,,,,,,,,,,,,,,,,,,,,,,,,,,,,,,,,,,,,,,,,,,,,,,,,,,,,,,,,,,,,,,,,,,,,,,,,,,,,,,,,,,,,,,,,,,,,,,,,,,,,,,,,,,,,,,,,,,,,,,
,,6580b24b0593cdbf4ce9449d,2024-02-18_20h07.51.305,kallum_motion_pilot,2023.2.2,Win32,59.17159763,6580b24b0593cdbf4ce9449d,65d2b6c8f2eece985d8e374c,65d2b7decb56009c7b58450a,0.0664,0.0666,0,153,153,24,1,onetwo,,,,,,,,,,,,,,,,,,,,,,,,,,,,,,,,,,,,,,,,,,,,,,,,,,,,,,,,,,,,,,,,,,,,,,,,,,,,,,,,,,,,,,,,,,,,,,,,,,,,,,,,,,,,,,,,,,,,,,,,,,,,,,,,,,,,,,,,,
,,6580b24b0593cdbf4ce9449d,2024-02-18_20h07.51.305,kallum_motion_pilot,2023.2.2,Win32,59.17159763,6580b24b0593cdbf4ce9449d,65d2b6c8f2eece985d8e374c,65d2b7decb56009c7b58450a,0.0666,0.0667,0,154,154,38,1,fourtwo,,,,,,,,,,,,,,,,,,,,,,,,,,,,,,,,,,,,,,,,,,,,,,,,,,,,,,,,,,,,,,,,,,,,,,,,,,,,,,,,,,,,,,,,,,,,,,,,,,,,,,,,,,,,,,,,,,,,,,,,,,,,,,,,,,,,,,,,,
,,6580b24b0593cdbf4ce9449d,2024-02-18_20h07.51.305,kallum_motion_pilot,2023.2.2,Win32,59.17159763,6580b24b0593cdbf4ce9449d,65d2b6c8f2eece985d8e374c,65d2b7decb56009c7b58450a,0.0669,0.0669,0,155,155,105,1,fiveseven,,,,,,,,,,,,,,,,,,,,,,,,,,,,,,,,,,,,,,,,,,,,,,,,,,,,,,,,,,,,,,,,,,,,,,,,,,,,,,,,,,,,,,,,,,,,,,,,,,,,,,,,,,,,,,,,,,,,,,,,,,,,,,,,,,,,,,,,,
,,6580b24b0593cdbf4ce9449d,2024-02-18_20h07.51.305,kallum_motion_pilot,2023.2.2,Win32,59.17159763,6580b24b0593cdbf4ce9449d,65d2b6c8f2eece985d8e374c,65d2b7decb56009c7b58450a,0.0671,0.0672,0,156,156,44,1,threeone,,,,,,,,,,,,,,,,,,,,,,,,,,,,,,,,,,,,,,,,,,,,,,,,,,,,,,,,,,,,,,,,,,,,,,,,,,,,,,,,,,,,,,,,,,,,,,,,,,,,,,,,,,,,,,,,,,,,,,,,,,,,,,,,,,,,,,,,,
,,6580b24b0593cdbf4ce9449d,2024-02-18_20h07.51.305,kallum_motion_pilot,2023.2.2,Win32,59.17159763,6580b24b0593cdbf4ce9449d,65d2b6c8f2eece985d8e374c,65d2b7decb56009c7b58450a,0.0672,0.0673,0,157,157,130,1,sixfive,,,,,,,,,,,,,,,,,,,,,,,,,,,,,,,,,,,,,,,,,,,,,,,,,,,,,,,,,,,,,,,,,,,,,,,,,,,,,,,,,,,,,,,,,,,,,,,,,,,,,,,,,,,,,,,,,,,,,,,,,,,,,,,,,,,,,,,,,
,,6580b24b0593cdbf4ce9449d,2024-02-18_20h07.51.305,kallum_motion_pilot,2023.2.2,Win32,59.17159763,6580b24b0593cdbf4ce9449d,65d2b6c8f2eece985d8e374c,65d2b7decb56009c7b58450a,0.0674,0.0675,0,158,158,43,1,twofour,,,,,,,,,,,,,,,,,,,,,,,,,,,,,,,,,,,,,,,,,,,,,,,,,,,,,,,,,,,,,,,,,,,,,,,,,,,,,,,,,,,,,,,,,,,,,,,,,,,,,,,,,,,,,,,,,,,,,,,,,,,,,,,,,,,,,,,,,
,,6580b24b0593cdbf4ce9449d,2024-02-18_20h07.51.305,kallum_motion_pilot,2023.2.2,Win32,59.17159763,6580b24b0593cdbf4ce9449d,65d2b6c8f2eece985d8e374c,65d2b7decb56009c7b58450a,0.0676,0.0677,0,159,159,62,1,fourtwo,,,,,,,,,,,,,,,,,,,,,,,,,,,,,,,,,,,,,,,,,,,,,,,,,,,,,,,,,,,,,,,,,,,,,,,,,,,,,,,,,,,,,,,,,,,,,,,,,,,,,,,,,,,,,,,,,,,,,,,,,,,,,,,,,,,,,,,,,
,,6580b24b0593cdbf4ce9449d,2024-02-18_20h07.51.305,kallum_motion_pilot,2023.2.2,Win32,59.17159763,6580b24b0593cdbf4ce9449d,65d2b6c8f2eece985d8e374c,65d2b7decb56009c7b58450a,0.0677,0.0679,0,160,160,6,1,fourtwo,,,,,,,,,,,,,,,,,,,,,,,,,,,,,,,,,,,,,,,,,,,,,,,,,,,,,,,,,,,,,,,,,,,,,,,,,,,,,,,,,,,,,,,,,,,,,,,,,,,,,,,,,,,,,,,,,,,,,,,,,,,,,,,,,,,,,,,,,
,,6580b24b0593cdbf4ce9449d,2024-02-18_20h07.51.305,kallum_motion_pilot,2023.2.2,Win32,59.17159763,6580b24b0593cdbf4ce9449d,65d2b6c8f2eece985d8e374c,65d2b7decb56009c7b58450a,0.068,0.068,0,161,161,58,1,twoone,,,,,,,,,,,,,,,,,,,,,,,,,,,,,,,,,,,,,,,,,,,,,,,,,,,,,,,,,,,,,,,,,,,,,,,,,,,,,,,,,,,,,,,,,,,,,,,,,,,,,,,,,,,,,,,,,,,,,,,,,,,,,,,,,,,,,,,,,
,,6580b24b0593cdbf4ce9449d,2024-02-18_20h07.51.305,kallum_motion_pilot,2023.2.2,Win32,59.17159763,6580b24b0593cdbf4ce9449d,65d2b6c8f2eece985d8e374c,65d2b7decb56009c7b58450a,0.0681,0.0681,1,0,162,98,1,sixfive,,,,,,,,,,,,,,,,,,,,,,,,,,,,,,,,,,,,,,,,,,,,,,,,,,,,,,,,,,,,,,,,,,,,,,,,,,,,,,,,,,,,,,,,,,,,,,,,,,,,,,,,,,,,,,,,,,,,,,,,,,,,,,,,,,,,,,,,,
,,6580b24b0593cdbf4ce9449d,2024-02-18_20h07.51.305,kallum_motion_pilot,2023.2.2,Win32,59.17159763,6580b24b0593cdbf4ce9449d,65d2b6c8f2eece985d8e374c,65d2b7decb56009c7b58450a,0.0683,0.0683,1,1,163,14,1,fourtwo,,,,,,,,,,,,,,,,,,,,,,,,,,,,,,,,,,,,,,,,,,,,,,,,,,,,,,,,,,,,,,,,,,,,,,,,,,,,,,,,,,,,,,,,,,,,,,,,,,,,,,,,,,,,,,,,,,,,,,,,,,,,,,,,,,,,,,,,,
,,6580b24b0593cdbf4ce9449d,2024-02-18_20h07.51.305,kallum_motion_pilot,2023.2.2,Win32,59.17159763,6580b24b0593cdbf4ce9449d,65d2b6c8f2eece985d8e374c,65d2b7decb56009c7b58450a,0.0685,0.0686,1,2,164,37,1,threefour,,,,,,,,,,,,,,,,,,,,,,,,,,,,,,,,,,,,,,,,,,,,,,,,,,,,,,,,,,,,,,,,,,,,,,,,,,,,,,,,,,,,,,,,,,,,,,,,,,,,,,,,,,,,,,,,,,,,,,,,,,,,,,,,,,,,,,,,,
,,6580b24b0593cdbf4ce9449d,2024-02-18_20h07.51.305,kallum_motion_pilot,2023.2.2,Win32,59.17159763,6580b24b0593cdbf4ce9449d,65d2b6c8f2eece985d8e374c,65d2b7decb56009c7b58450a,0.0686,0.0688,1,3,165,84,1,sevenfive,,,,,,,,,,,,,,,,,,,,,,,,,,,,,,,,,,,,,,,,,,,,,,,,,,,,,,,,,,,,,,,,,,,,,,,,,,,,,,,,,,,,,,,,,,,,,,,,,,,,,,,,,,,,,,,,,,,,,,,,,,,,,,,,,,,,,,,,,
,,6580b24b0593cdbf4ce9449d,2024-02-18_20h07.51.305,kallum_motion_pilot,2023.2.2,Win32,59.17159763,6580b24b0593cdbf4ce9449d,65d2b6c8f2eece985d8e374c,65d2b7decb56009c7b58450a,0.0688,0.0689,1,4,166,157,1,seveneight,,,,,,,,,,,,,,,,,,,,,,,,,,,,,,,,,,,,,,,,,,,,,,,,,,,,,,,,,,,,,,,,,,,,,,,,,,,,,,,,,,,,,,,,,,,,,,,,,,,,,,,,,,,,,,,,,,,,,,,,,,,,,,,,,,,,,,,,,
,,6580b24b0593cdbf4ce9449d,2024-02-18_20h07.51.305,kallum_motion_pilot,2023.2.2,Win32,59.17159763,6580b24b0593cdbf4ce9449d,65d2b6c8f2eece985d8e374c,65d2b7decb56009c7b58450a,0.069,0.0691,1,5,167,40,1,onetwo,,,,,,,,,,,,,,,,,,,,,,,,,,,,,,,,,,,,,,,,,,,,,,,,,,,,,,,,,,,,,,,,,,,,,,,,,,,,,,,,,,,,,,,,,,,,,,,,,,,,,,,,,,,,,,,,,,,,,,,,,,,,,,,,,,,,,,,,,
,,6580b24b0593cdbf4ce9449d,2024-02-18_20h07.51.305,kallum_motion_pilot,2023.2.2,Win32,59.17159763,6580b24b0593cdbf4ce9449d,65d2b6c8f2eece985d8e374c,65d2b7decb56009c7b58450a,0.0692,0.0693,1,6,168,23,1,fourthree,,,,,,,,,,,,,,,,,,,,,,,,,,,,,,,,,,,,,,,,,,,,,,,,,,,,,,,,,,,,,,,,,,,,,,,,,,,,,,,,,,,,,,,,,,,,,,,,,,,,,,,,,,,,,,,,,,,,,,,,,,,,,,,,,,,,,,,,,
,,6580b24b0593cdbf4ce9449d,2024-02-18_20h07.51.305,kallum_motion_pilot,2023.2.2,Win32,59.17159763,6580b24b0593cdbf4ce9449d,65d2b6c8f2eece985d8e374c,65d2b7decb56009c7b58450a,0.0693,0.0694,1,7,169,54,1,fourtwo,,,,,,,,,,,,,,,,,,,,,,,,,,,,,,,,,,,,,,,,,,,,,,,,,,,,,,,,,,,,,,,,,,,,,,,,,,,,,,,,,,,,,,,,,,,,,,,,,,,,,,,,,,,,,,,,,,,,,,,,,,,,,,,,,,,,,,,,,
,,6580b24b0593cdbf4ce9449d,2024-02-18_20h07.51.305,kallum_motion_pilot,2023.2.2,Win32,59.17159763,6580b24b0593cdbf4ce9449d,65d2b6c8f2eece985d8e374c,65d2b7decb56009c7b58450a,0.0695,0.0696,1,8,170,8,1,onetwo,,,,,,,,,,,,,,,,,,,,,,,,,,,,,,,,,,,,,,,,,,,,,,,,,,,,,,,,,,,,,,,,,,,,,,,,,,,,,,,,,,,,,,,,,,,,,,,,,,,,,,,,,,,,,,,,,,,,,,,,,,,,,,,,,,,,,,,,,
,,6580b24b0593cdbf4ce9449d,2024-02-18_20h07.51.305,kallum_motion_pilot,2023.2.2,Win32,59.17159763,6580b24b0593cdbf4ce9449d,65d2b6c8f2eece985d8e374c,65d2b7decb56009c7b58450a,0.0697,0.0698,1,9,171,53,1,threefour,,,,,,,,,,,,,,,,,,,,,,,,,,,,,,,,,,,,,,,,,,,,,,,,,,,,,,,,,,,,,,,,,,,,,,,,,,,,,,,,,,,,,,,,,,,,,,,,,,,,,,,,,,,,,,,,,,,,,,,,,,,,,,,,,,,,,,,,,
,,6580b24b0593cdbf4ce9449d,2024-02-18_20h07.51.305,kallum_motion_pilot,2023.2.2,Win32,59.17159763,6580b24b0593cdbf4ce9449d,65d2b6c8f2eece985d8e374c,65d2b7decb56009c7b58450a,0.0699,0.07,1,10,172,0,1,onetwo,,,,,,,,,,,,,,,,,,,,,,,,,,,,,,,,,,,,,,,,,,,,,,,,,,,,,,,,,,,,,,,,,,,,,,,,,,,,,,,,,,,,,,,,,,,,,,,,,,,,,,,,,,,,,,,,,,,,,,,,,,,,,,,,,,,,,,,,,
,,6580b24b0593cdbf4ce9449d,2024-02-18_20h07.51.305,kallum_motion_pilot,2023.2.2,Win32,59.17159763,6580b24b0593cdbf4ce9449d,65d2b6c8f2eece985d8e374c,65d2b7decb56009c7b58450a,0.0701,0.0701,1,11,173,118,1,eightsix,,,,,,,,,,,,,,,,,,,,,,,,,,,,,,,,,,,,,,,,,,,,,,,,,,,,,,,,,,,,,,,,,,,,,,,,,,,,,,,,,,,,,,,,,,,,,,,,,,,,,,,,,,,,,,,,,,,,,,,,,,,,,,,,,,,,,,,,,
,,6580b24b0593cdbf4ce9449d,2024-02-18_20h07.51.305,kallum_motion_pilot,2023.2.2,Win32,59.17159763,6580b24b0593cdbf4ce9449d,65d2b6c8f2eece985d8e374c,65d2b7decb56009c7b58450a,0.0703,0.0703,1,12,174,18,1,twoone,,,,,,,,,,,,,,,,,,,,,,,,,,,,,,,,,,,,,,,,,,,,,,,,,,,,,,,,,,,,,,,,,,,,,,,,,,,,,,,,,,,,,,,,,,,,,,,,,,,,,,,,,,,,,,,,,,,,,,,,,,,,,,,,,,,,,,,,,
,,6580b24b0593cdbf4ce9449d,2024-02-18_20h07.51.305,kallum_motion_pilot,2023.2.2,Win32,59.17159763,6580b24b0593cdbf4ce9449d,65d2b6c8f2eece985d8e374c,65d2b7decb56009c7b58450a,0.0704,0.0706,1,13,175,49,1,onethree,,,,,,,,,,,,,,,,,,,,,,,,,,,,,,,,,,,,,,,,,,,,,,,,,,,,,,,,,,,,,,,,,,,,,,,,,,,,,,,,,,,,,,,,,,,,,,,,,,,,,,,,,,,,,,,,,,,,,,,,,,,,,,,,,,,,,,,,,
,,6580b24b0593cdbf4ce9449d,2024-02-18_20h07.51.305,kallum_motion_pilot,2023.2.2,Win32,59.17159763,6580b24b0593cdbf4ce9449d,65d2b6c8f2eece985d8e374c,65d2b7decb56009c7b58450a,0.0706,0.0708,1,14,176,21,1,threefour,,,,,,,,,,,,,,,,,,,,,,,,,,,,,,,,,,,,,,,,,,,,,,,,,,,,,,,,,,,,,,,,,,,,,,,,,,,,,,,,,,,,,,,,,,,,,,,,,,,,,,,,,,,,,,,,,,,,,,,,,,,,,,,,,,,,,,,,,
,,6580b24b0593cdbf4ce9449d,2024-02-18_20h07.51.305,kallum_motion_pilot,2023.2.2,Win32,59.17159763,6580b24b0593cdbf4ce9449d,65d2b6c8f2eece985d8e374c,65d2b7decb56009c7b58450a,0.0708,0.0709,1,15,177,46,1,fourtwo,,,,,,,,,,,,,,,,,,,,,,,,,,,,,,,,,,,,,,,,,,,,,,,,,,,,,,,,,,,,,,,,,,,,,,,,,,,,,,,,,,,,,,,,,,,,,,,,,,,,,,,,,,,,,,,,,,,,,,,,,,,,,,,,,,,,,,,,,
,,6580b24b0593cdbf4ce9449d,2024-02-18_20h07.51.305,kallum_motion_pilot,2023.2.2,Win32,59.17159763,6580b24b0593cdbf4ce9449d,65d2b6c8f2eece985d8e374c,65d2b7decb56009c7b58450a,0.0711,0.0711,1,16,178,145,1,fiveseven,,,,,,,,,,,,,,,,,,,,,,,,,,,,,,,,,,,,,,,,,,,,,,,,,,,,,,,,,,,,,,,,,,,,,,,,,,,,,,,,,,,,,,,,,,,,,,,,,,,,,,,,,,,,,,,,,,,,,,,,,,,,,,,,,,,,,,,,,
,,6580b24b0593cdbf4ce9449d,2024-02-18_20h07.51.305,kallum_motion_pilot,2023.2.2,Win32,59.17159763,6580b24b0593cdbf4ce9449d,65d2b6c8f2eece985d8e374c,65d2b7decb56009c7b58450a,0.0712,0.0713,1,17,179,34,1,twoone,,,,,,,,,,,,,,,,,,,,,,,,,,,,,,,,,,,,,,,,,,,,,,,,,,,,,,,,,,,,,,,,,,,,,,,,,,,,,,,,,,,,,,,,,,,,,,,,,,,,,,,,,,,,,,,,,,,,,,,,,,,,,,,,,,,,,,,,,
,,6580b24b0593cdbf4ce9449d,2024-02-18_20h07.51.305,kallum_motion_pilot,2023.2.2,Win32,59.17159763,6580b24b0593cdbf4ce9449d,65d2b6c8f2eece985d8e374c,65d2b7decb56009c7b58450a,0.0713,0.0714,1,18,180,127,1,eightseven,,,,,,,,,,,,,,,,,,,,,,,,,,,,,,,,,,,,,,,,,,,,,,,,,,,,,,,,,,,,,,,,,,,,,,,,,,,,,,,,,,,,,,,,,,,,,,,,,,,,,,,,,,,,,,,,,,,,,,,,,,,,,,,,,,,,,,,,,
,,6580b24b0593cdbf4ce9449d,2024-02-18_20h07.51.305,kallum_motion_pilot,2023.2.2,Win32,59.17159763,6580b24b0593cdbf4ce9449d,65d2b6c8f2eece985d8e374c,65d2b7decb56009c7b58450a,0.0715,0.0717,1,19,181,75,1,twofour,,,,,,,,,,,,,,,,,,,,,,,,,,,,,,,,,,,,,,,,,,,,,,,,,,,,,,,,,,,,,,,,,,,,,,,,,,,,,,,,,,,,,,,,,,,,,,,,,,,,,,,,,,,,,,,,,,,,,,,,,,,,,,,,,,,,,,,,,
,,6580b24b0593cdbf4ce9449d,2024-02-18_20h07.51.305,kallum_motion_pilot,2023.2.2,Win32,59.17159763,6580b24b0593cdbf4ce9449d,65d2b6c8f2eece985d8e374c,65d2b7decb56009c7b58450a,0.0718,0.0718,1,20,182,124,1,sevenfive,,,,,,,,,,,,,,,,,,,,,,,,,,,,,,,,,,,,,,,,,,,,,,,,,,,,,,,,,,,,,,,,,,,,,,,,,,,,,,,,,,,,,,,,,,,,,,,,,,,,,,,,,,,,,,,,,,,,,,,,,,,,,,,,,,,,,,,,,
,,6580b24b0593cdbf4ce9449d,2024-02-18_20h07.51.305,kallum_motion_pilot,2023.2.2,Win32,59.17159763,6580b24b0593cdbf4ce9449d,65d2b6c8f2eece985d8e374c,65d2b7decb56009c7b58450a,0.072,0.0721,1,21,183,39,1,fourthree,,,,,,,,,,,,,,,,,,,,,,,,,,,,,,,,,,,,,,,,,,,,,,,,,,,,,,,,,,,,,,,,,,,,,,,,,,,,,,,,,,,,,,,,,,,,,,,,,,,,,,,,,,,,,,,,,,,,,,,,,,,,,,,,,,,,,,,,,
,,6580b24b0593cdbf4ce9449d,2024-02-18_20h07.51.305,kallum_motion_pilot,2023.2.2,Win32,59.17159763,6580b24b0593cdbf4ce9449d,65d2b6c8f2eece985d8e374c,65d2b7decb56009c7b58450a,0.0721,0.0723,1,22,184,108,1,sevenfive,,,,,,,,,,,,,,,,,,,,,,,,,,,,,,,,,,,,,,,,,,,,,,,,,,,,,,,,,,,,,,,,,,,,,,,,,,,,,,,,,,,,,,,,,,,,,,,,,,,,,,,,,,,,,,,,,,,,,,,,,,,,,,,,,,,,,,,,,
,,6580b24b0593cdbf4ce9449d,2024-02-18_20h07.51.305,kallum_motion_pilot,2023.2.2,Win32,59.17159763,6580b24b0593cdbf4ce9449d,65d2b6c8f2eece985d8e374c,65d2b7decb56009c7b58450a,0.0723,0.0724,1,23,185,120,1,fivesix,,,,,,,,,,,,,,,,,,,,,,,,,,,,,,,,,,,,,,,,,,,,,,,,,,,,,,,,,,,,,,,,,,,,,,,,,,,,,,,,,,,,,,,,,,,,,,,,,,,,,,,,,,,,,,,,,,,,,,,,,,,,,,,,,,,,,,,,,
,,6580b24b0593cdbf4ce9449d,2024-02-18_20h07.51.305,kallum_motion_pilot,2023.2.2,Win32,59.17159763,6580b24b0593cdbf4ce9449d,65d2b6c8f2eece985d8e374c,65d2b7decb56009c7b58450a,0.0726,0.0727,1,24,186,149,1,seveneight,,,,,,,,,,,,,,,,,,,,,,,,,,,,,,,,,,,,,,,,,,,,,,,,,,,,,,,,,,,,,,,,,,,,,,,,,,,,,,,,,,,,,,,,,,,,,,,,,,,,,,,,,,,,,,,,,,,,,,,,,,,,,,,,,,,,,,,,,
,,6580b24b0593cdbf4ce9449d,2024-02-18_20h07.51.305,kallum_motion_pilot,2023.2.2,Win32,59.17159763,6580b24b0593cdbf4ce9449d,65d2b6c8f2eece985d8e374c,65d2b7decb56009c7b58450a,0.0728,0.0729,1,25,187,38,1,fourtwo,,,,,,,,,,,,,,,,,,,,,,,,,,,,,,,,,,,,,,,,,,,,,,,,,,,,,,,,,,,,,,,,,,,,,,,,,,,,,,,,,,,,,,,,,,,,,,,,,,,,,,,,,,,,,,,,,,,,,,,,,,,,,,,,,,,,,,,,,
,,6580b24b0593cdbf4ce9449d,2024-02-18_20h07.51.305,kallum_motion_pilot,2023.2.2,Win32,59.17159763,6580b24b0593cdbf4ce9449d,65d2b6c8f2eece985d8e374c,65d2b7decb56009c7b58450a,0.0731,0.0731,1,26,188,64,1,onetwo,,,,,,,,,,,,,,,,,,,,,,,,,,,,,,,,,,,,,,,,,,,,,,,,,,,,,,,,,,,,,,,,,,,,,,,,,,,,,,,,,,,,,,,,,,,,,,,,,,,,,,,,,,,,,,,,,,,,,,,,,,,,,,,,,,,,,,,,,
,,6580b24b0593cdbf4ce9449d,2024-02-18_20h07.51.305,kallum_motion_pilot,2023.2.2,Win32,59.17159763,6580b24b0593cdbf4ce9449d,65d2b6c8f2eece985d8e374c,65d2b7decb56009c7b58450a,0.0732,0.0733,1,27,189,136,1,fivesix,,,,,,,,,,,,,,,,,,,,,,,,,,,,,,,,,,,,,,,,,,,,,,,,,,,,,,,,,,,,,,,,,,,,,,,,,,,,,,,,,,,,,,,,,,,,,,,,,,,,,,,,,,,,,,,,,,,,,,,,,,,,,,,,,,,,,,,,,
,,6580b24b0593cdbf4ce9449d,2024-02-18_20h07.51.305,kallum_motion_pilot,2023.2.2,Win32,59.17159763,6580b24b0593cdbf4ce9449d,65d2b6c8f2eece985d8e374c,65d2b7decb56009c7b58450a,0.0734,0.0736,1,28,190,142,1,eightsix,,,,,,,,,,,,,,,,,,,,,,,,,,,,,,,,,,,,,,,,,,,,,,,,,,,,,,,,,,,,,,,,,,,,,,,,,,,,,,,,,,,,,,,,,,,,,,,,,,,,,,,,,,,,,,,,,,,,,,,,,,,,,,,,,,,,,,,,,
,,6580b24b0593cdbf4ce9449d,2024-02-18_20h07.51.305,kallum_motion_pilot,2023.2.2,Win32,59.17159763,6580b24b0593cdbf4ce9449d,65d2b6c8f2eece985d8e374c,65d2b7decb56009c7b58450a,0.074,0.0742,1,29,191,144,1,fivesix,,,,,,,,,,,,,,,,,,,,,,,,,,,,,,,,,,,,,,,,,,,,,,,,,,,,,,,,,,,,,,,,,,,,,,,,,,,,,,,,,,,,,,,,,,,,,,,,,,,,,,,,,,,,,,,,,,,,,,,,,,,,,,,,,,,,,,,,,
,,6580b24b0593cdbf4ce9449d,2024-02-18_20h07.51.305,kallum_motion_pilot,2023.2.2,Win32,59.17159763,6580b24b0593cdbf4ce9449d,65d2b6c8f2eece985d8e374c,65d2b7decb56009c7b58450a,0.0747,0.0749,1,30,192,122,1,sixfive,,,,,,,,,,,,,,,,,,,,,,,,,,,,,,,,,,,,,,,,,,,,,,,,,,,,,,,,,,,,,,,,,,,,,,,,,,,,,,,,,,,,,,,,,,,,,,,,,,,,,,,,,,,,,,,,,,,,,,,,,,,,,,,,,,,,,,,,,
,,6580b24b0593cdbf4ce9449d,2024-02-18_20h07.51.305,kallum_motion_pilot,2023.2.2,Win32,59.17159763,6580b24b0593cdbf4ce9449d,65d2b6c8f2eece985d8e374c,65d2b7decb56009c7b58450a,0.0756,0.0758,1,31,193,128,1,fivesix,,,,,,,,,,,,,,,,,,,,,,,,,,,,,,,,,,,,,,,,,,,,,,,,,,,,,,,,,,,,,,,,,,,,,,,,,,,,,,,,,,,,,,,,,,,,,,,,,,,,,,,,,,,,,,,,,,,,,,,,,,,,,,,,,,,,,,,,,
,,6580b24b0593cdbf4ce9449d,2024-02-18_20h07.51.305,kallum_motion_pilot,2023.2.2,Win32,59.17159763,6580b24b0593cdbf4ce9449d,65d2b6c8f2eece985d8e374c,65d2b7decb56009c7b58450a,0.0766,0.0769,1,32,194,69,1,threefour,,,,,,,,,,,,,,,,,,,,,,,,,,,,,,,,,,,,,,,,,,,,,,,,,,,,,,,,,,,,,,,,,,,,,,,,,,,,,,,,,,,,,,,,,,,,,,,,,,,,,,,,,,,,,,,,,,,,,,,,,,,,,,,,,,,,,,,,,
,,6580b24b0593cdbf4ce9449d,2024-02-18_20h07.51.305,kallum_motion_pilot,2023.2.2,Win32,59.17159763,6580b24b0593cdbf4ce9449d,65d2b6c8f2eece985d8e374c,65d2b7decb56009c7b58450a,0.0776,0.0778,1,33,195,32,1,onetwo,,,,,,,,,,,,,,,,,,,,,,,,,,,,,,,,,,,,,,,,,,,,,,,,,,,,,,,,,,,,,,,,,,,,,,,,,,,,,,,,,,,,,,,,,,,,,,,,,,,,,,,,,,,,,,,,,,,,,,,,,,,,,,,,,,,,,,,,,
,,6580b24b0593cdbf4ce9449d,2024-02-18_20h07.51.305,kallum_motion_pilot,2023.2.2,Win32,59.17159763,6580b24b0593cdbf4ce9449d,65d2b6c8f2eece985d8e374c,65d2b7decb56009c7b58450a,0.0789,0.0791,1,34,196,134,1,eightsix,,,,,,,,,,,,,,,,,,,,,,,,,,,,,,,,,,,,,,,,,,,,,,,,,,,,,,,,,,,,,,,,,,,,,,,,,,,,,,,,,,,,,,,,,,,,,,,,,,,,,,,,,,,,,,,,,,,,,,,,,,,,,,,,,,,,,,,,,
,,6580b24b0593cdbf4ce9449d,2024-02-18_20h07.51.305,kallum_motion_pilot,2023.2.2,Win32,59.17159763,6580b24b0593cdbf4ce9449d,65d2b6c8f2eece985d8e374c,65d2b7decb56009c7b58450a,0.0801,0.0804,1,35,197,74,1,twoone,,,,,,,,,,,,,,,,,,,,,,,,,,,,,,,,,,,,,,,,,,,,,,,,,,,,,,,,,,,,,,,,,,,,,,,,,,,,,,,,,,,,,,,,,,,,,,,,,,,,,,,,,,,,,,,,,,,,,,,,,,,,,,,,,,,,,,,,,
,,6580b24b0593cdbf4ce9449d,2024-02-18_20h07.51.305,kallum_motion_pilot,2023.2.2,Win32,59.17159763,6580b24b0593cdbf4ce9449d,65d2b6c8f2eece985d8e374c,65d2b7decb56009c7b58450a,0.0812,0.0814,1,36,198,86,1,eightsix,,,,,,,,,,,,,,,,,,,,,,,,,,,,,,,,,,,,,,,,,,,,,,,,,,,,,,,,,,,,,,,,,,,,,,,,,,,,,,,,,,,,,,,,,,,,,,,,,,,,,,,,,,,,,,,,,,,,,,,,,,,,,,,,,,,,,,,,,
,,6580b24b0593cdbf4ce9449d,2024-02-18_20h07.51.305,kallum_motion_pilot,2023.2.2,Win32,59.17159763,6580b24b0593cdbf4ce9449d,65d2b6c8f2eece985d8e374c,65d2b7decb56009c7b58450a,0.082,0.0823,1,37,199,44,1,threeone,,,,,,,,,,,,,,,,,,,,,,,,,,,,,,,,,,,,,,,,,,,,,,,,,,,,,,,,,,,,,,,,,,,,,,,,,,,,,,,,,,,,,,,,,,,,,,,,,,,,,,,,,,,,,,,,,,,,,,,,,,,,,,,,,,,,,,,,,
,,6580b24b0593cdbf4ce9449d,2024-02-18_20h07.51.305,kallum_motion_pilot,2023.2.2,Win32,59.17159763,6580b24b0593cdbf4ce9449d,65d2b6c8f2eece985d8e374c,65d2b7decb56009c7b58450a,0.0828,0.083,1,38,200,25,1,onethree,,,,,,,,,,,,,,,,,,,,,,,,,,,,,,,,,,,,,,,,,,,,,,,,,,,,,,,,,,,,,,,,,,,,,,,,,,,,,,,,,,,,,,,,,,,,,,,,,,,,,,,,,,,,,,,,,,,,,,,,,,,,,,,,,,,,,,,,,
,,6580b24b0593cdbf4ce9449d,2024-02-18_20h07.51.305,kallum_motion_pilot,2023.2.2,Win32,59.17159763,6580b24b0593cdbf4ce9449d,65d2b6c8f2eece985d8e374c,65d2b7decb56009c7b58450a,0.0835,0.0837,1,39,201,94,1,eightsix,,,,,,,,,,,,,,,,,,,,,,,,,,,,,,,,,,,,,,,,,,,,,,,,,,,,,,,,,,,,,,,,,,,,,,,,,,,,,,,,,,,,,,,,,,,,,,,,,,,,,,,,,,,,,,,,,,,,,,,,,,,,,,,,,,,,,,,,,
,,6580b24b0593cdbf4ce9449d,2024-02-18_20h07.51.305,kallum_motion_pilot,2023.2.2,Win32,59.17159763,6580b24b0593cdbf4ce9449d,65d2b6c8f2eece985d8e374c,65d2b7decb56009c7b58450a,0.0841,0.0844,1,40,202,19,1,twofour,,,,,,,,,,,,,,,,,,,,,,,,,,,,,,,,,,,,,,,,,,,,,,,,,,,,,,,,,,,,,,,,,,,,,,,,,,,,,,,,,,,,,,,,,,,,,,,,,,,,,,,,,,,,,,,,,,,,,,,,,,,,,,,,,,,,,,,,,
,,6580b24b0593cdbf4ce9449d,2024-02-18_20h07.51.305,kallum_motion_pilot,2023.2.2,Win32,59.17159763,6580b24b0593cdbf4ce9449d,65d2b6c8f2eece985d8e374c,65d2b7decb56009c7b58450a,0.0848,0.085,1,41,203,50,1,twoone,,,,,,,,,,,,,,,,,,,,,,,,,,,,,,,,,,,,,,,,,,,,,,,,,,,,,,,,,,,,,,,,,,,,,,,,,,,,,,,,,,,,,,,,,,,,,,,,,,,,,,,,,,,,,,,,,,,,,,,,,,,,,,,,,,,,,,,,,
,,6580b24b0593cdbf4ce9449d,2024-02-18_20h07.51.305,kallum_motion_pilot,2023.2.2,Win32,59.17159763,6580b24b0593cdbf4ce9449d,65d2b6c8f2eece985d8e374c,65d2b7decb56009c7b58450a,0.0853,0.0856,1,42,204,88,1,fivesix,,,,,,,,,,,,,,,,,,,,,,,,,,,,,,,,,,,,,,,,,,,,,,,,,,,,,,,,,,,,,,,,,,,,,,,,,,,,,,,,,,,,,,,,,,,,,,,,,,,,,,,,,,,,,,,,,,,,,,,,,,,,,,,,,,,,,,,,,
,,6580b24b0593cdbf4ce9449d,2024-02-18_20h07.51.305,kallum_motion_pilot,2023.2.2,Win32,59.17159763,6580b24b0593cdbf4ce9449d,65d2b6c8f2eece985d8e374c,65d2b7decb56009c7b58450a,0.0858,0.086,1,43,205,123,1,sixeight,,,,,,,,,,,,,,,,,,,,,,,,,,,,,,,,,,,,,,,,,,,,,,,,,,,,,,,,,,,,,,,,,,,,,,,,,,,,,,,,,,,,,,,,,,,,,,,,,,,,,,,,,,,,,,,,,,,,,,,,,,,,,,,,,,,,,,,,,
,,6580b24b0593cdbf4ce9449d,2024-02-18_20h07.51.305,kallum_motion_pilot,2023.2.2,Win32,59.17159763,6580b24b0593cdbf4ce9449d,65d2b6c8f2eece985d8e374c,65d2b7decb56009c7b58450a,0.0868,0.087,1,44,206,2,1,twoone,,,,,,,,,,,,,,,,,,,,,,,,,,,,,,,,,,,,,,,,,,,,,,,,,,,,,,,,,,,,,,,,,,,,,,,,,,,,,,,,,,,,,,,,,,,,,,,,,,,,,,,,,,,,,,,,,,,,,,,,,,,,,,,,,,,,,,,,,
,,6580b24b0593cdbf4ce9449d,2024-02-18_20h07.51.305,kallum_motion_pilot,2023.2.2,Win32,59.17159763,6580b24b0593cdbf4ce9449d,65d2b6c8f2eece985d8e374c,65d2b7decb56009c7b58450a,0.0872,0.0873,1,45,207,155,1,sixeight,,,,,,,,,,,,,,,,,,,,,,,,,,,,,,,,,,,,,,,,,,,,,,,,,,,,,,,,,,,,,,,,,,,,,,,,,,,,,,,,,,,,,,,,,,,,,,,,,,,,,,,,,,,,,,,,,,,,,,,,,,,,,,,,,,,,,,,,,
,,6580b24b0593cdbf4ce9449d,2024-02-18_20h07.51.305,kallum_motion_pilot,2023.2.2,Win32,59.17159763,6580b24b0593cdbf4ce9449d,65d2b6c8f2eece985d8e374c,65d2b7decb56009c7b58450a,0.0875,0.0876,1,46,208,17,1,onethree,,,,,,,,,,,,,,,,,,,,,,,,,,,,,,,,,,,,,,,,,,,,,,,,,,,,,,,,,,,,,,,,,,,,,,,,,,,,,,,,,,,,,,,,,,,,,,,,,,,,,,,,,,,,,,,,,,,,,,,,,,,,,,,,,,,,,,,,,
,,6580b24b0593cdbf4ce9449d,2024-02-18_20h07.51.305,kallum_motion_pilot,2023.2.2,Win32,59.17159763,6580b24b0593cdbf4ce9449d,65d2b6c8f2eece985d8e374c,65d2b7decb56009c7b58450a,0.0877,0.0879,1,47,209,41,1,onethree,,,,,,,,,,,,,,,,,,,,,,,,,,,,,,,,,,,,,,,,,,,,,,,,,,,,,,,,,,,,,,,,,,,,,,,,,,,,,,,,,,,,,,,,,,,,,,,,,,,,,,,,,,,,,,,,,,,,,,,,,,,,,,,,,,,,,,,,,
,,6580b24b0593cdbf4ce9449d,2024-02-18_20h07.51.305,kallum_motion_pilot,2023.2.2,Win32,59.17159763,6580b24b0593cdbf4ce9449d,65d2b6c8f2eece985d8e374c,65d2b7decb56009c7b58450a,0.088,0.0883,1,48,210,91,1,sixeight,,,,,,,,,,,,,,,,,,,,,,,,,,,,,,,,,,,,,,,,,,,,,,,,,,,,,,,,,,,,,,,,,,,,,,,,,,,,,,,,,,,,,,,,,,,,,,,,,,,,,,,,,,,,,,,,,,,,,,,,,,,,,,,,,,,,,,,,,
,,6580b24b0593cdbf4ce9449d,2024-02-18_20h07.51.305,kallum_motion_pilot,2023.2.2,Win32,59.17159763,6580b24b0593cdbf4ce9449d,65d2b6c8f2eece985d8e374c,65d2b7decb56009c7b58450a,0.0884,0.0885,1,49,211,132,1,sevenfive,,,,,,,,,,,,,,,,,,,,,,,,,,,,,,,,,,,,,,,,,,,,,,,,,,,,,,,,,,,,,,,,,,,,,,,,,,,,,,,,,,,,,,,,,,,,,,,,,,,,,,,,,,,,,,,,,,,,,,,,,,,,,,,,,,,,,,,,,
,,6580b24b0593cdbf4ce9449d,2024-02-18_20h07.51.305,kallum_motion_pilot,2023.2.2,Win32,59.17159763,6580b24b0593cdbf4ce9449d,65d2b6c8f2eece985d8e374c,65d2b7decb56009c7b58450a,0.0887,0.0888,1,50,212,5,1,threefour,,,,,,,,,,,,,,,,,,,,,,,,,,,,,,,,,,,,,,,,,,,,,,,,,,,,,,,,,,,,,,,,,,,,,,,,,,,,,,,,,,,,,,,,,,,,,,,,,,,,,,,,,,,,,,,,,,,,,,,,,,,,,,,,,,,,,,,,,
,,6580b24b0593cdbf4ce9449d,2024-02-18_20h07.51.305,kallum_motion_pilot,2023.2.2,Win32,59.17159763,6580b24b0593cdbf4ce9449d,65d2b6c8f2eece985d8e374c,65d2b7decb56009c7b58450a,0.0891,0.0892,1,51,213,72,1,onetwo,,,,,,,,,,,,,,,,,,,,,,,,,,,,,,,,,,,,,,,,,,,,,,,,,,,,,,,,,,,,,,,,,,,,,,,,,,,,,,,,,,,,,,,,,,,,,,,,,,,,,,,,,,,,,,,,,,,,,,,,,,,,,,,,,,,,,,,,,
,,6580b24b0593cdbf4ce9449d,2024-02-18_20h07.51.305,kallum_motion_pilot,2023.2.2,Win32,59.17159763,6580b24b0593cdbf4ce9449d,65d2b6c8f2eece985d8e374c,65d2b7decb56009c7b58450a,0.0894,0.0895,1,52,214,104,1,fivesix,,,,,,,,,,,,,,,,,,,,,,,,,,,,,,,,,,,,,,,,,,,,,,,,,,,,,,,,,,,,,,,,,,,,,,,,,,,,,,,,,,,,,,,,,,,,,,,,,,,,,,,,,,,,,,,,,,,,,,,,,,,,,,,,,,,,,,,,,
,,6580b24b0593cdbf4ce9449d,2024-02-18_20h07.51.305,kallum_motion_pilot,2023.2.2,Win32,59.17159763,6580b24b0593cdbf4ce9449d,65d2b6c8f2eece985d8e374c,65d2b7decb56009c7b58450a,0.0898,0.09,1,53,215,27,1,twofour,,,,,,,,,,,,,,,,,,,,,,,,,,,,,,,,,,,,,,,,,,,,,,,,,,,,,,,,,,,,,,,,,,,,,,,,,,,,,,,,,,,,,,,,,,,,,,,,,,,,,,,,,,,,,,,,,,,,,,,,,,,,,,,,,,,,,,,,,
,,6580b24b0593cdbf4ce9449d,2024-02-18_20h07.51.305,kallum_motion_pilot,2023.2.2,Win32,59.17159763,6580b24b0593cdbf4ce9449d,65d2b6c8f2eece985d8e374c,65d2b7decb56009c7b58450a,0.0903,0.0905,1,54,216,150,1,eightsix,,,,,,,,,,,,,,,,,,,,,,,,,,,,,,,,,,,,,,,,,,,,,,,,,,,,,,,,,,,,,,,,,,,,,,,,,,,,,,,,,,,,,,,,,,,,,,,,,,,,,,,,,,,,,,,,,,,,,,,,,,,,,,,,,,,,,,,,,
,,6580b24b0593cdbf4ce9449d,2024-02-18_20h07.51.305,kallum_motion_pilot,2023.2.2,Win32,59.17159763,6580b24b0593cdbf4ce9449d,65d2b6c8f2eece985d8e374c,65d2b7decb56009c7b58450a,0.0907,0.0908,1,55,217,103,1,eightseven,,,,,,,,,,,,,,,,,,,,,,,,,,,,,,,,,,,,,,,,,,,,,,,,,,,,,,,,,,,,,,,,,,,,,,,,,,,,,,,,,,,,,,,,,,,,,,,,,,,,,,,,,,,,,,,,,,,,,,,,,,,,,,,,,,,,,,,,,
,,6580b24b0593cdbf4ce9449d,2024-02-18_20h07.51.305,kallum_motion_pilot,2023.2.2,Win32,59.17159763,6580b24b0593cdbf4ce9449d,65d2b6c8f2eece985d8e374c,65d2b7decb56009c7b58450a,0.0911,0.0912,1,56,218,129,1,fiveseven,,,,,,,,,,,,,,,,,,,,,,,,,,,,,,,,,,,,,,,,,,,,,,,,,,,,,,,,,,,,,,,,,,,,,,,,,,,,,,,,,,,,,,,,,,,,,,,,,,,,,,,,,,,,,,,,,,,,,,,,,,,,,,,,,,,,,,,,,
,,6580b24b0593cdbf4ce9449d,2024-02-18_20h07.51.305,kallum_motion_pilot,2023.2.2,Win32,59.17159763,6580b24b0593cdbf4ce9449d,65d2b6c8f2eece985d8e374c,65d2b7decb56009c7b58450a,0.0913,0.0915,1,57,219,76,1,threeone,,,,,,,,,,,,,,,,,,,,,,,,,,,,,,,,,,,,,,,,,,,,,,,,,,,,,,,,,,,,,,,,,,,,,,,,,,,,,,,,,,,,,,,,,,,,,,,,,,,,,,,,,,,,,,,,,,,,,,,,,,,,,,,,,,,,,,,,,
,,6580b24b0593cdbf4ce9449d,2024-02-18_20h07.51.305,kallum_motion_pilot,2023.2.2,Win32,59.17159763,6580b24b0593cdbf4ce9449d,65d2b6c8f2eece985d8e374c,65d2b7decb56009c7b58450a,0.0917,0.0918,1,58,220,151,1,eightseven,,,,,,,,,,,,,,,,,,,,,,,,,,,,,,,,,,,,,,,,,,,,,,,,,,,,,,,,,,,,,,,,,,,,,,,,,,,,,,,,,,,,,,,,,,,,,,,,,,,,,,,,,,,,,,,,,,,,,,,,,,,,,,,,,,,,,,,,,
,,6580b24b0593cdbf4ce9449d,2024-02-18_20h07.51.305,kallum_motion_pilot,2023.2.2,Win32,59.17159763,6580b24b0593cdbf4ce9449d,65d2b6c8f2eece985d8e374c,65d2b7decb56009c7b58450a,0.0921,0.0922,1,59,221,78,1,fourtwo,,,,,,,,,,,,,,,,,,,,,,,,,,,,,,,,,,,,,,,,,,,,,,,,,,,,,,,,,,,,,,,,,,,,,,,,,,,,,,,,,,,,,,,,,,,,,,,,,,,,,,,,,,,,,,,,,,,,,,,,,,,,,,,,,,,,,,,,,
,,6580b24b0593cdbf4ce9449d,2024-02-18_20h07.51.305,kallum_motion_pilot,2023.2.2,Win32,59.17159763,6580b24b0593cdbf4ce9449d,65d2b6c8f2eece985d8e374c,65d2b7decb56009c7b58450a,0.0924,0.0925,1,60,222,139,1,sixeight,,,,,,,,,,,,,,,,,,,,,,,,,,,,,,,,,,,,,,,,,,,,,,,,,,,,,,,,,,,,,,,,,,,,,,,,,,,,,,,,,,,,,,,,,,,,,,,,,,,,,,,,,,,,,,,,,,,,,,,,,,,,,,,,,,,,,,,,,
,,6580b24b0593cdbf4ce9449d,2024-02-18_20h07.51.305,kallum_motion_pilot,2023.2.2,Win32,59.17159763,6580b24b0593cdbf4ce9449d,65d2b6c8f2eece985d8e374c,65d2b7decb56009c7b58450a,0.0927,0.0929,1,61,223,65,1,onethree,,,,,,,,,,,,,,,,,,,,,,,,,,,,,,,,,,,,,,,,,,,,,,,,,,,,,,,,,,,,,,,,,,,,,,,,,,,,,,,,,,,,,,,,,,,,,,,,,,,,,,,,,,,,,,,,,,,,,,,,,,,,,,,,,,,,,,,,,
,,6580b24b0593cdbf4ce9449d,2024-02-18_20h07.51.305,kallum_motion_pilot,2023.2.2,Win32,59.17159763,6580b24b0593cdbf4ce9449d,65d2b6c8f2eece985d8e374c,65d2b7decb56009c7b58450a,0.0931,0.0931,1,62,224,81,1,fiveseven,,,,,,,,,,,,,,,,,,,,,,,,,,,,,,,,,,,,,,,,,,,,,,,,,,,,,,,,,,,,,,,,,,,,,,,,,,,,,,,,,,,,,,,,,,,,,,,,,,,,,,,,,,,,,,,,,,,,,,,,,,,,,,,,,,,,,,,,,
,,6580b24b0593cdbf4ce9449d,2024-02-18_20h07.51.305,kallum_motion_pilot,2023.2.2,Win32,59.17159763,6580b24b0593cdbf4ce9449d,65d2b6c8f2eece985d8e374c,65d2b7decb56009c7b58450a,0.0934,0.0935,1,63,225,96,1,fivesix,,,,,,,,,,,,,,,,,,,,,,,,,,,,,,,,,,,,,,,,,,,,,,,,,,,,,,,,,,,,,,,,,,,,,,,,,,,,,,,,,,,,,,,,,,,,,,,,,,,,,,,,,,,,,,,,,,,,,,,,,,,,,,,,,,,,,,,,,
,,6580b24b0593cdbf4ce9449d,2024-02-18_20h07.51.305,kallum_motion_pilot,2023.2.2,Win32,59.17159763,6580b24b0593cdbf4ce9449d,65d2b6c8f2eece985d8e374c,65d2b7decb56009c7b58450a,0.0937,0.0938,1,64,226,24,1,onetwo,,,,,,,,,,,,,,,,,,,,,,,,,,,,,,,,,,,,,,,,,,,,,,,,,,,,,,,,,,,,,,,,,,,,,,,,,,,,,,,,,,,,,,,,,,,,,,,,,,,,,,,,,,,,,,,,,,,,,,,,,,,,,,,,,,,,,,,,,
,,6580b24b0593cdbf4ce9449d,2024-02-18_20h07.51.305,kallum_motion_pilot,2023.2.2,Win32,59.17159763,6580b24b0593cdbf4ce9449d,65d2b6c8f2eece985d8e374c,65d2b7decb56009c7b58450a,0.0941,0.0942,1,65,227,158,1,eightsix,,,,,,,,,,,,,,,,,,,,,,,,,,,,,,,,,,,,,,,,,,,,,,,,,,,,,,,,,,,,,,,,,,,,,,,,,,,,,,,,,,,,,,,,,,,,,,,,,,,,,,,,,,,,,,,,,,,,,,,,,,,,,,,,,,,,,,,,,
,,6580b24b0593cdbf4ce9449d,2024-02-18_20h07.51.305,kallum_motion_pilot,2023.2.2,Win32,59.17159763,6580b24b0593cdbf4ce9449d,65d2b6c8f2eece985d8e374c,65d2b7decb56009c7b58450a,0.0944,0.0949,1,66,228,71,1,fourthree,,,,,,,,,,,,,,,,,,,,,,,,,,,,,,,,,,,,,,,,,,,,,,,,,,,,,,,,,,,,,,,,,,,,,,,,,,,,,,,,,,,,,,,,,,,,,,,,,,,,,,,,,,,,,,,,,,,,,,,,,,,,,,,,,,,,,,,,,
,,6580b24b0593cdbf4ce9449d,2024-02-18_20h07.51.305,kallum_motion_pilot,2023.2.2,Win32,59.17159763,6580b24b0593cdbf4ce9449d,65d2b6c8f2eece985d8e374c,65d2b7decb56009c7b58450a,0.0953,0.0956,1,67,229,87,1,eightseven,,,,,,,,,,,,,,,,,,,,,,,,,,,,,,,,,,,,,,,,,,,,,,,,,,,,,,,,,,,,,,,,,,,,,,,,,,,,,,,,,,,,,,,,,,,,,,,,,,,,,,,,,,,,,,,,,,,,,,,,,,,,,,,,,,,,,,,,,
,,6580b24b0593cdbf4ce9449d,2024-02-18_20h07.51.305,kallum_motion_pilot,2023.2.2,Win32,59.17159763,6580b24b0593cdbf4ce9449d,65d2b6c8f2eece985d8e374c,65d2b7decb56009c7b58450a,0.096,0.0962,1,68,230,152,1,fivesix,,,,,,,,,,,,,,,,,,,,,,,,,,,,,,,,,,,,,,,,,,,,,,,,,,,,,,,,,,,,,,,,,,,,,,,,,,,,,,,,,,,,,,,,,,,,,,,,,,,,,,,,,,,,,,,,,,,,,,,,,,,,,,,,,,,,,,,,,
,,6580b24b0593cdbf4ce9449d,2024-02-18_20h07.51.305,kallum_motion_pilot,2023.2.2,Win32,59.17159763,6580b24b0593cdbf4ce9449d,65d2b6c8f2eece985d8e374c,65d2b7decb56009c7b58450a,0.0964,0.0966,1,69,231,26,1,twoone,,,,,,,,,,,,,,,,,,,,,,,,,,,,,,,,,,,,,,,,,,,,,,,,,,,,,,,,,,,,,,,,,,,,,,,,,,,,,,,,,,,,,,,,,,,,,,,,,,,,,,,,,,,,,,,,,,,,,,,,,,,,,,,,,,,,,,,,,
,,6580b24b0593cdbf4ce9449d,2024-02-18_20h07.51.305,kallum_motion_pilot,2023.2.2,Win32,59.17159763,6580b24b0593cdbf4ce9449d,65d2b6c8f2eece985d8e374c,65d2b7decb56009c7b58450a,0.0968,0.097,1,70,232,102,1,eightsix,,,,,,,,,,,,,,,,,,,,,,,,,,,,,,,,,,,,,,,,,,,,,,,,,,,,,,,,,,,,,,,,,,,,,,,,,,,,,,,,,,,,,,,,,,,,,,,,,,,,,,,,,,,,,,,,,,,,,,,,,,,,,,,,,,,,,,,,,
,,6580b24b0593cdbf4ce9449d,2024-02-18_20h07.51.305,kallum_motion_pilot,2023.2.2,Win32,59.17159763,6580b24b0593cdbf4ce9449d,65d2b6c8f2eece985d8e374c,65d2b7decb56009c7b58450a,0.0972,0.0974,1,71,233,93,1,seveneight,,,,,,,,,,,,,,,,,,,,,,,,,,,,,,,,,,,,,,,,,,,,,,,,,,,,,,,,,,,,,,,,,,,,,,,,,,,,,,,,,,,,,,,,,,,,,,,,,,,,,,,,,,,,,,,,,,,,,,,,,,,,,,,,,,,,,,,,,
,,6580b24b0593cdbf4ce9449d,2024-02-18_20h07.51.305,kallum_motion_pilot,2023.2.2,Win32,59.17159763,6580b24b0593cdbf4ce9449d,65d2b6c8f2eece985d8e374c,65d2b7decb56009c7b58450a,0.0976,0.0977,1,72,234,126,1,eightsix,,,,,,,,,,,,,,,,,,,,,,,,,,,,,,,,,,,,,,,,,,,,,,,,,,,,,,,,,,,,,,,,,,,,,,,,,,,,,,,,,,,,,,,,,,,,,,,,,,,,,,,,,,,,,,,,,,,,,,,,,,,,,,,,,,,,,,,,,
,,6580b24b0593cdbf4ce9449d,2024-02-18_20h07.51.305,kallum_motion_pilot,2023.2.2,Win32,59.17159763,6580b24b0593cdbf4ce9449d,65d2b6c8f2eece985d8e374c,65d2b7decb56009c7b58450a,0.0981,0.0983,1,73,235,130,1,sixfive,,,,,,,,,,,,,,,,,,,,,,,,,,,,,,,,,,,,,,,,,,,,,,,,,,,,,,,,,,,,,,,,,,,,,,,,,,,,,,,,,,,,,,,,,,,,,,,,,,,,,,,,,,,,,,,,,,,,,,,,,,,,,,,,,,,,,,,,,
,,6580b24b0593cdbf4ce9449d,2024-02-18_20h07.51.305,kallum_motion_pilot,2023.2.2,Win32,59.17159763,6580b24b0593cdbf4ce9449d,65d2b6c8f2eece985d8e374c,65d2b7decb56009c7b58450a,0.0984,0.0986,1,74,236,138,1,sixfive,,,,,,,,,,,,,,,,,,,,,,,,,,,,,,,,,,,,,,,,,,,,,,,,,,,,,,,,,,,,,,,,,,,,,,,,,,,,,,,,,,,,,,,,,,,,,,,,,,,,,,,,,,,,,,,,,,,,,,,,,,,,,,,,,,,,,,,,,
,,6580b24b0593cdbf4ce9449d,2024-02-18_20h07.51.305,kallum_motion_pilot,2023.2.2,Win32,59.17159763,6580b24b0593cdbf4ce9449d,65d2b6c8f2eece985d8e374c,65d2b7decb56009c7b58450a,0.0988,0.0989,1,75,237,110,1,eightsix,,,,,,,,,,,,,,,,,,,,,,,,,,,,,,,,,,,,,,,,,,,,,,,,,,,,,,,,,,,,,,,,,,,,,,,,,,,,,,,,,,,,,,,,,,,,,,,,,,,,,,,,,,,,,,,,,,,,,,,,,,,,,,,,,,,,,,,,,
,,6580b24b0593cdbf4ce9449d,2024-02-18_20h07.51.305,kallum_motion_pilot,2023.2.2,Win32,59.17159763,6580b24b0593cdbf4ce9449d,65d2b6c8f2eece985d8e374c,65d2b7decb56009c7b58450a,0.0991,0.0993,1,76,238,55,1,fourthree,,,,,,,,,,,,,,,,,,,,,,,,,,,,,,,,,,,,,,,,,,,,,,,,,,,,,,,,,,,,,,,,,,,,,,,,,,,,,,,,,,,,,,,,,,,,,,,,,,,,,,,,,,,,,,,,,,,,,,,,,,,,,,,,,,,,,,,,,
,,6580b24b0593cdbf4ce9449d,2024-02-18_20h07.51.305,kallum_motion_pilot,2023.2.2,Win32,59.17159763,6580b24b0593cdbf4ce9449d,65d2b6c8f2eece985d8e374c,65d2b7decb56009c7b58450a,0.0995,0.0996,1,77,239,45,1,threefour,,,,,,,,,,,,,,,,,,,,,,,,,,,,,,,,,,,,,,,,,,,,,,,,,,,,,,,,,,,,,,,,,,,,,,,,,,,,,,,,,,,,,,,,,,,,,,,,,,,,,,,,,,,,,,,,,,,,,,,,,,,,,,,,,,,,,,,,,
,,6580b24b0593cdbf4ce9449d,2024-02-18_20h07.51.305,kallum_motion_pilot,2023.2.2,Win32,59.17159763,6580b24b0593cdbf4ce9449d,65d2b6c8f2eece985d8e374c,65d2b7decb56009c7b58450a,0.0998,0.1,1,78,240,156,1,sevenfive,,,,,,,,,,,,,,,,,,,,,,,,,,,,,,,,,,,,,,,,,,,,,,,,,,,,,,,,,,,,,,,,,,,,,,,,,,,,,,,,,,,,,,,,,,,,,,,,,,,,,,,,,,,,,,,,,,,,,,,,,,,,,,,,,,,,,,,,,
,,6580b24b0593cdbf4ce9449d,2024-02-18_20h07.51.305,kallum_motion_pilot,2023.2.2,Win32,59.17159763,6580b24b0593cdbf4ce9449d,65d2b6c8f2eece985d8e374c,65d2b7decb56009c7b58450a,0.1002,0.1004,1,79,241,83,1,sixeight,,,,,,,,,,,,,,,,,,,,,,,,,,,,,,,,,,,,,,,,,,,,,,,,,,,,,,,,,,,,,,,,,,,,,,,,,,,,,,,,,,,,,,,,,,,,,,,,,,,,,,,,,,,,,,,,,,,,,,,,,,,,,,,,,,,,,,,,,
,,6580b24b0593cdbf4ce9449d,2024-02-18_20h07.51.305,kallum_motion_pilot,2023.2.2,Win32,59.17159763,6580b24b0593cdbf4ce9449d,65d2b6c8f2eece985d8e374c,65d2b7decb56009c7b58450a,0.1006,0.1008,1,80,242,160,1,fivesix,,,,,,,,,,,,,,,,,,,,,,,,,,,,,,,,,,,,,,,,,,,,,,,,,,,,,,,,,,,,,,,,,,,,,,,,,,,,,,,,,,,,,,,,,,,,,,,,,,,,,,,,,,,,,,,,,,,,,,,,,,,,,,,,,,,,,,,,,
,,6580b24b0593cdbf4ce9449d,2024-02-18_20h07.51.305,kallum_motion_pilot,2023.2.2,Win32,59.17159763,6580b24b0593cdbf4ce9449d,65d2b6c8f2eece985d8e374c,65d2b7decb56009c7b58450a,0.101,0.1012,1,81,243,1,1,onethree,,,,,,,,,,,,,,,,,,,,,,,,,,,,,,,,,,,,,,,,,,,,,,,,,,,,,,,,,,,,,,,,,,,,,,,,,,,,,,,,,,,,,,,,,,,,,,,,,,,,,,,,,,,,,,,,,,,,,,,,,,,,,,,,,,,,,,,,,
,,6580b24b0593cdbf4ce9449d,2024-02-18_20h07.51.305,kallum_motion_pilot,2023.2.2,Win32,59.17159763,6580b24b0593cdbf4ce9449d,65d2b6c8f2eece985d8e374c,65d2b7decb56009c7b58450a,0.1013,0.1015,1,82,244,12,1,threeone,,,,,,,,,,,,,,,,,,,,,,,,,,,,,,,,,,,,,,,,,,,,,,,,,,,,,,,,,,,,,,,,,,,,,,,,,,,,,,,,,,,,,,,,,,,,,,,,,,,,,,,,,,,,,,,,,,,,,,,,,,,,,,,,,,,,,,,,,
,,6580b24b0593cdbf4ce9449d,2024-02-18_20h07.51.305,kallum_motion_pilot,2023.2.2,Win32,59.17159763,6580b24b0593cdbf4ce9449d,65d2b6c8f2eece985d8e374c,65d2b7decb56009c7b58450a,0.1017,0.1018,1,83,245,47,1,fourthree,,,,,,,,,,,,,,,,,,,,,,,,,,,,,,,,,,,,,,,,,,,,,,,,,,,,,,,,,,,,,,,,,,,,,,,,,,,,,,,,,,,,,,,,,,,,,,,,,,,,,,,,,,,,,,,,,,,,,,,,,,,,,,,,,,,,,,,,,
,,6580b24b0593cdbf4ce9449d,2024-02-18_20h07.51.305,kallum_motion_pilot,2023.2.2,Win32,59.17159763,6580b24b0593cdbf4ce9449d,65d2b6c8f2eece985d8e374c,65d2b7decb56009c7b58450a,0.102,0.1022,1,84,246,20,1,threeone,,,,,,,,,,,,,,,,,,,,,,,,,,,,,,,,,,,,,,,,,,,,,,,,,,,,,,,,,,,,,,,,,,,,,,,,,,,,,,,,,,,,,,,,,,,,,,,,,,,,,,,,,,,,,,,,,,,,,,,,,,,,,,,,,,,,,,,,,
,,6580b24b0593cdbf4ce9449d,2024-02-18_20h07.51.305,kallum_motion_pilot,2023.2.2,Win32,59.17159763,6580b24b0593cdbf4ce9449d,65d2b6c8f2eece985d8e374c,65d2b7decb56009c7b58450a,0.1023,0.1024,1,85,247,153,1,fiveseven,,,,,,,,,,,,,,,,,,,,,,,,,,,,,,,,,,,,,,,,,,,,,,,,,,,,,,,,,,,,,,,,,,,,,,,,,,,,,,,,,,,,,,,,,,,,,,,,,,,,,,,,,,,,,,,,,,,,,,,,,,,,,,,,,,,,,,,,,
,,6580b24b0593cdbf4ce9449d,2024-02-18_20h07.51.305,kallum_motion_pilot,2023.2.2,Win32,59.17159763,6580b24b0593cdbf4ce9449d,65d2b6c8f2eece985d8e374c,65d2b7decb56009c7b58450a,0.1026,0.1028,1,86,248,147,1,sixeight,,,,,,,,,,,,,,,,,,,,,,,,,,,,,,,,,,,,,,,,,,,,,,,,,,,,,,,,,,,,,,,,,,,,,,,,,,,,,,,,,,,,,,,,,,,,,,,,,,,,,,,,,,,,,,,,,,,,,,,,,,,,,,,,,,,,,,,,,
,,6580b24b0593cdbf4ce9449d,2024-02-18_20h07.51.305,kallum_motion_pilot,2023.2.2,Win32,59.17159763,6580b24b0593cdbf4ce9449d,65d2b6c8f2eece985d8e374c,65d2b7decb56009c7b58450a,0.103,0.1031,1,87,249,60,1,threeone,,,,,,,,,,,,,,,,,,,,,,,,,,,,,,,,,,,,,,,,,,,,,,,,,,,,,,,,,,,,,,,,,,,,,,,,,,,,,,,,,,,,,,,,,,,,,,,,,,,,,,,,,,,,,,,,,,,,,,,,,,,,,,,,,,,,,,,,,
,,6580b24b0593cdbf4ce9449d,2024-02-18_20h07.51.305,kallum_motion_pilot,2023.2.2,Win32,59.17159763,6580b24b0593cdbf4ce9449d,65d2b6c8f2eece985d8e374c,65d2b7decb56009c7b58450a,0.1033,0.1035,1,88,250,77,1,threefour,,,,,,,,,,,,,,,,,,,,,,,,,,,,,,,,,,,,,,,,,,,,,,,,,,,,,,,,,,,,,,,,,,,,,,,,,,,,,,,,,,,,,,,,,,,,,,,,,,,,,,,,,,,,,,,,,,,,,,,,,,,,,,,,,,,,,,,,,
,,6580b24b0593cdbf4ce9449d,2024-02-18_20h07.51.305,kallum_motion_pilot,2023.2.2,Win32,59.17159763,6580b24b0593cdbf4ce9449d,65d2b6c8f2eece985d8e374c,65d2b7decb56009c7b58450a,0.1037,0.1039,1,89,251,33,1,onethree,,,,,,,,,,,,,,,,,,,,,,,,,,,,,,,,,,,,,,,,,,,,,,,,,,,,,,,,,,,,,,,,,,,,,,,,,,,,,,,,,,,,,,,,,,,,,,,,,,,,,,,,,,,,,,,,,,,,,,,,,,,,,,,,,,,,,,,,,
,,6580b24b0593cdbf4ce9449d,2024-02-18_20h07.51.305,kallum_motion_pilot,2023.2.2,Win32,59.17159763,6580b24b0593cdbf4ce9449d,65d2b6c8f2eece985d8e374c,65d2b7decb56009c7b58450a,0.104,0.1042,1,90,252,137,1,fiveseven,,,,,,,,,,,,,,,,,,,,,,,,,,,,,,,,,,,,,,,,,,,,,,,,,,,,,,,,,,,,,,,,,,,,,,,,,,,,,,,,,,,,,,,,,,,,,,,,,,,,,,,,,,,,,,,,,,,,,,,,,,,,,,,,,,,,,,,,,
,,6580b24b0593cdbf4ce9449d,2024-02-18_20h07.51.305,kallum_motion_pilot,2023.2.2,Win32,59.17159763,6580b24b0593cdbf4ce9449d,65d2b6c8f2eece985d8e374c,65d2b7decb56009c7b58450a,0.1044,0.1045,1,91,253,80,1,fivesix,,,,,,,,,,,,,,,,,,,,,,,,,,,,,,,,,,,,,,,,,,,,,,,,,,,,,,,,,,,,,,,,,,,,,,,,,,,,,,,,,,,,,,,,,,,,,,,,,,,,,,,,,,,,,,,,,,,,,,,,,,,,,,,,,,,,,,,,,
,,6580b24b0593cdbf4ce9449d,2024-02-18_20h07.51.305,kallum_motion_pilot,2023.2.2,Win32,59.17159763,6580b24b0593cdbf4ce9449d,65d2b6c8f2eece985d8e374c,65d2b7decb56009c7b58450a,0.1047,0.1048,1,92,254,143,1,eightseven,,,,,,,,,,,,,,,,,,,,,,,,,,,,,,,,,,,,,,,,,,,,,,,,,,,,,,,,,,,,,,,,,,,,,,,,,,,,,,,,,,,,,,,,,,,,,,,,,,,,,,,,,,,,,,,,,,,,,,,,,,,,,,,,,,,,,,,,,
,,6580b24b0593cdbf4ce9449d,2024-02-18_20h07.51.305,kallum_motion_pilot,2023.2.2,Win32,59.17159763,6580b24b0593cdbf4ce9449d,65d2b6c8f2eece985d8e374c,65d2b7decb56009c7b58450a,0.105,0.1052,1,93,255,22,1,fourtwo,,,,,,,,,,,,,,,,,,,,,,,,,,,,,,,,,,,,,,,,,,,,,,,,,,,,,,,,,,,,,,,,,,,,,,,,,,,,,,,,,,,,,,,,,,,,,,,,,,,,,,,,,,,,,,,,,,,,,,,,,,,,,,,,,,,,,,,,,
,,6580b24b0593cdbf4ce9449d,2024-02-18_20h07.51.305,kallum_motion_pilot,2023.2.2,Win32,59.17159763,6580b24b0593cdbf4ce9449d,65d2b6c8f2eece985d8e374c,65d2b7decb56009c7b58450a,0.1054,0.1056,1,94,256,100,1,sevenfive,,,,,,,,,,,,,,,,,,,,,,,,,,,,,,,,,,,,,,,,,,,,,,,,,,,,,,,,,,,,,,,,,,,,,,,,,,,,,,,,,,,,,,,,,,,,,,,,,,,,,,,,,,,,,,,,,,,,,,,,,,,,,,,,,,,,,,,,,
,,6580b24b0593cdbf4ce9449d,2024-02-18_20h07.51.305,kallum_motion_pilot,2023.2.2,Win32,59.17159763,6580b24b0593cdbf4ce9449d,65d2b6c8f2eece985d8e374c,65d2b7decb56009c7b58450a,0.1058,0.1059,1,95,257,106,1,sixfive,,,,,,,,,,,,,,,,,,,,,,,,,,,,,,,,,,,,,,,,,,,,,,,,,,,,,,,,,,,,,,,,,,,,,,,,,,,,,,,,,,,,,,,,,,,,,,,,,,,,,,,,,,,,,,,,,,,,,,,,,,,,,,,,,,,,,,,,,
,,6580b24b0593cdbf4ce9449d,2024-02-18_20h07.51.305,kallum_motion_pilot,2023.2.2,Win32,59.17159763,6580b24b0593cdbf4ce9449d,65d2b6c8f2eece985d8e374c,65d2b7decb56009c7b58450a,0.1061,0.1064,1,96,258,117,1,seveneight,,,,,,,,,,,,,,,,,,,,,,,,,,,,,,,,,,,,,,,,,,,,,,,,,,,,,,,,,,,,,,,,,,,,,,,,,,,,,,,,,,,,,,,,,,,,,,,,,,,,,,,,,,,,,,,,,,,,,,,,,,,,,,,,,,,,,,,,,
,,6580b24b0593cdbf4ce9449d,2024-02-18_20h07.51.305,kallum_motion_pilot,2023.2.2,Win32,59.17159763,6580b24b0593cdbf4ce9449d,65d2b6c8f2eece985d8e374c,65d2b7decb56009c7b58450a,0.1065,0.1066,1,97,259,56,1,onetwo,,,,,,,,,,,,,,,,,,,,,,,,,,,,,,,,,,,,,,,,,,,,,,,,,,,,,,,,,,,,,,,,,,,,,,,,,,,,,,,,,,,,,,,,,,,,,,,,,,,,,,,,,,,,,,,,,,,,,,,,,,,,,,,,,,,,,,,,,
,,6580b24b0593cdbf4ce9449d,2024-02-18_20h07.51.305,kallum_motion_pilot,2023.2.2,Win32,59.17159763,6580b24b0593cdbf4ce9449d,65d2b6c8f2eece985d8e374c,65d2b7decb56009c7b58450a,0.1068,0.1069,1,98,260,85,1,seveneight,,,,,,,,,,,,,,,,,,,,,,,,,,,,,,,,,,,,,,,,,,,,,,,,,,,,,,,,,,,,,,,,,,,,,,,,,,,,,,,,,,,,,,,,,,,,,,,,,,,,,,,,,,,,,,,,,,,,,,,,,,,,,,,,,,,,,,,,,
,,6580b24b0593cdbf4ce9449d,2024-02-18_20h07.51.305,kallum_motion_pilot,2023.2.2,Win32,59.17159763,6580b24b0593cdbf4ce9449d,65d2b6c8f2eece985d8e374c,65d2b7decb56009c7b58450a,0.107,0.1072,1,99,261,48,1,onetwo,,,,,,,,,,,,,,,,,,,,,,,,,,,,,,,,,,,,,,,,,,,,,,,,,,,,,,,,,,,,,,,,,,,,,,,,,,,,,,,,,,,,,,,,,,,,,,,,,,,,,,,,,,,,,,,,,,,,,,,,,,,,,,,,,,,,,,,,,
,,6580b24b0593cdbf4ce9449d,2024-02-18_20h07.51.305,kallum_motion_pilot,2023.2.2,Win32,59.17159763,6580b24b0593cdbf4ce9449d,65d2b6c8f2eece985d8e374c,65d2b7decb56009c7b58450a,0.1073,0.1075,1,100,262,115,1,sixeight,,,,,,,,,,,,,,,,,,,,,,,,,,,,,,,,,,,,,,,,,,,,,,,,,,,,,,,,,,,,,,,,,,,,,,,,,,,,,,,,,,,,,,,,,,,,,,,,,,,,,,,,,,,,,,,,,,,,,,,,,,,,,,,,,,,,,,,,,
,,6580b24b0593cdbf4ce9449d,2024-02-18_20h07.51.305,kallum_motion_pilot,2023.2.2,Win32,59.17159763,6580b24b0593cdbf4ce9449d,65d2b6c8f2eece985d8e374c,65d2b7decb56009c7b58450a,0.1077,0.1079,1,101,263,43,1,twofour,,,,,,,,,,,,,,,,,,,,,,,,,,,,,,,,,,,,,,,,,,,,,,,,,,,,,,,,,,,,,,,,,,,,,,,,,,,,,,,,,,,,,,,,,,,,,,,,,,,,,,,,,,,,,,,,,,,,,,,,,,,,,,,,,,,,,,,,,
,,6580b24b0593cdbf4ce9449d,2024-02-18_20h07.51.305,kallum_motion_pilot,2023.2.2,Win32,59.17159763,6580b24b0593cdbf4ce9449d,65d2b6c8f2eece985d8e374c,65d2b7decb56009c7b58450a,0.108,0.1083,1,102,264,79,1,eightseven,,,,,,,,,,,,,,,,,,,,,,,,,,,,,,,,,,,,,,,,,,,,,,,,,,,,,,,,,,,,,,,,,,,,,,,,,,,,,,,,,,,,,,,,,,,,,,,,,,,,,,,,,,,,,,,,,,,,,,,,,,,,,,,,,,,,,,,,,
,,6580b24b0593cdbf4ce9449d,2024-02-18_20h07.51.305,kallum_motion_pilot,2023.2.2,Win32,59.17159763,6580b24b0593cdbf4ce9449d,65d2b6c8f2eece985d8e374c,65d2b7decb56009c7b58450a,0.1084,0.1085,1,103,265,31,1,fourthree,,,,,,,,,,,,,,,,,,,,,,,,,,,,,,,,,,,,,,,,,,,,,,,,,,,,,,,,,,,,,,,,,,,,,,,,,,,,,,,,,,,,,,,,,,,,,,,,,,,,,,,,,,,,,,,,,,,,,,,,,,,,,,,,,,,,,,,,,
,,6580b24b0593cdbf4ce9449d,2024-02-18_20h07.51.305,kallum_motion_pilot,2023.2.2,Win32,59.17159763,6580b24b0593cdbf4ce9449d,65d2b6c8f2eece985d8e374c,65d2b7decb56009c7b58450a,0.1087,0.1089,1,104,266,13,1,threefour,,,,,,,,,,,,,,,,,,,,,,,,,,,,,,,,,,,,,,,,,,,,,,,,,,,,,,,,,,,,,,,,,,,,,,,,,,,,,,,,,,,,,,,,,,,,,,,,,,,,,,,,,,,,,,,,,,,,,,,,,,,,,,,,,,,,,,,,,
,,6580b24b0593cdbf4ce9449d,2024-02-18_20h07.51.305,kallum_motion_pilot,2023.2.2,Win32,59.17159763,6580b24b0593cdbf4ce9449d,65d2b6c8f2eece985d8e374c,65d2b7decb56009c7b58450a,0.1091,0.1092,1,105,267,82,1,sixfive,,,,,,,,,,,,,,,,,,,,,,,,,,,,,,,,,,,,,,,,,,,,,,,,,,,,,,,,,,,,,,,,,,,,,,,,,,,,,,,,,,,,,,,,,,,,,,,,,,,,,,,,,,,,,,,,,,,,,,,,,,,,,,,,,,,,,,,,,
,,6580b24b0593cdbf4ce9449d,2024-02-18_20h07.51.305,kallum_motion_pilot,2023.2.2,Win32,59.17159763,6580b24b0593cdbf4ce9449d,65d2b6c8f2eece985d8e374c,65d2b7decb56009c7b58450a,0.1094,0.1095,1,106,268,89,1,fiveseven,,,,,,,,,,,,,,,,,,,,,,,,,,,,,,,,,,,,,,,,,,,,,,,,,,,,,,,,,,,,,,,,,,,,,,,,,,,,,,,,,,,,,,,,,,,,,,,,,,,,,,,,,,,,,,,,,,,,,,,,,,,,,,,,,,,,,,,,,
,,6580b24b0593cdbf4ce9449d,2024-02-18_20h07.51.305,kallum_motion_pilot,2023.2.2,Win32,59.17159763,6580b24b0593cdbf4ce9449d,65d2b6c8f2eece985d8e374c,65d2b7decb56009c7b58450a,0.1097,0.1098,1,107,269,7,1,fourthree,,,,,,,,,,,,,,,,,,,,,,,,,,,,,,,,,,,,,,,,,,,,,,,,,,,,,,,,,,,,,,,,,,,,,,,,,,,,,,,,,,,,,,,,,,,,,,,,,,,,,,,,,,,,,,,,,,,,,,,,,,,,,,,,,,,,,,,,,
,,6580b24b0593cdbf4ce9449d,2024-02-18_20h07.51.305,kallum_motion_pilot,2023.2.2,Win32,59.17159763,6580b24b0593cdbf4ce9449d,65d2b6c8f2eece985d8e374c,65d2b7decb56009c7b58450a,0.11,0.1102,1,108,270,61,1,threefour,,,,,,,,,,,,,,,,,,,,,,,,,,,,,,,,,,,,,,,,,,,,,,,,,,,,,,,,,,,,,,,,,,,,,,,,,,,,,,,,,,,,,,,,,,,,,,,,,,,,,,,,,,,,,,,,,,,,,,,,,,,,,,,,,,,,,,,,,
,,6580b24b0593cdbf4ce9449d,2024-02-18_20h07.51.305,kallum_motion_pilot,2023.2.2,Win32,59.17159763,6580b24b0593cdbf4ce9449d,65d2b6c8f2eece985d8e374c,65d2b7decb56009c7b58450a,0.1104,0.1105,1,109,271,6,1,fourtwo,,,,,,,,,,,,,,,,,,,,,,,,,,,,,,,,,,,,,,,,,,,,,,,,,,,,,,,,,,,,,,,,,,,,,,,,,,,,,,,,,,,,,,,,,,,,,,,,,,,,,,,,,,,,,,,,,,,,,,,,,,,,,,,,,,,,,,,,,
,,6580b24b0593cdbf4ce9449d,2024-02-18_20h07.51.305,kallum_motion_pilot,2023.2.2,Win32,59.17159763,6580b24b0593cdbf4ce9449d,65d2b6c8f2eece985d8e374c,65d2b7decb56009c7b58450a,0.1107,0.1109,1,110,272,107,1,sixeight,,,,,,,,,,,,,,,,,,,,,,,,,,,,,,,,,,,,,,,,,,,,,,,,,,,,,,,,,,,,,,,,,,,,,,,,,,,,,,,,,,,,,,,,,,,,,,,,,,,,,,,,,,,,,,,,,,,,,,,,,,,,,,,,,,,,,,,,,
,,6580b24b0593cdbf4ce9449d,2024-02-18_20h07.51.305,kallum_motion_pilot,2023.2.2,Win32,59.17159763,6580b24b0593cdbf4ce9449d,65d2b6c8f2eece985d8e374c,65d2b7decb56009c7b58450a,0.111,0.1113,1,111,273,3,1,twofour,,,,,,,,,,,,,,,,,,,,,,,,,,,,,,,,,,,,,,,,,,,,,,,,,,,,,,,,,,,,,,,,,,,,,,,,,,,,,,,,,,,,,,,,,,,,,,,,,,,,,,,,,,,,,,,,,,,,,,,,,,,,,,,,,,,,,,,,,
,,6580b24b0593cdbf4ce9449d,2024-02-18_20h07.51.305,kallum_motion_pilot,2023.2.2,Win32,59.17159763,6580b24b0593cdbf4ce9449d,65d2b6c8f2eece985d8e374c,65d2b7decb56009c7b58450a,0.1117,0.112,1,112,274,109,1,seveneight,,,,,,,,,,,,,,,,,,,,,,,,,,,,,,,,,,,,,,,,,,,,,,,,,,,,,,,,,,,,,,,,,,,,,,,,,,,,,,,,,,,,,,,,,,,,,,,,,,,,,,,,,,,,,,,,,,,,,,,,,,,,,,,,,,,,,,,,,
,,6580b24b0593cdbf4ce9449d,2024-02-18_20h07.51.305,kallum_motion_pilot,2023.2.2,Win32,59.17159763,6580b24b0593cdbf4ce9449d,65d2b6c8f2eece985d8e374c,65d2b7decb56009c7b58450a,0.1124,0.1127,1,113,275,161,1,fiveseven,,,,,,,,,,,,,,,,,,,,,,,,,,,,,,,,,,,,,,,,,,,,,,,,,,,,,,,,,,,,,,,,,,,,,,,,,,,,,,,,,,,,,,,,,,,,,,,,,,,,,,,,,,,,,,,,,,,,,,,,,,,,,,,,,,,,,,,,,
,,6580b24b0593cdbf4ce9449d,2024-02-18_20h07.51.305,kallum_motion_pilot,2023.2.2,Win32,59.17159763,6580b24b0593cdbf4ce9449d,65d2b6c8f2eece985d8e374c,65d2b7decb56009c7b58450a,0.113,0.1132,1,114,276,36,1,threeone,,,,,,,,,,,,,,,,,,,,,,,,,,,,,,,,,,,,,,,,,,,,,,,,,,,,,,,,,,,,,,,,,,,,,,,,,,,,,,,,,,,,,,,,,,,,,,,,,,,,,,,,,,,,,,,,,,,,,,,,,,,,,,,,,,,,,,,,,
,,6580b24b0593cdbf4ce9449d,2024-02-18_20h07.51.305,kallum_motion_pilot,2023.2.2,Win32,59.17159763,6580b24b0593cdbf4ce9449d,65d2b6c8f2eece985d8e374c,65d2b7decb56009c7b58450a,0.1135,0.1137,1,115,277,42,1,twoone,,,,,,,,,,,,,,,,,,,,,,,,,,,,,,,,,,,,,,,,,,,,,,,,,,,,,,,,,,,,,,,,,,,,,,,,,,,,,,,,,,,,,,,,,,,,,,,,,,,,,,,,,,,,,,,,,,,,,,,,,,,,,,,,,,,,,,,,,
