startup.started,startup.stopped,Prolific ID*,date,expName,psychopyVersion,OS,frameRate,participant,study_id,session,stimpositions.started,stimpositions.stopped,hardcoded_stimulus_positions.thisRepN,hardcoded_stimulus_positions.thisTrialN,hardcoded_stimulus_positions.thisN,hardcoded_stimulus_positions.thisIndex,hardcoded_stimulus_positions.ran,StimulusPos,stimorientation.started,stimorientation.stopped,prac_stimorientation_import_loop.thisRepN,prac_stimorientation_import_loop.thisTrialN,prac_stimorientation_import_loop.thisN,prac_stimorientation_import_loop.thisIndex,prac_stimorientation_import_loop.ran,Stimorientation,welcome_instr.started,welcome_instr.stopped,key_resp.keys,key_resp.rt,key_resp.duration,response_steppedout_1.started,response_steppedout_1.stopped,key_resp_20.keys,key_resp_20.rt,key_resp_20.duration,response_steppedout_2.started,response_steppedout_2.stopped,key_resp_19.keys,key_resp_19.rt,key_resp_19.duration,stim_response_instr.started,stim_response_instr.stopped,key_resp_15.keys,key_resp_15.rt,key_resp_15.duration,direction_instr_2.started,direction_instr_2.stopped,key_resp_9.keys,key_resp_9.rt,key_resp_9.duration,instr_prac.started,instr_prac.stopped,key_resp_10.keys,key_resp_10.rt,key_resp_10.duration,Stim1_display_prac.started,Stim1_display_prac.stopped,Ecc,Circle1_ori,Circle2_ori,response_prac.started,similarity,response_time,response_prac.stopped,mouse_5.x,mouse_5.y,mouse_5.leftButton,mouse_5.midButton,mouse_5.rightButton,mouse_5.clicked_name,responseprac_feedback.started,responseprac_feedback.stopped,summary2_prac.started,summary2_prac.stopped,mouse_6.x,mouse_6.y,mouse_6.leftButton,mouse_6.midButton,mouse_6.rightButton,mouse_6.clicked_name,duringprac.thisRepN,duringprac.thisTrialN,duringprac.thisN,duringprac.thisIndex,duringprac.ran,begin.started,begin.stopped,key_resp_22.keys,key_resp_22.rt,key_resp_22.duration,Stim1_display.started,Stim1_display.stopped,circle1_ori,circle2_ori,circle1_SF,circle2_SF,response.started,response.stopped,mouse.x,mouse.y,mouse.leftButton,mouse.midButton,mouse.rightButton,mouse.clicked_name,trialnumber,double_pass.thisRepN,double_pass.thisTrialN,double_pass.thisN,double_pass.thisIndex,double_pass.ran,double_pass.order,main_trial.thisRepN,main_trial.thisTrialN,main_trial.thisN,main_trial.thisIndex,main_trial.ran,main_trial.order,Trial_Counter,Catch,Frequencies,response_2.started,response_2.stopped,mouse_2.x,mouse_2.y,mouse_2.leftButton,mouse_2.midButton,mouse_2.rightButton,mouse_2.clicked_name,special_trial.started,special_trial.stopped,catch_1.started,catch_1.stopped,mouse_3.x,mouse_3.y,mouse_3.leftButton,mouse_3.midButton,mouse_3.rightButton,catchresponse,catchnumber,response_time_catch,response_sum.started,response_sum.stopped,mouse_11.x,mouse_11.y,mouse_11.leftButton,mouse_11.midButton,mouse_11.rightButton,flip_presentation_sequence_for_double_pass.started,flip_presentation_sequence_for_double_pass.stopped,goodbye.started,goodbye.stopped,key_resp_3.keys,key_resp_3.rt,key_resp_3.duration
0.0004,0.0004,65830c7b2f2eac8713aed876,2024-02-19_04h14.28.658,kallum_motion_pilot,2023.2.2,Win32,60.60606061,65830c7b2f2eac8713aed876,65d2b6c8f2eece985d8e374c,65d2b957021102d092193377,,,,,,,,,,,,,,,,,,,,,,,,,,,,,,,,,,,,,,,,,,,,,,,,,,,,,,,,,,,,,,,,,,,,,,,,,,,,,,,,,,,,,,,,,,,,,,,,,,,,,,,,,,,,,,,,,,,,,,,,,,,,,,,,,,,,,,,,,,,,,,,,,
,,65830c7b2f2eac8713aed876,2024-02-19_04h14.28.658,kallum_motion_pilot,2023.2.2,Win32,60.60606061,65830c7b2f2eac8713aed876,65d2b6c8f2eece985d8e374c,65d2b957021102d092193377,0.0293,0.0294,0,0,0,85,1,seveneight,,,,,,,,,,,,,,,,,,,,,,,,,,,,,,,,,,,,,,,,,,,,,,,,,,,,,,,,,,,,,,,,,,,,,,,,,,,,,,,,,,,,,,,,,,,,,,,,,,,,,,,,,,,,,,,,,,,,,,,,,,,,,,,,,,,,,,,,,
,,65830c7b2f2eac8713aed876,2024-02-19_04h14.28.658,kallum_motion_pilot,2023.2.2,Win32,60.60606061,65830c7b2f2eac8713aed876,65d2b6c8f2eece985d8e374c,65d2b957021102d092193377,0.0296,0.0297,0,1,1,157,1,seveneight,,,,,,,,,,,,,,,,,,,,,,,,,,,,,,,,,,,,,,,,,,,,,,,,,,,,,,,,,,,,,,,,,,,,,,,,,,,,,,,,,,,,,,,,,,,,,,,,,,,,,,,,,,,,,,,,,,,,,,,,,,,,,,,,,,,,,,,,,
,,65830c7b2f2eac8713aed876,2024-02-19_04h14.28.658,kallum_motion_pilot,2023.2.2,Win32,60.60606061,65830c7b2f2eac8713aed876,65d2b6c8f2eece985d8e374c,65d2b957021102d092193377,0.0298,0.0298,0,2,2,114,1,sixfive,,,,,,,,,,,,,,,,,,,,,,,,,,,,,,,,,,,,,,,,,,,,,,,,,,,,,,,,,,,,,,,,,,,,,,,,,,,,,,,,,,,,,,,,,,,,,,,,,,,,,,,,,,,,,,,,,,,,,,,,,,,,,,,,,,,,,,,,,
,,65830c7b2f2eac8713aed876,2024-02-19_04h14.28.658,kallum_motion_pilot,2023.2.2,Win32,60.60606061,65830c7b2f2eac8713aed876,65d2b6c8f2eece985d8e374c,65d2b957021102d092193377,0.0299,0.0299,0,3,3,151,1,eightseven,,,,,,,,,,,,,,,,,,,,,,,,,,,,,,,,,,,,,,,,,,,,,,,,,,,,,,,,,,,,,,,,,,,,,,,,,,,,,,,,,,,,,,,,,,,,,,,,,,,,,,,,,,,,,,,,,,,,,,,,,,,,,,,,,,,,,,,,,
,,65830c7b2f2eac8713aed876,2024-02-19_04h14.28.658,kallum_motion_pilot,2023.2.2,Win32,60.60606061,65830c7b2f2eac8713aed876,65d2b6c8f2eece985d8e374c,65d2b957021102d092193377,0.03,0.0301,0,4,4,40,1,onetwo,,,,,,,,,,,,,,,,,,,,,,,,,,,,,,,,,,,,,,,,,,,,,,,,,,,,,,,,,,,,,,,,,,,,,,,,,,,,,,,,,,,,,,,,,,,,,,,,,,,,,,,,,,,,,,,,,,,,,,,,,,,,,,,,,,,,,,,,,
,,65830c7b2f2eac8713aed876,2024-02-19_04h14.28.658,kallum_motion_pilot,2023.2.2,Win32,60.60606061,65830c7b2f2eac8713aed876,65d2b6c8f2eece985d8e374c,65d2b957021102d092193377,0.0302,0.0302,0,5,5,118,1,eightsix,,,,,,,,,,,,,,,,,,,,,,,,,,,,,,,,,,,,,,,,,,,,,,,,,,,,,,,,,,,,,,,,,,,,,,,,,,,,,,,,,,,,,,,,,,,,,,,,,,,,,,,,,,,,,,,,,,,,,,,,,,,,,,,,,,,,,,,,,
,,65830c7b2f2eac8713aed876,2024-02-19_04h14.28.658,kallum_motion_pilot,2023.2.2,Win32,60.60606061,65830c7b2f2eac8713aed876,65d2b6c8f2eece985d8e374c,65d2b957021102d092193377,0.0302,0.0303,0,6,6,84,1,sevenfive,,,,,,,,,,,,,,,,,,,,,,,,,,,,,,,,,,,,,,,,,,,,,,,,,,,,,,,,,,,,,,,,,,,,,,,,,,,,,,,,,,,,,,,,,,,,,,,,,,,,,,,,,,,,,,,,,,,,,,,,,,,,,,,,,,,,,,,,,
,,65830c7b2f2eac8713aed876,2024-02-19_04h14.28.658,kallum_motion_pilot,2023.2.2,Win32,60.60606061,65830c7b2f2eac8713aed876,65d2b6c8f2eece985d8e374c,65d2b957021102d092193377,0.0304,0.0304,0,7,7,127,1,eightseven,,,,,,,,,,,,,,,,,,,,,,,,,,,,,,,,,,,,,,,,,,,,,,,,,,,,,,,,,,,,,,,,,,,,,,,,,,,,,,,,,,,,,,,,,,,,,,,,,,,,,,,,,,,,,,,,,,,,,,,,,,,,,,,,,,,,,,,,,
,,65830c7b2f2eac8713aed876,2024-02-19_04h14.28.658,kallum_motion_pilot,2023.2.2,Win32,60.60606061,65830c7b2f2eac8713aed876,65d2b6c8f2eece985d8e374c,65d2b957021102d092193377,0.0306,0.0306,0,8,8,70,1,fourtwo,,,,,,,,,,,,,,,,,,,,,,,,,,,,,,,,,,,,,,,,,,,,,,,,,,,,,,,,,,,,,,,,,,,,,,,,,,,,,,,,,,,,,,,,,,,,,,,,,,,,,,,,,,,,,,,,,,,,,,,,,,,,,,,,,,,,,,,,,
,,65830c7b2f2eac8713aed876,2024-02-19_04h14.28.658,kallum_motion_pilot,2023.2.2,Win32,60.60606061,65830c7b2f2eac8713aed876,65d2b6c8f2eece985d8e374c,65d2b957021102d092193377,0.0307,0.0307,0,9,9,11,1,twofour,,,,,,,,,,,,,,,,,,,,,,,,,,,,,,,,,,,,,,,,,,,,,,,,,,,,,,,,,,,,,,,,,,,,,,,,,,,,,,,,,,,,,,,,,,,,,,,,,,,,,,,,,,,,,,,,,,,,,,,,,,,,,,,,,,,,,,,,,
,,65830c7b2f2eac8713aed876,2024-02-19_04h14.28.658,kallum_motion_pilot,2023.2.2,Win32,60.60606061,65830c7b2f2eac8713aed876,65d2b6c8f2eece985d8e374c,65d2b957021102d092193377,0.0309,0.0309,0,10,10,33,1,onethree,,,,,,,,,,,,,,,,,,,,,,,,,,,,,,,,,,,,,,,,,,,,,,,,,,,,,,,,,,,,,,,,,,,,,,,,,,,,,,,,,,,,,,,,,,,,,,,,,,,,,,,,,,,,,,,,,,,,,,,,,,,,,,,,,,,,,,,,,
,,65830c7b2f2eac8713aed876,2024-02-19_04h14.28.658,kallum_motion_pilot,2023.2.2,Win32,60.60606061,65830c7b2f2eac8713aed876,65d2b6c8f2eece985d8e374c,65d2b957021102d092193377,0.031,0.031,0,11,11,83,1,sixeight,,,,,,,,,,,,,,,,,,,,,,,,,,,,,,,,,,,,,,,,,,,,,,,,,,,,,,,,,,,,,,,,,,,,,,,,,,,,,,,,,,,,,,,,,,,,,,,,,,,,,,,,,,,,,,,,,,,,,,,,,,,,,,,,,,,,,,,,,
,,65830c7b2f2eac8713aed876,2024-02-19_04h14.28.658,kallum_motion_pilot,2023.2.2,Win32,60.60606061,65830c7b2f2eac8713aed876,65d2b6c8f2eece985d8e374c,65d2b957021102d092193377,0.031,0.0311,0,12,12,19,1,twofour,,,,,,,,,,,,,,,,,,,,,,,,,,,,,,,,,,,,,,,,,,,,,,,,,,,,,,,,,,,,,,,,,,,,,,,,,,,,,,,,,,,,,,,,,,,,,,,,,,,,,,,,,,,,,,,,,,,,,,,,,,,,,,,,,,,,,,,,,
,,65830c7b2f2eac8713aed876,2024-02-19_04h14.28.658,kallum_motion_pilot,2023.2.2,Win32,60.60606061,65830c7b2f2eac8713aed876,65d2b6c8f2eece985d8e374c,65d2b957021102d092193377,0.0311,0.0311,0,13,13,94,1,eightsix,,,,,,,,,,,,,,,,,,,,,,,,,,,,,,,,,,,,,,,,,,,,,,,,,,,,,,,,,,,,,,,,,,,,,,,,,,,,,,,,,,,,,,,,,,,,,,,,,,,,,,,,,,,,,,,,,,,,,,,,,,,,,,,,,,,,,,,,,
,,65830c7b2f2eac8713aed876,2024-02-19_04h14.28.658,kallum_motion_pilot,2023.2.2,Win32,60.60606061,65830c7b2f2eac8713aed876,65d2b6c8f2eece985d8e374c,65d2b957021102d092193377,0.0312,0.0312,0,14,14,78,1,fourtwo,,,,,,,,,,,,,,,,,,,,,,,,,,,,,,,,,,,,,,,,,,,,,,,,,,,,,,,,,,,,,,,,,,,,,,,,,,,,,,,,,,,,,,,,,,,,,,,,,,,,,,,,,,,,,,,,,,,,,,,,,,,,,,,,,,,,,,,,,
,,65830c7b2f2eac8713aed876,2024-02-19_04h14.28.658,kallum_motion_pilot,2023.2.2,Win32,60.60606061,65830c7b2f2eac8713aed876,65d2b6c8f2eece985d8e374c,65d2b957021102d092193377,0.0313,0.0313,0,15,15,50,1,twoone,,,,,,,,,,,,,,,,,,,,,,,,,,,,,,,,,,,,,,,,,,,,,,,,,,,,,,,,,,,,,,,,,,,,,,,,,,,,,,,,,,,,,,,,,,,,,,,,,,,,,,,,,,,,,,,,,,,,,,,,,,,,,,,,,,,,,,,,,
,,65830c7b2f2eac8713aed876,2024-02-19_04h14.28.658,kallum_motion_pilot,2023.2.2,Win32,60.60606061,65830c7b2f2eac8713aed876,65d2b6c8f2eece985d8e374c,65d2b957021102d092193377,0.0313,0.0313,0,16,16,27,1,twofour,,,,,,,,,,,,,,,,,,,,,,,,,,,,,,,,,,,,,,,,,,,,,,,,,,,,,,,,,,,,,,,,,,,,,,,,,,,,,,,,,,,,,,,,,,,,,,,,,,,,,,,,,,,,,,,,,,,,,,,,,,,,,,,,,,,,,,,,,
,,65830c7b2f2eac8713aed876,2024-02-19_04h14.28.658,kallum_motion_pilot,2023.2.2,Win32,60.60606061,65830c7b2f2eac8713aed876,65d2b6c8f2eece985d8e374c,65d2b957021102d092193377,0.0314,0.0315,0,17,17,76,1,threeone,,,,,,,,,,,,,,,,,,,,,,,,,,,,,,,,,,,,,,,,,,,,,,,,,,,,,,,,,,,,,,,,,,,,,,,,,,,,,,,,,,,,,,,,,,,,,,,,,,,,,,,,,,,,,,,,,,,,,,,,,,,,,,,,,,,,,,,,,
,,65830c7b2f2eac8713aed876,2024-02-19_04h14.28.658,kallum_motion_pilot,2023.2.2,Win32,60.60606061,65830c7b2f2eac8713aed876,65d2b6c8f2eece985d8e374c,65d2b957021102d092193377,0.0316,0.0316,0,18,18,117,1,seveneight,,,,,,,,,,,,,,,,,,,,,,,,,,,,,,,,,,,,,,,,,,,,,,,,,,,,,,,,,,,,,,,,,,,,,,,,,,,,,,,,,,,,,,,,,,,,,,,,,,,,,,,,,,,,,,,,,,,,,,,,,,,,,,,,,,,,,,,,,
,,65830c7b2f2eac8713aed876,2024-02-19_04h14.28.658,kallum_motion_pilot,2023.2.2,Win32,60.60606061,65830c7b2f2eac8713aed876,65d2b6c8f2eece985d8e374c,65d2b957021102d092193377,0.0316,0.0316,0,19,19,22,1,fourtwo,,,,,,,,,,,,,,,,,,,,,,,,,,,,,,,,,,,,,,,,,,,,,,,,,,,,,,,,,,,,,,,,,,,,,,,,,,,,,,,,,,,,,,,,,,,,,,,,,,,,,,,,,,,,,,,,,,,,,,,,,,,,,,,,,,,,,,,,,
,,65830c7b2f2eac8713aed876,2024-02-19_04h14.28.658,kallum_motion_pilot,2023.2.2,Win32,60.60606061,65830c7b2f2eac8713aed876,65d2b6c8f2eece985d8e374c,65d2b957021102d092193377,0.0317,0.0317,0,20,20,79,1,eightseven,,,,,,,,,,,,,,,,,,,,,,,,,,,,,,,,,,,,,,,,,,,,,,,,,,,,,,,,,,,,,,,,,,,,,,,,,,,,,,,,,,,,,,,,,,,,,,,,,,,,,,,,,,,,,,,,,,,,,,,,,,,,,,,,,,,,,,,,,
,,65830c7b2f2eac8713aed876,2024-02-19_04h14.28.658,kallum_motion_pilot,2023.2.2,Win32,60.60606061,65830c7b2f2eac8713aed876,65d2b6c8f2eece985d8e374c,65d2b957021102d092193377,0.0318,0.0318,0,21,21,91,1,sixeight,,,,,,,,,,,,,,,,,,,,,,,,,,,,,,,,,,,,,,,,,,,,,,,,,,,,,,,,,,,,,,,,,,,,,,,,,,,,,,,,,,,,,,,,,,,,,,,,,,,,,,,,,,,,,,,,,,,,,,,,,,,,,,,,,,,,,,,,,
,,65830c7b2f2eac8713aed876,2024-02-19_04h14.28.658,kallum_motion_pilot,2023.2.2,Win32,60.60606061,65830c7b2f2eac8713aed876,65d2b6c8f2eece985d8e374c,65d2b957021102d092193377,0.0319,0.0319,0,22,22,124,1,sevenfive,,,,,,,,,,,,,,,,,,,,,,,,,,,,,,,,,,,,,,,,,,,,,,,,,,,,,,,,,,,,,,,,,,,,,,,,,,,,,,,,,,,,,,,,,,,,,,,,,,,,,,,,,,,,,,,,,,,,,,,,,,,,,,,,,,,,,,,,,
,,65830c7b2f2eac8713aed876,2024-02-19_04h14.28.658,kallum_motion_pilot,2023.2.2,Win32,60.60606061,65830c7b2f2eac8713aed876,65d2b6c8f2eece985d8e374c,65d2b957021102d092193377,0.032,0.032,0,23,23,144,1,fivesix,,,,,,,,,,,,,,,,,,,,,,,,,,,,,,,,,,,,,,,,,,,,,,,,,,,,,,,,,,,,,,,,,,,,,,,,,,,,,,,,,,,,,,,,,,,,,,,,,,,,,,,,,,,,,,,,,,,,,,,,,,,,,,,,,,,,,,,,,
,,65830c7b2f2eac8713aed876,2024-02-19_04h14.28.658,kallum_motion_pilot,2023.2.2,Win32,60.60606061,65830c7b2f2eac8713aed876,65d2b6c8f2eece985d8e374c,65d2b957021102d092193377,0.032,0.0321,0,24,24,6,1,fourtwo,,,,,,,,,,,,,,,,,,,,,,,,,,,,,,,,,,,,,,,,,,,,,,,,,,,,,,,,,,,,,,,,,,,,,,,,,,,,,,,,,,,,,,,,,,,,,,,,,,,,,,,,,,,,,,,,,,,,,,,,,,,,,,,,,,,,,,,,,
,,65830c7b2f2eac8713aed876,2024-02-19_04h14.28.658,kallum_motion_pilot,2023.2.2,Win32,60.60606061,65830c7b2f2eac8713aed876,65d2b6c8f2eece985d8e374c,65d2b957021102d092193377,0.0322,0.0322,0,25,25,29,1,threefour,,,,,,,,,,,,,,,,,,,,,,,,,,,,,,,,,,,,,,,,,,,,,,,,,,,,,,,,,,,,,,,,,,,,,,,,,,,,,,,,,,,,,,,,,,,,,,,,,,,,,,,,,,,,,,,,,,,,,,,,,,,,,,,,,,,,,,,,,
,,65830c7b2f2eac8713aed876,2024-02-19_04h14.28.658,kallum_motion_pilot,2023.2.2,Win32,60.60606061,65830c7b2f2eac8713aed876,65d2b6c8f2eece985d8e374c,65d2b957021102d092193377,0.0322,0.0322,0,26,26,87,1,eightseven,,,,,,,,,,,,,,,,,,,,,,,,,,,,,,,,,,,,,,,,,,,,,,,,,,,,,,,,,,,,,,,,,,,,,,,,,,,,,,,,,,,,,,,,,,,,,,,,,,,,,,,,,,,,,,,,,,,,,,,,,,,,,,,,,,,,,,,,,
,,65830c7b2f2eac8713aed876,2024-02-19_04h14.28.658,kallum_motion_pilot,2023.2.2,Win32,60.60606061,65830c7b2f2eac8713aed876,65d2b6c8f2eece985d8e374c,65d2b957021102d092193377,0.0323,0.0324,0,27,27,156,1,sevenfive,,,,,,,,,,,,,,,,,,,,,,,,,,,,,,,,,,,,,,,,,,,,,,,,,,,,,,,,,,,,,,,,,,,,,,,,,,,,,,,,,,,,,,,,,,,,,,,,,,,,,,,,,,,,,,,,,,,,,,,,,,,,,,,,,,,,,,,,,
,,65830c7b2f2eac8713aed876,2024-02-19_04h14.28.658,kallum_motion_pilot,2023.2.2,Win32,60.60606061,65830c7b2f2eac8713aed876,65d2b6c8f2eece985d8e374c,65d2b957021102d092193377,0.0324,0.0324,0,28,28,81,1,fiveseven,,,,,,,,,,,,,,,,,,,,,,,,,,,,,,,,,,,,,,,,,,,,,,,,,,,,,,,,,,,,,,,,,,,,,,,,,,,,,,,,,,,,,,,,,,,,,,,,,,,,,,,,,,,,,,,,,,,,,,,,,,,,,,,,,,,,,,,,,
,,65830c7b2f2eac8713aed876,2024-02-19_04h14.28.658,kallum_motion_pilot,2023.2.2,Win32,60.60606061,65830c7b2f2eac8713aed876,65d2b6c8f2eece985d8e374c,65d2b957021102d092193377,0.0325,0.0325,0,29,29,1,1,onethree,,,,,,,,,,,,,,,,,,,,,,,,,,,,,,,,,,,,,,,,,,,,,,,,,,,,,,,,,,,,,,,,,,,,,,,,,,,,,,,,,,,,,,,,,,,,,,,,,,,,,,,,,,,,,,,,,,,,,,,,,,,,,,,,,,,,,,,,,
,,65830c7b2f2eac8713aed876,2024-02-19_04h14.28.658,kallum_motion_pilot,2023.2.2,Win32,60.60606061,65830c7b2f2eac8713aed876,65d2b6c8f2eece985d8e374c,65d2b957021102d092193377,0.0326,0.0326,0,30,30,133,1,seveneight,,,,,,,,,,,,,,,,,,,,,,,,,,,,,,,,,,,,,,,,,,,,,,,,,,,,,,,,,,,,,,,,,,,,,,,,,,,,,,,,,,,,,,,,,,,,,,,,,,,,,,,,,,,,,,,,,,,,,,,,,,,,,,,,,,,,,,,,,
,,65830c7b2f2eac8713aed876,2024-02-19_04h14.28.658,kallum_motion_pilot,2023.2.2,Win32,60.60606061,65830c7b2f2eac8713aed876,65d2b6c8f2eece985d8e374c,65d2b957021102d092193377,0.0326,0.0326,0,31,31,20,1,threeone,,,,,,,,,,,,,,,,,,,,,,,,,,,,,,,,,,,,,,,,,,,,,,,,,,,,,,,,,,,,,,,,,,,,,,,,,,,,,,,,,,,,,,,,,,,,,,,,,,,,,,,,,,,,,,,,,,,,,,,,,,,,,,,,,,,,,,,,,
,,65830c7b2f2eac8713aed876,2024-02-19_04h14.28.658,kallum_motion_pilot,2023.2.2,Win32,60.60606061,65830c7b2f2eac8713aed876,65d2b6c8f2eece985d8e374c,65d2b957021102d092193377,0.0328,0.0328,0,32,32,82,1,sixfive,,,,,,,,,,,,,,,,,,,,,,,,,,,,,,,,,,,,,,,,,,,,,,,,,,,,,,,,,,,,,,,,,,,,,,,,,,,,,,,,,,,,,,,,,,,,,,,,,,,,,,,,,,,,,,,,,,,,,,,,,,,,,,,,,,,,,,,,,
,,65830c7b2f2eac8713aed876,2024-02-19_04h14.28.658,kallum_motion_pilot,2023.2.2,Win32,60.60606061,65830c7b2f2eac8713aed876,65d2b6c8f2eece985d8e374c,65d2b957021102d092193377,0.0328,0.0329,0,33,33,130,1,sixfive,,,,,,,,,,,,,,,,,,,,,,,,,,,,,,,,,,,,,,,,,,,,,,,,,,,,,,,,,,,,,,,,,,,,,,,,,,,,,,,,,,,,,,,,,,,,,,,,,,,,,,,,,,,,,,,,,,,,,,,,,,,,,,,,,,,,,,,,,
,,65830c7b2f2eac8713aed876,2024-02-19_04h14.28.658,kallum_motion_pilot,2023.2.2,Win32,60.60606061,65830c7b2f2eac8713aed876,65d2b6c8f2eece985d8e374c,65d2b957021102d092193377,0.0329,0.0329,0,34,34,36,1,threeone,,,,,,,,,,,,,,,,,,,,,,,,,,,,,,,,,,,,,,,,,,,,,,,,,,,,,,,,,,,,,,,,,,,,,,,,,,,,,,,,,,,,,,,,,,,,,,,,,,,,,,,,,,,,,,,,,,,,,,,,,,,,,,,,,,,,,,,,,
,,65830c7b2f2eac8713aed876,2024-02-19_04h14.28.658,kallum_motion_pilot,2023.2.2,Win32,60.60606061,65830c7b2f2eac8713aed876,65d2b6c8f2eece985d8e374c,65d2b957021102d092193377,0.0329,0.033,0,35,35,131,1,sixeight,,,,,,,,,,,,,,,,,,,,,,,,,,,,,,,,,,,,,,,,,,,,,,,,,,,,,,,,,,,,,,,,,,,,,,,,,,,,,,,,,,,,,,,,,,,,,,,,,,,,,,,,,,,,,,,,,,,,,,,,,,,,,,,,,,,,,,,,,
,,65830c7b2f2eac8713aed876,2024-02-19_04h14.28.658,kallum_motion_pilot,2023.2.2,Win32,60.60606061,65830c7b2f2eac8713aed876,65d2b6c8f2eece985d8e374c,65d2b957021102d092193377,0.033,0.033,0,36,36,30,1,fourtwo,,,,,,,,,,,,,,,,,,,,,,,,,,,,,,,,,,,,,,,,,,,,,,,,,,,,,,,,,,,,,,,,,,,,,,,,,,,,,,,,,,,,,,,,,,,,,,,,,,,,,,,,,,,,,,,,,,,,,,,,,,,,,,,,,,,,,,,,,
,,65830c7b2f2eac8713aed876,2024-02-19_04h14.28.658,kallum_motion_pilot,2023.2.2,Win32,60.60606061,65830c7b2f2eac8713aed876,65d2b6c8f2eece985d8e374c,65d2b957021102d092193377,0.0331,0.0331,0,37,37,64,1,onetwo,,,,,,,,,,,,,,,,,,,,,,,,,,,,,,,,,,,,,,,,,,,,,,,,,,,,,,,,,,,,,,,,,,,,,,,,,,,,,,,,,,,,,,,,,,,,,,,,,,,,,,,,,,,,,,,,,,,,,,,,,,,,,,,,,,,,,,,,,
,,65830c7b2f2eac8713aed876,2024-02-19_04h14.28.658,kallum_motion_pilot,2023.2.2,Win32,60.60606061,65830c7b2f2eac8713aed876,65d2b6c8f2eece985d8e374c,65d2b957021102d092193377,0.0332,0.0332,0,38,38,88,1,fivesix,,,,,,,,,,,,,,,,,,,,,,,,,,,,,,,,,,,,,,,,,,,,,,,,,,,,,,,,,,,,,,,,,,,,,,,,,,,,,,,,,,,,,,,,,,,,,,,,,,,,,,,,,,,,,,,,,,,,,,,,,,,,,,,,,,,,,,,,,
,,65830c7b2f2eac8713aed876,2024-02-19_04h14.28.658,kallum_motion_pilot,2023.2.2,Win32,60.60606061,65830c7b2f2eac8713aed876,65d2b6c8f2eece985d8e374c,65d2b957021102d092193377,0.0332,0.0333,0,39,39,4,1,threeone,,,,,,,,,,,,,,,,,,,,,,,,,,,,,,,,,,,,,,,,,,,,,,,,,,,,,,,,,,,,,,,,,,,,,,,,,,,,,,,,,,,,,,,,,,,,,,,,,,,,,,,,,,,,,,,,,,,,,,,,,,,,,,,,,,,,,,,,,
,,65830c7b2f2eac8713aed876,2024-02-19_04h14.28.658,kallum_motion_pilot,2023.2.2,Win32,60.60606061,65830c7b2f2eac8713aed876,65d2b6c8f2eece985d8e374c,65d2b957021102d092193377,0.0333,0.0334,0,40,40,58,1,twoone,,,,,,,,,,,,,,,,,,,,,,,,,,,,,,,,,,,,,,,,,,,,,,,,,,,,,,,,,,,,,,,,,,,,,,,,,,,,,,,,,,,,,,,,,,,,,,,,,,,,,,,,,,,,,,,,,,,,,,,,,,,,,,,,,,,,,,,,,
,,65830c7b2f2eac8713aed876,2024-02-19_04h14.28.658,kallum_motion_pilot,2023.2.2,Win32,60.60606061,65830c7b2f2eac8713aed876,65d2b6c8f2eece985d8e374c,65d2b957021102d092193377,0.0334,0.0334,0,41,41,92,1,sevenfive,,,,,,,,,,,,,,,,,,,,,,,,,,,,,,,,,,,,,,,,,,,,,,,,,,,,,,,,,,,,,,,,,,,,,,,,,,,,,,,,,,,,,,,,,,,,,,,,,,,,,,,,,,,,,,,,,,,,,,,,,,,,,,,,,,,,,,,,,
,,65830c7b2f2eac8713aed876,2024-02-19_04h14.28.658,kallum_motion_pilot,2023.2.2,Win32,60.60606061,65830c7b2f2eac8713aed876,65d2b6c8f2eece985d8e374c,65d2b957021102d092193377,0.0335,0.0335,0,42,42,137,1,fiveseven,,,,,,,,,,,,,,,,,,,,,,,,,,,,,,,,,,,,,,,,,,,,,,,,,,,,,,,,,,,,,,,,,,,,,,,,,,,,,,,,,,,,,,,,,,,,,,,,,,,,,,,,,,,,,,,,,,,,,,,,,,,,,,,,,,,,,,,,,
,,65830c7b2f2eac8713aed876,2024-02-19_04h14.28.658,kallum_motion_pilot,2023.2.2,Win32,60.60606061,65830c7b2f2eac8713aed876,65d2b6c8f2eece985d8e374c,65d2b957021102d092193377,0.0336,0.0337,0,43,43,63,1,fourthree,,,,,,,,,,,,,,,,,,,,,,,,,,,,,,,,,,,,,,,,,,,,,,,,,,,,,,,,,,,,,,,,,,,,,,,,,,,,,,,,,,,,,,,,,,,,,,,,,,,,,,,,,,,,,,,,,,,,,,,,,,,,,,,,,,,,,,,,,
,,65830c7b2f2eac8713aed876,2024-02-19_04h14.28.658,kallum_motion_pilot,2023.2.2,Win32,60.60606061,65830c7b2f2eac8713aed876,65d2b6c8f2eece985d8e374c,65d2b957021102d092193377,0.0337,0.0337,0,44,44,16,1,onetwo,,,,,,,,,,,,,,,,,,,,,,,,,,,,,,,,,,,,,,,,,,,,,,,,,,,,,,,,,,,,,,,,,,,,,,,,,,,,,,,,,,,,,,,,,,,,,,,,,,,,,,,,,,,,,,,,,,,,,,,,,,,,,,,,,,,,,,,,,
,,65830c7b2f2eac8713aed876,2024-02-19_04h14.28.658,kallum_motion_pilot,2023.2.2,Win32,60.60606061,65830c7b2f2eac8713aed876,65d2b6c8f2eece985d8e374c,65d2b957021102d092193377,0.0337,0.0337,0,45,45,135,1,eightseven,,,,,,,,,,,,,,,,,,,,,,,,,,,,,,,,,,,,,,,,,,,,,,,,,,,,,,,,,,,,,,,,,,,,,,,,,,,,,,,,,,,,,,,,,,,,,,,,,,,,,,,,,,,,,,,,,,,,,,,,,,,,,,,,,,,,,,,,,
,,65830c7b2f2eac8713aed876,2024-02-19_04h14.28.658,kallum_motion_pilot,2023.2.2,Win32,60.60606061,65830c7b2f2eac8713aed876,65d2b6c8f2eece985d8e374c,65d2b957021102d092193377,0.0339,0.0339,0,46,46,44,1,threeone,,,,,,,,,,,,,,,,,,,,,,,,,,,,,,,,,,,,,,,,,,,,,,,,,,,,,,,,,,,,,,,,,,,,,,,,,,,,,,,,,,,,,,,,,,,,,,,,,,,,,,,,,,,,,,,,,,,,,,,,,,,,,,,,,,,,,,,,,
,,65830c7b2f2eac8713aed876,2024-02-19_04h14.28.658,kallum_motion_pilot,2023.2.2,Win32,60.60606061,65830c7b2f2eac8713aed876,65d2b6c8f2eece985d8e374c,65d2b957021102d092193377,0.0339,0.0339,0,47,47,110,1,eightsix,,,,,,,,,,,,,,,,,,,,,,,,,,,,,,,,,,,,,,,,,,,,,,,,,,,,,,,,,,,,,,,,,,,,,,,,,,,,,,,,,,,,,,,,,,,,,,,,,,,,,,,,,,,,,,,,,,,,,,,,,,,,,,,,,,,,,,,,,
,,65830c7b2f2eac8713aed876,2024-02-19_04h14.28.658,kallum_motion_pilot,2023.2.2,Win32,60.60606061,65830c7b2f2eac8713aed876,65d2b6c8f2eece985d8e374c,65d2b957021102d092193377,0.034,0.034,0,48,48,116,1,sevenfive,,,,,,,,,,,,,,,,,,,,,,,,,,,,,,,,,,,,,,,,,,,,,,,,,,,,,,,,,,,,,,,,,,,,,,,,,,,,,,,,,,,,,,,,,,,,,,,,,,,,,,,,,,,,,,,,,,,,,,,,,,,,,,,,,,,,,,,,,
,,65830c7b2f2eac8713aed876,2024-02-19_04h14.28.658,kallum_motion_pilot,2023.2.2,Win32,60.60606061,65830c7b2f2eac8713aed876,65d2b6c8f2eece985d8e374c,65d2b957021102d092193377,0.0341,0.0342,0,49,49,49,1,onethree,,,,,,,,,,,,,,,,,,,,,,,,,,,,,,,,,,,,,,,,,,,,,,,,,,,,,,,,,,,,,,,,,,,,,,,,,,,,,,,,,,,,,,,,,,,,,,,,,,,,,,,,,,,,,,,,,,,,,,,,,,,,,,,,,,,,,,,,,
,,65830c7b2f2eac8713aed876,2024-02-19_04h14.28.658,kallum_motion_pilot,2023.2.2,Win32,60.60606061,65830c7b2f2eac8713aed876,65d2b6c8f2eece985d8e374c,65d2b957021102d092193377,0.0342,0.0342,0,50,50,46,1,fourtwo,,,,,,,,,,,,,,,,,,,,,,,,,,,,,,,,,,,,,,,,,,,,,,,,,,,,,,,,,,,,,,,,,,,,,,,,,,,,,,,,,,,,,,,,,,,,,,,,,,,,,,,,,,,,,,,,,,,,,,,,,,,,,,,,,,,,,,,,,
,,65830c7b2f2eac8713aed876,2024-02-19_04h14.28.658,kallum_motion_pilot,2023.2.2,Win32,60.60606061,65830c7b2f2eac8713aed876,65d2b6c8f2eece985d8e374c,65d2b957021102d092193377,0.0342,0.0342,0,51,51,102,1,eightsix,,,,,,,,,,,,,,,,,,,,,,,,,,,,,,,,,,,,,,,,,,,,,,,,,,,,,,,,,,,,,,,,,,,,,,,,,,,,,,,,,,,,,,,,,,,,,,,,,,,,,,,,,,,,,,,,,,,,,,,,,,,,,,,,,,,,,,,,,
,,65830c7b2f2eac8713aed876,2024-02-19_04h14.28.658,kallum_motion_pilot,2023.2.2,Win32,60.60606061,65830c7b2f2eac8713aed876,65d2b6c8f2eece985d8e374c,65d2b957021102d092193377,0.0344,0.0344,0,52,52,100,1,sevenfive,,,,,,,,,,,,,,,,,,,,,,,,,,,,,,,,,,,,,,,,,,,,,,,,,,,,,,,,,,,,,,,,,,,,,,,,,,,,,,,,,,,,,,,,,,,,,,,,,,,,,,,,,,,,,,,,,,,,,,,,,,,,,,,,,,,,,,,,,
,,65830c7b2f2eac8713aed876,2024-02-19_04h14.28.658,kallum_motion_pilot,2023.2.2,Win32,60.60606061,65830c7b2f2eac8713aed876,65d2b6c8f2eece985d8e374c,65d2b957021102d092193377,0.0344,0.0344,0,53,53,112,1,fivesix,,,,,,,,,,,,,,,,,,,,,,,,,,,,,,,,,,,,,,,,,,,,,,,,,,,,,,,,,,,,,,,,,,,,,,,,,,,,,,,,,,,,,,,,,,,,,,,,,,,,,,,,,,,,,,,,,,,,,,,,,,,,,,,,,,,,,,,,,
,,65830c7b2f2eac8713aed876,2024-02-19_04h14.28.658,kallum_motion_pilot,2023.2.2,Win32,60.60606061,65830c7b2f2eac8713aed876,65d2b6c8f2eece985d8e374c,65d2b957021102d092193377,0.0346,0.0346,0,54,54,86,1,eightsix,,,,,,,,,,,,,,,,,,,,,,,,,,,,,,,,,,,,,,,,,,,,,,,,,,,,,,,,,,,,,,,,,,,,,,,,,,,,,,,,,,,,,,,,,,,,,,,,,,,,,,,,,,,,,,,,,,,,,,,,,,,,,,,,,,,,,,,,,
,,65830c7b2f2eac8713aed876,2024-02-19_04h14.28.658,kallum_motion_pilot,2023.2.2,Win32,60.60606061,65830c7b2f2eac8713aed876,65d2b6c8f2eece985d8e374c,65d2b957021102d092193377,0.0346,0.0346,0,55,55,122,1,sixfive,,,,,,,,,,,,,,,,,,,,,,,,,,,,,,,,,,,,,,,,,,,,,,,,,,,,,,,,,,,,,,,,,,,,,,,,,,,,,,,,,,,,,,,,,,,,,,,,,,,,,,,,,,,,,,,,,,,,,,,,,,,,,,,,,,,,,,,,,
,,65830c7b2f2eac8713aed876,2024-02-19_04h14.28.658,kallum_motion_pilot,2023.2.2,Win32,60.60606061,65830c7b2f2eac8713aed876,65d2b6c8f2eece985d8e374c,65d2b957021102d092193377,0.0347,0.0347,0,56,56,149,1,seveneight,,,,,,,,,,,,,,,,,,,,,,,,,,,,,,,,,,,,,,,,,,,,,,,,,,,,,,,,,,,,,,,,,,,,,,,,,,,,,,,,,,,,,,,,,,,,,,,,,,,,,,,,,,,,,,,,,,,,,,,,,,,,,,,,,,,,,,,,,
,,65830c7b2f2eac8713aed876,2024-02-19_04h14.28.658,kallum_motion_pilot,2023.2.2,Win32,60.60606061,65830c7b2f2eac8713aed876,65d2b6c8f2eece985d8e374c,65d2b957021102d092193377,0.0348,0.0348,0,57,57,62,1,fourtwo,,,,,,,,,,,,,,,,,,,,,,,,,,,,,,,,,,,,,,,,,,,,,,,,,,,,,,,,,,,,,,,,,,,,,,,,,,,,,,,,,,,,,,,,,,,,,,,,,,,,,,,,,,,,,,,,,,,,,,,,,,,,,,,,,,,,,,,,,
,,65830c7b2f2eac8713aed876,2024-02-19_04h14.28.658,kallum_motion_pilot,2023.2.2,Win32,60.60606061,65830c7b2f2eac8713aed876,65d2b6c8f2eece985d8e374c,65d2b957021102d092193377,0.0348,0.0349,0,58,58,67,1,twofour,,,,,,,,,,,,,,,,,,,,,,,,,,,,,,,,,,,,,,,,,,,,,,,,,,,,,,,,,,,,,,,,,,,,,,,,,,,,,,,,,,,,,,,,,,,,,,,,,,,,,,,,,,,,,,,,,,,,,,,,,,,,,,,,,,,,,,,,,
,,65830c7b2f2eac8713aed876,2024-02-19_04h14.28.658,kallum_motion_pilot,2023.2.2,Win32,60.60606061,65830c7b2f2eac8713aed876,65d2b6c8f2eece985d8e374c,65d2b957021102d092193377,0.0349,0.0349,0,59,59,109,1,seveneight,,,,,,,,,,,,,,,,,,,,,,,,,,,,,,,,,,,,,,,,,,,,,,,,,,,,,,,,,,,,,,,,,,,,,,,,,,,,,,,,,,,,,,,,,,,,,,,,,,,,,,,,,,,,,,,,,,,,,,,,,,,,,,,,,,,,,,,,,
,,65830c7b2f2eac8713aed876,2024-02-19_04h14.28.658,kallum_motion_pilot,2023.2.2,Win32,60.60606061,65830c7b2f2eac8713aed876,65d2b6c8f2eece985d8e374c,65d2b957021102d092193377,0.035,0.035,0,60,60,126,1,eightsix,,,,,,,,,,,,,,,,,,,,,,,,,,,,,,,,,,,,,,,,,,,,,,,,,,,,,,,,,,,,,,,,,,,,,,,,,,,,,,,,,,,,,,,,,,,,,,,,,,,,,,,,,,,,,,,,,,,,,,,,,,,,,,,,,,,,,,,,,
,,65830c7b2f2eac8713aed876,2024-02-19_04h14.28.658,kallum_motion_pilot,2023.2.2,Win32,60.60606061,65830c7b2f2eac8713aed876,65d2b6c8f2eece985d8e374c,65d2b957021102d092193377,0.0351,0.0351,0,61,61,147,1,sixeight,,,,,,,,,,,,,,,,,,,,,,,,,,,,,,,,,,,,,,,,,,,,,,,,,,,,,,,,,,,,,,,,,,,,,,,,,,,,,,,,,,,,,,,,,,,,,,,,,,,,,,,,,,,,,,,,,,,,,,,,,,,,,,,,,,,,,,,,,
,,65830c7b2f2eac8713aed876,2024-02-19_04h14.28.658,kallum_motion_pilot,2023.2.2,Win32,60.60606061,65830c7b2f2eac8713aed876,65d2b6c8f2eece985d8e374c,65d2b957021102d092193377,0.0352,0.0353,0,62,62,25,1,onethree,,,,,,,,,,,,,,,,,,,,,,,,,,,,,,,,,,,,,,,,,,,,,,,,,,,,,,,,,,,,,,,,,,,,,,,,,,,,,,,,,,,,,,,,,,,,,,,,,,,,,,,,,,,,,,,,,,,,,,,,,,,,,,,,,,,,,,,,,
,,65830c7b2f2eac8713aed876,2024-02-19_04h14.28.658,kallum_motion_pilot,2023.2.2,Win32,60.60606061,65830c7b2f2eac8713aed876,65d2b6c8f2eece985d8e374c,65d2b957021102d092193377,0.0353,0.0354,0,63,63,123,1,sixeight,,,,,,,,,,,,,,,,,,,,,,,,,,,,,,,,,,,,,,,,,,,,,,,,,,,,,,,,,,,,,,,,,,,,,,,,,,,,,,,,,,,,,,,,,,,,,,,,,,,,,,,,,,,,,,,,,,,,,,,,,,,,,,,,,,,,,,,,,
,,65830c7b2f2eac8713aed876,2024-02-19_04h14.28.658,kallum_motion_pilot,2023.2.2,Win32,60.60606061,65830c7b2f2eac8713aed876,65d2b6c8f2eece985d8e374c,65d2b957021102d092193377,0.0356,0.0356,0,64,64,159,1,eightseven,,,,,,,,,,,,,,,,,,,,,,,,,,,,,,,,,,,,,,,,,,,,,,,,,,,,,,,,,,,,,,,,,,,,,,,,,,,,,,,,,,,,,,,,,,,,,,,,,,,,,,,,,,,,,,,,,,,,,,,,,,,,,,,,,,,,,,,,,
,,65830c7b2f2eac8713aed876,2024-02-19_04h14.28.658,kallum_motion_pilot,2023.2.2,Win32,60.60606061,65830c7b2f2eac8713aed876,65d2b6c8f2eece985d8e374c,65d2b957021102d092193377,0.0358,0.0358,0,65,65,155,1,sixeight,,,,,,,,,,,,,,,,,,,,,,,,,,,,,,,,,,,,,,,,,,,,,,,,,,,,,,,,,,,,,,,,,,,,,,,,,,,,,,,,,,,,,,,,,,,,,,,,,,,,,,,,,,,,,,,,,,,,,,,,,,,,,,,,,,,,,,,,,
,,65830c7b2f2eac8713aed876,2024-02-19_04h14.28.658,kallum_motion_pilot,2023.2.2,Win32,60.60606061,65830c7b2f2eac8713aed876,65d2b6c8f2eece985d8e374c,65d2b957021102d092193377,0.0359,0.0359,0,66,66,17,1,onethree,,,,,,,,,,,,,,,,,,,,,,,,,,,,,,,,,,,,,,,,,,,,,,,,,,,,,,,,,,,,,,,,,,,,,,,,,,,,,,,,,,,,,,,,,,,,,,,,,,,,,,,,,,,,,,,,,,,,,,,,,,,,,,,,,,,,,,,,,
,,65830c7b2f2eac8713aed876,2024-02-19_04h14.28.658,kallum_motion_pilot,2023.2.2,Win32,60.60606061,65830c7b2f2eac8713aed876,65d2b6c8f2eece985d8e374c,65d2b957021102d092193377,0.036,0.036,0,67,67,111,1,eightseven,,,,,,,,,,,,,,,,,,,,,,,,,,,,,,,,,,,,,,,,,,,,,,,,,,,,,,,,,,,,,,,,,,,,,,,,,,,,,,,,,,,,,,,,,,,,,,,,,,,,,,,,,,,,,,,,,,,,,,,,,,,,,,,,,,,,,,,,,
,,65830c7b2f2eac8713aed876,2024-02-19_04h14.28.658,kallum_motion_pilot,2023.2.2,Win32,60.60606061,65830c7b2f2eac8713aed876,65d2b6c8f2eece985d8e374c,65d2b957021102d092193377,0.0362,0.0362,0,68,68,153,1,fiveseven,,,,,,,,,,,,,,,,,,,,,,,,,,,,,,,,,,,,,,,,,,,,,,,,,,,,,,,,,,,,,,,,,,,,,,,,,,,,,,,,,,,,,,,,,,,,,,,,,,,,,,,,,,,,,,,,,,,,,,,,,,,,,,,,,,,,,,,,,
,,65830c7b2f2eac8713aed876,2024-02-19_04h14.28.658,kallum_motion_pilot,2023.2.2,Win32,60.60606061,65830c7b2f2eac8713aed876,65d2b6c8f2eece985d8e374c,65d2b957021102d092193377,0.0363,0.0363,0,69,69,0,1,onetwo,,,,,,,,,,,,,,,,,,,,,,,,,,,,,,,,,,,,,,,,,,,,,,,,,,,,,,,,,,,,,,,,,,,,,,,,,,,,,,,,,,,,,,,,,,,,,,,,,,,,,,,,,,,,,,,,,,,,,,,,,,,,,,,,,,,,,,,,,
,,65830c7b2f2eac8713aed876,2024-02-19_04h14.28.658,kallum_motion_pilot,2023.2.2,Win32,60.60606061,65830c7b2f2eac8713aed876,65d2b6c8f2eece985d8e374c,65d2b957021102d092193377,0.0364,0.0364,0,70,70,148,1,sevenfive,,,,,,,,,,,,,,,,,,,,,,,,,,,,,,,,,,,,,,,,,,,,,,,,,,,,,,,,,,,,,,,,,,,,,,,,,,,,,,,,,,,,,,,,,,,,,,,,,,,,,,,,,,,,,,,,,,,,,,,,,,,,,,,,,,,,,,,,,
,,65830c7b2f2eac8713aed876,2024-02-19_04h14.28.658,kallum_motion_pilot,2023.2.2,Win32,60.60606061,65830c7b2f2eac8713aed876,65d2b6c8f2eece985d8e374c,65d2b957021102d092193377,0.0364,0.0365,0,71,71,2,1,twoone,,,,,,,,,,,,,,,,,,,,,,,,,,,,,,,,,,,,,,,,,,,,,,,,,,,,,,,,,,,,,,,,,,,,,,,,,,,,,,,,,,,,,,,,,,,,,,,,,,,,,,,,,,,,,,,,,,,,,,,,,,,,,,,,,,,,,,,,,
,,65830c7b2f2eac8713aed876,2024-02-19_04h14.28.658,kallum_motion_pilot,2023.2.2,Win32,60.60606061,65830c7b2f2eac8713aed876,65d2b6c8f2eece985d8e374c,65d2b957021102d092193377,0.0366,0.0366,0,72,72,43,1,twofour,,,,,,,,,,,,,,,,,,,,,,,,,,,,,,,,,,,,,,,,,,,,,,,,,,,,,,,,,,,,,,,,,,,,,,,,,,,,,,,,,,,,,,,,,,,,,,,,,,,,,,,,,,,,,,,,,,,,,,,,,,,,,,,,,,,,,,,,,
,,65830c7b2f2eac8713aed876,2024-02-19_04h14.28.658,kallum_motion_pilot,2023.2.2,Win32,60.60606061,65830c7b2f2eac8713aed876,65d2b6c8f2eece985d8e374c,65d2b957021102d092193377,0.0366,0.0367,0,73,73,115,1,sixeight,,,,,,,,,,,,,,,,,,,,,,,,,,,,,,,,,,,,,,,,,,,,,,,,,,,,,,,,,,,,,,,,,,,,,,,,,,,,,,,,,,,,,,,,,,,,,,,,,,,,,,,,,,,,,,,,,,,,,,,,,,,,,,,,,,,,,,,,,
,,65830c7b2f2eac8713aed876,2024-02-19_04h14.28.658,kallum_motion_pilot,2023.2.2,Win32,60.60606061,65830c7b2f2eac8713aed876,65d2b6c8f2eece985d8e374c,65d2b957021102d092193377,0.0368,0.0368,0,74,74,18,1,twoone,,,,,,,,,,,,,,,,,,,,,,,,,,,,,,,,,,,,,,,,,,,,,,,,,,,,,,,,,,,,,,,,,,,,,,,,,,,,,,,,,,,,,,,,,,,,,,,,,,,,,,,,,,,,,,,,,,,,,,,,,,,,,,,,,,,,,,,,,
,,65830c7b2f2eac8713aed876,2024-02-19_04h14.28.658,kallum_motion_pilot,2023.2.2,Win32,60.60606061,65830c7b2f2eac8713aed876,65d2b6c8f2eece985d8e374c,65d2b957021102d092193377,0.0369,0.037,0,75,75,15,1,fourthree,,,,,,,,,,,,,,,,,,,,,,,,,,,,,,,,,,,,,,,,,,,,,,,,,,,,,,,,,,,,,,,,,,,,,,,,,,,,,,,,,,,,,,,,,,,,,,,,,,,,,,,,,,,,,,,,,,,,,,,,,,,,,,,,,,,,,,,,,
,,65830c7b2f2eac8713aed876,2024-02-19_04h14.28.658,kallum_motion_pilot,2023.2.2,Win32,60.60606061,65830c7b2f2eac8713aed876,65d2b6c8f2eece985d8e374c,65d2b957021102d092193377,0.0371,0.0371,0,76,76,161,1,fiveseven,,,,,,,,,,,,,,,,,,,,,,,,,,,,,,,,,,,,,,,,,,,,,,,,,,,,,,,,,,,,,,,,,,,,,,,,,,,,,,,,,,,,,,,,,,,,,,,,,,,,,,,,,,,,,,,,,,,,,,,,,,,,,,,,,,,,,,,,,
,,65830c7b2f2eac8713aed876,2024-02-19_04h14.28.658,kallum_motion_pilot,2023.2.2,Win32,60.60606061,65830c7b2f2eac8713aed876,65d2b6c8f2eece985d8e374c,65d2b957021102d092193377,0.0372,0.0372,0,77,77,21,1,threefour,,,,,,,,,,,,,,,,,,,,,,,,,,,,,,,,,,,,,,,,,,,,,,,,,,,,,,,,,,,,,,,,,,,,,,,,,,,,,,,,,,,,,,,,,,,,,,,,,,,,,,,,,,,,,,,,,,,,,,,,,,,,,,,,,,,,,,,,,
,,65830c7b2f2eac8713aed876,2024-02-19_04h14.28.658,kallum_motion_pilot,2023.2.2,Win32,60.60606061,65830c7b2f2eac8713aed876,65d2b6c8f2eece985d8e374c,65d2b957021102d092193377,0.0373,0.0374,0,78,78,95,1,eightseven,,,,,,,,,,,,,,,,,,,,,,,,,,,,,,,,,,,,,,,,,,,,,,,,,,,,,,,,,,,,,,,,,,,,,,,,,,,,,,,,,,,,,,,,,,,,,,,,,,,,,,,,,,,,,,,,,,,,,,,,,,,,,,,,,,,,,,,,,
,,65830c7b2f2eac8713aed876,2024-02-19_04h14.28.658,kallum_motion_pilot,2023.2.2,Win32,60.60606061,65830c7b2f2eac8713aed876,65d2b6c8f2eece985d8e374c,65d2b957021102d092193377,0.0374,0.0375,0,79,79,32,1,onetwo,,,,,,,,,,,,,,,,,,,,,,,,,,,,,,,,,,,,,,,,,,,,,,,,,,,,,,,,,,,,,,,,,,,,,,,,,,,,,,,,,,,,,,,,,,,,,,,,,,,,,,,,,,,,,,,,,,,,,,,,,,,,,,,,,,,,,,,,,
,,65830c7b2f2eac8713aed876,2024-02-19_04h14.28.658,kallum_motion_pilot,2023.2.2,Win32,60.60606061,65830c7b2f2eac8713aed876,65d2b6c8f2eece985d8e374c,65d2b957021102d092193377,0.0376,0.0376,0,80,80,47,1,fourthree,,,,,,,,,,,,,,,,,,,,,,,,,,,,,,,,,,,,,,,,,,,,,,,,,,,,,,,,,,,,,,,,,,,,,,,,,,,,,,,,,,,,,,,,,,,,,,,,,,,,,,,,,,,,,,,,,,,,,,,,,,,,,,,,,,,,,,,,,
,,65830c7b2f2eac8713aed876,2024-02-19_04h14.28.658,kallum_motion_pilot,2023.2.2,Win32,60.60606061,65830c7b2f2eac8713aed876,65d2b6c8f2eece985d8e374c,65d2b957021102d092193377,0.0376,0.0376,0,81,81,42,1,twoone,,,,,,,,,,,,,,,,,,,,,,,,,,,,,,,,,,,,,,,,,,,,,,,,,,,,,,,,,,,,,,,,,,,,,,,,,,,,,,,,,,,,,,,,,,,,,,,,,,,,,,,,,,,,,,,,,,,,,,,,,,,,,,,,,,,,,,,,,
,,65830c7b2f2eac8713aed876,2024-02-19_04h14.28.658,kallum_motion_pilot,2023.2.2,Win32,60.60606061,65830c7b2f2eac8713aed876,65d2b6c8f2eece985d8e374c,65d2b957021102d092193377,0.0377,0.0377,0,82,82,132,1,sevenfive,,,,,,,,,,,,,,,,,,,,,,,,,,,,,,,,,,,,,,,,,,,,,,,,,,,,,,,,,,,,,,,,,,,,,,,,,,,,,,,,,,,,,,,,,,,,,,,,,,,,,,,,,,,,,,,,,,,,,,,,,,,,,,,,,,,,,,,,,
,,65830c7b2f2eac8713aed876,2024-02-19_04h14.28.658,kallum_motion_pilot,2023.2.2,Win32,60.60606061,65830c7b2f2eac8713aed876,65d2b6c8f2eece985d8e374c,65d2b957021102d092193377,0.0378,0.0379,0,83,83,53,1,threefour,,,,,,,,,,,,,,,,,,,,,,,,,,,,,,,,,,,,,,,,,,,,,,,,,,,,,,,,,,,,,,,,,,,,,,,,,,,,,,,,,,,,,,,,,,,,,,,,,,,,,,,,,,,,,,,,,,,,,,,,,,,,,,,,,,,,,,,,,
,,65830c7b2f2eac8713aed876,2024-02-19_04h14.28.658,kallum_motion_pilot,2023.2.2,Win32,60.60606061,65830c7b2f2eac8713aed876,65d2b6c8f2eece985d8e374c,65d2b957021102d092193377,0.0379,0.0379,0,84,84,105,1,fiveseven,,,,,,,,,,,,,,,,,,,,,,,,,,,,,,,,,,,,,,,,,,,,,,,,,,,,,,,,,,,,,,,,,,,,,,,,,,,,,,,,,,,,,,,,,,,,,,,,,,,,,,,,,,,,,,,,,,,,,,,,,,,,,,,,,,,,,,,,,
,,65830c7b2f2eac8713aed876,2024-02-19_04h14.28.658,kallum_motion_pilot,2023.2.2,Win32,60.60606061,65830c7b2f2eac8713aed876,65d2b6c8f2eece985d8e374c,65d2b957021102d092193377,0.038,0.0381,0,85,85,136,1,fivesix,,,,,,,,,,,,,,,,,,,,,,,,,,,,,,,,,,,,,,,,,,,,,,,,,,,,,,,,,,,,,,,,,,,,,,,,,,,,,,,,,,,,,,,,,,,,,,,,,,,,,,,,,,,,,,,,,,,,,,,,,,,,,,,,,,,,,,,,,
,,65830c7b2f2eac8713aed876,2024-02-19_04h14.28.658,kallum_motion_pilot,2023.2.2,Win32,60.60606061,65830c7b2f2eac8713aed876,65d2b6c8f2eece985d8e374c,65d2b957021102d092193377,0.0381,0.0381,0,86,86,98,1,sixfive,,,,,,,,,,,,,,,,,,,,,,,,,,,,,,,,,,,,,,,,,,,,,,,,,,,,,,,,,,,,,,,,,,,,,,,,,,,,,,,,,,,,,,,,,,,,,,,,,,,,,,,,,,,,,,,,,,,,,,,,,,,,,,,,,,,,,,,,,
,,65830c7b2f2eac8713aed876,2024-02-19_04h14.28.658,kallum_motion_pilot,2023.2.2,Win32,60.60606061,65830c7b2f2eac8713aed876,65d2b6c8f2eece985d8e374c,65d2b957021102d092193377,0.0381,0.0382,0,87,87,61,1,threefour,,,,,,,,,,,,,,,,,,,,,,,,,,,,,,,,,,,,,,,,,,,,,,,,,,,,,,,,,,,,,,,,,,,,,,,,,,,,,,,,,,,,,,,,,,,,,,,,,,,,,,,,,,,,,,,,,,,,,,,,,,,,,,,,,,,,,,,,,
,,65830c7b2f2eac8713aed876,2024-02-19_04h14.28.658,kallum_motion_pilot,2023.2.2,Win32,60.60606061,65830c7b2f2eac8713aed876,65d2b6c8f2eece985d8e374c,65d2b957021102d092193377,0.0383,0.0383,0,88,88,77,1,threefour,,,,,,,,,,,,,,,,,,,,,,,,,,,,,,,,,,,,,,,,,,,,,,,,,,,,,,,,,,,,,,,,,,,,,,,,,,,,,,,,,,,,,,,,,,,,,,,,,,,,,,,,,,,,,,,,,,,,,,,,,,,,,,,,,,,,,,,,,
,,65830c7b2f2eac8713aed876,2024-02-19_04h14.28.658,kallum_motion_pilot,2023.2.2,Win32,60.60606061,65830c7b2f2eac8713aed876,65d2b6c8f2eece985d8e374c,65d2b957021102d092193377,0.0384,0.0384,0,89,89,3,1,twofour,,,,,,,,,,,,,,,,,,,,,,,,,,,,,,,,,,,,,,,,,,,,,,,,,,,,,,,,,,,,,,,,,,,,,,,,,,,,,,,,,,,,,,,,,,,,,,,,,,,,,,,,,,,,,,,,,,,,,,,,,,,,,,,,,,,,,,,,,
,,65830c7b2f2eac8713aed876,2024-02-19_04h14.28.658,kallum_motion_pilot,2023.2.2,Win32,60.60606061,65830c7b2f2eac8713aed876,65d2b6c8f2eece985d8e374c,65d2b957021102d092193377,0.0385,0.0385,0,90,90,26,1,twoone,,,,,,,,,,,,,,,,,,,,,,,,,,,,,,,,,,,,,,,,,,,,,,,,,,,,,,,,,,,,,,,,,,,,,,,,,,,,,,,,,,,,,,,,,,,,,,,,,,,,,,,,,,,,,,,,,,,,,,,,,,,,,,,,,,,,,,,,,
,,65830c7b2f2eac8713aed876,2024-02-19_04h14.28.658,kallum_motion_pilot,2023.2.2,Win32,60.60606061,65830c7b2f2eac8713aed876,65d2b6c8f2eece985d8e374c,65d2b957021102d092193377,0.0386,0.0386,0,91,91,65,1,onethree,,,,,,,,,,,,,,,,,,,,,,,,,,,,,,,,,,,,,,,,,,,,,,,,,,,,,,,,,,,,,,,,,,,,,,,,,,,,,,,,,,,,,,,,,,,,,,,,,,,,,,,,,,,,,,,,,,,,,,,,,,,,,,,,,,,,,,,,,
,,65830c7b2f2eac8713aed876,2024-02-19_04h14.28.658,kallum_motion_pilot,2023.2.2,Win32,60.60606061,65830c7b2f2eac8713aed876,65d2b6c8f2eece985d8e374c,65d2b957021102d092193377,0.0386,0.0387,0,92,92,96,1,fivesix,,,,,,,,,,,,,,,,,,,,,,,,,,,,,,,,,,,,,,,,,,,,,,,,,,,,,,,,,,,,,,,,,,,,,,,,,,,,,,,,,,,,,,,,,,,,,,,,,,,,,,,,,,,,,,,,,,,,,,,,,,,,,,,,,,,,,,,,,
,,65830c7b2f2eac8713aed876,2024-02-19_04h14.28.658,kallum_motion_pilot,2023.2.2,Win32,60.60606061,65830c7b2f2eac8713aed876,65d2b6c8f2eece985d8e374c,65d2b957021102d092193377,0.0387,0.0387,0,93,93,54,1,fourtwo,,,,,,,,,,,,,,,,,,,,,,,,,,,,,,,,,,,,,,,,,,,,,,,,,,,,,,,,,,,,,,,,,,,,,,,,,,,,,,,,,,,,,,,,,,,,,,,,,,,,,,,,,,,,,,,,,,,,,,,,,,,,,,,,,,,,,,,,,
,,65830c7b2f2eac8713aed876,2024-02-19_04h14.28.658,kallum_motion_pilot,2023.2.2,Win32,60.60606061,65830c7b2f2eac8713aed876,65d2b6c8f2eece985d8e374c,65d2b957021102d092193377,0.0389,0.0389,0,94,94,119,1,eightseven,,,,,,,,,,,,,,,,,,,,,,,,,,,,,,,,,,,,,,,,,,,,,,,,,,,,,,,,,,,,,,,,,,,,,,,,,,,,,,,,,,,,,,,,,,,,,,,,,,,,,,,,,,,,,,,,,,,,,,,,,,,,,,,,,,,,,,,,,
,,65830c7b2f2eac8713aed876,2024-02-19_04h14.28.658,kallum_motion_pilot,2023.2.2,Win32,60.60606061,65830c7b2f2eac8713aed876,65d2b6c8f2eece985d8e374c,65d2b957021102d092193377,0.039,0.039,0,95,95,106,1,sixfive,,,,,,,,,,,,,,,,,,,,,,,,,,,,,,,,,,,,,,,,,,,,,,,,,,,,,,,,,,,,,,,,,,,,,,,,,,,,,,,,,,,,,,,,,,,,,,,,,,,,,,,,,,,,,,,,,,,,,,,,,,,,,,,,,,,,,,,,,
,,65830c7b2f2eac8713aed876,2024-02-19_04h14.28.658,kallum_motion_pilot,2023.2.2,Win32,60.60606061,65830c7b2f2eac8713aed876,65d2b6c8f2eece985d8e374c,65d2b957021102d092193377,0.0391,0.0392,0,96,96,158,1,eightsix,,,,,,,,,,,,,,,,,,,,,,,,,,,,,,,,,,,,,,,,,,,,,,,,,,,,,,,,,,,,,,,,,,,,,,,,,,,,,,,,,,,,,,,,,,,,,,,,,,,,,,,,,,,,,,,,,,,,,,,,,,,,,,,,,,,,,,,,,
,,65830c7b2f2eac8713aed876,2024-02-19_04h14.28.658,kallum_motion_pilot,2023.2.2,Win32,60.60606061,65830c7b2f2eac8713aed876,65d2b6c8f2eece985d8e374c,65d2b957021102d092193377,0.0392,0.0392,0,97,97,73,1,onethree,,,,,,,,,,,,,,,,,,,,,,,,,,,,,,,,,,,,,,,,,,,,,,,,,,,,,,,,,,,,,,,,,,,,,,,,,,,,,,,,,,,,,,,,,,,,,,,,,,,,,,,,,,,,,,,,,,,,,,,,,,,,,,,,,,,,,,,,,
,,65830c7b2f2eac8713aed876,2024-02-19_04h14.28.658,kallum_motion_pilot,2023.2.2,Win32,60.60606061,65830c7b2f2eac8713aed876,65d2b6c8f2eece985d8e374c,65d2b957021102d092193377,0.0393,0.0394,0,98,98,41,1,onethree,,,,,,,,,,,,,,,,,,,,,,,,,,,,,,,,,,,,,,,,,,,,,,,,,,,,,,,,,,,,,,,,,,,,,,,,,,,,,,,,,,,,,,,,,,,,,,,,,,,,,,,,,,,,,,,,,,,,,,,,,,,,,,,,,,,,,,,,,
,,65830c7b2f2eac8713aed876,2024-02-19_04h14.28.658,kallum_motion_pilot,2023.2.2,Win32,60.60606061,65830c7b2f2eac8713aed876,65d2b6c8f2eece985d8e374c,65d2b957021102d092193377,0.0394,0.0394,0,99,99,34,1,twoone,,,,,,,,,,,,,,,,,,,,,,,,,,,,,,,,,,,,,,,,,,,,,,,,,,,,,,,,,,,,,,,,,,,,,,,,,,,,,,,,,,,,,,,,,,,,,,,,,,,,,,,,,,,,,,,,,,,,,,,,,,,,,,,,,,,,,,,,,
,,65830c7b2f2eac8713aed876,2024-02-19_04h14.28.658,kallum_motion_pilot,2023.2.2,Win32,60.60606061,65830c7b2f2eac8713aed876,65d2b6c8f2eece985d8e374c,65d2b957021102d092193377,0.0395,0.0396,0,100,100,150,1,eightsix,,,,,,,,,,,,,,,,,,,,,,,,,,,,,,,,,,,,,,,,,,,,,,,,,,,,,,,,,,,,,,,,,,,,,,,,,,,,,,,,,,,,,,,,,,,,,,,,,,,,,,,,,,,,,,,,,,,,,,,,,,,,,,,,,,,,,,,,,
,,65830c7b2f2eac8713aed876,2024-02-19_04h14.28.658,kallum_motion_pilot,2023.2.2,Win32,60.60606061,65830c7b2f2eac8713aed876,65d2b6c8f2eece985d8e374c,65d2b957021102d092193377,0.0396,0.0397,0,101,101,72,1,onetwo,,,,,,,,,,,,,,,,,,,,,,,,,,,,,,,,,,,,,,,,,,,,,,,,,,,,,,,,,,,,,,,,,,,,,,,,,,,,,,,,,,,,,,,,,,,,,,,,,,,,,,,,,,,,,,,,,,,,,,,,,,,,,,,,,,,,,,,,,
,,65830c7b2f2eac8713aed876,2024-02-19_04h14.28.658,kallum_motion_pilot,2023.2.2,Win32,60.60606061,65830c7b2f2eac8713aed876,65d2b6c8f2eece985d8e374c,65d2b957021102d092193377,0.0398,0.0398,0,102,102,48,1,onetwo,,,,,,,,,,,,,,,,,,,,,,,,,,,,,,,,,,,,,,,,,,,,,,,,,,,,,,,,,,,,,,,,,,,,,,,,,,,,,,,,,,,,,,,,,,,,,,,,,,,,,,,,,,,,,,,,,,,,,,,,,,,,,,,,,,,,,,,,,
,,65830c7b2f2eac8713aed876,2024-02-19_04h14.28.658,kallum_motion_pilot,2023.2.2,Win32,60.60606061,65830c7b2f2eac8713aed876,65d2b6c8f2eece985d8e374c,65d2b957021102d092193377,0.0399,0.0399,0,103,103,90,1,sixfive,,,,,,,,,,,,,,,,,,,,,,,,,,,,,,,,,,,,,,,,,,,,,,,,,,,,,,,,,,,,,,,,,,,,,,,,,,,,,,,,,,,,,,,,,,,,,,,,,,,,,,,,,,,,,,,,,,,,,,,,,,,,,,,,,,,,,,,,,
,,65830c7b2f2eac8713aed876,2024-02-19_04h14.28.658,kallum_motion_pilot,2023.2.2,Win32,60.60606061,65830c7b2f2eac8713aed876,65d2b6c8f2eece985d8e374c,65d2b957021102d092193377,0.04,0.04,0,104,104,24,1,onetwo,,,,,,,,,,,,,,,,,,,,,,,,,,,,,,,,,,,,,,,,,,,,,,,,,,,,,,,,,,,,,,,,,,,,,,,,,,,,,,,,,,,,,,,,,,,,,,,,,,,,,,,,,,,,,,,,,,,,,,,,,,,,,,,,,,,,,,,,,
,,65830c7b2f2eac8713aed876,2024-02-19_04h14.28.658,kallum_motion_pilot,2023.2.2,Win32,60.60606061,65830c7b2f2eac8713aed876,65d2b6c8f2eece985d8e374c,65d2b957021102d092193377,0.0401,0.0401,0,105,105,13,1,threefour,,,,,,,,,,,,,,,,,,,,,,,,,,,,,,,,,,,,,,,,,,,,,,,,,,,,,,,,,,,,,,,,,,,,,,,,,,,,,,,,,,,,,,,,,,,,,,,,,,,,,,,,,,,,,,,,,,,,,,,,,,,,,,,,,,,,,,,,,
,,65830c7b2f2eac8713aed876,2024-02-19_04h14.28.658,kallum_motion_pilot,2023.2.2,Win32,60.60606061,65830c7b2f2eac8713aed876,65d2b6c8f2eece985d8e374c,65d2b957021102d092193377,0.0402,0.0402,0,106,106,8,1,onetwo,,,,,,,,,,,,,,,,,,,,,,,,,,,,,,,,,,,,,,,,,,,,,,,,,,,,,,,,,,,,,,,,,,,,,,,,,,,,,,,,,,,,,,,,,,,,,,,,,,,,,,,,,,,,,,,,,,,,,,,,,,,,,,,,,,,,,,,,,
,,65830c7b2f2eac8713aed876,2024-02-19_04h14.28.658,kallum_motion_pilot,2023.2.2,Win32,60.60606061,65830c7b2f2eac8713aed876,65d2b6c8f2eece985d8e374c,65d2b957021102d092193377,0.0403,0.0404,0,107,107,75,1,twofour,,,,,,,,,,,,,,,,,,,,,,,,,,,,,,,,,,,,,,,,,,,,,,,,,,,,,,,,,,,,,,,,,,,,,,,,,,,,,,,,,,,,,,,,,,,,,,,,,,,,,,,,,,,,,,,,,,,,,,,,,,,,,,,,,,,,,,,,,
,,65830c7b2f2eac8713aed876,2024-02-19_04h14.28.658,kallum_motion_pilot,2023.2.2,Win32,60.60606061,65830c7b2f2eac8713aed876,65d2b6c8f2eece985d8e374c,65d2b957021102d092193377,0.0404,0.0404,0,108,108,37,1,threefour,,,,,,,,,,,,,,,,,,,,,,,,,,,,,,,,,,,,,,,,,,,,,,,,,,,,,,,,,,,,,,,,,,,,,,,,,,,,,,,,,,,,,,,,,,,,,,,,,,,,,,,,,,,,,,,,,,,,,,,,,,,,,,,,,,,,,,,,,
,,65830c7b2f2eac8713aed876,2024-02-19_04h14.28.658,kallum_motion_pilot,2023.2.2,Win32,60.60606061,65830c7b2f2eac8713aed876,65d2b6c8f2eece985d8e374c,65d2b957021102d092193377,0.0405,0.0405,0,109,109,9,1,onethree,,,,,,,,,,,,,,,,,,,,,,,,,,,,,,,,,,,,,,,,,,,,,,,,,,,,,,,,,,,,,,,,,,,,,,,,,,,,,,,,,,,,,,,,,,,,,,,,,,,,,,,,,,,,,,,,,,,,,,,,,,,,,,,,,,,,,,,,,
,,65830c7b2f2eac8713aed876,2024-02-19_04h14.28.658,kallum_motion_pilot,2023.2.2,Win32,60.60606061,65830c7b2f2eac8713aed876,65d2b6c8f2eece985d8e374c,65d2b957021102d092193377,0.0406,0.0407,0,110,110,55,1,fourthree,,,,,,,,,,,,,,,,,,,,,,,,,,,,,,,,,,,,,,,,,,,,,,,,,,,,,,,,,,,,,,,,,,,,,,,,,,,,,,,,,,,,,,,,,,,,,,,,,,,,,,,,,,,,,,,,,,,,,,,,,,,,,,,,,,,,,,,,,
,,65830c7b2f2eac8713aed876,2024-02-19_04h14.28.658,kallum_motion_pilot,2023.2.2,Win32,60.60606061,65830c7b2f2eac8713aed876,65d2b6c8f2eece985d8e374c,65d2b957021102d092193377,0.0407,0.0407,0,111,111,121,1,fiveseven,,,,,,,,,,,,,,,,,,,,,,,,,,,,,,,,,,,,,,,,,,,,,,,,,,,,,,,,,,,,,,,,,,,,,,,,,,,,,,,,,,,,,,,,,,,,,,,,,,,,,,,,,,,,,,,,,,,,,,,,,,,,,,,,,,,,,,,,,
,,65830c7b2f2eac8713aed876,2024-02-19_04h14.28.658,kallum_motion_pilot,2023.2.2,Win32,60.60606061,65830c7b2f2eac8713aed876,65d2b6c8f2eece985d8e374c,65d2b957021102d092193377,0.0407,0.0408,0,112,112,71,1,fourthree,,,,,,,,,,,,,,,,,,,,,,,,,,,,,,,,,,,,,,,,,,,,,,,,,,,,,,,,,,,,,,,,,,,,,,,,,,,,,,,,,,,,,,,,,,,,,,,,,,,,,,,,,,,,,,,,,,,,,,,,,,,,,,,,,,,,,,,,,
,,65830c7b2f2eac8713aed876,2024-02-19_04h14.28.658,kallum_motion_pilot,2023.2.2,Win32,60.60606061,65830c7b2f2eac8713aed876,65d2b6c8f2eece985d8e374c,65d2b957021102d092193377,0.0408,0.041,0,113,113,143,1,eightseven,,,,,,,,,,,,,,,,,,,,,,,,,,,,,,,,,,,,,,,,,,,,,,,,,,,,,,,,,,,,,,,,,,,,,,,,,,,,,,,,,,,,,,,,,,,,,,,,,,,,,,,,,,,,,,,,,,,,,,,,,,,,,,,,,,,,,,,,,
,,65830c7b2f2eac8713aed876,2024-02-19_04h14.28.658,kallum_motion_pilot,2023.2.2,Win32,60.60606061,65830c7b2f2eac8713aed876,65d2b6c8f2eece985d8e374c,65d2b957021102d092193377,0.041,0.041,0,114,114,5,1,threefour,,,,,,,,,,,,,,,,,,,,,,,,,,,,,,,,,,,,,,,,,,,,,,,,,,,,,,,,,,,,,,,,,,,,,,,,,,,,,,,,,,,,,,,,,,,,,,,,,,,,,,,,,,,,,,,,,,,,,,,,,,,,,,,,,,,,,,,,,
,,65830c7b2f2eac8713aed876,2024-02-19_04h14.28.658,kallum_motion_pilot,2023.2.2,Win32,60.60606061,65830c7b2f2eac8713aed876,65d2b6c8f2eece985d8e374c,65d2b957021102d092193377,0.041,0.0411,0,115,115,28,1,threeone,,,,,,,,,,,,,,,,,,,,,,,,,,,,,,,,,,,,,,,,,,,,,,,,,,,,,,,,,,,,,,,,,,,,,,,,,,,,,,,,,,,,,,,,,,,,,,,,,,,,,,,,,,,,,,,,,,,,,,,,,,,,,,,,,,,,,,,,,
,,65830c7b2f2eac8713aed876,2024-02-19_04h14.28.658,kallum_motion_pilot,2023.2.2,Win32,60.60606061,65830c7b2f2eac8713aed876,65d2b6c8f2eece985d8e374c,65d2b957021102d092193377,0.0412,0.0412,0,116,116,10,1,twoone,,,,,,,,,,,,,,,,,,,,,,,,,,,,,,,,,,,,,,,,,,,,,,,,,,,,,,,,,,,,,,,,,,,,,,,,,,,,,,,,,,,,,,,,,,,,,,,,,,,,,,,,,,,,,,,,,,,,,,,,,,,,,,,,,,,,,,,,,
,,65830c7b2f2eac8713aed876,2024-02-19_04h14.28.658,kallum_motion_pilot,2023.2.2,Win32,60.60606061,65830c7b2f2eac8713aed876,65d2b6c8f2eece985d8e374c,65d2b957021102d092193377,0.0413,0.0413,0,117,117,152,1,fivesix,,,,,,,,,,,,,,,,,,,,,,,,,,,,,,,,,,,,,,,,,,,,,,,,,,,,,,,,,,,,,,,,,,,,,,,,,,,,,,,,,,,,,,,,,,,,,,,,,,,,,,,,,,,,,,,,,,,,,,,,,,,,,,,,,,,,,,,,,
,,65830c7b2f2eac8713aed876,2024-02-19_04h14.28.658,kallum_motion_pilot,2023.2.2,Win32,60.60606061,65830c7b2f2eac8713aed876,65d2b6c8f2eece985d8e374c,65d2b957021102d092193377,0.0413,0.0414,0,118,118,35,1,twofour,,,,,,,,,,,,,,,,,,,,,,,,,,,,,,,,,,,,,,,,,,,,,,,,,,,,,,,,,,,,,,,,,,,,,,,,,,,,,,,,,,,,,,,,,,,,,,,,,,,,,,,,,,,,,,,,,,,,,,,,,,,,,,,,,,,,,,,,,
,,65830c7b2f2eac8713aed876,2024-02-19_04h14.28.658,kallum_motion_pilot,2023.2.2,Win32,60.60606061,65830c7b2f2eac8713aed876,65d2b6c8f2eece985d8e374c,65d2b957021102d092193377,0.0415,0.0415,0,119,119,69,1,threefour,,,,,,,,,,,,,,,,,,,,,,,,,,,,,,,,,,,,,,,,,,,,,,,,,,,,,,,,,,,,,,,,,,,,,,,,,,,,,,,,,,,,,,,,,,,,,,,,,,,,,,,,,,,,,,,,,,,,,,,,,,,,,,,,,,,,,,,,,
,,65830c7b2f2eac8713aed876,2024-02-19_04h14.28.658,kallum_motion_pilot,2023.2.2,Win32,60.60606061,65830c7b2f2eac8713aed876,65d2b6c8f2eece985d8e374c,65d2b957021102d092193377,0.0415,0.0416,0,120,120,99,1,sixeight,,,,,,,,,,,,,,,,,,,,,,,,,,,,,,,,,,,,,,,,,,,,,,,,,,,,,,,,,,,,,,,,,,,,,,,,,,,,,,,,,,,,,,,,,,,,,,,,,,,,,,,,,,,,,,,,,,,,,,,,,,,,,,,,,,,,,,,,,
,,65830c7b2f2eac8713aed876,2024-02-19_04h14.28.658,kallum_motion_pilot,2023.2.2,Win32,60.60606061,65830c7b2f2eac8713aed876,65d2b6c8f2eece985d8e374c,65d2b957021102d092193377,0.0416,0.0417,0,121,121,45,1,threefour,,,,,,,,,,,,,,,,,,,,,,,,,,,,,,,,,,,,,,,,,,,,,,,,,,,,,,,,,,,,,,,,,,,,,,,,,,,,,,,,,,,,,,,,,,,,,,,,,,,,,,,,,,,,,,,,,,,,,,,,,,,,,,,,,,,,,,,,,
,,65830c7b2f2eac8713aed876,2024-02-19_04h14.28.658,kallum_motion_pilot,2023.2.2,Win32,60.60606061,65830c7b2f2eac8713aed876,65d2b6c8f2eece985d8e374c,65d2b957021102d092193377,0.0418,0.0418,0,122,122,146,1,sixfive,,,,,,,,,,,,,,,,,,,,,,,,,,,,,,,,,,,,,,,,,,,,,,,,,,,,,,,,,,,,,,,,,,,,,,,,,,,,,,,,,,,,,,,,,,,,,,,,,,,,,,,,,,,,,,,,,,,,,,,,,,,,,,,,,,,,,,,,,
,,65830c7b2f2eac8713aed876,2024-02-19_04h14.28.658,kallum_motion_pilot,2023.2.2,Win32,60.60606061,65830c7b2f2eac8713aed876,65d2b6c8f2eece985d8e374c,65d2b957021102d092193377,0.0418,0.0419,0,123,123,113,1,fiveseven,,,,,,,,,,,,,,,,,,,,,,,,,,,,,,,,,,,,,,,,,,,,,,,,,,,,,,,,,,,,,,,,,,,,,,,,,,,,,,,,,,,,,,,,,,,,,,,,,,,,,,,,,,,,,,,,,,,,,,,,,,,,,,,,,,,,,,,,,
,,65830c7b2f2eac8713aed876,2024-02-19_04h14.28.658,kallum_motion_pilot,2023.2.2,Win32,60.60606061,65830c7b2f2eac8713aed876,65d2b6c8f2eece985d8e374c,65d2b957021102d092193377,0.042,0.042,0,124,124,89,1,fiveseven,,,,,,,,,,,,,,,,,,,,,,,,,,,,,,,,,,,,,,,,,,,,,,,,,,,,,,,,,,,,,,,,,,,,,,,,,,,,,,,,,,,,,,,,,,,,,,,,,,,,,,,,,,,,,,,,,,,,,,,,,,,,,,,,,,,,,,,,,
,,65830c7b2f2eac8713aed876,2024-02-19_04h14.28.658,kallum_motion_pilot,2023.2.2,Win32,60.60606061,65830c7b2f2eac8713aed876,65d2b6c8f2eece985d8e374c,65d2b957021102d092193377,0.042,0.0422,0,125,125,68,1,threeone,,,,,,,,,,,,,,,,,,,,,,,,,,,,,,,,,,,,,,,,,,,,,,,,,,,,,,,,,,,,,,,,,,,,,,,,,,,,,,,,,,,,,,,,,,,,,,,,,,,,,,,,,,,,,,,,,,,,,,,,,,,,,,,,,,,,,,,,,
,,65830c7b2f2eac8713aed876,2024-02-19_04h14.28.658,kallum_motion_pilot,2023.2.2,Win32,60.60606061,65830c7b2f2eac8713aed876,65d2b6c8f2eece985d8e374c,65d2b957021102d092193377,0.0422,0.0422,0,126,126,128,1,fivesix,,,,,,,,,,,,,,,,,,,,,,,,,,,,,,,,,,,,,,,,,,,,,,,,,,,,,,,,,,,,,,,,,,,,,,,,,,,,,,,,,,,,,,,,,,,,,,,,,,,,,,,,,,,,,,,,,,,,,,,,,,,,,,,,,,,,,,,,,
,,65830c7b2f2eac8713aed876,2024-02-19_04h14.28.658,kallum_motion_pilot,2023.2.2,Win32,60.60606061,65830c7b2f2eac8713aed876,65d2b6c8f2eece985d8e374c,65d2b957021102d092193377,0.0436,0.0437,0,127,127,141,1,seveneight,,,,,,,,,,,,,,,,,,,,,,,,,,,,,,,,,,,,,,,,,,,,,,,,,,,,,,,,,,,,,,,,,,,,,,,,,,,,,,,,,,,,,,,,,,,,,,,,,,,,,,,,,,,,,,,,,,,,,,,,,,,,,,,,,,,,,,,,,
,,65830c7b2f2eac8713aed876,2024-02-19_04h14.28.658,kallum_motion_pilot,2023.2.2,Win32,60.60606061,65830c7b2f2eac8713aed876,65d2b6c8f2eece985d8e374c,65d2b957021102d092193377,0.0438,0.0438,0,128,128,142,1,eightsix,,,,,,,,,,,,,,,,,,,,,,,,,,,,,,,,,,,,,,,,,,,,,,,,,,,,,,,,,,,,,,,,,,,,,,,,,,,,,,,,,,,,,,,,,,,,,,,,,,,,,,,,,,,,,,,,,,,,,,,,,,,,,,,,,,,,,,,,,
,,65830c7b2f2eac8713aed876,2024-02-19_04h14.28.658,kallum_motion_pilot,2023.2.2,Win32,60.60606061,65830c7b2f2eac8713aed876,65d2b6c8f2eece985d8e374c,65d2b957021102d092193377,0.0439,0.0439,0,129,129,134,1,eightsix,,,,,,,,,,,,,,,,,,,,,,,,,,,,,,,,,,,,,,,,,,,,,,,,,,,,,,,,,,,,,,,,,,,,,,,,,,,,,,,,,,,,,,,,,,,,,,,,,,,,,,,,,,,,,,,,,,,,,,,,,,,,,,,,,,,,,,,,,
,,65830c7b2f2eac8713aed876,2024-02-19_04h14.28.658,kallum_motion_pilot,2023.2.2,Win32,60.60606061,65830c7b2f2eac8713aed876,65d2b6c8f2eece985d8e374c,65d2b957021102d092193377,0.0439,0.044,0,130,130,139,1,sixeight,,,,,,,,,,,,,,,,,,,,,,,,,,,,,,,,,,,,,,,,,,,,,,,,,,,,,,,,,,,,,,,,,,,,,,,,,,,,,,,,,,,,,,,,,,,,,,,,,,,,,,,,,,,,,,,,,,,,,,,,,,,,,,,,,,,,,,,,,
,,65830c7b2f2eac8713aed876,2024-02-19_04h14.28.658,kallum_motion_pilot,2023.2.2,Win32,60.60606061,65830c7b2f2eac8713aed876,65d2b6c8f2eece985d8e374c,65d2b957021102d092193377,0.044,0.0441,0,131,131,97,1,fiveseven,,,,,,,,,,,,,,,,,,,,,,,,,,,,,,,,,,,,,,,,,,,,,,,,,,,,,,,,,,,,,,,,,,,,,,,,,,,,,,,,,,,,,,,,,,,,,,,,,,,,,,,,,,,,,,,,,,,,,,,,,,,,,,,,,,,,,,,,,
,,65830c7b2f2eac8713aed876,2024-02-19_04h14.28.658,kallum_motion_pilot,2023.2.2,Win32,60.60606061,65830c7b2f2eac8713aed876,65d2b6c8f2eece985d8e374c,65d2b957021102d092193377,0.0441,0.0442,0,132,132,140,1,sevenfive,,,,,,,,,,,,,,,,,,,,,,,,,,,,,,,,,,,,,,,,,,,,,,,,,,,,,,,,,,,,,,,,,,,,,,,,,,,,,,,,,,,,,,,,,,,,,,,,,,,,,,,,,,,,,,,,,,,,,,,,,,,,,,,,,,,,,,,,,
,,65830c7b2f2eac8713aed876,2024-02-19_04h14.28.658,kallum_motion_pilot,2023.2.2,Win32,60.60606061,65830c7b2f2eac8713aed876,65d2b6c8f2eece985d8e374c,65d2b957021102d092193377,0.0443,0.0443,0,133,133,57,1,onethree,,,,,,,,,,,,,,,,,,,,,,,,,,,,,,,,,,,,,,,,,,,,,,,,,,,,,,,,,,,,,,,,,,,,,,,,,,,,,,,,,,,,,,,,,,,,,,,,,,,,,,,,,,,,,,,,,,,,,,,,,,,,,,,,,,,,,,,,,
,,65830c7b2f2eac8713aed876,2024-02-19_04h14.28.658,kallum_motion_pilot,2023.2.2,Win32,60.60606061,65830c7b2f2eac8713aed876,65d2b6c8f2eece985d8e374c,65d2b957021102d092193377,0.0444,0.0444,0,134,134,107,1,sixeight,,,,,,,,,,,,,,,,,,,,,,,,,,,,,,,,,,,,,,,,,,,,,,,,,,,,,,,,,,,,,,,,,,,,,,,,,,,,,,,,,,,,,,,,,,,,,,,,,,,,,,,,,,,,,,,,,,,,,,,,,,,,,,,,,,,,,,,,,
,,65830c7b2f2eac8713aed876,2024-02-19_04h14.28.658,kallum_motion_pilot,2023.2.2,Win32,60.60606061,65830c7b2f2eac8713aed876,65d2b6c8f2eece985d8e374c,65d2b957021102d092193377,0.0445,0.0445,0,135,135,103,1,eightseven,,,,,,,,,,,,,,,,,,,,,,,,,,,,,,,,,,,,,,,,,,,,,,,,,,,,,,,,,,,,,,,,,,,,,,,,,,,,,,,,,,,,,,,,,,,,,,,,,,,,,,,,,,,,,,,,,,,,,,,,,,,,,,,,,,,,,,,,,
,,65830c7b2f2eac8713aed876,2024-02-19_04h14.28.658,kallum_motion_pilot,2023.2.2,Win32,60.60606061,65830c7b2f2eac8713aed876,65d2b6c8f2eece985d8e374c,65d2b957021102d092193377,0.0446,0.0446,0,136,136,66,1,twoone,,,,,,,,,,,,,,,,,,,,,,,,,,,,,,,,,,,,,,,,,,,,,,,,,,,,,,,,,,,,,,,,,,,,,,,,,,,,,,,,,,,,,,,,,,,,,,,,,,,,,,,,,,,,,,,,,,,,,,,,,,,,,,,,,,,,,,,,,
,,65830c7b2f2eac8713aed876,2024-02-19_04h14.28.658,kallum_motion_pilot,2023.2.2,Win32,60.60606061,65830c7b2f2eac8713aed876,65d2b6c8f2eece985d8e374c,65d2b957021102d092193377,0.0447,0.0448,0,137,137,120,1,fivesix,,,,,,,,,,,,,,,,,,,,,,,,,,,,,,,,,,,,,,,,,,,,,,,,,,,,,,,,,,,,,,,,,,,,,,,,,,,,,,,,,,,,,,,,,,,,,,,,,,,,,,,,,,,,,,,,,,,,,,,,,,,,,,,,,,,,,,,,,
,,65830c7b2f2eac8713aed876,2024-02-19_04h14.28.658,kallum_motion_pilot,2023.2.2,Win32,60.60606061,65830c7b2f2eac8713aed876,65d2b6c8f2eece985d8e374c,65d2b957021102d092193377,0.0448,0.0448,0,138,138,12,1,threeone,,,,,,,,,,,,,,,,,,,,,,,,,,,,,,,,,,,,,,,,,,,,,,,,,,,,,,,,,,,,,,,,,,,,,,,,,,,,,,,,,,,,,,,,,,,,,,,,,,,,,,,,,,,,,,,,,,,,,,,,,,,,,,,,,,,,,,,,,
,,65830c7b2f2eac8713aed876,2024-02-19_04h14.28.658,kallum_motion_pilot,2023.2.2,Win32,60.60606061,65830c7b2f2eac8713aed876,65d2b6c8f2eece985d8e374c,65d2b957021102d092193377,0.045,0.045,0,139,139,145,1,fiveseven,,,,,,,,,,,,,,,,,,,,,,,,,,,,,,,,,,,,,,,,,,,,,,,,,,,,,,,,,,,,,,,,,,,,,,,,,,,,,,,,,,,,,,,,,,,,,,,,,,,,,,,,,,,,,,,,,,,,,,,,,,,,,,,,,,,,,,,,,
,,65830c7b2f2eac8713aed876,2024-02-19_04h14.28.658,kallum_motion_pilot,2023.2.2,Win32,60.60606061,65830c7b2f2eac8713aed876,65d2b6c8f2eece985d8e374c,65d2b957021102d092193377,0.045,0.0451,0,140,140,129,1,fiveseven,,,,,,,,,,,,,,,,,,,,,,,,,,,,,,,,,,,,,,,,,,,,,,,,,,,,,,,,,,,,,,,,,,,,,,,,,,,,,,,,,,,,,,,,,,,,,,,,,,,,,,,,,,,,,,,,,,,,,,,,,,,,,,,,,,,,,,,,,
,,65830c7b2f2eac8713aed876,2024-02-19_04h14.28.658,kallum_motion_pilot,2023.2.2,Win32,60.60606061,65830c7b2f2eac8713aed876,65d2b6c8f2eece985d8e374c,65d2b957021102d092193377,0.0452,0.0452,0,141,141,80,1,fivesix,,,,,,,,,,,,,,,,,,,,,,,,,,,,,,,,,,,,,,,,,,,,,,,,,,,,,,,,,,,,,,,,,,,,,,,,,,,,,,,,,,,,,,,,,,,,,,,,,,,,,,,,,,,,,,,,,,,,,,,,,,,,,,,,,,,,,,,,,
,,65830c7b2f2eac8713aed876,2024-02-19_04h14.28.658,kallum_motion_pilot,2023.2.2,Win32,60.60606061,65830c7b2f2eac8713aed876,65d2b6c8f2eece985d8e374c,65d2b957021102d092193377,0.0453,0.0453,0,142,142,31,1,fourthree,,,,,,,,,,,,,,,,,,,,,,,,,,,,,,,,,,,,,,,,,,,,,,,,,,,,,,,,,,,,,,,,,,,,,,,,,,,,,,,,,,,,,,,,,,,,,,,,,,,,,,,,,,,,,,,,,,,,,,,,,,,,,,,,,,,,,,,,,
,,65830c7b2f2eac8713aed876,2024-02-19_04h14.28.658,kallum_motion_pilot,2023.2.2,Win32,60.60606061,65830c7b2f2eac8713aed876,65d2b6c8f2eece985d8e374c,65d2b957021102d092193377,0.0453,0.0455,0,143,143,104,1,fivesix,,,,,,,,,,,,,,,,,,,,,,,,,,,,,,,,,,,,,,,,,,,,,,,,,,,,,,,,,,,,,,,,,,,,,,,,,,,,,,,,,,,,,,,,,,,,,,,,,,,,,,,,,,,,,,,,,,,,,,,,,,,,,,,,,,,,,,,,,
,,65830c7b2f2eac8713aed876,2024-02-19_04h14.28.658,kallum_motion_pilot,2023.2.2,Win32,60.60606061,65830c7b2f2eac8713aed876,65d2b6c8f2eece985d8e374c,65d2b957021102d092193377,0.0455,0.0456,0,144,144,51,1,twofour,,,,,,,,,,,,,,,,,,,,,,,,,,,,,,,,,,,,,,,,,,,,,,,,,,,,,,,,,,,,,,,,,,,,,,,,,,,,,,,,,,,,,,,,,,,,,,,,,,,,,,,,,,,,,,,,,,,,,,,,,,,,,,,,,,,,,,,,,
,,65830c7b2f2eac8713aed876,2024-02-19_04h14.28.658,kallum_motion_pilot,2023.2.2,Win32,60.60606061,65830c7b2f2eac8713aed876,65d2b6c8f2eece985d8e374c,65d2b957021102d092193377,0.0457,0.0458,0,145,145,160,1,fivesix,,,,,,,,,,,,,,,,,,,,,,,,,,,,,,,,,,,,,,,,,,,,,,,,,,,,,,,,,,,,,,,,,,,,,,,,,,,,,,,,,,,,,,,,,,,,,,,,,,,,,,,,,,,,,,,,,,,,,,,,,,,,,,,,,,,,,,,,,
,,65830c7b2f2eac8713aed876,2024-02-19_04h14.28.658,kallum_motion_pilot,2023.2.2,Win32,60.60606061,65830c7b2f2eac8713aed876,65d2b6c8f2eece985d8e374c,65d2b957021102d092193377,0.0459,0.046,0,146,146,108,1,sevenfive,,,,,,,,,,,,,,,,,,,,,,,,,,,,,,,,,,,,,,,,,,,,,,,,,,,,,,,,,,,,,,,,,,,,,,,,,,,,,,,,,,,,,,,,,,,,,,,,,,,,,,,,,,,,,,,,,,,,,,,,,,,,,,,,,,,,,,,,,
,,65830c7b2f2eac8713aed876,2024-02-19_04h14.28.658,kallum_motion_pilot,2023.2.2,Win32,60.60606061,65830c7b2f2eac8713aed876,65d2b6c8f2eece985d8e374c,65d2b957021102d092193377,0.0461,0.0463,0,147,147,138,1,sixfive,,,,,,,,,,,,,,,,,,,,,,,,,,,,,,,,,,,,,,,,,,,,,,,,,,,,,,,,,,,,,,,,,,,,,,,,,,,,,,,,,,,,,,,,,,,,,,,,,,,,,,,,,,,,,,,,,,,,,,,,,,,,,,,,,,,,,,,,,
,,65830c7b2f2eac8713aed876,2024-02-19_04h14.28.658,kallum_motion_pilot,2023.2.2,Win32,60.60606061,65830c7b2f2eac8713aed876,65d2b6c8f2eece985d8e374c,65d2b957021102d092193377,0.0463,0.0464,0,148,148,74,1,twoone,,,,,,,,,,,,,,,,,,,,,,,,,,,,,,,,,,,,,,,,,,,,,,,,,,,,,,,,,,,,,,,,,,,,,,,,,,,,,,,,,,,,,,,,,,,,,,,,,,,,,,,,,,,,,,,,,,,,,,,,,,,,,,,,,,,,,,,,,
,,65830c7b2f2eac8713aed876,2024-02-19_04h14.28.658,kallum_motion_pilot,2023.2.2,Win32,60.60606061,65830c7b2f2eac8713aed876,65d2b6c8f2eece985d8e374c,65d2b957021102d092193377,0.0464,0.0465,0,149,149,125,1,seveneight,,,,,,,,,,,,,,,,,,,,,,,,,,,,,,,,,,,,,,,,,,,,,,,,,,,,,,,,,,,,,,,,,,,,,,,,,,,,,,,,,,,,,,,,,,,,,,,,,,,,,,,,,,,,,,,,,,,,,,,,,,,,,,,,,,,,,,,,,
,,65830c7b2f2eac8713aed876,2024-02-19_04h14.28.658,kallum_motion_pilot,2023.2.2,Win32,60.60606061,65830c7b2f2eac8713aed876,65d2b6c8f2eece985d8e374c,65d2b957021102d092193377,0.0465,0.0466,0,150,150,154,1,sixfive,,,,,,,,,,,,,,,,,,,,,,,,,,,,,,,,,,,,,,,,,,,,,,,,,,,,,,,,,,,,,,,,,,,,,,,,,,,,,,,,,,,,,,,,,,,,,,,,,,,,,,,,,,,,,,,,,,,,,,,,,,,,,,,,,,,,,,,,,
,,65830c7b2f2eac8713aed876,2024-02-19_04h14.28.658,kallum_motion_pilot,2023.2.2,Win32,60.60606061,65830c7b2f2eac8713aed876,65d2b6c8f2eece985d8e374c,65d2b957021102d092193377,0.0466,0.0467,0,151,151,60,1,threeone,,,,,,,,,,,,,,,,,,,,,,,,,,,,,,,,,,,,,,,,,,,,,,,,,,,,,,,,,,,,,,,,,,,,,,,,,,,,,,,,,,,,,,,,,,,,,,,,,,,,,,,,,,,,,,,,,,,,,,,,,,,,,,,,,,,,,,,,,
,,65830c7b2f2eac8713aed876,2024-02-19_04h14.28.658,kallum_motion_pilot,2023.2.2,Win32,60.60606061,65830c7b2f2eac8713aed876,65d2b6c8f2eece985d8e374c,65d2b957021102d092193377,0.0468,0.0468,0,152,152,59,1,twofour,,,,,,,,,,,,,,,,,,,,,,,,,,,,,,,,,,,,,,,,,,,,,,,,,,,,,,,,,,,,,,,,,,,,,,,,,,,,,,,,,,,,,,,,,,,,,,,,,,,,,,,,,,,,,,,,,,,,,,,,,,,,,,,,,,,,,,,,,
,,65830c7b2f2eac8713aed876,2024-02-19_04h14.28.658,kallum_motion_pilot,2023.2.2,Win32,60.60606061,65830c7b2f2eac8713aed876,65d2b6c8f2eece985d8e374c,65d2b957021102d092193377,0.0468,0.0469,0,153,153,93,1,seveneight,,,,,,,,,,,,,,,,,,,,,,,,,,,,,,,,,,,,,,,,,,,,,,,,,,,,,,,,,,,,,,,,,,,,,,,,,,,,,,,,,,,,,,,,,,,,,,,,,,,,,,,,,,,,,,,,,,,,,,,,,,,,,,,,,,,,,,,,,
,,65830c7b2f2eac8713aed876,2024-02-19_04h14.28.658,kallum_motion_pilot,2023.2.2,Win32,60.60606061,65830c7b2f2eac8713aed876,65d2b6c8f2eece985d8e374c,65d2b957021102d092193377,0.047,0.047,0,154,154,23,1,fourthree,,,,,,,,,,,,,,,,,,,,,,,,,,,,,,,,,,,,,,,,,,,,,,,,,,,,,,,,,,,,,,,,,,,,,,,,,,,,,,,,,,,,,,,,,,,,,,,,,,,,,,,,,,,,,,,,,,,,,,,,,,,,,,,,,,,,,,,,,
,,65830c7b2f2eac8713aed876,2024-02-19_04h14.28.658,kallum_motion_pilot,2023.2.2,Win32,60.60606061,65830c7b2f2eac8713aed876,65d2b6c8f2eece985d8e374c,65d2b957021102d092193377,0.0471,0.0471,0,155,155,14,1,fourtwo,,,,,,,,,,,,,,,,,,,,,,,,,,,,,,,,,,,,,,,,,,,,,,,,,,,,,,,,,,,,,,,,,,,,,,,,,,,,,,,,,,,,,,,,,,,,,,,,,,,,,,,,,,,,,,,,,,,,,,,,,,,,,,,,,,,,,,,,,
,,65830c7b2f2eac8713aed876,2024-02-19_04h14.28.658,kallum_motion_pilot,2023.2.2,Win32,60.60606061,65830c7b2f2eac8713aed876,65d2b6c8f2eece985d8e374c,65d2b957021102d092193377,0.0471,0.0472,0,156,156,39,1,fourthree,,,,,,,,,,,,,,,,,,,,,,,,,,,,,,,,,,,,,,,,,,,,,,,,,,,,,,,,,,,,,,,,,,,,,,,,,,,,,,,,,,,,,,,,,,,,,,,,,,,,,,,,,,,,,,,,,,,,,,,,,,,,,,,,,,,,,,,,,
,,65830c7b2f2eac8713aed876,2024-02-19_04h14.28.658,kallum_motion_pilot,2023.2.2,Win32,60.60606061,65830c7b2f2eac8713aed876,65d2b6c8f2eece985d8e374c,65d2b957021102d092193377,0.0473,0.0473,0,157,157,38,1,fourtwo,,,,,,,,,,,,,,,,,,,,,,,,,,,,,,,,,,,,,,,,,,,,,,,,,,,,,,,,,,,,,,,,,,,,,,,,,,,,,,,,,,,,,,,,,,,,,,,,,,,,,,,,,,,,,,,,,,,,,,,,,,,,,,,,,,,,,,,,,
,,65830c7b2f2eac8713aed876,2024-02-19_04h14.28.658,kallum_motion_pilot,2023.2.2,Win32,60.60606061,65830c7b2f2eac8713aed876,65d2b6c8f2eece985d8e374c,65d2b957021102d092193377,0.0474,0.0475,0,158,158,56,1,onetwo,,,,,,,,,,,,,,,,,,,,,,,,,,,,,,,,,,,,,,,,,,,,,,,,,,,,,,,,,,,,,,,,,,,,,,,,,,,,,,,,,,,,,,,,,,,,,,,,,,,,,,,,,,,,,,,,,,,,,,,,,,,,,,,,,,,,,,,,,
,,65830c7b2f2eac8713aed876,2024-02-19_04h14.28.658,kallum_motion_pilot,2023.2.2,Win32,60.60606061,65830c7b2f2eac8713aed876,65d2b6c8f2eece985d8e374c,65d2b957021102d092193377,0.0475,0.0476,0,159,159,7,1,fourthree,,,,,,,,,,,,,,,,,,,,,,,,,,,,,,,,,,,,,,,,,,,,,,,,,,,,,,,,,,,,,,,,,,,,,,,,,,,,,,,,,,,,,,,,,,,,,,,,,,,,,,,,,,,,,,,,,,,,,,,,,,,,,,,,,,,,,,,,,
,,65830c7b2f2eac8713aed876,2024-02-19_04h14.28.658,kallum_motion_pilot,2023.2.2,Win32,60.60606061,65830c7b2f2eac8713aed876,65d2b6c8f2eece985d8e374c,65d2b957021102d092193377,0.0476,0.0477,0,160,160,101,1,seveneight,,,,,,,,,,,,,,,,,,,,,,,,,,,,,,,,,,,,,,,,,,,,,,,,,,,,,,,,,,,,,,,,,,,,,,,,,,,,,,,,,,,,,,,,,,,,,,,,,,,,,,,,,,,,,,,,,,,,,,,,,,,,,,,,,,,,,,,,,
,,65830c7b2f2eac8713aed876,2024-02-19_04h14.28.658,kallum_motion_pilot,2023.2.2,Win32,60.60606061,65830c7b2f2eac8713aed876,65d2b6c8f2eece985d8e374c,65d2b957021102d092193377,0.0478,0.0478,0,161,161,52,1,threeone,,,,,,,,,,,,,,,,,,,,,,,,,,,,,,,,,,,,,,,,,,,,,,,,,,,,,,,,,,,,,,,,,,,,,,,,,,,,,,,,,,,,,,,,,,,,,,,,,,,,,,,,,,,,,,,,,,,,,,,,,,,,,,,,,,,,,,,,,
,,65830c7b2f2eac8713aed876,2024-02-19_04h14.28.658,kallum_motion_pilot,2023.2.2,Win32,60.60606061,65830c7b2f2eac8713aed876,65d2b6c8f2eece985d8e374c,65d2b957021102d092193377,0.0479,0.0479,1,0,162,87,1,eightseven,,,,,,,,,,,,,,,,,,,,,,,,,,,,,,,,,,,,,,,,,,,,,,,,,,,,,,,,,,,,,,,,,,,,,,,,,,,,,,,,,,,,,,,,,,,,,,,,,,,,,,,,,,,,,,,,,,,,,,,,,,,,,,,,,,,,,,,,,
,,65830c7b2f2eac8713aed876,2024-02-19_04h14.28.658,kallum_motion_pilot,2023.2.2,Win32,60.60606061,65830c7b2f2eac8713aed876,65d2b6c8f2eece985d8e374c,65d2b957021102d092193377,0.048,0.048,1,1,163,158,1,eightsix,,,,,,,,,,,,,,,,,,,,,,,,,,,,,,,,,,,,,,,,,,,,,,,,,,,,,,,,,,,,,,,,,,,,,,,,,,,,,,,,,,,,,,,,,,,,,,,,,,,,,,,,,,,,,,,,,,,,,,,,,,,,,,,,,,,,,,,,,
,,65830c7b2f2eac8713aed876,2024-02-19_04h14.28.658,kallum_motion_pilot,2023.2.2,Win32,60.60606061,65830c7b2f2eac8713aed876,65d2b6c8f2eece985d8e374c,65d2b957021102d092193377,0.0481,0.0481,1,2,164,141,1,seveneight,,,,,,,,,,,,,,,,,,,,,,,,,,,,,,,,,,,,,,,,,,,,,,,,,,,,,,,,,,,,,,,,,,,,,,,,,,,,,,,,,,,,,,,,,,,,,,,,,,,,,,,,,,,,,,,,,,,,,,,,,,,,,,,,,,,,,,,,,
,,65830c7b2f2eac8713aed876,2024-02-19_04h14.28.658,kallum_motion_pilot,2023.2.2,Win32,60.60606061,65830c7b2f2eac8713aed876,65d2b6c8f2eece985d8e374c,65d2b957021102d092193377,0.0482,0.0482,1,3,165,9,1,onethree,,,,,,,,,,,,,,,,,,,,,,,,,,,,,,,,,,,,,,,,,,,,,,,,,,,,,,,,,,,,,,,,,,,,,,,,,,,,,,,,,,,,,,,,,,,,,,,,,,,,,,,,,,,,,,,,,,,,,,,,,,,,,,,,,,,,,,,,,
,,65830c7b2f2eac8713aed876,2024-02-19_04h14.28.658,kallum_motion_pilot,2023.2.2,Win32,60.60606061,65830c7b2f2eac8713aed876,65d2b6c8f2eece985d8e374c,65d2b957021102d092193377,0.0483,0.0484,1,4,166,40,1,onetwo,,,,,,,,,,,,,,,,,,,,,,,,,,,,,,,,,,,,,,,,,,,,,,,,,,,,,,,,,,,,,,,,,,,,,,,,,,,,,,,,,,,,,,,,,,,,,,,,,,,,,,,,,,,,,,,,,,,,,,,,,,,,,,,,,,,,,,,,,
,,65830c7b2f2eac8713aed876,2024-02-19_04h14.28.658,kallum_motion_pilot,2023.2.2,Win32,60.60606061,65830c7b2f2eac8713aed876,65d2b6c8f2eece985d8e374c,65d2b957021102d092193377,0.0484,0.0485,1,5,167,26,1,twoone,,,,,,,,,,,,,,,,,,,,,,,,,,,,,,,,,,,,,,,,,,,,,,,,,,,,,,,,,,,,,,,,,,,,,,,,,,,,,,,,,,,,,,,,,,,,,,,,,,,,,,,,,,,,,,,,,,,,,,,,,,,,,,,,,,,,,,,,,
,,65830c7b2f2eac8713aed876,2024-02-19_04h14.28.658,kallum_motion_pilot,2023.2.2,Win32,60.60606061,65830c7b2f2eac8713aed876,65d2b6c8f2eece985d8e374c,65d2b957021102d092193377,0.0485,0.0485,1,6,168,127,1,eightseven,,,,,,,,,,,,,,,,,,,,,,,,,,,,,,,,,,,,,,,,,,,,,,,,,,,,,,,,,,,,,,,,,,,,,,,,,,,,,,,,,,,,,,,,,,,,,,,,,,,,,,,,,,,,,,,,,,,,,,,,,,,,,,,,,,,,,,,,,
,,65830c7b2f2eac8713aed876,2024-02-19_04h14.28.658,kallum_motion_pilot,2023.2.2,Win32,60.60606061,65830c7b2f2eac8713aed876,65d2b6c8f2eece985d8e374c,65d2b957021102d092193377,0.0487,0.0487,1,7,169,129,1,fiveseven,,,,,,,,,,,,,,,,,,,,,,,,,,,,,,,,,,,,,,,,,,,,,,,,,,,,,,,,,,,,,,,,,,,,,,,,,,,,,,,,,,,,,,,,,,,,,,,,,,,,,,,,,,,,,,,,,,,,,,,,,,,,,,,,,,,,,,,,,
,,65830c7b2f2eac8713aed876,2024-02-19_04h14.28.658,kallum_motion_pilot,2023.2.2,Win32,60.60606061,65830c7b2f2eac8713aed876,65d2b6c8f2eece985d8e374c,65d2b957021102d092193377,0.0488,0.0488,1,8,170,152,1,fivesix,,,,,,,,,,,,,,,,,,,,,,,,,,,,,,,,,,,,,,,,,,,,,,,,,,,,,,,,,,,,,,,,,,,,,,,,,,,,,,,,,,,,,,,,,,,,,,,,,,,,,,,,,,,,,,,,,,,,,,,,,,,,,,,,,,,,,,,,,
,,65830c7b2f2eac8713aed876,2024-02-19_04h14.28.658,kallum_motion_pilot,2023.2.2,Win32,60.60606061,65830c7b2f2eac8713aed876,65d2b6c8f2eece985d8e374c,65d2b957021102d092193377,0.0489,0.0489,1,9,171,77,1,threefour,,,,,,,,,,,,,,,,,,,,,,,,,,,,,,,,,,,,,,,,,,,,,,,,,,,,,,,,,,,,,,,,,,,,,,,,,,,,,,,,,,,,,,,,,,,,,,,,,,,,,,,,,,,,,,,,,,,,,,,,,,,,,,,,,,,,,,,,,
,,65830c7b2f2eac8713aed876,2024-02-19_04h14.28.658,kallum_motion_pilot,2023.2.2,Win32,60.60606061,65830c7b2f2eac8713aed876,65d2b6c8f2eece985d8e374c,65d2b957021102d092193377,0.0489,0.049,1,10,172,33,1,onethree,,,,,,,,,,,,,,,,,,,,,,,,,,,,,,,,,,,,,,,,,,,,,,,,,,,,,,,,,,,,,,,,,,,,,,,,,,,,,,,,,,,,,,,,,,,,,,,,,,,,,,,,,,,,,,,,,,,,,,,,,,,,,,,,,,,,,,,,,
,,65830c7b2f2eac8713aed876,2024-02-19_04h14.28.658,kallum_motion_pilot,2023.2.2,Win32,60.60606061,65830c7b2f2eac8713aed876,65d2b6c8f2eece985d8e374c,65d2b957021102d092193377,0.0491,0.0491,1,11,173,108,1,sevenfive,,,,,,,,,,,,,,,,,,,,,,,,,,,,,,,,,,,,,,,,,,,,,,,,,,,,,,,,,,,,,,,,,,,,,,,,,,,,,,,,,,,,,,,,,,,,,,,,,,,,,,,,,,,,,,,,,,,,,,,,,,,,,,,,,,,,,,,,,
,,65830c7b2f2eac8713aed876,2024-02-19_04h14.28.658,kallum_motion_pilot,2023.2.2,Win32,60.60606061,65830c7b2f2eac8713aed876,65d2b6c8f2eece985d8e374c,65d2b957021102d092193377,0.0492,0.0493,1,12,174,8,1,onetwo,,,,,,,,,,,,,,,,,,,,,,,,,,,,,,,,,,,,,,,,,,,,,,,,,,,,,,,,,,,,,,,,,,,,,,,,,,,,,,,,,,,,,,,,,,,,,,,,,,,,,,,,,,,,,,,,,,,,,,,,,,,,,,,,,,,,,,,,,
,,65830c7b2f2eac8713aed876,2024-02-19_04h14.28.658,kallum_motion_pilot,2023.2.2,Win32,60.60606061,65830c7b2f2eac8713aed876,65d2b6c8f2eece985d8e374c,65d2b957021102d092193377,0.0493,0.0493,1,13,175,2,1,twoone,,,,,,,,,,,,,,,,,,,,,,,,,,,,,,,,,,,,,,,,,,,,,,,,,,,,,,,,,,,,,,,,,,,,,,,,,,,,,,,,,,,,,,,,,,,,,,,,,,,,,,,,,,,,,,,,,,,,,,,,,,,,,,,,,,,,,,,,,
,,65830c7b2f2eac8713aed876,2024-02-19_04h14.28.658,kallum_motion_pilot,2023.2.2,Win32,60.60606061,65830c7b2f2eac8713aed876,65d2b6c8f2eece985d8e374c,65d2b957021102d092193377,0.0495,0.0495,1,14,176,49,1,onethree,,,,,,,,,,,,,,,,,,,,,,,,,,,,,,,,,,,,,,,,,,,,,,,,,,,,,,,,,,,,,,,,,,,,,,,,,,,,,,,,,,,,,,,,,,,,,,,,,,,,,,,,,,,,,,,,,,,,,,,,,,,,,,,,,,,,,,,,,
,,65830c7b2f2eac8713aed876,2024-02-19_04h14.28.658,kallum_motion_pilot,2023.2.2,Win32,60.60606061,65830c7b2f2eac8713aed876,65d2b6c8f2eece985d8e374c,65d2b957021102d092193377,0.0495,0.0495,1,15,177,132,1,sevenfive,,,,,,,,,,,,,,,,,,,,,,,,,,,,,,,,,,,,,,,,,,,,,,,,,,,,,,,,,,,,,,,,,,,,,,,,,,,,,,,,,,,,,,,,,,,,,,,,,,,,,,,,,,,,,,,,,,,,,,,,,,,,,,,,,,,,,,,,,
,,65830c7b2f2eac8713aed876,2024-02-19_04h14.28.658,kallum_motion_pilot,2023.2.2,Win32,60.60606061,65830c7b2f2eac8713aed876,65d2b6c8f2eece985d8e374c,65d2b957021102d092193377,0.0497,0.0497,1,16,178,115,1,sixeight,,,,,,,,,,,,,,,,,,,,,,,,,,,,,,,,,,,,,,,,,,,,,,,,,,,,,,,,,,,,,,,,,,,,,,,,,,,,,,,,,,,,,,,,,,,,,,,,,,,,,,,,,,,,,,,,,,,,,,,,,,,,,,,,,,,,,,,,,
,,65830c7b2f2eac8713aed876,2024-02-19_04h14.28.658,kallum_motion_pilot,2023.2.2,Win32,60.60606061,65830c7b2f2eac8713aed876,65d2b6c8f2eece985d8e374c,65d2b957021102d092193377,0.0498,0.0498,1,17,179,147,1,sixeight,,,,,,,,,,,,,,,,,,,,,,,,,,,,,,,,,,,,,,,,,,,,,,,,,,,,,,,,,,,,,,,,,,,,,,,,,,,,,,,,,,,,,,,,,,,,,,,,,,,,,,,,,,,,,,,,,,,,,,,,,,,,,,,,,,,,,,,,,
,,65830c7b2f2eac8713aed876,2024-02-19_04h14.28.658,kallum_motion_pilot,2023.2.2,Win32,60.60606061,65830c7b2f2eac8713aed876,65d2b6c8f2eece985d8e374c,65d2b957021102d092193377,0.0498,0.0499,1,18,180,58,1,twoone,,,,,,,,,,,,,,,,,,,,,,,,,,,,,,,,,,,,,,,,,,,,,,,,,,,,,,,,,,,,,,,,,,,,,,,,,,,,,,,,,,,,,,,,,,,,,,,,,,,,,,,,,,,,,,,,,,,,,,,,,,,,,,,,,,,,,,,,,
,,65830c7b2f2eac8713aed876,2024-02-19_04h14.28.658,kallum_motion_pilot,2023.2.2,Win32,60.60606061,65830c7b2f2eac8713aed876,65d2b6c8f2eece985d8e374c,65d2b957021102d092193377,0.0499,0.0501,1,19,181,34,1,twoone,,,,,,,,,,,,,,,,,,,,,,,,,,,,,,,,,,,,,,,,,,,,,,,,,,,,,,,,,,,,,,,,,,,,,,,,,,,,,,,,,,,,,,,,,,,,,,,,,,,,,,,,,,,,,,,,,,,,,,,,,,,,,,,,,,,,,,,,,
,,65830c7b2f2eac8713aed876,2024-02-19_04h14.28.658,kallum_motion_pilot,2023.2.2,Win32,60.60606061,65830c7b2f2eac8713aed876,65d2b6c8f2eece985d8e374c,65d2b957021102d092193377,0.0501,0.0501,1,20,182,37,1,threefour,,,,,,,,,,,,,,,,,,,,,,,,,,,,,,,,,,,,,,,,,,,,,,,,,,,,,,,,,,,,,,,,,,,,,,,,,,,,,,,,,,,,,,,,,,,,,,,,,,,,,,,,,,,,,,,,,,,,,,,,,,,,,,,,,,,,,,,,,
,,65830c7b2f2eac8713aed876,2024-02-19_04h14.28.658,kallum_motion_pilot,2023.2.2,Win32,60.60606061,65830c7b2f2eac8713aed876,65d2b6c8f2eece985d8e374c,65d2b957021102d092193377,0.0502,0.0502,1,21,183,126,1,eightsix,,,,,,,,,,,,,,,,,,,,,,,,,,,,,,,,,,,,,,,,,,,,,,,,,,,,,,,,,,,,,,,,,,,,,,,,,,,,,,,,,,,,,,,,,,,,,,,,,,,,,,,,,,,,,,,,,,,,,,,,,,,,,,,,,,,,,,,,,
,,65830c7b2f2eac8713aed876,2024-02-19_04h14.28.658,kallum_motion_pilot,2023.2.2,Win32,60.60606061,65830c7b2f2eac8713aed876,65d2b6c8f2eece985d8e374c,65d2b957021102d092193377,0.0503,0.0504,1,22,184,148,1,sevenfive,,,,,,,,,,,,,,,,,,,,,,,,,,,,,,,,,,,,,,,,,,,,,,,,,,,,,,,,,,,,,,,,,,,,,,,,,,,,,,,,,,,,,,,,,,,,,,,,,,,,,,,,,,,,,,,,,,,,,,,,,,,,,,,,,,,,,,,,,
,,65830c7b2f2eac8713aed876,2024-02-19_04h14.28.658,kallum_motion_pilot,2023.2.2,Win32,60.60606061,65830c7b2f2eac8713aed876,65d2b6c8f2eece985d8e374c,65d2b957021102d092193377,0.0505,0.0505,1,23,185,1,1,onethree,,,,,,,,,,,,,,,,,,,,,,,,,,,,,,,,,,,,,,,,,,,,,,,,,,,,,,,,,,,,,,,,,,,,,,,,,,,,,,,,,,,,,,,,,,,,,,,,,,,,,,,,,,,,,,,,,,,,,,,,,,,,,,,,,,,,,,,,,
,,65830c7b2f2eac8713aed876,2024-02-19_04h14.28.658,kallum_motion_pilot,2023.2.2,Win32,60.60606061,65830c7b2f2eac8713aed876,65d2b6c8f2eece985d8e374c,65d2b957021102d092193377,0.0505,0.0506,1,24,186,138,1,sixfive,,,,,,,,,,,,,,,,,,,,,,,,,,,,,,,,,,,,,,,,,,,,,,,,,,,,,,,,,,,,,,,,,,,,,,,,,,,,,,,,,,,,,,,,,,,,,,,,,,,,,,,,,,,,,,,,,,,,,,,,,,,,,,,,,,,,,,,,,
,,65830c7b2f2eac8713aed876,2024-02-19_04h14.28.658,kallum_motion_pilot,2023.2.2,Win32,60.60606061,65830c7b2f2eac8713aed876,65d2b6c8f2eece985d8e374c,65d2b957021102d092193377,0.0507,0.0508,1,25,187,153,1,fiveseven,,,,,,,,,,,,,,,,,,,,,,,,,,,,,,,,,,,,,,,,,,,,,,,,,,,,,,,,,,,,,,,,,,,,,,,,,,,,,,,,,,,,,,,,,,,,,,,,,,,,,,,,,,,,,,,,,,,,,,,,,,,,,,,,,,,,,,,,,
,,65830c7b2f2eac8713aed876,2024-02-19_04h14.28.658,kallum_motion_pilot,2023.2.2,Win32,60.60606061,65830c7b2f2eac8713aed876,65d2b6c8f2eece985d8e374c,65d2b957021102d092193377,0.0509,0.0509,1,26,188,145,1,fiveseven,,,,,,,,,,,,,,,,,,,,,,,,,,,,,,,,,,,,,,,,,,,,,,,,,,,,,,,,,,,,,,,,,,,,,,,,,,,,,,,,,,,,,,,,,,,,,,,,,,,,,,,,,,,,,,,,,,,,,,,,,,,,,,,,,,,,,,,,,
,,65830c7b2f2eac8713aed876,2024-02-19_04h14.28.658,kallum_motion_pilot,2023.2.2,Win32,60.60606061,65830c7b2f2eac8713aed876,65d2b6c8f2eece985d8e374c,65d2b957021102d092193377,0.0509,0.051,1,27,189,61,1,threefour,,,,,,,,,,,,,,,,,,,,,,,,,,,,,,,,,,,,,,,,,,,,,,,,,,,,,,,,,,,,,,,,,,,,,,,,,,,,,,,,,,,,,,,,,,,,,,,,,,,,,,,,,,,,,,,,,,,,,,,,,,,,,,,,,,,,,,,,,
,,65830c7b2f2eac8713aed876,2024-02-19_04h14.28.658,kallum_motion_pilot,2023.2.2,Win32,60.60606061,65830c7b2f2eac8713aed876,65d2b6c8f2eece985d8e374c,65d2b957021102d092193377,0.0511,0.0512,1,28,190,46,1,fourtwo,,,,,,,,,,,,,,,,,,,,,,,,,,,,,,,,,,,,,,,,,,,,,,,,,,,,,,,,,,,,,,,,,,,,,,,,,,,,,,,,,,,,,,,,,,,,,,,,,,,,,,,,,,,,,,,,,,,,,,,,,,,,,,,,,,,,,,,,,
,,65830c7b2f2eac8713aed876,2024-02-19_04h14.28.658,kallum_motion_pilot,2023.2.2,Win32,60.60606061,65830c7b2f2eac8713aed876,65d2b6c8f2eece985d8e374c,65d2b957021102d092193377,0.0513,0.0513,1,29,191,135,1,eightseven,,,,,,,,,,,,,,,,,,,,,,,,,,,,,,,,,,,,,,,,,,,,,,,,,,,,,,,,,,,,,,,,,,,,,,,,,,,,,,,,,,,,,,,,,,,,,,,,,,,,,,,,,,,,,,,,,,,,,,,,,,,,,,,,,,,,,,,,,
,,65830c7b2f2eac8713aed876,2024-02-19_04h14.28.658,kallum_motion_pilot,2023.2.2,Win32,60.60606061,65830c7b2f2eac8713aed876,65d2b6c8f2eece985d8e374c,65d2b957021102d092193377,0.0514,0.0514,1,30,192,83,1,sixeight,,,,,,,,,,,,,,,,,,,,,,,,,,,,,,,,,,,,,,,,,,,,,,,,,,,,,,,,,,,,,,,,,,,,,,,,,,,,,,,,,,,,,,,,,,,,,,,,,,,,,,,,,,,,,,,,,,,,,,,,,,,,,,,,,,,,,,,,,
,,65830c7b2f2eac8713aed876,2024-02-19_04h14.28.658,kallum_motion_pilot,2023.2.2,Win32,60.60606061,65830c7b2f2eac8713aed876,65d2b6c8f2eece985d8e374c,65d2b957021102d092193377,0.0515,0.0515,1,31,193,73,1,onethree,,,,,,,,,,,,,,,,,,,,,,,,,,,,,,,,,,,,,,,,,,,,,,,,,,,,,,,,,,,,,,,,,,,,,,,,,,,,,,,,,,,,,,,,,,,,,,,,,,,,,,,,,,,,,,,,,,,,,,,,,,,,,,,,,,,,,,,,,
,,65830c7b2f2eac8713aed876,2024-02-19_04h14.28.658,kallum_motion_pilot,2023.2.2,Win32,60.60606061,65830c7b2f2eac8713aed876,65d2b6c8f2eece985d8e374c,65d2b957021102d092193377,0.0516,0.0516,1,32,194,12,1,threeone,,,,,,,,,,,,,,,,,,,,,,,,,,,,,,,,,,,,,,,,,,,,,,,,,,,,,,,,,,,,,,,,,,,,,,,,,,,,,,,,,,,,,,,,,,,,,,,,,,,,,,,,,,,,,,,,,,,,,,,,,,,,,,,,,,,,,,,,,
,,65830c7b2f2eac8713aed876,2024-02-19_04h14.28.658,kallum_motion_pilot,2023.2.2,Win32,60.60606061,65830c7b2f2eac8713aed876,65d2b6c8f2eece985d8e374c,65d2b957021102d092193377,0.0517,0.0518,1,33,195,140,1,sevenfive,,,,,,,,,,,,,,,,,,,,,,,,,,,,,,,,,,,,,,,,,,,,,,,,,,,,,,,,,,,,,,,,,,,,,,,,,,,,,,,,,,,,,,,,,,,,,,,,,,,,,,,,,,,,,,,,,,,,,,,,,,,,,,,,,,,,,,,,,
,,65830c7b2f2eac8713aed876,2024-02-19_04h14.28.658,kallum_motion_pilot,2023.2.2,Win32,60.60606061,65830c7b2f2eac8713aed876,65d2b6c8f2eece985d8e374c,65d2b957021102d092193377,0.0519,0.0519,1,34,196,59,1,twofour,,,,,,,,,,,,,,,,,,,,,,,,,,,,,,,,,,,,,,,,,,,,,,,,,,,,,,,,,,,,,,,,,,,,,,,,,,,,,,,,,,,,,,,,,,,,,,,,,,,,,,,,,,,,,,,,,,,,,,,,,,,,,,,,,,,,,,,,,
,,65830c7b2f2eac8713aed876,2024-02-19_04h14.28.658,kallum_motion_pilot,2023.2.2,Win32,60.60606061,65830c7b2f2eac8713aed876,65d2b6c8f2eece985d8e374c,65d2b957021102d092193377,0.052,0.052,1,35,197,91,1,sixeight,,,,,,,,,,,,,,,,,,,,,,,,,,,,,,,,,,,,,,,,,,,,,,,,,,,,,,,,,,,,,,,,,,,,,,,,,,,,,,,,,,,,,,,,,,,,,,,,,,,,,,,,,,,,,,,,,,,,,,,,,,,,,,,,,,,,,,,,,
,,65830c7b2f2eac8713aed876,2024-02-19_04h14.28.658,kallum_motion_pilot,2023.2.2,Win32,60.60606061,65830c7b2f2eac8713aed876,65d2b6c8f2eece985d8e374c,65d2b957021102d092193377,0.0521,0.0523,1,36,198,45,1,threefour,,,,,,,,,,,,,,,,,,,,,,,,,,,,,,,,,,,,,,,,,,,,,,,,,,,,,,,,,,,,,,,,,,,,,,,,,,,,,,,,,,,,,,,,,,,,,,,,,,,,,,,,,,,,,,,,,,,,,,,,,,,,,,,,,,,,,,,,,
,,65830c7b2f2eac8713aed876,2024-02-19_04h14.28.658,kallum_motion_pilot,2023.2.2,Win32,60.60606061,65830c7b2f2eac8713aed876,65d2b6c8f2eece985d8e374c,65d2b957021102d092193377,0.0523,0.0523,1,37,199,54,1,fourtwo,,,,,,,,,,,,,,,,,,,,,,,,,,,,,,,,,,,,,,,,,,,,,,,,,,,,,,,,,,,,,,,,,,,,,,,,,,,,,,,,,,,,,,,,,,,,,,,,,,,,,,,,,,,,,,,,,,,,,,,,,,,,,,,,,,,,,,,,,
,,65830c7b2f2eac8713aed876,2024-02-19_04h14.28.658,kallum_motion_pilot,2023.2.2,Win32,60.60606061,65830c7b2f2eac8713aed876,65d2b6c8f2eece985d8e374c,65d2b957021102d092193377,0.0524,0.0525,1,38,200,128,1,fivesix,,,,,,,,,,,,,,,,,,,,,,,,,,,,,,,,,,,,,,,,,,,,,,,,,,,,,,,,,,,,,,,,,,,,,,,,,,,,,,,,,,,,,,,,,,,,,,,,,,,,,,,,,,,,,,,,,,,,,,,,,,,,,,,,,,,,,,,,,
,,65830c7b2f2eac8713aed876,2024-02-19_04h14.28.658,kallum_motion_pilot,2023.2.2,Win32,60.60606061,65830c7b2f2eac8713aed876,65d2b6c8f2eece985d8e374c,65d2b957021102d092193377,0.0525,0.0526,1,39,201,80,1,fivesix,,,,,,,,,,,,,,,,,,,,,,,,,,,,,,,,,,,,,,,,,,,,,,,,,,,,,,,,,,,,,,,,,,,,,,,,,,,,,,,,,,,,,,,,,,,,,,,,,,,,,,,,,,,,,,,,,,,,,,,,,,,,,,,,,,,,,,,,,
,,65830c7b2f2eac8713aed876,2024-02-19_04h14.28.658,kallum_motion_pilot,2023.2.2,Win32,60.60606061,65830c7b2f2eac8713aed876,65d2b6c8f2eece985d8e374c,65d2b957021102d092193377,0.0527,0.0528,1,40,202,106,1,sixfive,,,,,,,,,,,,,,,,,,,,,,,,,,,,,,,,,,,,,,,,,,,,,,,,,,,,,,,,,,,,,,,,,,,,,,,,,,,,,,,,,,,,,,,,,,,,,,,,,,,,,,,,,,,,,,,,,,,,,,,,,,,,,,,,,,,,,,,,,
,,65830c7b2f2eac8713aed876,2024-02-19_04h14.28.658,kallum_motion_pilot,2023.2.2,Win32,60.60606061,65830c7b2f2eac8713aed876,65d2b6c8f2eece985d8e374c,65d2b957021102d092193377,0.0528,0.0528,1,41,203,102,1,eightsix,,,,,,,,,,,,,,,,,,,,,,,,,,,,,,,,,,,,,,,,,,,,,,,,,,,,,,,,,,,,,,,,,,,,,,,,,,,,,,,,,,,,,,,,,,,,,,,,,,,,,,,,,,,,,,,,,,,,,,,,,,,,,,,,,,,,,,,,,
,,65830c7b2f2eac8713aed876,2024-02-19_04h14.28.658,kallum_motion_pilot,2023.2.2,Win32,60.60606061,65830c7b2f2eac8713aed876,65d2b6c8f2eece985d8e374c,65d2b957021102d092193377,0.0529,0.053,1,42,204,21,1,threefour,,,,,,,,,,,,,,,,,,,,,,,,,,,,,,,,,,,,,,,,,,,,,,,,,,,,,,,,,,,,,,,,,,,,,,,,,,,,,,,,,,,,,,,,,,,,,,,,,,,,,,,,,,,,,,,,,,,,,,,,,,,,,,,,,,,,,,,,,
,,65830c7b2f2eac8713aed876,2024-02-19_04h14.28.658,kallum_motion_pilot,2023.2.2,Win32,60.60606061,65830c7b2f2eac8713aed876,65d2b6c8f2eece985d8e374c,65d2b957021102d092193377,0.053,0.053,1,43,205,84,1,sevenfive,,,,,,,,,,,,,,,,,,,,,,,,,,,,,,,,,,,,,,,,,,,,,,,,,,,,,,,,,,,,,,,,,,,,,,,,,,,,,,,,,,,,,,,,,,,,,,,,,,,,,,,,,,,,,,,,,,,,,,,,,,,,,,,,,,,,,,,,,
,,65830c7b2f2eac8713aed876,2024-02-19_04h14.28.658,kallum_motion_pilot,2023.2.2,Win32,60.60606061,65830c7b2f2eac8713aed876,65d2b6c8f2eece985d8e374c,65d2b957021102d092193377,0.0531,0.0532,1,44,206,137,1,fiveseven,,,,,,,,,,,,,,,,,,,,,,,,,,,,,,,,,,,,,,,,,,,,,,,,,,,,,,,,,,,,,,,,,,,,,,,,,,,,,,,,,,,,,,,,,,,,,,,,,,,,,,,,,,,,,,,,,,,,,,,,,,,,,,,,,,,,,,,,,
,,65830c7b2f2eac8713aed876,2024-02-19_04h14.28.658,kallum_motion_pilot,2023.2.2,Win32,60.60606061,65830c7b2f2eac8713aed876,65d2b6c8f2eece985d8e374c,65d2b957021102d092193377,0.0533,0.0533,1,45,207,78,1,fourtwo,,,,,,,,,,,,,,,,,,,,,,,,,,,,,,,,,,,,,,,,,,,,,,,,,,,,,,,,,,,,,,,,,,,,,,,,,,,,,,,,,,,,,,,,,,,,,,,,,,,,,,,,,,,,,,,,,,,,,,,,,,,,,,,,,,,,,,,,,
,,65830c7b2f2eac8713aed876,2024-02-19_04h14.28.658,kallum_motion_pilot,2023.2.2,Win32,60.60606061,65830c7b2f2eac8713aed876,65d2b6c8f2eece985d8e374c,65d2b957021102d092193377,0.0534,0.0535,1,46,208,143,1,eightseven,,,,,,,,,,,,,,,,,,,,,,,,,,,,,,,,,,,,,,,,,,,,,,,,,,,,,,,,,,,,,,,,,,,,,,,,,,,,,,,,,,,,,,,,,,,,,,,,,,,,,,,,,,,,,,,,,,,,,,,,,,,,,,,,,,,,,,,,,
,,65830c7b2f2eac8713aed876,2024-02-19_04h14.28.658,kallum_motion_pilot,2023.2.2,Win32,60.60606061,65830c7b2f2eac8713aed876,65d2b6c8f2eece985d8e374c,65d2b957021102d092193377,0.0536,0.0536,1,47,209,39,1,fourthree,,,,,,,,,,,,,,,,,,,,,,,,,,,,,,,,,,,,,,,,,,,,,,,,,,,,,,,,,,,,,,,,,,,,,,,,,,,,,,,,,,,,,,,,,,,,,,,,,,,,,,,,,,,,,,,,,,,,,,,,,,,,,,,,,,,,,,,,,
,,65830c7b2f2eac8713aed876,2024-02-19_04h14.28.658,kallum_motion_pilot,2023.2.2,Win32,60.60606061,65830c7b2f2eac8713aed876,65d2b6c8f2eece985d8e374c,65d2b957021102d092193377,0.0537,0.0538,1,48,210,119,1,eightseven,,,,,,,,,,,,,,,,,,,,,,,,,,,,,,,,,,,,,,,,,,,,,,,,,,,,,,,,,,,,,,,,,,,,,,,,,,,,,,,,,,,,,,,,,,,,,,,,,,,,,,,,,,,,,,,,,,,,,,,,,,,,,,,,,,,,,,,,,
,,65830c7b2f2eac8713aed876,2024-02-19_04h14.28.658,kallum_motion_pilot,2023.2.2,Win32,60.60606061,65830c7b2f2eac8713aed876,65d2b6c8f2eece985d8e374c,65d2b957021102d092193377,0.0539,0.054,1,49,211,142,1,eightsix,,,,,,,,,,,,,,,,,,,,,,,,,,,,,,,,,,,,,,,,,,,,,,,,,,,,,,,,,,,,,,,,,,,,,,,,,,,,,,,,,,,,,,,,,,,,,,,,,,,,,,,,,,,,,,,,,,,,,,,,,,,,,,,,,,,,,,,,,
,,65830c7b2f2eac8713aed876,2024-02-19_04h14.28.658,kallum_motion_pilot,2023.2.2,Win32,60.60606061,65830c7b2f2eac8713aed876,65d2b6c8f2eece985d8e374c,65d2b957021102d092193377,0.0541,0.0541,1,50,212,65,1,onethree,,,,,,,,,,,,,,,,,,,,,,,,,,,,,,,,,,,,,,,,,,,,,,,,,,,,,,,,,,,,,,,,,,,,,,,,,,,,,,,,,,,,,,,,,,,,,,,,,,,,,,,,,,,,,,,,,,,,,,,,,,,,,,,,,,,,,,,,,
,,65830c7b2f2eac8713aed876,2024-02-19_04h14.28.658,kallum_motion_pilot,2023.2.2,Win32,60.60606061,65830c7b2f2eac8713aed876,65d2b6c8f2eece985d8e374c,65d2b957021102d092193377,0.0542,0.0542,1,51,213,112,1,fivesix,,,,,,,,,,,,,,,,,,,,,,,,,,,,,,,,,,,,,,,,,,,,,,,,,,,,,,,,,,,,,,,,,,,,,,,,,,,,,,,,,,,,,,,,,,,,,,,,,,,,,,,,,,,,,,,,,,,,,,,,,,,,,,,,,,,,,,,,,
,,65830c7b2f2eac8713aed876,2024-02-19_04h14.28.658,kallum_motion_pilot,2023.2.2,Win32,60.60606061,65830c7b2f2eac8713aed876,65d2b6c8f2eece985d8e374c,65d2b957021102d092193377,0.0543,0.0544,1,52,214,124,1,sevenfive,,,,,,,,,,,,,,,,,,,,,,,,,,,,,,,,,,,,,,,,,,,,,,,,,,,,,,,,,,,,,,,,,,,,,,,,,,,,,,,,,,,,,,,,,,,,,,,,,,,,,,,,,,,,,,,,,,,,,,,,,,,,,,,,,,,,,,,,,
,,65830c7b2f2eac8713aed876,2024-02-19_04h14.28.658,kallum_motion_pilot,2023.2.2,Win32,60.60606061,65830c7b2f2eac8713aed876,65d2b6c8f2eece985d8e374c,65d2b957021102d092193377,0.0545,0.0545,1,53,215,44,1,threeone,,,,,,,,,,,,,,,,,,,,,,,,,,,,,,,,,,,,,,,,,,,,,,,,,,,,,,,,,,,,,,,,,,,,,,,,,,,,,,,,,,,,,,,,,,,,,,,,,,,,,,,,,,,,,,,,,,,,,,,,,,,,,,,,,,,,,,,,,
,,65830c7b2f2eac8713aed876,2024-02-19_04h14.28.658,kallum_motion_pilot,2023.2.2,Win32,60.60606061,65830c7b2f2eac8713aed876,65d2b6c8f2eece985d8e374c,65d2b957021102d092193377,0.0546,0.0547,1,54,216,160,1,fivesix,,,,,,,,,,,,,,,,,,,,,,,,,,,,,,,,,,,,,,,,,,,,,,,,,,,,,,,,,,,,,,,,,,,,,,,,,,,,,,,,,,,,,,,,,,,,,,,,,,,,,,,,,,,,,,,,,,,,,,,,,,,,,,,,,,,,,,,,,
,,65830c7b2f2eac8713aed876,2024-02-19_04h14.28.658,kallum_motion_pilot,2023.2.2,Win32,60.60606061,65830c7b2f2eac8713aed876,65d2b6c8f2eece985d8e374c,65d2b957021102d092193377,0.0547,0.0547,1,55,217,18,1,twoone,,,,,,,,,,,,,,,,,,,,,,,,,,,,,,,,,,,,,,,,,,,,,,,,,,,,,,,,,,,,,,,,,,,,,,,,,,,,,,,,,,,,,,,,,,,,,,,,,,,,,,,,,,,,,,,,,,,,,,,,,,,,,,,,,,,,,,,,,
,,65830c7b2f2eac8713aed876,2024-02-19_04h14.28.658,kallum_motion_pilot,2023.2.2,Win32,60.60606061,65830c7b2f2eac8713aed876,65d2b6c8f2eece985d8e374c,65d2b957021102d092193377,0.0548,0.0549,1,56,218,144,1,fivesix,,,,,,,,,,,,,,,,,,,,,,,,,,,,,,,,,,,,,,,,,,,,,,,,,,,,,,,,,,,,,,,,,,,,,,,,,,,,,,,,,,,,,,,,,,,,,,,,,,,,,,,,,,,,,,,,,,,,,,,,,,,,,,,,,,,,,,,,,
,,65830c7b2f2eac8713aed876,2024-02-19_04h14.28.658,kallum_motion_pilot,2023.2.2,Win32,60.60606061,65830c7b2f2eac8713aed876,65d2b6c8f2eece985d8e374c,65d2b957021102d092193377,0.0549,0.055,1,57,219,29,1,threefour,,,,,,,,,,,,,,,,,,,,,,,,,,,,,,,,,,,,,,,,,,,,,,,,,,,,,,,,,,,,,,,,,,,,,,,,,,,,,,,,,,,,,,,,,,,,,,,,,,,,,,,,,,,,,,,,,,,,,,,,,,,,,,,,,,,,,,,,,
,,65830c7b2f2eac8713aed876,2024-02-19_04h14.28.658,kallum_motion_pilot,2023.2.2,Win32,60.60606061,65830c7b2f2eac8713aed876,65d2b6c8f2eece985d8e374c,65d2b957021102d092193377,0.055,0.0551,1,58,220,36,1,threeone,,,,,,,,,,,,,,,,,,,,,,,,,,,,,,,,,,,,,,,,,,,,,,,,,,,,,,,,,,,,,,,,,,,,,,,,,,,,,,,,,,,,,,,,,,,,,,,,,,,,,,,,,,,,,,,,,,,,,,,,,,,,,,,,,,,,,,,,,
,,65830c7b2f2eac8713aed876,2024-02-19_04h14.28.658,kallum_motion_pilot,2023.2.2,Win32,60.60606061,65830c7b2f2eac8713aed876,65d2b6c8f2eece985d8e374c,65d2b957021102d092193377,0.0551,0.0552,1,59,221,50,1,twoone,,,,,,,,,,,,,,,,,,,,,,,,,,,,,,,,,,,,,,,,,,,,,,,,,,,,,,,,,,,,,,,,,,,,,,,,,,,,,,,,,,,,,,,,,,,,,,,,,,,,,,,,,,,,,,,,,,,,,,,,,,,,,,,,,,,,,,,,,
,,65830c7b2f2eac8713aed876,2024-02-19_04h14.28.658,kallum_motion_pilot,2023.2.2,Win32,60.60606061,65830c7b2f2eac8713aed876,65d2b6c8f2eece985d8e374c,65d2b957021102d092193377,0.0552,0.0553,1,60,222,151,1,eightseven,,,,,,,,,,,,,,,,,,,,,,,,,,,,,,,,,,,,,,,,,,,,,,,,,,,,,,,,,,,,,,,,,,,,,,,,,,,,,,,,,,,,,,,,,,,,,,,,,,,,,,,,,,,,,,,,,,,,,,,,,,,,,,,,,,,,,,,,,
,,65830c7b2f2eac8713aed876,2024-02-19_04h14.28.658,kallum_motion_pilot,2023.2.2,Win32,60.60606061,65830c7b2f2eac8713aed876,65d2b6c8f2eece985d8e374c,65d2b957021102d092193377,0.0554,0.0554,1,61,223,69,1,threefour,,,,,,,,,,,,,,,,,,,,,,,,,,,,,,,,,,,,,,,,,,,,,,,,,,,,,,,,,,,,,,,,,,,,,,,,,,,,,,,,,,,,,,,,,,,,,,,,,,,,,,,,,,,,,,,,,,,,,,,,,,,,,,,,,,,,,,,,,
,,65830c7b2f2eac8713aed876,2024-02-19_04h14.28.658,kallum_motion_pilot,2023.2.2,Win32,60.60606061,65830c7b2f2eac8713aed876,65d2b6c8f2eece985d8e374c,65d2b957021102d092193377,0.0555,0.0556,1,62,224,113,1,fiveseven,,,,,,,,,,,,,,,,,,,,,,,,,,,,,,,,,,,,,,,,,,,,,,,,,,,,,,,,,,,,,,,,,,,,,,,,,,,,,,,,,,,,,,,,,,,,,,,,,,,,,,,,,,,,,,,,,,,,,,,,,,,,,,,,,,,,,,,,,
,,65830c7b2f2eac8713aed876,2024-02-19_04h14.28.658,kallum_motion_pilot,2023.2.2,Win32,60.60606061,65830c7b2f2eac8713aed876,65d2b6c8f2eece985d8e374c,65d2b957021102d092193377,0.0556,0.0557,1,63,225,155,1,sixeight,,,,,,,,,,,,,,,,,,,,,,,,,,,,,,,,,,,,,,,,,,,,,,,,,,,,,,,,,,,,,,,,,,,,,,,,,,,,,,,,,,,,,,,,,,,,,,,,,,,,,,,,,,,,,,,,,,,,,,,,,,,,,,,,,,,,,,,,,
,,65830c7b2f2eac8713aed876,2024-02-19_04h14.28.658,kallum_motion_pilot,2023.2.2,Win32,60.60606061,65830c7b2f2eac8713aed876,65d2b6c8f2eece985d8e374c,65d2b957021102d092193377,0.0558,0.0558,1,64,226,74,1,twoone,,,,,,,,,,,,,,,,,,,,,,,,,,,,,,,,,,,,,,,,,,,,,,,,,,,,,,,,,,,,,,,,,,,,,,,,,,,,,,,,,,,,,,,,,,,,,,,,,,,,,,,,,,,,,,,,,,,,,,,,,,,,,,,,,,,,,,,,,
,,65830c7b2f2eac8713aed876,2024-02-19_04h14.28.658,kallum_motion_pilot,2023.2.2,Win32,60.60606061,65830c7b2f2eac8713aed876,65d2b6c8f2eece985d8e374c,65d2b957021102d092193377,0.0559,0.0559,1,65,227,81,1,fiveseven,,,,,,,,,,,,,,,,,,,,,,,,,,,,,,,,,,,,,,,,,,,,,,,,,,,,,,,,,,,,,,,,,,,,,,,,,,,,,,,,,,,,,,,,,,,,,,,,,,,,,,,,,,,,,,,,,,,,,,,,,,,,,,,,,,,,,,,,,
,,65830c7b2f2eac8713aed876,2024-02-19_04h14.28.658,kallum_motion_pilot,2023.2.2,Win32,60.60606061,65830c7b2f2eac8713aed876,65d2b6c8f2eece985d8e374c,65d2b957021102d092193377,0.056,0.0561,1,66,228,109,1,seveneight,,,,,,,,,,,,,,,,,,,,,,,,,,,,,,,,,,,,,,,,,,,,,,,,,,,,,,,,,,,,,,,,,,,,,,,,,,,,,,,,,,,,,,,,,,,,,,,,,,,,,,,,,,,,,,,,,,,,,,,,,,,,,,,,,,,,,,,,,
,,65830c7b2f2eac8713aed876,2024-02-19_04h14.28.658,kallum_motion_pilot,2023.2.2,Win32,60.60606061,65830c7b2f2eac8713aed876,65d2b6c8f2eece985d8e374c,65d2b957021102d092193377,0.0561,0.0561,1,67,229,118,1,eightsix,,,,,,,,,,,,,,,,,,,,,,,,,,,,,,,,,,,,,,,,,,,,,,,,,,,,,,,,,,,,,,,,,,,,,,,,,,,,,,,,,,,,,,,,,,,,,,,,,,,,,,,,,,,,,,,,,,,,,,,,,,,,,,,,,,,,,,,,,
,,65830c7b2f2eac8713aed876,2024-02-19_04h14.28.658,kallum_motion_pilot,2023.2.2,Win32,60.60606061,65830c7b2f2eac8713aed876,65d2b6c8f2eece985d8e374c,65d2b957021102d092193377,0.0562,0.0564,1,68,230,123,1,sixeight,,,,,,,,,,,,,,,,,,,,,,,,,,,,,,,,,,,,,,,,,,,,,,,,,,,,,,,,,,,,,,,,,,,,,,,,,,,,,,,,,,,,,,,,,,,,,,,,,,,,,,,,,,,,,,,,,,,,,,,,,,,,,,,,,,,,,,,,,
,,65830c7b2f2eac8713aed876,2024-02-19_04h14.28.658,kallum_motion_pilot,2023.2.2,Win32,60.60606061,65830c7b2f2eac8713aed876,65d2b6c8f2eece985d8e374c,65d2b957021102d092193377,0.0564,0.0565,1,69,231,60,1,threeone,,,,,,,,,,,,,,,,,,,,,,,,,,,,,,,,,,,,,,,,,,,,,,,,,,,,,,,,,,,,,,,,,,,,,,,,,,,,,,,,,,,,,,,,,,,,,,,,,,,,,,,,,,,,,,,,,,,,,,,,,,,,,,,,,,,,,,,,,
,,65830c7b2f2eac8713aed876,2024-02-19_04h14.28.658,kallum_motion_pilot,2023.2.2,Win32,60.60606061,65830c7b2f2eac8713aed876,65d2b6c8f2eece985d8e374c,65d2b957021102d092193377,0.0566,0.0566,1,70,232,122,1,sixfive,,,,,,,,,,,,,,,,,,,,,,,,,,,,,,,,,,,,,,,,,,,,,,,,,,,,,,,,,,,,,,,,,,,,,,,,,,,,,,,,,,,,,,,,,,,,,,,,,,,,,,,,,,,,,,,,,,,,,,,,,,,,,,,,,,,,,,,,,
,,65830c7b2f2eac8713aed876,2024-02-19_04h14.28.658,kallum_motion_pilot,2023.2.2,Win32,60.60606061,65830c7b2f2eac8713aed876,65d2b6c8f2eece985d8e374c,65d2b957021102d092193377,0.0566,0.0567,1,71,233,98,1,sixfive,,,,,,,,,,,,,,,,,,,,,,,,,,,,,,,,,,,,,,,,,,,,,,,,,,,,,,,,,,,,,,,,,,,,,,,,,,,,,,,,,,,,,,,,,,,,,,,,,,,,,,,,,,,,,,,,,,,,,,,,,,,,,,,,,,,,,,,,,
,,65830c7b2f2eac8713aed876,2024-02-19_04h14.28.658,kallum_motion_pilot,2023.2.2,Win32,60.60606061,65830c7b2f2eac8713aed876,65d2b6c8f2eece985d8e374c,65d2b957021102d092193377,0.0568,0.0568,1,72,234,116,1,sevenfive,,,,,,,,,,,,,,,,,,,,,,,,,,,,,,,,,,,,,,,,,,,,,,,,,,,,,,,,,,,,,,,,,,,,,,,,,,,,,,,,,,,,,,,,,,,,,,,,,,,,,,,,,,,,,,,,,,,,,,,,,,,,,,,,,,,,,,,,,
,,65830c7b2f2eac8713aed876,2024-02-19_04h14.28.658,kallum_motion_pilot,2023.2.2,Win32,60.60606061,65830c7b2f2eac8713aed876,65d2b6c8f2eece985d8e374c,65d2b957021102d092193377,0.0569,0.0569,1,73,235,10,1,twoone,,,,,,,,,,,,,,,,,,,,,,,,,,,,,,,,,,,,,,,,,,,,,,,,,,,,,,,,,,,,,,,,,,,,,,,,,,,,,,,,,,,,,,,,,,,,,,,,,,,,,,,,,,,,,,,,,,,,,,,,,,,,,,,,,,,,,,,,,
,,65830c7b2f2eac8713aed876,2024-02-19_04h14.28.658,kallum_motion_pilot,2023.2.2,Win32,60.60606061,65830c7b2f2eac8713aed876,65d2b6c8f2eece985d8e374c,65d2b957021102d092193377,0.057,0.057,1,74,236,72,1,onetwo,,,,,,,,,,,,,,,,,,,,,,,,,,,,,,,,,,,,,,,,,,,,,,,,,,,,,,,,,,,,,,,,,,,,,,,,,,,,,,,,,,,,,,,,,,,,,,,,,,,,,,,,,,,,,,,,,,,,,,,,,,,,,,,,,,,,,,,,,
,,65830c7b2f2eac8713aed876,2024-02-19_04h14.28.658,kallum_motion_pilot,2023.2.2,Win32,60.60606061,65830c7b2f2eac8713aed876,65d2b6c8f2eece985d8e374c,65d2b957021102d092193377,0.0571,0.0573,1,75,237,55,1,fourthree,,,,,,,,,,,,,,,,,,,,,,,,,,,,,,,,,,,,,,,,,,,,,,,,,,,,,,,,,,,,,,,,,,,,,,,,,,,,,,,,,,,,,,,,,,,,,,,,,,,,,,,,,,,,,,,,,,,,,,,,,,,,,,,,,,,,,,,,,
,,65830c7b2f2eac8713aed876,2024-02-19_04h14.28.658,kallum_motion_pilot,2023.2.2,Win32,60.60606061,65830c7b2f2eac8713aed876,65d2b6c8f2eece985d8e374c,65d2b957021102d092193377,0.0573,0.0574,1,76,238,62,1,fourtwo,,,,,,,,,,,,,,,,,,,,,,,,,,,,,,,,,,,,,,,,,,,,,,,,,,,,,,,,,,,,,,,,,,,,,,,,,,,,,,,,,,,,,,,,,,,,,,,,,,,,,,,,,,,,,,,,,,,,,,,,,,,,,,,,,,,,,,,,,
,,65830c7b2f2eac8713aed876,2024-02-19_04h14.28.658,kallum_motion_pilot,2023.2.2,Win32,60.60606061,65830c7b2f2eac8713aed876,65d2b6c8f2eece985d8e374c,65d2b957021102d092193377,0.0574,0.0574,1,77,239,0,1,onetwo,,,,,,,,,,,,,,,,,,,,,,,,,,,,,,,,,,,,,,,,,,,,,,,,,,,,,,,,,,,,,,,,,,,,,,,,,,,,,,,,,,,,,,,,,,,,,,,,,,,,,,,,,,,,,,,,,,,,,,,,,,,,,,,,,,,,,,,,,
,,65830c7b2f2eac8713aed876,2024-02-19_04h14.28.658,kallum_motion_pilot,2023.2.2,Win32,60.60606061,65830c7b2f2eac8713aed876,65d2b6c8f2eece985d8e374c,65d2b957021102d092193377,0.0575,0.0576,1,78,240,63,1,fourthree,,,,,,,,,,,,,,,,,,,,,,,,,,,,,,,,,,,,,,,,,,,,,,,,,,,,,,,,,,,,,,,,,,,,,,,,,,,,,,,,,,,,,,,,,,,,,,,,,,,,,,,,,,,,,,,,,,,,,,,,,,,,,,,,,,,,,,,,,
,,65830c7b2f2eac8713aed876,2024-02-19_04h14.28.658,kallum_motion_pilot,2023.2.2,Win32,60.60606061,65830c7b2f2eac8713aed876,65d2b6c8f2eece985d8e374c,65d2b957021102d092193377,0.0577,0.0577,1,79,241,52,1,threeone,,,,,,,,,,,,,,,,,,,,,,,,,,,,,,,,,,,,,,,,,,,,,,,,,,,,,,,,,,,,,,,,,,,,,,,,,,,,,,,,,,,,,,,,,,,,,,,,,,,,,,,,,,,,,,,,,,,,,,,,,,,,,,,,,,,,,,,,,
,,65830c7b2f2eac8713aed876,2024-02-19_04h14.28.658,kallum_motion_pilot,2023.2.2,Win32,60.60606061,65830c7b2f2eac8713aed876,65d2b6c8f2eece985d8e374c,65d2b957021102d092193377,0.0577,0.0578,1,80,242,100,1,sevenfive,,,,,,,,,,,,,,,,,,,,,,,,,,,,,,,,,,,,,,,,,,,,,,,,,,,,,,,,,,,,,,,,,,,,,,,,,,,,,,,,,,,,,,,,,,,,,,,,,,,,,,,,,,,,,,,,,,,,,,,,,,,,,,,,,,,,,,,,,
,,65830c7b2f2eac8713aed876,2024-02-19_04h14.28.658,kallum_motion_pilot,2023.2.2,Win32,60.60606061,65830c7b2f2eac8713aed876,65d2b6c8f2eece985d8e374c,65d2b957021102d092193377,0.0579,0.058,1,81,243,32,1,onetwo,,,,,,,,,,,,,,,,,,,,,,,,,,,,,,,,,,,,,,,,,,,,,,,,,,,,,,,,,,,,,,,,,,,,,,,,,,,,,,,,,,,,,,,,,,,,,,,,,,,,,,,,,,,,,,,,,,,,,,,,,,,,,,,,,,,,,,,,,
,,65830c7b2f2eac8713aed876,2024-02-19_04h14.28.658,kallum_motion_pilot,2023.2.2,Win32,60.60606061,65830c7b2f2eac8713aed876,65d2b6c8f2eece985d8e374c,65d2b957021102d092193377,0.058,0.0581,1,82,244,79,1,eightseven,,,,,,,,,,,,,,,,,,,,,,,,,,,,,,,,,,,,,,,,,,,,,,,,,,,,,,,,,,,,,,,,,,,,,,,,,,,,,,,,,,,,,,,,,,,,,,,,,,,,,,,,,,,,,,,,,,,,,,,,,,,,,,,,,,,,,,,,,
,,65830c7b2f2eac8713aed876,2024-02-19_04h14.28.658,kallum_motion_pilot,2023.2.2,Win32,60.60606061,65830c7b2f2eac8713aed876,65d2b6c8f2eece985d8e374c,65d2b957021102d092193377,0.0581,0.0582,1,83,245,7,1,fourthree,,,,,,,,,,,,,,,,,,,,,,,,,,,,,,,,,,,,,,,,,,,,,,,,,,,,,,,,,,,,,,,,,,,,,,,,,,,,,,,,,,,,,,,,,,,,,,,,,,,,,,,,,,,,,,,,,,,,,,,,,,,,,,,,,,,,,,,,,
,,65830c7b2f2eac8713aed876,2024-02-19_04h14.28.658,kallum_motion_pilot,2023.2.2,Win32,60.60606061,65830c7b2f2eac8713aed876,65d2b6c8f2eece985d8e374c,65d2b957021102d092193377,0.0582,0.0583,1,84,246,85,1,seveneight,,,,,,,,,,,,,,,,,,,,,,,,,,,,,,,,,,,,,,,,,,,,,,,,,,,,,,,,,,,,,,,,,,,,,,,,,,,,,,,,,,,,,,,,,,,,,,,,,,,,,,,,,,,,,,,,,,,,,,,,,,,,,,,,,,,,,,,,,
,,65830c7b2f2eac8713aed876,2024-02-19_04h14.28.658,kallum_motion_pilot,2023.2.2,Win32,60.60606061,65830c7b2f2eac8713aed876,65d2b6c8f2eece985d8e374c,65d2b957021102d092193377,0.0583,0.0584,1,85,247,76,1,threeone,,,,,,,,,,,,,,,,,,,,,,,,,,,,,,,,,,,,,,,,,,,,,,,,,,,,,,,,,,,,,,,,,,,,,,,,,,,,,,,,,,,,,,,,,,,,,,,,,,,,,,,,,,,,,,,,,,,,,,,,,,,,,,,,,,,,,,,,,
,,65830c7b2f2eac8713aed876,2024-02-19_04h14.28.658,kallum_motion_pilot,2023.2.2,Win32,60.60606061,65830c7b2f2eac8713aed876,65d2b6c8f2eece985d8e374c,65d2b957021102d092193377,0.0585,0.0586,1,86,248,146,1,sixfive,,,,,,,,,,,,,,,,,,,,,,,,,,,,,,,,,,,,,,,,,,,,,,,,,,,,,,,,,,,,,,,,,,,,,,,,,,,,,,,,,,,,,,,,,,,,,,,,,,,,,,,,,,,,,,,,,,,,,,,,,,,,,,,,,,,,,,,,,
,,65830c7b2f2eac8713aed876,2024-02-19_04h14.28.658,kallum_motion_pilot,2023.2.2,Win32,60.60606061,65830c7b2f2eac8713aed876,65d2b6c8f2eece985d8e374c,65d2b957021102d092193377,0.0586,0.0587,1,87,249,161,1,fiveseven,,,,,,,,,,,,,,,,,,,,,,,,,,,,,,,,,,,,,,,,,,,,,,,,,,,,,,,,,,,,,,,,,,,,,,,,,,,,,,,,,,,,,,,,,,,,,,,,,,,,,,,,,,,,,,,,,,,,,,,,,,,,,,,,,,,,,,,,,
,,65830c7b2f2eac8713aed876,2024-02-19_04h14.28.658,kallum_motion_pilot,2023.2.2,Win32,60.60606061,65830c7b2f2eac8713aed876,65d2b6c8f2eece985d8e374c,65d2b957021102d092193377,0.0587,0.0588,1,88,250,154,1,sixfive,,,,,,,,,,,,,,,,,,,,,,,,,,,,,,,,,,,,,,,,,,,,,,,,,,,,,,,,,,,,,,,,,,,,,,,,,,,,,,,,,,,,,,,,,,,,,,,,,,,,,,,,,,,,,,,,,,,,,,,,,,,,,,,,,,,,,,,,,
,,65830c7b2f2eac8713aed876,2024-02-19_04h14.28.658,kallum_motion_pilot,2023.2.2,Win32,60.60606061,65830c7b2f2eac8713aed876,65d2b6c8f2eece985d8e374c,65d2b957021102d092193377,0.0588,0.0589,1,89,251,48,1,onetwo,,,,,,,,,,,,,,,,,,,,,,,,,,,,,,,,,,,,,,,,,,,,,,,,,,,,,,,,,,,,,,,,,,,,,,,,,,,,,,,,,,,,,,,,,,,,,,,,,,,,,,,,,,,,,,,,,,,,,,,,,,,,,,,,,,,,,,,,,
,,65830c7b2f2eac8713aed876,2024-02-19_04h14.28.658,kallum_motion_pilot,2023.2.2,Win32,60.60606061,65830c7b2f2eac8713aed876,65d2b6c8f2eece985d8e374c,65d2b957021102d092193377,0.059,0.059,1,90,252,92,1,sevenfive,,,,,,,,,,,,,,,,,,,,,,,,,,,,,,,,,,,,,,,,,,,,,,,,,,,,,,,,,,,,,,,,,,,,,,,,,,,,,,,,,,,,,,,,,,,,,,,,,,,,,,,,,,,,,,,,,,,,,,,,,,,,,,,,,,,,,,,,,
,,65830c7b2f2eac8713aed876,2024-02-19_04h14.28.658,kallum_motion_pilot,2023.2.2,Win32,60.60606061,65830c7b2f2eac8713aed876,65d2b6c8f2eece985d8e374c,65d2b957021102d092193377,0.0591,0.0591,1,91,253,27,1,twofour,,,,,,,,,,,,,,,,,,,,,,,,,,,,,,,,,,,,,,,,,,,,,,,,,,,,,,,,,,,,,,,,,,,,,,,,,,,,,,,,,,,,,,,,,,,,,,,,,,,,,,,,,,,,,,,,,,,,,,,,,,,,,,,,,,,,,,,,,
,,65830c7b2f2eac8713aed876,2024-02-19_04h14.28.658,kallum_motion_pilot,2023.2.2,Win32,60.60606061,65830c7b2f2eac8713aed876,65d2b6c8f2eece985d8e374c,65d2b957021102d092193377,0.0592,0.0593,1,92,254,110,1,eightsix,,,,,,,,,,,,,,,,,,,,,,,,,,,,,,,,,,,,,,,,,,,,,,,,,,,,,,,,,,,,,,,,,,,,,,,,,,,,,,,,,,,,,,,,,,,,,,,,,,,,,,,,,,,,,,,,,,,,,,,,,,,,,,,,,,,,,,,,,
,,65830c7b2f2eac8713aed876,2024-02-19_04h14.28.658,kallum_motion_pilot,2023.2.2,Win32,60.60606061,65830c7b2f2eac8713aed876,65d2b6c8f2eece985d8e374c,65d2b957021102d092193377,0.0594,0.0595,1,93,255,97,1,fiveseven,,,,,,,,,,,,,,,,,,,,,,,,,,,,,,,,,,,,,,,,,,,,,,,,,,,,,,,,,,,,,,,,,,,,,,,,,,,,,,,,,,,,,,,,,,,,,,,,,,,,,,,,,,,,,,,,,,,,,,,,,,,,,,,,,,,,,,,,,
,,65830c7b2f2eac8713aed876,2024-02-19_04h14.28.658,kallum_motion_pilot,2023.2.2,Win32,60.60606061,65830c7b2f2eac8713aed876,65d2b6c8f2eece985d8e374c,65d2b957021102d092193377,0.0595,0.0596,1,94,256,35,1,twofour,,,,,,,,,,,,,,,,,,,,,,,,,,,,,,,,,,,,,,,,,,,,,,,,,,,,,,,,,,,,,,,,,,,,,,,,,,,,,,,,,,,,,,,,,,,,,,,,,,,,,,,,,,,,,,,,,,,,,,,,,,,,,,,,,,,,,,,,,
,,65830c7b2f2eac8713aed876,2024-02-19_04h14.28.658,kallum_motion_pilot,2023.2.2,Win32,60.60606061,65830c7b2f2eac8713aed876,65d2b6c8f2eece985d8e374c,65d2b957021102d092193377,0.0597,0.0597,1,95,257,149,1,seveneight,,,,,,,,,,,,,,,,,,,,,,,,,,,,,,,,,,,,,,,,,,,,,,,,,,,,,,,,,,,,,,,,,,,,,,,,,,,,,,,,,,,,,,,,,,,,,,,,,,,,,,,,,,,,,,,,,,,,,,,,,,,,,,,,,,,,,,,,,
,,65830c7b2f2eac8713aed876,2024-02-19_04h14.28.658,kallum_motion_pilot,2023.2.2,Win32,60.60606061,65830c7b2f2eac8713aed876,65d2b6c8f2eece985d8e374c,65d2b957021102d092193377,0.0597,0.0599,1,96,258,20,1,threeone,,,,,,,,,,,,,,,,,,,,,,,,,,,,,,,,,,,,,,,,,,,,,,,,,,,,,,,,,,,,,,,,,,,,,,,,,,,,,,,,,,,,,,,,,,,,,,,,,,,,,,,,,,,,,,,,,,,,,,,,,,,,,,,,,,,,,,,,,
,,65830c7b2f2eac8713aed876,2024-02-19_04h14.28.658,kallum_motion_pilot,2023.2.2,Win32,60.60606061,65830c7b2f2eac8713aed876,65d2b6c8f2eece985d8e374c,65d2b957021102d092193377,0.0599,0.0599,1,97,259,107,1,sixeight,,,,,,,,,,,,,,,,,,,,,,,,,,,,,,,,,,,,,,,,,,,,,,,,,,,,,,,,,,,,,,,,,,,,,,,,,,,,,,,,,,,,,,,,,,,,,,,,,,,,,,,,,,,,,,,,,,,,,,,,,,,,,,,,,,,,,,,,,
,,65830c7b2f2eac8713aed876,2024-02-19_04h14.28.658,kallum_motion_pilot,2023.2.2,Win32,60.60606061,65830c7b2f2eac8713aed876,65d2b6c8f2eece985d8e374c,65d2b957021102d092193377,0.06,0.0601,1,98,260,30,1,fourtwo,,,,,,,,,,,,,,,,,,,,,,,,,,,,,,,,,,,,,,,,,,,,,,,,,,,,,,,,,,,,,,,,,,,,,,,,,,,,,,,,,,,,,,,,,,,,,,,,,,,,,,,,,,,,,,,,,,,,,,,,,,,,,,,,,,,,,,,,,
,,65830c7b2f2eac8713aed876,2024-02-19_04h14.28.658,kallum_motion_pilot,2023.2.2,Win32,60.60606061,65830c7b2f2eac8713aed876,65d2b6c8f2eece985d8e374c,65d2b957021102d092193377,0.0601,0.0602,1,99,261,23,1,fourthree,,,,,,,,,,,,,,,,,,,,,,,,,,,,,,,,,,,,,,,,,,,,,,,,,,,,,,,,,,,,,,,,,,,,,,,,,,,,,,,,,,,,,,,,,,,,,,,,,,,,,,,,,,,,,,,,,,,,,,,,,,,,,,,,,,,,,,,,,
,,65830c7b2f2eac8713aed876,2024-02-19_04h14.28.658,kallum_motion_pilot,2023.2.2,Win32,60.60606061,65830c7b2f2eac8713aed876,65d2b6c8f2eece985d8e374c,65d2b957021102d092193377,0.0603,0.0604,1,100,262,14,1,fourtwo,,,,,,,,,,,,,,,,,,,,,,,,,,,,,,,,,,,,,,,,,,,,,,,,,,,,,,,,,,,,,,,,,,,,,,,,,,,,,,,,,,,,,,,,,,,,,,,,,,,,,,,,,,,,,,,,,,,,,,,,,,,,,,,,,,,,,,,,,
,,65830c7b2f2eac8713aed876,2024-02-19_04h14.28.658,kallum_motion_pilot,2023.2.2,Win32,60.60606061,65830c7b2f2eac8713aed876,65d2b6c8f2eece985d8e374c,65d2b957021102d092193377,0.0604,0.0605,1,101,263,117,1,seveneight,,,,,,,,,,,,,,,,,,,,,,,,,,,,,,,,,,,,,,,,,,,,,,,,,,,,,,,,,,,,,,,,,,,,,,,,,,,,,,,,,,,,,,,,,,,,,,,,,,,,,,,,,,,,,,,,,,,,,,,,,,,,,,,,,,,,,,,,,
,,65830c7b2f2eac8713aed876,2024-02-19_04h14.28.658,kallum_motion_pilot,2023.2.2,Win32,60.60606061,65830c7b2f2eac8713aed876,65d2b6c8f2eece985d8e374c,65d2b957021102d092193377,0.0605,0.0606,1,102,264,64,1,onetwo,,,,,,,,,,,,,,,,,,,,,,,,,,,,,,,,,,,,,,,,,,,,,,,,,,,,,,,,,,,,,,,,,,,,,,,,,,,,,,,,,,,,,,,,,,,,,,,,,,,,,,,,,,,,,,,,,,,,,,,,,,,,,,,,,,,,,,,,,
,,65830c7b2f2eac8713aed876,2024-02-19_04h14.28.658,kallum_motion_pilot,2023.2.2,Win32,60.60606061,65830c7b2f2eac8713aed876,65d2b6c8f2eece985d8e374c,65d2b957021102d092193377,0.0608,0.0608,1,103,265,159,1,eightseven,,,,,,,,,,,,,,,,,,,,,,,,,,,,,,,,,,,,,,,,,,,,,,,,,,,,,,,,,,,,,,,,,,,,,,,,,,,,,,,,,,,,,,,,,,,,,,,,,,,,,,,,,,,,,,,,,,,,,,,,,,,,,,,,,,,,,,,,,
,,65830c7b2f2eac8713aed876,2024-02-19_04h14.28.658,kallum_motion_pilot,2023.2.2,Win32,60.60606061,65830c7b2f2eac8713aed876,65d2b6c8f2eece985d8e374c,65d2b957021102d092193377,0.0609,0.061,1,104,266,156,1,sevenfive,,,,,,,,,,,,,,,,,,,,,,,,,,,,,,,,,,,,,,,,,,,,,,,,,,,,,,,,,,,,,,,,,,,,,,,,,,,,,,,,,,,,,,,,,,,,,,,,,,,,,,,,,,,,,,,,,,,,,,,,,,,,,,,,,,,,,,,,,
,,65830c7b2f2eac8713aed876,2024-02-19_04h14.28.658,kallum_motion_pilot,2023.2.2,Win32,60.60606061,65830c7b2f2eac8713aed876,65d2b6c8f2eece985d8e374c,65d2b957021102d092193377,0.0611,0.0611,1,105,267,131,1,sixeight,,,,,,,,,,,,,,,,,,,,,,,,,,,,,,,,,,,,,,,,,,,,,,,,,,,,,,,,,,,,,,,,,,,,,,,,,,,,,,,,,,,,,,,,,,,,,,,,,,,,,,,,,,,,,,,,,,,,,,,,,,,,,,,,,,,,,,,,,
,,65830c7b2f2eac8713aed876,2024-02-19_04h14.28.658,kallum_motion_pilot,2023.2.2,Win32,60.60606061,65830c7b2f2eac8713aed876,65d2b6c8f2eece985d8e374c,65d2b957021102d092193377,0.0612,0.0613,1,106,268,56,1,onetwo,,,,,,,,,,,,,,,,,,,,,,,,,,,,,,,,,,,,,,,,,,,,,,,,,,,,,,,,,,,,,,,,,,,,,,,,,,,,,,,,,,,,,,,,,,,,,,,,,,,,,,,,,,,,,,,,,,,,,,,,,,,,,,,,,,,,,,,,,
,,65830c7b2f2eac8713aed876,2024-02-19_04h14.28.658,kallum_motion_pilot,2023.2.2,Win32,60.60606061,65830c7b2f2eac8713aed876,65d2b6c8f2eece985d8e374c,65d2b957021102d092193377,0.0614,0.0614,1,107,269,88,1,fivesix,,,,,,,,,,,,,,,,,,,,,,,,,,,,,,,,,,,,,,,,,,,,,,,,,,,,,,,,,,,,,,,,,,,,,,,,,,,,,,,,,,,,,,,,,,,,,,,,,,,,,,,,,,,,,,,,,,,,,,,,,,,,,,,,,,,,,,,,,
,,65830c7b2f2eac8713aed876,2024-02-19_04h14.28.658,kallum_motion_pilot,2023.2.2,Win32,60.60606061,65830c7b2f2eac8713aed876,65d2b6c8f2eece985d8e374c,65d2b957021102d092193377,0.0615,0.0616,1,108,270,157,1,seveneight,,,,,,,,,,,,,,,,,,,,,,,,,,,,,,,,,,,,,,,,,,,,,,,,,,,,,,,,,,,,,,,,,,,,,,,,,,,,,,,,,,,,,,,,,,,,,,,,,,,,,,,,,,,,,,,,,,,,,,,,,,,,,,,,,,,,,,,,,
,,65830c7b2f2eac8713aed876,2024-02-19_04h14.28.658,kallum_motion_pilot,2023.2.2,Win32,60.60606061,65830c7b2f2eac8713aed876,65d2b6c8f2eece985d8e374c,65d2b957021102d092193377,0.0617,0.0617,1,109,271,57,1,onethree,,,,,,,,,,,,,,,,,,,,,,,,,,,,,,,,,,,,,,,,,,,,,,,,,,,,,,,,,,,,,,,,,,,,,,,,,,,,,,,,,,,,,,,,,,,,,,,,,,,,,,,,,,,,,,,,,,,,,,,,,,,,,,,,,,,,,,,,,
,,65830c7b2f2eac8713aed876,2024-02-19_04h14.28.658,kallum_motion_pilot,2023.2.2,Win32,60.60606061,65830c7b2f2eac8713aed876,65d2b6c8f2eece985d8e374c,65d2b957021102d092193377,0.0618,0.0619,1,110,272,136,1,fivesix,,,,,,,,,,,,,,,,,,,,,,,,,,,,,,,,,,,,,,,,,,,,,,,,,,,,,,,,,,,,,,,,,,,,,,,,,,,,,,,,,,,,,,,,,,,,,,,,,,,,,,,,,,,,,,,,,,,,,,,,,,,,,,,,,,,,,,,,,
,,65830c7b2f2eac8713aed876,2024-02-19_04h14.28.658,kallum_motion_pilot,2023.2.2,Win32,60.60606061,65830c7b2f2eac8713aed876,65d2b6c8f2eece985d8e374c,65d2b957021102d092193377,0.0619,0.062,1,111,273,42,1,twoone,,,,,,,,,,,,,,,,,,,,,,,,,,,,,,,,,,,,,,,,,,,,,,,,,,,,,,,,,,,,,,,,,,,,,,,,,,,,,,,,,,,,,,,,,,,,,,,,,,,,,,,,,,,,,,,,,,,,,,,,,,,,,,,,,,,,,,,,,
,,65830c7b2f2eac8713aed876,2024-02-19_04h14.28.658,kallum_motion_pilot,2023.2.2,Win32,60.60606061,65830c7b2f2eac8713aed876,65d2b6c8f2eece985d8e374c,65d2b957021102d092193377,0.062,0.0622,1,112,274,41,1,onethree,,,,,,,,,,,,,,,,,,,,,,,,,,,,,,,,,,,,,,,,,,,,,,,,,,,,,,,,,,,,,,,,,,,,,,,,,,,,,,,,,,,,,,,,,,,,,,,,,,,,,,,,,,,,,,,,,,,,,,,,,,,,,,,,,,,,,,,,,
,,65830c7b2f2eac8713aed876,2024-02-19_04h14.28.658,kallum_motion_pilot,2023.2.2,Win32,60.60606061,65830c7b2f2eac8713aed876,65d2b6c8f2eece985d8e374c,65d2b957021102d092193377,0.0622,0.0622,1,113,275,17,1,onethree,,,,,,,,,,,,,,,,,,,,,,,,,,,,,,,,,,,,,,,,,,,,,,,,,,,,,,,,,,,,,,,,,,,,,,,,,,,,,,,,,,,,,,,,,,,,,,,,,,,,,,,,,,,,,,,,,,,,,,,,,,,,,,,,,,,,,,,,,
,,65830c7b2f2eac8713aed876,2024-02-19_04h14.28.658,kallum_motion_pilot,2023.2.2,Win32,60.60606061,65830c7b2f2eac8713aed876,65d2b6c8f2eece985d8e374c,65d2b957021102d092193377,0.0624,0.0624,1,114,276,6,1,fourtwo,,,,,,,,,,,,,,,,,,,,,,,,,,,,,,,,,,,,,,,,,,,,,,,,,,,,,,,,,,,,,,,,,,,,,,,,,,,,,,,,,,,,,,,,,,,,,,,,,,,,,,,,,,,,,,,,,,,,,,,,,,,,,,,,,,,,,,,,,
,,65830c7b2f2eac8713aed876,2024-02-19_04h14.28.658,kallum_motion_pilot,2023.2.2,Win32,60.60606061,65830c7b2f2eac8713aed876,65d2b6c8f2eece985d8e374c,65d2b957021102d092193377,0.0625,0.0625,1,115,277,96,1,fivesix,,,,,,,,,,,,,,,,,,,,,,,,,,,,,,,,,,,,,,,,,,,,,,,,,,,,,,,,,,,,,,,,,,,,,,,,,,,,,,,,,,,,,,,,,,,,,,,,,,,,,,,,,,,,,,,,,,,,,,,,,,,,,,,,,,,,,,,,,
