startup.started,startup.stopped,Prolific ID*,date,expName,psychopyVersion,OS,frameRate,participant,study_id,session,stimpositions.started,stimpositions.stopped,hardcoded_stimulus_positions.thisRepN,hardcoded_stimulus_positions.thisTrialN,hardcoded_stimulus_positions.thisN,hardcoded_stimulus_positions.thisIndex,hardcoded_stimulus_positions.ran,StimulusPos,stimorientation.started,stimorientation.stopped,prac_stimorientation_import_loop.thisRepN,prac_stimorientation_import_loop.thisTrialN,prac_stimorientation_import_loop.thisN,prac_stimorientation_import_loop.thisIndex,prac_stimorientation_import_loop.ran,Stimorientation,welcome_instr.started,welcome_instr.stopped,key_resp.keys,key_resp.rt,key_resp.duration,response_steppedout_1.started,response_steppedout_1.stopped,key_resp_20.keys,key_resp_20.rt,key_resp_20.duration,response_steppedout_2.started,response_steppedout_2.stopped,key_resp_19.keys,key_resp_19.rt,key_resp_19.duration,stim_response_instr.started,stim_response_instr.stopped,key_resp_15.keys,key_resp_15.rt,key_resp_15.duration,direction_instr_2.started,direction_instr_2.stopped,key_resp_9.keys,key_resp_9.rt,key_resp_9.duration,instr_prac.started,instr_prac.stopped,key_resp_10.keys,key_resp_10.rt,key_resp_10.duration,Stim1_display_prac.started,Stim1_display_prac.stopped,Ecc,Circle1_ori,Circle2_ori,response_prac.started,similarity,response_time,response_prac.stopped,mouse_5.x,mouse_5.y,mouse_5.leftButton,mouse_5.midButton,mouse_5.rightButton,mouse_5.clicked_name,responseprac_feedback.started,responseprac_feedback.stopped,summary2_prac.started,summary2_prac.stopped,mouse_6.x,mouse_6.y,mouse_6.leftButton,mouse_6.midButton,mouse_6.rightButton,mouse_6.clicked_name,duringprac.thisRepN,duringprac.thisTrialN,duringprac.thisN,duringprac.thisIndex,duringprac.ran,begin.started,begin.stopped,key_resp_22.keys,key_resp_22.rt,key_resp_22.duration,Stim1_display.started,Stim1_display.stopped,circle1_ori,circle2_ori,circle1_SF,circle2_SF,response.started,response.stopped,mouse.x,mouse.y,mouse.leftButton,mouse.midButton,mouse.rightButton,mouse.clicked_name,trialnumber,double_pass.thisRepN,double_pass.thisTrialN,double_pass.thisN,double_pass.thisIndex,double_pass.ran,double_pass.order,main_trial.thisRepN,main_trial.thisTrialN,main_trial.thisN,main_trial.thisIndex,main_trial.ran,main_trial.order,Trial_Counter,Catch,Frequencies,response_2.started,response_2.stopped,mouse_2.x,mouse_2.y,mouse_2.leftButton,mouse_2.midButton,mouse_2.rightButton,mouse_2.clicked_name,special_trial.started,special_trial.stopped,catch_1.started,catch_1.stopped,mouse_3.x,mouse_3.y,mouse_3.leftButton,mouse_3.midButton,mouse_3.rightButton,catchresponse,catchnumber,response_time_catch,response_sum.started,response_sum.stopped,mouse_11.x,mouse_11.y,mouse_11.leftButton,mouse_11.midButton,mouse_11.rightButton,flip_presentation_sequence_for_double_pass.started,flip_presentation_sequence_for_double_pass.stopped,goodbye.started,goodbye.stopped,key_resp_3.keys,key_resp_3.rt,key_resp_3.duration
0.0007,0.0009,65959b14d677879036710db0,2024-02-19_03h22.46.060,kallum_motion_pilot,2023.2.2,Win32,147.0588235,65959b14d677879036710db0,65d2b6c8f2eece985d8e374c,65d2b9d9021102d09219339c,,,,,,,,,,,,,,,,,,,,,,,,,,,,,,,,,,,,,,,,,,,,,,,,,,,,,,,,,,,,,,,,,,,,,,,,,,,,,,,,,,,,,,,,,,,,,,,,,,,,,,,,,,,,,,,,,,,,,,,,,,,,,,,,,,,,,,,,,,,,,,,,,
,,65959b14d677879036710db0,2024-02-19_03h22.46.060,kallum_motion_pilot,2023.2.2,Win32,147.0588235,65959b14d677879036710db0,65d2b6c8f2eece985d8e374c,65d2b9d9021102d09219339c,0.0181,0.0183,0,0,0,47,1,fourthree,,,,,,,,,,,,,,,,,,,,,,,,,,,,,,,,,,,,,,,,,,,,,,,,,,,,,,,,,,,,,,,,,,,,,,,,,,,,,,,,,,,,,,,,,,,,,,,,,,,,,,,,,,,,,,,,,,,,,,,,,,,,,,,,,,,,,,,,,
,,65959b14d677879036710db0,2024-02-19_03h22.46.060,kallum_motion_pilot,2023.2.2,Win32,147.0588235,65959b14d677879036710db0,65d2b6c8f2eece985d8e374c,65d2b9d9021102d09219339c,0.0184,0.0184,0,1,1,84,1,sevenfive,,,,,,,,,,,,,,,,,,,,,,,,,,,,,,,,,,,,,,,,,,,,,,,,,,,,,,,,,,,,,,,,,,,,,,,,,,,,,,,,,,,,,,,,,,,,,,,,,,,,,,,,,,,,,,,,,,,,,,,,,,,,,,,,,,,,,,,,,
,,65959b14d677879036710db0,2024-02-19_03h22.46.060,kallum_motion_pilot,2023.2.2,Win32,147.0588235,65959b14d677879036710db0,65d2b6c8f2eece985d8e374c,65d2b9d9021102d09219339c,0.0185,0.0185,0,2,2,148,1,sevenfive,,,,,,,,,,,,,,,,,,,,,,,,,,,,,,,,,,,,,,,,,,,,,,,,,,,,,,,,,,,,,,,,,,,,,,,,,,,,,,,,,,,,,,,,,,,,,,,,,,,,,,,,,,,,,,,,,,,,,,,,,,,,,,,,,,,,,,,,,
,,65959b14d677879036710db0,2024-02-19_03h22.46.060,kallum_motion_pilot,2023.2.2,Win32,147.0588235,65959b14d677879036710db0,65d2b6c8f2eece985d8e374c,65d2b9d9021102d09219339c,0.0186,0.0186,0,3,3,74,1,twoone,,,,,,,,,,,,,,,,,,,,,,,,,,,,,,,,,,,,,,,,,,,,,,,,,,,,,,,,,,,,,,,,,,,,,,,,,,,,,,,,,,,,,,,,,,,,,,,,,,,,,,,,,,,,,,,,,,,,,,,,,,,,,,,,,,,,,,,,,
,,65959b14d677879036710db0,2024-02-19_03h22.46.060,kallum_motion_pilot,2023.2.2,Win32,147.0588235,65959b14d677879036710db0,65d2b6c8f2eece985d8e374c,65d2b9d9021102d09219339c,0.0187,0.0188,0,4,4,101,1,seveneight,,,,,,,,,,,,,,,,,,,,,,,,,,,,,,,,,,,,,,,,,,,,,,,,,,,,,,,,,,,,,,,,,,,,,,,,,,,,,,,,,,,,,,,,,,,,,,,,,,,,,,,,,,,,,,,,,,,,,,,,,,,,,,,,,,,,,,,,,
,,65959b14d677879036710db0,2024-02-19_03h22.46.060,kallum_motion_pilot,2023.2.2,Win32,147.0588235,65959b14d677879036710db0,65d2b6c8f2eece985d8e374c,65d2b9d9021102d09219339c,0.0188,0.0189,0,5,5,71,1,fourthree,,,,,,,,,,,,,,,,,,,,,,,,,,,,,,,,,,,,,,,,,,,,,,,,,,,,,,,,,,,,,,,,,,,,,,,,,,,,,,,,,,,,,,,,,,,,,,,,,,,,,,,,,,,,,,,,,,,,,,,,,,,,,,,,,,,,,,,,,
,,65959b14d677879036710db0,2024-02-19_03h22.46.060,kallum_motion_pilot,2023.2.2,Win32,147.0588235,65959b14d677879036710db0,65d2b6c8f2eece985d8e374c,65d2b9d9021102d09219339c,0.0189,0.0189,0,6,6,119,1,eightseven,,,,,,,,,,,,,,,,,,,,,,,,,,,,,,,,,,,,,,,,,,,,,,,,,,,,,,,,,,,,,,,,,,,,,,,,,,,,,,,,,,,,,,,,,,,,,,,,,,,,,,,,,,,,,,,,,,,,,,,,,,,,,,,,,,,,,,,,,
,,65959b14d677879036710db0,2024-02-19_03h22.46.060,kallum_motion_pilot,2023.2.2,Win32,147.0588235,65959b14d677879036710db0,65d2b6c8f2eece985d8e374c,65d2b9d9021102d09219339c,0.019,0.019,0,7,7,139,1,sixeight,,,,,,,,,,,,,,,,,,,,,,,,,,,,,,,,,,,,,,,,,,,,,,,,,,,,,,,,,,,,,,,,,,,,,,,,,,,,,,,,,,,,,,,,,,,,,,,,,,,,,,,,,,,,,,,,,,,,,,,,,,,,,,,,,,,,,,,,,
,,65959b14d677879036710db0,2024-02-19_03h22.46.060,kallum_motion_pilot,2023.2.2,Win32,147.0588235,65959b14d677879036710db0,65d2b6c8f2eece985d8e374c,65d2b9d9021102d09219339c,0.0191,0.0191,0,8,8,117,1,seveneight,,,,,,,,,,,,,,,,,,,,,,,,,,,,,,,,,,,,,,,,,,,,,,,,,,,,,,,,,,,,,,,,,,,,,,,,,,,,,,,,,,,,,,,,,,,,,,,,,,,,,,,,,,,,,,,,,,,,,,,,,,,,,,,,,,,,,,,,,
,,65959b14d677879036710db0,2024-02-19_03h22.46.060,kallum_motion_pilot,2023.2.2,Win32,147.0588235,65959b14d677879036710db0,65d2b6c8f2eece985d8e374c,65d2b9d9021102d09219339c,0.0192,0.0192,0,9,9,115,1,sixeight,,,,,,,,,,,,,,,,,,,,,,,,,,,,,,,,,,,,,,,,,,,,,,,,,,,,,,,,,,,,,,,,,,,,,,,,,,,,,,,,,,,,,,,,,,,,,,,,,,,,,,,,,,,,,,,,,,,,,,,,,,,,,,,,,,,,,,,,,
,,65959b14d677879036710db0,2024-02-19_03h22.46.060,kallum_motion_pilot,2023.2.2,Win32,147.0588235,65959b14d677879036710db0,65d2b6c8f2eece985d8e374c,65d2b9d9021102d09219339c,0.0193,0.0193,0,10,10,76,1,threeone,,,,,,,,,,,,,,,,,,,,,,,,,,,,,,,,,,,,,,,,,,,,,,,,,,,,,,,,,,,,,,,,,,,,,,,,,,,,,,,,,,,,,,,,,,,,,,,,,,,,,,,,,,,,,,,,,,,,,,,,,,,,,,,,,,,,,,,,,
,,65959b14d677879036710db0,2024-02-19_03h22.46.060,kallum_motion_pilot,2023.2.2,Win32,147.0588235,65959b14d677879036710db0,65d2b6c8f2eece985d8e374c,65d2b9d9021102d09219339c,0.0193,0.0194,0,11,11,72,1,onetwo,,,,,,,,,,,,,,,,,,,,,,,,,,,,,,,,,,,,,,,,,,,,,,,,,,,,,,,,,,,,,,,,,,,,,,,,,,,,,,,,,,,,,,,,,,,,,,,,,,,,,,,,,,,,,,,,,,,,,,,,,,,,,,,,,,,,,,,,,
,,65959b14d677879036710db0,2024-02-19_03h22.46.060,kallum_motion_pilot,2023.2.2,Win32,147.0588235,65959b14d677879036710db0,65d2b6c8f2eece985d8e374c,65d2b9d9021102d09219339c,0.0194,0.0195,0,12,12,78,1,fourtwo,,,,,,,,,,,,,,,,,,,,,,,,,,,,,,,,,,,,,,,,,,,,,,,,,,,,,,,,,,,,,,,,,,,,,,,,,,,,,,,,,,,,,,,,,,,,,,,,,,,,,,,,,,,,,,,,,,,,,,,,,,,,,,,,,,,,,,,,,
,,65959b14d677879036710db0,2024-02-19_03h22.46.060,kallum_motion_pilot,2023.2.2,Win32,147.0588235,65959b14d677879036710db0,65d2b6c8f2eece985d8e374c,65d2b9d9021102d09219339c,0.0195,0.0195,0,13,13,118,1,eightsix,,,,,,,,,,,,,,,,,,,,,,,,,,,,,,,,,,,,,,,,,,,,,,,,,,,,,,,,,,,,,,,,,,,,,,,,,,,,,,,,,,,,,,,,,,,,,,,,,,,,,,,,,,,,,,,,,,,,,,,,,,,,,,,,,,,,,,,,,
,,65959b14d677879036710db0,2024-02-19_03h22.46.060,kallum_motion_pilot,2023.2.2,Win32,147.0588235,65959b14d677879036710db0,65d2b6c8f2eece985d8e374c,65d2b9d9021102d09219339c,0.0195,0.0196,0,14,14,46,1,fourtwo,,,,,,,,,,,,,,,,,,,,,,,,,,,,,,,,,,,,,,,,,,,,,,,,,,,,,,,,,,,,,,,,,,,,,,,,,,,,,,,,,,,,,,,,,,,,,,,,,,,,,,,,,,,,,,,,,,,,,,,,,,,,,,,,,,,,,,,,,
,,65959b14d677879036710db0,2024-02-19_03h22.46.060,kallum_motion_pilot,2023.2.2,Win32,147.0588235,65959b14d677879036710db0,65d2b6c8f2eece985d8e374c,65d2b9d9021102d09219339c,0.0196,0.0196,0,15,15,42,1,twoone,,,,,,,,,,,,,,,,,,,,,,,,,,,,,,,,,,,,,,,,,,,,,,,,,,,,,,,,,,,,,,,,,,,,,,,,,,,,,,,,,,,,,,,,,,,,,,,,,,,,,,,,,,,,,,,,,,,,,,,,,,,,,,,,,,,,,,,,,
,,65959b14d677879036710db0,2024-02-19_03h22.46.060,kallum_motion_pilot,2023.2.2,Win32,147.0588235,65959b14d677879036710db0,65d2b6c8f2eece985d8e374c,65d2b9d9021102d09219339c,0.0197,0.0197,0,16,16,57,1,onethree,,,,,,,,,,,,,,,,,,,,,,,,,,,,,,,,,,,,,,,,,,,,,,,,,,,,,,,,,,,,,,,,,,,,,,,,,,,,,,,,,,,,,,,,,,,,,,,,,,,,,,,,,,,,,,,,,,,,,,,,,,,,,,,,,,,,,,,,,
,,65959b14d677879036710db0,2024-02-19_03h22.46.060,kallum_motion_pilot,2023.2.2,Win32,147.0588235,65959b14d677879036710db0,65d2b6c8f2eece985d8e374c,65d2b9d9021102d09219339c,0.0198,0.0198,0,17,17,102,1,eightsix,,,,,,,,,,,,,,,,,,,,,,,,,,,,,,,,,,,,,,,,,,,,,,,,,,,,,,,,,,,,,,,,,,,,,,,,,,,,,,,,,,,,,,,,,,,,,,,,,,,,,,,,,,,,,,,,,,,,,,,,,,,,,,,,,,,,,,,,,
,,65959b14d677879036710db0,2024-02-19_03h22.46.060,kallum_motion_pilot,2023.2.2,Win32,147.0588235,65959b14d677879036710db0,65d2b6c8f2eece985d8e374c,65d2b9d9021102d09219339c,0.0199,0.0199,0,18,18,150,1,eightsix,,,,,,,,,,,,,,,,,,,,,,,,,,,,,,,,,,,,,,,,,,,,,,,,,,,,,,,,,,,,,,,,,,,,,,,,,,,,,,,,,,,,,,,,,,,,,,,,,,,,,,,,,,,,,,,,,,,,,,,,,,,,,,,,,,,,,,,,,
,,65959b14d677879036710db0,2024-02-19_03h22.46.060,kallum_motion_pilot,2023.2.2,Win32,147.0588235,65959b14d677879036710db0,65d2b6c8f2eece985d8e374c,65d2b9d9021102d09219339c,0.0199,0.0199,0,19,19,93,1,seveneight,,,,,,,,,,,,,,,,,,,,,,,,,,,,,,,,,,,,,,,,,,,,,,,,,,,,,,,,,,,,,,,,,,,,,,,,,,,,,,,,,,,,,,,,,,,,,,,,,,,,,,,,,,,,,,,,,,,,,,,,,,,,,,,,,,,,,,,,,
,,65959b14d677879036710db0,2024-02-19_03h22.46.060,kallum_motion_pilot,2023.2.2,Win32,147.0588235,65959b14d677879036710db0,65d2b6c8f2eece985d8e374c,65d2b9d9021102d09219339c,0.02,0.02,0,20,20,64,1,onetwo,,,,,,,,,,,,,,,,,,,,,,,,,,,,,,,,,,,,,,,,,,,,,,,,,,,,,,,,,,,,,,,,,,,,,,,,,,,,,,,,,,,,,,,,,,,,,,,,,,,,,,,,,,,,,,,,,,,,,,,,,,,,,,,,,,,,,,,,,
,,65959b14d677879036710db0,2024-02-19_03h22.46.060,kallum_motion_pilot,2023.2.2,Win32,147.0588235,65959b14d677879036710db0,65d2b6c8f2eece985d8e374c,65d2b9d9021102d09219339c,0.0201,0.0201,0,21,21,66,1,twoone,,,,,,,,,,,,,,,,,,,,,,,,,,,,,,,,,,,,,,,,,,,,,,,,,,,,,,,,,,,,,,,,,,,,,,,,,,,,,,,,,,,,,,,,,,,,,,,,,,,,,,,,,,,,,,,,,,,,,,,,,,,,,,,,,,,,,,,,,
,,65959b14d677879036710db0,2024-02-19_03h22.46.060,kallum_motion_pilot,2023.2.2,Win32,147.0588235,65959b14d677879036710db0,65d2b6c8f2eece985d8e374c,65d2b9d9021102d09219339c,0.0202,0.0202,0,22,22,31,1,fourthree,,,,,,,,,,,,,,,,,,,,,,,,,,,,,,,,,,,,,,,,,,,,,,,,,,,,,,,,,,,,,,,,,,,,,,,,,,,,,,,,,,,,,,,,,,,,,,,,,,,,,,,,,,,,,,,,,,,,,,,,,,,,,,,,,,,,,,,,,
,,65959b14d677879036710db0,2024-02-19_03h22.46.060,kallum_motion_pilot,2023.2.2,Win32,147.0588235,65959b14d677879036710db0,65d2b6c8f2eece985d8e374c,65d2b9d9021102d09219339c,0.0202,0.0203,0,23,23,28,1,threeone,,,,,,,,,,,,,,,,,,,,,,,,,,,,,,,,,,,,,,,,,,,,,,,,,,,,,,,,,,,,,,,,,,,,,,,,,,,,,,,,,,,,,,,,,,,,,,,,,,,,,,,,,,,,,,,,,,,,,,,,,,,,,,,,,,,,,,,,,
,,65959b14d677879036710db0,2024-02-19_03h22.46.060,kallum_motion_pilot,2023.2.2,Win32,147.0588235,65959b14d677879036710db0,65d2b6c8f2eece985d8e374c,65d2b9d9021102d09219339c,0.0203,0.0203,0,24,24,26,1,twoone,,,,,,,,,,,,,,,,,,,,,,,,,,,,,,,,,,,,,,,,,,,,,,,,,,,,,,,,,,,,,,,,,,,,,,,,,,,,,,,,,,,,,,,,,,,,,,,,,,,,,,,,,,,,,,,,,,,,,,,,,,,,,,,,,,,,,,,,,
,,65959b14d677879036710db0,2024-02-19_03h22.46.060,kallum_motion_pilot,2023.2.2,Win32,147.0588235,65959b14d677879036710db0,65d2b6c8f2eece985d8e374c,65d2b9d9021102d09219339c,0.0204,0.0204,0,25,25,55,1,fourthree,,,,,,,,,,,,,,,,,,,,,,,,,,,,,,,,,,,,,,,,,,,,,,,,,,,,,,,,,,,,,,,,,,,,,,,,,,,,,,,,,,,,,,,,,,,,,,,,,,,,,,,,,,,,,,,,,,,,,,,,,,,,,,,,,,,,,,,,,
,,65959b14d677879036710db0,2024-02-19_03h22.46.060,kallum_motion_pilot,2023.2.2,Win32,147.0588235,65959b14d677879036710db0,65d2b6c8f2eece985d8e374c,65d2b9d9021102d09219339c,0.0205,0.0205,0,26,26,27,1,twofour,,,,,,,,,,,,,,,,,,,,,,,,,,,,,,,,,,,,,,,,,,,,,,,,,,,,,,,,,,,,,,,,,,,,,,,,,,,,,,,,,,,,,,,,,,,,,,,,,,,,,,,,,,,,,,,,,,,,,,,,,,,,,,,,,,,,,,,,,
,,65959b14d677879036710db0,2024-02-19_03h22.46.060,kallum_motion_pilot,2023.2.2,Win32,147.0588235,65959b14d677879036710db0,65d2b6c8f2eece985d8e374c,65d2b9d9021102d09219339c,0.0206,0.0206,0,27,27,151,1,eightseven,,,,,,,,,,,,,,,,,,,,,,,,,,,,,,,,,,,,,,,,,,,,,,,,,,,,,,,,,,,,,,,,,,,,,,,,,,,,,,,,,,,,,,,,,,,,,,,,,,,,,,,,,,,,,,,,,,,,,,,,,,,,,,,,,,,,,,,,,
,,65959b14d677879036710db0,2024-02-19_03h22.46.060,kallum_motion_pilot,2023.2.2,Win32,147.0588235,65959b14d677879036710db0,65d2b6c8f2eece985d8e374c,65d2b9d9021102d09219339c,0.0206,0.0206,0,28,28,123,1,sixeight,,,,,,,,,,,,,,,,,,,,,,,,,,,,,,,,,,,,,,,,,,,,,,,,,,,,,,,,,,,,,,,,,,,,,,,,,,,,,,,,,,,,,,,,,,,,,,,,,,,,,,,,,,,,,,,,,,,,,,,,,,,,,,,,,,,,,,,,,
,,65959b14d677879036710db0,2024-02-19_03h22.46.060,kallum_motion_pilot,2023.2.2,Win32,147.0588235,65959b14d677879036710db0,65d2b6c8f2eece985d8e374c,65d2b9d9021102d09219339c,0.0207,0.0207,0,29,29,131,1,sixeight,,,,,,,,,,,,,,,,,,,,,,,,,,,,,,,,,,,,,,,,,,,,,,,,,,,,,,,,,,,,,,,,,,,,,,,,,,,,,,,,,,,,,,,,,,,,,,,,,,,,,,,,,,,,,,,,,,,,,,,,,,,,,,,,,,,,,,,,,
,,65959b14d677879036710db0,2024-02-19_03h22.46.060,kallum_motion_pilot,2023.2.2,Win32,147.0588235,65959b14d677879036710db0,65d2b6c8f2eece985d8e374c,65d2b9d9021102d09219339c,0.0208,0.0208,0,30,30,106,1,sixfive,,,,,,,,,,,,,,,,,,,,,,,,,,,,,,,,,,,,,,,,,,,,,,,,,,,,,,,,,,,,,,,,,,,,,,,,,,,,,,,,,,,,,,,,,,,,,,,,,,,,,,,,,,,,,,,,,,,,,,,,,,,,,,,,,,,,,,,,,
,,65959b14d677879036710db0,2024-02-19_03h22.46.060,kallum_motion_pilot,2023.2.2,Win32,147.0588235,65959b14d677879036710db0,65d2b6c8f2eece985d8e374c,65d2b9d9021102d09219339c,0.0209,0.0209,0,31,31,63,1,fourthree,,,,,,,,,,,,,,,,,,,,,,,,,,,,,,,,,,,,,,,,,,,,,,,,,,,,,,,,,,,,,,,,,,,,,,,,,,,,,,,,,,,,,,,,,,,,,,,,,,,,,,,,,,,,,,,,,,,,,,,,,,,,,,,,,,,,,,,,,
,,65959b14d677879036710db0,2024-02-19_03h22.46.060,kallum_motion_pilot,2023.2.2,Win32,147.0588235,65959b14d677879036710db0,65d2b6c8f2eece985d8e374c,65d2b9d9021102d09219339c,0.0209,0.0209,0,32,32,44,1,threeone,,,,,,,,,,,,,,,,,,,,,,,,,,,,,,,,,,,,,,,,,,,,,,,,,,,,,,,,,,,,,,,,,,,,,,,,,,,,,,,,,,,,,,,,,,,,,,,,,,,,,,,,,,,,,,,,,,,,,,,,,,,,,,,,,,,,,,,,,
,,65959b14d677879036710db0,2024-02-19_03h22.46.060,kallum_motion_pilot,2023.2.2,Win32,147.0588235,65959b14d677879036710db0,65d2b6c8f2eece985d8e374c,65d2b9d9021102d09219339c,0.0209,0.021,0,33,33,97,1,fiveseven,,,,,,,,,,,,,,,,,,,,,,,,,,,,,,,,,,,,,,,,,,,,,,,,,,,,,,,,,,,,,,,,,,,,,,,,,,,,,,,,,,,,,,,,,,,,,,,,,,,,,,,,,,,,,,,,,,,,,,,,,,,,,,,,,,,,,,,,,
,,65959b14d677879036710db0,2024-02-19_03h22.46.060,kallum_motion_pilot,2023.2.2,Win32,147.0588235,65959b14d677879036710db0,65d2b6c8f2eece985d8e374c,65d2b9d9021102d09219339c,0.0211,0.0211,0,34,34,39,1,fourthree,,,,,,,,,,,,,,,,,,,,,,,,,,,,,,,,,,,,,,,,,,,,,,,,,,,,,,,,,,,,,,,,,,,,,,,,,,,,,,,,,,,,,,,,,,,,,,,,,,,,,,,,,,,,,,,,,,,,,,,,,,,,,,,,,,,,,,,,,
,,65959b14d677879036710db0,2024-02-19_03h22.46.060,kallum_motion_pilot,2023.2.2,Win32,147.0588235,65959b14d677879036710db0,65d2b6c8f2eece985d8e374c,65d2b9d9021102d09219339c,0.0211,0.0211,0,35,35,20,1,threeone,,,,,,,,,,,,,,,,,,,,,,,,,,,,,,,,,,,,,,,,,,,,,,,,,,,,,,,,,,,,,,,,,,,,,,,,,,,,,,,,,,,,,,,,,,,,,,,,,,,,,,,,,,,,,,,,,,,,,,,,,,,,,,,,,,,,,,,,,
,,65959b14d677879036710db0,2024-02-19_03h22.46.060,kallum_motion_pilot,2023.2.2,Win32,147.0588235,65959b14d677879036710db0,65d2b6c8f2eece985d8e374c,65d2b9d9021102d09219339c,0.0213,0.0213,0,36,36,69,1,threefour,,,,,,,,,,,,,,,,,,,,,,,,,,,,,,,,,,,,,,,,,,,,,,,,,,,,,,,,,,,,,,,,,,,,,,,,,,,,,,,,,,,,,,,,,,,,,,,,,,,,,,,,,,,,,,,,,,,,,,,,,,,,,,,,,,,,,,,,,
,,65959b14d677879036710db0,2024-02-19_03h22.46.060,kallum_motion_pilot,2023.2.2,Win32,147.0588235,65959b14d677879036710db0,65d2b6c8f2eece985d8e374c,65d2b9d9021102d09219339c,0.0213,0.0213,0,37,37,128,1,fivesix,,,,,,,,,,,,,,,,,,,,,,,,,,,,,,,,,,,,,,,,,,,,,,,,,,,,,,,,,,,,,,,,,,,,,,,,,,,,,,,,,,,,,,,,,,,,,,,,,,,,,,,,,,,,,,,,,,,,,,,,,,,,,,,,,,,,,,,,,
,,65959b14d677879036710db0,2024-02-19_03h22.46.060,kallum_motion_pilot,2023.2.2,Win32,147.0588235,65959b14d677879036710db0,65d2b6c8f2eece985d8e374c,65d2b9d9021102d09219339c,0.0213,0.0214,0,38,38,116,1,sevenfive,,,,,,,,,,,,,,,,,,,,,,,,,,,,,,,,,,,,,,,,,,,,,,,,,,,,,,,,,,,,,,,,,,,,,,,,,,,,,,,,,,,,,,,,,,,,,,,,,,,,,,,,,,,,,,,,,,,,,,,,,,,,,,,,,,,,,,,,,
,,65959b14d677879036710db0,2024-02-19_03h22.46.060,kallum_motion_pilot,2023.2.2,Win32,147.0588235,65959b14d677879036710db0,65d2b6c8f2eece985d8e374c,65d2b9d9021102d09219339c,0.0215,0.0215,0,39,39,36,1,threeone,,,,,,,,,,,,,,,,,,,,,,,,,,,,,,,,,,,,,,,,,,,,,,,,,,,,,,,,,,,,,,,,,,,,,,,,,,,,,,,,,,,,,,,,,,,,,,,,,,,,,,,,,,,,,,,,,,,,,,,,,,,,,,,,,,,,,,,,,
,,65959b14d677879036710db0,2024-02-19_03h22.46.060,kallum_motion_pilot,2023.2.2,Win32,147.0588235,65959b14d677879036710db0,65d2b6c8f2eece985d8e374c,65d2b9d9021102d09219339c,0.0215,0.0216,0,40,40,5,1,threefour,,,,,,,,,,,,,,,,,,,,,,,,,,,,,,,,,,,,,,,,,,,,,,,,,,,,,,,,,,,,,,,,,,,,,,,,,,,,,,,,,,,,,,,,,,,,,,,,,,,,,,,,,,,,,,,,,,,,,,,,,,,,,,,,,,,,,,,,,
,,65959b14d677879036710db0,2024-02-19_03h22.46.060,kallum_motion_pilot,2023.2.2,Win32,147.0588235,65959b14d677879036710db0,65d2b6c8f2eece985d8e374c,65d2b9d9021102d09219339c,0.0216,0.0216,0,41,41,0,1,onetwo,,,,,,,,,,,,,,,,,,,,,,,,,,,,,,,,,,,,,,,,,,,,,,,,,,,,,,,,,,,,,,,,,,,,,,,,,,,,,,,,,,,,,,,,,,,,,,,,,,,,,,,,,,,,,,,,,,,,,,,,,,,,,,,,,,,,,,,,,
,,65959b14d677879036710db0,2024-02-19_03h22.46.060,kallum_motion_pilot,2023.2.2,Win32,147.0588235,65959b14d677879036710db0,65d2b6c8f2eece985d8e374c,65d2b9d9021102d09219339c,0.0217,0.0217,0,42,42,156,1,sevenfive,,,,,,,,,,,,,,,,,,,,,,,,,,,,,,,,,,,,,,,,,,,,,,,,,,,,,,,,,,,,,,,,,,,,,,,,,,,,,,,,,,,,,,,,,,,,,,,,,,,,,,,,,,,,,,,,,,,,,,,,,,,,,,,,,,,,,,,,,
,,65959b14d677879036710db0,2024-02-19_03h22.46.060,kallum_motion_pilot,2023.2.2,Win32,147.0588235,65959b14d677879036710db0,65d2b6c8f2eece985d8e374c,65d2b9d9021102d09219339c,0.0218,0.0218,0,43,43,145,1,fiveseven,,,,,,,,,,,,,,,,,,,,,,,,,,,,,,,,,,,,,,,,,,,,,,,,,,,,,,,,,,,,,,,,,,,,,,,,,,,,,,,,,,,,,,,,,,,,,,,,,,,,,,,,,,,,,,,,,,,,,,,,,,,,,,,,,,,,,,,,,
,,65959b14d677879036710db0,2024-02-19_03h22.46.060,kallum_motion_pilot,2023.2.2,Win32,147.0588235,65959b14d677879036710db0,65d2b6c8f2eece985d8e374c,65d2b9d9021102d09219339c,0.0218,0.0219,0,44,44,58,1,twoone,,,,,,,,,,,,,,,,,,,,,,,,,,,,,,,,,,,,,,,,,,,,,,,,,,,,,,,,,,,,,,,,,,,,,,,,,,,,,,,,,,,,,,,,,,,,,,,,,,,,,,,,,,,,,,,,,,,,,,,,,,,,,,,,,,,,,,,,,
,,65959b14d677879036710db0,2024-02-19_03h22.46.060,kallum_motion_pilot,2023.2.2,Win32,147.0588235,65959b14d677879036710db0,65d2b6c8f2eece985d8e374c,65d2b9d9021102d09219339c,0.0219,0.022,0,45,45,14,1,fourtwo,,,,,,,,,,,,,,,,,,,,,,,,,,,,,,,,,,,,,,,,,,,,,,,,,,,,,,,,,,,,,,,,,,,,,,,,,,,,,,,,,,,,,,,,,,,,,,,,,,,,,,,,,,,,,,,,,,,,,,,,,,,,,,,,,,,,,,,,,
,,65959b14d677879036710db0,2024-02-19_03h22.46.060,kallum_motion_pilot,2023.2.2,Win32,147.0588235,65959b14d677879036710db0,65d2b6c8f2eece985d8e374c,65d2b9d9021102d09219339c,0.022,0.0221,0,46,46,86,1,eightsix,,,,,,,,,,,,,,,,,,,,,,,,,,,,,,,,,,,,,,,,,,,,,,,,,,,,,,,,,,,,,,,,,,,,,,,,,,,,,,,,,,,,,,,,,,,,,,,,,,,,,,,,,,,,,,,,,,,,,,,,,,,,,,,,,,,,,,,,,
,,65959b14d677879036710db0,2024-02-19_03h22.46.060,kallum_motion_pilot,2023.2.2,Win32,147.0588235,65959b14d677879036710db0,65d2b6c8f2eece985d8e374c,65d2b9d9021102d09219339c,0.0228,0.0228,0,47,47,75,1,twofour,,,,,,,,,,,,,,,,,,,,,,,,,,,,,,,,,,,,,,,,,,,,,,,,,,,,,,,,,,,,,,,,,,,,,,,,,,,,,,,,,,,,,,,,,,,,,,,,,,,,,,,,,,,,,,,,,,,,,,,,,,,,,,,,,,,,,,,,,
,,65959b14d677879036710db0,2024-02-19_03h22.46.060,kallum_motion_pilot,2023.2.2,Win32,147.0588235,65959b14d677879036710db0,65d2b6c8f2eece985d8e374c,65d2b9d9021102d09219339c,0.0229,0.023,0,48,48,100,1,sevenfive,,,,,,,,,,,,,,,,,,,,,,,,,,,,,,,,,,,,,,,,,,,,,,,,,,,,,,,,,,,,,,,,,,,,,,,,,,,,,,,,,,,,,,,,,,,,,,,,,,,,,,,,,,,,,,,,,,,,,,,,,,,,,,,,,,,,,,,,,
,,65959b14d677879036710db0,2024-02-19_03h22.46.060,kallum_motion_pilot,2023.2.2,Win32,147.0588235,65959b14d677879036710db0,65d2b6c8f2eece985d8e374c,65d2b9d9021102d09219339c,0.023,0.0231,0,49,49,4,1,threeone,,,,,,,,,,,,,,,,,,,,,,,,,,,,,,,,,,,,,,,,,,,,,,,,,,,,,,,,,,,,,,,,,,,,,,,,,,,,,,,,,,,,,,,,,,,,,,,,,,,,,,,,,,,,,,,,,,,,,,,,,,,,,,,,,,,,,,,,,
,,65959b14d677879036710db0,2024-02-19_03h22.46.060,kallum_motion_pilot,2023.2.2,Win32,147.0588235,65959b14d677879036710db0,65d2b6c8f2eece985d8e374c,65d2b9d9021102d09219339c,0.0232,0.0232,0,50,50,110,1,eightsix,,,,,,,,,,,,,,,,,,,,,,,,,,,,,,,,,,,,,,,,,,,,,,,,,,,,,,,,,,,,,,,,,,,,,,,,,,,,,,,,,,,,,,,,,,,,,,,,,,,,,,,,,,,,,,,,,,,,,,,,,,,,,,,,,,,,,,,,,
,,65959b14d677879036710db0,2024-02-19_03h22.46.060,kallum_motion_pilot,2023.2.2,Win32,147.0588235,65959b14d677879036710db0,65d2b6c8f2eece985d8e374c,65d2b9d9021102d09219339c,0.0233,0.0233,0,51,51,52,1,threeone,,,,,,,,,,,,,,,,,,,,,,,,,,,,,,,,,,,,,,,,,,,,,,,,,,,,,,,,,,,,,,,,,,,,,,,,,,,,,,,,,,,,,,,,,,,,,,,,,,,,,,,,,,,,,,,,,,,,,,,,,,,,,,,,,,,,,,,,,
,,65959b14d677879036710db0,2024-02-19_03h22.46.060,kallum_motion_pilot,2023.2.2,Win32,147.0588235,65959b14d677879036710db0,65d2b6c8f2eece985d8e374c,65d2b9d9021102d09219339c,0.0234,0.0234,0,52,52,137,1,fiveseven,,,,,,,,,,,,,,,,,,,,,,,,,,,,,,,,,,,,,,,,,,,,,,,,,,,,,,,,,,,,,,,,,,,,,,,,,,,,,,,,,,,,,,,,,,,,,,,,,,,,,,,,,,,,,,,,,,,,,,,,,,,,,,,,,,,,,,,,,
,,65959b14d677879036710db0,2024-02-19_03h22.46.060,kallum_motion_pilot,2023.2.2,Win32,147.0588235,65959b14d677879036710db0,65d2b6c8f2eece985d8e374c,65d2b9d9021102d09219339c,0.0235,0.0235,0,53,53,56,1,onetwo,,,,,,,,,,,,,,,,,,,,,,,,,,,,,,,,,,,,,,,,,,,,,,,,,,,,,,,,,,,,,,,,,,,,,,,,,,,,,,,,,,,,,,,,,,,,,,,,,,,,,,,,,,,,,,,,,,,,,,,,,,,,,,,,,,,,,,,,,
,,65959b14d677879036710db0,2024-02-19_03h22.46.060,kallum_motion_pilot,2023.2.2,Win32,147.0588235,65959b14d677879036710db0,65d2b6c8f2eece985d8e374c,65d2b9d9021102d09219339c,0.0236,0.0236,0,54,54,65,1,onethree,,,,,,,,,,,,,,,,,,,,,,,,,,,,,,,,,,,,,,,,,,,,,,,,,,,,,,,,,,,,,,,,,,,,,,,,,,,,,,,,,,,,,,,,,,,,,,,,,,,,,,,,,,,,,,,,,,,,,,,,,,,,,,,,,,,,,,,,,
,,65959b14d677879036710db0,2024-02-19_03h22.46.060,kallum_motion_pilot,2023.2.2,Win32,147.0588235,65959b14d677879036710db0,65d2b6c8f2eece985d8e374c,65d2b9d9021102d09219339c,0.0237,0.0237,0,55,55,91,1,sixeight,,,,,,,,,,,,,,,,,,,,,,,,,,,,,,,,,,,,,,,,,,,,,,,,,,,,,,,,,,,,,,,,,,,,,,,,,,,,,,,,,,,,,,,,,,,,,,,,,,,,,,,,,,,,,,,,,,,,,,,,,,,,,,,,,,,,,,,,,
,,65959b14d677879036710db0,2024-02-19_03h22.46.060,kallum_motion_pilot,2023.2.2,Win32,147.0588235,65959b14d677879036710db0,65d2b6c8f2eece985d8e374c,65d2b9d9021102d09219339c,0.0238,0.0238,0,56,56,92,1,sevenfive,,,,,,,,,,,,,,,,,,,,,,,,,,,,,,,,,,,,,,,,,,,,,,,,,,,,,,,,,,,,,,,,,,,,,,,,,,,,,,,,,,,,,,,,,,,,,,,,,,,,,,,,,,,,,,,,,,,,,,,,,,,,,,,,,,,,,,,,,
,,65959b14d677879036710db0,2024-02-19_03h22.46.060,kallum_motion_pilot,2023.2.2,Win32,147.0588235,65959b14d677879036710db0,65d2b6c8f2eece985d8e374c,65d2b9d9021102d09219339c,0.0238,0.0239,0,57,57,50,1,twoone,,,,,,,,,,,,,,,,,,,,,,,,,,,,,,,,,,,,,,,,,,,,,,,,,,,,,,,,,,,,,,,,,,,,,,,,,,,,,,,,,,,,,,,,,,,,,,,,,,,,,,,,,,,,,,,,,,,,,,,,,,,,,,,,,,,,,,,,,
,,65959b14d677879036710db0,2024-02-19_03h22.46.060,kallum_motion_pilot,2023.2.2,Win32,147.0588235,65959b14d677879036710db0,65d2b6c8f2eece985d8e374c,65d2b9d9021102d09219339c,0.0239,0.0239,0,58,58,15,1,fourthree,,,,,,,,,,,,,,,,,,,,,,,,,,,,,,,,,,,,,,,,,,,,,,,,,,,,,,,,,,,,,,,,,,,,,,,,,,,,,,,,,,,,,,,,,,,,,,,,,,,,,,,,,,,,,,,,,,,,,,,,,,,,,,,,,,,,,,,,,
,,65959b14d677879036710db0,2024-02-19_03h22.46.060,kallum_motion_pilot,2023.2.2,Win32,147.0588235,65959b14d677879036710db0,65d2b6c8f2eece985d8e374c,65d2b9d9021102d09219339c,0.0241,0.0241,0,59,59,33,1,onethree,,,,,,,,,,,,,,,,,,,,,,,,,,,,,,,,,,,,,,,,,,,,,,,,,,,,,,,,,,,,,,,,,,,,,,,,,,,,,,,,,,,,,,,,,,,,,,,,,,,,,,,,,,,,,,,,,,,,,,,,,,,,,,,,,,,,,,,,,
,,65959b14d677879036710db0,2024-02-19_03h22.46.060,kallum_motion_pilot,2023.2.2,Win32,147.0588235,65959b14d677879036710db0,65d2b6c8f2eece985d8e374c,65d2b9d9021102d09219339c,0.0241,0.0241,0,60,60,40,1,onetwo,,,,,,,,,,,,,,,,,,,,,,,,,,,,,,,,,,,,,,,,,,,,,,,,,,,,,,,,,,,,,,,,,,,,,,,,,,,,,,,,,,,,,,,,,,,,,,,,,,,,,,,,,,,,,,,,,,,,,,,,,,,,,,,,,,,,,,,,,
,,65959b14d677879036710db0,2024-02-19_03h22.46.060,kallum_motion_pilot,2023.2.2,Win32,147.0588235,65959b14d677879036710db0,65d2b6c8f2eece985d8e374c,65d2b9d9021102d09219339c,0.0242,0.0242,0,61,61,6,1,fourtwo,,,,,,,,,,,,,,,,,,,,,,,,,,,,,,,,,,,,,,,,,,,,,,,,,,,,,,,,,,,,,,,,,,,,,,,,,,,,,,,,,,,,,,,,,,,,,,,,,,,,,,,,,,,,,,,,,,,,,,,,,,,,,,,,,,,,,,,,,
,,65959b14d677879036710db0,2024-02-19_03h22.46.060,kallum_motion_pilot,2023.2.2,Win32,147.0588235,65959b14d677879036710db0,65d2b6c8f2eece985d8e374c,65d2b9d9021102d09219339c,0.0243,0.0243,0,62,62,144,1,fivesix,,,,,,,,,,,,,,,,,,,,,,,,,,,,,,,,,,,,,,,,,,,,,,,,,,,,,,,,,,,,,,,,,,,,,,,,,,,,,,,,,,,,,,,,,,,,,,,,,,,,,,,,,,,,,,,,,,,,,,,,,,,,,,,,,,,,,,,,,
,,65959b14d677879036710db0,2024-02-19_03h22.46.060,kallum_motion_pilot,2023.2.2,Win32,147.0588235,65959b14d677879036710db0,65d2b6c8f2eece985d8e374c,65d2b9d9021102d09219339c,0.0244,0.0245,0,63,63,18,1,twoone,,,,,,,,,,,,,,,,,,,,,,,,,,,,,,,,,,,,,,,,,,,,,,,,,,,,,,,,,,,,,,,,,,,,,,,,,,,,,,,,,,,,,,,,,,,,,,,,,,,,,,,,,,,,,,,,,,,,,,,,,,,,,,,,,,,,,,,,,
,,65959b14d677879036710db0,2024-02-19_03h22.46.060,kallum_motion_pilot,2023.2.2,Win32,147.0588235,65959b14d677879036710db0,65d2b6c8f2eece985d8e374c,65d2b9d9021102d09219339c,0.0245,0.0245,0,64,64,158,1,eightsix,,,,,,,,,,,,,,,,,,,,,,,,,,,,,,,,,,,,,,,,,,,,,,,,,,,,,,,,,,,,,,,,,,,,,,,,,,,,,,,,,,,,,,,,,,,,,,,,,,,,,,,,,,,,,,,,,,,,,,,,,,,,,,,,,,,,,,,,,
,,65959b14d677879036710db0,2024-02-19_03h22.46.060,kallum_motion_pilot,2023.2.2,Win32,147.0588235,65959b14d677879036710db0,65d2b6c8f2eece985d8e374c,65d2b9d9021102d09219339c,0.0245,0.0246,0,65,65,7,1,fourthree,,,,,,,,,,,,,,,,,,,,,,,,,,,,,,,,,,,,,,,,,,,,,,,,,,,,,,,,,,,,,,,,,,,,,,,,,,,,,,,,,,,,,,,,,,,,,,,,,,,,,,,,,,,,,,,,,,,,,,,,,,,,,,,,,,,,,,,,,
,,65959b14d677879036710db0,2024-02-19_03h22.46.060,kallum_motion_pilot,2023.2.2,Win32,147.0588235,65959b14d677879036710db0,65d2b6c8f2eece985d8e374c,65d2b9d9021102d09219339c,0.0246,0.0247,0,66,66,79,1,eightseven,,,,,,,,,,,,,,,,,,,,,,,,,,,,,,,,,,,,,,,,,,,,,,,,,,,,,,,,,,,,,,,,,,,,,,,,,,,,,,,,,,,,,,,,,,,,,,,,,,,,,,,,,,,,,,,,,,,,,,,,,,,,,,,,,,,,,,,,,
,,65959b14d677879036710db0,2024-02-19_03h22.46.060,kallum_motion_pilot,2023.2.2,Win32,147.0588235,65959b14d677879036710db0,65d2b6c8f2eece985d8e374c,65d2b9d9021102d09219339c,0.0248,0.0248,0,67,67,103,1,eightseven,,,,,,,,,,,,,,,,,,,,,,,,,,,,,,,,,,,,,,,,,,,,,,,,,,,,,,,,,,,,,,,,,,,,,,,,,,,,,,,,,,,,,,,,,,,,,,,,,,,,,,,,,,,,,,,,,,,,,,,,,,,,,,,,,,,,,,,,,
,,65959b14d677879036710db0,2024-02-19_03h22.46.060,kallum_motion_pilot,2023.2.2,Win32,147.0588235,65959b14d677879036710db0,65d2b6c8f2eece985d8e374c,65d2b9d9021102d09219339c,0.0248,0.0248,0,68,68,152,1,fivesix,,,,,,,,,,,,,,,,,,,,,,,,,,,,,,,,,,,,,,,,,,,,,,,,,,,,,,,,,,,,,,,,,,,,,,,,,,,,,,,,,,,,,,,,,,,,,,,,,,,,,,,,,,,,,,,,,,,,,,,,,,,,,,,,,,,,,,,,,
,,65959b14d677879036710db0,2024-02-19_03h22.46.060,kallum_motion_pilot,2023.2.2,Win32,147.0588235,65959b14d677879036710db0,65d2b6c8f2eece985d8e374c,65d2b9d9021102d09219339c,0.025,0.025,0,69,69,121,1,fiveseven,,,,,,,,,,,,,,,,,,,,,,,,,,,,,,,,,,,,,,,,,,,,,,,,,,,,,,,,,,,,,,,,,,,,,,,,,,,,,,,,,,,,,,,,,,,,,,,,,,,,,,,,,,,,,,,,,,,,,,,,,,,,,,,,,,,,,,,,,
,,65959b14d677879036710db0,2024-02-19_03h22.46.060,kallum_motion_pilot,2023.2.2,Win32,147.0588235,65959b14d677879036710db0,65d2b6c8f2eece985d8e374c,65d2b9d9021102d09219339c,0.0251,0.0251,0,70,70,85,1,seveneight,,,,,,,,,,,,,,,,,,,,,,,,,,,,,,,,,,,,,,,,,,,,,,,,,,,,,,,,,,,,,,,,,,,,,,,,,,,,,,,,,,,,,,,,,,,,,,,,,,,,,,,,,,,,,,,,,,,,,,,,,,,,,,,,,,,,,,,,,
,,65959b14d677879036710db0,2024-02-19_03h22.46.060,kallum_motion_pilot,2023.2.2,Win32,147.0588235,65959b14d677879036710db0,65d2b6c8f2eece985d8e374c,65d2b9d9021102d09219339c,0.0252,0.0252,0,71,71,8,1,onetwo,,,,,,,,,,,,,,,,,,,,,,,,,,,,,,,,,,,,,,,,,,,,,,,,,,,,,,,,,,,,,,,,,,,,,,,,,,,,,,,,,,,,,,,,,,,,,,,,,,,,,,,,,,,,,,,,,,,,,,,,,,,,,,,,,,,,,,,,,
,,65959b14d677879036710db0,2024-02-19_03h22.46.060,kallum_motion_pilot,2023.2.2,Win32,147.0588235,65959b14d677879036710db0,65d2b6c8f2eece985d8e374c,65d2b9d9021102d09219339c,0.0253,0.0253,0,72,72,21,1,threefour,,,,,,,,,,,,,,,,,,,,,,,,,,,,,,,,,,,,,,,,,,,,,,,,,,,,,,,,,,,,,,,,,,,,,,,,,,,,,,,,,,,,,,,,,,,,,,,,,,,,,,,,,,,,,,,,,,,,,,,,,,,,,,,,,,,,,,,,,
,,65959b14d677879036710db0,2024-02-19_03h22.46.060,kallum_motion_pilot,2023.2.2,Win32,147.0588235,65959b14d677879036710db0,65d2b6c8f2eece985d8e374c,65d2b9d9021102d09219339c,0.0253,0.0253,0,73,73,9,1,onethree,,,,,,,,,,,,,,,,,,,,,,,,,,,,,,,,,,,,,,,,,,,,,,,,,,,,,,,,,,,,,,,,,,,,,,,,,,,,,,,,,,,,,,,,,,,,,,,,,,,,,,,,,,,,,,,,,,,,,,,,,,,,,,,,,,,,,,,,,
,,65959b14d677879036710db0,2024-02-19_03h22.46.060,kallum_motion_pilot,2023.2.2,Win32,147.0588235,65959b14d677879036710db0,65d2b6c8f2eece985d8e374c,65d2b9d9021102d09219339c,0.0254,0.0255,0,74,74,88,1,fivesix,,,,,,,,,,,,,,,,,,,,,,,,,,,,,,,,,,,,,,,,,,,,,,,,,,,,,,,,,,,,,,,,,,,,,,,,,,,,,,,,,,,,,,,,,,,,,,,,,,,,,,,,,,,,,,,,,,,,,,,,,,,,,,,,,,,,,,,,,
,,65959b14d677879036710db0,2024-02-19_03h22.46.060,kallum_motion_pilot,2023.2.2,Win32,147.0588235,65959b14d677879036710db0,65d2b6c8f2eece985d8e374c,65d2b9d9021102d09219339c,0.0255,0.0255,0,75,75,112,1,fivesix,,,,,,,,,,,,,,,,,,,,,,,,,,,,,,,,,,,,,,,,,,,,,,,,,,,,,,,,,,,,,,,,,,,,,,,,,,,,,,,,,,,,,,,,,,,,,,,,,,,,,,,,,,,,,,,,,,,,,,,,,,,,,,,,,,,,,,,,,
,,65959b14d677879036710db0,2024-02-19_03h22.46.060,kallum_motion_pilot,2023.2.2,Win32,147.0588235,65959b14d677879036710db0,65d2b6c8f2eece985d8e374c,65d2b9d9021102d09219339c,0.0256,0.0257,0,76,76,125,1,seveneight,,,,,,,,,,,,,,,,,,,,,,,,,,,,,,,,,,,,,,,,,,,,,,,,,,,,,,,,,,,,,,,,,,,,,,,,,,,,,,,,,,,,,,,,,,,,,,,,,,,,,,,,,,,,,,,,,,,,,,,,,,,,,,,,,,,,,,,,,
,,65959b14d677879036710db0,2024-02-19_03h22.46.060,kallum_motion_pilot,2023.2.2,Win32,147.0588235,65959b14d677879036710db0,65d2b6c8f2eece985d8e374c,65d2b9d9021102d09219339c,0.0257,0.0257,0,77,77,132,1,sevenfive,,,,,,,,,,,,,,,,,,,,,,,,,,,,,,,,,,,,,,,,,,,,,,,,,,,,,,,,,,,,,,,,,,,,,,,,,,,,,,,,,,,,,,,,,,,,,,,,,,,,,,,,,,,,,,,,,,,,,,,,,,,,,,,,,,,,,,,,,
,,65959b14d677879036710db0,2024-02-19_03h22.46.060,kallum_motion_pilot,2023.2.2,Win32,147.0588235,65959b14d677879036710db0,65d2b6c8f2eece985d8e374c,65d2b9d9021102d09219339c,0.0258,0.0258,0,78,78,59,1,twofour,,,,,,,,,,,,,,,,,,,,,,,,,,,,,,,,,,,,,,,,,,,,,,,,,,,,,,,,,,,,,,,,,,,,,,,,,,,,,,,,,,,,,,,,,,,,,,,,,,,,,,,,,,,,,,,,,,,,,,,,,,,,,,,,,,,,,,,,,
,,65959b14d677879036710db0,2024-02-19_03h22.46.060,kallum_motion_pilot,2023.2.2,Win32,147.0588235,65959b14d677879036710db0,65d2b6c8f2eece985d8e374c,65d2b9d9021102d09219339c,0.0258,0.0259,0,79,79,80,1,fivesix,,,,,,,,,,,,,,,,,,,,,,,,,,,,,,,,,,,,,,,,,,,,,,,,,,,,,,,,,,,,,,,,,,,,,,,,,,,,,,,,,,,,,,,,,,,,,,,,,,,,,,,,,,,,,,,,,,,,,,,,,,,,,,,,,,,,,,,,,
,,65959b14d677879036710db0,2024-02-19_03h22.46.060,kallum_motion_pilot,2023.2.2,Win32,147.0588235,65959b14d677879036710db0,65d2b6c8f2eece985d8e374c,65d2b9d9021102d09219339c,0.0259,0.026,0,80,80,126,1,eightsix,,,,,,,,,,,,,,,,,,,,,,,,,,,,,,,,,,,,,,,,,,,,,,,,,,,,,,,,,,,,,,,,,,,,,,,,,,,,,,,,,,,,,,,,,,,,,,,,,,,,,,,,,,,,,,,,,,,,,,,,,,,,,,,,,,,,,,,,,
,,65959b14d677879036710db0,2024-02-19_03h22.46.060,kallum_motion_pilot,2023.2.2,Win32,147.0588235,65959b14d677879036710db0,65d2b6c8f2eece985d8e374c,65d2b9d9021102d09219339c,0.026,0.0261,0,81,81,11,1,twofour,,,,,,,,,,,,,,,,,,,,,,,,,,,,,,,,,,,,,,,,,,,,,,,,,,,,,,,,,,,,,,,,,,,,,,,,,,,,,,,,,,,,,,,,,,,,,,,,,,,,,,,,,,,,,,,,,,,,,,,,,,,,,,,,,,,,,,,,,
,,65959b14d677879036710db0,2024-02-19_03h22.46.060,kallum_motion_pilot,2023.2.2,Win32,147.0588235,65959b14d677879036710db0,65d2b6c8f2eece985d8e374c,65d2b9d9021102d09219339c,0.0261,0.0262,0,82,82,160,1,fivesix,,,,,,,,,,,,,,,,,,,,,,,,,,,,,,,,,,,,,,,,,,,,,,,,,,,,,,,,,,,,,,,,,,,,,,,,,,,,,,,,,,,,,,,,,,,,,,,,,,,,,,,,,,,,,,,,,,,,,,,,,,,,,,,,,,,,,,,,,
,,65959b14d677879036710db0,2024-02-19_03h22.46.060,kallum_motion_pilot,2023.2.2,Win32,147.0588235,65959b14d677879036710db0,65d2b6c8f2eece985d8e374c,65d2b9d9021102d09219339c,0.0262,0.0263,0,83,83,89,1,fiveseven,,,,,,,,,,,,,,,,,,,,,,,,,,,,,,,,,,,,,,,,,,,,,,,,,,,,,,,,,,,,,,,,,,,,,,,,,,,,,,,,,,,,,,,,,,,,,,,,,,,,,,,,,,,,,,,,,,,,,,,,,,,,,,,,,,,,,,,,,
,,65959b14d677879036710db0,2024-02-19_03h22.46.060,kallum_motion_pilot,2023.2.2,Win32,147.0588235,65959b14d677879036710db0,65d2b6c8f2eece985d8e374c,65d2b9d9021102d09219339c,0.0264,0.0264,0,84,84,17,1,onethree,,,,,,,,,,,,,,,,,,,,,,,,,,,,,,,,,,,,,,,,,,,,,,,,,,,,,,,,,,,,,,,,,,,,,,,,,,,,,,,,,,,,,,,,,,,,,,,,,,,,,,,,,,,,,,,,,,,,,,,,,,,,,,,,,,,,,,,,,
,,65959b14d677879036710db0,2024-02-19_03h22.46.060,kallum_motion_pilot,2023.2.2,Win32,147.0588235,65959b14d677879036710db0,65d2b6c8f2eece985d8e374c,65d2b9d9021102d09219339c,0.0264,0.0264,0,85,85,138,1,sixfive,,,,,,,,,,,,,,,,,,,,,,,,,,,,,,,,,,,,,,,,,,,,,,,,,,,,,,,,,,,,,,,,,,,,,,,,,,,,,,,,,,,,,,,,,,,,,,,,,,,,,,,,,,,,,,,,,,,,,,,,,,,,,,,,,,,,,,,,,
,,65959b14d677879036710db0,2024-02-19_03h22.46.060,kallum_motion_pilot,2023.2.2,Win32,147.0588235,65959b14d677879036710db0,65d2b6c8f2eece985d8e374c,65d2b9d9021102d09219339c,0.0265,0.0266,0,86,86,154,1,sixfive,,,,,,,,,,,,,,,,,,,,,,,,,,,,,,,,,,,,,,,,,,,,,,,,,,,,,,,,,,,,,,,,,,,,,,,,,,,,,,,,,,,,,,,,,,,,,,,,,,,,,,,,,,,,,,,,,,,,,,,,,,,,,,,,,,,,,,,,,
,,65959b14d677879036710db0,2024-02-19_03h22.46.060,kallum_motion_pilot,2023.2.2,Win32,147.0588235,65959b14d677879036710db0,65d2b6c8f2eece985d8e374c,65d2b9d9021102d09219339c,0.0267,0.0267,0,87,87,67,1,twofour,,,,,,,,,,,,,,,,,,,,,,,,,,,,,,,,,,,,,,,,,,,,,,,,,,,,,,,,,,,,,,,,,,,,,,,,,,,,,,,,,,,,,,,,,,,,,,,,,,,,,,,,,,,,,,,,,,,,,,,,,,,,,,,,,,,,,,,,,
,,65959b14d677879036710db0,2024-02-19_03h22.46.060,kallum_motion_pilot,2023.2.2,Win32,147.0588235,65959b14d677879036710db0,65d2b6c8f2eece985d8e374c,65d2b9d9021102d09219339c,0.0267,0.0268,0,88,88,54,1,fourtwo,,,,,,,,,,,,,,,,,,,,,,,,,,,,,,,,,,,,,,,,,,,,,,,,,,,,,,,,,,,,,,,,,,,,,,,,,,,,,,,,,,,,,,,,,,,,,,,,,,,,,,,,,,,,,,,,,,,,,,,,,,,,,,,,,,,,,,,,,
,,65959b14d677879036710db0,2024-02-19_03h22.46.060,kallum_motion_pilot,2023.2.2,Win32,147.0588235,65959b14d677879036710db0,65d2b6c8f2eece985d8e374c,65d2b9d9021102d09219339c,0.0268,0.0269,0,89,89,61,1,threefour,,,,,,,,,,,,,,,,,,,,,,,,,,,,,,,,,,,,,,,,,,,,,,,,,,,,,,,,,,,,,,,,,,,,,,,,,,,,,,,,,,,,,,,,,,,,,,,,,,,,,,,,,,,,,,,,,,,,,,,,,,,,,,,,,,,,,,,,,
,,65959b14d677879036710db0,2024-02-19_03h22.46.060,kallum_motion_pilot,2023.2.2,Win32,147.0588235,65959b14d677879036710db0,65d2b6c8f2eece985d8e374c,65d2b9d9021102d09219339c,0.0269,0.027,0,90,90,23,1,fourthree,,,,,,,,,,,,,,,,,,,,,,,,,,,,,,,,,,,,,,,,,,,,,,,,,,,,,,,,,,,,,,,,,,,,,,,,,,,,,,,,,,,,,,,,,,,,,,,,,,,,,,,,,,,,,,,,,,,,,,,,,,,,,,,,,,,,,,,,,
,,65959b14d677879036710db0,2024-02-19_03h22.46.060,kallum_motion_pilot,2023.2.2,Win32,147.0588235,65959b14d677879036710db0,65d2b6c8f2eece985d8e374c,65d2b9d9021102d09219339c,0.027,0.0271,0,91,91,24,1,onetwo,,,,,,,,,,,,,,,,,,,,,,,,,,,,,,,,,,,,,,,,,,,,,,,,,,,,,,,,,,,,,,,,,,,,,,,,,,,,,,,,,,,,,,,,,,,,,,,,,,,,,,,,,,,,,,,,,,,,,,,,,,,,,,,,,,,,,,,,,
,,65959b14d677879036710db0,2024-02-19_03h22.46.060,kallum_motion_pilot,2023.2.2,Win32,147.0588235,65959b14d677879036710db0,65d2b6c8f2eece985d8e374c,65d2b9d9021102d09219339c,0.0271,0.0271,0,92,92,157,1,seveneight,,,,,,,,,,,,,,,,,,,,,,,,,,,,,,,,,,,,,,,,,,,,,,,,,,,,,,,,,,,,,,,,,,,,,,,,,,,,,,,,,,,,,,,,,,,,,,,,,,,,,,,,,,,,,,,,,,,,,,,,,,,,,,,,,,,,,,,,,
,,65959b14d677879036710db0,2024-02-19_03h22.46.060,kallum_motion_pilot,2023.2.2,Win32,147.0588235,65959b14d677879036710db0,65d2b6c8f2eece985d8e374c,65d2b9d9021102d09219339c,0.0272,0.0272,0,93,93,120,1,fivesix,,,,,,,,,,,,,,,,,,,,,,,,,,,,,,,,,,,,,,,,,,,,,,,,,,,,,,,,,,,,,,,,,,,,,,,,,,,,,,,,,,,,,,,,,,,,,,,,,,,,,,,,,,,,,,,,,,,,,,,,,,,,,,,,,,,,,,,,,
,,65959b14d677879036710db0,2024-02-19_03h22.46.060,kallum_motion_pilot,2023.2.2,Win32,147.0588235,65959b14d677879036710db0,65d2b6c8f2eece985d8e374c,65d2b9d9021102d09219339c,0.0273,0.0274,0,94,94,161,1,fiveseven,,,,,,,,,,,,,,,,,,,,,,,,,,,,,,,,,,,,,,,,,,,,,,,,,,,,,,,,,,,,,,,,,,,,,,,,,,,,,,,,,,,,,,,,,,,,,,,,,,,,,,,,,,,,,,,,,,,,,,,,,,,,,,,,,,,,,,,,,
,,65959b14d677879036710db0,2024-02-19_03h22.46.060,kallum_motion_pilot,2023.2.2,Win32,147.0588235,65959b14d677879036710db0,65d2b6c8f2eece985d8e374c,65d2b9d9021102d09219339c,0.0274,0.0274,0,95,95,108,1,sevenfive,,,,,,,,,,,,,,,,,,,,,,,,,,,,,,,,,,,,,,,,,,,,,,,,,,,,,,,,,,,,,,,,,,,,,,,,,,,,,,,,,,,,,,,,,,,,,,,,,,,,,,,,,,,,,,,,,,,,,,,,,,,,,,,,,,,,,,,,,
,,65959b14d677879036710db0,2024-02-19_03h22.46.060,kallum_motion_pilot,2023.2.2,Win32,147.0588235,65959b14d677879036710db0,65d2b6c8f2eece985d8e374c,65d2b9d9021102d09219339c,0.0275,0.0275,0,96,96,113,1,fiveseven,,,,,,,,,,,,,,,,,,,,,,,,,,,,,,,,,,,,,,,,,,,,,,,,,,,,,,,,,,,,,,,,,,,,,,,,,,,,,,,,,,,,,,,,,,,,,,,,,,,,,,,,,,,,,,,,,,,,,,,,,,,,,,,,,,,,,,,,,
,,65959b14d677879036710db0,2024-02-19_03h22.46.060,kallum_motion_pilot,2023.2.2,Win32,147.0588235,65959b14d677879036710db0,65d2b6c8f2eece985d8e374c,65d2b9d9021102d09219339c,0.0276,0.0277,0,97,97,104,1,fivesix,,,,,,,,,,,,,,,,,,,,,,,,,,,,,,,,,,,,,,,,,,,,,,,,,,,,,,,,,,,,,,,,,,,,,,,,,,,,,,,,,,,,,,,,,,,,,,,,,,,,,,,,,,,,,,,,,,,,,,,,,,,,,,,,,,,,,,,,,
,,65959b14d677879036710db0,2024-02-19_03h22.46.060,kallum_motion_pilot,2023.2.2,Win32,147.0588235,65959b14d677879036710db0,65d2b6c8f2eece985d8e374c,65d2b9d9021102d09219339c,0.0277,0.0278,0,98,98,136,1,fivesix,,,,,,,,,,,,,,,,,,,,,,,,,,,,,,,,,,,,,,,,,,,,,,,,,,,,,,,,,,,,,,,,,,,,,,,,,,,,,,,,,,,,,,,,,,,,,,,,,,,,,,,,,,,,,,,,,,,,,,,,,,,,,,,,,,,,,,,,,
,,65959b14d677879036710db0,2024-02-19_03h22.46.060,kallum_motion_pilot,2023.2.2,Win32,147.0588235,65959b14d677879036710db0,65d2b6c8f2eece985d8e374c,65d2b9d9021102d09219339c,0.0278,0.0278,0,99,99,147,1,sixeight,,,,,,,,,,,,,,,,,,,,,,,,,,,,,,,,,,,,,,,,,,,,,,,,,,,,,,,,,,,,,,,,,,,,,,,,,,,,,,,,,,,,,,,,,,,,,,,,,,,,,,,,,,,,,,,,,,,,,,,,,,,,,,,,,,,,,,,,,
,,65959b14d677879036710db0,2024-02-19_03h22.46.060,kallum_motion_pilot,2023.2.2,Win32,147.0588235,65959b14d677879036710db0,65d2b6c8f2eece985d8e374c,65d2b9d9021102d09219339c,0.0279,0.0279,0,100,100,114,1,sixfive,,,,,,,,,,,,,,,,,,,,,,,,,,,,,,,,,,,,,,,,,,,,,,,,,,,,,,,,,,,,,,,,,,,,,,,,,,,,,,,,,,,,,,,,,,,,,,,,,,,,,,,,,,,,,,,,,,,,,,,,,,,,,,,,,,,,,,,,,
,,65959b14d677879036710db0,2024-02-19_03h22.46.060,kallum_motion_pilot,2023.2.2,Win32,147.0588235,65959b14d677879036710db0,65d2b6c8f2eece985d8e374c,65d2b9d9021102d09219339c,0.028,0.028,0,101,101,70,1,fourtwo,,,,,,,,,,,,,,,,,,,,,,,,,,,,,,,,,,,,,,,,,,,,,,,,,,,,,,,,,,,,,,,,,,,,,,,,,,,,,,,,,,,,,,,,,,,,,,,,,,,,,,,,,,,,,,,,,,,,,,,,,,,,,,,,,,,,,,,,,
,,65959b14d677879036710db0,2024-02-19_03h22.46.060,kallum_motion_pilot,2023.2.2,Win32,147.0588235,65959b14d677879036710db0,65d2b6c8f2eece985d8e374c,65d2b9d9021102d09219339c,0.0281,0.0281,0,102,102,134,1,eightsix,,,,,,,,,,,,,,,,,,,,,,,,,,,,,,,,,,,,,,,,,,,,,,,,,,,,,,,,,,,,,,,,,,,,,,,,,,,,,,,,,,,,,,,,,,,,,,,,,,,,,,,,,,,,,,,,,,,,,,,,,,,,,,,,,,,,,,,,,
,,65959b14d677879036710db0,2024-02-19_03h22.46.060,kallum_motion_pilot,2023.2.2,Win32,147.0588235,65959b14d677879036710db0,65d2b6c8f2eece985d8e374c,65d2b9d9021102d09219339c,0.0281,0.0282,0,103,103,141,1,seveneight,,,,,,,,,,,,,,,,,,,,,,,,,,,,,,,,,,,,,,,,,,,,,,,,,,,,,,,,,,,,,,,,,,,,,,,,,,,,,,,,,,,,,,,,,,,,,,,,,,,,,,,,,,,,,,,,,,,,,,,,,,,,,,,,,,,,,,,,,
,,65959b14d677879036710db0,2024-02-19_03h22.46.060,kallum_motion_pilot,2023.2.2,Win32,147.0588235,65959b14d677879036710db0,65d2b6c8f2eece985d8e374c,65d2b9d9021102d09219339c,0.0283,0.0284,0,104,104,60,1,threeone,,,,,,,,,,,,,,,,,,,,,,,,,,,,,,,,,,,,,,,,,,,,,,,,,,,,,,,,,,,,,,,,,,,,,,,,,,,,,,,,,,,,,,,,,,,,,,,,,,,,,,,,,,,,,,,,,,,,,,,,,,,,,,,,,,,,,,,,,
,,65959b14d677879036710db0,2024-02-19_03h22.46.060,kallum_motion_pilot,2023.2.2,Win32,147.0588235,65959b14d677879036710db0,65d2b6c8f2eece985d8e374c,65d2b9d9021102d09219339c,0.0284,0.0284,0,105,105,73,1,onethree,,,,,,,,,,,,,,,,,,,,,,,,,,,,,,,,,,,,,,,,,,,,,,,,,,,,,,,,,,,,,,,,,,,,,,,,,,,,,,,,,,,,,,,,,,,,,,,,,,,,,,,,,,,,,,,,,,,,,,,,,,,,,,,,,,,,,,,,,
,,65959b14d677879036710db0,2024-02-19_03h22.46.060,kallum_motion_pilot,2023.2.2,Win32,147.0588235,65959b14d677879036710db0,65d2b6c8f2eece985d8e374c,65d2b9d9021102d09219339c,0.0285,0.0286,0,106,106,38,1,fourtwo,,,,,,,,,,,,,,,,,,,,,,,,,,,,,,,,,,,,,,,,,,,,,,,,,,,,,,,,,,,,,,,,,,,,,,,,,,,,,,,,,,,,,,,,,,,,,,,,,,,,,,,,,,,,,,,,,,,,,,,,,,,,,,,,,,,,,,,,,
,,65959b14d677879036710db0,2024-02-19_03h22.46.060,kallum_motion_pilot,2023.2.2,Win32,147.0588235,65959b14d677879036710db0,65d2b6c8f2eece985d8e374c,65d2b9d9021102d09219339c,0.0286,0.0286,0,107,107,142,1,eightsix,,,,,,,,,,,,,,,,,,,,,,,,,,,,,,,,,,,,,,,,,,,,,,,,,,,,,,,,,,,,,,,,,,,,,,,,,,,,,,,,,,,,,,,,,,,,,,,,,,,,,,,,,,,,,,,,,,,,,,,,,,,,,,,,,,,,,,,,,
,,65959b14d677879036710db0,2024-02-19_03h22.46.060,kallum_motion_pilot,2023.2.2,Win32,147.0588235,65959b14d677879036710db0,65d2b6c8f2eece985d8e374c,65d2b9d9021102d09219339c,0.0287,0.0287,0,108,108,29,1,threefour,,,,,,,,,,,,,,,,,,,,,,,,,,,,,,,,,,,,,,,,,,,,,,,,,,,,,,,,,,,,,,,,,,,,,,,,,,,,,,,,,,,,,,,,,,,,,,,,,,,,,,,,,,,,,,,,,,,,,,,,,,,,,,,,,,,,,,,,,
,,65959b14d677879036710db0,2024-02-19_03h22.46.060,kallum_motion_pilot,2023.2.2,Win32,147.0588235,65959b14d677879036710db0,65d2b6c8f2eece985d8e374c,65d2b9d9021102d09219339c,0.0287,0.0288,0,109,109,83,1,sixeight,,,,,,,,,,,,,,,,,,,,,,,,,,,,,,,,,,,,,,,,,,,,,,,,,,,,,,,,,,,,,,,,,,,,,,,,,,,,,,,,,,,,,,,,,,,,,,,,,,,,,,,,,,,,,,,,,,,,,,,,,,,,,,,,,,,,,,,,,
,,65959b14d677879036710db0,2024-02-19_03h22.46.060,kallum_motion_pilot,2023.2.2,Win32,147.0588235,65959b14d677879036710db0,65d2b6c8f2eece985d8e374c,65d2b9d9021102d09219339c,0.0288,0.0289,0,110,110,98,1,sixfive,,,,,,,,,,,,,,,,,,,,,,,,,,,,,,,,,,,,,,,,,,,,,,,,,,,,,,,,,,,,,,,,,,,,,,,,,,,,,,,,,,,,,,,,,,,,,,,,,,,,,,,,,,,,,,,,,,,,,,,,,,,,,,,,,,,,,,,,,
,,65959b14d677879036710db0,2024-02-19_03h22.46.060,kallum_motion_pilot,2023.2.2,Win32,147.0588235,65959b14d677879036710db0,65d2b6c8f2eece985d8e374c,65d2b9d9021102d09219339c,0.029,0.029,0,111,111,51,1,twofour,,,,,,,,,,,,,,,,,,,,,,,,,,,,,,,,,,,,,,,,,,,,,,,,,,,,,,,,,,,,,,,,,,,,,,,,,,,,,,,,,,,,,,,,,,,,,,,,,,,,,,,,,,,,,,,,,,,,,,,,,,,,,,,,,,,,,,,,,
,,65959b14d677879036710db0,2024-02-19_03h22.46.060,kallum_motion_pilot,2023.2.2,Win32,147.0588235,65959b14d677879036710db0,65d2b6c8f2eece985d8e374c,65d2b9d9021102d09219339c,0.0291,0.0292,0,112,112,62,1,fourtwo,,,,,,,,,,,,,,,,,,,,,,,,,,,,,,,,,,,,,,,,,,,,,,,,,,,,,,,,,,,,,,,,,,,,,,,,,,,,,,,,,,,,,,,,,,,,,,,,,,,,,,,,,,,,,,,,,,,,,,,,,,,,,,,,,,,,,,,,,
,,65959b14d677879036710db0,2024-02-19_03h22.46.060,kallum_motion_pilot,2023.2.2,Win32,147.0588235,65959b14d677879036710db0,65d2b6c8f2eece985d8e374c,65d2b9d9021102d09219339c,0.0292,0.0292,0,113,113,87,1,eightseven,,,,,,,,,,,,,,,,,,,,,,,,,,,,,,,,,,,,,,,,,,,,,,,,,,,,,,,,,,,,,,,,,,,,,,,,,,,,,,,,,,,,,,,,,,,,,,,,,,,,,,,,,,,,,,,,,,,,,,,,,,,,,,,,,,,,,,,,,
,,65959b14d677879036710db0,2024-02-19_03h22.46.060,kallum_motion_pilot,2023.2.2,Win32,147.0588235,65959b14d677879036710db0,65d2b6c8f2eece985d8e374c,65d2b9d9021102d09219339c,0.0292,0.0293,0,114,114,94,1,eightsix,,,,,,,,,,,,,,,,,,,,,,,,,,,,,,,,,,,,,,,,,,,,,,,,,,,,,,,,,,,,,,,,,,,,,,,,,,,,,,,,,,,,,,,,,,,,,,,,,,,,,,,,,,,,,,,,,,,,,,,,,,,,,,,,,,,,,,,,,
,,65959b14d677879036710db0,2024-02-19_03h22.46.060,kallum_motion_pilot,2023.2.2,Win32,147.0588235,65959b14d677879036710db0,65d2b6c8f2eece985d8e374c,65d2b9d9021102d09219339c,0.0294,0.0294,0,115,115,124,1,sevenfive,,,,,,,,,,,,,,,,,,,,,,,,,,,,,,,,,,,,,,,,,,,,,,,,,,,,,,,,,,,,,,,,,,,,,,,,,,,,,,,,,,,,,,,,,,,,,,,,,,,,,,,,,,,,,,,,,,,,,,,,,,,,,,,,,,,,,,,,,
,,65959b14d677879036710db0,2024-02-19_03h22.46.060,kallum_motion_pilot,2023.2.2,Win32,147.0588235,65959b14d677879036710db0,65d2b6c8f2eece985d8e374c,65d2b9d9021102d09219339c,0.0294,0.0295,0,116,116,37,1,threefour,,,,,,,,,,,,,,,,,,,,,,,,,,,,,,,,,,,,,,,,,,,,,,,,,,,,,,,,,,,,,,,,,,,,,,,,,,,,,,,,,,,,,,,,,,,,,,,,,,,,,,,,,,,,,,,,,,,,,,,,,,,,,,,,,,,,,,,,,
,,65959b14d677879036710db0,2024-02-19_03h22.46.060,kallum_motion_pilot,2023.2.2,Win32,147.0588235,65959b14d677879036710db0,65d2b6c8f2eece985d8e374c,65d2b9d9021102d09219339c,0.0296,0.0296,0,117,117,30,1,fourtwo,,,,,,,,,,,,,,,,,,,,,,,,,,,,,,,,,,,,,,,,,,,,,,,,,,,,,,,,,,,,,,,,,,,,,,,,,,,,,,,,,,,,,,,,,,,,,,,,,,,,,,,,,,,,,,,,,,,,,,,,,,,,,,,,,,,,,,,,,
,,65959b14d677879036710db0,2024-02-19_03h22.46.060,kallum_motion_pilot,2023.2.2,Win32,147.0588235,65959b14d677879036710db0,65d2b6c8f2eece985d8e374c,65d2b9d9021102d09219339c,0.0303,0.0304,0,118,118,159,1,eightseven,,,,,,,,,,,,,,,,,,,,,,,,,,,,,,,,,,,,,,,,,,,,,,,,,,,,,,,,,,,,,,,,,,,,,,,,,,,,,,,,,,,,,,,,,,,,,,,,,,,,,,,,,,,,,,,,,,,,,,,,,,,,,,,,,,,,,,,,,
,,65959b14d677879036710db0,2024-02-19_03h22.46.060,kallum_motion_pilot,2023.2.2,Win32,147.0588235,65959b14d677879036710db0,65d2b6c8f2eece985d8e374c,65d2b9d9021102d09219339c,0.0305,0.0305,0,119,119,32,1,onetwo,,,,,,,,,,,,,,,,,,,,,,,,,,,,,,,,,,,,,,,,,,,,,,,,,,,,,,,,,,,,,,,,,,,,,,,,,,,,,,,,,,,,,,,,,,,,,,,,,,,,,,,,,,,,,,,,,,,,,,,,,,,,,,,,,,,,,,,,,
,,65959b14d677879036710db0,2024-02-19_03h22.46.060,kallum_motion_pilot,2023.2.2,Win32,147.0588235,65959b14d677879036710db0,65d2b6c8f2eece985d8e374c,65d2b9d9021102d09219339c,0.0305,0.0306,0,120,120,155,1,sixeight,,,,,,,,,,,,,,,,,,,,,,,,,,,,,,,,,,,,,,,,,,,,,,,,,,,,,,,,,,,,,,,,,,,,,,,,,,,,,,,,,,,,,,,,,,,,,,,,,,,,,,,,,,,,,,,,,,,,,,,,,,,,,,,,,,,,,,,,,
,,65959b14d677879036710db0,2024-02-19_03h22.46.060,kallum_motion_pilot,2023.2.2,Win32,147.0588235,65959b14d677879036710db0,65d2b6c8f2eece985d8e374c,65d2b9d9021102d09219339c,0.0307,0.0307,0,121,121,41,1,onethree,,,,,,,,,,,,,,,,,,,,,,,,,,,,,,,,,,,,,,,,,,,,,,,,,,,,,,,,,,,,,,,,,,,,,,,,,,,,,,,,,,,,,,,,,,,,,,,,,,,,,,,,,,,,,,,,,,,,,,,,,,,,,,,,,,,,,,,,,
,,65959b14d677879036710db0,2024-02-19_03h22.46.060,kallum_motion_pilot,2023.2.2,Win32,147.0588235,65959b14d677879036710db0,65d2b6c8f2eece985d8e374c,65d2b9d9021102d09219339c,0.0307,0.0308,0,122,122,43,1,twofour,,,,,,,,,,,,,,,,,,,,,,,,,,,,,,,,,,,,,,,,,,,,,,,,,,,,,,,,,,,,,,,,,,,,,,,,,,,,,,,,,,,,,,,,,,,,,,,,,,,,,,,,,,,,,,,,,,,,,,,,,,,,,,,,,,,,,,,,,
,,65959b14d677879036710db0,2024-02-19_03h22.46.060,kallum_motion_pilot,2023.2.2,Win32,147.0588235,65959b14d677879036710db0,65d2b6c8f2eece985d8e374c,65d2b9d9021102d09219339c,0.0309,0.0309,0,123,123,99,1,sixeight,,,,,,,,,,,,,,,,,,,,,,,,,,,,,,,,,,,,,,,,,,,,,,,,,,,,,,,,,,,,,,,,,,,,,,,,,,,,,,,,,,,,,,,,,,,,,,,,,,,,,,,,,,,,,,,,,,,,,,,,,,,,,,,,,,,,,,,,,
,,65959b14d677879036710db0,2024-02-19_03h22.46.060,kallum_motion_pilot,2023.2.2,Win32,147.0588235,65959b14d677879036710db0,65d2b6c8f2eece985d8e374c,65d2b9d9021102d09219339c,0.031,0.031,0,124,124,90,1,sixfive,,,,,,,,,,,,,,,,,,,,,,,,,,,,,,,,,,,,,,,,,,,,,,,,,,,,,,,,,,,,,,,,,,,,,,,,,,,,,,,,,,,,,,,,,,,,,,,,,,,,,,,,,,,,,,,,,,,,,,,,,,,,,,,,,,,,,,,,,
,,65959b14d677879036710db0,2024-02-19_03h22.46.060,kallum_motion_pilot,2023.2.2,Win32,147.0588235,65959b14d677879036710db0,65d2b6c8f2eece985d8e374c,65d2b9d9021102d09219339c,0.0311,0.0312,0,125,125,13,1,threefour,,,,,,,,,,,,,,,,,,,,,,,,,,,,,,,,,,,,,,,,,,,,,,,,,,,,,,,,,,,,,,,,,,,,,,,,,,,,,,,,,,,,,,,,,,,,,,,,,,,,,,,,,,,,,,,,,,,,,,,,,,,,,,,,,,,,,,,,,
,,65959b14d677879036710db0,2024-02-19_03h22.46.060,kallum_motion_pilot,2023.2.2,Win32,147.0588235,65959b14d677879036710db0,65d2b6c8f2eece985d8e374c,65d2b9d9021102d09219339c,0.0312,0.0313,0,126,126,25,1,onethree,,,,,,,,,,,,,,,,,,,,,,,,,,,,,,,,,,,,,,,,,,,,,,,,,,,,,,,,,,,,,,,,,,,,,,,,,,,,,,,,,,,,,,,,,,,,,,,,,,,,,,,,,,,,,,,,,,,,,,,,,,,,,,,,,,,,,,,,,
,,65959b14d677879036710db0,2024-02-19_03h22.46.060,kallum_motion_pilot,2023.2.2,Win32,147.0588235,65959b14d677879036710db0,65d2b6c8f2eece985d8e374c,65d2b9d9021102d09219339c,0.0314,0.0314,0,127,127,149,1,seveneight,,,,,,,,,,,,,,,,,,,,,,,,,,,,,,,,,,,,,,,,,,,,,,,,,,,,,,,,,,,,,,,,,,,,,,,,,,,,,,,,,,,,,,,,,,,,,,,,,,,,,,,,,,,,,,,,,,,,,,,,,,,,,,,,,,,,,,,,,
,,65959b14d677879036710db0,2024-02-19_03h22.46.060,kallum_motion_pilot,2023.2.2,Win32,147.0588235,65959b14d677879036710db0,65d2b6c8f2eece985d8e374c,65d2b9d9021102d09219339c,0.0315,0.0315,0,128,128,16,1,onetwo,,,,,,,,,,,,,,,,,,,,,,,,,,,,,,,,,,,,,,,,,,,,,,,,,,,,,,,,,,,,,,,,,,,,,,,,,,,,,,,,,,,,,,,,,,,,,,,,,,,,,,,,,,,,,,,,,,,,,,,,,,,,,,,,,,,,,,,,,
,,65959b14d677879036710db0,2024-02-19_03h22.46.060,kallum_motion_pilot,2023.2.2,Win32,147.0588235,65959b14d677879036710db0,65d2b6c8f2eece985d8e374c,65d2b9d9021102d09219339c,0.0315,0.0316,0,129,129,135,1,eightseven,,,,,,,,,,,,,,,,,,,,,,,,,,,,,,,,,,,,,,,,,,,,,,,,,,,,,,,,,,,,,,,,,,,,,,,,,,,,,,,,,,,,,,,,,,,,,,,,,,,,,,,,,,,,,,,,,,,,,,,,,,,,,,,,,,,,,,,,,
,,65959b14d677879036710db0,2024-02-19_03h22.46.060,kallum_motion_pilot,2023.2.2,Win32,147.0588235,65959b14d677879036710db0,65d2b6c8f2eece985d8e374c,65d2b9d9021102d09219339c,0.0317,0.0317,0,130,130,130,1,sixfive,,,,,,,,,,,,,,,,,,,,,,,,,,,,,,,,,,,,,,,,,,,,,,,,,,,,,,,,,,,,,,,,,,,,,,,,,,,,,,,,,,,,,,,,,,,,,,,,,,,,,,,,,,,,,,,,,,,,,,,,,,,,,,,,,,,,,,,,,
,,65959b14d677879036710db0,2024-02-19_03h22.46.060,kallum_motion_pilot,2023.2.2,Win32,147.0588235,65959b14d677879036710db0,65d2b6c8f2eece985d8e374c,65d2b9d9021102d09219339c,0.0318,0.0318,0,131,131,146,1,sixfive,,,,,,,,,,,,,,,,,,,,,,,,,,,,,,,,,,,,,,,,,,,,,,,,,,,,,,,,,,,,,,,,,,,,,,,,,,,,,,,,,,,,,,,,,,,,,,,,,,,,,,,,,,,,,,,,,,,,,,,,,,,,,,,,,,,,,,,,,
,,65959b14d677879036710db0,2024-02-19_03h22.46.060,kallum_motion_pilot,2023.2.2,Win32,147.0588235,65959b14d677879036710db0,65d2b6c8f2eece985d8e374c,65d2b9d9021102d09219339c,0.0319,0.0319,0,132,132,1,1,onethree,,,,,,,,,,,,,,,,,,,,,,,,,,,,,,,,,,,,,,,,,,,,,,,,,,,,,,,,,,,,,,,,,,,,,,,,,,,,,,,,,,,,,,,,,,,,,,,,,,,,,,,,,,,,,,,,,,,,,,,,,,,,,,,,,,,,,,,,,
,,65959b14d677879036710db0,2024-02-19_03h22.46.060,kallum_motion_pilot,2023.2.2,Win32,147.0588235,65959b14d677879036710db0,65d2b6c8f2eece985d8e374c,65d2b9d9021102d09219339c,0.032,0.032,0,133,133,140,1,sevenfive,,,,,,,,,,,,,,,,,,,,,,,,,,,,,,,,,,,,,,,,,,,,,,,,,,,,,,,,,,,,,,,,,,,,,,,,,,,,,,,,,,,,,,,,,,,,,,,,,,,,,,,,,,,,,,,,,,,,,,,,,,,,,,,,,,,,,,,,,
,,65959b14d677879036710db0,2024-02-19_03h22.46.060,kallum_motion_pilot,2023.2.2,Win32,147.0588235,65959b14d677879036710db0,65d2b6c8f2eece985d8e374c,65d2b9d9021102d09219339c,0.0321,0.0321,0,134,134,105,1,fiveseven,,,,,,,,,,,,,,,,,,,,,,,,,,,,,,,,,,,,,,,,,,,,,,,,,,,,,,,,,,,,,,,,,,,,,,,,,,,,,,,,,,,,,,,,,,,,,,,,,,,,,,,,,,,,,,,,,,,,,,,,,,,,,,,,,,,,,,,,,
,,65959b14d677879036710db0,2024-02-19_03h22.46.060,kallum_motion_pilot,2023.2.2,Win32,147.0588235,65959b14d677879036710db0,65d2b6c8f2eece985d8e374c,65d2b9d9021102d09219339c,0.0321,0.0322,0,135,135,19,1,twofour,,,,,,,,,,,,,,,,,,,,,,,,,,,,,,,,,,,,,,,,,,,,,,,,,,,,,,,,,,,,,,,,,,,,,,,,,,,,,,,,,,,,,,,,,,,,,,,,,,,,,,,,,,,,,,,,,,,,,,,,,,,,,,,,,,,,,,,,,
,,65959b14d677879036710db0,2024-02-19_03h22.46.060,kallum_motion_pilot,2023.2.2,Win32,147.0588235,65959b14d677879036710db0,65d2b6c8f2eece985d8e374c,65d2b9d9021102d09219339c,0.0323,0.0323,0,136,136,109,1,seveneight,,,,,,,,,,,,,,,,,,,,,,,,,,,,,,,,,,,,,,,,,,,,,,,,,,,,,,,,,,,,,,,,,,,,,,,,,,,,,,,,,,,,,,,,,,,,,,,,,,,,,,,,,,,,,,,,,,,,,,,,,,,,,,,,,,,,,,,,,
,,65959b14d677879036710db0,2024-02-19_03h22.46.060,kallum_motion_pilot,2023.2.2,Win32,147.0588235,65959b14d677879036710db0,65d2b6c8f2eece985d8e374c,65d2b9d9021102d09219339c,0.0324,0.0324,0,137,137,81,1,fiveseven,,,,,,,,,,,,,,,,,,,,,,,,,,,,,,,,,,,,,,,,,,,,,,,,,,,,,,,,,,,,,,,,,,,,,,,,,,,,,,,,,,,,,,,,,,,,,,,,,,,,,,,,,,,,,,,,,,,,,,,,,,,,,,,,,,,,,,,,,
,,65959b14d677879036710db0,2024-02-19_03h22.46.060,kallum_motion_pilot,2023.2.2,Win32,147.0588235,65959b14d677879036710db0,65d2b6c8f2eece985d8e374c,65d2b9d9021102d09219339c,0.0325,0.0326,0,138,138,122,1,sixfive,,,,,,,,,,,,,,,,,,,,,,,,,,,,,,,,,,,,,,,,,,,,,,,,,,,,,,,,,,,,,,,,,,,,,,,,,,,,,,,,,,,,,,,,,,,,,,,,,,,,,,,,,,,,,,,,,,,,,,,,,,,,,,,,,,,,,,,,,
,,65959b14d677879036710db0,2024-02-19_03h22.46.060,kallum_motion_pilot,2023.2.2,Win32,147.0588235,65959b14d677879036710db0,65d2b6c8f2eece985d8e374c,65d2b9d9021102d09219339c,0.0326,0.0327,0,139,139,12,1,threeone,,,,,,,,,,,,,,,,,,,,,,,,,,,,,,,,,,,,,,,,,,,,,,,,,,,,,,,,,,,,,,,,,,,,,,,,,,,,,,,,,,,,,,,,,,,,,,,,,,,,,,,,,,,,,,,,,,,,,,,,,,,,,,,,,,,,,,,,,
,,65959b14d677879036710db0,2024-02-19_03h22.46.060,kallum_motion_pilot,2023.2.2,Win32,147.0588235,65959b14d677879036710db0,65d2b6c8f2eece985d8e374c,65d2b9d9021102d09219339c,0.0327,0.0328,0,140,140,35,1,twofour,,,,,,,,,,,,,,,,,,,,,,,,,,,,,,,,,,,,,,,,,,,,,,,,,,,,,,,,,,,,,,,,,,,,,,,,,,,,,,,,,,,,,,,,,,,,,,,,,,,,,,,,,,,,,,,,,,,,,,,,,,,,,,,,,,,,,,,,,
,,65959b14d677879036710db0,2024-02-19_03h22.46.060,kallum_motion_pilot,2023.2.2,Win32,147.0588235,65959b14d677879036710db0,65d2b6c8f2eece985d8e374c,65d2b9d9021102d09219339c,0.0328,0.0329,0,141,141,127,1,eightseven,,,,,,,,,,,,,,,,,,,,,,,,,,,,,,,,,,,,,,,,,,,,,,,,,,,,,,,,,,,,,,,,,,,,,,,,,,,,,,,,,,,,,,,,,,,,,,,,,,,,,,,,,,,,,,,,,,,,,,,,,,,,,,,,,,,,,,,,,
,,65959b14d677879036710db0,2024-02-19_03h22.46.060,kallum_motion_pilot,2023.2.2,Win32,147.0588235,65959b14d677879036710db0,65d2b6c8f2eece985d8e374c,65d2b9d9021102d09219339c,0.0329,0.033,0,142,142,133,1,seveneight,,,,,,,,,,,,,,,,,,,,,,,,,,,,,,,,,,,,,,,,,,,,,,,,,,,,,,,,,,,,,,,,,,,,,,,,,,,,,,,,,,,,,,,,,,,,,,,,,,,,,,,,,,,,,,,,,,,,,,,,,,,,,,,,,,,,,,,,,
,,65959b14d677879036710db0,2024-02-19_03h22.46.060,kallum_motion_pilot,2023.2.2,Win32,147.0588235,65959b14d677879036710db0,65d2b6c8f2eece985d8e374c,65d2b9d9021102d09219339c,0.033,0.0331,0,143,143,107,1,sixeight,,,,,,,,,,,,,,,,,,,,,,,,,,,,,,,,,,,,,,,,,,,,,,,,,,,,,,,,,,,,,,,,,,,,,,,,,,,,,,,,,,,,,,,,,,,,,,,,,,,,,,,,,,,,,,,,,,,,,,,,,,,,,,,,,,,,,,,,,
,,65959b14d677879036710db0,2024-02-19_03h22.46.060,kallum_motion_pilot,2023.2.2,Win32,147.0588235,65959b14d677879036710db0,65d2b6c8f2eece985d8e374c,65d2b9d9021102d09219339c,0.0332,0.0332,0,144,144,10,1,twoone,,,,,,,,,,,,,,,,,,,,,,,,,,,,,,,,,,,,,,,,,,,,,,,,,,,,,,,,,,,,,,,,,,,,,,,,,,,,,,,,,,,,,,,,,,,,,,,,,,,,,,,,,,,,,,,,,,,,,,,,,,,,,,,,,,,,,,,,,
,,65959b14d677879036710db0,2024-02-19_03h22.46.060,kallum_motion_pilot,2023.2.2,Win32,147.0588235,65959b14d677879036710db0,65d2b6c8f2eece985d8e374c,65d2b9d9021102d09219339c,0.0332,0.0333,0,145,145,143,1,eightseven,,,,,,,,,,,,,,,,,,,,,,,,,,,,,,,,,,,,,,,,,,,,,,,,,,,,,,,,,,,,,,,,,,,,,,,,,,,,,,,,,,,,,,,,,,,,,,,,,,,,,,,,,,,,,,,,,,,,,,,,,,,,,,,,,,,,,,,,,
,,65959b14d677879036710db0,2024-02-19_03h22.46.060,kallum_motion_pilot,2023.2.2,Win32,147.0588235,65959b14d677879036710db0,65d2b6c8f2eece985d8e374c,65d2b9d9021102d09219339c,0.0333,0.0334,0,146,146,77,1,threefour,,,,,,,,,,,,,,,,,,,,,,,,,,,,,,,,,,,,,,,,,,,,,,,,,,,,,,,,,,,,,,,,,,,,,,,,,,,,,,,,,,,,,,,,,,,,,,,,,,,,,,,,,,,,,,,,,,,,,,,,,,,,,,,,,,,,,,,,,
,,65959b14d677879036710db0,2024-02-19_03h22.46.060,kallum_motion_pilot,2023.2.2,Win32,147.0588235,65959b14d677879036710db0,65d2b6c8f2eece985d8e374c,65d2b9d9021102d09219339c,0.0335,0.0335,0,147,147,2,1,twoone,,,,,,,,,,,,,,,,,,,,,,,,,,,,,,,,,,,,,,,,,,,,,,,,,,,,,,,,,,,,,,,,,,,,,,,,,,,,,,,,,,,,,,,,,,,,,,,,,,,,,,,,,,,,,,,,,,,,,,,,,,,,,,,,,,,,,,,,,
,,65959b14d677879036710db0,2024-02-19_03h22.46.060,kallum_motion_pilot,2023.2.2,Win32,147.0588235,65959b14d677879036710db0,65d2b6c8f2eece985d8e374c,65d2b9d9021102d09219339c,0.0335,0.0336,0,148,148,82,1,sixfive,,,,,,,,,,,,,,,,,,,,,,,,,,,,,,,,,,,,,,,,,,,,,,,,,,,,,,,,,,,,,,,,,,,,,,,,,,,,,,,,,,,,,,,,,,,,,,,,,,,,,,,,,,,,,,,,,,,,,,,,,,,,,,,,,,,,,,,,,
,,65959b14d677879036710db0,2024-02-19_03h22.46.060,kallum_motion_pilot,2023.2.2,Win32,147.0588235,65959b14d677879036710db0,65d2b6c8f2eece985d8e374c,65d2b9d9021102d09219339c,0.0337,0.0338,0,149,149,34,1,twoone,,,,,,,,,,,,,,,,,,,,,,,,,,,,,,,,,,,,,,,,,,,,,,,,,,,,,,,,,,,,,,,,,,,,,,,,,,,,,,,,,,,,,,,,,,,,,,,,,,,,,,,,,,,,,,,,,,,,,,,,,,,,,,,,,,,,,,,,,
,,65959b14d677879036710db0,2024-02-19_03h22.46.060,kallum_motion_pilot,2023.2.2,Win32,147.0588235,65959b14d677879036710db0,65d2b6c8f2eece985d8e374c,65d2b9d9021102d09219339c,0.0338,0.0338,0,150,150,129,1,fiveseven,,,,,,,,,,,,,,,,,,,,,,,,,,,,,,,,,,,,,,,,,,,,,,,,,,,,,,,,,,,,,,,,,,,,,,,,,,,,,,,,,,,,,,,,,,,,,,,,,,,,,,,,,,,,,,,,,,,,,,,,,,,,,,,,,,,,,,,,,
,,65959b14d677879036710db0,2024-02-19_03h22.46.060,kallum_motion_pilot,2023.2.2,Win32,147.0588235,65959b14d677879036710db0,65d2b6c8f2eece985d8e374c,65d2b9d9021102d09219339c,0.0339,0.0339,0,151,151,153,1,fiveseven,,,,,,,,,,,,,,,,,,,,,,,,,,,,,,,,,,,,,,,,,,,,,,,,,,,,,,,,,,,,,,,,,,,,,,,,,,,,,,,,,,,,,,,,,,,,,,,,,,,,,,,,,,,,,,,,,,,,,,,,,,,,,,,,,,,,,,,,,
,,65959b14d677879036710db0,2024-02-19_03h22.46.060,kallum_motion_pilot,2023.2.2,Win32,147.0588235,65959b14d677879036710db0,65d2b6c8f2eece985d8e374c,65d2b9d9021102d09219339c,0.034,0.0341,0,152,152,3,1,twofour,,,,,,,,,,,,,,,,,,,,,,,,,,,,,,,,,,,,,,,,,,,,,,,,,,,,,,,,,,,,,,,,,,,,,,,,,,,,,,,,,,,,,,,,,,,,,,,,,,,,,,,,,,,,,,,,,,,,,,,,,,,,,,,,,,,,,,,,,
,,65959b14d677879036710db0,2024-02-19_03h22.46.060,kallum_motion_pilot,2023.2.2,Win32,147.0588235,65959b14d677879036710db0,65d2b6c8f2eece985d8e374c,65d2b9d9021102d09219339c,0.0342,0.0342,0,153,153,68,1,threeone,,,,,,,,,,,,,,,,,,,,,,,,,,,,,,,,,,,,,,,,,,,,,,,,,,,,,,,,,,,,,,,,,,,,,,,,,,,,,,,,,,,,,,,,,,,,,,,,,,,,,,,,,,,,,,,,,,,,,,,,,,,,,,,,,,,,,,,,,
,,65959b14d677879036710db0,2024-02-19_03h22.46.060,kallum_motion_pilot,2023.2.2,Win32,147.0588235,65959b14d677879036710db0,65d2b6c8f2eece985d8e374c,65d2b9d9021102d09219339c,0.0342,0.0343,0,154,154,111,1,eightseven,,,,,,,,,,,,,,,,,,,,,,,,,,,,,,,,,,,,,,,,,,,,,,,,,,,,,,,,,,,,,,,,,,,,,,,,,,,,,,,,,,,,,,,,,,,,,,,,,,,,,,,,,,,,,,,,,,,,,,,,,,,,,,,,,,,,,,,,,
,,65959b14d677879036710db0,2024-02-19_03h22.46.060,kallum_motion_pilot,2023.2.2,Win32,147.0588235,65959b14d677879036710db0,65d2b6c8f2eece985d8e374c,65d2b9d9021102d09219339c,0.0343,0.0344,0,155,155,53,1,threefour,,,,,,,,,,,,,,,,,,,,,,,,,,,,,,,,,,,,,,,,,,,,,,,,,,,,,,,,,,,,,,,,,,,,,,,,,,,,,,,,,,,,,,,,,,,,,,,,,,,,,,,,,,,,,,,,,,,,,,,,,,,,,,,,,,,,,,,,,
,,65959b14d677879036710db0,2024-02-19_03h22.46.060,kallum_motion_pilot,2023.2.2,Win32,147.0588235,65959b14d677879036710db0,65d2b6c8f2eece985d8e374c,65d2b9d9021102d09219339c,0.0344,0.0345,0,156,156,49,1,onethree,,,,,,,,,,,,,,,,,,,,,,,,,,,,,,,,,,,,,,,,,,,,,,,,,,,,,,,,,,,,,,,,,,,,,,,,,,,,,,,,,,,,,,,,,,,,,,,,,,,,,,,,,,,,,,,,,,,,,,,,,,,,,,,,,,,,,,,,,
,,65959b14d677879036710db0,2024-02-19_03h22.46.060,kallum_motion_pilot,2023.2.2,Win32,147.0588235,65959b14d677879036710db0,65d2b6c8f2eece985d8e374c,65d2b9d9021102d09219339c,0.0346,0.0346,0,157,157,48,1,onetwo,,,,,,,,,,,,,,,,,,,,,,,,,,,,,,,,,,,,,,,,,,,,,,,,,,,,,,,,,,,,,,,,,,,,,,,,,,,,,,,,,,,,,,,,,,,,,,,,,,,,,,,,,,,,,,,,,,,,,,,,,,,,,,,,,,,,,,,,,
,,65959b14d677879036710db0,2024-02-19_03h22.46.060,kallum_motion_pilot,2023.2.2,Win32,147.0588235,65959b14d677879036710db0,65d2b6c8f2eece985d8e374c,65d2b9d9021102d09219339c,0.0347,0.0347,0,158,158,22,1,fourtwo,,,,,,,,,,,,,,,,,,,,,,,,,,,,,,,,,,,,,,,,,,,,,,,,,,,,,,,,,,,,,,,,,,,,,,,,,,,,,,,,,,,,,,,,,,,,,,,,,,,,,,,,,,,,,,,,,,,,,,,,,,,,,,,,,,,,,,,,,
,,65959b14d677879036710db0,2024-02-19_03h22.46.060,kallum_motion_pilot,2023.2.2,Win32,147.0588235,65959b14d677879036710db0,65d2b6c8f2eece985d8e374c,65d2b9d9021102d09219339c,0.0348,0.0348,0,159,159,96,1,fivesix,,,,,,,,,,,,,,,,,,,,,,,,,,,,,,,,,,,,,,,,,,,,,,,,,,,,,,,,,,,,,,,,,,,,,,,,,,,,,,,,,,,,,,,,,,,,,,,,,,,,,,,,,,,,,,,,,,,,,,,,,,,,,,,,,,,,,,,,,
,,65959b14d677879036710db0,2024-02-19_03h22.46.060,kallum_motion_pilot,2023.2.2,Win32,147.0588235,65959b14d677879036710db0,65d2b6c8f2eece985d8e374c,65d2b9d9021102d09219339c,0.0349,0.0349,0,160,160,95,1,eightseven,,,,,,,,,,,,,,,,,,,,,,,,,,,,,,,,,,,,,,,,,,,,,,,,,,,,,,,,,,,,,,,,,,,,,,,,,,,,,,,,,,,,,,,,,,,,,,,,,,,,,,,,,,,,,,,,,,,,,,,,,,,,,,,,,,,,,,,,,
,,65959b14d677879036710db0,2024-02-19_03h22.46.060,kallum_motion_pilot,2023.2.2,Win32,147.0588235,65959b14d677879036710db0,65d2b6c8f2eece985d8e374c,65d2b9d9021102d09219339c,0.035,0.035,0,161,161,45,1,threefour,,,,,,,,,,,,,,,,,,,,,,,,,,,,,,,,,,,,,,,,,,,,,,,,,,,,,,,,,,,,,,,,,,,,,,,,,,,,,,,,,,,,,,,,,,,,,,,,,,,,,,,,,,,,,,,,,,,,,,,,,,,,,,,,,,,,,,,,,
,,65959b14d677879036710db0,2024-02-19_03h22.46.060,kallum_motion_pilot,2023.2.2,Win32,147.0588235,65959b14d677879036710db0,65d2b6c8f2eece985d8e374c,65d2b9d9021102d09219339c,0.0351,0.0352,1,0,162,79,1,eightseven,,,,,,,,,,,,,,,,,,,,,,,,,,,,,,,,,,,,,,,,,,,,,,,,,,,,,,,,,,,,,,,,,,,,,,,,,,,,,,,,,,,,,,,,,,,,,,,,,,,,,,,,,,,,,,,,,,,,,,,,,,,,,,,,,,,,,,,,,
,,65959b14d677879036710db0,2024-02-19_03h22.46.060,kallum_motion_pilot,2023.2.2,Win32,147.0588235,65959b14d677879036710db0,65d2b6c8f2eece985d8e374c,65d2b9d9021102d09219339c,0.0352,0.0353,1,1,163,146,1,sixfive,,,,,,,,,,,,,,,,,,,,,,,,,,,,,,,,,,,,,,,,,,,,,,,,,,,,,,,,,,,,,,,,,,,,,,,,,,,,,,,,,,,,,,,,,,,,,,,,,,,,,,,,,,,,,,,,,,,,,,,,,,,,,,,,,,,,,,,,,
,,65959b14d677879036710db0,2024-02-19_03h22.46.060,kallum_motion_pilot,2023.2.2,Win32,147.0588235,65959b14d677879036710db0,65d2b6c8f2eece985d8e374c,65d2b9d9021102d09219339c,0.0354,0.0354,1,2,164,121,1,fiveseven,,,,,,,,,,,,,,,,,,,,,,,,,,,,,,,,,,,,,,,,,,,,,,,,,,,,,,,,,,,,,,,,,,,,,,,,,,,,,,,,,,,,,,,,,,,,,,,,,,,,,,,,,,,,,,,,,,,,,,,,,,,,,,,,,,,,,,,,,
,,65959b14d677879036710db0,2024-02-19_03h22.46.060,kallum_motion_pilot,2023.2.2,Win32,147.0588235,65959b14d677879036710db0,65d2b6c8f2eece985d8e374c,65d2b9d9021102d09219339c,0.0354,0.0356,1,3,165,39,1,fourthree,,,,,,,,,,,,,,,,,,,,,,,,,,,,,,,,,,,,,,,,,,,,,,,,,,,,,,,,,,,,,,,,,,,,,,,,,,,,,,,,,,,,,,,,,,,,,,,,,,,,,,,,,,,,,,,,,,,,,,,,,,,,,,,,,,,,,,,,,
,,65959b14d677879036710db0,2024-02-19_03h22.46.060,kallum_motion_pilot,2023.2.2,Win32,147.0588235,65959b14d677879036710db0,65d2b6c8f2eece985d8e374c,65d2b9d9021102d09219339c,0.0356,0.0356,1,4,166,74,1,twoone,,,,,,,,,,,,,,,,,,,,,,,,,,,,,,,,,,,,,,,,,,,,,,,,,,,,,,,,,,,,,,,,,,,,,,,,,,,,,,,,,,,,,,,,,,,,,,,,,,,,,,,,,,,,,,,,,,,,,,,,,,,,,,,,,,,,,,,,,
,,65959b14d677879036710db0,2024-02-19_03h22.46.060,kallum_motion_pilot,2023.2.2,Win32,147.0588235,65959b14d677879036710db0,65d2b6c8f2eece985d8e374c,65d2b9d9021102d09219339c,0.0357,0.0357,1,5,167,150,1,eightsix,,,,,,,,,,,,,,,,,,,,,,,,,,,,,,,,,,,,,,,,,,,,,,,,,,,,,,,,,,,,,,,,,,,,,,,,,,,,,,,,,,,,,,,,,,,,,,,,,,,,,,,,,,,,,,,,,,,,,,,,,,,,,,,,,,,,,,,,,
,,65959b14d677879036710db0,2024-02-19_03h22.46.060,kallum_motion_pilot,2023.2.2,Win32,147.0588235,65959b14d677879036710db0,65d2b6c8f2eece985d8e374c,65d2b9d9021102d09219339c,0.0358,0.0359,1,6,168,110,1,eightsix,,,,,,,,,,,,,,,,,,,,,,,,,,,,,,,,,,,,,,,,,,,,,,,,,,,,,,,,,,,,,,,,,,,,,,,,,,,,,,,,,,,,,,,,,,,,,,,,,,,,,,,,,,,,,,,,,,,,,,,,,,,,,,,,,,,,,,,,,
,,65959b14d677879036710db0,2024-02-19_03h22.46.060,kallum_motion_pilot,2023.2.2,Win32,147.0588235,65959b14d677879036710db0,65d2b6c8f2eece985d8e374c,65d2b9d9021102d09219339c,0.0359,0.036,1,7,169,107,1,sixeight,,,,,,,,,,,,,,,,,,,,,,,,,,,,,,,,,,,,,,,,,,,,,,,,,,,,,,,,,,,,,,,,,,,,,,,,,,,,,,,,,,,,,,,,,,,,,,,,,,,,,,,,,,,,,,,,,,,,,,,,,,,,,,,,,,,,,,,,,
,,65959b14d677879036710db0,2024-02-19_03h22.46.060,kallum_motion_pilot,2023.2.2,Win32,147.0588235,65959b14d677879036710db0,65d2b6c8f2eece985d8e374c,65d2b9d9021102d09219339c,0.036,0.0361,1,8,170,85,1,seveneight,,,,,,,,,,,,,,,,,,,,,,,,,,,,,,,,,,,,,,,,,,,,,,,,,,,,,,,,,,,,,,,,,,,,,,,,,,,,,,,,,,,,,,,,,,,,,,,,,,,,,,,,,,,,,,,,,,,,,,,,,,,,,,,,,,,,,,,,,
,,65959b14d677879036710db0,2024-02-19_03h22.46.060,kallum_motion_pilot,2023.2.2,Win32,147.0588235,65959b14d677879036710db0,65d2b6c8f2eece985d8e374c,65d2b9d9021102d09219339c,0.0362,0.0362,1,9,171,134,1,eightsix,,,,,,,,,,,,,,,,,,,,,,,,,,,,,,,,,,,,,,,,,,,,,,,,,,,,,,,,,,,,,,,,,,,,,,,,,,,,,,,,,,,,,,,,,,,,,,,,,,,,,,,,,,,,,,,,,,,,,,,,,,,,,,,,,,,,,,,,,
,,65959b14d677879036710db0,2024-02-19_03h22.46.060,kallum_motion_pilot,2023.2.2,Win32,147.0588235,65959b14d677879036710db0,65d2b6c8f2eece985d8e374c,65d2b9d9021102d09219339c,0.0363,0.0363,1,10,172,93,1,seveneight,,,,,,,,,,,,,,,,,,,,,,,,,,,,,,,,,,,,,,,,,,,,,,,,,,,,,,,,,,,,,,,,,,,,,,,,,,,,,,,,,,,,,,,,,,,,,,,,,,,,,,,,,,,,,,,,,,,,,,,,,,,,,,,,,,,,,,,,,
,,65959b14d677879036710db0,2024-02-19_03h22.46.060,kallum_motion_pilot,2023.2.2,Win32,147.0588235,65959b14d677879036710db0,65d2b6c8f2eece985d8e374c,65d2b9d9021102d09219339c,0.0363,0.0364,1,11,173,160,1,fivesix,,,,,,,,,,,,,,,,,,,,,,,,,,,,,,,,,,,,,,,,,,,,,,,,,,,,,,,,,,,,,,,,,,,,,,,,,,,,,,,,,,,,,,,,,,,,,,,,,,,,,,,,,,,,,,,,,,,,,,,,,,,,,,,,,,,,,,,,,
,,65959b14d677879036710db0,2024-02-19_03h22.46.060,kallum_motion_pilot,2023.2.2,Win32,147.0588235,65959b14d677879036710db0,65d2b6c8f2eece985d8e374c,65d2b9d9021102d09219339c,0.0365,0.0365,1,12,174,19,1,twofour,,,,,,,,,,,,,,,,,,,,,,,,,,,,,,,,,,,,,,,,,,,,,,,,,,,,,,,,,,,,,,,,,,,,,,,,,,,,,,,,,,,,,,,,,,,,,,,,,,,,,,,,,,,,,,,,,,,,,,,,,,,,,,,,,,,,,,,,,
,,65959b14d677879036710db0,2024-02-19_03h22.46.060,kallum_motion_pilot,2023.2.2,Win32,147.0588235,65959b14d677879036710db0,65d2b6c8f2eece985d8e374c,65d2b9d9021102d09219339c,0.0366,0.0367,1,13,175,65,1,onethree,,,,,,,,,,,,,,,,,,,,,,,,,,,,,,,,,,,,,,,,,,,,,,,,,,,,,,,,,,,,,,,,,,,,,,,,,,,,,,,,,,,,,,,,,,,,,,,,,,,,,,,,,,,,,,,,,,,,,,,,,,,,,,,,,,,,,,,,,
,,65959b14d677879036710db0,2024-02-19_03h22.46.060,kallum_motion_pilot,2023.2.2,Win32,147.0588235,65959b14d677879036710db0,65d2b6c8f2eece985d8e374c,65d2b9d9021102d09219339c,0.0367,0.0368,1,14,176,22,1,fourtwo,,,,,,,,,,,,,,,,,,,,,,,,,,,,,,,,,,,,,,,,,,,,,,,,,,,,,,,,,,,,,,,,,,,,,,,,,,,,,,,,,,,,,,,,,,,,,,,,,,,,,,,,,,,,,,,,,,,,,,,,,,,,,,,,,,,,,,,,,
,,65959b14d677879036710db0,2024-02-19_03h22.46.060,kallum_motion_pilot,2023.2.2,Win32,147.0588235,65959b14d677879036710db0,65d2b6c8f2eece985d8e374c,65d2b9d9021102d09219339c,0.0369,0.0369,1,15,177,82,1,sixfive,,,,,,,,,,,,,,,,,,,,,,,,,,,,,,,,,,,,,,,,,,,,,,,,,,,,,,,,,,,,,,,,,,,,,,,,,,,,,,,,,,,,,,,,,,,,,,,,,,,,,,,,,,,,,,,,,,,,,,,,,,,,,,,,,,,,,,,,,
,,65959b14d677879036710db0,2024-02-19_03h22.46.060,kallum_motion_pilot,2023.2.2,Win32,147.0588235,65959b14d677879036710db0,65d2b6c8f2eece985d8e374c,65d2b9d9021102d09219339c,0.037,0.037,1,16,178,44,1,threeone,,,,,,,,,,,,,,,,,,,,,,,,,,,,,,,,,,,,,,,,,,,,,,,,,,,,,,,,,,,,,,,,,,,,,,,,,,,,,,,,,,,,,,,,,,,,,,,,,,,,,,,,,,,,,,,,,,,,,,,,,,,,,,,,,,,,,,,,,
,,65959b14d677879036710db0,2024-02-19_03h22.46.060,kallum_motion_pilot,2023.2.2,Win32,147.0588235,65959b14d677879036710db0,65d2b6c8f2eece985d8e374c,65d2b9d9021102d09219339c,0.0371,0.0372,1,17,179,10,1,twoone,,,,,,,,,,,,,,,,,,,,,,,,,,,,,,,,,,,,,,,,,,,,,,,,,,,,,,,,,,,,,,,,,,,,,,,,,,,,,,,,,,,,,,,,,,,,,,,,,,,,,,,,,,,,,,,,,,,,,,,,,,,,,,,,,,,,,,,,,
,,65959b14d677879036710db0,2024-02-19_03h22.46.060,kallum_motion_pilot,2023.2.2,Win32,147.0588235,65959b14d677879036710db0,65d2b6c8f2eece985d8e374c,65d2b9d9021102d09219339c,0.0373,0.0373,1,18,180,12,1,threeone,,,,,,,,,,,,,,,,,,,,,,,,,,,,,,,,,,,,,,,,,,,,,,,,,,,,,,,,,,,,,,,,,,,,,,,,,,,,,,,,,,,,,,,,,,,,,,,,,,,,,,,,,,,,,,,,,,,,,,,,,,,,,,,,,,,,,,,,,
,,65959b14d677879036710db0,2024-02-19_03h22.46.060,kallum_motion_pilot,2023.2.2,Win32,147.0588235,65959b14d677879036710db0,65d2b6c8f2eece985d8e374c,65d2b9d9021102d09219339c,0.0374,0.0375,1,19,181,8,1,onetwo,,,,,,,,,,,,,,,,,,,,,,,,,,,,,,,,,,,,,,,,,,,,,,,,,,,,,,,,,,,,,,,,,,,,,,,,,,,,,,,,,,,,,,,,,,,,,,,,,,,,,,,,,,,,,,,,,,,,,,,,,,,,,,,,,,,,,,,,,
,,65959b14d677879036710db0,2024-02-19_03h22.46.060,kallum_motion_pilot,2023.2.2,Win32,147.0588235,65959b14d677879036710db0,65d2b6c8f2eece985d8e374c,65d2b9d9021102d09219339c,0.0375,0.0375,1,20,182,52,1,threeone,,,,,,,,,,,,,,,,,,,,,,,,,,,,,,,,,,,,,,,,,,,,,,,,,,,,,,,,,,,,,,,,,,,,,,,,,,,,,,,,,,,,,,,,,,,,,,,,,,,,,,,,,,,,,,,,,,,,,,,,,,,,,,,,,,,,,,,,,
,,65959b14d677879036710db0,2024-02-19_03h22.46.060,kallum_motion_pilot,2023.2.2,Win32,147.0588235,65959b14d677879036710db0,65d2b6c8f2eece985d8e374c,65d2b9d9021102d09219339c,0.0376,0.0377,1,21,183,91,1,sixeight,,,,,,,,,,,,,,,,,,,,,,,,,,,,,,,,,,,,,,,,,,,,,,,,,,,,,,,,,,,,,,,,,,,,,,,,,,,,,,,,,,,,,,,,,,,,,,,,,,,,,,,,,,,,,,,,,,,,,,,,,,,,,,,,,,,,,,,,,
,,65959b14d677879036710db0,2024-02-19_03h22.46.060,kallum_motion_pilot,2023.2.2,Win32,147.0588235,65959b14d677879036710db0,65d2b6c8f2eece985d8e374c,65d2b9d9021102d09219339c,0.0377,0.0378,1,22,184,113,1,fiveseven,,,,,,,,,,,,,,,,,,,,,,,,,,,,,,,,,,,,,,,,,,,,,,,,,,,,,,,,,,,,,,,,,,,,,,,,,,,,,,,,,,,,,,,,,,,,,,,,,,,,,,,,,,,,,,,,,,,,,,,,,,,,,,,,,,,,,,,,,
,,65959b14d677879036710db0,2024-02-19_03h22.46.060,kallum_motion_pilot,2023.2.2,Win32,147.0588235,65959b14d677879036710db0,65d2b6c8f2eece985d8e374c,65d2b9d9021102d09219339c,0.0378,0.038,1,23,185,69,1,threefour,,,,,,,,,,,,,,,,,,,,,,,,,,,,,,,,,,,,,,,,,,,,,,,,,,,,,,,,,,,,,,,,,,,,,,,,,,,,,,,,,,,,,,,,,,,,,,,,,,,,,,,,,,,,,,,,,,,,,,,,,,,,,,,,,,,,,,,,,
,,65959b14d677879036710db0,2024-02-19_03h22.46.060,kallum_motion_pilot,2023.2.2,Win32,147.0588235,65959b14d677879036710db0,65d2b6c8f2eece985d8e374c,65d2b9d9021102d09219339c,0.038,0.038,1,24,186,38,1,fourtwo,,,,,,,,,,,,,,,,,,,,,,,,,,,,,,,,,,,,,,,,,,,,,,,,,,,,,,,,,,,,,,,,,,,,,,,,,,,,,,,,,,,,,,,,,,,,,,,,,,,,,,,,,,,,,,,,,,,,,,,,,,,,,,,,,,,,,,,,,
,,65959b14d677879036710db0,2024-02-19_03h22.46.060,kallum_motion_pilot,2023.2.2,Win32,147.0588235,65959b14d677879036710db0,65d2b6c8f2eece985d8e374c,65d2b9d9021102d09219339c,0.0381,0.0381,1,25,187,116,1,sevenfive,,,,,,,,,,,,,,,,,,,,,,,,,,,,,,,,,,,,,,,,,,,,,,,,,,,,,,,,,,,,,,,,,,,,,,,,,,,,,,,,,,,,,,,,,,,,,,,,,,,,,,,,,,,,,,,,,,,,,,,,,,,,,,,,,,,,,,,,,
,,65959b14d677879036710db0,2024-02-19_03h22.46.060,kallum_motion_pilot,2023.2.2,Win32,147.0588235,65959b14d677879036710db0,65d2b6c8f2eece985d8e374c,65d2b9d9021102d09219339c,0.0383,0.0383,1,26,188,45,1,threefour,,,,,,,,,,,,,,,,,,,,,,,,,,,,,,,,,,,,,,,,,,,,,,,,,,,,,,,,,,,,,,,,,,,,,,,,,,,,,,,,,,,,,,,,,,,,,,,,,,,,,,,,,,,,,,,,,,,,,,,,,,,,,,,,,,,,,,,,,
,,65959b14d677879036710db0,2024-02-19_03h22.46.060,kallum_motion_pilot,2023.2.2,Win32,147.0588235,65959b14d677879036710db0,65d2b6c8f2eece985d8e374c,65d2b9d9021102d09219339c,0.0383,0.0384,1,27,189,114,1,sixfive,,,,,,,,,,,,,,,,,,,,,,,,,,,,,,,,,,,,,,,,,,,,,,,,,,,,,,,,,,,,,,,,,,,,,,,,,,,,,,,,,,,,,,,,,,,,,,,,,,,,,,,,,,,,,,,,,,,,,,,,,,,,,,,,,,,,,,,,,
,,65959b14d677879036710db0,2024-02-19_03h22.46.060,kallum_motion_pilot,2023.2.2,Win32,147.0588235,65959b14d677879036710db0,65d2b6c8f2eece985d8e374c,65d2b9d9021102d09219339c,0.0385,0.0385,1,28,190,98,1,sixfive,,,,,,,,,,,,,,,,,,,,,,,,,,,,,,,,,,,,,,,,,,,,,,,,,,,,,,,,,,,,,,,,,,,,,,,,,,,,,,,,,,,,,,,,,,,,,,,,,,,,,,,,,,,,,,,,,,,,,,,,,,,,,,,,,,,,,,,,,
,,65959b14d677879036710db0,2024-02-19_03h22.46.060,kallum_motion_pilot,2023.2.2,Win32,147.0588235,65959b14d677879036710db0,65d2b6c8f2eece985d8e374c,65d2b9d9021102d09219339c,0.0386,0.0386,1,29,191,80,1,fivesix,,,,,,,,,,,,,,,,,,,,,,,,,,,,,,,,,,,,,,,,,,,,,,,,,,,,,,,,,,,,,,,,,,,,,,,,,,,,,,,,,,,,,,,,,,,,,,,,,,,,,,,,,,,,,,,,,,,,,,,,,,,,,,,,,,,,,,,,,
,,65959b14d677879036710db0,2024-02-19_03h22.46.060,kallum_motion_pilot,2023.2.2,Win32,147.0588235,65959b14d677879036710db0,65d2b6c8f2eece985d8e374c,65d2b9d9021102d09219339c,0.0387,0.0387,1,30,192,77,1,threefour,,,,,,,,,,,,,,,,,,,,,,,,,,,,,,,,,,,,,,,,,,,,,,,,,,,,,,,,,,,,,,,,,,,,,,,,,,,,,,,,,,,,,,,,,,,,,,,,,,,,,,,,,,,,,,,,,,,,,,,,,,,,,,,,,,,,,,,,,
,,65959b14d677879036710db0,2024-02-19_03h22.46.060,kallum_motion_pilot,2023.2.2,Win32,147.0588235,65959b14d677879036710db0,65d2b6c8f2eece985d8e374c,65d2b9d9021102d09219339c,0.0388,0.0389,1,31,193,25,1,onethree,,,,,,,,,,,,,,,,,,,,,,,,,,,,,,,,,,,,,,,,,,,,,,,,,,,,,,,,,,,,,,,,,,,,,,,,,,,,,,,,,,,,,,,,,,,,,,,,,,,,,,,,,,,,,,,,,,,,,,,,,,,,,,,,,,,,,,,,,
,,65959b14d677879036710db0,2024-02-19_03h22.46.060,kallum_motion_pilot,2023.2.2,Win32,147.0588235,65959b14d677879036710db0,65d2b6c8f2eece985d8e374c,65d2b9d9021102d09219339c,0.0389,0.0389,1,32,194,18,1,twoone,,,,,,,,,,,,,,,,,,,,,,,,,,,,,,,,,,,,,,,,,,,,,,,,,,,,,,,,,,,,,,,,,,,,,,,,,,,,,,,,,,,,,,,,,,,,,,,,,,,,,,,,,,,,,,,,,,,,,,,,,,,,,,,,,,,,,,,,,
,,65959b14d677879036710db0,2024-02-19_03h22.46.060,kallum_motion_pilot,2023.2.2,Win32,147.0588235,65959b14d677879036710db0,65d2b6c8f2eece985d8e374c,65d2b9d9021102d09219339c,0.0391,0.0391,1,33,195,109,1,seveneight,,,,,,,,,,,,,,,,,,,,,,,,,,,,,,,,,,,,,,,,,,,,,,,,,,,,,,,,,,,,,,,,,,,,,,,,,,,,,,,,,,,,,,,,,,,,,,,,,,,,,,,,,,,,,,,,,,,,,,,,,,,,,,,,,,,,,,,,,
,,65959b14d677879036710db0,2024-02-19_03h22.46.060,kallum_motion_pilot,2023.2.2,Win32,147.0588235,65959b14d677879036710db0,65d2b6c8f2eece985d8e374c,65d2b9d9021102d09219339c,0.0392,0.0392,1,34,196,125,1,seveneight,,,,,,,,,,,,,,,,,,,,,,,,,,,,,,,,,,,,,,,,,,,,,,,,,,,,,,,,,,,,,,,,,,,,,,,,,,,,,,,,,,,,,,,,,,,,,,,,,,,,,,,,,,,,,,,,,,,,,,,,,,,,,,,,,,,,,,,,,
,,65959b14d677879036710db0,2024-02-19_03h22.46.060,kallum_motion_pilot,2023.2.2,Win32,147.0588235,65959b14d677879036710db0,65d2b6c8f2eece985d8e374c,65d2b9d9021102d09219339c,0.0393,0.0393,1,35,197,42,1,twoone,,,,,,,,,,,,,,,,,,,,,,,,,,,,,,,,,,,,,,,,,,,,,,,,,,,,,,,,,,,,,,,,,,,,,,,,,,,,,,,,,,,,,,,,,,,,,,,,,,,,,,,,,,,,,,,,,,,,,,,,,,,,,,,,,,,,,,,,,
,,65959b14d677879036710db0,2024-02-19_03h22.46.060,kallum_motion_pilot,2023.2.2,Win32,147.0588235,65959b14d677879036710db0,65d2b6c8f2eece985d8e374c,65d2b9d9021102d09219339c,0.0394,0.0395,1,36,198,144,1,fivesix,,,,,,,,,,,,,,,,,,,,,,,,,,,,,,,,,,,,,,,,,,,,,,,,,,,,,,,,,,,,,,,,,,,,,,,,,,,,,,,,,,,,,,,,,,,,,,,,,,,,,,,,,,,,,,,,,,,,,,,,,,,,,,,,,,,,,,,,,
,,65959b14d677879036710db0,2024-02-19_03h22.46.060,kallum_motion_pilot,2023.2.2,Win32,147.0588235,65959b14d677879036710db0,65d2b6c8f2eece985d8e374c,65d2b9d9021102d09219339c,0.0395,0.0395,1,37,199,156,1,sevenfive,,,,,,,,,,,,,,,,,,,,,,,,,,,,,,,,,,,,,,,,,,,,,,,,,,,,,,,,,,,,,,,,,,,,,,,,,,,,,,,,,,,,,,,,,,,,,,,,,,,,,,,,,,,,,,,,,,,,,,,,,,,,,,,,,,,,,,,,,
,,65959b14d677879036710db0,2024-02-19_03h22.46.060,kallum_motion_pilot,2023.2.2,Win32,147.0588235,65959b14d677879036710db0,65d2b6c8f2eece985d8e374c,65d2b9d9021102d09219339c,0.0397,0.0397,1,38,200,75,1,twofour,,,,,,,,,,,,,,,,,,,,,,,,,,,,,,,,,,,,,,,,,,,,,,,,,,,,,,,,,,,,,,,,,,,,,,,,,,,,,,,,,,,,,,,,,,,,,,,,,,,,,,,,,,,,,,,,,,,,,,,,,,,,,,,,,,,,,,,,,
,,65959b14d677879036710db0,2024-02-19_03h22.46.060,kallum_motion_pilot,2023.2.2,Win32,147.0588235,65959b14d677879036710db0,65d2b6c8f2eece985d8e374c,65d2b9d9021102d09219339c,0.0398,0.0398,1,39,201,95,1,eightseven,,,,,,,,,,,,,,,,,,,,,,,,,,,,,,,,,,,,,,,,,,,,,,,,,,,,,,,,,,,,,,,,,,,,,,,,,,,,,,,,,,,,,,,,,,,,,,,,,,,,,,,,,,,,,,,,,,,,,,,,,,,,,,,,,,,,,,,,,
,,65959b14d677879036710db0,2024-02-19_03h22.46.060,kallum_motion_pilot,2023.2.2,Win32,147.0588235,65959b14d677879036710db0,65d2b6c8f2eece985d8e374c,65d2b9d9021102d09219339c,0.0399,0.0399,1,40,202,5,1,threefour,,,,,,,,,,,,,,,,,,,,,,,,,,,,,,,,,,,,,,,,,,,,,,,,,,,,,,,,,,,,,,,,,,,,,,,,,,,,,,,,,,,,,,,,,,,,,,,,,,,,,,,,,,,,,,,,,,,,,,,,,,,,,,,,,,,,,,,,,
,,65959b14d677879036710db0,2024-02-19_03h22.46.060,kallum_motion_pilot,2023.2.2,Win32,147.0588235,65959b14d677879036710db0,65d2b6c8f2eece985d8e374c,65d2b9d9021102d09219339c,0.04,0.0401,1,41,203,142,1,eightsix,,,,,,,,,,,,,,,,,,,,,,,,,,,,,,,,,,,,,,,,,,,,,,,,,,,,,,,,,,,,,,,,,,,,,,,,,,,,,,,,,,,,,,,,,,,,,,,,,,,,,,,,,,,,,,,,,,,,,,,,,,,,,,,,,,,,,,,,,
,,65959b14d677879036710db0,2024-02-19_03h22.46.060,kallum_motion_pilot,2023.2.2,Win32,147.0588235,65959b14d677879036710db0,65d2b6c8f2eece985d8e374c,65d2b9d9021102d09219339c,0.0402,0.0402,1,42,204,50,1,twoone,,,,,,,,,,,,,,,,,,,,,,,,,,,,,,,,,,,,,,,,,,,,,,,,,,,,,,,,,,,,,,,,,,,,,,,,,,,,,,,,,,,,,,,,,,,,,,,,,,,,,,,,,,,,,,,,,,,,,,,,,,,,,,,,,,,,,,,,,
,,65959b14d677879036710db0,2024-02-19_03h22.46.060,kallum_motion_pilot,2023.2.2,Win32,147.0588235,65959b14d677879036710db0,65d2b6c8f2eece985d8e374c,65d2b9d9021102d09219339c,0.0403,0.0403,1,43,205,158,1,eightsix,,,,,,,,,,,,,,,,,,,,,,,,,,,,,,,,,,,,,,,,,,,,,,,,,,,,,,,,,,,,,,,,,,,,,,,,,,,,,,,,,,,,,,,,,,,,,,,,,,,,,,,,,,,,,,,,,,,,,,,,,,,,,,,,,,,,,,,,,
,,65959b14d677879036710db0,2024-02-19_03h22.46.060,kallum_motion_pilot,2023.2.2,Win32,147.0588235,65959b14d677879036710db0,65d2b6c8f2eece985d8e374c,65d2b9d9021102d09219339c,0.0404,0.0404,1,44,206,92,1,sevenfive,,,,,,,,,,,,,,,,,,,,,,,,,,,,,,,,,,,,,,,,,,,,,,,,,,,,,,,,,,,,,,,,,,,,,,,,,,,,,,,,,,,,,,,,,,,,,,,,,,,,,,,,,,,,,,,,,,,,,,,,,,,,,,,,,,,,,,,,,
,,65959b14d677879036710db0,2024-02-19_03h22.46.060,kallum_motion_pilot,2023.2.2,Win32,147.0588235,65959b14d677879036710db0,65d2b6c8f2eece985d8e374c,65d2b9d9021102d09219339c,0.0405,0.0405,1,45,207,145,1,fiveseven,,,,,,,,,,,,,,,,,,,,,,,,,,,,,,,,,,,,,,,,,,,,,,,,,,,,,,,,,,,,,,,,,,,,,,,,,,,,,,,,,,,,,,,,,,,,,,,,,,,,,,,,,,,,,,,,,,,,,,,,,,,,,,,,,,,,,,,,,
,,65959b14d677879036710db0,2024-02-19_03h22.46.060,kallum_motion_pilot,2023.2.2,Win32,147.0588235,65959b14d677879036710db0,65d2b6c8f2eece985d8e374c,65d2b9d9021102d09219339c,0.0406,0.0407,1,46,208,124,1,sevenfive,,,,,,,,,,,,,,,,,,,,,,,,,,,,,,,,,,,,,,,,,,,,,,,,,,,,,,,,,,,,,,,,,,,,,,,,,,,,,,,,,,,,,,,,,,,,,,,,,,,,,,,,,,,,,,,,,,,,,,,,,,,,,,,,,,,,,,,,,
,,65959b14d677879036710db0,2024-02-19_03h22.46.060,kallum_motion_pilot,2023.2.2,Win32,147.0588235,65959b14d677879036710db0,65d2b6c8f2eece985d8e374c,65d2b9d9021102d09219339c,0.0407,0.0408,1,47,209,86,1,eightsix,,,,,,,,,,,,,,,,,,,,,,,,,,,,,,,,,,,,,,,,,,,,,,,,,,,,,,,,,,,,,,,,,,,,,,,,,,,,,,,,,,,,,,,,,,,,,,,,,,,,,,,,,,,,,,,,,,,,,,,,,,,,,,,,,,,,,,,,,
,,65959b14d677879036710db0,2024-02-19_03h22.46.060,kallum_motion_pilot,2023.2.2,Win32,147.0588235,65959b14d677879036710db0,65d2b6c8f2eece985d8e374c,65d2b9d9021102d09219339c,0.0408,0.0409,1,48,210,133,1,seveneight,,,,,,,,,,,,,,,,,,,,,,,,,,,,,,,,,,,,,,,,,,,,,,,,,,,,,,,,,,,,,,,,,,,,,,,,,,,,,,,,,,,,,,,,,,,,,,,,,,,,,,,,,,,,,,,,,,,,,,,,,,,,,,,,,,,,,,,,,
,,65959b14d677879036710db0,2024-02-19_03h22.46.060,kallum_motion_pilot,2023.2.2,Win32,147.0588235,65959b14d677879036710db0,65d2b6c8f2eece985d8e374c,65d2b9d9021102d09219339c,0.041,0.041,1,49,211,149,1,seveneight,,,,,,,,,,,,,,,,,,,,,,,,,,,,,,,,,,,,,,,,,,,,,,,,,,,,,,,,,,,,,,,,,,,,,,,,,,,,,,,,,,,,,,,,,,,,,,,,,,,,,,,,,,,,,,,,,,,,,,,,,,,,,,,,,,,,,,,,,
,,65959b14d677879036710db0,2024-02-19_03h22.46.060,kallum_motion_pilot,2023.2.2,Win32,147.0588235,65959b14d677879036710db0,65d2b6c8f2eece985d8e374c,65d2b9d9021102d09219339c,0.0411,0.0411,1,50,212,94,1,eightsix,,,,,,,,,,,,,,,,,,,,,,,,,,,,,,,,,,,,,,,,,,,,,,,,,,,,,,,,,,,,,,,,,,,,,,,,,,,,,,,,,,,,,,,,,,,,,,,,,,,,,,,,,,,,,,,,,,,,,,,,,,,,,,,,,,,,,,,,,
,,65959b14d677879036710db0,2024-02-19_03h22.46.060,kallum_motion_pilot,2023.2.2,Win32,147.0588235,65959b14d677879036710db0,65d2b6c8f2eece985d8e374c,65d2b9d9021102d09219339c,0.0412,0.0413,1,51,213,3,1,twofour,,,,,,,,,,,,,,,,,,,,,,,,,,,,,,,,,,,,,,,,,,,,,,,,,,,,,,,,,,,,,,,,,,,,,,,,,,,,,,,,,,,,,,,,,,,,,,,,,,,,,,,,,,,,,,,,,,,,,,,,,,,,,,,,,,,,,,,,,
,,65959b14d677879036710db0,2024-02-19_03h22.46.060,kallum_motion_pilot,2023.2.2,Win32,147.0588235,65959b14d677879036710db0,65d2b6c8f2eece985d8e374c,65d2b9d9021102d09219339c,0.0414,0.0414,1,52,214,13,1,threefour,,,,,,,,,,,,,,,,,,,,,,,,,,,,,,,,,,,,,,,,,,,,,,,,,,,,,,,,,,,,,,,,,,,,,,,,,,,,,,,,,,,,,,,,,,,,,,,,,,,,,,,,,,,,,,,,,,,,,,,,,,,,,,,,,,,,,,,,,
,,65959b14d677879036710db0,2024-02-19_03h22.46.060,kallum_motion_pilot,2023.2.2,Win32,147.0588235,65959b14d677879036710db0,65d2b6c8f2eece985d8e374c,65d2b9d9021102d09219339c,0.0415,0.0415,1,53,215,84,1,sevenfive,,,,,,,,,,,,,,,,,,,,,,,,,,,,,,,,,,,,,,,,,,,,,,,,,,,,,,,,,,,,,,,,,,,,,,,,,,,,,,,,,,,,,,,,,,,,,,,,,,,,,,,,,,,,,,,,,,,,,,,,,,,,,,,,,,,,,,,,,
,,65959b14d677879036710db0,2024-02-19_03h22.46.060,kallum_motion_pilot,2023.2.2,Win32,147.0588235,65959b14d677879036710db0,65d2b6c8f2eece985d8e374c,65d2b9d9021102d09219339c,0.0416,0.0416,1,54,216,130,1,sixfive,,,,,,,,,,,,,,,,,,,,,,,,,,,,,,,,,,,,,,,,,,,,,,,,,,,,,,,,,,,,,,,,,,,,,,,,,,,,,,,,,,,,,,,,,,,,,,,,,,,,,,,,,,,,,,,,,,,,,,,,,,,,,,,,,,,,,,,,,
,,65959b14d677879036710db0,2024-02-19_03h22.46.060,kallum_motion_pilot,2023.2.2,Win32,147.0588235,65959b14d677879036710db0,65d2b6c8f2eece985d8e374c,65d2b9d9021102d09219339c,0.0417,0.0417,1,55,217,32,1,onetwo,,,,,,,,,,,,,,,,,,,,,,,,,,,,,,,,,,,,,,,,,,,,,,,,,,,,,,,,,,,,,,,,,,,,,,,,,,,,,,,,,,,,,,,,,,,,,,,,,,,,,,,,,,,,,,,,,,,,,,,,,,,,,,,,,,,,,,,,,
,,65959b14d677879036710db0,2024-02-19_03h22.46.060,kallum_motion_pilot,2023.2.2,Win32,147.0588235,65959b14d677879036710db0,65d2b6c8f2eece985d8e374c,65d2b9d9021102d09219339c,0.0418,0.0419,1,56,218,14,1,fourtwo,,,,,,,,,,,,,,,,,,,,,,,,,,,,,,,,,,,,,,,,,,,,,,,,,,,,,,,,,,,,,,,,,,,,,,,,,,,,,,,,,,,,,,,,,,,,,,,,,,,,,,,,,,,,,,,,,,,,,,,,,,,,,,,,,,,,,,,,,
,,65959b14d677879036710db0,2024-02-19_03h22.46.060,kallum_motion_pilot,2023.2.2,Win32,147.0588235,65959b14d677879036710db0,65d2b6c8f2eece985d8e374c,65d2b9d9021102d09219339c,0.0419,0.0419,1,57,219,58,1,twoone,,,,,,,,,,,,,,,,,,,,,,,,,,,,,,,,,,,,,,,,,,,,,,,,,,,,,,,,,,,,,,,,,,,,,,,,,,,,,,,,,,,,,,,,,,,,,,,,,,,,,,,,,,,,,,,,,,,,,,,,,,,,,,,,,,,,,,,,,
,,65959b14d677879036710db0,2024-02-19_03h22.46.060,kallum_motion_pilot,2023.2.2,Win32,147.0588235,65959b14d677879036710db0,65d2b6c8f2eece985d8e374c,65d2b9d9021102d09219339c,0.0421,0.0423,1,58,220,120,1,fivesix,,,,,,,,,,,,,,,,,,,,,,,,,,,,,,,,,,,,,,,,,,,,,,,,,,,,,,,,,,,,,,,,,,,,,,,,,,,,,,,,,,,,,,,,,,,,,,,,,,,,,,,,,,,,,,,,,,,,,,,,,,,,,,,,,,,,,,,,,
,,65959b14d677879036710db0,2024-02-19_03h22.46.060,kallum_motion_pilot,2023.2.2,Win32,147.0588235,65959b14d677879036710db0,65d2b6c8f2eece985d8e374c,65d2b9d9021102d09219339c,0.0424,0.0425,1,59,221,63,1,fourthree,,,,,,,,,,,,,,,,,,,,,,,,,,,,,,,,,,,,,,,,,,,,,,,,,,,,,,,,,,,,,,,,,,,,,,,,,,,,,,,,,,,,,,,,,,,,,,,,,,,,,,,,,,,,,,,,,,,,,,,,,,,,,,,,,,,,,,,,,
,,65959b14d677879036710db0,2024-02-19_03h22.46.060,kallum_motion_pilot,2023.2.2,Win32,147.0588235,65959b14d677879036710db0,65d2b6c8f2eece985d8e374c,65d2b9d9021102d09219339c,0.0425,0.0426,1,60,222,131,1,sixeight,,,,,,,,,,,,,,,,,,,,,,,,,,,,,,,,,,,,,,,,,,,,,,,,,,,,,,,,,,,,,,,,,,,,,,,,,,,,,,,,,,,,,,,,,,,,,,,,,,,,,,,,,,,,,,,,,,,,,,,,,,,,,,,,,,,,,,,,,
,,65959b14d677879036710db0,2024-02-19_03h22.46.060,kallum_motion_pilot,2023.2.2,Win32,147.0588235,65959b14d677879036710db0,65d2b6c8f2eece985d8e374c,65d2b9d9021102d09219339c,0.0427,0.0428,1,61,223,51,1,twofour,,,,,,,,,,,,,,,,,,,,,,,,,,,,,,,,,,,,,,,,,,,,,,,,,,,,,,,,,,,,,,,,,,,,,,,,,,,,,,,,,,,,,,,,,,,,,,,,,,,,,,,,,,,,,,,,,,,,,,,,,,,,,,,,,,,,,,,,,
,,65959b14d677879036710db0,2024-02-19_03h22.46.060,kallum_motion_pilot,2023.2.2,Win32,147.0588235,65959b14d677879036710db0,65d2b6c8f2eece985d8e374c,65d2b9d9021102d09219339c,0.0428,0.0429,1,62,224,138,1,sixfive,,,,,,,,,,,,,,,,,,,,,,,,,,,,,,,,,,,,,,,,,,,,,,,,,,,,,,,,,,,,,,,,,,,,,,,,,,,,,,,,,,,,,,,,,,,,,,,,,,,,,,,,,,,,,,,,,,,,,,,,,,,,,,,,,,,,,,,,,
,,65959b14d677879036710db0,2024-02-19_03h22.46.060,kallum_motion_pilot,2023.2.2,Win32,147.0588235,65959b14d677879036710db0,65d2b6c8f2eece985d8e374c,65d2b9d9021102d09219339c,0.0429,0.043,1,63,225,139,1,sixeight,,,,,,,,,,,,,,,,,,,,,,,,,,,,,,,,,,,,,,,,,,,,,,,,,,,,,,,,,,,,,,,,,,,,,,,,,,,,,,,,,,,,,,,,,,,,,,,,,,,,,,,,,,,,,,,,,,,,,,,,,,,,,,,,,,,,,,,,,
,,65959b14d677879036710db0,2024-02-19_03h22.46.060,kallum_motion_pilot,2023.2.2,Win32,147.0588235,65959b14d677879036710db0,65d2b6c8f2eece985d8e374c,65d2b9d9021102d09219339c,0.043,0.0431,1,64,226,4,1,threeone,,,,,,,,,,,,,,,,,,,,,,,,,,,,,,,,,,,,,,,,,,,,,,,,,,,,,,,,,,,,,,,,,,,,,,,,,,,,,,,,,,,,,,,,,,,,,,,,,,,,,,,,,,,,,,,,,,,,,,,,,,,,,,,,,,,,,,,,,
,,65959b14d677879036710db0,2024-02-19_03h22.46.060,kallum_motion_pilot,2023.2.2,Win32,147.0588235,65959b14d677879036710db0,65d2b6c8f2eece985d8e374c,65d2b9d9021102d09219339c,0.0432,0.0432,1,65,227,20,1,threeone,,,,,,,,,,,,,,,,,,,,,,,,,,,,,,,,,,,,,,,,,,,,,,,,,,,,,,,,,,,,,,,,,,,,,,,,,,,,,,,,,,,,,,,,,,,,,,,,,,,,,,,,,,,,,,,,,,,,,,,,,,,,,,,,,,,,,,,,,
,,65959b14d677879036710db0,2024-02-19_03h22.46.060,kallum_motion_pilot,2023.2.2,Win32,147.0588235,65959b14d677879036710db0,65d2b6c8f2eece985d8e374c,65d2b9d9021102d09219339c,0.0433,0.0434,1,66,228,35,1,twofour,,,,,,,,,,,,,,,,,,,,,,,,,,,,,,,,,,,,,,,,,,,,,,,,,,,,,,,,,,,,,,,,,,,,,,,,,,,,,,,,,,,,,,,,,,,,,,,,,,,,,,,,,,,,,,,,,,,,,,,,,,,,,,,,,,,,,,,,,
,,65959b14d677879036710db0,2024-02-19_03h22.46.060,kallum_motion_pilot,2023.2.2,Win32,147.0588235,65959b14d677879036710db0,65d2b6c8f2eece985d8e374c,65d2b9d9021102d09219339c,0.0435,0.0435,1,67,229,127,1,eightseven,,,,,,,,,,,,,,,,,,,,,,,,,,,,,,,,,,,,,,,,,,,,,,,,,,,,,,,,,,,,,,,,,,,,,,,,,,,,,,,,,,,,,,,,,,,,,,,,,,,,,,,,,,,,,,,,,,,,,,,,,,,,,,,,,,,,,,,,,
,,65959b14d677879036710db0,2024-02-19_03h22.46.060,kallum_motion_pilot,2023.2.2,Win32,147.0588235,65959b14d677879036710db0,65d2b6c8f2eece985d8e374c,65d2b9d9021102d09219339c,0.0436,0.0437,1,68,230,67,1,twofour,,,,,,,,,,,,,,,,,,,,,,,,,,,,,,,,,,,,,,,,,,,,,,,,,,,,,,,,,,,,,,,,,,,,,,,,,,,,,,,,,,,,,,,,,,,,,,,,,,,,,,,,,,,,,,,,,,,,,,,,,,,,,,,,,,,,,,,,,
,,65959b14d677879036710db0,2024-02-19_03h22.46.060,kallum_motion_pilot,2023.2.2,Win32,147.0588235,65959b14d677879036710db0,65d2b6c8f2eece985d8e374c,65d2b9d9021102d09219339c,0.0438,0.0439,1,69,231,108,1,sevenfive,,,,,,,,,,,,,,,,,,,,,,,,,,,,,,,,,,,,,,,,,,,,,,,,,,,,,,,,,,,,,,,,,,,,,,,,,,,,,,,,,,,,,,,,,,,,,,,,,,,,,,,,,,,,,,,,,,,,,,,,,,,,,,,,,,,,,,,,,
,,65959b14d677879036710db0,2024-02-19_03h22.46.060,kallum_motion_pilot,2023.2.2,Win32,147.0588235,65959b14d677879036710db0,65d2b6c8f2eece985d8e374c,65d2b9d9021102d09219339c,0.044,0.044,1,70,232,29,1,threefour,,,,,,,,,,,,,,,,,,,,,,,,,,,,,,,,,,,,,,,,,,,,,,,,,,,,,,,,,,,,,,,,,,,,,,,,,,,,,,,,,,,,,,,,,,,,,,,,,,,,,,,,,,,,,,,,,,,,,,,,,,,,,,,,,,,,,,,,,
,,65959b14d677879036710db0,2024-02-19_03h22.46.060,kallum_motion_pilot,2023.2.2,Win32,147.0588235,65959b14d677879036710db0,65d2b6c8f2eece985d8e374c,65d2b9d9021102d09219339c,0.0442,0.0442,1,71,233,137,1,fiveseven,,,,,,,,,,,,,,,,,,,,,,,,,,,,,,,,,,,,,,,,,,,,,,,,,,,,,,,,,,,,,,,,,,,,,,,,,,,,,,,,,,,,,,,,,,,,,,,,,,,,,,,,,,,,,,,,,,,,,,,,,,,,,,,,,,,,,,,,,
,,65959b14d677879036710db0,2024-02-19_03h22.46.060,kallum_motion_pilot,2023.2.2,Win32,147.0588235,65959b14d677879036710db0,65d2b6c8f2eece985d8e374c,65d2b9d9021102d09219339c,0.0443,0.0444,1,72,234,17,1,onethree,,,,,,,,,,,,,,,,,,,,,,,,,,,,,,,,,,,,,,,,,,,,,,,,,,,,,,,,,,,,,,,,,,,,,,,,,,,,,,,,,,,,,,,,,,,,,,,,,,,,,,,,,,,,,,,,,,,,,,,,,,,,,,,,,,,,,,,,,
,,65959b14d677879036710db0,2024-02-19_03h22.46.060,kallum_motion_pilot,2023.2.2,Win32,147.0588235,65959b14d677879036710db0,65d2b6c8f2eece985d8e374c,65d2b9d9021102d09219339c,0.0444,0.0445,1,73,235,40,1,onetwo,,,,,,,,,,,,,,,,,,,,,,,,,,,,,,,,,,,,,,,,,,,,,,,,,,,,,,,,,,,,,,,,,,,,,,,,,,,,,,,,,,,,,,,,,,,,,,,,,,,,,,,,,,,,,,,,,,,,,,,,,,,,,,,,,,,,,,,,,
,,65959b14d677879036710db0,2024-02-19_03h22.46.060,kallum_motion_pilot,2023.2.2,Win32,147.0588235,65959b14d677879036710db0,65d2b6c8f2eece985d8e374c,65d2b9d9021102d09219339c,0.0445,0.0446,1,74,236,104,1,fivesix,,,,,,,,,,,,,,,,,,,,,,,,,,,,,,,,,,,,,,,,,,,,,,,,,,,,,,,,,,,,,,,,,,,,,,,,,,,,,,,,,,,,,,,,,,,,,,,,,,,,,,,,,,,,,,,,,,,,,,,,,,,,,,,,,,,,,,,,,
,,65959b14d677879036710db0,2024-02-19_03h22.46.060,kallum_motion_pilot,2023.2.2,Win32,147.0588235,65959b14d677879036710db0,65d2b6c8f2eece985d8e374c,65d2b9d9021102d09219339c,0.0447,0.0447,1,75,237,43,1,twofour,,,,,,,,,,,,,,,,,,,,,,,,,,,,,,,,,,,,,,,,,,,,,,,,,,,,,,,,,,,,,,,,,,,,,,,,,,,,,,,,,,,,,,,,,,,,,,,,,,,,,,,,,,,,,,,,,,,,,,,,,,,,,,,,,,,,,,,,,
,,65959b14d677879036710db0,2024-02-19_03h22.46.060,kallum_motion_pilot,2023.2.2,Win32,147.0588235,65959b14d677879036710db0,65d2b6c8f2eece985d8e374c,65d2b9d9021102d09219339c,0.0447,0.0448,1,76,238,21,1,threefour,,,,,,,,,,,,,,,,,,,,,,,,,,,,,,,,,,,,,,,,,,,,,,,,,,,,,,,,,,,,,,,,,,,,,,,,,,,,,,,,,,,,,,,,,,,,,,,,,,,,,,,,,,,,,,,,,,,,,,,,,,,,,,,,,,,,,,,,,
,,65959b14d677879036710db0,2024-02-19_03h22.46.060,kallum_motion_pilot,2023.2.2,Win32,147.0588235,65959b14d677879036710db0,65d2b6c8f2eece985d8e374c,65d2b9d9021102d09219339c,0.0449,0.0449,1,77,239,83,1,sixeight,,,,,,,,,,,,,,,,,,,,,,,,,,,,,,,,,,,,,,,,,,,,,,,,,,,,,,,,,,,,,,,,,,,,,,,,,,,,,,,,,,,,,,,,,,,,,,,,,,,,,,,,,,,,,,,,,,,,,,,,,,,,,,,,,,,,,,,,,
,,65959b14d677879036710db0,2024-02-19_03h22.46.060,kallum_motion_pilot,2023.2.2,Win32,147.0588235,65959b14d677879036710db0,65d2b6c8f2eece985d8e374c,65d2b9d9021102d09219339c,0.045,0.0451,1,78,240,141,1,seveneight,,,,,,,,,,,,,,,,,,,,,,,,,,,,,,,,,,,,,,,,,,,,,,,,,,,,,,,,,,,,,,,,,,,,,,,,,,,,,,,,,,,,,,,,,,,,,,,,,,,,,,,,,,,,,,,,,,,,,,,,,,,,,,,,,,,,,,,,,
,,65959b14d677879036710db0,2024-02-19_03h22.46.060,kallum_motion_pilot,2023.2.2,Win32,147.0588235,65959b14d677879036710db0,65d2b6c8f2eece985d8e374c,65d2b9d9021102d09219339c,0.0451,0.0452,1,79,241,28,1,threeone,,,,,,,,,,,,,,,,,,,,,,,,,,,,,,,,,,,,,,,,,,,,,,,,,,,,,,,,,,,,,,,,,,,,,,,,,,,,,,,,,,,,,,,,,,,,,,,,,,,,,,,,,,,,,,,,,,,,,,,,,,,,,,,,,,,,,,,,,
,,65959b14d677879036710db0,2024-02-19_03h22.46.060,kallum_motion_pilot,2023.2.2,Win32,147.0588235,65959b14d677879036710db0,65d2b6c8f2eece985d8e374c,65d2b9d9021102d09219339c,0.0453,0.0453,1,80,242,78,1,fourtwo,,,,,,,,,,,,,,,,,,,,,,,,,,,,,,,,,,,,,,,,,,,,,,,,,,,,,,,,,,,,,,,,,,,,,,,,,,,,,,,,,,,,,,,,,,,,,,,,,,,,,,,,,,,,,,,,,,,,,,,,,,,,,,,,,,,,,,,,,
,,65959b14d677879036710db0,2024-02-19_03h22.46.060,kallum_motion_pilot,2023.2.2,Win32,147.0588235,65959b14d677879036710db0,65d2b6c8f2eece985d8e374c,65d2b9d9021102d09219339c,0.0453,0.0455,1,81,243,88,1,fivesix,,,,,,,,,,,,,,,,,,,,,,,,,,,,,,,,,,,,,,,,,,,,,,,,,,,,,,,,,,,,,,,,,,,,,,,,,,,,,,,,,,,,,,,,,,,,,,,,,,,,,,,,,,,,,,,,,,,,,,,,,,,,,,,,,,,,,,,,,
,,65959b14d677879036710db0,2024-02-19_03h22.46.060,kallum_motion_pilot,2023.2.2,Win32,147.0588235,65959b14d677879036710db0,65d2b6c8f2eece985d8e374c,65d2b9d9021102d09219339c,0.0455,0.0455,1,82,244,70,1,fourtwo,,,,,,,,,,,,,,,,,,,,,,,,,,,,,,,,,,,,,,,,,,,,,,,,,,,,,,,,,,,,,,,,,,,,,,,,,,,,,,,,,,,,,,,,,,,,,,,,,,,,,,,,,,,,,,,,,,,,,,,,,,,,,,,,,,,,,,,,,
,,65959b14d677879036710db0,2024-02-19_03h22.46.060,kallum_motion_pilot,2023.2.2,Win32,147.0588235,65959b14d677879036710db0,65d2b6c8f2eece985d8e374c,65d2b9d9021102d09219339c,0.0456,0.0456,1,83,245,119,1,eightseven,,,,,,,,,,,,,,,,,,,,,,,,,,,,,,,,,,,,,,,,,,,,,,,,,,,,,,,,,,,,,,,,,,,,,,,,,,,,,,,,,,,,,,,,,,,,,,,,,,,,,,,,,,,,,,,,,,,,,,,,,,,,,,,,,,,,,,,,,
,,65959b14d677879036710db0,2024-02-19_03h22.46.060,kallum_motion_pilot,2023.2.2,Win32,147.0588235,65959b14d677879036710db0,65d2b6c8f2eece985d8e374c,65d2b9d9021102d09219339c,0.0457,0.0458,1,84,246,81,1,fiveseven,,,,,,,,,,,,,,,,,,,,,,,,,,,,,,,,,,,,,,,,,,,,,,,,,,,,,,,,,,,,,,,,,,,,,,,,,,,,,,,,,,,,,,,,,,,,,,,,,,,,,,,,,,,,,,,,,,,,,,,,,,,,,,,,,,,,,,,,,
,,65959b14d677879036710db0,2024-02-19_03h22.46.060,kallum_motion_pilot,2023.2.2,Win32,147.0588235,65959b14d677879036710db0,65d2b6c8f2eece985d8e374c,65d2b9d9021102d09219339c,0.0458,0.0459,1,85,247,34,1,twoone,,,,,,,,,,,,,,,,,,,,,,,,,,,,,,,,,,,,,,,,,,,,,,,,,,,,,,,,,,,,,,,,,,,,,,,,,,,,,,,,,,,,,,,,,,,,,,,,,,,,,,,,,,,,,,,,,,,,,,,,,,,,,,,,,,,,,,,,,
,,65959b14d677879036710db0,2024-02-19_03h22.46.060,kallum_motion_pilot,2023.2.2,Win32,147.0588235,65959b14d677879036710db0,65d2b6c8f2eece985d8e374c,65d2b9d9021102d09219339c,0.0459,0.0461,1,86,248,140,1,sevenfive,,,,,,,,,,,,,,,,,,,,,,,,,,,,,,,,,,,,,,,,,,,,,,,,,,,,,,,,,,,,,,,,,,,,,,,,,,,,,,,,,,,,,,,,,,,,,,,,,,,,,,,,,,,,,,,,,,,,,,,,,,,,,,,,,,,,,,,,,
,,65959b14d677879036710db0,2024-02-19_03h22.46.060,kallum_motion_pilot,2023.2.2,Win32,147.0588235,65959b14d677879036710db0,65d2b6c8f2eece985d8e374c,65d2b9d9021102d09219339c,0.0461,0.0462,1,87,249,41,1,onethree,,,,,,,,,,,,,,,,,,,,,,,,,,,,,,,,,,,,,,,,,,,,,,,,,,,,,,,,,,,,,,,,,,,,,,,,,,,,,,,,,,,,,,,,,,,,,,,,,,,,,,,,,,,,,,,,,,,,,,,,,,,,,,,,,,,,,,,,,
,,65959b14d677879036710db0,2024-02-19_03h22.46.060,kallum_motion_pilot,2023.2.2,Win32,147.0588235,65959b14d677879036710db0,65d2b6c8f2eece985d8e374c,65d2b9d9021102d09219339c,0.0462,0.0463,1,88,250,36,1,threeone,,,,,,,,,,,,,,,,,,,,,,,,,,,,,,,,,,,,,,,,,,,,,,,,,,,,,,,,,,,,,,,,,,,,,,,,,,,,,,,,,,,,,,,,,,,,,,,,,,,,,,,,,,,,,,,,,,,,,,,,,,,,,,,,,,,,,,,,,
,,65959b14d677879036710db0,2024-02-19_03h22.46.060,kallum_motion_pilot,2023.2.2,Win32,147.0588235,65959b14d677879036710db0,65d2b6c8f2eece985d8e374c,65d2b9d9021102d09219339c,0.0463,0.0464,1,89,251,151,1,eightseven,,,,,,,,,,,,,,,,,,,,,,,,,,,,,,,,,,,,,,,,,,,,,,,,,,,,,,,,,,,,,,,,,,,,,,,,,,,,,,,,,,,,,,,,,,,,,,,,,,,,,,,,,,,,,,,,,,,,,,,,,,,,,,,,,,,,,,,,,
,,65959b14d677879036710db0,2024-02-19_03h22.46.060,kallum_motion_pilot,2023.2.2,Win32,147.0588235,65959b14d677879036710db0,65d2b6c8f2eece985d8e374c,65d2b9d9021102d09219339c,0.0464,0.0465,1,90,252,26,1,twoone,,,,,,,,,,,,,,,,,,,,,,,,,,,,,,,,,,,,,,,,,,,,,,,,,,,,,,,,,,,,,,,,,,,,,,,,,,,,,,,,,,,,,,,,,,,,,,,,,,,,,,,,,,,,,,,,,,,,,,,,,,,,,,,,,,,,,,,,,
,,65959b14d677879036710db0,2024-02-19_03h22.46.060,kallum_motion_pilot,2023.2.2,Win32,147.0588235,65959b14d677879036710db0,65d2b6c8f2eece985d8e374c,65d2b9d9021102d09219339c,0.0466,0.0467,1,91,253,1,1,onethree,,,,,,,,,,,,,,,,,,,,,,,,,,,,,,,,,,,,,,,,,,,,,,,,,,,,,,,,,,,,,,,,,,,,,,,,,,,,,,,,,,,,,,,,,,,,,,,,,,,,,,,,,,,,,,,,,,,,,,,,,,,,,,,,,,,,,,,,,
,,65959b14d677879036710db0,2024-02-19_03h22.46.060,kallum_motion_pilot,2023.2.2,Win32,147.0588235,65959b14d677879036710db0,65d2b6c8f2eece985d8e374c,65d2b9d9021102d09219339c,0.0467,0.0468,1,92,254,128,1,fivesix,,,,,,,,,,,,,,,,,,,,,,,,,,,,,,,,,,,,,,,,,,,,,,,,,,,,,,,,,,,,,,,,,,,,,,,,,,,,,,,,,,,,,,,,,,,,,,,,,,,,,,,,,,,,,,,,,,,,,,,,,,,,,,,,,,,,,,,,,
,,65959b14d677879036710db0,2024-02-19_03h22.46.060,kallum_motion_pilot,2023.2.2,Win32,147.0588235,65959b14d677879036710db0,65d2b6c8f2eece985d8e374c,65d2b9d9021102d09219339c,0.0469,0.047,1,93,255,61,1,threefour,,,,,,,,,,,,,,,,,,,,,,,,,,,,,,,,,,,,,,,,,,,,,,,,,,,,,,,,,,,,,,,,,,,,,,,,,,,,,,,,,,,,,,,,,,,,,,,,,,,,,,,,,,,,,,,,,,,,,,,,,,,,,,,,,,,,,,,,,
,,65959b14d677879036710db0,2024-02-19_03h22.46.060,kallum_motion_pilot,2023.2.2,Win32,147.0588235,65959b14d677879036710db0,65d2b6c8f2eece985d8e374c,65d2b9d9021102d09219339c,0.047,0.0471,1,94,256,11,1,twofour,,,,,,,,,,,,,,,,,,,,,,,,,,,,,,,,,,,,,,,,,,,,,,,,,,,,,,,,,,,,,,,,,,,,,,,,,,,,,,,,,,,,,,,,,,,,,,,,,,,,,,,,,,,,,,,,,,,,,,,,,,,,,,,,,,,,,,,,,
,,65959b14d677879036710db0,2024-02-19_03h22.46.060,kallum_motion_pilot,2023.2.2,Win32,147.0588235,65959b14d677879036710db0,65d2b6c8f2eece985d8e374c,65d2b9d9021102d09219339c,0.0471,0.0473,1,95,257,24,1,onetwo,,,,,,,,,,,,,,,,,,,,,,,,,,,,,,,,,,,,,,,,,,,,,,,,,,,,,,,,,,,,,,,,,,,,,,,,,,,,,,,,,,,,,,,,,,,,,,,,,,,,,,,,,,,,,,,,,,,,,,,,,,,,,,,,,,,,,,,,,
,,65959b14d677879036710db0,2024-02-19_03h22.46.060,kallum_motion_pilot,2023.2.2,Win32,147.0588235,65959b14d677879036710db0,65d2b6c8f2eece985d8e374c,65d2b9d9021102d09219339c,0.0473,0.0473,1,96,258,55,1,fourthree,,,,,,,,,,,,,,,,,,,,,,,,,,,,,,,,,,,,,,,,,,,,,,,,,,,,,,,,,,,,,,,,,,,,,,,,,,,,,,,,,,,,,,,,,,,,,,,,,,,,,,,,,,,,,,,,,,,,,,,,,,,,,,,,,,,,,,,,,
,,65959b14d677879036710db0,2024-02-19_03h22.46.060,kallum_motion_pilot,2023.2.2,Win32,147.0588235,65959b14d677879036710db0,65d2b6c8f2eece985d8e374c,65d2b9d9021102d09219339c,0.0474,0.0475,1,97,259,118,1,eightsix,,,,,,,,,,,,,,,,,,,,,,,,,,,,,,,,,,,,,,,,,,,,,,,,,,,,,,,,,,,,,,,,,,,,,,,,,,,,,,,,,,,,,,,,,,,,,,,,,,,,,,,,,,,,,,,,,,,,,,,,,,,,,,,,,,,,,,,,,
,,65959b14d677879036710db0,2024-02-19_03h22.46.060,kallum_motion_pilot,2023.2.2,Win32,147.0588235,65959b14d677879036710db0,65d2b6c8f2eece985d8e374c,65d2b9d9021102d09219339c,0.0475,0.0476,1,98,260,112,1,fivesix,,,,,,,,,,,,,,,,,,,,,,,,,,,,,,,,,,,,,,,,,,,,,,,,,,,,,,,,,,,,,,,,,,,,,,,,,,,,,,,,,,,,,,,,,,,,,,,,,,,,,,,,,,,,,,,,,,,,,,,,,,,,,,,,,,,,,,,,,
,,65959b14d677879036710db0,2024-02-19_03h22.46.060,kallum_motion_pilot,2023.2.2,Win32,147.0588235,65959b14d677879036710db0,65d2b6c8f2eece985d8e374c,65d2b9d9021102d09219339c,0.0477,0.0477,1,99,261,99,1,sixeight,,,,,,,,,,,,,,,,,,,,,,,,,,,,,,,,,,,,,,,,,,,,,,,,,,,,,,,,,,,,,,,,,,,,,,,,,,,,,,,,,,,,,,,,,,,,,,,,,,,,,,,,,,,,,,,,,,,,,,,,,,,,,,,,,,,,,,,,,
,,65959b14d677879036710db0,2024-02-19_03h22.46.060,kallum_motion_pilot,2023.2.2,Win32,147.0588235,65959b14d677879036710db0,65d2b6c8f2eece985d8e374c,65d2b9d9021102d09219339c,0.0477,0.0478,1,100,262,49,1,onethree,,,,,,,,,,,,,,,,,,,,,,,,,,,,,,,,,,,,,,,,,,,,,,,,,,,,,,,,,,,,,,,,,,,,,,,,,,,,,,,,,,,,,,,,,,,,,,,,,,,,,,,,,,,,,,,,,,,,,,,,,,,,,,,,,,,,,,,,,
,,65959b14d677879036710db0,2024-02-19_03h22.46.060,kallum_motion_pilot,2023.2.2,Win32,147.0588235,65959b14d677879036710db0,65d2b6c8f2eece985d8e374c,65d2b9d9021102d09219339c,0.0479,0.048,1,101,263,132,1,sevenfive,,,,,,,,,,,,,,,,,,,,,,,,,,,,,,,,,,,,,,,,,,,,,,,,,,,,,,,,,,,,,,,,,,,,,,,,,,,,,,,,,,,,,,,,,,,,,,,,,,,,,,,,,,,,,,,,,,,,,,,,,,,,,,,,,,,,,,,,,
,,65959b14d677879036710db0,2024-02-19_03h22.46.060,kallum_motion_pilot,2023.2.2,Win32,147.0588235,65959b14d677879036710db0,65d2b6c8f2eece985d8e374c,65d2b9d9021102d09219339c,0.0481,0.0482,1,102,264,147,1,sixeight,,,,,,,,,,,,,,,,,,,,,,,,,,,,,,,,,,,,,,,,,,,,,,,,,,,,,,,,,,,,,,,,,,,,,,,,,,,,,,,,,,,,,,,,,,,,,,,,,,,,,,,,,,,,,,,,,,,,,,,,,,,,,,,,,,,,,,,,,
,,65959b14d677879036710db0,2024-02-19_03h22.46.060,kallum_motion_pilot,2023.2.2,Win32,147.0588235,65959b14d677879036710db0,65d2b6c8f2eece985d8e374c,65d2b9d9021102d09219339c,0.0483,0.0483,1,103,265,62,1,fourtwo,,,,,,,,,,,,,,,,,,,,,,,,,,,,,,,,,,,,,,,,,,,,,,,,,,,,,,,,,,,,,,,,,,,,,,,,,,,,,,,,,,,,,,,,,,,,,,,,,,,,,,,,,,,,,,,,,,,,,,,,,,,,,,,,,,,,,,,,,
,,65959b14d677879036710db0,2024-02-19_03h22.46.060,kallum_motion_pilot,2023.2.2,Win32,147.0588235,65959b14d677879036710db0,65d2b6c8f2eece985d8e374c,65d2b9d9021102d09219339c,0.0483,0.0484,1,104,266,76,1,threeone,,,,,,,,,,,,,,,,,,,,,,,,,,,,,,,,,,,,,,,,,,,,,,,,,,,,,,,,,,,,,,,,,,,,,,,,,,,,,,,,,,,,,,,,,,,,,,,,,,,,,,,,,,,,,,,,,,,,,,,,,,,,,,,,,,,,,,,,,
,,65959b14d677879036710db0,2024-02-19_03h22.46.060,kallum_motion_pilot,2023.2.2,Win32,147.0588235,65959b14d677879036710db0,65d2b6c8f2eece985d8e374c,65d2b9d9021102d09219339c,0.0485,0.0486,1,105,267,53,1,threefour,,,,,,,,,,,,,,,,,,,,,,,,,,,,,,,,,,,,,,,,,,,,,,,,,,,,,,,,,,,,,,,,,,,,,,,,,,,,,,,,,,,,,,,,,,,,,,,,,,,,,,,,,,,,,,,,,,,,,,,,,,,,,,,,,,,,,,,,,
,,65959b14d677879036710db0,2024-02-19_03h22.46.060,kallum_motion_pilot,2023.2.2,Win32,147.0588235,65959b14d677879036710db0,65d2b6c8f2eece985d8e374c,65d2b9d9021102d09219339c,0.0486,0.0487,1,106,268,72,1,onetwo,,,,,,,,,,,,,,,,,,,,,,,,,,,,,,,,,,,,,,,,,,,,,,,,,,,,,,,,,,,,,,,,,,,,,,,,,,,,,,,,,,,,,,,,,,,,,,,,,,,,,,,,,,,,,,,,,,,,,,,,,,,,,,,,,,,,,,,,,
,,65959b14d677879036710db0,2024-02-19_03h22.46.060,kallum_motion_pilot,2023.2.2,Win32,147.0588235,65959b14d677879036710db0,65d2b6c8f2eece985d8e374c,65d2b9d9021102d09219339c,0.0487,0.0488,1,107,269,155,1,sixeight,,,,,,,,,,,,,,,,,,,,,,,,,,,,,,,,,,,,,,,,,,,,,,,,,,,,,,,,,,,,,,,,,,,,,,,,,,,,,,,,,,,,,,,,,,,,,,,,,,,,,,,,,,,,,,,,,,,,,,,,,,,,,,,,,,,,,,,,,
,,65959b14d677879036710db0,2024-02-19_03h22.46.060,kallum_motion_pilot,2023.2.2,Win32,147.0588235,65959b14d677879036710db0,65d2b6c8f2eece985d8e374c,65d2b9d9021102d09219339c,0.0489,0.049,1,108,270,87,1,eightseven,,,,,,,,,,,,,,,,,,,,,,,,,,,,,,,,,,,,,,,,,,,,,,,,,,,,,,,,,,,,,,,,,,,,,,,,,,,,,,,,,,,,,,,,,,,,,,,,,,,,,,,,,,,,,,,,,,,,,,,,,,,,,,,,,,,,,,,,,
,,65959b14d677879036710db0,2024-02-19_03h22.46.060,kallum_motion_pilot,2023.2.2,Win32,147.0588235,65959b14d677879036710db0,65d2b6c8f2eece985d8e374c,65d2b9d9021102d09219339c,0.049,0.0491,1,109,271,111,1,eightseven,,,,,,,,,,,,,,,,,,,,,,,,,,,,,,,,,,,,,,,,,,,,,,,,,,,,,,,,,,,,,,,,,,,,,,,,,,,,,,,,,,,,,,,,,,,,,,,,,,,,,,,,,,,,,,,,,,,,,,,,,,,,,,,,,,,,,,,,,
,,65959b14d677879036710db0,2024-02-19_03h22.46.060,kallum_motion_pilot,2023.2.2,Win32,147.0588235,65959b14d677879036710db0,65d2b6c8f2eece985d8e374c,65d2b9d9021102d09219339c,0.0492,0.0492,1,110,272,54,1,fourtwo,,,,,,,,,,,,,,,,,,,,,,,,,,,,,,,,,,,,,,,,,,,,,,,,,,,,,,,,,,,,,,,,,,,,,,,,,,,,,,,,,,,,,,,,,,,,,,,,,,,,,,,,,,,,,,,,,,,,,,,,,,,,,,,,,,,,,,,,,
,,65959b14d677879036710db0,2024-02-19_03h22.46.060,kallum_motion_pilot,2023.2.2,Win32,147.0588235,65959b14d677879036710db0,65d2b6c8f2eece985d8e374c,65d2b9d9021102d09219339c,0.0493,0.0494,1,111,273,143,1,eightseven,,,,,,,,,,,,,,,,,,,,,,,,,,,,,,,,,,,,,,,,,,,,,,,,,,,,,,,,,,,,,,,,,,,,,,,,,,,,,,,,,,,,,,,,,,,,,,,,,,,,,,,,,,,,,,,,,,,,,,,,,,,,,,,,,,,,,,,,,
,,65959b14d677879036710db0,2024-02-19_03h22.46.060,kallum_motion_pilot,2023.2.2,Win32,147.0588235,65959b14d677879036710db0,65d2b6c8f2eece985d8e374c,65d2b9d9021102d09219339c,0.0494,0.0494,1,112,274,6,1,fourtwo,,,,,,,,,,,,,,,,,,,,,,,,,,,,,,,,,,,,,,,,,,,,,,,,,,,,,,,,,,,,,,,,,,,,,,,,,,,,,,,,,,,,,,,,,,,,,,,,,,,,,,,,,,,,,,,,,,,,,,,,,,,,,,,,,,,,,,,,,
,,65959b14d677879036710db0,2024-02-19_03h22.46.060,kallum_motion_pilot,2023.2.2,Win32,147.0588235,65959b14d677879036710db0,65d2b6c8f2eece985d8e374c,65d2b9d9021102d09219339c,0.0495,0.0496,1,113,275,96,1,fivesix,,,,,,,,,,,,,,,,,,,,,,,,,,,,,,,,,,,,,,,,,,,,,,,,,,,,,,,,,,,,,,,,,,,,,,,,,,,,,,,,,,,,,,,,,,,,,,,,,,,,,,,,,,,,,,,,,,,,,,,,,,,,,,,,,,,,,,,,,
,,65959b14d677879036710db0,2024-02-19_03h22.46.060,kallum_motion_pilot,2023.2.2,Win32,147.0588235,65959b14d677879036710db0,65d2b6c8f2eece985d8e374c,65d2b9d9021102d09219339c,0.0496,0.0497,1,114,276,0,1,onetwo,,,,,,,,,,,,,,,,,,,,,,,,,,,,,,,,,,,,,,,,,,,,,,,,,,,,,,,,,,,,,,,,,,,,,,,,,,,,,,,,,,,,,,,,,,,,,,,,,,,,,,,,,,,,,,,,,,,,,,,,,,,,,,,,,,,,,,,,,
,,65959b14d677879036710db0,2024-02-19_03h22.46.060,kallum_motion_pilot,2023.2.2,Win32,147.0588235,65959b14d677879036710db0,65d2b6c8f2eece985d8e374c,65d2b9d9021102d09219339c,0.0498,0.0498,1,115,277,161,1,fiveseven,,,,,,,,,,,,,,,,,,,,,,,,,,,,,,,,,,,,,,,,,,,,,,,,,,,,,,,,,,,,,,,,,,,,,,,,,,,,,,,,,,,,,,,,,,,,,,,,,,,,,,,,,,,,,,,,,,,,,,,,,,,,,,,,,,,,,,,,,
