startup.started,startup.stopped,Prolific ID*,date,expName,psychopyVersion,OS,frameRate,participant,study_id,session,stimpositions.started,stimpositions.stopped,hardcoded_stimulus_positions.thisRepN,hardcoded_stimulus_positions.thisTrialN,hardcoded_stimulus_positions.thisN,hardcoded_stimulus_positions.thisIndex,hardcoded_stimulus_positions.ran,StimulusPos,stimorientation.started,stimorientation.stopped,prac_stimorientation_import_loop.thisRepN,prac_stimorientation_import_loop.thisTrialN,prac_stimorientation_import_loop.thisN,prac_stimorientation_import_loop.thisIndex,prac_stimorientation_import_loop.ran,Stimorientation,welcome_instr.started,welcome_instr.stopped,key_resp.keys,key_resp.rt,key_resp.duration,response_steppedout_1.started,response_steppedout_1.stopped,key_resp_20.keys,key_resp_20.rt,key_resp_20.duration,response_steppedout_2.started,response_steppedout_2.stopped,key_resp_19.keys,key_resp_19.rt,key_resp_19.duration,stim_response_instr.started,stim_response_instr.stopped,key_resp_15.keys,key_resp_15.rt,key_resp_15.duration,direction_instr_2.started,direction_instr_2.stopped,key_resp_9.keys,key_resp_9.rt,key_resp_9.duration,instr_prac.started,instr_prac.stopped,key_resp_10.keys,key_resp_10.rt,key_resp_10.duration,Stim1_display_prac.started,Stim1_display_prac.stopped,Ecc,Circle1_ori,Circle2_ori,response_prac.started,similarity,response_time,response_prac.stopped,mouse_5.x,mouse_5.y,mouse_5.leftButton,mouse_5.midButton,mouse_5.rightButton,mouse_5.clicked_name,responseprac_feedback.started,responseprac_feedback.stopped,summary2_prac.started,summary2_prac.stopped,mouse_6.x,mouse_6.y,mouse_6.leftButton,mouse_6.midButton,mouse_6.rightButton,mouse_6.clicked_name,duringprac.thisRepN,duringprac.thisTrialN,duringprac.thisN,duringprac.thisIndex,duringprac.ran,begin.started,begin.stopped,key_resp_22.keys,key_resp_22.rt,key_resp_22.duration,Stim1_display.started,Stim1_display.stopped,circle1_ori,circle2_ori,circle1_SF,circle2_SF,response.started,response.stopped,mouse.x,mouse.y,mouse.leftButton,mouse.midButton,mouse.rightButton,mouse.clicked_name,trialnumber,double_pass.thisRepN,double_pass.thisTrialN,double_pass.thisN,double_pass.thisIndex,double_pass.ran,double_pass.order,main_trial.thisRepN,main_trial.thisTrialN,main_trial.thisN,main_trial.thisIndex,main_trial.ran,main_trial.order,Trial_Counter,Catch,Frequencies,response_2.started,response_2.stopped,mouse_2.x,mouse_2.y,mouse_2.leftButton,mouse_2.midButton,mouse_2.rightButton,mouse_2.clicked_name,special_trial.started,special_trial.stopped,catch_1.started,catch_1.stopped,mouse_3.x,mouse_3.y,mouse_3.leftButton,mouse_3.midButton,mouse_3.rightButton,catchresponse,catchnumber,response_time_catch,response_sum.started,response_sum.stopped,mouse_11.x,mouse_11.y,mouse_11.leftButton,mouse_11.midButton,mouse_11.rightButton,flip_presentation_sequence_for_double_pass.started,flip_presentation_sequence_for_double_pass.stopped,goodbye.started,goodbye.stopped,key_resp_3.keys,key_resp_3.rt,key_resp_3.duration
0.0007,0.0008,659c265857dc159282edf1c4,2024-02-22_04h12.52.819,kallum_motion_pilot,2023.2.2,Win32,142.8571429,659c265857dc159282edf1c4,65d6bb0e977760de756971f7,65d6c9a1804293d44dba0b15,,,,,,,,,,,,,,,,,,,,,,,,,,,,,,,,,,,,,,,,,,,,,,,,,,,,,,,,,,,,,,,,,,,,,,,,,,,,,,,,,,,,,,,,,,,,,,,,,,,,,,,,,,,,,,,,,,,,,,,,,,,,,,,,,,,,,,,,,,,,,,,,,
,,659c265857dc159282edf1c4,2024-02-22_04h12.52.819,kallum_motion_pilot,2023.2.2,Win32,142.8571429,659c265857dc159282edf1c4,65d6bb0e977760de756971f7,65d6c9a1804293d44dba0b15,0.0151,0.0152,0,0,0,89,1,fiveseven,,,,,,,,,,,,,,,,,,,,,,,,,,,,,,,,,,,,,,,,,,,,,,,,,,,,,,,,,,,,,,,,,,,,,,,,,,,,,,,,,,,,,,,,,,,,,,,,,,,,,,,,,,,,,,,,,,,,,,,,,,,,,,,,,,,,,,,,,
,,659c265857dc159282edf1c4,2024-02-22_04h12.52.819,kallum_motion_pilot,2023.2.2,Win32,142.8571429,659c265857dc159282edf1c4,65d6bb0e977760de756971f7,65d6c9a1804293d44dba0b15,0.0153,0.0153,0,1,1,39,1,fourthree,,,,,,,,,,,,,,,,,,,,,,,,,,,,,,,,,,,,,,,,,,,,,,,,,,,,,,,,,,,,,,,,,,,,,,,,,,,,,,,,,,,,,,,,,,,,,,,,,,,,,,,,,,,,,,,,,,,,,,,,,,,,,,,,,,,,,,,,,
,,659c265857dc159282edf1c4,2024-02-22_04h12.52.819,kallum_motion_pilot,2023.2.2,Win32,142.8571429,659c265857dc159282edf1c4,65d6bb0e977760de756971f7,65d6c9a1804293d44dba0b15,0.0155,0.0155,0,2,2,46,1,fourtwo,,,,,,,,,,,,,,,,,,,,,,,,,,,,,,,,,,,,,,,,,,,,,,,,,,,,,,,,,,,,,,,,,,,,,,,,,,,,,,,,,,,,,,,,,,,,,,,,,,,,,,,,,,,,,,,,,,,,,,,,,,,,,,,,,,,,,,,,,
,,659c265857dc159282edf1c4,2024-02-22_04h12.52.819,kallum_motion_pilot,2023.2.2,Win32,142.8571429,659c265857dc159282edf1c4,65d6bb0e977760de756971f7,65d6c9a1804293d44dba0b15,0.0156,0.0156,0,3,3,152,1,fivesix,,,,,,,,,,,,,,,,,,,,,,,,,,,,,,,,,,,,,,,,,,,,,,,,,,,,,,,,,,,,,,,,,,,,,,,,,,,,,,,,,,,,,,,,,,,,,,,,,,,,,,,,,,,,,,,,,,,,,,,,,,,,,,,,,,,,,,,,,
,,659c265857dc159282edf1c4,2024-02-22_04h12.52.819,kallum_motion_pilot,2023.2.2,Win32,142.8571429,659c265857dc159282edf1c4,65d6bb0e977760de756971f7,65d6c9a1804293d44dba0b15,0.0156,0.0156,0,4,4,129,1,fiveseven,,,,,,,,,,,,,,,,,,,,,,,,,,,,,,,,,,,,,,,,,,,,,,,,,,,,,,,,,,,,,,,,,,,,,,,,,,,,,,,,,,,,,,,,,,,,,,,,,,,,,,,,,,,,,,,,,,,,,,,,,,,,,,,,,,,,,,,,,
,,659c265857dc159282edf1c4,2024-02-22_04h12.52.819,kallum_motion_pilot,2023.2.2,Win32,142.8571429,659c265857dc159282edf1c4,65d6bb0e977760de756971f7,65d6c9a1804293d44dba0b15,0.0157,0.0157,0,5,5,76,1,threeone,,,,,,,,,,,,,,,,,,,,,,,,,,,,,,,,,,,,,,,,,,,,,,,,,,,,,,,,,,,,,,,,,,,,,,,,,,,,,,,,,,,,,,,,,,,,,,,,,,,,,,,,,,,,,,,,,,,,,,,,,,,,,,,,,,,,,,,,,
,,659c265857dc159282edf1c4,2024-02-22_04h12.52.819,kallum_motion_pilot,2023.2.2,Win32,142.8571429,659c265857dc159282edf1c4,65d6bb0e977760de756971f7,65d6c9a1804293d44dba0b15,0.0158,0.0158,0,6,6,73,1,onethree,,,,,,,,,,,,,,,,,,,,,,,,,,,,,,,,,,,,,,,,,,,,,,,,,,,,,,,,,,,,,,,,,,,,,,,,,,,,,,,,,,,,,,,,,,,,,,,,,,,,,,,,,,,,,,,,,,,,,,,,,,,,,,,,,,,,,,,,,
,,659c265857dc159282edf1c4,2024-02-22_04h12.52.819,kallum_motion_pilot,2023.2.2,Win32,142.8571429,659c265857dc159282edf1c4,65d6bb0e977760de756971f7,65d6c9a1804293d44dba0b15,0.0158,0.0158,0,7,7,158,1,eightsix,,,,,,,,,,,,,,,,,,,,,,,,,,,,,,,,,,,,,,,,,,,,,,,,,,,,,,,,,,,,,,,,,,,,,,,,,,,,,,,,,,,,,,,,,,,,,,,,,,,,,,,,,,,,,,,,,,,,,,,,,,,,,,,,,,,,,,,,,
,,659c265857dc159282edf1c4,2024-02-22_04h12.52.819,kallum_motion_pilot,2023.2.2,Win32,142.8571429,659c265857dc159282edf1c4,65d6bb0e977760de756971f7,65d6c9a1804293d44dba0b15,0.0159,0.016,0,8,8,21,1,threefour,,,,,,,,,,,,,,,,,,,,,,,,,,,,,,,,,,,,,,,,,,,,,,,,,,,,,,,,,,,,,,,,,,,,,,,,,,,,,,,,,,,,,,,,,,,,,,,,,,,,,,,,,,,,,,,,,,,,,,,,,,,,,,,,,,,,,,,,,
,,659c265857dc159282edf1c4,2024-02-22_04h12.52.819,kallum_motion_pilot,2023.2.2,Win32,142.8571429,659c265857dc159282edf1c4,65d6bb0e977760de756971f7,65d6c9a1804293d44dba0b15,0.016,0.016,0,9,9,41,1,onethree,,,,,,,,,,,,,,,,,,,,,,,,,,,,,,,,,,,,,,,,,,,,,,,,,,,,,,,,,,,,,,,,,,,,,,,,,,,,,,,,,,,,,,,,,,,,,,,,,,,,,,,,,,,,,,,,,,,,,,,,,,,,,,,,,,,,,,,,,
,,659c265857dc159282edf1c4,2024-02-22_04h12.52.819,kallum_motion_pilot,2023.2.2,Win32,142.8571429,659c265857dc159282edf1c4,65d6bb0e977760de756971f7,65d6c9a1804293d44dba0b15,0.0161,0.0161,0,10,10,85,1,seveneight,,,,,,,,,,,,,,,,,,,,,,,,,,,,,,,,,,,,,,,,,,,,,,,,,,,,,,,,,,,,,,,,,,,,,,,,,,,,,,,,,,,,,,,,,,,,,,,,,,,,,,,,,,,,,,,,,,,,,,,,,,,,,,,,,,,,,,,,,
,,659c265857dc159282edf1c4,2024-02-22_04h12.52.819,kallum_motion_pilot,2023.2.2,Win32,142.8571429,659c265857dc159282edf1c4,65d6bb0e977760de756971f7,65d6c9a1804293d44dba0b15,0.0161,0.0161,0,11,11,118,1,eightsix,,,,,,,,,,,,,,,,,,,,,,,,,,,,,,,,,,,,,,,,,,,,,,,,,,,,,,,,,,,,,,,,,,,,,,,,,,,,,,,,,,,,,,,,,,,,,,,,,,,,,,,,,,,,,,,,,,,,,,,,,,,,,,,,,,,,,,,,,
,,659c265857dc159282edf1c4,2024-02-22_04h12.52.819,kallum_motion_pilot,2023.2.2,Win32,142.8571429,659c265857dc159282edf1c4,65d6bb0e977760de756971f7,65d6c9a1804293d44dba0b15,0.0161,0.0162,0,12,12,67,1,twofour,,,,,,,,,,,,,,,,,,,,,,,,,,,,,,,,,,,,,,,,,,,,,,,,,,,,,,,,,,,,,,,,,,,,,,,,,,,,,,,,,,,,,,,,,,,,,,,,,,,,,,,,,,,,,,,,,,,,,,,,,,,,,,,,,,,,,,,,,
,,659c265857dc159282edf1c4,2024-02-22_04h12.52.819,kallum_motion_pilot,2023.2.2,Win32,142.8571429,659c265857dc159282edf1c4,65d6bb0e977760de756971f7,65d6c9a1804293d44dba0b15,0.0162,0.0162,0,13,13,104,1,fivesix,,,,,,,,,,,,,,,,,,,,,,,,,,,,,,,,,,,,,,,,,,,,,,,,,,,,,,,,,,,,,,,,,,,,,,,,,,,,,,,,,,,,,,,,,,,,,,,,,,,,,,,,,,,,,,,,,,,,,,,,,,,,,,,,,,,,,,,,,
,,659c265857dc159282edf1c4,2024-02-22_04h12.52.819,kallum_motion_pilot,2023.2.2,Win32,142.8571429,659c265857dc159282edf1c4,65d6bb0e977760de756971f7,65d6c9a1804293d44dba0b15,0.0163,0.0163,0,14,14,155,1,sixeight,,,,,,,,,,,,,,,,,,,,,,,,,,,,,,,,,,,,,,,,,,,,,,,,,,,,,,,,,,,,,,,,,,,,,,,,,,,,,,,,,,,,,,,,,,,,,,,,,,,,,,,,,,,,,,,,,,,,,,,,,,,,,,,,,,,,,,,,,
,,659c265857dc159282edf1c4,2024-02-22_04h12.52.819,kallum_motion_pilot,2023.2.2,Win32,142.8571429,659c265857dc159282edf1c4,65d6bb0e977760de756971f7,65d6c9a1804293d44dba0b15,0.0163,0.0163,0,15,15,4,1,threeone,,,,,,,,,,,,,,,,,,,,,,,,,,,,,,,,,,,,,,,,,,,,,,,,,,,,,,,,,,,,,,,,,,,,,,,,,,,,,,,,,,,,,,,,,,,,,,,,,,,,,,,,,,,,,,,,,,,,,,,,,,,,,,,,,,,,,,,,,
,,659c265857dc159282edf1c4,2024-02-22_04h12.52.819,kallum_motion_pilot,2023.2.2,Win32,142.8571429,659c265857dc159282edf1c4,65d6bb0e977760de756971f7,65d6c9a1804293d44dba0b15,0.0164,0.0164,0,16,16,83,1,sixeight,,,,,,,,,,,,,,,,,,,,,,,,,,,,,,,,,,,,,,,,,,,,,,,,,,,,,,,,,,,,,,,,,,,,,,,,,,,,,,,,,,,,,,,,,,,,,,,,,,,,,,,,,,,,,,,,,,,,,,,,,,,,,,,,,,,,,,,,,
,,659c265857dc159282edf1c4,2024-02-22_04h12.52.819,kallum_motion_pilot,2023.2.2,Win32,142.8571429,659c265857dc159282edf1c4,65d6bb0e977760de756971f7,65d6c9a1804293d44dba0b15,0.0165,0.0165,0,17,17,75,1,twofour,,,,,,,,,,,,,,,,,,,,,,,,,,,,,,,,,,,,,,,,,,,,,,,,,,,,,,,,,,,,,,,,,,,,,,,,,,,,,,,,,,,,,,,,,,,,,,,,,,,,,,,,,,,,,,,,,,,,,,,,,,,,,,,,,,,,,,,,,
,,659c265857dc159282edf1c4,2024-02-22_04h12.52.819,kallum_motion_pilot,2023.2.2,Win32,142.8571429,659c265857dc159282edf1c4,65d6bb0e977760de756971f7,65d6c9a1804293d44dba0b15,0.0165,0.0166,0,18,18,92,1,sevenfive,,,,,,,,,,,,,,,,,,,,,,,,,,,,,,,,,,,,,,,,,,,,,,,,,,,,,,,,,,,,,,,,,,,,,,,,,,,,,,,,,,,,,,,,,,,,,,,,,,,,,,,,,,,,,,,,,,,,,,,,,,,,,,,,,,,,,,,,,
,,659c265857dc159282edf1c4,2024-02-22_04h12.52.819,kallum_motion_pilot,2023.2.2,Win32,142.8571429,659c265857dc159282edf1c4,65d6bb0e977760de756971f7,65d6c9a1804293d44dba0b15,0.0166,0.0166,0,19,19,141,1,seveneight,,,,,,,,,,,,,,,,,,,,,,,,,,,,,,,,,,,,,,,,,,,,,,,,,,,,,,,,,,,,,,,,,,,,,,,,,,,,,,,,,,,,,,,,,,,,,,,,,,,,,,,,,,,,,,,,,,,,,,,,,,,,,,,,,,,,,,,,,
,,659c265857dc159282edf1c4,2024-02-22_04h12.52.819,kallum_motion_pilot,2023.2.2,Win32,142.8571429,659c265857dc159282edf1c4,65d6bb0e977760de756971f7,65d6c9a1804293d44dba0b15,0.0166,0.0166,0,20,20,16,1,onetwo,,,,,,,,,,,,,,,,,,,,,,,,,,,,,,,,,,,,,,,,,,,,,,,,,,,,,,,,,,,,,,,,,,,,,,,,,,,,,,,,,,,,,,,,,,,,,,,,,,,,,,,,,,,,,,,,,,,,,,,,,,,,,,,,,,,,,,,,,
,,659c265857dc159282edf1c4,2024-02-22_04h12.52.819,kallum_motion_pilot,2023.2.2,Win32,142.8571429,659c265857dc159282edf1c4,65d6bb0e977760de756971f7,65d6c9a1804293d44dba0b15,0.0166,0.0167,0,21,21,134,1,eightsix,,,,,,,,,,,,,,,,,,,,,,,,,,,,,,,,,,,,,,,,,,,,,,,,,,,,,,,,,,,,,,,,,,,,,,,,,,,,,,,,,,,,,,,,,,,,,,,,,,,,,,,,,,,,,,,,,,,,,,,,,,,,,,,,,,,,,,,,,
,,659c265857dc159282edf1c4,2024-02-22_04h12.52.819,kallum_motion_pilot,2023.2.2,Win32,142.8571429,659c265857dc159282edf1c4,65d6bb0e977760de756971f7,65d6c9a1804293d44dba0b15,0.0167,0.0167,0,22,22,23,1,fourthree,,,,,,,,,,,,,,,,,,,,,,,,,,,,,,,,,,,,,,,,,,,,,,,,,,,,,,,,,,,,,,,,,,,,,,,,,,,,,,,,,,,,,,,,,,,,,,,,,,,,,,,,,,,,,,,,,,,,,,,,,,,,,,,,,,,,,,,,,
,,659c265857dc159282edf1c4,2024-02-22_04h12.52.819,kallum_motion_pilot,2023.2.2,Win32,142.8571429,659c265857dc159282edf1c4,65d6bb0e977760de756971f7,65d6c9a1804293d44dba0b15,0.0168,0.0168,0,23,23,113,1,fiveseven,,,,,,,,,,,,,,,,,,,,,,,,,,,,,,,,,,,,,,,,,,,,,,,,,,,,,,,,,,,,,,,,,,,,,,,,,,,,,,,,,,,,,,,,,,,,,,,,,,,,,,,,,,,,,,,,,,,,,,,,,,,,,,,,,,,,,,,,,
,,659c265857dc159282edf1c4,2024-02-22_04h12.52.819,kallum_motion_pilot,2023.2.2,Win32,142.8571429,659c265857dc159282edf1c4,65d6bb0e977760de756971f7,65d6c9a1804293d44dba0b15,0.0169,0.0169,0,24,24,17,1,onethree,,,,,,,,,,,,,,,,,,,,,,,,,,,,,,,,,,,,,,,,,,,,,,,,,,,,,,,,,,,,,,,,,,,,,,,,,,,,,,,,,,,,,,,,,,,,,,,,,,,,,,,,,,,,,,,,,,,,,,,,,,,,,,,,,,,,,,,,,
,,659c265857dc159282edf1c4,2024-02-22_04h12.52.819,kallum_motion_pilot,2023.2.2,Win32,142.8571429,659c265857dc159282edf1c4,65d6bb0e977760de756971f7,65d6c9a1804293d44dba0b15,0.0169,0.0169,0,25,25,43,1,twofour,,,,,,,,,,,,,,,,,,,,,,,,,,,,,,,,,,,,,,,,,,,,,,,,,,,,,,,,,,,,,,,,,,,,,,,,,,,,,,,,,,,,,,,,,,,,,,,,,,,,,,,,,,,,,,,,,,,,,,,,,,,,,,,,,,,,,,,,,
,,659c265857dc159282edf1c4,2024-02-22_04h12.52.819,kallum_motion_pilot,2023.2.2,Win32,142.8571429,659c265857dc159282edf1c4,65d6bb0e977760de756971f7,65d6c9a1804293d44dba0b15,0.0169,0.017,0,26,26,49,1,onethree,,,,,,,,,,,,,,,,,,,,,,,,,,,,,,,,,,,,,,,,,,,,,,,,,,,,,,,,,,,,,,,,,,,,,,,,,,,,,,,,,,,,,,,,,,,,,,,,,,,,,,,,,,,,,,,,,,,,,,,,,,,,,,,,,,,,,,,,,
,,659c265857dc159282edf1c4,2024-02-22_04h12.52.819,kallum_motion_pilot,2023.2.2,Win32,142.8571429,659c265857dc159282edf1c4,65d6bb0e977760de756971f7,65d6c9a1804293d44dba0b15,0.017,0.017,0,27,27,109,1,seveneight,,,,,,,,,,,,,,,,,,,,,,,,,,,,,,,,,,,,,,,,,,,,,,,,,,,,,,,,,,,,,,,,,,,,,,,,,,,,,,,,,,,,,,,,,,,,,,,,,,,,,,,,,,,,,,,,,,,,,,,,,,,,,,,,,,,,,,,,,
,,659c265857dc159282edf1c4,2024-02-22_04h12.52.819,kallum_motion_pilot,2023.2.2,Win32,142.8571429,659c265857dc159282edf1c4,65d6bb0e977760de756971f7,65d6c9a1804293d44dba0b15,0.0171,0.0171,0,28,28,82,1,sixfive,,,,,,,,,,,,,,,,,,,,,,,,,,,,,,,,,,,,,,,,,,,,,,,,,,,,,,,,,,,,,,,,,,,,,,,,,,,,,,,,,,,,,,,,,,,,,,,,,,,,,,,,,,,,,,,,,,,,,,,,,,,,,,,,,,,,,,,,,
,,659c265857dc159282edf1c4,2024-02-22_04h12.52.819,kallum_motion_pilot,2023.2.2,Win32,142.8571429,659c265857dc159282edf1c4,65d6bb0e977760de756971f7,65d6c9a1804293d44dba0b15,0.0172,0.0172,0,29,29,88,1,fivesix,,,,,,,,,,,,,,,,,,,,,,,,,,,,,,,,,,,,,,,,,,,,,,,,,,,,,,,,,,,,,,,,,,,,,,,,,,,,,,,,,,,,,,,,,,,,,,,,,,,,,,,,,,,,,,,,,,,,,,,,,,,,,,,,,,,,,,,,,
,,659c265857dc159282edf1c4,2024-02-22_04h12.52.819,kallum_motion_pilot,2023.2.2,Win32,142.8571429,659c265857dc159282edf1c4,65d6bb0e977760de756971f7,65d6c9a1804293d44dba0b15,0.0172,0.0172,0,30,30,103,1,eightseven,,,,,,,,,,,,,,,,,,,,,,,,,,,,,,,,,,,,,,,,,,,,,,,,,,,,,,,,,,,,,,,,,,,,,,,,,,,,,,,,,,,,,,,,,,,,,,,,,,,,,,,,,,,,,,,,,,,,,,,,,,,,,,,,,,,,,,,,,
,,659c265857dc159282edf1c4,2024-02-22_04h12.52.819,kallum_motion_pilot,2023.2.2,Win32,142.8571429,659c265857dc159282edf1c4,65d6bb0e977760de756971f7,65d6c9a1804293d44dba0b15,0.0172,0.0172,0,31,31,35,1,twofour,,,,,,,,,,,,,,,,,,,,,,,,,,,,,,,,,,,,,,,,,,,,,,,,,,,,,,,,,,,,,,,,,,,,,,,,,,,,,,,,,,,,,,,,,,,,,,,,,,,,,,,,,,,,,,,,,,,,,,,,,,,,,,,,,,,,,,,,,
,,659c265857dc159282edf1c4,2024-02-22_04h12.52.819,kallum_motion_pilot,2023.2.2,Win32,142.8571429,659c265857dc159282edf1c4,65d6bb0e977760de756971f7,65d6c9a1804293d44dba0b15,0.0173,0.0174,0,32,32,80,1,fivesix,,,,,,,,,,,,,,,,,,,,,,,,,,,,,,,,,,,,,,,,,,,,,,,,,,,,,,,,,,,,,,,,,,,,,,,,,,,,,,,,,,,,,,,,,,,,,,,,,,,,,,,,,,,,,,,,,,,,,,,,,,,,,,,,,,,,,,,,,
,,659c265857dc159282edf1c4,2024-02-22_04h12.52.819,kallum_motion_pilot,2023.2.2,Win32,142.8571429,659c265857dc159282edf1c4,65d6bb0e977760de756971f7,65d6c9a1804293d44dba0b15,0.0174,0.0174,0,33,33,84,1,sevenfive,,,,,,,,,,,,,,,,,,,,,,,,,,,,,,,,,,,,,,,,,,,,,,,,,,,,,,,,,,,,,,,,,,,,,,,,,,,,,,,,,,,,,,,,,,,,,,,,,,,,,,,,,,,,,,,,,,,,,,,,,,,,,,,,,,,,,,,,,
,,659c265857dc159282edf1c4,2024-02-22_04h12.52.819,kallum_motion_pilot,2023.2.2,Win32,142.8571429,659c265857dc159282edf1c4,65d6bb0e977760de756971f7,65d6c9a1804293d44dba0b15,0.0175,0.0175,0,34,34,101,1,seveneight,,,,,,,,,,,,,,,,,,,,,,,,,,,,,,,,,,,,,,,,,,,,,,,,,,,,,,,,,,,,,,,,,,,,,,,,,,,,,,,,,,,,,,,,,,,,,,,,,,,,,,,,,,,,,,,,,,,,,,,,,,,,,,,,,,,,,,,,,
,,659c265857dc159282edf1c4,2024-02-22_04h12.52.819,kallum_motion_pilot,2023.2.2,Win32,142.8571429,659c265857dc159282edf1c4,65d6bb0e977760de756971f7,65d6c9a1804293d44dba0b15,0.0175,0.0175,0,35,35,53,1,threefour,,,,,,,,,,,,,,,,,,,,,,,,,,,,,,,,,,,,,,,,,,,,,,,,,,,,,,,,,,,,,,,,,,,,,,,,,,,,,,,,,,,,,,,,,,,,,,,,,,,,,,,,,,,,,,,,,,,,,,,,,,,,,,,,,,,,,,,,,
,,659c265857dc159282edf1c4,2024-02-22_04h12.52.819,kallum_motion_pilot,2023.2.2,Win32,142.8571429,659c265857dc159282edf1c4,65d6bb0e977760de756971f7,65d6c9a1804293d44dba0b15,0.0176,0.0176,0,36,36,87,1,eightseven,,,,,,,,,,,,,,,,,,,,,,,,,,,,,,,,,,,,,,,,,,,,,,,,,,,,,,,,,,,,,,,,,,,,,,,,,,,,,,,,,,,,,,,,,,,,,,,,,,,,,,,,,,,,,,,,,,,,,,,,,,,,,,,,,,,,,,,,,
,,659c265857dc159282edf1c4,2024-02-22_04h12.52.819,kallum_motion_pilot,2023.2.2,Win32,142.8571429,659c265857dc159282edf1c4,65d6bb0e977760de756971f7,65d6c9a1804293d44dba0b15,0.0176,0.0176,0,37,37,151,1,eightseven,,,,,,,,,,,,,,,,,,,,,,,,,,,,,,,,,,,,,,,,,,,,,,,,,,,,,,,,,,,,,,,,,,,,,,,,,,,,,,,,,,,,,,,,,,,,,,,,,,,,,,,,,,,,,,,,,,,,,,,,,,,,,,,,,,,,,,,,,
,,659c265857dc159282edf1c4,2024-02-22_04h12.52.819,kallum_motion_pilot,2023.2.2,Win32,142.8571429,659c265857dc159282edf1c4,65d6bb0e977760de756971f7,65d6c9a1804293d44dba0b15,0.0176,0.0177,0,38,38,91,1,sixeight,,,,,,,,,,,,,,,,,,,,,,,,,,,,,,,,,,,,,,,,,,,,,,,,,,,,,,,,,,,,,,,,,,,,,,,,,,,,,,,,,,,,,,,,,,,,,,,,,,,,,,,,,,,,,,,,,,,,,,,,,,,,,,,,,,,,,,,,,
,,659c265857dc159282edf1c4,2024-02-22_04h12.52.819,kallum_motion_pilot,2023.2.2,Win32,142.8571429,659c265857dc159282edf1c4,65d6bb0e977760de756971f7,65d6c9a1804293d44dba0b15,0.0177,0.0177,0,39,39,74,1,twoone,,,,,,,,,,,,,,,,,,,,,,,,,,,,,,,,,,,,,,,,,,,,,,,,,,,,,,,,,,,,,,,,,,,,,,,,,,,,,,,,,,,,,,,,,,,,,,,,,,,,,,,,,,,,,,,,,,,,,,,,,,,,,,,,,,,,,,,,,
,,659c265857dc159282edf1c4,2024-02-22_04h12.52.819,kallum_motion_pilot,2023.2.2,Win32,142.8571429,659c265857dc159282edf1c4,65d6bb0e977760de756971f7,65d6c9a1804293d44dba0b15,0.0177,0.0178,0,40,40,96,1,fivesix,,,,,,,,,,,,,,,,,,,,,,,,,,,,,,,,,,,,,,,,,,,,,,,,,,,,,,,,,,,,,,,,,,,,,,,,,,,,,,,,,,,,,,,,,,,,,,,,,,,,,,,,,,,,,,,,,,,,,,,,,,,,,,,,,,,,,,,,,
,,659c265857dc159282edf1c4,2024-02-22_04h12.52.819,kallum_motion_pilot,2023.2.2,Win32,142.8571429,659c265857dc159282edf1c4,65d6bb0e977760de756971f7,65d6c9a1804293d44dba0b15,0.0178,0.0178,0,41,41,34,1,twoone,,,,,,,,,,,,,,,,,,,,,,,,,,,,,,,,,,,,,,,,,,,,,,,,,,,,,,,,,,,,,,,,,,,,,,,,,,,,,,,,,,,,,,,,,,,,,,,,,,,,,,,,,,,,,,,,,,,,,,,,,,,,,,,,,,,,,,,,,
,,659c265857dc159282edf1c4,2024-02-22_04h12.52.819,kallum_motion_pilot,2023.2.2,Win32,142.8571429,659c265857dc159282edf1c4,65d6bb0e977760de756971f7,65d6c9a1804293d44dba0b15,0.0179,0.018,0,42,42,32,1,onetwo,,,,,,,,,,,,,,,,,,,,,,,,,,,,,,,,,,,,,,,,,,,,,,,,,,,,,,,,,,,,,,,,,,,,,,,,,,,,,,,,,,,,,,,,,,,,,,,,,,,,,,,,,,,,,,,,,,,,,,,,,,,,,,,,,,,,,,,,,
,,659c265857dc159282edf1c4,2024-02-22_04h12.52.819,kallum_motion_pilot,2023.2.2,Win32,142.8571429,659c265857dc159282edf1c4,65d6bb0e977760de756971f7,65d6c9a1804293d44dba0b15,0.018,0.018,0,43,43,42,1,twoone,,,,,,,,,,,,,,,,,,,,,,,,,,,,,,,,,,,,,,,,,,,,,,,,,,,,,,,,,,,,,,,,,,,,,,,,,,,,,,,,,,,,,,,,,,,,,,,,,,,,,,,,,,,,,,,,,,,,,,,,,,,,,,,,,,,,,,,,,
,,659c265857dc159282edf1c4,2024-02-22_04h12.52.819,kallum_motion_pilot,2023.2.2,Win32,142.8571429,659c265857dc159282edf1c4,65d6bb0e977760de756971f7,65d6c9a1804293d44dba0b15,0.018,0.018,0,44,44,63,1,fourthree,,,,,,,,,,,,,,,,,,,,,,,,,,,,,,,,,,,,,,,,,,,,,,,,,,,,,,,,,,,,,,,,,,,,,,,,,,,,,,,,,,,,,,,,,,,,,,,,,,,,,,,,,,,,,,,,,,,,,,,,,,,,,,,,,,,,,,,,,
,,659c265857dc159282edf1c4,2024-02-22_04h12.52.819,kallum_motion_pilot,2023.2.2,Win32,142.8571429,659c265857dc159282edf1c4,65d6bb0e977760de756971f7,65d6c9a1804293d44dba0b15,0.0181,0.0181,0,45,45,137,1,fiveseven,,,,,,,,,,,,,,,,,,,,,,,,,,,,,,,,,,,,,,,,,,,,,,,,,,,,,,,,,,,,,,,,,,,,,,,,,,,,,,,,,,,,,,,,,,,,,,,,,,,,,,,,,,,,,,,,,,,,,,,,,,,,,,,,,,,,,,,,,
,,659c265857dc159282edf1c4,2024-02-22_04h12.52.819,kallum_motion_pilot,2023.2.2,Win32,142.8571429,659c265857dc159282edf1c4,65d6bb0e977760de756971f7,65d6c9a1804293d44dba0b15,0.0181,0.0182,0,46,46,105,1,fiveseven,,,,,,,,,,,,,,,,,,,,,,,,,,,,,,,,,,,,,,,,,,,,,,,,,,,,,,,,,,,,,,,,,,,,,,,,,,,,,,,,,,,,,,,,,,,,,,,,,,,,,,,,,,,,,,,,,,,,,,,,,,,,,,,,,,,,,,,,,
,,659c265857dc159282edf1c4,2024-02-22_04h12.52.819,kallum_motion_pilot,2023.2.2,Win32,142.8571429,659c265857dc159282edf1c4,65d6bb0e977760de756971f7,65d6c9a1804293d44dba0b15,0.0182,0.0182,0,47,47,93,1,seveneight,,,,,,,,,,,,,,,,,,,,,,,,,,,,,,,,,,,,,,,,,,,,,,,,,,,,,,,,,,,,,,,,,,,,,,,,,,,,,,,,,,,,,,,,,,,,,,,,,,,,,,,,,,,,,,,,,,,,,,,,,,,,,,,,,,,,,,,,,
,,659c265857dc159282edf1c4,2024-02-22_04h12.52.819,kallum_motion_pilot,2023.2.2,Win32,142.8571429,659c265857dc159282edf1c4,65d6bb0e977760de756971f7,65d6c9a1804293d44dba0b15,0.0182,0.0183,0,48,48,115,1,sixeight,,,,,,,,,,,,,,,,,,,,,,,,,,,,,,,,,,,,,,,,,,,,,,,,,,,,,,,,,,,,,,,,,,,,,,,,,,,,,,,,,,,,,,,,,,,,,,,,,,,,,,,,,,,,,,,,,,,,,,,,,,,,,,,,,,,,,,,,,
,,659c265857dc159282edf1c4,2024-02-22_04h12.52.819,kallum_motion_pilot,2023.2.2,Win32,142.8571429,659c265857dc159282edf1c4,65d6bb0e977760de756971f7,65d6c9a1804293d44dba0b15,0.0183,0.0183,0,49,49,38,1,fourtwo,,,,,,,,,,,,,,,,,,,,,,,,,,,,,,,,,,,,,,,,,,,,,,,,,,,,,,,,,,,,,,,,,,,,,,,,,,,,,,,,,,,,,,,,,,,,,,,,,,,,,,,,,,,,,,,,,,,,,,,,,,,,,,,,,,,,,,,,,
,,659c265857dc159282edf1c4,2024-02-22_04h12.52.819,kallum_motion_pilot,2023.2.2,Win32,142.8571429,659c265857dc159282edf1c4,65d6bb0e977760de756971f7,65d6c9a1804293d44dba0b15,0.0184,0.0184,0,50,50,161,1,fiveseven,,,,,,,,,,,,,,,,,,,,,,,,,,,,,,,,,,,,,,,,,,,,,,,,,,,,,,,,,,,,,,,,,,,,,,,,,,,,,,,,,,,,,,,,,,,,,,,,,,,,,,,,,,,,,,,,,,,,,,,,,,,,,,,,,,,,,,,,,
,,659c265857dc159282edf1c4,2024-02-22_04h12.52.819,kallum_motion_pilot,2023.2.2,Win32,142.8571429,659c265857dc159282edf1c4,65d6bb0e977760de756971f7,65d6c9a1804293d44dba0b15,0.0185,0.0185,0,51,51,136,1,fivesix,,,,,,,,,,,,,,,,,,,,,,,,,,,,,,,,,,,,,,,,,,,,,,,,,,,,,,,,,,,,,,,,,,,,,,,,,,,,,,,,,,,,,,,,,,,,,,,,,,,,,,,,,,,,,,,,,,,,,,,,,,,,,,,,,,,,,,,,,
,,659c265857dc159282edf1c4,2024-02-22_04h12.52.819,kallum_motion_pilot,2023.2.2,Win32,142.8571429,659c265857dc159282edf1c4,65d6bb0e977760de756971f7,65d6c9a1804293d44dba0b15,0.0185,0.0185,0,52,52,60,1,threeone,,,,,,,,,,,,,,,,,,,,,,,,,,,,,,,,,,,,,,,,,,,,,,,,,,,,,,,,,,,,,,,,,,,,,,,,,,,,,,,,,,,,,,,,,,,,,,,,,,,,,,,,,,,,,,,,,,,,,,,,,,,,,,,,,,,,,,,,,
,,659c265857dc159282edf1c4,2024-02-22_04h12.52.819,kallum_motion_pilot,2023.2.2,Win32,142.8571429,659c265857dc159282edf1c4,65d6bb0e977760de756971f7,65d6c9a1804293d44dba0b15,0.0186,0.0186,0,53,53,19,1,twofour,,,,,,,,,,,,,,,,,,,,,,,,,,,,,,,,,,,,,,,,,,,,,,,,,,,,,,,,,,,,,,,,,,,,,,,,,,,,,,,,,,,,,,,,,,,,,,,,,,,,,,,,,,,,,,,,,,,,,,,,,,,,,,,,,,,,,,,,,
,,659c265857dc159282edf1c4,2024-02-22_04h12.52.819,kallum_motion_pilot,2023.2.2,Win32,142.8571429,659c265857dc159282edf1c4,65d6bb0e977760de756971f7,65d6c9a1804293d44dba0b15,0.0187,0.0187,0,54,54,13,1,threefour,,,,,,,,,,,,,,,,,,,,,,,,,,,,,,,,,,,,,,,,,,,,,,,,,,,,,,,,,,,,,,,,,,,,,,,,,,,,,,,,,,,,,,,,,,,,,,,,,,,,,,,,,,,,,,,,,,,,,,,,,,,,,,,,,,,,,,,,,
,,659c265857dc159282edf1c4,2024-02-22_04h12.52.819,kallum_motion_pilot,2023.2.2,Win32,142.8571429,659c265857dc159282edf1c4,65d6bb0e977760de756971f7,65d6c9a1804293d44dba0b15,0.0187,0.0187,0,55,55,128,1,fivesix,,,,,,,,,,,,,,,,,,,,,,,,,,,,,,,,,,,,,,,,,,,,,,,,,,,,,,,,,,,,,,,,,,,,,,,,,,,,,,,,,,,,,,,,,,,,,,,,,,,,,,,,,,,,,,,,,,,,,,,,,,,,,,,,,,,,,,,,,
,,659c265857dc159282edf1c4,2024-02-22_04h12.52.819,kallum_motion_pilot,2023.2.2,Win32,142.8571429,659c265857dc159282edf1c4,65d6bb0e977760de756971f7,65d6c9a1804293d44dba0b15,0.0188,0.0188,0,56,56,135,1,eightseven,,,,,,,,,,,,,,,,,,,,,,,,,,,,,,,,,,,,,,,,,,,,,,,,,,,,,,,,,,,,,,,,,,,,,,,,,,,,,,,,,,,,,,,,,,,,,,,,,,,,,,,,,,,,,,,,,,,,,,,,,,,,,,,,,,,,,,,,,
,,659c265857dc159282edf1c4,2024-02-22_04h12.52.819,kallum_motion_pilot,2023.2.2,Win32,142.8571429,659c265857dc159282edf1c4,65d6bb0e977760de756971f7,65d6c9a1804293d44dba0b15,0.0188,0.0188,0,57,57,54,1,fourtwo,,,,,,,,,,,,,,,,,,,,,,,,,,,,,,,,,,,,,,,,,,,,,,,,,,,,,,,,,,,,,,,,,,,,,,,,,,,,,,,,,,,,,,,,,,,,,,,,,,,,,,,,,,,,,,,,,,,,,,,,,,,,,,,,,,,,,,,,,
,,659c265857dc159282edf1c4,2024-02-22_04h12.52.819,kallum_motion_pilot,2023.2.2,Win32,142.8571429,659c265857dc159282edf1c4,65d6bb0e977760de756971f7,65d6c9a1804293d44dba0b15,0.0188,0.0188,0,58,58,138,1,sixfive,,,,,,,,,,,,,,,,,,,,,,,,,,,,,,,,,,,,,,,,,,,,,,,,,,,,,,,,,,,,,,,,,,,,,,,,,,,,,,,,,,,,,,,,,,,,,,,,,,,,,,,,,,,,,,,,,,,,,,,,,,,,,,,,,,,,,,,,,
,,659c265857dc159282edf1c4,2024-02-22_04h12.52.819,kallum_motion_pilot,2023.2.2,Win32,142.8571429,659c265857dc159282edf1c4,65d6bb0e977760de756971f7,65d6c9a1804293d44dba0b15,0.0189,0.0189,0,59,59,139,1,sixeight,,,,,,,,,,,,,,,,,,,,,,,,,,,,,,,,,,,,,,,,,,,,,,,,,,,,,,,,,,,,,,,,,,,,,,,,,,,,,,,,,,,,,,,,,,,,,,,,,,,,,,,,,,,,,,,,,,,,,,,,,,,,,,,,,,,,,,,,,
,,659c265857dc159282edf1c4,2024-02-22_04h12.52.819,kallum_motion_pilot,2023.2.2,Win32,142.8571429,659c265857dc159282edf1c4,65d6bb0e977760de756971f7,65d6c9a1804293d44dba0b15,0.019,0.019,0,60,60,50,1,twoone,,,,,,,,,,,,,,,,,,,,,,,,,,,,,,,,,,,,,,,,,,,,,,,,,,,,,,,,,,,,,,,,,,,,,,,,,,,,,,,,,,,,,,,,,,,,,,,,,,,,,,,,,,,,,,,,,,,,,,,,,,,,,,,,,,,,,,,,,
,,659c265857dc159282edf1c4,2024-02-22_04h12.52.819,kallum_motion_pilot,2023.2.2,Win32,142.8571429,659c265857dc159282edf1c4,65d6bb0e977760de756971f7,65d6c9a1804293d44dba0b15,0.019,0.019,0,61,61,147,1,sixeight,,,,,,,,,,,,,,,,,,,,,,,,,,,,,,,,,,,,,,,,,,,,,,,,,,,,,,,,,,,,,,,,,,,,,,,,,,,,,,,,,,,,,,,,,,,,,,,,,,,,,,,,,,,,,,,,,,,,,,,,,,,,,,,,,,,,,,,,,
,,659c265857dc159282edf1c4,2024-02-22_04h12.52.819,kallum_motion_pilot,2023.2.2,Win32,142.8571429,659c265857dc159282edf1c4,65d6bb0e977760de756971f7,65d6c9a1804293d44dba0b15,0.0191,0.0191,0,62,62,106,1,sixfive,,,,,,,,,,,,,,,,,,,,,,,,,,,,,,,,,,,,,,,,,,,,,,,,,,,,,,,,,,,,,,,,,,,,,,,,,,,,,,,,,,,,,,,,,,,,,,,,,,,,,,,,,,,,,,,,,,,,,,,,,,,,,,,,,,,,,,,,,
,,659c265857dc159282edf1c4,2024-02-22_04h12.52.819,kallum_motion_pilot,2023.2.2,Win32,142.8571429,659c265857dc159282edf1c4,65d6bb0e977760de756971f7,65d6c9a1804293d44dba0b15,0.0191,0.0192,0,63,63,44,1,threeone,,,,,,,,,,,,,,,,,,,,,,,,,,,,,,,,,,,,,,,,,,,,,,,,,,,,,,,,,,,,,,,,,,,,,,,,,,,,,,,,,,,,,,,,,,,,,,,,,,,,,,,,,,,,,,,,,,,,,,,,,,,,,,,,,,,,,,,,,
,,659c265857dc159282edf1c4,2024-02-22_04h12.52.819,kallum_motion_pilot,2023.2.2,Win32,142.8571429,659c265857dc159282edf1c4,65d6bb0e977760de756971f7,65d6c9a1804293d44dba0b15,0.0192,0.0193,0,64,64,99,1,sixeight,,,,,,,,,,,,,,,,,,,,,,,,,,,,,,,,,,,,,,,,,,,,,,,,,,,,,,,,,,,,,,,,,,,,,,,,,,,,,,,,,,,,,,,,,,,,,,,,,,,,,,,,,,,,,,,,,,,,,,,,,,,,,,,,,,,,,,,,,
,,659c265857dc159282edf1c4,2024-02-22_04h12.52.819,kallum_motion_pilot,2023.2.2,Win32,142.8571429,659c265857dc159282edf1c4,65d6bb0e977760de756971f7,65d6c9a1804293d44dba0b15,0.0193,0.0193,0,65,65,69,1,threefour,,,,,,,,,,,,,,,,,,,,,,,,,,,,,,,,,,,,,,,,,,,,,,,,,,,,,,,,,,,,,,,,,,,,,,,,,,,,,,,,,,,,,,,,,,,,,,,,,,,,,,,,,,,,,,,,,,,,,,,,,,,,,,,,,,,,,,,,,
,,659c265857dc159282edf1c4,2024-02-22_04h12.52.819,kallum_motion_pilot,2023.2.2,Win32,142.8571429,659c265857dc159282edf1c4,65d6bb0e977760de756971f7,65d6c9a1804293d44dba0b15,0.0193,0.0194,0,66,66,14,1,fourtwo,,,,,,,,,,,,,,,,,,,,,,,,,,,,,,,,,,,,,,,,,,,,,,,,,,,,,,,,,,,,,,,,,,,,,,,,,,,,,,,,,,,,,,,,,,,,,,,,,,,,,,,,,,,,,,,,,,,,,,,,,,,,,,,,,,,,,,,,,
,,659c265857dc159282edf1c4,2024-02-22_04h12.52.819,kallum_motion_pilot,2023.2.2,Win32,142.8571429,659c265857dc159282edf1c4,65d6bb0e977760de756971f7,65d6c9a1804293d44dba0b15,0.0195,0.0195,0,67,67,121,1,fiveseven,,,,,,,,,,,,,,,,,,,,,,,,,,,,,,,,,,,,,,,,,,,,,,,,,,,,,,,,,,,,,,,,,,,,,,,,,,,,,,,,,,,,,,,,,,,,,,,,,,,,,,,,,,,,,,,,,,,,,,,,,,,,,,,,,,,,,,,,,
,,659c265857dc159282edf1c4,2024-02-22_04h12.52.819,kallum_motion_pilot,2023.2.2,Win32,142.8571429,659c265857dc159282edf1c4,65d6bb0e977760de756971f7,65d6c9a1804293d44dba0b15,0.0195,0.0195,0,68,68,26,1,twoone,,,,,,,,,,,,,,,,,,,,,,,,,,,,,,,,,,,,,,,,,,,,,,,,,,,,,,,,,,,,,,,,,,,,,,,,,,,,,,,,,,,,,,,,,,,,,,,,,,,,,,,,,,,,,,,,,,,,,,,,,,,,,,,,,,,,,,,,,
,,659c265857dc159282edf1c4,2024-02-22_04h12.52.819,kallum_motion_pilot,2023.2.2,Win32,142.8571429,659c265857dc159282edf1c4,65d6bb0e977760de756971f7,65d6c9a1804293d44dba0b15,0.0196,0.0196,0,69,69,150,1,eightsix,,,,,,,,,,,,,,,,,,,,,,,,,,,,,,,,,,,,,,,,,,,,,,,,,,,,,,,,,,,,,,,,,,,,,,,,,,,,,,,,,,,,,,,,,,,,,,,,,,,,,,,,,,,,,,,,,,,,,,,,,,,,,,,,,,,,,,,,,
,,659c265857dc159282edf1c4,2024-02-22_04h12.52.819,kallum_motion_pilot,2023.2.2,Win32,142.8571429,659c265857dc159282edf1c4,65d6bb0e977760de756971f7,65d6c9a1804293d44dba0b15,0.0196,0.0197,0,70,70,47,1,fourthree,,,,,,,,,,,,,,,,,,,,,,,,,,,,,,,,,,,,,,,,,,,,,,,,,,,,,,,,,,,,,,,,,,,,,,,,,,,,,,,,,,,,,,,,,,,,,,,,,,,,,,,,,,,,,,,,,,,,,,,,,,,,,,,,,,,,,,,,,
,,659c265857dc159282edf1c4,2024-02-22_04h12.52.819,kallum_motion_pilot,2023.2.2,Win32,142.8571429,659c265857dc159282edf1c4,65d6bb0e977760de756971f7,65d6c9a1804293d44dba0b15,0.0197,0.0197,0,71,71,37,1,threefour,,,,,,,,,,,,,,,,,,,,,,,,,,,,,,,,,,,,,,,,,,,,,,,,,,,,,,,,,,,,,,,,,,,,,,,,,,,,,,,,,,,,,,,,,,,,,,,,,,,,,,,,,,,,,,,,,,,,,,,,,,,,,,,,,,,,,,,,,
,,659c265857dc159282edf1c4,2024-02-22_04h12.52.819,kallum_motion_pilot,2023.2.2,Win32,142.8571429,659c265857dc159282edf1c4,65d6bb0e977760de756971f7,65d6c9a1804293d44dba0b15,0.0197,0.0198,0,72,72,153,1,fiveseven,,,,,,,,,,,,,,,,,,,,,,,,,,,,,,,,,,,,,,,,,,,,,,,,,,,,,,,,,,,,,,,,,,,,,,,,,,,,,,,,,,,,,,,,,,,,,,,,,,,,,,,,,,,,,,,,,,,,,,,,,,,,,,,,,,,,,,,,,
,,659c265857dc159282edf1c4,2024-02-22_04h12.52.819,kallum_motion_pilot,2023.2.2,Win32,142.8571429,659c265857dc159282edf1c4,65d6bb0e977760de756971f7,65d6c9a1804293d44dba0b15,0.0199,0.0199,0,73,73,100,1,sevenfive,,,,,,,,,,,,,,,,,,,,,,,,,,,,,,,,,,,,,,,,,,,,,,,,,,,,,,,,,,,,,,,,,,,,,,,,,,,,,,,,,,,,,,,,,,,,,,,,,,,,,,,,,,,,,,,,,,,,,,,,,,,,,,,,,,,,,,,,,
,,659c265857dc159282edf1c4,2024-02-22_04h12.52.819,kallum_motion_pilot,2023.2.2,Win32,142.8571429,659c265857dc159282edf1c4,65d6bb0e977760de756971f7,65d6c9a1804293d44dba0b15,0.02,0.02,0,74,74,160,1,fivesix,,,,,,,,,,,,,,,,,,,,,,,,,,,,,,,,,,,,,,,,,,,,,,,,,,,,,,,,,,,,,,,,,,,,,,,,,,,,,,,,,,,,,,,,,,,,,,,,,,,,,,,,,,,,,,,,,,,,,,,,,,,,,,,,,,,,,,,,,
,,659c265857dc159282edf1c4,2024-02-22_04h12.52.819,kallum_motion_pilot,2023.2.2,Win32,142.8571429,659c265857dc159282edf1c4,65d6bb0e977760de756971f7,65d6c9a1804293d44dba0b15,0.02,0.02,0,75,75,146,1,sixfive,,,,,,,,,,,,,,,,,,,,,,,,,,,,,,,,,,,,,,,,,,,,,,,,,,,,,,,,,,,,,,,,,,,,,,,,,,,,,,,,,,,,,,,,,,,,,,,,,,,,,,,,,,,,,,,,,,,,,,,,,,,,,,,,,,,,,,,,,
,,659c265857dc159282edf1c4,2024-02-22_04h12.52.819,kallum_motion_pilot,2023.2.2,Win32,142.8571429,659c265857dc159282edf1c4,65d6bb0e977760de756971f7,65d6c9a1804293d44dba0b15,0.0201,0.0201,0,76,76,20,1,threeone,,,,,,,,,,,,,,,,,,,,,,,,,,,,,,,,,,,,,,,,,,,,,,,,,,,,,,,,,,,,,,,,,,,,,,,,,,,,,,,,,,,,,,,,,,,,,,,,,,,,,,,,,,,,,,,,,,,,,,,,,,,,,,,,,,,,,,,,,
,,659c265857dc159282edf1c4,2024-02-22_04h12.52.819,kallum_motion_pilot,2023.2.2,Win32,142.8571429,659c265857dc159282edf1c4,65d6bb0e977760de756971f7,65d6c9a1804293d44dba0b15,0.0202,0.0202,0,77,77,94,1,eightsix,,,,,,,,,,,,,,,,,,,,,,,,,,,,,,,,,,,,,,,,,,,,,,,,,,,,,,,,,,,,,,,,,,,,,,,,,,,,,,,,,,,,,,,,,,,,,,,,,,,,,,,,,,,,,,,,,,,,,,,,,,,,,,,,,,,,,,,,,
,,659c265857dc159282edf1c4,2024-02-22_04h12.52.819,kallum_motion_pilot,2023.2.2,Win32,142.8571429,659c265857dc159282edf1c4,65d6bb0e977760de756971f7,65d6c9a1804293d44dba0b15,0.0202,0.0202,0,78,78,110,1,eightsix,,,,,,,,,,,,,,,,,,,,,,,,,,,,,,,,,,,,,,,,,,,,,,,,,,,,,,,,,,,,,,,,,,,,,,,,,,,,,,,,,,,,,,,,,,,,,,,,,,,,,,,,,,,,,,,,,,,,,,,,,,,,,,,,,,,,,,,,,
,,659c265857dc159282edf1c4,2024-02-22_04h12.52.819,kallum_motion_pilot,2023.2.2,Win32,142.8571429,659c265857dc159282edf1c4,65d6bb0e977760de756971f7,65d6c9a1804293d44dba0b15,0.0203,0.0203,0,79,79,25,1,onethree,,,,,,,,,,,,,,,,,,,,,,,,,,,,,,,,,,,,,,,,,,,,,,,,,,,,,,,,,,,,,,,,,,,,,,,,,,,,,,,,,,,,,,,,,,,,,,,,,,,,,,,,,,,,,,,,,,,,,,,,,,,,,,,,,,,,,,,,,
,,659c265857dc159282edf1c4,2024-02-22_04h12.52.819,kallum_motion_pilot,2023.2.2,Win32,142.8571429,659c265857dc159282edf1c4,65d6bb0e977760de756971f7,65d6c9a1804293d44dba0b15,0.0203,0.0204,0,80,80,6,1,fourtwo,,,,,,,,,,,,,,,,,,,,,,,,,,,,,,,,,,,,,,,,,,,,,,,,,,,,,,,,,,,,,,,,,,,,,,,,,,,,,,,,,,,,,,,,,,,,,,,,,,,,,,,,,,,,,,,,,,,,,,,,,,,,,,,,,,,,,,,,,
,,659c265857dc159282edf1c4,2024-02-22_04h12.52.819,kallum_motion_pilot,2023.2.2,Win32,142.8571429,659c265857dc159282edf1c4,65d6bb0e977760de756971f7,65d6c9a1804293d44dba0b15,0.0204,0.0204,0,81,81,71,1,fourthree,,,,,,,,,,,,,,,,,,,,,,,,,,,,,,,,,,,,,,,,,,,,,,,,,,,,,,,,,,,,,,,,,,,,,,,,,,,,,,,,,,,,,,,,,,,,,,,,,,,,,,,,,,,,,,,,,,,,,,,,,,,,,,,,,,,,,,,,,
,,659c265857dc159282edf1c4,2024-02-22_04h12.52.819,kallum_motion_pilot,2023.2.2,Win32,142.8571429,659c265857dc159282edf1c4,65d6bb0e977760de756971f7,65d6c9a1804293d44dba0b15,0.0204,0.0204,0,82,82,59,1,twofour,,,,,,,,,,,,,,,,,,,,,,,,,,,,,,,,,,,,,,,,,,,,,,,,,,,,,,,,,,,,,,,,,,,,,,,,,,,,,,,,,,,,,,,,,,,,,,,,,,,,,,,,,,,,,,,,,,,,,,,,,,,,,,,,,,,,,,,,,
,,659c265857dc159282edf1c4,2024-02-22_04h12.52.819,kallum_motion_pilot,2023.2.2,Win32,142.8571429,659c265857dc159282edf1c4,65d6bb0e977760de756971f7,65d6c9a1804293d44dba0b15,0.0206,0.0206,0,83,83,57,1,onethree,,,,,,,,,,,,,,,,,,,,,,,,,,,,,,,,,,,,,,,,,,,,,,,,,,,,,,,,,,,,,,,,,,,,,,,,,,,,,,,,,,,,,,,,,,,,,,,,,,,,,,,,,,,,,,,,,,,,,,,,,,,,,,,,,,,,,,,,,
,,659c265857dc159282edf1c4,2024-02-22_04h12.52.819,kallum_motion_pilot,2023.2.2,Win32,142.8571429,659c265857dc159282edf1c4,65d6bb0e977760de756971f7,65d6c9a1804293d44dba0b15,0.0206,0.0206,0,84,84,95,1,eightseven,,,,,,,,,,,,,,,,,,,,,,,,,,,,,,,,,,,,,,,,,,,,,,,,,,,,,,,,,,,,,,,,,,,,,,,,,,,,,,,,,,,,,,,,,,,,,,,,,,,,,,,,,,,,,,,,,,,,,,,,,,,,,,,,,,,,,,,,,
,,659c265857dc159282edf1c4,2024-02-22_04h12.52.819,kallum_motion_pilot,2023.2.2,Win32,142.8571429,659c265857dc159282edf1c4,65d6bb0e977760de756971f7,65d6c9a1804293d44dba0b15,0.0206,0.0206,0,85,85,102,1,eightsix,,,,,,,,,,,,,,,,,,,,,,,,,,,,,,,,,,,,,,,,,,,,,,,,,,,,,,,,,,,,,,,,,,,,,,,,,,,,,,,,,,,,,,,,,,,,,,,,,,,,,,,,,,,,,,,,,,,,,,,,,,,,,,,,,,,,,,,,,
,,659c265857dc159282edf1c4,2024-02-22_04h12.52.819,kallum_motion_pilot,2023.2.2,Win32,142.8571429,659c265857dc159282edf1c4,65d6bb0e977760de756971f7,65d6c9a1804293d44dba0b15,0.0207,0.0207,0,86,86,108,1,sevenfive,,,,,,,,,,,,,,,,,,,,,,,,,,,,,,,,,,,,,,,,,,,,,,,,,,,,,,,,,,,,,,,,,,,,,,,,,,,,,,,,,,,,,,,,,,,,,,,,,,,,,,,,,,,,,,,,,,,,,,,,,,,,,,,,,,,,,,,,,
,,659c265857dc159282edf1c4,2024-02-22_04h12.52.819,kallum_motion_pilot,2023.2.2,Win32,142.8571429,659c265857dc159282edf1c4,65d6bb0e977760de756971f7,65d6c9a1804293d44dba0b15,0.0208,0.0208,0,87,87,65,1,onethree,,,,,,,,,,,,,,,,,,,,,,,,,,,,,,,,,,,,,,,,,,,,,,,,,,,,,,,,,,,,,,,,,,,,,,,,,,,,,,,,,,,,,,,,,,,,,,,,,,,,,,,,,,,,,,,,,,,,,,,,,,,,,,,,,,,,,,,,,
,,659c265857dc159282edf1c4,2024-02-22_04h12.52.819,kallum_motion_pilot,2023.2.2,Win32,142.8571429,659c265857dc159282edf1c4,65d6bb0e977760de756971f7,65d6c9a1804293d44dba0b15,0.0208,0.0209,0,88,88,10,1,twoone,,,,,,,,,,,,,,,,,,,,,,,,,,,,,,,,,,,,,,,,,,,,,,,,,,,,,,,,,,,,,,,,,,,,,,,,,,,,,,,,,,,,,,,,,,,,,,,,,,,,,,,,,,,,,,,,,,,,,,,,,,,,,,,,,,,,,,,,,
,,659c265857dc159282edf1c4,2024-02-22_04h12.52.819,kallum_motion_pilot,2023.2.2,Win32,142.8571429,659c265857dc159282edf1c4,65d6bb0e977760de756971f7,65d6c9a1804293d44dba0b15,0.0209,0.0209,0,89,89,52,1,threeone,,,,,,,,,,,,,,,,,,,,,,,,,,,,,,,,,,,,,,,,,,,,,,,,,,,,,,,,,,,,,,,,,,,,,,,,,,,,,,,,,,,,,,,,,,,,,,,,,,,,,,,,,,,,,,,,,,,,,,,,,,,,,,,,,,,,,,,,,
,,659c265857dc159282edf1c4,2024-02-22_04h12.52.819,kallum_motion_pilot,2023.2.2,Win32,142.8571429,659c265857dc159282edf1c4,65d6bb0e977760de756971f7,65d6c9a1804293d44dba0b15,0.021,0.021,0,90,90,112,1,fivesix,,,,,,,,,,,,,,,,,,,,,,,,,,,,,,,,,,,,,,,,,,,,,,,,,,,,,,,,,,,,,,,,,,,,,,,,,,,,,,,,,,,,,,,,,,,,,,,,,,,,,,,,,,,,,,,,,,,,,,,,,,,,,,,,,,,,,,,,,
,,659c265857dc159282edf1c4,2024-02-22_04h12.52.819,kallum_motion_pilot,2023.2.2,Win32,142.8571429,659c265857dc159282edf1c4,65d6bb0e977760de756971f7,65d6c9a1804293d44dba0b15,0.021,0.021,0,91,91,58,1,twoone,,,,,,,,,,,,,,,,,,,,,,,,,,,,,,,,,,,,,,,,,,,,,,,,,,,,,,,,,,,,,,,,,,,,,,,,,,,,,,,,,,,,,,,,,,,,,,,,,,,,,,,,,,,,,,,,,,,,,,,,,,,,,,,,,,,,,,,,,
,,659c265857dc159282edf1c4,2024-02-22_04h12.52.819,kallum_motion_pilot,2023.2.2,Win32,142.8571429,659c265857dc159282edf1c4,65d6bb0e977760de756971f7,65d6c9a1804293d44dba0b15,0.0212,0.0212,0,92,92,124,1,sevenfive,,,,,,,,,,,,,,,,,,,,,,,,,,,,,,,,,,,,,,,,,,,,,,,,,,,,,,,,,,,,,,,,,,,,,,,,,,,,,,,,,,,,,,,,,,,,,,,,,,,,,,,,,,,,,,,,,,,,,,,,,,,,,,,,,,,,,,,,,
,,659c265857dc159282edf1c4,2024-02-22_04h12.52.819,kallum_motion_pilot,2023.2.2,Win32,142.8571429,659c265857dc159282edf1c4,65d6bb0e977760de756971f7,65d6c9a1804293d44dba0b15,0.0212,0.0212,0,93,93,2,1,twoone,,,,,,,,,,,,,,,,,,,,,,,,,,,,,,,,,,,,,,,,,,,,,,,,,,,,,,,,,,,,,,,,,,,,,,,,,,,,,,,,,,,,,,,,,,,,,,,,,,,,,,,,,,,,,,,,,,,,,,,,,,,,,,,,,,,,,,,,,
,,659c265857dc159282edf1c4,2024-02-22_04h12.52.819,kallum_motion_pilot,2023.2.2,Win32,142.8571429,659c265857dc159282edf1c4,65d6bb0e977760de756971f7,65d6c9a1804293d44dba0b15,0.0213,0.0213,0,94,94,33,1,onethree,,,,,,,,,,,,,,,,,,,,,,,,,,,,,,,,,,,,,,,,,,,,,,,,,,,,,,,,,,,,,,,,,,,,,,,,,,,,,,,,,,,,,,,,,,,,,,,,,,,,,,,,,,,,,,,,,,,,,,,,,,,,,,,,,,,,,,,,,
,,659c265857dc159282edf1c4,2024-02-22_04h12.52.819,kallum_motion_pilot,2023.2.2,Win32,142.8571429,659c265857dc159282edf1c4,65d6bb0e977760de756971f7,65d6c9a1804293d44dba0b15,0.0214,0.0214,0,95,95,157,1,seveneight,,,,,,,,,,,,,,,,,,,,,,,,,,,,,,,,,,,,,,,,,,,,,,,,,,,,,,,,,,,,,,,,,,,,,,,,,,,,,,,,,,,,,,,,,,,,,,,,,,,,,,,,,,,,,,,,,,,,,,,,,,,,,,,,,,,,,,,,,
,,659c265857dc159282edf1c4,2024-02-22_04h12.52.819,kallum_motion_pilot,2023.2.2,Win32,142.8571429,659c265857dc159282edf1c4,65d6bb0e977760de756971f7,65d6c9a1804293d44dba0b15,0.0214,0.0214,0,96,96,40,1,onetwo,,,,,,,,,,,,,,,,,,,,,,,,,,,,,,,,,,,,,,,,,,,,,,,,,,,,,,,,,,,,,,,,,,,,,,,,,,,,,,,,,,,,,,,,,,,,,,,,,,,,,,,,,,,,,,,,,,,,,,,,,,,,,,,,,,,,,,,,,
,,659c265857dc159282edf1c4,2024-02-22_04h12.52.819,kallum_motion_pilot,2023.2.2,Win32,142.8571429,659c265857dc159282edf1c4,65d6bb0e977760de756971f7,65d6c9a1804293d44dba0b15,0.0215,0.0215,0,97,97,3,1,twofour,,,,,,,,,,,,,,,,,,,,,,,,,,,,,,,,,,,,,,,,,,,,,,,,,,,,,,,,,,,,,,,,,,,,,,,,,,,,,,,,,,,,,,,,,,,,,,,,,,,,,,,,,,,,,,,,,,,,,,,,,,,,,,,,,,,,,,,,,
,,659c265857dc159282edf1c4,2024-02-22_04h12.52.819,kallum_motion_pilot,2023.2.2,Win32,142.8571429,659c265857dc159282edf1c4,65d6bb0e977760de756971f7,65d6c9a1804293d44dba0b15,0.0216,0.0216,0,98,98,64,1,onetwo,,,,,,,,,,,,,,,,,,,,,,,,,,,,,,,,,,,,,,,,,,,,,,,,,,,,,,,,,,,,,,,,,,,,,,,,,,,,,,,,,,,,,,,,,,,,,,,,,,,,,,,,,,,,,,,,,,,,,,,,,,,,,,,,,,,,,,,,,
,,659c265857dc159282edf1c4,2024-02-22_04h12.52.819,kallum_motion_pilot,2023.2.2,Win32,142.8571429,659c265857dc159282edf1c4,65d6bb0e977760de756971f7,65d6c9a1804293d44dba0b15,0.0217,0.0217,0,99,99,140,1,sevenfive,,,,,,,,,,,,,,,,,,,,,,,,,,,,,,,,,,,,,,,,,,,,,,,,,,,,,,,,,,,,,,,,,,,,,,,,,,,,,,,,,,,,,,,,,,,,,,,,,,,,,,,,,,,,,,,,,,,,,,,,,,,,,,,,,,,,,,,,,
,,659c265857dc159282edf1c4,2024-02-22_04h12.52.819,kallum_motion_pilot,2023.2.2,Win32,142.8571429,659c265857dc159282edf1c4,65d6bb0e977760de756971f7,65d6c9a1804293d44dba0b15,0.0217,0.0217,0,100,100,132,1,sevenfive,,,,,,,,,,,,,,,,,,,,,,,,,,,,,,,,,,,,,,,,,,,,,,,,,,,,,,,,,,,,,,,,,,,,,,,,,,,,,,,,,,,,,,,,,,,,,,,,,,,,,,,,,,,,,,,,,,,,,,,,,,,,,,,,,,,,,,,,,
,,659c265857dc159282edf1c4,2024-02-22_04h12.52.819,kallum_motion_pilot,2023.2.2,Win32,142.8571429,659c265857dc159282edf1c4,65d6bb0e977760de756971f7,65d6c9a1804293d44dba0b15,0.0218,0.0218,0,101,101,66,1,twoone,,,,,,,,,,,,,,,,,,,,,,,,,,,,,,,,,,,,,,,,,,,,,,,,,,,,,,,,,,,,,,,,,,,,,,,,,,,,,,,,,,,,,,,,,,,,,,,,,,,,,,,,,,,,,,,,,,,,,,,,,,,,,,,,,,,,,,,,,
,,659c265857dc159282edf1c4,2024-02-22_04h12.52.819,kallum_motion_pilot,2023.2.2,Win32,142.8571429,659c265857dc159282edf1c4,65d6bb0e977760de756971f7,65d6c9a1804293d44dba0b15,0.0218,0.0219,0,102,102,36,1,threeone,,,,,,,,,,,,,,,,,,,,,,,,,,,,,,,,,,,,,,,,,,,,,,,,,,,,,,,,,,,,,,,,,,,,,,,,,,,,,,,,,,,,,,,,,,,,,,,,,,,,,,,,,,,,,,,,,,,,,,,,,,,,,,,,,,,,,,,,,
,,659c265857dc159282edf1c4,2024-02-22_04h12.52.819,kallum_motion_pilot,2023.2.2,Win32,142.8571429,659c265857dc159282edf1c4,65d6bb0e977760de756971f7,65d6c9a1804293d44dba0b15,0.0219,0.0219,0,103,103,18,1,twoone,,,,,,,,,,,,,,,,,,,,,,,,,,,,,,,,,,,,,,,,,,,,,,,,,,,,,,,,,,,,,,,,,,,,,,,,,,,,,,,,,,,,,,,,,,,,,,,,,,,,,,,,,,,,,,,,,,,,,,,,,,,,,,,,,,,,,,,,,
,,659c265857dc159282edf1c4,2024-02-22_04h12.52.819,kallum_motion_pilot,2023.2.2,Win32,142.8571429,659c265857dc159282edf1c4,65d6bb0e977760de756971f7,65d6c9a1804293d44dba0b15,0.0219,0.0219,0,104,104,51,1,twofour,,,,,,,,,,,,,,,,,,,,,,,,,,,,,,,,,,,,,,,,,,,,,,,,,,,,,,,,,,,,,,,,,,,,,,,,,,,,,,,,,,,,,,,,,,,,,,,,,,,,,,,,,,,,,,,,,,,,,,,,,,,,,,,,,,,,,,,,,
,,659c265857dc159282edf1c4,2024-02-22_04h12.52.819,kallum_motion_pilot,2023.2.2,Win32,142.8571429,659c265857dc159282edf1c4,65d6bb0e977760de756971f7,65d6c9a1804293d44dba0b15,0.022,0.0221,0,105,105,90,1,sixfive,,,,,,,,,,,,,,,,,,,,,,,,,,,,,,,,,,,,,,,,,,,,,,,,,,,,,,,,,,,,,,,,,,,,,,,,,,,,,,,,,,,,,,,,,,,,,,,,,,,,,,,,,,,,,,,,,,,,,,,,,,,,,,,,,,,,,,,,,
,,659c265857dc159282edf1c4,2024-02-22_04h12.52.819,kallum_motion_pilot,2023.2.2,Win32,142.8571429,659c265857dc159282edf1c4,65d6bb0e977760de756971f7,65d6c9a1804293d44dba0b15,0.0221,0.0221,0,106,106,125,1,seveneight,,,,,,,,,,,,,,,,,,,,,,,,,,,,,,,,,,,,,,,,,,,,,,,,,,,,,,,,,,,,,,,,,,,,,,,,,,,,,,,,,,,,,,,,,,,,,,,,,,,,,,,,,,,,,,,,,,,,,,,,,,,,,,,,,,,,,,,,,
,,659c265857dc159282edf1c4,2024-02-22_04h12.52.819,kallum_motion_pilot,2023.2.2,Win32,142.8571429,659c265857dc159282edf1c4,65d6bb0e977760de756971f7,65d6c9a1804293d44dba0b15,0.0221,0.0222,0,107,107,127,1,eightseven,,,,,,,,,,,,,,,,,,,,,,,,,,,,,,,,,,,,,,,,,,,,,,,,,,,,,,,,,,,,,,,,,,,,,,,,,,,,,,,,,,,,,,,,,,,,,,,,,,,,,,,,,,,,,,,,,,,,,,,,,,,,,,,,,,,,,,,,,
,,659c265857dc159282edf1c4,2024-02-22_04h12.52.819,kallum_motion_pilot,2023.2.2,Win32,142.8571429,659c265857dc159282edf1c4,65d6bb0e977760de756971f7,65d6c9a1804293d44dba0b15,0.0222,0.0222,0,108,108,107,1,sixeight,,,,,,,,,,,,,,,,,,,,,,,,,,,,,,,,,,,,,,,,,,,,,,,,,,,,,,,,,,,,,,,,,,,,,,,,,,,,,,,,,,,,,,,,,,,,,,,,,,,,,,,,,,,,,,,,,,,,,,,,,,,,,,,,,,,,,,,,,
,,659c265857dc159282edf1c4,2024-02-22_04h12.52.819,kallum_motion_pilot,2023.2.2,Win32,142.8571429,659c265857dc159282edf1c4,65d6bb0e977760de756971f7,65d6c9a1804293d44dba0b15,0.0223,0.0223,0,109,109,5,1,threefour,,,,,,,,,,,,,,,,,,,,,,,,,,,,,,,,,,,,,,,,,,,,,,,,,,,,,,,,,,,,,,,,,,,,,,,,,,,,,,,,,,,,,,,,,,,,,,,,,,,,,,,,,,,,,,,,,,,,,,,,,,,,,,,,,,,,,,,,,
,,659c265857dc159282edf1c4,2024-02-22_04h12.52.819,kallum_motion_pilot,2023.2.2,Win32,142.8571429,659c265857dc159282edf1c4,65d6bb0e977760de756971f7,65d6c9a1804293d44dba0b15,0.0224,0.0224,0,110,110,86,1,eightsix,,,,,,,,,,,,,,,,,,,,,,,,,,,,,,,,,,,,,,,,,,,,,,,,,,,,,,,,,,,,,,,,,,,,,,,,,,,,,,,,,,,,,,,,,,,,,,,,,,,,,,,,,,,,,,,,,,,,,,,,,,,,,,,,,,,,,,,,,
,,659c265857dc159282edf1c4,2024-02-22_04h12.52.819,kallum_motion_pilot,2023.2.2,Win32,142.8571429,659c265857dc159282edf1c4,65d6bb0e977760de756971f7,65d6c9a1804293d44dba0b15,0.0225,0.0225,0,111,111,122,1,sixfive,,,,,,,,,,,,,,,,,,,,,,,,,,,,,,,,,,,,,,,,,,,,,,,,,,,,,,,,,,,,,,,,,,,,,,,,,,,,,,,,,,,,,,,,,,,,,,,,,,,,,,,,,,,,,,,,,,,,,,,,,,,,,,,,,,,,,,,,,
,,659c265857dc159282edf1c4,2024-02-22_04h12.52.819,kallum_motion_pilot,2023.2.2,Win32,142.8571429,659c265857dc159282edf1c4,65d6bb0e977760de756971f7,65d6c9a1804293d44dba0b15,0.0225,0.0225,0,112,112,142,1,eightsix,,,,,,,,,,,,,,,,,,,,,,,,,,,,,,,,,,,,,,,,,,,,,,,,,,,,,,,,,,,,,,,,,,,,,,,,,,,,,,,,,,,,,,,,,,,,,,,,,,,,,,,,,,,,,,,,,,,,,,,,,,,,,,,,,,,,,,,,,
,,659c265857dc159282edf1c4,2024-02-22_04h12.52.819,kallum_motion_pilot,2023.2.2,Win32,142.8571429,659c265857dc159282edf1c4,65d6bb0e977760de756971f7,65d6c9a1804293d44dba0b15,0.0226,0.0226,0,113,113,156,1,sevenfive,,,,,,,,,,,,,,,,,,,,,,,,,,,,,,,,,,,,,,,,,,,,,,,,,,,,,,,,,,,,,,,,,,,,,,,,,,,,,,,,,,,,,,,,,,,,,,,,,,,,,,,,,,,,,,,,,,,,,,,,,,,,,,,,,,,,,,,,,
,,659c265857dc159282edf1c4,2024-02-22_04h12.52.819,kallum_motion_pilot,2023.2.2,Win32,142.8571429,659c265857dc159282edf1c4,65d6bb0e977760de756971f7,65d6c9a1804293d44dba0b15,0.0227,0.0227,0,114,114,126,1,eightsix,,,,,,,,,,,,,,,,,,,,,,,,,,,,,,,,,,,,,,,,,,,,,,,,,,,,,,,,,,,,,,,,,,,,,,,,,,,,,,,,,,,,,,,,,,,,,,,,,,,,,,,,,,,,,,,,,,,,,,,,,,,,,,,,,,,,,,,,,
,,659c265857dc159282edf1c4,2024-02-22_04h12.52.819,kallum_motion_pilot,2023.2.2,Win32,142.8571429,659c265857dc159282edf1c4,65d6bb0e977760de756971f7,65d6c9a1804293d44dba0b15,0.0227,0.0228,0,115,115,78,1,fourtwo,,,,,,,,,,,,,,,,,,,,,,,,,,,,,,,,,,,,,,,,,,,,,,,,,,,,,,,,,,,,,,,,,,,,,,,,,,,,,,,,,,,,,,,,,,,,,,,,,,,,,,,,,,,,,,,,,,,,,,,,,,,,,,,,,,,,,,,,,
,,659c265857dc159282edf1c4,2024-02-22_04h12.52.819,kallum_motion_pilot,2023.2.2,Win32,142.8571429,659c265857dc159282edf1c4,65d6bb0e977760de756971f7,65d6c9a1804293d44dba0b15,0.0228,0.0229,0,116,116,149,1,seveneight,,,,,,,,,,,,,,,,,,,,,,,,,,,,,,,,,,,,,,,,,,,,,,,,,,,,,,,,,,,,,,,,,,,,,,,,,,,,,,,,,,,,,,,,,,,,,,,,,,,,,,,,,,,,,,,,,,,,,,,,,,,,,,,,,,,,,,,,,
,,659c265857dc159282edf1c4,2024-02-22_04h12.52.819,kallum_motion_pilot,2023.2.2,Win32,142.8571429,659c265857dc159282edf1c4,65d6bb0e977760de756971f7,65d6c9a1804293d44dba0b15,0.0229,0.0229,0,117,117,114,1,sixfive,,,,,,,,,,,,,,,,,,,,,,,,,,,,,,,,,,,,,,,,,,,,,,,,,,,,,,,,,,,,,,,,,,,,,,,,,,,,,,,,,,,,,,,,,,,,,,,,,,,,,,,,,,,,,,,,,,,,,,,,,,,,,,,,,,,,,,,,,
,,659c265857dc159282edf1c4,2024-02-22_04h12.52.819,kallum_motion_pilot,2023.2.2,Win32,142.8571429,659c265857dc159282edf1c4,65d6bb0e977760de756971f7,65d6c9a1804293d44dba0b15,0.023,0.023,0,118,118,98,1,sixfive,,,,,,,,,,,,,,,,,,,,,,,,,,,,,,,,,,,,,,,,,,,,,,,,,,,,,,,,,,,,,,,,,,,,,,,,,,,,,,,,,,,,,,,,,,,,,,,,,,,,,,,,,,,,,,,,,,,,,,,,,,,,,,,,,,,,,,,,,
,,659c265857dc159282edf1c4,2024-02-22_04h12.52.819,kallum_motion_pilot,2023.2.2,Win32,142.8571429,659c265857dc159282edf1c4,65d6bb0e977760de756971f7,65d6c9a1804293d44dba0b15,0.023,0.0231,0,119,119,12,1,threeone,,,,,,,,,,,,,,,,,,,,,,,,,,,,,,,,,,,,,,,,,,,,,,,,,,,,,,,,,,,,,,,,,,,,,,,,,,,,,,,,,,,,,,,,,,,,,,,,,,,,,,,,,,,,,,,,,,,,,,,,,,,,,,,,,,,,,,,,,
,,659c265857dc159282edf1c4,2024-02-22_04h12.52.819,kallum_motion_pilot,2023.2.2,Win32,142.8571429,659c265857dc159282edf1c4,65d6bb0e977760de756971f7,65d6c9a1804293d44dba0b15,0.0231,0.0231,0,120,120,116,1,sevenfive,,,,,,,,,,,,,,,,,,,,,,,,,,,,,,,,,,,,,,,,,,,,,,,,,,,,,,,,,,,,,,,,,,,,,,,,,,,,,,,,,,,,,,,,,,,,,,,,,,,,,,,,,,,,,,,,,,,,,,,,,,,,,,,,,,,,,,,,,
,,659c265857dc159282edf1c4,2024-02-22_04h12.52.819,kallum_motion_pilot,2023.2.2,Win32,142.8571429,659c265857dc159282edf1c4,65d6bb0e977760de756971f7,65d6c9a1804293d44dba0b15,0.0232,0.0232,0,121,121,9,1,onethree,,,,,,,,,,,,,,,,,,,,,,,,,,,,,,,,,,,,,,,,,,,,,,,,,,,,,,,,,,,,,,,,,,,,,,,,,,,,,,,,,,,,,,,,,,,,,,,,,,,,,,,,,,,,,,,,,,,,,,,,,,,,,,,,,,,,,,,,,
,,659c265857dc159282edf1c4,2024-02-22_04h12.52.819,kallum_motion_pilot,2023.2.2,Win32,142.8571429,659c265857dc159282edf1c4,65d6bb0e977760de756971f7,65d6c9a1804293d44dba0b15,0.0232,0.0232,0,122,122,119,1,eightseven,,,,,,,,,,,,,,,,,,,,,,,,,,,,,,,,,,,,,,,,,,,,,,,,,,,,,,,,,,,,,,,,,,,,,,,,,,,,,,,,,,,,,,,,,,,,,,,,,,,,,,,,,,,,,,,,,,,,,,,,,,,,,,,,,,,,,,,,,
,,659c265857dc159282edf1c4,2024-02-22_04h12.52.819,kallum_motion_pilot,2023.2.2,Win32,142.8571429,659c265857dc159282edf1c4,65d6bb0e977760de756971f7,65d6c9a1804293d44dba0b15,0.0233,0.0233,0,123,123,97,1,fiveseven,,,,,,,,,,,,,,,,,,,,,,,,,,,,,,,,,,,,,,,,,,,,,,,,,,,,,,,,,,,,,,,,,,,,,,,,,,,,,,,,,,,,,,,,,,,,,,,,,,,,,,,,,,,,,,,,,,,,,,,,,,,,,,,,,,,,,,,,,
,,659c265857dc159282edf1c4,2024-02-22_04h12.52.819,kallum_motion_pilot,2023.2.2,Win32,142.8571429,659c265857dc159282edf1c4,65d6bb0e977760de756971f7,65d6c9a1804293d44dba0b15,0.0233,0.0234,0,124,124,27,1,twofour,,,,,,,,,,,,,,,,,,,,,,,,,,,,,,,,,,,,,,,,,,,,,,,,,,,,,,,,,,,,,,,,,,,,,,,,,,,,,,,,,,,,,,,,,,,,,,,,,,,,,,,,,,,,,,,,,,,,,,,,,,,,,,,,,,,,,,,,,
,,659c265857dc159282edf1c4,2024-02-22_04h12.52.819,kallum_motion_pilot,2023.2.2,Win32,142.8571429,659c265857dc159282edf1c4,65d6bb0e977760de756971f7,65d6c9a1804293d44dba0b15,0.0234,0.0234,0,125,125,111,1,eightseven,,,,,,,,,,,,,,,,,,,,,,,,,,,,,,,,,,,,,,,,,,,,,,,,,,,,,,,,,,,,,,,,,,,,,,,,,,,,,,,,,,,,,,,,,,,,,,,,,,,,,,,,,,,,,,,,,,,,,,,,,,,,,,,,,,,,,,,,,
,,659c265857dc159282edf1c4,2024-02-22_04h12.52.819,kallum_motion_pilot,2023.2.2,Win32,142.8571429,659c265857dc159282edf1c4,65d6bb0e977760de756971f7,65d6c9a1804293d44dba0b15,0.0235,0.0235,0,126,126,15,1,fourthree,,,,,,,,,,,,,,,,,,,,,,,,,,,,,,,,,,,,,,,,,,,,,,,,,,,,,,,,,,,,,,,,,,,,,,,,,,,,,,,,,,,,,,,,,,,,,,,,,,,,,,,,,,,,,,,,,,,,,,,,,,,,,,,,,,,,,,,,,
,,659c265857dc159282edf1c4,2024-02-22_04h12.52.819,kallum_motion_pilot,2023.2.2,Win32,142.8571429,659c265857dc159282edf1c4,65d6bb0e977760de756971f7,65d6c9a1804293d44dba0b15,0.0236,0.0236,0,127,127,22,1,fourtwo,,,,,,,,,,,,,,,,,,,,,,,,,,,,,,,,,,,,,,,,,,,,,,,,,,,,,,,,,,,,,,,,,,,,,,,,,,,,,,,,,,,,,,,,,,,,,,,,,,,,,,,,,,,,,,,,,,,,,,,,,,,,,,,,,,,,,,,,,
,,659c265857dc159282edf1c4,2024-02-22_04h12.52.819,kallum_motion_pilot,2023.2.2,Win32,142.8571429,659c265857dc159282edf1c4,65d6bb0e977760de756971f7,65d6c9a1804293d44dba0b15,0.0237,0.0237,0,128,128,144,1,fivesix,,,,,,,,,,,,,,,,,,,,,,,,,,,,,,,,,,,,,,,,,,,,,,,,,,,,,,,,,,,,,,,,,,,,,,,,,,,,,,,,,,,,,,,,,,,,,,,,,,,,,,,,,,,,,,,,,,,,,,,,,,,,,,,,,,,,,,,,,
,,659c265857dc159282edf1c4,2024-02-22_04h12.52.819,kallum_motion_pilot,2023.2.2,Win32,142.8571429,659c265857dc159282edf1c4,65d6bb0e977760de756971f7,65d6c9a1804293d44dba0b15,0.0237,0.0238,0,129,129,77,1,threefour,,,,,,,,,,,,,,,,,,,,,,,,,,,,,,,,,,,,,,,,,,,,,,,,,,,,,,,,,,,,,,,,,,,,,,,,,,,,,,,,,,,,,,,,,,,,,,,,,,,,,,,,,,,,,,,,,,,,,,,,,,,,,,,,,,,,,,,,,
,,659c265857dc159282edf1c4,2024-02-22_04h12.52.819,kallum_motion_pilot,2023.2.2,Win32,142.8571429,659c265857dc159282edf1c4,65d6bb0e977760de756971f7,65d6c9a1804293d44dba0b15,0.0239,0.0239,0,130,130,1,1,onethree,,,,,,,,,,,,,,,,,,,,,,,,,,,,,,,,,,,,,,,,,,,,,,,,,,,,,,,,,,,,,,,,,,,,,,,,,,,,,,,,,,,,,,,,,,,,,,,,,,,,,,,,,,,,,,,,,,,,,,,,,,,,,,,,,,,,,,,,,
,,659c265857dc159282edf1c4,2024-02-22_04h12.52.819,kallum_motion_pilot,2023.2.2,Win32,142.8571429,659c265857dc159282edf1c4,65d6bb0e977760de756971f7,65d6c9a1804293d44dba0b15,0.024,0.024,0,131,131,123,1,sixeight,,,,,,,,,,,,,,,,,,,,,,,,,,,,,,,,,,,,,,,,,,,,,,,,,,,,,,,,,,,,,,,,,,,,,,,,,,,,,,,,,,,,,,,,,,,,,,,,,,,,,,,,,,,,,,,,,,,,,,,,,,,,,,,,,,,,,,,,,
,,659c265857dc159282edf1c4,2024-02-22_04h12.52.819,kallum_motion_pilot,2023.2.2,Win32,142.8571429,659c265857dc159282edf1c4,65d6bb0e977760de756971f7,65d6c9a1804293d44dba0b15,0.024,0.024,0,132,132,56,1,onetwo,,,,,,,,,,,,,,,,,,,,,,,,,,,,,,,,,,,,,,,,,,,,,,,,,,,,,,,,,,,,,,,,,,,,,,,,,,,,,,,,,,,,,,,,,,,,,,,,,,,,,,,,,,,,,,,,,,,,,,,,,,,,,,,,,,,,,,,,,
,,659c265857dc159282edf1c4,2024-02-22_04h12.52.819,kallum_motion_pilot,2023.2.2,Win32,142.8571429,659c265857dc159282edf1c4,65d6bb0e977760de756971f7,65d6c9a1804293d44dba0b15,0.024,0.024,0,133,133,120,1,fivesix,,,,,,,,,,,,,,,,,,,,,,,,,,,,,,,,,,,,,,,,,,,,,,,,,,,,,,,,,,,,,,,,,,,,,,,,,,,,,,,,,,,,,,,,,,,,,,,,,,,,,,,,,,,,,,,,,,,,,,,,,,,,,,,,,,,,,,,,,
,,659c265857dc159282edf1c4,2024-02-22_04h12.52.819,kallum_motion_pilot,2023.2.2,Win32,142.8571429,659c265857dc159282edf1c4,65d6bb0e977760de756971f7,65d6c9a1804293d44dba0b15,0.0241,0.0242,0,134,134,31,1,fourthree,,,,,,,,,,,,,,,,,,,,,,,,,,,,,,,,,,,,,,,,,,,,,,,,,,,,,,,,,,,,,,,,,,,,,,,,,,,,,,,,,,,,,,,,,,,,,,,,,,,,,,,,,,,,,,,,,,,,,,,,,,,,,,,,,,,,,,,,,
,,659c265857dc159282edf1c4,2024-02-22_04h12.52.819,kallum_motion_pilot,2023.2.2,Win32,142.8571429,659c265857dc159282edf1c4,65d6bb0e977760de756971f7,65d6c9a1804293d44dba0b15,0.0242,0.0242,0,135,135,145,1,fiveseven,,,,,,,,,,,,,,,,,,,,,,,,,,,,,,,,,,,,,,,,,,,,,,,,,,,,,,,,,,,,,,,,,,,,,,,,,,,,,,,,,,,,,,,,,,,,,,,,,,,,,,,,,,,,,,,,,,,,,,,,,,,,,,,,,,,,,,,,,
,,659c265857dc159282edf1c4,2024-02-22_04h12.52.819,kallum_motion_pilot,2023.2.2,Win32,142.8571429,659c265857dc159282edf1c4,65d6bb0e977760de756971f7,65d6c9a1804293d44dba0b15,0.0242,0.0243,0,136,136,148,1,sevenfive,,,,,,,,,,,,,,,,,,,,,,,,,,,,,,,,,,,,,,,,,,,,,,,,,,,,,,,,,,,,,,,,,,,,,,,,,,,,,,,,,,,,,,,,,,,,,,,,,,,,,,,,,,,,,,,,,,,,,,,,,,,,,,,,,,,,,,,,,
,,659c265857dc159282edf1c4,2024-02-22_04h12.52.819,kallum_motion_pilot,2023.2.2,Win32,142.8571429,659c265857dc159282edf1c4,65d6bb0e977760de756971f7,65d6c9a1804293d44dba0b15,0.0244,0.0244,0,137,137,133,1,seveneight,,,,,,,,,,,,,,,,,,,,,,,,,,,,,,,,,,,,,,,,,,,,,,,,,,,,,,,,,,,,,,,,,,,,,,,,,,,,,,,,,,,,,,,,,,,,,,,,,,,,,,,,,,,,,,,,,,,,,,,,,,,,,,,,,,,,,,,,,
,,659c265857dc159282edf1c4,2024-02-22_04h12.52.819,kallum_motion_pilot,2023.2.2,Win32,142.8571429,659c265857dc159282edf1c4,65d6bb0e977760de756971f7,65d6c9a1804293d44dba0b15,0.0244,0.0245,0,138,138,70,1,fourtwo,,,,,,,,,,,,,,,,,,,,,,,,,,,,,,,,,,,,,,,,,,,,,,,,,,,,,,,,,,,,,,,,,,,,,,,,,,,,,,,,,,,,,,,,,,,,,,,,,,,,,,,,,,,,,,,,,,,,,,,,,,,,,,,,,,,,,,,,,
,,659c265857dc159282edf1c4,2024-02-22_04h12.52.819,kallum_motion_pilot,2023.2.2,Win32,142.8571429,659c265857dc159282edf1c4,65d6bb0e977760de756971f7,65d6c9a1804293d44dba0b15,0.0245,0.0245,0,139,139,7,1,fourthree,,,,,,,,,,,,,,,,,,,,,,,,,,,,,,,,,,,,,,,,,,,,,,,,,,,,,,,,,,,,,,,,,,,,,,,,,,,,,,,,,,,,,,,,,,,,,,,,,,,,,,,,,,,,,,,,,,,,,,,,,,,,,,,,,,,,,,,,,
,,659c265857dc159282edf1c4,2024-02-22_04h12.52.819,kallum_motion_pilot,2023.2.2,Win32,142.8571429,659c265857dc159282edf1c4,65d6bb0e977760de756971f7,65d6c9a1804293d44dba0b15,0.0246,0.0246,0,140,140,29,1,threefour,,,,,,,,,,,,,,,,,,,,,,,,,,,,,,,,,,,,,,,,,,,,,,,,,,,,,,,,,,,,,,,,,,,,,,,,,,,,,,,,,,,,,,,,,,,,,,,,,,,,,,,,,,,,,,,,,,,,,,,,,,,,,,,,,,,,,,,,,
,,659c265857dc159282edf1c4,2024-02-22_04h12.52.819,kallum_motion_pilot,2023.2.2,Win32,142.8571429,659c265857dc159282edf1c4,65d6bb0e977760de756971f7,65d6c9a1804293d44dba0b15,0.0247,0.0247,0,141,141,61,1,threefour,,,,,,,,,,,,,,,,,,,,,,,,,,,,,,,,,,,,,,,,,,,,,,,,,,,,,,,,,,,,,,,,,,,,,,,,,,,,,,,,,,,,,,,,,,,,,,,,,,,,,,,,,,,,,,,,,,,,,,,,,,,,,,,,,,,,,,,,,
,,659c265857dc159282edf1c4,2024-02-22_04h12.52.819,kallum_motion_pilot,2023.2.2,Win32,142.8571429,659c265857dc159282edf1c4,65d6bb0e977760de756971f7,65d6c9a1804293d44dba0b15,0.0247,0.0248,0,142,142,72,1,onetwo,,,,,,,,,,,,,,,,,,,,,,,,,,,,,,,,,,,,,,,,,,,,,,,,,,,,,,,,,,,,,,,,,,,,,,,,,,,,,,,,,,,,,,,,,,,,,,,,,,,,,,,,,,,,,,,,,,,,,,,,,,,,,,,,,,,,,,,,,
,,659c265857dc159282edf1c4,2024-02-22_04h12.52.819,kallum_motion_pilot,2023.2.2,Win32,142.8571429,659c265857dc159282edf1c4,65d6bb0e977760de756971f7,65d6c9a1804293d44dba0b15,0.0248,0.0249,0,143,143,159,1,eightseven,,,,,,,,,,,,,,,,,,,,,,,,,,,,,,,,,,,,,,,,,,,,,,,,,,,,,,,,,,,,,,,,,,,,,,,,,,,,,,,,,,,,,,,,,,,,,,,,,,,,,,,,,,,,,,,,,,,,,,,,,,,,,,,,,,,,,,,,,
,,659c265857dc159282edf1c4,2024-02-22_04h12.52.819,kallum_motion_pilot,2023.2.2,Win32,142.8571429,659c265857dc159282edf1c4,65d6bb0e977760de756971f7,65d6c9a1804293d44dba0b15,0.0249,0.0249,0,144,144,131,1,sixeight,,,,,,,,,,,,,,,,,,,,,,,,,,,,,,,,,,,,,,,,,,,,,,,,,,,,,,,,,,,,,,,,,,,,,,,,,,,,,,,,,,,,,,,,,,,,,,,,,,,,,,,,,,,,,,,,,,,,,,,,,,,,,,,,,,,,,,,,,
,,659c265857dc159282edf1c4,2024-02-22_04h12.52.819,kallum_motion_pilot,2023.2.2,Win32,142.8571429,659c265857dc159282edf1c4,65d6bb0e977760de756971f7,65d6c9a1804293d44dba0b15,0.0249,0.025,0,145,145,0,1,onetwo,,,,,,,,,,,,,,,,,,,,,,,,,,,,,,,,,,,,,,,,,,,,,,,,,,,,,,,,,,,,,,,,,,,,,,,,,,,,,,,,,,,,,,,,,,,,,,,,,,,,,,,,,,,,,,,,,,,,,,,,,,,,,,,,,,,,,,,,,
,,659c265857dc159282edf1c4,2024-02-22_04h12.52.819,kallum_motion_pilot,2023.2.2,Win32,142.8571429,659c265857dc159282edf1c4,65d6bb0e977760de756971f7,65d6c9a1804293d44dba0b15,0.025,0.0251,0,146,146,62,1,fourtwo,,,,,,,,,,,,,,,,,,,,,,,,,,,,,,,,,,,,,,,,,,,,,,,,,,,,,,,,,,,,,,,,,,,,,,,,,,,,,,,,,,,,,,,,,,,,,,,,,,,,,,,,,,,,,,,,,,,,,,,,,,,,,,,,,,,,,,,,,
,,659c265857dc159282edf1c4,2024-02-22_04h12.52.819,kallum_motion_pilot,2023.2.2,Win32,142.8571429,659c265857dc159282edf1c4,65d6bb0e977760de756971f7,65d6c9a1804293d44dba0b15,0.0251,0.0251,0,147,147,8,1,onetwo,,,,,,,,,,,,,,,,,,,,,,,,,,,,,,,,,,,,,,,,,,,,,,,,,,,,,,,,,,,,,,,,,,,,,,,,,,,,,,,,,,,,,,,,,,,,,,,,,,,,,,,,,,,,,,,,,,,,,,,,,,,,,,,,,,,,,,,,,
,,659c265857dc159282edf1c4,2024-02-22_04h12.52.819,kallum_motion_pilot,2023.2.2,Win32,142.8571429,659c265857dc159282edf1c4,65d6bb0e977760de756971f7,65d6c9a1804293d44dba0b15,0.0252,0.0252,0,148,148,55,1,fourthree,,,,,,,,,,,,,,,,,,,,,,,,,,,,,,,,,,,,,,,,,,,,,,,,,,,,,,,,,,,,,,,,,,,,,,,,,,,,,,,,,,,,,,,,,,,,,,,,,,,,,,,,,,,,,,,,,,,,,,,,,,,,,,,,,,,,,,,,,
,,659c265857dc159282edf1c4,2024-02-22_04h12.52.819,kallum_motion_pilot,2023.2.2,Win32,142.8571429,659c265857dc159282edf1c4,65d6bb0e977760de756971f7,65d6c9a1804293d44dba0b15,0.0253,0.0253,0,149,149,68,1,threeone,,,,,,,,,,,,,,,,,,,,,,,,,,,,,,,,,,,,,,,,,,,,,,,,,,,,,,,,,,,,,,,,,,,,,,,,,,,,,,,,,,,,,,,,,,,,,,,,,,,,,,,,,,,,,,,,,,,,,,,,,,,,,,,,,,,,,,,,,
,,659c265857dc159282edf1c4,2024-02-22_04h12.52.819,kallum_motion_pilot,2023.2.2,Win32,142.8571429,659c265857dc159282edf1c4,65d6bb0e977760de756971f7,65d6c9a1804293d44dba0b15,0.0254,0.0254,0,150,150,117,1,seveneight,,,,,,,,,,,,,,,,,,,,,,,,,,,,,,,,,,,,,,,,,,,,,,,,,,,,,,,,,,,,,,,,,,,,,,,,,,,,,,,,,,,,,,,,,,,,,,,,,,,,,,,,,,,,,,,,,,,,,,,,,,,,,,,,,,,,,,,,,
,,659c265857dc159282edf1c4,2024-02-22_04h12.52.819,kallum_motion_pilot,2023.2.2,Win32,142.8571429,659c265857dc159282edf1c4,65d6bb0e977760de756971f7,65d6c9a1804293d44dba0b15,0.0255,0.0255,0,151,151,45,1,threefour,,,,,,,,,,,,,,,,,,,,,,,,,,,,,,,,,,,,,,,,,,,,,,,,,,,,,,,,,,,,,,,,,,,,,,,,,,,,,,,,,,,,,,,,,,,,,,,,,,,,,,,,,,,,,,,,,,,,,,,,,,,,,,,,,,,,,,,,,
,,659c265857dc159282edf1c4,2024-02-22_04h12.52.819,kallum_motion_pilot,2023.2.2,Win32,142.8571429,659c265857dc159282edf1c4,65d6bb0e977760de756971f7,65d6c9a1804293d44dba0b15,0.0255,0.0255,0,152,152,11,1,twofour,,,,,,,,,,,,,,,,,,,,,,,,,,,,,,,,,,,,,,,,,,,,,,,,,,,,,,,,,,,,,,,,,,,,,,,,,,,,,,,,,,,,,,,,,,,,,,,,,,,,,,,,,,,,,,,,,,,,,,,,,,,,,,,,,,,,,,,,,
,,659c265857dc159282edf1c4,2024-02-22_04h12.52.819,kallum_motion_pilot,2023.2.2,Win32,142.8571429,659c265857dc159282edf1c4,65d6bb0e977760de756971f7,65d6c9a1804293d44dba0b15,0.0255,0.0256,0,153,153,154,1,sixfive,,,,,,,,,,,,,,,,,,,,,,,,,,,,,,,,,,,,,,,,,,,,,,,,,,,,,,,,,,,,,,,,,,,,,,,,,,,,,,,,,,,,,,,,,,,,,,,,,,,,,,,,,,,,,,,,,,,,,,,,,,,,,,,,,,,,,,,,,
,,659c265857dc159282edf1c4,2024-02-22_04h12.52.819,kallum_motion_pilot,2023.2.2,Win32,142.8571429,659c265857dc159282edf1c4,65d6bb0e977760de756971f7,65d6c9a1804293d44dba0b15,0.0257,0.0257,0,154,154,143,1,eightseven,,,,,,,,,,,,,,,,,,,,,,,,,,,,,,,,,,,,,,,,,,,,,,,,,,,,,,,,,,,,,,,,,,,,,,,,,,,,,,,,,,,,,,,,,,,,,,,,,,,,,,,,,,,,,,,,,,,,,,,,,,,,,,,,,,,,,,,,,
,,659c265857dc159282edf1c4,2024-02-22_04h12.52.819,kallum_motion_pilot,2023.2.2,Win32,142.8571429,659c265857dc159282edf1c4,65d6bb0e977760de756971f7,65d6c9a1804293d44dba0b15,0.0257,0.0257,0,155,155,81,1,fiveseven,,,,,,,,,,,,,,,,,,,,,,,,,,,,,,,,,,,,,,,,,,,,,,,,,,,,,,,,,,,,,,,,,,,,,,,,,,,,,,,,,,,,,,,,,,,,,,,,,,,,,,,,,,,,,,,,,,,,,,,,,,,,,,,,,,,,,,,,,
,,659c265857dc159282edf1c4,2024-02-22_04h12.52.819,kallum_motion_pilot,2023.2.2,Win32,142.8571429,659c265857dc159282edf1c4,65d6bb0e977760de756971f7,65d6c9a1804293d44dba0b15,0.0258,0.0258,0,156,156,24,1,onetwo,,,,,,,,,,,,,,,,,,,,,,,,,,,,,,,,,,,,,,,,,,,,,,,,,,,,,,,,,,,,,,,,,,,,,,,,,,,,,,,,,,,,,,,,,,,,,,,,,,,,,,,,,,,,,,,,,,,,,,,,,,,,,,,,,,,,,,,,,
,,659c265857dc159282edf1c4,2024-02-22_04h12.52.819,kallum_motion_pilot,2023.2.2,Win32,142.8571429,659c265857dc159282edf1c4,65d6bb0e977760de756971f7,65d6c9a1804293d44dba0b15,0.0259,0.0259,0,157,157,30,1,fourtwo,,,,,,,,,,,,,,,,,,,,,,,,,,,,,,,,,,,,,,,,,,,,,,,,,,,,,,,,,,,,,,,,,,,,,,,,,,,,,,,,,,,,,,,,,,,,,,,,,,,,,,,,,,,,,,,,,,,,,,,,,,,,,,,,,,,,,,,,,
,,659c265857dc159282edf1c4,2024-02-22_04h12.52.819,kallum_motion_pilot,2023.2.2,Win32,142.8571429,659c265857dc159282edf1c4,65d6bb0e977760de756971f7,65d6c9a1804293d44dba0b15,0.0259,0.026,0,158,158,130,1,sixfive,,,,,,,,,,,,,,,,,,,,,,,,,,,,,,,,,,,,,,,,,,,,,,,,,,,,,,,,,,,,,,,,,,,,,,,,,,,,,,,,,,,,,,,,,,,,,,,,,,,,,,,,,,,,,,,,,,,,,,,,,,,,,,,,,,,,,,,,,
,,659c265857dc159282edf1c4,2024-02-22_04h12.52.819,kallum_motion_pilot,2023.2.2,Win32,142.8571429,659c265857dc159282edf1c4,65d6bb0e977760de756971f7,65d6c9a1804293d44dba0b15,0.026,0.0261,0,159,159,28,1,threeone,,,,,,,,,,,,,,,,,,,,,,,,,,,,,,,,,,,,,,,,,,,,,,,,,,,,,,,,,,,,,,,,,,,,,,,,,,,,,,,,,,,,,,,,,,,,,,,,,,,,,,,,,,,,,,,,,,,,,,,,,,,,,,,,,,,,,,,,,
,,659c265857dc159282edf1c4,2024-02-22_04h12.52.819,kallum_motion_pilot,2023.2.2,Win32,142.8571429,659c265857dc159282edf1c4,65d6bb0e977760de756971f7,65d6c9a1804293d44dba0b15,0.0261,0.0262,0,160,160,79,1,eightseven,,,,,,,,,,,,,,,,,,,,,,,,,,,,,,,,,,,,,,,,,,,,,,,,,,,,,,,,,,,,,,,,,,,,,,,,,,,,,,,,,,,,,,,,,,,,,,,,,,,,,,,,,,,,,,,,,,,,,,,,,,,,,,,,,,,,,,,,,
,,659c265857dc159282edf1c4,2024-02-22_04h12.52.819,kallum_motion_pilot,2023.2.2,Win32,142.8571429,659c265857dc159282edf1c4,65d6bb0e977760de756971f7,65d6c9a1804293d44dba0b15,0.0262,0.0262,0,161,161,48,1,onetwo,,,,,,,,,,,,,,,,,,,,,,,,,,,,,,,,,,,,,,,,,,,,,,,,,,,,,,,,,,,,,,,,,,,,,,,,,,,,,,,,,,,,,,,,,,,,,,,,,,,,,,,,,,,,,,,,,,,,,,,,,,,,,,,,,,,,,,,,,
,,659c265857dc159282edf1c4,2024-02-22_04h12.52.819,kallum_motion_pilot,2023.2.2,Win32,142.8571429,659c265857dc159282edf1c4,65d6bb0e977760de756971f7,65d6c9a1804293d44dba0b15,0.0263,0.0264,1,0,162,33,1,onethree,,,,,,,,,,,,,,,,,,,,,,,,,,,,,,,,,,,,,,,,,,,,,,,,,,,,,,,,,,,,,,,,,,,,,,,,,,,,,,,,,,,,,,,,,,,,,,,,,,,,,,,,,,,,,,,,,,,,,,,,,,,,,,,,,,,,,,,,,
,,659c265857dc159282edf1c4,2024-02-22_04h12.52.819,kallum_motion_pilot,2023.2.2,Win32,142.8571429,659c265857dc159282edf1c4,65d6bb0e977760de756971f7,65d6c9a1804293d44dba0b15,0.0264,0.0264,1,1,163,43,1,twofour,,,,,,,,,,,,,,,,,,,,,,,,,,,,,,,,,,,,,,,,,,,,,,,,,,,,,,,,,,,,,,,,,,,,,,,,,,,,,,,,,,,,,,,,,,,,,,,,,,,,,,,,,,,,,,,,,,,,,,,,,,,,,,,,,,,,,,,,,
,,659c265857dc159282edf1c4,2024-02-22_04h12.52.819,kallum_motion_pilot,2023.2.2,Win32,142.8571429,659c265857dc159282edf1c4,65d6bb0e977760de756971f7,65d6c9a1804293d44dba0b15,0.0264,0.0265,1,2,164,134,1,eightsix,,,,,,,,,,,,,,,,,,,,,,,,,,,,,,,,,,,,,,,,,,,,,,,,,,,,,,,,,,,,,,,,,,,,,,,,,,,,,,,,,,,,,,,,,,,,,,,,,,,,,,,,,,,,,,,,,,,,,,,,,,,,,,,,,,,,,,,,,
,,659c265857dc159282edf1c4,2024-02-22_04h12.52.819,kallum_motion_pilot,2023.2.2,Win32,142.8571429,659c265857dc159282edf1c4,65d6bb0e977760de756971f7,65d6c9a1804293d44dba0b15,0.0265,0.0265,1,3,165,11,1,twofour,,,,,,,,,,,,,,,,,,,,,,,,,,,,,,,,,,,,,,,,,,,,,,,,,,,,,,,,,,,,,,,,,,,,,,,,,,,,,,,,,,,,,,,,,,,,,,,,,,,,,,,,,,,,,,,,,,,,,,,,,,,,,,,,,,,,,,,,,
,,659c265857dc159282edf1c4,2024-02-22_04h12.52.819,kallum_motion_pilot,2023.2.2,Win32,142.8571429,659c265857dc159282edf1c4,65d6bb0e977760de756971f7,65d6c9a1804293d44dba0b15,0.0266,0.0267,1,4,166,18,1,twoone,,,,,,,,,,,,,,,,,,,,,,,,,,,,,,,,,,,,,,,,,,,,,,,,,,,,,,,,,,,,,,,,,,,,,,,,,,,,,,,,,,,,,,,,,,,,,,,,,,,,,,,,,,,,,,,,,,,,,,,,,,,,,,,,,,,,,,,,,
,,659c265857dc159282edf1c4,2024-02-22_04h12.52.819,kallum_motion_pilot,2023.2.2,Win32,142.8571429,659c265857dc159282edf1c4,65d6bb0e977760de756971f7,65d6c9a1804293d44dba0b15,0.0267,0.0267,1,5,167,8,1,onetwo,,,,,,,,,,,,,,,,,,,,,,,,,,,,,,,,,,,,,,,,,,,,,,,,,,,,,,,,,,,,,,,,,,,,,,,,,,,,,,,,,,,,,,,,,,,,,,,,,,,,,,,,,,,,,,,,,,,,,,,,,,,,,,,,,,,,,,,,,
,,659c265857dc159282edf1c4,2024-02-22_04h12.52.819,kallum_motion_pilot,2023.2.2,Win32,142.8571429,659c265857dc159282edf1c4,65d6bb0e977760de756971f7,65d6c9a1804293d44dba0b15,0.0267,0.0268,1,6,168,94,1,eightsix,,,,,,,,,,,,,,,,,,,,,,,,,,,,,,,,,,,,,,,,,,,,,,,,,,,,,,,,,,,,,,,,,,,,,,,,,,,,,,,,,,,,,,,,,,,,,,,,,,,,,,,,,,,,,,,,,,,,,,,,,,,,,,,,,,,,,,,,,
,,659c265857dc159282edf1c4,2024-02-22_04h12.52.819,kallum_motion_pilot,2023.2.2,Win32,142.8571429,659c265857dc159282edf1c4,65d6bb0e977760de756971f7,65d6c9a1804293d44dba0b15,0.0268,0.0269,1,7,169,127,1,eightseven,,,,,,,,,,,,,,,,,,,,,,,,,,,,,,,,,,,,,,,,,,,,,,,,,,,,,,,,,,,,,,,,,,,,,,,,,,,,,,,,,,,,,,,,,,,,,,,,,,,,,,,,,,,,,,,,,,,,,,,,,,,,,,,,,,,,,,,,,
,,659c265857dc159282edf1c4,2024-02-22_04h12.52.819,kallum_motion_pilot,2023.2.2,Win32,142.8571429,659c265857dc159282edf1c4,65d6bb0e977760de756971f7,65d6c9a1804293d44dba0b15,0.0269,0.0269,1,8,170,45,1,threefour,,,,,,,,,,,,,,,,,,,,,,,,,,,,,,,,,,,,,,,,,,,,,,,,,,,,,,,,,,,,,,,,,,,,,,,,,,,,,,,,,,,,,,,,,,,,,,,,,,,,,,,,,,,,,,,,,,,,,,,,,,,,,,,,,,,,,,,,,
,,659c265857dc159282edf1c4,2024-02-22_04h12.52.819,kallum_motion_pilot,2023.2.2,Win32,142.8571429,659c265857dc159282edf1c4,65d6bb0e977760de756971f7,65d6c9a1804293d44dba0b15,0.027,0.027,1,9,171,76,1,threeone,,,,,,,,,,,,,,,,,,,,,,,,,,,,,,,,,,,,,,,,,,,,,,,,,,,,,,,,,,,,,,,,,,,,,,,,,,,,,,,,,,,,,,,,,,,,,,,,,,,,,,,,,,,,,,,,,,,,,,,,,,,,,,,,,,,,,,,,,
,,659c265857dc159282edf1c4,2024-02-22_04h12.52.819,kallum_motion_pilot,2023.2.2,Win32,142.8571429,659c265857dc159282edf1c4,65d6bb0e977760de756971f7,65d6c9a1804293d44dba0b15,0.0271,0.0272,1,10,172,67,1,twofour,,,,,,,,,,,,,,,,,,,,,,,,,,,,,,,,,,,,,,,,,,,,,,,,,,,,,,,,,,,,,,,,,,,,,,,,,,,,,,,,,,,,,,,,,,,,,,,,,,,,,,,,,,,,,,,,,,,,,,,,,,,,,,,,,,,,,,,,,
,,659c265857dc159282edf1c4,2024-02-22_04h12.52.819,kallum_motion_pilot,2023.2.2,Win32,142.8571429,659c265857dc159282edf1c4,65d6bb0e977760de756971f7,65d6c9a1804293d44dba0b15,0.0272,0.0272,1,11,173,115,1,sixeight,,,,,,,,,,,,,,,,,,,,,,,,,,,,,,,,,,,,,,,,,,,,,,,,,,,,,,,,,,,,,,,,,,,,,,,,,,,,,,,,,,,,,,,,,,,,,,,,,,,,,,,,,,,,,,,,,,,,,,,,,,,,,,,,,,,,,,,,,
,,659c265857dc159282edf1c4,2024-02-22_04h12.52.819,kallum_motion_pilot,2023.2.2,Win32,142.8571429,659c265857dc159282edf1c4,65d6bb0e977760de756971f7,65d6c9a1804293d44dba0b15,0.0272,0.0273,1,12,174,98,1,sixfive,,,,,,,,,,,,,,,,,,,,,,,,,,,,,,,,,,,,,,,,,,,,,,,,,,,,,,,,,,,,,,,,,,,,,,,,,,,,,,,,,,,,,,,,,,,,,,,,,,,,,,,,,,,,,,,,,,,,,,,,,,,,,,,,,,,,,,,,,
,,659c265857dc159282edf1c4,2024-02-22_04h12.52.819,kallum_motion_pilot,2023.2.2,Win32,142.8571429,659c265857dc159282edf1c4,65d6bb0e977760de756971f7,65d6c9a1804293d44dba0b15,0.0273,0.0274,1,13,175,12,1,threeone,,,,,,,,,,,,,,,,,,,,,,,,,,,,,,,,,,,,,,,,,,,,,,,,,,,,,,,,,,,,,,,,,,,,,,,,,,,,,,,,,,,,,,,,,,,,,,,,,,,,,,,,,,,,,,,,,,,,,,,,,,,,,,,,,,,,,,,,,
,,659c265857dc159282edf1c4,2024-02-22_04h12.52.819,kallum_motion_pilot,2023.2.2,Win32,142.8571429,659c265857dc159282edf1c4,65d6bb0e977760de756971f7,65d6c9a1804293d44dba0b15,0.0275,0.0275,1,14,176,61,1,threefour,,,,,,,,,,,,,,,,,,,,,,,,,,,,,,,,,,,,,,,,,,,,,,,,,,,,,,,,,,,,,,,,,,,,,,,,,,,,,,,,,,,,,,,,,,,,,,,,,,,,,,,,,,,,,,,,,,,,,,,,,,,,,,,,,,,,,,,,,
,,659c265857dc159282edf1c4,2024-02-22_04h12.52.819,kallum_motion_pilot,2023.2.2,Win32,142.8571429,659c265857dc159282edf1c4,65d6bb0e977760de756971f7,65d6c9a1804293d44dba0b15,0.0275,0.0275,1,15,177,1,1,onethree,,,,,,,,,,,,,,,,,,,,,,,,,,,,,,,,,,,,,,,,,,,,,,,,,,,,,,,,,,,,,,,,,,,,,,,,,,,,,,,,,,,,,,,,,,,,,,,,,,,,,,,,,,,,,,,,,,,,,,,,,,,,,,,,,,,,,,,,,
,,659c265857dc159282edf1c4,2024-02-22_04h12.52.819,kallum_motion_pilot,2023.2.2,Win32,142.8571429,659c265857dc159282edf1c4,65d6bb0e977760de756971f7,65d6c9a1804293d44dba0b15,0.0276,0.0276,1,16,178,9,1,onethree,,,,,,,,,,,,,,,,,,,,,,,,,,,,,,,,,,,,,,,,,,,,,,,,,,,,,,,,,,,,,,,,,,,,,,,,,,,,,,,,,,,,,,,,,,,,,,,,,,,,,,,,,,,,,,,,,,,,,,,,,,,,,,,,,,,,,,,,,
,,659c265857dc159282edf1c4,2024-02-22_04h12.52.819,kallum_motion_pilot,2023.2.2,Win32,142.8571429,659c265857dc159282edf1c4,65d6bb0e977760de756971f7,65d6c9a1804293d44dba0b15,0.0277,0.0277,1,17,179,132,1,sevenfive,,,,,,,,,,,,,,,,,,,,,,,,,,,,,,,,,,,,,,,,,,,,,,,,,,,,,,,,,,,,,,,,,,,,,,,,,,,,,,,,,,,,,,,,,,,,,,,,,,,,,,,,,,,,,,,,,,,,,,,,,,,,,,,,,,,,,,,,,
,,659c265857dc159282edf1c4,2024-02-22_04h12.52.819,kallum_motion_pilot,2023.2.2,Win32,142.8571429,659c265857dc159282edf1c4,65d6bb0e977760de756971f7,65d6c9a1804293d44dba0b15,0.0278,0.0278,1,18,180,66,1,twoone,,,,,,,,,,,,,,,,,,,,,,,,,,,,,,,,,,,,,,,,,,,,,,,,,,,,,,,,,,,,,,,,,,,,,,,,,,,,,,,,,,,,,,,,,,,,,,,,,,,,,,,,,,,,,,,,,,,,,,,,,,,,,,,,,,,,,,,,,
,,659c265857dc159282edf1c4,2024-02-22_04h12.52.819,kallum_motion_pilot,2023.2.2,Win32,142.8571429,659c265857dc159282edf1c4,65d6bb0e977760de756971f7,65d6c9a1804293d44dba0b15,0.0278,0.0279,1,19,181,103,1,eightseven,,,,,,,,,,,,,,,,,,,,,,,,,,,,,,,,,,,,,,,,,,,,,,,,,,,,,,,,,,,,,,,,,,,,,,,,,,,,,,,,,,,,,,,,,,,,,,,,,,,,,,,,,,,,,,,,,,,,,,,,,,,,,,,,,,,,,,,,,
,,659c265857dc159282edf1c4,2024-02-22_04h12.52.819,kallum_motion_pilot,2023.2.2,Win32,142.8571429,659c265857dc159282edf1c4,65d6bb0e977760de756971f7,65d6c9a1804293d44dba0b15,0.0279,0.028,1,20,182,82,1,sixfive,,,,,,,,,,,,,,,,,,,,,,,,,,,,,,,,,,,,,,,,,,,,,,,,,,,,,,,,,,,,,,,,,,,,,,,,,,,,,,,,,,,,,,,,,,,,,,,,,,,,,,,,,,,,,,,,,,,,,,,,,,,,,,,,,,,,,,,,,
,,659c265857dc159282edf1c4,2024-02-22_04h12.52.819,kallum_motion_pilot,2023.2.2,Win32,142.8571429,659c265857dc159282edf1c4,65d6bb0e977760de756971f7,65d6c9a1804293d44dba0b15,0.028,0.028,1,21,183,109,1,seveneight,,,,,,,,,,,,,,,,,,,,,,,,,,,,,,,,,,,,,,,,,,,,,,,,,,,,,,,,,,,,,,,,,,,,,,,,,,,,,,,,,,,,,,,,,,,,,,,,,,,,,,,,,,,,,,,,,,,,,,,,,,,,,,,,,,,,,,,,,
,,659c265857dc159282edf1c4,2024-02-22_04h12.52.819,kallum_motion_pilot,2023.2.2,Win32,142.8571429,659c265857dc159282edf1c4,65d6bb0e977760de756971f7,65d6c9a1804293d44dba0b15,0.0281,0.0282,1,22,184,107,1,sixeight,,,,,,,,,,,,,,,,,,,,,,,,,,,,,,,,,,,,,,,,,,,,,,,,,,,,,,,,,,,,,,,,,,,,,,,,,,,,,,,,,,,,,,,,,,,,,,,,,,,,,,,,,,,,,,,,,,,,,,,,,,,,,,,,,,,,,,,,,
,,659c265857dc159282edf1c4,2024-02-22_04h12.52.819,kallum_motion_pilot,2023.2.2,Win32,142.8571429,659c265857dc159282edf1c4,65d6bb0e977760de756971f7,65d6c9a1804293d44dba0b15,0.0282,0.0282,1,23,185,29,1,threefour,,,,,,,,,,,,,,,,,,,,,,,,,,,,,,,,,,,,,,,,,,,,,,,,,,,,,,,,,,,,,,,,,,,,,,,,,,,,,,,,,,,,,,,,,,,,,,,,,,,,,,,,,,,,,,,,,,,,,,,,,,,,,,,,,,,,,,,,,
,,659c265857dc159282edf1c4,2024-02-22_04h12.52.819,kallum_motion_pilot,2023.2.2,Win32,142.8571429,659c265857dc159282edf1c4,65d6bb0e977760de756971f7,65d6c9a1804293d44dba0b15,0.0282,0.0283,1,24,186,34,1,twoone,,,,,,,,,,,,,,,,,,,,,,,,,,,,,,,,,,,,,,,,,,,,,,,,,,,,,,,,,,,,,,,,,,,,,,,,,,,,,,,,,,,,,,,,,,,,,,,,,,,,,,,,,,,,,,,,,,,,,,,,,,,,,,,,,,,,,,,,,
,,659c265857dc159282edf1c4,2024-02-22_04h12.52.819,kallum_motion_pilot,2023.2.2,Win32,142.8571429,659c265857dc159282edf1c4,65d6bb0e977760de756971f7,65d6c9a1804293d44dba0b15,0.0283,0.0284,1,25,187,23,1,fourthree,,,,,,,,,,,,,,,,,,,,,,,,,,,,,,,,,,,,,,,,,,,,,,,,,,,,,,,,,,,,,,,,,,,,,,,,,,,,,,,,,,,,,,,,,,,,,,,,,,,,,,,,,,,,,,,,,,,,,,,,,,,,,,,,,,,,,,,,,
,,659c265857dc159282edf1c4,2024-02-22_04h12.52.819,kallum_motion_pilot,2023.2.2,Win32,142.8571429,659c265857dc159282edf1c4,65d6bb0e977760de756971f7,65d6c9a1804293d44dba0b15,0.0284,0.0285,1,26,188,144,1,fivesix,,,,,,,,,,,,,,,,,,,,,,,,,,,,,,,,,,,,,,,,,,,,,,,,,,,,,,,,,,,,,,,,,,,,,,,,,,,,,,,,,,,,,,,,,,,,,,,,,,,,,,,,,,,,,,,,,,,,,,,,,,,,,,,,,,,,,,,,,
,,659c265857dc159282edf1c4,2024-02-22_04h12.52.819,kallum_motion_pilot,2023.2.2,Win32,142.8571429,659c265857dc159282edf1c4,65d6bb0e977760de756971f7,65d6c9a1804293d44dba0b15,0.0285,0.0285,1,27,189,2,1,twoone,,,,,,,,,,,,,,,,,,,,,,,,,,,,,,,,,,,,,,,,,,,,,,,,,,,,,,,,,,,,,,,,,,,,,,,,,,,,,,,,,,,,,,,,,,,,,,,,,,,,,,,,,,,,,,,,,,,,,,,,,,,,,,,,,,,,,,,,,
,,659c265857dc159282edf1c4,2024-02-22_04h12.52.819,kallum_motion_pilot,2023.2.2,Win32,142.8571429,659c265857dc159282edf1c4,65d6bb0e977760de756971f7,65d6c9a1804293d44dba0b15,0.0286,0.0286,1,28,190,81,1,fiveseven,,,,,,,,,,,,,,,,,,,,,,,,,,,,,,,,,,,,,,,,,,,,,,,,,,,,,,,,,,,,,,,,,,,,,,,,,,,,,,,,,,,,,,,,,,,,,,,,,,,,,,,,,,,,,,,,,,,,,,,,,,,,,,,,,,,,,,,,,
,,659c265857dc159282edf1c4,2024-02-22_04h12.52.819,kallum_motion_pilot,2023.2.2,Win32,142.8571429,659c265857dc159282edf1c4,65d6bb0e977760de756971f7,65d6c9a1804293d44dba0b15,0.0287,0.0287,1,29,191,141,1,seveneight,,,,,,,,,,,,,,,,,,,,,,,,,,,,,,,,,,,,,,,,,,,,,,,,,,,,,,,,,,,,,,,,,,,,,,,,,,,,,,,,,,,,,,,,,,,,,,,,,,,,,,,,,,,,,,,,,,,,,,,,,,,,,,,,,,,,,,,,,
,,659c265857dc159282edf1c4,2024-02-22_04h12.52.819,kallum_motion_pilot,2023.2.2,Win32,142.8571429,659c265857dc159282edf1c4,65d6bb0e977760de756971f7,65d6c9a1804293d44dba0b15,0.0288,0.0288,1,30,192,112,1,fivesix,,,,,,,,,,,,,,,,,,,,,,,,,,,,,,,,,,,,,,,,,,,,,,,,,,,,,,,,,,,,,,,,,,,,,,,,,,,,,,,,,,,,,,,,,,,,,,,,,,,,,,,,,,,,,,,,,,,,,,,,,,,,,,,,,,,,,,,,,
,,659c265857dc159282edf1c4,2024-02-22_04h12.52.819,kallum_motion_pilot,2023.2.2,Win32,142.8571429,659c265857dc159282edf1c4,65d6bb0e977760de756971f7,65d6c9a1804293d44dba0b15,0.0288,0.0288,1,31,193,101,1,seveneight,,,,,,,,,,,,,,,,,,,,,,,,,,,,,,,,,,,,,,,,,,,,,,,,,,,,,,,,,,,,,,,,,,,,,,,,,,,,,,,,,,,,,,,,,,,,,,,,,,,,,,,,,,,,,,,,,,,,,,,,,,,,,,,,,,,,,,,,,
,,659c265857dc159282edf1c4,2024-02-22_04h12.52.819,kallum_motion_pilot,2023.2.2,Win32,142.8571429,659c265857dc159282edf1c4,65d6bb0e977760de756971f7,65d6c9a1804293d44dba0b15,0.0289,0.0289,1,32,194,84,1,sevenfive,,,,,,,,,,,,,,,,,,,,,,,,,,,,,,,,,,,,,,,,,,,,,,,,,,,,,,,,,,,,,,,,,,,,,,,,,,,,,,,,,,,,,,,,,,,,,,,,,,,,,,,,,,,,,,,,,,,,,,,,,,,,,,,,,,,,,,,,,
,,659c265857dc159282edf1c4,2024-02-22_04h12.52.819,kallum_motion_pilot,2023.2.2,Win32,142.8571429,659c265857dc159282edf1c4,65d6bb0e977760de756971f7,65d6c9a1804293d44dba0b15,0.029,0.0291,1,33,195,114,1,sixfive,,,,,,,,,,,,,,,,,,,,,,,,,,,,,,,,,,,,,,,,,,,,,,,,,,,,,,,,,,,,,,,,,,,,,,,,,,,,,,,,,,,,,,,,,,,,,,,,,,,,,,,,,,,,,,,,,,,,,,,,,,,,,,,,,,,,,,,,,
,,659c265857dc159282edf1c4,2024-02-22_04h12.52.819,kallum_motion_pilot,2023.2.2,Win32,142.8571429,659c265857dc159282edf1c4,65d6bb0e977760de756971f7,65d6c9a1804293d44dba0b15,0.0291,0.0292,1,34,196,31,1,fourthree,,,,,,,,,,,,,,,,,,,,,,,,,,,,,,,,,,,,,,,,,,,,,,,,,,,,,,,,,,,,,,,,,,,,,,,,,,,,,,,,,,,,,,,,,,,,,,,,,,,,,,,,,,,,,,,,,,,,,,,,,,,,,,,,,,,,,,,,,
,,659c265857dc159282edf1c4,2024-02-22_04h12.52.819,kallum_motion_pilot,2023.2.2,Win32,142.8571429,659c265857dc159282edf1c4,65d6bb0e977760de756971f7,65d6c9a1804293d44dba0b15,0.0292,0.0293,1,35,197,5,1,threefour,,,,,,,,,,,,,,,,,,,,,,,,,,,,,,,,,,,,,,,,,,,,,,,,,,,,,,,,,,,,,,,,,,,,,,,,,,,,,,,,,,,,,,,,,,,,,,,,,,,,,,,,,,,,,,,,,,,,,,,,,,,,,,,,,,,,,,,,,
,,659c265857dc159282edf1c4,2024-02-22_04h12.52.819,kallum_motion_pilot,2023.2.2,Win32,142.8571429,659c265857dc159282edf1c4,65d6bb0e977760de756971f7,65d6c9a1804293d44dba0b15,0.0293,0.0294,1,36,198,16,1,onetwo,,,,,,,,,,,,,,,,,,,,,,,,,,,,,,,,,,,,,,,,,,,,,,,,,,,,,,,,,,,,,,,,,,,,,,,,,,,,,,,,,,,,,,,,,,,,,,,,,,,,,,,,,,,,,,,,,,,,,,,,,,,,,,,,,,,,,,,,,
,,659c265857dc159282edf1c4,2024-02-22_04h12.52.819,kallum_motion_pilot,2023.2.2,Win32,142.8571429,659c265857dc159282edf1c4,65d6bb0e977760de756971f7,65d6c9a1804293d44dba0b15,0.0294,0.0294,1,37,199,79,1,eightseven,,,,,,,,,,,,,,,,,,,,,,,,,,,,,,,,,,,,,,,,,,,,,,,,,,,,,,,,,,,,,,,,,,,,,,,,,,,,,,,,,,,,,,,,,,,,,,,,,,,,,,,,,,,,,,,,,,,,,,,,,,,,,,,,,,,,,,,,,
,,659c265857dc159282edf1c4,2024-02-22_04h12.52.819,kallum_motion_pilot,2023.2.2,Win32,142.8571429,659c265857dc159282edf1c4,65d6bb0e977760de756971f7,65d6c9a1804293d44dba0b15,0.0295,0.0295,1,38,200,116,1,sevenfive,,,,,,,,,,,,,,,,,,,,,,,,,,,,,,,,,,,,,,,,,,,,,,,,,,,,,,,,,,,,,,,,,,,,,,,,,,,,,,,,,,,,,,,,,,,,,,,,,,,,,,,,,,,,,,,,,,,,,,,,,,,,,,,,,,,,,,,,,
,,659c265857dc159282edf1c4,2024-02-22_04h12.52.819,kallum_motion_pilot,2023.2.2,Win32,142.8571429,659c265857dc159282edf1c4,65d6bb0e977760de756971f7,65d6c9a1804293d44dba0b15,0.0296,0.0296,1,39,201,147,1,sixeight,,,,,,,,,,,,,,,,,,,,,,,,,,,,,,,,,,,,,,,,,,,,,,,,,,,,,,,,,,,,,,,,,,,,,,,,,,,,,,,,,,,,,,,,,,,,,,,,,,,,,,,,,,,,,,,,,,,,,,,,,,,,,,,,,,,,,,,,,
,,659c265857dc159282edf1c4,2024-02-22_04h12.52.819,kallum_motion_pilot,2023.2.2,Win32,142.8571429,659c265857dc159282edf1c4,65d6bb0e977760de756971f7,65d6c9a1804293d44dba0b15,0.0297,0.0297,1,40,202,96,1,fivesix,,,,,,,,,,,,,,,,,,,,,,,,,,,,,,,,,,,,,,,,,,,,,,,,,,,,,,,,,,,,,,,,,,,,,,,,,,,,,,,,,,,,,,,,,,,,,,,,,,,,,,,,,,,,,,,,,,,,,,,,,,,,,,,,,,,,,,,,,
,,659c265857dc159282edf1c4,2024-02-22_04h12.52.819,kallum_motion_pilot,2023.2.2,Win32,142.8571429,659c265857dc159282edf1c4,65d6bb0e977760de756971f7,65d6c9a1804293d44dba0b15,0.0297,0.0298,1,41,203,105,1,fiveseven,,,,,,,,,,,,,,,,,,,,,,,,,,,,,,,,,,,,,,,,,,,,,,,,,,,,,,,,,,,,,,,,,,,,,,,,,,,,,,,,,,,,,,,,,,,,,,,,,,,,,,,,,,,,,,,,,,,,,,,,,,,,,,,,,,,,,,,,,
,,659c265857dc159282edf1c4,2024-02-22_04h12.52.819,kallum_motion_pilot,2023.2.2,Win32,142.8571429,659c265857dc159282edf1c4,65d6bb0e977760de756971f7,65d6c9a1804293d44dba0b15,0.0298,0.0298,1,42,204,121,1,fiveseven,,,,,,,,,,,,,,,,,,,,,,,,,,,,,,,,,,,,,,,,,,,,,,,,,,,,,,,,,,,,,,,,,,,,,,,,,,,,,,,,,,,,,,,,,,,,,,,,,,,,,,,,,,,,,,,,,,,,,,,,,,,,,,,,,,,,,,,,,
,,659c265857dc159282edf1c4,2024-02-22_04h12.52.819,kallum_motion_pilot,2023.2.2,Win32,142.8571429,659c265857dc159282edf1c4,65d6bb0e977760de756971f7,65d6c9a1804293d44dba0b15,0.0299,0.0299,1,43,205,106,1,sixfive,,,,,,,,,,,,,,,,,,,,,,,,,,,,,,,,,,,,,,,,,,,,,,,,,,,,,,,,,,,,,,,,,,,,,,,,,,,,,,,,,,,,,,,,,,,,,,,,,,,,,,,,,,,,,,,,,,,,,,,,,,,,,,,,,,,,,,,,,
,,659c265857dc159282edf1c4,2024-02-22_04h12.52.819,kallum_motion_pilot,2023.2.2,Win32,142.8571429,659c265857dc159282edf1c4,65d6bb0e977760de756971f7,65d6c9a1804293d44dba0b15,0.03,0.03,1,44,206,149,1,seveneight,,,,,,,,,,,,,,,,,,,,,,,,,,,,,,,,,,,,,,,,,,,,,,,,,,,,,,,,,,,,,,,,,,,,,,,,,,,,,,,,,,,,,,,,,,,,,,,,,,,,,,,,,,,,,,,,,,,,,,,,,,,,,,,,,,,,,,,,,
,,659c265857dc159282edf1c4,2024-02-22_04h12.52.819,kallum_motion_pilot,2023.2.2,Win32,142.8571429,659c265857dc159282edf1c4,65d6bb0e977760de756971f7,65d6c9a1804293d44dba0b15,0.0301,0.0301,1,45,207,146,1,sixfive,,,,,,,,,,,,,,,,,,,,,,,,,,,,,,,,,,,,,,,,,,,,,,,,,,,,,,,,,,,,,,,,,,,,,,,,,,,,,,,,,,,,,,,,,,,,,,,,,,,,,,,,,,,,,,,,,,,,,,,,,,,,,,,,,,,,,,,,,
,,659c265857dc159282edf1c4,2024-02-22_04h12.52.819,kallum_motion_pilot,2023.2.2,Win32,142.8571429,659c265857dc159282edf1c4,65d6bb0e977760de756971f7,65d6c9a1804293d44dba0b15,0.0302,0.0302,1,46,208,152,1,fivesix,,,,,,,,,,,,,,,,,,,,,,,,,,,,,,,,,,,,,,,,,,,,,,,,,,,,,,,,,,,,,,,,,,,,,,,,,,,,,,,,,,,,,,,,,,,,,,,,,,,,,,,,,,,,,,,,,,,,,,,,,,,,,,,,,,,,,,,,,
,,659c265857dc159282edf1c4,2024-02-22_04h12.52.819,kallum_motion_pilot,2023.2.2,Win32,142.8571429,659c265857dc159282edf1c4,65d6bb0e977760de756971f7,65d6c9a1804293d44dba0b15,0.0303,0.0303,1,47,209,161,1,fiveseven,,,,,,,,,,,,,,,,,,,,,,,,,,,,,,,,,,,,,,,,,,,,,,,,,,,,,,,,,,,,,,,,,,,,,,,,,,,,,,,,,,,,,,,,,,,,,,,,,,,,,,,,,,,,,,,,,,,,,,,,,,,,,,,,,,,,,,,,,
,,659c265857dc159282edf1c4,2024-02-22_04h12.52.819,kallum_motion_pilot,2023.2.2,Win32,142.8571429,659c265857dc159282edf1c4,65d6bb0e977760de756971f7,65d6c9a1804293d44dba0b15,0.0303,0.0303,1,48,210,118,1,eightsix,,,,,,,,,,,,,,,,,,,,,,,,,,,,,,,,,,,,,,,,,,,,,,,,,,,,,,,,,,,,,,,,,,,,,,,,,,,,,,,,,,,,,,,,,,,,,,,,,,,,,,,,,,,,,,,,,,,,,,,,,,,,,,,,,,,,,,,,,
,,659c265857dc159282edf1c4,2024-02-22_04h12.52.819,kallum_motion_pilot,2023.2.2,Win32,142.8571429,659c265857dc159282edf1c4,65d6bb0e977760de756971f7,65d6c9a1804293d44dba0b15,0.0304,0.0304,1,49,211,93,1,seveneight,,,,,,,,,,,,,,,,,,,,,,,,,,,,,,,,,,,,,,,,,,,,,,,,,,,,,,,,,,,,,,,,,,,,,,,,,,,,,,,,,,,,,,,,,,,,,,,,,,,,,,,,,,,,,,,,,,,,,,,,,,,,,,,,,,,,,,,,,
,,659c265857dc159282edf1c4,2024-02-22_04h12.52.819,kallum_motion_pilot,2023.2.2,Win32,142.8571429,659c265857dc159282edf1c4,65d6bb0e977760de756971f7,65d6c9a1804293d44dba0b15,0.0305,0.0306,1,50,212,95,1,eightseven,,,,,,,,,,,,,,,,,,,,,,,,,,,,,,,,,,,,,,,,,,,,,,,,,,,,,,,,,,,,,,,,,,,,,,,,,,,,,,,,,,,,,,,,,,,,,,,,,,,,,,,,,,,,,,,,,,,,,,,,,,,,,,,,,,,,,,,,,
,,659c265857dc159282edf1c4,2024-02-22_04h12.52.819,kallum_motion_pilot,2023.2.2,Win32,142.8571429,659c265857dc159282edf1c4,65d6bb0e977760de756971f7,65d6c9a1804293d44dba0b15,0.0306,0.0306,1,51,213,122,1,sixfive,,,,,,,,,,,,,,,,,,,,,,,,,,,,,,,,,,,,,,,,,,,,,,,,,,,,,,,,,,,,,,,,,,,,,,,,,,,,,,,,,,,,,,,,,,,,,,,,,,,,,,,,,,,,,,,,,,,,,,,,,,,,,,,,,,,,,,,,,
,,659c265857dc159282edf1c4,2024-02-22_04h12.52.819,kallum_motion_pilot,2023.2.2,Win32,142.8571429,659c265857dc159282edf1c4,65d6bb0e977760de756971f7,65d6c9a1804293d44dba0b15,0.0306,0.0306,1,52,214,145,1,fiveseven,,,,,,,,,,,,,,,,,,,,,,,,,,,,,,,,,,,,,,,,,,,,,,,,,,,,,,,,,,,,,,,,,,,,,,,,,,,,,,,,,,,,,,,,,,,,,,,,,,,,,,,,,,,,,,,,,,,,,,,,,,,,,,,,,,,,,,,,,
,,659c265857dc159282edf1c4,2024-02-22_04h12.52.819,kallum_motion_pilot,2023.2.2,Win32,142.8571429,659c265857dc159282edf1c4,65d6bb0e977760de756971f7,65d6c9a1804293d44dba0b15,0.0307,0.0307,1,53,215,44,1,threeone,,,,,,,,,,,,,,,,,,,,,,,,,,,,,,,,,,,,,,,,,,,,,,,,,,,,,,,,,,,,,,,,,,,,,,,,,,,,,,,,,,,,,,,,,,,,,,,,,,,,,,,,,,,,,,,,,,,,,,,,,,,,,,,,,,,,,,,,,
,,659c265857dc159282edf1c4,2024-02-22_04h12.52.819,kallum_motion_pilot,2023.2.2,Win32,142.8571429,659c265857dc159282edf1c4,65d6bb0e977760de756971f7,65d6c9a1804293d44dba0b15,0.0308,0.0308,1,54,216,86,1,eightsix,,,,,,,,,,,,,,,,,,,,,,,,,,,,,,,,,,,,,,,,,,,,,,,,,,,,,,,,,,,,,,,,,,,,,,,,,,,,,,,,,,,,,,,,,,,,,,,,,,,,,,,,,,,,,,,,,,,,,,,,,,,,,,,,,,,,,,,,,
,,659c265857dc159282edf1c4,2024-02-22_04h12.52.819,kallum_motion_pilot,2023.2.2,Win32,142.8571429,659c265857dc159282edf1c4,65d6bb0e977760de756971f7,65d6c9a1804293d44dba0b15,0.0309,0.0309,1,55,217,19,1,twofour,,,,,,,,,,,,,,,,,,,,,,,,,,,,,,,,,,,,,,,,,,,,,,,,,,,,,,,,,,,,,,,,,,,,,,,,,,,,,,,,,,,,,,,,,,,,,,,,,,,,,,,,,,,,,,,,,,,,,,,,,,,,,,,,,,,,,,,,,
,,659c265857dc159282edf1c4,2024-02-22_04h12.52.819,kallum_motion_pilot,2023.2.2,Win32,142.8571429,659c265857dc159282edf1c4,65d6bb0e977760de756971f7,65d6c9a1804293d44dba0b15,0.031,0.031,1,56,218,71,1,fourthree,,,,,,,,,,,,,,,,,,,,,,,,,,,,,,,,,,,,,,,,,,,,,,,,,,,,,,,,,,,,,,,,,,,,,,,,,,,,,,,,,,,,,,,,,,,,,,,,,,,,,,,,,,,,,,,,,,,,,,,,,,,,,,,,,,,,,,,,,
,,659c265857dc159282edf1c4,2024-02-22_04h12.52.819,kallum_motion_pilot,2023.2.2,Win32,142.8571429,659c265857dc159282edf1c4,65d6bb0e977760de756971f7,65d6c9a1804293d44dba0b15,0.0311,0.0311,1,57,219,25,1,onethree,,,,,,,,,,,,,,,,,,,,,,,,,,,,,,,,,,,,,,,,,,,,,,,,,,,,,,,,,,,,,,,,,,,,,,,,,,,,,,,,,,,,,,,,,,,,,,,,,,,,,,,,,,,,,,,,,,,,,,,,,,,,,,,,,,,,,,,,,
,,659c265857dc159282edf1c4,2024-02-22_04h12.52.819,kallum_motion_pilot,2023.2.2,Win32,142.8571429,659c265857dc159282edf1c4,65d6bb0e977760de756971f7,65d6c9a1804293d44dba0b15,0.0312,0.0312,1,58,220,27,1,twofour,,,,,,,,,,,,,,,,,,,,,,,,,,,,,,,,,,,,,,,,,,,,,,,,,,,,,,,,,,,,,,,,,,,,,,,,,,,,,,,,,,,,,,,,,,,,,,,,,,,,,,,,,,,,,,,,,,,,,,,,,,,,,,,,,,,,,,,,,
,,659c265857dc159282edf1c4,2024-02-22_04h12.52.819,kallum_motion_pilot,2023.2.2,Win32,142.8571429,659c265857dc159282edf1c4,65d6bb0e977760de756971f7,65d6c9a1804293d44dba0b15,0.0312,0.0313,1,59,221,85,1,seveneight,,,,,,,,,,,,,,,,,,,,,,,,,,,,,,,,,,,,,,,,,,,,,,,,,,,,,,,,,,,,,,,,,,,,,,,,,,,,,,,,,,,,,,,,,,,,,,,,,,,,,,,,,,,,,,,,,,,,,,,,,,,,,,,,,,,,,,,,,
,,659c265857dc159282edf1c4,2024-02-22_04h12.52.819,kallum_motion_pilot,2023.2.2,Win32,142.8571429,659c265857dc159282edf1c4,65d6bb0e977760de756971f7,65d6c9a1804293d44dba0b15,0.0314,0.0314,1,60,222,78,1,fourtwo,,,,,,,,,,,,,,,,,,,,,,,,,,,,,,,,,,,,,,,,,,,,,,,,,,,,,,,,,,,,,,,,,,,,,,,,,,,,,,,,,,,,,,,,,,,,,,,,,,,,,,,,,,,,,,,,,,,,,,,,,,,,,,,,,,,,,,,,,
,,659c265857dc159282edf1c4,2024-02-22_04h12.52.819,kallum_motion_pilot,2023.2.2,Win32,142.8571429,659c265857dc159282edf1c4,65d6bb0e977760de756971f7,65d6c9a1804293d44dba0b15,0.0315,0.0315,1,61,223,32,1,onetwo,,,,,,,,,,,,,,,,,,,,,,,,,,,,,,,,,,,,,,,,,,,,,,,,,,,,,,,,,,,,,,,,,,,,,,,,,,,,,,,,,,,,,,,,,,,,,,,,,,,,,,,,,,,,,,,,,,,,,,,,,,,,,,,,,,,,,,,,,
,,659c265857dc159282edf1c4,2024-02-22_04h12.52.819,kallum_motion_pilot,2023.2.2,Win32,142.8571429,659c265857dc159282edf1c4,65d6bb0e977760de756971f7,65d6c9a1804293d44dba0b15,0.0315,0.0315,1,62,224,125,1,seveneight,,,,,,,,,,,,,,,,,,,,,,,,,,,,,,,,,,,,,,,,,,,,,,,,,,,,,,,,,,,,,,,,,,,,,,,,,,,,,,,,,,,,,,,,,,,,,,,,,,,,,,,,,,,,,,,,,,,,,,,,,,,,,,,,,,,,,,,,,
,,659c265857dc159282edf1c4,2024-02-22_04h12.52.819,kallum_motion_pilot,2023.2.2,Win32,142.8571429,659c265857dc159282edf1c4,65d6bb0e977760de756971f7,65d6c9a1804293d44dba0b15,0.0316,0.0316,1,63,225,59,1,twofour,,,,,,,,,,,,,,,,,,,,,,,,,,,,,,,,,,,,,,,,,,,,,,,,,,,,,,,,,,,,,,,,,,,,,,,,,,,,,,,,,,,,,,,,,,,,,,,,,,,,,,,,,,,,,,,,,,,,,,,,,,,,,,,,,,,,,,,,,
,,659c265857dc159282edf1c4,2024-02-22_04h12.52.819,kallum_motion_pilot,2023.2.2,Win32,142.8571429,659c265857dc159282edf1c4,65d6bb0e977760de756971f7,65d6c9a1804293d44dba0b15,0.0317,0.0317,1,64,226,73,1,onethree,,,,,,,,,,,,,,,,,,,,,,,,,,,,,,,,,,,,,,,,,,,,,,,,,,,,,,,,,,,,,,,,,,,,,,,,,,,,,,,,,,,,,,,,,,,,,,,,,,,,,,,,,,,,,,,,,,,,,,,,,,,,,,,,,,,,,,,,,
,,659c265857dc159282edf1c4,2024-02-22_04h12.52.819,kallum_motion_pilot,2023.2.2,Win32,142.8571429,659c265857dc159282edf1c4,65d6bb0e977760de756971f7,65d6c9a1804293d44dba0b15,0.0318,0.0318,1,65,227,7,1,fourthree,,,,,,,,,,,,,,,,,,,,,,,,,,,,,,,,,,,,,,,,,,,,,,,,,,,,,,,,,,,,,,,,,,,,,,,,,,,,,,,,,,,,,,,,,,,,,,,,,,,,,,,,,,,,,,,,,,,,,,,,,,,,,,,,,,,,,,,,,
,,659c265857dc159282edf1c4,2024-02-22_04h12.52.819,kallum_motion_pilot,2023.2.2,Win32,142.8571429,659c265857dc159282edf1c4,65d6bb0e977760de756971f7,65d6c9a1804293d44dba0b15,0.0319,0.0319,1,66,228,119,1,eightseven,,,,,,,,,,,,,,,,,,,,,,,,,,,,,,,,,,,,,,,,,,,,,,,,,,,,,,,,,,,,,,,,,,,,,,,,,,,,,,,,,,,,,,,,,,,,,,,,,,,,,,,,,,,,,,,,,,,,,,,,,,,,,,,,,,,,,,,,,
,,659c265857dc159282edf1c4,2024-02-22_04h12.52.819,kallum_motion_pilot,2023.2.2,Win32,142.8571429,659c265857dc159282edf1c4,65d6bb0e977760de756971f7,65d6c9a1804293d44dba0b15,0.0319,0.032,1,67,229,88,1,fivesix,,,,,,,,,,,,,,,,,,,,,,,,,,,,,,,,,,,,,,,,,,,,,,,,,,,,,,,,,,,,,,,,,,,,,,,,,,,,,,,,,,,,,,,,,,,,,,,,,,,,,,,,,,,,,,,,,,,,,,,,,,,,,,,,,,,,,,,,,
,,659c265857dc159282edf1c4,2024-02-22_04h12.52.819,kallum_motion_pilot,2023.2.2,Win32,142.8571429,659c265857dc159282edf1c4,65d6bb0e977760de756971f7,65d6c9a1804293d44dba0b15,0.032,0.0321,1,68,230,37,1,threefour,,,,,,,,,,,,,,,,,,,,,,,,,,,,,,,,,,,,,,,,,,,,,,,,,,,,,,,,,,,,,,,,,,,,,,,,,,,,,,,,,,,,,,,,,,,,,,,,,,,,,,,,,,,,,,,,,,,,,,,,,,,,,,,,,,,,,,,,,
,,659c265857dc159282edf1c4,2024-02-22_04h12.52.819,kallum_motion_pilot,2023.2.2,Win32,142.8571429,659c265857dc159282edf1c4,65d6bb0e977760de756971f7,65d6c9a1804293d44dba0b15,0.0322,0.0322,1,69,231,62,1,fourtwo,,,,,,,,,,,,,,,,,,,,,,,,,,,,,,,,,,,,,,,,,,,,,,,,,,,,,,,,,,,,,,,,,,,,,,,,,,,,,,,,,,,,,,,,,,,,,,,,,,,,,,,,,,,,,,,,,,,,,,,,,,,,,,,,,,,,,,,,,
,,659c265857dc159282edf1c4,2024-02-22_04h12.52.819,kallum_motion_pilot,2023.2.2,Win32,142.8571429,659c265857dc159282edf1c4,65d6bb0e977760de756971f7,65d6c9a1804293d44dba0b15,0.0323,0.0323,1,70,232,158,1,eightsix,,,,,,,,,,,,,,,,,,,,,,,,,,,,,,,,,,,,,,,,,,,,,,,,,,,,,,,,,,,,,,,,,,,,,,,,,,,,,,,,,,,,,,,,,,,,,,,,,,,,,,,,,,,,,,,,,,,,,,,,,,,,,,,,,,,,,,,,,
,,659c265857dc159282edf1c4,2024-02-22_04h12.52.819,kallum_motion_pilot,2023.2.2,Win32,142.8571429,659c265857dc159282edf1c4,65d6bb0e977760de756971f7,65d6c9a1804293d44dba0b15,0.0323,0.0323,1,71,233,65,1,onethree,,,,,,,,,,,,,,,,,,,,,,,,,,,,,,,,,,,,,,,,,,,,,,,,,,,,,,,,,,,,,,,,,,,,,,,,,,,,,,,,,,,,,,,,,,,,,,,,,,,,,,,,,,,,,,,,,,,,,,,,,,,,,,,,,,,,,,,,,
,,659c265857dc159282edf1c4,2024-02-22_04h12.52.819,kallum_motion_pilot,2023.2.2,Win32,142.8571429,659c265857dc159282edf1c4,65d6bb0e977760de756971f7,65d6c9a1804293d44dba0b15,0.0324,0.0325,1,72,234,143,1,eightseven,,,,,,,,,,,,,,,,,,,,,,,,,,,,,,,,,,,,,,,,,,,,,,,,,,,,,,,,,,,,,,,,,,,,,,,,,,,,,,,,,,,,,,,,,,,,,,,,,,,,,,,,,,,,,,,,,,,,,,,,,,,,,,,,,,,,,,,,,
,,659c265857dc159282edf1c4,2024-02-22_04h12.52.819,kallum_motion_pilot,2023.2.2,Win32,142.8571429,659c265857dc159282edf1c4,65d6bb0e977760de756971f7,65d6c9a1804293d44dba0b15,0.0325,0.0325,1,73,235,157,1,seveneight,,,,,,,,,,,,,,,,,,,,,,,,,,,,,,,,,,,,,,,,,,,,,,,,,,,,,,,,,,,,,,,,,,,,,,,,,,,,,,,,,,,,,,,,,,,,,,,,,,,,,,,,,,,,,,,,,,,,,,,,,,,,,,,,,,,,,,,,,
,,659c265857dc159282edf1c4,2024-02-22_04h12.52.819,kallum_motion_pilot,2023.2.2,Win32,142.8571429,659c265857dc159282edf1c4,65d6bb0e977760de756971f7,65d6c9a1804293d44dba0b15,0.0326,0.0327,1,74,236,28,1,threeone,,,,,,,,,,,,,,,,,,,,,,,,,,,,,,,,,,,,,,,,,,,,,,,,,,,,,,,,,,,,,,,,,,,,,,,,,,,,,,,,,,,,,,,,,,,,,,,,,,,,,,,,,,,,,,,,,,,,,,,,,,,,,,,,,,,,,,,,,
,,659c265857dc159282edf1c4,2024-02-22_04h12.52.819,kallum_motion_pilot,2023.2.2,Win32,142.8571429,659c265857dc159282edf1c4,65d6bb0e977760de756971f7,65d6c9a1804293d44dba0b15,0.0327,0.0327,1,75,237,36,1,threeone,,,,,,,,,,,,,,,,,,,,,,,,,,,,,,,,,,,,,,,,,,,,,,,,,,,,,,,,,,,,,,,,,,,,,,,,,,,,,,,,,,,,,,,,,,,,,,,,,,,,,,,,,,,,,,,,,,,,,,,,,,,,,,,,,,,,,,,,,
,,659c265857dc159282edf1c4,2024-02-22_04h12.52.819,kallum_motion_pilot,2023.2.2,Win32,142.8571429,659c265857dc159282edf1c4,65d6bb0e977760de756971f7,65d6c9a1804293d44dba0b15,0.0327,0.0328,1,76,238,136,1,fivesix,,,,,,,,,,,,,,,,,,,,,,,,,,,,,,,,,,,,,,,,,,,,,,,,,,,,,,,,,,,,,,,,,,,,,,,,,,,,,,,,,,,,,,,,,,,,,,,,,,,,,,,,,,,,,,,,,,,,,,,,,,,,,,,,,,,,,,,,,
,,659c265857dc159282edf1c4,2024-02-22_04h12.52.819,kallum_motion_pilot,2023.2.2,Win32,142.8571429,659c265857dc159282edf1c4,65d6bb0e977760de756971f7,65d6c9a1804293d44dba0b15,0.0328,0.0329,1,77,239,91,1,sixeight,,,,,,,,,,,,,,,,,,,,,,,,,,,,,,,,,,,,,,,,,,,,,,,,,,,,,,,,,,,,,,,,,,,,,,,,,,,,,,,,,,,,,,,,,,,,,,,,,,,,,,,,,,,,,,,,,,,,,,,,,,,,,,,,,,,,,,,,,
,,659c265857dc159282edf1c4,2024-02-22_04h12.52.819,kallum_motion_pilot,2023.2.2,Win32,142.8571429,659c265857dc159282edf1c4,65d6bb0e977760de756971f7,65d6c9a1804293d44dba0b15,0.033,0.033,1,78,240,53,1,threefour,,,,,,,,,,,,,,,,,,,,,,,,,,,,,,,,,,,,,,,,,,,,,,,,,,,,,,,,,,,,,,,,,,,,,,,,,,,,,,,,,,,,,,,,,,,,,,,,,,,,,,,,,,,,,,,,,,,,,,,,,,,,,,,,,,,,,,,,,
,,659c265857dc159282edf1c4,2024-02-22_04h12.52.819,kallum_motion_pilot,2023.2.2,Win32,142.8571429,659c265857dc159282edf1c4,65d6bb0e977760de756971f7,65d6c9a1804293d44dba0b15,0.033,0.033,1,79,241,102,1,eightsix,,,,,,,,,,,,,,,,,,,,,,,,,,,,,,,,,,,,,,,,,,,,,,,,,,,,,,,,,,,,,,,,,,,,,,,,,,,,,,,,,,,,,,,,,,,,,,,,,,,,,,,,,,,,,,,,,,,,,,,,,,,,,,,,,,,,,,,,,
,,659c265857dc159282edf1c4,2024-02-22_04h12.52.819,kallum_motion_pilot,2023.2.2,Win32,142.8571429,659c265857dc159282edf1c4,65d6bb0e977760de756971f7,65d6c9a1804293d44dba0b15,0.0331,0.0331,1,80,242,153,1,fiveseven,,,,,,,,,,,,,,,,,,,,,,,,,,,,,,,,,,,,,,,,,,,,,,,,,,,,,,,,,,,,,,,,,,,,,,,,,,,,,,,,,,,,,,,,,,,,,,,,,,,,,,,,,,,,,,,,,,,,,,,,,,,,,,,,,,,,,,,,,
,,659c265857dc159282edf1c4,2024-02-22_04h12.52.819,kallum_motion_pilot,2023.2.2,Win32,142.8571429,659c265857dc159282edf1c4,65d6bb0e977760de756971f7,65d6c9a1804293d44dba0b15,0.0332,0.0332,1,81,243,72,1,onetwo,,,,,,,,,,,,,,,,,,,,,,,,,,,,,,,,,,,,,,,,,,,,,,,,,,,,,,,,,,,,,,,,,,,,,,,,,,,,,,,,,,,,,,,,,,,,,,,,,,,,,,,,,,,,,,,,,,,,,,,,,,,,,,,,,,,,,,,,,
,,659c265857dc159282edf1c4,2024-02-22_04h12.52.819,kallum_motion_pilot,2023.2.2,Win32,142.8571429,659c265857dc159282edf1c4,65d6bb0e977760de756971f7,65d6c9a1804293d44dba0b15,0.0332,0.0333,1,82,244,49,1,onethree,,,,,,,,,,,,,,,,,,,,,,,,,,,,,,,,,,,,,,,,,,,,,,,,,,,,,,,,,,,,,,,,,,,,,,,,,,,,,,,,,,,,,,,,,,,,,,,,,,,,,,,,,,,,,,,,,,,,,,,,,,,,,,,,,,,,,,,,,
,,659c265857dc159282edf1c4,2024-02-22_04h12.52.819,kallum_motion_pilot,2023.2.2,Win32,142.8571429,659c265857dc159282edf1c4,65d6bb0e977760de756971f7,65d6c9a1804293d44dba0b15,0.0334,0.0334,1,83,245,110,1,eightsix,,,,,,,,,,,,,,,,,,,,,,,,,,,,,,,,,,,,,,,,,,,,,,,,,,,,,,,,,,,,,,,,,,,,,,,,,,,,,,,,,,,,,,,,,,,,,,,,,,,,,,,,,,,,,,,,,,,,,,,,,,,,,,,,,,,,,,,,,
,,659c265857dc159282edf1c4,2024-02-22_04h12.52.819,kallum_motion_pilot,2023.2.2,Win32,142.8571429,659c265857dc159282edf1c4,65d6bb0e977760de756971f7,65d6c9a1804293d44dba0b15,0.0334,0.0335,1,84,246,64,1,onetwo,,,,,,,,,,,,,,,,,,,,,,,,,,,,,,,,,,,,,,,,,,,,,,,,,,,,,,,,,,,,,,,,,,,,,,,,,,,,,,,,,,,,,,,,,,,,,,,,,,,,,,,,,,,,,,,,,,,,,,,,,,,,,,,,,,,,,,,,,
,,659c265857dc159282edf1c4,2024-02-22_04h12.52.819,kallum_motion_pilot,2023.2.2,Win32,142.8571429,659c265857dc159282edf1c4,65d6bb0e977760de756971f7,65d6c9a1804293d44dba0b15,0.0335,0.0336,1,85,247,57,1,onethree,,,,,,,,,,,,,,,,,,,,,,,,,,,,,,,,,,,,,,,,,,,,,,,,,,,,,,,,,,,,,,,,,,,,,,,,,,,,,,,,,,,,,,,,,,,,,,,,,,,,,,,,,,,,,,,,,,,,,,,,,,,,,,,,,,,,,,,,,
,,659c265857dc159282edf1c4,2024-02-22_04h12.52.819,kallum_motion_pilot,2023.2.2,Win32,142.8571429,659c265857dc159282edf1c4,65d6bb0e977760de756971f7,65d6c9a1804293d44dba0b15,0.0337,0.0337,1,86,248,92,1,sevenfive,,,,,,,,,,,,,,,,,,,,,,,,,,,,,,,,,,,,,,,,,,,,,,,,,,,,,,,,,,,,,,,,,,,,,,,,,,,,,,,,,,,,,,,,,,,,,,,,,,,,,,,,,,,,,,,,,,,,,,,,,,,,,,,,,,,,,,,,,
,,659c265857dc159282edf1c4,2024-02-22_04h12.52.819,kallum_motion_pilot,2023.2.2,Win32,142.8571429,659c265857dc159282edf1c4,65d6bb0e977760de756971f7,65d6c9a1804293d44dba0b15,0.0337,0.0338,1,87,249,75,1,twofour,,,,,,,,,,,,,,,,,,,,,,,,,,,,,,,,,,,,,,,,,,,,,,,,,,,,,,,,,,,,,,,,,,,,,,,,,,,,,,,,,,,,,,,,,,,,,,,,,,,,,,,,,,,,,,,,,,,,,,,,,,,,,,,,,,,,,,,,,
,,659c265857dc159282edf1c4,2024-02-22_04h12.52.819,kallum_motion_pilot,2023.2.2,Win32,142.8571429,659c265857dc159282edf1c4,65d6bb0e977760de756971f7,65d6c9a1804293d44dba0b15,0.0338,0.0338,1,88,250,22,1,fourtwo,,,,,,,,,,,,,,,,,,,,,,,,,,,,,,,,,,,,,,,,,,,,,,,,,,,,,,,,,,,,,,,,,,,,,,,,,,,,,,,,,,,,,,,,,,,,,,,,,,,,,,,,,,,,,,,,,,,,,,,,,,,,,,,,,,,,,,,,,
,,659c265857dc159282edf1c4,2024-02-22_04h12.52.819,kallum_motion_pilot,2023.2.2,Win32,142.8571429,659c265857dc159282edf1c4,65d6bb0e977760de756971f7,65d6c9a1804293d44dba0b15,0.0339,0.034,1,89,251,54,1,fourtwo,,,,,,,,,,,,,,,,,,,,,,,,,,,,,,,,,,,,,,,,,,,,,,,,,,,,,,,,,,,,,,,,,,,,,,,,,,,,,,,,,,,,,,,,,,,,,,,,,,,,,,,,,,,,,,,,,,,,,,,,,,,,,,,,,,,,,,,,,
,,659c265857dc159282edf1c4,2024-02-22_04h12.52.819,kallum_motion_pilot,2023.2.2,Win32,142.8571429,659c265857dc159282edf1c4,65d6bb0e977760de756971f7,65d6c9a1804293d44dba0b15,0.034,0.0341,1,90,252,148,1,sevenfive,,,,,,,,,,,,,,,,,,,,,,,,,,,,,,,,,,,,,,,,,,,,,,,,,,,,,,,,,,,,,,,,,,,,,,,,,,,,,,,,,,,,,,,,,,,,,,,,,,,,,,,,,,,,,,,,,,,,,,,,,,,,,,,,,,,,,,,,,
,,659c265857dc159282edf1c4,2024-02-22_04h12.52.819,kallum_motion_pilot,2023.2.2,Win32,142.8571429,659c265857dc159282edf1c4,65d6bb0e977760de756971f7,65d6c9a1804293d44dba0b15,0.0341,0.0341,1,91,253,39,1,fourthree,,,,,,,,,,,,,,,,,,,,,,,,,,,,,,,,,,,,,,,,,,,,,,,,,,,,,,,,,,,,,,,,,,,,,,,,,,,,,,,,,,,,,,,,,,,,,,,,,,,,,,,,,,,,,,,,,,,,,,,,,,,,,,,,,,,,,,,,,
,,659c265857dc159282edf1c4,2024-02-22_04h12.52.819,kallum_motion_pilot,2023.2.2,Win32,142.8571429,659c265857dc159282edf1c4,65d6bb0e977760de756971f7,65d6c9a1804293d44dba0b15,0.0341,0.0342,1,92,254,26,1,twoone,,,,,,,,,,,,,,,,,,,,,,,,,,,,,,,,,,,,,,,,,,,,,,,,,,,,,,,,,,,,,,,,,,,,,,,,,,,,,,,,,,,,,,,,,,,,,,,,,,,,,,,,,,,,,,,,,,,,,,,,,,,,,,,,,,,,,,,,,
,,659c265857dc159282edf1c4,2024-02-22_04h12.52.819,kallum_motion_pilot,2023.2.2,Win32,142.8571429,659c265857dc159282edf1c4,65d6bb0e977760de756971f7,65d6c9a1804293d44dba0b15,0.0342,0.0344,1,93,255,38,1,fourtwo,,,,,,,,,,,,,,,,,,,,,,,,,,,,,,,,,,,,,,,,,,,,,,,,,,,,,,,,,,,,,,,,,,,,,,,,,,,,,,,,,,,,,,,,,,,,,,,,,,,,,,,,,,,,,,,,,,,,,,,,,,,,,,,,,,,,,,,,,
,,659c265857dc159282edf1c4,2024-02-22_04h12.52.819,kallum_motion_pilot,2023.2.2,Win32,142.8571429,659c265857dc159282edf1c4,65d6bb0e977760de756971f7,65d6c9a1804293d44dba0b15,0.0344,0.0344,1,94,256,113,1,fiveseven,,,,,,,,,,,,,,,,,,,,,,,,,,,,,,,,,,,,,,,,,,,,,,,,,,,,,,,,,,,,,,,,,,,,,,,,,,,,,,,,,,,,,,,,,,,,,,,,,,,,,,,,,,,,,,,,,,,,,,,,,,,,,,,,,,,,,,,,,
,,659c265857dc159282edf1c4,2024-02-22_04h12.52.819,kallum_motion_pilot,2023.2.2,Win32,142.8571429,659c265857dc159282edf1c4,65d6bb0e977760de756971f7,65d6c9a1804293d44dba0b15,0.0345,0.0345,1,95,257,14,1,fourtwo,,,,,,,,,,,,,,,,,,,,,,,,,,,,,,,,,,,,,,,,,,,,,,,,,,,,,,,,,,,,,,,,,,,,,,,,,,,,,,,,,,,,,,,,,,,,,,,,,,,,,,,,,,,,,,,,,,,,,,,,,,,,,,,,,,,,,,,,,
,,659c265857dc159282edf1c4,2024-02-22_04h12.52.819,kallum_motion_pilot,2023.2.2,Win32,142.8571429,659c265857dc159282edf1c4,65d6bb0e977760de756971f7,65d6c9a1804293d44dba0b15,0.0346,0.0347,1,96,258,10,1,twoone,,,,,,,,,,,,,,,,,,,,,,,,,,,,,,,,,,,,,,,,,,,,,,,,,,,,,,,,,,,,,,,,,,,,,,,,,,,,,,,,,,,,,,,,,,,,,,,,,,,,,,,,,,,,,,,,,,,,,,,,,,,,,,,,,,,,,,,,,
,,659c265857dc159282edf1c4,2024-02-22_04h12.52.819,kallum_motion_pilot,2023.2.2,Win32,142.8571429,659c265857dc159282edf1c4,65d6bb0e977760de756971f7,65d6c9a1804293d44dba0b15,0.0347,0.0347,1,97,259,4,1,threeone,,,,,,,,,,,,,,,,,,,,,,,,,,,,,,,,,,,,,,,,,,,,,,,,,,,,,,,,,,,,,,,,,,,,,,,,,,,,,,,,,,,,,,,,,,,,,,,,,,,,,,,,,,,,,,,,,,,,,,,,,,,,,,,,,,,,,,,,,
,,659c265857dc159282edf1c4,2024-02-22_04h12.52.819,kallum_motion_pilot,2023.2.2,Win32,142.8571429,659c265857dc159282edf1c4,65d6bb0e977760de756971f7,65d6c9a1804293d44dba0b15,0.0347,0.0348,1,98,260,150,1,eightsix,,,,,,,,,,,,,,,,,,,,,,,,,,,,,,,,,,,,,,,,,,,,,,,,,,,,,,,,,,,,,,,,,,,,,,,,,,,,,,,,,,,,,,,,,,,,,,,,,,,,,,,,,,,,,,,,,,,,,,,,,,,,,,,,,,,,,,,,,
,,659c265857dc159282edf1c4,2024-02-22_04h12.52.819,kallum_motion_pilot,2023.2.2,Win32,142.8571429,659c265857dc159282edf1c4,65d6bb0e977760de756971f7,65d6c9a1804293d44dba0b15,0.0348,0.0349,1,99,261,99,1,sixeight,,,,,,,,,,,,,,,,,,,,,,,,,,,,,,,,,,,,,,,,,,,,,,,,,,,,,,,,,,,,,,,,,,,,,,,,,,,,,,,,,,,,,,,,,,,,,,,,,,,,,,,,,,,,,,,,,,,,,,,,,,,,,,,,,,,,,,,,,
,,659c265857dc159282edf1c4,2024-02-22_04h12.52.819,kallum_motion_pilot,2023.2.2,Win32,142.8571429,659c265857dc159282edf1c4,65d6bb0e977760de756971f7,65d6c9a1804293d44dba0b15,0.0349,0.035,1,100,262,139,1,sixeight,,,,,,,,,,,,,,,,,,,,,,,,,,,,,,,,,,,,,,,,,,,,,,,,,,,,,,,,,,,,,,,,,,,,,,,,,,,,,,,,,,,,,,,,,,,,,,,,,,,,,,,,,,,,,,,,,,,,,,,,,,,,,,,,,,,,,,,,,
,,659c265857dc159282edf1c4,2024-02-22_04h12.52.819,kallum_motion_pilot,2023.2.2,Win32,142.8571429,659c265857dc159282edf1c4,65d6bb0e977760de756971f7,65d6c9a1804293d44dba0b15,0.0351,0.0351,1,101,263,160,1,fivesix,,,,,,,,,,,,,,,,,,,,,,,,,,,,,,,,,,,,,,,,,,,,,,,,,,,,,,,,,,,,,,,,,,,,,,,,,,,,,,,,,,,,,,,,,,,,,,,,,,,,,,,,,,,,,,,,,,,,,,,,,,,,,,,,,,,,,,,,,
,,659c265857dc159282edf1c4,2024-02-22_04h12.52.819,kallum_motion_pilot,2023.2.2,Win32,142.8571429,659c265857dc159282edf1c4,65d6bb0e977760de756971f7,65d6c9a1804293d44dba0b15,0.0352,0.0352,1,102,264,87,1,eightseven,,,,,,,,,,,,,,,,,,,,,,,,,,,,,,,,,,,,,,,,,,,,,,,,,,,,,,,,,,,,,,,,,,,,,,,,,,,,,,,,,,,,,,,,,,,,,,,,,,,,,,,,,,,,,,,,,,,,,,,,,,,,,,,,,,,,,,,,,
,,659c265857dc159282edf1c4,2024-02-22_04h12.52.819,kallum_motion_pilot,2023.2.2,Win32,142.8571429,659c265857dc159282edf1c4,65d6bb0e977760de756971f7,65d6c9a1804293d44dba0b15,0.0353,0.0353,1,103,265,83,1,sixeight,,,,,,,,,,,,,,,,,,,,,,,,,,,,,,,,,,,,,,,,,,,,,,,,,,,,,,,,,,,,,,,,,,,,,,,,,,,,,,,,,,,,,,,,,,,,,,,,,,,,,,,,,,,,,,,,,,,,,,,,,,,,,,,,,,,,,,,,,
,,659c265857dc159282edf1c4,2024-02-22_04h12.52.819,kallum_motion_pilot,2023.2.2,Win32,142.8571429,659c265857dc159282edf1c4,65d6bb0e977760de756971f7,65d6c9a1804293d44dba0b15,0.0354,0.0354,1,104,266,155,1,sixeight,,,,,,,,,,,,,,,,,,,,,,,,,,,,,,,,,,,,,,,,,,,,,,,,,,,,,,,,,,,,,,,,,,,,,,,,,,,,,,,,,,,,,,,,,,,,,,,,,,,,,,,,,,,,,,,,,,,,,,,,,,,,,,,,,,,,,,,,,
,,659c265857dc159282edf1c4,2024-02-22_04h12.52.819,kallum_motion_pilot,2023.2.2,Win32,142.8571429,659c265857dc159282edf1c4,65d6bb0e977760de756971f7,65d6c9a1804293d44dba0b15,0.0355,0.0355,1,105,267,69,1,threefour,,,,,,,,,,,,,,,,,,,,,,,,,,,,,,,,,,,,,,,,,,,,,,,,,,,,,,,,,,,,,,,,,,,,,,,,,,,,,,,,,,,,,,,,,,,,,,,,,,,,,,,,,,,,,,,,,,,,,,,,,,,,,,,,,,,,,,,,,
,,659c265857dc159282edf1c4,2024-02-22_04h12.52.819,kallum_motion_pilot,2023.2.2,Win32,142.8571429,659c265857dc159282edf1c4,65d6bb0e977760de756971f7,65d6c9a1804293d44dba0b15,0.0355,0.0356,1,106,268,104,1,fivesix,,,,,,,,,,,,,,,,,,,,,,,,,,,,,,,,,,,,,,,,,,,,,,,,,,,,,,,,,,,,,,,,,,,,,,,,,,,,,,,,,,,,,,,,,,,,,,,,,,,,,,,,,,,,,,,,,,,,,,,,,,,,,,,,,,,,,,,,,
,,659c265857dc159282edf1c4,2024-02-22_04h12.52.819,kallum_motion_pilot,2023.2.2,Win32,142.8571429,659c265857dc159282edf1c4,65d6bb0e977760de756971f7,65d6c9a1804293d44dba0b15,0.0356,0.0357,1,107,269,159,1,eightseven,,,,,,,,,,,,,,,,,,,,,,,,,,,,,,,,,,,,,,,,,,,,,,,,,,,,,,,,,,,,,,,,,,,,,,,,,,,,,,,,,,,,,,,,,,,,,,,,,,,,,,,,,,,,,,,,,,,,,,,,,,,,,,,,,,,,,,,,,
,,659c265857dc159282edf1c4,2024-02-22_04h12.52.819,kallum_motion_pilot,2023.2.2,Win32,142.8571429,659c265857dc159282edf1c4,65d6bb0e977760de756971f7,65d6c9a1804293d44dba0b15,0.0358,0.0358,1,108,270,13,1,threefour,,,,,,,,,,,,,,,,,,,,,,,,,,,,,,,,,,,,,,,,,,,,,,,,,,,,,,,,,,,,,,,,,,,,,,,,,,,,,,,,,,,,,,,,,,,,,,,,,,,,,,,,,,,,,,,,,,,,,,,,,,,,,,,,,,,,,,,,,
,,659c265857dc159282edf1c4,2024-02-22_04h12.52.819,kallum_motion_pilot,2023.2.2,Win32,142.8571429,659c265857dc159282edf1c4,65d6bb0e977760de756971f7,65d6c9a1804293d44dba0b15,0.0358,0.0359,1,109,271,77,1,threefour,,,,,,,,,,,,,,,,,,,,,,,,,,,,,,,,,,,,,,,,,,,,,,,,,,,,,,,,,,,,,,,,,,,,,,,,,,,,,,,,,,,,,,,,,,,,,,,,,,,,,,,,,,,,,,,,,,,,,,,,,,,,,,,,,,,,,,,,,
,,659c265857dc159282edf1c4,2024-02-22_04h12.52.819,kallum_motion_pilot,2023.2.2,Win32,142.8571429,659c265857dc159282edf1c4,65d6bb0e977760de756971f7,65d6c9a1804293d44dba0b15,0.0359,0.036,1,110,272,70,1,fourtwo,,,,,,,,,,,,,,,,,,,,,,,,,,,,,,,,,,,,,,,,,,,,,,,,,,,,,,,,,,,,,,,,,,,,,,,,,,,,,,,,,,,,,,,,,,,,,,,,,,,,,,,,,,,,,,,,,,,,,,,,,,,,,,,,,,,,,,,,,
,,659c265857dc159282edf1c4,2024-02-22_04h12.52.819,kallum_motion_pilot,2023.2.2,Win32,142.8571429,659c265857dc159282edf1c4,65d6bb0e977760de756971f7,65d6c9a1804293d44dba0b15,0.0361,0.0361,1,111,273,68,1,threeone,,,,,,,,,,,,,,,,,,,,,,,,,,,,,,,,,,,,,,,,,,,,,,,,,,,,,,,,,,,,,,,,,,,,,,,,,,,,,,,,,,,,,,,,,,,,,,,,,,,,,,,,,,,,,,,,,,,,,,,,,,,,,,,,,,,,,,,,,
,,659c265857dc159282edf1c4,2024-02-22_04h12.52.819,kallum_motion_pilot,2023.2.2,Win32,142.8571429,659c265857dc159282edf1c4,65d6bb0e977760de756971f7,65d6c9a1804293d44dba0b15,0.0361,0.0361,1,112,274,133,1,seveneight,,,,,,,,,,,,,,,,,,,,,,,,,,,,,,,,,,,,,,,,,,,,,,,,,,,,,,,,,,,,,,,,,,,,,,,,,,,,,,,,,,,,,,,,,,,,,,,,,,,,,,,,,,,,,,,,,,,,,,,,,,,,,,,,,,,,,,,,,
,,659c265857dc159282edf1c4,2024-02-22_04h12.52.819,kallum_motion_pilot,2023.2.2,Win32,142.8571429,659c265857dc159282edf1c4,65d6bb0e977760de756971f7,65d6c9a1804293d44dba0b15,0.0362,0.0363,1,113,275,0,1,onetwo,,,,,,,,,,,,,,,,,,,,,,,,,,,,,,,,,,,,,,,,,,,,,,,,,,,,,,,,,,,,,,,,,,,,,,,,,,,,,,,,,,,,,,,,,,,,,,,,,,,,,,,,,,,,,,,,,,,,,,,,,,,,,,,,,,,,,,,,,
,,659c265857dc159282edf1c4,2024-02-22_04h12.52.819,kallum_motion_pilot,2023.2.2,Win32,142.8571429,659c265857dc159282edf1c4,65d6bb0e977760de756971f7,65d6c9a1804293d44dba0b15,0.0363,0.0363,1,114,276,126,1,eightsix,,,,,,,,,,,,,,,,,,,,,,,,,,,,,,,,,,,,,,,,,,,,,,,,,,,,,,,,,,,,,,,,,,,,,,,,,,,,,,,,,,,,,,,,,,,,,,,,,,,,,,,,,,,,,,,,,,,,,,,,,,,,,,,,,,,,,,,,,
,,659c265857dc159282edf1c4,2024-02-22_04h12.52.819,kallum_motion_pilot,2023.2.2,Win32,142.8571429,659c265857dc159282edf1c4,65d6bb0e977760de756971f7,65d6c9a1804293d44dba0b15,0.0364,0.0365,1,115,277,47,1,fourthree,,,,,,,,,,,,,,,,,,,,,,,,,,,,,,,,,,,,,,,,,,,,,,,,,,,,,,,,,,,,,,,,,,,,,,,,,,,,,,,,,,,,,,,,,,,,,,,,,,,,,,,,,,,,,,,,,,,,,,,,,,,,,,,,,,,,,,,,,
