startup.started,startup.stopped,Prolific ID*,date,expName,psychopyVersion,OS,frameRate,participant,study_id,session,stimpositions.started,stimpositions.stopped,hardcoded_stimulus_positions.thisRepN,hardcoded_stimulus_positions.thisTrialN,hardcoded_stimulus_positions.thisN,hardcoded_stimulus_positions.thisIndex,hardcoded_stimulus_positions.ran,StimulusPos,stimorientation.started,stimorientation.stopped,prac_stimorientation_import_loop.thisRepN,prac_stimorientation_import_loop.thisTrialN,prac_stimorientation_import_loop.thisN,prac_stimorientation_import_loop.thisIndex,prac_stimorientation_import_loop.ran,Stimorientation,welcome_instr.started,welcome_instr.stopped,key_resp.keys,key_resp.rt,key_resp.duration,response_steppedout_1.started,response_steppedout_1.stopped,key_resp_20.keys,key_resp_20.rt,key_resp_20.duration,response_steppedout_2.started,response_steppedout_2.stopped,key_resp_19.keys,key_resp_19.rt,key_resp_19.duration,stim_response_instr.started,stim_response_instr.stopped,key_resp_15.keys,key_resp_15.rt,key_resp_15.duration,direction_instr_2.started,direction_instr_2.stopped,key_resp_9.keys,key_resp_9.rt,key_resp_9.duration,instr_prac.started,instr_prac.stopped,key_resp_10.keys,key_resp_10.rt,key_resp_10.duration,Stim1_display_prac.started,Stim1_display_prac.stopped,Ecc,Circle1_ori,Circle2_ori,response_prac.started,similarity,response_time,response_prac.stopped,mouse_5.x,mouse_5.y,mouse_5.leftButton,mouse_5.midButton,mouse_5.rightButton,mouse_5.clicked_name,responseprac_feedback.started,responseprac_feedback.stopped,summary2_prac.started,summary2_prac.stopped,mouse_6.x,mouse_6.y,mouse_6.leftButton,mouse_6.midButton,mouse_6.rightButton,mouse_6.clicked_name,duringprac.thisRepN,duringprac.thisTrialN,duringprac.thisN,duringprac.thisIndex,duringprac.ran,begin.started,begin.stopped,key_resp_22.keys,key_resp_22.rt,key_resp_22.duration,Stim1_display.started,Stim1_display.stopped,circle1_ori,circle2_ori,circle1_SF,circle2_SF,response.started,response.stopped,mouse.x,mouse.y,mouse.leftButton,mouse.midButton,mouse.rightButton,mouse.clicked_name,trialnumber,double_pass.thisRepN,double_pass.thisTrialN,double_pass.thisN,double_pass.thisIndex,double_pass.ran,double_pass.order,main_trial.thisRepN,main_trial.thisTrialN,main_trial.thisN,main_trial.thisIndex,main_trial.ran,main_trial.order,Trial_Counter,Catch,Frequencies,response_2.started,response_2.stopped,mouse_2.x,mouse_2.y,mouse_2.leftButton,mouse_2.midButton,mouse_2.rightButton,mouse_2.clicked_name,special_trial.started,special_trial.stopped,catch_1.started,catch_1.stopped,mouse_3.x,mouse_3.y,mouse_3.leftButton,mouse_3.midButton,mouse_3.rightButton,catchresponse,catchnumber,response_time_catch,response_sum.started,response_sum.stopped,mouse_11.x,mouse_11.y,mouse_11.leftButton,mouse_11.midButton,mouse_11.rightButton,flip_presentation_sequence_for_double_pass.started,flip_presentation_sequence_for_double_pass.stopped,goodbye.started,goodbye.stopped,key_resp_3.keys,key_resp_3.rt,key_resp_3.duration
0.0006,0.0006,659c0043b2992ddfe6be3694,2024-02-22_14h28.20.969,kallum_motion_pilot,2023.2.2,Win32,59.88023952,659c0043b2992ddfe6be3694,65d6bb0e977760de756971f7,65d6be231a820dea5ab9ffa9,,,,,,,,,,,,,,,,,,,,,,,,,,,,,,,,,,,,,,,,,,,,,,,,,,,,,,,,,,,,,,,,,,,,,,,,,,,,,,,,,,,,,,,,,,,,,,,,,,,,,,,,,,,,,,,,,,,,,,,,,,,,,,,,,,,,,,,,,,,,,,,,,
,,659c0043b2992ddfe6be3694,2024-02-22_14h28.20.969,kallum_motion_pilot,2023.2.2,Win32,59.88023952,659c0043b2992ddfe6be3694,65d6bb0e977760de756971f7,65d6be231a820dea5ab9ffa9,0.0209,0.021,0,0,0,151,1,eightseven,,,,,,,,,,,,,,,,,,,,,,,,,,,,,,,,,,,,,,,,,,,,,,,,,,,,,,,,,,,,,,,,,,,,,,,,,,,,,,,,,,,,,,,,,,,,,,,,,,,,,,,,,,,,,,,,,,,,,,,,,,,,,,,,,,,,,,,,,
,,659c0043b2992ddfe6be3694,2024-02-22_14h28.20.969,kallum_motion_pilot,2023.2.2,Win32,59.88023952,659c0043b2992ddfe6be3694,65d6bb0e977760de756971f7,65d6be231a820dea5ab9ffa9,0.0212,0.0212,0,1,1,98,1,sixfive,,,,,,,,,,,,,,,,,,,,,,,,,,,,,,,,,,,,,,,,,,,,,,,,,,,,,,,,,,,,,,,,,,,,,,,,,,,,,,,,,,,,,,,,,,,,,,,,,,,,,,,,,,,,,,,,,,,,,,,,,,,,,,,,,,,,,,,,,
,,659c0043b2992ddfe6be3694,2024-02-22_14h28.20.969,kallum_motion_pilot,2023.2.2,Win32,59.88023952,659c0043b2992ddfe6be3694,65d6bb0e977760de756971f7,65d6be231a820dea5ab9ffa9,0.0213,0.0214,0,2,2,152,1,fivesix,,,,,,,,,,,,,,,,,,,,,,,,,,,,,,,,,,,,,,,,,,,,,,,,,,,,,,,,,,,,,,,,,,,,,,,,,,,,,,,,,,,,,,,,,,,,,,,,,,,,,,,,,,,,,,,,,,,,,,,,,,,,,,,,,,,,,,,,,
,,659c0043b2992ddfe6be3694,2024-02-22_14h28.20.969,kallum_motion_pilot,2023.2.2,Win32,59.88023952,659c0043b2992ddfe6be3694,65d6bb0e977760de756971f7,65d6be231a820dea5ab9ffa9,0.0214,0.0214,0,3,3,138,1,sixfive,,,,,,,,,,,,,,,,,,,,,,,,,,,,,,,,,,,,,,,,,,,,,,,,,,,,,,,,,,,,,,,,,,,,,,,,,,,,,,,,,,,,,,,,,,,,,,,,,,,,,,,,,,,,,,,,,,,,,,,,,,,,,,,,,,,,,,,,,
,,659c0043b2992ddfe6be3694,2024-02-22_14h28.20.969,kallum_motion_pilot,2023.2.2,Win32,59.88023952,659c0043b2992ddfe6be3694,65d6bb0e977760de756971f7,65d6be231a820dea5ab9ffa9,0.0215,0.0215,0,4,4,41,1,onethree,,,,,,,,,,,,,,,,,,,,,,,,,,,,,,,,,,,,,,,,,,,,,,,,,,,,,,,,,,,,,,,,,,,,,,,,,,,,,,,,,,,,,,,,,,,,,,,,,,,,,,,,,,,,,,,,,,,,,,,,,,,,,,,,,,,,,,,,,
,,659c0043b2992ddfe6be3694,2024-02-22_14h28.20.969,kallum_motion_pilot,2023.2.2,Win32,59.88023952,659c0043b2992ddfe6be3694,65d6bb0e977760de756971f7,65d6be231a820dea5ab9ffa9,0.0216,0.0216,0,5,5,5,1,threefour,,,,,,,,,,,,,,,,,,,,,,,,,,,,,,,,,,,,,,,,,,,,,,,,,,,,,,,,,,,,,,,,,,,,,,,,,,,,,,,,,,,,,,,,,,,,,,,,,,,,,,,,,,,,,,,,,,,,,,,,,,,,,,,,,,,,,,,,,
,,659c0043b2992ddfe6be3694,2024-02-22_14h28.20.969,kallum_motion_pilot,2023.2.2,Win32,59.88023952,659c0043b2992ddfe6be3694,65d6bb0e977760de756971f7,65d6be231a820dea5ab9ffa9,0.0217,0.0217,0,6,6,28,1,threeone,,,,,,,,,,,,,,,,,,,,,,,,,,,,,,,,,,,,,,,,,,,,,,,,,,,,,,,,,,,,,,,,,,,,,,,,,,,,,,,,,,,,,,,,,,,,,,,,,,,,,,,,,,,,,,,,,,,,,,,,,,,,,,,,,,,,,,,,,
,,659c0043b2992ddfe6be3694,2024-02-22_14h28.20.969,kallum_motion_pilot,2023.2.2,Win32,59.88023952,659c0043b2992ddfe6be3694,65d6bb0e977760de756971f7,65d6be231a820dea5ab9ffa9,0.0217,0.0217,0,7,7,105,1,fiveseven,,,,,,,,,,,,,,,,,,,,,,,,,,,,,,,,,,,,,,,,,,,,,,,,,,,,,,,,,,,,,,,,,,,,,,,,,,,,,,,,,,,,,,,,,,,,,,,,,,,,,,,,,,,,,,,,,,,,,,,,,,,,,,,,,,,,,,,,,
,,659c0043b2992ddfe6be3694,2024-02-22_14h28.20.969,kallum_motion_pilot,2023.2.2,Win32,59.88023952,659c0043b2992ddfe6be3694,65d6bb0e977760de756971f7,65d6be231a820dea5ab9ffa9,0.022,0.022,0,8,8,114,1,sixfive,,,,,,,,,,,,,,,,,,,,,,,,,,,,,,,,,,,,,,,,,,,,,,,,,,,,,,,,,,,,,,,,,,,,,,,,,,,,,,,,,,,,,,,,,,,,,,,,,,,,,,,,,,,,,,,,,,,,,,,,,,,,,,,,,,,,,,,,,
,,659c0043b2992ddfe6be3694,2024-02-22_14h28.20.969,kallum_motion_pilot,2023.2.2,Win32,59.88023952,659c0043b2992ddfe6be3694,65d6bb0e977760de756971f7,65d6be231a820dea5ab9ffa9,0.0221,0.0221,0,9,9,69,1,threefour,,,,,,,,,,,,,,,,,,,,,,,,,,,,,,,,,,,,,,,,,,,,,,,,,,,,,,,,,,,,,,,,,,,,,,,,,,,,,,,,,,,,,,,,,,,,,,,,,,,,,,,,,,,,,,,,,,,,,,,,,,,,,,,,,,,,,,,,,
,,659c0043b2992ddfe6be3694,2024-02-22_14h28.20.969,kallum_motion_pilot,2023.2.2,Win32,59.88023952,659c0043b2992ddfe6be3694,65d6bb0e977760de756971f7,65d6be231a820dea5ab9ffa9,0.0222,0.0222,0,10,10,59,1,twofour,,,,,,,,,,,,,,,,,,,,,,,,,,,,,,,,,,,,,,,,,,,,,,,,,,,,,,,,,,,,,,,,,,,,,,,,,,,,,,,,,,,,,,,,,,,,,,,,,,,,,,,,,,,,,,,,,,,,,,,,,,,,,,,,,,,,,,,,,
,,659c0043b2992ddfe6be3694,2024-02-22_14h28.20.969,kallum_motion_pilot,2023.2.2,Win32,59.88023952,659c0043b2992ddfe6be3694,65d6bb0e977760de756971f7,65d6be231a820dea5ab9ffa9,0.0222,0.0223,0,11,11,34,1,twoone,,,,,,,,,,,,,,,,,,,,,,,,,,,,,,,,,,,,,,,,,,,,,,,,,,,,,,,,,,,,,,,,,,,,,,,,,,,,,,,,,,,,,,,,,,,,,,,,,,,,,,,,,,,,,,,,,,,,,,,,,,,,,,,,,,,,,,,,,
,,659c0043b2992ddfe6be3694,2024-02-22_14h28.20.969,kallum_motion_pilot,2023.2.2,Win32,59.88023952,659c0043b2992ddfe6be3694,65d6bb0e977760de756971f7,65d6be231a820dea5ab9ffa9,0.0223,0.0223,0,12,12,108,1,sevenfive,,,,,,,,,,,,,,,,,,,,,,,,,,,,,,,,,,,,,,,,,,,,,,,,,,,,,,,,,,,,,,,,,,,,,,,,,,,,,,,,,,,,,,,,,,,,,,,,,,,,,,,,,,,,,,,,,,,,,,,,,,,,,,,,,,,,,,,,,
,,659c0043b2992ddfe6be3694,2024-02-22_14h28.20.969,kallum_motion_pilot,2023.2.2,Win32,59.88023952,659c0043b2992ddfe6be3694,65d6bb0e977760de756971f7,65d6be231a820dea5ab9ffa9,0.0224,0.0224,0,13,13,67,1,twofour,,,,,,,,,,,,,,,,,,,,,,,,,,,,,,,,,,,,,,,,,,,,,,,,,,,,,,,,,,,,,,,,,,,,,,,,,,,,,,,,,,,,,,,,,,,,,,,,,,,,,,,,,,,,,,,,,,,,,,,,,,,,,,,,,,,,,,,,,
,,659c0043b2992ddfe6be3694,2024-02-22_14h28.20.969,kallum_motion_pilot,2023.2.2,Win32,59.88023952,659c0043b2992ddfe6be3694,65d6bb0e977760de756971f7,65d6be231a820dea5ab9ffa9,0.0224,0.0225,0,14,14,7,1,fourthree,,,,,,,,,,,,,,,,,,,,,,,,,,,,,,,,,,,,,,,,,,,,,,,,,,,,,,,,,,,,,,,,,,,,,,,,,,,,,,,,,,,,,,,,,,,,,,,,,,,,,,,,,,,,,,,,,,,,,,,,,,,,,,,,,,,,,,,,,
,,659c0043b2992ddfe6be3694,2024-02-22_14h28.20.969,kallum_motion_pilot,2023.2.2,Win32,59.88023952,659c0043b2992ddfe6be3694,65d6bb0e977760de756971f7,65d6be231a820dea5ab9ffa9,0.0225,0.0225,0,15,15,70,1,fourtwo,,,,,,,,,,,,,,,,,,,,,,,,,,,,,,,,,,,,,,,,,,,,,,,,,,,,,,,,,,,,,,,,,,,,,,,,,,,,,,,,,,,,,,,,,,,,,,,,,,,,,,,,,,,,,,,,,,,,,,,,,,,,,,,,,,,,,,,,,
,,659c0043b2992ddfe6be3694,2024-02-22_14h28.20.969,kallum_motion_pilot,2023.2.2,Win32,59.88023952,659c0043b2992ddfe6be3694,65d6bb0e977760de756971f7,65d6be231a820dea5ab9ffa9,0.0226,0.0227,0,16,16,90,1,sixfive,,,,,,,,,,,,,,,,,,,,,,,,,,,,,,,,,,,,,,,,,,,,,,,,,,,,,,,,,,,,,,,,,,,,,,,,,,,,,,,,,,,,,,,,,,,,,,,,,,,,,,,,,,,,,,,,,,,,,,,,,,,,,,,,,,,,,,,,,
,,659c0043b2992ddfe6be3694,2024-02-22_14h28.20.969,kallum_motion_pilot,2023.2.2,Win32,59.88023952,659c0043b2992ddfe6be3694,65d6bb0e977760de756971f7,65d6be231a820dea5ab9ffa9,0.0227,0.0227,0,17,17,18,1,twoone,,,,,,,,,,,,,,,,,,,,,,,,,,,,,,,,,,,,,,,,,,,,,,,,,,,,,,,,,,,,,,,,,,,,,,,,,,,,,,,,,,,,,,,,,,,,,,,,,,,,,,,,,,,,,,,,,,,,,,,,,,,,,,,,,,,,,,,,,
,,659c0043b2992ddfe6be3694,2024-02-22_14h28.20.969,kallum_motion_pilot,2023.2.2,Win32,59.88023952,659c0043b2992ddfe6be3694,65d6bb0e977760de756971f7,65d6be231a820dea5ab9ffa9,0.0228,0.0228,0,18,18,88,1,fivesix,,,,,,,,,,,,,,,,,,,,,,,,,,,,,,,,,,,,,,,,,,,,,,,,,,,,,,,,,,,,,,,,,,,,,,,,,,,,,,,,,,,,,,,,,,,,,,,,,,,,,,,,,,,,,,,,,,,,,,,,,,,,,,,,,,,,,,,,,
,,659c0043b2992ddfe6be3694,2024-02-22_14h28.20.969,kallum_motion_pilot,2023.2.2,Win32,59.88023952,659c0043b2992ddfe6be3694,65d6bb0e977760de756971f7,65d6be231a820dea5ab9ffa9,0.0229,0.0229,0,19,19,111,1,eightseven,,,,,,,,,,,,,,,,,,,,,,,,,,,,,,,,,,,,,,,,,,,,,,,,,,,,,,,,,,,,,,,,,,,,,,,,,,,,,,,,,,,,,,,,,,,,,,,,,,,,,,,,,,,,,,,,,,,,,,,,,,,,,,,,,,,,,,,,,
,,659c0043b2992ddfe6be3694,2024-02-22_14h28.20.969,kallum_motion_pilot,2023.2.2,Win32,59.88023952,659c0043b2992ddfe6be3694,65d6bb0e977760de756971f7,65d6be231a820dea5ab9ffa9,0.023,0.023,0,20,20,29,1,threefour,,,,,,,,,,,,,,,,,,,,,,,,,,,,,,,,,,,,,,,,,,,,,,,,,,,,,,,,,,,,,,,,,,,,,,,,,,,,,,,,,,,,,,,,,,,,,,,,,,,,,,,,,,,,,,,,,,,,,,,,,,,,,,,,,,,,,,,,,
,,659c0043b2992ddfe6be3694,2024-02-22_14h28.20.969,kallum_motion_pilot,2023.2.2,Win32,59.88023952,659c0043b2992ddfe6be3694,65d6bb0e977760de756971f7,65d6be231a820dea5ab9ffa9,0.023,0.023,0,21,21,137,1,fiveseven,,,,,,,,,,,,,,,,,,,,,,,,,,,,,,,,,,,,,,,,,,,,,,,,,,,,,,,,,,,,,,,,,,,,,,,,,,,,,,,,,,,,,,,,,,,,,,,,,,,,,,,,,,,,,,,,,,,,,,,,,,,,,,,,,,,,,,,,,
,,659c0043b2992ddfe6be3694,2024-02-22_14h28.20.969,kallum_motion_pilot,2023.2.2,Win32,59.88023952,659c0043b2992ddfe6be3694,65d6bb0e977760de756971f7,65d6be231a820dea5ab9ffa9,0.0231,0.0231,0,22,22,115,1,sixeight,,,,,,,,,,,,,,,,,,,,,,,,,,,,,,,,,,,,,,,,,,,,,,,,,,,,,,,,,,,,,,,,,,,,,,,,,,,,,,,,,,,,,,,,,,,,,,,,,,,,,,,,,,,,,,,,,,,,,,,,,,,,,,,,,,,,,,,,,
,,659c0043b2992ddfe6be3694,2024-02-22_14h28.20.969,kallum_motion_pilot,2023.2.2,Win32,59.88023952,659c0043b2992ddfe6be3694,65d6bb0e977760de756971f7,65d6be231a820dea5ab9ffa9,0.0231,0.0232,0,23,23,3,1,twofour,,,,,,,,,,,,,,,,,,,,,,,,,,,,,,,,,,,,,,,,,,,,,,,,,,,,,,,,,,,,,,,,,,,,,,,,,,,,,,,,,,,,,,,,,,,,,,,,,,,,,,,,,,,,,,,,,,,,,,,,,,,,,,,,,,,,,,,,,
,,659c0043b2992ddfe6be3694,2024-02-22_14h28.20.969,kallum_motion_pilot,2023.2.2,Win32,59.88023952,659c0043b2992ddfe6be3694,65d6bb0e977760de756971f7,65d6be231a820dea5ab9ffa9,0.0233,0.0233,0,24,24,130,1,sixfive,,,,,,,,,,,,,,,,,,,,,,,,,,,,,,,,,,,,,,,,,,,,,,,,,,,,,,,,,,,,,,,,,,,,,,,,,,,,,,,,,,,,,,,,,,,,,,,,,,,,,,,,,,,,,,,,,,,,,,,,,,,,,,,,,,,,,,,,,
,,659c0043b2992ddfe6be3694,2024-02-22_14h28.20.969,kallum_motion_pilot,2023.2.2,Win32,59.88023952,659c0043b2992ddfe6be3694,65d6bb0e977760de756971f7,65d6be231a820dea5ab9ffa9,0.0234,0.0234,0,25,25,32,1,onetwo,,,,,,,,,,,,,,,,,,,,,,,,,,,,,,,,,,,,,,,,,,,,,,,,,,,,,,,,,,,,,,,,,,,,,,,,,,,,,,,,,,,,,,,,,,,,,,,,,,,,,,,,,,,,,,,,,,,,,,,,,,,,,,,,,,,,,,,,,
,,659c0043b2992ddfe6be3694,2024-02-22_14h28.20.969,kallum_motion_pilot,2023.2.2,Win32,59.88023952,659c0043b2992ddfe6be3694,65d6bb0e977760de756971f7,65d6be231a820dea5ab9ffa9,0.0235,0.0235,0,26,26,65,1,onethree,,,,,,,,,,,,,,,,,,,,,,,,,,,,,,,,,,,,,,,,,,,,,,,,,,,,,,,,,,,,,,,,,,,,,,,,,,,,,,,,,,,,,,,,,,,,,,,,,,,,,,,,,,,,,,,,,,,,,,,,,,,,,,,,,,,,,,,,,
,,659c0043b2992ddfe6be3694,2024-02-22_14h28.20.969,kallum_motion_pilot,2023.2.2,Win32,59.88023952,659c0043b2992ddfe6be3694,65d6bb0e977760de756971f7,65d6be231a820dea5ab9ffa9,0.0237,0.0237,0,27,27,46,1,fourtwo,,,,,,,,,,,,,,,,,,,,,,,,,,,,,,,,,,,,,,,,,,,,,,,,,,,,,,,,,,,,,,,,,,,,,,,,,,,,,,,,,,,,,,,,,,,,,,,,,,,,,,,,,,,,,,,,,,,,,,,,,,,,,,,,,,,,,,,,,
,,659c0043b2992ddfe6be3694,2024-02-22_14h28.20.969,kallum_motion_pilot,2023.2.2,Win32,59.88023952,659c0043b2992ddfe6be3694,65d6bb0e977760de756971f7,65d6be231a820dea5ab9ffa9,0.0237,0.0237,0,28,28,4,1,threeone,,,,,,,,,,,,,,,,,,,,,,,,,,,,,,,,,,,,,,,,,,,,,,,,,,,,,,,,,,,,,,,,,,,,,,,,,,,,,,,,,,,,,,,,,,,,,,,,,,,,,,,,,,,,,,,,,,,,,,,,,,,,,,,,,,,,,,,,,
,,659c0043b2992ddfe6be3694,2024-02-22_14h28.20.969,kallum_motion_pilot,2023.2.2,Win32,59.88023952,659c0043b2992ddfe6be3694,65d6bb0e977760de756971f7,65d6be231a820dea5ab9ffa9,0.0237,0.0238,0,29,29,107,1,sixeight,,,,,,,,,,,,,,,,,,,,,,,,,,,,,,,,,,,,,,,,,,,,,,,,,,,,,,,,,,,,,,,,,,,,,,,,,,,,,,,,,,,,,,,,,,,,,,,,,,,,,,,,,,,,,,,,,,,,,,,,,,,,,,,,,,,,,,,,,
,,659c0043b2992ddfe6be3694,2024-02-22_14h28.20.969,kallum_motion_pilot,2023.2.2,Win32,59.88023952,659c0043b2992ddfe6be3694,65d6bb0e977760de756971f7,65d6be231a820dea5ab9ffa9,0.0238,0.0238,0,30,30,60,1,threeone,,,,,,,,,,,,,,,,,,,,,,,,,,,,,,,,,,,,,,,,,,,,,,,,,,,,,,,,,,,,,,,,,,,,,,,,,,,,,,,,,,,,,,,,,,,,,,,,,,,,,,,,,,,,,,,,,,,,,,,,,,,,,,,,,,,,,,,,,
,,659c0043b2992ddfe6be3694,2024-02-22_14h28.20.969,kallum_motion_pilot,2023.2.2,Win32,59.88023952,659c0043b2992ddfe6be3694,65d6bb0e977760de756971f7,65d6be231a820dea5ab9ffa9,0.0239,0.024,0,31,31,91,1,sixeight,,,,,,,,,,,,,,,,,,,,,,,,,,,,,,,,,,,,,,,,,,,,,,,,,,,,,,,,,,,,,,,,,,,,,,,,,,,,,,,,,,,,,,,,,,,,,,,,,,,,,,,,,,,,,,,,,,,,,,,,,,,,,,,,,,,,,,,,,
,,659c0043b2992ddfe6be3694,2024-02-22_14h28.20.969,kallum_motion_pilot,2023.2.2,Win32,59.88023952,659c0043b2992ddfe6be3694,65d6bb0e977760de756971f7,65d6be231a820dea5ab9ffa9,0.024,0.024,0,32,32,95,1,eightseven,,,,,,,,,,,,,,,,,,,,,,,,,,,,,,,,,,,,,,,,,,,,,,,,,,,,,,,,,,,,,,,,,,,,,,,,,,,,,,,,,,,,,,,,,,,,,,,,,,,,,,,,,,,,,,,,,,,,,,,,,,,,,,,,,,,,,,,,,
,,659c0043b2992ddfe6be3694,2024-02-22_14h28.20.969,kallum_motion_pilot,2023.2.2,Win32,59.88023952,659c0043b2992ddfe6be3694,65d6bb0e977760de756971f7,65d6be231a820dea5ab9ffa9,0.0241,0.0241,0,33,33,116,1,sevenfive,,,,,,,,,,,,,,,,,,,,,,,,,,,,,,,,,,,,,,,,,,,,,,,,,,,,,,,,,,,,,,,,,,,,,,,,,,,,,,,,,,,,,,,,,,,,,,,,,,,,,,,,,,,,,,,,,,,,,,,,,,,,,,,,,,,,,,,,,
,,659c0043b2992ddfe6be3694,2024-02-22_14h28.20.969,kallum_motion_pilot,2023.2.2,Win32,59.88023952,659c0043b2992ddfe6be3694,65d6bb0e977760de756971f7,65d6be231a820dea5ab9ffa9,0.0241,0.0241,0,34,34,73,1,onethree,,,,,,,,,,,,,,,,,,,,,,,,,,,,,,,,,,,,,,,,,,,,,,,,,,,,,,,,,,,,,,,,,,,,,,,,,,,,,,,,,,,,,,,,,,,,,,,,,,,,,,,,,,,,,,,,,,,,,,,,,,,,,,,,,,,,,,,,,
,,659c0043b2992ddfe6be3694,2024-02-22_14h28.20.969,kallum_motion_pilot,2023.2.2,Win32,59.88023952,659c0043b2992ddfe6be3694,65d6bb0e977760de756971f7,65d6be231a820dea5ab9ffa9,0.0242,0.0242,0,35,35,83,1,sixeight,,,,,,,,,,,,,,,,,,,,,,,,,,,,,,,,,,,,,,,,,,,,,,,,,,,,,,,,,,,,,,,,,,,,,,,,,,,,,,,,,,,,,,,,,,,,,,,,,,,,,,,,,,,,,,,,,,,,,,,,,,,,,,,,,,,,,,,,,
,,659c0043b2992ddfe6be3694,2024-02-22_14h28.20.969,kallum_motion_pilot,2023.2.2,Win32,59.88023952,659c0043b2992ddfe6be3694,65d6bb0e977760de756971f7,65d6be231a820dea5ab9ffa9,0.0243,0.0243,0,36,36,68,1,threeone,,,,,,,,,,,,,,,,,,,,,,,,,,,,,,,,,,,,,,,,,,,,,,,,,,,,,,,,,,,,,,,,,,,,,,,,,,,,,,,,,,,,,,,,,,,,,,,,,,,,,,,,,,,,,,,,,,,,,,,,,,,,,,,,,,,,,,,,,
,,659c0043b2992ddfe6be3694,2024-02-22_14h28.20.969,kallum_motion_pilot,2023.2.2,Win32,59.88023952,659c0043b2992ddfe6be3694,65d6bb0e977760de756971f7,65d6be231a820dea5ab9ffa9,0.0244,0.0244,0,37,37,14,1,fourtwo,,,,,,,,,,,,,,,,,,,,,,,,,,,,,,,,,,,,,,,,,,,,,,,,,,,,,,,,,,,,,,,,,,,,,,,,,,,,,,,,,,,,,,,,,,,,,,,,,,,,,,,,,,,,,,,,,,,,,,,,,,,,,,,,,,,,,,,,,
,,659c0043b2992ddfe6be3694,2024-02-22_14h28.20.969,kallum_motion_pilot,2023.2.2,Win32,59.88023952,659c0043b2992ddfe6be3694,65d6bb0e977760de756971f7,65d6be231a820dea5ab9ffa9,0.0244,0.0244,0,38,38,154,1,sixfive,,,,,,,,,,,,,,,,,,,,,,,,,,,,,,,,,,,,,,,,,,,,,,,,,,,,,,,,,,,,,,,,,,,,,,,,,,,,,,,,,,,,,,,,,,,,,,,,,,,,,,,,,,,,,,,,,,,,,,,,,,,,,,,,,,,,,,,,,
,,659c0043b2992ddfe6be3694,2024-02-22_14h28.20.969,kallum_motion_pilot,2023.2.2,Win32,59.88023952,659c0043b2992ddfe6be3694,65d6bb0e977760de756971f7,65d6be231a820dea5ab9ffa9,0.0245,0.0245,0,39,39,2,1,twoone,,,,,,,,,,,,,,,,,,,,,,,,,,,,,,,,,,,,,,,,,,,,,,,,,,,,,,,,,,,,,,,,,,,,,,,,,,,,,,,,,,,,,,,,,,,,,,,,,,,,,,,,,,,,,,,,,,,,,,,,,,,,,,,,,,,,,,,,,
,,659c0043b2992ddfe6be3694,2024-02-22_14h28.20.969,kallum_motion_pilot,2023.2.2,Win32,59.88023952,659c0043b2992ddfe6be3694,65d6bb0e977760de756971f7,65d6be231a820dea5ab9ffa9,0.0246,0.0246,0,40,40,155,1,sixeight,,,,,,,,,,,,,,,,,,,,,,,,,,,,,,,,,,,,,,,,,,,,,,,,,,,,,,,,,,,,,,,,,,,,,,,,,,,,,,,,,,,,,,,,,,,,,,,,,,,,,,,,,,,,,,,,,,,,,,,,,,,,,,,,,,,,,,,,,
,,659c0043b2992ddfe6be3694,2024-02-22_14h28.20.969,kallum_motion_pilot,2023.2.2,Win32,59.88023952,659c0043b2992ddfe6be3694,65d6bb0e977760de756971f7,65d6be231a820dea5ab9ffa9,0.0247,0.0247,0,41,41,113,1,fiveseven,,,,,,,,,,,,,,,,,,,,,,,,,,,,,,,,,,,,,,,,,,,,,,,,,,,,,,,,,,,,,,,,,,,,,,,,,,,,,,,,,,,,,,,,,,,,,,,,,,,,,,,,,,,,,,,,,,,,,,,,,,,,,,,,,,,,,,,,,
,,659c0043b2992ddfe6be3694,2024-02-22_14h28.20.969,kallum_motion_pilot,2023.2.2,Win32,59.88023952,659c0043b2992ddfe6be3694,65d6bb0e977760de756971f7,65d6be231a820dea5ab9ffa9,0.0247,0.0247,0,42,42,77,1,threefour,,,,,,,,,,,,,,,,,,,,,,,,,,,,,,,,,,,,,,,,,,,,,,,,,,,,,,,,,,,,,,,,,,,,,,,,,,,,,,,,,,,,,,,,,,,,,,,,,,,,,,,,,,,,,,,,,,,,,,,,,,,,,,,,,,,,,,,,,
,,659c0043b2992ddfe6be3694,2024-02-22_14h28.20.969,kallum_motion_pilot,2023.2.2,Win32,59.88023952,659c0043b2992ddfe6be3694,65d6bb0e977760de756971f7,65d6be231a820dea5ab9ffa9,0.0247,0.0248,0,43,43,63,1,fourthree,,,,,,,,,,,,,,,,,,,,,,,,,,,,,,,,,,,,,,,,,,,,,,,,,,,,,,,,,,,,,,,,,,,,,,,,,,,,,,,,,,,,,,,,,,,,,,,,,,,,,,,,,,,,,,,,,,,,,,,,,,,,,,,,,,,,,,,,,
,,659c0043b2992ddfe6be3694,2024-02-22_14h28.20.969,kallum_motion_pilot,2023.2.2,Win32,59.88023952,659c0043b2992ddfe6be3694,65d6bb0e977760de756971f7,65d6be231a820dea5ab9ffa9,0.0249,0.0249,0,44,44,144,1,fivesix,,,,,,,,,,,,,,,,,,,,,,,,,,,,,,,,,,,,,,,,,,,,,,,,,,,,,,,,,,,,,,,,,,,,,,,,,,,,,,,,,,,,,,,,,,,,,,,,,,,,,,,,,,,,,,,,,,,,,,,,,,,,,,,,,,,,,,,,,
,,659c0043b2992ddfe6be3694,2024-02-22_14h28.20.969,kallum_motion_pilot,2023.2.2,Win32,59.88023952,659c0043b2992ddfe6be3694,65d6bb0e977760de756971f7,65d6be231a820dea5ab9ffa9,0.0249,0.0249,0,45,45,48,1,onetwo,,,,,,,,,,,,,,,,,,,,,,,,,,,,,,,,,,,,,,,,,,,,,,,,,,,,,,,,,,,,,,,,,,,,,,,,,,,,,,,,,,,,,,,,,,,,,,,,,,,,,,,,,,,,,,,,,,,,,,,,,,,,,,,,,,,,,,,,,
,,659c0043b2992ddfe6be3694,2024-02-22_14h28.20.969,kallum_motion_pilot,2023.2.2,Win32,59.88023952,659c0043b2992ddfe6be3694,65d6bb0e977760de756971f7,65d6be231a820dea5ab9ffa9,0.025,0.025,0,46,46,40,1,onetwo,,,,,,,,,,,,,,,,,,,,,,,,,,,,,,,,,,,,,,,,,,,,,,,,,,,,,,,,,,,,,,,,,,,,,,,,,,,,,,,,,,,,,,,,,,,,,,,,,,,,,,,,,,,,,,,,,,,,,,,,,,,,,,,,,,,,,,,,,
,,659c0043b2992ddfe6be3694,2024-02-22_14h28.20.969,kallum_motion_pilot,2023.2.2,Win32,59.88023952,659c0043b2992ddfe6be3694,65d6bb0e977760de756971f7,65d6be231a820dea5ab9ffa9,0.025,0.0251,0,47,47,10,1,twoone,,,,,,,,,,,,,,,,,,,,,,,,,,,,,,,,,,,,,,,,,,,,,,,,,,,,,,,,,,,,,,,,,,,,,,,,,,,,,,,,,,,,,,,,,,,,,,,,,,,,,,,,,,,,,,,,,,,,,,,,,,,,,,,,,,,,,,,,,
,,659c0043b2992ddfe6be3694,2024-02-22_14h28.20.969,kallum_motion_pilot,2023.2.2,Win32,59.88023952,659c0043b2992ddfe6be3694,65d6bb0e977760de756971f7,65d6be231a820dea5ab9ffa9,0.0252,0.0252,0,48,48,6,1,fourtwo,,,,,,,,,,,,,,,,,,,,,,,,,,,,,,,,,,,,,,,,,,,,,,,,,,,,,,,,,,,,,,,,,,,,,,,,,,,,,,,,,,,,,,,,,,,,,,,,,,,,,,,,,,,,,,,,,,,,,,,,,,,,,,,,,,,,,,,,,
,,659c0043b2992ddfe6be3694,2024-02-22_14h28.20.969,kallum_motion_pilot,2023.2.2,Win32,59.88023952,659c0043b2992ddfe6be3694,65d6bb0e977760de756971f7,65d6be231a820dea5ab9ffa9,0.0252,0.0253,0,49,49,13,1,threefour,,,,,,,,,,,,,,,,,,,,,,,,,,,,,,,,,,,,,,,,,,,,,,,,,,,,,,,,,,,,,,,,,,,,,,,,,,,,,,,,,,,,,,,,,,,,,,,,,,,,,,,,,,,,,,,,,,,,,,,,,,,,,,,,,,,,,,,,,
,,659c0043b2992ddfe6be3694,2024-02-22_14h28.20.969,kallum_motion_pilot,2023.2.2,Win32,59.88023952,659c0043b2992ddfe6be3694,65d6bb0e977760de756971f7,65d6be231a820dea5ab9ffa9,0.0253,0.0254,0,50,50,103,1,eightseven,,,,,,,,,,,,,,,,,,,,,,,,,,,,,,,,,,,,,,,,,,,,,,,,,,,,,,,,,,,,,,,,,,,,,,,,,,,,,,,,,,,,,,,,,,,,,,,,,,,,,,,,,,,,,,,,,,,,,,,,,,,,,,,,,,,,,,,,,
,,659c0043b2992ddfe6be3694,2024-02-22_14h28.20.969,kallum_motion_pilot,2023.2.2,Win32,59.88023952,659c0043b2992ddfe6be3694,65d6bb0e977760de756971f7,65d6be231a820dea5ab9ffa9,0.0254,0.0254,0,51,51,149,1,seveneight,,,,,,,,,,,,,,,,,,,,,,,,,,,,,,,,,,,,,,,,,,,,,,,,,,,,,,,,,,,,,,,,,,,,,,,,,,,,,,,,,,,,,,,,,,,,,,,,,,,,,,,,,,,,,,,,,,,,,,,,,,,,,,,,,,,,,,,,,
,,659c0043b2992ddfe6be3694,2024-02-22_14h28.20.969,kallum_motion_pilot,2023.2.2,Win32,59.88023952,659c0043b2992ddfe6be3694,65d6bb0e977760de756971f7,65d6be231a820dea5ab9ffa9,0.0256,0.0256,0,52,52,76,1,threeone,,,,,,,,,,,,,,,,,,,,,,,,,,,,,,,,,,,,,,,,,,,,,,,,,,,,,,,,,,,,,,,,,,,,,,,,,,,,,,,,,,,,,,,,,,,,,,,,,,,,,,,,,,,,,,,,,,,,,,,,,,,,,,,,,,,,,,,,,
,,659c0043b2992ddfe6be3694,2024-02-22_14h28.20.969,kallum_motion_pilot,2023.2.2,Win32,59.88023952,659c0043b2992ddfe6be3694,65d6bb0e977760de756971f7,65d6be231a820dea5ab9ffa9,0.0256,0.0257,0,53,53,96,1,fivesix,,,,,,,,,,,,,,,,,,,,,,,,,,,,,,,,,,,,,,,,,,,,,,,,,,,,,,,,,,,,,,,,,,,,,,,,,,,,,,,,,,,,,,,,,,,,,,,,,,,,,,,,,,,,,,,,,,,,,,,,,,,,,,,,,,,,,,,,,
,,659c0043b2992ddfe6be3694,2024-02-22_14h28.20.969,kallum_motion_pilot,2023.2.2,Win32,59.88023952,659c0043b2992ddfe6be3694,65d6bb0e977760de756971f7,65d6be231a820dea5ab9ffa9,0.0259,0.0263,0,54,54,160,1,fivesix,,,,,,,,,,,,,,,,,,,,,,,,,,,,,,,,,,,,,,,,,,,,,,,,,,,,,,,,,,,,,,,,,,,,,,,,,,,,,,,,,,,,,,,,,,,,,,,,,,,,,,,,,,,,,,,,,,,,,,,,,,,,,,,,,,,,,,,,,
,,659c0043b2992ddfe6be3694,2024-02-22_14h28.20.969,kallum_motion_pilot,2023.2.2,Win32,59.88023952,659c0043b2992ddfe6be3694,65d6bb0e977760de756971f7,65d6be231a820dea5ab9ffa9,0.0273,0.0275,0,55,55,71,1,fourthree,,,,,,,,,,,,,,,,,,,,,,,,,,,,,,,,,,,,,,,,,,,,,,,,,,,,,,,,,,,,,,,,,,,,,,,,,,,,,,,,,,,,,,,,,,,,,,,,,,,,,,,,,,,,,,,,,,,,,,,,,,,,,,,,,,,,,,,,,
,,659c0043b2992ddfe6be3694,2024-02-22_14h28.20.969,kallum_motion_pilot,2023.2.2,Win32,59.88023952,659c0043b2992ddfe6be3694,65d6bb0e977760de756971f7,65d6be231a820dea5ab9ffa9,0.0279,0.0279,0,56,56,66,1,twoone,,,,,,,,,,,,,,,,,,,,,,,,,,,,,,,,,,,,,,,,,,,,,,,,,,,,,,,,,,,,,,,,,,,,,,,,,,,,,,,,,,,,,,,,,,,,,,,,,,,,,,,,,,,,,,,,,,,,,,,,,,,,,,,,,,,,,,,,,
,,659c0043b2992ddfe6be3694,2024-02-22_14h28.20.969,kallum_motion_pilot,2023.2.2,Win32,59.88023952,659c0043b2992ddfe6be3694,65d6bb0e977760de756971f7,65d6be231a820dea5ab9ffa9,0.0281,0.0281,0,57,57,54,1,fourtwo,,,,,,,,,,,,,,,,,,,,,,,,,,,,,,,,,,,,,,,,,,,,,,,,,,,,,,,,,,,,,,,,,,,,,,,,,,,,,,,,,,,,,,,,,,,,,,,,,,,,,,,,,,,,,,,,,,,,,,,,,,,,,,,,,,,,,,,,,
,,659c0043b2992ddfe6be3694,2024-02-22_14h28.20.969,kallum_motion_pilot,2023.2.2,Win32,59.88023952,659c0043b2992ddfe6be3694,65d6bb0e977760de756971f7,65d6be231a820dea5ab9ffa9,0.0282,0.0283,0,58,58,159,1,eightseven,,,,,,,,,,,,,,,,,,,,,,,,,,,,,,,,,,,,,,,,,,,,,,,,,,,,,,,,,,,,,,,,,,,,,,,,,,,,,,,,,,,,,,,,,,,,,,,,,,,,,,,,,,,,,,,,,,,,,,,,,,,,,,,,,,,,,,,,,
,,659c0043b2992ddfe6be3694,2024-02-22_14h28.20.969,kallum_motion_pilot,2023.2.2,Win32,59.88023952,659c0043b2992ddfe6be3694,65d6bb0e977760de756971f7,65d6be231a820dea5ab9ffa9,0.0284,0.0285,0,59,59,25,1,onethree,,,,,,,,,,,,,,,,,,,,,,,,,,,,,,,,,,,,,,,,,,,,,,,,,,,,,,,,,,,,,,,,,,,,,,,,,,,,,,,,,,,,,,,,,,,,,,,,,,,,,,,,,,,,,,,,,,,,,,,,,,,,,,,,,,,,,,,,,
,,659c0043b2992ddfe6be3694,2024-02-22_14h28.20.969,kallum_motion_pilot,2023.2.2,Win32,59.88023952,659c0043b2992ddfe6be3694,65d6bb0e977760de756971f7,65d6be231a820dea5ab9ffa9,0.0287,0.0287,0,60,60,23,1,fourthree,,,,,,,,,,,,,,,,,,,,,,,,,,,,,,,,,,,,,,,,,,,,,,,,,,,,,,,,,,,,,,,,,,,,,,,,,,,,,,,,,,,,,,,,,,,,,,,,,,,,,,,,,,,,,,,,,,,,,,,,,,,,,,,,,,,,,,,,,
,,659c0043b2992ddfe6be3694,2024-02-22_14h28.20.969,kallum_motion_pilot,2023.2.2,Win32,59.88023952,659c0043b2992ddfe6be3694,65d6bb0e977760de756971f7,65d6be231a820dea5ab9ffa9,0.0288,0.0289,0,61,61,79,1,eightseven,,,,,,,,,,,,,,,,,,,,,,,,,,,,,,,,,,,,,,,,,,,,,,,,,,,,,,,,,,,,,,,,,,,,,,,,,,,,,,,,,,,,,,,,,,,,,,,,,,,,,,,,,,,,,,,,,,,,,,,,,,,,,,,,,,,,,,,,,
,,659c0043b2992ddfe6be3694,2024-02-22_14h28.20.969,kallum_motion_pilot,2023.2.2,Win32,59.88023952,659c0043b2992ddfe6be3694,65d6bb0e977760de756971f7,65d6be231a820dea5ab9ffa9,0.0291,0.0291,0,62,62,61,1,threefour,,,,,,,,,,,,,,,,,,,,,,,,,,,,,,,,,,,,,,,,,,,,,,,,,,,,,,,,,,,,,,,,,,,,,,,,,,,,,,,,,,,,,,,,,,,,,,,,,,,,,,,,,,,,,,,,,,,,,,,,,,,,,,,,,,,,,,,,,
,,659c0043b2992ddfe6be3694,2024-02-22_14h28.20.969,kallum_motion_pilot,2023.2.2,Win32,59.88023952,659c0043b2992ddfe6be3694,65d6bb0e977760de756971f7,65d6be231a820dea5ab9ffa9,0.0292,0.0293,0,63,63,52,1,threeone,,,,,,,,,,,,,,,,,,,,,,,,,,,,,,,,,,,,,,,,,,,,,,,,,,,,,,,,,,,,,,,,,,,,,,,,,,,,,,,,,,,,,,,,,,,,,,,,,,,,,,,,,,,,,,,,,,,,,,,,,,,,,,,,,,,,,,,,,
,,659c0043b2992ddfe6be3694,2024-02-22_14h28.20.969,kallum_motion_pilot,2023.2.2,Win32,59.88023952,659c0043b2992ddfe6be3694,65d6bb0e977760de756971f7,65d6be231a820dea5ab9ffa9,0.0293,0.0294,0,64,64,120,1,fivesix,,,,,,,,,,,,,,,,,,,,,,,,,,,,,,,,,,,,,,,,,,,,,,,,,,,,,,,,,,,,,,,,,,,,,,,,,,,,,,,,,,,,,,,,,,,,,,,,,,,,,,,,,,,,,,,,,,,,,,,,,,,,,,,,,,,,,,,,,
,,659c0043b2992ddfe6be3694,2024-02-22_14h28.20.969,kallum_motion_pilot,2023.2.2,Win32,59.88023952,659c0043b2992ddfe6be3694,65d6bb0e977760de756971f7,65d6be231a820dea5ab9ffa9,0.0294,0.0295,0,65,65,9,1,onethree,,,,,,,,,,,,,,,,,,,,,,,,,,,,,,,,,,,,,,,,,,,,,,,,,,,,,,,,,,,,,,,,,,,,,,,,,,,,,,,,,,,,,,,,,,,,,,,,,,,,,,,,,,,,,,,,,,,,,,,,,,,,,,,,,,,,,,,,,
,,659c0043b2992ddfe6be3694,2024-02-22_14h28.20.969,kallum_motion_pilot,2023.2.2,Win32,59.88023952,659c0043b2992ddfe6be3694,65d6bb0e977760de756971f7,65d6be231a820dea5ab9ffa9,0.0296,0.0296,0,66,66,49,1,onethree,,,,,,,,,,,,,,,,,,,,,,,,,,,,,,,,,,,,,,,,,,,,,,,,,,,,,,,,,,,,,,,,,,,,,,,,,,,,,,,,,,,,,,,,,,,,,,,,,,,,,,,,,,,,,,,,,,,,,,,,,,,,,,,,,,,,,,,,,
,,659c0043b2992ddfe6be3694,2024-02-22_14h28.20.969,kallum_motion_pilot,2023.2.2,Win32,59.88023952,659c0043b2992ddfe6be3694,65d6bb0e977760de756971f7,65d6be231a820dea5ab9ffa9,0.0297,0.0297,0,67,67,12,1,threeone,,,,,,,,,,,,,,,,,,,,,,,,,,,,,,,,,,,,,,,,,,,,,,,,,,,,,,,,,,,,,,,,,,,,,,,,,,,,,,,,,,,,,,,,,,,,,,,,,,,,,,,,,,,,,,,,,,,,,,,,,,,,,,,,,,,,,,,,,
,,659c0043b2992ddfe6be3694,2024-02-22_14h28.20.969,kallum_motion_pilot,2023.2.2,Win32,59.88023952,659c0043b2992ddfe6be3694,65d6bb0e977760de756971f7,65d6be231a820dea5ab9ffa9,0.0298,0.0298,0,68,68,30,1,fourtwo,,,,,,,,,,,,,,,,,,,,,,,,,,,,,,,,,,,,,,,,,,,,,,,,,,,,,,,,,,,,,,,,,,,,,,,,,,,,,,,,,,,,,,,,,,,,,,,,,,,,,,,,,,,,,,,,,,,,,,,,,,,,,,,,,,,,,,,,,
,,659c0043b2992ddfe6be3694,2024-02-22_14h28.20.969,kallum_motion_pilot,2023.2.2,Win32,59.88023952,659c0043b2992ddfe6be3694,65d6bb0e977760de756971f7,65d6be231a820dea5ab9ffa9,0.0298,0.0298,0,69,69,94,1,eightsix,,,,,,,,,,,,,,,,,,,,,,,,,,,,,,,,,,,,,,,,,,,,,,,,,,,,,,,,,,,,,,,,,,,,,,,,,,,,,,,,,,,,,,,,,,,,,,,,,,,,,,,,,,,,,,,,,,,,,,,,,,,,,,,,,,,,,,,,,
,,659c0043b2992ddfe6be3694,2024-02-22_14h28.20.969,kallum_motion_pilot,2023.2.2,Win32,59.88023952,659c0043b2992ddfe6be3694,65d6bb0e977760de756971f7,65d6be231a820dea5ab9ffa9,0.03,0.03,0,70,70,147,1,sixeight,,,,,,,,,,,,,,,,,,,,,,,,,,,,,,,,,,,,,,,,,,,,,,,,,,,,,,,,,,,,,,,,,,,,,,,,,,,,,,,,,,,,,,,,,,,,,,,,,,,,,,,,,,,,,,,,,,,,,,,,,,,,,,,,,,,,,,,,,
,,659c0043b2992ddfe6be3694,2024-02-22_14h28.20.969,kallum_motion_pilot,2023.2.2,Win32,59.88023952,659c0043b2992ddfe6be3694,65d6bb0e977760de756971f7,65d6be231a820dea5ab9ffa9,0.0301,0.0301,0,71,71,109,1,seveneight,,,,,,,,,,,,,,,,,,,,,,,,,,,,,,,,,,,,,,,,,,,,,,,,,,,,,,,,,,,,,,,,,,,,,,,,,,,,,,,,,,,,,,,,,,,,,,,,,,,,,,,,,,,,,,,,,,,,,,,,,,,,,,,,,,,,,,,,,
,,659c0043b2992ddfe6be3694,2024-02-22_14h28.20.969,kallum_motion_pilot,2023.2.2,Win32,59.88023952,659c0043b2992ddfe6be3694,65d6bb0e977760de756971f7,65d6be231a820dea5ab9ffa9,0.0302,0.0302,0,72,72,136,1,fivesix,,,,,,,,,,,,,,,,,,,,,,,,,,,,,,,,,,,,,,,,,,,,,,,,,,,,,,,,,,,,,,,,,,,,,,,,,,,,,,,,,,,,,,,,,,,,,,,,,,,,,,,,,,,,,,,,,,,,,,,,,,,,,,,,,,,,,,,,,
,,659c0043b2992ddfe6be3694,2024-02-22_14h28.20.969,kallum_motion_pilot,2023.2.2,Win32,59.88023952,659c0043b2992ddfe6be3694,65d6bb0e977760de756971f7,65d6be231a820dea5ab9ffa9,0.0303,0.0303,0,73,73,42,1,twoone,,,,,,,,,,,,,,,,,,,,,,,,,,,,,,,,,,,,,,,,,,,,,,,,,,,,,,,,,,,,,,,,,,,,,,,,,,,,,,,,,,,,,,,,,,,,,,,,,,,,,,,,,,,,,,,,,,,,,,,,,,,,,,,,,,,,,,,,,
,,659c0043b2992ddfe6be3694,2024-02-22_14h28.20.969,kallum_motion_pilot,2023.2.2,Win32,59.88023952,659c0043b2992ddfe6be3694,65d6bb0e977760de756971f7,65d6be231a820dea5ab9ffa9,0.0304,0.0304,0,74,74,124,1,sevenfive,,,,,,,,,,,,,,,,,,,,,,,,,,,,,,,,,,,,,,,,,,,,,,,,,,,,,,,,,,,,,,,,,,,,,,,,,,,,,,,,,,,,,,,,,,,,,,,,,,,,,,,,,,,,,,,,,,,,,,,,,,,,,,,,,,,,,,,,,
,,659c0043b2992ddfe6be3694,2024-02-22_14h28.20.969,kallum_motion_pilot,2023.2.2,Win32,59.88023952,659c0043b2992ddfe6be3694,65d6bb0e977760de756971f7,65d6be231a820dea5ab9ffa9,0.0305,0.0305,0,75,75,62,1,fourtwo,,,,,,,,,,,,,,,,,,,,,,,,,,,,,,,,,,,,,,,,,,,,,,,,,,,,,,,,,,,,,,,,,,,,,,,,,,,,,,,,,,,,,,,,,,,,,,,,,,,,,,,,,,,,,,,,,,,,,,,,,,,,,,,,,,,,,,,,,
,,659c0043b2992ddfe6be3694,2024-02-22_14h28.20.969,kallum_motion_pilot,2023.2.2,Win32,59.88023952,659c0043b2992ddfe6be3694,65d6bb0e977760de756971f7,65d6be231a820dea5ab9ffa9,0.0306,0.0306,0,76,76,110,1,eightsix,,,,,,,,,,,,,,,,,,,,,,,,,,,,,,,,,,,,,,,,,,,,,,,,,,,,,,,,,,,,,,,,,,,,,,,,,,,,,,,,,,,,,,,,,,,,,,,,,,,,,,,,,,,,,,,,,,,,,,,,,,,,,,,,,,,,,,,,,
,,659c0043b2992ddfe6be3694,2024-02-22_14h28.20.969,kallum_motion_pilot,2023.2.2,Win32,59.88023952,659c0043b2992ddfe6be3694,65d6bb0e977760de756971f7,65d6be231a820dea5ab9ffa9,0.0307,0.0308,0,77,77,43,1,twofour,,,,,,,,,,,,,,,,,,,,,,,,,,,,,,,,,,,,,,,,,,,,,,,,,,,,,,,,,,,,,,,,,,,,,,,,,,,,,,,,,,,,,,,,,,,,,,,,,,,,,,,,,,,,,,,,,,,,,,,,,,,,,,,,,,,,,,,,,
,,659c0043b2992ddfe6be3694,2024-02-22_14h28.20.969,kallum_motion_pilot,2023.2.2,Win32,59.88023952,659c0043b2992ddfe6be3694,65d6bb0e977760de756971f7,65d6be231a820dea5ab9ffa9,0.0308,0.0308,0,78,78,129,1,fiveseven,,,,,,,,,,,,,,,,,,,,,,,,,,,,,,,,,,,,,,,,,,,,,,,,,,,,,,,,,,,,,,,,,,,,,,,,,,,,,,,,,,,,,,,,,,,,,,,,,,,,,,,,,,,,,,,,,,,,,,,,,,,,,,,,,,,,,,,,,
,,659c0043b2992ddfe6be3694,2024-02-22_14h28.20.969,kallum_motion_pilot,2023.2.2,Win32,59.88023952,659c0043b2992ddfe6be3694,65d6bb0e977760de756971f7,65d6be231a820dea5ab9ffa9,0.0309,0.0309,0,79,79,37,1,threefour,,,,,,,,,,,,,,,,,,,,,,,,,,,,,,,,,,,,,,,,,,,,,,,,,,,,,,,,,,,,,,,,,,,,,,,,,,,,,,,,,,,,,,,,,,,,,,,,,,,,,,,,,,,,,,,,,,,,,,,,,,,,,,,,,,,,,,,,,
,,659c0043b2992ddfe6be3694,2024-02-22_14h28.20.969,kallum_motion_pilot,2023.2.2,Win32,59.88023952,659c0043b2992ddfe6be3694,65d6bb0e977760de756971f7,65d6be231a820dea5ab9ffa9,0.031,0.031,0,80,80,128,1,fivesix,,,,,,,,,,,,,,,,,,,,,,,,,,,,,,,,,,,,,,,,,,,,,,,,,,,,,,,,,,,,,,,,,,,,,,,,,,,,,,,,,,,,,,,,,,,,,,,,,,,,,,,,,,,,,,,,,,,,,,,,,,,,,,,,,,,,,,,,,
,,659c0043b2992ddfe6be3694,2024-02-22_14h28.20.969,kallum_motion_pilot,2023.2.2,Win32,59.88023952,659c0043b2992ddfe6be3694,65d6bb0e977760de756971f7,65d6be231a820dea5ab9ffa9,0.031,0.031,0,81,81,84,1,sevenfive,,,,,,,,,,,,,,,,,,,,,,,,,,,,,,,,,,,,,,,,,,,,,,,,,,,,,,,,,,,,,,,,,,,,,,,,,,,,,,,,,,,,,,,,,,,,,,,,,,,,,,,,,,,,,,,,,,,,,,,,,,,,,,,,,,,,,,,,,
,,659c0043b2992ddfe6be3694,2024-02-22_14h28.20.969,kallum_motion_pilot,2023.2.2,Win32,59.88023952,659c0043b2992ddfe6be3694,65d6bb0e977760de756971f7,65d6be231a820dea5ab9ffa9,0.0311,0.0311,0,82,82,31,1,fourthree,,,,,,,,,,,,,,,,,,,,,,,,,,,,,,,,,,,,,,,,,,,,,,,,,,,,,,,,,,,,,,,,,,,,,,,,,,,,,,,,,,,,,,,,,,,,,,,,,,,,,,,,,,,,,,,,,,,,,,,,,,,,,,,,,,,,,,,,,
,,659c0043b2992ddfe6be3694,2024-02-22_14h28.20.969,kallum_motion_pilot,2023.2.2,Win32,59.88023952,659c0043b2992ddfe6be3694,65d6bb0e977760de756971f7,65d6be231a820dea5ab9ffa9,0.0312,0.0312,0,83,83,143,1,eightseven,,,,,,,,,,,,,,,,,,,,,,,,,,,,,,,,,,,,,,,,,,,,,,,,,,,,,,,,,,,,,,,,,,,,,,,,,,,,,,,,,,,,,,,,,,,,,,,,,,,,,,,,,,,,,,,,,,,,,,,,,,,,,,,,,,,,,,,,,
,,659c0043b2992ddfe6be3694,2024-02-22_14h28.20.969,kallum_motion_pilot,2023.2.2,Win32,59.88023952,659c0043b2992ddfe6be3694,65d6bb0e977760de756971f7,65d6be231a820dea5ab9ffa9,0.0313,0.0313,0,84,84,1,1,onethree,,,,,,,,,,,,,,,,,,,,,,,,,,,,,,,,,,,,,,,,,,,,,,,,,,,,,,,,,,,,,,,,,,,,,,,,,,,,,,,,,,,,,,,,,,,,,,,,,,,,,,,,,,,,,,,,,,,,,,,,,,,,,,,,,,,,,,,,,
,,659c0043b2992ddfe6be3694,2024-02-22_14h28.20.969,kallum_motion_pilot,2023.2.2,Win32,59.88023952,659c0043b2992ddfe6be3694,65d6bb0e977760de756971f7,65d6be231a820dea5ab9ffa9,0.0313,0.0314,0,85,85,26,1,twoone,,,,,,,,,,,,,,,,,,,,,,,,,,,,,,,,,,,,,,,,,,,,,,,,,,,,,,,,,,,,,,,,,,,,,,,,,,,,,,,,,,,,,,,,,,,,,,,,,,,,,,,,,,,,,,,,,,,,,,,,,,,,,,,,,,,,,,,,,
,,659c0043b2992ddfe6be3694,2024-02-22_14h28.20.969,kallum_motion_pilot,2023.2.2,Win32,59.88023952,659c0043b2992ddfe6be3694,65d6bb0e977760de756971f7,65d6be231a820dea5ab9ffa9,0.0315,0.0315,0,86,86,140,1,sevenfive,,,,,,,,,,,,,,,,,,,,,,,,,,,,,,,,,,,,,,,,,,,,,,,,,,,,,,,,,,,,,,,,,,,,,,,,,,,,,,,,,,,,,,,,,,,,,,,,,,,,,,,,,,,,,,,,,,,,,,,,,,,,,,,,,,,,,,,,,
,,659c0043b2992ddfe6be3694,2024-02-22_14h28.20.969,kallum_motion_pilot,2023.2.2,Win32,59.88023952,659c0043b2992ddfe6be3694,65d6bb0e977760de756971f7,65d6be231a820dea5ab9ffa9,0.0316,0.0316,0,87,87,127,1,eightseven,,,,,,,,,,,,,,,,,,,,,,,,,,,,,,,,,,,,,,,,,,,,,,,,,,,,,,,,,,,,,,,,,,,,,,,,,,,,,,,,,,,,,,,,,,,,,,,,,,,,,,,,,,,,,,,,,,,,,,,,,,,,,,,,,,,,,,,,,
,,659c0043b2992ddfe6be3694,2024-02-22_14h28.20.969,kallum_motion_pilot,2023.2.2,Win32,59.88023952,659c0043b2992ddfe6be3694,65d6bb0e977760de756971f7,65d6be231a820dea5ab9ffa9,0.0317,0.0317,0,88,88,51,1,twofour,,,,,,,,,,,,,,,,,,,,,,,,,,,,,,,,,,,,,,,,,,,,,,,,,,,,,,,,,,,,,,,,,,,,,,,,,,,,,,,,,,,,,,,,,,,,,,,,,,,,,,,,,,,,,,,,,,,,,,,,,,,,,,,,,,,,,,,,,
,,659c0043b2992ddfe6be3694,2024-02-22_14h28.20.969,kallum_motion_pilot,2023.2.2,Win32,59.88023952,659c0043b2992ddfe6be3694,65d6bb0e977760de756971f7,65d6be231a820dea5ab9ffa9,0.0318,0.0318,0,89,89,16,1,onetwo,,,,,,,,,,,,,,,,,,,,,,,,,,,,,,,,,,,,,,,,,,,,,,,,,,,,,,,,,,,,,,,,,,,,,,,,,,,,,,,,,,,,,,,,,,,,,,,,,,,,,,,,,,,,,,,,,,,,,,,,,,,,,,,,,,,,,,,,,
,,659c0043b2992ddfe6be3694,2024-02-22_14h28.20.969,kallum_motion_pilot,2023.2.2,Win32,59.88023952,659c0043b2992ddfe6be3694,65d6bb0e977760de756971f7,65d6be231a820dea5ab9ffa9,0.0319,0.0319,0,90,90,145,1,fiveseven,,,,,,,,,,,,,,,,,,,,,,,,,,,,,,,,,,,,,,,,,,,,,,,,,,,,,,,,,,,,,,,,,,,,,,,,,,,,,,,,,,,,,,,,,,,,,,,,,,,,,,,,,,,,,,,,,,,,,,,,,,,,,,,,,,,,,,,,,
,,659c0043b2992ddfe6be3694,2024-02-22_14h28.20.969,kallum_motion_pilot,2023.2.2,Win32,59.88023952,659c0043b2992ddfe6be3694,65d6bb0e977760de756971f7,65d6be231a820dea5ab9ffa9,0.032,0.032,0,91,91,56,1,onetwo,,,,,,,,,,,,,,,,,,,,,,,,,,,,,,,,,,,,,,,,,,,,,,,,,,,,,,,,,,,,,,,,,,,,,,,,,,,,,,,,,,,,,,,,,,,,,,,,,,,,,,,,,,,,,,,,,,,,,,,,,,,,,,,,,,,,,,,,,
,,659c0043b2992ddfe6be3694,2024-02-22_14h28.20.969,kallum_motion_pilot,2023.2.2,Win32,59.88023952,659c0043b2992ddfe6be3694,65d6bb0e977760de756971f7,65d6be231a820dea5ab9ffa9,0.032,0.032,0,92,92,125,1,seveneight,,,,,,,,,,,,,,,,,,,,,,,,,,,,,,,,,,,,,,,,,,,,,,,,,,,,,,,,,,,,,,,,,,,,,,,,,,,,,,,,,,,,,,,,,,,,,,,,,,,,,,,,,,,,,,,,,,,,,,,,,,,,,,,,,,,,,,,,,
,,659c0043b2992ddfe6be3694,2024-02-22_14h28.20.969,kallum_motion_pilot,2023.2.2,Win32,59.88023952,659c0043b2992ddfe6be3694,65d6bb0e977760de756971f7,65d6be231a820dea5ab9ffa9,0.0322,0.0322,0,93,93,126,1,eightsix,,,,,,,,,,,,,,,,,,,,,,,,,,,,,,,,,,,,,,,,,,,,,,,,,,,,,,,,,,,,,,,,,,,,,,,,,,,,,,,,,,,,,,,,,,,,,,,,,,,,,,,,,,,,,,,,,,,,,,,,,,,,,,,,,,,,,,,,,
,,659c0043b2992ddfe6be3694,2024-02-22_14h28.20.969,kallum_motion_pilot,2023.2.2,Win32,59.88023952,659c0043b2992ddfe6be3694,65d6bb0e977760de756971f7,65d6be231a820dea5ab9ffa9,0.0322,0.0322,0,94,94,146,1,sixfive,,,,,,,,,,,,,,,,,,,,,,,,,,,,,,,,,,,,,,,,,,,,,,,,,,,,,,,,,,,,,,,,,,,,,,,,,,,,,,,,,,,,,,,,,,,,,,,,,,,,,,,,,,,,,,,,,,,,,,,,,,,,,,,,,,,,,,,,,
,,659c0043b2992ddfe6be3694,2024-02-22_14h28.20.969,kallum_motion_pilot,2023.2.2,Win32,59.88023952,659c0043b2992ddfe6be3694,65d6bb0e977760de756971f7,65d6be231a820dea5ab9ffa9,0.0323,0.0323,0,95,95,64,1,onetwo,,,,,,,,,,,,,,,,,,,,,,,,,,,,,,,,,,,,,,,,,,,,,,,,,,,,,,,,,,,,,,,,,,,,,,,,,,,,,,,,,,,,,,,,,,,,,,,,,,,,,,,,,,,,,,,,,,,,,,,,,,,,,,,,,,,,,,,,,
,,659c0043b2992ddfe6be3694,2024-02-22_14h28.20.969,kallum_motion_pilot,2023.2.2,Win32,59.88023952,659c0043b2992ddfe6be3694,65d6bb0e977760de756971f7,65d6be231a820dea5ab9ffa9,0.0323,0.0324,0,96,96,44,1,threeone,,,,,,,,,,,,,,,,,,,,,,,,,,,,,,,,,,,,,,,,,,,,,,,,,,,,,,,,,,,,,,,,,,,,,,,,,,,,,,,,,,,,,,,,,,,,,,,,,,,,,,,,,,,,,,,,,,,,,,,,,,,,,,,,,,,,,,,,,
,,659c0043b2992ddfe6be3694,2024-02-22_14h28.20.969,kallum_motion_pilot,2023.2.2,Win32,59.88023952,659c0043b2992ddfe6be3694,65d6bb0e977760de756971f7,65d6be231a820dea5ab9ffa9,0.0325,0.0325,0,97,97,20,1,threeone,,,,,,,,,,,,,,,,,,,,,,,,,,,,,,,,,,,,,,,,,,,,,,,,,,,,,,,,,,,,,,,,,,,,,,,,,,,,,,,,,,,,,,,,,,,,,,,,,,,,,,,,,,,,,,,,,,,,,,,,,,,,,,,,,,,,,,,,,
,,659c0043b2992ddfe6be3694,2024-02-22_14h28.20.969,kallum_motion_pilot,2023.2.2,Win32,59.88023952,659c0043b2992ddfe6be3694,65d6bb0e977760de756971f7,65d6be231a820dea5ab9ffa9,0.0326,0.0326,0,98,98,55,1,fourthree,,,,,,,,,,,,,,,,,,,,,,,,,,,,,,,,,,,,,,,,,,,,,,,,,,,,,,,,,,,,,,,,,,,,,,,,,,,,,,,,,,,,,,,,,,,,,,,,,,,,,,,,,,,,,,,,,,,,,,,,,,,,,,,,,,,,,,,,,
,,659c0043b2992ddfe6be3694,2024-02-22_14h28.20.969,kallum_motion_pilot,2023.2.2,Win32,59.88023952,659c0043b2992ddfe6be3694,65d6bb0e977760de756971f7,65d6be231a820dea5ab9ffa9,0.0326,0.0327,0,99,99,33,1,onethree,,,,,,,,,,,,,,,,,,,,,,,,,,,,,,,,,,,,,,,,,,,,,,,,,,,,,,,,,,,,,,,,,,,,,,,,,,,,,,,,,,,,,,,,,,,,,,,,,,,,,,,,,,,,,,,,,,,,,,,,,,,,,,,,,,,,,,,,,
,,659c0043b2992ddfe6be3694,2024-02-22_14h28.20.969,kallum_motion_pilot,2023.2.2,Win32,59.88023952,659c0043b2992ddfe6be3694,65d6bb0e977760de756971f7,65d6be231a820dea5ab9ffa9,0.0328,0.0328,0,100,100,150,1,eightsix,,,,,,,,,,,,,,,,,,,,,,,,,,,,,,,,,,,,,,,,,,,,,,,,,,,,,,,,,,,,,,,,,,,,,,,,,,,,,,,,,,,,,,,,,,,,,,,,,,,,,,,,,,,,,,,,,,,,,,,,,,,,,,,,,,,,,,,,,
,,659c0043b2992ddfe6be3694,2024-02-22_14h28.20.969,kallum_motion_pilot,2023.2.2,Win32,59.88023952,659c0043b2992ddfe6be3694,65d6bb0e977760de756971f7,65d6be231a820dea5ab9ffa9,0.0328,0.0328,0,101,101,87,1,eightseven,,,,,,,,,,,,,,,,,,,,,,,,,,,,,,,,,,,,,,,,,,,,,,,,,,,,,,,,,,,,,,,,,,,,,,,,,,,,,,,,,,,,,,,,,,,,,,,,,,,,,,,,,,,,,,,,,,,,,,,,,,,,,,,,,,,,,,,,,
,,659c0043b2992ddfe6be3694,2024-02-22_14h28.20.969,kallum_motion_pilot,2023.2.2,Win32,59.88023952,659c0043b2992ddfe6be3694,65d6bb0e977760de756971f7,65d6be231a820dea5ab9ffa9,0.0329,0.0329,0,102,102,35,1,twofour,,,,,,,,,,,,,,,,,,,,,,,,,,,,,,,,,,,,,,,,,,,,,,,,,,,,,,,,,,,,,,,,,,,,,,,,,,,,,,,,,,,,,,,,,,,,,,,,,,,,,,,,,,,,,,,,,,,,,,,,,,,,,,,,,,,,,,,,,
,,659c0043b2992ddfe6be3694,2024-02-22_14h28.20.969,kallum_motion_pilot,2023.2.2,Win32,59.88023952,659c0043b2992ddfe6be3694,65d6bb0e977760de756971f7,65d6be231a820dea5ab9ffa9,0.033,0.033,0,103,103,0,1,onetwo,,,,,,,,,,,,,,,,,,,,,,,,,,,,,,,,,,,,,,,,,,,,,,,,,,,,,,,,,,,,,,,,,,,,,,,,,,,,,,,,,,,,,,,,,,,,,,,,,,,,,,,,,,,,,,,,,,,,,,,,,,,,,,,,,,,,,,,,,
,,659c0043b2992ddfe6be3694,2024-02-22_14h28.20.969,kallum_motion_pilot,2023.2.2,Win32,59.88023952,659c0043b2992ddfe6be3694,65d6bb0e977760de756971f7,65d6be231a820dea5ab9ffa9,0.0331,0.0332,0,104,104,158,1,eightsix,,,,,,,,,,,,,,,,,,,,,,,,,,,,,,,,,,,,,,,,,,,,,,,,,,,,,,,,,,,,,,,,,,,,,,,,,,,,,,,,,,,,,,,,,,,,,,,,,,,,,,,,,,,,,,,,,,,,,,,,,,,,,,,,,,,,,,,,,
,,659c0043b2992ddfe6be3694,2024-02-22_14h28.20.969,kallum_motion_pilot,2023.2.2,Win32,59.88023952,659c0043b2992ddfe6be3694,65d6bb0e977760de756971f7,65d6be231a820dea5ab9ffa9,0.0332,0.0332,0,105,105,50,1,twoone,,,,,,,,,,,,,,,,,,,,,,,,,,,,,,,,,,,,,,,,,,,,,,,,,,,,,,,,,,,,,,,,,,,,,,,,,,,,,,,,,,,,,,,,,,,,,,,,,,,,,,,,,,,,,,,,,,,,,,,,,,,,,,,,,,,,,,,,,
,,659c0043b2992ddfe6be3694,2024-02-22_14h28.20.969,kallum_motion_pilot,2023.2.2,Win32,59.88023952,659c0043b2992ddfe6be3694,65d6bb0e977760de756971f7,65d6be231a820dea5ab9ffa9,0.0333,0.0333,0,106,106,53,1,threefour,,,,,,,,,,,,,,,,,,,,,,,,,,,,,,,,,,,,,,,,,,,,,,,,,,,,,,,,,,,,,,,,,,,,,,,,,,,,,,,,,,,,,,,,,,,,,,,,,,,,,,,,,,,,,,,,,,,,,,,,,,,,,,,,,,,,,,,,,
,,659c0043b2992ddfe6be3694,2024-02-22_14h28.20.969,kallum_motion_pilot,2023.2.2,Win32,59.88023952,659c0043b2992ddfe6be3694,65d6bb0e977760de756971f7,65d6be231a820dea5ab9ffa9,0.0334,0.0334,0,107,107,19,1,twofour,,,,,,,,,,,,,,,,,,,,,,,,,,,,,,,,,,,,,,,,,,,,,,,,,,,,,,,,,,,,,,,,,,,,,,,,,,,,,,,,,,,,,,,,,,,,,,,,,,,,,,,,,,,,,,,,,,,,,,,,,,,,,,,,,,,,,,,,,
,,659c0043b2992ddfe6be3694,2024-02-22_14h28.20.969,kallum_motion_pilot,2023.2.2,Win32,59.88023952,659c0043b2992ddfe6be3694,65d6bb0e977760de756971f7,65d6be231a820dea5ab9ffa9,0.0335,0.0335,0,108,108,117,1,seveneight,,,,,,,,,,,,,,,,,,,,,,,,,,,,,,,,,,,,,,,,,,,,,,,,,,,,,,,,,,,,,,,,,,,,,,,,,,,,,,,,,,,,,,,,,,,,,,,,,,,,,,,,,,,,,,,,,,,,,,,,,,,,,,,,,,,,,,,,,
,,659c0043b2992ddfe6be3694,2024-02-22_14h28.20.969,kallum_motion_pilot,2023.2.2,Win32,59.88023952,659c0043b2992ddfe6be3694,65d6bb0e977760de756971f7,65d6be231a820dea5ab9ffa9,0.0336,0.0337,0,109,109,78,1,fourtwo,,,,,,,,,,,,,,,,,,,,,,,,,,,,,,,,,,,,,,,,,,,,,,,,,,,,,,,,,,,,,,,,,,,,,,,,,,,,,,,,,,,,,,,,,,,,,,,,,,,,,,,,,,,,,,,,,,,,,,,,,,,,,,,,,,,,,,,,,
,,659c0043b2992ddfe6be3694,2024-02-22_14h28.20.969,kallum_motion_pilot,2023.2.2,Win32,59.88023952,659c0043b2992ddfe6be3694,65d6bb0e977760de756971f7,65d6be231a820dea5ab9ffa9,0.0337,0.0337,0,110,110,39,1,fourthree,,,,,,,,,,,,,,,,,,,,,,,,,,,,,,,,,,,,,,,,,,,,,,,,,,,,,,,,,,,,,,,,,,,,,,,,,,,,,,,,,,,,,,,,,,,,,,,,,,,,,,,,,,,,,,,,,,,,,,,,,,,,,,,,,,,,,,,,,
,,659c0043b2992ddfe6be3694,2024-02-22_14h28.20.969,kallum_motion_pilot,2023.2.2,Win32,59.88023952,659c0043b2992ddfe6be3694,65d6bb0e977760de756971f7,65d6be231a820dea5ab9ffa9,0.0338,0.0338,0,111,111,27,1,twofour,,,,,,,,,,,,,,,,,,,,,,,,,,,,,,,,,,,,,,,,,,,,,,,,,,,,,,,,,,,,,,,,,,,,,,,,,,,,,,,,,,,,,,,,,,,,,,,,,,,,,,,,,,,,,,,,,,,,,,,,,,,,,,,,,,,,,,,,,
,,659c0043b2992ddfe6be3694,2024-02-22_14h28.20.969,kallum_motion_pilot,2023.2.2,Win32,59.88023952,659c0043b2992ddfe6be3694,65d6bb0e977760de756971f7,65d6be231a820dea5ab9ffa9,0.0339,0.0339,0,112,112,123,1,sixeight,,,,,,,,,,,,,,,,,,,,,,,,,,,,,,,,,,,,,,,,,,,,,,,,,,,,,,,,,,,,,,,,,,,,,,,,,,,,,,,,,,,,,,,,,,,,,,,,,,,,,,,,,,,,,,,,,,,,,,,,,,,,,,,,,,,,,,,,,
,,659c0043b2992ddfe6be3694,2024-02-22_14h28.20.969,kallum_motion_pilot,2023.2.2,Win32,59.88023952,659c0043b2992ddfe6be3694,65d6bb0e977760de756971f7,65d6be231a820dea5ab9ffa9,0.0339,0.034,0,113,113,38,1,fourtwo,,,,,,,,,,,,,,,,,,,,,,,,,,,,,,,,,,,,,,,,,,,,,,,,,,,,,,,,,,,,,,,,,,,,,,,,,,,,,,,,,,,,,,,,,,,,,,,,,,,,,,,,,,,,,,,,,,,,,,,,,,,,,,,,,,,,,,,,,
,,659c0043b2992ddfe6be3694,2024-02-22_14h28.20.969,kallum_motion_pilot,2023.2.2,Win32,59.88023952,659c0043b2992ddfe6be3694,65d6bb0e977760de756971f7,65d6be231a820dea5ab9ffa9,0.0341,0.0341,0,114,114,89,1,fiveseven,,,,,,,,,,,,,,,,,,,,,,,,,,,,,,,,,,,,,,,,,,,,,,,,,,,,,,,,,,,,,,,,,,,,,,,,,,,,,,,,,,,,,,,,,,,,,,,,,,,,,,,,,,,,,,,,,,,,,,,,,,,,,,,,,,,,,,,,,
,,659c0043b2992ddfe6be3694,2024-02-22_14h28.20.969,kallum_motion_pilot,2023.2.2,Win32,59.88023952,659c0043b2992ddfe6be3694,65d6bb0e977760de756971f7,65d6be231a820dea5ab9ffa9,0.0341,0.0342,0,115,115,119,1,eightseven,,,,,,,,,,,,,,,,,,,,,,,,,,,,,,,,,,,,,,,,,,,,,,,,,,,,,,,,,,,,,,,,,,,,,,,,,,,,,,,,,,,,,,,,,,,,,,,,,,,,,,,,,,,,,,,,,,,,,,,,,,,,,,,,,,,,,,,,,
,,659c0043b2992ddfe6be3694,2024-02-22_14h28.20.969,kallum_motion_pilot,2023.2.2,Win32,59.88023952,659c0043b2992ddfe6be3694,65d6bb0e977760de756971f7,65d6be231a820dea5ab9ffa9,0.0343,0.0343,0,116,116,92,1,sevenfive,,,,,,,,,,,,,,,,,,,,,,,,,,,,,,,,,,,,,,,,,,,,,,,,,,,,,,,,,,,,,,,,,,,,,,,,,,,,,,,,,,,,,,,,,,,,,,,,,,,,,,,,,,,,,,,,,,,,,,,,,,,,,,,,,,,,,,,,,
,,659c0043b2992ddfe6be3694,2024-02-22_14h28.20.969,kallum_motion_pilot,2023.2.2,Win32,59.88023952,659c0043b2992ddfe6be3694,65d6bb0e977760de756971f7,65d6be231a820dea5ab9ffa9,0.0344,0.0344,0,117,117,47,1,fourthree,,,,,,,,,,,,,,,,,,,,,,,,,,,,,,,,,,,,,,,,,,,,,,,,,,,,,,,,,,,,,,,,,,,,,,,,,,,,,,,,,,,,,,,,,,,,,,,,,,,,,,,,,,,,,,,,,,,,,,,,,,,,,,,,,,,,,,,,,
,,659c0043b2992ddfe6be3694,2024-02-22_14h28.20.969,kallum_motion_pilot,2023.2.2,Win32,59.88023952,659c0043b2992ddfe6be3694,65d6bb0e977760de756971f7,65d6be231a820dea5ab9ffa9,0.0345,0.0345,0,118,118,106,1,sixfive,,,,,,,,,,,,,,,,,,,,,,,,,,,,,,,,,,,,,,,,,,,,,,,,,,,,,,,,,,,,,,,,,,,,,,,,,,,,,,,,,,,,,,,,,,,,,,,,,,,,,,,,,,,,,,,,,,,,,,,,,,,,,,,,,,,,,,,,,
,,659c0043b2992ddfe6be3694,2024-02-22_14h28.20.969,kallum_motion_pilot,2023.2.2,Win32,59.88023952,659c0043b2992ddfe6be3694,65d6bb0e977760de756971f7,65d6be231a820dea5ab9ffa9,0.0345,0.0345,0,119,119,81,1,fiveseven,,,,,,,,,,,,,,,,,,,,,,,,,,,,,,,,,,,,,,,,,,,,,,,,,,,,,,,,,,,,,,,,,,,,,,,,,,,,,,,,,,,,,,,,,,,,,,,,,,,,,,,,,,,,,,,,,,,,,,,,,,,,,,,,,,,,,,,,,
,,659c0043b2992ddfe6be3694,2024-02-22_14h28.20.969,kallum_motion_pilot,2023.2.2,Win32,59.88023952,659c0043b2992ddfe6be3694,65d6bb0e977760de756971f7,65d6be231a820dea5ab9ffa9,0.0346,0.0346,0,120,120,131,1,sixeight,,,,,,,,,,,,,,,,,,,,,,,,,,,,,,,,,,,,,,,,,,,,,,,,,,,,,,,,,,,,,,,,,,,,,,,,,,,,,,,,,,,,,,,,,,,,,,,,,,,,,,,,,,,,,,,,,,,,,,,,,,,,,,,,,,,,,,,,,
,,659c0043b2992ddfe6be3694,2024-02-22_14h28.20.969,kallum_motion_pilot,2023.2.2,Win32,59.88023952,659c0043b2992ddfe6be3694,65d6bb0e977760de756971f7,65d6be231a820dea5ab9ffa9,0.0347,0.0347,0,121,121,133,1,seveneight,,,,,,,,,,,,,,,,,,,,,,,,,,,,,,,,,,,,,,,,,,,,,,,,,,,,,,,,,,,,,,,,,,,,,,,,,,,,,,,,,,,,,,,,,,,,,,,,,,,,,,,,,,,,,,,,,,,,,,,,,,,,,,,,,,,,,,,,,
,,659c0043b2992ddfe6be3694,2024-02-22_14h28.20.969,kallum_motion_pilot,2023.2.2,Win32,59.88023952,659c0043b2992ddfe6be3694,65d6bb0e977760de756971f7,65d6be231a820dea5ab9ffa9,0.0348,0.0349,0,122,122,139,1,sixeight,,,,,,,,,,,,,,,,,,,,,,,,,,,,,,,,,,,,,,,,,,,,,,,,,,,,,,,,,,,,,,,,,,,,,,,,,,,,,,,,,,,,,,,,,,,,,,,,,,,,,,,,,,,,,,,,,,,,,,,,,,,,,,,,,,,,,,,,,
,,659c0043b2992ddfe6be3694,2024-02-22_14h28.20.969,kallum_motion_pilot,2023.2.2,Win32,59.88023952,659c0043b2992ddfe6be3694,65d6bb0e977760de756971f7,65d6be231a820dea5ab9ffa9,0.0349,0.0349,0,123,123,57,1,onethree,,,,,,,,,,,,,,,,,,,,,,,,,,,,,,,,,,,,,,,,,,,,,,,,,,,,,,,,,,,,,,,,,,,,,,,,,,,,,,,,,,,,,,,,,,,,,,,,,,,,,,,,,,,,,,,,,,,,,,,,,,,,,,,,,,,,,,,,,
,,659c0043b2992ddfe6be3694,2024-02-22_14h28.20.969,kallum_motion_pilot,2023.2.2,Win32,59.88023952,659c0043b2992ddfe6be3694,65d6bb0e977760de756971f7,65d6be231a820dea5ab9ffa9,0.035,0.0351,0,124,124,93,1,seveneight,,,,,,,,,,,,,,,,,,,,,,,,,,,,,,,,,,,,,,,,,,,,,,,,,,,,,,,,,,,,,,,,,,,,,,,,,,,,,,,,,,,,,,,,,,,,,,,,,,,,,,,,,,,,,,,,,,,,,,,,,,,,,,,,,,,,,,,,,
,,659c0043b2992ddfe6be3694,2024-02-22_14h28.20.969,kallum_motion_pilot,2023.2.2,Win32,59.88023952,659c0043b2992ddfe6be3694,65d6bb0e977760de756971f7,65d6be231a820dea5ab9ffa9,0.0351,0.0352,0,125,125,74,1,twoone,,,,,,,,,,,,,,,,,,,,,,,,,,,,,,,,,,,,,,,,,,,,,,,,,,,,,,,,,,,,,,,,,,,,,,,,,,,,,,,,,,,,,,,,,,,,,,,,,,,,,,,,,,,,,,,,,,,,,,,,,,,,,,,,,,,,,,,,,
,,659c0043b2992ddfe6be3694,2024-02-22_14h28.20.969,kallum_motion_pilot,2023.2.2,Win32,59.88023952,659c0043b2992ddfe6be3694,65d6bb0e977760de756971f7,65d6be231a820dea5ab9ffa9,0.0354,0.0355,0,126,126,80,1,fivesix,,,,,,,,,,,,,,,,,,,,,,,,,,,,,,,,,,,,,,,,,,,,,,,,,,,,,,,,,,,,,,,,,,,,,,,,,,,,,,,,,,,,,,,,,,,,,,,,,,,,,,,,,,,,,,,,,,,,,,,,,,,,,,,,,,,,,,,,,
,,659c0043b2992ddfe6be3694,2024-02-22_14h28.20.969,kallum_motion_pilot,2023.2.2,Win32,59.88023952,659c0043b2992ddfe6be3694,65d6bb0e977760de756971f7,65d6be231a820dea5ab9ffa9,0.0356,0.0356,0,127,127,157,1,seveneight,,,,,,,,,,,,,,,,,,,,,,,,,,,,,,,,,,,,,,,,,,,,,,,,,,,,,,,,,,,,,,,,,,,,,,,,,,,,,,,,,,,,,,,,,,,,,,,,,,,,,,,,,,,,,,,,,,,,,,,,,,,,,,,,,,,,,,,,,
,,659c0043b2992ddfe6be3694,2024-02-22_14h28.20.969,kallum_motion_pilot,2023.2.2,Win32,59.88023952,659c0043b2992ddfe6be3694,65d6bb0e977760de756971f7,65d6be231a820dea5ab9ffa9,0.0357,0.0357,0,128,128,134,1,eightsix,,,,,,,,,,,,,,,,,,,,,,,,,,,,,,,,,,,,,,,,,,,,,,,,,,,,,,,,,,,,,,,,,,,,,,,,,,,,,,,,,,,,,,,,,,,,,,,,,,,,,,,,,,,,,,,,,,,,,,,,,,,,,,,,,,,,,,,,,
,,659c0043b2992ddfe6be3694,2024-02-22_14h28.20.969,kallum_motion_pilot,2023.2.2,Win32,59.88023952,659c0043b2992ddfe6be3694,65d6bb0e977760de756971f7,65d6be231a820dea5ab9ffa9,0.0358,0.0358,0,129,129,97,1,fiveseven,,,,,,,,,,,,,,,,,,,,,,,,,,,,,,,,,,,,,,,,,,,,,,,,,,,,,,,,,,,,,,,,,,,,,,,,,,,,,,,,,,,,,,,,,,,,,,,,,,,,,,,,,,,,,,,,,,,,,,,,,,,,,,,,,,,,,,,,,
,,659c0043b2992ddfe6be3694,2024-02-22_14h28.20.969,kallum_motion_pilot,2023.2.2,Win32,59.88023952,659c0043b2992ddfe6be3694,65d6bb0e977760de756971f7,65d6be231a820dea5ab9ffa9,0.0359,0.0359,0,130,130,153,1,fiveseven,,,,,,,,,,,,,,,,,,,,,,,,,,,,,,,,,,,,,,,,,,,,,,,,,,,,,,,,,,,,,,,,,,,,,,,,,,,,,,,,,,,,,,,,,,,,,,,,,,,,,,,,,,,,,,,,,,,,,,,,,,,,,,,,,,,,,,,,,
,,659c0043b2992ddfe6be3694,2024-02-22_14h28.20.969,kallum_motion_pilot,2023.2.2,Win32,59.88023952,659c0043b2992ddfe6be3694,65d6bb0e977760de756971f7,65d6be231a820dea5ab9ffa9,0.036,0.036,0,131,131,156,1,sevenfive,,,,,,,,,,,,,,,,,,,,,,,,,,,,,,,,,,,,,,,,,,,,,,,,,,,,,,,,,,,,,,,,,,,,,,,,,,,,,,,,,,,,,,,,,,,,,,,,,,,,,,,,,,,,,,,,,,,,,,,,,,,,,,,,,,,,,,,,,
,,659c0043b2992ddfe6be3694,2024-02-22_14h28.20.969,kallum_motion_pilot,2023.2.2,Win32,59.88023952,659c0043b2992ddfe6be3694,65d6bb0e977760de756971f7,65d6be231a820dea5ab9ffa9,0.0361,0.0361,0,132,132,112,1,fivesix,,,,,,,,,,,,,,,,,,,,,,,,,,,,,,,,,,,,,,,,,,,,,,,,,,,,,,,,,,,,,,,,,,,,,,,,,,,,,,,,,,,,,,,,,,,,,,,,,,,,,,,,,,,,,,,,,,,,,,,,,,,,,,,,,,,,,,,,,
,,659c0043b2992ddfe6be3694,2024-02-22_14h28.20.969,kallum_motion_pilot,2023.2.2,Win32,59.88023952,659c0043b2992ddfe6be3694,65d6bb0e977760de756971f7,65d6be231a820dea5ab9ffa9,0.0362,0.0362,0,133,133,82,1,sixfive,,,,,,,,,,,,,,,,,,,,,,,,,,,,,,,,,,,,,,,,,,,,,,,,,,,,,,,,,,,,,,,,,,,,,,,,,,,,,,,,,,,,,,,,,,,,,,,,,,,,,,,,,,,,,,,,,,,,,,,,,,,,,,,,,,,,,,,,,
,,659c0043b2992ddfe6be3694,2024-02-22_14h28.20.969,kallum_motion_pilot,2023.2.2,Win32,59.88023952,659c0043b2992ddfe6be3694,65d6bb0e977760de756971f7,65d6be231a820dea5ab9ffa9,0.0362,0.0364,0,134,134,22,1,fourtwo,,,,,,,,,,,,,,,,,,,,,,,,,,,,,,,,,,,,,,,,,,,,,,,,,,,,,,,,,,,,,,,,,,,,,,,,,,,,,,,,,,,,,,,,,,,,,,,,,,,,,,,,,,,,,,,,,,,,,,,,,,,,,,,,,,,,,,,,,
,,659c0043b2992ddfe6be3694,2024-02-22_14h28.20.969,kallum_motion_pilot,2023.2.2,Win32,59.88023952,659c0043b2992ddfe6be3694,65d6bb0e977760de756971f7,65d6be231a820dea5ab9ffa9,0.0364,0.0364,0,135,135,15,1,fourthree,,,,,,,,,,,,,,,,,,,,,,,,,,,,,,,,,,,,,,,,,,,,,,,,,,,,,,,,,,,,,,,,,,,,,,,,,,,,,,,,,,,,,,,,,,,,,,,,,,,,,,,,,,,,,,,,,,,,,,,,,,,,,,,,,,,,,,,,,
,,659c0043b2992ddfe6be3694,2024-02-22_14h28.20.969,kallum_motion_pilot,2023.2.2,Win32,59.88023952,659c0043b2992ddfe6be3694,65d6bb0e977760de756971f7,65d6be231a820dea5ab9ffa9,0.0364,0.0365,0,136,136,118,1,eightsix,,,,,,,,,,,,,,,,,,,,,,,,,,,,,,,,,,,,,,,,,,,,,,,,,,,,,,,,,,,,,,,,,,,,,,,,,,,,,,,,,,,,,,,,,,,,,,,,,,,,,,,,,,,,,,,,,,,,,,,,,,,,,,,,,,,,,,,,,
,,659c0043b2992ddfe6be3694,2024-02-22_14h28.20.969,kallum_motion_pilot,2023.2.2,Win32,59.88023952,659c0043b2992ddfe6be3694,65d6bb0e977760de756971f7,65d6be231a820dea5ab9ffa9,0.0366,0.0366,0,137,137,24,1,onetwo,,,,,,,,,,,,,,,,,,,,,,,,,,,,,,,,,,,,,,,,,,,,,,,,,,,,,,,,,,,,,,,,,,,,,,,,,,,,,,,,,,,,,,,,,,,,,,,,,,,,,,,,,,,,,,,,,,,,,,,,,,,,,,,,,,,,,,,,,
,,659c0043b2992ddfe6be3694,2024-02-22_14h28.20.969,kallum_motion_pilot,2023.2.2,Win32,59.88023952,659c0043b2992ddfe6be3694,65d6bb0e977760de756971f7,65d6be231a820dea5ab9ffa9,0.0366,0.0367,0,138,138,122,1,sixfive,,,,,,,,,,,,,,,,,,,,,,,,,,,,,,,,,,,,,,,,,,,,,,,,,,,,,,,,,,,,,,,,,,,,,,,,,,,,,,,,,,,,,,,,,,,,,,,,,,,,,,,,,,,,,,,,,,,,,,,,,,,,,,,,,,,,,,,,,
,,659c0043b2992ddfe6be3694,2024-02-22_14h28.20.969,kallum_motion_pilot,2023.2.2,Win32,59.88023952,659c0043b2992ddfe6be3694,65d6bb0e977760de756971f7,65d6be231a820dea5ab9ffa9,0.0368,0.0368,0,139,139,75,1,twofour,,,,,,,,,,,,,,,,,,,,,,,,,,,,,,,,,,,,,,,,,,,,,,,,,,,,,,,,,,,,,,,,,,,,,,,,,,,,,,,,,,,,,,,,,,,,,,,,,,,,,,,,,,,,,,,,,,,,,,,,,,,,,,,,,,,,,,,,,
,,659c0043b2992ddfe6be3694,2024-02-22_14h28.20.969,kallum_motion_pilot,2023.2.2,Win32,59.88023952,659c0043b2992ddfe6be3694,65d6bb0e977760de756971f7,65d6be231a820dea5ab9ffa9,0.0368,0.0369,0,140,140,142,1,eightsix,,,,,,,,,,,,,,,,,,,,,,,,,,,,,,,,,,,,,,,,,,,,,,,,,,,,,,,,,,,,,,,,,,,,,,,,,,,,,,,,,,,,,,,,,,,,,,,,,,,,,,,,,,,,,,,,,,,,,,,,,,,,,,,,,,,,,,,,,
,,659c0043b2992ddfe6be3694,2024-02-22_14h28.20.969,kallum_motion_pilot,2023.2.2,Win32,59.88023952,659c0043b2992ddfe6be3694,65d6bb0e977760de756971f7,65d6be231a820dea5ab9ffa9,0.0369,0.037,0,141,141,86,1,eightsix,,,,,,,,,,,,,,,,,,,,,,,,,,,,,,,,,,,,,,,,,,,,,,,,,,,,,,,,,,,,,,,,,,,,,,,,,,,,,,,,,,,,,,,,,,,,,,,,,,,,,,,,,,,,,,,,,,,,,,,,,,,,,,,,,,,,,,,,,
,,659c0043b2992ddfe6be3694,2024-02-22_14h28.20.969,kallum_motion_pilot,2023.2.2,Win32,59.88023952,659c0043b2992ddfe6be3694,65d6bb0e977760de756971f7,65d6be231a820dea5ab9ffa9,0.037,0.0371,0,142,142,45,1,threefour,,,,,,,,,,,,,,,,,,,,,,,,,,,,,,,,,,,,,,,,,,,,,,,,,,,,,,,,,,,,,,,,,,,,,,,,,,,,,,,,,,,,,,,,,,,,,,,,,,,,,,,,,,,,,,,,,,,,,,,,,,,,,,,,,,,,,,,,,
,,659c0043b2992ddfe6be3694,2024-02-22_14h28.20.969,kallum_motion_pilot,2023.2.2,Win32,59.88023952,659c0043b2992ddfe6be3694,65d6bb0e977760de756971f7,65d6be231a820dea5ab9ffa9,0.0371,0.0371,0,143,143,36,1,threeone,,,,,,,,,,,,,,,,,,,,,,,,,,,,,,,,,,,,,,,,,,,,,,,,,,,,,,,,,,,,,,,,,,,,,,,,,,,,,,,,,,,,,,,,,,,,,,,,,,,,,,,,,,,,,,,,,,,,,,,,,,,,,,,,,,,,,,,,,
,,659c0043b2992ddfe6be3694,2024-02-22_14h28.20.969,kallum_motion_pilot,2023.2.2,Win32,59.88023952,659c0043b2992ddfe6be3694,65d6bb0e977760de756971f7,65d6be231a820dea5ab9ffa9,0.0372,0.0373,0,144,144,148,1,sevenfive,,,,,,,,,,,,,,,,,,,,,,,,,,,,,,,,,,,,,,,,,,,,,,,,,,,,,,,,,,,,,,,,,,,,,,,,,,,,,,,,,,,,,,,,,,,,,,,,,,,,,,,,,,,,,,,,,,,,,,,,,,,,,,,,,,,,,,,,,
,,659c0043b2992ddfe6be3694,2024-02-22_14h28.20.969,kallum_motion_pilot,2023.2.2,Win32,59.88023952,659c0043b2992ddfe6be3694,65d6bb0e977760de756971f7,65d6be231a820dea5ab9ffa9,0.0373,0.0373,0,145,145,100,1,sevenfive,,,,,,,,,,,,,,,,,,,,,,,,,,,,,,,,,,,,,,,,,,,,,,,,,,,,,,,,,,,,,,,,,,,,,,,,,,,,,,,,,,,,,,,,,,,,,,,,,,,,,,,,,,,,,,,,,,,,,,,,,,,,,,,,,,,,,,,,,
,,659c0043b2992ddfe6be3694,2024-02-22_14h28.20.969,kallum_motion_pilot,2023.2.2,Win32,59.88023952,659c0043b2992ddfe6be3694,65d6bb0e977760de756971f7,65d6be231a820dea5ab9ffa9,0.0374,0.0374,0,146,146,135,1,eightseven,,,,,,,,,,,,,,,,,,,,,,,,,,,,,,,,,,,,,,,,,,,,,,,,,,,,,,,,,,,,,,,,,,,,,,,,,,,,,,,,,,,,,,,,,,,,,,,,,,,,,,,,,,,,,,,,,,,,,,,,,,,,,,,,,,,,,,,,,
,,659c0043b2992ddfe6be3694,2024-02-22_14h28.20.969,kallum_motion_pilot,2023.2.2,Win32,59.88023952,659c0043b2992ddfe6be3694,65d6bb0e977760de756971f7,65d6be231a820dea5ab9ffa9,0.0375,0.0376,0,147,147,121,1,fiveseven,,,,,,,,,,,,,,,,,,,,,,,,,,,,,,,,,,,,,,,,,,,,,,,,,,,,,,,,,,,,,,,,,,,,,,,,,,,,,,,,,,,,,,,,,,,,,,,,,,,,,,,,,,,,,,,,,,,,,,,,,,,,,,,,,,,,,,,,,
,,659c0043b2992ddfe6be3694,2024-02-22_14h28.20.969,kallum_motion_pilot,2023.2.2,Win32,59.88023952,659c0043b2992ddfe6be3694,65d6bb0e977760de756971f7,65d6be231a820dea5ab9ffa9,0.0376,0.0376,0,148,148,11,1,twofour,,,,,,,,,,,,,,,,,,,,,,,,,,,,,,,,,,,,,,,,,,,,,,,,,,,,,,,,,,,,,,,,,,,,,,,,,,,,,,,,,,,,,,,,,,,,,,,,,,,,,,,,,,,,,,,,,,,,,,,,,,,,,,,,,,,,,,,,,
,,659c0043b2992ddfe6be3694,2024-02-22_14h28.20.969,kallum_motion_pilot,2023.2.2,Win32,59.88023952,659c0043b2992ddfe6be3694,65d6bb0e977760de756971f7,65d6be231a820dea5ab9ffa9,0.0377,0.0378,0,149,149,99,1,sixeight,,,,,,,,,,,,,,,,,,,,,,,,,,,,,,,,,,,,,,,,,,,,,,,,,,,,,,,,,,,,,,,,,,,,,,,,,,,,,,,,,,,,,,,,,,,,,,,,,,,,,,,,,,,,,,,,,,,,,,,,,,,,,,,,,,,,,,,,,
,,659c0043b2992ddfe6be3694,2024-02-22_14h28.20.969,kallum_motion_pilot,2023.2.2,Win32,59.88023952,659c0043b2992ddfe6be3694,65d6bb0e977760de756971f7,65d6be231a820dea5ab9ffa9,0.0378,0.0378,0,150,150,21,1,threefour,,,,,,,,,,,,,,,,,,,,,,,,,,,,,,,,,,,,,,,,,,,,,,,,,,,,,,,,,,,,,,,,,,,,,,,,,,,,,,,,,,,,,,,,,,,,,,,,,,,,,,,,,,,,,,,,,,,,,,,,,,,,,,,,,,,,,,,,,
,,659c0043b2992ddfe6be3694,2024-02-22_14h28.20.969,kallum_motion_pilot,2023.2.2,Win32,59.88023952,659c0043b2992ddfe6be3694,65d6bb0e977760de756971f7,65d6be231a820dea5ab9ffa9,0.0379,0.0379,0,151,151,104,1,fivesix,,,,,,,,,,,,,,,,,,,,,,,,,,,,,,,,,,,,,,,,,,,,,,,,,,,,,,,,,,,,,,,,,,,,,,,,,,,,,,,,,,,,,,,,,,,,,,,,,,,,,,,,,,,,,,,,,,,,,,,,,,,,,,,,,,,,,,,,,
,,659c0043b2992ddfe6be3694,2024-02-22_14h28.20.969,kallum_motion_pilot,2023.2.2,Win32,59.88023952,659c0043b2992ddfe6be3694,65d6bb0e977760de756971f7,65d6be231a820dea5ab9ffa9,0.038,0.0381,0,152,152,132,1,sevenfive,,,,,,,,,,,,,,,,,,,,,,,,,,,,,,,,,,,,,,,,,,,,,,,,,,,,,,,,,,,,,,,,,,,,,,,,,,,,,,,,,,,,,,,,,,,,,,,,,,,,,,,,,,,,,,,,,,,,,,,,,,,,,,,,,,,,,,,,,
,,659c0043b2992ddfe6be3694,2024-02-22_14h28.20.969,kallum_motion_pilot,2023.2.2,Win32,59.88023952,659c0043b2992ddfe6be3694,65d6bb0e977760de756971f7,65d6be231a820dea5ab9ffa9,0.0382,0.0382,0,153,153,8,1,onetwo,,,,,,,,,,,,,,,,,,,,,,,,,,,,,,,,,,,,,,,,,,,,,,,,,,,,,,,,,,,,,,,,,,,,,,,,,,,,,,,,,,,,,,,,,,,,,,,,,,,,,,,,,,,,,,,,,,,,,,,,,,,,,,,,,,,,,,,,,
,,659c0043b2992ddfe6be3694,2024-02-22_14h28.20.969,kallum_motion_pilot,2023.2.2,Win32,59.88023952,659c0043b2992ddfe6be3694,65d6bb0e977760de756971f7,65d6be231a820dea5ab9ffa9,0.0382,0.0383,0,154,154,72,1,onetwo,,,,,,,,,,,,,,,,,,,,,,,,,,,,,,,,,,,,,,,,,,,,,,,,,,,,,,,,,,,,,,,,,,,,,,,,,,,,,,,,,,,,,,,,,,,,,,,,,,,,,,,,,,,,,,,,,,,,,,,,,,,,,,,,,,,,,,,,,
,,659c0043b2992ddfe6be3694,2024-02-22_14h28.20.969,kallum_motion_pilot,2023.2.2,Win32,59.88023952,659c0043b2992ddfe6be3694,65d6bb0e977760de756971f7,65d6be231a820dea5ab9ffa9,0.0383,0.0384,0,155,155,102,1,eightsix,,,,,,,,,,,,,,,,,,,,,,,,,,,,,,,,,,,,,,,,,,,,,,,,,,,,,,,,,,,,,,,,,,,,,,,,,,,,,,,,,,,,,,,,,,,,,,,,,,,,,,,,,,,,,,,,,,,,,,,,,,,,,,,,,,,,,,,,,
,,659c0043b2992ddfe6be3694,2024-02-22_14h28.20.969,kallum_motion_pilot,2023.2.2,Win32,59.88023952,659c0043b2992ddfe6be3694,65d6bb0e977760de756971f7,65d6be231a820dea5ab9ffa9,0.0386,0.0386,0,156,156,85,1,seveneight,,,,,,,,,,,,,,,,,,,,,,,,,,,,,,,,,,,,,,,,,,,,,,,,,,,,,,,,,,,,,,,,,,,,,,,,,,,,,,,,,,,,,,,,,,,,,,,,,,,,,,,,,,,,,,,,,,,,,,,,,,,,,,,,,,,,,,,,,
,,659c0043b2992ddfe6be3694,2024-02-22_14h28.20.969,kallum_motion_pilot,2023.2.2,Win32,59.88023952,659c0043b2992ddfe6be3694,65d6bb0e977760de756971f7,65d6be231a820dea5ab9ffa9,0.0388,0.0388,0,157,157,17,1,onethree,,,,,,,,,,,,,,,,,,,,,,,,,,,,,,,,,,,,,,,,,,,,,,,,,,,,,,,,,,,,,,,,,,,,,,,,,,,,,,,,,,,,,,,,,,,,,,,,,,,,,,,,,,,,,,,,,,,,,,,,,,,,,,,,,,,,,,,,,
,,659c0043b2992ddfe6be3694,2024-02-22_14h28.20.969,kallum_motion_pilot,2023.2.2,Win32,59.88023952,659c0043b2992ddfe6be3694,65d6bb0e977760de756971f7,65d6be231a820dea5ab9ffa9,0.0389,0.0389,0,158,158,161,1,fiveseven,,,,,,,,,,,,,,,,,,,,,,,,,,,,,,,,,,,,,,,,,,,,,,,,,,,,,,,,,,,,,,,,,,,,,,,,,,,,,,,,,,,,,,,,,,,,,,,,,,,,,,,,,,,,,,,,,,,,,,,,,,,,,,,,,,,,,,,,,
,,659c0043b2992ddfe6be3694,2024-02-22_14h28.20.969,kallum_motion_pilot,2023.2.2,Win32,59.88023952,659c0043b2992ddfe6be3694,65d6bb0e977760de756971f7,65d6be231a820dea5ab9ffa9,0.0389,0.039,0,159,159,141,1,seveneight,,,,,,,,,,,,,,,,,,,,,,,,,,,,,,,,,,,,,,,,,,,,,,,,,,,,,,,,,,,,,,,,,,,,,,,,,,,,,,,,,,,,,,,,,,,,,,,,,,,,,,,,,,,,,,,,,,,,,,,,,,,,,,,,,,,,,,,,,
,,659c0043b2992ddfe6be3694,2024-02-22_14h28.20.969,kallum_motion_pilot,2023.2.2,Win32,59.88023952,659c0043b2992ddfe6be3694,65d6bb0e977760de756971f7,65d6be231a820dea5ab9ffa9,0.0391,0.0391,0,160,160,58,1,twoone,,,,,,,,,,,,,,,,,,,,,,,,,,,,,,,,,,,,,,,,,,,,,,,,,,,,,,,,,,,,,,,,,,,,,,,,,,,,,,,,,,,,,,,,,,,,,,,,,,,,,,,,,,,,,,,,,,,,,,,,,,,,,,,,,,,,,,,,,
,,659c0043b2992ddfe6be3694,2024-02-22_14h28.20.969,kallum_motion_pilot,2023.2.2,Win32,59.88023952,659c0043b2992ddfe6be3694,65d6bb0e977760de756971f7,65d6be231a820dea5ab9ffa9,0.0392,0.0392,0,161,161,101,1,seveneight,,,,,,,,,,,,,,,,,,,,,,,,,,,,,,,,,,,,,,,,,,,,,,,,,,,,,,,,,,,,,,,,,,,,,,,,,,,,,,,,,,,,,,,,,,,,,,,,,,,,,,,,,,,,,,,,,,,,,,,,,,,,,,,,,,,,,,,,,
,,659c0043b2992ddfe6be3694,2024-02-22_14h28.20.969,kallum_motion_pilot,2023.2.2,Win32,59.88023952,659c0043b2992ddfe6be3694,65d6bb0e977760de756971f7,65d6be231a820dea5ab9ffa9,0.0393,0.0394,1,0,162,48,1,onetwo,,,,,,,,,,,,,,,,,,,,,,,,,,,,,,,,,,,,,,,,,,,,,,,,,,,,,,,,,,,,,,,,,,,,,,,,,,,,,,,,,,,,,,,,,,,,,,,,,,,,,,,,,,,,,,,,,,,,,,,,,,,,,,,,,,,,,,,,,
,,659c0043b2992ddfe6be3694,2024-02-22_14h28.20.969,kallum_motion_pilot,2023.2.2,Win32,59.88023952,659c0043b2992ddfe6be3694,65d6bb0e977760de756971f7,65d6be231a820dea5ab9ffa9,0.0395,0.0395,1,1,163,133,1,seveneight,,,,,,,,,,,,,,,,,,,,,,,,,,,,,,,,,,,,,,,,,,,,,,,,,,,,,,,,,,,,,,,,,,,,,,,,,,,,,,,,,,,,,,,,,,,,,,,,,,,,,,,,,,,,,,,,,,,,,,,,,,,,,,,,,,,,,,,,,
,,659c0043b2992ddfe6be3694,2024-02-22_14h28.20.969,kallum_motion_pilot,2023.2.2,Win32,59.88023952,659c0043b2992ddfe6be3694,65d6bb0e977760de756971f7,65d6be231a820dea5ab9ffa9,0.0396,0.0396,1,2,164,106,1,sixfive,,,,,,,,,,,,,,,,,,,,,,,,,,,,,,,,,,,,,,,,,,,,,,,,,,,,,,,,,,,,,,,,,,,,,,,,,,,,,,,,,,,,,,,,,,,,,,,,,,,,,,,,,,,,,,,,,,,,,,,,,,,,,,,,,,,,,,,,,
,,659c0043b2992ddfe6be3694,2024-02-22_14h28.20.969,kallum_motion_pilot,2023.2.2,Win32,59.88023952,659c0043b2992ddfe6be3694,65d6bb0e977760de756971f7,65d6be231a820dea5ab9ffa9,0.0396,0.0397,1,3,165,108,1,sevenfive,,,,,,,,,,,,,,,,,,,,,,,,,,,,,,,,,,,,,,,,,,,,,,,,,,,,,,,,,,,,,,,,,,,,,,,,,,,,,,,,,,,,,,,,,,,,,,,,,,,,,,,,,,,,,,,,,,,,,,,,,,,,,,,,,,,,,,,,,
,,659c0043b2992ddfe6be3694,2024-02-22_14h28.20.969,kallum_motion_pilot,2023.2.2,Win32,59.88023952,659c0043b2992ddfe6be3694,65d6bb0e977760de756971f7,65d6be231a820dea5ab9ffa9,0.0398,0.0398,1,4,166,124,1,sevenfive,,,,,,,,,,,,,,,,,,,,,,,,,,,,,,,,,,,,,,,,,,,,,,,,,,,,,,,,,,,,,,,,,,,,,,,,,,,,,,,,,,,,,,,,,,,,,,,,,,,,,,,,,,,,,,,,,,,,,,,,,,,,,,,,,,,,,,,,,
,,659c0043b2992ddfe6be3694,2024-02-22_14h28.20.969,kallum_motion_pilot,2023.2.2,Win32,59.88023952,659c0043b2992ddfe6be3694,65d6bb0e977760de756971f7,65d6be231a820dea5ab9ffa9,0.0399,0.0399,1,5,167,54,1,fourtwo,,,,,,,,,,,,,,,,,,,,,,,,,,,,,,,,,,,,,,,,,,,,,,,,,,,,,,,,,,,,,,,,,,,,,,,,,,,,,,,,,,,,,,,,,,,,,,,,,,,,,,,,,,,,,,,,,,,,,,,,,,,,,,,,,,,,,,,,,
,,659c0043b2992ddfe6be3694,2024-02-22_14h28.20.969,kallum_motion_pilot,2023.2.2,Win32,59.88023952,659c0043b2992ddfe6be3694,65d6bb0e977760de756971f7,65d6be231a820dea5ab9ffa9,0.04,0.0401,1,6,168,141,1,seveneight,,,,,,,,,,,,,,,,,,,,,,,,,,,,,,,,,,,,,,,,,,,,,,,,,,,,,,,,,,,,,,,,,,,,,,,,,,,,,,,,,,,,,,,,,,,,,,,,,,,,,,,,,,,,,,,,,,,,,,,,,,,,,,,,,,,,,,,,,
,,659c0043b2992ddfe6be3694,2024-02-22_14h28.20.969,kallum_motion_pilot,2023.2.2,Win32,59.88023952,659c0043b2992ddfe6be3694,65d6bb0e977760de756971f7,65d6be231a820dea5ab9ffa9,0.0401,0.0401,1,7,169,88,1,fivesix,,,,,,,,,,,,,,,,,,,,,,,,,,,,,,,,,,,,,,,,,,,,,,,,,,,,,,,,,,,,,,,,,,,,,,,,,,,,,,,,,,,,,,,,,,,,,,,,,,,,,,,,,,,,,,,,,,,,,,,,,,,,,,,,,,,,,,,,,
,,659c0043b2992ddfe6be3694,2024-02-22_14h28.20.969,kallum_motion_pilot,2023.2.2,Win32,59.88023952,659c0043b2992ddfe6be3694,65d6bb0e977760de756971f7,65d6be231a820dea5ab9ffa9,0.0412,0.0413,1,8,170,46,1,fourtwo,,,,,,,,,,,,,,,,,,,,,,,,,,,,,,,,,,,,,,,,,,,,,,,,,,,,,,,,,,,,,,,,,,,,,,,,,,,,,,,,,,,,,,,,,,,,,,,,,,,,,,,,,,,,,,,,,,,,,,,,,,,,,,,,,,,,,,,,,
,,659c0043b2992ddfe6be3694,2024-02-22_14h28.20.969,kallum_motion_pilot,2023.2.2,Win32,59.88023952,659c0043b2992ddfe6be3694,65d6bb0e977760de756971f7,65d6be231a820dea5ab9ffa9,0.0415,0.0416,1,9,171,65,1,onethree,,,,,,,,,,,,,,,,,,,,,,,,,,,,,,,,,,,,,,,,,,,,,,,,,,,,,,,,,,,,,,,,,,,,,,,,,,,,,,,,,,,,,,,,,,,,,,,,,,,,,,,,,,,,,,,,,,,,,,,,,,,,,,,,,,,,,,,,,
,,659c0043b2992ddfe6be3694,2024-02-22_14h28.20.969,kallum_motion_pilot,2023.2.2,Win32,59.88023952,659c0043b2992ddfe6be3694,65d6bb0e977760de756971f7,65d6be231a820dea5ab9ffa9,0.0416,0.0417,1,10,172,17,1,onethree,,,,,,,,,,,,,,,,,,,,,,,,,,,,,,,,,,,,,,,,,,,,,,,,,,,,,,,,,,,,,,,,,,,,,,,,,,,,,,,,,,,,,,,,,,,,,,,,,,,,,,,,,,,,,,,,,,,,,,,,,,,,,,,,,,,,,,,,,
,,659c0043b2992ddfe6be3694,2024-02-22_14h28.20.969,kallum_motion_pilot,2023.2.2,Win32,59.88023952,659c0043b2992ddfe6be3694,65d6bb0e977760de756971f7,65d6be231a820dea5ab9ffa9,0.0417,0.0419,1,11,173,52,1,threeone,,,,,,,,,,,,,,,,,,,,,,,,,,,,,,,,,,,,,,,,,,,,,,,,,,,,,,,,,,,,,,,,,,,,,,,,,,,,,,,,,,,,,,,,,,,,,,,,,,,,,,,,,,,,,,,,,,,,,,,,,,,,,,,,,,,,,,,,,
,,659c0043b2992ddfe6be3694,2024-02-22_14h28.20.969,kallum_motion_pilot,2023.2.2,Win32,59.88023952,659c0043b2992ddfe6be3694,65d6bb0e977760de756971f7,65d6be231a820dea5ab9ffa9,0.0419,0.042,1,12,174,119,1,eightseven,,,,,,,,,,,,,,,,,,,,,,,,,,,,,,,,,,,,,,,,,,,,,,,,,,,,,,,,,,,,,,,,,,,,,,,,,,,,,,,,,,,,,,,,,,,,,,,,,,,,,,,,,,,,,,,,,,,,,,,,,,,,,,,,,,,,,,,,,
,,659c0043b2992ddfe6be3694,2024-02-22_14h28.20.969,kallum_motion_pilot,2023.2.2,Win32,59.88023952,659c0043b2992ddfe6be3694,65d6bb0e977760de756971f7,65d6be231a820dea5ab9ffa9,0.0421,0.0421,1,13,175,87,1,eightseven,,,,,,,,,,,,,,,,,,,,,,,,,,,,,,,,,,,,,,,,,,,,,,,,,,,,,,,,,,,,,,,,,,,,,,,,,,,,,,,,,,,,,,,,,,,,,,,,,,,,,,,,,,,,,,,,,,,,,,,,,,,,,,,,,,,,,,,,,
,,659c0043b2992ddfe6be3694,2024-02-22_14h28.20.969,kallum_motion_pilot,2023.2.2,Win32,59.88023952,659c0043b2992ddfe6be3694,65d6bb0e977760de756971f7,65d6be231a820dea5ab9ffa9,0.0422,0.0422,1,14,176,109,1,seveneight,,,,,,,,,,,,,,,,,,,,,,,,,,,,,,,,,,,,,,,,,,,,,,,,,,,,,,,,,,,,,,,,,,,,,,,,,,,,,,,,,,,,,,,,,,,,,,,,,,,,,,,,,,,,,,,,,,,,,,,,,,,,,,,,,,,,,,,,,
,,659c0043b2992ddfe6be3694,2024-02-22_14h28.20.969,kallum_motion_pilot,2023.2.2,Win32,59.88023952,659c0043b2992ddfe6be3694,65d6bb0e977760de756971f7,65d6be231a820dea5ab9ffa9,0.0423,0.0423,1,15,177,159,1,eightseven,,,,,,,,,,,,,,,,,,,,,,,,,,,,,,,,,,,,,,,,,,,,,,,,,,,,,,,,,,,,,,,,,,,,,,,,,,,,,,,,,,,,,,,,,,,,,,,,,,,,,,,,,,,,,,,,,,,,,,,,,,,,,,,,,,,,,,,,,
,,659c0043b2992ddfe6be3694,2024-02-22_14h28.20.969,kallum_motion_pilot,2023.2.2,Win32,59.88023952,659c0043b2992ddfe6be3694,65d6bb0e977760de756971f7,65d6be231a820dea5ab9ffa9,0.0423,0.0424,1,16,178,70,1,fourtwo,,,,,,,,,,,,,,,,,,,,,,,,,,,,,,,,,,,,,,,,,,,,,,,,,,,,,,,,,,,,,,,,,,,,,,,,,,,,,,,,,,,,,,,,,,,,,,,,,,,,,,,,,,,,,,,,,,,,,,,,,,,,,,,,,,,,,,,,,
,,659c0043b2992ddfe6be3694,2024-02-22_14h28.20.969,kallum_motion_pilot,2023.2.2,Win32,59.88023952,659c0043b2992ddfe6be3694,65d6bb0e977760de756971f7,65d6be231a820dea5ab9ffa9,0.0425,0.0427,1,17,179,68,1,threeone,,,,,,,,,,,,,,,,,,,,,,,,,,,,,,,,,,,,,,,,,,,,,,,,,,,,,,,,,,,,,,,,,,,,,,,,,,,,,,,,,,,,,,,,,,,,,,,,,,,,,,,,,,,,,,,,,,,,,,,,,,,,,,,,,,,,,,,,,
,,659c0043b2992ddfe6be3694,2024-02-22_14h28.20.969,kallum_motion_pilot,2023.2.2,Win32,59.88023952,659c0043b2992ddfe6be3694,65d6bb0e977760de756971f7,65d6be231a820dea5ab9ffa9,0.0427,0.0428,1,18,180,63,1,fourthree,,,,,,,,,,,,,,,,,,,,,,,,,,,,,,,,,,,,,,,,,,,,,,,,,,,,,,,,,,,,,,,,,,,,,,,,,,,,,,,,,,,,,,,,,,,,,,,,,,,,,,,,,,,,,,,,,,,,,,,,,,,,,,,,,,,,,,,,,
,,659c0043b2992ddfe6be3694,2024-02-22_14h28.20.969,kallum_motion_pilot,2023.2.2,Win32,59.88023952,659c0043b2992ddfe6be3694,65d6bb0e977760de756971f7,65d6be231a820dea5ab9ffa9,0.0429,0.043,1,19,181,152,1,fivesix,,,,,,,,,,,,,,,,,,,,,,,,,,,,,,,,,,,,,,,,,,,,,,,,,,,,,,,,,,,,,,,,,,,,,,,,,,,,,,,,,,,,,,,,,,,,,,,,,,,,,,,,,,,,,,,,,,,,,,,,,,,,,,,,,,,,,,,,,
,,659c0043b2992ddfe6be3694,2024-02-22_14h28.20.969,kallum_motion_pilot,2023.2.2,Win32,59.88023952,659c0043b2992ddfe6be3694,65d6bb0e977760de756971f7,65d6be231a820dea5ab9ffa9,0.043,0.0431,1,20,182,100,1,sevenfive,,,,,,,,,,,,,,,,,,,,,,,,,,,,,,,,,,,,,,,,,,,,,,,,,,,,,,,,,,,,,,,,,,,,,,,,,,,,,,,,,,,,,,,,,,,,,,,,,,,,,,,,,,,,,,,,,,,,,,,,,,,,,,,,,,,,,,,,,
,,659c0043b2992ddfe6be3694,2024-02-22_14h28.20.969,kallum_motion_pilot,2023.2.2,Win32,59.88023952,659c0043b2992ddfe6be3694,65d6bb0e977760de756971f7,65d6be231a820dea5ab9ffa9,0.0432,0.0433,1,21,183,130,1,sixfive,,,,,,,,,,,,,,,,,,,,,,,,,,,,,,,,,,,,,,,,,,,,,,,,,,,,,,,,,,,,,,,,,,,,,,,,,,,,,,,,,,,,,,,,,,,,,,,,,,,,,,,,,,,,,,,,,,,,,,,,,,,,,,,,,,,,,,,,,
,,659c0043b2992ddfe6be3694,2024-02-22_14h28.20.969,kallum_motion_pilot,2023.2.2,Win32,59.88023952,659c0043b2992ddfe6be3694,65d6bb0e977760de756971f7,65d6be231a820dea5ab9ffa9,0.0433,0.0434,1,22,184,9,1,onethree,,,,,,,,,,,,,,,,,,,,,,,,,,,,,,,,,,,,,,,,,,,,,,,,,,,,,,,,,,,,,,,,,,,,,,,,,,,,,,,,,,,,,,,,,,,,,,,,,,,,,,,,,,,,,,,,,,,,,,,,,,,,,,,,,,,,,,,,,
,,659c0043b2992ddfe6be3694,2024-02-22_14h28.20.969,kallum_motion_pilot,2023.2.2,Win32,59.88023952,659c0043b2992ddfe6be3694,65d6bb0e977760de756971f7,65d6be231a820dea5ab9ffa9,0.0435,0.0436,1,23,185,33,1,onethree,,,,,,,,,,,,,,,,,,,,,,,,,,,,,,,,,,,,,,,,,,,,,,,,,,,,,,,,,,,,,,,,,,,,,,,,,,,,,,,,,,,,,,,,,,,,,,,,,,,,,,,,,,,,,,,,,,,,,,,,,,,,,,,,,,,,,,,,,
,,659c0043b2992ddfe6be3694,2024-02-22_14h28.20.969,kallum_motion_pilot,2023.2.2,Win32,59.88023952,659c0043b2992ddfe6be3694,65d6bb0e977760de756971f7,65d6be231a820dea5ab9ffa9,0.0437,0.0439,1,24,186,143,1,eightseven,,,,,,,,,,,,,,,,,,,,,,,,,,,,,,,,,,,,,,,,,,,,,,,,,,,,,,,,,,,,,,,,,,,,,,,,,,,,,,,,,,,,,,,,,,,,,,,,,,,,,,,,,,,,,,,,,,,,,,,,,,,,,,,,,,,,,,,,,
,,659c0043b2992ddfe6be3694,2024-02-22_14h28.20.969,kallum_motion_pilot,2023.2.2,Win32,59.88023952,659c0043b2992ddfe6be3694,65d6bb0e977760de756971f7,65d6be231a820dea5ab9ffa9,0.0439,0.044,1,25,187,61,1,threefour,,,,,,,,,,,,,,,,,,,,,,,,,,,,,,,,,,,,,,,,,,,,,,,,,,,,,,,,,,,,,,,,,,,,,,,,,,,,,,,,,,,,,,,,,,,,,,,,,,,,,,,,,,,,,,,,,,,,,,,,,,,,,,,,,,,,,,,,,
,,659c0043b2992ddfe6be3694,2024-02-22_14h28.20.969,kallum_motion_pilot,2023.2.2,Win32,59.88023952,659c0043b2992ddfe6be3694,65d6bb0e977760de756971f7,65d6be231a820dea5ab9ffa9,0.044,0.0441,1,26,188,149,1,seveneight,,,,,,,,,,,,,,,,,,,,,,,,,,,,,,,,,,,,,,,,,,,,,,,,,,,,,,,,,,,,,,,,,,,,,,,,,,,,,,,,,,,,,,,,,,,,,,,,,,,,,,,,,,,,,,,,,,,,,,,,,,,,,,,,,,,,,,,,,
,,659c0043b2992ddfe6be3694,2024-02-22_14h28.20.969,kallum_motion_pilot,2023.2.2,Win32,59.88023952,659c0043b2992ddfe6be3694,65d6bb0e977760de756971f7,65d6be231a820dea5ab9ffa9,0.0442,0.0442,1,27,189,59,1,twofour,,,,,,,,,,,,,,,,,,,,,,,,,,,,,,,,,,,,,,,,,,,,,,,,,,,,,,,,,,,,,,,,,,,,,,,,,,,,,,,,,,,,,,,,,,,,,,,,,,,,,,,,,,,,,,,,,,,,,,,,,,,,,,,,,,,,,,,,,
,,659c0043b2992ddfe6be3694,2024-02-22_14h28.20.969,kallum_motion_pilot,2023.2.2,Win32,59.88023952,659c0043b2992ddfe6be3694,65d6bb0e977760de756971f7,65d6be231a820dea5ab9ffa9,0.0443,0.0443,1,28,190,126,1,eightsix,,,,,,,,,,,,,,,,,,,,,,,,,,,,,,,,,,,,,,,,,,,,,,,,,,,,,,,,,,,,,,,,,,,,,,,,,,,,,,,,,,,,,,,,,,,,,,,,,,,,,,,,,,,,,,,,,,,,,,,,,,,,,,,,,,,,,,,,,
,,659c0043b2992ddfe6be3694,2024-02-22_14h28.20.969,kallum_motion_pilot,2023.2.2,Win32,59.88023952,659c0043b2992ddfe6be3694,65d6bb0e977760de756971f7,65d6be231a820dea5ab9ffa9,0.0445,0.0445,1,29,191,75,1,twofour,,,,,,,,,,,,,,,,,,,,,,,,,,,,,,,,,,,,,,,,,,,,,,,,,,,,,,,,,,,,,,,,,,,,,,,,,,,,,,,,,,,,,,,,,,,,,,,,,,,,,,,,,,,,,,,,,,,,,,,,,,,,,,,,,,,,,,,,,
,,659c0043b2992ddfe6be3694,2024-02-22_14h28.20.969,kallum_motion_pilot,2023.2.2,Win32,59.88023952,659c0043b2992ddfe6be3694,65d6bb0e977760de756971f7,65d6be231a820dea5ab9ffa9,0.0446,0.0446,1,30,192,78,1,fourtwo,,,,,,,,,,,,,,,,,,,,,,,,,,,,,,,,,,,,,,,,,,,,,,,,,,,,,,,,,,,,,,,,,,,,,,,,,,,,,,,,,,,,,,,,,,,,,,,,,,,,,,,,,,,,,,,,,,,,,,,,,,,,,,,,,,,,,,,,,
,,659c0043b2992ddfe6be3694,2024-02-22_14h28.20.969,kallum_motion_pilot,2023.2.2,Win32,59.88023952,659c0043b2992ddfe6be3694,65d6bb0e977760de756971f7,65d6be231a820dea5ab9ffa9,0.0447,0.0448,1,31,193,125,1,seveneight,,,,,,,,,,,,,,,,,,,,,,,,,,,,,,,,,,,,,,,,,,,,,,,,,,,,,,,,,,,,,,,,,,,,,,,,,,,,,,,,,,,,,,,,,,,,,,,,,,,,,,,,,,,,,,,,,,,,,,,,,,,,,,,,,,,,,,,,,
,,659c0043b2992ddfe6be3694,2024-02-22_14h28.20.969,kallum_motion_pilot,2023.2.2,Win32,59.88023952,659c0043b2992ddfe6be3694,65d6bb0e977760de756971f7,65d6be231a820dea5ab9ffa9,0.0448,0.0449,1,32,194,43,1,twofour,,,,,,,,,,,,,,,,,,,,,,,,,,,,,,,,,,,,,,,,,,,,,,,,,,,,,,,,,,,,,,,,,,,,,,,,,,,,,,,,,,,,,,,,,,,,,,,,,,,,,,,,,,,,,,,,,,,,,,,,,,,,,,,,,,,,,,,,,
,,659c0043b2992ddfe6be3694,2024-02-22_14h28.20.969,kallum_motion_pilot,2023.2.2,Win32,59.88023952,659c0043b2992ddfe6be3694,65d6bb0e977760de756971f7,65d6be231a820dea5ab9ffa9,0.0449,0.045,1,33,195,57,1,onethree,,,,,,,,,,,,,,,,,,,,,,,,,,,,,,,,,,,,,,,,,,,,,,,,,,,,,,,,,,,,,,,,,,,,,,,,,,,,,,,,,,,,,,,,,,,,,,,,,,,,,,,,,,,,,,,,,,,,,,,,,,,,,,,,,,,,,,,,,
,,659c0043b2992ddfe6be3694,2024-02-22_14h28.20.969,kallum_motion_pilot,2023.2.2,Win32,59.88023952,659c0043b2992ddfe6be3694,65d6bb0e977760de756971f7,65d6be231a820dea5ab9ffa9,0.045,0.0451,1,34,196,105,1,fiveseven,,,,,,,,,,,,,,,,,,,,,,,,,,,,,,,,,,,,,,,,,,,,,,,,,,,,,,,,,,,,,,,,,,,,,,,,,,,,,,,,,,,,,,,,,,,,,,,,,,,,,,,,,,,,,,,,,,,,,,,,,,,,,,,,,,,,,,,,,
,,659c0043b2992ddfe6be3694,2024-02-22_14h28.20.969,kallum_motion_pilot,2023.2.2,Win32,59.88023952,659c0043b2992ddfe6be3694,65d6bb0e977760de756971f7,65d6be231a820dea5ab9ffa9,0.0452,0.0452,1,35,197,72,1,onetwo,,,,,,,,,,,,,,,,,,,,,,,,,,,,,,,,,,,,,,,,,,,,,,,,,,,,,,,,,,,,,,,,,,,,,,,,,,,,,,,,,,,,,,,,,,,,,,,,,,,,,,,,,,,,,,,,,,,,,,,,,,,,,,,,,,,,,,,,,
,,659c0043b2992ddfe6be3694,2024-02-22_14h28.20.969,kallum_motion_pilot,2023.2.2,Win32,59.88023952,659c0043b2992ddfe6be3694,65d6bb0e977760de756971f7,65d6be231a820dea5ab9ffa9,0.0453,0.0453,1,36,198,32,1,onetwo,,,,,,,,,,,,,,,,,,,,,,,,,,,,,,,,,,,,,,,,,,,,,,,,,,,,,,,,,,,,,,,,,,,,,,,,,,,,,,,,,,,,,,,,,,,,,,,,,,,,,,,,,,,,,,,,,,,,,,,,,,,,,,,,,,,,,,,,,
,,659c0043b2992ddfe6be3694,2024-02-22_14h28.20.969,kallum_motion_pilot,2023.2.2,Win32,59.88023952,659c0043b2992ddfe6be3694,65d6bb0e977760de756971f7,65d6be231a820dea5ab9ffa9,0.0454,0.0454,1,37,199,5,1,threefour,,,,,,,,,,,,,,,,,,,,,,,,,,,,,,,,,,,,,,,,,,,,,,,,,,,,,,,,,,,,,,,,,,,,,,,,,,,,,,,,,,,,,,,,,,,,,,,,,,,,,,,,,,,,,,,,,,,,,,,,,,,,,,,,,,,,,,,,,
,,659c0043b2992ddfe6be3694,2024-02-22_14h28.20.969,kallum_motion_pilot,2023.2.2,Win32,59.88023952,659c0043b2992ddfe6be3694,65d6bb0e977760de756971f7,65d6be231a820dea5ab9ffa9,0.0454,0.0455,1,38,200,19,1,twofour,,,,,,,,,,,,,,,,,,,,,,,,,,,,,,,,,,,,,,,,,,,,,,,,,,,,,,,,,,,,,,,,,,,,,,,,,,,,,,,,,,,,,,,,,,,,,,,,,,,,,,,,,,,,,,,,,,,,,,,,,,,,,,,,,,,,,,,,,
,,659c0043b2992ddfe6be3694,2024-02-22_14h28.20.969,kallum_motion_pilot,2023.2.2,Win32,59.88023952,659c0043b2992ddfe6be3694,65d6bb0e977760de756971f7,65d6be231a820dea5ab9ffa9,0.0457,0.0457,1,39,201,95,1,eightseven,,,,,,,,,,,,,,,,,,,,,,,,,,,,,,,,,,,,,,,,,,,,,,,,,,,,,,,,,,,,,,,,,,,,,,,,,,,,,,,,,,,,,,,,,,,,,,,,,,,,,,,,,,,,,,,,,,,,,,,,,,,,,,,,,,,,,,,,,
,,659c0043b2992ddfe6be3694,2024-02-22_14h28.20.969,kallum_motion_pilot,2023.2.2,Win32,59.88023952,659c0043b2992ddfe6be3694,65d6bb0e977760de756971f7,65d6be231a820dea5ab9ffa9,0.0457,0.0458,1,40,202,111,1,eightseven,,,,,,,,,,,,,,,,,,,,,,,,,,,,,,,,,,,,,,,,,,,,,,,,,,,,,,,,,,,,,,,,,,,,,,,,,,,,,,,,,,,,,,,,,,,,,,,,,,,,,,,,,,,,,,,,,,,,,,,,,,,,,,,,,,,,,,,,,
,,659c0043b2992ddfe6be3694,2024-02-22_14h28.20.969,kallum_motion_pilot,2023.2.2,Win32,59.88023952,659c0043b2992ddfe6be3694,65d6bb0e977760de756971f7,65d6be231a820dea5ab9ffa9,0.0459,0.0459,1,41,203,103,1,eightseven,,,,,,,,,,,,,,,,,,,,,,,,,,,,,,,,,,,,,,,,,,,,,,,,,,,,,,,,,,,,,,,,,,,,,,,,,,,,,,,,,,,,,,,,,,,,,,,,,,,,,,,,,,,,,,,,,,,,,,,,,,,,,,,,,,,,,,,,,
,,659c0043b2992ddfe6be3694,2024-02-22_14h28.20.969,kallum_motion_pilot,2023.2.2,Win32,59.88023952,659c0043b2992ddfe6be3694,65d6bb0e977760de756971f7,65d6be231a820dea5ab9ffa9,0.0459,0.046,1,42,204,73,1,onethree,,,,,,,,,,,,,,,,,,,,,,,,,,,,,,,,,,,,,,,,,,,,,,,,,,,,,,,,,,,,,,,,,,,,,,,,,,,,,,,,,,,,,,,,,,,,,,,,,,,,,,,,,,,,,,,,,,,,,,,,,,,,,,,,,,,,,,,,,
,,659c0043b2992ddfe6be3694,2024-02-22_14h28.20.969,kallum_motion_pilot,2023.2.2,Win32,59.88023952,659c0043b2992ddfe6be3694,65d6bb0e977760de756971f7,65d6be231a820dea5ab9ffa9,0.046,0.0461,1,43,205,155,1,sixeight,,,,,,,,,,,,,,,,,,,,,,,,,,,,,,,,,,,,,,,,,,,,,,,,,,,,,,,,,,,,,,,,,,,,,,,,,,,,,,,,,,,,,,,,,,,,,,,,,,,,,,,,,,,,,,,,,,,,,,,,,,,,,,,,,,,,,,,,,
,,659c0043b2992ddfe6be3694,2024-02-22_14h28.20.969,kallum_motion_pilot,2023.2.2,Win32,59.88023952,659c0043b2992ddfe6be3694,65d6bb0e977760de756971f7,65d6be231a820dea5ab9ffa9,0.0462,0.0462,1,44,206,131,1,sixeight,,,,,,,,,,,,,,,,,,,,,,,,,,,,,,,,,,,,,,,,,,,,,,,,,,,,,,,,,,,,,,,,,,,,,,,,,,,,,,,,,,,,,,,,,,,,,,,,,,,,,,,,,,,,,,,,,,,,,,,,,,,,,,,,,,,,,,,,,
,,659c0043b2992ddfe6be3694,2024-02-22_14h28.20.969,kallum_motion_pilot,2023.2.2,Win32,59.88023952,659c0043b2992ddfe6be3694,65d6bb0e977760de756971f7,65d6be231a820dea5ab9ffa9,0.0462,0.0462,1,45,207,153,1,fiveseven,,,,,,,,,,,,,,,,,,,,,,,,,,,,,,,,,,,,,,,,,,,,,,,,,,,,,,,,,,,,,,,,,,,,,,,,,,,,,,,,,,,,,,,,,,,,,,,,,,,,,,,,,,,,,,,,,,,,,,,,,,,,,,,,,,,,,,,,,
,,659c0043b2992ddfe6be3694,2024-02-22_14h28.20.969,kallum_motion_pilot,2023.2.2,Win32,59.88023952,659c0043b2992ddfe6be3694,65d6bb0e977760de756971f7,65d6be231a820dea5ab9ffa9,0.0464,0.0464,1,46,208,31,1,fourthree,,,,,,,,,,,,,,,,,,,,,,,,,,,,,,,,,,,,,,,,,,,,,,,,,,,,,,,,,,,,,,,,,,,,,,,,,,,,,,,,,,,,,,,,,,,,,,,,,,,,,,,,,,,,,,,,,,,,,,,,,,,,,,,,,,,,,,,,,
,,659c0043b2992ddfe6be3694,2024-02-22_14h28.20.969,kallum_motion_pilot,2023.2.2,Win32,59.88023952,659c0043b2992ddfe6be3694,65d6bb0e977760de756971f7,65d6be231a820dea5ab9ffa9,0.0464,0.0465,1,47,209,93,1,seveneight,,,,,,,,,,,,,,,,,,,,,,,,,,,,,,,,,,,,,,,,,,,,,,,,,,,,,,,,,,,,,,,,,,,,,,,,,,,,,,,,,,,,,,,,,,,,,,,,,,,,,,,,,,,,,,,,,,,,,,,,,,,,,,,,,,,,,,,,,
,,659c0043b2992ddfe6be3694,2024-02-22_14h28.20.969,kallum_motion_pilot,2023.2.2,Win32,59.88023952,659c0043b2992ddfe6be3694,65d6bb0e977760de756971f7,65d6be231a820dea5ab9ffa9,0.0466,0.0466,1,48,210,98,1,sixfive,,,,,,,,,,,,,,,,,,,,,,,,,,,,,,,,,,,,,,,,,,,,,,,,,,,,,,,,,,,,,,,,,,,,,,,,,,,,,,,,,,,,,,,,,,,,,,,,,,,,,,,,,,,,,,,,,,,,,,,,,,,,,,,,,,,,,,,,,
,,659c0043b2992ddfe6be3694,2024-02-22_14h28.20.969,kallum_motion_pilot,2023.2.2,Win32,59.88023952,659c0043b2992ddfe6be3694,65d6bb0e977760de756971f7,65d6be231a820dea5ab9ffa9,0.0467,0.0467,1,49,211,45,1,threefour,,,,,,,,,,,,,,,,,,,,,,,,,,,,,,,,,,,,,,,,,,,,,,,,,,,,,,,,,,,,,,,,,,,,,,,,,,,,,,,,,,,,,,,,,,,,,,,,,,,,,,,,,,,,,,,,,,,,,,,,,,,,,,,,,,,,,,,,,
,,659c0043b2992ddfe6be3694,2024-02-22_14h28.20.969,kallum_motion_pilot,2023.2.2,Win32,59.88023952,659c0043b2992ddfe6be3694,65d6bb0e977760de756971f7,65d6be231a820dea5ab9ffa9,0.0467,0.0468,1,50,212,28,1,threeone,,,,,,,,,,,,,,,,,,,,,,,,,,,,,,,,,,,,,,,,,,,,,,,,,,,,,,,,,,,,,,,,,,,,,,,,,,,,,,,,,,,,,,,,,,,,,,,,,,,,,,,,,,,,,,,,,,,,,,,,,,,,,,,,,,,,,,,,,
,,659c0043b2992ddfe6be3694,2024-02-22_14h28.20.969,kallum_motion_pilot,2023.2.2,Win32,59.88023952,659c0043b2992ddfe6be3694,65d6bb0e977760de756971f7,65d6be231a820dea5ab9ffa9,0.0468,0.0468,1,51,213,36,1,threeone,,,,,,,,,,,,,,,,,,,,,,,,,,,,,,,,,,,,,,,,,,,,,,,,,,,,,,,,,,,,,,,,,,,,,,,,,,,,,,,,,,,,,,,,,,,,,,,,,,,,,,,,,,,,,,,,,,,,,,,,,,,,,,,,,,,,,,,,,
,,659c0043b2992ddfe6be3694,2024-02-22_14h28.20.969,kallum_motion_pilot,2023.2.2,Win32,59.88023952,659c0043b2992ddfe6be3694,65d6bb0e977760de756971f7,65d6be231a820dea5ab9ffa9,0.047,0.047,1,52,214,14,1,fourtwo,,,,,,,,,,,,,,,,,,,,,,,,,,,,,,,,,,,,,,,,,,,,,,,,,,,,,,,,,,,,,,,,,,,,,,,,,,,,,,,,,,,,,,,,,,,,,,,,,,,,,,,,,,,,,,,,,,,,,,,,,,,,,,,,,,,,,,,,,
,,659c0043b2992ddfe6be3694,2024-02-22_14h28.20.969,kallum_motion_pilot,2023.2.2,Win32,59.88023952,659c0043b2992ddfe6be3694,65d6bb0e977760de756971f7,65d6be231a820dea5ab9ffa9,0.047,0.047,1,53,215,112,1,fivesix,,,,,,,,,,,,,,,,,,,,,,,,,,,,,,,,,,,,,,,,,,,,,,,,,,,,,,,,,,,,,,,,,,,,,,,,,,,,,,,,,,,,,,,,,,,,,,,,,,,,,,,,,,,,,,,,,,,,,,,,,,,,,,,,,,,,,,,,,
,,659c0043b2992ddfe6be3694,2024-02-22_14h28.20.969,kallum_motion_pilot,2023.2.2,Win32,59.88023952,659c0043b2992ddfe6be3694,65d6bb0e977760de756971f7,65d6be231a820dea5ab9ffa9,0.0471,0.0472,1,54,216,30,1,fourtwo,,,,,,,,,,,,,,,,,,,,,,,,,,,,,,,,,,,,,,,,,,,,,,,,,,,,,,,,,,,,,,,,,,,,,,,,,,,,,,,,,,,,,,,,,,,,,,,,,,,,,,,,,,,,,,,,,,,,,,,,,,,,,,,,,,,,,,,,,
,,659c0043b2992ddfe6be3694,2024-02-22_14h28.20.969,kallum_motion_pilot,2023.2.2,Win32,59.88023952,659c0043b2992ddfe6be3694,65d6bb0e977760de756971f7,65d6be231a820dea5ab9ffa9,0.0472,0.0474,1,55,217,40,1,onetwo,,,,,,,,,,,,,,,,,,,,,,,,,,,,,,,,,,,,,,,,,,,,,,,,,,,,,,,,,,,,,,,,,,,,,,,,,,,,,,,,,,,,,,,,,,,,,,,,,,,,,,,,,,,,,,,,,,,,,,,,,,,,,,,,,,,,,,,,,
,,659c0043b2992ddfe6be3694,2024-02-22_14h28.20.969,kallum_motion_pilot,2023.2.2,Win32,59.88023952,659c0043b2992ddfe6be3694,65d6bb0e977760de756971f7,65d6be231a820dea5ab9ffa9,0.0475,0.0476,1,56,218,8,1,onetwo,,,,,,,,,,,,,,,,,,,,,,,,,,,,,,,,,,,,,,,,,,,,,,,,,,,,,,,,,,,,,,,,,,,,,,,,,,,,,,,,,,,,,,,,,,,,,,,,,,,,,,,,,,,,,,,,,,,,,,,,,,,,,,,,,,,,,,,,,
,,659c0043b2992ddfe6be3694,2024-02-22_14h28.20.969,kallum_motion_pilot,2023.2.2,Win32,59.88023952,659c0043b2992ddfe6be3694,65d6bb0e977760de756971f7,65d6be231a820dea5ab9ffa9,0.0477,0.0477,1,57,219,90,1,sixfive,,,,,,,,,,,,,,,,,,,,,,,,,,,,,,,,,,,,,,,,,,,,,,,,,,,,,,,,,,,,,,,,,,,,,,,,,,,,,,,,,,,,,,,,,,,,,,,,,,,,,,,,,,,,,,,,,,,,,,,,,,,,,,,,,,,,,,,,,
,,659c0043b2992ddfe6be3694,2024-02-22_14h28.20.969,kallum_motion_pilot,2023.2.2,Win32,59.88023952,659c0043b2992ddfe6be3694,65d6bb0e977760de756971f7,65d6be231a820dea5ab9ffa9,0.0477,0.0478,1,58,220,139,1,sixeight,,,,,,,,,,,,,,,,,,,,,,,,,,,,,,,,,,,,,,,,,,,,,,,,,,,,,,,,,,,,,,,,,,,,,,,,,,,,,,,,,,,,,,,,,,,,,,,,,,,,,,,,,,,,,,,,,,,,,,,,,,,,,,,,,,,,,,,,,
,,659c0043b2992ddfe6be3694,2024-02-22_14h28.20.969,kallum_motion_pilot,2023.2.2,Win32,59.88023952,659c0043b2992ddfe6be3694,65d6bb0e977760de756971f7,65d6be231a820dea5ab9ffa9,0.0479,0.0479,1,59,221,135,1,eightseven,,,,,,,,,,,,,,,,,,,,,,,,,,,,,,,,,,,,,,,,,,,,,,,,,,,,,,,,,,,,,,,,,,,,,,,,,,,,,,,,,,,,,,,,,,,,,,,,,,,,,,,,,,,,,,,,,,,,,,,,,,,,,,,,,,,,,,,,,
,,659c0043b2992ddfe6be3694,2024-02-22_14h28.20.969,kallum_motion_pilot,2023.2.2,Win32,59.88023952,659c0043b2992ddfe6be3694,65d6bb0e977760de756971f7,65d6be231a820dea5ab9ffa9,0.048,0.048,1,60,222,49,1,onethree,,,,,,,,,,,,,,,,,,,,,,,,,,,,,,,,,,,,,,,,,,,,,,,,,,,,,,,,,,,,,,,,,,,,,,,,,,,,,,,,,,,,,,,,,,,,,,,,,,,,,,,,,,,,,,,,,,,,,,,,,,,,,,,,,,,,,,,,,
,,659c0043b2992ddfe6be3694,2024-02-22_14h28.20.969,kallum_motion_pilot,2023.2.2,Win32,59.88023952,659c0043b2992ddfe6be3694,65d6bb0e977760de756971f7,65d6be231a820dea5ab9ffa9,0.0482,0.0482,1,61,223,60,1,threeone,,,,,,,,,,,,,,,,,,,,,,,,,,,,,,,,,,,,,,,,,,,,,,,,,,,,,,,,,,,,,,,,,,,,,,,,,,,,,,,,,,,,,,,,,,,,,,,,,,,,,,,,,,,,,,,,,,,,,,,,,,,,,,,,,,,,,,,,,
,,659c0043b2992ddfe6be3694,2024-02-22_14h28.20.969,kallum_motion_pilot,2023.2.2,Win32,59.88023952,659c0043b2992ddfe6be3694,65d6bb0e977760de756971f7,65d6be231a820dea5ab9ffa9,0.0483,0.0484,1,62,224,62,1,fourtwo,,,,,,,,,,,,,,,,,,,,,,,,,,,,,,,,,,,,,,,,,,,,,,,,,,,,,,,,,,,,,,,,,,,,,,,,,,,,,,,,,,,,,,,,,,,,,,,,,,,,,,,,,,,,,,,,,,,,,,,,,,,,,,,,,,,,,,,,,
,,659c0043b2992ddfe6be3694,2024-02-22_14h28.20.969,kallum_motion_pilot,2023.2.2,Win32,59.88023952,659c0043b2992ddfe6be3694,65d6bb0e977760de756971f7,65d6be231a820dea5ab9ffa9,0.0484,0.0486,1,63,225,121,1,fiveseven,,,,,,,,,,,,,,,,,,,,,,,,,,,,,,,,,,,,,,,,,,,,,,,,,,,,,,,,,,,,,,,,,,,,,,,,,,,,,,,,,,,,,,,,,,,,,,,,,,,,,,,,,,,,,,,,,,,,,,,,,,,,,,,,,,,,,,,,,
,,659c0043b2992ddfe6be3694,2024-02-22_14h28.20.969,kallum_motion_pilot,2023.2.2,Win32,59.88023952,659c0043b2992ddfe6be3694,65d6bb0e977760de756971f7,65d6be231a820dea5ab9ffa9,0.0487,0.0487,1,64,226,58,1,twoone,,,,,,,,,,,,,,,,,,,,,,,,,,,,,,,,,,,,,,,,,,,,,,,,,,,,,,,,,,,,,,,,,,,,,,,,,,,,,,,,,,,,,,,,,,,,,,,,,,,,,,,,,,,,,,,,,,,,,,,,,,,,,,,,,,,,,,,,,
,,659c0043b2992ddfe6be3694,2024-02-22_14h28.20.969,kallum_motion_pilot,2023.2.2,Win32,59.88023952,659c0043b2992ddfe6be3694,65d6bb0e977760de756971f7,65d6be231a820dea5ab9ffa9,0.0488,0.0488,1,65,227,42,1,twoone,,,,,,,,,,,,,,,,,,,,,,,,,,,,,,,,,,,,,,,,,,,,,,,,,,,,,,,,,,,,,,,,,,,,,,,,,,,,,,,,,,,,,,,,,,,,,,,,,,,,,,,,,,,,,,,,,,,,,,,,,,,,,,,,,,,,,,,,,
,,659c0043b2992ddfe6be3694,2024-02-22_14h28.20.969,kallum_motion_pilot,2023.2.2,Win32,59.88023952,659c0043b2992ddfe6be3694,65d6bb0e977760de756971f7,65d6be231a820dea5ab9ffa9,0.0489,0.049,1,66,228,6,1,fourtwo,,,,,,,,,,,,,,,,,,,,,,,,,,,,,,,,,,,,,,,,,,,,,,,,,,,,,,,,,,,,,,,,,,,,,,,,,,,,,,,,,,,,,,,,,,,,,,,,,,,,,,,,,,,,,,,,,,,,,,,,,,,,,,,,,,,,,,,,,
,,659c0043b2992ddfe6be3694,2024-02-22_14h28.20.969,kallum_motion_pilot,2023.2.2,Win32,59.88023952,659c0043b2992ddfe6be3694,65d6bb0e977760de756971f7,65d6be231a820dea5ab9ffa9,0.049,0.0491,1,67,229,118,1,eightsix,,,,,,,,,,,,,,,,,,,,,,,,,,,,,,,,,,,,,,,,,,,,,,,,,,,,,,,,,,,,,,,,,,,,,,,,,,,,,,,,,,,,,,,,,,,,,,,,,,,,,,,,,,,,,,,,,,,,,,,,,,,,,,,,,,,,,,,,,
,,659c0043b2992ddfe6be3694,2024-02-22_14h28.20.969,kallum_motion_pilot,2023.2.2,Win32,59.88023952,659c0043b2992ddfe6be3694,65d6bb0e977760de756971f7,65d6be231a820dea5ab9ffa9,0.0492,0.0493,1,68,230,115,1,sixeight,,,,,,,,,,,,,,,,,,,,,,,,,,,,,,,,,,,,,,,,,,,,,,,,,,,,,,,,,,,,,,,,,,,,,,,,,,,,,,,,,,,,,,,,,,,,,,,,,,,,,,,,,,,,,,,,,,,,,,,,,,,,,,,,,,,,,,,,,
,,659c0043b2992ddfe6be3694,2024-02-22_14h28.20.969,kallum_motion_pilot,2023.2.2,Win32,59.88023952,659c0043b2992ddfe6be3694,65d6bb0e977760de756971f7,65d6be231a820dea5ab9ffa9,0.0494,0.0494,1,69,231,79,1,eightseven,,,,,,,,,,,,,,,,,,,,,,,,,,,,,,,,,,,,,,,,,,,,,,,,,,,,,,,,,,,,,,,,,,,,,,,,,,,,,,,,,,,,,,,,,,,,,,,,,,,,,,,,,,,,,,,,,,,,,,,,,,,,,,,,,,,,,,,,,
,,659c0043b2992ddfe6be3694,2024-02-22_14h28.20.969,kallum_motion_pilot,2023.2.2,Win32,59.88023952,659c0043b2992ddfe6be3694,65d6bb0e977760de756971f7,65d6be231a820dea5ab9ffa9,0.0495,0.0495,1,70,232,71,1,fourthree,,,,,,,,,,,,,,,,,,,,,,,,,,,,,,,,,,,,,,,,,,,,,,,,,,,,,,,,,,,,,,,,,,,,,,,,,,,,,,,,,,,,,,,,,,,,,,,,,,,,,,,,,,,,,,,,,,,,,,,,,,,,,,,,,,,,,,,,,
,,659c0043b2992ddfe6be3694,2024-02-22_14h28.20.969,kallum_motion_pilot,2023.2.2,Win32,59.88023952,659c0043b2992ddfe6be3694,65d6bb0e977760de756971f7,65d6be231a820dea5ab9ffa9,0.0496,0.0497,1,71,233,2,1,twoone,,,,,,,,,,,,,,,,,,,,,,,,,,,,,,,,,,,,,,,,,,,,,,,,,,,,,,,,,,,,,,,,,,,,,,,,,,,,,,,,,,,,,,,,,,,,,,,,,,,,,,,,,,,,,,,,,,,,,,,,,,,,,,,,,,,,,,,,,
,,659c0043b2992ddfe6be3694,2024-02-22_14h28.20.969,kallum_motion_pilot,2023.2.2,Win32,59.88023952,659c0043b2992ddfe6be3694,65d6bb0e977760de756971f7,65d6be231a820dea5ab9ffa9,0.0497,0.0498,1,72,234,127,1,eightseven,,,,,,,,,,,,,,,,,,,,,,,,,,,,,,,,,,,,,,,,,,,,,,,,,,,,,,,,,,,,,,,,,,,,,,,,,,,,,,,,,,,,,,,,,,,,,,,,,,,,,,,,,,,,,,,,,,,,,,,,,,,,,,,,,,,,,,,,,
,,659c0043b2992ddfe6be3694,2024-02-22_14h28.20.969,kallum_motion_pilot,2023.2.2,Win32,59.88023952,659c0043b2992ddfe6be3694,65d6bb0e977760de756971f7,65d6be231a820dea5ab9ffa9,0.0498,0.0499,1,73,235,146,1,sixfive,,,,,,,,,,,,,,,,,,,,,,,,,,,,,,,,,,,,,,,,,,,,,,,,,,,,,,,,,,,,,,,,,,,,,,,,,,,,,,,,,,,,,,,,,,,,,,,,,,,,,,,,,,,,,,,,,,,,,,,,,,,,,,,,,,,,,,,,,
,,659c0043b2992ddfe6be3694,2024-02-22_14h28.20.969,kallum_motion_pilot,2023.2.2,Win32,59.88023952,659c0043b2992ddfe6be3694,65d6bb0e977760de756971f7,65d6be231a820dea5ab9ffa9,0.0499,0.05,1,74,236,26,1,twoone,,,,,,,,,,,,,,,,,,,,,,,,,,,,,,,,,,,,,,,,,,,,,,,,,,,,,,,,,,,,,,,,,,,,,,,,,,,,,,,,,,,,,,,,,,,,,,,,,,,,,,,,,,,,,,,,,,,,,,,,,,,,,,,,,,,,,,,,,
,,659c0043b2992ddfe6be3694,2024-02-22_14h28.20.969,kallum_motion_pilot,2023.2.2,Win32,59.88023952,659c0043b2992ddfe6be3694,65d6bb0e977760de756971f7,65d6be231a820dea5ab9ffa9,0.0501,0.0501,1,75,237,129,1,fiveseven,,,,,,,,,,,,,,,,,,,,,,,,,,,,,,,,,,,,,,,,,,,,,,,,,,,,,,,,,,,,,,,,,,,,,,,,,,,,,,,,,,,,,,,,,,,,,,,,,,,,,,,,,,,,,,,,,,,,,,,,,,,,,,,,,,,,,,,,,
,,659c0043b2992ddfe6be3694,2024-02-22_14h28.20.969,kallum_motion_pilot,2023.2.2,Win32,59.88023952,659c0043b2992ddfe6be3694,65d6bb0e977760de756971f7,65d6be231a820dea5ab9ffa9,0.0502,0.0503,1,76,238,83,1,sixeight,,,,,,,,,,,,,,,,,,,,,,,,,,,,,,,,,,,,,,,,,,,,,,,,,,,,,,,,,,,,,,,,,,,,,,,,,,,,,,,,,,,,,,,,,,,,,,,,,,,,,,,,,,,,,,,,,,,,,,,,,,,,,,,,,,,,,,,,,
,,659c0043b2992ddfe6be3694,2024-02-22_14h28.20.969,kallum_motion_pilot,2023.2.2,Win32,59.88023952,659c0043b2992ddfe6be3694,65d6bb0e977760de756971f7,65d6be231a820dea5ab9ffa9,0.0503,0.0505,1,77,239,134,1,eightsix,,,,,,,,,,,,,,,,,,,,,,,,,,,,,,,,,,,,,,,,,,,,,,,,,,,,,,,,,,,,,,,,,,,,,,,,,,,,,,,,,,,,,,,,,,,,,,,,,,,,,,,,,,,,,,,,,,,,,,,,,,,,,,,,,,,,,,,,,
,,659c0043b2992ddfe6be3694,2024-02-22_14h28.20.969,kallum_motion_pilot,2023.2.2,Win32,59.88023952,659c0043b2992ddfe6be3694,65d6bb0e977760de756971f7,65d6be231a820dea5ab9ffa9,0.0506,0.0506,1,78,240,47,1,fourthree,,,,,,,,,,,,,,,,,,,,,,,,,,,,,,,,,,,,,,,,,,,,,,,,,,,,,,,,,,,,,,,,,,,,,,,,,,,,,,,,,,,,,,,,,,,,,,,,,,,,,,,,,,,,,,,,,,,,,,,,,,,,,,,,,,,,,,,,,
,,659c0043b2992ddfe6be3694,2024-02-22_14h28.20.969,kallum_motion_pilot,2023.2.2,Win32,59.88023952,659c0043b2992ddfe6be3694,65d6bb0e977760de756971f7,65d6be231a820dea5ab9ffa9,0.0507,0.0508,1,79,241,110,1,eightsix,,,,,,,,,,,,,,,,,,,,,,,,,,,,,,,,,,,,,,,,,,,,,,,,,,,,,,,,,,,,,,,,,,,,,,,,,,,,,,,,,,,,,,,,,,,,,,,,,,,,,,,,,,,,,,,,,,,,,,,,,,,,,,,,,,,,,,,,,
,,659c0043b2992ddfe6be3694,2024-02-22_14h28.20.969,kallum_motion_pilot,2023.2.2,Win32,59.88023952,659c0043b2992ddfe6be3694,65d6bb0e977760de756971f7,65d6be231a820dea5ab9ffa9,0.0509,0.0509,1,80,242,94,1,eightsix,,,,,,,,,,,,,,,,,,,,,,,,,,,,,,,,,,,,,,,,,,,,,,,,,,,,,,,,,,,,,,,,,,,,,,,,,,,,,,,,,,,,,,,,,,,,,,,,,,,,,,,,,,,,,,,,,,,,,,,,,,,,,,,,,,,,,,,,,
,,659c0043b2992ddfe6be3694,2024-02-22_14h28.20.969,kallum_motion_pilot,2023.2.2,Win32,59.88023952,659c0043b2992ddfe6be3694,65d6bb0e977760de756971f7,65d6be231a820dea5ab9ffa9,0.051,0.0511,1,81,243,85,1,seveneight,,,,,,,,,,,,,,,,,,,,,,,,,,,,,,,,,,,,,,,,,,,,,,,,,,,,,,,,,,,,,,,,,,,,,,,,,,,,,,,,,,,,,,,,,,,,,,,,,,,,,,,,,,,,,,,,,,,,,,,,,,,,,,,,,,,,,,,,,
,,659c0043b2992ddfe6be3694,2024-02-22_14h28.20.969,kallum_motion_pilot,2023.2.2,Win32,59.88023952,659c0043b2992ddfe6be3694,65d6bb0e977760de756971f7,65d6be231a820dea5ab9ffa9,0.0512,0.0514,1,82,244,41,1,onethree,,,,,,,,,,,,,,,,,,,,,,,,,,,,,,,,,,,,,,,,,,,,,,,,,,,,,,,,,,,,,,,,,,,,,,,,,,,,,,,,,,,,,,,,,,,,,,,,,,,,,,,,,,,,,,,,,,,,,,,,,,,,,,,,,,,,,,,,,
,,659c0043b2992ddfe6be3694,2024-02-22_14h28.20.969,kallum_motion_pilot,2023.2.2,Win32,59.88023952,659c0043b2992ddfe6be3694,65d6bb0e977760de756971f7,65d6be231a820dea5ab9ffa9,0.0514,0.0515,1,83,245,80,1,fivesix,,,,,,,,,,,,,,,,,,,,,,,,,,,,,,,,,,,,,,,,,,,,,,,,,,,,,,,,,,,,,,,,,,,,,,,,,,,,,,,,,,,,,,,,,,,,,,,,,,,,,,,,,,,,,,,,,,,,,,,,,,,,,,,,,,,,,,,,,
,,659c0043b2992ddfe6be3694,2024-02-22_14h28.20.969,kallum_motion_pilot,2023.2.2,Win32,59.88023952,659c0043b2992ddfe6be3694,65d6bb0e977760de756971f7,65d6be231a820dea5ab9ffa9,0.0516,0.0517,1,84,246,16,1,onetwo,,,,,,,,,,,,,,,,,,,,,,,,,,,,,,,,,,,,,,,,,,,,,,,,,,,,,,,,,,,,,,,,,,,,,,,,,,,,,,,,,,,,,,,,,,,,,,,,,,,,,,,,,,,,,,,,,,,,,,,,,,,,,,,,,,,,,,,,,
,,659c0043b2992ddfe6be3694,2024-02-22_14h28.20.969,kallum_motion_pilot,2023.2.2,Win32,59.88023952,659c0043b2992ddfe6be3694,65d6bb0e977760de756971f7,65d6be231a820dea5ab9ffa9,0.0518,0.0518,1,85,247,15,1,fourthree,,,,,,,,,,,,,,,,,,,,,,,,,,,,,,,,,,,,,,,,,,,,,,,,,,,,,,,,,,,,,,,,,,,,,,,,,,,,,,,,,,,,,,,,,,,,,,,,,,,,,,,,,,,,,,,,,,,,,,,,,,,,,,,,,,,,,,,,,
,,659c0043b2992ddfe6be3694,2024-02-22_14h28.20.969,kallum_motion_pilot,2023.2.2,Win32,59.88023952,659c0043b2992ddfe6be3694,65d6bb0e977760de756971f7,65d6be231a820dea5ab9ffa9,0.052,0.052,1,86,248,157,1,seveneight,,,,,,,,,,,,,,,,,,,,,,,,,,,,,,,,,,,,,,,,,,,,,,,,,,,,,,,,,,,,,,,,,,,,,,,,,,,,,,,,,,,,,,,,,,,,,,,,,,,,,,,,,,,,,,,,,,,,,,,,,,,,,,,,,,,,,,,,,
,,659c0043b2992ddfe6be3694,2024-02-22_14h28.20.969,kallum_motion_pilot,2023.2.2,Win32,59.88023952,659c0043b2992ddfe6be3694,65d6bb0e977760de756971f7,65d6be231a820dea5ab9ffa9,0.0521,0.0522,1,87,249,137,1,fiveseven,,,,,,,,,,,,,,,,,,,,,,,,,,,,,,,,,,,,,,,,,,,,,,,,,,,,,,,,,,,,,,,,,,,,,,,,,,,,,,,,,,,,,,,,,,,,,,,,,,,,,,,,,,,,,,,,,,,,,,,,,,,,,,,,,,,,,,,,,
,,659c0043b2992ddfe6be3694,2024-02-22_14h28.20.969,kallum_motion_pilot,2023.2.2,Win32,59.88023952,659c0043b2992ddfe6be3694,65d6bb0e977760de756971f7,65d6be231a820dea5ab9ffa9,0.0522,0.0523,1,88,250,29,1,threefour,,,,,,,,,,,,,,,,,,,,,,,,,,,,,,,,,,,,,,,,,,,,,,,,,,,,,,,,,,,,,,,,,,,,,,,,,,,,,,,,,,,,,,,,,,,,,,,,,,,,,,,,,,,,,,,,,,,,,,,,,,,,,,,,,,,,,,,,,
,,659c0043b2992ddfe6be3694,2024-02-22_14h28.20.969,kallum_motion_pilot,2023.2.2,Win32,59.88023952,659c0043b2992ddfe6be3694,65d6bb0e977760de756971f7,65d6be231a820dea5ab9ffa9,0.0524,0.0525,1,89,251,91,1,sixeight,,,,,,,,,,,,,,,,,,,,,,,,,,,,,,,,,,,,,,,,,,,,,,,,,,,,,,,,,,,,,,,,,,,,,,,,,,,,,,,,,,,,,,,,,,,,,,,,,,,,,,,,,,,,,,,,,,,,,,,,,,,,,,,,,,,,,,,,,
,,659c0043b2992ddfe6be3694,2024-02-22_14h28.20.969,kallum_motion_pilot,2023.2.2,Win32,59.88023952,659c0043b2992ddfe6be3694,65d6bb0e977760de756971f7,65d6be231a820dea5ab9ffa9,0.0525,0.0527,1,90,252,13,1,threefour,,,,,,,,,,,,,,,,,,,,,,,,,,,,,,,,,,,,,,,,,,,,,,,,,,,,,,,,,,,,,,,,,,,,,,,,,,,,,,,,,,,,,,,,,,,,,,,,,,,,,,,,,,,,,,,,,,,,,,,,,,,,,,,,,,,,,,,,,
,,659c0043b2992ddfe6be3694,2024-02-22_14h28.20.969,kallum_motion_pilot,2023.2.2,Win32,59.88023952,659c0043b2992ddfe6be3694,65d6bb0e977760de756971f7,65d6be231a820dea5ab9ffa9,0.0527,0.0528,1,91,253,18,1,twoone,,,,,,,,,,,,,,,,,,,,,,,,,,,,,,,,,,,,,,,,,,,,,,,,,,,,,,,,,,,,,,,,,,,,,,,,,,,,,,,,,,,,,,,,,,,,,,,,,,,,,,,,,,,,,,,,,,,,,,,,,,,,,,,,,,,,,,,,,
,,659c0043b2992ddfe6be3694,2024-02-22_14h28.20.969,kallum_motion_pilot,2023.2.2,Win32,59.88023952,659c0043b2992ddfe6be3694,65d6bb0e977760de756971f7,65d6be231a820dea5ab9ffa9,0.0529,0.053,1,92,254,116,1,sevenfive,,,,,,,,,,,,,,,,,,,,,,,,,,,,,,,,,,,,,,,,,,,,,,,,,,,,,,,,,,,,,,,,,,,,,,,,,,,,,,,,,,,,,,,,,,,,,,,,,,,,,,,,,,,,,,,,,,,,,,,,,,,,,,,,,,,,,,,,,
,,659c0043b2992ddfe6be3694,2024-02-22_14h28.20.969,kallum_motion_pilot,2023.2.2,Win32,59.88023952,659c0043b2992ddfe6be3694,65d6bb0e977760de756971f7,65d6be231a820dea5ab9ffa9,0.053,0.0531,1,93,255,128,1,fivesix,,,,,,,,,,,,,,,,,,,,,,,,,,,,,,,,,,,,,,,,,,,,,,,,,,,,,,,,,,,,,,,,,,,,,,,,,,,,,,,,,,,,,,,,,,,,,,,,,,,,,,,,,,,,,,,,,,,,,,,,,,,,,,,,,,,,,,,,,
,,659c0043b2992ddfe6be3694,2024-02-22_14h28.20.969,kallum_motion_pilot,2023.2.2,Win32,59.88023952,659c0043b2992ddfe6be3694,65d6bb0e977760de756971f7,65d6be231a820dea5ab9ffa9,0.0532,0.0533,1,94,256,44,1,threeone,,,,,,,,,,,,,,,,,,,,,,,,,,,,,,,,,,,,,,,,,,,,,,,,,,,,,,,,,,,,,,,,,,,,,,,,,,,,,,,,,,,,,,,,,,,,,,,,,,,,,,,,,,,,,,,,,,,,,,,,,,,,,,,,,,,,,,,,,
,,659c0043b2992ddfe6be3694,2024-02-22_14h28.20.969,kallum_motion_pilot,2023.2.2,Win32,59.88023952,659c0043b2992ddfe6be3694,65d6bb0e977760de756971f7,65d6be231a820dea5ab9ffa9,0.0533,0.0534,1,95,257,55,1,fourthree,,,,,,,,,,,,,,,,,,,,,,,,,,,,,,,,,,,,,,,,,,,,,,,,,,,,,,,,,,,,,,,,,,,,,,,,,,,,,,,,,,,,,,,,,,,,,,,,,,,,,,,,,,,,,,,,,,,,,,,,,,,,,,,,,,,,,,,,,
,,659c0043b2992ddfe6be3694,2024-02-22_14h28.20.969,kallum_motion_pilot,2023.2.2,Win32,59.88023952,659c0043b2992ddfe6be3694,65d6bb0e977760de756971f7,65d6be231a820dea5ab9ffa9,0.0535,0.0535,1,96,258,150,1,eightsix,,,,,,,,,,,,,,,,,,,,,,,,,,,,,,,,,,,,,,,,,,,,,,,,,,,,,,,,,,,,,,,,,,,,,,,,,,,,,,,,,,,,,,,,,,,,,,,,,,,,,,,,,,,,,,,,,,,,,,,,,,,,,,,,,,,,,,,,,
,,659c0043b2992ddfe6be3694,2024-02-22_14h28.20.969,kallum_motion_pilot,2023.2.2,Win32,59.88023952,659c0043b2992ddfe6be3694,65d6bb0e977760de756971f7,65d6be231a820dea5ab9ffa9,0.0536,0.0537,1,97,259,151,1,eightseven,,,,,,,,,,,,,,,,,,,,,,,,,,,,,,,,,,,,,,,,,,,,,,,,,,,,,,,,,,,,,,,,,,,,,,,,,,,,,,,,,,,,,,,,,,,,,,,,,,,,,,,,,,,,,,,,,,,,,,,,,,,,,,,,,,,,,,,,,
,,659c0043b2992ddfe6be3694,2024-02-22_14h28.20.969,kallum_motion_pilot,2023.2.2,Win32,59.88023952,659c0043b2992ddfe6be3694,65d6bb0e977760de756971f7,65d6be231a820dea5ab9ffa9,0.0537,0.0538,1,98,260,113,1,fiveseven,,,,,,,,,,,,,,,,,,,,,,,,,,,,,,,,,,,,,,,,,,,,,,,,,,,,,,,,,,,,,,,,,,,,,,,,,,,,,,,,,,,,,,,,,,,,,,,,,,,,,,,,,,,,,,,,,,,,,,,,,,,,,,,,,,,,,,,,,
,,659c0043b2992ddfe6be3694,2024-02-22_14h28.20.969,kallum_motion_pilot,2023.2.2,Win32,59.88023952,659c0043b2992ddfe6be3694,65d6bb0e977760de756971f7,65d6be231a820dea5ab9ffa9,0.0538,0.0538,1,99,261,67,1,twofour,,,,,,,,,,,,,,,,,,,,,,,,,,,,,,,,,,,,,,,,,,,,,,,,,,,,,,,,,,,,,,,,,,,,,,,,,,,,,,,,,,,,,,,,,,,,,,,,,,,,,,,,,,,,,,,,,,,,,,,,,,,,,,,,,,,,,,,,,
,,659c0043b2992ddfe6be3694,2024-02-22_14h28.20.969,kallum_motion_pilot,2023.2.2,Win32,59.88023952,659c0043b2992ddfe6be3694,65d6bb0e977760de756971f7,65d6be231a820dea5ab9ffa9,0.0539,0.0539,1,100,262,101,1,seveneight,,,,,,,,,,,,,,,,,,,,,,,,,,,,,,,,,,,,,,,,,,,,,,,,,,,,,,,,,,,,,,,,,,,,,,,,,,,,,,,,,,,,,,,,,,,,,,,,,,,,,,,,,,,,,,,,,,,,,,,,,,,,,,,,,,,,,,,,,
,,659c0043b2992ddfe6be3694,2024-02-22_14h28.20.969,kallum_motion_pilot,2023.2.2,Win32,59.88023952,659c0043b2992ddfe6be3694,65d6bb0e977760de756971f7,65d6be231a820dea5ab9ffa9,0.0541,0.0541,1,101,263,51,1,twofour,,,,,,,,,,,,,,,,,,,,,,,,,,,,,,,,,,,,,,,,,,,,,,,,,,,,,,,,,,,,,,,,,,,,,,,,,,,,,,,,,,,,,,,,,,,,,,,,,,,,,,,,,,,,,,,,,,,,,,,,,,,,,,,,,,,,,,,,,
,,659c0043b2992ddfe6be3694,2024-02-22_14h28.20.969,kallum_motion_pilot,2023.2.2,Win32,59.88023952,659c0043b2992ddfe6be3694,65d6bb0e977760de756971f7,65d6be231a820dea5ab9ffa9,0.0541,0.0543,1,102,264,66,1,twoone,,,,,,,,,,,,,,,,,,,,,,,,,,,,,,,,,,,,,,,,,,,,,,,,,,,,,,,,,,,,,,,,,,,,,,,,,,,,,,,,,,,,,,,,,,,,,,,,,,,,,,,,,,,,,,,,,,,,,,,,,,,,,,,,,,,,,,,,,
,,659c0043b2992ddfe6be3694,2024-02-22_14h28.20.969,kallum_motion_pilot,2023.2.2,Win32,59.88023952,659c0043b2992ddfe6be3694,65d6bb0e977760de756971f7,65d6be231a820dea5ab9ffa9,0.0544,0.0545,1,103,265,24,1,onetwo,,,,,,,,,,,,,,,,,,,,,,,,,,,,,,,,,,,,,,,,,,,,,,,,,,,,,,,,,,,,,,,,,,,,,,,,,,,,,,,,,,,,,,,,,,,,,,,,,,,,,,,,,,,,,,,,,,,,,,,,,,,,,,,,,,,,,,,,,
,,659c0043b2992ddfe6be3694,2024-02-22_14h28.20.969,kallum_motion_pilot,2023.2.2,Win32,59.88023952,659c0043b2992ddfe6be3694,65d6bb0e977760de756971f7,65d6be231a820dea5ab9ffa9,0.0545,0.0546,1,104,266,27,1,twofour,,,,,,,,,,,,,,,,,,,,,,,,,,,,,,,,,,,,,,,,,,,,,,,,,,,,,,,,,,,,,,,,,,,,,,,,,,,,,,,,,,,,,,,,,,,,,,,,,,,,,,,,,,,,,,,,,,,,,,,,,,,,,,,,,,,,,,,,,
,,659c0043b2992ddfe6be3694,2024-02-22_14h28.20.969,kallum_motion_pilot,2023.2.2,Win32,59.88023952,659c0043b2992ddfe6be3694,65d6bb0e977760de756971f7,65d6be231a820dea5ab9ffa9,0.0546,0.0547,1,105,267,132,1,sevenfive,,,,,,,,,,,,,,,,,,,,,,,,,,,,,,,,,,,,,,,,,,,,,,,,,,,,,,,,,,,,,,,,,,,,,,,,,,,,,,,,,,,,,,,,,,,,,,,,,,,,,,,,,,,,,,,,,,,,,,,,,,,,,,,,,,,,,,,,,
,,659c0043b2992ddfe6be3694,2024-02-22_14h28.20.969,kallum_motion_pilot,2023.2.2,Win32,59.88023952,659c0043b2992ddfe6be3694,65d6bb0e977760de756971f7,65d6be231a820dea5ab9ffa9,0.0547,0.0548,1,106,268,21,1,threefour,,,,,,,,,,,,,,,,,,,,,,,,,,,,,,,,,,,,,,,,,,,,,,,,,,,,,,,,,,,,,,,,,,,,,,,,,,,,,,,,,,,,,,,,,,,,,,,,,,,,,,,,,,,,,,,,,,,,,,,,,,,,,,,,,,,,,,,,,
,,659c0043b2992ddfe6be3694,2024-02-22_14h28.20.969,kallum_motion_pilot,2023.2.2,Win32,59.88023952,659c0043b2992ddfe6be3694,65d6bb0e977760de756971f7,65d6be231a820dea5ab9ffa9,0.0548,0.0549,1,107,269,97,1,fiveseven,,,,,,,,,,,,,,,,,,,,,,,,,,,,,,,,,,,,,,,,,,,,,,,,,,,,,,,,,,,,,,,,,,,,,,,,,,,,,,,,,,,,,,,,,,,,,,,,,,,,,,,,,,,,,,,,,,,,,,,,,,,,,,,,,,,,,,,,,
,,659c0043b2992ddfe6be3694,2024-02-22_14h28.20.969,kallum_motion_pilot,2023.2.2,Win32,59.88023952,659c0043b2992ddfe6be3694,65d6bb0e977760de756971f7,65d6be231a820dea5ab9ffa9,0.0549,0.055,1,108,270,64,1,onetwo,,,,,,,,,,,,,,,,,,,,,,,,,,,,,,,,,,,,,,,,,,,,,,,,,,,,,,,,,,,,,,,,,,,,,,,,,,,,,,,,,,,,,,,,,,,,,,,,,,,,,,,,,,,,,,,,,,,,,,,,,,,,,,,,,,,,,,,,,
,,659c0043b2992ddfe6be3694,2024-02-22_14h28.20.969,kallum_motion_pilot,2023.2.2,Win32,59.88023952,659c0043b2992ddfe6be3694,65d6bb0e977760de756971f7,65d6be231a820dea5ab9ffa9,0.055,0.0551,1,109,271,38,1,fourtwo,,,,,,,,,,,,,,,,,,,,,,,,,,,,,,,,,,,,,,,,,,,,,,,,,,,,,,,,,,,,,,,,,,,,,,,,,,,,,,,,,,,,,,,,,,,,,,,,,,,,,,,,,,,,,,,,,,,,,,,,,,,,,,,,,,,,,,,,,
,,659c0043b2992ddfe6be3694,2024-02-22_14h28.20.969,kallum_motion_pilot,2023.2.2,Win32,59.88023952,659c0043b2992ddfe6be3694,65d6bb0e977760de756971f7,65d6be231a820dea5ab9ffa9,0.0551,0.0552,1,110,272,39,1,fourthree,,,,,,,,,,,,,,,,,,,,,,,,,,,,,,,,,,,,,,,,,,,,,,,,,,,,,,,,,,,,,,,,,,,,,,,,,,,,,,,,,,,,,,,,,,,,,,,,,,,,,,,,,,,,,,,,,,,,,,,,,,,,,,,,,,,,,,,,,
,,659c0043b2992ddfe6be3694,2024-02-22_14h28.20.969,kallum_motion_pilot,2023.2.2,Win32,59.88023952,659c0043b2992ddfe6be3694,65d6bb0e977760de756971f7,65d6be231a820dea5ab9ffa9,0.0552,0.0553,1,111,273,138,1,sixfive,,,,,,,,,,,,,,,,,,,,,,,,,,,,,,,,,,,,,,,,,,,,,,,,,,,,,,,,,,,,,,,,,,,,,,,,,,,,,,,,,,,,,,,,,,,,,,,,,,,,,,,,,,,,,,,,,,,,,,,,,,,,,,,,,,,,,,,,,
,,659c0043b2992ddfe6be3694,2024-02-22_14h28.20.969,kallum_motion_pilot,2023.2.2,Win32,59.88023952,659c0043b2992ddfe6be3694,65d6bb0e977760de756971f7,65d6be231a820dea5ab9ffa9,0.0554,0.0555,1,112,274,84,1,sevenfive,,,,,,,,,,,,,,,,,,,,,,,,,,,,,,,,,,,,,,,,,,,,,,,,,,,,,,,,,,,,,,,,,,,,,,,,,,,,,,,,,,,,,,,,,,,,,,,,,,,,,,,,,,,,,,,,,,,,,,,,,,,,,,,,,,,,,,,,,
,,659c0043b2992ddfe6be3694,2024-02-22_14h28.20.969,kallum_motion_pilot,2023.2.2,Win32,59.88023952,659c0043b2992ddfe6be3694,65d6bb0e977760de756971f7,65d6be231a820dea5ab9ffa9,0.0556,0.0557,1,113,275,104,1,fivesix,,,,,,,,,,,,,,,,,,,,,,,,,,,,,,,,,,,,,,,,,,,,,,,,,,,,,,,,,,,,,,,,,,,,,,,,,,,,,,,,,,,,,,,,,,,,,,,,,,,,,,,,,,,,,,,,,,,,,,,,,,,,,,,,,,,,,,,,,
,,659c0043b2992ddfe6be3694,2024-02-22_14h28.20.969,kallum_motion_pilot,2023.2.2,Win32,59.88023952,659c0043b2992ddfe6be3694,65d6bb0e977760de756971f7,65d6be231a820dea5ab9ffa9,0.0557,0.0558,1,114,276,142,1,eightsix,,,,,,,,,,,,,,,,,,,,,,,,,,,,,,,,,,,,,,,,,,,,,,,,,,,,,,,,,,,,,,,,,,,,,,,,,,,,,,,,,,,,,,,,,,,,,,,,,,,,,,,,,,,,,,,,,,,,,,,,,,,,,,,,,,,,,,,,,
,,659c0043b2992ddfe6be3694,2024-02-22_14h28.20.969,kallum_motion_pilot,2023.2.2,Win32,59.88023952,659c0043b2992ddfe6be3694,65d6bb0e977760de756971f7,65d6be231a820dea5ab9ffa9,0.0558,0.0558,1,115,277,25,1,onethree,,,,,,,,,,,,,,,,,,,,,,,,,,,,,,,,,,,,,,,,,,,,,,,,,,,,,,,,,,,,,,,,,,,,,,,,,,,,,,,,,,,,,,,,,,,,,,,,,,,,,,,,,,,,,,,,,,,,,,,,,,,,,,,,,,,,,,,,,
