startup.started,startup.stopped,Prolific ID*,date,expName,psychopyVersion,OS,frameRate,participant,study_id,session,stimpositions.started,stimpositions.stopped,hardcoded_stimulus_positions.thisRepN,hardcoded_stimulus_positions.thisTrialN,hardcoded_stimulus_positions.thisN,hardcoded_stimulus_positions.thisIndex,hardcoded_stimulus_positions.ran,StimulusPos,stimorientation.started,stimorientation.stopped,prac_stimorientation_import_loop.thisRepN,prac_stimorientation_import_loop.thisTrialN,prac_stimorientation_import_loop.thisN,prac_stimorientation_import_loop.thisIndex,prac_stimorientation_import_loop.ran,Stimorientation,welcome_instr.started,welcome_instr.stopped,key_resp.keys,key_resp.rt,key_resp.duration,response_steppedout_1.started,response_steppedout_1.stopped,key_resp_20.keys,key_resp_20.rt,key_resp_20.duration,response_steppedout_2.started,response_steppedout_2.stopped,key_resp_19.keys,key_resp_19.rt,key_resp_19.duration,stim_response_instr.started,stim_response_instr.stopped,key_resp_15.keys,key_resp_15.rt,key_resp_15.duration,direction_instr_2.started,direction_instr_2.stopped,key_resp_9.keys,key_resp_9.rt,key_resp_9.duration,instr_prac.started,instr_prac.stopped,key_resp_10.keys,key_resp_10.rt,key_resp_10.duration,Stim1_display_prac.started,Stim1_display_prac.stopped,Ecc,Circle1_ori,Circle2_ori,response_prac.started,similarity,response_time,response_prac.stopped,mouse_5.x,mouse_5.y,mouse_5.leftButton,mouse_5.midButton,mouse_5.rightButton,mouse_5.clicked_name,responseprac_feedback.started,responseprac_feedback.stopped,summary2_prac.started,summary2_prac.stopped,mouse_6.x,mouse_6.y,mouse_6.leftButton,mouse_6.midButton,mouse_6.rightButton,mouse_6.clicked_name,duringprac.thisRepN,duringprac.thisTrialN,duringprac.thisN,duringprac.thisIndex,duringprac.ran,begin.started,begin.stopped,key_resp_22.keys,key_resp_22.rt,key_resp_22.duration,Stim1_display.started,Stim1_display.stopped,circle1_ori,circle2_ori,circle1_SF,circle2_SF,response.started,response.stopped,mouse.x,mouse.y,mouse.leftButton,mouse.midButton,mouse.rightButton,mouse.clicked_name,trialnumber,double_pass.thisRepN,double_pass.thisTrialN,double_pass.thisN,double_pass.thisIndex,double_pass.ran,double_pass.order,main_trial.thisRepN,main_trial.thisTrialN,main_trial.thisN,main_trial.thisIndex,main_trial.ran,main_trial.order,Trial_Counter,Catch,Frequencies,response_2.started,response_2.stopped,mouse_2.x,mouse_2.y,mouse_2.leftButton,mouse_2.midButton,mouse_2.rightButton,mouse_2.clicked_name,special_trial.started,special_trial.stopped,catch_1.started,catch_1.stopped,mouse_3.x,mouse_3.y,mouse_3.leftButton,mouse_3.midButton,mouse_3.rightButton,catchresponse,catchnumber,response_time_catch,response_sum.started,response_sum.stopped,mouse_11.x,mouse_11.y,mouse_11.leftButton,mouse_11.midButton,mouse_11.rightButton,flip_presentation_sequence_for_double_pass.started,flip_presentation_sequence_for_double_pass.stopped,goodbye.started,goodbye.stopped,key_resp_3.keys,key_resp_3.rt,key_resp_3.duration
0.0024,0.0025,659d54e4e2c15f109cc1353d,2024-02-22_24h28.10.142,kallum_motion_pilot,2023.2.2,Win32,59.88023952,659d54e4e2c15f109cc1353d,65d6bb0e977760de756971f7,65d6bf2a0257de93fd730165,,,,,,,,,,,,,,,,,,,,,,,,,,,,,,,,,,,,,,,,,,,,,,,,,,,,,,,,,,,,,,,,,,,,,,,,,,,,,,,,,,,,,,,,,,,,,,,,,,,,,,,,,,,,,,,,,,,,,,,,,,,,,,,,,,,,,,,,,,,,,,,,,
,,659d54e4e2c15f109cc1353d,2024-02-22_24h28.10.142,kallum_motion_pilot,2023.2.2,Win32,59.88023952,659d54e4e2c15f109cc1353d,65d6bb0e977760de756971f7,65d6bf2a0257de93fd730165,0.0319,0.0321,0,0,0,75,1,twofour,,,,,,,,,,,,,,,,,,,,,,,,,,,,,,,,,,,,,,,,,,,,,,,,,,,,,,,,,,,,,,,,,,,,,,,,,,,,,,,,,,,,,,,,,,,,,,,,,,,,,,,,,,,,,,,,,,,,,,,,,,,,,,,,,,,,,,,,,
,,659d54e4e2c15f109cc1353d,2024-02-22_24h28.10.142,kallum_motion_pilot,2023.2.2,Win32,59.88023952,659d54e4e2c15f109cc1353d,65d6bb0e977760de756971f7,65d6bf2a0257de93fd730165,0.0324,0.0324,0,1,1,18,1,twoone,,,,,,,,,,,,,,,,,,,,,,,,,,,,,,,,,,,,,,,,,,,,,,,,,,,,,,,,,,,,,,,,,,,,,,,,,,,,,,,,,,,,,,,,,,,,,,,,,,,,,,,,,,,,,,,,,,,,,,,,,,,,,,,,,,,,,,,,,
,,659d54e4e2c15f109cc1353d,2024-02-22_24h28.10.142,kallum_motion_pilot,2023.2.2,Win32,59.88023952,659d54e4e2c15f109cc1353d,65d6bb0e977760de756971f7,65d6bf2a0257de93fd730165,0.0326,0.0326,0,2,2,62,1,fourtwo,,,,,,,,,,,,,,,,,,,,,,,,,,,,,,,,,,,,,,,,,,,,,,,,,,,,,,,,,,,,,,,,,,,,,,,,,,,,,,,,,,,,,,,,,,,,,,,,,,,,,,,,,,,,,,,,,,,,,,,,,,,,,,,,,,,,,,,,,
,,659d54e4e2c15f109cc1353d,2024-02-22_24h28.10.142,kallum_motion_pilot,2023.2.2,Win32,59.88023952,659d54e4e2c15f109cc1353d,65d6bb0e977760de756971f7,65d6bf2a0257de93fd730165,0.0328,0.0329,0,3,3,26,1,twoone,,,,,,,,,,,,,,,,,,,,,,,,,,,,,,,,,,,,,,,,,,,,,,,,,,,,,,,,,,,,,,,,,,,,,,,,,,,,,,,,,,,,,,,,,,,,,,,,,,,,,,,,,,,,,,,,,,,,,,,,,,,,,,,,,,,,,,,,,
,,659d54e4e2c15f109cc1353d,2024-02-22_24h28.10.142,kallum_motion_pilot,2023.2.2,Win32,59.88023952,659d54e4e2c15f109cc1353d,65d6bb0e977760de756971f7,65d6bf2a0257de93fd730165,0.033,0.033,0,4,4,141,1,seveneight,,,,,,,,,,,,,,,,,,,,,,,,,,,,,,,,,,,,,,,,,,,,,,,,,,,,,,,,,,,,,,,,,,,,,,,,,,,,,,,,,,,,,,,,,,,,,,,,,,,,,,,,,,,,,,,,,,,,,,,,,,,,,,,,,,,,,,,,,
,,659d54e4e2c15f109cc1353d,2024-02-22_24h28.10.142,kallum_motion_pilot,2023.2.2,Win32,59.88023952,659d54e4e2c15f109cc1353d,65d6bb0e977760de756971f7,65d6bf2a0257de93fd730165,0.0332,0.0332,0,5,5,153,1,fiveseven,,,,,,,,,,,,,,,,,,,,,,,,,,,,,,,,,,,,,,,,,,,,,,,,,,,,,,,,,,,,,,,,,,,,,,,,,,,,,,,,,,,,,,,,,,,,,,,,,,,,,,,,,,,,,,,,,,,,,,,,,,,,,,,,,,,,,,,,,
,,659d54e4e2c15f109cc1353d,2024-02-22_24h28.10.142,kallum_motion_pilot,2023.2.2,Win32,59.88023952,659d54e4e2c15f109cc1353d,65d6bb0e977760de756971f7,65d6bf2a0257de93fd730165,0.0334,0.0334,0,6,6,154,1,sixfive,,,,,,,,,,,,,,,,,,,,,,,,,,,,,,,,,,,,,,,,,,,,,,,,,,,,,,,,,,,,,,,,,,,,,,,,,,,,,,,,,,,,,,,,,,,,,,,,,,,,,,,,,,,,,,,,,,,,,,,,,,,,,,,,,,,,,,,,,
,,659d54e4e2c15f109cc1353d,2024-02-22_24h28.10.142,kallum_motion_pilot,2023.2.2,Win32,59.88023952,659d54e4e2c15f109cc1353d,65d6bb0e977760de756971f7,65d6bf2a0257de93fd730165,0.0335,0.0337,0,7,7,108,1,sevenfive,,,,,,,,,,,,,,,,,,,,,,,,,,,,,,,,,,,,,,,,,,,,,,,,,,,,,,,,,,,,,,,,,,,,,,,,,,,,,,,,,,,,,,,,,,,,,,,,,,,,,,,,,,,,,,,,,,,,,,,,,,,,,,,,,,,,,,,,,
,,659d54e4e2c15f109cc1353d,2024-02-22_24h28.10.142,kallum_motion_pilot,2023.2.2,Win32,59.88023952,659d54e4e2c15f109cc1353d,65d6bb0e977760de756971f7,65d6bf2a0257de93fd730165,0.0338,0.0338,0,8,8,70,1,fourtwo,,,,,,,,,,,,,,,,,,,,,,,,,,,,,,,,,,,,,,,,,,,,,,,,,,,,,,,,,,,,,,,,,,,,,,,,,,,,,,,,,,,,,,,,,,,,,,,,,,,,,,,,,,,,,,,,,,,,,,,,,,,,,,,,,,,,,,,,,
,,659d54e4e2c15f109cc1353d,2024-02-22_24h28.10.142,kallum_motion_pilot,2023.2.2,Win32,59.88023952,659d54e4e2c15f109cc1353d,65d6bb0e977760de756971f7,65d6bf2a0257de93fd730165,0.0339,0.034,0,9,9,133,1,seveneight,,,,,,,,,,,,,,,,,,,,,,,,,,,,,,,,,,,,,,,,,,,,,,,,,,,,,,,,,,,,,,,,,,,,,,,,,,,,,,,,,,,,,,,,,,,,,,,,,,,,,,,,,,,,,,,,,,,,,,,,,,,,,,,,,,,,,,,,,
,,659d54e4e2c15f109cc1353d,2024-02-22_24h28.10.142,kallum_motion_pilot,2023.2.2,Win32,59.88023952,659d54e4e2c15f109cc1353d,65d6bb0e977760de756971f7,65d6bf2a0257de93fd730165,0.0341,0.0342,0,10,10,29,1,threefour,,,,,,,,,,,,,,,,,,,,,,,,,,,,,,,,,,,,,,,,,,,,,,,,,,,,,,,,,,,,,,,,,,,,,,,,,,,,,,,,,,,,,,,,,,,,,,,,,,,,,,,,,,,,,,,,,,,,,,,,,,,,,,,,,,,,,,,,,
,,659d54e4e2c15f109cc1353d,2024-02-22_24h28.10.142,kallum_motion_pilot,2023.2.2,Win32,59.88023952,659d54e4e2c15f109cc1353d,65d6bb0e977760de756971f7,65d6bf2a0257de93fd730165,0.0343,0.0343,0,11,11,115,1,sixeight,,,,,,,,,,,,,,,,,,,,,,,,,,,,,,,,,,,,,,,,,,,,,,,,,,,,,,,,,,,,,,,,,,,,,,,,,,,,,,,,,,,,,,,,,,,,,,,,,,,,,,,,,,,,,,,,,,,,,,,,,,,,,,,,,,,,,,,,,
,,659d54e4e2c15f109cc1353d,2024-02-22_24h28.10.142,kallum_motion_pilot,2023.2.2,Win32,59.88023952,659d54e4e2c15f109cc1353d,65d6bb0e977760de756971f7,65d6bf2a0257de93fd730165,0.0344,0.0346,0,12,12,80,1,fivesix,,,,,,,,,,,,,,,,,,,,,,,,,,,,,,,,,,,,,,,,,,,,,,,,,,,,,,,,,,,,,,,,,,,,,,,,,,,,,,,,,,,,,,,,,,,,,,,,,,,,,,,,,,,,,,,,,,,,,,,,,,,,,,,,,,,,,,,,,
,,659d54e4e2c15f109cc1353d,2024-02-22_24h28.10.142,kallum_motion_pilot,2023.2.2,Win32,59.88023952,659d54e4e2c15f109cc1353d,65d6bb0e977760de756971f7,65d6bf2a0257de93fd730165,0.0346,0.0346,0,13,13,81,1,fiveseven,,,,,,,,,,,,,,,,,,,,,,,,,,,,,,,,,,,,,,,,,,,,,,,,,,,,,,,,,,,,,,,,,,,,,,,,,,,,,,,,,,,,,,,,,,,,,,,,,,,,,,,,,,,,,,,,,,,,,,,,,,,,,,,,,,,,,,,,,
,,659d54e4e2c15f109cc1353d,2024-02-22_24h28.10.142,kallum_motion_pilot,2023.2.2,Win32,59.88023952,659d54e4e2c15f109cc1353d,65d6bb0e977760de756971f7,65d6bf2a0257de93fd730165,0.0348,0.0348,0,14,14,7,1,fourthree,,,,,,,,,,,,,,,,,,,,,,,,,,,,,,,,,,,,,,,,,,,,,,,,,,,,,,,,,,,,,,,,,,,,,,,,,,,,,,,,,,,,,,,,,,,,,,,,,,,,,,,,,,,,,,,,,,,,,,,,,,,,,,,,,,,,,,,,,
,,659d54e4e2c15f109cc1353d,2024-02-22_24h28.10.142,kallum_motion_pilot,2023.2.2,Win32,59.88023952,659d54e4e2c15f109cc1353d,65d6bb0e977760de756971f7,65d6bf2a0257de93fd730165,0.035,0.035,0,15,15,106,1,sixfive,,,,,,,,,,,,,,,,,,,,,,,,,,,,,,,,,,,,,,,,,,,,,,,,,,,,,,,,,,,,,,,,,,,,,,,,,,,,,,,,,,,,,,,,,,,,,,,,,,,,,,,,,,,,,,,,,,,,,,,,,,,,,,,,,,,,,,,,,
,,659d54e4e2c15f109cc1353d,2024-02-22_24h28.10.142,kallum_motion_pilot,2023.2.2,Win32,59.88023952,659d54e4e2c15f109cc1353d,65d6bb0e977760de756971f7,65d6bf2a0257de93fd730165,0.0351,0.0352,0,16,16,49,1,onethree,,,,,,,,,,,,,,,,,,,,,,,,,,,,,,,,,,,,,,,,,,,,,,,,,,,,,,,,,,,,,,,,,,,,,,,,,,,,,,,,,,,,,,,,,,,,,,,,,,,,,,,,,,,,,,,,,,,,,,,,,,,,,,,,,,,,,,,,,
,,659d54e4e2c15f109cc1353d,2024-02-22_24h28.10.142,kallum_motion_pilot,2023.2.2,Win32,59.88023952,659d54e4e2c15f109cc1353d,65d6bb0e977760de756971f7,65d6bf2a0257de93fd730165,0.0352,0.0353,0,17,17,97,1,fiveseven,,,,,,,,,,,,,,,,,,,,,,,,,,,,,,,,,,,,,,,,,,,,,,,,,,,,,,,,,,,,,,,,,,,,,,,,,,,,,,,,,,,,,,,,,,,,,,,,,,,,,,,,,,,,,,,,,,,,,,,,,,,,,,,,,,,,,,,,,
,,659d54e4e2c15f109cc1353d,2024-02-22_24h28.10.142,kallum_motion_pilot,2023.2.2,Win32,59.88023952,659d54e4e2c15f109cc1353d,65d6bb0e977760de756971f7,65d6bf2a0257de93fd730165,0.0354,0.0354,0,18,18,57,1,onethree,,,,,,,,,,,,,,,,,,,,,,,,,,,,,,,,,,,,,,,,,,,,,,,,,,,,,,,,,,,,,,,,,,,,,,,,,,,,,,,,,,,,,,,,,,,,,,,,,,,,,,,,,,,,,,,,,,,,,,,,,,,,,,,,,,,,,,,,,
,,659d54e4e2c15f109cc1353d,2024-02-22_24h28.10.142,kallum_motion_pilot,2023.2.2,Win32,59.88023952,659d54e4e2c15f109cc1353d,65d6bb0e977760de756971f7,65d6bf2a0257de93fd730165,0.0355,0.0356,0,19,19,101,1,seveneight,,,,,,,,,,,,,,,,,,,,,,,,,,,,,,,,,,,,,,,,,,,,,,,,,,,,,,,,,,,,,,,,,,,,,,,,,,,,,,,,,,,,,,,,,,,,,,,,,,,,,,,,,,,,,,,,,,,,,,,,,,,,,,,,,,,,,,,,,
,,659d54e4e2c15f109cc1353d,2024-02-22_24h28.10.142,kallum_motion_pilot,2023.2.2,Win32,59.88023952,659d54e4e2c15f109cc1353d,65d6bb0e977760de756971f7,65d6bf2a0257de93fd730165,0.0357,0.0358,0,20,20,85,1,seveneight,,,,,,,,,,,,,,,,,,,,,,,,,,,,,,,,,,,,,,,,,,,,,,,,,,,,,,,,,,,,,,,,,,,,,,,,,,,,,,,,,,,,,,,,,,,,,,,,,,,,,,,,,,,,,,,,,,,,,,,,,,,,,,,,,,,,,,,,,
,,659d54e4e2c15f109cc1353d,2024-02-22_24h28.10.142,kallum_motion_pilot,2023.2.2,Win32,59.88023952,659d54e4e2c15f109cc1353d,65d6bb0e977760de756971f7,65d6bf2a0257de93fd730165,0.0358,0.0359,0,21,21,59,1,twofour,,,,,,,,,,,,,,,,,,,,,,,,,,,,,,,,,,,,,,,,,,,,,,,,,,,,,,,,,,,,,,,,,,,,,,,,,,,,,,,,,,,,,,,,,,,,,,,,,,,,,,,,,,,,,,,,,,,,,,,,,,,,,,,,,,,,,,,,,
,,659d54e4e2c15f109cc1353d,2024-02-22_24h28.10.142,kallum_motion_pilot,2023.2.2,Win32,59.88023952,659d54e4e2c15f109cc1353d,65d6bb0e977760de756971f7,65d6bf2a0257de93fd730165,0.036,0.036,0,22,22,19,1,twofour,,,,,,,,,,,,,,,,,,,,,,,,,,,,,,,,,,,,,,,,,,,,,,,,,,,,,,,,,,,,,,,,,,,,,,,,,,,,,,,,,,,,,,,,,,,,,,,,,,,,,,,,,,,,,,,,,,,,,,,,,,,,,,,,,,,,,,,,,
,,659d54e4e2c15f109cc1353d,2024-02-22_24h28.10.142,kallum_motion_pilot,2023.2.2,Win32,59.88023952,659d54e4e2c15f109cc1353d,65d6bb0e977760de756971f7,65d6bf2a0257de93fd730165,0.0364,0.0365,0,23,23,67,1,twofour,,,,,,,,,,,,,,,,,,,,,,,,,,,,,,,,,,,,,,,,,,,,,,,,,,,,,,,,,,,,,,,,,,,,,,,,,,,,,,,,,,,,,,,,,,,,,,,,,,,,,,,,,,,,,,,,,,,,,,,,,,,,,,,,,,,,,,,,,
,,659d54e4e2c15f109cc1353d,2024-02-22_24h28.10.142,kallum_motion_pilot,2023.2.2,Win32,59.88023952,659d54e4e2c15f109cc1353d,65d6bb0e977760de756971f7,65d6bf2a0257de93fd730165,0.0369,0.0371,0,24,24,73,1,onethree,,,,,,,,,,,,,,,,,,,,,,,,,,,,,,,,,,,,,,,,,,,,,,,,,,,,,,,,,,,,,,,,,,,,,,,,,,,,,,,,,,,,,,,,,,,,,,,,,,,,,,,,,,,,,,,,,,,,,,,,,,,,,,,,,,,,,,,,,
,,659d54e4e2c15f109cc1353d,2024-02-22_24h28.10.142,kallum_motion_pilot,2023.2.2,Win32,59.88023952,659d54e4e2c15f109cc1353d,65d6bb0e977760de756971f7,65d6bf2a0257de93fd730165,0.0374,0.0374,0,25,25,11,1,twofour,,,,,,,,,,,,,,,,,,,,,,,,,,,,,,,,,,,,,,,,,,,,,,,,,,,,,,,,,,,,,,,,,,,,,,,,,,,,,,,,,,,,,,,,,,,,,,,,,,,,,,,,,,,,,,,,,,,,,,,,,,,,,,,,,,,,,,,,,
,,659d54e4e2c15f109cc1353d,2024-02-22_24h28.10.142,kallum_motion_pilot,2023.2.2,Win32,59.88023952,659d54e4e2c15f109cc1353d,65d6bb0e977760de756971f7,65d6bf2a0257de93fd730165,0.0376,0.0376,0,26,26,132,1,sevenfive,,,,,,,,,,,,,,,,,,,,,,,,,,,,,,,,,,,,,,,,,,,,,,,,,,,,,,,,,,,,,,,,,,,,,,,,,,,,,,,,,,,,,,,,,,,,,,,,,,,,,,,,,,,,,,,,,,,,,,,,,,,,,,,,,,,,,,,,,
,,659d54e4e2c15f109cc1353d,2024-02-22_24h28.10.142,kallum_motion_pilot,2023.2.2,Win32,59.88023952,659d54e4e2c15f109cc1353d,65d6bb0e977760de756971f7,65d6bf2a0257de93fd730165,0.0377,0.0378,0,27,27,8,1,onetwo,,,,,,,,,,,,,,,,,,,,,,,,,,,,,,,,,,,,,,,,,,,,,,,,,,,,,,,,,,,,,,,,,,,,,,,,,,,,,,,,,,,,,,,,,,,,,,,,,,,,,,,,,,,,,,,,,,,,,,,,,,,,,,,,,,,,,,,,,
,,659d54e4e2c15f109cc1353d,2024-02-22_24h28.10.142,kallum_motion_pilot,2023.2.2,Win32,59.88023952,659d54e4e2c15f109cc1353d,65d6bb0e977760de756971f7,65d6bf2a0257de93fd730165,0.0379,0.0379,0,28,28,148,1,sevenfive,,,,,,,,,,,,,,,,,,,,,,,,,,,,,,,,,,,,,,,,,,,,,,,,,,,,,,,,,,,,,,,,,,,,,,,,,,,,,,,,,,,,,,,,,,,,,,,,,,,,,,,,,,,,,,,,,,,,,,,,,,,,,,,,,,,,,,,,,
,,659d54e4e2c15f109cc1353d,2024-02-22_24h28.10.142,kallum_motion_pilot,2023.2.2,Win32,59.88023952,659d54e4e2c15f109cc1353d,65d6bb0e977760de756971f7,65d6bf2a0257de93fd730165,0.0381,0.0382,0,29,29,113,1,fiveseven,,,,,,,,,,,,,,,,,,,,,,,,,,,,,,,,,,,,,,,,,,,,,,,,,,,,,,,,,,,,,,,,,,,,,,,,,,,,,,,,,,,,,,,,,,,,,,,,,,,,,,,,,,,,,,,,,,,,,,,,,,,,,,,,,,,,,,,,,
,,659d54e4e2c15f109cc1353d,2024-02-22_24h28.10.142,kallum_motion_pilot,2023.2.2,Win32,59.88023952,659d54e4e2c15f109cc1353d,65d6bb0e977760de756971f7,65d6bf2a0257de93fd730165,0.0384,0.0384,0,30,30,155,1,sixeight,,,,,,,,,,,,,,,,,,,,,,,,,,,,,,,,,,,,,,,,,,,,,,,,,,,,,,,,,,,,,,,,,,,,,,,,,,,,,,,,,,,,,,,,,,,,,,,,,,,,,,,,,,,,,,,,,,,,,,,,,,,,,,,,,,,,,,,,,
,,659d54e4e2c15f109cc1353d,2024-02-22_24h28.10.142,kallum_motion_pilot,2023.2.2,Win32,59.88023952,659d54e4e2c15f109cc1353d,65d6bb0e977760de756971f7,65d6bf2a0257de93fd730165,0.0386,0.0386,0,31,31,136,1,fivesix,,,,,,,,,,,,,,,,,,,,,,,,,,,,,,,,,,,,,,,,,,,,,,,,,,,,,,,,,,,,,,,,,,,,,,,,,,,,,,,,,,,,,,,,,,,,,,,,,,,,,,,,,,,,,,,,,,,,,,,,,,,,,,,,,,,,,,,,,
,,659d54e4e2c15f109cc1353d,2024-02-22_24h28.10.142,kallum_motion_pilot,2023.2.2,Win32,59.88023952,659d54e4e2c15f109cc1353d,65d6bb0e977760de756971f7,65d6bf2a0257de93fd730165,0.0387,0.0388,0,32,32,43,1,twofour,,,,,,,,,,,,,,,,,,,,,,,,,,,,,,,,,,,,,,,,,,,,,,,,,,,,,,,,,,,,,,,,,,,,,,,,,,,,,,,,,,,,,,,,,,,,,,,,,,,,,,,,,,,,,,,,,,,,,,,,,,,,,,,,,,,,,,,,,
,,659d54e4e2c15f109cc1353d,2024-02-22_24h28.10.142,kallum_motion_pilot,2023.2.2,Win32,59.88023952,659d54e4e2c15f109cc1353d,65d6bb0e977760de756971f7,65d6bf2a0257de93fd730165,0.0389,0.0389,0,33,33,34,1,twoone,,,,,,,,,,,,,,,,,,,,,,,,,,,,,,,,,,,,,,,,,,,,,,,,,,,,,,,,,,,,,,,,,,,,,,,,,,,,,,,,,,,,,,,,,,,,,,,,,,,,,,,,,,,,,,,,,,,,,,,,,,,,,,,,,,,,,,,,,
,,659d54e4e2c15f109cc1353d,2024-02-22_24h28.10.142,kallum_motion_pilot,2023.2.2,Win32,59.88023952,659d54e4e2c15f109cc1353d,65d6bb0e977760de756971f7,65d6bf2a0257de93fd730165,0.0391,0.0391,0,34,34,107,1,sixeight,,,,,,,,,,,,,,,,,,,,,,,,,,,,,,,,,,,,,,,,,,,,,,,,,,,,,,,,,,,,,,,,,,,,,,,,,,,,,,,,,,,,,,,,,,,,,,,,,,,,,,,,,,,,,,,,,,,,,,,,,,,,,,,,,,,,,,,,,
,,659d54e4e2c15f109cc1353d,2024-02-22_24h28.10.142,kallum_motion_pilot,2023.2.2,Win32,59.88023952,659d54e4e2c15f109cc1353d,65d6bb0e977760de756971f7,65d6bf2a0257de93fd730165,0.0392,0.0393,0,35,35,150,1,eightsix,,,,,,,,,,,,,,,,,,,,,,,,,,,,,,,,,,,,,,,,,,,,,,,,,,,,,,,,,,,,,,,,,,,,,,,,,,,,,,,,,,,,,,,,,,,,,,,,,,,,,,,,,,,,,,,,,,,,,,,,,,,,,,,,,,,,,,,,,
,,659d54e4e2c15f109cc1353d,2024-02-22_24h28.10.142,kallum_motion_pilot,2023.2.2,Win32,59.88023952,659d54e4e2c15f109cc1353d,65d6bb0e977760de756971f7,65d6bf2a0257de93fd730165,0.0394,0.0394,0,36,36,90,1,sixfive,,,,,,,,,,,,,,,,,,,,,,,,,,,,,,,,,,,,,,,,,,,,,,,,,,,,,,,,,,,,,,,,,,,,,,,,,,,,,,,,,,,,,,,,,,,,,,,,,,,,,,,,,,,,,,,,,,,,,,,,,,,,,,,,,,,,,,,,,
,,659d54e4e2c15f109cc1353d,2024-02-22_24h28.10.142,kallum_motion_pilot,2023.2.2,Win32,59.88023952,659d54e4e2c15f109cc1353d,65d6bb0e977760de756971f7,65d6bf2a0257de93fd730165,0.0396,0.0396,0,37,37,83,1,sixeight,,,,,,,,,,,,,,,,,,,,,,,,,,,,,,,,,,,,,,,,,,,,,,,,,,,,,,,,,,,,,,,,,,,,,,,,,,,,,,,,,,,,,,,,,,,,,,,,,,,,,,,,,,,,,,,,,,,,,,,,,,,,,,,,,,,,,,,,,
,,659d54e4e2c15f109cc1353d,2024-02-22_24h28.10.142,kallum_motion_pilot,2023.2.2,Win32,59.88023952,659d54e4e2c15f109cc1353d,65d6bb0e977760de756971f7,65d6bf2a0257de93fd730165,0.0397,0.0398,0,38,38,88,1,fivesix,,,,,,,,,,,,,,,,,,,,,,,,,,,,,,,,,,,,,,,,,,,,,,,,,,,,,,,,,,,,,,,,,,,,,,,,,,,,,,,,,,,,,,,,,,,,,,,,,,,,,,,,,,,,,,,,,,,,,,,,,,,,,,,,,,,,,,,,,
,,659d54e4e2c15f109cc1353d,2024-02-22_24h28.10.142,kallum_motion_pilot,2023.2.2,Win32,59.88023952,659d54e4e2c15f109cc1353d,65d6bb0e977760de756971f7,65d6bf2a0257de93fd730165,0.0399,0.0399,0,39,39,156,1,sevenfive,,,,,,,,,,,,,,,,,,,,,,,,,,,,,,,,,,,,,,,,,,,,,,,,,,,,,,,,,,,,,,,,,,,,,,,,,,,,,,,,,,,,,,,,,,,,,,,,,,,,,,,,,,,,,,,,,,,,,,,,,,,,,,,,,,,,,,,,,
,,659d54e4e2c15f109cc1353d,2024-02-22_24h28.10.142,kallum_motion_pilot,2023.2.2,Win32,59.88023952,659d54e4e2c15f109cc1353d,65d6bb0e977760de756971f7,65d6bf2a0257de93fd730165,0.0401,0.0401,0,40,40,63,1,fourthree,,,,,,,,,,,,,,,,,,,,,,,,,,,,,,,,,,,,,,,,,,,,,,,,,,,,,,,,,,,,,,,,,,,,,,,,,,,,,,,,,,,,,,,,,,,,,,,,,,,,,,,,,,,,,,,,,,,,,,,,,,,,,,,,,,,,,,,,,
,,659d54e4e2c15f109cc1353d,2024-02-22_24h28.10.142,kallum_motion_pilot,2023.2.2,Win32,59.88023952,659d54e4e2c15f109cc1353d,65d6bb0e977760de756971f7,65d6bf2a0257de93fd730165,0.0402,0.0402,0,41,41,94,1,eightsix,,,,,,,,,,,,,,,,,,,,,,,,,,,,,,,,,,,,,,,,,,,,,,,,,,,,,,,,,,,,,,,,,,,,,,,,,,,,,,,,,,,,,,,,,,,,,,,,,,,,,,,,,,,,,,,,,,,,,,,,,,,,,,,,,,,,,,,,,
,,659d54e4e2c15f109cc1353d,2024-02-22_24h28.10.142,kallum_motion_pilot,2023.2.2,Win32,59.88023952,659d54e4e2c15f109cc1353d,65d6bb0e977760de756971f7,65d6bf2a0257de93fd730165,0.0404,0.0404,0,42,42,44,1,threeone,,,,,,,,,,,,,,,,,,,,,,,,,,,,,,,,,,,,,,,,,,,,,,,,,,,,,,,,,,,,,,,,,,,,,,,,,,,,,,,,,,,,,,,,,,,,,,,,,,,,,,,,,,,,,,,,,,,,,,,,,,,,,,,,,,,,,,,,,
,,659d54e4e2c15f109cc1353d,2024-02-22_24h28.10.142,kallum_motion_pilot,2023.2.2,Win32,59.88023952,659d54e4e2c15f109cc1353d,65d6bb0e977760de756971f7,65d6bf2a0257de93fd730165,0.0405,0.0406,0,43,43,130,1,sixfive,,,,,,,,,,,,,,,,,,,,,,,,,,,,,,,,,,,,,,,,,,,,,,,,,,,,,,,,,,,,,,,,,,,,,,,,,,,,,,,,,,,,,,,,,,,,,,,,,,,,,,,,,,,,,,,,,,,,,,,,,,,,,,,,,,,,,,,,,
,,659d54e4e2c15f109cc1353d,2024-02-22_24h28.10.142,kallum_motion_pilot,2023.2.2,Win32,59.88023952,659d54e4e2c15f109cc1353d,65d6bb0e977760de756971f7,65d6bf2a0257de93fd730165,0.0407,0.0408,0,44,44,129,1,fiveseven,,,,,,,,,,,,,,,,,,,,,,,,,,,,,,,,,,,,,,,,,,,,,,,,,,,,,,,,,,,,,,,,,,,,,,,,,,,,,,,,,,,,,,,,,,,,,,,,,,,,,,,,,,,,,,,,,,,,,,,,,,,,,,,,,,,,,,,,,
,,659d54e4e2c15f109cc1353d,2024-02-22_24h28.10.142,kallum_motion_pilot,2023.2.2,Win32,59.88023952,659d54e4e2c15f109cc1353d,65d6bb0e977760de756971f7,65d6bf2a0257de93fd730165,0.0409,0.0409,0,45,45,147,1,sixeight,,,,,,,,,,,,,,,,,,,,,,,,,,,,,,,,,,,,,,,,,,,,,,,,,,,,,,,,,,,,,,,,,,,,,,,,,,,,,,,,,,,,,,,,,,,,,,,,,,,,,,,,,,,,,,,,,,,,,,,,,,,,,,,,,,,,,,,,,
,,659d54e4e2c15f109cc1353d,2024-02-22_24h28.10.142,kallum_motion_pilot,2023.2.2,Win32,59.88023952,659d54e4e2c15f109cc1353d,65d6bb0e977760de756971f7,65d6bf2a0257de93fd730165,0.041,0.041,0,46,46,0,1,onetwo,,,,,,,,,,,,,,,,,,,,,,,,,,,,,,,,,,,,,,,,,,,,,,,,,,,,,,,,,,,,,,,,,,,,,,,,,,,,,,,,,,,,,,,,,,,,,,,,,,,,,,,,,,,,,,,,,,,,,,,,,,,,,,,,,,,,,,,,,
,,659d54e4e2c15f109cc1353d,2024-02-22_24h28.10.142,kallum_motion_pilot,2023.2.2,Win32,59.88023952,659d54e4e2c15f109cc1353d,65d6bb0e977760de756971f7,65d6bf2a0257de93fd730165,0.0412,0.0412,0,47,47,111,1,eightseven,,,,,,,,,,,,,,,,,,,,,,,,,,,,,,,,,,,,,,,,,,,,,,,,,,,,,,,,,,,,,,,,,,,,,,,,,,,,,,,,,,,,,,,,,,,,,,,,,,,,,,,,,,,,,,,,,,,,,,,,,,,,,,,,,,,,,,,,,
,,659d54e4e2c15f109cc1353d,2024-02-22_24h28.10.142,kallum_motion_pilot,2023.2.2,Win32,59.88023952,659d54e4e2c15f109cc1353d,65d6bb0e977760de756971f7,65d6bf2a0257de93fd730165,0.0413,0.0414,0,48,48,33,1,onethree,,,,,,,,,,,,,,,,,,,,,,,,,,,,,,,,,,,,,,,,,,,,,,,,,,,,,,,,,,,,,,,,,,,,,,,,,,,,,,,,,,,,,,,,,,,,,,,,,,,,,,,,,,,,,,,,,,,,,,,,,,,,,,,,,,,,,,,,,
,,659d54e4e2c15f109cc1353d,2024-02-22_24h28.10.142,kallum_motion_pilot,2023.2.2,Win32,59.88023952,659d54e4e2c15f109cc1353d,65d6bb0e977760de756971f7,65d6bf2a0257de93fd730165,0.0415,0.0416,0,49,49,31,1,fourthree,,,,,,,,,,,,,,,,,,,,,,,,,,,,,,,,,,,,,,,,,,,,,,,,,,,,,,,,,,,,,,,,,,,,,,,,,,,,,,,,,,,,,,,,,,,,,,,,,,,,,,,,,,,,,,,,,,,,,,,,,,,,,,,,,,,,,,,,,
,,659d54e4e2c15f109cc1353d,2024-02-22_24h28.10.142,kallum_motion_pilot,2023.2.2,Win32,59.88023952,659d54e4e2c15f109cc1353d,65d6bb0e977760de756971f7,65d6bf2a0257de93fd730165,0.0417,0.0417,0,50,50,69,1,threefour,,,,,,,,,,,,,,,,,,,,,,,,,,,,,,,,,,,,,,,,,,,,,,,,,,,,,,,,,,,,,,,,,,,,,,,,,,,,,,,,,,,,,,,,,,,,,,,,,,,,,,,,,,,,,,,,,,,,,,,,,,,,,,,,,,,,,,,,,
,,659d54e4e2c15f109cc1353d,2024-02-22_24h28.10.142,kallum_motion_pilot,2023.2.2,Win32,59.88023952,659d54e4e2c15f109cc1353d,65d6bb0e977760de756971f7,65d6bf2a0257de93fd730165,0.0418,0.0419,0,51,51,122,1,sixfive,,,,,,,,,,,,,,,,,,,,,,,,,,,,,,,,,,,,,,,,,,,,,,,,,,,,,,,,,,,,,,,,,,,,,,,,,,,,,,,,,,,,,,,,,,,,,,,,,,,,,,,,,,,,,,,,,,,,,,,,,,,,,,,,,,,,,,,,,
,,659d54e4e2c15f109cc1353d,2024-02-22_24h28.10.142,kallum_motion_pilot,2023.2.2,Win32,59.88023952,659d54e4e2c15f109cc1353d,65d6bb0e977760de756971f7,65d6bf2a0257de93fd730165,0.042,0.0421,0,52,52,60,1,threeone,,,,,,,,,,,,,,,,,,,,,,,,,,,,,,,,,,,,,,,,,,,,,,,,,,,,,,,,,,,,,,,,,,,,,,,,,,,,,,,,,,,,,,,,,,,,,,,,,,,,,,,,,,,,,,,,,,,,,,,,,,,,,,,,,,,,,,,,,
,,659d54e4e2c15f109cc1353d,2024-02-22_24h28.10.142,kallum_motion_pilot,2023.2.2,Win32,59.88023952,659d54e4e2c15f109cc1353d,65d6bb0e977760de756971f7,65d6bf2a0257de93fd730165,0.0422,0.0422,0,53,53,40,1,onetwo,,,,,,,,,,,,,,,,,,,,,,,,,,,,,,,,,,,,,,,,,,,,,,,,,,,,,,,,,,,,,,,,,,,,,,,,,,,,,,,,,,,,,,,,,,,,,,,,,,,,,,,,,,,,,,,,,,,,,,,,,,,,,,,,,,,,,,,,,
,,659d54e4e2c15f109cc1353d,2024-02-22_24h28.10.142,kallum_motion_pilot,2023.2.2,Win32,59.88023952,659d54e4e2c15f109cc1353d,65d6bb0e977760de756971f7,65d6bf2a0257de93fd730165,0.0424,0.0424,0,54,54,123,1,sixeight,,,,,,,,,,,,,,,,,,,,,,,,,,,,,,,,,,,,,,,,,,,,,,,,,,,,,,,,,,,,,,,,,,,,,,,,,,,,,,,,,,,,,,,,,,,,,,,,,,,,,,,,,,,,,,,,,,,,,,,,,,,,,,,,,,,,,,,,,
,,659d54e4e2c15f109cc1353d,2024-02-22_24h28.10.142,kallum_motion_pilot,2023.2.2,Win32,59.88023952,659d54e4e2c15f109cc1353d,65d6bb0e977760de756971f7,65d6bf2a0257de93fd730165,0.0425,0.0426,0,55,55,2,1,twoone,,,,,,,,,,,,,,,,,,,,,,,,,,,,,,,,,,,,,,,,,,,,,,,,,,,,,,,,,,,,,,,,,,,,,,,,,,,,,,,,,,,,,,,,,,,,,,,,,,,,,,,,,,,,,,,,,,,,,,,,,,,,,,,,,,,,,,,,,
,,659d54e4e2c15f109cc1353d,2024-02-22_24h28.10.142,kallum_motion_pilot,2023.2.2,Win32,59.88023952,659d54e4e2c15f109cc1353d,65d6bb0e977760de756971f7,65d6bf2a0257de93fd730165,0.0427,0.0427,0,56,56,112,1,fivesix,,,,,,,,,,,,,,,,,,,,,,,,,,,,,,,,,,,,,,,,,,,,,,,,,,,,,,,,,,,,,,,,,,,,,,,,,,,,,,,,,,,,,,,,,,,,,,,,,,,,,,,,,,,,,,,,,,,,,,,,,,,,,,,,,,,,,,,,,
,,659d54e4e2c15f109cc1353d,2024-02-22_24h28.10.142,kallum_motion_pilot,2023.2.2,Win32,59.88023952,659d54e4e2c15f109cc1353d,65d6bb0e977760de756971f7,65d6bf2a0257de93fd730165,0.0428,0.0429,0,57,57,104,1,fivesix,,,,,,,,,,,,,,,,,,,,,,,,,,,,,,,,,,,,,,,,,,,,,,,,,,,,,,,,,,,,,,,,,,,,,,,,,,,,,,,,,,,,,,,,,,,,,,,,,,,,,,,,,,,,,,,,,,,,,,,,,,,,,,,,,,,,,,,,,
,,659d54e4e2c15f109cc1353d,2024-02-22_24h28.10.142,kallum_motion_pilot,2023.2.2,Win32,59.88023952,659d54e4e2c15f109cc1353d,65d6bb0e977760de756971f7,65d6bf2a0257de93fd730165,0.043,0.043,0,58,58,95,1,eightseven,,,,,,,,,,,,,,,,,,,,,,,,,,,,,,,,,,,,,,,,,,,,,,,,,,,,,,,,,,,,,,,,,,,,,,,,,,,,,,,,,,,,,,,,,,,,,,,,,,,,,,,,,,,,,,,,,,,,,,,,,,,,,,,,,,,,,,,,,
,,659d54e4e2c15f109cc1353d,2024-02-22_24h28.10.142,kallum_motion_pilot,2023.2.2,Win32,59.88023952,659d54e4e2c15f109cc1353d,65d6bb0e977760de756971f7,65d6bf2a0257de93fd730165,0.0432,0.0432,0,59,59,21,1,threefour,,,,,,,,,,,,,,,,,,,,,,,,,,,,,,,,,,,,,,,,,,,,,,,,,,,,,,,,,,,,,,,,,,,,,,,,,,,,,,,,,,,,,,,,,,,,,,,,,,,,,,,,,,,,,,,,,,,,,,,,,,,,,,,,,,,,,,,,,
,,659d54e4e2c15f109cc1353d,2024-02-22_24h28.10.142,kallum_motion_pilot,2023.2.2,Win32,59.88023952,659d54e4e2c15f109cc1353d,65d6bb0e977760de756971f7,65d6bf2a0257de93fd730165,0.0433,0.0433,0,60,60,86,1,eightsix,,,,,,,,,,,,,,,,,,,,,,,,,,,,,,,,,,,,,,,,,,,,,,,,,,,,,,,,,,,,,,,,,,,,,,,,,,,,,,,,,,,,,,,,,,,,,,,,,,,,,,,,,,,,,,,,,,,,,,,,,,,,,,,,,,,,,,,,,
,,659d54e4e2c15f109cc1353d,2024-02-22_24h28.10.142,kallum_motion_pilot,2023.2.2,Win32,59.88023952,659d54e4e2c15f109cc1353d,65d6bb0e977760de756971f7,65d6bf2a0257de93fd730165,0.0435,0.0435,0,61,61,124,1,sevenfive,,,,,,,,,,,,,,,,,,,,,,,,,,,,,,,,,,,,,,,,,,,,,,,,,,,,,,,,,,,,,,,,,,,,,,,,,,,,,,,,,,,,,,,,,,,,,,,,,,,,,,,,,,,,,,,,,,,,,,,,,,,,,,,,,,,,,,,,,
,,659d54e4e2c15f109cc1353d,2024-02-22_24h28.10.142,kallum_motion_pilot,2023.2.2,Win32,59.88023952,659d54e4e2c15f109cc1353d,65d6bb0e977760de756971f7,65d6bf2a0257de93fd730165,0.0436,0.0437,0,62,62,58,1,twoone,,,,,,,,,,,,,,,,,,,,,,,,,,,,,,,,,,,,,,,,,,,,,,,,,,,,,,,,,,,,,,,,,,,,,,,,,,,,,,,,,,,,,,,,,,,,,,,,,,,,,,,,,,,,,,,,,,,,,,,,,,,,,,,,,,,,,,,,,
,,659d54e4e2c15f109cc1353d,2024-02-22_24h28.10.142,kallum_motion_pilot,2023.2.2,Win32,59.88023952,659d54e4e2c15f109cc1353d,65d6bb0e977760de756971f7,65d6bf2a0257de93fd730165,0.0439,0.0439,0,63,63,93,1,seveneight,,,,,,,,,,,,,,,,,,,,,,,,,,,,,,,,,,,,,,,,,,,,,,,,,,,,,,,,,,,,,,,,,,,,,,,,,,,,,,,,,,,,,,,,,,,,,,,,,,,,,,,,,,,,,,,,,,,,,,,,,,,,,,,,,,,,,,,,,
,,659d54e4e2c15f109cc1353d,2024-02-22_24h28.10.142,kallum_motion_pilot,2023.2.2,Win32,59.88023952,659d54e4e2c15f109cc1353d,65d6bb0e977760de756971f7,65d6bf2a0257de93fd730165,0.044,0.0441,0,64,64,64,1,onetwo,,,,,,,,,,,,,,,,,,,,,,,,,,,,,,,,,,,,,,,,,,,,,,,,,,,,,,,,,,,,,,,,,,,,,,,,,,,,,,,,,,,,,,,,,,,,,,,,,,,,,,,,,,,,,,,,,,,,,,,,,,,,,,,,,,,,,,,,,
,,659d54e4e2c15f109cc1353d,2024-02-22_24h28.10.142,kallum_motion_pilot,2023.2.2,Win32,59.88023952,659d54e4e2c15f109cc1353d,65d6bb0e977760de756971f7,65d6bf2a0257de93fd730165,0.0442,0.0442,0,65,65,84,1,sevenfive,,,,,,,,,,,,,,,,,,,,,,,,,,,,,,,,,,,,,,,,,,,,,,,,,,,,,,,,,,,,,,,,,,,,,,,,,,,,,,,,,,,,,,,,,,,,,,,,,,,,,,,,,,,,,,,,,,,,,,,,,,,,,,,,,,,,,,,,,
,,659d54e4e2c15f109cc1353d,2024-02-22_24h28.10.142,kallum_motion_pilot,2023.2.2,Win32,59.88023952,659d54e4e2c15f109cc1353d,65d6bb0e977760de756971f7,65d6bf2a0257de93fd730165,0.0444,0.0444,0,66,66,135,1,eightseven,,,,,,,,,,,,,,,,,,,,,,,,,,,,,,,,,,,,,,,,,,,,,,,,,,,,,,,,,,,,,,,,,,,,,,,,,,,,,,,,,,,,,,,,,,,,,,,,,,,,,,,,,,,,,,,,,,,,,,,,,,,,,,,,,,,,,,,,,
,,659d54e4e2c15f109cc1353d,2024-02-22_24h28.10.142,kallum_motion_pilot,2023.2.2,Win32,59.88023952,659d54e4e2c15f109cc1353d,65d6bb0e977760de756971f7,65d6bf2a0257de93fd730165,0.0445,0.0446,0,67,67,110,1,eightsix,,,,,,,,,,,,,,,,,,,,,,,,,,,,,,,,,,,,,,,,,,,,,,,,,,,,,,,,,,,,,,,,,,,,,,,,,,,,,,,,,,,,,,,,,,,,,,,,,,,,,,,,,,,,,,,,,,,,,,,,,,,,,,,,,,,,,,,,,
,,659d54e4e2c15f109cc1353d,2024-02-22_24h28.10.142,kallum_motion_pilot,2023.2.2,Win32,59.88023952,659d54e4e2c15f109cc1353d,65d6bb0e977760de756971f7,65d6bf2a0257de93fd730165,0.0448,0.0448,0,68,68,47,1,fourthree,,,,,,,,,,,,,,,,,,,,,,,,,,,,,,,,,,,,,,,,,,,,,,,,,,,,,,,,,,,,,,,,,,,,,,,,,,,,,,,,,,,,,,,,,,,,,,,,,,,,,,,,,,,,,,,,,,,,,,,,,,,,,,,,,,,,,,,,,
,,659d54e4e2c15f109cc1353d,2024-02-22_24h28.10.142,kallum_motion_pilot,2023.2.2,Win32,59.88023952,659d54e4e2c15f109cc1353d,65d6bb0e977760de756971f7,65d6bf2a0257de93fd730165,0.045,0.045,0,69,69,66,1,twoone,,,,,,,,,,,,,,,,,,,,,,,,,,,,,,,,,,,,,,,,,,,,,,,,,,,,,,,,,,,,,,,,,,,,,,,,,,,,,,,,,,,,,,,,,,,,,,,,,,,,,,,,,,,,,,,,,,,,,,,,,,,,,,,,,,,,,,,,,
,,659d54e4e2c15f109cc1353d,2024-02-22_24h28.10.142,kallum_motion_pilot,2023.2.2,Win32,59.88023952,659d54e4e2c15f109cc1353d,65d6bb0e977760de756971f7,65d6bf2a0257de93fd730165,0.0451,0.0451,0,70,70,131,1,sixeight,,,,,,,,,,,,,,,,,,,,,,,,,,,,,,,,,,,,,,,,,,,,,,,,,,,,,,,,,,,,,,,,,,,,,,,,,,,,,,,,,,,,,,,,,,,,,,,,,,,,,,,,,,,,,,,,,,,,,,,,,,,,,,,,,,,,,,,,,
,,659d54e4e2c15f109cc1353d,2024-02-22_24h28.10.142,kallum_motion_pilot,2023.2.2,Win32,59.88023952,659d54e4e2c15f109cc1353d,65d6bb0e977760de756971f7,65d6bf2a0257de93fd730165,0.0452,0.0453,0,71,71,36,1,threeone,,,,,,,,,,,,,,,,,,,,,,,,,,,,,,,,,,,,,,,,,,,,,,,,,,,,,,,,,,,,,,,,,,,,,,,,,,,,,,,,,,,,,,,,,,,,,,,,,,,,,,,,,,,,,,,,,,,,,,,,,,,,,,,,,,,,,,,,,
,,659d54e4e2c15f109cc1353d,2024-02-22_24h28.10.142,kallum_motion_pilot,2023.2.2,Win32,59.88023952,659d54e4e2c15f109cc1353d,65d6bb0e977760de756971f7,65d6bf2a0257de93fd730165,0.0454,0.0455,0,72,72,22,1,fourtwo,,,,,,,,,,,,,,,,,,,,,,,,,,,,,,,,,,,,,,,,,,,,,,,,,,,,,,,,,,,,,,,,,,,,,,,,,,,,,,,,,,,,,,,,,,,,,,,,,,,,,,,,,,,,,,,,,,,,,,,,,,,,,,,,,,,,,,,,,
,,659d54e4e2c15f109cc1353d,2024-02-22_24h28.10.142,kallum_motion_pilot,2023.2.2,Win32,59.88023952,659d54e4e2c15f109cc1353d,65d6bb0e977760de756971f7,65d6bf2a0257de93fd730165,0.0457,0.0457,0,73,73,100,1,sevenfive,,,,,,,,,,,,,,,,,,,,,,,,,,,,,,,,,,,,,,,,,,,,,,,,,,,,,,,,,,,,,,,,,,,,,,,,,,,,,,,,,,,,,,,,,,,,,,,,,,,,,,,,,,,,,,,,,,,,,,,,,,,,,,,,,,,,,,,,,
,,659d54e4e2c15f109cc1353d,2024-02-22_24h28.10.142,kallum_motion_pilot,2023.2.2,Win32,59.88023952,659d54e4e2c15f109cc1353d,65d6bb0e977760de756971f7,65d6bf2a0257de93fd730165,0.0457,0.0459,0,74,74,32,1,onetwo,,,,,,,,,,,,,,,,,,,,,,,,,,,,,,,,,,,,,,,,,,,,,,,,,,,,,,,,,,,,,,,,,,,,,,,,,,,,,,,,,,,,,,,,,,,,,,,,,,,,,,,,,,,,,,,,,,,,,,,,,,,,,,,,,,,,,,,,,
,,659d54e4e2c15f109cc1353d,2024-02-22_24h28.10.142,kallum_motion_pilot,2023.2.2,Win32,59.88023952,659d54e4e2c15f109cc1353d,65d6bb0e977760de756971f7,65d6bf2a0257de93fd730165,0.0459,0.046,0,75,75,3,1,twofour,,,,,,,,,,,,,,,,,,,,,,,,,,,,,,,,,,,,,,,,,,,,,,,,,,,,,,,,,,,,,,,,,,,,,,,,,,,,,,,,,,,,,,,,,,,,,,,,,,,,,,,,,,,,,,,,,,,,,,,,,,,,,,,,,,,,,,,,,
,,659d54e4e2c15f109cc1353d,2024-02-22_24h28.10.142,kallum_motion_pilot,2023.2.2,Win32,59.88023952,659d54e4e2c15f109cc1353d,65d6bb0e977760de756971f7,65d6bf2a0257de93fd730165,0.0461,0.0461,0,76,76,61,1,threefour,,,,,,,,,,,,,,,,,,,,,,,,,,,,,,,,,,,,,,,,,,,,,,,,,,,,,,,,,,,,,,,,,,,,,,,,,,,,,,,,,,,,,,,,,,,,,,,,,,,,,,,,,,,,,,,,,,,,,,,,,,,,,,,,,,,,,,,,,
,,659d54e4e2c15f109cc1353d,2024-02-22_24h28.10.142,kallum_motion_pilot,2023.2.2,Win32,59.88023952,659d54e4e2c15f109cc1353d,65d6bb0e977760de756971f7,65d6bf2a0257de93fd730165,0.0463,0.0463,0,77,77,52,1,threeone,,,,,,,,,,,,,,,,,,,,,,,,,,,,,,,,,,,,,,,,,,,,,,,,,,,,,,,,,,,,,,,,,,,,,,,,,,,,,,,,,,,,,,,,,,,,,,,,,,,,,,,,,,,,,,,,,,,,,,,,,,,,,,,,,,,,,,,,,
,,659d54e4e2c15f109cc1353d,2024-02-22_24h28.10.142,kallum_motion_pilot,2023.2.2,Win32,59.88023952,659d54e4e2c15f109cc1353d,65d6bb0e977760de756971f7,65d6bf2a0257de93fd730165,0.0464,0.0465,0,78,78,137,1,fiveseven,,,,,,,,,,,,,,,,,,,,,,,,,,,,,,,,,,,,,,,,,,,,,,,,,,,,,,,,,,,,,,,,,,,,,,,,,,,,,,,,,,,,,,,,,,,,,,,,,,,,,,,,,,,,,,,,,,,,,,,,,,,,,,,,,,,,,,,,,
,,659d54e4e2c15f109cc1353d,2024-02-22_24h28.10.142,kallum_motion_pilot,2023.2.2,Win32,59.88023952,659d54e4e2c15f109cc1353d,65d6bb0e977760de756971f7,65d6bf2a0257de93fd730165,0.0466,0.0467,0,79,79,125,1,seveneight,,,,,,,,,,,,,,,,,,,,,,,,,,,,,,,,,,,,,,,,,,,,,,,,,,,,,,,,,,,,,,,,,,,,,,,,,,,,,,,,,,,,,,,,,,,,,,,,,,,,,,,,,,,,,,,,,,,,,,,,,,,,,,,,,,,,,,,,,
,,659d54e4e2c15f109cc1353d,2024-02-22_24h28.10.142,kallum_motion_pilot,2023.2.2,Win32,59.88023952,659d54e4e2c15f109cc1353d,65d6bb0e977760de756971f7,65d6bf2a0257de93fd730165,0.0469,0.0469,0,80,80,105,1,fiveseven,,,,,,,,,,,,,,,,,,,,,,,,,,,,,,,,,,,,,,,,,,,,,,,,,,,,,,,,,,,,,,,,,,,,,,,,,,,,,,,,,,,,,,,,,,,,,,,,,,,,,,,,,,,,,,,,,,,,,,,,,,,,,,,,,,,,,,,,,
,,659d54e4e2c15f109cc1353d,2024-02-22_24h28.10.142,kallum_motion_pilot,2023.2.2,Win32,59.88023952,659d54e4e2c15f109cc1353d,65d6bb0e977760de756971f7,65d6bf2a0257de93fd730165,0.0471,0.0472,0,81,81,41,1,onethree,,,,,,,,,,,,,,,,,,,,,,,,,,,,,,,,,,,,,,,,,,,,,,,,,,,,,,,,,,,,,,,,,,,,,,,,,,,,,,,,,,,,,,,,,,,,,,,,,,,,,,,,,,,,,,,,,,,,,,,,,,,,,,,,,,,,,,,,,
,,659d54e4e2c15f109cc1353d,2024-02-22_24h28.10.142,kallum_motion_pilot,2023.2.2,Win32,59.88023952,659d54e4e2c15f109cc1353d,65d6bb0e977760de756971f7,65d6bf2a0257de93fd730165,0.0473,0.0473,0,82,82,142,1,eightsix,,,,,,,,,,,,,,,,,,,,,,,,,,,,,,,,,,,,,,,,,,,,,,,,,,,,,,,,,,,,,,,,,,,,,,,,,,,,,,,,,,,,,,,,,,,,,,,,,,,,,,,,,,,,,,,,,,,,,,,,,,,,,,,,,,,,,,,,,
,,659d54e4e2c15f109cc1353d,2024-02-22_24h28.10.142,kallum_motion_pilot,2023.2.2,Win32,59.88023952,659d54e4e2c15f109cc1353d,65d6bb0e977760de756971f7,65d6bf2a0257de93fd730165,0.0476,0.0476,0,83,83,118,1,eightsix,,,,,,,,,,,,,,,,,,,,,,,,,,,,,,,,,,,,,,,,,,,,,,,,,,,,,,,,,,,,,,,,,,,,,,,,,,,,,,,,,,,,,,,,,,,,,,,,,,,,,,,,,,,,,,,,,,,,,,,,,,,,,,,,,,,,,,,,,
,,659d54e4e2c15f109cc1353d,2024-02-22_24h28.10.142,kallum_motion_pilot,2023.2.2,Win32,59.88023952,659d54e4e2c15f109cc1353d,65d6bb0e977760de756971f7,65d6bf2a0257de93fd730165,0.0477,0.0478,0,84,84,151,1,eightseven,,,,,,,,,,,,,,,,,,,,,,,,,,,,,,,,,,,,,,,,,,,,,,,,,,,,,,,,,,,,,,,,,,,,,,,,,,,,,,,,,,,,,,,,,,,,,,,,,,,,,,,,,,,,,,,,,,,,,,,,,,,,,,,,,,,,,,,,,
,,659d54e4e2c15f109cc1353d,2024-02-22_24h28.10.142,kallum_motion_pilot,2023.2.2,Win32,59.88023952,659d54e4e2c15f109cc1353d,65d6bb0e977760de756971f7,65d6bf2a0257de93fd730165,0.048,0.0481,0,85,85,51,1,twofour,,,,,,,,,,,,,,,,,,,,,,,,,,,,,,,,,,,,,,,,,,,,,,,,,,,,,,,,,,,,,,,,,,,,,,,,,,,,,,,,,,,,,,,,,,,,,,,,,,,,,,,,,,,,,,,,,,,,,,,,,,,,,,,,,,,,,,,,,
,,659d54e4e2c15f109cc1353d,2024-02-22_24h28.10.142,kallum_motion_pilot,2023.2.2,Win32,59.88023952,659d54e4e2c15f109cc1353d,65d6bb0e977760de756971f7,65d6bf2a0257de93fd730165,0.0483,0.0483,0,86,86,54,1,fourtwo,,,,,,,,,,,,,,,,,,,,,,,,,,,,,,,,,,,,,,,,,,,,,,,,,,,,,,,,,,,,,,,,,,,,,,,,,,,,,,,,,,,,,,,,,,,,,,,,,,,,,,,,,,,,,,,,,,,,,,,,,,,,,,,,,,,,,,,,,
,,659d54e4e2c15f109cc1353d,2024-02-22_24h28.10.142,kallum_motion_pilot,2023.2.2,Win32,59.88023952,659d54e4e2c15f109cc1353d,65d6bb0e977760de756971f7,65d6bf2a0257de93fd730165,0.0484,0.0486,0,87,87,96,1,fivesix,,,,,,,,,,,,,,,,,,,,,,,,,,,,,,,,,,,,,,,,,,,,,,,,,,,,,,,,,,,,,,,,,,,,,,,,,,,,,,,,,,,,,,,,,,,,,,,,,,,,,,,,,,,,,,,,,,,,,,,,,,,,,,,,,,,,,,,,,
,,659d54e4e2c15f109cc1353d,2024-02-22_24h28.10.142,kallum_motion_pilot,2023.2.2,Win32,59.88023952,659d54e4e2c15f109cc1353d,65d6bb0e977760de756971f7,65d6bf2a0257de93fd730165,0.0486,0.0487,0,88,88,13,1,threefour,,,,,,,,,,,,,,,,,,,,,,,,,,,,,,,,,,,,,,,,,,,,,,,,,,,,,,,,,,,,,,,,,,,,,,,,,,,,,,,,,,,,,,,,,,,,,,,,,,,,,,,,,,,,,,,,,,,,,,,,,,,,,,,,,,,,,,,,,
,,659d54e4e2c15f109cc1353d,2024-02-22_24h28.10.142,kallum_motion_pilot,2023.2.2,Win32,59.88023952,659d54e4e2c15f109cc1353d,65d6bb0e977760de756971f7,65d6bf2a0257de93fd730165,0.0489,0.049,0,89,89,79,1,eightseven,,,,,,,,,,,,,,,,,,,,,,,,,,,,,,,,,,,,,,,,,,,,,,,,,,,,,,,,,,,,,,,,,,,,,,,,,,,,,,,,,,,,,,,,,,,,,,,,,,,,,,,,,,,,,,,,,,,,,,,,,,,,,,,,,,,,,,,,,
,,659d54e4e2c15f109cc1353d,2024-02-22_24h28.10.142,kallum_motion_pilot,2023.2.2,Win32,59.88023952,659d54e4e2c15f109cc1353d,65d6bb0e977760de756971f7,65d6bf2a0257de93fd730165,0.0491,0.0492,0,90,90,126,1,eightsix,,,,,,,,,,,,,,,,,,,,,,,,,,,,,,,,,,,,,,,,,,,,,,,,,,,,,,,,,,,,,,,,,,,,,,,,,,,,,,,,,,,,,,,,,,,,,,,,,,,,,,,,,,,,,,,,,,,,,,,,,,,,,,,,,,,,,,,,,
,,659d54e4e2c15f109cc1353d,2024-02-22_24h28.10.142,kallum_motion_pilot,2023.2.2,Win32,59.88023952,659d54e4e2c15f109cc1353d,65d6bb0e977760de756971f7,65d6bf2a0257de93fd730165,0.0493,0.0494,0,91,91,23,1,fourthree,,,,,,,,,,,,,,,,,,,,,,,,,,,,,,,,,,,,,,,,,,,,,,,,,,,,,,,,,,,,,,,,,,,,,,,,,,,,,,,,,,,,,,,,,,,,,,,,,,,,,,,,,,,,,,,,,,,,,,,,,,,,,,,,,,,,,,,,,
,,659d54e4e2c15f109cc1353d,2024-02-22_24h28.10.142,kallum_motion_pilot,2023.2.2,Win32,59.88023952,659d54e4e2c15f109cc1353d,65d6bb0e977760de756971f7,65d6bf2a0257de93fd730165,0.0495,0.0496,0,92,92,121,1,fiveseven,,,,,,,,,,,,,,,,,,,,,,,,,,,,,,,,,,,,,,,,,,,,,,,,,,,,,,,,,,,,,,,,,,,,,,,,,,,,,,,,,,,,,,,,,,,,,,,,,,,,,,,,,,,,,,,,,,,,,,,,,,,,,,,,,,,,,,,,,
,,659d54e4e2c15f109cc1353d,2024-02-22_24h28.10.142,kallum_motion_pilot,2023.2.2,Win32,59.88023952,659d54e4e2c15f109cc1353d,65d6bb0e977760de756971f7,65d6bf2a0257de93fd730165,0.0498,0.0498,0,93,93,56,1,onetwo,,,,,,,,,,,,,,,,,,,,,,,,,,,,,,,,,,,,,,,,,,,,,,,,,,,,,,,,,,,,,,,,,,,,,,,,,,,,,,,,,,,,,,,,,,,,,,,,,,,,,,,,,,,,,,,,,,,,,,,,,,,,,,,,,,,,,,,,,
,,659d54e4e2c15f109cc1353d,2024-02-22_24h28.10.142,kallum_motion_pilot,2023.2.2,Win32,59.88023952,659d54e4e2c15f109cc1353d,65d6bb0e977760de756971f7,65d6bf2a0257de93fd730165,0.05,0.0501,0,94,94,99,1,sixeight,,,,,,,,,,,,,,,,,,,,,,,,,,,,,,,,,,,,,,,,,,,,,,,,,,,,,,,,,,,,,,,,,,,,,,,,,,,,,,,,,,,,,,,,,,,,,,,,,,,,,,,,,,,,,,,,,,,,,,,,,,,,,,,,,,,,,,,,,
,,659d54e4e2c15f109cc1353d,2024-02-22_24h28.10.142,kallum_motion_pilot,2023.2.2,Win32,59.88023952,659d54e4e2c15f109cc1353d,65d6bb0e977760de756971f7,65d6bf2a0257de93fd730165,0.0502,0.0503,0,95,95,48,1,onetwo,,,,,,,,,,,,,,,,,,,,,,,,,,,,,,,,,,,,,,,,,,,,,,,,,,,,,,,,,,,,,,,,,,,,,,,,,,,,,,,,,,,,,,,,,,,,,,,,,,,,,,,,,,,,,,,,,,,,,,,,,,,,,,,,,,,,,,,,,
,,659d54e4e2c15f109cc1353d,2024-02-22_24h28.10.142,kallum_motion_pilot,2023.2.2,Win32,59.88023952,659d54e4e2c15f109cc1353d,65d6bb0e977760de756971f7,65d6bf2a0257de93fd730165,0.0504,0.0504,0,96,96,92,1,sevenfive,,,,,,,,,,,,,,,,,,,,,,,,,,,,,,,,,,,,,,,,,,,,,,,,,,,,,,,,,,,,,,,,,,,,,,,,,,,,,,,,,,,,,,,,,,,,,,,,,,,,,,,,,,,,,,,,,,,,,,,,,,,,,,,,,,,,,,,,,
,,659d54e4e2c15f109cc1353d,2024-02-22_24h28.10.142,kallum_motion_pilot,2023.2.2,Win32,59.88023952,659d54e4e2c15f109cc1353d,65d6bb0e977760de756971f7,65d6bf2a0257de93fd730165,0.0505,0.0506,0,97,97,158,1,eightsix,,,,,,,,,,,,,,,,,,,,,,,,,,,,,,,,,,,,,,,,,,,,,,,,,,,,,,,,,,,,,,,,,,,,,,,,,,,,,,,,,,,,,,,,,,,,,,,,,,,,,,,,,,,,,,,,,,,,,,,,,,,,,,,,,,,,,,,,,
,,659d54e4e2c15f109cc1353d,2024-02-22_24h28.10.142,kallum_motion_pilot,2023.2.2,Win32,59.88023952,659d54e4e2c15f109cc1353d,65d6bb0e977760de756971f7,65d6bf2a0257de93fd730165,0.0507,0.0508,0,98,98,45,1,threefour,,,,,,,,,,,,,,,,,,,,,,,,,,,,,,,,,,,,,,,,,,,,,,,,,,,,,,,,,,,,,,,,,,,,,,,,,,,,,,,,,,,,,,,,,,,,,,,,,,,,,,,,,,,,,,,,,,,,,,,,,,,,,,,,,,,,,,,,,
,,659d54e4e2c15f109cc1353d,2024-02-22_24h28.10.142,kallum_motion_pilot,2023.2.2,Win32,59.88023952,659d54e4e2c15f109cc1353d,65d6bb0e977760de756971f7,65d6bf2a0257de93fd730165,0.0509,0.0509,0,99,99,24,1,onetwo,,,,,,,,,,,,,,,,,,,,,,,,,,,,,,,,,,,,,,,,,,,,,,,,,,,,,,,,,,,,,,,,,,,,,,,,,,,,,,,,,,,,,,,,,,,,,,,,,,,,,,,,,,,,,,,,,,,,,,,,,,,,,,,,,,,,,,,,,
,,659d54e4e2c15f109cc1353d,2024-02-22_24h28.10.142,kallum_motion_pilot,2023.2.2,Win32,59.88023952,659d54e4e2c15f109cc1353d,65d6bb0e977760de756971f7,65d6bf2a0257de93fd730165,0.0511,0.0511,0,100,100,91,1,sixeight,,,,,,,,,,,,,,,,,,,,,,,,,,,,,,,,,,,,,,,,,,,,,,,,,,,,,,,,,,,,,,,,,,,,,,,,,,,,,,,,,,,,,,,,,,,,,,,,,,,,,,,,,,,,,,,,,,,,,,,,,,,,,,,,,,,,,,,,,
,,659d54e4e2c15f109cc1353d,2024-02-22_24h28.10.142,kallum_motion_pilot,2023.2.2,Win32,59.88023952,659d54e4e2c15f109cc1353d,65d6bb0e977760de756971f7,65d6bf2a0257de93fd730165,0.0512,0.0513,0,101,101,50,1,twoone,,,,,,,,,,,,,,,,,,,,,,,,,,,,,,,,,,,,,,,,,,,,,,,,,,,,,,,,,,,,,,,,,,,,,,,,,,,,,,,,,,,,,,,,,,,,,,,,,,,,,,,,,,,,,,,,,,,,,,,,,,,,,,,,,,,,,,,,,
,,659d54e4e2c15f109cc1353d,2024-02-22_24h28.10.142,kallum_motion_pilot,2023.2.2,Win32,59.88023952,659d54e4e2c15f109cc1353d,65d6bb0e977760de756971f7,65d6bf2a0257de93fd730165,0.0515,0.0515,0,102,102,143,1,eightseven,,,,,,,,,,,,,,,,,,,,,,,,,,,,,,,,,,,,,,,,,,,,,,,,,,,,,,,,,,,,,,,,,,,,,,,,,,,,,,,,,,,,,,,,,,,,,,,,,,,,,,,,,,,,,,,,,,,,,,,,,,,,,,,,,,,,,,,,,
,,659d54e4e2c15f109cc1353d,2024-02-22_24h28.10.142,kallum_motion_pilot,2023.2.2,Win32,59.88023952,659d54e4e2c15f109cc1353d,65d6bb0e977760de756971f7,65d6bf2a0257de93fd730165,0.0516,0.0518,0,103,103,98,1,sixfive,,,,,,,,,,,,,,,,,,,,,,,,,,,,,,,,,,,,,,,,,,,,,,,,,,,,,,,,,,,,,,,,,,,,,,,,,,,,,,,,,,,,,,,,,,,,,,,,,,,,,,,,,,,,,,,,,,,,,,,,,,,,,,,,,,,,,,,,,
,,659d54e4e2c15f109cc1353d,2024-02-22_24h28.10.142,kallum_motion_pilot,2023.2.2,Win32,59.88023952,659d54e4e2c15f109cc1353d,65d6bb0e977760de756971f7,65d6bf2a0257de93fd730165,0.0518,0.0519,0,104,104,78,1,fourtwo,,,,,,,,,,,,,,,,,,,,,,,,,,,,,,,,,,,,,,,,,,,,,,,,,,,,,,,,,,,,,,,,,,,,,,,,,,,,,,,,,,,,,,,,,,,,,,,,,,,,,,,,,,,,,,,,,,,,,,,,,,,,,,,,,,,,,,,,,
,,659d54e4e2c15f109cc1353d,2024-02-22_24h28.10.142,kallum_motion_pilot,2023.2.2,Win32,59.88023952,659d54e4e2c15f109cc1353d,65d6bb0e977760de756971f7,65d6bf2a0257de93fd730165,0.052,0.052,0,105,105,53,1,threefour,,,,,,,,,,,,,,,,,,,,,,,,,,,,,,,,,,,,,,,,,,,,,,,,,,,,,,,,,,,,,,,,,,,,,,,,,,,,,,,,,,,,,,,,,,,,,,,,,,,,,,,,,,,,,,,,,,,,,,,,,,,,,,,,,,,,,,,,,
,,659d54e4e2c15f109cc1353d,2024-02-22_24h28.10.142,kallum_motion_pilot,2023.2.2,Win32,59.88023952,659d54e4e2c15f109cc1353d,65d6bb0e977760de756971f7,65d6bf2a0257de93fd730165,0.0522,0.0523,0,106,106,77,1,threefour,,,,,,,,,,,,,,,,,,,,,,,,,,,,,,,,,,,,,,,,,,,,,,,,,,,,,,,,,,,,,,,,,,,,,,,,,,,,,,,,,,,,,,,,,,,,,,,,,,,,,,,,,,,,,,,,,,,,,,,,,,,,,,,,,,,,,,,,,
,,659d54e4e2c15f109cc1353d,2024-02-22_24h28.10.142,kallum_motion_pilot,2023.2.2,Win32,59.88023952,659d54e4e2c15f109cc1353d,65d6bb0e977760de756971f7,65d6bf2a0257de93fd730165,0.0524,0.0525,0,107,107,35,1,twofour,,,,,,,,,,,,,,,,,,,,,,,,,,,,,,,,,,,,,,,,,,,,,,,,,,,,,,,,,,,,,,,,,,,,,,,,,,,,,,,,,,,,,,,,,,,,,,,,,,,,,,,,,,,,,,,,,,,,,,,,,,,,,,,,,,,,,,,,,
,,659d54e4e2c15f109cc1353d,2024-02-22_24h28.10.142,kallum_motion_pilot,2023.2.2,Win32,59.88023952,659d54e4e2c15f109cc1353d,65d6bb0e977760de756971f7,65d6bf2a0257de93fd730165,0.0526,0.0526,0,108,108,140,1,sevenfive,,,,,,,,,,,,,,,,,,,,,,,,,,,,,,,,,,,,,,,,,,,,,,,,,,,,,,,,,,,,,,,,,,,,,,,,,,,,,,,,,,,,,,,,,,,,,,,,,,,,,,,,,,,,,,,,,,,,,,,,,,,,,,,,,,,,,,,,,
,,659d54e4e2c15f109cc1353d,2024-02-22_24h28.10.142,kallum_motion_pilot,2023.2.2,Win32,59.88023952,659d54e4e2c15f109cc1353d,65d6bb0e977760de756971f7,65d6bf2a0257de93fd730165,0.0527,0.0533,0,109,109,87,1,eightseven,,,,,,,,,,,,,,,,,,,,,,,,,,,,,,,,,,,,,,,,,,,,,,,,,,,,,,,,,,,,,,,,,,,,,,,,,,,,,,,,,,,,,,,,,,,,,,,,,,,,,,,,,,,,,,,,,,,,,,,,,,,,,,,,,,,,,,,,,
,,659d54e4e2c15f109cc1353d,2024-02-22_24h28.10.142,kallum_motion_pilot,2023.2.2,Win32,59.88023952,659d54e4e2c15f109cc1353d,65d6bb0e977760de756971f7,65d6bf2a0257de93fd730165,0.0536,0.0538,0,110,110,76,1,threeone,,,,,,,,,,,,,,,,,,,,,,,,,,,,,,,,,,,,,,,,,,,,,,,,,,,,,,,,,,,,,,,,,,,,,,,,,,,,,,,,,,,,,,,,,,,,,,,,,,,,,,,,,,,,,,,,,,,,,,,,,,,,,,,,,,,,,,,,,
,,659d54e4e2c15f109cc1353d,2024-02-22_24h28.10.142,kallum_motion_pilot,2023.2.2,Win32,59.88023952,659d54e4e2c15f109cc1353d,65d6bb0e977760de756971f7,65d6bf2a0257de93fd730165,0.0541,0.0541,0,111,111,149,1,seveneight,,,,,,,,,,,,,,,,,,,,,,,,,,,,,,,,,,,,,,,,,,,,,,,,,,,,,,,,,,,,,,,,,,,,,,,,,,,,,,,,,,,,,,,,,,,,,,,,,,,,,,,,,,,,,,,,,,,,,,,,,,,,,,,,,,,,,,,,,
,,659d54e4e2c15f109cc1353d,2024-02-22_24h28.10.142,kallum_motion_pilot,2023.2.2,Win32,59.88023952,659d54e4e2c15f109cc1353d,65d6bb0e977760de756971f7,65d6bf2a0257de93fd730165,0.0543,0.0543,0,112,112,82,1,sixfive,,,,,,,,,,,,,,,,,,,,,,,,,,,,,,,,,,,,,,,,,,,,,,,,,,,,,,,,,,,,,,,,,,,,,,,,,,,,,,,,,,,,,,,,,,,,,,,,,,,,,,,,,,,,,,,,,,,,,,,,,,,,,,,,,,,,,,,,,
,,659d54e4e2c15f109cc1353d,2024-02-22_24h28.10.142,kallum_motion_pilot,2023.2.2,Win32,59.88023952,659d54e4e2c15f109cc1353d,65d6bb0e977760de756971f7,65d6bf2a0257de93fd730165,0.0545,0.0546,0,113,113,1,1,onethree,,,,,,,,,,,,,,,,,,,,,,,,,,,,,,,,,,,,,,,,,,,,,,,,,,,,,,,,,,,,,,,,,,,,,,,,,,,,,,,,,,,,,,,,,,,,,,,,,,,,,,,,,,,,,,,,,,,,,,,,,,,,,,,,,,,,,,,,,
,,659d54e4e2c15f109cc1353d,2024-02-22_24h28.10.142,kallum_motion_pilot,2023.2.2,Win32,59.88023952,659d54e4e2c15f109cc1353d,65d6bb0e977760de756971f7,65d6bf2a0257de93fd730165,0.0547,0.0547,0,114,114,145,1,fiveseven,,,,,,,,,,,,,,,,,,,,,,,,,,,,,,,,,,,,,,,,,,,,,,,,,,,,,,,,,,,,,,,,,,,,,,,,,,,,,,,,,,,,,,,,,,,,,,,,,,,,,,,,,,,,,,,,,,,,,,,,,,,,,,,,,,,,,,,,,
,,659d54e4e2c15f109cc1353d,2024-02-22_24h28.10.142,kallum_motion_pilot,2023.2.2,Win32,59.88023952,659d54e4e2c15f109cc1353d,65d6bb0e977760de756971f7,65d6bf2a0257de93fd730165,0.0549,0.0549,0,115,115,139,1,sixeight,,,,,,,,,,,,,,,,,,,,,,,,,,,,,,,,,,,,,,,,,,,,,,,,,,,,,,,,,,,,,,,,,,,,,,,,,,,,,,,,,,,,,,,,,,,,,,,,,,,,,,,,,,,,,,,,,,,,,,,,,,,,,,,,,,,,,,,,,
,,659d54e4e2c15f109cc1353d,2024-02-22_24h28.10.142,kallum_motion_pilot,2023.2.2,Win32,59.88023952,659d54e4e2c15f109cc1353d,65d6bb0e977760de756971f7,65d6bf2a0257de93fd730165,0.0551,0.0551,0,116,116,127,1,eightseven,,,,,,,,,,,,,,,,,,,,,,,,,,,,,,,,,,,,,,,,,,,,,,,,,,,,,,,,,,,,,,,,,,,,,,,,,,,,,,,,,,,,,,,,,,,,,,,,,,,,,,,,,,,,,,,,,,,,,,,,,,,,,,,,,,,,,,,,,
,,659d54e4e2c15f109cc1353d,2024-02-22_24h28.10.142,kallum_motion_pilot,2023.2.2,Win32,59.88023952,659d54e4e2c15f109cc1353d,65d6bb0e977760de756971f7,65d6bf2a0257de93fd730165,0.0553,0.0553,0,117,117,102,1,eightsix,,,,,,,,,,,,,,,,,,,,,,,,,,,,,,,,,,,,,,,,,,,,,,,,,,,,,,,,,,,,,,,,,,,,,,,,,,,,,,,,,,,,,,,,,,,,,,,,,,,,,,,,,,,,,,,,,,,,,,,,,,,,,,,,,,,,,,,,,
,,659d54e4e2c15f109cc1353d,2024-02-22_24h28.10.142,kallum_motion_pilot,2023.2.2,Win32,59.88023952,659d54e4e2c15f109cc1353d,65d6bb0e977760de756971f7,65d6bf2a0257de93fd730165,0.0555,0.0555,0,118,118,16,1,onetwo,,,,,,,,,,,,,,,,,,,,,,,,,,,,,,,,,,,,,,,,,,,,,,,,,,,,,,,,,,,,,,,,,,,,,,,,,,,,,,,,,,,,,,,,,,,,,,,,,,,,,,,,,,,,,,,,,,,,,,,,,,,,,,,,,,,,,,,,,
,,659d54e4e2c15f109cc1353d,2024-02-22_24h28.10.142,kallum_motion_pilot,2023.2.2,Win32,59.88023952,659d54e4e2c15f109cc1353d,65d6bb0e977760de756971f7,65d6bf2a0257de93fd730165,0.0556,0.0557,0,119,119,12,1,threeone,,,,,,,,,,,,,,,,,,,,,,,,,,,,,,,,,,,,,,,,,,,,,,,,,,,,,,,,,,,,,,,,,,,,,,,,,,,,,,,,,,,,,,,,,,,,,,,,,,,,,,,,,,,,,,,,,,,,,,,,,,,,,,,,,,,,,,,,,
,,659d54e4e2c15f109cc1353d,2024-02-22_24h28.10.142,kallum_motion_pilot,2023.2.2,Win32,59.88023952,659d54e4e2c15f109cc1353d,65d6bb0e977760de756971f7,65d6bf2a0257de93fd730165,0.0558,0.0559,0,120,120,116,1,sevenfive,,,,,,,,,,,,,,,,,,,,,,,,,,,,,,,,,,,,,,,,,,,,,,,,,,,,,,,,,,,,,,,,,,,,,,,,,,,,,,,,,,,,,,,,,,,,,,,,,,,,,,,,,,,,,,,,,,,,,,,,,,,,,,,,,,,,,,,,,
,,659d54e4e2c15f109cc1353d,2024-02-22_24h28.10.142,kallum_motion_pilot,2023.2.2,Win32,59.88023952,659d54e4e2c15f109cc1353d,65d6bb0e977760de756971f7,65d6bf2a0257de93fd730165,0.056,0.056,0,121,121,6,1,fourtwo,,,,,,,,,,,,,,,,,,,,,,,,,,,,,,,,,,,,,,,,,,,,,,,,,,,,,,,,,,,,,,,,,,,,,,,,,,,,,,,,,,,,,,,,,,,,,,,,,,,,,,,,,,,,,,,,,,,,,,,,,,,,,,,,,,,,,,,,,
,,659d54e4e2c15f109cc1353d,2024-02-22_24h28.10.142,kallum_motion_pilot,2023.2.2,Win32,59.88023952,659d54e4e2c15f109cc1353d,65d6bb0e977760de756971f7,65d6bf2a0257de93fd730165,0.0562,0.0562,0,122,122,20,1,threeone,,,,,,,,,,,,,,,,,,,,,,,,,,,,,,,,,,,,,,,,,,,,,,,,,,,,,,,,,,,,,,,,,,,,,,,,,,,,,,,,,,,,,,,,,,,,,,,,,,,,,,,,,,,,,,,,,,,,,,,,,,,,,,,,,,,,,,,,,
,,659d54e4e2c15f109cc1353d,2024-02-22_24h28.10.142,kallum_motion_pilot,2023.2.2,Win32,59.88023952,659d54e4e2c15f109cc1353d,65d6bb0e977760de756971f7,65d6bf2a0257de93fd730165,0.0564,0.0564,0,123,123,161,1,fiveseven,,,,,,,,,,,,,,,,,,,,,,,,,,,,,,,,,,,,,,,,,,,,,,,,,,,,,,,,,,,,,,,,,,,,,,,,,,,,,,,,,,,,,,,,,,,,,,,,,,,,,,,,,,,,,,,,,,,,,,,,,,,,,,,,,,,,,,,,,
,,659d54e4e2c15f109cc1353d,2024-02-22_24h28.10.142,kallum_motion_pilot,2023.2.2,Win32,59.88023952,659d54e4e2c15f109cc1353d,65d6bb0e977760de756971f7,65d6bf2a0257de93fd730165,0.0565,0.0566,0,124,124,17,1,onethree,,,,,,,,,,,,,,,,,,,,,,,,,,,,,,,,,,,,,,,,,,,,,,,,,,,,,,,,,,,,,,,,,,,,,,,,,,,,,,,,,,,,,,,,,,,,,,,,,,,,,,,,,,,,,,,,,,,,,,,,,,,,,,,,,,,,,,,,,
,,659d54e4e2c15f109cc1353d,2024-02-22_24h28.10.142,kallum_motion_pilot,2023.2.2,Win32,59.88023952,659d54e4e2c15f109cc1353d,65d6bb0e977760de756971f7,65d6bf2a0257de93fd730165,0.0568,0.0568,0,125,125,55,1,fourthree,,,,,,,,,,,,,,,,,,,,,,,,,,,,,,,,,,,,,,,,,,,,,,,,,,,,,,,,,,,,,,,,,,,,,,,,,,,,,,,,,,,,,,,,,,,,,,,,,,,,,,,,,,,,,,,,,,,,,,,,,,,,,,,,,,,,,,,,,
,,659d54e4e2c15f109cc1353d,2024-02-22_24h28.10.142,kallum_motion_pilot,2023.2.2,Win32,59.88023952,659d54e4e2c15f109cc1353d,65d6bb0e977760de756971f7,65d6bf2a0257de93fd730165,0.057,0.0571,0,126,126,15,1,fourthree,,,,,,,,,,,,,,,,,,,,,,,,,,,,,,,,,,,,,,,,,,,,,,,,,,,,,,,,,,,,,,,,,,,,,,,,,,,,,,,,,,,,,,,,,,,,,,,,,,,,,,,,,,,,,,,,,,,,,,,,,,,,,,,,,,,,,,,,,
,,659d54e4e2c15f109cc1353d,2024-02-22_24h28.10.142,kallum_motion_pilot,2023.2.2,Win32,59.88023952,659d54e4e2c15f109cc1353d,65d6bb0e977760de756971f7,65d6bf2a0257de93fd730165,0.0572,0.0572,0,127,127,4,1,threeone,,,,,,,,,,,,,,,,,,,,,,,,,,,,,,,,,,,,,,,,,,,,,,,,,,,,,,,,,,,,,,,,,,,,,,,,,,,,,,,,,,,,,,,,,,,,,,,,,,,,,,,,,,,,,,,,,,,,,,,,,,,,,,,,,,,,,,,,,
,,659d54e4e2c15f109cc1353d,2024-02-22_24h28.10.142,kallum_motion_pilot,2023.2.2,Win32,59.88023952,659d54e4e2c15f109cc1353d,65d6bb0e977760de756971f7,65d6bf2a0257de93fd730165,0.0573,0.0574,0,128,128,114,1,sixfive,,,,,,,,,,,,,,,,,,,,,,,,,,,,,,,,,,,,,,,,,,,,,,,,,,,,,,,,,,,,,,,,,,,,,,,,,,,,,,,,,,,,,,,,,,,,,,,,,,,,,,,,,,,,,,,,,,,,,,,,,,,,,,,,,,,,,,,,,
,,659d54e4e2c15f109cc1353d,2024-02-22_24h28.10.142,kallum_motion_pilot,2023.2.2,Win32,59.88023952,659d54e4e2c15f109cc1353d,65d6bb0e977760de756971f7,65d6bf2a0257de93fd730165,0.0575,0.0577,0,129,129,37,1,threefour,,,,,,,,,,,,,,,,,,,,,,,,,,,,,,,,,,,,,,,,,,,,,,,,,,,,,,,,,,,,,,,,,,,,,,,,,,,,,,,,,,,,,,,,,,,,,,,,,,,,,,,,,,,,,,,,,,,,,,,,,,,,,,,,,,,,,,,,,
,,659d54e4e2c15f109cc1353d,2024-02-22_24h28.10.142,kallum_motion_pilot,2023.2.2,Win32,59.88023952,659d54e4e2c15f109cc1353d,65d6bb0e977760de756971f7,65d6bf2a0257de93fd730165,0.0578,0.0578,0,130,130,65,1,onethree,,,,,,,,,,,,,,,,,,,,,,,,,,,,,,,,,,,,,,,,,,,,,,,,,,,,,,,,,,,,,,,,,,,,,,,,,,,,,,,,,,,,,,,,,,,,,,,,,,,,,,,,,,,,,,,,,,,,,,,,,,,,,,,,,,,,,,,,,
,,659d54e4e2c15f109cc1353d,2024-02-22_24h28.10.142,kallum_motion_pilot,2023.2.2,Win32,59.88023952,659d54e4e2c15f109cc1353d,65d6bb0e977760de756971f7,65d6bf2a0257de93fd730165,0.0579,0.058,0,131,131,28,1,threeone,,,,,,,,,,,,,,,,,,,,,,,,,,,,,,,,,,,,,,,,,,,,,,,,,,,,,,,,,,,,,,,,,,,,,,,,,,,,,,,,,,,,,,,,,,,,,,,,,,,,,,,,,,,,,,,,,,,,,,,,,,,,,,,,,,,,,,,,,
,,659d54e4e2c15f109cc1353d,2024-02-22_24h28.10.142,kallum_motion_pilot,2023.2.2,Win32,59.88023952,659d54e4e2c15f109cc1353d,65d6bb0e977760de756971f7,65d6bf2a0257de93fd730165,0.0582,0.0583,0,132,132,39,1,fourthree,,,,,,,,,,,,,,,,,,,,,,,,,,,,,,,,,,,,,,,,,,,,,,,,,,,,,,,,,,,,,,,,,,,,,,,,,,,,,,,,,,,,,,,,,,,,,,,,,,,,,,,,,,,,,,,,,,,,,,,,,,,,,,,,,,,,,,,,,
,,659d54e4e2c15f109cc1353d,2024-02-22_24h28.10.142,kallum_motion_pilot,2023.2.2,Win32,59.88023952,659d54e4e2c15f109cc1353d,65d6bb0e977760de756971f7,65d6bf2a0257de93fd730165,0.0584,0.0585,0,133,133,157,1,seveneight,,,,,,,,,,,,,,,,,,,,,,,,,,,,,,,,,,,,,,,,,,,,,,,,,,,,,,,,,,,,,,,,,,,,,,,,,,,,,,,,,,,,,,,,,,,,,,,,,,,,,,,,,,,,,,,,,,,,,,,,,,,,,,,,,,,,,,,,,
,,659d54e4e2c15f109cc1353d,2024-02-22_24h28.10.142,kallum_motion_pilot,2023.2.2,Win32,59.88023952,659d54e4e2c15f109cc1353d,65d6bb0e977760de756971f7,65d6bf2a0257de93fd730165,0.0587,0.0587,0,134,134,146,1,sixfive,,,,,,,,,,,,,,,,,,,,,,,,,,,,,,,,,,,,,,,,,,,,,,,,,,,,,,,,,,,,,,,,,,,,,,,,,,,,,,,,,,,,,,,,,,,,,,,,,,,,,,,,,,,,,,,,,,,,,,,,,,,,,,,,,,,,,,,,,
,,659d54e4e2c15f109cc1353d,2024-02-22_24h28.10.142,kallum_motion_pilot,2023.2.2,Win32,59.88023952,659d54e4e2c15f109cc1353d,65d6bb0e977760de756971f7,65d6bf2a0257de93fd730165,0.0589,0.0589,0,135,135,72,1,onetwo,,,,,,,,,,,,,,,,,,,,,,,,,,,,,,,,,,,,,,,,,,,,,,,,,,,,,,,,,,,,,,,,,,,,,,,,,,,,,,,,,,,,,,,,,,,,,,,,,,,,,,,,,,,,,,,,,,,,,,,,,,,,,,,,,,,,,,,,,
,,659d54e4e2c15f109cc1353d,2024-02-22_24h28.10.142,kallum_motion_pilot,2023.2.2,Win32,59.88023952,659d54e4e2c15f109cc1353d,65d6bb0e977760de756971f7,65d6bf2a0257de93fd730165,0.059,0.0591,0,136,136,89,1,fiveseven,,,,,,,,,,,,,,,,,,,,,,,,,,,,,,,,,,,,,,,,,,,,,,,,,,,,,,,,,,,,,,,,,,,,,,,,,,,,,,,,,,,,,,,,,,,,,,,,,,,,,,,,,,,,,,,,,,,,,,,,,,,,,,,,,,,,,,,,,
,,659d54e4e2c15f109cc1353d,2024-02-22_24h28.10.142,kallum_motion_pilot,2023.2.2,Win32,59.88023952,659d54e4e2c15f109cc1353d,65d6bb0e977760de756971f7,65d6bf2a0257de93fd730165,0.0592,0.0593,0,137,137,103,1,eightseven,,,,,,,,,,,,,,,,,,,,,,,,,,,,,,,,,,,,,,,,,,,,,,,,,,,,,,,,,,,,,,,,,,,,,,,,,,,,,,,,,,,,,,,,,,,,,,,,,,,,,,,,,,,,,,,,,,,,,,,,,,,,,,,,,,,,,,,,,
,,659d54e4e2c15f109cc1353d,2024-02-22_24h28.10.142,kallum_motion_pilot,2023.2.2,Win32,59.88023952,659d54e4e2c15f109cc1353d,65d6bb0e977760de756971f7,65d6bf2a0257de93fd730165,0.0594,0.0595,0,138,138,109,1,seveneight,,,,,,,,,,,,,,,,,,,,,,,,,,,,,,,,,,,,,,,,,,,,,,,,,,,,,,,,,,,,,,,,,,,,,,,,,,,,,,,,,,,,,,,,,,,,,,,,,,,,,,,,,,,,,,,,,,,,,,,,,,,,,,,,,,,,,,,,,
,,659d54e4e2c15f109cc1353d,2024-02-22_24h28.10.142,kallum_motion_pilot,2023.2.2,Win32,59.88023952,659d54e4e2c15f109cc1353d,65d6bb0e977760de756971f7,65d6bf2a0257de93fd730165,0.0596,0.0597,0,139,139,160,1,fivesix,,,,,,,,,,,,,,,,,,,,,,,,,,,,,,,,,,,,,,,,,,,,,,,,,,,,,,,,,,,,,,,,,,,,,,,,,,,,,,,,,,,,,,,,,,,,,,,,,,,,,,,,,,,,,,,,,,,,,,,,,,,,,,,,,,,,,,,,,
,,659d54e4e2c15f109cc1353d,2024-02-22_24h28.10.142,kallum_motion_pilot,2023.2.2,Win32,59.88023952,659d54e4e2c15f109cc1353d,65d6bb0e977760de756971f7,65d6bf2a0257de93fd730165,0.0598,0.0598,0,140,140,128,1,fivesix,,,,,,,,,,,,,,,,,,,,,,,,,,,,,,,,,,,,,,,,,,,,,,,,,,,,,,,,,,,,,,,,,,,,,,,,,,,,,,,,,,,,,,,,,,,,,,,,,,,,,,,,,,,,,,,,,,,,,,,,,,,,,,,,,,,,,,,,,
,,659d54e4e2c15f109cc1353d,2024-02-22_24h28.10.142,kallum_motion_pilot,2023.2.2,Win32,59.88023952,659d54e4e2c15f109cc1353d,65d6bb0e977760de756971f7,65d6bf2a0257de93fd730165,0.06,0.06,0,141,141,138,1,sixfive,,,,,,,,,,,,,,,,,,,,,,,,,,,,,,,,,,,,,,,,,,,,,,,,,,,,,,,,,,,,,,,,,,,,,,,,,,,,,,,,,,,,,,,,,,,,,,,,,,,,,,,,,,,,,,,,,,,,,,,,,,,,,,,,,,,,,,,,,
,,659d54e4e2c15f109cc1353d,2024-02-22_24h28.10.142,kallum_motion_pilot,2023.2.2,Win32,59.88023952,659d54e4e2c15f109cc1353d,65d6bb0e977760de756971f7,65d6bf2a0257de93fd730165,0.0601,0.0602,0,142,142,117,1,seveneight,,,,,,,,,,,,,,,,,,,,,,,,,,,,,,,,,,,,,,,,,,,,,,,,,,,,,,,,,,,,,,,,,,,,,,,,,,,,,,,,,,,,,,,,,,,,,,,,,,,,,,,,,,,,,,,,,,,,,,,,,,,,,,,,,,,,,,,,,
,,659d54e4e2c15f109cc1353d,2024-02-22_24h28.10.142,kallum_motion_pilot,2023.2.2,Win32,59.88023952,659d54e4e2c15f109cc1353d,65d6bb0e977760de756971f7,65d6bf2a0257de93fd730165,0.0603,0.0604,0,143,143,25,1,onethree,,,,,,,,,,,,,,,,,,,,,,,,,,,,,,,,,,,,,,,,,,,,,,,,,,,,,,,,,,,,,,,,,,,,,,,,,,,,,,,,,,,,,,,,,,,,,,,,,,,,,,,,,,,,,,,,,,,,,,,,,,,,,,,,,,,,,,,,,
,,659d54e4e2c15f109cc1353d,2024-02-22_24h28.10.142,kallum_motion_pilot,2023.2.2,Win32,59.88023952,659d54e4e2c15f109cc1353d,65d6bb0e977760de756971f7,65d6bf2a0257de93fd730165,0.0605,0.0606,0,144,144,46,1,fourtwo,,,,,,,,,,,,,,,,,,,,,,,,,,,,,,,,,,,,,,,,,,,,,,,,,,,,,,,,,,,,,,,,,,,,,,,,,,,,,,,,,,,,,,,,,,,,,,,,,,,,,,,,,,,,,,,,,,,,,,,,,,,,,,,,,,,,,,,,,
,,659d54e4e2c15f109cc1353d,2024-02-22_24h28.10.142,kallum_motion_pilot,2023.2.2,Win32,59.88023952,659d54e4e2c15f109cc1353d,65d6bb0e977760de756971f7,65d6bf2a0257de93fd730165,0.0608,0.0608,0,145,145,134,1,eightsix,,,,,,,,,,,,,,,,,,,,,,,,,,,,,,,,,,,,,,,,,,,,,,,,,,,,,,,,,,,,,,,,,,,,,,,,,,,,,,,,,,,,,,,,,,,,,,,,,,,,,,,,,,,,,,,,,,,,,,,,,,,,,,,,,,,,,,,,,
,,659d54e4e2c15f109cc1353d,2024-02-22_24h28.10.142,kallum_motion_pilot,2023.2.2,Win32,59.88023952,659d54e4e2c15f109cc1353d,65d6bb0e977760de756971f7,65d6bf2a0257de93fd730165,0.061,0.061,0,146,146,27,1,twofour,,,,,,,,,,,,,,,,,,,,,,,,,,,,,,,,,,,,,,,,,,,,,,,,,,,,,,,,,,,,,,,,,,,,,,,,,,,,,,,,,,,,,,,,,,,,,,,,,,,,,,,,,,,,,,,,,,,,,,,,,,,,,,,,,,,,,,,,,
,,659d54e4e2c15f109cc1353d,2024-02-22_24h28.10.142,kallum_motion_pilot,2023.2.2,Win32,59.88023952,659d54e4e2c15f109cc1353d,65d6bb0e977760de756971f7,65d6bf2a0257de93fd730165,0.0611,0.0612,0,147,147,68,1,threeone,,,,,,,,,,,,,,,,,,,,,,,,,,,,,,,,,,,,,,,,,,,,,,,,,,,,,,,,,,,,,,,,,,,,,,,,,,,,,,,,,,,,,,,,,,,,,,,,,,,,,,,,,,,,,,,,,,,,,,,,,,,,,,,,,,,,,,,,,
,,659d54e4e2c15f109cc1353d,2024-02-22_24h28.10.142,kallum_motion_pilot,2023.2.2,Win32,59.88023952,659d54e4e2c15f109cc1353d,65d6bb0e977760de756971f7,65d6bf2a0257de93fd730165,0.0613,0.0614,0,148,148,38,1,fourtwo,,,,,,,,,,,,,,,,,,,,,,,,,,,,,,,,,,,,,,,,,,,,,,,,,,,,,,,,,,,,,,,,,,,,,,,,,,,,,,,,,,,,,,,,,,,,,,,,,,,,,,,,,,,,,,,,,,,,,,,,,,,,,,,,,,,,,,,,,
,,659d54e4e2c15f109cc1353d,2024-02-22_24h28.10.142,kallum_motion_pilot,2023.2.2,Win32,59.88023952,659d54e4e2c15f109cc1353d,65d6bb0e977760de756971f7,65d6bf2a0257de93fd730165,0.0615,0.0616,0,149,149,120,1,fivesix,,,,,,,,,,,,,,,,,,,,,,,,,,,,,,,,,,,,,,,,,,,,,,,,,,,,,,,,,,,,,,,,,,,,,,,,,,,,,,,,,,,,,,,,,,,,,,,,,,,,,,,,,,,,,,,,,,,,,,,,,,,,,,,,,,,,,,,,,
,,659d54e4e2c15f109cc1353d,2024-02-22_24h28.10.142,kallum_motion_pilot,2023.2.2,Win32,59.88023952,659d54e4e2c15f109cc1353d,65d6bb0e977760de756971f7,65d6bf2a0257de93fd730165,0.0617,0.0617,0,150,150,159,1,eightseven,,,,,,,,,,,,,,,,,,,,,,,,,,,,,,,,,,,,,,,,,,,,,,,,,,,,,,,,,,,,,,,,,,,,,,,,,,,,,,,,,,,,,,,,,,,,,,,,,,,,,,,,,,,,,,,,,,,,,,,,,,,,,,,,,,,,,,,,,
,,659d54e4e2c15f109cc1353d,2024-02-22_24h28.10.142,kallum_motion_pilot,2023.2.2,Win32,59.88023952,659d54e4e2c15f109cc1353d,65d6bb0e977760de756971f7,65d6bf2a0257de93fd730165,0.0619,0.0619,0,151,151,74,1,twoone,,,,,,,,,,,,,,,,,,,,,,,,,,,,,,,,,,,,,,,,,,,,,,,,,,,,,,,,,,,,,,,,,,,,,,,,,,,,,,,,,,,,,,,,,,,,,,,,,,,,,,,,,,,,,,,,,,,,,,,,,,,,,,,,,,,,,,,,,
,,659d54e4e2c15f109cc1353d,2024-02-22_24h28.10.142,kallum_motion_pilot,2023.2.2,Win32,59.88023952,659d54e4e2c15f109cc1353d,65d6bb0e977760de756971f7,65d6bf2a0257de93fd730165,0.0621,0.0621,0,152,152,30,1,fourtwo,,,,,,,,,,,,,,,,,,,,,,,,,,,,,,,,,,,,,,,,,,,,,,,,,,,,,,,,,,,,,,,,,,,,,,,,,,,,,,,,,,,,,,,,,,,,,,,,,,,,,,,,,,,,,,,,,,,,,,,,,,,,,,,,,,,,,,,,,
,,659d54e4e2c15f109cc1353d,2024-02-22_24h28.10.142,kallum_motion_pilot,2023.2.2,Win32,59.88023952,659d54e4e2c15f109cc1353d,65d6bb0e977760de756971f7,65d6bf2a0257de93fd730165,0.0623,0.0624,0,153,153,42,1,twoone,,,,,,,,,,,,,,,,,,,,,,,,,,,,,,,,,,,,,,,,,,,,,,,,,,,,,,,,,,,,,,,,,,,,,,,,,,,,,,,,,,,,,,,,,,,,,,,,,,,,,,,,,,,,,,,,,,,,,,,,,,,,,,,,,,,,,,,,,
,,659d54e4e2c15f109cc1353d,2024-02-22_24h28.10.142,kallum_motion_pilot,2023.2.2,Win32,59.88023952,659d54e4e2c15f109cc1353d,65d6bb0e977760de756971f7,65d6bf2a0257de93fd730165,0.0624,0.0625,0,154,154,144,1,fivesix,,,,,,,,,,,,,,,,,,,,,,,,,,,,,,,,,,,,,,,,,,,,,,,,,,,,,,,,,,,,,,,,,,,,,,,,,,,,,,,,,,,,,,,,,,,,,,,,,,,,,,,,,,,,,,,,,,,,,,,,,,,,,,,,,,,,,,,,,
,,659d54e4e2c15f109cc1353d,2024-02-22_24h28.10.142,kallum_motion_pilot,2023.2.2,Win32,59.88023952,659d54e4e2c15f109cc1353d,65d6bb0e977760de756971f7,65d6bf2a0257de93fd730165,0.0626,0.0627,0,155,155,9,1,onethree,,,,,,,,,,,,,,,,,,,,,,,,,,,,,,,,,,,,,,,,,,,,,,,,,,,,,,,,,,,,,,,,,,,,,,,,,,,,,,,,,,,,,,,,,,,,,,,,,,,,,,,,,,,,,,,,,,,,,,,,,,,,,,,,,,,,,,,,,
,,659d54e4e2c15f109cc1353d,2024-02-22_24h28.10.142,kallum_motion_pilot,2023.2.2,Win32,59.88023952,659d54e4e2c15f109cc1353d,65d6bb0e977760de756971f7,65d6bf2a0257de93fd730165,0.0628,0.0629,0,156,156,5,1,threefour,,,,,,,,,,,,,,,,,,,,,,,,,,,,,,,,,,,,,,,,,,,,,,,,,,,,,,,,,,,,,,,,,,,,,,,,,,,,,,,,,,,,,,,,,,,,,,,,,,,,,,,,,,,,,,,,,,,,,,,,,,,,,,,,,,,,,,,,,
,,659d54e4e2c15f109cc1353d,2024-02-22_24h28.10.142,kallum_motion_pilot,2023.2.2,Win32,59.88023952,659d54e4e2c15f109cc1353d,65d6bb0e977760de756971f7,65d6bf2a0257de93fd730165,0.0631,0.0631,0,157,157,14,1,fourtwo,,,,,,,,,,,,,,,,,,,,,,,,,,,,,,,,,,,,,,,,,,,,,,,,,,,,,,,,,,,,,,,,,,,,,,,,,,,,,,,,,,,,,,,,,,,,,,,,,,,,,,,,,,,,,,,,,,,,,,,,,,,,,,,,,,,,,,,,,
,,659d54e4e2c15f109cc1353d,2024-02-22_24h28.10.142,kallum_motion_pilot,2023.2.2,Win32,59.88023952,659d54e4e2c15f109cc1353d,65d6bb0e977760de756971f7,65d6bf2a0257de93fd730165,0.0633,0.0633,0,158,158,152,1,fivesix,,,,,,,,,,,,,,,,,,,,,,,,,,,,,,,,,,,,,,,,,,,,,,,,,,,,,,,,,,,,,,,,,,,,,,,,,,,,,,,,,,,,,,,,,,,,,,,,,,,,,,,,,,,,,,,,,,,,,,,,,,,,,,,,,,,,,,,,,
,,659d54e4e2c15f109cc1353d,2024-02-22_24h28.10.142,kallum_motion_pilot,2023.2.2,Win32,59.88023952,659d54e4e2c15f109cc1353d,65d6bb0e977760de756971f7,65d6bf2a0257de93fd730165,0.0634,0.0635,0,159,159,10,1,twoone,,,,,,,,,,,,,,,,,,,,,,,,,,,,,,,,,,,,,,,,,,,,,,,,,,,,,,,,,,,,,,,,,,,,,,,,,,,,,,,,,,,,,,,,,,,,,,,,,,,,,,,,,,,,,,,,,,,,,,,,,,,,,,,,,,,,,,,,,
,,659d54e4e2c15f109cc1353d,2024-02-22_24h28.10.142,kallum_motion_pilot,2023.2.2,Win32,59.88023952,659d54e4e2c15f109cc1353d,65d6bb0e977760de756971f7,65d6bf2a0257de93fd730165,0.0636,0.0637,0,160,160,71,1,fourthree,,,,,,,,,,,,,,,,,,,,,,,,,,,,,,,,,,,,,,,,,,,,,,,,,,,,,,,,,,,,,,,,,,,,,,,,,,,,,,,,,,,,,,,,,,,,,,,,,,,,,,,,,,,,,,,,,,,,,,,,,,,,,,,,,,,,,,,,,
,,659d54e4e2c15f109cc1353d,2024-02-22_24h28.10.142,kallum_motion_pilot,2023.2.2,Win32,59.88023952,659d54e4e2c15f109cc1353d,65d6bb0e977760de756971f7,65d6bf2a0257de93fd730165,0.0638,0.0639,0,161,161,119,1,eightseven,,,,,,,,,,,,,,,,,,,,,,,,,,,,,,,,,,,,,,,,,,,,,,,,,,,,,,,,,,,,,,,,,,,,,,,,,,,,,,,,,,,,,,,,,,,,,,,,,,,,,,,,,,,,,,,,,,,,,,,,,,,,,,,,,,,,,,,,,
,,659d54e4e2c15f109cc1353d,2024-02-22_24h28.10.142,kallum_motion_pilot,2023.2.2,Win32,59.88023952,659d54e4e2c15f109cc1353d,65d6bb0e977760de756971f7,65d6bf2a0257de93fd730165,0.0641,0.0641,1,0,162,91,1,sixeight,,,,,,,,,,,,,,,,,,,,,,,,,,,,,,,,,,,,,,,,,,,,,,,,,,,,,,,,,,,,,,,,,,,,,,,,,,,,,,,,,,,,,,,,,,,,,,,,,,,,,,,,,,,,,,,,,,,,,,,,,,,,,,,,,,,,,,,,,
,,659d54e4e2c15f109cc1353d,2024-02-22_24h28.10.142,kallum_motion_pilot,2023.2.2,Win32,59.88023952,659d54e4e2c15f109cc1353d,65d6bb0e977760de756971f7,65d6bf2a0257de93fd730165,0.0642,0.0643,1,1,163,142,1,eightsix,,,,,,,,,,,,,,,,,,,,,,,,,,,,,,,,,,,,,,,,,,,,,,,,,,,,,,,,,,,,,,,,,,,,,,,,,,,,,,,,,,,,,,,,,,,,,,,,,,,,,,,,,,,,,,,,,,,,,,,,,,,,,,,,,,,,,,,,,
,,659d54e4e2c15f109cc1353d,2024-02-22_24h28.10.142,kallum_motion_pilot,2023.2.2,Win32,59.88023952,659d54e4e2c15f109cc1353d,65d6bb0e977760de756971f7,65d6bf2a0257de93fd730165,0.0644,0.0644,1,2,164,133,1,seveneight,,,,,,,,,,,,,,,,,,,,,,,,,,,,,,,,,,,,,,,,,,,,,,,,,,,,,,,,,,,,,,,,,,,,,,,,,,,,,,,,,,,,,,,,,,,,,,,,,,,,,,,,,,,,,,,,,,,,,,,,,,,,,,,,,,,,,,,,,
,,659d54e4e2c15f109cc1353d,2024-02-22_24h28.10.142,kallum_motion_pilot,2023.2.2,Win32,59.88023952,659d54e4e2c15f109cc1353d,65d6bb0e977760de756971f7,65d6bf2a0257de93fd730165,0.0646,0.0647,1,3,165,24,1,onetwo,,,,,,,,,,,,,,,,,,,,,,,,,,,,,,,,,,,,,,,,,,,,,,,,,,,,,,,,,,,,,,,,,,,,,,,,,,,,,,,,,,,,,,,,,,,,,,,,,,,,,,,,,,,,,,,,,,,,,,,,,,,,,,,,,,,,,,,,,
,,659d54e4e2c15f109cc1353d,2024-02-22_24h28.10.142,kallum_motion_pilot,2023.2.2,Win32,59.88023952,659d54e4e2c15f109cc1353d,65d6bb0e977760de756971f7,65d6bf2a0257de93fd730165,0.0648,0.0648,1,4,166,20,1,threeone,,,,,,,,,,,,,,,,,,,,,,,,,,,,,,,,,,,,,,,,,,,,,,,,,,,,,,,,,,,,,,,,,,,,,,,,,,,,,,,,,,,,,,,,,,,,,,,,,,,,,,,,,,,,,,,,,,,,,,,,,,,,,,,,,,,,,,,,,
,,659d54e4e2c15f109cc1353d,2024-02-22_24h28.10.142,kallum_motion_pilot,2023.2.2,Win32,59.88023952,659d54e4e2c15f109cc1353d,65d6bb0e977760de756971f7,65d6bf2a0257de93fd730165,0.065,0.065,1,5,167,137,1,fiveseven,,,,,,,,,,,,,,,,,,,,,,,,,,,,,,,,,,,,,,,,,,,,,,,,,,,,,,,,,,,,,,,,,,,,,,,,,,,,,,,,,,,,,,,,,,,,,,,,,,,,,,,,,,,,,,,,,,,,,,,,,,,,,,,,,,,,,,,,,
,,659d54e4e2c15f109cc1353d,2024-02-22_24h28.10.142,kallum_motion_pilot,2023.2.2,Win32,59.88023952,659d54e4e2c15f109cc1353d,65d6bb0e977760de756971f7,65d6bf2a0257de93fd730165,0.0652,0.0652,1,6,168,113,1,fiveseven,,,,,,,,,,,,,,,,,,,,,,,,,,,,,,,,,,,,,,,,,,,,,,,,,,,,,,,,,,,,,,,,,,,,,,,,,,,,,,,,,,,,,,,,,,,,,,,,,,,,,,,,,,,,,,,,,,,,,,,,,,,,,,,,,,,,,,,,,
,,659d54e4e2c15f109cc1353d,2024-02-22_24h28.10.142,kallum_motion_pilot,2023.2.2,Win32,59.88023952,659d54e4e2c15f109cc1353d,65d6bb0e977760de756971f7,65d6bf2a0257de93fd730165,0.0653,0.0655,1,7,169,115,1,sixeight,,,,,,,,,,,,,,,,,,,,,,,,,,,,,,,,,,,,,,,,,,,,,,,,,,,,,,,,,,,,,,,,,,,,,,,,,,,,,,,,,,,,,,,,,,,,,,,,,,,,,,,,,,,,,,,,,,,,,,,,,,,,,,,,,,,,,,,,,
,,659d54e4e2c15f109cc1353d,2024-02-22_24h28.10.142,kallum_motion_pilot,2023.2.2,Win32,59.88023952,659d54e4e2c15f109cc1353d,65d6bb0e977760de756971f7,65d6bf2a0257de93fd730165,0.0655,0.0657,1,8,170,50,1,twoone,,,,,,,,,,,,,,,,,,,,,,,,,,,,,,,,,,,,,,,,,,,,,,,,,,,,,,,,,,,,,,,,,,,,,,,,,,,,,,,,,,,,,,,,,,,,,,,,,,,,,,,,,,,,,,,,,,,,,,,,,,,,,,,,,,,,,,,,,
,,659d54e4e2c15f109cc1353d,2024-02-22_24h28.10.142,kallum_motion_pilot,2023.2.2,Win32,59.88023952,659d54e4e2c15f109cc1353d,65d6bb0e977760de756971f7,65d6bf2a0257de93fd730165,0.0658,0.0659,1,9,171,90,1,sixfive,,,,,,,,,,,,,,,,,,,,,,,,,,,,,,,,,,,,,,,,,,,,,,,,,,,,,,,,,,,,,,,,,,,,,,,,,,,,,,,,,,,,,,,,,,,,,,,,,,,,,,,,,,,,,,,,,,,,,,,,,,,,,,,,,,,,,,,,,
,,659d54e4e2c15f109cc1353d,2024-02-22_24h28.10.142,kallum_motion_pilot,2023.2.2,Win32,59.88023952,659d54e4e2c15f109cc1353d,65d6bb0e977760de756971f7,65d6bf2a0257de93fd730165,0.066,0.066,1,10,172,100,1,sevenfive,,,,,,,,,,,,,,,,,,,,,,,,,,,,,,,,,,,,,,,,,,,,,,,,,,,,,,,,,,,,,,,,,,,,,,,,,,,,,,,,,,,,,,,,,,,,,,,,,,,,,,,,,,,,,,,,,,,,,,,,,,,,,,,,,,,,,,,,,
,,659d54e4e2c15f109cc1353d,2024-02-22_24h28.10.142,kallum_motion_pilot,2023.2.2,Win32,59.88023952,659d54e4e2c15f109cc1353d,65d6bb0e977760de756971f7,65d6bf2a0257de93fd730165,0.0662,0.0662,1,11,173,74,1,twoone,,,,,,,,,,,,,,,,,,,,,,,,,,,,,,,,,,,,,,,,,,,,,,,,,,,,,,,,,,,,,,,,,,,,,,,,,,,,,,,,,,,,,,,,,,,,,,,,,,,,,,,,,,,,,,,,,,,,,,,,,,,,,,,,,,,,,,,,,
,,659d54e4e2c15f109cc1353d,2024-02-22_24h28.10.142,kallum_motion_pilot,2023.2.2,Win32,59.88023952,659d54e4e2c15f109cc1353d,65d6bb0e977760de756971f7,65d6bf2a0257de93fd730165,0.0663,0.0664,1,12,174,10,1,twoone,,,,,,,,,,,,,,,,,,,,,,,,,,,,,,,,,,,,,,,,,,,,,,,,,,,,,,,,,,,,,,,,,,,,,,,,,,,,,,,,,,,,,,,,,,,,,,,,,,,,,,,,,,,,,,,,,,,,,,,,,,,,,,,,,,,,,,,,,
,,659d54e4e2c15f109cc1353d,2024-02-22_24h28.10.142,kallum_motion_pilot,2023.2.2,Win32,59.88023952,659d54e4e2c15f109cc1353d,65d6bb0e977760de756971f7,65d6bf2a0257de93fd730165,0.0665,0.0666,1,13,175,39,1,fourthree,,,,,,,,,,,,,,,,,,,,,,,,,,,,,,,,,,,,,,,,,,,,,,,,,,,,,,,,,,,,,,,,,,,,,,,,,,,,,,,,,,,,,,,,,,,,,,,,,,,,,,,,,,,,,,,,,,,,,,,,,,,,,,,,,,,,,,,,,
,,659d54e4e2c15f109cc1353d,2024-02-22_24h28.10.142,kallum_motion_pilot,2023.2.2,Win32,59.88023952,659d54e4e2c15f109cc1353d,65d6bb0e977760de756971f7,65d6bf2a0257de93fd730165,0.0667,0.0668,1,14,176,154,1,sixfive,,,,,,,,,,,,,,,,,,,,,,,,,,,,,,,,,,,,,,,,,,,,,,,,,,,,,,,,,,,,,,,,,,,,,,,,,,,,,,,,,,,,,,,,,,,,,,,,,,,,,,,,,,,,,,,,,,,,,,,,,,,,,,,,,,,,,,,,,
,,659d54e4e2c15f109cc1353d,2024-02-22_24h28.10.142,kallum_motion_pilot,2023.2.2,Win32,59.88023952,659d54e4e2c15f109cc1353d,65d6bb0e977760de756971f7,65d6bf2a0257de93fd730165,0.067,0.067,1,15,177,55,1,fourthree,,,,,,,,,,,,,,,,,,,,,,,,,,,,,,,,,,,,,,,,,,,,,,,,,,,,,,,,,,,,,,,,,,,,,,,,,,,,,,,,,,,,,,,,,,,,,,,,,,,,,,,,,,,,,,,,,,,,,,,,,,,,,,,,,,,,,,,,,
,,659d54e4e2c15f109cc1353d,2024-02-22_24h28.10.142,kallum_motion_pilot,2023.2.2,Win32,59.88023952,659d54e4e2c15f109cc1353d,65d6bb0e977760de756971f7,65d6bf2a0257de93fd730165,0.0671,0.0672,1,16,178,56,1,onetwo,,,,,,,,,,,,,,,,,,,,,,,,,,,,,,,,,,,,,,,,,,,,,,,,,,,,,,,,,,,,,,,,,,,,,,,,,,,,,,,,,,,,,,,,,,,,,,,,,,,,,,,,,,,,,,,,,,,,,,,,,,,,,,,,,,,,,,,,,
,,659d54e4e2c15f109cc1353d,2024-02-22_24h28.10.142,kallum_motion_pilot,2023.2.2,Win32,59.88023952,659d54e4e2c15f109cc1353d,65d6bb0e977760de756971f7,65d6bf2a0257de93fd730165,0.0674,0.0674,1,17,179,18,1,twoone,,,,,,,,,,,,,,,,,,,,,,,,,,,,,,,,,,,,,,,,,,,,,,,,,,,,,,,,,,,,,,,,,,,,,,,,,,,,,,,,,,,,,,,,,,,,,,,,,,,,,,,,,,,,,,,,,,,,,,,,,,,,,,,,,,,,,,,,,
,,659d54e4e2c15f109cc1353d,2024-02-22_24h28.10.142,kallum_motion_pilot,2023.2.2,Win32,59.88023952,659d54e4e2c15f109cc1353d,65d6bb0e977760de756971f7,65d6bf2a0257de93fd730165,0.0675,0.0677,1,18,180,93,1,seveneight,,,,,,,,,,,,,,,,,,,,,,,,,,,,,,,,,,,,,,,,,,,,,,,,,,,,,,,,,,,,,,,,,,,,,,,,,,,,,,,,,,,,,,,,,,,,,,,,,,,,,,,,,,,,,,,,,,,,,,,,,,,,,,,,,,,,,,,,,
,,659d54e4e2c15f109cc1353d,2024-02-22_24h28.10.142,kallum_motion_pilot,2023.2.2,Win32,59.88023952,659d54e4e2c15f109cc1353d,65d6bb0e977760de756971f7,65d6bf2a0257de93fd730165,0.0678,0.0678,1,19,181,140,1,sevenfive,,,,,,,,,,,,,,,,,,,,,,,,,,,,,,,,,,,,,,,,,,,,,,,,,,,,,,,,,,,,,,,,,,,,,,,,,,,,,,,,,,,,,,,,,,,,,,,,,,,,,,,,,,,,,,,,,,,,,,,,,,,,,,,,,,,,,,,,,
,,659d54e4e2c15f109cc1353d,2024-02-22_24h28.10.142,kallum_motion_pilot,2023.2.2,Win32,59.88023952,659d54e4e2c15f109cc1353d,65d6bb0e977760de756971f7,65d6bf2a0257de93fd730165,0.0681,0.0681,1,20,182,54,1,fourtwo,,,,,,,,,,,,,,,,,,,,,,,,,,,,,,,,,,,,,,,,,,,,,,,,,,,,,,,,,,,,,,,,,,,,,,,,,,,,,,,,,,,,,,,,,,,,,,,,,,,,,,,,,,,,,,,,,,,,,,,,,,,,,,,,,,,,,,,,,
,,659d54e4e2c15f109cc1353d,2024-02-22_24h28.10.142,kallum_motion_pilot,2023.2.2,Win32,59.88023952,659d54e4e2c15f109cc1353d,65d6bb0e977760de756971f7,65d6bf2a0257de93fd730165,0.0683,0.0684,1,21,183,3,1,twofour,,,,,,,,,,,,,,,,,,,,,,,,,,,,,,,,,,,,,,,,,,,,,,,,,,,,,,,,,,,,,,,,,,,,,,,,,,,,,,,,,,,,,,,,,,,,,,,,,,,,,,,,,,,,,,,,,,,,,,,,,,,,,,,,,,,,,,,,,
,,659d54e4e2c15f109cc1353d,2024-02-22_24h28.10.142,kallum_motion_pilot,2023.2.2,Win32,59.88023952,659d54e4e2c15f109cc1353d,65d6bb0e977760de756971f7,65d6bf2a0257de93fd730165,0.0685,0.0687,1,22,184,95,1,eightseven,,,,,,,,,,,,,,,,,,,,,,,,,,,,,,,,,,,,,,,,,,,,,,,,,,,,,,,,,,,,,,,,,,,,,,,,,,,,,,,,,,,,,,,,,,,,,,,,,,,,,,,,,,,,,,,,,,,,,,,,,,,,,,,,,,,,,,,,,
,,659d54e4e2c15f109cc1353d,2024-02-22_24h28.10.142,kallum_motion_pilot,2023.2.2,Win32,59.88023952,659d54e4e2c15f109cc1353d,65d6bb0e977760de756971f7,65d6bf2a0257de93fd730165,0.0687,0.0689,1,23,185,48,1,onetwo,,,,,,,,,,,,,,,,,,,,,,,,,,,,,,,,,,,,,,,,,,,,,,,,,,,,,,,,,,,,,,,,,,,,,,,,,,,,,,,,,,,,,,,,,,,,,,,,,,,,,,,,,,,,,,,,,,,,,,,,,,,,,,,,,,,,,,,,,
,,659d54e4e2c15f109cc1353d,2024-02-22_24h28.10.142,kallum_motion_pilot,2023.2.2,Win32,59.88023952,659d54e4e2c15f109cc1353d,65d6bb0e977760de756971f7,65d6bf2a0257de93fd730165,0.069,0.0691,1,24,186,59,1,twofour,,,,,,,,,,,,,,,,,,,,,,,,,,,,,,,,,,,,,,,,,,,,,,,,,,,,,,,,,,,,,,,,,,,,,,,,,,,,,,,,,,,,,,,,,,,,,,,,,,,,,,,,,,,,,,,,,,,,,,,,,,,,,,,,,,,,,,,,,
,,659d54e4e2c15f109cc1353d,2024-02-22_24h28.10.142,kallum_motion_pilot,2023.2.2,Win32,59.88023952,659d54e4e2c15f109cc1353d,65d6bb0e977760de756971f7,65d6bf2a0257de93fd730165,0.0692,0.0693,1,25,187,65,1,onethree,,,,,,,,,,,,,,,,,,,,,,,,,,,,,,,,,,,,,,,,,,,,,,,,,,,,,,,,,,,,,,,,,,,,,,,,,,,,,,,,,,,,,,,,,,,,,,,,,,,,,,,,,,,,,,,,,,,,,,,,,,,,,,,,,,,,,,,,,
,,659d54e4e2c15f109cc1353d,2024-02-22_24h28.10.142,kallum_motion_pilot,2023.2.2,Win32,59.88023952,659d54e4e2c15f109cc1353d,65d6bb0e977760de756971f7,65d6bf2a0257de93fd730165,0.0694,0.0694,1,26,188,44,1,threeone,,,,,,,,,,,,,,,,,,,,,,,,,,,,,,,,,,,,,,,,,,,,,,,,,,,,,,,,,,,,,,,,,,,,,,,,,,,,,,,,,,,,,,,,,,,,,,,,,,,,,,,,,,,,,,,,,,,,,,,,,,,,,,,,,,,,,,,,,
,,659d54e4e2c15f109cc1353d,2024-02-22_24h28.10.142,kallum_motion_pilot,2023.2.2,Win32,59.88023952,659d54e4e2c15f109cc1353d,65d6bb0e977760de756971f7,65d6bf2a0257de93fd730165,0.07,0.0703,1,27,189,131,1,sixeight,,,,,,,,,,,,,,,,,,,,,,,,,,,,,,,,,,,,,,,,,,,,,,,,,,,,,,,,,,,,,,,,,,,,,,,,,,,,,,,,,,,,,,,,,,,,,,,,,,,,,,,,,,,,,,,,,,,,,,,,,,,,,,,,,,,,,,,,,
,,659d54e4e2c15f109cc1353d,2024-02-22_24h28.10.142,kallum_motion_pilot,2023.2.2,Win32,59.88023952,659d54e4e2c15f109cc1353d,65d6bb0e977760de756971f7,65d6bf2a0257de93fd730165,0.0706,0.0708,1,28,190,121,1,fiveseven,,,,,,,,,,,,,,,,,,,,,,,,,,,,,,,,,,,,,,,,,,,,,,,,,,,,,,,,,,,,,,,,,,,,,,,,,,,,,,,,,,,,,,,,,,,,,,,,,,,,,,,,,,,,,,,,,,,,,,,,,,,,,,,,,,,,,,,,,
,,659d54e4e2c15f109cc1353d,2024-02-22_24h28.10.142,kallum_motion_pilot,2023.2.2,Win32,59.88023952,659d54e4e2c15f109cc1353d,65d6bb0e977760de756971f7,65d6bf2a0257de93fd730165,0.0709,0.0711,1,29,191,156,1,sevenfive,,,,,,,,,,,,,,,,,,,,,,,,,,,,,,,,,,,,,,,,,,,,,,,,,,,,,,,,,,,,,,,,,,,,,,,,,,,,,,,,,,,,,,,,,,,,,,,,,,,,,,,,,,,,,,,,,,,,,,,,,,,,,,,,,,,,,,,,,
,,659d54e4e2c15f109cc1353d,2024-02-22_24h28.10.142,kallum_motion_pilot,2023.2.2,Win32,59.88023952,659d54e4e2c15f109cc1353d,65d6bb0e977760de756971f7,65d6bf2a0257de93fd730165,0.0712,0.0713,1,30,192,0,1,onetwo,,,,,,,,,,,,,,,,,,,,,,,,,,,,,,,,,,,,,,,,,,,,,,,,,,,,,,,,,,,,,,,,,,,,,,,,,,,,,,,,,,,,,,,,,,,,,,,,,,,,,,,,,,,,,,,,,,,,,,,,,,,,,,,,,,,,,,,,,
,,659d54e4e2c15f109cc1353d,2024-02-22_24h28.10.142,kallum_motion_pilot,2023.2.2,Win32,59.88023952,659d54e4e2c15f109cc1353d,65d6bb0e977760de756971f7,65d6bf2a0257de93fd730165,0.0714,0.0716,1,31,193,58,1,twoone,,,,,,,,,,,,,,,,,,,,,,,,,,,,,,,,,,,,,,,,,,,,,,,,,,,,,,,,,,,,,,,,,,,,,,,,,,,,,,,,,,,,,,,,,,,,,,,,,,,,,,,,,,,,,,,,,,,,,,,,,,,,,,,,,,,,,,,,,
,,659d54e4e2c15f109cc1353d,2024-02-22_24h28.10.142,kallum_motion_pilot,2023.2.2,Win32,59.88023952,659d54e4e2c15f109cc1353d,65d6bb0e977760de756971f7,65d6bf2a0257de93fd730165,0.0718,0.0719,1,32,194,37,1,threefour,,,,,,,,,,,,,,,,,,,,,,,,,,,,,,,,,,,,,,,,,,,,,,,,,,,,,,,,,,,,,,,,,,,,,,,,,,,,,,,,,,,,,,,,,,,,,,,,,,,,,,,,,,,,,,,,,,,,,,,,,,,,,,,,,,,,,,,,,
,,659d54e4e2c15f109cc1353d,2024-02-22_24h28.10.142,kallum_motion_pilot,2023.2.2,Win32,59.88023952,659d54e4e2c15f109cc1353d,65d6bb0e977760de756971f7,65d6bf2a0257de93fd730165,0.072,0.0721,1,33,195,53,1,threefour,,,,,,,,,,,,,,,,,,,,,,,,,,,,,,,,,,,,,,,,,,,,,,,,,,,,,,,,,,,,,,,,,,,,,,,,,,,,,,,,,,,,,,,,,,,,,,,,,,,,,,,,,,,,,,,,,,,,,,,,,,,,,,,,,,,,,,,,,
,,659d54e4e2c15f109cc1353d,2024-02-22_24h28.10.142,kallum_motion_pilot,2023.2.2,Win32,59.88023952,659d54e4e2c15f109cc1353d,65d6bb0e977760de756971f7,65d6bf2a0257de93fd730165,0.0723,0.0724,1,34,196,83,1,sixeight,,,,,,,,,,,,,,,,,,,,,,,,,,,,,,,,,,,,,,,,,,,,,,,,,,,,,,,,,,,,,,,,,,,,,,,,,,,,,,,,,,,,,,,,,,,,,,,,,,,,,,,,,,,,,,,,,,,,,,,,,,,,,,,,,,,,,,,,,
,,659d54e4e2c15f109cc1353d,2024-02-22_24h28.10.142,kallum_motion_pilot,2023.2.2,Win32,59.88023952,659d54e4e2c15f109cc1353d,65d6bb0e977760de756971f7,65d6bf2a0257de93fd730165,0.0725,0.0727,1,35,197,1,1,onethree,,,,,,,,,,,,,,,,,,,,,,,,,,,,,,,,,,,,,,,,,,,,,,,,,,,,,,,,,,,,,,,,,,,,,,,,,,,,,,,,,,,,,,,,,,,,,,,,,,,,,,,,,,,,,,,,,,,,,,,,,,,,,,,,,,,,,,,,,
,,659d54e4e2c15f109cc1353d,2024-02-22_24h28.10.142,kallum_motion_pilot,2023.2.2,Win32,59.88023952,659d54e4e2c15f109cc1353d,65d6bb0e977760de756971f7,65d6bf2a0257de93fd730165,0.0728,0.0728,1,36,198,23,1,fourthree,,,,,,,,,,,,,,,,,,,,,,,,,,,,,,,,,,,,,,,,,,,,,,,,,,,,,,,,,,,,,,,,,,,,,,,,,,,,,,,,,,,,,,,,,,,,,,,,,,,,,,,,,,,,,,,,,,,,,,,,,,,,,,,,,,,,,,,,,
,,659d54e4e2c15f109cc1353d,2024-02-22_24h28.10.142,kallum_motion_pilot,2023.2.2,Win32,59.88023952,659d54e4e2c15f109cc1353d,65d6bb0e977760de756971f7,65d6bf2a0257de93fd730165,0.073,0.0731,1,37,199,120,1,fivesix,,,,,,,,,,,,,,,,,,,,,,,,,,,,,,,,,,,,,,,,,,,,,,,,,,,,,,,,,,,,,,,,,,,,,,,,,,,,,,,,,,,,,,,,,,,,,,,,,,,,,,,,,,,,,,,,,,,,,,,,,,,,,,,,,,,,,,,,,
,,659d54e4e2c15f109cc1353d,2024-02-22_24h28.10.142,kallum_motion_pilot,2023.2.2,Win32,59.88023952,659d54e4e2c15f109cc1353d,65d6bb0e977760de756971f7,65d6bf2a0257de93fd730165,0.0732,0.0733,1,38,200,81,1,fiveseven,,,,,,,,,,,,,,,,,,,,,,,,,,,,,,,,,,,,,,,,,,,,,,,,,,,,,,,,,,,,,,,,,,,,,,,,,,,,,,,,,,,,,,,,,,,,,,,,,,,,,,,,,,,,,,,,,,,,,,,,,,,,,,,,,,,,,,,,,
,,659d54e4e2c15f109cc1353d,2024-02-22_24h28.10.142,kallum_motion_pilot,2023.2.2,Win32,59.88023952,659d54e4e2c15f109cc1353d,65d6bb0e977760de756971f7,65d6bf2a0257de93fd730165,0.0745,0.0746,1,39,201,34,1,twoone,,,,,,,,,,,,,,,,,,,,,,,,,,,,,,,,,,,,,,,,,,,,,,,,,,,,,,,,,,,,,,,,,,,,,,,,,,,,,,,,,,,,,,,,,,,,,,,,,,,,,,,,,,,,,,,,,,,,,,,,,,,,,,,,,,,,,,,,,
,,659d54e4e2c15f109cc1353d,2024-02-22_24h28.10.142,kallum_motion_pilot,2023.2.2,Win32,59.88023952,659d54e4e2c15f109cc1353d,65d6bb0e977760de756971f7,65d6bf2a0257de93fd730165,0.0748,0.0749,1,40,202,21,1,threefour,,,,,,,,,,,,,,,,,,,,,,,,,,,,,,,,,,,,,,,,,,,,,,,,,,,,,,,,,,,,,,,,,,,,,,,,,,,,,,,,,,,,,,,,,,,,,,,,,,,,,,,,,,,,,,,,,,,,,,,,,,,,,,,,,,,,,,,,,
,,659d54e4e2c15f109cc1353d,2024-02-22_24h28.10.142,kallum_motion_pilot,2023.2.2,Win32,59.88023952,659d54e4e2c15f109cc1353d,65d6bb0e977760de756971f7,65d6bf2a0257de93fd730165,0.0751,0.0752,1,41,203,96,1,fivesix,,,,,,,,,,,,,,,,,,,,,,,,,,,,,,,,,,,,,,,,,,,,,,,,,,,,,,,,,,,,,,,,,,,,,,,,,,,,,,,,,,,,,,,,,,,,,,,,,,,,,,,,,,,,,,,,,,,,,,,,,,,,,,,,,,,,,,,,,
,,659d54e4e2c15f109cc1353d,2024-02-22_24h28.10.142,kallum_motion_pilot,2023.2.2,Win32,59.88023952,659d54e4e2c15f109cc1353d,65d6bb0e977760de756971f7,65d6bf2a0257de93fd730165,0.0753,0.0754,1,42,204,2,1,twoone,,,,,,,,,,,,,,,,,,,,,,,,,,,,,,,,,,,,,,,,,,,,,,,,,,,,,,,,,,,,,,,,,,,,,,,,,,,,,,,,,,,,,,,,,,,,,,,,,,,,,,,,,,,,,,,,,,,,,,,,,,,,,,,,,,,,,,,,,
,,659d54e4e2c15f109cc1353d,2024-02-22_24h28.10.142,kallum_motion_pilot,2023.2.2,Win32,59.88023952,659d54e4e2c15f109cc1353d,65d6bb0e977760de756971f7,65d6bf2a0257de93fd730165,0.0755,0.0756,1,43,205,30,1,fourtwo,,,,,,,,,,,,,,,,,,,,,,,,,,,,,,,,,,,,,,,,,,,,,,,,,,,,,,,,,,,,,,,,,,,,,,,,,,,,,,,,,,,,,,,,,,,,,,,,,,,,,,,,,,,,,,,,,,,,,,,,,,,,,,,,,,,,,,,,,
,,659d54e4e2c15f109cc1353d,2024-02-22_24h28.10.142,kallum_motion_pilot,2023.2.2,Win32,59.88023952,659d54e4e2c15f109cc1353d,65d6bb0e977760de756971f7,65d6bf2a0257de93fd730165,0.0757,0.0758,1,44,206,71,1,fourthree,,,,,,,,,,,,,,,,,,,,,,,,,,,,,,,,,,,,,,,,,,,,,,,,,,,,,,,,,,,,,,,,,,,,,,,,,,,,,,,,,,,,,,,,,,,,,,,,,,,,,,,,,,,,,,,,,,,,,,,,,,,,,,,,,,,,,,,,,
,,659d54e4e2c15f109cc1353d,2024-02-22_24h28.10.142,kallum_motion_pilot,2023.2.2,Win32,59.88023952,659d54e4e2c15f109cc1353d,65d6bb0e977760de756971f7,65d6bf2a0257de93fd730165,0.0759,0.076,1,45,207,62,1,fourtwo,,,,,,,,,,,,,,,,,,,,,,,,,,,,,,,,,,,,,,,,,,,,,,,,,,,,,,,,,,,,,,,,,,,,,,,,,,,,,,,,,,,,,,,,,,,,,,,,,,,,,,,,,,,,,,,,,,,,,,,,,,,,,,,,,,,,,,,,,
,,659d54e4e2c15f109cc1353d,2024-02-22_24h28.10.142,kallum_motion_pilot,2023.2.2,Win32,59.88023952,659d54e4e2c15f109cc1353d,65d6bb0e977760de756971f7,65d6bf2a0257de93fd730165,0.0761,0.0762,1,46,208,94,1,eightsix,,,,,,,,,,,,,,,,,,,,,,,,,,,,,,,,,,,,,,,,,,,,,,,,,,,,,,,,,,,,,,,,,,,,,,,,,,,,,,,,,,,,,,,,,,,,,,,,,,,,,,,,,,,,,,,,,,,,,,,,,,,,,,,,,,,,,,,,,
,,659d54e4e2c15f109cc1353d,2024-02-22_24h28.10.142,kallum_motion_pilot,2023.2.2,Win32,59.88023952,659d54e4e2c15f109cc1353d,65d6bb0e977760de756971f7,65d6bf2a0257de93fd730165,0.0763,0.0764,1,47,209,87,1,eightseven,,,,,,,,,,,,,,,,,,,,,,,,,,,,,,,,,,,,,,,,,,,,,,,,,,,,,,,,,,,,,,,,,,,,,,,,,,,,,,,,,,,,,,,,,,,,,,,,,,,,,,,,,,,,,,,,,,,,,,,,,,,,,,,,,,,,,,,,,
,,659d54e4e2c15f109cc1353d,2024-02-22_24h28.10.142,kallum_motion_pilot,2023.2.2,Win32,59.88023952,659d54e4e2c15f109cc1353d,65d6bb0e977760de756971f7,65d6bf2a0257de93fd730165,0.0765,0.0766,1,48,210,46,1,fourtwo,,,,,,,,,,,,,,,,,,,,,,,,,,,,,,,,,,,,,,,,,,,,,,,,,,,,,,,,,,,,,,,,,,,,,,,,,,,,,,,,,,,,,,,,,,,,,,,,,,,,,,,,,,,,,,,,,,,,,,,,,,,,,,,,,,,,,,,,,
,,659d54e4e2c15f109cc1353d,2024-02-22_24h28.10.142,kallum_motion_pilot,2023.2.2,Win32,59.88023952,659d54e4e2c15f109cc1353d,65d6bb0e977760de756971f7,65d6bf2a0257de93fd730165,0.0767,0.0768,1,49,211,32,1,onetwo,,,,,,,,,,,,,,,,,,,,,,,,,,,,,,,,,,,,,,,,,,,,,,,,,,,,,,,,,,,,,,,,,,,,,,,,,,,,,,,,,,,,,,,,,,,,,,,,,,,,,,,,,,,,,,,,,,,,,,,,,,,,,,,,,,,,,,,,,
,,659d54e4e2c15f109cc1353d,2024-02-22_24h28.10.142,kallum_motion_pilot,2023.2.2,Win32,59.88023952,659d54e4e2c15f109cc1353d,65d6bb0e977760de756971f7,65d6bf2a0257de93fd730165,0.0769,0.077,1,50,212,64,1,onetwo,,,,,,,,,,,,,,,,,,,,,,,,,,,,,,,,,,,,,,,,,,,,,,,,,,,,,,,,,,,,,,,,,,,,,,,,,,,,,,,,,,,,,,,,,,,,,,,,,,,,,,,,,,,,,,,,,,,,,,,,,,,,,,,,,,,,,,,,,
,,659d54e4e2c15f109cc1353d,2024-02-22_24h28.10.142,kallum_motion_pilot,2023.2.2,Win32,59.88023952,659d54e4e2c15f109cc1353d,65d6bb0e977760de756971f7,65d6bf2a0257de93fd730165,0.0771,0.0772,1,51,213,86,1,eightsix,,,,,,,,,,,,,,,,,,,,,,,,,,,,,,,,,,,,,,,,,,,,,,,,,,,,,,,,,,,,,,,,,,,,,,,,,,,,,,,,,,,,,,,,,,,,,,,,,,,,,,,,,,,,,,,,,,,,,,,,,,,,,,,,,,,,,,,,,
,,659d54e4e2c15f109cc1353d,2024-02-22_24h28.10.142,kallum_motion_pilot,2023.2.2,Win32,59.88023952,659d54e4e2c15f109cc1353d,65d6bb0e977760de756971f7,65d6bf2a0257de93fd730165,0.0773,0.0774,1,52,214,70,1,fourtwo,,,,,,,,,,,,,,,,,,,,,,,,,,,,,,,,,,,,,,,,,,,,,,,,,,,,,,,,,,,,,,,,,,,,,,,,,,,,,,,,,,,,,,,,,,,,,,,,,,,,,,,,,,,,,,,,,,,,,,,,,,,,,,,,,,,,,,,,,
,,659d54e4e2c15f109cc1353d,2024-02-22_24h28.10.142,kallum_motion_pilot,2023.2.2,Win32,59.88023952,659d54e4e2c15f109cc1353d,65d6bb0e977760de756971f7,65d6bf2a0257de93fd730165,0.0776,0.0776,1,53,215,38,1,fourtwo,,,,,,,,,,,,,,,,,,,,,,,,,,,,,,,,,,,,,,,,,,,,,,,,,,,,,,,,,,,,,,,,,,,,,,,,,,,,,,,,,,,,,,,,,,,,,,,,,,,,,,,,,,,,,,,,,,,,,,,,,,,,,,,,,,,,,,,,,
,,659d54e4e2c15f109cc1353d,2024-02-22_24h28.10.142,kallum_motion_pilot,2023.2.2,Win32,59.88023952,659d54e4e2c15f109cc1353d,65d6bb0e977760de756971f7,65d6bf2a0257de93fd730165,0.0777,0.0778,1,54,216,141,1,seveneight,,,,,,,,,,,,,,,,,,,,,,,,,,,,,,,,,,,,,,,,,,,,,,,,,,,,,,,,,,,,,,,,,,,,,,,,,,,,,,,,,,,,,,,,,,,,,,,,,,,,,,,,,,,,,,,,,,,,,,,,,,,,,,,,,,,,,,,,,
,,659d54e4e2c15f109cc1353d,2024-02-22_24h28.10.142,kallum_motion_pilot,2023.2.2,Win32,59.88023952,659d54e4e2c15f109cc1353d,65d6bb0e977760de756971f7,65d6bf2a0257de93fd730165,0.078,0.078,1,55,217,101,1,seveneight,,,,,,,,,,,,,,,,,,,,,,,,,,,,,,,,,,,,,,,,,,,,,,,,,,,,,,,,,,,,,,,,,,,,,,,,,,,,,,,,,,,,,,,,,,,,,,,,,,,,,,,,,,,,,,,,,,,,,,,,,,,,,,,,,,,,,,,,,
,,659d54e4e2c15f109cc1353d,2024-02-22_24h28.10.142,kallum_motion_pilot,2023.2.2,Win32,59.88023952,659d54e4e2c15f109cc1353d,65d6bb0e977760de756971f7,65d6bf2a0257de93fd730165,0.0781,0.0783,1,56,218,152,1,fivesix,,,,,,,,,,,,,,,,,,,,,,,,,,,,,,,,,,,,,,,,,,,,,,,,,,,,,,,,,,,,,,,,,,,,,,,,,,,,,,,,,,,,,,,,,,,,,,,,,,,,,,,,,,,,,,,,,,,,,,,,,,,,,,,,,,,,,,,,,
,,659d54e4e2c15f109cc1353d,2024-02-22_24h28.10.142,kallum_motion_pilot,2023.2.2,Win32,59.88023952,659d54e4e2c15f109cc1353d,65d6bb0e977760de756971f7,65d6bf2a0257de93fd730165,0.0784,0.0785,1,57,219,125,1,seveneight,,,,,,,,,,,,,,,,,,,,,,,,,,,,,,,,,,,,,,,,,,,,,,,,,,,,,,,,,,,,,,,,,,,,,,,,,,,,,,,,,,,,,,,,,,,,,,,,,,,,,,,,,,,,,,,,,,,,,,,,,,,,,,,,,,,,,,,,,
,,659d54e4e2c15f109cc1353d,2024-02-22_24h28.10.142,kallum_motion_pilot,2023.2.2,Win32,59.88023952,659d54e4e2c15f109cc1353d,65d6bb0e977760de756971f7,65d6bf2a0257de93fd730165,0.0786,0.0787,1,58,220,77,1,threefour,,,,,,,,,,,,,,,,,,,,,,,,,,,,,,,,,,,,,,,,,,,,,,,,,,,,,,,,,,,,,,,,,,,,,,,,,,,,,,,,,,,,,,,,,,,,,,,,,,,,,,,,,,,,,,,,,,,,,,,,,,,,,,,,,,,,,,,,,
,,659d54e4e2c15f109cc1353d,2024-02-22_24h28.10.142,kallum_motion_pilot,2023.2.2,Win32,59.88023952,659d54e4e2c15f109cc1353d,65d6bb0e977760de756971f7,65d6bf2a0257de93fd730165,0.0789,0.0789,1,59,221,108,1,sevenfive,,,,,,,,,,,,,,,,,,,,,,,,,,,,,,,,,,,,,,,,,,,,,,,,,,,,,,,,,,,,,,,,,,,,,,,,,,,,,,,,,,,,,,,,,,,,,,,,,,,,,,,,,,,,,,,,,,,,,,,,,,,,,,,,,,,,,,,,,
,,659d54e4e2c15f109cc1353d,2024-02-22_24h28.10.142,kallum_motion_pilot,2023.2.2,Win32,59.88023952,659d54e4e2c15f109cc1353d,65d6bb0e977760de756971f7,65d6bf2a0257de93fd730165,0.0791,0.0791,1,60,222,135,1,eightseven,,,,,,,,,,,,,,,,,,,,,,,,,,,,,,,,,,,,,,,,,,,,,,,,,,,,,,,,,,,,,,,,,,,,,,,,,,,,,,,,,,,,,,,,,,,,,,,,,,,,,,,,,,,,,,,,,,,,,,,,,,,,,,,,,,,,,,,,,
,,659d54e4e2c15f109cc1353d,2024-02-22_24h28.10.142,kallum_motion_pilot,2023.2.2,Win32,59.88023952,659d54e4e2c15f109cc1353d,65d6bb0e977760de756971f7,65d6bf2a0257de93fd730165,0.0792,0.0794,1,61,223,150,1,eightsix,,,,,,,,,,,,,,,,,,,,,,,,,,,,,,,,,,,,,,,,,,,,,,,,,,,,,,,,,,,,,,,,,,,,,,,,,,,,,,,,,,,,,,,,,,,,,,,,,,,,,,,,,,,,,,,,,,,,,,,,,,,,,,,,,,,,,,,,,
,,659d54e4e2c15f109cc1353d,2024-02-22_24h28.10.142,kallum_motion_pilot,2023.2.2,Win32,59.88023952,659d54e4e2c15f109cc1353d,65d6bb0e977760de756971f7,65d6bf2a0257de93fd730165,0.0795,0.0795,1,62,224,27,1,twofour,,,,,,,,,,,,,,,,,,,,,,,,,,,,,,,,,,,,,,,,,,,,,,,,,,,,,,,,,,,,,,,,,,,,,,,,,,,,,,,,,,,,,,,,,,,,,,,,,,,,,,,,,,,,,,,,,,,,,,,,,,,,,,,,,,,,,,,,,
,,659d54e4e2c15f109cc1353d,2024-02-22_24h28.10.142,kallum_motion_pilot,2023.2.2,Win32,59.88023952,659d54e4e2c15f109cc1353d,65d6bb0e977760de756971f7,65d6bf2a0257de93fd730165,0.0796,0.0797,1,63,225,155,1,sixeight,,,,,,,,,,,,,,,,,,,,,,,,,,,,,,,,,,,,,,,,,,,,,,,,,,,,,,,,,,,,,,,,,,,,,,,,,,,,,,,,,,,,,,,,,,,,,,,,,,,,,,,,,,,,,,,,,,,,,,,,,,,,,,,,,,,,,,,,,
,,659d54e4e2c15f109cc1353d,2024-02-22_24h28.10.142,kallum_motion_pilot,2023.2.2,Win32,59.88023952,659d54e4e2c15f109cc1353d,65d6bb0e977760de756971f7,65d6bf2a0257de93fd730165,0.0799,0.08,1,64,226,14,1,fourtwo,,,,,,,,,,,,,,,,,,,,,,,,,,,,,,,,,,,,,,,,,,,,,,,,,,,,,,,,,,,,,,,,,,,,,,,,,,,,,,,,,,,,,,,,,,,,,,,,,,,,,,,,,,,,,,,,,,,,,,,,,,,,,,,,,,,,,,,,,
,,659d54e4e2c15f109cc1353d,2024-02-22_24h28.10.142,kallum_motion_pilot,2023.2.2,Win32,59.88023952,659d54e4e2c15f109cc1353d,65d6bb0e977760de756971f7,65d6bf2a0257de93fd730165,0.08,0.0802,1,65,227,31,1,fourthree,,,,,,,,,,,,,,,,,,,,,,,,,,,,,,,,,,,,,,,,,,,,,,,,,,,,,,,,,,,,,,,,,,,,,,,,,,,,,,,,,,,,,,,,,,,,,,,,,,,,,,,,,,,,,,,,,,,,,,,,,,,,,,,,,,,,,,,,,
,,659d54e4e2c15f109cc1353d,2024-02-22_24h28.10.142,kallum_motion_pilot,2023.2.2,Win32,59.88023952,659d54e4e2c15f109cc1353d,65d6bb0e977760de756971f7,65d6bf2a0257de93fd730165,0.0803,0.0804,1,66,228,118,1,eightsix,,,,,,,,,,,,,,,,,,,,,,,,,,,,,,,,,,,,,,,,,,,,,,,,,,,,,,,,,,,,,,,,,,,,,,,,,,,,,,,,,,,,,,,,,,,,,,,,,,,,,,,,,,,,,,,,,,,,,,,,,,,,,,,,,,,,,,,,,
,,659d54e4e2c15f109cc1353d,2024-02-22_24h28.10.142,kallum_motion_pilot,2023.2.2,Win32,59.88023952,659d54e4e2c15f109cc1353d,65d6bb0e977760de756971f7,65d6bf2a0257de93fd730165,0.0806,0.0806,1,67,229,41,1,onethree,,,,,,,,,,,,,,,,,,,,,,,,,,,,,,,,,,,,,,,,,,,,,,,,,,,,,,,,,,,,,,,,,,,,,,,,,,,,,,,,,,,,,,,,,,,,,,,,,,,,,,,,,,,,,,,,,,,,,,,,,,,,,,,,,,,,,,,,,
,,659d54e4e2c15f109cc1353d,2024-02-22_24h28.10.142,kallum_motion_pilot,2023.2.2,Win32,59.88023952,659d54e4e2c15f109cc1353d,65d6bb0e977760de756971f7,65d6bf2a0257de93fd730165,0.0807,0.0808,1,68,230,104,1,fivesix,,,,,,,,,,,,,,,,,,,,,,,,,,,,,,,,,,,,,,,,,,,,,,,,,,,,,,,,,,,,,,,,,,,,,,,,,,,,,,,,,,,,,,,,,,,,,,,,,,,,,,,,,,,,,,,,,,,,,,,,,,,,,,,,,,,,,,,,,
,,659d54e4e2c15f109cc1353d,2024-02-22_24h28.10.142,kallum_motion_pilot,2023.2.2,Win32,59.88023952,659d54e4e2c15f109cc1353d,65d6bb0e977760de756971f7,65d6bf2a0257de93fd730165,0.081,0.0811,1,69,231,61,1,threefour,,,,,,,,,,,,,,,,,,,,,,,,,,,,,,,,,,,,,,,,,,,,,,,,,,,,,,,,,,,,,,,,,,,,,,,,,,,,,,,,,,,,,,,,,,,,,,,,,,,,,,,,,,,,,,,,,,,,,,,,,,,,,,,,,,,,,,,,,
,,659d54e4e2c15f109cc1353d,2024-02-22_24h28.10.142,kallum_motion_pilot,2023.2.2,Win32,59.88023952,659d54e4e2c15f109cc1353d,65d6bb0e977760de756971f7,65d6bf2a0257de93fd730165,0.0812,0.0813,1,70,232,72,1,onetwo,,,,,,,,,,,,,,,,,,,,,,,,,,,,,,,,,,,,,,,,,,,,,,,,,,,,,,,,,,,,,,,,,,,,,,,,,,,,,,,,,,,,,,,,,,,,,,,,,,,,,,,,,,,,,,,,,,,,,,,,,,,,,,,,,,,,,,,,,
,,659d54e4e2c15f109cc1353d,2024-02-22_24h28.10.142,kallum_motion_pilot,2023.2.2,Win32,59.88023952,659d54e4e2c15f109cc1353d,65d6bb0e977760de756971f7,65d6bf2a0257de93fd730165,0.0814,0.0815,1,71,233,124,1,sevenfive,,,,,,,,,,,,,,,,,,,,,,,,,,,,,,,,,,,,,,,,,,,,,,,,,,,,,,,,,,,,,,,,,,,,,,,,,,,,,,,,,,,,,,,,,,,,,,,,,,,,,,,,,,,,,,,,,,,,,,,,,,,,,,,,,,,,,,,,,
,,659d54e4e2c15f109cc1353d,2024-02-22_24h28.10.142,kallum_motion_pilot,2023.2.2,Win32,59.88023952,659d54e4e2c15f109cc1353d,65d6bb0e977760de756971f7,65d6bf2a0257de93fd730165,0.0817,0.0817,1,72,234,22,1,fourtwo,,,,,,,,,,,,,,,,,,,,,,,,,,,,,,,,,,,,,,,,,,,,,,,,,,,,,,,,,,,,,,,,,,,,,,,,,,,,,,,,,,,,,,,,,,,,,,,,,,,,,,,,,,,,,,,,,,,,,,,,,,,,,,,,,,,,,,,,,
,,659d54e4e2c15f109cc1353d,2024-02-22_24h28.10.142,kallum_motion_pilot,2023.2.2,Win32,59.88023952,659d54e4e2c15f109cc1353d,65d6bb0e977760de756971f7,65d6bf2a0257de93fd730165,0.0818,0.0819,1,73,235,138,1,sixfive,,,,,,,,,,,,,,,,,,,,,,,,,,,,,,,,,,,,,,,,,,,,,,,,,,,,,,,,,,,,,,,,,,,,,,,,,,,,,,,,,,,,,,,,,,,,,,,,,,,,,,,,,,,,,,,,,,,,,,,,,,,,,,,,,,,,,,,,,
,,659d54e4e2c15f109cc1353d,2024-02-22_24h28.10.142,kallum_motion_pilot,2023.2.2,Win32,59.88023952,659d54e4e2c15f109cc1353d,65d6bb0e977760de756971f7,65d6bf2a0257de93fd730165,0.0821,0.0821,1,74,236,84,1,sevenfive,,,,,,,,,,,,,,,,,,,,,,,,,,,,,,,,,,,,,,,,,,,,,,,,,,,,,,,,,,,,,,,,,,,,,,,,,,,,,,,,,,,,,,,,,,,,,,,,,,,,,,,,,,,,,,,,,,,,,,,,,,,,,,,,,,,,,,,,,
,,659d54e4e2c15f109cc1353d,2024-02-22_24h28.10.142,kallum_motion_pilot,2023.2.2,Win32,59.88023952,659d54e4e2c15f109cc1353d,65d6bb0e977760de756971f7,65d6bf2a0257de93fd730165,0.0823,0.0824,1,75,237,119,1,eightseven,,,,,,,,,,,,,,,,,,,,,,,,,,,,,,,,,,,,,,,,,,,,,,,,,,,,,,,,,,,,,,,,,,,,,,,,,,,,,,,,,,,,,,,,,,,,,,,,,,,,,,,,,,,,,,,,,,,,,,,,,,,,,,,,,,,,,,,,,
,,659d54e4e2c15f109cc1353d,2024-02-22_24h28.10.142,kallum_motion_pilot,2023.2.2,Win32,59.88023952,659d54e4e2c15f109cc1353d,65d6bb0e977760de756971f7,65d6bf2a0257de93fd730165,0.0824,0.0826,1,76,238,109,1,seveneight,,,,,,,,,,,,,,,,,,,,,,,,,,,,,,,,,,,,,,,,,,,,,,,,,,,,,,,,,,,,,,,,,,,,,,,,,,,,,,,,,,,,,,,,,,,,,,,,,,,,,,,,,,,,,,,,,,,,,,,,,,,,,,,,,,,,,,,,,
,,659d54e4e2c15f109cc1353d,2024-02-22_24h28.10.142,kallum_motion_pilot,2023.2.2,Win32,59.88023952,659d54e4e2c15f109cc1353d,65d6bb0e977760de756971f7,65d6bf2a0257de93fd730165,0.0827,0.0828,1,77,239,123,1,sixeight,,,,,,,,,,,,,,,,,,,,,,,,,,,,,,,,,,,,,,,,,,,,,,,,,,,,,,,,,,,,,,,,,,,,,,,,,,,,,,,,,,,,,,,,,,,,,,,,,,,,,,,,,,,,,,,,,,,,,,,,,,,,,,,,,,,,,,,,,
,,659d54e4e2c15f109cc1353d,2024-02-22_24h28.10.142,kallum_motion_pilot,2023.2.2,Win32,59.88023952,659d54e4e2c15f109cc1353d,65d6bb0e977760de756971f7,65d6bf2a0257de93fd730165,0.0829,0.083,1,78,240,160,1,fivesix,,,,,,,,,,,,,,,,,,,,,,,,,,,,,,,,,,,,,,,,,,,,,,,,,,,,,,,,,,,,,,,,,,,,,,,,,,,,,,,,,,,,,,,,,,,,,,,,,,,,,,,,,,,,,,,,,,,,,,,,,,,,,,,,,,,,,,,,,
,,659d54e4e2c15f109cc1353d,2024-02-22_24h28.10.142,kallum_motion_pilot,2023.2.2,Win32,59.88023952,659d54e4e2c15f109cc1353d,65d6bb0e977760de756971f7,65d6bf2a0257de93fd730165,0.0831,0.0832,1,79,241,151,1,eightseven,,,,,,,,,,,,,,,,,,,,,,,,,,,,,,,,,,,,,,,,,,,,,,,,,,,,,,,,,,,,,,,,,,,,,,,,,,,,,,,,,,,,,,,,,,,,,,,,,,,,,,,,,,,,,,,,,,,,,,,,,,,,,,,,,,,,,,,,,
,,659d54e4e2c15f109cc1353d,2024-02-22_24h28.10.142,kallum_motion_pilot,2023.2.2,Win32,59.88023952,659d54e4e2c15f109cc1353d,65d6bb0e977760de756971f7,65d6bf2a0257de93fd730165,0.0833,0.0834,1,80,242,143,1,eightseven,,,,,,,,,,,,,,,,,,,,,,,,,,,,,,,,,,,,,,,,,,,,,,,,,,,,,,,,,,,,,,,,,,,,,,,,,,,,,,,,,,,,,,,,,,,,,,,,,,,,,,,,,,,,,,,,,,,,,,,,,,,,,,,,,,,,,,,,,
,,659d54e4e2c15f109cc1353d,2024-02-22_24h28.10.142,kallum_motion_pilot,2023.2.2,Win32,59.88023952,659d54e4e2c15f109cc1353d,65d6bb0e977760de756971f7,65d6bf2a0257de93fd730165,0.0834,0.0836,1,81,243,128,1,fivesix,,,,,,,,,,,,,,,,,,,,,,,,,,,,,,,,,,,,,,,,,,,,,,,,,,,,,,,,,,,,,,,,,,,,,,,,,,,,,,,,,,,,,,,,,,,,,,,,,,,,,,,,,,,,,,,,,,,,,,,,,,,,,,,,,,,,,,,,,
,,659d54e4e2c15f109cc1353d,2024-02-22_24h28.10.142,kallum_motion_pilot,2023.2.2,Win32,59.88023952,659d54e4e2c15f109cc1353d,65d6bb0e977760de756971f7,65d6bf2a0257de93fd730165,0.0837,0.0837,1,82,244,63,1,fourthree,,,,,,,,,,,,,,,,,,,,,,,,,,,,,,,,,,,,,,,,,,,,,,,,,,,,,,,,,,,,,,,,,,,,,,,,,,,,,,,,,,,,,,,,,,,,,,,,,,,,,,,,,,,,,,,,,,,,,,,,,,,,,,,,,,,,,,,,,
,,659d54e4e2c15f109cc1353d,2024-02-22_24h28.10.142,kallum_motion_pilot,2023.2.2,Win32,59.88023952,659d54e4e2c15f109cc1353d,65d6bb0e977760de756971f7,65d6bf2a0257de93fd730165,0.0839,0.084,1,83,245,25,1,onethree,,,,,,,,,,,,,,,,,,,,,,,,,,,,,,,,,,,,,,,,,,,,,,,,,,,,,,,,,,,,,,,,,,,,,,,,,,,,,,,,,,,,,,,,,,,,,,,,,,,,,,,,,,,,,,,,,,,,,,,,,,,,,,,,,,,,,,,,,
,,659d54e4e2c15f109cc1353d,2024-02-22_24h28.10.142,kallum_motion_pilot,2023.2.2,Win32,59.88023952,659d54e4e2c15f109cc1353d,65d6bb0e977760de756971f7,65d6bf2a0257de93fd730165,0.0842,0.0842,1,84,246,126,1,eightsix,,,,,,,,,,,,,,,,,,,,,,,,,,,,,,,,,,,,,,,,,,,,,,,,,,,,,,,,,,,,,,,,,,,,,,,,,,,,,,,,,,,,,,,,,,,,,,,,,,,,,,,,,,,,,,,,,,,,,,,,,,,,,,,,,,,,,,,,,
,,659d54e4e2c15f109cc1353d,2024-02-22_24h28.10.142,kallum_motion_pilot,2023.2.2,Win32,59.88023952,659d54e4e2c15f109cc1353d,65d6bb0e977760de756971f7,65d6bf2a0257de93fd730165,0.0843,0.0845,1,85,247,35,1,twofour,,,,,,,,,,,,,,,,,,,,,,,,,,,,,,,,,,,,,,,,,,,,,,,,,,,,,,,,,,,,,,,,,,,,,,,,,,,,,,,,,,,,,,,,,,,,,,,,,,,,,,,,,,,,,,,,,,,,,,,,,,,,,,,,,,,,,,,,,
,,659d54e4e2c15f109cc1353d,2024-02-22_24h28.10.142,kallum_motion_pilot,2023.2.2,Win32,59.88023952,659d54e4e2c15f109cc1353d,65d6bb0e977760de756971f7,65d6bf2a0257de93fd730165,0.0846,0.0847,1,86,248,116,1,sevenfive,,,,,,,,,,,,,,,,,,,,,,,,,,,,,,,,,,,,,,,,,,,,,,,,,,,,,,,,,,,,,,,,,,,,,,,,,,,,,,,,,,,,,,,,,,,,,,,,,,,,,,,,,,,,,,,,,,,,,,,,,,,,,,,,,,,,,,,,,
,,659d54e4e2c15f109cc1353d,2024-02-22_24h28.10.142,kallum_motion_pilot,2023.2.2,Win32,59.88023952,659d54e4e2c15f109cc1353d,65d6bb0e977760de756971f7,65d6bf2a0257de93fd730165,0.0848,0.0848,1,87,249,117,1,seveneight,,,,,,,,,,,,,,,,,,,,,,,,,,,,,,,,,,,,,,,,,,,,,,,,,,,,,,,,,,,,,,,,,,,,,,,,,,,,,,,,,,,,,,,,,,,,,,,,,,,,,,,,,,,,,,,,,,,,,,,,,,,,,,,,,,,,,,,,,
,,659d54e4e2c15f109cc1353d,2024-02-22_24h28.10.142,kallum_motion_pilot,2023.2.2,Win32,59.88023952,659d54e4e2c15f109cc1353d,65d6bb0e977760de756971f7,65d6bf2a0257de93fd730165,0.0849,0.085,1,88,250,60,1,threeone,,,,,,,,,,,,,,,,,,,,,,,,,,,,,,,,,,,,,,,,,,,,,,,,,,,,,,,,,,,,,,,,,,,,,,,,,,,,,,,,,,,,,,,,,,,,,,,,,,,,,,,,,,,,,,,,,,,,,,,,,,,,,,,,,,,,,,,,,
,,659d54e4e2c15f109cc1353d,2024-02-22_24h28.10.142,kallum_motion_pilot,2023.2.2,Win32,59.88023952,659d54e4e2c15f109cc1353d,65d6bb0e977760de756971f7,65d6bf2a0257de93fd730165,0.0852,0.0852,1,89,251,99,1,sixeight,,,,,,,,,,,,,,,,,,,,,,,,,,,,,,,,,,,,,,,,,,,,,,,,,,,,,,,,,,,,,,,,,,,,,,,,,,,,,,,,,,,,,,,,,,,,,,,,,,,,,,,,,,,,,,,,,,,,,,,,,,,,,,,,,,,,,,,,,
,,659d54e4e2c15f109cc1353d,2024-02-22_24h28.10.142,kallum_motion_pilot,2023.2.2,Win32,59.88023952,659d54e4e2c15f109cc1353d,65d6bb0e977760de756971f7,65d6bf2a0257de93fd730165,0.0854,0.0855,1,90,252,112,1,fivesix,,,,,,,,,,,,,,,,,,,,,,,,,,,,,,,,,,,,,,,,,,,,,,,,,,,,,,,,,,,,,,,,,,,,,,,,,,,,,,,,,,,,,,,,,,,,,,,,,,,,,,,,,,,,,,,,,,,,,,,,,,,,,,,,,,,,,,,,,
,,659d54e4e2c15f109cc1353d,2024-02-22_24h28.10.142,kallum_motion_pilot,2023.2.2,Win32,59.88023952,659d54e4e2c15f109cc1353d,65d6bb0e977760de756971f7,65d6bf2a0257de93fd730165,0.0855,0.0857,1,91,253,16,1,onetwo,,,,,,,,,,,,,,,,,,,,,,,,,,,,,,,,,,,,,,,,,,,,,,,,,,,,,,,,,,,,,,,,,,,,,,,,,,,,,,,,,,,,,,,,,,,,,,,,,,,,,,,,,,,,,,,,,,,,,,,,,,,,,,,,,,,,,,,,,
,,659d54e4e2c15f109cc1353d,2024-02-22_24h28.10.142,kallum_motion_pilot,2023.2.2,Win32,59.88023952,659d54e4e2c15f109cc1353d,65d6bb0e977760de756971f7,65d6bf2a0257de93fd730165,0.0858,0.0859,1,92,254,69,1,threefour,,,,,,,,,,,,,,,,,,,,,,,,,,,,,,,,,,,,,,,,,,,,,,,,,,,,,,,,,,,,,,,,,,,,,,,,,,,,,,,,,,,,,,,,,,,,,,,,,,,,,,,,,,,,,,,,,,,,,,,,,,,,,,,,,,,,,,,,,
,,659d54e4e2c15f109cc1353d,2024-02-22_24h28.10.142,kallum_motion_pilot,2023.2.2,Win32,59.88023952,659d54e4e2c15f109cc1353d,65d6bb0e977760de756971f7,65d6bf2a0257de93fd730165,0.086,0.0862,1,93,255,33,1,onethree,,,,,,,,,,,,,,,,,,,,,,,,,,,,,,,,,,,,,,,,,,,,,,,,,,,,,,,,,,,,,,,,,,,,,,,,,,,,,,,,,,,,,,,,,,,,,,,,,,,,,,,,,,,,,,,,,,,,,,,,,,,,,,,,,,,,,,,,,
,,659d54e4e2c15f109cc1353d,2024-02-22_24h28.10.142,kallum_motion_pilot,2023.2.2,Win32,59.88023952,659d54e4e2c15f109cc1353d,65d6bb0e977760de756971f7,65d6bf2a0257de93fd730165,0.0863,0.0869,1,94,256,161,1,fiveseven,,,,,,,,,,,,,,,,,,,,,,,,,,,,,,,,,,,,,,,,,,,,,,,,,,,,,,,,,,,,,,,,,,,,,,,,,,,,,,,,,,,,,,,,,,,,,,,,,,,,,,,,,,,,,,,,,,,,,,,,,,,,,,,,,,,,,,,,,
,,659d54e4e2c15f109cc1353d,2024-02-22_24h28.10.142,kallum_motion_pilot,2023.2.2,Win32,59.88023952,659d54e4e2c15f109cc1353d,65d6bb0e977760de756971f7,65d6bf2a0257de93fd730165,0.0872,0.0874,1,95,257,98,1,sixfive,,,,,,,,,,,,,,,,,,,,,,,,,,,,,,,,,,,,,,,,,,,,,,,,,,,,,,,,,,,,,,,,,,,,,,,,,,,,,,,,,,,,,,,,,,,,,,,,,,,,,,,,,,,,,,,,,,,,,,,,,,,,,,,,,,,,,,,,,
,,659d54e4e2c15f109cc1353d,2024-02-22_24h28.10.142,kallum_motion_pilot,2023.2.2,Win32,59.88023952,659d54e4e2c15f109cc1353d,65d6bb0e977760de756971f7,65d6bf2a0257de93fd730165,0.0875,0.0876,1,96,258,147,1,sixeight,,,,,,,,,,,,,,,,,,,,,,,,,,,,,,,,,,,,,,,,,,,,,,,,,,,,,,,,,,,,,,,,,,,,,,,,,,,,,,,,,,,,,,,,,,,,,,,,,,,,,,,,,,,,,,,,,,,,,,,,,,,,,,,,,,,,,,,,,
,,659d54e4e2c15f109cc1353d,2024-02-22_24h28.10.142,kallum_motion_pilot,2023.2.2,Win32,59.88023952,659d54e4e2c15f109cc1353d,65d6bb0e977760de756971f7,65d6bf2a0257de93fd730165,0.0877,0.0879,1,97,259,76,1,threeone,,,,,,,,,,,,,,,,,,,,,,,,,,,,,,,,,,,,,,,,,,,,,,,,,,,,,,,,,,,,,,,,,,,,,,,,,,,,,,,,,,,,,,,,,,,,,,,,,,,,,,,,,,,,,,,,,,,,,,,,,,,,,,,,,,,,,,,,,
,,659d54e4e2c15f109cc1353d,2024-02-22_24h28.10.142,kallum_motion_pilot,2023.2.2,Win32,59.88023952,659d54e4e2c15f109cc1353d,65d6bb0e977760de756971f7,65d6bf2a0257de93fd730165,0.088,0.0881,1,98,260,8,1,onetwo,,,,,,,,,,,,,,,,,,,,,,,,,,,,,,,,,,,,,,,,,,,,,,,,,,,,,,,,,,,,,,,,,,,,,,,,,,,,,,,,,,,,,,,,,,,,,,,,,,,,,,,,,,,,,,,,,,,,,,,,,,,,,,,,,,,,,,,,,
,,659d54e4e2c15f109cc1353d,2024-02-22_24h28.10.142,kallum_motion_pilot,2023.2.2,Win32,59.88023952,659d54e4e2c15f109cc1353d,65d6bb0e977760de756971f7,65d6bf2a0257de93fd730165,0.0883,0.0884,1,99,261,67,1,twofour,,,,,,,,,,,,,,,,,,,,,,,,,,,,,,,,,,,,,,,,,,,,,,,,,,,,,,,,,,,,,,,,,,,,,,,,,,,,,,,,,,,,,,,,,,,,,,,,,,,,,,,,,,,,,,,,,,,,,,,,,,,,,,,,,,,,,,,,,
,,659d54e4e2c15f109cc1353d,2024-02-22_24h28.10.142,kallum_motion_pilot,2023.2.2,Win32,59.88023952,659d54e4e2c15f109cc1353d,65d6bb0e977760de756971f7,65d6bf2a0257de93fd730165,0.0885,0.0886,1,100,262,145,1,fiveseven,,,,,,,,,,,,,,,,,,,,,,,,,,,,,,,,,,,,,,,,,,,,,,,,,,,,,,,,,,,,,,,,,,,,,,,,,,,,,,,,,,,,,,,,,,,,,,,,,,,,,,,,,,,,,,,,,,,,,,,,,,,,,,,,,,,,,,,,,
,,659d54e4e2c15f109cc1353d,2024-02-22_24h28.10.142,kallum_motion_pilot,2023.2.2,Win32,59.88023952,659d54e4e2c15f109cc1353d,65d6bb0e977760de756971f7,65d6bf2a0257de93fd730165,0.0887,0.0887,1,101,263,149,1,seveneight,,,,,,,,,,,,,,,,,,,,,,,,,,,,,,,,,,,,,,,,,,,,,,,,,,,,,,,,,,,,,,,,,,,,,,,,,,,,,,,,,,,,,,,,,,,,,,,,,,,,,,,,,,,,,,,,,,,,,,,,,,,,,,,,,,,,,,,,,
,,659d54e4e2c15f109cc1353d,2024-02-22_24h28.10.142,kallum_motion_pilot,2023.2.2,Win32,59.88023952,659d54e4e2c15f109cc1353d,65d6bb0e977760de756971f7,65d6bf2a0257de93fd730165,0.089,0.0891,1,102,264,122,1,sixfive,,,,,,,,,,,,,,,,,,,,,,,,,,,,,,,,,,,,,,,,,,,,,,,,,,,,,,,,,,,,,,,,,,,,,,,,,,,,,,,,,,,,,,,,,,,,,,,,,,,,,,,,,,,,,,,,,,,,,,,,,,,,,,,,,,,,,,,,,
,,659d54e4e2c15f109cc1353d,2024-02-22_24h28.10.142,kallum_motion_pilot,2023.2.2,Win32,59.88023952,659d54e4e2c15f109cc1353d,65d6bb0e977760de756971f7,65d6bf2a0257de93fd730165,0.0892,0.0894,1,103,265,132,1,sevenfive,,,,,,,,,,,,,,,,,,,,,,,,,,,,,,,,,,,,,,,,,,,,,,,,,,,,,,,,,,,,,,,,,,,,,,,,,,,,,,,,,,,,,,,,,,,,,,,,,,,,,,,,,,,,,,,,,,,,,,,,,,,,,,,,,,,,,,,,,
,,659d54e4e2c15f109cc1353d,2024-02-22_24h28.10.142,kallum_motion_pilot,2023.2.2,Win32,59.88023952,659d54e4e2c15f109cc1353d,65d6bb0e977760de756971f7,65d6bf2a0257de93fd730165,0.0895,0.0896,1,104,266,66,1,twoone,,,,,,,,,,,,,,,,,,,,,,,,,,,,,,,,,,,,,,,,,,,,,,,,,,,,,,,,,,,,,,,,,,,,,,,,,,,,,,,,,,,,,,,,,,,,,,,,,,,,,,,,,,,,,,,,,,,,,,,,,,,,,,,,,,,,,,,,,
,,659d54e4e2c15f109cc1353d,2024-02-22_24h28.10.142,kallum_motion_pilot,2023.2.2,Win32,59.88023952,659d54e4e2c15f109cc1353d,65d6bb0e977760de756971f7,65d6bf2a0257de93fd730165,0.0906,0.0906,1,105,267,129,1,fiveseven,,,,,,,,,,,,,,,,,,,,,,,,,,,,,,,,,,,,,,,,,,,,,,,,,,,,,,,,,,,,,,,,,,,,,,,,,,,,,,,,,,,,,,,,,,,,,,,,,,,,,,,,,,,,,,,,,,,,,,,,,,,,,,,,,,,,,,,,,
,,659d54e4e2c15f109cc1353d,2024-02-22_24h28.10.142,kallum_motion_pilot,2023.2.2,Win32,59.88023952,659d54e4e2c15f109cc1353d,65d6bb0e977760de756971f7,65d6bf2a0257de93fd730165,0.0908,0.0908,1,106,268,105,1,fiveseven,,,,,,,,,,,,,,,,,,,,,,,,,,,,,,,,,,,,,,,,,,,,,,,,,,,,,,,,,,,,,,,,,,,,,,,,,,,,,,,,,,,,,,,,,,,,,,,,,,,,,,,,,,,,,,,,,,,,,,,,,,,,,,,,,,,,,,,,,
,,659d54e4e2c15f109cc1353d,2024-02-22_24h28.10.142,kallum_motion_pilot,2023.2.2,Win32,59.88023952,659d54e4e2c15f109cc1353d,65d6bb0e977760de756971f7,65d6bf2a0257de93fd730165,0.091,0.091,1,107,269,42,1,twoone,,,,,,,,,,,,,,,,,,,,,,,,,,,,,,,,,,,,,,,,,,,,,,,,,,,,,,,,,,,,,,,,,,,,,,,,,,,,,,,,,,,,,,,,,,,,,,,,,,,,,,,,,,,,,,,,,,,,,,,,,,,,,,,,,,,,,,,,,
,,659d54e4e2c15f109cc1353d,2024-02-22_24h28.10.142,kallum_motion_pilot,2023.2.2,Win32,59.88023952,659d54e4e2c15f109cc1353d,65d6bb0e977760de756971f7,65d6bf2a0257de93fd730165,0.0912,0.0913,1,108,270,47,1,fourthree,,,,,,,,,,,,,,,,,,,,,,,,,,,,,,,,,,,,,,,,,,,,,,,,,,,,,,,,,,,,,,,,,,,,,,,,,,,,,,,,,,,,,,,,,,,,,,,,,,,,,,,,,,,,,,,,,,,,,,,,,,,,,,,,,,,,,,,,,
,,659d54e4e2c15f109cc1353d,2024-02-22_24h28.10.142,kallum_motion_pilot,2023.2.2,Win32,59.88023952,659d54e4e2c15f109cc1353d,65d6bb0e977760de756971f7,65d6bf2a0257de93fd730165,0.0915,0.0915,1,109,271,139,1,sixeight,,,,,,,,,,,,,,,,,,,,,,,,,,,,,,,,,,,,,,,,,,,,,,,,,,,,,,,,,,,,,,,,,,,,,,,,,,,,,,,,,,,,,,,,,,,,,,,,,,,,,,,,,,,,,,,,,,,,,,,,,,,,,,,,,,,,,,,,,
,,659d54e4e2c15f109cc1353d,2024-02-22_24h28.10.142,kallum_motion_pilot,2023.2.2,Win32,59.88023952,659d54e4e2c15f109cc1353d,65d6bb0e977760de756971f7,65d6bf2a0257de93fd730165,0.0916,0.0917,1,110,272,82,1,sixfive,,,,,,,,,,,,,,,,,,,,,,,,,,,,,,,,,,,,,,,,,,,,,,,,,,,,,,,,,,,,,,,,,,,,,,,,,,,,,,,,,,,,,,,,,,,,,,,,,,,,,,,,,,,,,,,,,,,,,,,,,,,,,,,,,,,,,,,,,
,,659d54e4e2c15f109cc1353d,2024-02-22_24h28.10.142,kallum_motion_pilot,2023.2.2,Win32,59.88023952,659d54e4e2c15f109cc1353d,65d6bb0e977760de756971f7,65d6bf2a0257de93fd730165,0.0919,0.0919,1,111,273,49,1,onethree,,,,,,,,,,,,,,,,,,,,,,,,,,,,,,,,,,,,,,,,,,,,,,,,,,,,,,,,,,,,,,,,,,,,,,,,,,,,,,,,,,,,,,,,,,,,,,,,,,,,,,,,,,,,,,,,,,,,,,,,,,,,,,,,,,,,,,,,,
,,659d54e4e2c15f109cc1353d,2024-02-22_24h28.10.142,kallum_motion_pilot,2023.2.2,Win32,59.88023952,659d54e4e2c15f109cc1353d,65d6bb0e977760de756971f7,65d6bf2a0257de93fd730165,0.092,0.0922,1,112,274,158,1,eightsix,,,,,,,,,,,,,,,,,,,,,,,,,,,,,,,,,,,,,,,,,,,,,,,,,,,,,,,,,,,,,,,,,,,,,,,,,,,,,,,,,,,,,,,,,,,,,,,,,,,,,,,,,,,,,,,,,,,,,,,,,,,,,,,,,,,,,,,,,
,,659d54e4e2c15f109cc1353d,2024-02-22_24h28.10.142,kallum_motion_pilot,2023.2.2,Win32,59.88023952,659d54e4e2c15f109cc1353d,65d6bb0e977760de756971f7,65d6bf2a0257de93fd730165,0.0923,0.0924,1,113,275,114,1,sixfive,,,,,,,,,,,,,,,,,,,,,,,,,,,,,,,,,,,,,,,,,,,,,,,,,,,,,,,,,,,,,,,,,,,,,,,,,,,,,,,,,,,,,,,,,,,,,,,,,,,,,,,,,,,,,,,,,,,,,,,,,,,,,,,,,,,,,,,,,
,,659d54e4e2c15f109cc1353d,2024-02-22_24h28.10.142,kallum_motion_pilot,2023.2.2,Win32,59.88023952,659d54e4e2c15f109cc1353d,65d6bb0e977760de756971f7,65d6bf2a0257de93fd730165,0.0925,0.0926,1,114,276,28,1,threeone,,,,,,,,,,,,,,,,,,,,,,,,,,,,,,,,,,,,,,,,,,,,,,,,,,,,,,,,,,,,,,,,,,,,,,,,,,,,,,,,,,,,,,,,,,,,,,,,,,,,,,,,,,,,,,,,,,,,,,,,,,,,,,,,,,,,,,,,,
,,659d54e4e2c15f109cc1353d,2024-02-22_24h28.10.142,kallum_motion_pilot,2023.2.2,Win32,59.88023952,659d54e4e2c15f109cc1353d,65d6bb0e977760de756971f7,65d6bf2a0257de93fd730165,0.0927,0.0928,1,115,277,134,1,eightsix,,,,,,,,,,,,,,,,,,,,,,,,,,,,,,,,,,,,,,,,,,,,,,,,,,,,,,,,,,,,,,,,,,,,,,,,,,,,,,,,,,,,,,,,,,,,,,,,,,,,,,,,,,,,,,,,,,,,,,,,,,,,,,,,,,,,,,,,,
