startup.started,startup.stopped,Prolific ID*,date,expName,psychopyVersion,OS,frameRate,participant,study_id,session,stimpositions.started,stimpositions.stopped,hardcoded_stimulus_positions.thisRepN,hardcoded_stimulus_positions.thisTrialN,hardcoded_stimulus_positions.thisN,hardcoded_stimulus_positions.thisIndex,hardcoded_stimulus_positions.ran,StimulusPos,stimorientation.started,stimorientation.stopped,prac_stimorientation_import_loop.thisRepN,prac_stimorientation_import_loop.thisTrialN,prac_stimorientation_import_loop.thisN,prac_stimorientation_import_loop.thisIndex,prac_stimorientation_import_loop.ran,Stimorientation,welcome_instr.started,welcome_instr.stopped,key_resp.keys,key_resp.rt,key_resp.duration,response_steppedout_1.started,response_steppedout_1.stopped,key_resp_20.keys,key_resp_20.rt,key_resp_20.duration,response_steppedout_2.started,response_steppedout_2.stopped,key_resp_19.keys,key_resp_19.rt,key_resp_19.duration,stim_response_instr.started,stim_response_instr.stopped,key_resp_15.keys,key_resp_15.rt,key_resp_15.duration,direction_instr_2.started,direction_instr_2.stopped,key_resp_9.keys,key_resp_9.rt,key_resp_9.duration,instr_prac.started,instr_prac.stopped,key_resp_10.keys,key_resp_10.rt,key_resp_10.duration,Stim1_display_prac.started,Stim1_display_prac.stopped,Ecc,Circle1_ori,Circle2_ori,response_prac.started,similarity,response_time,response_prac.stopped,mouse_5.x,mouse_5.y,mouse_5.leftButton,mouse_5.midButton,mouse_5.rightButton,mouse_5.clicked_name,responseprac_feedback.started,responseprac_feedback.stopped,summary2_prac.started,summary2_prac.stopped,mouse_6.x,mouse_6.y,mouse_6.leftButton,mouse_6.midButton,mouse_6.rightButton,mouse_6.clicked_name,duringprac.thisRepN,duringprac.thisTrialN,duringprac.thisN,duringprac.thisIndex,duringprac.ran,begin.started,begin.stopped,key_resp_22.keys,key_resp_22.rt,key_resp_22.duration,Stim1_display.started,Stim1_display.stopped,circle1_ori,circle2_ori,circle1_SF,circle2_SF,response.started,response.stopped,mouse.x,mouse.y,mouse.leftButton,mouse.midButton,mouse.rightButton,mouse.clicked_name,trialnumber,double_pass.thisRepN,double_pass.thisTrialN,double_pass.thisN,double_pass.thisIndex,double_pass.ran,double_pass.order,main_trial.thisRepN,main_trial.thisTrialN,main_trial.thisN,main_trial.thisIndex,main_trial.ran,main_trial.order,Trial_Counter,Catch,Frequencies,response_2.started,response_2.stopped,mouse_2.x,mouse_2.y,mouse_2.leftButton,mouse_2.midButton,mouse_2.rightButton,mouse_2.clicked_name,special_trial.started,special_trial.stopped,catch_1.started,catch_1.stopped,mouse_3.x,mouse_3.y,mouse_3.leftButton,mouse_3.midButton,mouse_3.rightButton,catchresponse,catchnumber,response_time_catch,response_sum.started,response_sum.stopped,mouse_11.x,mouse_11.y,mouse_11.leftButton,mouse_11.midButton,mouse_11.rightButton,flip_presentation_sequence_for_double_pass.started,flip_presentation_sequence_for_double_pass.stopped,goodbye.started,goodbye.stopped,key_resp_3.keys,key_resp_3.rt,key_resp_3.duration
0.0027,0.0029,65a1b082ea682612b352ed1a,2024-02-22_14h17.44.831,kallum_motion_pilot,2023.2.2,MacIntel,59.84082341,65a1b082ea682612b352ed1a,65d6bb0e977760de756971f7,65d6bd1bcb0a17198e65b8b6,,,,,,,,,,,,,,,,,,,,,,,,,,,,,,,,,,,,,,,,,,,,,,,,,,,,,,,,,,,,,,,,,,,,,,,,,,,,,,,,,,,,,,,,,,,,,,,,,,,,,,,,,,,,,,,,,,,,,,,,,,,,,,,,,,,,,,,,,,,,,,,,,
,,65a1b082ea682612b352ed1a,2024-02-22_14h17.44.831,kallum_motion_pilot,2023.2.2,MacIntel,59.84082341,65a1b082ea682612b352ed1a,65d6bb0e977760de756971f7,65d6bd1bcb0a17198e65b8b6,0.06,0.0605,0,0,0,23,1,fourthree,,,,,,,,,,,,,,,,,,,,,,,,,,,,,,,,,,,,,,,,,,,,,,,,,,,,,,,,,,,,,,,,,,,,,,,,,,,,,,,,,,,,,,,,,,,,,,,,,,,,,,,,,,,,,,,,,,,,,,,,,,,,,,,,,,,,,,,,,
,,65a1b082ea682612b352ed1a,2024-02-22_14h17.44.831,kallum_motion_pilot,2023.2.2,MacIntel,59.84082341,65a1b082ea682612b352ed1a,65d6bb0e977760de756971f7,65d6bd1bcb0a17198e65b8b6,0.061,0.061,0,1,1,126,1,eightsix,,,,,,,,,,,,,,,,,,,,,,,,,,,,,,,,,,,,,,,,,,,,,,,,,,,,,,,,,,,,,,,,,,,,,,,,,,,,,,,,,,,,,,,,,,,,,,,,,,,,,,,,,,,,,,,,,,,,,,,,,,,,,,,,,,,,,,,,,
,,65a1b082ea682612b352ed1a,2024-02-22_14h17.44.831,kallum_motion_pilot,2023.2.2,MacIntel,59.84082341,65a1b082ea682612b352ed1a,65d6bb0e977760de756971f7,65d6bd1bcb0a17198e65b8b6,0.0612,0.0613,0,2,2,133,1,seveneight,,,,,,,,,,,,,,,,,,,,,,,,,,,,,,,,,,,,,,,,,,,,,,,,,,,,,,,,,,,,,,,,,,,,,,,,,,,,,,,,,,,,,,,,,,,,,,,,,,,,,,,,,,,,,,,,,,,,,,,,,,,,,,,,,,,,,,,,,
,,65a1b082ea682612b352ed1a,2024-02-22_14h17.44.831,kallum_motion_pilot,2023.2.2,MacIntel,59.84082341,65a1b082ea682612b352ed1a,65d6bb0e977760de756971f7,65d6bd1bcb0a17198e65b8b6,0.0616,0.0616,0,3,3,11,1,twofour,,,,,,,,,,,,,,,,,,,,,,,,,,,,,,,,,,,,,,,,,,,,,,,,,,,,,,,,,,,,,,,,,,,,,,,,,,,,,,,,,,,,,,,,,,,,,,,,,,,,,,,,,,,,,,,,,,,,,,,,,,,,,,,,,,,,,,,,,
,,65a1b082ea682612b352ed1a,2024-02-22_14h17.44.831,kallum_motion_pilot,2023.2.2,MacIntel,59.84082341,65a1b082ea682612b352ed1a,65d6bb0e977760de756971f7,65d6bd1bcb0a17198e65b8b6,0.0619,0.062,0,4,4,54,1,fourtwo,,,,,,,,,,,,,,,,,,,,,,,,,,,,,,,,,,,,,,,,,,,,,,,,,,,,,,,,,,,,,,,,,,,,,,,,,,,,,,,,,,,,,,,,,,,,,,,,,,,,,,,,,,,,,,,,,,,,,,,,,,,,,,,,,,,,,,,,,
,,65a1b082ea682612b352ed1a,2024-02-22_14h17.44.831,kallum_motion_pilot,2023.2.2,MacIntel,59.84082341,65a1b082ea682612b352ed1a,65d6bb0e977760de756971f7,65d6bd1bcb0a17198e65b8b6,0.0623,0.0624,0,5,5,9,1,onethree,,,,,,,,,,,,,,,,,,,,,,,,,,,,,,,,,,,,,,,,,,,,,,,,,,,,,,,,,,,,,,,,,,,,,,,,,,,,,,,,,,,,,,,,,,,,,,,,,,,,,,,,,,,,,,,,,,,,,,,,,,,,,,,,,,,,,,,,,
,,65a1b082ea682612b352ed1a,2024-02-22_14h17.44.831,kallum_motion_pilot,2023.2.2,MacIntel,59.84082341,65a1b082ea682612b352ed1a,65d6bb0e977760de756971f7,65d6bd1bcb0a17198e65b8b6,0.0627,0.0628,0,6,6,161,1,fiveseven,,,,,,,,,,,,,,,,,,,,,,,,,,,,,,,,,,,,,,,,,,,,,,,,,,,,,,,,,,,,,,,,,,,,,,,,,,,,,,,,,,,,,,,,,,,,,,,,,,,,,,,,,,,,,,,,,,,,,,,,,,,,,,,,,,,,,,,,,
,,65a1b082ea682612b352ed1a,2024-02-22_14h17.44.831,kallum_motion_pilot,2023.2.2,MacIntel,59.84082341,65a1b082ea682612b352ed1a,65d6bb0e977760de756971f7,65d6bd1bcb0a17198e65b8b6,0.063,0.063,0,7,7,53,1,threefour,,,,,,,,,,,,,,,,,,,,,,,,,,,,,,,,,,,,,,,,,,,,,,,,,,,,,,,,,,,,,,,,,,,,,,,,,,,,,,,,,,,,,,,,,,,,,,,,,,,,,,,,,,,,,,,,,,,,,,,,,,,,,,,,,,,,,,,,,
,,65a1b082ea682612b352ed1a,2024-02-22_14h17.44.831,kallum_motion_pilot,2023.2.2,MacIntel,59.84082341,65a1b082ea682612b352ed1a,65d6bb0e977760de756971f7,65d6bd1bcb0a17198e65b8b6,0.0634,0.0635,0,8,8,136,1,fivesix,,,,,,,,,,,,,,,,,,,,,,,,,,,,,,,,,,,,,,,,,,,,,,,,,,,,,,,,,,,,,,,,,,,,,,,,,,,,,,,,,,,,,,,,,,,,,,,,,,,,,,,,,,,,,,,,,,,,,,,,,,,,,,,,,,,,,,,,,
,,65a1b082ea682612b352ed1a,2024-02-22_14h17.44.831,kallum_motion_pilot,2023.2.2,MacIntel,59.84082341,65a1b082ea682612b352ed1a,65d6bb0e977760de756971f7,65d6bd1bcb0a17198e65b8b6,0.0638,0.0639,0,9,9,88,1,fivesix,,,,,,,,,,,,,,,,,,,,,,,,,,,,,,,,,,,,,,,,,,,,,,,,,,,,,,,,,,,,,,,,,,,,,,,,,,,,,,,,,,,,,,,,,,,,,,,,,,,,,,,,,,,,,,,,,,,,,,,,,,,,,,,,,,,,,,,,,
,,65a1b082ea682612b352ed1a,2024-02-22_14h17.44.831,kallum_motion_pilot,2023.2.2,MacIntel,59.84082341,65a1b082ea682612b352ed1a,65d6bb0e977760de756971f7,65d6bd1bcb0a17198e65b8b6,0.0642,0.0642,0,10,10,77,1,threefour,,,,,,,,,,,,,,,,,,,,,,,,,,,,,,,,,,,,,,,,,,,,,,,,,,,,,,,,,,,,,,,,,,,,,,,,,,,,,,,,,,,,,,,,,,,,,,,,,,,,,,,,,,,,,,,,,,,,,,,,,,,,,,,,,,,,,,,,,
,,65a1b082ea682612b352ed1a,2024-02-22_14h17.44.831,kallum_motion_pilot,2023.2.2,MacIntel,59.84082341,65a1b082ea682612b352ed1a,65d6bb0e977760de756971f7,65d6bd1bcb0a17198e65b8b6,0.0644,0.0644,0,11,11,57,1,onethree,,,,,,,,,,,,,,,,,,,,,,,,,,,,,,,,,,,,,,,,,,,,,,,,,,,,,,,,,,,,,,,,,,,,,,,,,,,,,,,,,,,,,,,,,,,,,,,,,,,,,,,,,,,,,,,,,,,,,,,,,,,,,,,,,,,,,,,,,
,,65a1b082ea682612b352ed1a,2024-02-22_14h17.44.831,kallum_motion_pilot,2023.2.2,MacIntel,59.84082341,65a1b082ea682612b352ed1a,65d6bb0e977760de756971f7,65d6bd1bcb0a17198e65b8b6,0.0647,0.0647,0,12,12,125,1,seveneight,,,,,,,,,,,,,,,,,,,,,,,,,,,,,,,,,,,,,,,,,,,,,,,,,,,,,,,,,,,,,,,,,,,,,,,,,,,,,,,,,,,,,,,,,,,,,,,,,,,,,,,,,,,,,,,,,,,,,,,,,,,,,,,,,,,,,,,,,
,,65a1b082ea682612b352ed1a,2024-02-22_14h17.44.831,kallum_motion_pilot,2023.2.2,MacIntel,59.84082341,65a1b082ea682612b352ed1a,65d6bb0e977760de756971f7,65d6bd1bcb0a17198e65b8b6,0.065,0.0651,0,13,13,65,1,onethree,,,,,,,,,,,,,,,,,,,,,,,,,,,,,,,,,,,,,,,,,,,,,,,,,,,,,,,,,,,,,,,,,,,,,,,,,,,,,,,,,,,,,,,,,,,,,,,,,,,,,,,,,,,,,,,,,,,,,,,,,,,,,,,,,,,,,,,,,
,,65a1b082ea682612b352ed1a,2024-02-22_14h17.44.831,kallum_motion_pilot,2023.2.2,MacIntel,59.84082341,65a1b082ea682612b352ed1a,65d6bb0e977760de756971f7,65d6bd1bcb0a17198e65b8b6,0.0653,0.0655,0,14,14,91,1,sixeight,,,,,,,,,,,,,,,,,,,,,,,,,,,,,,,,,,,,,,,,,,,,,,,,,,,,,,,,,,,,,,,,,,,,,,,,,,,,,,,,,,,,,,,,,,,,,,,,,,,,,,,,,,,,,,,,,,,,,,,,,,,,,,,,,,,,,,,,,
,,65a1b082ea682612b352ed1a,2024-02-22_14h17.44.831,kallum_motion_pilot,2023.2.2,MacIntel,59.84082341,65a1b082ea682612b352ed1a,65d6bb0e977760de756971f7,65d6bd1bcb0a17198e65b8b6,0.0656,0.0657,0,15,15,19,1,twofour,,,,,,,,,,,,,,,,,,,,,,,,,,,,,,,,,,,,,,,,,,,,,,,,,,,,,,,,,,,,,,,,,,,,,,,,,,,,,,,,,,,,,,,,,,,,,,,,,,,,,,,,,,,,,,,,,,,,,,,,,,,,,,,,,,,,,,,,,
,,65a1b082ea682612b352ed1a,2024-02-22_14h17.44.831,kallum_motion_pilot,2023.2.2,MacIntel,59.84082341,65a1b082ea682612b352ed1a,65d6bb0e977760de756971f7,65d6bd1bcb0a17198e65b8b6,0.0658,0.0659,0,16,16,121,1,fiveseven,,,,,,,,,,,,,,,,,,,,,,,,,,,,,,,,,,,,,,,,,,,,,,,,,,,,,,,,,,,,,,,,,,,,,,,,,,,,,,,,,,,,,,,,,,,,,,,,,,,,,,,,,,,,,,,,,,,,,,,,,,,,,,,,,,,,,,,,,
,,65a1b082ea682612b352ed1a,2024-02-22_14h17.44.831,kallum_motion_pilot,2023.2.2,MacIntel,59.84082341,65a1b082ea682612b352ed1a,65d6bb0e977760de756971f7,65d6bd1bcb0a17198e65b8b6,0.0661,0.0662,0,17,17,78,1,fourtwo,,,,,,,,,,,,,,,,,,,,,,,,,,,,,,,,,,,,,,,,,,,,,,,,,,,,,,,,,,,,,,,,,,,,,,,,,,,,,,,,,,,,,,,,,,,,,,,,,,,,,,,,,,,,,,,,,,,,,,,,,,,,,,,,,,,,,,,,,
,,65a1b082ea682612b352ed1a,2024-02-22_14h17.44.831,kallum_motion_pilot,2023.2.2,MacIntel,59.84082341,65a1b082ea682612b352ed1a,65d6bb0e977760de756971f7,65d6bd1bcb0a17198e65b8b6,0.0664,0.0665,0,18,18,44,1,threeone,,,,,,,,,,,,,,,,,,,,,,,,,,,,,,,,,,,,,,,,,,,,,,,,,,,,,,,,,,,,,,,,,,,,,,,,,,,,,,,,,,,,,,,,,,,,,,,,,,,,,,,,,,,,,,,,,,,,,,,,,,,,,,,,,,,,,,,,,
,,65a1b082ea682612b352ed1a,2024-02-22_14h17.44.831,kallum_motion_pilot,2023.2.2,MacIntel,59.84082341,65a1b082ea682612b352ed1a,65d6bb0e977760de756971f7,65d6bd1bcb0a17198e65b8b6,0.0667,0.0669,0,19,19,24,1,onetwo,,,,,,,,,,,,,,,,,,,,,,,,,,,,,,,,,,,,,,,,,,,,,,,,,,,,,,,,,,,,,,,,,,,,,,,,,,,,,,,,,,,,,,,,,,,,,,,,,,,,,,,,,,,,,,,,,,,,,,,,,,,,,,,,,,,,,,,,,
,,65a1b082ea682612b352ed1a,2024-02-22_14h17.44.831,kallum_motion_pilot,2023.2.2,MacIntel,59.84082341,65a1b082ea682612b352ed1a,65d6bb0e977760de756971f7,65d6bd1bcb0a17198e65b8b6,0.067,0.0672,0,20,20,70,1,fourtwo,,,,,,,,,,,,,,,,,,,,,,,,,,,,,,,,,,,,,,,,,,,,,,,,,,,,,,,,,,,,,,,,,,,,,,,,,,,,,,,,,,,,,,,,,,,,,,,,,,,,,,,,,,,,,,,,,,,,,,,,,,,,,,,,,,,,,,,,,
,,65a1b082ea682612b352ed1a,2024-02-22_14h17.44.831,kallum_motion_pilot,2023.2.2,MacIntel,59.84082341,65a1b082ea682612b352ed1a,65d6bb0e977760de756971f7,65d6bd1bcb0a17198e65b8b6,0.0674,0.0675,0,21,21,82,1,sixfive,,,,,,,,,,,,,,,,,,,,,,,,,,,,,,,,,,,,,,,,,,,,,,,,,,,,,,,,,,,,,,,,,,,,,,,,,,,,,,,,,,,,,,,,,,,,,,,,,,,,,,,,,,,,,,,,,,,,,,,,,,,,,,,,,,,,,,,,,
,,65a1b082ea682612b352ed1a,2024-02-22_14h17.44.831,kallum_motion_pilot,2023.2.2,MacIntel,59.84082341,65a1b082ea682612b352ed1a,65d6bb0e977760de756971f7,65d6bd1bcb0a17198e65b8b6,0.0677,0.0678,0,22,22,122,1,sixfive,,,,,,,,,,,,,,,,,,,,,,,,,,,,,,,,,,,,,,,,,,,,,,,,,,,,,,,,,,,,,,,,,,,,,,,,,,,,,,,,,,,,,,,,,,,,,,,,,,,,,,,,,,,,,,,,,,,,,,,,,,,,,,,,,,,,,,,,,
,,65a1b082ea682612b352ed1a,2024-02-22_14h17.44.831,kallum_motion_pilot,2023.2.2,MacIntel,59.84082341,65a1b082ea682612b352ed1a,65d6bb0e977760de756971f7,65d6bd1bcb0a17198e65b8b6,0.0681,0.0681,0,23,23,18,1,twoone,,,,,,,,,,,,,,,,,,,,,,,,,,,,,,,,,,,,,,,,,,,,,,,,,,,,,,,,,,,,,,,,,,,,,,,,,,,,,,,,,,,,,,,,,,,,,,,,,,,,,,,,,,,,,,,,,,,,,,,,,,,,,,,,,,,,,,,,,
,,65a1b082ea682612b352ed1a,2024-02-22_14h17.44.831,kallum_motion_pilot,2023.2.2,MacIntel,59.84082341,65a1b082ea682612b352ed1a,65d6bb0e977760de756971f7,65d6bd1bcb0a17198e65b8b6,0.0687,0.0688,0,24,24,34,1,twoone,,,,,,,,,,,,,,,,,,,,,,,,,,,,,,,,,,,,,,,,,,,,,,,,,,,,,,,,,,,,,,,,,,,,,,,,,,,,,,,,,,,,,,,,,,,,,,,,,,,,,,,,,,,,,,,,,,,,,,,,,,,,,,,,,,,,,,,,,
,,65a1b082ea682612b352ed1a,2024-02-22_14h17.44.831,kallum_motion_pilot,2023.2.2,MacIntel,59.84082341,65a1b082ea682612b352ed1a,65d6bb0e977760de756971f7,65d6bd1bcb0a17198e65b8b6,0.0692,0.0693,0,25,25,140,1,sevenfive,,,,,,,,,,,,,,,,,,,,,,,,,,,,,,,,,,,,,,,,,,,,,,,,,,,,,,,,,,,,,,,,,,,,,,,,,,,,,,,,,,,,,,,,,,,,,,,,,,,,,,,,,,,,,,,,,,,,,,,,,,,,,,,,,,,,,,,,,
,,65a1b082ea682612b352ed1a,2024-02-22_14h17.44.831,kallum_motion_pilot,2023.2.2,MacIntel,59.84082341,65a1b082ea682612b352ed1a,65d6bb0e977760de756971f7,65d6bd1bcb0a17198e65b8b6,0.0696,0.0696,0,26,26,98,1,sixfive,,,,,,,,,,,,,,,,,,,,,,,,,,,,,,,,,,,,,,,,,,,,,,,,,,,,,,,,,,,,,,,,,,,,,,,,,,,,,,,,,,,,,,,,,,,,,,,,,,,,,,,,,,,,,,,,,,,,,,,,,,,,,,,,,,,,,,,,,
,,65a1b082ea682612b352ed1a,2024-02-22_14h17.44.831,kallum_motion_pilot,2023.2.2,MacIntel,59.84082341,65a1b082ea682612b352ed1a,65d6bb0e977760de756971f7,65d6bd1bcb0a17198e65b8b6,0.07,0.0701,0,27,27,138,1,sixfive,,,,,,,,,,,,,,,,,,,,,,,,,,,,,,,,,,,,,,,,,,,,,,,,,,,,,,,,,,,,,,,,,,,,,,,,,,,,,,,,,,,,,,,,,,,,,,,,,,,,,,,,,,,,,,,,,,,,,,,,,,,,,,,,,,,,,,,,,
,,65a1b082ea682612b352ed1a,2024-02-22_14h17.44.831,kallum_motion_pilot,2023.2.2,MacIntel,59.84082341,65a1b082ea682612b352ed1a,65d6bb0e977760de756971f7,65d6bd1bcb0a17198e65b8b6,0.0706,0.0707,0,28,28,16,1,onetwo,,,,,,,,,,,,,,,,,,,,,,,,,,,,,,,,,,,,,,,,,,,,,,,,,,,,,,,,,,,,,,,,,,,,,,,,,,,,,,,,,,,,,,,,,,,,,,,,,,,,,,,,,,,,,,,,,,,,,,,,,,,,,,,,,,,,,,,,,
,,65a1b082ea682612b352ed1a,2024-02-22_14h17.44.831,kallum_motion_pilot,2023.2.2,MacIntel,59.84082341,65a1b082ea682612b352ed1a,65d6bb0e977760de756971f7,65d6bd1bcb0a17198e65b8b6,0.0712,0.0713,0,29,29,67,1,twofour,,,,,,,,,,,,,,,,,,,,,,,,,,,,,,,,,,,,,,,,,,,,,,,,,,,,,,,,,,,,,,,,,,,,,,,,,,,,,,,,,,,,,,,,,,,,,,,,,,,,,,,,,,,,,,,,,,,,,,,,,,,,,,,,,,,,,,,,,
,,65a1b082ea682612b352ed1a,2024-02-22_14h17.44.831,kallum_motion_pilot,2023.2.2,MacIntel,59.84082341,65a1b082ea682612b352ed1a,65d6bb0e977760de756971f7,65d6bd1bcb0a17198e65b8b6,0.0717,0.0718,0,30,30,47,1,fourthree,,,,,,,,,,,,,,,,,,,,,,,,,,,,,,,,,,,,,,,,,,,,,,,,,,,,,,,,,,,,,,,,,,,,,,,,,,,,,,,,,,,,,,,,,,,,,,,,,,,,,,,,,,,,,,,,,,,,,,,,,,,,,,,,,,,,,,,,,
,,65a1b082ea682612b352ed1a,2024-02-22_14h17.44.831,kallum_motion_pilot,2023.2.2,MacIntel,59.84082341,65a1b082ea682612b352ed1a,65d6bb0e977760de756971f7,65d6bd1bcb0a17198e65b8b6,0.0722,0.0723,0,31,31,62,1,fourtwo,,,,,,,,,,,,,,,,,,,,,,,,,,,,,,,,,,,,,,,,,,,,,,,,,,,,,,,,,,,,,,,,,,,,,,,,,,,,,,,,,,,,,,,,,,,,,,,,,,,,,,,,,,,,,,,,,,,,,,,,,,,,,,,,,,,,,,,,,
,,65a1b082ea682612b352ed1a,2024-02-22_14h17.44.831,kallum_motion_pilot,2023.2.2,MacIntel,59.84082341,65a1b082ea682612b352ed1a,65d6bb0e977760de756971f7,65d6bd1bcb0a17198e65b8b6,0.0726,0.0727,0,32,32,30,1,fourtwo,,,,,,,,,,,,,,,,,,,,,,,,,,,,,,,,,,,,,,,,,,,,,,,,,,,,,,,,,,,,,,,,,,,,,,,,,,,,,,,,,,,,,,,,,,,,,,,,,,,,,,,,,,,,,,,,,,,,,,,,,,,,,,,,,,,,,,,,,
,,65a1b082ea682612b352ed1a,2024-02-22_14h17.44.831,kallum_motion_pilot,2023.2.2,MacIntel,59.84082341,65a1b082ea682612b352ed1a,65d6bb0e977760de756971f7,65d6bd1bcb0a17198e65b8b6,0.0731,0.0732,0,33,33,153,1,fiveseven,,,,,,,,,,,,,,,,,,,,,,,,,,,,,,,,,,,,,,,,,,,,,,,,,,,,,,,,,,,,,,,,,,,,,,,,,,,,,,,,,,,,,,,,,,,,,,,,,,,,,,,,,,,,,,,,,,,,,,,,,,,,,,,,,,,,,,,,,
,,65a1b082ea682612b352ed1a,2024-02-22_14h17.44.831,kallum_motion_pilot,2023.2.2,MacIntel,59.84082341,65a1b082ea682612b352ed1a,65d6bb0e977760de756971f7,65d6bd1bcb0a17198e65b8b6,0.0735,0.0736,0,34,34,59,1,twofour,,,,,,,,,,,,,,,,,,,,,,,,,,,,,,,,,,,,,,,,,,,,,,,,,,,,,,,,,,,,,,,,,,,,,,,,,,,,,,,,,,,,,,,,,,,,,,,,,,,,,,,,,,,,,,,,,,,,,,,,,,,,,,,,,,,,,,,,,
,,65a1b082ea682612b352ed1a,2024-02-22_14h17.44.831,kallum_motion_pilot,2023.2.2,MacIntel,59.84082341,65a1b082ea682612b352ed1a,65d6bb0e977760de756971f7,65d6bd1bcb0a17198e65b8b6,0.074,0.074,0,35,35,43,1,twofour,,,,,,,,,,,,,,,,,,,,,,,,,,,,,,,,,,,,,,,,,,,,,,,,,,,,,,,,,,,,,,,,,,,,,,,,,,,,,,,,,,,,,,,,,,,,,,,,,,,,,,,,,,,,,,,,,,,,,,,,,,,,,,,,,,,,,,,,,
,,65a1b082ea682612b352ed1a,2024-02-22_14h17.44.831,kallum_motion_pilot,2023.2.2,MacIntel,59.84082341,65a1b082ea682612b352ed1a,65d6bb0e977760de756971f7,65d6bd1bcb0a17198e65b8b6,0.0743,0.0744,0,36,36,151,1,eightseven,,,,,,,,,,,,,,,,,,,,,,,,,,,,,,,,,,,,,,,,,,,,,,,,,,,,,,,,,,,,,,,,,,,,,,,,,,,,,,,,,,,,,,,,,,,,,,,,,,,,,,,,,,,,,,,,,,,,,,,,,,,,,,,,,,,,,,,,,
,,65a1b082ea682612b352ed1a,2024-02-22_14h17.44.831,kallum_motion_pilot,2023.2.2,MacIntel,59.84082341,65a1b082ea682612b352ed1a,65d6bb0e977760de756971f7,65d6bd1bcb0a17198e65b8b6,0.0747,0.0748,0,37,37,6,1,fourtwo,,,,,,,,,,,,,,,,,,,,,,,,,,,,,,,,,,,,,,,,,,,,,,,,,,,,,,,,,,,,,,,,,,,,,,,,,,,,,,,,,,,,,,,,,,,,,,,,,,,,,,,,,,,,,,,,,,,,,,,,,,,,,,,,,,,,,,,,,
,,65a1b082ea682612b352ed1a,2024-02-22_14h17.44.831,kallum_motion_pilot,2023.2.2,MacIntel,59.84082341,65a1b082ea682612b352ed1a,65d6bb0e977760de756971f7,65d6bd1bcb0a17198e65b8b6,0.0749,0.075,0,38,38,25,1,onethree,,,,,,,,,,,,,,,,,,,,,,,,,,,,,,,,,,,,,,,,,,,,,,,,,,,,,,,,,,,,,,,,,,,,,,,,,,,,,,,,,,,,,,,,,,,,,,,,,,,,,,,,,,,,,,,,,,,,,,,,,,,,,,,,,,,,,,,,,
,,65a1b082ea682612b352ed1a,2024-02-22_14h17.44.831,kallum_motion_pilot,2023.2.2,MacIntel,59.84082341,65a1b082ea682612b352ed1a,65d6bb0e977760de756971f7,65d6bd1bcb0a17198e65b8b6,0.0753,0.0753,0,39,39,79,1,eightseven,,,,,,,,,,,,,,,,,,,,,,,,,,,,,,,,,,,,,,,,,,,,,,,,,,,,,,,,,,,,,,,,,,,,,,,,,,,,,,,,,,,,,,,,,,,,,,,,,,,,,,,,,,,,,,,,,,,,,,,,,,,,,,,,,,,,,,,,,
,,65a1b082ea682612b352ed1a,2024-02-22_14h17.44.831,kallum_motion_pilot,2023.2.2,MacIntel,59.84082341,65a1b082ea682612b352ed1a,65d6bb0e977760de756971f7,65d6bd1bcb0a17198e65b8b6,0.0755,0.0757,0,40,40,145,1,fiveseven,,,,,,,,,,,,,,,,,,,,,,,,,,,,,,,,,,,,,,,,,,,,,,,,,,,,,,,,,,,,,,,,,,,,,,,,,,,,,,,,,,,,,,,,,,,,,,,,,,,,,,,,,,,,,,,,,,,,,,,,,,,,,,,,,,,,,,,,,
,,65a1b082ea682612b352ed1a,2024-02-22_14h17.44.831,kallum_motion_pilot,2023.2.2,MacIntel,59.84082341,65a1b082ea682612b352ed1a,65d6bb0e977760de756971f7,65d6bd1bcb0a17198e65b8b6,0.0759,0.0759,0,41,41,123,1,sixeight,,,,,,,,,,,,,,,,,,,,,,,,,,,,,,,,,,,,,,,,,,,,,,,,,,,,,,,,,,,,,,,,,,,,,,,,,,,,,,,,,,,,,,,,,,,,,,,,,,,,,,,,,,,,,,,,,,,,,,,,,,,,,,,,,,,,,,,,,
,,65a1b082ea682612b352ed1a,2024-02-22_14h17.44.831,kallum_motion_pilot,2023.2.2,MacIntel,59.84082341,65a1b082ea682612b352ed1a,65d6bb0e977760de756971f7,65d6bd1bcb0a17198e65b8b6,0.0761,0.0763,0,42,42,117,1,seveneight,,,,,,,,,,,,,,,,,,,,,,,,,,,,,,,,,,,,,,,,,,,,,,,,,,,,,,,,,,,,,,,,,,,,,,,,,,,,,,,,,,,,,,,,,,,,,,,,,,,,,,,,,,,,,,,,,,,,,,,,,,,,,,,,,,,,,,,,,
,,65a1b082ea682612b352ed1a,2024-02-22_14h17.44.831,kallum_motion_pilot,2023.2.2,MacIntel,59.84082341,65a1b082ea682612b352ed1a,65d6bb0e977760de756971f7,65d6bd1bcb0a17198e65b8b6,0.0767,0.0768,0,43,43,105,1,fiveseven,,,,,,,,,,,,,,,,,,,,,,,,,,,,,,,,,,,,,,,,,,,,,,,,,,,,,,,,,,,,,,,,,,,,,,,,,,,,,,,,,,,,,,,,,,,,,,,,,,,,,,,,,,,,,,,,,,,,,,,,,,,,,,,,,,,,,,,,,
,,65a1b082ea682612b352ed1a,2024-02-22_14h17.44.831,kallum_motion_pilot,2023.2.2,MacIntel,59.84082341,65a1b082ea682612b352ed1a,65d6bb0e977760de756971f7,65d6bd1bcb0a17198e65b8b6,0.077,0.0771,0,44,44,115,1,sixeight,,,,,,,,,,,,,,,,,,,,,,,,,,,,,,,,,,,,,,,,,,,,,,,,,,,,,,,,,,,,,,,,,,,,,,,,,,,,,,,,,,,,,,,,,,,,,,,,,,,,,,,,,,,,,,,,,,,,,,,,,,,,,,,,,,,,,,,,,
,,65a1b082ea682612b352ed1a,2024-02-22_14h17.44.831,kallum_motion_pilot,2023.2.2,MacIntel,59.84082341,65a1b082ea682612b352ed1a,65d6bb0e977760de756971f7,65d6bd1bcb0a17198e65b8b6,0.0773,0.0775,0,45,45,28,1,threeone,,,,,,,,,,,,,,,,,,,,,,,,,,,,,,,,,,,,,,,,,,,,,,,,,,,,,,,,,,,,,,,,,,,,,,,,,,,,,,,,,,,,,,,,,,,,,,,,,,,,,,,,,,,,,,,,,,,,,,,,,,,,,,,,,,,,,,,,,
,,65a1b082ea682612b352ed1a,2024-02-22_14h17.44.831,kallum_motion_pilot,2023.2.2,MacIntel,59.84082341,65a1b082ea682612b352ed1a,65d6bb0e977760de756971f7,65d6bd1bcb0a17198e65b8b6,0.0778,0.0778,0,46,46,94,1,eightsix,,,,,,,,,,,,,,,,,,,,,,,,,,,,,,,,,,,,,,,,,,,,,,,,,,,,,,,,,,,,,,,,,,,,,,,,,,,,,,,,,,,,,,,,,,,,,,,,,,,,,,,,,,,,,,,,,,,,,,,,,,,,,,,,,,,,,,,,,
,,65a1b082ea682612b352ed1a,2024-02-22_14h17.44.831,kallum_motion_pilot,2023.2.2,MacIntel,59.84082341,65a1b082ea682612b352ed1a,65d6bb0e977760de756971f7,65d6bd1bcb0a17198e65b8b6,0.0781,0.0782,0,47,47,41,1,onethree,,,,,,,,,,,,,,,,,,,,,,,,,,,,,,,,,,,,,,,,,,,,,,,,,,,,,,,,,,,,,,,,,,,,,,,,,,,,,,,,,,,,,,,,,,,,,,,,,,,,,,,,,,,,,,,,,,,,,,,,,,,,,,,,,,,,,,,,,
,,65a1b082ea682612b352ed1a,2024-02-22_14h17.44.831,kallum_motion_pilot,2023.2.2,MacIntel,59.84082341,65a1b082ea682612b352ed1a,65d6bb0e977760de756971f7,65d6bd1bcb0a17198e65b8b6,0.0784,0.0785,0,48,48,142,1,eightsix,,,,,,,,,,,,,,,,,,,,,,,,,,,,,,,,,,,,,,,,,,,,,,,,,,,,,,,,,,,,,,,,,,,,,,,,,,,,,,,,,,,,,,,,,,,,,,,,,,,,,,,,,,,,,,,,,,,,,,,,,,,,,,,,,,,,,,,,,
,,65a1b082ea682612b352ed1a,2024-02-22_14h17.44.831,kallum_motion_pilot,2023.2.2,MacIntel,59.84082341,65a1b082ea682612b352ed1a,65d6bb0e977760de756971f7,65d6bd1bcb0a17198e65b8b6,0.0787,0.0789,0,49,49,157,1,seveneight,,,,,,,,,,,,,,,,,,,,,,,,,,,,,,,,,,,,,,,,,,,,,,,,,,,,,,,,,,,,,,,,,,,,,,,,,,,,,,,,,,,,,,,,,,,,,,,,,,,,,,,,,,,,,,,,,,,,,,,,,,,,,,,,,,,,,,,,,
,,65a1b082ea682612b352ed1a,2024-02-22_14h17.44.831,kallum_motion_pilot,2023.2.2,MacIntel,59.84082341,65a1b082ea682612b352ed1a,65d6bb0e977760de756971f7,65d6bd1bcb0a17198e65b8b6,0.0791,0.0792,0,50,50,35,1,twofour,,,,,,,,,,,,,,,,,,,,,,,,,,,,,,,,,,,,,,,,,,,,,,,,,,,,,,,,,,,,,,,,,,,,,,,,,,,,,,,,,,,,,,,,,,,,,,,,,,,,,,,,,,,,,,,,,,,,,,,,,,,,,,,,,,,,,,,,,
,,65a1b082ea682612b352ed1a,2024-02-22_14h17.44.831,kallum_motion_pilot,2023.2.2,MacIntel,59.84082341,65a1b082ea682612b352ed1a,65d6bb0e977760de756971f7,65d6bd1bcb0a17198e65b8b6,0.0795,0.0795,0,51,51,158,1,eightsix,,,,,,,,,,,,,,,,,,,,,,,,,,,,,,,,,,,,,,,,,,,,,,,,,,,,,,,,,,,,,,,,,,,,,,,,,,,,,,,,,,,,,,,,,,,,,,,,,,,,,,,,,,,,,,,,,,,,,,,,,,,,,,,,,,,,,,,,,
,,65a1b082ea682612b352ed1a,2024-02-22_14h17.44.831,kallum_motion_pilot,2023.2.2,MacIntel,59.84082341,65a1b082ea682612b352ed1a,65d6bb0e977760de756971f7,65d6bd1bcb0a17198e65b8b6,0.0798,0.0798,0,52,52,86,1,eightsix,,,,,,,,,,,,,,,,,,,,,,,,,,,,,,,,,,,,,,,,,,,,,,,,,,,,,,,,,,,,,,,,,,,,,,,,,,,,,,,,,,,,,,,,,,,,,,,,,,,,,,,,,,,,,,,,,,,,,,,,,,,,,,,,,,,,,,,,,
,,65a1b082ea682612b352ed1a,2024-02-22_14h17.44.831,kallum_motion_pilot,2023.2.2,MacIntel,59.84082341,65a1b082ea682612b352ed1a,65d6bb0e977760de756971f7,65d6bd1bcb0a17198e65b8b6,0.0801,0.0801,0,53,53,15,1,fourthree,,,,,,,,,,,,,,,,,,,,,,,,,,,,,,,,,,,,,,,,,,,,,,,,,,,,,,,,,,,,,,,,,,,,,,,,,,,,,,,,,,,,,,,,,,,,,,,,,,,,,,,,,,,,,,,,,,,,,,,,,,,,,,,,,,,,,,,,,
,,65a1b082ea682612b352ed1a,2024-02-22_14h17.44.831,kallum_motion_pilot,2023.2.2,MacIntel,59.84082341,65a1b082ea682612b352ed1a,65d6bb0e977760de756971f7,65d6bd1bcb0a17198e65b8b6,0.0805,0.0806,0,54,54,20,1,threeone,,,,,,,,,,,,,,,,,,,,,,,,,,,,,,,,,,,,,,,,,,,,,,,,,,,,,,,,,,,,,,,,,,,,,,,,,,,,,,,,,,,,,,,,,,,,,,,,,,,,,,,,,,,,,,,,,,,,,,,,,,,,,,,,,,,,,,,,,
,,65a1b082ea682612b352ed1a,2024-02-22_14h17.44.831,kallum_motion_pilot,2023.2.2,MacIntel,59.84082341,65a1b082ea682612b352ed1a,65d6bb0e977760de756971f7,65d6bd1bcb0a17198e65b8b6,0.0808,0.0809,0,55,55,148,1,sevenfive,,,,,,,,,,,,,,,,,,,,,,,,,,,,,,,,,,,,,,,,,,,,,,,,,,,,,,,,,,,,,,,,,,,,,,,,,,,,,,,,,,,,,,,,,,,,,,,,,,,,,,,,,,,,,,,,,,,,,,,,,,,,,,,,,,,,,,,,,
,,65a1b082ea682612b352ed1a,2024-02-22_14h17.44.831,kallum_motion_pilot,2023.2.2,MacIntel,59.84082341,65a1b082ea682612b352ed1a,65d6bb0e977760de756971f7,65d6bd1bcb0a17198e65b8b6,0.0811,0.0811,0,56,56,154,1,sixfive,,,,,,,,,,,,,,,,,,,,,,,,,,,,,,,,,,,,,,,,,,,,,,,,,,,,,,,,,,,,,,,,,,,,,,,,,,,,,,,,,,,,,,,,,,,,,,,,,,,,,,,,,,,,,,,,,,,,,,,,,,,,,,,,,,,,,,,,,
,,65a1b082ea682612b352ed1a,2024-02-22_14h17.44.831,kallum_motion_pilot,2023.2.2,MacIntel,59.84082341,65a1b082ea682612b352ed1a,65d6bb0e977760de756971f7,65d6bd1bcb0a17198e65b8b6,0.0814,0.0815,0,57,57,106,1,sixfive,,,,,,,,,,,,,,,,,,,,,,,,,,,,,,,,,,,,,,,,,,,,,,,,,,,,,,,,,,,,,,,,,,,,,,,,,,,,,,,,,,,,,,,,,,,,,,,,,,,,,,,,,,,,,,,,,,,,,,,,,,,,,,,,,,,,,,,,,
,,65a1b082ea682612b352ed1a,2024-02-22_14h17.44.831,kallum_motion_pilot,2023.2.2,MacIntel,59.84082341,65a1b082ea682612b352ed1a,65d6bb0e977760de756971f7,65d6bd1bcb0a17198e65b8b6,0.0817,0.0817,0,58,58,135,1,eightseven,,,,,,,,,,,,,,,,,,,,,,,,,,,,,,,,,,,,,,,,,,,,,,,,,,,,,,,,,,,,,,,,,,,,,,,,,,,,,,,,,,,,,,,,,,,,,,,,,,,,,,,,,,,,,,,,,,,,,,,,,,,,,,,,,,,,,,,,,
,,65a1b082ea682612b352ed1a,2024-02-22_14h17.44.831,kallum_motion_pilot,2023.2.2,MacIntel,59.84082341,65a1b082ea682612b352ed1a,65d6bb0e977760de756971f7,65d6bd1bcb0a17198e65b8b6,0.0819,0.0819,0,59,59,5,1,threefour,,,,,,,,,,,,,,,,,,,,,,,,,,,,,,,,,,,,,,,,,,,,,,,,,,,,,,,,,,,,,,,,,,,,,,,,,,,,,,,,,,,,,,,,,,,,,,,,,,,,,,,,,,,,,,,,,,,,,,,,,,,,,,,,,,,,,,,,,
,,65a1b082ea682612b352ed1a,2024-02-22_14h17.44.831,kallum_motion_pilot,2023.2.2,MacIntel,59.84082341,65a1b082ea682612b352ed1a,65d6bb0e977760de756971f7,65d6bd1bcb0a17198e65b8b6,0.0822,0.0823,0,60,60,96,1,fivesix,,,,,,,,,,,,,,,,,,,,,,,,,,,,,,,,,,,,,,,,,,,,,,,,,,,,,,,,,,,,,,,,,,,,,,,,,,,,,,,,,,,,,,,,,,,,,,,,,,,,,,,,,,,,,,,,,,,,,,,,,,,,,,,,,,,,,,,,,
,,65a1b082ea682612b352ed1a,2024-02-22_14h17.44.831,kallum_motion_pilot,2023.2.2,MacIntel,59.84082341,65a1b082ea682612b352ed1a,65d6bb0e977760de756971f7,65d6bd1bcb0a17198e65b8b6,0.0826,0.0827,0,61,61,85,1,seveneight,,,,,,,,,,,,,,,,,,,,,,,,,,,,,,,,,,,,,,,,,,,,,,,,,,,,,,,,,,,,,,,,,,,,,,,,,,,,,,,,,,,,,,,,,,,,,,,,,,,,,,,,,,,,,,,,,,,,,,,,,,,,,,,,,,,,,,,,,
,,65a1b082ea682612b352ed1a,2024-02-22_14h17.44.831,kallum_motion_pilot,2023.2.2,MacIntel,59.84082341,65a1b082ea682612b352ed1a,65d6bb0e977760de756971f7,65d6bd1bcb0a17198e65b8b6,0.083,0.083,0,62,62,27,1,twofour,,,,,,,,,,,,,,,,,,,,,,,,,,,,,,,,,,,,,,,,,,,,,,,,,,,,,,,,,,,,,,,,,,,,,,,,,,,,,,,,,,,,,,,,,,,,,,,,,,,,,,,,,,,,,,,,,,,,,,,,,,,,,,,,,,,,,,,,,
,,65a1b082ea682612b352ed1a,2024-02-22_14h17.44.831,kallum_motion_pilot,2023.2.2,MacIntel,59.84082341,65a1b082ea682612b352ed1a,65d6bb0e977760de756971f7,65d6bd1bcb0a17198e65b8b6,0.0832,0.0834,0,63,63,90,1,sixfive,,,,,,,,,,,,,,,,,,,,,,,,,,,,,,,,,,,,,,,,,,,,,,,,,,,,,,,,,,,,,,,,,,,,,,,,,,,,,,,,,,,,,,,,,,,,,,,,,,,,,,,,,,,,,,,,,,,,,,,,,,,,,,,,,,,,,,,,,
,,65a1b082ea682612b352ed1a,2024-02-22_14h17.44.831,kallum_motion_pilot,2023.2.2,MacIntel,59.84082341,65a1b082ea682612b352ed1a,65d6bb0e977760de756971f7,65d6bd1bcb0a17198e65b8b6,0.0835,0.0837,0,64,64,55,1,fourthree,,,,,,,,,,,,,,,,,,,,,,,,,,,,,,,,,,,,,,,,,,,,,,,,,,,,,,,,,,,,,,,,,,,,,,,,,,,,,,,,,,,,,,,,,,,,,,,,,,,,,,,,,,,,,,,,,,,,,,,,,,,,,,,,,,,,,,,,,
,,65a1b082ea682612b352ed1a,2024-02-22_14h17.44.831,kallum_motion_pilot,2023.2.2,MacIntel,59.84082341,65a1b082ea682612b352ed1a,65d6bb0e977760de756971f7,65d6bd1bcb0a17198e65b8b6,0.084,0.0841,0,65,65,119,1,eightseven,,,,,,,,,,,,,,,,,,,,,,,,,,,,,,,,,,,,,,,,,,,,,,,,,,,,,,,,,,,,,,,,,,,,,,,,,,,,,,,,,,,,,,,,,,,,,,,,,,,,,,,,,,,,,,,,,,,,,,,,,,,,,,,,,,,,,,,,,
,,65a1b082ea682612b352ed1a,2024-02-22_14h17.44.831,kallum_motion_pilot,2023.2.2,MacIntel,59.84082341,65a1b082ea682612b352ed1a,65d6bb0e977760de756971f7,65d6bd1bcb0a17198e65b8b6,0.0843,0.0844,0,66,66,103,1,eightseven,,,,,,,,,,,,,,,,,,,,,,,,,,,,,,,,,,,,,,,,,,,,,,,,,,,,,,,,,,,,,,,,,,,,,,,,,,,,,,,,,,,,,,,,,,,,,,,,,,,,,,,,,,,,,,,,,,,,,,,,,,,,,,,,,,,,,,,,,
,,65a1b082ea682612b352ed1a,2024-02-22_14h17.44.831,kallum_motion_pilot,2023.2.2,MacIntel,59.84082341,65a1b082ea682612b352ed1a,65d6bb0e977760de756971f7,65d6bd1bcb0a17198e65b8b6,0.0847,0.0848,0,67,67,111,1,eightseven,,,,,,,,,,,,,,,,,,,,,,,,,,,,,,,,,,,,,,,,,,,,,,,,,,,,,,,,,,,,,,,,,,,,,,,,,,,,,,,,,,,,,,,,,,,,,,,,,,,,,,,,,,,,,,,,,,,,,,,,,,,,,,,,,,,,,,,,,
,,65a1b082ea682612b352ed1a,2024-02-22_14h17.44.831,kallum_motion_pilot,2023.2.2,MacIntel,59.84082341,65a1b082ea682612b352ed1a,65d6bb0e977760de756971f7,65d6bd1bcb0a17198e65b8b6,0.0852,0.0854,0,68,68,2,1,twoone,,,,,,,,,,,,,,,,,,,,,,,,,,,,,,,,,,,,,,,,,,,,,,,,,,,,,,,,,,,,,,,,,,,,,,,,,,,,,,,,,,,,,,,,,,,,,,,,,,,,,,,,,,,,,,,,,,,,,,,,,,,,,,,,,,,,,,,,,
,,65a1b082ea682612b352ed1a,2024-02-22_14h17.44.831,kallum_motion_pilot,2023.2.2,MacIntel,59.84082341,65a1b082ea682612b352ed1a,65d6bb0e977760de756971f7,65d6bd1bcb0a17198e65b8b6,0.0857,0.0858,0,69,69,14,1,fourtwo,,,,,,,,,,,,,,,,,,,,,,,,,,,,,,,,,,,,,,,,,,,,,,,,,,,,,,,,,,,,,,,,,,,,,,,,,,,,,,,,,,,,,,,,,,,,,,,,,,,,,,,,,,,,,,,,,,,,,,,,,,,,,,,,,,,,,,,,,
,,65a1b082ea682612b352ed1a,2024-02-22_14h17.44.831,kallum_motion_pilot,2023.2.2,MacIntel,59.84082341,65a1b082ea682612b352ed1a,65d6bb0e977760de756971f7,65d6bd1bcb0a17198e65b8b6,0.0861,0.0862,0,70,70,108,1,sevenfive,,,,,,,,,,,,,,,,,,,,,,,,,,,,,,,,,,,,,,,,,,,,,,,,,,,,,,,,,,,,,,,,,,,,,,,,,,,,,,,,,,,,,,,,,,,,,,,,,,,,,,,,,,,,,,,,,,,,,,,,,,,,,,,,,,,,,,,,,
,,65a1b082ea682612b352ed1a,2024-02-22_14h17.44.831,kallum_motion_pilot,2023.2.2,MacIntel,59.84082341,65a1b082ea682612b352ed1a,65d6bb0e977760de756971f7,65d6bd1bcb0a17198e65b8b6,0.0865,0.0867,0,71,71,99,1,sixeight,,,,,,,,,,,,,,,,,,,,,,,,,,,,,,,,,,,,,,,,,,,,,,,,,,,,,,,,,,,,,,,,,,,,,,,,,,,,,,,,,,,,,,,,,,,,,,,,,,,,,,,,,,,,,,,,,,,,,,,,,,,,,,,,,,,,,,,,,
,,65a1b082ea682612b352ed1a,2024-02-22_14h17.44.831,kallum_motion_pilot,2023.2.2,MacIntel,59.84082341,65a1b082ea682612b352ed1a,65d6bb0e977760de756971f7,65d6bd1bcb0a17198e65b8b6,0.087,0.0872,0,72,72,137,1,fiveseven,,,,,,,,,,,,,,,,,,,,,,,,,,,,,,,,,,,,,,,,,,,,,,,,,,,,,,,,,,,,,,,,,,,,,,,,,,,,,,,,,,,,,,,,,,,,,,,,,,,,,,,,,,,,,,,,,,,,,,,,,,,,,,,,,,,,,,,,,
,,65a1b082ea682612b352ed1a,2024-02-22_14h17.44.831,kallum_motion_pilot,2023.2.2,MacIntel,59.84082341,65a1b082ea682612b352ed1a,65d6bb0e977760de756971f7,65d6bd1bcb0a17198e65b8b6,0.0875,0.0877,0,73,73,21,1,threefour,,,,,,,,,,,,,,,,,,,,,,,,,,,,,,,,,,,,,,,,,,,,,,,,,,,,,,,,,,,,,,,,,,,,,,,,,,,,,,,,,,,,,,,,,,,,,,,,,,,,,,,,,,,,,,,,,,,,,,,,,,,,,,,,,,,,,,,,,
,,65a1b082ea682612b352ed1a,2024-02-22_14h17.44.831,kallum_motion_pilot,2023.2.2,MacIntel,59.84082341,65a1b082ea682612b352ed1a,65d6bb0e977760de756971f7,65d6bd1bcb0a17198e65b8b6,0.088,0.0882,0,74,74,156,1,sevenfive,,,,,,,,,,,,,,,,,,,,,,,,,,,,,,,,,,,,,,,,,,,,,,,,,,,,,,,,,,,,,,,,,,,,,,,,,,,,,,,,,,,,,,,,,,,,,,,,,,,,,,,,,,,,,,,,,,,,,,,,,,,,,,,,,,,,,,,,,
,,65a1b082ea682612b352ed1a,2024-02-22_14h17.44.831,kallum_motion_pilot,2023.2.2,MacIntel,59.84082341,65a1b082ea682612b352ed1a,65d6bb0e977760de756971f7,65d6bd1bcb0a17198e65b8b6,0.0886,0.0887,0,75,75,104,1,fivesix,,,,,,,,,,,,,,,,,,,,,,,,,,,,,,,,,,,,,,,,,,,,,,,,,,,,,,,,,,,,,,,,,,,,,,,,,,,,,,,,,,,,,,,,,,,,,,,,,,,,,,,,,,,,,,,,,,,,,,,,,,,,,,,,,,,,,,,,,
,,65a1b082ea682612b352ed1a,2024-02-22_14h17.44.831,kallum_motion_pilot,2023.2.2,MacIntel,59.84082341,65a1b082ea682612b352ed1a,65d6bb0e977760de756971f7,65d6bd1bcb0a17198e65b8b6,0.089,0.0892,0,76,76,13,1,threefour,,,,,,,,,,,,,,,,,,,,,,,,,,,,,,,,,,,,,,,,,,,,,,,,,,,,,,,,,,,,,,,,,,,,,,,,,,,,,,,,,,,,,,,,,,,,,,,,,,,,,,,,,,,,,,,,,,,,,,,,,,,,,,,,,,,,,,,,,
,,65a1b082ea682612b352ed1a,2024-02-22_14h17.44.831,kallum_motion_pilot,2023.2.2,MacIntel,59.84082341,65a1b082ea682612b352ed1a,65d6bb0e977760de756971f7,65d6bd1bcb0a17198e65b8b6,0.0894,0.0896,0,77,77,143,1,eightseven,,,,,,,,,,,,,,,,,,,,,,,,,,,,,,,,,,,,,,,,,,,,,,,,,,,,,,,,,,,,,,,,,,,,,,,,,,,,,,,,,,,,,,,,,,,,,,,,,,,,,,,,,,,,,,,,,,,,,,,,,,,,,,,,,,,,,,,,,
,,65a1b082ea682612b352ed1a,2024-02-22_14h17.44.831,kallum_motion_pilot,2023.2.2,MacIntel,59.84082341,65a1b082ea682612b352ed1a,65d6bb0e977760de756971f7,65d6bd1bcb0a17198e65b8b6,0.0898,0.09,0,78,78,97,1,fiveseven,,,,,,,,,,,,,,,,,,,,,,,,,,,,,,,,,,,,,,,,,,,,,,,,,,,,,,,,,,,,,,,,,,,,,,,,,,,,,,,,,,,,,,,,,,,,,,,,,,,,,,,,,,,,,,,,,,,,,,,,,,,,,,,,,,,,,,,,,
,,65a1b082ea682612b352ed1a,2024-02-22_14h17.44.831,kallum_motion_pilot,2023.2.2,MacIntel,59.84082341,65a1b082ea682612b352ed1a,65d6bb0e977760de756971f7,65d6bd1bcb0a17198e65b8b6,0.0902,0.0905,0,79,79,149,1,seveneight,,,,,,,,,,,,,,,,,,,,,,,,,,,,,,,,,,,,,,,,,,,,,,,,,,,,,,,,,,,,,,,,,,,,,,,,,,,,,,,,,,,,,,,,,,,,,,,,,,,,,,,,,,,,,,,,,,,,,,,,,,,,,,,,,,,,,,,,,
,,65a1b082ea682612b352ed1a,2024-02-22_14h17.44.831,kallum_motion_pilot,2023.2.2,MacIntel,59.84082341,65a1b082ea682612b352ed1a,65d6bb0e977760de756971f7,65d6bd1bcb0a17198e65b8b6,0.0906,0.0907,0,80,80,74,1,twoone,,,,,,,,,,,,,,,,,,,,,,,,,,,,,,,,,,,,,,,,,,,,,,,,,,,,,,,,,,,,,,,,,,,,,,,,,,,,,,,,,,,,,,,,,,,,,,,,,,,,,,,,,,,,,,,,,,,,,,,,,,,,,,,,,,,,,,,,,
,,65a1b082ea682612b352ed1a,2024-02-22_14h17.44.831,kallum_motion_pilot,2023.2.2,MacIntel,59.84082341,65a1b082ea682612b352ed1a,65d6bb0e977760de756971f7,65d6bd1bcb0a17198e65b8b6,0.0909,0.091,0,81,81,76,1,threeone,,,,,,,,,,,,,,,,,,,,,,,,,,,,,,,,,,,,,,,,,,,,,,,,,,,,,,,,,,,,,,,,,,,,,,,,,,,,,,,,,,,,,,,,,,,,,,,,,,,,,,,,,,,,,,,,,,,,,,,,,,,,,,,,,,,,,,,,,
,,65a1b082ea682612b352ed1a,2024-02-22_14h17.44.831,kallum_motion_pilot,2023.2.2,MacIntel,59.84082341,65a1b082ea682612b352ed1a,65d6bb0e977760de756971f7,65d6bd1bcb0a17198e65b8b6,0.0912,0.0912,0,82,82,64,1,onetwo,,,,,,,,,,,,,,,,,,,,,,,,,,,,,,,,,,,,,,,,,,,,,,,,,,,,,,,,,,,,,,,,,,,,,,,,,,,,,,,,,,,,,,,,,,,,,,,,,,,,,,,,,,,,,,,,,,,,,,,,,,,,,,,,,,,,,,,,,
,,65a1b082ea682612b352ed1a,2024-02-22_14h17.44.831,kallum_motion_pilot,2023.2.2,MacIntel,59.84082341,65a1b082ea682612b352ed1a,65d6bb0e977760de756971f7,65d6bd1bcb0a17198e65b8b6,0.0916,0.0916,0,83,83,63,1,fourthree,,,,,,,,,,,,,,,,,,,,,,,,,,,,,,,,,,,,,,,,,,,,,,,,,,,,,,,,,,,,,,,,,,,,,,,,,,,,,,,,,,,,,,,,,,,,,,,,,,,,,,,,,,,,,,,,,,,,,,,,,,,,,,,,,,,,,,,,,
,,65a1b082ea682612b352ed1a,2024-02-22_14h17.44.831,kallum_motion_pilot,2023.2.2,MacIntel,59.84082341,65a1b082ea682612b352ed1a,65d6bb0e977760de756971f7,65d6bd1bcb0a17198e65b8b6,0.0919,0.0919,0,84,84,49,1,onethree,,,,,,,,,,,,,,,,,,,,,,,,,,,,,,,,,,,,,,,,,,,,,,,,,,,,,,,,,,,,,,,,,,,,,,,,,,,,,,,,,,,,,,,,,,,,,,,,,,,,,,,,,,,,,,,,,,,,,,,,,,,,,,,,,,,,,,,,,
,,65a1b082ea682612b352ed1a,2024-02-22_14h17.44.831,kallum_motion_pilot,2023.2.2,MacIntel,59.84082341,65a1b082ea682612b352ed1a,65d6bb0e977760de756971f7,65d6bd1bcb0a17198e65b8b6,0.0921,0.0922,0,85,85,3,1,twofour,,,,,,,,,,,,,,,,,,,,,,,,,,,,,,,,,,,,,,,,,,,,,,,,,,,,,,,,,,,,,,,,,,,,,,,,,,,,,,,,,,,,,,,,,,,,,,,,,,,,,,,,,,,,,,,,,,,,,,,,,,,,,,,,,,,,,,,,,
,,65a1b082ea682612b352ed1a,2024-02-22_14h17.44.831,kallum_motion_pilot,2023.2.2,MacIntel,59.84082341,65a1b082ea682612b352ed1a,65d6bb0e977760de756971f7,65d6bd1bcb0a17198e65b8b6,0.0925,0.0926,0,86,86,127,1,eightseven,,,,,,,,,,,,,,,,,,,,,,,,,,,,,,,,,,,,,,,,,,,,,,,,,,,,,,,,,,,,,,,,,,,,,,,,,,,,,,,,,,,,,,,,,,,,,,,,,,,,,,,,,,,,,,,,,,,,,,,,,,,,,,,,,,,,,,,,,
,,65a1b082ea682612b352ed1a,2024-02-22_14h17.44.831,kallum_motion_pilot,2023.2.2,MacIntel,59.84082341,65a1b082ea682612b352ed1a,65d6bb0e977760de756971f7,65d6bd1bcb0a17198e65b8b6,0.0929,0.093,0,87,87,48,1,onetwo,,,,,,,,,,,,,,,,,,,,,,,,,,,,,,,,,,,,,,,,,,,,,,,,,,,,,,,,,,,,,,,,,,,,,,,,,,,,,,,,,,,,,,,,,,,,,,,,,,,,,,,,,,,,,,,,,,,,,,,,,,,,,,,,,,,,,,,,,
,,65a1b082ea682612b352ed1a,2024-02-22_14h17.44.831,kallum_motion_pilot,2023.2.2,MacIntel,59.84082341,65a1b082ea682612b352ed1a,65d6bb0e977760de756971f7,65d6bd1bcb0a17198e65b8b6,0.0933,0.0933,0,88,88,113,1,fiveseven,,,,,,,,,,,,,,,,,,,,,,,,,,,,,,,,,,,,,,,,,,,,,,,,,,,,,,,,,,,,,,,,,,,,,,,,,,,,,,,,,,,,,,,,,,,,,,,,,,,,,,,,,,,,,,,,,,,,,,,,,,,,,,,,,,,,,,,,,
,,65a1b082ea682612b352ed1a,2024-02-22_14h17.44.831,kallum_motion_pilot,2023.2.2,MacIntel,59.84082341,65a1b082ea682612b352ed1a,65d6bb0e977760de756971f7,65d6bd1bcb0a17198e65b8b6,0.0936,0.0939,0,89,89,155,1,sixeight,,,,,,,,,,,,,,,,,,,,,,,,,,,,,,,,,,,,,,,,,,,,,,,,,,,,,,,,,,,,,,,,,,,,,,,,,,,,,,,,,,,,,,,,,,,,,,,,,,,,,,,,,,,,,,,,,,,,,,,,,,,,,,,,,,,,,,,,,
,,65a1b082ea682612b352ed1a,2024-02-22_14h17.44.831,kallum_motion_pilot,2023.2.2,MacIntel,59.84082341,65a1b082ea682612b352ed1a,65d6bb0e977760de756971f7,65d6bd1bcb0a17198e65b8b6,0.0942,0.0943,0,90,90,12,1,threeone,,,,,,,,,,,,,,,,,,,,,,,,,,,,,,,,,,,,,,,,,,,,,,,,,,,,,,,,,,,,,,,,,,,,,,,,,,,,,,,,,,,,,,,,,,,,,,,,,,,,,,,,,,,,,,,,,,,,,,,,,,,,,,,,,,,,,,,,,
,,65a1b082ea682612b352ed1a,2024-02-22_14h17.44.831,kallum_motion_pilot,2023.2.2,MacIntel,59.84082341,65a1b082ea682612b352ed1a,65d6bb0e977760de756971f7,65d6bd1bcb0a17198e65b8b6,0.0944,0.0946,0,91,91,50,1,twoone,,,,,,,,,,,,,,,,,,,,,,,,,,,,,,,,,,,,,,,,,,,,,,,,,,,,,,,,,,,,,,,,,,,,,,,,,,,,,,,,,,,,,,,,,,,,,,,,,,,,,,,,,,,,,,,,,,,,,,,,,,,,,,,,,,,,,,,,,
,,65a1b082ea682612b352ed1a,2024-02-22_14h17.44.831,kallum_motion_pilot,2023.2.2,MacIntel,59.84082341,65a1b082ea682612b352ed1a,65d6bb0e977760de756971f7,65d6bd1bcb0a17198e65b8b6,0.0949,0.0949,0,92,92,33,1,onethree,,,,,,,,,,,,,,,,,,,,,,,,,,,,,,,,,,,,,,,,,,,,,,,,,,,,,,,,,,,,,,,,,,,,,,,,,,,,,,,,,,,,,,,,,,,,,,,,,,,,,,,,,,,,,,,,,,,,,,,,,,,,,,,,,,,,,,,,,
,,65a1b082ea682612b352ed1a,2024-02-22_14h17.44.831,kallum_motion_pilot,2023.2.2,MacIntel,59.84082341,65a1b082ea682612b352ed1a,65d6bb0e977760de756971f7,65d6bd1bcb0a17198e65b8b6,0.0951,0.0952,0,93,93,56,1,onetwo,,,,,,,,,,,,,,,,,,,,,,,,,,,,,,,,,,,,,,,,,,,,,,,,,,,,,,,,,,,,,,,,,,,,,,,,,,,,,,,,,,,,,,,,,,,,,,,,,,,,,,,,,,,,,,,,,,,,,,,,,,,,,,,,,,,,,,,,,
,,65a1b082ea682612b352ed1a,2024-02-22_14h17.44.831,kallum_motion_pilot,2023.2.2,MacIntel,59.84082341,65a1b082ea682612b352ed1a,65d6bb0e977760de756971f7,65d6bd1bcb0a17198e65b8b6,0.0955,0.0956,0,94,94,159,1,eightseven,,,,,,,,,,,,,,,,,,,,,,,,,,,,,,,,,,,,,,,,,,,,,,,,,,,,,,,,,,,,,,,,,,,,,,,,,,,,,,,,,,,,,,,,,,,,,,,,,,,,,,,,,,,,,,,,,,,,,,,,,,,,,,,,,,,,,,,,,
,,65a1b082ea682612b352ed1a,2024-02-22_14h17.44.831,kallum_motion_pilot,2023.2.2,MacIntel,59.84082341,65a1b082ea682612b352ed1a,65d6bb0e977760de756971f7,65d6bd1bcb0a17198e65b8b6,0.0958,0.096,0,95,95,0,1,onetwo,,,,,,,,,,,,,,,,,,,,,,,,,,,,,,,,,,,,,,,,,,,,,,,,,,,,,,,,,,,,,,,,,,,,,,,,,,,,,,,,,,,,,,,,,,,,,,,,,,,,,,,,,,,,,,,,,,,,,,,,,,,,,,,,,,,,,,,,,
,,65a1b082ea682612b352ed1a,2024-02-22_14h17.44.831,kallum_motion_pilot,2023.2.2,MacIntel,59.84082341,65a1b082ea682612b352ed1a,65d6bb0e977760de756971f7,65d6bd1bcb0a17198e65b8b6,0.0961,0.0963,0,96,96,132,1,sevenfive,,,,,,,,,,,,,,,,,,,,,,,,,,,,,,,,,,,,,,,,,,,,,,,,,,,,,,,,,,,,,,,,,,,,,,,,,,,,,,,,,,,,,,,,,,,,,,,,,,,,,,,,,,,,,,,,,,,,,,,,,,,,,,,,,,,,,,,,,
,,65a1b082ea682612b352ed1a,2024-02-22_14h17.44.831,kallum_motion_pilot,2023.2.2,MacIntel,59.84082341,65a1b082ea682612b352ed1a,65d6bb0e977760de756971f7,65d6bd1bcb0a17198e65b8b6,0.0965,0.0967,0,97,97,118,1,eightsix,,,,,,,,,,,,,,,,,,,,,,,,,,,,,,,,,,,,,,,,,,,,,,,,,,,,,,,,,,,,,,,,,,,,,,,,,,,,,,,,,,,,,,,,,,,,,,,,,,,,,,,,,,,,,,,,,,,,,,,,,,,,,,,,,,,,,,,,,
,,65a1b082ea682612b352ed1a,2024-02-22_14h17.44.831,kallum_motion_pilot,2023.2.2,MacIntel,59.84082341,65a1b082ea682612b352ed1a,65d6bb0e977760de756971f7,65d6bd1bcb0a17198e65b8b6,0.0968,0.0969,0,98,98,101,1,seveneight,,,,,,,,,,,,,,,,,,,,,,,,,,,,,,,,,,,,,,,,,,,,,,,,,,,,,,,,,,,,,,,,,,,,,,,,,,,,,,,,,,,,,,,,,,,,,,,,,,,,,,,,,,,,,,,,,,,,,,,,,,,,,,,,,,,,,,,,,
,,65a1b082ea682612b352ed1a,2024-02-22_14h17.44.831,kallum_motion_pilot,2023.2.2,MacIntel,59.84082341,65a1b082ea682612b352ed1a,65d6bb0e977760de756971f7,65d6bd1bcb0a17198e65b8b6,0.0971,0.0972,0,99,99,95,1,eightseven,,,,,,,,,,,,,,,,,,,,,,,,,,,,,,,,,,,,,,,,,,,,,,,,,,,,,,,,,,,,,,,,,,,,,,,,,,,,,,,,,,,,,,,,,,,,,,,,,,,,,,,,,,,,,,,,,,,,,,,,,,,,,,,,,,,,,,,,,
,,65a1b082ea682612b352ed1a,2024-02-22_14h17.44.831,kallum_motion_pilot,2023.2.2,MacIntel,59.84082341,65a1b082ea682612b352ed1a,65d6bb0e977760de756971f7,65d6bd1bcb0a17198e65b8b6,0.0973,0.0973,0,100,100,109,1,seveneight,,,,,,,,,,,,,,,,,,,,,,,,,,,,,,,,,,,,,,,,,,,,,,,,,,,,,,,,,,,,,,,,,,,,,,,,,,,,,,,,,,,,,,,,,,,,,,,,,,,,,,,,,,,,,,,,,,,,,,,,,,,,,,,,,,,,,,,,,
,,65a1b082ea682612b352ed1a,2024-02-22_14h17.44.831,kallum_motion_pilot,2023.2.2,MacIntel,59.84082341,65a1b082ea682612b352ed1a,65d6bb0e977760de756971f7,65d6bd1bcb0a17198e65b8b6,0.0975,0.0976,0,101,101,112,1,fivesix,,,,,,,,,,,,,,,,,,,,,,,,,,,,,,,,,,,,,,,,,,,,,,,,,,,,,,,,,,,,,,,,,,,,,,,,,,,,,,,,,,,,,,,,,,,,,,,,,,,,,,,,,,,,,,,,,,,,,,,,,,,,,,,,,,,,,,,,,
,,65a1b082ea682612b352ed1a,2024-02-22_14h17.44.831,kallum_motion_pilot,2023.2.2,MacIntel,59.84082341,65a1b082ea682612b352ed1a,65d6bb0e977760de756971f7,65d6bd1bcb0a17198e65b8b6,0.0979,0.0979,0,102,102,120,1,fivesix,,,,,,,,,,,,,,,,,,,,,,,,,,,,,,,,,,,,,,,,,,,,,,,,,,,,,,,,,,,,,,,,,,,,,,,,,,,,,,,,,,,,,,,,,,,,,,,,,,,,,,,,,,,,,,,,,,,,,,,,,,,,,,,,,,,,,,,,,
,,65a1b082ea682612b352ed1a,2024-02-22_14h17.44.831,kallum_motion_pilot,2023.2.2,MacIntel,59.84082341,65a1b082ea682612b352ed1a,65d6bb0e977760de756971f7,65d6bd1bcb0a17198e65b8b6,0.0982,0.0982,0,103,103,10,1,twoone,,,,,,,,,,,,,,,,,,,,,,,,,,,,,,,,,,,,,,,,,,,,,,,,,,,,,,,,,,,,,,,,,,,,,,,,,,,,,,,,,,,,,,,,,,,,,,,,,,,,,,,,,,,,,,,,,,,,,,,,,,,,,,,,,,,,,,,,,
,,65a1b082ea682612b352ed1a,2024-02-22_14h17.44.831,kallum_motion_pilot,2023.2.2,MacIntel,59.84082341,65a1b082ea682612b352ed1a,65d6bb0e977760de756971f7,65d6bd1bcb0a17198e65b8b6,0.0984,0.0986,0,104,104,147,1,sixeight,,,,,,,,,,,,,,,,,,,,,,,,,,,,,,,,,,,,,,,,,,,,,,,,,,,,,,,,,,,,,,,,,,,,,,,,,,,,,,,,,,,,,,,,,,,,,,,,,,,,,,,,,,,,,,,,,,,,,,,,,,,,,,,,,,,,,,,,,
,,65a1b082ea682612b352ed1a,2024-02-22_14h17.44.831,kallum_motion_pilot,2023.2.2,MacIntel,59.84082341,65a1b082ea682612b352ed1a,65d6bb0e977760de756971f7,65d6bd1bcb0a17198e65b8b6,0.0988,0.0989,0,105,105,71,1,fourthree,,,,,,,,,,,,,,,,,,,,,,,,,,,,,,,,,,,,,,,,,,,,,,,,,,,,,,,,,,,,,,,,,,,,,,,,,,,,,,,,,,,,,,,,,,,,,,,,,,,,,,,,,,,,,,,,,,,,,,,,,,,,,,,,,,,,,,,,,
,,65a1b082ea682612b352ed1a,2024-02-22_14h17.44.831,kallum_motion_pilot,2023.2.2,MacIntel,59.84082341,65a1b082ea682612b352ed1a,65d6bb0e977760de756971f7,65d6bd1bcb0a17198e65b8b6,0.0992,0.0993,0,106,106,37,1,threefour,,,,,,,,,,,,,,,,,,,,,,,,,,,,,,,,,,,,,,,,,,,,,,,,,,,,,,,,,,,,,,,,,,,,,,,,,,,,,,,,,,,,,,,,,,,,,,,,,,,,,,,,,,,,,,,,,,,,,,,,,,,,,,,,,,,,,,,,,
,,65a1b082ea682612b352ed1a,2024-02-22_14h17.44.831,kallum_motion_pilot,2023.2.2,MacIntel,59.84082341,65a1b082ea682612b352ed1a,65d6bb0e977760de756971f7,65d6bd1bcb0a17198e65b8b6,0.0995,0.0996,0,107,107,152,1,fivesix,,,,,,,,,,,,,,,,,,,,,,,,,,,,,,,,,,,,,,,,,,,,,,,,,,,,,,,,,,,,,,,,,,,,,,,,,,,,,,,,,,,,,,,,,,,,,,,,,,,,,,,,,,,,,,,,,,,,,,,,,,,,,,,,,,,,,,,,,
,,65a1b082ea682612b352ed1a,2024-02-22_14h17.44.831,kallum_motion_pilot,2023.2.2,MacIntel,59.84082341,65a1b082ea682612b352ed1a,65d6bb0e977760de756971f7,65d6bd1bcb0a17198e65b8b6,0.1,0.1002,0,108,108,87,1,eightseven,,,,,,,,,,,,,,,,,,,,,,,,,,,,,,,,,,,,,,,,,,,,,,,,,,,,,,,,,,,,,,,,,,,,,,,,,,,,,,,,,,,,,,,,,,,,,,,,,,,,,,,,,,,,,,,,,,,,,,,,,,,,,,,,,,,,,,,,,
,,65a1b082ea682612b352ed1a,2024-02-22_14h17.44.831,kallum_motion_pilot,2023.2.2,MacIntel,59.84082341,65a1b082ea682612b352ed1a,65d6bb0e977760de756971f7,65d6bd1bcb0a17198e65b8b6,0.1004,0.1006,0,109,109,22,1,fourtwo,,,,,,,,,,,,,,,,,,,,,,,,,,,,,,,,,,,,,,,,,,,,,,,,,,,,,,,,,,,,,,,,,,,,,,,,,,,,,,,,,,,,,,,,,,,,,,,,,,,,,,,,,,,,,,,,,,,,,,,,,,,,,,,,,,,,,,,,,
,,65a1b082ea682612b352ed1a,2024-02-22_14h17.44.831,kallum_motion_pilot,2023.2.2,MacIntel,59.84082341,65a1b082ea682612b352ed1a,65d6bb0e977760de756971f7,65d6bd1bcb0a17198e65b8b6,0.1009,0.101,0,110,110,134,1,eightsix,,,,,,,,,,,,,,,,,,,,,,,,,,,,,,,,,,,,,,,,,,,,,,,,,,,,,,,,,,,,,,,,,,,,,,,,,,,,,,,,,,,,,,,,,,,,,,,,,,,,,,,,,,,,,,,,,,,,,,,,,,,,,,,,,,,,,,,,,
,,65a1b082ea682612b352ed1a,2024-02-22_14h17.44.831,kallum_motion_pilot,2023.2.2,MacIntel,59.84082341,65a1b082ea682612b352ed1a,65d6bb0e977760de756971f7,65d6bd1bcb0a17198e65b8b6,0.1012,0.1013,0,111,111,110,1,eightsix,,,,,,,,,,,,,,,,,,,,,,,,,,,,,,,,,,,,,,,,,,,,,,,,,,,,,,,,,,,,,,,,,,,,,,,,,,,,,,,,,,,,,,,,,,,,,,,,,,,,,,,,,,,,,,,,,,,,,,,,,,,,,,,,,,,,,,,,,
,,65a1b082ea682612b352ed1a,2024-02-22_14h17.44.831,kallum_motion_pilot,2023.2.2,MacIntel,59.84082341,65a1b082ea682612b352ed1a,65d6bb0e977760de756971f7,65d6bd1bcb0a17198e65b8b6,0.1017,0.1019,0,112,112,45,1,threefour,,,,,,,,,,,,,,,,,,,,,,,,,,,,,,,,,,,,,,,,,,,,,,,,,,,,,,,,,,,,,,,,,,,,,,,,,,,,,,,,,,,,,,,,,,,,,,,,,,,,,,,,,,,,,,,,,,,,,,,,,,,,,,,,,,,,,,,,,
,,65a1b082ea682612b352ed1a,2024-02-22_14h17.44.831,kallum_motion_pilot,2023.2.2,MacIntel,59.84082341,65a1b082ea682612b352ed1a,65d6bb0e977760de756971f7,65d6bd1bcb0a17198e65b8b6,0.1021,0.1023,0,113,113,130,1,sixfive,,,,,,,,,,,,,,,,,,,,,,,,,,,,,,,,,,,,,,,,,,,,,,,,,,,,,,,,,,,,,,,,,,,,,,,,,,,,,,,,,,,,,,,,,,,,,,,,,,,,,,,,,,,,,,,,,,,,,,,,,,,,,,,,,,,,,,,,,
,,65a1b082ea682612b352ed1a,2024-02-22_14h17.44.831,kallum_motion_pilot,2023.2.2,MacIntel,59.84082341,65a1b082ea682612b352ed1a,65d6bb0e977760de756971f7,65d6bd1bcb0a17198e65b8b6,0.1025,0.1027,0,114,114,114,1,sixfive,,,,,,,,,,,,,,,,,,,,,,,,,,,,,,,,,,,,,,,,,,,,,,,,,,,,,,,,,,,,,,,,,,,,,,,,,,,,,,,,,,,,,,,,,,,,,,,,,,,,,,,,,,,,,,,,,,,,,,,,,,,,,,,,,,,,,,,,,
,,65a1b082ea682612b352ed1a,2024-02-22_14h17.44.831,kallum_motion_pilot,2023.2.2,MacIntel,59.84082341,65a1b082ea682612b352ed1a,65d6bb0e977760de756971f7,65d6bd1bcb0a17198e65b8b6,0.103,0.103,0,115,115,83,1,sixeight,,,,,,,,,,,,,,,,,,,,,,,,,,,,,,,,,,,,,,,,,,,,,,,,,,,,,,,,,,,,,,,,,,,,,,,,,,,,,,,,,,,,,,,,,,,,,,,,,,,,,,,,,,,,,,,,,,,,,,,,,,,,,,,,,,,,,,,,,
,,65a1b082ea682612b352ed1a,2024-02-22_14h17.44.831,kallum_motion_pilot,2023.2.2,MacIntel,59.84082341,65a1b082ea682612b352ed1a,65d6bb0e977760de756971f7,65d6bd1bcb0a17198e65b8b6,0.1034,0.1035,0,116,116,58,1,twoone,,,,,,,,,,,,,,,,,,,,,,,,,,,,,,,,,,,,,,,,,,,,,,,,,,,,,,,,,,,,,,,,,,,,,,,,,,,,,,,,,,,,,,,,,,,,,,,,,,,,,,,,,,,,,,,,,,,,,,,,,,,,,,,,,,,,,,,,,
,,65a1b082ea682612b352ed1a,2024-02-22_14h17.44.831,kallum_motion_pilot,2023.2.2,MacIntel,59.84082341,65a1b082ea682612b352ed1a,65d6bb0e977760de756971f7,65d6bd1bcb0a17198e65b8b6,0.1038,0.104,0,117,117,129,1,fiveseven,,,,,,,,,,,,,,,,,,,,,,,,,,,,,,,,,,,,,,,,,,,,,,,,,,,,,,,,,,,,,,,,,,,,,,,,,,,,,,,,,,,,,,,,,,,,,,,,,,,,,,,,,,,,,,,,,,,,,,,,,,,,,,,,,,,,,,,,,
,,65a1b082ea682612b352ed1a,2024-02-22_14h17.44.831,kallum_motion_pilot,2023.2.2,MacIntel,59.84082341,65a1b082ea682612b352ed1a,65d6bb0e977760de756971f7,65d6bd1bcb0a17198e65b8b6,0.1044,0.1045,0,118,118,102,1,eightsix,,,,,,,,,,,,,,,,,,,,,,,,,,,,,,,,,,,,,,,,,,,,,,,,,,,,,,,,,,,,,,,,,,,,,,,,,,,,,,,,,,,,,,,,,,,,,,,,,,,,,,,,,,,,,,,,,,,,,,,,,,,,,,,,,,,,,,,,,
,,65a1b082ea682612b352ed1a,2024-02-22_14h17.44.831,kallum_motion_pilot,2023.2.2,MacIntel,59.84082341,65a1b082ea682612b352ed1a,65d6bb0e977760de756971f7,65d6bd1bcb0a17198e65b8b6,0.1048,0.105,0,119,119,8,1,onetwo,,,,,,,,,,,,,,,,,,,,,,,,,,,,,,,,,,,,,,,,,,,,,,,,,,,,,,,,,,,,,,,,,,,,,,,,,,,,,,,,,,,,,,,,,,,,,,,,,,,,,,,,,,,,,,,,,,,,,,,,,,,,,,,,,,,,,,,,,
,,65a1b082ea682612b352ed1a,2024-02-22_14h17.44.831,kallum_motion_pilot,2023.2.2,MacIntel,59.84082341,65a1b082ea682612b352ed1a,65d6bb0e977760de756971f7,65d6bd1bcb0a17198e65b8b6,0.1053,0.1056,0,120,120,139,1,sixeight,,,,,,,,,,,,,,,,,,,,,,,,,,,,,,,,,,,,,,,,,,,,,,,,,,,,,,,,,,,,,,,,,,,,,,,,,,,,,,,,,,,,,,,,,,,,,,,,,,,,,,,,,,,,,,,,,,,,,,,,,,,,,,,,,,,,,,,,,
,,65a1b082ea682612b352ed1a,2024-02-22_14h17.44.831,kallum_motion_pilot,2023.2.2,MacIntel,59.84082341,65a1b082ea682612b352ed1a,65d6bb0e977760de756971f7,65d6bd1bcb0a17198e65b8b6,0.1061,0.1061,0,121,121,89,1,fiveseven,,,,,,,,,,,,,,,,,,,,,,,,,,,,,,,,,,,,,,,,,,,,,,,,,,,,,,,,,,,,,,,,,,,,,,,,,,,,,,,,,,,,,,,,,,,,,,,,,,,,,,,,,,,,,,,,,,,,,,,,,,,,,,,,,,,,,,,,,
,,65a1b082ea682612b352ed1a,2024-02-22_14h17.44.831,kallum_motion_pilot,2023.2.2,MacIntel,59.84082341,65a1b082ea682612b352ed1a,65d6bb0e977760de756971f7,65d6bd1bcb0a17198e65b8b6,0.1064,0.1065,0,122,122,52,1,threeone,,,,,,,,,,,,,,,,,,,,,,,,,,,,,,,,,,,,,,,,,,,,,,,,,,,,,,,,,,,,,,,,,,,,,,,,,,,,,,,,,,,,,,,,,,,,,,,,,,,,,,,,,,,,,,,,,,,,,,,,,,,,,,,,,,,,,,,,,
,,65a1b082ea682612b352ed1a,2024-02-22_14h17.44.831,kallum_motion_pilot,2023.2.2,MacIntel,59.84082341,65a1b082ea682612b352ed1a,65d6bb0e977760de756971f7,65d6bd1bcb0a17198e65b8b6,0.1067,0.1068,0,123,123,51,1,twofour,,,,,,,,,,,,,,,,,,,,,,,,,,,,,,,,,,,,,,,,,,,,,,,,,,,,,,,,,,,,,,,,,,,,,,,,,,,,,,,,,,,,,,,,,,,,,,,,,,,,,,,,,,,,,,,,,,,,,,,,,,,,,,,,,,,,,,,,,
,,65a1b082ea682612b352ed1a,2024-02-22_14h17.44.831,kallum_motion_pilot,2023.2.2,MacIntel,59.84082341,65a1b082ea682612b352ed1a,65d6bb0e977760de756971f7,65d6bd1bcb0a17198e65b8b6,0.1071,0.1072,0,124,124,68,1,threeone,,,,,,,,,,,,,,,,,,,,,,,,,,,,,,,,,,,,,,,,,,,,,,,,,,,,,,,,,,,,,,,,,,,,,,,,,,,,,,,,,,,,,,,,,,,,,,,,,,,,,,,,,,,,,,,,,,,,,,,,,,,,,,,,,,,,,,,,,
,,65a1b082ea682612b352ed1a,2024-02-22_14h17.44.831,kallum_motion_pilot,2023.2.2,MacIntel,59.84082341,65a1b082ea682612b352ed1a,65d6bb0e977760de756971f7,65d6bd1bcb0a17198e65b8b6,0.1075,0.1076,0,125,125,141,1,seveneight,,,,,,,,,,,,,,,,,,,,,,,,,,,,,,,,,,,,,,,,,,,,,,,,,,,,,,,,,,,,,,,,,,,,,,,,,,,,,,,,,,,,,,,,,,,,,,,,,,,,,,,,,,,,,,,,,,,,,,,,,,,,,,,,,,,,,,,,,
,,65a1b082ea682612b352ed1a,2024-02-22_14h17.44.831,kallum_motion_pilot,2023.2.2,MacIntel,59.84082341,65a1b082ea682612b352ed1a,65d6bb0e977760de756971f7,65d6bd1bcb0a17198e65b8b6,0.1078,0.108,0,126,126,107,1,sixeight,,,,,,,,,,,,,,,,,,,,,,,,,,,,,,,,,,,,,,,,,,,,,,,,,,,,,,,,,,,,,,,,,,,,,,,,,,,,,,,,,,,,,,,,,,,,,,,,,,,,,,,,,,,,,,,,,,,,,,,,,,,,,,,,,,,,,,,,,
,,65a1b082ea682612b352ed1a,2024-02-22_14h17.44.831,kallum_motion_pilot,2023.2.2,MacIntel,59.84082341,65a1b082ea682612b352ed1a,65d6bb0e977760de756971f7,65d6bd1bcb0a17198e65b8b6,0.1082,0.1083,0,127,127,150,1,eightsix,,,,,,,,,,,,,,,,,,,,,,,,,,,,,,,,,,,,,,,,,,,,,,,,,,,,,,,,,,,,,,,,,,,,,,,,,,,,,,,,,,,,,,,,,,,,,,,,,,,,,,,,,,,,,,,,,,,,,,,,,,,,,,,,,,,,,,,,,
,,65a1b082ea682612b352ed1a,2024-02-22_14h17.44.831,kallum_motion_pilot,2023.2.2,MacIntel,59.84082341,65a1b082ea682612b352ed1a,65d6bb0e977760de756971f7,65d6bd1bcb0a17198e65b8b6,0.1085,0.1086,0,128,128,93,1,seveneight,,,,,,,,,,,,,,,,,,,,,,,,,,,,,,,,,,,,,,,,,,,,,,,,,,,,,,,,,,,,,,,,,,,,,,,,,,,,,,,,,,,,,,,,,,,,,,,,,,,,,,,,,,,,,,,,,,,,,,,,,,,,,,,,,,,,,,,,,
,,65a1b082ea682612b352ed1a,2024-02-22_14h17.44.831,kallum_motion_pilot,2023.2.2,MacIntel,59.84082341,65a1b082ea682612b352ed1a,65d6bb0e977760de756971f7,65d6bd1bcb0a17198e65b8b6,0.1101,0.1103,0,129,129,32,1,onetwo,,,,,,,,,,,,,,,,,,,,,,,,,,,,,,,,,,,,,,,,,,,,,,,,,,,,,,,,,,,,,,,,,,,,,,,,,,,,,,,,,,,,,,,,,,,,,,,,,,,,,,,,,,,,,,,,,,,,,,,,,,,,,,,,,,,,,,,,,
,,65a1b082ea682612b352ed1a,2024-02-22_14h17.44.831,kallum_motion_pilot,2023.2.2,MacIntel,59.84082341,65a1b082ea682612b352ed1a,65d6bb0e977760de756971f7,65d6bd1bcb0a17198e65b8b6,0.1106,0.1107,0,130,130,31,1,fourthree,,,,,,,,,,,,,,,,,,,,,,,,,,,,,,,,,,,,,,,,,,,,,,,,,,,,,,,,,,,,,,,,,,,,,,,,,,,,,,,,,,,,,,,,,,,,,,,,,,,,,,,,,,,,,,,,,,,,,,,,,,,,,,,,,,,,,,,,,
,,65a1b082ea682612b352ed1a,2024-02-22_14h17.44.831,kallum_motion_pilot,2023.2.2,MacIntel,59.84082341,65a1b082ea682612b352ed1a,65d6bb0e977760de756971f7,65d6bd1bcb0a17198e65b8b6,0.1111,0.1112,0,131,131,26,1,twoone,,,,,,,,,,,,,,,,,,,,,,,,,,,,,,,,,,,,,,,,,,,,,,,,,,,,,,,,,,,,,,,,,,,,,,,,,,,,,,,,,,,,,,,,,,,,,,,,,,,,,,,,,,,,,,,,,,,,,,,,,,,,,,,,,,,,,,,,,
,,65a1b082ea682612b352ed1a,2024-02-22_14h17.44.831,kallum_motion_pilot,2023.2.2,MacIntel,59.84082341,65a1b082ea682612b352ed1a,65d6bb0e977760de756971f7,65d6bd1bcb0a17198e65b8b6,0.1114,0.1115,0,132,132,42,1,twoone,,,,,,,,,,,,,,,,,,,,,,,,,,,,,,,,,,,,,,,,,,,,,,,,,,,,,,,,,,,,,,,,,,,,,,,,,,,,,,,,,,,,,,,,,,,,,,,,,,,,,,,,,,,,,,,,,,,,,,,,,,,,,,,,,,,,,,,,,
,,65a1b082ea682612b352ed1a,2024-02-22_14h17.44.831,kallum_motion_pilot,2023.2.2,MacIntel,59.84082341,65a1b082ea682612b352ed1a,65d6bb0e977760de756971f7,65d6bd1bcb0a17198e65b8b6,0.1118,0.1119,0,133,133,72,1,onetwo,,,,,,,,,,,,,,,,,,,,,,,,,,,,,,,,,,,,,,,,,,,,,,,,,,,,,,,,,,,,,,,,,,,,,,,,,,,,,,,,,,,,,,,,,,,,,,,,,,,,,,,,,,,,,,,,,,,,,,,,,,,,,,,,,,,,,,,,,
,,65a1b082ea682612b352ed1a,2024-02-22_14h17.44.831,kallum_motion_pilot,2023.2.2,MacIntel,59.84082341,65a1b082ea682612b352ed1a,65d6bb0e977760de756971f7,65d6bd1bcb0a17198e65b8b6,0.1122,0.1123,0,134,134,80,1,fivesix,,,,,,,,,,,,,,,,,,,,,,,,,,,,,,,,,,,,,,,,,,,,,,,,,,,,,,,,,,,,,,,,,,,,,,,,,,,,,,,,,,,,,,,,,,,,,,,,,,,,,,,,,,,,,,,,,,,,,,,,,,,,,,,,,,,,,,,,,
,,65a1b082ea682612b352ed1a,2024-02-22_14h17.44.831,kallum_motion_pilot,2023.2.2,MacIntel,59.84082341,65a1b082ea682612b352ed1a,65d6bb0e977760de756971f7,65d6bd1bcb0a17198e65b8b6,0.1125,0.1126,0,135,135,46,1,fourtwo,,,,,,,,,,,,,,,,,,,,,,,,,,,,,,,,,,,,,,,,,,,,,,,,,,,,,,,,,,,,,,,,,,,,,,,,,,,,,,,,,,,,,,,,,,,,,,,,,,,,,,,,,,,,,,,,,,,,,,,,,,,,,,,,,,,,,,,,,
,,65a1b082ea682612b352ed1a,2024-02-22_14h17.44.831,kallum_motion_pilot,2023.2.2,MacIntel,59.84082341,65a1b082ea682612b352ed1a,65d6bb0e977760de756971f7,65d6bd1bcb0a17198e65b8b6,0.1128,0.113,0,136,136,144,1,fivesix,,,,,,,,,,,,,,,,,,,,,,,,,,,,,,,,,,,,,,,,,,,,,,,,,,,,,,,,,,,,,,,,,,,,,,,,,,,,,,,,,,,,,,,,,,,,,,,,,,,,,,,,,,,,,,,,,,,,,,,,,,,,,,,,,,,,,,,,,
,,65a1b082ea682612b352ed1a,2024-02-22_14h17.44.831,kallum_motion_pilot,2023.2.2,MacIntel,59.84082341,65a1b082ea682612b352ed1a,65d6bb0e977760de756971f7,65d6bd1bcb0a17198e65b8b6,0.1132,0.1133,0,137,137,124,1,sevenfive,,,,,,,,,,,,,,,,,,,,,,,,,,,,,,,,,,,,,,,,,,,,,,,,,,,,,,,,,,,,,,,,,,,,,,,,,,,,,,,,,,,,,,,,,,,,,,,,,,,,,,,,,,,,,,,,,,,,,,,,,,,,,,,,,,,,,,,,,
,,65a1b082ea682612b352ed1a,2024-02-22_14h17.44.831,kallum_motion_pilot,2023.2.2,MacIntel,59.84082341,65a1b082ea682612b352ed1a,65d6bb0e977760de756971f7,65d6bd1bcb0a17198e65b8b6,0.1135,0.1136,0,138,138,60,1,threeone,,,,,,,,,,,,,,,,,,,,,,,,,,,,,,,,,,,,,,,,,,,,,,,,,,,,,,,,,,,,,,,,,,,,,,,,,,,,,,,,,,,,,,,,,,,,,,,,,,,,,,,,,,,,,,,,,,,,,,,,,,,,,,,,,,,,,,,,,
,,65a1b082ea682612b352ed1a,2024-02-22_14h17.44.831,kallum_motion_pilot,2023.2.2,MacIntel,59.84082341,65a1b082ea682612b352ed1a,65d6bb0e977760de756971f7,65d6bd1bcb0a17198e65b8b6,0.1138,0.114,0,139,139,146,1,sixfive,,,,,,,,,,,,,,,,,,,,,,,,,,,,,,,,,,,,,,,,,,,,,,,,,,,,,,,,,,,,,,,,,,,,,,,,,,,,,,,,,,,,,,,,,,,,,,,,,,,,,,,,,,,,,,,,,,,,,,,,,,,,,,,,,,,,,,,,,
,,65a1b082ea682612b352ed1a,2024-02-22_14h17.44.831,kallum_motion_pilot,2023.2.2,MacIntel,59.84082341,65a1b082ea682612b352ed1a,65d6bb0e977760de756971f7,65d6bd1bcb0a17198e65b8b6,0.1141,0.1142,0,140,140,75,1,twofour,,,,,,,,,,,,,,,,,,,,,,,,,,,,,,,,,,,,,,,,,,,,,,,,,,,,,,,,,,,,,,,,,,,,,,,,,,,,,,,,,,,,,,,,,,,,,,,,,,,,,,,,,,,,,,,,,,,,,,,,,,,,,,,,,,,,,,,,,
,,65a1b082ea682612b352ed1a,2024-02-22_14h17.44.831,kallum_motion_pilot,2023.2.2,MacIntel,59.84082341,65a1b082ea682612b352ed1a,65d6bb0e977760de756971f7,65d6bd1bcb0a17198e65b8b6,0.1144,0.1145,0,141,141,39,1,fourthree,,,,,,,,,,,,,,,,,,,,,,,,,,,,,,,,,,,,,,,,,,,,,,,,,,,,,,,,,,,,,,,,,,,,,,,,,,,,,,,,,,,,,,,,,,,,,,,,,,,,,,,,,,,,,,,,,,,,,,,,,,,,,,,,,,,,,,,,,
,,65a1b082ea682612b352ed1a,2024-02-22_14h17.44.831,kallum_motion_pilot,2023.2.2,MacIntel,59.84082341,65a1b082ea682612b352ed1a,65d6bb0e977760de756971f7,65d6bd1bcb0a17198e65b8b6,0.1147,0.1149,0,142,142,84,1,sevenfive,,,,,,,,,,,,,,,,,,,,,,,,,,,,,,,,,,,,,,,,,,,,,,,,,,,,,,,,,,,,,,,,,,,,,,,,,,,,,,,,,,,,,,,,,,,,,,,,,,,,,,,,,,,,,,,,,,,,,,,,,,,,,,,,,,,,,,,,,
,,65a1b082ea682612b352ed1a,2024-02-22_14h17.44.831,kallum_motion_pilot,2023.2.2,MacIntel,59.84082341,65a1b082ea682612b352ed1a,65d6bb0e977760de756971f7,65d6bd1bcb0a17198e65b8b6,0.115,0.1151,0,143,143,17,1,onethree,,,,,,,,,,,,,,,,,,,,,,,,,,,,,,,,,,,,,,,,,,,,,,,,,,,,,,,,,,,,,,,,,,,,,,,,,,,,,,,,,,,,,,,,,,,,,,,,,,,,,,,,,,,,,,,,,,,,,,,,,,,,,,,,,,,,,,,,,
,,65a1b082ea682612b352ed1a,2024-02-22_14h17.44.831,kallum_motion_pilot,2023.2.2,MacIntel,59.84082341,65a1b082ea682612b352ed1a,65d6bb0e977760de756971f7,65d6bd1bcb0a17198e65b8b6,0.1154,0.1155,0,144,144,7,1,fourthree,,,,,,,,,,,,,,,,,,,,,,,,,,,,,,,,,,,,,,,,,,,,,,,,,,,,,,,,,,,,,,,,,,,,,,,,,,,,,,,,,,,,,,,,,,,,,,,,,,,,,,,,,,,,,,,,,,,,,,,,,,,,,,,,,,,,,,,,,
,,65a1b082ea682612b352ed1a,2024-02-22_14h17.44.831,kallum_motion_pilot,2023.2.2,MacIntel,59.84082341,65a1b082ea682612b352ed1a,65d6bb0e977760de756971f7,65d6bd1bcb0a17198e65b8b6,0.1157,0.1159,0,145,145,66,1,twoone,,,,,,,,,,,,,,,,,,,,,,,,,,,,,,,,,,,,,,,,,,,,,,,,,,,,,,,,,,,,,,,,,,,,,,,,,,,,,,,,,,,,,,,,,,,,,,,,,,,,,,,,,,,,,,,,,,,,,,,,,,,,,,,,,,,,,,,,,
,,65a1b082ea682612b352ed1a,2024-02-22_14h17.44.831,kallum_motion_pilot,2023.2.2,MacIntel,59.84082341,65a1b082ea682612b352ed1a,65d6bb0e977760de756971f7,65d6bd1bcb0a17198e65b8b6,0.1161,0.1163,0,146,146,69,1,threefour,,,,,,,,,,,,,,,,,,,,,,,,,,,,,,,,,,,,,,,,,,,,,,,,,,,,,,,,,,,,,,,,,,,,,,,,,,,,,,,,,,,,,,,,,,,,,,,,,,,,,,,,,,,,,,,,,,,,,,,,,,,,,,,,,,,,,,,,,
,,65a1b082ea682612b352ed1a,2024-02-22_14h17.44.831,kallum_motion_pilot,2023.2.2,MacIntel,59.84082341,65a1b082ea682612b352ed1a,65d6bb0e977760de756971f7,65d6bd1bcb0a17198e65b8b6,0.1164,0.1165,0,147,147,100,1,sevenfive,,,,,,,,,,,,,,,,,,,,,,,,,,,,,,,,,,,,,,,,,,,,,,,,,,,,,,,,,,,,,,,,,,,,,,,,,,,,,,,,,,,,,,,,,,,,,,,,,,,,,,,,,,,,,,,,,,,,,,,,,,,,,,,,,,,,,,,,,
,,65a1b082ea682612b352ed1a,2024-02-22_14h17.44.831,kallum_motion_pilot,2023.2.2,MacIntel,59.84082341,65a1b082ea682612b352ed1a,65d6bb0e977760de756971f7,65d6bd1bcb0a17198e65b8b6,0.1168,0.1169,0,148,148,92,1,sevenfive,,,,,,,,,,,,,,,,,,,,,,,,,,,,,,,,,,,,,,,,,,,,,,,,,,,,,,,,,,,,,,,,,,,,,,,,,,,,,,,,,,,,,,,,,,,,,,,,,,,,,,,,,,,,,,,,,,,,,,,,,,,,,,,,,,,,,,,,,
,,65a1b082ea682612b352ed1a,2024-02-22_14h17.44.831,kallum_motion_pilot,2023.2.2,MacIntel,59.84082341,65a1b082ea682612b352ed1a,65d6bb0e977760de756971f7,65d6bd1bcb0a17198e65b8b6,0.117,0.1173,0,149,149,73,1,onethree,,,,,,,,,,,,,,,,,,,,,,,,,,,,,,,,,,,,,,,,,,,,,,,,,,,,,,,,,,,,,,,,,,,,,,,,,,,,,,,,,,,,,,,,,,,,,,,,,,,,,,,,,,,,,,,,,,,,,,,,,,,,,,,,,,,,,,,,,
,,65a1b082ea682612b352ed1a,2024-02-22_14h17.44.831,kallum_motion_pilot,2023.2.2,MacIntel,59.84082341,65a1b082ea682612b352ed1a,65d6bb0e977760de756971f7,65d6bd1bcb0a17198e65b8b6,0.1176,0.1177,0,150,150,1,1,onethree,,,,,,,,,,,,,,,,,,,,,,,,,,,,,,,,,,,,,,,,,,,,,,,,,,,,,,,,,,,,,,,,,,,,,,,,,,,,,,,,,,,,,,,,,,,,,,,,,,,,,,,,,,,,,,,,,,,,,,,,,,,,,,,,,,,,,,,,,
,,65a1b082ea682612b352ed1a,2024-02-22_14h17.44.831,kallum_motion_pilot,2023.2.2,MacIntel,59.84082341,65a1b082ea682612b352ed1a,65d6bb0e977760de756971f7,65d6bd1bcb0a17198e65b8b6,0.118,0.1181,0,151,151,160,1,fivesix,,,,,,,,,,,,,,,,,,,,,,,,,,,,,,,,,,,,,,,,,,,,,,,,,,,,,,,,,,,,,,,,,,,,,,,,,,,,,,,,,,,,,,,,,,,,,,,,,,,,,,,,,,,,,,,,,,,,,,,,,,,,,,,,,,,,,,,,,
,,65a1b082ea682612b352ed1a,2024-02-22_14h17.44.831,kallum_motion_pilot,2023.2.2,MacIntel,59.84082341,65a1b082ea682612b352ed1a,65d6bb0e977760de756971f7,65d6bd1bcb0a17198e65b8b6,0.1184,0.1185,0,152,152,116,1,sevenfive,,,,,,,,,,,,,,,,,,,,,,,,,,,,,,,,,,,,,,,,,,,,,,,,,,,,,,,,,,,,,,,,,,,,,,,,,,,,,,,,,,,,,,,,,,,,,,,,,,,,,,,,,,,,,,,,,,,,,,,,,,,,,,,,,,,,,,,,,
,,65a1b082ea682612b352ed1a,2024-02-22_14h17.44.831,kallum_motion_pilot,2023.2.2,MacIntel,59.84082341,65a1b082ea682612b352ed1a,65d6bb0e977760de756971f7,65d6bd1bcb0a17198e65b8b6,0.1189,0.1191,0,153,153,38,1,fourtwo,,,,,,,,,,,,,,,,,,,,,,,,,,,,,,,,,,,,,,,,,,,,,,,,,,,,,,,,,,,,,,,,,,,,,,,,,,,,,,,,,,,,,,,,,,,,,,,,,,,,,,,,,,,,,,,,,,,,,,,,,,,,,,,,,,,,,,,,,
,,65a1b082ea682612b352ed1a,2024-02-22_14h17.44.831,kallum_motion_pilot,2023.2.2,MacIntel,59.84082341,65a1b082ea682612b352ed1a,65d6bb0e977760de756971f7,65d6bd1bcb0a17198e65b8b6,0.1192,0.1193,0,154,154,36,1,threeone,,,,,,,,,,,,,,,,,,,,,,,,,,,,,,,,,,,,,,,,,,,,,,,,,,,,,,,,,,,,,,,,,,,,,,,,,,,,,,,,,,,,,,,,,,,,,,,,,,,,,,,,,,,,,,,,,,,,,,,,,,,,,,,,,,,,,,,,,
,,65a1b082ea682612b352ed1a,2024-02-22_14h17.44.831,kallum_motion_pilot,2023.2.2,MacIntel,59.84082341,65a1b082ea682612b352ed1a,65d6bb0e977760de756971f7,65d6bd1bcb0a17198e65b8b6,0.1199,0.12,0,155,155,4,1,threeone,,,,,,,,,,,,,,,,,,,,,,,,,,,,,,,,,,,,,,,,,,,,,,,,,,,,,,,,,,,,,,,,,,,,,,,,,,,,,,,,,,,,,,,,,,,,,,,,,,,,,,,,,,,,,,,,,,,,,,,,,,,,,,,,,,,,,,,,,
,,65a1b082ea682612b352ed1a,2024-02-22_14h17.44.831,kallum_motion_pilot,2023.2.2,MacIntel,59.84082341,65a1b082ea682612b352ed1a,65d6bb0e977760de756971f7,65d6bd1bcb0a17198e65b8b6,0.1202,0.1204,0,156,156,29,1,threefour,,,,,,,,,,,,,,,,,,,,,,,,,,,,,,,,,,,,,,,,,,,,,,,,,,,,,,,,,,,,,,,,,,,,,,,,,,,,,,,,,,,,,,,,,,,,,,,,,,,,,,,,,,,,,,,,,,,,,,,,,,,,,,,,,,,,,,,,,
,,65a1b082ea682612b352ed1a,2024-02-22_14h17.44.831,kallum_motion_pilot,2023.2.2,MacIntel,59.84082341,65a1b082ea682612b352ed1a,65d6bb0e977760de756971f7,65d6bd1bcb0a17198e65b8b6,0.1207,0.1209,0,157,157,61,1,threefour,,,,,,,,,,,,,,,,,,,,,,,,,,,,,,,,,,,,,,,,,,,,,,,,,,,,,,,,,,,,,,,,,,,,,,,,,,,,,,,,,,,,,,,,,,,,,,,,,,,,,,,,,,,,,,,,,,,,,,,,,,,,,,,,,,,,,,,,,
,,65a1b082ea682612b352ed1a,2024-02-22_14h17.44.831,kallum_motion_pilot,2023.2.2,MacIntel,59.84082341,65a1b082ea682612b352ed1a,65d6bb0e977760de756971f7,65d6bd1bcb0a17198e65b8b6,0.1214,0.1217,0,158,158,40,1,onetwo,,,,,,,,,,,,,,,,,,,,,,,,,,,,,,,,,,,,,,,,,,,,,,,,,,,,,,,,,,,,,,,,,,,,,,,,,,,,,,,,,,,,,,,,,,,,,,,,,,,,,,,,,,,,,,,,,,,,,,,,,,,,,,,,,,,,,,,,,
,,65a1b082ea682612b352ed1a,2024-02-22_14h17.44.831,kallum_motion_pilot,2023.2.2,MacIntel,59.84082341,65a1b082ea682612b352ed1a,65d6bb0e977760de756971f7,65d6bd1bcb0a17198e65b8b6,0.1221,0.1223,0,159,159,131,1,sixeight,,,,,,,,,,,,,,,,,,,,,,,,,,,,,,,,,,,,,,,,,,,,,,,,,,,,,,,,,,,,,,,,,,,,,,,,,,,,,,,,,,,,,,,,,,,,,,,,,,,,,,,,,,,,,,,,,,,,,,,,,,,,,,,,,,,,,,,,,
,,65a1b082ea682612b352ed1a,2024-02-22_14h17.44.831,kallum_motion_pilot,2023.2.2,MacIntel,59.84082341,65a1b082ea682612b352ed1a,65d6bb0e977760de756971f7,65d6bd1bcb0a17198e65b8b6,0.1228,0.1229,0,160,160,81,1,fiveseven,,,,,,,,,,,,,,,,,,,,,,,,,,,,,,,,,,,,,,,,,,,,,,,,,,,,,,,,,,,,,,,,,,,,,,,,,,,,,,,,,,,,,,,,,,,,,,,,,,,,,,,,,,,,,,,,,,,,,,,,,,,,,,,,,,,,,,,,,
,,65a1b082ea682612b352ed1a,2024-02-22_14h17.44.831,kallum_motion_pilot,2023.2.2,MacIntel,59.84082341,65a1b082ea682612b352ed1a,65d6bb0e977760de756971f7,65d6bd1bcb0a17198e65b8b6,0.1233,0.1234,0,161,161,128,1,fivesix,,,,,,,,,,,,,,,,,,,,,,,,,,,,,,,,,,,,,,,,,,,,,,,,,,,,,,,,,,,,,,,,,,,,,,,,,,,,,,,,,,,,,,,,,,,,,,,,,,,,,,,,,,,,,,,,,,,,,,,,,,,,,,,,,,,,,,,,,
,,65a1b082ea682612b352ed1a,2024-02-22_14h17.44.831,kallum_motion_pilot,2023.2.2,MacIntel,59.84082341,65a1b082ea682612b352ed1a,65d6bb0e977760de756971f7,65d6bd1bcb0a17198e65b8b6,0.1237,0.1239,1,0,162,73,1,onethree,,,,,,,,,,,,,,,,,,,,,,,,,,,,,,,,,,,,,,,,,,,,,,,,,,,,,,,,,,,,,,,,,,,,,,,,,,,,,,,,,,,,,,,,,,,,,,,,,,,,,,,,,,,,,,,,,,,,,,,,,,,,,,,,,,,,,,,,,
,,65a1b082ea682612b352ed1a,2024-02-22_14h17.44.831,kallum_motion_pilot,2023.2.2,MacIntel,59.84082341,65a1b082ea682612b352ed1a,65d6bb0e977760de756971f7,65d6bd1bcb0a17198e65b8b6,0.1242,0.1243,1,1,163,116,1,sevenfive,,,,,,,,,,,,,,,,,,,,,,,,,,,,,,,,,,,,,,,,,,,,,,,,,,,,,,,,,,,,,,,,,,,,,,,,,,,,,,,,,,,,,,,,,,,,,,,,,,,,,,,,,,,,,,,,,,,,,,,,,,,,,,,,,,,,,,,,,
,,65a1b082ea682612b352ed1a,2024-02-22_14h17.44.831,kallum_motion_pilot,2023.2.2,MacIntel,59.84082341,65a1b082ea682612b352ed1a,65d6bb0e977760de756971f7,65d6bd1bcb0a17198e65b8b6,0.1245,0.1246,1,2,164,125,1,seveneight,,,,,,,,,,,,,,,,,,,,,,,,,,,,,,,,,,,,,,,,,,,,,,,,,,,,,,,,,,,,,,,,,,,,,,,,,,,,,,,,,,,,,,,,,,,,,,,,,,,,,,,,,,,,,,,,,,,,,,,,,,,,,,,,,,,,,,,,,
,,65a1b082ea682612b352ed1a,2024-02-22_14h17.44.831,kallum_motion_pilot,2023.2.2,MacIntel,59.84082341,65a1b082ea682612b352ed1a,65d6bb0e977760de756971f7,65d6bd1bcb0a17198e65b8b6,0.1249,0.125,1,3,165,35,1,twofour,,,,,,,,,,,,,,,,,,,,,,,,,,,,,,,,,,,,,,,,,,,,,,,,,,,,,,,,,,,,,,,,,,,,,,,,,,,,,,,,,,,,,,,,,,,,,,,,,,,,,,,,,,,,,,,,,,,,,,,,,,,,,,,,,,,,,,,,,
,,65a1b082ea682612b352ed1a,2024-02-22_14h17.44.831,kallum_motion_pilot,2023.2.2,MacIntel,59.84082341,65a1b082ea682612b352ed1a,65d6bb0e977760de756971f7,65d6bd1bcb0a17198e65b8b6,0.1253,0.1254,1,4,166,139,1,sixeight,,,,,,,,,,,,,,,,,,,,,,,,,,,,,,,,,,,,,,,,,,,,,,,,,,,,,,,,,,,,,,,,,,,,,,,,,,,,,,,,,,,,,,,,,,,,,,,,,,,,,,,,,,,,,,,,,,,,,,,,,,,,,,,,,,,,,,,,,
,,65a1b082ea682612b352ed1a,2024-02-22_14h17.44.831,kallum_motion_pilot,2023.2.2,MacIntel,59.84082341,65a1b082ea682612b352ed1a,65d6bb0e977760de756971f7,65d6bd1bcb0a17198e65b8b6,0.1257,0.1259,1,5,167,63,1,fourthree,,,,,,,,,,,,,,,,,,,,,,,,,,,,,,,,,,,,,,,,,,,,,,,,,,,,,,,,,,,,,,,,,,,,,,,,,,,,,,,,,,,,,,,,,,,,,,,,,,,,,,,,,,,,,,,,,,,,,,,,,,,,,,,,,,,,,,,,,
,,65a1b082ea682612b352ed1a,2024-02-22_14h17.44.831,kallum_motion_pilot,2023.2.2,MacIntel,59.84082341,65a1b082ea682612b352ed1a,65d6bb0e977760de756971f7,65d6bd1bcb0a17198e65b8b6,0.1261,0.1262,1,6,168,47,1,fourthree,,,,,,,,,,,,,,,,,,,,,,,,,,,,,,,,,,,,,,,,,,,,,,,,,,,,,,,,,,,,,,,,,,,,,,,,,,,,,,,,,,,,,,,,,,,,,,,,,,,,,,,,,,,,,,,,,,,,,,,,,,,,,,,,,,,,,,,,,
,,65a1b082ea682612b352ed1a,2024-02-22_14h17.44.831,kallum_motion_pilot,2023.2.2,MacIntel,59.84082341,65a1b082ea682612b352ed1a,65d6bb0e977760de756971f7,65d6bd1bcb0a17198e65b8b6,0.1265,0.1267,1,7,169,18,1,twoone,,,,,,,,,,,,,,,,,,,,,,,,,,,,,,,,,,,,,,,,,,,,,,,,,,,,,,,,,,,,,,,,,,,,,,,,,,,,,,,,,,,,,,,,,,,,,,,,,,,,,,,,,,,,,,,,,,,,,,,,,,,,,,,,,,,,,,,,,
,,65a1b082ea682612b352ed1a,2024-02-22_14h17.44.831,kallum_motion_pilot,2023.2.2,MacIntel,59.84082341,65a1b082ea682612b352ed1a,65d6bb0e977760de756971f7,65d6bd1bcb0a17198e65b8b6,0.1269,0.1271,1,8,170,84,1,sevenfive,,,,,,,,,,,,,,,,,,,,,,,,,,,,,,,,,,,,,,,,,,,,,,,,,,,,,,,,,,,,,,,,,,,,,,,,,,,,,,,,,,,,,,,,,,,,,,,,,,,,,,,,,,,,,,,,,,,,,,,,,,,,,,,,,,,,,,,,,
,,65a1b082ea682612b352ed1a,2024-02-22_14h17.44.831,kallum_motion_pilot,2023.2.2,MacIntel,59.84082341,65a1b082ea682612b352ed1a,65d6bb0e977760de756971f7,65d6bd1bcb0a17198e65b8b6,0.1274,0.1275,1,9,171,38,1,fourtwo,,,,,,,,,,,,,,,,,,,,,,,,,,,,,,,,,,,,,,,,,,,,,,,,,,,,,,,,,,,,,,,,,,,,,,,,,,,,,,,,,,,,,,,,,,,,,,,,,,,,,,,,,,,,,,,,,,,,,,,,,,,,,,,,,,,,,,,,,
,,65a1b082ea682612b352ed1a,2024-02-22_14h17.44.831,kallum_motion_pilot,2023.2.2,MacIntel,59.84082341,65a1b082ea682612b352ed1a,65d6bb0e977760de756971f7,65d6bd1bcb0a17198e65b8b6,0.1276,0.1278,1,10,172,20,1,threeone,,,,,,,,,,,,,,,,,,,,,,,,,,,,,,,,,,,,,,,,,,,,,,,,,,,,,,,,,,,,,,,,,,,,,,,,,,,,,,,,,,,,,,,,,,,,,,,,,,,,,,,,,,,,,,,,,,,,,,,,,,,,,,,,,,,,,,,,,
,,65a1b082ea682612b352ed1a,2024-02-22_14h17.44.831,kallum_motion_pilot,2023.2.2,MacIntel,59.84082341,65a1b082ea682612b352ed1a,65d6bb0e977760de756971f7,65d6bd1bcb0a17198e65b8b6,0.128,0.1281,1,11,173,24,1,onetwo,,,,,,,,,,,,,,,,,,,,,,,,,,,,,,,,,,,,,,,,,,,,,,,,,,,,,,,,,,,,,,,,,,,,,,,,,,,,,,,,,,,,,,,,,,,,,,,,,,,,,,,,,,,,,,,,,,,,,,,,,,,,,,,,,,,,,,,,,
,,65a1b082ea682612b352ed1a,2024-02-22_14h17.44.831,kallum_motion_pilot,2023.2.2,MacIntel,59.84082341,65a1b082ea682612b352ed1a,65d6bb0e977760de756971f7,65d6bd1bcb0a17198e65b8b6,0.1283,0.1284,1,12,174,115,1,sixeight,,,,,,,,,,,,,,,,,,,,,,,,,,,,,,,,,,,,,,,,,,,,,,,,,,,,,,,,,,,,,,,,,,,,,,,,,,,,,,,,,,,,,,,,,,,,,,,,,,,,,,,,,,,,,,,,,,,,,,,,,,,,,,,,,,,,,,,,,
,,65a1b082ea682612b352ed1a,2024-02-22_14h17.44.831,kallum_motion_pilot,2023.2.2,MacIntel,59.84082341,65a1b082ea682612b352ed1a,65d6bb0e977760de756971f7,65d6bd1bcb0a17198e65b8b6,0.1286,0.129,1,13,175,153,1,fiveseven,,,,,,,,,,,,,,,,,,,,,,,,,,,,,,,,,,,,,,,,,,,,,,,,,,,,,,,,,,,,,,,,,,,,,,,,,,,,,,,,,,,,,,,,,,,,,,,,,,,,,,,,,,,,,,,,,,,,,,,,,,,,,,,,,,,,,,,,,
,,65a1b082ea682612b352ed1a,2024-02-22_14h17.44.831,kallum_motion_pilot,2023.2.2,MacIntel,59.84082341,65a1b082ea682612b352ed1a,65d6bb0e977760de756971f7,65d6bd1bcb0a17198e65b8b6,0.1292,0.1293,1,14,176,126,1,eightsix,,,,,,,,,,,,,,,,,,,,,,,,,,,,,,,,,,,,,,,,,,,,,,,,,,,,,,,,,,,,,,,,,,,,,,,,,,,,,,,,,,,,,,,,,,,,,,,,,,,,,,,,,,,,,,,,,,,,,,,,,,,,,,,,,,,,,,,,,
,,65a1b082ea682612b352ed1a,2024-02-22_14h17.44.831,kallum_motion_pilot,2023.2.2,MacIntel,59.84082341,65a1b082ea682612b352ed1a,65d6bb0e977760de756971f7,65d6bd1bcb0a17198e65b8b6,0.1294,0.1296,1,15,177,150,1,eightsix,,,,,,,,,,,,,,,,,,,,,,,,,,,,,,,,,,,,,,,,,,,,,,,,,,,,,,,,,,,,,,,,,,,,,,,,,,,,,,,,,,,,,,,,,,,,,,,,,,,,,,,,,,,,,,,,,,,,,,,,,,,,,,,,,,,,,,,,,
,,65a1b082ea682612b352ed1a,2024-02-22_14h17.44.831,kallum_motion_pilot,2023.2.2,MacIntel,59.84082341,65a1b082ea682612b352ed1a,65d6bb0e977760de756971f7,65d6bd1bcb0a17198e65b8b6,0.1298,0.13,1,16,178,17,1,onethree,,,,,,,,,,,,,,,,,,,,,,,,,,,,,,,,,,,,,,,,,,,,,,,,,,,,,,,,,,,,,,,,,,,,,,,,,,,,,,,,,,,,,,,,,,,,,,,,,,,,,,,,,,,,,,,,,,,,,,,,,,,,,,,,,,,,,,,,,
,,65a1b082ea682612b352ed1a,2024-02-22_14h17.44.831,kallum_motion_pilot,2023.2.2,MacIntel,59.84082341,65a1b082ea682612b352ed1a,65d6bb0e977760de756971f7,65d6bd1bcb0a17198e65b8b6,0.1302,0.1304,1,17,179,36,1,threeone,,,,,,,,,,,,,,,,,,,,,,,,,,,,,,,,,,,,,,,,,,,,,,,,,,,,,,,,,,,,,,,,,,,,,,,,,,,,,,,,,,,,,,,,,,,,,,,,,,,,,,,,,,,,,,,,,,,,,,,,,,,,,,,,,,,,,,,,,
,,65a1b082ea682612b352ed1a,2024-02-22_14h17.44.831,kallum_motion_pilot,2023.2.2,MacIntel,59.84082341,65a1b082ea682612b352ed1a,65d6bb0e977760de756971f7,65d6bd1bcb0a17198e65b8b6,0.1306,0.1307,1,18,180,137,1,fiveseven,,,,,,,,,,,,,,,,,,,,,,,,,,,,,,,,,,,,,,,,,,,,,,,,,,,,,,,,,,,,,,,,,,,,,,,,,,,,,,,,,,,,,,,,,,,,,,,,,,,,,,,,,,,,,,,,,,,,,,,,,,,,,,,,,,,,,,,,,
,,65a1b082ea682612b352ed1a,2024-02-22_14h17.44.831,kallum_motion_pilot,2023.2.2,MacIntel,59.84082341,65a1b082ea682612b352ed1a,65d6bb0e977760de756971f7,65d6bd1bcb0a17198e65b8b6,0.131,0.1311,1,19,181,161,1,fiveseven,,,,,,,,,,,,,,,,,,,,,,,,,,,,,,,,,,,,,,,,,,,,,,,,,,,,,,,,,,,,,,,,,,,,,,,,,,,,,,,,,,,,,,,,,,,,,,,,,,,,,,,,,,,,,,,,,,,,,,,,,,,,,,,,,,,,,,,,,
,,65a1b082ea682612b352ed1a,2024-02-22_14h17.44.831,kallum_motion_pilot,2023.2.2,MacIntel,59.84082341,65a1b082ea682612b352ed1a,65d6bb0e977760de756971f7,65d6bd1bcb0a17198e65b8b6,0.1314,0.1315,1,20,182,145,1,fiveseven,,,,,,,,,,,,,,,,,,,,,,,,,,,,,,,,,,,,,,,,,,,,,,,,,,,,,,,,,,,,,,,,,,,,,,,,,,,,,,,,,,,,,,,,,,,,,,,,,,,,,,,,,,,,,,,,,,,,,,,,,,,,,,,,,,,,,,,,,
,,65a1b082ea682612b352ed1a,2024-02-22_14h17.44.831,kallum_motion_pilot,2023.2.2,MacIntel,59.84082341,65a1b082ea682612b352ed1a,65d6bb0e977760de756971f7,65d6bd1bcb0a17198e65b8b6,0.1317,0.1319,1,21,183,123,1,sixeight,,,,,,,,,,,,,,,,,,,,,,,,,,,,,,,,,,,,,,,,,,,,,,,,,,,,,,,,,,,,,,,,,,,,,,,,,,,,,,,,,,,,,,,,,,,,,,,,,,,,,,,,,,,,,,,,,,,,,,,,,,,,,,,,,,,,,,,,,
,,65a1b082ea682612b352ed1a,2024-02-22_14h17.44.831,kallum_motion_pilot,2023.2.2,MacIntel,59.84082341,65a1b082ea682612b352ed1a,65d6bb0e977760de756971f7,65d6bd1bcb0a17198e65b8b6,0.1322,0.1323,1,22,184,31,1,fourthree,,,,,,,,,,,,,,,,,,,,,,,,,,,,,,,,,,,,,,,,,,,,,,,,,,,,,,,,,,,,,,,,,,,,,,,,,,,,,,,,,,,,,,,,,,,,,,,,,,,,,,,,,,,,,,,,,,,,,,,,,,,,,,,,,,,,,,,,,
,,65a1b082ea682612b352ed1a,2024-02-22_14h17.44.831,kallum_motion_pilot,2023.2.2,MacIntel,59.84082341,65a1b082ea682612b352ed1a,65d6bb0e977760de756971f7,65d6bd1bcb0a17198e65b8b6,0.1325,0.1326,1,23,185,105,1,fiveseven,,,,,,,,,,,,,,,,,,,,,,,,,,,,,,,,,,,,,,,,,,,,,,,,,,,,,,,,,,,,,,,,,,,,,,,,,,,,,,,,,,,,,,,,,,,,,,,,,,,,,,,,,,,,,,,,,,,,,,,,,,,,,,,,,,,,,,,,,
,,65a1b082ea682612b352ed1a,2024-02-22_14h17.44.831,kallum_motion_pilot,2023.2.2,MacIntel,59.84082341,65a1b082ea682612b352ed1a,65d6bb0e977760de756971f7,65d6bd1bcb0a17198e65b8b6,0.1328,0.133,1,24,186,59,1,twofour,,,,,,,,,,,,,,,,,,,,,,,,,,,,,,,,,,,,,,,,,,,,,,,,,,,,,,,,,,,,,,,,,,,,,,,,,,,,,,,,,,,,,,,,,,,,,,,,,,,,,,,,,,,,,,,,,,,,,,,,,,,,,,,,,,,,,,,,,
,,65a1b082ea682612b352ed1a,2024-02-22_14h17.44.831,kallum_motion_pilot,2023.2.2,MacIntel,59.84082341,65a1b082ea682612b352ed1a,65d6bb0e977760de756971f7,65d6bd1bcb0a17198e65b8b6,0.1332,0.1334,1,25,187,25,1,onethree,,,,,,,,,,,,,,,,,,,,,,,,,,,,,,,,,,,,,,,,,,,,,,,,,,,,,,,,,,,,,,,,,,,,,,,,,,,,,,,,,,,,,,,,,,,,,,,,,,,,,,,,,,,,,,,,,,,,,,,,,,,,,,,,,,,,,,,,,
,,65a1b082ea682612b352ed1a,2024-02-22_14h17.44.831,kallum_motion_pilot,2023.2.2,MacIntel,59.84082341,65a1b082ea682612b352ed1a,65d6bb0e977760de756971f7,65d6bd1bcb0a17198e65b8b6,0.1336,0.1338,1,26,188,46,1,fourtwo,,,,,,,,,,,,,,,,,,,,,,,,,,,,,,,,,,,,,,,,,,,,,,,,,,,,,,,,,,,,,,,,,,,,,,,,,,,,,,,,,,,,,,,,,,,,,,,,,,,,,,,,,,,,,,,,,,,,,,,,,,,,,,,,,,,,,,,,,
,,65a1b082ea682612b352ed1a,2024-02-22_14h17.44.831,kallum_motion_pilot,2023.2.2,MacIntel,59.84082341,65a1b082ea682612b352ed1a,65d6bb0e977760de756971f7,65d6bd1bcb0a17198e65b8b6,0.134,0.1342,1,27,189,142,1,eightsix,,,,,,,,,,,,,,,,,,,,,,,,,,,,,,,,,,,,,,,,,,,,,,,,,,,,,,,,,,,,,,,,,,,,,,,,,,,,,,,,,,,,,,,,,,,,,,,,,,,,,,,,,,,,,,,,,,,,,,,,,,,,,,,,,,,,,,,,,
,,65a1b082ea682612b352ed1a,2024-02-22_14h17.44.831,kallum_motion_pilot,2023.2.2,MacIntel,59.84082341,65a1b082ea682612b352ed1a,65d6bb0e977760de756971f7,65d6bd1bcb0a17198e65b8b6,0.1345,0.1348,1,28,190,87,1,eightseven,,,,,,,,,,,,,,,,,,,,,,,,,,,,,,,,,,,,,,,,,,,,,,,,,,,,,,,,,,,,,,,,,,,,,,,,,,,,,,,,,,,,,,,,,,,,,,,,,,,,,,,,,,,,,,,,,,,,,,,,,,,,,,,,,,,,,,,,,
,,65a1b082ea682612b352ed1a,2024-02-22_14h17.44.831,kallum_motion_pilot,2023.2.2,MacIntel,59.84082341,65a1b082ea682612b352ed1a,65d6bb0e977760de756971f7,65d6bd1bcb0a17198e65b8b6,0.1352,0.1355,1,29,191,120,1,fivesix,,,,,,,,,,,,,,,,,,,,,,,,,,,,,,,,,,,,,,,,,,,,,,,,,,,,,,,,,,,,,,,,,,,,,,,,,,,,,,,,,,,,,,,,,,,,,,,,,,,,,,,,,,,,,,,,,,,,,,,,,,,,,,,,,,,,,,,,,
,,65a1b082ea682612b352ed1a,2024-02-22_14h17.44.831,kallum_motion_pilot,2023.2.2,MacIntel,59.84082341,65a1b082ea682612b352ed1a,65d6bb0e977760de756971f7,65d6bd1bcb0a17198e65b8b6,0.1359,0.1361,1,30,192,70,1,fourtwo,,,,,,,,,,,,,,,,,,,,,,,,,,,,,,,,,,,,,,,,,,,,,,,,,,,,,,,,,,,,,,,,,,,,,,,,,,,,,,,,,,,,,,,,,,,,,,,,,,,,,,,,,,,,,,,,,,,,,,,,,,,,,,,,,,,,,,,,,
,,65a1b082ea682612b352ed1a,2024-02-22_14h17.44.831,kallum_motion_pilot,2023.2.2,MacIntel,59.84082341,65a1b082ea682612b352ed1a,65d6bb0e977760de756971f7,65d6bd1bcb0a17198e65b8b6,0.1367,0.137,1,31,193,57,1,onethree,,,,,,,,,,,,,,,,,,,,,,,,,,,,,,,,,,,,,,,,,,,,,,,,,,,,,,,,,,,,,,,,,,,,,,,,,,,,,,,,,,,,,,,,,,,,,,,,,,,,,,,,,,,,,,,,,,,,,,,,,,,,,,,,,,,,,,,,,
,,65a1b082ea682612b352ed1a,2024-02-22_14h17.44.831,kallum_motion_pilot,2023.2.2,MacIntel,59.84082341,65a1b082ea682612b352ed1a,65d6bb0e977760de756971f7,65d6bd1bcb0a17198e65b8b6,0.1376,0.1379,1,32,194,40,1,onetwo,,,,,,,,,,,,,,,,,,,,,,,,,,,,,,,,,,,,,,,,,,,,,,,,,,,,,,,,,,,,,,,,,,,,,,,,,,,,,,,,,,,,,,,,,,,,,,,,,,,,,,,,,,,,,,,,,,,,,,,,,,,,,,,,,,,,,,,,,
,,65a1b082ea682612b352ed1a,2024-02-22_14h17.44.831,kallum_motion_pilot,2023.2.2,MacIntel,59.84082341,65a1b082ea682612b352ed1a,65d6bb0e977760de756971f7,65d6bd1bcb0a17198e65b8b6,0.1386,0.1389,1,33,195,144,1,fivesix,,,,,,,,,,,,,,,,,,,,,,,,,,,,,,,,,,,,,,,,,,,,,,,,,,,,,,,,,,,,,,,,,,,,,,,,,,,,,,,,,,,,,,,,,,,,,,,,,,,,,,,,,,,,,,,,,,,,,,,,,,,,,,,,,,,,,,,,,
,,65a1b082ea682612b352ed1a,2024-02-22_14h17.44.831,kallum_motion_pilot,2023.2.2,MacIntel,59.84082341,65a1b082ea682612b352ed1a,65d6bb0e977760de756971f7,65d6bd1bcb0a17198e65b8b6,0.1392,0.1394,1,34,196,108,1,sevenfive,,,,,,,,,,,,,,,,,,,,,,,,,,,,,,,,,,,,,,,,,,,,,,,,,,,,,,,,,,,,,,,,,,,,,,,,,,,,,,,,,,,,,,,,,,,,,,,,,,,,,,,,,,,,,,,,,,,,,,,,,,,,,,,,,,,,,,,,,
,,65a1b082ea682612b352ed1a,2024-02-22_14h17.44.831,kallum_motion_pilot,2023.2.2,MacIntel,59.84082341,65a1b082ea682612b352ed1a,65d6bb0e977760de756971f7,65d6bd1bcb0a17198e65b8b6,0.1397,0.1398,1,35,197,13,1,threefour,,,,,,,,,,,,,,,,,,,,,,,,,,,,,,,,,,,,,,,,,,,,,,,,,,,,,,,,,,,,,,,,,,,,,,,,,,,,,,,,,,,,,,,,,,,,,,,,,,,,,,,,,,,,,,,,,,,,,,,,,,,,,,,,,,,,,,,,,
,,65a1b082ea682612b352ed1a,2024-02-22_14h17.44.831,kallum_motion_pilot,2023.2.2,MacIntel,59.84082341,65a1b082ea682612b352ed1a,65d6bb0e977760de756971f7,65d6bd1bcb0a17198e65b8b6,0.14,0.1401,1,36,198,148,1,sevenfive,,,,,,,,,,,,,,,,,,,,,,,,,,,,,,,,,,,,,,,,,,,,,,,,,,,,,,,,,,,,,,,,,,,,,,,,,,,,,,,,,,,,,,,,,,,,,,,,,,,,,,,,,,,,,,,,,,,,,,,,,,,,,,,,,,,,,,,,,
,,65a1b082ea682612b352ed1a,2024-02-22_14h17.44.831,kallum_motion_pilot,2023.2.2,MacIntel,59.84082341,65a1b082ea682612b352ed1a,65d6bb0e977760de756971f7,65d6bd1bcb0a17198e65b8b6,0.1404,0.1407,1,37,199,16,1,onetwo,,,,,,,,,,,,,,,,,,,,,,,,,,,,,,,,,,,,,,,,,,,,,,,,,,,,,,,,,,,,,,,,,,,,,,,,,,,,,,,,,,,,,,,,,,,,,,,,,,,,,,,,,,,,,,,,,,,,,,,,,,,,,,,,,,,,,,,,,
,,65a1b082ea682612b352ed1a,2024-02-22_14h17.44.831,kallum_motion_pilot,2023.2.2,MacIntel,59.84082341,65a1b082ea682612b352ed1a,65d6bb0e977760de756971f7,65d6bd1bcb0a17198e65b8b6,0.1409,0.1411,1,38,200,80,1,fivesix,,,,,,,,,,,,,,,,,,,,,,,,,,,,,,,,,,,,,,,,,,,,,,,,,,,,,,,,,,,,,,,,,,,,,,,,,,,,,,,,,,,,,,,,,,,,,,,,,,,,,,,,,,,,,,,,,,,,,,,,,,,,,,,,,,,,,,,,,
,,65a1b082ea682612b352ed1a,2024-02-22_14h17.44.831,kallum_motion_pilot,2023.2.2,MacIntel,59.84082341,65a1b082ea682612b352ed1a,65d6bb0e977760de756971f7,65d6bd1bcb0a17198e65b8b6,0.1413,0.1414,1,39,201,151,1,eightseven,,,,,,,,,,,,,,,,,,,,,,,,,,,,,,,,,,,,,,,,,,,,,,,,,,,,,,,,,,,,,,,,,,,,,,,,,,,,,,,,,,,,,,,,,,,,,,,,,,,,,,,,,,,,,,,,,,,,,,,,,,,,,,,,,,,,,,,,,
,,65a1b082ea682612b352ed1a,2024-02-22_14h17.44.831,kallum_motion_pilot,2023.2.2,MacIntel,59.84082341,65a1b082ea682612b352ed1a,65d6bb0e977760de756971f7,65d6bd1bcb0a17198e65b8b6,0.1417,0.1419,1,40,202,129,1,fiveseven,,,,,,,,,,,,,,,,,,,,,,,,,,,,,,,,,,,,,,,,,,,,,,,,,,,,,,,,,,,,,,,,,,,,,,,,,,,,,,,,,,,,,,,,,,,,,,,,,,,,,,,,,,,,,,,,,,,,,,,,,,,,,,,,,,,,,,,,,
,,65a1b082ea682612b352ed1a,2024-02-22_14h17.44.831,kallum_motion_pilot,2023.2.2,MacIntel,59.84082341,65a1b082ea682612b352ed1a,65d6bb0e977760de756971f7,65d6bd1bcb0a17198e65b8b6,0.1422,0.1423,1,41,203,138,1,sixfive,,,,,,,,,,,,,,,,,,,,,,,,,,,,,,,,,,,,,,,,,,,,,,,,,,,,,,,,,,,,,,,,,,,,,,,,,,,,,,,,,,,,,,,,,,,,,,,,,,,,,,,,,,,,,,,,,,,,,,,,,,,,,,,,,,,,,,,,,
,,65a1b082ea682612b352ed1a,2024-02-22_14h17.44.831,kallum_motion_pilot,2023.2.2,MacIntel,59.84082341,65a1b082ea682612b352ed1a,65d6bb0e977760de756971f7,65d6bd1bcb0a17198e65b8b6,0.1424,0.1426,1,42,204,27,1,twofour,,,,,,,,,,,,,,,,,,,,,,,,,,,,,,,,,,,,,,,,,,,,,,,,,,,,,,,,,,,,,,,,,,,,,,,,,,,,,,,,,,,,,,,,,,,,,,,,,,,,,,,,,,,,,,,,,,,,,,,,,,,,,,,,,,,,,,,,,
,,65a1b082ea682612b352ed1a,2024-02-22_14h17.44.831,kallum_motion_pilot,2023.2.2,MacIntel,59.84082341,65a1b082ea682612b352ed1a,65d6bb0e977760de756971f7,65d6bd1bcb0a17198e65b8b6,0.1428,0.1431,1,43,205,91,1,sixeight,,,,,,,,,,,,,,,,,,,,,,,,,,,,,,,,,,,,,,,,,,,,,,,,,,,,,,,,,,,,,,,,,,,,,,,,,,,,,,,,,,,,,,,,,,,,,,,,,,,,,,,,,,,,,,,,,,,,,,,,,,,,,,,,,,,,,,,,,
,,65a1b082ea682612b352ed1a,2024-02-22_14h17.44.831,kallum_motion_pilot,2023.2.2,MacIntel,59.84082341,65a1b082ea682612b352ed1a,65d6bb0e977760de756971f7,65d6bd1bcb0a17198e65b8b6,0.1433,0.1435,1,44,206,128,1,fivesix,,,,,,,,,,,,,,,,,,,,,,,,,,,,,,,,,,,,,,,,,,,,,,,,,,,,,,,,,,,,,,,,,,,,,,,,,,,,,,,,,,,,,,,,,,,,,,,,,,,,,,,,,,,,,,,,,,,,,,,,,,,,,,,,,,,,,,,,,
,,65a1b082ea682612b352ed1a,2024-02-22_14h17.44.831,kallum_motion_pilot,2023.2.2,MacIntel,59.84082341,65a1b082ea682612b352ed1a,65d6bb0e977760de756971f7,65d6bd1bcb0a17198e65b8b6,0.1437,0.1439,1,45,207,19,1,twofour,,,,,,,,,,,,,,,,,,,,,,,,,,,,,,,,,,,,,,,,,,,,,,,,,,,,,,,,,,,,,,,,,,,,,,,,,,,,,,,,,,,,,,,,,,,,,,,,,,,,,,,,,,,,,,,,,,,,,,,,,,,,,,,,,,,,,,,,,
,,65a1b082ea682612b352ed1a,2024-02-22_14h17.44.831,kallum_motion_pilot,2023.2.2,MacIntel,59.84082341,65a1b082ea682612b352ed1a,65d6bb0e977760de756971f7,65d6bd1bcb0a17198e65b8b6,0.1441,0.1443,1,46,208,113,1,fiveseven,,,,,,,,,,,,,,,,,,,,,,,,,,,,,,,,,,,,,,,,,,,,,,,,,,,,,,,,,,,,,,,,,,,,,,,,,,,,,,,,,,,,,,,,,,,,,,,,,,,,,,,,,,,,,,,,,,,,,,,,,,,,,,,,,,,,,,,,,
,,65a1b082ea682612b352ed1a,2024-02-22_14h17.44.831,kallum_motion_pilot,2023.2.2,MacIntel,59.84082341,65a1b082ea682612b352ed1a,65d6bb0e977760de756971f7,65d6bd1bcb0a17198e65b8b6,0.1445,0.1446,1,47,209,149,1,seveneight,,,,,,,,,,,,,,,,,,,,,,,,,,,,,,,,,,,,,,,,,,,,,,,,,,,,,,,,,,,,,,,,,,,,,,,,,,,,,,,,,,,,,,,,,,,,,,,,,,,,,,,,,,,,,,,,,,,,,,,,,,,,,,,,,,,,,,,,,
,,65a1b082ea682612b352ed1a,2024-02-22_14h17.44.831,kallum_motion_pilot,2023.2.2,MacIntel,59.84082341,65a1b082ea682612b352ed1a,65d6bb0e977760de756971f7,65d6bd1bcb0a17198e65b8b6,0.1448,0.1449,1,48,210,89,1,fiveseven,,,,,,,,,,,,,,,,,,,,,,,,,,,,,,,,,,,,,,,,,,,,,,,,,,,,,,,,,,,,,,,,,,,,,,,,,,,,,,,,,,,,,,,,,,,,,,,,,,,,,,,,,,,,,,,,,,,,,,,,,,,,,,,,,,,,,,,,,
,,65a1b082ea682612b352ed1a,2024-02-22_14h17.44.831,kallum_motion_pilot,2023.2.2,MacIntel,59.84082341,65a1b082ea682612b352ed1a,65d6bb0e977760de756971f7,65d6bd1bcb0a17198e65b8b6,0.1452,0.1452,1,49,211,34,1,twoone,,,,,,,,,,,,,,,,,,,,,,,,,,,,,,,,,,,,,,,,,,,,,,,,,,,,,,,,,,,,,,,,,,,,,,,,,,,,,,,,,,,,,,,,,,,,,,,,,,,,,,,,,,,,,,,,,,,,,,,,,,,,,,,,,,,,,,,,,
,,65a1b082ea682612b352ed1a,2024-02-22_14h17.44.831,kallum_motion_pilot,2023.2.2,MacIntel,59.84082341,65a1b082ea682612b352ed1a,65d6bb0e977760de756971f7,65d6bd1bcb0a17198e65b8b6,0.1454,0.1456,1,50,212,121,1,fiveseven,,,,,,,,,,,,,,,,,,,,,,,,,,,,,,,,,,,,,,,,,,,,,,,,,,,,,,,,,,,,,,,,,,,,,,,,,,,,,,,,,,,,,,,,,,,,,,,,,,,,,,,,,,,,,,,,,,,,,,,,,,,,,,,,,,,,,,,,,
,,65a1b082ea682612b352ed1a,2024-02-22_14h17.44.831,kallum_motion_pilot,2023.2.2,MacIntel,59.84082341,65a1b082ea682612b352ed1a,65d6bb0e977760de756971f7,65d6bd1bcb0a17198e65b8b6,0.1458,0.1459,1,51,213,21,1,threefour,,,,,,,,,,,,,,,,,,,,,,,,,,,,,,,,,,,,,,,,,,,,,,,,,,,,,,,,,,,,,,,,,,,,,,,,,,,,,,,,,,,,,,,,,,,,,,,,,,,,,,,,,,,,,,,,,,,,,,,,,,,,,,,,,,,,,,,,,
,,65a1b082ea682612b352ed1a,2024-02-22_14h17.44.831,kallum_motion_pilot,2023.2.2,MacIntel,59.84082341,65a1b082ea682612b352ed1a,65d6bb0e977760de756971f7,65d6bd1bcb0a17198e65b8b6,0.1461,0.1464,1,52,214,106,1,sixfive,,,,,,,,,,,,,,,,,,,,,,,,,,,,,,,,,,,,,,,,,,,,,,,,,,,,,,,,,,,,,,,,,,,,,,,,,,,,,,,,,,,,,,,,,,,,,,,,,,,,,,,,,,,,,,,,,,,,,,,,,,,,,,,,,,,,,,,,,
,,65a1b082ea682612b352ed1a,2024-02-22_14h17.44.831,kallum_motion_pilot,2023.2.2,MacIntel,59.84082341,65a1b082ea682612b352ed1a,65d6bb0e977760de756971f7,65d6bd1bcb0a17198e65b8b6,0.1466,0.1467,1,53,215,10,1,twoone,,,,,,,,,,,,,,,,,,,,,,,,,,,,,,,,,,,,,,,,,,,,,,,,,,,,,,,,,,,,,,,,,,,,,,,,,,,,,,,,,,,,,,,,,,,,,,,,,,,,,,,,,,,,,,,,,,,,,,,,,,,,,,,,,,,,,,,,,
,,65a1b082ea682612b352ed1a,2024-02-22_14h17.44.831,kallum_motion_pilot,2023.2.2,MacIntel,59.84082341,65a1b082ea682612b352ed1a,65d6bb0e977760de756971f7,65d6bd1bcb0a17198e65b8b6,0.1469,0.1471,1,54,216,12,1,threeone,,,,,,,,,,,,,,,,,,,,,,,,,,,,,,,,,,,,,,,,,,,,,,,,,,,,,,,,,,,,,,,,,,,,,,,,,,,,,,,,,,,,,,,,,,,,,,,,,,,,,,,,,,,,,,,,,,,,,,,,,,,,,,,,,,,,,,,,,
,,65a1b082ea682612b352ed1a,2024-02-22_14h17.44.831,kallum_motion_pilot,2023.2.2,MacIntel,59.84082341,65a1b082ea682612b352ed1a,65d6bb0e977760de756971f7,65d6bd1bcb0a17198e65b8b6,0.1473,0.1474,1,55,217,74,1,twoone,,,,,,,,,,,,,,,,,,,,,,,,,,,,,,,,,,,,,,,,,,,,,,,,,,,,,,,,,,,,,,,,,,,,,,,,,,,,,,,,,,,,,,,,,,,,,,,,,,,,,,,,,,,,,,,,,,,,,,,,,,,,,,,,,,,,,,,,,
,,65a1b082ea682612b352ed1a,2024-02-22_14h17.44.831,kallum_motion_pilot,2023.2.2,MacIntel,59.84082341,65a1b082ea682612b352ed1a,65d6bb0e977760de756971f7,65d6bd1bcb0a17198e65b8b6,0.1476,0.1478,1,56,218,135,1,eightseven,,,,,,,,,,,,,,,,,,,,,,,,,,,,,,,,,,,,,,,,,,,,,,,,,,,,,,,,,,,,,,,,,,,,,,,,,,,,,,,,,,,,,,,,,,,,,,,,,,,,,,,,,,,,,,,,,,,,,,,,,,,,,,,,,,,,,,,,,
,,65a1b082ea682612b352ed1a,2024-02-22_14h17.44.831,kallum_motion_pilot,2023.2.2,MacIntel,59.84082341,65a1b082ea682612b352ed1a,65d6bb0e977760de756971f7,65d6bd1bcb0a17198e65b8b6,0.148,0.1481,1,57,219,85,1,seveneight,,,,,,,,,,,,,,,,,,,,,,,,,,,,,,,,,,,,,,,,,,,,,,,,,,,,,,,,,,,,,,,,,,,,,,,,,,,,,,,,,,,,,,,,,,,,,,,,,,,,,,,,,,,,,,,,,,,,,,,,,,,,,,,,,,,,,,,,,
,,65a1b082ea682612b352ed1a,2024-02-22_14h17.44.831,kallum_motion_pilot,2023.2.2,MacIntel,59.84082341,65a1b082ea682612b352ed1a,65d6bb0e977760de756971f7,65d6bd1bcb0a17198e65b8b6,0.1483,0.1485,1,58,220,77,1,threefour,,,,,,,,,,,,,,,,,,,,,,,,,,,,,,,,,,,,,,,,,,,,,,,,,,,,,,,,,,,,,,,,,,,,,,,,,,,,,,,,,,,,,,,,,,,,,,,,,,,,,,,,,,,,,,,,,,,,,,,,,,,,,,,,,,,,,,,,,
,,65a1b082ea682612b352ed1a,2024-02-22_14h17.44.831,kallum_motion_pilot,2023.2.2,MacIntel,59.84082341,65a1b082ea682612b352ed1a,65d6bb0e977760de756971f7,65d6bd1bcb0a17198e65b8b6,0.1487,0.1488,1,59,221,72,1,onetwo,,,,,,,,,,,,,,,,,,,,,,,,,,,,,,,,,,,,,,,,,,,,,,,,,,,,,,,,,,,,,,,,,,,,,,,,,,,,,,,,,,,,,,,,,,,,,,,,,,,,,,,,,,,,,,,,,,,,,,,,,,,,,,,,,,,,,,,,,
,,65a1b082ea682612b352ed1a,2024-02-22_14h17.44.831,kallum_motion_pilot,2023.2.2,MacIntel,59.84082341,65a1b082ea682612b352ed1a,65d6bb0e977760de756971f7,65d6bd1bcb0a17198e65b8b6,0.149,0.1491,1,60,222,52,1,threeone,,,,,,,,,,,,,,,,,,,,,,,,,,,,,,,,,,,,,,,,,,,,,,,,,,,,,,,,,,,,,,,,,,,,,,,,,,,,,,,,,,,,,,,,,,,,,,,,,,,,,,,,,,,,,,,,,,,,,,,,,,,,,,,,,,,,,,,,,
,,65a1b082ea682612b352ed1a,2024-02-22_14h17.44.831,kallum_motion_pilot,2023.2.2,MacIntel,59.84082341,65a1b082ea682612b352ed1a,65d6bb0e977760de756971f7,65d6bd1bcb0a17198e65b8b6,0.1494,0.1495,1,61,223,81,1,fiveseven,,,,,,,,,,,,,,,,,,,,,,,,,,,,,,,,,,,,,,,,,,,,,,,,,,,,,,,,,,,,,,,,,,,,,,,,,,,,,,,,,,,,,,,,,,,,,,,,,,,,,,,,,,,,,,,,,,,,,,,,,,,,,,,,,,,,,,,,,
,,65a1b082ea682612b352ed1a,2024-02-22_14h17.44.831,kallum_motion_pilot,2023.2.2,MacIntel,59.84082341,65a1b082ea682612b352ed1a,65d6bb0e977760de756971f7,65d6bd1bcb0a17198e65b8b6,0.1497,0.1499,1,62,224,28,1,threeone,,,,,,,,,,,,,,,,,,,,,,,,,,,,,,,,,,,,,,,,,,,,,,,,,,,,,,,,,,,,,,,,,,,,,,,,,,,,,,,,,,,,,,,,,,,,,,,,,,,,,,,,,,,,,,,,,,,,,,,,,,,,,,,,,,,,,,,,,
,,65a1b082ea682612b352ed1a,2024-02-22_14h17.44.831,kallum_motion_pilot,2023.2.2,MacIntel,59.84082341,65a1b082ea682612b352ed1a,65d6bb0e977760de756971f7,65d6bd1bcb0a17198e65b8b6,0.1501,0.1502,1,63,225,61,1,threefour,,,,,,,,,,,,,,,,,,,,,,,,,,,,,,,,,,,,,,,,,,,,,,,,,,,,,,,,,,,,,,,,,,,,,,,,,,,,,,,,,,,,,,,,,,,,,,,,,,,,,,,,,,,,,,,,,,,,,,,,,,,,,,,,,,,,,,,,,
,,65a1b082ea682612b352ed1a,2024-02-22_14h17.44.831,kallum_motion_pilot,2023.2.2,MacIntel,59.84082341,65a1b082ea682612b352ed1a,65d6bb0e977760de756971f7,65d6bd1bcb0a17198e65b8b6,0.1504,0.1506,1,64,226,5,1,threefour,,,,,,,,,,,,,,,,,,,,,,,,,,,,,,,,,,,,,,,,,,,,,,,,,,,,,,,,,,,,,,,,,,,,,,,,,,,,,,,,,,,,,,,,,,,,,,,,,,,,,,,,,,,,,,,,,,,,,,,,,,,,,,,,,,,,,,,,,
,,65a1b082ea682612b352ed1a,2024-02-22_14h17.44.831,kallum_motion_pilot,2023.2.2,MacIntel,59.84082341,65a1b082ea682612b352ed1a,65d6bb0e977760de756971f7,65d6bd1bcb0a17198e65b8b6,0.1508,0.1509,1,65,227,53,1,threefour,,,,,,,,,,,,,,,,,,,,,,,,,,,,,,,,,,,,,,,,,,,,,,,,,,,,,,,,,,,,,,,,,,,,,,,,,,,,,,,,,,,,,,,,,,,,,,,,,,,,,,,,,,,,,,,,,,,,,,,,,,,,,,,,,,,,,,,,,
,,65a1b082ea682612b352ed1a,2024-02-22_14h17.44.831,kallum_motion_pilot,2023.2.2,MacIntel,59.84082341,65a1b082ea682612b352ed1a,65d6bb0e977760de756971f7,65d6bd1bcb0a17198e65b8b6,0.1512,0.1513,1,66,228,43,1,twofour,,,,,,,,,,,,,,,,,,,,,,,,,,,,,,,,,,,,,,,,,,,,,,,,,,,,,,,,,,,,,,,,,,,,,,,,,,,,,,,,,,,,,,,,,,,,,,,,,,,,,,,,,,,,,,,,,,,,,,,,,,,,,,,,,,,,,,,,,
,,65a1b082ea682612b352ed1a,2024-02-22_14h17.44.831,kallum_motion_pilot,2023.2.2,MacIntel,59.84082341,65a1b082ea682612b352ed1a,65d6bb0e977760de756971f7,65d6bd1bcb0a17198e65b8b6,0.1516,0.1518,1,67,229,111,1,eightseven,,,,,,,,,,,,,,,,,,,,,,,,,,,,,,,,,,,,,,,,,,,,,,,,,,,,,,,,,,,,,,,,,,,,,,,,,,,,,,,,,,,,,,,,,,,,,,,,,,,,,,,,,,,,,,,,,,,,,,,,,,,,,,,,,,,,,,,,,
,,65a1b082ea682612b352ed1a,2024-02-22_14h17.44.831,kallum_motion_pilot,2023.2.2,MacIntel,59.84082341,65a1b082ea682612b352ed1a,65d6bb0e977760de756971f7,65d6bd1bcb0a17198e65b8b6,0.1521,0.1524,1,68,230,23,1,fourthree,,,,,,,,,,,,,,,,,,,,,,,,,,,,,,,,,,,,,,,,,,,,,,,,,,,,,,,,,,,,,,,,,,,,,,,,,,,,,,,,,,,,,,,,,,,,,,,,,,,,,,,,,,,,,,,,,,,,,,,,,,,,,,,,,,,,,,,,,
,,65a1b082ea682612b352ed1a,2024-02-22_14h17.44.831,kallum_motion_pilot,2023.2.2,MacIntel,59.84082341,65a1b082ea682612b352ed1a,65d6bb0e977760de756971f7,65d6bd1bcb0a17198e65b8b6,0.1529,0.153,1,69,231,119,1,eightseven,,,,,,,,,,,,,,,,,,,,,,,,,,,,,,,,,,,,,,,,,,,,,,,,,,,,,,,,,,,,,,,,,,,,,,,,,,,,,,,,,,,,,,,,,,,,,,,,,,,,,,,,,,,,,,,,,,,,,,,,,,,,,,,,,,,,,,,,,
,,65a1b082ea682612b352ed1a,2024-02-22_14h17.44.831,kallum_motion_pilot,2023.2.2,MacIntel,59.84082341,65a1b082ea682612b352ed1a,65d6bb0e977760de756971f7,65d6bd1bcb0a17198e65b8b6,0.1533,0.1536,1,70,232,160,1,fivesix,,,,,,,,,,,,,,,,,,,,,,,,,,,,,,,,,,,,,,,,,,,,,,,,,,,,,,,,,,,,,,,,,,,,,,,,,,,,,,,,,,,,,,,,,,,,,,,,,,,,,,,,,,,,,,,,,,,,,,,,,,,,,,,,,,,,,,,,,
,,65a1b082ea682612b352ed1a,2024-02-22_14h17.44.831,kallum_motion_pilot,2023.2.2,MacIntel,59.84082341,65a1b082ea682612b352ed1a,65d6bb0e977760de756971f7,65d6bd1bcb0a17198e65b8b6,0.154,0.1541,1,71,233,78,1,fourtwo,,,,,,,,,,,,,,,,,,,,,,,,,,,,,,,,,,,,,,,,,,,,,,,,,,,,,,,,,,,,,,,,,,,,,,,,,,,,,,,,,,,,,,,,,,,,,,,,,,,,,,,,,,,,,,,,,,,,,,,,,,,,,,,,,,,,,,,,,
,,65a1b082ea682612b352ed1a,2024-02-22_14h17.44.831,kallum_motion_pilot,2023.2.2,MacIntel,59.84082341,65a1b082ea682612b352ed1a,65d6bb0e977760de756971f7,65d6bd1bcb0a17198e65b8b6,0.1545,0.1547,1,72,234,107,1,sixeight,,,,,,,,,,,,,,,,,,,,,,,,,,,,,,,,,,,,,,,,,,,,,,,,,,,,,,,,,,,,,,,,,,,,,,,,,,,,,,,,,,,,,,,,,,,,,,,,,,,,,,,,,,,,,,,,,,,,,,,,,,,,,,,,,,,,,,,,,
,,65a1b082ea682612b352ed1a,2024-02-22_14h17.44.831,kallum_motion_pilot,2023.2.2,MacIntel,59.84082341,65a1b082ea682612b352ed1a,65d6bb0e977760de756971f7,65d6bd1bcb0a17198e65b8b6,0.1552,0.1555,1,73,235,93,1,seveneight,,,,,,,,,,,,,,,,,,,,,,,,,,,,,,,,,,,,,,,,,,,,,,,,,,,,,,,,,,,,,,,,,,,,,,,,,,,,,,,,,,,,,,,,,,,,,,,,,,,,,,,,,,,,,,,,,,,,,,,,,,,,,,,,,,,,,,,,,
,,65a1b082ea682612b352ed1a,2024-02-22_14h17.44.831,kallum_motion_pilot,2023.2.2,MacIntel,59.84082341,65a1b082ea682612b352ed1a,65d6bb0e977760de756971f7,65d6bd1bcb0a17198e65b8b6,0.156,0.1561,1,74,236,141,1,seveneight,,,,,,,,,,,,,,,,,,,,,,,,,,,,,,,,,,,,,,,,,,,,,,,,,,,,,,,,,,,,,,,,,,,,,,,,,,,,,,,,,,,,,,,,,,,,,,,,,,,,,,,,,,,,,,,,,,,,,,,,,,,,,,,,,,,,,,,,,
,,65a1b082ea682612b352ed1a,2024-02-22_14h17.44.831,kallum_motion_pilot,2023.2.2,MacIntel,59.84082341,65a1b082ea682612b352ed1a,65d6bb0e977760de756971f7,65d6bd1bcb0a17198e65b8b6,0.1564,0.1565,1,75,237,132,1,sevenfive,,,,,,,,,,,,,,,,,,,,,,,,,,,,,,,,,,,,,,,,,,,,,,,,,,,,,,,,,,,,,,,,,,,,,,,,,,,,,,,,,,,,,,,,,,,,,,,,,,,,,,,,,,,,,,,,,,,,,,,,,,,,,,,,,,,,,,,,,
,,65a1b082ea682612b352ed1a,2024-02-22_14h17.44.831,kallum_motion_pilot,2023.2.2,MacIntel,59.84082341,65a1b082ea682612b352ed1a,65d6bb0e977760de756971f7,65d6bd1bcb0a17198e65b8b6,0.1569,0.157,1,76,238,112,1,fivesix,,,,,,,,,,,,,,,,,,,,,,,,,,,,,,,,,,,,,,,,,,,,,,,,,,,,,,,,,,,,,,,,,,,,,,,,,,,,,,,,,,,,,,,,,,,,,,,,,,,,,,,,,,,,,,,,,,,,,,,,,,,,,,,,,,,,,,,,,
,,65a1b082ea682612b352ed1a,2024-02-22_14h17.44.831,kallum_motion_pilot,2023.2.2,MacIntel,59.84082341,65a1b082ea682612b352ed1a,65d6bb0e977760de756971f7,65d6bd1bcb0a17198e65b8b6,0.1574,0.1574,1,77,239,50,1,twoone,,,,,,,,,,,,,,,,,,,,,,,,,,,,,,,,,,,,,,,,,,,,,,,,,,,,,,,,,,,,,,,,,,,,,,,,,,,,,,,,,,,,,,,,,,,,,,,,,,,,,,,,,,,,,,,,,,,,,,,,,,,,,,,,,,,,,,,,,
,,65a1b082ea682612b352ed1a,2024-02-22_14h17.44.831,kallum_motion_pilot,2023.2.2,MacIntel,59.84082341,65a1b082ea682612b352ed1a,65d6bb0e977760de756971f7,65d6bd1bcb0a17198e65b8b6,0.1577,0.158,1,78,240,58,1,twoone,,,,,,,,,,,,,,,,,,,,,,,,,,,,,,,,,,,,,,,,,,,,,,,,,,,,,,,,,,,,,,,,,,,,,,,,,,,,,,,,,,,,,,,,,,,,,,,,,,,,,,,,,,,,,,,,,,,,,,,,,,,,,,,,,,,,,,,,,
,,65a1b082ea682612b352ed1a,2024-02-22_14h17.44.831,kallum_motion_pilot,2023.2.2,MacIntel,59.84082341,65a1b082ea682612b352ed1a,65d6bb0e977760de756971f7,65d6bd1bcb0a17198e65b8b6,0.1582,0.1583,1,79,241,104,1,fivesix,,,,,,,,,,,,,,,,,,,,,,,,,,,,,,,,,,,,,,,,,,,,,,,,,,,,,,,,,,,,,,,,,,,,,,,,,,,,,,,,,,,,,,,,,,,,,,,,,,,,,,,,,,,,,,,,,,,,,,,,,,,,,,,,,,,,,,,,,
,,65a1b082ea682612b352ed1a,2024-02-22_14h17.44.831,kallum_motion_pilot,2023.2.2,MacIntel,59.84082341,65a1b082ea682612b352ed1a,65d6bb0e977760de756971f7,65d6bd1bcb0a17198e65b8b6,0.1587,0.1588,1,80,242,114,1,sixfive,,,,,,,,,,,,,,,,,,,,,,,,,,,,,,,,,,,,,,,,,,,,,,,,,,,,,,,,,,,,,,,,,,,,,,,,,,,,,,,,,,,,,,,,,,,,,,,,,,,,,,,,,,,,,,,,,,,,,,,,,,,,,,,,,,,,,,,,,
,,65a1b082ea682612b352ed1a,2024-02-22_14h17.44.831,kallum_motion_pilot,2023.2.2,MacIntel,59.84082341,65a1b082ea682612b352ed1a,65d6bb0e977760de756971f7,65d6bd1bcb0a17198e65b8b6,0.159,0.1592,1,81,243,158,1,eightsix,,,,,,,,,,,,,,,,,,,,,,,,,,,,,,,,,,,,,,,,,,,,,,,,,,,,,,,,,,,,,,,,,,,,,,,,,,,,,,,,,,,,,,,,,,,,,,,,,,,,,,,,,,,,,,,,,,,,,,,,,,,,,,,,,,,,,,,,,
,,65a1b082ea682612b352ed1a,2024-02-22_14h17.44.831,kallum_motion_pilot,2023.2.2,MacIntel,59.84082341,65a1b082ea682612b352ed1a,65d6bb0e977760de756971f7,65d6bd1bcb0a17198e65b8b6,0.1594,0.1597,1,82,244,60,1,threeone,,,,,,,,,,,,,,,,,,,,,,,,,,,,,,,,,,,,,,,,,,,,,,,,,,,,,,,,,,,,,,,,,,,,,,,,,,,,,,,,,,,,,,,,,,,,,,,,,,,,,,,,,,,,,,,,,,,,,,,,,,,,,,,,,,,,,,,,,
,,65a1b082ea682612b352ed1a,2024-02-22_14h17.44.831,kallum_motion_pilot,2023.2.2,MacIntel,59.84082341,65a1b082ea682612b352ed1a,65d6bb0e977760de756971f7,65d6bd1bcb0a17198e65b8b6,0.16,0.1602,1,83,245,124,1,sevenfive,,,,,,,,,,,,,,,,,,,,,,,,,,,,,,,,,,,,,,,,,,,,,,,,,,,,,,,,,,,,,,,,,,,,,,,,,,,,,,,,,,,,,,,,,,,,,,,,,,,,,,,,,,,,,,,,,,,,,,,,,,,,,,,,,,,,,,,,,
,,65a1b082ea682612b352ed1a,2024-02-22_14h17.44.831,kallum_motion_pilot,2023.2.2,MacIntel,59.84082341,65a1b082ea682612b352ed1a,65d6bb0e977760de756971f7,65d6bd1bcb0a17198e65b8b6,0.1605,0.1606,1,84,246,67,1,twofour,,,,,,,,,,,,,,,,,,,,,,,,,,,,,,,,,,,,,,,,,,,,,,,,,,,,,,,,,,,,,,,,,,,,,,,,,,,,,,,,,,,,,,,,,,,,,,,,,,,,,,,,,,,,,,,,,,,,,,,,,,,,,,,,,,,,,,,,,
,,65a1b082ea682612b352ed1a,2024-02-22_14h17.44.831,kallum_motion_pilot,2023.2.2,MacIntel,59.84082341,65a1b082ea682612b352ed1a,65d6bb0e977760de756971f7,65d6bd1bcb0a17198e65b8b6,0.1608,0.161,1,85,247,92,1,sevenfive,,,,,,,,,,,,,,,,,,,,,,,,,,,,,,,,,,,,,,,,,,,,,,,,,,,,,,,,,,,,,,,,,,,,,,,,,,,,,,,,,,,,,,,,,,,,,,,,,,,,,,,,,,,,,,,,,,,,,,,,,,,,,,,,,,,,,,,,,
,,65a1b082ea682612b352ed1a,2024-02-22_14h17.44.831,kallum_motion_pilot,2023.2.2,MacIntel,59.84082341,65a1b082ea682612b352ed1a,65d6bb0e977760de756971f7,65d6bd1bcb0a17198e65b8b6,0.1612,0.1614,1,86,248,42,1,twoone,,,,,,,,,,,,,,,,,,,,,,,,,,,,,,,,,,,,,,,,,,,,,,,,,,,,,,,,,,,,,,,,,,,,,,,,,,,,,,,,,,,,,,,,,,,,,,,,,,,,,,,,,,,,,,,,,,,,,,,,,,,,,,,,,,,,,,,,,
,,65a1b082ea682612b352ed1a,2024-02-22_14h17.44.831,kallum_motion_pilot,2023.2.2,MacIntel,59.84082341,65a1b082ea682612b352ed1a,65d6bb0e977760de756971f7,65d6bd1bcb0a17198e65b8b6,0.1617,0.1618,1,87,249,71,1,fourthree,,,,,,,,,,,,,,,,,,,,,,,,,,,,,,,,,,,,,,,,,,,,,,,,,,,,,,,,,,,,,,,,,,,,,,,,,,,,,,,,,,,,,,,,,,,,,,,,,,,,,,,,,,,,,,,,,,,,,,,,,,,,,,,,,,,,,,,,,
,,65a1b082ea682612b352ed1a,2024-02-22_14h17.44.831,kallum_motion_pilot,2023.2.2,MacIntel,59.84082341,65a1b082ea682612b352ed1a,65d6bb0e977760de756971f7,65d6bd1bcb0a17198e65b8b6,0.1621,0.1623,1,88,250,54,1,fourtwo,,,,,,,,,,,,,,,,,,,,,,,,,,,,,,,,,,,,,,,,,,,,,,,,,,,,,,,,,,,,,,,,,,,,,,,,,,,,,,,,,,,,,,,,,,,,,,,,,,,,,,,,,,,,,,,,,,,,,,,,,,,,,,,,,,,,,,,,,
,,65a1b082ea682612b352ed1a,2024-02-22_14h17.44.831,kallum_motion_pilot,2023.2.2,MacIntel,59.84082341,65a1b082ea682612b352ed1a,65d6bb0e977760de756971f7,65d6bd1bcb0a17198e65b8b6,0.1624,0.1626,1,89,251,130,1,sixfive,,,,,,,,,,,,,,,,,,,,,,,,,,,,,,,,,,,,,,,,,,,,,,,,,,,,,,,,,,,,,,,,,,,,,,,,,,,,,,,,,,,,,,,,,,,,,,,,,,,,,,,,,,,,,,,,,,,,,,,,,,,,,,,,,,,,,,,,,
,,65a1b082ea682612b352ed1a,2024-02-22_14h17.44.831,kallum_motion_pilot,2023.2.2,MacIntel,59.84082341,65a1b082ea682612b352ed1a,65d6bb0e977760de756971f7,65d6bd1bcb0a17198e65b8b6,0.1628,0.163,1,90,252,109,1,seveneight,,,,,,,,,,,,,,,,,,,,,,,,,,,,,,,,,,,,,,,,,,,,,,,,,,,,,,,,,,,,,,,,,,,,,,,,,,,,,,,,,,,,,,,,,,,,,,,,,,,,,,,,,,,,,,,,,,,,,,,,,,,,,,,,,,,,,,,,,
,,65a1b082ea682612b352ed1a,2024-02-22_14h17.44.831,kallum_motion_pilot,2023.2.2,MacIntel,59.84082341,65a1b082ea682612b352ed1a,65d6bb0e977760de756971f7,65d6bd1bcb0a17198e65b8b6,0.1632,0.1633,1,91,253,146,1,sixfive,,,,,,,,,,,,,,,,,,,,,,,,,,,,,,,,,,,,,,,,,,,,,,,,,,,,,,,,,,,,,,,,,,,,,,,,,,,,,,,,,,,,,,,,,,,,,,,,,,,,,,,,,,,,,,,,,,,,,,,,,,,,,,,,,,,,,,,,,
,,65a1b082ea682612b352ed1a,2024-02-22_14h17.44.831,kallum_motion_pilot,2023.2.2,MacIntel,59.84082341,65a1b082ea682612b352ed1a,65d6bb0e977760de756971f7,65d6bd1bcb0a17198e65b8b6,0.1635,0.1638,1,92,254,11,1,twofour,,,,,,,,,,,,,,,,,,,,,,,,,,,,,,,,,,,,,,,,,,,,,,,,,,,,,,,,,,,,,,,,,,,,,,,,,,,,,,,,,,,,,,,,,,,,,,,,,,,,,,,,,,,,,,,,,,,,,,,,,,,,,,,,,,,,,,,,,
,,65a1b082ea682612b352ed1a,2024-02-22_14h17.44.831,kallum_motion_pilot,2023.2.2,MacIntel,59.84082341,65a1b082ea682612b352ed1a,65d6bb0e977760de756971f7,65d6bd1bcb0a17198e65b8b6,0.1641,0.1643,1,93,255,26,1,twoone,,,,,,,,,,,,,,,,,,,,,,,,,,,,,,,,,,,,,,,,,,,,,,,,,,,,,,,,,,,,,,,,,,,,,,,,,,,,,,,,,,,,,,,,,,,,,,,,,,,,,,,,,,,,,,,,,,,,,,,,,,,,,,,,,,,,,,,,,
,,65a1b082ea682612b352ed1a,2024-02-22_14h17.44.831,kallum_motion_pilot,2023.2.2,MacIntel,59.84082341,65a1b082ea682612b352ed1a,65d6bb0e977760de756971f7,65d6bd1bcb0a17198e65b8b6,0.1644,0.1645,1,94,256,1,1,onethree,,,,,,,,,,,,,,,,,,,,,,,,,,,,,,,,,,,,,,,,,,,,,,,,,,,,,,,,,,,,,,,,,,,,,,,,,,,,,,,,,,,,,,,,,,,,,,,,,,,,,,,,,,,,,,,,,,,,,,,,,,,,,,,,,,,,,,,,,
,,65a1b082ea682612b352ed1a,2024-02-22_14h17.44.831,kallum_motion_pilot,2023.2.2,MacIntel,59.84082341,65a1b082ea682612b352ed1a,65d6bb0e977760de756971f7,65d6bd1bcb0a17198e65b8b6,0.1648,0.1649,1,95,257,0,1,onetwo,,,,,,,,,,,,,,,,,,,,,,,,,,,,,,,,,,,,,,,,,,,,,,,,,,,,,,,,,,,,,,,,,,,,,,,,,,,,,,,,,,,,,,,,,,,,,,,,,,,,,,,,,,,,,,,,,,,,,,,,,,,,,,,,,,,,,,,,,
,,65a1b082ea682612b352ed1a,2024-02-22_14h17.44.831,kallum_motion_pilot,2023.2.2,MacIntel,59.84082341,65a1b082ea682612b352ed1a,65d6bb0e977760de756971f7,65d6bd1bcb0a17198e65b8b6,0.1651,0.1652,1,96,258,82,1,sixfive,,,,,,,,,,,,,,,,,,,,,,,,,,,,,,,,,,,,,,,,,,,,,,,,,,,,,,,,,,,,,,,,,,,,,,,,,,,,,,,,,,,,,,,,,,,,,,,,,,,,,,,,,,,,,,,,,,,,,,,,,,,,,,,,,,,,,,,,,
,,65a1b082ea682612b352ed1a,2024-02-22_14h17.44.831,kallum_motion_pilot,2023.2.2,MacIntel,59.84082341,65a1b082ea682612b352ed1a,65d6bb0e977760de756971f7,65d6bd1bcb0a17198e65b8b6,0.1654,0.1656,1,97,259,2,1,twoone,,,,,,,,,,,,,,,,,,,,,,,,,,,,,,,,,,,,,,,,,,,,,,,,,,,,,,,,,,,,,,,,,,,,,,,,,,,,,,,,,,,,,,,,,,,,,,,,,,,,,,,,,,,,,,,,,,,,,,,,,,,,,,,,,,,,,,,,,
,,65a1b082ea682612b352ed1a,2024-02-22_14h17.44.831,kallum_motion_pilot,2023.2.2,MacIntel,59.84082341,65a1b082ea682612b352ed1a,65d6bb0e977760de756971f7,65d6bd1bcb0a17198e65b8b6,0.1658,0.166,1,98,260,41,1,onethree,,,,,,,,,,,,,,,,,,,,,,,,,,,,,,,,,,,,,,,,,,,,,,,,,,,,,,,,,,,,,,,,,,,,,,,,,,,,,,,,,,,,,,,,,,,,,,,,,,,,,,,,,,,,,,,,,,,,,,,,,,,,,,,,,,,,,,,,,
,,65a1b082ea682612b352ed1a,2024-02-22_14h17.44.831,kallum_motion_pilot,2023.2.2,MacIntel,59.84082341,65a1b082ea682612b352ed1a,65d6bb0e977760de756971f7,65d6bd1bcb0a17198e65b8b6,0.1661,0.1663,1,99,261,15,1,fourthree,,,,,,,,,,,,,,,,,,,,,,,,,,,,,,,,,,,,,,,,,,,,,,,,,,,,,,,,,,,,,,,,,,,,,,,,,,,,,,,,,,,,,,,,,,,,,,,,,,,,,,,,,,,,,,,,,,,,,,,,,,,,,,,,,,,,,,,,,
,,65a1b082ea682612b352ed1a,2024-02-22_14h17.44.831,kallum_motion_pilot,2023.2.2,MacIntel,59.84082341,65a1b082ea682612b352ed1a,65d6bb0e977760de756971f7,65d6bd1bcb0a17198e65b8b6,0.1665,0.1668,1,100,262,102,1,eightsix,,,,,,,,,,,,,,,,,,,,,,,,,,,,,,,,,,,,,,,,,,,,,,,,,,,,,,,,,,,,,,,,,,,,,,,,,,,,,,,,,,,,,,,,,,,,,,,,,,,,,,,,,,,,,,,,,,,,,,,,,,,,,,,,,,,,,,,,,
,,65a1b082ea682612b352ed1a,2024-02-22_14h17.44.831,kallum_motion_pilot,2023.2.2,MacIntel,59.84082341,65a1b082ea682612b352ed1a,65d6bb0e977760de756971f7,65d6bd1bcb0a17198e65b8b6,0.1671,0.1673,1,101,263,64,1,onetwo,,,,,,,,,,,,,,,,,,,,,,,,,,,,,,,,,,,,,,,,,,,,,,,,,,,,,,,,,,,,,,,,,,,,,,,,,,,,,,,,,,,,,,,,,,,,,,,,,,,,,,,,,,,,,,,,,,,,,,,,,,,,,,,,,,,,,,,,,
,,65a1b082ea682612b352ed1a,2024-02-22_14h17.44.831,kallum_motion_pilot,2023.2.2,MacIntel,59.84082341,65a1b082ea682612b352ed1a,65d6bb0e977760de756971f7,65d6bd1bcb0a17198e65b8b6,0.1675,0.1678,1,102,264,96,1,fivesix,,,,,,,,,,,,,,,,,,,,,,,,,,,,,,,,,,,,,,,,,,,,,,,,,,,,,,,,,,,,,,,,,,,,,,,,,,,,,,,,,,,,,,,,,,,,,,,,,,,,,,,,,,,,,,,,,,,,,,,,,,,,,,,,,,,,,,,,,
,,65a1b082ea682612b352ed1a,2024-02-22_14h17.44.831,kallum_motion_pilot,2023.2.2,MacIntel,59.84082341,65a1b082ea682612b352ed1a,65d6bb0e977760de756971f7,65d6bd1bcb0a17198e65b8b6,0.1681,0.1685,1,103,265,100,1,sevenfive,,,,,,,,,,,,,,,,,,,,,,,,,,,,,,,,,,,,,,,,,,,,,,,,,,,,,,,,,,,,,,,,,,,,,,,,,,,,,,,,,,,,,,,,,,,,,,,,,,,,,,,,,,,,,,,,,,,,,,,,,,,,,,,,,,,,,,,,,
,,65a1b082ea682612b352ed1a,2024-02-22_14h17.44.831,kallum_motion_pilot,2023.2.2,MacIntel,59.84082341,65a1b082ea682612b352ed1a,65d6bb0e977760de756971f7,65d6bd1bcb0a17198e65b8b6,0.1691,0.1694,1,104,266,136,1,fivesix,,,,,,,,,,,,,,,,,,,,,,,,,,,,,,,,,,,,,,,,,,,,,,,,,,,,,,,,,,,,,,,,,,,,,,,,,,,,,,,,,,,,,,,,,,,,,,,,,,,,,,,,,,,,,,,,,,,,,,,,,,,,,,,,,,,,,,,,,
,,65a1b082ea682612b352ed1a,2024-02-22_14h17.44.831,kallum_motion_pilot,2023.2.2,MacIntel,59.84082341,65a1b082ea682612b352ed1a,65d6bb0e977760de756971f7,65d6bd1bcb0a17198e65b8b6,0.1701,0.1704,1,105,267,56,1,onetwo,,,,,,,,,,,,,,,,,,,,,,,,,,,,,,,,,,,,,,,,,,,,,,,,,,,,,,,,,,,,,,,,,,,,,,,,,,,,,,,,,,,,,,,,,,,,,,,,,,,,,,,,,,,,,,,,,,,,,,,,,,,,,,,,,,,,,,,,,
,,65a1b082ea682612b352ed1a,2024-02-22_14h17.44.831,kallum_motion_pilot,2023.2.2,MacIntel,59.84082341,65a1b082ea682612b352ed1a,65d6bb0e977760de756971f7,65d6bd1bcb0a17198e65b8b6,0.1709,0.1713,1,106,268,49,1,onethree,,,,,,,,,,,,,,,,,,,,,,,,,,,,,,,,,,,,,,,,,,,,,,,,,,,,,,,,,,,,,,,,,,,,,,,,,,,,,,,,,,,,,,,,,,,,,,,,,,,,,,,,,,,,,,,,,,,,,,,,,,,,,,,,,,,,,,,,,
,,65a1b082ea682612b352ed1a,2024-02-22_14h17.44.831,kallum_motion_pilot,2023.2.2,MacIntel,59.84082341,65a1b082ea682612b352ed1a,65d6bb0e977760de756971f7,65d6bd1bcb0a17198e65b8b6,0.1717,0.172,1,107,269,157,1,seveneight,,,,,,,,,,,,,,,,,,,,,,,,,,,,,,,,,,,,,,,,,,,,,,,,,,,,,,,,,,,,,,,,,,,,,,,,,,,,,,,,,,,,,,,,,,,,,,,,,,,,,,,,,,,,,,,,,,,,,,,,,,,,,,,,,,,,,,,,,
,,65a1b082ea682612b352ed1a,2024-02-22_14h17.44.831,kallum_motion_pilot,2023.2.2,MacIntel,59.84082341,65a1b082ea682612b352ed1a,65d6bb0e977760de756971f7,65d6bd1bcb0a17198e65b8b6,0.1723,0.1725,1,108,270,8,1,onetwo,,,,,,,,,,,,,,,,,,,,,,,,,,,,,,,,,,,,,,,,,,,,,,,,,,,,,,,,,,,,,,,,,,,,,,,,,,,,,,,,,,,,,,,,,,,,,,,,,,,,,,,,,,,,,,,,,,,,,,,,,,,,,,,,,,,,,,,,,
,,65a1b082ea682612b352ed1a,2024-02-22_14h17.44.831,kallum_motion_pilot,2023.2.2,MacIntel,59.84082341,65a1b082ea682612b352ed1a,65d6bb0e977760de756971f7,65d6bd1bcb0a17198e65b8b6,0.1729,0.173,1,109,271,90,1,sixfive,,,,,,,,,,,,,,,,,,,,,,,,,,,,,,,,,,,,,,,,,,,,,,,,,,,,,,,,,,,,,,,,,,,,,,,,,,,,,,,,,,,,,,,,,,,,,,,,,,,,,,,,,,,,,,,,,,,,,,,,,,,,,,,,,,,,,,,,,
,,65a1b082ea682612b352ed1a,2024-02-22_14h17.44.831,kallum_motion_pilot,2023.2.2,MacIntel,59.84082341,65a1b082ea682612b352ed1a,65d6bb0e977760de756971f7,65d6bd1bcb0a17198e65b8b6,0.1733,0.1736,1,110,272,140,1,sevenfive,,,,,,,,,,,,,,,,,,,,,,,,,,,,,,,,,,,,,,,,,,,,,,,,,,,,,,,,,,,,,,,,,,,,,,,,,,,,,,,,,,,,,,,,,,,,,,,,,,,,,,,,,,,,,,,,,,,,,,,,,,,,,,,,,,,,,,,,,
,,65a1b082ea682612b352ed1a,2024-02-22_14h17.44.831,kallum_motion_pilot,2023.2.2,MacIntel,59.84082341,65a1b082ea682612b352ed1a,65d6bb0e977760de756971f7,65d6bd1bcb0a17198e65b8b6,0.174,0.1741,1,111,273,6,1,fourtwo,,,,,,,,,,,,,,,,,,,,,,,,,,,,,,,,,,,,,,,,,,,,,,,,,,,,,,,,,,,,,,,,,,,,,,,,,,,,,,,,,,,,,,,,,,,,,,,,,,,,,,,,,,,,,,,,,,,,,,,,,,,,,,,,,,,,,,,,,
,,65a1b082ea682612b352ed1a,2024-02-22_14h17.44.831,kallum_motion_pilot,2023.2.2,MacIntel,59.84082341,65a1b082ea682612b352ed1a,65d6bb0e977760de756971f7,65d6bd1bcb0a17198e65b8b6,0.1745,0.1746,1,112,274,110,1,eightsix,,,,,,,,,,,,,,,,,,,,,,,,,,,,,,,,,,,,,,,,,,,,,,,,,,,,,,,,,,,,,,,,,,,,,,,,,,,,,,,,,,,,,,,,,,,,,,,,,,,,,,,,,,,,,,,,,,,,,,,,,,,,,,,,,,,,,,,,,
,,65a1b082ea682612b352ed1a,2024-02-22_14h17.44.831,kallum_motion_pilot,2023.2.2,MacIntel,59.84082341,65a1b082ea682612b352ed1a,65d6bb0e977760de756971f7,65d6bd1bcb0a17198e65b8b6,0.1749,0.1751,1,113,275,9,1,onethree,,,,,,,,,,,,,,,,,,,,,,,,,,,,,,,,,,,,,,,,,,,,,,,,,,,,,,,,,,,,,,,,,,,,,,,,,,,,,,,,,,,,,,,,,,,,,,,,,,,,,,,,,,,,,,,,,,,,,,,,,,,,,,,,,,,,,,,,,
