startup.started,startup.stopped,Prolific ID*,date,expName,psychopyVersion,OS,frameRate,participant,study_id,session,stimpositions.started,stimpositions.stopped,hardcoded_stimulus_positions.thisRepN,hardcoded_stimulus_positions.thisTrialN,hardcoded_stimulus_positions.thisN,hardcoded_stimulus_positions.thisIndex,hardcoded_stimulus_positions.ran,StimulusPos,stimorientation.started,stimorientation.stopped,prac_stimorientation_import_loop.thisRepN,prac_stimorientation_import_loop.thisTrialN,prac_stimorientation_import_loop.thisN,prac_stimorientation_import_loop.thisIndex,prac_stimorientation_import_loop.ran,Stimorientation,welcome_instr.started,welcome_instr.stopped,key_resp.keys,key_resp.rt,key_resp.duration,response_steppedout_1.started,response_steppedout_1.stopped,key_resp_20.keys,key_resp_20.rt,key_resp_20.duration,response_steppedout_2.started,response_steppedout_2.stopped,key_resp_19.keys,key_resp_19.rt,key_resp_19.duration,stim_response_instr.started,stim_response_instr.stopped,key_resp_15.keys,key_resp_15.rt,key_resp_15.duration,direction_instr_2.started,direction_instr_2.stopped,key_resp_9.keys,key_resp_9.rt,key_resp_9.duration,instr_prac.started,instr_prac.stopped,key_resp_10.keys,key_resp_10.rt,key_resp_10.duration,Stim1_display_prac.started,Stim1_display_prac.stopped,Ecc,Circle1_ori,Circle2_ori,response_prac.started,similarity,response_time,response_prac.stopped,mouse_5.x,mouse_5.y,mouse_5.leftButton,mouse_5.midButton,mouse_5.rightButton,mouse_5.clicked_name,responseprac_feedback.started,responseprac_feedback.stopped,summary2_prac.started,summary2_prac.stopped,mouse_6.x,mouse_6.y,mouse_6.leftButton,mouse_6.midButton,mouse_6.rightButton,mouse_6.clicked_name,duringprac.thisRepN,duringprac.thisTrialN,duringprac.thisN,duringprac.thisIndex,duringprac.ran,begin.started,begin.stopped,key_resp_22.keys,key_resp_22.rt,key_resp_22.duration,Stim1_display.started,Stim1_display.stopped,circle1_ori,circle2_ori,circle1_SF,circle2_SF,response.started,response.stopped,mouse.x,mouse.y,mouse.leftButton,mouse.midButton,mouse.rightButton,mouse.clicked_name,trialnumber,double_pass.thisRepN,double_pass.thisTrialN,double_pass.thisN,double_pass.thisIndex,double_pass.ran,double_pass.order,main_trial.thisRepN,main_trial.thisTrialN,main_trial.thisN,main_trial.thisIndex,main_trial.ran,main_trial.order,Trial_Counter,Catch,Frequencies,response_2.started,response_2.stopped,mouse_2.x,mouse_2.y,mouse_2.leftButton,mouse_2.midButton,mouse_2.rightButton,mouse_2.clicked_name,special_trial.started,special_trial.stopped,catch_1.started,catch_1.stopped,mouse_3.x,mouse_3.y,mouse_3.leftButton,mouse_3.midButton,mouse_3.rightButton,catchresponse,catchnumber,response_time_catch,response_sum.started,response_sum.stopped,mouse_11.x,mouse_11.y,mouse_11.leftButton,mouse_11.midButton,mouse_11.rightButton,flip_presentation_sequence_for_double_pass.started,flip_presentation_sequence_for_double_pass.stopped,goodbye.started,goodbye.stopped,key_resp_3.keys,key_resp_3.rt,key_resp_3.duration
0.0002,0.0003,65a9b49e86480523ab92490f,2024-02-19_11h13.11.815,kallum_motion_pilot,2023.2.2,Win32,158.7301587,65a9b49e86480523ab92490f,65d2b6c8f2eece985d8e374c,65d2b918740075f26ae75fb2,,,,,,,,,,,,,,,,,,,,,,,,,,,,,,,,,,,,,,,,,,,,,,,,,,,,,,,,,,,,,,,,,,,,,,,,,,,,,,,,,,,,,,,,,,,,,,,,,,,,,,,,,,,,,,,,,,,,,,,,,,,,,,,,,,,,,,,,,,,,,,,,,
,,65a9b49e86480523ab92490f,2024-02-19_11h13.11.815,kallum_motion_pilot,2023.2.2,Win32,158.7301587,65a9b49e86480523ab92490f,65d2b6c8f2eece985d8e374c,65d2b918740075f26ae75fb2,0.0172,0.0173,0,0,0,128,1,fivesix,,,,,,,,,,,,,,,,,,,,,,,,,,,,,,,,,,,,,,,,,,,,,,,,,,,,,,,,,,,,,,,,,,,,,,,,,,,,,,,,,,,,,,,,,,,,,,,,,,,,,,,,,,,,,,,,,,,,,,,,,,,,,,,,,,,,,,,,,
,,65a9b49e86480523ab92490f,2024-02-19_11h13.11.815,kallum_motion_pilot,2023.2.2,Win32,158.7301587,65a9b49e86480523ab92490f,65d2b6c8f2eece985d8e374c,65d2b918740075f26ae75fb2,0.0175,0.0175,0,1,1,155,1,sixeight,,,,,,,,,,,,,,,,,,,,,,,,,,,,,,,,,,,,,,,,,,,,,,,,,,,,,,,,,,,,,,,,,,,,,,,,,,,,,,,,,,,,,,,,,,,,,,,,,,,,,,,,,,,,,,,,,,,,,,,,,,,,,,,,,,,,,,,,,
,,65a9b49e86480523ab92490f,2024-02-19_11h13.11.815,kallum_motion_pilot,2023.2.2,Win32,158.7301587,65a9b49e86480523ab92490f,65d2b6c8f2eece985d8e374c,65d2b918740075f26ae75fb2,0.0176,0.0176,0,2,2,103,1,eightseven,,,,,,,,,,,,,,,,,,,,,,,,,,,,,,,,,,,,,,,,,,,,,,,,,,,,,,,,,,,,,,,,,,,,,,,,,,,,,,,,,,,,,,,,,,,,,,,,,,,,,,,,,,,,,,,,,,,,,,,,,,,,,,,,,,,,,,,,,
,,65a9b49e86480523ab92490f,2024-02-19_11h13.11.815,kallum_motion_pilot,2023.2.2,Win32,158.7301587,65a9b49e86480523ab92490f,65d2b6c8f2eece985d8e374c,65d2b918740075f26ae75fb2,0.0176,0.0176,0,3,3,97,1,fiveseven,,,,,,,,,,,,,,,,,,,,,,,,,,,,,,,,,,,,,,,,,,,,,,,,,,,,,,,,,,,,,,,,,,,,,,,,,,,,,,,,,,,,,,,,,,,,,,,,,,,,,,,,,,,,,,,,,,,,,,,,,,,,,,,,,,,,,,,,,
,,65a9b49e86480523ab92490f,2024-02-19_11h13.11.815,kallum_motion_pilot,2023.2.2,Win32,158.7301587,65a9b49e86480523ab92490f,65d2b6c8f2eece985d8e374c,65d2b918740075f26ae75fb2,0.0177,0.0178,0,4,4,44,1,threeone,,,,,,,,,,,,,,,,,,,,,,,,,,,,,,,,,,,,,,,,,,,,,,,,,,,,,,,,,,,,,,,,,,,,,,,,,,,,,,,,,,,,,,,,,,,,,,,,,,,,,,,,,,,,,,,,,,,,,,,,,,,,,,,,,,,,,,,,,
,,65a9b49e86480523ab92490f,2024-02-19_11h13.11.815,kallum_motion_pilot,2023.2.2,Win32,158.7301587,65a9b49e86480523ab92490f,65d2b6c8f2eece985d8e374c,65d2b918740075f26ae75fb2,0.0178,0.0179,0,5,5,78,1,fourtwo,,,,,,,,,,,,,,,,,,,,,,,,,,,,,,,,,,,,,,,,,,,,,,,,,,,,,,,,,,,,,,,,,,,,,,,,,,,,,,,,,,,,,,,,,,,,,,,,,,,,,,,,,,,,,,,,,,,,,,,,,,,,,,,,,,,,,,,,,
,,65a9b49e86480523ab92490f,2024-02-19_11h13.11.815,kallum_motion_pilot,2023.2.2,Win32,158.7301587,65a9b49e86480523ab92490f,65d2b6c8f2eece985d8e374c,65d2b918740075f26ae75fb2,0.0179,0.018,0,6,6,72,1,onetwo,,,,,,,,,,,,,,,,,,,,,,,,,,,,,,,,,,,,,,,,,,,,,,,,,,,,,,,,,,,,,,,,,,,,,,,,,,,,,,,,,,,,,,,,,,,,,,,,,,,,,,,,,,,,,,,,,,,,,,,,,,,,,,,,,,,,,,,,,
,,65a9b49e86480523ab92490f,2024-02-19_11h13.11.815,kallum_motion_pilot,2023.2.2,Win32,158.7301587,65a9b49e86480523ab92490f,65d2b6c8f2eece985d8e374c,65d2b918740075f26ae75fb2,0.018,0.018,0,7,7,48,1,onetwo,,,,,,,,,,,,,,,,,,,,,,,,,,,,,,,,,,,,,,,,,,,,,,,,,,,,,,,,,,,,,,,,,,,,,,,,,,,,,,,,,,,,,,,,,,,,,,,,,,,,,,,,,,,,,,,,,,,,,,,,,,,,,,,,,,,,,,,,,
,,65a9b49e86480523ab92490f,2024-02-19_11h13.11.815,kallum_motion_pilot,2023.2.2,Win32,158.7301587,65a9b49e86480523ab92490f,65d2b6c8f2eece985d8e374c,65d2b918740075f26ae75fb2,0.0181,0.0181,0,8,8,67,1,twofour,,,,,,,,,,,,,,,,,,,,,,,,,,,,,,,,,,,,,,,,,,,,,,,,,,,,,,,,,,,,,,,,,,,,,,,,,,,,,,,,,,,,,,,,,,,,,,,,,,,,,,,,,,,,,,,,,,,,,,,,,,,,,,,,,,,,,,,,,
,,65a9b49e86480523ab92490f,2024-02-19_11h13.11.815,kallum_motion_pilot,2023.2.2,Win32,158.7301587,65a9b49e86480523ab92490f,65d2b6c8f2eece985d8e374c,65d2b918740075f26ae75fb2,0.0183,0.0183,0,9,9,6,1,fourtwo,,,,,,,,,,,,,,,,,,,,,,,,,,,,,,,,,,,,,,,,,,,,,,,,,,,,,,,,,,,,,,,,,,,,,,,,,,,,,,,,,,,,,,,,,,,,,,,,,,,,,,,,,,,,,,,,,,,,,,,,,,,,,,,,,,,,,,,,,
,,65a9b49e86480523ab92490f,2024-02-19_11h13.11.815,kallum_motion_pilot,2023.2.2,Win32,158.7301587,65a9b49e86480523ab92490f,65d2b6c8f2eece985d8e374c,65d2b918740075f26ae75fb2,0.0183,0.0183,0,10,10,112,1,fivesix,,,,,,,,,,,,,,,,,,,,,,,,,,,,,,,,,,,,,,,,,,,,,,,,,,,,,,,,,,,,,,,,,,,,,,,,,,,,,,,,,,,,,,,,,,,,,,,,,,,,,,,,,,,,,,,,,,,,,,,,,,,,,,,,,,,,,,,,,
,,65a9b49e86480523ab92490f,2024-02-19_11h13.11.815,kallum_motion_pilot,2023.2.2,Win32,158.7301587,65a9b49e86480523ab92490f,65d2b6c8f2eece985d8e374c,65d2b918740075f26ae75fb2,0.0184,0.0184,0,11,11,121,1,fiveseven,,,,,,,,,,,,,,,,,,,,,,,,,,,,,,,,,,,,,,,,,,,,,,,,,,,,,,,,,,,,,,,,,,,,,,,,,,,,,,,,,,,,,,,,,,,,,,,,,,,,,,,,,,,,,,,,,,,,,,,,,,,,,,,,,,,,,,,,,
,,65a9b49e86480523ab92490f,2024-02-19_11h13.11.815,kallum_motion_pilot,2023.2.2,Win32,158.7301587,65a9b49e86480523ab92490f,65d2b6c8f2eece985d8e374c,65d2b918740075f26ae75fb2,0.0185,0.0185,0,12,12,130,1,sixfive,,,,,,,,,,,,,,,,,,,,,,,,,,,,,,,,,,,,,,,,,,,,,,,,,,,,,,,,,,,,,,,,,,,,,,,,,,,,,,,,,,,,,,,,,,,,,,,,,,,,,,,,,,,,,,,,,,,,,,,,,,,,,,,,,,,,,,,,,
,,65a9b49e86480523ab92490f,2024-02-19_11h13.11.815,kallum_motion_pilot,2023.2.2,Win32,158.7301587,65a9b49e86480523ab92490f,65d2b6c8f2eece985d8e374c,65d2b918740075f26ae75fb2,0.0186,0.0186,0,13,13,51,1,twofour,,,,,,,,,,,,,,,,,,,,,,,,,,,,,,,,,,,,,,,,,,,,,,,,,,,,,,,,,,,,,,,,,,,,,,,,,,,,,,,,,,,,,,,,,,,,,,,,,,,,,,,,,,,,,,,,,,,,,,,,,,,,,,,,,,,,,,,,,
,,65a9b49e86480523ab92490f,2024-02-19_11h13.11.815,kallum_motion_pilot,2023.2.2,Win32,158.7301587,65a9b49e86480523ab92490f,65d2b6c8f2eece985d8e374c,65d2b918740075f26ae75fb2,0.0186,0.0186,0,14,14,82,1,sixfive,,,,,,,,,,,,,,,,,,,,,,,,,,,,,,,,,,,,,,,,,,,,,,,,,,,,,,,,,,,,,,,,,,,,,,,,,,,,,,,,,,,,,,,,,,,,,,,,,,,,,,,,,,,,,,,,,,,,,,,,,,,,,,,,,,,,,,,,,
,,65a9b49e86480523ab92490f,2024-02-19_11h13.11.815,kallum_motion_pilot,2023.2.2,Win32,158.7301587,65a9b49e86480523ab92490f,65d2b6c8f2eece985d8e374c,65d2b918740075f26ae75fb2,0.0187,0.0187,0,15,15,85,1,seveneight,,,,,,,,,,,,,,,,,,,,,,,,,,,,,,,,,,,,,,,,,,,,,,,,,,,,,,,,,,,,,,,,,,,,,,,,,,,,,,,,,,,,,,,,,,,,,,,,,,,,,,,,,,,,,,,,,,,,,,,,,,,,,,,,,,,,,,,,,
,,65a9b49e86480523ab92490f,2024-02-19_11h13.11.815,kallum_motion_pilot,2023.2.2,Win32,158.7301587,65a9b49e86480523ab92490f,65d2b6c8f2eece985d8e374c,65d2b918740075f26ae75fb2,0.0187,0.0187,0,16,16,98,1,sixfive,,,,,,,,,,,,,,,,,,,,,,,,,,,,,,,,,,,,,,,,,,,,,,,,,,,,,,,,,,,,,,,,,,,,,,,,,,,,,,,,,,,,,,,,,,,,,,,,,,,,,,,,,,,,,,,,,,,,,,,,,,,,,,,,,,,,,,,,,
,,65a9b49e86480523ab92490f,2024-02-19_11h13.11.815,kallum_motion_pilot,2023.2.2,Win32,158.7301587,65a9b49e86480523ab92490f,65d2b6c8f2eece985d8e374c,65d2b918740075f26ae75fb2,0.0188,0.0188,0,17,17,50,1,twoone,,,,,,,,,,,,,,,,,,,,,,,,,,,,,,,,,,,,,,,,,,,,,,,,,,,,,,,,,,,,,,,,,,,,,,,,,,,,,,,,,,,,,,,,,,,,,,,,,,,,,,,,,,,,,,,,,,,,,,,,,,,,,,,,,,,,,,,,,
,,65a9b49e86480523ab92490f,2024-02-19_11h13.11.815,kallum_motion_pilot,2023.2.2,Win32,158.7301587,65a9b49e86480523ab92490f,65d2b6c8f2eece985d8e374c,65d2b918740075f26ae75fb2,0.0189,0.0189,0,18,18,109,1,seveneight,,,,,,,,,,,,,,,,,,,,,,,,,,,,,,,,,,,,,,,,,,,,,,,,,,,,,,,,,,,,,,,,,,,,,,,,,,,,,,,,,,,,,,,,,,,,,,,,,,,,,,,,,,,,,,,,,,,,,,,,,,,,,,,,,,,,,,,,,
,,65a9b49e86480523ab92490f,2024-02-19_11h13.11.815,kallum_motion_pilot,2023.2.2,Win32,158.7301587,65a9b49e86480523ab92490f,65d2b6c8f2eece985d8e374c,65d2b918740075f26ae75fb2,0.0189,0.0189,0,19,19,125,1,seveneight,,,,,,,,,,,,,,,,,,,,,,,,,,,,,,,,,,,,,,,,,,,,,,,,,,,,,,,,,,,,,,,,,,,,,,,,,,,,,,,,,,,,,,,,,,,,,,,,,,,,,,,,,,,,,,,,,,,,,,,,,,,,,,,,,,,,,,,,,
,,65a9b49e86480523ab92490f,2024-02-19_11h13.11.815,kallum_motion_pilot,2023.2.2,Win32,158.7301587,65a9b49e86480523ab92490f,65d2b6c8f2eece985d8e374c,65d2b918740075f26ae75fb2,0.0189,0.0189,0,20,20,148,1,sevenfive,,,,,,,,,,,,,,,,,,,,,,,,,,,,,,,,,,,,,,,,,,,,,,,,,,,,,,,,,,,,,,,,,,,,,,,,,,,,,,,,,,,,,,,,,,,,,,,,,,,,,,,,,,,,,,,,,,,,,,,,,,,,,,,,,,,,,,,,,
,,65a9b49e86480523ab92490f,2024-02-19_11h13.11.815,kallum_motion_pilot,2023.2.2,Win32,158.7301587,65a9b49e86480523ab92490f,65d2b6c8f2eece985d8e374c,65d2b918740075f26ae75fb2,0.019,0.0191,0,21,21,16,1,onetwo,,,,,,,,,,,,,,,,,,,,,,,,,,,,,,,,,,,,,,,,,,,,,,,,,,,,,,,,,,,,,,,,,,,,,,,,,,,,,,,,,,,,,,,,,,,,,,,,,,,,,,,,,,,,,,,,,,,,,,,,,,,,,,,,,,,,,,,,,
,,65a9b49e86480523ab92490f,2024-02-19_11h13.11.815,kallum_motion_pilot,2023.2.2,Win32,158.7301587,65a9b49e86480523ab92490f,65d2b6c8f2eece985d8e374c,65d2b918740075f26ae75fb2,0.0191,0.0191,0,22,22,62,1,fourtwo,,,,,,,,,,,,,,,,,,,,,,,,,,,,,,,,,,,,,,,,,,,,,,,,,,,,,,,,,,,,,,,,,,,,,,,,,,,,,,,,,,,,,,,,,,,,,,,,,,,,,,,,,,,,,,,,,,,,,,,,,,,,,,,,,,,,,,,,,
,,65a9b49e86480523ab92490f,2024-02-19_11h13.11.815,kallum_motion_pilot,2023.2.2,Win32,158.7301587,65a9b49e86480523ab92490f,65d2b6c8f2eece985d8e374c,65d2b918740075f26ae75fb2,0.0191,0.0192,0,23,23,37,1,threefour,,,,,,,,,,,,,,,,,,,,,,,,,,,,,,,,,,,,,,,,,,,,,,,,,,,,,,,,,,,,,,,,,,,,,,,,,,,,,,,,,,,,,,,,,,,,,,,,,,,,,,,,,,,,,,,,,,,,,,,,,,,,,,,,,,,,,,,,,
,,65a9b49e86480523ab92490f,2024-02-19_11h13.11.815,kallum_motion_pilot,2023.2.2,Win32,158.7301587,65a9b49e86480523ab92490f,65d2b6c8f2eece985d8e374c,65d2b918740075f26ae75fb2,0.0192,0.0192,0,24,24,52,1,threeone,,,,,,,,,,,,,,,,,,,,,,,,,,,,,,,,,,,,,,,,,,,,,,,,,,,,,,,,,,,,,,,,,,,,,,,,,,,,,,,,,,,,,,,,,,,,,,,,,,,,,,,,,,,,,,,,,,,,,,,,,,,,,,,,,,,,,,,,,
,,65a9b49e86480523ab92490f,2024-02-19_11h13.11.815,kallum_motion_pilot,2023.2.2,Win32,158.7301587,65a9b49e86480523ab92490f,65d2b6c8f2eece985d8e374c,65d2b918740075f26ae75fb2,0.0193,0.0193,0,25,25,47,1,fourthree,,,,,,,,,,,,,,,,,,,,,,,,,,,,,,,,,,,,,,,,,,,,,,,,,,,,,,,,,,,,,,,,,,,,,,,,,,,,,,,,,,,,,,,,,,,,,,,,,,,,,,,,,,,,,,,,,,,,,,,,,,,,,,,,,,,,,,,,,
,,65a9b49e86480523ab92490f,2024-02-19_11h13.11.815,kallum_motion_pilot,2023.2.2,Win32,158.7301587,65a9b49e86480523ab92490f,65d2b6c8f2eece985d8e374c,65d2b918740075f26ae75fb2,0.0193,0.0194,0,26,26,43,1,twofour,,,,,,,,,,,,,,,,,,,,,,,,,,,,,,,,,,,,,,,,,,,,,,,,,,,,,,,,,,,,,,,,,,,,,,,,,,,,,,,,,,,,,,,,,,,,,,,,,,,,,,,,,,,,,,,,,,,,,,,,,,,,,,,,,,,,,,,,,
,,65a9b49e86480523ab92490f,2024-02-19_11h13.11.815,kallum_motion_pilot,2023.2.2,Win32,158.7301587,65a9b49e86480523ab92490f,65d2b6c8f2eece985d8e374c,65d2b918740075f26ae75fb2,0.0196,0.0196,0,27,27,23,1,fourthree,,,,,,,,,,,,,,,,,,,,,,,,,,,,,,,,,,,,,,,,,,,,,,,,,,,,,,,,,,,,,,,,,,,,,,,,,,,,,,,,,,,,,,,,,,,,,,,,,,,,,,,,,,,,,,,,,,,,,,,,,,,,,,,,,,,,,,,,,
,,65a9b49e86480523ab92490f,2024-02-19_11h13.11.815,kallum_motion_pilot,2023.2.2,Win32,158.7301587,65a9b49e86480523ab92490f,65d2b6c8f2eece985d8e374c,65d2b918740075f26ae75fb2,0.0197,0.0197,0,28,28,34,1,twoone,,,,,,,,,,,,,,,,,,,,,,,,,,,,,,,,,,,,,,,,,,,,,,,,,,,,,,,,,,,,,,,,,,,,,,,,,,,,,,,,,,,,,,,,,,,,,,,,,,,,,,,,,,,,,,,,,,,,,,,,,,,,,,,,,,,,,,,,,
,,65a9b49e86480523ab92490f,2024-02-19_11h13.11.815,kallum_motion_pilot,2023.2.2,Win32,158.7301587,65a9b49e86480523ab92490f,65d2b6c8f2eece985d8e374c,65d2b918740075f26ae75fb2,0.0199,0.0199,0,29,29,86,1,eightsix,,,,,,,,,,,,,,,,,,,,,,,,,,,,,,,,,,,,,,,,,,,,,,,,,,,,,,,,,,,,,,,,,,,,,,,,,,,,,,,,,,,,,,,,,,,,,,,,,,,,,,,,,,,,,,,,,,,,,,,,,,,,,,,,,,,,,,,,,
,,65a9b49e86480523ab92490f,2024-02-19_11h13.11.815,kallum_motion_pilot,2023.2.2,Win32,158.7301587,65a9b49e86480523ab92490f,65d2b6c8f2eece985d8e374c,65d2b918740075f26ae75fb2,0.02,0.02,0,30,30,10,1,twoone,,,,,,,,,,,,,,,,,,,,,,,,,,,,,,,,,,,,,,,,,,,,,,,,,,,,,,,,,,,,,,,,,,,,,,,,,,,,,,,,,,,,,,,,,,,,,,,,,,,,,,,,,,,,,,,,,,,,,,,,,,,,,,,,,,,,,,,,,
,,65a9b49e86480523ab92490f,2024-02-19_11h13.11.815,kallum_motion_pilot,2023.2.2,Win32,158.7301587,65a9b49e86480523ab92490f,65d2b6c8f2eece985d8e374c,65d2b918740075f26ae75fb2,0.0201,0.0201,0,31,31,63,1,fourthree,,,,,,,,,,,,,,,,,,,,,,,,,,,,,,,,,,,,,,,,,,,,,,,,,,,,,,,,,,,,,,,,,,,,,,,,,,,,,,,,,,,,,,,,,,,,,,,,,,,,,,,,,,,,,,,,,,,,,,,,,,,,,,,,,,,,,,,,,
,,65a9b49e86480523ab92490f,2024-02-19_11h13.11.815,kallum_motion_pilot,2023.2.2,Win32,158.7301587,65a9b49e86480523ab92490f,65d2b6c8f2eece985d8e374c,65d2b918740075f26ae75fb2,0.0202,0.0202,0,32,32,138,1,sixfive,,,,,,,,,,,,,,,,,,,,,,,,,,,,,,,,,,,,,,,,,,,,,,,,,,,,,,,,,,,,,,,,,,,,,,,,,,,,,,,,,,,,,,,,,,,,,,,,,,,,,,,,,,,,,,,,,,,,,,,,,,,,,,,,,,,,,,,,,
,,65a9b49e86480523ab92490f,2024-02-19_11h13.11.815,kallum_motion_pilot,2023.2.2,Win32,158.7301587,65a9b49e86480523ab92490f,65d2b6c8f2eece985d8e374c,65d2b918740075f26ae75fb2,0.0203,0.0204,0,33,33,100,1,sevenfive,,,,,,,,,,,,,,,,,,,,,,,,,,,,,,,,,,,,,,,,,,,,,,,,,,,,,,,,,,,,,,,,,,,,,,,,,,,,,,,,,,,,,,,,,,,,,,,,,,,,,,,,,,,,,,,,,,,,,,,,,,,,,,,,,,,,,,,,,
,,65a9b49e86480523ab92490f,2024-02-19_11h13.11.815,kallum_motion_pilot,2023.2.2,Win32,158.7301587,65a9b49e86480523ab92490f,65d2b6c8f2eece985d8e374c,65d2b918740075f26ae75fb2,0.0204,0.0205,0,34,34,4,1,threeone,,,,,,,,,,,,,,,,,,,,,,,,,,,,,,,,,,,,,,,,,,,,,,,,,,,,,,,,,,,,,,,,,,,,,,,,,,,,,,,,,,,,,,,,,,,,,,,,,,,,,,,,,,,,,,,,,,,,,,,,,,,,,,,,,,,,,,,,,
,,65a9b49e86480523ab92490f,2024-02-19_11h13.11.815,kallum_motion_pilot,2023.2.2,Win32,158.7301587,65a9b49e86480523ab92490f,65d2b6c8f2eece985d8e374c,65d2b918740075f26ae75fb2,0.0205,0.0205,0,35,35,140,1,sevenfive,,,,,,,,,,,,,,,,,,,,,,,,,,,,,,,,,,,,,,,,,,,,,,,,,,,,,,,,,,,,,,,,,,,,,,,,,,,,,,,,,,,,,,,,,,,,,,,,,,,,,,,,,,,,,,,,,,,,,,,,,,,,,,,,,,,,,,,,,
,,65a9b49e86480523ab92490f,2024-02-19_11h13.11.815,kallum_motion_pilot,2023.2.2,Win32,158.7301587,65a9b49e86480523ab92490f,65d2b6c8f2eece985d8e374c,65d2b918740075f26ae75fb2,0.0206,0.0206,0,36,36,124,1,sevenfive,,,,,,,,,,,,,,,,,,,,,,,,,,,,,,,,,,,,,,,,,,,,,,,,,,,,,,,,,,,,,,,,,,,,,,,,,,,,,,,,,,,,,,,,,,,,,,,,,,,,,,,,,,,,,,,,,,,,,,,,,,,,,,,,,,,,,,,,,
,,65a9b49e86480523ab92490f,2024-02-19_11h13.11.815,kallum_motion_pilot,2023.2.2,Win32,158.7301587,65a9b49e86480523ab92490f,65d2b6c8f2eece985d8e374c,65d2b918740075f26ae75fb2,0.0207,0.0207,0,37,37,69,1,threefour,,,,,,,,,,,,,,,,,,,,,,,,,,,,,,,,,,,,,,,,,,,,,,,,,,,,,,,,,,,,,,,,,,,,,,,,,,,,,,,,,,,,,,,,,,,,,,,,,,,,,,,,,,,,,,,,,,,,,,,,,,,,,,,,,,,,,,,,,
,,65a9b49e86480523ab92490f,2024-02-19_11h13.11.815,kallum_motion_pilot,2023.2.2,Win32,158.7301587,65a9b49e86480523ab92490f,65d2b6c8f2eece985d8e374c,65d2b918740075f26ae75fb2,0.0207,0.0207,0,38,38,126,1,eightsix,,,,,,,,,,,,,,,,,,,,,,,,,,,,,,,,,,,,,,,,,,,,,,,,,,,,,,,,,,,,,,,,,,,,,,,,,,,,,,,,,,,,,,,,,,,,,,,,,,,,,,,,,,,,,,,,,,,,,,,,,,,,,,,,,,,,,,,,,
,,65a9b49e86480523ab92490f,2024-02-19_11h13.11.815,kallum_motion_pilot,2023.2.2,Win32,158.7301587,65a9b49e86480523ab92490f,65d2b6c8f2eece985d8e374c,65d2b918740075f26ae75fb2,0.0208,0.0208,0,39,39,38,1,fourtwo,,,,,,,,,,,,,,,,,,,,,,,,,,,,,,,,,,,,,,,,,,,,,,,,,,,,,,,,,,,,,,,,,,,,,,,,,,,,,,,,,,,,,,,,,,,,,,,,,,,,,,,,,,,,,,,,,,,,,,,,,,,,,,,,,,,,,,,,,
,,65a9b49e86480523ab92490f,2024-02-19_11h13.11.815,kallum_motion_pilot,2023.2.2,Win32,158.7301587,65a9b49e86480523ab92490f,65d2b6c8f2eece985d8e374c,65d2b918740075f26ae75fb2,0.0209,0.0209,0,40,40,57,1,onethree,,,,,,,,,,,,,,,,,,,,,,,,,,,,,,,,,,,,,,,,,,,,,,,,,,,,,,,,,,,,,,,,,,,,,,,,,,,,,,,,,,,,,,,,,,,,,,,,,,,,,,,,,,,,,,,,,,,,,,,,,,,,,,,,,,,,,,,,,
,,65a9b49e86480523ab92490f,2024-02-19_11h13.11.815,kallum_motion_pilot,2023.2.2,Win32,158.7301587,65a9b49e86480523ab92490f,65d2b6c8f2eece985d8e374c,65d2b918740075f26ae75fb2,0.021,0.021,0,41,41,135,1,eightseven,,,,,,,,,,,,,,,,,,,,,,,,,,,,,,,,,,,,,,,,,,,,,,,,,,,,,,,,,,,,,,,,,,,,,,,,,,,,,,,,,,,,,,,,,,,,,,,,,,,,,,,,,,,,,,,,,,,,,,,,,,,,,,,,,,,,,,,,,
,,65a9b49e86480523ab92490f,2024-02-19_11h13.11.815,kallum_motion_pilot,2023.2.2,Win32,158.7301587,65a9b49e86480523ab92490f,65d2b6c8f2eece985d8e374c,65d2b918740075f26ae75fb2,0.0211,0.0212,0,42,42,31,1,fourthree,,,,,,,,,,,,,,,,,,,,,,,,,,,,,,,,,,,,,,,,,,,,,,,,,,,,,,,,,,,,,,,,,,,,,,,,,,,,,,,,,,,,,,,,,,,,,,,,,,,,,,,,,,,,,,,,,,,,,,,,,,,,,,,,,,,,,,,,,
,,65a9b49e86480523ab92490f,2024-02-19_11h13.11.815,kallum_motion_pilot,2023.2.2,Win32,158.7301587,65a9b49e86480523ab92490f,65d2b6c8f2eece985d8e374c,65d2b918740075f26ae75fb2,0.0212,0.0212,0,43,43,81,1,fiveseven,,,,,,,,,,,,,,,,,,,,,,,,,,,,,,,,,,,,,,,,,,,,,,,,,,,,,,,,,,,,,,,,,,,,,,,,,,,,,,,,,,,,,,,,,,,,,,,,,,,,,,,,,,,,,,,,,,,,,,,,,,,,,,,,,,,,,,,,,
,,65a9b49e86480523ab92490f,2024-02-19_11h13.11.815,kallum_motion_pilot,2023.2.2,Win32,158.7301587,65a9b49e86480523ab92490f,65d2b6c8f2eece985d8e374c,65d2b918740075f26ae75fb2,0.0212,0.0213,0,44,44,132,1,sevenfive,,,,,,,,,,,,,,,,,,,,,,,,,,,,,,,,,,,,,,,,,,,,,,,,,,,,,,,,,,,,,,,,,,,,,,,,,,,,,,,,,,,,,,,,,,,,,,,,,,,,,,,,,,,,,,,,,,,,,,,,,,,,,,,,,,,,,,,,,
,,65a9b49e86480523ab92490f,2024-02-19_11h13.11.815,kallum_motion_pilot,2023.2.2,Win32,158.7301587,65a9b49e86480523ab92490f,65d2b6c8f2eece985d8e374c,65d2b918740075f26ae75fb2,0.0213,0.0213,0,45,45,89,1,fiveseven,,,,,,,,,,,,,,,,,,,,,,,,,,,,,,,,,,,,,,,,,,,,,,,,,,,,,,,,,,,,,,,,,,,,,,,,,,,,,,,,,,,,,,,,,,,,,,,,,,,,,,,,,,,,,,,,,,,,,,,,,,,,,,,,,,,,,,,,,
,,65a9b49e86480523ab92490f,2024-02-19_11h13.11.815,kallum_motion_pilot,2023.2.2,Win32,158.7301587,65a9b49e86480523ab92490f,65d2b6c8f2eece985d8e374c,65d2b918740075f26ae75fb2,0.0214,0.0214,0,46,46,94,1,eightsix,,,,,,,,,,,,,,,,,,,,,,,,,,,,,,,,,,,,,,,,,,,,,,,,,,,,,,,,,,,,,,,,,,,,,,,,,,,,,,,,,,,,,,,,,,,,,,,,,,,,,,,,,,,,,,,,,,,,,,,,,,,,,,,,,,,,,,,,,
,,65a9b49e86480523ab92490f,2024-02-19_11h13.11.815,kallum_motion_pilot,2023.2.2,Win32,158.7301587,65a9b49e86480523ab92490f,65d2b6c8f2eece985d8e374c,65d2b918740075f26ae75fb2,0.0215,0.0215,0,47,47,92,1,sevenfive,,,,,,,,,,,,,,,,,,,,,,,,,,,,,,,,,,,,,,,,,,,,,,,,,,,,,,,,,,,,,,,,,,,,,,,,,,,,,,,,,,,,,,,,,,,,,,,,,,,,,,,,,,,,,,,,,,,,,,,,,,,,,,,,,,,,,,,,,
,,65a9b49e86480523ab92490f,2024-02-19_11h13.11.815,kallum_motion_pilot,2023.2.2,Win32,158.7301587,65a9b49e86480523ab92490f,65d2b6c8f2eece985d8e374c,65d2b918740075f26ae75fb2,0.0216,0.0216,0,48,48,35,1,twofour,,,,,,,,,,,,,,,,,,,,,,,,,,,,,,,,,,,,,,,,,,,,,,,,,,,,,,,,,,,,,,,,,,,,,,,,,,,,,,,,,,,,,,,,,,,,,,,,,,,,,,,,,,,,,,,,,,,,,,,,,,,,,,,,,,,,,,,,,
,,65a9b49e86480523ab92490f,2024-02-19_11h13.11.815,kallum_motion_pilot,2023.2.2,Win32,158.7301587,65a9b49e86480523ab92490f,65d2b6c8f2eece985d8e374c,65d2b918740075f26ae75fb2,0.0216,0.0216,0,49,49,79,1,eightseven,,,,,,,,,,,,,,,,,,,,,,,,,,,,,,,,,,,,,,,,,,,,,,,,,,,,,,,,,,,,,,,,,,,,,,,,,,,,,,,,,,,,,,,,,,,,,,,,,,,,,,,,,,,,,,,,,,,,,,,,,,,,,,,,,,,,,,,,,
,,65a9b49e86480523ab92490f,2024-02-19_11h13.11.815,kallum_motion_pilot,2023.2.2,Win32,158.7301587,65a9b49e86480523ab92490f,65d2b6c8f2eece985d8e374c,65d2b918740075f26ae75fb2,0.0217,0.0217,0,50,50,54,1,fourtwo,,,,,,,,,,,,,,,,,,,,,,,,,,,,,,,,,,,,,,,,,,,,,,,,,,,,,,,,,,,,,,,,,,,,,,,,,,,,,,,,,,,,,,,,,,,,,,,,,,,,,,,,,,,,,,,,,,,,,,,,,,,,,,,,,,,,,,,,,
,,65a9b49e86480523ab92490f,2024-02-19_11h13.11.815,kallum_motion_pilot,2023.2.2,Win32,158.7301587,65a9b49e86480523ab92490f,65d2b6c8f2eece985d8e374c,65d2b918740075f26ae75fb2,0.0217,0.0218,0,51,51,41,1,onethree,,,,,,,,,,,,,,,,,,,,,,,,,,,,,,,,,,,,,,,,,,,,,,,,,,,,,,,,,,,,,,,,,,,,,,,,,,,,,,,,,,,,,,,,,,,,,,,,,,,,,,,,,,,,,,,,,,,,,,,,,,,,,,,,,,,,,,,,,
,,65a9b49e86480523ab92490f,2024-02-19_11h13.11.815,kallum_motion_pilot,2023.2.2,Win32,158.7301587,65a9b49e86480523ab92490f,65d2b6c8f2eece985d8e374c,65d2b918740075f26ae75fb2,0.0218,0.0218,0,52,52,160,1,fivesix,,,,,,,,,,,,,,,,,,,,,,,,,,,,,,,,,,,,,,,,,,,,,,,,,,,,,,,,,,,,,,,,,,,,,,,,,,,,,,,,,,,,,,,,,,,,,,,,,,,,,,,,,,,,,,,,,,,,,,,,,,,,,,,,,,,,,,,,,
,,65a9b49e86480523ab92490f,2024-02-19_11h13.11.815,kallum_motion_pilot,2023.2.2,Win32,158.7301587,65a9b49e86480523ab92490f,65d2b6c8f2eece985d8e374c,65d2b918740075f26ae75fb2,0.0219,0.0219,0,53,53,84,1,sevenfive,,,,,,,,,,,,,,,,,,,,,,,,,,,,,,,,,,,,,,,,,,,,,,,,,,,,,,,,,,,,,,,,,,,,,,,,,,,,,,,,,,,,,,,,,,,,,,,,,,,,,,,,,,,,,,,,,,,,,,,,,,,,,,,,,,,,,,,,,
,,65a9b49e86480523ab92490f,2024-02-19_11h13.11.815,kallum_motion_pilot,2023.2.2,Win32,158.7301587,65a9b49e86480523ab92490f,65d2b6c8f2eece985d8e374c,65d2b918740075f26ae75fb2,0.0219,0.022,0,54,54,17,1,onethree,,,,,,,,,,,,,,,,,,,,,,,,,,,,,,,,,,,,,,,,,,,,,,,,,,,,,,,,,,,,,,,,,,,,,,,,,,,,,,,,,,,,,,,,,,,,,,,,,,,,,,,,,,,,,,,,,,,,,,,,,,,,,,,,,,,,,,,,,
,,65a9b49e86480523ab92490f,2024-02-19_11h13.11.815,kallum_motion_pilot,2023.2.2,Win32,158.7301587,65a9b49e86480523ab92490f,65d2b6c8f2eece985d8e374c,65d2b918740075f26ae75fb2,0.022,0.022,0,55,55,22,1,fourtwo,,,,,,,,,,,,,,,,,,,,,,,,,,,,,,,,,,,,,,,,,,,,,,,,,,,,,,,,,,,,,,,,,,,,,,,,,,,,,,,,,,,,,,,,,,,,,,,,,,,,,,,,,,,,,,,,,,,,,,,,,,,,,,,,,,,,,,,,,
,,65a9b49e86480523ab92490f,2024-02-19_11h13.11.815,kallum_motion_pilot,2023.2.2,Win32,158.7301587,65a9b49e86480523ab92490f,65d2b6c8f2eece985d8e374c,65d2b918740075f26ae75fb2,0.0221,0.0222,0,56,56,28,1,threeone,,,,,,,,,,,,,,,,,,,,,,,,,,,,,,,,,,,,,,,,,,,,,,,,,,,,,,,,,,,,,,,,,,,,,,,,,,,,,,,,,,,,,,,,,,,,,,,,,,,,,,,,,,,,,,,,,,,,,,,,,,,,,,,,,,,,,,,,,
,,65a9b49e86480523ab92490f,2024-02-19_11h13.11.815,kallum_motion_pilot,2023.2.2,Win32,158.7301587,65a9b49e86480523ab92490f,65d2b6c8f2eece985d8e374c,65d2b918740075f26ae75fb2,0.0222,0.0222,0,57,57,27,1,twofour,,,,,,,,,,,,,,,,,,,,,,,,,,,,,,,,,,,,,,,,,,,,,,,,,,,,,,,,,,,,,,,,,,,,,,,,,,,,,,,,,,,,,,,,,,,,,,,,,,,,,,,,,,,,,,,,,,,,,,,,,,,,,,,,,,,,,,,,,
,,65a9b49e86480523ab92490f,2024-02-19_11h13.11.815,kallum_motion_pilot,2023.2.2,Win32,158.7301587,65a9b49e86480523ab92490f,65d2b6c8f2eece985d8e374c,65d2b918740075f26ae75fb2,0.0223,0.0223,0,58,58,58,1,twoone,,,,,,,,,,,,,,,,,,,,,,,,,,,,,,,,,,,,,,,,,,,,,,,,,,,,,,,,,,,,,,,,,,,,,,,,,,,,,,,,,,,,,,,,,,,,,,,,,,,,,,,,,,,,,,,,,,,,,,,,,,,,,,,,,,,,,,,,,
,,65a9b49e86480523ab92490f,2024-02-19_11h13.11.815,kallum_motion_pilot,2023.2.2,Win32,158.7301587,65a9b49e86480523ab92490f,65d2b6c8f2eece985d8e374c,65d2b918740075f26ae75fb2,0.0223,0.0224,0,59,59,11,1,twofour,,,,,,,,,,,,,,,,,,,,,,,,,,,,,,,,,,,,,,,,,,,,,,,,,,,,,,,,,,,,,,,,,,,,,,,,,,,,,,,,,,,,,,,,,,,,,,,,,,,,,,,,,,,,,,,,,,,,,,,,,,,,,,,,,,,,,,,,,
,,65a9b49e86480523ab92490f,2024-02-19_11h13.11.815,kallum_motion_pilot,2023.2.2,Win32,158.7301587,65a9b49e86480523ab92490f,65d2b6c8f2eece985d8e374c,65d2b918740075f26ae75fb2,0.0225,0.0225,0,60,60,118,1,eightsix,,,,,,,,,,,,,,,,,,,,,,,,,,,,,,,,,,,,,,,,,,,,,,,,,,,,,,,,,,,,,,,,,,,,,,,,,,,,,,,,,,,,,,,,,,,,,,,,,,,,,,,,,,,,,,,,,,,,,,,,,,,,,,,,,,,,,,,,,
,,65a9b49e86480523ab92490f,2024-02-19_11h13.11.815,kallum_motion_pilot,2023.2.2,Win32,158.7301587,65a9b49e86480523ab92490f,65d2b6c8f2eece985d8e374c,65d2b918740075f26ae75fb2,0.0225,0.0225,0,61,61,68,1,threeone,,,,,,,,,,,,,,,,,,,,,,,,,,,,,,,,,,,,,,,,,,,,,,,,,,,,,,,,,,,,,,,,,,,,,,,,,,,,,,,,,,,,,,,,,,,,,,,,,,,,,,,,,,,,,,,,,,,,,,,,,,,,,,,,,,,,,,,,,
,,65a9b49e86480523ab92490f,2024-02-19_11h13.11.815,kallum_motion_pilot,2023.2.2,Win32,158.7301587,65a9b49e86480523ab92490f,65d2b6c8f2eece985d8e374c,65d2b918740075f26ae75fb2,0.0226,0.0227,0,62,62,39,1,fourthree,,,,,,,,,,,,,,,,,,,,,,,,,,,,,,,,,,,,,,,,,,,,,,,,,,,,,,,,,,,,,,,,,,,,,,,,,,,,,,,,,,,,,,,,,,,,,,,,,,,,,,,,,,,,,,,,,,,,,,,,,,,,,,,,,,,,,,,,,
,,65a9b49e86480523ab92490f,2024-02-19_11h13.11.815,kallum_motion_pilot,2023.2.2,Win32,158.7301587,65a9b49e86480523ab92490f,65d2b6c8f2eece985d8e374c,65d2b918740075f26ae75fb2,0.0227,0.0227,0,63,63,105,1,fiveseven,,,,,,,,,,,,,,,,,,,,,,,,,,,,,,,,,,,,,,,,,,,,,,,,,,,,,,,,,,,,,,,,,,,,,,,,,,,,,,,,,,,,,,,,,,,,,,,,,,,,,,,,,,,,,,,,,,,,,,,,,,,,,,,,,,,,,,,,,
,,65a9b49e86480523ab92490f,2024-02-19_11h13.11.815,kallum_motion_pilot,2023.2.2,Win32,158.7301587,65a9b49e86480523ab92490f,65d2b6c8f2eece985d8e374c,65d2b918740075f26ae75fb2,0.0227,0.0228,0,64,64,80,1,fivesix,,,,,,,,,,,,,,,,,,,,,,,,,,,,,,,,,,,,,,,,,,,,,,,,,,,,,,,,,,,,,,,,,,,,,,,,,,,,,,,,,,,,,,,,,,,,,,,,,,,,,,,,,,,,,,,,,,,,,,,,,,,,,,,,,,,,,,,,,
,,65a9b49e86480523ab92490f,2024-02-19_11h13.11.815,kallum_motion_pilot,2023.2.2,Win32,158.7301587,65a9b49e86480523ab92490f,65d2b6c8f2eece985d8e374c,65d2b918740075f26ae75fb2,0.0229,0.0229,0,65,65,0,1,onetwo,,,,,,,,,,,,,,,,,,,,,,,,,,,,,,,,,,,,,,,,,,,,,,,,,,,,,,,,,,,,,,,,,,,,,,,,,,,,,,,,,,,,,,,,,,,,,,,,,,,,,,,,,,,,,,,,,,,,,,,,,,,,,,,,,,,,,,,,,
,,65a9b49e86480523ab92490f,2024-02-19_11h13.11.815,kallum_motion_pilot,2023.2.2,Win32,158.7301587,65a9b49e86480523ab92490f,65d2b6c8f2eece985d8e374c,65d2b918740075f26ae75fb2,0.0229,0.0229,0,66,66,66,1,twoone,,,,,,,,,,,,,,,,,,,,,,,,,,,,,,,,,,,,,,,,,,,,,,,,,,,,,,,,,,,,,,,,,,,,,,,,,,,,,,,,,,,,,,,,,,,,,,,,,,,,,,,,,,,,,,,,,,,,,,,,,,,,,,,,,,,,,,,,,
,,65a9b49e86480523ab92490f,2024-02-19_11h13.11.815,kallum_motion_pilot,2023.2.2,Win32,158.7301587,65a9b49e86480523ab92490f,65d2b6c8f2eece985d8e374c,65d2b918740075f26ae75fb2,0.0231,0.0231,0,67,67,65,1,onethree,,,,,,,,,,,,,,,,,,,,,,,,,,,,,,,,,,,,,,,,,,,,,,,,,,,,,,,,,,,,,,,,,,,,,,,,,,,,,,,,,,,,,,,,,,,,,,,,,,,,,,,,,,,,,,,,,,,,,,,,,,,,,,,,,,,,,,,,,
,,65a9b49e86480523ab92490f,2024-02-19_11h13.11.815,kallum_motion_pilot,2023.2.2,Win32,158.7301587,65a9b49e86480523ab92490f,65d2b6c8f2eece985d8e374c,65d2b918740075f26ae75fb2,0.0231,0.0231,0,68,68,110,1,eightsix,,,,,,,,,,,,,,,,,,,,,,,,,,,,,,,,,,,,,,,,,,,,,,,,,,,,,,,,,,,,,,,,,,,,,,,,,,,,,,,,,,,,,,,,,,,,,,,,,,,,,,,,,,,,,,,,,,,,,,,,,,,,,,,,,,,,,,,,,
,,65a9b49e86480523ab92490f,2024-02-19_11h13.11.815,kallum_motion_pilot,2023.2.2,Win32,158.7301587,65a9b49e86480523ab92490f,65d2b6c8f2eece985d8e374c,65d2b918740075f26ae75fb2,0.0232,0.0232,0,69,69,134,1,eightsix,,,,,,,,,,,,,,,,,,,,,,,,,,,,,,,,,,,,,,,,,,,,,,,,,,,,,,,,,,,,,,,,,,,,,,,,,,,,,,,,,,,,,,,,,,,,,,,,,,,,,,,,,,,,,,,,,,,,,,,,,,,,,,,,,,,,,,,,,
,,65a9b49e86480523ab92490f,2024-02-19_11h13.11.815,kallum_motion_pilot,2023.2.2,Win32,158.7301587,65a9b49e86480523ab92490f,65d2b6c8f2eece985d8e374c,65d2b918740075f26ae75fb2,0.0232,0.0233,0,70,70,101,1,seveneight,,,,,,,,,,,,,,,,,,,,,,,,,,,,,,,,,,,,,,,,,,,,,,,,,,,,,,,,,,,,,,,,,,,,,,,,,,,,,,,,,,,,,,,,,,,,,,,,,,,,,,,,,,,,,,,,,,,,,,,,,,,,,,,,,,,,,,,,,
,,65a9b49e86480523ab92490f,2024-02-19_11h13.11.815,kallum_motion_pilot,2023.2.2,Win32,158.7301587,65a9b49e86480523ab92490f,65d2b6c8f2eece985d8e374c,65d2b918740075f26ae75fb2,0.0233,0.0234,0,71,71,111,1,eightseven,,,,,,,,,,,,,,,,,,,,,,,,,,,,,,,,,,,,,,,,,,,,,,,,,,,,,,,,,,,,,,,,,,,,,,,,,,,,,,,,,,,,,,,,,,,,,,,,,,,,,,,,,,,,,,,,,,,,,,,,,,,,,,,,,,,,,,,,,
,,65a9b49e86480523ab92490f,2024-02-19_11h13.11.815,kallum_motion_pilot,2023.2.2,Win32,158.7301587,65a9b49e86480523ab92490f,65d2b6c8f2eece985d8e374c,65d2b918740075f26ae75fb2,0.0235,0.0235,0,72,72,74,1,twoone,,,,,,,,,,,,,,,,,,,,,,,,,,,,,,,,,,,,,,,,,,,,,,,,,,,,,,,,,,,,,,,,,,,,,,,,,,,,,,,,,,,,,,,,,,,,,,,,,,,,,,,,,,,,,,,,,,,,,,,,,,,,,,,,,,,,,,,,,
,,65a9b49e86480523ab92490f,2024-02-19_11h13.11.815,kallum_motion_pilot,2023.2.2,Win32,158.7301587,65a9b49e86480523ab92490f,65d2b6c8f2eece985d8e374c,65d2b918740075f26ae75fb2,0.0235,0.0236,0,73,73,133,1,seveneight,,,,,,,,,,,,,,,,,,,,,,,,,,,,,,,,,,,,,,,,,,,,,,,,,,,,,,,,,,,,,,,,,,,,,,,,,,,,,,,,,,,,,,,,,,,,,,,,,,,,,,,,,,,,,,,,,,,,,,,,,,,,,,,,,,,,,,,,,
,,65a9b49e86480523ab92490f,2024-02-19_11h13.11.815,kallum_motion_pilot,2023.2.2,Win32,158.7301587,65a9b49e86480523ab92490f,65d2b6c8f2eece985d8e374c,65d2b918740075f26ae75fb2,0.0237,0.0237,0,74,74,144,1,fivesix,,,,,,,,,,,,,,,,,,,,,,,,,,,,,,,,,,,,,,,,,,,,,,,,,,,,,,,,,,,,,,,,,,,,,,,,,,,,,,,,,,,,,,,,,,,,,,,,,,,,,,,,,,,,,,,,,,,,,,,,,,,,,,,,,,,,,,,,,
,,65a9b49e86480523ab92490f,2024-02-19_11h13.11.815,kallum_motion_pilot,2023.2.2,Win32,158.7301587,65a9b49e86480523ab92490f,65d2b6c8f2eece985d8e374c,65d2b918740075f26ae75fb2,0.0237,0.0237,0,75,75,145,1,fiveseven,,,,,,,,,,,,,,,,,,,,,,,,,,,,,,,,,,,,,,,,,,,,,,,,,,,,,,,,,,,,,,,,,,,,,,,,,,,,,,,,,,,,,,,,,,,,,,,,,,,,,,,,,,,,,,,,,,,,,,,,,,,,,,,,,,,,,,,,,
,,65a9b49e86480523ab92490f,2024-02-19_11h13.11.815,kallum_motion_pilot,2023.2.2,Win32,158.7301587,65a9b49e86480523ab92490f,65d2b6c8f2eece985d8e374c,65d2b918740075f26ae75fb2,0.0239,0.0239,0,76,76,129,1,fiveseven,,,,,,,,,,,,,,,,,,,,,,,,,,,,,,,,,,,,,,,,,,,,,,,,,,,,,,,,,,,,,,,,,,,,,,,,,,,,,,,,,,,,,,,,,,,,,,,,,,,,,,,,,,,,,,,,,,,,,,,,,,,,,,,,,,,,,,,,,
,,65a9b49e86480523ab92490f,2024-02-19_11h13.11.815,kallum_motion_pilot,2023.2.2,Win32,158.7301587,65a9b49e86480523ab92490f,65d2b6c8f2eece985d8e374c,65d2b918740075f26ae75fb2,0.0239,0.0239,0,77,77,30,1,fourtwo,,,,,,,,,,,,,,,,,,,,,,,,,,,,,,,,,,,,,,,,,,,,,,,,,,,,,,,,,,,,,,,,,,,,,,,,,,,,,,,,,,,,,,,,,,,,,,,,,,,,,,,,,,,,,,,,,,,,,,,,,,,,,,,,,,,,,,,,,
,,65a9b49e86480523ab92490f,2024-02-19_11h13.11.815,kallum_motion_pilot,2023.2.2,Win32,158.7301587,65a9b49e86480523ab92490f,65d2b6c8f2eece985d8e374c,65d2b918740075f26ae75fb2,0.024,0.0241,0,78,78,158,1,eightsix,,,,,,,,,,,,,,,,,,,,,,,,,,,,,,,,,,,,,,,,,,,,,,,,,,,,,,,,,,,,,,,,,,,,,,,,,,,,,,,,,,,,,,,,,,,,,,,,,,,,,,,,,,,,,,,,,,,,,,,,,,,,,,,,,,,,,,,,,
,,65a9b49e86480523ab92490f,2024-02-19_11h13.11.815,kallum_motion_pilot,2023.2.2,Win32,158.7301587,65a9b49e86480523ab92490f,65d2b6c8f2eece985d8e374c,65d2b918740075f26ae75fb2,0.0241,0.0241,0,79,79,96,1,fivesix,,,,,,,,,,,,,,,,,,,,,,,,,,,,,,,,,,,,,,,,,,,,,,,,,,,,,,,,,,,,,,,,,,,,,,,,,,,,,,,,,,,,,,,,,,,,,,,,,,,,,,,,,,,,,,,,,,,,,,,,,,,,,,,,,,,,,,,,,
,,65a9b49e86480523ab92490f,2024-02-19_11h13.11.815,kallum_motion_pilot,2023.2.2,Win32,158.7301587,65a9b49e86480523ab92490f,65d2b6c8f2eece985d8e374c,65d2b918740075f26ae75fb2,0.0242,0.0242,0,80,80,2,1,twoone,,,,,,,,,,,,,,,,,,,,,,,,,,,,,,,,,,,,,,,,,,,,,,,,,,,,,,,,,,,,,,,,,,,,,,,,,,,,,,,,,,,,,,,,,,,,,,,,,,,,,,,,,,,,,,,,,,,,,,,,,,,,,,,,,,,,,,,,,
,,65a9b49e86480523ab92490f,2024-02-19_11h13.11.815,kallum_motion_pilot,2023.2.2,Win32,158.7301587,65a9b49e86480523ab92490f,65d2b6c8f2eece985d8e374c,65d2b918740075f26ae75fb2,0.0242,0.0242,0,81,81,113,1,fiveseven,,,,,,,,,,,,,,,,,,,,,,,,,,,,,,,,,,,,,,,,,,,,,,,,,,,,,,,,,,,,,,,,,,,,,,,,,,,,,,,,,,,,,,,,,,,,,,,,,,,,,,,,,,,,,,,,,,,,,,,,,,,,,,,,,,,,,,,,,
,,65a9b49e86480523ab92490f,2024-02-19_11h13.11.815,kallum_motion_pilot,2023.2.2,Win32,158.7301587,65a9b49e86480523ab92490f,65d2b6c8f2eece985d8e374c,65d2b918740075f26ae75fb2,0.0244,0.0244,0,82,82,152,1,fivesix,,,,,,,,,,,,,,,,,,,,,,,,,,,,,,,,,,,,,,,,,,,,,,,,,,,,,,,,,,,,,,,,,,,,,,,,,,,,,,,,,,,,,,,,,,,,,,,,,,,,,,,,,,,,,,,,,,,,,,,,,,,,,,,,,,,,,,,,,
,,65a9b49e86480523ab92490f,2024-02-19_11h13.11.815,kallum_motion_pilot,2023.2.2,Win32,158.7301587,65a9b49e86480523ab92490f,65d2b6c8f2eece985d8e374c,65d2b918740075f26ae75fb2,0.0244,0.0244,0,83,83,20,1,threeone,,,,,,,,,,,,,,,,,,,,,,,,,,,,,,,,,,,,,,,,,,,,,,,,,,,,,,,,,,,,,,,,,,,,,,,,,,,,,,,,,,,,,,,,,,,,,,,,,,,,,,,,,,,,,,,,,,,,,,,,,,,,,,,,,,,,,,,,,
,,65a9b49e86480523ab92490f,2024-02-19_11h13.11.815,kallum_motion_pilot,2023.2.2,Win32,158.7301587,65a9b49e86480523ab92490f,65d2b6c8f2eece985d8e374c,65d2b918740075f26ae75fb2,0.0245,0.0245,0,84,84,107,1,sixeight,,,,,,,,,,,,,,,,,,,,,,,,,,,,,,,,,,,,,,,,,,,,,,,,,,,,,,,,,,,,,,,,,,,,,,,,,,,,,,,,,,,,,,,,,,,,,,,,,,,,,,,,,,,,,,,,,,,,,,,,,,,,,,,,,,,,,,,,,
,,65a9b49e86480523ab92490f,2024-02-19_11h13.11.815,kallum_motion_pilot,2023.2.2,Win32,158.7301587,65a9b49e86480523ab92490f,65d2b6c8f2eece985d8e374c,65d2b918740075f26ae75fb2,0.0246,0.0246,0,85,85,75,1,twofour,,,,,,,,,,,,,,,,,,,,,,,,,,,,,,,,,,,,,,,,,,,,,,,,,,,,,,,,,,,,,,,,,,,,,,,,,,,,,,,,,,,,,,,,,,,,,,,,,,,,,,,,,,,,,,,,,,,,,,,,,,,,,,,,,,,,,,,,,
,,65a9b49e86480523ab92490f,2024-02-19_11h13.11.815,kallum_motion_pilot,2023.2.2,Win32,158.7301587,65a9b49e86480523ab92490f,65d2b6c8f2eece985d8e374c,65d2b918740075f26ae75fb2,0.0246,0.0247,0,86,86,56,1,onetwo,,,,,,,,,,,,,,,,,,,,,,,,,,,,,,,,,,,,,,,,,,,,,,,,,,,,,,,,,,,,,,,,,,,,,,,,,,,,,,,,,,,,,,,,,,,,,,,,,,,,,,,,,,,,,,,,,,,,,,,,,,,,,,,,,,,,,,,,,
,,65a9b49e86480523ab92490f,2024-02-19_11h13.11.815,kallum_motion_pilot,2023.2.2,Win32,158.7301587,65a9b49e86480523ab92490f,65d2b6c8f2eece985d8e374c,65d2b918740075f26ae75fb2,0.0248,0.0248,0,87,87,95,1,eightseven,,,,,,,,,,,,,,,,,,,,,,,,,,,,,,,,,,,,,,,,,,,,,,,,,,,,,,,,,,,,,,,,,,,,,,,,,,,,,,,,,,,,,,,,,,,,,,,,,,,,,,,,,,,,,,,,,,,,,,,,,,,,,,,,,,,,,,,,,
,,65a9b49e86480523ab92490f,2024-02-19_11h13.11.815,kallum_motion_pilot,2023.2.2,Win32,158.7301587,65a9b49e86480523ab92490f,65d2b6c8f2eece985d8e374c,65d2b918740075f26ae75fb2,0.0248,0.0248,0,88,88,136,1,fivesix,,,,,,,,,,,,,,,,,,,,,,,,,,,,,,,,,,,,,,,,,,,,,,,,,,,,,,,,,,,,,,,,,,,,,,,,,,,,,,,,,,,,,,,,,,,,,,,,,,,,,,,,,,,,,,,,,,,,,,,,,,,,,,,,,,,,,,,,,
,,65a9b49e86480523ab92490f,2024-02-19_11h13.11.815,kallum_motion_pilot,2023.2.2,Win32,158.7301587,65a9b49e86480523ab92490f,65d2b6c8f2eece985d8e374c,65d2b918740075f26ae75fb2,0.0249,0.0249,0,89,89,149,1,seveneight,,,,,,,,,,,,,,,,,,,,,,,,,,,,,,,,,,,,,,,,,,,,,,,,,,,,,,,,,,,,,,,,,,,,,,,,,,,,,,,,,,,,,,,,,,,,,,,,,,,,,,,,,,,,,,,,,,,,,,,,,,,,,,,,,,,,,,,,,
,,65a9b49e86480523ab92490f,2024-02-19_11h13.11.815,kallum_motion_pilot,2023.2.2,Win32,158.7301587,65a9b49e86480523ab92490f,65d2b6c8f2eece985d8e374c,65d2b918740075f26ae75fb2,0.0249,0.025,0,90,90,115,1,sixeight,,,,,,,,,,,,,,,,,,,,,,,,,,,,,,,,,,,,,,,,,,,,,,,,,,,,,,,,,,,,,,,,,,,,,,,,,,,,,,,,,,,,,,,,,,,,,,,,,,,,,,,,,,,,,,,,,,,,,,,,,,,,,,,,,,,,,,,,,
,,65a9b49e86480523ab92490f,2024-02-19_11h13.11.815,kallum_motion_pilot,2023.2.2,Win32,158.7301587,65a9b49e86480523ab92490f,65d2b6c8f2eece985d8e374c,65d2b918740075f26ae75fb2,0.0251,0.0251,0,91,91,32,1,onetwo,,,,,,,,,,,,,,,,,,,,,,,,,,,,,,,,,,,,,,,,,,,,,,,,,,,,,,,,,,,,,,,,,,,,,,,,,,,,,,,,,,,,,,,,,,,,,,,,,,,,,,,,,,,,,,,,,,,,,,,,,,,,,,,,,,,,,,,,,
,,65a9b49e86480523ab92490f,2024-02-19_11h13.11.815,kallum_motion_pilot,2023.2.2,Win32,158.7301587,65a9b49e86480523ab92490f,65d2b6c8f2eece985d8e374c,65d2b918740075f26ae75fb2,0.0252,0.0252,0,92,92,116,1,sevenfive,,,,,,,,,,,,,,,,,,,,,,,,,,,,,,,,,,,,,,,,,,,,,,,,,,,,,,,,,,,,,,,,,,,,,,,,,,,,,,,,,,,,,,,,,,,,,,,,,,,,,,,,,,,,,,,,,,,,,,,,,,,,,,,,,,,,,,,,,
,,65a9b49e86480523ab92490f,2024-02-19_11h13.11.815,kallum_motion_pilot,2023.2.2,Win32,158.7301587,65a9b49e86480523ab92490f,65d2b6c8f2eece985d8e374c,65d2b918740075f26ae75fb2,0.0253,0.0253,0,93,93,64,1,onetwo,,,,,,,,,,,,,,,,,,,,,,,,,,,,,,,,,,,,,,,,,,,,,,,,,,,,,,,,,,,,,,,,,,,,,,,,,,,,,,,,,,,,,,,,,,,,,,,,,,,,,,,,,,,,,,,,,,,,,,,,,,,,,,,,,,,,,,,,,
,,65a9b49e86480523ab92490f,2024-02-19_11h13.11.815,kallum_motion_pilot,2023.2.2,Win32,158.7301587,65a9b49e86480523ab92490f,65d2b6c8f2eece985d8e374c,65d2b918740075f26ae75fb2,0.0253,0.0254,0,94,94,45,1,threefour,,,,,,,,,,,,,,,,,,,,,,,,,,,,,,,,,,,,,,,,,,,,,,,,,,,,,,,,,,,,,,,,,,,,,,,,,,,,,,,,,,,,,,,,,,,,,,,,,,,,,,,,,,,,,,,,,,,,,,,,,,,,,,,,,,,,,,,,,
,,65a9b49e86480523ab92490f,2024-02-19_11h13.11.815,kallum_motion_pilot,2023.2.2,Win32,158.7301587,65a9b49e86480523ab92490f,65d2b6c8f2eece985d8e374c,65d2b918740075f26ae75fb2,0.0255,0.0255,0,95,95,36,1,threeone,,,,,,,,,,,,,,,,,,,,,,,,,,,,,,,,,,,,,,,,,,,,,,,,,,,,,,,,,,,,,,,,,,,,,,,,,,,,,,,,,,,,,,,,,,,,,,,,,,,,,,,,,,,,,,,,,,,,,,,,,,,,,,,,,,,,,,,,,
,,65a9b49e86480523ab92490f,2024-02-19_11h13.11.815,kallum_motion_pilot,2023.2.2,Win32,158.7301587,65a9b49e86480523ab92490f,65d2b6c8f2eece985d8e374c,65d2b918740075f26ae75fb2,0.0255,0.0257,0,96,96,1,1,onethree,,,,,,,,,,,,,,,,,,,,,,,,,,,,,,,,,,,,,,,,,,,,,,,,,,,,,,,,,,,,,,,,,,,,,,,,,,,,,,,,,,,,,,,,,,,,,,,,,,,,,,,,,,,,,,,,,,,,,,,,,,,,,,,,,,,,,,,,,
,,65a9b49e86480523ab92490f,2024-02-19_11h13.11.815,kallum_motion_pilot,2023.2.2,Win32,158.7301587,65a9b49e86480523ab92490f,65d2b6c8f2eece985d8e374c,65d2b918740075f26ae75fb2,0.0258,0.0259,0,97,97,99,1,sixeight,,,,,,,,,,,,,,,,,,,,,,,,,,,,,,,,,,,,,,,,,,,,,,,,,,,,,,,,,,,,,,,,,,,,,,,,,,,,,,,,,,,,,,,,,,,,,,,,,,,,,,,,,,,,,,,,,,,,,,,,,,,,,,,,,,,,,,,,,
,,65a9b49e86480523ab92490f,2024-02-19_11h13.11.815,kallum_motion_pilot,2023.2.2,Win32,158.7301587,65a9b49e86480523ab92490f,65d2b6c8f2eece985d8e374c,65d2b918740075f26ae75fb2,0.026,0.026,0,98,98,53,1,threefour,,,,,,,,,,,,,,,,,,,,,,,,,,,,,,,,,,,,,,,,,,,,,,,,,,,,,,,,,,,,,,,,,,,,,,,,,,,,,,,,,,,,,,,,,,,,,,,,,,,,,,,,,,,,,,,,,,,,,,,,,,,,,,,,,,,,,,,,,
,,65a9b49e86480523ab92490f,2024-02-19_11h13.11.815,kallum_motion_pilot,2023.2.2,Win32,158.7301587,65a9b49e86480523ab92490f,65d2b6c8f2eece985d8e374c,65d2b918740075f26ae75fb2,0.0261,0.0261,0,99,99,127,1,eightseven,,,,,,,,,,,,,,,,,,,,,,,,,,,,,,,,,,,,,,,,,,,,,,,,,,,,,,,,,,,,,,,,,,,,,,,,,,,,,,,,,,,,,,,,,,,,,,,,,,,,,,,,,,,,,,,,,,,,,,,,,,,,,,,,,,,,,,,,,
,,65a9b49e86480523ab92490f,2024-02-19_11h13.11.815,kallum_motion_pilot,2023.2.2,Win32,158.7301587,65a9b49e86480523ab92490f,65d2b6c8f2eece985d8e374c,65d2b918740075f26ae75fb2,0.0262,0.0262,0,100,100,60,1,threeone,,,,,,,,,,,,,,,,,,,,,,,,,,,,,,,,,,,,,,,,,,,,,,,,,,,,,,,,,,,,,,,,,,,,,,,,,,,,,,,,,,,,,,,,,,,,,,,,,,,,,,,,,,,,,,,,,,,,,,,,,,,,,,,,,,,,,,,,,
,,65a9b49e86480523ab92490f,2024-02-19_11h13.11.815,kallum_motion_pilot,2023.2.2,Win32,158.7301587,65a9b49e86480523ab92490f,65d2b6c8f2eece985d8e374c,65d2b918740075f26ae75fb2,0.0263,0.0263,0,101,101,29,1,threefour,,,,,,,,,,,,,,,,,,,,,,,,,,,,,,,,,,,,,,,,,,,,,,,,,,,,,,,,,,,,,,,,,,,,,,,,,,,,,,,,,,,,,,,,,,,,,,,,,,,,,,,,,,,,,,,,,,,,,,,,,,,,,,,,,,,,,,,,,
,,65a9b49e86480523ab92490f,2024-02-19_11h13.11.815,kallum_motion_pilot,2023.2.2,Win32,158.7301587,65a9b49e86480523ab92490f,65d2b6c8f2eece985d8e374c,65d2b918740075f26ae75fb2,0.0264,0.0264,0,102,102,7,1,fourthree,,,,,,,,,,,,,,,,,,,,,,,,,,,,,,,,,,,,,,,,,,,,,,,,,,,,,,,,,,,,,,,,,,,,,,,,,,,,,,,,,,,,,,,,,,,,,,,,,,,,,,,,,,,,,,,,,,,,,,,,,,,,,,,,,,,,,,,,,
,,65a9b49e86480523ab92490f,2024-02-19_11h13.11.815,kallum_motion_pilot,2023.2.2,Win32,158.7301587,65a9b49e86480523ab92490f,65d2b6c8f2eece985d8e374c,65d2b918740075f26ae75fb2,0.0265,0.0265,0,103,103,102,1,eightsix,,,,,,,,,,,,,,,,,,,,,,,,,,,,,,,,,,,,,,,,,,,,,,,,,,,,,,,,,,,,,,,,,,,,,,,,,,,,,,,,,,,,,,,,,,,,,,,,,,,,,,,,,,,,,,,,,,,,,,,,,,,,,,,,,,,,,,,,,
,,65a9b49e86480523ab92490f,2024-02-19_11h13.11.815,kallum_motion_pilot,2023.2.2,Win32,158.7301587,65a9b49e86480523ab92490f,65d2b6c8f2eece985d8e374c,65d2b918740075f26ae75fb2,0.0265,0.0265,0,104,104,139,1,sixeight,,,,,,,,,,,,,,,,,,,,,,,,,,,,,,,,,,,,,,,,,,,,,,,,,,,,,,,,,,,,,,,,,,,,,,,,,,,,,,,,,,,,,,,,,,,,,,,,,,,,,,,,,,,,,,,,,,,,,,,,,,,,,,,,,,,,,,,,,
,,65a9b49e86480523ab92490f,2024-02-19_11h13.11.815,kallum_motion_pilot,2023.2.2,Win32,158.7301587,65a9b49e86480523ab92490f,65d2b6c8f2eece985d8e374c,65d2b918740075f26ae75fb2,0.0266,0.0267,0,105,105,161,1,fiveseven,,,,,,,,,,,,,,,,,,,,,,,,,,,,,,,,,,,,,,,,,,,,,,,,,,,,,,,,,,,,,,,,,,,,,,,,,,,,,,,,,,,,,,,,,,,,,,,,,,,,,,,,,,,,,,,,,,,,,,,,,,,,,,,,,,,,,,,,,
,,65a9b49e86480523ab92490f,2024-02-19_11h13.11.815,kallum_motion_pilot,2023.2.2,Win32,158.7301587,65a9b49e86480523ab92490f,65d2b6c8f2eece985d8e374c,65d2b918740075f26ae75fb2,0.0268,0.0269,0,106,106,9,1,onethree,,,,,,,,,,,,,,,,,,,,,,,,,,,,,,,,,,,,,,,,,,,,,,,,,,,,,,,,,,,,,,,,,,,,,,,,,,,,,,,,,,,,,,,,,,,,,,,,,,,,,,,,,,,,,,,,,,,,,,,,,,,,,,,,,,,,,,,,,
,,65a9b49e86480523ab92490f,2024-02-19_11h13.11.815,kallum_motion_pilot,2023.2.2,Win32,158.7301587,65a9b49e86480523ab92490f,65d2b6c8f2eece985d8e374c,65d2b918740075f26ae75fb2,0.0269,0.0269,0,107,107,83,1,sixeight,,,,,,,,,,,,,,,,,,,,,,,,,,,,,,,,,,,,,,,,,,,,,,,,,,,,,,,,,,,,,,,,,,,,,,,,,,,,,,,,,,,,,,,,,,,,,,,,,,,,,,,,,,,,,,,,,,,,,,,,,,,,,,,,,,,,,,,,,
,,65a9b49e86480523ab92490f,2024-02-19_11h13.11.815,kallum_motion_pilot,2023.2.2,Win32,158.7301587,65a9b49e86480523ab92490f,65d2b6c8f2eece985d8e374c,65d2b918740075f26ae75fb2,0.027,0.027,0,108,108,12,1,threeone,,,,,,,,,,,,,,,,,,,,,,,,,,,,,,,,,,,,,,,,,,,,,,,,,,,,,,,,,,,,,,,,,,,,,,,,,,,,,,,,,,,,,,,,,,,,,,,,,,,,,,,,,,,,,,,,,,,,,,,,,,,,,,,,,,,,,,,,,
,,65a9b49e86480523ab92490f,2024-02-19_11h13.11.815,kallum_motion_pilot,2023.2.2,Win32,158.7301587,65a9b49e86480523ab92490f,65d2b6c8f2eece985d8e374c,65d2b918740075f26ae75fb2,0.027,0.0271,0,109,109,122,1,sixfive,,,,,,,,,,,,,,,,,,,,,,,,,,,,,,,,,,,,,,,,,,,,,,,,,,,,,,,,,,,,,,,,,,,,,,,,,,,,,,,,,,,,,,,,,,,,,,,,,,,,,,,,,,,,,,,,,,,,,,,,,,,,,,,,,,,,,,,,,
,,65a9b49e86480523ab92490f,2024-02-19_11h13.11.815,kallum_motion_pilot,2023.2.2,Win32,158.7301587,65a9b49e86480523ab92490f,65d2b6c8f2eece985d8e374c,65d2b918740075f26ae75fb2,0.0271,0.0271,0,110,110,87,1,eightseven,,,,,,,,,,,,,,,,,,,,,,,,,,,,,,,,,,,,,,,,,,,,,,,,,,,,,,,,,,,,,,,,,,,,,,,,,,,,,,,,,,,,,,,,,,,,,,,,,,,,,,,,,,,,,,,,,,,,,,,,,,,,,,,,,,,,,,,,,
,,65a9b49e86480523ab92490f,2024-02-19_11h13.11.815,kallum_motion_pilot,2023.2.2,Win32,158.7301587,65a9b49e86480523ab92490f,65d2b6c8f2eece985d8e374c,65d2b918740075f26ae75fb2,0.0272,0.0273,0,111,111,153,1,fiveseven,,,,,,,,,,,,,,,,,,,,,,,,,,,,,,,,,,,,,,,,,,,,,,,,,,,,,,,,,,,,,,,,,,,,,,,,,,,,,,,,,,,,,,,,,,,,,,,,,,,,,,,,,,,,,,,,,,,,,,,,,,,,,,,,,,,,,,,,,
,,65a9b49e86480523ab92490f,2024-02-19_11h13.11.815,kallum_motion_pilot,2023.2.2,Win32,158.7301587,65a9b49e86480523ab92490f,65d2b6c8f2eece985d8e374c,65d2b918740075f26ae75fb2,0.0273,0.0273,0,112,112,143,1,eightseven,,,,,,,,,,,,,,,,,,,,,,,,,,,,,,,,,,,,,,,,,,,,,,,,,,,,,,,,,,,,,,,,,,,,,,,,,,,,,,,,,,,,,,,,,,,,,,,,,,,,,,,,,,,,,,,,,,,,,,,,,,,,,,,,,,,,,,,,,
,,65a9b49e86480523ab92490f,2024-02-19_11h13.11.815,kallum_motion_pilot,2023.2.2,Win32,158.7301587,65a9b49e86480523ab92490f,65d2b6c8f2eece985d8e374c,65d2b918740075f26ae75fb2,0.0273,0.0274,0,113,113,73,1,onethree,,,,,,,,,,,,,,,,,,,,,,,,,,,,,,,,,,,,,,,,,,,,,,,,,,,,,,,,,,,,,,,,,,,,,,,,,,,,,,,,,,,,,,,,,,,,,,,,,,,,,,,,,,,,,,,,,,,,,,,,,,,,,,,,,,,,,,,,,
,,65a9b49e86480523ab92490f,2024-02-19_11h13.11.815,kallum_motion_pilot,2023.2.2,Win32,158.7301587,65a9b49e86480523ab92490f,65d2b6c8f2eece985d8e374c,65d2b918740075f26ae75fb2,0.0274,0.0275,0,114,114,3,1,twofour,,,,,,,,,,,,,,,,,,,,,,,,,,,,,,,,,,,,,,,,,,,,,,,,,,,,,,,,,,,,,,,,,,,,,,,,,,,,,,,,,,,,,,,,,,,,,,,,,,,,,,,,,,,,,,,,,,,,,,,,,,,,,,,,,,,,,,,,,
,,65a9b49e86480523ab92490f,2024-02-19_11h13.11.815,kallum_motion_pilot,2023.2.2,Win32,158.7301587,65a9b49e86480523ab92490f,65d2b6c8f2eece985d8e374c,65d2b918740075f26ae75fb2,0.0275,0.0275,0,115,115,18,1,twoone,,,,,,,,,,,,,,,,,,,,,,,,,,,,,,,,,,,,,,,,,,,,,,,,,,,,,,,,,,,,,,,,,,,,,,,,,,,,,,,,,,,,,,,,,,,,,,,,,,,,,,,,,,,,,,,,,,,,,,,,,,,,,,,,,,,,,,,,,
,,65a9b49e86480523ab92490f,2024-02-19_11h13.11.815,kallum_motion_pilot,2023.2.2,Win32,158.7301587,65a9b49e86480523ab92490f,65d2b6c8f2eece985d8e374c,65d2b918740075f26ae75fb2,0.0276,0.0277,0,116,116,119,1,eightseven,,,,,,,,,,,,,,,,,,,,,,,,,,,,,,,,,,,,,,,,,,,,,,,,,,,,,,,,,,,,,,,,,,,,,,,,,,,,,,,,,,,,,,,,,,,,,,,,,,,,,,,,,,,,,,,,,,,,,,,,,,,,,,,,,,,,,,,,,
,,65a9b49e86480523ab92490f,2024-02-19_11h13.11.815,kallum_motion_pilot,2023.2.2,Win32,158.7301587,65a9b49e86480523ab92490f,65d2b6c8f2eece985d8e374c,65d2b918740075f26ae75fb2,0.0277,0.0278,0,117,117,71,1,fourthree,,,,,,,,,,,,,,,,,,,,,,,,,,,,,,,,,,,,,,,,,,,,,,,,,,,,,,,,,,,,,,,,,,,,,,,,,,,,,,,,,,,,,,,,,,,,,,,,,,,,,,,,,,,,,,,,,,,,,,,,,,,,,,,,,,,,,,,,,
,,65a9b49e86480523ab92490f,2024-02-19_11h13.11.815,kallum_motion_pilot,2023.2.2,Win32,158.7301587,65a9b49e86480523ab92490f,65d2b6c8f2eece985d8e374c,65d2b918740075f26ae75fb2,0.0278,0.0279,0,118,118,131,1,sixeight,,,,,,,,,,,,,,,,,,,,,,,,,,,,,,,,,,,,,,,,,,,,,,,,,,,,,,,,,,,,,,,,,,,,,,,,,,,,,,,,,,,,,,,,,,,,,,,,,,,,,,,,,,,,,,,,,,,,,,,,,,,,,,,,,,,,,,,,,
,,65a9b49e86480523ab92490f,2024-02-19_11h13.11.815,kallum_motion_pilot,2023.2.2,Win32,158.7301587,65a9b49e86480523ab92490f,65d2b6c8f2eece985d8e374c,65d2b918740075f26ae75fb2,0.0279,0.0279,0,119,119,40,1,onetwo,,,,,,,,,,,,,,,,,,,,,,,,,,,,,,,,,,,,,,,,,,,,,,,,,,,,,,,,,,,,,,,,,,,,,,,,,,,,,,,,,,,,,,,,,,,,,,,,,,,,,,,,,,,,,,,,,,,,,,,,,,,,,,,,,,,,,,,,,
,,65a9b49e86480523ab92490f,2024-02-19_11h13.11.815,kallum_motion_pilot,2023.2.2,Win32,158.7301587,65a9b49e86480523ab92490f,65d2b6c8f2eece985d8e374c,65d2b918740075f26ae75fb2,0.028,0.028,0,120,120,120,1,fivesix,,,,,,,,,,,,,,,,,,,,,,,,,,,,,,,,,,,,,,,,,,,,,,,,,,,,,,,,,,,,,,,,,,,,,,,,,,,,,,,,,,,,,,,,,,,,,,,,,,,,,,,,,,,,,,,,,,,,,,,,,,,,,,,,,,,,,,,,,
,,65a9b49e86480523ab92490f,2024-02-19_11h13.11.815,kallum_motion_pilot,2023.2.2,Win32,158.7301587,65a9b49e86480523ab92490f,65d2b6c8f2eece985d8e374c,65d2b918740075f26ae75fb2,0.028,0.0281,0,121,121,21,1,threefour,,,,,,,,,,,,,,,,,,,,,,,,,,,,,,,,,,,,,,,,,,,,,,,,,,,,,,,,,,,,,,,,,,,,,,,,,,,,,,,,,,,,,,,,,,,,,,,,,,,,,,,,,,,,,,,,,,,,,,,,,,,,,,,,,,,,,,,,,
,,65a9b49e86480523ab92490f,2024-02-19_11h13.11.815,kallum_motion_pilot,2023.2.2,Win32,158.7301587,65a9b49e86480523ab92490f,65d2b6c8f2eece985d8e374c,65d2b918740075f26ae75fb2,0.0282,0.0282,0,122,122,157,1,seveneight,,,,,,,,,,,,,,,,,,,,,,,,,,,,,,,,,,,,,,,,,,,,,,,,,,,,,,,,,,,,,,,,,,,,,,,,,,,,,,,,,,,,,,,,,,,,,,,,,,,,,,,,,,,,,,,,,,,,,,,,,,,,,,,,,,,,,,,,,
,,65a9b49e86480523ab92490f,2024-02-19_11h13.11.815,kallum_motion_pilot,2023.2.2,Win32,158.7301587,65a9b49e86480523ab92490f,65d2b6c8f2eece985d8e374c,65d2b918740075f26ae75fb2,0.0282,0.0282,0,123,123,91,1,sixeight,,,,,,,,,,,,,,,,,,,,,,,,,,,,,,,,,,,,,,,,,,,,,,,,,,,,,,,,,,,,,,,,,,,,,,,,,,,,,,,,,,,,,,,,,,,,,,,,,,,,,,,,,,,,,,,,,,,,,,,,,,,,,,,,,,,,,,,,,
,,65a9b49e86480523ab92490f,2024-02-19_11h13.11.815,kallum_motion_pilot,2023.2.2,Win32,158.7301587,65a9b49e86480523ab92490f,65d2b6c8f2eece985d8e374c,65d2b918740075f26ae75fb2,0.0284,0.0284,0,124,124,24,1,onetwo,,,,,,,,,,,,,,,,,,,,,,,,,,,,,,,,,,,,,,,,,,,,,,,,,,,,,,,,,,,,,,,,,,,,,,,,,,,,,,,,,,,,,,,,,,,,,,,,,,,,,,,,,,,,,,,,,,,,,,,,,,,,,,,,,,,,,,,,,
,,65a9b49e86480523ab92490f,2024-02-19_11h13.11.815,kallum_motion_pilot,2023.2.2,Win32,158.7301587,65a9b49e86480523ab92490f,65d2b6c8f2eece985d8e374c,65d2b918740075f26ae75fb2,0.0284,0.0285,0,125,125,156,1,sevenfive,,,,,,,,,,,,,,,,,,,,,,,,,,,,,,,,,,,,,,,,,,,,,,,,,,,,,,,,,,,,,,,,,,,,,,,,,,,,,,,,,,,,,,,,,,,,,,,,,,,,,,,,,,,,,,,,,,,,,,,,,,,,,,,,,,,,,,,,,
,,65a9b49e86480523ab92490f,2024-02-19_11h13.11.815,kallum_motion_pilot,2023.2.2,Win32,158.7301587,65a9b49e86480523ab92490f,65d2b6c8f2eece985d8e374c,65d2b918740075f26ae75fb2,0.0285,0.0286,0,126,126,104,1,fivesix,,,,,,,,,,,,,,,,,,,,,,,,,,,,,,,,,,,,,,,,,,,,,,,,,,,,,,,,,,,,,,,,,,,,,,,,,,,,,,,,,,,,,,,,,,,,,,,,,,,,,,,,,,,,,,,,,,,,,,,,,,,,,,,,,,,,,,,,,
,,65a9b49e86480523ab92490f,2024-02-19_11h13.11.815,kallum_motion_pilot,2023.2.2,Win32,158.7301587,65a9b49e86480523ab92490f,65d2b6c8f2eece985d8e374c,65d2b918740075f26ae75fb2,0.0286,0.0287,0,127,127,15,1,fourthree,,,,,,,,,,,,,,,,,,,,,,,,,,,,,,,,,,,,,,,,,,,,,,,,,,,,,,,,,,,,,,,,,,,,,,,,,,,,,,,,,,,,,,,,,,,,,,,,,,,,,,,,,,,,,,,,,,,,,,,,,,,,,,,,,,,,,,,,,
,,65a9b49e86480523ab92490f,2024-02-19_11h13.11.815,kallum_motion_pilot,2023.2.2,Win32,158.7301587,65a9b49e86480523ab92490f,65d2b6c8f2eece985d8e374c,65d2b918740075f26ae75fb2,0.0287,0.0288,0,128,128,117,1,seveneight,,,,,,,,,,,,,,,,,,,,,,,,,,,,,,,,,,,,,,,,,,,,,,,,,,,,,,,,,,,,,,,,,,,,,,,,,,,,,,,,,,,,,,,,,,,,,,,,,,,,,,,,,,,,,,,,,,,,,,,,,,,,,,,,,,,,,,,,,
,,65a9b49e86480523ab92490f,2024-02-19_11h13.11.815,kallum_motion_pilot,2023.2.2,Win32,158.7301587,65a9b49e86480523ab92490f,65d2b6c8f2eece985d8e374c,65d2b918740075f26ae75fb2,0.0288,0.0289,0,129,129,14,1,fourtwo,,,,,,,,,,,,,,,,,,,,,,,,,,,,,,,,,,,,,,,,,,,,,,,,,,,,,,,,,,,,,,,,,,,,,,,,,,,,,,,,,,,,,,,,,,,,,,,,,,,,,,,,,,,,,,,,,,,,,,,,,,,,,,,,,,,,,,,,,
,,65a9b49e86480523ab92490f,2024-02-19_11h13.11.815,kallum_motion_pilot,2023.2.2,Win32,158.7301587,65a9b49e86480523ab92490f,65d2b6c8f2eece985d8e374c,65d2b918740075f26ae75fb2,0.0289,0.029,0,130,130,142,1,eightsix,,,,,,,,,,,,,,,,,,,,,,,,,,,,,,,,,,,,,,,,,,,,,,,,,,,,,,,,,,,,,,,,,,,,,,,,,,,,,,,,,,,,,,,,,,,,,,,,,,,,,,,,,,,,,,,,,,,,,,,,,,,,,,,,,,,,,,,,,
,,65a9b49e86480523ab92490f,2024-02-19_11h13.11.815,kallum_motion_pilot,2023.2.2,Win32,158.7301587,65a9b49e86480523ab92490f,65d2b6c8f2eece985d8e374c,65d2b918740075f26ae75fb2,0.029,0.0291,0,131,131,88,1,fivesix,,,,,,,,,,,,,,,,,,,,,,,,,,,,,,,,,,,,,,,,,,,,,,,,,,,,,,,,,,,,,,,,,,,,,,,,,,,,,,,,,,,,,,,,,,,,,,,,,,,,,,,,,,,,,,,,,,,,,,,,,,,,,,,,,,,,,,,,,
,,65a9b49e86480523ab92490f,2024-02-19_11h13.11.815,kallum_motion_pilot,2023.2.2,Win32,158.7301587,65a9b49e86480523ab92490f,65d2b6c8f2eece985d8e374c,65d2b918740075f26ae75fb2,0.0291,0.0291,0,132,132,90,1,sixfive,,,,,,,,,,,,,,,,,,,,,,,,,,,,,,,,,,,,,,,,,,,,,,,,,,,,,,,,,,,,,,,,,,,,,,,,,,,,,,,,,,,,,,,,,,,,,,,,,,,,,,,,,,,,,,,,,,,,,,,,,,,,,,,,,,,,,,,,,
,,65a9b49e86480523ab92490f,2024-02-19_11h13.11.815,kallum_motion_pilot,2023.2.2,Win32,158.7301587,65a9b49e86480523ab92490f,65d2b6c8f2eece985d8e374c,65d2b918740075f26ae75fb2,0.0292,0.0292,0,133,133,146,1,sixfive,,,,,,,,,,,,,,,,,,,,,,,,,,,,,,,,,,,,,,,,,,,,,,,,,,,,,,,,,,,,,,,,,,,,,,,,,,,,,,,,,,,,,,,,,,,,,,,,,,,,,,,,,,,,,,,,,,,,,,,,,,,,,,,,,,,,,,,,,
,,65a9b49e86480523ab92490f,2024-02-19_11h13.11.815,kallum_motion_pilot,2023.2.2,Win32,158.7301587,65a9b49e86480523ab92490f,65d2b6c8f2eece985d8e374c,65d2b918740075f26ae75fb2,0.0292,0.0292,0,134,134,19,1,twofour,,,,,,,,,,,,,,,,,,,,,,,,,,,,,,,,,,,,,,,,,,,,,,,,,,,,,,,,,,,,,,,,,,,,,,,,,,,,,,,,,,,,,,,,,,,,,,,,,,,,,,,,,,,,,,,,,,,,,,,,,,,,,,,,,,,,,,,,,
,,65a9b49e86480523ab92490f,2024-02-19_11h13.11.815,kallum_motion_pilot,2023.2.2,Win32,158.7301587,65a9b49e86480523ab92490f,65d2b6c8f2eece985d8e374c,65d2b918740075f26ae75fb2,0.0293,0.0293,0,135,135,42,1,twoone,,,,,,,,,,,,,,,,,,,,,,,,,,,,,,,,,,,,,,,,,,,,,,,,,,,,,,,,,,,,,,,,,,,,,,,,,,,,,,,,,,,,,,,,,,,,,,,,,,,,,,,,,,,,,,,,,,,,,,,,,,,,,,,,,,,,,,,,,
,,65a9b49e86480523ab92490f,2024-02-19_11h13.11.815,kallum_motion_pilot,2023.2.2,Win32,158.7301587,65a9b49e86480523ab92490f,65d2b6c8f2eece985d8e374c,65d2b918740075f26ae75fb2,0.0294,0.0294,0,136,136,46,1,fourtwo,,,,,,,,,,,,,,,,,,,,,,,,,,,,,,,,,,,,,,,,,,,,,,,,,,,,,,,,,,,,,,,,,,,,,,,,,,,,,,,,,,,,,,,,,,,,,,,,,,,,,,,,,,,,,,,,,,,,,,,,,,,,,,,,,,,,,,,,,
,,65a9b49e86480523ab92490f,2024-02-19_11h13.11.815,kallum_motion_pilot,2023.2.2,Win32,158.7301587,65a9b49e86480523ab92490f,65d2b6c8f2eece985d8e374c,65d2b918740075f26ae75fb2,0.0295,0.0295,0,137,137,141,1,seveneight,,,,,,,,,,,,,,,,,,,,,,,,,,,,,,,,,,,,,,,,,,,,,,,,,,,,,,,,,,,,,,,,,,,,,,,,,,,,,,,,,,,,,,,,,,,,,,,,,,,,,,,,,,,,,,,,,,,,,,,,,,,,,,,,,,,,,,,,,
,,65a9b49e86480523ab92490f,2024-02-19_11h13.11.815,kallum_motion_pilot,2023.2.2,Win32,158.7301587,65a9b49e86480523ab92490f,65d2b6c8f2eece985d8e374c,65d2b918740075f26ae75fb2,0.0296,0.0296,0,138,138,70,1,fourtwo,,,,,,,,,,,,,,,,,,,,,,,,,,,,,,,,,,,,,,,,,,,,,,,,,,,,,,,,,,,,,,,,,,,,,,,,,,,,,,,,,,,,,,,,,,,,,,,,,,,,,,,,,,,,,,,,,,,,,,,,,,,,,,,,,,,,,,,,,
,,65a9b49e86480523ab92490f,2024-02-19_11h13.11.815,kallum_motion_pilot,2023.2.2,Win32,158.7301587,65a9b49e86480523ab92490f,65d2b6c8f2eece985d8e374c,65d2b918740075f26ae75fb2,0.0297,0.0298,0,139,139,123,1,sixeight,,,,,,,,,,,,,,,,,,,,,,,,,,,,,,,,,,,,,,,,,,,,,,,,,,,,,,,,,,,,,,,,,,,,,,,,,,,,,,,,,,,,,,,,,,,,,,,,,,,,,,,,,,,,,,,,,,,,,,,,,,,,,,,,,,,,,,,,,
,,65a9b49e86480523ab92490f,2024-02-19_11h13.11.815,kallum_motion_pilot,2023.2.2,Win32,158.7301587,65a9b49e86480523ab92490f,65d2b6c8f2eece985d8e374c,65d2b918740075f26ae75fb2,0.0298,0.0298,0,140,140,159,1,eightseven,,,,,,,,,,,,,,,,,,,,,,,,,,,,,,,,,,,,,,,,,,,,,,,,,,,,,,,,,,,,,,,,,,,,,,,,,,,,,,,,,,,,,,,,,,,,,,,,,,,,,,,,,,,,,,,,,,,,,,,,,,,,,,,,,,,,,,,,,
,,65a9b49e86480523ab92490f,2024-02-19_11h13.11.815,kallum_motion_pilot,2023.2.2,Win32,158.7301587,65a9b49e86480523ab92490f,65d2b6c8f2eece985d8e374c,65d2b918740075f26ae75fb2,0.0299,0.0299,0,141,141,5,1,threefour,,,,,,,,,,,,,,,,,,,,,,,,,,,,,,,,,,,,,,,,,,,,,,,,,,,,,,,,,,,,,,,,,,,,,,,,,,,,,,,,,,,,,,,,,,,,,,,,,,,,,,,,,,,,,,,,,,,,,,,,,,,,,,,,,,,,,,,,,
,,65a9b49e86480523ab92490f,2024-02-19_11h13.11.815,kallum_motion_pilot,2023.2.2,Win32,158.7301587,65a9b49e86480523ab92490f,65d2b6c8f2eece985d8e374c,65d2b918740075f26ae75fb2,0.0299,0.03,0,142,142,108,1,sevenfive,,,,,,,,,,,,,,,,,,,,,,,,,,,,,,,,,,,,,,,,,,,,,,,,,,,,,,,,,,,,,,,,,,,,,,,,,,,,,,,,,,,,,,,,,,,,,,,,,,,,,,,,,,,,,,,,,,,,,,,,,,,,,,,,,,,,,,,,,
,,65a9b49e86480523ab92490f,2024-02-19_11h13.11.815,kallum_motion_pilot,2023.2.2,Win32,158.7301587,65a9b49e86480523ab92490f,65d2b6c8f2eece985d8e374c,65d2b918740075f26ae75fb2,0.0301,0.0301,0,143,143,33,1,onethree,,,,,,,,,,,,,,,,,,,,,,,,,,,,,,,,,,,,,,,,,,,,,,,,,,,,,,,,,,,,,,,,,,,,,,,,,,,,,,,,,,,,,,,,,,,,,,,,,,,,,,,,,,,,,,,,,,,,,,,,,,,,,,,,,,,,,,,,,
,,65a9b49e86480523ab92490f,2024-02-19_11h13.11.815,kallum_motion_pilot,2023.2.2,Win32,158.7301587,65a9b49e86480523ab92490f,65d2b6c8f2eece985d8e374c,65d2b918740075f26ae75fb2,0.0301,0.0302,0,144,144,137,1,fiveseven,,,,,,,,,,,,,,,,,,,,,,,,,,,,,,,,,,,,,,,,,,,,,,,,,,,,,,,,,,,,,,,,,,,,,,,,,,,,,,,,,,,,,,,,,,,,,,,,,,,,,,,,,,,,,,,,,,,,,,,,,,,,,,,,,,,,,,,,,
,,65a9b49e86480523ab92490f,2024-02-19_11h13.11.815,kallum_motion_pilot,2023.2.2,Win32,158.7301587,65a9b49e86480523ab92490f,65d2b6c8f2eece985d8e374c,65d2b918740075f26ae75fb2,0.0302,0.0302,0,145,145,59,1,twofour,,,,,,,,,,,,,,,,,,,,,,,,,,,,,,,,,,,,,,,,,,,,,,,,,,,,,,,,,,,,,,,,,,,,,,,,,,,,,,,,,,,,,,,,,,,,,,,,,,,,,,,,,,,,,,,,,,,,,,,,,,,,,,,,,,,,,,,,,
,,65a9b49e86480523ab92490f,2024-02-19_11h13.11.815,kallum_motion_pilot,2023.2.2,Win32,158.7301587,65a9b49e86480523ab92490f,65d2b6c8f2eece985d8e374c,65d2b918740075f26ae75fb2,0.0303,0.0303,0,146,146,76,1,threeone,,,,,,,,,,,,,,,,,,,,,,,,,,,,,,,,,,,,,,,,,,,,,,,,,,,,,,,,,,,,,,,,,,,,,,,,,,,,,,,,,,,,,,,,,,,,,,,,,,,,,,,,,,,,,,,,,,,,,,,,,,,,,,,,,,,,,,,,,
,,65a9b49e86480523ab92490f,2024-02-19_11h13.11.815,kallum_motion_pilot,2023.2.2,Win32,158.7301587,65a9b49e86480523ab92490f,65d2b6c8f2eece985d8e374c,65d2b918740075f26ae75fb2,0.0304,0.0304,0,147,147,13,1,threefour,,,,,,,,,,,,,,,,,,,,,,,,,,,,,,,,,,,,,,,,,,,,,,,,,,,,,,,,,,,,,,,,,,,,,,,,,,,,,,,,,,,,,,,,,,,,,,,,,,,,,,,,,,,,,,,,,,,,,,,,,,,,,,,,,,,,,,,,,
,,65a9b49e86480523ab92490f,2024-02-19_11h13.11.815,kallum_motion_pilot,2023.2.2,Win32,158.7301587,65a9b49e86480523ab92490f,65d2b6c8f2eece985d8e374c,65d2b918740075f26ae75fb2,0.0305,0.0305,0,148,148,147,1,sixeight,,,,,,,,,,,,,,,,,,,,,,,,,,,,,,,,,,,,,,,,,,,,,,,,,,,,,,,,,,,,,,,,,,,,,,,,,,,,,,,,,,,,,,,,,,,,,,,,,,,,,,,,,,,,,,,,,,,,,,,,,,,,,,,,,,,,,,,,,
,,65a9b49e86480523ab92490f,2024-02-19_11h13.11.815,kallum_motion_pilot,2023.2.2,Win32,158.7301587,65a9b49e86480523ab92490f,65d2b6c8f2eece985d8e374c,65d2b918740075f26ae75fb2,0.0305,0.0307,0,149,149,55,1,fourthree,,,,,,,,,,,,,,,,,,,,,,,,,,,,,,,,,,,,,,,,,,,,,,,,,,,,,,,,,,,,,,,,,,,,,,,,,,,,,,,,,,,,,,,,,,,,,,,,,,,,,,,,,,,,,,,,,,,,,,,,,,,,,,,,,,,,,,,,,
,,65a9b49e86480523ab92490f,2024-02-19_11h13.11.815,kallum_motion_pilot,2023.2.2,Win32,158.7301587,65a9b49e86480523ab92490f,65d2b6c8f2eece985d8e374c,65d2b918740075f26ae75fb2,0.0307,0.0307,0,150,150,61,1,threefour,,,,,,,,,,,,,,,,,,,,,,,,,,,,,,,,,,,,,,,,,,,,,,,,,,,,,,,,,,,,,,,,,,,,,,,,,,,,,,,,,,,,,,,,,,,,,,,,,,,,,,,,,,,,,,,,,,,,,,,,,,,,,,,,,,,,,,,,,
,,65a9b49e86480523ab92490f,2024-02-19_11h13.11.815,kallum_motion_pilot,2023.2.2,Win32,158.7301587,65a9b49e86480523ab92490f,65d2b6c8f2eece985d8e374c,65d2b918740075f26ae75fb2,0.0308,0.0308,0,151,151,25,1,onethree,,,,,,,,,,,,,,,,,,,,,,,,,,,,,,,,,,,,,,,,,,,,,,,,,,,,,,,,,,,,,,,,,,,,,,,,,,,,,,,,,,,,,,,,,,,,,,,,,,,,,,,,,,,,,,,,,,,,,,,,,,,,,,,,,,,,,,,,,
,,65a9b49e86480523ab92490f,2024-02-19_11h13.11.815,kallum_motion_pilot,2023.2.2,Win32,158.7301587,65a9b49e86480523ab92490f,65d2b6c8f2eece985d8e374c,65d2b918740075f26ae75fb2,0.0309,0.0309,0,152,152,151,1,eightseven,,,,,,,,,,,,,,,,,,,,,,,,,,,,,,,,,,,,,,,,,,,,,,,,,,,,,,,,,,,,,,,,,,,,,,,,,,,,,,,,,,,,,,,,,,,,,,,,,,,,,,,,,,,,,,,,,,,,,,,,,,,,,,,,,,,,,,,,,
,,65a9b49e86480523ab92490f,2024-02-19_11h13.11.815,kallum_motion_pilot,2023.2.2,Win32,158.7301587,65a9b49e86480523ab92490f,65d2b6c8f2eece985d8e374c,65d2b918740075f26ae75fb2,0.0309,0.031,0,153,153,93,1,seveneight,,,,,,,,,,,,,,,,,,,,,,,,,,,,,,,,,,,,,,,,,,,,,,,,,,,,,,,,,,,,,,,,,,,,,,,,,,,,,,,,,,,,,,,,,,,,,,,,,,,,,,,,,,,,,,,,,,,,,,,,,,,,,,,,,,,,,,,,,
,,65a9b49e86480523ab92490f,2024-02-19_11h13.11.815,kallum_motion_pilot,2023.2.2,Win32,158.7301587,65a9b49e86480523ab92490f,65d2b6c8f2eece985d8e374c,65d2b918740075f26ae75fb2,0.031,0.0311,0,154,154,150,1,eightsix,,,,,,,,,,,,,,,,,,,,,,,,,,,,,,,,,,,,,,,,,,,,,,,,,,,,,,,,,,,,,,,,,,,,,,,,,,,,,,,,,,,,,,,,,,,,,,,,,,,,,,,,,,,,,,,,,,,,,,,,,,,,,,,,,,,,,,,,,
,,65a9b49e86480523ab92490f,2024-02-19_11h13.11.815,kallum_motion_pilot,2023.2.2,Win32,158.7301587,65a9b49e86480523ab92490f,65d2b6c8f2eece985d8e374c,65d2b918740075f26ae75fb2,0.0311,0.0312,0,155,155,77,1,threefour,,,,,,,,,,,,,,,,,,,,,,,,,,,,,,,,,,,,,,,,,,,,,,,,,,,,,,,,,,,,,,,,,,,,,,,,,,,,,,,,,,,,,,,,,,,,,,,,,,,,,,,,,,,,,,,,,,,,,,,,,,,,,,,,,,,,,,,,,
,,65a9b49e86480523ab92490f,2024-02-19_11h13.11.815,kallum_motion_pilot,2023.2.2,Win32,158.7301587,65a9b49e86480523ab92490f,65d2b6c8f2eece985d8e374c,65d2b918740075f26ae75fb2,0.0312,0.0313,0,156,156,106,1,sixfive,,,,,,,,,,,,,,,,,,,,,,,,,,,,,,,,,,,,,,,,,,,,,,,,,,,,,,,,,,,,,,,,,,,,,,,,,,,,,,,,,,,,,,,,,,,,,,,,,,,,,,,,,,,,,,,,,,,,,,,,,,,,,,,,,,,,,,,,,
,,65a9b49e86480523ab92490f,2024-02-19_11h13.11.815,kallum_motion_pilot,2023.2.2,Win32,158.7301587,65a9b49e86480523ab92490f,65d2b6c8f2eece985d8e374c,65d2b918740075f26ae75fb2,0.0313,0.0313,0,157,157,26,1,twoone,,,,,,,,,,,,,,,,,,,,,,,,,,,,,,,,,,,,,,,,,,,,,,,,,,,,,,,,,,,,,,,,,,,,,,,,,,,,,,,,,,,,,,,,,,,,,,,,,,,,,,,,,,,,,,,,,,,,,,,,,,,,,,,,,,,,,,,,,
,,65a9b49e86480523ab92490f,2024-02-19_11h13.11.815,kallum_motion_pilot,2023.2.2,Win32,158.7301587,65a9b49e86480523ab92490f,65d2b6c8f2eece985d8e374c,65d2b918740075f26ae75fb2,0.0314,0.0315,0,158,158,154,1,sixfive,,,,,,,,,,,,,,,,,,,,,,,,,,,,,,,,,,,,,,,,,,,,,,,,,,,,,,,,,,,,,,,,,,,,,,,,,,,,,,,,,,,,,,,,,,,,,,,,,,,,,,,,,,,,,,,,,,,,,,,,,,,,,,,,,,,,,,,,,
,,65a9b49e86480523ab92490f,2024-02-19_11h13.11.815,kallum_motion_pilot,2023.2.2,Win32,158.7301587,65a9b49e86480523ab92490f,65d2b6c8f2eece985d8e374c,65d2b918740075f26ae75fb2,0.0315,0.0315,0,159,159,49,1,onethree,,,,,,,,,,,,,,,,,,,,,,,,,,,,,,,,,,,,,,,,,,,,,,,,,,,,,,,,,,,,,,,,,,,,,,,,,,,,,,,,,,,,,,,,,,,,,,,,,,,,,,,,,,,,,,,,,,,,,,,,,,,,,,,,,,,,,,,,,
,,65a9b49e86480523ab92490f,2024-02-19_11h13.11.815,kallum_motion_pilot,2023.2.2,Win32,158.7301587,65a9b49e86480523ab92490f,65d2b6c8f2eece985d8e374c,65d2b918740075f26ae75fb2,0.0317,0.0318,0,160,160,8,1,onetwo,,,,,,,,,,,,,,,,,,,,,,,,,,,,,,,,,,,,,,,,,,,,,,,,,,,,,,,,,,,,,,,,,,,,,,,,,,,,,,,,,,,,,,,,,,,,,,,,,,,,,,,,,,,,,,,,,,,,,,,,,,,,,,,,,,,,,,,,,
,,65a9b49e86480523ab92490f,2024-02-19_11h13.11.815,kallum_motion_pilot,2023.2.2,Win32,158.7301587,65a9b49e86480523ab92490f,65d2b6c8f2eece985d8e374c,65d2b918740075f26ae75fb2,0.0325,0.0326,0,161,161,114,1,sixfive,,,,,,,,,,,,,,,,,,,,,,,,,,,,,,,,,,,,,,,,,,,,,,,,,,,,,,,,,,,,,,,,,,,,,,,,,,,,,,,,,,,,,,,,,,,,,,,,,,,,,,,,,,,,,,,,,,,,,,,,,,,,,,,,,,,,,,,,,
,,65a9b49e86480523ab92490f,2024-02-19_11h13.11.815,kallum_motion_pilot,2023.2.2,Win32,158.7301587,65a9b49e86480523ab92490f,65d2b6c8f2eece985d8e374c,65d2b918740075f26ae75fb2,0.0327,0.0328,1,0,162,84,1,sevenfive,,,,,,,,,,,,,,,,,,,,,,,,,,,,,,,,,,,,,,,,,,,,,,,,,,,,,,,,,,,,,,,,,,,,,,,,,,,,,,,,,,,,,,,,,,,,,,,,,,,,,,,,,,,,,,,,,,,,,,,,,,,,,,,,,,,,,,,,,
,,65a9b49e86480523ab92490f,2024-02-19_11h13.11.815,kallum_motion_pilot,2023.2.2,Win32,158.7301587,65a9b49e86480523ab92490f,65d2b6c8f2eece985d8e374c,65d2b918740075f26ae75fb2,0.0329,0.0329,1,1,163,65,1,onethree,,,,,,,,,,,,,,,,,,,,,,,,,,,,,,,,,,,,,,,,,,,,,,,,,,,,,,,,,,,,,,,,,,,,,,,,,,,,,,,,,,,,,,,,,,,,,,,,,,,,,,,,,,,,,,,,,,,,,,,,,,,,,,,,,,,,,,,,,
,,65a9b49e86480523ab92490f,2024-02-19_11h13.11.815,kallum_motion_pilot,2023.2.2,Win32,158.7301587,65a9b49e86480523ab92490f,65d2b6c8f2eece985d8e374c,65d2b918740075f26ae75fb2,0.0329,0.033,1,2,164,15,1,fourthree,,,,,,,,,,,,,,,,,,,,,,,,,,,,,,,,,,,,,,,,,,,,,,,,,,,,,,,,,,,,,,,,,,,,,,,,,,,,,,,,,,,,,,,,,,,,,,,,,,,,,,,,,,,,,,,,,,,,,,,,,,,,,,,,,,,,,,,,,
,,65a9b49e86480523ab92490f,2024-02-19_11h13.11.815,kallum_motion_pilot,2023.2.2,Win32,158.7301587,65a9b49e86480523ab92490f,65d2b6c8f2eece985d8e374c,65d2b918740075f26ae75fb2,0.033,0.033,1,3,165,137,1,fiveseven,,,,,,,,,,,,,,,,,,,,,,,,,,,,,,,,,,,,,,,,,,,,,,,,,,,,,,,,,,,,,,,,,,,,,,,,,,,,,,,,,,,,,,,,,,,,,,,,,,,,,,,,,,,,,,,,,,,,,,,,,,,,,,,,,,,,,,,,,
,,65a9b49e86480523ab92490f,2024-02-19_11h13.11.815,kallum_motion_pilot,2023.2.2,Win32,158.7301587,65a9b49e86480523ab92490f,65d2b6c8f2eece985d8e374c,65d2b918740075f26ae75fb2,0.0331,0.0331,1,4,166,83,1,sixeight,,,,,,,,,,,,,,,,,,,,,,,,,,,,,,,,,,,,,,,,,,,,,,,,,,,,,,,,,,,,,,,,,,,,,,,,,,,,,,,,,,,,,,,,,,,,,,,,,,,,,,,,,,,,,,,,,,,,,,,,,,,,,,,,,,,,,,,,,
,,65a9b49e86480523ab92490f,2024-02-19_11h13.11.815,kallum_motion_pilot,2023.2.2,Win32,158.7301587,65a9b49e86480523ab92490f,65d2b6c8f2eece985d8e374c,65d2b918740075f26ae75fb2,0.0331,0.0333,1,5,167,115,1,sixeight,,,,,,,,,,,,,,,,,,,,,,,,,,,,,,,,,,,,,,,,,,,,,,,,,,,,,,,,,,,,,,,,,,,,,,,,,,,,,,,,,,,,,,,,,,,,,,,,,,,,,,,,,,,,,,,,,,,,,,,,,,,,,,,,,,,,,,,,,
,,65a9b49e86480523ab92490f,2024-02-19_11h13.11.815,kallum_motion_pilot,2023.2.2,Win32,158.7301587,65a9b49e86480523ab92490f,65d2b6c8f2eece985d8e374c,65d2b918740075f26ae75fb2,0.0333,0.0333,1,6,168,32,1,onetwo,,,,,,,,,,,,,,,,,,,,,,,,,,,,,,,,,,,,,,,,,,,,,,,,,,,,,,,,,,,,,,,,,,,,,,,,,,,,,,,,,,,,,,,,,,,,,,,,,,,,,,,,,,,,,,,,,,,,,,,,,,,,,,,,,,,,,,,,,
,,65a9b49e86480523ab92490f,2024-02-19_11h13.11.815,kallum_motion_pilot,2023.2.2,Win32,158.7301587,65a9b49e86480523ab92490f,65d2b6c8f2eece985d8e374c,65d2b918740075f26ae75fb2,0.0334,0.0334,1,7,169,109,1,seveneight,,,,,,,,,,,,,,,,,,,,,,,,,,,,,,,,,,,,,,,,,,,,,,,,,,,,,,,,,,,,,,,,,,,,,,,,,,,,,,,,,,,,,,,,,,,,,,,,,,,,,,,,,,,,,,,,,,,,,,,,,,,,,,,,,,,,,,,,,
,,65a9b49e86480523ab92490f,2024-02-19_11h13.11.815,kallum_motion_pilot,2023.2.2,Win32,158.7301587,65a9b49e86480523ab92490f,65d2b6c8f2eece985d8e374c,65d2b918740075f26ae75fb2,0.0335,0.0335,1,8,170,126,1,eightsix,,,,,,,,,,,,,,,,,,,,,,,,,,,,,,,,,,,,,,,,,,,,,,,,,,,,,,,,,,,,,,,,,,,,,,,,,,,,,,,,,,,,,,,,,,,,,,,,,,,,,,,,,,,,,,,,,,,,,,,,,,,,,,,,,,,,,,,,,
,,65a9b49e86480523ab92490f,2024-02-19_11h13.11.815,kallum_motion_pilot,2023.2.2,Win32,158.7301587,65a9b49e86480523ab92490f,65d2b6c8f2eece985d8e374c,65d2b918740075f26ae75fb2,0.0336,0.0336,1,9,171,7,1,fourthree,,,,,,,,,,,,,,,,,,,,,,,,,,,,,,,,,,,,,,,,,,,,,,,,,,,,,,,,,,,,,,,,,,,,,,,,,,,,,,,,,,,,,,,,,,,,,,,,,,,,,,,,,,,,,,,,,,,,,,,,,,,,,,,,,,,,,,,,,
,,65a9b49e86480523ab92490f,2024-02-19_11h13.11.815,kallum_motion_pilot,2023.2.2,Win32,158.7301587,65a9b49e86480523ab92490f,65d2b6c8f2eece985d8e374c,65d2b918740075f26ae75fb2,0.0337,0.0337,1,10,172,82,1,sixfive,,,,,,,,,,,,,,,,,,,,,,,,,,,,,,,,,,,,,,,,,,,,,,,,,,,,,,,,,,,,,,,,,,,,,,,,,,,,,,,,,,,,,,,,,,,,,,,,,,,,,,,,,,,,,,,,,,,,,,,,,,,,,,,,,,,,,,,,,
,,65a9b49e86480523ab92490f,2024-02-19_11h13.11.815,kallum_motion_pilot,2023.2.2,Win32,158.7301587,65a9b49e86480523ab92490f,65d2b6c8f2eece985d8e374c,65d2b918740075f26ae75fb2,0.0338,0.0338,1,11,173,20,1,threeone,,,,,,,,,,,,,,,,,,,,,,,,,,,,,,,,,,,,,,,,,,,,,,,,,,,,,,,,,,,,,,,,,,,,,,,,,,,,,,,,,,,,,,,,,,,,,,,,,,,,,,,,,,,,,,,,,,,,,,,,,,,,,,,,,,,,,,,,,
,,65a9b49e86480523ab92490f,2024-02-19_11h13.11.815,kallum_motion_pilot,2023.2.2,Win32,158.7301587,65a9b49e86480523ab92490f,65d2b6c8f2eece985d8e374c,65d2b918740075f26ae75fb2,0.0339,0.0339,1,12,174,150,1,eightsix,,,,,,,,,,,,,,,,,,,,,,,,,,,,,,,,,,,,,,,,,,,,,,,,,,,,,,,,,,,,,,,,,,,,,,,,,,,,,,,,,,,,,,,,,,,,,,,,,,,,,,,,,,,,,,,,,,,,,,,,,,,,,,,,,,,,,,,,,
,,65a9b49e86480523ab92490f,2024-02-19_11h13.11.815,kallum_motion_pilot,2023.2.2,Win32,158.7301587,65a9b49e86480523ab92490f,65d2b6c8f2eece985d8e374c,65d2b918740075f26ae75fb2,0.0339,0.034,1,13,175,38,1,fourtwo,,,,,,,,,,,,,,,,,,,,,,,,,,,,,,,,,,,,,,,,,,,,,,,,,,,,,,,,,,,,,,,,,,,,,,,,,,,,,,,,,,,,,,,,,,,,,,,,,,,,,,,,,,,,,,,,,,,,,,,,,,,,,,,,,,,,,,,,,
,,65a9b49e86480523ab92490f,2024-02-19_11h13.11.815,kallum_motion_pilot,2023.2.2,Win32,158.7301587,65a9b49e86480523ab92490f,65d2b6c8f2eece985d8e374c,65d2b918740075f26ae75fb2,0.034,0.034,1,14,176,19,1,twofour,,,,,,,,,,,,,,,,,,,,,,,,,,,,,,,,,,,,,,,,,,,,,,,,,,,,,,,,,,,,,,,,,,,,,,,,,,,,,,,,,,,,,,,,,,,,,,,,,,,,,,,,,,,,,,,,,,,,,,,,,,,,,,,,,,,,,,,,,
,,65a9b49e86480523ab92490f,2024-02-19_11h13.11.815,kallum_motion_pilot,2023.2.2,Win32,158.7301587,65a9b49e86480523ab92490f,65d2b6c8f2eece985d8e374c,65d2b918740075f26ae75fb2,0.0342,0.0342,1,15,177,125,1,seveneight,,,,,,,,,,,,,,,,,,,,,,,,,,,,,,,,,,,,,,,,,,,,,,,,,,,,,,,,,,,,,,,,,,,,,,,,,,,,,,,,,,,,,,,,,,,,,,,,,,,,,,,,,,,,,,,,,,,,,,,,,,,,,,,,,,,,,,,,,
,,65a9b49e86480523ab92490f,2024-02-19_11h13.11.815,kallum_motion_pilot,2023.2.2,Win32,158.7301587,65a9b49e86480523ab92490f,65d2b6c8f2eece985d8e374c,65d2b918740075f26ae75fb2,0.0342,0.0343,1,16,178,91,1,sixeight,,,,,,,,,,,,,,,,,,,,,,,,,,,,,,,,,,,,,,,,,,,,,,,,,,,,,,,,,,,,,,,,,,,,,,,,,,,,,,,,,,,,,,,,,,,,,,,,,,,,,,,,,,,,,,,,,,,,,,,,,,,,,,,,,,,,,,,,,
,,65a9b49e86480523ab92490f,2024-02-19_11h13.11.815,kallum_motion_pilot,2023.2.2,Win32,158.7301587,65a9b49e86480523ab92490f,65d2b6c8f2eece985d8e374c,65d2b918740075f26ae75fb2,0.0343,0.0344,1,17,179,6,1,fourtwo,,,,,,,,,,,,,,,,,,,,,,,,,,,,,,,,,,,,,,,,,,,,,,,,,,,,,,,,,,,,,,,,,,,,,,,,,,,,,,,,,,,,,,,,,,,,,,,,,,,,,,,,,,,,,,,,,,,,,,,,,,,,,,,,,,,,,,,,,
,,65a9b49e86480523ab92490f,2024-02-19_11h13.11.815,kallum_motion_pilot,2023.2.2,Win32,158.7301587,65a9b49e86480523ab92490f,65d2b6c8f2eece985d8e374c,65d2b918740075f26ae75fb2,0.0344,0.0344,1,18,180,58,1,twoone,,,,,,,,,,,,,,,,,,,,,,,,,,,,,,,,,,,,,,,,,,,,,,,,,,,,,,,,,,,,,,,,,,,,,,,,,,,,,,,,,,,,,,,,,,,,,,,,,,,,,,,,,,,,,,,,,,,,,,,,,,,,,,,,,,,,,,,,,
,,65a9b49e86480523ab92490f,2024-02-19_11h13.11.815,kallum_motion_pilot,2023.2.2,Win32,158.7301587,65a9b49e86480523ab92490f,65d2b6c8f2eece985d8e374c,65d2b918740075f26ae75fb2,0.0345,0.0346,1,19,181,147,1,sixeight,,,,,,,,,,,,,,,,,,,,,,,,,,,,,,,,,,,,,,,,,,,,,,,,,,,,,,,,,,,,,,,,,,,,,,,,,,,,,,,,,,,,,,,,,,,,,,,,,,,,,,,,,,,,,,,,,,,,,,,,,,,,,,,,,,,,,,,,,
,,65a9b49e86480523ab92490f,2024-02-19_11h13.11.815,kallum_motion_pilot,2023.2.2,Win32,158.7301587,65a9b49e86480523ab92490f,65d2b6c8f2eece985d8e374c,65d2b918740075f26ae75fb2,0.0346,0.0346,1,20,182,132,1,sevenfive,,,,,,,,,,,,,,,,,,,,,,,,,,,,,,,,,,,,,,,,,,,,,,,,,,,,,,,,,,,,,,,,,,,,,,,,,,,,,,,,,,,,,,,,,,,,,,,,,,,,,,,,,,,,,,,,,,,,,,,,,,,,,,,,,,,,,,,,,
,,65a9b49e86480523ab92490f,2024-02-19_11h13.11.815,kallum_motion_pilot,2023.2.2,Win32,158.7301587,65a9b49e86480523ab92490f,65d2b6c8f2eece985d8e374c,65d2b918740075f26ae75fb2,0.0347,0.0347,1,21,183,145,1,fiveseven,,,,,,,,,,,,,,,,,,,,,,,,,,,,,,,,,,,,,,,,,,,,,,,,,,,,,,,,,,,,,,,,,,,,,,,,,,,,,,,,,,,,,,,,,,,,,,,,,,,,,,,,,,,,,,,,,,,,,,,,,,,,,,,,,,,,,,,,,
,,65a9b49e86480523ab92490f,2024-02-19_11h13.11.815,kallum_motion_pilot,2023.2.2,Win32,158.7301587,65a9b49e86480523ab92490f,65d2b6c8f2eece985d8e374c,65d2b918740075f26ae75fb2,0.0348,0.0348,1,22,184,52,1,threeone,,,,,,,,,,,,,,,,,,,,,,,,,,,,,,,,,,,,,,,,,,,,,,,,,,,,,,,,,,,,,,,,,,,,,,,,,,,,,,,,,,,,,,,,,,,,,,,,,,,,,,,,,,,,,,,,,,,,,,,,,,,,,,,,,,,,,,,,,
,,65a9b49e86480523ab92490f,2024-02-19_11h13.11.815,kallum_motion_pilot,2023.2.2,Win32,158.7301587,65a9b49e86480523ab92490f,65d2b6c8f2eece985d8e374c,65d2b918740075f26ae75fb2,0.0348,0.0349,1,23,185,120,1,fivesix,,,,,,,,,,,,,,,,,,,,,,,,,,,,,,,,,,,,,,,,,,,,,,,,,,,,,,,,,,,,,,,,,,,,,,,,,,,,,,,,,,,,,,,,,,,,,,,,,,,,,,,,,,,,,,,,,,,,,,,,,,,,,,,,,,,,,,,,,
,,65a9b49e86480523ab92490f,2024-02-19_11h13.11.815,kallum_motion_pilot,2023.2.2,Win32,158.7301587,65a9b49e86480523ab92490f,65d2b6c8f2eece985d8e374c,65d2b918740075f26ae75fb2,0.035,0.035,1,24,186,127,1,eightseven,,,,,,,,,,,,,,,,,,,,,,,,,,,,,,,,,,,,,,,,,,,,,,,,,,,,,,,,,,,,,,,,,,,,,,,,,,,,,,,,,,,,,,,,,,,,,,,,,,,,,,,,,,,,,,,,,,,,,,,,,,,,,,,,,,,,,,,,,
,,65a9b49e86480523ab92490f,2024-02-19_11h13.11.815,kallum_motion_pilot,2023.2.2,Win32,158.7301587,65a9b49e86480523ab92490f,65d2b6c8f2eece985d8e374c,65d2b918740075f26ae75fb2,0.0351,0.0351,1,25,187,154,1,sixfive,,,,,,,,,,,,,,,,,,,,,,,,,,,,,,,,,,,,,,,,,,,,,,,,,,,,,,,,,,,,,,,,,,,,,,,,,,,,,,,,,,,,,,,,,,,,,,,,,,,,,,,,,,,,,,,,,,,,,,,,,,,,,,,,,,,,,,,,,
,,65a9b49e86480523ab92490f,2024-02-19_11h13.11.815,kallum_motion_pilot,2023.2.2,Win32,158.7301587,65a9b49e86480523ab92490f,65d2b6c8f2eece985d8e374c,65d2b918740075f26ae75fb2,0.0352,0.0352,1,26,188,1,1,onethree,,,,,,,,,,,,,,,,,,,,,,,,,,,,,,,,,,,,,,,,,,,,,,,,,,,,,,,,,,,,,,,,,,,,,,,,,,,,,,,,,,,,,,,,,,,,,,,,,,,,,,,,,,,,,,,,,,,,,,,,,,,,,,,,,,,,,,,,,
,,65a9b49e86480523ab92490f,2024-02-19_11h13.11.815,kallum_motion_pilot,2023.2.2,Win32,158.7301587,65a9b49e86480523ab92490f,65d2b6c8f2eece985d8e374c,65d2b918740075f26ae75fb2,0.0353,0.0353,1,27,189,119,1,eightseven,,,,,,,,,,,,,,,,,,,,,,,,,,,,,,,,,,,,,,,,,,,,,,,,,,,,,,,,,,,,,,,,,,,,,,,,,,,,,,,,,,,,,,,,,,,,,,,,,,,,,,,,,,,,,,,,,,,,,,,,,,,,,,,,,,,,,,,,,
,,65a9b49e86480523ab92490f,2024-02-19_11h13.11.815,kallum_motion_pilot,2023.2.2,Win32,158.7301587,65a9b49e86480523ab92490f,65d2b6c8f2eece985d8e374c,65d2b918740075f26ae75fb2,0.0353,0.0355,1,28,190,31,1,fourthree,,,,,,,,,,,,,,,,,,,,,,,,,,,,,,,,,,,,,,,,,,,,,,,,,,,,,,,,,,,,,,,,,,,,,,,,,,,,,,,,,,,,,,,,,,,,,,,,,,,,,,,,,,,,,,,,,,,,,,,,,,,,,,,,,,,,,,,,,
,,65a9b49e86480523ab92490f,2024-02-19_11h13.11.815,kallum_motion_pilot,2023.2.2,Win32,158.7301587,65a9b49e86480523ab92490f,65d2b6c8f2eece985d8e374c,65d2b918740075f26ae75fb2,0.0355,0.0356,1,29,191,67,1,twofour,,,,,,,,,,,,,,,,,,,,,,,,,,,,,,,,,,,,,,,,,,,,,,,,,,,,,,,,,,,,,,,,,,,,,,,,,,,,,,,,,,,,,,,,,,,,,,,,,,,,,,,,,,,,,,,,,,,,,,,,,,,,,,,,,,,,,,,,,
,,65a9b49e86480523ab92490f,2024-02-19_11h13.11.815,kallum_motion_pilot,2023.2.2,Win32,158.7301587,65a9b49e86480523ab92490f,65d2b6c8f2eece985d8e374c,65d2b918740075f26ae75fb2,0.0356,0.0356,1,30,192,118,1,eightsix,,,,,,,,,,,,,,,,,,,,,,,,,,,,,,,,,,,,,,,,,,,,,,,,,,,,,,,,,,,,,,,,,,,,,,,,,,,,,,,,,,,,,,,,,,,,,,,,,,,,,,,,,,,,,,,,,,,,,,,,,,,,,,,,,,,,,,,,,
,,65a9b49e86480523ab92490f,2024-02-19_11h13.11.815,kallum_motion_pilot,2023.2.2,Win32,158.7301587,65a9b49e86480523ab92490f,65d2b6c8f2eece985d8e374c,65d2b918740075f26ae75fb2,0.0357,0.0357,1,31,193,29,1,threefour,,,,,,,,,,,,,,,,,,,,,,,,,,,,,,,,,,,,,,,,,,,,,,,,,,,,,,,,,,,,,,,,,,,,,,,,,,,,,,,,,,,,,,,,,,,,,,,,,,,,,,,,,,,,,,,,,,,,,,,,,,,,,,,,,,,,,,,,,
,,65a9b49e86480523ab92490f,2024-02-19_11h13.11.815,kallum_motion_pilot,2023.2.2,Win32,158.7301587,65a9b49e86480523ab92490f,65d2b6c8f2eece985d8e374c,65d2b918740075f26ae75fb2,0.0357,0.0358,1,32,194,102,1,eightsix,,,,,,,,,,,,,,,,,,,,,,,,,,,,,,,,,,,,,,,,,,,,,,,,,,,,,,,,,,,,,,,,,,,,,,,,,,,,,,,,,,,,,,,,,,,,,,,,,,,,,,,,,,,,,,,,,,,,,,,,,,,,,,,,,,,,,,,,,
,,65a9b49e86480523ab92490f,2024-02-19_11h13.11.815,kallum_motion_pilot,2023.2.2,Win32,158.7301587,65a9b49e86480523ab92490f,65d2b6c8f2eece985d8e374c,65d2b918740075f26ae75fb2,0.0358,0.0359,1,33,195,113,1,fiveseven,,,,,,,,,,,,,,,,,,,,,,,,,,,,,,,,,,,,,,,,,,,,,,,,,,,,,,,,,,,,,,,,,,,,,,,,,,,,,,,,,,,,,,,,,,,,,,,,,,,,,,,,,,,,,,,,,,,,,,,,,,,,,,,,,,,,,,,,,
,,65a9b49e86480523ab92490f,2024-02-19_11h13.11.815,kallum_motion_pilot,2023.2.2,Win32,158.7301587,65a9b49e86480523ab92490f,65d2b6c8f2eece985d8e374c,65d2b918740075f26ae75fb2,0.036,0.036,1,34,196,13,1,threefour,,,,,,,,,,,,,,,,,,,,,,,,,,,,,,,,,,,,,,,,,,,,,,,,,,,,,,,,,,,,,,,,,,,,,,,,,,,,,,,,,,,,,,,,,,,,,,,,,,,,,,,,,,,,,,,,,,,,,,,,,,,,,,,,,,,,,,,,,
,,65a9b49e86480523ab92490f,2024-02-19_11h13.11.815,kallum_motion_pilot,2023.2.2,Win32,158.7301587,65a9b49e86480523ab92490f,65d2b6c8f2eece985d8e374c,65d2b918740075f26ae75fb2,0.036,0.0361,1,35,197,27,1,twofour,,,,,,,,,,,,,,,,,,,,,,,,,,,,,,,,,,,,,,,,,,,,,,,,,,,,,,,,,,,,,,,,,,,,,,,,,,,,,,,,,,,,,,,,,,,,,,,,,,,,,,,,,,,,,,,,,,,,,,,,,,,,,,,,,,,,,,,,,
,,65a9b49e86480523ab92490f,2024-02-19_11h13.11.815,kallum_motion_pilot,2023.2.2,Win32,158.7301587,65a9b49e86480523ab92490f,65d2b6c8f2eece985d8e374c,65d2b918740075f26ae75fb2,0.0361,0.0362,1,36,198,42,1,twoone,,,,,,,,,,,,,,,,,,,,,,,,,,,,,,,,,,,,,,,,,,,,,,,,,,,,,,,,,,,,,,,,,,,,,,,,,,,,,,,,,,,,,,,,,,,,,,,,,,,,,,,,,,,,,,,,,,,,,,,,,,,,,,,,,,,,,,,,,
,,65a9b49e86480523ab92490f,2024-02-19_11h13.11.815,kallum_motion_pilot,2023.2.2,Win32,158.7301587,65a9b49e86480523ab92490f,65d2b6c8f2eece985d8e374c,65d2b918740075f26ae75fb2,0.0363,0.0363,1,37,199,148,1,sevenfive,,,,,,,,,,,,,,,,,,,,,,,,,,,,,,,,,,,,,,,,,,,,,,,,,,,,,,,,,,,,,,,,,,,,,,,,,,,,,,,,,,,,,,,,,,,,,,,,,,,,,,,,,,,,,,,,,,,,,,,,,,,,,,,,,,,,,,,,,
,,65a9b49e86480523ab92490f,2024-02-19_11h13.11.815,kallum_motion_pilot,2023.2.2,Win32,158.7301587,65a9b49e86480523ab92490f,65d2b6c8f2eece985d8e374c,65d2b918740075f26ae75fb2,0.0364,0.0364,1,38,200,152,1,fivesix,,,,,,,,,,,,,,,,,,,,,,,,,,,,,,,,,,,,,,,,,,,,,,,,,,,,,,,,,,,,,,,,,,,,,,,,,,,,,,,,,,,,,,,,,,,,,,,,,,,,,,,,,,,,,,,,,,,,,,,,,,,,,,,,,,,,,,,,,
,,65a9b49e86480523ab92490f,2024-02-19_11h13.11.815,kallum_motion_pilot,2023.2.2,Win32,158.7301587,65a9b49e86480523ab92490f,65d2b6c8f2eece985d8e374c,65d2b918740075f26ae75fb2,0.0364,0.0365,1,39,201,144,1,fivesix,,,,,,,,,,,,,,,,,,,,,,,,,,,,,,,,,,,,,,,,,,,,,,,,,,,,,,,,,,,,,,,,,,,,,,,,,,,,,,,,,,,,,,,,,,,,,,,,,,,,,,,,,,,,,,,,,,,,,,,,,,,,,,,,,,,,,,,,,
,,65a9b49e86480523ab92490f,2024-02-19_11h13.11.815,kallum_motion_pilot,2023.2.2,Win32,158.7301587,65a9b49e86480523ab92490f,65d2b6c8f2eece985d8e374c,65d2b918740075f26ae75fb2,0.0366,0.0366,1,40,202,142,1,eightsix,,,,,,,,,,,,,,,,,,,,,,,,,,,,,,,,,,,,,,,,,,,,,,,,,,,,,,,,,,,,,,,,,,,,,,,,,,,,,,,,,,,,,,,,,,,,,,,,,,,,,,,,,,,,,,,,,,,,,,,,,,,,,,,,,,,,,,,,,
,,65a9b49e86480523ab92490f,2024-02-19_11h13.11.815,kallum_motion_pilot,2023.2.2,Win32,158.7301587,65a9b49e86480523ab92490f,65d2b6c8f2eece985d8e374c,65d2b918740075f26ae75fb2,0.0366,0.0367,1,41,203,158,1,eightsix,,,,,,,,,,,,,,,,,,,,,,,,,,,,,,,,,,,,,,,,,,,,,,,,,,,,,,,,,,,,,,,,,,,,,,,,,,,,,,,,,,,,,,,,,,,,,,,,,,,,,,,,,,,,,,,,,,,,,,,,,,,,,,,,,,,,,,,,,
,,65a9b49e86480523ab92490f,2024-02-19_11h13.11.815,kallum_motion_pilot,2023.2.2,Win32,158.7301587,65a9b49e86480523ab92490f,65d2b6c8f2eece985d8e374c,65d2b918740075f26ae75fb2,0.0367,0.0368,1,42,204,135,1,eightseven,,,,,,,,,,,,,,,,,,,,,,,,,,,,,,,,,,,,,,,,,,,,,,,,,,,,,,,,,,,,,,,,,,,,,,,,,,,,,,,,,,,,,,,,,,,,,,,,,,,,,,,,,,,,,,,,,,,,,,,,,,,,,,,,,,,,,,,,,
,,65a9b49e86480523ab92490f,2024-02-19_11h13.11.815,kallum_motion_pilot,2023.2.2,Win32,158.7301587,65a9b49e86480523ab92490f,65d2b6c8f2eece985d8e374c,65d2b918740075f26ae75fb2,0.0368,0.0369,1,43,205,34,1,twoone,,,,,,,,,,,,,,,,,,,,,,,,,,,,,,,,,,,,,,,,,,,,,,,,,,,,,,,,,,,,,,,,,,,,,,,,,,,,,,,,,,,,,,,,,,,,,,,,,,,,,,,,,,,,,,,,,,,,,,,,,,,,,,,,,,,,,,,,,
,,65a9b49e86480523ab92490f,2024-02-19_11h13.11.815,kallum_motion_pilot,2023.2.2,Win32,158.7301587,65a9b49e86480523ab92490f,65d2b6c8f2eece985d8e374c,65d2b918740075f26ae75fb2,0.0369,0.037,1,44,206,130,1,sixfive,,,,,,,,,,,,,,,,,,,,,,,,,,,,,,,,,,,,,,,,,,,,,,,,,,,,,,,,,,,,,,,,,,,,,,,,,,,,,,,,,,,,,,,,,,,,,,,,,,,,,,,,,,,,,,,,,,,,,,,,,,,,,,,,,,,,,,,,,
,,65a9b49e86480523ab92490f,2024-02-19_11h13.11.815,kallum_motion_pilot,2023.2.2,Win32,158.7301587,65a9b49e86480523ab92490f,65d2b6c8f2eece985d8e374c,65d2b918740075f26ae75fb2,0.0371,0.0371,1,45,207,116,1,sevenfive,,,,,,,,,,,,,,,,,,,,,,,,,,,,,,,,,,,,,,,,,,,,,,,,,,,,,,,,,,,,,,,,,,,,,,,,,,,,,,,,,,,,,,,,,,,,,,,,,,,,,,,,,,,,,,,,,,,,,,,,,,,,,,,,,,,,,,,,,
,,65a9b49e86480523ab92490f,2024-02-19_11h13.11.815,kallum_motion_pilot,2023.2.2,Win32,158.7301587,65a9b49e86480523ab92490f,65d2b6c8f2eece985d8e374c,65d2b918740075f26ae75fb2,0.0372,0.0372,1,46,208,12,1,threeone,,,,,,,,,,,,,,,,,,,,,,,,,,,,,,,,,,,,,,,,,,,,,,,,,,,,,,,,,,,,,,,,,,,,,,,,,,,,,,,,,,,,,,,,,,,,,,,,,,,,,,,,,,,,,,,,,,,,,,,,,,,,,,,,,,,,,,,,,
,,65a9b49e86480523ab92490f,2024-02-19_11h13.11.815,kallum_motion_pilot,2023.2.2,Win32,158.7301587,65a9b49e86480523ab92490f,65d2b6c8f2eece985d8e374c,65d2b918740075f26ae75fb2,0.0372,0.0373,1,47,209,49,1,onethree,,,,,,,,,,,,,,,,,,,,,,,,,,,,,,,,,,,,,,,,,,,,,,,,,,,,,,,,,,,,,,,,,,,,,,,,,,,,,,,,,,,,,,,,,,,,,,,,,,,,,,,,,,,,,,,,,,,,,,,,,,,,,,,,,,,,,,,,,
,,65a9b49e86480523ab92490f,2024-02-19_11h13.11.815,kallum_motion_pilot,2023.2.2,Win32,158.7301587,65a9b49e86480523ab92490f,65d2b6c8f2eece985d8e374c,65d2b918740075f26ae75fb2,0.0373,0.0374,1,48,210,14,1,fourtwo,,,,,,,,,,,,,,,,,,,,,,,,,,,,,,,,,,,,,,,,,,,,,,,,,,,,,,,,,,,,,,,,,,,,,,,,,,,,,,,,,,,,,,,,,,,,,,,,,,,,,,,,,,,,,,,,,,,,,,,,,,,,,,,,,,,,,,,,,
,,65a9b49e86480523ab92490f,2024-02-19_11h13.11.815,kallum_motion_pilot,2023.2.2,Win32,158.7301587,65a9b49e86480523ab92490f,65d2b6c8f2eece985d8e374c,65d2b918740075f26ae75fb2,0.0374,0.0375,1,49,211,0,1,onetwo,,,,,,,,,,,,,,,,,,,,,,,,,,,,,,,,,,,,,,,,,,,,,,,,,,,,,,,,,,,,,,,,,,,,,,,,,,,,,,,,,,,,,,,,,,,,,,,,,,,,,,,,,,,,,,,,,,,,,,,,,,,,,,,,,,,,,,,,,
,,65a9b49e86480523ab92490f,2024-02-19_11h13.11.815,kallum_motion_pilot,2023.2.2,Win32,158.7301587,65a9b49e86480523ab92490f,65d2b6c8f2eece985d8e374c,65d2b918740075f26ae75fb2,0.0375,0.0376,1,50,212,92,1,sevenfive,,,,,,,,,,,,,,,,,,,,,,,,,,,,,,,,,,,,,,,,,,,,,,,,,,,,,,,,,,,,,,,,,,,,,,,,,,,,,,,,,,,,,,,,,,,,,,,,,,,,,,,,,,,,,,,,,,,,,,,,,,,,,,,,,,,,,,,,,
,,65a9b49e86480523ab92490f,2024-02-19_11h13.11.815,kallum_motion_pilot,2023.2.2,Win32,158.7301587,65a9b49e86480523ab92490f,65d2b6c8f2eece985d8e374c,65d2b918740075f26ae75fb2,0.0376,0.0377,1,51,213,80,1,fivesix,,,,,,,,,,,,,,,,,,,,,,,,,,,,,,,,,,,,,,,,,,,,,,,,,,,,,,,,,,,,,,,,,,,,,,,,,,,,,,,,,,,,,,,,,,,,,,,,,,,,,,,,,,,,,,,,,,,,,,,,,,,,,,,,,,,,,,,,,
,,65a9b49e86480523ab92490f,2024-02-19_11h13.11.815,kallum_motion_pilot,2023.2.2,Win32,158.7301587,65a9b49e86480523ab92490f,65d2b6c8f2eece985d8e374c,65d2b918740075f26ae75fb2,0.0379,0.038,1,52,214,122,1,sixfive,,,,,,,,,,,,,,,,,,,,,,,,,,,,,,,,,,,,,,,,,,,,,,,,,,,,,,,,,,,,,,,,,,,,,,,,,,,,,,,,,,,,,,,,,,,,,,,,,,,,,,,,,,,,,,,,,,,,,,,,,,,,,,,,,,,,,,,,,
,,65a9b49e86480523ab92490f,2024-02-19_11h13.11.815,kallum_motion_pilot,2023.2.2,Win32,158.7301587,65a9b49e86480523ab92490f,65d2b6c8f2eece985d8e374c,65d2b918740075f26ae75fb2,0.0381,0.0383,1,53,215,86,1,eightsix,,,,,,,,,,,,,,,,,,,,,,,,,,,,,,,,,,,,,,,,,,,,,,,,,,,,,,,,,,,,,,,,,,,,,,,,,,,,,,,,,,,,,,,,,,,,,,,,,,,,,,,,,,,,,,,,,,,,,,,,,,,,,,,,,,,,,,,,,
,,65a9b49e86480523ab92490f,2024-02-19_11h13.11.815,kallum_motion_pilot,2023.2.2,Win32,158.7301587,65a9b49e86480523ab92490f,65d2b6c8f2eece985d8e374c,65d2b918740075f26ae75fb2,0.0383,0.0384,1,54,216,59,1,twofour,,,,,,,,,,,,,,,,,,,,,,,,,,,,,,,,,,,,,,,,,,,,,,,,,,,,,,,,,,,,,,,,,,,,,,,,,,,,,,,,,,,,,,,,,,,,,,,,,,,,,,,,,,,,,,,,,,,,,,,,,,,,,,,,,,,,,,,,,
,,65a9b49e86480523ab92490f,2024-02-19_11h13.11.815,kallum_motion_pilot,2023.2.2,Win32,158.7301587,65a9b49e86480523ab92490f,65d2b6c8f2eece985d8e374c,65d2b918740075f26ae75fb2,0.0384,0.0385,1,55,217,74,1,twoone,,,,,,,,,,,,,,,,,,,,,,,,,,,,,,,,,,,,,,,,,,,,,,,,,,,,,,,,,,,,,,,,,,,,,,,,,,,,,,,,,,,,,,,,,,,,,,,,,,,,,,,,,,,,,,,,,,,,,,,,,,,,,,,,,,,,,,,,,
,,65a9b49e86480523ab92490f,2024-02-19_11h13.11.815,kallum_motion_pilot,2023.2.2,Win32,158.7301587,65a9b49e86480523ab92490f,65d2b6c8f2eece985d8e374c,65d2b918740075f26ae75fb2,0.0385,0.0386,1,56,218,111,1,eightseven,,,,,,,,,,,,,,,,,,,,,,,,,,,,,,,,,,,,,,,,,,,,,,,,,,,,,,,,,,,,,,,,,,,,,,,,,,,,,,,,,,,,,,,,,,,,,,,,,,,,,,,,,,,,,,,,,,,,,,,,,,,,,,,,,,,,,,,,,
,,65a9b49e86480523ab92490f,2024-02-19_11h13.11.815,kallum_motion_pilot,2023.2.2,Win32,158.7301587,65a9b49e86480523ab92490f,65d2b6c8f2eece985d8e374c,65d2b918740075f26ae75fb2,0.0386,0.0387,1,57,219,73,1,onethree,,,,,,,,,,,,,,,,,,,,,,,,,,,,,,,,,,,,,,,,,,,,,,,,,,,,,,,,,,,,,,,,,,,,,,,,,,,,,,,,,,,,,,,,,,,,,,,,,,,,,,,,,,,,,,,,,,,,,,,,,,,,,,,,,,,,,,,,,
,,65a9b49e86480523ab92490f,2024-02-19_11h13.11.815,kallum_motion_pilot,2023.2.2,Win32,158.7301587,65a9b49e86480523ab92490f,65d2b6c8f2eece985d8e374c,65d2b918740075f26ae75fb2,0.0387,0.0388,1,58,220,131,1,sixeight,,,,,,,,,,,,,,,,,,,,,,,,,,,,,,,,,,,,,,,,,,,,,,,,,,,,,,,,,,,,,,,,,,,,,,,,,,,,,,,,,,,,,,,,,,,,,,,,,,,,,,,,,,,,,,,,,,,,,,,,,,,,,,,,,,,,,,,,,
,,65a9b49e86480523ab92490f,2024-02-19_11h13.11.815,kallum_motion_pilot,2023.2.2,Win32,158.7301587,65a9b49e86480523ab92490f,65d2b6c8f2eece985d8e374c,65d2b918740075f26ae75fb2,0.0389,0.039,1,59,221,124,1,sevenfive,,,,,,,,,,,,,,,,,,,,,,,,,,,,,,,,,,,,,,,,,,,,,,,,,,,,,,,,,,,,,,,,,,,,,,,,,,,,,,,,,,,,,,,,,,,,,,,,,,,,,,,,,,,,,,,,,,,,,,,,,,,,,,,,,,,,,,,,,
,,65a9b49e86480523ab92490f,2024-02-19_11h13.11.815,kallum_motion_pilot,2023.2.2,Win32,158.7301587,65a9b49e86480523ab92490f,65d2b6c8f2eece985d8e374c,65d2b918740075f26ae75fb2,0.039,0.039,1,60,222,56,1,onetwo,,,,,,,,,,,,,,,,,,,,,,,,,,,,,,,,,,,,,,,,,,,,,,,,,,,,,,,,,,,,,,,,,,,,,,,,,,,,,,,,,,,,,,,,,,,,,,,,,,,,,,,,,,,,,,,,,,,,,,,,,,,,,,,,,,,,,,,,,
,,65a9b49e86480523ab92490f,2024-02-19_11h13.11.815,kallum_motion_pilot,2023.2.2,Win32,158.7301587,65a9b49e86480523ab92490f,65d2b6c8f2eece985d8e374c,65d2b918740075f26ae75fb2,0.0391,0.0391,1,61,223,100,1,sevenfive,,,,,,,,,,,,,,,,,,,,,,,,,,,,,,,,,,,,,,,,,,,,,,,,,,,,,,,,,,,,,,,,,,,,,,,,,,,,,,,,,,,,,,,,,,,,,,,,,,,,,,,,,,,,,,,,,,,,,,,,,,,,,,,,,,,,,,,,,
,,65a9b49e86480523ab92490f,2024-02-19_11h13.11.815,kallum_motion_pilot,2023.2.2,Win32,158.7301587,65a9b49e86480523ab92490f,65d2b6c8f2eece985d8e374c,65d2b918740075f26ae75fb2,0.0392,0.0392,1,62,224,5,1,threefour,,,,,,,,,,,,,,,,,,,,,,,,,,,,,,,,,,,,,,,,,,,,,,,,,,,,,,,,,,,,,,,,,,,,,,,,,,,,,,,,,,,,,,,,,,,,,,,,,,,,,,,,,,,,,,,,,,,,,,,,,,,,,,,,,,,,,,,,,
,,65a9b49e86480523ab92490f,2024-02-19_11h13.11.815,kallum_motion_pilot,2023.2.2,Win32,158.7301587,65a9b49e86480523ab92490f,65d2b6c8f2eece985d8e374c,65d2b918740075f26ae75fb2,0.0392,0.0394,1,63,225,101,1,seveneight,,,,,,,,,,,,,,,,,,,,,,,,,,,,,,,,,,,,,,,,,,,,,,,,,,,,,,,,,,,,,,,,,,,,,,,,,,,,,,,,,,,,,,,,,,,,,,,,,,,,,,,,,,,,,,,,,,,,,,,,,,,,,,,,,,,,,,,,,
,,65a9b49e86480523ab92490f,2024-02-19_11h13.11.815,kallum_motion_pilot,2023.2.2,Win32,158.7301587,65a9b49e86480523ab92490f,65d2b6c8f2eece985d8e374c,65d2b918740075f26ae75fb2,0.0394,0.0394,1,64,226,98,1,sixfive,,,,,,,,,,,,,,,,,,,,,,,,,,,,,,,,,,,,,,,,,,,,,,,,,,,,,,,,,,,,,,,,,,,,,,,,,,,,,,,,,,,,,,,,,,,,,,,,,,,,,,,,,,,,,,,,,,,,,,,,,,,,,,,,,,,,,,,,,
,,65a9b49e86480523ab92490f,2024-02-19_11h13.11.815,kallum_motion_pilot,2023.2.2,Win32,158.7301587,65a9b49e86480523ab92490f,65d2b6c8f2eece985d8e374c,65d2b918740075f26ae75fb2,0.0394,0.0395,1,65,227,105,1,fiveseven,,,,,,,,,,,,,,,,,,,,,,,,,,,,,,,,,,,,,,,,,,,,,,,,,,,,,,,,,,,,,,,,,,,,,,,,,,,,,,,,,,,,,,,,,,,,,,,,,,,,,,,,,,,,,,,,,,,,,,,,,,,,,,,,,,,,,,,,,
,,65a9b49e86480523ab92490f,2024-02-19_11h13.11.815,kallum_motion_pilot,2023.2.2,Win32,158.7301587,65a9b49e86480523ab92490f,65d2b6c8f2eece985d8e374c,65d2b918740075f26ae75fb2,0.0395,0.0397,1,66,228,88,1,fivesix,,,,,,,,,,,,,,,,,,,,,,,,,,,,,,,,,,,,,,,,,,,,,,,,,,,,,,,,,,,,,,,,,,,,,,,,,,,,,,,,,,,,,,,,,,,,,,,,,,,,,,,,,,,,,,,,,,,,,,,,,,,,,,,,,,,,,,,,,
,,65a9b49e86480523ab92490f,2024-02-19_11h13.11.815,kallum_motion_pilot,2023.2.2,Win32,158.7301587,65a9b49e86480523ab92490f,65d2b6c8f2eece985d8e374c,65d2b918740075f26ae75fb2,0.0397,0.0397,1,67,229,129,1,fiveseven,,,,,,,,,,,,,,,,,,,,,,,,,,,,,,,,,,,,,,,,,,,,,,,,,,,,,,,,,,,,,,,,,,,,,,,,,,,,,,,,,,,,,,,,,,,,,,,,,,,,,,,,,,,,,,,,,,,,,,,,,,,,,,,,,,,,,,,,,
,,65a9b49e86480523ab92490f,2024-02-19_11h13.11.815,kallum_motion_pilot,2023.2.2,Win32,158.7301587,65a9b49e86480523ab92490f,65d2b6c8f2eece985d8e374c,65d2b918740075f26ae75fb2,0.0398,0.0398,1,68,230,99,1,sixeight,,,,,,,,,,,,,,,,,,,,,,,,,,,,,,,,,,,,,,,,,,,,,,,,,,,,,,,,,,,,,,,,,,,,,,,,,,,,,,,,,,,,,,,,,,,,,,,,,,,,,,,,,,,,,,,,,,,,,,,,,,,,,,,,,,,,,,,,,
,,65a9b49e86480523ab92490f,2024-02-19_11h13.11.815,kallum_motion_pilot,2023.2.2,Win32,158.7301587,65a9b49e86480523ab92490f,65d2b6c8f2eece985d8e374c,65d2b918740075f26ae75fb2,0.0399,0.0399,1,69,231,155,1,sixeight,,,,,,,,,,,,,,,,,,,,,,,,,,,,,,,,,,,,,,,,,,,,,,,,,,,,,,,,,,,,,,,,,,,,,,,,,,,,,,,,,,,,,,,,,,,,,,,,,,,,,,,,,,,,,,,,,,,,,,,,,,,,,,,,,,,,,,,,,
,,65a9b49e86480523ab92490f,2024-02-19_11h13.11.815,kallum_motion_pilot,2023.2.2,Win32,158.7301587,65a9b49e86480523ab92490f,65d2b6c8f2eece985d8e374c,65d2b918740075f26ae75fb2,0.0399,0.04,1,70,232,159,1,eightseven,,,,,,,,,,,,,,,,,,,,,,,,,,,,,,,,,,,,,,,,,,,,,,,,,,,,,,,,,,,,,,,,,,,,,,,,,,,,,,,,,,,,,,,,,,,,,,,,,,,,,,,,,,,,,,,,,,,,,,,,,,,,,,,,,,,,,,,,,
,,65a9b49e86480523ab92490f,2024-02-19_11h13.11.815,kallum_motion_pilot,2023.2.2,Win32,158.7301587,65a9b49e86480523ab92490f,65d2b6c8f2eece985d8e374c,65d2b918740075f26ae75fb2,0.0401,0.0402,1,71,233,112,1,fivesix,,,,,,,,,,,,,,,,,,,,,,,,,,,,,,,,,,,,,,,,,,,,,,,,,,,,,,,,,,,,,,,,,,,,,,,,,,,,,,,,,,,,,,,,,,,,,,,,,,,,,,,,,,,,,,,,,,,,,,,,,,,,,,,,,,,,,,,,,
,,65a9b49e86480523ab92490f,2024-02-19_11h13.11.815,kallum_motion_pilot,2023.2.2,Win32,158.7301587,65a9b49e86480523ab92490f,65d2b6c8f2eece985d8e374c,65d2b918740075f26ae75fb2,0.0402,0.0403,1,72,234,66,1,twoone,,,,,,,,,,,,,,,,,,,,,,,,,,,,,,,,,,,,,,,,,,,,,,,,,,,,,,,,,,,,,,,,,,,,,,,,,,,,,,,,,,,,,,,,,,,,,,,,,,,,,,,,,,,,,,,,,,,,,,,,,,,,,,,,,,,,,,,,,
,,65a9b49e86480523ab92490f,2024-02-19_11h13.11.815,kallum_motion_pilot,2023.2.2,Win32,158.7301587,65a9b49e86480523ab92490f,65d2b6c8f2eece985d8e374c,65d2b918740075f26ae75fb2,0.0403,0.0403,1,73,235,50,1,twoone,,,,,,,,,,,,,,,,,,,,,,,,,,,,,,,,,,,,,,,,,,,,,,,,,,,,,,,,,,,,,,,,,,,,,,,,,,,,,,,,,,,,,,,,,,,,,,,,,,,,,,,,,,,,,,,,,,,,,,,,,,,,,,,,,,,,,,,,,
,,65a9b49e86480523ab92490f,2024-02-19_11h13.11.815,kallum_motion_pilot,2023.2.2,Win32,158.7301587,65a9b49e86480523ab92490f,65d2b6c8f2eece985d8e374c,65d2b918740075f26ae75fb2,0.0404,0.0404,1,74,236,123,1,sixeight,,,,,,,,,,,,,,,,,,,,,,,,,,,,,,,,,,,,,,,,,,,,,,,,,,,,,,,,,,,,,,,,,,,,,,,,,,,,,,,,,,,,,,,,,,,,,,,,,,,,,,,,,,,,,,,,,,,,,,,,,,,,,,,,,,,,,,,,,
,,65a9b49e86480523ab92490f,2024-02-19_11h13.11.815,kallum_motion_pilot,2023.2.2,Win32,158.7301587,65a9b49e86480523ab92490f,65d2b6c8f2eece985d8e374c,65d2b918740075f26ae75fb2,0.0405,0.0406,1,75,237,41,1,onethree,,,,,,,,,,,,,,,,,,,,,,,,,,,,,,,,,,,,,,,,,,,,,,,,,,,,,,,,,,,,,,,,,,,,,,,,,,,,,,,,,,,,,,,,,,,,,,,,,,,,,,,,,,,,,,,,,,,,,,,,,,,,,,,,,,,,,,,,,
,,65a9b49e86480523ab92490f,2024-02-19_11h13.11.815,kallum_motion_pilot,2023.2.2,Win32,158.7301587,65a9b49e86480523ab92490f,65d2b6c8f2eece985d8e374c,65d2b918740075f26ae75fb2,0.0406,0.0407,1,76,238,136,1,fivesix,,,,,,,,,,,,,,,,,,,,,,,,,,,,,,,,,,,,,,,,,,,,,,,,,,,,,,,,,,,,,,,,,,,,,,,,,,,,,,,,,,,,,,,,,,,,,,,,,,,,,,,,,,,,,,,,,,,,,,,,,,,,,,,,,,,,,,,,,
,,65a9b49e86480523ab92490f,2024-02-19_11h13.11.815,kallum_motion_pilot,2023.2.2,Win32,158.7301587,65a9b49e86480523ab92490f,65d2b6c8f2eece985d8e374c,65d2b918740075f26ae75fb2,0.0407,0.0407,1,77,239,153,1,fiveseven,,,,,,,,,,,,,,,,,,,,,,,,,,,,,,,,,,,,,,,,,,,,,,,,,,,,,,,,,,,,,,,,,,,,,,,,,,,,,,,,,,,,,,,,,,,,,,,,,,,,,,,,,,,,,,,,,,,,,,,,,,,,,,,,,,,,,,,,,
,,65a9b49e86480523ab92490f,2024-02-19_11h13.11.815,kallum_motion_pilot,2023.2.2,Win32,158.7301587,65a9b49e86480523ab92490f,65d2b6c8f2eece985d8e374c,65d2b918740075f26ae75fb2,0.0408,0.0408,1,78,240,28,1,threeone,,,,,,,,,,,,,,,,,,,,,,,,,,,,,,,,,,,,,,,,,,,,,,,,,,,,,,,,,,,,,,,,,,,,,,,,,,,,,,,,,,,,,,,,,,,,,,,,,,,,,,,,,,,,,,,,,,,,,,,,,,,,,,,,,,,,,,,,,
,,65a9b49e86480523ab92490f,2024-02-19_11h13.11.815,kallum_motion_pilot,2023.2.2,Win32,158.7301587,65a9b49e86480523ab92490f,65d2b6c8f2eece985d8e374c,65d2b918740075f26ae75fb2,0.0409,0.0409,1,79,241,95,1,eightseven,,,,,,,,,,,,,,,,,,,,,,,,,,,,,,,,,,,,,,,,,,,,,,,,,,,,,,,,,,,,,,,,,,,,,,,,,,,,,,,,,,,,,,,,,,,,,,,,,,,,,,,,,,,,,,,,,,,,,,,,,,,,,,,,,,,,,,,,,
,,65a9b49e86480523ab92490f,2024-02-19_11h13.11.815,kallum_motion_pilot,2023.2.2,Win32,158.7301587,65a9b49e86480523ab92490f,65d2b6c8f2eece985d8e374c,65d2b918740075f26ae75fb2,0.041,0.0411,1,80,242,26,1,twoone,,,,,,,,,,,,,,,,,,,,,,,,,,,,,,,,,,,,,,,,,,,,,,,,,,,,,,,,,,,,,,,,,,,,,,,,,,,,,,,,,,,,,,,,,,,,,,,,,,,,,,,,,,,,,,,,,,,,,,,,,,,,,,,,,,,,,,,,,
,,65a9b49e86480523ab92490f,2024-02-19_11h13.11.815,kallum_motion_pilot,2023.2.2,Win32,158.7301587,65a9b49e86480523ab92490f,65d2b6c8f2eece985d8e374c,65d2b918740075f26ae75fb2,0.0411,0.0411,1,81,243,21,1,threefour,,,,,,,,,,,,,,,,,,,,,,,,,,,,,,,,,,,,,,,,,,,,,,,,,,,,,,,,,,,,,,,,,,,,,,,,,,,,,,,,,,,,,,,,,,,,,,,,,,,,,,,,,,,,,,,,,,,,,,,,,,,,,,,,,,,,,,,,,
,,65a9b49e86480523ab92490f,2024-02-19_11h13.11.815,kallum_motion_pilot,2023.2.2,Win32,158.7301587,65a9b49e86480523ab92490f,65d2b6c8f2eece985d8e374c,65d2b918740075f26ae75fb2,0.0412,0.0412,1,82,244,78,1,fourtwo,,,,,,,,,,,,,,,,,,,,,,,,,,,,,,,,,,,,,,,,,,,,,,,,,,,,,,,,,,,,,,,,,,,,,,,,,,,,,,,,,,,,,,,,,,,,,,,,,,,,,,,,,,,,,,,,,,,,,,,,,,,,,,,,,,,,,,,,,
,,65a9b49e86480523ab92490f,2024-02-19_11h13.11.815,kallum_motion_pilot,2023.2.2,Win32,158.7301587,65a9b49e86480523ab92490f,65d2b6c8f2eece985d8e374c,65d2b918740075f26ae75fb2,0.0413,0.0413,1,83,245,151,1,eightseven,,,,,,,,,,,,,,,,,,,,,,,,,,,,,,,,,,,,,,,,,,,,,,,,,,,,,,,,,,,,,,,,,,,,,,,,,,,,,,,,,,,,,,,,,,,,,,,,,,,,,,,,,,,,,,,,,,,,,,,,,,,,,,,,,,,,,,,,,
,,65a9b49e86480523ab92490f,2024-02-19_11h13.11.815,kallum_motion_pilot,2023.2.2,Win32,158.7301587,65a9b49e86480523ab92490f,65d2b6c8f2eece985d8e374c,65d2b918740075f26ae75fb2,0.0414,0.0414,1,84,246,51,1,twofour,,,,,,,,,,,,,,,,,,,,,,,,,,,,,,,,,,,,,,,,,,,,,,,,,,,,,,,,,,,,,,,,,,,,,,,,,,,,,,,,,,,,,,,,,,,,,,,,,,,,,,,,,,,,,,,,,,,,,,,,,,,,,,,,,,,,,,,,,
,,65a9b49e86480523ab92490f,2024-02-19_11h13.11.815,kallum_motion_pilot,2023.2.2,Win32,158.7301587,65a9b49e86480523ab92490f,65d2b6c8f2eece985d8e374c,65d2b918740075f26ae75fb2,0.0415,0.0416,1,85,247,62,1,fourtwo,,,,,,,,,,,,,,,,,,,,,,,,,,,,,,,,,,,,,,,,,,,,,,,,,,,,,,,,,,,,,,,,,,,,,,,,,,,,,,,,,,,,,,,,,,,,,,,,,,,,,,,,,,,,,,,,,,,,,,,,,,,,,,,,,,,,,,,,,
,,65a9b49e86480523ab92490f,2024-02-19_11h13.11.815,kallum_motion_pilot,2023.2.2,Win32,158.7301587,65a9b49e86480523ab92490f,65d2b6c8f2eece985d8e374c,65d2b918740075f26ae75fb2,0.0416,0.0417,1,86,248,22,1,fourtwo,,,,,,,,,,,,,,,,,,,,,,,,,,,,,,,,,,,,,,,,,,,,,,,,,,,,,,,,,,,,,,,,,,,,,,,,,,,,,,,,,,,,,,,,,,,,,,,,,,,,,,,,,,,,,,,,,,,,,,,,,,,,,,,,,,,,,,,,,
,,65a9b49e86480523ab92490f,2024-02-19_11h13.11.815,kallum_motion_pilot,2023.2.2,Win32,158.7301587,65a9b49e86480523ab92490f,65d2b6c8f2eece985d8e374c,65d2b918740075f26ae75fb2,0.0417,0.0418,1,87,249,53,1,threefour,,,,,,,,,,,,,,,,,,,,,,,,,,,,,,,,,,,,,,,,,,,,,,,,,,,,,,,,,,,,,,,,,,,,,,,,,,,,,,,,,,,,,,,,,,,,,,,,,,,,,,,,,,,,,,,,,,,,,,,,,,,,,,,,,,,,,,,,,
,,65a9b49e86480523ab92490f,2024-02-19_11h13.11.815,kallum_motion_pilot,2023.2.2,Win32,158.7301587,65a9b49e86480523ab92490f,65d2b6c8f2eece985d8e374c,65d2b918740075f26ae75fb2,0.0419,0.0419,1,88,250,33,1,onethree,,,,,,,,,,,,,,,,,,,,,,,,,,,,,,,,,,,,,,,,,,,,,,,,,,,,,,,,,,,,,,,,,,,,,,,,,,,,,,,,,,,,,,,,,,,,,,,,,,,,,,,,,,,,,,,,,,,,,,,,,,,,,,,,,,,,,,,,,
,,65a9b49e86480523ab92490f,2024-02-19_11h13.11.815,kallum_motion_pilot,2023.2.2,Win32,158.7301587,65a9b49e86480523ab92490f,65d2b6c8f2eece985d8e374c,65d2b918740075f26ae75fb2,0.0419,0.042,1,89,251,138,1,sixfive,,,,,,,,,,,,,,,,,,,,,,,,,,,,,,,,,,,,,,,,,,,,,,,,,,,,,,,,,,,,,,,,,,,,,,,,,,,,,,,,,,,,,,,,,,,,,,,,,,,,,,,,,,,,,,,,,,,,,,,,,,,,,,,,,,,,,,,,,
,,65a9b49e86480523ab92490f,2024-02-19_11h13.11.815,kallum_motion_pilot,2023.2.2,Win32,158.7301587,65a9b49e86480523ab92490f,65d2b6c8f2eece985d8e374c,65d2b918740075f26ae75fb2,0.0421,0.0422,1,90,252,24,1,onetwo,,,,,,,,,,,,,,,,,,,,,,,,,,,,,,,,,,,,,,,,,,,,,,,,,,,,,,,,,,,,,,,,,,,,,,,,,,,,,,,,,,,,,,,,,,,,,,,,,,,,,,,,,,,,,,,,,,,,,,,,,,,,,,,,,,,,,,,,,
,,65a9b49e86480523ab92490f,2024-02-19_11h13.11.815,kallum_motion_pilot,2023.2.2,Win32,158.7301587,65a9b49e86480523ab92490f,65d2b6c8f2eece985d8e374c,65d2b918740075f26ae75fb2,0.0422,0.0422,1,91,253,157,1,seveneight,,,,,,,,,,,,,,,,,,,,,,,,,,,,,,,,,,,,,,,,,,,,,,,,,,,,,,,,,,,,,,,,,,,,,,,,,,,,,,,,,,,,,,,,,,,,,,,,,,,,,,,,,,,,,,,,,,,,,,,,,,,,,,,,,,,,,,,,,
,,65a9b49e86480523ab92490f,2024-02-19_11h13.11.815,kallum_motion_pilot,2023.2.2,Win32,158.7301587,65a9b49e86480523ab92490f,65d2b6c8f2eece985d8e374c,65d2b918740075f26ae75fb2,0.0423,0.0423,1,92,254,44,1,threeone,,,,,,,,,,,,,,,,,,,,,,,,,,,,,,,,,,,,,,,,,,,,,,,,,,,,,,,,,,,,,,,,,,,,,,,,,,,,,,,,,,,,,,,,,,,,,,,,,,,,,,,,,,,,,,,,,,,,,,,,,,,,,,,,,,,,,,,,,
,,65a9b49e86480523ab92490f,2024-02-19_11h13.11.815,kallum_motion_pilot,2023.2.2,Win32,158.7301587,65a9b49e86480523ab92490f,65d2b6c8f2eece985d8e374c,65d2b918740075f26ae75fb2,0.0425,0.0425,1,93,255,69,1,threefour,,,,,,,,,,,,,,,,,,,,,,,,,,,,,,,,,,,,,,,,,,,,,,,,,,,,,,,,,,,,,,,,,,,,,,,,,,,,,,,,,,,,,,,,,,,,,,,,,,,,,,,,,,,,,,,,,,,,,,,,,,,,,,,,,,,,,,,,,
,,65a9b49e86480523ab92490f,2024-02-19_11h13.11.815,kallum_motion_pilot,2023.2.2,Win32,158.7301587,65a9b49e86480523ab92490f,65d2b6c8f2eece985d8e374c,65d2b918740075f26ae75fb2,0.0425,0.0426,1,94,256,160,1,fivesix,,,,,,,,,,,,,,,,,,,,,,,,,,,,,,,,,,,,,,,,,,,,,,,,,,,,,,,,,,,,,,,,,,,,,,,,,,,,,,,,,,,,,,,,,,,,,,,,,,,,,,,,,,,,,,,,,,,,,,,,,,,,,,,,,,,,,,,,,
,,65a9b49e86480523ab92490f,2024-02-19_11h13.11.815,kallum_motion_pilot,2023.2.2,Win32,158.7301587,65a9b49e86480523ab92490f,65d2b6c8f2eece985d8e374c,65d2b918740075f26ae75fb2,0.0427,0.0427,1,95,257,133,1,seveneight,,,,,,,,,,,,,,,,,,,,,,,,,,,,,,,,,,,,,,,,,,,,,,,,,,,,,,,,,,,,,,,,,,,,,,,,,,,,,,,,,,,,,,,,,,,,,,,,,,,,,,,,,,,,,,,,,,,,,,,,,,,,,,,,,,,,,,,,,
,,65a9b49e86480523ab92490f,2024-02-19_11h13.11.815,kallum_motion_pilot,2023.2.2,Win32,158.7301587,65a9b49e86480523ab92490f,65d2b6c8f2eece985d8e374c,65d2b918740075f26ae75fb2,0.0428,0.0428,1,96,258,128,1,fivesix,,,,,,,,,,,,,,,,,,,,,,,,,,,,,,,,,,,,,,,,,,,,,,,,,,,,,,,,,,,,,,,,,,,,,,,,,,,,,,,,,,,,,,,,,,,,,,,,,,,,,,,,,,,,,,,,,,,,,,,,,,,,,,,,,,,,,,,,,
,,65a9b49e86480523ab92490f,2024-02-19_11h13.11.815,kallum_motion_pilot,2023.2.2,Win32,158.7301587,65a9b49e86480523ab92490f,65d2b6c8f2eece985d8e374c,65d2b918740075f26ae75fb2,0.0429,0.0429,1,97,259,64,1,onetwo,,,,,,,,,,,,,,,,,,,,,,,,,,,,,,,,,,,,,,,,,,,,,,,,,,,,,,,,,,,,,,,,,,,,,,,,,,,,,,,,,,,,,,,,,,,,,,,,,,,,,,,,,,,,,,,,,,,,,,,,,,,,,,,,,,,,,,,,,
,,65a9b49e86480523ab92490f,2024-02-19_11h13.11.815,kallum_motion_pilot,2023.2.2,Win32,158.7301587,65a9b49e86480523ab92490f,65d2b6c8f2eece985d8e374c,65d2b918740075f26ae75fb2,0.043,0.043,1,98,260,85,1,seveneight,,,,,,,,,,,,,,,,,,,,,,,,,,,,,,,,,,,,,,,,,,,,,,,,,,,,,,,,,,,,,,,,,,,,,,,,,,,,,,,,,,,,,,,,,,,,,,,,,,,,,,,,,,,,,,,,,,,,,,,,,,,,,,,,,,,,,,,,,
,,65a9b49e86480523ab92490f,2024-02-19_11h13.11.815,kallum_motion_pilot,2023.2.2,Win32,158.7301587,65a9b49e86480523ab92490f,65d2b6c8f2eece985d8e374c,65d2b918740075f26ae75fb2,0.0431,0.0432,1,99,261,108,1,sevenfive,,,,,,,,,,,,,,,,,,,,,,,,,,,,,,,,,,,,,,,,,,,,,,,,,,,,,,,,,,,,,,,,,,,,,,,,,,,,,,,,,,,,,,,,,,,,,,,,,,,,,,,,,,,,,,,,,,,,,,,,,,,,,,,,,,,,,,,,,
,,65a9b49e86480523ab92490f,2024-02-19_11h13.11.815,kallum_motion_pilot,2023.2.2,Win32,158.7301587,65a9b49e86480523ab92490f,65d2b6c8f2eece985d8e374c,65d2b918740075f26ae75fb2,0.0432,0.0433,1,100,262,75,1,twofour,,,,,,,,,,,,,,,,,,,,,,,,,,,,,,,,,,,,,,,,,,,,,,,,,,,,,,,,,,,,,,,,,,,,,,,,,,,,,,,,,,,,,,,,,,,,,,,,,,,,,,,,,,,,,,,,,,,,,,,,,,,,,,,,,,,,,,,,,
,,65a9b49e86480523ab92490f,2024-02-19_11h13.11.815,kallum_motion_pilot,2023.2.2,Win32,158.7301587,65a9b49e86480523ab92490f,65d2b6c8f2eece985d8e374c,65d2b918740075f26ae75fb2,0.0433,0.0434,1,101,263,60,1,threeone,,,,,,,,,,,,,,,,,,,,,,,,,,,,,,,,,,,,,,,,,,,,,,,,,,,,,,,,,,,,,,,,,,,,,,,,,,,,,,,,,,,,,,,,,,,,,,,,,,,,,,,,,,,,,,,,,,,,,,,,,,,,,,,,,,,,,,,,,
,,65a9b49e86480523ab92490f,2024-02-19_11h13.11.815,kallum_motion_pilot,2023.2.2,Win32,158.7301587,65a9b49e86480523ab92490f,65d2b6c8f2eece985d8e374c,65d2b918740075f26ae75fb2,0.0435,0.0435,1,102,264,23,1,fourthree,,,,,,,,,,,,,,,,,,,,,,,,,,,,,,,,,,,,,,,,,,,,,,,,,,,,,,,,,,,,,,,,,,,,,,,,,,,,,,,,,,,,,,,,,,,,,,,,,,,,,,,,,,,,,,,,,,,,,,,,,,,,,,,,,,,,,,,,,
,,65a9b49e86480523ab92490f,2024-02-19_11h13.11.815,kallum_motion_pilot,2023.2.2,Win32,158.7301587,65a9b49e86480523ab92490f,65d2b6c8f2eece985d8e374c,65d2b918740075f26ae75fb2,0.0436,0.0437,1,103,265,72,1,onetwo,,,,,,,,,,,,,,,,,,,,,,,,,,,,,,,,,,,,,,,,,,,,,,,,,,,,,,,,,,,,,,,,,,,,,,,,,,,,,,,,,,,,,,,,,,,,,,,,,,,,,,,,,,,,,,,,,,,,,,,,,,,,,,,,,,,,,,,,,
,,65a9b49e86480523ab92490f,2024-02-19_11h13.11.815,kallum_motion_pilot,2023.2.2,Win32,158.7301587,65a9b49e86480523ab92490f,65d2b6c8f2eece985d8e374c,65d2b918740075f26ae75fb2,0.0438,0.0439,1,104,266,156,1,sevenfive,,,,,,,,,,,,,,,,,,,,,,,,,,,,,,,,,,,,,,,,,,,,,,,,,,,,,,,,,,,,,,,,,,,,,,,,,,,,,,,,,,,,,,,,,,,,,,,,,,,,,,,,,,,,,,,,,,,,,,,,,,,,,,,,,,,,,,,,,
,,65a9b49e86480523ab92490f,2024-02-19_11h13.11.815,kallum_motion_pilot,2023.2.2,Win32,158.7301587,65a9b49e86480523ab92490f,65d2b6c8f2eece985d8e374c,65d2b918740075f26ae75fb2,0.0441,0.0441,1,105,267,3,1,twofour,,,,,,,,,,,,,,,,,,,,,,,,,,,,,,,,,,,,,,,,,,,,,,,,,,,,,,,,,,,,,,,,,,,,,,,,,,,,,,,,,,,,,,,,,,,,,,,,,,,,,,,,,,,,,,,,,,,,,,,,,,,,,,,,,,,,,,,,,
,,65a9b49e86480523ab92490f,2024-02-19_11h13.11.815,kallum_motion_pilot,2023.2.2,Win32,158.7301587,65a9b49e86480523ab92490f,65d2b6c8f2eece985d8e374c,65d2b918740075f26ae75fb2,0.0443,0.0443,1,106,268,107,1,sixeight,,,,,,,,,,,,,,,,,,,,,,,,,,,,,,,,,,,,,,,,,,,,,,,,,,,,,,,,,,,,,,,,,,,,,,,,,,,,,,,,,,,,,,,,,,,,,,,,,,,,,,,,,,,,,,,,,,,,,,,,,,,,,,,,,,,,,,,,,
,,65a9b49e86480523ab92490f,2024-02-19_11h13.11.815,kallum_motion_pilot,2023.2.2,Win32,158.7301587,65a9b49e86480523ab92490f,65d2b6c8f2eece985d8e374c,65d2b918740075f26ae75fb2,0.0444,0.0445,1,107,269,121,1,fiveseven,,,,,,,,,,,,,,,,,,,,,,,,,,,,,,,,,,,,,,,,,,,,,,,,,,,,,,,,,,,,,,,,,,,,,,,,,,,,,,,,,,,,,,,,,,,,,,,,,,,,,,,,,,,,,,,,,,,,,,,,,,,,,,,,,,,,,,,,,
,,65a9b49e86480523ab92490f,2024-02-19_11h13.11.815,kallum_motion_pilot,2023.2.2,Win32,158.7301587,65a9b49e86480523ab92490f,65d2b6c8f2eece985d8e374c,65d2b918740075f26ae75fb2,0.0445,0.0445,1,108,270,46,1,fourtwo,,,,,,,,,,,,,,,,,,,,,,,,,,,,,,,,,,,,,,,,,,,,,,,,,,,,,,,,,,,,,,,,,,,,,,,,,,,,,,,,,,,,,,,,,,,,,,,,,,,,,,,,,,,,,,,,,,,,,,,,,,,,,,,,,,,,,,,,,
,,65a9b49e86480523ab92490f,2024-02-19_11h13.11.815,kallum_motion_pilot,2023.2.2,Win32,158.7301587,65a9b49e86480523ab92490f,65d2b6c8f2eece985d8e374c,65d2b918740075f26ae75fb2,0.0446,0.0446,1,109,271,79,1,eightseven,,,,,,,,,,,,,,,,,,,,,,,,,,,,,,,,,,,,,,,,,,,,,,,,,,,,,,,,,,,,,,,,,,,,,,,,,,,,,,,,,,,,,,,,,,,,,,,,,,,,,,,,,,,,,,,,,,,,,,,,,,,,,,,,,,,,,,,,,
,,65a9b49e86480523ab92490f,2024-02-19_11h13.11.815,kallum_motion_pilot,2023.2.2,Win32,158.7301587,65a9b49e86480523ab92490f,65d2b6c8f2eece985d8e374c,65d2b918740075f26ae75fb2,0.0447,0.0447,1,110,272,37,1,threefour,,,,,,,,,,,,,,,,,,,,,,,,,,,,,,,,,,,,,,,,,,,,,,,,,,,,,,,,,,,,,,,,,,,,,,,,,,,,,,,,,,,,,,,,,,,,,,,,,,,,,,,,,,,,,,,,,,,,,,,,,,,,,,,,,,,,,,,,,
,,65a9b49e86480523ab92490f,2024-02-19_11h13.11.815,kallum_motion_pilot,2023.2.2,Win32,158.7301587,65a9b49e86480523ab92490f,65d2b6c8f2eece985d8e374c,65d2b918740075f26ae75fb2,0.0448,0.0449,1,111,273,30,1,fourtwo,,,,,,,,,,,,,,,,,,,,,,,,,,,,,,,,,,,,,,,,,,,,,,,,,,,,,,,,,,,,,,,,,,,,,,,,,,,,,,,,,,,,,,,,,,,,,,,,,,,,,,,,,,,,,,,,,,,,,,,,,,,,,,,,,,,,,,,,,
,,65a9b49e86480523ab92490f,2024-02-19_11h13.11.815,kallum_motion_pilot,2023.2.2,Win32,158.7301587,65a9b49e86480523ab92490f,65d2b6c8f2eece985d8e374c,65d2b918740075f26ae75fb2,0.0449,0.045,1,112,274,141,1,seveneight,,,,,,,,,,,,,,,,,,,,,,,,,,,,,,,,,,,,,,,,,,,,,,,,,,,,,,,,,,,,,,,,,,,,,,,,,,,,,,,,,,,,,,,,,,,,,,,,,,,,,,,,,,,,,,,,,,,,,,,,,,,,,,,,,,,,,,,,,
,,65a9b49e86480523ab92490f,2024-02-19_11h13.11.815,kallum_motion_pilot,2023.2.2,Win32,158.7301587,65a9b49e86480523ab92490f,65d2b6c8f2eece985d8e374c,65d2b918740075f26ae75fb2,0.045,0.0451,1,113,275,18,1,twoone,,,,,,,,,,,,,,,,,,,,,,,,,,,,,,,,,,,,,,,,,,,,,,,,,,,,,,,,,,,,,,,,,,,,,,,,,,,,,,,,,,,,,,,,,,,,,,,,,,,,,,,,,,,,,,,,,,,,,,,,,,,,,,,,,,,,,,,,,
,,65a9b49e86480523ab92490f,2024-02-19_11h13.11.815,kallum_motion_pilot,2023.2.2,Win32,158.7301587,65a9b49e86480523ab92490f,65d2b6c8f2eece985d8e374c,65d2b918740075f26ae75fb2,0.0451,0.0453,1,114,276,139,1,sixeight,,,,,,,,,,,,,,,,,,,,,,,,,,,,,,,,,,,,,,,,,,,,,,,,,,,,,,,,,,,,,,,,,,,,,,,,,,,,,,,,,,,,,,,,,,,,,,,,,,,,,,,,,,,,,,,,,,,,,,,,,,,,,,,,,,,,,,,,,
,,65a9b49e86480523ab92490f,2024-02-19_11h13.11.815,kallum_motion_pilot,2023.2.2,Win32,158.7301587,65a9b49e86480523ab92490f,65d2b6c8f2eece985d8e374c,65d2b918740075f26ae75fb2,0.0453,0.0453,1,115,277,57,1,onethree,,,,,,,,,,,,,,,,,,,,,,,,,,,,,,,,,,,,,,,,,,,,,,,,,,,,,,,,,,,,,,,,,,,,,,,,,,,,,,,,,,,,,,,,,,,,,,,,,,,,,,,,,,,,,,,,,,,,,,,,,,,,,,,,,,,,,,,,,
