startup.started,startup.stopped,Prolific ID*,date,expName,psychopyVersion,OS,frameRate,participant,study_id,session,stimpositions.started,stimpositions.stopped,hardcoded_stimulus_positions.thisRepN,hardcoded_stimulus_positions.thisTrialN,hardcoded_stimulus_positions.thisN,hardcoded_stimulus_positions.thisIndex,hardcoded_stimulus_positions.ran,StimulusPos,stimorientation.started,stimorientation.stopped,prac_stimorientation_import_loop.thisRepN,prac_stimorientation_import_loop.thisTrialN,prac_stimorientation_import_loop.thisN,prac_stimorientation_import_loop.thisIndex,prac_stimorientation_import_loop.ran,Stimorientation,welcome_instr.started,welcome_instr.stopped,key_resp.keys,key_resp.rt,key_resp.duration,response_steppedout_1.started,response_steppedout_1.stopped,key_resp_20.keys,key_resp_20.rt,key_resp_20.duration,response_steppedout_2.started,response_steppedout_2.stopped,key_resp_19.keys,key_resp_19.rt,key_resp_19.duration,stim_response_instr.started,stim_response_instr.stopped,key_resp_15.keys,key_resp_15.rt,key_resp_15.duration,direction_instr_2.started,direction_instr_2.stopped,key_resp_9.keys,key_resp_9.rt,key_resp_9.duration,instr_prac.started,instr_prac.stopped,key_resp_10.keys,key_resp_10.rt,key_resp_10.duration,Stim1_display_prac.started,Stim1_display_prac.stopped,Ecc,Circle1_ori,Circle2_ori,response_prac.started,similarity,response_time,response_prac.stopped,mouse_5.x,mouse_5.y,mouse_5.leftButton,mouse_5.midButton,mouse_5.rightButton,mouse_5.clicked_name,responseprac_feedback.started,responseprac_feedback.stopped,summary2_prac.started,summary2_prac.stopped,mouse_6.x,mouse_6.y,mouse_6.leftButton,mouse_6.midButton,mouse_6.rightButton,mouse_6.clicked_name,duringprac.thisRepN,duringprac.thisTrialN,duringprac.thisN,duringprac.thisIndex,duringprac.ran,begin.started,begin.stopped,key_resp_22.keys,key_resp_22.rt,key_resp_22.duration,Stim1_display.started,Stim1_display.stopped,circle1_ori,circle2_ori,circle1_SF,circle2_SF,response.started,response.stopped,mouse.x,mouse.y,mouse.leftButton,mouse.midButton,mouse.rightButton,mouse.clicked_name,trialnumber,double_pass.thisRepN,double_pass.thisTrialN,double_pass.thisN,double_pass.thisIndex,double_pass.ran,double_pass.order,main_trial.thisRepN,main_trial.thisTrialN,main_trial.thisN,main_trial.thisIndex,main_trial.ran,main_trial.order,Trial_Counter,Catch,Frequencies,response_2.started,response_2.stopped,mouse_2.x,mouse_2.y,mouse_2.leftButton,mouse_2.midButton,mouse_2.rightButton,mouse_2.clicked_name,special_trial.started,special_trial.stopped,catch_1.started,catch_1.stopped,mouse_3.x,mouse_3.y,mouse_3.leftButton,mouse_3.midButton,mouse_3.rightButton,catchresponse,catchnumber,response_time_catch,response_sum.started,response_sum.stopped,mouse_11.x,mouse_11.y,mouse_11.leftButton,mouse_11.midButton,mouse_11.rightButton,flip_presentation_sequence_for_double_pass.started,flip_presentation_sequence_for_double_pass.stopped,goodbye.started,goodbye.stopped,key_resp_3.keys,key_resp_3.rt,key_resp_3.duration
0.0005,0.0006,65a9a7fcb320353c4c4c96e0,2024-02-19_11h09.28.586,kallum_motion_pilot,2023.2.2,Win32,142.8571429,65a9a7fcb320353c4c4c96e0,65d2b6c8f2eece985d8e374c,65d2b84cf2cdb579bb1760b6,,,,,,,,,,,,,,,,,,,,,,,,,,,,,,,,,,,,,,,,,,,,,,,,,,,,,,,,,,,,,,,,,,,,,,,,,,,,,,,,,,,,,,,,,,,,,,,,,,,,,,,,,,,,,,,,,,,,,,,,,,,,,,,,,,,,,,,,,,,,,,,,,
,,65a9a7fcb320353c4c4c96e0,2024-02-19_11h09.28.586,kallum_motion_pilot,2023.2.2,Win32,142.8571429,65a9a7fcb320353c4c4c96e0,65d2b6c8f2eece985d8e374c,65d2b84cf2cdb579bb1760b6,0.0202,0.0203,0,0,0,157,1,seveneight,,,,,,,,,,,,,,,,,,,,,,,,,,,,,,,,,,,,,,,,,,,,,,,,,,,,,,,,,,,,,,,,,,,,,,,,,,,,,,,,,,,,,,,,,,,,,,,,,,,,,,,,,,,,,,,,,,,,,,,,,,,,,,,,,,,,,,,,,
,,65a9a7fcb320353c4c4c96e0,2024-02-19_11h09.28.586,kallum_motion_pilot,2023.2.2,Win32,142.8571429,65a9a7fcb320353c4c4c96e0,65d2b6c8f2eece985d8e374c,65d2b84cf2cdb579bb1760b6,0.0204,0.0205,0,1,1,22,1,fourtwo,,,,,,,,,,,,,,,,,,,,,,,,,,,,,,,,,,,,,,,,,,,,,,,,,,,,,,,,,,,,,,,,,,,,,,,,,,,,,,,,,,,,,,,,,,,,,,,,,,,,,,,,,,,,,,,,,,,,,,,,,,,,,,,,,,,,,,,,,
,,65a9a7fcb320353c4c4c96e0,2024-02-19_11h09.28.586,kallum_motion_pilot,2023.2.2,Win32,142.8571429,65a9a7fcb320353c4c4c96e0,65d2b6c8f2eece985d8e374c,65d2b84cf2cdb579bb1760b6,0.0206,0.0206,0,2,2,21,1,threefour,,,,,,,,,,,,,,,,,,,,,,,,,,,,,,,,,,,,,,,,,,,,,,,,,,,,,,,,,,,,,,,,,,,,,,,,,,,,,,,,,,,,,,,,,,,,,,,,,,,,,,,,,,,,,,,,,,,,,,,,,,,,,,,,,,,,,,,,,
,,65a9a7fcb320353c4c4c96e0,2024-02-19_11h09.28.586,kallum_motion_pilot,2023.2.2,Win32,142.8571429,65a9a7fcb320353c4c4c96e0,65d2b6c8f2eece985d8e374c,65d2b84cf2cdb579bb1760b6,0.0206,0.0206,0,3,3,106,1,sixfive,,,,,,,,,,,,,,,,,,,,,,,,,,,,,,,,,,,,,,,,,,,,,,,,,,,,,,,,,,,,,,,,,,,,,,,,,,,,,,,,,,,,,,,,,,,,,,,,,,,,,,,,,,,,,,,,,,,,,,,,,,,,,,,,,,,,,,,,,
,,65a9a7fcb320353c4c4c96e0,2024-02-19_11h09.28.586,kallum_motion_pilot,2023.2.2,Win32,142.8571429,65a9a7fcb320353c4c4c96e0,65d2b6c8f2eece985d8e374c,65d2b84cf2cdb579bb1760b6,0.0207,0.0208,0,4,4,52,1,threeone,,,,,,,,,,,,,,,,,,,,,,,,,,,,,,,,,,,,,,,,,,,,,,,,,,,,,,,,,,,,,,,,,,,,,,,,,,,,,,,,,,,,,,,,,,,,,,,,,,,,,,,,,,,,,,,,,,,,,,,,,,,,,,,,,,,,,,,,,
,,65a9a7fcb320353c4c4c96e0,2024-02-19_11h09.28.586,kallum_motion_pilot,2023.2.2,Win32,142.8571429,65a9a7fcb320353c4c4c96e0,65d2b6c8f2eece985d8e374c,65d2b84cf2cdb579bb1760b6,0.0208,0.0208,0,5,5,129,1,fiveseven,,,,,,,,,,,,,,,,,,,,,,,,,,,,,,,,,,,,,,,,,,,,,,,,,,,,,,,,,,,,,,,,,,,,,,,,,,,,,,,,,,,,,,,,,,,,,,,,,,,,,,,,,,,,,,,,,,,,,,,,,,,,,,,,,,,,,,,,,
,,65a9a7fcb320353c4c4c96e0,2024-02-19_11h09.28.586,kallum_motion_pilot,2023.2.2,Win32,142.8571429,65a9a7fcb320353c4c4c96e0,65d2b6c8f2eece985d8e374c,65d2b84cf2cdb579bb1760b6,0.0208,0.0209,0,6,6,4,1,threeone,,,,,,,,,,,,,,,,,,,,,,,,,,,,,,,,,,,,,,,,,,,,,,,,,,,,,,,,,,,,,,,,,,,,,,,,,,,,,,,,,,,,,,,,,,,,,,,,,,,,,,,,,,,,,,,,,,,,,,,,,,,,,,,,,,,,,,,,,
,,65a9a7fcb320353c4c4c96e0,2024-02-19_11h09.28.586,kallum_motion_pilot,2023.2.2,Win32,142.8571429,65a9a7fcb320353c4c4c96e0,65d2b6c8f2eece985d8e374c,65d2b84cf2cdb579bb1760b6,0.0209,0.0209,0,7,7,19,1,twofour,,,,,,,,,,,,,,,,,,,,,,,,,,,,,,,,,,,,,,,,,,,,,,,,,,,,,,,,,,,,,,,,,,,,,,,,,,,,,,,,,,,,,,,,,,,,,,,,,,,,,,,,,,,,,,,,,,,,,,,,,,,,,,,,,,,,,,,,,
,,65a9a7fcb320353c4c4c96e0,2024-02-19_11h09.28.586,kallum_motion_pilot,2023.2.2,Win32,142.8571429,65a9a7fcb320353c4c4c96e0,65d2b6c8f2eece985d8e374c,65d2b84cf2cdb579bb1760b6,0.021,0.021,0,8,8,45,1,threefour,,,,,,,,,,,,,,,,,,,,,,,,,,,,,,,,,,,,,,,,,,,,,,,,,,,,,,,,,,,,,,,,,,,,,,,,,,,,,,,,,,,,,,,,,,,,,,,,,,,,,,,,,,,,,,,,,,,,,,,,,,,,,,,,,,,,,,,,,
,,65a9a7fcb320353c4c4c96e0,2024-02-19_11h09.28.586,kallum_motion_pilot,2023.2.2,Win32,142.8571429,65a9a7fcb320353c4c4c96e0,65d2b6c8f2eece985d8e374c,65d2b84cf2cdb579bb1760b6,0.0212,0.0212,0,9,9,1,1,onethree,,,,,,,,,,,,,,,,,,,,,,,,,,,,,,,,,,,,,,,,,,,,,,,,,,,,,,,,,,,,,,,,,,,,,,,,,,,,,,,,,,,,,,,,,,,,,,,,,,,,,,,,,,,,,,,,,,,,,,,,,,,,,,,,,,,,,,,,,
,,65a9a7fcb320353c4c4c96e0,2024-02-19_11h09.28.586,kallum_motion_pilot,2023.2.2,Win32,142.8571429,65a9a7fcb320353c4c4c96e0,65d2b6c8f2eece985d8e374c,65d2b84cf2cdb579bb1760b6,0.0213,0.0213,0,10,10,83,1,sixeight,,,,,,,,,,,,,,,,,,,,,,,,,,,,,,,,,,,,,,,,,,,,,,,,,,,,,,,,,,,,,,,,,,,,,,,,,,,,,,,,,,,,,,,,,,,,,,,,,,,,,,,,,,,,,,,,,,,,,,,,,,,,,,,,,,,,,,,,,
,,65a9a7fcb320353c4c4c96e0,2024-02-19_11h09.28.586,kallum_motion_pilot,2023.2.2,Win32,142.8571429,65a9a7fcb320353c4c4c96e0,65d2b6c8f2eece985d8e374c,65d2b84cf2cdb579bb1760b6,0.0213,0.0213,0,11,11,160,1,fivesix,,,,,,,,,,,,,,,,,,,,,,,,,,,,,,,,,,,,,,,,,,,,,,,,,,,,,,,,,,,,,,,,,,,,,,,,,,,,,,,,,,,,,,,,,,,,,,,,,,,,,,,,,,,,,,,,,,,,,,,,,,,,,,,,,,,,,,,,,
,,65a9a7fcb320353c4c4c96e0,2024-02-19_11h09.28.586,kallum_motion_pilot,2023.2.2,Win32,142.8571429,65a9a7fcb320353c4c4c96e0,65d2b6c8f2eece985d8e374c,65d2b84cf2cdb579bb1760b6,0.0214,0.0214,0,12,12,31,1,fourthree,,,,,,,,,,,,,,,,,,,,,,,,,,,,,,,,,,,,,,,,,,,,,,,,,,,,,,,,,,,,,,,,,,,,,,,,,,,,,,,,,,,,,,,,,,,,,,,,,,,,,,,,,,,,,,,,,,,,,,,,,,,,,,,,,,,,,,,,,
,,65a9a7fcb320353c4c4c96e0,2024-02-19_11h09.28.586,kallum_motion_pilot,2023.2.2,Win32,142.8571429,65a9a7fcb320353c4c4c96e0,65d2b6c8f2eece985d8e374c,65d2b84cf2cdb579bb1760b6,0.0214,0.0214,0,13,13,154,1,sixfive,,,,,,,,,,,,,,,,,,,,,,,,,,,,,,,,,,,,,,,,,,,,,,,,,,,,,,,,,,,,,,,,,,,,,,,,,,,,,,,,,,,,,,,,,,,,,,,,,,,,,,,,,,,,,,,,,,,,,,,,,,,,,,,,,,,,,,,,,
,,65a9a7fcb320353c4c4c96e0,2024-02-19_11h09.28.586,kallum_motion_pilot,2023.2.2,Win32,142.8571429,65a9a7fcb320353c4c4c96e0,65d2b6c8f2eece985d8e374c,65d2b84cf2cdb579bb1760b6,0.0215,0.0215,0,14,14,62,1,fourtwo,,,,,,,,,,,,,,,,,,,,,,,,,,,,,,,,,,,,,,,,,,,,,,,,,,,,,,,,,,,,,,,,,,,,,,,,,,,,,,,,,,,,,,,,,,,,,,,,,,,,,,,,,,,,,,,,,,,,,,,,,,,,,,,,,,,,,,,,,
,,65a9a7fcb320353c4c4c96e0,2024-02-19_11h09.28.586,kallum_motion_pilot,2023.2.2,Win32,142.8571429,65a9a7fcb320353c4c4c96e0,65d2b6c8f2eece985d8e374c,65d2b84cf2cdb579bb1760b6,0.0216,0.0216,0,15,15,57,1,onethree,,,,,,,,,,,,,,,,,,,,,,,,,,,,,,,,,,,,,,,,,,,,,,,,,,,,,,,,,,,,,,,,,,,,,,,,,,,,,,,,,,,,,,,,,,,,,,,,,,,,,,,,,,,,,,,,,,,,,,,,,,,,,,,,,,,,,,,,,
,,65a9a7fcb320353c4c4c96e0,2024-02-19_11h09.28.586,kallum_motion_pilot,2023.2.2,Win32,142.8571429,65a9a7fcb320353c4c4c96e0,65d2b6c8f2eece985d8e374c,65d2b84cf2cdb579bb1760b6,0.0216,0.0216,0,16,16,55,1,fourthree,,,,,,,,,,,,,,,,,,,,,,,,,,,,,,,,,,,,,,,,,,,,,,,,,,,,,,,,,,,,,,,,,,,,,,,,,,,,,,,,,,,,,,,,,,,,,,,,,,,,,,,,,,,,,,,,,,,,,,,,,,,,,,,,,,,,,,,,,
,,65a9a7fcb320353c4c4c96e0,2024-02-19_11h09.28.586,kallum_motion_pilot,2023.2.2,Win32,142.8571429,65a9a7fcb320353c4c4c96e0,65d2b6c8f2eece985d8e374c,65d2b84cf2cdb579bb1760b6,0.0216,0.0216,0,17,17,138,1,sixfive,,,,,,,,,,,,,,,,,,,,,,,,,,,,,,,,,,,,,,,,,,,,,,,,,,,,,,,,,,,,,,,,,,,,,,,,,,,,,,,,,,,,,,,,,,,,,,,,,,,,,,,,,,,,,,,,,,,,,,,,,,,,,,,,,,,,,,,,,
,,65a9a7fcb320353c4c4c96e0,2024-02-19_11h09.28.586,kallum_motion_pilot,2023.2.2,Win32,142.8571429,65a9a7fcb320353c4c4c96e0,65d2b6c8f2eece985d8e374c,65d2b84cf2cdb579bb1760b6,0.0217,0.0217,0,18,18,2,1,twoone,,,,,,,,,,,,,,,,,,,,,,,,,,,,,,,,,,,,,,,,,,,,,,,,,,,,,,,,,,,,,,,,,,,,,,,,,,,,,,,,,,,,,,,,,,,,,,,,,,,,,,,,,,,,,,,,,,,,,,,,,,,,,,,,,,,,,,,,,
,,65a9a7fcb320353c4c4c96e0,2024-02-19_11h09.28.586,kallum_motion_pilot,2023.2.2,Win32,142.8571429,65a9a7fcb320353c4c4c96e0,65d2b6c8f2eece985d8e374c,65d2b84cf2cdb579bb1760b6,0.0217,0.0218,0,19,19,5,1,threefour,,,,,,,,,,,,,,,,,,,,,,,,,,,,,,,,,,,,,,,,,,,,,,,,,,,,,,,,,,,,,,,,,,,,,,,,,,,,,,,,,,,,,,,,,,,,,,,,,,,,,,,,,,,,,,,,,,,,,,,,,,,,,,,,,,,,,,,,,
,,65a9a7fcb320353c4c4c96e0,2024-02-19_11h09.28.586,kallum_motion_pilot,2023.2.2,Win32,142.8571429,65a9a7fcb320353c4c4c96e0,65d2b6c8f2eece985d8e374c,65d2b84cf2cdb579bb1760b6,0.0219,0.0219,0,20,20,101,1,seveneight,,,,,,,,,,,,,,,,,,,,,,,,,,,,,,,,,,,,,,,,,,,,,,,,,,,,,,,,,,,,,,,,,,,,,,,,,,,,,,,,,,,,,,,,,,,,,,,,,,,,,,,,,,,,,,,,,,,,,,,,,,,,,,,,,,,,,,,,,
,,65a9a7fcb320353c4c4c96e0,2024-02-19_11h09.28.586,kallum_motion_pilot,2023.2.2,Win32,142.8571429,65a9a7fcb320353c4c4c96e0,65d2b6c8f2eece985d8e374c,65d2b84cf2cdb579bb1760b6,0.0219,0.022,0,21,21,92,1,sevenfive,,,,,,,,,,,,,,,,,,,,,,,,,,,,,,,,,,,,,,,,,,,,,,,,,,,,,,,,,,,,,,,,,,,,,,,,,,,,,,,,,,,,,,,,,,,,,,,,,,,,,,,,,,,,,,,,,,,,,,,,,,,,,,,,,,,,,,,,,
,,65a9a7fcb320353c4c4c96e0,2024-02-19_11h09.28.586,kallum_motion_pilot,2023.2.2,Win32,142.8571429,65a9a7fcb320353c4c4c96e0,65d2b6c8f2eece985d8e374c,65d2b84cf2cdb579bb1760b6,0.022,0.022,0,22,22,90,1,sixfive,,,,,,,,,,,,,,,,,,,,,,,,,,,,,,,,,,,,,,,,,,,,,,,,,,,,,,,,,,,,,,,,,,,,,,,,,,,,,,,,,,,,,,,,,,,,,,,,,,,,,,,,,,,,,,,,,,,,,,,,,,,,,,,,,,,,,,,,,
,,65a9a7fcb320353c4c4c96e0,2024-02-19_11h09.28.586,kallum_motion_pilot,2023.2.2,Win32,142.8571429,65a9a7fcb320353c4c4c96e0,65d2b6c8f2eece985d8e374c,65d2b84cf2cdb579bb1760b6,0.0221,0.0221,0,23,23,147,1,sixeight,,,,,,,,,,,,,,,,,,,,,,,,,,,,,,,,,,,,,,,,,,,,,,,,,,,,,,,,,,,,,,,,,,,,,,,,,,,,,,,,,,,,,,,,,,,,,,,,,,,,,,,,,,,,,,,,,,,,,,,,,,,,,,,,,,,,,,,,,
,,65a9a7fcb320353c4c4c96e0,2024-02-19_11h09.28.586,kallum_motion_pilot,2023.2.2,Win32,142.8571429,65a9a7fcb320353c4c4c96e0,65d2b6c8f2eece985d8e374c,65d2b84cf2cdb579bb1760b6,0.0221,0.0221,0,24,24,84,1,sevenfive,,,,,,,,,,,,,,,,,,,,,,,,,,,,,,,,,,,,,,,,,,,,,,,,,,,,,,,,,,,,,,,,,,,,,,,,,,,,,,,,,,,,,,,,,,,,,,,,,,,,,,,,,,,,,,,,,,,,,,,,,,,,,,,,,,,,,,,,,
,,65a9a7fcb320353c4c4c96e0,2024-02-19_11h09.28.586,kallum_motion_pilot,2023.2.2,Win32,142.8571429,65a9a7fcb320353c4c4c96e0,65d2b6c8f2eece985d8e374c,65d2b84cf2cdb579bb1760b6,0.0222,0.0222,0,25,25,136,1,fivesix,,,,,,,,,,,,,,,,,,,,,,,,,,,,,,,,,,,,,,,,,,,,,,,,,,,,,,,,,,,,,,,,,,,,,,,,,,,,,,,,,,,,,,,,,,,,,,,,,,,,,,,,,,,,,,,,,,,,,,,,,,,,,,,,,,,,,,,,,
,,65a9a7fcb320353c4c4c96e0,2024-02-19_11h09.28.586,kallum_motion_pilot,2023.2.2,Win32,142.8571429,65a9a7fcb320353c4c4c96e0,65d2b6c8f2eece985d8e374c,65d2b84cf2cdb579bb1760b6,0.0222,0.0222,0,26,26,48,1,onetwo,,,,,,,,,,,,,,,,,,,,,,,,,,,,,,,,,,,,,,,,,,,,,,,,,,,,,,,,,,,,,,,,,,,,,,,,,,,,,,,,,,,,,,,,,,,,,,,,,,,,,,,,,,,,,,,,,,,,,,,,,,,,,,,,,,,,,,,,,
,,65a9a7fcb320353c4c4c96e0,2024-02-19_11h09.28.586,kallum_motion_pilot,2023.2.2,Win32,142.8571429,65a9a7fcb320353c4c4c96e0,65d2b6c8f2eece985d8e374c,65d2b84cf2cdb579bb1760b6,0.0223,0.0223,0,27,27,86,1,eightsix,,,,,,,,,,,,,,,,,,,,,,,,,,,,,,,,,,,,,,,,,,,,,,,,,,,,,,,,,,,,,,,,,,,,,,,,,,,,,,,,,,,,,,,,,,,,,,,,,,,,,,,,,,,,,,,,,,,,,,,,,,,,,,,,,,,,,,,,,
,,65a9a7fcb320353c4c4c96e0,2024-02-19_11h09.28.586,kallum_motion_pilot,2023.2.2,Win32,142.8571429,65a9a7fcb320353c4c4c96e0,65d2b6c8f2eece985d8e374c,65d2b84cf2cdb579bb1760b6,0.0224,0.0224,0,28,28,35,1,twofour,,,,,,,,,,,,,,,,,,,,,,,,,,,,,,,,,,,,,,,,,,,,,,,,,,,,,,,,,,,,,,,,,,,,,,,,,,,,,,,,,,,,,,,,,,,,,,,,,,,,,,,,,,,,,,,,,,,,,,,,,,,,,,,,,,,,,,,,,
,,65a9a7fcb320353c4c4c96e0,2024-02-19_11h09.28.586,kallum_motion_pilot,2023.2.2,Win32,142.8571429,65a9a7fcb320353c4c4c96e0,65d2b6c8f2eece985d8e374c,65d2b84cf2cdb579bb1760b6,0.0224,0.0224,0,29,29,18,1,twoone,,,,,,,,,,,,,,,,,,,,,,,,,,,,,,,,,,,,,,,,,,,,,,,,,,,,,,,,,,,,,,,,,,,,,,,,,,,,,,,,,,,,,,,,,,,,,,,,,,,,,,,,,,,,,,,,,,,,,,,,,,,,,,,,,,,,,,,,,
,,65a9a7fcb320353c4c4c96e0,2024-02-19_11h09.28.586,kallum_motion_pilot,2023.2.2,Win32,142.8571429,65a9a7fcb320353c4c4c96e0,65d2b6c8f2eece985d8e374c,65d2b84cf2cdb579bb1760b6,0.0225,0.0225,0,30,30,43,1,twofour,,,,,,,,,,,,,,,,,,,,,,,,,,,,,,,,,,,,,,,,,,,,,,,,,,,,,,,,,,,,,,,,,,,,,,,,,,,,,,,,,,,,,,,,,,,,,,,,,,,,,,,,,,,,,,,,,,,,,,,,,,,,,,,,,,,,,,,,,
,,65a9a7fcb320353c4c4c96e0,2024-02-19_11h09.28.586,kallum_motion_pilot,2023.2.2,Win32,142.8571429,65a9a7fcb320353c4c4c96e0,65d2b6c8f2eece985d8e374c,65d2b84cf2cdb579bb1760b6,0.0225,0.0225,0,31,31,74,1,twoone,,,,,,,,,,,,,,,,,,,,,,,,,,,,,,,,,,,,,,,,,,,,,,,,,,,,,,,,,,,,,,,,,,,,,,,,,,,,,,,,,,,,,,,,,,,,,,,,,,,,,,,,,,,,,,,,,,,,,,,,,,,,,,,,,,,,,,,,,
,,65a9a7fcb320353c4c4c96e0,2024-02-19_11h09.28.586,kallum_motion_pilot,2023.2.2,Win32,142.8571429,65a9a7fcb320353c4c4c96e0,65d2b6c8f2eece985d8e374c,65d2b84cf2cdb579bb1760b6,0.0226,0.0227,0,32,32,94,1,eightsix,,,,,,,,,,,,,,,,,,,,,,,,,,,,,,,,,,,,,,,,,,,,,,,,,,,,,,,,,,,,,,,,,,,,,,,,,,,,,,,,,,,,,,,,,,,,,,,,,,,,,,,,,,,,,,,,,,,,,,,,,,,,,,,,,,,,,,,,,
,,65a9a7fcb320353c4c4c96e0,2024-02-19_11h09.28.586,kallum_motion_pilot,2023.2.2,Win32,142.8571429,65a9a7fcb320353c4c4c96e0,65d2b6c8f2eece985d8e374c,65d2b84cf2cdb579bb1760b6,0.0227,0.0227,0,33,33,71,1,fourthree,,,,,,,,,,,,,,,,,,,,,,,,,,,,,,,,,,,,,,,,,,,,,,,,,,,,,,,,,,,,,,,,,,,,,,,,,,,,,,,,,,,,,,,,,,,,,,,,,,,,,,,,,,,,,,,,,,,,,,,,,,,,,,,,,,,,,,,,,
,,65a9a7fcb320353c4c4c96e0,2024-02-19_11h09.28.586,kallum_motion_pilot,2023.2.2,Win32,142.8571429,65a9a7fcb320353c4c4c96e0,65d2b6c8f2eece985d8e374c,65d2b84cf2cdb579bb1760b6,0.0227,0.0228,0,34,34,76,1,threeone,,,,,,,,,,,,,,,,,,,,,,,,,,,,,,,,,,,,,,,,,,,,,,,,,,,,,,,,,,,,,,,,,,,,,,,,,,,,,,,,,,,,,,,,,,,,,,,,,,,,,,,,,,,,,,,,,,,,,,,,,,,,,,,,,,,,,,,,,
,,65a9a7fcb320353c4c4c96e0,2024-02-19_11h09.28.586,kallum_motion_pilot,2023.2.2,Win32,142.8571429,65a9a7fcb320353c4c4c96e0,65d2b6c8f2eece985d8e374c,65d2b84cf2cdb579bb1760b6,0.0228,0.0228,0,35,35,60,1,threeone,,,,,,,,,,,,,,,,,,,,,,,,,,,,,,,,,,,,,,,,,,,,,,,,,,,,,,,,,,,,,,,,,,,,,,,,,,,,,,,,,,,,,,,,,,,,,,,,,,,,,,,,,,,,,,,,,,,,,,,,,,,,,,,,,,,,,,,,,
,,65a9a7fcb320353c4c4c96e0,2024-02-19_11h09.28.586,kallum_motion_pilot,2023.2.2,Win32,142.8571429,65a9a7fcb320353c4c4c96e0,65d2b6c8f2eece985d8e374c,65d2b84cf2cdb579bb1760b6,0.0228,0.0229,0,36,36,79,1,eightseven,,,,,,,,,,,,,,,,,,,,,,,,,,,,,,,,,,,,,,,,,,,,,,,,,,,,,,,,,,,,,,,,,,,,,,,,,,,,,,,,,,,,,,,,,,,,,,,,,,,,,,,,,,,,,,,,,,,,,,,,,,,,,,,,,,,,,,,,,
,,65a9a7fcb320353c4c4c96e0,2024-02-19_11h09.28.586,kallum_motion_pilot,2023.2.2,Win32,142.8571429,65a9a7fcb320353c4c4c96e0,65d2b6c8f2eece985d8e374c,65d2b84cf2cdb579bb1760b6,0.023,0.023,0,37,37,53,1,threefour,,,,,,,,,,,,,,,,,,,,,,,,,,,,,,,,,,,,,,,,,,,,,,,,,,,,,,,,,,,,,,,,,,,,,,,,,,,,,,,,,,,,,,,,,,,,,,,,,,,,,,,,,,,,,,,,,,,,,,,,,,,,,,,,,,,,,,,,,
,,65a9a7fcb320353c4c4c96e0,2024-02-19_11h09.28.586,kallum_motion_pilot,2023.2.2,Win32,142.8571429,65a9a7fcb320353c4c4c96e0,65d2b6c8f2eece985d8e374c,65d2b84cf2cdb579bb1760b6,0.023,0.023,0,38,38,114,1,sixfive,,,,,,,,,,,,,,,,,,,,,,,,,,,,,,,,,,,,,,,,,,,,,,,,,,,,,,,,,,,,,,,,,,,,,,,,,,,,,,,,,,,,,,,,,,,,,,,,,,,,,,,,,,,,,,,,,,,,,,,,,,,,,,,,,,,,,,,,,
,,65a9a7fcb320353c4c4c96e0,2024-02-19_11h09.28.586,kallum_motion_pilot,2023.2.2,Win32,142.8571429,65a9a7fcb320353c4c4c96e0,65d2b6c8f2eece985d8e374c,65d2b84cf2cdb579bb1760b6,0.0231,0.0231,0,39,39,118,1,eightsix,,,,,,,,,,,,,,,,,,,,,,,,,,,,,,,,,,,,,,,,,,,,,,,,,,,,,,,,,,,,,,,,,,,,,,,,,,,,,,,,,,,,,,,,,,,,,,,,,,,,,,,,,,,,,,,,,,,,,,,,,,,,,,,,,,,,,,,,,
,,65a9a7fcb320353c4c4c96e0,2024-02-19_11h09.28.586,kallum_motion_pilot,2023.2.2,Win32,142.8571429,65a9a7fcb320353c4c4c96e0,65d2b6c8f2eece985d8e374c,65d2b84cf2cdb579bb1760b6,0.0231,0.0231,0,40,40,104,1,fivesix,,,,,,,,,,,,,,,,,,,,,,,,,,,,,,,,,,,,,,,,,,,,,,,,,,,,,,,,,,,,,,,,,,,,,,,,,,,,,,,,,,,,,,,,,,,,,,,,,,,,,,,,,,,,,,,,,,,,,,,,,,,,,,,,,,,,,,,,,
,,65a9a7fcb320353c4c4c96e0,2024-02-19_11h09.28.586,kallum_motion_pilot,2023.2.2,Win32,142.8571429,65a9a7fcb320353c4c4c96e0,65d2b6c8f2eece985d8e374c,65d2b84cf2cdb579bb1760b6,0.0231,0.0232,0,41,41,105,1,fiveseven,,,,,,,,,,,,,,,,,,,,,,,,,,,,,,,,,,,,,,,,,,,,,,,,,,,,,,,,,,,,,,,,,,,,,,,,,,,,,,,,,,,,,,,,,,,,,,,,,,,,,,,,,,,,,,,,,,,,,,,,,,,,,,,,,,,,,,,,,
,,65a9a7fcb320353c4c4c96e0,2024-02-19_11h09.28.586,kallum_motion_pilot,2023.2.2,Win32,142.8571429,65a9a7fcb320353c4c4c96e0,65d2b6c8f2eece985d8e374c,65d2b84cf2cdb579bb1760b6,0.0232,0.0232,0,42,42,64,1,onetwo,,,,,,,,,,,,,,,,,,,,,,,,,,,,,,,,,,,,,,,,,,,,,,,,,,,,,,,,,,,,,,,,,,,,,,,,,,,,,,,,,,,,,,,,,,,,,,,,,,,,,,,,,,,,,,,,,,,,,,,,,,,,,,,,,,,,,,,,,
,,65a9a7fcb320353c4c4c96e0,2024-02-19_11h09.28.586,kallum_motion_pilot,2023.2.2,Win32,142.8571429,65a9a7fcb320353c4c4c96e0,65d2b6c8f2eece985d8e374c,65d2b84cf2cdb579bb1760b6,0.0233,0.0233,0,43,43,143,1,eightseven,,,,,,,,,,,,,,,,,,,,,,,,,,,,,,,,,,,,,,,,,,,,,,,,,,,,,,,,,,,,,,,,,,,,,,,,,,,,,,,,,,,,,,,,,,,,,,,,,,,,,,,,,,,,,,,,,,,,,,,,,,,,,,,,,,,,,,,,,
,,65a9a7fcb320353c4c4c96e0,2024-02-19_11h09.28.586,kallum_motion_pilot,2023.2.2,Win32,142.8571429,65a9a7fcb320353c4c4c96e0,65d2b6c8f2eece985d8e374c,65d2b84cf2cdb579bb1760b6,0.0233,0.0234,0,44,44,91,1,sixeight,,,,,,,,,,,,,,,,,,,,,,,,,,,,,,,,,,,,,,,,,,,,,,,,,,,,,,,,,,,,,,,,,,,,,,,,,,,,,,,,,,,,,,,,,,,,,,,,,,,,,,,,,,,,,,,,,,,,,,,,,,,,,,,,,,,,,,,,,
,,65a9a7fcb320353c4c4c96e0,2024-02-19_11h09.28.586,kallum_motion_pilot,2023.2.2,Win32,142.8571429,65a9a7fcb320353c4c4c96e0,65d2b6c8f2eece985d8e374c,65d2b84cf2cdb579bb1760b6,0.0234,0.0234,0,45,45,23,1,fourthree,,,,,,,,,,,,,,,,,,,,,,,,,,,,,,,,,,,,,,,,,,,,,,,,,,,,,,,,,,,,,,,,,,,,,,,,,,,,,,,,,,,,,,,,,,,,,,,,,,,,,,,,,,,,,,,,,,,,,,,,,,,,,,,,,,,,,,,,,
,,65a9a7fcb320353c4c4c96e0,2024-02-19_11h09.28.586,kallum_motion_pilot,2023.2.2,Win32,142.8571429,65a9a7fcb320353c4c4c96e0,65d2b6c8f2eece985d8e374c,65d2b84cf2cdb579bb1760b6,0.0235,0.0235,0,46,46,149,1,seveneight,,,,,,,,,,,,,,,,,,,,,,,,,,,,,,,,,,,,,,,,,,,,,,,,,,,,,,,,,,,,,,,,,,,,,,,,,,,,,,,,,,,,,,,,,,,,,,,,,,,,,,,,,,,,,,,,,,,,,,,,,,,,,,,,,,,,,,,,,
,,65a9a7fcb320353c4c4c96e0,2024-02-19_11h09.28.586,kallum_motion_pilot,2023.2.2,Win32,142.8571429,65a9a7fcb320353c4c4c96e0,65d2b6c8f2eece985d8e374c,65d2b84cf2cdb579bb1760b6,0.0235,0.0236,0,47,47,49,1,onethree,,,,,,,,,,,,,,,,,,,,,,,,,,,,,,,,,,,,,,,,,,,,,,,,,,,,,,,,,,,,,,,,,,,,,,,,,,,,,,,,,,,,,,,,,,,,,,,,,,,,,,,,,,,,,,,,,,,,,,,,,,,,,,,,,,,,,,,,,
,,65a9a7fcb320353c4c4c96e0,2024-02-19_11h09.28.586,kallum_motion_pilot,2023.2.2,Win32,142.8571429,65a9a7fcb320353c4c4c96e0,65d2b6c8f2eece985d8e374c,65d2b84cf2cdb579bb1760b6,0.0236,0.0236,0,48,48,78,1,fourtwo,,,,,,,,,,,,,,,,,,,,,,,,,,,,,,,,,,,,,,,,,,,,,,,,,,,,,,,,,,,,,,,,,,,,,,,,,,,,,,,,,,,,,,,,,,,,,,,,,,,,,,,,,,,,,,,,,,,,,,,,,,,,,,,,,,,,,,,,,
,,65a9a7fcb320353c4c4c96e0,2024-02-19_11h09.28.586,kallum_motion_pilot,2023.2.2,Win32,142.8571429,65a9a7fcb320353c4c4c96e0,65d2b6c8f2eece985d8e374c,65d2b84cf2cdb579bb1760b6,0.0236,0.0236,0,49,49,151,1,eightseven,,,,,,,,,,,,,,,,,,,,,,,,,,,,,,,,,,,,,,,,,,,,,,,,,,,,,,,,,,,,,,,,,,,,,,,,,,,,,,,,,,,,,,,,,,,,,,,,,,,,,,,,,,,,,,,,,,,,,,,,,,,,,,,,,,,,,,,,,
,,65a9a7fcb320353c4c4c96e0,2024-02-19_11h09.28.586,kallum_motion_pilot,2023.2.2,Win32,142.8571429,65a9a7fcb320353c4c4c96e0,65d2b6c8f2eece985d8e374c,65d2b84cf2cdb579bb1760b6,0.0237,0.0238,0,50,50,111,1,eightseven,,,,,,,,,,,,,,,,,,,,,,,,,,,,,,,,,,,,,,,,,,,,,,,,,,,,,,,,,,,,,,,,,,,,,,,,,,,,,,,,,,,,,,,,,,,,,,,,,,,,,,,,,,,,,,,,,,,,,,,,,,,,,,,,,,,,,,,,,
,,65a9a7fcb320353c4c4c96e0,2024-02-19_11h09.28.586,kallum_motion_pilot,2023.2.2,Win32,142.8571429,65a9a7fcb320353c4c4c96e0,65d2b6c8f2eece985d8e374c,65d2b84cf2cdb579bb1760b6,0.0238,0.0238,0,51,51,65,1,onethree,,,,,,,,,,,,,,,,,,,,,,,,,,,,,,,,,,,,,,,,,,,,,,,,,,,,,,,,,,,,,,,,,,,,,,,,,,,,,,,,,,,,,,,,,,,,,,,,,,,,,,,,,,,,,,,,,,,,,,,,,,,,,,,,,,,,,,,,,
,,65a9a7fcb320353c4c4c96e0,2024-02-19_11h09.28.586,kallum_motion_pilot,2023.2.2,Win32,142.8571429,65a9a7fcb320353c4c4c96e0,65d2b6c8f2eece985d8e374c,65d2b84cf2cdb579bb1760b6,0.0239,0.0239,0,52,52,112,1,fivesix,,,,,,,,,,,,,,,,,,,,,,,,,,,,,,,,,,,,,,,,,,,,,,,,,,,,,,,,,,,,,,,,,,,,,,,,,,,,,,,,,,,,,,,,,,,,,,,,,,,,,,,,,,,,,,,,,,,,,,,,,,,,,,,,,,,,,,,,,
,,65a9a7fcb320353c4c4c96e0,2024-02-19_11h09.28.586,kallum_motion_pilot,2023.2.2,Win32,142.8571429,65a9a7fcb320353c4c4c96e0,65d2b6c8f2eece985d8e374c,65d2b84cf2cdb579bb1760b6,0.0239,0.0239,0,53,53,119,1,eightseven,,,,,,,,,,,,,,,,,,,,,,,,,,,,,,,,,,,,,,,,,,,,,,,,,,,,,,,,,,,,,,,,,,,,,,,,,,,,,,,,,,,,,,,,,,,,,,,,,,,,,,,,,,,,,,,,,,,,,,,,,,,,,,,,,,,,,,,,,
,,65a9a7fcb320353c4c4c96e0,2024-02-19_11h09.28.586,kallum_motion_pilot,2023.2.2,Win32,142.8571429,65a9a7fcb320353c4c4c96e0,65d2b6c8f2eece985d8e374c,65d2b84cf2cdb579bb1760b6,0.024,0.024,0,54,54,27,1,twofour,,,,,,,,,,,,,,,,,,,,,,,,,,,,,,,,,,,,,,,,,,,,,,,,,,,,,,,,,,,,,,,,,,,,,,,,,,,,,,,,,,,,,,,,,,,,,,,,,,,,,,,,,,,,,,,,,,,,,,,,,,,,,,,,,,,,,,,,,
,,65a9a7fcb320353c4c4c96e0,2024-02-19_11h09.28.586,kallum_motion_pilot,2023.2.2,Win32,142.8571429,65a9a7fcb320353c4c4c96e0,65d2b6c8f2eece985d8e374c,65d2b84cf2cdb579bb1760b6,0.024,0.024,0,55,55,33,1,onethree,,,,,,,,,,,,,,,,,,,,,,,,,,,,,,,,,,,,,,,,,,,,,,,,,,,,,,,,,,,,,,,,,,,,,,,,,,,,,,,,,,,,,,,,,,,,,,,,,,,,,,,,,,,,,,,,,,,,,,,,,,,,,,,,,,,,,,,,,
,,65a9a7fcb320353c4c4c96e0,2024-02-19_11h09.28.586,kallum_motion_pilot,2023.2.2,Win32,142.8571429,65a9a7fcb320353c4c4c96e0,65d2b6c8f2eece985d8e374c,65d2b84cf2cdb579bb1760b6,0.0241,0.0242,0,56,56,8,1,onetwo,,,,,,,,,,,,,,,,,,,,,,,,,,,,,,,,,,,,,,,,,,,,,,,,,,,,,,,,,,,,,,,,,,,,,,,,,,,,,,,,,,,,,,,,,,,,,,,,,,,,,,,,,,,,,,,,,,,,,,,,,,,,,,,,,,,,,,,,,
,,65a9a7fcb320353c4c4c96e0,2024-02-19_11h09.28.586,kallum_motion_pilot,2023.2.2,Win32,142.8571429,65a9a7fcb320353c4c4c96e0,65d2b6c8f2eece985d8e374c,65d2b84cf2cdb579bb1760b6,0.0242,0.0242,0,57,57,125,1,seveneight,,,,,,,,,,,,,,,,,,,,,,,,,,,,,,,,,,,,,,,,,,,,,,,,,,,,,,,,,,,,,,,,,,,,,,,,,,,,,,,,,,,,,,,,,,,,,,,,,,,,,,,,,,,,,,,,,,,,,,,,,,,,,,,,,,,,,,,,,
,,65a9a7fcb320353c4c4c96e0,2024-02-19_11h09.28.586,kallum_motion_pilot,2023.2.2,Win32,142.8571429,65a9a7fcb320353c4c4c96e0,65d2b6c8f2eece985d8e374c,65d2b84cf2cdb579bb1760b6,0.0242,0.0243,0,58,58,0,1,onetwo,,,,,,,,,,,,,,,,,,,,,,,,,,,,,,,,,,,,,,,,,,,,,,,,,,,,,,,,,,,,,,,,,,,,,,,,,,,,,,,,,,,,,,,,,,,,,,,,,,,,,,,,,,,,,,,,,,,,,,,,,,,,,,,,,,,,,,,,,
,,65a9a7fcb320353c4c4c96e0,2024-02-19_11h09.28.586,kallum_motion_pilot,2023.2.2,Win32,142.8571429,65a9a7fcb320353c4c4c96e0,65d2b6c8f2eece985d8e374c,65d2b84cf2cdb579bb1760b6,0.0243,0.0243,0,59,59,117,1,seveneight,,,,,,,,,,,,,,,,,,,,,,,,,,,,,,,,,,,,,,,,,,,,,,,,,,,,,,,,,,,,,,,,,,,,,,,,,,,,,,,,,,,,,,,,,,,,,,,,,,,,,,,,,,,,,,,,,,,,,,,,,,,,,,,,,,,,,,,,,
,,65a9a7fcb320353c4c4c96e0,2024-02-19_11h09.28.586,kallum_motion_pilot,2023.2.2,Win32,142.8571429,65a9a7fcb320353c4c4c96e0,65d2b6c8f2eece985d8e374c,65d2b84cf2cdb579bb1760b6,0.0244,0.0244,0,60,60,144,1,fivesix,,,,,,,,,,,,,,,,,,,,,,,,,,,,,,,,,,,,,,,,,,,,,,,,,,,,,,,,,,,,,,,,,,,,,,,,,,,,,,,,,,,,,,,,,,,,,,,,,,,,,,,,,,,,,,,,,,,,,,,,,,,,,,,,,,,,,,,,,
,,65a9a7fcb320353c4c4c96e0,2024-02-19_11h09.28.586,kallum_motion_pilot,2023.2.2,Win32,142.8571429,65a9a7fcb320353c4c4c96e0,65d2b6c8f2eece985d8e374c,65d2b84cf2cdb579bb1760b6,0.0244,0.0245,0,61,61,51,1,twofour,,,,,,,,,,,,,,,,,,,,,,,,,,,,,,,,,,,,,,,,,,,,,,,,,,,,,,,,,,,,,,,,,,,,,,,,,,,,,,,,,,,,,,,,,,,,,,,,,,,,,,,,,,,,,,,,,,,,,,,,,,,,,,,,,,,,,,,,,
,,65a9a7fcb320353c4c4c96e0,2024-02-19_11h09.28.586,kallum_motion_pilot,2023.2.2,Win32,142.8571429,65a9a7fcb320353c4c4c96e0,65d2b6c8f2eece985d8e374c,65d2b84cf2cdb579bb1760b6,0.0245,0.0245,0,62,62,130,1,sixfive,,,,,,,,,,,,,,,,,,,,,,,,,,,,,,,,,,,,,,,,,,,,,,,,,,,,,,,,,,,,,,,,,,,,,,,,,,,,,,,,,,,,,,,,,,,,,,,,,,,,,,,,,,,,,,,,,,,,,,,,,,,,,,,,,,,,,,,,,
,,65a9a7fcb320353c4c4c96e0,2024-02-19_11h09.28.586,kallum_motion_pilot,2023.2.2,Win32,142.8571429,65a9a7fcb320353c4c4c96e0,65d2b6c8f2eece985d8e374c,65d2b84cf2cdb579bb1760b6,0.0246,0.0247,0,63,63,54,1,fourtwo,,,,,,,,,,,,,,,,,,,,,,,,,,,,,,,,,,,,,,,,,,,,,,,,,,,,,,,,,,,,,,,,,,,,,,,,,,,,,,,,,,,,,,,,,,,,,,,,,,,,,,,,,,,,,,,,,,,,,,,,,,,,,,,,,,,,,,,,,
,,65a9a7fcb320353c4c4c96e0,2024-02-19_11h09.28.586,kallum_motion_pilot,2023.2.2,Win32,142.8571429,65a9a7fcb320353c4c4c96e0,65d2b6c8f2eece985d8e374c,65d2b84cf2cdb579bb1760b6,0.0248,0.0248,0,64,64,93,1,seveneight,,,,,,,,,,,,,,,,,,,,,,,,,,,,,,,,,,,,,,,,,,,,,,,,,,,,,,,,,,,,,,,,,,,,,,,,,,,,,,,,,,,,,,,,,,,,,,,,,,,,,,,,,,,,,,,,,,,,,,,,,,,,,,,,,,,,,,,,,
,,65a9a7fcb320353c4c4c96e0,2024-02-19_11h09.28.586,kallum_motion_pilot,2023.2.2,Win32,142.8571429,65a9a7fcb320353c4c4c96e0,65d2b6c8f2eece985d8e374c,65d2b84cf2cdb579bb1760b6,0.0249,0.025,0,65,65,159,1,eightseven,,,,,,,,,,,,,,,,,,,,,,,,,,,,,,,,,,,,,,,,,,,,,,,,,,,,,,,,,,,,,,,,,,,,,,,,,,,,,,,,,,,,,,,,,,,,,,,,,,,,,,,,,,,,,,,,,,,,,,,,,,,,,,,,,,,,,,,,,
,,65a9a7fcb320353c4c4c96e0,2024-02-19_11h09.28.586,kallum_motion_pilot,2023.2.2,Win32,142.8571429,65a9a7fcb320353c4c4c96e0,65d2b6c8f2eece985d8e374c,65d2b84cf2cdb579bb1760b6,0.025,0.025,0,66,66,34,1,twoone,,,,,,,,,,,,,,,,,,,,,,,,,,,,,,,,,,,,,,,,,,,,,,,,,,,,,,,,,,,,,,,,,,,,,,,,,,,,,,,,,,,,,,,,,,,,,,,,,,,,,,,,,,,,,,,,,,,,,,,,,,,,,,,,,,,,,,,,,
,,65a9a7fcb320353c4c4c96e0,2024-02-19_11h09.28.586,kallum_motion_pilot,2023.2.2,Win32,142.8571429,65a9a7fcb320353c4c4c96e0,65d2b6c8f2eece985d8e374c,65d2b84cf2cdb579bb1760b6,0.0251,0.0251,0,67,67,156,1,sevenfive,,,,,,,,,,,,,,,,,,,,,,,,,,,,,,,,,,,,,,,,,,,,,,,,,,,,,,,,,,,,,,,,,,,,,,,,,,,,,,,,,,,,,,,,,,,,,,,,,,,,,,,,,,,,,,,,,,,,,,,,,,,,,,,,,,,,,,,,,
,,65a9a7fcb320353c4c4c96e0,2024-02-19_11h09.28.586,kallum_motion_pilot,2023.2.2,Win32,142.8571429,65a9a7fcb320353c4c4c96e0,65d2b6c8f2eece985d8e374c,65d2b84cf2cdb579bb1760b6,0.0252,0.0252,0,68,68,85,1,seveneight,,,,,,,,,,,,,,,,,,,,,,,,,,,,,,,,,,,,,,,,,,,,,,,,,,,,,,,,,,,,,,,,,,,,,,,,,,,,,,,,,,,,,,,,,,,,,,,,,,,,,,,,,,,,,,,,,,,,,,,,,,,,,,,,,,,,,,,,,
,,65a9a7fcb320353c4c4c96e0,2024-02-19_11h09.28.586,kallum_motion_pilot,2023.2.2,Win32,142.8571429,65a9a7fcb320353c4c4c96e0,65d2b6c8f2eece985d8e374c,65d2b84cf2cdb579bb1760b6,0.0252,0.0253,0,69,69,148,1,sevenfive,,,,,,,,,,,,,,,,,,,,,,,,,,,,,,,,,,,,,,,,,,,,,,,,,,,,,,,,,,,,,,,,,,,,,,,,,,,,,,,,,,,,,,,,,,,,,,,,,,,,,,,,,,,,,,,,,,,,,,,,,,,,,,,,,,,,,,,,,
,,65a9a7fcb320353c4c4c96e0,2024-02-19_11h09.28.586,kallum_motion_pilot,2023.2.2,Win32,142.8571429,65a9a7fcb320353c4c4c96e0,65d2b6c8f2eece985d8e374c,65d2b84cf2cdb579bb1760b6,0.0254,0.0254,0,70,70,109,1,seveneight,,,,,,,,,,,,,,,,,,,,,,,,,,,,,,,,,,,,,,,,,,,,,,,,,,,,,,,,,,,,,,,,,,,,,,,,,,,,,,,,,,,,,,,,,,,,,,,,,,,,,,,,,,,,,,,,,,,,,,,,,,,,,,,,,,,,,,,,,
,,65a9a7fcb320353c4c4c96e0,2024-02-19_11h09.28.586,kallum_motion_pilot,2023.2.2,Win32,142.8571429,65a9a7fcb320353c4c4c96e0,65d2b6c8f2eece985d8e374c,65d2b84cf2cdb579bb1760b6,0.0254,0.0255,0,71,71,100,1,sevenfive,,,,,,,,,,,,,,,,,,,,,,,,,,,,,,,,,,,,,,,,,,,,,,,,,,,,,,,,,,,,,,,,,,,,,,,,,,,,,,,,,,,,,,,,,,,,,,,,,,,,,,,,,,,,,,,,,,,,,,,,,,,,,,,,,,,,,,,,,
,,65a9a7fcb320353c4c4c96e0,2024-02-19_11h09.28.586,kallum_motion_pilot,2023.2.2,Win32,142.8571429,65a9a7fcb320353c4c4c96e0,65d2b6c8f2eece985d8e374c,65d2b84cf2cdb579bb1760b6,0.0255,0.0255,0,72,72,124,1,sevenfive,,,,,,,,,,,,,,,,,,,,,,,,,,,,,,,,,,,,,,,,,,,,,,,,,,,,,,,,,,,,,,,,,,,,,,,,,,,,,,,,,,,,,,,,,,,,,,,,,,,,,,,,,,,,,,,,,,,,,,,,,,,,,,,,,,,,,,,,,
,,65a9a7fcb320353c4c4c96e0,2024-02-19_11h09.28.586,kallum_motion_pilot,2023.2.2,Win32,142.8571429,65a9a7fcb320353c4c4c96e0,65d2b6c8f2eece985d8e374c,65d2b84cf2cdb579bb1760b6,0.0255,0.0256,0,73,73,28,1,threeone,,,,,,,,,,,,,,,,,,,,,,,,,,,,,,,,,,,,,,,,,,,,,,,,,,,,,,,,,,,,,,,,,,,,,,,,,,,,,,,,,,,,,,,,,,,,,,,,,,,,,,,,,,,,,,,,,,,,,,,,,,,,,,,,,,,,,,,,,
,,65a9a7fcb320353c4c4c96e0,2024-02-19_11h09.28.586,kallum_motion_pilot,2023.2.2,Win32,142.8571429,65a9a7fcb320353c4c4c96e0,65d2b6c8f2eece985d8e374c,65d2b84cf2cdb579bb1760b6,0.0256,0.0256,0,74,74,29,1,threefour,,,,,,,,,,,,,,,,,,,,,,,,,,,,,,,,,,,,,,,,,,,,,,,,,,,,,,,,,,,,,,,,,,,,,,,,,,,,,,,,,,,,,,,,,,,,,,,,,,,,,,,,,,,,,,,,,,,,,,,,,,,,,,,,,,,,,,,,,
,,65a9a7fcb320353c4c4c96e0,2024-02-19_11h09.28.586,kallum_motion_pilot,2023.2.2,Win32,142.8571429,65a9a7fcb320353c4c4c96e0,65d2b6c8f2eece985d8e374c,65d2b84cf2cdb579bb1760b6,0.0257,0.0257,0,75,75,73,1,onethree,,,,,,,,,,,,,,,,,,,,,,,,,,,,,,,,,,,,,,,,,,,,,,,,,,,,,,,,,,,,,,,,,,,,,,,,,,,,,,,,,,,,,,,,,,,,,,,,,,,,,,,,,,,,,,,,,,,,,,,,,,,,,,,,,,,,,,,,,
,,65a9a7fcb320353c4c4c96e0,2024-02-19_11h09.28.586,kallum_motion_pilot,2023.2.2,Win32,142.8571429,65a9a7fcb320353c4c4c96e0,65d2b6c8f2eece985d8e374c,65d2b84cf2cdb579bb1760b6,0.0258,0.0258,0,76,76,59,1,twofour,,,,,,,,,,,,,,,,,,,,,,,,,,,,,,,,,,,,,,,,,,,,,,,,,,,,,,,,,,,,,,,,,,,,,,,,,,,,,,,,,,,,,,,,,,,,,,,,,,,,,,,,,,,,,,,,,,,,,,,,,,,,,,,,,,,,,,,,,
,,65a9a7fcb320353c4c4c96e0,2024-02-19_11h09.28.586,kallum_motion_pilot,2023.2.2,Win32,142.8571429,65a9a7fcb320353c4c4c96e0,65d2b6c8f2eece985d8e374c,65d2b84cf2cdb579bb1760b6,0.0258,0.0258,0,77,77,6,1,fourtwo,,,,,,,,,,,,,,,,,,,,,,,,,,,,,,,,,,,,,,,,,,,,,,,,,,,,,,,,,,,,,,,,,,,,,,,,,,,,,,,,,,,,,,,,,,,,,,,,,,,,,,,,,,,,,,,,,,,,,,,,,,,,,,,,,,,,,,,,,
,,65a9a7fcb320353c4c4c96e0,2024-02-19_11h09.28.586,kallum_motion_pilot,2023.2.2,Win32,142.8571429,65a9a7fcb320353c4c4c96e0,65d2b6c8f2eece985d8e374c,65d2b84cf2cdb579bb1760b6,0.0259,0.026,0,78,78,12,1,threeone,,,,,,,,,,,,,,,,,,,,,,,,,,,,,,,,,,,,,,,,,,,,,,,,,,,,,,,,,,,,,,,,,,,,,,,,,,,,,,,,,,,,,,,,,,,,,,,,,,,,,,,,,,,,,,,,,,,,,,,,,,,,,,,,,,,,,,,,,
,,65a9a7fcb320353c4c4c96e0,2024-02-19_11h09.28.586,kallum_motion_pilot,2023.2.2,Win32,142.8571429,65a9a7fcb320353c4c4c96e0,65d2b6c8f2eece985d8e374c,65d2b84cf2cdb579bb1760b6,0.026,0.026,0,79,79,7,1,fourthree,,,,,,,,,,,,,,,,,,,,,,,,,,,,,,,,,,,,,,,,,,,,,,,,,,,,,,,,,,,,,,,,,,,,,,,,,,,,,,,,,,,,,,,,,,,,,,,,,,,,,,,,,,,,,,,,,,,,,,,,,,,,,,,,,,,,,,,,,
,,65a9a7fcb320353c4c4c96e0,2024-02-19_11h09.28.586,kallum_motion_pilot,2023.2.2,Win32,142.8571429,65a9a7fcb320353c4c4c96e0,65d2b6c8f2eece985d8e374c,65d2b84cf2cdb579bb1760b6,0.0261,0.0261,0,80,80,95,1,eightseven,,,,,,,,,,,,,,,,,,,,,,,,,,,,,,,,,,,,,,,,,,,,,,,,,,,,,,,,,,,,,,,,,,,,,,,,,,,,,,,,,,,,,,,,,,,,,,,,,,,,,,,,,,,,,,,,,,,,,,,,,,,,,,,,,,,,,,,,,
,,65a9a7fcb320353c4c4c96e0,2024-02-19_11h09.28.586,kallum_motion_pilot,2023.2.2,Win32,142.8571429,65a9a7fcb320353c4c4c96e0,65d2b6c8f2eece985d8e374c,65d2b84cf2cdb579bb1760b6,0.0262,0.0262,0,81,81,123,1,sixeight,,,,,,,,,,,,,,,,,,,,,,,,,,,,,,,,,,,,,,,,,,,,,,,,,,,,,,,,,,,,,,,,,,,,,,,,,,,,,,,,,,,,,,,,,,,,,,,,,,,,,,,,,,,,,,,,,,,,,,,,,,,,,,,,,,,,,,,,,
,,65a9a7fcb320353c4c4c96e0,2024-02-19_11h09.28.586,kallum_motion_pilot,2023.2.2,Win32,142.8571429,65a9a7fcb320353c4c4c96e0,65d2b6c8f2eece985d8e374c,65d2b84cf2cdb579bb1760b6,0.0262,0.0262,0,82,82,153,1,fiveseven,,,,,,,,,,,,,,,,,,,,,,,,,,,,,,,,,,,,,,,,,,,,,,,,,,,,,,,,,,,,,,,,,,,,,,,,,,,,,,,,,,,,,,,,,,,,,,,,,,,,,,,,,,,,,,,,,,,,,,,,,,,,,,,,,,,,,,,,,
,,65a9a7fcb320353c4c4c96e0,2024-02-19_11h09.28.586,kallum_motion_pilot,2023.2.2,Win32,142.8571429,65a9a7fcb320353c4c4c96e0,65d2b6c8f2eece985d8e374c,65d2b84cf2cdb579bb1760b6,0.0263,0.0264,0,83,83,9,1,onethree,,,,,,,,,,,,,,,,,,,,,,,,,,,,,,,,,,,,,,,,,,,,,,,,,,,,,,,,,,,,,,,,,,,,,,,,,,,,,,,,,,,,,,,,,,,,,,,,,,,,,,,,,,,,,,,,,,,,,,,,,,,,,,,,,,,,,,,,,
,,65a9a7fcb320353c4c4c96e0,2024-02-19_11h09.28.586,kallum_motion_pilot,2023.2.2,Win32,142.8571429,65a9a7fcb320353c4c4c96e0,65d2b6c8f2eece985d8e374c,65d2b84cf2cdb579bb1760b6,0.0264,0.0264,0,84,84,150,1,eightsix,,,,,,,,,,,,,,,,,,,,,,,,,,,,,,,,,,,,,,,,,,,,,,,,,,,,,,,,,,,,,,,,,,,,,,,,,,,,,,,,,,,,,,,,,,,,,,,,,,,,,,,,,,,,,,,,,,,,,,,,,,,,,,,,,,,,,,,,,
,,65a9a7fcb320353c4c4c96e0,2024-02-19_11h09.28.586,kallum_motion_pilot,2023.2.2,Win32,142.8571429,65a9a7fcb320353c4c4c96e0,65d2b6c8f2eece985d8e374c,65d2b84cf2cdb579bb1760b6,0.0264,0.0264,0,85,85,158,1,eightsix,,,,,,,,,,,,,,,,,,,,,,,,,,,,,,,,,,,,,,,,,,,,,,,,,,,,,,,,,,,,,,,,,,,,,,,,,,,,,,,,,,,,,,,,,,,,,,,,,,,,,,,,,,,,,,,,,,,,,,,,,,,,,,,,,,,,,,,,,
,,65a9a7fcb320353c4c4c96e0,2024-02-19_11h09.28.586,kallum_motion_pilot,2023.2.2,Win32,142.8571429,65a9a7fcb320353c4c4c96e0,65d2b6c8f2eece985d8e374c,65d2b84cf2cdb579bb1760b6,0.0265,0.0266,0,86,86,66,1,twoone,,,,,,,,,,,,,,,,,,,,,,,,,,,,,,,,,,,,,,,,,,,,,,,,,,,,,,,,,,,,,,,,,,,,,,,,,,,,,,,,,,,,,,,,,,,,,,,,,,,,,,,,,,,,,,,,,,,,,,,,,,,,,,,,,,,,,,,,,
,,65a9a7fcb320353c4c4c96e0,2024-02-19_11h09.28.586,kallum_motion_pilot,2023.2.2,Win32,142.8571429,65a9a7fcb320353c4c4c96e0,65d2b6c8f2eece985d8e374c,65d2b84cf2cdb579bb1760b6,0.0266,0.0267,0,87,87,56,1,onetwo,,,,,,,,,,,,,,,,,,,,,,,,,,,,,,,,,,,,,,,,,,,,,,,,,,,,,,,,,,,,,,,,,,,,,,,,,,,,,,,,,,,,,,,,,,,,,,,,,,,,,,,,,,,,,,,,,,,,,,,,,,,,,,,,,,,,,,,,,
,,65a9a7fcb320353c4c4c96e0,2024-02-19_11h09.28.586,kallum_motion_pilot,2023.2.2,Win32,142.8571429,65a9a7fcb320353c4c4c96e0,65d2b6c8f2eece985d8e374c,65d2b84cf2cdb579bb1760b6,0.0267,0.0267,0,88,88,42,1,twoone,,,,,,,,,,,,,,,,,,,,,,,,,,,,,,,,,,,,,,,,,,,,,,,,,,,,,,,,,,,,,,,,,,,,,,,,,,,,,,,,,,,,,,,,,,,,,,,,,,,,,,,,,,,,,,,,,,,,,,,,,,,,,,,,,,,,,,,,,
,,65a9a7fcb320353c4c4c96e0,2024-02-19_11h09.28.586,kallum_motion_pilot,2023.2.2,Win32,142.8571429,65a9a7fcb320353c4c4c96e0,65d2b6c8f2eece985d8e374c,65d2b84cf2cdb579bb1760b6,0.0268,0.0268,0,89,89,81,1,fiveseven,,,,,,,,,,,,,,,,,,,,,,,,,,,,,,,,,,,,,,,,,,,,,,,,,,,,,,,,,,,,,,,,,,,,,,,,,,,,,,,,,,,,,,,,,,,,,,,,,,,,,,,,,,,,,,,,,,,,,,,,,,,,,,,,,,,,,,,,,
,,65a9a7fcb320353c4c4c96e0,2024-02-19_11h09.28.586,kallum_motion_pilot,2023.2.2,Win32,142.8571429,65a9a7fcb320353c4c4c96e0,65d2b6c8f2eece985d8e374c,65d2b84cf2cdb579bb1760b6,0.0268,0.0269,0,90,90,133,1,seveneight,,,,,,,,,,,,,,,,,,,,,,,,,,,,,,,,,,,,,,,,,,,,,,,,,,,,,,,,,,,,,,,,,,,,,,,,,,,,,,,,,,,,,,,,,,,,,,,,,,,,,,,,,,,,,,,,,,,,,,,,,,,,,,,,,,,,,,,,,
,,65a9a7fcb320353c4c4c96e0,2024-02-19_11h09.28.586,kallum_motion_pilot,2023.2.2,Win32,142.8571429,65a9a7fcb320353c4c4c96e0,65d2b6c8f2eece985d8e374c,65d2b84cf2cdb579bb1760b6,0.0269,0.0269,0,91,91,108,1,sevenfive,,,,,,,,,,,,,,,,,,,,,,,,,,,,,,,,,,,,,,,,,,,,,,,,,,,,,,,,,,,,,,,,,,,,,,,,,,,,,,,,,,,,,,,,,,,,,,,,,,,,,,,,,,,,,,,,,,,,,,,,,,,,,,,,,,,,,,,,,
,,65a9a7fcb320353c4c4c96e0,2024-02-19_11h09.28.586,kallum_motion_pilot,2023.2.2,Win32,142.8571429,65a9a7fcb320353c4c4c96e0,65d2b6c8f2eece985d8e374c,65d2b84cf2cdb579bb1760b6,0.0269,0.027,0,92,92,141,1,seveneight,,,,,,,,,,,,,,,,,,,,,,,,,,,,,,,,,,,,,,,,,,,,,,,,,,,,,,,,,,,,,,,,,,,,,,,,,,,,,,,,,,,,,,,,,,,,,,,,,,,,,,,,,,,,,,,,,,,,,,,,,,,,,,,,,,,,,,,,,
,,65a9a7fcb320353c4c4c96e0,2024-02-19_11h09.28.586,kallum_motion_pilot,2023.2.2,Win32,142.8571429,65a9a7fcb320353c4c4c96e0,65d2b6c8f2eece985d8e374c,65d2b84cf2cdb579bb1760b6,0.027,0.027,0,93,93,145,1,fiveseven,,,,,,,,,,,,,,,,,,,,,,,,,,,,,,,,,,,,,,,,,,,,,,,,,,,,,,,,,,,,,,,,,,,,,,,,,,,,,,,,,,,,,,,,,,,,,,,,,,,,,,,,,,,,,,,,,,,,,,,,,,,,,,,,,,,,,,,,,
,,65a9a7fcb320353c4c4c96e0,2024-02-19_11h09.28.586,kallum_motion_pilot,2023.2.2,Win32,142.8571429,65a9a7fcb320353c4c4c96e0,65d2b6c8f2eece985d8e374c,65d2b84cf2cdb579bb1760b6,0.0271,0.0272,0,94,94,10,1,twoone,,,,,,,,,,,,,,,,,,,,,,,,,,,,,,,,,,,,,,,,,,,,,,,,,,,,,,,,,,,,,,,,,,,,,,,,,,,,,,,,,,,,,,,,,,,,,,,,,,,,,,,,,,,,,,,,,,,,,,,,,,,,,,,,,,,,,,,,,
,,65a9a7fcb320353c4c4c96e0,2024-02-19_11h09.28.586,kallum_motion_pilot,2023.2.2,Win32,142.8571429,65a9a7fcb320353c4c4c96e0,65d2b6c8f2eece985d8e374c,65d2b84cf2cdb579bb1760b6,0.0272,0.0272,0,95,95,30,1,fourtwo,,,,,,,,,,,,,,,,,,,,,,,,,,,,,,,,,,,,,,,,,,,,,,,,,,,,,,,,,,,,,,,,,,,,,,,,,,,,,,,,,,,,,,,,,,,,,,,,,,,,,,,,,,,,,,,,,,,,,,,,,,,,,,,,,,,,,,,,,
,,65a9a7fcb320353c4c4c96e0,2024-02-19_11h09.28.586,kallum_motion_pilot,2023.2.2,Win32,142.8571429,65a9a7fcb320353c4c4c96e0,65d2b6c8f2eece985d8e374c,65d2b84cf2cdb579bb1760b6,0.0272,0.0272,0,96,96,32,1,onetwo,,,,,,,,,,,,,,,,,,,,,,,,,,,,,,,,,,,,,,,,,,,,,,,,,,,,,,,,,,,,,,,,,,,,,,,,,,,,,,,,,,,,,,,,,,,,,,,,,,,,,,,,,,,,,,,,,,,,,,,,,,,,,,,,,,,,,,,,,
,,65a9a7fcb320353c4c4c96e0,2024-02-19_11h09.28.586,kallum_motion_pilot,2023.2.2,Win32,142.8571429,65a9a7fcb320353c4c4c96e0,65d2b6c8f2eece985d8e374c,65d2b84cf2cdb579bb1760b6,0.0273,0.0273,0,97,97,88,1,fivesix,,,,,,,,,,,,,,,,,,,,,,,,,,,,,,,,,,,,,,,,,,,,,,,,,,,,,,,,,,,,,,,,,,,,,,,,,,,,,,,,,,,,,,,,,,,,,,,,,,,,,,,,,,,,,,,,,,,,,,,,,,,,,,,,,,,,,,,,,
,,65a9a7fcb320353c4c4c96e0,2024-02-19_11h09.28.586,kallum_motion_pilot,2023.2.2,Win32,142.8571429,65a9a7fcb320353c4c4c96e0,65d2b6c8f2eece985d8e374c,65d2b84cf2cdb579bb1760b6,0.0274,0.0274,0,98,98,99,1,sixeight,,,,,,,,,,,,,,,,,,,,,,,,,,,,,,,,,,,,,,,,,,,,,,,,,,,,,,,,,,,,,,,,,,,,,,,,,,,,,,,,,,,,,,,,,,,,,,,,,,,,,,,,,,,,,,,,,,,,,,,,,,,,,,,,,,,,,,,,,
,,65a9a7fcb320353c4c4c96e0,2024-02-19_11h09.28.586,kallum_motion_pilot,2023.2.2,Win32,142.8571429,65a9a7fcb320353c4c4c96e0,65d2b6c8f2eece985d8e374c,65d2b84cf2cdb579bb1760b6,0.0275,0.0275,0,99,99,47,1,fourthree,,,,,,,,,,,,,,,,,,,,,,,,,,,,,,,,,,,,,,,,,,,,,,,,,,,,,,,,,,,,,,,,,,,,,,,,,,,,,,,,,,,,,,,,,,,,,,,,,,,,,,,,,,,,,,,,,,,,,,,,,,,,,,,,,,,,,,,,,
,,65a9a7fcb320353c4c4c96e0,2024-02-19_11h09.28.586,kallum_motion_pilot,2023.2.2,Win32,142.8571429,65a9a7fcb320353c4c4c96e0,65d2b6c8f2eece985d8e374c,65d2b84cf2cdb579bb1760b6,0.0275,0.0276,0,100,100,107,1,sixeight,,,,,,,,,,,,,,,,,,,,,,,,,,,,,,,,,,,,,,,,,,,,,,,,,,,,,,,,,,,,,,,,,,,,,,,,,,,,,,,,,,,,,,,,,,,,,,,,,,,,,,,,,,,,,,,,,,,,,,,,,,,,,,,,,,,,,,,,,
,,65a9a7fcb320353c4c4c96e0,2024-02-19_11h09.28.586,kallum_motion_pilot,2023.2.2,Win32,142.8571429,65a9a7fcb320353c4c4c96e0,65d2b6c8f2eece985d8e374c,65d2b84cf2cdb579bb1760b6,0.0276,0.0276,0,101,101,41,1,onethree,,,,,,,,,,,,,,,,,,,,,,,,,,,,,,,,,,,,,,,,,,,,,,,,,,,,,,,,,,,,,,,,,,,,,,,,,,,,,,,,,,,,,,,,,,,,,,,,,,,,,,,,,,,,,,,,,,,,,,,,,,,,,,,,,,,,,,,,,
,,65a9a7fcb320353c4c4c96e0,2024-02-19_11h09.28.586,kallum_motion_pilot,2023.2.2,Win32,142.8571429,65a9a7fcb320353c4c4c96e0,65d2b6c8f2eece985d8e374c,65d2b84cf2cdb579bb1760b6,0.0277,0.0277,0,102,102,24,1,onetwo,,,,,,,,,,,,,,,,,,,,,,,,,,,,,,,,,,,,,,,,,,,,,,,,,,,,,,,,,,,,,,,,,,,,,,,,,,,,,,,,,,,,,,,,,,,,,,,,,,,,,,,,,,,,,,,,,,,,,,,,,,,,,,,,,,,,,,,,,
,,65a9a7fcb320353c4c4c96e0,2024-02-19_11h09.28.586,kallum_motion_pilot,2023.2.2,Win32,142.8571429,65a9a7fcb320353c4c4c96e0,65d2b6c8f2eece985d8e374c,65d2b84cf2cdb579bb1760b6,0.0277,0.0277,0,103,103,25,1,onethree,,,,,,,,,,,,,,,,,,,,,,,,,,,,,,,,,,,,,,,,,,,,,,,,,,,,,,,,,,,,,,,,,,,,,,,,,,,,,,,,,,,,,,,,,,,,,,,,,,,,,,,,,,,,,,,,,,,,,,,,,,,,,,,,,,,,,,,,,
,,65a9a7fcb320353c4c4c96e0,2024-02-19_11h09.28.586,kallum_motion_pilot,2023.2.2,Win32,142.8571429,65a9a7fcb320353c4c4c96e0,65d2b6c8f2eece985d8e374c,65d2b84cf2cdb579bb1760b6,0.0278,0.0279,0,104,104,40,1,onetwo,,,,,,,,,,,,,,,,,,,,,,,,,,,,,,,,,,,,,,,,,,,,,,,,,,,,,,,,,,,,,,,,,,,,,,,,,,,,,,,,,,,,,,,,,,,,,,,,,,,,,,,,,,,,,,,,,,,,,,,,,,,,,,,,,,,,,,,,,
,,65a9a7fcb320353c4c4c96e0,2024-02-19_11h09.28.586,kallum_motion_pilot,2023.2.2,Win32,142.8571429,65a9a7fcb320353c4c4c96e0,65d2b6c8f2eece985d8e374c,65d2b84cf2cdb579bb1760b6,0.0279,0.0279,0,105,105,82,1,sixfive,,,,,,,,,,,,,,,,,,,,,,,,,,,,,,,,,,,,,,,,,,,,,,,,,,,,,,,,,,,,,,,,,,,,,,,,,,,,,,,,,,,,,,,,,,,,,,,,,,,,,,,,,,,,,,,,,,,,,,,,,,,,,,,,,,,,,,,,,
,,65a9a7fcb320353c4c4c96e0,2024-02-19_11h09.28.586,kallum_motion_pilot,2023.2.2,Win32,142.8571429,65a9a7fcb320353c4c4c96e0,65d2b6c8f2eece985d8e374c,65d2b84cf2cdb579bb1760b6,0.0279,0.028,0,106,106,98,1,sixfive,,,,,,,,,,,,,,,,,,,,,,,,,,,,,,,,,,,,,,,,,,,,,,,,,,,,,,,,,,,,,,,,,,,,,,,,,,,,,,,,,,,,,,,,,,,,,,,,,,,,,,,,,,,,,,,,,,,,,,,,,,,,,,,,,,,,,,,,,
,,65a9a7fcb320353c4c4c96e0,2024-02-19_11h09.28.586,kallum_motion_pilot,2023.2.2,Win32,142.8571429,65a9a7fcb320353c4c4c96e0,65d2b6c8f2eece985d8e374c,65d2b84cf2cdb579bb1760b6,0.0281,0.0281,0,107,107,17,1,onethree,,,,,,,,,,,,,,,,,,,,,,,,,,,,,,,,,,,,,,,,,,,,,,,,,,,,,,,,,,,,,,,,,,,,,,,,,,,,,,,,,,,,,,,,,,,,,,,,,,,,,,,,,,,,,,,,,,,,,,,,,,,,,,,,,,,,,,,,,
,,65a9a7fcb320353c4c4c96e0,2024-02-19_11h09.28.586,kallum_motion_pilot,2023.2.2,Win32,142.8571429,65a9a7fcb320353c4c4c96e0,65d2b6c8f2eece985d8e374c,65d2b84cf2cdb579bb1760b6,0.0281,0.0281,0,108,108,134,1,eightsix,,,,,,,,,,,,,,,,,,,,,,,,,,,,,,,,,,,,,,,,,,,,,,,,,,,,,,,,,,,,,,,,,,,,,,,,,,,,,,,,,,,,,,,,,,,,,,,,,,,,,,,,,,,,,,,,,,,,,,,,,,,,,,,,,,,,,,,,,
,,65a9a7fcb320353c4c4c96e0,2024-02-19_11h09.28.586,kallum_motion_pilot,2023.2.2,Win32,142.8571429,65a9a7fcb320353c4c4c96e0,65d2b6c8f2eece985d8e374c,65d2b84cf2cdb579bb1760b6,0.0283,0.0283,0,109,109,16,1,onetwo,,,,,,,,,,,,,,,,,,,,,,,,,,,,,,,,,,,,,,,,,,,,,,,,,,,,,,,,,,,,,,,,,,,,,,,,,,,,,,,,,,,,,,,,,,,,,,,,,,,,,,,,,,,,,,,,,,,,,,,,,,,,,,,,,,,,,,,,,
,,65a9a7fcb320353c4c4c96e0,2024-02-19_11h09.28.586,kallum_motion_pilot,2023.2.2,Win32,142.8571429,65a9a7fcb320353c4c4c96e0,65d2b6c8f2eece985d8e374c,65d2b84cf2cdb579bb1760b6,0.0283,0.0283,0,110,110,46,1,fourtwo,,,,,,,,,,,,,,,,,,,,,,,,,,,,,,,,,,,,,,,,,,,,,,,,,,,,,,,,,,,,,,,,,,,,,,,,,,,,,,,,,,,,,,,,,,,,,,,,,,,,,,,,,,,,,,,,,,,,,,,,,,,,,,,,,,,,,,,,,
,,65a9a7fcb320353c4c4c96e0,2024-02-19_11h09.28.586,kallum_motion_pilot,2023.2.2,Win32,142.8571429,65a9a7fcb320353c4c4c96e0,65d2b6c8f2eece985d8e374c,65d2b84cf2cdb579bb1760b6,0.0284,0.0284,0,111,111,102,1,eightsix,,,,,,,,,,,,,,,,,,,,,,,,,,,,,,,,,,,,,,,,,,,,,,,,,,,,,,,,,,,,,,,,,,,,,,,,,,,,,,,,,,,,,,,,,,,,,,,,,,,,,,,,,,,,,,,,,,,,,,,,,,,,,,,,,,,,,,,,,
,,65a9a7fcb320353c4c4c96e0,2024-02-19_11h09.28.586,kallum_motion_pilot,2023.2.2,Win32,142.8571429,65a9a7fcb320353c4c4c96e0,65d2b6c8f2eece985d8e374c,65d2b84cf2cdb579bb1760b6,0.0284,0.0284,0,112,112,14,1,fourtwo,,,,,,,,,,,,,,,,,,,,,,,,,,,,,,,,,,,,,,,,,,,,,,,,,,,,,,,,,,,,,,,,,,,,,,,,,,,,,,,,,,,,,,,,,,,,,,,,,,,,,,,,,,,,,,,,,,,,,,,,,,,,,,,,,,,,,,,,,
,,65a9a7fcb320353c4c4c96e0,2024-02-19_11h09.28.586,kallum_motion_pilot,2023.2.2,Win32,142.8571429,65a9a7fcb320353c4c4c96e0,65d2b6c8f2eece985d8e374c,65d2b84cf2cdb579bb1760b6,0.0285,0.0286,0,113,113,128,1,fivesix,,,,,,,,,,,,,,,,,,,,,,,,,,,,,,,,,,,,,,,,,,,,,,,,,,,,,,,,,,,,,,,,,,,,,,,,,,,,,,,,,,,,,,,,,,,,,,,,,,,,,,,,,,,,,,,,,,,,,,,,,,,,,,,,,,,,,,,,,
,,65a9a7fcb320353c4c4c96e0,2024-02-19_11h09.28.586,kallum_motion_pilot,2023.2.2,Win32,142.8571429,65a9a7fcb320353c4c4c96e0,65d2b6c8f2eece985d8e374c,65d2b84cf2cdb579bb1760b6,0.0286,0.0286,0,114,114,68,1,threeone,,,,,,,,,,,,,,,,,,,,,,,,,,,,,,,,,,,,,,,,,,,,,,,,,,,,,,,,,,,,,,,,,,,,,,,,,,,,,,,,,,,,,,,,,,,,,,,,,,,,,,,,,,,,,,,,,,,,,,,,,,,,,,,,,,,,,,,,,
,,65a9a7fcb320353c4c4c96e0,2024-02-19_11h09.28.586,kallum_motion_pilot,2023.2.2,Win32,142.8571429,65a9a7fcb320353c4c4c96e0,65d2b6c8f2eece985d8e374c,65d2b84cf2cdb579bb1760b6,0.0287,0.0287,0,115,115,72,1,onetwo,,,,,,,,,,,,,,,,,,,,,,,,,,,,,,,,,,,,,,,,,,,,,,,,,,,,,,,,,,,,,,,,,,,,,,,,,,,,,,,,,,,,,,,,,,,,,,,,,,,,,,,,,,,,,,,,,,,,,,,,,,,,,,,,,,,,,,,,,
,,65a9a7fcb320353c4c4c96e0,2024-02-19_11h09.28.586,kallum_motion_pilot,2023.2.2,Win32,142.8571429,65a9a7fcb320353c4c4c96e0,65d2b6c8f2eece985d8e374c,65d2b84cf2cdb579bb1760b6,0.0288,0.0288,0,116,116,77,1,threefour,,,,,,,,,,,,,,,,,,,,,,,,,,,,,,,,,,,,,,,,,,,,,,,,,,,,,,,,,,,,,,,,,,,,,,,,,,,,,,,,,,,,,,,,,,,,,,,,,,,,,,,,,,,,,,,,,,,,,,,,,,,,,,,,,,,,,,,,,
,,65a9a7fcb320353c4c4c96e0,2024-02-19_11h09.28.586,kallum_motion_pilot,2023.2.2,Win32,142.8571429,65a9a7fcb320353c4c4c96e0,65d2b6c8f2eece985d8e374c,65d2b84cf2cdb579bb1760b6,0.0299,0.03,0,117,117,26,1,twoone,,,,,,,,,,,,,,,,,,,,,,,,,,,,,,,,,,,,,,,,,,,,,,,,,,,,,,,,,,,,,,,,,,,,,,,,,,,,,,,,,,,,,,,,,,,,,,,,,,,,,,,,,,,,,,,,,,,,,,,,,,,,,,,,,,,,,,,,,
,,65a9a7fcb320353c4c4c96e0,2024-02-19_11h09.28.586,kallum_motion_pilot,2023.2.2,Win32,142.8571429,65a9a7fcb320353c4c4c96e0,65d2b6c8f2eece985d8e374c,65d2b84cf2cdb579bb1760b6,0.0301,0.0301,0,118,118,13,1,threefour,,,,,,,,,,,,,,,,,,,,,,,,,,,,,,,,,,,,,,,,,,,,,,,,,,,,,,,,,,,,,,,,,,,,,,,,,,,,,,,,,,,,,,,,,,,,,,,,,,,,,,,,,,,,,,,,,,,,,,,,,,,,,,,,,,,,,,,,,
,,65a9a7fcb320353c4c4c96e0,2024-02-19_11h09.28.586,kallum_motion_pilot,2023.2.2,Win32,142.8571429,65a9a7fcb320353c4c4c96e0,65d2b6c8f2eece985d8e374c,65d2b84cf2cdb579bb1760b6,0.0301,0.0302,0,119,119,120,1,fivesix,,,,,,,,,,,,,,,,,,,,,,,,,,,,,,,,,,,,,,,,,,,,,,,,,,,,,,,,,,,,,,,,,,,,,,,,,,,,,,,,,,,,,,,,,,,,,,,,,,,,,,,,,,,,,,,,,,,,,,,,,,,,,,,,,,,,,,,,,
,,65a9a7fcb320353c4c4c96e0,2024-02-19_11h09.28.586,kallum_motion_pilot,2023.2.2,Win32,142.8571429,65a9a7fcb320353c4c4c96e0,65d2b6c8f2eece985d8e374c,65d2b84cf2cdb579bb1760b6,0.0302,0.0302,0,120,120,135,1,eightseven,,,,,,,,,,,,,,,,,,,,,,,,,,,,,,,,,,,,,,,,,,,,,,,,,,,,,,,,,,,,,,,,,,,,,,,,,,,,,,,,,,,,,,,,,,,,,,,,,,,,,,,,,,,,,,,,,,,,,,,,,,,,,,,,,,,,,,,,,
,,65a9a7fcb320353c4c4c96e0,2024-02-19_11h09.28.586,kallum_motion_pilot,2023.2.2,Win32,142.8571429,65a9a7fcb320353c4c4c96e0,65d2b6c8f2eece985d8e374c,65d2b84cf2cdb579bb1760b6,0.0303,0.0303,0,121,121,97,1,fiveseven,,,,,,,,,,,,,,,,,,,,,,,,,,,,,,,,,,,,,,,,,,,,,,,,,,,,,,,,,,,,,,,,,,,,,,,,,,,,,,,,,,,,,,,,,,,,,,,,,,,,,,,,,,,,,,,,,,,,,,,,,,,,,,,,,,,,,,,,,
,,65a9a7fcb320353c4c4c96e0,2024-02-19_11h09.28.586,kallum_motion_pilot,2023.2.2,Win32,142.8571429,65a9a7fcb320353c4c4c96e0,65d2b6c8f2eece985d8e374c,65d2b84cf2cdb579bb1760b6,0.0303,0.0304,0,122,122,36,1,threeone,,,,,,,,,,,,,,,,,,,,,,,,,,,,,,,,,,,,,,,,,,,,,,,,,,,,,,,,,,,,,,,,,,,,,,,,,,,,,,,,,,,,,,,,,,,,,,,,,,,,,,,,,,,,,,,,,,,,,,,,,,,,,,,,,,,,,,,,,
,,65a9a7fcb320353c4c4c96e0,2024-02-19_11h09.28.586,kallum_motion_pilot,2023.2.2,Win32,142.8571429,65a9a7fcb320353c4c4c96e0,65d2b6c8f2eece985d8e374c,65d2b84cf2cdb579bb1760b6,0.0305,0.0305,0,123,123,87,1,eightseven,,,,,,,,,,,,,,,,,,,,,,,,,,,,,,,,,,,,,,,,,,,,,,,,,,,,,,,,,,,,,,,,,,,,,,,,,,,,,,,,,,,,,,,,,,,,,,,,,,,,,,,,,,,,,,,,,,,,,,,,,,,,,,,,,,,,,,,,,
,,65a9a7fcb320353c4c4c96e0,2024-02-19_11h09.28.586,kallum_motion_pilot,2023.2.2,Win32,142.8571429,65a9a7fcb320353c4c4c96e0,65d2b6c8f2eece985d8e374c,65d2b84cf2cdb579bb1760b6,0.0305,0.0305,0,124,124,131,1,sixeight,,,,,,,,,,,,,,,,,,,,,,,,,,,,,,,,,,,,,,,,,,,,,,,,,,,,,,,,,,,,,,,,,,,,,,,,,,,,,,,,,,,,,,,,,,,,,,,,,,,,,,,,,,,,,,,,,,,,,,,,,,,,,,,,,,,,,,,,,
,,65a9a7fcb320353c4c4c96e0,2024-02-19_11h09.28.586,kallum_motion_pilot,2023.2.2,Win32,142.8571429,65a9a7fcb320353c4c4c96e0,65d2b6c8f2eece985d8e374c,65d2b84cf2cdb579bb1760b6,0.0306,0.0306,0,125,125,96,1,fivesix,,,,,,,,,,,,,,,,,,,,,,,,,,,,,,,,,,,,,,,,,,,,,,,,,,,,,,,,,,,,,,,,,,,,,,,,,,,,,,,,,,,,,,,,,,,,,,,,,,,,,,,,,,,,,,,,,,,,,,,,,,,,,,,,,,,,,,,,,
,,65a9a7fcb320353c4c4c96e0,2024-02-19_11h09.28.586,kallum_motion_pilot,2023.2.2,Win32,142.8571429,65a9a7fcb320353c4c4c96e0,65d2b6c8f2eece985d8e374c,65d2b84cf2cdb579bb1760b6,0.0307,0.0307,0,126,126,44,1,threeone,,,,,,,,,,,,,,,,,,,,,,,,,,,,,,,,,,,,,,,,,,,,,,,,,,,,,,,,,,,,,,,,,,,,,,,,,,,,,,,,,,,,,,,,,,,,,,,,,,,,,,,,,,,,,,,,,,,,,,,,,,,,,,,,,,,,,,,,,
,,65a9a7fcb320353c4c4c96e0,2024-02-19_11h09.28.586,kallum_motion_pilot,2023.2.2,Win32,142.8571429,65a9a7fcb320353c4c4c96e0,65d2b6c8f2eece985d8e374c,65d2b84cf2cdb579bb1760b6,0.0308,0.0308,0,127,127,103,1,eightseven,,,,,,,,,,,,,,,,,,,,,,,,,,,,,,,,,,,,,,,,,,,,,,,,,,,,,,,,,,,,,,,,,,,,,,,,,,,,,,,,,,,,,,,,,,,,,,,,,,,,,,,,,,,,,,,,,,,,,,,,,,,,,,,,,,,,,,,,,
,,65a9a7fcb320353c4c4c96e0,2024-02-19_11h09.28.586,kallum_motion_pilot,2023.2.2,Win32,142.8571429,65a9a7fcb320353c4c4c96e0,65d2b6c8f2eece985d8e374c,65d2b84cf2cdb579bb1760b6,0.0309,0.0309,0,128,128,113,1,fiveseven,,,,,,,,,,,,,,,,,,,,,,,,,,,,,,,,,,,,,,,,,,,,,,,,,,,,,,,,,,,,,,,,,,,,,,,,,,,,,,,,,,,,,,,,,,,,,,,,,,,,,,,,,,,,,,,,,,,,,,,,,,,,,,,,,,,,,,,,,
,,65a9a7fcb320353c4c4c96e0,2024-02-19_11h09.28.586,kallum_motion_pilot,2023.2.2,Win32,142.8571429,65a9a7fcb320353c4c4c96e0,65d2b6c8f2eece985d8e374c,65d2b84cf2cdb579bb1760b6,0.0309,0.031,0,129,129,15,1,fourthree,,,,,,,,,,,,,,,,,,,,,,,,,,,,,,,,,,,,,,,,,,,,,,,,,,,,,,,,,,,,,,,,,,,,,,,,,,,,,,,,,,,,,,,,,,,,,,,,,,,,,,,,,,,,,,,,,,,,,,,,,,,,,,,,,,,,,,,,,
,,65a9a7fcb320353c4c4c96e0,2024-02-19_11h09.28.586,kallum_motion_pilot,2023.2.2,Win32,142.8571429,65a9a7fcb320353c4c4c96e0,65d2b6c8f2eece985d8e374c,65d2b84cf2cdb579bb1760b6,0.031,0.0311,0,130,130,137,1,fiveseven,,,,,,,,,,,,,,,,,,,,,,,,,,,,,,,,,,,,,,,,,,,,,,,,,,,,,,,,,,,,,,,,,,,,,,,,,,,,,,,,,,,,,,,,,,,,,,,,,,,,,,,,,,,,,,,,,,,,,,,,,,,,,,,,,,,,,,,,,
,,65a9a7fcb320353c4c4c96e0,2024-02-19_11h09.28.586,kallum_motion_pilot,2023.2.2,Win32,142.8571429,65a9a7fcb320353c4c4c96e0,65d2b6c8f2eece985d8e374c,65d2b84cf2cdb579bb1760b6,0.0311,0.0311,0,131,131,161,1,fiveseven,,,,,,,,,,,,,,,,,,,,,,,,,,,,,,,,,,,,,,,,,,,,,,,,,,,,,,,,,,,,,,,,,,,,,,,,,,,,,,,,,,,,,,,,,,,,,,,,,,,,,,,,,,,,,,,,,,,,,,,,,,,,,,,,,,,,,,,,,
,,65a9a7fcb320353c4c4c96e0,2024-02-19_11h09.28.586,kallum_motion_pilot,2023.2.2,Win32,142.8571429,65a9a7fcb320353c4c4c96e0,65d2b6c8f2eece985d8e374c,65d2b84cf2cdb579bb1760b6,0.0312,0.0313,0,132,132,152,1,fivesix,,,,,,,,,,,,,,,,,,,,,,,,,,,,,,,,,,,,,,,,,,,,,,,,,,,,,,,,,,,,,,,,,,,,,,,,,,,,,,,,,,,,,,,,,,,,,,,,,,,,,,,,,,,,,,,,,,,,,,,,,,,,,,,,,,,,,,,,,
,,65a9a7fcb320353c4c4c96e0,2024-02-19_11h09.28.586,kallum_motion_pilot,2023.2.2,Win32,142.8571429,65a9a7fcb320353c4c4c96e0,65d2b6c8f2eece985d8e374c,65d2b84cf2cdb579bb1760b6,0.0313,0.0313,0,133,133,67,1,twofour,,,,,,,,,,,,,,,,,,,,,,,,,,,,,,,,,,,,,,,,,,,,,,,,,,,,,,,,,,,,,,,,,,,,,,,,,,,,,,,,,,,,,,,,,,,,,,,,,,,,,,,,,,,,,,,,,,,,,,,,,,,,,,,,,,,,,,,,,
,,65a9a7fcb320353c4c4c96e0,2024-02-19_11h09.28.586,kallum_motion_pilot,2023.2.2,Win32,142.8571429,65a9a7fcb320353c4c4c96e0,65d2b6c8f2eece985d8e374c,65d2b84cf2cdb579bb1760b6,0.0314,0.0314,0,134,134,69,1,threefour,,,,,,,,,,,,,,,,,,,,,,,,,,,,,,,,,,,,,,,,,,,,,,,,,,,,,,,,,,,,,,,,,,,,,,,,,,,,,,,,,,,,,,,,,,,,,,,,,,,,,,,,,,,,,,,,,,,,,,,,,,,,,,,,,,,,,,,,,
,,65a9a7fcb320353c4c4c96e0,2024-02-19_11h09.28.586,kallum_motion_pilot,2023.2.2,Win32,142.8571429,65a9a7fcb320353c4c4c96e0,65d2b6c8f2eece985d8e374c,65d2b84cf2cdb579bb1760b6,0.0315,0.0315,0,135,135,146,1,sixfive,,,,,,,,,,,,,,,,,,,,,,,,,,,,,,,,,,,,,,,,,,,,,,,,,,,,,,,,,,,,,,,,,,,,,,,,,,,,,,,,,,,,,,,,,,,,,,,,,,,,,,,,,,,,,,,,,,,,,,,,,,,,,,,,,,,,,,,,,
,,65a9a7fcb320353c4c4c96e0,2024-02-19_11h09.28.586,kallum_motion_pilot,2023.2.2,Win32,142.8571429,65a9a7fcb320353c4c4c96e0,65d2b6c8f2eece985d8e374c,65d2b84cf2cdb579bb1760b6,0.0315,0.0315,0,136,136,127,1,eightseven,,,,,,,,,,,,,,,,,,,,,,,,,,,,,,,,,,,,,,,,,,,,,,,,,,,,,,,,,,,,,,,,,,,,,,,,,,,,,,,,,,,,,,,,,,,,,,,,,,,,,,,,,,,,,,,,,,,,,,,,,,,,,,,,,,,,,,,,,
,,65a9a7fcb320353c4c4c96e0,2024-02-19_11h09.28.586,kallum_motion_pilot,2023.2.2,Win32,142.8571429,65a9a7fcb320353c4c4c96e0,65d2b6c8f2eece985d8e374c,65d2b84cf2cdb579bb1760b6,0.0316,0.0316,0,137,137,37,1,threefour,,,,,,,,,,,,,,,,,,,,,,,,,,,,,,,,,,,,,,,,,,,,,,,,,,,,,,,,,,,,,,,,,,,,,,,,,,,,,,,,,,,,,,,,,,,,,,,,,,,,,,,,,,,,,,,,,,,,,,,,,,,,,,,,,,,,,,,,,
,,65a9a7fcb320353c4c4c96e0,2024-02-19_11h09.28.586,kallum_motion_pilot,2023.2.2,Win32,142.8571429,65a9a7fcb320353c4c4c96e0,65d2b6c8f2eece985d8e374c,65d2b84cf2cdb579bb1760b6,0.0317,0.0317,0,138,138,38,1,fourtwo,,,,,,,,,,,,,,,,,,,,,,,,,,,,,,,,,,,,,,,,,,,,,,,,,,,,,,,,,,,,,,,,,,,,,,,,,,,,,,,,,,,,,,,,,,,,,,,,,,,,,,,,,,,,,,,,,,,,,,,,,,,,,,,,,,,,,,,,,
,,65a9a7fcb320353c4c4c96e0,2024-02-19_11h09.28.586,kallum_motion_pilot,2023.2.2,Win32,142.8571429,65a9a7fcb320353c4c4c96e0,65d2b6c8f2eece985d8e374c,65d2b84cf2cdb579bb1760b6,0.0317,0.0318,0,139,139,61,1,threefour,,,,,,,,,,,,,,,,,,,,,,,,,,,,,,,,,,,,,,,,,,,,,,,,,,,,,,,,,,,,,,,,,,,,,,,,,,,,,,,,,,,,,,,,,,,,,,,,,,,,,,,,,,,,,,,,,,,,,,,,,,,,,,,,,,,,,,,,,
,,65a9a7fcb320353c4c4c96e0,2024-02-19_11h09.28.586,kallum_motion_pilot,2023.2.2,Win32,142.8571429,65a9a7fcb320353c4c4c96e0,65d2b6c8f2eece985d8e374c,65d2b84cf2cdb579bb1760b6,0.0319,0.0319,0,140,140,20,1,threeone,,,,,,,,,,,,,,,,,,,,,,,,,,,,,,,,,,,,,,,,,,,,,,,,,,,,,,,,,,,,,,,,,,,,,,,,,,,,,,,,,,,,,,,,,,,,,,,,,,,,,,,,,,,,,,,,,,,,,,,,,,,,,,,,,,,,,,,,,
,,65a9a7fcb320353c4c4c96e0,2024-02-19_11h09.28.586,kallum_motion_pilot,2023.2.2,Win32,142.8571429,65a9a7fcb320353c4c4c96e0,65d2b6c8f2eece985d8e374c,65d2b84cf2cdb579bb1760b6,0.0319,0.032,0,141,141,3,1,twofour,,,,,,,,,,,,,,,,,,,,,,,,,,,,,,,,,,,,,,,,,,,,,,,,,,,,,,,,,,,,,,,,,,,,,,,,,,,,,,,,,,,,,,,,,,,,,,,,,,,,,,,,,,,,,,,,,,,,,,,,,,,,,,,,,,,,,,,,,
,,65a9a7fcb320353c4c4c96e0,2024-02-19_11h09.28.586,kallum_motion_pilot,2023.2.2,Win32,142.8571429,65a9a7fcb320353c4c4c96e0,65d2b6c8f2eece985d8e374c,65d2b84cf2cdb579bb1760b6,0.0321,0.0321,0,142,142,75,1,twofour,,,,,,,,,,,,,,,,,,,,,,,,,,,,,,,,,,,,,,,,,,,,,,,,,,,,,,,,,,,,,,,,,,,,,,,,,,,,,,,,,,,,,,,,,,,,,,,,,,,,,,,,,,,,,,,,,,,,,,,,,,,,,,,,,,,,,,,,,
,,65a9a7fcb320353c4c4c96e0,2024-02-19_11h09.28.586,kallum_motion_pilot,2023.2.2,Win32,142.8571429,65a9a7fcb320353c4c4c96e0,65d2b6c8f2eece985d8e374c,65d2b84cf2cdb579bb1760b6,0.0322,0.0322,0,143,143,140,1,sevenfive,,,,,,,,,,,,,,,,,,,,,,,,,,,,,,,,,,,,,,,,,,,,,,,,,,,,,,,,,,,,,,,,,,,,,,,,,,,,,,,,,,,,,,,,,,,,,,,,,,,,,,,,,,,,,,,,,,,,,,,,,,,,,,,,,,,,,,,,,
,,65a9a7fcb320353c4c4c96e0,2024-02-19_11h09.28.586,kallum_motion_pilot,2023.2.2,Win32,142.8571429,65a9a7fcb320353c4c4c96e0,65d2b6c8f2eece985d8e374c,65d2b84cf2cdb579bb1760b6,0.0322,0.0323,0,144,144,70,1,fourtwo,,,,,,,,,,,,,,,,,,,,,,,,,,,,,,,,,,,,,,,,,,,,,,,,,,,,,,,,,,,,,,,,,,,,,,,,,,,,,,,,,,,,,,,,,,,,,,,,,,,,,,,,,,,,,,,,,,,,,,,,,,,,,,,,,,,,,,,,,
,,65a9a7fcb320353c4c4c96e0,2024-02-19_11h09.28.586,kallum_motion_pilot,2023.2.2,Win32,142.8571429,65a9a7fcb320353c4c4c96e0,65d2b6c8f2eece985d8e374c,65d2b84cf2cdb579bb1760b6,0.0324,0.0324,0,145,145,132,1,sevenfive,,,,,,,,,,,,,,,,,,,,,,,,,,,,,,,,,,,,,,,,,,,,,,,,,,,,,,,,,,,,,,,,,,,,,,,,,,,,,,,,,,,,,,,,,,,,,,,,,,,,,,,,,,,,,,,,,,,,,,,,,,,,,,,,,,,,,,,,,
,,65a9a7fcb320353c4c4c96e0,2024-02-19_11h09.28.586,kallum_motion_pilot,2023.2.2,Win32,142.8571429,65a9a7fcb320353c4c4c96e0,65d2b6c8f2eece985d8e374c,65d2b84cf2cdb579bb1760b6,0.0325,0.0325,0,146,146,80,1,fivesix,,,,,,,,,,,,,,,,,,,,,,,,,,,,,,,,,,,,,,,,,,,,,,,,,,,,,,,,,,,,,,,,,,,,,,,,,,,,,,,,,,,,,,,,,,,,,,,,,,,,,,,,,,,,,,,,,,,,,,,,,,,,,,,,,,,,,,,,,
,,65a9a7fcb320353c4c4c96e0,2024-02-19_11h09.28.586,kallum_motion_pilot,2023.2.2,Win32,142.8571429,65a9a7fcb320353c4c4c96e0,65d2b6c8f2eece985d8e374c,65d2b84cf2cdb579bb1760b6,0.0325,0.0326,0,147,147,58,1,twoone,,,,,,,,,,,,,,,,,,,,,,,,,,,,,,,,,,,,,,,,,,,,,,,,,,,,,,,,,,,,,,,,,,,,,,,,,,,,,,,,,,,,,,,,,,,,,,,,,,,,,,,,,,,,,,,,,,,,,,,,,,,,,,,,,,,,,,,,,
,,65a9a7fcb320353c4c4c96e0,2024-02-19_11h09.28.586,kallum_motion_pilot,2023.2.2,Win32,142.8571429,65a9a7fcb320353c4c4c96e0,65d2b6c8f2eece985d8e374c,65d2b84cf2cdb579bb1760b6,0.0326,0.0326,0,148,148,11,1,twofour,,,,,,,,,,,,,,,,,,,,,,,,,,,,,,,,,,,,,,,,,,,,,,,,,,,,,,,,,,,,,,,,,,,,,,,,,,,,,,,,,,,,,,,,,,,,,,,,,,,,,,,,,,,,,,,,,,,,,,,,,,,,,,,,,,,,,,,,,
,,65a9a7fcb320353c4c4c96e0,2024-02-19_11h09.28.586,kallum_motion_pilot,2023.2.2,Win32,142.8571429,65a9a7fcb320353c4c4c96e0,65d2b6c8f2eece985d8e374c,65d2b84cf2cdb579bb1760b6,0.0327,0.0327,0,149,149,39,1,fourthree,,,,,,,,,,,,,,,,,,,,,,,,,,,,,,,,,,,,,,,,,,,,,,,,,,,,,,,,,,,,,,,,,,,,,,,,,,,,,,,,,,,,,,,,,,,,,,,,,,,,,,,,,,,,,,,,,,,,,,,,,,,,,,,,,,,,,,,,,
,,65a9a7fcb320353c4c4c96e0,2024-02-19_11h09.28.586,kallum_motion_pilot,2023.2.2,Win32,142.8571429,65a9a7fcb320353c4c4c96e0,65d2b6c8f2eece985d8e374c,65d2b84cf2cdb579bb1760b6,0.0328,0.0329,0,150,150,122,1,sixfive,,,,,,,,,,,,,,,,,,,,,,,,,,,,,,,,,,,,,,,,,,,,,,,,,,,,,,,,,,,,,,,,,,,,,,,,,,,,,,,,,,,,,,,,,,,,,,,,,,,,,,,,,,,,,,,,,,,,,,,,,,,,,,,,,,,,,,,,,
,,65a9a7fcb320353c4c4c96e0,2024-02-19_11h09.28.586,kallum_motion_pilot,2023.2.2,Win32,142.8571429,65a9a7fcb320353c4c4c96e0,65d2b6c8f2eece985d8e374c,65d2b84cf2cdb579bb1760b6,0.0329,0.0329,0,151,151,116,1,sevenfive,,,,,,,,,,,,,,,,,,,,,,,,,,,,,,,,,,,,,,,,,,,,,,,,,,,,,,,,,,,,,,,,,,,,,,,,,,,,,,,,,,,,,,,,,,,,,,,,,,,,,,,,,,,,,,,,,,,,,,,,,,,,,,,,,,,,,,,,,
,,65a9a7fcb320353c4c4c96e0,2024-02-19_11h09.28.586,kallum_motion_pilot,2023.2.2,Win32,142.8571429,65a9a7fcb320353c4c4c96e0,65d2b6c8f2eece985d8e374c,65d2b84cf2cdb579bb1760b6,0.0329,0.033,0,152,152,142,1,eightsix,,,,,,,,,,,,,,,,,,,,,,,,,,,,,,,,,,,,,,,,,,,,,,,,,,,,,,,,,,,,,,,,,,,,,,,,,,,,,,,,,,,,,,,,,,,,,,,,,,,,,,,,,,,,,,,,,,,,,,,,,,,,,,,,,,,,,,,,,
,,65a9a7fcb320353c4c4c96e0,2024-02-19_11h09.28.586,kallum_motion_pilot,2023.2.2,Win32,142.8571429,65a9a7fcb320353c4c4c96e0,65d2b6c8f2eece985d8e374c,65d2b84cf2cdb579bb1760b6,0.033,0.0331,0,153,153,121,1,fiveseven,,,,,,,,,,,,,,,,,,,,,,,,,,,,,,,,,,,,,,,,,,,,,,,,,,,,,,,,,,,,,,,,,,,,,,,,,,,,,,,,,,,,,,,,,,,,,,,,,,,,,,,,,,,,,,,,,,,,,,,,,,,,,,,,,,,,,,,,,
,,65a9a7fcb320353c4c4c96e0,2024-02-19_11h09.28.586,kallum_motion_pilot,2023.2.2,Win32,142.8571429,65a9a7fcb320353c4c4c96e0,65d2b6c8f2eece985d8e374c,65d2b84cf2cdb579bb1760b6,0.0332,0.0332,0,154,154,63,1,fourthree,,,,,,,,,,,,,,,,,,,,,,,,,,,,,,,,,,,,,,,,,,,,,,,,,,,,,,,,,,,,,,,,,,,,,,,,,,,,,,,,,,,,,,,,,,,,,,,,,,,,,,,,,,,,,,,,,,,,,,,,,,,,,,,,,,,,,,,,,
,,65a9a7fcb320353c4c4c96e0,2024-02-19_11h09.28.586,kallum_motion_pilot,2023.2.2,Win32,142.8571429,65a9a7fcb320353c4c4c96e0,65d2b6c8f2eece985d8e374c,65d2b84cf2cdb579bb1760b6,0.0332,0.0333,0,155,155,115,1,sixeight,,,,,,,,,,,,,,,,,,,,,,,,,,,,,,,,,,,,,,,,,,,,,,,,,,,,,,,,,,,,,,,,,,,,,,,,,,,,,,,,,,,,,,,,,,,,,,,,,,,,,,,,,,,,,,,,,,,,,,,,,,,,,,,,,,,,,,,,,
,,65a9a7fcb320353c4c4c96e0,2024-02-19_11h09.28.586,kallum_motion_pilot,2023.2.2,Win32,142.8571429,65a9a7fcb320353c4c4c96e0,65d2b6c8f2eece985d8e374c,65d2b84cf2cdb579bb1760b6,0.0333,0.0333,0,156,156,126,1,eightsix,,,,,,,,,,,,,,,,,,,,,,,,,,,,,,,,,,,,,,,,,,,,,,,,,,,,,,,,,,,,,,,,,,,,,,,,,,,,,,,,,,,,,,,,,,,,,,,,,,,,,,,,,,,,,,,,,,,,,,,,,,,,,,,,,,,,,,,,,
,,65a9a7fcb320353c4c4c96e0,2024-02-19_11h09.28.586,kallum_motion_pilot,2023.2.2,Win32,142.8571429,65a9a7fcb320353c4c4c96e0,65d2b6c8f2eece985d8e374c,65d2b84cf2cdb579bb1760b6,0.0333,0.0334,0,157,157,89,1,fiveseven,,,,,,,,,,,,,,,,,,,,,,,,,,,,,,,,,,,,,,,,,,,,,,,,,,,,,,,,,,,,,,,,,,,,,,,,,,,,,,,,,,,,,,,,,,,,,,,,,,,,,,,,,,,,,,,,,,,,,,,,,,,,,,,,,,,,,,,,,
,,65a9a7fcb320353c4c4c96e0,2024-02-19_11h09.28.586,kallum_motion_pilot,2023.2.2,Win32,142.8571429,65a9a7fcb320353c4c4c96e0,65d2b6c8f2eece985d8e374c,65d2b84cf2cdb579bb1760b6,0.0334,0.0335,0,158,158,50,1,twoone,,,,,,,,,,,,,,,,,,,,,,,,,,,,,,,,,,,,,,,,,,,,,,,,,,,,,,,,,,,,,,,,,,,,,,,,,,,,,,,,,,,,,,,,,,,,,,,,,,,,,,,,,,,,,,,,,,,,,,,,,,,,,,,,,,,,,,,,,
,,65a9a7fcb320353c4c4c96e0,2024-02-19_11h09.28.586,kallum_motion_pilot,2023.2.2,Win32,142.8571429,65a9a7fcb320353c4c4c96e0,65d2b6c8f2eece985d8e374c,65d2b84cf2cdb579bb1760b6,0.0335,0.0336,0,159,159,155,1,sixeight,,,,,,,,,,,,,,,,,,,,,,,,,,,,,,,,,,,,,,,,,,,,,,,,,,,,,,,,,,,,,,,,,,,,,,,,,,,,,,,,,,,,,,,,,,,,,,,,,,,,,,,,,,,,,,,,,,,,,,,,,,,,,,,,,,,,,,,,,
,,65a9a7fcb320353c4c4c96e0,2024-02-19_11h09.28.586,kallum_motion_pilot,2023.2.2,Win32,142.8571429,65a9a7fcb320353c4c4c96e0,65d2b6c8f2eece985d8e374c,65d2b84cf2cdb579bb1760b6,0.0336,0.0336,0,160,160,139,1,sixeight,,,,,,,,,,,,,,,,,,,,,,,,,,,,,,,,,,,,,,,,,,,,,,,,,,,,,,,,,,,,,,,,,,,,,,,,,,,,,,,,,,,,,,,,,,,,,,,,,,,,,,,,,,,,,,,,,,,,,,,,,,,,,,,,,,,,,,,,,
,,65a9a7fcb320353c4c4c96e0,2024-02-19_11h09.28.586,kallum_motion_pilot,2023.2.2,Win32,142.8571429,65a9a7fcb320353c4c4c96e0,65d2b6c8f2eece985d8e374c,65d2b84cf2cdb579bb1760b6,0.0337,0.0337,0,161,161,110,1,eightsix,,,,,,,,,,,,,,,,,,,,,,,,,,,,,,,,,,,,,,,,,,,,,,,,,,,,,,,,,,,,,,,,,,,,,,,,,,,,,,,,,,,,,,,,,,,,,,,,,,,,,,,,,,,,,,,,,,,,,,,,,,,,,,,,,,,,,,,,,
,,65a9a7fcb320353c4c4c96e0,2024-02-19_11h09.28.586,kallum_motion_pilot,2023.2.2,Win32,142.8571429,65a9a7fcb320353c4c4c96e0,65d2b6c8f2eece985d8e374c,65d2b84cf2cdb579bb1760b6,0.0338,0.0339,1,0,162,35,1,twofour,,,,,,,,,,,,,,,,,,,,,,,,,,,,,,,,,,,,,,,,,,,,,,,,,,,,,,,,,,,,,,,,,,,,,,,,,,,,,,,,,,,,,,,,,,,,,,,,,,,,,,,,,,,,,,,,,,,,,,,,,,,,,,,,,,,,,,,,,
,,65a9a7fcb320353c4c4c96e0,2024-02-19_11h09.28.586,kallum_motion_pilot,2023.2.2,Win32,142.8571429,65a9a7fcb320353c4c4c96e0,65d2b6c8f2eece985d8e374c,65d2b84cf2cdb579bb1760b6,0.0339,0.034,1,1,163,18,1,twoone,,,,,,,,,,,,,,,,,,,,,,,,,,,,,,,,,,,,,,,,,,,,,,,,,,,,,,,,,,,,,,,,,,,,,,,,,,,,,,,,,,,,,,,,,,,,,,,,,,,,,,,,,,,,,,,,,,,,,,,,,,,,,,,,,,,,,,,,,
,,65a9a7fcb320353c4c4c96e0,2024-02-19_11h09.28.586,kallum_motion_pilot,2023.2.2,Win32,142.8571429,65a9a7fcb320353c4c4c96e0,65d2b6c8f2eece985d8e374c,65d2b84cf2cdb579bb1760b6,0.034,0.034,1,2,164,28,1,threeone,,,,,,,,,,,,,,,,,,,,,,,,,,,,,,,,,,,,,,,,,,,,,,,,,,,,,,,,,,,,,,,,,,,,,,,,,,,,,,,,,,,,,,,,,,,,,,,,,,,,,,,,,,,,,,,,,,,,,,,,,,,,,,,,,,,,,,,,,
,,65a9a7fcb320353c4c4c96e0,2024-02-19_11h09.28.586,kallum_motion_pilot,2023.2.2,Win32,142.8571429,65a9a7fcb320353c4c4c96e0,65d2b6c8f2eece985d8e374c,65d2b84cf2cdb579bb1760b6,0.0341,0.0342,1,3,165,103,1,eightseven,,,,,,,,,,,,,,,,,,,,,,,,,,,,,,,,,,,,,,,,,,,,,,,,,,,,,,,,,,,,,,,,,,,,,,,,,,,,,,,,,,,,,,,,,,,,,,,,,,,,,,,,,,,,,,,,,,,,,,,,,,,,,,,,,,,,,,,,,
,,65a9a7fcb320353c4c4c96e0,2024-02-19_11h09.28.586,kallum_motion_pilot,2023.2.2,Win32,142.8571429,65a9a7fcb320353c4c4c96e0,65d2b6c8f2eece985d8e374c,65d2b84cf2cdb579bb1760b6,0.0342,0.0342,1,4,166,36,1,threeone,,,,,,,,,,,,,,,,,,,,,,,,,,,,,,,,,,,,,,,,,,,,,,,,,,,,,,,,,,,,,,,,,,,,,,,,,,,,,,,,,,,,,,,,,,,,,,,,,,,,,,,,,,,,,,,,,,,,,,,,,,,,,,,,,,,,,,,,,
,,65a9a7fcb320353c4c4c96e0,2024-02-19_11h09.28.586,kallum_motion_pilot,2023.2.2,Win32,142.8571429,65a9a7fcb320353c4c4c96e0,65d2b6c8f2eece985d8e374c,65d2b84cf2cdb579bb1760b6,0.0342,0.0343,1,5,167,16,1,onetwo,,,,,,,,,,,,,,,,,,,,,,,,,,,,,,,,,,,,,,,,,,,,,,,,,,,,,,,,,,,,,,,,,,,,,,,,,,,,,,,,,,,,,,,,,,,,,,,,,,,,,,,,,,,,,,,,,,,,,,,,,,,,,,,,,,,,,,,,,
,,65a9a7fcb320353c4c4c96e0,2024-02-19_11h09.28.586,kallum_motion_pilot,2023.2.2,Win32,142.8571429,65a9a7fcb320353c4c4c96e0,65d2b6c8f2eece985d8e374c,65d2b84cf2cdb579bb1760b6,0.0343,0.0344,1,6,168,152,1,fivesix,,,,,,,,,,,,,,,,,,,,,,,,,,,,,,,,,,,,,,,,,,,,,,,,,,,,,,,,,,,,,,,,,,,,,,,,,,,,,,,,,,,,,,,,,,,,,,,,,,,,,,,,,,,,,,,,,,,,,,,,,,,,,,,,,,,,,,,,,
,,65a9a7fcb320353c4c4c96e0,2024-02-19_11h09.28.586,kallum_motion_pilot,2023.2.2,Win32,142.8571429,65a9a7fcb320353c4c4c96e0,65d2b6c8f2eece985d8e374c,65d2b84cf2cdb579bb1760b6,0.0344,0.0345,1,7,169,19,1,twofour,,,,,,,,,,,,,,,,,,,,,,,,,,,,,,,,,,,,,,,,,,,,,,,,,,,,,,,,,,,,,,,,,,,,,,,,,,,,,,,,,,,,,,,,,,,,,,,,,,,,,,,,,,,,,,,,,,,,,,,,,,,,,,,,,,,,,,,,,
,,65a9a7fcb320353c4c4c96e0,2024-02-19_11h09.28.586,kallum_motion_pilot,2023.2.2,Win32,142.8571429,65a9a7fcb320353c4c4c96e0,65d2b6c8f2eece985d8e374c,65d2b84cf2cdb579bb1760b6,0.0345,0.0346,1,8,170,161,1,fiveseven,,,,,,,,,,,,,,,,,,,,,,,,,,,,,,,,,,,,,,,,,,,,,,,,,,,,,,,,,,,,,,,,,,,,,,,,,,,,,,,,,,,,,,,,,,,,,,,,,,,,,,,,,,,,,,,,,,,,,,,,,,,,,,,,,,,,,,,,,
,,65a9a7fcb320353c4c4c96e0,2024-02-19_11h09.28.586,kallum_motion_pilot,2023.2.2,Win32,142.8571429,65a9a7fcb320353c4c4c96e0,65d2b6c8f2eece985d8e374c,65d2b84cf2cdb579bb1760b6,0.0346,0.0347,1,9,171,62,1,fourtwo,,,,,,,,,,,,,,,,,,,,,,,,,,,,,,,,,,,,,,,,,,,,,,,,,,,,,,,,,,,,,,,,,,,,,,,,,,,,,,,,,,,,,,,,,,,,,,,,,,,,,,,,,,,,,,,,,,,,,,,,,,,,,,,,,,,,,,,,,
,,65a9a7fcb320353c4c4c96e0,2024-02-19_11h09.28.586,kallum_motion_pilot,2023.2.2,Win32,142.8571429,65a9a7fcb320353c4c4c96e0,65d2b6c8f2eece985d8e374c,65d2b84cf2cdb579bb1760b6,0.0348,0.0348,1,10,172,11,1,twofour,,,,,,,,,,,,,,,,,,,,,,,,,,,,,,,,,,,,,,,,,,,,,,,,,,,,,,,,,,,,,,,,,,,,,,,,,,,,,,,,,,,,,,,,,,,,,,,,,,,,,,,,,,,,,,,,,,,,,,,,,,,,,,,,,,,,,,,,,
,,65a9a7fcb320353c4c4c96e0,2024-02-19_11h09.28.586,kallum_motion_pilot,2023.2.2,Win32,142.8571429,65a9a7fcb320353c4c4c96e0,65d2b6c8f2eece985d8e374c,65d2b84cf2cdb579bb1760b6,0.0348,0.0349,1,11,173,34,1,twoone,,,,,,,,,,,,,,,,,,,,,,,,,,,,,,,,,,,,,,,,,,,,,,,,,,,,,,,,,,,,,,,,,,,,,,,,,,,,,,,,,,,,,,,,,,,,,,,,,,,,,,,,,,,,,,,,,,,,,,,,,,,,,,,,,,,,,,,,,
,,65a9a7fcb320353c4c4c96e0,2024-02-19_11h09.28.586,kallum_motion_pilot,2023.2.2,Win32,142.8571429,65a9a7fcb320353c4c4c96e0,65d2b6c8f2eece985d8e374c,65d2b84cf2cdb579bb1760b6,0.0349,0.0349,1,12,174,93,1,seveneight,,,,,,,,,,,,,,,,,,,,,,,,,,,,,,,,,,,,,,,,,,,,,,,,,,,,,,,,,,,,,,,,,,,,,,,,,,,,,,,,,,,,,,,,,,,,,,,,,,,,,,,,,,,,,,,,,,,,,,,,,,,,,,,,,,,,,,,,,
,,65a9a7fcb320353c4c4c96e0,2024-02-19_11h09.28.586,kallum_motion_pilot,2023.2.2,Win32,142.8571429,65a9a7fcb320353c4c4c96e0,65d2b6c8f2eece985d8e374c,65d2b84cf2cdb579bb1760b6,0.035,0.035,1,13,175,17,1,onethree,,,,,,,,,,,,,,,,,,,,,,,,,,,,,,,,,,,,,,,,,,,,,,,,,,,,,,,,,,,,,,,,,,,,,,,,,,,,,,,,,,,,,,,,,,,,,,,,,,,,,,,,,,,,,,,,,,,,,,,,,,,,,,,,,,,,,,,,,
,,65a9a7fcb320353c4c4c96e0,2024-02-19_11h09.28.586,kallum_motion_pilot,2023.2.2,Win32,142.8571429,65a9a7fcb320353c4c4c96e0,65d2b6c8f2eece985d8e374c,65d2b84cf2cdb579bb1760b6,0.035,0.0351,1,14,176,138,1,sixfive,,,,,,,,,,,,,,,,,,,,,,,,,,,,,,,,,,,,,,,,,,,,,,,,,,,,,,,,,,,,,,,,,,,,,,,,,,,,,,,,,,,,,,,,,,,,,,,,,,,,,,,,,,,,,,,,,,,,,,,,,,,,,,,,,,,,,,,,,
,,65a9a7fcb320353c4c4c96e0,2024-02-19_11h09.28.586,kallum_motion_pilot,2023.2.2,Win32,142.8571429,65a9a7fcb320353c4c4c96e0,65d2b6c8f2eece985d8e374c,65d2b84cf2cdb579bb1760b6,0.0351,0.0353,1,15,177,24,1,onetwo,,,,,,,,,,,,,,,,,,,,,,,,,,,,,,,,,,,,,,,,,,,,,,,,,,,,,,,,,,,,,,,,,,,,,,,,,,,,,,,,,,,,,,,,,,,,,,,,,,,,,,,,,,,,,,,,,,,,,,,,,,,,,,,,,,,,,,,,,
,,65a9a7fcb320353c4c4c96e0,2024-02-19_11h09.28.586,kallum_motion_pilot,2023.2.2,Win32,142.8571429,65a9a7fcb320353c4c4c96e0,65d2b6c8f2eece985d8e374c,65d2b84cf2cdb579bb1760b6,0.0353,0.0353,1,16,178,45,1,threefour,,,,,,,,,,,,,,,,,,,,,,,,,,,,,,,,,,,,,,,,,,,,,,,,,,,,,,,,,,,,,,,,,,,,,,,,,,,,,,,,,,,,,,,,,,,,,,,,,,,,,,,,,,,,,,,,,,,,,,,,,,,,,,,,,,,,,,,,,
,,65a9a7fcb320353c4c4c96e0,2024-02-19_11h09.28.586,kallum_motion_pilot,2023.2.2,Win32,142.8571429,65a9a7fcb320353c4c4c96e0,65d2b6c8f2eece985d8e374c,65d2b84cf2cdb579bb1760b6,0.0353,0.0355,1,17,179,111,1,eightseven,,,,,,,,,,,,,,,,,,,,,,,,,,,,,,,,,,,,,,,,,,,,,,,,,,,,,,,,,,,,,,,,,,,,,,,,,,,,,,,,,,,,,,,,,,,,,,,,,,,,,,,,,,,,,,,,,,,,,,,,,,,,,,,,,,,,,,,,,
,,65a9a7fcb320353c4c4c96e0,2024-02-19_11h09.28.586,kallum_motion_pilot,2023.2.2,Win32,142.8571429,65a9a7fcb320353c4c4c96e0,65d2b6c8f2eece985d8e374c,65d2b84cf2cdb579bb1760b6,0.0355,0.0355,1,18,180,23,1,fourthree,,,,,,,,,,,,,,,,,,,,,,,,,,,,,,,,,,,,,,,,,,,,,,,,,,,,,,,,,,,,,,,,,,,,,,,,,,,,,,,,,,,,,,,,,,,,,,,,,,,,,,,,,,,,,,,,,,,,,,,,,,,,,,,,,,,,,,,,,
,,65a9a7fcb320353c4c4c96e0,2024-02-19_11h09.28.586,kallum_motion_pilot,2023.2.2,Win32,142.8571429,65a9a7fcb320353c4c4c96e0,65d2b6c8f2eece985d8e374c,65d2b84cf2cdb579bb1760b6,0.0355,0.0356,1,19,181,156,1,sevenfive,,,,,,,,,,,,,,,,,,,,,,,,,,,,,,,,,,,,,,,,,,,,,,,,,,,,,,,,,,,,,,,,,,,,,,,,,,,,,,,,,,,,,,,,,,,,,,,,,,,,,,,,,,,,,,,,,,,,,,,,,,,,,,,,,,,,,,,,,
,,65a9a7fcb320353c4c4c96e0,2024-02-19_11h09.28.586,kallum_motion_pilot,2023.2.2,Win32,142.8571429,65a9a7fcb320353c4c4c96e0,65d2b6c8f2eece985d8e374c,65d2b84cf2cdb579bb1760b6,0.0356,0.0357,1,20,182,41,1,onethree,,,,,,,,,,,,,,,,,,,,,,,,,,,,,,,,,,,,,,,,,,,,,,,,,,,,,,,,,,,,,,,,,,,,,,,,,,,,,,,,,,,,,,,,,,,,,,,,,,,,,,,,,,,,,,,,,,,,,,,,,,,,,,,,,,,,,,,,,
,,65a9a7fcb320353c4c4c96e0,2024-02-19_11h09.28.586,kallum_motion_pilot,2023.2.2,Win32,142.8571429,65a9a7fcb320353c4c4c96e0,65d2b6c8f2eece985d8e374c,65d2b84cf2cdb579bb1760b6,0.0357,0.0357,1,21,183,44,1,threeone,,,,,,,,,,,,,,,,,,,,,,,,,,,,,,,,,,,,,,,,,,,,,,,,,,,,,,,,,,,,,,,,,,,,,,,,,,,,,,,,,,,,,,,,,,,,,,,,,,,,,,,,,,,,,,,,,,,,,,,,,,,,,,,,,,,,,,,,,
,,65a9a7fcb320353c4c4c96e0,2024-02-19_11h09.28.586,kallum_motion_pilot,2023.2.2,Win32,142.8571429,65a9a7fcb320353c4c4c96e0,65d2b6c8f2eece985d8e374c,65d2b84cf2cdb579bb1760b6,0.0359,0.0359,1,22,184,82,1,sixfive,,,,,,,,,,,,,,,,,,,,,,,,,,,,,,,,,,,,,,,,,,,,,,,,,,,,,,,,,,,,,,,,,,,,,,,,,,,,,,,,,,,,,,,,,,,,,,,,,,,,,,,,,,,,,,,,,,,,,,,,,,,,,,,,,,,,,,,,,
,,65a9a7fcb320353c4c4c96e0,2024-02-19_11h09.28.586,kallum_motion_pilot,2023.2.2,Win32,142.8571429,65a9a7fcb320353c4c4c96e0,65d2b6c8f2eece985d8e374c,65d2b84cf2cdb579bb1760b6,0.0359,0.036,1,23,185,86,1,eightsix,,,,,,,,,,,,,,,,,,,,,,,,,,,,,,,,,,,,,,,,,,,,,,,,,,,,,,,,,,,,,,,,,,,,,,,,,,,,,,,,,,,,,,,,,,,,,,,,,,,,,,,,,,,,,,,,,,,,,,,,,,,,,,,,,,,,,,,,,
,,65a9a7fcb320353c4c4c96e0,2024-02-19_11h09.28.586,kallum_motion_pilot,2023.2.2,Win32,142.8571429,65a9a7fcb320353c4c4c96e0,65d2b6c8f2eece985d8e374c,65d2b84cf2cdb579bb1760b6,0.0361,0.0361,1,24,186,96,1,fivesix,,,,,,,,,,,,,,,,,,,,,,,,,,,,,,,,,,,,,,,,,,,,,,,,,,,,,,,,,,,,,,,,,,,,,,,,,,,,,,,,,,,,,,,,,,,,,,,,,,,,,,,,,,,,,,,,,,,,,,,,,,,,,,,,,,,,,,,,,
,,65a9a7fcb320353c4c4c96e0,2024-02-19_11h09.28.586,kallum_motion_pilot,2023.2.2,Win32,142.8571429,65a9a7fcb320353c4c4c96e0,65d2b6c8f2eece985d8e374c,65d2b84cf2cdb579bb1760b6,0.0362,0.0362,1,25,187,137,1,fiveseven,,,,,,,,,,,,,,,,,,,,,,,,,,,,,,,,,,,,,,,,,,,,,,,,,,,,,,,,,,,,,,,,,,,,,,,,,,,,,,,,,,,,,,,,,,,,,,,,,,,,,,,,,,,,,,,,,,,,,,,,,,,,,,,,,,,,,,,,,
,,65a9a7fcb320353c4c4c96e0,2024-02-19_11h09.28.586,kallum_motion_pilot,2023.2.2,Win32,142.8571429,65a9a7fcb320353c4c4c96e0,65d2b6c8f2eece985d8e374c,65d2b84cf2cdb579bb1760b6,0.0362,0.0363,1,26,188,149,1,seveneight,,,,,,,,,,,,,,,,,,,,,,,,,,,,,,,,,,,,,,,,,,,,,,,,,,,,,,,,,,,,,,,,,,,,,,,,,,,,,,,,,,,,,,,,,,,,,,,,,,,,,,,,,,,,,,,,,,,,,,,,,,,,,,,,,,,,,,,,,
,,65a9a7fcb320353c4c4c96e0,2024-02-19_11h09.28.586,kallum_motion_pilot,2023.2.2,Win32,142.8571429,65a9a7fcb320353c4c4c96e0,65d2b6c8f2eece985d8e374c,65d2b84cf2cdb579bb1760b6,0.0363,0.0363,1,27,189,1,1,onethree,,,,,,,,,,,,,,,,,,,,,,,,,,,,,,,,,,,,,,,,,,,,,,,,,,,,,,,,,,,,,,,,,,,,,,,,,,,,,,,,,,,,,,,,,,,,,,,,,,,,,,,,,,,,,,,,,,,,,,,,,,,,,,,,,,,,,,,,,
,,65a9a7fcb320353c4c4c96e0,2024-02-19_11h09.28.586,kallum_motion_pilot,2023.2.2,Win32,142.8571429,65a9a7fcb320353c4c4c96e0,65d2b6c8f2eece985d8e374c,65d2b84cf2cdb579bb1760b6,0.0364,0.0364,1,28,190,52,1,threeone,,,,,,,,,,,,,,,,,,,,,,,,,,,,,,,,,,,,,,,,,,,,,,,,,,,,,,,,,,,,,,,,,,,,,,,,,,,,,,,,,,,,,,,,,,,,,,,,,,,,,,,,,,,,,,,,,,,,,,,,,,,,,,,,,,,,,,,,,
,,65a9a7fcb320353c4c4c96e0,2024-02-19_11h09.28.586,kallum_motion_pilot,2023.2.2,Win32,142.8571429,65a9a7fcb320353c4c4c96e0,65d2b6c8f2eece985d8e374c,65d2b84cf2cdb579bb1760b6,0.0365,0.0366,1,29,191,136,1,fivesix,,,,,,,,,,,,,,,,,,,,,,,,,,,,,,,,,,,,,,,,,,,,,,,,,,,,,,,,,,,,,,,,,,,,,,,,,,,,,,,,,,,,,,,,,,,,,,,,,,,,,,,,,,,,,,,,,,,,,,,,,,,,,,,,,,,,,,,,,
,,65a9a7fcb320353c4c4c96e0,2024-02-19_11h09.28.586,kallum_motion_pilot,2023.2.2,Win32,142.8571429,65a9a7fcb320353c4c4c96e0,65d2b6c8f2eece985d8e374c,65d2b84cf2cdb579bb1760b6,0.0367,0.0367,1,30,192,42,1,twoone,,,,,,,,,,,,,,,,,,,,,,,,,,,,,,,,,,,,,,,,,,,,,,,,,,,,,,,,,,,,,,,,,,,,,,,,,,,,,,,,,,,,,,,,,,,,,,,,,,,,,,,,,,,,,,,,,,,,,,,,,,,,,,,,,,,,,,,,,
,,65a9a7fcb320353c4c4c96e0,2024-02-19_11h09.28.586,kallum_motion_pilot,2023.2.2,Win32,142.8571429,65a9a7fcb320353c4c4c96e0,65d2b6c8f2eece985d8e374c,65d2b84cf2cdb579bb1760b6,0.0367,0.0368,1,31,193,154,1,sixfive,,,,,,,,,,,,,,,,,,,,,,,,,,,,,,,,,,,,,,,,,,,,,,,,,,,,,,,,,,,,,,,,,,,,,,,,,,,,,,,,,,,,,,,,,,,,,,,,,,,,,,,,,,,,,,,,,,,,,,,,,,,,,,,,,,,,,,,,,
,,65a9a7fcb320353c4c4c96e0,2024-02-19_11h09.28.586,kallum_motion_pilot,2023.2.2,Win32,142.8571429,65a9a7fcb320353c4c4c96e0,65d2b6c8f2eece985d8e374c,65d2b84cf2cdb579bb1760b6,0.0368,0.0368,1,32,194,21,1,threefour,,,,,,,,,,,,,,,,,,,,,,,,,,,,,,,,,,,,,,,,,,,,,,,,,,,,,,,,,,,,,,,,,,,,,,,,,,,,,,,,,,,,,,,,,,,,,,,,,,,,,,,,,,,,,,,,,,,,,,,,,,,,,,,,,,,,,,,,,
,,65a9a7fcb320353c4c4c96e0,2024-02-19_11h09.28.586,kallum_motion_pilot,2023.2.2,Win32,142.8571429,65a9a7fcb320353c4c4c96e0,65d2b6c8f2eece985d8e374c,65d2b84cf2cdb579bb1760b6,0.0369,0.037,1,33,195,13,1,threefour,,,,,,,,,,,,,,,,,,,,,,,,,,,,,,,,,,,,,,,,,,,,,,,,,,,,,,,,,,,,,,,,,,,,,,,,,,,,,,,,,,,,,,,,,,,,,,,,,,,,,,,,,,,,,,,,,,,,,,,,,,,,,,,,,,,,,,,,,
,,65a9a7fcb320353c4c4c96e0,2024-02-19_11h09.28.586,kallum_motion_pilot,2023.2.2,Win32,142.8571429,65a9a7fcb320353c4c4c96e0,65d2b6c8f2eece985d8e374c,65d2b84cf2cdb579bb1760b6,0.037,0.037,1,34,196,66,1,twoone,,,,,,,,,,,,,,,,,,,,,,,,,,,,,,,,,,,,,,,,,,,,,,,,,,,,,,,,,,,,,,,,,,,,,,,,,,,,,,,,,,,,,,,,,,,,,,,,,,,,,,,,,,,,,,,,,,,,,,,,,,,,,,,,,,,,,,,,,
,,65a9a7fcb320353c4c4c96e0,2024-02-19_11h09.28.586,kallum_motion_pilot,2023.2.2,Win32,142.8571429,65a9a7fcb320353c4c4c96e0,65d2b6c8f2eece985d8e374c,65d2b84cf2cdb579bb1760b6,0.0371,0.0371,1,35,197,146,1,sixfive,,,,,,,,,,,,,,,,,,,,,,,,,,,,,,,,,,,,,,,,,,,,,,,,,,,,,,,,,,,,,,,,,,,,,,,,,,,,,,,,,,,,,,,,,,,,,,,,,,,,,,,,,,,,,,,,,,,,,,,,,,,,,,,,,,,,,,,,,
,,65a9a7fcb320353c4c4c96e0,2024-02-19_11h09.28.586,kallum_motion_pilot,2023.2.2,Win32,142.8571429,65a9a7fcb320353c4c4c96e0,65d2b6c8f2eece985d8e374c,65d2b84cf2cdb579bb1760b6,0.0372,0.0372,1,36,198,121,1,fiveseven,,,,,,,,,,,,,,,,,,,,,,,,,,,,,,,,,,,,,,,,,,,,,,,,,,,,,,,,,,,,,,,,,,,,,,,,,,,,,,,,,,,,,,,,,,,,,,,,,,,,,,,,,,,,,,,,,,,,,,,,,,,,,,,,,,,,,,,,,
,,65a9a7fcb320353c4c4c96e0,2024-02-19_11h09.28.586,kallum_motion_pilot,2023.2.2,Win32,142.8571429,65a9a7fcb320353c4c4c96e0,65d2b6c8f2eece985d8e374c,65d2b84cf2cdb579bb1760b6,0.0374,0.0374,1,37,199,157,1,seveneight,,,,,,,,,,,,,,,,,,,,,,,,,,,,,,,,,,,,,,,,,,,,,,,,,,,,,,,,,,,,,,,,,,,,,,,,,,,,,,,,,,,,,,,,,,,,,,,,,,,,,,,,,,,,,,,,,,,,,,,,,,,,,,,,,,,,,,,,,
,,65a9a7fcb320353c4c4c96e0,2024-02-19_11h09.28.586,kallum_motion_pilot,2023.2.2,Win32,142.8571429,65a9a7fcb320353c4c4c96e0,65d2b6c8f2eece985d8e374c,65d2b84cf2cdb579bb1760b6,0.0374,0.0375,1,38,200,131,1,sixeight,,,,,,,,,,,,,,,,,,,,,,,,,,,,,,,,,,,,,,,,,,,,,,,,,,,,,,,,,,,,,,,,,,,,,,,,,,,,,,,,,,,,,,,,,,,,,,,,,,,,,,,,,,,,,,,,,,,,,,,,,,,,,,,,,,,,,,,,,
,,65a9a7fcb320353c4c4c96e0,2024-02-19_11h09.28.586,kallum_motion_pilot,2023.2.2,Win32,142.8571429,65a9a7fcb320353c4c4c96e0,65d2b6c8f2eece985d8e374c,65d2b84cf2cdb579bb1760b6,0.0375,0.0375,1,39,201,7,1,fourthree,,,,,,,,,,,,,,,,,,,,,,,,,,,,,,,,,,,,,,,,,,,,,,,,,,,,,,,,,,,,,,,,,,,,,,,,,,,,,,,,,,,,,,,,,,,,,,,,,,,,,,,,,,,,,,,,,,,,,,,,,,,,,,,,,,,,,,,,,
,,65a9a7fcb320353c4c4c96e0,2024-02-19_11h09.28.586,kallum_motion_pilot,2023.2.2,Win32,142.8571429,65a9a7fcb320353c4c4c96e0,65d2b6c8f2eece985d8e374c,65d2b84cf2cdb579bb1760b6,0.0377,0.0377,1,40,202,48,1,onetwo,,,,,,,,,,,,,,,,,,,,,,,,,,,,,,,,,,,,,,,,,,,,,,,,,,,,,,,,,,,,,,,,,,,,,,,,,,,,,,,,,,,,,,,,,,,,,,,,,,,,,,,,,,,,,,,,,,,,,,,,,,,,,,,,,,,,,,,,,
,,65a9a7fcb320353c4c4c96e0,2024-02-19_11h09.28.586,kallum_motion_pilot,2023.2.2,Win32,142.8571429,65a9a7fcb320353c4c4c96e0,65d2b6c8f2eece985d8e374c,65d2b84cf2cdb579bb1760b6,0.0377,0.0378,1,41,203,102,1,eightsix,,,,,,,,,,,,,,,,,,,,,,,,,,,,,,,,,,,,,,,,,,,,,,,,,,,,,,,,,,,,,,,,,,,,,,,,,,,,,,,,,,,,,,,,,,,,,,,,,,,,,,,,,,,,,,,,,,,,,,,,,,,,,,,,,,,,,,,,,
,,65a9a7fcb320353c4c4c96e0,2024-02-19_11h09.28.586,kallum_motion_pilot,2023.2.2,Win32,142.8571429,65a9a7fcb320353c4c4c96e0,65d2b6c8f2eece985d8e374c,65d2b84cf2cdb579bb1760b6,0.0378,0.0378,1,42,204,58,1,twoone,,,,,,,,,,,,,,,,,,,,,,,,,,,,,,,,,,,,,,,,,,,,,,,,,,,,,,,,,,,,,,,,,,,,,,,,,,,,,,,,,,,,,,,,,,,,,,,,,,,,,,,,,,,,,,,,,,,,,,,,,,,,,,,,,,,,,,,,,
,,65a9a7fcb320353c4c4c96e0,2024-02-19_11h09.28.586,kallum_motion_pilot,2023.2.2,Win32,142.8571429,65a9a7fcb320353c4c4c96e0,65d2b6c8f2eece985d8e374c,65d2b84cf2cdb579bb1760b6,0.0379,0.0379,1,43,205,20,1,threeone,,,,,,,,,,,,,,,,,,,,,,,,,,,,,,,,,,,,,,,,,,,,,,,,,,,,,,,,,,,,,,,,,,,,,,,,,,,,,,,,,,,,,,,,,,,,,,,,,,,,,,,,,,,,,,,,,,,,,,,,,,,,,,,,,,,,,,,,,
,,65a9a7fcb320353c4c4c96e0,2024-02-19_11h09.28.586,kallum_motion_pilot,2023.2.2,Win32,142.8571429,65a9a7fcb320353c4c4c96e0,65d2b6c8f2eece985d8e374c,65d2b84cf2cdb579bb1760b6,0.038,0.0381,1,44,206,77,1,threefour,,,,,,,,,,,,,,,,,,,,,,,,,,,,,,,,,,,,,,,,,,,,,,,,,,,,,,,,,,,,,,,,,,,,,,,,,,,,,,,,,,,,,,,,,,,,,,,,,,,,,,,,,,,,,,,,,,,,,,,,,,,,,,,,,,,,,,,,,
,,65a9a7fcb320353c4c4c96e0,2024-02-19_11h09.28.586,kallum_motion_pilot,2023.2.2,Win32,142.8571429,65a9a7fcb320353c4c4c96e0,65d2b6c8f2eece985d8e374c,65d2b84cf2cdb579bb1760b6,0.0382,0.0382,1,45,207,120,1,fivesix,,,,,,,,,,,,,,,,,,,,,,,,,,,,,,,,,,,,,,,,,,,,,,,,,,,,,,,,,,,,,,,,,,,,,,,,,,,,,,,,,,,,,,,,,,,,,,,,,,,,,,,,,,,,,,,,,,,,,,,,,,,,,,,,,,,,,,,,,
,,65a9a7fcb320353c4c4c96e0,2024-02-19_11h09.28.586,kallum_motion_pilot,2023.2.2,Win32,142.8571429,65a9a7fcb320353c4c4c96e0,65d2b6c8f2eece985d8e374c,65d2b84cf2cdb579bb1760b6,0.0382,0.0383,1,46,208,119,1,eightseven,,,,,,,,,,,,,,,,,,,,,,,,,,,,,,,,,,,,,,,,,,,,,,,,,,,,,,,,,,,,,,,,,,,,,,,,,,,,,,,,,,,,,,,,,,,,,,,,,,,,,,,,,,,,,,,,,,,,,,,,,,,,,,,,,,,,,,,,,
,,65a9a7fcb320353c4c4c96e0,2024-02-19_11h09.28.586,kallum_motion_pilot,2023.2.2,Win32,142.8571429,65a9a7fcb320353c4c4c96e0,65d2b6c8f2eece985d8e374c,65d2b84cf2cdb579bb1760b6,0.0383,0.0383,1,47,209,6,1,fourtwo,,,,,,,,,,,,,,,,,,,,,,,,,,,,,,,,,,,,,,,,,,,,,,,,,,,,,,,,,,,,,,,,,,,,,,,,,,,,,,,,,,,,,,,,,,,,,,,,,,,,,,,,,,,,,,,,,,,,,,,,,,,,,,,,,,,,,,,,,
,,65a9a7fcb320353c4c4c96e0,2024-02-19_11h09.28.586,kallum_motion_pilot,2023.2.2,Win32,142.8571429,65a9a7fcb320353c4c4c96e0,65d2b6c8f2eece985d8e374c,65d2b84cf2cdb579bb1760b6,0.0384,0.0385,1,48,210,47,1,fourthree,,,,,,,,,,,,,,,,,,,,,,,,,,,,,,,,,,,,,,,,,,,,,,,,,,,,,,,,,,,,,,,,,,,,,,,,,,,,,,,,,,,,,,,,,,,,,,,,,,,,,,,,,,,,,,,,,,,,,,,,,,,,,,,,,,,,,,,,,
,,65a9a7fcb320353c4c4c96e0,2024-02-19_11h09.28.586,kallum_motion_pilot,2023.2.2,Win32,142.8571429,65a9a7fcb320353c4c4c96e0,65d2b6c8f2eece985d8e374c,65d2b84cf2cdb579bb1760b6,0.0385,0.0386,1,49,211,81,1,fiveseven,,,,,,,,,,,,,,,,,,,,,,,,,,,,,,,,,,,,,,,,,,,,,,,,,,,,,,,,,,,,,,,,,,,,,,,,,,,,,,,,,,,,,,,,,,,,,,,,,,,,,,,,,,,,,,,,,,,,,,,,,,,,,,,,,,,,,,,,,
,,65a9a7fcb320353c4c4c96e0,2024-02-19_11h09.28.586,kallum_motion_pilot,2023.2.2,Win32,142.8571429,65a9a7fcb320353c4c4c96e0,65d2b6c8f2eece985d8e374c,65d2b84cf2cdb579bb1760b6,0.0387,0.0387,1,50,212,115,1,sixeight,,,,,,,,,,,,,,,,,,,,,,,,,,,,,,,,,,,,,,,,,,,,,,,,,,,,,,,,,,,,,,,,,,,,,,,,,,,,,,,,,,,,,,,,,,,,,,,,,,,,,,,,,,,,,,,,,,,,,,,,,,,,,,,,,,,,,,,,,
,,65a9a7fcb320353c4c4c96e0,2024-02-19_11h09.28.586,kallum_motion_pilot,2023.2.2,Win32,142.8571429,65a9a7fcb320353c4c4c96e0,65d2b6c8f2eece985d8e374c,65d2b84cf2cdb579bb1760b6,0.0388,0.0389,1,51,213,85,1,seveneight,,,,,,,,,,,,,,,,,,,,,,,,,,,,,,,,,,,,,,,,,,,,,,,,,,,,,,,,,,,,,,,,,,,,,,,,,,,,,,,,,,,,,,,,,,,,,,,,,,,,,,,,,,,,,,,,,,,,,,,,,,,,,,,,,,,,,,,,,
,,65a9a7fcb320353c4c4c96e0,2024-02-19_11h09.28.586,kallum_motion_pilot,2023.2.2,Win32,142.8571429,65a9a7fcb320353c4c4c96e0,65d2b6c8f2eece985d8e374c,65d2b84cf2cdb579bb1760b6,0.0389,0.039,1,52,214,15,1,fourthree,,,,,,,,,,,,,,,,,,,,,,,,,,,,,,,,,,,,,,,,,,,,,,,,,,,,,,,,,,,,,,,,,,,,,,,,,,,,,,,,,,,,,,,,,,,,,,,,,,,,,,,,,,,,,,,,,,,,,,,,,,,,,,,,,,,,,,,,,
,,65a9a7fcb320353c4c4c96e0,2024-02-19_11h09.28.586,kallum_motion_pilot,2023.2.2,Win32,142.8571429,65a9a7fcb320353c4c4c96e0,65d2b6c8f2eece985d8e374c,65d2b84cf2cdb579bb1760b6,0.039,0.039,1,53,215,39,1,fourthree,,,,,,,,,,,,,,,,,,,,,,,,,,,,,,,,,,,,,,,,,,,,,,,,,,,,,,,,,,,,,,,,,,,,,,,,,,,,,,,,,,,,,,,,,,,,,,,,,,,,,,,,,,,,,,,,,,,,,,,,,,,,,,,,,,,,,,,,,
,,65a9a7fcb320353c4c4c96e0,2024-02-19_11h09.28.586,kallum_motion_pilot,2023.2.2,Win32,142.8571429,65a9a7fcb320353c4c4c96e0,65d2b6c8f2eece985d8e374c,65d2b84cf2cdb579bb1760b6,0.0391,0.0392,1,54,216,113,1,fiveseven,,,,,,,,,,,,,,,,,,,,,,,,,,,,,,,,,,,,,,,,,,,,,,,,,,,,,,,,,,,,,,,,,,,,,,,,,,,,,,,,,,,,,,,,,,,,,,,,,,,,,,,,,,,,,,,,,,,,,,,,,,,,,,,,,,,,,,,,,
,,65a9a7fcb320353c4c4c96e0,2024-02-19_11h09.28.586,kallum_motion_pilot,2023.2.2,Win32,142.8571429,65a9a7fcb320353c4c4c96e0,65d2b6c8f2eece985d8e374c,65d2b84cf2cdb579bb1760b6,0.0392,0.0393,1,55,217,76,1,threeone,,,,,,,,,,,,,,,,,,,,,,,,,,,,,,,,,,,,,,,,,,,,,,,,,,,,,,,,,,,,,,,,,,,,,,,,,,,,,,,,,,,,,,,,,,,,,,,,,,,,,,,,,,,,,,,,,,,,,,,,,,,,,,,,,,,,,,,,,
,,65a9a7fcb320353c4c4c96e0,2024-02-19_11h09.28.586,kallum_motion_pilot,2023.2.2,Win32,142.8571429,65a9a7fcb320353c4c4c96e0,65d2b6c8f2eece985d8e374c,65d2b84cf2cdb579bb1760b6,0.0393,0.0393,1,56,218,31,1,fourthree,,,,,,,,,,,,,,,,,,,,,,,,,,,,,,,,,,,,,,,,,,,,,,,,,,,,,,,,,,,,,,,,,,,,,,,,,,,,,,,,,,,,,,,,,,,,,,,,,,,,,,,,,,,,,,,,,,,,,,,,,,,,,,,,,,,,,,,,,
,,65a9a7fcb320353c4c4c96e0,2024-02-19_11h09.28.586,kallum_motion_pilot,2023.2.2,Win32,142.8571429,65a9a7fcb320353c4c4c96e0,65d2b6c8f2eece985d8e374c,65d2b84cf2cdb579bb1760b6,0.0394,0.0394,1,57,219,98,1,sixfive,,,,,,,,,,,,,,,,,,,,,,,,,,,,,,,,,,,,,,,,,,,,,,,,,,,,,,,,,,,,,,,,,,,,,,,,,,,,,,,,,,,,,,,,,,,,,,,,,,,,,,,,,,,,,,,,,,,,,,,,,,,,,,,,,,,,,,,,,
,,65a9a7fcb320353c4c4c96e0,2024-02-19_11h09.28.586,kallum_motion_pilot,2023.2.2,Win32,142.8571429,65a9a7fcb320353c4c4c96e0,65d2b6c8f2eece985d8e374c,65d2b84cf2cdb579bb1760b6,0.0395,0.0396,1,58,220,74,1,twoone,,,,,,,,,,,,,,,,,,,,,,,,,,,,,,,,,,,,,,,,,,,,,,,,,,,,,,,,,,,,,,,,,,,,,,,,,,,,,,,,,,,,,,,,,,,,,,,,,,,,,,,,,,,,,,,,,,,,,,,,,,,,,,,,,,,,,,,,,
,,65a9a7fcb320353c4c4c96e0,2024-02-19_11h09.28.586,kallum_motion_pilot,2023.2.2,Win32,142.8571429,65a9a7fcb320353c4c4c96e0,65d2b6c8f2eece985d8e374c,65d2b84cf2cdb579bb1760b6,0.0396,0.0397,1,59,221,150,1,eightsix,,,,,,,,,,,,,,,,,,,,,,,,,,,,,,,,,,,,,,,,,,,,,,,,,,,,,,,,,,,,,,,,,,,,,,,,,,,,,,,,,,,,,,,,,,,,,,,,,,,,,,,,,,,,,,,,,,,,,,,,,,,,,,,,,,,,,,,,,
,,65a9a7fcb320353c4c4c96e0,2024-02-19_11h09.28.586,kallum_motion_pilot,2023.2.2,Win32,142.8571429,65a9a7fcb320353c4c4c96e0,65d2b6c8f2eece985d8e374c,65d2b84cf2cdb579bb1760b6,0.0398,0.0398,1,60,222,99,1,sixeight,,,,,,,,,,,,,,,,,,,,,,,,,,,,,,,,,,,,,,,,,,,,,,,,,,,,,,,,,,,,,,,,,,,,,,,,,,,,,,,,,,,,,,,,,,,,,,,,,,,,,,,,,,,,,,,,,,,,,,,,,,,,,,,,,,,,,,,,,
,,65a9a7fcb320353c4c4c96e0,2024-02-19_11h09.28.586,kallum_motion_pilot,2023.2.2,Win32,142.8571429,65a9a7fcb320353c4c4c96e0,65d2b6c8f2eece985d8e374c,65d2b84cf2cdb579bb1760b6,0.0399,0.04,1,61,223,69,1,threefour,,,,,,,,,,,,,,,,,,,,,,,,,,,,,,,,,,,,,,,,,,,,,,,,,,,,,,,,,,,,,,,,,,,,,,,,,,,,,,,,,,,,,,,,,,,,,,,,,,,,,,,,,,,,,,,,,,,,,,,,,,,,,,,,,,,,,,,,,
,,65a9a7fcb320353c4c4c96e0,2024-02-19_11h09.28.586,kallum_motion_pilot,2023.2.2,Win32,142.8571429,65a9a7fcb320353c4c4c96e0,65d2b6c8f2eece985d8e374c,65d2b84cf2cdb579bb1760b6,0.04,0.04,1,62,224,27,1,twofour,,,,,,,,,,,,,,,,,,,,,,,,,,,,,,,,,,,,,,,,,,,,,,,,,,,,,,,,,,,,,,,,,,,,,,,,,,,,,,,,,,,,,,,,,,,,,,,,,,,,,,,,,,,,,,,,,,,,,,,,,,,,,,,,,,,,,,,,,
,,65a9a7fcb320353c4c4c96e0,2024-02-19_11h09.28.586,kallum_motion_pilot,2023.2.2,Win32,142.8571429,65a9a7fcb320353c4c4c96e0,65d2b6c8f2eece985d8e374c,65d2b84cf2cdb579bb1760b6,0.04,0.0401,1,63,225,53,1,threefour,,,,,,,,,,,,,,,,,,,,,,,,,,,,,,,,,,,,,,,,,,,,,,,,,,,,,,,,,,,,,,,,,,,,,,,,,,,,,,,,,,,,,,,,,,,,,,,,,,,,,,,,,,,,,,,,,,,,,,,,,,,,,,,,,,,,,,,,,
,,65a9a7fcb320353c4c4c96e0,2024-02-19_11h09.28.586,kallum_motion_pilot,2023.2.2,Win32,142.8571429,65a9a7fcb320353c4c4c96e0,65d2b6c8f2eece985d8e374c,65d2b84cf2cdb579bb1760b6,0.0401,0.0402,1,64,226,78,1,fourtwo,,,,,,,,,,,,,,,,,,,,,,,,,,,,,,,,,,,,,,,,,,,,,,,,,,,,,,,,,,,,,,,,,,,,,,,,,,,,,,,,,,,,,,,,,,,,,,,,,,,,,,,,,,,,,,,,,,,,,,,,,,,,,,,,,,,,,,,,,
,,65a9a7fcb320353c4c4c96e0,2024-02-19_11h09.28.586,kallum_motion_pilot,2023.2.2,Win32,142.8571429,65a9a7fcb320353c4c4c96e0,65d2b6c8f2eece985d8e374c,65d2b84cf2cdb579bb1760b6,0.0402,0.0403,1,65,227,63,1,fourthree,,,,,,,,,,,,,,,,,,,,,,,,,,,,,,,,,,,,,,,,,,,,,,,,,,,,,,,,,,,,,,,,,,,,,,,,,,,,,,,,,,,,,,,,,,,,,,,,,,,,,,,,,,,,,,,,,,,,,,,,,,,,,,,,,,,,,,,,,
,,65a9a7fcb320353c4c4c96e0,2024-02-19_11h09.28.586,kallum_motion_pilot,2023.2.2,Win32,142.8571429,65a9a7fcb320353c4c4c96e0,65d2b6c8f2eece985d8e374c,65d2b84cf2cdb579bb1760b6,0.0404,0.0404,1,66,228,43,1,twofour,,,,,,,,,,,,,,,,,,,,,,,,,,,,,,,,,,,,,,,,,,,,,,,,,,,,,,,,,,,,,,,,,,,,,,,,,,,,,,,,,,,,,,,,,,,,,,,,,,,,,,,,,,,,,,,,,,,,,,,,,,,,,,,,,,,,,,,,,
,,65a9a7fcb320353c4c4c96e0,2024-02-19_11h09.28.586,kallum_motion_pilot,2023.2.2,Win32,142.8571429,65a9a7fcb320353c4c4c96e0,65d2b6c8f2eece985d8e374c,65d2b84cf2cdb579bb1760b6,0.0405,0.0405,1,67,229,70,1,fourtwo,,,,,,,,,,,,,,,,,,,,,,,,,,,,,,,,,,,,,,,,,,,,,,,,,,,,,,,,,,,,,,,,,,,,,,,,,,,,,,,,,,,,,,,,,,,,,,,,,,,,,,,,,,,,,,,,,,,,,,,,,,,,,,,,,,,,,,,,,
,,65a9a7fcb320353c4c4c96e0,2024-02-19_11h09.28.586,kallum_motion_pilot,2023.2.2,Win32,142.8571429,65a9a7fcb320353c4c4c96e0,65d2b6c8f2eece985d8e374c,65d2b84cf2cdb579bb1760b6,0.0405,0.0406,1,68,230,22,1,fourtwo,,,,,,,,,,,,,,,,,,,,,,,,,,,,,,,,,,,,,,,,,,,,,,,,,,,,,,,,,,,,,,,,,,,,,,,,,,,,,,,,,,,,,,,,,,,,,,,,,,,,,,,,,,,,,,,,,,,,,,,,,,,,,,,,,,,,,,,,,
,,65a9a7fcb320353c4c4c96e0,2024-02-19_11h09.28.586,kallum_motion_pilot,2023.2.2,Win32,142.8571429,65a9a7fcb320353c4c4c96e0,65d2b6c8f2eece985d8e374c,65d2b84cf2cdb579bb1760b6,0.0407,0.0407,1,69,231,33,1,onethree,,,,,,,,,,,,,,,,,,,,,,,,,,,,,,,,,,,,,,,,,,,,,,,,,,,,,,,,,,,,,,,,,,,,,,,,,,,,,,,,,,,,,,,,,,,,,,,,,,,,,,,,,,,,,,,,,,,,,,,,,,,,,,,,,,,,,,,,,
,,65a9a7fcb320353c4c4c96e0,2024-02-19_11h09.28.586,kallum_motion_pilot,2023.2.2,Win32,142.8571429,65a9a7fcb320353c4c4c96e0,65d2b6c8f2eece985d8e374c,65d2b84cf2cdb579bb1760b6,0.0409,0.0409,1,70,232,2,1,twoone,,,,,,,,,,,,,,,,,,,,,,,,,,,,,,,,,,,,,,,,,,,,,,,,,,,,,,,,,,,,,,,,,,,,,,,,,,,,,,,,,,,,,,,,,,,,,,,,,,,,,,,,,,,,,,,,,,,,,,,,,,,,,,,,,,,,,,,,,
,,65a9a7fcb320353c4c4c96e0,2024-02-19_11h09.28.586,kallum_motion_pilot,2023.2.2,Win32,142.8571429,65a9a7fcb320353c4c4c96e0,65d2b6c8f2eece985d8e374c,65d2b84cf2cdb579bb1760b6,0.041,0.041,1,71,233,117,1,seveneight,,,,,,,,,,,,,,,,,,,,,,,,,,,,,,,,,,,,,,,,,,,,,,,,,,,,,,,,,,,,,,,,,,,,,,,,,,,,,,,,,,,,,,,,,,,,,,,,,,,,,,,,,,,,,,,,,,,,,,,,,,,,,,,,,,,,,,,,,
,,65a9a7fcb320353c4c4c96e0,2024-02-19_11h09.28.586,kallum_motion_pilot,2023.2.2,Win32,142.8571429,65a9a7fcb320353c4c4c96e0,65d2b6c8f2eece985d8e374c,65d2b84cf2cdb579bb1760b6,0.041,0.0411,1,72,234,116,1,sevenfive,,,,,,,,,,,,,,,,,,,,,,,,,,,,,,,,,,,,,,,,,,,,,,,,,,,,,,,,,,,,,,,,,,,,,,,,,,,,,,,,,,,,,,,,,,,,,,,,,,,,,,,,,,,,,,,,,,,,,,,,,,,,,,,,,,,,,,,,,
,,65a9a7fcb320353c4c4c96e0,2024-02-19_11h09.28.586,kallum_motion_pilot,2023.2.2,Win32,142.8571429,65a9a7fcb320353c4c4c96e0,65d2b6c8f2eece985d8e374c,65d2b84cf2cdb579bb1760b6,0.0411,0.0412,1,73,235,133,1,seveneight,,,,,,,,,,,,,,,,,,,,,,,,,,,,,,,,,,,,,,,,,,,,,,,,,,,,,,,,,,,,,,,,,,,,,,,,,,,,,,,,,,,,,,,,,,,,,,,,,,,,,,,,,,,,,,,,,,,,,,,,,,,,,,,,,,,,,,,,,
,,65a9a7fcb320353c4c4c96e0,2024-02-19_11h09.28.586,kallum_motion_pilot,2023.2.2,Win32,142.8571429,65a9a7fcb320353c4c4c96e0,65d2b6c8f2eece985d8e374c,65d2b84cf2cdb579bb1760b6,0.0412,0.0413,1,74,236,140,1,sevenfive,,,,,,,,,,,,,,,,,,,,,,,,,,,,,,,,,,,,,,,,,,,,,,,,,,,,,,,,,,,,,,,,,,,,,,,,,,,,,,,,,,,,,,,,,,,,,,,,,,,,,,,,,,,,,,,,,,,,,,,,,,,,,,,,,,,,,,,,,
,,65a9a7fcb320353c4c4c96e0,2024-02-19_11h09.28.586,kallum_motion_pilot,2023.2.2,Win32,142.8571429,65a9a7fcb320353c4c4c96e0,65d2b6c8f2eece985d8e374c,65d2b84cf2cdb579bb1760b6,0.0414,0.0414,1,75,237,40,1,onetwo,,,,,,,,,,,,,,,,,,,,,,,,,,,,,,,,,,,,,,,,,,,,,,,,,,,,,,,,,,,,,,,,,,,,,,,,,,,,,,,,,,,,,,,,,,,,,,,,,,,,,,,,,,,,,,,,,,,,,,,,,,,,,,,,,,,,,,,,,
,,65a9a7fcb320353c4c4c96e0,2024-02-19_11h09.28.586,kallum_motion_pilot,2023.2.2,Win32,142.8571429,65a9a7fcb320353c4c4c96e0,65d2b6c8f2eece985d8e374c,65d2b84cf2cdb579bb1760b6,0.0414,0.0415,1,76,238,56,1,onetwo,,,,,,,,,,,,,,,,,,,,,,,,,,,,,,,,,,,,,,,,,,,,,,,,,,,,,,,,,,,,,,,,,,,,,,,,,,,,,,,,,,,,,,,,,,,,,,,,,,,,,,,,,,,,,,,,,,,,,,,,,,,,,,,,,,,,,,,,,
,,65a9a7fcb320353c4c4c96e0,2024-02-19_11h09.28.586,kallum_motion_pilot,2023.2.2,Win32,142.8571429,65a9a7fcb320353c4c4c96e0,65d2b6c8f2eece985d8e374c,65d2b84cf2cdb579bb1760b6,0.0416,0.0416,1,77,239,60,1,threeone,,,,,,,,,,,,,,,,,,,,,,,,,,,,,,,,,,,,,,,,,,,,,,,,,,,,,,,,,,,,,,,,,,,,,,,,,,,,,,,,,,,,,,,,,,,,,,,,,,,,,,,,,,,,,,,,,,,,,,,,,,,,,,,,,,,,,,,,,
,,65a9a7fcb320353c4c4c96e0,2024-02-19_11h09.28.586,kallum_motion_pilot,2023.2.2,Win32,142.8571429,65a9a7fcb320353c4c4c96e0,65d2b6c8f2eece985d8e374c,65d2b84cf2cdb579bb1760b6,0.0417,0.0418,1,78,240,29,1,threefour,,,,,,,,,,,,,,,,,,,,,,,,,,,,,,,,,,,,,,,,,,,,,,,,,,,,,,,,,,,,,,,,,,,,,,,,,,,,,,,,,,,,,,,,,,,,,,,,,,,,,,,,,,,,,,,,,,,,,,,,,,,,,,,,,,,,,,,,,
,,65a9a7fcb320353c4c4c96e0,2024-02-19_11h09.28.586,kallum_motion_pilot,2023.2.2,Win32,142.8571429,65a9a7fcb320353c4c4c96e0,65d2b6c8f2eece985d8e374c,65d2b84cf2cdb579bb1760b6,0.0418,0.0418,1,79,241,91,1,sixeight,,,,,,,,,,,,,,,,,,,,,,,,,,,,,,,,,,,,,,,,,,,,,,,,,,,,,,,,,,,,,,,,,,,,,,,,,,,,,,,,,,,,,,,,,,,,,,,,,,,,,,,,,,,,,,,,,,,,,,,,,,,,,,,,,,,,,,,,,
,,65a9a7fcb320353c4c4c96e0,2024-02-19_11h09.28.586,kallum_motion_pilot,2023.2.2,Win32,142.8571429,65a9a7fcb320353c4c4c96e0,65d2b6c8f2eece985d8e374c,65d2b84cf2cdb579bb1760b6,0.0419,0.042,1,80,242,158,1,eightsix,,,,,,,,,,,,,,,,,,,,,,,,,,,,,,,,,,,,,,,,,,,,,,,,,,,,,,,,,,,,,,,,,,,,,,,,,,,,,,,,,,,,,,,,,,,,,,,,,,,,,,,,,,,,,,,,,,,,,,,,,,,,,,,,,,,,,,,,,
,,65a9a7fcb320353c4c4c96e0,2024-02-19_11h09.28.586,kallum_motion_pilot,2023.2.2,Win32,142.8571429,65a9a7fcb320353c4c4c96e0,65d2b6c8f2eece985d8e374c,65d2b84cf2cdb579bb1760b6,0.042,0.042,1,81,243,139,1,sixeight,,,,,,,,,,,,,,,,,,,,,,,,,,,,,,,,,,,,,,,,,,,,,,,,,,,,,,,,,,,,,,,,,,,,,,,,,,,,,,,,,,,,,,,,,,,,,,,,,,,,,,,,,,,,,,,,,,,,,,,,,,,,,,,,,,,,,,,,,
,,65a9a7fcb320353c4c4c96e0,2024-02-19_11h09.28.586,kallum_motion_pilot,2023.2.2,Win32,142.8571429,65a9a7fcb320353c4c4c96e0,65d2b6c8f2eece985d8e374c,65d2b84cf2cdb579bb1760b6,0.042,0.0421,1,82,244,108,1,sevenfive,,,,,,,,,,,,,,,,,,,,,,,,,,,,,,,,,,,,,,,,,,,,,,,,,,,,,,,,,,,,,,,,,,,,,,,,,,,,,,,,,,,,,,,,,,,,,,,,,,,,,,,,,,,,,,,,,,,,,,,,,,,,,,,,,,,,,,,,,
,,65a9a7fcb320353c4c4c96e0,2024-02-19_11h09.28.586,kallum_motion_pilot,2023.2.2,Win32,142.8571429,65a9a7fcb320353c4c4c96e0,65d2b6c8f2eece985d8e374c,65d2b84cf2cdb579bb1760b6,0.0422,0.0423,1,83,245,130,1,sixfive,,,,,,,,,,,,,,,,,,,,,,,,,,,,,,,,,,,,,,,,,,,,,,,,,,,,,,,,,,,,,,,,,,,,,,,,,,,,,,,,,,,,,,,,,,,,,,,,,,,,,,,,,,,,,,,,,,,,,,,,,,,,,,,,,,,,,,,,,
,,65a9a7fcb320353c4c4c96e0,2024-02-19_11h09.28.586,kallum_motion_pilot,2023.2.2,Win32,142.8571429,65a9a7fcb320353c4c4c96e0,65d2b6c8f2eece985d8e374c,65d2b84cf2cdb579bb1760b6,0.0423,0.0424,1,84,246,65,1,onethree,,,,,,,,,,,,,,,,,,,,,,,,,,,,,,,,,,,,,,,,,,,,,,,,,,,,,,,,,,,,,,,,,,,,,,,,,,,,,,,,,,,,,,,,,,,,,,,,,,,,,,,,,,,,,,,,,,,,,,,,,,,,,,,,,,,,,,,,,
,,65a9a7fcb320353c4c4c96e0,2024-02-19_11h09.28.586,kallum_motion_pilot,2023.2.2,Win32,142.8571429,65a9a7fcb320353c4c4c96e0,65d2b6c8f2eece985d8e374c,65d2b84cf2cdb579bb1760b6,0.0425,0.0425,1,85,247,61,1,threefour,,,,,,,,,,,,,,,,,,,,,,,,,,,,,,,,,,,,,,,,,,,,,,,,,,,,,,,,,,,,,,,,,,,,,,,,,,,,,,,,,,,,,,,,,,,,,,,,,,,,,,,,,,,,,,,,,,,,,,,,,,,,,,,,,,,,,,,,,
,,65a9a7fcb320353c4c4c96e0,2024-02-19_11h09.28.586,kallum_motion_pilot,2023.2.2,Win32,142.8571429,65a9a7fcb320353c4c4c96e0,65d2b6c8f2eece985d8e374c,65d2b84cf2cdb579bb1760b6,0.0425,0.0426,1,86,248,89,1,fiveseven,,,,,,,,,,,,,,,,,,,,,,,,,,,,,,,,,,,,,,,,,,,,,,,,,,,,,,,,,,,,,,,,,,,,,,,,,,,,,,,,,,,,,,,,,,,,,,,,,,,,,,,,,,,,,,,,,,,,,,,,,,,,,,,,,,,,,,,,,
,,65a9a7fcb320353c4c4c96e0,2024-02-19_11h09.28.586,kallum_motion_pilot,2023.2.2,Win32,142.8571429,65a9a7fcb320353c4c4c96e0,65d2b6c8f2eece985d8e374c,65d2b84cf2cdb579bb1760b6,0.0427,0.0427,1,87,249,132,1,sevenfive,,,,,,,,,,,,,,,,,,,,,,,,,,,,,,,,,,,,,,,,,,,,,,,,,,,,,,,,,,,,,,,,,,,,,,,,,,,,,,,,,,,,,,,,,,,,,,,,,,,,,,,,,,,,,,,,,,,,,,,,,,,,,,,,,,,,,,,,,
,,65a9a7fcb320353c4c4c96e0,2024-02-19_11h09.28.586,kallum_motion_pilot,2023.2.2,Win32,142.8571429,65a9a7fcb320353c4c4c96e0,65d2b6c8f2eece985d8e374c,65d2b84cf2cdb579bb1760b6,0.0428,0.0428,1,88,250,64,1,onetwo,,,,,,,,,,,,,,,,,,,,,,,,,,,,,,,,,,,,,,,,,,,,,,,,,,,,,,,,,,,,,,,,,,,,,,,,,,,,,,,,,,,,,,,,,,,,,,,,,,,,,,,,,,,,,,,,,,,,,,,,,,,,,,,,,,,,,,,,,
,,65a9a7fcb320353c4c4c96e0,2024-02-19_11h09.28.586,kallum_motion_pilot,2023.2.2,Win32,142.8571429,65a9a7fcb320353c4c4c96e0,65d2b6c8f2eece985d8e374c,65d2b84cf2cdb579bb1760b6,0.0429,0.043,1,89,251,5,1,threefour,,,,,,,,,,,,,,,,,,,,,,,,,,,,,,,,,,,,,,,,,,,,,,,,,,,,,,,,,,,,,,,,,,,,,,,,,,,,,,,,,,,,,,,,,,,,,,,,,,,,,,,,,,,,,,,,,,,,,,,,,,,,,,,,,,,,,,,,,
,,65a9a7fcb320353c4c4c96e0,2024-02-19_11h09.28.586,kallum_motion_pilot,2023.2.2,Win32,142.8571429,65a9a7fcb320353c4c4c96e0,65d2b6c8f2eece985d8e374c,65d2b84cf2cdb579bb1760b6,0.043,0.0431,1,90,252,51,1,twofour,,,,,,,,,,,,,,,,,,,,,,,,,,,,,,,,,,,,,,,,,,,,,,,,,,,,,,,,,,,,,,,,,,,,,,,,,,,,,,,,,,,,,,,,,,,,,,,,,,,,,,,,,,,,,,,,,,,,,,,,,,,,,,,,,,,,,,,,,
,,65a9a7fcb320353c4c4c96e0,2024-02-19_11h09.28.586,kallum_motion_pilot,2023.2.2,Win32,142.8571429,65a9a7fcb320353c4c4c96e0,65d2b6c8f2eece985d8e374c,65d2b84cf2cdb579bb1760b6,0.0431,0.0432,1,91,253,105,1,fiveseven,,,,,,,,,,,,,,,,,,,,,,,,,,,,,,,,,,,,,,,,,,,,,,,,,,,,,,,,,,,,,,,,,,,,,,,,,,,,,,,,,,,,,,,,,,,,,,,,,,,,,,,,,,,,,,,,,,,,,,,,,,,,,,,,,,,,,,,,,
,,65a9a7fcb320353c4c4c96e0,2024-02-19_11h09.28.586,kallum_motion_pilot,2023.2.2,Win32,142.8571429,65a9a7fcb320353c4c4c96e0,65d2b6c8f2eece985d8e374c,65d2b84cf2cdb579bb1760b6,0.0432,0.0433,1,92,254,9,1,onethree,,,,,,,,,,,,,,,,,,,,,,,,,,,,,,,,,,,,,,,,,,,,,,,,,,,,,,,,,,,,,,,,,,,,,,,,,,,,,,,,,,,,,,,,,,,,,,,,,,,,,,,,,,,,,,,,,,,,,,,,,,,,,,,,,,,,,,,,,
,,65a9a7fcb320353c4c4c96e0,2024-02-19_11h09.28.586,kallum_motion_pilot,2023.2.2,Win32,142.8571429,65a9a7fcb320353c4c4c96e0,65d2b6c8f2eece985d8e374c,65d2b84cf2cdb579bb1760b6,0.0434,0.0435,1,93,255,55,1,fourthree,,,,,,,,,,,,,,,,,,,,,,,,,,,,,,,,,,,,,,,,,,,,,,,,,,,,,,,,,,,,,,,,,,,,,,,,,,,,,,,,,,,,,,,,,,,,,,,,,,,,,,,,,,,,,,,,,,,,,,,,,,,,,,,,,,,,,,,,,
,,65a9a7fcb320353c4c4c96e0,2024-02-19_11h09.28.586,kallum_motion_pilot,2023.2.2,Win32,142.8571429,65a9a7fcb320353c4c4c96e0,65d2b6c8f2eece985d8e374c,65d2b84cf2cdb579bb1760b6,0.0436,0.0436,1,94,256,59,1,twofour,,,,,,,,,,,,,,,,,,,,,,,,,,,,,,,,,,,,,,,,,,,,,,,,,,,,,,,,,,,,,,,,,,,,,,,,,,,,,,,,,,,,,,,,,,,,,,,,,,,,,,,,,,,,,,,,,,,,,,,,,,,,,,,,,,,,,,,,,
,,65a9a7fcb320353c4c4c96e0,2024-02-19_11h09.28.586,kallum_motion_pilot,2023.2.2,Win32,142.8571429,65a9a7fcb320353c4c4c96e0,65d2b6c8f2eece985d8e374c,65d2b84cf2cdb579bb1760b6,0.0437,0.0437,1,95,257,14,1,fourtwo,,,,,,,,,,,,,,,,,,,,,,,,,,,,,,,,,,,,,,,,,,,,,,,,,,,,,,,,,,,,,,,,,,,,,,,,,,,,,,,,,,,,,,,,,,,,,,,,,,,,,,,,,,,,,,,,,,,,,,,,,,,,,,,,,,,,,,,,,
,,65a9a7fcb320353c4c4c96e0,2024-02-19_11h09.28.586,kallum_motion_pilot,2023.2.2,Win32,142.8571429,65a9a7fcb320353c4c4c96e0,65d2b6c8f2eece985d8e374c,65d2b84cf2cdb579bb1760b6,0.0438,0.0438,1,96,258,8,1,onetwo,,,,,,,,,,,,,,,,,,,,,,,,,,,,,,,,,,,,,,,,,,,,,,,,,,,,,,,,,,,,,,,,,,,,,,,,,,,,,,,,,,,,,,,,,,,,,,,,,,,,,,,,,,,,,,,,,,,,,,,,,,,,,,,,,,,,,,,,,
,,65a9a7fcb320353c4c4c96e0,2024-02-19_11h09.28.586,kallum_motion_pilot,2023.2.2,Win32,142.8571429,65a9a7fcb320353c4c4c96e0,65d2b6c8f2eece985d8e374c,65d2b84cf2cdb579bb1760b6,0.0439,0.044,1,97,259,67,1,twofour,,,,,,,,,,,,,,,,,,,,,,,,,,,,,,,,,,,,,,,,,,,,,,,,,,,,,,,,,,,,,,,,,,,,,,,,,,,,,,,,,,,,,,,,,,,,,,,,,,,,,,,,,,,,,,,,,,,,,,,,,,,,,,,,,,,,,,,,,
,,65a9a7fcb320353c4c4c96e0,2024-02-19_11h09.28.586,kallum_motion_pilot,2023.2.2,Win32,142.8571429,65a9a7fcb320353c4c4c96e0,65d2b6c8f2eece985d8e374c,65d2b84cf2cdb579bb1760b6,0.044,0.044,1,98,260,38,1,fourtwo,,,,,,,,,,,,,,,,,,,,,,,,,,,,,,,,,,,,,,,,,,,,,,,,,,,,,,,,,,,,,,,,,,,,,,,,,,,,,,,,,,,,,,,,,,,,,,,,,,,,,,,,,,,,,,,,,,,,,,,,,,,,,,,,,,,,,,,,,
,,65a9a7fcb320353c4c4c96e0,2024-02-19_11h09.28.586,kallum_motion_pilot,2023.2.2,Win32,142.8571429,65a9a7fcb320353c4c4c96e0,65d2b6c8f2eece985d8e374c,65d2b84cf2cdb579bb1760b6,0.0441,0.0442,1,99,261,159,1,eightseven,,,,,,,,,,,,,,,,,,,,,,,,,,,,,,,,,,,,,,,,,,,,,,,,,,,,,,,,,,,,,,,,,,,,,,,,,,,,,,,,,,,,,,,,,,,,,,,,,,,,,,,,,,,,,,,,,,,,,,,,,,,,,,,,,,,,,,,,,
,,65a9a7fcb320353c4c4c96e0,2024-02-19_11h09.28.586,kallum_motion_pilot,2023.2.2,Win32,142.8571429,65a9a7fcb320353c4c4c96e0,65d2b6c8f2eece985d8e374c,65d2b84cf2cdb579bb1760b6,0.0442,0.0443,1,100,262,87,1,eightseven,,,,,,,,,,,,,,,,,,,,,,,,,,,,,,,,,,,,,,,,,,,,,,,,,,,,,,,,,,,,,,,,,,,,,,,,,,,,,,,,,,,,,,,,,,,,,,,,,,,,,,,,,,,,,,,,,,,,,,,,,,,,,,,,,,,,,,,,,
,,65a9a7fcb320353c4c4c96e0,2024-02-19_11h09.28.586,kallum_motion_pilot,2023.2.2,Win32,142.8571429,65a9a7fcb320353c4c4c96e0,65d2b6c8f2eece985d8e374c,65d2b84cf2cdb579bb1760b6,0.0443,0.0444,1,101,263,83,1,sixeight,,,,,,,,,,,,,,,,,,,,,,,,,,,,,,,,,,,,,,,,,,,,,,,,,,,,,,,,,,,,,,,,,,,,,,,,,,,,,,,,,,,,,,,,,,,,,,,,,,,,,,,,,,,,,,,,,,,,,,,,,,,,,,,,,,,,,,,,,
,,65a9a7fcb320353c4c4c96e0,2024-02-19_11h09.28.586,kallum_motion_pilot,2023.2.2,Win32,142.8571429,65a9a7fcb320353c4c4c96e0,65d2b6c8f2eece985d8e374c,65d2b84cf2cdb579bb1760b6,0.0445,0.0445,1,102,264,12,1,threeone,,,,,,,,,,,,,,,,,,,,,,,,,,,,,,,,,,,,,,,,,,,,,,,,,,,,,,,,,,,,,,,,,,,,,,,,,,,,,,,,,,,,,,,,,,,,,,,,,,,,,,,,,,,,,,,,,,,,,,,,,,,,,,,,,,,,,,,,,
,,65a9a7fcb320353c4c4c96e0,2024-02-19_11h09.28.586,kallum_motion_pilot,2023.2.2,Win32,142.8571429,65a9a7fcb320353c4c4c96e0,65d2b6c8f2eece985d8e374c,65d2b84cf2cdb579bb1760b6,0.0447,0.0447,1,103,265,54,1,fourtwo,,,,,,,,,,,,,,,,,,,,,,,,,,,,,,,,,,,,,,,,,,,,,,,,,,,,,,,,,,,,,,,,,,,,,,,,,,,,,,,,,,,,,,,,,,,,,,,,,,,,,,,,,,,,,,,,,,,,,,,,,,,,,,,,,,,,,,,,,
,,65a9a7fcb320353c4c4c96e0,2024-02-19_11h09.28.586,kallum_motion_pilot,2023.2.2,Win32,142.8571429,65a9a7fcb320353c4c4c96e0,65d2b6c8f2eece985d8e374c,65d2b84cf2cdb579bb1760b6,0.0448,0.0448,1,104,266,122,1,sixfive,,,,,,,,,,,,,,,,,,,,,,,,,,,,,,,,,,,,,,,,,,,,,,,,,,,,,,,,,,,,,,,,,,,,,,,,,,,,,,,,,,,,,,,,,,,,,,,,,,,,,,,,,,,,,,,,,,,,,,,,,,,,,,,,,,,,,,,,,
,,65a9a7fcb320353c4c4c96e0,2024-02-19_11h09.28.586,kallum_motion_pilot,2023.2.2,Win32,142.8571429,65a9a7fcb320353c4c4c96e0,65d2b6c8f2eece985d8e374c,65d2b84cf2cdb579bb1760b6,0.0448,0.0449,1,105,267,160,1,fivesix,,,,,,,,,,,,,,,,,,,,,,,,,,,,,,,,,,,,,,,,,,,,,,,,,,,,,,,,,,,,,,,,,,,,,,,,,,,,,,,,,,,,,,,,,,,,,,,,,,,,,,,,,,,,,,,,,,,,,,,,,,,,,,,,,,,,,,,,,
,,65a9a7fcb320353c4c4c96e0,2024-02-19_11h09.28.586,kallum_motion_pilot,2023.2.2,Win32,142.8571429,65a9a7fcb320353c4c4c96e0,65d2b6c8f2eece985d8e374c,65d2b84cf2cdb579bb1760b6,0.045,0.045,1,106,268,68,1,threeone,,,,,,,,,,,,,,,,,,,,,,,,,,,,,,,,,,,,,,,,,,,,,,,,,,,,,,,,,,,,,,,,,,,,,,,,,,,,,,,,,,,,,,,,,,,,,,,,,,,,,,,,,,,,,,,,,,,,,,,,,,,,,,,,,,,,,,,,,
,,65a9a7fcb320353c4c4c96e0,2024-02-19_11h09.28.586,kallum_motion_pilot,2023.2.2,Win32,142.8571429,65a9a7fcb320353c4c4c96e0,65d2b6c8f2eece985d8e374c,65d2b84cf2cdb579bb1760b6,0.0451,0.0451,1,107,269,25,1,onethree,,,,,,,,,,,,,,,,,,,,,,,,,,,,,,,,,,,,,,,,,,,,,,,,,,,,,,,,,,,,,,,,,,,,,,,,,,,,,,,,,,,,,,,,,,,,,,,,,,,,,,,,,,,,,,,,,,,,,,,,,,,,,,,,,,,,,,,,,
,,65a9a7fcb320353c4c4c96e0,2024-02-19_11h09.28.586,kallum_motion_pilot,2023.2.2,Win32,142.8571429,65a9a7fcb320353c4c4c96e0,65d2b6c8f2eece985d8e374c,65d2b84cf2cdb579bb1760b6,0.0452,0.0453,1,108,270,73,1,onethree,,,,,,,,,,,,,,,,,,,,,,,,,,,,,,,,,,,,,,,,,,,,,,,,,,,,,,,,,,,,,,,,,,,,,,,,,,,,,,,,,,,,,,,,,,,,,,,,,,,,,,,,,,,,,,,,,,,,,,,,,,,,,,,,,,,,,,,,,
,,65a9a7fcb320353c4c4c96e0,2024-02-19_11h09.28.586,kallum_motion_pilot,2023.2.2,Win32,142.8571429,65a9a7fcb320353c4c4c96e0,65d2b6c8f2eece985d8e374c,65d2b84cf2cdb579bb1760b6,0.0453,0.0453,1,109,271,101,1,seveneight,,,,,,,,,,,,,,,,,,,,,,,,,,,,,,,,,,,,,,,,,,,,,,,,,,,,,,,,,,,,,,,,,,,,,,,,,,,,,,,,,,,,,,,,,,,,,,,,,,,,,,,,,,,,,,,,,,,,,,,,,,,,,,,,,,,,,,,,,
,,65a9a7fcb320353c4c4c96e0,2024-02-19_11h09.28.586,kallum_motion_pilot,2023.2.2,Win32,142.8571429,65a9a7fcb320353c4c4c96e0,65d2b6c8f2eece985d8e374c,65d2b84cf2cdb579bb1760b6,0.0454,0.0454,1,110,272,155,1,sixeight,,,,,,,,,,,,,,,,,,,,,,,,,,,,,,,,,,,,,,,,,,,,,,,,,,,,,,,,,,,,,,,,,,,,,,,,,,,,,,,,,,,,,,,,,,,,,,,,,,,,,,,,,,,,,,,,,,,,,,,,,,,,,,,,,,,,,,,,,
,,65a9a7fcb320353c4c4c96e0,2024-02-19_11h09.28.586,kallum_motion_pilot,2023.2.2,Win32,142.8571429,65a9a7fcb320353c4c4c96e0,65d2b6c8f2eece985d8e374c,65d2b84cf2cdb579bb1760b6,0.0456,0.0456,1,111,273,37,1,threefour,,,,,,,,,,,,,,,,,,,,,,,,,,,,,,,,,,,,,,,,,,,,,,,,,,,,,,,,,,,,,,,,,,,,,,,,,,,,,,,,,,,,,,,,,,,,,,,,,,,,,,,,,,,,,,,,,,,,,,,,,,,,,,,,,,,,,,,,,
,,65a9a7fcb320353c4c4c96e0,2024-02-19_11h09.28.586,kallum_motion_pilot,2023.2.2,Win32,142.8571429,65a9a7fcb320353c4c4c96e0,65d2b6c8f2eece985d8e374c,65d2b84cf2cdb579bb1760b6,0.0456,0.0457,1,112,274,104,1,fivesix,,,,,,,,,,,,,,,,,,,,,,,,,,,,,,,,,,,,,,,,,,,,,,,,,,,,,,,,,,,,,,,,,,,,,,,,,,,,,,,,,,,,,,,,,,,,,,,,,,,,,,,,,,,,,,,,,,,,,,,,,,,,,,,,,,,,,,,,,
,,65a9a7fcb320353c4c4c96e0,2024-02-19_11h09.28.586,kallum_motion_pilot,2023.2.2,Win32,142.8571429,65a9a7fcb320353c4c4c96e0,65d2b6c8f2eece985d8e374c,65d2b84cf2cdb579bb1760b6,0.0458,0.0459,1,113,275,109,1,seveneight,,,,,,,,,,,,,,,,,,,,,,,,,,,,,,,,,,,,,,,,,,,,,,,,,,,,,,,,,,,,,,,,,,,,,,,,,,,,,,,,,,,,,,,,,,,,,,,,,,,,,,,,,,,,,,,,,,,,,,,,,,,,,,,,,,,,,,,,,
,,65a9a7fcb320353c4c4c96e0,2024-02-19_11h09.28.586,kallum_motion_pilot,2023.2.2,Win32,142.8571429,65a9a7fcb320353c4c4c96e0,65d2b6c8f2eece985d8e374c,65d2b84cf2cdb579bb1760b6,0.0459,0.046,1,114,276,46,1,fourtwo,,,,,,,,,,,,,,,,,,,,,,,,,,,,,,,,,,,,,,,,,,,,,,,,,,,,,,,,,,,,,,,,,,,,,,,,,,,,,,,,,,,,,,,,,,,,,,,,,,,,,,,,,,,,,,,,,,,,,,,,,,,,,,,,,,,,,,,,,
,,65a9a7fcb320353c4c4c96e0,2024-02-19_11h09.28.586,kallum_motion_pilot,2023.2.2,Win32,142.8571429,65a9a7fcb320353c4c4c96e0,65d2b6c8f2eece985d8e374c,65d2b84cf2cdb579bb1760b6,0.046,0.0462,1,115,277,123,1,sixeight,,,,,,,,,,,,,,,,,,,,,,,,,,,,,,,,,,,,,,,,,,,,,,,,,,,,,,,,,,,,,,,,,,,,,,,,,,,,,,,,,,,,,,,,,,,,,,,,,,,,,,,,,,,,,,,,,,,,,,,,,,,,,,,,,,,,,,,,,
