startup.started,startup.stopped,Prolific ID*,date,expName,psychopyVersion,OS,frameRate,participant,study_id,session,stimpositions.started,stimpositions.stopped,hardcoded_stimulus_positions.thisRepN,hardcoded_stimulus_positions.thisTrialN,hardcoded_stimulus_positions.thisN,hardcoded_stimulus_positions.thisIndex,hardcoded_stimulus_positions.ran,StimulusPos,stimorientation.started,stimorientation.stopped,prac_stimorientation_import_loop.thisRepN,prac_stimorientation_import_loop.thisTrialN,prac_stimorientation_import_loop.thisN,prac_stimorientation_import_loop.thisIndex,prac_stimorientation_import_loop.ran,Stimorientation,welcome_instr.started,welcome_instr.stopped,key_resp.keys,key_resp.rt,key_resp.duration,response_steppedout_1.started,response_steppedout_1.stopped,key_resp_20.keys,key_resp_20.rt,key_resp_20.duration,response_steppedout_2.started,response_steppedout_2.stopped,key_resp_19.keys,key_resp_19.rt,key_resp_19.duration,stim_response_instr.started,stim_response_instr.stopped,key_resp_15.keys,key_resp_15.rt,key_resp_15.duration,direction_instr_2.started,direction_instr_2.stopped,key_resp_9.keys,key_resp_9.rt,key_resp_9.duration,instr_prac.started,instr_prac.stopped,key_resp_10.keys,key_resp_10.rt,key_resp_10.duration,Stim1_display_prac.started,Stim1_display_prac.stopped,Ecc,Circle1_ori,Circle2_ori,response_prac.started,similarity,response_time,response_prac.stopped,mouse_5.x,mouse_5.y,mouse_5.leftButton,mouse_5.midButton,mouse_5.rightButton,mouse_5.clicked_name,responseprac_feedback.started,responseprac_feedback.stopped,summary2_prac.started,summary2_prac.stopped,mouse_6.x,mouse_6.y,mouse_6.leftButton,mouse_6.midButton,mouse_6.rightButton,mouse_6.clicked_name,duringprac.thisRepN,duringprac.thisTrialN,duringprac.thisN,duringprac.thisIndex,duringprac.ran,begin.started,begin.stopped,key_resp_22.keys,key_resp_22.rt,key_resp_22.duration,Stim1_display.started,Stim1_display.stopped,circle1_ori,circle2_ori,circle1_SF,circle2_SF,response.started,response.stopped,mouse.x,mouse.y,mouse.leftButton,mouse.midButton,mouse.rightButton,mouse.clicked_name,trialnumber,double_pass.thisRepN,double_pass.thisTrialN,double_pass.thisN,double_pass.thisIndex,double_pass.ran,double_pass.order,main_trial.thisRepN,main_trial.thisTrialN,main_trial.thisN,main_trial.thisIndex,main_trial.ran,main_trial.order,Trial_Counter,Catch,Frequencies,response_2.started,response_2.stopped,mouse_2.x,mouse_2.y,mouse_2.leftButton,mouse_2.midButton,mouse_2.rightButton,mouse_2.clicked_name,special_trial.started,special_trial.stopped,catch_1.started,catch_1.stopped,mouse_3.x,mouse_3.y,mouse_3.leftButton,mouse_3.midButton,mouse_3.rightButton,catchresponse,catchnumber,response_time_catch,response_sum.started,response_sum.stopped,mouse_11.x,mouse_11.y,mouse_11.leftButton,mouse_11.midButton,mouse_11.rightButton,flip_presentation_sequence_for_double_pass.started,flip_presentation_sequence_for_double_pass.stopped,goodbye.started,goodbye.stopped,key_resp_3.keys,key_resp_3.rt,key_resp_3.duration
0.0004,0.0006,65ab079fde17d72bca5e774b,2024-02-21_21h25.04.495,kallum_motion_pilot,2023.2.2,Win32,30.12048193,65ab079fde17d72bca5e774b,65d6bb0e977760de756971f7,65d6be35d49342c44be90ab7,,,,,,,,,,,,,,,,,,,,,,,,,,,,,,,,,,,,,,,,,,,,,,,,,,,,,,,,,,,,,,,,,,,,,,,,,,,,,,,,,,,,,,,,,,,,,,,,,,,,,,,,,,,,,,,,,,,,,,,,,,,,,,,,,,,,,,,,,,,,,,,,,
,,65ab079fde17d72bca5e774b,2024-02-21_21h25.04.495,kallum_motion_pilot,2023.2.2,Win32,30.12048193,65ab079fde17d72bca5e774b,65d6bb0e977760de756971f7,65d6be35d49342c44be90ab7,0.034,0.0342,0,0,0,99,1,sixeight,,,,,,,,,,,,,,,,,,,,,,,,,,,,,,,,,,,,,,,,,,,,,,,,,,,,,,,,,,,,,,,,,,,,,,,,,,,,,,,,,,,,,,,,,,,,,,,,,,,,,,,,,,,,,,,,,,,,,,,,,,,,,,,,,,,,,,,,,
,,65ab079fde17d72bca5e774b,2024-02-21_21h25.04.495,kallum_motion_pilot,2023.2.2,Win32,30.12048193,65ab079fde17d72bca5e774b,65d6bb0e977760de756971f7,65d6be35d49342c44be90ab7,0.0346,0.0347,0,1,1,15,1,fourthree,,,,,,,,,,,,,,,,,,,,,,,,,,,,,,,,,,,,,,,,,,,,,,,,,,,,,,,,,,,,,,,,,,,,,,,,,,,,,,,,,,,,,,,,,,,,,,,,,,,,,,,,,,,,,,,,,,,,,,,,,,,,,,,,,,,,,,,,,
,,65ab079fde17d72bca5e774b,2024-02-21_21h25.04.495,kallum_motion_pilot,2023.2.2,Win32,30.12048193,65ab079fde17d72bca5e774b,65d6bb0e977760de756971f7,65d6be35d49342c44be90ab7,0.0348,0.0348,0,2,2,77,1,threefour,,,,,,,,,,,,,,,,,,,,,,,,,,,,,,,,,,,,,,,,,,,,,,,,,,,,,,,,,,,,,,,,,,,,,,,,,,,,,,,,,,,,,,,,,,,,,,,,,,,,,,,,,,,,,,,,,,,,,,,,,,,,,,,,,,,,,,,,,
,,65ab079fde17d72bca5e774b,2024-02-21_21h25.04.495,kallum_motion_pilot,2023.2.2,Win32,30.12048193,65ab079fde17d72bca5e774b,65d6bb0e977760de756971f7,65d6be35d49342c44be90ab7,0.035,0.035,0,3,3,21,1,threefour,,,,,,,,,,,,,,,,,,,,,,,,,,,,,,,,,,,,,,,,,,,,,,,,,,,,,,,,,,,,,,,,,,,,,,,,,,,,,,,,,,,,,,,,,,,,,,,,,,,,,,,,,,,,,,,,,,,,,,,,,,,,,,,,,,,,,,,,,
,,65ab079fde17d72bca5e774b,2024-02-21_21h25.04.495,kallum_motion_pilot,2023.2.2,Win32,30.12048193,65ab079fde17d72bca5e774b,65d6bb0e977760de756971f7,65d6be35d49342c44be90ab7,0.0352,0.0353,0,4,4,129,1,fiveseven,,,,,,,,,,,,,,,,,,,,,,,,,,,,,,,,,,,,,,,,,,,,,,,,,,,,,,,,,,,,,,,,,,,,,,,,,,,,,,,,,,,,,,,,,,,,,,,,,,,,,,,,,,,,,,,,,,,,,,,,,,,,,,,,,,,,,,,,,
,,65ab079fde17d72bca5e774b,2024-02-21_21h25.04.495,kallum_motion_pilot,2023.2.2,Win32,30.12048193,65ab079fde17d72bca5e774b,65d6bb0e977760de756971f7,65d6be35d49342c44be90ab7,0.0354,0.0355,0,5,5,154,1,sixfive,,,,,,,,,,,,,,,,,,,,,,,,,,,,,,,,,,,,,,,,,,,,,,,,,,,,,,,,,,,,,,,,,,,,,,,,,,,,,,,,,,,,,,,,,,,,,,,,,,,,,,,,,,,,,,,,,,,,,,,,,,,,,,,,,,,,,,,,,
,,65ab079fde17d72bca5e774b,2024-02-21_21h25.04.495,kallum_motion_pilot,2023.2.2,Win32,30.12048193,65ab079fde17d72bca5e774b,65d6bb0e977760de756971f7,65d6be35d49342c44be90ab7,0.0357,0.0358,0,6,6,133,1,seveneight,,,,,,,,,,,,,,,,,,,,,,,,,,,,,,,,,,,,,,,,,,,,,,,,,,,,,,,,,,,,,,,,,,,,,,,,,,,,,,,,,,,,,,,,,,,,,,,,,,,,,,,,,,,,,,,,,,,,,,,,,,,,,,,,,,,,,,,,,
,,65ab079fde17d72bca5e774b,2024-02-21_21h25.04.495,kallum_motion_pilot,2023.2.2,Win32,30.12048193,65ab079fde17d72bca5e774b,65d6bb0e977760de756971f7,65d6be35d49342c44be90ab7,0.0358,0.0359,0,7,7,91,1,sixeight,,,,,,,,,,,,,,,,,,,,,,,,,,,,,,,,,,,,,,,,,,,,,,,,,,,,,,,,,,,,,,,,,,,,,,,,,,,,,,,,,,,,,,,,,,,,,,,,,,,,,,,,,,,,,,,,,,,,,,,,,,,,,,,,,,,,,,,,,
,,65ab079fde17d72bca5e774b,2024-02-21_21h25.04.495,kallum_motion_pilot,2023.2.2,Win32,30.12048193,65ab079fde17d72bca5e774b,65d6bb0e977760de756971f7,65d6be35d49342c44be90ab7,0.0361,0.0361,0,8,8,79,1,eightseven,,,,,,,,,,,,,,,,,,,,,,,,,,,,,,,,,,,,,,,,,,,,,,,,,,,,,,,,,,,,,,,,,,,,,,,,,,,,,,,,,,,,,,,,,,,,,,,,,,,,,,,,,,,,,,,,,,,,,,,,,,,,,,,,,,,,,,,,,
,,65ab079fde17d72bca5e774b,2024-02-21_21h25.04.495,kallum_motion_pilot,2023.2.2,Win32,30.12048193,65ab079fde17d72bca5e774b,65d6bb0e977760de756971f7,65d6be35d49342c44be90ab7,0.0363,0.0363,0,9,9,67,1,twofour,,,,,,,,,,,,,,,,,,,,,,,,,,,,,,,,,,,,,,,,,,,,,,,,,,,,,,,,,,,,,,,,,,,,,,,,,,,,,,,,,,,,,,,,,,,,,,,,,,,,,,,,,,,,,,,,,,,,,,,,,,,,,,,,,,,,,,,,,
,,65ab079fde17d72bca5e774b,2024-02-21_21h25.04.495,kallum_motion_pilot,2023.2.2,Win32,30.12048193,65ab079fde17d72bca5e774b,65d6bb0e977760de756971f7,65d6be35d49342c44be90ab7,0.0365,0.0365,0,10,10,39,1,fourthree,,,,,,,,,,,,,,,,,,,,,,,,,,,,,,,,,,,,,,,,,,,,,,,,,,,,,,,,,,,,,,,,,,,,,,,,,,,,,,,,,,,,,,,,,,,,,,,,,,,,,,,,,,,,,,,,,,,,,,,,,,,,,,,,,,,,,,,,,
,,65ab079fde17d72bca5e774b,2024-02-21_21h25.04.495,kallum_motion_pilot,2023.2.2,Win32,30.12048193,65ab079fde17d72bca5e774b,65d6bb0e977760de756971f7,65d6be35d49342c44be90ab7,0.0367,0.0367,0,11,11,84,1,sevenfive,,,,,,,,,,,,,,,,,,,,,,,,,,,,,,,,,,,,,,,,,,,,,,,,,,,,,,,,,,,,,,,,,,,,,,,,,,,,,,,,,,,,,,,,,,,,,,,,,,,,,,,,,,,,,,,,,,,,,,,,,,,,,,,,,,,,,,,,,
,,65ab079fde17d72bca5e774b,2024-02-21_21h25.04.495,kallum_motion_pilot,2023.2.2,Win32,30.12048193,65ab079fde17d72bca5e774b,65d6bb0e977760de756971f7,65d6be35d49342c44be90ab7,0.0369,0.0369,0,12,12,16,1,onetwo,,,,,,,,,,,,,,,,,,,,,,,,,,,,,,,,,,,,,,,,,,,,,,,,,,,,,,,,,,,,,,,,,,,,,,,,,,,,,,,,,,,,,,,,,,,,,,,,,,,,,,,,,,,,,,,,,,,,,,,,,,,,,,,,,,,,,,,,,
,,65ab079fde17d72bca5e774b,2024-02-21_21h25.04.495,kallum_motion_pilot,2023.2.2,Win32,30.12048193,65ab079fde17d72bca5e774b,65d6bb0e977760de756971f7,65d6be35d49342c44be90ab7,0.037,0.0371,0,13,13,96,1,fivesix,,,,,,,,,,,,,,,,,,,,,,,,,,,,,,,,,,,,,,,,,,,,,,,,,,,,,,,,,,,,,,,,,,,,,,,,,,,,,,,,,,,,,,,,,,,,,,,,,,,,,,,,,,,,,,,,,,,,,,,,,,,,,,,,,,,,,,,,,
,,65ab079fde17d72bca5e774b,2024-02-21_21h25.04.495,kallum_motion_pilot,2023.2.2,Win32,30.12048193,65ab079fde17d72bca5e774b,65d6bb0e977760de756971f7,65d6be35d49342c44be90ab7,0.0373,0.0373,0,14,14,160,1,fivesix,,,,,,,,,,,,,,,,,,,,,,,,,,,,,,,,,,,,,,,,,,,,,,,,,,,,,,,,,,,,,,,,,,,,,,,,,,,,,,,,,,,,,,,,,,,,,,,,,,,,,,,,,,,,,,,,,,,,,,,,,,,,,,,,,,,,,,,,,
,,65ab079fde17d72bca5e774b,2024-02-21_21h25.04.495,kallum_motion_pilot,2023.2.2,Win32,30.12048193,65ab079fde17d72bca5e774b,65d6bb0e977760de756971f7,65d6be35d49342c44be90ab7,0.0375,0.0375,0,15,15,103,1,eightseven,,,,,,,,,,,,,,,,,,,,,,,,,,,,,,,,,,,,,,,,,,,,,,,,,,,,,,,,,,,,,,,,,,,,,,,,,,,,,,,,,,,,,,,,,,,,,,,,,,,,,,,,,,,,,,,,,,,,,,,,,,,,,,,,,,,,,,,,,
,,65ab079fde17d72bca5e774b,2024-02-21_21h25.04.495,kallum_motion_pilot,2023.2.2,Win32,30.12048193,65ab079fde17d72bca5e774b,65d6bb0e977760de756971f7,65d6be35d49342c44be90ab7,0.0377,0.0377,0,16,16,72,1,onetwo,,,,,,,,,,,,,,,,,,,,,,,,,,,,,,,,,,,,,,,,,,,,,,,,,,,,,,,,,,,,,,,,,,,,,,,,,,,,,,,,,,,,,,,,,,,,,,,,,,,,,,,,,,,,,,,,,,,,,,,,,,,,,,,,,,,,,,,,,
,,65ab079fde17d72bca5e774b,2024-02-21_21h25.04.495,kallum_motion_pilot,2023.2.2,Win32,30.12048193,65ab079fde17d72bca5e774b,65d6bb0e977760de756971f7,65d6be35d49342c44be90ab7,0.0378,0.0378,0,17,17,137,1,fiveseven,,,,,,,,,,,,,,,,,,,,,,,,,,,,,,,,,,,,,,,,,,,,,,,,,,,,,,,,,,,,,,,,,,,,,,,,,,,,,,,,,,,,,,,,,,,,,,,,,,,,,,,,,,,,,,,,,,,,,,,,,,,,,,,,,,,,,,,,,
,,65ab079fde17d72bca5e774b,2024-02-21_21h25.04.495,kallum_motion_pilot,2023.2.2,Win32,30.12048193,65ab079fde17d72bca5e774b,65d6bb0e977760de756971f7,65d6be35d49342c44be90ab7,0.038,0.038,0,18,18,141,1,seveneight,,,,,,,,,,,,,,,,,,,,,,,,,,,,,,,,,,,,,,,,,,,,,,,,,,,,,,,,,,,,,,,,,,,,,,,,,,,,,,,,,,,,,,,,,,,,,,,,,,,,,,,,,,,,,,,,,,,,,,,,,,,,,,,,,,,,,,,,,
,,65ab079fde17d72bca5e774b,2024-02-21_21h25.04.495,kallum_motion_pilot,2023.2.2,Win32,30.12048193,65ab079fde17d72bca5e774b,65d6bb0e977760de756971f7,65d6be35d49342c44be90ab7,0.0381,0.0382,0,19,19,66,1,twoone,,,,,,,,,,,,,,,,,,,,,,,,,,,,,,,,,,,,,,,,,,,,,,,,,,,,,,,,,,,,,,,,,,,,,,,,,,,,,,,,,,,,,,,,,,,,,,,,,,,,,,,,,,,,,,,,,,,,,,,,,,,,,,,,,,,,,,,,,
,,65ab079fde17d72bca5e774b,2024-02-21_21h25.04.495,kallum_motion_pilot,2023.2.2,Win32,30.12048193,65ab079fde17d72bca5e774b,65d6bb0e977760de756971f7,65d6be35d49342c44be90ab7,0.0382,0.0383,0,20,20,9,1,onethree,,,,,,,,,,,,,,,,,,,,,,,,,,,,,,,,,,,,,,,,,,,,,,,,,,,,,,,,,,,,,,,,,,,,,,,,,,,,,,,,,,,,,,,,,,,,,,,,,,,,,,,,,,,,,,,,,,,,,,,,,,,,,,,,,,,,,,,,,
,,65ab079fde17d72bca5e774b,2024-02-21_21h25.04.495,kallum_motion_pilot,2023.2.2,Win32,30.12048193,65ab079fde17d72bca5e774b,65d6bb0e977760de756971f7,65d6be35d49342c44be90ab7,0.0385,0.0385,0,21,21,127,1,eightseven,,,,,,,,,,,,,,,,,,,,,,,,,,,,,,,,,,,,,,,,,,,,,,,,,,,,,,,,,,,,,,,,,,,,,,,,,,,,,,,,,,,,,,,,,,,,,,,,,,,,,,,,,,,,,,,,,,,,,,,,,,,,,,,,,,,,,,,,,
,,65ab079fde17d72bca5e774b,2024-02-21_21h25.04.495,kallum_motion_pilot,2023.2.2,Win32,30.12048193,65ab079fde17d72bca5e774b,65d6bb0e977760de756971f7,65d6be35d49342c44be90ab7,0.0387,0.0388,0,22,22,69,1,threefour,,,,,,,,,,,,,,,,,,,,,,,,,,,,,,,,,,,,,,,,,,,,,,,,,,,,,,,,,,,,,,,,,,,,,,,,,,,,,,,,,,,,,,,,,,,,,,,,,,,,,,,,,,,,,,,,,,,,,,,,,,,,,,,,,,,,,,,,,
,,65ab079fde17d72bca5e774b,2024-02-21_21h25.04.495,kallum_motion_pilot,2023.2.2,Win32,30.12048193,65ab079fde17d72bca5e774b,65d6bb0e977760de756971f7,65d6be35d49342c44be90ab7,0.0388,0.0389,0,23,23,113,1,fiveseven,,,,,,,,,,,,,,,,,,,,,,,,,,,,,,,,,,,,,,,,,,,,,,,,,,,,,,,,,,,,,,,,,,,,,,,,,,,,,,,,,,,,,,,,,,,,,,,,,,,,,,,,,,,,,,,,,,,,,,,,,,,,,,,,,,,,,,,,,
,,65ab079fde17d72bca5e774b,2024-02-21_21h25.04.495,kallum_motion_pilot,2023.2.2,Win32,30.12048193,65ab079fde17d72bca5e774b,65d6bb0e977760de756971f7,65d6be35d49342c44be90ab7,0.0391,0.0391,0,24,24,19,1,twofour,,,,,,,,,,,,,,,,,,,,,,,,,,,,,,,,,,,,,,,,,,,,,,,,,,,,,,,,,,,,,,,,,,,,,,,,,,,,,,,,,,,,,,,,,,,,,,,,,,,,,,,,,,,,,,,,,,,,,,,,,,,,,,,,,,,,,,,,,
,,65ab079fde17d72bca5e774b,2024-02-21_21h25.04.495,kallum_motion_pilot,2023.2.2,Win32,30.12048193,65ab079fde17d72bca5e774b,65d6bb0e977760de756971f7,65d6be35d49342c44be90ab7,0.0393,0.0393,0,25,25,157,1,seveneight,,,,,,,,,,,,,,,,,,,,,,,,,,,,,,,,,,,,,,,,,,,,,,,,,,,,,,,,,,,,,,,,,,,,,,,,,,,,,,,,,,,,,,,,,,,,,,,,,,,,,,,,,,,,,,,,,,,,,,,,,,,,,,,,,,,,,,,,,
,,65ab079fde17d72bca5e774b,2024-02-21_21h25.04.495,kallum_motion_pilot,2023.2.2,Win32,30.12048193,65ab079fde17d72bca5e774b,65d6bb0e977760de756971f7,65d6be35d49342c44be90ab7,0.0396,0.0396,0,26,26,36,1,threeone,,,,,,,,,,,,,,,,,,,,,,,,,,,,,,,,,,,,,,,,,,,,,,,,,,,,,,,,,,,,,,,,,,,,,,,,,,,,,,,,,,,,,,,,,,,,,,,,,,,,,,,,,,,,,,,,,,,,,,,,,,,,,,,,,,,,,,,,,
,,65ab079fde17d72bca5e774b,2024-02-21_21h25.04.495,kallum_motion_pilot,2023.2.2,Win32,30.12048193,65ab079fde17d72bca5e774b,65d6bb0e977760de756971f7,65d6be35d49342c44be90ab7,0.0397,0.0397,0,27,27,35,1,twofour,,,,,,,,,,,,,,,,,,,,,,,,,,,,,,,,,,,,,,,,,,,,,,,,,,,,,,,,,,,,,,,,,,,,,,,,,,,,,,,,,,,,,,,,,,,,,,,,,,,,,,,,,,,,,,,,,,,,,,,,,,,,,,,,,,,,,,,,,
,,65ab079fde17d72bca5e774b,2024-02-21_21h25.04.495,kallum_motion_pilot,2023.2.2,Win32,30.12048193,65ab079fde17d72bca5e774b,65d6bb0e977760de756971f7,65d6be35d49342c44be90ab7,0.0399,0.0399,0,28,28,119,1,eightseven,,,,,,,,,,,,,,,,,,,,,,,,,,,,,,,,,,,,,,,,,,,,,,,,,,,,,,,,,,,,,,,,,,,,,,,,,,,,,,,,,,,,,,,,,,,,,,,,,,,,,,,,,,,,,,,,,,,,,,,,,,,,,,,,,,,,,,,,,
,,65ab079fde17d72bca5e774b,2024-02-21_21h25.04.495,kallum_motion_pilot,2023.2.2,Win32,30.12048193,65ab079fde17d72bca5e774b,65d6bb0e977760de756971f7,65d6be35d49342c44be90ab7,0.04,0.0401,0,29,29,120,1,fivesix,,,,,,,,,,,,,,,,,,,,,,,,,,,,,,,,,,,,,,,,,,,,,,,,,,,,,,,,,,,,,,,,,,,,,,,,,,,,,,,,,,,,,,,,,,,,,,,,,,,,,,,,,,,,,,,,,,,,,,,,,,,,,,,,,,,,,,,,,
,,65ab079fde17d72bca5e774b,2024-02-21_21h25.04.495,kallum_motion_pilot,2023.2.2,Win32,30.12048193,65ab079fde17d72bca5e774b,65d6bb0e977760de756971f7,65d6be35d49342c44be90ab7,0.0402,0.0403,0,30,30,149,1,seveneight,,,,,,,,,,,,,,,,,,,,,,,,,,,,,,,,,,,,,,,,,,,,,,,,,,,,,,,,,,,,,,,,,,,,,,,,,,,,,,,,,,,,,,,,,,,,,,,,,,,,,,,,,,,,,,,,,,,,,,,,,,,,,,,,,,,,,,,,,
,,65ab079fde17d72bca5e774b,2024-02-21_21h25.04.495,kallum_motion_pilot,2023.2.2,Win32,30.12048193,65ab079fde17d72bca5e774b,65d6bb0e977760de756971f7,65d6be35d49342c44be90ab7,0.0404,0.0405,0,31,31,89,1,fiveseven,,,,,,,,,,,,,,,,,,,,,,,,,,,,,,,,,,,,,,,,,,,,,,,,,,,,,,,,,,,,,,,,,,,,,,,,,,,,,,,,,,,,,,,,,,,,,,,,,,,,,,,,,,,,,,,,,,,,,,,,,,,,,,,,,,,,,,,,,
,,65ab079fde17d72bca5e774b,2024-02-21_21h25.04.495,kallum_motion_pilot,2023.2.2,Win32,30.12048193,65ab079fde17d72bca5e774b,65d6bb0e977760de756971f7,65d6be35d49342c44be90ab7,0.0406,0.0406,0,32,32,82,1,sixfive,,,,,,,,,,,,,,,,,,,,,,,,,,,,,,,,,,,,,,,,,,,,,,,,,,,,,,,,,,,,,,,,,,,,,,,,,,,,,,,,,,,,,,,,,,,,,,,,,,,,,,,,,,,,,,,,,,,,,,,,,,,,,,,,,,,,,,,,,
,,65ab079fde17d72bca5e774b,2024-02-21_21h25.04.495,kallum_motion_pilot,2023.2.2,Win32,30.12048193,65ab079fde17d72bca5e774b,65d6bb0e977760de756971f7,65d6be35d49342c44be90ab7,0.0408,0.0408,0,33,33,48,1,onetwo,,,,,,,,,,,,,,,,,,,,,,,,,,,,,,,,,,,,,,,,,,,,,,,,,,,,,,,,,,,,,,,,,,,,,,,,,,,,,,,,,,,,,,,,,,,,,,,,,,,,,,,,,,,,,,,,,,,,,,,,,,,,,,,,,,,,,,,,,
,,65ab079fde17d72bca5e774b,2024-02-21_21h25.04.495,kallum_motion_pilot,2023.2.2,Win32,30.12048193,65ab079fde17d72bca5e774b,65d6bb0e977760de756971f7,65d6be35d49342c44be90ab7,0.0421,0.0423,0,34,34,148,1,sevenfive,,,,,,,,,,,,,,,,,,,,,,,,,,,,,,,,,,,,,,,,,,,,,,,,,,,,,,,,,,,,,,,,,,,,,,,,,,,,,,,,,,,,,,,,,,,,,,,,,,,,,,,,,,,,,,,,,,,,,,,,,,,,,,,,,,,,,,,,,
,,65ab079fde17d72bca5e774b,2024-02-21_21h25.04.495,kallum_motion_pilot,2023.2.2,Win32,30.12048193,65ab079fde17d72bca5e774b,65d6bb0e977760de756971f7,65d6be35d49342c44be90ab7,0.0425,0.0425,0,35,35,55,1,fourthree,,,,,,,,,,,,,,,,,,,,,,,,,,,,,,,,,,,,,,,,,,,,,,,,,,,,,,,,,,,,,,,,,,,,,,,,,,,,,,,,,,,,,,,,,,,,,,,,,,,,,,,,,,,,,,,,,,,,,,,,,,,,,,,,,,,,,,,,,
,,65ab079fde17d72bca5e774b,2024-02-21_21h25.04.495,kallum_motion_pilot,2023.2.2,Win32,30.12048193,65ab079fde17d72bca5e774b,65d6bb0e977760de756971f7,65d6be35d49342c44be90ab7,0.0427,0.0427,0,36,36,62,1,fourtwo,,,,,,,,,,,,,,,,,,,,,,,,,,,,,,,,,,,,,,,,,,,,,,,,,,,,,,,,,,,,,,,,,,,,,,,,,,,,,,,,,,,,,,,,,,,,,,,,,,,,,,,,,,,,,,,,,,,,,,,,,,,,,,,,,,,,,,,,,
,,65ab079fde17d72bca5e774b,2024-02-21_21h25.04.495,kallum_motion_pilot,2023.2.2,Win32,30.12048193,65ab079fde17d72bca5e774b,65d6bb0e977760de756971f7,65d6be35d49342c44be90ab7,0.0429,0.043,0,37,37,45,1,threefour,,,,,,,,,,,,,,,,,,,,,,,,,,,,,,,,,,,,,,,,,,,,,,,,,,,,,,,,,,,,,,,,,,,,,,,,,,,,,,,,,,,,,,,,,,,,,,,,,,,,,,,,,,,,,,,,,,,,,,,,,,,,,,,,,,,,,,,,,
,,65ab079fde17d72bca5e774b,2024-02-21_21h25.04.495,kallum_motion_pilot,2023.2.2,Win32,30.12048193,65ab079fde17d72bca5e774b,65d6bb0e977760de756971f7,65d6be35d49342c44be90ab7,0.043,0.0432,0,38,38,98,1,sixfive,,,,,,,,,,,,,,,,,,,,,,,,,,,,,,,,,,,,,,,,,,,,,,,,,,,,,,,,,,,,,,,,,,,,,,,,,,,,,,,,,,,,,,,,,,,,,,,,,,,,,,,,,,,,,,,,,,,,,,,,,,,,,,,,,,,,,,,,,
,,65ab079fde17d72bca5e774b,2024-02-21_21h25.04.495,kallum_motion_pilot,2023.2.2,Win32,30.12048193,65ab079fde17d72bca5e774b,65d6bb0e977760de756971f7,65d6be35d49342c44be90ab7,0.0433,0.0433,0,39,39,11,1,twofour,,,,,,,,,,,,,,,,,,,,,,,,,,,,,,,,,,,,,,,,,,,,,,,,,,,,,,,,,,,,,,,,,,,,,,,,,,,,,,,,,,,,,,,,,,,,,,,,,,,,,,,,,,,,,,,,,,,,,,,,,,,,,,,,,,,,,,,,,
,,65ab079fde17d72bca5e774b,2024-02-21_21h25.04.495,kallum_motion_pilot,2023.2.2,Win32,30.12048193,65ab079fde17d72bca5e774b,65d6bb0e977760de756971f7,65d6be35d49342c44be90ab7,0.0436,0.0436,0,40,40,52,1,threeone,,,,,,,,,,,,,,,,,,,,,,,,,,,,,,,,,,,,,,,,,,,,,,,,,,,,,,,,,,,,,,,,,,,,,,,,,,,,,,,,,,,,,,,,,,,,,,,,,,,,,,,,,,,,,,,,,,,,,,,,,,,,,,,,,,,,,,,,,
,,65ab079fde17d72bca5e774b,2024-02-21_21h25.04.495,kallum_motion_pilot,2023.2.2,Win32,30.12048193,65ab079fde17d72bca5e774b,65d6bb0e977760de756971f7,65d6be35d49342c44be90ab7,0.0437,0.0437,0,41,41,138,1,sixfive,,,,,,,,,,,,,,,,,,,,,,,,,,,,,,,,,,,,,,,,,,,,,,,,,,,,,,,,,,,,,,,,,,,,,,,,,,,,,,,,,,,,,,,,,,,,,,,,,,,,,,,,,,,,,,,,,,,,,,,,,,,,,,,,,,,,,,,,,
,,65ab079fde17d72bca5e774b,2024-02-21_21h25.04.495,kallum_motion_pilot,2023.2.2,Win32,30.12048193,65ab079fde17d72bca5e774b,65d6bb0e977760de756971f7,65d6be35d49342c44be90ab7,0.044,0.044,0,42,42,51,1,twofour,,,,,,,,,,,,,,,,,,,,,,,,,,,,,,,,,,,,,,,,,,,,,,,,,,,,,,,,,,,,,,,,,,,,,,,,,,,,,,,,,,,,,,,,,,,,,,,,,,,,,,,,,,,,,,,,,,,,,,,,,,,,,,,,,,,,,,,,,
,,65ab079fde17d72bca5e774b,2024-02-21_21h25.04.495,kallum_motion_pilot,2023.2.2,Win32,30.12048193,65ab079fde17d72bca5e774b,65d6bb0e977760de756971f7,65d6be35d49342c44be90ab7,0.0443,0.0444,0,43,43,116,1,sevenfive,,,,,,,,,,,,,,,,,,,,,,,,,,,,,,,,,,,,,,,,,,,,,,,,,,,,,,,,,,,,,,,,,,,,,,,,,,,,,,,,,,,,,,,,,,,,,,,,,,,,,,,,,,,,,,,,,,,,,,,,,,,,,,,,,,,,,,,,,
,,65ab079fde17d72bca5e774b,2024-02-21_21h25.04.495,kallum_motion_pilot,2023.2.2,Win32,30.12048193,65ab079fde17d72bca5e774b,65d6bb0e977760de756971f7,65d6be35d49342c44be90ab7,0.0446,0.0447,0,44,44,147,1,sixeight,,,,,,,,,,,,,,,,,,,,,,,,,,,,,,,,,,,,,,,,,,,,,,,,,,,,,,,,,,,,,,,,,,,,,,,,,,,,,,,,,,,,,,,,,,,,,,,,,,,,,,,,,,,,,,,,,,,,,,,,,,,,,,,,,,,,,,,,,
,,65ab079fde17d72bca5e774b,2024-02-21_21h25.04.495,kallum_motion_pilot,2023.2.2,Win32,30.12048193,65ab079fde17d72bca5e774b,65d6bb0e977760de756971f7,65d6be35d49342c44be90ab7,0.0448,0.0448,0,45,45,34,1,twoone,,,,,,,,,,,,,,,,,,,,,,,,,,,,,,,,,,,,,,,,,,,,,,,,,,,,,,,,,,,,,,,,,,,,,,,,,,,,,,,,,,,,,,,,,,,,,,,,,,,,,,,,,,,,,,,,,,,,,,,,,,,,,,,,,,,,,,,,,
,,65ab079fde17d72bca5e774b,2024-02-21_21h25.04.495,kallum_motion_pilot,2023.2.2,Win32,30.12048193,65ab079fde17d72bca5e774b,65d6bb0e977760de756971f7,65d6be35d49342c44be90ab7,0.0449,0.0451,0,46,46,92,1,sevenfive,,,,,,,,,,,,,,,,,,,,,,,,,,,,,,,,,,,,,,,,,,,,,,,,,,,,,,,,,,,,,,,,,,,,,,,,,,,,,,,,,,,,,,,,,,,,,,,,,,,,,,,,,,,,,,,,,,,,,,,,,,,,,,,,,,,,,,,,,
,,65ab079fde17d72bca5e774b,2024-02-21_21h25.04.495,kallum_motion_pilot,2023.2.2,Win32,30.12048193,65ab079fde17d72bca5e774b,65d6bb0e977760de756971f7,65d6be35d49342c44be90ab7,0.0452,0.0452,0,47,47,56,1,onetwo,,,,,,,,,,,,,,,,,,,,,,,,,,,,,,,,,,,,,,,,,,,,,,,,,,,,,,,,,,,,,,,,,,,,,,,,,,,,,,,,,,,,,,,,,,,,,,,,,,,,,,,,,,,,,,,,,,,,,,,,,,,,,,,,,,,,,,,,,
,,65ab079fde17d72bca5e774b,2024-02-21_21h25.04.495,kallum_motion_pilot,2023.2.2,Win32,30.12048193,65ab079fde17d72bca5e774b,65d6bb0e977760de756971f7,65d6be35d49342c44be90ab7,0.0453,0.0454,0,48,48,50,1,twoone,,,,,,,,,,,,,,,,,,,,,,,,,,,,,,,,,,,,,,,,,,,,,,,,,,,,,,,,,,,,,,,,,,,,,,,,,,,,,,,,,,,,,,,,,,,,,,,,,,,,,,,,,,,,,,,,,,,,,,,,,,,,,,,,,,,,,,,,,
,,65ab079fde17d72bca5e774b,2024-02-21_21h25.04.495,kallum_motion_pilot,2023.2.2,Win32,30.12048193,65ab079fde17d72bca5e774b,65d6bb0e977760de756971f7,65d6be35d49342c44be90ab7,0.0456,0.0457,0,49,49,156,1,sevenfive,,,,,,,,,,,,,,,,,,,,,,,,,,,,,,,,,,,,,,,,,,,,,,,,,,,,,,,,,,,,,,,,,,,,,,,,,,,,,,,,,,,,,,,,,,,,,,,,,,,,,,,,,,,,,,,,,,,,,,,,,,,,,,,,,,,,,,,,,
,,65ab079fde17d72bca5e774b,2024-02-21_21h25.04.495,kallum_motion_pilot,2023.2.2,Win32,30.12048193,65ab079fde17d72bca5e774b,65d6bb0e977760de756971f7,65d6be35d49342c44be90ab7,0.0458,0.0458,0,50,50,121,1,fiveseven,,,,,,,,,,,,,,,,,,,,,,,,,,,,,,,,,,,,,,,,,,,,,,,,,,,,,,,,,,,,,,,,,,,,,,,,,,,,,,,,,,,,,,,,,,,,,,,,,,,,,,,,,,,,,,,,,,,,,,,,,,,,,,,,,,,,,,,,,
,,65ab079fde17d72bca5e774b,2024-02-21_21h25.04.495,kallum_motion_pilot,2023.2.2,Win32,30.12048193,65ab079fde17d72bca5e774b,65d6bb0e977760de756971f7,65d6be35d49342c44be90ab7,0.0461,0.0462,0,51,51,8,1,onetwo,,,,,,,,,,,,,,,,,,,,,,,,,,,,,,,,,,,,,,,,,,,,,,,,,,,,,,,,,,,,,,,,,,,,,,,,,,,,,,,,,,,,,,,,,,,,,,,,,,,,,,,,,,,,,,,,,,,,,,,,,,,,,,,,,,,,,,,,,
,,65ab079fde17d72bca5e774b,2024-02-21_21h25.04.495,kallum_motion_pilot,2023.2.2,Win32,30.12048193,65ab079fde17d72bca5e774b,65d6bb0e977760de756971f7,65d6be35d49342c44be90ab7,0.0463,0.0464,0,52,52,5,1,threefour,,,,,,,,,,,,,,,,,,,,,,,,,,,,,,,,,,,,,,,,,,,,,,,,,,,,,,,,,,,,,,,,,,,,,,,,,,,,,,,,,,,,,,,,,,,,,,,,,,,,,,,,,,,,,,,,,,,,,,,,,,,,,,,,,,,,,,,,,
,,65ab079fde17d72bca5e774b,2024-02-21_21h25.04.495,kallum_motion_pilot,2023.2.2,Win32,30.12048193,65ab079fde17d72bca5e774b,65d6bb0e977760de756971f7,65d6be35d49342c44be90ab7,0.0466,0.0467,0,53,53,57,1,onethree,,,,,,,,,,,,,,,,,,,,,,,,,,,,,,,,,,,,,,,,,,,,,,,,,,,,,,,,,,,,,,,,,,,,,,,,,,,,,,,,,,,,,,,,,,,,,,,,,,,,,,,,,,,,,,,,,,,,,,,,,,,,,,,,,,,,,,,,,
,,65ab079fde17d72bca5e774b,2024-02-21_21h25.04.495,kallum_motion_pilot,2023.2.2,Win32,30.12048193,65ab079fde17d72bca5e774b,65d6bb0e977760de756971f7,65d6be35d49342c44be90ab7,0.0468,0.0469,0,54,54,22,1,fourtwo,,,,,,,,,,,,,,,,,,,,,,,,,,,,,,,,,,,,,,,,,,,,,,,,,,,,,,,,,,,,,,,,,,,,,,,,,,,,,,,,,,,,,,,,,,,,,,,,,,,,,,,,,,,,,,,,,,,,,,,,,,,,,,,,,,,,,,,,,
,,65ab079fde17d72bca5e774b,2024-02-21_21h25.04.495,kallum_motion_pilot,2023.2.2,Win32,30.12048193,65ab079fde17d72bca5e774b,65d6bb0e977760de756971f7,65d6be35d49342c44be90ab7,0.047,0.0471,0,55,55,33,1,onethree,,,,,,,,,,,,,,,,,,,,,,,,,,,,,,,,,,,,,,,,,,,,,,,,,,,,,,,,,,,,,,,,,,,,,,,,,,,,,,,,,,,,,,,,,,,,,,,,,,,,,,,,,,,,,,,,,,,,,,,,,,,,,,,,,,,,,,,,,
,,65ab079fde17d72bca5e774b,2024-02-21_21h25.04.495,kallum_motion_pilot,2023.2.2,Win32,30.12048193,65ab079fde17d72bca5e774b,65d6bb0e977760de756971f7,65d6be35d49342c44be90ab7,0.0473,0.0473,0,56,56,144,1,fivesix,,,,,,,,,,,,,,,,,,,,,,,,,,,,,,,,,,,,,,,,,,,,,,,,,,,,,,,,,,,,,,,,,,,,,,,,,,,,,,,,,,,,,,,,,,,,,,,,,,,,,,,,,,,,,,,,,,,,,,,,,,,,,,,,,,,,,,,,,
,,65ab079fde17d72bca5e774b,2024-02-21_21h25.04.495,kallum_motion_pilot,2023.2.2,Win32,30.12048193,65ab079fde17d72bca5e774b,65d6bb0e977760de756971f7,65d6be35d49342c44be90ab7,0.0474,0.0475,0,57,57,24,1,onetwo,,,,,,,,,,,,,,,,,,,,,,,,,,,,,,,,,,,,,,,,,,,,,,,,,,,,,,,,,,,,,,,,,,,,,,,,,,,,,,,,,,,,,,,,,,,,,,,,,,,,,,,,,,,,,,,,,,,,,,,,,,,,,,,,,,,,,,,,,
,,65ab079fde17d72bca5e774b,2024-02-21_21h25.04.495,kallum_motion_pilot,2023.2.2,Win32,30.12048193,65ab079fde17d72bca5e774b,65d6bb0e977760de756971f7,65d6be35d49342c44be90ab7,0.0476,0.0476,0,58,58,108,1,sevenfive,,,,,,,,,,,,,,,,,,,,,,,,,,,,,,,,,,,,,,,,,,,,,,,,,,,,,,,,,,,,,,,,,,,,,,,,,,,,,,,,,,,,,,,,,,,,,,,,,,,,,,,,,,,,,,,,,,,,,,,,,,,,,,,,,,,,,,,,,
,,65ab079fde17d72bca5e774b,2024-02-21_21h25.04.495,kallum_motion_pilot,2023.2.2,Win32,30.12048193,65ab079fde17d72bca5e774b,65d6bb0e977760de756971f7,65d6be35d49342c44be90ab7,0.0479,0.0479,0,59,59,1,1,onethree,,,,,,,,,,,,,,,,,,,,,,,,,,,,,,,,,,,,,,,,,,,,,,,,,,,,,,,,,,,,,,,,,,,,,,,,,,,,,,,,,,,,,,,,,,,,,,,,,,,,,,,,,,,,,,,,,,,,,,,,,,,,,,,,,,,,,,,,,
,,65ab079fde17d72bca5e774b,2024-02-21_21h25.04.495,kallum_motion_pilot,2023.2.2,Win32,30.12048193,65ab079fde17d72bca5e774b,65d6bb0e977760de756971f7,65d6be35d49342c44be90ab7,0.0481,0.0481,0,60,60,110,1,eightsix,,,,,,,,,,,,,,,,,,,,,,,,,,,,,,,,,,,,,,,,,,,,,,,,,,,,,,,,,,,,,,,,,,,,,,,,,,,,,,,,,,,,,,,,,,,,,,,,,,,,,,,,,,,,,,,,,,,,,,,,,,,,,,,,,,,,,,,,,
,,65ab079fde17d72bca5e774b,2024-02-21_21h25.04.495,kallum_motion_pilot,2023.2.2,Win32,30.12048193,65ab079fde17d72bca5e774b,65d6bb0e977760de756971f7,65d6be35d49342c44be90ab7,0.0483,0.0483,0,61,61,152,1,fivesix,,,,,,,,,,,,,,,,,,,,,,,,,,,,,,,,,,,,,,,,,,,,,,,,,,,,,,,,,,,,,,,,,,,,,,,,,,,,,,,,,,,,,,,,,,,,,,,,,,,,,,,,,,,,,,,,,,,,,,,,,,,,,,,,,,,,,,,,,
,,65ab079fde17d72bca5e774b,2024-02-21_21h25.04.495,kallum_motion_pilot,2023.2.2,Win32,30.12048193,65ab079fde17d72bca5e774b,65d6bb0e977760de756971f7,65d6be35d49342c44be90ab7,0.0485,0.0485,0,62,62,73,1,onethree,,,,,,,,,,,,,,,,,,,,,,,,,,,,,,,,,,,,,,,,,,,,,,,,,,,,,,,,,,,,,,,,,,,,,,,,,,,,,,,,,,,,,,,,,,,,,,,,,,,,,,,,,,,,,,,,,,,,,,,,,,,,,,,,,,,,,,,,,
,,65ab079fde17d72bca5e774b,2024-02-21_21h25.04.495,kallum_motion_pilot,2023.2.2,Win32,30.12048193,65ab079fde17d72bca5e774b,65d6bb0e977760de756971f7,65d6be35d49342c44be90ab7,0.0487,0.0489,0,63,63,135,1,eightseven,,,,,,,,,,,,,,,,,,,,,,,,,,,,,,,,,,,,,,,,,,,,,,,,,,,,,,,,,,,,,,,,,,,,,,,,,,,,,,,,,,,,,,,,,,,,,,,,,,,,,,,,,,,,,,,,,,,,,,,,,,,,,,,,,,,,,,,,,
,,65ab079fde17d72bca5e774b,2024-02-21_21h25.04.495,kallum_motion_pilot,2023.2.2,Win32,30.12048193,65ab079fde17d72bca5e774b,65d6bb0e977760de756971f7,65d6be35d49342c44be90ab7,0.049,0.0491,0,64,64,65,1,onethree,,,,,,,,,,,,,,,,,,,,,,,,,,,,,,,,,,,,,,,,,,,,,,,,,,,,,,,,,,,,,,,,,,,,,,,,,,,,,,,,,,,,,,,,,,,,,,,,,,,,,,,,,,,,,,,,,,,,,,,,,,,,,,,,,,,,,,,,,
,,65ab079fde17d72bca5e774b,2024-02-21_21h25.04.495,kallum_motion_pilot,2023.2.2,Win32,30.12048193,65ab079fde17d72bca5e774b,65d6bb0e977760de756971f7,65d6be35d49342c44be90ab7,0.0492,0.0493,0,65,65,7,1,fourthree,,,,,,,,,,,,,,,,,,,,,,,,,,,,,,,,,,,,,,,,,,,,,,,,,,,,,,,,,,,,,,,,,,,,,,,,,,,,,,,,,,,,,,,,,,,,,,,,,,,,,,,,,,,,,,,,,,,,,,,,,,,,,,,,,,,,,,,,,
,,65ab079fde17d72bca5e774b,2024-02-21_21h25.04.495,kallum_motion_pilot,2023.2.2,Win32,30.12048193,65ab079fde17d72bca5e774b,65d6bb0e977760de756971f7,65d6be35d49342c44be90ab7,0.0493,0.0494,0,66,66,155,1,sixeight,,,,,,,,,,,,,,,,,,,,,,,,,,,,,,,,,,,,,,,,,,,,,,,,,,,,,,,,,,,,,,,,,,,,,,,,,,,,,,,,,,,,,,,,,,,,,,,,,,,,,,,,,,,,,,,,,,,,,,,,,,,,,,,,,,,,,,,,,
,,65ab079fde17d72bca5e774b,2024-02-21_21h25.04.495,kallum_motion_pilot,2023.2.2,Win32,30.12048193,65ab079fde17d72bca5e774b,65d6bb0e977760de756971f7,65d6be35d49342c44be90ab7,0.0497,0.0498,0,67,67,122,1,sixfive,,,,,,,,,,,,,,,,,,,,,,,,,,,,,,,,,,,,,,,,,,,,,,,,,,,,,,,,,,,,,,,,,,,,,,,,,,,,,,,,,,,,,,,,,,,,,,,,,,,,,,,,,,,,,,,,,,,,,,,,,,,,,,,,,,,,,,,,,
,,65ab079fde17d72bca5e774b,2024-02-21_21h25.04.495,kallum_motion_pilot,2023.2.2,Win32,30.12048193,65ab079fde17d72bca5e774b,65d6bb0e977760de756971f7,65d6be35d49342c44be90ab7,0.05,0.0501,0,68,68,49,1,onethree,,,,,,,,,,,,,,,,,,,,,,,,,,,,,,,,,,,,,,,,,,,,,,,,,,,,,,,,,,,,,,,,,,,,,,,,,,,,,,,,,,,,,,,,,,,,,,,,,,,,,,,,,,,,,,,,,,,,,,,,,,,,,,,,,,,,,,,,,
,,65ab079fde17d72bca5e774b,2024-02-21_21h25.04.495,kallum_motion_pilot,2023.2.2,Win32,30.12048193,65ab079fde17d72bca5e774b,65d6bb0e977760de756971f7,65d6be35d49342c44be90ab7,0.0503,0.0506,0,69,69,75,1,twofour,,,,,,,,,,,,,,,,,,,,,,,,,,,,,,,,,,,,,,,,,,,,,,,,,,,,,,,,,,,,,,,,,,,,,,,,,,,,,,,,,,,,,,,,,,,,,,,,,,,,,,,,,,,,,,,,,,,,,,,,,,,,,,,,,,,,,,,,,
,,65ab079fde17d72bca5e774b,2024-02-21_21h25.04.495,kallum_motion_pilot,2023.2.2,Win32,30.12048193,65ab079fde17d72bca5e774b,65d6bb0e977760de756971f7,65d6be35d49342c44be90ab7,0.0507,0.0509,0,70,70,139,1,sixeight,,,,,,,,,,,,,,,,,,,,,,,,,,,,,,,,,,,,,,,,,,,,,,,,,,,,,,,,,,,,,,,,,,,,,,,,,,,,,,,,,,,,,,,,,,,,,,,,,,,,,,,,,,,,,,,,,,,,,,,,,,,,,,,,,,,,,,,,,
,,65ab079fde17d72bca5e774b,2024-02-21_21h25.04.495,kallum_motion_pilot,2023.2.2,Win32,30.12048193,65ab079fde17d72bca5e774b,65d6bb0e977760de756971f7,65d6be35d49342c44be90ab7,0.0511,0.0513,0,71,71,14,1,fourtwo,,,,,,,,,,,,,,,,,,,,,,,,,,,,,,,,,,,,,,,,,,,,,,,,,,,,,,,,,,,,,,,,,,,,,,,,,,,,,,,,,,,,,,,,,,,,,,,,,,,,,,,,,,,,,,,,,,,,,,,,,,,,,,,,,,,,,,,,,
,,65ab079fde17d72bca5e774b,2024-02-21_21h25.04.495,kallum_motion_pilot,2023.2.2,Win32,30.12048193,65ab079fde17d72bca5e774b,65d6bb0e977760de756971f7,65d6be35d49342c44be90ab7,0.0515,0.0517,0,72,72,132,1,sevenfive,,,,,,,,,,,,,,,,,,,,,,,,,,,,,,,,,,,,,,,,,,,,,,,,,,,,,,,,,,,,,,,,,,,,,,,,,,,,,,,,,,,,,,,,,,,,,,,,,,,,,,,,,,,,,,,,,,,,,,,,,,,,,,,,,,,,,,,,,
,,65ab079fde17d72bca5e774b,2024-02-21_21h25.04.495,kallum_motion_pilot,2023.2.2,Win32,30.12048193,65ab079fde17d72bca5e774b,65d6bb0e977760de756971f7,65d6be35d49342c44be90ab7,0.0522,0.0524,0,73,73,71,1,fourthree,,,,,,,,,,,,,,,,,,,,,,,,,,,,,,,,,,,,,,,,,,,,,,,,,,,,,,,,,,,,,,,,,,,,,,,,,,,,,,,,,,,,,,,,,,,,,,,,,,,,,,,,,,,,,,,,,,,,,,,,,,,,,,,,,,,,,,,,,
,,65ab079fde17d72bca5e774b,2024-02-21_21h25.04.495,kallum_motion_pilot,2023.2.2,Win32,30.12048193,65ab079fde17d72bca5e774b,65d6bb0e977760de756971f7,65d6be35d49342c44be90ab7,0.0525,0.0527,0,74,74,42,1,twoone,,,,,,,,,,,,,,,,,,,,,,,,,,,,,,,,,,,,,,,,,,,,,,,,,,,,,,,,,,,,,,,,,,,,,,,,,,,,,,,,,,,,,,,,,,,,,,,,,,,,,,,,,,,,,,,,,,,,,,,,,,,,,,,,,,,,,,,,,
,,65ab079fde17d72bca5e774b,2024-02-21_21h25.04.495,kallum_motion_pilot,2023.2.2,Win32,30.12048193,65ab079fde17d72bca5e774b,65d6bb0e977760de756971f7,65d6be35d49342c44be90ab7,0.0529,0.0529,0,75,75,54,1,fourtwo,,,,,,,,,,,,,,,,,,,,,,,,,,,,,,,,,,,,,,,,,,,,,,,,,,,,,,,,,,,,,,,,,,,,,,,,,,,,,,,,,,,,,,,,,,,,,,,,,,,,,,,,,,,,,,,,,,,,,,,,,,,,,,,,,,,,,,,,,
,,65ab079fde17d72bca5e774b,2024-02-21_21h25.04.495,kallum_motion_pilot,2023.2.2,Win32,30.12048193,65ab079fde17d72bca5e774b,65d6bb0e977760de756971f7,65d6be35d49342c44be90ab7,0.0531,0.0532,0,76,76,3,1,twofour,,,,,,,,,,,,,,,,,,,,,,,,,,,,,,,,,,,,,,,,,,,,,,,,,,,,,,,,,,,,,,,,,,,,,,,,,,,,,,,,,,,,,,,,,,,,,,,,,,,,,,,,,,,,,,,,,,,,,,,,,,,,,,,,,,,,,,,,,
,,65ab079fde17d72bca5e774b,2024-02-21_21h25.04.495,kallum_motion_pilot,2023.2.2,Win32,30.12048193,65ab079fde17d72bca5e774b,65d6bb0e977760de756971f7,65d6be35d49342c44be90ab7,0.0536,0.0536,0,77,77,106,1,sixfive,,,,,,,,,,,,,,,,,,,,,,,,,,,,,,,,,,,,,,,,,,,,,,,,,,,,,,,,,,,,,,,,,,,,,,,,,,,,,,,,,,,,,,,,,,,,,,,,,,,,,,,,,,,,,,,,,,,,,,,,,,,,,,,,,,,,,,,,,
,,65ab079fde17d72bca5e774b,2024-02-21_21h25.04.495,kallum_motion_pilot,2023.2.2,Win32,30.12048193,65ab079fde17d72bca5e774b,65d6bb0e977760de756971f7,65d6be35d49342c44be90ab7,0.0538,0.0539,0,78,78,97,1,fiveseven,,,,,,,,,,,,,,,,,,,,,,,,,,,,,,,,,,,,,,,,,,,,,,,,,,,,,,,,,,,,,,,,,,,,,,,,,,,,,,,,,,,,,,,,,,,,,,,,,,,,,,,,,,,,,,,,,,,,,,,,,,,,,,,,,,,,,,,,,
,,65ab079fde17d72bca5e774b,2024-02-21_21h25.04.495,kallum_motion_pilot,2023.2.2,Win32,30.12048193,65ab079fde17d72bca5e774b,65d6bb0e977760de756971f7,65d6be35d49342c44be90ab7,0.0541,0.0542,0,79,79,74,1,twoone,,,,,,,,,,,,,,,,,,,,,,,,,,,,,,,,,,,,,,,,,,,,,,,,,,,,,,,,,,,,,,,,,,,,,,,,,,,,,,,,,,,,,,,,,,,,,,,,,,,,,,,,,,,,,,,,,,,,,,,,,,,,,,,,,,,,,,,,,
,,65ab079fde17d72bca5e774b,2024-02-21_21h25.04.495,kallum_motion_pilot,2023.2.2,Win32,30.12048193,65ab079fde17d72bca5e774b,65d6bb0e977760de756971f7,65d6be35d49342c44be90ab7,0.0544,0.0545,0,80,80,29,1,threefour,,,,,,,,,,,,,,,,,,,,,,,,,,,,,,,,,,,,,,,,,,,,,,,,,,,,,,,,,,,,,,,,,,,,,,,,,,,,,,,,,,,,,,,,,,,,,,,,,,,,,,,,,,,,,,,,,,,,,,,,,,,,,,,,,,,,,,,,,
,,65ab079fde17d72bca5e774b,2024-02-21_21h25.04.495,kallum_motion_pilot,2023.2.2,Win32,30.12048193,65ab079fde17d72bca5e774b,65d6bb0e977760de756971f7,65d6be35d49342c44be90ab7,0.0546,0.0547,0,81,81,46,1,fourtwo,,,,,,,,,,,,,,,,,,,,,,,,,,,,,,,,,,,,,,,,,,,,,,,,,,,,,,,,,,,,,,,,,,,,,,,,,,,,,,,,,,,,,,,,,,,,,,,,,,,,,,,,,,,,,,,,,,,,,,,,,,,,,,,,,,,,,,,,,
,,65ab079fde17d72bca5e774b,2024-02-21_21h25.04.495,kallum_motion_pilot,2023.2.2,Win32,30.12048193,65ab079fde17d72bca5e774b,65d6bb0e977760de756971f7,65d6be35d49342c44be90ab7,0.0548,0.0549,0,82,82,20,1,threeone,,,,,,,,,,,,,,,,,,,,,,,,,,,,,,,,,,,,,,,,,,,,,,,,,,,,,,,,,,,,,,,,,,,,,,,,,,,,,,,,,,,,,,,,,,,,,,,,,,,,,,,,,,,,,,,,,,,,,,,,,,,,,,,,,,,,,,,,,
,,65ab079fde17d72bca5e774b,2024-02-21_21h25.04.495,kallum_motion_pilot,2023.2.2,Win32,30.12048193,65ab079fde17d72bca5e774b,65d6bb0e977760de756971f7,65d6be35d49342c44be90ab7,0.0551,0.0552,0,83,83,63,1,fourthree,,,,,,,,,,,,,,,,,,,,,,,,,,,,,,,,,,,,,,,,,,,,,,,,,,,,,,,,,,,,,,,,,,,,,,,,,,,,,,,,,,,,,,,,,,,,,,,,,,,,,,,,,,,,,,,,,,,,,,,,,,,,,,,,,,,,,,,,,
,,65ab079fde17d72bca5e774b,2024-02-21_21h25.04.495,kallum_motion_pilot,2023.2.2,Win32,30.12048193,65ab079fde17d72bca5e774b,65d6bb0e977760de756971f7,65d6be35d49342c44be90ab7,0.0553,0.0554,0,84,84,37,1,threefour,,,,,,,,,,,,,,,,,,,,,,,,,,,,,,,,,,,,,,,,,,,,,,,,,,,,,,,,,,,,,,,,,,,,,,,,,,,,,,,,,,,,,,,,,,,,,,,,,,,,,,,,,,,,,,,,,,,,,,,,,,,,,,,,,,,,,,,,,
,,65ab079fde17d72bca5e774b,2024-02-21_21h25.04.495,kallum_motion_pilot,2023.2.2,Win32,30.12048193,65ab079fde17d72bca5e774b,65d6bb0e977760de756971f7,65d6be35d49342c44be90ab7,0.0556,0.0556,0,85,85,6,1,fourtwo,,,,,,,,,,,,,,,,,,,,,,,,,,,,,,,,,,,,,,,,,,,,,,,,,,,,,,,,,,,,,,,,,,,,,,,,,,,,,,,,,,,,,,,,,,,,,,,,,,,,,,,,,,,,,,,,,,,,,,,,,,,,,,,,,,,,,,,,,
,,65ab079fde17d72bca5e774b,2024-02-21_21h25.04.495,kallum_motion_pilot,2023.2.2,Win32,30.12048193,65ab079fde17d72bca5e774b,65d6bb0e977760de756971f7,65d6be35d49342c44be90ab7,0.0559,0.0559,0,86,86,118,1,eightsix,,,,,,,,,,,,,,,,,,,,,,,,,,,,,,,,,,,,,,,,,,,,,,,,,,,,,,,,,,,,,,,,,,,,,,,,,,,,,,,,,,,,,,,,,,,,,,,,,,,,,,,,,,,,,,,,,,,,,,,,,,,,,,,,,,,,,,,,,
,,65ab079fde17d72bca5e774b,2024-02-21_21h25.04.495,kallum_motion_pilot,2023.2.2,Win32,30.12048193,65ab079fde17d72bca5e774b,65d6bb0e977760de756971f7,65d6be35d49342c44be90ab7,0.0561,0.0563,0,87,87,143,1,eightseven,,,,,,,,,,,,,,,,,,,,,,,,,,,,,,,,,,,,,,,,,,,,,,,,,,,,,,,,,,,,,,,,,,,,,,,,,,,,,,,,,,,,,,,,,,,,,,,,,,,,,,,,,,,,,,,,,,,,,,,,,,,,,,,,,,,,,,,,,
,,65ab079fde17d72bca5e774b,2024-02-21_21h25.04.495,kallum_motion_pilot,2023.2.2,Win32,30.12048193,65ab079fde17d72bca5e774b,65d6bb0e977760de756971f7,65d6be35d49342c44be90ab7,0.0565,0.0565,0,88,88,100,1,sevenfive,,,,,,,,,,,,,,,,,,,,,,,,,,,,,,,,,,,,,,,,,,,,,,,,,,,,,,,,,,,,,,,,,,,,,,,,,,,,,,,,,,,,,,,,,,,,,,,,,,,,,,,,,,,,,,,,,,,,,,,,,,,,,,,,,,,,,,,,,
,,65ab079fde17d72bca5e774b,2024-02-21_21h25.04.495,kallum_motion_pilot,2023.2.2,Win32,30.12048193,65ab079fde17d72bca5e774b,65d6bb0e977760de756971f7,65d6be35d49342c44be90ab7,0.0568,0.0568,0,89,89,150,1,eightsix,,,,,,,,,,,,,,,,,,,,,,,,,,,,,,,,,,,,,,,,,,,,,,,,,,,,,,,,,,,,,,,,,,,,,,,,,,,,,,,,,,,,,,,,,,,,,,,,,,,,,,,,,,,,,,,,,,,,,,,,,,,,,,,,,,,,,,,,,
,,65ab079fde17d72bca5e774b,2024-02-21_21h25.04.495,kallum_motion_pilot,2023.2.2,Win32,30.12048193,65ab079fde17d72bca5e774b,65d6bb0e977760de756971f7,65d6be35d49342c44be90ab7,0.057,0.0571,0,90,90,159,1,eightseven,,,,,,,,,,,,,,,,,,,,,,,,,,,,,,,,,,,,,,,,,,,,,,,,,,,,,,,,,,,,,,,,,,,,,,,,,,,,,,,,,,,,,,,,,,,,,,,,,,,,,,,,,,,,,,,,,,,,,,,,,,,,,,,,,,,,,,,,,
,,65ab079fde17d72bca5e774b,2024-02-21_21h25.04.495,kallum_motion_pilot,2023.2.2,Win32,30.12048193,65ab079fde17d72bca5e774b,65d6bb0e977760de756971f7,65d6be35d49342c44be90ab7,0.0572,0.0573,0,91,91,107,1,sixeight,,,,,,,,,,,,,,,,,,,,,,,,,,,,,,,,,,,,,,,,,,,,,,,,,,,,,,,,,,,,,,,,,,,,,,,,,,,,,,,,,,,,,,,,,,,,,,,,,,,,,,,,,,,,,,,,,,,,,,,,,,,,,,,,,,,,,,,,,
,,65ab079fde17d72bca5e774b,2024-02-21_21h25.04.495,kallum_motion_pilot,2023.2.2,Win32,30.12048193,65ab079fde17d72bca5e774b,65d6bb0e977760de756971f7,65d6be35d49342c44be90ab7,0.0575,0.0575,0,92,92,93,1,seveneight,,,,,,,,,,,,,,,,,,,,,,,,,,,,,,,,,,,,,,,,,,,,,,,,,,,,,,,,,,,,,,,,,,,,,,,,,,,,,,,,,,,,,,,,,,,,,,,,,,,,,,,,,,,,,,,,,,,,,,,,,,,,,,,,,,,,,,,,,
,,65ab079fde17d72bca5e774b,2024-02-21_21h25.04.495,kallum_motion_pilot,2023.2.2,Win32,30.12048193,65ab079fde17d72bca5e774b,65d6bb0e977760de756971f7,65d6be35d49342c44be90ab7,0.0578,0.0578,0,93,93,53,1,threefour,,,,,,,,,,,,,,,,,,,,,,,,,,,,,,,,,,,,,,,,,,,,,,,,,,,,,,,,,,,,,,,,,,,,,,,,,,,,,,,,,,,,,,,,,,,,,,,,,,,,,,,,,,,,,,,,,,,,,,,,,,,,,,,,,,,,,,,,,
,,65ab079fde17d72bca5e774b,2024-02-21_21h25.04.495,kallum_motion_pilot,2023.2.2,Win32,30.12048193,65ab079fde17d72bca5e774b,65d6bb0e977760de756971f7,65d6be35d49342c44be90ab7,0.058,0.058,0,94,94,30,1,fourtwo,,,,,,,,,,,,,,,,,,,,,,,,,,,,,,,,,,,,,,,,,,,,,,,,,,,,,,,,,,,,,,,,,,,,,,,,,,,,,,,,,,,,,,,,,,,,,,,,,,,,,,,,,,,,,,,,,,,,,,,,,,,,,,,,,,,,,,,,,
,,65ab079fde17d72bca5e774b,2024-02-21_21h25.04.495,kallum_motion_pilot,2023.2.2,Win32,30.12048193,65ab079fde17d72bca5e774b,65d6bb0e977760de756971f7,65d6be35d49342c44be90ab7,0.0582,0.0583,0,95,95,111,1,eightseven,,,,,,,,,,,,,,,,,,,,,,,,,,,,,,,,,,,,,,,,,,,,,,,,,,,,,,,,,,,,,,,,,,,,,,,,,,,,,,,,,,,,,,,,,,,,,,,,,,,,,,,,,,,,,,,,,,,,,,,,,,,,,,,,,,,,,,,,,
,,65ab079fde17d72bca5e774b,2024-02-21_21h25.04.495,kallum_motion_pilot,2023.2.2,Win32,30.12048193,65ab079fde17d72bca5e774b,65d6bb0e977760de756971f7,65d6be35d49342c44be90ab7,0.0584,0.0585,0,96,96,70,1,fourtwo,,,,,,,,,,,,,,,,,,,,,,,,,,,,,,,,,,,,,,,,,,,,,,,,,,,,,,,,,,,,,,,,,,,,,,,,,,,,,,,,,,,,,,,,,,,,,,,,,,,,,,,,,,,,,,,,,,,,,,,,,,,,,,,,,,,,,,,,,
,,65ab079fde17d72bca5e774b,2024-02-21_21h25.04.495,kallum_motion_pilot,2023.2.2,Win32,30.12048193,65ab079fde17d72bca5e774b,65d6bb0e977760de756971f7,65d6be35d49342c44be90ab7,0.0587,0.0588,0,97,97,32,1,onetwo,,,,,,,,,,,,,,,,,,,,,,,,,,,,,,,,,,,,,,,,,,,,,,,,,,,,,,,,,,,,,,,,,,,,,,,,,,,,,,,,,,,,,,,,,,,,,,,,,,,,,,,,,,,,,,,,,,,,,,,,,,,,,,,,,,,,,,,,,
,,65ab079fde17d72bca5e774b,2024-02-21_21h25.04.495,kallum_motion_pilot,2023.2.2,Win32,30.12048193,65ab079fde17d72bca5e774b,65d6bb0e977760de756971f7,65d6be35d49342c44be90ab7,0.0589,0.059,0,98,98,40,1,onetwo,,,,,,,,,,,,,,,,,,,,,,,,,,,,,,,,,,,,,,,,,,,,,,,,,,,,,,,,,,,,,,,,,,,,,,,,,,,,,,,,,,,,,,,,,,,,,,,,,,,,,,,,,,,,,,,,,,,,,,,,,,,,,,,,,,,,,,,,,
,,65ab079fde17d72bca5e774b,2024-02-21_21h25.04.495,kallum_motion_pilot,2023.2.2,Win32,30.12048193,65ab079fde17d72bca5e774b,65d6bb0e977760de756971f7,65d6be35d49342c44be90ab7,0.0591,0.0593,0,99,99,158,1,eightsix,,,,,,,,,,,,,,,,,,,,,,,,,,,,,,,,,,,,,,,,,,,,,,,,,,,,,,,,,,,,,,,,,,,,,,,,,,,,,,,,,,,,,,,,,,,,,,,,,,,,,,,,,,,,,,,,,,,,,,,,,,,,,,,,,,,,,,,,,
,,65ab079fde17d72bca5e774b,2024-02-21_21h25.04.495,kallum_motion_pilot,2023.2.2,Win32,30.12048193,65ab079fde17d72bca5e774b,65d6bb0e977760de756971f7,65d6be35d49342c44be90ab7,0.0594,0.0595,0,100,100,151,1,eightseven,,,,,,,,,,,,,,,,,,,,,,,,,,,,,,,,,,,,,,,,,,,,,,,,,,,,,,,,,,,,,,,,,,,,,,,,,,,,,,,,,,,,,,,,,,,,,,,,,,,,,,,,,,,,,,,,,,,,,,,,,,,,,,,,,,,,,,,,,
,,65ab079fde17d72bca5e774b,2024-02-21_21h25.04.495,kallum_motion_pilot,2023.2.2,Win32,30.12048193,65ab079fde17d72bca5e774b,65d6bb0e977760de756971f7,65d6be35d49342c44be90ab7,0.0597,0.0598,0,101,101,145,1,fiveseven,,,,,,,,,,,,,,,,,,,,,,,,,,,,,,,,,,,,,,,,,,,,,,,,,,,,,,,,,,,,,,,,,,,,,,,,,,,,,,,,,,,,,,,,,,,,,,,,,,,,,,,,,,,,,,,,,,,,,,,,,,,,,,,,,,,,,,,,,
,,65ab079fde17d72bca5e774b,2024-02-21_21h25.04.495,kallum_motion_pilot,2023.2.2,Win32,30.12048193,65ab079fde17d72bca5e774b,65d6bb0e977760de756971f7,65d6be35d49342c44be90ab7,0.0599,0.0599,0,102,102,44,1,threeone,,,,,,,,,,,,,,,,,,,,,,,,,,,,,,,,,,,,,,,,,,,,,,,,,,,,,,,,,,,,,,,,,,,,,,,,,,,,,,,,,,,,,,,,,,,,,,,,,,,,,,,,,,,,,,,,,,,,,,,,,,,,,,,,,,,,,,,,,
,,65ab079fde17d72bca5e774b,2024-02-21_21h25.04.495,kallum_motion_pilot,2023.2.2,Win32,30.12048193,65ab079fde17d72bca5e774b,65d6bb0e977760de756971f7,65d6be35d49342c44be90ab7,0.0601,0.0602,0,103,103,58,1,twoone,,,,,,,,,,,,,,,,,,,,,,,,,,,,,,,,,,,,,,,,,,,,,,,,,,,,,,,,,,,,,,,,,,,,,,,,,,,,,,,,,,,,,,,,,,,,,,,,,,,,,,,,,,,,,,,,,,,,,,,,,,,,,,,,,,,,,,,,,
,,65ab079fde17d72bca5e774b,2024-02-21_21h25.04.495,kallum_motion_pilot,2023.2.2,Win32,30.12048193,65ab079fde17d72bca5e774b,65d6bb0e977760de756971f7,65d6be35d49342c44be90ab7,0.0604,0.0605,0,104,104,115,1,sixeight,,,,,,,,,,,,,,,,,,,,,,,,,,,,,,,,,,,,,,,,,,,,,,,,,,,,,,,,,,,,,,,,,,,,,,,,,,,,,,,,,,,,,,,,,,,,,,,,,,,,,,,,,,,,,,,,,,,,,,,,,,,,,,,,,,,,,,,,,
,,65ab079fde17d72bca5e774b,2024-02-21_21h25.04.495,kallum_motion_pilot,2023.2.2,Win32,30.12048193,65ab079fde17d72bca5e774b,65d6bb0e977760de756971f7,65d6be35d49342c44be90ab7,0.0618,0.0618,0,105,105,27,1,twofour,,,,,,,,,,,,,,,,,,,,,,,,,,,,,,,,,,,,,,,,,,,,,,,,,,,,,,,,,,,,,,,,,,,,,,,,,,,,,,,,,,,,,,,,,,,,,,,,,,,,,,,,,,,,,,,,,,,,,,,,,,,,,,,,,,,,,,,,,
,,65ab079fde17d72bca5e774b,2024-02-21_21h25.04.495,kallum_motion_pilot,2023.2.2,Win32,30.12048193,65ab079fde17d72bca5e774b,65d6bb0e977760de756971f7,65d6be35d49342c44be90ab7,0.062,0.0621,0,106,106,126,1,eightsix,,,,,,,,,,,,,,,,,,,,,,,,,,,,,,,,,,,,,,,,,,,,,,,,,,,,,,,,,,,,,,,,,,,,,,,,,,,,,,,,,,,,,,,,,,,,,,,,,,,,,,,,,,,,,,,,,,,,,,,,,,,,,,,,,,,,,,,,,
,,65ab079fde17d72bca5e774b,2024-02-21_21h25.04.495,kallum_motion_pilot,2023.2.2,Win32,30.12048193,65ab079fde17d72bca5e774b,65d6bb0e977760de756971f7,65d6be35d49342c44be90ab7,0.0622,0.0623,0,107,107,146,1,sixfive,,,,,,,,,,,,,,,,,,,,,,,,,,,,,,,,,,,,,,,,,,,,,,,,,,,,,,,,,,,,,,,,,,,,,,,,,,,,,,,,,,,,,,,,,,,,,,,,,,,,,,,,,,,,,,,,,,,,,,,,,,,,,,,,,,,,,,,,,
,,65ab079fde17d72bca5e774b,2024-02-21_21h25.04.495,kallum_motion_pilot,2023.2.2,Win32,30.12048193,65ab079fde17d72bca5e774b,65d6bb0e977760de756971f7,65d6be35d49342c44be90ab7,0.0624,0.0626,0,108,108,142,1,eightsix,,,,,,,,,,,,,,,,,,,,,,,,,,,,,,,,,,,,,,,,,,,,,,,,,,,,,,,,,,,,,,,,,,,,,,,,,,,,,,,,,,,,,,,,,,,,,,,,,,,,,,,,,,,,,,,,,,,,,,,,,,,,,,,,,,,,,,,,,
,,65ab079fde17d72bca5e774b,2024-02-21_21h25.04.495,kallum_motion_pilot,2023.2.2,Win32,30.12048193,65ab079fde17d72bca5e774b,65d6bb0e977760de756971f7,65d6be35d49342c44be90ab7,0.0627,0.0628,0,109,109,80,1,fivesix,,,,,,,,,,,,,,,,,,,,,,,,,,,,,,,,,,,,,,,,,,,,,,,,,,,,,,,,,,,,,,,,,,,,,,,,,,,,,,,,,,,,,,,,,,,,,,,,,,,,,,,,,,,,,,,,,,,,,,,,,,,,,,,,,,,,,,,,,
,,65ab079fde17d72bca5e774b,2024-02-21_21h25.04.495,kallum_motion_pilot,2023.2.2,Win32,30.12048193,65ab079fde17d72bca5e774b,65d6bb0e977760de756971f7,65d6be35d49342c44be90ab7,0.0629,0.063,0,110,110,101,1,seveneight,,,,,,,,,,,,,,,,,,,,,,,,,,,,,,,,,,,,,,,,,,,,,,,,,,,,,,,,,,,,,,,,,,,,,,,,,,,,,,,,,,,,,,,,,,,,,,,,,,,,,,,,,,,,,,,,,,,,,,,,,,,,,,,,,,,,,,,,,
,,65ab079fde17d72bca5e774b,2024-02-21_21h25.04.495,kallum_motion_pilot,2023.2.2,Win32,30.12048193,65ab079fde17d72bca5e774b,65d6bb0e977760de756971f7,65d6be35d49342c44be90ab7,0.0632,0.0633,0,111,111,17,1,onethree,,,,,,,,,,,,,,,,,,,,,,,,,,,,,,,,,,,,,,,,,,,,,,,,,,,,,,,,,,,,,,,,,,,,,,,,,,,,,,,,,,,,,,,,,,,,,,,,,,,,,,,,,,,,,,,,,,,,,,,,,,,,,,,,,,,,,,,,,
,,65ab079fde17d72bca5e774b,2024-02-21_21h25.04.495,kallum_motion_pilot,2023.2.2,Win32,30.12048193,65ab079fde17d72bca5e774b,65d6bb0e977760de756971f7,65d6be35d49342c44be90ab7,0.0634,0.0634,0,112,112,26,1,twoone,,,,,,,,,,,,,,,,,,,,,,,,,,,,,,,,,,,,,,,,,,,,,,,,,,,,,,,,,,,,,,,,,,,,,,,,,,,,,,,,,,,,,,,,,,,,,,,,,,,,,,,,,,,,,,,,,,,,,,,,,,,,,,,,,,,,,,,,,
,,65ab079fde17d72bca5e774b,2024-02-21_21h25.04.495,kallum_motion_pilot,2023.2.2,Win32,30.12048193,65ab079fde17d72bca5e774b,65d6bb0e977760de756971f7,65d6be35d49342c44be90ab7,0.0636,0.0636,0,113,113,85,1,seveneight,,,,,,,,,,,,,,,,,,,,,,,,,,,,,,,,,,,,,,,,,,,,,,,,,,,,,,,,,,,,,,,,,,,,,,,,,,,,,,,,,,,,,,,,,,,,,,,,,,,,,,,,,,,,,,,,,,,,,,,,,,,,,,,,,,,,,,,,,
,,65ab079fde17d72bca5e774b,2024-02-21_21h25.04.495,kallum_motion_pilot,2023.2.2,Win32,30.12048193,65ab079fde17d72bca5e774b,65d6bb0e977760de756971f7,65d6be35d49342c44be90ab7,0.0638,0.0639,0,114,114,12,1,threeone,,,,,,,,,,,,,,,,,,,,,,,,,,,,,,,,,,,,,,,,,,,,,,,,,,,,,,,,,,,,,,,,,,,,,,,,,,,,,,,,,,,,,,,,,,,,,,,,,,,,,,,,,,,,,,,,,,,,,,,,,,,,,,,,,,,,,,,,,
,,65ab079fde17d72bca5e774b,2024-02-21_21h25.04.495,kallum_motion_pilot,2023.2.2,Win32,30.12048193,65ab079fde17d72bca5e774b,65d6bb0e977760de756971f7,65d6be35d49342c44be90ab7,0.0641,0.0641,0,115,115,109,1,seveneight,,,,,,,,,,,,,,,,,,,,,,,,,,,,,,,,,,,,,,,,,,,,,,,,,,,,,,,,,,,,,,,,,,,,,,,,,,,,,,,,,,,,,,,,,,,,,,,,,,,,,,,,,,,,,,,,,,,,,,,,,,,,,,,,,,,,,,,,,
,,65ab079fde17d72bca5e774b,2024-02-21_21h25.04.495,kallum_motion_pilot,2023.2.2,Win32,30.12048193,65ab079fde17d72bca5e774b,65d6bb0e977760de756971f7,65d6be35d49342c44be90ab7,0.0642,0.0643,0,116,116,104,1,fivesix,,,,,,,,,,,,,,,,,,,,,,,,,,,,,,,,,,,,,,,,,,,,,,,,,,,,,,,,,,,,,,,,,,,,,,,,,,,,,,,,,,,,,,,,,,,,,,,,,,,,,,,,,,,,,,,,,,,,,,,,,,,,,,,,,,,,,,,,,
,,65ab079fde17d72bca5e774b,2024-02-21_21h25.04.495,kallum_motion_pilot,2023.2.2,Win32,30.12048193,65ab079fde17d72bca5e774b,65d6bb0e977760de756971f7,65d6be35d49342c44be90ab7,0.0644,0.0644,0,117,117,43,1,twofour,,,,,,,,,,,,,,,,,,,,,,,,,,,,,,,,,,,,,,,,,,,,,,,,,,,,,,,,,,,,,,,,,,,,,,,,,,,,,,,,,,,,,,,,,,,,,,,,,,,,,,,,,,,,,,,,,,,,,,,,,,,,,,,,,,,,,,,,,
,,65ab079fde17d72bca5e774b,2024-02-21_21h25.04.495,kallum_motion_pilot,2023.2.2,Win32,30.12048193,65ab079fde17d72bca5e774b,65d6bb0e977760de756971f7,65d6be35d49342c44be90ab7,0.0646,0.0647,0,118,118,13,1,threefour,,,,,,,,,,,,,,,,,,,,,,,,,,,,,,,,,,,,,,,,,,,,,,,,,,,,,,,,,,,,,,,,,,,,,,,,,,,,,,,,,,,,,,,,,,,,,,,,,,,,,,,,,,,,,,,,,,,,,,,,,,,,,,,,,,,,,,,,,
,,65ab079fde17d72bca5e774b,2024-02-21_21h25.04.495,kallum_motion_pilot,2023.2.2,Win32,30.12048193,65ab079fde17d72bca5e774b,65d6bb0e977760de756971f7,65d6be35d49342c44be90ab7,0.0647,0.0649,0,119,119,153,1,fiveseven,,,,,,,,,,,,,,,,,,,,,,,,,,,,,,,,,,,,,,,,,,,,,,,,,,,,,,,,,,,,,,,,,,,,,,,,,,,,,,,,,,,,,,,,,,,,,,,,,,,,,,,,,,,,,,,,,,,,,,,,,,,,,,,,,,,,,,,,,
,,65ab079fde17d72bca5e774b,2024-02-21_21h25.04.495,kallum_motion_pilot,2023.2.2,Win32,30.12048193,65ab079fde17d72bca5e774b,65d6bb0e977760de756971f7,65d6be35d49342c44be90ab7,0.0649,0.0649,0,120,120,136,1,fivesix,,,,,,,,,,,,,,,,,,,,,,,,,,,,,,,,,,,,,,,,,,,,,,,,,,,,,,,,,,,,,,,,,,,,,,,,,,,,,,,,,,,,,,,,,,,,,,,,,,,,,,,,,,,,,,,,,,,,,,,,,,,,,,,,,,,,,,,,,
,,65ab079fde17d72bca5e774b,2024-02-21_21h25.04.495,kallum_motion_pilot,2023.2.2,Win32,30.12048193,65ab079fde17d72bca5e774b,65d6bb0e977760de756971f7,65d6be35d49342c44be90ab7,0.0651,0.0651,0,121,121,31,1,fourthree,,,,,,,,,,,,,,,,,,,,,,,,,,,,,,,,,,,,,,,,,,,,,,,,,,,,,,,,,,,,,,,,,,,,,,,,,,,,,,,,,,,,,,,,,,,,,,,,,,,,,,,,,,,,,,,,,,,,,,,,,,,,,,,,,,,,,,,,,
,,65ab079fde17d72bca5e774b,2024-02-21_21h25.04.495,kallum_motion_pilot,2023.2.2,Win32,30.12048193,65ab079fde17d72bca5e774b,65d6bb0e977760de756971f7,65d6be35d49342c44be90ab7,0.0652,0.0653,0,122,122,28,1,threeone,,,,,,,,,,,,,,,,,,,,,,,,,,,,,,,,,,,,,,,,,,,,,,,,,,,,,,,,,,,,,,,,,,,,,,,,,,,,,,,,,,,,,,,,,,,,,,,,,,,,,,,,,,,,,,,,,,,,,,,,,,,,,,,,,,,,,,,,,
,,65ab079fde17d72bca5e774b,2024-02-21_21h25.04.495,kallum_motion_pilot,2023.2.2,Win32,30.12048193,65ab079fde17d72bca5e774b,65d6bb0e977760de756971f7,65d6be35d49342c44be90ab7,0.0654,0.0655,0,123,123,64,1,onetwo,,,,,,,,,,,,,,,,,,,,,,,,,,,,,,,,,,,,,,,,,,,,,,,,,,,,,,,,,,,,,,,,,,,,,,,,,,,,,,,,,,,,,,,,,,,,,,,,,,,,,,,,,,,,,,,,,,,,,,,,,,,,,,,,,,,,,,,,,
,,65ab079fde17d72bca5e774b,2024-02-21_21h25.04.495,kallum_motion_pilot,2023.2.2,Win32,30.12048193,65ab079fde17d72bca5e774b,65d6bb0e977760de756971f7,65d6be35d49342c44be90ab7,0.0656,0.0657,0,124,124,68,1,threeone,,,,,,,,,,,,,,,,,,,,,,,,,,,,,,,,,,,,,,,,,,,,,,,,,,,,,,,,,,,,,,,,,,,,,,,,,,,,,,,,,,,,,,,,,,,,,,,,,,,,,,,,,,,,,,,,,,,,,,,,,,,,,,,,,,,,,,,,,
,,65ab079fde17d72bca5e774b,2024-02-21_21h25.04.495,kallum_motion_pilot,2023.2.2,Win32,30.12048193,65ab079fde17d72bca5e774b,65d6bb0e977760de756971f7,65d6be35d49342c44be90ab7,0.066,0.0661,0,125,125,47,1,fourthree,,,,,,,,,,,,,,,,,,,,,,,,,,,,,,,,,,,,,,,,,,,,,,,,,,,,,,,,,,,,,,,,,,,,,,,,,,,,,,,,,,,,,,,,,,,,,,,,,,,,,,,,,,,,,,,,,,,,,,,,,,,,,,,,,,,,,,,,,
,,65ab079fde17d72bca5e774b,2024-02-21_21h25.04.495,kallum_motion_pilot,2023.2.2,Win32,30.12048193,65ab079fde17d72bca5e774b,65d6bb0e977760de756971f7,65d6be35d49342c44be90ab7,0.0663,0.0664,0,126,126,0,1,onetwo,,,,,,,,,,,,,,,,,,,,,,,,,,,,,,,,,,,,,,,,,,,,,,,,,,,,,,,,,,,,,,,,,,,,,,,,,,,,,,,,,,,,,,,,,,,,,,,,,,,,,,,,,,,,,,,,,,,,,,,,,,,,,,,,,,,,,,,,,
,,65ab079fde17d72bca5e774b,2024-02-21_21h25.04.495,kallum_motion_pilot,2023.2.2,Win32,30.12048193,65ab079fde17d72bca5e774b,65d6bb0e977760de756971f7,65d6be35d49342c44be90ab7,0.0666,0.0666,0,127,127,87,1,eightseven,,,,,,,,,,,,,,,,,,,,,,,,,,,,,,,,,,,,,,,,,,,,,,,,,,,,,,,,,,,,,,,,,,,,,,,,,,,,,,,,,,,,,,,,,,,,,,,,,,,,,,,,,,,,,,,,,,,,,,,,,,,,,,,,,,,,,,,,,
,,65ab079fde17d72bca5e774b,2024-02-21_21h25.04.495,kallum_motion_pilot,2023.2.2,Win32,30.12048193,65ab079fde17d72bca5e774b,65d6bb0e977760de756971f7,65d6be35d49342c44be90ab7,0.0668,0.0669,0,128,128,117,1,seveneight,,,,,,,,,,,,,,,,,,,,,,,,,,,,,,,,,,,,,,,,,,,,,,,,,,,,,,,,,,,,,,,,,,,,,,,,,,,,,,,,,,,,,,,,,,,,,,,,,,,,,,,,,,,,,,,,,,,,,,,,,,,,,,,,,,,,,,,,,
,,65ab079fde17d72bca5e774b,2024-02-21_21h25.04.495,kallum_motion_pilot,2023.2.2,Win32,30.12048193,65ab079fde17d72bca5e774b,65d6bb0e977760de756971f7,65d6be35d49342c44be90ab7,0.067,0.0671,0,129,129,130,1,sixfive,,,,,,,,,,,,,,,,,,,,,,,,,,,,,,,,,,,,,,,,,,,,,,,,,,,,,,,,,,,,,,,,,,,,,,,,,,,,,,,,,,,,,,,,,,,,,,,,,,,,,,,,,,,,,,,,,,,,,,,,,,,,,,,,,,,,,,,,,
,,65ab079fde17d72bca5e774b,2024-02-21_21h25.04.495,kallum_motion_pilot,2023.2.2,Win32,30.12048193,65ab079fde17d72bca5e774b,65d6bb0e977760de756971f7,65d6be35d49342c44be90ab7,0.0672,0.0674,0,130,130,131,1,sixeight,,,,,,,,,,,,,,,,,,,,,,,,,,,,,,,,,,,,,,,,,,,,,,,,,,,,,,,,,,,,,,,,,,,,,,,,,,,,,,,,,,,,,,,,,,,,,,,,,,,,,,,,,,,,,,,,,,,,,,,,,,,,,,,,,,,,,,,,,
,,65ab079fde17d72bca5e774b,2024-02-21_21h25.04.495,kallum_motion_pilot,2023.2.2,Win32,30.12048193,65ab079fde17d72bca5e774b,65d6bb0e977760de756971f7,65d6be35d49342c44be90ab7,0.0675,0.0676,0,131,131,123,1,sixeight,,,,,,,,,,,,,,,,,,,,,,,,,,,,,,,,,,,,,,,,,,,,,,,,,,,,,,,,,,,,,,,,,,,,,,,,,,,,,,,,,,,,,,,,,,,,,,,,,,,,,,,,,,,,,,,,,,,,,,,,,,,,,,,,,,,,,,,,,
,,65ab079fde17d72bca5e774b,2024-02-21_21h25.04.495,kallum_motion_pilot,2023.2.2,Win32,30.12048193,65ab079fde17d72bca5e774b,65d6bb0e977760de756971f7,65d6be35d49342c44be90ab7,0.0677,0.0677,0,132,132,134,1,eightsix,,,,,,,,,,,,,,,,,,,,,,,,,,,,,,,,,,,,,,,,,,,,,,,,,,,,,,,,,,,,,,,,,,,,,,,,,,,,,,,,,,,,,,,,,,,,,,,,,,,,,,,,,,,,,,,,,,,,,,,,,,,,,,,,,,,,,,,,,
,,65ab079fde17d72bca5e774b,2024-02-21_21h25.04.495,kallum_motion_pilot,2023.2.2,Win32,30.12048193,65ab079fde17d72bca5e774b,65d6bb0e977760de756971f7,65d6be35d49342c44be90ab7,0.0678,0.0679,0,133,133,114,1,sixfive,,,,,,,,,,,,,,,,,,,,,,,,,,,,,,,,,,,,,,,,,,,,,,,,,,,,,,,,,,,,,,,,,,,,,,,,,,,,,,,,,,,,,,,,,,,,,,,,,,,,,,,,,,,,,,,,,,,,,,,,,,,,,,,,,,,,,,,,,
,,65ab079fde17d72bca5e774b,2024-02-21_21h25.04.495,kallum_motion_pilot,2023.2.2,Win32,30.12048193,65ab079fde17d72bca5e774b,65d6bb0e977760de756971f7,65d6be35d49342c44be90ab7,0.068,0.0681,0,134,134,112,1,fivesix,,,,,,,,,,,,,,,,,,,,,,,,,,,,,,,,,,,,,,,,,,,,,,,,,,,,,,,,,,,,,,,,,,,,,,,,,,,,,,,,,,,,,,,,,,,,,,,,,,,,,,,,,,,,,,,,,,,,,,,,,,,,,,,,,,,,,,,,,
,,65ab079fde17d72bca5e774b,2024-02-21_21h25.04.495,kallum_motion_pilot,2023.2.2,Win32,30.12048193,65ab079fde17d72bca5e774b,65d6bb0e977760de756971f7,65d6be35d49342c44be90ab7,0.0682,0.0683,0,135,135,2,1,twoone,,,,,,,,,,,,,,,,,,,,,,,,,,,,,,,,,,,,,,,,,,,,,,,,,,,,,,,,,,,,,,,,,,,,,,,,,,,,,,,,,,,,,,,,,,,,,,,,,,,,,,,,,,,,,,,,,,,,,,,,,,,,,,,,,,,,,,,,,
,,65ab079fde17d72bca5e774b,2024-02-21_21h25.04.495,kallum_motion_pilot,2023.2.2,Win32,30.12048193,65ab079fde17d72bca5e774b,65d6bb0e977760de756971f7,65d6be35d49342c44be90ab7,0.0684,0.0684,0,136,136,83,1,sixeight,,,,,,,,,,,,,,,,,,,,,,,,,,,,,,,,,,,,,,,,,,,,,,,,,,,,,,,,,,,,,,,,,,,,,,,,,,,,,,,,,,,,,,,,,,,,,,,,,,,,,,,,,,,,,,,,,,,,,,,,,,,,,,,,,,,,,,,,,
,,65ab079fde17d72bca5e774b,2024-02-21_21h25.04.495,kallum_motion_pilot,2023.2.2,Win32,30.12048193,65ab079fde17d72bca5e774b,65d6bb0e977760de756971f7,65d6be35d49342c44be90ab7,0.0686,0.0687,0,137,137,60,1,threeone,,,,,,,,,,,,,,,,,,,,,,,,,,,,,,,,,,,,,,,,,,,,,,,,,,,,,,,,,,,,,,,,,,,,,,,,,,,,,,,,,,,,,,,,,,,,,,,,,,,,,,,,,,,,,,,,,,,,,,,,,,,,,,,,,,,,,,,,,
,,65ab079fde17d72bca5e774b,2024-02-21_21h25.04.495,kallum_motion_pilot,2023.2.2,Win32,30.12048193,65ab079fde17d72bca5e774b,65d6bb0e977760de756971f7,65d6be35d49342c44be90ab7,0.0688,0.0689,0,138,138,4,1,threeone,,,,,,,,,,,,,,,,,,,,,,,,,,,,,,,,,,,,,,,,,,,,,,,,,,,,,,,,,,,,,,,,,,,,,,,,,,,,,,,,,,,,,,,,,,,,,,,,,,,,,,,,,,,,,,,,,,,,,,,,,,,,,,,,,,,,,,,,,
,,65ab079fde17d72bca5e774b,2024-02-21_21h25.04.495,kallum_motion_pilot,2023.2.2,Win32,30.12048193,65ab079fde17d72bca5e774b,65d6bb0e977760de756971f7,65d6be35d49342c44be90ab7,0.069,0.0691,0,139,139,125,1,seveneight,,,,,,,,,,,,,,,,,,,,,,,,,,,,,,,,,,,,,,,,,,,,,,,,,,,,,,,,,,,,,,,,,,,,,,,,,,,,,,,,,,,,,,,,,,,,,,,,,,,,,,,,,,,,,,,,,,,,,,,,,,,,,,,,,,,,,,,,,
,,65ab079fde17d72bca5e774b,2024-02-21_21h25.04.495,kallum_motion_pilot,2023.2.2,Win32,30.12048193,65ab079fde17d72bca5e774b,65d6bb0e977760de756971f7,65d6be35d49342c44be90ab7,0.0692,0.0693,0,140,140,38,1,fourtwo,,,,,,,,,,,,,,,,,,,,,,,,,,,,,,,,,,,,,,,,,,,,,,,,,,,,,,,,,,,,,,,,,,,,,,,,,,,,,,,,,,,,,,,,,,,,,,,,,,,,,,,,,,,,,,,,,,,,,,,,,,,,,,,,,,,,,,,,,
,,65ab079fde17d72bca5e774b,2024-02-21_21h25.04.495,kallum_motion_pilot,2023.2.2,Win32,30.12048193,65ab079fde17d72bca5e774b,65d6bb0e977760de756971f7,65d6be35d49342c44be90ab7,0.0694,0.0695,0,141,141,140,1,sevenfive,,,,,,,,,,,,,,,,,,,,,,,,,,,,,,,,,,,,,,,,,,,,,,,,,,,,,,,,,,,,,,,,,,,,,,,,,,,,,,,,,,,,,,,,,,,,,,,,,,,,,,,,,,,,,,,,,,,,,,,,,,,,,,,,,,,,,,,,,
,,65ab079fde17d72bca5e774b,2024-02-21_21h25.04.495,kallum_motion_pilot,2023.2.2,Win32,30.12048193,65ab079fde17d72bca5e774b,65d6bb0e977760de756971f7,65d6be35d49342c44be90ab7,0.0696,0.0697,0,142,142,18,1,twoone,,,,,,,,,,,,,,,,,,,,,,,,,,,,,,,,,,,,,,,,,,,,,,,,,,,,,,,,,,,,,,,,,,,,,,,,,,,,,,,,,,,,,,,,,,,,,,,,,,,,,,,,,,,,,,,,,,,,,,,,,,,,,,,,,,,,,,,,,
,,65ab079fde17d72bca5e774b,2024-02-21_21h25.04.495,kallum_motion_pilot,2023.2.2,Win32,30.12048193,65ab079fde17d72bca5e774b,65d6bb0e977760de756971f7,65d6be35d49342c44be90ab7,0.0698,0.0698,0,143,143,124,1,sevenfive,,,,,,,,,,,,,,,,,,,,,,,,,,,,,,,,,,,,,,,,,,,,,,,,,,,,,,,,,,,,,,,,,,,,,,,,,,,,,,,,,,,,,,,,,,,,,,,,,,,,,,,,,,,,,,,,,,,,,,,,,,,,,,,,,,,,,,,,,
,,65ab079fde17d72bca5e774b,2024-02-21_21h25.04.495,kallum_motion_pilot,2023.2.2,Win32,30.12048193,65ab079fde17d72bca5e774b,65d6bb0e977760de756971f7,65d6be35d49342c44be90ab7,0.0699,0.07,0,144,144,41,1,onethree,,,,,,,,,,,,,,,,,,,,,,,,,,,,,,,,,,,,,,,,,,,,,,,,,,,,,,,,,,,,,,,,,,,,,,,,,,,,,,,,,,,,,,,,,,,,,,,,,,,,,,,,,,,,,,,,,,,,,,,,,,,,,,,,,,,,,,,,,
,,65ab079fde17d72bca5e774b,2024-02-21_21h25.04.495,kallum_motion_pilot,2023.2.2,Win32,30.12048193,65ab079fde17d72bca5e774b,65d6bb0e977760de756971f7,65d6be35d49342c44be90ab7,0.0702,0.0703,0,145,145,76,1,threeone,,,,,,,,,,,,,,,,,,,,,,,,,,,,,,,,,,,,,,,,,,,,,,,,,,,,,,,,,,,,,,,,,,,,,,,,,,,,,,,,,,,,,,,,,,,,,,,,,,,,,,,,,,,,,,,,,,,,,,,,,,,,,,,,,,,,,,,,,
,,65ab079fde17d72bca5e774b,2024-02-21_21h25.04.495,kallum_motion_pilot,2023.2.2,Win32,30.12048193,65ab079fde17d72bca5e774b,65d6bb0e977760de756971f7,65d6be35d49342c44be90ab7,0.0704,0.0704,0,146,146,105,1,fiveseven,,,,,,,,,,,,,,,,,,,,,,,,,,,,,,,,,,,,,,,,,,,,,,,,,,,,,,,,,,,,,,,,,,,,,,,,,,,,,,,,,,,,,,,,,,,,,,,,,,,,,,,,,,,,,,,,,,,,,,,,,,,,,,,,,,,,,,,,,
,,65ab079fde17d72bca5e774b,2024-02-21_21h25.04.495,kallum_motion_pilot,2023.2.2,Win32,30.12048193,65ab079fde17d72bca5e774b,65d6bb0e977760de756971f7,65d6be35d49342c44be90ab7,0.0706,0.0706,0,147,147,102,1,eightsix,,,,,,,,,,,,,,,,,,,,,,,,,,,,,,,,,,,,,,,,,,,,,,,,,,,,,,,,,,,,,,,,,,,,,,,,,,,,,,,,,,,,,,,,,,,,,,,,,,,,,,,,,,,,,,,,,,,,,,,,,,,,,,,,,,,,,,,,,
,,65ab079fde17d72bca5e774b,2024-02-21_21h25.04.495,kallum_motion_pilot,2023.2.2,Win32,30.12048193,65ab079fde17d72bca5e774b,65d6bb0e977760de756971f7,65d6be35d49342c44be90ab7,0.0707,0.0708,0,148,148,23,1,fourthree,,,,,,,,,,,,,,,,,,,,,,,,,,,,,,,,,,,,,,,,,,,,,,,,,,,,,,,,,,,,,,,,,,,,,,,,,,,,,,,,,,,,,,,,,,,,,,,,,,,,,,,,,,,,,,,,,,,,,,,,,,,,,,,,,,,,,,,,,
,,65ab079fde17d72bca5e774b,2024-02-21_21h25.04.495,kallum_motion_pilot,2023.2.2,Win32,30.12048193,65ab079fde17d72bca5e774b,65d6bb0e977760de756971f7,65d6be35d49342c44be90ab7,0.0709,0.071,0,149,149,90,1,sixfive,,,,,,,,,,,,,,,,,,,,,,,,,,,,,,,,,,,,,,,,,,,,,,,,,,,,,,,,,,,,,,,,,,,,,,,,,,,,,,,,,,,,,,,,,,,,,,,,,,,,,,,,,,,,,,,,,,,,,,,,,,,,,,,,,,,,,,,,,
,,65ab079fde17d72bca5e774b,2024-02-21_21h25.04.495,kallum_motion_pilot,2023.2.2,Win32,30.12048193,65ab079fde17d72bca5e774b,65d6bb0e977760de756971f7,65d6be35d49342c44be90ab7,0.071,0.0711,0,150,150,10,1,twoone,,,,,,,,,,,,,,,,,,,,,,,,,,,,,,,,,,,,,,,,,,,,,,,,,,,,,,,,,,,,,,,,,,,,,,,,,,,,,,,,,,,,,,,,,,,,,,,,,,,,,,,,,,,,,,,,,,,,,,,,,,,,,,,,,,,,,,,,,
,,65ab079fde17d72bca5e774b,2024-02-21_21h25.04.495,kallum_motion_pilot,2023.2.2,Win32,30.12048193,65ab079fde17d72bca5e774b,65d6bb0e977760de756971f7,65d6be35d49342c44be90ab7,0.0713,0.0713,0,151,151,94,1,eightsix,,,,,,,,,,,,,,,,,,,,,,,,,,,,,,,,,,,,,,,,,,,,,,,,,,,,,,,,,,,,,,,,,,,,,,,,,,,,,,,,,,,,,,,,,,,,,,,,,,,,,,,,,,,,,,,,,,,,,,,,,,,,,,,,,,,,,,,,,
,,65ab079fde17d72bca5e774b,2024-02-21_21h25.04.495,kallum_motion_pilot,2023.2.2,Win32,30.12048193,65ab079fde17d72bca5e774b,65d6bb0e977760de756971f7,65d6be35d49342c44be90ab7,0.0715,0.0716,0,152,152,81,1,fiveseven,,,,,,,,,,,,,,,,,,,,,,,,,,,,,,,,,,,,,,,,,,,,,,,,,,,,,,,,,,,,,,,,,,,,,,,,,,,,,,,,,,,,,,,,,,,,,,,,,,,,,,,,,,,,,,,,,,,,,,,,,,,,,,,,,,,,,,,,,
,,65ab079fde17d72bca5e774b,2024-02-21_21h25.04.495,kallum_motion_pilot,2023.2.2,Win32,30.12048193,65ab079fde17d72bca5e774b,65d6bb0e977760de756971f7,65d6be35d49342c44be90ab7,0.0716,0.0717,0,153,153,78,1,fourtwo,,,,,,,,,,,,,,,,,,,,,,,,,,,,,,,,,,,,,,,,,,,,,,,,,,,,,,,,,,,,,,,,,,,,,,,,,,,,,,,,,,,,,,,,,,,,,,,,,,,,,,,,,,,,,,,,,,,,,,,,,,,,,,,,,,,,,,,,,
,,65ab079fde17d72bca5e774b,2024-02-21_21h25.04.495,kallum_motion_pilot,2023.2.2,Win32,30.12048193,65ab079fde17d72bca5e774b,65d6bb0e977760de756971f7,65d6be35d49342c44be90ab7,0.0718,0.0719,0,154,154,161,1,fiveseven,,,,,,,,,,,,,,,,,,,,,,,,,,,,,,,,,,,,,,,,,,,,,,,,,,,,,,,,,,,,,,,,,,,,,,,,,,,,,,,,,,,,,,,,,,,,,,,,,,,,,,,,,,,,,,,,,,,,,,,,,,,,,,,,,,,,,,,,,
,,65ab079fde17d72bca5e774b,2024-02-21_21h25.04.495,kallum_motion_pilot,2023.2.2,Win32,30.12048193,65ab079fde17d72bca5e774b,65d6bb0e977760de756971f7,65d6be35d49342c44be90ab7,0.0721,0.0721,0,155,155,128,1,fivesix,,,,,,,,,,,,,,,,,,,,,,,,,,,,,,,,,,,,,,,,,,,,,,,,,,,,,,,,,,,,,,,,,,,,,,,,,,,,,,,,,,,,,,,,,,,,,,,,,,,,,,,,,,,,,,,,,,,,,,,,,,,,,,,,,,,,,,,,,
,,65ab079fde17d72bca5e774b,2024-02-21_21h25.04.495,kallum_motion_pilot,2023.2.2,Win32,30.12048193,65ab079fde17d72bca5e774b,65d6bb0e977760de756971f7,65d6be35d49342c44be90ab7,0.0723,0.0724,0,156,156,59,1,twofour,,,,,,,,,,,,,,,,,,,,,,,,,,,,,,,,,,,,,,,,,,,,,,,,,,,,,,,,,,,,,,,,,,,,,,,,,,,,,,,,,,,,,,,,,,,,,,,,,,,,,,,,,,,,,,,,,,,,,,,,,,,,,,,,,,,,,,,,,
,,65ab079fde17d72bca5e774b,2024-02-21_21h25.04.495,kallum_motion_pilot,2023.2.2,Win32,30.12048193,65ab079fde17d72bca5e774b,65d6bb0e977760de756971f7,65d6be35d49342c44be90ab7,0.0724,0.0725,0,157,157,25,1,onethree,,,,,,,,,,,,,,,,,,,,,,,,,,,,,,,,,,,,,,,,,,,,,,,,,,,,,,,,,,,,,,,,,,,,,,,,,,,,,,,,,,,,,,,,,,,,,,,,,,,,,,,,,,,,,,,,,,,,,,,,,,,,,,,,,,,,,,,,,
,,65ab079fde17d72bca5e774b,2024-02-21_21h25.04.495,kallum_motion_pilot,2023.2.2,Win32,30.12048193,65ab079fde17d72bca5e774b,65d6bb0e977760de756971f7,65d6be35d49342c44be90ab7,0.0727,0.0727,0,158,158,88,1,fivesix,,,,,,,,,,,,,,,,,,,,,,,,,,,,,,,,,,,,,,,,,,,,,,,,,,,,,,,,,,,,,,,,,,,,,,,,,,,,,,,,,,,,,,,,,,,,,,,,,,,,,,,,,,,,,,,,,,,,,,,,,,,,,,,,,,,,,,,,,
,,65ab079fde17d72bca5e774b,2024-02-21_21h25.04.495,kallum_motion_pilot,2023.2.2,Win32,30.12048193,65ab079fde17d72bca5e774b,65d6bb0e977760de756971f7,65d6be35d49342c44be90ab7,0.0729,0.0729,0,159,159,86,1,eightsix,,,,,,,,,,,,,,,,,,,,,,,,,,,,,,,,,,,,,,,,,,,,,,,,,,,,,,,,,,,,,,,,,,,,,,,,,,,,,,,,,,,,,,,,,,,,,,,,,,,,,,,,,,,,,,,,,,,,,,,,,,,,,,,,,,,,,,,,,
,,65ab079fde17d72bca5e774b,2024-02-21_21h25.04.495,kallum_motion_pilot,2023.2.2,Win32,30.12048193,65ab079fde17d72bca5e774b,65d6bb0e977760de756971f7,65d6be35d49342c44be90ab7,0.073,0.0731,0,160,160,61,1,threefour,,,,,,,,,,,,,,,,,,,,,,,,,,,,,,,,,,,,,,,,,,,,,,,,,,,,,,,,,,,,,,,,,,,,,,,,,,,,,,,,,,,,,,,,,,,,,,,,,,,,,,,,,,,,,,,,,,,,,,,,,,,,,,,,,,,,,,,,,
,,65ab079fde17d72bca5e774b,2024-02-21_21h25.04.495,kallum_motion_pilot,2023.2.2,Win32,30.12048193,65ab079fde17d72bca5e774b,65d6bb0e977760de756971f7,65d6be35d49342c44be90ab7,0.0732,0.0734,0,161,161,95,1,eightseven,,,,,,,,,,,,,,,,,,,,,,,,,,,,,,,,,,,,,,,,,,,,,,,,,,,,,,,,,,,,,,,,,,,,,,,,,,,,,,,,,,,,,,,,,,,,,,,,,,,,,,,,,,,,,,,,,,,,,,,,,,,,,,,,,,,,,,,,,
,,65ab079fde17d72bca5e774b,2024-02-21_21h25.04.495,kallum_motion_pilot,2023.2.2,Win32,30.12048193,65ab079fde17d72bca5e774b,65d6bb0e977760de756971f7,65d6be35d49342c44be90ab7,0.0735,0.0736,1,0,162,120,1,fivesix,,,,,,,,,,,,,,,,,,,,,,,,,,,,,,,,,,,,,,,,,,,,,,,,,,,,,,,,,,,,,,,,,,,,,,,,,,,,,,,,,,,,,,,,,,,,,,,,,,,,,,,,,,,,,,,,,,,,,,,,,,,,,,,,,,,,,,,,,
,,65ab079fde17d72bca5e774b,2024-02-21_21h25.04.495,kallum_motion_pilot,2023.2.2,Win32,30.12048193,65ab079fde17d72bca5e774b,65d6bb0e977760de756971f7,65d6be35d49342c44be90ab7,0.0736,0.0737,1,1,163,92,1,sevenfive,,,,,,,,,,,,,,,,,,,,,,,,,,,,,,,,,,,,,,,,,,,,,,,,,,,,,,,,,,,,,,,,,,,,,,,,,,,,,,,,,,,,,,,,,,,,,,,,,,,,,,,,,,,,,,,,,,,,,,,,,,,,,,,,,,,,,,,,,
,,65ab079fde17d72bca5e774b,2024-02-21_21h25.04.495,kallum_motion_pilot,2023.2.2,Win32,30.12048193,65ab079fde17d72bca5e774b,65d6bb0e977760de756971f7,65d6be35d49342c44be90ab7,0.0738,0.0739,1,2,164,89,1,fiveseven,,,,,,,,,,,,,,,,,,,,,,,,,,,,,,,,,,,,,,,,,,,,,,,,,,,,,,,,,,,,,,,,,,,,,,,,,,,,,,,,,,,,,,,,,,,,,,,,,,,,,,,,,,,,,,,,,,,,,,,,,,,,,,,,,,,,,,,,,
,,65ab079fde17d72bca5e774b,2024-02-21_21h25.04.495,kallum_motion_pilot,2023.2.2,Win32,30.12048193,65ab079fde17d72bca5e774b,65d6bb0e977760de756971f7,65d6be35d49342c44be90ab7,0.074,0.074,1,3,165,11,1,twofour,,,,,,,,,,,,,,,,,,,,,,,,,,,,,,,,,,,,,,,,,,,,,,,,,,,,,,,,,,,,,,,,,,,,,,,,,,,,,,,,,,,,,,,,,,,,,,,,,,,,,,,,,,,,,,,,,,,,,,,,,,,,,,,,,,,,,,,,,
,,65ab079fde17d72bca5e774b,2024-02-21_21h25.04.495,kallum_motion_pilot,2023.2.2,Win32,30.12048193,65ab079fde17d72bca5e774b,65d6bb0e977760de756971f7,65d6be35d49342c44be90ab7,0.0742,0.0743,1,4,166,87,1,eightseven,,,,,,,,,,,,,,,,,,,,,,,,,,,,,,,,,,,,,,,,,,,,,,,,,,,,,,,,,,,,,,,,,,,,,,,,,,,,,,,,,,,,,,,,,,,,,,,,,,,,,,,,,,,,,,,,,,,,,,,,,,,,,,,,,,,,,,,,,
,,65ab079fde17d72bca5e774b,2024-02-21_21h25.04.495,kallum_motion_pilot,2023.2.2,Win32,30.12048193,65ab079fde17d72bca5e774b,65d6bb0e977760de756971f7,65d6be35d49342c44be90ab7,0.0744,0.0745,1,5,167,9,1,onethree,,,,,,,,,,,,,,,,,,,,,,,,,,,,,,,,,,,,,,,,,,,,,,,,,,,,,,,,,,,,,,,,,,,,,,,,,,,,,,,,,,,,,,,,,,,,,,,,,,,,,,,,,,,,,,,,,,,,,,,,,,,,,,,,,,,,,,,,,
,,65ab079fde17d72bca5e774b,2024-02-21_21h25.04.495,kallum_motion_pilot,2023.2.2,Win32,30.12048193,65ab079fde17d72bca5e774b,65d6bb0e977760de756971f7,65d6be35d49342c44be90ab7,0.0746,0.0747,1,6,168,21,1,threefour,,,,,,,,,,,,,,,,,,,,,,,,,,,,,,,,,,,,,,,,,,,,,,,,,,,,,,,,,,,,,,,,,,,,,,,,,,,,,,,,,,,,,,,,,,,,,,,,,,,,,,,,,,,,,,,,,,,,,,,,,,,,,,,,,,,,,,,,,
,,65ab079fde17d72bca5e774b,2024-02-21_21h25.04.495,kallum_motion_pilot,2023.2.2,Win32,30.12048193,65ab079fde17d72bca5e774b,65d6bb0e977760de756971f7,65d6be35d49342c44be90ab7,0.0748,0.0748,1,7,169,28,1,threeone,,,,,,,,,,,,,,,,,,,,,,,,,,,,,,,,,,,,,,,,,,,,,,,,,,,,,,,,,,,,,,,,,,,,,,,,,,,,,,,,,,,,,,,,,,,,,,,,,,,,,,,,,,,,,,,,,,,,,,,,,,,,,,,,,,,,,,,,,
,,65ab079fde17d72bca5e774b,2024-02-21_21h25.04.495,kallum_motion_pilot,2023.2.2,Win32,30.12048193,65ab079fde17d72bca5e774b,65d6bb0e977760de756971f7,65d6be35d49342c44be90ab7,0.075,0.075,1,8,170,20,1,threeone,,,,,,,,,,,,,,,,,,,,,,,,,,,,,,,,,,,,,,,,,,,,,,,,,,,,,,,,,,,,,,,,,,,,,,,,,,,,,,,,,,,,,,,,,,,,,,,,,,,,,,,,,,,,,,,,,,,,,,,,,,,,,,,,,,,,,,,,,
,,65ab079fde17d72bca5e774b,2024-02-21_21h25.04.495,kallum_motion_pilot,2023.2.2,Win32,30.12048193,65ab079fde17d72bca5e774b,65d6bb0e977760de756971f7,65d6be35d49342c44be90ab7,0.0752,0.0753,1,9,171,82,1,sixfive,,,,,,,,,,,,,,,,,,,,,,,,,,,,,,,,,,,,,,,,,,,,,,,,,,,,,,,,,,,,,,,,,,,,,,,,,,,,,,,,,,,,,,,,,,,,,,,,,,,,,,,,,,,,,,,,,,,,,,,,,,,,,,,,,,,,,,,,,
,,65ab079fde17d72bca5e774b,2024-02-21_21h25.04.495,kallum_motion_pilot,2023.2.2,Win32,30.12048193,65ab079fde17d72bca5e774b,65d6bb0e977760de756971f7,65d6be35d49342c44be90ab7,0.0753,0.0754,1,10,172,56,1,onetwo,,,,,,,,,,,,,,,,,,,,,,,,,,,,,,,,,,,,,,,,,,,,,,,,,,,,,,,,,,,,,,,,,,,,,,,,,,,,,,,,,,,,,,,,,,,,,,,,,,,,,,,,,,,,,,,,,,,,,,,,,,,,,,,,,,,,,,,,,
,,65ab079fde17d72bca5e774b,2024-02-21_21h25.04.495,kallum_motion_pilot,2023.2.2,Win32,30.12048193,65ab079fde17d72bca5e774b,65d6bb0e977760de756971f7,65d6be35d49342c44be90ab7,0.0756,0.0757,1,11,173,19,1,twofour,,,,,,,,,,,,,,,,,,,,,,,,,,,,,,,,,,,,,,,,,,,,,,,,,,,,,,,,,,,,,,,,,,,,,,,,,,,,,,,,,,,,,,,,,,,,,,,,,,,,,,,,,,,,,,,,,,,,,,,,,,,,,,,,,,,,,,,,,
,,65ab079fde17d72bca5e774b,2024-02-21_21h25.04.495,kallum_motion_pilot,2023.2.2,Win32,30.12048193,65ab079fde17d72bca5e774b,65d6bb0e977760de756971f7,65d6be35d49342c44be90ab7,0.0758,0.0759,1,12,174,136,1,fivesix,,,,,,,,,,,,,,,,,,,,,,,,,,,,,,,,,,,,,,,,,,,,,,,,,,,,,,,,,,,,,,,,,,,,,,,,,,,,,,,,,,,,,,,,,,,,,,,,,,,,,,,,,,,,,,,,,,,,,,,,,,,,,,,,,,,,,,,,,
,,65ab079fde17d72bca5e774b,2024-02-21_21h25.04.495,kallum_motion_pilot,2023.2.2,Win32,30.12048193,65ab079fde17d72bca5e774b,65d6bb0e977760de756971f7,65d6be35d49342c44be90ab7,0.0761,0.0763,1,13,175,44,1,threeone,,,,,,,,,,,,,,,,,,,,,,,,,,,,,,,,,,,,,,,,,,,,,,,,,,,,,,,,,,,,,,,,,,,,,,,,,,,,,,,,,,,,,,,,,,,,,,,,,,,,,,,,,,,,,,,,,,,,,,,,,,,,,,,,,,,,,,,,,
,,65ab079fde17d72bca5e774b,2024-02-21_21h25.04.495,kallum_motion_pilot,2023.2.2,Win32,30.12048193,65ab079fde17d72bca5e774b,65d6bb0e977760de756971f7,65d6be35d49342c44be90ab7,0.0765,0.0765,1,14,176,41,1,onethree,,,,,,,,,,,,,,,,,,,,,,,,,,,,,,,,,,,,,,,,,,,,,,,,,,,,,,,,,,,,,,,,,,,,,,,,,,,,,,,,,,,,,,,,,,,,,,,,,,,,,,,,,,,,,,,,,,,,,,,,,,,,,,,,,,,,,,,,,
,,65ab079fde17d72bca5e774b,2024-02-21_21h25.04.495,kallum_motion_pilot,2023.2.2,Win32,30.12048193,65ab079fde17d72bca5e774b,65d6bb0e977760de756971f7,65d6be35d49342c44be90ab7,0.0766,0.0767,1,15,177,31,1,fourthree,,,,,,,,,,,,,,,,,,,,,,,,,,,,,,,,,,,,,,,,,,,,,,,,,,,,,,,,,,,,,,,,,,,,,,,,,,,,,,,,,,,,,,,,,,,,,,,,,,,,,,,,,,,,,,,,,,,,,,,,,,,,,,,,,,,,,,,,,
,,65ab079fde17d72bca5e774b,2024-02-21_21h25.04.495,kallum_motion_pilot,2023.2.2,Win32,30.12048193,65ab079fde17d72bca5e774b,65d6bb0e977760de756971f7,65d6be35d49342c44be90ab7,0.0769,0.077,1,16,178,17,1,onethree,,,,,,,,,,,,,,,,,,,,,,,,,,,,,,,,,,,,,,,,,,,,,,,,,,,,,,,,,,,,,,,,,,,,,,,,,,,,,,,,,,,,,,,,,,,,,,,,,,,,,,,,,,,,,,,,,,,,,,,,,,,,,,,,,,,,,,,,,
,,65ab079fde17d72bca5e774b,2024-02-21_21h25.04.495,kallum_motion_pilot,2023.2.2,Win32,30.12048193,65ab079fde17d72bca5e774b,65d6bb0e977760de756971f7,65d6be35d49342c44be90ab7,0.0771,0.0771,1,17,179,64,1,onetwo,,,,,,,,,,,,,,,,,,,,,,,,,,,,,,,,,,,,,,,,,,,,,,,,,,,,,,,,,,,,,,,,,,,,,,,,,,,,,,,,,,,,,,,,,,,,,,,,,,,,,,,,,,,,,,,,,,,,,,,,,,,,,,,,,,,,,,,,,
,,65ab079fde17d72bca5e774b,2024-02-21_21h25.04.495,kallum_motion_pilot,2023.2.2,Win32,30.12048193,65ab079fde17d72bca5e774b,65d6bb0e977760de756971f7,65d6be35d49342c44be90ab7,0.0772,0.0773,1,18,180,50,1,twoone,,,,,,,,,,,,,,,,,,,,,,,,,,,,,,,,,,,,,,,,,,,,,,,,,,,,,,,,,,,,,,,,,,,,,,,,,,,,,,,,,,,,,,,,,,,,,,,,,,,,,,,,,,,,,,,,,,,,,,,,,,,,,,,,,,,,,,,,,
,,65ab079fde17d72bca5e774b,2024-02-21_21h25.04.495,kallum_motion_pilot,2023.2.2,Win32,30.12048193,65ab079fde17d72bca5e774b,65d6bb0e977760de756971f7,65d6be35d49342c44be90ab7,0.0775,0.0776,1,19,181,59,1,twofour,,,,,,,,,,,,,,,,,,,,,,,,,,,,,,,,,,,,,,,,,,,,,,,,,,,,,,,,,,,,,,,,,,,,,,,,,,,,,,,,,,,,,,,,,,,,,,,,,,,,,,,,,,,,,,,,,,,,,,,,,,,,,,,,,,,,,,,,,
,,65ab079fde17d72bca5e774b,2024-02-21_21h25.04.495,kallum_motion_pilot,2023.2.2,Win32,30.12048193,65ab079fde17d72bca5e774b,65d6bb0e977760de756971f7,65d6be35d49342c44be90ab7,0.0777,0.0778,1,20,182,116,1,sevenfive,,,,,,,,,,,,,,,,,,,,,,,,,,,,,,,,,,,,,,,,,,,,,,,,,,,,,,,,,,,,,,,,,,,,,,,,,,,,,,,,,,,,,,,,,,,,,,,,,,,,,,,,,,,,,,,,,,,,,,,,,,,,,,,,,,,,,,,,,
,,65ab079fde17d72bca5e774b,2024-02-21_21h25.04.495,kallum_motion_pilot,2023.2.2,Win32,30.12048193,65ab079fde17d72bca5e774b,65d6bb0e977760de756971f7,65d6be35d49342c44be90ab7,0.0779,0.078,1,21,183,146,1,sixfive,,,,,,,,,,,,,,,,,,,,,,,,,,,,,,,,,,,,,,,,,,,,,,,,,,,,,,,,,,,,,,,,,,,,,,,,,,,,,,,,,,,,,,,,,,,,,,,,,,,,,,,,,,,,,,,,,,,,,,,,,,,,,,,,,,,,,,,,,
,,65ab079fde17d72bca5e774b,2024-02-21_21h25.04.495,kallum_motion_pilot,2023.2.2,Win32,30.12048193,65ab079fde17d72bca5e774b,65d6bb0e977760de756971f7,65d6be35d49342c44be90ab7,0.0782,0.0783,1,22,184,86,1,eightsix,,,,,,,,,,,,,,,,,,,,,,,,,,,,,,,,,,,,,,,,,,,,,,,,,,,,,,,,,,,,,,,,,,,,,,,,,,,,,,,,,,,,,,,,,,,,,,,,,,,,,,,,,,,,,,,,,,,,,,,,,,,,,,,,,,,,,,,,,
,,65ab079fde17d72bca5e774b,2024-02-21_21h25.04.495,kallum_motion_pilot,2023.2.2,Win32,30.12048193,65ab079fde17d72bca5e774b,65d6bb0e977760de756971f7,65d6be35d49342c44be90ab7,0.0785,0.0786,1,23,185,51,1,twofour,,,,,,,,,,,,,,,,,,,,,,,,,,,,,,,,,,,,,,,,,,,,,,,,,,,,,,,,,,,,,,,,,,,,,,,,,,,,,,,,,,,,,,,,,,,,,,,,,,,,,,,,,,,,,,,,,,,,,,,,,,,,,,,,,,,,,,,,,
,,65ab079fde17d72bca5e774b,2024-02-21_21h25.04.495,kallum_motion_pilot,2023.2.2,Win32,30.12048193,65ab079fde17d72bca5e774b,65d6bb0e977760de756971f7,65d6be35d49342c44be90ab7,0.0788,0.0789,1,24,186,117,1,seveneight,,,,,,,,,,,,,,,,,,,,,,,,,,,,,,,,,,,,,,,,,,,,,,,,,,,,,,,,,,,,,,,,,,,,,,,,,,,,,,,,,,,,,,,,,,,,,,,,,,,,,,,,,,,,,,,,,,,,,,,,,,,,,,,,,,,,,,,,,
,,65ab079fde17d72bca5e774b,2024-02-21_21h25.04.495,kallum_motion_pilot,2023.2.2,Win32,30.12048193,65ab079fde17d72bca5e774b,65d6bb0e977760de756971f7,65d6be35d49342c44be90ab7,0.0792,0.0793,1,25,187,155,1,sixeight,,,,,,,,,,,,,,,,,,,,,,,,,,,,,,,,,,,,,,,,,,,,,,,,,,,,,,,,,,,,,,,,,,,,,,,,,,,,,,,,,,,,,,,,,,,,,,,,,,,,,,,,,,,,,,,,,,,,,,,,,,,,,,,,,,,,,,,,,
,,65ab079fde17d72bca5e774b,2024-02-21_21h25.04.495,kallum_motion_pilot,2023.2.2,Win32,30.12048193,65ab079fde17d72bca5e774b,65d6bb0e977760de756971f7,65d6be35d49342c44be90ab7,0.0795,0.0796,1,26,188,103,1,eightseven,,,,,,,,,,,,,,,,,,,,,,,,,,,,,,,,,,,,,,,,,,,,,,,,,,,,,,,,,,,,,,,,,,,,,,,,,,,,,,,,,,,,,,,,,,,,,,,,,,,,,,,,,,,,,,,,,,,,,,,,,,,,,,,,,,,,,,,,,
,,65ab079fde17d72bca5e774b,2024-02-21_21h25.04.495,kallum_motion_pilot,2023.2.2,Win32,30.12048193,65ab079fde17d72bca5e774b,65d6bb0e977760de756971f7,65d6be35d49342c44be90ab7,0.0797,0.0798,1,27,189,3,1,twofour,,,,,,,,,,,,,,,,,,,,,,,,,,,,,,,,,,,,,,,,,,,,,,,,,,,,,,,,,,,,,,,,,,,,,,,,,,,,,,,,,,,,,,,,,,,,,,,,,,,,,,,,,,,,,,,,,,,,,,,,,,,,,,,,,,,,,,,,,
,,65ab079fde17d72bca5e774b,2024-02-21_21h25.04.495,kallum_motion_pilot,2023.2.2,Win32,30.12048193,65ab079fde17d72bca5e774b,65d6bb0e977760de756971f7,65d6be35d49342c44be90ab7,0.0799,0.0799,1,28,190,126,1,eightsix,,,,,,,,,,,,,,,,,,,,,,,,,,,,,,,,,,,,,,,,,,,,,,,,,,,,,,,,,,,,,,,,,,,,,,,,,,,,,,,,,,,,,,,,,,,,,,,,,,,,,,,,,,,,,,,,,,,,,,,,,,,,,,,,,,,,,,,,,
,,65ab079fde17d72bca5e774b,2024-02-21_21h25.04.495,kallum_motion_pilot,2023.2.2,Win32,30.12048193,65ab079fde17d72bca5e774b,65d6bb0e977760de756971f7,65d6be35d49342c44be90ab7,0.0801,0.0802,1,29,191,144,1,fivesix,,,,,,,,,,,,,,,,,,,,,,,,,,,,,,,,,,,,,,,,,,,,,,,,,,,,,,,,,,,,,,,,,,,,,,,,,,,,,,,,,,,,,,,,,,,,,,,,,,,,,,,,,,,,,,,,,,,,,,,,,,,,,,,,,,,,,,,,,
,,65ab079fde17d72bca5e774b,2024-02-21_21h25.04.495,kallum_motion_pilot,2023.2.2,Win32,30.12048193,65ab079fde17d72bca5e774b,65d6bb0e977760de756971f7,65d6be35d49342c44be90ab7,0.0803,0.0803,1,30,192,61,1,threefour,,,,,,,,,,,,,,,,,,,,,,,,,,,,,,,,,,,,,,,,,,,,,,,,,,,,,,,,,,,,,,,,,,,,,,,,,,,,,,,,,,,,,,,,,,,,,,,,,,,,,,,,,,,,,,,,,,,,,,,,,,,,,,,,,,,,,,,,,
,,65ab079fde17d72bca5e774b,2024-02-21_21h25.04.495,kallum_motion_pilot,2023.2.2,Win32,30.12048193,65ab079fde17d72bca5e774b,65d6bb0e977760de756971f7,65d6be35d49342c44be90ab7,0.0805,0.0806,1,31,193,43,1,twofour,,,,,,,,,,,,,,,,,,,,,,,,,,,,,,,,,,,,,,,,,,,,,,,,,,,,,,,,,,,,,,,,,,,,,,,,,,,,,,,,,,,,,,,,,,,,,,,,,,,,,,,,,,,,,,,,,,,,,,,,,,,,,,,,,,,,,,,,,
,,65ab079fde17d72bca5e774b,2024-02-21_21h25.04.495,kallum_motion_pilot,2023.2.2,Win32,30.12048193,65ab079fde17d72bca5e774b,65d6bb0e977760de756971f7,65d6be35d49342c44be90ab7,0.0807,0.0808,1,32,194,25,1,onethree,,,,,,,,,,,,,,,,,,,,,,,,,,,,,,,,,,,,,,,,,,,,,,,,,,,,,,,,,,,,,,,,,,,,,,,,,,,,,,,,,,,,,,,,,,,,,,,,,,,,,,,,,,,,,,,,,,,,,,,,,,,,,,,,,,,,,,,,,
,,65ab079fde17d72bca5e774b,2024-02-21_21h25.04.495,kallum_motion_pilot,2023.2.2,Win32,30.12048193,65ab079fde17d72bca5e774b,65d6bb0e977760de756971f7,65d6be35d49342c44be90ab7,0.081,0.0811,1,33,195,81,1,fiveseven,,,,,,,,,,,,,,,,,,,,,,,,,,,,,,,,,,,,,,,,,,,,,,,,,,,,,,,,,,,,,,,,,,,,,,,,,,,,,,,,,,,,,,,,,,,,,,,,,,,,,,,,,,,,,,,,,,,,,,,,,,,,,,,,,,,,,,,,,
,,65ab079fde17d72bca5e774b,2024-02-21_21h25.04.495,kallum_motion_pilot,2023.2.2,Win32,30.12048193,65ab079fde17d72bca5e774b,65d6bb0e977760de756971f7,65d6be35d49342c44be90ab7,0.0813,0.0814,1,34,196,48,1,onetwo,,,,,,,,,,,,,,,,,,,,,,,,,,,,,,,,,,,,,,,,,,,,,,,,,,,,,,,,,,,,,,,,,,,,,,,,,,,,,,,,,,,,,,,,,,,,,,,,,,,,,,,,,,,,,,,,,,,,,,,,,,,,,,,,,,,,,,,,,
,,65ab079fde17d72bca5e774b,2024-02-21_21h25.04.495,kallum_motion_pilot,2023.2.2,Win32,30.12048193,65ab079fde17d72bca5e774b,65d6bb0e977760de756971f7,65d6be35d49342c44be90ab7,0.0816,0.0816,1,35,197,71,1,fourthree,,,,,,,,,,,,,,,,,,,,,,,,,,,,,,,,,,,,,,,,,,,,,,,,,,,,,,,,,,,,,,,,,,,,,,,,,,,,,,,,,,,,,,,,,,,,,,,,,,,,,,,,,,,,,,,,,,,,,,,,,,,,,,,,,,,,,,,,,
,,65ab079fde17d72bca5e774b,2024-02-21_21h25.04.495,kallum_motion_pilot,2023.2.2,Win32,30.12048193,65ab079fde17d72bca5e774b,65d6bb0e977760de756971f7,65d6be35d49342c44be90ab7,0.0818,0.0818,1,36,198,33,1,onethree,,,,,,,,,,,,,,,,,,,,,,,,,,,,,,,,,,,,,,,,,,,,,,,,,,,,,,,,,,,,,,,,,,,,,,,,,,,,,,,,,,,,,,,,,,,,,,,,,,,,,,,,,,,,,,,,,,,,,,,,,,,,,,,,,,,,,,,,,
,,65ab079fde17d72bca5e774b,2024-02-21_21h25.04.495,kallum_motion_pilot,2023.2.2,Win32,30.12048193,65ab079fde17d72bca5e774b,65d6bb0e977760de756971f7,65d6be35d49342c44be90ab7,0.0819,0.0821,1,37,199,60,1,threeone,,,,,,,,,,,,,,,,,,,,,,,,,,,,,,,,,,,,,,,,,,,,,,,,,,,,,,,,,,,,,,,,,,,,,,,,,,,,,,,,,,,,,,,,,,,,,,,,,,,,,,,,,,,,,,,,,,,,,,,,,,,,,,,,,,,,,,,,,
,,65ab079fde17d72bca5e774b,2024-02-21_21h25.04.495,kallum_motion_pilot,2023.2.2,Win32,30.12048193,65ab079fde17d72bca5e774b,65d6bb0e977760de756971f7,65d6be35d49342c44be90ab7,0.0822,0.0822,1,38,200,85,1,seveneight,,,,,,,,,,,,,,,,,,,,,,,,,,,,,,,,,,,,,,,,,,,,,,,,,,,,,,,,,,,,,,,,,,,,,,,,,,,,,,,,,,,,,,,,,,,,,,,,,,,,,,,,,,,,,,,,,,,,,,,,,,,,,,,,,,,,,,,,,
,,65ab079fde17d72bca5e774b,2024-02-21_21h25.04.495,kallum_motion_pilot,2023.2.2,Win32,30.12048193,65ab079fde17d72bca5e774b,65d6bb0e977760de756971f7,65d6be35d49342c44be90ab7,0.0823,0.0824,1,39,201,118,1,eightsix,,,,,,,,,,,,,,,,,,,,,,,,,,,,,,,,,,,,,,,,,,,,,,,,,,,,,,,,,,,,,,,,,,,,,,,,,,,,,,,,,,,,,,,,,,,,,,,,,,,,,,,,,,,,,,,,,,,,,,,,,,,,,,,,,,,,,,,,,
,,65ab079fde17d72bca5e774b,2024-02-21_21h25.04.495,kallum_motion_pilot,2023.2.2,Win32,30.12048193,65ab079fde17d72bca5e774b,65d6bb0e977760de756971f7,65d6be35d49342c44be90ab7,0.0826,0.0826,1,40,202,135,1,eightseven,,,,,,,,,,,,,,,,,,,,,,,,,,,,,,,,,,,,,,,,,,,,,,,,,,,,,,,,,,,,,,,,,,,,,,,,,,,,,,,,,,,,,,,,,,,,,,,,,,,,,,,,,,,,,,,,,,,,,,,,,,,,,,,,,,,,,,,,,
,,65ab079fde17d72bca5e774b,2024-02-21_21h25.04.495,kallum_motion_pilot,2023.2.2,Win32,30.12048193,65ab079fde17d72bca5e774b,65d6bb0e977760de756971f7,65d6be35d49342c44be90ab7,0.0828,0.0828,1,41,203,79,1,eightseven,,,,,,,,,,,,,,,,,,,,,,,,,,,,,,,,,,,,,,,,,,,,,,,,,,,,,,,,,,,,,,,,,,,,,,,,,,,,,,,,,,,,,,,,,,,,,,,,,,,,,,,,,,,,,,,,,,,,,,,,,,,,,,,,,,,,,,,,,
,,65ab079fde17d72bca5e774b,2024-02-21_21h25.04.495,kallum_motion_pilot,2023.2.2,Win32,30.12048193,65ab079fde17d72bca5e774b,65d6bb0e977760de756971f7,65d6be35d49342c44be90ab7,0.083,0.0831,1,42,204,73,1,onethree,,,,,,,,,,,,,,,,,,,,,,,,,,,,,,,,,,,,,,,,,,,,,,,,,,,,,,,,,,,,,,,,,,,,,,,,,,,,,,,,,,,,,,,,,,,,,,,,,,,,,,,,,,,,,,,,,,,,,,,,,,,,,,,,,,,,,,,,,
,,65ab079fde17d72bca5e774b,2024-02-21_21h25.04.495,kallum_motion_pilot,2023.2.2,Win32,30.12048193,65ab079fde17d72bca5e774b,65d6bb0e977760de756971f7,65d6be35d49342c44be90ab7,0.0832,0.0833,1,43,205,159,1,eightseven,,,,,,,,,,,,,,,,,,,,,,,,,,,,,,,,,,,,,,,,,,,,,,,,,,,,,,,,,,,,,,,,,,,,,,,,,,,,,,,,,,,,,,,,,,,,,,,,,,,,,,,,,,,,,,,,,,,,,,,,,,,,,,,,,,,,,,,,,
,,65ab079fde17d72bca5e774b,2024-02-21_21h25.04.495,kallum_motion_pilot,2023.2.2,Win32,30.12048193,65ab079fde17d72bca5e774b,65d6bb0e977760de756971f7,65d6be35d49342c44be90ab7,0.0833,0.0835,1,44,206,42,1,twoone,,,,,,,,,,,,,,,,,,,,,,,,,,,,,,,,,,,,,,,,,,,,,,,,,,,,,,,,,,,,,,,,,,,,,,,,,,,,,,,,,,,,,,,,,,,,,,,,,,,,,,,,,,,,,,,,,,,,,,,,,,,,,,,,,,,,,,,,,
,,65ab079fde17d72bca5e774b,2024-02-21_21h25.04.495,kallum_motion_pilot,2023.2.2,Win32,30.12048193,65ab079fde17d72bca5e774b,65d6bb0e977760de756971f7,65d6be35d49342c44be90ab7,0.0836,0.0836,1,45,207,94,1,eightsix,,,,,,,,,,,,,,,,,,,,,,,,,,,,,,,,,,,,,,,,,,,,,,,,,,,,,,,,,,,,,,,,,,,,,,,,,,,,,,,,,,,,,,,,,,,,,,,,,,,,,,,,,,,,,,,,,,,,,,,,,,,,,,,,,,,,,,,,,
,,65ab079fde17d72bca5e774b,2024-02-21_21h25.04.495,kallum_motion_pilot,2023.2.2,Win32,30.12048193,65ab079fde17d72bca5e774b,65d6bb0e977760de756971f7,65d6be35d49342c44be90ab7,0.0839,0.084,1,46,208,111,1,eightseven,,,,,,,,,,,,,,,,,,,,,,,,,,,,,,,,,,,,,,,,,,,,,,,,,,,,,,,,,,,,,,,,,,,,,,,,,,,,,,,,,,,,,,,,,,,,,,,,,,,,,,,,,,,,,,,,,,,,,,,,,,,,,,,,,,,,,,,,,
,,65ab079fde17d72bca5e774b,2024-02-21_21h25.04.495,kallum_motion_pilot,2023.2.2,Win32,30.12048193,65ab079fde17d72bca5e774b,65d6bb0e977760de756971f7,65d6be35d49342c44be90ab7,0.0841,0.0843,1,47,209,96,1,fivesix,,,,,,,,,,,,,,,,,,,,,,,,,,,,,,,,,,,,,,,,,,,,,,,,,,,,,,,,,,,,,,,,,,,,,,,,,,,,,,,,,,,,,,,,,,,,,,,,,,,,,,,,,,,,,,,,,,,,,,,,,,,,,,,,,,,,,,,,,
,,65ab079fde17d72bca5e774b,2024-02-21_21h25.04.495,kallum_motion_pilot,2023.2.2,Win32,30.12048193,65ab079fde17d72bca5e774b,65d6bb0e977760de756971f7,65d6be35d49342c44be90ab7,0.0844,0.0846,1,48,210,156,1,sevenfive,,,,,,,,,,,,,,,,,,,,,,,,,,,,,,,,,,,,,,,,,,,,,,,,,,,,,,,,,,,,,,,,,,,,,,,,,,,,,,,,,,,,,,,,,,,,,,,,,,,,,,,,,,,,,,,,,,,,,,,,,,,,,,,,,,,,,,,,,
,,65ab079fde17d72bca5e774b,2024-02-21_21h25.04.495,kallum_motion_pilot,2023.2.2,Win32,30.12048193,65ab079fde17d72bca5e774b,65d6bb0e977760de756971f7,65d6be35d49342c44be90ab7,0.0848,0.085,1,49,211,113,1,fiveseven,,,,,,,,,,,,,,,,,,,,,,,,,,,,,,,,,,,,,,,,,,,,,,,,,,,,,,,,,,,,,,,,,,,,,,,,,,,,,,,,,,,,,,,,,,,,,,,,,,,,,,,,,,,,,,,,,,,,,,,,,,,,,,,,,,,,,,,,,
,,65ab079fde17d72bca5e774b,2024-02-21_21h25.04.495,kallum_motion_pilot,2023.2.2,Win32,30.12048193,65ab079fde17d72bca5e774b,65d6bb0e977760de756971f7,65d6be35d49342c44be90ab7,0.0851,0.0852,1,50,212,137,1,fiveseven,,,,,,,,,,,,,,,,,,,,,,,,,,,,,,,,,,,,,,,,,,,,,,,,,,,,,,,,,,,,,,,,,,,,,,,,,,,,,,,,,,,,,,,,,,,,,,,,,,,,,,,,,,,,,,,,,,,,,,,,,,,,,,,,,,,,,,,,,
,,65ab079fde17d72bca5e774b,2024-02-21_21h25.04.495,kallum_motion_pilot,2023.2.2,Win32,30.12048193,65ab079fde17d72bca5e774b,65d6bb0e977760de756971f7,65d6be35d49342c44be90ab7,0.0854,0.0856,1,51,213,114,1,sixfive,,,,,,,,,,,,,,,,,,,,,,,,,,,,,,,,,,,,,,,,,,,,,,,,,,,,,,,,,,,,,,,,,,,,,,,,,,,,,,,,,,,,,,,,,,,,,,,,,,,,,,,,,,,,,,,,,,,,,,,,,,,,,,,,,,,,,,,,,
,,65ab079fde17d72bca5e774b,2024-02-21_21h25.04.495,kallum_motion_pilot,2023.2.2,Win32,30.12048193,65ab079fde17d72bca5e774b,65d6bb0e977760de756971f7,65d6be35d49342c44be90ab7,0.0858,0.086,1,52,214,84,1,sevenfive,,,,,,,,,,,,,,,,,,,,,,,,,,,,,,,,,,,,,,,,,,,,,,,,,,,,,,,,,,,,,,,,,,,,,,,,,,,,,,,,,,,,,,,,,,,,,,,,,,,,,,,,,,,,,,,,,,,,,,,,,,,,,,,,,,,,,,,,,
,,65ab079fde17d72bca5e774b,2024-02-21_21h25.04.495,kallum_motion_pilot,2023.2.2,Win32,30.12048193,65ab079fde17d72bca5e774b,65d6bb0e977760de756971f7,65d6be35d49342c44be90ab7,0.0863,0.0865,1,53,215,46,1,fourtwo,,,,,,,,,,,,,,,,,,,,,,,,,,,,,,,,,,,,,,,,,,,,,,,,,,,,,,,,,,,,,,,,,,,,,,,,,,,,,,,,,,,,,,,,,,,,,,,,,,,,,,,,,,,,,,,,,,,,,,,,,,,,,,,,,,,,,,,,,
,,65ab079fde17d72bca5e774b,2024-02-21_21h25.04.495,kallum_motion_pilot,2023.2.2,Win32,30.12048193,65ab079fde17d72bca5e774b,65d6bb0e977760de756971f7,65d6be35d49342c44be90ab7,0.0867,0.0868,1,54,216,5,1,threefour,,,,,,,,,,,,,,,,,,,,,,,,,,,,,,,,,,,,,,,,,,,,,,,,,,,,,,,,,,,,,,,,,,,,,,,,,,,,,,,,,,,,,,,,,,,,,,,,,,,,,,,,,,,,,,,,,,,,,,,,,,,,,,,,,,,,,,,,,
,,65ab079fde17d72bca5e774b,2024-02-21_21h25.04.495,kallum_motion_pilot,2023.2.2,Win32,30.12048193,65ab079fde17d72bca5e774b,65d6bb0e977760de756971f7,65d6be35d49342c44be90ab7,0.0869,0.087,1,55,217,53,1,threefour,,,,,,,,,,,,,,,,,,,,,,,,,,,,,,,,,,,,,,,,,,,,,,,,,,,,,,,,,,,,,,,,,,,,,,,,,,,,,,,,,,,,,,,,,,,,,,,,,,,,,,,,,,,,,,,,,,,,,,,,,,,,,,,,,,,,,,,,,
,,65ab079fde17d72bca5e774b,2024-02-21_21h25.04.495,kallum_motion_pilot,2023.2.2,Win32,30.12048193,65ab079fde17d72bca5e774b,65d6bb0e977760de756971f7,65d6be35d49342c44be90ab7,0.0872,0.0872,1,56,218,124,1,sevenfive,,,,,,,,,,,,,,,,,,,,,,,,,,,,,,,,,,,,,,,,,,,,,,,,,,,,,,,,,,,,,,,,,,,,,,,,,,,,,,,,,,,,,,,,,,,,,,,,,,,,,,,,,,,,,,,,,,,,,,,,,,,,,,,,,,,,,,,,,
,,65ab079fde17d72bca5e774b,2024-02-21_21h25.04.495,kallum_motion_pilot,2023.2.2,Win32,30.12048193,65ab079fde17d72bca5e774b,65d6bb0e977760de756971f7,65d6be35d49342c44be90ab7,0.0873,0.0875,1,57,219,38,1,fourtwo,,,,,,,,,,,,,,,,,,,,,,,,,,,,,,,,,,,,,,,,,,,,,,,,,,,,,,,,,,,,,,,,,,,,,,,,,,,,,,,,,,,,,,,,,,,,,,,,,,,,,,,,,,,,,,,,,,,,,,,,,,,,,,,,,,,,,,,,,
,,65ab079fde17d72bca5e774b,2024-02-21_21h25.04.495,kallum_motion_pilot,2023.2.2,Win32,30.12048193,65ab079fde17d72bca5e774b,65d6bb0e977760de756971f7,65d6be35d49342c44be90ab7,0.0876,0.0876,1,58,220,83,1,sixeight,,,,,,,,,,,,,,,,,,,,,,,,,,,,,,,,,,,,,,,,,,,,,,,,,,,,,,,,,,,,,,,,,,,,,,,,,,,,,,,,,,,,,,,,,,,,,,,,,,,,,,,,,,,,,,,,,,,,,,,,,,,,,,,,,,,,,,,,,
,,65ab079fde17d72bca5e774b,2024-02-21_21h25.04.495,kallum_motion_pilot,2023.2.2,Win32,30.12048193,65ab079fde17d72bca5e774b,65d6bb0e977760de756971f7,65d6be35d49342c44be90ab7,0.0877,0.0879,1,59,221,88,1,fivesix,,,,,,,,,,,,,,,,,,,,,,,,,,,,,,,,,,,,,,,,,,,,,,,,,,,,,,,,,,,,,,,,,,,,,,,,,,,,,,,,,,,,,,,,,,,,,,,,,,,,,,,,,,,,,,,,,,,,,,,,,,,,,,,,,,,,,,,,,
,,65ab079fde17d72bca5e774b,2024-02-21_21h25.04.495,kallum_motion_pilot,2023.2.2,Win32,30.12048193,65ab079fde17d72bca5e774b,65d6bb0e977760de756971f7,65d6be35d49342c44be90ab7,0.088,0.0881,1,60,222,22,1,fourtwo,,,,,,,,,,,,,,,,,,,,,,,,,,,,,,,,,,,,,,,,,,,,,,,,,,,,,,,,,,,,,,,,,,,,,,,,,,,,,,,,,,,,,,,,,,,,,,,,,,,,,,,,,,,,,,,,,,,,,,,,,,,,,,,,,,,,,,,,,
,,65ab079fde17d72bca5e774b,2024-02-21_21h25.04.495,kallum_motion_pilot,2023.2.2,Win32,30.12048193,65ab079fde17d72bca5e774b,65d6bb0e977760de756971f7,65d6be35d49342c44be90ab7,0.0882,0.0883,1,61,223,16,1,onetwo,,,,,,,,,,,,,,,,,,,,,,,,,,,,,,,,,,,,,,,,,,,,,,,,,,,,,,,,,,,,,,,,,,,,,,,,,,,,,,,,,,,,,,,,,,,,,,,,,,,,,,,,,,,,,,,,,,,,,,,,,,,,,,,,,,,,,,,,,
,,65ab079fde17d72bca5e774b,2024-02-21_21h25.04.495,kallum_motion_pilot,2023.2.2,Win32,30.12048193,65ab079fde17d72bca5e774b,65d6bb0e977760de756971f7,65d6be35d49342c44be90ab7,0.0884,0.0885,1,62,224,160,1,fivesix,,,,,,,,,,,,,,,,,,,,,,,,,,,,,,,,,,,,,,,,,,,,,,,,,,,,,,,,,,,,,,,,,,,,,,,,,,,,,,,,,,,,,,,,,,,,,,,,,,,,,,,,,,,,,,,,,,,,,,,,,,,,,,,,,,,,,,,,,
,,65ab079fde17d72bca5e774b,2024-02-21_21h25.04.495,kallum_motion_pilot,2023.2.2,Win32,30.12048193,65ab079fde17d72bca5e774b,65d6bb0e977760de756971f7,65d6be35d49342c44be90ab7,0.0887,0.0887,1,63,225,95,1,eightseven,,,,,,,,,,,,,,,,,,,,,,,,,,,,,,,,,,,,,,,,,,,,,,,,,,,,,,,,,,,,,,,,,,,,,,,,,,,,,,,,,,,,,,,,,,,,,,,,,,,,,,,,,,,,,,,,,,,,,,,,,,,,,,,,,,,,,,,,,
,,65ab079fde17d72bca5e774b,2024-02-21_21h25.04.495,kallum_motion_pilot,2023.2.2,Win32,30.12048193,65ab079fde17d72bca5e774b,65d6bb0e977760de756971f7,65d6be35d49342c44be90ab7,0.0888,0.0889,1,64,226,23,1,fourthree,,,,,,,,,,,,,,,,,,,,,,,,,,,,,,,,,,,,,,,,,,,,,,,,,,,,,,,,,,,,,,,,,,,,,,,,,,,,,,,,,,,,,,,,,,,,,,,,,,,,,,,,,,,,,,,,,,,,,,,,,,,,,,,,,,,,,,,,,
,,65ab079fde17d72bca5e774b,2024-02-21_21h25.04.495,kallum_motion_pilot,2023.2.2,Win32,30.12048193,65ab079fde17d72bca5e774b,65d6bb0e977760de756971f7,65d6be35d49342c44be90ab7,0.0891,0.0892,1,65,227,0,1,onetwo,,,,,,,,,,,,,,,,,,,,,,,,,,,,,,,,,,,,,,,,,,,,,,,,,,,,,,,,,,,,,,,,,,,,,,,,,,,,,,,,,,,,,,,,,,,,,,,,,,,,,,,,,,,,,,,,,,,,,,,,,,,,,,,,,,,,,,,,,
,,65ab079fde17d72bca5e774b,2024-02-21_21h25.04.495,kallum_motion_pilot,2023.2.2,Win32,30.12048193,65ab079fde17d72bca5e774b,65d6bb0e977760de756971f7,65d6be35d49342c44be90ab7,0.0893,0.0895,1,66,228,1,1,onethree,,,,,,,,,,,,,,,,,,,,,,,,,,,,,,,,,,,,,,,,,,,,,,,,,,,,,,,,,,,,,,,,,,,,,,,,,,,,,,,,,,,,,,,,,,,,,,,,,,,,,,,,,,,,,,,,,,,,,,,,,,,,,,,,,,,,,,,,,
,,65ab079fde17d72bca5e774b,2024-02-21_21h25.04.495,kallum_motion_pilot,2023.2.2,Win32,30.12048193,65ab079fde17d72bca5e774b,65d6bb0e977760de756971f7,65d6be35d49342c44be90ab7,0.0896,0.0896,1,67,229,158,1,eightsix,,,,,,,,,,,,,,,,,,,,,,,,,,,,,,,,,,,,,,,,,,,,,,,,,,,,,,,,,,,,,,,,,,,,,,,,,,,,,,,,,,,,,,,,,,,,,,,,,,,,,,,,,,,,,,,,,,,,,,,,,,,,,,,,,,,,,,,,,
,,65ab079fde17d72bca5e774b,2024-02-21_21h25.04.495,kallum_motion_pilot,2023.2.2,Win32,30.12048193,65ab079fde17d72bca5e774b,65d6bb0e977760de756971f7,65d6be35d49342c44be90ab7,0.0897,0.0899,1,68,230,161,1,fiveseven,,,,,,,,,,,,,,,,,,,,,,,,,,,,,,,,,,,,,,,,,,,,,,,,,,,,,,,,,,,,,,,,,,,,,,,,,,,,,,,,,,,,,,,,,,,,,,,,,,,,,,,,,,,,,,,,,,,,,,,,,,,,,,,,,,,,,,,,,
,,65ab079fde17d72bca5e774b,2024-02-21_21h25.04.495,kallum_motion_pilot,2023.2.2,Win32,30.12048193,65ab079fde17d72bca5e774b,65d6bb0e977760de756971f7,65d6be35d49342c44be90ab7,0.0899,0.0901,1,69,231,101,1,seveneight,,,,,,,,,,,,,,,,,,,,,,,,,,,,,,,,,,,,,,,,,,,,,,,,,,,,,,,,,,,,,,,,,,,,,,,,,,,,,,,,,,,,,,,,,,,,,,,,,,,,,,,,,,,,,,,,,,,,,,,,,,,,,,,,,,,,,,,,,
,,65ab079fde17d72bca5e774b,2024-02-21_21h25.04.495,kallum_motion_pilot,2023.2.2,Win32,30.12048193,65ab079fde17d72bca5e774b,65d6bb0e977760de756971f7,65d6be35d49342c44be90ab7,0.0901,0.0903,1,70,232,142,1,eightsix,,,,,,,,,,,,,,,,,,,,,,,,,,,,,,,,,,,,,,,,,,,,,,,,,,,,,,,,,,,,,,,,,,,,,,,,,,,,,,,,,,,,,,,,,,,,,,,,,,,,,,,,,,,,,,,,,,,,,,,,,,,,,,,,,,,,,,,,,
,,65ab079fde17d72bca5e774b,2024-02-21_21h25.04.495,kallum_motion_pilot,2023.2.2,Win32,30.12048193,65ab079fde17d72bca5e774b,65d6bb0e977760de756971f7,65d6be35d49342c44be90ab7,0.0904,0.0905,1,71,233,107,1,sixeight,,,,,,,,,,,,,,,,,,,,,,,,,,,,,,,,,,,,,,,,,,,,,,,,,,,,,,,,,,,,,,,,,,,,,,,,,,,,,,,,,,,,,,,,,,,,,,,,,,,,,,,,,,,,,,,,,,,,,,,,,,,,,,,,,,,,,,,,,
,,65ab079fde17d72bca5e774b,2024-02-21_21h25.04.495,kallum_motion_pilot,2023.2.2,Win32,30.12048193,65ab079fde17d72bca5e774b,65d6bb0e977760de756971f7,65d6be35d49342c44be90ab7,0.0906,0.0908,1,72,234,138,1,sixfive,,,,,,,,,,,,,,,,,,,,,,,,,,,,,,,,,,,,,,,,,,,,,,,,,,,,,,,,,,,,,,,,,,,,,,,,,,,,,,,,,,,,,,,,,,,,,,,,,,,,,,,,,,,,,,,,,,,,,,,,,,,,,,,,,,,,,,,,,
,,65ab079fde17d72bca5e774b,2024-02-21_21h25.04.495,kallum_motion_pilot,2023.2.2,Win32,30.12048193,65ab079fde17d72bca5e774b,65d6bb0e977760de756971f7,65d6be35d49342c44be90ab7,0.0908,0.0909,1,73,235,100,1,sevenfive,,,,,,,,,,,,,,,,,,,,,,,,,,,,,,,,,,,,,,,,,,,,,,,,,,,,,,,,,,,,,,,,,,,,,,,,,,,,,,,,,,,,,,,,,,,,,,,,,,,,,,,,,,,,,,,,,,,,,,,,,,,,,,,,,,,,,,,,,
,,65ab079fde17d72bca5e774b,2024-02-21_21h25.04.495,kallum_motion_pilot,2023.2.2,Win32,30.12048193,65ab079fde17d72bca5e774b,65d6bb0e977760de756971f7,65d6be35d49342c44be90ab7,0.091,0.0911,1,74,236,139,1,sixeight,,,,,,,,,,,,,,,,,,,,,,,,,,,,,,,,,,,,,,,,,,,,,,,,,,,,,,,,,,,,,,,,,,,,,,,,,,,,,,,,,,,,,,,,,,,,,,,,,,,,,,,,,,,,,,,,,,,,,,,,,,,,,,,,,,,,,,,,,
,,65ab079fde17d72bca5e774b,2024-02-21_21h25.04.495,kallum_motion_pilot,2023.2.2,Win32,30.12048193,65ab079fde17d72bca5e774b,65d6bb0e977760de756971f7,65d6be35d49342c44be90ab7,0.0912,0.0913,1,75,237,14,1,fourtwo,,,,,,,,,,,,,,,,,,,,,,,,,,,,,,,,,,,,,,,,,,,,,,,,,,,,,,,,,,,,,,,,,,,,,,,,,,,,,,,,,,,,,,,,,,,,,,,,,,,,,,,,,,,,,,,,,,,,,,,,,,,,,,,,,,,,,,,,,
,,65ab079fde17d72bca5e774b,2024-02-21_21h25.04.495,kallum_motion_pilot,2023.2.2,Win32,30.12048193,65ab079fde17d72bca5e774b,65d6bb0e977760de756971f7,65d6be35d49342c44be90ab7,0.0915,0.0915,1,76,238,123,1,sixeight,,,,,,,,,,,,,,,,,,,,,,,,,,,,,,,,,,,,,,,,,,,,,,,,,,,,,,,,,,,,,,,,,,,,,,,,,,,,,,,,,,,,,,,,,,,,,,,,,,,,,,,,,,,,,,,,,,,,,,,,,,,,,,,,,,,,,,,,,
,,65ab079fde17d72bca5e774b,2024-02-21_21h25.04.495,kallum_motion_pilot,2023.2.2,Win32,30.12048193,65ab079fde17d72bca5e774b,65d6bb0e977760de756971f7,65d6be35d49342c44be90ab7,0.0916,0.0917,1,77,239,157,1,seveneight,,,,,,,,,,,,,,,,,,,,,,,,,,,,,,,,,,,,,,,,,,,,,,,,,,,,,,,,,,,,,,,,,,,,,,,,,,,,,,,,,,,,,,,,,,,,,,,,,,,,,,,,,,,,,,,,,,,,,,,,,,,,,,,,,,,,,,,,,
,,65ab079fde17d72bca5e774b,2024-02-21_21h25.04.495,kallum_motion_pilot,2023.2.2,Win32,30.12048193,65ab079fde17d72bca5e774b,65d6bb0e977760de756971f7,65d6be35d49342c44be90ab7,0.0918,0.092,1,78,240,54,1,fourtwo,,,,,,,,,,,,,,,,,,,,,,,,,,,,,,,,,,,,,,,,,,,,,,,,,,,,,,,,,,,,,,,,,,,,,,,,,,,,,,,,,,,,,,,,,,,,,,,,,,,,,,,,,,,,,,,,,,,,,,,,,,,,,,,,,,,,,,,,,
,,65ab079fde17d72bca5e774b,2024-02-21_21h25.04.495,kallum_motion_pilot,2023.2.2,Win32,30.12048193,65ab079fde17d72bca5e774b,65d6bb0e977760de756971f7,65d6be35d49342c44be90ab7,0.0921,0.0922,1,79,241,98,1,sixfive,,,,,,,,,,,,,,,,,,,,,,,,,,,,,,,,,,,,,,,,,,,,,,,,,,,,,,,,,,,,,,,,,,,,,,,,,,,,,,,,,,,,,,,,,,,,,,,,,,,,,,,,,,,,,,,,,,,,,,,,,,,,,,,,,,,,,,,,,
,,65ab079fde17d72bca5e774b,2024-02-21_21h25.04.495,kallum_motion_pilot,2023.2.2,Win32,30.12048193,65ab079fde17d72bca5e774b,65d6bb0e977760de756971f7,65d6be35d49342c44be90ab7,0.0922,0.0923,1,80,242,108,1,sevenfive,,,,,,,,,,,,,,,,,,,,,,,,,,,,,,,,,,,,,,,,,,,,,,,,,,,,,,,,,,,,,,,,,,,,,,,,,,,,,,,,,,,,,,,,,,,,,,,,,,,,,,,,,,,,,,,,,,,,,,,,,,,,,,,,,,,,,,,,,
,,65ab079fde17d72bca5e774b,2024-02-21_21h25.04.495,kallum_motion_pilot,2023.2.2,Win32,30.12048193,65ab079fde17d72bca5e774b,65d6bb0e977760de756971f7,65d6be35d49342c44be90ab7,0.0924,0.0926,1,81,243,125,1,seveneight,,,,,,,,,,,,,,,,,,,,,,,,,,,,,,,,,,,,,,,,,,,,,,,,,,,,,,,,,,,,,,,,,,,,,,,,,,,,,,,,,,,,,,,,,,,,,,,,,,,,,,,,,,,,,,,,,,,,,,,,,,,,,,,,,,,,,,,,,
,,65ab079fde17d72bca5e774b,2024-02-21_21h25.04.495,kallum_motion_pilot,2023.2.2,Win32,30.12048193,65ab079fde17d72bca5e774b,65d6bb0e977760de756971f7,65d6be35d49342c44be90ab7,0.0927,0.0928,1,82,244,76,1,threeone,,,,,,,,,,,,,,,,,,,,,,,,,,,,,,,,,,,,,,,,,,,,,,,,,,,,,,,,,,,,,,,,,,,,,,,,,,,,,,,,,,,,,,,,,,,,,,,,,,,,,,,,,,,,,,,,,,,,,,,,,,,,,,,,,,,,,,,,,
,,65ab079fde17d72bca5e774b,2024-02-21_21h25.04.495,kallum_motion_pilot,2023.2.2,Win32,30.12048193,65ab079fde17d72bca5e774b,65d6bb0e977760de756971f7,65d6be35d49342c44be90ab7,0.0929,0.093,1,83,245,6,1,fourtwo,,,,,,,,,,,,,,,,,,,,,,,,,,,,,,,,,,,,,,,,,,,,,,,,,,,,,,,,,,,,,,,,,,,,,,,,,,,,,,,,,,,,,,,,,,,,,,,,,,,,,,,,,,,,,,,,,,,,,,,,,,,,,,,,,,,,,,,,,
,,65ab079fde17d72bca5e774b,2024-02-21_21h25.04.495,kallum_motion_pilot,2023.2.2,Win32,30.12048193,65ab079fde17d72bca5e774b,65d6bb0e977760de756971f7,65d6be35d49342c44be90ab7,0.0932,0.0933,1,84,246,80,1,fivesix,,,,,,,,,,,,,,,,,,,,,,,,,,,,,,,,,,,,,,,,,,,,,,,,,,,,,,,,,,,,,,,,,,,,,,,,,,,,,,,,,,,,,,,,,,,,,,,,,,,,,,,,,,,,,,,,,,,,,,,,,,,,,,,,,,,,,,,,,
,,65ab079fde17d72bca5e774b,2024-02-21_21h25.04.495,kallum_motion_pilot,2023.2.2,Win32,30.12048193,65ab079fde17d72bca5e774b,65d6bb0e977760de756971f7,65d6be35d49342c44be90ab7,0.0933,0.0935,1,85,247,68,1,threeone,,,,,,,,,,,,,,,,,,,,,,,,,,,,,,,,,,,,,,,,,,,,,,,,,,,,,,,,,,,,,,,,,,,,,,,,,,,,,,,,,,,,,,,,,,,,,,,,,,,,,,,,,,,,,,,,,,,,,,,,,,,,,,,,,,,,,,,,,
,,65ab079fde17d72bca5e774b,2024-02-21_21h25.04.495,kallum_motion_pilot,2023.2.2,Win32,30.12048193,65ab079fde17d72bca5e774b,65d6bb0e977760de756971f7,65d6be35d49342c44be90ab7,0.0937,0.0939,1,86,248,151,1,eightseven,,,,,,,,,,,,,,,,,,,,,,,,,,,,,,,,,,,,,,,,,,,,,,,,,,,,,,,,,,,,,,,,,,,,,,,,,,,,,,,,,,,,,,,,,,,,,,,,,,,,,,,,,,,,,,,,,,,,,,,,,,,,,,,,,,,,,,,,,
,,65ab079fde17d72bca5e774b,2024-02-21_21h25.04.495,kallum_motion_pilot,2023.2.2,Win32,30.12048193,65ab079fde17d72bca5e774b,65d6bb0e977760de756971f7,65d6be35d49342c44be90ab7,0.0941,0.0943,1,87,249,58,1,twoone,,,,,,,,,,,,,,,,,,,,,,,,,,,,,,,,,,,,,,,,,,,,,,,,,,,,,,,,,,,,,,,,,,,,,,,,,,,,,,,,,,,,,,,,,,,,,,,,,,,,,,,,,,,,,,,,,,,,,,,,,,,,,,,,,,,,,,,,,
,,65ab079fde17d72bca5e774b,2024-02-21_21h25.04.495,kallum_motion_pilot,2023.2.2,Win32,30.12048193,65ab079fde17d72bca5e774b,65d6bb0e977760de756971f7,65d6be35d49342c44be90ab7,0.0943,0.0945,1,88,250,2,1,twoone,,,,,,,,,,,,,,,,,,,,,,,,,,,,,,,,,,,,,,,,,,,,,,,,,,,,,,,,,,,,,,,,,,,,,,,,,,,,,,,,,,,,,,,,,,,,,,,,,,,,,,,,,,,,,,,,,,,,,,,,,,,,,,,,,,,,,,,,,
,,65ab079fde17d72bca5e774b,2024-02-21_21h25.04.495,kallum_motion_pilot,2023.2.2,Win32,30.12048193,65ab079fde17d72bca5e774b,65d6bb0e977760de756971f7,65d6be35d49342c44be90ab7,0.0946,0.0948,1,89,251,129,1,fiveseven,,,,,,,,,,,,,,,,,,,,,,,,,,,,,,,,,,,,,,,,,,,,,,,,,,,,,,,,,,,,,,,,,,,,,,,,,,,,,,,,,,,,,,,,,,,,,,,,,,,,,,,,,,,,,,,,,,,,,,,,,,,,,,,,,,,,,,,,,
,,65ab079fde17d72bca5e774b,2024-02-21_21h25.04.495,kallum_motion_pilot,2023.2.2,Win32,30.12048193,65ab079fde17d72bca5e774b,65d6bb0e977760de756971f7,65d6be35d49342c44be90ab7,0.0949,0.095,1,90,252,47,1,fourthree,,,,,,,,,,,,,,,,,,,,,,,,,,,,,,,,,,,,,,,,,,,,,,,,,,,,,,,,,,,,,,,,,,,,,,,,,,,,,,,,,,,,,,,,,,,,,,,,,,,,,,,,,,,,,,,,,,,,,,,,,,,,,,,,,,,,,,,,,
,,65ab079fde17d72bca5e774b,2024-02-21_21h25.04.495,kallum_motion_pilot,2023.2.2,Win32,30.12048193,65ab079fde17d72bca5e774b,65d6bb0e977760de756971f7,65d6be35d49342c44be90ab7,0.0951,0.0952,1,91,253,72,1,onetwo,,,,,,,,,,,,,,,,,,,,,,,,,,,,,,,,,,,,,,,,,,,,,,,,,,,,,,,,,,,,,,,,,,,,,,,,,,,,,,,,,,,,,,,,,,,,,,,,,,,,,,,,,,,,,,,,,,,,,,,,,,,,,,,,,,,,,,,,,
,,65ab079fde17d72bca5e774b,2024-02-21_21h25.04.495,kallum_motion_pilot,2023.2.2,Win32,30.12048193,65ab079fde17d72bca5e774b,65d6bb0e977760de756971f7,65d6be35d49342c44be90ab7,0.0954,0.0955,1,92,254,90,1,sixfive,,,,,,,,,,,,,,,,,,,,,,,,,,,,,,,,,,,,,,,,,,,,,,,,,,,,,,,,,,,,,,,,,,,,,,,,,,,,,,,,,,,,,,,,,,,,,,,,,,,,,,,,,,,,,,,,,,,,,,,,,,,,,,,,,,,,,,,,,
,,65ab079fde17d72bca5e774b,2024-02-21_21h25.04.495,kallum_motion_pilot,2023.2.2,Win32,30.12048193,65ab079fde17d72bca5e774b,65d6bb0e977760de756971f7,65d6be35d49342c44be90ab7,0.0958,0.0959,1,93,255,13,1,threefour,,,,,,,,,,,,,,,,,,,,,,,,,,,,,,,,,,,,,,,,,,,,,,,,,,,,,,,,,,,,,,,,,,,,,,,,,,,,,,,,,,,,,,,,,,,,,,,,,,,,,,,,,,,,,,,,,,,,,,,,,,,,,,,,,,,,,,,,,
,,65ab079fde17d72bca5e774b,2024-02-21_21h25.04.495,kallum_motion_pilot,2023.2.2,Win32,30.12048193,65ab079fde17d72bca5e774b,65d6bb0e977760de756971f7,65d6be35d49342c44be90ab7,0.0961,0.0963,1,94,256,77,1,threefour,,,,,,,,,,,,,,,,,,,,,,,,,,,,,,,,,,,,,,,,,,,,,,,,,,,,,,,,,,,,,,,,,,,,,,,,,,,,,,,,,,,,,,,,,,,,,,,,,,,,,,,,,,,,,,,,,,,,,,,,,,,,,,,,,,,,,,,,,
,,65ab079fde17d72bca5e774b,2024-02-21_21h25.04.495,kallum_motion_pilot,2023.2.2,Win32,30.12048193,65ab079fde17d72bca5e774b,65d6bb0e977760de756971f7,65d6be35d49342c44be90ab7,0.0964,0.0965,1,95,257,141,1,seveneight,,,,,,,,,,,,,,,,,,,,,,,,,,,,,,,,,,,,,,,,,,,,,,,,,,,,,,,,,,,,,,,,,,,,,,,,,,,,,,,,,,,,,,,,,,,,,,,,,,,,,,,,,,,,,,,,,,,,,,,,,,,,,,,,,,,,,,,,,
,,65ab079fde17d72bca5e774b,2024-02-21_21h25.04.495,kallum_motion_pilot,2023.2.2,Win32,30.12048193,65ab079fde17d72bca5e774b,65d6bb0e977760de756971f7,65d6be35d49342c44be90ab7,0.0966,0.0967,1,96,258,32,1,onetwo,,,,,,,,,,,,,,,,,,,,,,,,,,,,,,,,,,,,,,,,,,,,,,,,,,,,,,,,,,,,,,,,,,,,,,,,,,,,,,,,,,,,,,,,,,,,,,,,,,,,,,,,,,,,,,,,,,,,,,,,,,,,,,,,,,,,,,,,,
,,65ab079fde17d72bca5e774b,2024-02-21_21h25.04.495,kallum_motion_pilot,2023.2.2,Win32,30.12048193,65ab079fde17d72bca5e774b,65d6bb0e977760de756971f7,65d6be35d49342c44be90ab7,0.0969,0.097,1,97,259,65,1,onethree,,,,,,,,,,,,,,,,,,,,,,,,,,,,,,,,,,,,,,,,,,,,,,,,,,,,,,,,,,,,,,,,,,,,,,,,,,,,,,,,,,,,,,,,,,,,,,,,,,,,,,,,,,,,,,,,,,,,,,,,,,,,,,,,,,,,,,,,,
,,65ab079fde17d72bca5e774b,2024-02-21_21h25.04.495,kallum_motion_pilot,2023.2.2,Win32,30.12048193,65ab079fde17d72bca5e774b,65d6bb0e977760de756971f7,65d6be35d49342c44be90ab7,0.0971,0.0972,1,98,260,45,1,threefour,,,,,,,,,,,,,,,,,,,,,,,,,,,,,,,,,,,,,,,,,,,,,,,,,,,,,,,,,,,,,,,,,,,,,,,,,,,,,,,,,,,,,,,,,,,,,,,,,,,,,,,,,,,,,,,,,,,,,,,,,,,,,,,,,,,,,,,,,
,,65ab079fde17d72bca5e774b,2024-02-21_21h25.04.495,kallum_motion_pilot,2023.2.2,Win32,30.12048193,65ab079fde17d72bca5e774b,65d6bb0e977760de756971f7,65d6be35d49342c44be90ab7,0.0973,0.0974,1,99,261,105,1,fiveseven,,,,,,,,,,,,,,,,,,,,,,,,,,,,,,,,,,,,,,,,,,,,,,,,,,,,,,,,,,,,,,,,,,,,,,,,,,,,,,,,,,,,,,,,,,,,,,,,,,,,,,,,,,,,,,,,,,,,,,,,,,,,,,,,,,,,,,,,,
,,65ab079fde17d72bca5e774b,2024-02-21_21h25.04.495,kallum_motion_pilot,2023.2.2,Win32,30.12048193,65ab079fde17d72bca5e774b,65d6bb0e977760de756971f7,65d6be35d49342c44be90ab7,0.0976,0.0977,1,100,262,150,1,eightsix,,,,,,,,,,,,,,,,,,,,,,,,,,,,,,,,,,,,,,,,,,,,,,,,,,,,,,,,,,,,,,,,,,,,,,,,,,,,,,,,,,,,,,,,,,,,,,,,,,,,,,,,,,,,,,,,,,,,,,,,,,,,,,,,,,,,,,,,,
,,65ab079fde17d72bca5e774b,2024-02-21_21h25.04.495,kallum_motion_pilot,2023.2.2,Win32,30.12048193,65ab079fde17d72bca5e774b,65d6bb0e977760de756971f7,65d6be35d49342c44be90ab7,0.0978,0.098,1,101,263,130,1,sixfive,,,,,,,,,,,,,,,,,,,,,,,,,,,,,,,,,,,,,,,,,,,,,,,,,,,,,,,,,,,,,,,,,,,,,,,,,,,,,,,,,,,,,,,,,,,,,,,,,,,,,,,,,,,,,,,,,,,,,,,,,,,,,,,,,,,,,,,,,
,,65ab079fde17d72bca5e774b,2024-02-21_21h25.04.495,kallum_motion_pilot,2023.2.2,Win32,30.12048193,65ab079fde17d72bca5e774b,65d6bb0e977760de756971f7,65d6be35d49342c44be90ab7,0.0981,0.0982,1,102,264,34,1,twoone,,,,,,,,,,,,,,,,,,,,,,,,,,,,,,,,,,,,,,,,,,,,,,,,,,,,,,,,,,,,,,,,,,,,,,,,,,,,,,,,,,,,,,,,,,,,,,,,,,,,,,,,,,,,,,,,,,,,,,,,,,,,,,,,,,,,,,,,,
,,65ab079fde17d72bca5e774b,2024-02-21_21h25.04.495,kallum_motion_pilot,2023.2.2,Win32,30.12048193,65ab079fde17d72bca5e774b,65d6bb0e977760de756971f7,65d6be35d49342c44be90ab7,0.0984,0.0985,1,103,265,40,1,onetwo,,,,,,,,,,,,,,,,,,,,,,,,,,,,,,,,,,,,,,,,,,,,,,,,,,,,,,,,,,,,,,,,,,,,,,,,,,,,,,,,,,,,,,,,,,,,,,,,,,,,,,,,,,,,,,,,,,,,,,,,,,,,,,,,,,,,,,,,,
,,65ab079fde17d72bca5e774b,2024-02-21_21h25.04.495,kallum_motion_pilot,2023.2.2,Win32,30.12048193,65ab079fde17d72bca5e774b,65d6bb0e977760de756971f7,65d6be35d49342c44be90ab7,0.0986,0.0988,1,104,266,140,1,sevenfive,,,,,,,,,,,,,,,,,,,,,,,,,,,,,,,,,,,,,,,,,,,,,,,,,,,,,,,,,,,,,,,,,,,,,,,,,,,,,,,,,,,,,,,,,,,,,,,,,,,,,,,,,,,,,,,,,,,,,,,,,,,,,,,,,,,,,,,,,
,,65ab079fde17d72bca5e774b,2024-02-21_21h25.04.495,kallum_motion_pilot,2023.2.2,Win32,30.12048193,65ab079fde17d72bca5e774b,65d6bb0e977760de756971f7,65d6be35d49342c44be90ab7,0.0989,0.099,1,105,267,132,1,sevenfive,,,,,,,,,,,,,,,,,,,,,,,,,,,,,,,,,,,,,,,,,,,,,,,,,,,,,,,,,,,,,,,,,,,,,,,,,,,,,,,,,,,,,,,,,,,,,,,,,,,,,,,,,,,,,,,,,,,,,,,,,,,,,,,,,,,,,,,,,
,,65ab079fde17d72bca5e774b,2024-02-21_21h25.04.495,kallum_motion_pilot,2023.2.2,Win32,30.12048193,65ab079fde17d72bca5e774b,65d6bb0e977760de756971f7,65d6be35d49342c44be90ab7,0.0992,0.0992,1,106,268,52,1,threeone,,,,,,,,,,,,,,,,,,,,,,,,,,,,,,,,,,,,,,,,,,,,,,,,,,,,,,,,,,,,,,,,,,,,,,,,,,,,,,,,,,,,,,,,,,,,,,,,,,,,,,,,,,,,,,,,,,,,,,,,,,,,,,,,,,,,,,,,,
,,65ab079fde17d72bca5e774b,2024-02-21_21h25.04.495,kallum_motion_pilot,2023.2.2,Win32,30.12048193,65ab079fde17d72bca5e774b,65d6bb0e977760de756971f7,65d6be35d49342c44be90ab7,0.0994,0.0995,1,107,269,7,1,fourthree,,,,,,,,,,,,,,,,,,,,,,,,,,,,,,,,,,,,,,,,,,,,,,,,,,,,,,,,,,,,,,,,,,,,,,,,,,,,,,,,,,,,,,,,,,,,,,,,,,,,,,,,,,,,,,,,,,,,,,,,,,,,,,,,,,,,,,,,,
,,65ab079fde17d72bca5e774b,2024-02-21_21h25.04.495,kallum_motion_pilot,2023.2.2,Win32,30.12048193,65ab079fde17d72bca5e774b,65d6bb0e977760de756971f7,65d6be35d49342c44be90ab7,0.0996,0.0997,1,108,270,39,1,fourthree,,,,,,,,,,,,,,,,,,,,,,,,,,,,,,,,,,,,,,,,,,,,,,,,,,,,,,,,,,,,,,,,,,,,,,,,,,,,,,,,,,,,,,,,,,,,,,,,,,,,,,,,,,,,,,,,,,,,,,,,,,,,,,,,,,,,,,,,,
,,65ab079fde17d72bca5e774b,2024-02-21_21h25.04.495,kallum_motion_pilot,2023.2.2,Win32,30.12048193,65ab079fde17d72bca5e774b,65d6bb0e977760de756971f7,65d6be35d49342c44be90ab7,0.0998,0.0999,1,109,271,97,1,fiveseven,,,,,,,,,,,,,,,,,,,,,,,,,,,,,,,,,,,,,,,,,,,,,,,,,,,,,,,,,,,,,,,,,,,,,,,,,,,,,,,,,,,,,,,,,,,,,,,,,,,,,,,,,,,,,,,,,,,,,,,,,,,,,,,,,,,,,,,,,
,,65ab079fde17d72bca5e774b,2024-02-21_21h25.04.495,kallum_motion_pilot,2023.2.2,Win32,30.12048193,65ab079fde17d72bca5e774b,65d6bb0e977760de756971f7,65d6be35d49342c44be90ab7,0.1001,0.1001,1,110,272,99,1,sixeight,,,,,,,,,,,,,,,,,,,,,,,,,,,,,,,,,,,,,,,,,,,,,,,,,,,,,,,,,,,,,,,,,,,,,,,,,,,,,,,,,,,,,,,,,,,,,,,,,,,,,,,,,,,,,,,,,,,,,,,,,,,,,,,,,,,,,,,,,
,,65ab079fde17d72bca5e774b,2024-02-21_21h25.04.495,kallum_motion_pilot,2023.2.2,Win32,30.12048193,65ab079fde17d72bca5e774b,65d6bb0e977760de756971f7,65d6be35d49342c44be90ab7,0.1002,0.1004,1,111,273,109,1,seveneight,,,,,,,,,,,,,,,,,,,,,,,,,,,,,,,,,,,,,,,,,,,,,,,,,,,,,,,,,,,,,,,,,,,,,,,,,,,,,,,,,,,,,,,,,,,,,,,,,,,,,,,,,,,,,,,,,,,,,,,,,,,,,,,,,,,,,,,,,
,,65ab079fde17d72bca5e774b,2024-02-21_21h25.04.495,kallum_motion_pilot,2023.2.2,Win32,30.12048193,65ab079fde17d72bca5e774b,65d6bb0e977760de756971f7,65d6be35d49342c44be90ab7,0.1007,0.1008,1,112,274,15,1,fourthree,,,,,,,,,,,,,,,,,,,,,,,,,,,,,,,,,,,,,,,,,,,,,,,,,,,,,,,,,,,,,,,,,,,,,,,,,,,,,,,,,,,,,,,,,,,,,,,,,,,,,,,,,,,,,,,,,,,,,,,,,,,,,,,,,,,,,,,,,
,,65ab079fde17d72bca5e774b,2024-02-21_21h25.04.495,kallum_motion_pilot,2023.2.2,Win32,30.12048193,65ab079fde17d72bca5e774b,65d6bb0e977760de756971f7,65d6be35d49342c44be90ab7,0.1009,0.1011,1,113,275,133,1,seveneight,,,,,,,,,,,,,,,,,,,,,,,,,,,,,,,,,,,,,,,,,,,,,,,,,,,,,,,,,,,,,,,,,,,,,,,,,,,,,,,,,,,,,,,,,,,,,,,,,,,,,,,,,,,,,,,,,,,,,,,,,,,,,,,,,,,,,,,,,
,,65ab079fde17d72bca5e774b,2024-02-21_21h25.04.495,kallum_motion_pilot,2023.2.2,Win32,30.12048193,65ab079fde17d72bca5e774b,65d6bb0e977760de756971f7,65d6be35d49342c44be90ab7,0.1012,0.1013,1,114,276,18,1,twoone,,,,,,,,,,,,,,,,,,,,,,,,,,,,,,,,,,,,,,,,,,,,,,,,,,,,,,,,,,,,,,,,,,,,,,,,,,,,,,,,,,,,,,,,,,,,,,,,,,,,,,,,,,,,,,,,,,,,,,,,,,,,,,,,,,,,,,,,,
,,65ab079fde17d72bca5e774b,2024-02-21_21h25.04.495,kallum_motion_pilot,2023.2.2,Win32,30.12048193,65ab079fde17d72bca5e774b,65d6bb0e977760de756971f7,65d6be35d49342c44be90ab7,0.1014,0.1016,1,115,277,74,1,twoone,,,,,,,,,,,,,,,,,,,,,,,,,,,,,,,,,,,,,,,,,,,,,,,,,,,,,,,,,,,,,,,,,,,,,,,,,,,,,,,,,,,,,,,,,,,,,,,,,,,,,,,,,,,,,,,,,,,,,,,,,,,,,,,,,,,,,,,,,
