startup.started,startup.stopped,Prolific ID*,date,expName,psychopyVersion,OS,frameRate,participant,study_id,session,stimpositions.started,stimpositions.stopped,hardcoded_stimulus_positions.thisRepN,hardcoded_stimulus_positions.thisTrialN,hardcoded_stimulus_positions.thisN,hardcoded_stimulus_positions.thisIndex,hardcoded_stimulus_positions.ran,StimulusPos,stimorientation.started,stimorientation.stopped,prac_stimorientation_import_loop.thisRepN,prac_stimorientation_import_loop.thisTrialN,prac_stimorientation_import_loop.thisN,prac_stimorientation_import_loop.thisIndex,prac_stimorientation_import_loop.ran,Stimorientation,welcome_instr.started,welcome_instr.stopped,key_resp.keys,key_resp.rt,key_resp.duration,response_steppedout_1.started,response_steppedout_1.stopped,key_resp_20.keys,key_resp_20.rt,key_resp_20.duration,response_steppedout_2.started,response_steppedout_2.stopped,key_resp_19.keys,key_resp_19.rt,key_resp_19.duration,stim_response_instr.started,stim_response_instr.stopped,key_resp_15.keys,key_resp_15.rt,key_resp_15.duration,direction_instr_2.started,direction_instr_2.stopped,key_resp_9.keys,key_resp_9.rt,key_resp_9.duration,instr_prac.started,instr_prac.stopped,key_resp_10.keys,key_resp_10.rt,key_resp_10.duration,Stim1_display_prac.started,Stim1_display_prac.stopped,Ecc,Circle1_ori,Circle2_ori,response_prac.started,similarity,response_time,response_prac.stopped,mouse_5.x,mouse_5.y,mouse_5.leftButton,mouse_5.midButton,mouse_5.rightButton,mouse_5.clicked_name,responseprac_feedback.started,responseprac_feedback.stopped,summary2_prac.started,summary2_prac.stopped,mouse_6.x,mouse_6.y,mouse_6.leftButton,mouse_6.midButton,mouse_6.rightButton,mouse_6.clicked_name,duringprac.thisRepN,duringprac.thisTrialN,duringprac.thisN,duringprac.thisIndex,duringprac.ran,begin.started,begin.stopped,key_resp_22.keys,key_resp_22.rt,key_resp_22.duration,Stim1_display.started,Stim1_display.stopped,circle1_ori,circle2_ori,circle1_SF,circle2_SF,response.started,response.stopped,mouse.x,mouse.y,mouse.leftButton,mouse.midButton,mouse.rightButton,mouse.clicked_name,trialnumber,double_pass.thisRepN,double_pass.thisTrialN,double_pass.thisN,double_pass.thisIndex,double_pass.ran,double_pass.order,main_trial.thisRepN,main_trial.thisTrialN,main_trial.thisN,main_trial.thisIndex,main_trial.ran,main_trial.order,Trial_Counter,Catch,Frequencies,response_2.started,response_2.stopped,mouse_2.x,mouse_2.y,mouse_2.leftButton,mouse_2.midButton,mouse_2.rightButton,mouse_2.clicked_name,special_trial.started,special_trial.stopped,catch_1.started,catch_1.stopped,mouse_3.x,mouse_3.y,mouse_3.leftButton,mouse_3.midButton,mouse_3.rightButton,catchresponse,catchnumber,response_time_catch,response_sum.started,response_sum.stopped,mouse_11.x,mouse_11.y,mouse_11.leftButton,mouse_11.midButton,mouse_11.rightButton,flip_presentation_sequence_for_double_pass.started,flip_presentation_sequence_for_double_pass.stopped,goodbye.started,goodbye.stopped,key_resp_3.keys,key_resp_3.rt,key_resp_3.duration
0.0006,0.0008,65b2e96958c28d5efd354635,2024-02-21_21h26.21.230,kallum_motion_pilot,2023.2.2,Win32,59.52380952,65b2e96958c28d5efd354635,65d6bb0e977760de756971f7,65d6beca265c1952ee891fc4,,,,,,,,,,,,,,,,,,,,,,,,,,,,,,,,,,,,,,,,,,,,,,,,,,,,,,,,,,,,,,,,,,,,,,,,,,,,,,,,,,,,,,,,,,,,,,,,,,,,,,,,,,,,,,,,,,,,,,,,,,,,,,,,,,,,,,,,,,,,,,,,,
,,65b2e96958c28d5efd354635,2024-02-21_21h26.21.230,kallum_motion_pilot,2023.2.2,Win32,59.52380952,65b2e96958c28d5efd354635,65d6bb0e977760de756971f7,65d6beca265c1952ee891fc4,0.0292,0.0295,0,0,0,18,1,twoone,,,,,,,,,,,,,,,,,,,,,,,,,,,,,,,,,,,,,,,,,,,,,,,,,,,,,,,,,,,,,,,,,,,,,,,,,,,,,,,,,,,,,,,,,,,,,,,,,,,,,,,,,,,,,,,,,,,,,,,,,,,,,,,,,,,,,,,,,
,,65b2e96958c28d5efd354635,2024-02-21_21h26.21.230,kallum_motion_pilot,2023.2.2,Win32,59.52380952,65b2e96958c28d5efd354635,65d6bb0e977760de756971f7,65d6beca265c1952ee891fc4,0.0298,0.0298,0,1,1,158,1,eightsix,,,,,,,,,,,,,,,,,,,,,,,,,,,,,,,,,,,,,,,,,,,,,,,,,,,,,,,,,,,,,,,,,,,,,,,,,,,,,,,,,,,,,,,,,,,,,,,,,,,,,,,,,,,,,,,,,,,,,,,,,,,,,,,,,,,,,,,,,
,,65b2e96958c28d5efd354635,2024-02-21_21h26.21.230,kallum_motion_pilot,2023.2.2,Win32,59.52380952,65b2e96958c28d5efd354635,65d6bb0e977760de756971f7,65d6beca265c1952ee891fc4,0.0299,0.0299,0,2,2,75,1,twofour,,,,,,,,,,,,,,,,,,,,,,,,,,,,,,,,,,,,,,,,,,,,,,,,,,,,,,,,,,,,,,,,,,,,,,,,,,,,,,,,,,,,,,,,,,,,,,,,,,,,,,,,,,,,,,,,,,,,,,,,,,,,,,,,,,,,,,,,,
,,65b2e96958c28d5efd354635,2024-02-21_21h26.21.230,kallum_motion_pilot,2023.2.2,Win32,59.52380952,65b2e96958c28d5efd354635,65d6bb0e977760de756971f7,65d6beca265c1952ee891fc4,0.0301,0.0302,0,3,3,33,1,onethree,,,,,,,,,,,,,,,,,,,,,,,,,,,,,,,,,,,,,,,,,,,,,,,,,,,,,,,,,,,,,,,,,,,,,,,,,,,,,,,,,,,,,,,,,,,,,,,,,,,,,,,,,,,,,,,,,,,,,,,,,,,,,,,,,,,,,,,,,
,,65b2e96958c28d5efd354635,2024-02-21_21h26.21.230,kallum_motion_pilot,2023.2.2,Win32,59.52380952,65b2e96958c28d5efd354635,65d6bb0e977760de756971f7,65d6beca265c1952ee891fc4,0.0303,0.0303,0,4,4,39,1,fourthree,,,,,,,,,,,,,,,,,,,,,,,,,,,,,,,,,,,,,,,,,,,,,,,,,,,,,,,,,,,,,,,,,,,,,,,,,,,,,,,,,,,,,,,,,,,,,,,,,,,,,,,,,,,,,,,,,,,,,,,,,,,,,,,,,,,,,,,,,
,,65b2e96958c28d5efd354635,2024-02-21_21h26.21.230,kallum_motion_pilot,2023.2.2,Win32,59.52380952,65b2e96958c28d5efd354635,65d6bb0e977760de756971f7,65d6beca265c1952ee891fc4,0.0304,0.0305,0,5,5,138,1,sixfive,,,,,,,,,,,,,,,,,,,,,,,,,,,,,,,,,,,,,,,,,,,,,,,,,,,,,,,,,,,,,,,,,,,,,,,,,,,,,,,,,,,,,,,,,,,,,,,,,,,,,,,,,,,,,,,,,,,,,,,,,,,,,,,,,,,,,,,,,
,,65b2e96958c28d5efd354635,2024-02-21_21h26.21.230,kallum_motion_pilot,2023.2.2,Win32,59.52380952,65b2e96958c28d5efd354635,65d6bb0e977760de756971f7,65d6beca265c1952ee891fc4,0.0306,0.0306,0,6,6,87,1,eightseven,,,,,,,,,,,,,,,,,,,,,,,,,,,,,,,,,,,,,,,,,,,,,,,,,,,,,,,,,,,,,,,,,,,,,,,,,,,,,,,,,,,,,,,,,,,,,,,,,,,,,,,,,,,,,,,,,,,,,,,,,,,,,,,,,,,,,,,,,
,,65b2e96958c28d5efd354635,2024-02-21_21h26.21.230,kallum_motion_pilot,2023.2.2,Win32,59.52380952,65b2e96958c28d5efd354635,65d6bb0e977760de756971f7,65d6beca265c1952ee891fc4,0.0307,0.0307,0,7,7,154,1,sixfive,,,,,,,,,,,,,,,,,,,,,,,,,,,,,,,,,,,,,,,,,,,,,,,,,,,,,,,,,,,,,,,,,,,,,,,,,,,,,,,,,,,,,,,,,,,,,,,,,,,,,,,,,,,,,,,,,,,,,,,,,,,,,,,,,,,,,,,,,
,,65b2e96958c28d5efd354635,2024-02-21_21h26.21.230,kallum_motion_pilot,2023.2.2,Win32,59.52380952,65b2e96958c28d5efd354635,65d6bb0e977760de756971f7,65d6beca265c1952ee891fc4,0.0309,0.0309,0,8,8,54,1,fourtwo,,,,,,,,,,,,,,,,,,,,,,,,,,,,,,,,,,,,,,,,,,,,,,,,,,,,,,,,,,,,,,,,,,,,,,,,,,,,,,,,,,,,,,,,,,,,,,,,,,,,,,,,,,,,,,,,,,,,,,,,,,,,,,,,,,,,,,,,,
,,65b2e96958c28d5efd354635,2024-02-21_21h26.21.230,kallum_motion_pilot,2023.2.2,Win32,59.52380952,65b2e96958c28d5efd354635,65d6bb0e977760de756971f7,65d6beca265c1952ee891fc4,0.0311,0.0311,0,9,9,61,1,threefour,,,,,,,,,,,,,,,,,,,,,,,,,,,,,,,,,,,,,,,,,,,,,,,,,,,,,,,,,,,,,,,,,,,,,,,,,,,,,,,,,,,,,,,,,,,,,,,,,,,,,,,,,,,,,,,,,,,,,,,,,,,,,,,,,,,,,,,,,
,,65b2e96958c28d5efd354635,2024-02-21_21h26.21.230,kallum_motion_pilot,2023.2.2,Win32,59.52380952,65b2e96958c28d5efd354635,65d6bb0e977760de756971f7,65d6beca265c1952ee891fc4,0.0312,0.0312,0,10,10,109,1,seveneight,,,,,,,,,,,,,,,,,,,,,,,,,,,,,,,,,,,,,,,,,,,,,,,,,,,,,,,,,,,,,,,,,,,,,,,,,,,,,,,,,,,,,,,,,,,,,,,,,,,,,,,,,,,,,,,,,,,,,,,,,,,,,,,,,,,,,,,,,
,,65b2e96958c28d5efd354635,2024-02-21_21h26.21.230,kallum_motion_pilot,2023.2.2,Win32,59.52380952,65b2e96958c28d5efd354635,65d6bb0e977760de756971f7,65d6beca265c1952ee891fc4,0.0313,0.0314,0,11,11,89,1,fiveseven,,,,,,,,,,,,,,,,,,,,,,,,,,,,,,,,,,,,,,,,,,,,,,,,,,,,,,,,,,,,,,,,,,,,,,,,,,,,,,,,,,,,,,,,,,,,,,,,,,,,,,,,,,,,,,,,,,,,,,,,,,,,,,,,,,,,,,,,,
,,65b2e96958c28d5efd354635,2024-02-21_21h26.21.230,kallum_motion_pilot,2023.2.2,Win32,59.52380952,65b2e96958c28d5efd354635,65d6bb0e977760de756971f7,65d6beca265c1952ee891fc4,0.0315,0.0315,0,12,12,139,1,sixeight,,,,,,,,,,,,,,,,,,,,,,,,,,,,,,,,,,,,,,,,,,,,,,,,,,,,,,,,,,,,,,,,,,,,,,,,,,,,,,,,,,,,,,,,,,,,,,,,,,,,,,,,,,,,,,,,,,,,,,,,,,,,,,,,,,,,,,,,,
,,65b2e96958c28d5efd354635,2024-02-21_21h26.21.230,kallum_motion_pilot,2023.2.2,Win32,59.52380952,65b2e96958c28d5efd354635,65d6bb0e977760de756971f7,65d6beca265c1952ee891fc4,0.0316,0.0316,0,13,13,65,1,onethree,,,,,,,,,,,,,,,,,,,,,,,,,,,,,,,,,,,,,,,,,,,,,,,,,,,,,,,,,,,,,,,,,,,,,,,,,,,,,,,,,,,,,,,,,,,,,,,,,,,,,,,,,,,,,,,,,,,,,,,,,,,,,,,,,,,,,,,,,
,,65b2e96958c28d5efd354635,2024-02-21_21h26.21.230,kallum_motion_pilot,2023.2.2,Win32,59.52380952,65b2e96958c28d5efd354635,65d6bb0e977760de756971f7,65d6beca265c1952ee891fc4,0.0317,0.0318,0,14,14,128,1,fivesix,,,,,,,,,,,,,,,,,,,,,,,,,,,,,,,,,,,,,,,,,,,,,,,,,,,,,,,,,,,,,,,,,,,,,,,,,,,,,,,,,,,,,,,,,,,,,,,,,,,,,,,,,,,,,,,,,,,,,,,,,,,,,,,,,,,,,,,,,
,,65b2e96958c28d5efd354635,2024-02-21_21h26.21.230,kallum_motion_pilot,2023.2.2,Win32,59.52380952,65b2e96958c28d5efd354635,65d6bb0e977760de756971f7,65d6beca265c1952ee891fc4,0.0318,0.0318,0,15,15,57,1,onethree,,,,,,,,,,,,,,,,,,,,,,,,,,,,,,,,,,,,,,,,,,,,,,,,,,,,,,,,,,,,,,,,,,,,,,,,,,,,,,,,,,,,,,,,,,,,,,,,,,,,,,,,,,,,,,,,,,,,,,,,,,,,,,,,,,,,,,,,,
,,65b2e96958c28d5efd354635,2024-02-21_21h26.21.230,kallum_motion_pilot,2023.2.2,Win32,59.52380952,65b2e96958c28d5efd354635,65d6bb0e977760de756971f7,65d6beca265c1952ee891fc4,0.0319,0.0319,0,16,16,38,1,fourtwo,,,,,,,,,,,,,,,,,,,,,,,,,,,,,,,,,,,,,,,,,,,,,,,,,,,,,,,,,,,,,,,,,,,,,,,,,,,,,,,,,,,,,,,,,,,,,,,,,,,,,,,,,,,,,,,,,,,,,,,,,,,,,,,,,,,,,,,,,
,,65b2e96958c28d5efd354635,2024-02-21_21h26.21.230,kallum_motion_pilot,2023.2.2,Win32,59.52380952,65b2e96958c28d5efd354635,65d6bb0e977760de756971f7,65d6beca265c1952ee891fc4,0.032,0.032,0,17,17,30,1,fourtwo,,,,,,,,,,,,,,,,,,,,,,,,,,,,,,,,,,,,,,,,,,,,,,,,,,,,,,,,,,,,,,,,,,,,,,,,,,,,,,,,,,,,,,,,,,,,,,,,,,,,,,,,,,,,,,,,,,,,,,,,,,,,,,,,,,,,,,,,,
,,65b2e96958c28d5efd354635,2024-02-21_21h26.21.230,kallum_motion_pilot,2023.2.2,Win32,59.52380952,65b2e96958c28d5efd354635,65d6bb0e977760de756971f7,65d6beca265c1952ee891fc4,0.0321,0.0322,0,18,18,151,1,eightseven,,,,,,,,,,,,,,,,,,,,,,,,,,,,,,,,,,,,,,,,,,,,,,,,,,,,,,,,,,,,,,,,,,,,,,,,,,,,,,,,,,,,,,,,,,,,,,,,,,,,,,,,,,,,,,,,,,,,,,,,,,,,,,,,,,,,,,,,,
,,65b2e96958c28d5efd354635,2024-02-21_21h26.21.230,kallum_motion_pilot,2023.2.2,Win32,59.52380952,65b2e96958c28d5efd354635,65d6bb0e977760de756971f7,65d6beca265c1952ee891fc4,0.0322,0.0322,0,19,19,24,1,onetwo,,,,,,,,,,,,,,,,,,,,,,,,,,,,,,,,,,,,,,,,,,,,,,,,,,,,,,,,,,,,,,,,,,,,,,,,,,,,,,,,,,,,,,,,,,,,,,,,,,,,,,,,,,,,,,,,,,,,,,,,,,,,,,,,,,,,,,,,,
,,65b2e96958c28d5efd354635,2024-02-21_21h26.21.230,kallum_motion_pilot,2023.2.2,Win32,59.52380952,65b2e96958c28d5efd354635,65d6bb0e977760de756971f7,65d6beca265c1952ee891fc4,0.0323,0.0323,0,20,20,132,1,sevenfive,,,,,,,,,,,,,,,,,,,,,,,,,,,,,,,,,,,,,,,,,,,,,,,,,,,,,,,,,,,,,,,,,,,,,,,,,,,,,,,,,,,,,,,,,,,,,,,,,,,,,,,,,,,,,,,,,,,,,,,,,,,,,,,,,,,,,,,,,
,,65b2e96958c28d5efd354635,2024-02-21_21h26.21.230,kallum_motion_pilot,2023.2.2,Win32,59.52380952,65b2e96958c28d5efd354635,65d6bb0e977760de756971f7,65d6beca265c1952ee891fc4,0.0325,0.0326,0,21,21,117,1,seveneight,,,,,,,,,,,,,,,,,,,,,,,,,,,,,,,,,,,,,,,,,,,,,,,,,,,,,,,,,,,,,,,,,,,,,,,,,,,,,,,,,,,,,,,,,,,,,,,,,,,,,,,,,,,,,,,,,,,,,,,,,,,,,,,,,,,,,,,,,
,,65b2e96958c28d5efd354635,2024-02-21_21h26.21.230,kallum_motion_pilot,2023.2.2,Win32,59.52380952,65b2e96958c28d5efd354635,65d6bb0e977760de756971f7,65d6beca265c1952ee891fc4,0.0327,0.0327,0,22,22,156,1,sevenfive,,,,,,,,,,,,,,,,,,,,,,,,,,,,,,,,,,,,,,,,,,,,,,,,,,,,,,,,,,,,,,,,,,,,,,,,,,,,,,,,,,,,,,,,,,,,,,,,,,,,,,,,,,,,,,,,,,,,,,,,,,,,,,,,,,,,,,,,,
,,65b2e96958c28d5efd354635,2024-02-21_21h26.21.230,kallum_motion_pilot,2023.2.2,Win32,59.52380952,65b2e96958c28d5efd354635,65d6bb0e977760de756971f7,65d6beca265c1952ee891fc4,0.0328,0.0328,0,23,23,107,1,sixeight,,,,,,,,,,,,,,,,,,,,,,,,,,,,,,,,,,,,,,,,,,,,,,,,,,,,,,,,,,,,,,,,,,,,,,,,,,,,,,,,,,,,,,,,,,,,,,,,,,,,,,,,,,,,,,,,,,,,,,,,,,,,,,,,,,,,,,,,,
,,65b2e96958c28d5efd354635,2024-02-21_21h26.21.230,kallum_motion_pilot,2023.2.2,Win32,59.52380952,65b2e96958c28d5efd354635,65d6bb0e977760de756971f7,65d6beca265c1952ee891fc4,0.0329,0.0329,0,24,24,51,1,twofour,,,,,,,,,,,,,,,,,,,,,,,,,,,,,,,,,,,,,,,,,,,,,,,,,,,,,,,,,,,,,,,,,,,,,,,,,,,,,,,,,,,,,,,,,,,,,,,,,,,,,,,,,,,,,,,,,,,,,,,,,,,,,,,,,,,,,,,,,
,,65b2e96958c28d5efd354635,2024-02-21_21h26.21.230,kallum_motion_pilot,2023.2.2,Win32,59.52380952,65b2e96958c28d5efd354635,65d6bb0e977760de756971f7,65d6beca265c1952ee891fc4,0.0331,0.0331,0,25,25,95,1,eightseven,,,,,,,,,,,,,,,,,,,,,,,,,,,,,,,,,,,,,,,,,,,,,,,,,,,,,,,,,,,,,,,,,,,,,,,,,,,,,,,,,,,,,,,,,,,,,,,,,,,,,,,,,,,,,,,,,,,,,,,,,,,,,,,,,,,,,,,,,
,,65b2e96958c28d5efd354635,2024-02-21_21h26.21.230,kallum_motion_pilot,2023.2.2,Win32,59.52380952,65b2e96958c28d5efd354635,65d6bb0e977760de756971f7,65d6beca265c1952ee891fc4,0.0333,0.0333,0,26,26,85,1,seveneight,,,,,,,,,,,,,,,,,,,,,,,,,,,,,,,,,,,,,,,,,,,,,,,,,,,,,,,,,,,,,,,,,,,,,,,,,,,,,,,,,,,,,,,,,,,,,,,,,,,,,,,,,,,,,,,,,,,,,,,,,,,,,,,,,,,,,,,,,
,,65b2e96958c28d5efd354635,2024-02-21_21h26.21.230,kallum_motion_pilot,2023.2.2,Win32,59.52380952,65b2e96958c28d5efd354635,65d6bb0e977760de756971f7,65d6beca265c1952ee891fc4,0.0333,0.0334,0,27,27,141,1,seveneight,,,,,,,,,,,,,,,,,,,,,,,,,,,,,,,,,,,,,,,,,,,,,,,,,,,,,,,,,,,,,,,,,,,,,,,,,,,,,,,,,,,,,,,,,,,,,,,,,,,,,,,,,,,,,,,,,,,,,,,,,,,,,,,,,,,,,,,,,
,,65b2e96958c28d5efd354635,2024-02-21_21h26.21.230,kallum_motion_pilot,2023.2.2,Win32,59.52380952,65b2e96958c28d5efd354635,65d6bb0e977760de756971f7,65d6beca265c1952ee891fc4,0.0335,0.0335,0,28,28,40,1,onetwo,,,,,,,,,,,,,,,,,,,,,,,,,,,,,,,,,,,,,,,,,,,,,,,,,,,,,,,,,,,,,,,,,,,,,,,,,,,,,,,,,,,,,,,,,,,,,,,,,,,,,,,,,,,,,,,,,,,,,,,,,,,,,,,,,,,,,,,,,
,,65b2e96958c28d5efd354635,2024-02-21_21h26.21.230,kallum_motion_pilot,2023.2.2,Win32,59.52380952,65b2e96958c28d5efd354635,65d6bb0e977760de756971f7,65d6beca265c1952ee891fc4,0.0335,0.0336,0,29,29,32,1,onetwo,,,,,,,,,,,,,,,,,,,,,,,,,,,,,,,,,,,,,,,,,,,,,,,,,,,,,,,,,,,,,,,,,,,,,,,,,,,,,,,,,,,,,,,,,,,,,,,,,,,,,,,,,,,,,,,,,,,,,,,,,,,,,,,,,,,,,,,,,
,,65b2e96958c28d5efd354635,2024-02-21_21h26.21.230,kallum_motion_pilot,2023.2.2,Win32,59.52380952,65b2e96958c28d5efd354635,65d6bb0e977760de756971f7,65d6beca265c1952ee891fc4,0.0337,0.0338,0,30,30,3,1,twofour,,,,,,,,,,,,,,,,,,,,,,,,,,,,,,,,,,,,,,,,,,,,,,,,,,,,,,,,,,,,,,,,,,,,,,,,,,,,,,,,,,,,,,,,,,,,,,,,,,,,,,,,,,,,,,,,,,,,,,,,,,,,,,,,,,,,,,,,,
,,65b2e96958c28d5efd354635,2024-02-21_21h26.21.230,kallum_motion_pilot,2023.2.2,Win32,59.52380952,65b2e96958c28d5efd354635,65d6bb0e977760de756971f7,65d6beca265c1952ee891fc4,0.0338,0.0338,0,31,31,0,1,onetwo,,,,,,,,,,,,,,,,,,,,,,,,,,,,,,,,,,,,,,,,,,,,,,,,,,,,,,,,,,,,,,,,,,,,,,,,,,,,,,,,,,,,,,,,,,,,,,,,,,,,,,,,,,,,,,,,,,,,,,,,,,,,,,,,,,,,,,,,,
,,65b2e96958c28d5efd354635,2024-02-21_21h26.21.230,kallum_motion_pilot,2023.2.2,Win32,59.52380952,65b2e96958c28d5efd354635,65d6bb0e977760de756971f7,65d6beca265c1952ee891fc4,0.0339,0.0339,0,32,32,147,1,sixeight,,,,,,,,,,,,,,,,,,,,,,,,,,,,,,,,,,,,,,,,,,,,,,,,,,,,,,,,,,,,,,,,,,,,,,,,,,,,,,,,,,,,,,,,,,,,,,,,,,,,,,,,,,,,,,,,,,,,,,,,,,,,,,,,,,,,,,,,,
,,65b2e96958c28d5efd354635,2024-02-21_21h26.21.230,kallum_motion_pilot,2023.2.2,Win32,59.52380952,65b2e96958c28d5efd354635,65d6bb0e977760de756971f7,65d6beca265c1952ee891fc4,0.034,0.0341,0,33,33,35,1,twofour,,,,,,,,,,,,,,,,,,,,,,,,,,,,,,,,,,,,,,,,,,,,,,,,,,,,,,,,,,,,,,,,,,,,,,,,,,,,,,,,,,,,,,,,,,,,,,,,,,,,,,,,,,,,,,,,,,,,,,,,,,,,,,,,,,,,,,,,,
,,65b2e96958c28d5efd354635,2024-02-21_21h26.21.230,kallum_motion_pilot,2023.2.2,Win32,59.52380952,65b2e96958c28d5efd354635,65d6bb0e977760de756971f7,65d6beca265c1952ee891fc4,0.0342,0.0342,0,34,34,63,1,fourthree,,,,,,,,,,,,,,,,,,,,,,,,,,,,,,,,,,,,,,,,,,,,,,,,,,,,,,,,,,,,,,,,,,,,,,,,,,,,,,,,,,,,,,,,,,,,,,,,,,,,,,,,,,,,,,,,,,,,,,,,,,,,,,,,,,,,,,,,,
,,65b2e96958c28d5efd354635,2024-02-21_21h26.21.230,kallum_motion_pilot,2023.2.2,Win32,59.52380952,65b2e96958c28d5efd354635,65d6bb0e977760de756971f7,65d6beca265c1952ee891fc4,0.0343,0.0344,0,35,35,133,1,seveneight,,,,,,,,,,,,,,,,,,,,,,,,,,,,,,,,,,,,,,,,,,,,,,,,,,,,,,,,,,,,,,,,,,,,,,,,,,,,,,,,,,,,,,,,,,,,,,,,,,,,,,,,,,,,,,,,,,,,,,,,,,,,,,,,,,,,,,,,,
,,65b2e96958c28d5efd354635,2024-02-21_21h26.21.230,kallum_motion_pilot,2023.2.2,Win32,59.52380952,65b2e96958c28d5efd354635,65d6bb0e977760de756971f7,65d6beca265c1952ee891fc4,0.0346,0.0346,0,36,36,98,1,sixfive,,,,,,,,,,,,,,,,,,,,,,,,,,,,,,,,,,,,,,,,,,,,,,,,,,,,,,,,,,,,,,,,,,,,,,,,,,,,,,,,,,,,,,,,,,,,,,,,,,,,,,,,,,,,,,,,,,,,,,,,,,,,,,,,,,,,,,,,,
,,65b2e96958c28d5efd354635,2024-02-21_21h26.21.230,kallum_motion_pilot,2023.2.2,Win32,59.52380952,65b2e96958c28d5efd354635,65d6bb0e977760de756971f7,65d6beca265c1952ee891fc4,0.0348,0.0349,0,37,37,47,1,fourthree,,,,,,,,,,,,,,,,,,,,,,,,,,,,,,,,,,,,,,,,,,,,,,,,,,,,,,,,,,,,,,,,,,,,,,,,,,,,,,,,,,,,,,,,,,,,,,,,,,,,,,,,,,,,,,,,,,,,,,,,,,,,,,,,,,,,,,,,,
,,65b2e96958c28d5efd354635,2024-02-21_21h26.21.230,kallum_motion_pilot,2023.2.2,Win32,59.52380952,65b2e96958c28d5efd354635,65d6bb0e977760de756971f7,65d6beca265c1952ee891fc4,0.035,0.035,0,38,38,42,1,twoone,,,,,,,,,,,,,,,,,,,,,,,,,,,,,,,,,,,,,,,,,,,,,,,,,,,,,,,,,,,,,,,,,,,,,,,,,,,,,,,,,,,,,,,,,,,,,,,,,,,,,,,,,,,,,,,,,,,,,,,,,,,,,,,,,,,,,,,,,
,,65b2e96958c28d5efd354635,2024-02-21_21h26.21.230,kallum_motion_pilot,2023.2.2,Win32,59.52380952,65b2e96958c28d5efd354635,65d6bb0e977760de756971f7,65d6beca265c1952ee891fc4,0.0353,0.0353,0,39,39,73,1,onethree,,,,,,,,,,,,,,,,,,,,,,,,,,,,,,,,,,,,,,,,,,,,,,,,,,,,,,,,,,,,,,,,,,,,,,,,,,,,,,,,,,,,,,,,,,,,,,,,,,,,,,,,,,,,,,,,,,,,,,,,,,,,,,,,,,,,,,,,,
,,65b2e96958c28d5efd354635,2024-02-21_21h26.21.230,kallum_motion_pilot,2023.2.2,Win32,59.52380952,65b2e96958c28d5efd354635,65d6bb0e977760de756971f7,65d6beca265c1952ee891fc4,0.0354,0.0355,0,40,40,43,1,twofour,,,,,,,,,,,,,,,,,,,,,,,,,,,,,,,,,,,,,,,,,,,,,,,,,,,,,,,,,,,,,,,,,,,,,,,,,,,,,,,,,,,,,,,,,,,,,,,,,,,,,,,,,,,,,,,,,,,,,,,,,,,,,,,,,,,,,,,,,
,,65b2e96958c28d5efd354635,2024-02-21_21h26.21.230,kallum_motion_pilot,2023.2.2,Win32,59.52380952,65b2e96958c28d5efd354635,65d6bb0e977760de756971f7,65d6beca265c1952ee891fc4,0.0356,0.0356,0,41,41,7,1,fourthree,,,,,,,,,,,,,,,,,,,,,,,,,,,,,,,,,,,,,,,,,,,,,,,,,,,,,,,,,,,,,,,,,,,,,,,,,,,,,,,,,,,,,,,,,,,,,,,,,,,,,,,,,,,,,,,,,,,,,,,,,,,,,,,,,,,,,,,,,
,,65b2e96958c28d5efd354635,2024-02-21_21h26.21.230,kallum_motion_pilot,2023.2.2,Win32,59.52380952,65b2e96958c28d5efd354635,65d6bb0e977760de756971f7,65d6beca265c1952ee891fc4,0.0357,0.0358,0,42,42,113,1,fiveseven,,,,,,,,,,,,,,,,,,,,,,,,,,,,,,,,,,,,,,,,,,,,,,,,,,,,,,,,,,,,,,,,,,,,,,,,,,,,,,,,,,,,,,,,,,,,,,,,,,,,,,,,,,,,,,,,,,,,,,,,,,,,,,,,,,,,,,,,,
,,65b2e96958c28d5efd354635,2024-02-21_21h26.21.230,kallum_motion_pilot,2023.2.2,Win32,59.52380952,65b2e96958c28d5efd354635,65d6bb0e977760de756971f7,65d6beca265c1952ee891fc4,0.036,0.036,0,43,43,21,1,threefour,,,,,,,,,,,,,,,,,,,,,,,,,,,,,,,,,,,,,,,,,,,,,,,,,,,,,,,,,,,,,,,,,,,,,,,,,,,,,,,,,,,,,,,,,,,,,,,,,,,,,,,,,,,,,,,,,,,,,,,,,,,,,,,,,,,,,,,,,
,,65b2e96958c28d5efd354635,2024-02-21_21h26.21.230,kallum_motion_pilot,2023.2.2,Win32,59.52380952,65b2e96958c28d5efd354635,65d6bb0e977760de756971f7,65d6beca265c1952ee891fc4,0.0362,0.0363,0,44,44,6,1,fourtwo,,,,,,,,,,,,,,,,,,,,,,,,,,,,,,,,,,,,,,,,,,,,,,,,,,,,,,,,,,,,,,,,,,,,,,,,,,,,,,,,,,,,,,,,,,,,,,,,,,,,,,,,,,,,,,,,,,,,,,,,,,,,,,,,,,,,,,,,,
,,65b2e96958c28d5efd354635,2024-02-21_21h26.21.230,kallum_motion_pilot,2023.2.2,Win32,59.52380952,65b2e96958c28d5efd354635,65d6bb0e977760de756971f7,65d6beca265c1952ee891fc4,0.0364,0.0365,0,45,45,142,1,eightsix,,,,,,,,,,,,,,,,,,,,,,,,,,,,,,,,,,,,,,,,,,,,,,,,,,,,,,,,,,,,,,,,,,,,,,,,,,,,,,,,,,,,,,,,,,,,,,,,,,,,,,,,,,,,,,,,,,,,,,,,,,,,,,,,,,,,,,,,,
,,65b2e96958c28d5efd354635,2024-02-21_21h26.21.230,kallum_motion_pilot,2023.2.2,Win32,59.52380952,65b2e96958c28d5efd354635,65d6bb0e977760de756971f7,65d6beca265c1952ee891fc4,0.0366,0.0367,0,46,46,10,1,twoone,,,,,,,,,,,,,,,,,,,,,,,,,,,,,,,,,,,,,,,,,,,,,,,,,,,,,,,,,,,,,,,,,,,,,,,,,,,,,,,,,,,,,,,,,,,,,,,,,,,,,,,,,,,,,,,,,,,,,,,,,,,,,,,,,,,,,,,,,
,,65b2e96958c28d5efd354635,2024-02-21_21h26.21.230,kallum_motion_pilot,2023.2.2,Win32,59.52380952,65b2e96958c28d5efd354635,65d6bb0e977760de756971f7,65d6beca265c1952ee891fc4,0.0368,0.0369,0,47,47,2,1,twoone,,,,,,,,,,,,,,,,,,,,,,,,,,,,,,,,,,,,,,,,,,,,,,,,,,,,,,,,,,,,,,,,,,,,,,,,,,,,,,,,,,,,,,,,,,,,,,,,,,,,,,,,,,,,,,,,,,,,,,,,,,,,,,,,,,,,,,,,,
,,65b2e96958c28d5efd354635,2024-02-21_21h26.21.230,kallum_motion_pilot,2023.2.2,Win32,59.52380952,65b2e96958c28d5efd354635,65d6bb0e977760de756971f7,65d6beca265c1952ee891fc4,0.037,0.0371,0,48,48,23,1,fourthree,,,,,,,,,,,,,,,,,,,,,,,,,,,,,,,,,,,,,,,,,,,,,,,,,,,,,,,,,,,,,,,,,,,,,,,,,,,,,,,,,,,,,,,,,,,,,,,,,,,,,,,,,,,,,,,,,,,,,,,,,,,,,,,,,,,,,,,,,
,,65b2e96958c28d5efd354635,2024-02-21_21h26.21.230,kallum_motion_pilot,2023.2.2,Win32,59.52380952,65b2e96958c28d5efd354635,65d6bb0e977760de756971f7,65d6beca265c1952ee891fc4,0.0372,0.0373,0,49,49,123,1,sixeight,,,,,,,,,,,,,,,,,,,,,,,,,,,,,,,,,,,,,,,,,,,,,,,,,,,,,,,,,,,,,,,,,,,,,,,,,,,,,,,,,,,,,,,,,,,,,,,,,,,,,,,,,,,,,,,,,,,,,,,,,,,,,,,,,,,,,,,,,
,,65b2e96958c28d5efd354635,2024-02-21_21h26.21.230,kallum_motion_pilot,2023.2.2,Win32,59.52380952,65b2e96958c28d5efd354635,65d6bb0e977760de756971f7,65d6beca265c1952ee891fc4,0.0375,0.0375,0,50,50,116,1,sevenfive,,,,,,,,,,,,,,,,,,,,,,,,,,,,,,,,,,,,,,,,,,,,,,,,,,,,,,,,,,,,,,,,,,,,,,,,,,,,,,,,,,,,,,,,,,,,,,,,,,,,,,,,,,,,,,,,,,,,,,,,,,,,,,,,,,,,,,,,,
,,65b2e96958c28d5efd354635,2024-02-21_21h26.21.230,kallum_motion_pilot,2023.2.2,Win32,59.52380952,65b2e96958c28d5efd354635,65d6bb0e977760de756971f7,65d6beca265c1952ee891fc4,0.0377,0.0377,0,51,51,153,1,fiveseven,,,,,,,,,,,,,,,,,,,,,,,,,,,,,,,,,,,,,,,,,,,,,,,,,,,,,,,,,,,,,,,,,,,,,,,,,,,,,,,,,,,,,,,,,,,,,,,,,,,,,,,,,,,,,,,,,,,,,,,,,,,,,,,,,,,,,,,,,
,,65b2e96958c28d5efd354635,2024-02-21_21h26.21.230,kallum_motion_pilot,2023.2.2,Win32,59.52380952,65b2e96958c28d5efd354635,65d6bb0e977760de756971f7,65d6beca265c1952ee891fc4,0.0379,0.038,0,52,52,104,1,fivesix,,,,,,,,,,,,,,,,,,,,,,,,,,,,,,,,,,,,,,,,,,,,,,,,,,,,,,,,,,,,,,,,,,,,,,,,,,,,,,,,,,,,,,,,,,,,,,,,,,,,,,,,,,,,,,,,,,,,,,,,,,,,,,,,,,,,,,,,,
,,65b2e96958c28d5efd354635,2024-02-21_21h26.21.230,kallum_motion_pilot,2023.2.2,Win32,59.52380952,65b2e96958c28d5efd354635,65d6bb0e977760de756971f7,65d6beca265c1952ee891fc4,0.0383,0.0383,0,53,53,36,1,threeone,,,,,,,,,,,,,,,,,,,,,,,,,,,,,,,,,,,,,,,,,,,,,,,,,,,,,,,,,,,,,,,,,,,,,,,,,,,,,,,,,,,,,,,,,,,,,,,,,,,,,,,,,,,,,,,,,,,,,,,,,,,,,,,,,,,,,,,,,
,,65b2e96958c28d5efd354635,2024-02-21_21h26.21.230,kallum_motion_pilot,2023.2.2,Win32,59.52380952,65b2e96958c28d5efd354635,65d6bb0e977760de756971f7,65d6beca265c1952ee891fc4,0.0384,0.0385,0,54,54,29,1,threefour,,,,,,,,,,,,,,,,,,,,,,,,,,,,,,,,,,,,,,,,,,,,,,,,,,,,,,,,,,,,,,,,,,,,,,,,,,,,,,,,,,,,,,,,,,,,,,,,,,,,,,,,,,,,,,,,,,,,,,,,,,,,,,,,,,,,,,,,,
,,65b2e96958c28d5efd354635,2024-02-21_21h26.21.230,kallum_motion_pilot,2023.2.2,Win32,59.52380952,65b2e96958c28d5efd354635,65d6bb0e977760de756971f7,65d6beca265c1952ee891fc4,0.0387,0.0387,0,55,55,91,1,sixeight,,,,,,,,,,,,,,,,,,,,,,,,,,,,,,,,,,,,,,,,,,,,,,,,,,,,,,,,,,,,,,,,,,,,,,,,,,,,,,,,,,,,,,,,,,,,,,,,,,,,,,,,,,,,,,,,,,,,,,,,,,,,,,,,,,,,,,,,,
,,65b2e96958c28d5efd354635,2024-02-21_21h26.21.230,kallum_motion_pilot,2023.2.2,Win32,59.52380952,65b2e96958c28d5efd354635,65d6bb0e977760de756971f7,65d6beca265c1952ee891fc4,0.0389,0.0391,0,56,56,13,1,threefour,,,,,,,,,,,,,,,,,,,,,,,,,,,,,,,,,,,,,,,,,,,,,,,,,,,,,,,,,,,,,,,,,,,,,,,,,,,,,,,,,,,,,,,,,,,,,,,,,,,,,,,,,,,,,,,,,,,,,,,,,,,,,,,,,,,,,,,,,
,,65b2e96958c28d5efd354635,2024-02-21_21h26.21.230,kallum_motion_pilot,2023.2.2,Win32,59.52380952,65b2e96958c28d5efd354635,65d6bb0e977760de756971f7,65d6beca265c1952ee891fc4,0.0393,0.0393,0,57,57,119,1,eightseven,,,,,,,,,,,,,,,,,,,,,,,,,,,,,,,,,,,,,,,,,,,,,,,,,,,,,,,,,,,,,,,,,,,,,,,,,,,,,,,,,,,,,,,,,,,,,,,,,,,,,,,,,,,,,,,,,,,,,,,,,,,,,,,,,,,,,,,,,
,,65b2e96958c28d5efd354635,2024-02-21_21h26.21.230,kallum_motion_pilot,2023.2.2,Win32,59.52380952,65b2e96958c28d5efd354635,65d6bb0e977760de756971f7,65d6beca265c1952ee891fc4,0.0395,0.0397,0,58,58,94,1,eightsix,,,,,,,,,,,,,,,,,,,,,,,,,,,,,,,,,,,,,,,,,,,,,,,,,,,,,,,,,,,,,,,,,,,,,,,,,,,,,,,,,,,,,,,,,,,,,,,,,,,,,,,,,,,,,,,,,,,,,,,,,,,,,,,,,,,,,,,,,
,,65b2e96958c28d5efd354635,2024-02-21_21h26.21.230,kallum_motion_pilot,2023.2.2,Win32,59.52380952,65b2e96958c28d5efd354635,65d6bb0e977760de756971f7,65d6beca265c1952ee891fc4,0.04,0.0401,0,59,59,16,1,onetwo,,,,,,,,,,,,,,,,,,,,,,,,,,,,,,,,,,,,,,,,,,,,,,,,,,,,,,,,,,,,,,,,,,,,,,,,,,,,,,,,,,,,,,,,,,,,,,,,,,,,,,,,,,,,,,,,,,,,,,,,,,,,,,,,,,,,,,,,,
,,65b2e96958c28d5efd354635,2024-02-21_21h26.21.230,kallum_motion_pilot,2023.2.2,Win32,59.52380952,65b2e96958c28d5efd354635,65d6bb0e977760de756971f7,65d6beca265c1952ee891fc4,0.0403,0.0404,0,60,60,5,1,threefour,,,,,,,,,,,,,,,,,,,,,,,,,,,,,,,,,,,,,,,,,,,,,,,,,,,,,,,,,,,,,,,,,,,,,,,,,,,,,,,,,,,,,,,,,,,,,,,,,,,,,,,,,,,,,,,,,,,,,,,,,,,,,,,,,,,,,,,,,
,,65b2e96958c28d5efd354635,2024-02-21_21h26.21.230,kallum_motion_pilot,2023.2.2,Win32,59.52380952,65b2e96958c28d5efd354635,65d6bb0e977760de756971f7,65d6beca265c1952ee891fc4,0.0406,0.0407,0,61,61,143,1,eightseven,,,,,,,,,,,,,,,,,,,,,,,,,,,,,,,,,,,,,,,,,,,,,,,,,,,,,,,,,,,,,,,,,,,,,,,,,,,,,,,,,,,,,,,,,,,,,,,,,,,,,,,,,,,,,,,,,,,,,,,,,,,,,,,,,,,,,,,,,
,,65b2e96958c28d5efd354635,2024-02-21_21h26.21.230,kallum_motion_pilot,2023.2.2,Win32,59.52380952,65b2e96958c28d5efd354635,65d6bb0e977760de756971f7,65d6beca265c1952ee891fc4,0.0409,0.041,0,62,62,160,1,fivesix,,,,,,,,,,,,,,,,,,,,,,,,,,,,,,,,,,,,,,,,,,,,,,,,,,,,,,,,,,,,,,,,,,,,,,,,,,,,,,,,,,,,,,,,,,,,,,,,,,,,,,,,,,,,,,,,,,,,,,,,,,,,,,,,,,,,,,,,,
,,65b2e96958c28d5efd354635,2024-02-21_21h26.21.230,kallum_motion_pilot,2023.2.2,Win32,59.52380952,65b2e96958c28d5efd354635,65d6bb0e977760de756971f7,65d6beca265c1952ee891fc4,0.0412,0.0413,0,63,63,114,1,sixfive,,,,,,,,,,,,,,,,,,,,,,,,,,,,,,,,,,,,,,,,,,,,,,,,,,,,,,,,,,,,,,,,,,,,,,,,,,,,,,,,,,,,,,,,,,,,,,,,,,,,,,,,,,,,,,,,,,,,,,,,,,,,,,,,,,,,,,,,,
,,65b2e96958c28d5efd354635,2024-02-21_21h26.21.230,kallum_motion_pilot,2023.2.2,Win32,59.52380952,65b2e96958c28d5efd354635,65d6bb0e977760de756971f7,65d6beca265c1952ee891fc4,0.0415,0.0416,0,64,64,8,1,onetwo,,,,,,,,,,,,,,,,,,,,,,,,,,,,,,,,,,,,,,,,,,,,,,,,,,,,,,,,,,,,,,,,,,,,,,,,,,,,,,,,,,,,,,,,,,,,,,,,,,,,,,,,,,,,,,,,,,,,,,,,,,,,,,,,,,,,,,,,,
,,65b2e96958c28d5efd354635,2024-02-21_21h26.21.230,kallum_motion_pilot,2023.2.2,Win32,59.52380952,65b2e96958c28d5efd354635,65d6bb0e977760de756971f7,65d6beca265c1952ee891fc4,0.0417,0.0418,0,65,65,83,1,sixeight,,,,,,,,,,,,,,,,,,,,,,,,,,,,,,,,,,,,,,,,,,,,,,,,,,,,,,,,,,,,,,,,,,,,,,,,,,,,,,,,,,,,,,,,,,,,,,,,,,,,,,,,,,,,,,,,,,,,,,,,,,,,,,,,,,,,,,,,,
,,65b2e96958c28d5efd354635,2024-02-21_21h26.21.230,kallum_motion_pilot,2023.2.2,Win32,59.52380952,65b2e96958c28d5efd354635,65d6bb0e977760de756971f7,65d6beca265c1952ee891fc4,0.0421,0.0421,0,66,66,99,1,sixeight,,,,,,,,,,,,,,,,,,,,,,,,,,,,,,,,,,,,,,,,,,,,,,,,,,,,,,,,,,,,,,,,,,,,,,,,,,,,,,,,,,,,,,,,,,,,,,,,,,,,,,,,,,,,,,,,,,,,,,,,,,,,,,,,,,,,,,,,,
,,65b2e96958c28d5efd354635,2024-02-21_21h26.21.230,kallum_motion_pilot,2023.2.2,Win32,59.52380952,65b2e96958c28d5efd354635,65d6bb0e977760de756971f7,65d6beca265c1952ee891fc4,0.0423,0.0424,0,67,67,26,1,twoone,,,,,,,,,,,,,,,,,,,,,,,,,,,,,,,,,,,,,,,,,,,,,,,,,,,,,,,,,,,,,,,,,,,,,,,,,,,,,,,,,,,,,,,,,,,,,,,,,,,,,,,,,,,,,,,,,,,,,,,,,,,,,,,,,,,,,,,,,
,,65b2e96958c28d5efd354635,2024-02-21_21h26.21.230,kallum_motion_pilot,2023.2.2,Win32,59.52380952,65b2e96958c28d5efd354635,65d6bb0e977760de756971f7,65d6beca265c1952ee891fc4,0.0426,0.0427,0,68,68,12,1,threeone,,,,,,,,,,,,,,,,,,,,,,,,,,,,,,,,,,,,,,,,,,,,,,,,,,,,,,,,,,,,,,,,,,,,,,,,,,,,,,,,,,,,,,,,,,,,,,,,,,,,,,,,,,,,,,,,,,,,,,,,,,,,,,,,,,,,,,,,,
,,65b2e96958c28d5efd354635,2024-02-21_21h26.21.230,kallum_motion_pilot,2023.2.2,Win32,59.52380952,65b2e96958c28d5efd354635,65d6bb0e977760de756971f7,65d6beca265c1952ee891fc4,0.0428,0.0428,0,69,69,71,1,fourthree,,,,,,,,,,,,,,,,,,,,,,,,,,,,,,,,,,,,,,,,,,,,,,,,,,,,,,,,,,,,,,,,,,,,,,,,,,,,,,,,,,,,,,,,,,,,,,,,,,,,,,,,,,,,,,,,,,,,,,,,,,,,,,,,,,,,,,,,,
,,65b2e96958c28d5efd354635,2024-02-21_21h26.21.230,kallum_motion_pilot,2023.2.2,Win32,59.52380952,65b2e96958c28d5efd354635,65d6bb0e977760de756971f7,65d6beca265c1952ee891fc4,0.043,0.0431,0,70,70,137,1,fiveseven,,,,,,,,,,,,,,,,,,,,,,,,,,,,,,,,,,,,,,,,,,,,,,,,,,,,,,,,,,,,,,,,,,,,,,,,,,,,,,,,,,,,,,,,,,,,,,,,,,,,,,,,,,,,,,,,,,,,,,,,,,,,,,,,,,,,,,,,,
,,65b2e96958c28d5efd354635,2024-02-21_21h26.21.230,kallum_motion_pilot,2023.2.2,Win32,59.52380952,65b2e96958c28d5efd354635,65d6bb0e977760de756971f7,65d6beca265c1952ee891fc4,0.0433,0.0434,0,71,71,72,1,onetwo,,,,,,,,,,,,,,,,,,,,,,,,,,,,,,,,,,,,,,,,,,,,,,,,,,,,,,,,,,,,,,,,,,,,,,,,,,,,,,,,,,,,,,,,,,,,,,,,,,,,,,,,,,,,,,,,,,,,,,,,,,,,,,,,,,,,,,,,,
,,65b2e96958c28d5efd354635,2024-02-21_21h26.21.230,kallum_motion_pilot,2023.2.2,Win32,59.52380952,65b2e96958c28d5efd354635,65d6bb0e977760de756971f7,65d6beca265c1952ee891fc4,0.0436,0.0436,0,72,72,157,1,seveneight,,,,,,,,,,,,,,,,,,,,,,,,,,,,,,,,,,,,,,,,,,,,,,,,,,,,,,,,,,,,,,,,,,,,,,,,,,,,,,,,,,,,,,,,,,,,,,,,,,,,,,,,,,,,,,,,,,,,,,,,,,,,,,,,,,,,,,,,,
,,65b2e96958c28d5efd354635,2024-02-21_21h26.21.230,kallum_motion_pilot,2023.2.2,Win32,59.52380952,65b2e96958c28d5efd354635,65d6bb0e977760de756971f7,65d6beca265c1952ee891fc4,0.0438,0.0439,0,73,73,118,1,eightsix,,,,,,,,,,,,,,,,,,,,,,,,,,,,,,,,,,,,,,,,,,,,,,,,,,,,,,,,,,,,,,,,,,,,,,,,,,,,,,,,,,,,,,,,,,,,,,,,,,,,,,,,,,,,,,,,,,,,,,,,,,,,,,,,,,,,,,,,,
,,65b2e96958c28d5efd354635,2024-02-21_21h26.21.230,kallum_motion_pilot,2023.2.2,Win32,59.52380952,65b2e96958c28d5efd354635,65d6bb0e977760de756971f7,65d6beca265c1952ee891fc4,0.044,0.0441,0,74,74,1,1,onethree,,,,,,,,,,,,,,,,,,,,,,,,,,,,,,,,,,,,,,,,,,,,,,,,,,,,,,,,,,,,,,,,,,,,,,,,,,,,,,,,,,,,,,,,,,,,,,,,,,,,,,,,,,,,,,,,,,,,,,,,,,,,,,,,,,,,,,,,,
,,65b2e96958c28d5efd354635,2024-02-21_21h26.21.230,kallum_motion_pilot,2023.2.2,Win32,59.52380952,65b2e96958c28d5efd354635,65d6bb0e977760de756971f7,65d6beca265c1952ee891fc4,0.0442,0.0442,0,75,75,129,1,fiveseven,,,,,,,,,,,,,,,,,,,,,,,,,,,,,,,,,,,,,,,,,,,,,,,,,,,,,,,,,,,,,,,,,,,,,,,,,,,,,,,,,,,,,,,,,,,,,,,,,,,,,,,,,,,,,,,,,,,,,,,,,,,,,,,,,,,,,,,,,
,,65b2e96958c28d5efd354635,2024-02-21_21h26.21.230,kallum_motion_pilot,2023.2.2,Win32,59.52380952,65b2e96958c28d5efd354635,65d6bb0e977760de756971f7,65d6beca265c1952ee891fc4,0.0443,0.0444,0,76,76,20,1,threeone,,,,,,,,,,,,,,,,,,,,,,,,,,,,,,,,,,,,,,,,,,,,,,,,,,,,,,,,,,,,,,,,,,,,,,,,,,,,,,,,,,,,,,,,,,,,,,,,,,,,,,,,,,,,,,,,,,,,,,,,,,,,,,,,,,,,,,,,,
,,65b2e96958c28d5efd354635,2024-02-21_21h26.21.230,kallum_motion_pilot,2023.2.2,Win32,59.52380952,65b2e96958c28d5efd354635,65d6bb0e977760de756971f7,65d6beca265c1952ee891fc4,0.0445,0.0446,0,77,77,55,1,fourthree,,,,,,,,,,,,,,,,,,,,,,,,,,,,,,,,,,,,,,,,,,,,,,,,,,,,,,,,,,,,,,,,,,,,,,,,,,,,,,,,,,,,,,,,,,,,,,,,,,,,,,,,,,,,,,,,,,,,,,,,,,,,,,,,,,,,,,,,,
,,65b2e96958c28d5efd354635,2024-02-21_21h26.21.230,kallum_motion_pilot,2023.2.2,Win32,59.52380952,65b2e96958c28d5efd354635,65d6bb0e977760de756971f7,65d6beca265c1952ee891fc4,0.0447,0.0448,0,78,78,92,1,sevenfive,,,,,,,,,,,,,,,,,,,,,,,,,,,,,,,,,,,,,,,,,,,,,,,,,,,,,,,,,,,,,,,,,,,,,,,,,,,,,,,,,,,,,,,,,,,,,,,,,,,,,,,,,,,,,,,,,,,,,,,,,,,,,,,,,,,,,,,,,
,,65b2e96958c28d5efd354635,2024-02-21_21h26.21.230,kallum_motion_pilot,2023.2.2,Win32,59.52380952,65b2e96958c28d5efd354635,65d6bb0e977760de756971f7,65d6beca265c1952ee891fc4,0.0449,0.0449,0,79,79,31,1,fourthree,,,,,,,,,,,,,,,,,,,,,,,,,,,,,,,,,,,,,,,,,,,,,,,,,,,,,,,,,,,,,,,,,,,,,,,,,,,,,,,,,,,,,,,,,,,,,,,,,,,,,,,,,,,,,,,,,,,,,,,,,,,,,,,,,,,,,,,,,
,,65b2e96958c28d5efd354635,2024-02-21_21h26.21.230,kallum_motion_pilot,2023.2.2,Win32,59.52380952,65b2e96958c28d5efd354635,65d6bb0e977760de756971f7,65d6beca265c1952ee891fc4,0.045,0.0451,0,80,80,14,1,fourtwo,,,,,,,,,,,,,,,,,,,,,,,,,,,,,,,,,,,,,,,,,,,,,,,,,,,,,,,,,,,,,,,,,,,,,,,,,,,,,,,,,,,,,,,,,,,,,,,,,,,,,,,,,,,,,,,,,,,,,,,,,,,,,,,,,,,,,,,,,
,,65b2e96958c28d5efd354635,2024-02-21_21h26.21.230,kallum_motion_pilot,2023.2.2,Win32,59.52380952,65b2e96958c28d5efd354635,65d6bb0e977760de756971f7,65d6beca265c1952ee891fc4,0.0452,0.0453,0,81,81,90,1,sixfive,,,,,,,,,,,,,,,,,,,,,,,,,,,,,,,,,,,,,,,,,,,,,,,,,,,,,,,,,,,,,,,,,,,,,,,,,,,,,,,,,,,,,,,,,,,,,,,,,,,,,,,,,,,,,,,,,,,,,,,,,,,,,,,,,,,,,,,,,
,,65b2e96958c28d5efd354635,2024-02-21_21h26.21.230,kallum_motion_pilot,2023.2.2,Win32,59.52380952,65b2e96958c28d5efd354635,65d6bb0e977760de756971f7,65d6beca265c1952ee891fc4,0.0454,0.0454,0,82,82,17,1,onethree,,,,,,,,,,,,,,,,,,,,,,,,,,,,,,,,,,,,,,,,,,,,,,,,,,,,,,,,,,,,,,,,,,,,,,,,,,,,,,,,,,,,,,,,,,,,,,,,,,,,,,,,,,,,,,,,,,,,,,,,,,,,,,,,,,,,,,,,,
,,65b2e96958c28d5efd354635,2024-02-21_21h26.21.230,kallum_motion_pilot,2023.2.2,Win32,59.52380952,65b2e96958c28d5efd354635,65d6bb0e977760de756971f7,65d6beca265c1952ee891fc4,0.0456,0.0456,0,83,83,28,1,threeone,,,,,,,,,,,,,,,,,,,,,,,,,,,,,,,,,,,,,,,,,,,,,,,,,,,,,,,,,,,,,,,,,,,,,,,,,,,,,,,,,,,,,,,,,,,,,,,,,,,,,,,,,,,,,,,,,,,,,,,,,,,,,,,,,,,,,,,,,
,,65b2e96958c28d5efd354635,2024-02-21_21h26.21.230,kallum_motion_pilot,2023.2.2,Win32,59.52380952,65b2e96958c28d5efd354635,65d6bb0e977760de756971f7,65d6beca265c1952ee891fc4,0.0458,0.0459,0,84,84,22,1,fourtwo,,,,,,,,,,,,,,,,,,,,,,,,,,,,,,,,,,,,,,,,,,,,,,,,,,,,,,,,,,,,,,,,,,,,,,,,,,,,,,,,,,,,,,,,,,,,,,,,,,,,,,,,,,,,,,,,,,,,,,,,,,,,,,,,,,,,,,,,,
,,65b2e96958c28d5efd354635,2024-02-21_21h26.21.230,kallum_motion_pilot,2023.2.2,Win32,59.52380952,65b2e96958c28d5efd354635,65d6bb0e977760de756971f7,65d6beca265c1952ee891fc4,0.046,0.046,0,85,85,49,1,onethree,,,,,,,,,,,,,,,,,,,,,,,,,,,,,,,,,,,,,,,,,,,,,,,,,,,,,,,,,,,,,,,,,,,,,,,,,,,,,,,,,,,,,,,,,,,,,,,,,,,,,,,,,,,,,,,,,,,,,,,,,,,,,,,,,,,,,,,,,
,,65b2e96958c28d5efd354635,2024-02-21_21h26.21.230,kallum_motion_pilot,2023.2.2,Win32,59.52380952,65b2e96958c28d5efd354635,65d6bb0e977760de756971f7,65d6beca265c1952ee891fc4,0.0462,0.0463,0,86,86,115,1,sixeight,,,,,,,,,,,,,,,,,,,,,,,,,,,,,,,,,,,,,,,,,,,,,,,,,,,,,,,,,,,,,,,,,,,,,,,,,,,,,,,,,,,,,,,,,,,,,,,,,,,,,,,,,,,,,,,,,,,,,,,,,,,,,,,,,,,,,,,,,
,,65b2e96958c28d5efd354635,2024-02-21_21h26.21.230,kallum_motion_pilot,2023.2.2,Win32,59.52380952,65b2e96958c28d5efd354635,65d6bb0e977760de756971f7,65d6beca265c1952ee891fc4,0.0465,0.0466,0,87,87,66,1,twoone,,,,,,,,,,,,,,,,,,,,,,,,,,,,,,,,,,,,,,,,,,,,,,,,,,,,,,,,,,,,,,,,,,,,,,,,,,,,,,,,,,,,,,,,,,,,,,,,,,,,,,,,,,,,,,,,,,,,,,,,,,,,,,,,,,,,,,,,,
,,65b2e96958c28d5efd354635,2024-02-21_21h26.21.230,kallum_motion_pilot,2023.2.2,Win32,59.52380952,65b2e96958c28d5efd354635,65d6bb0e977760de756971f7,65d6beca265c1952ee891fc4,0.0466,0.0467,0,88,88,52,1,threeone,,,,,,,,,,,,,,,,,,,,,,,,,,,,,,,,,,,,,,,,,,,,,,,,,,,,,,,,,,,,,,,,,,,,,,,,,,,,,,,,,,,,,,,,,,,,,,,,,,,,,,,,,,,,,,,,,,,,,,,,,,,,,,,,,,,,,,,,,
,,65b2e96958c28d5efd354635,2024-02-21_21h26.21.230,kallum_motion_pilot,2023.2.2,Win32,59.52380952,65b2e96958c28d5efd354635,65d6bb0e977760de756971f7,65d6beca265c1952ee891fc4,0.0468,0.0469,0,89,89,69,1,threefour,,,,,,,,,,,,,,,,,,,,,,,,,,,,,,,,,,,,,,,,,,,,,,,,,,,,,,,,,,,,,,,,,,,,,,,,,,,,,,,,,,,,,,,,,,,,,,,,,,,,,,,,,,,,,,,,,,,,,,,,,,,,,,,,,,,,,,,,,
,,65b2e96958c28d5efd354635,2024-02-21_21h26.21.230,kallum_motion_pilot,2023.2.2,Win32,59.52380952,65b2e96958c28d5efd354635,65d6bb0e977760de756971f7,65d6beca265c1952ee891fc4,0.047,0.047,0,90,90,67,1,twofour,,,,,,,,,,,,,,,,,,,,,,,,,,,,,,,,,,,,,,,,,,,,,,,,,,,,,,,,,,,,,,,,,,,,,,,,,,,,,,,,,,,,,,,,,,,,,,,,,,,,,,,,,,,,,,,,,,,,,,,,,,,,,,,,,,,,,,,,,
,,65b2e96958c28d5efd354635,2024-02-21_21h26.21.230,kallum_motion_pilot,2023.2.2,Win32,59.52380952,65b2e96958c28d5efd354635,65d6bb0e977760de756971f7,65d6beca265c1952ee891fc4,0.0471,0.0472,0,91,91,53,1,threefour,,,,,,,,,,,,,,,,,,,,,,,,,,,,,,,,,,,,,,,,,,,,,,,,,,,,,,,,,,,,,,,,,,,,,,,,,,,,,,,,,,,,,,,,,,,,,,,,,,,,,,,,,,,,,,,,,,,,,,,,,,,,,,,,,,,,,,,,,
,,65b2e96958c28d5efd354635,2024-02-21_21h26.21.230,kallum_motion_pilot,2023.2.2,Win32,59.52380952,65b2e96958c28d5efd354635,65d6bb0e977760de756971f7,65d6beca265c1952ee891fc4,0.0473,0.0473,0,92,92,100,1,sevenfive,,,,,,,,,,,,,,,,,,,,,,,,,,,,,,,,,,,,,,,,,,,,,,,,,,,,,,,,,,,,,,,,,,,,,,,,,,,,,,,,,,,,,,,,,,,,,,,,,,,,,,,,,,,,,,,,,,,,,,,,,,,,,,,,,,,,,,,,,
,,65b2e96958c28d5efd354635,2024-02-21_21h26.21.230,kallum_motion_pilot,2023.2.2,Win32,59.52380952,65b2e96958c28d5efd354635,65d6bb0e977760de756971f7,65d6beca265c1952ee891fc4,0.0475,0.0475,0,93,93,9,1,onethree,,,,,,,,,,,,,,,,,,,,,,,,,,,,,,,,,,,,,,,,,,,,,,,,,,,,,,,,,,,,,,,,,,,,,,,,,,,,,,,,,,,,,,,,,,,,,,,,,,,,,,,,,,,,,,,,,,,,,,,,,,,,,,,,,,,,,,,,,
,,65b2e96958c28d5efd354635,2024-02-21_21h26.21.230,kallum_motion_pilot,2023.2.2,Win32,59.52380952,65b2e96958c28d5efd354635,65d6bb0e977760de756971f7,65d6beca265c1952ee891fc4,0.0476,0.0477,0,94,94,127,1,eightseven,,,,,,,,,,,,,,,,,,,,,,,,,,,,,,,,,,,,,,,,,,,,,,,,,,,,,,,,,,,,,,,,,,,,,,,,,,,,,,,,,,,,,,,,,,,,,,,,,,,,,,,,,,,,,,,,,,,,,,,,,,,,,,,,,,,,,,,,,
,,65b2e96958c28d5efd354635,2024-02-21_21h26.21.230,kallum_motion_pilot,2023.2.2,Win32,59.52380952,65b2e96958c28d5efd354635,65d6bb0e977760de756971f7,65d6beca265c1952ee891fc4,0.0478,0.0479,0,95,95,46,1,fourtwo,,,,,,,,,,,,,,,,,,,,,,,,,,,,,,,,,,,,,,,,,,,,,,,,,,,,,,,,,,,,,,,,,,,,,,,,,,,,,,,,,,,,,,,,,,,,,,,,,,,,,,,,,,,,,,,,,,,,,,,,,,,,,,,,,,,,,,,,,
,,65b2e96958c28d5efd354635,2024-02-21_21h26.21.230,kallum_motion_pilot,2023.2.2,Win32,59.52380952,65b2e96958c28d5efd354635,65d6bb0e977760de756971f7,65d6beca265c1952ee891fc4,0.048,0.0481,0,96,96,134,1,eightsix,,,,,,,,,,,,,,,,,,,,,,,,,,,,,,,,,,,,,,,,,,,,,,,,,,,,,,,,,,,,,,,,,,,,,,,,,,,,,,,,,,,,,,,,,,,,,,,,,,,,,,,,,,,,,,,,,,,,,,,,,,,,,,,,,,,,,,,,,
,,65b2e96958c28d5efd354635,2024-02-21_21h26.21.230,kallum_motion_pilot,2023.2.2,Win32,59.52380952,65b2e96958c28d5efd354635,65d6bb0e977760de756971f7,65d6beca265c1952ee891fc4,0.0483,0.0483,0,97,97,74,1,twoone,,,,,,,,,,,,,,,,,,,,,,,,,,,,,,,,,,,,,,,,,,,,,,,,,,,,,,,,,,,,,,,,,,,,,,,,,,,,,,,,,,,,,,,,,,,,,,,,,,,,,,,,,,,,,,,,,,,,,,,,,,,,,,,,,,,,,,,,,
,,65b2e96958c28d5efd354635,2024-02-21_21h26.21.230,kallum_motion_pilot,2023.2.2,Win32,59.52380952,65b2e96958c28d5efd354635,65d6bb0e977760de756971f7,65d6beca265c1952ee891fc4,0.0484,0.0484,0,98,98,15,1,fourthree,,,,,,,,,,,,,,,,,,,,,,,,,,,,,,,,,,,,,,,,,,,,,,,,,,,,,,,,,,,,,,,,,,,,,,,,,,,,,,,,,,,,,,,,,,,,,,,,,,,,,,,,,,,,,,,,,,,,,,,,,,,,,,,,,,,,,,,,,
,,65b2e96958c28d5efd354635,2024-02-21_21h26.21.230,kallum_motion_pilot,2023.2.2,Win32,59.52380952,65b2e96958c28d5efd354635,65d6bb0e977760de756971f7,65d6beca265c1952ee891fc4,0.0485,0.0487,0,99,99,159,1,eightseven,,,,,,,,,,,,,,,,,,,,,,,,,,,,,,,,,,,,,,,,,,,,,,,,,,,,,,,,,,,,,,,,,,,,,,,,,,,,,,,,,,,,,,,,,,,,,,,,,,,,,,,,,,,,,,,,,,,,,,,,,,,,,,,,,,,,,,,,,
,,65b2e96958c28d5efd354635,2024-02-21_21h26.21.230,kallum_motion_pilot,2023.2.2,Win32,59.52380952,65b2e96958c28d5efd354635,65d6bb0e977760de756971f7,65d6beca265c1952ee891fc4,0.0487,0.0488,0,100,100,149,1,seveneight,,,,,,,,,,,,,,,,,,,,,,,,,,,,,,,,,,,,,,,,,,,,,,,,,,,,,,,,,,,,,,,,,,,,,,,,,,,,,,,,,,,,,,,,,,,,,,,,,,,,,,,,,,,,,,,,,,,,,,,,,,,,,,,,,,,,,,,,,
,,65b2e96958c28d5efd354635,2024-02-21_21h26.21.230,kallum_motion_pilot,2023.2.2,Win32,59.52380952,65b2e96958c28d5efd354635,65d6bb0e977760de756971f7,65d6beca265c1952ee891fc4,0.0489,0.049,0,101,101,45,1,threefour,,,,,,,,,,,,,,,,,,,,,,,,,,,,,,,,,,,,,,,,,,,,,,,,,,,,,,,,,,,,,,,,,,,,,,,,,,,,,,,,,,,,,,,,,,,,,,,,,,,,,,,,,,,,,,,,,,,,,,,,,,,,,,,,,,,,,,,,,
,,65b2e96958c28d5efd354635,2024-02-21_21h26.21.230,kallum_motion_pilot,2023.2.2,Win32,59.52380952,65b2e96958c28d5efd354635,65d6bb0e977760de756971f7,65d6beca265c1952ee891fc4,0.0491,0.0492,0,102,102,106,1,sixfive,,,,,,,,,,,,,,,,,,,,,,,,,,,,,,,,,,,,,,,,,,,,,,,,,,,,,,,,,,,,,,,,,,,,,,,,,,,,,,,,,,,,,,,,,,,,,,,,,,,,,,,,,,,,,,,,,,,,,,,,,,,,,,,,,,,,,,,,,
,,65b2e96958c28d5efd354635,2024-02-21_21h26.21.230,kallum_motion_pilot,2023.2.2,Win32,59.52380952,65b2e96958c28d5efd354635,65d6bb0e977760de756971f7,65d6beca265c1952ee891fc4,0.0493,0.0493,0,103,103,41,1,onethree,,,,,,,,,,,,,,,,,,,,,,,,,,,,,,,,,,,,,,,,,,,,,,,,,,,,,,,,,,,,,,,,,,,,,,,,,,,,,,,,,,,,,,,,,,,,,,,,,,,,,,,,,,,,,,,,,,,,,,,,,,,,,,,,,,,,,,,,,
,,65b2e96958c28d5efd354635,2024-02-21_21h26.21.230,kallum_motion_pilot,2023.2.2,Win32,59.52380952,65b2e96958c28d5efd354635,65d6bb0e977760de756971f7,65d6beca265c1952ee891fc4,0.0494,0.0496,0,104,104,144,1,fivesix,,,,,,,,,,,,,,,,,,,,,,,,,,,,,,,,,,,,,,,,,,,,,,,,,,,,,,,,,,,,,,,,,,,,,,,,,,,,,,,,,,,,,,,,,,,,,,,,,,,,,,,,,,,,,,,,,,,,,,,,,,,,,,,,,,,,,,,,,
,,65b2e96958c28d5efd354635,2024-02-21_21h26.21.230,kallum_motion_pilot,2023.2.2,Win32,59.52380952,65b2e96958c28d5efd354635,65d6bb0e977760de756971f7,65d6beca265c1952ee891fc4,0.0497,0.0498,0,105,105,112,1,fivesix,,,,,,,,,,,,,,,,,,,,,,,,,,,,,,,,,,,,,,,,,,,,,,,,,,,,,,,,,,,,,,,,,,,,,,,,,,,,,,,,,,,,,,,,,,,,,,,,,,,,,,,,,,,,,,,,,,,,,,,,,,,,,,,,,,,,,,,,,
,,65b2e96958c28d5efd354635,2024-02-21_21h26.21.230,kallum_motion_pilot,2023.2.2,Win32,59.52380952,65b2e96958c28d5efd354635,65d6bb0e977760de756971f7,65d6beca265c1952ee891fc4,0.05,0.0501,0,106,106,126,1,eightsix,,,,,,,,,,,,,,,,,,,,,,,,,,,,,,,,,,,,,,,,,,,,,,,,,,,,,,,,,,,,,,,,,,,,,,,,,,,,,,,,,,,,,,,,,,,,,,,,,,,,,,,,,,,,,,,,,,,,,,,,,,,,,,,,,,,,,,,,,
,,65b2e96958c28d5efd354635,2024-02-21_21h26.21.230,kallum_motion_pilot,2023.2.2,Win32,59.52380952,65b2e96958c28d5efd354635,65d6bb0e977760de756971f7,65d6beca265c1952ee891fc4,0.0502,0.0504,0,107,107,140,1,sevenfive,,,,,,,,,,,,,,,,,,,,,,,,,,,,,,,,,,,,,,,,,,,,,,,,,,,,,,,,,,,,,,,,,,,,,,,,,,,,,,,,,,,,,,,,,,,,,,,,,,,,,,,,,,,,,,,,,,,,,,,,,,,,,,,,,,,,,,,,,
,,65b2e96958c28d5efd354635,2024-02-21_21h26.21.230,kallum_motion_pilot,2023.2.2,Win32,59.52380952,65b2e96958c28d5efd354635,65d6bb0e977760de756971f7,65d6beca265c1952ee891fc4,0.0505,0.0507,0,108,108,108,1,sevenfive,,,,,,,,,,,,,,,,,,,,,,,,,,,,,,,,,,,,,,,,,,,,,,,,,,,,,,,,,,,,,,,,,,,,,,,,,,,,,,,,,,,,,,,,,,,,,,,,,,,,,,,,,,,,,,,,,,,,,,,,,,,,,,,,,,,,,,,,,
,,65b2e96958c28d5efd354635,2024-02-21_21h26.21.230,kallum_motion_pilot,2023.2.2,Win32,59.52380952,65b2e96958c28d5efd354635,65d6bb0e977760de756971f7,65d6beca265c1952ee891fc4,0.0508,0.0509,0,109,109,4,1,threeone,,,,,,,,,,,,,,,,,,,,,,,,,,,,,,,,,,,,,,,,,,,,,,,,,,,,,,,,,,,,,,,,,,,,,,,,,,,,,,,,,,,,,,,,,,,,,,,,,,,,,,,,,,,,,,,,,,,,,,,,,,,,,,,,,,,,,,,,,
,,65b2e96958c28d5efd354635,2024-02-21_21h26.21.230,kallum_motion_pilot,2023.2.2,Win32,59.52380952,65b2e96958c28d5efd354635,65d6bb0e977760de756971f7,65d6beca265c1952ee891fc4,0.0511,0.0512,0,110,110,148,1,sevenfive,,,,,,,,,,,,,,,,,,,,,,,,,,,,,,,,,,,,,,,,,,,,,,,,,,,,,,,,,,,,,,,,,,,,,,,,,,,,,,,,,,,,,,,,,,,,,,,,,,,,,,,,,,,,,,,,,,,,,,,,,,,,,,,,,,,,,,,,,
,,65b2e96958c28d5efd354635,2024-02-21_21h26.21.230,kallum_motion_pilot,2023.2.2,Win32,59.52380952,65b2e96958c28d5efd354635,65d6bb0e977760de756971f7,65d6beca265c1952ee891fc4,0.0513,0.0514,0,111,111,152,1,fivesix,,,,,,,,,,,,,,,,,,,,,,,,,,,,,,,,,,,,,,,,,,,,,,,,,,,,,,,,,,,,,,,,,,,,,,,,,,,,,,,,,,,,,,,,,,,,,,,,,,,,,,,,,,,,,,,,,,,,,,,,,,,,,,,,,,,,,,,,,
,,65b2e96958c28d5efd354635,2024-02-21_21h26.21.230,kallum_motion_pilot,2023.2.2,Win32,59.52380952,65b2e96958c28d5efd354635,65d6bb0e977760de756971f7,65d6beca265c1952ee891fc4,0.0516,0.0516,0,112,112,62,1,fourtwo,,,,,,,,,,,,,,,,,,,,,,,,,,,,,,,,,,,,,,,,,,,,,,,,,,,,,,,,,,,,,,,,,,,,,,,,,,,,,,,,,,,,,,,,,,,,,,,,,,,,,,,,,,,,,,,,,,,,,,,,,,,,,,,,,,,,,,,,,
,,65b2e96958c28d5efd354635,2024-02-21_21h26.21.230,kallum_motion_pilot,2023.2.2,Win32,59.52380952,65b2e96958c28d5efd354635,65d6bb0e977760de756971f7,65d6beca265c1952ee891fc4,0.0518,0.0519,0,113,113,19,1,twofour,,,,,,,,,,,,,,,,,,,,,,,,,,,,,,,,,,,,,,,,,,,,,,,,,,,,,,,,,,,,,,,,,,,,,,,,,,,,,,,,,,,,,,,,,,,,,,,,,,,,,,,,,,,,,,,,,,,,,,,,,,,,,,,,,,,,,,,,,
,,65b2e96958c28d5efd354635,2024-02-21_21h26.21.230,kallum_motion_pilot,2023.2.2,Win32,59.52380952,65b2e96958c28d5efd354635,65d6bb0e977760de756971f7,65d6beca265c1952ee891fc4,0.0519,0.052,0,114,114,120,1,fivesix,,,,,,,,,,,,,,,,,,,,,,,,,,,,,,,,,,,,,,,,,,,,,,,,,,,,,,,,,,,,,,,,,,,,,,,,,,,,,,,,,,,,,,,,,,,,,,,,,,,,,,,,,,,,,,,,,,,,,,,,,,,,,,,,,,,,,,,,,
,,65b2e96958c28d5efd354635,2024-02-21_21h26.21.230,kallum_motion_pilot,2023.2.2,Win32,59.52380952,65b2e96958c28d5efd354635,65d6bb0e977760de756971f7,65d6beca265c1952ee891fc4,0.0522,0.0523,0,115,115,59,1,twofour,,,,,,,,,,,,,,,,,,,,,,,,,,,,,,,,,,,,,,,,,,,,,,,,,,,,,,,,,,,,,,,,,,,,,,,,,,,,,,,,,,,,,,,,,,,,,,,,,,,,,,,,,,,,,,,,,,,,,,,,,,,,,,,,,,,,,,,,,
,,65b2e96958c28d5efd354635,2024-02-21_21h26.21.230,kallum_motion_pilot,2023.2.2,Win32,59.52380952,65b2e96958c28d5efd354635,65d6bb0e977760de756971f7,65d6beca265c1952ee891fc4,0.0525,0.0525,0,116,116,60,1,threeone,,,,,,,,,,,,,,,,,,,,,,,,,,,,,,,,,,,,,,,,,,,,,,,,,,,,,,,,,,,,,,,,,,,,,,,,,,,,,,,,,,,,,,,,,,,,,,,,,,,,,,,,,,,,,,,,,,,,,,,,,,,,,,,,,,,,,,,,,
,,65b2e96958c28d5efd354635,2024-02-21_21h26.21.230,kallum_motion_pilot,2023.2.2,Win32,59.52380952,65b2e96958c28d5efd354635,65d6bb0e977760de756971f7,65d6beca265c1952ee891fc4,0.0526,0.0527,0,117,117,50,1,twoone,,,,,,,,,,,,,,,,,,,,,,,,,,,,,,,,,,,,,,,,,,,,,,,,,,,,,,,,,,,,,,,,,,,,,,,,,,,,,,,,,,,,,,,,,,,,,,,,,,,,,,,,,,,,,,,,,,,,,,,,,,,,,,,,,,,,,,,,,
,,65b2e96958c28d5efd354635,2024-02-21_21h26.21.230,kallum_motion_pilot,2023.2.2,Win32,59.52380952,65b2e96958c28d5efd354635,65d6bb0e977760de756971f7,65d6beca265c1952ee891fc4,0.0528,0.0529,0,118,118,84,1,sevenfive,,,,,,,,,,,,,,,,,,,,,,,,,,,,,,,,,,,,,,,,,,,,,,,,,,,,,,,,,,,,,,,,,,,,,,,,,,,,,,,,,,,,,,,,,,,,,,,,,,,,,,,,,,,,,,,,,,,,,,,,,,,,,,,,,,,,,,,,,
,,65b2e96958c28d5efd354635,2024-02-21_21h26.21.230,kallum_motion_pilot,2023.2.2,Win32,59.52380952,65b2e96958c28d5efd354635,65d6bb0e977760de756971f7,65d6beca265c1952ee891fc4,0.0529,0.053,0,119,119,37,1,threefour,,,,,,,,,,,,,,,,,,,,,,,,,,,,,,,,,,,,,,,,,,,,,,,,,,,,,,,,,,,,,,,,,,,,,,,,,,,,,,,,,,,,,,,,,,,,,,,,,,,,,,,,,,,,,,,,,,,,,,,,,,,,,,,,,,,,,,,,,
,,65b2e96958c28d5efd354635,2024-02-21_21h26.21.230,kallum_motion_pilot,2023.2.2,Win32,59.52380952,65b2e96958c28d5efd354635,65d6bb0e977760de756971f7,65d6beca265c1952ee891fc4,0.0532,0.0532,0,120,120,78,1,fourtwo,,,,,,,,,,,,,,,,,,,,,,,,,,,,,,,,,,,,,,,,,,,,,,,,,,,,,,,,,,,,,,,,,,,,,,,,,,,,,,,,,,,,,,,,,,,,,,,,,,,,,,,,,,,,,,,,,,,,,,,,,,,,,,,,,,,,,,,,,
,,65b2e96958c28d5efd354635,2024-02-21_21h26.21.230,kallum_motion_pilot,2023.2.2,Win32,59.52380952,65b2e96958c28d5efd354635,65d6bb0e977760de756971f7,65d6beca265c1952ee891fc4,0.0533,0.0533,0,121,121,48,1,onetwo,,,,,,,,,,,,,,,,,,,,,,,,,,,,,,,,,,,,,,,,,,,,,,,,,,,,,,,,,,,,,,,,,,,,,,,,,,,,,,,,,,,,,,,,,,,,,,,,,,,,,,,,,,,,,,,,,,,,,,,,,,,,,,,,,,,,,,,,,
,,65b2e96958c28d5efd354635,2024-02-21_21h26.21.230,kallum_motion_pilot,2023.2.2,Win32,59.52380952,65b2e96958c28d5efd354635,65d6bb0e977760de756971f7,65d6beca265c1952ee891fc4,0.0534,0.0535,0,122,122,111,1,eightseven,,,,,,,,,,,,,,,,,,,,,,,,,,,,,,,,,,,,,,,,,,,,,,,,,,,,,,,,,,,,,,,,,,,,,,,,,,,,,,,,,,,,,,,,,,,,,,,,,,,,,,,,,,,,,,,,,,,,,,,,,,,,,,,,,,,,,,,,,
,,65b2e96958c28d5efd354635,2024-02-21_21h26.21.230,kallum_motion_pilot,2023.2.2,Win32,59.52380952,65b2e96958c28d5efd354635,65d6bb0e977760de756971f7,65d6beca265c1952ee891fc4,0.0536,0.0536,0,123,123,44,1,threeone,,,,,,,,,,,,,,,,,,,,,,,,,,,,,,,,,,,,,,,,,,,,,,,,,,,,,,,,,,,,,,,,,,,,,,,,,,,,,,,,,,,,,,,,,,,,,,,,,,,,,,,,,,,,,,,,,,,,,,,,,,,,,,,,,,,,,,,,,
,,65b2e96958c28d5efd354635,2024-02-21_21h26.21.230,kallum_motion_pilot,2023.2.2,Win32,59.52380952,65b2e96958c28d5efd354635,65d6bb0e977760de756971f7,65d6beca265c1952ee891fc4,0.0538,0.0539,0,124,124,88,1,fivesix,,,,,,,,,,,,,,,,,,,,,,,,,,,,,,,,,,,,,,,,,,,,,,,,,,,,,,,,,,,,,,,,,,,,,,,,,,,,,,,,,,,,,,,,,,,,,,,,,,,,,,,,,,,,,,,,,,,,,,,,,,,,,,,,,,,,,,,,,
,,65b2e96958c28d5efd354635,2024-02-21_21h26.21.230,kallum_motion_pilot,2023.2.2,Win32,59.52380952,65b2e96958c28d5efd354635,65d6bb0e977760de756971f7,65d6beca265c1952ee891fc4,0.054,0.0541,0,125,125,77,1,threefour,,,,,,,,,,,,,,,,,,,,,,,,,,,,,,,,,,,,,,,,,,,,,,,,,,,,,,,,,,,,,,,,,,,,,,,,,,,,,,,,,,,,,,,,,,,,,,,,,,,,,,,,,,,,,,,,,,,,,,,,,,,,,,,,,,,,,,,,,
,,65b2e96958c28d5efd354635,2024-02-21_21h26.21.230,kallum_motion_pilot,2023.2.2,Win32,59.52380952,65b2e96958c28d5efd354635,65d6bb0e977760de756971f7,65d6beca265c1952ee891fc4,0.0541,0.0542,0,126,126,79,1,eightseven,,,,,,,,,,,,,,,,,,,,,,,,,,,,,,,,,,,,,,,,,,,,,,,,,,,,,,,,,,,,,,,,,,,,,,,,,,,,,,,,,,,,,,,,,,,,,,,,,,,,,,,,,,,,,,,,,,,,,,,,,,,,,,,,,,,,,,,,,
,,65b2e96958c28d5efd354635,2024-02-21_21h26.21.230,kallum_motion_pilot,2023.2.2,Win32,59.52380952,65b2e96958c28d5efd354635,65d6bb0e977760de756971f7,65d6beca265c1952ee891fc4,0.0545,0.0546,0,127,127,121,1,fiveseven,,,,,,,,,,,,,,,,,,,,,,,,,,,,,,,,,,,,,,,,,,,,,,,,,,,,,,,,,,,,,,,,,,,,,,,,,,,,,,,,,,,,,,,,,,,,,,,,,,,,,,,,,,,,,,,,,,,,,,,,,,,,,,,,,,,,,,,,,
,,65b2e96958c28d5efd354635,2024-02-21_21h26.21.230,kallum_motion_pilot,2023.2.2,Win32,59.52380952,65b2e96958c28d5efd354635,65d6bb0e977760de756971f7,65d6beca265c1952ee891fc4,0.0548,0.0549,0,128,128,122,1,sixfive,,,,,,,,,,,,,,,,,,,,,,,,,,,,,,,,,,,,,,,,,,,,,,,,,,,,,,,,,,,,,,,,,,,,,,,,,,,,,,,,,,,,,,,,,,,,,,,,,,,,,,,,,,,,,,,,,,,,,,,,,,,,,,,,,,,,,,,,,
,,65b2e96958c28d5efd354635,2024-02-21_21h26.21.230,kallum_motion_pilot,2023.2.2,Win32,59.52380952,65b2e96958c28d5efd354635,65d6bb0e977760de756971f7,65d6beca265c1952ee891fc4,0.055,0.0551,0,129,129,150,1,eightsix,,,,,,,,,,,,,,,,,,,,,,,,,,,,,,,,,,,,,,,,,,,,,,,,,,,,,,,,,,,,,,,,,,,,,,,,,,,,,,,,,,,,,,,,,,,,,,,,,,,,,,,,,,,,,,,,,,,,,,,,,,,,,,,,,,,,,,,,,
,,65b2e96958c28d5efd354635,2024-02-21_21h26.21.230,kallum_motion_pilot,2023.2.2,Win32,59.52380952,65b2e96958c28d5efd354635,65d6bb0e977760de756971f7,65d6beca265c1952ee891fc4,0.0553,0.0553,0,130,130,68,1,threeone,,,,,,,,,,,,,,,,,,,,,,,,,,,,,,,,,,,,,,,,,,,,,,,,,,,,,,,,,,,,,,,,,,,,,,,,,,,,,,,,,,,,,,,,,,,,,,,,,,,,,,,,,,,,,,,,,,,,,,,,,,,,,,,,,,,,,,,,,
,,65b2e96958c28d5efd354635,2024-02-21_21h26.21.230,kallum_motion_pilot,2023.2.2,Win32,59.52380952,65b2e96958c28d5efd354635,65d6bb0e977760de756971f7,65d6beca265c1952ee891fc4,0.0555,0.0556,0,131,131,11,1,twofour,,,,,,,,,,,,,,,,,,,,,,,,,,,,,,,,,,,,,,,,,,,,,,,,,,,,,,,,,,,,,,,,,,,,,,,,,,,,,,,,,,,,,,,,,,,,,,,,,,,,,,,,,,,,,,,,,,,,,,,,,,,,,,,,,,,,,,,,,
,,65b2e96958c28d5efd354635,2024-02-21_21h26.21.230,kallum_motion_pilot,2023.2.2,Win32,59.52380952,65b2e96958c28d5efd354635,65d6bb0e977760de756971f7,65d6beca265c1952ee891fc4,0.0558,0.0559,0,132,132,34,1,twoone,,,,,,,,,,,,,,,,,,,,,,,,,,,,,,,,,,,,,,,,,,,,,,,,,,,,,,,,,,,,,,,,,,,,,,,,,,,,,,,,,,,,,,,,,,,,,,,,,,,,,,,,,,,,,,,,,,,,,,,,,,,,,,,,,,,,,,,,,
,,65b2e96958c28d5efd354635,2024-02-21_21h26.21.230,kallum_motion_pilot,2023.2.2,Win32,59.52380952,65b2e96958c28d5efd354635,65d6bb0e977760de756971f7,65d6beca265c1952ee891fc4,0.0561,0.0561,0,133,133,130,1,sixfive,,,,,,,,,,,,,,,,,,,,,,,,,,,,,,,,,,,,,,,,,,,,,,,,,,,,,,,,,,,,,,,,,,,,,,,,,,,,,,,,,,,,,,,,,,,,,,,,,,,,,,,,,,,,,,,,,,,,,,,,,,,,,,,,,,,,,,,,,
,,65b2e96958c28d5efd354635,2024-02-21_21h26.21.230,kallum_motion_pilot,2023.2.2,Win32,59.52380952,65b2e96958c28d5efd354635,65d6bb0e977760de756971f7,65d6beca265c1952ee891fc4,0.0576,0.0577,0,134,134,145,1,fiveseven,,,,,,,,,,,,,,,,,,,,,,,,,,,,,,,,,,,,,,,,,,,,,,,,,,,,,,,,,,,,,,,,,,,,,,,,,,,,,,,,,,,,,,,,,,,,,,,,,,,,,,,,,,,,,,,,,,,,,,,,,,,,,,,,,,,,,,,,,
,,65b2e96958c28d5efd354635,2024-02-21_21h26.21.230,kallum_motion_pilot,2023.2.2,Win32,59.52380952,65b2e96958c28d5efd354635,65d6bb0e977760de756971f7,65d6beca265c1952ee891fc4,0.0579,0.0579,0,135,135,58,1,twoone,,,,,,,,,,,,,,,,,,,,,,,,,,,,,,,,,,,,,,,,,,,,,,,,,,,,,,,,,,,,,,,,,,,,,,,,,,,,,,,,,,,,,,,,,,,,,,,,,,,,,,,,,,,,,,,,,,,,,,,,,,,,,,,,,,,,,,,,,
,,65b2e96958c28d5efd354635,2024-02-21_21h26.21.230,kallum_motion_pilot,2023.2.2,Win32,59.52380952,65b2e96958c28d5efd354635,65d6bb0e977760de756971f7,65d6beca265c1952ee891fc4,0.058,0.0582,0,136,136,93,1,seveneight,,,,,,,,,,,,,,,,,,,,,,,,,,,,,,,,,,,,,,,,,,,,,,,,,,,,,,,,,,,,,,,,,,,,,,,,,,,,,,,,,,,,,,,,,,,,,,,,,,,,,,,,,,,,,,,,,,,,,,,,,,,,,,,,,,,,,,,,,
,,65b2e96958c28d5efd354635,2024-02-21_21h26.21.230,kallum_motion_pilot,2023.2.2,Win32,59.52380952,65b2e96958c28d5efd354635,65d6bb0e977760de756971f7,65d6beca265c1952ee891fc4,0.0582,0.0584,0,137,137,25,1,onethree,,,,,,,,,,,,,,,,,,,,,,,,,,,,,,,,,,,,,,,,,,,,,,,,,,,,,,,,,,,,,,,,,,,,,,,,,,,,,,,,,,,,,,,,,,,,,,,,,,,,,,,,,,,,,,,,,,,,,,,,,,,,,,,,,,,,,,,,,
,,65b2e96958c28d5efd354635,2024-02-21_21h26.21.230,kallum_motion_pilot,2023.2.2,Win32,59.52380952,65b2e96958c28d5efd354635,65d6bb0e977760de756971f7,65d6beca265c1952ee891fc4,0.0585,0.0586,0,138,138,136,1,fivesix,,,,,,,,,,,,,,,,,,,,,,,,,,,,,,,,,,,,,,,,,,,,,,,,,,,,,,,,,,,,,,,,,,,,,,,,,,,,,,,,,,,,,,,,,,,,,,,,,,,,,,,,,,,,,,,,,,,,,,,,,,,,,,,,,,,,,,,,,
,,65b2e96958c28d5efd354635,2024-02-21_21h26.21.230,kallum_motion_pilot,2023.2.2,Win32,59.52380952,65b2e96958c28d5efd354635,65d6bb0e977760de756971f7,65d6beca265c1952ee891fc4,0.0586,0.0588,0,139,139,102,1,eightsix,,,,,,,,,,,,,,,,,,,,,,,,,,,,,,,,,,,,,,,,,,,,,,,,,,,,,,,,,,,,,,,,,,,,,,,,,,,,,,,,,,,,,,,,,,,,,,,,,,,,,,,,,,,,,,,,,,,,,,,,,,,,,,,,,,,,,,,,,
,,65b2e96958c28d5efd354635,2024-02-21_21h26.21.230,kallum_motion_pilot,2023.2.2,Win32,59.52380952,65b2e96958c28d5efd354635,65d6bb0e977760de756971f7,65d6beca265c1952ee891fc4,0.0589,0.059,0,140,140,105,1,fiveseven,,,,,,,,,,,,,,,,,,,,,,,,,,,,,,,,,,,,,,,,,,,,,,,,,,,,,,,,,,,,,,,,,,,,,,,,,,,,,,,,,,,,,,,,,,,,,,,,,,,,,,,,,,,,,,,,,,,,,,,,,,,,,,,,,,,,,,,,,
,,65b2e96958c28d5efd354635,2024-02-21_21h26.21.230,kallum_motion_pilot,2023.2.2,Win32,59.52380952,65b2e96958c28d5efd354635,65d6bb0e977760de756971f7,65d6beca265c1952ee891fc4,0.0591,0.0592,0,141,141,135,1,eightseven,,,,,,,,,,,,,,,,,,,,,,,,,,,,,,,,,,,,,,,,,,,,,,,,,,,,,,,,,,,,,,,,,,,,,,,,,,,,,,,,,,,,,,,,,,,,,,,,,,,,,,,,,,,,,,,,,,,,,,,,,,,,,,,,,,,,,,,,,
,,65b2e96958c28d5efd354635,2024-02-21_21h26.21.230,kallum_motion_pilot,2023.2.2,Win32,59.52380952,65b2e96958c28d5efd354635,65d6bb0e977760de756971f7,65d6beca265c1952ee891fc4,0.0593,0.0594,0,142,142,76,1,threeone,,,,,,,,,,,,,,,,,,,,,,,,,,,,,,,,,,,,,,,,,,,,,,,,,,,,,,,,,,,,,,,,,,,,,,,,,,,,,,,,,,,,,,,,,,,,,,,,,,,,,,,,,,,,,,,,,,,,,,,,,,,,,,,,,,,,,,,,,
,,65b2e96958c28d5efd354635,2024-02-21_21h26.21.230,kallum_motion_pilot,2023.2.2,Win32,59.52380952,65b2e96958c28d5efd354635,65d6bb0e977760de756971f7,65d6beca265c1952ee891fc4,0.0595,0.0596,0,143,143,131,1,sixeight,,,,,,,,,,,,,,,,,,,,,,,,,,,,,,,,,,,,,,,,,,,,,,,,,,,,,,,,,,,,,,,,,,,,,,,,,,,,,,,,,,,,,,,,,,,,,,,,,,,,,,,,,,,,,,,,,,,,,,,,,,,,,,,,,,,,,,,,,
,,65b2e96958c28d5efd354635,2024-02-21_21h26.21.230,kallum_motion_pilot,2023.2.2,Win32,59.52380952,65b2e96958c28d5efd354635,65d6bb0e977760de756971f7,65d6beca265c1952ee891fc4,0.0598,0.0599,0,144,144,70,1,fourtwo,,,,,,,,,,,,,,,,,,,,,,,,,,,,,,,,,,,,,,,,,,,,,,,,,,,,,,,,,,,,,,,,,,,,,,,,,,,,,,,,,,,,,,,,,,,,,,,,,,,,,,,,,,,,,,,,,,,,,,,,,,,,,,,,,,,,,,,,,
,,65b2e96958c28d5efd354635,2024-02-21_21h26.21.230,kallum_motion_pilot,2023.2.2,Win32,59.52380952,65b2e96958c28d5efd354635,65d6bb0e977760de756971f7,65d6beca265c1952ee891fc4,0.0599,0.06,0,145,145,56,1,onetwo,,,,,,,,,,,,,,,,,,,,,,,,,,,,,,,,,,,,,,,,,,,,,,,,,,,,,,,,,,,,,,,,,,,,,,,,,,,,,,,,,,,,,,,,,,,,,,,,,,,,,,,,,,,,,,,,,,,,,,,,,,,,,,,,,,,,,,,,,
,,65b2e96958c28d5efd354635,2024-02-21_21h26.21.230,kallum_motion_pilot,2023.2.2,Win32,59.52380952,65b2e96958c28d5efd354635,65d6bb0e977760de756971f7,65d6beca265c1952ee891fc4,0.0602,0.0602,0,146,146,125,1,seveneight,,,,,,,,,,,,,,,,,,,,,,,,,,,,,,,,,,,,,,,,,,,,,,,,,,,,,,,,,,,,,,,,,,,,,,,,,,,,,,,,,,,,,,,,,,,,,,,,,,,,,,,,,,,,,,,,,,,,,,,,,,,,,,,,,,,,,,,,,
,,65b2e96958c28d5efd354635,2024-02-21_21h26.21.230,kallum_motion_pilot,2023.2.2,Win32,59.52380952,65b2e96958c28d5efd354635,65d6bb0e977760de756971f7,65d6beca265c1952ee891fc4,0.0604,0.0604,0,147,147,101,1,seveneight,,,,,,,,,,,,,,,,,,,,,,,,,,,,,,,,,,,,,,,,,,,,,,,,,,,,,,,,,,,,,,,,,,,,,,,,,,,,,,,,,,,,,,,,,,,,,,,,,,,,,,,,,,,,,,,,,,,,,,,,,,,,,,,,,,,,,,,,,
,,65b2e96958c28d5efd354635,2024-02-21_21h26.21.230,kallum_motion_pilot,2023.2.2,Win32,59.52380952,65b2e96958c28d5efd354635,65d6bb0e977760de756971f7,65d6beca265c1952ee891fc4,0.0605,0.0607,0,148,148,80,1,fivesix,,,,,,,,,,,,,,,,,,,,,,,,,,,,,,,,,,,,,,,,,,,,,,,,,,,,,,,,,,,,,,,,,,,,,,,,,,,,,,,,,,,,,,,,,,,,,,,,,,,,,,,,,,,,,,,,,,,,,,,,,,,,,,,,,,,,,,,,,
,,65b2e96958c28d5efd354635,2024-02-21_21h26.21.230,kallum_motion_pilot,2023.2.2,Win32,59.52380952,65b2e96958c28d5efd354635,65d6bb0e977760de756971f7,65d6beca265c1952ee891fc4,0.0608,0.0609,0,149,149,110,1,eightsix,,,,,,,,,,,,,,,,,,,,,,,,,,,,,,,,,,,,,,,,,,,,,,,,,,,,,,,,,,,,,,,,,,,,,,,,,,,,,,,,,,,,,,,,,,,,,,,,,,,,,,,,,,,,,,,,,,,,,,,,,,,,,,,,,,,,,,,,,
,,65b2e96958c28d5efd354635,2024-02-21_21h26.21.230,kallum_motion_pilot,2023.2.2,Win32,59.52380952,65b2e96958c28d5efd354635,65d6bb0e977760de756971f7,65d6beca265c1952ee891fc4,0.0611,0.0611,0,150,150,96,1,fivesix,,,,,,,,,,,,,,,,,,,,,,,,,,,,,,,,,,,,,,,,,,,,,,,,,,,,,,,,,,,,,,,,,,,,,,,,,,,,,,,,,,,,,,,,,,,,,,,,,,,,,,,,,,,,,,,,,,,,,,,,,,,,,,,,,,,,,,,,,
,,65b2e96958c28d5efd354635,2024-02-21_21h26.21.230,kallum_motion_pilot,2023.2.2,Win32,59.52380952,65b2e96958c28d5efd354635,65d6bb0e977760de756971f7,65d6beca265c1952ee891fc4,0.0613,0.0613,0,151,151,82,1,sixfive,,,,,,,,,,,,,,,,,,,,,,,,,,,,,,,,,,,,,,,,,,,,,,,,,,,,,,,,,,,,,,,,,,,,,,,,,,,,,,,,,,,,,,,,,,,,,,,,,,,,,,,,,,,,,,,,,,,,,,,,,,,,,,,,,,,,,,,,,
,,65b2e96958c28d5efd354635,2024-02-21_21h26.21.230,kallum_motion_pilot,2023.2.2,Win32,59.52380952,65b2e96958c28d5efd354635,65d6bb0e977760de756971f7,65d6beca265c1952ee891fc4,0.0614,0.0616,0,152,152,146,1,sixfive,,,,,,,,,,,,,,,,,,,,,,,,,,,,,,,,,,,,,,,,,,,,,,,,,,,,,,,,,,,,,,,,,,,,,,,,,,,,,,,,,,,,,,,,,,,,,,,,,,,,,,,,,,,,,,,,,,,,,,,,,,,,,,,,,,,,,,,,,
,,65b2e96958c28d5efd354635,2024-02-21_21h26.21.230,kallum_motion_pilot,2023.2.2,Win32,59.52380952,65b2e96958c28d5efd354635,65d6bb0e977760de756971f7,65d6beca265c1952ee891fc4,0.0617,0.0618,0,153,153,97,1,fiveseven,,,,,,,,,,,,,,,,,,,,,,,,,,,,,,,,,,,,,,,,,,,,,,,,,,,,,,,,,,,,,,,,,,,,,,,,,,,,,,,,,,,,,,,,,,,,,,,,,,,,,,,,,,,,,,,,,,,,,,,,,,,,,,,,,,,,,,,,,
,,65b2e96958c28d5efd354635,2024-02-21_21h26.21.230,kallum_motion_pilot,2023.2.2,Win32,59.52380952,65b2e96958c28d5efd354635,65d6bb0e977760de756971f7,65d6beca265c1952ee891fc4,0.0619,0.062,0,154,154,86,1,eightsix,,,,,,,,,,,,,,,,,,,,,,,,,,,,,,,,,,,,,,,,,,,,,,,,,,,,,,,,,,,,,,,,,,,,,,,,,,,,,,,,,,,,,,,,,,,,,,,,,,,,,,,,,,,,,,,,,,,,,,,,,,,,,,,,,,,,,,,,,
,,65b2e96958c28d5efd354635,2024-02-21_21h26.21.230,kallum_motion_pilot,2023.2.2,Win32,59.52380952,65b2e96958c28d5efd354635,65d6bb0e977760de756971f7,65d6beca265c1952ee891fc4,0.062,0.0622,0,155,155,64,1,onetwo,,,,,,,,,,,,,,,,,,,,,,,,,,,,,,,,,,,,,,,,,,,,,,,,,,,,,,,,,,,,,,,,,,,,,,,,,,,,,,,,,,,,,,,,,,,,,,,,,,,,,,,,,,,,,,,,,,,,,,,,,,,,,,,,,,,,,,,,,
,,65b2e96958c28d5efd354635,2024-02-21_21h26.21.230,kallum_motion_pilot,2023.2.2,Win32,59.52380952,65b2e96958c28d5efd354635,65d6bb0e977760de756971f7,65d6beca265c1952ee891fc4,0.0623,0.0624,0,156,156,103,1,eightseven,,,,,,,,,,,,,,,,,,,,,,,,,,,,,,,,,,,,,,,,,,,,,,,,,,,,,,,,,,,,,,,,,,,,,,,,,,,,,,,,,,,,,,,,,,,,,,,,,,,,,,,,,,,,,,,,,,,,,,,,,,,,,,,,,,,,,,,,,
,,65b2e96958c28d5efd354635,2024-02-21_21h26.21.230,kallum_motion_pilot,2023.2.2,Win32,59.52380952,65b2e96958c28d5efd354635,65d6bb0e977760de756971f7,65d6beca265c1952ee891fc4,0.0625,0.0626,0,157,157,27,1,twofour,,,,,,,,,,,,,,,,,,,,,,,,,,,,,,,,,,,,,,,,,,,,,,,,,,,,,,,,,,,,,,,,,,,,,,,,,,,,,,,,,,,,,,,,,,,,,,,,,,,,,,,,,,,,,,,,,,,,,,,,,,,,,,,,,,,,,,,,,
,,65b2e96958c28d5efd354635,2024-02-21_21h26.21.230,kallum_motion_pilot,2023.2.2,Win32,59.52380952,65b2e96958c28d5efd354635,65d6bb0e977760de756971f7,65d6beca265c1952ee891fc4,0.0626,0.0628,0,158,158,124,1,sevenfive,,,,,,,,,,,,,,,,,,,,,,,,,,,,,,,,,,,,,,,,,,,,,,,,,,,,,,,,,,,,,,,,,,,,,,,,,,,,,,,,,,,,,,,,,,,,,,,,,,,,,,,,,,,,,,,,,,,,,,,,,,,,,,,,,,,,,,,,,
,,65b2e96958c28d5efd354635,2024-02-21_21h26.21.230,kallum_motion_pilot,2023.2.2,Win32,59.52380952,65b2e96958c28d5efd354635,65d6bb0e977760de756971f7,65d6beca265c1952ee891fc4,0.0629,0.0629,0,159,159,161,1,fiveseven,,,,,,,,,,,,,,,,,,,,,,,,,,,,,,,,,,,,,,,,,,,,,,,,,,,,,,,,,,,,,,,,,,,,,,,,,,,,,,,,,,,,,,,,,,,,,,,,,,,,,,,,,,,,,,,,,,,,,,,,,,,,,,,,,,,,,,,,,
,,65b2e96958c28d5efd354635,2024-02-21_21h26.21.230,kallum_motion_pilot,2023.2.2,Win32,59.52380952,65b2e96958c28d5efd354635,65d6bb0e977760de756971f7,65d6beca265c1952ee891fc4,0.0631,0.0632,0,160,160,81,1,fiveseven,,,,,,,,,,,,,,,,,,,,,,,,,,,,,,,,,,,,,,,,,,,,,,,,,,,,,,,,,,,,,,,,,,,,,,,,,,,,,,,,,,,,,,,,,,,,,,,,,,,,,,,,,,,,,,,,,,,,,,,,,,,,,,,,,,,,,,,,,
,,65b2e96958c28d5efd354635,2024-02-21_21h26.21.230,kallum_motion_pilot,2023.2.2,Win32,59.52380952,65b2e96958c28d5efd354635,65d6bb0e977760de756971f7,65d6beca265c1952ee891fc4,0.0633,0.0634,0,161,161,155,1,sixeight,,,,,,,,,,,,,,,,,,,,,,,,,,,,,,,,,,,,,,,,,,,,,,,,,,,,,,,,,,,,,,,,,,,,,,,,,,,,,,,,,,,,,,,,,,,,,,,,,,,,,,,,,,,,,,,,,,,,,,,,,,,,,,,,,,,,,,,,,
,,65b2e96958c28d5efd354635,2024-02-21_21h26.21.230,kallum_motion_pilot,2023.2.2,Win32,59.52380952,65b2e96958c28d5efd354635,65d6bb0e977760de756971f7,65d6beca265c1952ee891fc4,0.0636,0.0636,1,0,162,10,1,twoone,,,,,,,,,,,,,,,,,,,,,,,,,,,,,,,,,,,,,,,,,,,,,,,,,,,,,,,,,,,,,,,,,,,,,,,,,,,,,,,,,,,,,,,,,,,,,,,,,,,,,,,,,,,,,,,,,,,,,,,,,,,,,,,,,,,,,,,,,
,,65b2e96958c28d5efd354635,2024-02-21_21h26.21.230,kallum_motion_pilot,2023.2.2,Win32,59.52380952,65b2e96958c28d5efd354635,65d6bb0e977760de756971f7,65d6beca265c1952ee891fc4,0.0638,0.0639,1,1,163,69,1,threefour,,,,,,,,,,,,,,,,,,,,,,,,,,,,,,,,,,,,,,,,,,,,,,,,,,,,,,,,,,,,,,,,,,,,,,,,,,,,,,,,,,,,,,,,,,,,,,,,,,,,,,,,,,,,,,,,,,,,,,,,,,,,,,,,,,,,,,,,,
,,65b2e96958c28d5efd354635,2024-02-21_21h26.21.230,kallum_motion_pilot,2023.2.2,Win32,59.52380952,65b2e96958c28d5efd354635,65d6bb0e977760de756971f7,65d6beca265c1952ee891fc4,0.064,0.0642,1,2,164,120,1,fivesix,,,,,,,,,,,,,,,,,,,,,,,,,,,,,,,,,,,,,,,,,,,,,,,,,,,,,,,,,,,,,,,,,,,,,,,,,,,,,,,,,,,,,,,,,,,,,,,,,,,,,,,,,,,,,,,,,,,,,,,,,,,,,,,,,,,,,,,,,
,,65b2e96958c28d5efd354635,2024-02-21_21h26.21.230,kallum_motion_pilot,2023.2.2,Win32,59.52380952,65b2e96958c28d5efd354635,65d6bb0e977760de756971f7,65d6beca265c1952ee891fc4,0.0643,0.0644,1,3,165,55,1,fourthree,,,,,,,,,,,,,,,,,,,,,,,,,,,,,,,,,,,,,,,,,,,,,,,,,,,,,,,,,,,,,,,,,,,,,,,,,,,,,,,,,,,,,,,,,,,,,,,,,,,,,,,,,,,,,,,,,,,,,,,,,,,,,,,,,,,,,,,,,
,,65b2e96958c28d5efd354635,2024-02-21_21h26.21.230,kallum_motion_pilot,2023.2.2,Win32,59.52380952,65b2e96958c28d5efd354635,65d6bb0e977760de756971f7,65d6beca265c1952ee891fc4,0.0646,0.0647,1,4,166,81,1,fiveseven,,,,,,,,,,,,,,,,,,,,,,,,,,,,,,,,,,,,,,,,,,,,,,,,,,,,,,,,,,,,,,,,,,,,,,,,,,,,,,,,,,,,,,,,,,,,,,,,,,,,,,,,,,,,,,,,,,,,,,,,,,,,,,,,,,,,,,,,,
,,65b2e96958c28d5efd354635,2024-02-21_21h26.21.230,kallum_motion_pilot,2023.2.2,Win32,59.52380952,65b2e96958c28d5efd354635,65d6bb0e977760de756971f7,65d6beca265c1952ee891fc4,0.0648,0.0649,1,5,167,64,1,onetwo,,,,,,,,,,,,,,,,,,,,,,,,,,,,,,,,,,,,,,,,,,,,,,,,,,,,,,,,,,,,,,,,,,,,,,,,,,,,,,,,,,,,,,,,,,,,,,,,,,,,,,,,,,,,,,,,,,,,,,,,,,,,,,,,,,,,,,,,,
,,65b2e96958c28d5efd354635,2024-02-21_21h26.21.230,kallum_motion_pilot,2023.2.2,Win32,59.52380952,65b2e96958c28d5efd354635,65d6bb0e977760de756971f7,65d6beca265c1952ee891fc4,0.065,0.0651,1,6,168,2,1,twoone,,,,,,,,,,,,,,,,,,,,,,,,,,,,,,,,,,,,,,,,,,,,,,,,,,,,,,,,,,,,,,,,,,,,,,,,,,,,,,,,,,,,,,,,,,,,,,,,,,,,,,,,,,,,,,,,,,,,,,,,,,,,,,,,,,,,,,,,,
,,65b2e96958c28d5efd354635,2024-02-21_21h26.21.230,kallum_motion_pilot,2023.2.2,Win32,59.52380952,65b2e96958c28d5efd354635,65d6bb0e977760de756971f7,65d6beca265c1952ee891fc4,0.0653,0.0653,1,7,169,23,1,fourthree,,,,,,,,,,,,,,,,,,,,,,,,,,,,,,,,,,,,,,,,,,,,,,,,,,,,,,,,,,,,,,,,,,,,,,,,,,,,,,,,,,,,,,,,,,,,,,,,,,,,,,,,,,,,,,,,,,,,,,,,,,,,,,,,,,,,,,,,,
,,65b2e96958c28d5efd354635,2024-02-21_21h26.21.230,kallum_motion_pilot,2023.2.2,Win32,59.52380952,65b2e96958c28d5efd354635,65d6bb0e977760de756971f7,65d6beca265c1952ee891fc4,0.0655,0.0656,1,8,170,110,1,eightsix,,,,,,,,,,,,,,,,,,,,,,,,,,,,,,,,,,,,,,,,,,,,,,,,,,,,,,,,,,,,,,,,,,,,,,,,,,,,,,,,,,,,,,,,,,,,,,,,,,,,,,,,,,,,,,,,,,,,,,,,,,,,,,,,,,,,,,,,,
,,65b2e96958c28d5efd354635,2024-02-21_21h26.21.230,kallum_motion_pilot,2023.2.2,Win32,59.52380952,65b2e96958c28d5efd354635,65d6bb0e977760de756971f7,65d6beca265c1952ee891fc4,0.0657,0.0658,1,9,171,89,1,fiveseven,,,,,,,,,,,,,,,,,,,,,,,,,,,,,,,,,,,,,,,,,,,,,,,,,,,,,,,,,,,,,,,,,,,,,,,,,,,,,,,,,,,,,,,,,,,,,,,,,,,,,,,,,,,,,,,,,,,,,,,,,,,,,,,,,,,,,,,,,
,,65b2e96958c28d5efd354635,2024-02-21_21h26.21.230,kallum_motion_pilot,2023.2.2,Win32,59.52380952,65b2e96958c28d5efd354635,65d6bb0e977760de756971f7,65d6beca265c1952ee891fc4,0.0659,0.0659,1,10,172,155,1,sixeight,,,,,,,,,,,,,,,,,,,,,,,,,,,,,,,,,,,,,,,,,,,,,,,,,,,,,,,,,,,,,,,,,,,,,,,,,,,,,,,,,,,,,,,,,,,,,,,,,,,,,,,,,,,,,,,,,,,,,,,,,,,,,,,,,,,,,,,,,
,,65b2e96958c28d5efd354635,2024-02-21_21h26.21.230,kallum_motion_pilot,2023.2.2,Win32,59.52380952,65b2e96958c28d5efd354635,65d6bb0e977760de756971f7,65d6beca265c1952ee891fc4,0.0661,0.0661,1,11,173,45,1,threefour,,,,,,,,,,,,,,,,,,,,,,,,,,,,,,,,,,,,,,,,,,,,,,,,,,,,,,,,,,,,,,,,,,,,,,,,,,,,,,,,,,,,,,,,,,,,,,,,,,,,,,,,,,,,,,,,,,,,,,,,,,,,,,,,,,,,,,,,,
,,65b2e96958c28d5efd354635,2024-02-21_21h26.21.230,kallum_motion_pilot,2023.2.2,Win32,59.52380952,65b2e96958c28d5efd354635,65d6bb0e977760de756971f7,65d6beca265c1952ee891fc4,0.0662,0.0664,1,12,174,96,1,fivesix,,,,,,,,,,,,,,,,,,,,,,,,,,,,,,,,,,,,,,,,,,,,,,,,,,,,,,,,,,,,,,,,,,,,,,,,,,,,,,,,,,,,,,,,,,,,,,,,,,,,,,,,,,,,,,,,,,,,,,,,,,,,,,,,,,,,,,,,,
,,65b2e96958c28d5efd354635,2024-02-21_21h26.21.230,kallum_motion_pilot,2023.2.2,Win32,59.52380952,65b2e96958c28d5efd354635,65d6bb0e977760de756971f7,65d6beca265c1952ee891fc4,0.0664,0.0666,1,13,175,101,1,seveneight,,,,,,,,,,,,,,,,,,,,,,,,,,,,,,,,,,,,,,,,,,,,,,,,,,,,,,,,,,,,,,,,,,,,,,,,,,,,,,,,,,,,,,,,,,,,,,,,,,,,,,,,,,,,,,,,,,,,,,,,,,,,,,,,,,,,,,,,,
,,65b2e96958c28d5efd354635,2024-02-21_21h26.21.230,kallum_motion_pilot,2023.2.2,Win32,59.52380952,65b2e96958c28d5efd354635,65d6bb0e977760de756971f7,65d6beca265c1952ee891fc4,0.0667,0.0667,1,14,176,33,1,onethree,,,,,,,,,,,,,,,,,,,,,,,,,,,,,,,,,,,,,,,,,,,,,,,,,,,,,,,,,,,,,,,,,,,,,,,,,,,,,,,,,,,,,,,,,,,,,,,,,,,,,,,,,,,,,,,,,,,,,,,,,,,,,,,,,,,,,,,,,
,,65b2e96958c28d5efd354635,2024-02-21_21h26.21.230,kallum_motion_pilot,2023.2.2,Win32,59.52380952,65b2e96958c28d5efd354635,65d6bb0e977760de756971f7,65d6beca265c1952ee891fc4,0.0668,0.0669,1,15,177,40,1,onetwo,,,,,,,,,,,,,,,,,,,,,,,,,,,,,,,,,,,,,,,,,,,,,,,,,,,,,,,,,,,,,,,,,,,,,,,,,,,,,,,,,,,,,,,,,,,,,,,,,,,,,,,,,,,,,,,,,,,,,,,,,,,,,,,,,,,,,,,,,
,,65b2e96958c28d5efd354635,2024-02-21_21h26.21.230,kallum_motion_pilot,2023.2.2,Win32,59.52380952,65b2e96958c28d5efd354635,65d6bb0e977760de756971f7,65d6beca265c1952ee891fc4,0.067,0.0671,1,16,178,83,1,sixeight,,,,,,,,,,,,,,,,,,,,,,,,,,,,,,,,,,,,,,,,,,,,,,,,,,,,,,,,,,,,,,,,,,,,,,,,,,,,,,,,,,,,,,,,,,,,,,,,,,,,,,,,,,,,,,,,,,,,,,,,,,,,,,,,,,,,,,,,,
,,65b2e96958c28d5efd354635,2024-02-21_21h26.21.230,kallum_motion_pilot,2023.2.2,Win32,59.52380952,65b2e96958c28d5efd354635,65d6bb0e977760de756971f7,65d6beca265c1952ee891fc4,0.0672,0.0672,1,17,179,21,1,threefour,,,,,,,,,,,,,,,,,,,,,,,,,,,,,,,,,,,,,,,,,,,,,,,,,,,,,,,,,,,,,,,,,,,,,,,,,,,,,,,,,,,,,,,,,,,,,,,,,,,,,,,,,,,,,,,,,,,,,,,,,,,,,,,,,,,,,,,,,
,,65b2e96958c28d5efd354635,2024-02-21_21h26.21.230,kallum_motion_pilot,2023.2.2,Win32,59.52380952,65b2e96958c28d5efd354635,65d6bb0e977760de756971f7,65d6beca265c1952ee891fc4,0.0674,0.0675,1,18,180,53,1,threefour,,,,,,,,,,,,,,,,,,,,,,,,,,,,,,,,,,,,,,,,,,,,,,,,,,,,,,,,,,,,,,,,,,,,,,,,,,,,,,,,,,,,,,,,,,,,,,,,,,,,,,,,,,,,,,,,,,,,,,,,,,,,,,,,,,,,,,,,,
,,65b2e96958c28d5efd354635,2024-02-21_21h26.21.230,kallum_motion_pilot,2023.2.2,Win32,59.52380952,65b2e96958c28d5efd354635,65d6bb0e977760de756971f7,65d6beca265c1952ee891fc4,0.0676,0.0676,1,19,181,15,1,fourthree,,,,,,,,,,,,,,,,,,,,,,,,,,,,,,,,,,,,,,,,,,,,,,,,,,,,,,,,,,,,,,,,,,,,,,,,,,,,,,,,,,,,,,,,,,,,,,,,,,,,,,,,,,,,,,,,,,,,,,,,,,,,,,,,,,,,,,,,,
,,65b2e96958c28d5efd354635,2024-02-21_21h26.21.230,kallum_motion_pilot,2023.2.2,Win32,59.52380952,65b2e96958c28d5efd354635,65d6bb0e977760de756971f7,65d6beca265c1952ee891fc4,0.0677,0.0678,1,20,182,133,1,seveneight,,,,,,,,,,,,,,,,,,,,,,,,,,,,,,,,,,,,,,,,,,,,,,,,,,,,,,,,,,,,,,,,,,,,,,,,,,,,,,,,,,,,,,,,,,,,,,,,,,,,,,,,,,,,,,,,,,,,,,,,,,,,,,,,,,,,,,,,,
,,65b2e96958c28d5efd354635,2024-02-21_21h26.21.230,kallum_motion_pilot,2023.2.2,Win32,59.52380952,65b2e96958c28d5efd354635,65d6bb0e977760de756971f7,65d6beca265c1952ee891fc4,0.0679,0.068,1,21,183,38,1,fourtwo,,,,,,,,,,,,,,,,,,,,,,,,,,,,,,,,,,,,,,,,,,,,,,,,,,,,,,,,,,,,,,,,,,,,,,,,,,,,,,,,,,,,,,,,,,,,,,,,,,,,,,,,,,,,,,,,,,,,,,,,,,,,,,,,,,,,,,,,,
,,65b2e96958c28d5efd354635,2024-02-21_21h26.21.230,kallum_motion_pilot,2023.2.2,Win32,59.52380952,65b2e96958c28d5efd354635,65d6bb0e977760de756971f7,65d6beca265c1952ee891fc4,0.0681,0.0682,1,22,184,103,1,eightseven,,,,,,,,,,,,,,,,,,,,,,,,,,,,,,,,,,,,,,,,,,,,,,,,,,,,,,,,,,,,,,,,,,,,,,,,,,,,,,,,,,,,,,,,,,,,,,,,,,,,,,,,,,,,,,,,,,,,,,,,,,,,,,,,,,,,,,,,,
,,65b2e96958c28d5efd354635,2024-02-21_21h26.21.230,kallum_motion_pilot,2023.2.2,Win32,59.52380952,65b2e96958c28d5efd354635,65d6bb0e977760de756971f7,65d6beca265c1952ee891fc4,0.0683,0.0684,1,23,185,11,1,twofour,,,,,,,,,,,,,,,,,,,,,,,,,,,,,,,,,,,,,,,,,,,,,,,,,,,,,,,,,,,,,,,,,,,,,,,,,,,,,,,,,,,,,,,,,,,,,,,,,,,,,,,,,,,,,,,,,,,,,,,,,,,,,,,,,,,,,,,,,
,,65b2e96958c28d5efd354635,2024-02-21_21h26.21.230,kallum_motion_pilot,2023.2.2,Win32,59.52380952,65b2e96958c28d5efd354635,65d6bb0e977760de756971f7,65d6beca265c1952ee891fc4,0.0685,0.0686,1,24,186,130,1,sixfive,,,,,,,,,,,,,,,,,,,,,,,,,,,,,,,,,,,,,,,,,,,,,,,,,,,,,,,,,,,,,,,,,,,,,,,,,,,,,,,,,,,,,,,,,,,,,,,,,,,,,,,,,,,,,,,,,,,,,,,,,,,,,,,,,,,,,,,,,
,,65b2e96958c28d5efd354635,2024-02-21_21h26.21.230,kallum_motion_pilot,2023.2.2,Win32,59.52380952,65b2e96958c28d5efd354635,65d6bb0e977760de756971f7,65d6beca265c1952ee891fc4,0.0688,0.0688,1,25,187,12,1,threeone,,,,,,,,,,,,,,,,,,,,,,,,,,,,,,,,,,,,,,,,,,,,,,,,,,,,,,,,,,,,,,,,,,,,,,,,,,,,,,,,,,,,,,,,,,,,,,,,,,,,,,,,,,,,,,,,,,,,,,,,,,,,,,,,,,,,,,,,,
,,65b2e96958c28d5efd354635,2024-02-21_21h26.21.230,kallum_motion_pilot,2023.2.2,Win32,59.52380952,65b2e96958c28d5efd354635,65d6bb0e977760de756971f7,65d6beca265c1952ee891fc4,0.0689,0.069,1,26,188,156,1,sevenfive,,,,,,,,,,,,,,,,,,,,,,,,,,,,,,,,,,,,,,,,,,,,,,,,,,,,,,,,,,,,,,,,,,,,,,,,,,,,,,,,,,,,,,,,,,,,,,,,,,,,,,,,,,,,,,,,,,,,,,,,,,,,,,,,,,,,,,,,,
,,65b2e96958c28d5efd354635,2024-02-21_21h26.21.230,kallum_motion_pilot,2023.2.2,Win32,59.52380952,65b2e96958c28d5efd354635,65d6bb0e977760de756971f7,65d6beca265c1952ee891fc4,0.0691,0.0692,1,27,189,59,1,twofour,,,,,,,,,,,,,,,,,,,,,,,,,,,,,,,,,,,,,,,,,,,,,,,,,,,,,,,,,,,,,,,,,,,,,,,,,,,,,,,,,,,,,,,,,,,,,,,,,,,,,,,,,,,,,,,,,,,,,,,,,,,,,,,,,,,,,,,,,
,,65b2e96958c28d5efd354635,2024-02-21_21h26.21.230,kallum_motion_pilot,2023.2.2,Win32,59.52380952,65b2e96958c28d5efd354635,65d6bb0e977760de756971f7,65d6beca265c1952ee891fc4,0.0693,0.0694,1,28,190,5,1,threefour,,,,,,,,,,,,,,,,,,,,,,,,,,,,,,,,,,,,,,,,,,,,,,,,,,,,,,,,,,,,,,,,,,,,,,,,,,,,,,,,,,,,,,,,,,,,,,,,,,,,,,,,,,,,,,,,,,,,,,,,,,,,,,,,,,,,,,,,,
,,65b2e96958c28d5efd354635,2024-02-21_21h26.21.230,kallum_motion_pilot,2023.2.2,Win32,59.52380952,65b2e96958c28d5efd354635,65d6bb0e977760de756971f7,65d6beca265c1952ee891fc4,0.0695,0.0695,1,29,191,51,1,twofour,,,,,,,,,,,,,,,,,,,,,,,,,,,,,,,,,,,,,,,,,,,,,,,,,,,,,,,,,,,,,,,,,,,,,,,,,,,,,,,,,,,,,,,,,,,,,,,,,,,,,,,,,,,,,,,,,,,,,,,,,,,,,,,,,,,,,,,,,
,,65b2e96958c28d5efd354635,2024-02-21_21h26.21.230,kallum_motion_pilot,2023.2.2,Win32,59.52380952,65b2e96958c28d5efd354635,65d6bb0e977760de756971f7,65d6beca265c1952ee891fc4,0.0696,0.0698,1,30,192,112,1,fivesix,,,,,,,,,,,,,,,,,,,,,,,,,,,,,,,,,,,,,,,,,,,,,,,,,,,,,,,,,,,,,,,,,,,,,,,,,,,,,,,,,,,,,,,,,,,,,,,,,,,,,,,,,,,,,,,,,,,,,,,,,,,,,,,,,,,,,,,,,
,,65b2e96958c28d5efd354635,2024-02-21_21h26.21.230,kallum_motion_pilot,2023.2.2,Win32,59.52380952,65b2e96958c28d5efd354635,65d6bb0e977760de756971f7,65d6beca265c1952ee891fc4,0.0699,0.07,1,31,193,58,1,twoone,,,,,,,,,,,,,,,,,,,,,,,,,,,,,,,,,,,,,,,,,,,,,,,,,,,,,,,,,,,,,,,,,,,,,,,,,,,,,,,,,,,,,,,,,,,,,,,,,,,,,,,,,,,,,,,,,,,,,,,,,,,,,,,,,,,,,,,,,
,,65b2e96958c28d5efd354635,2024-02-21_21h26.21.230,kallum_motion_pilot,2023.2.2,Win32,59.52380952,65b2e96958c28d5efd354635,65d6bb0e977760de756971f7,65d6beca265c1952ee891fc4,0.0701,0.0701,1,32,194,117,1,seveneight,,,,,,,,,,,,,,,,,,,,,,,,,,,,,,,,,,,,,,,,,,,,,,,,,,,,,,,,,,,,,,,,,,,,,,,,,,,,,,,,,,,,,,,,,,,,,,,,,,,,,,,,,,,,,,,,,,,,,,,,,,,,,,,,,,,,,,,,,
,,65b2e96958c28d5efd354635,2024-02-21_21h26.21.230,kallum_motion_pilot,2023.2.2,Win32,59.52380952,65b2e96958c28d5efd354635,65d6bb0e977760de756971f7,65d6beca265c1952ee891fc4,0.0702,0.0704,1,33,195,52,1,threeone,,,,,,,,,,,,,,,,,,,,,,,,,,,,,,,,,,,,,,,,,,,,,,,,,,,,,,,,,,,,,,,,,,,,,,,,,,,,,,,,,,,,,,,,,,,,,,,,,,,,,,,,,,,,,,,,,,,,,,,,,,,,,,,,,,,,,,,,,
,,65b2e96958c28d5efd354635,2024-02-21_21h26.21.230,kallum_motion_pilot,2023.2.2,Win32,59.52380952,65b2e96958c28d5efd354635,65d6bb0e977760de756971f7,65d6beca265c1952ee891fc4,0.0704,0.0705,1,34,196,91,1,sixeight,,,,,,,,,,,,,,,,,,,,,,,,,,,,,,,,,,,,,,,,,,,,,,,,,,,,,,,,,,,,,,,,,,,,,,,,,,,,,,,,,,,,,,,,,,,,,,,,,,,,,,,,,,,,,,,,,,,,,,,,,,,,,,,,,,,,,,,,,
,,65b2e96958c28d5efd354635,2024-02-21_21h26.21.230,kallum_motion_pilot,2023.2.2,Win32,59.52380952,65b2e96958c28d5efd354635,65d6bb0e977760de756971f7,65d6beca265c1952ee891fc4,0.0707,0.0708,1,35,197,14,1,fourtwo,,,,,,,,,,,,,,,,,,,,,,,,,,,,,,,,,,,,,,,,,,,,,,,,,,,,,,,,,,,,,,,,,,,,,,,,,,,,,,,,,,,,,,,,,,,,,,,,,,,,,,,,,,,,,,,,,,,,,,,,,,,,,,,,,,,,,,,,,
,,65b2e96958c28d5efd354635,2024-02-21_21h26.21.230,kallum_motion_pilot,2023.2.2,Win32,59.52380952,65b2e96958c28d5efd354635,65d6bb0e977760de756971f7,65d6beca265c1952ee891fc4,0.0709,0.071,1,36,198,70,1,fourtwo,,,,,,,,,,,,,,,,,,,,,,,,,,,,,,,,,,,,,,,,,,,,,,,,,,,,,,,,,,,,,,,,,,,,,,,,,,,,,,,,,,,,,,,,,,,,,,,,,,,,,,,,,,,,,,,,,,,,,,,,,,,,,,,,,,,,,,,,,
,,65b2e96958c28d5efd354635,2024-02-21_21h26.21.230,kallum_motion_pilot,2023.2.2,Win32,59.52380952,65b2e96958c28d5efd354635,65d6bb0e977760de756971f7,65d6beca265c1952ee891fc4,0.0713,0.0714,1,37,199,126,1,eightsix,,,,,,,,,,,,,,,,,,,,,,,,,,,,,,,,,,,,,,,,,,,,,,,,,,,,,,,,,,,,,,,,,,,,,,,,,,,,,,,,,,,,,,,,,,,,,,,,,,,,,,,,,,,,,,,,,,,,,,,,,,,,,,,,,,,,,,,,,
,,65b2e96958c28d5efd354635,2024-02-21_21h26.21.230,kallum_motion_pilot,2023.2.2,Win32,59.52380952,65b2e96958c28d5efd354635,65d6bb0e977760de756971f7,65d6beca265c1952ee891fc4,0.0716,0.0717,1,38,200,71,1,fourthree,,,,,,,,,,,,,,,,,,,,,,,,,,,,,,,,,,,,,,,,,,,,,,,,,,,,,,,,,,,,,,,,,,,,,,,,,,,,,,,,,,,,,,,,,,,,,,,,,,,,,,,,,,,,,,,,,,,,,,,,,,,,,,,,,,,,,,,,,
,,65b2e96958c28d5efd354635,2024-02-21_21h26.21.230,kallum_motion_pilot,2023.2.2,Win32,59.52380952,65b2e96958c28d5efd354635,65d6bb0e977760de756971f7,65d6beca265c1952ee891fc4,0.0719,0.072,1,39,201,138,1,sixfive,,,,,,,,,,,,,,,,,,,,,,,,,,,,,,,,,,,,,,,,,,,,,,,,,,,,,,,,,,,,,,,,,,,,,,,,,,,,,,,,,,,,,,,,,,,,,,,,,,,,,,,,,,,,,,,,,,,,,,,,,,,,,,,,,,,,,,,,,
,,65b2e96958c28d5efd354635,2024-02-21_21h26.21.230,kallum_motion_pilot,2023.2.2,Win32,59.52380952,65b2e96958c28d5efd354635,65d6bb0e977760de756971f7,65d6beca265c1952ee891fc4,0.0721,0.0723,1,40,202,129,1,fiveseven,,,,,,,,,,,,,,,,,,,,,,,,,,,,,,,,,,,,,,,,,,,,,,,,,,,,,,,,,,,,,,,,,,,,,,,,,,,,,,,,,,,,,,,,,,,,,,,,,,,,,,,,,,,,,,,,,,,,,,,,,,,,,,,,,,,,,,,,,
,,65b2e96958c28d5efd354635,2024-02-21_21h26.21.230,kallum_motion_pilot,2023.2.2,Win32,59.52380952,65b2e96958c28d5efd354635,65d6bb0e977760de756971f7,65d6beca265c1952ee891fc4,0.0724,0.0726,1,41,203,107,1,sixeight,,,,,,,,,,,,,,,,,,,,,,,,,,,,,,,,,,,,,,,,,,,,,,,,,,,,,,,,,,,,,,,,,,,,,,,,,,,,,,,,,,,,,,,,,,,,,,,,,,,,,,,,,,,,,,,,,,,,,,,,,,,,,,,,,,,,,,,,,
,,65b2e96958c28d5efd354635,2024-02-21_21h26.21.230,kallum_motion_pilot,2023.2.2,Win32,59.52380952,65b2e96958c28d5efd354635,65d6bb0e977760de756971f7,65d6beca265c1952ee891fc4,0.0728,0.073,1,42,204,102,1,eightsix,,,,,,,,,,,,,,,,,,,,,,,,,,,,,,,,,,,,,,,,,,,,,,,,,,,,,,,,,,,,,,,,,,,,,,,,,,,,,,,,,,,,,,,,,,,,,,,,,,,,,,,,,,,,,,,,,,,,,,,,,,,,,,,,,,,,,,,,,
,,65b2e96958c28d5efd354635,2024-02-21_21h26.21.230,kallum_motion_pilot,2023.2.2,Win32,59.52380952,65b2e96958c28d5efd354635,65d6bb0e977760de756971f7,65d6beca265c1952ee891fc4,0.0731,0.0733,1,43,205,82,1,sixfive,,,,,,,,,,,,,,,,,,,,,,,,,,,,,,,,,,,,,,,,,,,,,,,,,,,,,,,,,,,,,,,,,,,,,,,,,,,,,,,,,,,,,,,,,,,,,,,,,,,,,,,,,,,,,,,,,,,,,,,,,,,,,,,,,,,,,,,,,
,,65b2e96958c28d5efd354635,2024-02-21_21h26.21.230,kallum_motion_pilot,2023.2.2,Win32,59.52380952,65b2e96958c28d5efd354635,65d6bb0e977760de756971f7,65d6beca265c1952ee891fc4,0.0734,0.0736,1,44,206,76,1,threeone,,,,,,,,,,,,,,,,,,,,,,,,,,,,,,,,,,,,,,,,,,,,,,,,,,,,,,,,,,,,,,,,,,,,,,,,,,,,,,,,,,,,,,,,,,,,,,,,,,,,,,,,,,,,,,,,,,,,,,,,,,,,,,,,,,,,,,,,,
,,65b2e96958c28d5efd354635,2024-02-21_21h26.21.230,kallum_motion_pilot,2023.2.2,Win32,59.52380952,65b2e96958c28d5efd354635,65d6bb0e977760de756971f7,65d6beca265c1952ee891fc4,0.0738,0.0739,1,45,207,140,1,sevenfive,,,,,,,,,,,,,,,,,,,,,,,,,,,,,,,,,,,,,,,,,,,,,,,,,,,,,,,,,,,,,,,,,,,,,,,,,,,,,,,,,,,,,,,,,,,,,,,,,,,,,,,,,,,,,,,,,,,,,,,,,,,,,,,,,,,,,,,,,
,,65b2e96958c28d5efd354635,2024-02-21_21h26.21.230,kallum_motion_pilot,2023.2.2,Win32,59.52380952,65b2e96958c28d5efd354635,65d6bb0e977760de756971f7,65d6beca265c1952ee891fc4,0.0741,0.0742,1,46,208,74,1,twoone,,,,,,,,,,,,,,,,,,,,,,,,,,,,,,,,,,,,,,,,,,,,,,,,,,,,,,,,,,,,,,,,,,,,,,,,,,,,,,,,,,,,,,,,,,,,,,,,,,,,,,,,,,,,,,,,,,,,,,,,,,,,,,,,,,,,,,,,,
,,65b2e96958c28d5efd354635,2024-02-21_21h26.21.230,kallum_motion_pilot,2023.2.2,Win32,59.52380952,65b2e96958c28d5efd354635,65d6bb0e977760de756971f7,65d6beca265c1952ee891fc4,0.0744,0.0745,1,47,209,145,1,fiveseven,,,,,,,,,,,,,,,,,,,,,,,,,,,,,,,,,,,,,,,,,,,,,,,,,,,,,,,,,,,,,,,,,,,,,,,,,,,,,,,,,,,,,,,,,,,,,,,,,,,,,,,,,,,,,,,,,,,,,,,,,,,,,,,,,,,,,,,,,
,,65b2e96958c28d5efd354635,2024-02-21_21h26.21.230,kallum_motion_pilot,2023.2.2,Win32,59.52380952,65b2e96958c28d5efd354635,65d6bb0e977760de756971f7,65d6beca265c1952ee891fc4,0.0747,0.0747,1,48,210,128,1,fivesix,,,,,,,,,,,,,,,,,,,,,,,,,,,,,,,,,,,,,,,,,,,,,,,,,,,,,,,,,,,,,,,,,,,,,,,,,,,,,,,,,,,,,,,,,,,,,,,,,,,,,,,,,,,,,,,,,,,,,,,,,,,,,,,,,,,,,,,,,
,,65b2e96958c28d5efd354635,2024-02-21_21h26.21.230,kallum_motion_pilot,2023.2.2,Win32,59.52380952,65b2e96958c28d5efd354635,65d6bb0e977760de756971f7,65d6beca265c1952ee891fc4,0.075,0.0751,1,49,211,154,1,sixfive,,,,,,,,,,,,,,,,,,,,,,,,,,,,,,,,,,,,,,,,,,,,,,,,,,,,,,,,,,,,,,,,,,,,,,,,,,,,,,,,,,,,,,,,,,,,,,,,,,,,,,,,,,,,,,,,,,,,,,,,,,,,,,,,,,,,,,,,,
,,65b2e96958c28d5efd354635,2024-02-21_21h26.21.230,kallum_motion_pilot,2023.2.2,Win32,59.52380952,65b2e96958c28d5efd354635,65d6bb0e977760de756971f7,65d6beca265c1952ee891fc4,0.0753,0.0754,1,50,212,158,1,eightsix,,,,,,,,,,,,,,,,,,,,,,,,,,,,,,,,,,,,,,,,,,,,,,,,,,,,,,,,,,,,,,,,,,,,,,,,,,,,,,,,,,,,,,,,,,,,,,,,,,,,,,,,,,,,,,,,,,,,,,,,,,,,,,,,,,,,,,,,,
,,65b2e96958c28d5efd354635,2024-02-21_21h26.21.230,kallum_motion_pilot,2023.2.2,Win32,59.52380952,65b2e96958c28d5efd354635,65d6bb0e977760de756971f7,65d6beca265c1952ee891fc4,0.0755,0.0756,1,51,213,150,1,eightsix,,,,,,,,,,,,,,,,,,,,,,,,,,,,,,,,,,,,,,,,,,,,,,,,,,,,,,,,,,,,,,,,,,,,,,,,,,,,,,,,,,,,,,,,,,,,,,,,,,,,,,,,,,,,,,,,,,,,,,,,,,,,,,,,,,,,,,,,,
,,65b2e96958c28d5efd354635,2024-02-21_21h26.21.230,kallum_motion_pilot,2023.2.2,Win32,59.52380952,65b2e96958c28d5efd354635,65d6bb0e977760de756971f7,65d6beca265c1952ee891fc4,0.0758,0.0759,1,52,214,116,1,sevenfive,,,,,,,,,,,,,,,,,,,,,,,,,,,,,,,,,,,,,,,,,,,,,,,,,,,,,,,,,,,,,,,,,,,,,,,,,,,,,,,,,,,,,,,,,,,,,,,,,,,,,,,,,,,,,,,,,,,,,,,,,,,,,,,,,,,,,,,,,
,,65b2e96958c28d5efd354635,2024-02-21_21h26.21.230,kallum_motion_pilot,2023.2.2,Win32,59.52380952,65b2e96958c28d5efd354635,65d6bb0e977760de756971f7,65d6beca265c1952ee891fc4,0.076,0.0761,1,53,215,54,1,fourtwo,,,,,,,,,,,,,,,,,,,,,,,,,,,,,,,,,,,,,,,,,,,,,,,,,,,,,,,,,,,,,,,,,,,,,,,,,,,,,,,,,,,,,,,,,,,,,,,,,,,,,,,,,,,,,,,,,,,,,,,,,,,,,,,,,,,,,,,,,
,,65b2e96958c28d5efd354635,2024-02-21_21h26.21.230,kallum_motion_pilot,2023.2.2,Win32,59.52380952,65b2e96958c28d5efd354635,65d6bb0e977760de756971f7,65d6beca265c1952ee891fc4,0.0763,0.0763,1,54,216,17,1,onethree,,,,,,,,,,,,,,,,,,,,,,,,,,,,,,,,,,,,,,,,,,,,,,,,,,,,,,,,,,,,,,,,,,,,,,,,,,,,,,,,,,,,,,,,,,,,,,,,,,,,,,,,,,,,,,,,,,,,,,,,,,,,,,,,,,,,,,,,,
,,65b2e96958c28d5efd354635,2024-02-21_21h26.21.230,kallum_motion_pilot,2023.2.2,Win32,59.52380952,65b2e96958c28d5efd354635,65d6bb0e977760de756971f7,65d6beca265c1952ee891fc4,0.0764,0.0766,1,55,217,73,1,onethree,,,,,,,,,,,,,,,,,,,,,,,,,,,,,,,,,,,,,,,,,,,,,,,,,,,,,,,,,,,,,,,,,,,,,,,,,,,,,,,,,,,,,,,,,,,,,,,,,,,,,,,,,,,,,,,,,,,,,,,,,,,,,,,,,,,,,,,,,
,,65b2e96958c28d5efd354635,2024-02-21_21h26.21.230,kallum_motion_pilot,2023.2.2,Win32,59.52380952,65b2e96958c28d5efd354635,65d6bb0e977760de756971f7,65d6beca265c1952ee891fc4,0.0768,0.0768,1,56,218,118,1,eightsix,,,,,,,,,,,,,,,,,,,,,,,,,,,,,,,,,,,,,,,,,,,,,,,,,,,,,,,,,,,,,,,,,,,,,,,,,,,,,,,,,,,,,,,,,,,,,,,,,,,,,,,,,,,,,,,,,,,,,,,,,,,,,,,,,,,,,,,,,
,,65b2e96958c28d5efd354635,2024-02-21_21h26.21.230,kallum_motion_pilot,2023.2.2,Win32,59.52380952,65b2e96958c28d5efd354635,65d6bb0e977760de756971f7,65d6beca265c1952ee891fc4,0.077,0.0771,1,57,219,125,1,seveneight,,,,,,,,,,,,,,,,,,,,,,,,,,,,,,,,,,,,,,,,,,,,,,,,,,,,,,,,,,,,,,,,,,,,,,,,,,,,,,,,,,,,,,,,,,,,,,,,,,,,,,,,,,,,,,,,,,,,,,,,,,,,,,,,,,,,,,,,,
,,65b2e96958c28d5efd354635,2024-02-21_21h26.21.230,kallum_motion_pilot,2023.2.2,Win32,59.52380952,65b2e96958c28d5efd354635,65d6bb0e977760de756971f7,65d6beca265c1952ee891fc4,0.0772,0.0773,1,58,220,159,1,eightseven,,,,,,,,,,,,,,,,,,,,,,,,,,,,,,,,,,,,,,,,,,,,,,,,,,,,,,,,,,,,,,,,,,,,,,,,,,,,,,,,,,,,,,,,,,,,,,,,,,,,,,,,,,,,,,,,,,,,,,,,,,,,,,,,,,,,,,,,,
,,65b2e96958c28d5efd354635,2024-02-21_21h26.21.230,kallum_motion_pilot,2023.2.2,Win32,59.52380952,65b2e96958c28d5efd354635,65d6bb0e977760de756971f7,65d6beca265c1952ee891fc4,0.0774,0.0774,1,59,221,134,1,eightsix,,,,,,,,,,,,,,,,,,,,,,,,,,,,,,,,,,,,,,,,,,,,,,,,,,,,,,,,,,,,,,,,,,,,,,,,,,,,,,,,,,,,,,,,,,,,,,,,,,,,,,,,,,,,,,,,,,,,,,,,,,,,,,,,,,,,,,,,,
,,65b2e96958c28d5efd354635,2024-02-21_21h26.21.230,kallum_motion_pilot,2023.2.2,Win32,59.52380952,65b2e96958c28d5efd354635,65d6bb0e977760de756971f7,65d6beca265c1952ee891fc4,0.0776,0.0777,1,60,222,151,1,eightseven,,,,,,,,,,,,,,,,,,,,,,,,,,,,,,,,,,,,,,,,,,,,,,,,,,,,,,,,,,,,,,,,,,,,,,,,,,,,,,,,,,,,,,,,,,,,,,,,,,,,,,,,,,,,,,,,,,,,,,,,,,,,,,,,,,,,,,,,,
,,65b2e96958c28d5efd354635,2024-02-21_21h26.21.230,kallum_motion_pilot,2023.2.2,Win32,59.52380952,65b2e96958c28d5efd354635,65d6bb0e977760de756971f7,65d6beca265c1952ee891fc4,0.0778,0.0778,1,61,223,123,1,sixeight,,,,,,,,,,,,,,,,,,,,,,,,,,,,,,,,,,,,,,,,,,,,,,,,,,,,,,,,,,,,,,,,,,,,,,,,,,,,,,,,,,,,,,,,,,,,,,,,,,,,,,,,,,,,,,,,,,,,,,,,,,,,,,,,,,,,,,,,,
,,65b2e96958c28d5efd354635,2024-02-21_21h26.21.230,kallum_motion_pilot,2023.2.2,Win32,59.52380952,65b2e96958c28d5efd354635,65d6bb0e977760de756971f7,65d6beca265c1952ee891fc4,0.0779,0.0781,1,62,224,119,1,eightseven,,,,,,,,,,,,,,,,,,,,,,,,,,,,,,,,,,,,,,,,,,,,,,,,,,,,,,,,,,,,,,,,,,,,,,,,,,,,,,,,,,,,,,,,,,,,,,,,,,,,,,,,,,,,,,,,,,,,,,,,,,,,,,,,,,,,,,,,,
,,65b2e96958c28d5efd354635,2024-02-21_21h26.21.230,kallum_motion_pilot,2023.2.2,Win32,59.52380952,65b2e96958c28d5efd354635,65d6bb0e977760de756971f7,65d6beca265c1952ee891fc4,0.0782,0.0783,1,63,225,90,1,sixfive,,,,,,,,,,,,,,,,,,,,,,,,,,,,,,,,,,,,,,,,,,,,,,,,,,,,,,,,,,,,,,,,,,,,,,,,,,,,,,,,,,,,,,,,,,,,,,,,,,,,,,,,,,,,,,,,,,,,,,,,,,,,,,,,,,,,,,,,,
,,65b2e96958c28d5efd354635,2024-02-21_21h26.21.230,kallum_motion_pilot,2023.2.2,Win32,59.52380952,65b2e96958c28d5efd354635,65d6bb0e977760de756971f7,65d6beca265c1952ee891fc4,0.0784,0.0785,1,64,226,127,1,eightseven,,,,,,,,,,,,,,,,,,,,,,,,,,,,,,,,,,,,,,,,,,,,,,,,,,,,,,,,,,,,,,,,,,,,,,,,,,,,,,,,,,,,,,,,,,,,,,,,,,,,,,,,,,,,,,,,,,,,,,,,,,,,,,,,,,,,,,,,,
,,65b2e96958c28d5efd354635,2024-02-21_21h26.21.230,kallum_motion_pilot,2023.2.2,Win32,59.52380952,65b2e96958c28d5efd354635,65d6bb0e977760de756971f7,65d6beca265c1952ee891fc4,0.0786,0.0787,1,65,227,4,1,threeone,,,,,,,,,,,,,,,,,,,,,,,,,,,,,,,,,,,,,,,,,,,,,,,,,,,,,,,,,,,,,,,,,,,,,,,,,,,,,,,,,,,,,,,,,,,,,,,,,,,,,,,,,,,,,,,,,,,,,,,,,,,,,,,,,,,,,,,,,
,,65b2e96958c28d5efd354635,2024-02-21_21h26.21.230,kallum_motion_pilot,2023.2.2,Win32,59.52380952,65b2e96958c28d5efd354635,65d6bb0e977760de756971f7,65d6beca265c1952ee891fc4,0.0788,0.0788,1,66,228,49,1,onethree,,,,,,,,,,,,,,,,,,,,,,,,,,,,,,,,,,,,,,,,,,,,,,,,,,,,,,,,,,,,,,,,,,,,,,,,,,,,,,,,,,,,,,,,,,,,,,,,,,,,,,,,,,,,,,,,,,,,,,,,,,,,,,,,,,,,,,,,,
,,65b2e96958c28d5efd354635,2024-02-21_21h26.21.230,kallum_motion_pilot,2023.2.2,Win32,59.52380952,65b2e96958c28d5efd354635,65d6bb0e977760de756971f7,65d6beca265c1952ee891fc4,0.079,0.0791,1,67,229,50,1,twoone,,,,,,,,,,,,,,,,,,,,,,,,,,,,,,,,,,,,,,,,,,,,,,,,,,,,,,,,,,,,,,,,,,,,,,,,,,,,,,,,,,,,,,,,,,,,,,,,,,,,,,,,,,,,,,,,,,,,,,,,,,,,,,,,,,,,,,,,,
,,65b2e96958c28d5efd354635,2024-02-21_21h26.21.230,kallum_motion_pilot,2023.2.2,Win32,59.52380952,65b2e96958c28d5efd354635,65d6bb0e977760de756971f7,65d6beca265c1952ee891fc4,0.0792,0.0793,1,68,230,0,1,onetwo,,,,,,,,,,,,,,,,,,,,,,,,,,,,,,,,,,,,,,,,,,,,,,,,,,,,,,,,,,,,,,,,,,,,,,,,,,,,,,,,,,,,,,,,,,,,,,,,,,,,,,,,,,,,,,,,,,,,,,,,,,,,,,,,,,,,,,,,,
,,65b2e96958c28d5efd354635,2024-02-21_21h26.21.230,kallum_motion_pilot,2023.2.2,Win32,59.52380952,65b2e96958c28d5efd354635,65d6bb0e977760de756971f7,65d6beca265c1952ee891fc4,0.0794,0.0795,1,69,231,77,1,threefour,,,,,,,,,,,,,,,,,,,,,,,,,,,,,,,,,,,,,,,,,,,,,,,,,,,,,,,,,,,,,,,,,,,,,,,,,,,,,,,,,,,,,,,,,,,,,,,,,,,,,,,,,,,,,,,,,,,,,,,,,,,,,,,,,,,,,,,,,
,,65b2e96958c28d5efd354635,2024-02-21_21h26.21.230,kallum_motion_pilot,2023.2.2,Win32,59.52380952,65b2e96958c28d5efd354635,65d6bb0e977760de756971f7,65d6beca265c1952ee891fc4,0.0796,0.0798,1,70,232,62,1,fourtwo,,,,,,,,,,,,,,,,,,,,,,,,,,,,,,,,,,,,,,,,,,,,,,,,,,,,,,,,,,,,,,,,,,,,,,,,,,,,,,,,,,,,,,,,,,,,,,,,,,,,,,,,,,,,,,,,,,,,,,,,,,,,,,,,,,,,,,,,,
,,65b2e96958c28d5efd354635,2024-02-21_21h26.21.230,kallum_motion_pilot,2023.2.2,Win32,59.52380952,65b2e96958c28d5efd354635,65d6bb0e977760de756971f7,65d6beca265c1952ee891fc4,0.0799,0.08,1,71,233,141,1,seveneight,,,,,,,,,,,,,,,,,,,,,,,,,,,,,,,,,,,,,,,,,,,,,,,,,,,,,,,,,,,,,,,,,,,,,,,,,,,,,,,,,,,,,,,,,,,,,,,,,,,,,,,,,,,,,,,,,,,,,,,,,,,,,,,,,,,,,,,,,
,,65b2e96958c28d5efd354635,2024-02-21_21h26.21.230,kallum_motion_pilot,2023.2.2,Win32,59.52380952,65b2e96958c28d5efd354635,65d6bb0e977760de756971f7,65d6beca265c1952ee891fc4,0.0801,0.0802,1,72,234,157,1,seveneight,,,,,,,,,,,,,,,,,,,,,,,,,,,,,,,,,,,,,,,,,,,,,,,,,,,,,,,,,,,,,,,,,,,,,,,,,,,,,,,,,,,,,,,,,,,,,,,,,,,,,,,,,,,,,,,,,,,,,,,,,,,,,,,,,,,,,,,,,
,,65b2e96958c28d5efd354635,2024-02-21_21h26.21.230,kallum_motion_pilot,2023.2.2,Win32,59.52380952,65b2e96958c28d5efd354635,65d6bb0e977760de756971f7,65d6beca265c1952ee891fc4,0.0803,0.0803,1,73,235,93,1,seveneight,,,,,,,,,,,,,,,,,,,,,,,,,,,,,,,,,,,,,,,,,,,,,,,,,,,,,,,,,,,,,,,,,,,,,,,,,,,,,,,,,,,,,,,,,,,,,,,,,,,,,,,,,,,,,,,,,,,,,,,,,,,,,,,,,,,,,,,,,
,,65b2e96958c28d5efd354635,2024-02-21_21h26.21.230,kallum_motion_pilot,2023.2.2,Win32,59.52380952,65b2e96958c28d5efd354635,65d6bb0e977760de756971f7,65d6beca265c1952ee891fc4,0.0805,0.0806,1,74,236,143,1,eightseven,,,,,,,,,,,,,,,,,,,,,,,,,,,,,,,,,,,,,,,,,,,,,,,,,,,,,,,,,,,,,,,,,,,,,,,,,,,,,,,,,,,,,,,,,,,,,,,,,,,,,,,,,,,,,,,,,,,,,,,,,,,,,,,,,,,,,,,,,
,,65b2e96958c28d5efd354635,2024-02-21_21h26.21.230,kallum_motion_pilot,2023.2.2,Win32,59.52380952,65b2e96958c28d5efd354635,65d6bb0e977760de756971f7,65d6beca265c1952ee891fc4,0.0807,0.0807,1,75,237,36,1,threeone,,,,,,,,,,,,,,,,,,,,,,,,,,,,,,,,,,,,,,,,,,,,,,,,,,,,,,,,,,,,,,,,,,,,,,,,,,,,,,,,,,,,,,,,,,,,,,,,,,,,,,,,,,,,,,,,,,,,,,,,,,,,,,,,,,,,,,,,,
,,65b2e96958c28d5efd354635,2024-02-21_21h26.21.230,kallum_motion_pilot,2023.2.2,Win32,59.52380952,65b2e96958c28d5efd354635,65d6bb0e977760de756971f7,65d6beca265c1952ee891fc4,0.0809,0.081,1,76,238,160,1,fivesix,,,,,,,,,,,,,,,,,,,,,,,,,,,,,,,,,,,,,,,,,,,,,,,,,,,,,,,,,,,,,,,,,,,,,,,,,,,,,,,,,,,,,,,,,,,,,,,,,,,,,,,,,,,,,,,,,,,,,,,,,,,,,,,,,,,,,,,,,
,,65b2e96958c28d5efd354635,2024-02-21_21h26.21.230,kallum_motion_pilot,2023.2.2,Win32,59.52380952,65b2e96958c28d5efd354635,65d6bb0e977760de756971f7,65d6beca265c1952ee891fc4,0.0811,0.0812,1,77,239,124,1,sevenfive,,,,,,,,,,,,,,,,,,,,,,,,,,,,,,,,,,,,,,,,,,,,,,,,,,,,,,,,,,,,,,,,,,,,,,,,,,,,,,,,,,,,,,,,,,,,,,,,,,,,,,,,,,,,,,,,,,,,,,,,,,,,,,,,,,,,,,,,,
,,65b2e96958c28d5efd354635,2024-02-21_21h26.21.230,kallum_motion_pilot,2023.2.2,Win32,59.52380952,65b2e96958c28d5efd354635,65d6bb0e977760de756971f7,65d6beca265c1952ee891fc4,0.0813,0.0814,1,78,240,92,1,sevenfive,,,,,,,,,,,,,,,,,,,,,,,,,,,,,,,,,,,,,,,,,,,,,,,,,,,,,,,,,,,,,,,,,,,,,,,,,,,,,,,,,,,,,,,,,,,,,,,,,,,,,,,,,,,,,,,,,,,,,,,,,,,,,,,,,,,,,,,,,
,,65b2e96958c28d5efd354635,2024-02-21_21h26.21.230,kallum_motion_pilot,2023.2.2,Win32,59.52380952,65b2e96958c28d5efd354635,65d6bb0e977760de756971f7,65d6beca265c1952ee891fc4,0.0815,0.0816,1,79,241,16,1,onetwo,,,,,,,,,,,,,,,,,,,,,,,,,,,,,,,,,,,,,,,,,,,,,,,,,,,,,,,,,,,,,,,,,,,,,,,,,,,,,,,,,,,,,,,,,,,,,,,,,,,,,,,,,,,,,,,,,,,,,,,,,,,,,,,,,,,,,,,,,
,,65b2e96958c28d5efd354635,2024-02-21_21h26.21.230,kallum_motion_pilot,2023.2.2,Win32,59.52380952,65b2e96958c28d5efd354635,65d6bb0e977760de756971f7,65d6beca265c1952ee891fc4,0.0817,0.0818,1,80,242,152,1,fivesix,,,,,,,,,,,,,,,,,,,,,,,,,,,,,,,,,,,,,,,,,,,,,,,,,,,,,,,,,,,,,,,,,,,,,,,,,,,,,,,,,,,,,,,,,,,,,,,,,,,,,,,,,,,,,,,,,,,,,,,,,,,,,,,,,,,,,,,,,
,,65b2e96958c28d5efd354635,2024-02-21_21h26.21.230,kallum_motion_pilot,2023.2.2,Win32,59.52380952,65b2e96958c28d5efd354635,65d6bb0e977760de756971f7,65d6beca265c1952ee891fc4,0.0819,0.082,1,81,243,86,1,eightsix,,,,,,,,,,,,,,,,,,,,,,,,,,,,,,,,,,,,,,,,,,,,,,,,,,,,,,,,,,,,,,,,,,,,,,,,,,,,,,,,,,,,,,,,,,,,,,,,,,,,,,,,,,,,,,,,,,,,,,,,,,,,,,,,,,,,,,,,,
,,65b2e96958c28d5efd354635,2024-02-21_21h26.21.230,kallum_motion_pilot,2023.2.2,Win32,59.52380952,65b2e96958c28d5efd354635,65d6bb0e977760de756971f7,65d6beca265c1952ee891fc4,0.082,0.0822,1,82,244,35,1,twofour,,,,,,,,,,,,,,,,,,,,,,,,,,,,,,,,,,,,,,,,,,,,,,,,,,,,,,,,,,,,,,,,,,,,,,,,,,,,,,,,,,,,,,,,,,,,,,,,,,,,,,,,,,,,,,,,,,,,,,,,,,,,,,,,,,,,,,,,,
,,65b2e96958c28d5efd354635,2024-02-21_21h26.21.230,kallum_motion_pilot,2023.2.2,Win32,59.52380952,65b2e96958c28d5efd354635,65d6bb0e977760de756971f7,65d6beca265c1952ee891fc4,0.0823,0.0824,1,83,245,42,1,twoone,,,,,,,,,,,,,,,,,,,,,,,,,,,,,,,,,,,,,,,,,,,,,,,,,,,,,,,,,,,,,,,,,,,,,,,,,,,,,,,,,,,,,,,,,,,,,,,,,,,,,,,,,,,,,,,,,,,,,,,,,,,,,,,,,,,,,,,,,
,,65b2e96958c28d5efd354635,2024-02-21_21h26.21.230,kallum_motion_pilot,2023.2.2,Win32,59.52380952,65b2e96958c28d5efd354635,65d6bb0e977760de756971f7,65d6beca265c1952ee891fc4,0.0825,0.0826,1,84,246,75,1,twofour,,,,,,,,,,,,,,,,,,,,,,,,,,,,,,,,,,,,,,,,,,,,,,,,,,,,,,,,,,,,,,,,,,,,,,,,,,,,,,,,,,,,,,,,,,,,,,,,,,,,,,,,,,,,,,,,,,,,,,,,,,,,,,,,,,,,,,,,,
,,65b2e96958c28d5efd354635,2024-02-21_21h26.21.230,kallum_motion_pilot,2023.2.2,Win32,59.52380952,65b2e96958c28d5efd354635,65d6bb0e977760de756971f7,65d6beca265c1952ee891fc4,0.0827,0.0828,1,85,247,9,1,onethree,,,,,,,,,,,,,,,,,,,,,,,,,,,,,,,,,,,,,,,,,,,,,,,,,,,,,,,,,,,,,,,,,,,,,,,,,,,,,,,,,,,,,,,,,,,,,,,,,,,,,,,,,,,,,,,,,,,,,,,,,,,,,,,,,,,,,,,,,
,,65b2e96958c28d5efd354635,2024-02-21_21h26.21.230,kallum_motion_pilot,2023.2.2,Win32,59.52380952,65b2e96958c28d5efd354635,65d6bb0e977760de756971f7,65d6beca265c1952ee891fc4,0.0829,0.083,1,86,248,84,1,sevenfive,,,,,,,,,,,,,,,,,,,,,,,,,,,,,,,,,,,,,,,,,,,,,,,,,,,,,,,,,,,,,,,,,,,,,,,,,,,,,,,,,,,,,,,,,,,,,,,,,,,,,,,,,,,,,,,,,,,,,,,,,,,,,,,,,,,,,,,,,
,,65b2e96958c28d5efd354635,2024-02-21_21h26.21.230,kallum_motion_pilot,2023.2.2,Win32,59.52380952,65b2e96958c28d5efd354635,65d6bb0e977760de756971f7,65d6beca265c1952ee891fc4,0.0831,0.0832,1,87,249,137,1,fiveseven,,,,,,,,,,,,,,,,,,,,,,,,,,,,,,,,,,,,,,,,,,,,,,,,,,,,,,,,,,,,,,,,,,,,,,,,,,,,,,,,,,,,,,,,,,,,,,,,,,,,,,,,,,,,,,,,,,,,,,,,,,,,,,,,,,,,,,,,,
,,65b2e96958c28d5efd354635,2024-02-21_21h26.21.230,kallum_motion_pilot,2023.2.2,Win32,59.52380952,65b2e96958c28d5efd354635,65d6bb0e977760de756971f7,65d6beca265c1952ee891fc4,0.0833,0.0834,1,88,250,147,1,sixeight,,,,,,,,,,,,,,,,,,,,,,,,,,,,,,,,,,,,,,,,,,,,,,,,,,,,,,,,,,,,,,,,,,,,,,,,,,,,,,,,,,,,,,,,,,,,,,,,,,,,,,,,,,,,,,,,,,,,,,,,,,,,,,,,,,,,,,,,,
,,65b2e96958c28d5efd354635,2024-02-21_21h26.21.230,kallum_motion_pilot,2023.2.2,Win32,59.52380952,65b2e96958c28d5efd354635,65d6bb0e977760de756971f7,65d6beca265c1952ee891fc4,0.0835,0.0836,1,89,251,132,1,sevenfive,,,,,,,,,,,,,,,,,,,,,,,,,,,,,,,,,,,,,,,,,,,,,,,,,,,,,,,,,,,,,,,,,,,,,,,,,,,,,,,,,,,,,,,,,,,,,,,,,,,,,,,,,,,,,,,,,,,,,,,,,,,,,,,,,,,,,,,,,
,,65b2e96958c28d5efd354635,2024-02-21_21h26.21.230,kallum_motion_pilot,2023.2.2,Win32,59.52380952,65b2e96958c28d5efd354635,65d6bb0e977760de756971f7,65d6beca265c1952ee891fc4,0.0837,0.0838,1,90,252,30,1,fourtwo,,,,,,,,,,,,,,,,,,,,,,,,,,,,,,,,,,,,,,,,,,,,,,,,,,,,,,,,,,,,,,,,,,,,,,,,,,,,,,,,,,,,,,,,,,,,,,,,,,,,,,,,,,,,,,,,,,,,,,,,,,,,,,,,,,,,,,,,,
,,65b2e96958c28d5efd354635,2024-02-21_21h26.21.230,kallum_motion_pilot,2023.2.2,Win32,59.52380952,65b2e96958c28d5efd354635,65d6bb0e977760de756971f7,65d6beca265c1952ee891fc4,0.0839,0.0841,1,91,253,85,1,seveneight,,,,,,,,,,,,,,,,,,,,,,,,,,,,,,,,,,,,,,,,,,,,,,,,,,,,,,,,,,,,,,,,,,,,,,,,,,,,,,,,,,,,,,,,,,,,,,,,,,,,,,,,,,,,,,,,,,,,,,,,,,,,,,,,,,,,,,,,,
,,65b2e96958c28d5efd354635,2024-02-21_21h26.21.230,kallum_motion_pilot,2023.2.2,Win32,59.52380952,65b2e96958c28d5efd354635,65d6bb0e977760de756971f7,65d6beca265c1952ee891fc4,0.0841,0.0843,1,92,254,99,1,sixeight,,,,,,,,,,,,,,,,,,,,,,,,,,,,,,,,,,,,,,,,,,,,,,,,,,,,,,,,,,,,,,,,,,,,,,,,,,,,,,,,,,,,,,,,,,,,,,,,,,,,,,,,,,,,,,,,,,,,,,,,,,,,,,,,,,,,,,,,,
,,65b2e96958c28d5efd354635,2024-02-21_21h26.21.230,kallum_motion_pilot,2023.2.2,Win32,59.52380952,65b2e96958c28d5efd354635,65d6bb0e977760de756971f7,65d6beca265c1952ee891fc4,0.0843,0.0844,1,93,255,139,1,sixeight,,,,,,,,,,,,,,,,,,,,,,,,,,,,,,,,,,,,,,,,,,,,,,,,,,,,,,,,,,,,,,,,,,,,,,,,,,,,,,,,,,,,,,,,,,,,,,,,,,,,,,,,,,,,,,,,,,,,,,,,,,,,,,,,,,,,,,,,,
,,65b2e96958c28d5efd354635,2024-02-21_21h26.21.230,kallum_motion_pilot,2023.2.2,Win32,59.52380952,65b2e96958c28d5efd354635,65d6bb0e977760de756971f7,65d6beca265c1952ee891fc4,0.0846,0.0847,1,94,256,22,1,fourtwo,,,,,,,,,,,,,,,,,,,,,,,,,,,,,,,,,,,,,,,,,,,,,,,,,,,,,,,,,,,,,,,,,,,,,,,,,,,,,,,,,,,,,,,,,,,,,,,,,,,,,,,,,,,,,,,,,,,,,,,,,,,,,,,,,,,,,,,,,
,,65b2e96958c28d5efd354635,2024-02-21_21h26.21.230,kallum_motion_pilot,2023.2.2,Win32,59.52380952,65b2e96958c28d5efd354635,65d6bb0e977760de756971f7,65d6beca265c1952ee891fc4,0.0848,0.085,1,95,257,80,1,fivesix,,,,,,,,,,,,,,,,,,,,,,,,,,,,,,,,,,,,,,,,,,,,,,,,,,,,,,,,,,,,,,,,,,,,,,,,,,,,,,,,,,,,,,,,,,,,,,,,,,,,,,,,,,,,,,,,,,,,,,,,,,,,,,,,,,,,,,,,,
,,65b2e96958c28d5efd354635,2024-02-21_21h26.21.230,kallum_motion_pilot,2023.2.2,Win32,59.52380952,65b2e96958c28d5efd354635,65d6bb0e977760de756971f7,65d6beca265c1952ee891fc4,0.0851,0.0852,1,96,258,153,1,fiveseven,,,,,,,,,,,,,,,,,,,,,,,,,,,,,,,,,,,,,,,,,,,,,,,,,,,,,,,,,,,,,,,,,,,,,,,,,,,,,,,,,,,,,,,,,,,,,,,,,,,,,,,,,,,,,,,,,,,,,,,,,,,,,,,,,,,,,,,,,
,,65b2e96958c28d5efd354635,2024-02-21_21h26.21.230,kallum_motion_pilot,2023.2.2,Win32,59.52380952,65b2e96958c28d5efd354635,65d6bb0e977760de756971f7,65d6beca265c1952ee891fc4,0.0852,0.0854,1,97,259,78,1,fourtwo,,,,,,,,,,,,,,,,,,,,,,,,,,,,,,,,,,,,,,,,,,,,,,,,,,,,,,,,,,,,,,,,,,,,,,,,,,,,,,,,,,,,,,,,,,,,,,,,,,,,,,,,,,,,,,,,,,,,,,,,,,,,,,,,,,,,,,,,,
,,65b2e96958c28d5efd354635,2024-02-21_21h26.21.230,kallum_motion_pilot,2023.2.2,Win32,59.52380952,65b2e96958c28d5efd354635,65d6bb0e977760de756971f7,65d6beca265c1952ee891fc4,0.0855,0.0856,1,98,260,88,1,fivesix,,,,,,,,,,,,,,,,,,,,,,,,,,,,,,,,,,,,,,,,,,,,,,,,,,,,,,,,,,,,,,,,,,,,,,,,,,,,,,,,,,,,,,,,,,,,,,,,,,,,,,,,,,,,,,,,,,,,,,,,,,,,,,,,,,,,,,,,,
,,65b2e96958c28d5efd354635,2024-02-21_21h26.21.230,kallum_motion_pilot,2023.2.2,Win32,59.52380952,65b2e96958c28d5efd354635,65d6bb0e977760de756971f7,65d6beca265c1952ee891fc4,0.0857,0.0858,1,99,261,47,1,fourthree,,,,,,,,,,,,,,,,,,,,,,,,,,,,,,,,,,,,,,,,,,,,,,,,,,,,,,,,,,,,,,,,,,,,,,,,,,,,,,,,,,,,,,,,,,,,,,,,,,,,,,,,,,,,,,,,,,,,,,,,,,,,,,,,,,,,,,,,,
,,65b2e96958c28d5efd354635,2024-02-21_21h26.21.230,kallum_motion_pilot,2023.2.2,Win32,59.52380952,65b2e96958c28d5efd354635,65d6bb0e977760de756971f7,65d6beca265c1952ee891fc4,0.0859,0.086,1,100,262,68,1,threeone,,,,,,,,,,,,,,,,,,,,,,,,,,,,,,,,,,,,,,,,,,,,,,,,,,,,,,,,,,,,,,,,,,,,,,,,,,,,,,,,,,,,,,,,,,,,,,,,,,,,,,,,,,,,,,,,,,,,,,,,,,,,,,,,,,,,,,,,,
,,65b2e96958c28d5efd354635,2024-02-21_21h26.21.230,kallum_motion_pilot,2023.2.2,Win32,59.52380952,65b2e96958c28d5efd354635,65d6bb0e977760de756971f7,65d6beca265c1952ee891fc4,0.0861,0.0863,1,101,263,135,1,eightseven,,,,,,,,,,,,,,,,,,,,,,,,,,,,,,,,,,,,,,,,,,,,,,,,,,,,,,,,,,,,,,,,,,,,,,,,,,,,,,,,,,,,,,,,,,,,,,,,,,,,,,,,,,,,,,,,,,,,,,,,,,,,,,,,,,,,,,,,,
,,65b2e96958c28d5efd354635,2024-02-21_21h26.21.230,kallum_motion_pilot,2023.2.2,Win32,59.52380952,65b2e96958c28d5efd354635,65d6bb0e977760de756971f7,65d6beca265c1952ee891fc4,0.0864,0.0865,1,102,264,87,1,eightseven,,,,,,,,,,,,,,,,,,,,,,,,,,,,,,,,,,,,,,,,,,,,,,,,,,,,,,,,,,,,,,,,,,,,,,,,,,,,,,,,,,,,,,,,,,,,,,,,,,,,,,,,,,,,,,,,,,,,,,,,,,,,,,,,,,,,,,,,,
,,65b2e96958c28d5efd354635,2024-02-21_21h26.21.230,kallum_motion_pilot,2023.2.2,Win32,59.52380952,65b2e96958c28d5efd354635,65d6bb0e977760de756971f7,65d6beca265c1952ee891fc4,0.0866,0.0867,1,103,265,56,1,onetwo,,,,,,,,,,,,,,,,,,,,,,,,,,,,,,,,,,,,,,,,,,,,,,,,,,,,,,,,,,,,,,,,,,,,,,,,,,,,,,,,,,,,,,,,,,,,,,,,,,,,,,,,,,,,,,,,,,,,,,,,,,,,,,,,,,,,,,,,,
,,65b2e96958c28d5efd354635,2024-02-21_21h26.21.230,kallum_motion_pilot,2023.2.2,Win32,59.52380952,65b2e96958c28d5efd354635,65d6bb0e977760de756971f7,65d6beca265c1952ee891fc4,0.0868,0.0869,1,104,266,95,1,eightseven,,,,,,,,,,,,,,,,,,,,,,,,,,,,,,,,,,,,,,,,,,,,,,,,,,,,,,,,,,,,,,,,,,,,,,,,,,,,,,,,,,,,,,,,,,,,,,,,,,,,,,,,,,,,,,,,,,,,,,,,,,,,,,,,,,,,,,,,,
,,65b2e96958c28d5efd354635,2024-02-21_21h26.21.230,kallum_motion_pilot,2023.2.2,Win32,59.52380952,65b2e96958c28d5efd354635,65d6bb0e977760de756971f7,65d6beca265c1952ee891fc4,0.0871,0.0872,1,105,267,97,1,fiveseven,,,,,,,,,,,,,,,,,,,,,,,,,,,,,,,,,,,,,,,,,,,,,,,,,,,,,,,,,,,,,,,,,,,,,,,,,,,,,,,,,,,,,,,,,,,,,,,,,,,,,,,,,,,,,,,,,,,,,,,,,,,,,,,,,,,,,,,,,
,,65b2e96958c28d5efd354635,2024-02-21_21h26.21.230,kallum_motion_pilot,2023.2.2,Win32,59.52380952,65b2e96958c28d5efd354635,65d6bb0e977760de756971f7,65d6beca265c1952ee891fc4,0.0872,0.0874,1,106,268,60,1,threeone,,,,,,,,,,,,,,,,,,,,,,,,,,,,,,,,,,,,,,,,,,,,,,,,,,,,,,,,,,,,,,,,,,,,,,,,,,,,,,,,,,,,,,,,,,,,,,,,,,,,,,,,,,,,,,,,,,,,,,,,,,,,,,,,,,,,,,,,,
,,65b2e96958c28d5efd354635,2024-02-21_21h26.21.230,kallum_motion_pilot,2023.2.2,Win32,59.52380952,65b2e96958c28d5efd354635,65d6bb0e977760de756971f7,65d6beca265c1952ee891fc4,0.0875,0.0876,1,107,269,79,1,eightseven,,,,,,,,,,,,,,,,,,,,,,,,,,,,,,,,,,,,,,,,,,,,,,,,,,,,,,,,,,,,,,,,,,,,,,,,,,,,,,,,,,,,,,,,,,,,,,,,,,,,,,,,,,,,,,,,,,,,,,,,,,,,,,,,,,,,,,,,,
,,65b2e96958c28d5efd354635,2024-02-21_21h26.21.230,kallum_motion_pilot,2023.2.2,Win32,59.52380952,65b2e96958c28d5efd354635,65d6bb0e977760de756971f7,65d6beca265c1952ee891fc4,0.0879,0.088,1,108,270,114,1,sixfive,,,,,,,,,,,,,,,,,,,,,,,,,,,,,,,,,,,,,,,,,,,,,,,,,,,,,,,,,,,,,,,,,,,,,,,,,,,,,,,,,,,,,,,,,,,,,,,,,,,,,,,,,,,,,,,,,,,,,,,,,,,,,,,,,,,,,,,,,
,,65b2e96958c28d5efd354635,2024-02-21_21h26.21.230,kallum_motion_pilot,2023.2.2,Win32,59.52380952,65b2e96958c28d5efd354635,65d6bb0e977760de756971f7,65d6beca265c1952ee891fc4,0.0882,0.0884,1,109,271,66,1,twoone,,,,,,,,,,,,,,,,,,,,,,,,,,,,,,,,,,,,,,,,,,,,,,,,,,,,,,,,,,,,,,,,,,,,,,,,,,,,,,,,,,,,,,,,,,,,,,,,,,,,,,,,,,,,,,,,,,,,,,,,,,,,,,,,,,,,,,,,,
,,65b2e96958c28d5efd354635,2024-02-21_21h26.21.230,kallum_motion_pilot,2023.2.2,Win32,59.52380952,65b2e96958c28d5efd354635,65d6bb0e977760de756971f7,65d6beca265c1952ee891fc4,0.0884,0.0887,1,110,272,27,1,twofour,,,,,,,,,,,,,,,,,,,,,,,,,,,,,,,,,,,,,,,,,,,,,,,,,,,,,,,,,,,,,,,,,,,,,,,,,,,,,,,,,,,,,,,,,,,,,,,,,,,,,,,,,,,,,,,,,,,,,,,,,,,,,,,,,,,,,,,,,
,,65b2e96958c28d5efd354635,2024-02-21_21h26.21.230,kallum_motion_pilot,2023.2.2,Win32,59.52380952,65b2e96958c28d5efd354635,65d6bb0e977760de756971f7,65d6beca265c1952ee891fc4,0.0888,0.0889,1,111,273,146,1,sixfive,,,,,,,,,,,,,,,,,,,,,,,,,,,,,,,,,,,,,,,,,,,,,,,,,,,,,,,,,,,,,,,,,,,,,,,,,,,,,,,,,,,,,,,,,,,,,,,,,,,,,,,,,,,,,,,,,,,,,,,,,,,,,,,,,,,,,,,,,
,,65b2e96958c28d5efd354635,2024-02-21_21h26.21.230,kallum_motion_pilot,2023.2.2,Win32,59.52380952,65b2e96958c28d5efd354635,65d6bb0e977760de756971f7,65d6beca265c1952ee891fc4,0.0891,0.0893,1,112,274,57,1,onethree,,,,,,,,,,,,,,,,,,,,,,,,,,,,,,,,,,,,,,,,,,,,,,,,,,,,,,,,,,,,,,,,,,,,,,,,,,,,,,,,,,,,,,,,,,,,,,,,,,,,,,,,,,,,,,,,,,,,,,,,,,,,,,,,,,,,,,,,,
,,65b2e96958c28d5efd354635,2024-02-21_21h26.21.230,kallum_motion_pilot,2023.2.2,Win32,59.52380952,65b2e96958c28d5efd354635,65d6bb0e977760de756971f7,65d6beca265c1952ee891fc4,0.0894,0.0895,1,113,275,100,1,sevenfive,,,,,,,,,,,,,,,,,,,,,,,,,,,,,,,,,,,,,,,,,,,,,,,,,,,,,,,,,,,,,,,,,,,,,,,,,,,,,,,,,,,,,,,,,,,,,,,,,,,,,,,,,,,,,,,,,,,,,,,,,,,,,,,,,,,,,,,,,
,,65b2e96958c28d5efd354635,2024-02-21_21h26.21.230,kallum_motion_pilot,2023.2.2,Win32,59.52380952,65b2e96958c28d5efd354635,65d6bb0e977760de756971f7,65d6beca265c1952ee891fc4,0.0896,0.0898,1,114,276,26,1,twoone,,,,,,,,,,,,,,,,,,,,,,,,,,,,,,,,,,,,,,,,,,,,,,,,,,,,,,,,,,,,,,,,,,,,,,,,,,,,,,,,,,,,,,,,,,,,,,,,,,,,,,,,,,,,,,,,,,,,,,,,,,,,,,,,,,,,,,,,,
,,65b2e96958c28d5efd354635,2024-02-21_21h26.21.230,kallum_motion_pilot,2023.2.2,Win32,59.52380952,65b2e96958c28d5efd354635,65d6bb0e977760de756971f7,65d6beca265c1952ee891fc4,0.09,0.0901,1,115,277,113,1,fiveseven,,,,,,,,,,,,,,,,,,,,,,,,,,,,,,,,,,,,,,,,,,,,,,,,,,,,,,,,,,,,,,,,,,,,,,,,,,,,,,,,,,,,,,,,,,,,,,,,,,,,,,,,,,,,,,,,,,,,,,,,,,,,,,,,,,,,,,,,,
