startup.started,startup.stopped,Prolific ID*,date,expName,psychopyVersion,OS,frameRate,participant,study_id,session,stimpositions.started,stimpositions.stopped,hardcoded_stimulus_positions.thisRepN,hardcoded_stimulus_positions.thisTrialN,hardcoded_stimulus_positions.thisN,hardcoded_stimulus_positions.thisIndex,hardcoded_stimulus_positions.ran,StimulusPos,stimorientation.started,stimorientation.stopped,prac_stimorientation_import_loop.thisRepN,prac_stimorientation_import_loop.thisTrialN,prac_stimorientation_import_loop.thisN,prac_stimorientation_import_loop.thisIndex,prac_stimorientation_import_loop.ran,Stimorientation,welcome_instr.started,welcome_instr.stopped,key_resp.keys,key_resp.rt,key_resp.duration,response_steppedout_1.started,response_steppedout_1.stopped,key_resp_20.keys,key_resp_20.rt,key_resp_20.duration,response_steppedout_2.started,response_steppedout_2.stopped,key_resp_19.keys,key_resp_19.rt,key_resp_19.duration,stim_response_instr.started,stim_response_instr.stopped,key_resp_15.keys,key_resp_15.rt,key_resp_15.duration,direction_instr_2.started,direction_instr_2.stopped,key_resp_9.keys,key_resp_9.rt,key_resp_9.duration,instr_prac.started,instr_prac.stopped,key_resp_10.keys,key_resp_10.rt,key_resp_10.duration,Stim1_display_prac.started,Stim1_display_prac.stopped,Ecc,Circle1_ori,Circle2_ori,response_prac.started,similarity,response_time,response_prac.stopped,mouse_5.x,mouse_5.y,mouse_5.leftButton,mouse_5.midButton,mouse_5.rightButton,mouse_5.clicked_name,responseprac_feedback.started,responseprac_feedback.stopped,summary2_prac.started,summary2_prac.stopped,mouse_6.x,mouse_6.y,mouse_6.leftButton,mouse_6.midButton,mouse_6.rightButton,mouse_6.clicked_name,duringprac.thisRepN,duringprac.thisTrialN,duringprac.thisN,duringprac.thisIndex,duringprac.ran,begin.started,begin.stopped,key_resp_22.keys,key_resp_22.rt,key_resp_22.duration,Stim1_display.started,Stim1_display.stopped,circle1_ori,circle2_ori,circle1_SF,circle2_SF,response.started,response.stopped,mouse.x,mouse.y,mouse.leftButton,mouse.midButton,mouse.rightButton,mouse.clicked_name,trialnumber,double_pass.thisRepN,double_pass.thisTrialN,double_pass.thisN,double_pass.thisIndex,double_pass.ran,double_pass.order,main_trial.thisRepN,main_trial.thisTrialN,main_trial.thisN,main_trial.thisIndex,main_trial.ran,main_trial.order,Trial_Counter,Catch,Frequencies,response_2.started,response_2.stopped,mouse_2.x,mouse_2.y,mouse_2.leftButton,mouse_2.midButton,mouse_2.rightButton,mouse_2.clicked_name,special_trial.started,special_trial.stopped,catch_1.started,catch_1.stopped,mouse_3.x,mouse_3.y,mouse_3.leftButton,mouse_3.midButton,mouse_3.rightButton,catchresponse,catchnumber,response_time_catch,response_sum.started,response_sum.stopped,mouse_11.x,mouse_11.y,mouse_11.leftButton,mouse_11.midButton,mouse_11.rightButton,flip_presentation_sequence_for_double_pass.started,flip_presentation_sequence_for_double_pass.stopped,goodbye.started,goodbye.stopped,key_resp_3.keys,key_resp_3.rt,key_resp_3.duration
0,0.001,65b571deec1559505fc20ac3,2024-02-22_24h23.13.045,kallum_motion_pilot,2023.2.2,Win32,62.5,65b571deec1559505fc20ac3,65d6bb0e977760de756971f7,65d6bddc959263ac036fb569,,,,,,,,,,,,,,,,,,,,,,,,,,,,,,,,,,,,,,,,,,,,,,,,,,,,,,,,,,,,,,,,,,,,,,,,,,,,,,,,,,,,,,,,,,,,,,,,,,,,,,,,,,,,,,,,,,,,,,,,,,,,,,,,,,,,,,,,,,,,,,,,,
,,65b571deec1559505fc20ac3,2024-02-22_24h23.13.045,kallum_motion_pilot,2023.2.2,Win32,62.5,65b571deec1559505fc20ac3,65d6bb0e977760de756971f7,65d6bddc959263ac036fb569,0.026,0.026,0,0,0,19,1,twofour,,,,,,,,,,,,,,,,,,,,,,,,,,,,,,,,,,,,,,,,,,,,,,,,,,,,,,,,,,,,,,,,,,,,,,,,,,,,,,,,,,,,,,,,,,,,,,,,,,,,,,,,,,,,,,,,,,,,,,,,,,,,,,,,,,,,,,,,,
,,65b571deec1559505fc20ac3,2024-02-22_24h23.13.045,kallum_motion_pilot,2023.2.2,Win32,62.5,65b571deec1559505fc20ac3,65d6bb0e977760de756971f7,65d6bddc959263ac036fb569,0.026,0.026,0,1,1,25,1,onethree,,,,,,,,,,,,,,,,,,,,,,,,,,,,,,,,,,,,,,,,,,,,,,,,,,,,,,,,,,,,,,,,,,,,,,,,,,,,,,,,,,,,,,,,,,,,,,,,,,,,,,,,,,,,,,,,,,,,,,,,,,,,,,,,,,,,,,,,,
,,65b571deec1559505fc20ac3,2024-02-22_24h23.13.045,kallum_motion_pilot,2023.2.2,Win32,62.5,65b571deec1559505fc20ac3,65d6bb0e977760de756971f7,65d6bddc959263ac036fb569,0.027,0.027,0,2,2,1,1,onethree,,,,,,,,,,,,,,,,,,,,,,,,,,,,,,,,,,,,,,,,,,,,,,,,,,,,,,,,,,,,,,,,,,,,,,,,,,,,,,,,,,,,,,,,,,,,,,,,,,,,,,,,,,,,,,,,,,,,,,,,,,,,,,,,,,,,,,,,,
,,65b571deec1559505fc20ac3,2024-02-22_24h23.13.045,kallum_motion_pilot,2023.2.2,Win32,62.5,65b571deec1559505fc20ac3,65d6bb0e977760de756971f7,65d6bddc959263ac036fb569,0.027,0.027,0,3,3,124,1,sevenfive,,,,,,,,,,,,,,,,,,,,,,,,,,,,,,,,,,,,,,,,,,,,,,,,,,,,,,,,,,,,,,,,,,,,,,,,,,,,,,,,,,,,,,,,,,,,,,,,,,,,,,,,,,,,,,,,,,,,,,,,,,,,,,,,,,,,,,,,,
,,65b571deec1559505fc20ac3,2024-02-22_24h23.13.045,kallum_motion_pilot,2023.2.2,Win32,62.5,65b571deec1559505fc20ac3,65d6bb0e977760de756971f7,65d6bddc959263ac036fb569,0.027,0.027,0,4,4,6,1,fourtwo,,,,,,,,,,,,,,,,,,,,,,,,,,,,,,,,,,,,,,,,,,,,,,,,,,,,,,,,,,,,,,,,,,,,,,,,,,,,,,,,,,,,,,,,,,,,,,,,,,,,,,,,,,,,,,,,,,,,,,,,,,,,,,,,,,,,,,,,,
,,65b571deec1559505fc20ac3,2024-02-22_24h23.13.045,kallum_motion_pilot,2023.2.2,Win32,62.5,65b571deec1559505fc20ac3,65d6bb0e977760de756971f7,65d6bddc959263ac036fb569,0.027,0.027,0,5,5,129,1,fiveseven,,,,,,,,,,,,,,,,,,,,,,,,,,,,,,,,,,,,,,,,,,,,,,,,,,,,,,,,,,,,,,,,,,,,,,,,,,,,,,,,,,,,,,,,,,,,,,,,,,,,,,,,,,,,,,,,,,,,,,,,,,,,,,,,,,,,,,,,,
,,65b571deec1559505fc20ac3,2024-02-22_24h23.13.045,kallum_motion_pilot,2023.2.2,Win32,62.5,65b571deec1559505fc20ac3,65d6bb0e977760de756971f7,65d6bddc959263ac036fb569,0.027,0.027,0,6,6,40,1,onetwo,,,,,,,,,,,,,,,,,,,,,,,,,,,,,,,,,,,,,,,,,,,,,,,,,,,,,,,,,,,,,,,,,,,,,,,,,,,,,,,,,,,,,,,,,,,,,,,,,,,,,,,,,,,,,,,,,,,,,,,,,,,,,,,,,,,,,,,,,
,,65b571deec1559505fc20ac3,2024-02-22_24h23.13.045,kallum_motion_pilot,2023.2.2,Win32,62.5,65b571deec1559505fc20ac3,65d6bb0e977760de756971f7,65d6bddc959263ac036fb569,0.027,0.027,0,7,7,142,1,eightsix,,,,,,,,,,,,,,,,,,,,,,,,,,,,,,,,,,,,,,,,,,,,,,,,,,,,,,,,,,,,,,,,,,,,,,,,,,,,,,,,,,,,,,,,,,,,,,,,,,,,,,,,,,,,,,,,,,,,,,,,,,,,,,,,,,,,,,,,,
,,65b571deec1559505fc20ac3,2024-02-22_24h23.13.045,kallum_motion_pilot,2023.2.2,Win32,62.5,65b571deec1559505fc20ac3,65d6bb0e977760de756971f7,65d6bddc959263ac036fb569,0.028,0.028,0,8,8,114,1,sixfive,,,,,,,,,,,,,,,,,,,,,,,,,,,,,,,,,,,,,,,,,,,,,,,,,,,,,,,,,,,,,,,,,,,,,,,,,,,,,,,,,,,,,,,,,,,,,,,,,,,,,,,,,,,,,,,,,,,,,,,,,,,,,,,,,,,,,,,,,
,,65b571deec1559505fc20ac3,2024-02-22_24h23.13.045,kallum_motion_pilot,2023.2.2,Win32,62.5,65b571deec1559505fc20ac3,65d6bb0e977760de756971f7,65d6bddc959263ac036fb569,0.028,0.028,0,9,9,158,1,eightsix,,,,,,,,,,,,,,,,,,,,,,,,,,,,,,,,,,,,,,,,,,,,,,,,,,,,,,,,,,,,,,,,,,,,,,,,,,,,,,,,,,,,,,,,,,,,,,,,,,,,,,,,,,,,,,,,,,,,,,,,,,,,,,,,,,,,,,,,,
,,65b571deec1559505fc20ac3,2024-02-22_24h23.13.045,kallum_motion_pilot,2023.2.2,Win32,62.5,65b571deec1559505fc20ac3,65d6bb0e977760de756971f7,65d6bddc959263ac036fb569,0.028,0.028,0,10,10,37,1,threefour,,,,,,,,,,,,,,,,,,,,,,,,,,,,,,,,,,,,,,,,,,,,,,,,,,,,,,,,,,,,,,,,,,,,,,,,,,,,,,,,,,,,,,,,,,,,,,,,,,,,,,,,,,,,,,,,,,,,,,,,,,,,,,,,,,,,,,,,,
,,65b571deec1559505fc20ac3,2024-02-22_24h23.13.045,kallum_motion_pilot,2023.2.2,Win32,62.5,65b571deec1559505fc20ac3,65d6bb0e977760de756971f7,65d6bddc959263ac036fb569,0.028,0.028,0,11,11,134,1,eightsix,,,,,,,,,,,,,,,,,,,,,,,,,,,,,,,,,,,,,,,,,,,,,,,,,,,,,,,,,,,,,,,,,,,,,,,,,,,,,,,,,,,,,,,,,,,,,,,,,,,,,,,,,,,,,,,,,,,,,,,,,,,,,,,,,,,,,,,,,
,,65b571deec1559505fc20ac3,2024-02-22_24h23.13.045,kallum_motion_pilot,2023.2.2,Win32,62.5,65b571deec1559505fc20ac3,65d6bb0e977760de756971f7,65d6bddc959263ac036fb569,0.029,0.029,0,12,12,100,1,sevenfive,,,,,,,,,,,,,,,,,,,,,,,,,,,,,,,,,,,,,,,,,,,,,,,,,,,,,,,,,,,,,,,,,,,,,,,,,,,,,,,,,,,,,,,,,,,,,,,,,,,,,,,,,,,,,,,,,,,,,,,,,,,,,,,,,,,,,,,,,
,,65b571deec1559505fc20ac3,2024-02-22_24h23.13.045,kallum_motion_pilot,2023.2.2,Win32,62.5,65b571deec1559505fc20ac3,65d6bb0e977760de756971f7,65d6bddc959263ac036fb569,0.029,0.029,0,13,13,26,1,twoone,,,,,,,,,,,,,,,,,,,,,,,,,,,,,,,,,,,,,,,,,,,,,,,,,,,,,,,,,,,,,,,,,,,,,,,,,,,,,,,,,,,,,,,,,,,,,,,,,,,,,,,,,,,,,,,,,,,,,,,,,,,,,,,,,,,,,,,,,
,,65b571deec1559505fc20ac3,2024-02-22_24h23.13.045,kallum_motion_pilot,2023.2.2,Win32,62.5,65b571deec1559505fc20ac3,65d6bb0e977760de756971f7,65d6bddc959263ac036fb569,0.029,0.029,0,14,14,21,1,threefour,,,,,,,,,,,,,,,,,,,,,,,,,,,,,,,,,,,,,,,,,,,,,,,,,,,,,,,,,,,,,,,,,,,,,,,,,,,,,,,,,,,,,,,,,,,,,,,,,,,,,,,,,,,,,,,,,,,,,,,,,,,,,,,,,,,,,,,,,
,,65b571deec1559505fc20ac3,2024-02-22_24h23.13.045,kallum_motion_pilot,2023.2.2,Win32,62.5,65b571deec1559505fc20ac3,65d6bb0e977760de756971f7,65d6bddc959263ac036fb569,0.029,0.029,0,15,15,62,1,fourtwo,,,,,,,,,,,,,,,,,,,,,,,,,,,,,,,,,,,,,,,,,,,,,,,,,,,,,,,,,,,,,,,,,,,,,,,,,,,,,,,,,,,,,,,,,,,,,,,,,,,,,,,,,,,,,,,,,,,,,,,,,,,,,,,,,,,,,,,,,
,,65b571deec1559505fc20ac3,2024-02-22_24h23.13.045,kallum_motion_pilot,2023.2.2,Win32,62.5,65b571deec1559505fc20ac3,65d6bb0e977760de756971f7,65d6bddc959263ac036fb569,0.029,0.029,0,16,16,86,1,eightsix,,,,,,,,,,,,,,,,,,,,,,,,,,,,,,,,,,,,,,,,,,,,,,,,,,,,,,,,,,,,,,,,,,,,,,,,,,,,,,,,,,,,,,,,,,,,,,,,,,,,,,,,,,,,,,,,,,,,,,,,,,,,,,,,,,,,,,,,,
,,65b571deec1559505fc20ac3,2024-02-22_24h23.13.045,kallum_motion_pilot,2023.2.2,Win32,62.5,65b571deec1559505fc20ac3,65d6bb0e977760de756971f7,65d6bddc959263ac036fb569,0.029,0.029,0,17,17,90,1,sixfive,,,,,,,,,,,,,,,,,,,,,,,,,,,,,,,,,,,,,,,,,,,,,,,,,,,,,,,,,,,,,,,,,,,,,,,,,,,,,,,,,,,,,,,,,,,,,,,,,,,,,,,,,,,,,,,,,,,,,,,,,,,,,,,,,,,,,,,,,
,,65b571deec1559505fc20ac3,2024-02-22_24h23.13.045,kallum_motion_pilot,2023.2.2,Win32,62.5,65b571deec1559505fc20ac3,65d6bb0e977760de756971f7,65d6bddc959263ac036fb569,0.029,0.029,0,18,18,55,1,fourthree,,,,,,,,,,,,,,,,,,,,,,,,,,,,,,,,,,,,,,,,,,,,,,,,,,,,,,,,,,,,,,,,,,,,,,,,,,,,,,,,,,,,,,,,,,,,,,,,,,,,,,,,,,,,,,,,,,,,,,,,,,,,,,,,,,,,,,,,,
,,65b571deec1559505fc20ac3,2024-02-22_24h23.13.045,kallum_motion_pilot,2023.2.2,Win32,62.5,65b571deec1559505fc20ac3,65d6bb0e977760de756971f7,65d6bddc959263ac036fb569,0.029,0.029,0,19,19,148,1,sevenfive,,,,,,,,,,,,,,,,,,,,,,,,,,,,,,,,,,,,,,,,,,,,,,,,,,,,,,,,,,,,,,,,,,,,,,,,,,,,,,,,,,,,,,,,,,,,,,,,,,,,,,,,,,,,,,,,,,,,,,,,,,,,,,,,,,,,,,,,,
,,65b571deec1559505fc20ac3,2024-02-22_24h23.13.045,kallum_motion_pilot,2023.2.2,Win32,62.5,65b571deec1559505fc20ac3,65d6bb0e977760de756971f7,65d6bddc959263ac036fb569,0.029,0.029,0,20,20,77,1,threefour,,,,,,,,,,,,,,,,,,,,,,,,,,,,,,,,,,,,,,,,,,,,,,,,,,,,,,,,,,,,,,,,,,,,,,,,,,,,,,,,,,,,,,,,,,,,,,,,,,,,,,,,,,,,,,,,,,,,,,,,,,,,,,,,,,,,,,,,,
,,65b571deec1559505fc20ac3,2024-02-22_24h23.13.045,kallum_motion_pilot,2023.2.2,Win32,62.5,65b571deec1559505fc20ac3,65d6bb0e977760de756971f7,65d6bddc959263ac036fb569,0.029,0.029,0,21,21,150,1,eightsix,,,,,,,,,,,,,,,,,,,,,,,,,,,,,,,,,,,,,,,,,,,,,,,,,,,,,,,,,,,,,,,,,,,,,,,,,,,,,,,,,,,,,,,,,,,,,,,,,,,,,,,,,,,,,,,,,,,,,,,,,,,,,,,,,,,,,,,,,
,,65b571deec1559505fc20ac3,2024-02-22_24h23.13.045,kallum_motion_pilot,2023.2.2,Win32,62.5,65b571deec1559505fc20ac3,65d6bb0e977760de756971f7,65d6bddc959263ac036fb569,0.029,0.029,0,22,22,87,1,eightseven,,,,,,,,,,,,,,,,,,,,,,,,,,,,,,,,,,,,,,,,,,,,,,,,,,,,,,,,,,,,,,,,,,,,,,,,,,,,,,,,,,,,,,,,,,,,,,,,,,,,,,,,,,,,,,,,,,,,,,,,,,,,,,,,,,,,,,,,,
,,65b571deec1559505fc20ac3,2024-02-22_24h23.13.045,kallum_motion_pilot,2023.2.2,Win32,62.5,65b571deec1559505fc20ac3,65d6bb0e977760de756971f7,65d6bddc959263ac036fb569,0.029,0.029,0,23,23,28,1,threeone,,,,,,,,,,,,,,,,,,,,,,,,,,,,,,,,,,,,,,,,,,,,,,,,,,,,,,,,,,,,,,,,,,,,,,,,,,,,,,,,,,,,,,,,,,,,,,,,,,,,,,,,,,,,,,,,,,,,,,,,,,,,,,,,,,,,,,,,,
,,65b571deec1559505fc20ac3,2024-02-22_24h23.13.045,kallum_motion_pilot,2023.2.2,Win32,62.5,65b571deec1559505fc20ac3,65d6bb0e977760de756971f7,65d6bddc959263ac036fb569,0.03,0.03,0,24,24,120,1,fivesix,,,,,,,,,,,,,,,,,,,,,,,,,,,,,,,,,,,,,,,,,,,,,,,,,,,,,,,,,,,,,,,,,,,,,,,,,,,,,,,,,,,,,,,,,,,,,,,,,,,,,,,,,,,,,,,,,,,,,,,,,,,,,,,,,,,,,,,,,
,,65b571deec1559505fc20ac3,2024-02-22_24h23.13.045,kallum_motion_pilot,2023.2.2,Win32,62.5,65b571deec1559505fc20ac3,65d6bb0e977760de756971f7,65d6bddc959263ac036fb569,0.03,0.03,0,25,25,160,1,fivesix,,,,,,,,,,,,,,,,,,,,,,,,,,,,,,,,,,,,,,,,,,,,,,,,,,,,,,,,,,,,,,,,,,,,,,,,,,,,,,,,,,,,,,,,,,,,,,,,,,,,,,,,,,,,,,,,,,,,,,,,,,,,,,,,,,,,,,,,,
,,65b571deec1559505fc20ac3,2024-02-22_24h23.13.045,kallum_motion_pilot,2023.2.2,Win32,62.5,65b571deec1559505fc20ac3,65d6bb0e977760de756971f7,65d6bddc959263ac036fb569,0.03,0.03,0,26,26,41,1,onethree,,,,,,,,,,,,,,,,,,,,,,,,,,,,,,,,,,,,,,,,,,,,,,,,,,,,,,,,,,,,,,,,,,,,,,,,,,,,,,,,,,,,,,,,,,,,,,,,,,,,,,,,,,,,,,,,,,,,,,,,,,,,,,,,,,,,,,,,,
,,65b571deec1559505fc20ac3,2024-02-22_24h23.13.045,kallum_motion_pilot,2023.2.2,Win32,62.5,65b571deec1559505fc20ac3,65d6bb0e977760de756971f7,65d6bddc959263ac036fb569,0.03,0.03,0,27,27,137,1,fiveseven,,,,,,,,,,,,,,,,,,,,,,,,,,,,,,,,,,,,,,,,,,,,,,,,,,,,,,,,,,,,,,,,,,,,,,,,,,,,,,,,,,,,,,,,,,,,,,,,,,,,,,,,,,,,,,,,,,,,,,,,,,,,,,,,,,,,,,,,,
,,65b571deec1559505fc20ac3,2024-02-22_24h23.13.045,kallum_motion_pilot,2023.2.2,Win32,62.5,65b571deec1559505fc20ac3,65d6bb0e977760de756971f7,65d6bddc959263ac036fb569,0.03,0.03,0,28,28,125,1,seveneight,,,,,,,,,,,,,,,,,,,,,,,,,,,,,,,,,,,,,,,,,,,,,,,,,,,,,,,,,,,,,,,,,,,,,,,,,,,,,,,,,,,,,,,,,,,,,,,,,,,,,,,,,,,,,,,,,,,,,,,,,,,,,,,,,,,,,,,,,
,,65b571deec1559505fc20ac3,2024-02-22_24h23.13.045,kallum_motion_pilot,2023.2.2,Win32,62.5,65b571deec1559505fc20ac3,65d6bb0e977760de756971f7,65d6bddc959263ac036fb569,0.03,0.03,0,29,29,24,1,onetwo,,,,,,,,,,,,,,,,,,,,,,,,,,,,,,,,,,,,,,,,,,,,,,,,,,,,,,,,,,,,,,,,,,,,,,,,,,,,,,,,,,,,,,,,,,,,,,,,,,,,,,,,,,,,,,,,,,,,,,,,,,,,,,,,,,,,,,,,,
,,65b571deec1559505fc20ac3,2024-02-22_24h23.13.045,kallum_motion_pilot,2023.2.2,Win32,62.5,65b571deec1559505fc20ac3,65d6bb0e977760de756971f7,65d6bddc959263ac036fb569,0.03,0.03,0,30,30,59,1,twofour,,,,,,,,,,,,,,,,,,,,,,,,,,,,,,,,,,,,,,,,,,,,,,,,,,,,,,,,,,,,,,,,,,,,,,,,,,,,,,,,,,,,,,,,,,,,,,,,,,,,,,,,,,,,,,,,,,,,,,,,,,,,,,,,,,,,,,,,,
,,65b571deec1559505fc20ac3,2024-02-22_24h23.13.045,kallum_motion_pilot,2023.2.2,Win32,62.5,65b571deec1559505fc20ac3,65d6bb0e977760de756971f7,65d6bddc959263ac036fb569,0.03,0.03,0,31,31,141,1,seveneight,,,,,,,,,,,,,,,,,,,,,,,,,,,,,,,,,,,,,,,,,,,,,,,,,,,,,,,,,,,,,,,,,,,,,,,,,,,,,,,,,,,,,,,,,,,,,,,,,,,,,,,,,,,,,,,,,,,,,,,,,,,,,,,,,,,,,,,,,
,,65b571deec1559505fc20ac3,2024-02-22_24h23.13.045,kallum_motion_pilot,2023.2.2,Win32,62.5,65b571deec1559505fc20ac3,65d6bb0e977760de756971f7,65d6bddc959263ac036fb569,0.03,0.03,0,32,32,118,1,eightsix,,,,,,,,,,,,,,,,,,,,,,,,,,,,,,,,,,,,,,,,,,,,,,,,,,,,,,,,,,,,,,,,,,,,,,,,,,,,,,,,,,,,,,,,,,,,,,,,,,,,,,,,,,,,,,,,,,,,,,,,,,,,,,,,,,,,,,,,,
,,65b571deec1559505fc20ac3,2024-02-22_24h23.13.045,kallum_motion_pilot,2023.2.2,Win32,62.5,65b571deec1559505fc20ac3,65d6bb0e977760de756971f7,65d6bddc959263ac036fb569,0.03,0.03,0,33,33,32,1,onetwo,,,,,,,,,,,,,,,,,,,,,,,,,,,,,,,,,,,,,,,,,,,,,,,,,,,,,,,,,,,,,,,,,,,,,,,,,,,,,,,,,,,,,,,,,,,,,,,,,,,,,,,,,,,,,,,,,,,,,,,,,,,,,,,,,,,,,,,,,
,,65b571deec1559505fc20ac3,2024-02-22_24h23.13.045,kallum_motion_pilot,2023.2.2,Win32,62.5,65b571deec1559505fc20ac3,65d6bb0e977760de756971f7,65d6bddc959263ac036fb569,0.03,0.03,0,34,34,54,1,fourtwo,,,,,,,,,,,,,,,,,,,,,,,,,,,,,,,,,,,,,,,,,,,,,,,,,,,,,,,,,,,,,,,,,,,,,,,,,,,,,,,,,,,,,,,,,,,,,,,,,,,,,,,,,,,,,,,,,,,,,,,,,,,,,,,,,,,,,,,,,
,,65b571deec1559505fc20ac3,2024-02-22_24h23.13.045,kallum_motion_pilot,2023.2.2,Win32,62.5,65b571deec1559505fc20ac3,65d6bb0e977760de756971f7,65d6bddc959263ac036fb569,0.03,0.031,0,35,35,157,1,seveneight,,,,,,,,,,,,,,,,,,,,,,,,,,,,,,,,,,,,,,,,,,,,,,,,,,,,,,,,,,,,,,,,,,,,,,,,,,,,,,,,,,,,,,,,,,,,,,,,,,,,,,,,,,,,,,,,,,,,,,,,,,,,,,,,,,,,,,,,,
,,65b571deec1559505fc20ac3,2024-02-22_24h23.13.045,kallum_motion_pilot,2023.2.2,Win32,62.5,65b571deec1559505fc20ac3,65d6bb0e977760de756971f7,65d6bddc959263ac036fb569,0.031,0.031,0,36,36,159,1,eightseven,,,,,,,,,,,,,,,,,,,,,,,,,,,,,,,,,,,,,,,,,,,,,,,,,,,,,,,,,,,,,,,,,,,,,,,,,,,,,,,,,,,,,,,,,,,,,,,,,,,,,,,,,,,,,,,,,,,,,,,,,,,,,,,,,,,,,,,,,
,,65b571deec1559505fc20ac3,2024-02-22_24h23.13.045,kallum_motion_pilot,2023.2.2,Win32,62.5,65b571deec1559505fc20ac3,65d6bb0e977760de756971f7,65d6bddc959263ac036fb569,0.031,0.031,0,37,37,22,1,fourtwo,,,,,,,,,,,,,,,,,,,,,,,,,,,,,,,,,,,,,,,,,,,,,,,,,,,,,,,,,,,,,,,,,,,,,,,,,,,,,,,,,,,,,,,,,,,,,,,,,,,,,,,,,,,,,,,,,,,,,,,,,,,,,,,,,,,,,,,,,
,,65b571deec1559505fc20ac3,2024-02-22_24h23.13.045,kallum_motion_pilot,2023.2.2,Win32,62.5,65b571deec1559505fc20ac3,65d6bb0e977760de756971f7,65d6bddc959263ac036fb569,0.031,0.031,0,38,38,61,1,threefour,,,,,,,,,,,,,,,,,,,,,,,,,,,,,,,,,,,,,,,,,,,,,,,,,,,,,,,,,,,,,,,,,,,,,,,,,,,,,,,,,,,,,,,,,,,,,,,,,,,,,,,,,,,,,,,,,,,,,,,,,,,,,,,,,,,,,,,,,
,,65b571deec1559505fc20ac3,2024-02-22_24h23.13.045,kallum_motion_pilot,2023.2.2,Win32,62.5,65b571deec1559505fc20ac3,65d6bb0e977760de756971f7,65d6bddc959263ac036fb569,0.031,0.031,0,39,39,13,1,threefour,,,,,,,,,,,,,,,,,,,,,,,,,,,,,,,,,,,,,,,,,,,,,,,,,,,,,,,,,,,,,,,,,,,,,,,,,,,,,,,,,,,,,,,,,,,,,,,,,,,,,,,,,,,,,,,,,,,,,,,,,,,,,,,,,,,,,,,,,
,,65b571deec1559505fc20ac3,2024-02-22_24h23.13.045,kallum_motion_pilot,2023.2.2,Win32,62.5,65b571deec1559505fc20ac3,65d6bb0e977760de756971f7,65d6bddc959263ac036fb569,0.031,0.031,0,40,40,75,1,twofour,,,,,,,,,,,,,,,,,,,,,,,,,,,,,,,,,,,,,,,,,,,,,,,,,,,,,,,,,,,,,,,,,,,,,,,,,,,,,,,,,,,,,,,,,,,,,,,,,,,,,,,,,,,,,,,,,,,,,,,,,,,,,,,,,,,,,,,,,
,,65b571deec1559505fc20ac3,2024-02-22_24h23.13.045,kallum_motion_pilot,2023.2.2,Win32,62.5,65b571deec1559505fc20ac3,65d6bb0e977760de756971f7,65d6bddc959263ac036fb569,0.032,0.032,0,41,41,93,1,seveneight,,,,,,,,,,,,,,,,,,,,,,,,,,,,,,,,,,,,,,,,,,,,,,,,,,,,,,,,,,,,,,,,,,,,,,,,,,,,,,,,,,,,,,,,,,,,,,,,,,,,,,,,,,,,,,,,,,,,,,,,,,,,,,,,,,,,,,,,,
,,65b571deec1559505fc20ac3,2024-02-22_24h23.13.045,kallum_motion_pilot,2023.2.2,Win32,62.5,65b571deec1559505fc20ac3,65d6bb0e977760de756971f7,65d6bddc959263ac036fb569,0.032,0.032,0,42,42,81,1,fiveseven,,,,,,,,,,,,,,,,,,,,,,,,,,,,,,,,,,,,,,,,,,,,,,,,,,,,,,,,,,,,,,,,,,,,,,,,,,,,,,,,,,,,,,,,,,,,,,,,,,,,,,,,,,,,,,,,,,,,,,,,,,,,,,,,,,,,,,,,,
,,65b571deec1559505fc20ac3,2024-02-22_24h23.13.045,kallum_motion_pilot,2023.2.2,Win32,62.5,65b571deec1559505fc20ac3,65d6bb0e977760de756971f7,65d6bddc959263ac036fb569,0.032,0.032,0,43,43,2,1,twoone,,,,,,,,,,,,,,,,,,,,,,,,,,,,,,,,,,,,,,,,,,,,,,,,,,,,,,,,,,,,,,,,,,,,,,,,,,,,,,,,,,,,,,,,,,,,,,,,,,,,,,,,,,,,,,,,,,,,,,,,,,,,,,,,,,,,,,,,,
,,65b571deec1559505fc20ac3,2024-02-22_24h23.13.045,kallum_motion_pilot,2023.2.2,Win32,62.5,65b571deec1559505fc20ac3,65d6bb0e977760de756971f7,65d6bddc959263ac036fb569,0.032,0.032,0,44,44,34,1,twoone,,,,,,,,,,,,,,,,,,,,,,,,,,,,,,,,,,,,,,,,,,,,,,,,,,,,,,,,,,,,,,,,,,,,,,,,,,,,,,,,,,,,,,,,,,,,,,,,,,,,,,,,,,,,,,,,,,,,,,,,,,,,,,,,,,,,,,,,,
,,65b571deec1559505fc20ac3,2024-02-22_24h23.13.045,kallum_motion_pilot,2023.2.2,Win32,62.5,65b571deec1559505fc20ac3,65d6bb0e977760de756971f7,65d6bddc959263ac036fb569,0.032,0.032,0,45,45,69,1,threefour,,,,,,,,,,,,,,,,,,,,,,,,,,,,,,,,,,,,,,,,,,,,,,,,,,,,,,,,,,,,,,,,,,,,,,,,,,,,,,,,,,,,,,,,,,,,,,,,,,,,,,,,,,,,,,,,,,,,,,,,,,,,,,,,,,,,,,,,,
,,65b571deec1559505fc20ac3,2024-02-22_24h23.13.045,kallum_motion_pilot,2023.2.2,Win32,62.5,65b571deec1559505fc20ac3,65d6bb0e977760de756971f7,65d6bddc959263ac036fb569,0.032,0.032,0,46,46,12,1,threeone,,,,,,,,,,,,,,,,,,,,,,,,,,,,,,,,,,,,,,,,,,,,,,,,,,,,,,,,,,,,,,,,,,,,,,,,,,,,,,,,,,,,,,,,,,,,,,,,,,,,,,,,,,,,,,,,,,,,,,,,,,,,,,,,,,,,,,,,,
,,65b571deec1559505fc20ac3,2024-02-22_24h23.13.045,kallum_motion_pilot,2023.2.2,Win32,62.5,65b571deec1559505fc20ac3,65d6bb0e977760de756971f7,65d6bddc959263ac036fb569,0.032,0.032,0,47,47,38,1,fourtwo,,,,,,,,,,,,,,,,,,,,,,,,,,,,,,,,,,,,,,,,,,,,,,,,,,,,,,,,,,,,,,,,,,,,,,,,,,,,,,,,,,,,,,,,,,,,,,,,,,,,,,,,,,,,,,,,,,,,,,,,,,,,,,,,,,,,,,,,,
,,65b571deec1559505fc20ac3,2024-02-22_24h23.13.045,kallum_motion_pilot,2023.2.2,Win32,62.5,65b571deec1559505fc20ac3,65d6bb0e977760de756971f7,65d6bddc959263ac036fb569,0.032,0.032,0,48,48,136,1,fivesix,,,,,,,,,,,,,,,,,,,,,,,,,,,,,,,,,,,,,,,,,,,,,,,,,,,,,,,,,,,,,,,,,,,,,,,,,,,,,,,,,,,,,,,,,,,,,,,,,,,,,,,,,,,,,,,,,,,,,,,,,,,,,,,,,,,,,,,,,
,,65b571deec1559505fc20ac3,2024-02-22_24h23.13.045,kallum_motion_pilot,2023.2.2,Win32,62.5,65b571deec1559505fc20ac3,65d6bb0e977760de756971f7,65d6bddc959263ac036fb569,0.033,0.033,0,49,49,88,1,fivesix,,,,,,,,,,,,,,,,,,,,,,,,,,,,,,,,,,,,,,,,,,,,,,,,,,,,,,,,,,,,,,,,,,,,,,,,,,,,,,,,,,,,,,,,,,,,,,,,,,,,,,,,,,,,,,,,,,,,,,,,,,,,,,,,,,,,,,,,,
,,65b571deec1559505fc20ac3,2024-02-22_24h23.13.045,kallum_motion_pilot,2023.2.2,Win32,62.5,65b571deec1559505fc20ac3,65d6bb0e977760de756971f7,65d6bddc959263ac036fb569,0.033,0.033,0,50,50,110,1,eightsix,,,,,,,,,,,,,,,,,,,,,,,,,,,,,,,,,,,,,,,,,,,,,,,,,,,,,,,,,,,,,,,,,,,,,,,,,,,,,,,,,,,,,,,,,,,,,,,,,,,,,,,,,,,,,,,,,,,,,,,,,,,,,,,,,,,,,,,,,
,,65b571deec1559505fc20ac3,2024-02-22_24h23.13.045,kallum_motion_pilot,2023.2.2,Win32,62.5,65b571deec1559505fc20ac3,65d6bb0e977760de756971f7,65d6bddc959263ac036fb569,0.033,0.033,0,51,51,64,1,onetwo,,,,,,,,,,,,,,,,,,,,,,,,,,,,,,,,,,,,,,,,,,,,,,,,,,,,,,,,,,,,,,,,,,,,,,,,,,,,,,,,,,,,,,,,,,,,,,,,,,,,,,,,,,,,,,,,,,,,,,,,,,,,,,,,,,,,,,,,,
,,65b571deec1559505fc20ac3,2024-02-22_24h23.13.045,kallum_motion_pilot,2023.2.2,Win32,62.5,65b571deec1559505fc20ac3,65d6bb0e977760de756971f7,65d6bddc959263ac036fb569,0.033,0.033,0,52,52,122,1,sixfive,,,,,,,,,,,,,,,,,,,,,,,,,,,,,,,,,,,,,,,,,,,,,,,,,,,,,,,,,,,,,,,,,,,,,,,,,,,,,,,,,,,,,,,,,,,,,,,,,,,,,,,,,,,,,,,,,,,,,,,,,,,,,,,,,,,,,,,,,
,,65b571deec1559505fc20ac3,2024-02-22_24h23.13.045,kallum_motion_pilot,2023.2.2,Win32,62.5,65b571deec1559505fc20ac3,65d6bb0e977760de756971f7,65d6bddc959263ac036fb569,0.033,0.033,0,53,53,68,1,threeone,,,,,,,,,,,,,,,,,,,,,,,,,,,,,,,,,,,,,,,,,,,,,,,,,,,,,,,,,,,,,,,,,,,,,,,,,,,,,,,,,,,,,,,,,,,,,,,,,,,,,,,,,,,,,,,,,,,,,,,,,,,,,,,,,,,,,,,,,
,,65b571deec1559505fc20ac3,2024-02-22_24h23.13.045,kallum_motion_pilot,2023.2.2,Win32,62.5,65b571deec1559505fc20ac3,65d6bb0e977760de756971f7,65d6bddc959263ac036fb569,0.033,0.033,0,54,54,99,1,sixeight,,,,,,,,,,,,,,,,,,,,,,,,,,,,,,,,,,,,,,,,,,,,,,,,,,,,,,,,,,,,,,,,,,,,,,,,,,,,,,,,,,,,,,,,,,,,,,,,,,,,,,,,,,,,,,,,,,,,,,,,,,,,,,,,,,,,,,,,,
,,65b571deec1559505fc20ac3,2024-02-22_24h23.13.045,kallum_motion_pilot,2023.2.2,Win32,62.5,65b571deec1559505fc20ac3,65d6bb0e977760de756971f7,65d6bddc959263ac036fb569,0.033,0.033,0,55,55,117,1,seveneight,,,,,,,,,,,,,,,,,,,,,,,,,,,,,,,,,,,,,,,,,,,,,,,,,,,,,,,,,,,,,,,,,,,,,,,,,,,,,,,,,,,,,,,,,,,,,,,,,,,,,,,,,,,,,,,,,,,,,,,,,,,,,,,,,,,,,,,,,
,,65b571deec1559505fc20ac3,2024-02-22_24h23.13.045,kallum_motion_pilot,2023.2.2,Win32,62.5,65b571deec1559505fc20ac3,65d6bb0e977760de756971f7,65d6bddc959263ac036fb569,0.033,0.033,0,56,56,116,1,sevenfive,,,,,,,,,,,,,,,,,,,,,,,,,,,,,,,,,,,,,,,,,,,,,,,,,,,,,,,,,,,,,,,,,,,,,,,,,,,,,,,,,,,,,,,,,,,,,,,,,,,,,,,,,,,,,,,,,,,,,,,,,,,,,,,,,,,,,,,,,
,,65b571deec1559505fc20ac3,2024-02-22_24h23.13.045,kallum_motion_pilot,2023.2.2,Win32,62.5,65b571deec1559505fc20ac3,65d6bb0e977760de756971f7,65d6bddc959263ac036fb569,0.033,0.033,0,57,57,127,1,eightseven,,,,,,,,,,,,,,,,,,,,,,,,,,,,,,,,,,,,,,,,,,,,,,,,,,,,,,,,,,,,,,,,,,,,,,,,,,,,,,,,,,,,,,,,,,,,,,,,,,,,,,,,,,,,,,,,,,,,,,,,,,,,,,,,,,,,,,,,,
,,65b571deec1559505fc20ac3,2024-02-22_24h23.13.045,kallum_motion_pilot,2023.2.2,Win32,62.5,65b571deec1559505fc20ac3,65d6bb0e977760de756971f7,65d6bddc959263ac036fb569,0.034,0.034,0,58,58,17,1,onethree,,,,,,,,,,,,,,,,,,,,,,,,,,,,,,,,,,,,,,,,,,,,,,,,,,,,,,,,,,,,,,,,,,,,,,,,,,,,,,,,,,,,,,,,,,,,,,,,,,,,,,,,,,,,,,,,,,,,,,,,,,,,,,,,,,,,,,,,,
,,65b571deec1559505fc20ac3,2024-02-22_24h23.13.045,kallum_motion_pilot,2023.2.2,Win32,62.5,65b571deec1559505fc20ac3,65d6bb0e977760de756971f7,65d6bddc959263ac036fb569,0.034,0.034,0,59,59,48,1,onetwo,,,,,,,,,,,,,,,,,,,,,,,,,,,,,,,,,,,,,,,,,,,,,,,,,,,,,,,,,,,,,,,,,,,,,,,,,,,,,,,,,,,,,,,,,,,,,,,,,,,,,,,,,,,,,,,,,,,,,,,,,,,,,,,,,,,,,,,,,
,,65b571deec1559505fc20ac3,2024-02-22_24h23.13.045,kallum_motion_pilot,2023.2.2,Win32,62.5,65b571deec1559505fc20ac3,65d6bb0e977760de756971f7,65d6bddc959263ac036fb569,0.034,0.034,0,60,60,123,1,sixeight,,,,,,,,,,,,,,,,,,,,,,,,,,,,,,,,,,,,,,,,,,,,,,,,,,,,,,,,,,,,,,,,,,,,,,,,,,,,,,,,,,,,,,,,,,,,,,,,,,,,,,,,,,,,,,,,,,,,,,,,,,,,,,,,,,,,,,,,,
,,65b571deec1559505fc20ac3,2024-02-22_24h23.13.045,kallum_motion_pilot,2023.2.2,Win32,62.5,65b571deec1559505fc20ac3,65d6bb0e977760de756971f7,65d6bddc959263ac036fb569,0.034,0.034,0,61,61,111,1,eightseven,,,,,,,,,,,,,,,,,,,,,,,,,,,,,,,,,,,,,,,,,,,,,,,,,,,,,,,,,,,,,,,,,,,,,,,,,,,,,,,,,,,,,,,,,,,,,,,,,,,,,,,,,,,,,,,,,,,,,,,,,,,,,,,,,,,,,,,,,
,,65b571deec1559505fc20ac3,2024-02-22_24h23.13.045,kallum_motion_pilot,2023.2.2,Win32,62.5,65b571deec1559505fc20ac3,65d6bb0e977760de756971f7,65d6bddc959263ac036fb569,0.034,0.034,0,62,62,109,1,seveneight,,,,,,,,,,,,,,,,,,,,,,,,,,,,,,,,,,,,,,,,,,,,,,,,,,,,,,,,,,,,,,,,,,,,,,,,,,,,,,,,,,,,,,,,,,,,,,,,,,,,,,,,,,,,,,,,,,,,,,,,,,,,,,,,,,,,,,,,,
,,65b571deec1559505fc20ac3,2024-02-22_24h23.13.045,kallum_motion_pilot,2023.2.2,Win32,62.5,65b571deec1559505fc20ac3,65d6bb0e977760de756971f7,65d6bddc959263ac036fb569,0.034,0.034,0,63,63,46,1,fourtwo,,,,,,,,,,,,,,,,,,,,,,,,,,,,,,,,,,,,,,,,,,,,,,,,,,,,,,,,,,,,,,,,,,,,,,,,,,,,,,,,,,,,,,,,,,,,,,,,,,,,,,,,,,,,,,,,,,,,,,,,,,,,,,,,,,,,,,,,,
,,65b571deec1559505fc20ac3,2024-02-22_24h23.13.045,kallum_motion_pilot,2023.2.2,Win32,62.5,65b571deec1559505fc20ac3,65d6bb0e977760de756971f7,65d6bddc959263ac036fb569,0.034,0.034,0,64,64,112,1,fivesix,,,,,,,,,,,,,,,,,,,,,,,,,,,,,,,,,,,,,,,,,,,,,,,,,,,,,,,,,,,,,,,,,,,,,,,,,,,,,,,,,,,,,,,,,,,,,,,,,,,,,,,,,,,,,,,,,,,,,,,,,,,,,,,,,,,,,,,,,
,,65b571deec1559505fc20ac3,2024-02-22_24h23.13.045,kallum_motion_pilot,2023.2.2,Win32,62.5,65b571deec1559505fc20ac3,65d6bb0e977760de756971f7,65d6bddc959263ac036fb569,0.035,0.035,0,65,65,152,1,fivesix,,,,,,,,,,,,,,,,,,,,,,,,,,,,,,,,,,,,,,,,,,,,,,,,,,,,,,,,,,,,,,,,,,,,,,,,,,,,,,,,,,,,,,,,,,,,,,,,,,,,,,,,,,,,,,,,,,,,,,,,,,,,,,,,,,,,,,,,,
,,65b571deec1559505fc20ac3,2024-02-22_24h23.13.045,kallum_motion_pilot,2023.2.2,Win32,62.5,65b571deec1559505fc20ac3,65d6bb0e977760de756971f7,65d6bddc959263ac036fb569,0.035,0.035,0,66,66,51,1,twofour,,,,,,,,,,,,,,,,,,,,,,,,,,,,,,,,,,,,,,,,,,,,,,,,,,,,,,,,,,,,,,,,,,,,,,,,,,,,,,,,,,,,,,,,,,,,,,,,,,,,,,,,,,,,,,,,,,,,,,,,,,,,,,,,,,,,,,,,,
,,65b571deec1559505fc20ac3,2024-02-22_24h23.13.045,kallum_motion_pilot,2023.2.2,Win32,62.5,65b571deec1559505fc20ac3,65d6bb0e977760de756971f7,65d6bddc959263ac036fb569,0.035,0.035,0,67,67,33,1,onethree,,,,,,,,,,,,,,,,,,,,,,,,,,,,,,,,,,,,,,,,,,,,,,,,,,,,,,,,,,,,,,,,,,,,,,,,,,,,,,,,,,,,,,,,,,,,,,,,,,,,,,,,,,,,,,,,,,,,,,,,,,,,,,,,,,,,,,,,,
,,65b571deec1559505fc20ac3,2024-02-22_24h23.13.045,kallum_motion_pilot,2023.2.2,Win32,62.5,65b571deec1559505fc20ac3,65d6bb0e977760de756971f7,65d6bddc959263ac036fb569,0.035,0.035,0,68,68,103,1,eightseven,,,,,,,,,,,,,,,,,,,,,,,,,,,,,,,,,,,,,,,,,,,,,,,,,,,,,,,,,,,,,,,,,,,,,,,,,,,,,,,,,,,,,,,,,,,,,,,,,,,,,,,,,,,,,,,,,,,,,,,,,,,,,,,,,,,,,,,,,
,,65b571deec1559505fc20ac3,2024-02-22_24h23.13.045,kallum_motion_pilot,2023.2.2,Win32,62.5,65b571deec1559505fc20ac3,65d6bb0e977760de756971f7,65d6bddc959263ac036fb569,0.036,0.036,0,69,69,131,1,sixeight,,,,,,,,,,,,,,,,,,,,,,,,,,,,,,,,,,,,,,,,,,,,,,,,,,,,,,,,,,,,,,,,,,,,,,,,,,,,,,,,,,,,,,,,,,,,,,,,,,,,,,,,,,,,,,,,,,,,,,,,,,,,,,,,,,,,,,,,,
,,65b571deec1559505fc20ac3,2024-02-22_24h23.13.045,kallum_motion_pilot,2023.2.2,Win32,62.5,65b571deec1559505fc20ac3,65d6bb0e977760de756971f7,65d6bddc959263ac036fb569,0.036,0.036,0,70,70,42,1,twoone,,,,,,,,,,,,,,,,,,,,,,,,,,,,,,,,,,,,,,,,,,,,,,,,,,,,,,,,,,,,,,,,,,,,,,,,,,,,,,,,,,,,,,,,,,,,,,,,,,,,,,,,,,,,,,,,,,,,,,,,,,,,,,,,,,,,,,,,,
,,65b571deec1559505fc20ac3,2024-02-22_24h23.13.045,kallum_motion_pilot,2023.2.2,Win32,62.5,65b571deec1559505fc20ac3,65d6bb0e977760de756971f7,65d6bddc959263ac036fb569,0.036,0.036,0,71,71,82,1,sixfive,,,,,,,,,,,,,,,,,,,,,,,,,,,,,,,,,,,,,,,,,,,,,,,,,,,,,,,,,,,,,,,,,,,,,,,,,,,,,,,,,,,,,,,,,,,,,,,,,,,,,,,,,,,,,,,,,,,,,,,,,,,,,,,,,,,,,,,,,
,,65b571deec1559505fc20ac3,2024-02-22_24h23.13.045,kallum_motion_pilot,2023.2.2,Win32,62.5,65b571deec1559505fc20ac3,65d6bb0e977760de756971f7,65d6bddc959263ac036fb569,0.036,0.036,0,72,72,52,1,threeone,,,,,,,,,,,,,,,,,,,,,,,,,,,,,,,,,,,,,,,,,,,,,,,,,,,,,,,,,,,,,,,,,,,,,,,,,,,,,,,,,,,,,,,,,,,,,,,,,,,,,,,,,,,,,,,,,,,,,,,,,,,,,,,,,,,,,,,,,
,,65b571deec1559505fc20ac3,2024-02-22_24h23.13.045,kallum_motion_pilot,2023.2.2,Win32,62.5,65b571deec1559505fc20ac3,65d6bb0e977760de756971f7,65d6bddc959263ac036fb569,0.036,0.036,0,73,73,139,1,sixeight,,,,,,,,,,,,,,,,,,,,,,,,,,,,,,,,,,,,,,,,,,,,,,,,,,,,,,,,,,,,,,,,,,,,,,,,,,,,,,,,,,,,,,,,,,,,,,,,,,,,,,,,,,,,,,,,,,,,,,,,,,,,,,,,,,,,,,,,,
,,65b571deec1559505fc20ac3,2024-02-22_24h23.13.045,kallum_motion_pilot,2023.2.2,Win32,62.5,65b571deec1559505fc20ac3,65d6bb0e977760de756971f7,65d6bddc959263ac036fb569,0.036,0.036,0,74,74,60,1,threeone,,,,,,,,,,,,,,,,,,,,,,,,,,,,,,,,,,,,,,,,,,,,,,,,,,,,,,,,,,,,,,,,,,,,,,,,,,,,,,,,,,,,,,,,,,,,,,,,,,,,,,,,,,,,,,,,,,,,,,,,,,,,,,,,,,,,,,,,,
,,65b571deec1559505fc20ac3,2024-02-22_24h23.13.045,kallum_motion_pilot,2023.2.2,Win32,62.5,65b571deec1559505fc20ac3,65d6bb0e977760de756971f7,65d6bddc959263ac036fb569,0.036,0.036,0,75,75,132,1,sevenfive,,,,,,,,,,,,,,,,,,,,,,,,,,,,,,,,,,,,,,,,,,,,,,,,,,,,,,,,,,,,,,,,,,,,,,,,,,,,,,,,,,,,,,,,,,,,,,,,,,,,,,,,,,,,,,,,,,,,,,,,,,,,,,,,,,,,,,,,,
,,65b571deec1559505fc20ac3,2024-02-22_24h23.13.045,kallum_motion_pilot,2023.2.2,Win32,62.5,65b571deec1559505fc20ac3,65d6bb0e977760de756971f7,65d6bddc959263ac036fb569,0.036,0.036,0,76,76,147,1,sixeight,,,,,,,,,,,,,,,,,,,,,,,,,,,,,,,,,,,,,,,,,,,,,,,,,,,,,,,,,,,,,,,,,,,,,,,,,,,,,,,,,,,,,,,,,,,,,,,,,,,,,,,,,,,,,,,,,,,,,,,,,,,,,,,,,,,,,,,,,
,,65b571deec1559505fc20ac3,2024-02-22_24h23.13.045,kallum_motion_pilot,2023.2.2,Win32,62.5,65b571deec1559505fc20ac3,65d6bb0e977760de756971f7,65d6bddc959263ac036fb569,0.037,0.037,0,77,77,115,1,sixeight,,,,,,,,,,,,,,,,,,,,,,,,,,,,,,,,,,,,,,,,,,,,,,,,,,,,,,,,,,,,,,,,,,,,,,,,,,,,,,,,,,,,,,,,,,,,,,,,,,,,,,,,,,,,,,,,,,,,,,,,,,,,,,,,,,,,,,,,,
,,65b571deec1559505fc20ac3,2024-02-22_24h23.13.045,kallum_motion_pilot,2023.2.2,Win32,62.5,65b571deec1559505fc20ac3,65d6bb0e977760de756971f7,65d6bddc959263ac036fb569,0.037,0.037,0,78,78,7,1,fourthree,,,,,,,,,,,,,,,,,,,,,,,,,,,,,,,,,,,,,,,,,,,,,,,,,,,,,,,,,,,,,,,,,,,,,,,,,,,,,,,,,,,,,,,,,,,,,,,,,,,,,,,,,,,,,,,,,,,,,,,,,,,,,,,,,,,,,,,,,
,,65b571deec1559505fc20ac3,2024-02-22_24h23.13.045,kallum_motion_pilot,2023.2.2,Win32,62.5,65b571deec1559505fc20ac3,65d6bb0e977760de756971f7,65d6bddc959263ac036fb569,0.037,0.037,0,79,79,29,1,threefour,,,,,,,,,,,,,,,,,,,,,,,,,,,,,,,,,,,,,,,,,,,,,,,,,,,,,,,,,,,,,,,,,,,,,,,,,,,,,,,,,,,,,,,,,,,,,,,,,,,,,,,,,,,,,,,,,,,,,,,,,,,,,,,,,,,,,,,,,
,,65b571deec1559505fc20ac3,2024-02-22_24h23.13.045,kallum_motion_pilot,2023.2.2,Win32,62.5,65b571deec1559505fc20ac3,65d6bb0e977760de756971f7,65d6bddc959263ac036fb569,0.037,0.037,0,80,80,9,1,onethree,,,,,,,,,,,,,,,,,,,,,,,,,,,,,,,,,,,,,,,,,,,,,,,,,,,,,,,,,,,,,,,,,,,,,,,,,,,,,,,,,,,,,,,,,,,,,,,,,,,,,,,,,,,,,,,,,,,,,,,,,,,,,,,,,,,,,,,,,
,,65b571deec1559505fc20ac3,2024-02-22_24h23.13.045,kallum_motion_pilot,2023.2.2,Win32,62.5,65b571deec1559505fc20ac3,65d6bb0e977760de756971f7,65d6bddc959263ac036fb569,0.037,0.037,0,81,81,65,1,onethree,,,,,,,,,,,,,,,,,,,,,,,,,,,,,,,,,,,,,,,,,,,,,,,,,,,,,,,,,,,,,,,,,,,,,,,,,,,,,,,,,,,,,,,,,,,,,,,,,,,,,,,,,,,,,,,,,,,,,,,,,,,,,,,,,,,,,,,,,
,,65b571deec1559505fc20ac3,2024-02-22_24h23.13.045,kallum_motion_pilot,2023.2.2,Win32,62.5,65b571deec1559505fc20ac3,65d6bb0e977760de756971f7,65d6bddc959263ac036fb569,0.037,0.037,0,82,82,18,1,twoone,,,,,,,,,,,,,,,,,,,,,,,,,,,,,,,,,,,,,,,,,,,,,,,,,,,,,,,,,,,,,,,,,,,,,,,,,,,,,,,,,,,,,,,,,,,,,,,,,,,,,,,,,,,,,,,,,,,,,,,,,,,,,,,,,,,,,,,,,
,,65b571deec1559505fc20ac3,2024-02-22_24h23.13.045,kallum_motion_pilot,2023.2.2,Win32,62.5,65b571deec1559505fc20ac3,65d6bb0e977760de756971f7,65d6bddc959263ac036fb569,0.037,0.037,0,83,83,57,1,onethree,,,,,,,,,,,,,,,,,,,,,,,,,,,,,,,,,,,,,,,,,,,,,,,,,,,,,,,,,,,,,,,,,,,,,,,,,,,,,,,,,,,,,,,,,,,,,,,,,,,,,,,,,,,,,,,,,,,,,,,,,,,,,,,,,,,,,,,,,
,,65b571deec1559505fc20ac3,2024-02-22_24h23.13.045,kallum_motion_pilot,2023.2.2,Win32,62.5,65b571deec1559505fc20ac3,65d6bb0e977760de756971f7,65d6bddc959263ac036fb569,0.037,0.037,0,84,84,20,1,threeone,,,,,,,,,,,,,,,,,,,,,,,,,,,,,,,,,,,,,,,,,,,,,,,,,,,,,,,,,,,,,,,,,,,,,,,,,,,,,,,,,,,,,,,,,,,,,,,,,,,,,,,,,,,,,,,,,,,,,,,,,,,,,,,,,,,,,,,,,
,,65b571deec1559505fc20ac3,2024-02-22_24h23.13.045,kallum_motion_pilot,2023.2.2,Win32,62.5,65b571deec1559505fc20ac3,65d6bb0e977760de756971f7,65d6bddc959263ac036fb569,0.037,0.037,0,85,85,23,1,fourthree,,,,,,,,,,,,,,,,,,,,,,,,,,,,,,,,,,,,,,,,,,,,,,,,,,,,,,,,,,,,,,,,,,,,,,,,,,,,,,,,,,,,,,,,,,,,,,,,,,,,,,,,,,,,,,,,,,,,,,,,,,,,,,,,,,,,,,,,,
,,65b571deec1559505fc20ac3,2024-02-22_24h23.13.045,kallum_motion_pilot,2023.2.2,Win32,62.5,65b571deec1559505fc20ac3,65d6bb0e977760de756971f7,65d6bddc959263ac036fb569,0.037,0.037,0,86,86,76,1,threeone,,,,,,,,,,,,,,,,,,,,,,,,,,,,,,,,,,,,,,,,,,,,,,,,,,,,,,,,,,,,,,,,,,,,,,,,,,,,,,,,,,,,,,,,,,,,,,,,,,,,,,,,,,,,,,,,,,,,,,,,,,,,,,,,,,,,,,,,,
,,65b571deec1559505fc20ac3,2024-02-22_24h23.13.045,kallum_motion_pilot,2023.2.2,Win32,62.5,65b571deec1559505fc20ac3,65d6bb0e977760de756971f7,65d6bddc959263ac036fb569,0.037,0.037,0,87,87,78,1,fourtwo,,,,,,,,,,,,,,,,,,,,,,,,,,,,,,,,,,,,,,,,,,,,,,,,,,,,,,,,,,,,,,,,,,,,,,,,,,,,,,,,,,,,,,,,,,,,,,,,,,,,,,,,,,,,,,,,,,,,,,,,,,,,,,,,,,,,,,,,,
,,65b571deec1559505fc20ac3,2024-02-22_24h23.13.045,kallum_motion_pilot,2023.2.2,Win32,62.5,65b571deec1559505fc20ac3,65d6bb0e977760de756971f7,65d6bddc959263ac036fb569,0.037,0.037,0,88,88,35,1,twofour,,,,,,,,,,,,,,,,,,,,,,,,,,,,,,,,,,,,,,,,,,,,,,,,,,,,,,,,,,,,,,,,,,,,,,,,,,,,,,,,,,,,,,,,,,,,,,,,,,,,,,,,,,,,,,,,,,,,,,,,,,,,,,,,,,,,,,,,,
,,65b571deec1559505fc20ac3,2024-02-22_24h23.13.045,kallum_motion_pilot,2023.2.2,Win32,62.5,65b571deec1559505fc20ac3,65d6bb0e977760de756971f7,65d6bddc959263ac036fb569,0.037,0.038,0,89,89,140,1,sevenfive,,,,,,,,,,,,,,,,,,,,,,,,,,,,,,,,,,,,,,,,,,,,,,,,,,,,,,,,,,,,,,,,,,,,,,,,,,,,,,,,,,,,,,,,,,,,,,,,,,,,,,,,,,,,,,,,,,,,,,,,,,,,,,,,,,,,,,,,,
,,65b571deec1559505fc20ac3,2024-02-22_24h23.13.045,kallum_motion_pilot,2023.2.2,Win32,62.5,65b571deec1559505fc20ac3,65d6bb0e977760de756971f7,65d6bddc959263ac036fb569,0.038,0.038,0,90,90,135,1,eightseven,,,,,,,,,,,,,,,,,,,,,,,,,,,,,,,,,,,,,,,,,,,,,,,,,,,,,,,,,,,,,,,,,,,,,,,,,,,,,,,,,,,,,,,,,,,,,,,,,,,,,,,,,,,,,,,,,,,,,,,,,,,,,,,,,,,,,,,,,
,,65b571deec1559505fc20ac3,2024-02-22_24h23.13.045,kallum_motion_pilot,2023.2.2,Win32,62.5,65b571deec1559505fc20ac3,65d6bb0e977760de756971f7,65d6bddc959263ac036fb569,0.038,0.038,0,91,91,151,1,eightseven,,,,,,,,,,,,,,,,,,,,,,,,,,,,,,,,,,,,,,,,,,,,,,,,,,,,,,,,,,,,,,,,,,,,,,,,,,,,,,,,,,,,,,,,,,,,,,,,,,,,,,,,,,,,,,,,,,,,,,,,,,,,,,,,,,,,,,,,,
,,65b571deec1559505fc20ac3,2024-02-22_24h23.13.045,kallum_motion_pilot,2023.2.2,Win32,62.5,65b571deec1559505fc20ac3,65d6bb0e977760de756971f7,65d6bddc959263ac036fb569,0.039,0.039,0,92,92,74,1,twoone,,,,,,,,,,,,,,,,,,,,,,,,,,,,,,,,,,,,,,,,,,,,,,,,,,,,,,,,,,,,,,,,,,,,,,,,,,,,,,,,,,,,,,,,,,,,,,,,,,,,,,,,,,,,,,,,,,,,,,,,,,,,,,,,,,,,,,,,,
,,65b571deec1559505fc20ac3,2024-02-22_24h23.13.045,kallum_motion_pilot,2023.2.2,Win32,62.5,65b571deec1559505fc20ac3,65d6bb0e977760de756971f7,65d6bddc959263ac036fb569,0.039,0.039,0,93,93,108,1,sevenfive,,,,,,,,,,,,,,,,,,,,,,,,,,,,,,,,,,,,,,,,,,,,,,,,,,,,,,,,,,,,,,,,,,,,,,,,,,,,,,,,,,,,,,,,,,,,,,,,,,,,,,,,,,,,,,,,,,,,,,,,,,,,,,,,,,,,,,,,,
,,65b571deec1559505fc20ac3,2024-02-22_24h23.13.045,kallum_motion_pilot,2023.2.2,Win32,62.5,65b571deec1559505fc20ac3,65d6bb0e977760de756971f7,65d6bddc959263ac036fb569,0.039,0.039,0,94,94,98,1,sixfive,,,,,,,,,,,,,,,,,,,,,,,,,,,,,,,,,,,,,,,,,,,,,,,,,,,,,,,,,,,,,,,,,,,,,,,,,,,,,,,,,,,,,,,,,,,,,,,,,,,,,,,,,,,,,,,,,,,,,,,,,,,,,,,,,,,,,,,,,
,,65b571deec1559505fc20ac3,2024-02-22_24h23.13.045,kallum_motion_pilot,2023.2.2,Win32,62.5,65b571deec1559505fc20ac3,65d6bb0e977760de756971f7,65d6bddc959263ac036fb569,0.039,0.039,0,95,95,27,1,twofour,,,,,,,,,,,,,,,,,,,,,,,,,,,,,,,,,,,,,,,,,,,,,,,,,,,,,,,,,,,,,,,,,,,,,,,,,,,,,,,,,,,,,,,,,,,,,,,,,,,,,,,,,,,,,,,,,,,,,,,,,,,,,,,,,,,,,,,,,
,,65b571deec1559505fc20ac3,2024-02-22_24h23.13.045,kallum_motion_pilot,2023.2.2,Win32,62.5,65b571deec1559505fc20ac3,65d6bb0e977760de756971f7,65d6bddc959263ac036fb569,0.039,0.039,0,96,96,94,1,eightsix,,,,,,,,,,,,,,,,,,,,,,,,,,,,,,,,,,,,,,,,,,,,,,,,,,,,,,,,,,,,,,,,,,,,,,,,,,,,,,,,,,,,,,,,,,,,,,,,,,,,,,,,,,,,,,,,,,,,,,,,,,,,,,,,,,,,,,,,,
,,65b571deec1559505fc20ac3,2024-02-22_24h23.13.045,kallum_motion_pilot,2023.2.2,Win32,62.5,65b571deec1559505fc20ac3,65d6bb0e977760de756971f7,65d6bddc959263ac036fb569,0.039,0.039,0,97,97,143,1,eightseven,,,,,,,,,,,,,,,,,,,,,,,,,,,,,,,,,,,,,,,,,,,,,,,,,,,,,,,,,,,,,,,,,,,,,,,,,,,,,,,,,,,,,,,,,,,,,,,,,,,,,,,,,,,,,,,,,,,,,,,,,,,,,,,,,,,,,,,,,
,,65b571deec1559505fc20ac3,2024-02-22_24h23.13.045,kallum_motion_pilot,2023.2.2,Win32,62.5,65b571deec1559505fc20ac3,65d6bb0e977760de756971f7,65d6bddc959263ac036fb569,0.039,0.039,0,98,98,154,1,sixfive,,,,,,,,,,,,,,,,,,,,,,,,,,,,,,,,,,,,,,,,,,,,,,,,,,,,,,,,,,,,,,,,,,,,,,,,,,,,,,,,,,,,,,,,,,,,,,,,,,,,,,,,,,,,,,,,,,,,,,,,,,,,,,,,,,,,,,,,,
,,65b571deec1559505fc20ac3,2024-02-22_24h23.13.045,kallum_motion_pilot,2023.2.2,Win32,62.5,65b571deec1559505fc20ac3,65d6bb0e977760de756971f7,65d6bddc959263ac036fb569,0.039,0.039,0,99,99,72,1,onetwo,,,,,,,,,,,,,,,,,,,,,,,,,,,,,,,,,,,,,,,,,,,,,,,,,,,,,,,,,,,,,,,,,,,,,,,,,,,,,,,,,,,,,,,,,,,,,,,,,,,,,,,,,,,,,,,,,,,,,,,,,,,,,,,,,,,,,,,,,
,,65b571deec1559505fc20ac3,2024-02-22_24h23.13.045,kallum_motion_pilot,2023.2.2,Win32,62.5,65b571deec1559505fc20ac3,65d6bb0e977760de756971f7,65d6bddc959263ac036fb569,0.039,0.04,0,100,100,3,1,twofour,,,,,,,,,,,,,,,,,,,,,,,,,,,,,,,,,,,,,,,,,,,,,,,,,,,,,,,,,,,,,,,,,,,,,,,,,,,,,,,,,,,,,,,,,,,,,,,,,,,,,,,,,,,,,,,,,,,,,,,,,,,,,,,,,,,,,,,,,
,,65b571deec1559505fc20ac3,2024-02-22_24h23.13.045,kallum_motion_pilot,2023.2.2,Win32,62.5,65b571deec1559505fc20ac3,65d6bb0e977760de756971f7,65d6bddc959263ac036fb569,0.04,0.04,0,101,101,56,1,onetwo,,,,,,,,,,,,,,,,,,,,,,,,,,,,,,,,,,,,,,,,,,,,,,,,,,,,,,,,,,,,,,,,,,,,,,,,,,,,,,,,,,,,,,,,,,,,,,,,,,,,,,,,,,,,,,,,,,,,,,,,,,,,,,,,,,,,,,,,,
,,65b571deec1559505fc20ac3,2024-02-22_24h23.13.045,kallum_motion_pilot,2023.2.2,Win32,62.5,65b571deec1559505fc20ac3,65d6bb0e977760de756971f7,65d6bddc959263ac036fb569,0.04,0.04,0,102,102,63,1,fourthree,,,,,,,,,,,,,,,,,,,,,,,,,,,,,,,,,,,,,,,,,,,,,,,,,,,,,,,,,,,,,,,,,,,,,,,,,,,,,,,,,,,,,,,,,,,,,,,,,,,,,,,,,,,,,,,,,,,,,,,,,,,,,,,,,,,,,,,,,
,,65b571deec1559505fc20ac3,2024-02-22_24h23.13.045,kallum_motion_pilot,2023.2.2,Win32,62.5,65b571deec1559505fc20ac3,65d6bb0e977760de756971f7,65d6bddc959263ac036fb569,0.04,0.04,0,103,103,67,1,twofour,,,,,,,,,,,,,,,,,,,,,,,,,,,,,,,,,,,,,,,,,,,,,,,,,,,,,,,,,,,,,,,,,,,,,,,,,,,,,,,,,,,,,,,,,,,,,,,,,,,,,,,,,,,,,,,,,,,,,,,,,,,,,,,,,,,,,,,,,
,,65b571deec1559505fc20ac3,2024-02-22_24h23.13.045,kallum_motion_pilot,2023.2.2,Win32,62.5,65b571deec1559505fc20ac3,65d6bb0e977760de756971f7,65d6bddc959263ac036fb569,0.04,0.04,0,104,104,83,1,sixeight,,,,,,,,,,,,,,,,,,,,,,,,,,,,,,,,,,,,,,,,,,,,,,,,,,,,,,,,,,,,,,,,,,,,,,,,,,,,,,,,,,,,,,,,,,,,,,,,,,,,,,,,,,,,,,,,,,,,,,,,,,,,,,,,,,,,,,,,,
,,65b571deec1559505fc20ac3,2024-02-22_24h23.13.045,kallum_motion_pilot,2023.2.2,Win32,62.5,65b571deec1559505fc20ac3,65d6bb0e977760de756971f7,65d6bddc959263ac036fb569,0.04,0.04,0,105,105,146,1,sixfive,,,,,,,,,,,,,,,,,,,,,,,,,,,,,,,,,,,,,,,,,,,,,,,,,,,,,,,,,,,,,,,,,,,,,,,,,,,,,,,,,,,,,,,,,,,,,,,,,,,,,,,,,,,,,,,,,,,,,,,,,,,,,,,,,,,,,,,,,
,,65b571deec1559505fc20ac3,2024-02-22_24h23.13.045,kallum_motion_pilot,2023.2.2,Win32,62.5,65b571deec1559505fc20ac3,65d6bb0e977760de756971f7,65d6bddc959263ac036fb569,0.04,0.04,0,106,106,14,1,fourtwo,,,,,,,,,,,,,,,,,,,,,,,,,,,,,,,,,,,,,,,,,,,,,,,,,,,,,,,,,,,,,,,,,,,,,,,,,,,,,,,,,,,,,,,,,,,,,,,,,,,,,,,,,,,,,,,,,,,,,,,,,,,,,,,,,,,,,,,,,
,,65b571deec1559505fc20ac3,2024-02-22_24h23.13.045,kallum_motion_pilot,2023.2.2,Win32,62.5,65b571deec1559505fc20ac3,65d6bb0e977760de756971f7,65d6bddc959263ac036fb569,0.04,0.04,0,107,107,53,1,threefour,,,,,,,,,,,,,,,,,,,,,,,,,,,,,,,,,,,,,,,,,,,,,,,,,,,,,,,,,,,,,,,,,,,,,,,,,,,,,,,,,,,,,,,,,,,,,,,,,,,,,,,,,,,,,,,,,,,,,,,,,,,,,,,,,,,,,,,,,
,,65b571deec1559505fc20ac3,2024-02-22_24h23.13.045,kallum_motion_pilot,2023.2.2,Win32,62.5,65b571deec1559505fc20ac3,65d6bb0e977760de756971f7,65d6bddc959263ac036fb569,0.04,0.04,0,108,108,73,1,onethree,,,,,,,,,,,,,,,,,,,,,,,,,,,,,,,,,,,,,,,,,,,,,,,,,,,,,,,,,,,,,,,,,,,,,,,,,,,,,,,,,,,,,,,,,,,,,,,,,,,,,,,,,,,,,,,,,,,,,,,,,,,,,,,,,,,,,,,,,
,,65b571deec1559505fc20ac3,2024-02-22_24h23.13.045,kallum_motion_pilot,2023.2.2,Win32,62.5,65b571deec1559505fc20ac3,65d6bb0e977760de756971f7,65d6bddc959263ac036fb569,0.04,0.041,0,109,109,91,1,sixeight,,,,,,,,,,,,,,,,,,,,,,,,,,,,,,,,,,,,,,,,,,,,,,,,,,,,,,,,,,,,,,,,,,,,,,,,,,,,,,,,,,,,,,,,,,,,,,,,,,,,,,,,,,,,,,,,,,,,,,,,,,,,,,,,,,,,,,,,,
,,65b571deec1559505fc20ac3,2024-02-22_24h23.13.045,kallum_motion_pilot,2023.2.2,Win32,62.5,65b571deec1559505fc20ac3,65d6bb0e977760de756971f7,65d6bddc959263ac036fb569,0.041,0.041,0,110,110,95,1,eightseven,,,,,,,,,,,,,,,,,,,,,,,,,,,,,,,,,,,,,,,,,,,,,,,,,,,,,,,,,,,,,,,,,,,,,,,,,,,,,,,,,,,,,,,,,,,,,,,,,,,,,,,,,,,,,,,,,,,,,,,,,,,,,,,,,,,,,,,,,
,,65b571deec1559505fc20ac3,2024-02-22_24h23.13.045,kallum_motion_pilot,2023.2.2,Win32,62.5,65b571deec1559505fc20ac3,65d6bb0e977760de756971f7,65d6bddc959263ac036fb569,0.041,0.041,0,111,111,0,1,onetwo,,,,,,,,,,,,,,,,,,,,,,,,,,,,,,,,,,,,,,,,,,,,,,,,,,,,,,,,,,,,,,,,,,,,,,,,,,,,,,,,,,,,,,,,,,,,,,,,,,,,,,,,,,,,,,,,,,,,,,,,,,,,,,,,,,,,,,,,,
,,65b571deec1559505fc20ac3,2024-02-22_24h23.13.045,kallum_motion_pilot,2023.2.2,Win32,62.5,65b571deec1559505fc20ac3,65d6bb0e977760de756971f7,65d6bddc959263ac036fb569,0.041,0.041,0,112,112,130,1,sixfive,,,,,,,,,,,,,,,,,,,,,,,,,,,,,,,,,,,,,,,,,,,,,,,,,,,,,,,,,,,,,,,,,,,,,,,,,,,,,,,,,,,,,,,,,,,,,,,,,,,,,,,,,,,,,,,,,,,,,,,,,,,,,,,,,,,,,,,,,
,,65b571deec1559505fc20ac3,2024-02-22_24h23.13.045,kallum_motion_pilot,2023.2.2,Win32,62.5,65b571deec1559505fc20ac3,65d6bb0e977760de756971f7,65d6bddc959263ac036fb569,0.041,0.041,0,113,113,104,1,fivesix,,,,,,,,,,,,,,,,,,,,,,,,,,,,,,,,,,,,,,,,,,,,,,,,,,,,,,,,,,,,,,,,,,,,,,,,,,,,,,,,,,,,,,,,,,,,,,,,,,,,,,,,,,,,,,,,,,,,,,,,,,,,,,,,,,,,,,,,,
,,65b571deec1559505fc20ac3,2024-02-22_24h23.13.045,kallum_motion_pilot,2023.2.2,Win32,62.5,65b571deec1559505fc20ac3,65d6bb0e977760de756971f7,65d6bddc959263ac036fb569,0.041,0.041,0,114,114,101,1,seveneight,,,,,,,,,,,,,,,,,,,,,,,,,,,,,,,,,,,,,,,,,,,,,,,,,,,,,,,,,,,,,,,,,,,,,,,,,,,,,,,,,,,,,,,,,,,,,,,,,,,,,,,,,,,,,,,,,,,,,,,,,,,,,,,,,,,,,,,,,
,,65b571deec1559505fc20ac3,2024-02-22_24h23.13.045,kallum_motion_pilot,2023.2.2,Win32,62.5,65b571deec1559505fc20ac3,65d6bb0e977760de756971f7,65d6bddc959263ac036fb569,0.041,0.041,0,115,115,102,1,eightsix,,,,,,,,,,,,,,,,,,,,,,,,,,,,,,,,,,,,,,,,,,,,,,,,,,,,,,,,,,,,,,,,,,,,,,,,,,,,,,,,,,,,,,,,,,,,,,,,,,,,,,,,,,,,,,,,,,,,,,,,,,,,,,,,,,,,,,,,,
,,65b571deec1559505fc20ac3,2024-02-22_24h23.13.045,kallum_motion_pilot,2023.2.2,Win32,62.5,65b571deec1559505fc20ac3,65d6bb0e977760de756971f7,65d6bddc959263ac036fb569,0.041,0.041,0,116,116,30,1,fourtwo,,,,,,,,,,,,,,,,,,,,,,,,,,,,,,,,,,,,,,,,,,,,,,,,,,,,,,,,,,,,,,,,,,,,,,,,,,,,,,,,,,,,,,,,,,,,,,,,,,,,,,,,,,,,,,,,,,,,,,,,,,,,,,,,,,,,,,,,,
,,65b571deec1559505fc20ac3,2024-02-22_24h23.13.045,kallum_motion_pilot,2023.2.2,Win32,62.5,65b571deec1559505fc20ac3,65d6bb0e977760de756971f7,65d6bddc959263ac036fb569,0.041,0.042,0,117,117,107,1,sixeight,,,,,,,,,,,,,,,,,,,,,,,,,,,,,,,,,,,,,,,,,,,,,,,,,,,,,,,,,,,,,,,,,,,,,,,,,,,,,,,,,,,,,,,,,,,,,,,,,,,,,,,,,,,,,,,,,,,,,,,,,,,,,,,,,,,,,,,,,
,,65b571deec1559505fc20ac3,2024-02-22_24h23.13.045,kallum_motion_pilot,2023.2.2,Win32,62.5,65b571deec1559505fc20ac3,65d6bb0e977760de756971f7,65d6bddc959263ac036fb569,0.042,0.042,0,118,118,5,1,threefour,,,,,,,,,,,,,,,,,,,,,,,,,,,,,,,,,,,,,,,,,,,,,,,,,,,,,,,,,,,,,,,,,,,,,,,,,,,,,,,,,,,,,,,,,,,,,,,,,,,,,,,,,,,,,,,,,,,,,,,,,,,,,,,,,,,,,,,,,
,,65b571deec1559505fc20ac3,2024-02-22_24h23.13.045,kallum_motion_pilot,2023.2.2,Win32,62.5,65b571deec1559505fc20ac3,65d6bb0e977760de756971f7,65d6bddc959263ac036fb569,0.042,0.042,0,119,119,84,1,sevenfive,,,,,,,,,,,,,,,,,,,,,,,,,,,,,,,,,,,,,,,,,,,,,,,,,,,,,,,,,,,,,,,,,,,,,,,,,,,,,,,,,,,,,,,,,,,,,,,,,,,,,,,,,,,,,,,,,,,,,,,,,,,,,,,,,,,,,,,,,
,,65b571deec1559505fc20ac3,2024-02-22_24h23.13.045,kallum_motion_pilot,2023.2.2,Win32,62.5,65b571deec1559505fc20ac3,65d6bb0e977760de756971f7,65d6bddc959263ac036fb569,0.042,0.042,0,120,120,149,1,seveneight,,,,,,,,,,,,,,,,,,,,,,,,,,,,,,,,,,,,,,,,,,,,,,,,,,,,,,,,,,,,,,,,,,,,,,,,,,,,,,,,,,,,,,,,,,,,,,,,,,,,,,,,,,,,,,,,,,,,,,,,,,,,,,,,,,,,,,,,,
,,65b571deec1559505fc20ac3,2024-02-22_24h23.13.045,kallum_motion_pilot,2023.2.2,Win32,62.5,65b571deec1559505fc20ac3,65d6bb0e977760de756971f7,65d6bddc959263ac036fb569,0.042,0.042,0,121,121,15,1,fourthree,,,,,,,,,,,,,,,,,,,,,,,,,,,,,,,,,,,,,,,,,,,,,,,,,,,,,,,,,,,,,,,,,,,,,,,,,,,,,,,,,,,,,,,,,,,,,,,,,,,,,,,,,,,,,,,,,,,,,,,,,,,,,,,,,,,,,,,,,
,,65b571deec1559505fc20ac3,2024-02-22_24h23.13.045,kallum_motion_pilot,2023.2.2,Win32,62.5,65b571deec1559505fc20ac3,65d6bb0e977760de756971f7,65d6bddc959263ac036fb569,0.042,0.042,0,122,122,70,1,fourtwo,,,,,,,,,,,,,,,,,,,,,,,,,,,,,,,,,,,,,,,,,,,,,,,,,,,,,,,,,,,,,,,,,,,,,,,,,,,,,,,,,,,,,,,,,,,,,,,,,,,,,,,,,,,,,,,,,,,,,,,,,,,,,,,,,,,,,,,,,
,,65b571deec1559505fc20ac3,2024-02-22_24h23.13.045,kallum_motion_pilot,2023.2.2,Win32,62.5,65b571deec1559505fc20ac3,65d6bb0e977760de756971f7,65d6bddc959263ac036fb569,0.042,0.042,0,123,123,58,1,twoone,,,,,,,,,,,,,,,,,,,,,,,,,,,,,,,,,,,,,,,,,,,,,,,,,,,,,,,,,,,,,,,,,,,,,,,,,,,,,,,,,,,,,,,,,,,,,,,,,,,,,,,,,,,,,,,,,,,,,,,,,,,,,,,,,,,,,,,,,
,,65b571deec1559505fc20ac3,2024-02-22_24h23.13.045,kallum_motion_pilot,2023.2.2,Win32,62.5,65b571deec1559505fc20ac3,65d6bb0e977760de756971f7,65d6bddc959263ac036fb569,0.042,0.042,0,124,124,126,1,eightsix,,,,,,,,,,,,,,,,,,,,,,,,,,,,,,,,,,,,,,,,,,,,,,,,,,,,,,,,,,,,,,,,,,,,,,,,,,,,,,,,,,,,,,,,,,,,,,,,,,,,,,,,,,,,,,,,,,,,,,,,,,,,,,,,,,,,,,,,,
,,65b571deec1559505fc20ac3,2024-02-22_24h23.13.045,kallum_motion_pilot,2023.2.2,Win32,62.5,65b571deec1559505fc20ac3,65d6bb0e977760de756971f7,65d6bddc959263ac036fb569,0.042,0.042,0,125,125,44,1,threeone,,,,,,,,,,,,,,,,,,,,,,,,,,,,,,,,,,,,,,,,,,,,,,,,,,,,,,,,,,,,,,,,,,,,,,,,,,,,,,,,,,,,,,,,,,,,,,,,,,,,,,,,,,,,,,,,,,,,,,,,,,,,,,,,,,,,,,,,,
,,65b571deec1559505fc20ac3,2024-02-22_24h23.13.045,kallum_motion_pilot,2023.2.2,Win32,62.5,65b571deec1559505fc20ac3,65d6bb0e977760de756971f7,65d6bddc959263ac036fb569,0.042,0.042,0,126,126,138,1,sixfive,,,,,,,,,,,,,,,,,,,,,,,,,,,,,,,,,,,,,,,,,,,,,,,,,,,,,,,,,,,,,,,,,,,,,,,,,,,,,,,,,,,,,,,,,,,,,,,,,,,,,,,,,,,,,,,,,,,,,,,,,,,,,,,,,,,,,,,,,
,,65b571deec1559505fc20ac3,2024-02-22_24h23.13.045,kallum_motion_pilot,2023.2.2,Win32,62.5,65b571deec1559505fc20ac3,65d6bb0e977760de756971f7,65d6bddc959263ac036fb569,0.042,0.042,0,127,127,31,1,fourthree,,,,,,,,,,,,,,,,,,,,,,,,,,,,,,,,,,,,,,,,,,,,,,,,,,,,,,,,,,,,,,,,,,,,,,,,,,,,,,,,,,,,,,,,,,,,,,,,,,,,,,,,,,,,,,,,,,,,,,,,,,,,,,,,,,,,,,,,,
,,65b571deec1559505fc20ac3,2024-02-22_24h23.13.045,kallum_motion_pilot,2023.2.2,Win32,62.5,65b571deec1559505fc20ac3,65d6bb0e977760de756971f7,65d6bddc959263ac036fb569,0.043,0.043,0,128,128,79,1,eightseven,,,,,,,,,,,,,,,,,,,,,,,,,,,,,,,,,,,,,,,,,,,,,,,,,,,,,,,,,,,,,,,,,,,,,,,,,,,,,,,,,,,,,,,,,,,,,,,,,,,,,,,,,,,,,,,,,,,,,,,,,,,,,,,,,,,,,,,,,
,,65b571deec1559505fc20ac3,2024-02-22_24h23.13.045,kallum_motion_pilot,2023.2.2,Win32,62.5,65b571deec1559505fc20ac3,65d6bb0e977760de756971f7,65d6bddc959263ac036fb569,0.043,0.043,0,129,129,71,1,fourthree,,,,,,,,,,,,,,,,,,,,,,,,,,,,,,,,,,,,,,,,,,,,,,,,,,,,,,,,,,,,,,,,,,,,,,,,,,,,,,,,,,,,,,,,,,,,,,,,,,,,,,,,,,,,,,,,,,,,,,,,,,,,,,,,,,,,,,,,,
,,65b571deec1559505fc20ac3,2024-02-22_24h23.13.045,kallum_motion_pilot,2023.2.2,Win32,62.5,65b571deec1559505fc20ac3,65d6bb0e977760de756971f7,65d6bddc959263ac036fb569,0.043,0.043,0,130,130,45,1,threefour,,,,,,,,,,,,,,,,,,,,,,,,,,,,,,,,,,,,,,,,,,,,,,,,,,,,,,,,,,,,,,,,,,,,,,,,,,,,,,,,,,,,,,,,,,,,,,,,,,,,,,,,,,,,,,,,,,,,,,,,,,,,,,,,,,,,,,,,,
,,65b571deec1559505fc20ac3,2024-02-22_24h23.13.045,kallum_motion_pilot,2023.2.2,Win32,62.5,65b571deec1559505fc20ac3,65d6bb0e977760de756971f7,65d6bddc959263ac036fb569,0.043,0.043,0,131,131,10,1,twoone,,,,,,,,,,,,,,,,,,,,,,,,,,,,,,,,,,,,,,,,,,,,,,,,,,,,,,,,,,,,,,,,,,,,,,,,,,,,,,,,,,,,,,,,,,,,,,,,,,,,,,,,,,,,,,,,,,,,,,,,,,,,,,,,,,,,,,,,,
,,65b571deec1559505fc20ac3,2024-02-22_24h23.13.045,kallum_motion_pilot,2023.2.2,Win32,62.5,65b571deec1559505fc20ac3,65d6bb0e977760de756971f7,65d6bddc959263ac036fb569,0.043,0.043,0,132,132,8,1,onetwo,,,,,,,,,,,,,,,,,,,,,,,,,,,,,,,,,,,,,,,,,,,,,,,,,,,,,,,,,,,,,,,,,,,,,,,,,,,,,,,,,,,,,,,,,,,,,,,,,,,,,,,,,,,,,,,,,,,,,,,,,,,,,,,,,,,,,,,,,
,,65b571deec1559505fc20ac3,2024-02-22_24h23.13.045,kallum_motion_pilot,2023.2.2,Win32,62.5,65b571deec1559505fc20ac3,65d6bb0e977760de756971f7,65d6bddc959263ac036fb569,0.043,0.043,0,133,133,89,1,fiveseven,,,,,,,,,,,,,,,,,,,,,,,,,,,,,,,,,,,,,,,,,,,,,,,,,,,,,,,,,,,,,,,,,,,,,,,,,,,,,,,,,,,,,,,,,,,,,,,,,,,,,,,,,,,,,,,,,,,,,,,,,,,,,,,,,,,,,,,,,
,,65b571deec1559505fc20ac3,2024-02-22_24h23.13.045,kallum_motion_pilot,2023.2.2,Win32,62.5,65b571deec1559505fc20ac3,65d6bb0e977760de756971f7,65d6bddc959263ac036fb569,0.043,0.044,0,134,134,11,1,twofour,,,,,,,,,,,,,,,,,,,,,,,,,,,,,,,,,,,,,,,,,,,,,,,,,,,,,,,,,,,,,,,,,,,,,,,,,,,,,,,,,,,,,,,,,,,,,,,,,,,,,,,,,,,,,,,,,,,,,,,,,,,,,,,,,,,,,,,,,
,,65b571deec1559505fc20ac3,2024-02-22_24h23.13.045,kallum_motion_pilot,2023.2.2,Win32,62.5,65b571deec1559505fc20ac3,65d6bb0e977760de756971f7,65d6bddc959263ac036fb569,0.044,0.044,0,135,135,43,1,twofour,,,,,,,,,,,,,,,,,,,,,,,,,,,,,,,,,,,,,,,,,,,,,,,,,,,,,,,,,,,,,,,,,,,,,,,,,,,,,,,,,,,,,,,,,,,,,,,,,,,,,,,,,,,,,,,,,,,,,,,,,,,,,,,,,,,,,,,,,
,,65b571deec1559505fc20ac3,2024-02-22_24h23.13.045,kallum_motion_pilot,2023.2.2,Win32,62.5,65b571deec1559505fc20ac3,65d6bb0e977760de756971f7,65d6bddc959263ac036fb569,0.044,0.044,0,136,136,105,1,fiveseven,,,,,,,,,,,,,,,,,,,,,,,,,,,,,,,,,,,,,,,,,,,,,,,,,,,,,,,,,,,,,,,,,,,,,,,,,,,,,,,,,,,,,,,,,,,,,,,,,,,,,,,,,,,,,,,,,,,,,,,,,,,,,,,,,,,,,,,,,
,,65b571deec1559505fc20ac3,2024-02-22_24h23.13.045,kallum_motion_pilot,2023.2.2,Win32,62.5,65b571deec1559505fc20ac3,65d6bb0e977760de756971f7,65d6bddc959263ac036fb569,0.044,0.044,0,137,137,113,1,fiveseven,,,,,,,,,,,,,,,,,,,,,,,,,,,,,,,,,,,,,,,,,,,,,,,,,,,,,,,,,,,,,,,,,,,,,,,,,,,,,,,,,,,,,,,,,,,,,,,,,,,,,,,,,,,,,,,,,,,,,,,,,,,,,,,,,,,,,,,,,
,,65b571deec1559505fc20ac3,2024-02-22_24h23.13.045,kallum_motion_pilot,2023.2.2,Win32,62.5,65b571deec1559505fc20ac3,65d6bb0e977760de756971f7,65d6bddc959263ac036fb569,0.044,0.044,0,138,138,80,1,fivesix,,,,,,,,,,,,,,,,,,,,,,,,,,,,,,,,,,,,,,,,,,,,,,,,,,,,,,,,,,,,,,,,,,,,,,,,,,,,,,,,,,,,,,,,,,,,,,,,,,,,,,,,,,,,,,,,,,,,,,,,,,,,,,,,,,,,,,,,,
,,65b571deec1559505fc20ac3,2024-02-22_24h23.13.045,kallum_motion_pilot,2023.2.2,Win32,62.5,65b571deec1559505fc20ac3,65d6bb0e977760de756971f7,65d6bddc959263ac036fb569,0.044,0.044,0,139,139,4,1,threeone,,,,,,,,,,,,,,,,,,,,,,,,,,,,,,,,,,,,,,,,,,,,,,,,,,,,,,,,,,,,,,,,,,,,,,,,,,,,,,,,,,,,,,,,,,,,,,,,,,,,,,,,,,,,,,,,,,,,,,,,,,,,,,,,,,,,,,,,,
,,65b571deec1559505fc20ac3,2024-02-22_24h23.13.045,kallum_motion_pilot,2023.2.2,Win32,62.5,65b571deec1559505fc20ac3,65d6bb0e977760de756971f7,65d6bddc959263ac036fb569,0.044,0.044,0,140,140,66,1,twoone,,,,,,,,,,,,,,,,,,,,,,,,,,,,,,,,,,,,,,,,,,,,,,,,,,,,,,,,,,,,,,,,,,,,,,,,,,,,,,,,,,,,,,,,,,,,,,,,,,,,,,,,,,,,,,,,,,,,,,,,,,,,,,,,,,,,,,,,,
,,65b571deec1559505fc20ac3,2024-02-22_24h23.13.045,kallum_motion_pilot,2023.2.2,Win32,62.5,65b571deec1559505fc20ac3,65d6bb0e977760de756971f7,65d6bddc959263ac036fb569,0.044,0.044,0,141,141,133,1,seveneight,,,,,,,,,,,,,,,,,,,,,,,,,,,,,,,,,,,,,,,,,,,,,,,,,,,,,,,,,,,,,,,,,,,,,,,,,,,,,,,,,,,,,,,,,,,,,,,,,,,,,,,,,,,,,,,,,,,,,,,,,,,,,,,,,,,,,,,,,
,,65b571deec1559505fc20ac3,2024-02-22_24h23.13.045,kallum_motion_pilot,2023.2.2,Win32,62.5,65b571deec1559505fc20ac3,65d6bb0e977760de756971f7,65d6bddc959263ac036fb569,0.044,0.044,0,142,142,92,1,sevenfive,,,,,,,,,,,,,,,,,,,,,,,,,,,,,,,,,,,,,,,,,,,,,,,,,,,,,,,,,,,,,,,,,,,,,,,,,,,,,,,,,,,,,,,,,,,,,,,,,,,,,,,,,,,,,,,,,,,,,,,,,,,,,,,,,,,,,,,,,
,,65b571deec1559505fc20ac3,2024-02-22_24h23.13.045,kallum_motion_pilot,2023.2.2,Win32,62.5,65b571deec1559505fc20ac3,65d6bb0e977760de756971f7,65d6bddc959263ac036fb569,0.044,0.044,0,143,143,97,1,fiveseven,,,,,,,,,,,,,,,,,,,,,,,,,,,,,,,,,,,,,,,,,,,,,,,,,,,,,,,,,,,,,,,,,,,,,,,,,,,,,,,,,,,,,,,,,,,,,,,,,,,,,,,,,,,,,,,,,,,,,,,,,,,,,,,,,,,,,,,,,
,,65b571deec1559505fc20ac3,2024-02-22_24h23.13.045,kallum_motion_pilot,2023.2.2,Win32,62.5,65b571deec1559505fc20ac3,65d6bb0e977760de756971f7,65d6bddc959263ac036fb569,0.045,0.045,0,144,144,36,1,threeone,,,,,,,,,,,,,,,,,,,,,,,,,,,,,,,,,,,,,,,,,,,,,,,,,,,,,,,,,,,,,,,,,,,,,,,,,,,,,,,,,,,,,,,,,,,,,,,,,,,,,,,,,,,,,,,,,,,,,,,,,,,,,,,,,,,,,,,,,
,,65b571deec1559505fc20ac3,2024-02-22_24h23.13.045,kallum_motion_pilot,2023.2.2,Win32,62.5,65b571deec1559505fc20ac3,65d6bb0e977760de756971f7,65d6bddc959263ac036fb569,0.045,0.045,0,145,145,153,1,fiveseven,,,,,,,,,,,,,,,,,,,,,,,,,,,,,,,,,,,,,,,,,,,,,,,,,,,,,,,,,,,,,,,,,,,,,,,,,,,,,,,,,,,,,,,,,,,,,,,,,,,,,,,,,,,,,,,,,,,,,,,,,,,,,,,,,,,,,,,,,
,,65b571deec1559505fc20ac3,2024-02-22_24h23.13.045,kallum_motion_pilot,2023.2.2,Win32,62.5,65b571deec1559505fc20ac3,65d6bb0e977760de756971f7,65d6bddc959263ac036fb569,0.045,0.045,0,146,146,16,1,onetwo,,,,,,,,,,,,,,,,,,,,,,,,,,,,,,,,,,,,,,,,,,,,,,,,,,,,,,,,,,,,,,,,,,,,,,,,,,,,,,,,,,,,,,,,,,,,,,,,,,,,,,,,,,,,,,,,,,,,,,,,,,,,,,,,,,,,,,,,,
,,65b571deec1559505fc20ac3,2024-02-22_24h23.13.045,kallum_motion_pilot,2023.2.2,Win32,62.5,65b571deec1559505fc20ac3,65d6bb0e977760de756971f7,65d6bddc959263ac036fb569,0.045,0.045,0,147,147,85,1,seveneight,,,,,,,,,,,,,,,,,,,,,,,,,,,,,,,,,,,,,,,,,,,,,,,,,,,,,,,,,,,,,,,,,,,,,,,,,,,,,,,,,,,,,,,,,,,,,,,,,,,,,,,,,,,,,,,,,,,,,,,,,,,,,,,,,,,,,,,,,
,,65b571deec1559505fc20ac3,2024-02-22_24h23.13.045,kallum_motion_pilot,2023.2.2,Win32,62.5,65b571deec1559505fc20ac3,65d6bb0e977760de756971f7,65d6bddc959263ac036fb569,0.045,0.045,0,148,148,119,1,eightseven,,,,,,,,,,,,,,,,,,,,,,,,,,,,,,,,,,,,,,,,,,,,,,,,,,,,,,,,,,,,,,,,,,,,,,,,,,,,,,,,,,,,,,,,,,,,,,,,,,,,,,,,,,,,,,,,,,,,,,,,,,,,,,,,,,,,,,,,,
,,65b571deec1559505fc20ac3,2024-02-22_24h23.13.045,kallum_motion_pilot,2023.2.2,Win32,62.5,65b571deec1559505fc20ac3,65d6bb0e977760de756971f7,65d6bddc959263ac036fb569,0.045,0.046,0,149,149,156,1,sevenfive,,,,,,,,,,,,,,,,,,,,,,,,,,,,,,,,,,,,,,,,,,,,,,,,,,,,,,,,,,,,,,,,,,,,,,,,,,,,,,,,,,,,,,,,,,,,,,,,,,,,,,,,,,,,,,,,,,,,,,,,,,,,,,,,,,,,,,,,,
,,65b571deec1559505fc20ac3,2024-02-22_24h23.13.045,kallum_motion_pilot,2023.2.2,Win32,62.5,65b571deec1559505fc20ac3,65d6bb0e977760de756971f7,65d6bddc959263ac036fb569,0.046,0.046,0,150,150,128,1,fivesix,,,,,,,,,,,,,,,,,,,,,,,,,,,,,,,,,,,,,,,,,,,,,,,,,,,,,,,,,,,,,,,,,,,,,,,,,,,,,,,,,,,,,,,,,,,,,,,,,,,,,,,,,,,,,,,,,,,,,,,,,,,,,,,,,,,,,,,,,
,,65b571deec1559505fc20ac3,2024-02-22_24h23.13.045,kallum_motion_pilot,2023.2.2,Win32,62.5,65b571deec1559505fc20ac3,65d6bb0e977760de756971f7,65d6bddc959263ac036fb569,0.046,0.046,0,151,151,161,1,fiveseven,,,,,,,,,,,,,,,,,,,,,,,,,,,,,,,,,,,,,,,,,,,,,,,,,,,,,,,,,,,,,,,,,,,,,,,,,,,,,,,,,,,,,,,,,,,,,,,,,,,,,,,,,,,,,,,,,,,,,,,,,,,,,,,,,,,,,,,,,
,,65b571deec1559505fc20ac3,2024-02-22_24h23.13.045,kallum_motion_pilot,2023.2.2,Win32,62.5,65b571deec1559505fc20ac3,65d6bb0e977760de756971f7,65d6bddc959263ac036fb569,0.046,0.046,0,152,152,155,1,sixeight,,,,,,,,,,,,,,,,,,,,,,,,,,,,,,,,,,,,,,,,,,,,,,,,,,,,,,,,,,,,,,,,,,,,,,,,,,,,,,,,,,,,,,,,,,,,,,,,,,,,,,,,,,,,,,,,,,,,,,,,,,,,,,,,,,,,,,,,,
,,65b571deec1559505fc20ac3,2024-02-22_24h23.13.045,kallum_motion_pilot,2023.2.2,Win32,62.5,65b571deec1559505fc20ac3,65d6bb0e977760de756971f7,65d6bddc959263ac036fb569,0.046,0.046,0,153,153,106,1,sixfive,,,,,,,,,,,,,,,,,,,,,,,,,,,,,,,,,,,,,,,,,,,,,,,,,,,,,,,,,,,,,,,,,,,,,,,,,,,,,,,,,,,,,,,,,,,,,,,,,,,,,,,,,,,,,,,,,,,,,,,,,,,,,,,,,,,,,,,,,
,,65b571deec1559505fc20ac3,2024-02-22_24h23.13.045,kallum_motion_pilot,2023.2.2,Win32,62.5,65b571deec1559505fc20ac3,65d6bb0e977760de756971f7,65d6bddc959263ac036fb569,0.046,0.046,0,154,154,121,1,fiveseven,,,,,,,,,,,,,,,,,,,,,,,,,,,,,,,,,,,,,,,,,,,,,,,,,,,,,,,,,,,,,,,,,,,,,,,,,,,,,,,,,,,,,,,,,,,,,,,,,,,,,,,,,,,,,,,,,,,,,,,,,,,,,,,,,,,,,,,,,
,,65b571deec1559505fc20ac3,2024-02-22_24h23.13.045,kallum_motion_pilot,2023.2.2,Win32,62.5,65b571deec1559505fc20ac3,65d6bb0e977760de756971f7,65d6bddc959263ac036fb569,0.047,0.047,0,155,155,50,1,twoone,,,,,,,,,,,,,,,,,,,,,,,,,,,,,,,,,,,,,,,,,,,,,,,,,,,,,,,,,,,,,,,,,,,,,,,,,,,,,,,,,,,,,,,,,,,,,,,,,,,,,,,,,,,,,,,,,,,,,,,,,,,,,,,,,,,,,,,,,
,,65b571deec1559505fc20ac3,2024-02-22_24h23.13.045,kallum_motion_pilot,2023.2.2,Win32,62.5,65b571deec1559505fc20ac3,65d6bb0e977760de756971f7,65d6bddc959263ac036fb569,0.047,0.047,0,156,156,96,1,fivesix,,,,,,,,,,,,,,,,,,,,,,,,,,,,,,,,,,,,,,,,,,,,,,,,,,,,,,,,,,,,,,,,,,,,,,,,,,,,,,,,,,,,,,,,,,,,,,,,,,,,,,,,,,,,,,,,,,,,,,,,,,,,,,,,,,,,,,,,,
,,65b571deec1559505fc20ac3,2024-02-22_24h23.13.045,kallum_motion_pilot,2023.2.2,Win32,62.5,65b571deec1559505fc20ac3,65d6bb0e977760de756971f7,65d6bddc959263ac036fb569,0.047,0.047,0,157,157,145,1,fiveseven,,,,,,,,,,,,,,,,,,,,,,,,,,,,,,,,,,,,,,,,,,,,,,,,,,,,,,,,,,,,,,,,,,,,,,,,,,,,,,,,,,,,,,,,,,,,,,,,,,,,,,,,,,,,,,,,,,,,,,,,,,,,,,,,,,,,,,,,,
,,65b571deec1559505fc20ac3,2024-02-22_24h23.13.045,kallum_motion_pilot,2023.2.2,Win32,62.5,65b571deec1559505fc20ac3,65d6bb0e977760de756971f7,65d6bddc959263ac036fb569,0.047,0.047,0,158,158,144,1,fivesix,,,,,,,,,,,,,,,,,,,,,,,,,,,,,,,,,,,,,,,,,,,,,,,,,,,,,,,,,,,,,,,,,,,,,,,,,,,,,,,,,,,,,,,,,,,,,,,,,,,,,,,,,,,,,,,,,,,,,,,,,,,,,,,,,,,,,,,,,
,,65b571deec1559505fc20ac3,2024-02-22_24h23.13.045,kallum_motion_pilot,2023.2.2,Win32,62.5,65b571deec1559505fc20ac3,65d6bb0e977760de756971f7,65d6bddc959263ac036fb569,0.047,0.047,0,159,159,49,1,onethree,,,,,,,,,,,,,,,,,,,,,,,,,,,,,,,,,,,,,,,,,,,,,,,,,,,,,,,,,,,,,,,,,,,,,,,,,,,,,,,,,,,,,,,,,,,,,,,,,,,,,,,,,,,,,,,,,,,,,,,,,,,,,,,,,,,,,,,,,
,,65b571deec1559505fc20ac3,2024-02-22_24h23.13.045,kallum_motion_pilot,2023.2.2,Win32,62.5,65b571deec1559505fc20ac3,65d6bb0e977760de756971f7,65d6bddc959263ac036fb569,0.047,0.047,0,160,160,39,1,fourthree,,,,,,,,,,,,,,,,,,,,,,,,,,,,,,,,,,,,,,,,,,,,,,,,,,,,,,,,,,,,,,,,,,,,,,,,,,,,,,,,,,,,,,,,,,,,,,,,,,,,,,,,,,,,,,,,,,,,,,,,,,,,,,,,,,,,,,,,,
,,65b571deec1559505fc20ac3,2024-02-22_24h23.13.045,kallum_motion_pilot,2023.2.2,Win32,62.5,65b571deec1559505fc20ac3,65d6bb0e977760de756971f7,65d6bddc959263ac036fb569,0.047,0.047,0,161,161,47,1,fourthree,,,,,,,,,,,,,,,,,,,,,,,,,,,,,,,,,,,,,,,,,,,,,,,,,,,,,,,,,,,,,,,,,,,,,,,,,,,,,,,,,,,,,,,,,,,,,,,,,,,,,,,,,,,,,,,,,,,,,,,,,,,,,,,,,,,,,,,,,
,,65b571deec1559505fc20ac3,2024-02-22_24h23.13.045,kallum_motion_pilot,2023.2.2,Win32,62.5,65b571deec1559505fc20ac3,65d6bb0e977760de756971f7,65d6bddc959263ac036fb569,0.047,0.047,1,0,162,113,1,fiveseven,,,,,,,,,,,,,,,,,,,,,,,,,,,,,,,,,,,,,,,,,,,,,,,,,,,,,,,,,,,,,,,,,,,,,,,,,,,,,,,,,,,,,,,,,,,,,,,,,,,,,,,,,,,,,,,,,,,,,,,,,,,,,,,,,,,,,,,,,
,,65b571deec1559505fc20ac3,2024-02-22_24h23.13.045,kallum_motion_pilot,2023.2.2,Win32,62.5,65b571deec1559505fc20ac3,65d6bb0e977760de756971f7,65d6bddc959263ac036fb569,0.047,0.047,1,1,163,114,1,sixfive,,,,,,,,,,,,,,,,,,,,,,,,,,,,,,,,,,,,,,,,,,,,,,,,,,,,,,,,,,,,,,,,,,,,,,,,,,,,,,,,,,,,,,,,,,,,,,,,,,,,,,,,,,,,,,,,,,,,,,,,,,,,,,,,,,,,,,,,,
,,65b571deec1559505fc20ac3,2024-02-22_24h23.13.045,kallum_motion_pilot,2023.2.2,Win32,62.5,65b571deec1559505fc20ac3,65d6bb0e977760de756971f7,65d6bddc959263ac036fb569,0.047,0.047,1,2,164,86,1,eightsix,,,,,,,,,,,,,,,,,,,,,,,,,,,,,,,,,,,,,,,,,,,,,,,,,,,,,,,,,,,,,,,,,,,,,,,,,,,,,,,,,,,,,,,,,,,,,,,,,,,,,,,,,,,,,,,,,,,,,,,,,,,,,,,,,,,,,,,,,
,,65b571deec1559505fc20ac3,2024-02-22_24h23.13.045,kallum_motion_pilot,2023.2.2,Win32,62.5,65b571deec1559505fc20ac3,65d6bb0e977760de756971f7,65d6bddc959263ac036fb569,0.047,0.047,1,3,165,125,1,seveneight,,,,,,,,,,,,,,,,,,,,,,,,,,,,,,,,,,,,,,,,,,,,,,,,,,,,,,,,,,,,,,,,,,,,,,,,,,,,,,,,,,,,,,,,,,,,,,,,,,,,,,,,,,,,,,,,,,,,,,,,,,,,,,,,,,,,,,,,,
,,65b571deec1559505fc20ac3,2024-02-22_24h23.13.045,kallum_motion_pilot,2023.2.2,Win32,62.5,65b571deec1559505fc20ac3,65d6bb0e977760de756971f7,65d6bddc959263ac036fb569,0.047,0.047,1,4,166,133,1,seveneight,,,,,,,,,,,,,,,,,,,,,,,,,,,,,,,,,,,,,,,,,,,,,,,,,,,,,,,,,,,,,,,,,,,,,,,,,,,,,,,,,,,,,,,,,,,,,,,,,,,,,,,,,,,,,,,,,,,,,,,,,,,,,,,,,,,,,,,,,
,,65b571deec1559505fc20ac3,2024-02-22_24h23.13.045,kallum_motion_pilot,2023.2.2,Win32,62.5,65b571deec1559505fc20ac3,65d6bb0e977760de756971f7,65d6bddc959263ac036fb569,0.047,0.047,1,5,167,145,1,fiveseven,,,,,,,,,,,,,,,,,,,,,,,,,,,,,,,,,,,,,,,,,,,,,,,,,,,,,,,,,,,,,,,,,,,,,,,,,,,,,,,,,,,,,,,,,,,,,,,,,,,,,,,,,,,,,,,,,,,,,,,,,,,,,,,,,,,,,,,,,
,,65b571deec1559505fc20ac3,2024-02-22_24h23.13.045,kallum_motion_pilot,2023.2.2,Win32,62.5,65b571deec1559505fc20ac3,65d6bb0e977760de756971f7,65d6bddc959263ac036fb569,0.047,0.047,1,6,168,139,1,sixeight,,,,,,,,,,,,,,,,,,,,,,,,,,,,,,,,,,,,,,,,,,,,,,,,,,,,,,,,,,,,,,,,,,,,,,,,,,,,,,,,,,,,,,,,,,,,,,,,,,,,,,,,,,,,,,,,,,,,,,,,,,,,,,,,,,,,,,,,,
,,65b571deec1559505fc20ac3,2024-02-22_24h23.13.045,kallum_motion_pilot,2023.2.2,Win32,62.5,65b571deec1559505fc20ac3,65d6bb0e977760de756971f7,65d6bddc959263ac036fb569,0.048,0.048,1,7,169,50,1,twoone,,,,,,,,,,,,,,,,,,,,,,,,,,,,,,,,,,,,,,,,,,,,,,,,,,,,,,,,,,,,,,,,,,,,,,,,,,,,,,,,,,,,,,,,,,,,,,,,,,,,,,,,,,,,,,,,,,,,,,,,,,,,,,,,,,,,,,,,,
,,65b571deec1559505fc20ac3,2024-02-22_24h23.13.045,kallum_motion_pilot,2023.2.2,Win32,62.5,65b571deec1559505fc20ac3,65d6bb0e977760de756971f7,65d6bddc959263ac036fb569,0.048,0.048,1,8,170,59,1,twofour,,,,,,,,,,,,,,,,,,,,,,,,,,,,,,,,,,,,,,,,,,,,,,,,,,,,,,,,,,,,,,,,,,,,,,,,,,,,,,,,,,,,,,,,,,,,,,,,,,,,,,,,,,,,,,,,,,,,,,,,,,,,,,,,,,,,,,,,,
,,65b571deec1559505fc20ac3,2024-02-22_24h23.13.045,kallum_motion_pilot,2023.2.2,Win32,62.5,65b571deec1559505fc20ac3,65d6bb0e977760de756971f7,65d6bddc959263ac036fb569,0.048,0.049,1,9,171,101,1,seveneight,,,,,,,,,,,,,,,,,,,,,,,,,,,,,,,,,,,,,,,,,,,,,,,,,,,,,,,,,,,,,,,,,,,,,,,,,,,,,,,,,,,,,,,,,,,,,,,,,,,,,,,,,,,,,,,,,,,,,,,,,,,,,,,,,,,,,,,,,
,,65b571deec1559505fc20ac3,2024-02-22_24h23.13.045,kallum_motion_pilot,2023.2.2,Win32,62.5,65b571deec1559505fc20ac3,65d6bb0e977760de756971f7,65d6bddc959263ac036fb569,0.049,0.049,1,10,172,91,1,sixeight,,,,,,,,,,,,,,,,,,,,,,,,,,,,,,,,,,,,,,,,,,,,,,,,,,,,,,,,,,,,,,,,,,,,,,,,,,,,,,,,,,,,,,,,,,,,,,,,,,,,,,,,,,,,,,,,,,,,,,,,,,,,,,,,,,,,,,,,,
,,65b571deec1559505fc20ac3,2024-02-22_24h23.13.045,kallum_motion_pilot,2023.2.2,Win32,62.5,65b571deec1559505fc20ac3,65d6bb0e977760de756971f7,65d6bddc959263ac036fb569,0.049,0.049,1,11,173,96,1,fivesix,,,,,,,,,,,,,,,,,,,,,,,,,,,,,,,,,,,,,,,,,,,,,,,,,,,,,,,,,,,,,,,,,,,,,,,,,,,,,,,,,,,,,,,,,,,,,,,,,,,,,,,,,,,,,,,,,,,,,,,,,,,,,,,,,,,,,,,,,
,,65b571deec1559505fc20ac3,2024-02-22_24h23.13.045,kallum_motion_pilot,2023.2.2,Win32,62.5,65b571deec1559505fc20ac3,65d6bb0e977760de756971f7,65d6bddc959263ac036fb569,0.049,0.049,1,12,174,78,1,fourtwo,,,,,,,,,,,,,,,,,,,,,,,,,,,,,,,,,,,,,,,,,,,,,,,,,,,,,,,,,,,,,,,,,,,,,,,,,,,,,,,,,,,,,,,,,,,,,,,,,,,,,,,,,,,,,,,,,,,,,,,,,,,,,,,,,,,,,,,,,
,,65b571deec1559505fc20ac3,2024-02-22_24h23.13.045,kallum_motion_pilot,2023.2.2,Win32,62.5,65b571deec1559505fc20ac3,65d6bb0e977760de756971f7,65d6bddc959263ac036fb569,0.049,0.049,1,13,175,28,1,threeone,,,,,,,,,,,,,,,,,,,,,,,,,,,,,,,,,,,,,,,,,,,,,,,,,,,,,,,,,,,,,,,,,,,,,,,,,,,,,,,,,,,,,,,,,,,,,,,,,,,,,,,,,,,,,,,,,,,,,,,,,,,,,,,,,,,,,,,,,
,,65b571deec1559505fc20ac3,2024-02-22_24h23.13.045,kallum_motion_pilot,2023.2.2,Win32,62.5,65b571deec1559505fc20ac3,65d6bb0e977760de756971f7,65d6bddc959263ac036fb569,0.049,0.049,1,14,176,159,1,eightseven,,,,,,,,,,,,,,,,,,,,,,,,,,,,,,,,,,,,,,,,,,,,,,,,,,,,,,,,,,,,,,,,,,,,,,,,,,,,,,,,,,,,,,,,,,,,,,,,,,,,,,,,,,,,,,,,,,,,,,,,,,,,,,,,,,,,,,,,,
,,65b571deec1559505fc20ac3,2024-02-22_24h23.13.045,kallum_motion_pilot,2023.2.2,Win32,62.5,65b571deec1559505fc20ac3,65d6bb0e977760de756971f7,65d6bddc959263ac036fb569,0.049,0.049,1,15,177,116,1,sevenfive,,,,,,,,,,,,,,,,,,,,,,,,,,,,,,,,,,,,,,,,,,,,,,,,,,,,,,,,,,,,,,,,,,,,,,,,,,,,,,,,,,,,,,,,,,,,,,,,,,,,,,,,,,,,,,,,,,,,,,,,,,,,,,,,,,,,,,,,,
,,65b571deec1559505fc20ac3,2024-02-22_24h23.13.045,kallum_motion_pilot,2023.2.2,Win32,62.5,65b571deec1559505fc20ac3,65d6bb0e977760de756971f7,65d6bddc959263ac036fb569,0.05,0.05,1,16,178,23,1,fourthree,,,,,,,,,,,,,,,,,,,,,,,,,,,,,,,,,,,,,,,,,,,,,,,,,,,,,,,,,,,,,,,,,,,,,,,,,,,,,,,,,,,,,,,,,,,,,,,,,,,,,,,,,,,,,,,,,,,,,,,,,,,,,,,,,,,,,,,,,
,,65b571deec1559505fc20ac3,2024-02-22_24h23.13.045,kallum_motion_pilot,2023.2.2,Win32,62.5,65b571deec1559505fc20ac3,65d6bb0e977760de756971f7,65d6bddc959263ac036fb569,0.05,0.05,1,17,179,111,1,eightseven,,,,,,,,,,,,,,,,,,,,,,,,,,,,,,,,,,,,,,,,,,,,,,,,,,,,,,,,,,,,,,,,,,,,,,,,,,,,,,,,,,,,,,,,,,,,,,,,,,,,,,,,,,,,,,,,,,,,,,,,,,,,,,,,,,,,,,,,,
,,65b571deec1559505fc20ac3,2024-02-22_24h23.13.045,kallum_motion_pilot,2023.2.2,Win32,62.5,65b571deec1559505fc20ac3,65d6bb0e977760de756971f7,65d6bddc959263ac036fb569,0.05,0.05,1,18,180,33,1,onethree,,,,,,,,,,,,,,,,,,,,,,,,,,,,,,,,,,,,,,,,,,,,,,,,,,,,,,,,,,,,,,,,,,,,,,,,,,,,,,,,,,,,,,,,,,,,,,,,,,,,,,,,,,,,,,,,,,,,,,,,,,,,,,,,,,,,,,,,,
,,65b571deec1559505fc20ac3,2024-02-22_24h23.13.045,kallum_motion_pilot,2023.2.2,Win32,62.5,65b571deec1559505fc20ac3,65d6bb0e977760de756971f7,65d6bddc959263ac036fb569,0.05,0.05,1,19,181,13,1,threefour,,,,,,,,,,,,,,,,,,,,,,,,,,,,,,,,,,,,,,,,,,,,,,,,,,,,,,,,,,,,,,,,,,,,,,,,,,,,,,,,,,,,,,,,,,,,,,,,,,,,,,,,,,,,,,,,,,,,,,,,,,,,,,,,,,,,,,,,,
,,65b571deec1559505fc20ac3,2024-02-22_24h23.13.045,kallum_motion_pilot,2023.2.2,Win32,62.5,65b571deec1559505fc20ac3,65d6bb0e977760de756971f7,65d6bddc959263ac036fb569,0.05,0.05,1,20,182,14,1,fourtwo,,,,,,,,,,,,,,,,,,,,,,,,,,,,,,,,,,,,,,,,,,,,,,,,,,,,,,,,,,,,,,,,,,,,,,,,,,,,,,,,,,,,,,,,,,,,,,,,,,,,,,,,,,,,,,,,,,,,,,,,,,,,,,,,,,,,,,,,,
,,65b571deec1559505fc20ac3,2024-02-22_24h23.13.045,kallum_motion_pilot,2023.2.2,Win32,62.5,65b571deec1559505fc20ac3,65d6bb0e977760de756971f7,65d6bddc959263ac036fb569,0.05,0.05,1,21,183,105,1,fiveseven,,,,,,,,,,,,,,,,,,,,,,,,,,,,,,,,,,,,,,,,,,,,,,,,,,,,,,,,,,,,,,,,,,,,,,,,,,,,,,,,,,,,,,,,,,,,,,,,,,,,,,,,,,,,,,,,,,,,,,,,,,,,,,,,,,,,,,,,,
,,65b571deec1559505fc20ac3,2024-02-22_24h23.13.045,kallum_motion_pilot,2023.2.2,Win32,62.5,65b571deec1559505fc20ac3,65d6bb0e977760de756971f7,65d6bddc959263ac036fb569,0.05,0.05,1,22,184,90,1,sixfive,,,,,,,,,,,,,,,,,,,,,,,,,,,,,,,,,,,,,,,,,,,,,,,,,,,,,,,,,,,,,,,,,,,,,,,,,,,,,,,,,,,,,,,,,,,,,,,,,,,,,,,,,,,,,,,,,,,,,,,,,,,,,,,,,,,,,,,,,
,,65b571deec1559505fc20ac3,2024-02-22_24h23.13.045,kallum_motion_pilot,2023.2.2,Win32,62.5,65b571deec1559505fc20ac3,65d6bb0e977760de756971f7,65d6bddc959263ac036fb569,0.05,0.05,1,23,185,84,1,sevenfive,,,,,,,,,,,,,,,,,,,,,,,,,,,,,,,,,,,,,,,,,,,,,,,,,,,,,,,,,,,,,,,,,,,,,,,,,,,,,,,,,,,,,,,,,,,,,,,,,,,,,,,,,,,,,,,,,,,,,,,,,,,,,,,,,,,,,,,,,
,,65b571deec1559505fc20ac3,2024-02-22_24h23.13.045,kallum_motion_pilot,2023.2.2,Win32,62.5,65b571deec1559505fc20ac3,65d6bb0e977760de756971f7,65d6bddc959263ac036fb569,0.05,0.05,1,24,186,49,1,onethree,,,,,,,,,,,,,,,,,,,,,,,,,,,,,,,,,,,,,,,,,,,,,,,,,,,,,,,,,,,,,,,,,,,,,,,,,,,,,,,,,,,,,,,,,,,,,,,,,,,,,,,,,,,,,,,,,,,,,,,,,,,,,,,,,,,,,,,,,
,,65b571deec1559505fc20ac3,2024-02-22_24h23.13.045,kallum_motion_pilot,2023.2.2,Win32,62.5,65b571deec1559505fc20ac3,65d6bb0e977760de756971f7,65d6bddc959263ac036fb569,0.05,0.05,1,25,187,82,1,sixfive,,,,,,,,,,,,,,,,,,,,,,,,,,,,,,,,,,,,,,,,,,,,,,,,,,,,,,,,,,,,,,,,,,,,,,,,,,,,,,,,,,,,,,,,,,,,,,,,,,,,,,,,,,,,,,,,,,,,,,,,,,,,,,,,,,,,,,,,,
,,65b571deec1559505fc20ac3,2024-02-22_24h23.13.045,kallum_motion_pilot,2023.2.2,Win32,62.5,65b571deec1559505fc20ac3,65d6bb0e977760de756971f7,65d6bddc959263ac036fb569,0.05,0.05,1,26,188,12,1,threeone,,,,,,,,,,,,,,,,,,,,,,,,,,,,,,,,,,,,,,,,,,,,,,,,,,,,,,,,,,,,,,,,,,,,,,,,,,,,,,,,,,,,,,,,,,,,,,,,,,,,,,,,,,,,,,,,,,,,,,,,,,,,,,,,,,,,,,,,,
,,65b571deec1559505fc20ac3,2024-02-22_24h23.13.045,kallum_motion_pilot,2023.2.2,Win32,62.5,65b571deec1559505fc20ac3,65d6bb0e977760de756971f7,65d6bddc959263ac036fb569,0.05,0.051,1,27,189,7,1,fourthree,,,,,,,,,,,,,,,,,,,,,,,,,,,,,,,,,,,,,,,,,,,,,,,,,,,,,,,,,,,,,,,,,,,,,,,,,,,,,,,,,,,,,,,,,,,,,,,,,,,,,,,,,,,,,,,,,,,,,,,,,,,,,,,,,,,,,,,,,
,,65b571deec1559505fc20ac3,2024-02-22_24h23.13.045,kallum_motion_pilot,2023.2.2,Win32,62.5,65b571deec1559505fc20ac3,65d6bb0e977760de756971f7,65d6bddc959263ac036fb569,0.051,0.051,1,28,190,58,1,twoone,,,,,,,,,,,,,,,,,,,,,,,,,,,,,,,,,,,,,,,,,,,,,,,,,,,,,,,,,,,,,,,,,,,,,,,,,,,,,,,,,,,,,,,,,,,,,,,,,,,,,,,,,,,,,,,,,,,,,,,,,,,,,,,,,,,,,,,,,
,,65b571deec1559505fc20ac3,2024-02-22_24h23.13.045,kallum_motion_pilot,2023.2.2,Win32,62.5,65b571deec1559505fc20ac3,65d6bb0e977760de756971f7,65d6bddc959263ac036fb569,0.051,0.051,1,29,191,92,1,sevenfive,,,,,,,,,,,,,,,,,,,,,,,,,,,,,,,,,,,,,,,,,,,,,,,,,,,,,,,,,,,,,,,,,,,,,,,,,,,,,,,,,,,,,,,,,,,,,,,,,,,,,,,,,,,,,,,,,,,,,,,,,,,,,,,,,,,,,,,,,
,,65b571deec1559505fc20ac3,2024-02-22_24h23.13.045,kallum_motion_pilot,2023.2.2,Win32,62.5,65b571deec1559505fc20ac3,65d6bb0e977760de756971f7,65d6bddc959263ac036fb569,0.051,0.051,1,30,192,161,1,fiveseven,,,,,,,,,,,,,,,,,,,,,,,,,,,,,,,,,,,,,,,,,,,,,,,,,,,,,,,,,,,,,,,,,,,,,,,,,,,,,,,,,,,,,,,,,,,,,,,,,,,,,,,,,,,,,,,,,,,,,,,,,,,,,,,,,,,,,,,,,
,,65b571deec1559505fc20ac3,2024-02-22_24h23.13.045,kallum_motion_pilot,2023.2.2,Win32,62.5,65b571deec1559505fc20ac3,65d6bb0e977760de756971f7,65d6bddc959263ac036fb569,0.051,0.051,1,31,193,3,1,twofour,,,,,,,,,,,,,,,,,,,,,,,,,,,,,,,,,,,,,,,,,,,,,,,,,,,,,,,,,,,,,,,,,,,,,,,,,,,,,,,,,,,,,,,,,,,,,,,,,,,,,,,,,,,,,,,,,,,,,,,,,,,,,,,,,,,,,,,,,
,,65b571deec1559505fc20ac3,2024-02-22_24h23.13.045,kallum_motion_pilot,2023.2.2,Win32,62.5,65b571deec1559505fc20ac3,65d6bb0e977760de756971f7,65d6bddc959263ac036fb569,0.051,0.051,1,32,194,30,1,fourtwo,,,,,,,,,,,,,,,,,,,,,,,,,,,,,,,,,,,,,,,,,,,,,,,,,,,,,,,,,,,,,,,,,,,,,,,,,,,,,,,,,,,,,,,,,,,,,,,,,,,,,,,,,,,,,,,,,,,,,,,,,,,,,,,,,,,,,,,,,
,,65b571deec1559505fc20ac3,2024-02-22_24h23.13.045,kallum_motion_pilot,2023.2.2,Win32,62.5,65b571deec1559505fc20ac3,65d6bb0e977760de756971f7,65d6bddc959263ac036fb569,0.051,0.051,1,33,195,62,1,fourtwo,,,,,,,,,,,,,,,,,,,,,,,,,,,,,,,,,,,,,,,,,,,,,,,,,,,,,,,,,,,,,,,,,,,,,,,,,,,,,,,,,,,,,,,,,,,,,,,,,,,,,,,,,,,,,,,,,,,,,,,,,,,,,,,,,,,,,,,,,
,,65b571deec1559505fc20ac3,2024-02-22_24h23.13.045,kallum_motion_pilot,2023.2.2,Win32,62.5,65b571deec1559505fc20ac3,65d6bb0e977760de756971f7,65d6bddc959263ac036fb569,0.051,0.052,1,34,196,138,1,sixfive,,,,,,,,,,,,,,,,,,,,,,,,,,,,,,,,,,,,,,,,,,,,,,,,,,,,,,,,,,,,,,,,,,,,,,,,,,,,,,,,,,,,,,,,,,,,,,,,,,,,,,,,,,,,,,,,,,,,,,,,,,,,,,,,,,,,,,,,,
,,65b571deec1559505fc20ac3,2024-02-22_24h23.13.045,kallum_motion_pilot,2023.2.2,Win32,62.5,65b571deec1559505fc20ac3,65d6bb0e977760de756971f7,65d6bddc959263ac036fb569,0.052,0.052,1,35,197,17,1,onethree,,,,,,,,,,,,,,,,,,,,,,,,,,,,,,,,,,,,,,,,,,,,,,,,,,,,,,,,,,,,,,,,,,,,,,,,,,,,,,,,,,,,,,,,,,,,,,,,,,,,,,,,,,,,,,,,,,,,,,,,,,,,,,,,,,,,,,,,,
,,65b571deec1559505fc20ac3,2024-02-22_24h23.13.045,kallum_motion_pilot,2023.2.2,Win32,62.5,65b571deec1559505fc20ac3,65d6bb0e977760de756971f7,65d6bddc959263ac036fb569,0.052,0.052,1,36,198,103,1,eightseven,,,,,,,,,,,,,,,,,,,,,,,,,,,,,,,,,,,,,,,,,,,,,,,,,,,,,,,,,,,,,,,,,,,,,,,,,,,,,,,,,,,,,,,,,,,,,,,,,,,,,,,,,,,,,,,,,,,,,,,,,,,,,,,,,,,,,,,,,
,,65b571deec1559505fc20ac3,2024-02-22_24h23.13.045,kallum_motion_pilot,2023.2.2,Win32,62.5,65b571deec1559505fc20ac3,65d6bb0e977760de756971f7,65d6bddc959263ac036fb569,0.052,0.052,1,37,199,45,1,threefour,,,,,,,,,,,,,,,,,,,,,,,,,,,,,,,,,,,,,,,,,,,,,,,,,,,,,,,,,,,,,,,,,,,,,,,,,,,,,,,,,,,,,,,,,,,,,,,,,,,,,,,,,,,,,,,,,,,,,,,,,,,,,,,,,,,,,,,,,
,,65b571deec1559505fc20ac3,2024-02-22_24h23.13.045,kallum_motion_pilot,2023.2.2,Win32,62.5,65b571deec1559505fc20ac3,65d6bb0e977760de756971f7,65d6bddc959263ac036fb569,0.052,0.052,1,38,200,147,1,sixeight,,,,,,,,,,,,,,,,,,,,,,,,,,,,,,,,,,,,,,,,,,,,,,,,,,,,,,,,,,,,,,,,,,,,,,,,,,,,,,,,,,,,,,,,,,,,,,,,,,,,,,,,,,,,,,,,,,,,,,,,,,,,,,,,,,,,,,,,,
,,65b571deec1559505fc20ac3,2024-02-22_24h23.13.045,kallum_motion_pilot,2023.2.2,Win32,62.5,65b571deec1559505fc20ac3,65d6bb0e977760de756971f7,65d6bddc959263ac036fb569,0.052,0.053,1,39,201,53,1,threefour,,,,,,,,,,,,,,,,,,,,,,,,,,,,,,,,,,,,,,,,,,,,,,,,,,,,,,,,,,,,,,,,,,,,,,,,,,,,,,,,,,,,,,,,,,,,,,,,,,,,,,,,,,,,,,,,,,,,,,,,,,,,,,,,,,,,,,,,,
,,65b571deec1559505fc20ac3,2024-02-22_24h23.13.045,kallum_motion_pilot,2023.2.2,Win32,62.5,65b571deec1559505fc20ac3,65d6bb0e977760de756971f7,65d6bddc959263ac036fb569,0.053,0.053,1,40,202,64,1,onetwo,,,,,,,,,,,,,,,,,,,,,,,,,,,,,,,,,,,,,,,,,,,,,,,,,,,,,,,,,,,,,,,,,,,,,,,,,,,,,,,,,,,,,,,,,,,,,,,,,,,,,,,,,,,,,,,,,,,,,,,,,,,,,,,,,,,,,,,,,
,,65b571deec1559505fc20ac3,2024-02-22_24h23.13.045,kallum_motion_pilot,2023.2.2,Win32,62.5,65b571deec1559505fc20ac3,65d6bb0e977760de756971f7,65d6bddc959263ac036fb569,0.053,0.053,1,41,203,95,1,eightseven,,,,,,,,,,,,,,,,,,,,,,,,,,,,,,,,,,,,,,,,,,,,,,,,,,,,,,,,,,,,,,,,,,,,,,,,,,,,,,,,,,,,,,,,,,,,,,,,,,,,,,,,,,,,,,,,,,,,,,,,,,,,,,,,,,,,,,,,,
,,65b571deec1559505fc20ac3,2024-02-22_24h23.13.045,kallum_motion_pilot,2023.2.2,Win32,62.5,65b571deec1559505fc20ac3,65d6bb0e977760de756971f7,65d6bddc959263ac036fb569,0.053,0.053,1,42,204,107,1,sixeight,,,,,,,,,,,,,,,,,,,,,,,,,,,,,,,,,,,,,,,,,,,,,,,,,,,,,,,,,,,,,,,,,,,,,,,,,,,,,,,,,,,,,,,,,,,,,,,,,,,,,,,,,,,,,,,,,,,,,,,,,,,,,,,,,,,,,,,,,
,,65b571deec1559505fc20ac3,2024-02-22_24h23.13.045,kallum_motion_pilot,2023.2.2,Win32,62.5,65b571deec1559505fc20ac3,65d6bb0e977760de756971f7,65d6bddc959263ac036fb569,0.053,0.054,1,43,205,108,1,sevenfive,,,,,,,,,,,,,,,,,,,,,,,,,,,,,,,,,,,,,,,,,,,,,,,,,,,,,,,,,,,,,,,,,,,,,,,,,,,,,,,,,,,,,,,,,,,,,,,,,,,,,,,,,,,,,,,,,,,,,,,,,,,,,,,,,,,,,,,,,
,,65b571deec1559505fc20ac3,2024-02-22_24h23.13.045,kallum_motion_pilot,2023.2.2,Win32,62.5,65b571deec1559505fc20ac3,65d6bb0e977760de756971f7,65d6bddc959263ac036fb569,0.054,0.054,1,44,206,97,1,fiveseven,,,,,,,,,,,,,,,,,,,,,,,,,,,,,,,,,,,,,,,,,,,,,,,,,,,,,,,,,,,,,,,,,,,,,,,,,,,,,,,,,,,,,,,,,,,,,,,,,,,,,,,,,,,,,,,,,,,,,,,,,,,,,,,,,,,,,,,,,
,,65b571deec1559505fc20ac3,2024-02-22_24h23.13.045,kallum_motion_pilot,2023.2.2,Win32,62.5,65b571deec1559505fc20ac3,65d6bb0e977760de756971f7,65d6bddc959263ac036fb569,0.054,0.054,1,45,207,142,1,eightsix,,,,,,,,,,,,,,,,,,,,,,,,,,,,,,,,,,,,,,,,,,,,,,,,,,,,,,,,,,,,,,,,,,,,,,,,,,,,,,,,,,,,,,,,,,,,,,,,,,,,,,,,,,,,,,,,,,,,,,,,,,,,,,,,,,,,,,,,,
,,65b571deec1559505fc20ac3,2024-02-22_24h23.13.045,kallum_motion_pilot,2023.2.2,Win32,62.5,65b571deec1559505fc20ac3,65d6bb0e977760de756971f7,65d6bddc959263ac036fb569,0.054,0.054,1,46,208,122,1,sixfive,,,,,,,,,,,,,,,,,,,,,,,,,,,,,,,,,,,,,,,,,,,,,,,,,,,,,,,,,,,,,,,,,,,,,,,,,,,,,,,,,,,,,,,,,,,,,,,,,,,,,,,,,,,,,,,,,,,,,,,,,,,,,,,,,,,,,,,,,
,,65b571deec1559505fc20ac3,2024-02-22_24h23.13.045,kallum_motion_pilot,2023.2.2,Win32,62.5,65b571deec1559505fc20ac3,65d6bb0e977760de756971f7,65d6bddc959263ac036fb569,0.054,0.054,1,47,209,99,1,sixeight,,,,,,,,,,,,,,,,,,,,,,,,,,,,,,,,,,,,,,,,,,,,,,,,,,,,,,,,,,,,,,,,,,,,,,,,,,,,,,,,,,,,,,,,,,,,,,,,,,,,,,,,,,,,,,,,,,,,,,,,,,,,,,,,,,,,,,,,,
,,65b571deec1559505fc20ac3,2024-02-22_24h23.13.045,kallum_motion_pilot,2023.2.2,Win32,62.5,65b571deec1559505fc20ac3,65d6bb0e977760de756971f7,65d6bddc959263ac036fb569,0.054,0.054,1,48,210,74,1,twoone,,,,,,,,,,,,,,,,,,,,,,,,,,,,,,,,,,,,,,,,,,,,,,,,,,,,,,,,,,,,,,,,,,,,,,,,,,,,,,,,,,,,,,,,,,,,,,,,,,,,,,,,,,,,,,,,,,,,,,,,,,,,,,,,,,,,,,,,,
,,65b571deec1559505fc20ac3,2024-02-22_24h23.13.045,kallum_motion_pilot,2023.2.2,Win32,62.5,65b571deec1559505fc20ac3,65d6bb0e977760de756971f7,65d6bddc959263ac036fb569,0.054,0.054,1,49,211,41,1,onethree,,,,,,,,,,,,,,,,,,,,,,,,,,,,,,,,,,,,,,,,,,,,,,,,,,,,,,,,,,,,,,,,,,,,,,,,,,,,,,,,,,,,,,,,,,,,,,,,,,,,,,,,,,,,,,,,,,,,,,,,,,,,,,,,,,,,,,,,,
,,65b571deec1559505fc20ac3,2024-02-22_24h23.13.045,kallum_motion_pilot,2023.2.2,Win32,62.5,65b571deec1559505fc20ac3,65d6bb0e977760de756971f7,65d6bddc959263ac036fb569,0.054,0.054,1,50,212,73,1,onethree,,,,,,,,,,,,,,,,,,,,,,,,,,,,,,,,,,,,,,,,,,,,,,,,,,,,,,,,,,,,,,,,,,,,,,,,,,,,,,,,,,,,,,,,,,,,,,,,,,,,,,,,,,,,,,,,,,,,,,,,,,,,,,,,,,,,,,,,,
,,65b571deec1559505fc20ac3,2024-02-22_24h23.13.045,kallum_motion_pilot,2023.2.2,Win32,62.5,65b571deec1559505fc20ac3,65d6bb0e977760de756971f7,65d6bddc959263ac036fb569,0.054,0.054,1,51,213,100,1,sevenfive,,,,,,,,,,,,,,,,,,,,,,,,,,,,,,,,,,,,,,,,,,,,,,,,,,,,,,,,,,,,,,,,,,,,,,,,,,,,,,,,,,,,,,,,,,,,,,,,,,,,,,,,,,,,,,,,,,,,,,,,,,,,,,,,,,,,,,,,,
,,65b571deec1559505fc20ac3,2024-02-22_24h23.13.045,kallum_motion_pilot,2023.2.2,Win32,62.5,65b571deec1559505fc20ac3,65d6bb0e977760de756971f7,65d6bddc959263ac036fb569,0.055,0.055,1,52,214,31,1,fourthree,,,,,,,,,,,,,,,,,,,,,,,,,,,,,,,,,,,,,,,,,,,,,,,,,,,,,,,,,,,,,,,,,,,,,,,,,,,,,,,,,,,,,,,,,,,,,,,,,,,,,,,,,,,,,,,,,,,,,,,,,,,,,,,,,,,,,,,,,
,,65b571deec1559505fc20ac3,2024-02-22_24h23.13.045,kallum_motion_pilot,2023.2.2,Win32,62.5,65b571deec1559505fc20ac3,65d6bb0e977760de756971f7,65d6bddc959263ac036fb569,0.055,0.055,1,53,215,5,1,threefour,,,,,,,,,,,,,,,,,,,,,,,,,,,,,,,,,,,,,,,,,,,,,,,,,,,,,,,,,,,,,,,,,,,,,,,,,,,,,,,,,,,,,,,,,,,,,,,,,,,,,,,,,,,,,,,,,,,,,,,,,,,,,,,,,,,,,,,,,
,,65b571deec1559505fc20ac3,2024-02-22_24h23.13.045,kallum_motion_pilot,2023.2.2,Win32,62.5,65b571deec1559505fc20ac3,65d6bb0e977760de756971f7,65d6bddc959263ac036fb569,0.055,0.055,1,54,216,110,1,eightsix,,,,,,,,,,,,,,,,,,,,,,,,,,,,,,,,,,,,,,,,,,,,,,,,,,,,,,,,,,,,,,,,,,,,,,,,,,,,,,,,,,,,,,,,,,,,,,,,,,,,,,,,,,,,,,,,,,,,,,,,,,,,,,,,,,,,,,,,,
,,65b571deec1559505fc20ac3,2024-02-22_24h23.13.045,kallum_motion_pilot,2023.2.2,Win32,62.5,65b571deec1559505fc20ac3,65d6bb0e977760de756971f7,65d6bddc959263ac036fb569,0.055,0.055,1,55,217,88,1,fivesix,,,,,,,,,,,,,,,,,,,,,,,,,,,,,,,,,,,,,,,,,,,,,,,,,,,,,,,,,,,,,,,,,,,,,,,,,,,,,,,,,,,,,,,,,,,,,,,,,,,,,,,,,,,,,,,,,,,,,,,,,,,,,,,,,,,,,,,,,
,,65b571deec1559505fc20ac3,2024-02-22_24h23.13.045,kallum_motion_pilot,2023.2.2,Win32,62.5,65b571deec1559505fc20ac3,65d6bb0e977760de756971f7,65d6bddc959263ac036fb569,0.055,0.055,1,56,218,117,1,seveneight,,,,,,,,,,,,,,,,,,,,,,,,,,,,,,,,,,,,,,,,,,,,,,,,,,,,,,,,,,,,,,,,,,,,,,,,,,,,,,,,,,,,,,,,,,,,,,,,,,,,,,,,,,,,,,,,,,,,,,,,,,,,,,,,,,,,,,,,,
,,65b571deec1559505fc20ac3,2024-02-22_24h23.13.045,kallum_motion_pilot,2023.2.2,Win32,62.5,65b571deec1559505fc20ac3,65d6bb0e977760de756971f7,65d6bddc959263ac036fb569,0.055,0.055,1,57,219,120,1,fivesix,,,,,,,,,,,,,,,,,,,,,,,,,,,,,,,,,,,,,,,,,,,,,,,,,,,,,,,,,,,,,,,,,,,,,,,,,,,,,,,,,,,,,,,,,,,,,,,,,,,,,,,,,,,,,,,,,,,,,,,,,,,,,,,,,,,,,,,,,
,,65b571deec1559505fc20ac3,2024-02-22_24h23.13.045,kallum_motion_pilot,2023.2.2,Win32,62.5,65b571deec1559505fc20ac3,65d6bb0e977760de756971f7,65d6bddc959263ac036fb569,0.055,0.055,1,58,220,26,1,twoone,,,,,,,,,,,,,,,,,,,,,,,,,,,,,,,,,,,,,,,,,,,,,,,,,,,,,,,,,,,,,,,,,,,,,,,,,,,,,,,,,,,,,,,,,,,,,,,,,,,,,,,,,,,,,,,,,,,,,,,,,,,,,,,,,,,,,,,,,
,,65b571deec1559505fc20ac3,2024-02-22_24h23.13.045,kallum_motion_pilot,2023.2.2,Win32,62.5,65b571deec1559505fc20ac3,65d6bb0e977760de756971f7,65d6bddc959263ac036fb569,0.055,0.055,1,59,221,112,1,fivesix,,,,,,,,,,,,,,,,,,,,,,,,,,,,,,,,,,,,,,,,,,,,,,,,,,,,,,,,,,,,,,,,,,,,,,,,,,,,,,,,,,,,,,,,,,,,,,,,,,,,,,,,,,,,,,,,,,,,,,,,,,,,,,,,,,,,,,,,,
,,65b571deec1559505fc20ac3,2024-02-22_24h23.13.045,kallum_motion_pilot,2023.2.2,Win32,62.5,65b571deec1559505fc20ac3,65d6bb0e977760de756971f7,65d6bddc959263ac036fb569,0.055,0.055,1,60,222,29,1,threefour,,,,,,,,,,,,,,,,,,,,,,,,,,,,,,,,,,,,,,,,,,,,,,,,,,,,,,,,,,,,,,,,,,,,,,,,,,,,,,,,,,,,,,,,,,,,,,,,,,,,,,,,,,,,,,,,,,,,,,,,,,,,,,,,,,,,,,,,,
,,65b571deec1559505fc20ac3,2024-02-22_24h23.13.045,kallum_motion_pilot,2023.2.2,Win32,62.5,65b571deec1559505fc20ac3,65d6bb0e977760de756971f7,65d6bddc959263ac036fb569,0.055,0.055,1,61,223,81,1,fiveseven,,,,,,,,,,,,,,,,,,,,,,,,,,,,,,,,,,,,,,,,,,,,,,,,,,,,,,,,,,,,,,,,,,,,,,,,,,,,,,,,,,,,,,,,,,,,,,,,,,,,,,,,,,,,,,,,,,,,,,,,,,,,,,,,,,,,,,,,,
,,65b571deec1559505fc20ac3,2024-02-22_24h23.13.045,kallum_motion_pilot,2023.2.2,Win32,62.5,65b571deec1559505fc20ac3,65d6bb0e977760de756971f7,65d6bddc959263ac036fb569,0.055,0.055,1,62,224,70,1,fourtwo,,,,,,,,,,,,,,,,,,,,,,,,,,,,,,,,,,,,,,,,,,,,,,,,,,,,,,,,,,,,,,,,,,,,,,,,,,,,,,,,,,,,,,,,,,,,,,,,,,,,,,,,,,,,,,,,,,,,,,,,,,,,,,,,,,,,,,,,,
,,65b571deec1559505fc20ac3,2024-02-22_24h23.13.045,kallum_motion_pilot,2023.2.2,Win32,62.5,65b571deec1559505fc20ac3,65d6bb0e977760de756971f7,65d6bddc959263ac036fb569,0.056,0.056,1,63,225,157,1,seveneight,,,,,,,,,,,,,,,,,,,,,,,,,,,,,,,,,,,,,,,,,,,,,,,,,,,,,,,,,,,,,,,,,,,,,,,,,,,,,,,,,,,,,,,,,,,,,,,,,,,,,,,,,,,,,,,,,,,,,,,,,,,,,,,,,,,,,,,,,
,,65b571deec1559505fc20ac3,2024-02-22_24h23.13.045,kallum_motion_pilot,2023.2.2,Win32,62.5,65b571deec1559505fc20ac3,65d6bb0e977760de756971f7,65d6bddc959263ac036fb569,0.056,0.056,1,64,226,149,1,seveneight,,,,,,,,,,,,,,,,,,,,,,,,,,,,,,,,,,,,,,,,,,,,,,,,,,,,,,,,,,,,,,,,,,,,,,,,,,,,,,,,,,,,,,,,,,,,,,,,,,,,,,,,,,,,,,,,,,,,,,,,,,,,,,,,,,,,,,,,,
,,65b571deec1559505fc20ac3,2024-02-22_24h23.13.045,kallum_motion_pilot,2023.2.2,Win32,62.5,65b571deec1559505fc20ac3,65d6bb0e977760de756971f7,65d6bddc959263ac036fb569,0.056,0.056,1,65,227,42,1,twoone,,,,,,,,,,,,,,,,,,,,,,,,,,,,,,,,,,,,,,,,,,,,,,,,,,,,,,,,,,,,,,,,,,,,,,,,,,,,,,,,,,,,,,,,,,,,,,,,,,,,,,,,,,,,,,,,,,,,,,,,,,,,,,,,,,,,,,,,,
,,65b571deec1559505fc20ac3,2024-02-22_24h23.13.045,kallum_motion_pilot,2023.2.2,Win32,62.5,65b571deec1559505fc20ac3,65d6bb0e977760de756971f7,65d6bddc959263ac036fb569,0.056,0.056,1,66,228,54,1,fourtwo,,,,,,,,,,,,,,,,,,,,,,,,,,,,,,,,,,,,,,,,,,,,,,,,,,,,,,,,,,,,,,,,,,,,,,,,,,,,,,,,,,,,,,,,,,,,,,,,,,,,,,,,,,,,,,,,,,,,,,,,,,,,,,,,,,,,,,,,,
,,65b571deec1559505fc20ac3,2024-02-22_24h23.13.045,kallum_motion_pilot,2023.2.2,Win32,62.5,65b571deec1559505fc20ac3,65d6bb0e977760de756971f7,65d6bddc959263ac036fb569,0.056,0.056,1,67,229,40,1,onetwo,,,,,,,,,,,,,,,,,,,,,,,,,,,,,,,,,,,,,,,,,,,,,,,,,,,,,,,,,,,,,,,,,,,,,,,,,,,,,,,,,,,,,,,,,,,,,,,,,,,,,,,,,,,,,,,,,,,,,,,,,,,,,,,,,,,,,,,,,
,,65b571deec1559505fc20ac3,2024-02-22_24h23.13.045,kallum_motion_pilot,2023.2.2,Win32,62.5,65b571deec1559505fc20ac3,65d6bb0e977760de756971f7,65d6bddc959263ac036fb569,0.056,0.056,1,68,230,52,1,threeone,,,,,,,,,,,,,,,,,,,,,,,,,,,,,,,,,,,,,,,,,,,,,,,,,,,,,,,,,,,,,,,,,,,,,,,,,,,,,,,,,,,,,,,,,,,,,,,,,,,,,,,,,,,,,,,,,,,,,,,,,,,,,,,,,,,,,,,,,
,,65b571deec1559505fc20ac3,2024-02-22_24h23.13.045,kallum_motion_pilot,2023.2.2,Win32,62.5,65b571deec1559505fc20ac3,65d6bb0e977760de756971f7,65d6bddc959263ac036fb569,0.057,0.057,1,69,231,151,1,eightseven,,,,,,,,,,,,,,,,,,,,,,,,,,,,,,,,,,,,,,,,,,,,,,,,,,,,,,,,,,,,,,,,,,,,,,,,,,,,,,,,,,,,,,,,,,,,,,,,,,,,,,,,,,,,,,,,,,,,,,,,,,,,,,,,,,,,,,,,,
,,65b571deec1559505fc20ac3,2024-02-22_24h23.13.045,kallum_motion_pilot,2023.2.2,Win32,62.5,65b571deec1559505fc20ac3,65d6bb0e977760de756971f7,65d6bddc959263ac036fb569,0.057,0.057,1,70,232,67,1,twofour,,,,,,,,,,,,,,,,,,,,,,,,,,,,,,,,,,,,,,,,,,,,,,,,,,,,,,,,,,,,,,,,,,,,,,,,,,,,,,,,,,,,,,,,,,,,,,,,,,,,,,,,,,,,,,,,,,,,,,,,,,,,,,,,,,,,,,,,,
,,65b571deec1559505fc20ac3,2024-02-22_24h23.13.045,kallum_motion_pilot,2023.2.2,Win32,62.5,65b571deec1559505fc20ac3,65d6bb0e977760de756971f7,65d6bddc959263ac036fb569,0.057,0.057,1,71,233,22,1,fourtwo,,,,,,,,,,,,,,,,,,,,,,,,,,,,,,,,,,,,,,,,,,,,,,,,,,,,,,,,,,,,,,,,,,,,,,,,,,,,,,,,,,,,,,,,,,,,,,,,,,,,,,,,,,,,,,,,,,,,,,,,,,,,,,,,,,,,,,,,,
,,65b571deec1559505fc20ac3,2024-02-22_24h23.13.045,kallum_motion_pilot,2023.2.2,Win32,62.5,65b571deec1559505fc20ac3,65d6bb0e977760de756971f7,65d6bddc959263ac036fb569,0.057,0.057,1,72,234,57,1,onethree,,,,,,,,,,,,,,,,,,,,,,,,,,,,,,,,,,,,,,,,,,,,,,,,,,,,,,,,,,,,,,,,,,,,,,,,,,,,,,,,,,,,,,,,,,,,,,,,,,,,,,,,,,,,,,,,,,,,,,,,,,,,,,,,,,,,,,,,,
,,65b571deec1559505fc20ac3,2024-02-22_24h23.13.045,kallum_motion_pilot,2023.2.2,Win32,62.5,65b571deec1559505fc20ac3,65d6bb0e977760de756971f7,65d6bddc959263ac036fb569,0.058,0.058,1,73,235,109,1,seveneight,,,,,,,,,,,,,,,,,,,,,,,,,,,,,,,,,,,,,,,,,,,,,,,,,,,,,,,,,,,,,,,,,,,,,,,,,,,,,,,,,,,,,,,,,,,,,,,,,,,,,,,,,,,,,,,,,,,,,,,,,,,,,,,,,,,,,,,,,
,,65b571deec1559505fc20ac3,2024-02-22_24h23.13.045,kallum_motion_pilot,2023.2.2,Win32,62.5,65b571deec1559505fc20ac3,65d6bb0e977760de756971f7,65d6bddc959263ac036fb569,0.058,0.058,1,74,236,140,1,sevenfive,,,,,,,,,,,,,,,,,,,,,,,,,,,,,,,,,,,,,,,,,,,,,,,,,,,,,,,,,,,,,,,,,,,,,,,,,,,,,,,,,,,,,,,,,,,,,,,,,,,,,,,,,,,,,,,,,,,,,,,,,,,,,,,,,,,,,,,,,
,,65b571deec1559505fc20ac3,2024-02-22_24h23.13.045,kallum_motion_pilot,2023.2.2,Win32,62.5,65b571deec1559505fc20ac3,65d6bb0e977760de756971f7,65d6bddc959263ac036fb569,0.058,0.058,1,75,237,131,1,sixeight,,,,,,,,,,,,,,,,,,,,,,,,,,,,,,,,,,,,,,,,,,,,,,,,,,,,,,,,,,,,,,,,,,,,,,,,,,,,,,,,,,,,,,,,,,,,,,,,,,,,,,,,,,,,,,,,,,,,,,,,,,,,,,,,,,,,,,,,,
,,65b571deec1559505fc20ac3,2024-02-22_24h23.13.045,kallum_motion_pilot,2023.2.2,Win32,62.5,65b571deec1559505fc20ac3,65d6bb0e977760de756971f7,65d6bddc959263ac036fb569,0.058,0.058,1,76,238,1,1,onethree,,,,,,,,,,,,,,,,,,,,,,,,,,,,,,,,,,,,,,,,,,,,,,,,,,,,,,,,,,,,,,,,,,,,,,,,,,,,,,,,,,,,,,,,,,,,,,,,,,,,,,,,,,,,,,,,,,,,,,,,,,,,,,,,,,,,,,,,,
,,65b571deec1559505fc20ac3,2024-02-22_24h23.13.045,kallum_motion_pilot,2023.2.2,Win32,62.5,65b571deec1559505fc20ac3,65d6bb0e977760de756971f7,65d6bddc959263ac036fb569,0.058,0.058,1,77,239,136,1,fivesix,,,,,,,,,,,,,,,,,,,,,,,,,,,,,,,,,,,,,,,,,,,,,,,,,,,,,,,,,,,,,,,,,,,,,,,,,,,,,,,,,,,,,,,,,,,,,,,,,,,,,,,,,,,,,,,,,,,,,,,,,,,,,,,,,,,,,,,,,
,,65b571deec1559505fc20ac3,2024-02-22_24h23.13.045,kallum_motion_pilot,2023.2.2,Win32,62.5,65b571deec1559505fc20ac3,65d6bb0e977760de756971f7,65d6bddc959263ac036fb569,0.058,0.058,1,78,240,137,1,fiveseven,,,,,,,,,,,,,,,,,,,,,,,,,,,,,,,,,,,,,,,,,,,,,,,,,,,,,,,,,,,,,,,,,,,,,,,,,,,,,,,,,,,,,,,,,,,,,,,,,,,,,,,,,,,,,,,,,,,,,,,,,,,,,,,,,,,,,,,,,
,,65b571deec1559505fc20ac3,2024-02-22_24h23.13.045,kallum_motion_pilot,2023.2.2,Win32,62.5,65b571deec1559505fc20ac3,65d6bb0e977760de756971f7,65d6bddc959263ac036fb569,0.058,0.058,1,79,241,38,1,fourtwo,,,,,,,,,,,,,,,,,,,,,,,,,,,,,,,,,,,,,,,,,,,,,,,,,,,,,,,,,,,,,,,,,,,,,,,,,,,,,,,,,,,,,,,,,,,,,,,,,,,,,,,,,,,,,,,,,,,,,,,,,,,,,,,,,,,,,,,,,
,,65b571deec1559505fc20ac3,2024-02-22_24h23.13.045,kallum_motion_pilot,2023.2.2,Win32,62.5,65b571deec1559505fc20ac3,65d6bb0e977760de756971f7,65d6bddc959263ac036fb569,0.058,0.058,1,80,242,43,1,twofour,,,,,,,,,,,,,,,,,,,,,,,,,,,,,,,,,,,,,,,,,,,,,,,,,,,,,,,,,,,,,,,,,,,,,,,,,,,,,,,,,,,,,,,,,,,,,,,,,,,,,,,,,,,,,,,,,,,,,,,,,,,,,,,,,,,,,,,,,
,,65b571deec1559505fc20ac3,2024-02-22_24h23.13.045,kallum_motion_pilot,2023.2.2,Win32,62.5,65b571deec1559505fc20ac3,65d6bb0e977760de756971f7,65d6bddc959263ac036fb569,0.058,0.058,1,81,243,123,1,sixeight,,,,,,,,,,,,,,,,,,,,,,,,,,,,,,,,,,,,,,,,,,,,,,,,,,,,,,,,,,,,,,,,,,,,,,,,,,,,,,,,,,,,,,,,,,,,,,,,,,,,,,,,,,,,,,,,,,,,,,,,,,,,,,,,,,,,,,,,,
,,65b571deec1559505fc20ac3,2024-02-22_24h23.13.045,kallum_motion_pilot,2023.2.2,Win32,62.5,65b571deec1559505fc20ac3,65d6bb0e977760de756971f7,65d6bddc959263ac036fb569,0.058,0.058,1,82,244,34,1,twoone,,,,,,,,,,,,,,,,,,,,,,,,,,,,,,,,,,,,,,,,,,,,,,,,,,,,,,,,,,,,,,,,,,,,,,,,,,,,,,,,,,,,,,,,,,,,,,,,,,,,,,,,,,,,,,,,,,,,,,,,,,,,,,,,,,,,,,,,,
,,65b571deec1559505fc20ac3,2024-02-22_24h23.13.045,kallum_motion_pilot,2023.2.2,Win32,62.5,65b571deec1559505fc20ac3,65d6bb0e977760de756971f7,65d6bddc959263ac036fb569,0.058,0.058,1,83,245,9,1,onethree,,,,,,,,,,,,,,,,,,,,,,,,,,,,,,,,,,,,,,,,,,,,,,,,,,,,,,,,,,,,,,,,,,,,,,,,,,,,,,,,,,,,,,,,,,,,,,,,,,,,,,,,,,,,,,,,,,,,,,,,,,,,,,,,,,,,,,,,,
,,65b571deec1559505fc20ac3,2024-02-22_24h23.13.045,kallum_motion_pilot,2023.2.2,Win32,62.5,65b571deec1559505fc20ac3,65d6bb0e977760de756971f7,65d6bddc959263ac036fb569,0.058,0.058,1,84,246,20,1,threeone,,,,,,,,,,,,,,,,,,,,,,,,,,,,,,,,,,,,,,,,,,,,,,,,,,,,,,,,,,,,,,,,,,,,,,,,,,,,,,,,,,,,,,,,,,,,,,,,,,,,,,,,,,,,,,,,,,,,,,,,,,,,,,,,,,,,,,,,,
,,65b571deec1559505fc20ac3,2024-02-22_24h23.13.045,kallum_motion_pilot,2023.2.2,Win32,62.5,65b571deec1559505fc20ac3,65d6bb0e977760de756971f7,65d6bddc959263ac036fb569,0.059,0.059,1,85,247,18,1,twoone,,,,,,,,,,,,,,,,,,,,,,,,,,,,,,,,,,,,,,,,,,,,,,,,,,,,,,,,,,,,,,,,,,,,,,,,,,,,,,,,,,,,,,,,,,,,,,,,,,,,,,,,,,,,,,,,,,,,,,,,,,,,,,,,,,,,,,,,,
,,65b571deec1559505fc20ac3,2024-02-22_24h23.13.045,kallum_motion_pilot,2023.2.2,Win32,62.5,65b571deec1559505fc20ac3,65d6bb0e977760de756971f7,65d6bddc959263ac036fb569,0.059,0.059,1,86,248,80,1,fivesix,,,,,,,,,,,,,,,,,,,,,,,,,,,,,,,,,,,,,,,,,,,,,,,,,,,,,,,,,,,,,,,,,,,,,,,,,,,,,,,,,,,,,,,,,,,,,,,,,,,,,,,,,,,,,,,,,,,,,,,,,,,,,,,,,,,,,,,,,
,,65b571deec1559505fc20ac3,2024-02-22_24h23.13.045,kallum_motion_pilot,2023.2.2,Win32,62.5,65b571deec1559505fc20ac3,65d6bb0e977760de756971f7,65d6bddc959263ac036fb569,0.059,0.059,1,87,249,71,1,fourthree,,,,,,,,,,,,,,,,,,,,,,,,,,,,,,,,,,,,,,,,,,,,,,,,,,,,,,,,,,,,,,,,,,,,,,,,,,,,,,,,,,,,,,,,,,,,,,,,,,,,,,,,,,,,,,,,,,,,,,,,,,,,,,,,,,,,,,,,,
,,65b571deec1559505fc20ac3,2024-02-22_24h23.13.045,kallum_motion_pilot,2023.2.2,Win32,62.5,65b571deec1559505fc20ac3,65d6bb0e977760de756971f7,65d6bddc959263ac036fb569,0.059,0.059,1,88,250,46,1,fourtwo,,,,,,,,,,,,,,,,,,,,,,,,,,,,,,,,,,,,,,,,,,,,,,,,,,,,,,,,,,,,,,,,,,,,,,,,,,,,,,,,,,,,,,,,,,,,,,,,,,,,,,,,,,,,,,,,,,,,,,,,,,,,,,,,,,,,,,,,,
,,65b571deec1559505fc20ac3,2024-02-22_24h23.13.045,kallum_motion_pilot,2023.2.2,Win32,62.5,65b571deec1559505fc20ac3,65d6bb0e977760de756971f7,65d6bddc959263ac036fb569,0.059,0.059,1,89,251,102,1,eightsix,,,,,,,,,,,,,,,,,,,,,,,,,,,,,,,,,,,,,,,,,,,,,,,,,,,,,,,,,,,,,,,,,,,,,,,,,,,,,,,,,,,,,,,,,,,,,,,,,,,,,,,,,,,,,,,,,,,,,,,,,,,,,,,,,,,,,,,,,
,,65b571deec1559505fc20ac3,2024-02-22_24h23.13.045,kallum_motion_pilot,2023.2.2,Win32,62.5,65b571deec1559505fc20ac3,65d6bb0e977760de756971f7,65d6bddc959263ac036fb569,0.059,0.059,1,90,252,89,1,fiveseven,,,,,,,,,,,,,,,,,,,,,,,,,,,,,,,,,,,,,,,,,,,,,,,,,,,,,,,,,,,,,,,,,,,,,,,,,,,,,,,,,,,,,,,,,,,,,,,,,,,,,,,,,,,,,,,,,,,,,,,,,,,,,,,,,,,,,,,,,
,,65b571deec1559505fc20ac3,2024-02-22_24h23.13.045,kallum_motion_pilot,2023.2.2,Win32,62.5,65b571deec1559505fc20ac3,65d6bb0e977760de756971f7,65d6bddc959263ac036fb569,0.059,0.06,1,91,253,56,1,onetwo,,,,,,,,,,,,,,,,,,,,,,,,,,,,,,,,,,,,,,,,,,,,,,,,,,,,,,,,,,,,,,,,,,,,,,,,,,,,,,,,,,,,,,,,,,,,,,,,,,,,,,,,,,,,,,,,,,,,,,,,,,,,,,,,,,,,,,,,,
,,65b571deec1559505fc20ac3,2024-02-22_24h23.13.045,kallum_motion_pilot,2023.2.2,Win32,62.5,65b571deec1559505fc20ac3,65d6bb0e977760de756971f7,65d6bddc959263ac036fb569,0.06,0.06,1,92,254,8,1,onetwo,,,,,,,,,,,,,,,,,,,,,,,,,,,,,,,,,,,,,,,,,,,,,,,,,,,,,,,,,,,,,,,,,,,,,,,,,,,,,,,,,,,,,,,,,,,,,,,,,,,,,,,,,,,,,,,,,,,,,,,,,,,,,,,,,,,,,,,,,
,,65b571deec1559505fc20ac3,2024-02-22_24h23.13.045,kallum_motion_pilot,2023.2.2,Win32,62.5,65b571deec1559505fc20ac3,65d6bb0e977760de756971f7,65d6bddc959263ac036fb569,0.061,0.061,1,93,255,25,1,onethree,,,,,,,,,,,,,,,,,,,,,,,,,,,,,,,,,,,,,,,,,,,,,,,,,,,,,,,,,,,,,,,,,,,,,,,,,,,,,,,,,,,,,,,,,,,,,,,,,,,,,,,,,,,,,,,,,,,,,,,,,,,,,,,,,,,,,,,,,
,,65b571deec1559505fc20ac3,2024-02-22_24h23.13.045,kallum_motion_pilot,2023.2.2,Win32,62.5,65b571deec1559505fc20ac3,65d6bb0e977760de756971f7,65d6bddc959263ac036fb569,0.061,0.061,1,94,256,79,1,eightseven,,,,,,,,,,,,,,,,,,,,,,,,,,,,,,,,,,,,,,,,,,,,,,,,,,,,,,,,,,,,,,,,,,,,,,,,,,,,,,,,,,,,,,,,,,,,,,,,,,,,,,,,,,,,,,,,,,,,,,,,,,,,,,,,,,,,,,,,,
,,65b571deec1559505fc20ac3,2024-02-22_24h23.13.045,kallum_motion_pilot,2023.2.2,Win32,62.5,65b571deec1559505fc20ac3,65d6bb0e977760de756971f7,65d6bddc959263ac036fb569,0.061,0.061,1,95,257,11,1,twofour,,,,,,,,,,,,,,,,,,,,,,,,,,,,,,,,,,,,,,,,,,,,,,,,,,,,,,,,,,,,,,,,,,,,,,,,,,,,,,,,,,,,,,,,,,,,,,,,,,,,,,,,,,,,,,,,,,,,,,,,,,,,,,,,,,,,,,,,,
,,65b571deec1559505fc20ac3,2024-02-22_24h23.13.045,kallum_motion_pilot,2023.2.2,Win32,62.5,65b571deec1559505fc20ac3,65d6bb0e977760de756971f7,65d6bddc959263ac036fb569,0.061,0.061,1,96,258,146,1,sixfive,,,,,,,,,,,,,,,,,,,,,,,,,,,,,,,,,,,,,,,,,,,,,,,,,,,,,,,,,,,,,,,,,,,,,,,,,,,,,,,,,,,,,,,,,,,,,,,,,,,,,,,,,,,,,,,,,,,,,,,,,,,,,,,,,,,,,,,,,
,,65b571deec1559505fc20ac3,2024-02-22_24h23.13.045,kallum_motion_pilot,2023.2.2,Win32,62.5,65b571deec1559505fc20ac3,65d6bb0e977760de756971f7,65d6bddc959263ac036fb569,0.061,0.061,1,97,259,87,1,eightseven,,,,,,,,,,,,,,,,,,,,,,,,,,,,,,,,,,,,,,,,,,,,,,,,,,,,,,,,,,,,,,,,,,,,,,,,,,,,,,,,,,,,,,,,,,,,,,,,,,,,,,,,,,,,,,,,,,,,,,,,,,,,,,,,,,,,,,,,,
,,65b571deec1559505fc20ac3,2024-02-22_24h23.13.045,kallum_motion_pilot,2023.2.2,Win32,62.5,65b571deec1559505fc20ac3,65d6bb0e977760de756971f7,65d6bddc959263ac036fb569,0.061,0.061,1,98,260,19,1,twofour,,,,,,,,,,,,,,,,,,,,,,,,,,,,,,,,,,,,,,,,,,,,,,,,,,,,,,,,,,,,,,,,,,,,,,,,,,,,,,,,,,,,,,,,,,,,,,,,,,,,,,,,,,,,,,,,,,,,,,,,,,,,,,,,,,,,,,,,,
,,65b571deec1559505fc20ac3,2024-02-22_24h23.13.045,kallum_motion_pilot,2023.2.2,Win32,62.5,65b571deec1559505fc20ac3,65d6bb0e977760de756971f7,65d6bddc959263ac036fb569,0.061,0.061,1,99,261,21,1,threefour,,,,,,,,,,,,,,,,,,,,,,,,,,,,,,,,,,,,,,,,,,,,,,,,,,,,,,,,,,,,,,,,,,,,,,,,,,,,,,,,,,,,,,,,,,,,,,,,,,,,,,,,,,,,,,,,,,,,,,,,,,,,,,,,,,,,,,,,,
,,65b571deec1559505fc20ac3,2024-02-22_24h23.13.045,kallum_motion_pilot,2023.2.2,Win32,62.5,65b571deec1559505fc20ac3,65d6bb0e977760de756971f7,65d6bddc959263ac036fb569,0.061,0.061,1,100,262,94,1,eightsix,,,,,,,,,,,,,,,,,,,,,,,,,,,,,,,,,,,,,,,,,,,,,,,,,,,,,,,,,,,,,,,,,,,,,,,,,,,,,,,,,,,,,,,,,,,,,,,,,,,,,,,,,,,,,,,,,,,,,,,,,,,,,,,,,,,,,,,,,
,,65b571deec1559505fc20ac3,2024-02-22_24h23.13.045,kallum_motion_pilot,2023.2.2,Win32,62.5,65b571deec1559505fc20ac3,65d6bb0e977760de756971f7,65d6bddc959263ac036fb569,0.061,0.061,1,101,263,132,1,sevenfive,,,,,,,,,,,,,,,,,,,,,,,,,,,,,,,,,,,,,,,,,,,,,,,,,,,,,,,,,,,,,,,,,,,,,,,,,,,,,,,,,,,,,,,,,,,,,,,,,,,,,,,,,,,,,,,,,,,,,,,,,,,,,,,,,,,,,,,,,
,,65b571deec1559505fc20ac3,2024-02-22_24h23.13.045,kallum_motion_pilot,2023.2.2,Win32,62.5,65b571deec1559505fc20ac3,65d6bb0e977760de756971f7,65d6bddc959263ac036fb569,0.061,0.061,1,102,264,119,1,eightseven,,,,,,,,,,,,,,,,,,,,,,,,,,,,,,,,,,,,,,,,,,,,,,,,,,,,,,,,,,,,,,,,,,,,,,,,,,,,,,,,,,,,,,,,,,,,,,,,,,,,,,,,,,,,,,,,,,,,,,,,,,,,,,,,,,,,,,,,,
,,65b571deec1559505fc20ac3,2024-02-22_24h23.13.045,kallum_motion_pilot,2023.2.2,Win32,62.5,65b571deec1559505fc20ac3,65d6bb0e977760de756971f7,65d6bddc959263ac036fb569,0.061,0.062,1,103,265,128,1,fivesix,,,,,,,,,,,,,,,,,,,,,,,,,,,,,,,,,,,,,,,,,,,,,,,,,,,,,,,,,,,,,,,,,,,,,,,,,,,,,,,,,,,,,,,,,,,,,,,,,,,,,,,,,,,,,,,,,,,,,,,,,,,,,,,,,,,,,,,,,
,,65b571deec1559505fc20ac3,2024-02-22_24h23.13.045,kallum_motion_pilot,2023.2.2,Win32,62.5,65b571deec1559505fc20ac3,65d6bb0e977760de756971f7,65d6bddc959263ac036fb569,0.062,0.062,1,104,266,129,1,fiveseven,,,,,,,,,,,,,,,,,,,,,,,,,,,,,,,,,,,,,,,,,,,,,,,,,,,,,,,,,,,,,,,,,,,,,,,,,,,,,,,,,,,,,,,,,,,,,,,,,,,,,,,,,,,,,,,,,,,,,,,,,,,,,,,,,,,,,,,,,
,,65b571deec1559505fc20ac3,2024-02-22_24h23.13.045,kallum_motion_pilot,2023.2.2,Win32,62.5,65b571deec1559505fc20ac3,65d6bb0e977760de756971f7,65d6bddc959263ac036fb569,0.062,0.062,1,105,267,98,1,sixfive,,,,,,,,,,,,,,,,,,,,,,,,,,,,,,,,,,,,,,,,,,,,,,,,,,,,,,,,,,,,,,,,,,,,,,,,,,,,,,,,,,,,,,,,,,,,,,,,,,,,,,,,,,,,,,,,,,,,,,,,,,,,,,,,,,,,,,,,,
,,65b571deec1559505fc20ac3,2024-02-22_24h23.13.045,kallum_motion_pilot,2023.2.2,Win32,62.5,65b571deec1559505fc20ac3,65d6bb0e977760de756971f7,65d6bddc959263ac036fb569,0.062,0.062,1,106,268,27,1,twofour,,,,,,,,,,,,,,,,,,,,,,,,,,,,,,,,,,,,,,,,,,,,,,,,,,,,,,,,,,,,,,,,,,,,,,,,,,,,,,,,,,,,,,,,,,,,,,,,,,,,,,,,,,,,,,,,,,,,,,,,,,,,,,,,,,,,,,,,,
,,65b571deec1559505fc20ac3,2024-02-22_24h23.13.045,kallum_motion_pilot,2023.2.2,Win32,62.5,65b571deec1559505fc20ac3,65d6bb0e977760de756971f7,65d6bddc959263ac036fb569,0.062,0.062,1,107,269,160,1,fivesix,,,,,,,,,,,,,,,,,,,,,,,,,,,,,,,,,,,,,,,,,,,,,,,,,,,,,,,,,,,,,,,,,,,,,,,,,,,,,,,,,,,,,,,,,,,,,,,,,,,,,,,,,,,,,,,,,,,,,,,,,,,,,,,,,,,,,,,,,
,,65b571deec1559505fc20ac3,2024-02-22_24h23.13.045,kallum_motion_pilot,2023.2.2,Win32,62.5,65b571deec1559505fc20ac3,65d6bb0e977760de756971f7,65d6bddc959263ac036fb569,0.062,0.062,1,108,270,47,1,fourthree,,,,,,,,,,,,,,,,,,,,,,,,,,,,,,,,,,,,,,,,,,,,,,,,,,,,,,,,,,,,,,,,,,,,,,,,,,,,,,,,,,,,,,,,,,,,,,,,,,,,,,,,,,,,,,,,,,,,,,,,,,,,,,,,,,,,,,,,,
,,65b571deec1559505fc20ac3,2024-02-22_24h23.13.045,kallum_motion_pilot,2023.2.2,Win32,62.5,65b571deec1559505fc20ac3,65d6bb0e977760de756971f7,65d6bddc959263ac036fb569,0.062,0.062,1,109,271,48,1,onetwo,,,,,,,,,,,,,,,,,,,,,,,,,,,,,,,,,,,,,,,,,,,,,,,,,,,,,,,,,,,,,,,,,,,,,,,,,,,,,,,,,,,,,,,,,,,,,,,,,,,,,,,,,,,,,,,,,,,,,,,,,,,,,,,,,,,,,,,,,
,,65b571deec1559505fc20ac3,2024-02-22_24h23.13.045,kallum_motion_pilot,2023.2.2,Win32,62.5,65b571deec1559505fc20ac3,65d6bb0e977760de756971f7,65d6bddc959263ac036fb569,0.062,0.062,1,110,272,0,1,onetwo,,,,,,,,,,,,,,,,,,,,,,,,,,,,,,,,,,,,,,,,,,,,,,,,,,,,,,,,,,,,,,,,,,,,,,,,,,,,,,,,,,,,,,,,,,,,,,,,,,,,,,,,,,,,,,,,,,,,,,,,,,,,,,,,,,,,,,,,,
,,65b571deec1559505fc20ac3,2024-02-22_24h23.13.045,kallum_motion_pilot,2023.2.2,Win32,62.5,65b571deec1559505fc20ac3,65d6bb0e977760de756971f7,65d6bddc959263ac036fb569,0.062,0.063,1,111,273,155,1,sixeight,,,,,,,,,,,,,,,,,,,,,,,,,,,,,,,,,,,,,,,,,,,,,,,,,,,,,,,,,,,,,,,,,,,,,,,,,,,,,,,,,,,,,,,,,,,,,,,,,,,,,,,,,,,,,,,,,,,,,,,,,,,,,,,,,,,,,,,,,
,,65b571deec1559505fc20ac3,2024-02-22_24h23.13.045,kallum_motion_pilot,2023.2.2,Win32,62.5,65b571deec1559505fc20ac3,65d6bb0e977760de756971f7,65d6bddc959263ac036fb569,0.063,0.063,1,112,274,143,1,eightseven,,,,,,,,,,,,,,,,,,,,,,,,,,,,,,,,,,,,,,,,,,,,,,,,,,,,,,,,,,,,,,,,,,,,,,,,,,,,,,,,,,,,,,,,,,,,,,,,,,,,,,,,,,,,,,,,,,,,,,,,,,,,,,,,,,,,,,,,,
,,65b571deec1559505fc20ac3,2024-02-22_24h23.13.045,kallum_motion_pilot,2023.2.2,Win32,62.5,65b571deec1559505fc20ac3,65d6bb0e977760de756971f7,65d6bddc959263ac036fb569,0.063,0.063,1,113,275,65,1,onethree,,,,,,,,,,,,,,,,,,,,,,,,,,,,,,,,,,,,,,,,,,,,,,,,,,,,,,,,,,,,,,,,,,,,,,,,,,,,,,,,,,,,,,,,,,,,,,,,,,,,,,,,,,,,,,,,,,,,,,,,,,,,,,,,,,,,,,,,,
,,65b571deec1559505fc20ac3,2024-02-22_24h23.13.045,kallum_motion_pilot,2023.2.2,Win32,62.5,65b571deec1559505fc20ac3,65d6bb0e977760de756971f7,65d6bddc959263ac036fb569,0.063,0.063,1,114,276,2,1,twoone,,,,,,,,,,,,,,,,,,,,,,,,,,,,,,,,,,,,,,,,,,,,,,,,,,,,,,,,,,,,,,,,,,,,,,,,,,,,,,,,,,,,,,,,,,,,,,,,,,,,,,,,,,,,,,,,,,,,,,,,,,,,,,,,,,,,,,,,,
,,65b571deec1559505fc20ac3,2024-02-22_24h23.13.045,kallum_motion_pilot,2023.2.2,Win32,62.5,65b571deec1559505fc20ac3,65d6bb0e977760de756971f7,65d6bddc959263ac036fb569,0.063,0.063,1,115,277,124,1,sevenfive,,,,,,,,,,,,,,,,,,,,,,,,,,,,,,,,,,,,,,,,,,,,,,,,,,,,,,,,,,,,,,,,,,,,,,,,,,,,,,,,,,,,,,,,,,,,,,,,,,,,,,,,,,,,,,,,,,,,,,,,,,,,,,,,,,,,,,,,,
,,65b571deec1559505fc20ac3,2024-02-22_24h23.13.045,kallum_motion_pilot,2023.2.2,Win32,62.5,65b571deec1559505fc20ac3,65d6bb0e977760de756971f7,65d6bddc959263ac036fb569,0.063,0.064,1,116,278,150,1,eightsix,,,,,,,,,,,,,,,,,,,,,,,,,,,,,,,,,,,,,,,,,,,,,,,,,,,,,,,,,,,,,,,,,,,,,,,,,,,,,,,,,,,,,,,,,,,,,,,,,,,,,,,,,,,,,,,,,,,,,,,,,,,,,,,,,,,,,,,,,
,,65b571deec1559505fc20ac3,2024-02-22_24h23.13.045,kallum_motion_pilot,2023.2.2,Win32,62.5,65b571deec1559505fc20ac3,65d6bb0e977760de756971f7,65d6bddc959263ac036fb569,0.064,0.064,1,117,279,154,1,sixfive,,,,,,,,,,,,,,,,,,,,,,,,,,,,,,,,,,,,,,,,,,,,,,,,,,,,,,,,,,,,,,,,,,,,,,,,,,,,,,,,,,,,,,,,,,,,,,,,,,,,,,,,,,,,,,,,,,,,,,,,,,,,,,,,,,,,,,,,,
,,65b571deec1559505fc20ac3,2024-02-22_24h23.13.045,kallum_motion_pilot,2023.2.2,Win32,62.5,65b571deec1559505fc20ac3,65d6bb0e977760de756971f7,65d6bddc959263ac036fb569,0.064,0.064,1,118,280,75,1,twofour,,,,,,,,,,,,,,,,,,,,,,,,,,,,,,,,,,,,,,,,,,,,,,,,,,,,,,,,,,,,,,,,,,,,,,,,,,,,,,,,,,,,,,,,,,,,,,,,,,,,,,,,,,,,,,,,,,,,,,,,,,,,,,,,,,,,,,,,,
,,65b571deec1559505fc20ac3,2024-02-22_24h23.13.045,kallum_motion_pilot,2023.2.2,Win32,62.5,65b571deec1559505fc20ac3,65d6bb0e977760de756971f7,65d6bddc959263ac036fb569,0.064,0.064,1,119,281,68,1,threeone,,,,,,,,,,,,,,,,,,,,,,,,,,,,,,,,,,,,,,,,,,,,,,,,,,,,,,,,,,,,,,,,,,,,,,,,,,,,,,,,,,,,,,,,,,,,,,,,,,,,,,,,,,,,,,,,,,,,,,,,,,,,,,,,,,,,,,,,,
,,65b571deec1559505fc20ac3,2024-02-22_24h23.13.045,kallum_motion_pilot,2023.2.2,Win32,62.5,65b571deec1559505fc20ac3,65d6bb0e977760de756971f7,65d6bddc959263ac036fb569,0.064,0.064,1,120,282,126,1,eightsix,,,,,,,,,,,,,,,,,,,,,,,,,,,,,,,,,,,,,,,,,,,,,,,,,,,,,,,,,,,,,,,,,,,,,,,,,,,,,,,,,,,,,,,,,,,,,,,,,,,,,,,,,,,,,,,,,,,,,,,,,,,,,,,,,,,,,,,,,
,,65b571deec1559505fc20ac3,2024-02-22_24h23.13.045,kallum_motion_pilot,2023.2.2,Win32,62.5,65b571deec1559505fc20ac3,65d6bb0e977760de756971f7,65d6bddc959263ac036fb569,0.064,0.064,1,121,283,127,1,eightseven,,,,,,,,,,,,,,,,,,,,,,,,,,,,,,,,,,,,,,,,,,,,,,,,,,,,,,,,,,,,,,,,,,,,,,,,,,,,,,,,,,,,,,,,,,,,,,,,,,,,,,,,,,,,,,,,,,,,,,,,,,,,,,,,,,,,,,,,,
,,65b571deec1559505fc20ac3,2024-02-22_24h23.13.045,kallum_motion_pilot,2023.2.2,Win32,62.5,65b571deec1559505fc20ac3,65d6bb0e977760de756971f7,65d6bddc959263ac036fb569,0.065,0.065,1,122,284,121,1,fiveseven,,,,,,,,,,,,,,,,,,,,,,,,,,,,,,,,,,,,,,,,,,,,,,,,,,,,,,,,,,,,,,,,,,,,,,,,,,,,,,,,,,,,,,,,,,,,,,,,,,,,,,,,,,,,,,,,,,,,,,,,,,,,,,,,,,,,,,,,,
,,65b571deec1559505fc20ac3,2024-02-22_24h23.13.045,kallum_motion_pilot,2023.2.2,Win32,62.5,65b571deec1559505fc20ac3,65d6bb0e977760de756971f7,65d6bddc959263ac036fb569,0.065,0.065,1,123,285,63,1,fourthree,,,,,,,,,,,,,,,,,,,,,,,,,,,,,,,,,,,,,,,,,,,,,,,,,,,,,,,,,,,,,,,,,,,,,,,,,,,,,,,,,,,,,,,,,,,,,,,,,,,,,,,,,,,,,,,,,,,,,,,,,,,,,,,,,,,,,,,,,
